IP_Addresss,target_onset,trial_resp_sp.keys,trial_resp_sp.corr,trial_resp_sp.rt,trials_train_loop.thisRepN,trials_train_loop.thisTrialN,trials_train_loop.thisN,trials_train_loop.thisIndex,trials_train_loop.ran,pic,correct_key,participant,date,expName,psychopyVersion,OS,frameRate,trial_resp_timing.keys,trial_resp_timing.rt,trials_train_timing.thisRepN,trials_train_timing.thisTrialN,trials_train_timing.thisN,trials_train_timing.thisIndex,trials_train_timing.ran,block_id,ontime,forcedRT_resp.keys,forcedRT_resp.corr,forcedRT_resp.rt,trials.thisRepN,trials.thisTrialN,trials.thisN,trials.thisIndex,trials.ran,blocks.thisRepN,blocks.thisTrialN,blocks.thisN,blocks.thisIndex,blocks.ran
71.222.18.206,0,h,1,1.7912,0,0,0,2,1,h.PNG,h,55e49dccc70c7a000d2a57e5,2021-09-08_17h52.58.332,forced_choiceRT,2021.1.2,Win32,60.90875868,,,,,,,,,,,,,,,,,,,,,,
,0,f,1,1.0379,0,1,1,0,1,f.PNG,f,55e49dccc70c7a000d2a57e5,2021-09-08_17h52.58.332,forced_choiceRT,2021.1.2,Win32,60.90875868,,,,,,,,,,,,,,,,,,,,,,
,0,g,1,0.851,0,2,2,1,1,g.PNG,g,55e49dccc70c7a000d2a57e5,2021-09-08_17h52.58.332,forced_choiceRT,2021.1.2,Win32,60.90875868,,,,,,,,,,,,,,,,,,,,,,
,0,h,1,1.5356,0,3,3,2,1,h.PNG,h,55e49dccc70c7a000d2a57e5,2021-09-08_17h52.58.332,forced_choiceRT,2021.1.2,Win32,60.90875868,,,,,,,,,,,,,,,,,,,,,,
,0,f,0,0.7465,1,0,4,1,1,g.PNG,g,55e49dccc70c7a000d2a57e5,2021-09-08_17h52.58.332,forced_choiceRT,2021.1.2,Win32,60.90875868,,,,,,,,,,,,,,,,,,,,,,
,0,f,1,0.7886,1,1,5,0,1,f.PNG,f,55e49dccc70c7a000d2a57e5,2021-09-08_17h52.58.332,forced_choiceRT,2021.1.2,Win32,60.90875868,,,,,,,,,,,,,,,,,,,,,,
,0,g,1,0.7975,1,2,6,1,1,g.PNG,g,55e49dccc70c7a000d2a57e5,2021-09-08_17h52.58.332,forced_choiceRT,2021.1.2,Win32,60.90875868,,,,,,,,,,,,,,,,,,,,,,
,0,j,1,0.8069,1,3,7,3,1,j.PNG,j,55e49dccc70c7a000d2a57e5,2021-09-08_17h52.58.332,forced_choiceRT,2021.1.2,Win32,60.90875868,,,,,,,,,,,,,,,,,,,,,,
,0,h,1,0.9328,2,0,8,2,1,h.PNG,h,55e49dccc70c7a000d2a57e5,2021-09-08_17h52.58.332,forced_choiceRT,2021.1.2,Win32,60.90875868,,,,,,,,,,,,,,,,,,,,,,
,0,g,1,1.0307,2,1,9,1,1,g.PNG,g,55e49dccc70c7a000d2a57e5,2021-09-08_17h52.58.332,forced_choiceRT,2021.1.2,Win32,60.90875868,,,,,,,,,,,,,,,,,,,,,,
,0,g,1,0.5497,2,2,10,1,1,g.PNG,g,55e49dccc70c7a000d2a57e5,2021-09-08_17h52.58.332,forced_choiceRT,2021.1.2,Win32,60.90875868,,,,,,,,,,,,,,,,,,,,,,
,0,g,1,0.4997,2,3,11,1,1,g.PNG,g,55e49dccc70c7a000d2a57e5,2021-09-08_17h52.58.332,forced_choiceRT,2021.1.2,Win32,60.90875868,,,,,,,,,,,,,,,,,,,,,,
,0,j,1,0.9471,3,0,12,3,1,j.PNG,j,55e49dccc70c7a000d2a57e5,2021-09-08_17h52.58.332,forced_choiceRT,2021.1.2,Win32,60.90875868,,,,,,,,,,,,,,,,,,,,,,
,0,j,1,0.5634,3,1,13,3,1,j.PNG,j,55e49dccc70c7a000d2a57e5,2021-09-08_17h52.58.332,forced_choiceRT,2021.1.2,Win32,60.90875868,,,,,,,,,,,,,,,,,,,,,,
,0,h,1,0.9698,3,2,14,2,1,h.PNG,h,55e49dccc70c7a000d2a57e5,2021-09-08_17h52.58.332,forced_choiceRT,2021.1.2,Win32,60.90875868,,,,,,,,,,,,,,,,,,,,,,
,0,h,1,0.5991,3,3,15,2,1,h.PNG,h,55e49dccc70c7a000d2a57e5,2021-09-08_17h52.58.332,forced_choiceRT,2021.1.2,Win32,60.90875868,,,,,,,,,,,,,,,,,,,,,,
,0,h,1,0.4725,4,0,16,2,1,h.PNG,h,55e49dccc70c7a000d2a57e5,2021-09-08_17h52.58.332,forced_choiceRT,2021.1.2,Win32,60.90875868,,,,,,,,,,,,,,,,,,,,,,
,0,g,1,1.182,4,1,17,1,1,g.PNG,g,55e49dccc70c7a000d2a57e5,2021-09-08_17h52.58.332,forced_choiceRT,2021.1.2,Win32,60.90875868,,,,,,,,,,,,,,,,,,,,,,
,0,j,0,0.581,4,2,18,2,1,h.PNG,h,55e49dccc70c7a000d2a57e5,2021-09-08_17h52.58.332,forced_choiceRT,2021.1.2,Win32,60.90875868,,,,,,,,,,,,,,,,,,,,,,
,0,j,1,0.7635,4,3,19,3,1,j.PNG,j,55e49dccc70c7a000d2a57e5,2021-09-08_17h52.58.332,forced_choiceRT,2021.1.2,Win32,60.90875868,,,,,,,,,,,,,,,,,,,,,,
,0,h,1,0.6314,5,0,20,2,1,h.PNG,h,55e49dccc70c7a000d2a57e5,2021-09-08_17h52.58.332,forced_choiceRT,2021.1.2,Win32,60.90875868,,,,,,,,,,,,,,,,,,,,,,
,0,h,0,0.5843,5,1,21,3,1,j.PNG,j,55e49dccc70c7a000d2a57e5,2021-09-08_17h52.58.332,forced_choiceRT,2021.1.2,Win32,60.90875868,,,,,,,,,,,,,,,,,,,,,,
,0,g,0,0.5679,5,2,22,0,1,f.PNG,f,55e49dccc70c7a000d2a57e5,2021-09-08_17h52.58.332,forced_choiceRT,2021.1.2,Win32,60.90875868,,,,,,,,,,,,,,,,,,,,,,
,0,g,1,0.6183,5,3,23,1,1,g.PNG,g,55e49dccc70c7a000d2a57e5,2021-09-08_17h52.58.332,forced_choiceRT,2021.1.2,Win32,60.90875868,,,,,,,,,,,,,,,,,,,,,,
,0,f,1,0.5556,6,0,24,0,1,f.PNG,f,55e49dccc70c7a000d2a57e5,2021-09-08_17h52.58.332,forced_choiceRT,2021.1.2,Win32,60.90875868,,,,,,,,,,,,,,,,,,,,,,
,0,f,1,0.5801,6,1,25,0,1,f.PNG,f,55e49dccc70c7a000d2a57e5,2021-09-08_17h52.58.332,forced_choiceRT,2021.1.2,Win32,60.90875868,,,,,,,,,,,,,,,,,,,,,,
,0,j,1,0.8488,6,2,26,3,1,j.PNG,j,55e49dccc70c7a000d2a57e5,2021-09-08_17h52.58.332,forced_choiceRT,2021.1.2,Win32,60.90875868,,,,,,,,,,,,,,,,,,,,,,
,0,g,1,0.7545,6,3,27,1,1,g.PNG,g,55e49dccc70c7a000d2a57e5,2021-09-08_17h52.58.332,forced_choiceRT,2021.1.2,Win32,60.90875868,,,,,,,,,,,,,,,,,,,,,,
,0,j,1,0.8588,7,0,28,3,1,j.PNG,j,55e49dccc70c7a000d2a57e5,2021-09-08_17h52.58.332,forced_choiceRT,2021.1.2,Win32,60.90875868,,,,,,,,,,,,,,,,,,,,,,
,0,g,0,0.8034,7,1,29,0,1,f.PNG,f,55e49dccc70c7a000d2a57e5,2021-09-08_17h52.58.332,forced_choiceRT,2021.1.2,Win32,60.90875868,,,,,,,,,,,,,,,,,,,,,,
,0,f,1,0.5662,7,2,30,0,1,f.PNG,f,55e49dccc70c7a000d2a57e5,2021-09-08_17h52.58.332,forced_choiceRT,2021.1.2,Win32,60.90875868,,,,,,,,,,,,,,,,,,,,,,
,0,f,1,0.3499,7,3,31,0,1,f.PNG,f,55e49dccc70c7a000d2a57e5,2021-09-08_17h52.58.332,forced_choiceRT,2021.1.2,Win32,60.90875868,,,,,,,,,,,,,,,,,,,,,,
,0,j,1,0.783,8,0,32,3,1,j.PNG,j,55e49dccc70c7a000d2a57e5,2021-09-08_17h52.58.332,forced_choiceRT,2021.1.2,Win32,60.90875868,,,,,,,,,,,,,,,,,,,,,,
,0,f,1,0.58,8,1,33,0,1,f.PNG,f,55e49dccc70c7a000d2a57e5,2021-09-08_17h52.58.332,forced_choiceRT,2021.1.2,Win32,60.90875868,,,,,,,,,,,,,,,,,,,,,,
,0,h,1,1.0534,8,2,34,2,1,h.PNG,h,55e49dccc70c7a000d2a57e5,2021-09-08_17h52.58.332,forced_choiceRT,2021.1.2,Win32,60.90875868,,,,,,,,,,,,,,,,,,,,,,
,0,g,1,1.2026,8,3,35,1,1,g.PNG,g,55e49dccc70c7a000d2a57e5,2021-09-08_17h52.58.332,forced_choiceRT,2021.1.2,Win32,60.90875868,,,,,,,,,,,,,,,,,,,,,,
,0,f,1,0.5468,9,0,36,0,1,f.PNG,f,55e49dccc70c7a000d2a57e5,2021-09-08_17h52.58.332,forced_choiceRT,2021.1.2,Win32,60.90875868,,,,,,,,,,,,,,,,,,,,,,
,0,h,1,1.0139,9,1,37,2,1,h.PNG,h,55e49dccc70c7a000d2a57e5,2021-09-08_17h52.58.332,forced_choiceRT,2021.1.2,Win32,60.90875868,,,,,,,,,,,,,,,,,,,,,,
,0,j,1,0.5319,9,2,38,3,1,j.PNG,j,55e49dccc70c7a000d2a57e5,2021-09-08_17h52.58.332,forced_choiceRT,2021.1.2,Win32,60.90875868,,,,,,,,,,,,,,,,,,,,,,
,0,f,1,0.8315,9,3,39,0,1,f.PNG,f,55e49dccc70c7a000d2a57e5,2021-09-08_17h52.58.332,forced_choiceRT,2021.1.2,Win32,60.90875868,,,,,,,,,,,,,,,,,,,,,,
,0,g,1,1.1725,10,0,40,1,1,g.PNG,g,55e49dccc70c7a000d2a57e5,2021-09-08_17h52.58.332,forced_choiceRT,2021.1.2,Win32,60.90875868,,,,,,,,,,,,,,,,,,,,,,
,0,j,1,0.6466,10,1,41,3,1,j.PNG,j,55e49dccc70c7a000d2a57e5,2021-09-08_17h52.58.332,forced_choiceRT,2021.1.2,Win32,60.90875868,,,,,,,,,,,,,,,,,,,,,,
,0,j,1,1.038,10,2,42,3,1,j.PNG,j,55e49dccc70c7a000d2a57e5,2021-09-08_17h52.58.332,forced_choiceRT,2021.1.2,Win32,60.90875868,,,,,,,,,,,,,,,,,,,,,,
,0,h,1,0.9359,10,3,43,2,1,h.PNG,h,55e49dccc70c7a000d2a57e5,2021-09-08_17h52.58.332,forced_choiceRT,2021.1.2,Win32,60.90875868,,,,,,,,,,,,,,,,,,,,,,
,0,h,1,0.5547,11,0,44,2,1,h.PNG,h,55e49dccc70c7a000d2a57e5,2021-09-08_17h52.58.332,forced_choiceRT,2021.1.2,Win32,60.90875868,,,,,,,,,,,,,,,,,,,,,,
,0,f,1,0.7018,11,1,45,0,1,f.PNG,f,55e49dccc70c7a000d2a57e5,2021-09-08_17h52.58.332,forced_choiceRT,2021.1.2,Win32,60.90875868,,,,,,,,,,,,,,,,,,,,,,
,0,f,1,0.45,11,2,46,0,1,f.PNG,f,55e49dccc70c7a000d2a57e5,2021-09-08_17h52.58.332,forced_choiceRT,2021.1.2,Win32,60.90875868,,,,,,,,,,,,,,,,,,,,,,
,0,f,0,0.4059,11,3,47,1,1,g.PNG,g,55e49dccc70c7a000d2a57e5,2021-09-08_17h52.58.332,forced_choiceRT,2021.1.2,Win32,60.90875868,,,,,,,,,,,,,,,,,,,,,,
,0,j,1,0.5462,12,0,48,3,1,j.PNG,j,55e49dccc70c7a000d2a57e5,2021-09-08_17h52.58.332,forced_choiceRT,2021.1.2,Win32,60.90875868,,,,,,,,,,,,,,,,,,,,,,
,0,j,1,0.5468,12,1,49,3,1,j.PNG,j,55e49dccc70c7a000d2a57e5,2021-09-08_17h52.58.332,forced_choiceRT,2021.1.2,Win32,60.90875868,,,,,,,,,,,,,,,,,,,,,,
,0,j,1,0.4343,12,2,50,3,1,j.PNG,j,55e49dccc70c7a000d2a57e5,2021-09-08_17h52.58.332,forced_choiceRT,2021.1.2,Win32,60.90875868,,,,,,,,,,,,,,,,,,,,,,
,0,g,1,0.8977,12,3,51,1,1,g.PNG,g,55e49dccc70c7a000d2a57e5,2021-09-08_17h52.58.332,forced_choiceRT,2021.1.2,Win32,60.90875868,,,,,,,,,,,,,,,,,,,,,,
,0,g,1,0.4563,13,0,52,1,1,g.PNG,g,55e49dccc70c7a000d2a57e5,2021-09-08_17h52.58.332,forced_choiceRT,2021.1.2,Win32,60.90875868,,,,,,,,,,,,,,,,,,,,,,
,0,j,1,0.5632,13,1,53,3,1,j.PNG,j,55e49dccc70c7a000d2a57e5,2021-09-08_17h52.58.332,forced_choiceRT,2021.1.2,Win32,60.90875868,,,,,,,,,,,,,,,,,,,,,,
,0,g,1,0.6037,13,2,54,1,1,g.PNG,g,55e49dccc70c7a000d2a57e5,2021-09-08_17h52.58.332,forced_choiceRT,2021.1.2,Win32,60.90875868,,,,,,,,,,,,,,,,,,,,,,
,0,f,1,0.5966,13,3,55,0,1,f.PNG,f,55e49dccc70c7a000d2a57e5,2021-09-08_17h52.58.332,forced_choiceRT,2021.1.2,Win32,60.90875868,,,,,,,,,,,,,,,,,,,,,,
,0,h,1,1.3328,14,0,56,2,1,h.PNG,h,55e49dccc70c7a000d2a57e5,2021-09-08_17h52.58.332,forced_choiceRT,2021.1.2,Win32,60.90875868,,,,,,,,,,,,,,,,,,,,,,
,0,f,1,0.8539,14,1,57,0,1,f.PNG,f,55e49dccc70c7a000d2a57e5,2021-09-08_17h52.58.332,forced_choiceRT,2021.1.2,Win32,60.90875868,,,,,,,,,,,,,,,,,,,,,,
,0,h,1,2.1646,14,2,58,2,1,h.PNG,h,55e49dccc70c7a000d2a57e5,2021-09-08_17h52.58.332,forced_choiceRT,2021.1.2,Win32,60.90875868,,,,,,,,,,,,,,,,,,,,,,
,0,h,1,0.918,14,3,59,2,1,h.PNG,h,55e49dccc70c7a000d2a57e5,2021-09-08_17h52.58.332,forced_choiceRT,2021.1.2,Win32,60.90875868,,,,,,,,,,,,,,,,,,,,,,
,,,,,,,,,,,,55e49dccc70c7a000d2a57e5,2021-09-08_17h52.58.332,forced_choiceRT,2021.1.2,Win32,60.90875868,j,2.2619,0,0,0,0,1,,,,,,,,,,,,,,,
,,,,,,,,,,,,55e49dccc70c7a000d2a57e5,2021-09-08_17h52.58.332,forced_choiceRT,2021.1.2,Win32,60.90875868,j,1.785,1,0,1,0,1,,,,,,,,,,,,,,,
,,,,,,,,,,,,55e49dccc70c7a000d2a57e5,2021-09-08_17h52.58.332,forced_choiceRT,2021.1.2,Win32,60.90875868,f,2.0014,2,0,2,0,1,,,,,,,,,,,,,,,
,,,,,,,,,,,,55e49dccc70c7a000d2a57e5,2021-09-08_17h52.58.332,forced_choiceRT,2021.1.2,Win32,60.90875868,g,1.9689,3,0,3,0,1,,,,,,,,,,,,,,,
,,,,,,,,,,,,55e49dccc70c7a000d2a57e5,2021-09-08_17h52.58.332,forced_choiceRT,2021.1.2,Win32,60.90875868,h,2.0355,4,0,4,0,1,,,,,,,,,,,,,,,
,,,,,,,,,,,,55e49dccc70c7a000d2a57e5,2021-09-08_17h52.58.332,forced_choiceRT,2021.1.2,Win32,60.90875868,j,1.9855,5,0,5,0,1,,,,,,,,,,,,,,,
,,,,,,,,,,,,55e49dccc70c7a000d2a57e5,2021-09-08_17h52.58.332,forced_choiceRT,2021.1.2,Win32,60.90875868,f,1.9854,6,0,6,0,1,,,,,,,,,,,,,,,
,,,,,,,,,,,,55e49dccc70c7a000d2a57e5,2021-09-08_17h52.58.332,forced_choiceRT,2021.1.2,Win32,60.90875868,g,1.9524,7,0,7,0,1,,,,,,,,,,,,,,,
,,,,,,,,,,,,55e49dccc70c7a000d2a57e5,2021-09-08_17h52.58.332,forced_choiceRT,2021.1.2,Win32,60.90875868,h,1.9858,8,0,8,0,1,,,,,,,,,,,,,,,
,,,,,,,,,,,,55e49dccc70c7a000d2a57e5,2021-09-08_17h52.58.332,forced_choiceRT,2021.1.2,Win32,60.90875868,j,1.9573,9,0,9,0,1,,,,,,,,,,,,,,,
,,,,,,,,,,,,55e49dccc70c7a000d2a57e5,2021-09-08_17h52.58.332,forced_choiceRT,2021.1.2,Win32,60.90875868,f,1.9421,10,0,10,0,1,,,,,,,,,,,,,,,
,,,,,,,,,,,,55e49dccc70c7a000d2a57e5,2021-09-08_17h52.58.332,forced_choiceRT,2021.1.2,Win32,60.90875868,g,1.7184,11,0,11,0,1,,,,,,,,,,,,,,,
,,,,,,,,,,,,55e49dccc70c7a000d2a57e5,2021-09-08_17h52.58.332,forced_choiceRT,2021.1.2,Win32,60.90875868,h,1.9884,12,0,12,0,1,,,,,,,,,,,,,,,
,,,,,,,,,,,,55e49dccc70c7a000d2a57e5,2021-09-08_17h52.58.332,forced_choiceRT,2021.1.2,Win32,60.90875868,j,1.9521,13,0,13,0,1,,,,,,,,,,,,,,,
,,,,,,,,,,,,55e49dccc70c7a000d2a57e5,2021-09-08_17h52.58.332,forced_choiceRT,2021.1.2,Win32,60.90875868,f,1.9344,14,0,14,0,1,,,,,,,,,,,,,,,
,,,,,,,,,,,,55e49dccc70c7a000d2a57e5,2021-09-08_17h52.58.332,forced_choiceRT,2021.1.2,Win32,60.90875868,g,1.9883,15,0,15,0,1,,,,,,,,,,,,,,,
,,,,,,,,,,,,55e49dccc70c7a000d2a57e5,2021-09-08_17h52.58.332,forced_choiceRT,2021.1.2,Win32,60.90875868,h,1.9855,16,0,16,0,1,,,,,,,,,,,,,,,
,,,,,,,,,,,,55e49dccc70c7a000d2a57e5,2021-09-08_17h52.58.332,forced_choiceRT,2021.1.2,Win32,60.90875868,j,2.0189,17,0,17,0,1,,,,,,,,,,,,,,,
,,,,,,,,,,,,55e49dccc70c7a000d2a57e5,2021-09-08_17h52.58.332,forced_choiceRT,2021.1.2,Win32,60.90875868,g,2.0405,18,0,18,0,1,,,,,,,,,,,,,,,
,,,,,,,,,,,,55e49dccc70c7a000d2a57e5,2021-09-08_17h52.58.332,forced_choiceRT,2021.1.2,Win32,60.90875868,f,1.9724,19,0,19,0,1,,,,,,,,,,,,,,,
,1.2,,,,,,,,,h.PNG,h,55e49dccc70c7a000d2a57e5,2021-09-08_17h52.58.332,forced_choiceRT,2021.1.2,Win32,60.90875868,,,,,,,,1,Ontime,j,0,2.043,0,0,0,2,1,,,,,
,1.98,,,,,,,,,f.PNG,f,55e49dccc70c7a000d2a57e5,2021-09-08_17h52.58.332,forced_choiceRT,2021.1.2,Win32,60.90875868,,,,,,,,1,Slow,h,0,2.1134,0,1,1,0,1,,,,,
,0.1,,,,,,,,,j.PNG,j,55e49dccc70c7a000d2a57e5,2021-09-08_17h52.58.332,forced_choiceRT,2021.1.2,Win32,60.90875868,,,,,,,,1,Ontime,j,1,1.9896,0,2,2,3,1,,,,,
,1.17,,,,,,,,,f.PNG,f,55e49dccc70c7a000d2a57e5,2021-09-08_17h52.58.332,forced_choiceRT,2021.1.2,Win32,60.90875868,,,,,,,,1,Ontime,f,1,1.982,0,3,3,0,1,,,,,
,1.76,,,,,,,,,j.PNG,j,55e49dccc70c7a000d2a57e5,2021-09-08_17h52.58.332,forced_choiceRT,2021.1.2,Win32,60.90875868,,,,,,,,1,Slow,h,0,2.1554,1,0,4,3,1,,,,,
,1.34,,,,,,,,,h.PNG,h,55e49dccc70c7a000d2a57e5,2021-09-08_17h52.58.332,forced_choiceRT,2021.1.2,Win32,60.90875868,,,,,,,,1,Ontime,h,1,2.0078,1,1,5,2,1,,,,,
,0.63,,,,,,,,,j.PNG,j,55e49dccc70c7a000d2a57e5,2021-09-08_17h52.58.332,forced_choiceRT,2021.1.2,Win32,60.90875868,,,,,,,,1,Ontime,j,1,1.9651,1,2,6,3,1,,,,,
,1.54,,,,,,,,,j.PNG,j,55e49dccc70c7a000d2a57e5,2021-09-08_17h52.58.332,forced_choiceRT,2021.1.2,Win32,60.90875868,,,,,,,,1,Slow,j,1,2.2304,1,3,7,3,1,,,,,
,1.56,,,,,,,,,f.PNG,f,55e49dccc70c7a000d2a57e5,2021-09-08_17h52.58.332,forced_choiceRT,2021.1.2,Win32,60.90875868,,,,,,,,1,Ontime,f,1,2.0494,2,0,8,0,1,,,,,
,1.38,,,,,,,,,g.PNG,g,55e49dccc70c7a000d2a57e5,2021-09-08_17h52.58.332,forced_choiceRT,2021.1.2,Win32,60.90875868,,,,,,,,1,Ontime,g,1,1.9013,2,1,9,1,1,,,,,
,0.01,,,,,,,,,j.PNG,j,55e49dccc70c7a000d2a57e5,2021-09-08_17h52.58.332,forced_choiceRT,2021.1.2,Win32,60.90875868,,,,,,,,1,Ontime,j,1,2.0713,2,2,10,3,1,,,,,
,1.22,,,,,,,,,f.PNG,f,55e49dccc70c7a000d2a57e5,2021-09-08_17h52.58.332,forced_choiceRT,2021.1.2,Win32,60.90875868,,,,,,,,1,Fast,f,1,1.8626,2,3,11,0,1,,,,,
,1.73,,,,,,,,,f.PNG,f,55e49dccc70c7a000d2a57e5,2021-09-08_17h52.58.332,forced_choiceRT,2021.1.2,Win32,60.90875868,,,,,,,,1,Slow,f,1,2.212,3,0,12,0,1,,,,,
,1.81,,,,,,,,,f.PNG,f,55e49dccc70c7a000d2a57e5,2021-09-08_17h52.58.332,forced_choiceRT,2021.1.2,Win32,60.90875868,,,,,,,,1,Slow,g,0,2.3018,3,1,13,0,1,,,,,
,0,,,,,,,,,h.PNG,h,55e49dccc70c7a000d2a57e5,2021-09-08_17h52.58.332,forced_choiceRT,2021.1.2,Win32,60.90875868,,,,,,,,1,Ontime,h,1,1.9886,3,2,14,2,1,,,,,
,0.46,,,,,,,,,j.PNG,j,55e49dccc70c7a000d2a57e5,2021-09-08_17h52.58.332,forced_choiceRT,2021.1.2,Win32,60.90875868,,,,,,,,1,Ontime,j,1,2.0341,3,3,15,3,1,,,,,
,1.37,,,,,,,,,g.PNG,g,55e49dccc70c7a000d2a57e5,2021-09-08_17h52.58.332,forced_choiceRT,2021.1.2,Win32,60.90875868,,,,,,,,1,Ontime,f,0,2.0199,4,0,16,1,1,,,,,
,0.76,,,,,,,,,g.PNG,g,55e49dccc70c7a000d2a57e5,2021-09-08_17h52.58.332,forced_choiceRT,2021.1.2,Win32,60.90875868,,,,,,,,1,Fast,g,1,1.7615,4,1,17,1,1,,,,,
,0.21,,,,,,,,,f.PNG,f,55e49dccc70c7a000d2a57e5,2021-09-08_17h52.58.332,forced_choiceRT,2021.1.2,Win32,60.90875868,,,,,,,,1,Ontime,f,1,1.9886,4,2,18,0,1,,,,,
,0.08,,,,,,,,,g.PNG,g,55e49dccc70c7a000d2a57e5,2021-09-08_17h52.58.332,forced_choiceRT,2021.1.2,Win32,60.90875868,,,,,,,,1,Fast,g,1,1.5644,4,3,19,1,1,,,,,
,1.56,,,,,,,,,f.PNG,f,55e49dccc70c7a000d2a57e5,2021-09-08_17h52.58.332,forced_choiceRT,2021.1.2,Win32,60.90875868,,,,,,,,1,Slow,f,1,2.22,5,0,20,0,1,,,,,
,0.5,,,,,,,,,j.PNG,j,55e49dccc70c7a000d2a57e5,2021-09-08_17h52.58.332,forced_choiceRT,2021.1.2,Win32,60.90875868,,,,,,,,1,Fast,j,1,1.7644,5,1,21,3,1,,,,,
,0.06,,,,,,,,,h.PNG,h,55e49dccc70c7a000d2a57e5,2021-09-08_17h52.58.332,forced_choiceRT,2021.1.2,Win32,60.90875868,,,,,,,,1,Ontime,h,1,1.9837,5,2,22,2,1,,,,,
,1.15,,,,,,,,,h.PNG,h,55e49dccc70c7a000d2a57e5,2021-09-08_17h52.58.332,forced_choiceRT,2021.1.2,Win32,60.90875868,,,,,,,,1,Ontime,h,1,1.9677,5,3,23,2,1,,,,,
,1.27,,,,,,,,,h.PNG,h,55e49dccc70c7a000d2a57e5,2021-09-08_17h52.58.332,forced_choiceRT,2021.1.2,Win32,60.90875868,,,,,,,,1,Fast,h,1,1.8904,6,0,24,2,1,,,,,
,0.05,,,,,,,,,j.PNG,j,55e49dccc70c7a000d2a57e5,2021-09-08_17h52.58.332,forced_choiceRT,2021.1.2,Win32,60.90875868,,,,,,,,1,Ontime,j,1,2.0841,6,1,25,3,1,,,,,
,0.9,,,,,,,,,f.PNG,f,55e49dccc70c7a000d2a57e5,2021-09-08_17h52.58.332,forced_choiceRT,2021.1.2,Win32,60.90875868,,,,,,,,1,Ontime,f,1,2.0649,6,2,26,0,1,,,,,
,1.86,,,,,,,,,g.PNG,g,55e49dccc70c7a000d2a57e5,2021-09-08_17h52.58.332,forced_choiceRT,2021.1.2,Win32,60.90875868,,,,,,,,1,Slow,f,0,2.1828,6,3,27,1,1,,,,,
,0.69,,,,,,,,,j.PNG,j,55e49dccc70c7a000d2a57e5,2021-09-08_17h52.58.332,forced_choiceRT,2021.1.2,Win32,60.90875868,,,,,,,,1,Fast,j,1,1.882,7,0,28,3,1,,,,,
,0.08,,,,,,,,,j.PNG,j,55e49dccc70c7a000d2a57e5,2021-09-08_17h52.58.332,forced_choiceRT,2021.1.2,Win32,60.90875868,,,,,,,,1,Ontime,j,1,1.9807,7,1,29,3,1,,,,,
,1.53,,,,,,,,,g.PNG,g,55e49dccc70c7a000d2a57e5,2021-09-08_17h52.58.332,forced_choiceRT,2021.1.2,Win32,60.90875868,,,,,,,,1,Slow,f,0,2.197,7,2,30,1,1,,,,,
,0.92,,,,,,,,,g.PNG,g,55e49dccc70c7a000d2a57e5,2021-09-08_17h52.58.332,forced_choiceRT,2021.1.2,Win32,60.90875868,,,,,,,,1,Fast,g,1,1.8479,7,3,31,1,1,,,,,
,0.69,,,,,,,,,h.PNG,h,55e49dccc70c7a000d2a57e5,2021-09-08_17h52.58.332,forced_choiceRT,2021.1.2,Win32,60.90875868,,,,,,,,1,Ontime,h,1,1.9646,8,0,32,2,1,,,,,
,0.71,,,,,,,,,g.PNG,g,55e49dccc70c7a000d2a57e5,2021-09-08_17h52.58.332,forced_choiceRT,2021.1.2,Win32,60.90875868,,,,,,,,1,Fast,g,1,1.866,8,1,33,1,1,,,,,
,1.7,,,,,,,,,h.PNG,h,55e49dccc70c7a000d2a57e5,2021-09-08_17h52.58.332,forced_choiceRT,2021.1.2,Win32,60.90875868,,,,,,,,1,Slow,j,0,2.1661,8,2,34,2,1,,,,,
,1.59,,,,,,,,,h.PNG,h,55e49dccc70c7a000d2a57e5,2021-09-08_17h52.58.332,forced_choiceRT,2021.1.2,Win32,60.90875868,,,,,,,,1,Slow,h,1,2.1968,8,3,35,2,1,,,,,
,1.77,,,,,,,,,g.PNG,g,55e49dccc70c7a000d2a57e5,2021-09-08_17h52.58.332,forced_choiceRT,2021.1.2,Win32,60.90875868,,,,,,,,1,Ontime,g,1,2.071,9,0,36,1,1,,,,,
,0.8,,,,,,,,,g.PNG,g,55e49dccc70c7a000d2a57e5,2021-09-08_17h52.58.332,forced_choiceRT,2021.1.2,Win32,60.90875868,,,,,,,,1,Ontime,g,1,1.9148,9,1,37,1,1,,,,,
,1.94,,,,,,,,,h.PNG,h,55e49dccc70c7a000d2a57e5,2021-09-08_17h52.58.332,forced_choiceRT,2021.1.2,Win32,60.90875868,,,,,,,,1,Slow,h,1,2.3988,9,2,38,2,1,,,,,
,1.27,,,,,,,,,f.PNG,f,55e49dccc70c7a000d2a57e5,2021-09-08_17h52.58.332,forced_choiceRT,2021.1.2,Win32,60.90875868,,,,,,,,1,Fast,f,1,1.7857,9,3,39,0,1,,,,,
,,,,,,,,,,,,55e49dccc70c7a000d2a57e5,2021-09-08_17h52.58.332,forced_choiceRT,2021.1.2,Win32,60.90875868,,,,,,,,,,,,,,,,,,0,0,0,0,1
,1.23,,,,,,,,,f.PNG,f,55e49dccc70c7a000d2a57e5,2021-09-08_17h52.58.332,forced_choiceRT,2021.1.2,Win32,60.90875868,,,,,,,,2,Fast,f,1,1.7262,0,0,0,0,1,,,,,
,0.11,,,,,,,,,f.PNG,f,55e49dccc70c7a000d2a57e5,2021-09-08_17h52.58.332,forced_choiceRT,2021.1.2,Win32,60.90875868,,,,,,,,2,Ontime,f,1,2.0049,0,1,1,0,1,,,,,
,0.11,,,,,,,,,f.PNG,f,55e49dccc70c7a000d2a57e5,2021-09-08_17h52.58.332,forced_choiceRT,2021.1.2,Win32,60.90875868,,,,,,,,2,Ontime,f,1,1.987,0,2,2,0,1,,,,,
,0.47,,,,,,,,,g.PNG,g,55e49dccc70c7a000d2a57e5,2021-09-08_17h52.58.332,forced_choiceRT,2021.1.2,Win32,60.90875868,,,,,,,,2,Ontime,g,1,1.9854,0,3,3,1,1,,,,,
,0.77,,,,,,,,,f.PNG,f,55e49dccc70c7a000d2a57e5,2021-09-08_17h52.58.332,forced_choiceRT,2021.1.2,Win32,60.90875868,,,,,,,,2,Ontime,f,1,2.0542,1,0,4,0,1,,,,,
,0.56,,,,,,,,,f.PNG,f,55e49dccc70c7a000d2a57e5,2021-09-08_17h52.58.332,forced_choiceRT,2021.1.2,Win32,60.90875868,,,,,,,,2,Slow,f,1,2.2072,1,1,5,0,1,,,,,
,1.91,,,,,,,,,f.PNG,f,55e49dccc70c7a000d2a57e5,2021-09-08_17h52.58.332,forced_choiceRT,2021.1.2,Win32,60.90875868,,,,,,,,2,Slow,f,1,2.1218,1,2,6,0,1,,,,,
,0.08,,,,,,,,,g.PNG,g,55e49dccc70c7a000d2a57e5,2021-09-08_17h52.58.332,forced_choiceRT,2021.1.2,Win32,60.90875868,,,,,,,,2,Fast,g,1,1.7752,1,3,7,1,1,,,,,
,0.38,,,,,,,,,j.PNG,j,55e49dccc70c7a000d2a57e5,2021-09-08_17h52.58.332,forced_choiceRT,2021.1.2,Win32,60.90875868,,,,,,,,2,Ontime,j,1,1.9688,2,0,8,3,1,,,,,
,1.64,,,,,,,,,f.PNG,f,55e49dccc70c7a000d2a57e5,2021-09-08_17h52.58.332,forced_choiceRT,2021.1.2,Win32,60.90875868,,,,,,,,2,Slow,f,1,2.1512,2,1,9,0,1,,,,,
,0.49,,,,,,,,,h.PNG,h,55e49dccc70c7a000d2a57e5,2021-09-08_17h52.58.332,forced_choiceRT,2021.1.2,Win32,60.90875868,,,,,,,,2,Ontime,h,1,1.9512,2,2,10,2,1,,,,,
,1.81,,,,,,,,,f.PNG,f,55e49dccc70c7a000d2a57e5,2021-09-08_17h52.58.332,forced_choiceRT,2021.1.2,Win32,60.90875868,,,,,,,,2,Slow,h,0,2.101,2,3,11,0,1,,,,,
,0.88,,,,,,,,,f.PNG,f,55e49dccc70c7a000d2a57e5,2021-09-08_17h52.58.332,forced_choiceRT,2021.1.2,Win32,60.90875868,,,,,,,,2,Ontime,f,1,1.9862,3,0,12,0,1,,,,,
,0.6,,,,,,,,,g.PNG,g,55e49dccc70c7a000d2a57e5,2021-09-08_17h52.58.332,forced_choiceRT,2021.1.2,Win32,60.90875868,,,,,,,,2,Ontime,g,1,1.9192,3,1,13,1,1,,,,,
,1.73,,,,,,,,,j.PNG,j,55e49dccc70c7a000d2a57e5,2021-09-08_17h52.58.332,forced_choiceRT,2021.1.2,Win32,60.90875868,,,,,,,,2,Ontime,g,0,1.9523,3,2,14,3,1,,,,,
,0.61,,,,,,,,,g.PNG,g,55e49dccc70c7a000d2a57e5,2021-09-08_17h52.58.332,forced_choiceRT,2021.1.2,Win32,60.90875868,,,,,,,,2,Ontime,g,1,1.9188,3,3,15,1,1,,,,,
,1.99,,,,,,,,,g.PNG,g,55e49dccc70c7a000d2a57e5,2021-09-08_17h52.58.332,forced_choiceRT,2021.1.2,Win32,60.90875868,,,,,,,,2,Ontime,h,0,2.0179,4,0,16,1,1,,,,,
,1.89,,,,,,,,,h.PNG,h,55e49dccc70c7a000d2a57e5,2021-09-08_17h52.58.332,forced_choiceRT,2021.1.2,Win32,60.90875868,,,,,,,,2,Slow,j,0,2.1061,4,1,17,2,1,,,,,
,1.18,,,,,,,,,j.PNG,j,55e49dccc70c7a000d2a57e5,2021-09-08_17h52.58.332,forced_choiceRT,2021.1.2,Win32,60.90875868,,,,,,,,2,Ontime,j,1,1.9242,4,2,18,3,1,,,,,
,1.01,,,,,,,,,h.PNG,h,55e49dccc70c7a000d2a57e5,2021-09-08_17h52.58.332,forced_choiceRT,2021.1.2,Win32,60.90875868,,,,,,,,2,Ontime,h,1,2.0215,4,3,19,2,1,,,,,
,1.85,,,,,,,,,h.PNG,h,55e49dccc70c7a000d2a57e5,2021-09-08_17h52.58.332,forced_choiceRT,2021.1.2,Win32,60.90875868,,,,,,,,2,Ontime,j,0,2.0695,5,0,20,2,1,,,,,
,0.09,,,,,,,,,j.PNG,j,55e49dccc70c7a000d2a57e5,2021-09-08_17h52.58.332,forced_choiceRT,2021.1.2,Win32,60.90875868,,,,,,,,2,Ontime,j,1,1.9915,5,1,21,3,1,,,,,
,1.13,,,,,,,,,j.PNG,j,55e49dccc70c7a000d2a57e5,2021-09-08_17h52.58.332,forced_choiceRT,2021.1.2,Win32,60.90875868,,,,,,,,2,Ontime,j,1,2.0836,5,2,22,3,1,,,,,
,0.48,,,,,,,,,h.PNG,h,55e49dccc70c7a000d2a57e5,2021-09-08_17h52.58.332,forced_choiceRT,2021.1.2,Win32,60.90875868,,,,,,,,2,Ontime,h,1,1.917,5,3,23,2,1,,,,,
,0.91,,,,,,,,,h.PNG,h,55e49dccc70c7a000d2a57e5,2021-09-08_17h52.58.332,forced_choiceRT,2021.1.2,Win32,60.90875868,,,,,,,,2,Ontime,h,1,1.9573,6,0,24,2,1,,,,,
,1.16,,,,,,,,,g.PNG,g,55e49dccc70c7a000d2a57e5,2021-09-08_17h52.58.332,forced_choiceRT,2021.1.2,Win32,60.90875868,,,,,,,,2,Fast,g,1,1.8517,6,1,25,1,1,,,,,
,0.38,,,,,,,,,h.PNG,h,55e49dccc70c7a000d2a57e5,2021-09-08_17h52.58.332,forced_choiceRT,2021.1.2,Win32,60.90875868,,,,,,,,2,Fast,h,1,1.7351,6,2,26,2,1,,,,,
,0.76,,,,,,,,,h.PNG,h,55e49dccc70c7a000d2a57e5,2021-09-08_17h52.58.332,forced_choiceRT,2021.1.2,Win32,60.90875868,,,,,,,,2,Fast,h,1,1.7196,6,3,27,2,1,,,,,
,0.44,,,,,,,,,g.PNG,g,55e49dccc70c7a000d2a57e5,2021-09-08_17h52.58.332,forced_choiceRT,2021.1.2,Win32,60.90875868,,,,,,,,2,Fast,g,1,1.8182,7,0,28,1,1,,,,,
,0.27,,,,,,,,,g.PNG,g,55e49dccc70c7a000d2a57e5,2021-09-08_17h52.58.332,forced_choiceRT,2021.1.2,Win32,60.90875868,,,,,,,,2,Fast,g,1,1.8707,7,1,29,1,1,,,,,
,1.42,,,,,,,,,j.PNG,j,55e49dccc70c7a000d2a57e5,2021-09-08_17h52.58.332,forced_choiceRT,2021.1.2,Win32,60.90875868,,,,,,,,2,Ontime,j,1,1.9841,7,2,30,3,1,,,,,
,0.28,,,,,,,,,f.PNG,f,55e49dccc70c7a000d2a57e5,2021-09-08_17h52.58.332,forced_choiceRT,2021.1.2,Win32,60.90875868,,,,,,,,2,Ontime,f,1,2.0187,7,3,31,0,1,,,,,
,0.71,,,,,,,,,j.PNG,j,55e49dccc70c7a000d2a57e5,2021-09-08_17h52.58.332,forced_choiceRT,2021.1.2,Win32,60.90875868,,,,,,,,2,Ontime,j,1,1.9188,8,0,32,3,1,,,,,
,0.06,,,,,,,,,g.PNG,g,55e49dccc70c7a000d2a57e5,2021-09-08_17h52.58.332,forced_choiceRT,2021.1.2,Win32,60.90875868,,,,,,,,2,Ontime,g,1,2.0354,8,1,33,1,1,,,,,
,1.62,,,,,,,,,j.PNG,j,55e49dccc70c7a000d2a57e5,2021-09-08_17h52.58.332,forced_choiceRT,2021.1.2,Win32,60.90875868,,,,,,,,2,Ontime,h,0,1.9857,8,2,34,3,1,,,,,
,1.85,,,,,,,,,h.PNG,h,55e49dccc70c7a000d2a57e5,2021-09-08_17h52.58.332,forced_choiceRT,2021.1.2,Win32,60.90875868,,,,,,,,2,Slow,j,0,2.1392,8,3,35,2,1,,,,,
,0.82,,,,,,,,,g.PNG,g,55e49dccc70c7a000d2a57e5,2021-09-08_17h52.58.332,forced_choiceRT,2021.1.2,Win32,60.90875868,,,,,,,,2,Fast,g,1,1.6425,9,0,36,1,1,,,,,
,1.39,,,,,,,,,j.PNG,j,55e49dccc70c7a000d2a57e5,2021-09-08_17h52.58.332,forced_choiceRT,2021.1.2,Win32,60.90875868,,,,,,,,2,Ontime,j,1,1.9026,9,1,37,3,1,,,,,
,1.88,,,,,,,,,h.PNG,h,55e49dccc70c7a000d2a57e5,2021-09-08_17h52.58.332,forced_choiceRT,2021.1.2,Win32,60.90875868,,,,,,,,2,Slow,h,1,2.1014,9,2,38,2,1,,,,,
,0.5,,,,,,,,,j.PNG,j,55e49dccc70c7a000d2a57e5,2021-09-08_17h52.58.332,forced_choiceRT,2021.1.2,Win32,60.90875868,,,,,,,,2,Ontime,j,1,1.9027,9,3,39,3,1,,,,,
,,,,,,,,,,,,55e49dccc70c7a000d2a57e5,2021-09-08_17h52.58.332,forced_choiceRT,2021.1.2,Win32,60.90875868,,,,,,,,,,,,,,,,,,1,0,1,0,1
,0.23,,,,,,,,,h.PNG,h,55e49dccc70c7a000d2a57e5,2021-09-08_17h52.58.332,forced_choiceRT,2021.1.2,Win32,60.90875868,,,,,,,,3,Fast,h,1,0.8718,0,0,0,2,1,,,,,
,0.32,,,,,,,,,j.PNG,j,55e49dccc70c7a000d2a57e5,2021-09-08_17h52.58.332,forced_choiceRT,2021.1.2,Win32,60.90875868,,,,,,,,3,Ontime,j,1,1.9683,0,1,1,3,1,,,,,
,0.11,,,,,,,,,f.PNG,f,55e49dccc70c7a000d2a57e5,2021-09-08_17h52.58.332,forced_choiceRT,2021.1.2,Win32,60.90875868,,,,,,,,3,Ontime,f,1,2.0053,0,2,2,0,1,,,,,
,0.47,,,,,,,,,f.PNG,f,55e49dccc70c7a000d2a57e5,2021-09-08_17h52.58.332,forced_choiceRT,2021.1.2,Win32,60.90875868,,,,,,,,3,Ontime,f,1,2.0877,0,3,3,0,1,,,,,
,0.72,,,,,,,,,h.PNG,h,55e49dccc70c7a000d2a57e5,2021-09-08_17h52.58.332,forced_choiceRT,2021.1.2,Win32,60.90875868,,,,,,,,3,Ontime,h,1,1.9685,1,0,4,2,1,,,,,
,1.85,,,,,,,,,h.PNG,h,55e49dccc70c7a000d2a57e5,2021-09-08_17h52.58.332,forced_choiceRT,2021.1.2,Win32,60.90875868,,,,,,,,3,Slow,j,0,2.1805,1,1,5,2,1,,,,,
,1.68,,,,,,,,,h.PNG,h,55e49dccc70c7a000d2a57e5,2021-09-08_17h52.58.332,forced_choiceRT,2021.1.2,Win32,60.90875868,,,,,,,,3,Ontime,h,1,2.0319,1,2,6,2,1,,,,,
,0.15,,,,,,,,,f.PNG,f,55e49dccc70c7a000d2a57e5,2021-09-08_17h52.58.332,forced_choiceRT,2021.1.2,Win32,60.90875868,,,,,,,,3,Ontime,f,1,1.9317,1,3,7,0,1,,,,,
,1.13,,,,,,,,,h.PNG,h,55e49dccc70c7a000d2a57e5,2021-09-08_17h52.58.332,forced_choiceRT,2021.1.2,Win32,60.90875868,,,,,,,,3,Ontime,h,1,1.9179,2,0,8,2,1,,,,,
,0.18,,,,,,,,,g.PNG,g,55e49dccc70c7a000d2a57e5,2021-09-08_17h52.58.332,forced_choiceRT,2021.1.2,Win32,60.90875868,,,,,,,,3,Ontime,g,1,1.9002,2,1,9,1,1,,,,,
,0.38,,,,,,,,,h.PNG,h,55e49dccc70c7a000d2a57e5,2021-09-08_17h52.58.332,forced_choiceRT,2021.1.2,Win32,60.90875868,,,,,,,,3,Ontime,h,1,1.9338,2,2,10,2,1,,,,,
,1.16,,,,,,,,,g.PNG,g,55e49dccc70c7a000d2a57e5,2021-09-08_17h52.58.332,forced_choiceRT,2021.1.2,Win32,60.90875868,,,,,,,,3,Ontime,g,1,1.9478,2,3,11,1,1,,,,,
,0.87,,,,,,,,,f.PNG,f,55e49dccc70c7a000d2a57e5,2021-09-08_17h52.58.332,forced_choiceRT,2021.1.2,Win32,60.90875868,,,,,,,,3,Fast,f,1,1.8515,3,0,12,0,1,,,,,
,0.72,,,,,,,,,g.PNG,g,55e49dccc70c7a000d2a57e5,2021-09-08_17h52.58.332,forced_choiceRT,2021.1.2,Win32,60.90875868,,,,,,,,3,Ontime,g,1,1.9375,3,1,13,1,1,,,,,
,1.97,,,,,,,,,j.PNG,j,55e49dccc70c7a000d2a57e5,2021-09-08_17h52.58.332,forced_choiceRT,2021.1.2,Win32,60.90875868,,,,,,,,3,Ontime,h,0,2.0069,3,2,14,3,1,,,,,
,0.65,,,,,,,,,h.PNG,h,55e49dccc70c7a000d2a57e5,2021-09-08_17h52.58.332,forced_choiceRT,2021.1.2,Win32,60.90875868,,,,,,,,3,Fast,h,1,0.5018,3,3,15,2,1,,,,,
,1.18,,,,,,,,,j.PNG,j,55e49dccc70c7a000d2a57e5,2021-09-08_17h52.58.332,forced_choiceRT,2021.1.2,Win32,60.90875868,,,,,,,,3,Ontime,j,1,1.9483,4,0,16,3,1,,,,,
,0.75,,,,,,,,,g.PNG,g,55e49dccc70c7a000d2a57e5,2021-09-08_17h52.58.332,forced_choiceRT,2021.1.2,Win32,60.90875868,,,,,,,,3,Ontime,g,1,1.9738,4,1,17,1,1,,,,,
,0.66,,,,,,,,,g.PNG,g,55e49dccc70c7a000d2a57e5,2021-09-08_17h52.58.332,forced_choiceRT,2021.1.2,Win32,60.90875868,,,,,,,,3,Fast,g,1,1.7636,4,2,18,1,1,,,,,
,1.72,,,,,,,,,g.PNG,g,55e49dccc70c7a000d2a57e5,2021-09-08_17h52.58.332,forced_choiceRT,2021.1.2,Win32,60.90875868,,,,,,,,3,Ontime,j,0,1.9404,4,3,19,1,1,,,,,
,1.22,,,,,,,,,g.PNG,g,55e49dccc70c7a000d2a57e5,2021-09-08_17h52.58.332,forced_choiceRT,2021.1.2,Win32,60.90875868,,,,,,,,3,Ontime,g,1,1.9477,5,0,20,1,1,,,,,
,1.48,,,,,,,,,f.PNG,f,55e49dccc70c7a000d2a57e5,2021-09-08_17h52.58.332,forced_choiceRT,2021.1.2,Win32,60.90875868,,,,,,,,3,Ontime,h,0,1.9517,5,1,21,0,1,,,,,
,1.34,,,,,,,,,f.PNG,f,55e49dccc70c7a000d2a57e5,2021-09-08_17h52.58.332,forced_choiceRT,2021.1.2,Win32,60.90875868,,,,,,,,3,Ontime,f,1,1.9145,5,2,22,0,1,,,,,
,1.37,,,,,,,,,f.PNG,f,55e49dccc70c7a000d2a57e5,2021-09-08_17h52.58.332,forced_choiceRT,2021.1.2,Win32,60.90875868,,,,,,,,3,Ontime,f,1,1.9713,5,3,23,0,1,,,,,
,1.3,,,,,,,,,h.PNG,h,55e49dccc70c7a000d2a57e5,2021-09-08_17h52.58.332,forced_choiceRT,2021.1.2,Win32,60.90875868,,,,,,,,3,Fast,h,1,1.8659,6,0,24,2,1,,,,,
,0.02,,,,,,,,,g.PNG,g,55e49dccc70c7a000d2a57e5,2021-09-08_17h52.58.332,forced_choiceRT,2021.1.2,Win32,60.90875868,,,,,,,,3,Fast,g,1,1.8523,6,1,25,1,1,,,,,
,1.29,,,,,,,,,j.PNG,j,55e49dccc70c7a000d2a57e5,2021-09-08_17h52.58.332,forced_choiceRT,2021.1.2,Win32,60.90875868,,,,,,,,3,Ontime,j,1,1.9145,6,2,26,3,1,,,,,
,1.25,,,,,,,,,h.PNG,h,55e49dccc70c7a000d2a57e5,2021-09-08_17h52.58.332,forced_choiceRT,2021.1.2,Win32,60.90875868,,,,,,,,3,Fast,h,1,1.8307,6,3,27,2,1,,,,,
,1.3,,,,,,,,,h.PNG,h,55e49dccc70c7a000d2a57e5,2021-09-08_17h52.58.332,forced_choiceRT,2021.1.2,Win32,60.90875868,,,,,,,,3,Fast,h,1,1.8416,7,0,28,2,1,,,,,
,0.69,,,,,,,,,f.PNG,f,55e49dccc70c7a000d2a57e5,2021-09-08_17h52.58.332,forced_choiceRT,2021.1.2,Win32,60.90875868,,,,,,,,3,Ontime,f,1,1.9648,7,1,29,0,1,,,,,
,0.56,,,,,,,,,j.PNG,j,55e49dccc70c7a000d2a57e5,2021-09-08_17h52.58.332,forced_choiceRT,2021.1.2,Win32,60.90875868,,,,,,,,3,Ontime,j,1,1.9549,7,2,30,3,1,,,,,
,1.46,,,,,,,,,f.PNG,f,55e49dccc70c7a000d2a57e5,2021-09-08_17h52.58.332,forced_choiceRT,2021.1.2,Win32,60.90875868,,,,,,,,3,Ontime,f,1,1.9183,7,3,31,0,1,,,,,
,0.14,,,,,,,,,g.PNG,g,55e49dccc70c7a000d2a57e5,2021-09-08_17h52.58.332,forced_choiceRT,2021.1.2,Win32,60.90875868,,,,,,,,3,Fast,g,1,1.7395,8,0,32,1,1,,,,,
,0.74,,,,,,,,,j.PNG,j,55e49dccc70c7a000d2a57e5,2021-09-08_17h52.58.332,forced_choiceRT,2021.1.2,Win32,60.90875868,,,,,,,,3,Ontime,j,1,1.9372,8,1,33,3,1,,,,,
,1.29,,,,,,,,,g.PNG,g,55e49dccc70c7a000d2a57e5,2021-09-08_17h52.58.332,forced_choiceRT,2021.1.2,Win32,60.90875868,,,,,,,,3,Ontime,g,1,1.9008,8,2,34,1,1,,,,,
,1.06,,,,,,,,,f.PNG,f,55e49dccc70c7a000d2a57e5,2021-09-08_17h52.58.332,forced_choiceRT,2021.1.2,Win32,60.90875868,,,,,,,,3,Fast,f,1,1.8703,8,3,35,0,1,,,,,
,0.98,,,,,,,,,j.PNG,j,55e49dccc70c7a000d2a57e5,2021-09-08_17h52.58.332,forced_choiceRT,2021.1.2,Win32,60.90875868,,,,,,,,3,Slow,j,1,7.1542,9,0,36,3,1,,,,,
,0.32,,,,,,,,,j.PNG,j,55e49dccc70c7a000d2a57e5,2021-09-08_17h52.58.332,forced_choiceRT,2021.1.2,Win32,60.90875868,,,,,,,,3,Ontime,j,1,1.975,9,1,37,3,1,,,,,
,1.73,,,,,,,,,j.PNG,j,55e49dccc70c7a000d2a57e5,2021-09-08_17h52.58.332,forced_choiceRT,2021.1.2,Win32,60.90875868,,,,,,,,3,Ontime,h,0,1.9349,9,2,38,3,1,,,,,
,0.72,,,,,,,,,j.PNG,j,55e49dccc70c7a000d2a57e5,2021-09-08_17h52.58.332,forced_choiceRT,2021.1.2,Win32,60.90875868,,,,,,,,3,Ontime,j,1,1.9359,9,3,39,3,1,,,,,
,,,,,,,,,,,,55e49dccc70c7a000d2a57e5,2021-09-08_17h52.58.332,forced_choiceRT,2021.1.2,Win32,60.90875868,,,,,,,,,,,,,,,,,,2,0,2,0,1
,0.36,,,,,,,,,h.PNG,h,55e49dccc70c7a000d2a57e5,2021-09-08_17h52.58.332,forced_choiceRT,2021.1.2,Win32,60.90875868,,,,,,,,4,Fast,h,1,1.6955,0,0,0,2,1,,,,,
,0.51,,,,,,,,,h.PNG,h,55e49dccc70c7a000d2a57e5,2021-09-08_17h52.58.332,forced_choiceRT,2021.1.2,Win32,60.90875868,,,,,,,,4,Ontime,h,1,2.0954,0,1,1,2,1,,,,,
,1.7,,,,,,,,,f.PNG,f,55e49dccc70c7a000d2a57e5,2021-09-08_17h52.58.332,forced_choiceRT,2021.1.2,Win32,60.90875868,,,,,,,,4,Ontime,h,0,2.0345,0,2,2,0,1,,,,,
,0.02,,,,,,,,,h.PNG,h,55e49dccc70c7a000d2a57e5,2021-09-08_17h52.58.332,forced_choiceRT,2021.1.2,Win32,60.90875868,,,,,,,,4,Ontime,h,1,2.0541,0,3,3,2,1,,,,,
,1.12,,,,,,,,,g.PNG,g,55e49dccc70c7a000d2a57e5,2021-09-08_17h52.58.332,forced_choiceRT,2021.1.2,Win32,60.90875868,,,,,,,,4,Fast,g,1,1.8862,1,0,4,1,1,,,,,
,1.97,,,,,,,,,j.PNG,j,55e49dccc70c7a000d2a57e5,2021-09-08_17h52.58.332,forced_choiceRT,2021.1.2,Win32,60.90875868,,,,,,,,4,Ontime,f,0,1.9843,1,1,5,3,1,,,,,
,0.18,,,,,,,,,h.PNG,h,55e49dccc70c7a000d2a57e5,2021-09-08_17h52.58.332,forced_choiceRT,2021.1.2,Win32,60.90875868,,,,,,,,4,Ontime,h,1,2.0018,1,2,6,2,1,,,,,
,1.21,,,,,,,,,j.PNG,j,55e49dccc70c7a000d2a57e5,2021-09-08_17h52.58.332,forced_choiceRT,2021.1.2,Win32,60.90875868,,,,,,,,4,Fast,j,1,1.7413,1,3,7,3,1,,,,,
,1.15,,,,,,,,,j.PNG,j,55e49dccc70c7a000d2a57e5,2021-09-08_17h52.58.332,forced_choiceRT,2021.1.2,Win32,60.90875868,,,,,,,,4,Ontime,j,1,1.9751,2,0,8,3,1,,,,,
,1.31,,,,,,,,,j.PNG,j,55e49dccc70c7a000d2a57e5,2021-09-08_17h52.58.332,forced_choiceRT,2021.1.2,Win32,60.90875868,,,,,,,,4,Fast,j,1,1.7518,2,1,9,3,1,,,,,
,1.59,,,,,,,,,h.PNG,h,55e49dccc70c7a000d2a57e5,2021-09-08_17h52.58.332,forced_choiceRT,2021.1.2,Win32,60.90875868,,,,,,,,4,Slow,h,1,2.1177,2,2,10,2,1,,,,,
,0.58,,,,,,,,,g.PNG,g,55e49dccc70c7a000d2a57e5,2021-09-08_17h52.58.332,forced_choiceRT,2021.1.2,Win32,60.90875868,,,,,,,,4,Ontime,g,1,1.9691,2,3,11,1,1,,,,,
,1.96,,,,,,,,,g.PNG,g,55e49dccc70c7a000d2a57e5,2021-09-08_17h52.58.332,forced_choiceRT,2021.1.2,Win32,60.90875868,,,,,,,,4,Ontime,g,1,1.9189,3,0,12,1,1,,,,,
,0.5,,,,,,,,,f.PNG,f,55e49dccc70c7a000d2a57e5,2021-09-08_17h52.58.332,forced_choiceRT,2021.1.2,Win32,60.90875868,,,,,,,,4,Ontime,f,1,1.9598,3,1,13,0,1,,,,,
,1.95,,,,,,,,,h.PNG,h,55e49dccc70c7a000d2a57e5,2021-09-08_17h52.58.332,forced_choiceRT,2021.1.2,Win32,60.90875868,,,,,,,,4,Slow,g,0,2.1219,3,2,14,2,1,,,,,
,0.35,,,,,,,,,g.PNG,g,55e49dccc70c7a000d2a57e5,2021-09-08_17h52.58.332,forced_choiceRT,2021.1.2,Win32,60.90875868,,,,,,,,4,Ontime,g,1,1.9712,3,3,15,1,1,,,,,
,0.34,,,,,,,,,j.PNG,j,55e49dccc70c7a000d2a57e5,2021-09-08_17h52.58.332,forced_choiceRT,2021.1.2,Win32,60.90875868,,,,,,,,4,Ontime,j,1,1.9883,4,0,16,3,1,,,,,
,1.08,,,,,,,,,f.PNG,f,55e49dccc70c7a000d2a57e5,2021-09-08_17h52.58.332,forced_choiceRT,2021.1.2,Win32,60.90875868,,,,,,,,4,Ontime,f,1,1.9037,4,1,17,0,1,,,,,
,1.92,,,,,,,,,j.PNG,j,55e49dccc70c7a000d2a57e5,2021-09-08_17h52.58.332,forced_choiceRT,2021.1.2,Win32,60.90875868,,,,,,,,4,Ontime,f,0,1.9753,4,2,18,3,1,,,,,
,0.54,,,,,,,,,g.PNG,g,55e49dccc70c7a000d2a57e5,2021-09-08_17h52.58.332,forced_choiceRT,2021.1.2,Win32,60.90875868,,,,,,,,4,Ontime,g,1,1.9522,4,3,19,1,1,,,,,
,0.25,,,,,,,,,h.PNG,h,55e49dccc70c7a000d2a57e5,2021-09-08_17h52.58.332,forced_choiceRT,2021.1.2,Win32,60.90875868,,,,,,,,4,Ontime,h,1,1.9567,5,0,20,2,1,,,,,
,0.93,,,,,,,,,j.PNG,j,55e49dccc70c7a000d2a57e5,2021-09-08_17h52.58.332,forced_choiceRT,2021.1.2,Win32,60.90875868,,,,,,,,4,Fast,j,1,1.8847,5,1,21,3,1,,,,,
,1.63,,,,,,,,,f.PNG,f,55e49dccc70c7a000d2a57e5,2021-09-08_17h52.58.332,forced_choiceRT,2021.1.2,Win32,60.90875868,,,,,,,,4,Ontime,j,0,1.9029,5,2,22,0,1,,,,,
,1.68,,,,,,,,,f.PNG,f,55e49dccc70c7a000d2a57e5,2021-09-08_17h52.58.332,forced_choiceRT,2021.1.2,Win32,60.90875868,,,,,,,,4,Ontime,f,1,1.969,5,3,23,0,1,,,,,
,1.29,,,,,,,,,f.PNG,f,55e49dccc70c7a000d2a57e5,2021-09-08_17h52.58.332,forced_choiceRT,2021.1.2,Win32,60.90875868,,,,,,,,4,Ontime,f,1,1.9688,6,0,24,0,1,,,,,
,1.7,,,,,,,,,g.PNG,g,55e49dccc70c7a000d2a57e5,2021-09-08_17h52.58.332,forced_choiceRT,2021.1.2,Win32,60.90875868,,,,,,,,4,Ontime,f,0,2.0932,6,1,25,1,1,,,,,
,0.65,,,,,,,,,h.PNG,h,55e49dccc70c7a000d2a57e5,2021-09-08_17h52.58.332,forced_choiceRT,2021.1.2,Win32,60.90875868,,,,,,,,4,Ontime,h,1,1.9538,6,2,26,2,1,,,,,
,1.33,,,,,,,,,h.PNG,h,55e49dccc70c7a000d2a57e5,2021-09-08_17h52.58.332,forced_choiceRT,2021.1.2,Win32,60.90875868,,,,,,,,4,Fast,h,1,1.8366,6,3,27,2,1,,,,,
,1.39,,,,,,,,,j.PNG,j,55e49dccc70c7a000d2a57e5,2021-09-08_17h52.58.332,forced_choiceRT,2021.1.2,Win32,60.90875868,,,,,,,,4,Ontime,j,1,1.9079,7,0,28,3,1,,,,,
,0.39,,,,,,,,,f.PNG,f,55e49dccc70c7a000d2a57e5,2021-09-08_17h52.58.332,forced_choiceRT,2021.1.2,Win32,60.90875868,,,,,,,,4,Ontime,f,1,1.9192,7,1,29,0,1,,,,,
,1.13,,,,,,,,,f.PNG,f,55e49dccc70c7a000d2a57e5,2021-09-08_17h52.58.332,forced_choiceRT,2021.1.2,Win32,60.90875868,,,,,,,,4,Slow,f,1,2.1513,7,2,30,0,1,,,,,
,0.25,,,,,,,,,g.PNG,g,55e49dccc70c7a000d2a57e5,2021-09-08_17h52.58.332,forced_choiceRT,2021.1.2,Win32,60.90875868,,,,,,,,4,Ontime,g,1,1.952,7,3,31,1,1,,,,,
,1.46,,,,,,,,,f.PNG,f,55e49dccc70c7a000d2a57e5,2021-09-08_17h52.58.332,forced_choiceRT,2021.1.2,Win32,60.90875868,,,,,,,,4,Ontime,f,1,1.9356,8,0,32,0,1,,,,,
,1.35,,,,,,,,,j.PNG,j,55e49dccc70c7a000d2a57e5,2021-09-08_17h52.58.332,forced_choiceRT,2021.1.2,Win32,60.90875868,,,,,,,,4,Ontime,j,1,1.9552,8,1,33,3,1,,,,,
,0.79,,,,,,,,,g.PNG,g,55e49dccc70c7a000d2a57e5,2021-09-08_17h52.58.332,forced_choiceRT,2021.1.2,Win32,60.90875868,,,,,,,,4,Fast,g,1,1.8355,8,2,34,1,1,,,,,
,0.18,,,,,,,,,h.PNG,h,55e49dccc70c7a000d2a57e5,2021-09-08_17h52.58.332,forced_choiceRT,2021.1.2,Win32,60.90875868,,,,,,,,4,Ontime,h,1,2.0523,8,3,35,2,1,,,,,
,1.11,,,,,,,,,g.PNG,g,55e49dccc70c7a000d2a57e5,2021-09-08_17h52.58.332,forced_choiceRT,2021.1.2,Win32,60.90875868,,,,,,,,4,Ontime,g,1,2.0537,9,0,36,1,1,,,,,
,1.48,,,,,,,,,j.PNG,j,55e49dccc70c7a000d2a57e5,2021-09-08_17h52.58.332,forced_choiceRT,2021.1.2,Win32,60.90875868,,,,,,,,4,Ontime,j,1,2.0262,9,1,37,3,1,,,,,
,1.44,,,,,,,,,g.PNG,g,55e49dccc70c7a000d2a57e5,2021-09-08_17h52.58.332,forced_choiceRT,2021.1.2,Win32,60.90875868,,,,,,,,4,Ontime,g,1,1.9867,9,2,38,1,1,,,,,
,0.24,,,,,,,,,f.PNG,f,55e49dccc70c7a000d2a57e5,2021-09-08_17h52.58.332,forced_choiceRT,2021.1.2,Win32,60.90875868,,,,,,,,4,Ontime,f,1,1.9855,9,3,39,0,1,,,,,
,,,,,,,,,,,,55e49dccc70c7a000d2a57e5,2021-09-08_17h52.58.332,forced_choiceRT,2021.1.2,Win32,60.90875868,,,,,,,,,,,,,,,,,,3,0,3,0,1
,0.39,,,,,,,,,j.PNG,j,55e49dccc70c7a000d2a57e5,2021-09-08_17h52.58.332,forced_choiceRT,2021.1.2,Win32,60.90875868,,,,,,,,5,Slow,j,1,2.1065,0,0,0,3,1,,,,,
,1.65,,,,,,,,,f.PNG,f,55e49dccc70c7a000d2a57e5,2021-09-08_17h52.58.332,forced_choiceRT,2021.1.2,Win32,60.90875868,,,,,,,,5,Slow,f,1,2.1898,0,1,1,0,1,,,,,
,0.89,,,,,,,,,g.PNG,g,55e49dccc70c7a000d2a57e5,2021-09-08_17h52.58.332,forced_choiceRT,2021.1.2,Win32,60.90875868,,,,,,,,5,Fast,g,1,1.8907,0,2,2,1,1,,,,,
,1.74,,,,,,,,,j.PNG,j,55e49dccc70c7a000d2a57e5,2021-09-08_17h52.58.332,forced_choiceRT,2021.1.2,Win32,60.90875868,,,,,,,,5,Ontime,g,0,1.9201,0,3,3,3,1,,,,,
,1.12,,,,,,,,,h.PNG,h,55e49dccc70c7a000d2a57e5,2021-09-08_17h52.58.332,forced_choiceRT,2021.1.2,Win32,60.90875868,,,,,,,,5,Fast,h,1,1.8849,1,0,4,2,1,,,,,
,0.84,,,,,,,,,j.PNG,j,55e49dccc70c7a000d2a57e5,2021-09-08_17h52.58.332,forced_choiceRT,2021.1.2,Win32,60.90875868,,,,,,,,5,Ontime,j,1,2.0517,1,1,5,3,1,,,,,
,0.86,,,,,,,,,j.PNG,j,55e49dccc70c7a000d2a57e5,2021-09-08_17h52.58.332,forced_choiceRT,2021.1.2,Win32,60.90875868,,,,,,,,5,Ontime,j,1,2.0419,1,2,6,3,1,,,,,
,0.48,,,,,,,,,g.PNG,g,55e49dccc70c7a000d2a57e5,2021-09-08_17h52.58.332,forced_choiceRT,2021.1.2,Win32,60.90875868,,,,,,,,5,Ontime,g,1,2.0761,1,3,7,1,1,,,,,
,1.41,,,,,,,,,f.PNG,f,55e49dccc70c7a000d2a57e5,2021-09-08_17h52.58.332,forced_choiceRT,2021.1.2,Win32,60.90875868,,,,,,,,5,Ontime,f,1,1.9014,2,0,8,0,1,,,,,
,1.55,,,,,,,,,j.PNG,j,55e49dccc70c7a000d2a57e5,2021-09-08_17h52.58.332,forced_choiceRT,2021.1.2,Win32,60.90875868,,,,,,,,5,Slow,j,1,2.1525,2,1,9,3,1,,,,,
,0.72,,,,,,,,,g.PNG,g,55e49dccc70c7a000d2a57e5,2021-09-08_17h52.58.332,forced_choiceRT,2021.1.2,Win32,60.90875868,,,,,,,,5,Ontime,g,1,1.9857,2,2,10,1,1,,,,,
,1.59,,,,,,,,,h.PNG,h,55e49dccc70c7a000d2a57e5,2021-09-08_17h52.58.332,forced_choiceRT,2021.1.2,Win32,60.90875868,,,,,,,,5,Slow,h,1,2.1592,2,3,11,2,1,,,,,
,1.06,,,,,,,,,g.PNG,g,55e49dccc70c7a000d2a57e5,2021-09-08_17h52.58.332,forced_choiceRT,2021.1.2,Win32,60.90875868,,,,,,,,5,Fast,g,1,1.8581,3,0,12,1,1,,,,,
,1.28,,,,,,,,,h.PNG,h,55e49dccc70c7a000d2a57e5,2021-09-08_17h52.58.332,forced_choiceRT,2021.1.2,Win32,60.90875868,,,,,,,,5,Ontime,h,1,2.0181,3,1,13,2,1,,,,,
,0.65,,,,,,,,,j.PNG,j,55e49dccc70c7a000d2a57e5,2021-09-08_17h52.58.332,forced_choiceRT,2021.1.2,Win32,60.90875868,,,,,,,,5,Ontime,j,1,1.9558,3,2,14,3,1,,,,,
,0.46,,,,,,,,,f.PNG,f,55e49dccc70c7a000d2a57e5,2021-09-08_17h52.58.332,forced_choiceRT,2021.1.2,Win32,60.90875868,,,,,,,,5,Fast,f,1,1.8856,3,3,15,0,1,,,,,
,0.15,,,,,,,,,h.PNG,h,55e49dccc70c7a000d2a57e5,2021-09-08_17h52.58.332,forced_choiceRT,2021.1.2,Win32,60.90875868,,,,,,,,5,Ontime,h,1,1.9856,4,0,16,2,1,,,,,
,1.19,,,,,,,,,j.PNG,j,55e49dccc70c7a000d2a57e5,2021-09-08_17h52.58.332,forced_choiceRT,2021.1.2,Win32,60.90875868,,,,,,,,5,Ontime,j,1,2.0036,4,1,17,3,1,,,,,
,0.58,,,,,,,,,g.PNG,g,55e49dccc70c7a000d2a57e5,2021-09-08_17h52.58.332,forced_choiceRT,2021.1.2,Win32,60.90875868,,,,,,,,5,Ontime,g,1,2.0688,4,2,18,1,1,,,,,
,0.91,,,,,,,,,f.PNG,f,55e49dccc70c7a000d2a57e5,2021-09-08_17h52.58.332,forced_choiceRT,2021.1.2,Win32,60.90875868,,,,,,,,5,Ontime,f,1,1.991,4,3,19,0,1,,,,,
,1.79,,,,,,,,,g.PNG,g,55e49dccc70c7a000d2a57e5,2021-09-08_17h52.58.332,forced_choiceRT,2021.1.2,Win32,60.90875868,,,,,,,,5,Ontime,j,0,2.0744,5,0,20,1,1,,,,,
,1.48,,,,,,,,,f.PNG,f,55e49dccc70c7a000d2a57e5,2021-09-08_17h52.58.332,forced_choiceRT,2021.1.2,Win32,60.90875868,,,,,,,,5,Ontime,g,0,1.9188,5,1,21,0,1,,,,,
,1.73,,,,,,,,,f.PNG,f,55e49dccc70c7a000d2a57e5,2021-09-08_17h52.58.332,forced_choiceRT,2021.1.2,Win32,60.90875868,,,,,,,,5,Ontime,f,1,2.0024,5,2,22,0,1,,,,,
,0.13,,,,,,,,,h.PNG,h,55e49dccc70c7a000d2a57e5,2021-09-08_17h52.58.332,forced_choiceRT,2021.1.2,Win32,60.90875868,,,,,,,,5,Ontime,h,1,2.0243,5,3,23,2,1,,,,,
,1.47,,,,,,,,,f.PNG,f,55e49dccc70c7a000d2a57e5,2021-09-08_17h52.58.332,forced_choiceRT,2021.1.2,Win32,60.90875868,,,,,,,,5,Ontime,f,1,2.0023,6,0,24,0,1,,,,,
,1.02,,,,,,,,,g.PNG,g,55e49dccc70c7a000d2a57e5,2021-09-08_17h52.58.332,forced_choiceRT,2021.1.2,Win32,60.90875868,,,,,,,,5,Fast,g,1,1.7182,6,1,25,1,1,,,,,
,0.02,,,,,,,,,g.PNG,g,55e49dccc70c7a000d2a57e5,2021-09-08_17h52.58.332,forced_choiceRT,2021.1.2,Win32,60.90875868,,,,,,,,5,Ontime,g,1,2.0441,6,2,26,1,1,,,,,
,1.84,,,,,,,,,h.PNG,h,55e49dccc70c7a000d2a57e5,2021-09-08_17h52.58.332,forced_choiceRT,2021.1.2,Win32,60.90875868,,,,,,,,5,Ontime,j,0,2.0843,6,3,27,2,1,,,,,
,0,,,,,,,,,j.PNG,j,55e49dccc70c7a000d2a57e5,2021-09-08_17h52.58.332,forced_choiceRT,2021.1.2,Win32,60.90875868,,,,,,,,5,Ontime,j,1,1.9713,7,0,28,3,1,,,,,
,1.83,,,,,,,,,f.PNG,f,55e49dccc70c7a000d2a57e5,2021-09-08_17h52.58.332,forced_choiceRT,2021.1.2,Win32,60.90875868,,,,,,,,5,Ontime,h,0,2.0509,7,1,29,0,1,,,,,
,1.69,,,,,,,,,j.PNG,j,55e49dccc70c7a000d2a57e5,2021-09-08_17h52.58.332,forced_choiceRT,2021.1.2,Win32,60.90875868,,,,,,,,5,Ontime,g,0,2.019,7,2,30,3,1,,,,,
,1.3,,,,,,,,,g.PNG,g,55e49dccc70c7a000d2a57e5,2021-09-08_17h52.58.332,forced_choiceRT,2021.1.2,Win32,60.90875868,,,,,,,,5,Ontime,g,1,1.9196,7,3,31,1,1,,,,,
,1.25,,,,,,,,,g.PNG,g,55e49dccc70c7a000d2a57e5,2021-09-08_17h52.58.332,forced_choiceRT,2021.1.2,Win32,60.90875868,,,,,,,,5,Ontime,g,1,1.9524,8,0,32,1,1,,,,,
,1.95,,,,,,,,,h.PNG,h,55e49dccc70c7a000d2a57e5,2021-09-08_17h52.58.332,forced_choiceRT,2021.1.2,Win32,60.90875868,,,,,,,,5,Slow,g,0,2.1678,8,1,33,2,1,,,,,
,0.26,,,,,,,,,h.PNG,h,55e49dccc70c7a000d2a57e5,2021-09-08_17h52.58.332,forced_choiceRT,2021.1.2,Win32,60.90875868,,,,,,,,5,Fast,h,1,1.8756,8,2,34,2,1,,,,,
,1.37,,,,,,,,,j.PNG,j,55e49dccc70c7a000d2a57e5,2021-09-08_17h52.58.332,forced_choiceRT,2021.1.2,Win32,60.90875868,,,,,,,,5,Ontime,j,1,2.0357,8,3,35,3,1,,,,,
,1.7,,,,,,,,,h.PNG,h,55e49dccc70c7a000d2a57e5,2021-09-08_17h52.58.332,forced_choiceRT,2021.1.2,Win32,60.90875868,,,,,,,,5,Slow,h,1,2.2845,9,0,36,2,1,,,,,
,1.04,,,,,,,,,h.PNG,h,55e49dccc70c7a000d2a57e5,2021-09-08_17h52.58.332,forced_choiceRT,2021.1.2,Win32,60.90875868,,,,,,,,5,Ontime,h,1,1.9064,9,1,37,2,1,,,,,
,0.38,,,,,,,,,f.PNG,f,55e49dccc70c7a000d2a57e5,2021-09-08_17h52.58.332,forced_choiceRT,2021.1.2,Win32,60.90875868,,,,,,,,5,Ontime,f,1,1.9524,9,2,38,0,1,,,,,
,1.19,,,,,,,,,f.PNG,f,55e49dccc70c7a000d2a57e5,2021-09-08_17h52.58.332,forced_choiceRT,2021.1.2,Win32,60.90875868,,,,,,,,5,Ontime,f,1,1.9856,9,3,39,0,1,,,,,
,,,,,,,,,,,,55e49dccc70c7a000d2a57e5,2021-09-08_17h52.58.332,forced_choiceRT,2021.1.2,Win32,60.90875868,,,,,,,,,,,,,,,,,,4,0,4,0,1
,1.74,,,,,,,,,j.PNG,j,55e49dccc70c7a000d2a57e5,2021-09-08_17h52.58.332,forced_choiceRT,2021.1.2,Win32,60.90875868,,,,,,,,6,Slow,h,0,2.293,0,0,0,3,1,,,,,
,1.31,,,,,,,,,f.PNG,f,55e49dccc70c7a000d2a57e5,2021-09-08_17h52.58.332,forced_choiceRT,2021.1.2,Win32,60.90875868,,,,,,,,6,Fast,f,1,1.8338,0,1,1,0,1,,,,,
,0.38,,,,,,,,,g.PNG,g,55e49dccc70c7a000d2a57e5,2021-09-08_17h52.58.332,forced_choiceRT,2021.1.2,Win32,60.90875868,,,,,,,,6,Ontime,g,1,2.0363,0,2,2,1,1,,,,,
,1.62,,,,,,,,,h.PNG,h,55e49dccc70c7a000d2a57e5,2021-09-08_17h52.58.332,forced_choiceRT,2021.1.2,Win32,60.90875868,,,,,,,,6,Ontime,j,0,1.919,0,3,3,2,1,,,,,
,0.11,,,,,,,,,g.PNG,g,55e49dccc70c7a000d2a57e5,2021-09-08_17h52.58.332,forced_choiceRT,2021.1.2,Win32,60.90875868,,,,,,,,6,Ontime,g,1,2.0023,1,0,4,1,1,,,,,
,1.37,,,,,,,,,g.PNG,g,55e49dccc70c7a000d2a57e5,2021-09-08_17h52.58.332,forced_choiceRT,2021.1.2,Win32,60.90875868,,,,,,,,6,Ontime,g,1,1.9875,1,1,5,1,1,,,,,
,0.1,,,,,,,,,j.PNG,j,55e49dccc70c7a000d2a57e5,2021-09-08_17h52.58.332,forced_choiceRT,2021.1.2,Win32,60.90875868,,,,,,,,6,Slow,j,1,2.1065,1,2,6,3,1,,,,,
,1.12,,,,,,,,,j.PNG,j,55e49dccc70c7a000d2a57e5,2021-09-08_17h52.58.332,forced_choiceRT,2021.1.2,Win32,60.90875868,,,,,,,,6,Slow,j,1,2.1014,1,3,7,3,1,,,,,
,0.1,,,,,,,,,h.PNG,h,55e49dccc70c7a000d2a57e5,2021-09-08_17h52.58.332,forced_choiceRT,2021.1.2,Win32,60.90875868,,,,,,,,6,Ontime,h,1,2.003,2,0,8,2,1,,,,,
,0.08,,,,,,,,,f.PNG,f,55e49dccc70c7a000d2a57e5,2021-09-08_17h52.58.332,forced_choiceRT,2021.1.2,Win32,60.90875868,,,,,,,,6,Ontime,f,1,2.0373,2,1,9,0,1,,,,,
,1.1,,,,,,,,,h.PNG,h,55e49dccc70c7a000d2a57e5,2021-09-08_17h52.58.332,forced_choiceRT,2021.1.2,Win32,60.90875868,,,,,,,,6,Ontime,h,1,1.9426,2,2,10,2,1,,,,,
,0.93,,,,,,,,,j.PNG,j,55e49dccc70c7a000d2a57e5,2021-09-08_17h52.58.332,forced_choiceRT,2021.1.2,Win32,60.90875868,,,,,,,,6,Ontime,j,1,2.0242,2,3,11,3,1,,,,,
,0.05,,,,,,,,,h.PNG,h,55e49dccc70c7a000d2a57e5,2021-09-08_17h52.58.332,forced_choiceRT,2021.1.2,Win32,60.90875868,,,,,,,,6,Ontime,h,1,1.9748,3,0,12,2,1,,,,,
,1.29,,,,,,,,,h.PNG,h,55e49dccc70c7a000d2a57e5,2021-09-08_17h52.58.332,forced_choiceRT,2021.1.2,Win32,60.90875868,,,,,,,,6,Slow,h,1,2.1215,3,1,13,2,1,,,,,
,1.76,,,,,,,,,g.PNG,g,55e49dccc70c7a000d2a57e5,2021-09-08_17h52.58.332,forced_choiceRT,2021.1.2,Win32,60.90875868,,,,,,,,6,Slow,f,0,2.2014,3,2,14,1,1,,,,,
,1.24,,,,,,,,,g.PNG,g,55e49dccc70c7a000d2a57e5,2021-09-08_17h52.58.332,forced_choiceRT,2021.1.2,Win32,60.90875868,,,,,,,,6,Fast,g,1,1.8071,3,3,15,1,1,,,,,
,1.26,,,,,,,,,f.PNG,f,55e49dccc70c7a000d2a57e5,2021-09-08_17h52.58.332,forced_choiceRT,2021.1.2,Win32,60.90875868,,,,,,,,6,Ontime,f,1,1.9214,4,0,16,0,1,,,,,
,1.02,,,,,,,,,g.PNG,g,55e49dccc70c7a000d2a57e5,2021-09-08_17h52.58.332,forced_choiceRT,2021.1.2,Win32,60.90875868,,,,,,,,6,Ontime,g,1,1.9691,4,1,17,1,1,,,,,
,0.74,,,,,,,,,h.PNG,h,55e49dccc70c7a000d2a57e5,2021-09-08_17h52.58.332,forced_choiceRT,2021.1.2,Win32,60.90875868,,,,,,,,6,Slow,h,1,2.2413,4,2,18,2,1,,,,,
,0.11,,,,,,,,,f.PNG,f,55e49dccc70c7a000d2a57e5,2021-09-08_17h52.58.332,forced_choiceRT,2021.1.2,Win32,60.90875868,,,,,,,,6,Fast,f,1,1.8521,4,3,19,0,1,,,,,
,1.69,,,,,,,,,f.PNG,f,55e49dccc70c7a000d2a57e5,2021-09-08_17h52.58.332,forced_choiceRT,2021.1.2,Win32,60.90875868,,,,,,,,6,Slow,f,1,2.1844,5,0,20,0,1,,,,,
,0.99,,,,,,,,,j.PNG,j,55e49dccc70c7a000d2a57e5,2021-09-08_17h52.58.332,forced_choiceRT,2021.1.2,Win32,60.90875868,,,,,,,,6,Ontime,h,0,1.9091,5,1,21,3,1,,,,,
,1.78,,,,,,,,,f.PNG,f,55e49dccc70c7a000d2a57e5,2021-09-08_17h52.58.332,forced_choiceRT,2021.1.2,Win32,60.90875868,,,,,,,,6,Ontime,h,0,2.0845,5,2,22,0,1,,,,,
,0.06,,,,,,,,,j.PNG,j,55e49dccc70c7a000d2a57e5,2021-09-08_17h52.58.332,forced_choiceRT,2021.1.2,Win32,60.90875868,,,,,,,,6,Ontime,j,1,2.0847,5,3,23,3,1,,,,,
,0.86,,,,,,,,,g.PNG,g,55e49dccc70c7a000d2a57e5,2021-09-08_17h52.58.332,forced_choiceRT,2021.1.2,Win32,60.90875868,,,,,,,,6,Fast,g,1,1.7215,6,0,24,1,1,,,,,
,1.95,,,,,,,,,j.PNG,j,55e49dccc70c7a000d2a57e5,2021-09-08_17h52.58.332,forced_choiceRT,2021.1.2,Win32,60.90875868,,,,,,,,6,Ontime,f,0,1.9185,6,1,25,3,1,,,,,
,1.2,,,,,,,,,j.PNG,j,55e49dccc70c7a000d2a57e5,2021-09-08_17h52.58.332,forced_choiceRT,2021.1.2,Win32,60.90875868,,,,,,,,6,Fast,g,0,1.6557,6,2,26,3,1,,,,,
,0.02,,,,,,,,,h.PNG,h,55e49dccc70c7a000d2a57e5,2021-09-08_17h52.58.332,forced_choiceRT,2021.1.2,Win32,60.90875868,,,,,,,,6,Fast,h,1,1.8896,6,3,27,2,1,,,,,
,0.25,,,,,,,,,f.PNG,f,55e49dccc70c7a000d2a57e5,2021-09-08_17h52.58.332,forced_choiceRT,2021.1.2,Win32,60.90875868,,,,,,,,6,Ontime,f,1,2.0567,7,0,28,0,1,,,,,
,0.11,,,,,,,,,j.PNG,j,55e49dccc70c7a000d2a57e5,2021-09-08_17h52.58.332,forced_choiceRT,2021.1.2,Win32,60.90875868,,,,,,,,6,Ontime,j,1,1.9534,7,1,29,3,1,,,,,
,0.99,,,,,,,,,j.PNG,j,55e49dccc70c7a000d2a57e5,2021-09-08_17h52.58.332,forced_choiceRT,2021.1.2,Win32,60.90875868,,,,,,,,6,Ontime,j,1,1.9709,7,2,30,3,1,,,,,
,0.65,,,,,,,,,f.PNG,f,55e49dccc70c7a000d2a57e5,2021-09-08_17h52.58.332,forced_choiceRT,2021.1.2,Win32,60.90875868,,,,,,,,6,Ontime,f,1,1.935,7,3,31,0,1,,,,,
,0.96,,,,,,,,,g.PNG,g,55e49dccc70c7a000d2a57e5,2021-09-08_17h52.58.332,forced_choiceRT,2021.1.2,Win32,60.90875868,,,,,,,,6,Ontime,g,1,1.9362,8,0,32,1,1,,,,,
,0.53,,,,,,,,,h.PNG,h,55e49dccc70c7a000d2a57e5,2021-09-08_17h52.58.332,forced_choiceRT,2021.1.2,Win32,60.90875868,,,,,,,,6,Ontime,h,1,1.9509,8,1,33,2,1,,,,,
,1.14,,,,,,,,,h.PNG,h,55e49dccc70c7a000d2a57e5,2021-09-08_17h52.58.332,forced_choiceRT,2021.1.2,Win32,60.90875868,,,,,,,,6,Fast,h,1,1.8751,8,2,34,2,1,,,,,
,0.44,,,,,,,,,g.PNG,g,55e49dccc70c7a000d2a57e5,2021-09-08_17h52.58.332,forced_choiceRT,2021.1.2,Win32,60.90875868,,,,,,,,6,Ontime,g,1,2.0216,8,3,35,1,1,,,,,
,1.75,,,,,,,,,f.PNG,f,55e49dccc70c7a000d2a57e5,2021-09-08_17h52.58.332,forced_choiceRT,2021.1.2,Win32,60.90875868,,,,,,,,6,Fast,f,1,1.8522,9,0,36,0,1,,,,,
,1.36,,,,,,,,,h.PNG,h,55e49dccc70c7a000d2a57e5,2021-09-08_17h52.58.332,forced_choiceRT,2021.1.2,Win32,60.90875868,,,,,,,,6,Ontime,g,0,1.9532,9,1,37,2,1,,,,,
,0.62,,,,,,,,,f.PNG,f,55e49dccc70c7a000d2a57e5,2021-09-08_17h52.58.332,forced_choiceRT,2021.1.2,Win32,60.90875868,,,,,,,,6,Ontime,f,1,2.0571,9,2,38,0,1,,,,,
,0.03,,,,,,,,,g.PNG,g,55e49dccc70c7a000d2a57e5,2021-09-08_17h52.58.332,forced_choiceRT,2021.1.2,Win32,60.90875868,,,,,,,,6,Ontime,g,1,1.9528,9,3,39,1,1,,,,,
,,,,,,,,,,,,55e49dccc70c7a000d2a57e5,2021-09-08_17h52.58.332,forced_choiceRT,2021.1.2,Win32,60.90875868,,,,,,,,,,,,,,,,,,5,0,5,0,1
,1.16,,,,,,,,,h.PNG,h,55e49dccc70c7a000d2a57e5,2021-09-08_17h52.58.332,forced_choiceRT,2021.1.2,Win32,60.90875868,,,,,,,,7,Ontime,h,1,2.0193,0,0,0,2,1,,,,,
,0.07,,,,,,,,,j.PNG,j,55e49dccc70c7a000d2a57e5,2021-09-08_17h52.58.332,forced_choiceRT,2021.1.2,Win32,60.90875868,,,,,,,,7,Ontime,j,1,2.0732,0,1,1,3,1,,,,,
,1.15,,,,,,,,,g.PNG,g,55e49dccc70c7a000d2a57e5,2021-09-08_17h52.58.332,forced_choiceRT,2021.1.2,Win32,60.90875868,,,,,,,,7,Fast,g,1,1.8532,0,2,2,1,1,,,,,
,1.46,,,,,,,,,g.PNG,g,55e49dccc70c7a000d2a57e5,2021-09-08_17h52.58.332,forced_choiceRT,2021.1.2,Win32,60.90875868,,,,,,,,7,Ontime,f,0,2.0526,0,3,3,1,1,,,,,
,0.26,,,,,,,,,j.PNG,j,55e49dccc70c7a000d2a57e5,2021-09-08_17h52.58.332,forced_choiceRT,2021.1.2,Win32,60.90875868,,,,,,,,7,Ontime,j,1,2.0413,1,0,4,3,1,,,,,
,0.05,,,,,,,,,j.PNG,j,55e49dccc70c7a000d2a57e5,2021-09-08_17h52.58.332,forced_choiceRT,2021.1.2,Win32,60.90875868,,,,,,,,7,Fast,j,1,1.8357,1,1,5,3,1,,,,,
,1.74,,,,,,,,,j.PNG,j,55e49dccc70c7a000d2a57e5,2021-09-08_17h52.58.332,forced_choiceRT,2021.1.2,Win32,60.90875868,,,,,,,,7,Ontime,h,0,1.9392,1,2,6,3,1,,,,,
,1.78,,,,,,,,,g.PNG,g,55e49dccc70c7a000d2a57e5,2021-09-08_17h52.58.332,forced_choiceRT,2021.1.2,Win32,60.90875868,,,,,,,,7,Fast,f,0,1.8512,1,3,7,1,1,,,,,
,0.09,,,,,,,,,g.PNG,g,55e49dccc70c7a000d2a57e5,2021-09-08_17h52.58.332,forced_choiceRT,2021.1.2,Win32,60.90875868,,,,,,,,7,Ontime,g,1,2.0356,2,0,8,1,1,,,,,
,1.75,,,,,,,,,f.PNG,f,55e49dccc70c7a000d2a57e5,2021-09-08_17h52.58.332,forced_choiceRT,2021.1.2,Win32,60.90875868,,,,,,,,7,Ontime,g,0,2.0524,2,1,9,0,1,,,,,
,1.7,,,,,,,,,j.PNG,j,55e49dccc70c7a000d2a57e5,2021-09-08_17h52.58.332,forced_choiceRT,2021.1.2,Win32,60.90875868,,,,,,,,7,Slow,h,0,2.1181,2,2,10,3,1,,,,,
,0.96,,,,,,,,,f.PNG,f,55e49dccc70c7a000d2a57e5,2021-09-08_17h52.58.332,forced_choiceRT,2021.1.2,Win32,60.90875868,,,,,,,,7,Ontime,f,1,2.0188,2,3,11,0,1,,,,,
,0.08,,,,,,,,,f.PNG,f,55e49dccc70c7a000d2a57e5,2021-09-08_17h52.58.332,forced_choiceRT,2021.1.2,Win32,60.90875868,,,,,,,,7,Ontime,f,1,1.9686,3,0,12,0,1,,,,,
,1.05,,,,,,,,,h.PNG,h,55e49dccc70c7a000d2a57e5,2021-09-08_17h52.58.332,forced_choiceRT,2021.1.2,Win32,60.90875868,,,,,,,,7,Ontime,h,1,1.9729,3,1,13,2,1,,,,,
,1.86,,,,,,,,,f.PNG,f,55e49dccc70c7a000d2a57e5,2021-09-08_17h52.58.332,forced_choiceRT,2021.1.2,Win32,60.90875868,,,,,,,,7,Ontime,g,0,2.0691,3,2,14,0,1,,,,,
,0.15,,,,,,,,,h.PNG,h,55e49dccc70c7a000d2a57e5,2021-09-08_17h52.58.332,forced_choiceRT,2021.1.2,Win32,60.90875868,,,,,,,,7,Slow,h,1,2.1503,3,3,15,2,1,,,,,
,1.1,,,,,,,,,f.PNG,f,55e49dccc70c7a000d2a57e5,2021-09-08_17h52.58.332,forced_choiceRT,2021.1.2,Win32,60.90875868,,,,,,,,7,Ontime,f,1,2.0034,4,0,16,0,1,,,,,
,1.95,,,,,,,,,g.PNG,g,55e49dccc70c7a000d2a57e5,2021-09-08_17h52.58.332,forced_choiceRT,2021.1.2,Win32,60.90875868,,,,,,,,7,Slow,f,0,2.2093,4,1,17,1,1,,,,,
,1.45,,,,,,,,,j.PNG,j,55e49dccc70c7a000d2a57e5,2021-09-08_17h52.58.332,forced_choiceRT,2021.1.2,Win32,60.90875868,,,,,,,,7,Fast,h,0,1.7189,4,2,18,3,1,,,,,
,1.75,,,,,,,,,h.PNG,h,55e49dccc70c7a000d2a57e5,2021-09-08_17h52.58.332,forced_choiceRT,2021.1.2,Win32,60.90875868,,,,,,,,7,Slow,f,0,2.1678,4,3,19,2,1,,,,,
,1.98,,,,,,,,,h.PNG,h,55e49dccc70c7a000d2a57e5,2021-09-08_17h52.58.332,forced_choiceRT,2021.1.2,Win32,60.90875868,,,,,,,,7,Ontime,f,0,1.9354,5,0,20,2,1,,,,,
,0.14,,,,,,,,,f.PNG,f,55e49dccc70c7a000d2a57e5,2021-09-08_17h52.58.332,forced_choiceRT,2021.1.2,Win32,60.90875868,,,,,,,,7,Fast,f,1,1.8912,5,1,21,0,1,,,,,
,1.09,,,,,,,,,g.PNG,g,55e49dccc70c7a000d2a57e5,2021-09-08_17h52.58.332,forced_choiceRT,2021.1.2,Win32,60.90875868,,,,,,,,7,Ontime,g,1,1.9367,5,2,22,1,1,,,,,
,1.89,,,,,,,,,j.PNG,j,55e49dccc70c7a000d2a57e5,2021-09-08_17h52.58.332,forced_choiceRT,2021.1.2,Win32,60.90875868,,,,,,,,7,Fast,h,0,1.8357,5,3,23,3,1,,,,,
,1.43,,,,,,,,,f.PNG,f,55e49dccc70c7a000d2a57e5,2021-09-08_17h52.58.332,forced_choiceRT,2021.1.2,Win32,60.90875868,,,,,,,,7,Ontime,f,1,1.958,6,0,24,0,1,,,,,
,1.8,,,,,,,,,h.PNG,h,55e49dccc70c7a000d2a57e5,2021-09-08_17h52.58.332,forced_choiceRT,2021.1.2,Win32,60.90875868,,,,,,,,7,Ontime,f,0,1.9516,6,1,25,2,1,,,,,
,1.06,,,,,,,,,f.PNG,f,55e49dccc70c7a000d2a57e5,2021-09-08_17h52.58.332,forced_choiceRT,2021.1.2,Win32,60.90875868,,,,,,,,7,Ontime,f,1,1.9022,6,2,26,0,1,,,,,
,1.67,,,,,,,,,j.PNG,j,55e49dccc70c7a000d2a57e5,2021-09-08_17h52.58.332,forced_choiceRT,2021.1.2,Win32,60.90875868,,,,,,,,7,Slow,h,0,2.2346,6,3,27,3,1,,,,,
,1.52,,,,,,,,,j.PNG,j,55e49dccc70c7a000d2a57e5,2021-09-08_17h52.58.332,forced_choiceRT,2021.1.2,Win32,60.90875868,,,,,,,,7,Slow,h,0,2.1001,7,0,28,3,1,,,,,
,1.45,,,,,,,,,h.PNG,h,55e49dccc70c7a000d2a57e5,2021-09-08_17h52.58.332,forced_choiceRT,2021.1.2,Win32,60.90875868,,,,,,,,7,Ontime,h,1,1.9516,7,1,29,2,1,,,,,
,0.31,,,,,,,,,h.PNG,h,55e49dccc70c7a000d2a57e5,2021-09-08_17h52.58.332,forced_choiceRT,2021.1.2,Win32,60.90875868,,,,,,,,7,Ontime,h,1,1.9926,7,2,30,2,1,,,,,
,0.95,,,,,,,,,g.PNG,g,55e49dccc70c7a000d2a57e5,2021-09-08_17h52.58.332,forced_choiceRT,2021.1.2,Win32,60.90875868,,,,,,,,7,Ontime,g,1,1.9171,7,3,31,1,1,,,,,
,0.66,,,,,,,,,f.PNG,f,55e49dccc70c7a000d2a57e5,2021-09-08_17h52.58.332,forced_choiceRT,2021.1.2,Win32,60.90875868,,,,,,,,7,Ontime,f,1,1.9735,8,0,32,0,1,,,,,
,1.53,,,,,,,,,g.PNG,g,55e49dccc70c7a000d2a57e5,2021-09-08_17h52.58.332,forced_choiceRT,2021.1.2,Win32,60.90875868,,,,,,,,7,Ontime,f,0,2.0189,8,1,33,1,1,,,,,
,1.84,,,,,,,,,g.PNG,g,55e49dccc70c7a000d2a57e5,2021-09-08_17h52.58.332,forced_choiceRT,2021.1.2,Win32,60.90875868,,,,,,,,7,Ontime,h,0,2.0694,8,2,34,1,1,,,,,
,1.76,,,,,,,,,h.PNG,h,55e49dccc70c7a000d2a57e5,2021-09-08_17h52.58.332,forced_choiceRT,2021.1.2,Win32,60.90875868,,,,,,,,7,Slow,j,0,2.1844,8,3,35,2,1,,,,,
,1.88,,,,,,,,,h.PNG,h,55e49dccc70c7a000d2a57e5,2021-09-08_17h52.58.332,forced_choiceRT,2021.1.2,Win32,60.90875868,,,,,,,,7,Ontime,h,1,2.039,9,0,36,2,1,,,,,
,0.15,,,,,,,,,g.PNG,g,55e49dccc70c7a000d2a57e5,2021-09-08_17h52.58.332,forced_choiceRT,2021.1.2,Win32,60.90875868,,,,,,,,7,Ontime,g,1,2.0842,9,1,37,1,1,,,,,
,1.44,,,,,,,,,f.PNG,f,55e49dccc70c7a000d2a57e5,2021-09-08_17h52.58.332,forced_choiceRT,2021.1.2,Win32,60.90875868,,,,,,,,7,Slow,f,1,2.1173,9,2,38,0,1,,,,,
,1.66,,,,,,,,,j.PNG,j,55e49dccc70c7a000d2a57e5,2021-09-08_17h52.58.332,forced_choiceRT,2021.1.2,Win32,60.90875868,,,,,,,,7,Fast,h,0,1.8916,9,3,39,3,1,,,,,
,,,,,,,,,,,,55e49dccc70c7a000d2a57e5,2021-09-08_17h52.58.332,forced_choiceRT,2021.1.2,Win32,60.90875868,,,,,,,,,,,,,,,,,,6,0,6,0,1
,0.29,,,,,,,,,g.PNG,g,55e49dccc70c7a000d2a57e5,2021-09-08_17h52.58.332,forced_choiceRT,2021.1.2,Win32,60.90875868,,,,,,,,8,Fast,g,1,1.6872,0,0,0,1,1,,,,,
,0.78,,,,,,,,,j.PNG,j,55e49dccc70c7a000d2a57e5,2021-09-08_17h52.58.332,forced_choiceRT,2021.1.2,Win32,60.90875868,,,,,,,,8,Ontime,j,1,2.0359,0,1,1,3,1,,,,,
,1.17,,,,,,,,,f.PNG,f,55e49dccc70c7a000d2a57e5,2021-09-08_17h52.58.332,forced_choiceRT,2021.1.2,Win32,60.90875868,,,,,,,,8,Ontime,f,1,2.0355,0,2,2,0,1,,,,,
,1.06,,,,,,,,,g.PNG,g,55e49dccc70c7a000d2a57e5,2021-09-08_17h52.58.332,forced_choiceRT,2021.1.2,Win32,60.90875868,,,,,,,,8,Fast,g,1,1.8659,0,3,3,1,1,,,,,
,1.18,,,,,,,,,h.PNG,h,55e49dccc70c7a000d2a57e5,2021-09-08_17h52.58.332,forced_choiceRT,2021.1.2,Win32,60.90875868,,,,,,,,8,Ontime,h,1,1.9685,1,0,4,2,1,,,,,
,1.14,,,,,,,,,f.PNG,f,55e49dccc70c7a000d2a57e5,2021-09-08_17h52.58.332,forced_choiceRT,2021.1.2,Win32,60.90875868,,,,,,,,8,Ontime,f,1,1.9673,1,1,5,0,1,,,,,
,1.54,,,,,,,,,h.PNG,h,55e49dccc70c7a000d2a57e5,2021-09-08_17h52.58.332,forced_choiceRT,2021.1.2,Win32,60.90875868,,,,,,,,8,Slow,h,1,2.1256,1,2,6,2,1,,,,,
,0.77,,,,,,,,,j.PNG,j,55e49dccc70c7a000d2a57e5,2021-09-08_17h52.58.332,forced_choiceRT,2021.1.2,Win32,60.90875868,,,,,,,,8,Ontime,j,1,2.0356,1,3,7,3,1,,,,,
,0,,,,,,,,,h.PNG,h,55e49dccc70c7a000d2a57e5,2021-09-08_17h52.58.332,forced_choiceRT,2021.1.2,Win32,60.90875868,,,,,,,,8,Ontime,h,1,1.9718,2,0,8,2,1,,,,,
,0.89,,,,,,,,,f.PNG,f,55e49dccc70c7a000d2a57e5,2021-09-08_17h52.58.332,forced_choiceRT,2021.1.2,Win32,60.90875868,,,,,,,,8,Ontime,f,1,1.991,2,1,9,0,1,,,,,
,0.16,,,,,,,,,h.PNG,h,55e49dccc70c7a000d2a57e5,2021-09-08_17h52.58.332,forced_choiceRT,2021.1.2,Win32,60.90875868,,,,,,,,8,Slow,h,1,2.118,2,2,10,2,1,,,,,
,0.84,,,,,,,,,g.PNG,g,55e49dccc70c7a000d2a57e5,2021-09-08_17h52.58.332,forced_choiceRT,2021.1.2,Win32,60.90875868,,,,,,,,8,Ontime,g,1,2.0393,2,3,11,1,1,,,,,
,0.51,,,,,,,,,g.PNG,g,55e49dccc70c7a000d2a57e5,2021-09-08_17h52.58.332,forced_choiceRT,2021.1.2,Win32,60.90875868,,,,,,,,8,Ontime,g,1,2.0356,3,0,12,1,1,,,,,
,0.05,,,,,,,,,h.PNG,h,55e49dccc70c7a000d2a57e5,2021-09-08_17h52.58.332,forced_choiceRT,2021.1.2,Win32,60.90875868,,,,,,,,8,Slow,h,1,2.151,3,1,13,2,1,,,,,
,1.84,,,,,,,,,h.PNG,h,55e49dccc70c7a000d2a57e5,2021-09-08_17h52.58.332,forced_choiceRT,2021.1.2,Win32,60.90875868,,,,,,,,8,Ontime,f,0,1.9353,3,2,14,2,1,,,,,
,0.68,,,,,,,,,g.PNG,g,55e49dccc70c7a000d2a57e5,2021-09-08_17h52.58.332,forced_choiceRT,2021.1.2,Win32,60.90875868,,,,,,,,8,Ontime,g,1,1.9414,3,3,15,1,1,,,,,
,1.07,,,,,,,,,h.PNG,h,55e49dccc70c7a000d2a57e5,2021-09-08_17h52.58.332,forced_choiceRT,2021.1.2,Win32,60.90875868,,,,,,,,8,Ontime,h,1,1.952,4,0,16,2,1,,,,,
,0.82,,,,,,,,,f.PNG,f,55e49dccc70c7a000d2a57e5,2021-09-08_17h52.58.332,forced_choiceRT,2021.1.2,Win32,60.90875868,,,,,,,,8,Ontime,f,1,2.0724,4,1,17,0,1,,,,,
,1.41,,,,,,,,,j.PNG,j,55e49dccc70c7a000d2a57e5,2021-09-08_17h52.58.332,forced_choiceRT,2021.1.2,Win32,60.90875868,,,,,,,,8,Ontime,h,0,1.9404,4,2,18,3,1,,,,,
,1.68,,,,,,,,,f.PNG,f,55e49dccc70c7a000d2a57e5,2021-09-08_17h52.58.332,forced_choiceRT,2021.1.2,Win32,60.90875868,,,,,,,,8,Ontime,f,1,2.0379,4,3,19,0,1,,,,,
,1.79,,,,,,,,,h.PNG,h,55e49dccc70c7a000d2a57e5,2021-09-08_17h52.58.332,forced_choiceRT,2021.1.2,Win32,60.90875868,,,,,,,,8,Ontime,f,0,2.093,5,0,20,2,1,,,,,
,1.74,,,,,,,,,j.PNG,j,55e49dccc70c7a000d2a57e5,2021-09-08_17h52.58.332,forced_choiceRT,2021.1.2,Win32,60.90875868,,,,,,,,8,Ontime,h,0,1.9353,5,1,21,3,1,,,,,
,0.34,,,,,,,,,g.PNG,g,55e49dccc70c7a000d2a57e5,2021-09-08_17h52.58.332,forced_choiceRT,2021.1.2,Win32,60.90875868,,,,,,,,8,Fast,g,1,1.8877,5,2,22,1,1,,,,,
,0.93,,,,,,,,,h.PNG,h,55e49dccc70c7a000d2a57e5,2021-09-08_17h52.58.332,forced_choiceRT,2021.1.2,Win32,60.90875868,,,,,,,,8,Ontime,h,1,1.9523,5,3,23,2,1,,,,,
,0.3,,,,,,,,,f.PNG,f,55e49dccc70c7a000d2a57e5,2021-09-08_17h52.58.332,forced_choiceRT,2021.1.2,Win32,60.90875868,,,,,,,,8,Fast,f,1,1.8734,6,0,24,0,1,,,,,
,0.14,,,,,,,,,f.PNG,f,55e49dccc70c7a000d2a57e5,2021-09-08_17h52.58.332,forced_choiceRT,2021.1.2,Win32,60.90875868,,,,,,,,8,Fast,f,1,1.7421,6,1,25,0,1,,,,,
,0.66,,,,,,,,,j.PNG,j,55e49dccc70c7a000d2a57e5,2021-09-08_17h52.58.332,forced_choiceRT,2021.1.2,Win32,60.90875868,,,,,,,,8,Ontime,j,1,1.9692,6,2,26,3,1,,,,,
,1.82,,,,,,,,,g.PNG,g,55e49dccc70c7a000d2a57e5,2021-09-08_17h52.58.332,forced_choiceRT,2021.1.2,Win32,60.90875868,,,,,,,,8,Slow,h,0,2.3847,6,3,27,1,1,,,,,
,1.43,,,,,,,,,j.PNG,j,55e49dccc70c7a000d2a57e5,2021-09-08_17h52.58.332,forced_choiceRT,2021.1.2,Win32,60.90875868,,,,,,,,8,Ontime,j,1,1.9856,7,0,28,3,1,,,,,
,0.85,,,,,,,,,g.PNG,g,55e49dccc70c7a000d2a57e5,2021-09-08_17h52.58.332,forced_choiceRT,2021.1.2,Win32,60.90875868,,,,,,,,8,Ontime,g,1,1.9186,7,1,29,1,1,,,,,
,0.28,,,,,,,,,f.PNG,f,55e49dccc70c7a000d2a57e5,2021-09-08_17h52.58.332,forced_choiceRT,2021.1.2,Win32,60.90875868,,,,,,,,8,Ontime,f,1,2.0577,7,2,30,0,1,,,,,
,1.28,,,,,,,,,j.PNG,j,55e49dccc70c7a000d2a57e5,2021-09-08_17h52.58.332,forced_choiceRT,2021.1.2,Win32,60.90875868,,,,,,,,8,Ontime,j,1,1.9858,7,3,31,3,1,,,,,
,0.01,,,,,,,,,g.PNG,g,55e49dccc70c7a000d2a57e5,2021-09-08_17h52.58.332,forced_choiceRT,2021.1.2,Win32,60.90875868,,,,,,,,8,Ontime,g,1,2.0845,8,0,32,1,1,,,,,
,1.23,,,,,,,,,j.PNG,j,55e49dccc70c7a000d2a57e5,2021-09-08_17h52.58.332,forced_choiceRT,2021.1.2,Win32,60.90875868,,,,,,,,8,Slow,j,1,2.1252,8,1,33,3,1,,,,,
,0.67,,,,,,,,,j.PNG,j,55e49dccc70c7a000d2a57e5,2021-09-08_17h52.58.332,forced_choiceRT,2021.1.2,Win32,60.90875868,,,,,,,,8,Ontime,j,1,2.0556,8,2,34,3,1,,,,,
,1.78,,,,,,,,,g.PNG,g,55e49dccc70c7a000d2a57e5,2021-09-08_17h52.58.332,forced_choiceRT,2021.1.2,Win32,60.90875868,,,,,,,,8,Ontime,f,0,2.0352,8,3,35,1,1,,,,,
,1.72,,,,,,,,,f.PNG,f,55e49dccc70c7a000d2a57e5,2021-09-08_17h52.58.332,forced_choiceRT,2021.1.2,Win32,60.90875868,,,,,,,,8,Ontime,h,0,1.9525,9,0,36,0,1,,,,,
,0.19,,,,,,,,,h.PNG,h,55e49dccc70c7a000d2a57e5,2021-09-08_17h52.58.332,forced_choiceRT,2021.1.2,Win32,60.90875868,,,,,,,,8,Fast,h,1,1.8855,9,1,37,2,1,,,,,
,1.39,,,,,,,,,f.PNG,f,55e49dccc70c7a000d2a57e5,2021-09-08_17h52.58.332,forced_choiceRT,2021.1.2,Win32,60.90875868,,,,,,,,8,Ontime,f,1,2.07,9,2,38,0,1,,,,,
,1.26,,,,,,,,,j.PNG,j,55e49dccc70c7a000d2a57e5,2021-09-08_17h52.58.332,forced_choiceRT,2021.1.2,Win32,60.90875868,,,,,,,,8,Slow,j,1,2.1522,9,3,39,3,1,,,,,
,,,,,,,,,,,,55e49dccc70c7a000d2a57e5,2021-09-08_17h52.58.332,forced_choiceRT,2021.1.2,Win32,60.90875868,,,,,,,,,,,,,,,,,,7,0,7,0,1
,1.29,,,,,,,,,h.PNG,h,55e49dccc70c7a000d2a57e5,2021-09-08_17h52.58.332,forced_choiceRT,2021.1.2,Win32,60.90875868,,,,,,,,9,Slow,h,1,2.2038,0,0,0,2,1,,,,,
,0.09,,,,,,,,,g.PNG,g,55e49dccc70c7a000d2a57e5,2021-09-08_17h52.58.332,forced_choiceRT,2021.1.2,Win32,60.90875868,,,,,,,,9,Ontime,g,1,1.9595,0,1,1,1,1,,,,,
,0.89,,,,,,,,,g.PNG,g,55e49dccc70c7a000d2a57e5,2021-09-08_17h52.58.332,forced_choiceRT,2021.1.2,Win32,60.90875868,,,,,,,,9,Fast,g,1,1.5852,0,2,2,1,1,,,,,
,0.1,,,,,,,,,f.PNG,f,55e49dccc70c7a000d2a57e5,2021-09-08_17h52.58.332,forced_choiceRT,2021.1.2,Win32,60.90875868,,,,,,,,9,Ontime,f,1,1.9594,0,3,3,0,1,,,,,
,0.47,,,,,,,,,h.PNG,h,55e49dccc70c7a000d2a57e5,2021-09-08_17h52.58.332,forced_choiceRT,2021.1.2,Win32,60.90875868,,,,,,,,9,Ontime,h,1,2.0086,1,0,4,2,1,,,,,
,1.45,,,,,,,,,j.PNG,j,55e49dccc70c7a000d2a57e5,2021-09-08_17h52.58.332,forced_choiceRT,2021.1.2,Win32,60.90875868,,,,,,,,9,Slow,j,1,2.2011,1,1,5,3,1,,,,,
,1.79,,,,,,,,,h.PNG,h,55e49dccc70c7a000d2a57e5,2021-09-08_17h52.58.332,forced_choiceRT,2021.1.2,Win32,60.90875868,,,,,,,,9,Ontime,f,0,2.0524,1,2,6,2,1,,,,,
,1.66,,,,,,,,,f.PNG,f,55e49dccc70c7a000d2a57e5,2021-09-08_17h52.58.332,forced_choiceRT,2021.1.2,Win32,60.90875868,,,,,,,,9,Ontime,h,0,1.9195,1,3,7,0,1,,,,,
,0.38,,,,,,,,,f.PNG,f,55e49dccc70c7a000d2a57e5,2021-09-08_17h52.58.332,forced_choiceRT,2021.1.2,Win32,60.90875868,,,,,,,,9,Fast,f,1,1.7854,2,0,8,0,1,,,,,
,0.43,,,,,,,,,f.PNG,f,55e49dccc70c7a000d2a57e5,2021-09-08_17h52.58.332,forced_choiceRT,2021.1.2,Win32,60.90875868,,,,,,,,9,Ontime,f,1,1.9911,2,1,9,0,1,,,,,
,0.95,,,,,,,,,j.PNG,j,55e49dccc70c7a000d2a57e5,2021-09-08_17h52.58.332,forced_choiceRT,2021.1.2,Win32,60.90875868,,,,,,,,9,Slow,j,1,2.1008,2,2,10,3,1,,,,,
,0.55,,,,,,,,,g.PNG,g,55e49dccc70c7a000d2a57e5,2021-09-08_17h52.58.332,forced_choiceRT,2021.1.2,Win32,60.90875868,,,,,,,,9,Slow,g,1,2.1341,2,3,11,1,1,,,,,
,0.85,,,,,,,,,f.PNG,f,55e49dccc70c7a000d2a57e5,2021-09-08_17h52.58.332,forced_choiceRT,2021.1.2,Win32,60.90875868,,,,,,,,9,Ontime,f,1,1.908,3,0,12,0,1,,,,,
,1.27,,,,,,,,,g.PNG,g,55e49dccc70c7a000d2a57e5,2021-09-08_17h52.58.332,forced_choiceRT,2021.1.2,Win32,60.90875868,,,,,,,,9,Ontime,g,1,1.9852,3,1,13,1,1,,,,,
,0.86,,,,,,,,,g.PNG,g,55e49dccc70c7a000d2a57e5,2021-09-08_17h52.58.332,forced_choiceRT,2021.1.2,Win32,60.90875868,,,,,,,,9,Ontime,g,1,1.9528,3,2,14,1,1,,,,,
,1.07,,,,,,,,,j.PNG,j,55e49dccc70c7a000d2a57e5,2021-09-08_17h52.58.332,forced_choiceRT,2021.1.2,Win32,60.90875868,,,,,,,,9,Ontime,j,1,1.9865,3,3,15,3,1,,,,,
,0.15,,,,,,,,,f.PNG,f,55e49dccc70c7a000d2a57e5,2021-09-08_17h52.58.332,forced_choiceRT,2021.1.2,Win32,60.90875868,,,,,,,,9,Ontime,f,1,2.0022,4,0,16,0,1,,,,,
,1.57,,,,,,,,,j.PNG,j,55e49dccc70c7a000d2a57e5,2021-09-08_17h52.58.332,forced_choiceRT,2021.1.2,Win32,60.90875868,,,,,,,,9,Ontime,j,1,2.0845,4,1,17,3,1,,,,,
,0.27,,,,,,,,,h.PNG,h,55e49dccc70c7a000d2a57e5,2021-09-08_17h52.58.332,forced_choiceRT,2021.1.2,Win32,60.90875868,,,,,,,,9,Ontime,h,1,1.9187,4,2,18,2,1,,,,,
,1.2,,,,,,,,,g.PNG,g,55e49dccc70c7a000d2a57e5,2021-09-08_17h52.58.332,forced_choiceRT,2021.1.2,Win32,60.90875868,,,,,,,,9,Ontime,g,1,2.0846,4,3,19,1,1,,,,,
,0.25,,,,,,,,,j.PNG,j,55e49dccc70c7a000d2a57e5,2021-09-08_17h52.58.332,forced_choiceRT,2021.1.2,Win32,60.90875868,,,,,,,,9,Ontime,j,1,1.9696,5,0,20,3,1,,,,,
,0.18,,,,,,,,,h.PNG,h,55e49dccc70c7a000d2a57e5,2021-09-08_17h52.58.332,forced_choiceRT,2021.1.2,Win32,60.90875868,,,,,,,,9,Ontime,h,1,2.0216,5,1,21,2,1,,,,,
,0.86,,,,,,,,,j.PNG,j,55e49dccc70c7a000d2a57e5,2021-09-08_17h52.58.332,forced_choiceRT,2021.1.2,Win32,60.90875868,,,,,,,,9,Ontime,j,1,1.9187,5,2,22,3,1,,,,,
,0.65,,,,,,,,,j.PNG,j,55e49dccc70c7a000d2a57e5,2021-09-08_17h52.58.332,forced_choiceRT,2021.1.2,Win32,60.90875868,,,,,,,,9,Ontime,j,1,2.0368,5,3,23,3,1,,,,,
,1.24,,,,,,,,,h.PNG,h,55e49dccc70c7a000d2a57e5,2021-09-08_17h52.58.332,forced_choiceRT,2021.1.2,Win32,60.90875868,,,,,,,,9,Ontime,h,1,1.9354,6,0,24,2,1,,,,,
,1,,,,,,,,,g.PNG,g,55e49dccc70c7a000d2a57e5,2021-09-08_17h52.58.332,forced_choiceRT,2021.1.2,Win32,60.90875868,,,,,,,,9,Ontime,g,1,2.0187,6,1,25,1,1,,,,,
,0.89,,,,,,,,,h.PNG,h,55e49dccc70c7a000d2a57e5,2021-09-08_17h52.58.332,forced_choiceRT,2021.1.2,Win32,60.90875868,,,,,,,,9,Ontime,h,1,1.9095,6,2,26,2,1,,,,,
,1.21,,,,,,,,,j.PNG,j,55e49dccc70c7a000d2a57e5,2021-09-08_17h52.58.332,forced_choiceRT,2021.1.2,Win32,60.90875868,,,,,,,,9,Ontime,j,1,2.0358,6,3,27,3,1,,,,,
,0.02,,,,,,,,,j.PNG,j,55e49dccc70c7a000d2a57e5,2021-09-08_17h52.58.332,forced_choiceRT,2021.1.2,Win32,60.90875868,,,,,,,,9,Slow,j,1,2.1874,7,0,28,3,1,,,,,
,0.06,,,,,,,,,g.PNG,g,55e49dccc70c7a000d2a57e5,2021-09-08_17h52.58.332,forced_choiceRT,2021.1.2,Win32,60.90875868,,,,,,,,9,Ontime,g,1,1.9537,7,1,29,1,1,,,,,
,0.53,,,,,,,,,h.PNG,h,55e49dccc70c7a000d2a57e5,2021-09-08_17h52.58.332,forced_choiceRT,2021.1.2,Win32,60.90875868,,,,,,,,9,Ontime,h,1,2.0198,7,2,30,2,1,,,,,
,0.19,,,,,,,,,f.PNG,f,55e49dccc70c7a000d2a57e5,2021-09-08_17h52.58.332,forced_choiceRT,2021.1.2,Win32,60.90875868,,,,,,,,9,Ontime,f,1,1.9688,7,3,31,0,1,,,,,
,1.4,,,,,,,,,j.PNG,j,55e49dccc70c7a000d2a57e5,2021-09-08_17h52.58.332,forced_choiceRT,2021.1.2,Win32,60.90875868,,,,,,,,9,Slow,j,1,2.1384,8,0,32,3,1,,,,,
,0.52,,,,,,,,,g.PNG,g,55e49dccc70c7a000d2a57e5,2021-09-08_17h52.58.332,forced_choiceRT,2021.1.2,Win32,60.90875868,,,,,,,,9,Fast,g,1,1.8686,8,1,33,1,1,,,,,
,1.46,,,,,,,,,f.PNG,f,55e49dccc70c7a000d2a57e5,2021-09-08_17h52.58.332,forced_choiceRT,2021.1.2,Win32,60.90875868,,,,,,,,9,Slow,f,1,2.1754,8,2,34,0,1,,,,,
,0.06,,,,,,,,,g.PNG,g,55e49dccc70c7a000d2a57e5,2021-09-08_17h52.58.332,forced_choiceRT,2021.1.2,Win32,60.90875868,,,,,,,,9,Fast,g,1,1.8559,8,3,35,1,1,,,,,
,1.69,,,,,,,,,h.PNG,h,55e49dccc70c7a000d2a57e5,2021-09-08_17h52.58.332,forced_choiceRT,2021.1.2,Win32,60.90875868,,,,,,,,9,Ontime,h,1,2.0254,9,0,36,2,1,,,,,
,0.42,,,,,,,,,h.PNG,h,55e49dccc70c7a000d2a57e5,2021-09-08_17h52.58.332,forced_choiceRT,2021.1.2,Win32,60.90875868,,,,,,,,9,Ontime,h,1,1.9658,9,1,37,2,1,,,,,
,1.83,,,,,,,,,f.PNG,f,55e49dccc70c7a000d2a57e5,2021-09-08_17h52.58.332,forced_choiceRT,2021.1.2,Win32,60.90875868,,,,,,,,9,Ontime,f,1,1.9568,9,2,38,0,1,,,,,
,1.75,,,,,,,,,f.PNG,f,55e49dccc70c7a000d2a57e5,2021-09-08_17h52.58.332,forced_choiceRT,2021.1.2,Win32,60.90875868,,,,,,,,9,Ontime,h,0,2.0026,9,3,39,0,1,,,,,
,,,,,,,,,,,,55e49dccc70c7a000d2a57e5,2021-09-08_17h52.58.332,forced_choiceRT,2021.1.2,Win32,60.90875868,,,,,,,,,,,,,,,,,,8,0,8,0,1
,0.73,,,,,,,,,h.PNG,h,55e49dccc70c7a000d2a57e5,2021-09-08_17h52.58.332,forced_choiceRT,2021.1.2,Win32,60.90875868,,,,,,,,10,Slow,h,1,2.1186,0,0,0,2,1,,,,,
,1.01,,,,,,,,,h.PNG,h,55e49dccc70c7a000d2a57e5,2021-09-08_17h52.58.332,forced_choiceRT,2021.1.2,Win32,60.90875868,,,,,,,,10,Fast,h,1,1.6095,0,1,1,2,1,,,,,
,1.56,,,,,,,,,h.PNG,h,55e49dccc70c7a000d2a57e5,2021-09-08_17h52.58.332,forced_choiceRT,2021.1.2,Win32,60.90875868,,,,,,,,10,Fast,f,0,1.8843,0,2,2,2,1,,,,,
,1.43,,,,,,,,,f.PNG,f,55e49dccc70c7a000d2a57e5,2021-09-08_17h52.58.332,forced_choiceRT,2021.1.2,Win32,60.90875868,,,,,,,,10,Fast,h,0,1.822,0,3,3,0,1,,,,,
,0,,,,,,,,,h.PNG,h,55e49dccc70c7a000d2a57e5,2021-09-08_17h52.58.332,forced_choiceRT,2021.1.2,Win32,60.90875868,,,,,,,,10,Ontime,h,1,1.953,1,0,4,2,1,,,,,
,1.41,,,,,,,,,f.PNG,f,55e49dccc70c7a000d2a57e5,2021-09-08_17h52.58.332,forced_choiceRT,2021.1.2,Win32,60.90875868,,,,,,,,10,Ontime,f,1,1.9525,1,1,5,0,1,,,,,
,1.05,,,,,,,,,g.PNG,g,55e49dccc70c7a000d2a57e5,2021-09-08_17h52.58.332,forced_choiceRT,2021.1.2,Win32,60.90875868,,,,,,,,10,Ontime,g,1,1.9693,1,2,6,1,1,,,,,
,1.69,,,,,,,,,g.PNG,g,55e49dccc70c7a000d2a57e5,2021-09-08_17h52.58.332,forced_choiceRT,2021.1.2,Win32,60.90875868,,,,,,,,10,Ontime,g,1,1.9194,1,3,7,1,1,,,,,
,1.98,,,,,,,,,f.PNG,f,55e49dccc70c7a000d2a57e5,2021-09-08_17h52.58.332,forced_choiceRT,2021.1.2,Win32,60.90875868,,,,,,,,10,Ontime,f,1,2.0354,2,0,8,0,1,,,,,
,1.9,,,,,,,,,j.PNG,j,55e49dccc70c7a000d2a57e5,2021-09-08_17h52.58.332,forced_choiceRT,2021.1.2,Win32,60.90875868,,,,,,,,10,Ontime,f,0,2.071,2,1,9,3,1,,,,,
,0.75,,,,,,,,,j.PNG,j,55e49dccc70c7a000d2a57e5,2021-09-08_17h52.58.332,forced_choiceRT,2021.1.2,Win32,60.90875868,,,,,,,,10,Ontime,j,1,1.9861,2,2,10,3,1,,,,,
,0.98,,,,,,,,,j.PNG,j,55e49dccc70c7a000d2a57e5,2021-09-08_17h52.58.332,forced_choiceRT,2021.1.2,Win32,60.90875868,,,,,,,,10,Ontime,j,1,1.9398,2,3,11,3,1,,,,,
,1.59,,,,,,,,,f.PNG,f,55e49dccc70c7a000d2a57e5,2021-09-08_17h52.58.332,forced_choiceRT,2021.1.2,Win32,60.90875868,,,,,,,,10,Ontime,h,0,1.9065,3,0,12,0,1,,,,,
,0.07,,,,,,,,,h.PNG,h,55e49dccc70c7a000d2a57e5,2021-09-08_17h52.58.332,forced_choiceRT,2021.1.2,Win32,60.90875868,,,,,,,,10,Ontime,h,1,1.9355,3,1,13,2,1,,,,,
,0.41,,,,,,,,,j.PNG,j,55e49dccc70c7a000d2a57e5,2021-09-08_17h52.58.332,forced_choiceRT,2021.1.2,Win32,60.90875868,,,,,,,,10,Ontime,j,1,2.0038,3,2,14,3,1,,,,,
,0.96,,,,,,,,,g.PNG,g,55e49dccc70c7a000d2a57e5,2021-09-08_17h52.58.332,forced_choiceRT,2021.1.2,Win32,60.90875868,,,,,,,,10,Ontime,g,1,2.0897,3,3,15,1,1,,,,,
,0.93,,,,,,,,,j.PNG,j,55e49dccc70c7a000d2a57e5,2021-09-08_17h52.58.332,forced_choiceRT,2021.1.2,Win32,60.90875868,,,,,,,,10,Ontime,j,1,2.0549,4,0,16,3,1,,,,,
,1.17,,,,,,,,,g.PNG,g,55e49dccc70c7a000d2a57e5,2021-09-08_17h52.58.332,forced_choiceRT,2021.1.2,Win32,60.90875868,,,,,,,,10,Fast,g,1,1.869,4,1,17,1,1,,,,,
,0.18,,,,,,,,,h.PNG,h,55e49dccc70c7a000d2a57e5,2021-09-08_17h52.58.332,forced_choiceRT,2021.1.2,Win32,60.90875868,,,,,,,,10,Ontime,h,1,2.0022,4,2,18,2,1,,,,,
,1.68,,,,,,,,,h.PNG,h,55e49dccc70c7a000d2a57e5,2021-09-08_17h52.58.332,forced_choiceRT,2021.1.2,Win32,60.90875868,,,,,,,,10,Slow,j,0,2.1375,4,3,19,2,1,,,,,
,0.48,,,,,,,,,h.PNG,h,55e49dccc70c7a000d2a57e5,2021-09-08_17h52.58.332,forced_choiceRT,2021.1.2,Win32,60.90875868,,,,,,,,10,Ontime,h,1,2.0024,5,0,20,2,1,,,,,
,0.11,,,,,,,,,g.PNG,g,55e49dccc70c7a000d2a57e5,2021-09-08_17h52.58.332,forced_choiceRT,2021.1.2,Win32,60.90875868,,,,,,,,10,Ontime,g,1,1.972,5,1,21,1,1,,,,,
,1.9,,,,,,,,,g.PNG,g,55e49dccc70c7a000d2a57e5,2021-09-08_17h52.58.332,forced_choiceRT,2021.1.2,Win32,60.90875868,,,,,,,,10,Ontime,g,1,2.0421,5,2,22,1,1,,,,,
,1.76,,,,,,,,,j.PNG,j,55e49dccc70c7a000d2a57e5,2021-09-08_17h52.58.332,forced_choiceRT,2021.1.2,Win32,60.90875868,,,,,,,,10,Fast,h,0,1.8854,5,3,23,3,1,,,,,
,0.8,,,,,,,,,g.PNG,g,55e49dccc70c7a000d2a57e5,2021-09-08_17h52.58.332,forced_choiceRT,2021.1.2,Win32,60.90875868,,,,,,,,10,Ontime,g,1,1.9057,6,0,24,1,1,,,,,
,1.33,,,,,,,,,g.PNG,g,55e49dccc70c7a000d2a57e5,2021-09-08_17h52.58.332,forced_choiceRT,2021.1.2,Win32,60.90875868,,,,,,,,10,Ontime,g,1,1.9228,6,1,25,1,1,,,,,
,0.15,,,,,,,,,g.PNG,g,55e49dccc70c7a000d2a57e5,2021-09-08_17h52.58.332,forced_choiceRT,2021.1.2,Win32,60.90875868,,,,,,,,10,Ontime,g,1,1.9693,6,2,26,1,1,,,,,
,1.15,,,,,,,,,f.PNG,f,55e49dccc70c7a000d2a57e5,2021-09-08_17h52.58.332,forced_choiceRT,2021.1.2,Win32,60.90875868,,,,,,,,10,Fast,f,1,1.8855,6,3,27,0,1,,,,,
,0.81,,,,,,,,,j.PNG,j,55e49dccc70c7a000d2a57e5,2021-09-08_17h52.58.332,forced_choiceRT,2021.1.2,Win32,60.90875868,,,,,,,,10,Slow,j,1,2.1019,7,0,28,3,1,,,,,
,0.95,,,,,,,,,h.PNG,h,55e49dccc70c7a000d2a57e5,2021-09-08_17h52.58.332,forced_choiceRT,2021.1.2,Win32,60.90875868,,,,,,,,10,Ontime,h,1,2.0018,7,1,29,2,1,,,,,
,0.17,,,,,,,,,j.PNG,j,55e49dccc70c7a000d2a57e5,2021-09-08_17h52.58.332,forced_choiceRT,2021.1.2,Win32,60.90875868,,,,,,,,10,Ontime,j,1,1.9524,7,2,30,3,1,,,,,
,1.7,,,,,,,,,f.PNG,f,55e49dccc70c7a000d2a57e5,2021-09-08_17h52.58.332,forced_choiceRT,2021.1.2,Win32,60.90875868,,,,,,,,10,Ontime,f,1,1.959,7,3,31,0,1,,,,,
,1.68,,,,,,,,,f.PNG,f,55e49dccc70c7a000d2a57e5,2021-09-08_17h52.58.332,forced_choiceRT,2021.1.2,Win32,60.90875868,,,,,,,,10,Fast,h,0,1.707,8,0,32,0,1,,,,,
,1.2,,,,,,,,,g.PNG,g,55e49dccc70c7a000d2a57e5,2021-09-08_17h52.58.332,forced_choiceRT,2021.1.2,Win32,60.90875868,,,,,,,,10,Fast,g,1,1.8258,8,1,33,1,1,,,,,
,0.53,,,,,,,,,f.PNG,f,55e49dccc70c7a000d2a57e5,2021-09-08_17h52.58.332,forced_choiceRT,2021.1.2,Win32,60.90875868,,,,,,,,10,Ontime,f,1,1.9542,8,2,34,0,1,,,,,
,0.61,,,,,,,,,h.PNG,h,55e49dccc70c7a000d2a57e5,2021-09-08_17h52.58.332,forced_choiceRT,2021.1.2,Win32,60.90875868,,,,,,,,10,Ontime,h,1,1.9355,8,3,35,2,1,,,,,
,0.39,,,,,,,,,j.PNG,j,55e49dccc70c7a000d2a57e5,2021-09-08_17h52.58.332,forced_choiceRT,2021.1.2,Win32,60.90875868,,,,,,,,10,Ontime,j,1,2.0082,9,0,36,3,1,,,,,
,1.35,,,,,,,,,f.PNG,f,55e49dccc70c7a000d2a57e5,2021-09-08_17h52.58.332,forced_choiceRT,2021.1.2,Win32,60.90875868,,,,,,,,10,Ontime,f,1,2.0023,9,1,37,0,1,,,,,
,1.04,,,,,,,,,f.PNG,f,55e49dccc70c7a000d2a57e5,2021-09-08_17h52.58.332,forced_choiceRT,2021.1.2,Win32,60.90875868,,,,,,,,10,Ontime,f,1,2.0095,9,2,38,0,1,,,,,
,1.28,,,,,,,,,j.PNG,j,55e49dccc70c7a000d2a57e5,2021-09-08_17h52.58.332,forced_choiceRT,2021.1.2,Win32,60.90875868,,,,,,,,10,Fast,h,0,1.8509,9,3,39,3,1,,,,,
,,,,,,,,,,,,55e49dccc70c7a000d2a57e5,2021-09-08_17h52.58.332,forced_choiceRT,2021.1.2,Win32,60.90875868,,,,,,,,,,,,,,,,,,9,0,9,0,1
