IP_Addresss,target_onset,trial_resp_sp.keys,trial_resp_sp.corr,trial_resp_sp.rt,trials_train_loop.thisRepN,trials_train_loop.thisTrialN,trials_train_loop.thisN,trials_train_loop.thisIndex,trials_train_loop.ran,pic,correct_key,participant,date,expName,psychopyVersion,OS,frameRate,trial_resp_timing.keys,trial_resp_timing.rt,trials_train_timing.thisRepN,trials_train_timing.thisTrialN,trials_train_timing.thisN,trials_train_timing.thisIndex,trials_train_timing.ran,block_id,ontime,forcedRT_resp.keys,forcedRT_resp.corr,forcedRT_resp.rt,trials.thisRepN,trials.thisTrialN,trials.thisN,trials.thisIndex,trials.ran,blocks.thisRepN,blocks.thisTrialN,blocks.thisN,blocks.thisIndex,blocks.ran
50.72.185.195,0,g,1,1.9293,0,0,0,1,1,g.PNG,g,5cb7d2f8f0e73600180b9555,2021-09-08_14h18.29.631,forced_choiceRT,2021.1.2,Win32,59.90893841,,,,,,,,,,,,,,,,,,,,,,
,0,h,1,3.2016,0,1,1,2,1,h.PNG,h,5cb7d2f8f0e73600180b9555,2021-09-08_14h18.29.631,forced_choiceRT,2021.1.2,Win32,59.90893841,,,,,,,,,,,,,,,,,,,,,,
,0,g,1,1.248,0,2,2,1,1,g.PNG,g,5cb7d2f8f0e73600180b9555,2021-09-08_14h18.29.631,forced_choiceRT,2021.1.2,Win32,59.90893841,,,,,,,,,,,,,,,,,,,,,,
,0,j,1,0.8619,0,3,3,3,1,j.PNG,j,5cb7d2f8f0e73600180b9555,2021-09-08_14h18.29.631,forced_choiceRT,2021.1.2,Win32,59.90893841,,,,,,,,,,,,,,,,,,,,,,
,0,h,1,2.4914,1,0,4,2,1,h.PNG,h,5cb7d2f8f0e73600180b9555,2021-09-08_14h18.29.631,forced_choiceRT,2021.1.2,Win32,59.90893841,,,,,,,,,,,,,,,,,,,,,,
,0,g,1,0.9466,1,1,5,1,1,g.PNG,g,5cb7d2f8f0e73600180b9555,2021-09-08_14h18.29.631,forced_choiceRT,2021.1.2,Win32,59.90893841,,,,,,,,,,,,,,,,,,,,,,
,0,f,1,0.7837,1,2,6,0,1,f.PNG,f,5cb7d2f8f0e73600180b9555,2021-09-08_14h18.29.631,forced_choiceRT,2021.1.2,Win32,59.90893841,,,,,,,,,,,,,,,,,,,,,,
,0,g,1,0.8671,1,3,7,1,1,g.PNG,g,5cb7d2f8f0e73600180b9555,2021-09-08_14h18.29.631,forced_choiceRT,2021.1.2,Win32,59.90893841,,,,,,,,,,,,,,,,,,,,,,
,0,h,1,0.9674,2,0,8,2,1,h.PNG,h,5cb7d2f8f0e73600180b9555,2021-09-08_14h18.29.631,forced_choiceRT,2021.1.2,Win32,59.90893841,,,,,,,,,,,,,,,,,,,,,,
,0,h,1,1.0173,2,1,9,2,1,h.PNG,h,5cb7d2f8f0e73600180b9555,2021-09-08_14h18.29.631,forced_choiceRT,2021.1.2,Win32,59.90893841,,,,,,,,,,,,,,,,,,,,,,
,0,j,1,0.7736,2,2,10,3,1,j.PNG,j,5cb7d2f8f0e73600180b9555,2021-09-08_14h18.29.631,forced_choiceRT,2021.1.2,Win32,59.90893841,,,,,,,,,,,,,,,,,,,,,,
,0,h,1,0.8836,2,3,11,2,1,h.PNG,h,5cb7d2f8f0e73600180b9555,2021-09-08_14h18.29.631,forced_choiceRT,2021.1.2,Win32,59.90893841,,,,,,,,,,,,,,,,,,,,,,
,0,h,1,1.0293,3,0,12,2,1,h.PNG,h,5cb7d2f8f0e73600180b9555,2021-09-08_14h18.29.631,forced_choiceRT,2021.1.2,Win32,59.90893841,,,,,,,,,,,,,,,,,,,,,,
,0,h,1,0.991,3,1,13,2,1,h.PNG,h,5cb7d2f8f0e73600180b9555,2021-09-08_14h18.29.631,forced_choiceRT,2021.1.2,Win32,59.90893841,,,,,,,,,,,,,,,,,,,,,,
,0,g,1,0.7018,3,2,14,1,1,g.PNG,g,5cb7d2f8f0e73600180b9555,2021-09-08_14h18.29.631,forced_choiceRT,2021.1.2,Win32,59.90893841,,,,,,,,,,,,,,,,,,,,,,
,0,j,1,0.8354,3,3,15,3,1,j.PNG,j,5cb7d2f8f0e73600180b9555,2021-09-08_14h18.29.631,forced_choiceRT,2021.1.2,Win32,59.90893841,,,,,,,,,,,,,,,,,,,,,,
,0,h,1,0.9891,4,0,16,2,1,h.PNG,h,5cb7d2f8f0e73600180b9555,2021-09-08_14h18.29.631,forced_choiceRT,2021.1.2,Win32,59.90893841,,,,,,,,,,,,,,,,,,,,,,
,0,j,1,1.0673,4,1,17,3,1,j.PNG,j,5cb7d2f8f0e73600180b9555,2021-09-08_14h18.29.631,forced_choiceRT,2021.1.2,Win32,59.90893841,,,,,,,,,,,,,,,,,,,,,,
,0,f,1,0.7075,4,2,18,0,1,f.PNG,f,5cb7d2f8f0e73600180b9555,2021-09-08_14h18.29.631,forced_choiceRT,2021.1.2,Win32,59.90893841,,,,,,,,,,,,,,,,,,,,,,
,0,g,1,0.8747,4,3,19,1,1,g.PNG,g,5cb7d2f8f0e73600180b9555,2021-09-08_14h18.29.631,forced_choiceRT,2021.1.2,Win32,59.90893841,,,,,,,,,,,,,,,,,,,,,,
,0,g,1,1.1673,5,0,20,1,1,g.PNG,g,5cb7d2f8f0e73600180b9555,2021-09-08_14h18.29.631,forced_choiceRT,2021.1.2,Win32,59.90893841,,,,,,,,,,,,,,,,,,,,,,
,0,g,1,1.0014,5,1,21,1,1,g.PNG,g,5cb7d2f8f0e73600180b9555,2021-09-08_14h18.29.631,forced_choiceRT,2021.1.2,Win32,59.90893841,,,,,,,,,,,,,,,,,,,,,,
,0,g,1,0.8338,5,2,22,1,1,g.PNG,g,5cb7d2f8f0e73600180b9555,2021-09-08_14h18.29.631,forced_choiceRT,2021.1.2,Win32,59.90893841,,,,,,,,,,,,,,,,,,,,,,
,0,f,1,0.8171,5,3,23,0,1,f.PNG,f,5cb7d2f8f0e73600180b9555,2021-09-08_14h18.29.631,forced_choiceRT,2021.1.2,Win32,59.90893841,,,,,,,,,,,,,,,,,,,,,,
,0,f,1,0.9006,6,0,24,0,1,f.PNG,f,5cb7d2f8f0e73600180b9555,2021-09-08_14h18.29.631,forced_choiceRT,2021.1.2,Win32,59.90893841,,,,,,,,,,,,,,,,,,,,,,
,0,h,1,1.1919,6,1,25,2,1,h.PNG,h,5cb7d2f8f0e73600180b9555,2021-09-08_14h18.29.631,forced_choiceRT,2021.1.2,Win32,59.90893841,,,,,,,,,,,,,,,,,,,,,,
,0,g,1,0.934,6,2,26,1,1,g.PNG,g,5cb7d2f8f0e73600180b9555,2021-09-08_14h18.29.631,forced_choiceRT,2021.1.2,Win32,59.90893841,,,,,,,,,,,,,,,,,,,,,,
,0,h,1,1.6008,6,3,27,2,1,h.PNG,h,5cb7d2f8f0e73600180b9555,2021-09-08_14h18.29.631,forced_choiceRT,2021.1.2,Win32,59.90893841,,,,,,,,,,,,,,,,,,,,,,
,0,j,1,0.7875,7,0,28,3,1,j.PNG,j,5cb7d2f8f0e73600180b9555,2021-09-08_14h18.29.631,forced_choiceRT,2021.1.2,Win32,59.90893841,,,,,,,,,,,,,,,,,,,,,,
,0,f,1,0.7275,7,1,29,0,1,f.PNG,f,5cb7d2f8f0e73600180b9555,2021-09-08_14h18.29.631,forced_choiceRT,2021.1.2,Win32,59.90893841,,,,,,,,,,,,,,,,,,,,,,
,0,g,1,0.8673,7,2,30,1,1,g.PNG,g,5cb7d2f8f0e73600180b9555,2021-09-08_14h18.29.631,forced_choiceRT,2021.1.2,Win32,59.90893841,,,,,,,,,,,,,,,,,,,,,,
,0,g,1,1.6841,7,3,31,1,1,g.PNG,g,5cb7d2f8f0e73600180b9555,2021-09-08_14h18.29.631,forced_choiceRT,2021.1.2,Win32,59.90893841,,,,,,,,,,,,,,,,,,,,,,
,0,j,1,0.7893,8,0,32,3,1,j.PNG,j,5cb7d2f8f0e73600180b9555,2021-09-08_14h18.29.631,forced_choiceRT,2021.1.2,Win32,59.90893841,,,,,,,,,,,,,,,,,,,,,,
,0,f,1,0.7503,8,1,33,0,1,f.PNG,f,5cb7d2f8f0e73600180b9555,2021-09-08_14h18.29.631,forced_choiceRT,2021.1.2,Win32,59.90893841,,,,,,,,,,,,,,,,,,,,,,
,0,j,1,1.0338,8,2,34,3,1,j.PNG,j,5cb7d2f8f0e73600180b9555,2021-09-08_14h18.29.631,forced_choiceRT,2021.1.2,Win32,59.90893841,,,,,,,,,,,,,,,,,,,,,,
,0,f,1,1.0642,8,3,35,0,1,f.PNG,f,5cb7d2f8f0e73600180b9555,2021-09-08_14h18.29.631,forced_choiceRT,2021.1.2,Win32,59.90893841,,,,,,,,,,,,,,,,,,,,,,
,0,j,1,0.8435,9,0,36,3,1,j.PNG,j,5cb7d2f8f0e73600180b9555,2021-09-08_14h18.29.631,forced_choiceRT,2021.1.2,Win32,59.90893841,,,,,,,,,,,,,,,,,,,,,,
,0,h,1,0.9683,9,1,37,2,1,h.PNG,h,5cb7d2f8f0e73600180b9555,2021-09-08_14h18.29.631,forced_choiceRT,2021.1.2,Win32,59.90893841,,,,,,,,,,,,,,,,,,,,,,
,0,f,1,0.7505,9,2,38,0,1,f.PNG,f,5cb7d2f8f0e73600180b9555,2021-09-08_14h18.29.631,forced_choiceRT,2021.1.2,Win32,59.90893841,,,,,,,,,,,,,,,,,,,,,,
,0,j,1,0.7371,9,3,39,3,1,j.PNG,j,5cb7d2f8f0e73600180b9555,2021-09-08_14h18.29.631,forced_choiceRT,2021.1.2,Win32,59.90893841,,,,,,,,,,,,,,,,,,,,,,
,0,g,1,0.8181,10,0,40,1,1,g.PNG,g,5cb7d2f8f0e73600180b9555,2021-09-08_14h18.29.631,forced_choiceRT,2021.1.2,Win32,59.90893841,,,,,,,,,,,,,,,,,,,,,,
,0,f,1,0.8169,10,1,41,0,1,f.PNG,f,5cb7d2f8f0e73600180b9555,2021-09-08_14h18.29.631,forced_choiceRT,2021.1.2,Win32,59.90893841,,,,,,,,,,,,,,,,,,,,,,
,0,j,1,0.7504,10,2,42,3,1,j.PNG,j,5cb7d2f8f0e73600180b9555,2021-09-08_14h18.29.631,forced_choiceRT,2021.1.2,Win32,59.90893841,,,,,,,,,,,,,,,,,,,,,,
,0,h,1,0.9062,10,3,43,2,1,h.PNG,h,5cb7d2f8f0e73600180b9555,2021-09-08_14h18.29.631,forced_choiceRT,2021.1.2,Win32,59.90893841,,,,,,,,,,,,,,,,,,,,,,
,0,g,1,0.9172,11,0,44,1,1,g.PNG,g,5cb7d2f8f0e73600180b9555,2021-09-08_14h18.29.631,forced_choiceRT,2021.1.2,Win32,59.90893841,,,,,,,,,,,,,,,,,,,,,,
,0,h,1,0.84,11,1,45,2,1,h.PNG,h,5cb7d2f8f0e73600180b9555,2021-09-08_14h18.29.631,forced_choiceRT,2021.1.2,Win32,59.90893841,,,,,,,,,,,,,,,,,,,,,,
,0,f,1,0.619,11,2,46,0,1,f.PNG,f,5cb7d2f8f0e73600180b9555,2021-09-08_14h18.29.631,forced_choiceRT,2021.1.2,Win32,59.90893841,,,,,,,,,,,,,,,,,,,,,,
,0,j,1,0.7958,11,3,47,3,1,j.PNG,j,5cb7d2f8f0e73600180b9555,2021-09-08_14h18.29.631,forced_choiceRT,2021.1.2,Win32,59.90893841,,,,,,,,,,,,,,,,,,,,,,
,0,f,1,0.7838,12,0,48,0,1,f.PNG,f,5cb7d2f8f0e73600180b9555,2021-09-08_14h18.29.631,forced_choiceRT,2021.1.2,Win32,59.90893841,,,,,,,,,,,,,,,,,,,,,,
,0,j,1,0.8338,12,1,49,3,1,j.PNG,j,5cb7d2f8f0e73600180b9555,2021-09-08_14h18.29.631,forced_choiceRT,2021.1.2,Win32,59.90893841,,,,,,,,,,,,,,,,,,,,,,
,0,f,1,0.7586,12,2,50,0,1,f.PNG,f,5cb7d2f8f0e73600180b9555,2021-09-08_14h18.29.631,forced_choiceRT,2021.1.2,Win32,59.90893841,,,,,,,,,,,,,,,,,,,,,,
,0,j,1,0.6969,12,3,51,3,1,j.PNG,j,5cb7d2f8f0e73600180b9555,2021-09-08_14h18.29.631,forced_choiceRT,2021.1.2,Win32,59.90893841,,,,,,,,,,,,,,,,,,,,,,
,0,h,1,0.9261,13,0,52,2,1,h.PNG,h,5cb7d2f8f0e73600180b9555,2021-09-08_14h18.29.631,forced_choiceRT,2021.1.2,Win32,59.90893841,,,,,,,,,,,,,,,,,,,,,,
,0,h,1,1.3637,13,1,53,2,1,h.PNG,h,5cb7d2f8f0e73600180b9555,2021-09-08_14h18.29.631,forced_choiceRT,2021.1.2,Win32,59.90893841,,,,,,,,,,,,,,,,,,,,,,
,0,f,1,0.8577,13,2,54,0,1,f.PNG,f,5cb7d2f8f0e73600180b9555,2021-09-08_14h18.29.631,forced_choiceRT,2021.1.2,Win32,59.90893841,,,,,,,,,,,,,,,,,,,,,,
,0,g,1,0.686,13,3,55,1,1,g.PNG,g,5cb7d2f8f0e73600180b9555,2021-09-08_14h18.29.631,forced_choiceRT,2021.1.2,Win32,59.90893841,,,,,,,,,,,,,,,,,,,,,,
,0,f,1,0.8341,14,0,56,0,1,f.PNG,f,5cb7d2f8f0e73600180b9555,2021-09-08_14h18.29.631,forced_choiceRT,2021.1.2,Win32,59.90893841,,,,,,,,,,,,,,,,,,,,,,
,0,j,1,1.0187,14,1,57,3,1,j.PNG,j,5cb7d2f8f0e73600180b9555,2021-09-08_14h18.29.631,forced_choiceRT,2021.1.2,Win32,59.90893841,,,,,,,,,,,,,,,,,,,,,,
,0,f,1,0.6636,14,2,58,0,1,f.PNG,f,5cb7d2f8f0e73600180b9555,2021-09-08_14h18.29.631,forced_choiceRT,2021.1.2,Win32,59.90893841,,,,,,,,,,,,,,,,,,,,,,
,0,j,1,1.19,14,3,59,3,1,j.PNG,j,5cb7d2f8f0e73600180b9555,2021-09-08_14h18.29.631,forced_choiceRT,2021.1.2,Win32,59.90893841,,,,,,,,,,,,,,,,,,,,,,
,,,,,,,,,,,,5cb7d2f8f0e73600180b9555,2021-09-08_14h18.29.631,forced_choiceRT,2021.1.2,Win32,59.90893841,f,2.2274,0,0,0,0,1,,,,,,,,,,,,,,,
,,,,,,,,,,,,5cb7d2f8f0e73600180b9555,2021-09-08_14h18.29.631,forced_choiceRT,2021.1.2,Win32,59.90893841,g,2.0921,1,0,1,0,1,,,,,,,,,,,,,,,
,,,,,,,,,,,,5cb7d2f8f0e73600180b9555,2021-09-08_14h18.29.631,forced_choiceRT,2021.1.2,Win32,59.90893841,j,2.1344,2,0,2,0,1,,,,,,,,,,,,,,,
,,,,,,,,,,,,5cb7d2f8f0e73600180b9555,2021-09-08_14h18.29.631,forced_choiceRT,2021.1.2,Win32,59.90893841,h,2.0718,3,0,3,0,1,,,,,,,,,,,,,,,
,,,,,,,,,,,,5cb7d2f8f0e73600180b9555,2021-09-08_14h18.29.631,forced_choiceRT,2021.1.2,Win32,59.90893841,h,2.0046,4,0,4,0,1,,,,,,,,,,,,,,,
,,,,,,,,,,,,5cb7d2f8f0e73600180b9555,2021-09-08_14h18.29.631,forced_choiceRT,2021.1.2,Win32,59.90893841,f,2.0775,5,0,5,0,1,,,,,,,,,,,,,,,
,,,,,,,,,,,,5cb7d2f8f0e73600180b9555,2021-09-08_14h18.29.631,forced_choiceRT,2021.1.2,Win32,59.90893841,j,1.9616,6,0,6,0,1,,,,,,,,,,,,,,,
,,,,,,,,,,,,5cb7d2f8f0e73600180b9555,2021-09-08_14h18.29.631,forced_choiceRT,2021.1.2,Win32,59.90893841,g,2.0177,7,0,7,0,1,,,,,,,,,,,,,,,
,,,,,,,,,,,,5cb7d2f8f0e73600180b9555,2021-09-08_14h18.29.631,forced_choiceRT,2021.1.2,Win32,59.90893841,j,1.9712,8,0,8,0,1,,,,,,,,,,,,,,,
,,,,,,,,,,,,5cb7d2f8f0e73600180b9555,2021-09-08_14h18.29.631,forced_choiceRT,2021.1.2,Win32,59.90893841,f,2.0603,9,0,9,0,1,,,,,,,,,,,,,,,
,,,,,,,,,,,,5cb7d2f8f0e73600180b9555,2021-09-08_14h18.29.631,forced_choiceRT,2021.1.2,Win32,59.90893841,h,1.8717,10,0,10,0,1,,,,,,,,,,,,,,,
,,,,,,,,,,,,5cb7d2f8f0e73600180b9555,2021-09-08_14h18.29.631,forced_choiceRT,2021.1.2,Win32,59.90893841,h,1.9704,11,0,11,0,1,,,,,,,,,,,,,,,
,,,,,,,,,,,,5cb7d2f8f0e73600180b9555,2021-09-08_14h18.29.631,forced_choiceRT,2021.1.2,Win32,59.90893841,j,1.9783,12,0,12,0,1,,,,,,,,,,,,,,,
,,,,,,,,,,,,5cb7d2f8f0e73600180b9555,2021-09-08_14h18.29.631,forced_choiceRT,2021.1.2,Win32,59.90893841,f,2.0637,13,0,13,0,1,,,,,,,,,,,,,,,
,,,,,,,,,,,,5cb7d2f8f0e73600180b9555,2021-09-08_14h18.29.631,forced_choiceRT,2021.1.2,Win32,59.90893841,g,2.0177,14,0,14,0,1,,,,,,,,,,,,,,,
,,,,,,,,,,,,5cb7d2f8f0e73600180b9555,2021-09-08_14h18.29.631,forced_choiceRT,2021.1.2,Win32,59.90893841,h,1.9925,15,0,15,0,1,,,,,,,,,,,,,,,
,,,,,,,,,,,,5cb7d2f8f0e73600180b9555,2021-09-08_14h18.29.631,forced_choiceRT,2021.1.2,Win32,59.90893841,j,2.0845,16,0,16,0,1,,,,,,,,,,,,,,,
,,,,,,,,,,,,5cb7d2f8f0e73600180b9555,2021-09-08_14h18.29.631,forced_choiceRT,2021.1.2,Win32,59.90893841,g,2.06,17,0,17,0,1,,,,,,,,,,,,,,,
,,,,,,,,,,,,5cb7d2f8f0e73600180b9555,2021-09-08_14h18.29.631,forced_choiceRT,2021.1.2,Win32,59.90893841,h,2.0511,18,0,18,0,1,,,,,,,,,,,,,,,
,,,,,,,,,,,,5cb7d2f8f0e73600180b9555,2021-09-08_14h18.29.631,forced_choiceRT,2021.1.2,Win32,59.90893841,f,2.0677,19,0,19,0,1,,,,,,,,,,,,,,,
,0.21,,,,,,,,,h.PNG,h,5cb7d2f8f0e73600180b9555,2021-09-08_14h18.29.631,forced_choiceRT,2021.1.2,Win32,59.90893841,,,,,,,,1,Slow,h,1,2.1031,0,0,0,2,1,,,,,
,0.07,,,,,,,,,j.PNG,j,5cb7d2f8f0e73600180b9555,2021-09-08_14h18.29.631,forced_choiceRT,2021.1.2,Win32,59.90893841,,,,,,,,1,Ontime,j,1,1.9844,0,1,1,3,1,,,,,
,0.4,,,,,,,,,j.PNG,j,5cb7d2f8f0e73600180b9555,2021-09-08_14h18.29.631,forced_choiceRT,2021.1.2,Win32,59.90893841,,,,,,,,1,Slow,j,1,2.101,0,2,2,3,1,,,,,
,1.16,,,,,,,,,f.PNG,f,5cb7d2f8f0e73600180b9555,2021-09-08_14h18.29.631,forced_choiceRT,2021.1.2,Win32,59.90893841,,,,,,,,1,Ontime,f,1,1.9567,0,3,3,0,1,,,,,
,0.67,,,,,,,,,g.PNG,g,5cb7d2f8f0e73600180b9555,2021-09-08_14h18.29.631,forced_choiceRT,2021.1.2,Win32,59.90893841,,,,,,,,1,Ontime,g,1,1.9152,1,0,4,1,1,,,,,
,0.78,,,,,,,,,f.PNG,f,5cb7d2f8f0e73600180b9555,2021-09-08_14h18.29.631,forced_choiceRT,2021.1.2,Win32,59.90893841,,,,,,,,1,Fast,f,1,1.8607,1,1,5,0,1,,,,,
,1.51,,,,,,,,,h.PNG,h,5cb7d2f8f0e73600180b9555,2021-09-08_14h18.29.631,forced_choiceRT,2021.1.2,Win32,59.90893841,,,,,,,,1,Ontime,h,1,2.0913,1,2,6,2,1,,,,,
,1.96,,,,,,,,,h.PNG,h,5cb7d2f8f0e73600180b9555,2021-09-08_14h18.29.631,forced_choiceRT,2021.1.2,Win32,59.90893841,,,,,,,,1,Ontime,f,0,2.0474,1,3,7,2,1,,,,,
,0.67,,,,,,,,,j.PNG,j,5cb7d2f8f0e73600180b9555,2021-09-08_14h18.29.631,forced_choiceRT,2021.1.2,Win32,59.90893841,,,,,,,,1,Fast,j,1,1.8435,2,0,8,3,1,,,,,
,0.12,,,,,,,,,h.PNG,h,5cb7d2f8f0e73600180b9555,2021-09-08_14h18.29.631,forced_choiceRT,2021.1.2,Win32,59.90893841,,,,,,,,1,Fast,h,1,1.8748,2,1,9,2,1,,,,,
,0.03,,,,,,,,,j.PNG,j,5cb7d2f8f0e73600180b9555,2021-09-08_14h18.29.631,forced_choiceRT,2021.1.2,Win32,59.90893841,,,,,,,,1,Ontime,j,1,1.9705,2,2,10,3,1,,,,,
,0.58,,,,,,,,,j.PNG,j,5cb7d2f8f0e73600180b9555,2021-09-08_14h18.29.631,forced_choiceRT,2021.1.2,Win32,59.90893841,,,,,,,,1,Ontime,j,1,2.0106,2,3,11,3,1,,,,,
,1.82,,,,,,,,,g.PNG,g,5cb7d2f8f0e73600180b9555,2021-09-08_14h18.29.631,forced_choiceRT,2021.1.2,Win32,59.90893841,,,,,,,,1,Slow,g,1,2.2321,3,0,12,1,1,,,,,
,1.89,,,,,,,,,g.PNG,g,5cb7d2f8f0e73600180b9555,2021-09-08_14h18.29.631,forced_choiceRT,2021.1.2,Win32,59.90893841,,,,,,,,1,Slow,g,1,2.2012,3,1,13,1,1,,,,,
,1.7,,,,,,,,,g.PNG,g,5cb7d2f8f0e73600180b9555,2021-09-08_14h18.29.631,forced_choiceRT,2021.1.2,Win32,59.90893841,,,,,,,,1,Ontime,g,1,1.9884,3,2,14,1,1,,,,,
,1.91,,,,,,,,,j.PNG,j,5cb7d2f8f0e73600180b9555,2021-09-08_14h18.29.631,forced_choiceRT,2021.1.2,Win32,59.90893841,,,,,,,,1,Ontime,g,0,2.0784,3,3,15,3,1,,,,,
,1.62,,,,,,,,,f.PNG,f,5cb7d2f8f0e73600180b9555,2021-09-08_14h18.29.631,forced_choiceRT,2021.1.2,Win32,59.90893841,,,,,,,,1,Slow,f,1,2.1583,4,0,16,0,1,,,,,
,0.35,,,,,,,,,f.PNG,f,5cb7d2f8f0e73600180b9555,2021-09-08_14h18.29.631,forced_choiceRT,2021.1.2,Win32,59.90893841,,,,,,,,1,Ontime,f,1,1.951,4,1,17,0,1,,,,,
,1,,,,,,,,,g.PNG,g,5cb7d2f8f0e73600180b9555,2021-09-08_14h18.29.631,forced_choiceRT,2021.1.2,Win32,59.90893841,,,,,,,,1,Ontime,g,1,1.9363,4,2,18,1,1,,,,,
,1.54,,,,,,,,,h.PNG,h,5cb7d2f8f0e73600180b9555,2021-09-08_14h18.29.631,forced_choiceRT,2021.1.2,Win32,59.90893841,,,,,,,,1,Ontime,h,1,1.9514,4,3,19,2,1,,,,,
,0.24,,,,,,,,,f.PNG,f,5cb7d2f8f0e73600180b9555,2021-09-08_14h18.29.631,forced_choiceRT,2021.1.2,Win32,59.90893841,,,,,,,,1,Ontime,f,1,1.964,5,0,20,0,1,,,,,
,1.32,,,,,,,,,f.PNG,f,5cb7d2f8f0e73600180b9555,2021-09-08_14h18.29.631,forced_choiceRT,2021.1.2,Win32,59.90893841,,,,,,,,1,Fast,f,1,1.8784,5,1,21,0,1,,,,,
,0.63,,,,,,,,,h.PNG,h,5cb7d2f8f0e73600180b9555,2021-09-08_14h18.29.631,forced_choiceRT,2021.1.2,Win32,59.90893841,,,,,,,,1,Ontime,g,0,2.0345,5,2,22,2,1,,,,,
,0.88,,,,,,,,,f.PNG,f,5cb7d2f8f0e73600180b9555,2021-09-08_14h18.29.631,forced_choiceRT,2021.1.2,Win32,59.90893841,,,,,,,,1,Ontime,f,1,1.9797,5,3,23,0,1,,,,,
,1.24,,,,,,,,,g.PNG,g,5cb7d2f8f0e73600180b9555,2021-09-08_14h18.29.631,forced_choiceRT,2021.1.2,Win32,59.90893841,,,,,,,,1,Ontime,g,1,2.081,6,0,24,1,1,,,,,
,1.27,,,,,,,,,j.PNG,j,5cb7d2f8f0e73600180b9555,2021-09-08_14h18.29.631,forced_choiceRT,2021.1.2,Win32,59.90893841,,,,,,,,1,Ontime,j,1,1.9344,6,1,25,3,1,,,,,
,1.7,,,,,,,,,j.PNG,j,5cb7d2f8f0e73600180b9555,2021-09-08_14h18.29.631,forced_choiceRT,2021.1.2,Win32,59.90893841,,,,,,,,1,Slow,h,0,2.2049,6,2,26,3,1,,,,,
,1.48,,,,,,,,,g.PNG,g,5cb7d2f8f0e73600180b9555,2021-09-08_14h18.29.631,forced_choiceRT,2021.1.2,Win32,59.90893841,,,,,,,,1,Ontime,g,1,2.0178,6,3,27,1,1,,,,,
,0.32,,,,,,,,,f.PNG,f,5cb7d2f8f0e73600180b9555,2021-09-08_14h18.29.631,forced_choiceRT,2021.1.2,Win32,59.90893841,,,,,,,,1,Fast,f,1,1.8886,7,0,28,0,1,,,,,
,1.44,,,,,,,,,g.PNG,g,5cb7d2f8f0e73600180b9555,2021-09-08_14h18.29.631,forced_choiceRT,2021.1.2,Win32,59.90893841,,,,,,,,1,Ontime,g,1,2.0122,7,1,29,1,1,,,,,
,0.41,,,,,,,,,j.PNG,j,5cb7d2f8f0e73600180b9555,2021-09-08_14h18.29.631,forced_choiceRT,2021.1.2,Win32,59.90893841,,,,,,,,1,Ontime,j,1,1.9724,7,2,30,3,1,,,,,
,0.67,,,,,,,,,h.PNG,h,5cb7d2f8f0e73600180b9555,2021-09-08_14h18.29.631,forced_choiceRT,2021.1.2,Win32,59.90893841,,,,,,,,1,Fast,h,1,1.8859,7,3,31,2,1,,,,,
,0.33,,,,,,,,,g.PNG,g,5cb7d2f8f0e73600180b9555,2021-09-08_14h18.29.631,forced_choiceRT,2021.1.2,Win32,59.90893841,,,,,,,,1,Ontime,g,1,2.0512,8,0,32,1,1,,,,,
,0.19,,,,,,,,,h.PNG,h,5cb7d2f8f0e73600180b9555,2021-09-08_14h18.29.631,forced_choiceRT,2021.1.2,Win32,59.90893841,,,,,,,,1,Ontime,h,1,1.9387,8,1,33,2,1,,,,,
,0.43,,,,,,,,,j.PNG,j,5cb7d2f8f0e73600180b9555,2021-09-08_14h18.29.631,forced_choiceRT,2021.1.2,Win32,59.90893841,,,,,,,,1,Ontime,j,1,2.0618,8,2,34,3,1,,,,,
,1.67,,,,,,,,,h.PNG,h,5cb7d2f8f0e73600180b9555,2021-09-08_14h18.29.631,forced_choiceRT,2021.1.2,Win32,59.90893841,,,,,,,,1,Slow,g,0,2.1677,8,3,35,2,1,,,,,
,0.73,,,,,,,,,h.PNG,h,5cb7d2f8f0e73600180b9555,2021-09-08_14h18.29.631,forced_choiceRT,2021.1.2,Win32,59.90893841,,,,,,,,1,Ontime,h,1,1.9627,9,0,36,2,1,,,,,
,0.97,,,,,,,,,f.PNG,f,5cb7d2f8f0e73600180b9555,2021-09-08_14h18.29.631,forced_choiceRT,2021.1.2,Win32,59.90893841,,,,,,,,1,Ontime,f,1,2.0214,9,1,37,0,1,,,,,
,1.99,,,,,,,,,g.PNG,g,5cb7d2f8f0e73600180b9555,2021-09-08_14h18.29.631,forced_choiceRT,2021.1.2,Win32,59.90893841,,,,,,,,1,Slow,f,0,2.2183,9,2,38,1,1,,,,,
,0.56,,,,,,,,,f.PNG,f,5cb7d2f8f0e73600180b9555,2021-09-08_14h18.29.631,forced_choiceRT,2021.1.2,Win32,59.90893841,,,,,,,,1,Ontime,f,1,2.0548,9,3,39,0,1,,,,,
,,,,,,,,,,,,5cb7d2f8f0e73600180b9555,2021-09-08_14h18.29.631,forced_choiceRT,2021.1.2,Win32,59.90893841,,,,,,,,,,,,,,,,,,0,0,0,0,1
,0.94,,,,,,,,,h.PNG,h,5cb7d2f8f0e73600180b9555,2021-09-08_14h18.29.631,forced_choiceRT,2021.1.2,Win32,59.90893841,,,,,,,,2,Ontime,h,1,2.0509,0,0,0,2,1,,,,,
,0.61,,,,,,,,,j.PNG,j,5cb7d2f8f0e73600180b9555,2021-09-08_14h18.29.631,forced_choiceRT,2021.1.2,Win32,59.90893841,,,,,,,,2,Ontime,j,1,1.985,0,1,1,3,1,,,,,
,1.46,,,,,,,,,j.PNG,j,5cb7d2f8f0e73600180b9555,2021-09-08_14h18.29.631,forced_choiceRT,2021.1.2,Win32,59.90893841,,,,,,,,2,Slow,j,1,2.1012,0,2,2,3,1,,,,,
,0.38,,,,,,,,,h.PNG,h,5cb7d2f8f0e73600180b9555,2021-09-08_14h18.29.631,forced_choiceRT,2021.1.2,Win32,59.90893841,,,,,,,,2,Ontime,h,1,1.9769,0,3,3,2,1,,,,,
,1.89,,,,,,,,,g.PNG,g,5cb7d2f8f0e73600180b9555,2021-09-08_14h18.29.631,forced_choiceRT,2021.1.2,Win32,59.90893841,,,,,,,,2,Slow,g,1,2.1024,1,0,4,1,1,,,,,
,0.9,,,,,,,,,j.PNG,j,5cb7d2f8f0e73600180b9555,2021-09-08_14h18.29.631,forced_choiceRT,2021.1.2,Win32,59.90893841,,,,,,,,2,Fast,j,1,1.8568,1,1,5,3,1,,,,,
,0.42,,,,,,,,,j.PNG,j,5cb7d2f8f0e73600180b9555,2021-09-08_14h18.29.631,forced_choiceRT,2021.1.2,Win32,59.90893841,,,,,,,,2,Ontime,j,1,2.0142,1,2,6,3,1,,,,,
,0.55,,,,,,,,,j.PNG,j,5cb7d2f8f0e73600180b9555,2021-09-08_14h18.29.631,forced_choiceRT,2021.1.2,Win32,59.90893841,,,,,,,,2,Ontime,j,1,2.0011,1,3,7,3,1,,,,,
,0.09,,,,,,,,,g.PNG,g,5cb7d2f8f0e73600180b9555,2021-09-08_14h18.29.631,forced_choiceRT,2021.1.2,Win32,59.90893841,,,,,,,,2,Ontime,g,1,2.043,2,0,8,1,1,,,,,
,1.31,,,,,,,,,j.PNG,j,5cb7d2f8f0e73600180b9555,2021-09-08_14h18.29.631,forced_choiceRT,2021.1.2,Win32,59.90893841,,,,,,,,2,Ontime,j,1,2.001,2,1,9,3,1,,,,,
,1.19,,,,,,,,,g.PNG,g,5cb7d2f8f0e73600180b9555,2021-09-08_14h18.29.631,forced_choiceRT,2021.1.2,Win32,59.90893841,,,,,,,,2,Ontime,g,1,2.0679,2,2,10,1,1,,,,,
,0.3,,,,,,,,,f.PNG,f,5cb7d2f8f0e73600180b9555,2021-09-08_14h18.29.631,forced_choiceRT,2021.1.2,Win32,59.90893841,,,,,,,,2,Ontime,f,1,2.0285,2,3,11,0,1,,,,,
,1.99,,,,,,,,,h.PNG,h,5cb7d2f8f0e73600180b9555,2021-09-08_14h18.29.631,forced_choiceRT,2021.1.2,Win32,59.90893841,,,,,,,,2,Slow,h,1,2.1593,3,0,12,2,1,,,,,
,0.47,,,,,,,,,j.PNG,j,5cb7d2f8f0e73600180b9555,2021-09-08_14h18.29.631,forced_choiceRT,2021.1.2,Win32,59.90893841,,,,,,,,2,Ontime,j,1,1.9962,3,1,13,3,1,,,,,
,1.19,,,,,,,,,g.PNG,g,5cb7d2f8f0e73600180b9555,2021-09-08_14h18.29.631,forced_choiceRT,2021.1.2,Win32,59.90893841,,,,,,,,2,Ontime,g,1,2.0279,3,2,14,1,1,,,,,
,0.74,,,,,,,,,g.PNG,g,5cb7d2f8f0e73600180b9555,2021-09-08_14h18.29.631,forced_choiceRT,2021.1.2,Win32,59.90893841,,,,,,,,2,Ontime,g,1,2.001,3,3,15,1,1,,,,,
,0.72,,,,,,,,,h.PNG,h,5cb7d2f8f0e73600180b9555,2021-09-08_14h18.29.631,forced_choiceRT,2021.1.2,Win32,59.90893841,,,,,,,,2,Ontime,h,1,2.0519,4,0,16,2,1,,,,,
,0.22,,,,,,,,,f.PNG,f,5cb7d2f8f0e73600180b9555,2021-09-08_14h18.29.631,forced_choiceRT,2021.1.2,Win32,59.90893841,,,,,,,,2,Ontime,f,1,2.0805,4,1,17,0,1,,,,,
,1.09,,,,,,,,,g.PNG,g,5cb7d2f8f0e73600180b9555,2021-09-08_14h18.29.631,forced_choiceRT,2021.1.2,Win32,59.90893841,,,,,,,,2,Ontime,g,1,2.0346,4,2,18,1,1,,,,,
,0.39,,,,,,,,,j.PNG,j,5cb7d2f8f0e73600180b9555,2021-09-08_14h18.29.631,forced_choiceRT,2021.1.2,Win32,59.90893841,,,,,,,,2,Ontime,j,1,1.9392,4,3,19,3,1,,,,,
,1.25,,,,,,,,,h.PNG,h,5cb7d2f8f0e73600180b9555,2021-09-08_14h18.29.631,forced_choiceRT,2021.1.2,Win32,59.90893841,,,,,,,,2,Ontime,h,1,1.951,5,0,20,2,1,,,,,
,1.61,,,,,,,,,h.PNG,h,5cb7d2f8f0e73600180b9555,2021-09-08_14h18.29.631,forced_choiceRT,2021.1.2,Win32,59.90893841,,,,,,,,2,Ontime,g,0,2.0183,5,1,21,2,1,,,,,
,0.26,,,,,,,,,j.PNG,j,5cb7d2f8f0e73600180b9555,2021-09-08_14h18.29.631,forced_choiceRT,2021.1.2,Win32,59.90893841,,,,,,,,2,Ontime,j,1,2.0179,5,2,22,3,1,,,,,
,1.49,,,,,,,,,g.PNG,g,5cb7d2f8f0e73600180b9555,2021-09-08_14h18.29.631,forced_choiceRT,2021.1.2,Win32,59.90893841,,,,,,,,2,Ontime,f,0,1.9259,5,3,23,1,1,,,,,
,0.71,,,,,,,,,h.PNG,h,5cb7d2f8f0e73600180b9555,2021-09-08_14h18.29.631,forced_choiceRT,2021.1.2,Win32,59.90893841,,,,,,,,2,Ontime,h,1,2.0127,6,0,24,2,1,,,,,
,0.57,,,,,,,,,f.PNG,f,5cb7d2f8f0e73600180b9555,2021-09-08_14h18.29.631,forced_choiceRT,2021.1.2,Win32,59.90893841,,,,,,,,2,Ontime,f,1,2.0512,6,1,25,0,1,,,,,
,1.9,,,,,,,,,f.PNG,f,5cb7d2f8f0e73600180b9555,2021-09-08_14h18.29.631,forced_choiceRT,2021.1.2,Win32,59.90893841,,,,,,,,2,Ontime,j,0,1.9917,6,2,26,0,1,,,,,
,1.4,,,,,,,,,h.PNG,h,5cb7d2f8f0e73600180b9555,2021-09-08_14h18.29.631,forced_choiceRT,2021.1.2,Win32,59.90893841,,,,,,,,2,Ontime,g,0,2.0417,6,3,27,2,1,,,,,
,0.78,,,,,,,,,f.PNG,f,5cb7d2f8f0e73600180b9555,2021-09-08_14h18.29.631,forced_choiceRT,2021.1.2,Win32,59.90893841,,,,,,,,2,Ontime,f,1,2.0346,7,0,28,0,1,,,,,
,1.2,,,,,,,,,g.PNG,g,5cb7d2f8f0e73600180b9555,2021-09-08_14h18.29.631,forced_choiceRT,2021.1.2,Win32,59.90893841,,,,,,,,2,Slow,g,1,2.1341,7,1,29,1,1,,,,,
,0.64,,,,,,,,,h.PNG,h,5cb7d2f8f0e73600180b9555,2021-09-08_14h18.29.631,forced_choiceRT,2021.1.2,Win32,59.90893841,,,,,,,,2,Ontime,h,1,2.0271,7,2,30,2,1,,,,,
,0.77,,,,,,,,,f.PNG,f,5cb7d2f8f0e73600180b9555,2021-09-08_14h18.29.631,forced_choiceRT,2021.1.2,Win32,59.90893841,,,,,,,,2,Slow,f,1,2.1297,7,3,31,0,1,,,,,
,0.63,,,,,,,,,g.PNG,g,5cb7d2f8f0e73600180b9555,2021-09-08_14h18.29.631,forced_choiceRT,2021.1.2,Win32,59.90893841,,,,,,,,2,Ontime,g,1,1.9173,8,0,32,1,1,,,,,
,1.83,,,,,,,,,f.PNG,f,5cb7d2f8f0e73600180b9555,2021-09-08_14h18.29.631,forced_choiceRT,2021.1.2,Win32,59.90893841,,,,,,,,2,Ontime,h,0,2.0177,8,1,33,0,1,,,,,
,0.39,,,,,,,,,g.PNG,g,5cb7d2f8f0e73600180b9555,2021-09-08_14h18.29.631,forced_choiceRT,2021.1.2,Win32,59.90893841,,,,,,,,2,Ontime,g,1,1.9011,8,2,34,1,1,,,,,
,0.43,,,,,,,,,j.PNG,j,5cb7d2f8f0e73600180b9555,2021-09-08_14h18.29.631,forced_choiceRT,2021.1.2,Win32,59.90893841,,,,,,,,2,Ontime,j,1,1.9998,8,3,35,3,1,,,,,
,0.33,,,,,,,,,f.PNG,f,5cb7d2f8f0e73600180b9555,2021-09-08_14h18.29.631,forced_choiceRT,2021.1.2,Win32,59.90893841,,,,,,,,2,Ontime,f,1,2.0552,9,0,36,0,1,,,,,
,1.5,,,,,,,,,h.PNG,h,5cb7d2f8f0e73600180b9555,2021-09-08_14h18.29.631,forced_choiceRT,2021.1.2,Win32,59.90893841,,,,,,,,2,Ontime,g,0,2.0314,9,1,37,2,1,,,,,
,0.91,,,,,,,,,f.PNG,f,5cb7d2f8f0e73600180b9555,2021-09-08_14h18.29.631,forced_choiceRT,2021.1.2,Win32,59.90893841,,,,,,,,2,Ontime,f,1,1.9479,9,2,38,0,1,,,,,
,0.03,,,,,,,,,f.PNG,f,5cb7d2f8f0e73600180b9555,2021-09-08_14h18.29.631,forced_choiceRT,2021.1.2,Win32,59.90893841,,,,,,,,2,Ontime,f,1,2.0754,9,3,39,0,1,,,,,
,,,,,,,,,,,,5cb7d2f8f0e73600180b9555,2021-09-08_14h18.29.631,forced_choiceRT,2021.1.2,Win32,59.90893841,,,,,,,,,,,,,,,,,,1,0,1,0,1
,1.22,,,,,,,,,j.PNG,j,5cb7d2f8f0e73600180b9555,2021-09-08_14h18.29.631,forced_choiceRT,2021.1.2,Win32,59.90893841,,,,,,,,3,Slow,j,1,2.1344,0,0,0,3,1,,,,,
,0.66,,,,,,,,,f.PNG,f,5cb7d2f8f0e73600180b9555,2021-09-08_14h18.29.631,forced_choiceRT,2021.1.2,Win32,59.90893841,,,,,,,,3,Ontime,f,1,2.0486,0,1,1,0,1,,,,,
,0.84,,,,,,,,,f.PNG,f,5cb7d2f8f0e73600180b9555,2021-09-08_14h18.29.631,forced_choiceRT,2021.1.2,Win32,59.90893841,,,,,,,,3,Ontime,f,1,1.9844,0,2,2,0,1,,,,,
,1.96,,,,,,,,,f.PNG,f,5cb7d2f8f0e73600180b9555,2021-09-08_14h18.29.631,forced_choiceRT,2021.1.2,Win32,59.90893841,,,,,,,,3,Ontime,j,0,2.0262,0,3,3,0,1,,,,,
,1.44,,,,,,,,,g.PNG,g,5cb7d2f8f0e73600180b9555,2021-09-08_14h18.29.631,forced_choiceRT,2021.1.2,Win32,59.90893841,,,,,,,,3,Ontime,g,1,2.0819,1,0,4,1,1,,,,,
,0.41,,,,,,,,,g.PNG,g,5cb7d2f8f0e73600180b9555,2021-09-08_14h18.29.631,forced_choiceRT,2021.1.2,Win32,59.90893841,,,,,,,,3,Ontime,g,1,2.018,1,1,5,1,1,,,,,
,0.01,,,,,,,,,h.PNG,h,5cb7d2f8f0e73600180b9555,2021-09-08_14h18.29.631,forced_choiceRT,2021.1.2,Win32,59.90893841,,,,,,,,3,Ontime,h,1,2.0011,1,2,6,2,1,,,,,
,1.77,,,,,,,,,h.PNG,h,5cb7d2f8f0e73600180b9555,2021-09-08_14h18.29.631,forced_choiceRT,2021.1.2,Win32,59.90893841,,,,,,,,3,Ontime,j,0,2.0297,1,3,7,2,1,,,,,
,1.84,,,,,,,,,f.PNG,f,5cb7d2f8f0e73600180b9555,2021-09-08_14h18.29.631,forced_choiceRT,2021.1.2,Win32,59.90893841,,,,,,,,3,Ontime,j,0,2.0509,2,0,8,0,1,,,,,
,1.17,,,,,,,,,g.PNG,g,5cb7d2f8f0e73600180b9555,2021-09-08_14h18.29.631,forced_choiceRT,2021.1.2,Win32,59.90893841,,,,,,,,3,Slow,g,1,2.1031,2,1,9,1,1,,,,,
,1.02,,,,,,,,,j.PNG,j,5cb7d2f8f0e73600180b9555,2021-09-08_14h18.29.631,forced_choiceRT,2021.1.2,Win32,59.90893841,,,,,,,,3,Ontime,j,1,1.9566,2,2,10,3,1,,,,,
,0.59,,,,,,,,,h.PNG,h,5cb7d2f8f0e73600180b9555,2021-09-08_14h18.29.631,forced_choiceRT,2021.1.2,Win32,59.90893841,,,,,,,,3,Fast,h,1,1.8291,2,3,11,2,1,,,,,
,1.24,,,,,,,,,g.PNG,g,5cb7d2f8f0e73600180b9555,2021-09-08_14h18.29.631,forced_choiceRT,2021.1.2,Win32,59.90893841,,,,,,,,3,Ontime,g,1,2.0344,3,0,12,1,1,,,,,
,0.04,,,,,,,,,f.PNG,f,5cb7d2f8f0e73600180b9555,2021-09-08_14h18.29.631,forced_choiceRT,2021.1.2,Win32,59.90893841,,,,,,,,3,Ontime,f,1,2.035,3,1,13,0,1,,,,,
,1.17,,,,,,,,,f.PNG,f,5cb7d2f8f0e73600180b9555,2021-09-08_14h18.29.631,forced_choiceRT,2021.1.2,Win32,59.90893841,,,,,,,,3,Ontime,g,0,1.9022,3,2,14,0,1,,,,,
,0.12,,,,,,,,,g.PNG,g,5cb7d2f8f0e73600180b9555,2021-09-08_14h18.29.631,forced_choiceRT,2021.1.2,Win32,59.90893841,,,,,,,,3,Ontime,g,1,2.0058,3,3,15,1,1,,,,,
,1.94,,,,,,,,,h.PNG,h,5cb7d2f8f0e73600180b9555,2021-09-08_14h18.29.631,forced_choiceRT,2021.1.2,Win32,59.90893841,,,,,,,,3,Ontime,h,1,2.0242,4,0,16,2,1,,,,,
,0.22,,,,,,,,,j.PNG,j,5cb7d2f8f0e73600180b9555,2021-09-08_14h18.29.631,forced_choiceRT,2021.1.2,Win32,59.90893841,,,,,,,,3,Ontime,j,1,1.973,4,1,17,3,1,,,,,
,1.42,,,,,,,,,h.PNG,h,5cb7d2f8f0e73600180b9555,2021-09-08_14h18.29.631,forced_choiceRT,2021.1.2,Win32,59.90893841,,,,,,,,3,Ontime,g,0,1.941,4,2,18,2,1,,,,,
,1.5,,,,,,,,,g.PNG,g,5cb7d2f8f0e73600180b9555,2021-09-08_14h18.29.631,forced_choiceRT,2021.1.2,Win32,59.90893841,,,,,,,,3,Ontime,g,1,2.0452,4,3,19,1,1,,,,,
,0.28,,,,,,,,,f.PNG,f,5cb7d2f8f0e73600180b9555,2021-09-08_14h18.29.631,forced_choiceRT,2021.1.2,Win32,59.90893841,,,,,,,,3,Ontime,f,1,1.9874,5,0,20,0,1,,,,,
,1.83,,,,,,,,,h.PNG,h,5cb7d2f8f0e73600180b9555,2021-09-08_14h18.29.631,forced_choiceRT,2021.1.2,Win32,59.90893841,,,,,,,,3,Slow,f,0,2.1275,5,1,21,2,1,,,,,
,1.56,,,,,,,,,h.PNG,h,5cb7d2f8f0e73600180b9555,2021-09-08_14h18.29.631,forced_choiceRT,2021.1.2,Win32,59.90893841,,,,,,,,3,Ontime,h,1,2.0011,5,2,22,2,1,,,,,
,0.91,,,,,,,,,j.PNG,j,5cb7d2f8f0e73600180b9555,2021-09-08_14h18.29.631,forced_choiceRT,2021.1.2,Win32,59.90893841,,,,,,,,3,Ontime,j,1,2.0056,5,3,23,3,1,,,,,
,0.44,,,,,,,,,j.PNG,j,5cb7d2f8f0e73600180b9555,2021-09-08_14h18.29.631,forced_choiceRT,2021.1.2,Win32,59.90893841,,,,,,,,3,Ontime,j,1,1.9973,6,0,24,3,1,,,,,
,1.23,,,,,,,,,f.PNG,f,5cb7d2f8f0e73600180b9555,2021-09-08_14h18.29.631,forced_choiceRT,2021.1.2,Win32,59.90893841,,,,,,,,3,Ontime,f,1,2.0343,6,1,25,0,1,,,,,
,1.41,,,,,,,,,g.PNG,g,5cb7d2f8f0e73600180b9555,2021-09-08_14h18.29.631,forced_choiceRT,2021.1.2,Win32,59.90893841,,,,,,,,3,Ontime,g,1,2.0847,6,2,26,1,1,,,,,
,1.39,,,,,,,,,f.PNG,f,5cb7d2f8f0e73600180b9555,2021-09-08_14h18.29.631,forced_choiceRT,2021.1.2,Win32,59.90893841,,,,,,,,3,Ontime,f,1,2.087,6,3,27,0,1,,,,,
,1.25,,,,,,,,,j.PNG,j,5cb7d2f8f0e73600180b9555,2021-09-08_14h18.29.631,forced_choiceRT,2021.1.2,Win32,59.90893841,,,,,,,,3,Ontime,j,1,1.9262,7,0,28,3,1,,,,,
,0.28,,,,,,,,,g.PNG,g,5cb7d2f8f0e73600180b9555,2021-09-08_14h18.29.631,forced_choiceRT,2021.1.2,Win32,59.90893841,,,,,,,,3,Ontime,g,1,2.0363,7,1,29,1,1,,,,,
,1.54,,,,,,,,,f.PNG,f,5cb7d2f8f0e73600180b9555,2021-09-08_14h18.29.631,forced_choiceRT,2021.1.2,Win32,59.90893841,,,,,,,,3,Slow,g,0,2.1025,7,2,30,0,1,,,,,
,1.1,,,,,,,,,j.PNG,j,5cb7d2f8f0e73600180b9555,2021-09-08_14h18.29.631,forced_choiceRT,2021.1.2,Win32,59.90893841,,,,,,,,3,Ontime,j,1,2.0598,7,3,31,3,1,,,,,
,0.96,,,,,,,,,j.PNG,j,5cb7d2f8f0e73600180b9555,2021-09-08_14h18.29.631,forced_choiceRT,2021.1.2,Win32,59.90893841,,,,,,,,3,Ontime,j,1,2.0193,8,0,32,3,1,,,,,
,1.98,,,,,,,,,h.PNG,h,5cb7d2f8f0e73600180b9555,2021-09-08_14h18.29.631,forced_choiceRT,2021.1.2,Win32,59.90893841,,,,,,,,3,Slow,j,0,2.17,8,1,33,2,1,,,,,
,0.84,,,,,,,,,h.PNG,h,5cb7d2f8f0e73600180b9555,2021-09-08_14h18.29.631,forced_choiceRT,2021.1.2,Win32,59.90893841,,,,,,,,3,Fast,h,1,1.8858,8,2,34,2,1,,,,,
,0.94,,,,,,,,,g.PNG,g,5cb7d2f8f0e73600180b9555,2021-09-08_14h18.29.631,forced_choiceRT,2021.1.2,Win32,59.90893841,,,,,,,,3,Ontime,g,1,1.9652,8,3,35,1,1,,,,,
,1.38,,,,,,,,,h.PNG,h,5cb7d2f8f0e73600180b9555,2021-09-08_14h18.29.631,forced_choiceRT,2021.1.2,Win32,59.90893841,,,,,,,,3,Ontime,h,1,2.0011,9,0,36,2,1,,,,,
,0.21,,,,,,,,,g.PNG,g,5cb7d2f8f0e73600180b9555,2021-09-08_14h18.29.631,forced_choiceRT,2021.1.2,Win32,59.90893841,,,,,,,,3,Ontime,g,1,2.0237,9,1,37,1,1,,,,,
,1.54,,,,,,,,,j.PNG,j,5cb7d2f8f0e73600180b9555,2021-09-08_14h18.29.631,forced_choiceRT,2021.1.2,Win32,59.90893841,,,,,,,,3,Slow,j,1,2.1132,9,2,38,3,1,,,,,
,0.24,,,,,,,,,j.PNG,j,5cb7d2f8f0e73600180b9555,2021-09-08_14h18.29.631,forced_choiceRT,2021.1.2,Win32,59.90893841,,,,,,,,3,Ontime,j,1,1.9844,9,3,39,3,1,,,,,
,,,,,,,,,,,,5cb7d2f8f0e73600180b9555,2021-09-08_14h18.29.631,forced_choiceRT,2021.1.2,Win32,59.90893841,,,,,,,,,,,,,,,,,,2,0,2,0,1
,1.61,,,,,,,,,f.PNG,f,5cb7d2f8f0e73600180b9555,2021-09-08_14h18.29.631,forced_choiceRT,2021.1.2,Win32,59.90893841,,,,,,,,4,Slow,f,1,2.1603,0,0,0,0,1,,,,,
,0.19,,,,,,,,,f.PNG,f,5cb7d2f8f0e73600180b9555,2021-09-08_14h18.29.631,forced_choiceRT,2021.1.2,Win32,59.90893841,,,,,,,,4,Ontime,f,1,1.987,0,1,1,0,1,,,,,
,1.32,,,,,,,,,g.PNG,g,5cb7d2f8f0e73600180b9555,2021-09-08_14h18.29.631,forced_choiceRT,2021.1.2,Win32,59.90893841,,,,,,,,4,Ontime,g,1,2.0177,0,2,2,1,1,,,,,
,1.87,,,,,,,,,h.PNG,h,5cb7d2f8f0e73600180b9555,2021-09-08_14h18.29.631,forced_choiceRT,2021.1.2,Win32,59.90893841,,,,,,,,4,Slow,h,1,2.3526,0,3,3,2,1,,,,,
,1.91,,,,,,,,,g.PNG,g,5cb7d2f8f0e73600180b9555,2021-09-08_14h18.29.631,forced_choiceRT,2021.1.2,Win32,59.90893841,,,,,,,,4,Ontime,j,0,2.0411,1,0,4,1,1,,,,,
,1.19,,,,,,,,,g.PNG,g,5cb7d2f8f0e73600180b9555,2021-09-08_14h18.29.631,forced_choiceRT,2021.1.2,Win32,59.90893841,,,,,,,,4,Ontime,g,1,2.0514,1,1,5,1,1,,,,,
,0.3,,,,,,,,,g.PNG,g,5cb7d2f8f0e73600180b9555,2021-09-08_14h18.29.631,forced_choiceRT,2021.1.2,Win32,59.90893841,,,,,,,,4,Ontime,g,1,2.0396,1,2,6,1,1,,,,,
,1.22,,,,,,,,,g.PNG,g,5cb7d2f8f0e73600180b9555,2021-09-08_14h18.29.631,forced_choiceRT,2021.1.2,Win32,59.90893841,,,,,,,,4,Ontime,g,1,1.9259,1,3,7,1,1,,,,,
,1.24,,,,,,,,,h.PNG,h,5cb7d2f8f0e73600180b9555,2021-09-08_14h18.29.631,forced_choiceRT,2021.1.2,Win32,59.90893841,,,,,,,,4,Ontime,j,0,1.9419,2,0,8,2,1,,,,,
,1.42,,,,,,,,,g.PNG,g,5cb7d2f8f0e73600180b9555,2021-09-08_14h18.29.631,forced_choiceRT,2021.1.2,Win32,59.90893841,,,,,,,,4,Ontime,g,1,2.0969,2,1,9,1,1,,,,,
,0.68,,,,,,,,,f.PNG,f,5cb7d2f8f0e73600180b9555,2021-09-08_14h18.29.631,forced_choiceRT,2021.1.2,Win32,59.90893841,,,,,,,,4,Ontime,f,1,2.092,2,2,10,0,1,,,,,
,1.49,,,,,,,,,j.PNG,j,5cb7d2f8f0e73600180b9555,2021-09-08_14h18.29.631,forced_choiceRT,2021.1.2,Win32,59.90893841,,,,,,,,4,Ontime,h,0,1.9073,2,3,11,3,1,,,,,
,0.9,,,,,,,,,g.PNG,g,5cb7d2f8f0e73600180b9555,2021-09-08_14h18.29.631,forced_choiceRT,2021.1.2,Win32,59.90893841,,,,,,,,4,Ontime,g,1,2.0547,3,0,12,1,1,,,,,
,1.39,,,,,,,,,h.PNG,h,5cb7d2f8f0e73600180b9555,2021-09-08_14h18.29.631,forced_choiceRT,2021.1.2,Win32,59.90893841,,,,,,,,4,Fast,h,1,1.8844,3,1,13,2,1,,,,,
,1.17,,,,,,,,,j.PNG,j,5cb7d2f8f0e73600180b9555,2021-09-08_14h18.29.631,forced_choiceRT,2021.1.2,Win32,59.90893841,,,,,,,,4,Ontime,j,1,1.9752,3,2,14,3,1,,,,,
,0.94,,,,,,,,,h.PNG,h,5cb7d2f8f0e73600180b9555,2021-09-08_14h18.29.631,forced_choiceRT,2021.1.2,Win32,59.90893841,,,,,,,,4,Ontime,h,1,1.9729,3,3,15,2,1,,,,,
,1.59,,,,,,,,,f.PNG,f,5cb7d2f8f0e73600180b9555,2021-09-08_14h18.29.631,forced_choiceRT,2021.1.2,Win32,59.90893841,,,,,,,,4,Slow,g,0,2.1436,4,0,16,0,1,,,,,
,0.38,,,,,,,,,f.PNG,f,5cb7d2f8f0e73600180b9555,2021-09-08_14h18.29.631,forced_choiceRT,2021.1.2,Win32,59.90893841,,,,,,,,4,Ontime,f,1,2.0211,4,1,17,0,1,,,,,
,1.51,,,,,,,,,f.PNG,f,5cb7d2f8f0e73600180b9555,2021-09-08_14h18.29.631,forced_choiceRT,2021.1.2,Win32,59.90893841,,,,,,,,4,Fast,f,1,1.8801,4,2,18,0,1,,,,,
,1.39,,,,,,,,,g.PNG,g,5cb7d2f8f0e73600180b9555,2021-09-08_14h18.29.631,forced_choiceRT,2021.1.2,Win32,59.90893841,,,,,,,,4,Ontime,g,1,2.0845,4,3,19,1,1,,,,,
,1.18,,,,,,,,,j.PNG,j,5cb7d2f8f0e73600180b9555,2021-09-08_14h18.29.631,forced_choiceRT,2021.1.2,Win32,59.90893841,,,,,,,,4,Ontime,j,1,2.0315,5,0,20,3,1,,,,,
,0.52,,,,,,,,,f.PNG,f,5cb7d2f8f0e73600180b9555,2021-09-08_14h18.29.631,forced_choiceRT,2021.1.2,Win32,59.90893841,,,,,,,,4,Ontime,f,1,1.9845,5,1,21,0,1,,,,,
,0.12,,,,,,,,,j.PNG,j,5cb7d2f8f0e73600180b9555,2021-09-08_14h18.29.631,forced_choiceRT,2021.1.2,Win32,59.90893841,,,,,,,,4,Ontime,j,1,2.0461,5,2,22,3,1,,,,,
,1.02,,,,,,,,,f.PNG,f,5cb7d2f8f0e73600180b9555,2021-09-08_14h18.29.631,forced_choiceRT,2021.1.2,Win32,59.90893841,,,,,,,,4,Ontime,f,1,2.0265,5,3,23,0,1,,,,,
,1.27,,,,,,,,,h.PNG,h,5cb7d2f8f0e73600180b9555,2021-09-08_14h18.29.631,forced_choiceRT,2021.1.2,Win32,59.90893841,,,,,,,,4,Ontime,h,1,2.0722,6,0,24,2,1,,,,,
,1.74,,,,,,,,,j.PNG,j,5cb7d2f8f0e73600180b9555,2021-09-08_14h18.29.631,forced_choiceRT,2021.1.2,Win32,59.90893841,,,,,,,,4,Slow,f,0,2.1012,6,1,25,3,1,,,,,
,1.05,,,,,,,,,h.PNG,h,5cb7d2f8f0e73600180b9555,2021-09-08_14h18.29.631,forced_choiceRT,2021.1.2,Win32,59.90893841,,,,,,,,4,Ontime,h,1,1.989,6,2,26,2,1,,,,,
,1.56,,,,,,,,,h.PNG,h,5cb7d2f8f0e73600180b9555,2021-09-08_14h18.29.631,forced_choiceRT,2021.1.2,Win32,59.90893841,,,,,,,,4,Ontime,h,1,2.0544,6,3,27,2,1,,,,,
,0.82,,,,,,,,,h.PNG,h,5cb7d2f8f0e73600180b9555,2021-09-08_14h18.29.631,forced_choiceRT,2021.1.2,Win32,59.90893841,,,,,,,,4,Ontime,h,1,1.9844,7,0,28,2,1,,,,,
,0.19,,,,,,,,,j.PNG,j,5cb7d2f8f0e73600180b9555,2021-09-08_14h18.29.631,forced_choiceRT,2021.1.2,Win32,59.90893841,,,,,,,,4,Ontime,j,1,1.9551,7,1,29,3,1,,,,,
,1.45,,,,,,,,,f.PNG,f,5cb7d2f8f0e73600180b9555,2021-09-08_14h18.29.631,forced_choiceRT,2021.1.2,Win32,59.90893841,,,,,,,,4,Ontime,f,1,2.0584,7,2,30,0,1,,,,,
,0.61,,,,,,,,,j.PNG,j,5cb7d2f8f0e73600180b9555,2021-09-08_14h18.29.631,forced_choiceRT,2021.1.2,Win32,59.90893841,,,,,,,,4,Ontime,j,1,2.0199,7,3,31,3,1,,,,,
,0.41,,,,,,,,,h.PNG,h,5cb7d2f8f0e73600180b9555,2021-09-08_14h18.29.631,forced_choiceRT,2021.1.2,Win32,59.90893841,,,,,,,,4,Ontime,h,1,2.065,8,0,32,2,1,,,,,
,1.29,,,,,,,,,f.PNG,f,5cb7d2f8f0e73600180b9555,2021-09-08_14h18.29.631,forced_choiceRT,2021.1.2,Win32,59.90893841,,,,,,,,4,Ontime,f,1,2.0463,8,1,33,0,1,,,,,
,1.16,,,,,,,,,j.PNG,j,5cb7d2f8f0e73600180b9555,2021-09-08_14h18.29.631,forced_choiceRT,2021.1.2,Win32,59.90893841,,,,,,,,4,Slow,j,1,2.1075,8,2,34,3,1,,,,,
,1.89,,,,,,,,,j.PNG,j,5cb7d2f8f0e73600180b9555,2021-09-08_14h18.29.631,forced_choiceRT,2021.1.2,Win32,59.90893841,,,,,,,,4,Slow,j,1,2.1011,8,3,35,3,1,,,,,
,0.32,,,,,,,,,g.PNG,g,5cb7d2f8f0e73600180b9555,2021-09-08_14h18.29.631,forced_choiceRT,2021.1.2,Win32,59.90893841,,,,,,,,4,Ontime,g,1,2.0752,9,0,36,1,1,,,,,
,0.39,,,,,,,,,g.PNG,g,5cb7d2f8f0e73600180b9555,2021-09-08_14h18.29.631,forced_choiceRT,2021.1.2,Win32,59.90893841,,,,,,,,4,Ontime,g,1,2.0297,9,1,37,1,1,,,,,
,1.45,,,,,,,,,h.PNG,h,5cb7d2f8f0e73600180b9555,2021-09-08_14h18.29.631,forced_choiceRT,2021.1.2,Win32,59.90893841,,,,,,,,4,Ontime,h,1,2.0346,9,2,38,2,1,,,,,
,1.4,,,,,,,,,j.PNG,j,5cb7d2f8f0e73600180b9555,2021-09-08_14h18.29.631,forced_choiceRT,2021.1.2,Win32,59.90893841,,,,,,,,4,Ontime,j,1,2.0593,9,3,39,3,1,,,,,
,,,,,,,,,,,,5cb7d2f8f0e73600180b9555,2021-09-08_14h18.29.631,forced_choiceRT,2021.1.2,Win32,59.90893841,,,,,,,,,,,,,,,,,,3,0,3,0,1
,1.33,,,,,,,,,f.PNG,f,5cb7d2f8f0e73600180b9555,2021-09-08_14h18.29.631,forced_choiceRT,2021.1.2,Win32,59.90893841,,,,,,,,5,Ontime,f,1,1.9676,0,0,0,0,1,,,,,
,1.96,,,,,,,,,h.PNG,h,5cb7d2f8f0e73600180b9555,2021-09-08_14h18.29.631,forced_choiceRT,2021.1.2,Win32,59.90893841,,,,,,,,5,Slow,j,0,2.1648,0,1,1,2,1,,,,,
,0.76,,,,,,,,,h.PNG,h,5cb7d2f8f0e73600180b9555,2021-09-08_14h18.29.631,forced_choiceRT,2021.1.2,Win32,59.90893841,,,,,,,,5,Ontime,h,1,2.0179,0,2,2,2,1,,,,,
,1.28,,,,,,,,,h.PNG,h,5cb7d2f8f0e73600180b9555,2021-09-08_14h18.29.631,forced_choiceRT,2021.1.2,Win32,59.90893841,,,,,,,,5,Ontime,h,1,1.9677,0,3,3,2,1,,,,,
,1.85,,,,,,,,,j.PNG,j,5cb7d2f8f0e73600180b9555,2021-09-08_14h18.29.631,forced_choiceRT,2021.1.2,Win32,59.90893841,,,,,,,,5,Ontime,g,0,2.0782,1,0,4,3,1,,,,,
,0.89,,,,,,,,,g.PNG,g,5cb7d2f8f0e73600180b9555,2021-09-08_14h18.29.631,forced_choiceRT,2021.1.2,Win32,59.90893841,,,,,,,,5,Ontime,g,1,2.06,1,1,5,1,1,,,,,
,1.77,,,,,,,,,f.PNG,f,5cb7d2f8f0e73600180b9555,2021-09-08_14h18.29.631,forced_choiceRT,2021.1.2,Win32,59.90893841,,,,,,,,5,Ontime,f,1,2.0787,1,2,6,0,1,,,,,
,0.67,,,,,,,,,g.PNG,g,5cb7d2f8f0e73600180b9555,2021-09-08_14h18.29.631,forced_choiceRT,2021.1.2,Win32,59.90893841,,,,,,,,5,Ontime,g,1,2.0194,1,3,7,1,1,,,,,
,1.99,,,,,,,,,g.PNG,g,5cb7d2f8f0e73600180b9555,2021-09-08_14h18.29.631,forced_choiceRT,2021.1.2,Win32,59.90893841,,,,,,,,5,Ontime,h,0,2.0202,2,0,8,1,1,,,,,
,0.64,,,,,,,,,g.PNG,g,5cb7d2f8f0e73600180b9555,2021-09-08_14h18.29.631,forced_choiceRT,2021.1.2,Win32,59.90893841,,,,,,,,5,Ontime,g,1,2.0752,2,1,9,1,1,,,,,
,0.72,,,,,,,,,h.PNG,h,5cb7d2f8f0e73600180b9555,2021-09-08_14h18.29.631,forced_choiceRT,2021.1.2,Win32,59.90893841,,,,,,,,5,Slow,h,1,2.1177,2,2,10,2,1,,,,,
,0.67,,,,,,,,,g.PNG,g,5cb7d2f8f0e73600180b9555,2021-09-08_14h18.29.631,forced_choiceRT,2021.1.2,Win32,59.90893841,,,,,,,,5,Ontime,g,1,2.0163,2,3,11,1,1,,,,,
,1.75,,,,,,,,,j.PNG,j,5cb7d2f8f0e73600180b9555,2021-09-08_14h18.29.631,forced_choiceRT,2021.1.2,Win32,59.90893841,,,,,,,,5,Ontime,h,0,1.9798,3,0,12,3,1,,,,,
,1.84,,,,,,,,,g.PNG,g,5cb7d2f8f0e73600180b9555,2021-09-08_14h18.29.631,forced_choiceRT,2021.1.2,Win32,59.90893841,,,,,,,,5,Ontime,j,0,1.9487,3,1,13,1,1,,,,,
,1.08,,,,,,,,,j.PNG,j,5cb7d2f8f0e73600180b9555,2021-09-08_14h18.29.631,forced_choiceRT,2021.1.2,Win32,59.90893841,,,,,,,,5,Ontime,j,1,2.0248,3,2,14,3,1,,,,,
,1.66,,,,,,,,,h.PNG,h,5cb7d2f8f0e73600180b9555,2021-09-08_14h18.29.631,forced_choiceRT,2021.1.2,Win32,59.90893841,,,,,,,,5,Slow,f,0,2.1344,3,3,15,2,1,,,,,
,1.34,,,,,,,,,j.PNG,j,5cb7d2f8f0e73600180b9555,2021-09-08_14h18.29.631,forced_choiceRT,2021.1.2,Win32,59.90893841,,,,,,,,5,Ontime,h,0,1.9847,4,0,16,3,1,,,,,
,1.85,,,,,,,,,g.PNG,g,5cb7d2f8f0e73600180b9555,2021-09-08_14h18.29.631,forced_choiceRT,2021.1.2,Win32,59.90893841,,,,,,,,5,Ontime,j,0,2.0295,4,1,17,1,1,,,,,
,1.71,,,,,,,,,g.PNG,g,5cb7d2f8f0e73600180b9555,2021-09-08_14h18.29.631,forced_choiceRT,2021.1.2,Win32,59.90893841,,,,,,,,5,Ontime,j,0,2.0293,4,2,18,1,1,,,,,
,0.08,,,,,,,,,h.PNG,h,5cb7d2f8f0e73600180b9555,2021-09-08_14h18.29.631,forced_choiceRT,2021.1.2,Win32,59.90893841,,,,,,,,5,Ontime,h,1,1.9931,4,3,19,2,1,,,,,
,1.73,,,,,,,,,h.PNG,h,5cb7d2f8f0e73600180b9555,2021-09-08_14h18.29.631,forced_choiceRT,2021.1.2,Win32,59.90893841,,,,,,,,5,Ontime,h,1,1.9852,5,0,20,2,1,,,,,
,1.77,,,,,,,,,f.PNG,f,5cb7d2f8f0e73600180b9555,2021-09-08_14h18.29.631,forced_choiceRT,2021.1.2,Win32,59.90893841,,,,,,,,5,Ontime,f,1,2.0017,5,1,21,0,1,,,,,
,0.41,,,,,,,,,f.PNG,f,5cb7d2f8f0e73600180b9555,2021-09-08_14h18.29.631,forced_choiceRT,2021.1.2,Win32,59.90893841,,,,,,,,5,Ontime,f,1,2.0389,5,2,22,0,1,,,,,
,1.38,,,,,,,,,j.PNG,j,5cb7d2f8f0e73600180b9555,2021-09-08_14h18.29.631,forced_choiceRT,2021.1.2,Win32,59.90893841,,,,,,,,5,Ontime,j,1,2.0011,5,3,23,3,1,,,,,
,1.19,,,,,,,,,f.PNG,f,5cb7d2f8f0e73600180b9555,2021-09-08_14h18.29.631,forced_choiceRT,2021.1.2,Win32,59.90893841,,,,,,,,5,Fast,f,1,1.8898,6,0,24,0,1,,,,,
,1.52,,,,,,,,,f.PNG,f,5cb7d2f8f0e73600180b9555,2021-09-08_14h18.29.631,forced_choiceRT,2021.1.2,Win32,59.90893841,,,,,,,,5,Slow,f,1,2.1294,6,1,25,0,1,,,,,
,0.13,,,,,,,,,h.PNG,h,5cb7d2f8f0e73600180b9555,2021-09-08_14h18.29.631,forced_choiceRT,2021.1.2,Win32,59.90893841,,,,,,,,5,Ontime,h,1,2.0344,6,2,26,2,1,,,,,
,0.65,,,,,,,,,j.PNG,j,5cb7d2f8f0e73600180b9555,2021-09-08_14h18.29.631,forced_choiceRT,2021.1.2,Win32,59.90893841,,,,,,,,5,Slow,j,1,2.1012,6,3,27,3,1,,,,,
,0.63,,,,,,,,,j.PNG,j,5cb7d2f8f0e73600180b9555,2021-09-08_14h18.29.631,forced_choiceRT,2021.1.2,Win32,59.90893841,,,,,,,,5,Ontime,j,1,2.0011,7,0,28,3,1,,,,,
,0.17,,,,,,,,,f.PNG,f,5cb7d2f8f0e73600180b9555,2021-09-08_14h18.29.631,forced_choiceRT,2021.1.2,Win32,59.90893841,,,,,,,,5,Ontime,f,1,2.0067,7,1,29,0,1,,,,,
,1.88,,,,,,,,,h.PNG,h,5cb7d2f8f0e73600180b9555,2021-09-08_14h18.29.631,forced_choiceRT,2021.1.2,Win32,59.90893841,,,,,,,,5,Ontime,f,0,2.0679,7,2,30,2,1,,,,,
,0.82,,,,,,,,,f.PNG,f,5cb7d2f8f0e73600180b9555,2021-09-08_14h18.29.631,forced_choiceRT,2021.1.2,Win32,59.90893841,,,,,,,,5,Ontime,f,1,1.9908,7,3,31,0,1,,,,,
,1.64,,,,,,,,,j.PNG,j,5cb7d2f8f0e73600180b9555,2021-09-08_14h18.29.631,forced_choiceRT,2021.1.2,Win32,59.90893841,,,,,,,,5,Ontime,f,0,2.0529,8,0,32,3,1,,,,,
,1.15,,,,,,,,,f.PNG,f,5cb7d2f8f0e73600180b9555,2021-09-08_14h18.29.631,forced_choiceRT,2021.1.2,Win32,59.90893841,,,,,,,,5,Ontime,f,1,2.0295,8,1,33,0,1,,,,,
,0.89,,,,,,,,,f.PNG,f,5cb7d2f8f0e73600180b9555,2021-09-08_14h18.29.631,forced_choiceRT,2021.1.2,Win32,59.90893841,,,,,,,,5,Ontime,f,1,2.0512,8,2,34,0,1,,,,,
,1.51,,,,,,,,,h.PNG,h,5cb7d2f8f0e73600180b9555,2021-09-08_14h18.29.631,forced_choiceRT,2021.1.2,Win32,59.90893841,,,,,,,,5,Ontime,g,0,2.0388,8,3,35,2,1,,,,,
,1.84,,,,,,,,,g.PNG,g,5cb7d2f8f0e73600180b9555,2021-09-08_14h18.29.631,forced_choiceRT,2021.1.2,Win32,59.90893841,,,,,,,,5,Ontime,h,0,1.9028,9,0,36,1,1,,,,,
,0.6,,,,,,,,,j.PNG,j,5cb7d2f8f0e73600180b9555,2021-09-08_14h18.29.631,forced_choiceRT,2021.1.2,Win32,59.90893841,,,,,,,,5,Ontime,j,1,1.9892,9,1,37,3,1,,,,,
,0.95,,,,,,,,,g.PNG,g,5cb7d2f8f0e73600180b9555,2021-09-08_14h18.29.631,forced_choiceRT,2021.1.2,Win32,59.90893841,,,,,,,,5,Ontime,g,1,1.9936,9,2,38,1,1,,,,,
,1.1,,,,,,,,,j.PNG,j,5cb7d2f8f0e73600180b9555,2021-09-08_14h18.29.631,forced_choiceRT,2021.1.2,Win32,59.90893841,,,,,,,,5,Fast,j,1,1.8649,9,3,39,3,1,,,,,
,,,,,,,,,,,,5cb7d2f8f0e73600180b9555,2021-09-08_14h18.29.631,forced_choiceRT,2021.1.2,Win32,59.90893841,,,,,,,,,,,,,,,,,,4,0,4,0,1
,1.77,,,,,,,,,g.PNG,g,5cb7d2f8f0e73600180b9555,2021-09-08_14h18.29.631,forced_choiceRT,2021.1.2,Win32,59.90893841,,,,,,,,6,Ontime,j,0,2.001,0,0,0,1,1,,,,,
,1.52,,,,,,,,,j.PNG,j,5cb7d2f8f0e73600180b9555,2021-09-08_14h18.29.631,forced_choiceRT,2021.1.2,Win32,59.90893841,,,,,,,,6,Ontime,j,1,2.0845,0,1,1,3,1,,,,,
,1.45,,,,,,,,,g.PNG,g,5cb7d2f8f0e73600180b9555,2021-09-08_14h18.29.631,forced_choiceRT,2021.1.2,Win32,59.90893841,,,,,,,,6,Ontime,g,1,2.02,0,2,2,1,1,,,,,
,0.09,,,,,,,,,j.PNG,j,5cb7d2f8f0e73600180b9555,2021-09-08_14h18.29.631,forced_choiceRT,2021.1.2,Win32,59.90893841,,,,,,,,6,Ontime,j,1,2.0178,0,3,3,3,1,,,,,
,1.55,,,,,,,,,h.PNG,h,5cb7d2f8f0e73600180b9555,2021-09-08_14h18.29.631,forced_choiceRT,2021.1.2,Win32,59.90893841,,,,,,,,6,Ontime,h,1,2.0855,1,0,4,2,1,,,,,
,0.25,,,,,,,,,g.PNG,g,5cb7d2f8f0e73600180b9555,2021-09-08_14h18.29.631,forced_choiceRT,2021.1.2,Win32,59.90893841,,,,,,,,6,Ontime,g,1,2.0179,1,1,5,1,1,,,,,
,0.39,,,,,,,,,j.PNG,j,5cb7d2f8f0e73600180b9555,2021-09-08_14h18.29.631,forced_choiceRT,2021.1.2,Win32,59.90893841,,,,,,,,6,Ontime,j,1,1.9773,1,2,6,3,1,,,,,
,1.08,,,,,,,,,j.PNG,j,5cb7d2f8f0e73600180b9555,2021-09-08_14h18.29.631,forced_choiceRT,2021.1.2,Win32,59.90893841,,,,,,,,6,Ontime,j,1,2.0194,1,3,7,3,1,,,,,
,0.7,,,,,,,,,h.PNG,h,5cb7d2f8f0e73600180b9555,2021-09-08_14h18.29.631,forced_choiceRT,2021.1.2,Win32,59.90893841,,,,,,,,6,Ontime,h,1,2.0432,2,0,8,2,1,,,,,
,1.79,,,,,,,,,h.PNG,h,5cb7d2f8f0e73600180b9555,2021-09-08_14h18.29.631,forced_choiceRT,2021.1.2,Win32,59.90893841,,,,,,,,6,Ontime,f,0,2.0193,2,1,9,2,1,,,,,
,1.69,,,,,,,,,h.PNG,h,5cb7d2f8f0e73600180b9555,2021-09-08_14h18.29.631,forced_choiceRT,2021.1.2,Win32,59.90893841,,,,,,,,6,Ontime,f,0,2.0591,2,2,10,2,1,,,,,
,1.91,,,,,,,,,f.PNG,f,5cb7d2f8f0e73600180b9555,2021-09-08_14h18.29.631,forced_choiceRT,2021.1.2,Win32,59.90893841,,,,,,,,6,Ontime,f,1,2.0146,2,3,11,0,1,,,,,
,1.61,,,,,,,,,f.PNG,f,5cb7d2f8f0e73600180b9555,2021-09-08_14h18.29.631,forced_choiceRT,2021.1.2,Win32,59.90893841,,,,,,,,6,Ontime,g,0,1.9762,3,0,12,0,1,,,,,
,1.8,,,,,,,,,g.PNG,g,5cb7d2f8f0e73600180b9555,2021-09-08_14h18.29.631,forced_choiceRT,2021.1.2,Win32,59.90893841,,,,,,,,6,Ontime,h,0,1.952,3,1,13,1,1,,,,,
,1.89,,,,,,,,,g.PNG,g,5cb7d2f8f0e73600180b9555,2021-09-08_14h18.29.631,forced_choiceRT,2021.1.2,Win32,59.90893841,,,,,,,,6,Ontime,j,0,2.0346,3,2,14,1,1,,,,,
,1.31,,,,,,,,,h.PNG,h,5cb7d2f8f0e73600180b9555,2021-09-08_14h18.29.631,forced_choiceRT,2021.1.2,Win32,59.90893841,,,,,,,,6,Ontime,h,1,2.0012,3,3,15,2,1,,,,,
,1.69,,,,,,,,,f.PNG,f,5cb7d2f8f0e73600180b9555,2021-09-08_14h18.29.631,forced_choiceRT,2021.1.2,Win32,59.90893841,,,,,,,,6,Ontime,j,0,2.0179,4,0,16,0,1,,,,,
,0.12,,,,,,,,,h.PNG,h,5cb7d2f8f0e73600180b9555,2021-09-08_14h18.29.631,forced_choiceRT,2021.1.2,Win32,59.90893841,,,,,,,,6,Ontime,h,1,1.985,4,1,17,2,1,,,,,
,1.42,,,,,,,,,j.PNG,j,5cb7d2f8f0e73600180b9555,2021-09-08_14h18.29.631,forced_choiceRT,2021.1.2,Win32,59.90893841,,,,,,,,6,Slow,j,1,2.1033,4,2,18,3,1,,,,,
,1.07,,,,,,,,,j.PNG,j,5cb7d2f8f0e73600180b9555,2021-09-08_14h18.29.631,forced_choiceRT,2021.1.2,Win32,59.90893841,,,,,,,,6,Ontime,j,1,2.0609,4,3,19,3,1,,,,,
,1.65,,,,,,,,,h.PNG,h,5cb7d2f8f0e73600180b9555,2021-09-08_14h18.29.631,forced_choiceRT,2021.1.2,Win32,59.90893841,,,,,,,,6,Ontime,j,0,2.0432,5,0,20,2,1,,,,,
,0.92,,,,,,,,,f.PNG,f,5cb7d2f8f0e73600180b9555,2021-09-08_14h18.29.631,forced_choiceRT,2021.1.2,Win32,59.90893841,,,,,,,,6,Ontime,f,1,2.0632,5,1,21,0,1,,,,,
,1.58,,,,,,,,,f.PNG,f,5cb7d2f8f0e73600180b9555,2021-09-08_14h18.29.631,forced_choiceRT,2021.1.2,Win32,59.90893841,,,,,,,,6,Slow,g,0,2.1178,5,2,22,0,1,,,,,
,1.17,,,,,,,,,f.PNG,f,5cb7d2f8f0e73600180b9555,2021-09-08_14h18.29.631,forced_choiceRT,2021.1.2,Win32,59.90893841,,,,,,,,6,Ontime,f,1,1.9907,5,3,23,0,1,,,,,
,1.95,,,,,,,,,h.PNG,h,5cb7d2f8f0e73600180b9555,2021-09-08_14h18.29.631,forced_choiceRT,2021.1.2,Win32,59.90893841,,,,,,,,6,Slow,g,0,2.1011,6,0,24,2,1,,,,,
,0.09,,,,,,,,,j.PNG,j,5cb7d2f8f0e73600180b9555,2021-09-08_14h18.29.631,forced_choiceRT,2021.1.2,Win32,59.90893841,,,,,,,,6,Ontime,j,1,2.0051,6,1,25,3,1,,,,,
,0.22,,,,,,,,,h.PNG,h,5cb7d2f8f0e73600180b9555,2021-09-08_14h18.29.631,forced_choiceRT,2021.1.2,Win32,59.90893841,,,,,,,,6,Ontime,h,1,1.9774,6,2,26,2,1,,,,,
,1.54,,,,,,,,,j.PNG,j,5cb7d2f8f0e73600180b9555,2021-09-08_14h18.29.631,forced_choiceRT,2021.1.2,Win32,59.90893841,,,,,,,,6,Slow,j,1,2.1451,6,3,27,3,1,,,,,
,0.57,,,,,,,,,g.PNG,g,5cb7d2f8f0e73600180b9555,2021-09-08_14h18.29.631,forced_choiceRT,2021.1.2,Win32,59.90893841,,,,,,,,6,Ontime,g,1,1.9647,7,0,28,1,1,,,,,
,0.55,,,,,,,,,f.PNG,f,5cb7d2f8f0e73600180b9555,2021-09-08_14h18.29.631,forced_choiceRT,2021.1.2,Win32,59.90893841,,,,,,,,6,Ontime,f,1,1.9941,7,1,29,0,1,,,,,
,1.35,,,,,,,,,h.PNG,h,5cb7d2f8f0e73600180b9555,2021-09-08_14h18.29.631,forced_choiceRT,2021.1.2,Win32,59.90893841,,,,,,,,6,Ontime,h,1,2.0762,7,2,30,2,1,,,,,
,0.17,,,,,,,,,f.PNG,f,5cb7d2f8f0e73600180b9555,2021-09-08_14h18.29.631,forced_choiceRT,2021.1.2,Win32,59.90893841,,,,,,,,6,Ontime,f,1,1.9678,7,3,31,0,1,,,,,
,1.38,,,,,,,,,j.PNG,j,5cb7d2f8f0e73600180b9555,2021-09-08_14h18.29.631,forced_choiceRT,2021.1.2,Win32,59.90893841,,,,,,,,6,Ontime,j,1,2.051,8,0,32,3,1,,,,,
,0.56,,,,,,,,,g.PNG,g,5cb7d2f8f0e73600180b9555,2021-09-08_14h18.29.631,forced_choiceRT,2021.1.2,Win32,59.90893841,,,,,,,,6,Ontime,g,1,1.9344,8,1,33,1,1,,,,,
,0.95,,,,,,,,,g.PNG,g,5cb7d2f8f0e73600180b9555,2021-09-08_14h18.29.631,forced_choiceRT,2021.1.2,Win32,59.90893841,,,,,,,,6,Fast,g,1,1.8306,8,2,34,1,1,,,,,
,0.1,,,,,,,,,f.PNG,f,5cb7d2f8f0e73600180b9555,2021-09-08_14h18.29.631,forced_choiceRT,2021.1.2,Win32,59.90893841,,,,,,,,6,Ontime,f,1,2.0208,8,3,35,0,1,,,,,
,1.99,,,,,,,,,g.PNG,g,5cb7d2f8f0e73600180b9555,2021-09-08_14h18.29.631,forced_choiceRT,2021.1.2,Win32,59.90893841,,,,,,,,6,Ontime,j,0,2.0372,9,0,36,1,1,,,,,
,0.55,,,,,,,,,g.PNG,g,5cb7d2f8f0e73600180b9555,2021-09-08_14h18.29.631,forced_choiceRT,2021.1.2,Win32,59.90893841,,,,,,,,6,Ontime,g,1,2.019,9,1,37,1,1,,,,,
,1.68,,,,,,,,,f.PNG,f,5cb7d2f8f0e73600180b9555,2021-09-08_14h18.29.631,forced_choiceRT,2021.1.2,Win32,59.90893841,,,,,,,,6,Ontime,h,0,1.9954,9,2,38,0,1,,,,,
,1.87,,,,,,,,,j.PNG,j,5cb7d2f8f0e73600180b9555,2021-09-08_14h18.29.631,forced_choiceRT,2021.1.2,Win32,59.90893841,,,,,,,,6,Ontime,f,0,1.9594,9,3,39,3,1,,,,,
,,,,,,,,,,,,5cb7d2f8f0e73600180b9555,2021-09-08_14h18.29.631,forced_choiceRT,2021.1.2,Win32,59.90893841,,,,,,,,,,,,,,,,,,5,0,5,0,1
,0.25,,,,,,,,,j.PNG,j,5cb7d2f8f0e73600180b9555,2021-09-08_14h18.29.631,forced_choiceRT,2021.1.2,Win32,59.90893841,,,,,,,,7,Ontime,j,1,1.93,0,0,0,3,1,,,,,
,1.73,,,,,,,,,f.PNG,f,5cb7d2f8f0e73600180b9555,2021-09-08_14h18.29.631,forced_choiceRT,2021.1.2,Win32,59.90893841,,,,,,,,7,Ontime,f,1,2.0845,0,1,1,0,1,,,,,
,1.16,,,,,,,,,f.PNG,f,5cb7d2f8f0e73600180b9555,2021-09-08_14h18.29.631,forced_choiceRT,2021.1.2,Win32,59.90893841,,,,,,,,7,Fast,f,1,1.8967,0,2,2,0,1,,,,,
,1.85,,,,,,,,,f.PNG,f,5cb7d2f8f0e73600180b9555,2021-09-08_14h18.29.631,forced_choiceRT,2021.1.2,Win32,59.90893841,,,,,,,,7,Ontime,f,1,2.068,0,3,3,0,1,,,,,
,1.81,,,,,,,,,f.PNG,f,5cb7d2f8f0e73600180b9555,2021-09-08_14h18.29.631,forced_choiceRT,2021.1.2,Win32,59.90893841,,,,,,,,7,Ontime,f,1,2.0847,1,0,4,0,1,,,,,
,0.24,,,,,,,,,f.PNG,f,5cb7d2f8f0e73600180b9555,2021-09-08_14h18.29.631,forced_choiceRT,2021.1.2,Win32,59.90893841,,,,,,,,7,Ontime,f,1,1.9678,1,1,5,0,1,,,,,
,0.02,,,,,,,,,f.PNG,f,5cb7d2f8f0e73600180b9555,2021-09-08_14h18.29.631,forced_choiceRT,2021.1.2,Win32,59.90893841,,,,,,,,7,Ontime,f,1,2.0863,1,2,6,0,1,,,,,
,1.26,,,,,,,,,h.PNG,h,5cb7d2f8f0e73600180b9555,2021-09-08_14h18.29.631,forced_choiceRT,2021.1.2,Win32,59.90893841,,,,,,,,7,Ontime,h,1,1.9674,1,3,7,2,1,,,,,
,0.69,,,,,,,,,j.PNG,j,5cb7d2f8f0e73600180b9555,2021-09-08_14h18.29.631,forced_choiceRT,2021.1.2,Win32,59.90893841,,,,,,,,7,Ontime,j,1,2.0212,2,0,8,3,1,,,,,
,0.91,,,,,,,,,g.PNG,g,5cb7d2f8f0e73600180b9555,2021-09-08_14h18.29.631,forced_choiceRT,2021.1.2,Win32,59.90893841,,,,,,,,7,Ontime,g,1,1.9772,2,1,9,1,1,,,,,
,1.99,,,,,,,,,j.PNG,j,5cb7d2f8f0e73600180b9555,2021-09-08_14h18.29.631,forced_choiceRT,2021.1.2,Win32,59.90893841,,,,,,,,7,Ontime,g,0,2.0469,2,2,10,3,1,,,,,
,0.36,,,,,,,,,h.PNG,h,5cb7d2f8f0e73600180b9555,2021-09-08_14h18.29.631,forced_choiceRT,2021.1.2,Win32,59.90893841,,,,,,,,7,Ontime,h,1,1.93,2,3,11,2,1,,,,,
,0.38,,,,,,,,,h.PNG,h,5cb7d2f8f0e73600180b9555,2021-09-08_14h18.29.631,forced_choiceRT,2021.1.2,Win32,59.90893841,,,,,,,,7,Ontime,h,1,1.913,3,0,12,2,1,,,,,
,0.27,,,,,,,,,h.PNG,h,5cb7d2f8f0e73600180b9555,2021-09-08_14h18.29.631,forced_choiceRT,2021.1.2,Win32,59.90893841,,,,,,,,7,Ontime,h,1,1.9862,3,1,13,2,1,,,,,
,1.42,,,,,,,,,g.PNG,g,5cb7d2f8f0e73600180b9555,2021-09-08_14h18.29.631,forced_choiceRT,2021.1.2,Win32,59.90893841,,,,,,,,7,Ontime,g,1,2.0586,3,2,14,1,1,,,,,
,1.12,,,,,,,,,g.PNG,g,5cb7d2f8f0e73600180b9555,2021-09-08_14h18.29.631,forced_choiceRT,2021.1.2,Win32,59.90893841,,,,,,,,7,Slow,g,1,2.1192,3,3,15,1,1,,,,,
,0.43,,,,,,,,,g.PNG,g,5cb7d2f8f0e73600180b9555,2021-09-08_14h18.29.631,forced_choiceRT,2021.1.2,Win32,59.90893841,,,,,,,,7,Fast,g,1,1.8678,4,0,16,1,1,,,,,
,1.61,,,,,,,,,g.PNG,g,5cb7d2f8f0e73600180b9555,2021-09-08_14h18.29.631,forced_choiceRT,2021.1.2,Win32,59.90893841,,,,,,,,7,Ontime,g,1,2.0373,4,1,17,1,1,,,,,
,1.14,,,,,,,,,j.PNG,j,5cb7d2f8f0e73600180b9555,2021-09-08_14h18.29.631,forced_choiceRT,2021.1.2,Win32,59.90893841,,,,,,,,7,Ontime,j,1,2.0226,4,2,18,3,1,,,,,
,1.12,,,,,,,,,g.PNG,g,5cb7d2f8f0e73600180b9555,2021-09-08_14h18.29.631,forced_choiceRT,2021.1.2,Win32,59.90893841,,,,,,,,7,Fast,g,1,1.8575,4,3,19,1,1,,,,,
,0.74,,,,,,,,,j.PNG,j,5cb7d2f8f0e73600180b9555,2021-09-08_14h18.29.631,forced_choiceRT,2021.1.2,Win32,59.90893841,,,,,,,,7,Ontime,j,1,2.0344,5,0,20,3,1,,,,,
,1.28,,,,,,,,,h.PNG,h,5cb7d2f8f0e73600180b9555,2021-09-08_14h18.29.631,forced_choiceRT,2021.1.2,Win32,59.90893841,,,,,,,,7,Ontime,h,1,2.0177,5,1,21,2,1,,,,,
,0.65,,,,,,,,,h.PNG,h,5cb7d2f8f0e73600180b9555,2021-09-08_14h18.29.631,forced_choiceRT,2021.1.2,Win32,59.90893841,,,,,,,,7,Ontime,h,1,2.001,5,2,22,2,1,,,,,
,0.97,,,,,,,,,f.PNG,f,5cb7d2f8f0e73600180b9555,2021-09-08_14h18.29.631,forced_choiceRT,2021.1.2,Win32,59.90893841,,,,,,,,7,Ontime,f,1,2.0275,5,3,23,0,1,,,,,
,1.27,,,,,,,,,j.PNG,j,5cb7d2f8f0e73600180b9555,2021-09-08_14h18.29.631,forced_choiceRT,2021.1.2,Win32,59.90893841,,,,,,,,7,Ontime,j,1,2.0775,6,0,24,3,1,,,,,
,1.31,,,,,,,,,j.PNG,j,5cb7d2f8f0e73600180b9555,2021-09-08_14h18.29.631,forced_choiceRT,2021.1.2,Win32,59.90893841,,,,,,,,7,Ontime,j,1,2.0176,6,1,25,3,1,,,,,
,1.15,,,,,,,,,f.PNG,f,5cb7d2f8f0e73600180b9555,2021-09-08_14h18.29.631,forced_choiceRT,2021.1.2,Win32,59.90893841,,,,,,,,7,Ontime,f,1,2.0569,6,2,26,0,1,,,,,
,1.99,,,,,,,,,g.PNG,g,5cb7d2f8f0e73600180b9555,2021-09-08_14h18.29.631,forced_choiceRT,2021.1.2,Win32,59.90893841,,,,,,,,7,Ontime,f,0,2.0841,6,3,27,1,1,,,,,
,0.48,,,,,,,,,g.PNG,g,5cb7d2f8f0e73600180b9555,2021-09-08_14h18.29.631,forced_choiceRT,2021.1.2,Win32,59.90893841,,,,,,,,7,Ontime,g,1,1.9794,7,0,28,1,1,,,,,
,1.84,,,,,,,,,h.PNG,h,5cb7d2f8f0e73600180b9555,2021-09-08_14h18.29.631,forced_choiceRT,2021.1.2,Win32,59.90893841,,,,,,,,7,Ontime,g,0,2.0678,7,1,29,2,1,,,,,
,1.79,,,,,,,,,g.PNG,g,5cb7d2f8f0e73600180b9555,2021-09-08_14h18.29.631,forced_choiceRT,2021.1.2,Win32,59.90893841,,,,,,,,7,Ontime,g,1,2.0287,7,2,30,1,1,,,,,
,1.05,,,,,,,,,h.PNG,h,5cb7d2f8f0e73600180b9555,2021-09-08_14h18.29.631,forced_choiceRT,2021.1.2,Win32,59.90893841,,,,,,,,7,Ontime,h,1,2.0012,7,3,31,2,1,,,,,
,1.15,,,,,,,,,j.PNG,j,5cb7d2f8f0e73600180b9555,2021-09-08_14h18.29.631,forced_choiceRT,2021.1.2,Win32,59.90893841,,,,,,,,7,Ontime,j,1,2.0513,8,0,32,3,1,,,,,
,1.52,,,,,,,,,h.PNG,h,5cb7d2f8f0e73600180b9555,2021-09-08_14h18.29.631,forced_choiceRT,2021.1.2,Win32,59.90893841,,,,,,,,7,Slow,g,0,2.1222,8,1,33,2,1,,,,,
,1.14,,,,,,,,,f.PNG,f,5cb7d2f8f0e73600180b9555,2021-09-08_14h18.29.631,forced_choiceRT,2021.1.2,Win32,59.90893841,,,,,,,,7,Ontime,f,1,2.032,8,2,34,0,1,,,,,
,1.01,,,,,,,,,g.PNG,g,5cb7d2f8f0e73600180b9555,2021-09-08_14h18.29.631,forced_choiceRT,2021.1.2,Win32,59.90893841,,,,,,,,7,Ontime,g,1,1.9458,8,3,35,1,1,,,,,
,1.25,,,,,,,,,f.PNG,f,5cb7d2f8f0e73600180b9555,2021-09-08_14h18.29.631,forced_choiceRT,2021.1.2,Win32,59.90893841,,,,,,,,7,Ontime,f,1,1.9951,9,0,36,0,1,,,,,
,1.61,,,,,,,,,h.PNG,h,5cb7d2f8f0e73600180b9555,2021-09-08_14h18.29.631,forced_choiceRT,2021.1.2,Win32,59.90893841,,,,,,,,7,Slow,g,0,2.1512,9,1,37,2,1,,,,,
,1.96,,,,,,,,,j.PNG,j,5cb7d2f8f0e73600180b9555,2021-09-08_14h18.29.631,forced_choiceRT,2021.1.2,Win32,59.90893841,,,,,,,,7,Ontime,j,1,2.0677,9,2,38,3,1,,,,,
,1,,,,,,,,,j.PNG,j,5cb7d2f8f0e73600180b9555,2021-09-08_14h18.29.631,forced_choiceRT,2021.1.2,Win32,59.90893841,,,,,,,,7,Ontime,j,1,1.9643,9,3,39,3,1,,,,,
,,,,,,,,,,,,5cb7d2f8f0e73600180b9555,2021-09-08_14h18.29.631,forced_choiceRT,2021.1.2,Win32,59.90893841,,,,,,,,,,,,,,,,,,6,0,6,0,1
,1.07,,,,,,,,,f.PNG,f,5cb7d2f8f0e73600180b9555,2021-09-08_14h18.29.631,forced_choiceRT,2021.1.2,Win32,59.90893841,,,,,,,,8,Ontime,f,1,1.9745,0,0,0,0,1,,,,,
,1.38,,,,,,,,,f.PNG,f,5cb7d2f8f0e73600180b9555,2021-09-08_14h18.29.631,forced_choiceRT,2021.1.2,Win32,59.90893841,,,,,,,,8,Slow,f,1,2.1025,0,1,1,0,1,,,,,
,0.62,,,,,,,,,h.PNG,h,5cb7d2f8f0e73600180b9555,2021-09-08_14h18.29.631,forced_choiceRT,2021.1.2,Win32,59.90893841,,,,,,,,8,Ontime,h,1,2.0178,0,2,2,2,1,,,,,
,1.72,,,,,,,,,f.PNG,f,5cb7d2f8f0e73600180b9555,2021-09-08_14h18.29.631,forced_choiceRT,2021.1.2,Win32,59.90893841,,,,,,,,8,Ontime,h,0,1.9522,0,3,3,0,1,,,,,
,1.5,,,,,,,,,h.PNG,h,5cb7d2f8f0e73600180b9555,2021-09-08_14h18.29.631,forced_choiceRT,2021.1.2,Win32,59.90893841,,,,,,,,8,Ontime,h,1,2.001,1,0,4,2,1,,,,,
,0.52,,,,,,,,,j.PNG,j,5cb7d2f8f0e73600180b9555,2021-09-08_14h18.29.631,forced_choiceRT,2021.1.2,Win32,59.90893841,,,,,,,,8,Ontime,j,1,1.9177,1,1,5,3,1,,,,,
,0.67,,,,,,,,,f.PNG,f,5cb7d2f8f0e73600180b9555,2021-09-08_14h18.29.631,forced_choiceRT,2021.1.2,Win32,59.90893841,,,,,,,,8,Ontime,f,1,1.951,1,2,6,0,1,,,,,
,0.12,,,,,,,,,g.PNG,g,5cb7d2f8f0e73600180b9555,2021-09-08_14h18.29.631,forced_choiceRT,2021.1.2,Win32,59.90893841,,,,,,,,8,Ontime,g,1,2.0185,1,3,7,1,1,,,,,
,1.34,,,,,,,,,j.PNG,j,5cb7d2f8f0e73600180b9555,2021-09-08_14h18.29.631,forced_choiceRT,2021.1.2,Win32,59.90893841,,,,,,,,8,Ontime,j,1,2.0702,2,0,8,3,1,,,,,
,0.84,,,,,,,,,f.PNG,f,5cb7d2f8f0e73600180b9555,2021-09-08_14h18.29.631,forced_choiceRT,2021.1.2,Win32,59.90893841,,,,,,,,8,Ontime,f,1,2.0031,2,1,9,0,1,,,,,
,1.56,,,,,,,,,h.PNG,h,5cb7d2f8f0e73600180b9555,2021-09-08_14h18.29.631,forced_choiceRT,2021.1.2,Win32,59.90893841,,,,,,,,8,Ontime,j,0,2.0692,2,2,10,2,1,,,,,
,1.08,,,,,,,,,h.PNG,h,5cb7d2f8f0e73600180b9555,2021-09-08_14h18.29.631,forced_choiceRT,2021.1.2,Win32,59.90893841,,,,,,,,8,Ontime,h,1,2.0011,2,3,11,2,1,,,,,
,0.51,,,,,,,,,g.PNG,g,5cb7d2f8f0e73600180b9555,2021-09-08_14h18.29.631,forced_choiceRT,2021.1.2,Win32,59.90893841,,,,,,,,8,Ontime,g,1,1.9806,3,0,12,1,1,,,,,
,1.45,,,,,,,,,j.PNG,j,5cb7d2f8f0e73600180b9555,2021-09-08_14h18.29.631,forced_choiceRT,2021.1.2,Win32,59.90893841,,,,,,,,8,Ontime,j,1,2.001,3,1,13,3,1,,,,,
,0.17,,,,,,,,,j.PNG,j,5cb7d2f8f0e73600180b9555,2021-09-08_14h18.29.631,forced_choiceRT,2021.1.2,Win32,59.90893841,,,,,,,,8,Ontime,j,1,2.0045,3,2,14,3,1,,,,,
,0.33,,,,,,,,,h.PNG,h,5cb7d2f8f0e73600180b9555,2021-09-08_14h18.29.631,forced_choiceRT,2021.1.2,Win32,59.90893841,,,,,,,,8,Ontime,h,1,1.9178,3,3,15,2,1,,,,,
,0.72,,,,,,,,,f.PNG,f,5cb7d2f8f0e73600180b9555,2021-09-08_14h18.29.631,forced_choiceRT,2021.1.2,Win32,59.90893841,,,,,,,,8,Ontime,f,1,1.9516,4,0,16,0,1,,,,,
,1.81,,,,,,,,,g.PNG,g,5cb7d2f8f0e73600180b9555,2021-09-08_14h18.29.631,forced_choiceRT,2021.1.2,Win32,59.90893841,,,,,,,,8,Ontime,j,0,2.022,4,1,17,1,1,,,,,
,1.64,,,,,,,,,g.PNG,g,5cb7d2f8f0e73600180b9555,2021-09-08_14h18.29.631,forced_choiceRT,2021.1.2,Win32,59.90893841,,,,,,,,8,Ontime,g,1,2.001,4,2,18,1,1,,,,,
,1.12,,,,,,,,,g.PNG,g,5cb7d2f8f0e73600180b9555,2021-09-08_14h18.29.631,forced_choiceRT,2021.1.2,Win32,59.90893841,,,,,,,,8,Ontime,g,1,2.0281,4,3,19,1,1,,,,,
,0.43,,,,,,,,,j.PNG,j,5cb7d2f8f0e73600180b9555,2021-09-08_14h18.29.631,forced_choiceRT,2021.1.2,Win32,59.90893841,,,,,,,,8,Ontime,j,1,2.0131,5,0,20,3,1,,,,,
,1.18,,,,,,,,,j.PNG,j,5cb7d2f8f0e73600180b9555,2021-09-08_14h18.29.631,forced_choiceRT,2021.1.2,Win32,59.90893841,,,,,,,,8,Ontime,j,1,2.0456,5,1,21,3,1,,,,,
,1.41,,,,,,,,,f.PNG,f,5cb7d2f8f0e73600180b9555,2021-09-08_14h18.29.631,forced_choiceRT,2021.1.2,Win32,59.90893841,,,,,,,,8,Ontime,f,1,2.0548,5,2,22,0,1,,,,,
,0.82,,,,,,,,,h.PNG,h,5cb7d2f8f0e73600180b9555,2021-09-08_14h18.29.631,forced_choiceRT,2021.1.2,Win32,59.90893841,,,,,,,,8,Ontime,h,1,2.0751,5,3,23,2,1,,,,,
,0.38,,,,,,,,,g.PNG,g,5cb7d2f8f0e73600180b9555,2021-09-08_14h18.29.631,forced_choiceRT,2021.1.2,Win32,59.90893841,,,,,,,,8,Ontime,g,1,1.9791,6,0,24,1,1,,,,,
,0.84,,,,,,,,,j.PNG,j,5cb7d2f8f0e73600180b9555,2021-09-08_14h18.29.631,forced_choiceRT,2021.1.2,Win32,59.90893841,,,,,,,,8,Ontime,j,1,1.981,6,1,25,3,1,,,,,
,0.5,,,,,,,,,j.PNG,j,5cb7d2f8f0e73600180b9555,2021-09-08_14h18.29.631,forced_choiceRT,2021.1.2,Win32,59.90893841,,,,,,,,8,Ontime,j,1,1.9208,6,2,26,3,1,,,,,
,0.65,,,,,,,,,f.PNG,f,5cb7d2f8f0e73600180b9555,2021-09-08_14h18.29.631,forced_choiceRT,2021.1.2,Win32,59.90893841,,,,,,,,8,Ontime,f,1,1.9346,6,3,27,0,1,,,,,
,1.02,,,,,,,,,j.PNG,j,5cb7d2f8f0e73600180b9555,2021-09-08_14h18.29.631,forced_choiceRT,2021.1.2,Win32,59.90893841,,,,,,,,8,Ontime,j,1,1.9676,7,0,28,3,1,,,,,
,1.43,,,,,,,,,g.PNG,g,5cb7d2f8f0e73600180b9555,2021-09-08_14h18.29.631,forced_choiceRT,2021.1.2,Win32,59.90893841,,,,,,,,8,Ontime,g,1,1.9619,7,1,29,1,1,,,,,
,1.58,,,,,,,,,f.PNG,f,5cb7d2f8f0e73600180b9555,2021-09-08_14h18.29.631,forced_choiceRT,2021.1.2,Win32,59.90893841,,,,,,,,8,Slow,f,1,2.1135,7,2,30,0,1,,,,,
,0.49,,,,,,,,,f.PNG,f,5cb7d2f8f0e73600180b9555,2021-09-08_14h18.29.631,forced_choiceRT,2021.1.2,Win32,59.90893841,,,,,,,,8,Ontime,f,1,2.051,7,3,31,0,1,,,,,
,0.86,,,,,,,,,g.PNG,g,5cb7d2f8f0e73600180b9555,2021-09-08_14h18.29.631,forced_choiceRT,2021.1.2,Win32,59.90893841,,,,,,,,8,Ontime,g,1,2.036,8,0,32,1,1,,,,,
,0.42,,,,,,,,,h.PNG,h,5cb7d2f8f0e73600180b9555,2021-09-08_14h18.29.631,forced_choiceRT,2021.1.2,Win32,59.90893841,,,,,,,,8,Ontime,h,1,1.9243,8,1,33,2,1,,,,,
,0.98,,,,,,,,,j.PNG,j,5cb7d2f8f0e73600180b9555,2021-09-08_14h18.29.631,forced_choiceRT,2021.1.2,Win32,59.90893841,,,,,,,,8,Ontime,j,1,1.9351,8,2,34,3,1,,,,,
,1.89,,,,,,,,,h.PNG,h,5cb7d2f8f0e73600180b9555,2021-09-08_14h18.29.631,forced_choiceRT,2021.1.2,Win32,59.90893841,,,,,,,,8,Ontime,f,0,1.9513,8,3,35,2,1,,,,,
,1.41,,,,,,,,,h.PNG,h,5cb7d2f8f0e73600180b9555,2021-09-08_14h18.29.631,forced_choiceRT,2021.1.2,Win32,59.90893841,,,,,,,,8,Ontime,h,1,1.9948,9,0,36,2,1,,,,,
,1.15,,,,,,,,,h.PNG,h,5cb7d2f8f0e73600180b9555,2021-09-08_14h18.29.631,forced_choiceRT,2021.1.2,Win32,59.90893841,,,,,,,,8,Ontime,h,1,1.976,9,1,37,2,1,,,,,
,0.3,,,,,,,,,g.PNG,g,5cb7d2f8f0e73600180b9555,2021-09-08_14h18.29.631,forced_choiceRT,2021.1.2,Win32,59.90893841,,,,,,,,8,Ontime,g,1,2.0588,9,2,38,1,1,,,,,
,0.81,,,,,,,,,g.PNG,g,5cb7d2f8f0e73600180b9555,2021-09-08_14h18.29.631,forced_choiceRT,2021.1.2,Win32,59.90893841,,,,,,,,8,Ontime,g,1,2.0345,9,3,39,1,1,,,,,
,,,,,,,,,,,,5cb7d2f8f0e73600180b9555,2021-09-08_14h18.29.631,forced_choiceRT,2021.1.2,Win32,59.90893841,,,,,,,,,,,,,,,,,,7,0,7,0,1
,0.96,,,,,,,,,f.PNG,f,5cb7d2f8f0e73600180b9555,2021-09-08_14h18.29.631,forced_choiceRT,2021.1.2,Win32,59.90893841,,,,,,,,9,Ontime,f,1,1.9842,0,0,0,0,1,,,,,
,0,,,,,,,,,j.PNG,j,5cb7d2f8f0e73600180b9555,2021-09-08_14h18.29.631,forced_choiceRT,2021.1.2,Win32,59.90893841,,,,,,,,9,Ontime,j,1,1.9677,0,1,1,3,1,,,,,
,1.78,,,,,,,,,j.PNG,j,5cb7d2f8f0e73600180b9555,2021-09-08_14h18.29.631,forced_choiceRT,2021.1.2,Win32,59.90893841,,,,,,,,9,Ontime,f,0,2.0222,0,2,2,3,1,,,,,
,1.12,,,,,,,,,j.PNG,j,5cb7d2f8f0e73600180b9555,2021-09-08_14h18.29.631,forced_choiceRT,2021.1.2,Win32,59.90893841,,,,,,,,9,Ontime,j,1,2.0269,0,3,3,3,1,,,,,
,1.64,,,,,,,,,f.PNG,f,5cb7d2f8f0e73600180b9555,2021-09-08_14h18.29.631,forced_choiceRT,2021.1.2,Win32,59.90893841,,,,,,,,9,Ontime,h,0,1.9677,1,0,4,0,1,,,,,
,0.99,,,,,,,,,j.PNG,j,5cb7d2f8f0e73600180b9555,2021-09-08_14h18.29.631,forced_choiceRT,2021.1.2,Win32,59.90893841,,,,,,,,9,Ontime,j,1,2.0011,1,1,5,3,1,,,,,
,1.73,,,,,,,,,h.PNG,h,5cb7d2f8f0e73600180b9555,2021-09-08_14h18.29.631,forced_choiceRT,2021.1.2,Win32,59.90893841,,,,,,,,9,Ontime,f,0,2.0011,1,2,6,2,1,,,,,
,1.62,,,,,,,,,g.PNG,g,5cb7d2f8f0e73600180b9555,2021-09-08_14h18.29.631,forced_choiceRT,2021.1.2,Win32,59.90893841,,,,,,,,9,Slow,h,0,2.1012,1,3,7,1,1,,,,,
,0.59,,,,,,,,,h.PNG,h,5cb7d2f8f0e73600180b9555,2021-09-08_14h18.29.631,forced_choiceRT,2021.1.2,Win32,59.90893841,,,,,,,,9,Ontime,h,1,2.0009,2,0,8,2,1,,,,,
,1.34,,,,,,,,,h.PNG,h,5cb7d2f8f0e73600180b9555,2021-09-08_14h18.29.631,forced_choiceRT,2021.1.2,Win32,59.90893841,,,,,,,,9,Ontime,h,1,2.012,2,1,9,2,1,,,,,
,0.13,,,,,,,,,h.PNG,h,5cb7d2f8f0e73600180b9555,2021-09-08_14h18.29.631,forced_choiceRT,2021.1.2,Win32,59.90893841,,,,,,,,9,Ontime,h,1,2.0512,2,2,10,2,1,,,,,
,1.46,,,,,,,,,f.PNG,f,5cb7d2f8f0e73600180b9555,2021-09-08_14h18.29.631,forced_choiceRT,2021.1.2,Win32,59.90893841,,,,,,,,9,Ontime,f,1,2.0587,2,3,11,0,1,,,,,
,0.25,,,,,,,,,f.PNG,f,5cb7d2f8f0e73600180b9555,2021-09-08_14h18.29.631,forced_choiceRT,2021.1.2,Win32,59.90893841,,,,,,,,9,Ontime,f,1,2.0152,3,0,12,0,1,,,,,
,1.65,,,,,,,,,h.PNG,h,5cb7d2f8f0e73600180b9555,2021-09-08_14h18.29.631,forced_choiceRT,2021.1.2,Win32,59.90893841,,,,,,,,9,Ontime,g,0,2.0302,3,1,13,2,1,,,,,
,0.3,,,,,,,,,g.PNG,g,5cb7d2f8f0e73600180b9555,2021-09-08_14h18.29.631,forced_choiceRT,2021.1.2,Win32,59.90893841,,,,,,,,9,Ontime,g,1,2.0345,3,2,14,1,1,,,,,
,0.04,,,,,,,,,g.PNG,g,5cb7d2f8f0e73600180b9555,2021-09-08_14h18.29.631,forced_choiceRT,2021.1.2,Win32,59.90893841,,,,,,,,9,Ontime,g,1,2.0203,3,3,15,1,1,,,,,
,1.51,,,,,,,,,f.PNG,f,5cb7d2f8f0e73600180b9555,2021-09-08_14h18.29.631,forced_choiceRT,2021.1.2,Win32,59.90893841,,,,,,,,9,Slow,g,0,2.101,4,0,16,0,1,,,,,
,1.66,,,,,,,,,h.PNG,h,5cb7d2f8f0e73600180b9555,2021-09-08_14h18.29.631,forced_choiceRT,2021.1.2,Win32,59.90893841,,,,,,,,9,Ontime,f,0,2.0513,4,1,17,2,1,,,,,
,1.84,,,,,,,,,g.PNG,g,5cb7d2f8f0e73600180b9555,2021-09-08_14h18.29.631,forced_choiceRT,2021.1.2,Win32,59.90893841,,,,,,,,9,Ontime,j,0,2.0312,4,2,18,1,1,,,,,
,0.1,,,,,,,,,f.PNG,f,5cb7d2f8f0e73600180b9555,2021-09-08_14h18.29.631,forced_choiceRT,2021.1.2,Win32,59.90893841,,,,,,,,9,Ontime,f,1,1.9839,4,3,19,0,1,,,,,
,0.05,,,,,,,,,g.PNG,g,5cb7d2f8f0e73600180b9555,2021-09-08_14h18.29.631,forced_choiceRT,2021.1.2,Win32,59.90893841,,,,,,,,9,Ontime,g,1,2.0265,5,0,20,1,1,,,,,
,0.67,,,,,,,,,g.PNG,g,5cb7d2f8f0e73600180b9555,2021-09-08_14h18.29.631,forced_choiceRT,2021.1.2,Win32,59.90893841,,,,,,,,9,Ontime,g,1,2.0178,5,1,21,1,1,,,,,
,1.23,,,,,,,,,j.PNG,j,5cb7d2f8f0e73600180b9555,2021-09-08_14h18.29.631,forced_choiceRT,2021.1.2,Win32,59.90893841,,,,,,,,9,Ontime,j,1,1.9678,5,2,22,3,1,,,,,
,1.48,,,,,,,,,f.PNG,f,5cb7d2f8f0e73600180b9555,2021-09-08_14h18.29.631,forced_choiceRT,2021.1.2,Win32,59.90893841,,,,,,,,9,Ontime,f,1,2.0714,5,3,23,0,1,,,,,
,0.22,,,,,,,,,f.PNG,f,5cb7d2f8f0e73600180b9555,2021-09-08_14h18.29.631,forced_choiceRT,2021.1.2,Win32,59.90893841,,,,,,,,9,Ontime,f,1,2.037,6,0,24,0,1,,,,,
,1.06,,,,,,,,,f.PNG,f,5cb7d2f8f0e73600180b9555,2021-09-08_14h18.29.631,forced_choiceRT,2021.1.2,Win32,59.90893841,,,,,,,,9,Ontime,f,1,2.0679,6,1,25,0,1,,,,,
,0.15,,,,,,,,,g.PNG,g,5cb7d2f8f0e73600180b9555,2021-09-08_14h18.29.631,forced_choiceRT,2021.1.2,Win32,59.90893841,,,,,,,,9,Ontime,g,1,1.9843,6,2,26,1,1,,,,,
,0.59,,,,,,,,,h.PNG,h,5cb7d2f8f0e73600180b9555,2021-09-08_14h18.29.631,forced_choiceRT,2021.1.2,Win32,59.90893841,,,,,,,,9,Ontime,h,1,1.9936,6,3,27,2,1,,,,,
,1.15,,,,,,,,,h.PNG,h,5cb7d2f8f0e73600180b9555,2021-09-08_14h18.29.631,forced_choiceRT,2021.1.2,Win32,59.90893841,,,,,,,,9,Ontime,h,1,2.0268,7,0,28,2,1,,,,,
,1.14,,,,,,,,,j.PNG,j,5cb7d2f8f0e73600180b9555,2021-09-08_14h18.29.631,forced_choiceRT,2021.1.2,Win32,59.90893841,,,,,,,,9,Ontime,j,1,2.0846,7,1,29,3,1,,,,,
,1.58,,,,,,,,,g.PNG,g,5cb7d2f8f0e73600180b9555,2021-09-08_14h18.29.631,forced_choiceRT,2021.1.2,Win32,59.90893841,,,,,,,,9,Slow,h,0,2.1832,7,2,30,1,1,,,,,
,0.47,,,,,,,,,j.PNG,j,5cb7d2f8f0e73600180b9555,2021-09-08_14h18.29.631,forced_choiceRT,2021.1.2,Win32,59.90893841,,,,,,,,9,Ontime,j,1,2.0012,7,3,31,3,1,,,,,
,0.81,,,,,,,,,j.PNG,j,5cb7d2f8f0e73600180b9555,2021-09-08_14h18.29.631,forced_choiceRT,2021.1.2,Win32,59.90893841,,,,,,,,9,Slow,j,1,2.1012,8,0,32,3,1,,,,,
,0.83,,,,,,,,,f.PNG,f,5cb7d2f8f0e73600180b9555,2021-09-08_14h18.29.631,forced_choiceRT,2021.1.2,Win32,59.90893841,,,,,,,,9,Slow,f,1,2.1086,8,1,33,0,1,,,,,
,1.27,,,,,,,,,g.PNG,g,5cb7d2f8f0e73600180b9555,2021-09-08_14h18.29.631,forced_choiceRT,2021.1.2,Win32,59.90893841,,,,,,,,9,Ontime,g,1,2.0012,8,2,34,1,1,,,,,
,0.55,,,,,,,,,g.PNG,g,5cb7d2f8f0e73600180b9555,2021-09-08_14h18.29.631,forced_choiceRT,2021.1.2,Win32,59.90893841,,,,,,,,9,Ontime,g,1,2.0512,8,3,35,1,1,,,,,
,1.47,,,,,,,,,j.PNG,j,5cb7d2f8f0e73600180b9555,2021-09-08_14h18.29.631,forced_choiceRT,2021.1.2,Win32,59.90893841,,,,,,,,9,Ontime,j,1,2.0237,9,0,36,3,1,,,,,
,0.89,,,,,,,,,h.PNG,h,5cb7d2f8f0e73600180b9555,2021-09-08_14h18.29.631,forced_choiceRT,2021.1.2,Win32,59.90893841,,,,,,,,9,Ontime,h,1,2.0178,9,1,37,2,1,,,,,
,1.26,,,,,,,,,j.PNG,j,5cb7d2f8f0e73600180b9555,2021-09-08_14h18.29.631,forced_choiceRT,2021.1.2,Win32,59.90893841,,,,,,,,9,Ontime,j,1,2.0009,9,2,38,3,1,,,,,
,1.35,,,,,,,,,h.PNG,h,5cb7d2f8f0e73600180b9555,2021-09-08_14h18.29.631,forced_choiceRT,2021.1.2,Win32,59.90893841,,,,,,,,9,Ontime,h,1,1.9383,9,3,39,2,1,,,,,
,,,,,,,,,,,,5cb7d2f8f0e73600180b9555,2021-09-08_14h18.29.631,forced_choiceRT,2021.1.2,Win32,59.90893841,,,,,,,,,,,,,,,,,,8,0,8,0,1
,0.24,,,,,,,,,h.PNG,h,5cb7d2f8f0e73600180b9555,2021-09-08_14h18.29.631,forced_choiceRT,2021.1.2,Win32,59.90893841,,,,,,,,10,Ontime,h,1,1.9908,0,0,0,2,1,,,,,
,0.65,,,,,,,,,g.PNG,g,5cb7d2f8f0e73600180b9555,2021-09-08_14h18.29.631,forced_choiceRT,2021.1.2,Win32,59.90893841,,,,,,,,10,Ontime,g,1,1.9858,0,1,1,1,1,,,,,
,0.72,,,,,,,,,f.PNG,f,5cb7d2f8f0e73600180b9555,2021-09-08_14h18.29.631,forced_choiceRT,2021.1.2,Win32,59.90893841,,,,,,,,10,Ontime,f,1,2.0014,0,2,2,0,1,,,,,
,0.09,,,,,,,,,g.PNG,g,5cb7d2f8f0e73600180b9555,2021-09-08_14h18.29.631,forced_choiceRT,2021.1.2,Win32,59.90893841,,,,,,,,10,Ontime,g,1,2.0083,0,3,3,1,1,,,,,
,1.28,,,,,,,,,j.PNG,j,5cb7d2f8f0e73600180b9555,2021-09-08_14h18.29.631,forced_choiceRT,2021.1.2,Win32,59.90893841,,,,,,,,10,Ontime,j,1,2.0208,1,0,4,3,1,,,,,
,0.43,,,,,,,,,h.PNG,h,5cb7d2f8f0e73600180b9555,2021-09-08_14h18.29.631,forced_choiceRT,2021.1.2,Win32,59.90893841,,,,,,,,10,Fast,h,1,1.8756,1,1,5,2,1,,,,,
,0.2,,,,,,,,,g.PNG,g,5cb7d2f8f0e73600180b9555,2021-09-08_14h18.29.631,forced_choiceRT,2021.1.2,Win32,59.90893841,,,,,,,,10,Ontime,g,1,2.0844,1,2,6,1,1,,,,,
,0.83,,,,,,,,,g.PNG,g,5cb7d2f8f0e73600180b9555,2021-09-08_14h18.29.631,forced_choiceRT,2021.1.2,Win32,59.90893841,,,,,,,,10,Ontime,g,1,2.0402,1,3,7,1,1,,,,,
,1.99,,,,,,,,,h.PNG,h,5cb7d2f8f0e73600180b9555,2021-09-08_14h18.29.631,forced_choiceRT,2021.1.2,Win32,59.90893841,,,,,,,,10,Ontime,h,1,2.001,2,0,8,2,1,,,,,
,1.28,,,,,,,,,g.PNG,g,5cb7d2f8f0e73600180b9555,2021-09-08_14h18.29.631,forced_choiceRT,2021.1.2,Win32,59.90893841,,,,,,,,10,Ontime,g,1,2.0679,2,1,9,1,1,,,,,
,1.21,,,,,,,,,f.PNG,f,5cb7d2f8f0e73600180b9555,2021-09-08_14h18.29.631,forced_choiceRT,2021.1.2,Win32,59.90893841,,,,,,,,10,Ontime,f,1,1.9071,2,2,10,0,1,,,,,
,0.99,,,,,,,,,f.PNG,f,5cb7d2f8f0e73600180b9555,2021-09-08_14h18.29.631,forced_choiceRT,2021.1.2,Win32,59.90893841,,,,,,,,10,Ontime,f,1,2.0846,2,3,11,0,1,,,,,
,0.68,,,,,,,,,h.PNG,h,5cb7d2f8f0e73600180b9555,2021-09-08_14h18.29.631,forced_choiceRT,2021.1.2,Win32,59.90893841,,,,,,,,10,Ontime,h,1,2.0034,3,0,12,2,1,,,,,
,1.24,,,,,,,,,h.PNG,h,5cb7d2f8f0e73600180b9555,2021-09-08_14h18.29.631,forced_choiceRT,2021.1.2,Win32,59.90893841,,,,,,,,10,Ontime,h,1,1.974,3,1,13,2,1,,,,,
,1.33,,,,,,,,,g.PNG,g,5cb7d2f8f0e73600180b9555,2021-09-08_14h18.29.631,forced_choiceRT,2021.1.2,Win32,59.90893841,,,,,,,,10,Ontime,g,1,2.0511,3,2,14,1,1,,,,,
,1.04,,,,,,,,,f.PNG,f,5cb7d2f8f0e73600180b9555,2021-09-08_14h18.29.631,forced_choiceRT,2021.1.2,Win32,59.90893841,,,,,,,,10,Ontime,f,1,2.0511,3,3,15,0,1,,,,,
,1.6,,,,,,,,,f.PNG,f,5cb7d2f8f0e73600180b9555,2021-09-08_14h18.29.631,forced_choiceRT,2021.1.2,Win32,59.90893841,,,,,,,,10,Slow,g,0,2.1192,4,0,16,0,1,,,,,
,1.3,,,,,,,,,f.PNG,f,5cb7d2f8f0e73600180b9555,2021-09-08_14h18.29.631,forced_choiceRT,2021.1.2,Win32,59.90893841,,,,,,,,10,Ontime,f,1,2.043,4,1,17,0,1,,,,,
,0.93,,,,,,,,,j.PNG,j,5cb7d2f8f0e73600180b9555,2021-09-08_14h18.29.631,forced_choiceRT,2021.1.2,Win32,59.90893841,,,,,,,,10,Ontime,j,1,1.9791,4,2,18,3,1,,,,,
,1.88,,,,,,,,,f.PNG,f,5cb7d2f8f0e73600180b9555,2021-09-08_14h18.29.631,forced_choiceRT,2021.1.2,Win32,59.90893841,,,,,,,,10,Ontime,j,0,2.0012,4,3,19,0,1,,,,,
,0.12,,,,,,,,,g.PNG,g,5cb7d2f8f0e73600180b9555,2021-09-08_14h18.29.631,forced_choiceRT,2021.1.2,Win32,59.90893841,,,,,,,,10,Ontime,g,1,2.0344,5,0,20,1,1,,,,,
,0.42,,,,,,,,,f.PNG,f,5cb7d2f8f0e73600180b9555,2021-09-08_14h18.29.631,forced_choiceRT,2021.1.2,Win32,59.90893841,,,,,,,,10,Ontime,f,1,2.0234,5,1,21,0,1,,,,,
,0.48,,,,,,,,,g.PNG,g,5cb7d2f8f0e73600180b9555,2021-09-08_14h18.29.631,forced_choiceRT,2021.1.2,Win32,59.90893841,,,,,,,,10,Ontime,g,1,2.0343,5,2,22,1,1,,,,,
,1.44,,,,,,,,,h.PNG,h,5cb7d2f8f0e73600180b9555,2021-09-08_14h18.29.631,forced_choiceRT,2021.1.2,Win32,59.90893841,,,,,,,,10,Ontime,j,0,2.0015,5,3,23,2,1,,,,,
,1.94,,,,,,,,,j.PNG,j,5cb7d2f8f0e73600180b9555,2021-09-08_14h18.29.631,forced_choiceRT,2021.1.2,Win32,59.90893841,,,,,,,,10,Ontime,j,1,1.9709,6,0,24,3,1,,,,,
,1.84,,,,,,,,,j.PNG,j,5cb7d2f8f0e73600180b9555,2021-09-08_14h18.29.631,forced_choiceRT,2021.1.2,Win32,59.90893841,,,,,,,,10,Ontime,h,0,1.9376,6,1,25,3,1,,,,,
,1.3,,,,,,,,,j.PNG,j,5cb7d2f8f0e73600180b9555,2021-09-08_14h18.29.631,forced_choiceRT,2021.1.2,Win32,59.90893841,,,,,,,,10,Ontime,j,1,2.0178,6,2,26,3,1,,,,,
,1.74,,,,,,,,,j.PNG,j,5cb7d2f8f0e73600180b9555,2021-09-08_14h18.29.631,forced_choiceRT,2021.1.2,Win32,59.90893841,,,,,,,,10,Ontime,j,1,1.951,6,3,27,3,1,,,,,
,1.56,,,,,,,,,f.PNG,f,5cb7d2f8f0e73600180b9555,2021-09-08_14h18.29.631,forced_choiceRT,2021.1.2,Win32,59.90893841,,,,,,,,10,Ontime,g,0,2.0845,7,0,28,0,1,,,,,
,0.89,,,,,,,,,g.PNG,g,5cb7d2f8f0e73600180b9555,2021-09-08_14h18.29.631,forced_choiceRT,2021.1.2,Win32,59.90893841,,,,,,,,10,Ontime,g,1,2.0813,7,1,29,1,1,,,,,
,1.54,,,,,,,,,j.PNG,j,5cb7d2f8f0e73600180b9555,2021-09-08_14h18.29.631,forced_choiceRT,2021.1.2,Win32,59.90893841,,,,,,,,10,Ontime,j,1,2.0845,7,2,30,3,1,,,,,
,0.04,,,,,,,,,j.PNG,j,5cb7d2f8f0e73600180b9555,2021-09-08_14h18.29.631,forced_choiceRT,2021.1.2,Win32,59.90893841,,,,,,,,10,Ontime,j,1,1.9844,7,3,31,3,1,,,,,
,0.16,,,,,,,,,h.PNG,h,5cb7d2f8f0e73600180b9555,2021-09-08_14h18.29.631,forced_choiceRT,2021.1.2,Win32,59.90893841,,,,,,,,10,Ontime,h,1,1.9844,8,0,32,2,1,,,,,
,0.53,,,,,,,,,h.PNG,h,5cb7d2f8f0e73600180b9555,2021-09-08_14h18.29.631,forced_choiceRT,2021.1.2,Win32,59.90893841,,,,,,,,10,Ontime,h,1,2.0096,8,1,33,2,1,,,,,
,1.52,,,,,,,,,j.PNG,j,5cb7d2f8f0e73600180b9555,2021-09-08_14h18.29.631,forced_choiceRT,2021.1.2,Win32,59.90893841,,,,,,,,10,Ontime,h,0,1.9511,8,2,34,3,1,,,,,
,1.08,,,,,,,,,f.PNG,f,5cb7d2f8f0e73600180b9555,2021-09-08_14h18.29.631,forced_choiceRT,2021.1.2,Win32,59.90893841,,,,,,,,10,Ontime,f,1,2.0591,8,3,35,0,1,,,,,
,0.3,,,,,,,,,h.PNG,h,5cb7d2f8f0e73600180b9555,2021-09-08_14h18.29.631,forced_choiceRT,2021.1.2,Win32,59.90893841,,,,,,,,10,Ontime,h,1,1.9776,9,0,36,2,1,,,,,
,0.56,,,,,,,,,h.PNG,h,5cb7d2f8f0e73600180b9555,2021-09-08_14h18.29.631,forced_choiceRT,2021.1.2,Win32,59.90893841,,,,,,,,10,Ontime,h,1,1.9915,9,1,37,2,1,,,,,
,0.51,,,,,,,,,j.PNG,j,5cb7d2f8f0e73600180b9555,2021-09-08_14h18.29.631,forced_choiceRT,2021.1.2,Win32,59.90893841,,,,,,,,10,Ontime,j,1,1.9476,9,2,38,3,1,,,,,
,1.78,,,,,,,,,g.PNG,g,5cb7d2f8f0e73600180b9555,2021-09-08_14h18.29.631,forced_choiceRT,2021.1.2,Win32,59.90893841,,,,,,,,10,Ontime,j,0,1.98,9,3,39,1,1,,,,,
,,,,,,,,,,,,5cb7d2f8f0e73600180b9555,2021-09-08_14h18.29.631,forced_choiceRT,2021.1.2,Win32,59.90893841,,,,,,,,,,,,,,,,,,9,0,9,0,1
