IP_Addresss,target_onset,trial_resp_sp.keys,trial_resp_sp.corr,trial_resp_sp.rt,trials_train_loop.thisRepN,trials_train_loop.thisTrialN,trials_train_loop.thisN,trials_train_loop.thisIndex,trials_train_loop.ran,pic,correct_key,participant,date,expName,psychopyVersion,OS,frameRate,trial_resp_timing.keys,trial_resp_timing.rt,trials_train_timing.thisRepN,trials_train_timing.thisTrialN,trials_train_timing.thisN,trials_train_timing.thisIndex,trials_train_timing.ran,block_id,ontime,forcedRT_resp.keys,forcedRT_resp.corr,forcedRT_resp.rt,trials.thisRepN,trials.thisTrialN,trials.thisN,trials.thisIndex,trials.ran,blocks.thisRepN,blocks.thisTrialN,blocks.thisN,blocks.thisIndex,blocks.ran
69.172.161.108,0,g,1,2.018,0,0,0,1,1,g.PNG,g,5d27face6543780001951271,2021-09-08_12h32.55.544,forced_choiceRT,2021.1.2,MacIntel,38.46153846,,,,,,,,,,,,,,,,,,,,,,
,0,g,1,1.323,0,1,1,1,1,g.PNG,g,5d27face6543780001951271,2021-09-08_12h32.55.544,forced_choiceRT,2021.1.2,MacIntel,38.46153846,,,,,,,,,,,,,,,,,,,,,,
,0,h,1,1.155,0,2,2,2,1,h.PNG,h,5d27face6543780001951271,2021-09-08_12h32.55.544,forced_choiceRT,2021.1.2,MacIntel,38.46153846,,,,,,,,,,,,,,,,,,,,,,
,0,f,1,0.863,0,3,3,0,1,f.PNG,f,5d27face6543780001951271,2021-09-08_12h32.55.544,forced_choiceRT,2021.1.2,MacIntel,38.46153846,,,,,,,,,,,,,,,,,,,,,,
,0,h,1,0.896,1,0,4,2,1,h.PNG,h,5d27face6543780001951271,2021-09-08_12h32.55.544,forced_choiceRT,2021.1.2,MacIntel,38.46153846,,,,,,,,,,,,,,,,,,,,,,
,0,f,1,0.796,1,1,5,0,1,f.PNG,f,5d27face6543780001951271,2021-09-08_12h32.55.544,forced_choiceRT,2021.1.2,MacIntel,38.46153846,,,,,,,,,,,,,,,,,,,,,,
,0,h,0,1.487,1,2,6,3,1,j.PNG,j,5d27face6543780001951271,2021-09-08_12h32.55.544,forced_choiceRT,2021.1.2,MacIntel,38.46153846,,,,,,,,,,,,,,,,,,,,,,
,0,f,1,1.399,1,3,7,0,1,f.PNG,f,5d27face6543780001951271,2021-09-08_12h32.55.544,forced_choiceRT,2021.1.2,MacIntel,38.46153846,,,,,,,,,,,,,,,,,,,,,,
,0,j,1,2.032,2,0,8,3,1,j.PNG,j,5d27face6543780001951271,2021-09-08_12h32.55.544,forced_choiceRT,2021.1.2,MacIntel,38.46153846,,,,,,,,,,,,,,,,,,,,,,
,0,h,1,1.614,2,1,9,2,1,h.PNG,h,5d27face6543780001951271,2021-09-08_12h32.55.544,forced_choiceRT,2021.1.2,MacIntel,38.46153846,,,,,,,,,,,,,,,,,,,,,,
,0,h,1,1.716,2,2,10,2,1,h.PNG,h,5d27face6543780001951271,2021-09-08_12h32.55.544,forced_choiceRT,2021.1.2,MacIntel,38.46153846,,,,,,,,,,,,,,,,,,,,,,
,0,f,1,0.874,2,3,11,0,1,f.PNG,f,5d27face6543780001951271,2021-09-08_12h32.55.544,forced_choiceRT,2021.1.2,MacIntel,38.46153846,,,,,,,,,,,,,,,,,,,,,,
,0,f,1,0.731,3,0,12,0,1,f.PNG,f,5d27face6543780001951271,2021-09-08_12h32.55.544,forced_choiceRT,2021.1.2,MacIntel,38.46153846,,,,,,,,,,,,,,,,,,,,,,
,0,h,1,1.644,3,1,13,2,1,h.PNG,h,5d27face6543780001951271,2021-09-08_12h32.55.544,forced_choiceRT,2021.1.2,MacIntel,38.46153846,,,,,,,,,,,,,,,,,,,,,,
,0,h,1,1.006,3,2,14,2,1,h.PNG,h,5d27face6543780001951271,2021-09-08_12h32.55.544,forced_choiceRT,2021.1.2,MacIntel,38.46153846,,,,,,,,,,,,,,,,,,,,,,
,0,j,1,2.038,3,3,15,3,1,j.PNG,j,5d27face6543780001951271,2021-09-08_12h32.55.544,forced_choiceRT,2021.1.2,MacIntel,38.46153846,,,,,,,,,,,,,,,,,,,,,,
,0,f,1,0.875,4,0,16,0,1,f.PNG,f,5d27face6543780001951271,2021-09-08_12h32.55.544,forced_choiceRT,2021.1.2,MacIntel,38.46153846,,,,,,,,,,,,,,,,,,,,,,
,0,f,1,0.662,4,1,17,0,1,f.PNG,f,5d27face6543780001951271,2021-09-08_12h32.55.544,forced_choiceRT,2021.1.2,MacIntel,38.46153846,,,,,,,,,,,,,,,,,,,,,,
,0,j,1,1.43,4,2,18,3,1,j.PNG,j,5d27face6543780001951271,2021-09-08_12h32.55.544,forced_choiceRT,2021.1.2,MacIntel,38.46153846,,,,,,,,,,,,,,,,,,,,,,
,0,f,1,0.798,4,3,19,0,1,f.PNG,f,5d27face6543780001951271,2021-09-08_12h32.55.544,forced_choiceRT,2021.1.2,MacIntel,38.46153846,,,,,,,,,,,,,,,,,,,,,,
,0,f,1,0.53,5,0,20,0,1,f.PNG,f,5d27face6543780001951271,2021-09-08_12h32.55.544,forced_choiceRT,2021.1.2,MacIntel,38.46153846,,,,,,,,,,,,,,,,,,,,,,
,0,g,1,1.506,5,1,21,1,1,g.PNG,g,5d27face6543780001951271,2021-09-08_12h32.55.544,forced_choiceRT,2021.1.2,MacIntel,38.46153846,,,,,,,,,,,,,,,,,,,,,,
,0,f,1,1.099,5,2,22,0,1,f.PNG,f,5d27face6543780001951271,2021-09-08_12h32.55.544,forced_choiceRT,2021.1.2,MacIntel,38.46153846,,,,,,,,,,,,,,,,,,,,,,
,0,h,1,1.075,5,3,23,2,1,h.PNG,h,5d27face6543780001951271,2021-09-08_12h32.55.544,forced_choiceRT,2021.1.2,MacIntel,38.46153846,,,,,,,,,,,,,,,,,,,,,,
,0,h,1,1.03,6,0,24,2,1,h.PNG,h,5d27face6543780001951271,2021-09-08_12h32.55.544,forced_choiceRT,2021.1.2,MacIntel,38.46153846,,,,,,,,,,,,,,,,,,,,,,
,0,g,1,3.082,6,1,25,1,1,g.PNG,g,5d27face6543780001951271,2021-09-08_12h32.55.544,forced_choiceRT,2021.1.2,MacIntel,38.46153846,,,,,,,,,,,,,,,,,,,,,,
,0,j,1,0.993,6,2,26,3,1,j.PNG,j,5d27face6543780001951271,2021-09-08_12h32.55.544,forced_choiceRT,2021.1.2,MacIntel,38.46153846,,,,,,,,,,,,,,,,,,,,,,
,0,j,1,1.757,6,3,27,3,1,j.PNG,j,5d27face6543780001951271,2021-09-08_12h32.55.544,forced_choiceRT,2021.1.2,MacIntel,38.46153846,,,,,,,,,,,,,,,,,,,,,,
,0,h,1,1.348,7,0,28,2,1,h.PNG,h,5d27face6543780001951271,2021-09-08_12h32.55.544,forced_choiceRT,2021.1.2,MacIntel,38.46153846,,,,,,,,,,,,,,,,,,,,,,
,0,g,1,0.975,7,1,29,1,1,g.PNG,g,5d27face6543780001951271,2021-09-08_12h32.55.544,forced_choiceRT,2021.1.2,MacIntel,38.46153846,,,,,,,,,,,,,,,,,,,,,,
,0,g,1,0.814,7,2,30,1,1,g.PNG,g,5d27face6543780001951271,2021-09-08_12h32.55.544,forced_choiceRT,2021.1.2,MacIntel,38.46153846,,,,,,,,,,,,,,,,,,,,,,
,0,h,1,1.314,7,3,31,2,1,h.PNG,h,5d27face6543780001951271,2021-09-08_12h32.55.544,forced_choiceRT,2021.1.2,MacIntel,38.46153846,,,,,,,,,,,,,,,,,,,,,,
,0,g,1,1.192,8,0,32,1,1,g.PNG,g,5d27face6543780001951271,2021-09-08_12h32.55.544,forced_choiceRT,2021.1.2,MacIntel,38.46153846,,,,,,,,,,,,,,,,,,,,,,
,0,h,1,0.904,8,1,33,2,1,h.PNG,h,5d27face6543780001951271,2021-09-08_12h32.55.544,forced_choiceRT,2021.1.2,MacIntel,38.46153846,,,,,,,,,,,,,,,,,,,,,,
,0,g,1,1.147,8,2,34,1,1,g.PNG,g,5d27face6543780001951271,2021-09-08_12h32.55.544,forced_choiceRT,2021.1.2,MacIntel,38.46153846,,,,,,,,,,,,,,,,,,,,,,
,0,f,1,0.791,8,3,35,0,1,f.PNG,f,5d27face6543780001951271,2021-09-08_12h32.55.544,forced_choiceRT,2021.1.2,MacIntel,38.46153846,,,,,,,,,,,,,,,,,,,,,,
,0,h,1,1.233,9,0,36,2,1,h.PNG,h,5d27face6543780001951271,2021-09-08_12h32.55.544,forced_choiceRT,2021.1.2,MacIntel,38.46153846,,,,,,,,,,,,,,,,,,,,,,
,0,j,1,2.009,9,1,37,3,1,j.PNG,j,5d27face6543780001951271,2021-09-08_12h32.55.544,forced_choiceRT,2021.1.2,MacIntel,38.46153846,,,,,,,,,,,,,,,,,,,,,,
,0,h,1,1.232,9,2,38,2,1,h.PNG,h,5d27face6543780001951271,2021-09-08_12h32.55.544,forced_choiceRT,2021.1.2,MacIntel,38.46153846,,,,,,,,,,,,,,,,,,,,,,
,0,h,1,1.415,9,3,39,2,1,h.PNG,h,5d27face6543780001951271,2021-09-08_12h32.55.544,forced_choiceRT,2021.1.2,MacIntel,38.46153846,,,,,,,,,,,,,,,,,,,,,,
,0,g,1,1.249,10,0,40,1,1,g.PNG,g,5d27face6543780001951271,2021-09-08_12h32.55.544,forced_choiceRT,2021.1.2,MacIntel,38.46153846,,,,,,,,,,,,,,,,,,,,,,
,0,g,1,0.85,10,1,41,1,1,g.PNG,g,5d27face6543780001951271,2021-09-08_12h32.55.544,forced_choiceRT,2021.1.2,MacIntel,38.46153846,,,,,,,,,,,,,,,,,,,,,,
,0,j,1,0.76,10,2,42,3,1,j.PNG,j,5d27face6543780001951271,2021-09-08_12h32.55.544,forced_choiceRT,2021.1.2,MacIntel,38.46153846,,,,,,,,,,,,,,,,,,,,,,
,0,h,1,1.364,10,3,43,2,1,h.PNG,h,5d27face6543780001951271,2021-09-08_12h32.55.544,forced_choiceRT,2021.1.2,MacIntel,38.46153846,,,,,,,,,,,,,,,,,,,,,,
,0,j,1,1.842,11,0,44,3,1,j.PNG,j,5d27face6543780001951271,2021-09-08_12h32.55.544,forced_choiceRT,2021.1.2,MacIntel,38.46153846,,,,,,,,,,,,,,,,,,,,,,
,0,f,1,0.9,11,1,45,0,1,f.PNG,f,5d27face6543780001951271,2021-09-08_12h32.55.544,forced_choiceRT,2021.1.2,MacIntel,38.46153846,,,,,,,,,,,,,,,,,,,,,,
,0,f,1,0.874,11,2,46,0,1,f.PNG,f,5d27face6543780001951271,2021-09-08_12h32.55.544,forced_choiceRT,2021.1.2,MacIntel,38.46153846,,,,,,,,,,,,,,,,,,,,,,
,0,f,1,0.532,11,3,47,0,1,f.PNG,f,5d27face6543780001951271,2021-09-08_12h32.55.544,forced_choiceRT,2021.1.2,MacIntel,38.46153846,,,,,,,,,,,,,,,,,,,,,,
,0,g,1,1.164,12,0,48,1,1,g.PNG,g,5d27face6543780001951271,2021-09-08_12h32.55.544,forced_choiceRT,2021.1.2,MacIntel,38.46153846,,,,,,,,,,,,,,,,,,,,,,
,0,g,1,0.701,12,1,49,1,1,g.PNG,g,5d27face6543780001951271,2021-09-08_12h32.55.544,forced_choiceRT,2021.1.2,MacIntel,38.46153846,,,,,,,,,,,,,,,,,,,,,,
,0,j,1,0.815,12,2,50,3,1,j.PNG,j,5d27face6543780001951271,2021-09-08_12h32.55.544,forced_choiceRT,2021.1.2,MacIntel,38.46153846,,,,,,,,,,,,,,,,,,,,,,
,0,j,1,0.645,12,3,51,3,1,j.PNG,j,5d27face6543780001951271,2021-09-08_12h32.55.544,forced_choiceRT,2021.1.2,MacIntel,38.46153846,,,,,,,,,,,,,,,,,,,,,,
,0,j,1,1.117,13,0,52,3,1,j.PNG,j,5d27face6543780001951271,2021-09-08_12h32.55.544,forced_choiceRT,2021.1.2,MacIntel,38.46153846,,,,,,,,,,,,,,,,,,,,,,
,0,j,1,0.597,13,1,53,3,1,j.PNG,j,5d27face6543780001951271,2021-09-08_12h32.55.544,forced_choiceRT,2021.1.2,MacIntel,38.46153846,,,,,,,,,,,,,,,,,,,,,,
,0,f,1,0.582,13,2,54,0,1,f.PNG,f,5d27face6543780001951271,2021-09-08_12h32.55.544,forced_choiceRT,2021.1.2,MacIntel,38.46153846,,,,,,,,,,,,,,,,,,,,,,
,0,g,1,0.964,13,3,55,1,1,g.PNG,g,5d27face6543780001951271,2021-09-08_12h32.55.544,forced_choiceRT,2021.1.2,MacIntel,38.46153846,,,,,,,,,,,,,,,,,,,,,,
,0,j,1,0.812,14,0,56,3,1,j.PNG,j,5d27face6543780001951271,2021-09-08_12h32.55.544,forced_choiceRT,2021.1.2,MacIntel,38.46153846,,,,,,,,,,,,,,,,,,,,,,
,0,g,1,0.924,14,1,57,1,1,g.PNG,g,5d27face6543780001951271,2021-09-08_12h32.55.544,forced_choiceRT,2021.1.2,MacIntel,38.46153846,,,,,,,,,,,,,,,,,,,,,,
,0,j,1,1.319,14,2,58,3,1,j.PNG,j,5d27face6543780001951271,2021-09-08_12h32.55.544,forced_choiceRT,2021.1.2,MacIntel,38.46153846,,,,,,,,,,,,,,,,,,,,,,
,0,g,1,0.743,14,3,59,1,1,g.PNG,g,5d27face6543780001951271,2021-09-08_12h32.55.544,forced_choiceRT,2021.1.2,MacIntel,38.46153846,,,,,,,,,,,,,,,,,,,,,,
,,,,,,,,,,,,5d27face6543780001951271,2021-09-08_12h32.55.544,forced_choiceRT,2021.1.2,MacIntel,38.46153846,f,1.299,0,0,0,0,1,,,,,,,,,,,,,,,
,,,,,,,,,,,,5d27face6543780001951271,2021-09-08_12h32.55.544,forced_choiceRT,2021.1.2,MacIntel,38.46153846,h,2.299,1,0,1,0,1,,,,,,,,,,,,,,,
,,,,,,,,,,,,5d27face6543780001951271,2021-09-08_12h32.55.544,forced_choiceRT,2021.1.2,MacIntel,38.46153846,j,1.784,2,0,2,0,1,,,,,,,,,,,,,,,
,,,,,,,,,,,,5d27face6543780001951271,2021-09-08_12h32.55.544,forced_choiceRT,2021.1.2,MacIntel,38.46153846,f,2.195,3,0,3,0,1,,,,,,,,,,,,,,,
,,,,,,,,,,,,5d27face6543780001951271,2021-09-08_12h32.55.544,forced_choiceRT,2021.1.2,MacIntel,38.46153846,j,1.785,4,0,4,0,1,,,,,,,,,,,,,,,
,,,,,,,,,,,,5d27face6543780001951271,2021-09-08_12h32.55.544,forced_choiceRT,2021.1.2,MacIntel,38.46153846,g,1.893,5,0,5,0,1,,,,,,,,,,,,,,,
,,,,,,,,,,,,5d27face6543780001951271,2021-09-08_12h32.55.544,forced_choiceRT,2021.1.2,MacIntel,38.46153846,j,2.026,6,0,6,0,1,,,,,,,,,,,,,,,
,,,,,,,,,,,,5d27face6543780001951271,2021-09-08_12h32.55.544,forced_choiceRT,2021.1.2,MacIntel,38.46153846,g,2.128,7,0,7,0,1,,,,,,,,,,,,,,,
,,,,,,,,,,,,5d27face6543780001951271,2021-09-08_12h32.55.544,forced_choiceRT,2021.1.2,MacIntel,38.46153846,h,1.869,8,0,8,0,1,,,,,,,,,,,,,,,
,,,,,,,,,,,,5d27face6543780001951271,2021-09-08_12h32.55.544,forced_choiceRT,2021.1.2,MacIntel,38.46153846,g,2.1,9,0,9,0,1,,,,,,,,,,,,,,,
,,,,,,,,,,,,5d27face6543780001951271,2021-09-08_12h32.55.544,forced_choiceRT,2021.1.2,MacIntel,38.46153846,h,1.833,10,0,10,0,1,,,,,,,,,,,,,,,
,,,,,,,,,,,,5d27face6543780001951271,2021-09-08_12h32.55.544,forced_choiceRT,2021.1.2,MacIntel,38.46153846,g,2.016,11,0,11,0,1,,,,,,,,,,,,,,,
,,,,,,,,,,,,5d27face6543780001951271,2021-09-08_12h32.55.544,forced_choiceRT,2021.1.2,MacIntel,38.46153846,h,2.067,12,0,12,0,1,,,,,,,,,,,,,,,
,,,,,,,,,,,,5d27face6543780001951271,2021-09-08_12h32.55.544,forced_choiceRT,2021.1.2,MacIntel,38.46153846,g,2.11,13,0,13,0,1,,,,,,,,,,,,,,,
,,,,,,,,,,,,5d27face6543780001951271,2021-09-08_12h32.55.544,forced_choiceRT,2021.1.2,MacIntel,38.46153846,h,1.965,14,0,14,0,1,,,,,,,,,,,,,,,
,,,,,,,,,,,,5d27face6543780001951271,2021-09-08_12h32.55.544,forced_choiceRT,2021.1.2,MacIntel,38.46153846,g,1.936,15,0,15,0,1,,,,,,,,,,,,,,,
,,,,,,,,,,,,5d27face6543780001951271,2021-09-08_12h32.55.544,forced_choiceRT,2021.1.2,MacIntel,38.46153846,h,1.999,16,0,16,0,1,,,,,,,,,,,,,,,
,,,,,,,,,,,,5d27face6543780001951271,2021-09-08_12h32.55.544,forced_choiceRT,2021.1.2,MacIntel,38.46153846,g,1.97,17,0,17,0,1,,,,,,,,,,,,,,,
,,,,,,,,,,,,5d27face6543780001951271,2021-09-08_12h32.55.544,forced_choiceRT,2021.1.2,MacIntel,38.46153846,j,1.84,18,0,18,0,1,,,,,,,,,,,,,,,
,,,,,,,,,,,,5d27face6543780001951271,2021-09-08_12h32.55.544,forced_choiceRT,2021.1.2,MacIntel,38.46153846,g,2.083,19,0,19,0,1,,,,,,,,,,,,,,,
,1.61,,,,,,,,,g.PNG,g,5d27face6543780001951271,2021-09-08_12h32.55.544,forced_choiceRT,2021.1.2,MacIntel,38.46153846,,,,,,,,1,Ontime,j,0,1.932,0,0,0,1,1,,,,,
,1.55,,,,,,,,,f.PNG,f,5d27face6543780001951271,2021-09-08_12h32.55.544,forced_choiceRT,2021.1.2,MacIntel,38.46153846,,,,,,,,1,Fast,f,1,1.849,0,1,1,0,1,,,,,
,1.47,,,,,,,,,f.PNG,f,5d27face6543780001951271,2021-09-08_12h32.55.544,forced_choiceRT,2021.1.2,MacIntel,38.46153846,,,,,,,,1,Fast,j,0,1.797,0,2,2,0,1,,,,,
,0.04,,,,,,,,,h.PNG,h,5d27face6543780001951271,2021-09-08_12h32.55.544,forced_choiceRT,2021.1.2,MacIntel,38.46153846,,,,,,,,1,Fast,g,0,0.699,0,3,3,2,1,,,,,
,0.4,,,,,,,,,f.PNG,f,5d27face6543780001951271,2021-09-08_12h32.55.544,forced_choiceRT,2021.1.2,MacIntel,38.46153846,,,,,,,,1,Fast,f,1,1.119,1,0,4,0,1,,,,,
,1.86,,,,,,,,,j.PNG,j,5d27face6543780001951271,2021-09-08_12h32.55.544,forced_choiceRT,2021.1.2,MacIntel,38.46153846,,,,,,,,1,Slow,j,1,2.132,1,1,5,3,1,,,,,
,0.34,,,,,,,,,h.PNG,h,5d27face6543780001951271,2021-09-08_12h32.55.544,forced_choiceRT,2021.1.2,MacIntel,38.46153846,,,,,,,,1,Fast,h,1,1.849,1,2,6,2,1,,,,,
,1.11,,,,,,,,,h.PNG,h,5d27face6543780001951271,2021-09-08_12h32.55.544,forced_choiceRT,2021.1.2,MacIntel,38.46153846,,,,,,,,1,Ontime,g,0,1.985,1,3,7,2,1,,,,,
,1.88,,,,,,,,,h.PNG,h,5d27face6543780001951271,2021-09-08_12h32.55.544,forced_choiceRT,2021.1.2,MacIntel,38.46153846,,,,,,,,1,Slow,j,0,2.351,2,0,8,2,1,,,,,
,0.07,,,,,,,,,j.PNG,j,5d27face6543780001951271,2021-09-08_12h32.55.544,forced_choiceRT,2021.1.2,MacIntel,38.46153846,,,,,,,,1,Ontime,g,0,1.9,2,1,9,3,1,,,,,
,0.03,,,,,,,,,g.PNG,g,5d27face6543780001951271,2021-09-08_12h32.55.544,forced_choiceRT,2021.1.2,MacIntel,38.46153846,,,,,,,,1,Fast,j,0,1.899,2,2,10,1,1,,,,,
,0.29,,,,,,,,,j.PNG,j,5d27face6543780001951271,2021-09-08_12h32.55.544,forced_choiceRT,2021.1.2,MacIntel,38.46153846,,,,,,,,1,Fast,g,0,1.777,2,3,11,3,1,,,,,
,1.37,,,,,,,,,h.PNG,h,5d27face6543780001951271,2021-09-08_12h32.55.544,forced_choiceRT,2021.1.2,MacIntel,38.46153846,,,,,,,,1,Ontime,g,0,2.034,3,0,12,2,1,,,,,
,0.76,,,,,,,,,g.PNG,g,5d27face6543780001951271,2021-09-08_12h32.55.544,forced_choiceRT,2021.1.2,MacIntel,38.46153846,,,,,,,,1,Fast,j,0,1.835,3,1,13,1,1,,,,,
,1.77,,,,,,,,,h.PNG,h,5d27face6543780001951271,2021-09-08_12h32.55.544,forced_choiceRT,2021.1.2,MacIntel,38.46153846,,,,,,,,1,Slow,g,0,2.299,3,2,14,2,1,,,,,
,1.4,,,,,,,,,h.PNG,h,5d27face6543780001951271,2021-09-08_12h32.55.544,forced_choiceRT,2021.1.2,MacIntel,38.46153846,,,,,,,,1,Ontime,f,0,1.969,3,3,15,2,1,,,,,
,1.18,,,,,,,,,g.PNG,g,5d27face6543780001951271,2021-09-08_12h32.55.544,forced_choiceRT,2021.1.2,MacIntel,38.46153846,,,,,,,,1,Ontime,g,1,2.026,4,0,16,1,1,,,,,
,1.86,,,,,,,,,j.PNG,j,5d27face6543780001951271,2021-09-08_12h32.55.544,forced_choiceRT,2021.1.2,MacIntel,38.46153846,,,,,,,,1,Ontime,h,0,2.05,4,1,17,3,1,,,,,
,1.57,,,,,,,,,g.PNG,g,5d27face6543780001951271,2021-09-08_12h32.55.544,forced_choiceRT,2021.1.2,MacIntel,38.46153846,,,,,,,,1,Slow,g,1,2.231,4,2,18,1,1,,,,,
,1.62,,,,,,,,,f.PNG,f,5d27face6543780001951271,2021-09-08_12h32.55.544,forced_choiceRT,2021.1.2,MacIntel,38.46153846,,,,,,,,1,Slow,j,0,2.144,4,3,19,0,1,,,,,
,0.37,,,,,,,,,h.PNG,h,5d27face6543780001951271,2021-09-08_12h32.55.544,forced_choiceRT,2021.1.2,MacIntel,38.46153846,,,,,,,,1,Fast,h,1,1.728,5,0,20,2,1,,,,,
,0.85,,,,,,,,,g.PNG,g,5d27face6543780001951271,2021-09-08_12h32.55.544,forced_choiceRT,2021.1.2,MacIntel,38.46153846,,,,,,,,1,Fast,g,1,1.616,5,1,21,1,1,,,,,
,1.85,,,,,,,,,g.PNG,g,5d27face6543780001951271,2021-09-08_12h32.55.544,forced_choiceRT,2021.1.2,MacIntel,38.46153846,,,,,,,,1,Slow,g,1,2.385,5,2,22,1,1,,,,,
,0.78,,,,,,,,,g.PNG,g,5d27face6543780001951271,2021-09-08_12h32.55.544,forced_choiceRT,2021.1.2,MacIntel,38.46153846,,,,,,,,1,Ontime,h,0,1.921,5,3,23,1,1,,,,,
,0.53,,,,,,,,,h.PNG,h,5d27face6543780001951271,2021-09-08_12h32.55.544,forced_choiceRT,2021.1.2,MacIntel,38.46153846,,,,,,,,1,Fast,g,0,1.8,6,0,24,2,1,,,,,
,1.47,,,,,,,,,g.PNG,g,5d27face6543780001951271,2021-09-08_12h32.55.544,forced_choiceRT,2021.1.2,MacIntel,38.46153846,,,,,,,,1,Slow,g,1,2.232,6,1,25,1,1,,,,,
,1.56,,,,,,,,,j.PNG,j,5d27face6543780001951271,2021-09-08_12h32.55.544,forced_choiceRT,2021.1.2,MacIntel,38.46153846,,,,,,,,1,Slow,j,1,2.216,6,2,26,3,1,,,,,
,0.17,,,,,,,,,j.PNG,j,5d27face6543780001951271,2021-09-08_12h32.55.544,forced_choiceRT,2021.1.2,MacIntel,38.46153846,,,,,,,,1,Ontime,g,0,1.917,6,3,27,3,1,,,,,
,0.64,,,,,,,,,f.PNG,f,5d27face6543780001951271,2021-09-08_12h32.55.544,forced_choiceRT,2021.1.2,MacIntel,38.46153846,,,,,,,,1,Fast,f,1,1.878,7,0,28,0,1,,,,,
,1.43,,,,,,,,,f.PNG,f,5d27face6543780001951271,2021-09-08_12h32.55.544,forced_choiceRT,2021.1.2,MacIntel,38.46153846,,,,,,,,1,Fast,f,1,1.801,7,1,29,0,1,,,,,
,0.95,,,,,,,,,f.PNG,f,5d27face6543780001951271,2021-09-08_12h32.55.544,forced_choiceRT,2021.1.2,MacIntel,38.46153846,,,,,,,,1,Ontime,f,1,1.949,7,2,30,0,1,,,,,
,0.6,,,,,,,,,h.PNG,h,5d27face6543780001951271,2021-09-08_12h32.55.544,forced_choiceRT,2021.1.2,MacIntel,38.46153846,,,,,,,,1,Fast,g,0,1.809,7,3,31,2,1,,,,,
,0.23,,,,,,,,,f.PNG,f,5d27face6543780001951271,2021-09-08_12h32.55.544,forced_choiceRT,2021.1.2,MacIntel,38.46153846,,,,,,,,1,Fast,f,1,1.867,8,0,32,0,1,,,,,
,1.78,,,,,,,,,j.PNG,j,5d27face6543780001951271,2021-09-08_12h32.55.544,forced_choiceRT,2021.1.2,MacIntel,38.46153846,,,,,,,,1,Ontime,g,0,2.061,8,1,33,3,1,,,,,
,0.84,,,,,,,,,g.PNG,g,5d27face6543780001951271,2021-09-08_12h32.55.544,forced_choiceRT,2021.1.2,MacIntel,38.46153846,,,,,,,,1,Fast,h,0,1.85,8,2,34,1,1,,,,,
,0.37,,,,,,,,,j.PNG,j,5d27face6543780001951271,2021-09-08_12h32.55.544,forced_choiceRT,2021.1.2,MacIntel,38.46153846,,,,,,,,1,Fast,g,0,1.666,8,3,35,3,1,,,,,
,0.97,,,,,,,,,j.PNG,j,5d27face6543780001951271,2021-09-08_12h32.55.544,forced_choiceRT,2021.1.2,MacIntel,38.46153846,,,,,,,,1,Fast,g,0,1.792,9,0,36,3,1,,,,,
,1.71,,,,,,,,,j.PNG,j,5d27face6543780001951271,2021-09-08_12h32.55.544,forced_choiceRT,2021.1.2,MacIntel,38.46153846,,,,,,,,1,Slow,g,0,2.226,9,1,37,3,1,,,,,
,0.78,,,,,,,,,f.PNG,f,5d27face6543780001951271,2021-09-08_12h32.55.544,forced_choiceRT,2021.1.2,MacIntel,38.46153846,,,,,,,,1,Ontime,f,1,1.944,9,2,38,0,1,,,,,
,0.84,,,,,,,,,f.PNG,f,5d27face6543780001951271,2021-09-08_12h32.55.544,forced_choiceRT,2021.1.2,MacIntel,38.46153846,,,,,,,,1,Fast,f,1,1.768,9,3,39,0,1,,,,,
,,,,,,,,,,,,5d27face6543780001951271,2021-09-08_12h32.55.544,forced_choiceRT,2021.1.2,MacIntel,38.46153846,,,,,,,,,,,,,,,,,,0,0,0,0,1
,1.4,,,,,,,,,f.PNG,f,5d27face6543780001951271,2021-09-08_12h32.55.544,forced_choiceRT,2021.1.2,MacIntel,38.46153846,,,,,,,,2,Slow,f,1,5.501,0,0,0,0,1,,,,,
,1.98,,,,,,,,,j.PNG,j,5d27face6543780001951271,2021-09-08_12h32.55.544,forced_choiceRT,2021.1.2,MacIntel,38.46153846,,,,,,,,2,Slow,f,0,2.384,0,1,1,3,1,,,,,
,1.57,,,,,,,,,g.PNG,g,5d27face6543780001951271,2021-09-08_12h32.55.544,forced_choiceRT,2021.1.2,MacIntel,38.46153846,,,,,,,,2,Slow,f,0,2.116,0,2,2,1,1,,,,,
,0.01,,,,,,,,,f.PNG,f,5d27face6543780001951271,2021-09-08_12h32.55.544,forced_choiceRT,2021.1.2,MacIntel,38.46153846,,,,,,,,2,Slow,j,0,12.482,0,3,3,0,1,,,,,
,0.53,,,,,,,,,h.PNG,h,5d27face6543780001951271,2021-09-08_12h32.55.544,forced_choiceRT,2021.1.2,MacIntel,38.46153846,,,,,,,,2,Fast,j,0,1.899,1,0,4,2,1,,,,,
,1.59,,,,,,,,,h.PNG,h,5d27face6543780001951271,2021-09-08_12h32.55.544,forced_choiceRT,2021.1.2,MacIntel,38.46153846,,,,,,,,2,Slow,f,0,2.185,1,1,5,2,1,,,,,
,1.58,,,,,,,,,j.PNG,j,5d27face6543780001951271,2021-09-08_12h32.55.544,forced_choiceRT,2021.1.2,MacIntel,38.46153846,,,,,,,,2,Slow,j,1,2.2,1,2,6,3,1,,,,,
,1.48,,,,,,,,,f.PNG,f,5d27face6543780001951271,2021-09-08_12h32.55.544,forced_choiceRT,2021.1.2,MacIntel,38.46153846,,,,,,,,2,Slow,j,0,8.751,1,3,7,0,1,,,,,
,1.03,,,,,,,,,h.PNG,h,5d27face6543780001951271,2021-09-08_12h32.55.544,forced_choiceRT,2021.1.2,MacIntel,38.46153846,,,,,,,,2,Ontime,f,0,1.949,2,0,8,2,1,,,,,
,1.62,,,,,,,,,h.PNG,h,5d27face6543780001951271,2021-09-08_12h32.55.544,forced_choiceRT,2021.1.2,MacIntel,38.46153846,,,,,,,,2,Slow,f,0,2.332,2,1,9,2,1,,,,,
,1.73,,,,,,,,,f.PNG,f,5d27face6543780001951271,2021-09-08_12h32.55.544,forced_choiceRT,2021.1.2,MacIntel,38.46153846,,,,,,,,2,Slow,f,1,7.332,2,2,10,0,1,,,,,
,1.91,,,,,,,,,g.PNG,g,5d27face6543780001951271,2021-09-08_12h32.55.544,forced_choiceRT,2021.1.2,MacIntel,38.46153846,,,,,,,,2,Ontime,f,0,2.059,2,3,11,1,1,,,,,
,0.06,,,,,,,,,f.PNG,f,5d27face6543780001951271,2021-09-08_12h32.55.544,forced_choiceRT,2021.1.2,MacIntel,38.46153846,,,,,,,,2,Fast,f,1,0.636,3,0,12,0,1,,,,,
,0.9,,,,,,,,,g.PNG,g,5d27face6543780001951271,2021-09-08_12h32.55.544,forced_choiceRT,2021.1.2,MacIntel,38.46153846,,,,,,,,2,Fast,g,1,1.56,3,1,13,1,1,,,,,
,0.34,,,,,,,,,j.PNG,j,5d27face6543780001951271,2021-09-08_12h32.55.544,forced_choiceRT,2021.1.2,MacIntel,38.46153846,,,,,,,,2,Fast,j,1,1.452,3,2,14,3,1,,,,,
,0.67,,,,,,,,,j.PNG,j,5d27face6543780001951271,2021-09-08_12h32.55.544,forced_choiceRT,2021.1.2,MacIntel,38.46153846,,,,,,,,2,Fast,j,1,1.598,3,3,15,3,1,,,,,
,1.55,,,,,,,,,h.PNG,h,5d27face6543780001951271,2021-09-08_12h32.55.544,forced_choiceRT,2021.1.2,MacIntel,38.46153846,,,,,,,,2,Slow,g,0,2.209,4,0,16,2,1,,,,,
,0.63,,,,,,,,,g.PNG,g,5d27face6543780001951271,2021-09-08_12h32.55.544,forced_choiceRT,2021.1.2,MacIntel,38.46153846,,,,,,,,2,Fast,g,1,1.465,4,1,17,1,1,,,,,
,0.67,,,,,,,,,h.PNG,h,5d27face6543780001951271,2021-09-08_12h32.55.544,forced_choiceRT,2021.1.2,MacIntel,38.46153846,,,,,,,,2,Ontime,g,0,1.942,4,2,18,2,1,,,,,
,1.12,,,,,,,,,j.PNG,j,5d27face6543780001951271,2021-09-08_12h32.55.544,forced_choiceRT,2021.1.2,MacIntel,38.46153846,,,,,,,,2,Ontime,j,1,1.999,4,3,19,3,1,,,,,
,0.56,,,,,,,,,h.PNG,h,5d27face6543780001951271,2021-09-08_12h32.55.544,forced_choiceRT,2021.1.2,MacIntel,38.46153846,,,,,,,,2,Fast,h,1,1.482,5,0,20,2,1,,,,,
,1.23,,,,,,,,,g.PNG,g,5d27face6543780001951271,2021-09-08_12h32.55.544,forced_choiceRT,2021.1.2,MacIntel,38.46153846,,,,,,,,2,Ontime,g,1,1.992,5,1,21,1,1,,,,,
,1.76,,,,,,,,,f.PNG,f,5d27face6543780001951271,2021-09-08_12h32.55.544,forced_choiceRT,2021.1.2,MacIntel,38.46153846,,,,,,,,2,Slow,f,1,2.331,5,2,22,0,1,,,,,
,0.97,,,,,,,,,h.PNG,h,5d27face6543780001951271,2021-09-08_12h32.55.544,forced_choiceRT,2021.1.2,MacIntel,38.46153846,,,,,,,,2,Fast,g,0,1.882,5,3,23,2,1,,,,,
,0.6,,,,,,,,,h.PNG,h,5d27face6543780001951271,2021-09-08_12h32.55.544,forced_choiceRT,2021.1.2,MacIntel,38.46153846,,,,,,,,2,Fast,g,0,1.798,6,0,24,2,1,,,,,
,0.76,,,,,,,,,g.PNG,g,5d27face6543780001951271,2021-09-08_12h32.55.544,forced_choiceRT,2021.1.2,MacIntel,38.46153846,,,,,,,,2,Ontime,j,0,1.999,6,1,25,1,1,,,,,
,1.91,,,,,,,,,j.PNG,j,5d27face6543780001951271,2021-09-08_12h32.55.544,forced_choiceRT,2021.1.2,MacIntel,38.46153846,,,,,,,,2,Slow,j,1,2.35,6,2,26,3,1,,,,,
,1.79,,,,,,,,,j.PNG,j,5d27face6543780001951271,2021-09-08_12h32.55.544,forced_choiceRT,2021.1.2,MacIntel,38.46153846,,,,,,,,2,Slow,g,0,2.376,6,3,27,3,1,,,,,
,0.58,,,,,,,,,g.PNG,g,5d27face6543780001951271,2021-09-08_12h32.55.544,forced_choiceRT,2021.1.2,MacIntel,38.46153846,,,,,,,,2,Ontime,g,1,1.952,7,0,28,1,1,,,,,
,1.18,,,,,,,,,h.PNG,h,5d27face6543780001951271,2021-09-08_12h32.55.544,forced_choiceRT,2021.1.2,MacIntel,38.46153846,,,,,,,,2,Ontime,h,1,1.977,7,1,29,2,1,,,,,
,0.76,,,,,,,,,g.PNG,g,5d27face6543780001951271,2021-09-08_12h32.55.544,forced_choiceRT,2021.1.2,MacIntel,38.46153846,,,,,,,,2,Fast,g,1,1.804,7,2,30,1,1,,,,,
,1.33,,,,,,,,,j.PNG,j,5d27face6543780001951271,2021-09-08_12h32.55.544,forced_choiceRT,2021.1.2,MacIntel,38.46153846,,,,,,,,2,Ontime,j,1,2.066,7,3,31,3,1,,,,,
,1.82,,,,,,,,,f.PNG,f,5d27face6543780001951271,2021-09-08_12h32.55.544,forced_choiceRT,2021.1.2,MacIntel,38.46153846,,,,,,,,2,Slow,f,1,2.327,8,0,32,0,1,,,,,
,1.03,,,,,,,,,f.PNG,f,5d27face6543780001951271,2021-09-08_12h32.55.544,forced_choiceRT,2021.1.2,MacIntel,38.46153846,,,,,,,,2,Fast,f,1,1.809,8,1,33,0,1,,,,,
,0.18,,,,,,,,,j.PNG,j,5d27face6543780001951271,2021-09-08_12h32.55.544,forced_choiceRT,2021.1.2,MacIntel,38.46153846,,,,,,,,2,Fast,j,1,1.761,8,2,34,3,1,,,,,
,0.23,,,,,,,,,f.PNG,f,5d27face6543780001951271,2021-09-08_12h32.55.544,forced_choiceRT,2021.1.2,MacIntel,38.46153846,,,,,,,,2,Ontime,f,1,2.002,8,3,35,0,1,,,,,
,1.05,,,,,,,,,g.PNG,g,5d27face6543780001951271,2021-09-08_12h32.55.544,forced_choiceRT,2021.1.2,MacIntel,38.46153846,,,,,,,,2,Fast,g,1,1.868,9,0,36,1,1,,,,,
,0.32,,,,,,,,,f.PNG,f,5d27face6543780001951271,2021-09-08_12h32.55.544,forced_choiceRT,2021.1.2,MacIntel,38.46153846,,,,,,,,2,Ontime,f,1,1.983,9,1,37,0,1,,,,,
,0.41,,,,,,,,,j.PNG,j,5d27face6543780001951271,2021-09-08_12h32.55.544,forced_choiceRT,2021.1.2,MacIntel,38.46153846,,,,,,,,2,Ontime,j,1,1.944,9,2,38,3,1,,,,,
,1.77,,,,,,,,,g.PNG,g,5d27face6543780001951271,2021-09-08_12h32.55.544,forced_choiceRT,2021.1.2,MacIntel,38.46153846,,,,,,,,2,Slow,h,0,2.182,9,3,39,1,1,,,,,
,,,,,,,,,,,,5d27face6543780001951271,2021-09-08_12h32.55.544,forced_choiceRT,2021.1.2,MacIntel,38.46153846,,,,,,,,,,,,,,,,,,1,0,1,0,1
,1.2,,,,,,,,,h.PNG,h,5d27face6543780001951271,2021-09-08_12h32.55.544,forced_choiceRT,2021.1.2,MacIntel,38.46153846,,,,,,,,3,Ontime,h,1,1.967,0,0,0,2,1,,,,,
,1.62,,,,,,,,,h.PNG,h,5d27face6543780001951271,2021-09-08_12h32.55.544,forced_choiceRT,2021.1.2,MacIntel,38.46153846,,,,,,,,3,Slow,g,0,3.666,0,1,1,2,1,,,,,
,1.33,,,,,,,,,g.PNG,g,5d27face6543780001951271,2021-09-08_12h32.55.544,forced_choiceRT,2021.1.2,MacIntel,38.46153846,,,,,,,,3,Fast,h,0,1.877,0,2,2,1,1,,,,,
,0.86,,,,,,,,,g.PNG,g,5d27face6543780001951271,2021-09-08_12h32.55.544,forced_choiceRT,2021.1.2,MacIntel,38.46153846,,,,,,,,3,Fast,g,1,1.701,0,3,3,1,1,,,,,
,1.37,,,,,,,,,j.PNG,j,5d27face6543780001951271,2021-09-08_12h32.55.544,forced_choiceRT,2021.1.2,MacIntel,38.46153846,,,,,,,,3,Ontime,h,0,1.982,1,0,4,3,1,,,,,
,1.31,,,,,,,,,g.PNG,g,5d27face6543780001951271,2021-09-08_12h32.55.544,forced_choiceRT,2021.1.2,MacIntel,38.46153846,,,,,,,,3,Ontime,g,1,1.935,1,1,5,1,1,,,,,
,0.4,,,,,,,,,g.PNG,g,5d27face6543780001951271,2021-09-08_12h32.55.544,forced_choiceRT,2021.1.2,MacIntel,38.46153846,,,,,,,,3,Fast,g,1,1.883,1,2,6,1,1,,,,,
,1.75,,,,,,,,,f.PNG,f,5d27face6543780001951271,2021-09-08_12h32.55.544,forced_choiceRT,2021.1.2,MacIntel,38.46153846,,,,,,,,3,Slow,f,1,2.3,1,3,7,0,1,,,,,
,0.96,,,,,,,,,h.PNG,h,5d27face6543780001951271,2021-09-08_12h32.55.544,forced_choiceRT,2021.1.2,MacIntel,38.46153846,,,,,,,,3,Ontime,h,1,1.932,2,0,8,2,1,,,,,
,1.99,,,,,,,,,h.PNG,h,5d27face6543780001951271,2021-09-08_12h32.55.544,forced_choiceRT,2021.1.2,MacIntel,38.46153846,,,,,,,,3,Slow,f,0,2.63,2,1,9,2,1,,,,,
,0.37,,,,,,,,,h.PNG,h,5d27face6543780001951271,2021-09-08_12h32.55.544,forced_choiceRT,2021.1.2,MacIntel,38.46153846,,,,,,,,3,Fast,f,0,1.693,2,2,10,2,1,,,,,
,1.7,,,,,,,,,h.PNG,h,5d27face6543780001951271,2021-09-08_12h32.55.544,forced_choiceRT,2021.1.2,MacIntel,38.46153846,,,,,,,,3,Slow,f,0,2.209,2,3,11,2,1,,,,,
,0.23,,,,,,,,,f.PNG,f,5d27face6543780001951271,2021-09-08_12h32.55.544,forced_choiceRT,2021.1.2,MacIntel,38.46153846,,,,,,,,3,Fast,f,1,1.616,3,0,12,0,1,,,,,
,1.62,,,,,,,,,h.PNG,h,5d27face6543780001951271,2021-09-08_12h32.55.544,forced_choiceRT,2021.1.2,MacIntel,38.46153846,,,,,,,,3,Ontime,g,0,2.026,3,1,13,2,1,,,,,
,0.6,,,,,,,,,f.PNG,f,5d27face6543780001951271,2021-09-08_12h32.55.544,forced_choiceRT,2021.1.2,MacIntel,38.46153846,,,,,,,,3,Ontime,f,1,1.976,3,2,14,0,1,,,,,
,1.4,,,,,,,,,j.PNG,j,5d27face6543780001951271,2021-09-08_12h32.55.544,forced_choiceRT,2021.1.2,MacIntel,38.46153846,,,,,,,,3,Ontime,h,0,1.96,3,3,15,3,1,,,,,
,1.07,,,,,,,,,f.PNG,f,5d27face6543780001951271,2021-09-08_12h32.55.544,forced_choiceRT,2021.1.2,MacIntel,38.46153846,,,,,,,,3,Ontime,f,1,1.983,4,0,16,0,1,,,,,
,1.88,,,,,,,,,f.PNG,f,5d27face6543780001951271,2021-09-08_12h32.55.544,forced_choiceRT,2021.1.2,MacIntel,38.46153846,,,,,,,,3,Slow,j,0,2.183,4,1,17,0,1,,,,,
,1.65,,,,,,,,,g.PNG,g,5d27face6543780001951271,2021-09-08_12h32.55.544,forced_choiceRT,2021.1.2,MacIntel,38.46153846,,,,,,,,3,Ontime,f,0,2.049,4,2,18,1,1,,,,,
,0.07,,,,,,,,,g.PNG,g,5d27face6543780001951271,2021-09-08_12h32.55.544,forced_choiceRT,2021.1.2,MacIntel,38.46153846,,,,,,,,3,Fast,g,1,1.798,4,3,19,1,1,,,,,
,1.27,,,,,,,,,f.PNG,f,5d27face6543780001951271,2021-09-08_12h32.55.544,forced_choiceRT,2021.1.2,MacIntel,38.46153846,,,,,,,,3,Ontime,f,1,2.032,5,0,20,0,1,,,,,
,1.94,,,,,,,,,f.PNG,f,5d27face6543780001951271,2021-09-08_12h32.55.544,forced_choiceRT,2021.1.2,MacIntel,38.46153846,,,,,,,,3,Slow,f,1,2.391,5,1,21,0,1,,,,,
,0.48,,,,,,,,,f.PNG,f,5d27face6543780001951271,2021-09-08_12h32.55.544,forced_choiceRT,2021.1.2,MacIntel,38.46153846,,,,,,,,3,Fast,f,1,1.701,5,2,22,0,1,,,,,
,0.99,,,,,,,,,j.PNG,j,5d27face6543780001951271,2021-09-08_12h32.55.544,forced_choiceRT,2021.1.2,MacIntel,38.46153846,,,,,,,,3,Fast,j,1,1.62,5,3,23,3,1,,,,,
,1.49,,,,,,,,,f.PNG,f,5d27face6543780001951271,2021-09-08_12h32.55.544,forced_choiceRT,2021.1.2,MacIntel,38.46153846,,,,,,,,3,Ontime,g,0,1.994,6,0,24,0,1,,,,,
,0.89,,,,,,,,,j.PNG,j,5d27face6543780001951271,2021-09-08_12h32.55.544,forced_choiceRT,2021.1.2,MacIntel,38.46153846,,,,,,,,3,Fast,j,1,1.726,6,1,25,3,1,,,,,
,1.42,,,,,,,,,f.PNG,f,5d27face6543780001951271,2021-09-08_12h32.55.544,forced_choiceRT,2021.1.2,MacIntel,38.46153846,,,,,,,,3,Ontime,j,0,1.932,6,2,26,0,1,,,,,
,0.28,,,,,,,,,j.PNG,j,5d27face6543780001951271,2021-09-08_12h32.55.544,forced_choiceRT,2021.1.2,MacIntel,38.46153846,,,,,,,,3,Fast,j,1,1.793,6,3,27,3,1,,,,,
,1.4,,,,,,,,,h.PNG,h,5d27face6543780001951271,2021-09-08_12h32.55.544,forced_choiceRT,2021.1.2,MacIntel,38.46153846,,,,,,,,3,Slow,h,1,2.266,7,0,28,2,1,,,,,
,1.45,,,,,,,,,g.PNG,g,5d27face6543780001951271,2021-09-08_12h32.55.544,forced_choiceRT,2021.1.2,MacIntel,38.46153846,,,,,,,,3,Ontime,f,0,2.045,7,1,29,1,1,,,,,
,0.59,,,,,,,,,j.PNG,j,5d27face6543780001951271,2021-09-08_12h32.55.544,forced_choiceRT,2021.1.2,MacIntel,38.46153846,,,,,,,,3,Fast,j,1,1.891,7,2,30,3,1,,,,,
,1.76,,,,,,,,,g.PNG,g,5d27face6543780001951271,2021-09-08_12h32.55.544,forced_choiceRT,2021.1.2,MacIntel,38.46153846,,,,,,,,3,Slow,f,0,2.131,7,3,31,1,1,,,,,
,1.37,,,,,,,,,h.PNG,h,5d27face6543780001951271,2021-09-08_12h32.55.544,forced_choiceRT,2021.1.2,MacIntel,38.46153846,,,,,,,,3,Ontime,f,0,1.959,8,0,32,2,1,,,,,
,1.82,,,,,,,,,j.PNG,j,5d27face6543780001951271,2021-09-08_12h32.55.544,forced_choiceRT,2021.1.2,MacIntel,38.46153846,,,,,,,,3,Ontime,h,0,2.077,8,1,33,3,1,,,,,
,1.01,,,,,,,,,j.PNG,j,5d27face6543780001951271,2021-09-08_12h32.55.544,forced_choiceRT,2021.1.2,MacIntel,38.46153846,,,,,,,,3,Fast,j,1,1.81,8,2,34,3,1,,,,,
,0.99,,,,,,,,,g.PNG,g,5d27face6543780001951271,2021-09-08_12h32.55.544,forced_choiceRT,2021.1.2,MacIntel,38.46153846,,,,,,,,3,Fast,g,1,1.841,8,3,35,1,1,,,,,
,0.3,,,,,,,,,j.PNG,j,5d27face6543780001951271,2021-09-08_12h32.55.544,forced_choiceRT,2021.1.2,MacIntel,38.46153846,,,,,,,,3,Fast,j,1,1.761,9,0,36,3,1,,,,,
,1.95,,,,,,,,,g.PNG,g,5d27face6543780001951271,2021-09-08_12h32.55.544,forced_choiceRT,2021.1.2,MacIntel,38.46153846,,,,,,,,3,Slow,g,1,2.384,9,1,37,1,1,,,,,
,0.27,,,,,,,,,h.PNG,h,5d27face6543780001951271,2021-09-08_12h32.55.544,forced_choiceRT,2021.1.2,MacIntel,38.46153846,,,,,,,,3,Ontime,f,0,1.927,9,2,38,2,1,,,,,
,1.37,,,,,,,,,j.PNG,j,5d27face6543780001951271,2021-09-08_12h32.55.544,forced_choiceRT,2021.1.2,MacIntel,38.46153846,,,,,,,,3,Ontime,j,1,2.009,9,3,39,3,1,,,,,
,,,,,,,,,,,,5d27face6543780001951271,2021-09-08_12h32.55.544,forced_choiceRT,2021.1.2,MacIntel,38.46153846,,,,,,,,,,,,,,,,,,2,0,2,0,1
,1.05,,,,,,,,,j.PNG,j,5d27face6543780001951271,2021-09-08_12h32.55.544,forced_choiceRT,2021.1.2,MacIntel,38.46153846,,,,,,,,4,Fast,j,1,1.666,0,0,0,3,1,,,,,
,1.17,,,,,,,,,h.PNG,h,5d27face6543780001951271,2021-09-08_12h32.55.544,forced_choiceRT,2021.1.2,MacIntel,38.46153846,,,,,,,,4,Ontime,f,0,2.059,0,1,1,2,1,,,,,
,1.56,,,,,,,,,j.PNG,j,5d27face6543780001951271,2021-09-08_12h32.55.544,forced_choiceRT,2021.1.2,MacIntel,38.46153846,,,,,,,,4,Ontime,h,0,2.064,0,2,2,3,1,,,,,
,0.77,,,,,,,,,j.PNG,j,5d27face6543780001951271,2021-09-08_12h32.55.544,forced_choiceRT,2021.1.2,MacIntel,38.46153846,,,,,,,,4,Ontime,j,1,2.068,0,3,3,3,1,,,,,
,0.08,,,,,,,,,j.PNG,j,5d27face6543780001951271,2021-09-08_12h32.55.544,forced_choiceRT,2021.1.2,MacIntel,38.46153846,,,,,,,,4,Ontime,j,1,1.922,1,0,4,3,1,,,,,
,0.89,,,,,,,,,f.PNG,f,5d27face6543780001951271,2021-09-08_12h32.55.544,forced_choiceRT,2021.1.2,MacIntel,38.46153846,,,,,,,,4,Ontime,f,1,1.951,1,1,5,0,1,,,,,
,1.76,,,,,,,,,h.PNG,h,5d27face6543780001951271,2021-09-08_12h32.55.544,forced_choiceRT,2021.1.2,MacIntel,38.46153846,,,,,,,,4,Slow,h,1,2.334,1,2,6,2,1,,,,,
,1.91,,,,,,,,,g.PNG,g,5d27face6543780001951271,2021-09-08_12h32.55.544,forced_choiceRT,2021.1.2,MacIntel,38.46153846,,,,,,,,4,Slow,j,0,2.316,1,3,7,1,1,,,,,
,1.21,,,,,,,,,j.PNG,j,5d27face6543780001951271,2021-09-08_12h32.55.544,forced_choiceRT,2021.1.2,MacIntel,38.46153846,,,,,,,,4,Slow,j,1,2.2,2,0,8,3,1,,,,,
,0.02,,,,,,,,,g.PNG,g,5d27face6543780001951271,2021-09-08_12h32.55.544,forced_choiceRT,2021.1.2,MacIntel,38.46153846,,,,,,,,4,Fast,g,1,1.841,2,1,9,1,1,,,,,
,1.05,,,,,,,,,f.PNG,f,5d27face6543780001951271,2021-09-08_12h32.55.544,forced_choiceRT,2021.1.2,MacIntel,38.46153846,,,,,,,,4,Ontime,f,1,1.999,2,2,10,0,1,,,,,
,0.01,,,,,,,,,g.PNG,g,5d27face6543780001951271,2021-09-08_12h32.55.544,forced_choiceRT,2021.1.2,MacIntel,38.46153846,,,,,,,,4,Ontime,g,1,1.952,2,3,11,1,1,,,,,
,1.78,,,,,,,,,f.PNG,f,5d27face6543780001951271,2021-09-08_12h32.55.544,forced_choiceRT,2021.1.2,MacIntel,38.46153846,,,,,,,,4,Slow,g,0,2.27,3,0,12,0,1,,,,,
,1.07,,,,,,,,,j.PNG,j,5d27face6543780001951271,2021-09-08_12h32.55.544,forced_choiceRT,2021.1.2,MacIntel,38.46153846,,,,,,,,4,Ontime,h,0,1.979,3,1,13,3,1,,,,,
,0.09,,,,,,,,,h.PNG,h,5d27face6543780001951271,2021-09-08_12h32.55.544,forced_choiceRT,2021.1.2,MacIntel,38.46153846,,,,,,,,4,Fast,h,1,1.883,3,2,14,2,1,,,,,
,1.68,,,,,,,,,f.PNG,f,5d27face6543780001951271,2021-09-08_12h32.55.544,forced_choiceRT,2021.1.2,MacIntel,38.46153846,,,,,,,,4,Slow,f,1,2.317,3,3,15,0,1,,,,,
,0.42,,,,,,,,,h.PNG,h,5d27face6543780001951271,2021-09-08_12h32.55.544,forced_choiceRT,2021.1.2,MacIntel,38.46153846,,,,,,,,4,Fast,g,0,1.869,4,0,16,2,1,,,,,
,0.81,,,,,,,,,h.PNG,h,5d27face6543780001951271,2021-09-08_12h32.55.544,forced_choiceRT,2021.1.2,MacIntel,38.46153846,,,,,,,,4,Ontime,h,1,1.981,4,1,17,2,1,,,,,
,1.55,,,,,,,,,g.PNG,g,5d27face6543780001951271,2021-09-08_12h32.55.544,forced_choiceRT,2021.1.2,MacIntel,38.46153846,,,,,,,,4,Fast,j,0,0.916,4,2,18,1,1,,,,,
,1.67,,,,,,,,,g.PNG,g,5d27face6543780001951271,2021-09-08_12h32.55.544,forced_choiceRT,2021.1.2,MacIntel,38.46153846,,,,,,,,4,Slow,f,0,2.236,4,3,19,1,1,,,,,
,0.83,,,,,,,,,g.PNG,g,5d27face6543780001951271,2021-09-08_12h32.55.544,forced_choiceRT,2021.1.2,MacIntel,38.46153846,,,,,,,,4,Fast,g,1,1.866,5,0,20,1,1,,,,,
,1.92,,,,,,,,,g.PNG,g,5d27face6543780001951271,2021-09-08_12h32.55.544,forced_choiceRT,2021.1.2,MacIntel,38.46153846,,,,,,,,4,Slow,g,1,2.367,5,1,21,1,1,,,,,
,0.12,,,,,,,,,f.PNG,f,5d27face6543780001951271,2021-09-08_12h32.55.544,forced_choiceRT,2021.1.2,MacIntel,38.46153846,,,,,,,,4,Fast,f,1,1.868,5,2,22,0,1,,,,,
,0.54,,,,,,,,,g.PNG,g,5d27face6543780001951271,2021-09-08_12h32.55.544,forced_choiceRT,2021.1.2,MacIntel,38.46153846,,,,,,,,4,Fast,g,1,1.883,5,3,23,1,1,,,,,
,0.06,,,,,,,,,j.PNG,j,5d27face6543780001951271,2021-09-08_12h32.55.544,forced_choiceRT,2021.1.2,MacIntel,38.46153846,,,,,,,,4,Fast,j,1,1.507,6,0,24,3,1,,,,,
,0.59,,,,,,,,,f.PNG,f,5d27face6543780001951271,2021-09-08_12h32.55.544,forced_choiceRT,2021.1.2,MacIntel,38.46153846,,,,,,,,4,Ontime,f,1,2.009,6,1,25,0,1,,,,,
,1.59,,,,,,,,,g.PNG,g,5d27face6543780001951271,2021-09-08_12h32.55.544,forced_choiceRT,2021.1.2,MacIntel,38.46153846,,,,,,,,4,Slow,g,1,2.201,6,2,26,1,1,,,,,
,1.63,,,,,,,,,j.PNG,j,5d27face6543780001951271,2021-09-08_12h32.55.544,forced_choiceRT,2021.1.2,MacIntel,38.46153846,,,,,,,,4,Slow,j,1,2.277,6,3,27,3,1,,,,,
,1.66,,,,,,,,,h.PNG,h,5d27face6543780001951271,2021-09-08_12h32.55.544,forced_choiceRT,2021.1.2,MacIntel,38.46153846,,,,,,,,4,Slow,h,1,2.167,7,0,28,2,1,,,,,
,1,,,,,,,,,f.PNG,f,5d27face6543780001951271,2021-09-08_12h32.55.544,forced_choiceRT,2021.1.2,MacIntel,38.46153846,,,,,,,,4,Fast,f,1,1.882,7,1,29,0,1,,,,,
,0.45,,,,,,,,,j.PNG,j,5d27face6543780001951271,2021-09-08_12h32.55.544,forced_choiceRT,2021.1.2,MacIntel,38.46153846,,,,,,,,4,Ontime,j,1,1.953,7,2,30,3,1,,,,,
,1.85,,,,,,,,,h.PNG,h,5d27face6543780001951271,2021-09-08_12h32.55.544,forced_choiceRT,2021.1.2,MacIntel,38.46153846,,,,,,,,4,Slow,g,0,2.382,7,3,31,2,1,,,,,
,1.5,,,,,,,,,h.PNG,h,5d27face6543780001951271,2021-09-08_12h32.55.544,forced_choiceRT,2021.1.2,MacIntel,38.46153846,,,,,,,,4,Ontime,g,0,2,8,0,32,2,1,,,,,
,1.64,,,,,,,,,h.PNG,h,5d27face6543780001951271,2021-09-08_12h32.55.544,forced_choiceRT,2021.1.2,MacIntel,38.46153846,,,,,,,,4,Ontime,h,1,2.032,8,1,33,2,1,,,,,
,0.15,,,,,,,,,j.PNG,j,5d27face6543780001951271,2021-09-08_12h32.55.544,forced_choiceRT,2021.1.2,MacIntel,38.46153846,,,,,,,,4,Fast,j,1,1.736,8,2,34,3,1,,,,,
,0.38,,,,,,,,,f.PNG,f,5d27face6543780001951271,2021-09-08_12h32.55.544,forced_choiceRT,2021.1.2,MacIntel,38.46153846,,,,,,,,4,Fast,f,1,1.751,8,3,35,0,1,,,,,
,0.87,,,,,,,,,h.PNG,h,5d27face6543780001951271,2021-09-08_12h32.55.544,forced_choiceRT,2021.1.2,MacIntel,38.46153846,,,,,,,,4,Ontime,h,1,1.96,9,0,36,2,1,,,,,
,1.58,,,,,,,,,g.PNG,g,5d27face6543780001951271,2021-09-08_12h32.55.544,forced_choiceRT,2021.1.2,MacIntel,38.46153846,,,,,,,,4,Ontime,f,0,2.082,9,1,37,1,1,,,,,
,1.6,,,,,,,,,f.PNG,f,5d27face6543780001951271,2021-09-08_12h32.55.544,forced_choiceRT,2021.1.2,MacIntel,38.46153846,,,,,,,,4,Ontime,g,0,2.051,9,2,38,0,1,,,,,
,0.25,,,,,,,,,f.PNG,f,5d27face6543780001951271,2021-09-08_12h32.55.544,forced_choiceRT,2021.1.2,MacIntel,38.46153846,,,,,,,,4,Ontime,f,1,1.958,9,3,39,0,1,,,,,
,,,,,,,,,,,,5d27face6543780001951271,2021-09-08_12h32.55.544,forced_choiceRT,2021.1.2,MacIntel,38.46153846,,,,,,,,,,,,,,,,,,3,0,3,0,1
,0.19,,,,,,,,,h.PNG,h,5d27face6543780001951271,2021-09-08_12h32.55.544,forced_choiceRT,2021.1.2,MacIntel,38.46153846,,,,,,,,5,Fast,g,0,1.746,0,0,0,2,1,,,,,
,1.15,,,,,,,,,j.PNG,j,5d27face6543780001951271,2021-09-08_12h32.55.544,forced_choiceRT,2021.1.2,MacIntel,38.46153846,,,,,,,,5,Fast,j,1,1.784,0,1,1,3,1,,,,,
,0.3,,,,,,,,,j.PNG,j,5d27face6543780001951271,2021-09-08_12h32.55.544,forced_choiceRT,2021.1.2,MacIntel,38.46153846,,,,,,,,5,Fast,j,1,1.726,0,2,2,3,1,,,,,
,0.02,,,,,,,,,f.PNG,f,5d27face6543780001951271,2021-09-08_12h32.55.544,forced_choiceRT,2021.1.2,MacIntel,38.46153846,,,,,,,,5,Ontime,f,1,2.061,0,3,3,0,1,,,,,
,1.81,,,,,,,,,j.PNG,j,5d27face6543780001951271,2021-09-08_12h32.55.544,forced_choiceRT,2021.1.2,MacIntel,38.46153846,,,,,,,,5,Slow,j,1,2.399,1,0,4,3,1,,,,,
,0.12,,,,,,,,,f.PNG,f,5d27face6543780001951271,2021-09-08_12h32.55.544,forced_choiceRT,2021.1.2,MacIntel,38.46153846,,,,,,,,5,Slow,f,1,2.142,1,1,5,0,1,,,,,
,1.01,,,,,,,,,g.PNG,g,5d27face6543780001951271,2021-09-08_12h32.55.544,forced_choiceRT,2021.1.2,MacIntel,38.46153846,,,,,,,,5,Ontime,g,1,2.011,1,2,6,1,1,,,,,
,0.79,,,,,,,,,f.PNG,f,5d27face6543780001951271,2021-09-08_12h32.55.544,forced_choiceRT,2021.1.2,MacIntel,38.46153846,,,,,,,,5,Ontime,f,1,2.011,1,3,7,0,1,,,,,
,0.79,,,,,,,,,g.PNG,g,5d27face6543780001951271,2021-09-08_12h32.55.544,forced_choiceRT,2021.1.2,MacIntel,38.46153846,,,,,,,,5,Ontime,g,1,1.951,2,0,8,1,1,,,,,
,1.45,,,,,,,,,f.PNG,f,5d27face6543780001951271,2021-09-08_12h32.55.544,forced_choiceRT,2021.1.2,MacIntel,38.46153846,,,,,,,,5,Ontime,f,1,1.992,2,1,9,0,1,,,,,
,1.71,,,,,,,,,h.PNG,h,5d27face6543780001951271,2021-09-08_12h32.55.544,forced_choiceRT,2021.1.2,MacIntel,38.46153846,,,,,,,,5,Slow,h,1,2.326,2,2,10,2,1,,,,,
,1.2,,,,,,,,,j.PNG,j,5d27face6543780001951271,2021-09-08_12h32.55.544,forced_choiceRT,2021.1.2,MacIntel,38.46153846,,,,,,,,5,Ontime,j,1,2.076,2,3,11,3,1,,,,,
,1.7,,,,,,,,,f.PNG,f,5d27face6543780001951271,2021-09-08_12h32.55.544,forced_choiceRT,2021.1.2,MacIntel,38.46153846,,,,,,,,5,Slow,g,0,2.133,3,0,12,0,1,,,,,
,0.85,,,,,,,,,f.PNG,f,5d27face6543780001951271,2021-09-08_12h32.55.544,forced_choiceRT,2021.1.2,MacIntel,38.46153846,,,,,,,,5,Ontime,f,1,2.067,3,1,13,0,1,,,,,
,0.29,,,,,,,,,j.PNG,j,5d27face6543780001951271,2021-09-08_12h32.55.544,forced_choiceRT,2021.1.2,MacIntel,38.46153846,,,,,,,,5,Ontime,j,1,2.033,3,2,14,3,1,,,,,
,1.1,,,,,,,,,h.PNG,h,5d27face6543780001951271,2021-09-08_12h32.55.544,forced_choiceRT,2021.1.2,MacIntel,38.46153846,,,,,,,,5,Ontime,g,0,1.917,3,3,15,2,1,,,,,
,0.74,,,,,,,,,g.PNG,g,5d27face6543780001951271,2021-09-08_12h32.55.544,forced_choiceRT,2021.1.2,MacIntel,38.46153846,,,,,,,,5,Ontime,h,0,1.932,4,0,16,1,1,,,,,
,0.11,,,,,,,,,h.PNG,h,5d27face6543780001951271,2021-09-08_12h32.55.544,forced_choiceRT,2021.1.2,MacIntel,38.46153846,,,,,,,,5,Fast,h,1,1.81,4,1,17,2,1,,,,,
,0.92,,,,,,,,,g.PNG,g,5d27face6543780001951271,2021-09-08_12h32.55.544,forced_choiceRT,2021.1.2,MacIntel,38.46153846,,,,,,,,5,Ontime,g,1,1.966,4,2,18,1,1,,,,,
,1.93,,,,,,,,,g.PNG,g,5d27face6543780001951271,2021-09-08_12h32.55.544,forced_choiceRT,2021.1.2,MacIntel,38.46153846,,,,,,,,5,Slow,g,1,2.33,4,3,19,1,1,,,,,
,0.81,,,,,,,,,f.PNG,f,5d27face6543780001951271,2021-09-08_12h32.55.544,forced_choiceRT,2021.1.2,MacIntel,38.46153846,,,,,,,,5,Ontime,f,1,2.01,5,0,20,0,1,,,,,
,0.98,,,,,,,,,j.PNG,j,5d27face6543780001951271,2021-09-08_12h32.55.544,forced_choiceRT,2021.1.2,MacIntel,38.46153846,,,,,,,,5,Ontime,j,1,1.915,5,1,21,3,1,,,,,
,1.52,,,,,,,,,f.PNG,f,5d27face6543780001951271,2021-09-08_12h32.55.544,forced_choiceRT,2021.1.2,MacIntel,38.46153846,,,,,,,,5,Ontime,f,1,2.031,5,2,22,0,1,,,,,
,1.3,,,,,,,,,g.PNG,g,5d27face6543780001951271,2021-09-08_12h32.55.544,forced_choiceRT,2021.1.2,MacIntel,38.46153846,,,,,,,,5,Slow,g,1,2.209,5,3,23,1,1,,,,,
,0.46,,,,,,,,,j.PNG,j,5d27face6543780001951271,2021-09-08_12h32.55.544,forced_choiceRT,2021.1.2,MacIntel,38.46153846,,,,,,,,5,Ontime,j,1,1.973,6,0,24,3,1,,,,,
,0.58,,,,,,,,,h.PNG,h,5d27face6543780001951271,2021-09-08_12h32.55.544,forced_choiceRT,2021.1.2,MacIntel,38.46153846,,,,,,,,5,Ontime,h,1,1.951,6,1,25,2,1,,,,,
,1.42,,,,,,,,,h.PNG,h,5d27face6543780001951271,2021-09-08_12h32.55.544,forced_choiceRT,2021.1.2,MacIntel,38.46153846,,,,,,,,5,Slow,h,1,2.101,6,2,26,2,1,,,,,
,0.26,,,,,,,,,j.PNG,j,5d27face6543780001951271,2021-09-08_12h32.55.544,forced_choiceRT,2021.1.2,MacIntel,38.46153846,,,,,,,,5,Ontime,j,1,1.976,6,3,27,3,1,,,,,
,1.95,,,,,,,,,f.PNG,f,5d27face6543780001951271,2021-09-08_12h32.55.544,forced_choiceRT,2021.1.2,MacIntel,38.46153846,,,,,,,,5,Slow,f,1,2.297,7,0,28,0,1,,,,,
,0.42,,,,,,,,,f.PNG,f,5d27face6543780001951271,2021-09-08_12h32.55.544,forced_choiceRT,2021.1.2,MacIntel,38.46153846,,,,,,,,5,Fast,f,1,1.859,7,1,29,0,1,,,,,
,0.05,,,,,,,,,g.PNG,g,5d27face6543780001951271,2021-09-08_12h32.55.544,forced_choiceRT,2021.1.2,MacIntel,38.46153846,,,,,,,,5,Ontime,g,1,1.917,7,2,30,1,1,,,,,
,0.1,,,,,,,,,g.PNG,g,5d27face6543780001951271,2021-09-08_12h32.55.544,forced_choiceRT,2021.1.2,MacIntel,38.46153846,,,,,,,,5,Fast,g,1,1.732,7,3,31,1,1,,,,,
,0.6,,,,,,,,,h.PNG,h,5d27face6543780001951271,2021-09-08_12h32.55.544,forced_choiceRT,2021.1.2,MacIntel,38.46153846,,,,,,,,5,Ontime,h,1,2.016,8,0,32,2,1,,,,,
,0.51,,,,,,,,,j.PNG,j,5d27face6543780001951271,2021-09-08_12h32.55.544,forced_choiceRT,2021.1.2,MacIntel,38.46153846,,,,,,,,5,Ontime,j,1,2.035,8,1,33,3,1,,,,,
,1.38,,,,,,,,,h.PNG,h,5d27face6543780001951271,2021-09-08_12h32.55.544,forced_choiceRT,2021.1.2,MacIntel,38.46153846,,,,,,,,5,Ontime,h,1,2.033,8,2,34,2,1,,,,,
,0.7,,,,,,,,,g.PNG,g,5d27face6543780001951271,2021-09-08_12h32.55.544,forced_choiceRT,2021.1.2,MacIntel,38.46153846,,,,,,,,5,Ontime,g,1,1.967,8,3,35,1,1,,,,,
,0.72,,,,,,,,,j.PNG,j,5d27face6543780001951271,2021-09-08_12h32.55.544,forced_choiceRT,2021.1.2,MacIntel,38.46153846,,,,,,,,5,Fast,j,1,1.799,9,0,36,3,1,,,,,
,1.2,,,,,,,,,g.PNG,g,5d27face6543780001951271,2021-09-08_12h32.55.544,forced_choiceRT,2021.1.2,MacIntel,38.46153846,,,,,,,,5,Ontime,g,1,1.918,9,1,37,1,1,,,,,
,1.69,,,,,,,,,h.PNG,h,5d27face6543780001951271,2021-09-08_12h32.55.544,forced_choiceRT,2021.1.2,MacIntel,38.46153846,,,,,,,,5,Ontime,f,0,2.048,9,2,38,2,1,,,,,
,1.29,,,,,,,,,h.PNG,h,5d27face6543780001951271,2021-09-08_12h32.55.544,forced_choiceRT,2021.1.2,MacIntel,38.46153846,,,,,,,,5,Slow,g,0,2.225,9,3,39,2,1,,,,,
,,,,,,,,,,,,5d27face6543780001951271,2021-09-08_12h32.55.544,forced_choiceRT,2021.1.2,MacIntel,38.46153846,,,,,,,,,,,,,,,,,,4,0,4,0,1
,1.98,,,,,,,,,g.PNG,g,5d27face6543780001951271,2021-09-08_12h32.55.544,forced_choiceRT,2021.1.2,MacIntel,38.46153846,,,,,,,,6,Slow,f,0,2.384,0,0,0,1,1,,,,,
,1.28,,,,,,,,,j.PNG,j,5d27face6543780001951271,2021-09-08_12h32.55.544,forced_choiceRT,2021.1.2,MacIntel,38.46153846,,,,,,,,6,Fast,j,1,1.899,0,1,1,3,1,,,,,
,1.33,,,,,,,,,h.PNG,h,5d27face6543780001951271,2021-09-08_12h32.55.544,forced_choiceRT,2021.1.2,MacIntel,38.46153846,,,,,,,,6,Ontime,h,1,1.984,0,2,2,2,1,,,,,
,0.88,,,,,,,,,h.PNG,h,5d27face6543780001951271,2021-09-08_12h32.55.544,forced_choiceRT,2021.1.2,MacIntel,38.46153846,,,,,,,,6,Fast,g,0,1.633,0,3,3,2,1,,,,,
,0.98,,,,,,,,,j.PNG,j,5d27face6543780001951271,2021-09-08_12h32.55.544,forced_choiceRT,2021.1.2,MacIntel,38.46153846,,,,,,,,6,Fast,j,1,1.624,1,0,4,3,1,,,,,
,0.04,,,,,,,,,g.PNG,g,5d27face6543780001951271,2021-09-08_12h32.55.544,forced_choiceRT,2021.1.2,MacIntel,38.46153846,,,,,,,,6,Fast,g,1,1.633,1,1,5,1,1,,,,,
,0.54,,,,,,,,,g.PNG,g,5d27face6543780001951271,2021-09-08_12h32.55.544,forced_choiceRT,2021.1.2,MacIntel,38.46153846,,,,,,,,6,Ontime,g,1,1.977,1,2,6,1,1,,,,,
,1.17,,,,,,,,,h.PNG,h,5d27face6543780001951271,2021-09-08_12h32.55.544,forced_choiceRT,2021.1.2,MacIntel,38.46153846,,,,,,,,6,Ontime,h,1,1.901,1,3,7,2,1,,,,,
,0.04,,,,,,,,,f.PNG,f,5d27face6543780001951271,2021-09-08_12h32.55.544,forced_choiceRT,2021.1.2,MacIntel,38.46153846,,,,,,,,6,Ontime,f,1,1.918,2,0,8,0,1,,,,,
,1.98,,,,,,,,,j.PNG,j,5d27face6543780001951271,2021-09-08_12h32.55.544,forced_choiceRT,2021.1.2,MacIntel,38.46153846,,,,,,,,6,Slow,j,1,2.248,2,1,9,3,1,,,,,
,1.23,,,,,,,,,h.PNG,h,5d27face6543780001951271,2021-09-08_12h32.55.544,forced_choiceRT,2021.1.2,MacIntel,38.46153846,,,,,,,,6,Ontime,g,0,1.949,2,2,10,2,1,,,,,
,0.1,,,,,,,,,g.PNG,g,5d27face6543780001951271,2021-09-08_12h32.55.544,forced_choiceRT,2021.1.2,MacIntel,38.46153846,,,,,,,,6,Ontime,g,1,1.927,2,3,11,1,1,,,,,
,0.91,,,,,,,,,j.PNG,j,5d27face6543780001951271,2021-09-08_12h32.55.544,forced_choiceRT,2021.1.2,MacIntel,38.46153846,,,,,,,,6,Fast,j,1,1.784,3,0,12,3,1,,,,,
,0.16,,,,,,,,,f.PNG,f,5d27face6543780001951271,2021-09-08_12h32.55.544,forced_choiceRT,2021.1.2,MacIntel,38.46153846,,,,,,,,6,Ontime,f,1,1.933,3,1,13,0,1,,,,,
,1.42,,,,,,,,,f.PNG,f,5d27face6543780001951271,2021-09-08_12h32.55.544,forced_choiceRT,2021.1.2,MacIntel,38.46153846,,,,,,,,6,Ontime,f,1,2.047,3,2,14,0,1,,,,,
,0.12,,,,,,,,,f.PNG,f,5d27face6543780001951271,2021-09-08_12h32.55.544,forced_choiceRT,2021.1.2,MacIntel,38.46153846,,,,,,,,6,Fast,f,1,1.882,3,3,15,0,1,,,,,
,0.19,,,,,,,,,g.PNG,g,5d27face6543780001951271,2021-09-08_12h32.55.544,forced_choiceRT,2021.1.2,MacIntel,38.46153846,,,,,,,,6,Ontime,g,1,1.924,4,0,16,1,1,,,,,
,1.09,,,,,,,,,h.PNG,h,5d27face6543780001951271,2021-09-08_12h32.55.544,forced_choiceRT,2021.1.2,MacIntel,38.46153846,,,,,,,,6,Fast,h,1,1.899,4,1,17,2,1,,,,,
,1.95,,,,,,,,,g.PNG,g,5d27face6543780001951271,2021-09-08_12h32.55.544,forced_choiceRT,2021.1.2,MacIntel,38.46153846,,,,,,,,6,Slow,g,1,2.217,4,2,18,1,1,,,,,
,1.43,,,,,,,,,f.PNG,f,5d27face6543780001951271,2021-09-08_12h32.55.544,forced_choiceRT,2021.1.2,MacIntel,38.46153846,,,,,,,,6,Ontime,f,1,1.926,4,3,19,0,1,,,,,
,0,,,,,,,,,j.PNG,j,5d27face6543780001951271,2021-09-08_12h32.55.544,forced_choiceRT,2021.1.2,MacIntel,38.46153846,,,,,,,,6,Ontime,j,1,1.974,5,0,20,3,1,,,,,
,0.96,,,,,,,,,f.PNG,f,5d27face6543780001951271,2021-09-08_12h32.55.544,forced_choiceRT,2021.1.2,MacIntel,38.46153846,,,,,,,,6,Ontime,f,1,1.903,5,1,21,0,1,,,,,
,0.13,,,,,,,,,j.PNG,j,5d27face6543780001951271,2021-09-08_12h32.55.544,forced_choiceRT,2021.1.2,MacIntel,38.46153846,,,,,,,,6,Ontime,j,1,2.033,5,2,22,3,1,,,,,
,0.43,,,,,,,,,f.PNG,f,5d27face6543780001951271,2021-09-08_12h32.55.544,forced_choiceRT,2021.1.2,MacIntel,38.46153846,,,,,,,,6,Ontime,f,1,1.925,5,3,23,0,1,,,,,
,0.24,,,,,,,,,j.PNG,j,5d27face6543780001951271,2021-09-08_12h32.55.544,forced_choiceRT,2021.1.2,MacIntel,38.46153846,,,,,,,,6,Ontime,j,1,1.952,6,0,24,3,1,,,,,
,0.69,,,,,,,,,g.PNG,g,5d27face6543780001951271,2021-09-08_12h32.55.544,forced_choiceRT,2021.1.2,MacIntel,38.46153846,,,,,,,,6,Fast,g,1,1.744,6,1,25,1,1,,,,,
,0.14,,,,,,,,,h.PNG,h,5d27face6543780001951271,2021-09-08_12h32.55.544,forced_choiceRT,2021.1.2,MacIntel,38.46153846,,,,,,,,6,Ontime,h,1,2.044,6,2,26,2,1,,,,,
,1.07,,,,,,,,,f.PNG,f,5d27face6543780001951271,2021-09-08_12h32.55.544,forced_choiceRT,2021.1.2,MacIntel,38.46153846,,,,,,,,6,Ontime,f,1,1.917,6,3,27,0,1,,,,,
,0.43,,,,,,,,,g.PNG,g,5d27face6543780001951271,2021-09-08_12h32.55.544,forced_choiceRT,2021.1.2,MacIntel,38.46153846,,,,,,,,6,Ontime,g,1,1.994,7,0,28,1,1,,,,,
,1.98,,,,,,,,,g.PNG,g,5d27face6543780001951271,2021-09-08_12h32.55.544,forced_choiceRT,2021.1.2,MacIntel,38.46153846,,,,,,,,6,Fast,j,0,1.899,7,1,29,1,1,,,,,
,0.55,,,,,,,,,j.PNG,j,5d27face6543780001951271,2021-09-08_12h32.55.544,forced_choiceRT,2021.1.2,MacIntel,38.46153846,,,,,,,,6,Ontime,j,1,1.998,7,2,30,3,1,,,,,
,1.34,,,,,,,,,h.PNG,h,5d27face6543780001951271,2021-09-08_12h32.55.544,forced_choiceRT,2021.1.2,MacIntel,38.46153846,,,,,,,,6,Ontime,f,0,1.949,7,3,31,2,1,,,,,
,1,,,,,,,,,j.PNG,j,5d27face6543780001951271,2021-09-08_12h32.55.544,forced_choiceRT,2021.1.2,MacIntel,38.46153846,,,,,,,,6,Ontime,j,1,1.949,8,0,32,3,1,,,,,
,0.1,,,,,,,,,h.PNG,h,5d27face6543780001951271,2021-09-08_12h32.55.544,forced_choiceRT,2021.1.2,MacIntel,38.46153846,,,,,,,,6,Fast,h,1,1.767,8,1,33,2,1,,,,,
,0.09,,,,,,,,,g.PNG,g,5d27face6543780001951271,2021-09-08_12h32.55.544,forced_choiceRT,2021.1.2,MacIntel,38.46153846,,,,,,,,6,Ontime,g,1,1.982,8,2,34,1,1,,,,,
,1.66,,,,,,,,,h.PNG,h,5d27face6543780001951271,2021-09-08_12h32.55.544,forced_choiceRT,2021.1.2,MacIntel,38.46153846,,,,,,,,6,Slow,h,1,2.349,8,3,35,2,1,,,,,
,1.02,,,,,,,,,f.PNG,f,5d27face6543780001951271,2021-09-08_12h32.55.544,forced_choiceRT,2021.1.2,MacIntel,38.46153846,,,,,,,,6,Fast,f,1,1.868,9,0,36,0,1,,,,,
,0.22,,,,,,,,,h.PNG,h,5d27face6543780001951271,2021-09-08_12h32.55.544,forced_choiceRT,2021.1.2,MacIntel,38.46153846,,,,,,,,6,Ontime,g,0,1.994,9,1,37,2,1,,,,,
,0.73,,,,,,,,,f.PNG,f,5d27face6543780001951271,2021-09-08_12h32.55.544,forced_choiceRT,2021.1.2,MacIntel,38.46153846,,,,,,,,6,Ontime,f,1,1.952,9,2,38,0,1,,,,,
,0.73,,,,,,,,,j.PNG,j,5d27face6543780001951271,2021-09-08_12h32.55.544,forced_choiceRT,2021.1.2,MacIntel,38.46153846,,,,,,,,6,Fast,j,1,1.865,9,3,39,3,1,,,,,
,,,,,,,,,,,,5d27face6543780001951271,2021-09-08_12h32.55.544,forced_choiceRT,2021.1.2,MacIntel,38.46153846,,,,,,,,,,,,,,,,,,5,0,5,0,1
,1.93,,,,,,,,,h.PNG,h,5d27face6543780001951271,2021-09-08_12h32.55.544,forced_choiceRT,2021.1.2,MacIntel,38.46153846,,,,,,,,7,Slow,f,0,2.158,0,0,0,2,1,,,,,
,0.27,,,,,,,,,g.PNG,g,5d27face6543780001951271,2021-09-08_12h32.55.544,forced_choiceRT,2021.1.2,MacIntel,38.46153846,,,,,,,,7,Ontime,g,1,2.06,0,1,1,1,1,,,,,
,1.09,,,,,,,,,f.PNG,f,5d27face6543780001951271,2021-09-08_12h32.55.544,forced_choiceRT,2021.1.2,MacIntel,38.46153846,,,,,,,,7,Ontime,f,1,1.922,0,2,2,0,1,,,,,
,1.52,,,,,,,,,f.PNG,f,5d27face6543780001951271,2021-09-08_12h32.55.544,forced_choiceRT,2021.1.2,MacIntel,38.46153846,,,,,,,,7,Ontime,f,1,1.91,0,3,3,0,1,,,,,
,0.8,,,,,,,,,f.PNG,f,5d27face6543780001951271,2021-09-08_12h32.55.544,forced_choiceRT,2021.1.2,MacIntel,38.46153846,,,,,,,,7,Fast,f,1,1.893,1,0,4,0,1,,,,,
,1.46,,,,,,,,,j.PNG,j,5d27face6543780001951271,2021-09-08_12h32.55.544,forced_choiceRT,2021.1.2,MacIntel,38.46153846,,,,,,,,7,Ontime,j,1,2.016,1,1,5,3,1,,,,,
,0.43,,,,,,,,,h.PNG,h,5d27face6543780001951271,2021-09-08_12h32.55.544,forced_choiceRT,2021.1.2,MacIntel,38.46153846,,,,,,,,7,Fast,h,1,1.823,1,2,6,2,1,,,,,
,1.49,,,,,,,,,f.PNG,f,5d27face6543780001951271,2021-09-08_12h32.55.544,forced_choiceRT,2021.1.2,MacIntel,38.46153846,,,,,,,,7,Slow,f,1,2.113,1,3,7,0,1,,,,,
,0.52,,,,,,,,,g.PNG,g,5d27face6543780001951271,2021-09-08_12h32.55.544,forced_choiceRT,2021.1.2,MacIntel,38.46153846,,,,,,,,7,Fast,g,1,1.835,2,0,8,1,1,,,,,
,1.62,,,,,,,,,f.PNG,f,5d27face6543780001951271,2021-09-08_12h32.55.544,forced_choiceRT,2021.1.2,MacIntel,38.46153846,,,,,,,,7,Slow,f,1,2.132,2,1,9,0,1,,,,,
,1.56,,,,,,,,,h.PNG,h,5d27face6543780001951271,2021-09-08_12h32.55.544,forced_choiceRT,2021.1.2,MacIntel,38.46153846,,,,,,,,7,Ontime,h,1,2.085,2,2,10,2,1,,,,,
,1.05,,,,,,,,,h.PNG,h,5d27face6543780001951271,2021-09-08_12h32.55.544,forced_choiceRT,2021.1.2,MacIntel,38.46153846,,,,,,,,7,Fast,h,1,1.881,2,3,11,2,1,,,,,
,1.04,,,,,,,,,f.PNG,f,5d27face6543780001951271,2021-09-08_12h32.55.544,forced_choiceRT,2021.1.2,MacIntel,38.46153846,,,,,,,,7,Fast,f,1,1.823,3,0,12,0,1,,,,,
,0.91,,,,,,,,,j.PNG,j,5d27face6543780001951271,2021-09-08_12h32.55.544,forced_choiceRT,2021.1.2,MacIntel,38.46153846,,,,,,,,7,Ontime,j,1,1.95,3,1,13,3,1,,,,,
,0.91,,,,,,,,,j.PNG,j,5d27face6543780001951271,2021-09-08_12h32.55.544,forced_choiceRT,2021.1.2,MacIntel,38.46153846,,,,,,,,7,Ontime,j,1,1.9,3,2,14,3,1,,,,,
,0.59,,,,,,,,,j.PNG,j,5d27face6543780001951271,2021-09-08_12h32.55.544,forced_choiceRT,2021.1.2,MacIntel,38.46153846,,,,,,,,7,Ontime,j,1,1.96,3,3,15,3,1,,,,,
,1.37,,,,,,,,,j.PNG,j,5d27face6543780001951271,2021-09-08_12h32.55.544,forced_choiceRT,2021.1.2,MacIntel,38.46153846,,,,,,,,7,Ontime,j,1,2.002,4,0,16,3,1,,,,,
,0.22,,,,,,,,,g.PNG,g,5d27face6543780001951271,2021-09-08_12h32.55.544,forced_choiceRT,2021.1.2,MacIntel,38.46153846,,,,,,,,7,Ontime,g,1,1.944,4,1,17,1,1,,,,,
,0.74,,,,,,,,,g.PNG,g,5d27face6543780001951271,2021-09-08_12h32.55.544,forced_choiceRT,2021.1.2,MacIntel,38.46153846,,,,,,,,7,Ontime,g,1,1.962,4,2,18,1,1,,,,,
,0.72,,,,,,,,,f.PNG,f,5d27face6543780001951271,2021-09-08_12h32.55.544,forced_choiceRT,2021.1.2,MacIntel,38.46153846,,,,,,,,7,Ontime,f,1,1.965,4,3,19,0,1,,,,,
,1.23,,,,,,,,,h.PNG,h,5d27face6543780001951271,2021-09-08_12h32.55.544,forced_choiceRT,2021.1.2,MacIntel,38.46153846,,,,,,,,7,Slow,h,1,2.134,5,0,20,2,1,,,,,
,0.37,,,,,,,,,g.PNG,g,5d27face6543780001951271,2021-09-08_12h32.55.544,forced_choiceRT,2021.1.2,MacIntel,38.46153846,,,,,,,,7,Fast,h,0,1.71,5,1,21,1,1,,,,,
,0.12,,,,,,,,,g.PNG,g,5d27face6543780001951271,2021-09-08_12h32.55.544,forced_choiceRT,2021.1.2,MacIntel,38.46153846,,,,,,,,7,Fast,g,1,1.743,5,2,22,1,1,,,,,
,0.51,,,,,,,,,h.PNG,h,5d27face6543780001951271,2021-09-08_12h32.55.544,forced_choiceRT,2021.1.2,MacIntel,38.46153846,,,,,,,,7,Ontime,h,1,1.918,5,3,23,2,1,,,,,
,1.01,,,,,,,,,j.PNG,j,5d27face6543780001951271,2021-09-08_12h32.55.544,forced_choiceRT,2021.1.2,MacIntel,38.46153846,,,,,,,,7,Fast,j,1,1.85,6,0,24,3,1,,,,,
,0.79,,,,,,,,,j.PNG,j,5d27face6543780001951271,2021-09-08_12h32.55.544,forced_choiceRT,2021.1.2,MacIntel,38.46153846,,,,,,,,7,Ontime,j,1,1.909,6,1,25,3,1,,,,,
,0.4,,,,,,,,,g.PNG,g,5d27face6543780001951271,2021-09-08_12h32.55.544,forced_choiceRT,2021.1.2,MacIntel,38.46153846,,,,,,,,7,Fast,g,1,1.783,6,2,26,1,1,,,,,
,0.66,,,,,,,,,f.PNG,f,5d27face6543780001951271,2021-09-08_12h32.55.544,forced_choiceRT,2021.1.2,MacIntel,38.46153846,,,,,,,,7,Fast,f,1,1.882,6,3,27,0,1,,,,,
,0.83,,,,,,,,,f.PNG,f,5d27face6543780001951271,2021-09-08_12h32.55.544,forced_choiceRT,2021.1.2,MacIntel,38.46153846,,,,,,,,7,Ontime,f,1,1.959,7,0,28,0,1,,,,,
,1.05,,,,,,,,,f.PNG,f,5d27face6543780001951271,2021-09-08_12h32.55.544,forced_choiceRT,2021.1.2,MacIntel,38.46153846,,,,,,,,7,Ontime,f,1,1.919,7,1,29,0,1,,,,,
,0.89,,,,,,,,,g.PNG,g,5d27face6543780001951271,2021-09-08_12h32.55.544,forced_choiceRT,2021.1.2,MacIntel,38.46153846,,,,,,,,7,Ontime,g,1,1.944,7,2,30,1,1,,,,,
,1.71,,,,,,,,,h.PNG,h,5d27face6543780001951271,2021-09-08_12h32.55.544,forced_choiceRT,2021.1.2,MacIntel,38.46153846,,,,,,,,7,Slow,h,1,2.2,7,3,31,2,1,,,,,
,0.12,,,,,,,,,h.PNG,h,5d27face6543780001951271,2021-09-08_12h32.55.544,forced_choiceRT,2021.1.2,MacIntel,38.46153846,,,,,,,,7,Fast,h,1,1.75,8,0,32,2,1,,,,,
,1.91,,,,,,,,,h.PNG,h,5d27face6543780001951271,2021-09-08_12h32.55.544,forced_choiceRT,2021.1.2,MacIntel,38.46153846,,,,,,,,7,Ontime,f,0,2.034,8,1,33,2,1,,,,,
,0.02,,,,,,,,,j.PNG,j,5d27face6543780001951271,2021-09-08_12h32.55.544,forced_choiceRT,2021.1.2,MacIntel,38.46153846,,,,,,,,7,Ontime,j,1,1.96,8,2,34,3,1,,,,,
,1.65,,,,,,,,,g.PNG,g,5d27face6543780001951271,2021-09-08_12h32.55.544,forced_choiceRT,2021.1.2,MacIntel,38.46153846,,,,,,,,7,Ontime,g,1,1.93,8,3,35,1,1,,,,,
,1.85,,,,,,,,,h.PNG,h,5d27face6543780001951271,2021-09-08_12h32.55.544,forced_choiceRT,2021.1.2,MacIntel,38.46153846,,,,,,,,7,Ontime,g,0,1.976,9,0,36,2,1,,,,,
,1.38,,,,,,,,,j.PNG,j,5d27face6543780001951271,2021-09-08_12h32.55.544,forced_choiceRT,2021.1.2,MacIntel,38.46153846,,,,,,,,7,Fast,h,0,1.699,9,1,37,3,1,,,,,
,1.59,,,,,,,,,g.PNG,g,5d27face6543780001951271,2021-09-08_12h32.55.544,forced_choiceRT,2021.1.2,MacIntel,38.46153846,,,,,,,,7,Fast,j,0,1.892,9,2,38,1,1,,,,,
,1.03,,,,,,,,,j.PNG,j,5d27face6543780001951271,2021-09-08_12h32.55.544,forced_choiceRT,2021.1.2,MacIntel,38.46153846,,,,,,,,7,Fast,j,1,1.801,9,3,39,3,1,,,,,
,,,,,,,,,,,,5d27face6543780001951271,2021-09-08_12h32.55.544,forced_choiceRT,2021.1.2,MacIntel,38.46153846,,,,,,,,,,,,,,,,,,6,0,6,0,1
,0.34,,,,,,,,,j.PNG,j,5d27face6543780001951271,2021-09-08_12h32.55.544,forced_choiceRT,2021.1.2,MacIntel,38.46153846,,,,,,,,8,Fast,j,1,1.851,0,0,0,3,1,,,,,
,1.49,,,,,,,,,g.PNG,g,5d27face6543780001951271,2021-09-08_12h32.55.544,forced_choiceRT,2021.1.2,MacIntel,38.46153846,,,,,,,,8,Ontime,g,1,2.051,0,1,1,1,1,,,,,
,0.53,,,,,,,,,f.PNG,f,5d27face6543780001951271,2021-09-08_12h32.55.544,forced_choiceRT,2021.1.2,MacIntel,38.46153846,,,,,,,,8,Ontime,f,1,1.949,0,2,2,0,1,,,,,
,1.31,,,,,,,,,h.PNG,h,5d27face6543780001951271,2021-09-08_12h32.55.544,forced_choiceRT,2021.1.2,MacIntel,38.46153846,,,,,,,,8,Ontime,h,1,1.933,0,3,3,2,1,,,,,
,1.58,,,,,,,,,f.PNG,f,5d27face6543780001951271,2021-09-08_12h32.55.544,forced_choiceRT,2021.1.2,MacIntel,38.46153846,,,,,,,,8,Fast,j,0,1.892,1,0,4,0,1,,,,,
,1.07,,,,,,,,,f.PNG,f,5d27face6543780001951271,2021-09-08_12h32.55.544,forced_choiceRT,2021.1.2,MacIntel,38.46153846,,,,,,,,8,Fast,f,1,1.762,1,1,5,0,1,,,,,
,1.14,,,,,,,,,h.PNG,h,5d27face6543780001951271,2021-09-08_12h32.55.544,forced_choiceRT,2021.1.2,MacIntel,38.46153846,,,,,,,,8,Ontime,h,1,1.9,1,2,6,2,1,,,,,
,0.54,,,,,,,,,f.PNG,f,5d27face6543780001951271,2021-09-08_12h32.55.544,forced_choiceRT,2021.1.2,MacIntel,38.46153846,,,,,,,,8,Ontime,f,1,1.999,1,3,7,0,1,,,,,
,0.39,,,,,,,,,j.PNG,j,5d27face6543780001951271,2021-09-08_12h32.55.544,forced_choiceRT,2021.1.2,MacIntel,38.46153846,,,,,,,,8,Ontime,j,1,1.97,2,0,8,3,1,,,,,
,0.33,,,,,,,,,h.PNG,h,5d27face6543780001951271,2021-09-08_12h32.55.544,forced_choiceRT,2021.1.2,MacIntel,38.46153846,,,,,,,,8,Ontime,h,1,1.932,2,1,9,2,1,,,,,
,1.22,,,,,,,,,h.PNG,h,5d27face6543780001951271,2021-09-08_12h32.55.544,forced_choiceRT,2021.1.2,MacIntel,38.46153846,,,,,,,,8,Ontime,h,1,1.94,2,2,10,2,1,,,,,
,1.08,,,,,,,,,g.PNG,g,5d27face6543780001951271,2021-09-08_12h32.55.544,forced_choiceRT,2021.1.2,MacIntel,38.46153846,,,,,,,,8,Ontime,g,1,1.951,2,3,11,1,1,,,,,
,1.98,,,,,,,,,j.PNG,j,5d27face6543780001951271,2021-09-08_12h32.55.544,forced_choiceRT,2021.1.2,MacIntel,38.46153846,,,,,,,,8,Ontime,h,0,2.051,3,0,12,3,1,,,,,
,1.81,,,,,,,,,g.PNG,g,5d27face6543780001951271,2021-09-08_12h32.55.544,forced_choiceRT,2021.1.2,MacIntel,38.46153846,,,,,,,,8,Ontime,f,0,2.049,3,1,13,1,1,,,,,
,1.33,,,,,,,,,f.PNG,f,5d27face6543780001951271,2021-09-08_12h32.55.544,forced_choiceRT,2021.1.2,MacIntel,38.46153846,,,,,,,,8,Ontime,f,1,1.933,3,2,14,0,1,,,,,
,0.41,,,,,,,,,g.PNG,g,5d27face6543780001951271,2021-09-08_12h32.55.544,forced_choiceRT,2021.1.2,MacIntel,38.46153846,,,,,,,,8,Ontime,g,1,1.965,3,3,15,1,1,,,,,
,0.28,,,,,,,,,f.PNG,f,5d27face6543780001951271,2021-09-08_12h32.55.544,forced_choiceRT,2021.1.2,MacIntel,38.46153846,,,,,,,,8,Ontime,f,1,1.949,4,0,16,0,1,,,,,
,1.4,,,,,,,,,h.PNG,h,5d27face6543780001951271,2021-09-08_12h32.55.544,forced_choiceRT,2021.1.2,MacIntel,38.46153846,,,,,,,,8,Ontime,g,0,1.999,4,1,17,2,1,,,,,
,1.11,,,,,,,,,f.PNG,f,5d27face6543780001951271,2021-09-08_12h32.55.544,forced_choiceRT,2021.1.2,MacIntel,38.46153846,,,,,,,,8,Fast,f,1,1.878,4,2,18,0,1,,,,,
,0.63,,,,,,,,,f.PNG,f,5d27face6543780001951271,2021-09-08_12h32.55.544,forced_choiceRT,2021.1.2,MacIntel,38.46153846,,,,,,,,8,Ontime,f,1,1.993,4,3,19,0,1,,,,,
,0.28,,,,,,,,,j.PNG,j,5d27face6543780001951271,2021-09-08_12h32.55.544,forced_choiceRT,2021.1.2,MacIntel,38.46153846,,,,,,,,8,Ontime,j,1,1.931,5,0,20,3,1,,,,,
,0.05,,,,,,,,,h.PNG,h,5d27face6543780001951271,2021-09-08_12h32.55.544,forced_choiceRT,2021.1.2,MacIntel,38.46153846,,,,,,,,8,Ontime,h,1,1.925,5,1,21,2,1,,,,,
,0.16,,,,,,,,,f.PNG,f,5d27face6543780001951271,2021-09-08_12h32.55.544,forced_choiceRT,2021.1.2,MacIntel,38.46153846,,,,,,,,8,Ontime,f,1,1.934,5,2,22,0,1,,,,,
,0.91,,,,,,,,,h.PNG,h,5d27face6543780001951271,2021-09-08_12h32.55.544,forced_choiceRT,2021.1.2,MacIntel,38.46153846,,,,,,,,8,Ontime,h,1,1.977,5,3,23,2,1,,,,,
,1.5,,,,,,,,,h.PNG,h,5d27face6543780001951271,2021-09-08_12h32.55.544,forced_choiceRT,2021.1.2,MacIntel,38.46153846,,,,,,,,8,Fast,f,0,1.827,6,0,24,2,1,,,,,
,0.23,,,,,,,,,j.PNG,j,5d27face6543780001951271,2021-09-08_12h32.55.544,forced_choiceRT,2021.1.2,MacIntel,38.46153846,,,,,,,,8,Ontime,j,1,2,6,1,25,3,1,,,,,
,1.68,,,,,,,,,j.PNG,j,5d27face6543780001951271,2021-09-08_12h32.55.544,forced_choiceRT,2021.1.2,MacIntel,38.46153846,,,,,,,,8,Ontime,g,0,2.008,6,2,26,3,1,,,,,
,1.58,,,,,,,,,j.PNG,j,5d27face6543780001951271,2021-09-08_12h32.55.544,forced_choiceRT,2021.1.2,MacIntel,38.46153846,,,,,,,,8,Slow,j,1,2.102,6,3,27,3,1,,,,,
,0,,,,,,,,,j.PNG,j,5d27face6543780001951271,2021-09-08_12h32.55.544,forced_choiceRT,2021.1.2,MacIntel,38.46153846,,,,,,,,8,Ontime,j,1,1.975,7,0,28,3,1,,,,,
,0.8,,,,,,,,,j.PNG,j,5d27face6543780001951271,2021-09-08_12h32.55.544,forced_choiceRT,2021.1.2,MacIntel,38.46153846,,,,,,,,8,Ontime,j,1,1.969,7,1,29,3,1,,,,,
,0.08,,,,,,,,,f.PNG,f,5d27face6543780001951271,2021-09-08_12h32.55.544,forced_choiceRT,2021.1.2,MacIntel,38.46153846,,,,,,,,8,Fast,f,1,1.849,7,2,30,0,1,,,,,
,1.61,,,,,,,,,g.PNG,g,5d27face6543780001951271,2021-09-08_12h32.55.544,forced_choiceRT,2021.1.2,MacIntel,38.46153846,,,,,,,,8,Slow,g,1,2.118,7,3,31,1,1,,,,,
,1.87,,,,,,,,,g.PNG,g,5d27face6543780001951271,2021-09-08_12h32.55.544,forced_choiceRT,2021.1.2,MacIntel,38.46153846,,,,,,,,8,Fast,h,0,1.877,8,0,32,1,1,,,,,
,0.5,,,,,,,,,g.PNG,g,5d27face6543780001951271,2021-09-08_12h32.55.544,forced_choiceRT,2021.1.2,MacIntel,38.46153846,,,,,,,,8,Ontime,g,1,2.032,8,1,33,1,1,,,,,
,0.19,,,,,,,,,g.PNG,g,5d27face6543780001951271,2021-09-08_12h32.55.544,forced_choiceRT,2021.1.2,MacIntel,38.46153846,,,,,,,,8,Ontime,g,1,2.041,8,2,34,1,1,,,,,
,1.13,,,,,,,,,g.PNG,g,5d27face6543780001951271,2021-09-08_12h32.55.544,forced_choiceRT,2021.1.2,MacIntel,38.46153846,,,,,,,,8,Ontime,g,1,1.933,8,3,35,1,1,,,,,
,1.9,,,,,,,,,g.PNG,g,5d27face6543780001951271,2021-09-08_12h32.55.544,forced_choiceRT,2021.1.2,MacIntel,38.46153846,,,,,,,,8,Ontime,g,1,1.992,9,0,36,1,1,,,,,
,0.89,,,,,,,,,h.PNG,h,5d27face6543780001951271,2021-09-08_12h32.55.544,forced_choiceRT,2021.1.2,MacIntel,38.46153846,,,,,,,,8,Ontime,h,1,1.966,9,1,37,2,1,,,,,
,0.21,,,,,,,,,h.PNG,h,5d27face6543780001951271,2021-09-08_12h32.55.544,forced_choiceRT,2021.1.2,MacIntel,38.46153846,,,,,,,,8,Ontime,h,1,1.983,9,2,38,2,1,,,,,
,0.74,,,,,,,,,j.PNG,j,5d27face6543780001951271,2021-09-08_12h32.55.544,forced_choiceRT,2021.1.2,MacIntel,38.46153846,,,,,,,,8,Ontime,j,1,1.978,9,3,39,3,1,,,,,
,,,,,,,,,,,,5d27face6543780001951271,2021-09-08_12h32.55.544,forced_choiceRT,2021.1.2,MacIntel,38.46153846,,,,,,,,,,,,,,,,,,7,0,7,0,1
,0.54,,,,,,,,,g.PNG,g,5d27face6543780001951271,2021-09-08_12h32.55.544,forced_choiceRT,2021.1.2,MacIntel,38.46153846,,,,,,,,9,Ontime,g,1,2.046,0,0,0,1,1,,,,,
,1.37,,,,,,,,,g.PNG,g,5d27face6543780001951271,2021-09-08_12h32.55.544,forced_choiceRT,2021.1.2,MacIntel,38.46153846,,,,,,,,9,Ontime,g,1,2.092,0,1,1,1,1,,,,,
,0.14,,,,,,,,,j.PNG,j,5d27face6543780001951271,2021-09-08_12h32.55.544,forced_choiceRT,2021.1.2,MacIntel,38.46153846,,,,,,,,9,Ontime,j,1,1.933,0,2,2,3,1,,,,,
,1.62,,,,,,,,,j.PNG,j,5d27face6543780001951271,2021-09-08_12h32.55.544,forced_choiceRT,2021.1.2,MacIntel,38.46153846,,,,,,,,9,Ontime,f,0,1.942,0,3,3,3,1,,,,,
,1.55,,,,,,,,,j.PNG,j,5d27face6543780001951271,2021-09-08_12h32.55.544,forced_choiceRT,2021.1.2,MacIntel,38.46153846,,,,,,,,9,Ontime,h,0,1.915,1,0,4,3,1,,,,,
,0.33,,,,,,,,,j.PNG,j,5d27face6543780001951271,2021-09-08_12h32.55.544,forced_choiceRT,2021.1.2,MacIntel,38.46153846,,,,,,,,9,Ontime,j,1,1.992,1,1,5,3,1,,,,,
,0.29,,,,,,,,,g.PNG,g,5d27face6543780001951271,2021-09-08_12h32.55.544,forced_choiceRT,2021.1.2,MacIntel,38.46153846,,,,,,,,9,Ontime,g,1,1.909,1,2,6,1,1,,,,,
,0.33,,,,,,,,,g.PNG,g,5d27face6543780001951271,2021-09-08_12h32.55.544,forced_choiceRT,2021.1.2,MacIntel,38.46153846,,,,,,,,9,Ontime,g,1,1.933,1,3,7,1,1,,,,,
,1.1,,,,,,,,,h.PNG,h,5d27face6543780001951271,2021-09-08_12h32.55.544,forced_choiceRT,2021.1.2,MacIntel,38.46153846,,,,,,,,9,Fast,h,1,1.893,2,0,8,2,1,,,,,
,1.67,,,,,,,,,h.PNG,h,5d27face6543780001951271,2021-09-08_12h32.55.544,forced_choiceRT,2021.1.2,MacIntel,38.46153846,,,,,,,,9,Ontime,h,1,2.009,2,1,9,2,1,,,,,
,1.07,,,,,,,,,j.PNG,j,5d27face6543780001951271,2021-09-08_12h32.55.544,forced_choiceRT,2021.1.2,MacIntel,38.46153846,,,,,,,,9,Ontime,j,1,1.933,2,2,10,3,1,,,,,
,1.07,,,,,,,,,f.PNG,f,5d27face6543780001951271,2021-09-08_12h32.55.544,forced_choiceRT,2021.1.2,MacIntel,38.46153846,,,,,,,,9,Ontime,f,1,2.033,2,3,11,0,1,,,,,
,1.78,,,,,,,,,g.PNG,g,5d27face6543780001951271,2021-09-08_12h32.55.544,forced_choiceRT,2021.1.2,MacIntel,38.46153846,,,,,,,,9,Ontime,h,0,2,3,0,12,1,1,,,,,
,1.5,,,,,,,,,f.PNG,f,5d27face6543780001951271,2021-09-08_12h32.55.544,forced_choiceRT,2021.1.2,MacIntel,38.46153846,,,,,,,,9,Fast,g,0,1.873,3,1,13,0,1,,,,,
,0.78,,,,,,,,,h.PNG,h,5d27face6543780001951271,2021-09-08_12h32.55.544,forced_choiceRT,2021.1.2,MacIntel,38.46153846,,,,,,,,9,Fast,h,1,1.794,3,2,14,2,1,,,,,
,1.28,,,,,,,,,h.PNG,h,5d27face6543780001951271,2021-09-08_12h32.55.544,forced_choiceRT,2021.1.2,MacIntel,38.46153846,,,,,,,,9,Ontime,h,1,2.05,3,3,15,2,1,,,,,
,1.51,,,,,,,,,h.PNG,h,5d27face6543780001951271,2021-09-08_12h32.55.544,forced_choiceRT,2021.1.2,MacIntel,38.46153846,,,,,,,,9,Ontime,h,1,2.018,4,0,16,2,1,,,,,
,1.64,,,,,,,,,j.PNG,j,5d27face6543780001951271,2021-09-08_12h32.55.544,forced_choiceRT,2021.1.2,MacIntel,38.46153846,,,,,,,,9,Ontime,h,0,2.091,4,1,17,3,1,,,,,
,1.27,,,,,,,,,j.PNG,j,5d27face6543780001951271,2021-09-08_12h32.55.544,forced_choiceRT,2021.1.2,MacIntel,38.46153846,,,,,,,,9,Ontime,j,1,1.948,4,2,18,3,1,,,,,
,1.94,,,,,,,,,f.PNG,f,5d27face6543780001951271,2021-09-08_12h32.55.544,forced_choiceRT,2021.1.2,MacIntel,38.46153846,,,,,,,,9,Slow,f,1,2.216,4,3,19,0,1,,,,,
,1.55,,,,,,,,,j.PNG,j,5d27face6543780001951271,2021-09-08_12h32.55.544,forced_choiceRT,2021.1.2,MacIntel,38.46153846,,,,,,,,9,Ontime,g,0,1.926,5,0,20,3,1,,,,,
,0.67,,,,,,,,,j.PNG,j,5d27face6543780001951271,2021-09-08_12h32.55.544,forced_choiceRT,2021.1.2,MacIntel,38.46153846,,,,,,,,9,Ontime,j,1,1.934,5,1,21,3,1,,,,,
,1.9,,,,,,,,,f.PNG,f,5d27face6543780001951271,2021-09-08_12h32.55.544,forced_choiceRT,2021.1.2,MacIntel,38.46153846,,,,,,,,9,Ontime,g,0,2.067,5,2,22,0,1,,,,,
,1.19,,,,,,,,,j.PNG,j,5d27face6543780001951271,2021-09-08_12h32.55.544,forced_choiceRT,2021.1.2,MacIntel,38.46153846,,,,,,,,9,Fast,j,1,1.851,5,3,23,3,1,,,,,
,1.41,,,,,,,,,h.PNG,h,5d27face6543780001951271,2021-09-08_12h32.55.544,forced_choiceRT,2021.1.2,MacIntel,38.46153846,,,,,,,,9,Ontime,h,1,2.028,6,0,24,2,1,,,,,
,1.7,,,,,,,,,h.PNG,h,5d27face6543780001951271,2021-09-08_12h32.55.544,forced_choiceRT,2021.1.2,MacIntel,38.46153846,,,,,,,,9,Ontime,g,0,2.002,6,1,25,2,1,,,,,
,1.93,,,,,,,,,h.PNG,h,5d27face6543780001951271,2021-09-08_12h32.55.544,forced_choiceRT,2021.1.2,MacIntel,38.46153846,,,,,,,,9,Ontime,h,1,2.019,6,2,26,2,1,,,,,
,1.88,,,,,,,,,h.PNG,h,5d27face6543780001951271,2021-09-08_12h32.55.544,forced_choiceRT,2021.1.2,MacIntel,38.46153846,,,,,,,,9,Ontime,g,0,2.032,6,3,27,2,1,,,,,
,0.74,,,,,,,,,f.PNG,f,5d27face6543780001951271,2021-09-08_12h32.55.544,forced_choiceRT,2021.1.2,MacIntel,38.46153846,,,,,,,,9,Ontime,f,1,2.083,7,0,28,0,1,,,,,
,0.97,,,,,,,,,f.PNG,f,5d27face6543780001951271,2021-09-08_12h32.55.544,forced_choiceRT,2021.1.2,MacIntel,38.46153846,,,,,,,,9,Ontime,f,1,1.932,7,1,29,0,1,,,,,
,1.81,,,,,,,,,g.PNG,g,5d27face6543780001951271,2021-09-08_12h32.55.544,forced_choiceRT,2021.1.2,MacIntel,38.46153846,,,,,,,,9,Ontime,h,0,2.096,7,2,30,1,1,,,,,
,0.69,,,,,,,,,f.PNG,f,5d27face6543780001951271,2021-09-08_12h32.55.544,forced_choiceRT,2021.1.2,MacIntel,38.46153846,,,,,,,,9,Slow,f,1,2.219,7,3,31,0,1,,,,,
,1.64,,,,,,,,,g.PNG,g,5d27face6543780001951271,2021-09-08_12h32.55.544,forced_choiceRT,2021.1.2,MacIntel,38.46153846,,,,,,,,9,Ontime,f,0,1.902,8,0,32,1,1,,,,,
,1.27,,,,,,,,,f.PNG,f,5d27face6543780001951271,2021-09-08_12h32.55.544,forced_choiceRT,2021.1.2,MacIntel,38.46153846,,,,,,,,9,Fast,f,1,1.866,8,1,33,0,1,,,,,
,0.63,,,,,,,,,g.PNG,g,5d27face6543780001951271,2021-09-08_12h32.55.544,forced_choiceRT,2021.1.2,MacIntel,38.46153846,,,,,,,,9,Ontime,g,1,2.05,8,2,34,1,1,,,,,
,0.91,,,,,,,,,g.PNG,g,5d27face6543780001951271,2021-09-08_12h32.55.544,forced_choiceRT,2021.1.2,MacIntel,38.46153846,,,,,,,,9,Ontime,g,1,1.943,8,3,35,1,1,,,,,
,0.56,,,,,,,,,f.PNG,f,5d27face6543780001951271,2021-09-08_12h32.55.544,forced_choiceRT,2021.1.2,MacIntel,38.46153846,,,,,,,,9,Ontime,f,1,1.967,9,0,36,0,1,,,,,
,1.15,,,,,,,,,h.PNG,h,5d27face6543780001951271,2021-09-08_12h32.55.544,forced_choiceRT,2021.1.2,MacIntel,38.46153846,,,,,,,,9,Ontime,h,1,1.992,9,1,37,2,1,,,,,
,1.23,,,,,,,,,f.PNG,f,5d27face6543780001951271,2021-09-08_12h32.55.544,forced_choiceRT,2021.1.2,MacIntel,38.46153846,,,,,,,,9,Ontime,f,1,1.932,9,2,38,0,1,,,,,
,1.82,,,,,,,,,g.PNG,g,5d27face6543780001951271,2021-09-08_12h32.55.544,forced_choiceRT,2021.1.2,MacIntel,38.46153846,,,,,,,,9,Ontime,j,0,2.06,9,3,39,1,1,,,,,
,,,,,,,,,,,,5d27face6543780001951271,2021-09-08_12h32.55.544,forced_choiceRT,2021.1.2,MacIntel,38.46153846,,,,,,,,,,,,,,,,,,8,0,8,0,1
,0.82,,,,,,,,,j.PNG,j,5d27face6543780001951271,2021-09-08_12h32.55.544,forced_choiceRT,2021.1.2,MacIntel,38.46153846,,,,,,,,10,Ontime,j,1,2.015,0,0,0,3,1,,,,,
,1.96,,,,,,,,,f.PNG,f,5d27face6543780001951271,2021-09-08_12h32.55.544,forced_choiceRT,2021.1.2,MacIntel,38.46153846,,,,,,,,10,Slow,h,0,2.282,0,1,1,0,1,,,,,
,0.64,,,,,,,,,g.PNG,g,5d27face6543780001951271,2021-09-08_12h32.55.544,forced_choiceRT,2021.1.2,MacIntel,38.46153846,,,,,,,,10,Ontime,g,1,1.931,0,2,2,1,1,,,,,
,1.96,,,,,,,,,h.PNG,h,5d27face6543780001951271,2021-09-08_12h32.55.544,forced_choiceRT,2021.1.2,MacIntel,38.46153846,,,,,,,,10,Ontime,f,0,1.951,0,3,3,2,1,,,,,
,1.21,,,,,,,,,g.PNG,g,5d27face6543780001951271,2021-09-08_12h32.55.544,forced_choiceRT,2021.1.2,MacIntel,38.46153846,,,,,,,,10,Ontime,g,1,1.92,1,0,4,1,1,,,,,
,1.35,,,,,,,,,f.PNG,f,5d27face6543780001951271,2021-09-08_12h32.55.544,forced_choiceRT,2021.1.2,MacIntel,38.46153846,,,,,,,,10,Ontime,f,1,1.944,1,1,5,0,1,,,,,
,0.98,,,,,,,,,j.PNG,j,5d27face6543780001951271,2021-09-08_12h32.55.544,forced_choiceRT,2021.1.2,MacIntel,38.46153846,,,,,,,,10,Fast,j,1,1.678,1,2,6,3,1,,,,,
,0.31,,,,,,,,,h.PNG,h,5d27face6543780001951271,2021-09-08_12h32.55.544,forced_choiceRT,2021.1.2,MacIntel,38.46153846,,,,,,,,10,Fast,h,1,1.81,1,3,7,2,1,,,,,
,1.76,,,,,,,,,h.PNG,h,5d27face6543780001951271,2021-09-08_12h32.55.544,forced_choiceRT,2021.1.2,MacIntel,38.46153846,,,,,,,,10,Ontime,j,0,2.001,2,0,8,2,1,,,,,
,1.67,,,,,,,,,h.PNG,h,5d27face6543780001951271,2021-09-08_12h32.55.544,forced_choiceRT,2021.1.2,MacIntel,38.46153846,,,,,,,,10,Slow,h,1,2.183,2,1,9,2,1,,,,,
,1.01,,,,,,,,,j.PNG,j,5d27face6543780001951271,2021-09-08_12h32.55.544,forced_choiceRT,2021.1.2,MacIntel,38.46153846,,,,,,,,10,Ontime,j,1,1.944,2,2,10,3,1,,,,,
,0.49,,,,,,,,,f.PNG,f,5d27face6543780001951271,2021-09-08_12h32.55.544,forced_choiceRT,2021.1.2,MacIntel,38.46153846,,,,,,,,10,Ontime,f,1,1.969,2,3,11,0,1,,,,,
,0.27,,,,,,,,,j.PNG,j,5d27face6543780001951271,2021-09-08_12h32.55.544,forced_choiceRT,2021.1.2,MacIntel,38.46153846,,,,,,,,10,Ontime,j,1,1.965,3,0,12,3,1,,,,,
,1.71,,,,,,,,,j.PNG,j,5d27face6543780001951271,2021-09-08_12h32.55.544,forced_choiceRT,2021.1.2,MacIntel,38.46153846,,,,,,,,10,Slow,f,0,2.16,3,1,13,3,1,,,,,
,0.85,,,,,,,,,g.PNG,g,5d27face6543780001951271,2021-09-08_12h32.55.544,forced_choiceRT,2021.1.2,MacIntel,38.46153846,,,,,,,,10,Ontime,g,1,1.934,3,2,14,1,1,,,,,
,1.11,,,,,,,,,f.PNG,f,5d27face6543780001951271,2021-09-08_12h32.55.544,forced_choiceRT,2021.1.2,MacIntel,38.46153846,,,,,,,,10,Ontime,f,1,1.993,3,3,15,0,1,,,,,
,1.58,,,,,,,,,h.PNG,h,5d27face6543780001951271,2021-09-08_12h32.55.544,forced_choiceRT,2021.1.2,MacIntel,38.46153846,,,,,,,,10,Ontime,j,0,2.035,4,0,16,2,1,,,,,
,1.29,,,,,,,,,f.PNG,f,5d27face6543780001951271,2021-09-08_12h32.55.544,forced_choiceRT,2021.1.2,MacIntel,38.46153846,,,,,,,,10,Ontime,f,1,1.918,4,1,17,0,1,,,,,
,1.42,,,,,,,,,g.PNG,g,5d27face6543780001951271,2021-09-08_12h32.55.544,forced_choiceRT,2021.1.2,MacIntel,38.46153846,,,,,,,,10,Ontime,f,0,1.948,4,2,18,1,1,,,,,
,1.72,,,,,,,,,f.PNG,f,5d27face6543780001951271,2021-09-08_12h32.55.544,forced_choiceRT,2021.1.2,MacIntel,38.46153846,,,,,,,,10,Ontime,j,0,1.968,4,3,19,0,1,,,,,
,0.84,,,,,,,,,g.PNG,g,5d27face6543780001951271,2021-09-08_12h32.55.544,forced_choiceRT,2021.1.2,MacIntel,38.46153846,,,,,,,,10,Ontime,g,1,1.916,5,0,20,1,1,,,,,
,0.97,,,,,,,,,f.PNG,f,5d27face6543780001951271,2021-09-08_12h32.55.544,forced_choiceRT,2021.1.2,MacIntel,38.46153846,,,,,,,,10,Ontime,f,1,1.999,5,1,21,0,1,,,,,
,0.99,,,,,,,,,h.PNG,h,5d27face6543780001951271,2021-09-08_12h32.55.544,forced_choiceRT,2021.1.2,MacIntel,38.46153846,,,,,,,,10,Fast,h,1,1.898,5,2,22,2,1,,,,,
,0.92,,,,,,,,,j.PNG,j,5d27face6543780001951271,2021-09-08_12h32.55.544,forced_choiceRT,2021.1.2,MacIntel,38.46153846,,,,,,,,10,Ontime,j,1,1.981,5,3,23,3,1,,,,,
,1.79,,,,,,,,,f.PNG,f,5d27face6543780001951271,2021-09-08_12h32.55.544,forced_choiceRT,2021.1.2,MacIntel,38.46153846,,,,,,,,10,Ontime,g,0,2.069,6,0,24,0,1,,,,,
,0.67,,,,,,,,,g.PNG,g,5d27face6543780001951271,2021-09-08_12h32.55.544,forced_choiceRT,2021.1.2,MacIntel,38.46153846,,,,,,,,10,Ontime,h,0,2.074,6,1,25,1,1,,,,,
,0.98,,,,,,,,,h.PNG,h,5d27face6543780001951271,2021-09-08_12h32.55.544,forced_choiceRT,2021.1.2,MacIntel,38.46153846,,,,,,,,10,Fast,g,0,1.881,6,2,26,2,1,,,,,
,0.53,,,,,,,,,g.PNG,g,5d27face6543780001951271,2021-09-08_12h32.55.544,forced_choiceRT,2021.1.2,MacIntel,38.46153846,,,,,,,,10,Ontime,g,1,1.96,6,3,27,1,1,,,,,
,0.45,,,,,,,,,h.PNG,h,5d27face6543780001951271,2021-09-08_12h32.55.544,forced_choiceRT,2021.1.2,MacIntel,38.46153846,,,,,,,,10,Ontime,h,1,2.01,7,0,28,2,1,,,,,
,1.25,,,,,,,,,j.PNG,j,5d27face6543780001951271,2021-09-08_12h32.55.544,forced_choiceRT,2021.1.2,MacIntel,38.46153846,,,,,,,,10,Ontime,j,1,1.901,7,1,29,3,1,,,,,
,1.32,,,,,,,,,g.PNG,g,5d27face6543780001951271,2021-09-08_12h32.55.544,forced_choiceRT,2021.1.2,MacIntel,38.46153846,,,,,,,,10,Ontime,g,1,2.033,7,2,30,1,1,,,,,
,0.1,,,,,,,,,f.PNG,f,5d27face6543780001951271,2021-09-08_12h32.55.544,forced_choiceRT,2021.1.2,MacIntel,38.46153846,,,,,,,,10,Ontime,f,1,1.933,7,3,31,0,1,,,,,
,1.11,,,,,,,,,f.PNG,f,5d27face6543780001951271,2021-09-08_12h32.55.544,forced_choiceRT,2021.1.2,MacIntel,38.46153846,,,,,,,,10,Ontime,f,1,1.964,8,0,32,0,1,,,,,
,0.83,,,,,,,,,j.PNG,j,5d27face6543780001951271,2021-09-08_12h32.55.544,forced_choiceRT,2021.1.2,MacIntel,38.46153846,,,,,,,,10,Ontime,j,1,1.976,8,1,33,3,1,,,,,
,1.32,,,,,,,,,h.PNG,h,5d27face6543780001951271,2021-09-08_12h32.55.544,forced_choiceRT,2021.1.2,MacIntel,38.46153846,,,,,,,,10,Ontime,g,0,2.002,8,2,34,2,1,,,,,
,1.24,,,,,,,,,h.PNG,h,5d27face6543780001951271,2021-09-08_12h32.55.544,forced_choiceRT,2021.1.2,MacIntel,38.46153846,,,,,,,,10,Slow,h,1,2.119,8,3,35,2,1,,,,,
,0.65,,,,,,,,,g.PNG,g,5d27face6543780001951271,2021-09-08_12h32.55.544,forced_choiceRT,2021.1.2,MacIntel,38.46153846,,,,,,,,10,Ontime,g,1,2.034,9,0,36,1,1,,,,,
,0.84,,,,,,,,,g.PNG,g,5d27face6543780001951271,2021-09-08_12h32.55.544,forced_choiceRT,2021.1.2,MacIntel,38.46153846,,,,,,,,10,Fast,g,1,1.884,9,1,37,1,1,,,,,
,0.37,,,,,,,,,j.PNG,j,5d27face6543780001951271,2021-09-08_12h32.55.544,forced_choiceRT,2021.1.2,MacIntel,38.46153846,,,,,,,,10,Ontime,j,1,1.974,9,2,38,3,1,,,,,
,1.57,,,,,,,,,j.PNG,j,5d27face6543780001951271,2021-09-08_12h32.55.544,forced_choiceRT,2021.1.2,MacIntel,38.46153846,,,,,,,,10,Slow,h,0,2.166,9,3,39,3,1,,,,,
,,,,,,,,,,,,5d27face6543780001951271,2021-09-08_12h32.55.544,forced_choiceRT,2021.1.2,MacIntel,38.46153846,,,,,,,,,,,,,,,,,,9,0,9,0,1
