IP_Addresss,target_onset,trial_resp_sp.keys,trial_resp_sp.corr,trial_resp_sp.rt,trials_train_loop.thisRepN,trials_train_loop.thisTrialN,trials_train_loop.thisN,trials_train_loop.thisIndex,trials_train_loop.ran,pic,correct_key,participant,date,expName,psychopyVersion,OS,frameRate,trial_resp_timing.keys,trial_resp_timing.rt,trials_train_timing.thisRepN,trials_train_timing.thisTrialN,trials_train_timing.thisN,trials_train_timing.thisIndex,trials_train_timing.ran,block_id,ontime,forcedRT_resp.keys,forcedRT_resp.corr,forcedRT_resp.rt,trials.thisRepN,trials.thisTrialN,trials.thisN,trials.thisIndex,trials.ran,blocks.thisRepN,blocks.thisTrialN,blocks.thisN,blocks.thisIndex,blocks.ran
24.77.18.96,0,g,1,1.442,0,0,0,1,1,g.PNG,g,5d5ff4697721bf0015083888,2021-09-08_15h12.56.415,forced_choiceRT,2021.1.2,Win32,59.88023952,,,,,,,,,,,,,,,,,,,,,,
,0,j,0,0.903,0,1,1,2,1,h.PNG,h,5d5ff4697721bf0015083888,2021-09-08_15h12.56.415,forced_choiceRT,2021.1.2,Win32,59.88023952,,,,,,,,,,,,,,,,,,,,,,
,0,g,1,1.386,0,2,2,1,1,g.PNG,g,5d5ff4697721bf0015083888,2021-09-08_15h12.56.415,forced_choiceRT,2021.1.2,Win32,59.88023952,,,,,,,,,,,,,,,,,,,,,,
,0,h,1,1.169,0,3,3,2,1,h.PNG,h,5d5ff4697721bf0015083888,2021-09-08_15h12.56.415,forced_choiceRT,2021.1.2,Win32,59.88023952,,,,,,,,,,,,,,,,,,,,,,
,0,f,1,2.158,1,0,4,0,1,f.PNG,f,5d5ff4697721bf0015083888,2021-09-08_15h12.56.415,forced_choiceRT,2021.1.2,Win32,59.88023952,,,,,,,,,,,,,,,,,,,,,,
,0,h,1,1.386,1,1,5,2,1,h.PNG,h,5d5ff4697721bf0015083888,2021-09-08_15h12.56.415,forced_choiceRT,2021.1.2,Win32,59.88023952,,,,,,,,,,,,,,,,,,,,,,
,0,g,1,1.252,1,2,6,1,1,g.PNG,g,5d5ff4697721bf0015083888,2021-09-08_15h12.56.415,forced_choiceRT,2021.1.2,Win32,59.88023952,,,,,,,,,,,,,,,,,,,,,,
,0,f,1,0.669,1,3,7,0,1,f.PNG,f,5d5ff4697721bf0015083888,2021-09-08_15h12.56.415,forced_choiceRT,2021.1.2,Win32,59.88023952,,,,,,,,,,,,,,,,,,,,,,
,0,f,1,0.886,2,0,8,0,1,f.PNG,f,5d5ff4697721bf0015083888,2021-09-08_15h12.56.415,forced_choiceRT,2021.1.2,Win32,59.88023952,,,,,,,,,,,,,,,,,,,,,,
,0,j,1,0.952,2,1,9,3,1,j.PNG,j,5d5ff4697721bf0015083888,2021-09-08_15h12.56.415,forced_choiceRT,2021.1.2,Win32,59.88023952,,,,,,,,,,,,,,,,,,,,,,
,0,g,1,0.805,2,2,10,1,1,g.PNG,g,5d5ff4697721bf0015083888,2021-09-08_15h12.56.415,forced_choiceRT,2021.1.2,Win32,59.88023952,,,,,,,,,,,,,,,,,,,,,,
,0,g,1,0.619,2,3,11,1,1,g.PNG,g,5d5ff4697721bf0015083888,2021-09-08_15h12.56.415,forced_choiceRT,2021.1.2,Win32,59.88023952,,,,,,,,,,,,,,,,,,,,,,
,0,g,1,0.534,3,0,12,1,1,g.PNG,g,5d5ff4697721bf0015083888,2021-09-08_15h12.56.415,forced_choiceRT,2021.1.2,Win32,59.88023952,,,,,,,,,,,,,,,,,,,,,,
,0,f,1,0.592,3,1,13,0,1,f.PNG,f,5d5ff4697721bf0015083888,2021-09-08_15h12.56.415,forced_choiceRT,2021.1.2,Win32,59.88023952,,,,,,,,,,,,,,,,,,,,,,
,0,h,1,0.822,3,2,14,2,1,h.PNG,h,5d5ff4697721bf0015083888,2021-09-08_15h12.56.415,forced_choiceRT,2021.1.2,Win32,59.88023952,,,,,,,,,,,,,,,,,,,,,,
,0,j,1,0.656,3,3,15,3,1,j.PNG,j,5d5ff4697721bf0015083888,2021-09-08_15h12.56.415,forced_choiceRT,2021.1.2,Win32,59.88023952,,,,,,,,,,,,,,,,,,,,,,
,0,g,1,0.886,4,0,16,1,1,g.PNG,g,5d5ff4697721bf0015083888,2021-09-08_15h12.56.415,forced_choiceRT,2021.1.2,Win32,59.88023952,,,,,,,,,,,,,,,,,,,,,,
,0,j,1,1.036,4,1,17,3,1,j.PNG,j,5d5ff4697721bf0015083888,2021-09-08_15h12.56.415,forced_choiceRT,2021.1.2,Win32,59.88023952,,,,,,,,,,,,,,,,,,,,,,
,0,h,1,0.753,4,2,18,2,1,h.PNG,h,5d5ff4697721bf0015083888,2021-09-08_15h12.56.415,forced_choiceRT,2021.1.2,Win32,59.88023952,,,,,,,,,,,,,,,,,,,,,,
,0,f,1,0.668,4,3,19,0,1,f.PNG,f,5d5ff4697721bf0015083888,2021-09-08_15h12.56.415,forced_choiceRT,2021.1.2,Win32,59.88023952,,,,,,,,,,,,,,,,,,,,,,
,0,h,1,1.156,5,0,20,2,1,h.PNG,h,5d5ff4697721bf0015083888,2021-09-08_15h12.56.415,forced_choiceRT,2021.1.2,Win32,59.88023952,,,,,,,,,,,,,,,,,,,,,,
,0,f,1,0.818,5,1,21,0,1,f.PNG,f,5d5ff4697721bf0015083888,2021-09-08_15h12.56.415,forced_choiceRT,2021.1.2,Win32,59.88023952,,,,,,,,,,,,,,,,,,,,,,
,0,h,1,1.239,5,2,22,2,1,h.PNG,h,5d5ff4697721bf0015083888,2021-09-08_15h12.56.415,forced_choiceRT,2021.1.2,Win32,59.88023952,,,,,,,,,,,,,,,,,,,,,,
,0,h,1,0.602,5,3,23,2,1,h.PNG,h,5d5ff4697721bf0015083888,2021-09-08_15h12.56.415,forced_choiceRT,2021.1.2,Win32,59.88023952,,,,,,,,,,,,,,,,,,,,,,
,0,f,1,0.586,6,0,24,0,1,f.PNG,f,5d5ff4697721bf0015083888,2021-09-08_15h12.56.415,forced_choiceRT,2021.1.2,Win32,59.88023952,,,,,,,,,,,,,,,,,,,,,,
,0,j,1,0.674,6,1,25,3,1,j.PNG,j,5d5ff4697721bf0015083888,2021-09-08_15h12.56.415,forced_choiceRT,2021.1.2,Win32,59.88023952,,,,,,,,,,,,,,,,,,,,,,
,0,f,1,0.635,6,2,26,0,1,f.PNG,f,5d5ff4697721bf0015083888,2021-09-08_15h12.56.415,forced_choiceRT,2021.1.2,Win32,59.88023952,,,,,,,,,,,,,,,,,,,,,,
,0,j,1,0.686,6,3,27,3,1,j.PNG,j,5d5ff4697721bf0015083888,2021-09-08_15h12.56.415,forced_choiceRT,2021.1.2,Win32,59.88023952,,,,,,,,,,,,,,,,,,,,,,
,0,g,1,0.684,7,0,28,1,1,g.PNG,g,5d5ff4697721bf0015083888,2021-09-08_15h12.56.415,forced_choiceRT,2021.1.2,Win32,59.88023952,,,,,,,,,,,,,,,,,,,,,,
,0,h,1,0.669,7,1,29,2,1,h.PNG,h,5d5ff4697721bf0015083888,2021-09-08_15h12.56.415,forced_choiceRT,2021.1.2,Win32,59.88023952,,,,,,,,,,,,,,,,,,,,,,
,0,j,1,0.719,7,2,30,3,1,j.PNG,j,5d5ff4697721bf0015083888,2021-09-08_15h12.56.415,forced_choiceRT,2021.1.2,Win32,59.88023952,,,,,,,,,,,,,,,,,,,,,,
,0,h,1,0.603,7,3,31,2,1,h.PNG,h,5d5ff4697721bf0015083888,2021-09-08_15h12.56.415,forced_choiceRT,2021.1.2,Win32,59.88023952,,,,,,,,,,,,,,,,,,,,,,
,0,g,1,0.593,8,0,32,1,1,g.PNG,g,5d5ff4697721bf0015083888,2021-09-08_15h12.56.415,forced_choiceRT,2021.1.2,Win32,59.88023952,,,,,,,,,,,,,,,,,,,,,,
,0,h,0,0.752,8,1,33,3,1,j.PNG,j,5d5ff4697721bf0015083888,2021-09-08_15h12.56.415,forced_choiceRT,2021.1.2,Win32,59.88023952,,,,,,,,,,,,,,,,,,,,,,
,0,f,1,0.687,8,2,34,0,1,f.PNG,f,5d5ff4697721bf0015083888,2021-09-08_15h12.56.415,forced_choiceRT,2021.1.2,Win32,59.88023952,,,,,,,,,,,,,,,,,,,,,,
,0,g,1,0.785,8,3,35,1,1,g.PNG,g,5d5ff4697721bf0015083888,2021-09-08_15h12.56.415,forced_choiceRT,2021.1.2,Win32,59.88023952,,,,,,,,,,,,,,,,,,,,,,
,0,f,1,0.672,9,0,36,0,1,f.PNG,f,5d5ff4697721bf0015083888,2021-09-08_15h12.56.415,forced_choiceRT,2021.1.2,Win32,59.88023952,,,,,,,,,,,,,,,,,,,,,,
,0,f,1,0.719,9,1,37,0,1,f.PNG,f,5d5ff4697721bf0015083888,2021-09-08_15h12.56.415,forced_choiceRT,2021.1.2,Win32,59.88023952,,,,,,,,,,,,,,,,,,,,,,
,0,h,1,0.787,9,2,38,2,1,h.PNG,h,5d5ff4697721bf0015083888,2021-09-08_15h12.56.415,forced_choiceRT,2021.1.2,Win32,59.88023952,,,,,,,,,,,,,,,,,,,,,,
,0,f,1,0.639,9,3,39,0,1,f.PNG,f,5d5ff4697721bf0015083888,2021-09-08_15h12.56.415,forced_choiceRT,2021.1.2,Win32,59.88023952,,,,,,,,,,,,,,,,,,,,,,
,0,j,1,0.653,10,0,40,3,1,j.PNG,j,5d5ff4697721bf0015083888,2021-09-08_15h12.56.415,forced_choiceRT,2021.1.2,Win32,59.88023952,,,,,,,,,,,,,,,,,,,,,,
,0,j,1,0.587,10,1,41,3,1,j.PNG,j,5d5ff4697721bf0015083888,2021-09-08_15h12.56.415,forced_choiceRT,2021.1.2,Win32,59.88023952,,,,,,,,,,,,,,,,,,,,,,
,0,h,1,0.685,10,2,42,2,1,h.PNG,h,5d5ff4697721bf0015083888,2021-09-08_15h12.56.415,forced_choiceRT,2021.1.2,Win32,59.88023952,,,,,,,,,,,,,,,,,,,,,,
,0,j,1,0.676,10,3,43,3,1,j.PNG,j,5d5ff4697721bf0015083888,2021-09-08_15h12.56.415,forced_choiceRT,2021.1.2,Win32,59.88023952,,,,,,,,,,,,,,,,,,,,,,
,0,g,1,0.671,11,0,44,1,1,g.PNG,g,5d5ff4697721bf0015083888,2021-09-08_15h12.56.415,forced_choiceRT,2021.1.2,Win32,59.88023952,,,,,,,,,,,,,,,,,,,,,,
,0,j,1,0.719,11,1,45,3,1,j.PNG,j,5d5ff4697721bf0015083888,2021-09-08_15h12.56.415,forced_choiceRT,2021.1.2,Win32,59.88023952,,,,,,,,,,,,,,,,,,,,,,
,0,g,1,0.656,11,2,46,1,1,g.PNG,g,5d5ff4697721bf0015083888,2021-09-08_15h12.56.415,forced_choiceRT,2021.1.2,Win32,59.88023952,,,,,,,,,,,,,,,,,,,,,,
,0,h,1,0.903,11,3,47,2,1,h.PNG,h,5d5ff4697721bf0015083888,2021-09-08_15h12.56.415,forced_choiceRT,2021.1.2,Win32,59.88023952,,,,,,,,,,,,,,,,,,,,,,
,0,f,1,0.571,12,0,48,0,1,f.PNG,f,5d5ff4697721bf0015083888,2021-09-08_15h12.56.415,forced_choiceRT,2021.1.2,Win32,59.88023952,,,,,,,,,,,,,,,,,,,,,,
,0,j,1,0.705,12,1,49,3,1,j.PNG,j,5d5ff4697721bf0015083888,2021-09-08_15h12.56.415,forced_choiceRT,2021.1.2,Win32,59.88023952,,,,,,,,,,,,,,,,,,,,,,
,0,h,1,0.768,12,2,50,2,1,h.PNG,h,5d5ff4697721bf0015083888,2021-09-08_15h12.56.415,forced_choiceRT,2021.1.2,Win32,59.88023952,,,,,,,,,,,,,,,,,,,,,,
,0,j,1,0.873,12,3,51,3,1,j.PNG,j,5d5ff4697721bf0015083888,2021-09-08_15h12.56.415,forced_choiceRT,2021.1.2,Win32,59.88023952,,,,,,,,,,,,,,,,,,,,,,
,0,f,1,0.603,13,0,52,0,1,f.PNG,f,5d5ff4697721bf0015083888,2021-09-08_15h12.56.415,forced_choiceRT,2021.1.2,Win32,59.88023952,,,,,,,,,,,,,,,,,,,,,,
,0,f,1,0.702,13,1,53,0,1,f.PNG,f,5d5ff4697721bf0015083888,2021-09-08_15h12.56.415,forced_choiceRT,2021.1.2,Win32,59.88023952,,,,,,,,,,,,,,,,,,,,,,
,0,g,1,0.535,13,2,54,1,1,g.PNG,g,5d5ff4697721bf0015083888,2021-09-08_15h12.56.415,forced_choiceRT,2021.1.2,Win32,59.88023952,,,,,,,,,,,,,,,,,,,,,,
,0,h,1,0.658,13,3,55,2,1,h.PNG,h,5d5ff4697721bf0015083888,2021-09-08_15h12.56.415,forced_choiceRT,2021.1.2,Win32,59.88023952,,,,,,,,,,,,,,,,,,,,,,
,0,g,1,0.902,14,0,56,1,1,g.PNG,g,5d5ff4697721bf0015083888,2021-09-08_15h12.56.415,forced_choiceRT,2021.1.2,Win32,59.88023952,,,,,,,,,,,,,,,,,,,,,,
,0,j,1,0.669,14,1,57,3,1,j.PNG,j,5d5ff4697721bf0015083888,2021-09-08_15h12.56.415,forced_choiceRT,2021.1.2,Win32,59.88023952,,,,,,,,,,,,,,,,,,,,,,
,0,g,1,0.669,14,2,58,1,1,g.PNG,g,5d5ff4697721bf0015083888,2021-09-08_15h12.56.415,forced_choiceRT,2021.1.2,Win32,59.88023952,,,,,,,,,,,,,,,,,,,,,,
,0,j,1,0.669,14,3,59,3,1,j.PNG,j,5d5ff4697721bf0015083888,2021-09-08_15h12.56.415,forced_choiceRT,2021.1.2,Win32,59.88023952,,,,,,,,,,,,,,,,,,,,,,
,,,,,,,,,,,,5d5ff4697721bf0015083888,2021-09-08_15h12.56.415,forced_choiceRT,2021.1.2,Win32,59.88023952,j,1.801,0,0,0,0,1,,,,,,,,,,,,,,,
,,,,,,,,,,,,5d5ff4697721bf0015083888,2021-09-08_15h12.56.415,forced_choiceRT,2021.1.2,Win32,59.88023952,g,2.254,1,0,1,0,1,,,,,,,,,,,,,,,
,,,,,,,,,,,,5d5ff4697721bf0015083888,2021-09-08_15h12.56.415,forced_choiceRT,2021.1.2,Win32,59.88023952,g,1.687,2,0,2,0,1,,,,,,,,,,,,,,,
,,,,,,,,,,,,5d5ff4697721bf0015083888,2021-09-08_15h12.56.415,forced_choiceRT,2021.1.2,Win32,59.88023952,g,1.84,3,0,3,0,1,,,,,,,,,,,,,,,
,,,,,,,,,,,,5d5ff4697721bf0015083888,2021-09-08_15h12.56.415,forced_choiceRT,2021.1.2,Win32,59.88023952,g,2.059,4,0,4,0,1,,,,,,,,,,,,,,,
,,,,,,,,,,,,5d5ff4697721bf0015083888,2021-09-08_15h12.56.415,forced_choiceRT,2021.1.2,Win32,59.88023952,g,2.054,5,0,5,0,1,,,,,,,,,,,,,,,
,,,,,,,,,,,,5d5ff4697721bf0015083888,2021-09-08_15h12.56.415,forced_choiceRT,2021.1.2,Win32,59.88023952,g,2.105,6,0,6,0,1,,,,,,,,,,,,,,,
,,,,,,,,,,,,5d5ff4697721bf0015083888,2021-09-08_15h12.56.415,forced_choiceRT,2021.1.2,Win32,59.88023952,g,2.041,7,0,7,0,1,,,,,,,,,,,,,,,
,,,,,,,,,,,,5d5ff4697721bf0015083888,2021-09-08_15h12.56.415,forced_choiceRT,2021.1.2,Win32,59.88023952,g,2.044,8,0,8,0,1,,,,,,,,,,,,,,,
,,,,,,,,,,,,5d5ff4697721bf0015083888,2021-09-08_15h12.56.415,forced_choiceRT,2021.1.2,Win32,59.88023952,g,2.176,9,0,9,0,1,,,,,,,,,,,,,,,
,,,,,,,,,,,,5d5ff4697721bf0015083888,2021-09-08_15h12.56.415,forced_choiceRT,2021.1.2,Win32,59.88023952,h,1.771,10,0,10,0,1,,,,,,,,,,,,,,,
,,,,,,,,,,,,5d5ff4697721bf0015083888,2021-09-08_15h12.56.415,forced_choiceRT,2021.1.2,Win32,59.88023952,h,2.054,11,0,11,0,1,,,,,,,,,,,,,,,
,,,,,,,,,,,,5d5ff4697721bf0015083888,2021-09-08_15h12.56.415,forced_choiceRT,2021.1.2,Win32,59.88023952,f,2.089,12,0,12,0,1,,,,,,,,,,,,,,,
,,,,,,,,,,,,5d5ff4697721bf0015083888,2021-09-08_15h12.56.415,forced_choiceRT,2021.1.2,Win32,59.88023952,j,2.138,13,0,13,0,1,,,,,,,,,,,,,,,
,,,,,,,,,,,,5d5ff4697721bf0015083888,2021-09-08_15h12.56.415,forced_choiceRT,2021.1.2,Win32,59.88023952,j,1.82,14,0,14,0,1,,,,,,,,,,,,,,,
,,,,,,,,,,,,5d5ff4697721bf0015083888,2021-09-08_15h12.56.415,forced_choiceRT,2021.1.2,Win32,59.88023952,j,1.821,15,0,15,0,1,,,,,,,,,,,,,,,
,,,,,,,,,,,,5d5ff4697721bf0015083888,2021-09-08_15h12.56.415,forced_choiceRT,2021.1.2,Win32,59.88023952,g,1.837,16,0,16,0,1,,,,,,,,,,,,,,,
,,,,,,,,,,,,5d5ff4697721bf0015083888,2021-09-08_15h12.56.415,forced_choiceRT,2021.1.2,Win32,59.88023952,g,2.037,17,0,17,0,1,,,,,,,,,,,,,,,
,,,,,,,,,,,,5d5ff4697721bf0015083888,2021-09-08_15h12.56.415,forced_choiceRT,2021.1.2,Win32,59.88023952,j,2.021,18,0,18,0,1,,,,,,,,,,,,,,,
,,,,,,,,,,,,5d5ff4697721bf0015083888,2021-09-08_15h12.56.415,forced_choiceRT,2021.1.2,Win32,59.88023952,h,2.092,19,0,19,0,1,,,,,,,,,,,,,,,
,0.57,,,,,,,,,j.PNG,j,5d5ff4697721bf0015083888,2021-09-08_15h12.56.415,forced_choiceRT,2021.1.2,Win32,59.88023952,,,,,,,,1,Ontime,j,1,2.086,0,0,0,3,1,,,,,
,1.13,,,,,,,,,f.PNG,f,5d5ff4697721bf0015083888,2021-09-08_15h12.56.415,forced_choiceRT,2021.1.2,Win32,59.88023952,,,,,,,,1,Slow,f,1,2.171,0,1,1,0,1,,,,,
,0.36,,,,,,,,,f.PNG,f,5d5ff4697721bf0015083888,2021-09-08_15h12.56.415,forced_choiceRT,2021.1.2,Win32,59.88023952,,,,,,,,1,Fast,f,1,1.056,0,2,2,0,1,,,,,
,1.49,,,,,,,,,f.PNG,f,5d5ff4697721bf0015083888,2021-09-08_15h12.56.415,forced_choiceRT,2021.1.2,Win32,59.88023952,,,,,,,,1,Ontime,f,1,2.04,0,3,3,0,1,,,,,
,1.77,,,,,,,,,g.PNG,g,5d5ff4697721bf0015083888,2021-09-08_15h12.56.415,forced_choiceRT,2021.1.2,Win32,59.88023952,,,,,,,,1,Slow,g,1,2.404,1,0,4,1,1,,,,,
,1.31,,,,,,,,,h.PNG,h,5d5ff4697721bf0015083888,2021-09-08_15h12.56.415,forced_choiceRT,2021.1.2,Win32,59.88023952,,,,,,,,1,Slow,h,1,2.137,1,1,5,2,1,,,,,
,0.4,,,,,,,,,g.PNG,g,5d5ff4697721bf0015083888,2021-09-08_15h12.56.415,forced_choiceRT,2021.1.2,Win32,59.88023952,,,,,,,,1,Fast,g,1,1.655,1,2,6,1,1,,,,,
,0.89,,,,,,,,,g.PNG,g,5d5ff4697721bf0015083888,2021-09-08_15h12.56.415,forced_choiceRT,2021.1.2,Win32,59.88023952,,,,,,,,1,Ontime,g,1,2.09,1,3,7,1,1,,,,,
,0.8,,,,,,,,,f.PNG,f,5d5ff4697721bf0015083888,2021-09-08_15h12.56.415,forced_choiceRT,2021.1.2,Win32,59.88023952,,,,,,,,1,Slow,f,1,2.156,2,0,8,0,1,,,,,
,0.2,,,,,,,,,j.PNG,j,5d5ff4697721bf0015083888,2021-09-08_15h12.56.415,forced_choiceRT,2021.1.2,Win32,59.88023952,,,,,,,,1,Fast,j,1,1.736,2,1,9,3,1,,,,,
,0.68,,,,,,,,,f.PNG,f,5d5ff4697721bf0015083888,2021-09-08_15h12.56.415,forced_choiceRT,2021.1.2,Win32,59.88023952,,,,,,,,1,Ontime,f,1,1.939,2,2,10,0,1,,,,,
,0.26,,,,,,,,,h.PNG,h,5d5ff4697721bf0015083888,2021-09-08_15h12.56.415,forced_choiceRT,2021.1.2,Win32,59.88023952,,,,,,,,1,Ontime,h,1,1.977,2,3,11,2,1,,,,,
,1.59,,,,,,,,,g.PNG,g,5d5ff4697721bf0015083888,2021-09-08_15h12.56.415,forced_choiceRT,2021.1.2,Win32,59.88023952,,,,,,,,1,Slow,g,1,2.337,3,0,12,1,1,,,,,
,1.52,,,,,,,,,f.PNG,f,5d5ff4697721bf0015083888,2021-09-08_15h12.56.415,forced_choiceRT,2021.1.2,Win32,59.88023952,,,,,,,,1,Slow,f,1,2.337,3,1,13,0,1,,,,,
,1.5,,,,,,,,,g.PNG,g,5d5ff4697721bf0015083888,2021-09-08_15h12.56.415,forced_choiceRT,2021.1.2,Win32,59.88023952,,,,,,,,1,Ontime,g,1,1.92,3,2,14,1,1,,,,,
,0.54,,,,,,,,,j.PNG,j,5d5ff4697721bf0015083888,2021-09-08_15h12.56.415,forced_choiceRT,2021.1.2,Win32,59.88023952,,,,,,,,1,Fast,h,0,1.303,3,3,15,3,1,,,,,
,1.45,,,,,,,,,j.PNG,j,5d5ff4697721bf0015083888,2021-09-08_15h12.56.415,forced_choiceRT,2021.1.2,Win32,59.88023952,,,,,,,,1,Ontime,j,1,2.02,4,0,16,3,1,,,,,
,0.21,,,,,,,,,h.PNG,h,5d5ff4697721bf0015083888,2021-09-08_15h12.56.415,forced_choiceRT,2021.1.2,Win32,59.88023952,,,,,,,,1,Fast,h,1,1.753,4,1,17,2,1,,,,,
,1.15,,,,,,,,,j.PNG,j,5d5ff4697721bf0015083888,2021-09-08_15h12.56.415,forced_choiceRT,2021.1.2,Win32,59.88023952,,,,,,,,1,Ontime,j,1,1.976,4,2,18,3,1,,,,,
,0.63,,,,,,,,,h.PNG,h,5d5ff4697721bf0015083888,2021-09-08_15h12.56.415,forced_choiceRT,2021.1.2,Win32,59.88023952,,,,,,,,1,Ontime,h,1,2.004,4,3,19,2,1,,,,,
,0.52,,,,,,,,,g.PNG,g,5d5ff4697721bf0015083888,2021-09-08_15h12.56.415,forced_choiceRT,2021.1.2,Win32,59.88023952,,,,,,,,1,Fast,g,1,1.759,5,0,20,1,1,,,,,
,1.24,,,,,,,,,f.PNG,f,5d5ff4697721bf0015083888,2021-09-08_15h12.56.415,forced_choiceRT,2021.1.2,Win32,59.88023952,,,,,,,,1,Slow,f,1,2.155,5,1,21,0,1,,,,,
,0.63,,,,,,,,,j.PNG,j,5d5ff4697721bf0015083888,2021-09-08_15h12.56.415,forced_choiceRT,2021.1.2,Win32,59.88023952,,,,,,,,1,Fast,j,1,1.819,5,2,22,3,1,,,,,
,1.75,,,,,,,,,g.PNG,g,5d5ff4697721bf0015083888,2021-09-08_15h12.56.415,forced_choiceRT,2021.1.2,Win32,59.88023952,,,,,,,,1,Slow,g,1,2.272,5,3,23,1,1,,,,,
,0.09,,,,,,,,,f.PNG,f,5d5ff4697721bf0015083888,2021-09-08_15h12.56.415,forced_choiceRT,2021.1.2,Win32,59.88023952,,,,,,,,1,Fast,f,1,1.872,6,0,24,0,1,,,,,
,0.71,,,,,,,,,f.PNG,f,5d5ff4697721bf0015083888,2021-09-08_15h12.56.415,forced_choiceRT,2021.1.2,Win32,59.88023952,,,,,,,,1,Ontime,f,1,1.924,6,1,25,0,1,,,,,
,1.43,,,,,,,,,g.PNG,g,5d5ff4697721bf0015083888,2021-09-08_15h12.56.415,forced_choiceRT,2021.1.2,Win32,59.88023952,,,,,,,,1,Slow,g,1,2.238,6,2,26,1,1,,,,,
,0.99,,,,,,,,,h.PNG,h,5d5ff4697721bf0015083888,2021-09-08_15h12.56.415,forced_choiceRT,2021.1.2,Win32,59.88023952,,,,,,,,1,Fast,h,1,1.853,6,3,27,2,1,,,,,
,0.71,,,,,,,,,h.PNG,h,5d5ff4697721bf0015083888,2021-09-08_15h12.56.415,forced_choiceRT,2021.1.2,Win32,59.88023952,,,,,,,,1,Fast,h,1,1.82,7,0,28,2,1,,,,,
,1.7,,,,,,,,,h.PNG,h,5d5ff4697721bf0015083888,2021-09-08_15h12.56.415,forced_choiceRT,2021.1.2,Win32,59.88023952,,,,,,,,1,Slow,h,1,2.17,7,1,29,2,1,,,,,
,1.38,,,,,,,,,g.PNG,g,5d5ff4697721bf0015083888,2021-09-08_15h12.56.415,forced_choiceRT,2021.1.2,Win32,59.88023952,,,,,,,,1,Ontime,g,1,2.075,7,2,30,1,1,,,,,
,1.71,,,,,,,,,h.PNG,h,5d5ff4697721bf0015083888,2021-09-08_15h12.56.415,forced_choiceRT,2021.1.2,Win32,59.88023952,,,,,,,,1,Slow,h,1,2.253,7,3,31,2,1,,,,,
,1.25,,,,,,,,,g.PNG,g,5d5ff4697721bf0015083888,2021-09-08_15h12.56.415,forced_choiceRT,2021.1.2,Win32,59.88023952,,,,,,,,1,Fast,g,1,1.856,8,0,32,1,1,,,,,
,0.94,,,,,,,,,f.PNG,f,5d5ff4697721bf0015083888,2021-09-08_15h12.56.415,forced_choiceRT,2021.1.2,Win32,59.88023952,,,,,,,,1,Fast,f,1,1.802,8,1,33,0,1,,,,,
,1.87,,,,,,,,,j.PNG,j,5d5ff4697721bf0015083888,2021-09-08_15h12.56.415,forced_choiceRT,2021.1.2,Win32,59.88023952,,,,,,,,1,Slow,j,1,2.274,8,2,34,3,1,,,,,
,1.07,,,,,,,,,j.PNG,j,5d5ff4697721bf0015083888,2021-09-08_15h12.56.415,forced_choiceRT,2021.1.2,Win32,59.88023952,,,,,,,,1,Ontime,j,1,1.905,8,3,35,3,1,,,,,
,0.2,,,,,,,,,h.PNG,h,5d5ff4697721bf0015083888,2021-09-08_15h12.56.415,forced_choiceRT,2021.1.2,Win32,59.88023952,,,,,,,,1,Fast,h,1,1.787,9,0,36,2,1,,,,,
,0.33,,,,,,,,,j.PNG,j,5d5ff4697721bf0015083888,2021-09-08_15h12.56.415,forced_choiceRT,2021.1.2,Win32,59.88023952,,,,,,,,1,Ontime,j,1,2.076,9,1,37,3,1,,,,,
,1.08,,,,,,,,,j.PNG,j,5d5ff4697721bf0015083888,2021-09-08_15h12.56.415,forced_choiceRT,2021.1.2,Win32,59.88023952,,,,,,,,1,Slow,j,1,2.19,9,2,38,3,1,,,,,
,0.51,,,,,,,,,h.PNG,h,5d5ff4697721bf0015083888,2021-09-08_15h12.56.415,forced_choiceRT,2021.1.2,Win32,59.88023952,,,,,,,,1,Fast,h,1,1.776,9,3,39,2,1,,,,,
,,,,,,,,,,,,5d5ff4697721bf0015083888,2021-09-08_15h12.56.415,forced_choiceRT,2021.1.2,Win32,59.88023952,,,,,,,,,,,,,,,,,,0,0,0,0,1
,1.78,,,,,,,,,g.PNG,g,5d5ff4697721bf0015083888,2021-09-08_15h12.56.415,forced_choiceRT,2021.1.2,Win32,59.88023952,,,,,,,,2,Ontime,g,1,1.936,0,0,0,1,1,,,,,
,0.59,,,,,,,,,j.PNG,j,5d5ff4697721bf0015083888,2021-09-08_15h12.56.415,forced_choiceRT,2021.1.2,Win32,59.88023952,,,,,,,,2,Fast,j,1,1.591,0,1,1,3,1,,,,,
,1.95,,,,,,,,,g.PNG,g,5d5ff4697721bf0015083888,2021-09-08_15h12.56.415,forced_choiceRT,2021.1.2,Win32,59.88023952,,,,,,,,2,Slow,h,0,2.255,0,2,2,1,1,,,,,
,0.48,,,,,,,,,j.PNG,j,5d5ff4697721bf0015083888,2021-09-08_15h12.56.415,forced_choiceRT,2021.1.2,Win32,59.88023952,,,,,,,,2,Fast,j,1,1.752,0,3,3,3,1,,,,,
,1.2,,,,,,,,,f.PNG,f,5d5ff4697721bf0015083888,2021-09-08_15h12.56.415,forced_choiceRT,2021.1.2,Win32,59.88023952,,,,,,,,2,Ontime,f,1,1.904,1,0,4,0,1,,,,,
,0.87,,,,,,,,,g.PNG,g,5d5ff4697721bf0015083888,2021-09-08_15h12.56.415,forced_choiceRT,2021.1.2,Win32,59.88023952,,,,,,,,2,Fast,g,1,1.77,1,1,5,1,1,,,,,
,0.67,,,,,,,,,g.PNG,g,5d5ff4697721bf0015083888,2021-09-08_15h12.56.415,forced_choiceRT,2021.1.2,Win32,59.88023952,,,,,,,,2,Ontime,g,1,2.006,1,2,6,1,1,,,,,
,0.98,,,,,,,,,g.PNG,g,5d5ff4697721bf0015083888,2021-09-08_15h12.56.415,forced_choiceRT,2021.1.2,Win32,59.88023952,,,,,,,,2,Slow,g,1,2.11,1,3,7,1,1,,,,,
,0.51,,,,,,,,,j.PNG,j,5d5ff4697721bf0015083888,2021-09-08_15h12.56.415,forced_choiceRT,2021.1.2,Win32,59.88023952,,,,,,,,2,Ontime,j,1,1.908,2,0,8,3,1,,,,,
,1.99,,,,,,,,,f.PNG,f,5d5ff4697721bf0015083888,2021-09-08_15h12.56.415,forced_choiceRT,2021.1.2,Win32,59.88023952,,,,,,,,2,Slow,h,0,2.236,2,1,9,0,1,,,,,
,1.38,,,,,,,,,f.PNG,f,5d5ff4697721bf0015083888,2021-09-08_15h12.56.415,forced_choiceRT,2021.1.2,Win32,59.88023952,,,,,,,,2,Fast,f,1,1.836,2,2,10,0,1,,,,,
,1.3,,,,,,,,,j.PNG,j,5d5ff4697721bf0015083888,2021-09-08_15h12.56.415,forced_choiceRT,2021.1.2,Win32,59.88023952,,,,,,,,2,Ontime,f,0,2.087,2,3,11,3,1,,,,,
,1.01,,,,,,,,,h.PNG,h,5d5ff4697721bf0015083888,2021-09-08_15h12.56.415,forced_choiceRT,2021.1.2,Win32,59.88023952,,,,,,,,2,Ontime,h,1,1.987,3,0,12,2,1,,,,,
,1.41,,,,,,,,,g.PNG,g,5d5ff4697721bf0015083888,2021-09-08_15h12.56.415,forced_choiceRT,2021.1.2,Win32,59.88023952,,,,,,,,2,Ontime,g,1,2.071,3,1,13,1,1,,,,,
,1.57,,,,,,,,,f.PNG,f,5d5ff4697721bf0015083888,2021-09-08_15h12.56.415,forced_choiceRT,2021.1.2,Win32,59.88023952,,,,,,,,2,Ontime,g,0,2.018,3,2,14,0,1,,,,,
,1.38,,,,,,,,,f.PNG,f,5d5ff4697721bf0015083888,2021-09-08_15h12.56.415,forced_choiceRT,2021.1.2,Win32,59.88023952,,,,,,,,2,Ontime,f,1,2.02,3,3,15,0,1,,,,,
,1.64,,,,,,,,,f.PNG,f,5d5ff4697721bf0015083888,2021-09-08_15h12.56.415,forced_choiceRT,2021.1.2,Win32,59.88023952,,,,,,,,2,Slow,f,1,2.153,4,0,16,0,1,,,,,
,0.03,,,,,,,,,h.PNG,h,5d5ff4697721bf0015083888,2021-09-08_15h12.56.415,forced_choiceRT,2021.1.2,Win32,59.88023952,,,,,,,,2,Fast,h,1,1.719,4,1,17,2,1,,,,,
,0.61,,,,,,,,,j.PNG,j,5d5ff4697721bf0015083888,2021-09-08_15h12.56.415,forced_choiceRT,2021.1.2,Win32,59.88023952,,,,,,,,2,Ontime,j,1,2.021,4,2,18,3,1,,,,,
,0.86,,,,,,,,,h.PNG,h,5d5ff4697721bf0015083888,2021-09-08_15h12.56.415,forced_choiceRT,2021.1.2,Win32,59.88023952,,,,,,,,2,Ontime,h,1,1.993,4,3,19,2,1,,,,,
,1.73,,,,,,,,,g.PNG,g,5d5ff4697721bf0015083888,2021-09-08_15h12.56.415,forced_choiceRT,2021.1.2,Win32,59.88023952,,,,,,,,2,Slow,g,1,2.288,5,0,20,1,1,,,,,
,1.76,,,,,,,,,j.PNG,j,5d5ff4697721bf0015083888,2021-09-08_15h12.56.415,forced_choiceRT,2021.1.2,Win32,59.88023952,,,,,,,,2,Fast,g,0,1.739,5,1,21,3,1,,,,,
,0.62,,,,,,,,,h.PNG,h,5d5ff4697721bf0015083888,2021-09-08_15h12.56.415,forced_choiceRT,2021.1.2,Win32,59.88023952,,,,,,,,2,Fast,h,1,1.889,5,2,22,2,1,,,,,
,0.56,,,,,,,,,h.PNG,h,5d5ff4697721bf0015083888,2021-09-08_15h12.56.415,forced_choiceRT,2021.1.2,Win32,59.88023952,,,,,,,,2,Ontime,h,1,1.922,5,3,23,2,1,,,,,
,1.01,,,,,,,,,g.PNG,g,5d5ff4697721bf0015083888,2021-09-08_15h12.56.415,forced_choiceRT,2021.1.2,Win32,59.88023952,,,,,,,,2,Ontime,g,1,1.921,6,0,24,1,1,,,,,
,0.8,,,,,,,,,h.PNG,h,5d5ff4697721bf0015083888,2021-09-08_15h12.56.415,forced_choiceRT,2021.1.2,Win32,59.88023952,,,,,,,,2,Fast,h,1,1.67,6,1,25,2,1,,,,,
,1.07,,,,,,,,,f.PNG,f,5d5ff4697721bf0015083888,2021-09-08_15h12.56.415,forced_choiceRT,2021.1.2,Win32,59.88023952,,,,,,,,2,Ontime,f,1,1.992,6,2,26,0,1,,,,,
,0.3,,,,,,,,,h.PNG,h,5d5ff4697721bf0015083888,2021-09-08_15h12.56.415,forced_choiceRT,2021.1.2,Win32,59.88023952,,,,,,,,2,Ontime,h,1,1.92,6,3,27,2,1,,,,,
,1.83,,,,,,,,,j.PNG,j,5d5ff4697721bf0015083888,2021-09-08_15h12.56.415,forced_choiceRT,2021.1.2,Win32,59.88023952,,,,,,,,2,Slow,j,1,2.208,7,0,28,3,1,,,,,
,1.2,,,,,,,,,j.PNG,j,5d5ff4697721bf0015083888,2021-09-08_15h12.56.415,forced_choiceRT,2021.1.2,Win32,59.88023952,,,,,,,,2,Ontime,j,1,2.02,7,1,29,3,1,,,,,
,0.11,,,,,,,,,h.PNG,h,5d5ff4697721bf0015083888,2021-09-08_15h12.56.415,forced_choiceRT,2021.1.2,Win32,59.88023952,,,,,,,,2,Fast,h,1,1.853,7,2,30,2,1,,,,,
,0.67,,,,,,,,,j.PNG,j,5d5ff4697721bf0015083888,2021-09-08_15h12.56.415,forced_choiceRT,2021.1.2,Win32,59.88023952,,,,,,,,2,Ontime,j,1,2.073,7,3,31,3,1,,,,,
,1.16,,,,,,,,,g.PNG,g,5d5ff4697721bf0015083888,2021-09-08_15h12.56.415,forced_choiceRT,2021.1.2,Win32,59.88023952,,,,,,,,2,Ontime,g,1,1.92,8,0,32,1,1,,,,,
,1.65,,,,,,,,,f.PNG,f,5d5ff4697721bf0015083888,2021-09-08_15h12.56.415,forced_choiceRT,2021.1.2,Win32,59.88023952,,,,,,,,2,Slow,f,1,2.188,8,1,33,0,1,,,,,
,1.93,,,,,,,,,f.PNG,f,5d5ff4697721bf0015083888,2021-09-08_15h12.56.415,forced_choiceRT,2021.1.2,Win32,59.88023952,,,,,,,,2,Slow,f,1,2.303,8,2,34,0,1,,,,,
,1.67,,,,,,,,,j.PNG,j,5d5ff4697721bf0015083888,2021-09-08_15h12.56.415,forced_choiceRT,2021.1.2,Win32,59.88023952,,,,,,,,2,Ontime,j,1,1.97,8,3,35,3,1,,,,,
,1.68,,,,,,,,,f.PNG,f,5d5ff4697721bf0015083888,2021-09-08_15h12.56.415,forced_choiceRT,2021.1.2,Win32,59.88023952,,,,,,,,2,Slow,f,1,2.224,9,0,36,0,1,,,,,
,0.69,,,,,,,,,g.PNG,g,5d5ff4697721bf0015083888,2021-09-08_15h12.56.415,forced_choiceRT,2021.1.2,Win32,59.88023952,,,,,,,,2,Fast,g,1,1.453,9,1,37,1,1,,,,,
,0.68,,,,,,,,,h.PNG,h,5d5ff4697721bf0015083888,2021-09-08_15h12.56.415,forced_choiceRT,2021.1.2,Win32,59.88023952,,,,,,,,2,Fast,h,1,1.894,9,2,38,2,1,,,,,
,1.53,,,,,,,,,h.PNG,h,5d5ff4697721bf0015083888,2021-09-08_15h12.56.415,forced_choiceRT,2021.1.2,Win32,59.88023952,,,,,,,,2,Slow,h,1,2.222,9,3,39,2,1,,,,,
,,,,,,,,,,,,5d5ff4697721bf0015083888,2021-09-08_15h12.56.415,forced_choiceRT,2021.1.2,Win32,59.88023952,,,,,,,,,,,,,,,,,,1,0,1,0,1
,1.95,,,,,,,,,f.PNG,f,5d5ff4697721bf0015083888,2021-09-08_15h12.56.415,forced_choiceRT,2021.1.2,Win32,59.88023952,,,,,,,,3,Ontime,j,0,1.918,0,0,0,0,1,,,,,
,0.5,,,,,,,,,h.PNG,h,5d5ff4697721bf0015083888,2021-09-08_15h12.56.415,forced_choiceRT,2021.1.2,Win32,59.88023952,,,,,,,,3,Fast,h,1,1.403,0,1,1,2,1,,,,,
,0.49,,,,,,,,,f.PNG,f,5d5ff4697721bf0015083888,2021-09-08_15h12.56.415,forced_choiceRT,2021.1.2,Win32,59.88023952,,,,,,,,3,Ontime,f,1,2.07,0,2,2,0,1,,,,,
,0.98,,,,,,,,,h.PNG,h,5d5ff4697721bf0015083888,2021-09-08_15h12.56.415,forced_choiceRT,2021.1.2,Win32,59.88023952,,,,,,,,3,Fast,h,1,1.67,0,3,3,2,1,,,,,
,0.81,,,,,,,,,h.PNG,h,5d5ff4697721bf0015083888,2021-09-08_15h12.56.415,forced_choiceRT,2021.1.2,Win32,59.88023952,,,,,,,,3,Ontime,h,1,2.004,1,0,4,2,1,,,,,
,1.17,,,,,,,,,j.PNG,j,5d5ff4697721bf0015083888,2021-09-08_15h12.56.415,forced_choiceRT,2021.1.2,Win32,59.88023952,,,,,,,,3,Fast,j,1,1.637,1,1,5,3,1,,,,,
,0.39,,,,,,,,,h.PNG,h,5d5ff4697721bf0015083888,2021-09-08_15h12.56.415,forced_choiceRT,2021.1.2,Win32,59.88023952,,,,,,,,3,Fast,h,1,1.887,1,2,6,2,1,,,,,
,1.24,,,,,,,,,j.PNG,j,5d5ff4697721bf0015083888,2021-09-08_15h12.56.415,forced_choiceRT,2021.1.2,Win32,59.88023952,,,,,,,,3,Slow,j,1,2.237,1,3,7,3,1,,,,,
,1.96,,,,,,,,,g.PNG,g,5d5ff4697721bf0015083888,2021-09-08_15h12.56.415,forced_choiceRT,2021.1.2,Win32,59.88023952,,,,,,,,3,Ontime,h,0,1.97,2,0,8,1,1,,,,,
,0.78,,,,,,,,,f.PNG,f,5d5ff4697721bf0015083888,2021-09-08_15h12.56.415,forced_choiceRT,2021.1.2,Win32,59.88023952,,,,,,,,3,Fast,f,1,1.775,2,1,9,0,1,,,,,
,1.33,,,,,,,,,h.PNG,h,5d5ff4697721bf0015083888,2021-09-08_15h12.56.415,forced_choiceRT,2021.1.2,Win32,59.88023952,,,,,,,,3,Fast,g,0,1.771,2,2,10,2,1,,,,,
,0.1,,,,,,,,,h.PNG,h,5d5ff4697721bf0015083888,2021-09-08_15h12.56.415,forced_choiceRT,2021.1.2,Win32,59.88023952,,,,,,,,3,Fast,h,1,1.843,2,3,11,2,1,,,,,
,1.14,,,,,,,,,g.PNG,g,5d5ff4697721bf0015083888,2021-09-08_15h12.56.415,forced_choiceRT,2021.1.2,Win32,59.88023952,,,,,,,,3,Slow,g,1,2.192,3,0,12,1,1,,,,,
,1.86,,,,,,,,,f.PNG,f,5d5ff4697721bf0015083888,2021-09-08_15h12.56.415,forced_choiceRT,2021.1.2,Win32,59.88023952,,,,,,,,3,Fast,j,0,1.854,3,1,13,0,1,,,,,
,0.15,,,,,,,,,f.PNG,f,5d5ff4697721bf0015083888,2021-09-08_15h12.56.415,forced_choiceRT,2021.1.2,Win32,59.88023952,,,,,,,,3,Ontime,f,1,1.954,3,2,14,0,1,,,,,
,1.65,,,,,,,,,g.PNG,g,5d5ff4697721bf0015083888,2021-09-08_15h12.56.415,forced_choiceRT,2021.1.2,Win32,59.88023952,,,,,,,,3,Ontime,g,1,1.904,3,3,15,1,1,,,,,
,0.08,,,,,,,,,j.PNG,j,5d5ff4697721bf0015083888,2021-09-08_15h12.56.415,forced_choiceRT,2021.1.2,Win32,59.88023952,,,,,,,,3,Ontime,j,1,1.988,4,0,16,3,1,,,,,
,1.12,,,,,,,,,h.PNG,h,5d5ff4697721bf0015083888,2021-09-08_15h12.56.415,forced_choiceRT,2021.1.2,Win32,59.88023952,,,,,,,,3,Fast,h,1,1.804,4,1,17,2,1,,,,,
,1.49,,,,,,,,,f.PNG,f,5d5ff4697721bf0015083888,2021-09-08_15h12.56.415,forced_choiceRT,2021.1.2,Win32,59.88023952,,,,,,,,3,Ontime,f,1,1.994,4,2,18,0,1,,,,,
,0.24,,,,,,,,,g.PNG,g,5d5ff4697721bf0015083888,2021-09-08_15h12.56.415,forced_choiceRT,2021.1.2,Win32,59.88023952,,,,,,,,3,Ontime,g,1,2.037,4,3,19,1,1,,,,,
,0.67,,,,,,,,,h.PNG,h,5d5ff4697721bf0015083888,2021-09-08_15h12.56.415,forced_choiceRT,2021.1.2,Win32,59.88023952,,,,,,,,3,Ontime,h,1,1.977,5,0,20,2,1,,,,,
,1.61,,,,,,,,,f.PNG,f,5d5ff4697721bf0015083888,2021-09-08_15h12.56.415,forced_choiceRT,2021.1.2,Win32,59.88023952,,,,,,,,3,Slow,f,1,2.186,5,1,21,0,1,,,,,
,1.67,,,,,,,,,g.PNG,g,5d5ff4697721bf0015083888,2021-09-08_15h12.56.415,forced_choiceRT,2021.1.2,Win32,59.88023952,,,,,,,,3,Slow,g,1,2.237,5,2,22,1,1,,,,,
,1.11,,,,,,,,,g.PNG,g,5d5ff4697721bf0015083888,2021-09-08_15h12.56.415,forced_choiceRT,2021.1.2,Win32,59.88023952,,,,,,,,3,Fast,j,0,1.808,5,3,23,1,1,,,,,
,1.4,,,,,,,,,j.PNG,j,5d5ff4697721bf0015083888,2021-09-08_15h12.56.415,forced_choiceRT,2021.1.2,Win32,59.88023952,,,,,,,,3,Ontime,j,1,2.07,6,0,24,3,1,,,,,
,1.59,,,,,,,,,j.PNG,j,5d5ff4697721bf0015083888,2021-09-08_15h12.56.415,forced_choiceRT,2021.1.2,Win32,59.88023952,,,,,,,,3,Fast,h,0,1.772,6,1,25,3,1,,,,,
,0.04,,,,,,,,,f.PNG,f,5d5ff4697721bf0015083888,2021-09-08_15h12.56.415,forced_choiceRT,2021.1.2,Win32,59.88023952,,,,,,,,3,Fast,f,1,1.79,6,2,26,0,1,,,,,
,0.64,,,,,,,,,j.PNG,j,5d5ff4697721bf0015083888,2021-09-08_15h12.56.415,forced_choiceRT,2021.1.2,Win32,59.88023952,,,,,,,,3,Fast,j,1,1.655,6,3,27,3,1,,,,,
,0.01,,,,,,,,,f.PNG,f,5d5ff4697721bf0015083888,2021-09-08_15h12.56.415,forced_choiceRT,2021.1.2,Win32,59.88023952,,,,,,,,3,Fast,f,1,1.806,7,0,28,0,1,,,,,
,0.24,,,,,,,,,g.PNG,g,5d5ff4697721bf0015083888,2021-09-08_15h12.56.415,forced_choiceRT,2021.1.2,Win32,59.88023952,,,,,,,,3,Ontime,g,1,1.97,7,1,29,1,1,,,,,
,0.16,,,,,,,,,g.PNG,g,5d5ff4697721bf0015083888,2021-09-08_15h12.56.415,forced_choiceRT,2021.1.2,Win32,59.88023952,,,,,,,,3,Fast,g,1,1.804,7,2,30,1,1,,,,,
,1.12,,,,,,,,,j.PNG,j,5d5ff4697721bf0015083888,2021-09-08_15h12.56.415,forced_choiceRT,2021.1.2,Win32,59.88023952,,,,,,,,3,Ontime,j,1,1.938,7,3,31,3,1,,,,,
,1.88,,,,,,,,,g.PNG,g,5d5ff4697721bf0015083888,2021-09-08_15h12.56.415,forced_choiceRT,2021.1.2,Win32,59.88023952,,,,,,,,3,Slow,j,0,2.387,8,0,32,1,1,,,,,
,0.73,,,,,,,,,j.PNG,j,5d5ff4697721bf0015083888,2021-09-08_15h12.56.415,forced_choiceRT,2021.1.2,Win32,59.88023952,,,,,,,,3,Ontime,j,1,1.954,8,1,33,3,1,,,,,
,0.41,,,,,,,,,h.PNG,h,5d5ff4697721bf0015083888,2021-09-08_15h12.56.415,forced_choiceRT,2021.1.2,Win32,59.88023952,,,,,,,,3,Ontime,h,1,1.958,8,2,34,2,1,,,,,
,1.42,,,,,,,,,j.PNG,j,5d5ff4697721bf0015083888,2021-09-08_15h12.56.415,forced_choiceRT,2021.1.2,Win32,59.88023952,,,,,,,,3,Slow,j,1,2.12,8,3,35,3,1,,,,,
,0.26,,,,,,,,,j.PNG,j,5d5ff4697721bf0015083888,2021-09-08_15h12.56.415,forced_choiceRT,2021.1.2,Win32,59.88023952,,,,,,,,3,Fast,j,1,1.736,9,0,36,3,1,,,,,
,0.46,,,,,,,,,g.PNG,g,5d5ff4697721bf0015083888,2021-09-08_15h12.56.415,forced_choiceRT,2021.1.2,Win32,59.88023952,,,,,,,,3,Fast,g,1,1.789,9,1,37,1,1,,,,,
,1.48,,,,,,,,,h.PNG,h,5d5ff4697721bf0015083888,2021-09-08_15h12.56.415,forced_choiceRT,2021.1.2,Win32,59.88023952,,,,,,,,3,Fast,f,0,1.888,9,2,38,2,1,,,,,
,0.28,,,,,,,,,f.PNG,f,5d5ff4697721bf0015083888,2021-09-08_15h12.56.415,forced_choiceRT,2021.1.2,Win32,59.88023952,,,,,,,,3,Fast,f,1,1.888,9,3,39,0,1,,,,,
,,,,,,,,,,,,5d5ff4697721bf0015083888,2021-09-08_15h12.56.415,forced_choiceRT,2021.1.2,Win32,59.88023952,,,,,,,,,,,,,,,,,,2,0,2,0,1
,1.07,,,,,,,,,h.PNG,h,5d5ff4697721bf0015083888,2021-09-08_15h12.56.415,forced_choiceRT,2021.1.2,Win32,59.88023952,,,,,,,,4,Slow,h,1,7.038,0,0,0,2,1,,,,,
,0.49,,,,,,,,,f.PNG,f,5d5ff4697721bf0015083888,2021-09-08_15h12.56.415,forced_choiceRT,2021.1.2,Win32,59.88023952,,,,,,,,4,Fast,f,1,1.486,0,1,1,0,1,,,,,
,0.57,,,,,,,,,g.PNG,g,5d5ff4697721bf0015083888,2021-09-08_15h12.56.415,forced_choiceRT,2021.1.2,Win32,59.88023952,,,,,,,,4,Fast,g,1,1.758,0,2,2,1,1,,,,,
,1.2,,,,,,,,,g.PNG,g,5d5ff4697721bf0015083888,2021-09-08_15h12.56.415,forced_choiceRT,2021.1.2,Win32,59.88023952,,,,,,,,4,Fast,g,1,1.804,0,3,3,1,1,,,,,
,0.67,,,,,,,,,j.PNG,j,5d5ff4697721bf0015083888,2021-09-08_15h12.56.415,forced_choiceRT,2021.1.2,Win32,59.88023952,,,,,,,,4,Ontime,j,1,2.02,1,0,4,3,1,,,,,
,1.63,,,,,,,,,f.PNG,f,5d5ff4697721bf0015083888,2021-09-08_15h12.56.415,forced_choiceRT,2021.1.2,Win32,59.88023952,,,,,,,,4,Ontime,h,0,1.955,1,1,5,0,1,,,,,
,0.88,,,,,,,,,j.PNG,j,5d5ff4697721bf0015083888,2021-09-08_15h12.56.415,forced_choiceRT,2021.1.2,Win32,59.88023952,,,,,,,,4,Ontime,j,1,1.92,1,2,6,3,1,,,,,
,1.08,,,,,,,,,g.PNG,g,5d5ff4697721bf0015083888,2021-09-08_15h12.56.415,forced_choiceRT,2021.1.2,Win32,59.88023952,,,,,,,,4,Fast,f,0,1.486,1,3,7,1,1,,,,,
,1.69,,,,,,,,,j.PNG,j,5d5ff4697721bf0015083888,2021-09-08_15h12.56.415,forced_choiceRT,2021.1.2,Win32,59.88023952,,,,,,,,4,Slow,j,1,2.821,2,0,8,3,1,,,,,
,1.44,,,,,,,,,h.PNG,h,5d5ff4697721bf0015083888,2021-09-08_15h12.56.415,forced_choiceRT,2021.1.2,Win32,59.88023952,,,,,,,,4,Slow,h,1,2.186,2,1,9,2,1,,,,,
,1.33,,,,,,,,,j.PNG,j,5d5ff4697721bf0015083888,2021-09-08_15h12.56.415,forced_choiceRT,2021.1.2,Win32,59.88023952,,,,,,,,4,Fast,j,1,1.771,2,2,10,3,1,,,,,
,0.35,,,,,,,,,f.PNG,f,5d5ff4697721bf0015083888,2021-09-08_15h12.56.415,forced_choiceRT,2021.1.2,Win32,59.88023952,,,,,,,,4,Fast,f,1,1.07,2,3,11,0,1,,,,,
,0.69,,,,,,,,,g.PNG,g,5d5ff4697721bf0015083888,2021-09-08_15h12.56.415,forced_choiceRT,2021.1.2,Win32,59.88023952,,,,,,,,4,Fast,g,1,1.838,3,0,12,1,1,,,,,
,0.19,,,,,,,,,f.PNG,f,5d5ff4697721bf0015083888,2021-09-08_15h12.56.415,forced_choiceRT,2021.1.2,Win32,59.88023952,,,,,,,,4,Fast,f,1,1.821,3,1,13,0,1,,,,,
,0.95,,,,,,,,,g.PNG,g,5d5ff4697721bf0015083888,2021-09-08_15h12.56.415,forced_choiceRT,2021.1.2,Win32,59.88023952,,,,,,,,4,Slow,g,1,2.142,3,2,14,1,1,,,,,
,0.97,,,,,,,,,h.PNG,h,5d5ff4697721bf0015083888,2021-09-08_15h12.56.415,forced_choiceRT,2021.1.2,Win32,59.88023952,,,,,,,,4,Ontime,h,1,1.904,3,3,15,2,1,,,,,
,0.35,,,,,,,,,j.PNG,j,5d5ff4697721bf0015083888,2021-09-08_15h12.56.415,forced_choiceRT,2021.1.2,Win32,59.88023952,,,,,,,,4,Ontime,j,1,1.973,4,0,16,3,1,,,,,
,0.66,,,,,,,,,f.PNG,f,5d5ff4697721bf0015083888,2021-09-08_15h12.56.415,forced_choiceRT,2021.1.2,Win32,59.88023952,,,,,,,,4,Fast,f,1,1.771,4,1,17,0,1,,,,,
,1.23,,,,,,,,,h.PNG,h,5d5ff4697721bf0015083888,2021-09-08_15h12.56.415,forced_choiceRT,2021.1.2,Win32,59.88023952,,,,,,,,4,Slow,h,1,2.153,4,2,18,2,1,,,,,
,1.66,,,,,,,,,j.PNG,j,5d5ff4697721bf0015083888,2021-09-08_15h12.56.415,forced_choiceRT,2021.1.2,Win32,59.88023952,,,,,,,,4,Slow,h,0,2.108,4,3,19,3,1,,,,,
,0.81,,,,,,,,,j.PNG,j,5d5ff4697721bf0015083888,2021-09-08_15h12.56.415,forced_choiceRT,2021.1.2,Win32,59.88023952,,,,,,,,4,Fast,j,1,1.642,5,0,20,3,1,,,,,
,1.96,,,,,,,,,g.PNG,g,5d5ff4697721bf0015083888,2021-09-08_15h12.56.415,forced_choiceRT,2021.1.2,Win32,59.88023952,,,,,,,,4,Slow,j,0,2.242,5,1,21,1,1,,,,,
,1.42,,,,,,,,,f.PNG,f,5d5ff4697721bf0015083888,2021-09-08_15h12.56.415,forced_choiceRT,2021.1.2,Win32,59.88023952,,,,,,,,4,Slow,f,1,2.103,5,2,22,0,1,,,,,
,0.34,,,,,,,,,g.PNG,g,5d5ff4697721bf0015083888,2021-09-08_15h12.56.415,forced_choiceRT,2021.1.2,Win32,59.88023952,,,,,,,,4,Fast,g,1,1.204,5,3,23,1,1,,,,,
,0.06,,,,,,,,,h.PNG,h,5d5ff4697721bf0015083888,2021-09-08_15h12.56.415,forced_choiceRT,2021.1.2,Win32,59.88023952,,,,,,,,4,Fast,h,1,1.889,6,0,24,2,1,,,,,
,0.11,,,,,,,,,h.PNG,h,5d5ff4697721bf0015083888,2021-09-08_15h12.56.415,forced_choiceRT,2021.1.2,Win32,59.88023952,,,,,,,,4,Ontime,h,1,2.005,6,1,25,2,1,,,,,
,0.05,,,,,,,,,j.PNG,j,5d5ff4697721bf0015083888,2021-09-08_15h12.56.415,forced_choiceRT,2021.1.2,Win32,59.88023952,,,,,,,,4,Ontime,j,1,2.093,6,2,26,3,1,,,,,
,1.32,,,,,,,,,h.PNG,h,5d5ff4697721bf0015083888,2021-09-08_15h12.56.415,forced_choiceRT,2021.1.2,Win32,59.88023952,,,,,,,,4,Slow,h,1,2.338,6,3,27,2,1,,,,,
,0.42,,,,,,,,,h.PNG,h,5d5ff4697721bf0015083888,2021-09-08_15h12.56.415,forced_choiceRT,2021.1.2,Win32,59.88023952,,,,,,,,4,Fast,h,1,1.785,7,0,28,2,1,,,,,
,0.71,,,,,,,,,f.PNG,f,5d5ff4697721bf0015083888,2021-09-08_15h12.56.415,forced_choiceRT,2021.1.2,Win32,59.88023952,,,,,,,,4,Ontime,f,1,1.993,7,1,29,0,1,,,,,
,0.36,,,,,,,,,g.PNG,g,5d5ff4697721bf0015083888,2021-09-08_15h12.56.415,forced_choiceRT,2021.1.2,Win32,59.88023952,,,,,,,,4,Slow,g,1,2.154,7,2,30,1,1,,,,,
,1.3,,,,,,,,,f.PNG,f,5d5ff4697721bf0015083888,2021-09-08_15h12.56.415,forced_choiceRT,2021.1.2,Win32,59.88023952,,,,,,,,4,Ontime,f,1,1.971,7,3,31,0,1,,,,,
,1.55,,,,,,,,,j.PNG,j,5d5ff4697721bf0015083888,2021-09-08_15h12.56.415,forced_choiceRT,2021.1.2,Win32,59.88023952,,,,,,,,4,Slow,h,0,2.136,8,0,32,3,1,,,,,
,0.16,,,,,,,,,j.PNG,j,5d5ff4697721bf0015083888,2021-09-08_15h12.56.415,forced_choiceRT,2021.1.2,Win32,59.88023952,,,,,,,,4,Slow,j,1,2.124,8,1,33,3,1,,,,,
,0.15,,,,,,,,,g.PNG,g,5d5ff4697721bf0015083888,2021-09-08_15h12.56.415,forced_choiceRT,2021.1.2,Win32,59.88023952,,,,,,,,4,Slow,g,1,2.271,8,2,34,1,1,,,,,
,1.57,,,,,,,,,f.PNG,f,5d5ff4697721bf0015083888,2021-09-08_15h12.56.415,forced_choiceRT,2021.1.2,Win32,59.88023952,,,,,,,,4,Fast,f,1,1.725,8,3,35,0,1,,,,,
,1.3,,,,,,,,,g.PNG,g,5d5ff4697721bf0015083888,2021-09-08_15h12.56.415,forced_choiceRT,2021.1.2,Win32,59.88023952,,,,,,,,4,Ontime,g,1,1.923,9,0,36,1,1,,,,,
,1.18,,,,,,,,,f.PNG,f,5d5ff4697721bf0015083888,2021-09-08_15h12.56.415,forced_choiceRT,2021.1.2,Win32,59.88023952,,,,,,,,4,Ontime,f,1,1.911,9,1,37,0,1,,,,,
,1.05,,,,,,,,,h.PNG,h,5d5ff4697721bf0015083888,2021-09-08_15h12.56.415,forced_choiceRT,2021.1.2,Win32,59.88023952,,,,,,,,4,Fast,h,1,1.804,9,2,38,2,1,,,,,
,0.84,,,,,,,,,h.PNG,h,5d5ff4697721bf0015083888,2021-09-08_15h12.56.415,forced_choiceRT,2021.1.2,Win32,59.88023952,,,,,,,,4,Fast,h,1,1.86,9,3,39,2,1,,,,,
,,,,,,,,,,,,5d5ff4697721bf0015083888,2021-09-08_15h12.56.415,forced_choiceRT,2021.1.2,Win32,59.88023952,,,,,,,,,,,,,,,,,,3,0,3,0,1
,0.87,,,,,,,,,j.PNG,j,5d5ff4697721bf0015083888,2021-09-08_15h12.56.415,forced_choiceRT,2021.1.2,Win32,59.88023952,,,,,,,,5,Fast,j,1,1.415,0,0,0,3,1,,,,,
,1.17,,,,,,,,,f.PNG,f,5d5ff4697721bf0015083888,2021-09-08_15h12.56.415,forced_choiceRT,2021.1.2,Win32,59.88023952,,,,,,,,5,Fast,f,1,1.826,0,1,1,0,1,,,,,
,0.35,,,,,,,,,g.PNG,g,5d5ff4697721bf0015083888,2021-09-08_15h12.56.415,forced_choiceRT,2021.1.2,Win32,59.88023952,,,,,,,,5,Fast,g,1,1.77,0,2,2,1,1,,,,,
,1.88,,,,,,,,,f.PNG,f,5d5ff4697721bf0015083888,2021-09-08_15h12.56.415,forced_choiceRT,2021.1.2,Win32,59.88023952,,,,,,,,5,Slow,f,1,2.955,0,3,3,0,1,,,,,
,0.78,,,,,,,,,j.PNG,j,5d5ff4697721bf0015083888,2021-09-08_15h12.56.415,forced_choiceRT,2021.1.2,Win32,59.88023952,,,,,,,,5,Fast,j,1,1.842,1,0,4,3,1,,,,,
,0.26,,,,,,,,,j.PNG,j,5d5ff4697721bf0015083888,2021-09-08_15h12.56.415,forced_choiceRT,2021.1.2,Win32,59.88023952,,,,,,,,5,Fast,j,1,1.843,1,1,5,3,1,,,,,
,1.74,,,,,,,,,g.PNG,g,5d5ff4697721bf0015083888,2021-09-08_15h12.56.415,forced_choiceRT,2021.1.2,Win32,59.88023952,,,,,,,,5,Slow,h,0,2.169,1,2,6,1,1,,,,,
,0.89,,,,,,,,,f.PNG,f,5d5ff4697721bf0015083888,2021-09-08_15h12.56.415,forced_choiceRT,2021.1.2,Win32,59.88023952,,,,,,,,5,Ontime,f,1,1.969,1,3,7,0,1,,,,,
,0.58,,,,,,,,,h.PNG,h,5d5ff4697721bf0015083888,2021-09-08_15h12.56.415,forced_choiceRT,2021.1.2,Win32,59.88023952,,,,,,,,5,Fast,h,1,1.893,2,0,8,2,1,,,,,
,0.12,,,,,,,,,g.PNG,g,5d5ff4697721bf0015083888,2021-09-08_15h12.56.415,forced_choiceRT,2021.1.2,Win32,59.88023952,,,,,,,,5,Fast,g,1,1.273,2,1,9,1,1,,,,,
,1.61,,,,,,,,,h.PNG,h,5d5ff4697721bf0015083888,2021-09-08_15h12.56.415,forced_choiceRT,2021.1.2,Win32,59.88023952,,,,,,,,5,Slow,j,0,2.187,2,2,10,2,1,,,,,
,0.66,,,,,,,,,j.PNG,j,5d5ff4697721bf0015083888,2021-09-08_15h12.56.415,forced_choiceRT,2021.1.2,Win32,59.88023952,,,,,,,,5,Ontime,j,1,2.088,2,3,11,3,1,,,,,
,0.15,,,,,,,,,h.PNG,h,5d5ff4697721bf0015083888,2021-09-08_15h12.56.415,forced_choiceRT,2021.1.2,Win32,59.88023952,,,,,,,,5,Ontime,h,1,1.992,3,0,12,2,1,,,,,
,0.05,,,,,,,,,h.PNG,h,5d5ff4697721bf0015083888,2021-09-08_15h12.56.415,forced_choiceRT,2021.1.2,Win32,59.88023952,,,,,,,,5,Slow,h,1,2.322,3,1,13,2,1,,,,,
,0.87,,,,,,,,,f.PNG,f,5d5ff4697721bf0015083888,2021-09-08_15h12.56.415,forced_choiceRT,2021.1.2,Win32,59.88023952,,,,,,,,5,Ontime,f,1,1.921,3,2,14,0,1,,,,,
,1.01,,,,,,,,,f.PNG,f,5d5ff4697721bf0015083888,2021-09-08_15h12.56.415,forced_choiceRT,2021.1.2,Win32,59.88023952,,,,,,,,5,Fast,f,1,1.753,3,3,15,0,1,,,,,
,1.04,,,,,,,,,h.PNG,h,5d5ff4697721bf0015083888,2021-09-08_15h12.56.415,forced_choiceRT,2021.1.2,Win32,59.88023952,,,,,,,,5,Slow,h,1,2.144,4,0,16,2,1,,,,,
,0.27,,,,,,,,,j.PNG,j,5d5ff4697721bf0015083888,2021-09-08_15h12.56.415,forced_choiceRT,2021.1.2,Win32,59.88023952,,,,,,,,5,Fast,j,1,1.823,4,1,17,3,1,,,,,
,1.65,,,,,,,,,f.PNG,f,5d5ff4697721bf0015083888,2021-09-08_15h12.56.415,forced_choiceRT,2021.1.2,Win32,59.88023952,,,,,,,,5,Slow,f,1,2.224,4,2,18,0,1,,,,,
,0.8,,,,,,,,,h.PNG,h,5d5ff4697721bf0015083888,2021-09-08_15h12.56.415,forced_choiceRT,2021.1.2,Win32,59.88023952,,,,,,,,5,Ontime,h,1,1.953,4,3,19,2,1,,,,,
,0.51,,,,,,,,,g.PNG,g,5d5ff4697721bf0015083888,2021-09-08_15h12.56.415,forced_choiceRT,2021.1.2,Win32,59.88023952,,,,,,,,5,Ontime,g,1,1.956,5,0,20,1,1,,,,,
,0.79,,,,,,,,,f.PNG,f,5d5ff4697721bf0015083888,2021-09-08_15h12.56.415,forced_choiceRT,2021.1.2,Win32,59.88023952,,,,,,,,5,Fast,f,1,1.803,5,1,21,0,1,,,,,
,1.58,,,,,,,,,j.PNG,j,5d5ff4697721bf0015083888,2021-09-08_15h12.56.415,forced_choiceRT,2021.1.2,Win32,59.88023952,,,,,,,,5,Slow,j,1,2.204,5,2,22,3,1,,,,,
,1.38,,,,,,,,,f.PNG,f,5d5ff4697721bf0015083888,2021-09-08_15h12.56.415,forced_choiceRT,2021.1.2,Win32,59.88023952,,,,,,,,5,Fast,h,0,1.71,5,3,23,0,1,,,,,
,0,,,,,,,,,g.PNG,g,5d5ff4697721bf0015083888,2021-09-08_15h12.56.415,forced_choiceRT,2021.1.2,Win32,59.88023952,,,,,,,,5,Ontime,g,1,2.071,6,0,24,1,1,,,,,
,1.02,,,,,,,,,h.PNG,h,5d5ff4697721bf0015083888,2021-09-08_15h12.56.415,forced_choiceRT,2021.1.2,Win32,59.88023952,,,,,,,,5,Ontime,h,1,2.055,6,1,25,2,1,,,,,
,0.25,,,,,,,,,h.PNG,h,5d5ff4697721bf0015083888,2021-09-08_15h12.56.415,forced_choiceRT,2021.1.2,Win32,59.88023952,,,,,,,,5,Fast,h,1,1.77,6,2,26,2,1,,,,,
,0.64,,,,,,,,,g.PNG,g,5d5ff4697721bf0015083888,2021-09-08_15h12.56.415,forced_choiceRT,2021.1.2,Win32,59.88023952,,,,,,,,5,Ontime,g,1,2.054,6,3,27,1,1,,,,,
,1.53,,,,,,,,,h.PNG,h,5d5ff4697721bf0015083888,2021-09-08_15h12.56.415,forced_choiceRT,2021.1.2,Win32,59.88023952,,,,,,,,5,Slow,h,1,2.104,7,0,28,2,1,,,,,
,0.11,,,,,,,,,j.PNG,j,5d5ff4697721bf0015083888,2021-09-08_15h12.56.415,forced_choiceRT,2021.1.2,Win32,59.88023952,,,,,,,,5,Ontime,j,1,1.937,7,1,29,3,1,,,,,
,1.5,,,,,,,,,f.PNG,f,5d5ff4697721bf0015083888,2021-09-08_15h12.56.415,forced_choiceRT,2021.1.2,Win32,59.88023952,,,,,,,,5,Ontime,f,1,2.053,7,2,30,0,1,,,,,
,0.82,,,,,,,,,g.PNG,g,5d5ff4697721bf0015083888,2021-09-08_15h12.56.415,forced_choiceRT,2021.1.2,Win32,59.88023952,,,,,,,,5,Ontime,g,1,1.953,7,3,31,1,1,,,,,
,0.71,,,,,,,,,j.PNG,j,5d5ff4697721bf0015083888,2021-09-08_15h12.56.415,forced_choiceRT,2021.1.2,Win32,59.88023952,,,,,,,,5,Fast,j,1,1.857,8,0,32,3,1,,,,,
,0.89,,,,,,,,,g.PNG,g,5d5ff4697721bf0015083888,2021-09-08_15h12.56.415,forced_choiceRT,2021.1.2,Win32,59.88023952,,,,,,,,5,Ontime,g,1,1.92,8,1,33,1,1,,,,,
,1.75,,,,,,,,,g.PNG,g,5d5ff4697721bf0015083888,2021-09-08_15h12.56.415,forced_choiceRT,2021.1.2,Win32,59.88023952,,,,,,,,5,Slow,h,0,2.223,8,2,34,1,1,,,,,
,0.04,,,,,,,,,j.PNG,j,5d5ff4697721bf0015083888,2021-09-08_15h12.56.415,forced_choiceRT,2021.1.2,Win32,59.88023952,,,,,,,,5,Slow,j,1,2.125,8,3,35,3,1,,,,,
,1.08,,,,,,,,,f.PNG,f,5d5ff4697721bf0015083888,2021-09-08_15h12.56.415,forced_choiceRT,2021.1.2,Win32,59.88023952,,,,,,,,5,Ontime,f,1,2.086,9,0,36,0,1,,,,,
,1.47,,,,,,,,,h.PNG,h,5d5ff4697721bf0015083888,2021-09-08_15h12.56.415,forced_choiceRT,2021.1.2,Win32,59.88023952,,,,,,,,5,Slow,h,1,2.838,9,1,37,2,1,,,,,
,0.55,,,,,,,,,j.PNG,j,5d5ff4697721bf0015083888,2021-09-08_15h12.56.415,forced_choiceRT,2021.1.2,Win32,59.88023952,,,,,,,,5,Fast,j,1,1.787,9,2,38,3,1,,,,,
,0.98,,,,,,,,,g.PNG,g,5d5ff4697721bf0015083888,2021-09-08_15h12.56.415,forced_choiceRT,2021.1.2,Win32,59.88023952,,,,,,,,5,Fast,g,1,1.703,9,3,39,1,1,,,,,
,,,,,,,,,,,,5d5ff4697721bf0015083888,2021-09-08_15h12.56.415,forced_choiceRT,2021.1.2,Win32,59.88023952,,,,,,,,,,,,,,,,,,4,0,4,0,1
,0.46,,,,,,,,,f.PNG,f,5d5ff4697721bf0015083888,2021-09-08_15h12.56.415,forced_choiceRT,2021.1.2,Win32,59.88023952,,,,,,,,6,Fast,f,1,1.214,0,0,0,0,1,,,,,
,0.64,,,,,,,,,j.PNG,j,5d5ff4697721bf0015083888,2021-09-08_15h12.56.415,forced_choiceRT,2021.1.2,Win32,59.88023952,,,,,,,,6,Fast,j,1,1.81,0,1,1,3,1,,,,,
,0.48,,,,,,,,,g.PNG,g,5d5ff4697721bf0015083888,2021-09-08_15h12.56.415,forced_choiceRT,2021.1.2,Win32,59.88023952,,,,,,,,6,Fast,g,1,1.139,0,2,2,1,1,,,,,
,1.82,,,,,,,,,g.PNG,g,5d5ff4697721bf0015083888,2021-09-08_15h12.56.415,forced_choiceRT,2021.1.2,Win32,59.88023952,,,,,,,,6,Slow,g,1,2.241,0,3,3,1,1,,,,,
,0.22,,,,,,,,,h.PNG,h,5d5ff4697721bf0015083888,2021-09-08_15h12.56.415,forced_choiceRT,2021.1.2,Win32,59.88023952,,,,,,,,6,Fast,h,1,1.258,1,0,4,2,1,,,,,
,1.24,,,,,,,,,h.PNG,h,5d5ff4697721bf0015083888,2021-09-08_15h12.56.415,forced_choiceRT,2021.1.2,Win32,59.88023952,,,,,,,,6,Slow,h,1,2.104,1,1,5,2,1,,,,,
,0.77,,,,,,,,,f.PNG,f,5d5ff4697721bf0015083888,2021-09-08_15h12.56.415,forced_choiceRT,2021.1.2,Win32,59.88023952,,,,,,,,6,Fast,f,1,1.608,1,2,6,0,1,,,,,
,0.32,,,,,,,,,h.PNG,h,5d5ff4697721bf0015083888,2021-09-08_15h12.56.415,forced_choiceRT,2021.1.2,Win32,59.88023952,,,,,,,,6,Fast,h,1,1.77,1,3,7,2,1,,,,,
,0,,,,,,,,,j.PNG,j,5d5ff4697721bf0015083888,2021-09-08_15h12.56.415,forced_choiceRT,2021.1.2,Win32,59.88023952,,,,,,,,6,Ontime,j,1,2.003,2,0,8,3,1,,,,,
,0.24,,,,,,,,,f.PNG,f,5d5ff4697721bf0015083888,2021-09-08_15h12.56.415,forced_choiceRT,2021.1.2,Win32,59.88023952,,,,,,,,6,Fast,f,1,1.81,2,1,9,0,1,,,,,
,0.51,,,,,,,,,h.PNG,h,5d5ff4697721bf0015083888,2021-09-08_15h12.56.415,forced_choiceRT,2021.1.2,Win32,59.88023952,,,,,,,,6,Fast,h,1,1.82,2,2,10,2,1,,,,,
,0.38,,,,,,,,,f.PNG,f,5d5ff4697721bf0015083888,2021-09-08_15h12.56.415,forced_choiceRT,2021.1.2,Win32,59.88023952,,,,,,,,6,Fast,f,1,0.955,2,3,11,0,1,,,,,
,0.78,,,,,,,,,j.PNG,j,5d5ff4697721bf0015083888,2021-09-08_15h12.56.415,forced_choiceRT,2021.1.2,Win32,59.88023952,,,,,,,,6,Fast,j,1,1.888,3,0,12,3,1,,,,,
,0.57,,,,,,,,,h.PNG,h,5d5ff4697721bf0015083888,2021-09-08_15h12.56.415,forced_choiceRT,2021.1.2,Win32,59.88023952,,,,,,,,6,Fast,h,1,1.724,3,1,13,2,1,,,,,
,1.53,,,,,,,,,j.PNG,j,5d5ff4697721bf0015083888,2021-09-08_15h12.56.415,forced_choiceRT,2021.1.2,Win32,59.88023952,,,,,,,,6,Slow,j,1,2.188,3,2,14,3,1,,,,,
,1.69,,,,,,,,,j.PNG,j,5d5ff4697721bf0015083888,2021-09-08_15h12.56.415,forced_choiceRT,2021.1.2,Win32,59.88023952,,,,,,,,6,Slow,j,1,2.358,3,3,15,3,1,,,,,
,0.45,,,,,,,,,f.PNG,f,5d5ff4697721bf0015083888,2021-09-08_15h12.56.415,forced_choiceRT,2021.1.2,Win32,59.88023952,,,,,,,,6,Fast,f,1,1.72,4,0,16,0,1,,,,,
,0.28,,,,,,,,,f.PNG,f,5d5ff4697721bf0015083888,2021-09-08_15h12.56.415,forced_choiceRT,2021.1.2,Win32,59.88023952,,,,,,,,6,Fast,f,1,1.774,4,1,17,0,1,,,,,
,1.66,,,,,,,,,j.PNG,j,5d5ff4697721bf0015083888,2021-09-08_15h12.56.415,forced_choiceRT,2021.1.2,Win32,59.88023952,,,,,,,,6,Slow,j,1,2.22,4,2,18,3,1,,,,,
,1.39,,,,,,,,,h.PNG,h,5d5ff4697721bf0015083888,2021-09-08_15h12.56.415,forced_choiceRT,2021.1.2,Win32,59.88023952,,,,,,,,6,Ontime,h,1,1.953,4,3,19,2,1,,,,,
,0.98,,,,,,,,,g.PNG,g,5d5ff4697721bf0015083888,2021-09-08_15h12.56.415,forced_choiceRT,2021.1.2,Win32,59.88023952,,,,,,,,6,Fast,g,1,1.887,5,0,20,1,1,,,,,
,0.74,,,,,,,,,h.PNG,h,5d5ff4697721bf0015083888,2021-09-08_15h12.56.415,forced_choiceRT,2021.1.2,Win32,59.88023952,,,,,,,,6,Slow,h,1,2.103,5,1,21,2,1,,,,,
,0.44,,,,,,,,,f.PNG,f,5d5ff4697721bf0015083888,2021-09-08_15h12.56.415,forced_choiceRT,2021.1.2,Win32,59.88023952,,,,,,,,6,Fast,f,1,1.673,5,2,22,0,1,,,,,
,0.11,,,,,,,,,f.PNG,f,5d5ff4697721bf0015083888,2021-09-08_15h12.56.415,forced_choiceRT,2021.1.2,Win32,59.88023952,,,,,,,,6,Ontime,f,1,2.019,5,3,23,0,1,,,,,
,1.57,,,,,,,,,h.PNG,h,5d5ff4697721bf0015083888,2021-09-08_15h12.56.415,forced_choiceRT,2021.1.2,Win32,59.88023952,,,,,,,,6,Slow,h,1,2.205,6,0,24,2,1,,,,,
,0.04,,,,,,,,,f.PNG,f,5d5ff4697721bf0015083888,2021-09-08_15h12.56.415,forced_choiceRT,2021.1.2,Win32,59.88023952,,,,,,,,6,Slow,f,1,2.17,6,1,25,0,1,,,,,
,1.26,,,,,,,,,j.PNG,j,5d5ff4697721bf0015083888,2021-09-08_15h12.56.415,forced_choiceRT,2021.1.2,Win32,59.88023952,,,,,,,,6,Ontime,j,1,1.976,6,2,26,3,1,,,,,
,0.8,,,,,,,,,h.PNG,h,5d5ff4697721bf0015083888,2021-09-08_15h12.56.415,forced_choiceRT,2021.1.2,Win32,59.88023952,,,,,,,,6,Fast,h,1,1.853,6,3,27,2,1,,,,,
,1.95,,,,,,,,,j.PNG,j,5d5ff4697721bf0015083888,2021-09-08_15h12.56.415,forced_choiceRT,2021.1.2,Win32,59.88023952,,,,,,,,6,Ontime,g,0,1.989,7,0,28,3,1,,,,,
,0.96,,,,,,,,,g.PNG,g,5d5ff4697721bf0015083888,2021-09-08_15h12.56.415,forced_choiceRT,2021.1.2,Win32,59.88023952,,,,,,,,6,Slow,g,1,2.22,7,1,29,1,1,,,,,
,1.94,,,,,,,,,g.PNG,g,5d5ff4697721bf0015083888,2021-09-08_15h12.56.415,forced_choiceRT,2021.1.2,Win32,59.88023952,,,,,,,,6,Slow,g,1,2.338,7,2,30,1,1,,,,,
,1.15,,,,,,,,,f.PNG,f,5d5ff4697721bf0015083888,2021-09-08_15h12.56.415,forced_choiceRT,2021.1.2,Win32,59.88023952,,,,,,,,6,Fast,f,1,1.721,7,3,31,0,1,,,,,
,0,,,,,,,,,g.PNG,g,5d5ff4697721bf0015083888,2021-09-08_15h12.56.415,forced_choiceRT,2021.1.2,Win32,59.88023952,,,,,,,,6,Fast,g,1,1.741,8,0,32,1,1,,,,,
,0.81,,,,,,,,,g.PNG,g,5d5ff4697721bf0015083888,2021-09-08_15h12.56.415,forced_choiceRT,2021.1.2,Win32,59.88023952,,,,,,,,6,Fast,g,1,1.774,8,1,33,1,1,,,,,
,0.69,,,,,,,,,g.PNG,g,5d5ff4697721bf0015083888,2021-09-08_15h12.56.415,forced_choiceRT,2021.1.2,Win32,59.88023952,,,,,,,,6,Slow,g,1,2.138,8,2,34,1,1,,,,,
,1.62,,,,,,,,,g.PNG,g,5d5ff4697721bf0015083888,2021-09-08_15h12.56.415,forced_choiceRT,2021.1.2,Win32,59.88023952,,,,,,,,6,Ontime,g,1,2.023,8,3,35,1,1,,,,,
,1.51,,,,,,,,,j.PNG,j,5d5ff4697721bf0015083888,2021-09-08_15h12.56.415,forced_choiceRT,2021.1.2,Win32,59.88023952,,,,,,,,6,Slow,j,1,2.289,9,0,36,3,1,,,,,
,0.41,,,,,,,,,j.PNG,j,5d5ff4697721bf0015083888,2021-09-08_15h12.56.415,forced_choiceRT,2021.1.2,Win32,59.88023952,,,,,,,,6,Fast,j,1,1.706,9,1,37,3,1,,,,,
,1.76,,,,,,,,,g.PNG,g,5d5ff4697721bf0015083888,2021-09-08_15h12.56.415,forced_choiceRT,2021.1.2,Win32,59.88023952,,,,,,,,6,Ontime,j,0,2.004,9,2,38,1,1,,,,,
,0.33,,,,,,,,,h.PNG,h,5d5ff4697721bf0015083888,2021-09-08_15h12.56.415,forced_choiceRT,2021.1.2,Win32,59.88023952,,,,,,,,6,Fast,h,1,1.754,9,3,39,2,1,,,,,
,,,,,,,,,,,,5d5ff4697721bf0015083888,2021-09-08_15h12.56.415,forced_choiceRT,2021.1.2,Win32,59.88023952,,,,,,,,,,,,,,,,,,5,0,5,0,1
,0.53,,,,,,,,,h.PNG,h,5d5ff4697721bf0015083888,2021-09-08_15h12.56.415,forced_choiceRT,2021.1.2,Win32,59.88023952,,,,,,,,7,Ontime,h,1,2.051,0,0,0,2,1,,,,,
,1.66,,,,,,,,,j.PNG,j,5d5ff4697721bf0015083888,2021-09-08_15h12.56.415,forced_choiceRT,2021.1.2,Win32,59.88023952,,,,,,,,7,Slow,j,1,2.121,0,1,1,3,1,,,,,
,1.42,,,,,,,,,f.PNG,f,5d5ff4697721bf0015083888,2021-09-08_15h12.56.415,forced_choiceRT,2021.1.2,Win32,59.88023952,,,,,,,,7,Fast,f,1,1.803,0,2,2,0,1,,,,,
,0.1,,,,,,,,,j.PNG,j,5d5ff4697721bf0015083888,2021-09-08_15h12.56.415,forced_choiceRT,2021.1.2,Win32,59.88023952,,,,,,,,7,Ontime,j,1,1.97,0,3,3,3,1,,,,,
,0.54,,,,,,,,,j.PNG,j,5d5ff4697721bf0015083888,2021-09-08_15h12.56.415,forced_choiceRT,2021.1.2,Win32,59.88023952,,,,,,,,7,Ontime,j,1,2.053,1,0,4,3,1,,,,,
,1.44,,,,,,,,,h.PNG,h,5d5ff4697721bf0015083888,2021-09-08_15h12.56.415,forced_choiceRT,2021.1.2,Win32,59.88023952,,,,,,,,7,Fast,j,0,1.873,1,1,5,2,1,,,,,
,1.25,,,,,,,,,g.PNG,g,5d5ff4697721bf0015083888,2021-09-08_15h12.56.415,forced_choiceRT,2021.1.2,Win32,59.88023952,,,,,,,,7,Slow,g,1,2.207,1,2,6,1,1,,,,,
,0.26,,,,,,,,,f.PNG,f,5d5ff4697721bf0015083888,2021-09-08_15h12.56.415,forced_choiceRT,2021.1.2,Win32,59.88023952,,,,,,,,7,Fast,f,1,1.753,1,3,7,0,1,,,,,
,0.09,,,,,,,,,j.PNG,j,5d5ff4697721bf0015083888,2021-09-08_15h12.56.415,forced_choiceRT,2021.1.2,Win32,59.88023952,,,,,,,,7,Fast,j,1,1.82,2,0,8,3,1,,,,,
,1.67,,,,,,,,,g.PNG,g,5d5ff4697721bf0015083888,2021-09-08_15h12.56.415,forced_choiceRT,2021.1.2,Win32,59.88023952,,,,,,,,7,Ontime,h,0,2.036,2,1,9,1,1,,,,,
,1.39,,,,,,,,,j.PNG,j,5d5ff4697721bf0015083888,2021-09-08_15h12.56.415,forced_choiceRT,2021.1.2,Win32,59.88023952,,,,,,,,7,Slow,j,1,2.107,2,2,10,3,1,,,,,
,1.58,,,,,,,,,f.PNG,f,5d5ff4697721bf0015083888,2021-09-08_15h12.56.415,forced_choiceRT,2021.1.2,Win32,59.88023952,,,,,,,,7,Fast,f,1,1.86,2,3,11,0,1,,,,,
,0.14,,,,,,,,,f.PNG,f,5d5ff4697721bf0015083888,2021-09-08_15h12.56.415,forced_choiceRT,2021.1.2,Win32,59.88023952,,,,,,,,7,Slow,f,1,2.277,3,0,12,0,1,,,,,
,1.81,,,,,,,,,g.PNG,g,5d5ff4697721bf0015083888,2021-09-08_15h12.56.415,forced_choiceRT,2021.1.2,Win32,59.88023952,,,,,,,,7,Slow,g,1,2.171,3,1,13,1,1,,,,,
,1.19,,,,,,,,,j.PNG,j,5d5ff4697721bf0015083888,2021-09-08_15h12.56.415,forced_choiceRT,2021.1.2,Win32,59.88023952,,,,,,,,7,Fast,g,0,1.737,3,2,14,3,1,,,,,
,0.2,,,,,,,,,h.PNG,h,5d5ff4697721bf0015083888,2021-09-08_15h12.56.415,forced_choiceRT,2021.1.2,Win32,59.88023952,,,,,,,,7,Fast,h,1,1.603,3,3,15,2,1,,,,,
,0.26,,,,,,,,,h.PNG,h,5d5ff4697721bf0015083888,2021-09-08_15h12.56.415,forced_choiceRT,2021.1.2,Win32,59.88023952,,,,,,,,7,Ontime,h,1,1.936,4,0,16,2,1,,,,,
,1.77,,,,,,,,,f.PNG,f,5d5ff4697721bf0015083888,2021-09-08_15h12.56.415,forced_choiceRT,2021.1.2,Win32,59.88023952,,,,,,,,7,Ontime,j,0,1.905,4,1,17,0,1,,,,,
,0.02,,,,,,,,,f.PNG,f,5d5ff4697721bf0015083888,2021-09-08_15h12.56.415,forced_choiceRT,2021.1.2,Win32,59.88023952,,,,,,,,7,Ontime,f,1,2.094,4,2,18,0,1,,,,,
,0.98,,,,,,,,,g.PNG,g,5d5ff4697721bf0015083888,2021-09-08_15h12.56.415,forced_choiceRT,2021.1.2,Win32,59.88023952,,,,,,,,7,Ontime,g,1,2.074,4,3,19,1,1,,,,,
,1.07,,,,,,,,,g.PNG,g,5d5ff4697721bf0015083888,2021-09-08_15h12.56.415,forced_choiceRT,2021.1.2,Win32,59.88023952,,,,,,,,7,Fast,g,1,1.803,5,0,20,1,1,,,,,
,1.33,,,,,,,,,g.PNG,g,5d5ff4697721bf0015083888,2021-09-08_15h12.56.415,forced_choiceRT,2021.1.2,Win32,59.88023952,,,,,,,,7,Ontime,g,1,2.022,5,1,21,1,1,,,,,
,0.64,,,,,,,,,j.PNG,j,5d5ff4697721bf0015083888,2021-09-08_15h12.56.415,forced_choiceRT,2021.1.2,Win32,59.88023952,,,,,,,,7,Ontime,j,1,1.91,5,2,22,3,1,,,,,
,1.26,,,,,,,,,h.PNG,h,5d5ff4697721bf0015083888,2021-09-08_15h12.56.415,forced_choiceRT,2021.1.2,Win32,59.88023952,,,,,,,,7,Fast,h,1,1.886,5,3,23,2,1,,,,,
,1,,,,,,,,,h.PNG,h,5d5ff4697721bf0015083888,2021-09-08_15h12.56.415,forced_choiceRT,2021.1.2,Win32,59.88023952,,,,,,,,7,Ontime,h,1,1.92,6,0,24,2,1,,,,,
,0.73,,,,,,,,,g.PNG,g,5d5ff4697721bf0015083888,2021-09-08_15h12.56.415,forced_choiceRT,2021.1.2,Win32,59.88023952,,,,,,,,7,Ontime,g,1,1.954,6,1,25,1,1,,,,,
,0.02,,,,,,,,,h.PNG,h,5d5ff4697721bf0015083888,2021-09-08_15h12.56.415,forced_choiceRT,2021.1.2,Win32,59.88023952,,,,,,,,7,Ontime,h,1,1.941,6,2,26,2,1,,,,,
,1.65,,,,,,,,,f.PNG,f,5d5ff4697721bf0015083888,2021-09-08_15h12.56.415,forced_choiceRT,2021.1.2,Win32,59.88023952,,,,,,,,7,Slow,f,1,2.17,6,3,27,0,1,,,,,
,0.01,,,,,,,,,j.PNG,j,5d5ff4697721bf0015083888,2021-09-08_15h12.56.415,forced_choiceRT,2021.1.2,Win32,59.88023952,,,,,,,,7,Ontime,j,1,1.92,7,0,28,3,1,,,,,
,1.4,,,,,,,,,g.PNG,g,5d5ff4697721bf0015083888,2021-09-08_15h12.56.415,forced_choiceRT,2021.1.2,Win32,59.88023952,,,,,,,,7,Ontime,g,1,1.923,7,1,29,1,1,,,,,
,1.85,,,,,,,,,h.PNG,h,5d5ff4697721bf0015083888,2021-09-08_15h12.56.415,forced_choiceRT,2021.1.2,Win32,59.88023952,,,,,,,,7,Slow,h,1,2.972,7,2,30,2,1,,,,,
,0.85,,,,,,,,,h.PNG,h,5d5ff4697721bf0015083888,2021-09-08_15h12.56.415,forced_choiceRT,2021.1.2,Win32,59.88023952,,,,,,,,7,Ontime,h,1,1.989,7,3,31,2,1,,,,,
,0.84,,,,,,,,,j.PNG,j,5d5ff4697721bf0015083888,2021-09-08_15h12.56.415,forced_choiceRT,2021.1.2,Win32,59.88023952,,,,,,,,7,Fast,j,1,1.772,8,0,32,3,1,,,,,
,0.28,,,,,,,,,f.PNG,f,5d5ff4697721bf0015083888,2021-09-08_15h12.56.415,forced_choiceRT,2021.1.2,Win32,59.88023952,,,,,,,,7,Fast,f,1,1.854,8,1,33,0,1,,,,,
,0.37,,,,,,,,,j.PNG,j,5d5ff4697721bf0015083888,2021-09-08_15h12.56.415,forced_choiceRT,2021.1.2,Win32,59.88023952,,,,,,,,7,Slow,j,1,2.121,8,2,34,3,1,,,,,
,0.97,,,,,,,,,g.PNG,g,5d5ff4697721bf0015083888,2021-09-08_15h12.56.415,forced_choiceRT,2021.1.2,Win32,59.88023952,,,,,,,,7,Ontime,g,1,1.955,8,3,35,1,1,,,,,
,0.17,,,,,,,,,g.PNG,g,5d5ff4697721bf0015083888,2021-09-08_15h12.56.415,forced_choiceRT,2021.1.2,Win32,59.88023952,,,,,,,,7,Ontime,g,1,2.04,9,0,36,1,1,,,,,
,1.91,,,,,,,,,h.PNG,h,5d5ff4697721bf0015083888,2021-09-08_15h12.56.415,forced_choiceRT,2021.1.2,Win32,59.88023952,,,,,,,,7,Ontime,h,1,1.936,9,1,37,2,1,,,,,
,1.44,,,,,,,,,f.PNG,f,5d5ff4697721bf0015083888,2021-09-08_15h12.56.415,forced_choiceRT,2021.1.2,Win32,59.88023952,,,,,,,,7,Ontime,f,1,1.953,9,2,38,0,1,,,,,
,1.84,,,,,,,,,f.PNG,f,5d5ff4697721bf0015083888,2021-09-08_15h12.56.415,forced_choiceRT,2021.1.2,Win32,59.88023952,,,,,,,,7,Ontime,h,0,1.954,9,3,39,0,1,,,,,
,,,,,,,,,,,,5d5ff4697721bf0015083888,2021-09-08_15h12.56.415,forced_choiceRT,2021.1.2,Win32,59.88023952,,,,,,,,,,,,,,,,,,6,0,6,0,1
,0.9,,,,,,,,,g.PNG,g,5d5ff4697721bf0015083888,2021-09-08_15h12.56.415,forced_choiceRT,2021.1.2,Win32,59.88023952,,,,,,,,8,Fast,g,1,1.803,0,0,0,1,1,,,,,
,0.41,,,,,,,,,f.PNG,f,5d5ff4697721bf0015083888,2021-09-08_15h12.56.415,forced_choiceRT,2021.1.2,Win32,59.88023952,,,,,,,,8,Fast,f,1,1.236,0,1,1,0,1,,,,,
,0.81,,,,,,,,,f.PNG,f,5d5ff4697721bf0015083888,2021-09-08_15h12.56.415,forced_choiceRT,2021.1.2,Win32,59.88023952,,,,,,,,8,Fast,f,1,1.402,0,2,2,0,1,,,,,
,1.77,,,,,,,,,j.PNG,j,5d5ff4697721bf0015083888,2021-09-08_15h12.56.415,forced_choiceRT,2021.1.2,Win32,59.88023952,,,,,,,,8,Slow,j,1,2.388,0,3,3,3,1,,,,,
,1.74,,,,,,,,,g.PNG,g,5d5ff4697721bf0015083888,2021-09-08_15h12.56.415,forced_choiceRT,2021.1.2,Win32,59.88023952,,,,,,,,8,Ontime,h,0,2.09,1,0,4,1,1,,,,,
,1.83,,,,,,,,,j.PNG,j,5d5ff4697721bf0015083888,2021-09-08_15h12.56.415,forced_choiceRT,2021.1.2,Win32,59.88023952,,,,,,,,8,Ontime,g,0,2.077,1,1,5,3,1,,,,,
,1.97,,,,,,,,,f.PNG,f,5d5ff4697721bf0015083888,2021-09-08_15h12.56.415,forced_choiceRT,2021.1.2,Win32,59.88023952,,,,,,,,8,Ontime,j,0,2.038,1,2,6,0,1,,,,,
,1,,,,,,,,,f.PNG,f,5d5ff4697721bf0015083888,2021-09-08_15h12.56.415,forced_choiceRT,2021.1.2,Win32,59.88023952,,,,,,,,8,Fast,f,1,1.843,1,3,7,0,1,,,,,
,1.01,,,,,,,,,g.PNG,g,5d5ff4697721bf0015083888,2021-09-08_15h12.56.415,forced_choiceRT,2021.1.2,Win32,59.88023952,,,,,,,,8,Ontime,g,1,1.904,2,0,8,1,1,,,,,
,0.95,,,,,,,,,h.PNG,h,5d5ff4697721bf0015083888,2021-09-08_15h12.56.415,forced_choiceRT,2021.1.2,Win32,59.88023952,,,,,,,,8,Fast,h,1,1.453,2,1,9,2,1,,,,,
,0.1,,,,,,,,,j.PNG,j,5d5ff4697721bf0015083888,2021-09-08_15h12.56.415,forced_choiceRT,2021.1.2,Win32,59.88023952,,,,,,,,8,Ontime,j,1,2.075,2,2,10,3,1,,,,,
,1.83,,,,,,,,,h.PNG,h,5d5ff4697721bf0015083888,2021-09-08_15h12.56.415,forced_choiceRT,2021.1.2,Win32,59.88023952,,,,,,,,8,Ontime,h,1,1.938,2,3,11,2,1,,,,,
,0.91,,,,,,,,,f.PNG,f,5d5ff4697721bf0015083888,2021-09-08_15h12.56.415,forced_choiceRT,2021.1.2,Win32,59.88023952,,,,,,,,8,Fast,f,1,1.888,3,0,12,0,1,,,,,
,0.39,,,,,,,,,j.PNG,j,5d5ff4697721bf0015083888,2021-09-08_15h12.56.415,forced_choiceRT,2021.1.2,Win32,59.88023952,,,,,,,,8,Slow,j,1,2.137,3,1,13,3,1,,,,,
,0.5,,,,,,,,,j.PNG,j,5d5ff4697721bf0015083888,2021-09-08_15h12.56.415,forced_choiceRT,2021.1.2,Win32,59.88023952,,,,,,,,8,Fast,j,1,1.752,3,2,14,3,1,,,,,
,0.71,,,,,,,,,h.PNG,h,5d5ff4697721bf0015083888,2021-09-08_15h12.56.415,forced_choiceRT,2021.1.2,Win32,59.88023952,,,,,,,,8,Fast,h,1,1.788,3,3,15,2,1,,,,,
,0.36,,,,,,,,,h.PNG,h,5d5ff4697721bf0015083888,2021-09-08_15h12.56.415,forced_choiceRT,2021.1.2,Win32,59.88023952,,,,,,,,8,Ontime,h,1,2.07,4,0,16,2,1,,,,,
,0.8,,,,,,,,,g.PNG,g,5d5ff4697721bf0015083888,2021-09-08_15h12.56.415,forced_choiceRT,2021.1.2,Win32,59.88023952,,,,,,,,8,Ontime,g,1,2.071,4,1,17,1,1,,,,,
,1.77,,,,,,,,,g.PNG,g,5d5ff4697721bf0015083888,2021-09-08_15h12.56.415,forced_choiceRT,2021.1.2,Win32,59.88023952,,,,,,,,8,Slow,g,1,2.307,4,2,18,1,1,,,,,
,0.74,,,,,,,,,h.PNG,h,5d5ff4697721bf0015083888,2021-09-08_15h12.56.415,forced_choiceRT,2021.1.2,Win32,59.88023952,,,,,,,,8,Fast,h,1,1.836,4,3,19,2,1,,,,,
,0.73,,,,,,,,,j.PNG,j,5d5ff4697721bf0015083888,2021-09-08_15h12.56.415,forced_choiceRT,2021.1.2,Win32,59.88023952,,,,,,,,8,Ontime,j,1,1.92,5,0,20,3,1,,,,,
,0.34,,,,,,,,,g.PNG,g,5d5ff4697721bf0015083888,2021-09-08_15h12.56.415,forced_choiceRT,2021.1.2,Win32,59.88023952,,,,,,,,8,Fast,g,1,1.755,5,1,21,1,1,,,,,
,0.81,,,,,,,,,j.PNG,j,5d5ff4697721bf0015083888,2021-09-08_15h12.56.415,forced_choiceRT,2021.1.2,Win32,59.88023952,,,,,,,,8,Ontime,j,1,2.036,5,2,22,3,1,,,,,
,1.28,,,,,,,,,f.PNG,f,5d5ff4697721bf0015083888,2021-09-08_15h12.56.415,forced_choiceRT,2021.1.2,Win32,59.88023952,,,,,,,,8,Ontime,f,1,1.971,5,3,23,0,1,,,,,
,1.29,,,,,,,,,f.PNG,f,5d5ff4697721bf0015083888,2021-09-08_15h12.56.415,forced_choiceRT,2021.1.2,Win32,59.88023952,,,,,,,,8,Slow,f,1,2.207,6,0,24,0,1,,,,,
,0.05,,,,,,,,,g.PNG,g,5d5ff4697721bf0015083888,2021-09-08_15h12.56.415,forced_choiceRT,2021.1.2,Win32,59.88023952,,,,,,,,8,Fast,g,1,1.821,6,1,25,1,1,,,,,
,0.99,,,,,,,,,h.PNG,h,5d5ff4697721bf0015083888,2021-09-08_15h12.56.415,forced_choiceRT,2021.1.2,Win32,59.88023952,,,,,,,,8,Ontime,h,1,1.902,6,2,26,2,1,,,,,
,0.68,,,,,,,,,h.PNG,h,5d5ff4697721bf0015083888,2021-09-08_15h12.56.415,forced_choiceRT,2021.1.2,Win32,59.88023952,,,,,,,,8,Fast,h,1,1.789,6,3,27,2,1,,,,,
,0.93,,,,,,,,,f.PNG,f,5d5ff4697721bf0015083888,2021-09-08_15h12.56.415,forced_choiceRT,2021.1.2,Win32,59.88023952,,,,,,,,8,Ontime,f,1,1.923,7,0,28,0,1,,,,,
,1.94,,,,,,,,,g.PNG,g,5d5ff4697721bf0015083888,2021-09-08_15h12.56.415,forced_choiceRT,2021.1.2,Win32,59.88023952,,,,,,,,8,Ontime,j,0,2.005,7,1,29,1,1,,,,,
,1.99,,,,,,,,,h.PNG,h,5d5ff4697721bf0015083888,2021-09-08_15h12.56.415,forced_choiceRT,2021.1.2,Win32,59.88023952,,,,,,,,8,Ontime,f,0,1.924,7,2,30,2,1,,,,,
,0.54,,,,,,,,,g.PNG,g,5d5ff4697721bf0015083888,2021-09-08_15h12.56.415,forced_choiceRT,2021.1.2,Win32,59.88023952,,,,,,,,8,Fast,g,1,1.737,7,3,31,1,1,,,,,
,1.46,,,,,,,,,f.PNG,f,5d5ff4697721bf0015083888,2021-09-08_15h12.56.415,forced_choiceRT,2021.1.2,Win32,59.88023952,,,,,,,,8,Slow,f,1,2.103,8,0,32,0,1,,,,,
,0.22,,,,,,,,,j.PNG,j,5d5ff4697721bf0015083888,2021-09-08_15h12.56.415,forced_choiceRT,2021.1.2,Win32,59.88023952,,,,,,,,8,Fast,j,1,1.787,8,1,33,3,1,,,,,
,1.31,,,,,,,,,j.PNG,j,5d5ff4697721bf0015083888,2021-09-08_15h12.56.415,forced_choiceRT,2021.1.2,Win32,59.88023952,,,,,,,,8,Ontime,j,1,1.989,8,2,34,3,1,,,,,
,0.05,,,,,,,,,h.PNG,h,5d5ff4697721bf0015083888,2021-09-08_15h12.56.415,forced_choiceRT,2021.1.2,Win32,59.88023952,,,,,,,,8,Ontime,h,1,2.055,8,3,35,2,1,,,,,
,0,,,,,,,,,h.PNG,h,5d5ff4697721bf0015083888,2021-09-08_15h12.56.415,forced_choiceRT,2021.1.2,Win32,59.88023952,,,,,,,,8,Fast,h,1,1.889,9,0,36,2,1,,,,,
,1.87,,,,,,,,,f.PNG,f,5d5ff4697721bf0015083888,2021-09-08_15h12.56.415,forced_choiceRT,2021.1.2,Win32,59.88023952,,,,,,,,8,Slow,g,0,2.103,9,1,37,0,1,,,,,
,1.26,,,,,,,,,g.PNG,g,5d5ff4697721bf0015083888,2021-09-08_15h12.56.415,forced_choiceRT,2021.1.2,Win32,59.88023952,,,,,,,,8,Slow,g,1,2.171,9,2,38,1,1,,,,,
,1.91,,,,,,,,,j.PNG,j,5d5ff4697721bf0015083888,2021-09-08_15h12.56.415,forced_choiceRT,2021.1.2,Win32,59.88023952,,,,,,,,8,Ontime,g,0,2.061,9,3,39,3,1,,,,,
,,,,,,,,,,,,5d5ff4697721bf0015083888,2021-09-08_15h12.56.415,forced_choiceRT,2021.1.2,Win32,59.88023952,,,,,,,,,,,,,,,,,,7,0,7,0,1
,0.71,,,,,,,,,j.PNG,j,5d5ff4697721bf0015083888,2021-09-08_15h12.56.415,forced_choiceRT,2021.1.2,Win32,59.88023952,,,,,,,,9,Fast,j,1,1.402,0,0,0,3,1,,,,,
,0.7,,,,,,,,,j.PNG,j,5d5ff4697721bf0015083888,2021-09-08_15h12.56.415,forced_choiceRT,2021.1.2,Win32,59.88023952,,,,,,,,9,Ontime,j,1,1.908,0,1,1,3,1,,,,,
,1.77,,,,,,,,,g.PNG,g,5d5ff4697721bf0015083888,2021-09-08_15h12.56.415,forced_choiceRT,2021.1.2,Win32,59.88023952,,,,,,,,9,Slow,g,1,2.359,0,2,2,1,1,,,,,
,0.13,,,,,,,,,g.PNG,g,5d5ff4697721bf0015083888,2021-09-08_15h12.56.415,forced_choiceRT,2021.1.2,Win32,59.88023952,,,,,,,,9,Fast,g,1,1.537,0,3,3,1,1,,,,,
,1.29,,,,,,,,,j.PNG,j,5d5ff4697721bf0015083888,2021-09-08_15h12.56.415,forced_choiceRT,2021.1.2,Win32,59.88023952,,,,,,,,9,Fast,j,1,1.874,1,0,4,3,1,,,,,
,1.87,,,,,,,,,j.PNG,j,5d5ff4697721bf0015083888,2021-09-08_15h12.56.415,forced_choiceRT,2021.1.2,Win32,59.88023952,,,,,,,,9,Fast,h,0,1.872,1,1,5,3,1,,,,,
,0.95,,,,,,,,,f.PNG,f,5d5ff4697721bf0015083888,2021-09-08_15h12.56.415,forced_choiceRT,2021.1.2,Win32,59.88023952,,,,,,,,9,Fast,f,1,1.619,1,2,6,0,1,,,,,
,1.81,,,,,,,,,h.PNG,h,5d5ff4697721bf0015083888,2021-09-08_15h12.56.415,forced_choiceRT,2021.1.2,Win32,59.88023952,,,,,,,,9,Slow,f,0,2.104,1,3,7,2,1,,,,,
,1.94,,,,,,,,,g.PNG,g,5d5ff4697721bf0015083888,2021-09-08_15h12.56.415,forced_choiceRT,2021.1.2,Win32,59.88023952,,,,,,,,9,Slow,h,0,2.153,2,0,8,1,1,,,,,
,0.98,,,,,,,,,h.PNG,h,5d5ff4697721bf0015083888,2021-09-08_15h12.56.415,forced_choiceRT,2021.1.2,Win32,59.88023952,,,,,,,,9,Ontime,h,1,1.953,2,1,9,2,1,,,,,
,0.72,,,,,,,,,f.PNG,f,5d5ff4697721bf0015083888,2021-09-08_15h12.56.415,forced_choiceRT,2021.1.2,Win32,59.88023952,,,,,,,,9,Ontime,f,1,2.004,2,2,10,0,1,,,,,
,0.2,,,,,,,,,h.PNG,h,5d5ff4697721bf0015083888,2021-09-08_15h12.56.415,forced_choiceRT,2021.1.2,Win32,59.88023952,,,,,,,,9,Ontime,h,1,1.97,2,3,11,2,1,,,,,
,0.5,,,,,,,,,j.PNG,j,5d5ff4697721bf0015083888,2021-09-08_15h12.56.415,forced_choiceRT,2021.1.2,Win32,59.88023952,,,,,,,,9,Fast,j,1,1.89,3,0,12,3,1,,,,,
,0.91,,,,,,,,,j.PNG,j,5d5ff4697721bf0015083888,2021-09-08_15h12.56.415,forced_choiceRT,2021.1.2,Win32,59.88023952,,,,,,,,9,Ontime,j,1,2.058,3,1,13,3,1,,,,,
,1.23,,,,,,,,,g.PNG,g,5d5ff4697721bf0015083888,2021-09-08_15h12.56.415,forced_choiceRT,2021.1.2,Win32,59.88023952,,,,,,,,9,Slow,g,1,2.136,3,2,14,1,1,,,,,
,1.47,,,,,,,,,h.PNG,h,5d5ff4697721bf0015083888,2021-09-08_15h12.56.415,forced_choiceRT,2021.1.2,Win32,59.88023952,,,,,,,,9,Fast,g,0,1.807,3,3,15,2,1,,,,,
,1.23,,,,,,,,,f.PNG,f,5d5ff4697721bf0015083888,2021-09-08_15h12.56.415,forced_choiceRT,2021.1.2,Win32,59.88023952,,,,,,,,9,Fast,f,1,1.787,4,0,16,0,1,,,,,
,1.74,,,,,,,,,f.PNG,f,5d5ff4697721bf0015083888,2021-09-08_15h12.56.415,forced_choiceRT,2021.1.2,Win32,59.88023952,,,,,,,,9,Ontime,f,1,2.008,4,1,17,0,1,,,,,
,0.11,,,,,,,,,j.PNG,j,5d5ff4697721bf0015083888,2021-09-08_15h12.56.415,forced_choiceRT,2021.1.2,Win32,59.88023952,,,,,,,,9,Fast,j,1,1.774,4,2,18,3,1,,,,,
,1.62,,,,,,,,,g.PNG,g,5d5ff4697721bf0015083888,2021-09-08_15h12.56.415,forced_choiceRT,2021.1.2,Win32,59.88023952,,,,,,,,9,Slow,g,1,2.288,4,3,19,1,1,,,,,
,1.8,,,,,,,,,g.PNG,g,5d5ff4697721bf0015083888,2021-09-08_15h12.56.415,forced_choiceRT,2021.1.2,Win32,59.88023952,,,,,,,,9,Ontime,h,0,1.922,5,0,20,1,1,,,,,
,1.25,,,,,,,,,g.PNG,g,5d5ff4697721bf0015083888,2021-09-08_15h12.56.415,forced_choiceRT,2021.1.2,Win32,59.88023952,,,,,,,,9,Slow,g,1,2.205,5,1,21,1,1,,,,,
,0.6,,,,,,,,,f.PNG,f,5d5ff4697721bf0015083888,2021-09-08_15h12.56.415,forced_choiceRT,2021.1.2,Win32,59.88023952,,,,,,,,9,Fast,f,1,1.736,5,2,22,0,1,,,,,
,1.54,,,,,,,,,g.PNG,g,5d5ff4697721bf0015083888,2021-09-08_15h12.56.415,forced_choiceRT,2021.1.2,Win32,59.88023952,,,,,,,,9,Ontime,g,1,1.908,5,3,23,1,1,,,,,
,0.3,,,,,,,,,g.PNG,g,5d5ff4697721bf0015083888,2021-09-08_15h12.56.415,forced_choiceRT,2021.1.2,Win32,59.88023952,,,,,,,,9,Fast,g,1,1.755,6,0,24,1,1,,,,,
,0.21,,,,,,,,,h.PNG,h,5d5ff4697721bf0015083888,2021-09-08_15h12.56.415,forced_choiceRT,2021.1.2,Win32,59.88023952,,,,,,,,9,Fast,h,1,1.787,6,1,25,2,1,,,,,
,1.74,,,,,,,,,h.PNG,h,5d5ff4697721bf0015083888,2021-09-08_15h12.56.415,forced_choiceRT,2021.1.2,Win32,59.88023952,,,,,,,,9,Ontime,j,0,2.089,6,2,26,2,1,,,,,
,1.53,,,,,,,,,h.PNG,h,5d5ff4697721bf0015083888,2021-09-08_15h12.56.415,forced_choiceRT,2021.1.2,Win32,59.88023952,,,,,,,,9,Ontime,h,1,1.976,6,3,27,2,1,,,,,
,1.28,,,,,,,,,j.PNG,j,5d5ff4697721bf0015083888,2021-09-08_15h12.56.415,forced_choiceRT,2021.1.2,Win32,59.88023952,,,,,,,,9,Ontime,j,1,1.919,7,0,28,3,1,,,,,
,0.22,,,,,,,,,f.PNG,f,5d5ff4697721bf0015083888,2021-09-08_15h12.56.415,forced_choiceRT,2021.1.2,Win32,59.88023952,,,,,,,,9,Fast,f,1,1.82,7,1,29,0,1,,,,,
,1.04,,,,,,,,,f.PNG,f,5d5ff4697721bf0015083888,2021-09-08_15h12.56.415,forced_choiceRT,2021.1.2,Win32,59.88023952,,,,,,,,9,Ontime,f,1,2.004,7,2,30,0,1,,,,,
,0.04,,,,,,,,,f.PNG,f,5d5ff4697721bf0015083888,2021-09-08_15h12.56.415,forced_choiceRT,2021.1.2,Win32,59.88023952,,,,,,,,9,Fast,f,1,1.739,7,3,31,0,1,,,,,
,1.44,,,,,,,,,g.PNG,g,5d5ff4697721bf0015083888,2021-09-08_15h12.56.415,forced_choiceRT,2021.1.2,Win32,59.88023952,,,,,,,,9,Ontime,g,1,2.021,8,0,32,1,1,,,,,
,0.91,,,,,,,,,f.PNG,f,5d5ff4697721bf0015083888,2021-09-08_15h12.56.415,forced_choiceRT,2021.1.2,Win32,59.88023952,,,,,,,,9,Fast,f,1,1.853,8,1,33,0,1,,,,,
,0.7,,,,,,,,,h.PNG,h,5d5ff4697721bf0015083888,2021-09-08_15h12.56.415,forced_choiceRT,2021.1.2,Win32,59.88023952,,,,,,,,9,Slow,h,1,2.186,8,2,34,2,1,,,,,
,1.64,,,,,,,,,h.PNG,h,5d5ff4697721bf0015083888,2021-09-08_15h12.56.415,forced_choiceRT,2021.1.2,Win32,59.88023952,,,,,,,,9,Slow,h,1,2.238,8,3,35,2,1,,,,,
,1.59,,,,,,,,,j.PNG,j,5d5ff4697721bf0015083888,2021-09-08_15h12.56.415,forced_choiceRT,2021.1.2,Win32,59.88023952,,,,,,,,9,Fast,h,0,1.874,9,0,36,3,1,,,,,
,0.83,,,,,,,,,f.PNG,f,5d5ff4697721bf0015083888,2021-09-08_15h12.56.415,forced_choiceRT,2021.1.2,Win32,59.88023952,,,,,,,,9,Fast,f,1,1.803,9,1,37,0,1,,,,,
,0.89,,,,,,,,,j.PNG,j,5d5ff4697721bf0015083888,2021-09-08_15h12.56.415,forced_choiceRT,2021.1.2,Win32,59.88023952,,,,,,,,9,Fast,j,1,1.788,9,2,38,3,1,,,,,
,0.71,,,,,,,,,h.PNG,h,5d5ff4697721bf0015083888,2021-09-08_15h12.56.415,forced_choiceRT,2021.1.2,Win32,59.88023952,,,,,,,,9,Fast,h,1,1.837,9,3,39,2,1,,,,,
,,,,,,,,,,,,5d5ff4697721bf0015083888,2021-09-08_15h12.56.415,forced_choiceRT,2021.1.2,Win32,59.88023952,,,,,,,,,,,,,,,,,,8,0,8,0,1
,1.64,,,,,,,,,f.PNG,f,5d5ff4697721bf0015083888,2021-09-08_15h12.56.415,forced_choiceRT,2021.1.2,Win32,59.88023952,,,,,,,,10,Ontime,f,1,1.931,0,0,0,0,1,,,,,
,0.96,,,,,,,,,h.PNG,h,5d5ff4697721bf0015083888,2021-09-08_15h12.56.415,forced_choiceRT,2021.1.2,Win32,59.88023952,,,,,,,,10,Fast,h,1,1.67,0,1,1,2,1,,,,,
,0.01,,,,,,,,,h.PNG,h,5d5ff4697721bf0015083888,2021-09-08_15h12.56.415,forced_choiceRT,2021.1.2,Win32,59.88023952,,,,,,,,10,Fast,h,1,1.72,0,2,2,2,1,,,,,
,1.04,,,,,,,,,h.PNG,h,5d5ff4697721bf0015083888,2021-09-08_15h12.56.415,forced_choiceRT,2021.1.2,Win32,59.88023952,,,,,,,,10,Ontime,h,1,2.053,0,3,3,2,1,,,,,
,1.62,,,,,,,,,f.PNG,f,5d5ff4697721bf0015083888,2021-09-08_15h12.56.415,forced_choiceRT,2021.1.2,Win32,59.88023952,,,,,,,,10,Slow,f,1,2.136,1,0,4,0,1,,,,,
,0.1,,,,,,,,,h.PNG,h,5d5ff4697721bf0015083888,2021-09-08_15h12.56.415,forced_choiceRT,2021.1.2,Win32,59.88023952,,,,,,,,10,Fast,h,1,1.894,1,1,5,2,1,,,,,
,0.33,,,,,,,,,g.PNG,g,5d5ff4697721bf0015083888,2021-09-08_15h12.56.415,forced_choiceRT,2021.1.2,Win32,59.88023952,,,,,,,,10,Ontime,g,1,1.987,1,2,6,1,1,,,,,
,1.71,,,,,,,,,h.PNG,h,5d5ff4697721bf0015083888,2021-09-08_15h12.56.415,forced_choiceRT,2021.1.2,Win32,59.88023952,,,,,,,,10,Ontime,g,0,2.02,1,3,7,2,1,,,,,
,1.53,,,,,,,,,h.PNG,h,5d5ff4697721bf0015083888,2021-09-08_15h12.56.415,forced_choiceRT,2021.1.2,Win32,59.88023952,,,,,,,,10,Ontime,h,1,2.01,2,0,8,2,1,,,,,
,1.11,,,,,,,,,f.PNG,f,5d5ff4697721bf0015083888,2021-09-08_15h12.56.415,forced_choiceRT,2021.1.2,Win32,59.88023952,,,,,,,,10,Ontime,f,1,2.087,2,1,9,0,1,,,,,
,1.97,,,,,,,,,g.PNG,g,5d5ff4697721bf0015083888,2021-09-08_15h12.56.415,forced_choiceRT,2021.1.2,Win32,59.88023952,,,,,,,,10,Ontime,j,0,2.041,2,2,10,1,1,,,,,
,0.86,,,,,,,,,f.PNG,f,5d5ff4697721bf0015083888,2021-09-08_15h12.56.415,forced_choiceRT,2021.1.2,Win32,59.88023952,,,,,,,,10,Ontime,f,1,2.077,2,3,11,0,1,,,,,
,1.84,,,,,,,,,h.PNG,h,5d5ff4697721bf0015083888,2021-09-08_15h12.56.415,forced_choiceRT,2021.1.2,Win32,59.88023952,,,,,,,,10,Slow,h,1,2.191,3,0,12,2,1,,,,,
,0.43,,,,,,,,,j.PNG,j,5d5ff4697721bf0015083888,2021-09-08_15h12.56.415,forced_choiceRT,2021.1.2,Win32,59.88023952,,,,,,,,10,Fast,j,1,1.82,3,1,13,3,1,,,,,
,0.14,,,,,,,,,j.PNG,j,5d5ff4697721bf0015083888,2021-09-08_15h12.56.415,forced_choiceRT,2021.1.2,Win32,59.88023952,,,,,,,,10,Ontime,j,1,1.919,3,2,14,3,1,,,,,
,1.48,,,,,,,,,j.PNG,j,5d5ff4697721bf0015083888,2021-09-08_15h12.56.415,forced_choiceRT,2021.1.2,Win32,59.88023952,,,,,,,,10,Slow,j,1,2.223,3,3,15,3,1,,,,,
,0.05,,,,,,,,,h.PNG,h,5d5ff4697721bf0015083888,2021-09-08_15h12.56.415,forced_choiceRT,2021.1.2,Win32,59.88023952,,,,,,,,10,Ontime,h,1,2.022,4,0,16,2,1,,,,,
,0.03,,,,,,,,,g.PNG,g,5d5ff4697721bf0015083888,2021-09-08_15h12.56.415,forced_choiceRT,2021.1.2,Win32,59.88023952,,,,,,,,10,Fast,g,1,1.104,4,1,17,1,1,,,,,
,1.24,,,,,,,,,g.PNG,g,5d5ff4697721bf0015083888,2021-09-08_15h12.56.415,forced_choiceRT,2021.1.2,Win32,59.88023952,,,,,,,,10,Ontime,g,1,1.976,4,2,18,1,1,,,,,
,1.27,,,,,,,,,h.PNG,h,5d5ff4697721bf0015083888,2021-09-08_15h12.56.415,forced_choiceRT,2021.1.2,Win32,59.88023952,,,,,,,,10,Slow,h,1,2.104,4,3,19,2,1,,,,,
,1.55,,,,,,,,,j.PNG,j,5d5ff4697721bf0015083888,2021-09-08_15h12.56.415,forced_choiceRT,2021.1.2,Win32,59.88023952,,,,,,,,10,Ontime,j,1,2.005,5,0,20,3,1,,,,,
,0.81,,,,,,,,,f.PNG,f,5d5ff4697721bf0015083888,2021-09-08_15h12.56.415,forced_choiceRT,2021.1.2,Win32,59.88023952,,,,,,,,10,Ontime,f,1,2.071,5,1,21,0,1,,,,,
,0.78,,,,,,,,,j.PNG,j,5d5ff4697721bf0015083888,2021-09-08_15h12.56.415,forced_choiceRT,2021.1.2,Win32,59.88023952,,,,,,,,10,Ontime,j,1,1.976,5,2,22,3,1,,,,,
,0.6,,,,,,,,,j.PNG,j,5d5ff4697721bf0015083888,2021-09-08_15h12.56.415,forced_choiceRT,2021.1.2,Win32,59.88023952,,,,,,,,10,Slow,j,1,2.103,5,3,23,3,1,,,,,
,0.72,,,,,,,,,g.PNG,g,5d5ff4697721bf0015083888,2021-09-08_15h12.56.415,forced_choiceRT,2021.1.2,Win32,59.88023952,,,,,,,,10,Ontime,g,1,1.987,6,0,24,1,1,,,,,
,1.09,,,,,,,,,g.PNG,g,5d5ff4697721bf0015083888,2021-09-08_15h12.56.415,forced_choiceRT,2021.1.2,Win32,59.88023952,,,,,,,,10,Ontime,g,1,1.92,6,1,25,1,1,,,,,
,1.85,,,,,,,,,g.PNG,g,5d5ff4697721bf0015083888,2021-09-08_15h12.56.415,forced_choiceRT,2021.1.2,Win32,59.88023952,,,,,,,,10,Slow,g,1,2.104,6,2,26,1,1,,,,,
,0.56,,,,,,,,,g.PNG,g,5d5ff4697721bf0015083888,2021-09-08_15h12.56.415,forced_choiceRT,2021.1.2,Win32,59.88023952,,,,,,,,10,Ontime,g,1,2.02,6,3,27,1,1,,,,,
,1.39,,,,,,,,,f.PNG,f,5d5ff4697721bf0015083888,2021-09-08_15h12.56.415,forced_choiceRT,2021.1.2,Win32,59.88023952,,,,,,,,10,Ontime,f,1,2.004,7,0,28,0,1,,,,,
,0.31,,,,,,,,,f.PNG,f,5d5ff4697721bf0015083888,2021-09-08_15h12.56.415,forced_choiceRT,2021.1.2,Win32,59.88023952,,,,,,,,10,Ontime,f,1,2.019,7,1,29,0,1,,,,,
,0.14,,,,,,,,,g.PNG,g,5d5ff4697721bf0015083888,2021-09-08_15h12.56.415,forced_choiceRT,2021.1.2,Win32,59.88023952,,,,,,,,10,Fast,g,1,1.757,7,2,30,1,1,,,,,
,1.06,,,,,,,,,f.PNG,f,5d5ff4697721bf0015083888,2021-09-08_15h12.56.415,forced_choiceRT,2021.1.2,Win32,59.88023952,,,,,,,,10,Ontime,f,1,2.042,7,3,31,0,1,,,,,
,0.89,,,,,,,,,f.PNG,f,5d5ff4697721bf0015083888,2021-09-08_15h12.56.415,forced_choiceRT,2021.1.2,Win32,59.88023952,,,,,,,,10,Ontime,f,1,1.986,8,0,32,0,1,,,,,
,1.22,,,,,,,,,g.PNG,g,5d5ff4697721bf0015083888,2021-09-08_15h12.56.415,forced_choiceRT,2021.1.2,Win32,59.88023952,,,,,,,,10,Ontime,g,1,2.087,8,1,33,1,1,,,,,
,1.02,,,,,,,,,j.PNG,j,5d5ff4697721bf0015083888,2021-09-08_15h12.56.415,forced_choiceRT,2021.1.2,Win32,59.88023952,,,,,,,,10,Fast,j,1,1.891,8,2,34,3,1,,,,,
,0.39,,,,,,,,,f.PNG,f,5d5ff4697721bf0015083888,2021-09-08_15h12.56.415,forced_choiceRT,2021.1.2,Win32,59.88023952,,,,,,,,10,Fast,f,1,1.854,8,3,35,0,1,,,,,
,1.17,,,,,,,,,h.PNG,h,5d5ff4697721bf0015083888,2021-09-08_15h12.56.415,forced_choiceRT,2021.1.2,Win32,59.88023952,,,,,,,,10,Ontime,h,1,2.036,9,0,36,2,1,,,,,
,1.27,,,,,,,,,j.PNG,j,5d5ff4697721bf0015083888,2021-09-08_15h12.56.415,forced_choiceRT,2021.1.2,Win32,59.88023952,,,,,,,,10,Ontime,j,1,2.039,9,1,37,3,1,,,,,
,1.36,,,,,,,,,j.PNG,j,5d5ff4697721bf0015083888,2021-09-08_15h12.56.415,forced_choiceRT,2021.1.2,Win32,59.88023952,,,,,,,,10,Ontime,j,1,2.087,9,2,38,3,1,,,,,
,0.77,,,,,,,,,j.PNG,j,5d5ff4697721bf0015083888,2021-09-08_15h12.56.415,forced_choiceRT,2021.1.2,Win32,59.88023952,,,,,,,,10,Ontime,j,1,2.06,9,3,39,3,1,,,,,
,,,,,,,,,,,,5d5ff4697721bf0015083888,2021-09-08_15h12.56.415,forced_choiceRT,2021.1.2,Win32,59.88023952,,,,,,,,,,,,,,,,,,9,0,9,0,1
