target_onset,trial_resp_sp.keys,trial_resp_sp.corr,trial_resp_sp.rt,trials_train_loop.thisRepN,trials_train_loop.thisTrialN,trials_train_loop.thisN,trials_train_loop.thisIndex,trials_train_loop.ran,pic,correct_key,participant,date,expName,psychopyVersion,OS,frameRate,trial_resp_timing.keys,trial_resp_timing.rt,trials_train_timing.thisRepN,trials_train_timing.thisTrialN,trials_train_timing.thisN,trials_train_timing.thisIndex,trials_train_timing.ran,block_id,ontime,forcedRT_resp.keys,forcedRT_resp.corr,forcedRT_resp.rt,trials.thisRepN,trials.thisTrialN,trials.thisN,trials.thisIndex,trials.ran,blocks.thisRepN,blocks.thisTrialN,blocks.thisN,blocks.thisIndex,blocks.ran
0,g,1,3.98,0,0,0,1,1,g.PNG,g,5da29f43e0e3c20012fd9d46,2021-09-08_14h56.21.964,forced_choiceRT,2021.1.2,Win32,60.0240096,,,,,,,,,,,,,,,,,,,,,,
0,f,1,1.536,0,1,1,0,1,f.PNG,f,5da29f43e0e3c20012fd9d46,2021-09-08_14h56.21.964,forced_choiceRT,2021.1.2,Win32,60.0240096,,,,,,,,,,,,,,,,,,,,,,
0,g,1,2.851,0,2,2,1,1,g.PNG,g,5da29f43e0e3c20012fd9d46,2021-09-08_14h56.21.964,forced_choiceRT,2021.1.2,Win32,60.0240096,,,,,,,,,,,,,,,,,,,,,,
0,j,1,0.818,0,3,3,3,1,j.PNG,j,5da29f43e0e3c20012fd9d46,2021-09-08_14h56.21.964,forced_choiceRT,2021.1.2,Win32,60.0240096,,,,,,,,,,,,,,,,,,,,,,
0,g,1,1.101,1,0,4,1,1,g.PNG,g,5da29f43e0e3c20012fd9d46,2021-09-08_14h56.21.964,forced_choiceRT,2021.1.2,Win32,60.0240096,,,,,,,,,,,,,,,,,,,,,,
0,g,1,0.637,1,1,5,1,1,g.PNG,g,5da29f43e0e3c20012fd9d46,2021-09-08_14h56.21.964,forced_choiceRT,2021.1.2,Win32,60.0240096,,,,,,,,,,,,,,,,,,,,,,
0,j,1,1.285,1,2,6,3,1,j.PNG,j,5da29f43e0e3c20012fd9d46,2021-09-08_14h56.21.964,forced_choiceRT,2021.1.2,Win32,60.0240096,,,,,,,,,,,,,,,,,,,,,,
0,j,1,0.602,1,3,7,3,1,j.PNG,j,5da29f43e0e3c20012fd9d46,2021-09-08_14h56.21.964,forced_choiceRT,2021.1.2,Win32,60.0240096,,,,,,,,,,,,,,,,,,,,,,
0,h,1,0.801,2,0,8,2,1,h.PNG,h,5da29f43e0e3c20012fd9d46,2021-09-08_14h56.21.964,forced_choiceRT,2021.1.2,Win32,60.0240096,,,,,,,,,,,,,,,,,,,,,,
0,j,1,1.801,2,1,9,3,1,j.PNG,j,5da29f43e0e3c20012fd9d46,2021-09-08_14h56.21.964,forced_choiceRT,2021.1.2,Win32,60.0240096,,,,,,,,,,,,,,,,,,,,,,
0,g,1,1.28,2,2,10,1,1,g.PNG,g,5da29f43e0e3c20012fd9d46,2021-09-08_14h56.21.964,forced_choiceRT,2021.1.2,Win32,60.0240096,,,,,,,,,,,,,,,,,,,,,,
0,g,1,1.017,2,3,11,1,1,g.PNG,g,5da29f43e0e3c20012fd9d46,2021-09-08_14h56.21.964,forced_choiceRT,2021.1.2,Win32,60.0240096,,,,,,,,,,,,,,,,,,,,,,
0,j,1,1.122,3,0,12,3,1,j.PNG,j,5da29f43e0e3c20012fd9d46,2021-09-08_14h56.21.964,forced_choiceRT,2021.1.2,Win32,60.0240096,,,,,,,,,,,,,,,,,,,,,,
0,h,1,1.137,3,1,13,2,1,h.PNG,h,5da29f43e0e3c20012fd9d46,2021-09-08_14h56.21.964,forced_choiceRT,2021.1.2,Win32,60.0240096,,,,,,,,,,,,,,,,,,,,,,
0,j,1,1.22,3,2,14,3,1,j.PNG,j,5da29f43e0e3c20012fd9d46,2021-09-08_14h56.21.964,forced_choiceRT,2021.1.2,Win32,60.0240096,,,,,,,,,,,,,,,,,,,,,,
0,j,1,0.601,3,3,15,3,1,j.PNG,j,5da29f43e0e3c20012fd9d46,2021-09-08_14h56.21.964,forced_choiceRT,2021.1.2,Win32,60.0240096,,,,,,,,,,,,,,,,,,,,,,
0,j,1,0.502,4,0,16,3,1,j.PNG,j,5da29f43e0e3c20012fd9d46,2021-09-08_14h56.21.964,forced_choiceRT,2021.1.2,Win32,60.0240096,,,,,,,,,,,,,,,,,,,,,,
0,f,1,1.052,4,1,17,0,1,f.PNG,f,5da29f43e0e3c20012fd9d46,2021-09-08_14h56.21.964,forced_choiceRT,2021.1.2,Win32,60.0240096,,,,,,,,,,,,,,,,,,,,,,
0,h,1,1.505,4,2,18,2,1,h.PNG,h,5da29f43e0e3c20012fd9d46,2021-09-08_14h56.21.964,forced_choiceRT,2021.1.2,Win32,60.0240096,,,,,,,,,,,,,,,,,,,,,,
0,g,1,1.117,4,3,19,1,1,g.PNG,g,5da29f43e0e3c20012fd9d46,2021-09-08_14h56.21.964,forced_choiceRT,2021.1.2,Win32,60.0240096,,,,,,,,,,,,,,,,,,,,,,
0,h,1,1.867,5,0,20,2,1,h.PNG,h,5da29f43e0e3c20012fd9d46,2021-09-08_14h56.21.964,forced_choiceRT,2021.1.2,Win32,60.0240096,,,,,,,,,,,,,,,,,,,,,,
0,g,0,0.668,5,1,21,0,1,f.PNG,f,5da29f43e0e3c20012fd9d46,2021-09-08_14h56.21.964,forced_choiceRT,2021.1.2,Win32,60.0240096,,,,,,,,,,,,,,,,,,,,,,
0,f,1,0.705,5,2,22,0,1,f.PNG,f,5da29f43e0e3c20012fd9d46,2021-09-08_14h56.21.964,forced_choiceRT,2021.1.2,Win32,60.0240096,,,,,,,,,,,,,,,,,,,,,,
0,g,1,1.035,5,3,23,1,1,g.PNG,g,5da29f43e0e3c20012fd9d46,2021-09-08_14h56.21.964,forced_choiceRT,2021.1.2,Win32,60.0240096,,,,,,,,,,,,,,,,,,,,,,
0,f,1,0.801,6,0,24,0,1,f.PNG,f,5da29f43e0e3c20012fd9d46,2021-09-08_14h56.21.964,forced_choiceRT,2021.1.2,Win32,60.0240096,,,,,,,,,,,,,,,,,,,,,,
0,h,1,1.116,6,1,25,2,1,h.PNG,h,5da29f43e0e3c20012fd9d46,2021-09-08_14h56.21.964,forced_choiceRT,2021.1.2,Win32,60.0240096,,,,,,,,,,,,,,,,,,,,,,
0,h,1,0.552,6,2,26,2,1,h.PNG,h,5da29f43e0e3c20012fd9d46,2021-09-08_14h56.21.964,forced_choiceRT,2021.1.2,Win32,60.0240096,,,,,,,,,,,,,,,,,,,,,,
0,j,1,1.051,6,3,27,3,1,j.PNG,j,5da29f43e0e3c20012fd9d46,2021-09-08_14h56.21.964,forced_choiceRT,2021.1.2,Win32,60.0240096,,,,,,,,,,,,,,,,,,,,,,
0,h,1,0.804,7,0,28,2,1,h.PNG,h,5da29f43e0e3c20012fd9d46,2021-09-08_14h56.21.964,forced_choiceRT,2021.1.2,Win32,60.0240096,,,,,,,,,,,,,,,,,,,,,,
0,f,1,0.923,7,1,29,0,1,f.PNG,f,5da29f43e0e3c20012fd9d46,2021-09-08_14h56.21.964,forced_choiceRT,2021.1.2,Win32,60.0240096,,,,,,,,,,,,,,,,,,,,,,
0,h,1,1.217,7,2,30,2,1,h.PNG,h,5da29f43e0e3c20012fd9d46,2021-09-08_14h56.21.964,forced_choiceRT,2021.1.2,Win32,60.0240096,,,,,,,,,,,,,,,,,,,,,,
0,h,1,0.535,7,3,31,2,1,h.PNG,h,5da29f43e0e3c20012fd9d46,2021-09-08_14h56.21.964,forced_choiceRT,2021.1.2,Win32,60.0240096,,,,,,,,,,,,,,,,,,,,,,
0,g,1,1.068,8,0,32,1,1,g.PNG,g,5da29f43e0e3c20012fd9d46,2021-09-08_14h56.21.964,forced_choiceRT,2021.1.2,Win32,60.0240096,,,,,,,,,,,,,,,,,,,,,,
0,h,1,1.701,8,1,33,2,1,h.PNG,h,5da29f43e0e3c20012fd9d46,2021-09-08_14h56.21.964,forced_choiceRT,2021.1.2,Win32,60.0240096,,,,,,,,,,,,,,,,,,,,,,
0,f,1,0.783,8,2,34,0,1,f.PNG,f,5da29f43e0e3c20012fd9d46,2021-09-08_14h56.21.964,forced_choiceRT,2021.1.2,Win32,60.0240096,,,,,,,,,,,,,,,,,,,,,,
0,f,1,0.552,8,3,35,0,1,f.PNG,f,5da29f43e0e3c20012fd9d46,2021-09-08_14h56.21.964,forced_choiceRT,2021.1.2,Win32,60.0240096,,,,,,,,,,,,,,,,,,,,,,
0,g,1,1.101,9,0,36,1,1,g.PNG,g,5da29f43e0e3c20012fd9d46,2021-09-08_14h56.21.964,forced_choiceRT,2021.1.2,Win32,60.0240096,,,,,,,,,,,,,,,,,,,,,,
0,h,1,1.351,9,1,37,2,1,h.PNG,h,5da29f43e0e3c20012fd9d46,2021-09-08_14h56.21.964,forced_choiceRT,2021.1.2,Win32,60.0240096,,,,,,,,,,,,,,,,,,,,,,
0,h,1,0.534,9,2,38,2,1,h.PNG,h,5da29f43e0e3c20012fd9d46,2021-09-08_14h56.21.964,forced_choiceRT,2021.1.2,Win32,60.0240096,,,,,,,,,,,,,,,,,,,,,,
0,g,1,0.767,9,3,39,1,1,g.PNG,g,5da29f43e0e3c20012fd9d46,2021-09-08_14h56.21.964,forced_choiceRT,2021.1.2,Win32,60.0240096,,,,,,,,,,,,,,,,,,,,,,
0,f,1,0.622,10,0,40,0,1,f.PNG,f,5da29f43e0e3c20012fd9d46,2021-09-08_14h56.21.964,forced_choiceRT,2021.1.2,Win32,60.0240096,,,,,,,,,,,,,,,,,,,,,,
0,h,1,1.39,10,1,41,2,1,h.PNG,h,5da29f43e0e3c20012fd9d46,2021-09-08_14h56.21.964,forced_choiceRT,2021.1.2,Win32,60.0240096,,,,,,,,,,,,,,,,,,,,,,
0,h,1,0.519,10,2,42,2,1,h.PNG,h,5da29f43e0e3c20012fd9d46,2021-09-08_14h56.21.964,forced_choiceRT,2021.1.2,Win32,60.0240096,,,,,,,,,,,,,,,,,,,,,,
0,f,1,0.871,10,3,43,0,1,f.PNG,f,5da29f43e0e3c20012fd9d46,2021-09-08_14h56.21.964,forced_choiceRT,2021.1.2,Win32,60.0240096,,,,,,,,,,,,,,,,,,,,,,
0,j,1,0.902,11,0,44,3,1,j.PNG,j,5da29f43e0e3c20012fd9d46,2021-09-08_14h56.21.964,forced_choiceRT,2021.1.2,Win32,60.0240096,,,,,,,,,,,,,,,,,,,,,,
0,f,1,0.746,11,1,45,0,1,f.PNG,f,5da29f43e0e3c20012fd9d46,2021-09-08_14h56.21.964,forced_choiceRT,2021.1.2,Win32,60.0240096,,,,,,,,,,,,,,,,,,,,,,
0,j,1,0.984,11,2,46,3,1,j.PNG,j,5da29f43e0e3c20012fd9d46,2021-09-08_14h56.21.964,forced_choiceRT,2021.1.2,Win32,60.0240096,,,,,,,,,,,,,,,,,,,,,,
0,j,1,0.57,11,3,47,3,1,j.PNG,j,5da29f43e0e3c20012fd9d46,2021-09-08_14h56.21.964,forced_choiceRT,2021.1.2,Win32,60.0240096,,,,,,,,,,,,,,,,,,,,,,
0,g,1,1.001,12,0,48,1,1,g.PNG,g,5da29f43e0e3c20012fd9d46,2021-09-08_14h56.21.964,forced_choiceRT,2021.1.2,Win32,60.0240096,,,,,,,,,,,,,,,,,,,,,,
0,j,1,0.762,12,1,49,3,1,j.PNG,j,5da29f43e0e3c20012fd9d46,2021-09-08_14h56.21.964,forced_choiceRT,2021.1.2,Win32,60.0240096,,,,,,,,,,,,,,,,,,,,,,
0,g,1,0.92,12,2,50,1,1,g.PNG,g,5da29f43e0e3c20012fd9d46,2021-09-08_14h56.21.964,forced_choiceRT,2021.1.2,Win32,60.0240096,,,,,,,,,,,,,,,,,,,,,,
0,h,1,1.185,12,3,51,2,1,h.PNG,h,5da29f43e0e3c20012fd9d46,2021-09-08_14h56.21.964,forced_choiceRT,2021.1.2,Win32,60.0240096,,,,,,,,,,,,,,,,,,,,,,
0,f,1,0.669,13,0,52,0,1,f.PNG,f,5da29f43e0e3c20012fd9d46,2021-09-08_14h56.21.964,forced_choiceRT,2021.1.2,Win32,60.0240096,,,,,,,,,,,,,,,,,,,,,,
0,f,1,0.552,13,1,53,0,1,f.PNG,f,5da29f43e0e3c20012fd9d46,2021-09-08_14h56.21.964,forced_choiceRT,2021.1.2,Win32,60.0240096,,,,,,,,,,,,,,,,,,,,,,
0,g,1,0.802,13,2,54,1,1,g.PNG,g,5da29f43e0e3c20012fd9d46,2021-09-08_14h56.21.964,forced_choiceRT,2021.1.2,Win32,60.0240096,,,,,,,,,,,,,,,,,,,,,,
0,g,1,0.668,13,3,55,1,1,g.PNG,g,5da29f43e0e3c20012fd9d46,2021-09-08_14h56.21.964,forced_choiceRT,2021.1.2,Win32,60.0240096,,,,,,,,,,,,,,,,,,,,,,
0,j,1,0.621,14,0,56,3,1,j.PNG,j,5da29f43e0e3c20012fd9d46,2021-09-08_14h56.21.964,forced_choiceRT,2021.1.2,Win32,60.0240096,,,,,,,,,,,,,,,,,,,,,,
0,j,1,0.501,14,1,57,3,1,j.PNG,j,5da29f43e0e3c20012fd9d46,2021-09-08_14h56.21.964,forced_choiceRT,2021.1.2,Win32,60.0240096,,,,,,,,,,,,,,,,,,,,,,
0,f,1,0.701,14,2,58,0,1,f.PNG,f,5da29f43e0e3c20012fd9d46,2021-09-08_14h56.21.964,forced_choiceRT,2021.1.2,Win32,60.0240096,,,,,,,,,,,,,,,,,,,,,,
0,f,1,0.521,14,3,59,0,1,f.PNG,f,5da29f43e0e3c20012fd9d46,2021-09-08_14h56.21.964,forced_choiceRT,2021.1.2,Win32,60.0240096,,,,,,,,,,,,,,,,,,,,,,
,,,,,,,,,,,5da29f43e0e3c20012fd9d46,2021-09-08_14h56.21.964,forced_choiceRT,2021.1.2,Win32,60.0240096,h,2.435,0,0,0,0,1,,,,,,,,,,,,,,,
,,,,,,,,,,,5da29f43e0e3c20012fd9d46,2021-09-08_14h56.21.964,forced_choiceRT,2021.1.2,Win32,60.0240096,g,2.088,1,0,1,0,1,,,,,,,,,,,,,,,
,,,,,,,,,,,5da29f43e0e3c20012fd9d46,2021-09-08_14h56.21.964,forced_choiceRT,2021.1.2,Win32,60.0240096,h,2.167,2,0,2,0,1,,,,,,,,,,,,,,,
,,,,,,,,,,,5da29f43e0e3c20012fd9d46,2021-09-08_14h56.21.964,forced_choiceRT,2021.1.2,Win32,60.0240096,h,2.112,3,0,3,0,1,,,,,,,,,,,,,,,
,,,,,,,,,,,5da29f43e0e3c20012fd9d46,2021-09-08_14h56.21.964,forced_choiceRT,2021.1.2,Win32,60.0240096,j,2.255,4,0,4,0,1,,,,,,,,,,,,,,,
,,,,,,,,,,,5da29f43e0e3c20012fd9d46,2021-09-08_14h56.21.964,forced_choiceRT,2021.1.2,Win32,60.0240096,h,2.035,5,0,5,0,1,,,,,,,,,,,,,,,
,,,,,,,,,,,5da29f43e0e3c20012fd9d46,2021-09-08_14h56.21.964,forced_choiceRT,2021.1.2,Win32,60.0240096,j,2.019,6,0,6,0,1,,,,,,,,,,,,,,,
,,,,,,,,,,,5da29f43e0e3c20012fd9d46,2021-09-08_14h56.21.964,forced_choiceRT,2021.1.2,Win32,60.0240096,f,2.018,7,0,7,0,1,,,,,,,,,,,,,,,
,,,,,,,,,,,5da29f43e0e3c20012fd9d46,2021-09-08_14h56.21.964,forced_choiceRT,2021.1.2,Win32,60.0240096,g,2.051,8,0,8,0,1,,,,,,,,,,,,,,,
,,,,,,,,,,,5da29f43e0e3c20012fd9d46,2021-09-08_14h56.21.964,forced_choiceRT,2021.1.2,Win32,60.0240096,h,1.968,9,0,9,0,1,,,,,,,,,,,,,,,
,,,,,,,,,,,5da29f43e0e3c20012fd9d46,2021-09-08_14h56.21.964,forced_choiceRT,2021.1.2,Win32,60.0240096,j,2.068,10,0,10,0,1,,,,,,,,,,,,,,,
,,,,,,,,,,,5da29f43e0e3c20012fd9d46,2021-09-08_14h56.21.964,forced_choiceRT,2021.1.2,Win32,60.0240096,h,2.07,11,0,11,0,1,,,,,,,,,,,,,,,
,,,,,,,,,,,5da29f43e0e3c20012fd9d46,2021-09-08_14h56.21.964,forced_choiceRT,2021.1.2,Win32,60.0240096,g,1.984,12,0,12,0,1,,,,,,,,,,,,,,,
,,,,,,,,,,,5da29f43e0e3c20012fd9d46,2021-09-08_14h56.21.964,forced_choiceRT,2021.1.2,Win32,60.0240096,f,2.069,13,0,13,0,1,,,,,,,,,,,,,,,
,,,,,,,,,,,5da29f43e0e3c20012fd9d46,2021-09-08_14h56.21.964,forced_choiceRT,2021.1.2,Win32,60.0240096,g,2.051,14,0,14,0,1,,,,,,,,,,,,,,,
,,,,,,,,,,,5da29f43e0e3c20012fd9d46,2021-09-08_14h56.21.964,forced_choiceRT,2021.1.2,Win32,60.0240096,g,2.034,15,0,15,0,1,,,,,,,,,,,,,,,
,,,,,,,,,,,5da29f43e0e3c20012fd9d46,2021-09-08_14h56.21.964,forced_choiceRT,2021.1.2,Win32,60.0240096,g,2.034,16,0,16,0,1,,,,,,,,,,,,,,,
,,,,,,,,,,,5da29f43e0e3c20012fd9d46,2021-09-08_14h56.21.964,forced_choiceRT,2021.1.2,Win32,60.0240096,f,2.051,17,0,17,0,1,,,,,,,,,,,,,,,
,,,,,,,,,,,5da29f43e0e3c20012fd9d46,2021-09-08_14h56.21.964,forced_choiceRT,2021.1.2,Win32,60.0240096,h,2.037,18,0,18,0,1,,,,,,,,,,,,,,,
,,,,,,,,,,,5da29f43e0e3c20012fd9d46,2021-09-08_14h56.21.964,forced_choiceRT,2021.1.2,Win32,60.0240096,j,2.118,19,0,19,0,1,,,,,,,,,,,,,,,
0.81,,,,,,,,,j.PNG,j,5da29f43e0e3c20012fd9d46,2021-09-08_14h56.21.964,forced_choiceRT,2021.1.2,Win32,60.0240096,,,,,,,,1,Slow,j,1,2.286,0,0,0,3,1,,,,,
0.44,,,,,,,,,j.PNG,j,5da29f43e0e3c20012fd9d46,2021-09-08_14h56.21.964,forced_choiceRT,2021.1.2,Win32,60.0240096,,,,,,,,1,Fast,j,1,1.899,0,1,1,3,1,,,,,
0.38,,,,,,,,,f.PNG,f,5da29f43e0e3c20012fd9d46,2021-09-08_14h56.21.964,forced_choiceRT,2021.1.2,Win32,60.0240096,,,,,,,,1,Ontime,f,1,2.038,0,2,2,0,1,,,,,
0.01,,,,,,,,,g.PNG,g,5da29f43e0e3c20012fd9d46,2021-09-08_14h56.21.964,forced_choiceRT,2021.1.2,Win32,60.0240096,,,,,,,,1,Ontime,g,1,1.968,0,3,3,1,1,,,,,
1.27,,,,,,,,,h.PNG,h,5da29f43e0e3c20012fd9d46,2021-09-08_14h56.21.964,forced_choiceRT,2021.1.2,Win32,60.0240096,,,,,,,,1,Ontime,h,1,2.055,1,0,4,2,1,,,,,
0.8,,,,,,,,,f.PNG,f,5da29f43e0e3c20012fd9d46,2021-09-08_14h56.21.964,forced_choiceRT,2021.1.2,Win32,60.0240096,,,,,,,,1,Ontime,f,1,1.983,1,1,5,0,1,,,,,
0.23,,,,,,,,,g.PNG,g,5da29f43e0e3c20012fd9d46,2021-09-08_14h56.21.964,forced_choiceRT,2021.1.2,Win32,60.0240096,,,,,,,,1,Ontime,g,1,2.016,1,2,6,1,1,,,,,
1.77,,,,,,,,,j.PNG,j,5da29f43e0e3c20012fd9d46,2021-09-08_14h56.21.964,forced_choiceRT,2021.1.2,Win32,60.0240096,,,,,,,,1,Slow,j,1,2.411,1,3,7,3,1,,,,,
1.1,,,,,,,,,f.PNG,f,5da29f43e0e3c20012fd9d46,2021-09-08_14h56.21.964,forced_choiceRT,2021.1.2,Win32,60.0240096,,,,,,,,1,Ontime,f,1,2.001,2,0,8,0,1,,,,,
1.08,,,,,,,,,j.PNG,j,5da29f43e0e3c20012fd9d46,2021-09-08_14h56.21.964,forced_choiceRT,2021.1.2,Win32,60.0240096,,,,,,,,1,Ontime,j,1,1.971,2,1,9,3,1,,,,,
1.59,,,,,,,,,g.PNG,g,5da29f43e0e3c20012fd9d46,2021-09-08_14h56.21.964,forced_choiceRT,2021.1.2,Win32,60.0240096,,,,,,,,1,Slow,g,1,2.168,2,2,10,1,1,,,,,
1.42,,,,,,,,,f.PNG,f,5da29f43e0e3c20012fd9d46,2021-09-08_14h56.21.964,forced_choiceRT,2021.1.2,Win32,60.0240096,,,,,,,,1,Ontime,f,1,1.984,2,3,11,0,1,,,,,
0.55,,,,,,,,,j.PNG,j,5da29f43e0e3c20012fd9d46,2021-09-08_14h56.21.964,forced_choiceRT,2021.1.2,Win32,60.0240096,,,,,,,,1,Ontime,j,1,2.034,3,0,12,3,1,,,,,
1.55,,,,,,,,,h.PNG,h,5da29f43e0e3c20012fd9d46,2021-09-08_14h56.21.964,forced_choiceRT,2021.1.2,Win32,60.0240096,,,,,,,,1,Slow,h,1,2.173,3,1,13,2,1,,,,,
1.4,,,,,,,,,g.PNG,g,5da29f43e0e3c20012fd9d46,2021-09-08_14h56.21.964,forced_choiceRT,2021.1.2,Win32,60.0240096,,,,,,,,1,Ontime,g,1,2.034,3,2,14,1,1,,,,,
1.31,,,,,,,,,h.PNG,h,5da29f43e0e3c20012fd9d46,2021-09-08_14h56.21.964,forced_choiceRT,2021.1.2,Win32,60.0240096,,,,,,,,1,Slow,h,1,2.168,3,3,15,2,1,,,,,
0.1,,,,,,,,,h.PNG,h,5da29f43e0e3c20012fd9d46,2021-09-08_14h56.21.964,forced_choiceRT,2021.1.2,Win32,60.0240096,,,,,,,,1,Ontime,h,1,1.984,4,0,16,2,1,,,,,
0.42,,,,,,,,,h.PNG,h,5da29f43e0e3c20012fd9d46,2021-09-08_14h56.21.964,forced_choiceRT,2021.1.2,Win32,60.0240096,,,,,,,,1,Ontime,h,1,1.968,4,1,17,2,1,,,,,
1.9,,,,,,,,,f.PNG,f,5da29f43e0e3c20012fd9d46,2021-09-08_14h56.21.964,forced_choiceRT,2021.1.2,Win32,60.0240096,,,,,,,,1,Slow,h,0,5.034,4,2,18,0,1,,,,,
0.25,,,,,,,,,f.PNG,f,5da29f43e0e3c20012fd9d46,2021-09-08_14h56.21.964,forced_choiceRT,2021.1.2,Win32,60.0240096,,,,,,,,1,Ontime,f,1,1.968,4,3,19,0,1,,,,,
0.1,,,,,,,,,h.PNG,h,5da29f43e0e3c20012fd9d46,2021-09-08_14h56.21.964,forced_choiceRT,2021.1.2,Win32,60.0240096,,,,,,,,1,Ontime,h,1,2.002,5,0,20,2,1,,,,,
0.69,,,,,,,,,j.PNG,j,5da29f43e0e3c20012fd9d46,2021-09-08_14h56.21.964,forced_choiceRT,2021.1.2,Win32,60.0240096,,,,,,,,1,Ontime,j,1,1.933,5,1,21,3,1,,,,,
1.64,,,,,,,,,g.PNG,g,5da29f43e0e3c20012fd9d46,2021-09-08_14h56.21.964,forced_choiceRT,2021.1.2,Win32,60.0240096,,,,,,,,1,Ontime,h,0,2.088,5,2,22,1,1,,,,,
1.21,,,,,,,,,f.PNG,f,5da29f43e0e3c20012fd9d46,2021-09-08_14h56.21.964,forced_choiceRT,2021.1.2,Win32,60.0240096,,,,,,,,1,Ontime,f,1,1.917,5,3,23,0,1,,,,,
0.34,,,,,,,,,j.PNG,j,5da29f43e0e3c20012fd9d46,2021-09-08_14h56.21.964,forced_choiceRT,2021.1.2,Win32,60.0240096,,,,,,,,1,Ontime,j,1,2.05,6,0,24,3,1,,,,,
0.13,,,,,,,,,j.PNG,j,5da29f43e0e3c20012fd9d46,2021-09-08_14h56.21.964,forced_choiceRT,2021.1.2,Win32,60.0240096,,,,,,,,1,Ontime,j,1,1.968,6,1,25,3,1,,,,,
0.09,,,,,,,,,g.PNG,g,5da29f43e0e3c20012fd9d46,2021-09-08_14h56.21.964,forced_choiceRT,2021.1.2,Win32,60.0240096,,,,,,,,1,Ontime,g,1,1.966,6,2,26,1,1,,,,,
0.92,,,,,,,,,h.PNG,h,5da29f43e0e3c20012fd9d46,2021-09-08_14h56.21.964,forced_choiceRT,2021.1.2,Win32,60.0240096,,,,,,,,1,Slow,h,1,2.117,6,3,27,2,1,,,,,
1.01,,,,,,,,,g.PNG,g,5da29f43e0e3c20012fd9d46,2021-09-08_14h56.21.964,forced_choiceRT,2021.1.2,Win32,60.0240096,,,,,,,,1,Ontime,g,1,1.94,7,0,28,1,1,,,,,
1.7,,,,,,,,,g.PNG,g,5da29f43e0e3c20012fd9d46,2021-09-08_14h56.21.964,forced_choiceRT,2021.1.2,Win32,60.0240096,,,,,,,,1,Slow,g,1,2.217,7,1,29,1,1,,,,,
0.04,,,,,,,,,f.PNG,f,5da29f43e0e3c20012fd9d46,2021-09-08_14h56.21.964,forced_choiceRT,2021.1.2,Win32,60.0240096,,,,,,,,1,Fast,f,1,1.888,7,2,30,0,1,,,,,
1.76,,,,,,,,,h.PNG,h,5da29f43e0e3c20012fd9d46,2021-09-08_14h56.21.964,forced_choiceRT,2021.1.2,Win32,60.0240096,,,,,,,,1,Slow,g,0,2.188,7,3,31,2,1,,,,,
0.26,,,,,,,,,f.PNG,f,5da29f43e0e3c20012fd9d46,2021-09-08_14h56.21.964,forced_choiceRT,2021.1.2,Win32,60.0240096,,,,,,,,1,Ontime,f,1,1.968,8,0,32,0,1,,,,,
0.2,,,,,,,,,f.PNG,f,5da29f43e0e3c20012fd9d46,2021-09-08_14h56.21.964,forced_choiceRT,2021.1.2,Win32,60.0240096,,,,,,,,1,Slow,f,1,2.103,8,1,33,0,1,,,,,
1.86,,,,,,,,,j.PNG,j,5da29f43e0e3c20012fd9d46,2021-09-08_14h56.21.964,forced_choiceRT,2021.1.2,Win32,60.0240096,,,,,,,,1,Slow,g,0,2.1,8,2,34,3,1,,,,,
0.14,,,,,,,,,g.PNG,g,5da29f43e0e3c20012fd9d46,2021-09-08_14h56.21.964,forced_choiceRT,2021.1.2,Win32,60.0240096,,,,,,,,1,Ontime,g,1,1.901,8,3,35,1,1,,,,,
0.08,,,,,,,,,h.PNG,h,5da29f43e0e3c20012fd9d46,2021-09-08_14h56.21.964,forced_choiceRT,2021.1.2,Win32,60.0240096,,,,,,,,1,Ontime,h,1,1.918,9,0,36,2,1,,,,,
0.1,,,,,,,,,g.PNG,g,5da29f43e0e3c20012fd9d46,2021-09-08_14h56.21.964,forced_choiceRT,2021.1.2,Win32,60.0240096,,,,,,,,1,Fast,g,1,1.854,9,1,37,1,1,,,,,
1.28,,,,,,,,,h.PNG,h,5da29f43e0e3c20012fd9d46,2021-09-08_14h56.21.964,forced_choiceRT,2021.1.2,Win32,60.0240096,,,,,,,,1,Ontime,h,1,2.018,9,2,38,2,1,,,,,
0.46,,,,,,,,,j.PNG,j,5da29f43e0e3c20012fd9d46,2021-09-08_14h56.21.964,forced_choiceRT,2021.1.2,Win32,60.0240096,,,,,,,,1,Ontime,j,1,2.035,9,3,39,3,1,,,,,
,,,,,,,,,,,5da29f43e0e3c20012fd9d46,2021-09-08_14h56.21.964,forced_choiceRT,2021.1.2,Win32,60.0240096,,,,,,,,,,,,,,,,,,0,0,0,0,1
0.05,,,,,,,,,f.PNG,f,5da29f43e0e3c20012fd9d46,2021-09-08_14h56.21.964,forced_choiceRT,2021.1.2,Win32,60.0240096,,,,,,,,2,Fast,f,1,0.745,0,0,0,0,1,,,,,
1.48,,,,,,,,,g.PNG,g,5da29f43e0e3c20012fd9d46,2021-09-08_14h56.21.964,forced_choiceRT,2021.1.2,Win32,60.0240096,,,,,,,,2,Ontime,g,1,2.023,0,1,1,1,1,,,,,
0.74,,,,,,,,,h.PNG,h,5da29f43e0e3c20012fd9d46,2021-09-08_14h56.21.964,forced_choiceRT,2021.1.2,Win32,60.0240096,,,,,,,,2,Ontime,h,1,1.987,0,2,2,2,1,,,,,
0.26,,,,,,,,,h.PNG,h,5da29f43e0e3c20012fd9d46,2021-09-08_14h56.21.964,forced_choiceRT,2021.1.2,Win32,60.0240096,,,,,,,,2,Ontime,h,1,1.984,0,3,3,2,1,,,,,
0.06,,,,,,,,,f.PNG,f,5da29f43e0e3c20012fd9d46,2021-09-08_14h56.21.964,forced_choiceRT,2021.1.2,Win32,60.0240096,,,,,,,,2,Ontime,f,1,1.969,1,0,4,0,1,,,,,
0.41,,,,,,,,,j.PNG,j,5da29f43e0e3c20012fd9d46,2021-09-08_14h56.21.964,forced_choiceRT,2021.1.2,Win32,60.0240096,,,,,,,,2,Ontime,j,1,2.002,1,1,5,3,1,,,,,
1.88,,,,,,,,,f.PNG,f,5da29f43e0e3c20012fd9d46,2021-09-08_14h56.21.964,forced_choiceRT,2021.1.2,Win32,60.0240096,,,,,,,,2,Slow,h,0,2.252,1,2,6,0,1,,,,,
1.09,,,,,,,,,f.PNG,f,5da29f43e0e3c20012fd9d46,2021-09-08_14h56.21.964,forced_choiceRT,2021.1.2,Win32,60.0240096,,,,,,,,2,Ontime,f,1,1.938,1,3,7,0,1,,,,,
0.79,,,,,,,,,g.PNG,g,5da29f43e0e3c20012fd9d46,2021-09-08_14h56.21.964,forced_choiceRT,2021.1.2,Win32,60.0240096,,,,,,,,2,Fast,g,1,1.884,2,0,8,1,1,,,,,
1.01,,,,,,,,,g.PNG,g,5da29f43e0e3c20012fd9d46,2021-09-08_14h56.21.964,forced_choiceRT,2021.1.2,Win32,60.0240096,,,,,,,,2,Fast,g,1,1.848,2,1,9,1,1,,,,,
0.67,,,,,,,,,g.PNG,g,5da29f43e0e3c20012fd9d46,2021-09-08_14h56.21.964,forced_choiceRT,2021.1.2,Win32,60.0240096,,,,,,,,2,Ontime,g,1,1.957,2,2,10,1,1,,,,,
0.17,,,,,,,,,j.PNG,j,5da29f43e0e3c20012fd9d46,2021-09-08_14h56.21.964,forced_choiceRT,2021.1.2,Win32,60.0240096,,,,,,,,2,Ontime,j,1,1.984,2,3,11,3,1,,,,,
0.55,,,,,,,,,f.PNG,f,5da29f43e0e3c20012fd9d46,2021-09-08_14h56.21.964,forced_choiceRT,2021.1.2,Win32,60.0240096,,,,,,,,2,Ontime,f,1,2.002,3,0,12,0,1,,,,,
0.78,,,,,,,,,g.PNG,g,5da29f43e0e3c20012fd9d46,2021-09-08_14h56.21.964,forced_choiceRT,2021.1.2,Win32,60.0240096,,,,,,,,2,Fast,g,1,1.852,3,1,13,1,1,,,,,
1.4,,,,,,,,,h.PNG,h,5da29f43e0e3c20012fd9d46,2021-09-08_14h56.21.964,forced_choiceRT,2021.1.2,Win32,60.0240096,,,,,,,,2,Ontime,h,1,2.017,3,2,14,2,1,,,,,
0.98,,,,,,,,,g.PNG,g,5da29f43e0e3c20012fd9d46,2021-09-08_14h56.21.964,forced_choiceRT,2021.1.2,Win32,60.0240096,,,,,,,,2,Ontime,g,1,2.002,3,3,15,1,1,,,,,
1.69,,,,,,,,,j.PNG,j,5da29f43e0e3c20012fd9d46,2021-09-08_14h56.21.964,forced_choiceRT,2021.1.2,Win32,60.0240096,,,,,,,,2,Slow,g,0,2.2,4,0,16,3,1,,,,,
1.96,,,,,,,,,j.PNG,j,5da29f43e0e3c20012fd9d46,2021-09-08_14h56.21.964,forced_choiceRT,2021.1.2,Win32,60.0240096,,,,,,,,2,Slow,j,1,2.168,4,1,17,3,1,,,,,
0.51,,,,,,,,,f.PNG,f,5da29f43e0e3c20012fd9d46,2021-09-08_14h56.21.964,forced_choiceRT,2021.1.2,Win32,60.0240096,,,,,,,,2,Fast,f,1,1.872,4,2,18,0,1,,,,,
1.11,,,,,,,,,h.PNG,h,5da29f43e0e3c20012fd9d46,2021-09-08_14h56.21.964,forced_choiceRT,2021.1.2,Win32,60.0240096,,,,,,,,2,Ontime,h,1,1.937,4,3,19,2,1,,,,,
0.67,,,,,,,,,g.PNG,g,5da29f43e0e3c20012fd9d46,2021-09-08_14h56.21.964,forced_choiceRT,2021.1.2,Win32,60.0240096,,,,,,,,2,Ontime,g,1,1.934,5,0,20,1,1,,,,,
0.15,,,,,,,,,g.PNG,g,5da29f43e0e3c20012fd9d46,2021-09-08_14h56.21.964,forced_choiceRT,2021.1.2,Win32,60.0240096,,,,,,,,2,Ontime,g,1,1.905,5,1,21,1,1,,,,,
1.37,,,,,,,,,j.PNG,j,5da29f43e0e3c20012fd9d46,2021-09-08_14h56.21.964,forced_choiceRT,2021.1.2,Win32,60.0240096,,,,,,,,2,Ontime,g,0,1.955,5,2,22,3,1,,,,,
1.82,,,,,,,,,f.PNG,f,5da29f43e0e3c20012fd9d46,2021-09-08_14h56.21.964,forced_choiceRT,2021.1.2,Win32,60.0240096,,,,,,,,2,Ontime,h,0,2.017,5,3,23,0,1,,,,,
0.41,,,,,,,,,f.PNG,f,5da29f43e0e3c20012fd9d46,2021-09-08_14h56.21.964,forced_choiceRT,2021.1.2,Win32,60.0240096,,,,,,,,2,Ontime,f,1,1.918,6,0,24,0,1,,,,,
1.34,,,,,,,,,j.PNG,j,5da29f43e0e3c20012fd9d46,2021-09-08_14h56.21.964,forced_choiceRT,2021.1.2,Win32,60.0240096,,,,,,,,2,Ontime,j,1,2.052,6,1,25,3,1,,,,,
0.12,,,,,,,,,h.PNG,h,5da29f43e0e3c20012fd9d46,2021-09-08_14h56.21.964,forced_choiceRT,2021.1.2,Win32,60.0240096,,,,,,,,2,Ontime,h,1,1.985,6,2,26,2,1,,,,,
1.57,,,,,,,,,j.PNG,j,5da29f43e0e3c20012fd9d46,2021-09-08_14h56.21.964,forced_choiceRT,2021.1.2,Win32,60.0240096,,,,,,,,2,Slow,j,1,2.184,6,3,27,3,1,,,,,
0.12,,,,,,,,,h.PNG,h,5da29f43e0e3c20012fd9d46,2021-09-08_14h56.21.964,forced_choiceRT,2021.1.2,Win32,60.0240096,,,,,,,,2,Ontime,h,1,1.951,7,0,28,2,1,,,,,
1.89,,,,,,,,,g.PNG,g,5da29f43e0e3c20012fd9d46,2021-09-08_14h56.21.964,forced_choiceRT,2021.1.2,Win32,60.0240096,,,,,,,,2,Slow,h,0,2.15,7,1,29,1,1,,,,,
1.53,,,,,,,,,h.PNG,h,5da29f43e0e3c20012fd9d46,2021-09-08_14h56.21.964,forced_choiceRT,2021.1.2,Win32,60.0240096,,,,,,,,2,Ontime,g,0,1.917,7,2,30,2,1,,,,,
1.13,,,,,,,,,h.PNG,h,5da29f43e0e3c20012fd9d46,2021-09-08_14h56.21.964,forced_choiceRT,2021.1.2,Win32,60.0240096,,,,,,,,2,Ontime,h,1,1.902,7,3,31,2,1,,,,,
1.83,,,,,,,,,h.PNG,h,5da29f43e0e3c20012fd9d46,2021-09-08_14h56.21.964,forced_choiceRT,2021.1.2,Win32,60.0240096,,,,,,,,2,Ontime,h,1,1.904,8,0,32,2,1,,,,,
0.2,,,,,,,,,j.PNG,j,5da29f43e0e3c20012fd9d46,2021-09-08_14h56.21.964,forced_choiceRT,2021.1.2,Win32,60.0240096,,,,,,,,2,Ontime,j,1,1.918,8,1,33,3,1,,,,,
0.63,,,,,,,,,f.PNG,f,5da29f43e0e3c20012fd9d46,2021-09-08_14h56.21.964,forced_choiceRT,2021.1.2,Win32,60.0240096,,,,,,,,2,Fast,f,1,1.868,8,2,34,0,1,,,,,
1.74,,,,,,,,,g.PNG,g,5da29f43e0e3c20012fd9d46,2021-09-08_14h56.21.964,forced_choiceRT,2021.1.2,Win32,60.0240096,,,,,,,,2,Ontime,g,1,2.099,8,3,35,1,1,,,,,
1.66,,,,,,,,,h.PNG,h,5da29f43e0e3c20012fd9d46,2021-09-08_14h56.21.964,forced_choiceRT,2021.1.2,Win32,60.0240096,,,,,,,,2,Ontime,g,0,1.935,9,0,36,2,1,,,,,
1.65,,,,,,,,,f.PNG,f,5da29f43e0e3c20012fd9d46,2021-09-08_14h56.21.964,forced_choiceRT,2021.1.2,Win32,60.0240096,,,,,,,,2,Fast,h,0,1.886,9,1,37,0,1,,,,,
0.74,,,,,,,,,j.PNG,j,5da29f43e0e3c20012fd9d46,2021-09-08_14h56.21.964,forced_choiceRT,2021.1.2,Win32,60.0240096,,,,,,,,2,Ontime,j,1,1.938,9,2,38,3,1,,,,,
0.05,,,,,,,,,j.PNG,j,5da29f43e0e3c20012fd9d46,2021-09-08_14h56.21.964,forced_choiceRT,2021.1.2,Win32,60.0240096,,,,,,,,2,Ontime,j,1,1.968,9,3,39,3,1,,,,,
,,,,,,,,,,,5da29f43e0e3c20012fd9d46,2021-09-08_14h56.21.964,forced_choiceRT,2021.1.2,Win32,60.0240096,,,,,,,,,,,,,,,,,,1,0,1,0,1
0.98,,,,,,,,,j.PNG,j,5da29f43e0e3c20012fd9d46,2021-09-08_14h56.21.964,forced_choiceRT,2021.1.2,Win32,60.0240096,,,,,,,,3,Fast,j,1,1.896,0,0,0,3,1,,,,,
0.47,,,,,,,,,f.PNG,f,5da29f43e0e3c20012fd9d46,2021-09-08_14h56.21.964,forced_choiceRT,2021.1.2,Win32,60.0240096,,,,,,,,3,Ontime,f,1,1.917,0,1,1,0,1,,,,,
0.55,,,,,,,,,g.PNG,g,5da29f43e0e3c20012fd9d46,2021-09-08_14h56.21.964,forced_choiceRT,2021.1.2,Win32,60.0240096,,,,,,,,3,Fast,g,1,1.9,0,2,2,1,1,,,,,
1.05,,,,,,,,,g.PNG,g,5da29f43e0e3c20012fd9d46,2021-09-08_14h56.21.964,forced_choiceRT,2021.1.2,Win32,60.0240096,,,,,,,,3,Fast,g,1,1.867,0,3,3,1,1,,,,,
0.39,,,,,,,,,j.PNG,j,5da29f43e0e3c20012fd9d46,2021-09-08_14h56.21.964,forced_choiceRT,2021.1.2,Win32,60.0240096,,,,,,,,3,Ontime,j,1,1.954,1,0,4,3,1,,,,,
0.6,,,,,,,,,j.PNG,j,5da29f43e0e3c20012fd9d46,2021-09-08_14h56.21.964,forced_choiceRT,2021.1.2,Win32,60.0240096,,,,,,,,3,Ontime,j,1,1.924,1,1,5,3,1,,,,,
0.3,,,,,,,,,j.PNG,j,5da29f43e0e3c20012fd9d46,2021-09-08_14h56.21.964,forced_choiceRT,2021.1.2,Win32,60.0240096,,,,,,,,3,Ontime,j,1,1.934,1,2,6,3,1,,,,,
1.55,,,,,,,,,j.PNG,j,5da29f43e0e3c20012fd9d46,2021-09-08_14h56.21.964,forced_choiceRT,2021.1.2,Win32,60.0240096,,,,,,,,3,Ontime,j,1,1.972,1,3,7,3,1,,,,,
0.01,,,,,,,,,h.PNG,h,5da29f43e0e3c20012fd9d46,2021-09-08_14h56.21.964,forced_choiceRT,2021.1.2,Win32,60.0240096,,,,,,,,3,Ontime,h,1,1.901,2,0,8,2,1,,,,,
0.81,,,,,,,,,f.PNG,f,5da29f43e0e3c20012fd9d46,2021-09-08_14h56.21.964,forced_choiceRT,2021.1.2,Win32,60.0240096,,,,,,,,3,Fast,f,1,1.884,2,1,9,0,1,,,,,
0.99,,,,,,,,,h.PNG,h,5da29f43e0e3c20012fd9d46,2021-09-08_14h56.21.964,forced_choiceRT,2021.1.2,Win32,60.0240096,,,,,,,,3,Fast,h,1,1.869,2,2,10,2,1,,,,,
0.99,,,,,,,,,h.PNG,h,5da29f43e0e3c20012fd9d46,2021-09-08_14h56.21.964,forced_choiceRT,2021.1.2,Win32,60.0240096,,,,,,,,3,Fast,h,1,1.883,2,3,11,2,1,,,,,
1.83,,,,,,,,,f.PNG,f,5da29f43e0e3c20012fd9d46,2021-09-08_14h56.21.964,forced_choiceRT,2021.1.2,Win32,60.0240096,,,,,,,,3,Ontime,h,0,1.983,3,0,12,0,1,,,,,
1.78,,,,,,,,,f.PNG,f,5da29f43e0e3c20012fd9d46,2021-09-08_14h56.21.964,forced_choiceRT,2021.1.2,Win32,60.0240096,,,,,,,,3,Ontime,f,1,1.972,3,1,13,0,1,,,,,
0.81,,,,,,,,,j.PNG,j,5da29f43e0e3c20012fd9d46,2021-09-08_14h56.21.964,forced_choiceRT,2021.1.2,Win32,60.0240096,,,,,,,,3,Ontime,j,1,1.986,3,2,14,3,1,,,,,
0.79,,,,,,,,,h.PNG,h,5da29f43e0e3c20012fd9d46,2021-09-08_14h56.21.964,forced_choiceRT,2021.1.2,Win32,60.0240096,,,,,,,,3,Ontime,h,1,1.922,3,3,15,2,1,,,,,
0.21,,,,,,,,,f.PNG,f,5da29f43e0e3c20012fd9d46,2021-09-08_14h56.21.964,forced_choiceRT,2021.1.2,Win32,60.0240096,,,,,,,,3,Ontime,f,1,1.983,4,0,16,0,1,,,,,
0.36,,,,,,,,,g.PNG,g,5da29f43e0e3c20012fd9d46,2021-09-08_14h56.21.964,forced_choiceRT,2021.1.2,Win32,60.0240096,,,,,,,,3,Ontime,g,1,1.986,4,1,17,1,1,,,,,
1.62,,,,,,,,,j.PNG,j,5da29f43e0e3c20012fd9d46,2021-09-08_14h56.21.964,forced_choiceRT,2021.1.2,Win32,60.0240096,,,,,,,,3,Ontime,g,0,1.968,4,2,18,3,1,,,,,
0.6,,,,,,,,,g.PNG,g,5da29f43e0e3c20012fd9d46,2021-09-08_14h56.21.964,forced_choiceRT,2021.1.2,Win32,60.0240096,,,,,,,,3,Ontime,g,1,1.951,4,3,19,1,1,,,,,
1.56,,,,,,,,,f.PNG,f,5da29f43e0e3c20012fd9d46,2021-09-08_14h56.21.964,forced_choiceRT,2021.1.2,Win32,60.0240096,,,,,,,,3,Ontime,g,0,2.017,5,0,20,0,1,,,,,
0.86,,,,,,,,,h.PNG,h,5da29f43e0e3c20012fd9d46,2021-09-08_14h56.21.964,forced_choiceRT,2021.1.2,Win32,60.0240096,,,,,,,,3,Fast,h,1,1.852,5,1,21,2,1,,,,,
0.44,,,,,,,,,g.PNG,g,5da29f43e0e3c20012fd9d46,2021-09-08_14h56.21.964,forced_choiceRT,2021.1.2,Win32,60.0240096,,,,,,,,3,Ontime,g,1,1.917,5,2,22,1,1,,,,,
1.39,,,,,,,,,h.PNG,h,5da29f43e0e3c20012fd9d46,2021-09-08_14h56.21.964,forced_choiceRT,2021.1.2,Win32,60.0240096,,,,,,,,3,Ontime,h,1,2.068,5,3,23,2,1,,,,,
0.6,,,,,,,,,f.PNG,f,5da29f43e0e3c20012fd9d46,2021-09-08_14h56.21.964,forced_choiceRT,2021.1.2,Win32,60.0240096,,,,,,,,3,Ontime,f,1,1.971,6,0,24,0,1,,,,,
1.47,,,,,,,,,g.PNG,g,5da29f43e0e3c20012fd9d46,2021-09-08_14h56.21.964,forced_choiceRT,2021.1.2,Win32,60.0240096,,,,,,,,3,Ontime,f,0,1.954,6,1,25,1,1,,,,,
1.64,,,,,,,,,j.PNG,j,5da29f43e0e3c20012fd9d46,2021-09-08_14h56.21.964,forced_choiceRT,2021.1.2,Win32,60.0240096,,,,,,,,3,Ontime,g,0,1.953,6,2,26,3,1,,,,,
1.65,,,,,,,,,g.PNG,g,5da29f43e0e3c20012fd9d46,2021-09-08_14h56.21.964,forced_choiceRT,2021.1.2,Win32,60.0240096,,,,,,,,3,Ontime,j,0,2.001,6,3,27,1,1,,,,,
0.19,,,,,,,,,f.PNG,f,5da29f43e0e3c20012fd9d46,2021-09-08_14h56.21.964,forced_choiceRT,2021.1.2,Win32,60.0240096,,,,,,,,3,Ontime,f,1,1.918,7,0,28,0,1,,,,,
1.45,,,,,,,,,g.PNG,g,5da29f43e0e3c20012fd9d46,2021-09-08_14h56.21.964,forced_choiceRT,2021.1.2,Win32,60.0240096,,,,,,,,3,Fast,f,0,1.887,7,1,29,1,1,,,,,
1.13,,,,,,,,,f.PNG,f,5da29f43e0e3c20012fd9d46,2021-09-08_14h56.21.964,forced_choiceRT,2021.1.2,Win32,60.0240096,,,,,,,,3,Fast,f,1,1.884,7,2,30,0,1,,,,,
0.54,,,,,,,,,j.PNG,j,5da29f43e0e3c20012fd9d46,2021-09-08_14h56.21.964,forced_choiceRT,2021.1.2,Win32,60.0240096,,,,,,,,3,Ontime,j,1,2.034,7,3,31,3,1,,,,,
0.65,,,,,,,,,j.PNG,j,5da29f43e0e3c20012fd9d46,2021-09-08_14h56.21.964,forced_choiceRT,2021.1.2,Win32,60.0240096,,,,,,,,3,Ontime,j,1,1.985,8,0,32,3,1,,,,,
0.94,,,,,,,,,h.PNG,h,5da29f43e0e3c20012fd9d46,2021-09-08_14h56.21.964,forced_choiceRT,2021.1.2,Win32,60.0240096,,,,,,,,3,Ontime,h,1,1.904,8,1,33,2,1,,,,,
1.95,,,,,,,,,g.PNG,g,5da29f43e0e3c20012fd9d46,2021-09-08_14h56.21.964,forced_choiceRT,2021.1.2,Win32,60.0240096,,,,,,,,3,Slow,h,0,2.183,8,2,34,1,1,,,,,
0.63,,,,,,,,,h.PNG,h,5da29f43e0e3c20012fd9d46,2021-09-08_14h56.21.964,forced_choiceRT,2021.1.2,Win32,60.0240096,,,,,,,,3,Ontime,h,1,1.904,8,3,35,2,1,,,,,
1.36,,,,,,,,,g.PNG,g,5da29f43e0e3c20012fd9d46,2021-09-08_14h56.21.964,forced_choiceRT,2021.1.2,Win32,60.0240096,,,,,,,,3,Ontime,h,0,1.918,9,0,36,1,1,,,,,
1.29,,,,,,,,,f.PNG,f,5da29f43e0e3c20012fd9d46,2021-09-08_14h56.21.964,forced_choiceRT,2021.1.2,Win32,60.0240096,,,,,,,,3,Ontime,f,1,1.934,9,1,37,0,1,,,,,
0.56,,,,,,,,,h.PNG,h,5da29f43e0e3c20012fd9d46,2021-09-08_14h56.21.964,forced_choiceRT,2021.1.2,Win32,60.0240096,,,,,,,,3,Fast,h,1,1.884,9,2,38,2,1,,,,,
1.19,,,,,,,,,h.PNG,h,5da29f43e0e3c20012fd9d46,2021-09-08_14h56.21.964,forced_choiceRT,2021.1.2,Win32,60.0240096,,,,,,,,3,Ontime,h,1,1.934,9,3,39,2,1,,,,,
,,,,,,,,,,,5da29f43e0e3c20012fd9d46,2021-09-08_14h56.21.964,forced_choiceRT,2021.1.2,Win32,60.0240096,,,,,,,,,,,,,,,,,,2,0,2,0,1
0.31,,,,,,,,,f.PNG,f,5da29f43e0e3c20012fd9d46,2021-09-08_14h56.21.964,forced_choiceRT,2021.1.2,Win32,60.0240096,,,,,,,,4,Ontime,f,1,2.03,0,0,0,0,1,,,,,
0.01,,,,,,,,,f.PNG,f,5da29f43e0e3c20012fd9d46,2021-09-08_14h56.21.964,forced_choiceRT,2021.1.2,Win32,60.0240096,,,,,,,,4,Ontime,f,1,1.988,0,1,1,0,1,,,,,
0.6,,,,,,,,,g.PNG,g,5da29f43e0e3c20012fd9d46,2021-09-08_14h56.21.964,forced_choiceRT,2021.1.2,Win32,60.0240096,,,,,,,,4,Ontime,g,1,1.906,0,2,2,1,1,,,,,
0.65,,,,,,,,,g.PNG,g,5da29f43e0e3c20012fd9d46,2021-09-08_14h56.21.964,forced_choiceRT,2021.1.2,Win32,60.0240096,,,,,,,,4,Ontime,g,1,1.984,0,3,3,1,1,,,,,
1.65,,,,,,,,,h.PNG,h,5da29f43e0e3c20012fd9d46,2021-09-08_14h56.21.964,forced_choiceRT,2021.1.2,Win32,60.0240096,,,,,,,,4,Ontime,g,0,2.067,1,0,4,2,1,,,,,
0,,,,,,,,,g.PNG,g,5da29f43e0e3c20012fd9d46,2021-09-08_14h56.21.964,forced_choiceRT,2021.1.2,Win32,60.0240096,,,,,,,,4,Fast,g,1,1.852,1,1,5,1,1,,,,,
1.13,,,,,,,,,f.PNG,f,5da29f43e0e3c20012fd9d46,2021-09-08_14h56.21.964,forced_choiceRT,2021.1.2,Win32,60.0240096,,,,,,,,4,Ontime,g,0,1.935,1,2,6,0,1,,,,,
0.2,,,,,,,,,g.PNG,g,5da29f43e0e3c20012fd9d46,2021-09-08_14h56.21.964,forced_choiceRT,2021.1.2,Win32,60.0240096,,,,,,,,4,Ontime,g,1,1.936,1,3,7,1,1,,,,,
1.99,,,,,,,,,j.PNG,j,5da29f43e0e3c20012fd9d46,2021-09-08_14h56.21.964,forced_choiceRT,2021.1.2,Win32,60.0240096,,,,,,,,4,Ontime,g,0,2.017,2,0,8,3,1,,,,,
0.06,,,,,,,,,f.PNG,f,5da29f43e0e3c20012fd9d46,2021-09-08_14h56.21.964,forced_choiceRT,2021.1.2,Win32,60.0240096,,,,,,,,4,Ontime,f,1,1.973,2,1,9,0,1,,,,,
0.42,,,,,,,,,j.PNG,j,5da29f43e0e3c20012fd9d46,2021-09-08_14h56.21.964,forced_choiceRT,2021.1.2,Win32,60.0240096,,,,,,,,4,Ontime,j,1,1.968,2,2,10,3,1,,,,,
1.72,,,,,,,,,h.PNG,h,5da29f43e0e3c20012fd9d46,2021-09-08_14h56.21.964,forced_choiceRT,2021.1.2,Win32,60.0240096,,,,,,,,4,Ontime,g,0,1.955,2,3,11,2,1,,,,,
1.34,,,,,,,,,g.PNG,g,5da29f43e0e3c20012fd9d46,2021-09-08_14h56.21.964,forced_choiceRT,2021.1.2,Win32,60.0240096,,,,,,,,4,Ontime,h,0,1.917,3,0,12,1,1,,,,,
0.56,,,,,,,,,j.PNG,j,5da29f43e0e3c20012fd9d46,2021-09-08_14h56.21.964,forced_choiceRT,2021.1.2,Win32,60.0240096,,,,,,,,4,Ontime,j,1,2.067,3,1,13,3,1,,,,,
0.77,,,,,,,,,h.PNG,h,5da29f43e0e3c20012fd9d46,2021-09-08_14h56.21.964,forced_choiceRT,2021.1.2,Win32,60.0240096,,,,,,,,4,Fast,h,1,1.818,3,2,14,2,1,,,,,
0.13,,,,,,,,,g.PNG,g,5da29f43e0e3c20012fd9d46,2021-09-08_14h56.21.964,forced_choiceRT,2021.1.2,Win32,60.0240096,,,,,,,,4,Ontime,g,1,1.968,3,3,15,1,1,,,,,
0.31,,,,,,,,,f.PNG,f,5da29f43e0e3c20012fd9d46,2021-09-08_14h56.21.964,forced_choiceRT,2021.1.2,Win32,60.0240096,,,,,,,,4,Fast,f,1,1.838,4,0,16,0,1,,,,,
0.98,,,,,,,,,j.PNG,j,5da29f43e0e3c20012fd9d46,2021-09-08_14h56.21.964,forced_choiceRT,2021.1.2,Win32,60.0240096,,,,,,,,4,Ontime,j,1,1.901,4,1,17,3,1,,,,,
0.52,,,,,,,,,j.PNG,j,5da29f43e0e3c20012fd9d46,2021-09-08_14h56.21.964,forced_choiceRT,2021.1.2,Win32,60.0240096,,,,,,,,4,Ontime,j,1,1.967,4,2,18,3,1,,,,,
0.43,,,,,,,,,g.PNG,g,5da29f43e0e3c20012fd9d46,2021-09-08_14h56.21.964,forced_choiceRT,2021.1.2,Win32,60.0240096,,,,,,,,4,Ontime,g,1,2.018,4,3,19,1,1,,,,,
0.74,,,,,,,,,f.PNG,f,5da29f43e0e3c20012fd9d46,2021-09-08_14h56.21.964,forced_choiceRT,2021.1.2,Win32,60.0240096,,,,,,,,4,Ontime,f,1,1.934,5,0,20,0,1,,,,,
0.35,,,,,,,,,j.PNG,j,5da29f43e0e3c20012fd9d46,2021-09-08_14h56.21.964,forced_choiceRT,2021.1.2,Win32,60.0240096,,,,,,,,4,Ontime,j,1,1.952,5,1,21,3,1,,,,,
0.37,,,,,,,,,h.PNG,h,5da29f43e0e3c20012fd9d46,2021-09-08_14h56.21.964,forced_choiceRT,2021.1.2,Win32,60.0240096,,,,,,,,4,Ontime,h,1,1.984,5,2,22,2,1,,,,,
1.88,,,,,,,,,f.PNG,f,5da29f43e0e3c20012fd9d46,2021-09-08_14h56.21.964,forced_choiceRT,2021.1.2,Win32,60.0240096,,,,,,,,4,Ontime,h,0,1.952,5,3,23,0,1,,,,,
1.36,,,,,,,,,h.PNG,h,5da29f43e0e3c20012fd9d46,2021-09-08_14h56.21.964,forced_choiceRT,2021.1.2,Win32,60.0240096,,,,,,,,4,Ontime,h,1,1.984,6,0,24,2,1,,,,,
1.98,,,,,,,,,j.PNG,j,5da29f43e0e3c20012fd9d46,2021-09-08_14h56.21.964,forced_choiceRT,2021.1.2,Win32,60.0240096,,,,,,,,4,Ontime,h,0,1.918,6,1,25,3,1,,,,,
0.37,,,,,,,,,h.PNG,h,5da29f43e0e3c20012fd9d46,2021-09-08_14h56.21.964,forced_choiceRT,2021.1.2,Win32,60.0240096,,,,,,,,4,Ontime,h,1,1.968,6,2,26,2,1,,,,,
1.04,,,,,,,,,g.PNG,g,5da29f43e0e3c20012fd9d46,2021-09-08_14h56.21.964,forced_choiceRT,2021.1.2,Win32,60.0240096,,,,,,,,4,Fast,g,1,1.784,6,3,27,1,1,,,,,
1.29,,,,,,,,,h.PNG,h,5da29f43e0e3c20012fd9d46,2021-09-08_14h56.21.964,forced_choiceRT,2021.1.2,Win32,60.0240096,,,,,,,,4,Ontime,h,1,1.984,7,0,28,2,1,,,,,
1.32,,,,,,,,,j.PNG,j,5da29f43e0e3c20012fd9d46,2021-09-08_14h56.21.964,forced_choiceRT,2021.1.2,Win32,60.0240096,,,,,,,,4,Ontime,j,1,2.018,7,1,29,3,1,,,,,
1.3,,,,,,,,,f.PNG,f,5da29f43e0e3c20012fd9d46,2021-09-08_14h56.21.964,forced_choiceRT,2021.1.2,Win32,60.0240096,,,,,,,,4,Ontime,f,1,2.085,7,2,30,0,1,,,,,
1.01,,,,,,,,,f.PNG,f,5da29f43e0e3c20012fd9d46,2021-09-08_14h56.21.964,forced_choiceRT,2021.1.2,Win32,60.0240096,,,,,,,,4,Ontime,f,1,1.952,7,3,31,0,1,,,,,
0.81,,,,,,,,,g.PNG,g,5da29f43e0e3c20012fd9d46,2021-09-08_14h56.21.964,forced_choiceRT,2021.1.2,Win32,60.0240096,,,,,,,,4,Ontime,g,1,1.903,8,0,32,1,1,,,,,
1.86,,,,,,,,,j.PNG,j,5da29f43e0e3c20012fd9d46,2021-09-08_14h56.21.964,forced_choiceRT,2021.1.2,Win32,60.0240096,,,,,,,,4,Ontime,g,0,2.051,8,1,33,3,1,,,,,
0.39,,,,,,,,,h.PNG,h,5da29f43e0e3c20012fd9d46,2021-09-08_14h56.21.964,forced_choiceRT,2021.1.2,Win32,60.0240096,,,,,,,,4,Ontime,h,1,1.995,8,2,34,2,1,,,,,
0.55,,,,,,,,,h.PNG,h,5da29f43e0e3c20012fd9d46,2021-09-08_14h56.21.964,forced_choiceRT,2021.1.2,Win32,60.0240096,,,,,,,,4,Ontime,h,1,1.984,8,3,35,2,1,,,,,
1.37,,,,,,,,,h.PNG,h,5da29f43e0e3c20012fd9d46,2021-09-08_14h56.21.964,forced_choiceRT,2021.1.2,Win32,60.0240096,,,,,,,,4,Ontime,h,1,1.933,9,0,36,2,1,,,,,
1.81,,,,,,,,,g.PNG,g,5da29f43e0e3c20012fd9d46,2021-09-08_14h56.21.964,forced_choiceRT,2021.1.2,Win32,60.0240096,,,,,,,,4,Ontime,h,0,2.005,9,1,37,1,1,,,,,
1.84,,,,,,,,,f.PNG,f,5da29f43e0e3c20012fd9d46,2021-09-08_14h56.21.964,forced_choiceRT,2021.1.2,Win32,60.0240096,,,,,,,,4,Ontime,g,0,1.951,9,2,38,0,1,,,,,
0.13,,,,,,,,,j.PNG,j,5da29f43e0e3c20012fd9d46,2021-09-08_14h56.21.964,forced_choiceRT,2021.1.2,Win32,60.0240096,,,,,,,,4,Ontime,j,1,1.972,9,3,39,3,1,,,,,
,,,,,,,,,,,5da29f43e0e3c20012fd9d46,2021-09-08_14h56.21.964,forced_choiceRT,2021.1.2,Win32,60.0240096,,,,,,,,,,,,,,,,,,3,0,3,0,1
0.44,,,,,,,,,h.PNG,h,5da29f43e0e3c20012fd9d46,2021-09-08_14h56.21.964,forced_choiceRT,2021.1.2,Win32,60.0240096,,,,,,,,5,Ontime,h,1,2.027,0,0,0,2,1,,,,,
0.47,,,,,,,,,h.PNG,h,5da29f43e0e3c20012fd9d46,2021-09-08_14h56.21.964,forced_choiceRT,2021.1.2,Win32,60.0240096,,,,,,,,5,Ontime,h,1,1.917,0,1,1,2,1,,,,,
0.78,,,,,,,,,j.PNG,j,5da29f43e0e3c20012fd9d46,2021-09-08_14h56.21.964,forced_choiceRT,2021.1.2,Win32,60.0240096,,,,,,,,5,Ontime,j,1,1.938,0,2,2,3,1,,,,,
0.85,,,,,,,,,j.PNG,j,5da29f43e0e3c20012fd9d46,2021-09-08_14h56.21.964,forced_choiceRT,2021.1.2,Win32,60.0240096,,,,,,,,5,Ontime,j,1,1.902,0,3,3,3,1,,,,,
1.96,,,,,,,,,g.PNG,g,5da29f43e0e3c20012fd9d46,2021-09-08_14h56.21.964,forced_choiceRT,2021.1.2,Win32,60.0240096,,,,,,,,5,Ontime,j,0,2.051,1,0,4,1,1,,,,,
0.66,,,,,,,,,h.PNG,h,5da29f43e0e3c20012fd9d46,2021-09-08_14h56.21.964,forced_choiceRT,2021.1.2,Win32,60.0240096,,,,,,,,5,Ontime,h,1,1.918,1,1,5,2,1,,,,,
0.26,,,,,,,,,g.PNG,g,5da29f43e0e3c20012fd9d46,2021-09-08_14h56.21.964,forced_choiceRT,2021.1.2,Win32,60.0240096,,,,,,,,5,Ontime,g,1,1.901,1,2,6,1,1,,,,,
0.62,,,,,,,,,g.PNG,g,5da29f43e0e3c20012fd9d46,2021-09-08_14h56.21.964,forced_choiceRT,2021.1.2,Win32,60.0240096,,,,,,,,5,Ontime,g,1,1.904,1,3,7,1,1,,,,,
0.77,,,,,,,,,j.PNG,j,5da29f43e0e3c20012fd9d46,2021-09-08_14h56.21.964,forced_choiceRT,2021.1.2,Win32,60.0240096,,,,,,,,5,Ontime,j,1,1.935,2,0,8,3,1,,,,,
1.44,,,,,,,,,f.PNG,f,5da29f43e0e3c20012fd9d46,2021-09-08_14h56.21.964,forced_choiceRT,2021.1.2,Win32,60.0240096,,,,,,,,5,Ontime,f,1,2.02,2,1,9,0,1,,,,,
0.83,,,,,,,,,h.PNG,h,5da29f43e0e3c20012fd9d46,2021-09-08_14h56.21.964,forced_choiceRT,2021.1.2,Win32,60.0240096,,,,,,,,5,Ontime,h,1,1.955,2,2,10,2,1,,,,,
1.35,,,,,,,,,h.PNG,h,5da29f43e0e3c20012fd9d46,2021-09-08_14h56.21.964,forced_choiceRT,2021.1.2,Win32,60.0240096,,,,,,,,5,Ontime,h,1,1.917,2,3,11,2,1,,,,,
1.97,,,,,,,,,j.PNG,j,5da29f43e0e3c20012fd9d46,2021-09-08_14h56.21.964,forced_choiceRT,2021.1.2,Win32,60.0240096,,,,,,,,5,Ontime,h,0,1.951,3,0,12,3,1,,,,,
0.62,,,,,,,,,f.PNG,f,5da29f43e0e3c20012fd9d46,2021-09-08_14h56.21.964,forced_choiceRT,2021.1.2,Win32,60.0240096,,,,,,,,5,Ontime,f,1,1.969,3,1,13,0,1,,,,,
0.53,,,,,,,,,f.PNG,f,5da29f43e0e3c20012fd9d46,2021-09-08_14h56.21.964,forced_choiceRT,2021.1.2,Win32,60.0240096,,,,,,,,5,Ontime,f,1,1.966,3,2,14,0,1,,,,,
1.73,,,,,,,,,g.PNG,g,5da29f43e0e3c20012fd9d46,2021-09-08_14h56.21.964,forced_choiceRT,2021.1.2,Win32,60.0240096,,,,,,,,5,Ontime,f,0,1.968,3,3,15,1,1,,,,,
1.06,,,,,,,,,h.PNG,h,5da29f43e0e3c20012fd9d46,2021-09-08_14h56.21.964,forced_choiceRT,2021.1.2,Win32,60.0240096,,,,,,,,5,Fast,h,1,1.884,4,0,16,2,1,,,,,
0.44,,,,,,,,,f.PNG,f,5da29f43e0e3c20012fd9d46,2021-09-08_14h56.21.964,forced_choiceRT,2021.1.2,Win32,60.0240096,,,,,,,,5,Ontime,f,1,1.985,4,1,17,0,1,,,,,
0.43,,,,,,,,,h.PNG,h,5da29f43e0e3c20012fd9d46,2021-09-08_14h56.21.964,forced_choiceRT,2021.1.2,Win32,60.0240096,,,,,,,,5,Ontime,h,1,2,4,2,18,2,1,,,,,
0.26,,,,,,,,,j.PNG,j,5da29f43e0e3c20012fd9d46,2021-09-08_14h56.21.964,forced_choiceRT,2021.1.2,Win32,60.0240096,,,,,,,,5,Ontime,j,1,1.952,4,3,19,3,1,,,,,
0.45,,,,,,,,,f.PNG,f,5da29f43e0e3c20012fd9d46,2021-09-08_14h56.21.964,forced_choiceRT,2021.1.2,Win32,60.0240096,,,,,,,,5,Ontime,f,1,2.018,5,0,20,0,1,,,,,
0.43,,,,,,,,,j.PNG,j,5da29f43e0e3c20012fd9d46,2021-09-08_14h56.21.964,forced_choiceRT,2021.1.2,Win32,60.0240096,,,,,,,,5,Ontime,j,1,1.901,5,1,21,3,1,,,,,
0.59,,,,,,,,,j.PNG,j,5da29f43e0e3c20012fd9d46,2021-09-08_14h56.21.964,forced_choiceRT,2021.1.2,Win32,60.0240096,,,,,,,,5,Ontime,j,1,1.933,5,2,22,3,1,,,,,
0.13,,,,,,,,,g.PNG,g,5da29f43e0e3c20012fd9d46,2021-09-08_14h56.21.964,forced_choiceRT,2021.1.2,Win32,60.0240096,,,,,,,,5,Ontime,g,1,1.985,5,3,23,1,1,,,,,
1.76,,,,,,,,,j.PNG,j,5da29f43e0e3c20012fd9d46,2021-09-08_14h56.21.964,forced_choiceRT,2021.1.2,Win32,60.0240096,,,,,,,,5,Ontime,h,0,1.917,6,0,24,3,1,,,,,
0.73,,,,,,,,,g.PNG,g,5da29f43e0e3c20012fd9d46,2021-09-08_14h56.21.964,forced_choiceRT,2021.1.2,Win32,60.0240096,,,,,,,,5,Ontime,g,1,2,6,1,25,1,1,,,,,
0.52,,,,,,,,,g.PNG,g,5da29f43e0e3c20012fd9d46,2021-09-08_14h56.21.964,forced_choiceRT,2021.1.2,Win32,60.0240096,,,,,,,,5,Ontime,g,1,1.918,6,2,26,1,1,,,,,
1.33,,,,,,,,,f.PNG,f,5da29f43e0e3c20012fd9d46,2021-09-08_14h56.21.964,forced_choiceRT,2021.1.2,Win32,60.0240096,,,,,,,,5,Ontime,f,1,1.919,6,3,27,0,1,,,,,
1.01,,,,,,,,,h.PNG,h,5da29f43e0e3c20012fd9d46,2021-09-08_14h56.21.964,forced_choiceRT,2021.1.2,Win32,60.0240096,,,,,,,,5,Fast,h,1,1.884,7,0,28,2,1,,,,,
1.1,,,,,,,,,h.PNG,h,5da29f43e0e3c20012fd9d46,2021-09-08_14h56.21.964,forced_choiceRT,2021.1.2,Win32,60.0240096,,,,,,,,5,Ontime,h,1,1.968,7,1,29,2,1,,,,,
1.39,,,,,,,,,f.PNG,f,5da29f43e0e3c20012fd9d46,2021-09-08_14h56.21.964,forced_choiceRT,2021.1.2,Win32,60.0240096,,,,,,,,5,Ontime,f,1,2,7,2,30,0,1,,,,,
0.5,,,,,,,,,g.PNG,g,5da29f43e0e3c20012fd9d46,2021-09-08_14h56.21.964,forced_choiceRT,2021.1.2,Win32,60.0240096,,,,,,,,5,Ontime,g,1,1.901,7,3,31,1,1,,,,,
1.59,,,,,,,,,g.PNG,g,5da29f43e0e3c20012fd9d46,2021-09-08_14h56.21.964,forced_choiceRT,2021.1.2,Win32,60.0240096,,,,,,,,5,Fast,g,1,1.87,8,0,32,1,1,,,,,
0,,,,,,,,,f.PNG,f,5da29f43e0e3c20012fd9d46,2021-09-08_14h56.21.964,forced_choiceRT,2021.1.2,Win32,60.0240096,,,,,,,,5,Ontime,f,1,2.018,8,1,33,0,1,,,,,
1.17,,,,,,,,,j.PNG,j,5da29f43e0e3c20012fd9d46,2021-09-08_14h56.21.964,forced_choiceRT,2021.1.2,Win32,60.0240096,,,,,,,,5,Slow,j,1,2.218,8,2,34,3,1,,,,,
1.64,,,,,,,,,f.PNG,f,5da29f43e0e3c20012fd9d46,2021-09-08_14h56.21.964,forced_choiceRT,2021.1.2,Win32,60.0240096,,,,,,,,5,Ontime,j,0,2.018,8,3,35,0,1,,,,,
1.11,,,,,,,,,j.PNG,j,5da29f43e0e3c20012fd9d46,2021-09-08_14h56.21.964,forced_choiceRT,2021.1.2,Win32,60.0240096,,,,,,,,5,Ontime,j,1,1.935,9,0,36,3,1,,,,,
0.36,,,,,,,,,f.PNG,f,5da29f43e0e3c20012fd9d46,2021-09-08_14h56.21.964,forced_choiceRT,2021.1.2,Win32,60.0240096,,,,,,,,5,Ontime,f,1,1.918,9,1,37,0,1,,,,,
0.35,,,,,,,,,g.PNG,g,5da29f43e0e3c20012fd9d46,2021-09-08_14h56.21.964,forced_choiceRT,2021.1.2,Win32,60.0240096,,,,,,,,5,Ontime,h,0,1.937,9,2,38,1,1,,,,,
1.42,,,,,,,,,h.PNG,h,5da29f43e0e3c20012fd9d46,2021-09-08_14h56.21.964,forced_choiceRT,2021.1.2,Win32,60.0240096,,,,,,,,5,Ontime,g,0,1.951,9,3,39,2,1,,,,,
,,,,,,,,,,,5da29f43e0e3c20012fd9d46,2021-09-08_14h56.21.964,forced_choiceRT,2021.1.2,Win32,60.0240096,,,,,,,,,,,,,,,,,,4,0,4,0,1
1.04,,,,,,,,,f.PNG,f,5da29f43e0e3c20012fd9d46,2021-09-08_14h56.21.964,forced_choiceRT,2021.1.2,Win32,60.0240096,,,,,,,,6,Ontime,f,1,1.997,0,0,0,0,1,,,,,
0.75,,,,,,,,,f.PNG,f,5da29f43e0e3c20012fd9d46,2021-09-08_14h56.21.964,forced_choiceRT,2021.1.2,Win32,60.0240096,,,,,,,,6,Ontime,f,1,1.918,0,1,1,0,1,,,,,
0.58,,,,,,,,,h.PNG,h,5da29f43e0e3c20012fd9d46,2021-09-08_14h56.21.964,forced_choiceRT,2021.1.2,Win32,60.0240096,,,,,,,,6,Ontime,h,1,1.901,0,2,2,2,1,,,,,
1.56,,,,,,,,,g.PNG,g,5da29f43e0e3c20012fd9d46,2021-09-08_14h56.21.964,forced_choiceRT,2021.1.2,Win32,60.0240096,,,,,,,,6,Ontime,h,0,1.916,0,3,3,1,1,,,,,
0.42,,,,,,,,,f.PNG,f,5da29f43e0e3c20012fd9d46,2021-09-08_14h56.21.964,forced_choiceRT,2021.1.2,Win32,60.0240096,,,,,,,,6,Ontime,f,1,2.017,1,0,4,0,1,,,,,
1.18,,,,,,,,,f.PNG,f,5da29f43e0e3c20012fd9d46,2021-09-08_14h56.21.964,forced_choiceRT,2021.1.2,Win32,60.0240096,,,,,,,,6,Ontime,f,1,1.901,1,1,5,0,1,,,,,
0.32,,,,,,,,,g.PNG,g,5da29f43e0e3c20012fd9d46,2021-09-08_14h56.21.964,forced_choiceRT,2021.1.2,Win32,60.0240096,,,,,,,,6,Ontime,g,1,1.95,1,2,6,1,1,,,,,
0.6,,,,,,,,,g.PNG,g,5da29f43e0e3c20012fd9d46,2021-09-08_14h56.21.964,forced_choiceRT,2021.1.2,Win32,60.0240096,,,,,,,,6,Ontime,g,1,1.951,1,3,7,1,1,,,,,
0.28,,,,,,,,,h.PNG,h,5da29f43e0e3c20012fd9d46,2021-09-08_14h56.21.964,forced_choiceRT,2021.1.2,Win32,60.0240096,,,,,,,,6,Fast,h,1,1.868,2,0,8,2,1,,,,,
1.64,,,,,,,,,h.PNG,h,5da29f43e0e3c20012fd9d46,2021-09-08_14h56.21.964,forced_choiceRT,2021.1.2,Win32,60.0240096,,,,,,,,6,Ontime,h,1,1.967,2,1,9,2,1,,,,,
1.29,,,,,,,,,f.PNG,f,5da29f43e0e3c20012fd9d46,2021-09-08_14h56.21.964,forced_choiceRT,2021.1.2,Win32,60.0240096,,,,,,,,6,Ontime,f,1,1.917,2,2,10,0,1,,,,,
0.55,,,,,,,,,g.PNG,g,5da29f43e0e3c20012fd9d46,2021-09-08_14h56.21.964,forced_choiceRT,2021.1.2,Win32,60.0240096,,,,,,,,6,Ontime,g,1,1.968,2,3,11,1,1,,,,,
0.25,,,,,,,,,j.PNG,j,5da29f43e0e3c20012fd9d46,2021-09-08_14h56.21.964,forced_choiceRT,2021.1.2,Win32,60.0240096,,,,,,,,6,Ontime,j,1,2.001,3,0,12,3,1,,,,,
0.06,,,,,,,,,j.PNG,j,5da29f43e0e3c20012fd9d46,2021-09-08_14h56.21.964,forced_choiceRT,2021.1.2,Win32,60.0240096,,,,,,,,6,Ontime,j,1,2.018,3,1,13,3,1,,,,,
1.64,,,,,,,,,g.PNG,g,5da29f43e0e3c20012fd9d46,2021-09-08_14h56.21.964,forced_choiceRT,2021.1.2,Win32,60.0240096,,,,,,,,6,Ontime,j,0,2.051,3,2,14,1,1,,,,,
1.07,,,,,,,,,h.PNG,h,5da29f43e0e3c20012fd9d46,2021-09-08_14h56.21.964,forced_choiceRT,2021.1.2,Win32,60.0240096,,,,,,,,6,Fast,h,1,1.851,3,3,15,2,1,,,,,
0.13,,,,,,,,,j.PNG,j,5da29f43e0e3c20012fd9d46,2021-09-08_14h56.21.964,forced_choiceRT,2021.1.2,Win32,60.0240096,,,,,,,,6,Ontime,j,1,2.017,4,0,16,3,1,,,,,
0.24,,,,,,,,,f.PNG,f,5da29f43e0e3c20012fd9d46,2021-09-08_14h56.21.964,forced_choiceRT,2021.1.2,Win32,60.0240096,,,,,,,,6,Ontime,f,1,1.95,4,1,17,0,1,,,,,
0.21,,,,,,,,,f.PNG,f,5da29f43e0e3c20012fd9d46,2021-09-08_14h56.21.964,forced_choiceRT,2021.1.2,Win32,60.0240096,,,,,,,,6,Ontime,f,1,1.952,4,2,18,0,1,,,,,
1.24,,,,,,,,,j.PNG,j,5da29f43e0e3c20012fd9d46,2021-09-08_14h56.21.964,forced_choiceRT,2021.1.2,Win32,60.0240096,,,,,,,,6,Ontime,j,1,2.001,4,3,19,3,1,,,,,
1.87,,,,,,,,,g.PNG,g,5da29f43e0e3c20012fd9d46,2021-09-08_14h56.21.964,forced_choiceRT,2021.1.2,Win32,60.0240096,,,,,,,,6,Ontime,j,0,1.934,5,0,20,1,1,,,,,
0.87,,,,,,,,,h.PNG,h,5da29f43e0e3c20012fd9d46,2021-09-08_14h56.21.964,forced_choiceRT,2021.1.2,Win32,60.0240096,,,,,,,,6,Ontime,h,1,1.952,5,1,21,2,1,,,,,
0.37,,,,,,,,,h.PNG,h,5da29f43e0e3c20012fd9d46,2021-09-08_14h56.21.964,forced_choiceRT,2021.1.2,Win32,60.0240096,,,,,,,,6,Ontime,h,1,1.968,5,2,22,2,1,,,,,
0.97,,,,,,,,,g.PNG,g,5da29f43e0e3c20012fd9d46,2021-09-08_14h56.21.964,forced_choiceRT,2021.1.2,Win32,60.0240096,,,,,,,,6,Ontime,g,1,2.034,5,3,23,1,1,,,,,
1.27,,,,,,,,,h.PNG,h,5da29f43e0e3c20012fd9d46,2021-09-08_14h56.21.964,forced_choiceRT,2021.1.2,Win32,60.0240096,,,,,,,,6,Ontime,h,1,1.918,6,0,24,2,1,,,,,
1.92,,,,,,,,,h.PNG,h,5da29f43e0e3c20012fd9d46,2021-09-08_14h56.21.964,forced_choiceRT,2021.1.2,Win32,60.0240096,,,,,,,,6,Ontime,h,1,1.919,6,1,25,2,1,,,,,
0.63,,,,,,,,,j.PNG,j,5da29f43e0e3c20012fd9d46,2021-09-08_14h56.21.964,forced_choiceRT,2021.1.2,Win32,60.0240096,,,,,,,,6,Ontime,j,1,1.938,6,2,26,3,1,,,,,
1.3,,,,,,,,,h.PNG,h,5da29f43e0e3c20012fd9d46,2021-09-08_14h56.21.964,forced_choiceRT,2021.1.2,Win32,60.0240096,,,,,,,,6,Ontime,h,1,2.035,6,3,27,2,1,,,,,
1.05,,,,,,,,,g.PNG,g,5da29f43e0e3c20012fd9d46,2021-09-08_14h56.21.964,forced_choiceRT,2021.1.2,Win32,60.0240096,,,,,,,,6,Ontime,g,1,1.986,7,0,28,1,1,,,,,
1.67,,,,,,,,,j.PNG,j,5da29f43e0e3c20012fd9d46,2021-09-08_14h56.21.964,forced_choiceRT,2021.1.2,Win32,60.0240096,,,,,,,,6,Slow,g,0,2.268,7,1,29,3,1,,,,,
1.33,,,,,,,,,j.PNG,j,5da29f43e0e3c20012fd9d46,2021-09-08_14h56.21.964,forced_choiceRT,2021.1.2,Win32,60.0240096,,,,,,,,6,Ontime,j,1,1.951,7,2,30,3,1,,,,,
0.28,,,,,,,,,f.PNG,f,5da29f43e0e3c20012fd9d46,2021-09-08_14h56.21.964,forced_choiceRT,2021.1.2,Win32,60.0240096,,,,,,,,6,Ontime,f,1,1.967,7,3,31,0,1,,,,,
0.46,,,,,,,,,j.PNG,j,5da29f43e0e3c20012fd9d46,2021-09-08_14h56.21.964,forced_choiceRT,2021.1.2,Win32,60.0240096,,,,,,,,6,Ontime,j,1,2.001,8,0,32,3,1,,,,,
0.93,,,,,,,,,f.PNG,f,5da29f43e0e3c20012fd9d46,2021-09-08_14h56.21.964,forced_choiceRT,2021.1.2,Win32,60.0240096,,,,,,,,6,Ontime,f,1,1.951,8,1,33,0,1,,,,,
1.11,,,,,,,,,f.PNG,f,5da29f43e0e3c20012fd9d46,2021-09-08_14h56.21.964,forced_choiceRT,2021.1.2,Win32,60.0240096,,,,,,,,6,Ontime,f,1,1.935,8,2,34,0,1,,,,,
1.86,,,,,,,,,h.PNG,h,5da29f43e0e3c20012fd9d46,2021-09-08_14h56.21.964,forced_choiceRT,2021.1.2,Win32,60.0240096,,,,,,,,6,Slow,f,0,2.237,8,3,35,2,1,,,,,
0.57,,,,,,,,,g.PNG,g,5da29f43e0e3c20012fd9d46,2021-09-08_14h56.21.964,forced_choiceRT,2021.1.2,Win32,60.0240096,,,,,,,,6,Ontime,g,1,1.934,9,0,36,1,1,,,,,
0.48,,,,,,,,,g.PNG,g,5da29f43e0e3c20012fd9d46,2021-09-08_14h56.21.964,forced_choiceRT,2021.1.2,Win32,60.0240096,,,,,,,,6,Ontime,g,1,1.95,9,1,37,1,1,,,,,
0.99,,,,,,,,,j.PNG,j,5da29f43e0e3c20012fd9d46,2021-09-08_14h56.21.964,forced_choiceRT,2021.1.2,Win32,60.0240096,,,,,,,,6,Fast,j,1,1.802,9,2,38,3,1,,,,,
1.17,,,,,,,,,j.PNG,j,5da29f43e0e3c20012fd9d46,2021-09-08_14h56.21.964,forced_choiceRT,2021.1.2,Win32,60.0240096,,,,,,,,6,Ontime,j,1,2.083,9,3,39,3,1,,,,,
,,,,,,,,,,,5da29f43e0e3c20012fd9d46,2021-09-08_14h56.21.964,forced_choiceRT,2021.1.2,Win32,60.0240096,,,,,,,,,,,,,,,,,,5,0,5,0,1
0.63,,,,,,,,,j.PNG,j,5da29f43e0e3c20012fd9d46,2021-09-08_14h56.21.964,forced_choiceRT,2021.1.2,Win32,60.0240096,,,,,,,,7,Ontime,j,1,1.998,0,0,0,3,1,,,,,
1.82,,,,,,,,,j.PNG,j,5da29f43e0e3c20012fd9d46,2021-09-08_14h56.21.964,forced_choiceRT,2021.1.2,Win32,60.0240096,,,,,,,,7,Ontime,h,0,2.034,0,1,1,3,1,,,,,
1.96,,,,,,,,,f.PNG,f,5da29f43e0e3c20012fd9d46,2021-09-08_14h56.21.964,forced_choiceRT,2021.1.2,Win32,60.0240096,,,,,,,,7,Ontime,h,0,1.935,0,2,2,0,1,,,,,
1.49,,,,,,,,,g.PNG,g,5da29f43e0e3c20012fd9d46,2021-09-08_14h56.21.964,forced_choiceRT,2021.1.2,Win32,60.0240096,,,,,,,,7,Ontime,h,0,1.934,0,3,3,1,1,,,,,
1.31,,,,,,,,,h.PNG,h,5da29f43e0e3c20012fd9d46,2021-09-08_14h56.21.964,forced_choiceRT,2021.1.2,Win32,60.0240096,,,,,,,,7,Ontime,h,1,2.002,1,0,4,2,1,,,,,
1.46,,,,,,,,,j.PNG,j,5da29f43e0e3c20012fd9d46,2021-09-08_14h56.21.964,forced_choiceRT,2021.1.2,Win32,60.0240096,,,,,,,,7,Ontime,j,1,2.021,1,1,5,3,1,,,,,
0.55,,,,,,,,,g.PNG,g,5da29f43e0e3c20012fd9d46,2021-09-08_14h56.21.964,forced_choiceRT,2021.1.2,Win32,60.0240096,,,,,,,,7,Ontime,g,1,2.035,1,2,6,1,1,,,,,
0.94,,,,,,,,,f.PNG,f,5da29f43e0e3c20012fd9d46,2021-09-08_14h56.21.964,forced_choiceRT,2021.1.2,Win32,60.0240096,,,,,,,,7,Ontime,f,1,1.967,1,3,7,0,1,,,,,
0.65,,,,,,,,,f.PNG,f,5da29f43e0e3c20012fd9d46,2021-09-08_14h56.21.964,forced_choiceRT,2021.1.2,Win32,60.0240096,,,,,,,,7,Ontime,f,1,2.072,2,0,8,0,1,,,,,
1.41,,,,,,,,,f.PNG,f,5da29f43e0e3c20012fd9d46,2021-09-08_14h56.21.964,forced_choiceRT,2021.1.2,Win32,60.0240096,,,,,,,,7,Ontime,f,1,2.003,2,1,9,0,1,,,,,
1.75,,,,,,,,,j.PNG,j,5da29f43e0e3c20012fd9d46,2021-09-08_14h56.21.964,forced_choiceRT,2021.1.2,Win32,60.0240096,,,,,,,,7,Ontime,f,0,1.985,2,2,10,3,1,,,,,
0.64,,,,,,,,,f.PNG,f,5da29f43e0e3c20012fd9d46,2021-09-08_14h56.21.964,forced_choiceRT,2021.1.2,Win32,60.0240096,,,,,,,,7,Ontime,f,1,1.967,2,3,11,0,1,,,,,
0.27,,,,,,,,,h.PNG,h,5da29f43e0e3c20012fd9d46,2021-09-08_14h56.21.964,forced_choiceRT,2021.1.2,Win32,60.0240096,,,,,,,,7,Ontime,h,1,2.002,3,0,12,2,1,,,,,
0.75,,,,,,,,,f.PNG,f,5da29f43e0e3c20012fd9d46,2021-09-08_14h56.21.964,forced_choiceRT,2021.1.2,Win32,60.0240096,,,,,,,,7,Ontime,f,1,1.936,3,1,13,0,1,,,,,
0.96,,,,,,,,,g.PNG,g,5da29f43e0e3c20012fd9d46,2021-09-08_14h56.21.964,forced_choiceRT,2021.1.2,Win32,60.0240096,,,,,,,,7,Ontime,g,1,2.002,3,2,14,1,1,,,,,
0.31,,,,,,,,,j.PNG,j,5da29f43e0e3c20012fd9d46,2021-09-08_14h56.21.964,forced_choiceRT,2021.1.2,Win32,60.0240096,,,,,,,,7,Ontime,j,1,2,3,3,15,3,1,,,,,
0.2,,,,,,,,,g.PNG,g,5da29f43e0e3c20012fd9d46,2021-09-08_14h56.21.964,forced_choiceRT,2021.1.2,Win32,60.0240096,,,,,,,,7,Ontime,g,1,1.968,4,0,16,1,1,,,,,
0.85,,,,,,,,,h.PNG,h,5da29f43e0e3c20012fd9d46,2021-09-08_14h56.21.964,forced_choiceRT,2021.1.2,Win32,60.0240096,,,,,,,,7,Ontime,h,1,1.902,4,1,17,2,1,,,,,
0.58,,,,,,,,,h.PNG,h,5da29f43e0e3c20012fd9d46,2021-09-08_14h56.21.964,forced_choiceRT,2021.1.2,Win32,60.0240096,,,,,,,,7,Ontime,h,1,1.951,4,2,18,2,1,,,,,
1.77,,,,,,,,,f.PNG,f,5da29f43e0e3c20012fd9d46,2021-09-08_14h56.21.964,forced_choiceRT,2021.1.2,Win32,60.0240096,,,,,,,,7,Ontime,g,0,1.934,4,3,19,0,1,,,,,
0.96,,,,,,,,,g.PNG,g,5da29f43e0e3c20012fd9d46,2021-09-08_14h56.21.964,forced_choiceRT,2021.1.2,Win32,60.0240096,,,,,,,,7,Ontime,g,1,2.039,5,0,20,1,1,,,,,
1.69,,,,,,,,,h.PNG,h,5da29f43e0e3c20012fd9d46,2021-09-08_14h56.21.964,forced_choiceRT,2021.1.2,Win32,60.0240096,,,,,,,,7,Ontime,g,0,2.068,5,1,21,2,1,,,,,
1.34,,,,,,,,,j.PNG,j,5da29f43e0e3c20012fd9d46,2021-09-08_14h56.21.964,forced_choiceRT,2021.1.2,Win32,60.0240096,,,,,,,,7,Ontime,j,1,1.968,5,2,22,3,1,,,,,
1.63,,,,,,,,,j.PNG,j,5da29f43e0e3c20012fd9d46,2021-09-08_14h56.21.964,forced_choiceRT,2021.1.2,Win32,60.0240096,,,,,,,,7,Slow,j,1,2.217,5,3,23,3,1,,,,,
0.15,,,,,,,,,f.PNG,f,5da29f43e0e3c20012fd9d46,2021-09-08_14h56.21.964,forced_choiceRT,2021.1.2,Win32,60.0240096,,,,,,,,7,Ontime,f,1,1.952,6,0,24,0,1,,,,,
1.91,,,,,,,,,h.PNG,h,5da29f43e0e3c20012fd9d46,2021-09-08_14h56.21.964,forced_choiceRT,2021.1.2,Win32,60.0240096,,,,,,,,7,Slow,f,0,2.151,6,1,25,2,1,,,,,
1.48,,,,,,,,,h.PNG,h,5da29f43e0e3c20012fd9d46,2021-09-08_14h56.21.964,forced_choiceRT,2021.1.2,Win32,60.0240096,,,,,,,,7,Ontime,j,0,1.968,6,2,26,2,1,,,,,
0.23,,,,,,,,,j.PNG,j,5da29f43e0e3c20012fd9d46,2021-09-08_14h56.21.964,forced_choiceRT,2021.1.2,Win32,60.0240096,,,,,,,,7,Ontime,j,1,1.951,6,3,27,3,1,,,,,
0.71,,,,,,,,,g.PNG,g,5da29f43e0e3c20012fd9d46,2021-09-08_14h56.21.964,forced_choiceRT,2021.1.2,Win32,60.0240096,,,,,,,,7,Ontime,g,1,1.952,7,0,28,1,1,,,,,
0.12,,,,,,,,,g.PNG,g,5da29f43e0e3c20012fd9d46,2021-09-08_14h56.21.964,forced_choiceRT,2021.1.2,Win32,60.0240096,,,,,,,,7,Fast,g,1,1.817,7,1,29,1,1,,,,,
0.65,,,,,,,,,g.PNG,g,5da29f43e0e3c20012fd9d46,2021-09-08_14h56.21.964,forced_choiceRT,2021.1.2,Win32,60.0240096,,,,,,,,7,Ontime,g,1,1.969,7,2,30,1,1,,,,,
1.26,,,,,,,,,g.PNG,g,5da29f43e0e3c20012fd9d46,2021-09-08_14h56.21.964,forced_choiceRT,2021.1.2,Win32,60.0240096,,,,,,,,7,Fast,g,1,1.852,7,3,31,1,1,,,,,
0.89,,,,,,,,,f.PNG,f,5da29f43e0e3c20012fd9d46,2021-09-08_14h56.21.964,forced_choiceRT,2021.1.2,Win32,60.0240096,,,,,,,,7,Ontime,f,1,1.951,8,0,32,0,1,,,,,
1.26,,,,,,,,,j.PNG,j,5da29f43e0e3c20012fd9d46,2021-09-08_14h56.21.964,forced_choiceRT,2021.1.2,Win32,60.0240096,,,,,,,,7,Ontime,h,0,1.917,8,1,33,3,1,,,,,
0.13,,,,,,,,,j.PNG,j,5da29f43e0e3c20012fd9d46,2021-09-08_14h56.21.964,forced_choiceRT,2021.1.2,Win32,60.0240096,,,,,,,,7,Fast,j,1,1.868,8,2,34,3,1,,,,,
0.53,,,,,,,,,h.PNG,h,5da29f43e0e3c20012fd9d46,2021-09-08_14h56.21.964,forced_choiceRT,2021.1.2,Win32,60.0240096,,,,,,,,7,Ontime,h,1,2.052,8,3,35,2,1,,,,,
0.6,,,,,,,,,g.PNG,g,5da29f43e0e3c20012fd9d46,2021-09-08_14h56.21.964,forced_choiceRT,2021.1.2,Win32,60.0240096,,,,,,,,7,Ontime,g,1,1.901,9,0,36,1,1,,,,,
1.54,,,,,,,,,h.PNG,h,5da29f43e0e3c20012fd9d46,2021-09-08_14h56.21.964,forced_choiceRT,2021.1.2,Win32,60.0240096,,,,,,,,7,Ontime,g,0,1.902,9,1,37,2,1,,,,,
1.6,,,,,,,,,h.PNG,h,5da29f43e0e3c20012fd9d46,2021-09-08_14h56.21.964,forced_choiceRT,2021.1.2,Win32,60.0240096,,,,,,,,7,Ontime,j,0,1.935,9,2,38,2,1,,,,,
0.49,,,,,,,,,f.PNG,f,5da29f43e0e3c20012fd9d46,2021-09-08_14h56.21.964,forced_choiceRT,2021.1.2,Win32,60.0240096,,,,,,,,7,Fast,f,1,1.891,9,3,39,0,1,,,,,
,,,,,,,,,,,5da29f43e0e3c20012fd9d46,2021-09-08_14h56.21.964,forced_choiceRT,2021.1.2,Win32,60.0240096,,,,,,,,,,,,,,,,,,6,0,6,0,1
0.96,,,,,,,,,h.PNG,h,5da29f43e0e3c20012fd9d46,2021-09-08_14h56.21.964,forced_choiceRT,2021.1.2,Win32,60.0240096,,,,,,,,8,Ontime,h,1,1.914,0,0,0,2,1,,,,,
1.73,,,,,,,,,g.PNG,g,5da29f43e0e3c20012fd9d46,2021-09-08_14h56.21.964,forced_choiceRT,2021.1.2,Win32,60.0240096,,,,,,,,8,Ontime,f,0,1.967,0,1,1,1,1,,,,,
1.04,,,,,,,,,f.PNG,f,5da29f43e0e3c20012fd9d46,2021-09-08_14h56.21.964,forced_choiceRT,2021.1.2,Win32,60.0240096,,,,,,,,8,Ontime,f,1,1.901,0,2,2,0,1,,,,,
0.97,,,,,,,,,h.PNG,h,5da29f43e0e3c20012fd9d46,2021-09-08_14h56.21.964,forced_choiceRT,2021.1.2,Win32,60.0240096,,,,,,,,8,Fast,h,1,1.784,0,3,3,2,1,,,,,
1.47,,,,,,,,,h.PNG,h,5da29f43e0e3c20012fd9d46,2021-09-08_14h56.21.964,forced_choiceRT,2021.1.2,Win32,60.0240096,,,,,,,,8,Ontime,h,1,1.934,1,0,4,2,1,,,,,
0.9,,,,,,,,,j.PNG,j,5da29f43e0e3c20012fd9d46,2021-09-08_14h56.21.964,forced_choiceRT,2021.1.2,Win32,60.0240096,,,,,,,,8,Ontime,j,1,1.9,1,1,5,3,1,,,,,
1.64,,,,,,,,,f.PNG,f,5da29f43e0e3c20012fd9d46,2021-09-08_14h56.21.964,forced_choiceRT,2021.1.2,Win32,60.0240096,,,,,,,,8,Ontime,j,0,2.001,1,2,6,0,1,,,,,
1.78,,,,,,,,,g.PNG,g,5da29f43e0e3c20012fd9d46,2021-09-08_14h56.21.964,forced_choiceRT,2021.1.2,Win32,60.0240096,,,,,,,,8,Ontime,f,0,2.001,1,3,7,1,1,,,,,
1.68,,,,,,,,,f.PNG,f,5da29f43e0e3c20012fd9d46,2021-09-08_14h56.21.964,forced_choiceRT,2021.1.2,Win32,60.0240096,,,,,,,,8,Ontime,f,1,2.028,2,0,8,0,1,,,,,
1.33,,,,,,,,,f.PNG,f,5da29f43e0e3c20012fd9d46,2021-09-08_14h56.21.964,forced_choiceRT,2021.1.2,Win32,60.0240096,,,,,,,,8,Ontime,f,1,1.97,2,1,9,0,1,,,,,
1.55,,,,,,,,,j.PNG,j,5da29f43e0e3c20012fd9d46,2021-09-08_14h56.21.964,forced_choiceRT,2021.1.2,Win32,60.0240096,,,,,,,,8,Ontime,g,0,1.967,2,2,10,3,1,,,,,
1.87,,,,,,,,,h.PNG,h,5da29f43e0e3c20012fd9d46,2021-09-08_14h56.21.964,forced_choiceRT,2021.1.2,Win32,60.0240096,,,,,,,,8,Ontime,j,0,1.934,2,3,11,2,1,,,,,
1.23,,,,,,,,,g.PNG,g,5da29f43e0e3c20012fd9d46,2021-09-08_14h56.21.964,forced_choiceRT,2021.1.2,Win32,60.0240096,,,,,,,,8,Fast,g,1,1.884,3,0,12,1,1,,,,,
1.68,,,,,,,,,h.PNG,h,5da29f43e0e3c20012fd9d46,2021-09-08_14h56.21.964,forced_choiceRT,2021.1.2,Win32,60.0240096,,,,,,,,8,Ontime,g,0,1.95,3,1,13,2,1,,,,,
1.8,,,,,,,,,j.PNG,j,5da29f43e0e3c20012fd9d46,2021-09-08_14h56.21.964,forced_choiceRT,2021.1.2,Win32,60.0240096,,,,,,,,8,Ontime,h,0,1.972,3,2,14,3,1,,,,,
0.95,,,,,,,,,j.PNG,j,5da29f43e0e3c20012fd9d46,2021-09-08_14h56.21.964,forced_choiceRT,2021.1.2,Win32,60.0240096,,,,,,,,8,Ontime,j,1,1.95,3,3,15,3,1,,,,,
0.59,,,,,,,,,f.PNG,f,5da29f43e0e3c20012fd9d46,2021-09-08_14h56.21.964,forced_choiceRT,2021.1.2,Win32,60.0240096,,,,,,,,8,Ontime,f,1,2,4,0,16,0,1,,,,,
0.48,,,,,,,,,g.PNG,g,5da29f43e0e3c20012fd9d46,2021-09-08_14h56.21.964,forced_choiceRT,2021.1.2,Win32,60.0240096,,,,,,,,8,Ontime,g,1,1.967,4,1,17,1,1,,,,,
0.72,,,,,,,,,j.PNG,j,5da29f43e0e3c20012fd9d46,2021-09-08_14h56.21.964,forced_choiceRT,2021.1.2,Win32,60.0240096,,,,,,,,8,Ontime,j,1,1.983,4,2,18,3,1,,,,,
0.41,,,,,,,,,g.PNG,g,5da29f43e0e3c20012fd9d46,2021-09-08_14h56.21.964,forced_choiceRT,2021.1.2,Win32,60.0240096,,,,,,,,8,Ontime,g,1,2.018,4,3,19,1,1,,,,,
0.84,,,,,,,,,g.PNG,g,5da29f43e0e3c20012fd9d46,2021-09-08_14h56.21.964,forced_choiceRT,2021.1.2,Win32,60.0240096,,,,,,,,8,Ontime,g,1,2.001,5,0,20,1,1,,,,,
0.73,,,,,,,,,f.PNG,f,5da29f43e0e3c20012fd9d46,2021-09-08_14h56.21.964,forced_choiceRT,2021.1.2,Win32,60.0240096,,,,,,,,8,Ontime,f,1,2.001,5,1,21,0,1,,,,,
1.78,,,,,,,,,j.PNG,j,5da29f43e0e3c20012fd9d46,2021-09-08_14h56.21.964,forced_choiceRT,2021.1.2,Win32,60.0240096,,,,,,,,8,Slow,g,0,2.135,5,2,22,3,1,,,,,
1.14,,,,,,,,,g.PNG,g,5da29f43e0e3c20012fd9d46,2021-09-08_14h56.21.964,forced_choiceRT,2021.1.2,Win32,60.0240096,,,,,,,,8,Ontime,g,1,1.984,5,3,23,1,1,,,,,
0.93,,,,,,,,,h.PNG,h,5da29f43e0e3c20012fd9d46,2021-09-08_14h56.21.964,forced_choiceRT,2021.1.2,Win32,60.0240096,,,,,,,,8,Ontime,h,1,1.918,6,0,24,2,1,,,,,
1.44,,,,,,,,,f.PNG,f,5da29f43e0e3c20012fd9d46,2021-09-08_14h56.21.964,forced_choiceRT,2021.1.2,Win32,60.0240096,,,,,,,,8,Ontime,f,1,2.001,6,1,25,0,1,,,,,
0.72,,,,,,,,,h.PNG,h,5da29f43e0e3c20012fd9d46,2021-09-08_14h56.21.964,forced_choiceRT,2021.1.2,Win32,60.0240096,,,,,,,,8,Ontime,h,1,1.952,6,2,26,2,1,,,,,
0.38,,,,,,,,,f.PNG,f,5da29f43e0e3c20012fd9d46,2021-09-08_14h56.21.964,forced_choiceRT,2021.1.2,Win32,60.0240096,,,,,,,,8,Ontime,f,1,1.902,6,3,27,0,1,,,,,
0.55,,,,,,,,,g.PNG,g,5da29f43e0e3c20012fd9d46,2021-09-08_14h56.21.964,forced_choiceRT,2021.1.2,Win32,60.0240096,,,,,,,,8,Ontime,g,1,2.001,7,0,28,1,1,,,,,
0.41,,,,,,,,,j.PNG,j,5da29f43e0e3c20012fd9d46,2021-09-08_14h56.21.964,forced_choiceRT,2021.1.2,Win32,60.0240096,,,,,,,,8,Ontime,j,1,2.001,7,1,29,3,1,,,,,
1.2,,,,,,,,,j.PNG,j,5da29f43e0e3c20012fd9d46,2021-09-08_14h56.21.964,forced_choiceRT,2021.1.2,Win32,60.0240096,,,,,,,,8,Ontime,j,1,2.02,7,2,30,3,1,,,,,
0.19,,,,,,,,,j.PNG,j,5da29f43e0e3c20012fd9d46,2021-09-08_14h56.21.964,forced_choiceRT,2021.1.2,Win32,60.0240096,,,,,,,,8,Ontime,j,1,2.018,7,3,31,3,1,,,,,
0.75,,,,,,,,,h.PNG,h,5da29f43e0e3c20012fd9d46,2021-09-08_14h56.21.964,forced_choiceRT,2021.1.2,Win32,60.0240096,,,,,,,,8,Ontime,h,1,2.052,8,0,32,2,1,,,,,
0.75,,,,,,,,,h.PNG,h,5da29f43e0e3c20012fd9d46,2021-09-08_14h56.21.964,forced_choiceRT,2021.1.2,Win32,60.0240096,,,,,,,,8,Ontime,h,1,2.001,8,1,33,2,1,,,,,
1.42,,,,,,,,,g.PNG,g,5da29f43e0e3c20012fd9d46,2021-09-08_14h56.21.964,forced_choiceRT,2021.1.2,Win32,60.0240096,,,,,,,,8,Ontime,g,1,1.984,8,2,34,1,1,,,,,
0.79,,,,,,,,,f.PNG,f,5da29f43e0e3c20012fd9d46,2021-09-08_14h56.21.964,forced_choiceRT,2021.1.2,Win32,60.0240096,,,,,,,,8,Ontime,f,1,2.034,8,3,35,0,1,,,,,
1.67,,,,,,,,,f.PNG,f,5da29f43e0e3c20012fd9d46,2021-09-08_14h56.21.964,forced_choiceRT,2021.1.2,Win32,60.0240096,,,,,,,,8,Ontime,f,1,2.001,9,0,36,0,1,,,,,
0.46,,,,,,,,,j.PNG,j,5da29f43e0e3c20012fd9d46,2021-09-08_14h56.21.964,forced_choiceRT,2021.1.2,Win32,60.0240096,,,,,,,,8,Ontime,j,1,1.968,9,1,37,3,1,,,,,
0.86,,,,,,,,,g.PNG,g,5da29f43e0e3c20012fd9d46,2021-09-08_14h56.21.964,forced_choiceRT,2021.1.2,Win32,60.0240096,,,,,,,,8,Ontime,g,1,1.968,9,2,38,1,1,,,,,
0.2,,,,,,,,,h.PNG,h,5da29f43e0e3c20012fd9d46,2021-09-08_14h56.21.964,forced_choiceRT,2021.1.2,Win32,60.0240096,,,,,,,,8,Ontime,h,1,1.968,9,3,39,2,1,,,,,
,,,,,,,,,,,5da29f43e0e3c20012fd9d46,2021-09-08_14h56.21.964,forced_choiceRT,2021.1.2,Win32,60.0240096,,,,,,,,,,,,,,,,,,7,0,7,0,1
1.99,,,,,,,,,j.PNG,j,5da29f43e0e3c20012fd9d46,2021-09-08_14h56.21.964,forced_choiceRT,2021.1.2,Win32,60.0240096,,,,,,,,9,Ontime,h,0,2.012,0,0,0,3,1,,,,,
1.44,,,,,,,,,f.PNG,f,5da29f43e0e3c20012fd9d46,2021-09-08_14h56.21.964,forced_choiceRT,2021.1.2,Win32,60.0240096,,,,,,,,9,Ontime,f,1,1.985,0,1,1,0,1,,,,,
1.62,,,,,,,,,j.PNG,j,5da29f43e0e3c20012fd9d46,2021-09-08_14h56.21.964,forced_choiceRT,2021.1.2,Win32,60.0240096,,,,,,,,9,Ontime,f,0,1.984,0,2,2,3,1,,,,,
1.22,,,,,,,,,h.PNG,h,5da29f43e0e3c20012fd9d46,2021-09-08_14h56.21.964,forced_choiceRT,2021.1.2,Win32,60.0240096,,,,,,,,9,Ontime,h,1,1.967,0,3,3,2,1,,,,,
1.61,,,,,,,,,g.PNG,g,5da29f43e0e3c20012fd9d46,2021-09-08_14h56.21.964,forced_choiceRT,2021.1.2,Win32,60.0240096,,,,,,,,9,Slow,f,0,2.101,1,0,4,1,1,,,,,
1.93,,,,,,,,,h.PNG,h,5da29f43e0e3c20012fd9d46,2021-09-08_14h56.21.964,forced_choiceRT,2021.1.2,Win32,60.0240096,,,,,,,,9,Slow,g,0,2.285,1,1,5,2,1,,,,,
1.03,,,,,,,,,h.PNG,h,5da29f43e0e3c20012fd9d46,2021-09-08_14h56.21.964,forced_choiceRT,2021.1.2,Win32,60.0240096,,,,,,,,9,Ontime,h,1,1.967,1,2,6,2,1,,,,,
1.45,,,,,,,,,h.PNG,h,5da29f43e0e3c20012fd9d46,2021-09-08_14h56.21.964,forced_choiceRT,2021.1.2,Win32,60.0240096,,,,,,,,9,Ontime,h,1,2.052,1,3,7,2,1,,,,,
1.82,,,,,,,,,g.PNG,g,5da29f43e0e3c20012fd9d46,2021-09-08_14h56.21.964,forced_choiceRT,2021.1.2,Win32,60.0240096,,,,,,,,9,Slow,h,0,2.101,2,0,8,1,1,,,,,
0.33,,,,,,,,,g.PNG,g,5da29f43e0e3c20012fd9d46,2021-09-08_14h56.21.964,forced_choiceRT,2021.1.2,Win32,60.0240096,,,,,,,,9,Ontime,g,1,2.086,2,1,9,1,1,,,,,
1.21,,,,,,,,,g.PNG,g,5da29f43e0e3c20012fd9d46,2021-09-08_14h56.21.964,forced_choiceRT,2021.1.2,Win32,60.0240096,,,,,,,,9,Ontime,g,1,2.051,2,2,10,1,1,,,,,
0.99,,,,,,,,,j.PNG,j,5da29f43e0e3c20012fd9d46,2021-09-08_14h56.21.964,forced_choiceRT,2021.1.2,Win32,60.0240096,,,,,,,,9,Ontime,j,1,2,2,3,11,3,1,,,,,
1.71,,,,,,,,,f.PNG,f,5da29f43e0e3c20012fd9d46,2021-09-08_14h56.21.964,forced_choiceRT,2021.1.2,Win32,60.0240096,,,,,,,,9,Ontime,j,0,1.968,3,0,12,0,1,,,,,
1.49,,,,,,,,,h.PNG,h,5da29f43e0e3c20012fd9d46,2021-09-08_14h56.21.964,forced_choiceRT,2021.1.2,Win32,60.0240096,,,,,,,,9,Ontime,f,0,2.003,3,1,13,2,1,,,,,
1.03,,,,,,,,,g.PNG,g,5da29f43e0e3c20012fd9d46,2021-09-08_14h56.21.964,forced_choiceRT,2021.1.2,Win32,60.0240096,,,,,,,,9,Ontime,g,1,1.967,3,2,14,1,1,,,,,
1.6,,,,,,,,,f.PNG,f,5da29f43e0e3c20012fd9d46,2021-09-08_14h56.21.964,forced_choiceRT,2021.1.2,Win32,60.0240096,,,,,,,,9,Ontime,g,0,1.968,3,3,15,0,1,,,,,
0.94,,,,,,,,,g.PNG,g,5da29f43e0e3c20012fd9d46,2021-09-08_14h56.21.964,forced_choiceRT,2021.1.2,Win32,60.0240096,,,,,,,,9,Ontime,g,1,1.916,4,0,16,1,1,,,,,
0.46,,,,,,,,,j.PNG,j,5da29f43e0e3c20012fd9d46,2021-09-08_14h56.21.964,forced_choiceRT,2021.1.2,Win32,60.0240096,,,,,,,,9,Ontime,j,1,1.969,4,1,17,3,1,,,,,
1.16,,,,,,,,,g.PNG,g,5da29f43e0e3c20012fd9d46,2021-09-08_14h56.21.964,forced_choiceRT,2021.1.2,Win32,60.0240096,,,,,,,,9,Ontime,g,1,1.933,4,2,18,1,1,,,,,
1.13,,,,,,,,,j.PNG,j,5da29f43e0e3c20012fd9d46,2021-09-08_14h56.21.964,forced_choiceRT,2021.1.2,Win32,60.0240096,,,,,,,,9,Fast,j,1,1.884,4,3,19,3,1,,,,,
0.92,,,,,,,,,h.PNG,h,5da29f43e0e3c20012fd9d46,2021-09-08_14h56.21.964,forced_choiceRT,2021.1.2,Win32,60.0240096,,,,,,,,9,Fast,h,1,1.668,5,0,20,2,1,,,,,
1.78,,,,,,,,,g.PNG,g,5da29f43e0e3c20012fd9d46,2021-09-08_14h56.21.964,forced_choiceRT,2021.1.2,Win32,60.0240096,,,,,,,,9,Ontime,h,0,1.951,5,1,21,1,1,,,,,
0.9,,,,,,,,,h.PNG,h,5da29f43e0e3c20012fd9d46,2021-09-08_14h56.21.964,forced_choiceRT,2021.1.2,Win32,60.0240096,,,,,,,,9,Fast,h,1,1.886,5,2,22,2,1,,,,,
0.29,,,,,,,,,j.PNG,j,5da29f43e0e3c20012fd9d46,2021-09-08_14h56.21.964,forced_choiceRT,2021.1.2,Win32,60.0240096,,,,,,,,9,Ontime,j,1,1.951,5,3,23,3,1,,,,,
1.92,,,,,,,,,h.PNG,h,5da29f43e0e3c20012fd9d46,2021-09-08_14h56.21.964,forced_choiceRT,2021.1.2,Win32,60.0240096,,,,,,,,9,Fast,j,0,1.852,6,0,24,2,1,,,,,
1.27,,,,,,,,,j.PNG,j,5da29f43e0e3c20012fd9d46,2021-09-08_14h56.21.964,forced_choiceRT,2021.1.2,Win32,60.0240096,,,,,,,,9,Ontime,j,1,1.951,6,1,25,3,1,,,,,
1.68,,,,,,,,,j.PNG,j,5da29f43e0e3c20012fd9d46,2021-09-08_14h56.21.964,forced_choiceRT,2021.1.2,Win32,60.0240096,,,,,,,,9,Ontime,j,1,2.022,6,2,26,3,1,,,,,
0.02,,,,,,,,,f.PNG,f,5da29f43e0e3c20012fd9d46,2021-09-08_14h56.21.964,forced_choiceRT,2021.1.2,Win32,60.0240096,,,,,,,,9,Ontime,f,1,2.016,6,3,27,0,1,,,,,
1.01,,,,,,,,,f.PNG,f,5da29f43e0e3c20012fd9d46,2021-09-08_14h56.21.964,forced_choiceRT,2021.1.2,Win32,60.0240096,,,,,,,,9,Ontime,f,1,1.968,7,0,28,0,1,,,,,
0.93,,,,,,,,,f.PNG,f,5da29f43e0e3c20012fd9d46,2021-09-08_14h56.21.964,forced_choiceRT,2021.1.2,Win32,60.0240096,,,,,,,,9,Ontime,f,1,1.952,7,1,29,0,1,,,,,
0.07,,,,,,,,,f.PNG,f,5da29f43e0e3c20012fd9d46,2021-09-08_14h56.21.964,forced_choiceRT,2021.1.2,Win32,60.0240096,,,,,,,,9,Slow,f,1,2.101,7,2,30,0,1,,,,,
0.12,,,,,,,,,g.PNG,g,5da29f43e0e3c20012fd9d46,2021-09-08_14h56.21.964,forced_choiceRT,2021.1.2,Win32,60.0240096,,,,,,,,9,Ontime,g,1,2.051,7,3,31,1,1,,,,,
0.62,,,,,,,,,j.PNG,j,5da29f43e0e3c20012fd9d46,2021-09-08_14h56.21.964,forced_choiceRT,2021.1.2,Win32,60.0240096,,,,,,,,9,Ontime,j,1,2.054,8,0,32,3,1,,,,,
0.86,,,,,,,,,g.PNG,g,5da29f43e0e3c20012fd9d46,2021-09-08_14h56.21.964,forced_choiceRT,2021.1.2,Win32,60.0240096,,,,,,,,9,Ontime,g,1,2.051,8,1,33,1,1,,,,,
1.35,,,,,,,,,f.PNG,f,5da29f43e0e3c20012fd9d46,2021-09-08_14h56.21.964,forced_choiceRT,2021.1.2,Win32,60.0240096,,,,,,,,9,Ontime,f,1,2.07,8,2,34,0,1,,,,,
0.21,,,,,,,,,f.PNG,f,5da29f43e0e3c20012fd9d46,2021-09-08_14h56.21.964,forced_choiceRT,2021.1.2,Win32,60.0240096,,,,,,,,9,Ontime,f,1,2.018,8,3,35,0,1,,,,,
1.56,,,,,,,,,h.PNG,h,5da29f43e0e3c20012fd9d46,2021-09-08_14h56.21.964,forced_choiceRT,2021.1.2,Win32,60.0240096,,,,,,,,9,Ontime,h,1,2.085,9,0,36,2,1,,,,,
1.52,,,,,,,,,j.PNG,j,5da29f43e0e3c20012fd9d46,2021-09-08_14h56.21.964,forced_choiceRT,2021.1.2,Win32,60.0240096,,,,,,,,9,Slow,j,1,2.35,9,1,37,3,1,,,,,
0.23,,,,,,,,,h.PNG,h,5da29f43e0e3c20012fd9d46,2021-09-08_14h56.21.964,forced_choiceRT,2021.1.2,Win32,60.0240096,,,,,,,,9,Ontime,h,1,1.987,9,2,38,2,1,,,,,
0.71,,,,,,,,,f.PNG,f,5da29f43e0e3c20012fd9d46,2021-09-08_14h56.21.964,forced_choiceRT,2021.1.2,Win32,60.0240096,,,,,,,,9,Ontime,f,1,2.031,9,3,39,0,1,,,,,
,,,,,,,,,,,5da29f43e0e3c20012fd9d46,2021-09-08_14h56.21.964,forced_choiceRT,2021.1.2,Win32,60.0240096,,,,,,,,,,,,,,,,,,8,0,8,0,1
1.63,,,,,,,,,j.PNG,j,5da29f43e0e3c20012fd9d46,2021-09-08_14h56.21.964,forced_choiceRT,2021.1.2,Win32,60.0240096,,,,,,,,10,Ontime,f,0,1.947,0,0,0,3,1,,,,,
0.41,,,,,,,,,f.PNG,f,5da29f43e0e3c20012fd9d46,2021-09-08_14h56.21.964,forced_choiceRT,2021.1.2,Win32,60.0240096,,,,,,,,10,Ontime,f,1,1.918,0,1,1,0,1,,,,,
0.48,,,,,,,,,g.PNG,g,5da29f43e0e3c20012fd9d46,2021-09-08_14h56.21.964,forced_choiceRT,2021.1.2,Win32,60.0240096,,,,,,,,10,Fast,g,1,1.895,0,2,2,1,1,,,,,
1.94,,,,,,,,,j.PNG,j,5da29f43e0e3c20012fd9d46,2021-09-08_14h56.21.964,forced_choiceRT,2021.1.2,Win32,60.0240096,,,,,,,,10,Ontime,g,0,2,0,3,3,3,1,,,,,
0.8,,,,,,,,,g.PNG,g,5da29f43e0e3c20012fd9d46,2021-09-08_14h56.21.964,forced_choiceRT,2021.1.2,Win32,60.0240096,,,,,,,,10,Ontime,g,1,1.967,1,0,4,1,1,,,,,
1.44,,,,,,,,,g.PNG,g,5da29f43e0e3c20012fd9d46,2021-09-08_14h56.21.964,forced_choiceRT,2021.1.2,Win32,60.0240096,,,,,,,,10,Ontime,g,1,1.966,1,1,5,1,1,,,,,
1.77,,,,,,,,,j.PNG,j,5da29f43e0e3c20012fd9d46,2021-09-08_14h56.21.964,forced_choiceRT,2021.1.2,Win32,60.0240096,,,,,,,,10,Ontime,g,0,2.035,1,2,6,3,1,,,,,
0.11,,,,,,,,,h.PNG,h,5da29f43e0e3c20012fd9d46,2021-09-08_14h56.21.964,forced_choiceRT,2021.1.2,Win32,60.0240096,,,,,,,,10,Fast,h,1,1.851,1,3,7,2,1,,,,,
0.88,,,,,,,,,g.PNG,g,5da29f43e0e3c20012fd9d46,2021-09-08_14h56.21.964,forced_choiceRT,2021.1.2,Win32,60.0240096,,,,,,,,10,Ontime,g,1,2.003,2,0,8,1,1,,,,,
0.79,,,,,,,,,f.PNG,f,5da29f43e0e3c20012fd9d46,2021-09-08_14h56.21.964,forced_choiceRT,2021.1.2,Win32,60.0240096,,,,,,,,10,Ontime,f,1,1.986,2,1,9,0,1,,,,,
0.52,,,,,,,,,h.PNG,h,5da29f43e0e3c20012fd9d46,2021-09-08_14h56.21.964,forced_choiceRT,2021.1.2,Win32,60.0240096,,,,,,,,10,Ontime,h,1,2.051,2,2,10,2,1,,,,,
1.28,,,,,,,,,f.PNG,f,5da29f43e0e3c20012fd9d46,2021-09-08_14h56.21.964,forced_choiceRT,2021.1.2,Win32,60.0240096,,,,,,,,10,Ontime,f,1,1.967,2,3,11,0,1,,,,,
1.97,,,,,,,,,h.PNG,h,5da29f43e0e3c20012fd9d46,2021-09-08_14h56.21.964,forced_choiceRT,2021.1.2,Win32,60.0240096,,,,,,,,10,Ontime,f,0,2.05,3,0,12,2,1,,,,,
1,,,,,,,,,h.PNG,h,5da29f43e0e3c20012fd9d46,2021-09-08_14h56.21.964,forced_choiceRT,2021.1.2,Win32,60.0240096,,,,,,,,10,Ontime,h,1,2.001,3,1,13,2,1,,,,,
0.55,,,,,,,,,h.PNG,h,5da29f43e0e3c20012fd9d46,2021-09-08_14h56.21.964,forced_choiceRT,2021.1.2,Win32,60.0240096,,,,,,,,10,Ontime,h,1,2.001,3,2,14,2,1,,,,,
0.54,,,,,,,,,h.PNG,h,5da29f43e0e3c20012fd9d46,2021-09-08_14h56.21.964,forced_choiceRT,2021.1.2,Win32,60.0240096,,,,,,,,10,Ontime,h,1,2.036,3,3,15,2,1,,,,,
0.59,,,,,,,,,g.PNG,g,5da29f43e0e3c20012fd9d46,2021-09-08_14h56.21.964,forced_choiceRT,2021.1.2,Win32,60.0240096,,,,,,,,10,Ontime,g,1,2.001,4,0,16,1,1,,,,,
1.68,,,,,,,,,f.PNG,f,5da29f43e0e3c20012fd9d46,2021-09-08_14h56.21.964,forced_choiceRT,2021.1.2,Win32,60.0240096,,,,,,,,10,Ontime,g,0,1.984,4,1,17,0,1,,,,,
1.26,,,,,,,,,f.PNG,f,5da29f43e0e3c20012fd9d46,2021-09-08_14h56.21.964,forced_choiceRT,2021.1.2,Win32,60.0240096,,,,,,,,10,Ontime,f,1,1.955,4,2,18,0,1,,,,,
0.33,,,,,,,,,j.PNG,j,5da29f43e0e3c20012fd9d46,2021-09-08_14h56.21.964,forced_choiceRT,2021.1.2,Win32,60.0240096,,,,,,,,10,Ontime,j,1,1.966,4,3,19,3,1,,,,,
0.13,,,,,,,,,h.PNG,h,5da29f43e0e3c20012fd9d46,2021-09-08_14h56.21.964,forced_choiceRT,2021.1.2,Win32,60.0240096,,,,,,,,10,Ontime,h,1,1.921,5,0,20,2,1,,,,,
0.46,,,,,,,,,j.PNG,j,5da29f43e0e3c20012fd9d46,2021-09-08_14h56.21.964,forced_choiceRT,2021.1.2,Win32,60.0240096,,,,,,,,10,Ontime,j,1,1.984,5,1,21,3,1,,,,,
0.12,,,,,,,,,g.PNG,g,5da29f43e0e3c20012fd9d46,2021-09-08_14h56.21.964,forced_choiceRT,2021.1.2,Win32,60.0240096,,,,,,,,10,Ontime,g,1,1.95,5,2,22,1,1,,,,,
0.51,,,,,,,,,g.PNG,g,5da29f43e0e3c20012fd9d46,2021-09-08_14h56.21.964,forced_choiceRT,2021.1.2,Win32,60.0240096,,,,,,,,10,Ontime,g,1,2.006,5,3,23,1,1,,,,,
1.83,,,,,,,,,f.PNG,f,5da29f43e0e3c20012fd9d46,2021-09-08_14h56.21.964,forced_choiceRT,2021.1.2,Win32,60.0240096,,,,,,,,10,Ontime,g,0,1.988,6,0,24,0,1,,,,,
1.82,,,,,,,,,j.PNG,j,5da29f43e0e3c20012fd9d46,2021-09-08_14h56.21.964,forced_choiceRT,2021.1.2,Win32,60.0240096,,,,,,,,10,Ontime,f,0,1.969,6,1,25,3,1,,,,,
1.03,,,,,,,,,j.PNG,j,5da29f43e0e3c20012fd9d46,2021-09-08_14h56.21.964,forced_choiceRT,2021.1.2,Win32,60.0240096,,,,,,,,10,Ontime,j,1,1.952,6,2,26,3,1,,,,,
1.66,,,,,,,,,h.PNG,h,5da29f43e0e3c20012fd9d46,2021-09-08_14h56.21.964,forced_choiceRT,2021.1.2,Win32,60.0240096,,,,,,,,10,Ontime,h,1,1.95,6,3,27,2,1,,,,,
1.87,,,,,,,,,g.PNG,g,5da29f43e0e3c20012fd9d46,2021-09-08_14h56.21.964,forced_choiceRT,2021.1.2,Win32,60.0240096,,,,,,,,10,Slow,f,0,2.104,7,0,28,1,1,,,,,
1.23,,,,,,,,,h.PNG,h,5da29f43e0e3c20012fd9d46,2021-09-08_14h56.21.964,forced_choiceRT,2021.1.2,Win32,60.0240096,,,,,,,,10,Ontime,h,1,2.002,7,1,29,2,1,,,,,
1.44,,,,,,,,,j.PNG,j,5da29f43e0e3c20012fd9d46,2021-09-08_14h56.21.964,forced_choiceRT,2021.1.2,Win32,60.0240096,,,,,,,,10,Ontime,j,1,2.034,7,2,30,3,1,,,,,
1.66,,,,,,,,,j.PNG,j,5da29f43e0e3c20012fd9d46,2021-09-08_14h56.21.964,forced_choiceRT,2021.1.2,Win32,60.0240096,,,,,,,,10,Ontime,j,1,2.002,7,3,31,3,1,,,,,
1.67,,,,,,,,,f.PNG,f,5da29f43e0e3c20012fd9d46,2021-09-08_14h56.21.964,forced_choiceRT,2021.1.2,Win32,60.0240096,,,,,,,,10,Slow,h,0,2.117,8,0,32,0,1,,,,,
0.58,,,,,,,,,j.PNG,j,5da29f43e0e3c20012fd9d46,2021-09-08_14h56.21.964,forced_choiceRT,2021.1.2,Win32,60.0240096,,,,,,,,10,Ontime,j,1,1.984,8,1,33,3,1,,,,,
1.9,,,,,,,,,f.PNG,f,5da29f43e0e3c20012fd9d46,2021-09-08_14h56.21.964,forced_choiceRT,2021.1.2,Win32,60.0240096,,,,,,,,10,Ontime,f,1,1.932,8,2,34,0,1,,,,,
1.15,,,,,,,,,g.PNG,g,5da29f43e0e3c20012fd9d46,2021-09-08_14h56.21.964,forced_choiceRT,2021.1.2,Win32,60.0240096,,,,,,,,10,Ontime,g,1,2.034,8,3,35,1,1,,,,,
1.3,,,,,,,,,f.PNG,f,5da29f43e0e3c20012fd9d46,2021-09-08_14h56.21.964,forced_choiceRT,2021.1.2,Win32,60.0240096,,,,,,,,10,Slow,f,1,2.153,9,0,36,0,1,,,,,
1.52,,,,,,,,,f.PNG,f,5da29f43e0e3c20012fd9d46,2021-09-08_14h56.21.964,forced_choiceRT,2021.1.2,Win32,60.0240096,,,,,,,,10,Ontime,f,1,2.017,9,1,37,0,1,,,,,
1.38,,,,,,,,,h.PNG,h,5da29f43e0e3c20012fd9d46,2021-09-08_14h56.21.964,forced_choiceRT,2021.1.2,Win32,60.0240096,,,,,,,,10,Ontime,h,1,1.983,9,2,38,2,1,,,,,
0.41,,,,,,,,,g.PNG,g,5da29f43e0e3c20012fd9d46,2021-09-08_14h56.21.964,forced_choiceRT,2021.1.2,Win32,60.0240096,,,,,,,,10,Ontime,g,1,2.002,9,3,39,1,1,,,,,
,,,,,,,,,,,5da29f43e0e3c20012fd9d46,2021-09-08_14h56.21.964,forced_choiceRT,2021.1.2,Win32,60.0240096,,,,,,,,,,,,,,,,,,9,0,9,0,1
