target_onset,trial_resp_sp.keys,trial_resp_sp.corr,trial_resp_sp.rt,trials_train_loop.thisRepN,trials_train_loop.thisTrialN,trials_train_loop.thisN,trials_train_loop.thisIndex,trials_train_loop.ran,pic,correct_key,participant,date,expName,psychopyVersion,OS,frameRate,trial_resp_timing.keys,trial_resp_timing.rt,trials_train_timing.thisRepN,trials_train_timing.thisTrialN,trials_train_timing.thisN,trials_train_timing.thisIndex,trials_train_timing.ran,block_id,ontime,forcedRT_resp.keys,forcedRT_resp.corr,forcedRT_resp.rt,trials.thisRepN,trials.thisTrialN,trials.thisN,trials.thisIndex,trials.ran,blocks.thisRepN,blocks.thisTrialN,blocks.thisN,blocks.thisIndex,blocks.ran
0,g,1,1.095,0,0,0,1,1,g.PNG,g,5db508259ca75a000d583b9a,2021-09-08_17h54.21.631,forced_choiceRT,2021.1.2,Linux x86_64,60.31363088,,,,,,,,,,,,,,,,,,,,,,
0,g,1,0.847,0,1,1,1,1,g.PNG,g,5db508259ca75a000d583b9a,2021-09-08_17h54.21.631,forced_choiceRT,2021.1.2,Linux x86_64,60.31363088,,,,,,,,,,,,,,,,,,,,,,
0,h,1,1.113,0,2,2,2,1,h.PNG,h,5db508259ca75a000d583b9a,2021-09-08_17h54.21.631,forced_choiceRT,2021.1.2,Linux x86_64,60.31363088,,,,,,,,,,,,,,,,,,,,,,
0,j,1,0.822,0,3,3,3,1,j.PNG,j,5db508259ca75a000d583b9a,2021-09-08_17h54.21.631,forced_choiceRT,2021.1.2,Linux x86_64,60.31363088,,,,,,,,,,,,,,,,,,,,,,
0,h,1,1.259,1,0,4,2,1,h.PNG,h,5db508259ca75a000d583b9a,2021-09-08_17h54.21.631,forced_choiceRT,2021.1.2,Linux x86_64,60.31363088,,,,,,,,,,,,,,,,,,,,,,
0,j,1,0.93,1,1,5,3,1,j.PNG,j,5db508259ca75a000d583b9a,2021-09-08_17h54.21.631,forced_choiceRT,2021.1.2,Linux x86_64,60.31363088,,,,,,,,,,,,,,,,,,,,,,
0,g,1,0.866,1,2,6,1,1,g.PNG,g,5db508259ca75a000d583b9a,2021-09-08_17h54.21.631,forced_choiceRT,2021.1.2,Linux x86_64,60.31363088,,,,,,,,,,,,,,,,,,,,,,
0,j,1,0.9,1,3,7,3,1,j.PNG,j,5db508259ca75a000d583b9a,2021-09-08_17h54.21.631,forced_choiceRT,2021.1.2,Linux x86_64,60.31363088,,,,,,,,,,,,,,,,,,,,,,
0,g,1,0.848,2,0,8,1,1,g.PNG,g,5db508259ca75a000d583b9a,2021-09-08_17h54.21.631,forced_choiceRT,2021.1.2,Linux x86_64,60.31363088,,,,,,,,,,,,,,,,,,,,,,
0,j,1,0.824,2,1,9,3,1,j.PNG,j,5db508259ca75a000d583b9a,2021-09-08_17h54.21.631,forced_choiceRT,2021.1.2,Linux x86_64,60.31363088,,,,,,,,,,,,,,,,,,,,,,
0,f,1,0.903,2,2,10,0,1,f.PNG,f,5db508259ca75a000d583b9a,2021-09-08_17h54.21.631,forced_choiceRT,2021.1.2,Linux x86_64,60.31363088,,,,,,,,,,,,,,,,,,,,,,
0,f,1,0.728,2,3,11,0,1,f.PNG,f,5db508259ca75a000d583b9a,2021-09-08_17h54.21.631,forced_choiceRT,2021.1.2,Linux x86_64,60.31363088,,,,,,,,,,,,,,,,,,,,,,
0,g,1,1.07,3,0,12,1,1,g.PNG,g,5db508259ca75a000d583b9a,2021-09-08_17h54.21.631,forced_choiceRT,2021.1.2,Linux x86_64,60.31363088,,,,,,,,,,,,,,,,,,,,,,
0,f,1,0.847,3,1,13,0,1,f.PNG,f,5db508259ca75a000d583b9a,2021-09-08_17h54.21.631,forced_choiceRT,2021.1.2,Linux x86_64,60.31363088,,,,,,,,,,,,,,,,,,,,,,
0,j,0,0.937,3,2,14,2,1,h.PNG,h,5db508259ca75a000d583b9a,2021-09-08_17h54.21.631,forced_choiceRT,2021.1.2,Linux x86_64,60.31363088,,,,,,,,,,,,,,,,,,,,,,
0,h,1,1.214,3,3,15,2,1,h.PNG,h,5db508259ca75a000d583b9a,2021-09-08_17h54.21.631,forced_choiceRT,2021.1.2,Linux x86_64,60.31363088,,,,,,,,,,,,,,,,,,,,,,
0,j,1,0.809,4,0,16,3,1,j.PNG,j,5db508259ca75a000d583b9a,2021-09-08_17h54.21.631,forced_choiceRT,2021.1.2,Linux x86_64,60.31363088,,,,,,,,,,,,,,,,,,,,,,
0,g,1,0.791,4,1,17,1,1,g.PNG,g,5db508259ca75a000d583b9a,2021-09-08_17h54.21.631,forced_choiceRT,2021.1.2,Linux x86_64,60.31363088,,,,,,,,,,,,,,,,,,,,,,
0,j,1,0.993,4,2,18,3,1,j.PNG,j,5db508259ca75a000d583b9a,2021-09-08_17h54.21.631,forced_choiceRT,2021.1.2,Linux x86_64,60.31363088,,,,,,,,,,,,,,,,,,,,,,
0,g,1,0.885,4,3,19,1,1,g.PNG,g,5db508259ca75a000d583b9a,2021-09-08_17h54.21.631,forced_choiceRT,2021.1.2,Linux x86_64,60.31363088,,,,,,,,,,,,,,,,,,,,,,
0,g,1,0.654,5,0,20,1,1,g.PNG,g,5db508259ca75a000d583b9a,2021-09-08_17h54.21.631,forced_choiceRT,2021.1.2,Linux x86_64,60.31363088,,,,,,,,,,,,,,,,,,,,,,
0,f,1,0.741,5,1,21,0,1,f.PNG,f,5db508259ca75a000d583b9a,2021-09-08_17h54.21.631,forced_choiceRT,2021.1.2,Linux x86_64,60.31363088,,,,,,,,,,,,,,,,,,,,,,
0,h,1,1.107,5,2,22,2,1,h.PNG,h,5db508259ca75a000d583b9a,2021-09-08_17h54.21.631,forced_choiceRT,2021.1.2,Linux x86_64,60.31363088,,,,,,,,,,,,,,,,,,,,,,
0,f,1,0.873,5,3,23,0,1,f.PNG,f,5db508259ca75a000d583b9a,2021-09-08_17h54.21.631,forced_choiceRT,2021.1.2,Linux x86_64,60.31363088,,,,,,,,,,,,,,,,,,,,,,
0,g,1,0.892,6,0,24,1,1,g.PNG,g,5db508259ca75a000d583b9a,2021-09-08_17h54.21.631,forced_choiceRT,2021.1.2,Linux x86_64,60.31363088,,,,,,,,,,,,,,,,,,,,,,
0,g,1,0.676,6,1,25,1,1,g.PNG,g,5db508259ca75a000d583b9a,2021-09-08_17h54.21.631,forced_choiceRT,2021.1.2,Linux x86_64,60.31363088,,,,,,,,,,,,,,,,,,,,,,
0,f,1,0.779,6,2,26,0,1,f.PNG,f,5db508259ca75a000d583b9a,2021-09-08_17h54.21.631,forced_choiceRT,2021.1.2,Linux x86_64,60.31363088,,,,,,,,,,,,,,,,,,,,,,
0,f,1,0.647,6,3,27,0,1,f.PNG,f,5db508259ca75a000d583b9a,2021-09-08_17h54.21.631,forced_choiceRT,2021.1.2,Linux x86_64,60.31363088,,,,,,,,,,,,,,,,,,,,,,
0,g,1,0.811,7,0,28,1,1,g.PNG,g,5db508259ca75a000d583b9a,2021-09-08_17h54.21.631,forced_choiceRT,2021.1.2,Linux x86_64,60.31363088,,,,,,,,,,,,,,,,,,,,,,
0,j,1,0.914,7,1,29,3,1,j.PNG,j,5db508259ca75a000d583b9a,2021-09-08_17h54.21.631,forced_choiceRT,2021.1.2,Linux x86_64,60.31363088,,,,,,,,,,,,,,,,,,,,,,
0,f,1,0.607,7,2,30,0,1,f.PNG,f,5db508259ca75a000d583b9a,2021-09-08_17h54.21.631,forced_choiceRT,2021.1.2,Linux x86_64,60.31363088,,,,,,,,,,,,,,,,,,,,,,
0,f,1,0.551,7,3,31,0,1,f.PNG,f,5db508259ca75a000d583b9a,2021-09-08_17h54.21.631,forced_choiceRT,2021.1.2,Linux x86_64,60.31363088,,,,,,,,,,,,,,,,,,,,,,
0,h,1,1.057,8,0,32,2,1,h.PNG,h,5db508259ca75a000d583b9a,2021-09-08_17h54.21.631,forced_choiceRT,2021.1.2,Linux x86_64,60.31363088,,,,,,,,,,,,,,,,,,,,,,
0,h,1,1.162,8,1,33,2,1,h.PNG,h,5db508259ca75a000d583b9a,2021-09-08_17h54.21.631,forced_choiceRT,2021.1.2,Linux x86_64,60.31363088,,,,,,,,,,,,,,,,,,,,,,
0,f,1,0.63,8,2,34,0,1,f.PNG,f,5db508259ca75a000d583b9a,2021-09-08_17h54.21.631,forced_choiceRT,2021.1.2,Linux x86_64,60.31363088,,,,,,,,,,,,,,,,,,,,,,
0,j,1,1.045,8,3,35,3,1,j.PNG,j,5db508259ca75a000d583b9a,2021-09-08_17h54.21.631,forced_choiceRT,2021.1.2,Linux x86_64,60.31363088,,,,,,,,,,,,,,,,,,,,,,
0,j,1,0.515,9,0,36,3,1,j.PNG,j,5db508259ca75a000d583b9a,2021-09-08_17h54.21.631,forced_choiceRT,2021.1.2,Linux x86_64,60.31363088,,,,,,,,,,,,,,,,,,,,,,
0,f,1,0.677,9,1,37,0,1,f.PNG,f,5db508259ca75a000d583b9a,2021-09-08_17h54.21.631,forced_choiceRT,2021.1.2,Linux x86_64,60.31363088,,,,,,,,,,,,,,,,,,,,,,
0,h,1,1.115,9,2,38,2,1,h.PNG,h,5db508259ca75a000d583b9a,2021-09-08_17h54.21.631,forced_choiceRT,2021.1.2,Linux x86_64,60.31363088,,,,,,,,,,,,,,,,,,,,,,
0,g,1,0.898,9,3,39,1,1,g.PNG,g,5db508259ca75a000d583b9a,2021-09-08_17h54.21.631,forced_choiceRT,2021.1.2,Linux x86_64,60.31363088,,,,,,,,,,,,,,,,,,,,,,
0,h,1,1.257,10,0,40,2,1,h.PNG,h,5db508259ca75a000d583b9a,2021-09-08_17h54.21.631,forced_choiceRT,2021.1.2,Linux x86_64,60.31363088,,,,,,,,,,,,,,,,,,,,,,
0,h,1,0.572,10,1,41,2,1,h.PNG,h,5db508259ca75a000d583b9a,2021-09-08_17h54.21.631,forced_choiceRT,2021.1.2,Linux x86_64,60.31363088,,,,,,,,,,,,,,,,,,,,,,
0,f,1,0.607,10,2,42,0,1,f.PNG,f,5db508259ca75a000d583b9a,2021-09-08_17h54.21.631,forced_choiceRT,2021.1.2,Linux x86_64,60.31363088,,,,,,,,,,,,,,,,,,,,,,
0,f,1,0.502,10,3,43,0,1,f.PNG,f,5db508259ca75a000d583b9a,2021-09-08_17h54.21.631,forced_choiceRT,2021.1.2,Linux x86_64,60.31363088,,,,,,,,,,,,,,,,,,,,,,
0,j,0,0.884,11,0,44,2,1,h.PNG,h,5db508259ca75a000d583b9a,2021-09-08_17h54.21.631,forced_choiceRT,2021.1.2,Linux x86_64,60.31363088,,,,,,,,,,,,,,,,,,,,,,
0,j,1,1.013,11,1,45,3,1,j.PNG,j,5db508259ca75a000d583b9a,2021-09-08_17h54.21.631,forced_choiceRT,2021.1.2,Linux x86_64,60.31363088,,,,,,,,,,,,,,,,,,,,,,
0,f,1,0.578,11,2,46,0,1,f.PNG,f,5db508259ca75a000d583b9a,2021-09-08_17h54.21.631,forced_choiceRT,2021.1.2,Linux x86_64,60.31363088,,,,,,,,,,,,,,,,,,,,,,
0,f,1,0.468,11,3,47,0,1,f.PNG,f,5db508259ca75a000d583b9a,2021-09-08_17h54.21.631,forced_choiceRT,2021.1.2,Linux x86_64,60.31363088,,,,,,,,,,,,,,,,,,,,,,
0,h,1,1.129,12,0,48,2,1,h.PNG,h,5db508259ca75a000d583b9a,2021-09-08_17h54.21.631,forced_choiceRT,2021.1.2,Linux x86_64,60.31363088,,,,,,,,,,,,,,,,,,,,,,
0,g,1,0.666,12,1,49,1,1,g.PNG,g,5db508259ca75a000d583b9a,2021-09-08_17h54.21.631,forced_choiceRT,2021.1.2,Linux x86_64,60.31363088,,,,,,,,,,,,,,,,,,,,,,
0,j,1,0.761,12,2,50,3,1,j.PNG,j,5db508259ca75a000d583b9a,2021-09-08_17h54.21.631,forced_choiceRT,2021.1.2,Linux x86_64,60.31363088,,,,,,,,,,,,,,,,,,,,,,
0,h,1,0.845,12,3,51,2,1,h.PNG,h,5db508259ca75a000d583b9a,2021-09-08_17h54.21.631,forced_choiceRT,2021.1.2,Linux x86_64,60.31363088,,,,,,,,,,,,,,,,,,,,,,
0,j,1,1.241,13,0,52,3,1,j.PNG,j,5db508259ca75a000d583b9a,2021-09-08_17h54.21.631,forced_choiceRT,2021.1.2,Linux x86_64,60.31363088,,,,,,,,,,,,,,,,,,,,,,
0,g,1,0.742,13,1,53,1,1,g.PNG,g,5db508259ca75a000d583b9a,2021-09-08_17h54.21.631,forced_choiceRT,2021.1.2,Linux x86_64,60.31363088,,,,,,,,,,,,,,,,,,,,,,
0,h,1,1.165,13,2,54,2,1,h.PNG,h,5db508259ca75a000d583b9a,2021-09-08_17h54.21.631,forced_choiceRT,2021.1.2,Linux x86_64,60.31363088,,,,,,,,,,,,,,,,,,,,,,
0,j,1,0.886,13,3,55,3,1,j.PNG,j,5db508259ca75a000d583b9a,2021-09-08_17h54.21.631,forced_choiceRT,2021.1.2,Linux x86_64,60.31363088,,,,,,,,,,,,,,,,,,,,,,
0,j,1,0.777,14,0,56,3,1,j.PNG,j,5db508259ca75a000d583b9a,2021-09-08_17h54.21.631,forced_choiceRT,2021.1.2,Linux x86_64,60.31363088,,,,,,,,,,,,,,,,,,,,,,
0,j,1,0.533,14,1,57,3,1,j.PNG,j,5db508259ca75a000d583b9a,2021-09-08_17h54.21.631,forced_choiceRT,2021.1.2,Linux x86_64,60.31363088,,,,,,,,,,,,,,,,,,,,,,
0,g,1,0.669,14,2,58,1,1,g.PNG,g,5db508259ca75a000d583b9a,2021-09-08_17h54.21.631,forced_choiceRT,2021.1.2,Linux x86_64,60.31363088,,,,,,,,,,,,,,,,,,,,,,
0,h,1,0.738,14,3,59,2,1,h.PNG,h,5db508259ca75a000d583b9a,2021-09-08_17h54.21.631,forced_choiceRT,2021.1.2,Linux x86_64,60.31363088,,,,,,,,,,,,,,,,,,,,,,
,,,,,,,,,,,5db508259ca75a000d583b9a,2021-09-08_17h54.21.631,forced_choiceRT,2021.1.2,Linux x86_64,60.31363088,f,2.221,0,0,0,0,1,,,,,,,,,,,,,,,
,,,,,,,,,,,5db508259ca75a000d583b9a,2021-09-08_17h54.21.631,forced_choiceRT,2021.1.2,Linux x86_64,60.31363088,h,2.067,1,0,1,0,1,,,,,,,,,,,,,,,
,,,,,,,,,,,5db508259ca75a000d583b9a,2021-09-08_17h54.21.631,forced_choiceRT,2021.1.2,Linux x86_64,60.31363088,h,2.059,2,0,2,0,1,,,,,,,,,,,,,,,
,,,,,,,,,,,5db508259ca75a000d583b9a,2021-09-08_17h54.21.631,forced_choiceRT,2021.1.2,Linux x86_64,60.31363088,j,2.057,3,0,3,0,1,,,,,,,,,,,,,,,
,,,,,,,,,,,5db508259ca75a000d583b9a,2021-09-08_17h54.21.631,forced_choiceRT,2021.1.2,Linux x86_64,60.31363088,g,2.121,4,0,4,0,1,,,,,,,,,,,,,,,
,,,,,,,,,,,5db508259ca75a000d583b9a,2021-09-08_17h54.21.631,forced_choiceRT,2021.1.2,Linux x86_64,60.31363088,f,2.031,5,0,5,0,1,,,,,,,,,,,,,,,
,,,,,,,,,,,5db508259ca75a000d583b9a,2021-09-08_17h54.21.631,forced_choiceRT,2021.1.2,Linux x86_64,60.31363088,g,2.1,6,0,6,0,1,,,,,,,,,,,,,,,
,,,,,,,,,,,5db508259ca75a000d583b9a,2021-09-08_17h54.21.631,forced_choiceRT,2021.1.2,Linux x86_64,60.31363088,h,2.082,7,0,7,0,1,,,,,,,,,,,,,,,
,,,,,,,,,,,5db508259ca75a000d583b9a,2021-09-08_17h54.21.631,forced_choiceRT,2021.1.2,Linux x86_64,60.31363088,j,2.018,8,0,8,0,1,,,,,,,,,,,,,,,
,,,,,,,,,,,5db508259ca75a000d583b9a,2021-09-08_17h54.21.631,forced_choiceRT,2021.1.2,Linux x86_64,60.31363088,f,2.068,9,0,9,0,1,,,,,,,,,,,,,,,
,,,,,,,,,,,5db508259ca75a000d583b9a,2021-09-08_17h54.21.631,forced_choiceRT,2021.1.2,Linux x86_64,60.31363088,g,2.191,10,0,10,0,1,,,,,,,,,,,,,,,
,,,,,,,,,,,5db508259ca75a000d583b9a,2021-09-08_17h54.21.631,forced_choiceRT,2021.1.2,Linux x86_64,60.31363088,h,2.058,11,0,11,0,1,,,,,,,,,,,,,,,
,,,,,,,,,,,5db508259ca75a000d583b9a,2021-09-08_17h54.21.631,forced_choiceRT,2021.1.2,Linux x86_64,60.31363088,j,1.969,12,0,12,0,1,,,,,,,,,,,,,,,
,,,,,,,,,,,5db508259ca75a000d583b9a,2021-09-08_17h54.21.631,forced_choiceRT,2021.1.2,Linux x86_64,60.31363088,f,1.901,13,0,13,0,1,,,,,,,,,,,,,,,
,,,,,,,,,,,5db508259ca75a000d583b9a,2021-09-08_17h54.21.631,forced_choiceRT,2021.1.2,Linux x86_64,60.31363088,g,1.866,14,0,14,0,1,,,,,,,,,,,,,,,
,,,,,,,,,,,5db508259ca75a000d583b9a,2021-09-08_17h54.21.631,forced_choiceRT,2021.1.2,Linux x86_64,60.31363088,h,2.077,15,0,15,0,1,,,,,,,,,,,,,,,
,,,,,,,,,,,5db508259ca75a000d583b9a,2021-09-08_17h54.21.631,forced_choiceRT,2021.1.2,Linux x86_64,60.31363088,j,2.058,16,0,16,0,1,,,,,,,,,,,,,,,
,,,,,,,,,,,5db508259ca75a000d583b9a,2021-09-08_17h54.21.631,forced_choiceRT,2021.1.2,Linux x86_64,60.31363088,f,2.005,17,0,17,0,1,,,,,,,,,,,,,,,
,,,,,,,,,,,5db508259ca75a000d583b9a,2021-09-08_17h54.21.631,forced_choiceRT,2021.1.2,Linux x86_64,60.31363088,g,2.054,18,0,18,0,1,,,,,,,,,,,,,,,
,,,,,,,,,,,5db508259ca75a000d583b9a,2021-09-08_17h54.21.631,forced_choiceRT,2021.1.2,Linux x86_64,60.31363088,h,2.135,19,0,19,0,1,,,,,,,,,,,,,,,
1.59,,,,,,,,,g.PNG,g,5db508259ca75a000d583b9a,2021-09-08_17h54.21.631,forced_choiceRT,2021.1.2,Linux x86_64,60.31363088,,,,,,,,1,Fast,g,1,0.039,0,0,0,1,1,,,,,
1.39,,,,,,,,,j.PNG,j,5db508259ca75a000d583b9a,2021-09-08_17h54.21.631,forced_choiceRT,2021.1.2,Linux x86_64,60.31363088,,,,,,,,1,Slow,j,1,2.4,0,1,1,3,1,,,,,
1.83,,,,,,,,,h.PNG,h,5db508259ca75a000d583b9a,2021-09-08_17h54.21.631,forced_choiceRT,2021.1.2,Linux x86_64,60.31363088,,,,,,,,1,Slow,f,0,2.173,0,2,2,2,1,,,,,
0.19,,,,,,,,,g.PNG,g,5db508259ca75a000d583b9a,2021-09-08_17h54.21.631,forced_choiceRT,2021.1.2,Linux x86_64,60.31363088,,,,,,,,1,Ontime,g,1,2.008,0,3,3,1,1,,,,,
0.26,,,,,,,,,j.PNG,j,5db508259ca75a000d583b9a,2021-09-08_17h54.21.631,forced_choiceRT,2021.1.2,Linux x86_64,60.31363088,,,,,,,,1,Ontime,j,1,1.932,1,0,4,3,1,,,,,
1.1,,,,,,,,,h.PNG,h,5db508259ca75a000d583b9a,2021-09-08_17h54.21.631,forced_choiceRT,2021.1.2,Linux x86_64,60.31363088,,,,,,,,1,Ontime,g,0,2.046,1,1,5,2,1,,,,,
0.02,,,,,,,,,f.PNG,f,5db508259ca75a000d583b9a,2021-09-08_17h54.21.631,forced_choiceRT,2021.1.2,Linux x86_64,60.31363088,,,,,,,,1,Ontime,f,1,2.006,1,2,6,0,1,,,,,
0.16,,,,,,,,,g.PNG,g,5db508259ca75a000d583b9a,2021-09-08_17h54.21.631,forced_choiceRT,2021.1.2,Linux x86_64,60.31363088,,,,,,,,1,Ontime,g,1,1.999,1,3,7,1,1,,,,,
1.51,,,,,,,,,j.PNG,j,5db508259ca75a000d583b9a,2021-09-08_17h54.21.631,forced_choiceRT,2021.1.2,Linux x86_64,60.31363088,,,,,,,,1,Slow,j,1,2.206,2,0,8,3,1,,,,,
0.54,,,,,,,,,g.PNG,g,5db508259ca75a000d583b9a,2021-09-08_17h54.21.631,forced_choiceRT,2021.1.2,Linux x86_64,60.31363088,,,,,,,,1,Ontime,g,1,1.955,2,1,9,1,1,,,,,
0.57,,,,,,,,,f.PNG,f,5db508259ca75a000d583b9a,2021-09-08_17h54.21.631,forced_choiceRT,2021.1.2,Linux x86_64,60.31363088,,,,,,,,1,Ontime,f,1,2.01,2,2,10,0,1,,,,,
1.64,,,,,,,,,f.PNG,f,5db508259ca75a000d583b9a,2021-09-08_17h54.21.631,forced_choiceRT,2021.1.2,Linux x86_64,60.31363088,,,,,,,,1,Slow,g,0,2.258,2,3,11,0,1,,,,,
0.6,,,,,,,,,g.PNG,g,5db508259ca75a000d583b9a,2021-09-08_17h54.21.631,forced_choiceRT,2021.1.2,Linux x86_64,60.31363088,,,,,,,,1,Slow,g,1,2.137,3,0,12,1,1,,,,,
1.2,,,,,,,,,g.PNG,g,5db508259ca75a000d583b9a,2021-09-08_17h54.21.631,forced_choiceRT,2021.1.2,Linux x86_64,60.31363088,,,,,,,,1,Ontime,g,1,2.045,3,1,13,1,1,,,,,
1.56,,,,,,,,,f.PNG,f,5db508259ca75a000d583b9a,2021-09-08_17h54.21.631,forced_choiceRT,2021.1.2,Linux x86_64,60.31363088,,,,,,,,1,Slow,f,1,2.158,3,2,14,0,1,,,,,
1.97,,,,,,,,,f.PNG,f,5db508259ca75a000d583b9a,2021-09-08_17h54.21.631,forced_choiceRT,2021.1.2,Linux x86_64,60.31363088,,,,,,,,1,Slow,f,1,2.344,3,3,15,0,1,,,,,
0.72,,,,,,,,,j.PNG,j,5db508259ca75a000d583b9a,2021-09-08_17h54.21.631,forced_choiceRT,2021.1.2,Linux x86_64,60.31363088,,,,,,,,1,Fast,j,1,1.871,4,0,16,3,1,,,,,
1.35,,,,,,,,,h.PNG,h,5db508259ca75a000d583b9a,2021-09-08_17h54.21.631,forced_choiceRT,2021.1.2,Linux x86_64,60.31363088,,,,,,,,1,Slow,h,1,2.112,4,1,17,2,1,,,,,
1.35,,,,,,,,,j.PNG,j,5db508259ca75a000d583b9a,2021-09-08_17h54.21.631,forced_choiceRT,2021.1.2,Linux x86_64,60.31363088,,,,,,,,1,Ontime,j,1,2.048,4,2,18,3,1,,,,,
1.84,,,,,,,,,j.PNG,j,5db508259ca75a000d583b9a,2021-09-08_17h54.21.631,forced_choiceRT,2021.1.2,Linux x86_64,60.31363088,,,,,,,,1,Slow,f,0,2.234,4,3,19,3,1,,,,,
0.21,,,,,,,,,g.PNG,g,5db508259ca75a000d583b9a,2021-09-08_17h54.21.631,forced_choiceRT,2021.1.2,Linux x86_64,60.31363088,,,,,,,,1,Ontime,g,1,1.946,5,0,20,1,1,,,,,
0.98,,,,,,,,,h.PNG,h,5db508259ca75a000d583b9a,2021-09-08_17h54.21.631,forced_choiceRT,2021.1.2,Linux x86_64,60.31363088,,,,,,,,1,Ontime,h,1,2.07,5,1,21,2,1,,,,,
1.33,,,,,,,,,f.PNG,f,5db508259ca75a000d583b9a,2021-09-08_17h54.21.631,forced_choiceRT,2021.1.2,Linux x86_64,60.31363088,,,,,,,,1,Slow,f,1,2.105,5,2,22,0,1,,,,,
0.16,,,,,,,,,j.PNG,j,5db508259ca75a000d583b9a,2021-09-08_17h54.21.631,forced_choiceRT,2021.1.2,Linux x86_64,60.31363088,,,,,,,,1,Ontime,j,1,2.025,5,3,23,3,1,,,,,
0.64,,,,,,,,,f.PNG,f,5db508259ca75a000d583b9a,2021-09-08_17h54.21.631,forced_choiceRT,2021.1.2,Linux x86_64,60.31363088,,,,,,,,1,Ontime,f,1,2.007,6,0,24,0,1,,,,,
0.98,,,,,,,,,g.PNG,g,5db508259ca75a000d583b9a,2021-09-08_17h54.21.631,forced_choiceRT,2021.1.2,Linux x86_64,60.31363088,,,,,,,,1,Ontime,g,1,1.933,6,1,25,1,1,,,,,
1.47,,,,,,,,,f.PNG,f,5db508259ca75a000d583b9a,2021-09-08_17h54.21.631,forced_choiceRT,2021.1.2,Linux x86_64,60.31363088,,,,,,,,1,Slow,f,1,2.114,6,2,26,0,1,,,,,
0.77,,,,,,,,,f.PNG,f,5db508259ca75a000d583b9a,2021-09-08_17h54.21.631,forced_choiceRT,2021.1.2,Linux x86_64,60.31363088,,,,,,,,1,Ontime,f,1,1.971,6,3,27,0,1,,,,,
0.39,,,,,,,,,h.PNG,h,5db508259ca75a000d583b9a,2021-09-08_17h54.21.631,forced_choiceRT,2021.1.2,Linux x86_64,60.31363088,,,,,,,,1,Ontime,h,1,2.017,7,0,28,2,1,,,,,
0.17,,,,,,,,,h.PNG,h,5db508259ca75a000d583b9a,2021-09-08_17h54.21.631,forced_choiceRT,2021.1.2,Linux x86_64,60.31363088,,,,,,,,1,Fast,h,1,1.865,7,1,29,2,1,,,,,
0.22,,,,,,,,,g.PNG,g,5db508259ca75a000d583b9a,2021-09-08_17h54.21.631,forced_choiceRT,2021.1.2,Linux x86_64,60.31363088,,,,,,,,1,Ontime,g,1,1.987,7,2,30,1,1,,,,,
1.1,,,,,,,,,h.PNG,h,5db508259ca75a000d583b9a,2021-09-08_17h54.21.631,forced_choiceRT,2021.1.2,Linux x86_64,60.31363088,,,,,,,,1,Ontime,h,1,2.077,7,3,31,2,1,,,,,
1.72,,,,,,,,,j.PNG,j,5db508259ca75a000d583b9a,2021-09-08_17h54.21.631,forced_choiceRT,2021.1.2,Linux x86_64,60.31363088,,,,,,,,1,Slow,h,0,2.26,8,0,32,3,1,,,,,
1.66,,,,,,,,,j.PNG,j,5db508259ca75a000d583b9a,2021-09-08_17h54.21.631,forced_choiceRT,2021.1.2,Linux x86_64,60.31363088,,,,,,,,1,Slow,j,1,2.127,8,1,33,3,1,,,,,
0.16,,,,,,,,,h.PNG,h,5db508259ca75a000d583b9a,2021-09-08_17h54.21.631,forced_choiceRT,2021.1.2,Linux x86_64,60.31363088,,,,,,,,1,Ontime,h,1,1.93,8,2,34,2,1,,,,,
0.5,,,,,,,,,h.PNG,h,5db508259ca75a000d583b9a,2021-09-08_17h54.21.631,forced_choiceRT,2021.1.2,Linux x86_64,60.31363088,,,,,,,,1,Slow,h,1,2.132,8,3,35,2,1,,,,,
0.46,,,,,,,,,h.PNG,h,5db508259ca75a000d583b9a,2021-09-08_17h54.21.631,forced_choiceRT,2021.1.2,Linux x86_64,60.31363088,,,,,,,,1,Ontime,h,1,1.944,9,0,36,2,1,,,,,
0.78,,,,,,,,,g.PNG,g,5db508259ca75a000d583b9a,2021-09-08_17h54.21.631,forced_choiceRT,2021.1.2,Linux x86_64,60.31363088,,,,,,,,1,Ontime,g,1,1.981,9,1,37,1,1,,,,,
1.66,,,,,,,,,j.PNG,j,5db508259ca75a000d583b9a,2021-09-08_17h54.21.631,forced_choiceRT,2021.1.2,Linux x86_64,60.31363088,,,,,,,,1,Slow,f,0,2.182,9,2,38,3,1,,,,,
1,,,,,,,,,f.PNG,f,5db508259ca75a000d583b9a,2021-09-08_17h54.21.631,forced_choiceRT,2021.1.2,Linux x86_64,60.31363088,,,,,,,,1,Ontime,f,1,2.085,9,3,39,0,1,,,,,
,,,,,,,,,,,5db508259ca75a000d583b9a,2021-09-08_17h54.21.631,forced_choiceRT,2021.1.2,Linux x86_64,60.31363088,,,,,,,,,,,,,,,,,,0,0,0,0,1
1.53,,,,,,,,,f.PNG,f,5db508259ca75a000d583b9a,2021-09-08_17h54.21.631,forced_choiceRT,2021.1.2,Linux x86_64,60.31363088,,,,,,,,2,Slow,f,1,2.125,0,0,0,0,1,,,,,
0.59,,,,,,,,,h.PNG,h,5db508259ca75a000d583b9a,2021-09-08_17h54.21.631,forced_choiceRT,2021.1.2,Linux x86_64,60.31363088,,,,,,,,2,Ontime,h,1,1.994,0,1,1,2,1,,,,,
1.09,,,,,,,,,f.PNG,f,5db508259ca75a000d583b9a,2021-09-08_17h54.21.631,forced_choiceRT,2021.1.2,Linux x86_64,60.31363088,,,,,,,,2,Ontime,f,1,2.037,0,2,2,0,1,,,,,
1.1,,,,,,,,,g.PNG,g,5db508259ca75a000d583b9a,2021-09-08_17h54.21.631,forced_choiceRT,2021.1.2,Linux x86_64,60.31363088,,,,,,,,2,Ontime,g,1,2.073,0,3,3,1,1,,,,,
1.51,,,,,,,,,f.PNG,f,5db508259ca75a000d583b9a,2021-09-08_17h54.21.631,forced_choiceRT,2021.1.2,Linux x86_64,60.31363088,,,,,,,,2,Slow,f,1,2.138,1,0,4,0,1,,,,,
1.74,,,,,,,,,j.PNG,j,5db508259ca75a000d583b9a,2021-09-08_17h54.21.631,forced_choiceRT,2021.1.2,Linux x86_64,60.31363088,,,,,,,,2,Slow,j,1,2.215,1,1,5,3,1,,,,,
1.29,,,,,,,,,h.PNG,h,5db508259ca75a000d583b9a,2021-09-08_17h54.21.631,forced_choiceRT,2021.1.2,Linux x86_64,60.31363088,,,,,,,,2,Ontime,h,1,1.96,1,2,6,2,1,,,,,
1.52,,,,,,,,,h.PNG,h,5db508259ca75a000d583b9a,2021-09-08_17h54.21.631,forced_choiceRT,2021.1.2,Linux x86_64,60.31363088,,,,,,,,2,Ontime,h,1,1.978,1,3,7,2,1,,,,,
1.54,,,,,,,,,g.PNG,g,5db508259ca75a000d583b9a,2021-09-08_17h54.21.631,forced_choiceRT,2021.1.2,Linux x86_64,60.31363088,,,,,,,,2,Ontime,f,0,2.054,2,0,8,1,1,,,,,
0.35,,,,,,,,,j.PNG,j,5db508259ca75a000d583b9a,2021-09-08_17h54.21.631,forced_choiceRT,2021.1.2,Linux x86_64,60.31363088,,,,,,,,2,Ontime,j,1,2.01,2,1,9,3,1,,,,,
0.15,,,,,,,,,f.PNG,f,5db508259ca75a000d583b9a,2021-09-08_17h54.21.631,forced_choiceRT,2021.1.2,Linux x86_64,60.31363088,,,,,,,,2,Ontime,f,1,1.969,2,2,10,0,1,,,,,
1.34,,,,,,,,,h.PNG,h,5db508259ca75a000d583b9a,2021-09-08_17h54.21.631,forced_choiceRT,2021.1.2,Linux x86_64,60.31363088,,,,,,,,2,Ontime,h,1,2.06,2,3,11,2,1,,,,,
0.65,,,,,,,,,j.PNG,j,5db508259ca75a000d583b9a,2021-09-08_17h54.21.631,forced_choiceRT,2021.1.2,Linux x86_64,60.31363088,,,,,,,,2,Ontime,j,1,2.018,3,0,12,3,1,,,,,
0.71,,,,,,,,,f.PNG,f,5db508259ca75a000d583b9a,2021-09-08_17h54.21.631,forced_choiceRT,2021.1.2,Linux x86_64,60.31363088,,,,,,,,2,Ontime,f,1,2.072,3,1,13,0,1,,,,,
1.77,,,,,,,,,g.PNG,g,5db508259ca75a000d583b9a,2021-09-08_17h54.21.631,forced_choiceRT,2021.1.2,Linux x86_64,60.31363088,,,,,,,,2,Slow,h,0,2.346,3,2,14,1,1,,,,,
1.9,,,,,,,,,f.PNG,f,5db508259ca75a000d583b9a,2021-09-08_17h54.21.631,forced_choiceRT,2021.1.2,Linux x86_64,60.31363088,,,,,,,,2,Slow,j,0,2.245,3,3,15,0,1,,,,,
1.51,,,,,,,,,g.PNG,g,5db508259ca75a000d583b9a,2021-09-08_17h54.21.631,forced_choiceRT,2021.1.2,Linux x86_64,60.31363088,,,,,,,,2,Ontime,f,0,1.982,4,0,16,1,1,,,,,
0.65,,,,,,,,,j.PNG,j,5db508259ca75a000d583b9a,2021-09-08_17h54.21.631,forced_choiceRT,2021.1.2,Linux x86_64,60.31363088,,,,,,,,2,Ontime,j,1,1.906,4,1,17,3,1,,,,,
0.55,,,,,,,,,h.PNG,h,5db508259ca75a000d583b9a,2021-09-08_17h54.21.631,forced_choiceRT,2021.1.2,Linux x86_64,60.31363088,,,,,,,,2,Ontime,h,1,2.092,4,2,18,2,1,,,,,
0.77,,,,,,,,,g.PNG,g,5db508259ca75a000d583b9a,2021-09-08_17h54.21.631,forced_choiceRT,2021.1.2,Linux x86_64,60.31363088,,,,,,,,2,Ontime,g,1,1.974,4,3,19,1,1,,,,,
0.2,,,,,,,,,f.PNG,f,5db508259ca75a000d583b9a,2021-09-08_17h54.21.631,forced_choiceRT,2021.1.2,Linux x86_64,60.31363088,,,,,,,,2,Ontime,f,1,1.984,5,0,20,0,1,,,,,
1.41,,,,,,,,,g.PNG,g,5db508259ca75a000d583b9a,2021-09-08_17h54.21.631,forced_choiceRT,2021.1.2,Linux x86_64,60.31363088,,,,,,,,2,Ontime,g,1,2.079,5,1,21,1,1,,,,,
1.79,,,,,,,,,g.PNG,g,5db508259ca75a000d583b9a,2021-09-08_17h54.21.631,forced_choiceRT,2021.1.2,Linux x86_64,60.31363088,,,,,,,,2,Slow,g,1,2.284,5,2,22,1,1,,,,,
0.21,,,,,,,,,j.PNG,j,5db508259ca75a000d583b9a,2021-09-08_17h54.21.631,forced_choiceRT,2021.1.2,Linux x86_64,60.31363088,,,,,,,,2,Ontime,j,1,2.015,5,3,23,3,1,,,,,
0.7,,,,,,,,,f.PNG,f,5db508259ca75a000d583b9a,2021-09-08_17h54.21.631,forced_choiceRT,2021.1.2,Linux x86_64,60.31363088,,,,,,,,2,Ontime,f,1,2.01,6,0,24,0,1,,,,,
0.73,,,,,,,,,j.PNG,j,5db508259ca75a000d583b9a,2021-09-08_17h54.21.631,forced_choiceRT,2021.1.2,Linux x86_64,60.31363088,,,,,,,,2,Ontime,j,1,1.978,6,1,25,3,1,,,,,
0.19,,,,,,,,,j.PNG,j,5db508259ca75a000d583b9a,2021-09-08_17h54.21.631,forced_choiceRT,2021.1.2,Linux x86_64,60.31363088,,,,,,,,2,Ontime,j,1,2.01,6,2,26,3,1,,,,,
1.75,,,,,,,,,f.PNG,f,5db508259ca75a000d583b9a,2021-09-08_17h54.21.631,forced_choiceRT,2021.1.2,Linux x86_64,60.31363088,,,,,,,,2,Slow,f,1,2.269,6,3,27,0,1,,,,,
1.09,,,,,,,,,h.PNG,h,5db508259ca75a000d583b9a,2021-09-08_17h54.21.631,forced_choiceRT,2021.1.2,Linux x86_64,60.31363088,,,,,,,,2,Ontime,h,1,1.952,7,0,28,2,1,,,,,
0.85,,,,,,,,,g.PNG,g,5db508259ca75a000d583b9a,2021-09-08_17h54.21.631,forced_choiceRT,2021.1.2,Linux x86_64,60.31363088,,,,,,,,2,Ontime,g,1,1.972,7,1,29,1,1,,,,,
0.29,,,,,,,,,j.PNG,j,5db508259ca75a000d583b9a,2021-09-08_17h54.21.631,forced_choiceRT,2021.1.2,Linux x86_64,60.31363088,,,,,,,,2,Ontime,j,1,2.041,7,2,30,3,1,,,,,
0.84,,,,,,,,,g.PNG,g,5db508259ca75a000d583b9a,2021-09-08_17h54.21.631,forced_choiceRT,2021.1.2,Linux x86_64,60.31363088,,,,,,,,2,Slow,g,1,2.129,7,3,31,1,1,,,,,
0.61,,,,,,,,,f.PNG,f,5db508259ca75a000d583b9a,2021-09-08_17h54.21.631,forced_choiceRT,2021.1.2,Linux x86_64,60.31363088,,,,,,,,2,Ontime,f,1,2.033,8,0,32,0,1,,,,,
0.14,,,,,,,,,h.PNG,h,5db508259ca75a000d583b9a,2021-09-08_17h54.21.631,forced_choiceRT,2021.1.2,Linux x86_64,60.31363088,,,,,,,,2,Ontime,h,1,1.977,8,1,33,2,1,,,,,
1.46,,,,,,,,,g.PNG,g,5db508259ca75a000d583b9a,2021-09-08_17h54.21.631,forced_choiceRT,2021.1.2,Linux x86_64,60.31363088,,,,,,,,2,Ontime,f,0,2.083,8,2,34,1,1,,,,,
0.54,,,,,,,,,h.PNG,h,5db508259ca75a000d583b9a,2021-09-08_17h54.21.631,forced_choiceRT,2021.1.2,Linux x86_64,60.31363088,,,,,,,,2,Ontime,h,1,1.972,8,3,35,2,1,,,,,
0.36,,,,,,,,,h.PNG,h,5db508259ca75a000d583b9a,2021-09-08_17h54.21.631,forced_choiceRT,2021.1.2,Linux x86_64,60.31363088,,,,,,,,2,Ontime,h,1,1.977,9,0,36,2,1,,,,,
1.4,,,,,,,,,h.PNG,h,5db508259ca75a000d583b9a,2021-09-08_17h54.21.631,forced_choiceRT,2021.1.2,Linux x86_64,60.31363088,,,,,,,,2,Ontime,h,1,2,9,1,37,2,1,,,,,
0.48,,,,,,,,,j.PNG,j,5db508259ca75a000d583b9a,2021-09-08_17h54.21.631,forced_choiceRT,2021.1.2,Linux x86_64,60.31363088,,,,,,,,2,Fast,j,1,1.885,9,2,38,3,1,,,,,
0.11,,,,,,,,,j.PNG,j,5db508259ca75a000d583b9a,2021-09-08_17h54.21.631,forced_choiceRT,2021.1.2,Linux x86_64,60.31363088,,,,,,,,2,Ontime,j,1,2.06,9,3,39,3,1,,,,,
,,,,,,,,,,,5db508259ca75a000d583b9a,2021-09-08_17h54.21.631,forced_choiceRT,2021.1.2,Linux x86_64,60.31363088,,,,,,,,,,,,,,,,,,1,0,1,0,1
0.82,,,,,,,,,h.PNG,h,5db508259ca75a000d583b9a,2021-09-08_17h54.21.631,forced_choiceRT,2021.1.2,Linux x86_64,60.31363088,,,,,,,,3,Ontime,h,1,2.04,0,0,0,2,1,,,,,
0.04,,,,,,,,,f.PNG,f,5db508259ca75a000d583b9a,2021-09-08_17h54.21.631,forced_choiceRT,2021.1.2,Linux x86_64,60.31363088,,,,,,,,3,Ontime,f,1,2.008,0,1,1,0,1,,,,,
0.08,,,,,,,,,g.PNG,g,5db508259ca75a000d583b9a,2021-09-08_17h54.21.631,forced_choiceRT,2021.1.2,Linux x86_64,60.31363088,,,,,,,,3,Ontime,g,1,2.018,0,2,2,1,1,,,,,
0.63,,,,,,,,,j.PNG,j,5db508259ca75a000d583b9a,2021-09-08_17h54.21.631,forced_choiceRT,2021.1.2,Linux x86_64,60.31363088,,,,,,,,3,Ontime,j,1,2.045,0,3,3,3,1,,,,,
1.62,,,,,,,,,g.PNG,g,5db508259ca75a000d583b9a,2021-09-08_17h54.21.631,forced_choiceRT,2021.1.2,Linux x86_64,60.31363088,,,,,,,,3,Slow,g,1,2.224,1,0,4,1,1,,,,,
1.71,,,,,,,,,j.PNG,j,5db508259ca75a000d583b9a,2021-09-08_17h54.21.631,forced_choiceRT,2021.1.2,Linux x86_64,60.31363088,,,,,,,,3,Slow,j,1,2.227,1,1,5,3,1,,,,,
1.11,,,,,,,,,f.PNG,f,5db508259ca75a000d583b9a,2021-09-08_17h54.21.631,forced_choiceRT,2021.1.2,Linux x86_64,60.31363088,,,,,,,,3,Fast,f,1,1.894,1,2,6,0,1,,,,,
0.7,,,,,,,,,j.PNG,j,5db508259ca75a000d583b9a,2021-09-08_17h54.21.631,forced_choiceRT,2021.1.2,Linux x86_64,60.31363088,,,,,,,,3,Ontime,j,1,2.045,1,3,7,3,1,,,,,
1.63,,,,,,,,,h.PNG,h,5db508259ca75a000d583b9a,2021-09-08_17h54.21.631,forced_choiceRT,2021.1.2,Linux x86_64,60.31363088,,,,,,,,3,Slow,h,1,2.238,2,0,8,2,1,,,,,
0.82,,,,,,,,,f.PNG,f,5db508259ca75a000d583b9a,2021-09-08_17h54.21.631,forced_choiceRT,2021.1.2,Linux x86_64,60.31363088,,,,,,,,3,Ontime,f,1,2.054,2,1,9,0,1,,,,,
0.17,,,,,,,,,j.PNG,j,5db508259ca75a000d583b9a,2021-09-08_17h54.21.631,forced_choiceRT,2021.1.2,Linux x86_64,60.31363088,,,,,,,,3,Ontime,j,1,2.01,2,2,10,3,1,,,,,
1.25,,,,,,,,,f.PNG,f,5db508259ca75a000d583b9a,2021-09-08_17h54.21.631,forced_choiceRT,2021.1.2,Linux x86_64,60.31363088,,,,,,,,3,Ontime,f,1,1.983,2,3,11,0,1,,,,,
0.84,,,,,,,,,f.PNG,f,5db508259ca75a000d583b9a,2021-09-08_17h54.21.631,forced_choiceRT,2021.1.2,Linux x86_64,60.31363088,,,,,,,,3,Ontime,f,1,2.098,3,0,12,0,1,,,,,
1,,,,,,,,,h.PNG,h,5db508259ca75a000d583b9a,2021-09-08_17h54.21.631,forced_choiceRT,2021.1.2,Linux x86_64,60.31363088,,,,,,,,3,Ontime,h,1,2.052,3,1,13,2,1,,,,,
0.65,,,,,,,,,g.PNG,g,5db508259ca75a000d583b9a,2021-09-08_17h54.21.631,forced_choiceRT,2021.1.2,Linux x86_64,60.31363088,,,,,,,,3,Slow,g,1,2.101,3,2,14,1,1,,,,,
0.51,,,,,,,,,f.PNG,f,5db508259ca75a000d583b9a,2021-09-08_17h54.21.631,forced_choiceRT,2021.1.2,Linux x86_64,60.31363088,,,,,,,,3,Ontime,f,1,2.054,3,3,15,0,1,,,,,
0.07,,,,,,,,,f.PNG,f,5db508259ca75a000d583b9a,2021-09-08_17h54.21.631,forced_choiceRT,2021.1.2,Linux x86_64,60.31363088,,,,,,,,3,Ontime,f,1,2.039,4,0,16,0,1,,,,,
1.84,,,,,,,,,j.PNG,j,5db508259ca75a000d583b9a,2021-09-08_17h54.21.631,forced_choiceRT,2021.1.2,Linux x86_64,60.31363088,,,,,,,,3,Slow,f,0,2.253,4,1,17,3,1,,,,,
0.78,,,,,,,,,h.PNG,h,5db508259ca75a000d583b9a,2021-09-08_17h54.21.631,forced_choiceRT,2021.1.2,Linux x86_64,60.31363088,,,,,,,,3,Ontime,h,1,2.009,4,2,18,2,1,,,,,
1.95,,,,,,,,,h.PNG,h,5db508259ca75a000d583b9a,2021-09-08_17h54.21.631,forced_choiceRT,2021.1.2,Linux x86_64,60.31363088,,,,,,,,3,Slow,h,1,3.704,4,3,19,2,1,,,,,
1.49,,,,,,,,,g.PNG,g,5db508259ca75a000d583b9a,2021-09-08_17h54.21.631,forced_choiceRT,2021.1.2,Linux x86_64,60.31363088,,,,,,,,3,Ontime,g,1,2.09,5,0,20,1,1,,,,,
0.78,,,,,,,,,g.PNG,g,5db508259ca75a000d583b9a,2021-09-08_17h54.21.631,forced_choiceRT,2021.1.2,Linux x86_64,60.31363088,,,,,,,,3,Ontime,g,1,2.06,5,1,21,1,1,,,,,
0.19,,,,,,,,,j.PNG,j,5db508259ca75a000d583b9a,2021-09-08_17h54.21.631,forced_choiceRT,2021.1.2,Linux x86_64,60.31363088,,,,,,,,3,Ontime,j,1,2.064,5,2,22,3,1,,,,,
0.9,,,,,,,,,g.PNG,g,5db508259ca75a000d583b9a,2021-09-08_17h54.21.631,forced_choiceRT,2021.1.2,Linux x86_64,60.31363088,,,,,,,,3,Ontime,g,1,2.076,5,3,23,1,1,,,,,
0.28,,,,,,,,,h.PNG,h,5db508259ca75a000d583b9a,2021-09-08_17h54.21.631,forced_choiceRT,2021.1.2,Linux x86_64,60.31363088,,,,,,,,3,Ontime,h,1,2.074,6,0,24,2,1,,,,,
1.69,,,,,,,,,g.PNG,g,5db508259ca75a000d583b9a,2021-09-08_17h54.21.631,forced_choiceRT,2021.1.2,Linux x86_64,60.31363088,,,,,,,,3,Slow,g,1,2.144,6,1,25,1,1,,,,,
1.47,,,,,,,,,f.PNG,f,5db508259ca75a000d583b9a,2021-09-08_17h54.21.631,forced_choiceRT,2021.1.2,Linux x86_64,60.31363088,,,,,,,,3,Ontime,f,1,2.041,6,2,26,0,1,,,,,
0.35,,,,,,,,,j.PNG,j,5db508259ca75a000d583b9a,2021-09-08_17h54.21.631,forced_choiceRT,2021.1.2,Linux x86_64,60.31363088,,,,,,,,3,Ontime,j,1,2.052,6,3,27,3,1,,,,,
1.33,,,,,,,,,f.PNG,f,5db508259ca75a000d583b9a,2021-09-08_17h54.21.631,forced_choiceRT,2021.1.2,Linux x86_64,60.31363088,,,,,,,,3,Ontime,f,1,2.058,7,0,28,0,1,,,,,
1.41,,,,,,,,,j.PNG,j,5db508259ca75a000d583b9a,2021-09-08_17h54.21.631,forced_choiceRT,2021.1.2,Linux x86_64,60.31363088,,,,,,,,3,Ontime,j,1,2.057,7,1,29,3,1,,,,,
1.44,,,,,,,,,h.PNG,h,5db508259ca75a000d583b9a,2021-09-08_17h54.21.631,forced_choiceRT,2021.1.2,Linux x86_64,60.31363088,,,,,,,,3,Ontime,h,1,2.057,7,2,30,2,1,,,,,
0.73,,,,,,,,,h.PNG,h,5db508259ca75a000d583b9a,2021-09-08_17h54.21.631,forced_choiceRT,2021.1.2,Linux x86_64,60.31363088,,,,,,,,3,Slow,h,1,2.26,7,3,31,2,1,,,,,
0.8,,,,,,,,,j.PNG,j,5db508259ca75a000d583b9a,2021-09-08_17h54.21.631,forced_choiceRT,2021.1.2,Linux x86_64,60.31363088,,,,,,,,3,Ontime,j,1,2.025,8,0,32,3,1,,,,,
1.66,,,,,,,,,h.PNG,h,5db508259ca75a000d583b9a,2021-09-08_17h54.21.631,forced_choiceRT,2021.1.2,Linux x86_64,60.31363088,,,,,,,,3,Slow,j,0,2.11,8,1,33,2,1,,,,,
1.93,,,,,,,,,j.PNG,j,5db508259ca75a000d583b9a,2021-09-08_17h54.21.631,forced_choiceRT,2021.1.2,Linux x86_64,60.31363088,,,,,,,,3,Slow,g,0,2.327,8,2,34,3,1,,,,,
0.79,,,,,,,,,g.PNG,g,5db508259ca75a000d583b9a,2021-09-08_17h54.21.631,forced_choiceRT,2021.1.2,Linux x86_64,60.31363088,,,,,,,,3,Ontime,g,1,2.05,8,3,35,1,1,,,,,
0.34,,,,,,,,,f.PNG,f,5db508259ca75a000d583b9a,2021-09-08_17h54.21.631,forced_choiceRT,2021.1.2,Linux x86_64,60.31363088,,,,,,,,3,Slow,f,1,2.142,9,0,36,0,1,,,,,
1,,,,,,,,,h.PNG,h,5db508259ca75a000d583b9a,2021-09-08_17h54.21.631,forced_choiceRT,2021.1.2,Linux x86_64,60.31363088,,,,,,,,3,Slow,h,1,2.146,9,1,37,2,1,,,,,
0.87,,,,,,,,,g.PNG,g,5db508259ca75a000d583b9a,2021-09-08_17h54.21.631,forced_choiceRT,2021.1.2,Linux x86_64,60.31363088,,,,,,,,3,Ontime,g,1,2.023,9,2,38,1,1,,,,,
1.4,,,,,,,,,g.PNG,g,5db508259ca75a000d583b9a,2021-09-08_17h54.21.631,forced_choiceRT,2021.1.2,Linux x86_64,60.31363088,,,,,,,,3,Ontime,g,1,1.987,9,3,39,1,1,,,,,
,,,,,,,,,,,5db508259ca75a000d583b9a,2021-09-08_17h54.21.631,forced_choiceRT,2021.1.2,Linux x86_64,60.31363088,,,,,,,,,,,,,,,,,,2,0,2,0,1
0.94,,,,,,,,,f.PNG,f,5db508259ca75a000d583b9a,2021-09-08_17h54.21.631,forced_choiceRT,2021.1.2,Linux x86_64,60.31363088,,,,,,,,4,Ontime,f,1,2.068,0,0,0,0,1,,,,,
0.07,,,,,,,,,g.PNG,g,5db508259ca75a000d583b9a,2021-09-08_17h54.21.631,forced_choiceRT,2021.1.2,Linux x86_64,60.31363088,,,,,,,,4,Slow,g,1,2.106,0,1,1,1,1,,,,,
0.15,,,,,,,,,h.PNG,h,5db508259ca75a000d583b9a,2021-09-08_17h54.21.631,forced_choiceRT,2021.1.2,Linux x86_64,60.31363088,,,,,,,,4,Ontime,h,1,2.035,0,2,2,2,1,,,,,
1.4,,,,,,,,,f.PNG,f,5db508259ca75a000d583b9a,2021-09-08_17h54.21.631,forced_choiceRT,2021.1.2,Linux x86_64,60.31363088,,,,,,,,4,Ontime,f,1,2.079,0,3,3,0,1,,,,,
1.72,,,,,,,,,h.PNG,h,5db508259ca75a000d583b9a,2021-09-08_17h54.21.631,forced_choiceRT,2021.1.2,Linux x86_64,60.31363088,,,,,,,,4,Slow,j,0,2.192,1,0,4,2,1,,,,,
1.15,,,,,,,,,g.PNG,g,5db508259ca75a000d583b9a,2021-09-08_17h54.21.631,forced_choiceRT,2021.1.2,Linux x86_64,60.31363088,,,,,,,,4,Ontime,g,1,1.959,1,1,5,1,1,,,,,
1.12,,,,,,,,,g.PNG,g,5db508259ca75a000d583b9a,2021-09-08_17h54.21.631,forced_choiceRT,2021.1.2,Linux x86_64,60.31363088,,,,,,,,4,Ontime,g,1,2.007,1,2,6,1,1,,,,,
1.86,,,,,,,,,g.PNG,g,5db508259ca75a000d583b9a,2021-09-08_17h54.21.631,forced_choiceRT,2021.1.2,Linux x86_64,60.31363088,,,,,,,,4,Slow,g,1,2.301,1,3,7,1,1,,,,,
1.8,,,,,,,,,h.PNG,h,5db508259ca75a000d583b9a,2021-09-08_17h54.21.631,forced_choiceRT,2021.1.2,Linux x86_64,60.31363088,,,,,,,,4,Slow,g,0,2.226,2,0,8,2,1,,,,,
1.84,,,,,,,,,g.PNG,g,5db508259ca75a000d583b9a,2021-09-08_17h54.21.631,forced_choiceRT,2021.1.2,Linux x86_64,60.31363088,,,,,,,,4,Slow,g,1,2.233,2,1,9,1,1,,,,,
0.44,,,,,,,,,j.PNG,j,5db508259ca75a000d583b9a,2021-09-08_17h54.21.631,forced_choiceRT,2021.1.2,Linux x86_64,60.31363088,,,,,,,,4,Ontime,j,1,1.936,2,2,10,3,1,,,,,
1.56,,,,,,,,,g.PNG,g,5db508259ca75a000d583b9a,2021-09-08_17h54.21.631,forced_choiceRT,2021.1.2,Linux x86_64,60.31363088,,,,,,,,4,Ontime,h,0,2.059,2,3,11,1,1,,,,,
1.02,,,,,,,,,j.PNG,j,5db508259ca75a000d583b9a,2021-09-08_17h54.21.631,forced_choiceRT,2021.1.2,Linux x86_64,60.31363088,,,,,,,,4,Ontime,j,1,1.982,3,0,12,3,1,,,,,
1.29,,,,,,,,,h.PNG,h,5db508259ca75a000d583b9a,2021-09-08_17h54.21.631,forced_choiceRT,2021.1.2,Linux x86_64,60.31363088,,,,,,,,4,Ontime,h,1,2.049,3,1,13,2,1,,,,,
1.55,,,,,,,,,h.PNG,h,5db508259ca75a000d583b9a,2021-09-08_17h54.21.631,forced_choiceRT,2021.1.2,Linux x86_64,60.31363088,,,,,,,,4,Slow,h,1,2.103,3,2,14,2,1,,,,,
0.2,,,,,,,,,g.PNG,g,5db508259ca75a000d583b9a,2021-09-08_17h54.21.631,forced_choiceRT,2021.1.2,Linux x86_64,60.31363088,,,,,,,,4,Ontime,g,1,2.08,3,3,15,1,1,,,,,
1.35,,,,,,,,,j.PNG,j,5db508259ca75a000d583b9a,2021-09-08_17h54.21.631,forced_choiceRT,2021.1.2,Linux x86_64,60.31363088,,,,,,,,4,Ontime,j,1,1.946,4,0,16,3,1,,,,,
1.3,,,,,,,,,h.PNG,h,5db508259ca75a000d583b9a,2021-09-08_17h54.21.631,forced_choiceRT,2021.1.2,Linux x86_64,60.31363088,,,,,,,,4,Ontime,h,1,1.933,4,1,17,2,1,,,,,
0.86,,,,,,,,,h.PNG,h,5db508259ca75a000d583b9a,2021-09-08_17h54.21.631,forced_choiceRT,2021.1.2,Linux x86_64,60.31363088,,,,,,,,4,Ontime,h,1,2.052,4,2,18,2,1,,,,,
0.8,,,,,,,,,g.PNG,g,5db508259ca75a000d583b9a,2021-09-08_17h54.21.631,forced_choiceRT,2021.1.2,Linux x86_64,60.31363088,,,,,,,,4,Fast,g,1,1.799,4,3,19,1,1,,,,,
0.11,,,,,,,,,g.PNG,g,5db508259ca75a000d583b9a,2021-09-08_17h54.21.631,forced_choiceRT,2021.1.2,Linux x86_64,60.31363088,,,,,,,,4,Ontime,g,1,2.061,5,0,20,1,1,,,,,
1.79,,,,,,,,,g.PNG,g,5db508259ca75a000d583b9a,2021-09-08_17h54.21.631,forced_choiceRT,2021.1.2,Linux x86_64,60.31363088,,,,,,,,4,Slow,g,1,2.189,5,1,21,1,1,,,,,
0.03,,,,,,,,,j.PNG,j,5db508259ca75a000d583b9a,2021-09-08_17h54.21.631,forced_choiceRT,2021.1.2,Linux x86_64,60.31363088,,,,,,,,4,Ontime,j,1,2.044,5,2,22,3,1,,,,,
0.28,,,,,,,,,f.PNG,f,5db508259ca75a000d583b9a,2021-09-08_17h54.21.631,forced_choiceRT,2021.1.2,Linux x86_64,60.31363088,,,,,,,,4,Ontime,f,1,2.028,5,3,23,0,1,,,,,
0.02,,,,,,,,,j.PNG,j,5db508259ca75a000d583b9a,2021-09-08_17h54.21.631,forced_choiceRT,2021.1.2,Linux x86_64,60.31363088,,,,,,,,4,Ontime,j,1,2.042,6,0,24,3,1,,,,,
0.75,,,,,,,,,j.PNG,j,5db508259ca75a000d583b9a,2021-09-08_17h54.21.631,forced_choiceRT,2021.1.2,Linux x86_64,60.31363088,,,,,,,,4,Slow,j,1,2.162,6,1,25,3,1,,,,,
0.83,,,,,,,,,j.PNG,j,5db508259ca75a000d583b9a,2021-09-08_17h54.21.631,forced_choiceRT,2021.1.2,Linux x86_64,60.31363088,,,,,,,,4,Ontime,j,1,2.059,6,2,26,3,1,,,,,
1.35,,,,,,,,,h.PNG,h,5db508259ca75a000d583b9a,2021-09-08_17h54.21.631,forced_choiceRT,2021.1.2,Linux x86_64,60.31363088,,,,,,,,4,Slow,g,0,2.109,6,3,27,2,1,,,,,
1.5,,,,,,,,,f.PNG,f,5db508259ca75a000d583b9a,2021-09-08_17h54.21.631,forced_choiceRT,2021.1.2,Linux x86_64,60.31363088,,,,,,,,4,Ontime,f,1,2.021,7,0,28,0,1,,,,,
1.73,,,,,,,,,j.PNG,j,5db508259ca75a000d583b9a,2021-09-08_17h54.21.631,forced_choiceRT,2021.1.2,Linux x86_64,60.31363088,,,,,,,,4,Slow,f,0,2.186,7,1,29,3,1,,,,,
0.06,,,,,,,,,f.PNG,f,5db508259ca75a000d583b9a,2021-09-08_17h54.21.631,forced_choiceRT,2021.1.2,Linux x86_64,60.31363088,,,,,,,,4,Ontime,f,1,2.038,7,2,30,0,1,,,,,
1.39,,,,,,,,,f.PNG,f,5db508259ca75a000d583b9a,2021-09-08_17h54.21.631,forced_choiceRT,2021.1.2,Linux x86_64,60.31363088,,,,,,,,4,Ontime,f,1,2.07,7,3,31,0,1,,,,,
0.6,,,,,,,,,h.PNG,h,5db508259ca75a000d583b9a,2021-09-08_17h54.21.631,forced_choiceRT,2021.1.2,Linux x86_64,60.31363088,,,,,,,,4,Ontime,h,1,2.052,8,0,32,2,1,,,,,
0.55,,,,,,,,,j.PNG,j,5db508259ca75a000d583b9a,2021-09-08_17h54.21.631,forced_choiceRT,2021.1.2,Linux x86_64,60.31363088,,,,,,,,4,Ontime,j,1,2.044,8,1,33,3,1,,,,,
0.94,,,,,,,,,f.PNG,f,5db508259ca75a000d583b9a,2021-09-08_17h54.21.631,forced_choiceRT,2021.1.2,Linux x86_64,60.31363088,,,,,,,,4,Ontime,f,1,2.06,8,2,34,0,1,,,,,
1.11,,,,,,,,,j.PNG,j,5db508259ca75a000d583b9a,2021-09-08_17h54.21.631,forced_choiceRT,2021.1.2,Linux x86_64,60.31363088,,,,,,,,4,Slow,j,1,2.127,8,3,35,3,1,,,,,
1.87,,,,,,,,,f.PNG,f,5db508259ca75a000d583b9a,2021-09-08_17h54.21.631,forced_choiceRT,2021.1.2,Linux x86_64,60.31363088,,,,,,,,4,Slow,f,1,2.346,9,0,36,0,1,,,,,
0.25,,,,,,,,,f.PNG,f,5db508259ca75a000d583b9a,2021-09-08_17h54.21.631,forced_choiceRT,2021.1.2,Linux x86_64,60.31363088,,,,,,,,4,Ontime,f,1,2.077,9,1,37,0,1,,,,,
0.35,,,,,,,,,h.PNG,h,5db508259ca75a000d583b9a,2021-09-08_17h54.21.631,forced_choiceRT,2021.1.2,Linux x86_64,60.31363088,,,,,,,,4,Ontime,h,1,2.034,9,2,38,2,1,,,,,
0.16,,,,,,,,,f.PNG,f,5db508259ca75a000d583b9a,2021-09-08_17h54.21.631,forced_choiceRT,2021.1.2,Linux x86_64,60.31363088,,,,,,,,4,Ontime,f,1,2.028,9,3,39,0,1,,,,,
,,,,,,,,,,,5db508259ca75a000d583b9a,2021-09-08_17h54.21.631,forced_choiceRT,2021.1.2,Linux x86_64,60.31363088,,,,,,,,,,,,,,,,,,3,0,3,0,1
1.16,,,,,,,,,j.PNG,j,5db508259ca75a000d583b9a,2021-09-08_17h54.21.631,forced_choiceRT,2021.1.2,Linux x86_64,60.31363088,,,,,,,,5,Ontime,j,1,1.993,0,0,0,3,1,,,,,
0.31,,,,,,,,,h.PNG,h,5db508259ca75a000d583b9a,2021-09-08_17h54.21.631,forced_choiceRT,2021.1.2,Linux x86_64,60.31363088,,,,,,,,5,Ontime,h,1,1.996,0,1,1,2,1,,,,,
1.86,,,,,,,,,h.PNG,h,5db508259ca75a000d583b9a,2021-09-08_17h54.21.631,forced_choiceRT,2021.1.2,Linux x86_64,60.31363088,,,,,,,,5,Slow,f,0,2.14,0,2,2,2,1,,,,,
1.83,,,,,,,,,f.PNG,f,5db508259ca75a000d583b9a,2021-09-08_17h54.21.631,forced_choiceRT,2021.1.2,Linux x86_64,60.31363088,,,,,,,,5,Ontime,h,0,2.042,0,3,3,0,1,,,,,
1.38,,,,,,,,,h.PNG,h,5db508259ca75a000d583b9a,2021-09-08_17h54.21.631,forced_choiceRT,2021.1.2,Linux x86_64,60.31363088,,,,,,,,5,Ontime,f,0,1.952,1,0,4,2,1,,,,,
1.98,,,,,,,,,g.PNG,g,5db508259ca75a000d583b9a,2021-09-08_17h54.21.631,forced_choiceRT,2021.1.2,Linux x86_64,60.31363088,,,,,,,,5,Ontime,f,0,2.023,1,1,5,1,1,,,,,
0.08,,,,,,,,,j.PNG,j,5db508259ca75a000d583b9a,2021-09-08_17h54.21.631,forced_choiceRT,2021.1.2,Linux x86_64,60.31363088,,,,,,,,5,Ontime,j,1,2.041,1,2,6,3,1,,,,,
1.28,,,,,,,,,g.PNG,g,5db508259ca75a000d583b9a,2021-09-08_17h54.21.631,forced_choiceRT,2021.1.2,Linux x86_64,60.31363088,,,,,,,,5,Ontime,h,0,2.006,1,3,7,1,1,,,,,
0.63,,,,,,,,,g.PNG,g,5db508259ca75a000d583b9a,2021-09-08_17h54.21.631,forced_choiceRT,2021.1.2,Linux x86_64,60.31363088,,,,,,,,5,Ontime,g,1,1.963,2,0,8,1,1,,,,,
0.8,,,,,,,,,h.PNG,h,5db508259ca75a000d583b9a,2021-09-08_17h54.21.631,forced_choiceRT,2021.1.2,Linux x86_64,60.31363088,,,,,,,,5,Ontime,h,1,2.02,2,1,9,2,1,,,,,
1.32,,,,,,,,,f.PNG,f,5db508259ca75a000d583b9a,2021-09-08_17h54.21.631,forced_choiceRT,2021.1.2,Linux x86_64,60.31363088,,,,,,,,5,Ontime,f,1,2.074,2,2,10,0,1,,,,,
1.31,,,,,,,,,g.PNG,g,5db508259ca75a000d583b9a,2021-09-08_17h54.21.631,forced_choiceRT,2021.1.2,Linux x86_64,60.31363088,,,,,,,,5,Ontime,g,1,2.027,2,3,11,1,1,,,,,
0.63,,,,,,,,,h.PNG,h,5db508259ca75a000d583b9a,2021-09-08_17h54.21.631,forced_choiceRT,2021.1.2,Linux x86_64,60.31363088,,,,,,,,5,Ontime,h,1,1.955,3,0,12,2,1,,,,,
1.82,,,,,,,,,g.PNG,g,5db508259ca75a000d583b9a,2021-09-08_17h54.21.631,forced_choiceRT,2021.1.2,Linux x86_64,60.31363088,,,,,,,,5,Slow,h,0,2.168,3,1,13,1,1,,,,,
1.86,,,,,,,,,h.PNG,h,5db508259ca75a000d583b9a,2021-09-08_17h54.21.631,forced_choiceRT,2021.1.2,Linux x86_64,60.31363088,,,,,,,,5,Slow,j,0,2.15,3,2,14,2,1,,,,,
0.82,,,,,,,,,f.PNG,f,5db508259ca75a000d583b9a,2021-09-08_17h54.21.631,forced_choiceRT,2021.1.2,Linux x86_64,60.31363088,,,,,,,,5,Ontime,f,1,1.994,3,3,15,0,1,,,,,
1.23,,,,,,,,,h.PNG,h,5db508259ca75a000d583b9a,2021-09-08_17h54.21.631,forced_choiceRT,2021.1.2,Linux x86_64,60.31363088,,,,,,,,5,Ontime,h,1,2.064,4,0,16,2,1,,,,,
1.24,,,,,,,,,f.PNG,f,5db508259ca75a000d583b9a,2021-09-08_17h54.21.631,forced_choiceRT,2021.1.2,Linux x86_64,60.31363088,,,,,,,,5,Ontime,f,1,2.066,4,1,17,0,1,,,,,
1.49,,,,,,,,,g.PNG,g,5db508259ca75a000d583b9a,2021-09-08_17h54.21.631,forced_choiceRT,2021.1.2,Linux x86_64,60.31363088,,,,,,,,5,Slow,g,1,2.205,4,2,18,1,1,,,,,
0,,,,,,,,,g.PNG,g,5db508259ca75a000d583b9a,2021-09-08_17h54.21.631,forced_choiceRT,2021.1.2,Linux x86_64,60.31363088,,,,,,,,5,Slow,g,1,2.13,4,3,19,1,1,,,,,
0.26,,,,,,,,,g.PNG,g,5db508259ca75a000d583b9a,2021-09-08_17h54.21.631,forced_choiceRT,2021.1.2,Linux x86_64,60.31363088,,,,,,,,5,Ontime,g,1,2.061,5,0,20,1,1,,,,,
1.4,,,,,,,,,f.PNG,f,5db508259ca75a000d583b9a,2021-09-08_17h54.21.631,forced_choiceRT,2021.1.2,Linux x86_64,60.31363088,,,,,,,,5,Slow,f,1,2.198,5,1,21,0,1,,,,,
1.66,,,,,,,,,f.PNG,f,5db508259ca75a000d583b9a,2021-09-08_17h54.21.631,forced_choiceRT,2021.1.2,Linux x86_64,60.31363088,,,,,,,,5,Ontime,f,1,2.094,5,2,22,0,1,,,,,
0.8,,,,,,,,,f.PNG,f,5db508259ca75a000d583b9a,2021-09-08_17h54.21.631,forced_choiceRT,2021.1.2,Linux x86_64,60.31363088,,,,,,,,5,Ontime,f,1,2,5,3,23,0,1,,,,,
1.76,,,,,,,,,f.PNG,f,5db508259ca75a000d583b9a,2021-09-08_17h54.21.631,forced_choiceRT,2021.1.2,Linux x86_64,60.31363088,,,,,,,,5,Slow,f,1,2.118,6,0,24,0,1,,,,,
0,,,,,,,,,j.PNG,j,5db508259ca75a000d583b9a,2021-09-08_17h54.21.631,forced_choiceRT,2021.1.2,Linux x86_64,60.31363088,,,,,,,,5,Ontime,j,1,2.061,6,1,25,3,1,,,,,
1.05,,,,,,,,,h.PNG,h,5db508259ca75a000d583b9a,2021-09-08_17h54.21.631,forced_choiceRT,2021.1.2,Linux x86_64,60.31363088,,,,,,,,5,Slow,h,1,2.273,6,2,26,2,1,,,,,
1.32,,,,,,,,,h.PNG,h,5db508259ca75a000d583b9a,2021-09-08_17h54.21.631,forced_choiceRT,2021.1.2,Linux x86_64,60.31363088,,,,,,,,5,Ontime,h,1,2.007,6,3,27,2,1,,,,,
1.38,,,,,,,,,j.PNG,j,5db508259ca75a000d583b9a,2021-09-08_17h54.21.631,forced_choiceRT,2021.1.2,Linux x86_64,60.31363088,,,,,,,,5,Ontime,j,1,2,7,0,28,3,1,,,,,
0.24,,,,,,,,,g.PNG,g,5db508259ca75a000d583b9a,2021-09-08_17h54.21.631,forced_choiceRT,2021.1.2,Linux x86_64,60.31363088,,,,,,,,5,Ontime,g,1,2.019,7,1,29,1,1,,,,,
0.81,,,,,,,,,h.PNG,h,5db508259ca75a000d583b9a,2021-09-08_17h54.21.631,forced_choiceRT,2021.1.2,Linux x86_64,60.31363088,,,,,,,,5,Ontime,h,1,1.957,7,2,30,2,1,,,,,
1.98,,,,,,,,,j.PNG,j,5db508259ca75a000d583b9a,2021-09-08_17h54.21.631,forced_choiceRT,2021.1.2,Linux x86_64,60.31363088,,,,,,,,5,Slow,h,0,2.276,7,3,31,3,1,,,,,
1.88,,,,,,,,,f.PNG,f,5db508259ca75a000d583b9a,2021-09-08_17h54.21.631,forced_choiceRT,2021.1.2,Linux x86_64,60.31363088,,,,,,,,5,Slow,f,1,4.261,8,0,32,0,1,,,,,
0.81,,,,,,,,,j.PNG,j,5db508259ca75a000d583b9a,2021-09-08_17h54.21.631,forced_choiceRT,2021.1.2,Linux x86_64,60.31363088,,,,,,,,5,Ontime,j,1,1.96,8,1,33,3,1,,,,,
1.47,,,,,,,,,j.PNG,j,5db508259ca75a000d583b9a,2021-09-08_17h54.21.631,forced_choiceRT,2021.1.2,Linux x86_64,60.31363088,,,,,,,,5,Ontime,j,1,2.055,8,2,34,3,1,,,,,
0.3,,,,,,,,,j.PNG,j,5db508259ca75a000d583b9a,2021-09-08_17h54.21.631,forced_choiceRT,2021.1.2,Linux x86_64,60.31363088,,,,,,,,5,Ontime,j,1,2.029,8,3,35,3,1,,,,,
1.96,,,,,,,,,g.PNG,g,5db508259ca75a000d583b9a,2021-09-08_17h54.21.631,forced_choiceRT,2021.1.2,Linux x86_64,60.31363088,,,,,,,,5,Slow,j,0,2.148,9,0,36,1,1,,,,,
0.52,,,,,,,,,f.PNG,f,5db508259ca75a000d583b9a,2021-09-08_17h54.21.631,forced_choiceRT,2021.1.2,Linux x86_64,60.31363088,,,,,,,,5,Ontime,f,1,2.052,9,1,37,0,1,,,,,
1.4,,,,,,,,,j.PNG,j,5db508259ca75a000d583b9a,2021-09-08_17h54.21.631,forced_choiceRT,2021.1.2,Linux x86_64,60.31363088,,,,,,,,5,Ontime,j,1,1.992,9,2,38,3,1,,,,,
1.39,,,,,,,,,j.PNG,j,5db508259ca75a000d583b9a,2021-09-08_17h54.21.631,forced_choiceRT,2021.1.2,Linux x86_64,60.31363088,,,,,,,,5,Ontime,j,1,2.024,9,3,39,3,1,,,,,
,,,,,,,,,,,5db508259ca75a000d583b9a,2021-09-08_17h54.21.631,forced_choiceRT,2021.1.2,Linux x86_64,60.31363088,,,,,,,,,,,,,,,,,,4,0,4,0,1
1.62,,,,,,,,,f.PNG,f,5db508259ca75a000d583b9a,2021-09-08_17h54.21.631,forced_choiceRT,2021.1.2,Linux x86_64,60.31363088,,,,,,,,6,Slow,f,1,2.179,0,0,0,0,1,,,,,
1.02,,,,,,,,,f.PNG,f,5db508259ca75a000d583b9a,2021-09-08_17h54.21.631,forced_choiceRT,2021.1.2,Linux x86_64,60.31363088,,,,,,,,6,Ontime,f,1,2.051,0,1,1,0,1,,,,,
0.64,,,,,,,,,f.PNG,f,5db508259ca75a000d583b9a,2021-09-08_17h54.21.631,forced_choiceRT,2021.1.2,Linux x86_64,60.31363088,,,,,,,,6,Ontime,f,1,2.064,0,2,2,0,1,,,,,
1.66,,,,,,,,,g.PNG,g,5db508259ca75a000d583b9a,2021-09-08_17h54.21.631,forced_choiceRT,2021.1.2,Linux x86_64,60.31363088,,,,,,,,6,Slow,f,0,2.135,0,3,3,1,1,,,,,
0.74,,,,,,,,,f.PNG,f,5db508259ca75a000d583b9a,2021-09-08_17h54.21.631,forced_choiceRT,2021.1.2,Linux x86_64,60.31363088,,,,,,,,6,Slow,f,1,2.11,1,0,4,0,1,,,,,
0.27,,,,,,,,,h.PNG,h,5db508259ca75a000d583b9a,2021-09-08_17h54.21.631,forced_choiceRT,2021.1.2,Linux x86_64,60.31363088,,,,,,,,6,Ontime,h,1,1.982,1,1,5,2,1,,,,,
0.98,,,,,,,,,j.PNG,j,5db508259ca75a000d583b9a,2021-09-08_17h54.21.631,forced_choiceRT,2021.1.2,Linux x86_64,60.31363088,,,,,,,,6,Ontime,j,1,1.996,1,2,6,3,1,,,,,
0.38,,,,,,,,,f.PNG,f,5db508259ca75a000d583b9a,2021-09-08_17h54.21.631,forced_choiceRT,2021.1.2,Linux x86_64,60.31363088,,,,,,,,6,Ontime,f,1,1.961,1,3,7,0,1,,,,,
0.43,,,,,,,,,h.PNG,h,5db508259ca75a000d583b9a,2021-09-08_17h54.21.631,forced_choiceRT,2021.1.2,Linux x86_64,60.31363088,,,,,,,,6,Ontime,h,1,2.068,2,0,8,2,1,,,,,
0.17,,,,,,,,,f.PNG,f,5db508259ca75a000d583b9a,2021-09-08_17h54.21.631,forced_choiceRT,2021.1.2,Linux x86_64,60.31363088,,,,,,,,6,Ontime,f,1,1.935,2,1,9,0,1,,,,,
0.66,,,,,,,,,h.PNG,h,5db508259ca75a000d583b9a,2021-09-08_17h54.21.631,forced_choiceRT,2021.1.2,Linux x86_64,60.31363088,,,,,,,,6,Ontime,h,1,2.018,2,2,10,2,1,,,,,
0.19,,,,,,,,,j.PNG,j,5db508259ca75a000d583b9a,2021-09-08_17h54.21.631,forced_choiceRT,2021.1.2,Linux x86_64,60.31363088,,,,,,,,6,Ontime,j,1,1.936,2,3,11,3,1,,,,,
1.85,,,,,,,,,h.PNG,h,5db508259ca75a000d583b9a,2021-09-08_17h54.21.631,forced_choiceRT,2021.1.2,Linux x86_64,60.31363088,,,,,,,,6,Slow,f,0,2.12,3,0,12,2,1,,,,,
0.32,,,,,,,,,h.PNG,h,5db508259ca75a000d583b9a,2021-09-08_17h54.21.631,forced_choiceRT,2021.1.2,Linux x86_64,60.31363088,,,,,,,,6,Ontime,h,1,1.969,3,1,13,2,1,,,,,
0.42,,,,,,,,,j.PNG,j,5db508259ca75a000d583b9a,2021-09-08_17h54.21.631,forced_choiceRT,2021.1.2,Linux x86_64,60.31363088,,,,,,,,6,Ontime,j,1,1.998,3,2,14,3,1,,,,,
1.84,,,,,,,,,g.PNG,g,5db508259ca75a000d583b9a,2021-09-08_17h54.21.631,forced_choiceRT,2021.1.2,Linux x86_64,60.31363088,,,,,,,,6,Ontime,j,0,2.094,3,3,15,1,1,,,,,
0.45,,,,,,,,,f.PNG,f,5db508259ca75a000d583b9a,2021-09-08_17h54.21.631,forced_choiceRT,2021.1.2,Linux x86_64,60.31363088,,,,,,,,6,Ontime,f,1,2.044,4,0,16,0,1,,,,,
1.69,,,,,,,,,h.PNG,h,5db508259ca75a000d583b9a,2021-09-08_17h54.21.631,forced_choiceRT,2021.1.2,Linux x86_64,60.31363088,,,,,,,,6,Slow,j,0,2.242,4,1,17,2,1,,,,,
1.51,,,,,,,,,g.PNG,g,5db508259ca75a000d583b9a,2021-09-08_17h54.21.631,forced_choiceRT,2021.1.2,Linux x86_64,60.31363088,,,,,,,,6,Slow,g,1,2.216,4,2,18,1,1,,,,,
1.91,,,,,,,,,j.PNG,j,5db508259ca75a000d583b9a,2021-09-08_17h54.21.631,forced_choiceRT,2021.1.2,Linux x86_64,60.31363088,,,,,,,,6,Slow,h,0,2.152,4,3,19,3,1,,,,,
0.9,,,,,,,,,h.PNG,h,5db508259ca75a000d583b9a,2021-09-08_17h54.21.631,forced_choiceRT,2021.1.2,Linux x86_64,60.31363088,,,,,,,,6,Fast,h,1,1.796,5,0,20,2,1,,,,,
0.24,,,,,,,,,j.PNG,j,5db508259ca75a000d583b9a,2021-09-08_17h54.21.631,forced_choiceRT,2021.1.2,Linux x86_64,60.31363088,,,,,,,,6,Ontime,j,1,1.987,5,1,21,3,1,,,,,
1.51,,,,,,,,,j.PNG,j,5db508259ca75a000d583b9a,2021-09-08_17h54.21.631,forced_choiceRT,2021.1.2,Linux x86_64,60.31363088,,,,,,,,6,Ontime,j,1,2.043,5,2,22,3,1,,,,,
1.63,,,,,,,,,j.PNG,j,5db508259ca75a000d583b9a,2021-09-08_17h54.21.631,forced_choiceRT,2021.1.2,Linux x86_64,60.31363088,,,,,,,,6,Ontime,j,1,2.034,5,3,23,3,1,,,,,
1.7,,,,,,,,,j.PNG,j,5db508259ca75a000d583b9a,2021-09-08_17h54.21.631,forced_choiceRT,2021.1.2,Linux x86_64,60.31363088,,,,,,,,6,Ontime,j,1,1.943,6,0,24,3,1,,,,,
1.18,,,,,,,,,f.PNG,f,5db508259ca75a000d583b9a,2021-09-08_17h54.21.631,forced_choiceRT,2021.1.2,Linux x86_64,60.31363088,,,,,,,,6,Fast,f,1,1.833,6,1,25,0,1,,,,,
0.15,,,,,,,,,g.PNG,g,5db508259ca75a000d583b9a,2021-09-08_17h54.21.631,forced_choiceRT,2021.1.2,Linux x86_64,60.31363088,,,,,,,,6,Fast,g,1,1.841,6,2,26,1,1,,,,,
1.96,,,,,,,,,j.PNG,j,5db508259ca75a000d583b9a,2021-09-08_17h54.21.631,forced_choiceRT,2021.1.2,Linux x86_64,60.31363088,,,,,,,,6,Ontime,j,1,2.082,6,3,27,3,1,,,,,
1.4,,,,,,,,,g.PNG,g,5db508259ca75a000d583b9a,2021-09-08_17h54.21.631,forced_choiceRT,2021.1.2,Linux x86_64,60.31363088,,,,,,,,6,Slow,g,1,2.111,7,0,28,1,1,,,,,
0.16,,,,,,,,,f.PNG,f,5db508259ca75a000d583b9a,2021-09-08_17h54.21.631,forced_choiceRT,2021.1.2,Linux x86_64,60.31363088,,,,,,,,6,Ontime,f,1,2.06,7,1,29,0,1,,,,,
0.7,,,,,,,,,g.PNG,g,5db508259ca75a000d583b9a,2021-09-08_17h54.21.631,forced_choiceRT,2021.1.2,Linux x86_64,60.31363088,,,,,,,,6,Slow,g,1,2.109,7,2,30,1,1,,,,,
1.06,,,,,,,,,h.PNG,h,5db508259ca75a000d583b9a,2021-09-08_17h54.21.631,forced_choiceRT,2021.1.2,Linux x86_64,60.31363088,,,,,,,,6,Ontime,h,1,1.925,7,3,31,2,1,,,,,
1.77,,,,,,,,,h.PNG,h,5db508259ca75a000d583b9a,2021-09-08_17h54.21.631,forced_choiceRT,2021.1.2,Linux x86_64,60.31363088,,,,,,,,6,Slow,g,0,2.172,8,0,32,2,1,,,,,
1.92,,,,,,,,,f.PNG,f,5db508259ca75a000d583b9a,2021-09-08_17h54.21.631,forced_choiceRT,2021.1.2,Linux x86_64,60.31363088,,,,,,,,6,Slow,j,0,2.136,8,1,33,0,1,,,,,
0.52,,,,,,,,,j.PNG,j,5db508259ca75a000d583b9a,2021-09-08_17h54.21.631,forced_choiceRT,2021.1.2,Linux x86_64,60.31363088,,,,,,,,6,Ontime,j,1,1.966,8,2,34,3,1,,,,,
0.42,,,,,,,,,g.PNG,g,5db508259ca75a000d583b9a,2021-09-08_17h54.21.631,forced_choiceRT,2021.1.2,Linux x86_64,60.31363088,,,,,,,,6,Ontime,g,1,1.992,8,3,35,1,1,,,,,
1.96,,,,,,,,,h.PNG,h,5db508259ca75a000d583b9a,2021-09-08_17h54.21.631,forced_choiceRT,2021.1.2,Linux x86_64,60.31363088,,,,,,,,6,Slow,g,0,2.291,9,0,36,2,1,,,,,
0.21,,,,,,,,,g.PNG,g,5db508259ca75a000d583b9a,2021-09-08_17h54.21.631,forced_choiceRT,2021.1.2,Linux x86_64,60.31363088,,,,,,,,6,Ontime,g,1,1.964,9,1,37,1,1,,,,,
1,,,,,,,,,g.PNG,g,5db508259ca75a000d583b9a,2021-09-08_17h54.21.631,forced_choiceRT,2021.1.2,Linux x86_64,60.31363088,,,,,,,,6,Ontime,g,1,1.953,9,2,38,1,1,,,,,
1.07,,,,,,,,,g.PNG,g,5db508259ca75a000d583b9a,2021-09-08_17h54.21.631,forced_choiceRT,2021.1.2,Linux x86_64,60.31363088,,,,,,,,6,Ontime,g,1,2.004,9,3,39,1,1,,,,,
,,,,,,,,,,,5db508259ca75a000d583b9a,2021-09-08_17h54.21.631,forced_choiceRT,2021.1.2,Linux x86_64,60.31363088,,,,,,,,,,,,,,,,,,5,0,5,0,1
0.29,,,,,,,,,f.PNG,f,5db508259ca75a000d583b9a,2021-09-08_17h54.21.631,forced_choiceRT,2021.1.2,Linux x86_64,60.31363088,,,,,,,,7,Fast,f,1,0.905,0,0,0,0,1,,,,,
0.1,,,,,,,,,h.PNG,h,5db508259ca75a000d583b9a,2021-09-08_17h54.21.631,forced_choiceRT,2021.1.2,Linux x86_64,60.31363088,,,,,,,,7,Ontime,h,1,2.091,0,1,1,2,1,,,,,
1.35,,,,,,,,,g.PNG,g,5db508259ca75a000d583b9a,2021-09-08_17h54.21.631,forced_choiceRT,2021.1.2,Linux x86_64,60.31363088,,,,,,,,7,Ontime,g,1,2.066,0,2,2,1,1,,,,,
0.61,,,,,,,,,j.PNG,j,5db508259ca75a000d583b9a,2021-09-08_17h54.21.631,forced_choiceRT,2021.1.2,Linux x86_64,60.31363088,,,,,,,,7,Ontime,j,1,2.005,0,3,3,3,1,,,,,
1.48,,,,,,,,,j.PNG,j,5db508259ca75a000d583b9a,2021-09-08_17h54.21.631,forced_choiceRT,2021.1.2,Linux x86_64,60.31363088,,,,,,,,7,Slow,j,1,2.104,1,0,4,3,1,,,,,
1.17,,,,,,,,,h.PNG,h,5db508259ca75a000d583b9a,2021-09-08_17h54.21.631,forced_choiceRT,2021.1.2,Linux x86_64,60.31363088,,,,,,,,7,Ontime,h,1,2.052,1,1,5,2,1,,,,,
1.93,,,,,,,,,j.PNG,j,5db508259ca75a000d583b9a,2021-09-08_17h54.21.631,forced_choiceRT,2021.1.2,Linux x86_64,60.31363088,,,,,,,,7,Slow,h,0,2.376,1,2,6,3,1,,,,,
1.76,,,,,,,,,f.PNG,f,5db508259ca75a000d583b9a,2021-09-08_17h54.21.631,forced_choiceRT,2021.1.2,Linux x86_64,60.31363088,,,,,,,,7,Slow,g,0,2.364,1,3,7,0,1,,,,,
0.23,,,,,,,,,g.PNG,g,5db508259ca75a000d583b9a,2021-09-08_17h54.21.631,forced_choiceRT,2021.1.2,Linux x86_64,60.31363088,,,,,,,,7,Ontime,g,1,2.013,2,0,8,1,1,,,,,
0.47,,,,,,,,,g.PNG,g,5db508259ca75a000d583b9a,2021-09-08_17h54.21.631,forced_choiceRT,2021.1.2,Linux x86_64,60.31363088,,,,,,,,7,Ontime,g,1,2.011,2,1,9,1,1,,,,,
0.1,,,,,,,,,f.PNG,f,5db508259ca75a000d583b9a,2021-09-08_17h54.21.631,forced_choiceRT,2021.1.2,Linux x86_64,60.31363088,,,,,,,,7,Ontime,f,1,1.911,2,2,10,0,1,,,,,
0.8,,,,,,,,,h.PNG,h,5db508259ca75a000d583b9a,2021-09-08_17h54.21.631,forced_choiceRT,2021.1.2,Linux x86_64,60.31363088,,,,,,,,7,Ontime,h,1,2.028,2,3,11,2,1,,,,,
1.56,,,,,,,,,f.PNG,f,5db508259ca75a000d583b9a,2021-09-08_17h54.21.631,forced_choiceRT,2021.1.2,Linux x86_64,60.31363088,,,,,,,,7,Slow,f,1,2.14,3,0,12,0,1,,,,,
1.95,,,,,,,,,f.PNG,f,5db508259ca75a000d583b9a,2021-09-08_17h54.21.631,forced_choiceRT,2021.1.2,Linux x86_64,60.31363088,,,,,,,,7,Slow,f,1,12.716,3,1,13,0,1,,,,,
0.55,,,,,,,,,h.PNG,h,5db508259ca75a000d583b9a,2021-09-08_17h54.21.631,forced_choiceRT,2021.1.2,Linux x86_64,60.31363088,,,,,,,,7,Ontime,h,1,2.094,3,2,14,2,1,,,,,
1.41,,,,,,,,,j.PNG,j,5db508259ca75a000d583b9a,2021-09-08_17h54.21.631,forced_choiceRT,2021.1.2,Linux x86_64,60.31363088,,,,,,,,7,Ontime,j,1,2.008,3,3,15,3,1,,,,,
1.29,,,,,,,,,j.PNG,j,5db508259ca75a000d583b9a,2021-09-08_17h54.21.631,forced_choiceRT,2021.1.2,Linux x86_64,60.31363088,,,,,,,,7,Ontime,j,1,2.034,4,0,16,3,1,,,,,
1.25,,,,,,,,,f.PNG,f,5db508259ca75a000d583b9a,2021-09-08_17h54.21.631,forced_choiceRT,2021.1.2,Linux x86_64,60.31363088,,,,,,,,7,Ontime,f,1,2.024,4,1,17,0,1,,,,,
0.34,,,,,,,,,g.PNG,g,5db508259ca75a000d583b9a,2021-09-08_17h54.21.631,forced_choiceRT,2021.1.2,Linux x86_64,60.31363088,,,,,,,,7,Ontime,g,1,2.088,4,2,18,1,1,,,,,
1.73,,,,,,,,,g.PNG,g,5db508259ca75a000d583b9a,2021-09-08_17h54.21.631,forced_choiceRT,2021.1.2,Linux x86_64,60.31363088,,,,,,,,7,Slow,g,1,2.202,4,3,19,1,1,,,,,
1.94,,,,,,,,,h.PNG,h,5db508259ca75a000d583b9a,2021-09-08_17h54.21.631,forced_choiceRT,2021.1.2,Linux x86_64,60.31363088,,,,,,,,7,Slow,g,0,2.159,5,0,20,2,1,,,,,
1.2,,,,,,,,,j.PNG,j,5db508259ca75a000d583b9a,2021-09-08_17h54.21.631,forced_choiceRT,2021.1.2,Linux x86_64,60.31363088,,,,,,,,7,Ontime,j,1,1.995,5,1,21,3,1,,,,,
1.78,,,,,,,,,j.PNG,j,5db508259ca75a000d583b9a,2021-09-08_17h54.21.631,forced_choiceRT,2021.1.2,Linux x86_64,60.31363088,,,,,,,,7,Slow,j,1,2.218,5,2,22,3,1,,,,,
0.91,,,,,,,,,g.PNG,g,5db508259ca75a000d583b9a,2021-09-08_17h54.21.631,forced_choiceRT,2021.1.2,Linux x86_64,60.31363088,,,,,,,,7,Ontime,g,1,1.955,5,3,23,1,1,,,,,
0.08,,,,,,,,,g.PNG,g,5db508259ca75a000d583b9a,2021-09-08_17h54.21.631,forced_choiceRT,2021.1.2,Linux x86_64,60.31363088,,,,,,,,7,Ontime,g,1,1.981,6,0,24,1,1,,,,,
1.19,,,,,,,,,g.PNG,g,5db508259ca75a000d583b9a,2021-09-08_17h54.21.631,forced_choiceRT,2021.1.2,Linux x86_64,60.31363088,,,,,,,,7,Fast,g,1,1.874,6,1,25,1,1,,,,,
0.74,,,,,,,,,f.PNG,f,5db508259ca75a000d583b9a,2021-09-08_17h54.21.631,forced_choiceRT,2021.1.2,Linux x86_64,60.31363088,,,,,,,,7,Ontime,f,1,1.937,6,2,26,0,1,,,,,
1.64,,,,,,,,,f.PNG,f,5db508259ca75a000d583b9a,2021-09-08_17h54.21.631,forced_choiceRT,2021.1.2,Linux x86_64,60.31363088,,,,,,,,7,Ontime,f,1,2.043,6,3,27,0,1,,,,,
0.74,,,,,,,,,g.PNG,g,5db508259ca75a000d583b9a,2021-09-08_17h54.21.631,forced_choiceRT,2021.1.2,Linux x86_64,60.31363088,,,,,,,,7,Ontime,g,1,2.048,7,0,28,1,1,,,,,
0.3,,,,,,,,,h.PNG,h,5db508259ca75a000d583b9a,2021-09-08_17h54.21.631,forced_choiceRT,2021.1.2,Linux x86_64,60.31363088,,,,,,,,7,Ontime,h,1,2.004,7,1,29,2,1,,,,,
0.24,,,,,,,,,g.PNG,g,5db508259ca75a000d583b9a,2021-09-08_17h54.21.631,forced_choiceRT,2021.1.2,Linux x86_64,60.31363088,,,,,,,,7,Ontime,g,1,2.018,7,2,30,1,1,,,,,
0.04,,,,,,,,,j.PNG,j,5db508259ca75a000d583b9a,2021-09-08_17h54.21.631,forced_choiceRT,2021.1.2,Linux x86_64,60.31363088,,,,,,,,7,Ontime,j,1,2.055,7,3,31,3,1,,,,,
0.68,,,,,,,,,f.PNG,f,5db508259ca75a000d583b9a,2021-09-08_17h54.21.631,forced_choiceRT,2021.1.2,Linux x86_64,60.31363088,,,,,,,,7,Ontime,f,1,1.98,8,0,32,0,1,,,,,
0.29,,,,,,,,,h.PNG,h,5db508259ca75a000d583b9a,2021-09-08_17h54.21.631,forced_choiceRT,2021.1.2,Linux x86_64,60.31363088,,,,,,,,7,Ontime,h,1,2.025,8,1,33,2,1,,,,,
0.04,,,,,,,,,j.PNG,j,5db508259ca75a000d583b9a,2021-09-08_17h54.21.631,forced_choiceRT,2021.1.2,Linux x86_64,60.31363088,,,,,,,,7,Ontime,j,1,2.002,8,2,34,3,1,,,,,
0.23,,,,,,,,,h.PNG,h,5db508259ca75a000d583b9a,2021-09-08_17h54.21.631,forced_choiceRT,2021.1.2,Linux x86_64,60.31363088,,,,,,,,7,Slow,h,1,2.113,8,3,35,2,1,,,,,
0.32,,,,,,,,,h.PNG,h,5db508259ca75a000d583b9a,2021-09-08_17h54.21.631,forced_choiceRT,2021.1.2,Linux x86_64,60.31363088,,,,,,,,7,Ontime,h,1,2.035,9,0,36,2,1,,,,,
0.65,,,,,,,,,f.PNG,f,5db508259ca75a000d583b9a,2021-09-08_17h54.21.631,forced_choiceRT,2021.1.2,Linux x86_64,60.31363088,,,,,,,,7,Ontime,f,1,1.998,9,1,37,0,1,,,,,
0.63,,,,,,,,,h.PNG,h,5db508259ca75a000d583b9a,2021-09-08_17h54.21.631,forced_choiceRT,2021.1.2,Linux x86_64,60.31363088,,,,,,,,7,Ontime,h,1,1.974,9,2,38,2,1,,,,,
0.93,,,,,,,,,j.PNG,j,5db508259ca75a000d583b9a,2021-09-08_17h54.21.631,forced_choiceRT,2021.1.2,Linux x86_64,60.31363088,,,,,,,,7,Ontime,j,1,2.01,9,3,39,3,1,,,,,
,,,,,,,,,,,5db508259ca75a000d583b9a,2021-09-08_17h54.21.631,forced_choiceRT,2021.1.2,Linux x86_64,60.31363088,,,,,,,,,,,,,,,,,,6,0,6,0,1
1.03,,,,,,,,,j.PNG,j,5db508259ca75a000d583b9a,2021-09-08_17h54.21.631,forced_choiceRT,2021.1.2,Linux x86_64,60.31363088,,,,,,,,8,Ontime,j,1,2.078,0,0,0,3,1,,,,,
1.87,,,,,,,,,h.PNG,h,5db508259ca75a000d583b9a,2021-09-08_17h54.21.631,forced_choiceRT,2021.1.2,Linux x86_64,60.31363088,,,,,,,,8,Slow,j,0,2.165,0,1,1,2,1,,,,,
0.6,,,,,,,,,h.PNG,h,5db508259ca75a000d583b9a,2021-09-08_17h54.21.631,forced_choiceRT,2021.1.2,Linux x86_64,60.31363088,,,,,,,,8,Ontime,h,1,2.076,0,2,2,2,1,,,,,
0.52,,,,,,,,,f.PNG,f,5db508259ca75a000d583b9a,2021-09-08_17h54.21.631,forced_choiceRT,2021.1.2,Linux x86_64,60.31363088,,,,,,,,8,Ontime,f,1,2.067,0,3,3,0,1,,,,,
1.27,,,,,,,,,j.PNG,j,5db508259ca75a000d583b9a,2021-09-08_17h54.21.631,forced_choiceRT,2021.1.2,Linux x86_64,60.31363088,,,,,,,,8,Ontime,j,1,2.011,1,0,4,3,1,,,,,
0.17,,,,,,,,,h.PNG,h,5db508259ca75a000d583b9a,2021-09-08_17h54.21.631,forced_choiceRT,2021.1.2,Linux x86_64,60.31363088,,,,,,,,8,Ontime,h,1,1.993,1,1,5,2,1,,,,,
0.23,,,,,,,,,f.PNG,f,5db508259ca75a000d583b9a,2021-09-08_17h54.21.631,forced_choiceRT,2021.1.2,Linux x86_64,60.31363088,,,,,,,,8,Ontime,f,1,2.072,1,2,6,0,1,,,,,
1.28,,,,,,,,,g.PNG,g,5db508259ca75a000d583b9a,2021-09-08_17h54.21.631,forced_choiceRT,2021.1.2,Linux x86_64,60.31363088,,,,,,,,8,Ontime,g,1,1.973,1,3,7,1,1,,,,,
0.46,,,,,,,,,j.PNG,j,5db508259ca75a000d583b9a,2021-09-08_17h54.21.631,forced_choiceRT,2021.1.2,Linux x86_64,60.31363088,,,,,,,,8,Ontime,j,1,1.995,2,0,8,3,1,,,,,
1.45,,,,,,,,,f.PNG,f,5db508259ca75a000d583b9a,2021-09-08_17h54.21.631,forced_choiceRT,2021.1.2,Linux x86_64,60.31363088,,,,,,,,8,Ontime,f,1,1.962,2,1,9,0,1,,,,,
1.57,,,,,,,,,j.PNG,j,5db508259ca75a000d583b9a,2021-09-08_17h54.21.631,forced_choiceRT,2021.1.2,Linux x86_64,60.31363088,,,,,,,,8,Slow,j,1,2.152,2,2,10,3,1,,,,,
1.36,,,,,,,,,j.PNG,j,5db508259ca75a000d583b9a,2021-09-08_17h54.21.631,forced_choiceRT,2021.1.2,Linux x86_64,60.31363088,,,,,,,,8,Ontime,j,1,1.911,2,3,11,3,1,,,,,
1.61,,,,,,,,,h.PNG,h,5db508259ca75a000d583b9a,2021-09-08_17h54.21.631,forced_choiceRT,2021.1.2,Linux x86_64,60.31363088,,,,,,,,8,Slow,h,1,2.126,3,0,12,2,1,,,,,
0.49,,,,,,,,,j.PNG,j,5db508259ca75a000d583b9a,2021-09-08_17h54.21.631,forced_choiceRT,2021.1.2,Linux x86_64,60.31363088,,,,,,,,8,Fast,j,1,1.874,3,1,13,3,1,,,,,
0.15,,,,,,,,,h.PNG,h,5db508259ca75a000d583b9a,2021-09-08_17h54.21.631,forced_choiceRT,2021.1.2,Linux x86_64,60.31363088,,,,,,,,8,Ontime,h,1,2.016,3,2,14,2,1,,,,,
1.26,,,,,,,,,h.PNG,h,5db508259ca75a000d583b9a,2021-09-08_17h54.21.631,forced_choiceRT,2021.1.2,Linux x86_64,60.31363088,,,,,,,,8,Ontime,h,1,2.071,3,3,15,2,1,,,,,
0.07,,,,,,,,,h.PNG,h,5db508259ca75a000d583b9a,2021-09-08_17h54.21.631,forced_choiceRT,2021.1.2,Linux x86_64,60.31363088,,,,,,,,8,Ontime,h,1,2.078,4,0,16,2,1,,,,,
0.92,,,,,,,,,j.PNG,j,5db508259ca75a000d583b9a,2021-09-08_17h54.21.631,forced_choiceRT,2021.1.2,Linux x86_64,60.31363088,,,,,,,,8,Slow,j,1,2.11,4,1,17,3,1,,,,,
0.11,,,,,,,,,f.PNG,f,5db508259ca75a000d583b9a,2021-09-08_17h54.21.631,forced_choiceRT,2021.1.2,Linux x86_64,60.31363088,,,,,,,,8,Ontime,f,1,2.044,4,2,18,0,1,,,,,
1.79,,,,,,,,,g.PNG,g,5db508259ca75a000d583b9a,2021-09-08_17h54.21.631,forced_choiceRT,2021.1.2,Linux x86_64,60.31363088,,,,,,,,8,Slow,f,0,2.316,4,3,19,1,1,,,,,
0.97,,,,,,,,,g.PNG,g,5db508259ca75a000d583b9a,2021-09-08_17h54.21.631,forced_choiceRT,2021.1.2,Linux x86_64,60.31363088,,,,,,,,8,Ontime,g,1,2.063,5,0,20,1,1,,,,,
0.32,,,,,,,,,g.PNG,g,5db508259ca75a000d583b9a,2021-09-08_17h54.21.631,forced_choiceRT,2021.1.2,Linux x86_64,60.31363088,,,,,,,,8,Ontime,g,1,2.051,5,1,21,1,1,,,,,
1.28,,,,,,,,,g.PNG,g,5db508259ca75a000d583b9a,2021-09-08_17h54.21.631,forced_choiceRT,2021.1.2,Linux x86_64,60.31363088,,,,,,,,8,Ontime,g,1,2.033,5,2,22,1,1,,,,,
0.27,,,,,,,,,h.PNG,h,5db508259ca75a000d583b9a,2021-09-08_17h54.21.631,forced_choiceRT,2021.1.2,Linux x86_64,60.31363088,,,,,,,,8,Ontime,h,1,1.968,5,3,23,2,1,,,,,
1.16,,,,,,,,,f.PNG,f,5db508259ca75a000d583b9a,2021-09-08_17h54.21.631,forced_choiceRT,2021.1.2,Linux x86_64,60.31363088,,,,,,,,8,Slow,f,1,2.225,6,0,24,0,1,,,,,
1.08,,,,,,,,,g.PNG,g,5db508259ca75a000d583b9a,2021-09-08_17h54.21.631,forced_choiceRT,2021.1.2,Linux x86_64,60.31363088,,,,,,,,8,Ontime,g,1,1.999,6,1,25,1,1,,,,,
1.45,,,,,,,,,h.PNG,h,5db508259ca75a000d583b9a,2021-09-08_17h54.21.631,forced_choiceRT,2021.1.2,Linux x86_64,60.31363088,,,,,,,,8,Ontime,h,1,2.02,6,2,26,2,1,,,,,
0.31,,,,,,,,,f.PNG,f,5db508259ca75a000d583b9a,2021-09-08_17h54.21.631,forced_choiceRT,2021.1.2,Linux x86_64,60.31363088,,,,,,,,8,Ontime,f,1,1.906,6,3,27,0,1,,,,,
1.28,,,,,,,,,j.PNG,j,5db508259ca75a000d583b9a,2021-09-08_17h54.21.631,forced_choiceRT,2021.1.2,Linux x86_64,60.31363088,,,,,,,,8,Ontime,j,1,2.022,7,0,28,3,1,,,,,
1.68,,,,,,,,,g.PNG,g,5db508259ca75a000d583b9a,2021-09-08_17h54.21.631,forced_choiceRT,2021.1.2,Linux x86_64,60.31363088,,,,,,,,8,Slow,h,0,2.258,7,1,29,1,1,,,,,
1.01,,,,,,,,,f.PNG,f,5db508259ca75a000d583b9a,2021-09-08_17h54.21.631,forced_choiceRT,2021.1.2,Linux x86_64,60.31363088,,,,,,,,8,Ontime,f,1,2.077,7,2,30,0,1,,,,,
0.12,,,,,,,,,j.PNG,j,5db508259ca75a000d583b9a,2021-09-08_17h54.21.631,forced_choiceRT,2021.1.2,Linux x86_64,60.31363088,,,,,,,,8,Ontime,j,1,1.988,7,3,31,3,1,,,,,
1.1,,,,,,,,,g.PNG,g,5db508259ca75a000d583b9a,2021-09-08_17h54.21.631,forced_choiceRT,2021.1.2,Linux x86_64,60.31363088,,,,,,,,8,Ontime,g,1,1.973,8,0,32,1,1,,,,,
1.24,,,,,,,,,g.PNG,g,5db508259ca75a000d583b9a,2021-09-08_17h54.21.631,forced_choiceRT,2021.1.2,Linux x86_64,60.31363088,,,,,,,,8,Ontime,g,1,2.04,8,1,33,1,1,,,,,
0.69,,,,,,,,,f.PNG,f,5db508259ca75a000d583b9a,2021-09-08_17h54.21.631,forced_choiceRT,2021.1.2,Linux x86_64,60.31363088,,,,,,,,8,Ontime,f,1,2.057,8,2,34,0,1,,,,,
1.21,,,,,,,,,j.PNG,j,5db508259ca75a000d583b9a,2021-09-08_17h54.21.631,forced_choiceRT,2021.1.2,Linux x86_64,60.31363088,,,,,,,,8,Ontime,j,1,2.015,8,3,35,3,1,,,,,
0.3,,,,,,,,,f.PNG,f,5db508259ca75a000d583b9a,2021-09-08_17h54.21.631,forced_choiceRT,2021.1.2,Linux x86_64,60.31363088,,,,,,,,8,Fast,f,1,1.618,9,0,36,0,1,,,,,
1.93,,,,,,,,,f.PNG,f,5db508259ca75a000d583b9a,2021-09-08_17h54.21.631,forced_choiceRT,2021.1.2,Linux x86_64,60.31363088,,,,,,,,8,Slow,j,0,2.243,9,1,37,0,1,,,,,
1.43,,,,,,,,,h.PNG,h,5db508259ca75a000d583b9a,2021-09-08_17h54.21.631,forced_choiceRT,2021.1.2,Linux x86_64,60.31363088,,,,,,,,8,Ontime,j,0,1.983,9,2,38,2,1,,,,,
1.12,,,,,,,,,g.PNG,g,5db508259ca75a000d583b9a,2021-09-08_17h54.21.631,forced_choiceRT,2021.1.2,Linux x86_64,60.31363088,,,,,,,,8,Ontime,g,1,2.004,9,3,39,1,1,,,,,
,,,,,,,,,,,5db508259ca75a000d583b9a,2021-09-08_17h54.21.631,forced_choiceRT,2021.1.2,Linux x86_64,60.31363088,,,,,,,,,,,,,,,,,,7,0,7,0,1
0.32,,,,,,,,,f.PNG,f,5db508259ca75a000d583b9a,2021-09-08_17h54.21.631,forced_choiceRT,2021.1.2,Linux x86_64,60.31363088,,,,,,,,9,Slow,f,1,2.123,0,0,0,0,1,,,,,
1.14,,,,,,,,,f.PNG,f,5db508259ca75a000d583b9a,2021-09-08_17h54.21.631,forced_choiceRT,2021.1.2,Linux x86_64,60.31363088,,,,,,,,9,Ontime,f,1,2.086,0,1,1,0,1,,,,,
0.05,,,,,,,,,j.PNG,j,5db508259ca75a000d583b9a,2021-09-08_17h54.21.631,forced_choiceRT,2021.1.2,Linux x86_64,60.31363088,,,,,,,,9,Ontime,j,1,1.968,0,2,2,3,1,,,,,
1.49,,,,,,,,,h.PNG,h,5db508259ca75a000d583b9a,2021-09-08_17h54.21.631,forced_choiceRT,2021.1.2,Linux x86_64,60.31363088,,,,,,,,9,Ontime,h,1,2.077,0,3,3,2,1,,,,,
0.76,,,,,,,,,g.PNG,g,5db508259ca75a000d583b9a,2021-09-08_17h54.21.631,forced_choiceRT,2021.1.2,Linux x86_64,60.31363088,,,,,,,,9,Fast,g,1,1.899,1,0,4,1,1,,,,,
0.61,,,,,,,,,g.PNG,g,5db508259ca75a000d583b9a,2021-09-08_17h54.21.631,forced_choiceRT,2021.1.2,Linux x86_64,60.31363088,,,,,,,,9,Ontime,g,1,1.934,1,1,5,1,1,,,,,
0.58,,,,,,,,,f.PNG,f,5db508259ca75a000d583b9a,2021-09-08_17h54.21.631,forced_choiceRT,2021.1.2,Linux x86_64,60.31363088,,,,,,,,9,Ontime,f,1,1.994,1,2,6,0,1,,,,,
1.71,,,,,,,,,j.PNG,j,5db508259ca75a000d583b9a,2021-09-08_17h54.21.631,forced_choiceRT,2021.1.2,Linux x86_64,60.31363088,,,,,,,,9,Slow,h,0,2.222,1,3,7,3,1,,,,,
0.69,,,,,,,,,j.PNG,j,5db508259ca75a000d583b9a,2021-09-08_17h54.21.631,forced_choiceRT,2021.1.2,Linux x86_64,60.31363088,,,,,,,,9,Ontime,j,1,2.047,2,0,8,3,1,,,,,
0.1,,,,,,,,,f.PNG,f,5db508259ca75a000d583b9a,2021-09-08_17h54.21.631,forced_choiceRT,2021.1.2,Linux x86_64,60.31363088,,,,,,,,9,Ontime,f,1,1.954,2,1,9,0,1,,,,,
1.97,,,,,,,,,g.PNG,g,5db508259ca75a000d583b9a,2021-09-08_17h54.21.631,forced_choiceRT,2021.1.2,Linux x86_64,60.31363088,,,,,,,,9,Slow,f,0,2.251,2,2,10,1,1,,,,,
1.85,,,,,,,,,h.PNG,h,5db508259ca75a000d583b9a,2021-09-08_17h54.21.631,forced_choiceRT,2021.1.2,Linux x86_64,60.31363088,,,,,,,,9,Slow,j,0,2.397,2,3,11,2,1,,,,,
1.26,,,,,,,,,j.PNG,j,5db508259ca75a000d583b9a,2021-09-08_17h54.21.631,forced_choiceRT,2021.1.2,Linux x86_64,60.31363088,,,,,,,,9,Ontime,j,1,2.003,3,0,12,3,1,,,,,
1.59,,,,,,,,,j.PNG,j,5db508259ca75a000d583b9a,2021-09-08_17h54.21.631,forced_choiceRT,2021.1.2,Linux x86_64,60.31363088,,,,,,,,9,Slow,j,1,2.13,3,1,13,3,1,,,,,
1.91,,,,,,,,,f.PNG,f,5db508259ca75a000d583b9a,2021-09-08_17h54.21.631,forced_choiceRT,2021.1.2,Linux x86_64,60.31363088,,,,,,,,9,Slow,j,0,2.169,3,2,14,0,1,,,,,
1.44,,,,,,,,,g.PNG,g,5db508259ca75a000d583b9a,2021-09-08_17h54.21.631,forced_choiceRT,2021.1.2,Linux x86_64,60.31363088,,,,,,,,9,Ontime,g,1,2.077,3,3,15,1,1,,,,,
0.58,,,,,,,,,f.PNG,f,5db508259ca75a000d583b9a,2021-09-08_17h54.21.631,forced_choiceRT,2021.1.2,Linux x86_64,60.31363088,,,,,,,,9,Ontime,f,1,1.953,4,0,16,0,1,,,,,
1.05,,,,,,,,,j.PNG,j,5db508259ca75a000d583b9a,2021-09-08_17h54.21.631,forced_choiceRT,2021.1.2,Linux x86_64,60.31363088,,,,,,,,9,Ontime,j,1,1.924,4,1,17,3,1,,,,,
1.26,,,,,,,,,h.PNG,h,5db508259ca75a000d583b9a,2021-09-08_17h54.21.631,forced_choiceRT,2021.1.2,Linux x86_64,60.31363088,,,,,,,,9,Ontime,h,1,1.994,4,2,18,2,1,,,,,
1.91,,,,,,,,,g.PNG,g,5db508259ca75a000d583b9a,2021-09-08_17h54.21.631,forced_choiceRT,2021.1.2,Linux x86_64,60.31363088,,,,,,,,9,Slow,g,1,3.821,4,3,19,1,1,,,,,
0.19,,,,,,,,,g.PNG,g,5db508259ca75a000d583b9a,2021-09-08_17h54.21.631,forced_choiceRT,2021.1.2,Linux x86_64,60.31363088,,,,,,,,9,Ontime,g,1,2.075,5,0,20,1,1,,,,,
0.87,,,,,,,,,j.PNG,j,5db508259ca75a000d583b9a,2021-09-08_17h54.21.631,forced_choiceRT,2021.1.2,Linux x86_64,60.31363088,,,,,,,,9,Ontime,j,1,2.099,5,1,21,3,1,,,,,
0.9,,,,,,,,,f.PNG,f,5db508259ca75a000d583b9a,2021-09-08_17h54.21.631,forced_choiceRT,2021.1.2,Linux x86_64,60.31363088,,,,,,,,9,Slow,f,1,2.119,5,2,22,0,1,,,,,
0.59,,,,,,,,,h.PNG,h,5db508259ca75a000d583b9a,2021-09-08_17h54.21.631,forced_choiceRT,2021.1.2,Linux x86_64,60.31363088,,,,,,,,9,Ontime,h,1,2.049,5,3,23,2,1,,,,,
0.99,,,,,,,,,h.PNG,h,5db508259ca75a000d583b9a,2021-09-08_17h54.21.631,forced_choiceRT,2021.1.2,Linux x86_64,60.31363088,,,,,,,,9,Slow,h,1,2.13,6,0,24,2,1,,,,,
1.04,,,,,,,,,h.PNG,h,5db508259ca75a000d583b9a,2021-09-08_17h54.21.631,forced_choiceRT,2021.1.2,Linux x86_64,60.31363088,,,,,,,,9,Ontime,h,1,2.079,6,1,25,2,1,,,,,
1.22,,,,,,,,,h.PNG,h,5db508259ca75a000d583b9a,2021-09-08_17h54.21.631,forced_choiceRT,2021.1.2,Linux x86_64,60.31363088,,,,,,,,9,Ontime,h,1,1.959,6,2,26,2,1,,,,,
1.21,,,,,,,,,g.PNG,g,5db508259ca75a000d583b9a,2021-09-08_17h54.21.631,forced_choiceRT,2021.1.2,Linux x86_64,60.31363088,,,,,,,,9,Ontime,g,1,2.069,6,3,27,1,1,,,,,
0.93,,,,,,,,,j.PNG,j,5db508259ca75a000d583b9a,2021-09-08_17h54.21.631,forced_choiceRT,2021.1.2,Linux x86_64,60.31363088,,,,,,,,9,Slow,j,1,2.189,7,0,28,3,1,,,,,
1.96,,,,,,,,,g.PNG,g,5db508259ca75a000d583b9a,2021-09-08_17h54.21.631,forced_choiceRT,2021.1.2,Linux x86_64,60.31363088,,,,,,,,9,Slow,g,1,3.008,7,1,29,1,1,,,,,
1.96,,,,,,,,,j.PNG,j,5db508259ca75a000d583b9a,2021-09-08_17h54.21.631,forced_choiceRT,2021.1.2,Linux x86_64,60.31363088,,,,,,,,9,Slow,j,1,2.709,7,2,30,3,1,,,,,
1.53,,,,,,,,,h.PNG,h,5db508259ca75a000d583b9a,2021-09-08_17h54.21.631,forced_choiceRT,2021.1.2,Linux x86_64,60.31363088,,,,,,,,9,Slow,h,1,2.193,7,3,31,2,1,,,,,
0.67,,,,,,,,,f.PNG,f,5db508259ca75a000d583b9a,2021-09-08_17h54.21.631,forced_choiceRT,2021.1.2,Linux x86_64,60.31363088,,,,,,,,9,Slow,f,1,2.116,8,0,32,0,1,,,,,
1.84,,,,,,,,,f.PNG,f,5db508259ca75a000d583b9a,2021-09-08_17h54.21.631,forced_choiceRT,2021.1.2,Linux x86_64,60.31363088,,,,,,,,9,Slow,g,0,2.24,8,1,33,0,1,,,,,
1.37,,,,,,,,,h.PNG,h,5db508259ca75a000d583b9a,2021-09-08_17h54.21.631,forced_choiceRT,2021.1.2,Linux x86_64,60.31363088,,,,,,,,9,Ontime,h,1,2.01,8,2,34,2,1,,,,,
1.58,,,,,,,,,g.PNG,g,5db508259ca75a000d583b9a,2021-09-08_17h54.21.631,forced_choiceRT,2021.1.2,Linux x86_64,60.31363088,,,,,,,,9,Slow,g,1,2.159,8,3,35,1,1,,,,,
0.12,,,,,,,,,f.PNG,f,5db508259ca75a000d583b9a,2021-09-08_17h54.21.631,forced_choiceRT,2021.1.2,Linux x86_64,60.31363088,,,,,,,,9,Ontime,f,1,1.994,9,0,36,0,1,,,,,
0.62,,,,,,,,,h.PNG,h,5db508259ca75a000d583b9a,2021-09-08_17h54.21.631,forced_choiceRT,2021.1.2,Linux x86_64,60.31363088,,,,,,,,9,Ontime,h,1,2.032,9,1,37,2,1,,,,,
0.91,,,,,,,,,g.PNG,g,5db508259ca75a000d583b9a,2021-09-08_17h54.21.631,forced_choiceRT,2021.1.2,Linux x86_64,60.31363088,,,,,,,,9,Ontime,g,1,2.075,9,2,38,1,1,,,,,
1.89,,,,,,,,,j.PNG,j,5db508259ca75a000d583b9a,2021-09-08_17h54.21.631,forced_choiceRT,2021.1.2,Linux x86_64,60.31363088,,,,,,,,9,Slow,h,0,2.317,9,3,39,3,1,,,,,
,,,,,,,,,,,5db508259ca75a000d583b9a,2021-09-08_17h54.21.631,forced_choiceRT,2021.1.2,Linux x86_64,60.31363088,,,,,,,,,,,,,,,,,,8,0,8,0,1
1.47,,,,,,,,,j.PNG,j,5db508259ca75a000d583b9a,2021-09-08_17h54.21.631,forced_choiceRT,2021.1.2,Linux x86_64,60.31363088,,,,,,,,10,Ontime,j,1,2.019,0,0,0,3,1,,,,,
0.57,,,,,,,,,h.PNG,h,5db508259ca75a000d583b9a,2021-09-08_17h54.21.631,forced_choiceRT,2021.1.2,Linux x86_64,60.31363088,,,,,,,,10,Ontime,h,1,1.998,0,1,1,2,1,,,,,
1.9,,,,,,,,,h.PNG,h,5db508259ca75a000d583b9a,2021-09-08_17h54.21.631,forced_choiceRT,2021.1.2,Linux x86_64,60.31363088,,,,,,,,10,Slow,j,0,2.189,0,2,2,2,1,,,,,
1.61,,,,,,,,,f.PNG,f,5db508259ca75a000d583b9a,2021-09-08_17h54.21.631,forced_choiceRT,2021.1.2,Linux x86_64,60.31363088,,,,,,,,10,Slow,f,1,2.103,0,3,3,0,1,,,,,
1.92,,,,,,,,,g.PNG,g,5db508259ca75a000d583b9a,2021-09-08_17h54.21.631,forced_choiceRT,2021.1.2,Linux x86_64,60.31363088,,,,,,,,10,Slow,g,1,2.364,1,0,4,1,1,,,,,
1.96,,,,,,,,,j.PNG,j,5db508259ca75a000d583b9a,2021-09-08_17h54.21.631,forced_choiceRT,2021.1.2,Linux x86_64,60.31363088,,,,,,,,10,Slow,j,1,2.411,1,1,5,3,1,,,,,
0.97,,,,,,,,,f.PNG,f,5db508259ca75a000d583b9a,2021-09-08_17h54.21.631,forced_choiceRT,2021.1.2,Linux x86_64,60.31363088,,,,,,,,10,Ontime,f,1,2.026,1,2,6,0,1,,,,,
0.02,,,,,,,,,j.PNG,j,5db508259ca75a000d583b9a,2021-09-08_17h54.21.631,forced_choiceRT,2021.1.2,Linux x86_64,60.31363088,,,,,,,,10,Ontime,j,1,1.977,1,3,7,3,1,,,,,
0.81,,,,,,,,,j.PNG,j,5db508259ca75a000d583b9a,2021-09-08_17h54.21.631,forced_choiceRT,2021.1.2,Linux x86_64,60.31363088,,,,,,,,10,Ontime,j,1,1.947,2,0,8,3,1,,,,,
1.74,,,,,,,,,f.PNG,f,5db508259ca75a000d583b9a,2021-09-08_17h54.21.631,forced_choiceRT,2021.1.2,Linux x86_64,60.31363088,,,,,,,,10,Slow,h,0,2.19,2,1,9,0,1,,,,,
1.95,,,,,,,,,g.PNG,g,5db508259ca75a000d583b9a,2021-09-08_17h54.21.631,forced_choiceRT,2021.1.2,Linux x86_64,60.31363088,,,,,,,,10,Slow,f,0,2.393,2,2,10,1,1,,,,,
0.46,,,,,,,,,j.PNG,j,5db508259ca75a000d583b9a,2021-09-08_17h54.21.631,forced_choiceRT,2021.1.2,Linux x86_64,60.31363088,,,,,,,,10,Ontime,j,1,2.064,2,3,11,3,1,,,,,
0.9,,,,,,,,,h.PNG,h,5db508259ca75a000d583b9a,2021-09-08_17h54.21.631,forced_choiceRT,2021.1.2,Linux x86_64,60.31363088,,,,,,,,10,Ontime,h,1,1.955,3,0,12,2,1,,,,,
0.51,,,,,,,,,g.PNG,g,5db508259ca75a000d583b9a,2021-09-08_17h54.21.631,forced_choiceRT,2021.1.2,Linux x86_64,60.31363088,,,,,,,,10,Ontime,g,1,2.068,3,1,13,1,1,,,,,
0.01,,,,,,,,,g.PNG,g,5db508259ca75a000d583b9a,2021-09-08_17h54.21.631,forced_choiceRT,2021.1.2,Linux x86_64,60.31363088,,,,,,,,10,Ontime,g,1,2.042,3,2,14,1,1,,,,,
1.41,,,,,,,,,g.PNG,g,5db508259ca75a000d583b9a,2021-09-08_17h54.21.631,forced_choiceRT,2021.1.2,Linux x86_64,60.31363088,,,,,,,,10,Ontime,g,1,1.996,3,3,15,1,1,,,,,
1.52,,,,,,,,,h.PNG,h,5db508259ca75a000d583b9a,2021-09-08_17h54.21.631,forced_choiceRT,2021.1.2,Linux x86_64,60.31363088,,,,,,,,10,Slow,j,0,2.118,4,0,16,2,1,,,,,
0.6,,,,,,,,,h.PNG,h,5db508259ca75a000d583b9a,2021-09-08_17h54.21.631,forced_choiceRT,2021.1.2,Linux x86_64,60.31363088,,,,,,,,10,Ontime,h,1,2.042,4,1,17,2,1,,,,,
0.56,,,,,,,,,h.PNG,h,5db508259ca75a000d583b9a,2021-09-08_17h54.21.631,forced_choiceRT,2021.1.2,Linux x86_64,60.31363088,,,,,,,,10,Ontime,h,1,2.038,4,2,18,2,1,,,,,
0.07,,,,,,,,,h.PNG,h,5db508259ca75a000d583b9a,2021-09-08_17h54.21.631,forced_choiceRT,2021.1.2,Linux x86_64,60.31363088,,,,,,,,10,Fast,h,1,1.81,4,3,19,2,1,,,,,
0.94,,,,,,,,,g.PNG,g,5db508259ca75a000d583b9a,2021-09-08_17h54.21.631,forced_choiceRT,2021.1.2,Linux x86_64,60.31363088,,,,,,,,10,Slow,g,1,2.101,5,0,20,1,1,,,,,
0.33,,,,,,,,,f.PNG,f,5db508259ca75a000d583b9a,2021-09-08_17h54.21.631,forced_choiceRT,2021.1.2,Linux x86_64,60.31363088,,,,,,,,10,Ontime,f,1,2.08,5,1,21,0,1,,,,,
0.24,,,,,,,,,f.PNG,f,5db508259ca75a000d583b9a,2021-09-08_17h54.21.631,forced_choiceRT,2021.1.2,Linux x86_64,60.31363088,,,,,,,,10,Ontime,f,1,1.967,5,2,22,0,1,,,,,
1.83,,,,,,,,,h.PNG,h,5db508259ca75a000d583b9a,2021-09-08_17h54.21.631,forced_choiceRT,2021.1.2,Linux x86_64,60.31363088,,,,,,,,10,Slow,h,1,2.56,5,3,23,2,1,,,,,
1.52,,,,,,,,,f.PNG,f,5db508259ca75a000d583b9a,2021-09-08_17h54.21.631,forced_choiceRT,2021.1.2,Linux x86_64,60.31363088,,,,,,,,10,Slow,f,1,2.216,6,0,24,0,1,,,,,
0.04,,,,,,,,,f.PNG,f,5db508259ca75a000d583b9a,2021-09-08_17h54.21.631,forced_choiceRT,2021.1.2,Linux x86_64,60.31363088,,,,,,,,10,Ontime,f,1,2.007,6,1,25,0,1,,,,,
1.38,,,,,,,,,j.PNG,j,5db508259ca75a000d583b9a,2021-09-08_17h54.21.631,forced_choiceRT,2021.1.2,Linux x86_64,60.31363088,,,,,,,,10,Ontime,j,1,2.034,6,2,26,3,1,,,,,
1.49,,,,,,,,,h.PNG,h,5db508259ca75a000d583b9a,2021-09-08_17h54.21.631,forced_choiceRT,2021.1.2,Linux x86_64,60.31363088,,,,,,,,10,Slow,h,1,2.115,6,3,27,2,1,,,,,
0.83,,,,,,,,,j.PNG,j,5db508259ca75a000d583b9a,2021-09-08_17h54.21.631,forced_choiceRT,2021.1.2,Linux x86_64,60.31363088,,,,,,,,10,Ontime,j,1,2.068,7,0,28,3,1,,,,,
0.07,,,,,,,,,f.PNG,f,5db508259ca75a000d583b9a,2021-09-08_17h54.21.631,forced_choiceRT,2021.1.2,Linux x86_64,60.31363088,,,,,,,,10,Ontime,f,1,2.036,7,1,29,0,1,,,,,
0.44,,,,,,,,,j.PNG,j,5db508259ca75a000d583b9a,2021-09-08_17h54.21.631,forced_choiceRT,2021.1.2,Linux x86_64,60.31363088,,,,,,,,10,Ontime,j,1,2.027,7,2,30,3,1,,,,,
0.99,,,,,,,,,g.PNG,g,5db508259ca75a000d583b9a,2021-09-08_17h54.21.631,forced_choiceRT,2021.1.2,Linux x86_64,60.31363088,,,,,,,,10,Ontime,g,1,2.077,7,3,31,1,1,,,,,
1.09,,,,,,,,,g.PNG,g,5db508259ca75a000d583b9a,2021-09-08_17h54.21.631,forced_choiceRT,2021.1.2,Linux x86_64,60.31363088,,,,,,,,10,Slow,g,1,2.12,8,0,32,1,1,,,,,
0.39,,,,,,,,,j.PNG,j,5db508259ca75a000d583b9a,2021-09-08_17h54.21.631,forced_choiceRT,2021.1.2,Linux x86_64,60.31363088,,,,,,,,10,Ontime,j,1,1.976,8,1,33,3,1,,,,,
0.52,,,,,,,,,g.PNG,g,5db508259ca75a000d583b9a,2021-09-08_17h54.21.631,forced_choiceRT,2021.1.2,Linux x86_64,60.31363088,,,,,,,,10,Ontime,g,1,2.004,8,2,34,1,1,,,,,
1.58,,,,,,,,,j.PNG,j,5db508259ca75a000d583b9a,2021-09-08_17h54.21.631,forced_choiceRT,2021.1.2,Linux x86_64,60.31363088,,,,,,,,10,Slow,j,1,2.129,8,3,35,3,1,,,,,
0.12,,,,,,,,,f.PNG,f,5db508259ca75a000d583b9a,2021-09-08_17h54.21.631,forced_choiceRT,2021.1.2,Linux x86_64,60.31363088,,,,,,,,10,Ontime,f,1,2.049,9,0,36,0,1,,,,,
0.3,,,,,,,,,g.PNG,g,5db508259ca75a000d583b9a,2021-09-08_17h54.21.631,forced_choiceRT,2021.1.2,Linux x86_64,60.31363088,,,,,,,,10,Ontime,g,1,2.035,9,1,37,1,1,,,,,
0.78,,,,,,,,,f.PNG,f,5db508259ca75a000d583b9a,2021-09-08_17h54.21.631,forced_choiceRT,2021.1.2,Linux x86_64,60.31363088,,,,,,,,10,Ontime,f,1,2.042,9,2,38,0,1,,,,,
0.16,,,,,,,,,h.PNG,h,5db508259ca75a000d583b9a,2021-09-08_17h54.21.631,forced_choiceRT,2021.1.2,Linux x86_64,60.31363088,,,,,,,,10,Slow,h,1,2.102,9,3,39,2,1,,,,,
,,,,,,,,,,,5db508259ca75a000d583b9a,2021-09-08_17h54.21.631,forced_choiceRT,2021.1.2,Linux x86_64,60.31363088,,,,,,,,,,,,,,,,,,9,0,9,0,1
