target_onset,trial_resp_sp.keys,trial_resp_sp.corr,trial_resp_sp.rt,trials_train_loop.thisRepN,trials_train_loop.thisTrialN,trials_train_loop.thisN,trials_train_loop.thisIndex,trials_train_loop.ran,pic,correct_key,participant,date,expName,psychopyVersion,OS,frameRate,trial_resp_timing.keys,trial_resp_timing.rt,trials_train_timing.thisRepN,trials_train_timing.thisTrialN,trials_train_timing.thisN,trials_train_timing.thisIndex,trials_train_timing.ran,block_id,ontime,forcedRT_resp.keys,forcedRT_resp.corr,forcedRT_resp.rt,trials.thisRepN,trials.thisTrialN,trials.thisN,trials.thisIndex,trials.ran,blocks.thisRepN,blocks.thisTrialN,blocks.thisN,blocks.thisIndex,blocks.ran
0,j,1,3.363,0,0,0,3,1,j.PNG,j,5dd2e29b2c5c102e6454227a,2021-09-08_13h56.06.896,forced_choiceRT,2021.1.2,Win32,60.0240096,,,,,,,,,,,,,,,,,,,,,,
0,g,1,1.168,0,1,1,1,1,g.PNG,g,5dd2e29b2c5c102e6454227a,2021-09-08_13h56.06.896,forced_choiceRT,2021.1.2,Win32,60.0240096,,,,,,,,,,,,,,,,,,,,,,
0,j,1,1.184,0,2,2,3,1,j.PNG,j,5dd2e29b2c5c102e6454227a,2021-09-08_13h56.06.896,forced_choiceRT,2021.1.2,Win32,60.0240096,,,,,,,,,,,,,,,,,,,,,,
0,j,1,0.784,0,3,3,3,1,j.PNG,j,5dd2e29b2c5c102e6454227a,2021-09-08_13h56.06.896,forced_choiceRT,2021.1.2,Win32,60.0240096,,,,,,,,,,,,,,,,,,,,,,
0,f,1,1.172,1,0,4,0,1,f.PNG,f,5dd2e29b2c5c102e6454227a,2021-09-08_13h56.06.896,forced_choiceRT,2021.1.2,Win32,60.0240096,,,,,,,,,,,,,,,,,,,,,,
0,f,1,0.89,1,1,5,0,1,f.PNG,f,5dd2e29b2c5c102e6454227a,2021-09-08_13h56.06.896,forced_choiceRT,2021.1.2,Win32,60.0240096,,,,,,,,,,,,,,,,,,,,,,
0,j,1,1.169,1,2,6,3,1,j.PNG,j,5dd2e29b2c5c102e6454227a,2021-09-08_13h56.06.896,forced_choiceRT,2021.1.2,Win32,60.0240096,,,,,,,,,,,,,,,,,,,,,,
0,h,1,0.869,1,3,7,2,1,h.PNG,h,5dd2e29b2c5c102e6454227a,2021-09-08_13h56.06.896,forced_choiceRT,2021.1.2,Win32,60.0240096,,,,,,,,,,,,,,,,,,,,,,
0,j,1,0.801,2,0,8,3,1,j.PNG,j,5dd2e29b2c5c102e6454227a,2021-09-08_13h56.06.896,forced_choiceRT,2021.1.2,Win32,60.0240096,,,,,,,,,,,,,,,,,,,,,,
0,f,1,0.66,2,1,9,0,1,f.PNG,f,5dd2e29b2c5c102e6454227a,2021-09-08_13h56.06.896,forced_choiceRT,2021.1.2,Win32,60.0240096,,,,,,,,,,,,,,,,,,,,,,
0,h,1,0.824,2,2,10,2,1,h.PNG,h,5dd2e29b2c5c102e6454227a,2021-09-08_13h56.06.896,forced_choiceRT,2021.1.2,Win32,60.0240096,,,,,,,,,,,,,,,,,,,,,,
0,g,1,0.691,2,3,11,1,1,g.PNG,g,5dd2e29b2c5c102e6454227a,2021-09-08_13h56.06.896,forced_choiceRT,2021.1.2,Win32,60.0240096,,,,,,,,,,,,,,,,,,,,,,
0,h,1,0.751,3,0,12,2,1,h.PNG,h,5dd2e29b2c5c102e6454227a,2021-09-08_13h56.06.896,forced_choiceRT,2021.1.2,Win32,60.0240096,,,,,,,,,,,,,,,,,,,,,,
0,g,1,1.072,3,1,13,1,1,g.PNG,g,5dd2e29b2c5c102e6454227a,2021-09-08_13h56.06.896,forced_choiceRT,2021.1.2,Win32,60.0240096,,,,,,,,,,,,,,,,,,,,,,
0,g,1,0.734,3,2,14,1,1,g.PNG,g,5dd2e29b2c5c102e6454227a,2021-09-08_13h56.06.896,forced_choiceRT,2021.1.2,Win32,60.0240096,,,,,,,,,,,,,,,,,,,,,,
0,j,1,0.651,3,3,15,3,1,j.PNG,j,5dd2e29b2c5c102e6454227a,2021-09-08_13h56.06.896,forced_choiceRT,2021.1.2,Win32,60.0240096,,,,,,,,,,,,,,,,,,,,,,
0,g,1,0.935,4,0,16,1,1,g.PNG,g,5dd2e29b2c5c102e6454227a,2021-09-08_13h56.06.896,forced_choiceRT,2021.1.2,Win32,60.0240096,,,,,,,,,,,,,,,,,,,,,,
0,f,1,0.651,4,1,17,0,1,f.PNG,f,5dd2e29b2c5c102e6454227a,2021-09-08_13h56.06.896,forced_choiceRT,2021.1.2,Win32,60.0240096,,,,,,,,,,,,,,,,,,,,,,
0,g,1,1.451,4,2,18,1,1,g.PNG,g,5dd2e29b2c5c102e6454227a,2021-09-08_13h56.06.896,forced_choiceRT,2021.1.2,Win32,60.0240096,,,,,,,,,,,,,,,,,,,,,,
0,g,1,0.752,4,3,19,1,1,g.PNG,g,5dd2e29b2c5c102e6454227a,2021-09-08_13h56.06.896,forced_choiceRT,2021.1.2,Win32,60.0240096,,,,,,,,,,,,,,,,,,,,,,
0,f,1,0.656,5,0,20,0,1,f.PNG,f,5dd2e29b2c5c102e6454227a,2021-09-08_13h56.06.896,forced_choiceRT,2021.1.2,Win32,60.0240096,,,,,,,,,,,,,,,,,,,,,,
0,h,1,0.892,5,1,21,2,1,h.PNG,h,5dd2e29b2c5c102e6454227a,2021-09-08_13h56.06.896,forced_choiceRT,2021.1.2,Win32,60.0240096,,,,,,,,,,,,,,,,,,,,,,
0,h,1,0.668,5,2,22,2,1,h.PNG,h,5dd2e29b2c5c102e6454227a,2021-09-08_13h56.06.896,forced_choiceRT,2021.1.2,Win32,60.0240096,,,,,,,,,,,,,,,,,,,,,,
0,f,1,0.601,5,3,23,0,1,f.PNG,f,5dd2e29b2c5c102e6454227a,2021-09-08_13h56.06.896,forced_choiceRT,2021.1.2,Win32,60.0240096,,,,,,,,,,,,,,,,,,,,,,
0,g,1,0.735,6,0,24,1,1,g.PNG,g,5dd2e29b2c5c102e6454227a,2021-09-08_13h56.06.896,forced_choiceRT,2021.1.2,Win32,60.0240096,,,,,,,,,,,,,,,,,,,,,,
0,j,1,0.951,6,1,25,3,1,j.PNG,j,5dd2e29b2c5c102e6454227a,2021-09-08_13h56.06.896,forced_choiceRT,2021.1.2,Win32,60.0240096,,,,,,,,,,,,,,,,,,,,,,
0,f,1,0.651,6,2,26,0,1,f.PNG,f,5dd2e29b2c5c102e6454227a,2021-09-08_13h56.06.896,forced_choiceRT,2021.1.2,Win32,60.0240096,,,,,,,,,,,,,,,,,,,,,,
0,f,1,0.575,6,3,27,0,1,f.PNG,f,5dd2e29b2c5c102e6454227a,2021-09-08_13h56.06.896,forced_choiceRT,2021.1.2,Win32,60.0240096,,,,,,,,,,,,,,,,,,,,,,
0,f,1,0.5,7,0,28,0,1,f.PNG,f,5dd2e29b2c5c102e6454227a,2021-09-08_13h56.06.896,forced_choiceRT,2021.1.2,Win32,60.0240096,,,,,,,,,,,,,,,,,,,,,,
0,h,1,0.928,7,1,29,2,1,h.PNG,h,5dd2e29b2c5c102e6454227a,2021-09-08_13h56.06.896,forced_choiceRT,2021.1.2,Win32,60.0240096,,,,,,,,,,,,,,,,,,,,,,
0,h,1,0.523,7,2,30,2,1,h.PNG,h,5dd2e29b2c5c102e6454227a,2021-09-08_13h56.06.896,forced_choiceRT,2021.1.2,Win32,60.0240096,,,,,,,,,,,,,,,,,,,,,,
0,h,1,0.418,7,3,31,2,1,h.PNG,h,5dd2e29b2c5c102e6454227a,2021-09-08_13h56.06.896,forced_choiceRT,2021.1.2,Win32,60.0240096,,,,,,,,,,,,,,,,,,,,,,
0,h,1,0.419,8,0,32,2,1,h.PNG,h,5dd2e29b2c5c102e6454227a,2021-09-08_13h56.06.896,forced_choiceRT,2021.1.2,Win32,60.0240096,,,,,,,,,,,,,,,,,,,,,,
0,j,1,0.635,8,1,33,3,1,j.PNG,j,5dd2e29b2c5c102e6454227a,2021-09-08_13h56.06.896,forced_choiceRT,2021.1.2,Win32,60.0240096,,,,,,,,,,,,,,,,,,,,,,
0,j,1,0.535,8,2,34,3,1,j.PNG,j,5dd2e29b2c5c102e6454227a,2021-09-08_13h56.06.896,forced_choiceRT,2021.1.2,Win32,60.0240096,,,,,,,,,,,,,,,,,,,,,,
0,h,1,0.585,8,3,35,2,1,h.PNG,h,5dd2e29b2c5c102e6454227a,2021-09-08_13h56.06.896,forced_choiceRT,2021.1.2,Win32,60.0240096,,,,,,,,,,,,,,,,,,,,,,
0,f,1,0.519,9,0,36,0,1,f.PNG,f,5dd2e29b2c5c102e6454227a,2021-09-08_13h56.06.896,forced_choiceRT,2021.1.2,Win32,60.0240096,,,,,,,,,,,,,,,,,,,,,,
0,f,1,0.501,9,1,37,0,1,f.PNG,f,5dd2e29b2c5c102e6454227a,2021-09-08_13h56.06.896,forced_choiceRT,2021.1.2,Win32,60.0240096,,,,,,,,,,,,,,,,,,,,,,
0,g,1,0.54,9,2,38,1,1,g.PNG,g,5dd2e29b2c5c102e6454227a,2021-09-08_13h56.06.896,forced_choiceRT,2021.1.2,Win32,60.0240096,,,,,,,,,,,,,,,,,,,,,,
0,j,1,0.557,9,3,39,3,1,j.PNG,j,5dd2e29b2c5c102e6454227a,2021-09-08_13h56.06.896,forced_choiceRT,2021.1.2,Win32,60.0240096,,,,,,,,,,,,,,,,,,,,,,
0,j,1,0.507,10,0,40,3,1,j.PNG,j,5dd2e29b2c5c102e6454227a,2021-09-08_13h56.06.896,forced_choiceRT,2021.1.2,Win32,60.0240096,,,,,,,,,,,,,,,,,,,,,,
0,g,1,0.526,10,1,41,1,1,g.PNG,g,5dd2e29b2c5c102e6454227a,2021-09-08_13h56.06.896,forced_choiceRT,2021.1.2,Win32,60.0240096,,,,,,,,,,,,,,,,,,,,,,
0,h,1,0.988,10,2,42,2,1,h.PNG,h,5dd2e29b2c5c102e6454227a,2021-09-08_13h56.06.896,forced_choiceRT,2021.1.2,Win32,60.0240096,,,,,,,,,,,,,,,,,,,,,,
0,j,1,0.591,10,3,43,3,1,j.PNG,j,5dd2e29b2c5c102e6454227a,2021-09-08_13h56.06.896,forced_choiceRT,2021.1.2,Win32,60.0240096,,,,,,,,,,,,,,,,,,,,,,
0,g,1,0.534,11,0,44,1,1,g.PNG,g,5dd2e29b2c5c102e6454227a,2021-09-08_13h56.06.896,forced_choiceRT,2021.1.2,Win32,60.0240096,,,,,,,,,,,,,,,,,,,,,,
0,f,1,0.502,11,1,45,0,1,f.PNG,f,5dd2e29b2c5c102e6454227a,2021-09-08_13h56.06.896,forced_choiceRT,2021.1.2,Win32,60.0240096,,,,,,,,,,,,,,,,,,,,,,
0,g,1,0.533,11,2,46,1,1,g.PNG,g,5dd2e29b2c5c102e6454227a,2021-09-08_13h56.06.896,forced_choiceRT,2021.1.2,Win32,60.0240096,,,,,,,,,,,,,,,,,,,,,,
0,h,1,0.525,11,3,47,2,1,h.PNG,h,5dd2e29b2c5c102e6454227a,2021-09-08_13h56.06.896,forced_choiceRT,2021.1.2,Win32,60.0240096,,,,,,,,,,,,,,,,,,,,,,
0,j,1,0.501,12,0,48,3,1,j.PNG,j,5dd2e29b2c5c102e6454227a,2021-09-08_13h56.06.896,forced_choiceRT,2021.1.2,Win32,60.0240096,,,,,,,,,,,,,,,,,,,,,,
0,g,1,0.637,12,1,49,1,1,g.PNG,g,5dd2e29b2c5c102e6454227a,2021-09-08_13h56.06.896,forced_choiceRT,2021.1.2,Win32,60.0240096,,,,,,,,,,,,,,,,,,,,,,
0,f,1,0.489,12,2,50,0,1,f.PNG,f,5dd2e29b2c5c102e6454227a,2021-09-08_13h56.06.896,forced_choiceRT,2021.1.2,Win32,60.0240096,,,,,,,,,,,,,,,,,,,,,,
0,g,1,0.753,12,3,51,1,1,g.PNG,g,5dd2e29b2c5c102e6454227a,2021-09-08_13h56.06.896,forced_choiceRT,2021.1.2,Win32,60.0240096,,,,,,,,,,,,,,,,,,,,,,
0,j,1,0.618,13,0,52,3,1,j.PNG,j,5dd2e29b2c5c102e6454227a,2021-09-08_13h56.06.896,forced_choiceRT,2021.1.2,Win32,60.0240096,,,,,,,,,,,,,,,,,,,,,,
0,j,1,0.56,13,1,53,3,1,j.PNG,j,5dd2e29b2c5c102e6454227a,2021-09-08_13h56.06.896,forced_choiceRT,2021.1.2,Win32,60.0240096,,,,,,,,,,,,,,,,,,,,,,
0,h,1,0.518,13,2,54,2,1,h.PNG,h,5dd2e29b2c5c102e6454227a,2021-09-08_13h56.06.896,forced_choiceRT,2021.1.2,Win32,60.0240096,,,,,,,,,,,,,,,,,,,,,,
0,f,1,0.46,13,3,55,0,1,f.PNG,f,5dd2e29b2c5c102e6454227a,2021-09-08_13h56.06.896,forced_choiceRT,2021.1.2,Win32,60.0240096,,,,,,,,,,,,,,,,,,,,,,
0,f,1,0.474,14,0,56,0,1,f.PNG,f,5dd2e29b2c5c102e6454227a,2021-09-08_13h56.06.896,forced_choiceRT,2021.1.2,Win32,60.0240096,,,,,,,,,,,,,,,,,,,,,,
0,g,1,0.489,14,1,57,1,1,g.PNG,g,5dd2e29b2c5c102e6454227a,2021-09-08_13h56.06.896,forced_choiceRT,2021.1.2,Win32,60.0240096,,,,,,,,,,,,,,,,,,,,,,
0,h,1,0.635,14,2,58,2,1,h.PNG,h,5dd2e29b2c5c102e6454227a,2021-09-08_13h56.06.896,forced_choiceRT,2021.1.2,Win32,60.0240096,,,,,,,,,,,,,,,,,,,,,,
0,h,1,0.47,14,3,59,2,1,h.PNG,h,5dd2e29b2c5c102e6454227a,2021-09-08_13h56.06.896,forced_choiceRT,2021.1.2,Win32,60.0240096,,,,,,,,,,,,,,,,,,,,,,
,,,,,,,,,,,5dd2e29b2c5c102e6454227a,2021-09-08_13h56.06.896,forced_choiceRT,2021.1.2,Win32,60.0240096,j,17.062,0,0,0,0,1,,,,,,,,,,,,,,,
,,,,,,,,,,,5dd2e29b2c5c102e6454227a,2021-09-08_13h56.06.896,forced_choiceRT,2021.1.2,Win32,60.0240096,f,2.669,1,0,1,0,1,,,,,,,,,,,,,,,
,,,,,,,,,,,5dd2e29b2c5c102e6454227a,2021-09-08_13h56.06.896,forced_choiceRT,2021.1.2,Win32,60.0240096,g,1.734,2,0,2,0,1,,,,,,,,,,,,,,,
,,,,,,,,,,,5dd2e29b2c5c102e6454227a,2021-09-08_13h56.06.896,forced_choiceRT,2021.1.2,Win32,60.0240096,h,2.352,3,0,3,0,1,,,,,,,,,,,,,,,
,,,,,,,,,,,5dd2e29b2c5c102e6454227a,2021-09-08_13h56.06.896,forced_choiceRT,2021.1.2,Win32,60.0240096,j,1.501,4,0,4,0,1,,,,,,,,,,,,,,,
,,,,,,,,,,,5dd2e29b2c5c102e6454227a,2021-09-08_13h56.06.896,forced_choiceRT,2021.1.2,Win32,60.0240096,f,1.836,5,0,5,0,1,,,,,,,,,,,,,,,
,,,,,,,,,,,5dd2e29b2c5c102e6454227a,2021-09-08_13h56.06.896,forced_choiceRT,2021.1.2,Win32,60.0240096,g,2.202,6,0,6,0,1,,,,,,,,,,,,,,,
,,,,,,,,,,,5dd2e29b2c5c102e6454227a,2021-09-08_13h56.06.896,forced_choiceRT,2021.1.2,Win32,60.0240096,j,2.141,7,0,7,0,1,,,,,,,,,,,,,,,
,,,,,,,,,,,5dd2e29b2c5c102e6454227a,2021-09-08_13h56.06.896,forced_choiceRT,2021.1.2,Win32,60.0240096,f,1.744,8,0,8,0,1,,,,,,,,,,,,,,,
,,,,,,,,,,,5dd2e29b2c5c102e6454227a,2021-09-08_13h56.06.896,forced_choiceRT,2021.1.2,Win32,60.0240096,j,1.985,9,0,9,0,1,,,,,,,,,,,,,,,
,,,,,,,,,,,5dd2e29b2c5c102e6454227a,2021-09-08_13h56.06.896,forced_choiceRT,2021.1.2,Win32,60.0240096,g,1.741,10,0,10,0,1,,,,,,,,,,,,,,,
,,,,,,,,,,,5dd2e29b2c5c102e6454227a,2021-09-08_13h56.06.896,forced_choiceRT,2021.1.2,Win32,60.0240096,f,2.003,11,0,11,0,1,,,,,,,,,,,,,,,
,,,,,,,,,,,5dd2e29b2c5c102e6454227a,2021-09-08_13h56.06.896,forced_choiceRT,2021.1.2,Win32,60.0240096,j,2.268,12,0,12,0,1,,,,,,,,,,,,,,,
,,,,,,,,,,,5dd2e29b2c5c102e6454227a,2021-09-08_13h56.06.896,forced_choiceRT,2021.1.2,Win32,60.0240096,h,2.007,13,0,13,0,1,,,,,,,,,,,,,,,
,,,,,,,,,,,5dd2e29b2c5c102e6454227a,2021-09-08_13h56.06.896,forced_choiceRT,2021.1.2,Win32,60.0240096,g,2.202,14,0,14,0,1,,,,,,,,,,,,,,,
,,,,,,,,,,,5dd2e29b2c5c102e6454227a,2021-09-08_13h56.06.896,forced_choiceRT,2021.1.2,Win32,60.0240096,f,1.668,15,0,15,0,1,,,,,,,,,,,,,,,
,,,,,,,,,,,5dd2e29b2c5c102e6454227a,2021-09-08_13h56.06.896,forced_choiceRT,2021.1.2,Win32,60.0240096,g,1.837,16,0,16,0,1,,,,,,,,,,,,,,,
,,,,,,,,,,,5dd2e29b2c5c102e6454227a,2021-09-08_13h56.06.896,forced_choiceRT,2021.1.2,Win32,60.0240096,j,2.102,17,0,17,0,1,,,,,,,,,,,,,,,
,,,,,,,,,,,5dd2e29b2c5c102e6454227a,2021-09-08_13h56.06.896,forced_choiceRT,2021.1.2,Win32,60.0240096,f,2.002,18,0,18,0,1,,,,,,,,,,,,,,,
,,,,,,,,,,,5dd2e29b2c5c102e6454227a,2021-09-08_13h56.06.896,forced_choiceRT,2021.1.2,Win32,60.0240096,g,2.088,19,0,19,0,1,,,,,,,,,,,,,,,
1.15,,,,,,,,,g.PNG,g,5dd2e29b2c5c102e6454227a,2021-09-08_13h56.06.896,forced_choiceRT,2021.1.2,Win32,60.0240096,,,,,,,,1,Fast,g,1,1.752,0,0,0,1,1,,,,,
1.47,,,,,,,,,h.PNG,h,5dd2e29b2c5c102e6454227a,2021-09-08_13h56.06.896,forced_choiceRT,2021.1.2,Win32,60.0240096,,,,,,,,1,Slow,j,0,2.32,0,1,1,2,1,,,,,
1.06,,,,,,,,,h.PNG,h,5dd2e29b2c5c102e6454227a,2021-09-08_13h56.06.896,forced_choiceRT,2021.1.2,Win32,60.0240096,,,,,,,,1,Ontime,h,1,1.937,0,2,2,2,1,,,,,
0.86,,,,,,,,,g.PNG,g,5dd2e29b2c5c102e6454227a,2021-09-08_13h56.06.896,forced_choiceRT,2021.1.2,Win32,60.0240096,,,,,,,,1,Ontime,g,1,2.051,0,3,3,1,1,,,,,
1.88,,,,,,,,,f.PNG,f,5dd2e29b2c5c102e6454227a,2021-09-08_13h56.06.896,forced_choiceRT,2021.1.2,Win32,60.0240096,,,,,,,,1,Slow,f,1,2.36,1,0,4,0,1,,,,,
1.68,,,,,,,,,h.PNG,h,5dd2e29b2c5c102e6454227a,2021-09-08_13h56.06.896,forced_choiceRT,2021.1.2,Win32,60.0240096,,,,,,,,1,Slow,h,1,2.134,1,1,5,2,1,,,,,
1.96,,,,,,,,,j.PNG,j,5dd2e29b2c5c102e6454227a,2021-09-08_13h56.06.896,forced_choiceRT,2021.1.2,Win32,60.0240096,,,,,,,,1,Slow,g,0,2.417,1,2,6,3,1,,,,,
1.76,,,,,,,,,f.PNG,f,5dd2e29b2c5c102e6454227a,2021-09-08_13h56.06.896,forced_choiceRT,2021.1.2,Win32,60.0240096,,,,,,,,1,Slow,f,1,2.187,1,3,7,0,1,,,,,
0.27,,,,,,,,,g.PNG,g,5dd2e29b2c5c102e6454227a,2021-09-08_13h56.06.896,forced_choiceRT,2021.1.2,Win32,60.0240096,,,,,,,,1,Fast,g,1,1.251,2,0,8,1,1,,,,,
1.22,,,,,,,,,g.PNG,g,5dd2e29b2c5c102e6454227a,2021-09-08_13h56.06.896,forced_choiceRT,2021.1.2,Win32,60.0240096,,,,,,,,1,Ontime,g,1,1.929,2,1,9,1,1,,,,,
1.54,,,,,,,,,h.PNG,h,5dd2e29b2c5c102e6454227a,2021-09-08_13h56.06.896,forced_choiceRT,2021.1.2,Win32,60.0240096,,,,,,,,1,Slow,h,1,2.178,2,2,10,2,1,,,,,
1.99,,,,,,,,,j.PNG,j,5dd2e29b2c5c102e6454227a,2021-09-08_13h56.06.896,forced_choiceRT,2021.1.2,Win32,60.0240096,,,,,,,,1,Slow,f,0,2.383,2,3,11,3,1,,,,,
0.8,,,,,,,,,g.PNG,g,5dd2e29b2c5c102e6454227a,2021-09-08_13h56.06.896,forced_choiceRT,2021.1.2,Win32,60.0240096,,,,,,,,1,Fast,f,0,1.594,3,0,12,1,1,,,,,
0.77,,,,,,,,,g.PNG,g,5dd2e29b2c5c102e6454227a,2021-09-08_13h56.06.896,forced_choiceRT,2021.1.2,Win32,60.0240096,,,,,,,,1,Fast,g,1,1.855,3,1,13,1,1,,,,,
0.33,,,,,,,,,h.PNG,h,5dd2e29b2c5c102e6454227a,2021-09-08_13h56.06.896,forced_choiceRT,2021.1.2,Win32,60.0240096,,,,,,,,1,Fast,h,1,1.866,3,2,14,2,1,,,,,
0.71,,,,,,,,,h.PNG,h,5dd2e29b2c5c102e6454227a,2021-09-08_13h56.06.896,forced_choiceRT,2021.1.2,Win32,60.0240096,,,,,,,,1,Fast,h,1,1.735,3,3,15,2,1,,,,,
1.34,,,,,,,,,j.PNG,j,5dd2e29b2c5c102e6454227a,2021-09-08_13h56.06.896,forced_choiceRT,2021.1.2,Win32,60.0240096,,,,,,,,1,Slow,j,1,2.258,4,0,16,3,1,,,,,
0.9,,,,,,,,,g.PNG,g,5dd2e29b2c5c102e6454227a,2021-09-08_13h56.06.896,forced_choiceRT,2021.1.2,Win32,60.0240096,,,,,,,,1,Ontime,g,1,2.075,4,1,17,1,1,,,,,
1.24,,,,,,,,,f.PNG,f,5dd2e29b2c5c102e6454227a,2021-09-08_13h56.06.896,forced_choiceRT,2021.1.2,Win32,60.0240096,,,,,,,,1,Fast,f,1,1.888,4,2,18,0,1,,,,,
1.3,,,,,,,,,h.PNG,h,5dd2e29b2c5c102e6454227a,2021-09-08_13h56.06.896,forced_choiceRT,2021.1.2,Win32,60.0240096,,,,,,,,1,Ontime,h,1,2.089,4,3,19,2,1,,,,,
1.73,,,,,,,,,j.PNG,j,5dd2e29b2c5c102e6454227a,2021-09-08_13h56.06.896,forced_choiceRT,2021.1.2,Win32,60.0240096,,,,,,,,1,Slow,j,1,2.235,5,0,20,3,1,,,,,
1.59,,,,,,,,,f.PNG,f,5dd2e29b2c5c102e6454227a,2021-09-08_13h56.06.896,forced_choiceRT,2021.1.2,Win32,60.0240096,,,,,,,,1,Ontime,f,1,2.054,5,1,21,0,1,,,,,
0.51,,,,,,,,,f.PNG,f,5dd2e29b2c5c102e6454227a,2021-09-08_13h56.06.896,forced_choiceRT,2021.1.2,Win32,60.0240096,,,,,,,,1,Ontime,f,1,2.008,5,2,22,0,1,,,,,
0.95,,,,,,,,,j.PNG,j,5dd2e29b2c5c102e6454227a,2021-09-08_13h56.06.896,forced_choiceRT,2021.1.2,Win32,60.0240096,,,,,,,,1,Fast,j,1,1.809,5,3,23,3,1,,,,,
1.7,,,,,,,,,j.PNG,j,5dd2e29b2c5c102e6454227a,2021-09-08_13h56.06.896,forced_choiceRT,2021.1.2,Win32,60.0240096,,,,,,,,1,Slow,j,1,2.261,6,0,24,3,1,,,,,
0.07,,,,,,,,,f.PNG,f,5dd2e29b2c5c102e6454227a,2021-09-08_13h56.06.896,forced_choiceRT,2021.1.2,Win32,60.0240096,,,,,,,,1,Fast,f,1,0.757,6,1,25,0,1,,,,,
0.17,,,,,,,,,f.PNG,f,5dd2e29b2c5c102e6454227a,2021-09-08_13h56.06.896,forced_choiceRT,2021.1.2,Win32,60.0240096,,,,,,,,1,Fast,f,1,1.767,6,2,26,0,1,,,,,
1.5,,,,,,,,,h.PNG,h,5dd2e29b2c5c102e6454227a,2021-09-08_13h56.06.896,forced_choiceRT,2021.1.2,Win32,60.0240096,,,,,,,,1,Slow,j,0,2.289,6,3,27,2,1,,,,,
0.49,,,,,,,,,f.PNG,f,5dd2e29b2c5c102e6454227a,2021-09-08_13h56.06.896,forced_choiceRT,2021.1.2,Win32,60.0240096,,,,,,,,1,Ontime,f,1,1.968,7,0,28,0,1,,,,,
0.25,,,,,,,,,j.PNG,j,5dd2e29b2c5c102e6454227a,2021-09-08_13h56.06.896,forced_choiceRT,2021.1.2,Win32,60.0240096,,,,,,,,1,Ontime,j,1,1.925,7,1,29,3,1,,,,,
0.44,,,,,,,,,h.PNG,h,5dd2e29b2c5c102e6454227a,2021-09-08_13h56.06.896,forced_choiceRT,2021.1.2,Win32,60.0240096,,,,,,,,1,Ontime,h,1,1.935,7,2,30,2,1,,,,,
0.84,,,,,,,,,j.PNG,j,5dd2e29b2c5c102e6454227a,2021-09-08_13h56.06.896,forced_choiceRT,2021.1.2,Win32,60.0240096,,,,,,,,1,Ontime,j,1,2.019,7,3,31,3,1,,,,,
1.25,,,,,,,,,f.PNG,f,5dd2e29b2c5c102e6454227a,2021-09-08_13h56.06.896,forced_choiceRT,2021.1.2,Win32,60.0240096,,,,,,,,1,Ontime,f,1,2.051,8,0,32,0,1,,,,,
1.66,,,,,,,,,j.PNG,j,5dd2e29b2c5c102e6454227a,2021-09-08_13h56.06.896,forced_choiceRT,2021.1.2,Win32,60.0240096,,,,,,,,1,Slow,j,1,2.304,8,1,33,3,1,,,,,
0.21,,,,,,,,,h.PNG,h,5dd2e29b2c5c102e6454227a,2021-09-08_13h56.06.896,forced_choiceRT,2021.1.2,Win32,60.0240096,,,,,,,,1,Ontime,h,1,2.052,8,2,34,2,1,,,,,
0.34,,,,,,,,,f.PNG,f,5dd2e29b2c5c102e6454227a,2021-09-08_13h56.06.896,forced_choiceRT,2021.1.2,Win32,60.0240096,,,,,,,,1,Slow,f,1,2.104,8,3,35,0,1,,,,,
1.15,,,,,,,,,g.PNG,g,5dd2e29b2c5c102e6454227a,2021-09-08_13h56.06.896,forced_choiceRT,2021.1.2,Win32,60.0240096,,,,,,,,1,Fast,h,0,1.855,9,0,36,1,1,,,,,
1.08,,,,,,,,,g.PNG,g,5dd2e29b2c5c102e6454227a,2021-09-08_13h56.06.896,forced_choiceRT,2021.1.2,Win32,60.0240096,,,,,,,,1,Ontime,g,1,1.918,9,1,37,1,1,,,,,
1.31,,,,,,,,,j.PNG,j,5dd2e29b2c5c102e6454227a,2021-09-08_13h56.06.896,forced_choiceRT,2021.1.2,Win32,60.0240096,,,,,,,,1,Slow,j,1,2.118,9,2,38,3,1,,,,,
1.71,,,,,,,,,g.PNG,g,5dd2e29b2c5c102e6454227a,2021-09-08_13h56.06.896,forced_choiceRT,2021.1.2,Win32,60.0240096,,,,,,,,1,Slow,g,1,2.158,9,3,39,1,1,,,,,
,,,,,,,,,,,5dd2e29b2c5c102e6454227a,2021-09-08_13h56.06.896,forced_choiceRT,2021.1.2,Win32,60.0240096,,,,,,,,,,,,,,,,,,0,0,0,0,1
1.01,,,,,,,,,g.PNG,g,5dd2e29b2c5c102e6454227a,2021-09-08_13h56.06.896,forced_choiceRT,2021.1.2,Win32,60.0240096,,,,,,,,2,Fast,g,1,1.765,0,0,0,1,1,,,,,
1.57,,,,,,,,,j.PNG,j,5dd2e29b2c5c102e6454227a,2021-09-08_13h56.06.896,forced_choiceRT,2021.1.2,Win32,60.0240096,,,,,,,,2,Slow,j,1,2.101,0,1,1,3,1,,,,,
1.11,,,,,,,,,h.PNG,h,5dd2e29b2c5c102e6454227a,2021-09-08_13h56.06.896,forced_choiceRT,2021.1.2,Win32,60.0240096,,,,,,,,2,Ontime,h,1,1.904,0,2,2,2,1,,,,,
1.1,,,,,,,,,g.PNG,g,5dd2e29b2c5c102e6454227a,2021-09-08_13h56.06.896,forced_choiceRT,2021.1.2,Win32,60.0240096,,,,,,,,2,Fast,g,1,1.851,0,3,3,1,1,,,,,
0.98,,,,,,,,,j.PNG,j,5dd2e29b2c5c102e6454227a,2021-09-08_13h56.06.896,forced_choiceRT,2021.1.2,Win32,60.0240096,,,,,,,,2,Ontime,j,1,1.935,1,0,4,3,1,,,,,
1.42,,,,,,,,,h.PNG,h,5dd2e29b2c5c102e6454227a,2021-09-08_13h56.06.896,forced_choiceRT,2021.1.2,Win32,60.0240096,,,,,,,,2,Ontime,h,1,2.018,1,1,5,2,1,,,,,
1.3,,,,,,,,,f.PNG,f,5dd2e29b2c5c102e6454227a,2021-09-08_13h56.06.896,forced_choiceRT,2021.1.2,Win32,60.0240096,,,,,,,,2,Slow,f,1,2.221,1,2,6,0,1,,,,,
0.12,,,,,,,,,g.PNG,g,5dd2e29b2c5c102e6454227a,2021-09-08_13h56.06.896,forced_choiceRT,2021.1.2,Win32,60.0240096,,,,,,,,2,Ontime,g,1,2.052,1,3,7,1,1,,,,,
0.95,,,,,,,,,j.PNG,j,5dd2e29b2c5c102e6454227a,2021-09-08_13h56.06.896,forced_choiceRT,2021.1.2,Win32,60.0240096,,,,,,,,2,Fast,j,1,1.844,2,0,8,3,1,,,,,
1.56,,,,,,,,,g.PNG,g,5dd2e29b2c5c102e6454227a,2021-09-08_13h56.06.896,forced_choiceRT,2021.1.2,Win32,60.0240096,,,,,,,,2,Slow,g,1,2.224,2,1,9,1,1,,,,,
0.49,,,,,,,,,j.PNG,j,5dd2e29b2c5c102e6454227a,2021-09-08_13h56.06.896,forced_choiceRT,2021.1.2,Win32,60.0240096,,,,,,,,2,Ontime,j,1,2.052,2,2,10,3,1,,,,,
1.45,,,,,,,,,g.PNG,g,5dd2e29b2c5c102e6454227a,2021-09-08_13h56.06.896,forced_choiceRT,2021.1.2,Win32,60.0240096,,,,,,,,2,Slow,g,1,2.135,2,3,11,1,1,,,,,
0.02,,,,,,,,,j.PNG,j,5dd2e29b2c5c102e6454227a,2021-09-08_13h56.06.896,forced_choiceRT,2021.1.2,Win32,60.0240096,,,,,,,,2,Slow,j,1,2.105,3,0,12,3,1,,,,,
1.99,,,,,,,,,f.PNG,f,5dd2e29b2c5c102e6454227a,2021-09-08_13h56.06.896,forced_choiceRT,2021.1.2,Win32,60.0240096,,,,,,,,2,Slow,g,0,2.309,3,1,13,0,1,,,,,
0.84,,,,,,,,,h.PNG,h,5dd2e29b2c5c102e6454227a,2021-09-08_13h56.06.896,forced_choiceRT,2021.1.2,Win32,60.0240096,,,,,,,,2,Fast,h,1,1.825,3,2,14,2,1,,,,,
1.35,,,,,,,,,f.PNG,f,5dd2e29b2c5c102e6454227a,2021-09-08_13h56.06.896,forced_choiceRT,2021.1.2,Win32,60.0240096,,,,,,,,2,Ontime,f,1,1.904,3,3,15,0,1,,,,,
1.38,,,,,,,,,f.PNG,f,5dd2e29b2c5c102e6454227a,2021-09-08_13h56.06.896,forced_choiceRT,2021.1.2,Win32,60.0240096,,,,,,,,2,Ontime,f,1,2.034,4,0,16,0,1,,,,,
1.14,,,,,,,,,h.PNG,h,5dd2e29b2c5c102e6454227a,2021-09-08_13h56.06.896,forced_choiceRT,2021.1.2,Win32,60.0240096,,,,,,,,2,Fast,h,1,1.869,4,1,17,2,1,,,,,
1.35,,,,,,,,,h.PNG,h,5dd2e29b2c5c102e6454227a,2021-09-08_13h56.06.896,forced_choiceRT,2021.1.2,Win32,60.0240096,,,,,,,,2,Ontime,h,1,2.005,4,2,18,2,1,,,,,
0.95,,,,,,,,,h.PNG,h,5dd2e29b2c5c102e6454227a,2021-09-08_13h56.06.896,forced_choiceRT,2021.1.2,Win32,60.0240096,,,,,,,,2,Ontime,h,1,1.984,4,3,19,2,1,,,,,
0.42,,,,,,,,,h.PNG,h,5dd2e29b2c5c102e6454227a,2021-09-08_13h56.06.896,forced_choiceRT,2021.1.2,Win32,60.0240096,,,,,,,,2,Ontime,h,1,1.968,5,0,20,2,1,,,,,
0.66,,,,,,,,,h.PNG,h,5dd2e29b2c5c102e6454227a,2021-09-08_13h56.06.896,forced_choiceRT,2021.1.2,Win32,60.0240096,,,,,,,,2,Fast,h,1,1.853,5,1,21,2,1,,,,,
1.49,,,,,,,,,j.PNG,j,5dd2e29b2c5c102e6454227a,2021-09-08_13h56.06.896,forced_choiceRT,2021.1.2,Win32,60.0240096,,,,,,,,2,Ontime,j,1,2.06,5,2,22,3,1,,,,,
1.51,,,,,,,,,f.PNG,f,5dd2e29b2c5c102e6454227a,2021-09-08_13h56.06.896,forced_choiceRT,2021.1.2,Win32,60.0240096,,,,,,,,2,Ontime,f,1,1.986,5,3,23,0,1,,,,,
0.01,,,,,,,,,f.PNG,f,5dd2e29b2c5c102e6454227a,2021-09-08_13h56.06.896,forced_choiceRT,2021.1.2,Win32,60.0240096,,,,,,,,2,Ontime,f,1,2.028,6,0,24,0,1,,,,,
0.06,,,,,,,,,j.PNG,j,5dd2e29b2c5c102e6454227a,2021-09-08_13h56.06.896,forced_choiceRT,2021.1.2,Win32,60.0240096,,,,,,,,2,Fast,j,1,1.76,6,1,25,3,1,,,,,
1.86,,,,,,,,,j.PNG,j,5dd2e29b2c5c102e6454227a,2021-09-08_13h56.06.896,forced_choiceRT,2021.1.2,Win32,60.0240096,,,,,,,,2,Slow,j,1,2.627,6,2,26,3,1,,,,,
1.55,,,,,,,,,g.PNG,g,5dd2e29b2c5c102e6454227a,2021-09-08_13h56.06.896,forced_choiceRT,2021.1.2,Win32,60.0240096,,,,,,,,2,Slow,g,1,2.484,6,3,27,1,1,,,,,
0.76,,,,,,,,,j.PNG,j,5dd2e29b2c5c102e6454227a,2021-09-08_13h56.06.896,forced_choiceRT,2021.1.2,Win32,60.0240096,,,,,,,,2,Ontime,j,1,2.005,7,0,28,3,1,,,,,
0,,,,,,,,,f.PNG,f,5dd2e29b2c5c102e6454227a,2021-09-08_13h56.06.896,forced_choiceRT,2021.1.2,Win32,60.0240096,,,,,,,,2,Ontime,f,1,2.07,7,1,29,0,1,,,,,
0.13,,,,,,,,,h.PNG,h,5dd2e29b2c5c102e6454227a,2021-09-08_13h56.06.896,forced_choiceRT,2021.1.2,Win32,60.0240096,,,,,,,,2,Fast,h,1,1.893,7,2,30,2,1,,,,,
0.59,,,,,,,,,f.PNG,f,5dd2e29b2c5c102e6454227a,2021-09-08_13h56.06.896,forced_choiceRT,2021.1.2,Win32,60.0240096,,,,,,,,2,Ontime,f,1,1.977,7,3,31,0,1,,,,,
1.46,,,,,,,,,g.PNG,g,5dd2e29b2c5c102e6454227a,2021-09-08_13h56.06.896,forced_choiceRT,2021.1.2,Win32,60.0240096,,,,,,,,2,Slow,g,1,2.102,8,0,32,1,1,,,,,
0.48,,,,,,,,,g.PNG,g,5dd2e29b2c5c102e6454227a,2021-09-08_13h56.06.896,forced_choiceRT,2021.1.2,Win32,60.0240096,,,,,,,,2,Ontime,g,1,2.018,8,1,33,1,1,,,,,
0.25,,,,,,,,,j.PNG,j,5dd2e29b2c5c102e6454227a,2021-09-08_13h56.06.896,forced_choiceRT,2021.1.2,Win32,60.0240096,,,,,,,,2,Ontime,j,1,1.958,8,2,34,3,1,,,,,
0.58,,,,,,,,,g.PNG,g,5dd2e29b2c5c102e6454227a,2021-09-08_13h56.06.896,forced_choiceRT,2021.1.2,Win32,60.0240096,,,,,,,,2,Ontime,g,1,2.025,8,3,35,1,1,,,,,
1.63,,,,,,,,,f.PNG,f,5dd2e29b2c5c102e6454227a,2021-09-08_13h56.06.896,forced_choiceRT,2021.1.2,Win32,60.0240096,,,,,,,,2,Ontime,g,0,2.026,9,0,36,0,1,,,,,
0.24,,,,,,,,,f.PNG,f,5dd2e29b2c5c102e6454227a,2021-09-08_13h56.06.896,forced_choiceRT,2021.1.2,Win32,60.0240096,,,,,,,,2,Ontime,f,1,2.018,9,1,37,0,1,,,,,
1.23,,,,,,,,,g.PNG,g,5dd2e29b2c5c102e6454227a,2021-09-08_13h56.06.896,forced_choiceRT,2021.1.2,Win32,60.0240096,,,,,,,,2,Ontime,g,1,1.975,9,2,38,1,1,,,,,
0.85,,,,,,,,,h.PNG,h,5dd2e29b2c5c102e6454227a,2021-09-08_13h56.06.896,forced_choiceRT,2021.1.2,Win32,60.0240096,,,,,,,,2,Fast,h,1,1.76,9,3,39,2,1,,,,,
,,,,,,,,,,,5dd2e29b2c5c102e6454227a,2021-09-08_13h56.06.896,forced_choiceRT,2021.1.2,Win32,60.0240096,,,,,,,,,,,,,,,,,,1,0,1,0,1
1.79,,,,,,,,,j.PNG,j,5dd2e29b2c5c102e6454227a,2021-09-08_13h56.06.896,forced_choiceRT,2021.1.2,Win32,60.0240096,,,,,,,,3,Slow,f,0,2.159,0,0,0,3,1,,,,,
1.77,,,,,,,,,h.PNG,h,5dd2e29b2c5c102e6454227a,2021-09-08_13h56.06.896,forced_choiceRT,2021.1.2,Win32,60.0240096,,,,,,,,3,Slow,h,1,2.24,0,1,1,2,1,,,,,
1.19,,,,,,,,,f.PNG,f,5dd2e29b2c5c102e6454227a,2021-09-08_13h56.06.896,forced_choiceRT,2021.1.2,Win32,60.0240096,,,,,,,,3,Fast,f,1,1.77,0,2,2,0,1,,,,,
1.96,,,,,,,,,f.PNG,f,5dd2e29b2c5c102e6454227a,2021-09-08_13h56.06.896,forced_choiceRT,2021.1.2,Win32,60.0240096,,,,,,,,3,Slow,f,1,2.367,0,3,3,0,1,,,,,
0.32,,,,,,,,,g.PNG,g,5dd2e29b2c5c102e6454227a,2021-09-08_13h56.06.896,forced_choiceRT,2021.1.2,Win32,60.0240096,,,,,,,,3,Ontime,g,1,1.971,1,0,4,1,1,,,,,
0.52,,,,,,,,,j.PNG,j,5dd2e29b2c5c102e6454227a,2021-09-08_13h56.06.896,forced_choiceRT,2021.1.2,Win32,60.0240096,,,,,,,,3,Ontime,j,1,2.024,1,1,5,3,1,,,,,
1.21,,,,,,,,,f.PNG,f,5dd2e29b2c5c102e6454227a,2021-09-08_13h56.06.896,forced_choiceRT,2021.1.2,Win32,60.0240096,,,,,,,,3,Ontime,f,1,2.005,1,2,6,0,1,,,,,
1.53,,,,,,,,,h.PNG,h,5dd2e29b2c5c102e6454227a,2021-09-08_13h56.06.896,forced_choiceRT,2021.1.2,Win32,60.0240096,,,,,,,,3,Slow,h,1,2.171,1,3,7,2,1,,,,,
0.91,,,,,,,,,h.PNG,h,5dd2e29b2c5c102e6454227a,2021-09-08_13h56.06.896,forced_choiceRT,2021.1.2,Win32,60.0240096,,,,,,,,3,Ontime,h,1,2.06,2,0,8,2,1,,,,,
1.05,,,,,,,,,j.PNG,j,5dd2e29b2c5c102e6454227a,2021-09-08_13h56.06.896,forced_choiceRT,2021.1.2,Win32,60.0240096,,,,,,,,3,Fast,j,1,1.67,2,1,9,3,1,,,,,
0.36,,,,,,,,,f.PNG,f,5dd2e29b2c5c102e6454227a,2021-09-08_13h56.06.896,forced_choiceRT,2021.1.2,Win32,60.0240096,,,,,,,,3,Fast,f,1,1.801,2,2,10,0,1,,,,,
1.37,,,,,,,,,h.PNG,h,5dd2e29b2c5c102e6454227a,2021-09-08_13h56.06.896,forced_choiceRT,2021.1.2,Win32,60.0240096,,,,,,,,3,Ontime,h,1,1.989,2,3,11,2,1,,,,,
1.87,,,,,,,,,h.PNG,h,5dd2e29b2c5c102e6454227a,2021-09-08_13h56.06.896,forced_choiceRT,2021.1.2,Win32,60.0240096,,,,,,,,3,Slow,h,1,2.335,3,0,12,2,1,,,,,
1.63,,,,,,,,,f.PNG,f,5dd2e29b2c5c102e6454227a,2021-09-08_13h56.06.896,forced_choiceRT,2021.1.2,Win32,60.0240096,,,,,,,,3,Slow,f,1,2.124,3,1,13,0,1,,,,,
0.29,,,,,,,,,g.PNG,g,5dd2e29b2c5c102e6454227a,2021-09-08_13h56.06.896,forced_choiceRT,2021.1.2,Win32,60.0240096,,,,,,,,3,Ontime,g,1,2.089,3,2,14,1,1,,,,,
0.5,,,,,,,,,g.PNG,g,5dd2e29b2c5c102e6454227a,2021-09-08_13h56.06.896,forced_choiceRT,2021.1.2,Win32,60.0240096,,,,,,,,3,Fast,g,1,1.809,3,3,15,1,1,,,,,
1.71,,,,,,,,,g.PNG,g,5dd2e29b2c5c102e6454227a,2021-09-08_13h56.06.896,forced_choiceRT,2021.1.2,Win32,60.0240096,,,,,,,,3,Slow,g,1,2.185,4,0,16,1,1,,,,,
1.66,,,,,,,,,j.PNG,j,5dd2e29b2c5c102e6454227a,2021-09-08_13h56.06.896,forced_choiceRT,2021.1.2,Win32,60.0240096,,,,,,,,3,Slow,j,1,2.136,4,1,17,3,1,,,,,
1.31,,,,,,,,,j.PNG,j,5dd2e29b2c5c102e6454227a,2021-09-08_13h56.06.896,forced_choiceRT,2021.1.2,Win32,60.0240096,,,,,,,,3,Fast,j,1,1.819,4,2,18,3,1,,,,,
1.36,,,,,,,,,f.PNG,f,5dd2e29b2c5c102e6454227a,2021-09-08_13h56.06.896,forced_choiceRT,2021.1.2,Win32,60.0240096,,,,,,,,3,Ontime,f,1,1.934,4,3,19,0,1,,,,,
0.28,,,,,,,,,f.PNG,f,5dd2e29b2c5c102e6454227a,2021-09-08_13h56.06.896,forced_choiceRT,2021.1.2,Win32,60.0240096,,,,,,,,3,Fast,f,1,1.872,5,0,20,0,1,,,,,
0.81,,,,,,,,,h.PNG,h,5dd2e29b2c5c102e6454227a,2021-09-08_13h56.06.896,forced_choiceRT,2021.1.2,Win32,60.0240096,,,,,,,,3,Fast,h,1,1.802,5,1,21,2,1,,,,,
0.38,,,,,,,,,j.PNG,j,5dd2e29b2c5c102e6454227a,2021-09-08_13h56.06.896,forced_choiceRT,2021.1.2,Win32,60.0240096,,,,,,,,3,Ontime,j,1,1.988,5,2,22,3,1,,,,,
1.15,,,,,,,,,f.PNG,f,5dd2e29b2c5c102e6454227a,2021-09-08_13h56.06.896,forced_choiceRT,2021.1.2,Win32,60.0240096,,,,,,,,3,Slow,f,1,2.124,5,3,23,0,1,,,,,
1.21,,,,,,,,,g.PNG,g,5dd2e29b2c5c102e6454227a,2021-09-08_13h56.06.896,forced_choiceRT,2021.1.2,Win32,60.0240096,,,,,,,,3,Fast,h,0,1.874,6,0,24,1,1,,,,,
1.34,,,,,,,,,h.PNG,h,5dd2e29b2c5c102e6454227a,2021-09-08_13h56.06.896,forced_choiceRT,2021.1.2,Win32,60.0240096,,,,,,,,3,Ontime,h,1,1.977,6,1,25,2,1,,,,,
0.65,,,,,,,,,h.PNG,h,5dd2e29b2c5c102e6454227a,2021-09-08_13h56.06.896,forced_choiceRT,2021.1.2,Win32,60.0240096,,,,,,,,3,Ontime,h,1,2.087,6,2,26,2,1,,,,,
1.22,,,,,,,,,j.PNG,j,5dd2e29b2c5c102e6454227a,2021-09-08_13h56.06.896,forced_choiceRT,2021.1.2,Win32,60.0240096,,,,,,,,3,Fast,j,1,1.868,6,3,27,3,1,,,,,
1.95,,,,,,,,,g.PNG,g,5dd2e29b2c5c102e6454227a,2021-09-08_13h56.06.896,forced_choiceRT,2021.1.2,Win32,60.0240096,,,,,,,,3,Slow,g,1,2.404,7,0,28,1,1,,,,,
0.81,,,,,,,,,j.PNG,j,5dd2e29b2c5c102e6454227a,2021-09-08_13h56.06.896,forced_choiceRT,2021.1.2,Win32,60.0240096,,,,,,,,3,Slow,j,1,2.268,7,1,29,3,1,,,,,
1.42,,,,,,,,,f.PNG,f,5dd2e29b2c5c102e6454227a,2021-09-08_13h56.06.896,forced_choiceRT,2021.1.2,Win32,60.0240096,,,,,,,,3,Fast,f,1,1.89,7,2,30,0,1,,,,,
0.77,,,,,,,,,g.PNG,g,5dd2e29b2c5c102e6454227a,2021-09-08_13h56.06.896,forced_choiceRT,2021.1.2,Win32,60.0240096,,,,,,,,3,Ontime,g,1,1.952,7,3,31,1,1,,,,,
1.94,,,,,,,,,g.PNG,g,5dd2e29b2c5c102e6454227a,2021-09-08_13h56.06.896,forced_choiceRT,2021.1.2,Win32,60.0240096,,,,,,,,3,Slow,f,0,2.356,8,0,32,1,1,,,,,
1.62,,,,,,,,,g.PNG,g,5dd2e29b2c5c102e6454227a,2021-09-08_13h56.06.896,forced_choiceRT,2021.1.2,Win32,60.0240096,,,,,,,,3,Ontime,g,1,2.022,8,1,33,1,1,,,,,
0.64,,,,,,,,,j.PNG,j,5dd2e29b2c5c102e6454227a,2021-09-08_13h56.06.896,forced_choiceRT,2021.1.2,Win32,60.0240096,,,,,,,,3,Slow,j,1,2.167,8,2,34,3,1,,,,,
1.61,,,,,,,,,g.PNG,g,5dd2e29b2c5c102e6454227a,2021-09-08_13h56.06.896,forced_choiceRT,2021.1.2,Win32,60.0240096,,,,,,,,3,Slow,h,0,2.101,8,3,35,1,1,,,,,
0.26,,,,,,,,,j.PNG,j,5dd2e29b2c5c102e6454227a,2021-09-08_13h56.06.896,forced_choiceRT,2021.1.2,Win32,60.0240096,,,,,,,,3,Fast,j,1,1.868,9,0,36,3,1,,,,,
0.74,,,,,,,,,f.PNG,f,5dd2e29b2c5c102e6454227a,2021-09-08_13h56.06.896,forced_choiceRT,2021.1.2,Win32,60.0240096,,,,,,,,3,Ontime,f,1,1.951,9,1,37,0,1,,,,,
0.55,,,,,,,,,h.PNG,h,5dd2e29b2c5c102e6454227a,2021-09-08_13h56.06.896,forced_choiceRT,2021.1.2,Win32,60.0240096,,,,,,,,3,Fast,h,1,1.869,9,2,38,2,1,,,,,
1.2,,,,,,,,,h.PNG,h,5dd2e29b2c5c102e6454227a,2021-09-08_13h56.06.896,forced_choiceRT,2021.1.2,Win32,60.0240096,,,,,,,,3,Ontime,h,1,2.044,9,3,39,2,1,,,,,
,,,,,,,,,,,5dd2e29b2c5c102e6454227a,2021-09-08_13h56.06.896,forced_choiceRT,2021.1.2,Win32,60.0240096,,,,,,,,,,,,,,,,,,2,0,2,0,1
1.31,,,,,,,,,f.PNG,f,5dd2e29b2c5c102e6454227a,2021-09-08_13h56.06.896,forced_choiceRT,2021.1.2,Win32,60.0240096,,,,,,,,4,Ontime,f,1,1.906,0,0,0,0,1,,,,,
1.68,,,,,,,,,h.PNG,h,5dd2e29b2c5c102e6454227a,2021-09-08_13h56.06.896,forced_choiceRT,2021.1.2,Win32,60.0240096,,,,,,,,4,Ontime,j,0,2.022,0,1,1,2,1,,,,,
0.85,,,,,,,,,g.PNG,g,5dd2e29b2c5c102e6454227a,2021-09-08_13h56.06.896,forced_choiceRT,2021.1.2,Win32,60.0240096,,,,,,,,4,Fast,g,1,1.443,0,2,2,1,1,,,,,
1.67,,,,,,,,,f.PNG,f,5dd2e29b2c5c102e6454227a,2021-09-08_13h56.06.896,forced_choiceRT,2021.1.2,Win32,60.0240096,,,,,,,,4,Slow,f,1,2.109,0,3,3,0,1,,,,,
0.97,,,,,,,,,h.PNG,h,5dd2e29b2c5c102e6454227a,2021-09-08_13h56.06.896,forced_choiceRT,2021.1.2,Win32,60.0240096,,,,,,,,4,Fast,h,1,1.702,1,0,4,2,1,,,,,
0.79,,,,,,,,,g.PNG,g,5dd2e29b2c5c102e6454227a,2021-09-08_13h56.06.896,forced_choiceRT,2021.1.2,Win32,60.0240096,,,,,,,,4,Ontime,g,1,1.943,1,1,5,1,1,,,,,
1.89,,,,,,,,,f.PNG,f,5dd2e29b2c5c102e6454227a,2021-09-08_13h56.06.896,forced_choiceRT,2021.1.2,Win32,60.0240096,,,,,,,,4,Slow,f,1,2.291,1,2,6,0,1,,,,,
0.74,,,,,,,,,j.PNG,j,5dd2e29b2c5c102e6454227a,2021-09-08_13h56.06.896,forced_choiceRT,2021.1.2,Win32,60.0240096,,,,,,,,4,Ontime,j,1,1.951,1,3,7,3,1,,,,,
0.66,,,,,,,,,j.PNG,j,5dd2e29b2c5c102e6454227a,2021-09-08_13h56.06.896,forced_choiceRT,2021.1.2,Win32,60.0240096,,,,,,,,4,Ontime,j,1,1.978,2,0,8,3,1,,,,,
0.38,,,,,,,,,f.PNG,f,5dd2e29b2c5c102e6454227a,2021-09-08_13h56.06.896,forced_choiceRT,2021.1.2,Win32,60.0240096,,,,,,,,4,Ontime,f,1,2.091,2,1,9,0,1,,,,,
0.96,,,,,,,,,f.PNG,f,5dd2e29b2c5c102e6454227a,2021-09-08_13h56.06.896,forced_choiceRT,2021.1.2,Win32,60.0240096,,,,,,,,4,Ontime,f,1,2.039,2,2,10,0,1,,,,,
1.05,,,,,,,,,j.PNG,j,5dd2e29b2c5c102e6454227a,2021-09-08_13h56.06.896,forced_choiceRT,2021.1.2,Win32,60.0240096,,,,,,,,4,Slow,j,1,2.15,2,3,11,3,1,,,,,
0.91,,,,,,,,,h.PNG,h,5dd2e29b2c5c102e6454227a,2021-09-08_13h56.06.896,forced_choiceRT,2021.1.2,Win32,60.0240096,,,,,,,,4,Slow,h,1,2.178,3,0,12,2,1,,,,,
1.92,,,,,,,,,f.PNG,f,5dd2e29b2c5c102e6454227a,2021-09-08_13h56.06.896,forced_choiceRT,2021.1.2,Win32,60.0240096,,,,,,,,4,Slow,f,1,2.302,3,1,13,0,1,,,,,
0.27,,,,,,,,,g.PNG,g,5dd2e29b2c5c102e6454227a,2021-09-08_13h56.06.896,forced_choiceRT,2021.1.2,Win32,60.0240096,,,,,,,,4,Ontime,g,1,1.939,3,2,14,1,1,,,,,
1.98,,,,,,,,,j.PNG,j,5dd2e29b2c5c102e6454227a,2021-09-08_13h56.06.896,forced_choiceRT,2021.1.2,Win32,60.0240096,,,,,,,,4,Slow,f,0,2.195,3,3,15,3,1,,,,,
0.94,,,,,,,,,g.PNG,g,5dd2e29b2c5c102e6454227a,2021-09-08_13h56.06.896,forced_choiceRT,2021.1.2,Win32,60.0240096,,,,,,,,4,Fast,g,1,1.827,4,0,16,1,1,,,,,
1.94,,,,,,,,,h.PNG,h,5dd2e29b2c5c102e6454227a,2021-09-08_13h56.06.896,forced_choiceRT,2021.1.2,Win32,60.0240096,,,,,,,,4,Ontime,f,0,1.99,4,1,17,2,1,,,,,
1.77,,,,,,,,,g.PNG,g,5dd2e29b2c5c102e6454227a,2021-09-08_13h56.06.896,forced_choiceRT,2021.1.2,Win32,60.0240096,,,,,,,,4,Ontime,j,0,2.001,4,2,18,1,1,,,,,
1.29,,,,,,,,,g.PNG,g,5dd2e29b2c5c102e6454227a,2021-09-08_13h56.06.896,forced_choiceRT,2021.1.2,Win32,60.0240096,,,,,,,,4,Fast,g,1,1.701,4,3,19,1,1,,,,,
1.79,,,,,,,,,g.PNG,g,5dd2e29b2c5c102e6454227a,2021-09-08_13h56.06.896,forced_choiceRT,2021.1.2,Win32,60.0240096,,,,,,,,4,Ontime,j,0,2.041,5,0,20,1,1,,,,,
0.62,,,,,,,,,j.PNG,j,5dd2e29b2c5c102e6454227a,2021-09-08_13h56.06.896,forced_choiceRT,2021.1.2,Win32,60.0240096,,,,,,,,4,Slow,j,1,2.178,5,1,21,3,1,,,,,
1.69,,,,,,,,,j.PNG,j,5dd2e29b2c5c102e6454227a,2021-09-08_13h56.06.896,forced_choiceRT,2021.1.2,Win32,60.0240096,,,,,,,,4,Ontime,g,0,1.91,5,2,22,3,1,,,,,
1.74,,,,,,,,,j.PNG,j,5dd2e29b2c5c102e6454227a,2021-09-08_13h56.06.896,forced_choiceRT,2021.1.2,Win32,60.0240096,,,,,,,,4,Fast,j,1,1.868,5,3,23,3,1,,,,,
1.15,,,,,,,,,g.PNG,g,5dd2e29b2c5c102e6454227a,2021-09-08_13h56.06.896,forced_choiceRT,2021.1.2,Win32,60.0240096,,,,,,,,4,Fast,g,1,1.818,6,0,24,1,1,,,,,
1.81,,,,,,,,,g.PNG,g,5dd2e29b2c5c102e6454227a,2021-09-08_13h56.06.896,forced_choiceRT,2021.1.2,Win32,60.0240096,,,,,,,,4,Slow,f,0,2.235,6,1,25,1,1,,,,,
1.34,,,,,,,,,h.PNG,h,5dd2e29b2c5c102e6454227a,2021-09-08_13h56.06.896,forced_choiceRT,2021.1.2,Win32,60.0240096,,,,,,,,4,Slow,h,1,2.152,6,2,26,2,1,,,,,
0.35,,,,,,,,,j.PNG,j,5dd2e29b2c5c102e6454227a,2021-09-08_13h56.06.896,forced_choiceRT,2021.1.2,Win32,60.0240096,,,,,,,,4,Ontime,j,1,1.957,6,3,27,3,1,,,,,
1.22,,,,,,,,,h.PNG,h,5dd2e29b2c5c102e6454227a,2021-09-08_13h56.06.896,forced_choiceRT,2021.1.2,Win32,60.0240096,,,,,,,,4,Ontime,h,1,2.001,7,0,28,2,1,,,,,
1.58,,,,,,,,,h.PNG,h,5dd2e29b2c5c102e6454227a,2021-09-08_13h56.06.896,forced_choiceRT,2021.1.2,Win32,60.0240096,,,,,,,,4,Ontime,h,1,2.089,7,1,29,2,1,,,,,
0.46,,,,,,,,,j.PNG,j,5dd2e29b2c5c102e6454227a,2021-09-08_13h56.06.896,forced_choiceRT,2021.1.2,Win32,60.0240096,,,,,,,,4,Fast,j,1,1.876,7,2,30,3,1,,,,,
1.62,,,,,,,,,f.PNG,f,5dd2e29b2c5c102e6454227a,2021-09-08_13h56.06.896,forced_choiceRT,2021.1.2,Win32,60.0240096,,,,,,,,4,Slow,f,1,2.268,7,3,31,0,1,,,,,
0.56,,,,,,,,,g.PNG,g,5dd2e29b2c5c102e6454227a,2021-09-08_13h56.06.896,forced_choiceRT,2021.1.2,Win32,60.0240096,,,,,,,,4,Ontime,g,1,2.061,8,0,32,1,1,,,,,
0.04,,,,,,,,,h.PNG,h,5dd2e29b2c5c102e6454227a,2021-09-08_13h56.06.896,forced_choiceRT,2021.1.2,Win32,60.0240096,,,,,,,,4,Slow,h,1,2.101,8,1,33,2,1,,,,,
0.9,,,,,,,,,h.PNG,h,5dd2e29b2c5c102e6454227a,2021-09-08_13h56.06.896,forced_choiceRT,2021.1.2,Win32,60.0240096,,,,,,,,4,Slow,h,1,2.108,8,2,34,2,1,,,,,
0.49,,,,,,,,,f.PNG,f,5dd2e29b2c5c102e6454227a,2021-09-08_13h56.06.896,forced_choiceRT,2021.1.2,Win32,60.0240096,,,,,,,,4,Ontime,f,1,2.021,8,3,35,0,1,,,,,
0.16,,,,,,,,,h.PNG,h,5dd2e29b2c5c102e6454227a,2021-09-08_13h56.06.896,forced_choiceRT,2021.1.2,Win32,60.0240096,,,,,,,,4,Fast,h,1,1.868,9,0,36,2,1,,,,,
0.19,,,,,,,,,f.PNG,f,5dd2e29b2c5c102e6454227a,2021-09-08_13h56.06.896,forced_choiceRT,2021.1.2,Win32,60.0240096,,,,,,,,4,Fast,f,1,1.773,9,1,37,0,1,,,,,
1.02,,,,,,,,,j.PNG,j,5dd2e29b2c5c102e6454227a,2021-09-08_13h56.06.896,forced_choiceRT,2021.1.2,Win32,60.0240096,,,,,,,,4,Fast,j,1,1.851,9,2,38,3,1,,,,,
0.89,,,,,,,,,f.PNG,f,5dd2e29b2c5c102e6454227a,2021-09-08_13h56.06.896,forced_choiceRT,2021.1.2,Win32,60.0240096,,,,,,,,4,Ontime,f,1,2.021,9,3,39,0,1,,,,,
,,,,,,,,,,,5dd2e29b2c5c102e6454227a,2021-09-08_13h56.06.896,forced_choiceRT,2021.1.2,Win32,60.0240096,,,,,,,,,,,,,,,,,,3,0,3,0,1
0.52,,,,,,,,,f.PNG,f,5dd2e29b2c5c102e6454227a,2021-09-08_13h56.06.896,forced_choiceRT,2021.1.2,Win32,60.0240096,,,,,,,,5,Fast,f,1,1.147,0,0,0,0,1,,,,,
0.73,,,,,,,,,g.PNG,g,5dd2e29b2c5c102e6454227a,2021-09-08_13h56.06.896,forced_choiceRT,2021.1.2,Win32,60.0240096,,,,,,,,5,Fast,g,1,1.858,0,1,1,1,1,,,,,
0.77,,,,,,,,,j.PNG,j,5dd2e29b2c5c102e6454227a,2021-09-08_13h56.06.896,forced_choiceRT,2021.1.2,Win32,60.0240096,,,,,,,,5,Ontime,j,1,2.041,0,2,2,3,1,,,,,
0.85,,,,,,,,,g.PNG,g,5dd2e29b2c5c102e6454227a,2021-09-08_13h56.06.896,forced_choiceRT,2021.1.2,Win32,60.0240096,,,,,,,,5,Ontime,g,1,2.042,0,3,3,1,1,,,,,
0.7,,,,,,,,,f.PNG,f,5dd2e29b2c5c102e6454227a,2021-09-08_13h56.06.896,forced_choiceRT,2021.1.2,Win32,60.0240096,,,,,,,,5,Ontime,f,1,1.974,1,0,4,0,1,,,,,
1.27,,,,,,,,,f.PNG,f,5dd2e29b2c5c102e6454227a,2021-09-08_13h56.06.896,forced_choiceRT,2021.1.2,Win32,60.0240096,,,,,,,,5,Fast,f,1,1.873,1,1,5,0,1,,,,,
1.69,,,,,,,,,g.PNG,g,5dd2e29b2c5c102e6454227a,2021-09-08_13h56.06.896,forced_choiceRT,2021.1.2,Win32,60.0240096,,,,,,,,5,Slow,g,1,2.204,1,2,6,1,1,,,,,
1.13,,,,,,,,,h.PNG,h,5dd2e29b2c5c102e6454227a,2021-09-08_13h56.06.896,forced_choiceRT,2021.1.2,Win32,60.0240096,,,,,,,,5,Ontime,h,1,2.053,1,3,7,2,1,,,,,
0.69,,,,,,,,,f.PNG,f,5dd2e29b2c5c102e6454227a,2021-09-08_13h56.06.896,forced_choiceRT,2021.1.2,Win32,60.0240096,,,,,,,,5,Ontime,f,1,2.036,2,0,8,0,1,,,,,
0.07,,,,,,,,,f.PNG,f,5dd2e29b2c5c102e6454227a,2021-09-08_13h56.06.896,forced_choiceRT,2021.1.2,Win32,60.0240096,,,,,,,,5,Slow,f,1,2.11,2,1,9,0,1,,,,,
0.68,,,,,,,,,f.PNG,f,5dd2e29b2c5c102e6454227a,2021-09-08_13h56.06.896,forced_choiceRT,2021.1.2,Win32,60.0240096,,,,,,,,5,Ontime,f,1,1.968,2,2,10,0,1,,,,,
0.55,,,,,,,,,h.PNG,h,5dd2e29b2c5c102e6454227a,2021-09-08_13h56.06.896,forced_choiceRT,2021.1.2,Win32,60.0240096,,,,,,,,5,Ontime,h,1,1.951,2,3,11,2,1,,,,,
0.55,,,,,,,,,g.PNG,g,5dd2e29b2c5c102e6454227a,2021-09-08_13h56.06.896,forced_choiceRT,2021.1.2,Win32,60.0240096,,,,,,,,5,Ontime,g,1,1.956,3,0,12,1,1,,,,,
0.1,,,,,,,,,f.PNG,f,5dd2e29b2c5c102e6454227a,2021-09-08_13h56.06.896,forced_choiceRT,2021.1.2,Win32,60.0240096,,,,,,,,5,Ontime,f,1,2.026,3,1,13,0,1,,,,,
1.88,,,,,,,,,j.PNG,j,5dd2e29b2c5c102e6454227a,2021-09-08_13h56.06.896,forced_choiceRT,2021.1.2,Win32,60.0240096,,,,,,,,5,Slow,h,0,2.105,3,2,14,3,1,,,,,
1.07,,,,,,,,,g.PNG,g,5dd2e29b2c5c102e6454227a,2021-09-08_13h56.06.896,forced_choiceRT,2021.1.2,Win32,60.0240096,,,,,,,,5,Ontime,g,1,2.061,3,3,15,1,1,,,,,
0.62,,,,,,,,,j.PNG,j,5dd2e29b2c5c102e6454227a,2021-09-08_13h56.06.896,forced_choiceRT,2021.1.2,Win32,60.0240096,,,,,,,,5,Ontime,j,1,2.037,4,0,16,3,1,,,,,
1.54,,,,,,,,,j.PNG,j,5dd2e29b2c5c102e6454227a,2021-09-08_13h56.06.896,forced_choiceRT,2021.1.2,Win32,60.0240096,,,,,,,,5,Fast,f,0,1.834,4,1,17,3,1,,,,,
0.7,,,,,,,,,h.PNG,h,5dd2e29b2c5c102e6454227a,2021-09-08_13h56.06.896,forced_choiceRT,2021.1.2,Win32,60.0240096,,,,,,,,5,Ontime,h,1,2.026,4,2,18,2,1,,,,,
0.82,,,,,,,,,h.PNG,h,5dd2e29b2c5c102e6454227a,2021-09-08_13h56.06.896,forced_choiceRT,2021.1.2,Win32,60.0240096,,,,,,,,5,Ontime,h,1,2.068,4,3,19,2,1,,,,,
0.82,,,,,,,,,h.PNG,h,5dd2e29b2c5c102e6454227a,2021-09-08_13h56.06.896,forced_choiceRT,2021.1.2,Win32,60.0240096,,,,,,,,5,Ontime,h,1,2.041,5,0,20,2,1,,,,,
1.13,,,,,,,,,j.PNG,j,5dd2e29b2c5c102e6454227a,2021-09-08_13h56.06.896,forced_choiceRT,2021.1.2,Win32,60.0240096,,,,,,,,5,Ontime,j,1,2.018,5,1,21,3,1,,,,,
0.25,,,,,,,,,g.PNG,g,5dd2e29b2c5c102e6454227a,2021-09-08_13h56.06.896,forced_choiceRT,2021.1.2,Win32,60.0240096,,,,,,,,5,Ontime,g,1,2.053,5,2,22,1,1,,,,,
1.92,,,,,,,,,f.PNG,f,5dd2e29b2c5c102e6454227a,2021-09-08_13h56.06.896,forced_choiceRT,2021.1.2,Win32,60.0240096,,,,,,,,5,Slow,f,1,2.37,5,3,23,0,1,,,,,
0.04,,,,,,,,,h.PNG,h,5dd2e29b2c5c102e6454227a,2021-09-08_13h56.06.896,forced_choiceRT,2021.1.2,Win32,60.0240096,,,,,,,,5,Ontime,h,1,2.068,6,0,24,2,1,,,,,
1.66,,,,,,,,,j.PNG,j,5dd2e29b2c5c102e6454227a,2021-09-08_13h56.06.896,forced_choiceRT,2021.1.2,Win32,60.0240096,,,,,,,,5,Ontime,g,0,2.067,6,1,25,3,1,,,,,
0.7,,,,,,,,,g.PNG,g,5dd2e29b2c5c102e6454227a,2021-09-08_13h56.06.896,forced_choiceRT,2021.1.2,Win32,60.0240096,,,,,,,,5,Ontime,g,1,2.002,6,2,26,1,1,,,,,
1.18,,,,,,,,,h.PNG,h,5dd2e29b2c5c102e6454227a,2021-09-08_13h56.06.896,forced_choiceRT,2021.1.2,Win32,60.0240096,,,,,,,,5,Fast,h,1,1.887,6,3,27,2,1,,,,,
1.78,,,,,,,,,f.PNG,f,5dd2e29b2c5c102e6454227a,2021-09-08_13h56.06.896,forced_choiceRT,2021.1.2,Win32,60.0240096,,,,,,,,5,Ontime,j,0,1.957,7,0,28,0,1,,,,,
0.91,,,,,,,,,h.PNG,h,5dd2e29b2c5c102e6454227a,2021-09-08_13h56.06.896,forced_choiceRT,2021.1.2,Win32,60.0240096,,,,,,,,5,Ontime,h,1,2.024,7,1,29,2,1,,,,,
0.52,,,,,,,,,g.PNG,g,5dd2e29b2c5c102e6454227a,2021-09-08_13h56.06.896,forced_choiceRT,2021.1.2,Win32,60.0240096,,,,,,,,5,Ontime,g,1,2.026,7,2,30,1,1,,,,,
0.16,,,,,,,,,j.PNG,j,5dd2e29b2c5c102e6454227a,2021-09-08_13h56.06.896,forced_choiceRT,2021.1.2,Win32,60.0240096,,,,,,,,5,Ontime,j,1,1.994,7,3,31,3,1,,,,,
0.61,,,,,,,,,j.PNG,j,5dd2e29b2c5c102e6454227a,2021-09-08_13h56.06.896,forced_choiceRT,2021.1.2,Win32,60.0240096,,,,,,,,5,Ontime,j,1,1.918,8,0,32,3,1,,,,,
0.1,,,,,,,,,g.PNG,g,5dd2e29b2c5c102e6454227a,2021-09-08_13h56.06.896,forced_choiceRT,2021.1.2,Win32,60.0240096,,,,,,,,5,Ontime,g,1,1.978,8,1,33,1,1,,,,,
1.52,,,,,,,,,g.PNG,g,5dd2e29b2c5c102e6454227a,2021-09-08_13h56.06.896,forced_choiceRT,2021.1.2,Win32,60.0240096,,,,,,,,5,Ontime,g,1,2.011,8,2,34,1,1,,,,,
1.59,,,,,,,,,h.PNG,h,5dd2e29b2c5c102e6454227a,2021-09-08_13h56.06.896,forced_choiceRT,2021.1.2,Win32,60.0240096,,,,,,,,5,Slow,h,1,2.219,8,3,35,2,1,,,,,
1.12,,,,,,,,,h.PNG,h,5dd2e29b2c5c102e6454227a,2021-09-08_13h56.06.896,forced_choiceRT,2021.1.2,Win32,60.0240096,,,,,,,,5,Ontime,h,1,2.062,9,0,36,2,1,,,,,
0.38,,,,,,,,,f.PNG,f,5dd2e29b2c5c102e6454227a,2021-09-08_13h56.06.896,forced_choiceRT,2021.1.2,Win32,60.0240096,,,,,,,,5,Ontime,f,1,2.001,9,1,37,0,1,,,,,
0.49,,,,,,,,,j.PNG,j,5dd2e29b2c5c102e6454227a,2021-09-08_13h56.06.896,forced_choiceRT,2021.1.2,Win32,60.0240096,,,,,,,,5,Ontime,j,1,1.944,9,2,38,3,1,,,,,
0.18,,,,,,,,,j.PNG,j,5dd2e29b2c5c102e6454227a,2021-09-08_13h56.06.896,forced_choiceRT,2021.1.2,Win32,60.0240096,,,,,,,,5,Ontime,j,1,2.051,9,3,39,3,1,,,,,
,,,,,,,,,,,5dd2e29b2c5c102e6454227a,2021-09-08_13h56.06.896,forced_choiceRT,2021.1.2,Win32,60.0240096,,,,,,,,,,,,,,,,,,4,0,4,0,1
1.28,,,,,,,,,f.PNG,f,5dd2e29b2c5c102e6454227a,2021-09-08_13h56.06.896,forced_choiceRT,2021.1.2,Win32,60.0240096,,,,,,,,6,Ontime,f,1,2.032,0,0,0,0,1,,,,,
0.97,,,,,,,,,f.PNG,f,5dd2e29b2c5c102e6454227a,2021-09-08_13h56.06.896,forced_choiceRT,2021.1.2,Win32,60.0240096,,,,,,,,6,Ontime,f,1,1.959,0,1,1,0,1,,,,,
1.44,,,,,,,,,f.PNG,f,5dd2e29b2c5c102e6454227a,2021-09-08_13h56.06.896,forced_choiceRT,2021.1.2,Win32,60.0240096,,,,,,,,6,Ontime,f,1,1.95,0,2,2,0,1,,,,,
1.28,,,,,,,,,f.PNG,f,5dd2e29b2c5c102e6454227a,2021-09-08_13h56.06.896,forced_choiceRT,2021.1.2,Win32,60.0240096,,,,,,,,6,Fast,f,1,1.86,0,3,3,0,1,,,,,
1.6,,,,,,,,,g.PNG,g,5dd2e29b2c5c102e6454227a,2021-09-08_13h56.06.896,forced_choiceRT,2021.1.2,Win32,60.0240096,,,,,,,,6,Slow,g,1,2.135,1,0,4,1,1,,,,,
1.51,,,,,,,,,h.PNG,h,5dd2e29b2c5c102e6454227a,2021-09-08_13h56.06.896,forced_choiceRT,2021.1.2,Win32,60.0240096,,,,,,,,6,Ontime,h,1,2.05,1,1,5,2,1,,,,,
0.64,,,,,,,,,h.PNG,h,5dd2e29b2c5c102e6454227a,2021-09-08_13h56.06.896,forced_choiceRT,2021.1.2,Win32,60.0240096,,,,,,,,6,Ontime,h,1,2.001,1,2,6,2,1,,,,,
1.48,,,,,,,,,g.PNG,g,5dd2e29b2c5c102e6454227a,2021-09-08_13h56.06.896,forced_choiceRT,2021.1.2,Win32,60.0240096,,,,,,,,6,Ontime,g,1,2.085,1,3,7,1,1,,,,,
0.03,,,,,,,,,f.PNG,f,5dd2e29b2c5c102e6454227a,2021-09-08_13h56.06.896,forced_choiceRT,2021.1.2,Win32,60.0240096,,,,,,,,6,Slow,f,1,2.173,2,0,8,0,1,,,,,
1.96,,,,,,,,,h.PNG,h,5dd2e29b2c5c102e6454227a,2021-09-08_13h56.06.896,forced_choiceRT,2021.1.2,Win32,60.0240096,,,,,,,,6,Ontime,g,0,2.003,2,1,9,2,1,,,,,
0.86,,,,,,,,,g.PNG,g,5dd2e29b2c5c102e6454227a,2021-09-08_13h56.06.896,forced_choiceRT,2021.1.2,Win32,60.0240096,,,,,,,,6,Slow,g,1,2.138,2,2,10,1,1,,,,,
1.55,,,,,,,,,j.PNG,j,5dd2e29b2c5c102e6454227a,2021-09-08_13h56.06.896,forced_choiceRT,2021.1.2,Win32,60.0240096,,,,,,,,6,Slow,j,1,2.201,2,3,11,3,1,,,,,
0.8,,,,,,,,,j.PNG,j,5dd2e29b2c5c102e6454227a,2021-09-08_13h56.06.896,forced_choiceRT,2021.1.2,Win32,60.0240096,,,,,,,,6,Ontime,j,1,1.959,3,0,12,3,1,,,,,
0.08,,,,,,,,,f.PNG,f,5dd2e29b2c5c102e6454227a,2021-09-08_13h56.06.896,forced_choiceRT,2021.1.2,Win32,60.0240096,,,,,,,,6,Ontime,f,1,1.951,3,1,13,0,1,,,,,
1.38,,,,,,,,,h.PNG,h,5dd2e29b2c5c102e6454227a,2021-09-08_13h56.06.896,forced_choiceRT,2021.1.2,Win32,60.0240096,,,,,,,,6,Ontime,h,1,1.945,3,2,14,2,1,,,,,
0.93,,,,,,,,,f.PNG,f,5dd2e29b2c5c102e6454227a,2021-09-08_13h56.06.896,forced_choiceRT,2021.1.2,Win32,60.0240096,,,,,,,,6,Fast,f,1,1.845,3,3,15,0,1,,,,,
0.8,,,,,,,,,j.PNG,j,5dd2e29b2c5c102e6454227a,2021-09-08_13h56.06.896,forced_choiceRT,2021.1.2,Win32,60.0240096,,,,,,,,6,Fast,j,1,1.592,4,0,16,3,1,,,,,
1.82,,,,,,,,,h.PNG,h,5dd2e29b2c5c102e6454227a,2021-09-08_13h56.06.896,forced_choiceRT,2021.1.2,Win32,60.0240096,,,,,,,,6,Ontime,f,0,2.075,4,1,17,2,1,,,,,
1.41,,,,,,,,,g.PNG,g,5dd2e29b2c5c102e6454227a,2021-09-08_13h56.06.896,forced_choiceRT,2021.1.2,Win32,60.0240096,,,,,,,,6,Ontime,g,1,2.042,4,2,18,1,1,,,,,
0.84,,,,,,,,,g.PNG,g,5dd2e29b2c5c102e6454227a,2021-09-08_13h56.06.896,forced_choiceRT,2021.1.2,Win32,60.0240096,,,,,,,,6,Fast,g,1,1.435,4,3,19,1,1,,,,,
1.75,,,,,,,,,h.PNG,h,5dd2e29b2c5c102e6454227a,2021-09-08_13h56.06.896,forced_choiceRT,2021.1.2,Win32,60.0240096,,,,,,,,6,Slow,h,1,2.253,5,0,20,2,1,,,,,
0.23,,,,,,,,,j.PNG,j,5dd2e29b2c5c102e6454227a,2021-09-08_13h56.06.896,forced_choiceRT,2021.1.2,Win32,60.0240096,,,,,,,,6,Ontime,j,1,2.06,5,1,21,3,1,,,,,
0.83,,,,,,,,,j.PNG,j,5dd2e29b2c5c102e6454227a,2021-09-08_13h56.06.896,forced_choiceRT,2021.1.2,Win32,60.0240096,,,,,,,,6,Slow,j,1,2.117,5,2,22,3,1,,,,,
1,,,,,,,,,h.PNG,h,5dd2e29b2c5c102e6454227a,2021-09-08_13h56.06.896,forced_choiceRT,2021.1.2,Win32,60.0240096,,,,,,,,6,Ontime,h,1,1.984,5,3,23,2,1,,,,,
0.02,,,,,,,,,j.PNG,j,5dd2e29b2c5c102e6454227a,2021-09-08_13h56.06.896,forced_choiceRT,2021.1.2,Win32,60.0240096,,,,,,,,6,Ontime,j,1,2.053,6,0,24,3,1,,,,,
0.97,,,,,,,,,j.PNG,j,5dd2e29b2c5c102e6454227a,2021-09-08_13h56.06.896,forced_choiceRT,2021.1.2,Win32,60.0240096,,,,,,,,6,Ontime,j,1,2.042,6,1,25,3,1,,,,,
0.51,,,,,,,,,j.PNG,j,5dd2e29b2c5c102e6454227a,2021-09-08_13h56.06.896,forced_choiceRT,2021.1.2,Win32,60.0240096,,,,,,,,6,Ontime,j,1,2.06,6,2,26,3,1,,,,,
0.19,,,,,,,,,j.PNG,j,5dd2e29b2c5c102e6454227a,2021-09-08_13h56.06.896,forced_choiceRT,2021.1.2,Win32,60.0240096,,,,,,,,6,Ontime,j,1,2.068,6,3,27,3,1,,,,,
0.42,,,,,,,,,f.PNG,f,5dd2e29b2c5c102e6454227a,2021-09-08_13h56.06.896,forced_choiceRT,2021.1.2,Win32,60.0240096,,,,,,,,6,Ontime,f,1,2.085,7,0,28,0,1,,,,,
1.86,,,,,,,,,g.PNG,g,5dd2e29b2c5c102e6454227a,2021-09-08_13h56.06.896,forced_choiceRT,2021.1.2,Win32,60.0240096,,,,,,,,6,Slow,j,0,2.106,7,1,29,1,1,,,,,
0.39,,,,,,,,,f.PNG,f,5dd2e29b2c5c102e6454227a,2021-09-08_13h56.06.896,forced_choiceRT,2021.1.2,Win32,60.0240096,,,,,,,,6,Ontime,f,1,2.052,7,2,30,0,1,,,,,
1.79,,,,,,,,,g.PNG,g,5dd2e29b2c5c102e6454227a,2021-09-08_13h56.06.896,forced_choiceRT,2021.1.2,Win32,60.0240096,,,,,,,,6,Slow,f,0,2.176,7,3,31,1,1,,,,,
1.52,,,,,,,,,g.PNG,g,5dd2e29b2c5c102e6454227a,2021-09-08_13h56.06.896,forced_choiceRT,2021.1.2,Win32,60.0240096,,,,,,,,6,Ontime,g,1,2.091,8,0,32,1,1,,,,,
0.11,,,,,,,,,f.PNG,f,5dd2e29b2c5c102e6454227a,2021-09-08_13h56.06.896,forced_choiceRT,2021.1.2,Win32,60.0240096,,,,,,,,6,Slow,f,1,2.124,8,1,33,0,1,,,,,
0.45,,,,,,,,,h.PNG,h,5dd2e29b2c5c102e6454227a,2021-09-08_13h56.06.896,forced_choiceRT,2021.1.2,Win32,60.0240096,,,,,,,,6,Fast,h,1,1.884,8,2,34,2,1,,,,,
1.39,,,,,,,,,g.PNG,g,5dd2e29b2c5c102e6454227a,2021-09-08_13h56.06.896,forced_choiceRT,2021.1.2,Win32,60.0240096,,,,,,,,6,Slow,g,1,2.15,8,3,35,1,1,,,,,
1.44,,,,,,,,,h.PNG,h,5dd2e29b2c5c102e6454227a,2021-09-08_13h56.06.896,forced_choiceRT,2021.1.2,Win32,60.0240096,,,,,,,,6,Ontime,h,1,2.035,9,0,36,2,1,,,,,
1.45,,,,,,,,,g.PNG,g,5dd2e29b2c5c102e6454227a,2021-09-08_13h56.06.896,forced_choiceRT,2021.1.2,Win32,60.0240096,,,,,,,,6,Fast,f,0,1.854,9,1,37,1,1,,,,,
1.87,,,,,,,,,j.PNG,j,5dd2e29b2c5c102e6454227a,2021-09-08_13h56.06.896,forced_choiceRT,2021.1.2,Win32,60.0240096,,,,,,,,6,Ontime,g,0,2.085,9,2,38,3,1,,,,,
0.16,,,,,,,,,h.PNG,h,5dd2e29b2c5c102e6454227a,2021-09-08_13h56.06.896,forced_choiceRT,2021.1.2,Win32,60.0240096,,,,,,,,6,Ontime,h,1,2.089,9,3,39,2,1,,,,,
,,,,,,,,,,,5dd2e29b2c5c102e6454227a,2021-09-08_13h56.06.896,forced_choiceRT,2021.1.2,Win32,60.0240096,,,,,,,,,,,,,,,,,,5,0,5,0,1
1.75,,,,,,,,,f.PNG,f,5dd2e29b2c5c102e6454227a,2021-09-08_13h56.06.896,forced_choiceRT,2021.1.2,Win32,60.0240096,,,,,,,,7,Fast,j,0,1.771,0,0,0,0,1,,,,,
0.61,,,,,,,,,j.PNG,j,5dd2e29b2c5c102e6454227a,2021-09-08_13h56.06.896,forced_choiceRT,2021.1.2,Win32,60.0240096,,,,,,,,7,Slow,j,1,2.103,0,1,1,3,1,,,,,
0.15,,,,,,,,,h.PNG,h,5dd2e29b2c5c102e6454227a,2021-09-08_13h56.06.896,forced_choiceRT,2021.1.2,Win32,60.0240096,,,,,,,,7,Ontime,h,1,2.024,0,2,2,2,1,,,,,
0.43,,,,,,,,,h.PNG,h,5dd2e29b2c5c102e6454227a,2021-09-08_13h56.06.896,forced_choiceRT,2021.1.2,Win32,60.0240096,,,,,,,,7,Ontime,h,1,2.039,0,3,3,2,1,,,,,
0.48,,,,,,,,,j.PNG,j,5dd2e29b2c5c102e6454227a,2021-09-08_13h56.06.896,forced_choiceRT,2021.1.2,Win32,60.0240096,,,,,,,,7,Ontime,j,1,1.955,1,0,4,3,1,,,,,
1.63,,,,,,,,,h.PNG,h,5dd2e29b2c5c102e6454227a,2021-09-08_13h56.06.896,forced_choiceRT,2021.1.2,Win32,60.0240096,,,,,,,,7,Ontime,h,1,2.068,1,1,5,2,1,,,,,
1.71,,,,,,,,,j.PNG,j,5dd2e29b2c5c102e6454227a,2021-09-08_13h56.06.896,forced_choiceRT,2021.1.2,Win32,60.0240096,,,,,,,,7,Slow,h,0,2.159,1,2,6,3,1,,,,,
0.43,,,,,,,,,j.PNG,j,5dd2e29b2c5c102e6454227a,2021-09-08_13h56.06.896,forced_choiceRT,2021.1.2,Win32,60.0240096,,,,,,,,7,Ontime,j,1,1.952,1,3,7,3,1,,,,,
1.37,,,,,,,,,g.PNG,g,5dd2e29b2c5c102e6454227a,2021-09-08_13h56.06.896,forced_choiceRT,2021.1.2,Win32,60.0240096,,,,,,,,7,Ontime,g,1,2.004,2,0,8,1,1,,,,,
0.57,,,,,,,,,h.PNG,h,5dd2e29b2c5c102e6454227a,2021-09-08_13h56.06.896,forced_choiceRT,2021.1.2,Win32,60.0240096,,,,,,,,7,Ontime,h,1,1.968,2,1,9,2,1,,,,,
0.99,,,,,,,,,g.PNG,g,5dd2e29b2c5c102e6454227a,2021-09-08_13h56.06.896,forced_choiceRT,2021.1.2,Win32,60.0240096,,,,,,,,7,Ontime,g,1,2.041,2,2,10,1,1,,,,,
0.62,,,,,,,,,f.PNG,f,5dd2e29b2c5c102e6454227a,2021-09-08_13h56.06.896,forced_choiceRT,2021.1.2,Win32,60.0240096,,,,,,,,7,Ontime,f,1,2.042,2,3,11,0,1,,,,,
0.07,,,,,,,,,f.PNG,f,5dd2e29b2c5c102e6454227a,2021-09-08_13h56.06.896,forced_choiceRT,2021.1.2,Win32,60.0240096,,,,,,,,7,Ontime,f,1,1.978,3,0,12,0,1,,,,,
0.34,,,,,,,,,f.PNG,f,5dd2e29b2c5c102e6454227a,2021-09-08_13h56.06.896,forced_choiceRT,2021.1.2,Win32,60.0240096,,,,,,,,7,Ontime,f,1,2.007,3,1,13,0,1,,,,,
0.3,,,,,,,,,j.PNG,j,5dd2e29b2c5c102e6454227a,2021-09-08_13h56.06.896,forced_choiceRT,2021.1.2,Win32,60.0240096,,,,,,,,7,Fast,j,1,1.871,3,2,14,3,1,,,,,
0.76,,,,,,,,,h.PNG,h,5dd2e29b2c5c102e6454227a,2021-09-08_13h56.06.896,forced_choiceRT,2021.1.2,Win32,60.0240096,,,,,,,,7,Ontime,h,1,1.957,3,3,15,2,1,,,,,
1.36,,,,,,,,,f.PNG,f,5dd2e29b2c5c102e6454227a,2021-09-08_13h56.06.896,forced_choiceRT,2021.1.2,Win32,60.0240096,,,,,,,,7,Ontime,f,1,1.994,4,0,16,0,1,,,,,
1.25,,,,,,,,,f.PNG,f,5dd2e29b2c5c102e6454227a,2021-09-08_13h56.06.896,forced_choiceRT,2021.1.2,Win32,60.0240096,,,,,,,,7,Ontime,f,1,2.06,4,1,17,0,1,,,,,
1.19,,,,,,,,,h.PNG,h,5dd2e29b2c5c102e6454227a,2021-09-08_13h56.06.896,forced_choiceRT,2021.1.2,Win32,60.0240096,,,,,,,,7,Ontime,h,1,2.077,4,2,18,2,1,,,,,
1.88,,,,,,,,,g.PNG,g,5dd2e29b2c5c102e6454227a,2021-09-08_13h56.06.896,forced_choiceRT,2021.1.2,Win32,60.0240096,,,,,,,,7,Ontime,g,1,1.986,4,3,19,1,1,,,,,
1.29,,,,,,,,,h.PNG,h,5dd2e29b2c5c102e6454227a,2021-09-08_13h56.06.896,forced_choiceRT,2021.1.2,Win32,60.0240096,,,,,,,,7,Ontime,h,1,1.901,5,0,20,2,1,,,,,
0.64,,,,,,,,,h.PNG,h,5dd2e29b2c5c102e6454227a,2021-09-08_13h56.06.896,forced_choiceRT,2021.1.2,Win32,60.0240096,,,,,,,,7,Ontime,h,1,1.901,5,1,21,2,1,,,,,
0.64,,,,,,,,,g.PNG,g,5dd2e29b2c5c102e6454227a,2021-09-08_13h56.06.896,forced_choiceRT,2021.1.2,Win32,60.0240096,,,,,,,,7,Ontime,g,1,1.941,5,2,22,1,1,,,,,
0.1,,,,,,,,,g.PNG,g,5dd2e29b2c5c102e6454227a,2021-09-08_13h56.06.896,forced_choiceRT,2021.1.2,Win32,60.0240096,,,,,,,,7,Ontime,g,1,2.011,5,3,23,1,1,,,,,
0.12,,,,,,,,,g.PNG,g,5dd2e29b2c5c102e6454227a,2021-09-08_13h56.06.896,forced_choiceRT,2021.1.2,Win32,60.0240096,,,,,,,,7,Fast,g,1,1.784,6,0,24,1,1,,,,,
1.23,,,,,,,,,j.PNG,j,5dd2e29b2c5c102e6454227a,2021-09-08_13h56.06.896,forced_choiceRT,2021.1.2,Win32,60.0240096,,,,,,,,7,Slow,j,1,2.15,6,1,25,3,1,,,,,
0.55,,,,,,,,,f.PNG,f,5dd2e29b2c5c102e6454227a,2021-09-08_13h56.06.896,forced_choiceRT,2021.1.2,Win32,60.0240096,,,,,,,,7,Fast,f,1,1.87,6,2,26,0,1,,,,,
1.41,,,,,,,,,g.PNG,g,5dd2e29b2c5c102e6454227a,2021-09-08_13h56.06.896,forced_choiceRT,2021.1.2,Win32,60.0240096,,,,,,,,7,Ontime,g,1,1.984,6,3,27,1,1,,,,,
0.59,,,,,,,,,j.PNG,j,5dd2e29b2c5c102e6454227a,2021-09-08_13h56.06.896,forced_choiceRT,2021.1.2,Win32,60.0240096,,,,,,,,7,Fast,j,1,1.801,7,0,28,3,1,,,,,
1,,,,,,,,,j.PNG,j,5dd2e29b2c5c102e6454227a,2021-09-08_13h56.06.896,forced_choiceRT,2021.1.2,Win32,60.0240096,,,,,,,,7,Ontime,j,1,1.934,7,1,29,3,1,,,,,
0.38,,,,,,,,,j.PNG,j,5dd2e29b2c5c102e6454227a,2021-09-08_13h56.06.896,forced_choiceRT,2021.1.2,Win32,60.0240096,,,,,,,,7,Fast,j,1,1.81,7,2,30,3,1,,,,,
0.96,,,,,,,,,h.PNG,h,5dd2e29b2c5c102e6454227a,2021-09-08_13h56.06.896,forced_choiceRT,2021.1.2,Win32,60.0240096,,,,,,,,7,Ontime,h,1,1.968,7,3,31,2,1,,,,,
0.79,,,,,,,,,j.PNG,j,5dd2e29b2c5c102e6454227a,2021-09-08_13h56.06.896,forced_choiceRT,2021.1.2,Win32,60.0240096,,,,,,,,7,Ontime,j,1,1.984,8,0,32,3,1,,,,,
0.67,,,,,,,,,f.PNG,f,5dd2e29b2c5c102e6454227a,2021-09-08_13h56.06.896,forced_choiceRT,2021.1.2,Win32,60.0240096,,,,,,,,7,Ontime,f,1,2.019,8,1,33,0,1,,,,,
1.88,,,,,,,,,f.PNG,f,5dd2e29b2c5c102e6454227a,2021-09-08_13h56.06.896,forced_choiceRT,2021.1.2,Win32,60.0240096,,,,,,,,7,Slow,f,1,2.279,8,2,34,0,1,,,,,
1.49,,,,,,,,,g.PNG,g,5dd2e29b2c5c102e6454227a,2021-09-08_13h56.06.896,forced_choiceRT,2021.1.2,Win32,60.0240096,,,,,,,,7,Ontime,g,1,1.985,8,3,35,1,1,,,,,
1.76,,,,,,,,,g.PNG,g,5dd2e29b2c5c102e6454227a,2021-09-08_13h56.06.896,forced_choiceRT,2021.1.2,Win32,60.0240096,,,,,,,,7,Slow,g,1,2.218,9,0,36,1,1,,,,,
0.35,,,,,,,,,f.PNG,f,5dd2e29b2c5c102e6454227a,2021-09-08_13h56.06.896,forced_choiceRT,2021.1.2,Win32,60.0240096,,,,,,,,7,Fast,f,1,1.818,9,1,37,0,1,,,,,
0.99,,,,,,,,,h.PNG,h,5dd2e29b2c5c102e6454227a,2021-09-08_13h56.06.896,forced_choiceRT,2021.1.2,Win32,60.0240096,,,,,,,,7,Ontime,h,1,2.034,9,2,38,2,1,,,,,
1.72,,,,,,,,,g.PNG,g,5dd2e29b2c5c102e6454227a,2021-09-08_13h56.06.896,forced_choiceRT,2021.1.2,Win32,60.0240096,,,,,,,,7,Ontime,g,1,1.94,9,3,39,1,1,,,,,
,,,,,,,,,,,5dd2e29b2c5c102e6454227a,2021-09-08_13h56.06.896,forced_choiceRT,2021.1.2,Win32,60.0240096,,,,,,,,,,,,,,,,,,6,0,6,0,1
1.76,,,,,,,,,g.PNG,g,5dd2e29b2c5c102e6454227a,2021-09-08_13h56.06.896,forced_choiceRT,2021.1.2,Win32,60.0240096,,,,,,,,8,Ontime,j,0,2.017,0,0,0,1,1,,,,,
0.51,,,,,,,,,g.PNG,g,5dd2e29b2c5c102e6454227a,2021-09-08_13h56.06.896,forced_choiceRT,2021.1.2,Win32,60.0240096,,,,,,,,8,Ontime,g,1,1.976,0,1,1,1,1,,,,,
1.8,,,,,,,,,j.PNG,j,5dd2e29b2c5c102e6454227a,2021-09-08_13h56.06.896,forced_choiceRT,2021.1.2,Win32,60.0240096,,,,,,,,8,Ontime,g,0,1.945,0,2,2,3,1,,,,,
1.34,,,,,,,,,j.PNG,j,5dd2e29b2c5c102e6454227a,2021-09-08_13h56.06.896,forced_choiceRT,2021.1.2,Win32,60.0240096,,,,,,,,8,Ontime,j,1,1.906,0,3,3,3,1,,,,,
0.72,,,,,,,,,h.PNG,h,5dd2e29b2c5c102e6454227a,2021-09-08_13h56.06.896,forced_choiceRT,2021.1.2,Win32,60.0240096,,,,,,,,8,Ontime,h,1,2.026,1,0,4,2,1,,,,,
1.75,,,,,,,,,h.PNG,h,5dd2e29b2c5c102e6454227a,2021-09-08_13h56.06.896,forced_choiceRT,2021.1.2,Win32,60.0240096,,,,,,,,8,Ontime,g,0,2.095,1,1,5,2,1,,,,,
0.8,,,,,,,,,f.PNG,f,5dd2e29b2c5c102e6454227a,2021-09-08_13h56.06.896,forced_choiceRT,2021.1.2,Win32,60.0240096,,,,,,,,8,Ontime,f,1,2.002,1,2,6,0,1,,,,,
0.42,,,,,,,,,j.PNG,j,5dd2e29b2c5c102e6454227a,2021-09-08_13h56.06.896,forced_choiceRT,2021.1.2,Win32,60.0240096,,,,,,,,8,Ontime,j,1,1.941,1,3,7,3,1,,,,,
0.46,,,,,,,,,g.PNG,g,5dd2e29b2c5c102e6454227a,2021-09-08_13h56.06.896,forced_choiceRT,2021.1.2,Win32,60.0240096,,,,,,,,8,Ontime,g,1,1.969,2,0,8,1,1,,,,,
0.62,,,,,,,,,h.PNG,h,5dd2e29b2c5c102e6454227a,2021-09-08_13h56.06.896,forced_choiceRT,2021.1.2,Win32,60.0240096,,,,,,,,8,Ontime,h,1,2.051,2,1,9,2,1,,,,,
1,,,,,,,,,g.PNG,g,5dd2e29b2c5c102e6454227a,2021-09-08_13h56.06.896,forced_choiceRT,2021.1.2,Win32,60.0240096,,,,,,,,8,Ontime,g,1,2.018,2,2,10,1,1,,,,,
0.74,,,,,,,,,h.PNG,h,5dd2e29b2c5c102e6454227a,2021-09-08_13h56.06.896,forced_choiceRT,2021.1.2,Win32,60.0240096,,,,,,,,8,Ontime,h,1,1.993,2,3,11,2,1,,,,,
0.04,,,,,,,,,h.PNG,h,5dd2e29b2c5c102e6454227a,2021-09-08_13h56.06.896,forced_choiceRT,2021.1.2,Win32,60.0240096,,,,,,,,8,Slow,h,1,2.103,3,0,12,2,1,,,,,
1.08,,,,,,,,,j.PNG,j,5dd2e29b2c5c102e6454227a,2021-09-08_13h56.06.896,forced_choiceRT,2021.1.2,Win32,60.0240096,,,,,,,,8,Ontime,j,1,2.018,3,1,13,3,1,,,,,
1.78,,,,,,,,,f.PNG,f,5dd2e29b2c5c102e6454227a,2021-09-08_13h56.06.896,forced_choiceRT,2021.1.2,Win32,60.0240096,,,,,,,,8,Ontime,j,0,1.984,3,2,14,0,1,,,,,
1.64,,,,,,,,,j.PNG,j,5dd2e29b2c5c102e6454227a,2021-09-08_13h56.06.896,forced_choiceRT,2021.1.2,Win32,60.0240096,,,,,,,,8,Ontime,f,0,1.955,3,3,15,3,1,,,,,
0.86,,,,,,,,,h.PNG,h,5dd2e29b2c5c102e6454227a,2021-09-08_13h56.06.896,forced_choiceRT,2021.1.2,Win32,60.0240096,,,,,,,,8,Ontime,h,1,1.927,4,0,16,2,1,,,,,
0.56,,,,,,,,,f.PNG,f,5dd2e29b2c5c102e6454227a,2021-09-08_13h56.06.896,forced_choiceRT,2021.1.2,Win32,60.0240096,,,,,,,,8,Ontime,f,1,1.939,4,1,17,0,1,,,,,
1.07,,,,,,,,,g.PNG,g,5dd2e29b2c5c102e6454227a,2021-09-08_13h56.06.896,forced_choiceRT,2021.1.2,Win32,60.0240096,,,,,,,,8,Fast,g,1,1.824,4,2,18,1,1,,,,,
0.67,,,,,,,,,h.PNG,h,5dd2e29b2c5c102e6454227a,2021-09-08_13h56.06.896,forced_choiceRT,2021.1.2,Win32,60.0240096,,,,,,,,8,Ontime,h,1,1.995,4,3,19,2,1,,,,,
1.76,,,,,,,,,g.PNG,g,5dd2e29b2c5c102e6454227a,2021-09-08_13h56.06.896,forced_choiceRT,2021.1.2,Win32,60.0240096,,,,,,,,8,Ontime,g,1,1.952,5,0,20,1,1,,,,,
0.99,,,,,,,,,g.PNG,g,5dd2e29b2c5c102e6454227a,2021-09-08_13h56.06.896,forced_choiceRT,2021.1.2,Win32,60.0240096,,,,,,,,8,Ontime,g,1,1.968,5,1,21,1,1,,,,,
1.64,,,,,,,,,f.PNG,f,5dd2e29b2c5c102e6454227a,2021-09-08_13h56.06.896,forced_choiceRT,2021.1.2,Win32,60.0240096,,,,,,,,8,Ontime,f,1,1.985,5,2,22,0,1,,,,,
1.36,,,,,,,,,j.PNG,j,5dd2e29b2c5c102e6454227a,2021-09-08_13h56.06.896,forced_choiceRT,2021.1.2,Win32,60.0240096,,,,,,,,8,Ontime,j,1,1.968,5,3,23,3,1,,,,,
0.73,,,,,,,,,g.PNG,g,5dd2e29b2c5c102e6454227a,2021-09-08_13h56.06.896,forced_choiceRT,2021.1.2,Win32,60.0240096,,,,,,,,8,Ontime,g,1,1.958,6,0,24,1,1,,,,,
1.34,,,,,,,,,j.PNG,j,5dd2e29b2c5c102e6454227a,2021-09-08_13h56.06.896,forced_choiceRT,2021.1.2,Win32,60.0240096,,,,,,,,8,Ontime,j,1,2.024,6,1,25,3,1,,,,,
1.29,,,,,,,,,j.PNG,j,5dd2e29b2c5c102e6454227a,2021-09-08_13h56.06.896,forced_choiceRT,2021.1.2,Win32,60.0240096,,,,,,,,8,Ontime,j,1,2.002,6,2,26,3,1,,,,,
0.47,,,,,,,,,f.PNG,f,5dd2e29b2c5c102e6454227a,2021-09-08_13h56.06.896,forced_choiceRT,2021.1.2,Win32,60.0240096,,,,,,,,8,Ontime,f,1,1.953,6,3,27,0,1,,,,,
1.7,,,,,,,,,j.PNG,j,5dd2e29b2c5c102e6454227a,2021-09-08_13h56.06.896,forced_choiceRT,2021.1.2,Win32,60.0240096,,,,,,,,8,Slow,j,1,2.111,7,0,28,3,1,,,,,
0.64,,,,,,,,,f.PNG,f,5dd2e29b2c5c102e6454227a,2021-09-08_13h56.06.896,forced_choiceRT,2021.1.2,Win32,60.0240096,,,,,,,,8,Ontime,f,1,2.001,7,1,29,0,1,,,,,
0.39,,,,,,,,,f.PNG,f,5dd2e29b2c5c102e6454227a,2021-09-08_13h56.06.896,forced_choiceRT,2021.1.2,Win32,60.0240096,,,,,,,,8,Ontime,f,1,2.002,7,2,30,0,1,,,,,
0.66,,,,,,,,,h.PNG,h,5dd2e29b2c5c102e6454227a,2021-09-08_13h56.06.896,forced_choiceRT,2021.1.2,Win32,60.0240096,,,,,,,,8,Ontime,h,1,2.003,7,3,31,2,1,,,,,
0.24,,,,,,,,,f.PNG,f,5dd2e29b2c5c102e6454227a,2021-09-08_13h56.06.896,forced_choiceRT,2021.1.2,Win32,60.0240096,,,,,,,,8,Ontime,f,1,2.04,8,0,32,0,1,,,,,
1.08,,,,,,,,,j.PNG,j,5dd2e29b2c5c102e6454227a,2021-09-08_13h56.06.896,forced_choiceRT,2021.1.2,Win32,60.0240096,,,,,,,,8,Ontime,j,1,1.934,8,1,33,3,1,,,,,
0.14,,,,,,,,,g.PNG,g,5dd2e29b2c5c102e6454227a,2021-09-08_13h56.06.896,forced_choiceRT,2021.1.2,Win32,60.0240096,,,,,,,,8,Ontime,g,1,1.976,8,2,34,1,1,,,,,
0.52,,,,,,,,,f.PNG,f,5dd2e29b2c5c102e6454227a,2021-09-08_13h56.06.896,forced_choiceRT,2021.1.2,Win32,60.0240096,,,,,,,,8,Slow,f,1,2.135,8,3,35,0,1,,,,,
0.4,,,,,,,,,h.PNG,h,5dd2e29b2c5c102e6454227a,2021-09-08_13h56.06.896,forced_choiceRT,2021.1.2,Win32,60.0240096,,,,,,,,8,Fast,h,1,1.818,9,0,36,2,1,,,,,
0.84,,,,,,,,,f.PNG,f,5dd2e29b2c5c102e6454227a,2021-09-08_13h56.06.896,forced_choiceRT,2021.1.2,Win32,60.0240096,,,,,,,,8,Ontime,f,1,2.084,9,1,37,0,1,,,,,
0.29,,,,,,,,,h.PNG,h,5dd2e29b2c5c102e6454227a,2021-09-08_13h56.06.896,forced_choiceRT,2021.1.2,Win32,60.0240096,,,,,,,,8,Ontime,h,1,2.024,9,2,38,2,1,,,,,
1.43,,,,,,,,,g.PNG,g,5dd2e29b2c5c102e6454227a,2021-09-08_13h56.06.896,forced_choiceRT,2021.1.2,Win32,60.0240096,,,,,,,,8,Ontime,g,1,2.06,9,3,39,1,1,,,,,
,,,,,,,,,,,5dd2e29b2c5c102e6454227a,2021-09-08_13h56.06.896,forced_choiceRT,2021.1.2,Win32,60.0240096,,,,,,,,,,,,,,,,,,7,0,7,0,1
0.59,,,,,,,,,g.PNG,g,5dd2e29b2c5c102e6454227a,2021-09-08_13h56.06.896,forced_choiceRT,2021.1.2,Win32,60.0240096,,,,,,,,9,Fast,g,1,1.202,0,0,0,1,1,,,,,
1.99,,,,,,,,,j.PNG,j,5dd2e29b2c5c102e6454227a,2021-09-08_13h56.06.896,forced_choiceRT,2021.1.2,Win32,60.0240096,,,,,,,,9,Slow,j,1,2.121,0,1,1,3,1,,,,,
1.4,,,,,,,,,j.PNG,j,5dd2e29b2c5c102e6454227a,2021-09-08_13h56.06.896,forced_choiceRT,2021.1.2,Win32,60.0240096,,,,,,,,9,Ontime,j,1,2.058,0,2,2,3,1,,,,,
0.66,,,,,,,,,f.PNG,f,5dd2e29b2c5c102e6454227a,2021-09-08_13h56.06.896,forced_choiceRT,2021.1.2,Win32,60.0240096,,,,,,,,9,Ontime,f,1,2.085,0,3,3,0,1,,,,,
1.51,,,,,,,,,j.PNG,j,5dd2e29b2c5c102e6454227a,2021-09-08_13h56.06.896,forced_choiceRT,2021.1.2,Win32,60.0240096,,,,,,,,9,Ontime,f,0,1.923,1,0,4,3,1,,,,,
1.61,,,,,,,,,g.PNG,g,5dd2e29b2c5c102e6454227a,2021-09-08_13h56.06.896,forced_choiceRT,2021.1.2,Win32,60.0240096,,,,,,,,9,Ontime,j,0,2.011,1,1,5,1,1,,,,,
0.87,,,,,,,,,h.PNG,h,5dd2e29b2c5c102e6454227a,2021-09-08_13h56.06.896,forced_choiceRT,2021.1.2,Win32,60.0240096,,,,,,,,9,Ontime,h,1,1.973,1,2,6,2,1,,,,,
0.86,,,,,,,,,g.PNG,g,5dd2e29b2c5c102e6454227a,2021-09-08_13h56.06.896,forced_choiceRT,2021.1.2,Win32,60.0240096,,,,,,,,9,Ontime,g,1,1.941,1,3,7,1,1,,,,,
1.04,,,,,,,,,h.PNG,h,5dd2e29b2c5c102e6454227a,2021-09-08_13h56.06.896,forced_choiceRT,2021.1.2,Win32,60.0240096,,,,,,,,9,Fast,h,1,1.879,2,0,8,2,1,,,,,
1.63,,,,,,,,,g.PNG,g,5dd2e29b2c5c102e6454227a,2021-09-08_13h56.06.896,forced_choiceRT,2021.1.2,Win32,60.0240096,,,,,,,,9,Ontime,g,1,2.094,2,1,9,1,1,,,,,
1.07,,,,,,,,,f.PNG,f,5dd2e29b2c5c102e6454227a,2021-09-08_13h56.06.896,forced_choiceRT,2021.1.2,Win32,60.0240096,,,,,,,,9,Ontime,f,1,2.041,2,2,10,0,1,,,,,
0.41,,,,,,,,,h.PNG,h,5dd2e29b2c5c102e6454227a,2021-09-08_13h56.06.896,forced_choiceRT,2021.1.2,Win32,60.0240096,,,,,,,,9,Ontime,h,1,1.923,2,3,11,2,1,,,,,
1.56,,,,,,,,,f.PNG,f,5dd2e29b2c5c102e6454227a,2021-09-08_13h56.06.896,forced_choiceRT,2021.1.2,Win32,60.0240096,,,,,,,,9,Fast,g,0,1.87,3,0,12,0,1,,,,,
1.05,,,,,,,,,f.PNG,f,5dd2e29b2c5c102e6454227a,2021-09-08_13h56.06.896,forced_choiceRT,2021.1.2,Win32,60.0240096,,,,,,,,9,Ontime,f,1,1.934,3,1,13,0,1,,,,,
0.04,,,,,,,,,h.PNG,h,5dd2e29b2c5c102e6454227a,2021-09-08_13h56.06.896,forced_choiceRT,2021.1.2,Win32,60.0240096,,,,,,,,9,Ontime,h,1,2.085,3,2,14,2,1,,,,,
1.57,,,,,,,,,h.PNG,h,5dd2e29b2c5c102e6454227a,2021-09-08_13h56.06.896,forced_choiceRT,2021.1.2,Win32,60.0240096,,,,,,,,9,Slow,h,1,2.135,3,3,15,2,1,,,,,
1.73,,,,,,,,,g.PNG,g,5dd2e29b2c5c102e6454227a,2021-09-08_13h56.06.896,forced_choiceRT,2021.1.2,Win32,60.0240096,,,,,,,,9,Slow,g,1,2.185,4,0,16,1,1,,,,,
1.77,,,,,,,,,f.PNG,f,5dd2e29b2c5c102e6454227a,2021-09-08_13h56.06.896,forced_choiceRT,2021.1.2,Win32,60.0240096,,,,,,,,9,Ontime,h,0,2.056,4,1,17,0,1,,,,,
1.26,,,,,,,,,h.PNG,h,5dd2e29b2c5c102e6454227a,2021-09-08_13h56.06.896,forced_choiceRT,2021.1.2,Win32,60.0240096,,,,,,,,9,Ontime,h,1,1.923,4,2,18,2,1,,,,,
1.91,,,,,,,,,f.PNG,f,5dd2e29b2c5c102e6454227a,2021-09-08_13h56.06.896,forced_choiceRT,2021.1.2,Win32,60.0240096,,,,,,,,9,Ontime,f,1,1.952,4,3,19,0,1,,,,,
0.62,,,,,,,,,g.PNG,g,5dd2e29b2c5c102e6454227a,2021-09-08_13h56.06.896,forced_choiceRT,2021.1.2,Win32,60.0240096,,,,,,,,9,Ontime,g,1,2.052,5,0,20,1,1,,,,,
1.35,,,,,,,,,f.PNG,f,5dd2e29b2c5c102e6454227a,2021-09-08_13h56.06.896,forced_choiceRT,2021.1.2,Win32,60.0240096,,,,,,,,9,Ontime,f,1,1.985,5,1,21,0,1,,,,,
1.96,,,,,,,,,j.PNG,j,5dd2e29b2c5c102e6454227a,2021-09-08_13h56.06.896,forced_choiceRT,2021.1.2,Win32,60.0240096,,,,,,,,9,Ontime,h,0,1.976,5,2,22,3,1,,,,,
0.07,,,,,,,,,j.PNG,j,5dd2e29b2c5c102e6454227a,2021-09-08_13h56.06.896,forced_choiceRT,2021.1.2,Win32,60.0240096,,,,,,,,9,Ontime,j,1,1.967,5,3,23,3,1,,,,,
0.19,,,,,,,,,j.PNG,j,5dd2e29b2c5c102e6454227a,2021-09-08_13h56.06.896,forced_choiceRT,2021.1.2,Win32,60.0240096,,,,,,,,9,Ontime,j,1,2.084,6,0,24,3,1,,,,,
0.9,,,,,,,,,j.PNG,j,5dd2e29b2c5c102e6454227a,2021-09-08_13h56.06.896,forced_choiceRT,2021.1.2,Win32,60.0240096,,,,,,,,9,Ontime,j,1,2.007,6,1,25,3,1,,,,,
0.45,,,,,,,,,j.PNG,j,5dd2e29b2c5c102e6454227a,2021-09-08_13h56.06.896,forced_choiceRT,2021.1.2,Win32,60.0240096,,,,,,,,9,Ontime,j,1,2.034,6,2,26,3,1,,,,,
1.3,,,,,,,,,h.PNG,h,5dd2e29b2c5c102e6454227a,2021-09-08_13h56.06.896,forced_choiceRT,2021.1.2,Win32,60.0240096,,,,,,,,9,Ontime,h,1,2.022,6,3,27,2,1,,,,,
1.93,,,,,,,,,g.PNG,g,5dd2e29b2c5c102e6454227a,2021-09-08_13h56.06.896,forced_choiceRT,2021.1.2,Win32,60.0240096,,,,,,,,9,Slow,g,1,2.635,7,0,28,1,1,,,,,
1.58,,,,,,,,,f.PNG,f,5dd2e29b2c5c102e6454227a,2021-09-08_13h56.06.896,forced_choiceRT,2021.1.2,Win32,60.0240096,,,,,,,,9,Slow,f,1,2.11,7,1,29,0,1,,,,,
0.16,,,,,,,,,j.PNG,j,5dd2e29b2c5c102e6454227a,2021-09-08_13h56.06.896,forced_choiceRT,2021.1.2,Win32,60.0240096,,,,,,,,9,Ontime,j,1,1.927,7,2,30,3,1,,,,,
1.9,,,,,,,,,f.PNG,f,5dd2e29b2c5c102e6454227a,2021-09-08_13h56.06.896,forced_choiceRT,2021.1.2,Win32,60.0240096,,,,,,,,9,Ontime,j,0,2.045,7,3,31,0,1,,,,,
0.27,,,,,,,,,g.PNG,g,5dd2e29b2c5c102e6454227a,2021-09-08_13h56.06.896,forced_choiceRT,2021.1.2,Win32,60.0240096,,,,,,,,9,Ontime,g,1,1.934,8,0,32,1,1,,,,,
0.68,,,,,,,,,h.PNG,h,5dd2e29b2c5c102e6454227a,2021-09-08_13h56.06.896,forced_choiceRT,2021.1.2,Win32,60.0240096,,,,,,,,9,Fast,h,1,1.844,8,1,33,2,1,,,,,
1.39,,,,,,,,,g.PNG,g,5dd2e29b2c5c102e6454227a,2021-09-08_13h56.06.896,forced_choiceRT,2021.1.2,Win32,60.0240096,,,,,,,,9,Ontime,g,1,1.954,8,2,34,1,1,,,,,
0.23,,,,,,,,,f.PNG,f,5dd2e29b2c5c102e6454227a,2021-09-08_13h56.06.896,forced_choiceRT,2021.1.2,Win32,60.0240096,,,,,,,,9,Fast,f,1,1.875,8,3,35,0,1,,,,,
0.77,,,,,,,,,j.PNG,j,5dd2e29b2c5c102e6454227a,2021-09-08_13h56.06.896,forced_choiceRT,2021.1.2,Win32,60.0240096,,,,,,,,9,Ontime,j,1,2.057,9,0,36,3,1,,,,,
0.4,,,,,,,,,h.PNG,h,5dd2e29b2c5c102e6454227a,2021-09-08_13h56.06.896,forced_choiceRT,2021.1.2,Win32,60.0240096,,,,,,,,9,Fast,h,1,1.888,9,1,37,2,1,,,,,
0.8,,,,,,,,,g.PNG,g,5dd2e29b2c5c102e6454227a,2021-09-08_13h56.06.896,forced_choiceRT,2021.1.2,Win32,60.0240096,,,,,,,,9,Ontime,g,1,2.018,9,2,38,1,1,,,,,
0.92,,,,,,,,,h.PNG,h,5dd2e29b2c5c102e6454227a,2021-09-08_13h56.06.896,forced_choiceRT,2021.1.2,Win32,60.0240096,,,,,,,,9,Ontime,h,1,2.076,9,3,39,2,1,,,,,
,,,,,,,,,,,5dd2e29b2c5c102e6454227a,2021-09-08_13h56.06.896,forced_choiceRT,2021.1.2,Win32,60.0240096,,,,,,,,,,,,,,,,,,8,0,8,0,1
1.81,,,,,,,,,g.PNG,g,5dd2e29b2c5c102e6454227a,2021-09-08_13h56.06.896,forced_choiceRT,2021.1.2,Win32,60.0240096,,,,,,,,10,Fast,j,0,1.747,0,0,0,1,1,,,,,
0.02,,,,,,,,,f.PNG,f,5dd2e29b2c5c102e6454227a,2021-09-08_13h56.06.896,forced_choiceRT,2021.1.2,Win32,60.0240096,,,,,,,,10,Ontime,f,1,2.002,0,1,1,0,1,,,,,
1.83,,,,,,,,,j.PNG,j,5dd2e29b2c5c102e6454227a,2021-09-08_13h56.06.896,forced_choiceRT,2021.1.2,Win32,60.0240096,,,,,,,,10,Ontime,j,1,2.051,0,2,2,3,1,,,,,
0.18,,,,,,,,,f.PNG,f,5dd2e29b2c5c102e6454227a,2021-09-08_13h56.06.896,forced_choiceRT,2021.1.2,Win32,60.0240096,,,,,,,,10,Ontime,f,1,2.026,0,3,3,0,1,,,,,
0.54,,,,,,,,,h.PNG,h,5dd2e29b2c5c102e6454227a,2021-09-08_13h56.06.896,forced_choiceRT,2021.1.2,Win32,60.0240096,,,,,,,,10,Ontime,h,1,2.068,1,0,4,2,1,,,,,
1.46,,,,,,,,,j.PNG,j,5dd2e29b2c5c102e6454227a,2021-09-08_13h56.06.896,forced_choiceRT,2021.1.2,Win32,60.0240096,,,,,,,,10,Slow,j,1,2.105,1,1,5,3,1,,,,,
1.17,,,,,,,,,g.PNG,g,5dd2e29b2c5c102e6454227a,2021-09-08_13h56.06.896,forced_choiceRT,2021.1.2,Win32,60.0240096,,,,,,,,10,Ontime,g,1,1.96,1,2,6,1,1,,,,,
1.89,,,,,,,,,h.PNG,h,5dd2e29b2c5c102e6454227a,2021-09-08_13h56.06.896,forced_choiceRT,2021.1.2,Win32,60.0240096,,,,,,,,10,Slow,j,0,2.101,1,3,7,2,1,,,,,
0.15,,,,,,,,,g.PNG,g,5dd2e29b2c5c102e6454227a,2021-09-08_13h56.06.896,forced_choiceRT,2021.1.2,Win32,60.0240096,,,,,,,,10,Slow,g,1,2.151,2,0,8,1,1,,,,,
0.1,,,,,,,,,g.PNG,g,5dd2e29b2c5c102e6454227a,2021-09-08_13h56.06.896,forced_choiceRT,2021.1.2,Win32,60.0240096,,,,,,,,10,Ontime,g,1,2.05,2,1,9,1,1,,,,,
1.11,,,,,,,,,g.PNG,g,5dd2e29b2c5c102e6454227a,2021-09-08_13h56.06.896,forced_choiceRT,2021.1.2,Win32,60.0240096,,,,,,,,10,Ontime,g,1,1.989,2,2,10,1,1,,,,,
0.57,,,,,,,,,j.PNG,j,5dd2e29b2c5c102e6454227a,2021-09-08_13h56.06.896,forced_choiceRT,2021.1.2,Win32,60.0240096,,,,,,,,10,Ontime,j,1,2.09,2,3,11,3,1,,,,,
1.11,,,,,,,,,h.PNG,h,5dd2e29b2c5c102e6454227a,2021-09-08_13h56.06.896,forced_choiceRT,2021.1.2,Win32,60.0240096,,,,,,,,10,Ontime,h,1,2.035,3,0,12,2,1,,,,,
1.28,,,,,,,,,g.PNG,g,5dd2e29b2c5c102e6454227a,2021-09-08_13h56.06.896,forced_choiceRT,2021.1.2,Win32,60.0240096,,,,,,,,10,Fast,g,1,1.884,3,1,13,1,1,,,,,
0.47,,,,,,,,,h.PNG,h,5dd2e29b2c5c102e6454227a,2021-09-08_13h56.06.896,forced_choiceRT,2021.1.2,Win32,60.0240096,,,,,,,,10,Ontime,h,1,2.034,3,2,14,2,1,,,,,
0.29,,,,,,,,,h.PNG,h,5dd2e29b2c5c102e6454227a,2021-09-08_13h56.06.896,forced_choiceRT,2021.1.2,Win32,60.0240096,,,,,,,,10,Ontime,h,1,2.093,3,3,15,2,1,,,,,
0.91,,,,,,,,,f.PNG,f,5dd2e29b2c5c102e6454227a,2021-09-08_13h56.06.896,forced_choiceRT,2021.1.2,Win32,60.0240096,,,,,,,,10,Ontime,f,1,2.021,4,0,16,0,1,,,,,
1.77,,,,,,,,,f.PNG,f,5dd2e29b2c5c102e6454227a,2021-09-08_13h56.06.896,forced_choiceRT,2021.1.2,Win32,60.0240096,,,,,,,,10,Ontime,g,0,2.058,4,1,17,0,1,,,,,
0.92,,,,,,,,,j.PNG,j,5dd2e29b2c5c102e6454227a,2021-09-08_13h56.06.896,forced_choiceRT,2021.1.2,Win32,60.0240096,,,,,,,,10,Ontime,j,1,1.901,4,2,18,3,1,,,,,
1.29,,,,,,,,,f.PNG,f,5dd2e29b2c5c102e6454227a,2021-09-08_13h56.06.896,forced_choiceRT,2021.1.2,Win32,60.0240096,,,,,,,,10,Slow,f,1,2.101,4,3,19,0,1,,,,,
1.79,,,,,,,,,f.PNG,f,5dd2e29b2c5c102e6454227a,2021-09-08_13h56.06.896,forced_choiceRT,2021.1.2,Win32,60.0240096,,,,,,,,10,Ontime,f,1,2.023,5,0,20,0,1,,,,,
0.32,,,,,,,,,j.PNG,j,5dd2e29b2c5c102e6454227a,2021-09-08_13h56.06.896,forced_choiceRT,2021.1.2,Win32,60.0240096,,,,,,,,10,Ontime,j,1,1.973,5,1,21,3,1,,,,,
1.88,,,,,,,,,j.PNG,j,5dd2e29b2c5c102e6454227a,2021-09-08_13h56.06.896,forced_choiceRT,2021.1.2,Win32,60.0240096,,,,,,,,10,Ontime,f,0,2.041,5,2,22,3,1,,,,,
0.87,,,,,,,,,f.PNG,f,5dd2e29b2c5c102e6454227a,2021-09-08_13h56.06.896,forced_choiceRT,2021.1.2,Win32,60.0240096,,,,,,,,10,Ontime,f,1,2.01,5,3,23,0,1,,,,,
1.33,,,,,,,,,g.PNG,g,5dd2e29b2c5c102e6454227a,2021-09-08_13h56.06.896,forced_choiceRT,2021.1.2,Win32,60.0240096,,,,,,,,10,Ontime,g,1,2.008,6,0,24,1,1,,,,,
1.99,,,,,,,,,j.PNG,j,5dd2e29b2c5c102e6454227a,2021-09-08_13h56.06.896,forced_choiceRT,2021.1.2,Win32,60.0240096,,,,,,,,10,Ontime,j,1,2.025,6,1,25,3,1,,,,,
0.98,,,,,,,,,f.PNG,f,5dd2e29b2c5c102e6454227a,2021-09-08_13h56.06.896,forced_choiceRT,2021.1.2,Win32,60.0240096,,,,,,,,10,Ontime,f,1,1.961,6,2,26,0,1,,,,,
0.18,,,,,,,,,j.PNG,j,5dd2e29b2c5c102e6454227a,2021-09-08_13h56.06.896,forced_choiceRT,2021.1.2,Win32,60.0240096,,,,,,,,10,Ontime,j,1,1.968,6,3,27,3,1,,,,,
1.21,,,,,,,,,j.PNG,j,5dd2e29b2c5c102e6454227a,2021-09-08_13h56.06.896,forced_choiceRT,2021.1.2,Win32,60.0240096,,,,,,,,10,Fast,j,1,1.884,7,0,28,3,1,,,,,
1.75,,,,,,,,,f.PNG,f,5dd2e29b2c5c102e6454227a,2021-09-08_13h56.06.896,forced_choiceRT,2021.1.2,Win32,60.0240096,,,,,,,,10,Slow,f,1,2.154,7,1,29,0,1,,,,,
0.34,,,,,,,,,h.PNG,h,5dd2e29b2c5c102e6454227a,2021-09-08_13h56.06.896,forced_choiceRT,2021.1.2,Win32,60.0240096,,,,,,,,10,Fast,h,1,1.879,7,2,30,2,1,,,,,
0.05,,,,,,,,,j.PNG,j,5dd2e29b2c5c102e6454227a,2021-09-08_13h56.06.896,forced_choiceRT,2021.1.2,Win32,60.0240096,,,,,,,,10,Ontime,j,1,1.951,7,3,31,3,1,,,,,
1.51,,,,,,,,,h.PNG,h,5dd2e29b2c5c102e6454227a,2021-09-08_13h56.06.896,forced_choiceRT,2021.1.2,Win32,60.0240096,,,,,,,,10,Ontime,j,0,1.968,8,0,32,2,1,,,,,
1.85,,,,,,,,,g.PNG,g,5dd2e29b2c5c102e6454227a,2021-09-08_13h56.06.896,forced_choiceRT,2021.1.2,Win32,60.0240096,,,,,,,,10,Slow,g,1,2.451,8,1,33,1,1,,,,,
1.08,,,,,,,,,f.PNG,f,5dd2e29b2c5c102e6454227a,2021-09-08_13h56.06.896,forced_choiceRT,2021.1.2,Win32,60.0240096,,,,,,,,10,Ontime,f,1,1.942,8,2,34,0,1,,,,,
0.46,,,,,,,,,h.PNG,h,5dd2e29b2c5c102e6454227a,2021-09-08_13h56.06.896,forced_choiceRT,2021.1.2,Win32,60.0240096,,,,,,,,10,Ontime,h,1,2.057,8,3,35,2,1,,,,,
0.81,,,,,,,,,g.PNG,g,5dd2e29b2c5c102e6454227a,2021-09-08_13h56.06.896,forced_choiceRT,2021.1.2,Win32,60.0240096,,,,,,,,10,Ontime,g,1,2.052,9,0,36,1,1,,,,,
1.8,,,,,,,,,h.PNG,h,5dd2e29b2c5c102e6454227a,2021-09-08_13h56.06.896,forced_choiceRT,2021.1.2,Win32,60.0240096,,,,,,,,10,Ontime,j,0,1.959,9,1,37,2,1,,,,,
1.34,,,,,,,,,g.PNG,g,5dd2e29b2c5c102e6454227a,2021-09-08_13h56.06.896,forced_choiceRT,2021.1.2,Win32,60.0240096,,,,,,,,10,Ontime,g,1,1.907,9,2,38,1,1,,,,,
0.82,,,,,,,,,h.PNG,h,5dd2e29b2c5c102e6454227a,2021-09-08_13h56.06.896,forced_choiceRT,2021.1.2,Win32,60.0240096,,,,,,,,10,Ontime,h,1,2.091,9,3,39,2,1,,,,,
,,,,,,,,,,,5dd2e29b2c5c102e6454227a,2021-09-08_13h56.06.896,forced_choiceRT,2021.1.2,Win32,60.0240096,,,,,,,,,,,,,,,,,,9,0,9,0,1
