IP_Addresss,target_onset,trial_resp_sp.keys,trial_resp_sp.corr,trial_resp_sp.rt,trials_train_loop.thisRepN,trials_train_loop.thisTrialN,trials_train_loop.thisN,trials_train_loop.thisIndex,trials_train_loop.ran,pic,correct_key,participant,date,expName,psychopyVersion,OS,frameRate,trial_resp_timing.keys,trial_resp_timing.rt,trials_train_timing.thisRepN,trials_train_timing.thisTrialN,trials_train_timing.thisN,trials_train_timing.thisIndex,trials_train_timing.ran,block_id,ontime,forcedRT_resp.keys,forcedRT_resp.corr,forcedRT_resp.rt,trials.thisRepN,trials.thisTrialN,trials.thisN,trials.thisIndex,trials.ran,blocks.thisRepN,blocks.thisTrialN,blocks.thisN,blocks.thisIndex,blocks.ran
172.4.218.199,0,g,1,1.1525,0,0,0,1,1,g.PNG,g,5e53eb33ef87a902f39b1b77,2021-09-08_16h13.46.560,forced_choiceRT,2021.1.2,Win32,60.13590715,,,,,,,,,,,,,,,,,,,,,,
,0,j,1,0.9715,0,1,1,3,1,j.PNG,j,5e53eb33ef87a902f39b1b77,2021-09-08_16h13.46.560,forced_choiceRT,2021.1.2,Win32,60.13590715,,,,,,,,,,,,,,,,,,,,,,
,0,g,1,0.8487,0,2,2,1,1,g.PNG,g,5e53eb33ef87a902f39b1b77,2021-09-08_16h13.46.560,forced_choiceRT,2021.1.2,Win32,60.13590715,,,,,,,,,,,,,,,,,,,,,,
,0,j,1,0.5235,0,3,3,3,1,j.PNG,j,5e53eb33ef87a902f39b1b77,2021-09-08_16h13.46.560,forced_choiceRT,2021.1.2,Win32,60.13590715,,,,,,,,,,,,,,,,,,,,,,
,0,j,1,1.3209,1,0,4,3,1,j.PNG,j,5e53eb33ef87a902f39b1b77,2021-09-08_16h13.46.560,forced_choiceRT,2021.1.2,Win32,60.13590715,,,,,,,,,,,,,,,,,,,,,,
,0,h,1,1.372,1,1,5,2,1,h.PNG,h,5e53eb33ef87a902f39b1b77,2021-09-08_16h13.46.560,forced_choiceRT,2021.1.2,Win32,60.13590715,,,,,,,,,,,,,,,,,,,,,,
,0,h,1,1.3,1,2,6,2,1,h.PNG,h,5e53eb33ef87a902f39b1b77,2021-09-08_16h13.46.560,forced_choiceRT,2021.1.2,Win32,60.13590715,,,,,,,,,,,,,,,,,,,,,,
,0,h,1,0.5822,1,3,7,2,1,h.PNG,h,5e53eb33ef87a902f39b1b77,2021-09-08_16h13.46.560,forced_choiceRT,2021.1.2,Win32,60.13590715,,,,,,,,,,,,,,,,,,,,,,
,0,g,1,0.9673,2,0,8,1,1,g.PNG,g,5e53eb33ef87a902f39b1b77,2021-09-08_16h13.46.560,forced_choiceRT,2021.1.2,Win32,60.13590715,,,,,,,,,,,,,,,,,,,,,,
,0,g,1,0.741,2,1,9,1,1,g.PNG,g,5e53eb33ef87a902f39b1b77,2021-09-08_16h13.46.560,forced_choiceRT,2021.1.2,Win32,60.13590715,,,,,,,,,,,,,,,,,,,,,,
,0,j,1,0.769,2,2,10,3,1,j.PNG,j,5e53eb33ef87a902f39b1b77,2021-09-08_16h13.46.560,forced_choiceRT,2021.1.2,Win32,60.13590715,,,,,,,,,,,,,,,,,,,,,,
,0,j,1,0.7469,2,3,11,3,1,j.PNG,j,5e53eb33ef87a902f39b1b77,2021-09-08_16h13.46.560,forced_choiceRT,2021.1.2,Win32,60.13590715,,,,,,,,,,,,,,,,,,,,,,
,0,j,1,0.9421,3,0,12,3,1,j.PNG,j,5e53eb33ef87a902f39b1b77,2021-09-08_16h13.46.560,forced_choiceRT,2021.1.2,Win32,60.13590715,,,,,,,,,,,,,,,,,,,,,,
,0,f,1,1.0419,3,1,13,0,1,f.PNG,f,5e53eb33ef87a902f39b1b77,2021-09-08_16h13.46.560,forced_choiceRT,2021.1.2,Win32,60.13590715,,,,,,,,,,,,,,,,,,,,,,
,0,h,1,1.2995,3,2,14,2,1,h.PNG,h,5e53eb33ef87a902f39b1b77,2021-09-08_16h13.46.560,forced_choiceRT,2021.1.2,Win32,60.13590715,,,,,,,,,,,,,,,,,,,,,,
,0,g,1,0.9495,3,3,15,1,1,g.PNG,g,5e53eb33ef87a902f39b1b77,2021-09-08_16h13.46.560,forced_choiceRT,2021.1.2,Win32,60.13590715,,,,,,,,,,,,,,,,,,,,,,
,0,f,1,0.8343,4,0,16,0,1,f.PNG,f,5e53eb33ef87a902f39b1b77,2021-09-08_16h13.46.560,forced_choiceRT,2021.1.2,Win32,60.13590715,,,,,,,,,,,,,,,,,,,,,,
,0,h,1,1.2703,4,1,17,2,1,h.PNG,h,5e53eb33ef87a902f39b1b77,2021-09-08_16h13.46.560,forced_choiceRT,2021.1.2,Win32,60.13590715,,,,,,,,,,,,,,,,,,,,,,
,0,f,1,0.7989,4,2,18,0,1,f.PNG,f,5e53eb33ef87a902f39b1b77,2021-09-08_16h13.46.560,forced_choiceRT,2021.1.2,Win32,60.13590715,,,,,,,,,,,,,,,,,,,,,,
,0,g,1,0.8182,4,3,19,1,1,g.PNG,g,5e53eb33ef87a902f39b1b77,2021-09-08_16h13.46.560,forced_choiceRT,2021.1.2,Win32,60.13590715,,,,,,,,,,,,,,,,,,,,,,
,0,f,1,1.0158,5,0,20,0,1,f.PNG,f,5e53eb33ef87a902f39b1b77,2021-09-08_16h13.46.560,forced_choiceRT,2021.1.2,Win32,60.13590715,,,,,,,,,,,,,,,,,,,,,,
,0,f,1,0.5667,5,1,21,0,1,f.PNG,f,5e53eb33ef87a902f39b1b77,2021-09-08_16h13.46.560,forced_choiceRT,2021.1.2,Win32,60.13590715,,,,,,,,,,,,,,,,,,,,,,
,0,h,1,0.7367,5,2,22,2,1,h.PNG,h,5e53eb33ef87a902f39b1b77,2021-09-08_16h13.46.560,forced_choiceRT,2021.1.2,Win32,60.13590715,,,,,,,,,,,,,,,,,,,,,,
,0,h,1,0.5986,5,3,23,2,1,h.PNG,h,5e53eb33ef87a902f39b1b77,2021-09-08_16h13.46.560,forced_choiceRT,2021.1.2,Win32,60.13590715,,,,,,,,,,,,,,,,,,,,,,
,0,h,1,0.5482,6,0,24,2,1,h.PNG,h,5e53eb33ef87a902f39b1b77,2021-09-08_16h13.46.560,forced_choiceRT,2021.1.2,Win32,60.13590715,,,,,,,,,,,,,,,,,,,,,,
,0,j,1,0.5993,6,1,25,3,1,j.PNG,j,5e53eb33ef87a902f39b1b77,2021-09-08_16h13.46.560,forced_choiceRT,2021.1.2,Win32,60.13590715,,,,,,,,,,,,,,,,,,,,,,
,0,j,0,0.5041,6,2,26,1,1,g.PNG,g,5e53eb33ef87a902f39b1b77,2021-09-08_16h13.46.560,forced_choiceRT,2021.1.2,Win32,60.13590715,,,,,,,,,,,,,,,,,,,,,,
,0,j,1,1.1551,6,3,27,3,1,j.PNG,j,5e53eb33ef87a902f39b1b77,2021-09-08_16h13.46.560,forced_choiceRT,2021.1.2,Win32,60.13590715,,,,,,,,,,,,,,,,,,,,,,
,0,h,1,0.8344,7,0,28,2,1,h.PNG,h,5e53eb33ef87a902f39b1b77,2021-09-08_16h13.46.560,forced_choiceRT,2021.1.2,Win32,60.13590715,,,,,,,,,,,,,,,,,,,,,,
,0,f,1,0.7542,7,1,29,0,1,f.PNG,f,5e53eb33ef87a902f39b1b77,2021-09-08_16h13.46.560,forced_choiceRT,2021.1.2,Win32,60.13590715,,,,,,,,,,,,,,,,,,,,,,
,0,f,1,0.6828,7,2,30,0,1,f.PNG,f,5e53eb33ef87a902f39b1b77,2021-09-08_16h13.46.560,forced_choiceRT,2021.1.2,Win32,60.13590715,,,,,,,,,,,,,,,,,,,,,,
,0,h,1,0.7814,7,3,31,2,1,h.PNG,h,5e53eb33ef87a902f39b1b77,2021-09-08_16h13.46.560,forced_choiceRT,2021.1.2,Win32,60.13590715,,,,,,,,,,,,,,,,,,,,,,
,0,j,1,0.8068,8,0,32,3,1,j.PNG,j,5e53eb33ef87a902f39b1b77,2021-09-08_16h13.46.560,forced_choiceRT,2021.1.2,Win32,60.13590715,,,,,,,,,,,,,,,,,,,,,,
,0,g,1,0.4536,8,1,33,1,1,g.PNG,g,5e53eb33ef87a902f39b1b77,2021-09-08_16h13.46.560,forced_choiceRT,2021.1.2,Win32,60.13590715,,,,,,,,,,,,,,,,,,,,,,
,0,g,1,0.6128,8,2,34,1,1,g.PNG,g,5e53eb33ef87a902f39b1b77,2021-09-08_16h13.46.560,forced_choiceRT,2021.1.2,Win32,60.13590715,,,,,,,,,,,,,,,,,,,,,,
,0,g,1,0.968,8,3,35,1,1,g.PNG,g,5e53eb33ef87a902f39b1b77,2021-09-08_16h13.46.560,forced_choiceRT,2021.1.2,Win32,60.13590715,,,,,,,,,,,,,,,,,,,,,,
,0,f,1,0.8848,9,0,36,0,1,f.PNG,f,5e53eb33ef87a902f39b1b77,2021-09-08_16h13.46.560,forced_choiceRT,2021.1.2,Win32,60.13590715,,,,,,,,,,,,,,,,,,,,,,
,0,f,1,0.5074,9,1,37,0,1,f.PNG,f,5e53eb33ef87a902f39b1b77,2021-09-08_16h13.46.560,forced_choiceRT,2021.1.2,Win32,60.13590715,,,,,,,,,,,,,,,,,,,,,,
,0,h,1,0.7583,9,2,38,2,1,h.PNG,h,5e53eb33ef87a902f39b1b77,2021-09-08_16h13.46.560,forced_choiceRT,2021.1.2,Win32,60.13590715,,,,,,,,,,,,,,,,,,,,,,
,0,h,1,0.4606,9,3,39,2,1,h.PNG,h,5e53eb33ef87a902f39b1b77,2021-09-08_16h13.46.560,forced_choiceRT,2021.1.2,Win32,60.13590715,,,,,,,,,,,,,,,,,,,,,,
,0,h,1,0.5675,10,0,40,2,1,h.PNG,h,5e53eb33ef87a902f39b1b77,2021-09-08_16h13.46.560,forced_choiceRT,2021.1.2,Win32,60.13590715,,,,,,,,,,,,,,,,,,,,,,
,0,f,1,0.7322,10,1,41,0,1,f.PNG,f,5e53eb33ef87a902f39b1b77,2021-09-08_16h13.46.560,forced_choiceRT,2021.1.2,Win32,60.13590715,,,,,,,,,,,,,,,,,,,,,,
,0,f,1,0.4666,10,2,42,0,1,f.PNG,f,5e53eb33ef87a902f39b1b77,2021-09-08_16h13.46.560,forced_choiceRT,2021.1.2,Win32,60.13590715,,,,,,,,,,,,,,,,,,,,,,
,0,j,1,0.7246,10,3,43,3,1,j.PNG,j,5e53eb33ef87a902f39b1b77,2021-09-08_16h13.46.560,forced_choiceRT,2021.1.2,Win32,60.13590715,,,,,,,,,,,,,,,,,,,,,,
,0,j,1,0.5677,11,0,44,3,1,j.PNG,j,5e53eb33ef87a902f39b1b77,2021-09-08_16h13.46.560,forced_choiceRT,2021.1.2,Win32,60.13590715,,,,,,,,,,,,,,,,,,,,,,
,0,j,1,0.4726,11,1,45,3,1,j.PNG,j,5e53eb33ef87a902f39b1b77,2021-09-08_16h13.46.560,forced_choiceRT,2021.1.2,Win32,60.13590715,,,,,,,,,,,,,,,,,,,,,,
,0,f,1,0.6022,11,2,46,0,1,f.PNG,f,5e53eb33ef87a902f39b1b77,2021-09-08_16h13.46.560,forced_choiceRT,2021.1.2,Win32,60.13590715,,,,,,,,,,,,,,,,,,,,,,
,0,h,1,0.9847,11,3,47,2,1,h.PNG,h,5e53eb33ef87a902f39b1b77,2021-09-08_16h13.46.560,forced_choiceRT,2021.1.2,Win32,60.13590715,,,,,,,,,,,,,,,,,,,,,,
,0,g,1,1.032,12,0,48,1,1,g.PNG,g,5e53eb33ef87a902f39b1b77,2021-09-08_16h13.46.560,forced_choiceRT,2021.1.2,Win32,60.13590715,,,,,,,,,,,,,,,,,,,,,,
,0,f,1,0.627,12,1,49,0,1,f.PNG,f,5e53eb33ef87a902f39b1b77,2021-09-08_16h13.46.560,forced_choiceRT,2021.1.2,Win32,60.13590715,,,,,,,,,,,,,,,,,,,,,,
,0,g,1,0.6935,12,2,50,1,1,g.PNG,g,5e53eb33ef87a902f39b1b77,2021-09-08_16h13.46.560,forced_choiceRT,2021.1.2,Win32,60.13590715,,,,,,,,,,,,,,,,,,,,,,
,0,g,1,0.9781,12,3,51,1,1,g.PNG,g,5e53eb33ef87a902f39b1b77,2021-09-08_16h13.46.560,forced_choiceRT,2021.1.2,Win32,60.13590715,,,,,,,,,,,,,,,,,,,,,,
,0,f,1,0.6328,13,0,52,0,1,f.PNG,f,5e53eb33ef87a902f39b1b77,2021-09-08_16h13.46.560,forced_choiceRT,2021.1.2,Win32,60.13590715,,,,,,,,,,,,,,,,,,,,,,
,0,j,1,0.6488,13,1,53,3,1,j.PNG,j,5e53eb33ef87a902f39b1b77,2021-09-08_16h13.46.560,forced_choiceRT,2021.1.2,Win32,60.13590715,,,,,,,,,,,,,,,,,,,,,,
,0,h,1,0.6226,13,2,54,2,1,h.PNG,h,5e53eb33ef87a902f39b1b77,2021-09-08_16h13.46.560,forced_choiceRT,2021.1.2,Win32,60.13590715,,,,,,,,,,,,,,,,,,,,,,
,0,g,1,0.782,13,3,55,1,1,g.PNG,g,5e53eb33ef87a902f39b1b77,2021-09-08_16h13.46.560,forced_choiceRT,2021.1.2,Win32,60.13590715,,,,,,,,,,,,,,,,,,,,,,
,0,j,1,0.6405,14,0,56,3,1,j.PNG,j,5e53eb33ef87a902f39b1b77,2021-09-08_16h13.46.560,forced_choiceRT,2021.1.2,Win32,60.13590715,,,,,,,,,,,,,,,,,,,,,,
,0,j,1,0.5506,14,1,57,3,1,j.PNG,j,5e53eb33ef87a902f39b1b77,2021-09-08_16h13.46.560,forced_choiceRT,2021.1.2,Win32,60.13590715,,,,,,,,,,,,,,,,,,,,,,
,0,f,1,0.6368,14,2,58,0,1,f.PNG,f,5e53eb33ef87a902f39b1b77,2021-09-08_16h13.46.560,forced_choiceRT,2021.1.2,Win32,60.13590715,,,,,,,,,,,,,,,,,,,,,,
,0,g,1,0.5896,14,3,59,1,1,g.PNG,g,5e53eb33ef87a902f39b1b77,2021-09-08_16h13.46.560,forced_choiceRT,2021.1.2,Win32,60.13590715,,,,,,,,,,,,,,,,,,,,,,
,,,,,,,,,,,,5e53eb33ef87a902f39b1b77,2021-09-08_16h13.46.560,forced_choiceRT,2021.1.2,Win32,60.13590715,f,2.2688,0,0,0,0,1,,,,,,,,,,,,,,,
,,,,,,,,,,,,5e53eb33ef87a902f39b1b77,2021-09-08_16h13.46.560,forced_choiceRT,2021.1.2,Win32,60.13590715,f,5.2564,1,0,1,0,1,,,,,,,,,,,,,,,
,,,,,,,,,,,,5e53eb33ef87a902f39b1b77,2021-09-08_16h13.46.560,forced_choiceRT,2021.1.2,Win32,60.13590715,f,2.0937,2,0,2,0,1,,,,,,,,,,,,,,,
,,,,,,,,,,,,5e53eb33ef87a902f39b1b77,2021-09-08_16h13.46.560,forced_choiceRT,2021.1.2,Win32,60.13590715,g,2.0167,3,0,3,0,1,,,,,,,,,,,,,,,
,,,,,,,,,,,,5e53eb33ef87a902f39b1b77,2021-09-08_16h13.46.560,forced_choiceRT,2021.1.2,Win32,60.13590715,h,2.1024,4,0,4,0,1,,,,,,,,,,,,,,,
,,,,,,,,,,,,5e53eb33ef87a902f39b1b77,2021-09-08_16h13.46.560,forced_choiceRT,2021.1.2,Win32,60.13590715,j,2.025,5,0,5,0,1,,,,,,,,,,,,,,,
,,,,,,,,,,,,5e53eb33ef87a902f39b1b77,2021-09-08_16h13.46.560,forced_choiceRT,2021.1.2,Win32,60.13590715,h,2.0001,6,0,6,0,1,,,,,,,,,,,,,,,
,,,,,,,,,,,,5e53eb33ef87a902f39b1b77,2021-09-08_16h13.46.560,forced_choiceRT,2021.1.2,Win32,60.13590715,g,2.0317,7,0,7,0,1,,,,,,,,,,,,,,,
,,,,,,,,,,,,5e53eb33ef87a902f39b1b77,2021-09-08_16h13.46.560,forced_choiceRT,2021.1.2,Win32,60.13590715,h,2.0605,8,0,8,0,1,,,,,,,,,,,,,,,
,,,,,,,,,,,,5e53eb33ef87a902f39b1b77,2021-09-08_16h13.46.560,forced_choiceRT,2021.1.2,Win32,60.13590715,f,2.0514,9,0,9,0,1,,,,,,,,,,,,,,,
,,,,,,,,,,,,5e53eb33ef87a902f39b1b77,2021-09-08_16h13.46.560,forced_choiceRT,2021.1.2,Win32,60.13590715,f,2.0848,10,0,10,0,1,,,,,,,,,,,,,,,
,,,,,,,,,,,,5e53eb33ef87a902f39b1b77,2021-09-08_16h13.46.560,forced_choiceRT,2021.1.2,Win32,60.13590715,j,2.0877,11,0,11,0,1,,,,,,,,,,,,,,,
,,,,,,,,,,,,5e53eb33ef87a902f39b1b77,2021-09-08_16h13.46.560,forced_choiceRT,2021.1.2,Win32,60.13590715,g,2.067,12,0,12,0,1,,,,,,,,,,,,,,,
,,,,,,,,,,,,5e53eb33ef87a902f39b1b77,2021-09-08_16h13.46.560,forced_choiceRT,2021.1.2,Win32,60.13590715,j,2.084,13,0,13,0,1,,,,,,,,,,,,,,,
,,,,,,,,,,,,5e53eb33ef87a902f39b1b77,2021-09-08_16h13.46.560,forced_choiceRT,2021.1.2,Win32,60.13590715,h,2.0476,14,0,14,0,1,,,,,,,,,,,,,,,
,,,,,,,,,,,,5e53eb33ef87a902f39b1b77,2021-09-08_16h13.46.560,forced_choiceRT,2021.1.2,Win32,60.13590715,g,2.035,15,0,15,0,1,,,,,,,,,,,,,,,
,,,,,,,,,,,,5e53eb33ef87a902f39b1b77,2021-09-08_16h13.46.560,forced_choiceRT,2021.1.2,Win32,60.13590715,g,2.0665,16,0,16,0,1,,,,,,,,,,,,,,,
,,,,,,,,,,,,5e53eb33ef87a902f39b1b77,2021-09-08_16h13.46.560,forced_choiceRT,2021.1.2,Win32,60.13590715,f,2.024,17,0,17,0,1,,,,,,,,,,,,,,,
,,,,,,,,,,,,5e53eb33ef87a902f39b1b77,2021-09-08_16h13.46.560,forced_choiceRT,2021.1.2,Win32,60.13590715,f,2.0414,18,0,18,0,1,,,,,,,,,,,,,,,
,,,,,,,,,,,,5e53eb33ef87a902f39b1b77,2021-09-08_16h13.46.560,forced_choiceRT,2021.1.2,Win32,60.13590715,f,2.1177,19,0,19,0,1,,,,,,,,,,,,,,,
,0.75,,,,,,,,,h.PNG,h,5e53eb33ef87a902f39b1b77,2021-09-08_16h13.46.560,forced_choiceRT,2021.1.2,Win32,60.13590715,,,,,,,,1,Fast,g,0,1.8083,0,0,0,2,1,,,,,
,0.18,,,,,,,,,h.PNG,h,5e53eb33ef87a902f39b1b77,2021-09-08_16h13.46.560,forced_choiceRT,2021.1.2,Win32,60.13590715,,,,,,,,1,Ontime,h,1,2.024,0,1,1,2,1,,,,,
,1.32,,,,,,,,,j.PNG,j,5e53eb33ef87a902f39b1b77,2021-09-08_16h13.46.560,forced_choiceRT,2021.1.2,Win32,60.13590715,,,,,,,,1,Ontime,j,1,2.0336,0,2,2,3,1,,,,,
,1.17,,,,,,,,,g.PNG,g,5e53eb33ef87a902f39b1b77,2021-09-08_16h13.46.560,forced_choiceRT,2021.1.2,Win32,60.13590715,,,,,,,,1,Ontime,g,1,2.0401,0,3,3,1,1,,,,,
,0.95,,,,,,,,,g.PNG,g,5e53eb33ef87a902f39b1b77,2021-09-08_16h13.46.560,forced_choiceRT,2021.1.2,Win32,60.13590715,,,,,,,,1,Ontime,f,0,2.0504,1,0,4,1,1,,,,,
,1.78,,,,,,,,,f.PNG,f,5e53eb33ef87a902f39b1b77,2021-09-08_16h13.46.560,forced_choiceRT,2021.1.2,Win32,60.13590715,,,,,,,,1,Slow,j,0,2.2822,1,1,5,0,1,,,,,
,0.6,,,,,,,,,g.PNG,g,5e53eb33ef87a902f39b1b77,2021-09-08_16h13.46.560,forced_choiceRT,2021.1.2,Win32,60.13590715,,,,,,,,1,Ontime,f,0,2.0849,1,2,6,1,1,,,,,
,0.43,,,,,,,,,f.PNG,f,5e53eb33ef87a902f39b1b77,2021-09-08_16h13.46.560,forced_choiceRT,2021.1.2,Win32,60.13590715,,,,,,,,1,Slow,f,1,3.8658,1,3,7,0,1,,,,,
,1.79,,,,,,,,,j.PNG,j,5e53eb33ef87a902f39b1b77,2021-09-08_16h13.46.560,forced_choiceRT,2021.1.2,Win32,60.13590715,,,,,,,,1,Slow,f,0,2.3162,2,0,8,3,1,,,,,
,0.58,,,,,,,,,f.PNG,f,5e53eb33ef87a902f39b1b77,2021-09-08_16h13.46.560,forced_choiceRT,2021.1.2,Win32,60.13590715,,,,,,,,1,Ontime,f,1,2.0837,2,1,9,0,1,,,,,
,1.25,,,,,,,,,j.PNG,j,5e53eb33ef87a902f39b1b77,2021-09-08_16h13.46.560,forced_choiceRT,2021.1.2,Win32,60.13590715,,,,,,,,1,Ontime,j,1,2.0672,2,2,10,3,1,,,,,
,1.42,,,,,,,,,h.PNG,h,5e53eb33ef87a902f39b1b77,2021-09-08_16h13.46.560,forced_choiceRT,2021.1.2,Win32,60.13590715,,,,,,,,1,Slow,g,0,2.1998,2,3,11,2,1,,,,,
,1.71,,,,,,,,,g.PNG,g,5e53eb33ef87a902f39b1b77,2021-09-08_16h13.46.560,forced_choiceRT,2021.1.2,Win32,60.13590715,,,,,,,,1,Slow,h,0,2.1537,3,0,12,1,1,,,,,
,1.24,,,,,,,,,h.PNG,h,5e53eb33ef87a902f39b1b77,2021-09-08_16h13.46.560,forced_choiceRT,2021.1.2,Win32,60.13590715,,,,,,,,1,Ontime,g,0,1.9334,3,1,13,2,1,,,,,
,0.01,,,,,,,,,j.PNG,j,5e53eb33ef87a902f39b1b77,2021-09-08_16h13.46.560,forced_choiceRT,2021.1.2,Win32,60.13590715,,,,,,,,1,Ontime,j,1,2.0551,3,2,14,3,1,,,,,
,1.59,,,,,,,,,g.PNG,g,5e53eb33ef87a902f39b1b77,2021-09-08_16h13.46.560,forced_choiceRT,2021.1.2,Win32,60.13590715,,,,,,,,1,Slow,g,1,2.1721,3,3,15,1,1,,,,,
,0.47,,,,,,,,,j.PNG,j,5e53eb33ef87a902f39b1b77,2021-09-08_16h13.46.560,forced_choiceRT,2021.1.2,Win32,60.13590715,,,,,,,,1,Ontime,j,1,2.0337,4,0,16,3,1,,,,,
,0.55,,,,,,,,,h.PNG,h,5e53eb33ef87a902f39b1b77,2021-09-08_16h13.46.560,forced_choiceRT,2021.1.2,Win32,60.13590715,,,,,,,,1,Ontime,f,0,2.0495,4,1,17,2,1,,,,,
,0.18,,,,,,,,,h.PNG,h,5e53eb33ef87a902f39b1b77,2021-09-08_16h13.46.560,forced_choiceRT,2021.1.2,Win32,60.13590715,,,,,,,,1,Ontime,h,1,1.9827,4,2,18,2,1,,,,,
,0.87,,,,,,,,,j.PNG,j,5e53eb33ef87a902f39b1b77,2021-09-08_16h13.46.560,forced_choiceRT,2021.1.2,Win32,60.13590715,,,,,,,,1,Ontime,j,1,2.0502,4,3,19,3,1,,,,,
,1.67,,,,,,,,,f.PNG,f,5e53eb33ef87a902f39b1b77,2021-09-08_16h13.46.560,forced_choiceRT,2021.1.2,Win32,60.13590715,,,,,,,,1,Slow,f,1,2.2675,5,0,20,0,1,,,,,
,0.81,,,,,,,,,h.PNG,h,5e53eb33ef87a902f39b1b77,2021-09-08_16h13.46.560,forced_choiceRT,2021.1.2,Win32,60.13590715,,,,,,,,1,Ontime,h,1,2.0676,5,1,21,2,1,,,,,
,0.59,,,,,,,,,g.PNG,g,5e53eb33ef87a902f39b1b77,2021-09-08_16h13.46.560,forced_choiceRT,2021.1.2,Win32,60.13590715,,,,,,,,1,Ontime,g,1,2.01,5,2,22,1,1,,,,,
,0.83,,,,,,,,,h.PNG,h,5e53eb33ef87a902f39b1b77,2021-09-08_16h13.46.560,forced_choiceRT,2021.1.2,Win32,60.13590715,,,,,,,,1,Ontime,h,1,1.9992,5,3,23,2,1,,,,,
,1.88,,,,,,,,,h.PNG,h,5e53eb33ef87a902f39b1b77,2021-09-08_16h13.46.560,forced_choiceRT,2021.1.2,Win32,60.13590715,,,,,,,,1,Slow,f,0,2.265,6,0,24,2,1,,,,,
,1.91,,,,,,,,,g.PNG,g,5e53eb33ef87a902f39b1b77,2021-09-08_16h13.46.560,forced_choiceRT,2021.1.2,Win32,60.13590715,,,,,,,,1,Slow,f,0,2.1835,6,1,25,1,1,,,,,
,1.74,,,,,,,,,j.PNG,j,5e53eb33ef87a902f39b1b77,2021-09-08_16h13.46.560,forced_choiceRT,2021.1.2,Win32,60.13590715,,,,,,,,1,Ontime,g,0,2.0999,6,2,26,3,1,,,,,
,1.27,,,,,,,,,f.PNG,f,5e53eb33ef87a902f39b1b77,2021-09-08_16h13.46.560,forced_choiceRT,2021.1.2,Win32,60.13590715,,,,,,,,1,Ontime,f,1,1.9895,6,3,27,0,1,,,,,
,0.86,,,,,,,,,f.PNG,f,5e53eb33ef87a902f39b1b77,2021-09-08_16h13.46.560,forced_choiceRT,2021.1.2,Win32,60.13590715,,,,,,,,1,Ontime,f,1,2.0166,7,0,28,0,1,,,,,
,0.89,,,,,,,,,j.PNG,j,5e53eb33ef87a902f39b1b77,2021-09-08_16h13.46.560,forced_choiceRT,2021.1.2,Win32,60.13590715,,,,,,,,1,Ontime,j,1,2.0499,7,1,29,3,1,,,,,
,0.25,,,,,,,,,f.PNG,f,5e53eb33ef87a902f39b1b77,2021-09-08_16h13.46.560,forced_choiceRT,2021.1.2,Win32,60.13590715,,,,,,,,1,Ontime,f,1,2.0335,7,2,30,0,1,,,,,
,0.37,,,,,,,,,f.PNG,f,5e53eb33ef87a902f39b1b77,2021-09-08_16h13.46.560,forced_choiceRT,2021.1.2,Win32,60.13590715,,,,,,,,1,Ontime,f,1,2.0336,7,3,31,0,1,,,,,
,0.79,,,,,,,,,j.PNG,j,5e53eb33ef87a902f39b1b77,2021-09-08_16h13.46.560,forced_choiceRT,2021.1.2,Win32,60.13590715,,,,,,,,1,Ontime,j,1,2.0161,8,0,32,3,1,,,,,
,0.5,,,,,,,,,g.PNG,g,5e53eb33ef87a902f39b1b77,2021-09-08_16h13.46.560,forced_choiceRT,2021.1.2,Win32,60.13590715,,,,,,,,1,Ontime,g,1,2.0045,8,1,33,1,1,,,,,
,0.9,,,,,,,,,h.PNG,h,5e53eb33ef87a902f39b1b77,2021-09-08_16h13.46.560,forced_choiceRT,2021.1.2,Win32,60.13590715,,,,,,,,1,Ontime,h,1,2.0841,8,2,34,2,1,,,,,
,0.66,,,,,,,,,g.PNG,g,5e53eb33ef87a902f39b1b77,2021-09-08_16h13.46.560,forced_choiceRT,2021.1.2,Win32,60.13590715,,,,,,,,1,Ontime,g,1,2.0344,8,3,35,1,1,,,,,
,0.95,,,,,,,,,g.PNG,g,5e53eb33ef87a902f39b1b77,2021-09-08_16h13.46.560,forced_choiceRT,2021.1.2,Win32,60.13590715,,,,,,,,1,Ontime,g,1,2.0684,9,0,36,1,1,,,,,
,1.66,,,,,,,,,j.PNG,j,5e53eb33ef87a902f39b1b77,2021-09-08_16h13.46.560,forced_choiceRT,2021.1.2,Win32,60.13590715,,,,,,,,1,Slow,g,0,2.1489,9,1,37,3,1,,,,,
,1.57,,,,,,,,,f.PNG,f,5e53eb33ef87a902f39b1b77,2021-09-08_16h13.46.560,forced_choiceRT,2021.1.2,Win32,60.13590715,,,,,,,,1,Ontime,f,1,2.0674,9,2,38,0,1,,,,,
,0.1,,,,,,,,,f.PNG,f,5e53eb33ef87a902f39b1b77,2021-09-08_16h13.46.560,forced_choiceRT,2021.1.2,Win32,60.13590715,,,,,,,,1,Ontime,f,1,2.0333,9,3,39,0,1,,,,,
,,,,,,,,,,,,5e53eb33ef87a902f39b1b77,2021-09-08_16h13.46.560,forced_choiceRT,2021.1.2,Win32,60.13590715,,,,,,,,,,,,,,,,,,0,0,0,0,1
,1.54,,,,,,,,,j.PNG,j,5e53eb33ef87a902f39b1b77,2021-09-08_16h13.46.560,forced_choiceRT,2021.1.2,Win32,60.13590715,,,,,,,,2,Slow,j,1,2.1982,0,0,0,3,1,,,,,
,1.27,,,,,,,,,j.PNG,j,5e53eb33ef87a902f39b1b77,2021-09-08_16h13.46.560,forced_choiceRT,2021.1.2,Win32,60.13590715,,,,,,,,2,Ontime,j,1,2.0166,0,1,1,3,1,,,,,
,1.59,,,,,,,,,h.PNG,h,5e53eb33ef87a902f39b1b77,2021-09-08_16h13.46.560,forced_choiceRT,2021.1.2,Win32,60.13590715,,,,,,,,2,Slow,g,0,2.1094,0,2,2,2,1,,,,,
,0.3,,,,,,,,,f.PNG,f,5e53eb33ef87a902f39b1b77,2021-09-08_16h13.46.560,forced_choiceRT,2021.1.2,Win32,60.13590715,,,,,,,,2,Ontime,f,1,2.0077,0,3,3,0,1,,,,,
,1.86,,,,,,,,,j.PNG,j,5e53eb33ef87a902f39b1b77,2021-09-08_16h13.46.560,forced_choiceRT,2021.1.2,Win32,60.13590715,,,,,,,,2,Slow,j,1,2.1586,1,0,4,3,1,,,,,
,1.12,,,,,,,,,f.PNG,f,5e53eb33ef87a902f39b1b77,2021-09-08_16h13.46.560,forced_choiceRT,2021.1.2,Win32,60.13590715,,,,,,,,2,Ontime,f,1,2.0667,1,1,5,0,1,,,,,
,0.87,,,,,,,,,f.PNG,f,5e53eb33ef87a902f39b1b77,2021-09-08_16h13.46.560,forced_choiceRT,2021.1.2,Win32,60.13590715,,,,,,,,2,Ontime,f,1,1.9663,1,2,6,0,1,,,,,
,0.26,,,,,,,,,j.PNG,j,5e53eb33ef87a902f39b1b77,2021-09-08_16h13.46.560,forced_choiceRT,2021.1.2,Win32,60.13590715,,,,,,,,2,Ontime,j,1,1.943,1,3,7,3,1,,,,,
,0.36,,,,,,,,,g.PNG,g,5e53eb33ef87a902f39b1b77,2021-09-08_16h13.46.560,forced_choiceRT,2021.1.2,Win32,60.13590715,,,,,,,,2,Ontime,g,1,1.9847,2,0,8,1,1,,,,,
,0.03,,,,,,,,,h.PNG,h,5e53eb33ef87a902f39b1b77,2021-09-08_16h13.46.560,forced_choiceRT,2021.1.2,Win32,60.13590715,,,,,,,,2,Ontime,h,1,2.0326,2,1,9,2,1,,,,,
,1.1,,,,,,,,,j.PNG,j,5e53eb33ef87a902f39b1b77,2021-09-08_16h13.46.560,forced_choiceRT,2021.1.2,Win32,60.13590715,,,,,,,,2,Ontime,j,1,2.0075,2,2,10,3,1,,,,,
,1.14,,,,,,,,,g.PNG,g,5e53eb33ef87a902f39b1b77,2021-09-08_16h13.46.560,forced_choiceRT,2021.1.2,Win32,60.13590715,,,,,,,,2,Ontime,g,1,2.0246,2,3,11,1,1,,,,,
,1.69,,,,,,,,,g.PNG,g,5e53eb33ef87a902f39b1b77,2021-09-08_16h13.46.560,forced_choiceRT,2021.1.2,Win32,60.13590715,,,,,,,,2,Ontime,g,1,2.0388,3,0,12,1,1,,,,,
,1.46,,,,,,,,,j.PNG,j,5e53eb33ef87a902f39b1b77,2021-09-08_16h13.46.560,forced_choiceRT,2021.1.2,Win32,60.13590715,,,,,,,,2,Ontime,j,1,1.9731,3,1,13,3,1,,,,,
,1.19,,,,,,,,,g.PNG,g,5e53eb33ef87a902f39b1b77,2021-09-08_16h13.46.560,forced_choiceRT,2021.1.2,Win32,60.13590715,,,,,,,,2,Fast,g,1,1.8992,3,2,14,1,1,,,,,
,1.1,,,,,,,,,h.PNG,h,5e53eb33ef87a902f39b1b77,2021-09-08_16h13.46.560,forced_choiceRT,2021.1.2,Win32,60.13590715,,,,,,,,2,Ontime,h,1,1.9719,3,3,15,2,1,,,,,
,1.84,,,,,,,,,g.PNG,g,5e53eb33ef87a902f39b1b77,2021-09-08_16h13.46.560,forced_choiceRT,2021.1.2,Win32,60.13590715,,,,,,,,2,Slow,f,0,2.2066,4,0,16,1,1,,,,,
,0.6,,,,,,,,,j.PNG,j,5e53eb33ef87a902f39b1b77,2021-09-08_16h13.46.560,forced_choiceRT,2021.1.2,Win32,60.13590715,,,,,,,,2,Ontime,j,1,2.0312,4,1,17,3,1,,,,,
,1.71,,,,,,,,,h.PNG,h,5e53eb33ef87a902f39b1b77,2021-09-08_16h13.46.560,forced_choiceRT,2021.1.2,Win32,60.13590715,,,,,,,,2,Ontime,g,0,2.04,4,2,18,2,1,,,,,
,0.24,,,,,,,,,f.PNG,f,5e53eb33ef87a902f39b1b77,2021-09-08_16h13.46.560,forced_choiceRT,2021.1.2,Win32,60.13590715,,,,,,,,2,Ontime,f,1,2.0072,4,3,19,0,1,,,,,
,1.22,,,,,,,,,h.PNG,h,5e53eb33ef87a902f39b1b77,2021-09-08_16h13.46.560,forced_choiceRT,2021.1.2,Win32,60.13590715,,,,,,,,2,Ontime,f,0,2.071,5,0,20,2,1,,,,,
,0.12,,,,,,,,,f.PNG,f,5e53eb33ef87a902f39b1b77,2021-09-08_16h13.46.560,forced_choiceRT,2021.1.2,Win32,60.13590715,,,,,,,,2,Ontime,f,1,2.0007,5,1,21,0,1,,,,,
,0.09,,,,,,,,,g.PNG,g,5e53eb33ef87a902f39b1b77,2021-09-08_16h13.46.560,forced_choiceRT,2021.1.2,Win32,60.13590715,,,,,,,,2,Ontime,g,1,1.9999,5,2,22,1,1,,,,,
,1.75,,,,,,,,,j.PNG,j,5e53eb33ef87a902f39b1b77,2021-09-08_16h13.46.560,forced_choiceRT,2021.1.2,Win32,60.13590715,,,,,,,,2,Ontime,h,0,2.0761,5,3,23,3,1,,,,,
,0.76,,,,,,,,,g.PNG,g,5e53eb33ef87a902f39b1b77,2021-09-08_16h13.46.560,forced_choiceRT,2021.1.2,Win32,60.13590715,,,,,,,,2,Ontime,g,1,2.001,6,0,24,1,1,,,,,
,1.07,,,,,,,,,f.PNG,f,5e53eb33ef87a902f39b1b77,2021-09-08_16h13.46.560,forced_choiceRT,2021.1.2,Win32,60.13590715,,,,,,,,2,Ontime,f,1,2.0322,6,1,25,0,1,,,,,
,1.04,,,,,,,,,g.PNG,g,5e53eb33ef87a902f39b1b77,2021-09-08_16h13.46.560,forced_choiceRT,2021.1.2,Win32,60.13590715,,,,,,,,2,Ontime,g,1,1.9585,6,2,26,1,1,,,,,
,1.21,,,,,,,,,f.PNG,f,5e53eb33ef87a902f39b1b77,2021-09-08_16h13.46.560,forced_choiceRT,2021.1.2,Win32,60.13590715,,,,,,,,2,Ontime,f,1,1.9737,6,3,27,0,1,,,,,
,1,,,,,,,,,g.PNG,g,5e53eb33ef87a902f39b1b77,2021-09-08_16h13.46.560,forced_choiceRT,2021.1.2,Win32,60.13590715,,,,,,,,2,Ontime,g,1,2.0011,7,0,28,1,1,,,,,
,1.29,,,,,,,,,f.PNG,f,5e53eb33ef87a902f39b1b77,2021-09-08_16h13.46.560,forced_choiceRT,2021.1.2,Win32,60.13590715,,,,,,,,2,Ontime,f,1,2.004,7,1,29,0,1,,,,,
,1.78,,,,,,,,,f.PNG,f,5e53eb33ef87a902f39b1b77,2021-09-08_16h13.46.560,forced_choiceRT,2021.1.2,Win32,60.13590715,,,,,,,,2,Ontime,j,0,2.0589,7,2,30,0,1,,,,,
,1.54,,,,,,,,,f.PNG,f,5e53eb33ef87a902f39b1b77,2021-09-08_16h13.46.560,forced_choiceRT,2021.1.2,Win32,60.13590715,,,,,,,,2,Ontime,f,1,2.0013,7,3,31,0,1,,,,,
,1.06,,,,,,,,,h.PNG,h,5e53eb33ef87a902f39b1b77,2021-09-08_16h13.46.560,forced_choiceRT,2021.1.2,Win32,60.13590715,,,,,,,,2,Ontime,h,1,1.9712,8,0,32,2,1,,,,,
,1.52,,,,,,,,,j.PNG,j,5e53eb33ef87a902f39b1b77,2021-09-08_16h13.46.560,forced_choiceRT,2021.1.2,Win32,60.13590715,,,,,,,,2,Ontime,j,1,1.9878,8,1,33,3,1,,,,,
,0.17,,,,,,,,,h.PNG,h,5e53eb33ef87a902f39b1b77,2021-09-08_16h13.46.560,forced_choiceRT,2021.1.2,Win32,60.13590715,,,,,,,,2,Ontime,h,1,1.9987,8,2,34,2,1,,,,,
,0.48,,,,,,,,,h.PNG,h,5e53eb33ef87a902f39b1b77,2021-09-08_16h13.46.560,forced_choiceRT,2021.1.2,Win32,60.13590715,,,,,,,,2,Ontime,h,1,1.9545,8,3,35,2,1,,,,,
,0.7,,,,,,,,,h.PNG,h,5e53eb33ef87a902f39b1b77,2021-09-08_16h13.46.560,forced_choiceRT,2021.1.2,Win32,60.13590715,,,,,,,,2,Ontime,h,1,1.9489,9,0,36,2,1,,,,,
,1.11,,,,,,,,,h.PNG,h,5e53eb33ef87a902f39b1b77,2021-09-08_16h13.46.560,forced_choiceRT,2021.1.2,Win32,60.13590715,,,,,,,,2,Ontime,h,1,1.9737,9,1,37,2,1,,,,,
,0.74,,,,,,,,,j.PNG,j,5e53eb33ef87a902f39b1b77,2021-09-08_16h13.46.560,forced_choiceRT,2021.1.2,Win32,60.13590715,,,,,,,,2,Ontime,j,1,1.9868,9,2,38,3,1,,,,,
,0.63,,,,,,,,,g.PNG,g,5e53eb33ef87a902f39b1b77,2021-09-08_16h13.46.560,forced_choiceRT,2021.1.2,Win32,60.13590715,,,,,,,,2,Ontime,g,1,1.9936,9,3,39,1,1,,,,,
,,,,,,,,,,,,5e53eb33ef87a902f39b1b77,2021-09-08_16h13.46.560,forced_choiceRT,2021.1.2,Win32,60.13590715,,,,,,,,,,,,,,,,,,1,0,1,0,1
,1.83,,,,,,,,,f.PNG,f,5e53eb33ef87a902f39b1b77,2021-09-08_16h13.46.560,forced_choiceRT,2021.1.2,Win32,60.13590715,,,,,,,,3,Slow,g,0,2.2028,0,0,0,0,1,,,,,
,0.55,,,,,,,,,j.PNG,j,5e53eb33ef87a902f39b1b77,2021-09-08_16h13.46.560,forced_choiceRT,2021.1.2,Win32,60.13590715,,,,,,,,3,Ontime,j,1,2.0345,0,1,1,3,1,,,,,
,1.71,,,,,,,,,j.PNG,j,5e53eb33ef87a902f39b1b77,2021-09-08_16h13.46.560,forced_choiceRT,2021.1.2,Win32,60.13590715,,,,,,,,3,Ontime,f,0,2.0199,0,2,2,3,1,,,,,
,1.24,,,,,,,,,j.PNG,j,5e53eb33ef87a902f39b1b77,2021-09-08_16h13.46.560,forced_choiceRT,2021.1.2,Win32,60.13590715,,,,,,,,3,Ontime,j,1,2.0324,0,3,3,3,1,,,,,
,1.19,,,,,,,,,h.PNG,h,5e53eb33ef87a902f39b1b77,2021-09-08_16h13.46.560,forced_choiceRT,2021.1.2,Win32,60.13590715,,,,,,,,3,Ontime,h,1,2.04,1,0,4,2,1,,,,,
,0.98,,,,,,,,,g.PNG,g,5e53eb33ef87a902f39b1b77,2021-09-08_16h13.46.560,forced_choiceRT,2021.1.2,Win32,60.13590715,,,,,,,,3,Ontime,g,1,1.9816,1,1,5,1,1,,,,,
,1.21,,,,,,,,,g.PNG,g,5e53eb33ef87a902f39b1b77,2021-09-08_16h13.46.560,forced_choiceRT,2021.1.2,Win32,60.13590715,,,,,,,,3,Ontime,g,1,2.0191,1,2,6,1,1,,,,,
,1.21,,,,,,,,,j.PNG,j,5e53eb33ef87a902f39b1b77,2021-09-08_16h13.46.560,forced_choiceRT,2021.1.2,Win32,60.13590715,,,,,,,,3,Ontime,j,1,1.9671,1,3,7,3,1,,,,,
,1.15,,,,,,,,,h.PNG,h,5e53eb33ef87a902f39b1b77,2021-09-08_16h13.46.560,forced_choiceRT,2021.1.2,Win32,60.13590715,,,,,,,,3,Ontime,h,1,1.9773,2,0,8,2,1,,,,,
,1.08,,,,,,,,,g.PNG,g,5e53eb33ef87a902f39b1b77,2021-09-08_16h13.46.560,forced_choiceRT,2021.1.2,Win32,60.13590715,,,,,,,,3,Ontime,g,1,1.9338,2,1,9,1,1,,,,,
,0.17,,,,,,,,,h.PNG,h,5e53eb33ef87a902f39b1b77,2021-09-08_16h13.46.560,forced_choiceRT,2021.1.2,Win32,60.13590715,,,,,,,,3,Ontime,h,1,2.0081,2,2,10,2,1,,,,,
,1.07,,,,,,,,,h.PNG,h,5e53eb33ef87a902f39b1b77,2021-09-08_16h13.46.560,forced_choiceRT,2021.1.2,Win32,60.13590715,,,,,,,,3,Ontime,h,1,2.0677,2,3,11,2,1,,,,,
,0.75,,,,,,,,,h.PNG,h,5e53eb33ef87a902f39b1b77,2021-09-08_16h13.46.560,forced_choiceRT,2021.1.2,Win32,60.13590715,,,,,,,,3,Ontime,h,1,1.9714,3,0,12,2,1,,,,,
,1.4,,,,,,,,,g.PNG,g,5e53eb33ef87a902f39b1b77,2021-09-08_16h13.46.560,forced_choiceRT,2021.1.2,Win32,60.13590715,,,,,,,,3,Ontime,g,1,2.0351,3,1,13,1,1,,,,,
,0.55,,,,,,,,,f.PNG,f,5e53eb33ef87a902f39b1b77,2021-09-08_16h13.46.560,forced_choiceRT,2021.1.2,Win32,60.13590715,,,,,,,,3,Ontime,f,1,1.9855,3,2,14,0,1,,,,,
,1.19,,,,,,,,,g.PNG,g,5e53eb33ef87a902f39b1b77,2021-09-08_16h13.46.560,forced_choiceRT,2021.1.2,Win32,60.13590715,,,,,,,,3,Ontime,g,1,2.0366,3,3,15,1,1,,,,,
,0.44,,,,,,,,,f.PNG,f,5e53eb33ef87a902f39b1b77,2021-09-08_16h13.46.560,forced_choiceRT,2021.1.2,Win32,60.13590715,,,,,,,,3,Ontime,f,1,2.0046,4,0,16,0,1,,,,,
,0.61,,,,,,,,,j.PNG,j,5e53eb33ef87a902f39b1b77,2021-09-08_16h13.46.560,forced_choiceRT,2021.1.2,Win32,60.13590715,,,,,,,,3,Ontime,j,1,2.0336,4,1,17,3,1,,,,,
,0.49,,,,,,,,,f.PNG,f,5e53eb33ef87a902f39b1b77,2021-09-08_16h13.46.560,forced_choiceRT,2021.1.2,Win32,60.13590715,,,,,,,,3,Ontime,f,1,2.0217,4,2,18,0,1,,,,,
,1.46,,,,,,,,,g.PNG,g,5e53eb33ef87a902f39b1b77,2021-09-08_16h13.46.560,forced_choiceRT,2021.1.2,Win32,60.13590715,,,,,,,,3,Ontime,g,1,2.0385,4,3,19,1,1,,,,,
,1.69,,,,,,,,,h.PNG,h,5e53eb33ef87a902f39b1b77,2021-09-08_16h13.46.560,forced_choiceRT,2021.1.2,Win32,60.13590715,,,,,,,,3,Ontime,j,0,2.0505,5,0,20,2,1,,,,,
,0.24,,,,,,,,,f.PNG,f,5e53eb33ef87a902f39b1b77,2021-09-08_16h13.46.560,forced_choiceRT,2021.1.2,Win32,60.13590715,,,,,,,,3,Ontime,f,1,2.0341,5,1,21,0,1,,,,,
,0.48,,,,,,,,,f.PNG,f,5e53eb33ef87a902f39b1b77,2021-09-08_16h13.46.560,forced_choiceRT,2021.1.2,Win32,60.13590715,,,,,,,,3,Ontime,f,1,2.005,5,2,22,0,1,,,,,
,1.57,,,,,,,,,f.PNG,f,5e53eb33ef87a902f39b1b77,2021-09-08_16h13.46.560,forced_choiceRT,2021.1.2,Win32,60.13590715,,,,,,,,3,Ontime,g,0,1.999,5,3,23,0,1,,,,,
,1.04,,,,,,,,,j.PNG,j,5e53eb33ef87a902f39b1b77,2021-09-08_16h13.46.560,forced_choiceRT,2021.1.2,Win32,60.13590715,,,,,,,,3,Ontime,j,1,2.0267,6,0,24,3,1,,,,,
,1.85,,,,,,,,,g.PNG,g,5e53eb33ef87a902f39b1b77,2021-09-08_16h13.46.560,forced_choiceRT,2021.1.2,Win32,60.13590715,,,,,,,,3,Slow,j,0,2.19,6,1,25,1,1,,,,,
,0.39,,,,,,,,,j.PNG,j,5e53eb33ef87a902f39b1b77,2021-09-08_16h13.46.560,forced_choiceRT,2021.1.2,Win32,60.13590715,,,,,,,,3,Ontime,j,1,2.0146,6,2,26,3,1,,,,,
,0.7,,,,,,,,,h.PNG,h,5e53eb33ef87a902f39b1b77,2021-09-08_16h13.46.560,forced_choiceRT,2021.1.2,Win32,60.13590715,,,,,,,,3,Ontime,h,1,1.9859,6,3,27,2,1,,,,,
,0.32,,,,,,,,,g.PNG,g,5e53eb33ef87a902f39b1b77,2021-09-08_16h13.46.560,forced_choiceRT,2021.1.2,Win32,60.13590715,,,,,,,,3,Ontime,g,1,2.0483,7,0,28,1,1,,,,,
,0.02,,,,,,,,,g.PNG,g,5e53eb33ef87a902f39b1b77,2021-09-08_16h13.46.560,forced_choiceRT,2021.1.2,Win32,60.13590715,,,,,,,,3,Ontime,g,1,2.0339,7,1,29,1,1,,,,,
,1.03,,,,,,,,,j.PNG,j,5e53eb33ef87a902f39b1b77,2021-09-08_16h13.46.560,forced_choiceRT,2021.1.2,Win32,60.13590715,,,,,,,,3,Ontime,j,1,1.9924,7,2,30,3,1,,,,,
,1.75,,,,,,,,,f.PNG,f,5e53eb33ef87a902f39b1b77,2021-09-08_16h13.46.560,forced_choiceRT,2021.1.2,Win32,60.13590715,,,,,,,,3,Ontime,f,1,2.0384,7,3,31,0,1,,,,,
,1.35,,,,,,,,,h.PNG,h,5e53eb33ef87a902f39b1b77,2021-09-08_16h13.46.560,forced_choiceRT,2021.1.2,Win32,60.13590715,,,,,,,,3,Ontime,h,1,2.052,8,0,32,2,1,,,,,
,1.69,,,,,,,,,h.PNG,h,5e53eb33ef87a902f39b1b77,2021-09-08_16h13.46.560,forced_choiceRT,2021.1.2,Win32,60.13590715,,,,,,,,3,Ontime,h,1,2.097,8,1,33,2,1,,,,,
,1.23,,,,,,,,,j.PNG,j,5e53eb33ef87a902f39b1b77,2021-09-08_16h13.46.560,forced_choiceRT,2021.1.2,Win32,60.13590715,,,,,,,,3,Ontime,j,1,1.9898,8,2,34,3,1,,,,,
,1.47,,,,,,,,,j.PNG,j,5e53eb33ef87a902f39b1b77,2021-09-08_16h13.46.560,forced_choiceRT,2021.1.2,Win32,60.13590715,,,,,,,,3,Ontime,j,1,2.0525,8,3,35,3,1,,,,,
,1.3,,,,,,,,,f.PNG,f,5e53eb33ef87a902f39b1b77,2021-09-08_16h13.46.560,forced_choiceRT,2021.1.2,Win32,60.13590715,,,,,,,,3,Ontime,f,1,1.9348,9,0,36,0,1,,,,,
,0.7,,,,,,,,,h.PNG,h,5e53eb33ef87a902f39b1b77,2021-09-08_16h13.46.560,forced_choiceRT,2021.1.2,Win32,60.13590715,,,,,,,,3,Ontime,h,1,2.0182,9,1,37,2,1,,,,,
,1.82,,,,,,,,,f.PNG,f,5e53eb33ef87a902f39b1b77,2021-09-08_16h13.46.560,forced_choiceRT,2021.1.2,Win32,60.13590715,,,,,,,,3,Slow,j,0,2.1167,9,2,38,0,1,,,,,
,1.99,,,,,,,,,g.PNG,g,5e53eb33ef87a902f39b1b77,2021-09-08_16h13.46.560,forced_choiceRT,2021.1.2,Win32,60.13590715,,,,,,,,3,Slow,f,0,2.3345,9,3,39,1,1,,,,,
,,,,,,,,,,,,5e53eb33ef87a902f39b1b77,2021-09-08_16h13.46.560,forced_choiceRT,2021.1.2,Win32,60.13590715,,,,,,,,,,,,,,,,,,2,0,2,0,1
,0.08,,,,,,,,,g.PNG,g,5e53eb33ef87a902f39b1b77,2021-09-08_16h13.46.560,forced_choiceRT,2021.1.2,Win32,60.13590715,,,,,,,,4,Ontime,g,1,2.0455,0,0,0,1,1,,,,,
,1.1,,,,,,,,,f.PNG,f,5e53eb33ef87a902f39b1b77,2021-09-08_16h13.46.560,forced_choiceRT,2021.1.2,Win32,60.13590715,,,,,,,,4,Ontime,f,1,2.0403,0,1,1,0,1,,,,,
,1.86,,,,,,,,,h.PNG,h,5e53eb33ef87a902f39b1b77,2021-09-08_16h13.46.560,forced_choiceRT,2021.1.2,Win32,60.13590715,,,,,,,,4,Slow,h,1,2.1027,0,2,2,2,1,,,,,
,1.39,,,,,,,,,j.PNG,j,5e53eb33ef87a902f39b1b77,2021-09-08_16h13.46.560,forced_choiceRT,2021.1.2,Win32,60.13590715,,,,,,,,4,Ontime,j,1,2.0858,0,3,3,3,1,,,,,
,1.72,,,,,,,,,j.PNG,j,5e53eb33ef87a902f39b1b77,2021-09-08_16h13.46.560,forced_choiceRT,2021.1.2,Win32,60.13590715,,,,,,,,4,Ontime,h,0,2.0234,1,0,4,3,1,,,,,
,0.32,,,,,,,,,j.PNG,j,5e53eb33ef87a902f39b1b77,2021-09-08_16h13.46.560,forced_choiceRT,2021.1.2,Win32,60.13590715,,,,,,,,4,Ontime,j,1,2.0224,1,1,5,3,1,,,,,
,0.21,,,,,,,,,h.PNG,h,5e53eb33ef87a902f39b1b77,2021-09-08_16h13.46.560,forced_choiceRT,2021.1.2,Win32,60.13590715,,,,,,,,4,Ontime,h,1,2.0673,1,2,6,2,1,,,,,
,1.81,,,,,,,,,g.PNG,g,5e53eb33ef87a902f39b1b77,2021-09-08_16h13.46.560,forced_choiceRT,2021.1.2,Win32,60.13590715,,,,,,,,4,Slow,j,0,2.1333,1,3,7,1,1,,,,,
,0.73,,,,,,,,,f.PNG,f,5e53eb33ef87a902f39b1b77,2021-09-08_16h13.46.560,forced_choiceRT,2021.1.2,Win32,60.13590715,,,,,,,,4,Ontime,f,1,2.035,2,0,8,0,1,,,,,
,1.81,,,,,,,,,g.PNG,g,5e53eb33ef87a902f39b1b77,2021-09-08_16h13.46.560,forced_choiceRT,2021.1.2,Win32,60.13590715,,,,,,,,4,Slow,j,0,2.1484,2,1,9,1,1,,,,,
,0.58,,,,,,,,,h.PNG,h,5e53eb33ef87a902f39b1b77,2021-09-08_16h13.46.560,forced_choiceRT,2021.1.2,Win32,60.13590715,,,,,,,,4,Ontime,h,1,2.0362,2,2,10,2,1,,,,,
,0.05,,,,,,,,,f.PNG,f,5e53eb33ef87a902f39b1b77,2021-09-08_16h13.46.560,forced_choiceRT,2021.1.2,Win32,60.13590715,,,,,,,,4,Ontime,f,1,1.9767,2,3,11,0,1,,,,,
,0.45,,,,,,,,,j.PNG,j,5e53eb33ef87a902f39b1b77,2021-09-08_16h13.46.560,forced_choiceRT,2021.1.2,Win32,60.13590715,,,,,,,,4,Ontime,j,1,2,3,0,12,3,1,,,,,
,1.42,,,,,,,,,g.PNG,g,5e53eb33ef87a902f39b1b77,2021-09-08_16h13.46.560,forced_choiceRT,2021.1.2,Win32,60.13590715,,,,,,,,4,Ontime,g,1,1.9998,3,1,13,1,1,,,,,
,0.49,,,,,,,,,g.PNG,g,5e53eb33ef87a902f39b1b77,2021-09-08_16h13.46.560,forced_choiceRT,2021.1.2,Win32,60.13590715,,,,,,,,4,Ontime,g,1,2.0218,3,2,14,1,1,,,,,
,0.28,,,,,,,,,f.PNG,f,5e53eb33ef87a902f39b1b77,2021-09-08_16h13.46.560,forced_choiceRT,2021.1.2,Win32,60.13590715,,,,,,,,4,Ontime,f,1,2.0169,3,3,15,0,1,,,,,
,1.76,,,,,,,,,h.PNG,h,5e53eb33ef87a902f39b1b77,2021-09-08_16h13.46.560,forced_choiceRT,2021.1.2,Win32,60.13590715,,,,,,,,4,Slow,j,0,2.1226,4,0,16,2,1,,,,,
,0.51,,,,,,,,,h.PNG,h,5e53eb33ef87a902f39b1b77,2021-09-08_16h13.46.560,forced_choiceRT,2021.1.2,Win32,60.13590715,,,,,,,,4,Ontime,h,1,2.0003,4,1,17,2,1,,,,,
,0.11,,,,,,,,,h.PNG,h,5e53eb33ef87a902f39b1b77,2021-09-08_16h13.46.560,forced_choiceRT,2021.1.2,Win32,60.13590715,,,,,,,,4,Ontime,h,1,2.0349,4,2,18,2,1,,,,,
,1.67,,,,,,,,,f.PNG,f,5e53eb33ef87a902f39b1b77,2021-09-08_16h13.46.560,forced_choiceRT,2021.1.2,Win32,60.13590715,,,,,,,,4,Ontime,h,0,2.0553,4,3,19,0,1,,,,,
,1.7,,,,,,,,,j.PNG,j,5e53eb33ef87a902f39b1b77,2021-09-08_16h13.46.560,forced_choiceRT,2021.1.2,Win32,60.13590715,,,,,,,,4,Ontime,f,0,2.0001,5,0,20,3,1,,,,,
,0.82,,,,,,,,,g.PNG,g,5e53eb33ef87a902f39b1b77,2021-09-08_16h13.46.560,forced_choiceRT,2021.1.2,Win32,60.13590715,,,,,,,,4,Ontime,g,1,1.9859,5,1,21,1,1,,,,,
,0.14,,,,,,,,,h.PNG,h,5e53eb33ef87a902f39b1b77,2021-09-08_16h13.46.560,forced_choiceRT,2021.1.2,Win32,60.13590715,,,,,,,,4,Ontime,h,1,2.0158,5,2,22,2,1,,,,,
,0.17,,,,,,,,,f.PNG,f,5e53eb33ef87a902f39b1b77,2021-09-08_16h13.46.560,forced_choiceRT,2021.1.2,Win32,60.13590715,,,,,,,,4,Ontime,f,1,1.9948,5,3,23,0,1,,,,,
,1.63,,,,,,,,,j.PNG,j,5e53eb33ef87a902f39b1b77,2021-09-08_16h13.46.560,forced_choiceRT,2021.1.2,Win32,60.13590715,,,,,,,,4,Ontime,j,1,2.0564,6,0,24,3,1,,,,,
,0.63,,,,,,,,,j.PNG,j,5e53eb33ef87a902f39b1b77,2021-09-08_16h13.46.560,forced_choiceRT,2021.1.2,Win32,60.13590715,,,,,,,,4,Ontime,j,1,2.0427,6,1,25,3,1,,,,,
,1.19,,,,,,,,,g.PNG,g,5e53eb33ef87a902f39b1b77,2021-09-08_16h13.46.560,forced_choiceRT,2021.1.2,Win32,60.13590715,,,,,,,,4,Ontime,g,1,2.0649,6,2,26,1,1,,,,,
,0.01,,,,,,,,,g.PNG,g,5e53eb33ef87a902f39b1b77,2021-09-08_16h13.46.560,forced_choiceRT,2021.1.2,Win32,60.13590715,,,,,,,,4,Ontime,g,1,2.0575,6,3,27,1,1,,,,,
,0.79,,,,,,,,,f.PNG,f,5e53eb33ef87a902f39b1b77,2021-09-08_16h13.46.560,forced_choiceRT,2021.1.2,Win32,60.13590715,,,,,,,,4,Ontime,f,1,2.0196,7,0,28,0,1,,,,,
,0.88,,,,,,,,,f.PNG,f,5e53eb33ef87a902f39b1b77,2021-09-08_16h13.46.560,forced_choiceRT,2021.1.2,Win32,60.13590715,,,,,,,,4,Ontime,f,1,2.0816,7,1,29,0,1,,,,,
,1.26,,,,,,,,,f.PNG,f,5e53eb33ef87a902f39b1b77,2021-09-08_16h13.46.560,forced_choiceRT,2021.1.2,Win32,60.13590715,,,,,,,,4,Ontime,f,1,2.0844,7,2,30,0,1,,,,,
,0.75,,,,,,,,,j.PNG,j,5e53eb33ef87a902f39b1b77,2021-09-08_16h13.46.560,forced_choiceRT,2021.1.2,Win32,60.13590715,,,,,,,,4,Ontime,j,1,2.0521,7,3,31,3,1,,,,,
,1.74,,,,,,,,,g.PNG,g,5e53eb33ef87a902f39b1b77,2021-09-08_16h13.46.560,forced_choiceRT,2021.1.2,Win32,60.13590715,,,,,,,,4,Ontime,j,0,2.0976,8,0,32,1,1,,,,,
,0.37,,,,,,,,,h.PNG,h,5e53eb33ef87a902f39b1b77,2021-09-08_16h13.46.560,forced_choiceRT,2021.1.2,Win32,60.13590715,,,,,,,,4,Ontime,h,1,2.0313,8,1,33,2,1,,,,,
,0.87,,,,,,,,,j.PNG,j,5e53eb33ef87a902f39b1b77,2021-09-08_16h13.46.560,forced_choiceRT,2021.1.2,Win32,60.13590715,,,,,,,,4,Ontime,j,1,2.0487,8,2,34,3,1,,,,,
,1.91,,,,,,,,,j.PNG,j,5e53eb33ef87a902f39b1b77,2021-09-08_16h13.46.560,forced_choiceRT,2021.1.2,Win32,60.13590715,,,,,,,,4,Slow,h,0,2.1528,8,3,35,3,1,,,,,
,1.54,,,,,,,,,g.PNG,g,5e53eb33ef87a902f39b1b77,2021-09-08_16h13.46.560,forced_choiceRT,2021.1.2,Win32,60.13590715,,,,,,,,4,Ontime,h,0,2.0769,9,0,36,1,1,,,,,
,0.96,,,,,,,,,h.PNG,h,5e53eb33ef87a902f39b1b77,2021-09-08_16h13.46.560,forced_choiceRT,2021.1.2,Win32,60.13590715,,,,,,,,4,Ontime,h,1,2.0335,9,1,37,2,1,,,,,
,0.8,,,,,,,,,f.PNG,f,5e53eb33ef87a902f39b1b77,2021-09-08_16h13.46.560,forced_choiceRT,2021.1.2,Win32,60.13590715,,,,,,,,4,Ontime,f,1,1.9875,9,2,38,0,1,,,,,
,0,,,,,,,,,h.PNG,h,5e53eb33ef87a902f39b1b77,2021-09-08_16h13.46.560,forced_choiceRT,2021.1.2,Win32,60.13590715,,,,,,,,4,Ontime,h,1,2.031,9,3,39,2,1,,,,,
,,,,,,,,,,,,5e53eb33ef87a902f39b1b77,2021-09-08_16h13.46.560,forced_choiceRT,2021.1.2,Win32,60.13590715,,,,,,,,,,,,,,,,,,3,0,3,0,1
,1.87,,,,,,,,,g.PNG,g,5e53eb33ef87a902f39b1b77,2021-09-08_16h13.46.560,forced_choiceRT,2021.1.2,Win32,60.13590715,,,,,,,,5,Slow,j,0,2.2681,0,0,0,1,1,,,,,
,0.17,,,,,,,,,f.PNG,f,5e53eb33ef87a902f39b1b77,2021-09-08_16h13.46.560,forced_choiceRT,2021.1.2,Win32,60.13590715,,,,,,,,5,Ontime,f,1,2.0505,0,1,1,0,1,,,,,
,1.61,,,,,,,,,g.PNG,g,5e53eb33ef87a902f39b1b77,2021-09-08_16h13.46.560,forced_choiceRT,2021.1.2,Win32,60.13590715,,,,,,,,5,Ontime,h,0,1.9887,0,2,2,1,1,,,,,
,0.06,,,,,,,,,g.PNG,g,5e53eb33ef87a902f39b1b77,2021-09-08_16h13.46.560,forced_choiceRT,2021.1.2,Win32,60.13590715,,,,,,,,5,Ontime,g,1,1.9818,0,3,3,1,1,,,,,
,0.43,,,,,,,,,g.PNG,g,5e53eb33ef87a902f39b1b77,2021-09-08_16h13.46.560,forced_choiceRT,2021.1.2,Win32,60.13590715,,,,,,,,5,Ontime,g,1,2.0291,1,0,4,1,1,,,,,
,1.99,,,,,,,,,j.PNG,j,5e53eb33ef87a902f39b1b77,2021-09-08_16h13.46.560,forced_choiceRT,2021.1.2,Win32,60.13590715,,,,,,,,5,Slow,j,1,2.1583,1,1,5,3,1,,,,,
,0.31,,,,,,,,,j.PNG,j,5e53eb33ef87a902f39b1b77,2021-09-08_16h13.46.560,forced_choiceRT,2021.1.2,Win32,60.13590715,,,,,,,,5,Ontime,j,1,2.0101,1,2,6,3,1,,,,,
,0.78,,,,,,,,,h.PNG,h,5e53eb33ef87a902f39b1b77,2021-09-08_16h13.46.560,forced_choiceRT,2021.1.2,Win32,60.13590715,,,,,,,,5,Ontime,h,1,2.0162,1,3,7,2,1,,,,,
,0.57,,,,,,,,,h.PNG,h,5e53eb33ef87a902f39b1b77,2021-09-08_16h13.46.560,forced_choiceRT,2021.1.2,Win32,60.13590715,,,,,,,,5,Ontime,h,1,2.0407,2,0,8,2,1,,,,,
,1.23,,,,,,,,,j.PNG,j,5e53eb33ef87a902f39b1b77,2021-09-08_16h13.46.560,forced_choiceRT,2021.1.2,Win32,60.13590715,,,,,,,,5,Ontime,j,1,1.9903,2,1,9,3,1,,,,,
,0.3,,,,,,,,,f.PNG,f,5e53eb33ef87a902f39b1b77,2021-09-08_16h13.46.560,forced_choiceRT,2021.1.2,Win32,60.13590715,,,,,,,,5,Ontime,f,1,2.0358,2,2,10,0,1,,,,,
,0.24,,,,,,,,,f.PNG,f,5e53eb33ef87a902f39b1b77,2021-09-08_16h13.46.560,forced_choiceRT,2021.1.2,Win32,60.13590715,,,,,,,,5,Ontime,f,1,2.0203,2,3,11,0,1,,,,,
,1.61,,,,,,,,,j.PNG,j,5e53eb33ef87a902f39b1b77,2021-09-08_16h13.46.560,forced_choiceRT,2021.1.2,Win32,60.13590715,,,,,,,,5,Ontime,j,1,2.0431,3,0,12,3,1,,,,,
,0.52,,,,,,,,,h.PNG,h,5e53eb33ef87a902f39b1b77,2021-09-08_16h13.46.560,forced_choiceRT,2021.1.2,Win32,60.13590715,,,,,,,,5,Ontime,h,1,2.0383,3,1,13,2,1,,,,,
,1.63,,,,,,,,,j.PNG,j,5e53eb33ef87a902f39b1b77,2021-09-08_16h13.46.560,forced_choiceRT,2021.1.2,Win32,60.13590715,,,,,,,,5,Ontime,g,0,2.0691,3,2,14,3,1,,,,,
,1.78,,,,,,,,,g.PNG,g,5e53eb33ef87a902f39b1b77,2021-09-08_16h13.46.560,forced_choiceRT,2021.1.2,Win32,60.13590715,,,,,,,,5,Ontime,h,0,2.0654,3,3,15,1,1,,,,,
,0.69,,,,,,,,,g.PNG,g,5e53eb33ef87a902f39b1b77,2021-09-08_16h13.46.560,forced_choiceRT,2021.1.2,Win32,60.13590715,,,,,,,,5,Ontime,g,1,2.0162,4,0,16,1,1,,,,,
,0.41,,,,,,,,,h.PNG,h,5e53eb33ef87a902f39b1b77,2021-09-08_16h13.46.560,forced_choiceRT,2021.1.2,Win32,60.13590715,,,,,,,,5,Ontime,h,1,2.005,4,1,17,2,1,,,,,
,0.68,,,,,,,,,f.PNG,f,5e53eb33ef87a902f39b1b77,2021-09-08_16h13.46.560,forced_choiceRT,2021.1.2,Win32,60.13590715,,,,,,,,5,Ontime,f,1,2.001,4,2,18,0,1,,,,,
,1.66,,,,,,,,,j.PNG,j,5e53eb33ef87a902f39b1b77,2021-09-08_16h13.46.560,forced_choiceRT,2021.1.2,Win32,60.13590715,,,,,,,,5,Ontime,j,1,2.0681,4,3,19,3,1,,,,,
,0.49,,,,,,,,,f.PNG,f,5e53eb33ef87a902f39b1b77,2021-09-08_16h13.46.560,forced_choiceRT,2021.1.2,Win32,60.13590715,,,,,,,,5,Ontime,f,1,2.0184,5,0,20,0,1,,,,,
,0.87,,,,,,,,,j.PNG,j,5e53eb33ef87a902f39b1b77,2021-09-08_16h13.46.560,forced_choiceRT,2021.1.2,Win32,60.13590715,,,,,,,,5,Slow,j,1,2.1152,5,1,21,3,1,,,,,
,1.71,,,,,,,,,f.PNG,f,5e53eb33ef87a902f39b1b77,2021-09-08_16h13.46.560,forced_choiceRT,2021.1.2,Win32,60.13590715,,,,,,,,5,Slow,h,0,2.1149,5,2,22,0,1,,,,,
,0.01,,,,,,,,,g.PNG,g,5e53eb33ef87a902f39b1b77,2021-09-08_16h13.46.560,forced_choiceRT,2021.1.2,Win32,60.13590715,,,,,,,,5,Ontime,g,1,2.0178,5,3,23,1,1,,,,,
,1.74,,,,,,,,,j.PNG,j,5e53eb33ef87a902f39b1b77,2021-09-08_16h13.46.560,forced_choiceRT,2021.1.2,Win32,60.13590715,,,,,,,,5,Slow,j,1,2.2039,6,0,24,3,1,,,,,
,0.11,,,,,,,,,f.PNG,f,5e53eb33ef87a902f39b1b77,2021-09-08_16h13.46.560,forced_choiceRT,2021.1.2,Win32,60.13590715,,,,,,,,5,Ontime,f,1,2.0026,6,1,25,0,1,,,,,
,0.58,,,,,,,,,h.PNG,h,5e53eb33ef87a902f39b1b77,2021-09-08_16h13.46.560,forced_choiceRT,2021.1.2,Win32,60.13590715,,,,,,,,5,Ontime,h,1,2.0425,6,2,26,2,1,,,,,
,1.54,,,,,,,,,h.PNG,h,5e53eb33ef87a902f39b1b77,2021-09-08_16h13.46.560,forced_choiceRT,2021.1.2,Win32,60.13590715,,,,,,,,5,Ontime,h,1,2.042,6,3,27,2,1,,,,,
,0.75,,,,,,,,,f.PNG,f,5e53eb33ef87a902f39b1b77,2021-09-08_16h13.46.560,forced_choiceRT,2021.1.2,Win32,60.13590715,,,,,,,,5,Slow,f,1,2.1225,7,0,28,0,1,,,,,
,1.21,,,,,,,,,j.PNG,j,5e53eb33ef87a902f39b1b77,2021-09-08_16h13.46.560,forced_choiceRT,2021.1.2,Win32,60.13590715,,,,,,,,5,Ontime,j,1,2.0017,7,1,29,3,1,,,,,
,0.9,,,,,,,,,h.PNG,h,5e53eb33ef87a902f39b1b77,2021-09-08_16h13.46.560,forced_choiceRT,2021.1.2,Win32,60.13590715,,,,,,,,5,Ontime,h,1,1.9167,7,2,30,2,1,,,,,
,0.48,,,,,,,,,j.PNG,j,5e53eb33ef87a902f39b1b77,2021-09-08_16h13.46.560,forced_choiceRT,2021.1.2,Win32,60.13590715,,,,,,,,5,Ontime,j,1,1.9847,7,3,31,3,1,,,,,
,1.99,,,,,,,,,g.PNG,g,5e53eb33ef87a902f39b1b77,2021-09-08_16h13.46.560,forced_choiceRT,2021.1.2,Win32,60.13590715,,,,,,,,5,Ontime,h,0,2.0342,8,0,32,1,1,,,,,
,1.62,,,,,,,,,h.PNG,h,5e53eb33ef87a902f39b1b77,2021-09-08_16h13.46.560,forced_choiceRT,2021.1.2,Win32,60.13590715,,,,,,,,5,Ontime,h,1,2.0077,8,1,33,2,1,,,,,
,0.04,,,,,,,,,f.PNG,f,5e53eb33ef87a902f39b1b77,2021-09-08_16h13.46.560,forced_choiceRT,2021.1.2,Win32,60.13590715,,,,,,,,5,Ontime,f,1,2.0223,8,2,34,0,1,,,,,
,0.95,,,,,,,,,g.PNG,g,5e53eb33ef87a902f39b1b77,2021-09-08_16h13.46.560,forced_choiceRT,2021.1.2,Win32,60.13590715,,,,,,,,5,Ontime,g,1,1.9733,8,3,35,1,1,,,,,
,1.79,,,,,,,,,g.PNG,g,5e53eb33ef87a902f39b1b77,2021-09-08_16h13.46.560,forced_choiceRT,2021.1.2,Win32,60.13590715,,,,,,,,5,Ontime,h,0,2.0327,9,0,36,1,1,,,,,
,1.81,,,,,,,,,h.PNG,h,5e53eb33ef87a902f39b1b77,2021-09-08_16h13.46.560,forced_choiceRT,2021.1.2,Win32,60.13590715,,,,,,,,5,Ontime,h,1,2.0502,9,1,37,2,1,,,,,
,1.18,,,,,,,,,h.PNG,h,5e53eb33ef87a902f39b1b77,2021-09-08_16h13.46.560,forced_choiceRT,2021.1.2,Win32,60.13590715,,,,,,,,5,Fast,h,1,1.9,9,2,38,2,1,,,,,
,1.44,,,,,,,,,f.PNG,f,5e53eb33ef87a902f39b1b77,2021-09-08_16h13.46.560,forced_choiceRT,2021.1.2,Win32,60.13590715,,,,,,,,5,Ontime,f,1,2.0694,9,3,39,0,1,,,,,
,,,,,,,,,,,,5e53eb33ef87a902f39b1b77,2021-09-08_16h13.46.560,forced_choiceRT,2021.1.2,Win32,60.13590715,,,,,,,,,,,,,,,,,,4,0,4,0,1
,0.8,,,,,,,,,f.PNG,f,5e53eb33ef87a902f39b1b77,2021-09-08_16h13.46.560,forced_choiceRT,2021.1.2,Win32,60.13590715,,,,,,,,6,Ontime,f,1,2.0761,0,0,0,0,1,,,,,
,1.28,,,,,,,,,h.PNG,h,5e53eb33ef87a902f39b1b77,2021-09-08_16h13.46.560,forced_choiceRT,2021.1.2,Win32,60.13590715,,,,,,,,6,Ontime,h,1,1.9836,0,1,1,2,1,,,,,
,1.21,,,,,,,,,g.PNG,g,5e53eb33ef87a902f39b1b77,2021-09-08_16h13.46.560,forced_choiceRT,2021.1.2,Win32,60.13590715,,,,,,,,6,Ontime,g,1,1.9649,0,2,2,1,1,,,,,
,0.42,,,,,,,,,j.PNG,j,5e53eb33ef87a902f39b1b77,2021-09-08_16h13.46.560,forced_choiceRT,2021.1.2,Win32,60.13590715,,,,,,,,6,Ontime,j,1,2.0221,0,3,3,3,1,,,,,
,1.54,,,,,,,,,j.PNG,j,5e53eb33ef87a902f39b1b77,2021-09-08_16h13.46.560,forced_choiceRT,2021.1.2,Win32,60.13590715,,,,,,,,6,Slow,j,1,2.1031,1,0,4,3,1,,,,,
,1.06,,,,,,,,,g.PNG,g,5e53eb33ef87a902f39b1b77,2021-09-08_16h13.46.560,forced_choiceRT,2021.1.2,Win32,60.13590715,,,,,,,,6,Ontime,g,1,2.0727,1,1,5,1,1,,,,,
,0.1,,,,,,,,,f.PNG,f,5e53eb33ef87a902f39b1b77,2021-09-08_16h13.46.560,forced_choiceRT,2021.1.2,Win32,60.13590715,,,,,,,,6,Ontime,f,1,2.0027,1,2,6,0,1,,,,,
,0.12,,,,,,,,,g.PNG,g,5e53eb33ef87a902f39b1b77,2021-09-08_16h13.46.560,forced_choiceRT,2021.1.2,Win32,60.13590715,,,,,,,,6,Ontime,g,1,2.0041,1,3,7,1,1,,,,,
,1.33,,,,,,,,,g.PNG,g,5e53eb33ef87a902f39b1b77,2021-09-08_16h13.46.560,forced_choiceRT,2021.1.2,Win32,60.13590715,,,,,,,,6,Ontime,g,1,1.9654,2,0,8,1,1,,,,,
,1.8,,,,,,,,,j.PNG,j,5e53eb33ef87a902f39b1b77,2021-09-08_16h13.46.560,forced_choiceRT,2021.1.2,Win32,60.13590715,,,,,,,,6,Ontime,h,0,2.0359,2,1,9,3,1,,,,,
,1.95,,,,,,,,,f.PNG,f,5e53eb33ef87a902f39b1b77,2021-09-08_16h13.46.560,forced_choiceRT,2021.1.2,Win32,60.13590715,,,,,,,,6,Ontime,h,0,2.0761,2,2,10,0,1,,,,,
,0.76,,,,,,,,,g.PNG,g,5e53eb33ef87a902f39b1b77,2021-09-08_16h13.46.560,forced_choiceRT,2021.1.2,Win32,60.13590715,,,,,,,,6,Ontime,g,1,2.0346,2,3,11,1,1,,,,,
,1.56,,,,,,,,,h.PNG,h,5e53eb33ef87a902f39b1b77,2021-09-08_16h13.46.560,forced_choiceRT,2021.1.2,Win32,60.13590715,,,,,,,,6,Ontime,h,1,2.0348,3,0,12,2,1,,,,,
,0.44,,,,,,,,,g.PNG,g,5e53eb33ef87a902f39b1b77,2021-09-08_16h13.46.560,forced_choiceRT,2021.1.2,Win32,60.13590715,,,,,,,,6,Ontime,g,1,1.9826,3,1,13,1,1,,,,,
,1.62,,,,,,,,,j.PNG,j,5e53eb33ef87a902f39b1b77,2021-09-08_16h13.46.560,forced_choiceRT,2021.1.2,Win32,60.13590715,,,,,,,,6,Ontime,j,1,1.9018,3,2,14,3,1,,,,,
,0.82,,,,,,,,,h.PNG,h,5e53eb33ef87a902f39b1b77,2021-09-08_16h13.46.560,forced_choiceRT,2021.1.2,Win32,60.13590715,,,,,,,,6,Ontime,h,1,1.9665,3,3,15,2,1,,,,,
,0.41,,,,,,,,,f.PNG,f,5e53eb33ef87a902f39b1b77,2021-09-08_16h13.46.560,forced_choiceRT,2021.1.2,Win32,60.13590715,,,,,,,,6,Ontime,f,1,2.0265,4,0,16,0,1,,,,,
,1.6,,,,,,,,,f.PNG,f,5e53eb33ef87a902f39b1b77,2021-09-08_16h13.46.560,forced_choiceRT,2021.1.2,Win32,60.13590715,,,,,,,,6,Ontime,j,0,1.9511,4,1,17,0,1,,,,,
,0.79,,,,,,,,,f.PNG,f,5e53eb33ef87a902f39b1b77,2021-09-08_16h13.46.560,forced_choiceRT,2021.1.2,Win32,60.13590715,,,,,,,,6,Ontime,f,1,1.9659,4,2,18,0,1,,,,,
,1.94,,,,,,,,,h.PNG,h,5e53eb33ef87a902f39b1b77,2021-09-08_16h13.46.560,forced_choiceRT,2021.1.2,Win32,60.13590715,,,,,,,,6,Ontime,h,1,2.029,4,3,19,2,1,,,,,
,1.13,,,,,,,,,g.PNG,g,5e53eb33ef87a902f39b1b77,2021-09-08_16h13.46.560,forced_choiceRT,2021.1.2,Win32,60.13590715,,,,,,,,6,Fast,g,1,1.8894,5,0,20,1,1,,,,,
,0.35,,,,,,,,,f.PNG,f,5e53eb33ef87a902f39b1b77,2021-09-08_16h13.46.560,forced_choiceRT,2021.1.2,Win32,60.13590715,,,,,,,,6,Ontime,f,1,1.966,5,1,21,0,1,,,,,
,1.16,,,,,,,,,h.PNG,h,5e53eb33ef87a902f39b1b77,2021-09-08_16h13.46.560,forced_choiceRT,2021.1.2,Win32,60.13590715,,,,,,,,6,Ontime,h,1,1.99,5,2,22,2,1,,,,,
,0.9,,,,,,,,,j.PNG,j,5e53eb33ef87a902f39b1b77,2021-09-08_16h13.46.560,forced_choiceRT,2021.1.2,Win32,60.13590715,,,,,,,,6,Ontime,j,1,2.0505,5,3,23,3,1,,,,,
,0.92,,,,,,,,,g.PNG,g,5e53eb33ef87a902f39b1b77,2021-09-08_16h13.46.560,forced_choiceRT,2021.1.2,Win32,60.13590715,,,,,,,,6,Ontime,g,1,1.97,6,0,24,1,1,,,,,
,0.52,,,,,,,,,h.PNG,h,5e53eb33ef87a902f39b1b77,2021-09-08_16h13.46.560,forced_choiceRT,2021.1.2,Win32,60.13590715,,,,,,,,6,Ontime,h,1,1.9813,6,1,25,2,1,,,,,
,1.05,,,,,,,,,g.PNG,g,5e53eb33ef87a902f39b1b77,2021-09-08_16h13.46.560,forced_choiceRT,2021.1.2,Win32,60.13590715,,,,,,,,6,Ontime,g,1,2.0178,6,2,26,1,1,,,,,
,0.48,,,,,,,,,j.PNG,j,5e53eb33ef87a902f39b1b77,2021-09-08_16h13.46.560,forced_choiceRT,2021.1.2,Win32,60.13590715,,,,,,,,6,Ontime,j,1,2.0361,6,3,27,3,1,,,,,
,1.32,,,,,,,,,f.PNG,f,5e53eb33ef87a902f39b1b77,2021-09-08_16h13.46.560,forced_choiceRT,2021.1.2,Win32,60.13590715,,,,,,,,6,Ontime,g,0,2.0498,7,0,28,0,1,,,,,
,0.4,,,,,,,,,j.PNG,j,5e53eb33ef87a902f39b1b77,2021-09-08_16h13.46.560,forced_choiceRT,2021.1.2,Win32,60.13590715,,,,,,,,6,Ontime,j,1,1.9994,7,1,29,3,1,,,,,
,0.98,,,,,,,,,f.PNG,f,5e53eb33ef87a902f39b1b77,2021-09-08_16h13.46.560,forced_choiceRT,2021.1.2,Win32,60.13590715,,,,,,,,6,Ontime,f,1,2.037,7,2,30,0,1,,,,,
,0.55,,,,,,,,,f.PNG,f,5e53eb33ef87a902f39b1b77,2021-09-08_16h13.46.560,forced_choiceRT,2021.1.2,Win32,60.13590715,,,,,,,,6,Ontime,f,1,2.0066,7,3,31,0,1,,,,,
,1.71,,,,,,,,,h.PNG,h,5e53eb33ef87a902f39b1b77,2021-09-08_16h13.46.560,forced_choiceRT,2021.1.2,Win32,60.13590715,,,,,,,,6,Ontime,j,0,2.0018,8,0,32,2,1,,,,,
,0.29,,,,,,,,,j.PNG,j,5e53eb33ef87a902f39b1b77,2021-09-08_16h13.46.560,forced_choiceRT,2021.1.2,Win32,60.13590715,,,,,,,,6,Ontime,j,1,2.0402,8,1,33,3,1,,,,,
,1.71,,,,,,,,,h.PNG,h,5e53eb33ef87a902f39b1b77,2021-09-08_16h13.46.560,forced_choiceRT,2021.1.2,Win32,60.13590715,,,,,,,,6,Ontime,h,1,2.0405,8,2,34,2,1,,,,,
,0.35,,,,,,,,,h.PNG,h,5e53eb33ef87a902f39b1b77,2021-09-08_16h13.46.560,forced_choiceRT,2021.1.2,Win32,60.13590715,,,,,,,,6,Ontime,h,1,1.9259,8,3,35,2,1,,,,,
,0.72,,,,,,,,,h.PNG,h,5e53eb33ef87a902f39b1b77,2021-09-08_16h13.46.560,forced_choiceRT,2021.1.2,Win32,60.13590715,,,,,,,,6,Ontime,h,1,1.9523,9,0,36,2,1,,,,,
,1.67,,,,,,,,,j.PNG,j,5e53eb33ef87a902f39b1b77,2021-09-08_16h13.46.560,forced_choiceRT,2021.1.2,Win32,60.13590715,,,,,,,,6,Ontime,j,1,2.0154,9,1,37,3,1,,,,,
,0.62,,,,,,,,,g.PNG,g,5e53eb33ef87a902f39b1b77,2021-09-08_16h13.46.560,forced_choiceRT,2021.1.2,Win32,60.13590715,,,,,,,,6,Fast,g,1,1.8825,9,2,38,1,1,,,,,
,1.45,,,,,,,,,j.PNG,j,5e53eb33ef87a902f39b1b77,2021-09-08_16h13.46.560,forced_choiceRT,2021.1.2,Win32,60.13590715,,,,,,,,6,Ontime,j,1,2.0011,9,3,39,3,1,,,,,
,,,,,,,,,,,,5e53eb33ef87a902f39b1b77,2021-09-08_16h13.46.560,forced_choiceRT,2021.1.2,Win32,60.13590715,,,,,,,,,,,,,,,,,,5,0,5,0,1
,1.5,,,,,,,,,f.PNG,f,5e53eb33ef87a902f39b1b77,2021-09-08_16h13.46.560,forced_choiceRT,2021.1.2,Win32,60.13590715,,,,,,,,7,Ontime,g,0,2.0626,0,0,0,0,1,,,,,
,0.17,,,,,,,,,h.PNG,h,5e53eb33ef87a902f39b1b77,2021-09-08_16h13.46.560,forced_choiceRT,2021.1.2,Win32,60.13590715,,,,,,,,7,Ontime,h,1,1.9514,0,1,1,2,1,,,,,
,1.5,,,,,,,,,h.PNG,h,5e53eb33ef87a902f39b1b77,2021-09-08_16h13.46.560,forced_choiceRT,2021.1.2,Win32,60.13590715,,,,,,,,7,Ontime,j,0,1.9662,0,2,2,2,1,,,,,
,1.52,,,,,,,,,g.PNG,g,5e53eb33ef87a902f39b1b77,2021-09-08_16h13.46.560,forced_choiceRT,2021.1.2,Win32,60.13590715,,,,,,,,7,Ontime,h,0,2.0331,0,3,3,1,1,,,,,
,0.23,,,,,,,,,h.PNG,h,5e53eb33ef87a902f39b1b77,2021-09-08_16h13.46.560,forced_choiceRT,2021.1.2,Win32,60.13590715,,,,,,,,7,Ontime,h,1,2.001,1,0,4,2,1,,,,,
,0.76,,,,,,,,,f.PNG,f,5e53eb33ef87a902f39b1b77,2021-09-08_16h13.46.560,forced_choiceRT,2021.1.2,Win32,60.13590715,,,,,,,,7,Ontime,f,1,1.9815,1,1,5,0,1,,,,,
,0.34,,,,,,,,,h.PNG,h,5e53eb33ef87a902f39b1b77,2021-09-08_16h13.46.560,forced_choiceRT,2021.1.2,Win32,60.13590715,,,,,,,,7,Ontime,h,1,1.9676,1,2,6,2,1,,,,,
,0.73,,,,,,,,,g.PNG,g,5e53eb33ef87a902f39b1b77,2021-09-08_16h13.46.560,forced_choiceRT,2021.1.2,Win32,60.13590715,,,,,,,,7,Ontime,g,1,2.0117,1,3,7,1,1,,,,,
,1.16,,,,,,,,,j.PNG,j,5e53eb33ef87a902f39b1b77,2021-09-08_16h13.46.560,forced_choiceRT,2021.1.2,Win32,60.13590715,,,,,,,,7,Ontime,j,1,2.0179,2,0,8,3,1,,,,,
,0.33,,,,,,,,,g.PNG,g,5e53eb33ef87a902f39b1b77,2021-09-08_16h13.46.560,forced_choiceRT,2021.1.2,Win32,60.13590715,,,,,,,,7,Ontime,g,1,1.9659,2,1,9,1,1,,,,,
,0.89,,,,,,,,,h.PNG,h,5e53eb33ef87a902f39b1b77,2021-09-08_16h13.46.560,forced_choiceRT,2021.1.2,Win32,60.13590715,,,,,,,,7,Ontime,h,1,1.9781,2,2,10,2,1,,,,,
,1.76,,,,,,,,,j.PNG,j,5e53eb33ef87a902f39b1b77,2021-09-08_16h13.46.560,forced_choiceRT,2021.1.2,Win32,60.13590715,,,,,,,,7,Ontime,h,0,2.0055,2,3,11,3,1,,,,,
,1.86,,,,,,,,,f.PNG,f,5e53eb33ef87a902f39b1b77,2021-09-08_16h13.46.560,forced_choiceRT,2021.1.2,Win32,60.13590715,,,,,,,,7,Ontime,j,0,2.0669,3,0,12,0,1,,,,,
,1.34,,,,,,,,,g.PNG,g,5e53eb33ef87a902f39b1b77,2021-09-08_16h13.46.560,forced_choiceRT,2021.1.2,Win32,60.13590715,,,,,,,,7,Ontime,g,1,2.0508,3,1,13,1,1,,,,,
,1.49,,,,,,,,,h.PNG,h,5e53eb33ef87a902f39b1b77,2021-09-08_16h13.46.560,forced_choiceRT,2021.1.2,Win32,60.13590715,,,,,,,,7,Fast,h,1,1.8833,3,2,14,2,1,,,,,
,0.44,,,,,,,,,g.PNG,g,5e53eb33ef87a902f39b1b77,2021-09-08_16h13.46.560,forced_choiceRT,2021.1.2,Win32,60.13590715,,,,,,,,7,Ontime,g,1,1.9994,3,3,15,1,1,,,,,
,0.98,,,,,,,,,g.PNG,g,5e53eb33ef87a902f39b1b77,2021-09-08_16h13.46.560,forced_choiceRT,2021.1.2,Win32,60.13590715,,,,,,,,7,Ontime,g,1,2.0036,4,0,16,1,1,,,,,
,0.58,,,,,,,,,h.PNG,h,5e53eb33ef87a902f39b1b77,2021-09-08_16h13.46.560,forced_choiceRT,2021.1.2,Win32,60.13590715,,,,,,,,7,Ontime,h,1,1.9762,4,1,17,2,1,,,,,
,1.54,,,,,,,,,j.PNG,j,5e53eb33ef87a902f39b1b77,2021-09-08_16h13.46.560,forced_choiceRT,2021.1.2,Win32,60.13590715,,,,,,,,7,Ontime,j,1,1.948,4,2,18,3,1,,,,,
,1.78,,,,,,,,,f.PNG,f,5e53eb33ef87a902f39b1b77,2021-09-08_16h13.46.560,forced_choiceRT,2021.1.2,Win32,60.13590715,,,,,,,,7,Slow,f,1,2.1045,4,3,19,0,1,,,,,
,1.89,,,,,,,,,g.PNG,g,5e53eb33ef87a902f39b1b77,2021-09-08_16h13.46.560,forced_choiceRT,2021.1.2,Win32,60.13590715,,,,,,,,7,Ontime,j,0,2.0384,5,0,20,1,1,,,,,
,0.48,,,,,,,,,g.PNG,g,5e53eb33ef87a902f39b1b77,2021-09-08_16h13.46.560,forced_choiceRT,2021.1.2,Win32,60.13590715,,,,,,,,7,Ontime,g,1,1.9502,5,1,21,1,1,,,,,
,1.29,,,,,,,,,j.PNG,j,5e53eb33ef87a902f39b1b77,2021-09-08_16h13.46.560,forced_choiceRT,2021.1.2,Win32,60.13590715,,,,,,,,7,Ontime,j,1,1.9012,5,2,22,3,1,,,,,
,1.86,,,,,,,,,j.PNG,j,5e53eb33ef87a902f39b1b77,2021-09-08_16h13.46.560,forced_choiceRT,2021.1.2,Win32,60.13590715,,,,,,,,7,Ontime,f,0,1.9392,5,3,23,3,1,,,,,
,0.21,,,,,,,,,h.PNG,h,5e53eb33ef87a902f39b1b77,2021-09-08_16h13.46.560,forced_choiceRT,2021.1.2,Win32,60.13590715,,,,,,,,7,Ontime,h,1,1.957,6,0,24,2,1,,,,,
,0.66,,,,,,,,,j.PNG,j,5e53eb33ef87a902f39b1b77,2021-09-08_16h13.46.560,forced_choiceRT,2021.1.2,Win32,60.13590715,,,,,,,,7,Ontime,j,1,1.924,6,1,25,3,1,,,,,
,0.52,,,,,,,,,j.PNG,j,5e53eb33ef87a902f39b1b77,2021-09-08_16h13.46.560,forced_choiceRT,2021.1.2,Win32,60.13590715,,,,,,,,7,Ontime,j,1,1.982,6,2,26,3,1,,,,,
,0.79,,,,,,,,,j.PNG,j,5e53eb33ef87a902f39b1b77,2021-09-08_16h13.46.560,forced_choiceRT,2021.1.2,Win32,60.13590715,,,,,,,,7,Ontime,j,1,1.9527,6,3,27,3,1,,,,,
,1.53,,,,,,,,,h.PNG,h,5e53eb33ef87a902f39b1b77,2021-09-08_16h13.46.560,forced_choiceRT,2021.1.2,Win32,60.13590715,,,,,,,,7,Ontime,h,1,1.921,7,0,28,2,1,,,,,
,1.32,,,,,,,,,f.PNG,f,5e53eb33ef87a902f39b1b77,2021-09-08_16h13.46.560,forced_choiceRT,2021.1.2,Win32,60.13590715,,,,,,,,7,Fast,f,1,1.8489,7,1,29,0,1,,,,,
,0.76,,,,,,,,,f.PNG,f,5e53eb33ef87a902f39b1b77,2021-09-08_16h13.46.560,forced_choiceRT,2021.1.2,Win32,60.13590715,,,,,,,,7,Ontime,f,1,1.9484,7,2,30,0,1,,,,,
,1.41,,,,,,,,,f.PNG,f,5e53eb33ef87a902f39b1b77,2021-09-08_16h13.46.560,forced_choiceRT,2021.1.2,Win32,60.13590715,,,,,,,,7,Ontime,f,1,1.9376,7,3,31,0,1,,,,,
,1.46,,,,,,,,,g.PNG,g,5e53eb33ef87a902f39b1b77,2021-09-08_16h13.46.560,forced_choiceRT,2021.1.2,Win32,60.13590715,,,,,,,,7,Ontime,g,1,2.0082,8,0,32,1,1,,,,,
,1.52,,,,,,,,,f.PNG,f,5e53eb33ef87a902f39b1b77,2021-09-08_16h13.46.560,forced_choiceRT,2021.1.2,Win32,60.13590715,,,,,,,,7,Ontime,h,0,2.02,8,1,33,0,1,,,,,
,0.59,,,,,,,,,j.PNG,j,5e53eb33ef87a902f39b1b77,2021-09-08_16h13.46.560,forced_choiceRT,2021.1.2,Win32,60.13590715,,,,,,,,7,Ontime,j,1,2.0096,8,2,34,3,1,,,,,
,1.36,,,,,,,,,h.PNG,h,5e53eb33ef87a902f39b1b77,2021-09-08_16h13.46.560,forced_choiceRT,2021.1.2,Win32,60.13590715,,,,,,,,7,Ontime,h,1,1.9164,8,3,35,2,1,,,,,
,0.62,,,,,,,,,g.PNG,g,5e53eb33ef87a902f39b1b77,2021-09-08_16h13.46.560,forced_choiceRT,2021.1.2,Win32,60.13590715,,,,,,,,7,Ontime,g,1,1.9487,9,0,36,1,1,,,,,
,0.03,,,,,,,,,f.PNG,f,5e53eb33ef87a902f39b1b77,2021-09-08_16h13.46.560,forced_choiceRT,2021.1.2,Win32,60.13590715,,,,,,,,7,Ontime,f,1,2.0573,9,1,37,0,1,,,,,
,0.16,,,,,,,,,j.PNG,j,5e53eb33ef87a902f39b1b77,2021-09-08_16h13.46.560,forced_choiceRT,2021.1.2,Win32,60.13590715,,,,,,,,7,Ontime,j,1,1.9978,9,2,38,3,1,,,,,
,1.47,,,,,,,,,f.PNG,f,5e53eb33ef87a902f39b1b77,2021-09-08_16h13.46.560,forced_choiceRT,2021.1.2,Win32,60.13590715,,,,,,,,7,Ontime,h,0,1.9159,9,3,39,0,1,,,,,
,,,,,,,,,,,,5e53eb33ef87a902f39b1b77,2021-09-08_16h13.46.560,forced_choiceRT,2021.1.2,Win32,60.13590715,,,,,,,,,,,,,,,,,,6,0,6,0,1
,0.66,,,,,,,,,g.PNG,g,5e53eb33ef87a902f39b1b77,2021-09-08_16h13.46.560,forced_choiceRT,2021.1.2,Win32,60.13590715,,,,,,,,8,Ontime,g,1,2.0368,0,0,0,1,1,,,,,
,0.92,,,,,,,,,g.PNG,g,5e53eb33ef87a902f39b1b77,2021-09-08_16h13.46.560,forced_choiceRT,2021.1.2,Win32,60.13590715,,,,,,,,8,Ontime,g,1,2.0179,0,1,1,1,1,,,,,
,0.97,,,,,,,,,f.PNG,f,5e53eb33ef87a902f39b1b77,2021-09-08_16h13.46.560,forced_choiceRT,2021.1.2,Win32,60.13590715,,,,,,,,8,Ontime,f,1,1.9491,0,2,2,0,1,,,,,
,1.57,,,,,,,,,h.PNG,h,5e53eb33ef87a902f39b1b77,2021-09-08_16h13.46.560,forced_choiceRT,2021.1.2,Win32,60.13590715,,,,,,,,8,Ontime,g,0,2.0318,0,3,3,2,1,,,,,
,1.6,,,,,,,,,j.PNG,j,5e53eb33ef87a902f39b1b77,2021-09-08_16h13.46.560,forced_choiceRT,2021.1.2,Win32,60.13590715,,,,,,,,8,Ontime,g,0,2.0332,1,0,4,3,1,,,,,
,0.5,,,,,,,,,h.PNG,h,5e53eb33ef87a902f39b1b77,2021-09-08_16h13.46.560,forced_choiceRT,2021.1.2,Win32,60.13590715,,,,,,,,8,Ontime,h,1,1.9889,1,1,5,2,1,,,,,
,1.51,,,,,,,,,g.PNG,g,5e53eb33ef87a902f39b1b77,2021-09-08_16h13.46.560,forced_choiceRT,2021.1.2,Win32,60.13590715,,,,,,,,8,Fast,g,1,1.8916,1,2,6,1,1,,,,,
,0.14,,,,,,,,,j.PNG,j,5e53eb33ef87a902f39b1b77,2021-09-08_16h13.46.560,forced_choiceRT,2021.1.2,Win32,60.13590715,,,,,,,,8,Ontime,j,1,1.9933,1,3,7,3,1,,,,,
,1.69,,,,,,,,,h.PNG,h,5e53eb33ef87a902f39b1b77,2021-09-08_16h13.46.560,forced_choiceRT,2021.1.2,Win32,60.13590715,,,,,,,,8,Slow,g,0,2.1149,2,0,8,2,1,,,,,
,0.5,,,,,,,,,h.PNG,h,5e53eb33ef87a902f39b1b77,2021-09-08_16h13.46.560,forced_choiceRT,2021.1.2,Win32,60.13590715,,,,,,,,8,Ontime,h,1,1.9864,2,1,9,2,1,,,,,
,0.15,,,,,,,,,j.PNG,j,5e53eb33ef87a902f39b1b77,2021-09-08_16h13.46.560,forced_choiceRT,2021.1.2,Win32,60.13590715,,,,,,,,8,Ontime,j,1,2.0039,2,2,10,3,1,,,,,
,0.39,,,,,,,,,h.PNG,h,5e53eb33ef87a902f39b1b77,2021-09-08_16h13.46.560,forced_choiceRT,2021.1.2,Win32,60.13590715,,,,,,,,8,Ontime,h,1,1.9905,2,3,11,2,1,,,,,
,1.06,,,,,,,,,f.PNG,f,5e53eb33ef87a902f39b1b77,2021-09-08_16h13.46.560,forced_choiceRT,2021.1.2,Win32,60.13590715,,,,,,,,8,Ontime,f,1,2.0232,3,0,12,0,1,,,,,
,0.67,,,,,,,,,g.PNG,g,5e53eb33ef87a902f39b1b77,2021-09-08_16h13.46.560,forced_choiceRT,2021.1.2,Win32,60.13590715,,,,,,,,8,Ontime,g,1,1.9976,3,1,13,1,1,,,,,
,0.07,,,,,,,,,g.PNG,g,5e53eb33ef87a902f39b1b77,2021-09-08_16h13.46.560,forced_choiceRT,2021.1.2,Win32,60.13590715,,,,,,,,8,Ontime,g,1,1.9403,3,2,14,1,1,,,,,
,1.86,,,,,,,,,h.PNG,h,5e53eb33ef87a902f39b1b77,2021-09-08_16h13.46.560,forced_choiceRT,2021.1.2,Win32,60.13590715,,,,,,,,8,Ontime,h,1,2.0388,3,3,15,2,1,,,,,
,0.42,,,,,,,,,j.PNG,j,5e53eb33ef87a902f39b1b77,2021-09-08_16h13.46.560,forced_choiceRT,2021.1.2,Win32,60.13590715,,,,,,,,8,Ontime,j,1,2.0029,4,0,16,3,1,,,,,
,0.09,,,,,,,,,f.PNG,f,5e53eb33ef87a902f39b1b77,2021-09-08_16h13.46.560,forced_choiceRT,2021.1.2,Win32,60.13590715,,,,,,,,8,Ontime,f,1,2.0538,4,1,17,0,1,,,,,
,0.28,,,,,,,,,j.PNG,j,5e53eb33ef87a902f39b1b77,2021-09-08_16h13.46.560,forced_choiceRT,2021.1.2,Win32,60.13590715,,,,,,,,8,Ontime,j,1,1.9992,4,2,18,3,1,,,,,
,0.88,,,,,,,,,f.PNG,f,5e53eb33ef87a902f39b1b77,2021-09-08_16h13.46.560,forced_choiceRT,2021.1.2,Win32,60.13590715,,,,,,,,8,Ontime,f,1,2.0063,4,3,19,0,1,,,,,
,1.72,,,,,,,,,h.PNG,h,5e53eb33ef87a902f39b1b77,2021-09-08_16h13.46.560,forced_choiceRT,2021.1.2,Win32,60.13590715,,,,,,,,8,Ontime,j,0,2.0684,5,0,20,2,1,,,,,
,0.64,,,,,,,,,f.PNG,f,5e53eb33ef87a902f39b1b77,2021-09-08_16h13.46.560,forced_choiceRT,2021.1.2,Win32,60.13590715,,,,,,,,8,Ontime,f,1,2.0174,5,1,21,0,1,,,,,
,1.23,,,,,,,,,g.PNG,g,5e53eb33ef87a902f39b1b77,2021-09-08_16h13.46.560,forced_choiceRT,2021.1.2,Win32,60.13590715,,,,,,,,8,Ontime,g,1,1.9263,5,2,22,1,1,,,,,
,0.11,,,,,,,,,f.PNG,f,5e53eb33ef87a902f39b1b77,2021-09-08_16h13.46.560,forced_choiceRT,2021.1.2,Win32,60.13590715,,,,,,,,8,Ontime,f,1,1.989,5,3,23,0,1,,,,,
,0.96,,,,,,,,,f.PNG,f,5e53eb33ef87a902f39b1b77,2021-09-08_16h13.46.560,forced_choiceRT,2021.1.2,Win32,60.13590715,,,,,,,,8,Ontime,f,1,1.9889,6,0,24,0,1,,,,,
,1.01,,,,,,,,,h.PNG,h,5e53eb33ef87a902f39b1b77,2021-09-08_16h13.46.560,forced_choiceRT,2021.1.2,Win32,60.13590715,,,,,,,,8,Ontime,h,1,1.9514,6,1,25,2,1,,,,,
,1.69,,,,,,,,,j.PNG,j,5e53eb33ef87a902f39b1b77,2021-09-08_16h13.46.560,forced_choiceRT,2021.1.2,Win32,60.13590715,,,,,,,,8,Ontime,j,1,1.9566,6,2,26,3,1,,,,,
,0.04,,,,,,,,,f.PNG,f,5e53eb33ef87a902f39b1b77,2021-09-08_16h13.46.560,forced_choiceRT,2021.1.2,Win32,60.13590715,,,,,,,,8,Ontime,f,1,1.9518,6,3,27,0,1,,,,,
,0.51,,,,,,,,,g.PNG,g,5e53eb33ef87a902f39b1b77,2021-09-08_16h13.46.560,forced_choiceRT,2021.1.2,Win32,60.13590715,,,,,,,,8,Ontime,g,1,2.022,7,0,28,1,1,,,,,
,0.73,,,,,,,,,g.PNG,g,5e53eb33ef87a902f39b1b77,2021-09-08_16h13.46.560,forced_choiceRT,2021.1.2,Win32,60.13590715,,,,,,,,8,Ontime,g,1,1.9996,7,1,29,1,1,,,,,
,1.38,,,,,,,,,f.PNG,f,5e53eb33ef87a902f39b1b77,2021-09-08_16h13.46.560,forced_choiceRT,2021.1.2,Win32,60.13590715,,,,,,,,8,Ontime,f,1,1.9664,7,2,30,0,1,,,,,
,1.66,,,,,,,,,g.PNG,g,5e53eb33ef87a902f39b1b77,2021-09-08_16h13.46.560,forced_choiceRT,2021.1.2,Win32,60.13590715,,,,,,,,8,Ontime,h,0,2.0156,7,3,31,1,1,,,,,
,0.07,,,,,,,,,h.PNG,h,5e53eb33ef87a902f39b1b77,2021-09-08_16h13.46.560,forced_choiceRT,2021.1.2,Win32,60.13590715,,,,,,,,8,Ontime,h,1,1.9661,8,0,32,2,1,,,,,
,0.18,,,,,,,,,j.PNG,j,5e53eb33ef87a902f39b1b77,2021-09-08_16h13.46.560,forced_choiceRT,2021.1.2,Win32,60.13590715,,,,,,,,8,Ontime,j,1,2.0348,8,1,33,3,1,,,,,
,0.38,,,,,,,,,g.PNG,g,5e53eb33ef87a902f39b1b77,2021-09-08_16h13.46.560,forced_choiceRT,2021.1.2,Win32,60.13590715,,,,,,,,8,Ontime,g,1,2.0663,8,2,34,1,1,,,,,
,0.18,,,,,,,,,h.PNG,h,5e53eb33ef87a902f39b1b77,2021-09-08_16h13.46.560,forced_choiceRT,2021.1.2,Win32,60.13590715,,,,,,,,8,Ontime,h,1,2.0356,8,3,35,2,1,,,,,
,0.63,,,,,,,,,j.PNG,j,5e53eb33ef87a902f39b1b77,2021-09-08_16h13.46.560,forced_choiceRT,2021.1.2,Win32,60.13590715,,,,,,,,8,Ontime,j,1,2.0487,9,0,36,3,1,,,,,
,1.88,,,,,,,,,j.PNG,j,5e53eb33ef87a902f39b1b77,2021-09-08_16h13.46.560,forced_choiceRT,2021.1.2,Win32,60.13590715,,,,,,,,8,Ontime,h,0,2.0922,9,1,37,3,1,,,,,
,0.79,,,,,,,,,j.PNG,j,5e53eb33ef87a902f39b1b77,2021-09-08_16h13.46.560,forced_choiceRT,2021.1.2,Win32,60.13590715,,,,,,,,8,Ontime,j,1,2.0375,9,2,38,3,1,,,,,
,1.7,,,,,,,,,f.PNG,f,5e53eb33ef87a902f39b1b77,2021-09-08_16h13.46.560,forced_choiceRT,2021.1.2,Win32,60.13590715,,,,,,,,8,Ontime,h,0,1.9561,9,3,39,0,1,,,,,
,,,,,,,,,,,,5e53eb33ef87a902f39b1b77,2021-09-08_16h13.46.560,forced_choiceRT,2021.1.2,Win32,60.13590715,,,,,,,,,,,,,,,,,,7,0,7,0,1
,0.26,,,,,,,,,h.PNG,h,5e53eb33ef87a902f39b1b77,2021-09-08_16h13.46.560,forced_choiceRT,2021.1.2,Win32,60.13590715,,,,,,,,9,Ontime,h,1,2.016,0,0,0,2,1,,,,,
,0.33,,,,,,,,,j.PNG,j,5e53eb33ef87a902f39b1b77,2021-09-08_16h13.46.560,forced_choiceRT,2021.1.2,Win32,60.13590715,,,,,,,,9,Ontime,j,1,2.0479,0,1,1,3,1,,,,,
,1.12,,,,,,,,,h.PNG,h,5e53eb33ef87a902f39b1b77,2021-09-08_16h13.46.560,forced_choiceRT,2021.1.2,Win32,60.13590715,,,,,,,,9,Ontime,h,1,2.0531,0,2,2,2,1,,,,,
,0.76,,,,,,,,,f.PNG,f,5e53eb33ef87a902f39b1b77,2021-09-08_16h13.46.560,forced_choiceRT,2021.1.2,Win32,60.13590715,,,,,,,,9,Ontime,f,1,2.025,0,3,3,0,1,,,,,
,1.04,,,,,,,,,g.PNG,g,5e53eb33ef87a902f39b1b77,2021-09-08_16h13.46.560,forced_choiceRT,2021.1.2,Win32,60.13590715,,,,,,,,9,Ontime,g,1,2.003,1,0,4,1,1,,,,,
,1.1,,,,,,,,,j.PNG,j,5e53eb33ef87a902f39b1b77,2021-09-08_16h13.46.560,forced_choiceRT,2021.1.2,Win32,60.13590715,,,,,,,,9,Ontime,j,1,2.0056,1,1,5,3,1,,,,,
,0.61,,,,,,,,,h.PNG,h,5e53eb33ef87a902f39b1b77,2021-09-08_16h13.46.560,forced_choiceRT,2021.1.2,Win32,60.13590715,,,,,,,,9,Ontime,h,1,2.0479,1,2,6,2,1,,,,,
,0.04,,,,,,,,,h.PNG,h,5e53eb33ef87a902f39b1b77,2021-09-08_16h13.46.560,forced_choiceRT,2021.1.2,Win32,60.13590715,,,,,,,,9,Ontime,h,1,2.0391,1,3,7,2,1,,,,,
,1.83,,,,,,,,,g.PNG,g,5e53eb33ef87a902f39b1b77,2021-09-08_16h13.46.560,forced_choiceRT,2021.1.2,Win32,60.13590715,,,,,,,,9,Ontime,j,0,2.0758,2,0,8,1,1,,,,,
,1.57,,,,,,,,,j.PNG,j,5e53eb33ef87a902f39b1b77,2021-09-08_16h13.46.560,forced_choiceRT,2021.1.2,Win32,60.13590715,,,,,,,,9,Ontime,g,0,2.0815,2,1,9,3,1,,,,,
,0.61,,,,,,,,,g.PNG,g,5e53eb33ef87a902f39b1b77,2021-09-08_16h13.46.560,forced_choiceRT,2021.1.2,Win32,60.13590715,,,,,,,,9,Ontime,g,1,1.9934,2,2,10,1,1,,,,,
,0.33,,,,,,,,,f.PNG,f,5e53eb33ef87a902f39b1b77,2021-09-08_16h13.46.560,forced_choiceRT,2021.1.2,Win32,60.13590715,,,,,,,,9,Ontime,f,1,2.0142,2,3,11,0,1,,,,,
,1.8,,,,,,,,,g.PNG,g,5e53eb33ef87a902f39b1b77,2021-09-08_16h13.46.560,forced_choiceRT,2021.1.2,Win32,60.13590715,,,,,,,,9,Slow,j,0,2.1257,3,0,12,1,1,,,,,
,1.14,,,,,,,,,h.PNG,h,5e53eb33ef87a902f39b1b77,2021-09-08_16h13.46.560,forced_choiceRT,2021.1.2,Win32,60.13590715,,,,,,,,9,Ontime,h,1,2.0037,3,1,13,2,1,,,,,
,1.13,,,,,,,,,j.PNG,j,5e53eb33ef87a902f39b1b77,2021-09-08_16h13.46.560,forced_choiceRT,2021.1.2,Win32,60.13590715,,,,,,,,9,Ontime,j,1,2.0238,3,2,14,3,1,,,,,
,0.01,,,,,,,,,h.PNG,h,5e53eb33ef87a902f39b1b77,2021-09-08_16h13.46.560,forced_choiceRT,2021.1.2,Win32,60.13590715,,,,,,,,9,Ontime,h,1,2.0158,3,3,15,2,1,,,,,
,0.76,,,,,,,,,g.PNG,g,5e53eb33ef87a902f39b1b77,2021-09-08_16h13.46.560,forced_choiceRT,2021.1.2,Win32,60.13590715,,,,,,,,9,Ontime,g,1,2.0275,4,0,16,1,1,,,,,
,1.63,,,,,,,,,j.PNG,j,5e53eb33ef87a902f39b1b77,2021-09-08_16h13.46.560,forced_choiceRT,2021.1.2,Win32,60.13590715,,,,,,,,9,Ontime,h,0,1.9244,4,1,17,3,1,,,,,
,0.68,,,,,,,,,f.PNG,f,5e53eb33ef87a902f39b1b77,2021-09-08_16h13.46.560,forced_choiceRT,2021.1.2,Win32,60.13590715,,,,,,,,9,Ontime,f,1,1.9774,4,2,18,0,1,,,,,
,0.35,,,,,,,,,g.PNG,g,5e53eb33ef87a902f39b1b77,2021-09-08_16h13.46.560,forced_choiceRT,2021.1.2,Win32,60.13590715,,,,,,,,9,Ontime,g,1,1.9928,4,3,19,1,1,,,,,
,1.72,,,,,,,,,f.PNG,f,5e53eb33ef87a902f39b1b77,2021-09-08_16h13.46.560,forced_choiceRT,2021.1.2,Win32,60.13590715,,,,,,,,9,Fast,j,0,1.7673,5,0,20,0,1,,,,,
,1.49,,,,,,,,,g.PNG,g,5e53eb33ef87a902f39b1b77,2021-09-08_16h13.46.560,forced_choiceRT,2021.1.2,Win32,60.13590715,,,,,,,,9,Ontime,h,0,2.0046,5,1,21,1,1,,,,,
,1.92,,,,,,,,,j.PNG,j,5e53eb33ef87a902f39b1b77,2021-09-08_16h13.46.560,forced_choiceRT,2021.1.2,Win32,60.13590715,,,,,,,,9,Ontime,f,0,2.0578,5,2,22,3,1,,,,,
,0.38,,,,,,,,,g.PNG,g,5e53eb33ef87a902f39b1b77,2021-09-08_16h13.46.560,forced_choiceRT,2021.1.2,Win32,60.13590715,,,,,,,,9,Ontime,g,1,1.9654,5,3,23,1,1,,,,,
,0.75,,,,,,,,,j.PNG,j,5e53eb33ef87a902f39b1b77,2021-09-08_16h13.46.560,forced_choiceRT,2021.1.2,Win32,60.13590715,,,,,,,,9,Ontime,j,1,1.9402,6,0,24,3,1,,,,,
,1.24,,,,,,,,,g.PNG,g,5e53eb33ef87a902f39b1b77,2021-09-08_16h13.46.560,forced_choiceRT,2021.1.2,Win32,60.13590715,,,,,,,,9,Ontime,g,1,1.923,6,1,25,1,1,,,,,
,1.05,,,,,,,,,f.PNG,f,5e53eb33ef87a902f39b1b77,2021-09-08_16h13.46.560,forced_choiceRT,2021.1.2,Win32,60.13590715,,,,,,,,9,Ontime,f,1,1.9481,6,2,26,0,1,,,,,
,1.34,,,,,,,,,j.PNG,j,5e53eb33ef87a902f39b1b77,2021-09-08_16h13.46.560,forced_choiceRT,2021.1.2,Win32,60.13590715,,,,,,,,9,Ontime,j,1,1.9426,6,3,27,3,1,,,,,
,1.39,,,,,,,,,h.PNG,h,5e53eb33ef87a902f39b1b77,2021-09-08_16h13.46.560,forced_choiceRT,2021.1.2,Win32,60.13590715,,,,,,,,9,Ontime,g,0,2.0655,7,0,28,2,1,,,,,
,1.16,,,,,,,,,f.PNG,f,5e53eb33ef87a902f39b1b77,2021-09-08_16h13.46.560,forced_choiceRT,2021.1.2,Win32,60.13590715,,,,,,,,9,Ontime,f,1,1.9362,7,1,29,0,1,,,,,
,1.37,,,,,,,,,j.PNG,j,5e53eb33ef87a902f39b1b77,2021-09-08_16h13.46.560,forced_choiceRT,2021.1.2,Win32,60.13590715,,,,,,,,9,Ontime,j,1,1.9746,7,2,30,3,1,,,,,
,1.48,,,,,,,,,f.PNG,f,5e53eb33ef87a902f39b1b77,2021-09-08_16h13.46.560,forced_choiceRT,2021.1.2,Win32,60.13590715,,,,,,,,9,Ontime,g,0,1.9688,7,3,31,0,1,,,,,
,0,,,,,,,,,f.PNG,f,5e53eb33ef87a902f39b1b77,2021-09-08_16h13.46.560,forced_choiceRT,2021.1.2,Win32,60.13590715,,,,,,,,9,Ontime,f,1,1.9949,8,0,32,0,1,,,,,
,1.09,,,,,,,,,g.PNG,g,5e53eb33ef87a902f39b1b77,2021-09-08_16h13.46.560,forced_choiceRT,2021.1.2,Win32,60.13590715,,,,,,,,9,Ontime,g,1,1.9762,8,1,33,1,1,,,,,
,1.04,,,,,,,,,h.PNG,h,5e53eb33ef87a902f39b1b77,2021-09-08_16h13.46.560,forced_choiceRT,2021.1.2,Win32,60.13590715,,,,,,,,9,Ontime,h,1,1.973,8,2,34,2,1,,,,,
,1.72,,,,,,,,,h.PNG,h,5e53eb33ef87a902f39b1b77,2021-09-08_16h13.46.560,forced_choiceRT,2021.1.2,Win32,60.13590715,,,,,,,,9,Ontime,j,0,1.9932,8,3,35,2,1,,,,,
,0.69,,,,,,,,,h.PNG,h,5e53eb33ef87a902f39b1b77,2021-09-08_16h13.46.560,forced_choiceRT,2021.1.2,Win32,60.13590715,,,,,,,,9,Ontime,h,1,1.9342,9,0,36,2,1,,,,,
,0.22,,,,,,,,,f.PNG,f,5e53eb33ef87a902f39b1b77,2021-09-08_16h13.46.560,forced_choiceRT,2021.1.2,Win32,60.13590715,,,,,,,,9,Ontime,f,1,1.9679,9,1,37,0,1,,,,,
,0.4,,,,,,,,,j.PNG,j,5e53eb33ef87a902f39b1b77,2021-09-08_16h13.46.560,forced_choiceRT,2021.1.2,Win32,60.13590715,,,,,,,,9,Ontime,j,1,2.017,9,2,38,3,1,,,,,
,0.64,,,,,,,,,f.PNG,f,5e53eb33ef87a902f39b1b77,2021-09-08_16h13.46.560,forced_choiceRT,2021.1.2,Win32,60.13590715,,,,,,,,9,Ontime,f,1,1.9694,9,3,39,0,1,,,,,
,,,,,,,,,,,,5e53eb33ef87a902f39b1b77,2021-09-08_16h13.46.560,forced_choiceRT,2021.1.2,Win32,60.13590715,,,,,,,,,,,,,,,,,,8,0,8,0,1
,0.66,,,,,,,,,h.PNG,h,5e53eb33ef87a902f39b1b77,2021-09-08_16h13.46.560,forced_choiceRT,2021.1.2,Win32,60.13590715,,,,,,,,10,Ontime,h,1,2.0011,0,0,0,2,1,,,,,
,0.03,,,,,,,,,g.PNG,g,5e53eb33ef87a902f39b1b77,2021-09-08_16h13.46.560,forced_choiceRT,2021.1.2,Win32,60.13590715,,,,,,,,10,Fast,g,1,1.6518,0,1,1,1,1,,,,,
,0.98,,,,,,,,,j.PNG,j,5e53eb33ef87a902f39b1b77,2021-09-08_16h13.46.560,forced_choiceRT,2021.1.2,Win32,60.13590715,,,,,,,,10,Ontime,j,1,2.0267,0,2,2,3,1,,,,,
,1.84,,,,,,,,,f.PNG,f,5e53eb33ef87a902f39b1b77,2021-09-08_16h13.46.560,forced_choiceRT,2021.1.2,Win32,60.13590715,,,,,,,,10,Ontime,h,0,2.0308,0,3,3,0,1,,,,,
,1.82,,,,,,,,,f.PNG,f,5e53eb33ef87a902f39b1b77,2021-09-08_16h13.46.560,forced_choiceRT,2021.1.2,Win32,60.13590715,,,,,,,,10,Ontime,f,1,2.0081,1,0,4,0,1,,,,,
,0.89,,,,,,,,,f.PNG,f,5e53eb33ef87a902f39b1b77,2021-09-08_16h13.46.560,forced_choiceRT,2021.1.2,Win32,60.13590715,,,,,,,,10,Ontime,f,1,1.96,1,1,5,0,1,,,,,
,1.44,,,,,,,,,j.PNG,j,5e53eb33ef87a902f39b1b77,2021-09-08_16h13.46.560,forced_choiceRT,2021.1.2,Win32,60.13590715,,,,,,,,10,Ontime,h,0,1.9519,1,2,6,3,1,,,,,
,1.32,,,,,,,,,j.PNG,j,5e53eb33ef87a902f39b1b77,2021-09-08_16h13.46.560,forced_choiceRT,2021.1.2,Win32,60.13590715,,,,,,,,10,Ontime,j,1,1.9829,1,3,7,3,1,,,,,
,1.89,,,,,,,,,g.PNG,g,5e53eb33ef87a902f39b1b77,2021-09-08_16h13.46.560,forced_choiceRT,2021.1.2,Win32,60.13590715,,,,,,,,10,Ontime,h,0,2.0319,2,0,8,1,1,,,,,
,0,,,,,,,,,h.PNG,h,5e53eb33ef87a902f39b1b77,2021-09-08_16h13.46.560,forced_choiceRT,2021.1.2,Win32,60.13590715,,,,,,,,10,Ontime,h,1,1.9466,2,1,9,2,1,,,,,
,1.72,,,,,,,,,j.PNG,j,5e53eb33ef87a902f39b1b77,2021-09-08_16h13.46.560,forced_choiceRT,2021.1.2,Win32,60.13590715,,,,,,,,10,Ontime,j,1,2.0591,2,2,10,3,1,,,,,
,0.68,,,,,,,,,f.PNG,f,5e53eb33ef87a902f39b1b77,2021-09-08_16h13.46.560,forced_choiceRT,2021.1.2,Win32,60.13590715,,,,,,,,10,Ontime,f,1,2.0168,2,3,11,0,1,,,,,
,0.66,,,,,,,,,g.PNG,g,5e53eb33ef87a902f39b1b77,2021-09-08_16h13.46.560,forced_choiceRT,2021.1.2,Win32,60.13590715,,,,,,,,10,Ontime,g,1,1.9823,3,0,12,1,1,,,,,
,0.59,,,,,,,,,f.PNG,f,5e53eb33ef87a902f39b1b77,2021-09-08_16h13.46.560,forced_choiceRT,2021.1.2,Win32,60.13590715,,,,,,,,10,Ontime,f,1,2.0366,3,1,13,0,1,,,,,
,1.58,,,,,,,,,h.PNG,h,5e53eb33ef87a902f39b1b77,2021-09-08_16h13.46.560,forced_choiceRT,2021.1.2,Win32,60.13590715,,,,,,,,10,Ontime,h,1,2.0403,3,2,14,2,1,,,,,
,0.27,,,,,,,,,h.PNG,h,5e53eb33ef87a902f39b1b77,2021-09-08_16h13.46.560,forced_choiceRT,2021.1.2,Win32,60.13590715,,,,,,,,10,Ontime,h,1,2.0238,3,3,15,2,1,,,,,
,1.92,,,,,,,,,g.PNG,g,5e53eb33ef87a902f39b1b77,2021-09-08_16h13.46.560,forced_choiceRT,2021.1.2,Win32,60.13590715,,,,,,,,10,Ontime,j,0,2.0257,4,0,16,1,1,,,,,
,0.64,,,,,,,,,j.PNG,j,5e53eb33ef87a902f39b1b77,2021-09-08_16h13.46.560,forced_choiceRT,2021.1.2,Win32,60.13590715,,,,,,,,10,Ontime,j,1,2.0072,4,1,17,3,1,,,,,
,1.87,,,,,,,,,h.PNG,h,5e53eb33ef87a902f39b1b77,2021-09-08_16h13.46.560,forced_choiceRT,2021.1.2,Win32,60.13590715,,,,,,,,10,Ontime,h,1,2.0775,4,2,18,2,1,,,,,
,0.68,,,,,,,,,f.PNG,f,5e53eb33ef87a902f39b1b77,2021-09-08_16h13.46.560,forced_choiceRT,2021.1.2,Win32,60.13590715,,,,,,,,10,Ontime,f,1,1.9924,4,3,19,0,1,,,,,
,0.87,,,,,,,,,g.PNG,g,5e53eb33ef87a902f39b1b77,2021-09-08_16h13.46.560,forced_choiceRT,2021.1.2,Win32,60.13590715,,,,,,,,10,Ontime,g,1,1.9398,5,0,20,1,1,,,,,
,0.7,,,,,,,,,h.PNG,h,5e53eb33ef87a902f39b1b77,2021-09-08_16h13.46.560,forced_choiceRT,2021.1.2,Win32,60.13590715,,,,,,,,10,Ontime,h,1,2.0337,5,1,21,2,1,,,,,
,0.13,,,,,,,,,h.PNG,h,5e53eb33ef87a902f39b1b77,2021-09-08_16h13.46.560,forced_choiceRT,2021.1.2,Win32,60.13590715,,,,,,,,10,Ontime,h,1,2.0183,5,2,22,2,1,,,,,
,0.09,,,,,,,,,f.PNG,f,5e53eb33ef87a902f39b1b77,2021-09-08_16h13.46.560,forced_choiceRT,2021.1.2,Win32,60.13590715,,,,,,,,10,Ontime,f,1,2.0493,5,3,23,0,1,,,,,
,0.99,,,,,,,,,h.PNG,h,5e53eb33ef87a902f39b1b77,2021-09-08_16h13.46.560,forced_choiceRT,2021.1.2,Win32,60.13590715,,,,,,,,10,Ontime,h,1,2.0157,6,0,24,2,1,,,,,
,0.25,,,,,,,,,g.PNG,g,5e53eb33ef87a902f39b1b77,2021-09-08_16h13.46.560,forced_choiceRT,2021.1.2,Win32,60.13590715,,,,,,,,10,Ontime,g,1,2.0339,6,1,25,1,1,,,,,
,1.33,,,,,,,,,j.PNG,j,5e53eb33ef87a902f39b1b77,2021-09-08_16h13.46.560,forced_choiceRT,2021.1.2,Win32,60.13590715,,,,,,,,10,Ontime,j,1,1.9667,6,2,26,3,1,,,,,
,0.45,,,,,,,,,h.PNG,h,5e53eb33ef87a902f39b1b77,2021-09-08_16h13.46.560,forced_choiceRT,2021.1.2,Win32,60.13590715,,,,,,,,10,Ontime,h,1,1.9531,6,3,27,2,1,,,,,
,0.65,,,,,,,,,j.PNG,j,5e53eb33ef87a902f39b1b77,2021-09-08_16h13.46.560,forced_choiceRT,2021.1.2,Win32,60.13590715,,,,,,,,10,Ontime,j,1,1.9854,7,0,28,3,1,,,,,
,0.63,,,,,,,,,f.PNG,f,5e53eb33ef87a902f39b1b77,2021-09-08_16h13.46.560,forced_choiceRT,2021.1.2,Win32,60.13590715,,,,,,,,10,Ontime,f,1,1.9681,7,1,29,0,1,,,,,
,1.74,,,,,,,,,j.PNG,j,5e53eb33ef87a902f39b1b77,2021-09-08_16h13.46.560,forced_choiceRT,2021.1.2,Win32,60.13590715,,,,,,,,10,Ontime,j,1,1.9829,7,2,30,3,1,,,,,
,1.32,,,,,,,,,f.PNG,f,5e53eb33ef87a902f39b1b77,2021-09-08_16h13.46.560,forced_choiceRT,2021.1.2,Win32,60.13590715,,,,,,,,10,Ontime,f,1,2.0396,7,3,31,0,1,,,,,
,0.31,,,,,,,,,f.PNG,f,5e53eb33ef87a902f39b1b77,2021-09-08_16h13.46.560,forced_choiceRT,2021.1.2,Win32,60.13590715,,,,,,,,10,Ontime,f,1,1.9762,8,0,32,0,1,,,,,
,1.85,,,,,,,,,h.PNG,h,5e53eb33ef87a902f39b1b77,2021-09-08_16h13.46.560,forced_choiceRT,2021.1.2,Win32,60.13590715,,,,,,,,10,Ontime,g,0,1.9791,8,1,33,2,1,,,,,
,1.85,,,,,,,,,g.PNG,g,5e53eb33ef87a902f39b1b77,2021-09-08_16h13.46.560,forced_choiceRT,2021.1.2,Win32,60.13590715,,,,,,,,10,Ontime,j,0,2.0067,8,2,34,1,1,,,,,
,0.78,,,,,,,,,j.PNG,j,5e53eb33ef87a902f39b1b77,2021-09-08_16h13.46.560,forced_choiceRT,2021.1.2,Win32,60.13590715,,,,,,,,10,Ontime,j,1,2.0051,8,3,35,3,1,,,,,
,1.01,,,,,,,,,j.PNG,j,5e53eb33ef87a902f39b1b77,2021-09-08_16h13.46.560,forced_choiceRT,2021.1.2,Win32,60.13590715,,,,,,,,10,Ontime,j,1,2.0176,9,0,36,3,1,,,,,
,1.69,,,,,,,,,g.PNG,g,5e53eb33ef87a902f39b1b77,2021-09-08_16h13.46.560,forced_choiceRT,2021.1.2,Win32,60.13590715,,,,,,,,10,Ontime,f,0,1.9759,9,1,37,1,1,,,,,
,1.27,,,,,,,,,g.PNG,g,5e53eb33ef87a902f39b1b77,2021-09-08_16h13.46.560,forced_choiceRT,2021.1.2,Win32,60.13590715,,,,,,,,10,Ontime,g,1,1.9555,9,2,38,1,1,,,,,
,0.45,,,,,,,,,g.PNG,g,5e53eb33ef87a902f39b1b77,2021-09-08_16h13.46.560,forced_choiceRT,2021.1.2,Win32,60.13590715,,,,,,,,10,Ontime,g,1,1.9321,9,3,39,1,1,,,,,
,,,,,,,,,,,,5e53eb33ef87a902f39b1b77,2021-09-08_16h13.46.560,forced_choiceRT,2021.1.2,Win32,60.13590715,,,,,,,,,,,,,,,,,,9,0,9,0,1
