IP_Addresss,target_onset,trial_resp_sp.keys,trial_resp_sp.corr,trial_resp_sp.rt,trials_train_loop.thisRepN,trials_train_loop.thisTrialN,trials_train_loop.thisN,trials_train_loop.thisIndex,trials_train_loop.ran,pic,correct_key,participant,date,expName,psychopyVersion,OS,frameRate,trial_resp_timing.keys,trial_resp_timing.rt,trials_train_timing.thisRepN,trials_train_timing.thisTrialN,trials_train_timing.thisN,trials_train_timing.thisIndex,trials_train_timing.ran,block_id,ontime,forcedRT_resp.keys,forcedRT_resp.corr,forcedRT_resp.rt,trials.thisRepN,trials.thisTrialN,trials.thisN,trials.thisIndex,trials.ran,blocks.thisRepN,blocks.thisTrialN,blocks.thisN,blocks.thisIndex,blocks.ran
73.102.212.159,0,j,1,4.5198,0,0,0,3,1,j.PNG,j,5e94c36719906c0b953bea4c,2021-09-08_21h05.23.061,forced_choiceRT,2021.1.2,Win32,59.85156811,,,,,,,,,,,,,,,,,,,,,,
,0,j,1,2.6414,0,1,1,3,1,j.PNG,j,5e94c36719906c0b953bea4c,2021-09-08_21h05.23.061,forced_choiceRT,2021.1.2,Win32,59.85156811,,,,,,,,,,,,,,,,,,,,,,
,0,h,1,2.5581,0,2,2,2,1,h.PNG,h,5e94c36719906c0b953bea4c,2021-09-08_21h05.23.061,forced_choiceRT,2021.1.2,Win32,59.85156811,,,,,,,,,,,,,,,,,,,,,,
,0,h,1,1.9535,0,3,3,2,1,h.PNG,h,5e94c36719906c0b953bea4c,2021-09-08_21h05.23.061,forced_choiceRT,2021.1.2,Win32,59.85156811,,,,,,,,,,,,,,,,,,,,,,
,0,h,1,1.0854,1,0,4,2,1,h.PNG,h,5e94c36719906c0b953bea4c,2021-09-08_21h05.23.061,forced_choiceRT,2021.1.2,Win32,59.85156811,,,,,,,,,,,,,,,,,,,,,,
,0,h,1,0.822,1,1,5,2,1,h.PNG,h,5e94c36719906c0b953bea4c,2021-09-08_21h05.23.061,forced_choiceRT,2021.1.2,Win32,59.85156811,,,,,,,,,,,,,,,,,,,,,,
,0,g,1,2.3061,1,2,6,1,1,g.PNG,g,5e94c36719906c0b953bea4c,2021-09-08_21h05.23.061,forced_choiceRT,2021.1.2,Win32,59.85156811,,,,,,,,,,,,,,,,,,,,,,
,0,f,1,2.1543,1,3,7,0,1,f.PNG,f,5e94c36719906c0b953bea4c,2021-09-08_21h05.23.061,forced_choiceRT,2021.1.2,Win32,59.85156811,,,,,,,,,,,,,,,,,,,,,,
,0,h,1,1.9936,2,0,8,2,1,h.PNG,h,5e94c36719906c0b953bea4c,2021-09-08_21h05.23.061,forced_choiceRT,2021.1.2,Win32,59.85156811,,,,,,,,,,,,,,,,,,,,,,
,0,h,1,1.4449,2,1,9,2,1,h.PNG,h,5e94c36719906c0b953bea4c,2021-09-08_21h05.23.061,forced_choiceRT,2021.1.2,Win32,59.85156811,,,,,,,,,,,,,,,,,,,,,,
,0,f,1,2.225,2,2,10,0,1,f.PNG,f,5e94c36719906c0b953bea4c,2021-09-08_21h05.23.061,forced_choiceRT,2021.1.2,Win32,59.85156811,,,,,,,,,,,,,,,,,,,,,,
,0,g,1,4.7916,2,3,11,1,1,g.PNG,g,5e94c36719906c0b953bea4c,2021-09-08_21h05.23.061,forced_choiceRT,2021.1.2,Win32,59.85156811,,,,,,,,,,,,,,,,,,,,,,
,0,j,1,2.3072,3,0,12,3,1,j.PNG,j,5e94c36719906c0b953bea4c,2021-09-08_21h05.23.061,forced_choiceRT,2021.1.2,Win32,59.85156811,,,,,,,,,,,,,,,,,,,,,,
,0,g,1,2.417,3,1,13,1,1,g.PNG,g,5e94c36719906c0b953bea4c,2021-09-08_21h05.23.061,forced_choiceRT,2021.1.2,Win32,59.85156811,,,,,,,,,,,,,,,,,,,,,,
,0,g,1,1.1236,3,2,14,1,1,g.PNG,g,5e94c36719906c0b953bea4c,2021-09-08_21h05.23.061,forced_choiceRT,2021.1.2,Win32,59.85156811,,,,,,,,,,,,,,,,,,,,,,
,0,j,1,1.2552,3,3,15,3,1,j.PNG,j,5e94c36719906c0b953bea4c,2021-09-08_21h05.23.061,forced_choiceRT,2021.1.2,Win32,59.85156811,,,,,,,,,,,,,,,,,,,,,,
,0,f,1,1.3302,4,0,16,0,1,f.PNG,f,5e94c36719906c0b953bea4c,2021-09-08_21h05.23.061,forced_choiceRT,2021.1.2,Win32,59.85156811,,,,,,,,,,,,,,,,,,,,,,
,0,j,1,1.9901,4,1,17,3,1,j.PNG,j,5e94c36719906c0b953bea4c,2021-09-08_21h05.23.061,forced_choiceRT,2021.1.2,Win32,59.85156811,,,,,,,,,,,,,,,,,,,,,,
,0,j,1,1.0215,4,2,18,3,1,j.PNG,j,5e94c36719906c0b953bea4c,2021-09-08_21h05.23.061,forced_choiceRT,2021.1.2,Win32,59.85156811,,,,,,,,,,,,,,,,,,,,,,
,0,f,1,1.6489,4,3,19,0,1,f.PNG,f,5e94c36719906c0b953bea4c,2021-09-08_21h05.23.061,forced_choiceRT,2021.1.2,Win32,59.85156811,,,,,,,,,,,,,,,,,,,,,,
,0,g,1,1.5215,5,0,20,1,1,g.PNG,g,5e94c36719906c0b953bea4c,2021-09-08_21h05.23.061,forced_choiceRT,2021.1.2,Win32,59.85156811,,,,,,,,,,,,,,,,,,,,,,
,0,g,1,0.8605,5,1,21,1,1,g.PNG,g,5e94c36719906c0b953bea4c,2021-09-08_21h05.23.061,forced_choiceRT,2021.1.2,Win32,59.85156811,,,,,,,,,,,,,,,,,,,,,,
,0,j,1,1.1568,5,2,22,3,1,j.PNG,j,5e94c36719906c0b953bea4c,2021-09-08_21h05.23.061,forced_choiceRT,2021.1.2,Win32,59.85156811,,,,,,,,,,,,,,,,,,,,,,
,0,j,1,0.8611,5,3,23,3,1,j.PNG,j,5e94c36719906c0b953bea4c,2021-09-08_21h05.23.061,forced_choiceRT,2021.1.2,Win32,59.85156811,,,,,,,,,,,,,,,,,,,,,,
,0,h,1,2.5789,6,0,24,2,1,h.PNG,h,5e94c36719906c0b953bea4c,2021-09-08_21h05.23.061,forced_choiceRT,2021.1.2,Win32,59.85156811,,,,,,,,,,,,,,,,,,,,,,
,0,f,1,1.3606,6,1,25,0,1,f.PNG,f,5e94c36719906c0b953bea4c,2021-09-08_21h05.23.061,forced_choiceRT,2021.1.2,Win32,59.85156811,,,,,,,,,,,,,,,,,,,,,,
,0,g,1,2.3947,6,2,26,1,1,g.PNG,g,5e94c36719906c0b953bea4c,2021-09-08_21h05.23.061,forced_choiceRT,2021.1.2,Win32,59.85156811,,,,,,,,,,,,,,,,,,,,,,
,0,g,1,1.104,6,3,27,1,1,g.PNG,g,5e94c36719906c0b953bea4c,2021-09-08_21h05.23.061,forced_choiceRT,2021.1.2,Win32,59.85156811,,,,,,,,,,,,,,,,,,,,,,
,0,f,1,1.0629,7,0,28,0,1,f.PNG,f,5e94c36719906c0b953bea4c,2021-09-08_21h05.23.061,forced_choiceRT,2021.1.2,Win32,59.85156811,,,,,,,,,,,,,,,,,,,,,,
,0,g,1,2.4755,7,1,29,1,1,g.PNG,g,5e94c36719906c0b953bea4c,2021-09-08_21h05.23.061,forced_choiceRT,2021.1.2,Win32,59.85156811,,,,,,,,,,,,,,,,,,,,,,
,0,j,1,2.1179,7,2,30,3,1,j.PNG,j,5e94c36719906c0b953bea4c,2021-09-08_21h05.23.061,forced_choiceRT,2021.1.2,Win32,59.85156811,,,,,,,,,,,,,,,,,,,,,,
,0,h,1,4.0262,7,3,31,2,1,h.PNG,h,5e94c36719906c0b953bea4c,2021-09-08_21h05.23.061,forced_choiceRT,2021.1.2,Win32,59.85156811,,,,,,,,,,,,,,,,,,,,,,
,0,j,1,7.884,8,0,32,3,1,j.PNG,j,5e94c36719906c0b953bea4c,2021-09-08_21h05.23.061,forced_choiceRT,2021.1.2,Win32,59.85156811,,,,,,,,,,,,,,,,,,,,,,
,0,f,1,3.3217,8,1,33,0,1,f.PNG,f,5e94c36719906c0b953bea4c,2021-09-08_21h05.23.061,forced_choiceRT,2021.1.2,Win32,59.85156811,,,,,,,,,,,,,,,,,,,,,,
,0,f,1,1.2669,8,2,34,0,1,f.PNG,f,5e94c36719906c0b953bea4c,2021-09-08_21h05.23.061,forced_choiceRT,2021.1.2,Win32,59.85156811,,,,,,,,,,,,,,,,,,,,,,
,0,h,1,5.3679,8,3,35,2,1,h.PNG,h,5e94c36719906c0b953bea4c,2021-09-08_21h05.23.061,forced_choiceRT,2021.1.2,Win32,59.85156811,,,,,,,,,,,,,,,,,,,,,,
,0,f,1,1.0399,9,0,36,0,1,f.PNG,f,5e94c36719906c0b953bea4c,2021-09-08_21h05.23.061,forced_choiceRT,2021.1.2,Win32,59.85156811,,,,,,,,,,,,,,,,,,,,,,
,0,j,1,1.1381,9,1,37,3,1,j.PNG,j,5e94c36719906c0b953bea4c,2021-09-08_21h05.23.061,forced_choiceRT,2021.1.2,Win32,59.85156811,,,,,,,,,,,,,,,,,,,,,,
,0,g,1,2.9278,9,2,38,1,1,g.PNG,g,5e94c36719906c0b953bea4c,2021-09-08_21h05.23.061,forced_choiceRT,2021.1.2,Win32,59.85156811,,,,,,,,,,,,,,,,,,,,,,
,0,h,1,3.4018,9,3,39,2,1,h.PNG,h,5e94c36719906c0b953bea4c,2021-09-08_21h05.23.061,forced_choiceRT,2021.1.2,Win32,59.85156811,,,,,,,,,,,,,,,,,,,,,,
,0,h,1,1.1042,10,0,40,2,1,h.PNG,h,5e94c36719906c0b953bea4c,2021-09-08_21h05.23.061,forced_choiceRT,2021.1.2,Win32,59.85156811,,,,,,,,,,,,,,,,,,,,,,
,0,f,1,1.0541,10,1,41,0,1,f.PNG,f,5e94c36719906c0b953bea4c,2021-09-08_21h05.23.061,forced_choiceRT,2021.1.2,Win32,59.85156811,,,,,,,,,,,,,,,,,,,,,,
,0,h,1,1.9566,10,2,42,2,1,h.PNG,h,5e94c36719906c0b953bea4c,2021-09-08_21h05.23.061,forced_choiceRT,2021.1.2,Win32,59.85156811,,,,,,,,,,,,,,,,,,,,,,
,0,f,1,0.8827,10,3,43,0,1,f.PNG,f,5e94c36719906c0b953bea4c,2021-09-08_21h05.23.061,forced_choiceRT,2021.1.2,Win32,59.85156811,,,,,,,,,,,,,,,,,,,,,,
,0,j,1,1.1255,11,0,44,3,1,j.PNG,j,5e94c36719906c0b953bea4c,2021-09-08_21h05.23.061,forced_choiceRT,2021.1.2,Win32,59.85156811,,,,,,,,,,,,,,,,,,,,,,
,0,h,1,2.1252,11,1,45,2,1,h.PNG,h,5e94c36719906c0b953bea4c,2021-09-08_21h05.23.061,forced_choiceRT,2021.1.2,Win32,59.85156811,,,,,,,,,,,,,,,,,,,,,,
,0,h,1,1.4076,11,2,46,2,1,h.PNG,h,5e94c36719906c0b953bea4c,2021-09-08_21h05.23.061,forced_choiceRT,2021.1.2,Win32,59.85156811,,,,,,,,,,,,,,,,,,,,,,
,0,g,1,1.3385,11,3,47,1,1,g.PNG,g,5e94c36719906c0b953bea4c,2021-09-08_21h05.23.061,forced_choiceRT,2021.1.2,Win32,59.85156811,,,,,,,,,,,,,,,,,,,,,,
,0,f,1,1.1373,12,0,48,0,1,f.PNG,f,5e94c36719906c0b953bea4c,2021-09-08_21h05.23.061,forced_choiceRT,2021.1.2,Win32,59.85156811,,,,,,,,,,,,,,,,,,,,,,
,0,j,1,1.2542,12,1,49,3,1,j.PNG,j,5e94c36719906c0b953bea4c,2021-09-08_21h05.23.061,forced_choiceRT,2021.1.2,Win32,59.85156811,,,,,,,,,,,,,,,,,,,,,,
,0,f,1,1.1907,12,2,50,0,1,f.PNG,f,5e94c36719906c0b953bea4c,2021-09-08_21h05.23.061,forced_choiceRT,2021.1.2,Win32,59.85156811,,,,,,,,,,,,,,,,,,,,,,
,0,f,1,0.7791,12,3,51,0,1,f.PNG,f,5e94c36719906c0b953bea4c,2021-09-08_21h05.23.061,forced_choiceRT,2021.1.2,Win32,59.85156811,,,,,,,,,,,,,,,,,,,,,,
,0,g,1,1.2465,13,0,52,1,1,g.PNG,g,5e94c36719906c0b953bea4c,2021-09-08_21h05.23.061,forced_choiceRT,2021.1.2,Win32,59.85156811,,,,,,,,,,,,,,,,,,,,,,
,0,g,1,1.2376,13,1,53,1,1,g.PNG,g,5e94c36719906c0b953bea4c,2021-09-08_21h05.23.061,forced_choiceRT,2021.1.2,Win32,59.85156811,,,,,,,,,,,,,,,,,,,,,,
,0,g,1,0.7569,13,2,54,1,1,g.PNG,g,5e94c36719906c0b953bea4c,2021-09-08_21h05.23.061,forced_choiceRT,2021.1.2,Win32,59.85156811,,,,,,,,,,,,,,,,,,,,,,
,0,f,1,0.8534,13,3,55,0,1,f.PNG,f,5e94c36719906c0b953bea4c,2021-09-08_21h05.23.061,forced_choiceRT,2021.1.2,Win32,59.85156811,,,,,,,,,,,,,,,,,,,,,,
,0,j,1,1.0289,14,0,56,3,1,j.PNG,j,5e94c36719906c0b953bea4c,2021-09-08_21h05.23.061,forced_choiceRT,2021.1.2,Win32,59.85156811,,,,,,,,,,,,,,,,,,,,,,
,0,j,1,0.8439,14,1,57,3,1,j.PNG,j,5e94c36719906c0b953bea4c,2021-09-08_21h05.23.061,forced_choiceRT,2021.1.2,Win32,59.85156811,,,,,,,,,,,,,,,,,,,,,,
,0,h,1,1.7423,14,2,58,2,1,h.PNG,h,5e94c36719906c0b953bea4c,2021-09-08_21h05.23.061,forced_choiceRT,2021.1.2,Win32,59.85156811,,,,,,,,,,,,,,,,,,,,,,
,0,g,1,1.2879,14,3,59,1,1,g.PNG,g,5e94c36719906c0b953bea4c,2021-09-08_21h05.23.061,forced_choiceRT,2021.1.2,Win32,59.85156811,,,,,,,,,,,,,,,,,,,,,,
,,,,,,,,,,,,5e94c36719906c0b953bea4c,2021-09-08_21h05.23.061,forced_choiceRT,2021.1.2,Win32,59.85156811,h,2.5752,0,0,0,0,1,,,,,,,,,,,,,,,
,,,,,,,,,,,,5e94c36719906c0b953bea4c,2021-09-08_21h05.23.061,forced_choiceRT,2021.1.2,Win32,59.85156811,j,8.6613,1,0,1,0,1,,,,,,,,,,,,,,,
,,,,,,,,,,,,5e94c36719906c0b953bea4c,2021-09-08_21h05.23.061,forced_choiceRT,2021.1.2,Win32,59.85156811,f,2.2865,2,0,2,0,1,,,,,,,,,,,,,,,
,,,,,,,,,,,,5e94c36719906c0b953bea4c,2021-09-08_21h05.23.061,forced_choiceRT,2021.1.2,Win32,59.85156811,j,1.8404,3,0,3,0,1,,,,,,,,,,,,,,,
,,,,,,,,,,,,5e94c36719906c0b953bea4c,2021-09-08_21h05.23.061,forced_choiceRT,2021.1.2,Win32,59.85156811,j,2.2326,4,0,4,0,1,,,,,,,,,,,,,,,
,,,,,,,,,,,,5e94c36719906c0b953bea4c,2021-09-08_21h05.23.061,forced_choiceRT,2021.1.2,Win32,59.85156811,j,2.1201,5,0,5,0,1,,,,,,,,,,,,,,,
,,,,,,,,,,,,5e94c36719906c0b953bea4c,2021-09-08_21h05.23.061,forced_choiceRT,2021.1.2,Win32,59.85156811,j,2.1953,6,0,6,0,1,,,,,,,,,,,,,,,
,,,,,,,,,,,,5e94c36719906c0b953bea4c,2021-09-08_21h05.23.061,forced_choiceRT,2021.1.2,Win32,59.85156811,j,2.0967,7,0,7,0,1,,,,,,,,,,,,,,,
,,,,,,,,,,,,5e94c36719906c0b953bea4c,2021-09-08_21h05.23.061,forced_choiceRT,2021.1.2,Win32,59.85156811,j,2.0973,8,0,8,0,1,,,,,,,,,,,,,,,
,,,,,,,,,,,,5e94c36719906c0b953bea4c,2021-09-08_21h05.23.061,forced_choiceRT,2021.1.2,Win32,59.85156811,j,2.1241,9,0,9,0,1,,,,,,,,,,,,,,,
,,,,,,,,,,,,5e94c36719906c0b953bea4c,2021-09-08_21h05.23.061,forced_choiceRT,2021.1.2,Win32,59.85156811,j,2.111,10,0,10,0,1,,,,,,,,,,,,,,,
,,,,,,,,,,,,5e94c36719906c0b953bea4c,2021-09-08_21h05.23.061,forced_choiceRT,2021.1.2,Win32,59.85156811,j,1.96,11,0,11,0,1,,,,,,,,,,,,,,,
,,,,,,,,,,,,5e94c36719906c0b953bea4c,2021-09-08_21h05.23.061,forced_choiceRT,2021.1.2,Win32,59.85156811,j,1.8791,12,0,12,0,1,,,,,,,,,,,,,,,
,,,,,,,,,,,,5e94c36719906c0b953bea4c,2021-09-08_21h05.23.061,forced_choiceRT,2021.1.2,Win32,59.85156811,j,2.0801,13,0,13,0,1,,,,,,,,,,,,,,,
,,,,,,,,,,,,5e94c36719906c0b953bea4c,2021-09-08_21h05.23.061,forced_choiceRT,2021.1.2,Win32,59.85156811,j,2.0398,14,0,14,0,1,,,,,,,,,,,,,,,
,,,,,,,,,,,,5e94c36719906c0b953bea4c,2021-09-08_21h05.23.061,forced_choiceRT,2021.1.2,Win32,59.85156811,j,2.0621,15,0,15,0,1,,,,,,,,,,,,,,,
,,,,,,,,,,,,5e94c36719906c0b953bea4c,2021-09-08_21h05.23.061,forced_choiceRT,2021.1.2,Win32,59.85156811,j,2.1516,16,0,16,0,1,,,,,,,,,,,,,,,
,,,,,,,,,,,,5e94c36719906c0b953bea4c,2021-09-08_21h05.23.061,forced_choiceRT,2021.1.2,Win32,59.85156811,j,2.0424,17,0,17,0,1,,,,,,,,,,,,,,,
,,,,,,,,,,,,5e94c36719906c0b953bea4c,2021-09-08_21h05.23.061,forced_choiceRT,2021.1.2,Win32,59.85156811,j,2.016,18,0,18,0,1,,,,,,,,,,,,,,,
,,,,,,,,,,,,5e94c36719906c0b953bea4c,2021-09-08_21h05.23.061,forced_choiceRT,2021.1.2,Win32,59.85156811,j,2.0233,19,0,19,0,1,,,,,,,,,,,,,,,
,1.52,,,,,,,,,g.PNG,g,5e94c36719906c0b953bea4c,2021-09-08_21h05.23.061,forced_choiceRT,2021.1.2,Win32,59.85156811,,,,,,,,1,Slow,h,0,4.0432,0,0,0,1,1,,,,,
,1.96,,,,,,,,,f.PNG,f,5e94c36719906c0b953bea4c,2021-09-08_21h05.23.061,forced_choiceRT,2021.1.2,Win32,59.85156811,,,,,,,,1,Slow,j,0,2.2107,0,1,1,0,1,,,,,
,0.3,,,,,,,,,j.PNG,j,5e94c36719906c0b953bea4c,2021-09-08_21h05.23.061,forced_choiceRT,2021.1.2,Win32,59.85156811,,,,,,,,1,Fast,j,1,1.7904,0,2,2,3,1,,,,,
,0.1,,,,,,,,,g.PNG,g,5e94c36719906c0b953bea4c,2021-09-08_21h05.23.061,forced_choiceRT,2021.1.2,Win32,59.85156811,,,,,,,,1,Fast,g,1,1.3214,0,3,3,1,1,,,,,
,0.2,,,,,,,,,g.PNG,g,5e94c36719906c0b953bea4c,2021-09-08_21h05.23.061,forced_choiceRT,2021.1.2,Win32,59.85156811,,,,,,,,1,Fast,g,1,1.7789,1,0,4,1,1,,,,,
,0.78,,,,,,,,,f.PNG,f,5e94c36719906c0b953bea4c,2021-09-08_21h05.23.061,forced_choiceRT,2021.1.2,Win32,59.85156811,,,,,,,,1,Slow,f,1,2.2022,1,1,5,0,1,,,,,
,1.15,,,,,,,,,g.PNG,g,5e94c36719906c0b953bea4c,2021-09-08_21h05.23.061,forced_choiceRT,2021.1.2,Win32,59.85156811,,,,,,,,1,Ontime,g,1,2.0828,1,2,6,1,1,,,,,
,0.12,,,,,,,,,f.PNG,f,5e94c36719906c0b953bea4c,2021-09-08_21h05.23.061,forced_choiceRT,2021.1.2,Win32,59.85156811,,,,,,,,1,Fast,f,1,1.7396,1,3,7,0,1,,,,,
,0.29,,,,,,,,,j.PNG,j,5e94c36719906c0b953bea4c,2021-09-08_21h05.23.061,forced_choiceRT,2021.1.2,Win32,59.85156811,,,,,,,,1,Slow,j,1,2.1206,2,0,8,3,1,,,,,
,0.68,,,,,,,,,g.PNG,g,5e94c36719906c0b953bea4c,2021-09-08_21h05.23.061,forced_choiceRT,2021.1.2,Win32,59.85156811,,,,,,,,1,Ontime,g,1,1.9742,2,1,9,1,1,,,,,
,0.99,,,,,,,,,j.PNG,j,5e94c36719906c0b953bea4c,2021-09-08_21h05.23.061,forced_choiceRT,2021.1.2,Win32,59.85156811,,,,,,,,1,Ontime,j,1,1.9497,2,2,10,3,1,,,,,
,1.28,,,,,,,,,j.PNG,j,5e94c36719906c0b953bea4c,2021-09-08_21h05.23.061,forced_choiceRT,2021.1.2,Win32,59.85156811,,,,,,,,1,Slow,j,1,2.3245,2,3,11,3,1,,,,,
,1.83,,,,,,,,,h.PNG,h,5e94c36719906c0b953bea4c,2021-09-08_21h05.23.061,forced_choiceRT,2021.1.2,Win32,59.85156811,,,,,,,,1,Slow,j,0,2.3477,3,0,12,2,1,,,,,
,0.36,,,,,,,,,j.PNG,j,5e94c36719906c0b953bea4c,2021-09-08_21h05.23.061,forced_choiceRT,2021.1.2,Win32,59.85156811,,,,,,,,1,Fast,j,1,1.7726,3,1,13,3,1,,,,,
,1.63,,,,,,,,,f.PNG,f,5e94c36719906c0b953bea4c,2021-09-08_21h05.23.061,forced_choiceRT,2021.1.2,Win32,59.85156811,,,,,,,,1,Ontime,j,0,2.0261,3,2,14,0,1,,,,,
,1.19,,,,,,,,,j.PNG,j,5e94c36719906c0b953bea4c,2021-09-08_21h05.23.061,forced_choiceRT,2021.1.2,Win32,59.85156811,,,,,,,,1,Ontime,j,1,2.0465,3,3,15,3,1,,,,,
,1.2,,,,,,,,,f.PNG,f,5e94c36719906c0b953bea4c,2021-09-08_21h05.23.061,forced_choiceRT,2021.1.2,Win32,59.85156811,,,,,,,,1,Ontime,f,1,2.0301,4,0,16,0,1,,,,,
,1.32,,,,,,,,,h.PNG,h,5e94c36719906c0b953bea4c,2021-09-08_21h05.23.061,forced_choiceRT,2021.1.2,Win32,59.85156811,,,,,,,,1,Slow,h,1,2.3323,4,1,17,2,1,,,,,
,1.26,,,,,,,,,j.PNG,j,5e94c36719906c0b953bea4c,2021-09-08_21h05.23.061,forced_choiceRT,2021.1.2,Win32,59.85156811,,,,,,,,1,Ontime,j,1,2.0419,4,2,18,3,1,,,,,
,0.61,,,,,,,,,j.PNG,j,5e94c36719906c0b953bea4c,2021-09-08_21h05.23.061,forced_choiceRT,2021.1.2,Win32,59.85156811,,,,,,,,1,Fast,j,1,1.8071,4,3,19,3,1,,,,,
,1.53,,,,,,,,,j.PNG,j,5e94c36719906c0b953bea4c,2021-09-08_21h05.23.061,forced_choiceRT,2021.1.2,Win32,59.85156811,,,,,,,,1,Slow,j,1,2.147,5,0,20,3,1,,,,,
,0.1,,,,,,,,,h.PNG,h,5e94c36719906c0b953bea4c,2021-09-08_21h05.23.061,forced_choiceRT,2021.1.2,Win32,59.85156811,,,,,,,,1,Ontime,h,1,2.0262,5,1,21,2,1,,,,,
,1.35,,,,,,,,,f.PNG,f,5e94c36719906c0b953bea4c,2021-09-08_21h05.23.061,forced_choiceRT,2021.1.2,Win32,59.85156811,,,,,,,,1,Ontime,f,1,2.0491,5,2,22,0,1,,,,,
,1.21,,,,,,,,,h.PNG,h,5e94c36719906c0b953bea4c,2021-09-08_21h05.23.061,forced_choiceRT,2021.1.2,Win32,59.85156811,,,,,,,,1,Slow,g,0,2.1232,5,3,23,2,1,,,,,
,0.51,,,,,,,,,g.PNG,g,5e94c36719906c0b953bea4c,2021-09-08_21h05.23.061,forced_choiceRT,2021.1.2,Win32,59.85156811,,,,,,,,1,Ontime,g,1,1.988,6,0,24,1,1,,,,,
,1.44,,,,,,,,,j.PNG,j,5e94c36719906c0b953bea4c,2021-09-08_21h05.23.061,forced_choiceRT,2021.1.2,Win32,59.85156811,,,,,,,,1,Slow,j,1,2.2737,6,1,25,3,1,,,,,
,1.49,,,,,,,,,h.PNG,h,5e94c36719906c0b953bea4c,2021-09-08_21h05.23.061,forced_choiceRT,2021.1.2,Win32,59.85156811,,,,,,,,1,Slow,j,0,2.301,6,2,26,2,1,,,,,
,1.56,,,,,,,,,g.PNG,g,5e94c36719906c0b953bea4c,2021-09-08_21h05.23.061,forced_choiceRT,2021.1.2,Win32,59.85156811,,,,,,,,1,Slow,j,0,2.1262,6,3,27,1,1,,,,,
,1.65,,,,,,,,,h.PNG,h,5e94c36719906c0b953bea4c,2021-09-08_21h05.23.061,forced_choiceRT,2021.1.2,Win32,59.85156811,,,,,,,,1,Slow,h,1,2.3193,7,0,28,2,1,,,,,
,0.39,,,,,,,,,f.PNG,f,5e94c36719906c0b953bea4c,2021-09-08_21h05.23.061,forced_choiceRT,2021.1.2,Win32,59.85156811,,,,,,,,1,Fast,f,1,1.7285,7,1,29,0,1,,,,,
,1.57,,,,,,,,,f.PNG,f,5e94c36719906c0b953bea4c,2021-09-08_21h05.23.061,forced_choiceRT,2021.1.2,Win32,59.85156811,,,,,,,,1,Ontime,h,0,2.0499,7,2,30,0,1,,,,,
,1.05,,,,,,,,,h.PNG,h,5e94c36719906c0b953bea4c,2021-09-08_21h05.23.061,forced_choiceRT,2021.1.2,Win32,59.85156811,,,,,,,,1,Ontime,h,1,1.997,7,3,31,2,1,,,,,
,1.5,,,,,,,,,f.PNG,f,5e94c36719906c0b953bea4c,2021-09-08_21h05.23.061,forced_choiceRT,2021.1.2,Win32,59.85156811,,,,,,,,1,Ontime,f,1,2.0758,8,0,32,0,1,,,,,
,0.77,,,,,,,,,f.PNG,f,5e94c36719906c0b953bea4c,2021-09-08_21h05.23.061,forced_choiceRT,2021.1.2,Win32,59.85156811,,,,,,,,1,Fast,f,1,1.855,8,1,33,0,1,,,,,
,0.08,,,,,,,,,g.PNG,g,5e94c36719906c0b953bea4c,2021-09-08_21h05.23.061,forced_choiceRT,2021.1.2,Win32,59.85156811,,,,,,,,1,Ontime,g,1,2.0082,8,2,34,1,1,,,,,
,1.31,,,,,,,,,h.PNG,h,5e94c36719906c0b953bea4c,2021-09-08_21h05.23.061,forced_choiceRT,2021.1.2,Win32,59.85156811,,,,,,,,1,Slow,h,1,2.2185,8,3,35,2,1,,,,,
,0.42,,,,,,,,,g.PNG,g,5e94c36719906c0b953bea4c,2021-09-08_21h05.23.061,forced_choiceRT,2021.1.2,Win32,59.85156811,,,,,,,,1,Fast,h,0,1.7729,9,0,36,1,1,,,,,
,1.97,,,,,,,,,h.PNG,h,5e94c36719906c0b953bea4c,2021-09-08_21h05.23.061,forced_choiceRT,2021.1.2,Win32,59.85156811,,,,,,,,1,Slow,j,0,3.8854,9,1,37,2,1,,,,,
,1.75,,,,,,,,,h.PNG,h,5e94c36719906c0b953bea4c,2021-09-08_21h05.23.061,forced_choiceRT,2021.1.2,Win32,59.85156811,,,,,,,,1,Slow,j,0,2.383,9,2,38,2,1,,,,,
,0.4,,,,,,,,,g.PNG,g,5e94c36719906c0b953bea4c,2021-09-08_21h05.23.061,forced_choiceRT,2021.1.2,Win32,59.85156811,,,,,,,,1,Fast,g,1,1.4332,9,3,39,1,1,,,,,
,,,,,,,,,,,,5e94c36719906c0b953bea4c,2021-09-08_21h05.23.061,forced_choiceRT,2021.1.2,Win32,59.85156811,,,,,,,,,,,,,,,,,,0,0,0,0,1
,0.41,,,,,,,,,g.PNG,g,5e94c36719906c0b953bea4c,2021-09-08_21h05.23.061,forced_choiceRT,2021.1.2,Win32,59.85156811,,,,,,,,2,Fast,g,1,1.4804,0,0,0,1,1,,,,,
,1.03,,,,,,,,,g.PNG,g,5e94c36719906c0b953bea4c,2021-09-08_21h05.23.061,forced_choiceRT,2021.1.2,Win32,59.85156811,,,,,,,,2,Ontime,g,1,2.0345,0,1,1,1,1,,,,,
,0.11,,,,,,,,,f.PNG,f,5e94c36719906c0b953bea4c,2021-09-08_21h05.23.061,forced_choiceRT,2021.1.2,Win32,59.85156811,,,,,,,,2,Slow,f,1,2.273,0,2,2,0,1,,,,,
,0.27,,,,,,,,,h.PNG,h,5e94c36719906c0b953bea4c,2021-09-08_21h05.23.061,forced_choiceRT,2021.1.2,Win32,59.85156811,,,,,,,,2,Slow,h,1,2.277,0,3,3,2,1,,,,,
,1.24,,,,,,,,,j.PNG,j,5e94c36719906c0b953bea4c,2021-09-08_21h05.23.061,forced_choiceRT,2021.1.2,Win32,59.85156811,,,,,,,,2,Ontime,j,1,1.9761,1,0,4,3,1,,,,,
,1.26,,,,,,,,,g.PNG,g,5e94c36719906c0b953bea4c,2021-09-08_21h05.23.061,forced_choiceRT,2021.1.2,Win32,59.85156811,,,,,,,,2,Fast,j,0,1.7806,1,1,5,1,1,,,,,
,0.45,,,,,,,,,f.PNG,f,5e94c36719906c0b953bea4c,2021-09-08_21h05.23.061,forced_choiceRT,2021.1.2,Win32,59.85156811,,,,,,,,2,Fast,g,0,1.6879,1,2,6,0,1,,,,,
,1.95,,,,,,,,,f.PNG,f,5e94c36719906c0b953bea4c,2021-09-08_21h05.23.061,forced_choiceRT,2021.1.2,Win32,59.85156811,,,,,,,,2,Slow,f,1,3.362,1,3,7,0,1,,,,,
,0.91,,,,,,,,,h.PNG,h,5e94c36719906c0b953bea4c,2021-09-08_21h05.23.061,forced_choiceRT,2021.1.2,Win32,59.85156811,,,,,,,,2,Slow,j,0,3.3436,2,0,8,2,1,,,,,
,0.32,,,,,,,,,f.PNG,f,5e94c36719906c0b953bea4c,2021-09-08_21h05.23.061,forced_choiceRT,2021.1.2,Win32,59.85156811,,,,,,,,2,Fast,f,1,1.2717,2,1,9,0,1,,,,,
,0.95,,,,,,,,,g.PNG,g,5e94c36719906c0b953bea4c,2021-09-08_21h05.23.061,forced_choiceRT,2021.1.2,Win32,59.85156811,,,,,,,,2,Ontime,g,1,2.0781,2,2,10,1,1,,,,,
,0.87,,,,,,,,,h.PNG,h,5e94c36719906c0b953bea4c,2021-09-08_21h05.23.061,forced_choiceRT,2021.1.2,Win32,59.85156811,,,,,,,,2,Slow,h,1,2.2352,2,3,11,2,1,,,,,
,1.66,,,,,,,,,j.PNG,j,5e94c36719906c0b953bea4c,2021-09-08_21h05.23.061,forced_choiceRT,2021.1.2,Win32,59.85156811,,,,,,,,2,Ontime,j,1,2.0954,3,0,12,3,1,,,,,
,1.34,,,,,,,,,g.PNG,g,5e94c36719906c0b953bea4c,2021-09-08_21h05.23.061,forced_choiceRT,2021.1.2,Win32,59.85156811,,,,,,,,2,Ontime,f,0,2.0842,3,1,13,1,1,,,,,
,0.59,,,,,,,,,g.PNG,g,5e94c36719906c0b953bea4c,2021-09-08_21h05.23.061,forced_choiceRT,2021.1.2,Win32,59.85156811,,,,,,,,2,Ontime,g,1,1.9574,3,2,14,1,1,,,,,
,0.23,,,,,,,,,j.PNG,j,5e94c36719906c0b953bea4c,2021-09-08_21h05.23.061,forced_choiceRT,2021.1.2,Win32,59.85156811,,,,,,,,2,Ontime,j,1,1.9672,3,3,15,3,1,,,,,
,1.47,,,,,,,,,f.PNG,f,5e94c36719906c0b953bea4c,2021-09-08_21h05.23.061,forced_choiceRT,2021.1.2,Win32,59.85156811,,,,,,,,2,Slow,f,1,2.3957,4,0,16,0,1,,,,,
,1.63,,,,,,,,,j.PNG,j,5e94c36719906c0b953bea4c,2021-09-08_21h05.23.061,forced_choiceRT,2021.1.2,Win32,59.85156811,,,,,,,,2,Slow,j,1,2.344,4,1,17,3,1,,,,,
,0.55,,,,,,,,,h.PNG,h,5e94c36719906c0b953bea4c,2021-09-08_21h05.23.061,forced_choiceRT,2021.1.2,Win32,59.85156811,,,,,,,,2,Fast,g,0,1.7253,4,2,18,2,1,,,,,
,0.15,,,,,,,,,f.PNG,f,5e94c36719906c0b953bea4c,2021-09-08_21h05.23.061,forced_choiceRT,2021.1.2,Win32,59.85156811,,,,,,,,2,Ontime,f,1,2.0256,4,3,19,0,1,,,,,
,1.26,,,,,,,,,g.PNG,g,5e94c36719906c0b953bea4c,2021-09-08_21h05.23.061,forced_choiceRT,2021.1.2,Win32,59.85156811,,,,,,,,2,Slow,h,0,2.1756,5,0,20,1,1,,,,,
,0.73,,,,,,,,,f.PNG,f,5e94c36719906c0b953bea4c,2021-09-08_21h05.23.061,forced_choiceRT,2021.1.2,Win32,59.85156811,,,,,,,,2,Fast,f,1,1.6878,5,1,21,0,1,,,,,
,0.97,,,,,,,,,j.PNG,j,5e94c36719906c0b953bea4c,2021-09-08_21h05.23.061,forced_choiceRT,2021.1.2,Win32,59.85156811,,,,,,,,2,Slow,j,1,2.225,5,2,22,3,1,,,,,
,1.97,,,,,,,,,j.PNG,j,5e94c36719906c0b953bea4c,2021-09-08_21h05.23.061,forced_choiceRT,2021.1.2,Win32,59.85156811,,,,,,,,2,Slow,f,0,2.2803,5,3,23,3,1,,,,,
,0.45,,,,,,,,,h.PNG,h,5e94c36719906c0b953bea4c,2021-09-08_21h05.23.061,forced_choiceRT,2021.1.2,Win32,59.85156811,,,,,,,,2,Fast,f,0,1.7548,6,0,24,2,1,,,,,
,1.09,,,,,,,,,j.PNG,j,5e94c36719906c0b953bea4c,2021-09-08_21h05.23.061,forced_choiceRT,2021.1.2,Win32,59.85156811,,,,,,,,2,Fast,j,1,1.8942,6,1,25,3,1,,,,,
,0.08,,,,,,,,,j.PNG,j,5e94c36719906c0b953bea4c,2021-09-08_21h05.23.061,forced_choiceRT,2021.1.2,Win32,59.85156811,,,,,,,,2,Ontime,j,1,1.9605,6,2,26,3,1,,,,,
,0.59,,,,,,,,,g.PNG,g,5e94c36719906c0b953bea4c,2021-09-08_21h05.23.061,forced_choiceRT,2021.1.2,Win32,59.85156811,,,,,,,,2,Ontime,j,0,1.9542,6,3,27,1,1,,,,,
,1.88,,,,,,,,,f.PNG,f,5e94c36719906c0b953bea4c,2021-09-08_21h05.23.061,forced_choiceRT,2021.1.2,Win32,59.85156811,,,,,,,,2,Slow,h,0,8.0282,7,0,28,0,1,,,,,
,1.61,,,,,,,,,j.PNG,j,5e94c36719906c0b953bea4c,2021-09-08_21h05.23.061,forced_choiceRT,2021.1.2,Win32,59.85156811,,,,,,,,2,Slow,j,1,2.2396,7,1,29,3,1,,,,,
,0.57,,,,,,,,,f.PNG,f,5e94c36719906c0b953bea4c,2021-09-08_21h05.23.061,forced_choiceRT,2021.1.2,Win32,59.85156811,,,,,,,,2,Fast,f,1,1.7916,7,2,30,0,1,,,,,
,0.38,,,,,,,,,g.PNG,g,5e94c36719906c0b953bea4c,2021-09-08_21h05.23.061,forced_choiceRT,2021.1.2,Win32,59.85156811,,,,,,,,2,Fast,g,1,1.8878,7,3,31,1,1,,,,,
,1.38,,,,,,,,,h.PNG,h,5e94c36719906c0b953bea4c,2021-09-08_21h05.23.061,forced_choiceRT,2021.1.2,Win32,59.85156811,,,,,,,,2,Slow,j,0,2.277,8,0,32,2,1,,,,,
,0.33,,,,,,,,,h.PNG,h,5e94c36719906c0b953bea4c,2021-09-08_21h05.23.061,forced_choiceRT,2021.1.2,Win32,59.85156811,,,,,,,,2,Ontime,h,1,1.9819,8,1,33,2,1,,,,,
,1.27,,,,,,,,,h.PNG,h,5e94c36719906c0b953bea4c,2021-09-08_21h05.23.061,forced_choiceRT,2021.1.2,Win32,59.85156811,,,,,,,,2,Slow,h,1,2.2158,8,2,34,2,1,,,,,
,1.7,,,,,,,,,g.PNG,g,5e94c36719906c0b953bea4c,2021-09-08_21h05.23.061,forced_choiceRT,2021.1.2,Win32,59.85156811,,,,,,,,2,Slow,h,0,2.1109,8,3,35,1,1,,,,,
,0.22,,,,,,,,,h.PNG,h,5e94c36719906c0b953bea4c,2021-09-08_21h05.23.061,forced_choiceRT,2021.1.2,Win32,59.85156811,,,,,,,,2,Slow,h,1,2.1164,9,0,36,2,1,,,,,
,0.88,,,,,,,,,j.PNG,j,5e94c36719906c0b953bea4c,2021-09-08_21h05.23.061,forced_choiceRT,2021.1.2,Win32,59.85156811,,,,,,,,2,Ontime,j,1,1.9398,9,1,37,3,1,,,,,
,1.29,,,,,,,,,f.PNG,f,5e94c36719906c0b953bea4c,2021-09-08_21h05.23.061,forced_choiceRT,2021.1.2,Win32,59.85156811,,,,,,,,2,Slow,f,1,2.1978,9,2,38,0,1,,,,,
,1.17,,,,,,,,,h.PNG,h,5e94c36719906c0b953bea4c,2021-09-08_21h05.23.061,forced_choiceRT,2021.1.2,Win32,59.85156811,,,,,,,,2,Fast,f,0,1.3895,9,3,39,2,1,,,,,
,,,,,,,,,,,,5e94c36719906c0b953bea4c,2021-09-08_21h05.23.061,forced_choiceRT,2021.1.2,Win32,59.85156811,,,,,,,,,,,,,,,,,,1,0,1,0,1
,0.33,,,,,,,,,g.PNG,g,5e94c36719906c0b953bea4c,2021-09-08_21h05.23.061,forced_choiceRT,2021.1.2,Win32,59.85156811,,,,,,,,3,Fast,g,1,1.0643,0,0,0,1,1,,,,,
,0.06,,,,,,,,,g.PNG,g,5e94c36719906c0b953bea4c,2021-09-08_21h05.23.061,forced_choiceRT,2021.1.2,Win32,59.85156811,,,,,,,,3,Slow,h,0,2.3006,0,1,1,1,1,,,,,
,1.19,,,,,,,,,g.PNG,g,5e94c36719906c0b953bea4c,2021-09-08_21h05.23.061,forced_choiceRT,2021.1.2,Win32,59.85156811,,,,,,,,3,Slow,g,1,2.1238,0,2,2,1,1,,,,,
,1.83,,,,,,,,,h.PNG,h,5e94c36719906c0b953bea4c,2021-09-08_21h05.23.061,forced_choiceRT,2021.1.2,Win32,59.85156811,,,,,,,,3,Slow,g,0,2.1555,0,3,3,2,1,,,,,
,1.18,,,,,,,,,g.PNG,g,5e94c36719906c0b953bea4c,2021-09-08_21h05.23.061,forced_choiceRT,2021.1.2,Win32,59.85156811,,,,,,,,3,Ontime,g,1,2.057,1,0,4,1,1,,,,,
,1.12,,,,,,,,,h.PNG,h,5e94c36719906c0b953bea4c,2021-09-08_21h05.23.061,forced_choiceRT,2021.1.2,Win32,59.85156811,,,,,,,,3,Ontime,g,0,1.9915,1,1,5,2,1,,,,,
,1.13,,,,,,,,,h.PNG,h,5e94c36719906c0b953bea4c,2021-09-08_21h05.23.061,forced_choiceRT,2021.1.2,Win32,59.85156811,,,,,,,,3,Ontime,h,1,1.9681,1,2,6,2,1,,,,,
,0.27,,,,,,,,,j.PNG,j,5e94c36719906c0b953bea4c,2021-09-08_21h05.23.061,forced_choiceRT,2021.1.2,Win32,59.85156811,,,,,,,,3,Fast,j,1,1.7921,1,3,7,3,1,,,,,
,0.8,,,,,,,,,f.PNG,f,5e94c36719906c0b953bea4c,2021-09-08_21h05.23.061,forced_choiceRT,2021.1.2,Win32,59.85156811,,,,,,,,3,Fast,f,1,1.7503,2,0,8,0,1,,,,,
,1.51,,,,,,,,,f.PNG,f,5e94c36719906c0b953bea4c,2021-09-08_21h05.23.061,forced_choiceRT,2021.1.2,Win32,59.85156811,,,,,,,,3,Slow,f,1,2.2678,2,1,9,0,1,,,,,
,0.57,,,,,,,,,j.PNG,j,5e94c36719906c0b953bea4c,2021-09-08_21h05.23.061,forced_choiceRT,2021.1.2,Win32,59.85156811,,,,,,,,3,Ontime,j,1,1.9898,2,2,10,3,1,,,,,
,1.02,,,,,,,,,f.PNG,f,5e94c36719906c0b953bea4c,2021-09-08_21h05.23.061,forced_choiceRT,2021.1.2,Win32,59.85156811,,,,,,,,3,Ontime,f,1,2.0314,2,3,11,0,1,,,,,
,1.51,,,,,,,,,h.PNG,h,5e94c36719906c0b953bea4c,2021-09-08_21h05.23.061,forced_choiceRT,2021.1.2,Win32,59.85156811,,,,,,,,3,Slow,g,0,2.3226,3,0,12,2,1,,,,,
,1.65,,,,,,,,,j.PNG,j,5e94c36719906c0b953bea4c,2021-09-08_21h05.23.061,forced_choiceRT,2021.1.2,Win32,59.85156811,,,,,,,,3,Slow,j,1,2.3005,3,1,13,3,1,,,,,
,1.06,,,,,,,,,f.PNG,f,5e94c36719906c0b953bea4c,2021-09-08_21h05.23.061,forced_choiceRT,2021.1.2,Win32,59.85156811,,,,,,,,3,Fast,f,1,1.863,3,2,14,0,1,,,,,
,1.67,,,,,,,,,j.PNG,j,5e94c36719906c0b953bea4c,2021-09-08_21h05.23.061,forced_choiceRT,2021.1.2,Win32,59.85156811,,,,,,,,3,Slow,j,1,2.2988,3,3,15,3,1,,,,,
,1.72,,,,,,,,,f.PNG,f,5e94c36719906c0b953bea4c,2021-09-08_21h05.23.061,forced_choiceRT,2021.1.2,Win32,59.85156811,,,,,,,,3,Ontime,j,0,2.0068,4,0,16,0,1,,,,,
,1.03,,,,,,,,,h.PNG,h,5e94c36719906c0b953bea4c,2021-09-08_21h05.23.061,forced_choiceRT,2021.1.2,Win32,59.85156811,,,,,,,,3,Ontime,g,0,1.9155,4,1,17,2,1,,,,,
,1.61,,,,,,,,,j.PNG,j,5e94c36719906c0b953bea4c,2021-09-08_21h05.23.061,forced_choiceRT,2021.1.2,Win32,59.85156811,,,,,,,,3,Slow,j,1,2.2671,4,2,18,3,1,,,,,
,0.44,,,,,,,,,j.PNG,j,5e94c36719906c0b953bea4c,2021-09-08_21h05.23.061,forced_choiceRT,2021.1.2,Win32,59.85156811,,,,,,,,3,Fast,j,1,1.7374,4,3,19,3,1,,,,,
,1.71,,,,,,,,,g.PNG,g,5e94c36719906c0b953bea4c,2021-09-08_21h05.23.061,forced_choiceRT,2021.1.2,Win32,59.85156811,,,,,,,,3,Ontime,j,0,2.0763,5,0,20,1,1,,,,,
,1.73,,,,,,,,,g.PNG,g,5e94c36719906c0b953bea4c,2021-09-08_21h05.23.061,forced_choiceRT,2021.1.2,Win32,59.85156811,,,,,,,,3,Slow,h,0,2.2019,5,1,21,1,1,,,,,
,1.86,,,,,,,,,f.PNG,f,5e94c36719906c0b953bea4c,2021-09-08_21h05.23.061,forced_choiceRT,2021.1.2,Win32,59.85156811,,,,,,,,3,Slow,h,0,2.1647,5,2,22,0,1,,,,,
,0.84,,,,,,,,,g.PNG,g,5e94c36719906c0b953bea4c,2021-09-08_21h05.23.061,forced_choiceRT,2021.1.2,Win32,59.85156811,,,,,,,,3,Fast,g,1,1.4635,5,3,23,1,1,,,,,
,1.54,,,,,,,,,h.PNG,h,5e94c36719906c0b953bea4c,2021-09-08_21h05.23.061,forced_choiceRT,2021.1.2,Win32,59.85156811,,,,,,,,3,Slow,g,0,2.2392,6,0,24,2,1,,,,,
,1.85,,,,,,,,,g.PNG,g,5e94c36719906c0b953bea4c,2021-09-08_21h05.23.061,forced_choiceRT,2021.1.2,Win32,59.85156811,,,,,,,,3,Slow,g,1,3.0337,6,1,25,1,1,,,,,
,0.63,,,,,,,,,f.PNG,f,5e94c36719906c0b953bea4c,2021-09-08_21h05.23.061,forced_choiceRT,2021.1.2,Win32,59.85156811,,,,,,,,3,Fast,f,1,1.5191,6,2,26,0,1,,,,,
,0.99,,,,,,,,,j.PNG,j,5e94c36719906c0b953bea4c,2021-09-08_21h05.23.061,forced_choiceRT,2021.1.2,Win32,59.85156811,,,,,,,,3,Slow,j,1,2.2391,6,3,27,3,1,,,,,
,0.6,,,,,,,,,j.PNG,j,5e94c36719906c0b953bea4c,2021-09-08_21h05.23.061,forced_choiceRT,2021.1.2,Win32,59.85156811,,,,,,,,3,Fast,j,1,1.6551,7,0,28,3,1,,,,,
,0.75,,,,,,,,,j.PNG,j,5e94c36719906c0b953bea4c,2021-09-08_21h05.23.061,forced_choiceRT,2021.1.2,Win32,59.85156811,,,,,,,,3,Ontime,j,1,2.0639,7,1,29,3,1,,,,,
,0.94,,,,,,,,,h.PNG,h,5e94c36719906c0b953bea4c,2021-09-08_21h05.23.061,forced_choiceRT,2021.1.2,Win32,59.85156811,,,,,,,,3,Slow,h,1,2.5031,7,2,30,2,1,,,,,
,0.34,,,,,,,,,h.PNG,h,5e94c36719906c0b953bea4c,2021-09-08_21h05.23.061,forced_choiceRT,2021.1.2,Win32,59.85156811,,,,,,,,3,Ontime,h,1,2.0204,7,3,31,2,1,,,,,
,0.42,,,,,,,,,h.PNG,h,5e94c36719906c0b953bea4c,2021-09-08_21h05.23.061,forced_choiceRT,2021.1.2,Win32,59.85156811,,,,,,,,3,Ontime,h,1,2.0645,8,0,32,2,1,,,,,
,1.03,,,,,,,,,g.PNG,g,5e94c36719906c0b953bea4c,2021-09-08_21h05.23.061,forced_choiceRT,2021.1.2,Win32,59.85156811,,,,,,,,3,Ontime,g,1,1.9548,8,1,33,1,1,,,,,
,1.44,,,,,,,,,f.PNG,f,5e94c36719906c0b953bea4c,2021-09-08_21h05.23.061,forced_choiceRT,2021.1.2,Win32,59.85156811,,,,,,,,3,Ontime,f,1,2.0112,8,2,34,0,1,,,,,
,1.81,,,,,,,,,g.PNG,g,5e94c36719906c0b953bea4c,2021-09-08_21h05.23.061,forced_choiceRT,2021.1.2,Win32,59.85156811,,,,,,,,3,Slow,h,0,2.4083,8,3,35,1,1,,,,,
,0.58,,,,,,,,,h.PNG,h,5e94c36719906c0b953bea4c,2021-09-08_21h05.23.061,forced_choiceRT,2021.1.2,Win32,59.85156811,,,,,,,,3,Ontime,h,1,1.9075,9,0,36,2,1,,,,,
,1.54,,,,,,,,,f.PNG,f,5e94c36719906c0b953bea4c,2021-09-08_21h05.23.061,forced_choiceRT,2021.1.2,Win32,59.85156811,,,,,,,,3,Slow,f,1,2.244,9,1,37,0,1,,,,,
,1.8,,,,,,,,,f.PNG,f,5e94c36719906c0b953bea4c,2021-09-08_21h05.23.061,forced_choiceRT,2021.1.2,Win32,59.85156811,,,,,,,,3,Slow,f,1,2.3197,9,2,38,0,1,,,,,
,1.43,,,,,,,,,j.PNG,j,5e94c36719906c0b953bea4c,2021-09-08_21h05.23.061,forced_choiceRT,2021.1.2,Win32,59.85156811,,,,,,,,3,Slow,h,0,2.2009,9,3,39,3,1,,,,,
,,,,,,,,,,,,5e94c36719906c0b953bea4c,2021-09-08_21h05.23.061,forced_choiceRT,2021.1.2,Win32,59.85156811,,,,,,,,,,,,,,,,,,2,0,2,0,1
,0.82,,,,,,,,,g.PNG,g,5e94c36719906c0b953bea4c,2021-09-08_21h05.23.061,forced_choiceRT,2021.1.2,Win32,59.85156811,,,,,,,,4,Fast,j,0,1.5503,0,0,0,1,1,,,,,
,0.59,,,,,,,,,j.PNG,j,5e94c36719906c0b953bea4c,2021-09-08_21h05.23.061,forced_choiceRT,2021.1.2,Win32,59.85156811,,,,,,,,4,Fast,j,1,1.3584,0,1,1,3,1,,,,,
,1.82,,,,,,,,,j.PNG,j,5e94c36719906c0b953bea4c,2021-09-08_21h05.23.061,forced_choiceRT,2021.1.2,Win32,59.85156811,,,,,,,,4,Ontime,j,1,2.0957,0,2,2,3,1,,,,,
,0.01,,,,,,,,,j.PNG,j,5e94c36719906c0b953bea4c,2021-09-08_21h05.23.061,forced_choiceRT,2021.1.2,Win32,59.85156811,,,,,,,,4,Fast,j,1,0.6627,0,3,3,3,1,,,,,
,0.74,,,,,,,,,g.PNG,g,5e94c36719906c0b953bea4c,2021-09-08_21h05.23.061,forced_choiceRT,2021.1.2,Win32,59.85156811,,,,,,,,4,Ontime,h,0,2.0383,1,0,4,1,1,,,,,
,0.7,,,,,,,,,f.PNG,f,5e94c36719906c0b953bea4c,2021-09-08_21h05.23.061,forced_choiceRT,2021.1.2,Win32,59.85156811,,,,,,,,4,Slow,f,1,2.2169,1,1,5,0,1,,,,,
,1.15,,,,,,,,,f.PNG,f,5e94c36719906c0b953bea4c,2021-09-08_21h05.23.061,forced_choiceRT,2021.1.2,Win32,59.85156811,,,,,,,,4,Slow,f,1,2.1844,1,2,6,0,1,,,,,
,1.4,,,,,,,,,g.PNG,g,5e94c36719906c0b953bea4c,2021-09-08_21h05.23.061,forced_choiceRT,2021.1.2,Win32,59.85156811,,,,,,,,4,Ontime,g,1,2.0785,1,3,7,1,1,,,,,
,0.13,,,,,,,,,f.PNG,f,5e94c36719906c0b953bea4c,2021-09-08_21h05.23.061,forced_choiceRT,2021.1.2,Win32,59.85156811,,,,,,,,4,Ontime,f,1,2.0919,2,0,8,0,1,,,,,
,0.06,,,,,,,,,f.PNG,f,5e94c36719906c0b953bea4c,2021-09-08_21h05.23.061,forced_choiceRT,2021.1.2,Win32,59.85156811,,,,,,,,4,Slow,f,1,2.1153,2,1,9,0,1,,,,,
,0.24,,,,,,,,,h.PNG,h,5e94c36719906c0b953bea4c,2021-09-08_21h05.23.061,forced_choiceRT,2021.1.2,Win32,59.85156811,,,,,,,,4,Ontime,h,1,2.0618,2,2,10,2,1,,,,,
,0.11,,,,,,,,,h.PNG,h,5e94c36719906c0b953bea4c,2021-09-08_21h05.23.061,forced_choiceRT,2021.1.2,Win32,59.85156811,,,,,,,,4,Ontime,h,1,2.0112,2,3,11,2,1,,,,,
,0.75,,,,,,,,,h.PNG,h,5e94c36719906c0b953bea4c,2021-09-08_21h05.23.061,forced_choiceRT,2021.1.2,Win32,59.85156811,,,,,,,,4,Fast,h,1,1.8777,3,0,12,2,1,,,,,
,0.86,,,,,,,,,h.PNG,h,5e94c36719906c0b953bea4c,2021-09-08_21h05.23.061,forced_choiceRT,2021.1.2,Win32,59.85156811,,,,,,,,4,Fast,h,1,1.8824,3,1,13,2,1,,,,,
,1.29,,,,,,,,,g.PNG,g,5e94c36719906c0b953bea4c,2021-09-08_21h05.23.061,forced_choiceRT,2021.1.2,Win32,59.85156811,,,,,,,,4,Ontime,h,0,2.0176,3,2,14,1,1,,,,,
,1.47,,,,,,,,,f.PNG,f,5e94c36719906c0b953bea4c,2021-09-08_21h05.23.061,forced_choiceRT,2021.1.2,Win32,59.85156811,,,,,,,,4,Slow,f,1,2.3791,3,3,15,0,1,,,,,
,0.67,,,,,,,,,f.PNG,f,5e94c36719906c0b953bea4c,2021-09-08_21h05.23.061,forced_choiceRT,2021.1.2,Win32,59.85156811,,,,,,,,4,Ontime,f,1,1.9046,4,0,16,0,1,,,,,
,0.95,,,,,,,,,g.PNG,g,5e94c36719906c0b953bea4c,2021-09-08_21h05.23.061,forced_choiceRT,2021.1.2,Win32,59.85156811,,,,,,,,4,Ontime,h,0,1.9559,4,1,17,1,1,,,,,
,1.57,,,,,,,,,f.PNG,f,5e94c36719906c0b953bea4c,2021-09-08_21h05.23.061,forced_choiceRT,2021.1.2,Win32,59.85156811,,,,,,,,4,Ontime,g,0,1.9562,4,2,18,0,1,,,,,
,1.33,,,,,,,,,h.PNG,h,5e94c36719906c0b953bea4c,2021-09-08_21h05.23.061,forced_choiceRT,2021.1.2,Win32,59.85156811,,,,,,,,4,Slow,h,1,2.1902,4,3,19,2,1,,,,,
,1.44,,,,,,,,,g.PNG,g,5e94c36719906c0b953bea4c,2021-09-08_21h05.23.061,forced_choiceRT,2021.1.2,Win32,59.85156811,,,,,,,,4,Ontime,h,0,1.9553,5,0,20,1,1,,,,,
,1.85,,,,,,,,,j.PNG,j,5e94c36719906c0b953bea4c,2021-09-08_21h05.23.061,forced_choiceRT,2021.1.2,Win32,59.85156811,,,,,,,,4,Slow,h,0,2.2052,5,1,21,3,1,,,,,
,0.69,,,,,,,,,h.PNG,h,5e94c36719906c0b953bea4c,2021-09-08_21h05.23.061,forced_choiceRT,2021.1.2,Win32,59.85156811,,,,,,,,4,Ontime,j,0,2.0741,5,2,22,2,1,,,,,
,1.76,,,,,,,,,g.PNG,g,5e94c36719906c0b953bea4c,2021-09-08_21h05.23.061,forced_choiceRT,2021.1.2,Win32,59.85156811,,,,,,,,4,Slow,h,0,2.2934,5,3,23,1,1,,,,,
,1.08,,,,,,,,,g.PNG,g,5e94c36719906c0b953bea4c,2021-09-08_21h05.23.061,forced_choiceRT,2021.1.2,Win32,59.85156811,,,,,,,,4,Fast,h,0,1.6243,6,0,24,1,1,,,,,
,0.7,,,,,,,,,h.PNG,h,5e94c36719906c0b953bea4c,2021-09-08_21h05.23.061,forced_choiceRT,2021.1.2,Win32,59.85156811,,,,,,,,4,Ontime,h,1,1.9881,6,1,25,2,1,,,,,
,1.55,,,,,,,,,j.PNG,j,5e94c36719906c0b953bea4c,2021-09-08_21h05.23.061,forced_choiceRT,2021.1.2,Win32,59.85156811,,,,,,,,4,Ontime,h,0,2.0963,6,2,26,3,1,,,,,
,1.21,,,,,,,,,j.PNG,j,5e94c36719906c0b953bea4c,2021-09-08_21h05.23.061,forced_choiceRT,2021.1.2,Win32,59.85156811,,,,,,,,4,Fast,j,1,1.7821,6,3,27,3,1,,,,,
,0.18,,,,,,,,,g.PNG,g,5e94c36719906c0b953bea4c,2021-09-08_21h05.23.061,forced_choiceRT,2021.1.2,Win32,59.85156811,,,,,,,,4,Ontime,h,0,2.0079,7,0,28,1,1,,,,,
,1.15,,,,,,,,,f.PNG,f,5e94c36719906c0b953bea4c,2021-09-08_21h05.23.061,forced_choiceRT,2021.1.2,Win32,59.85156811,,,,,,,,4,Ontime,g,0,2.0905,7,1,29,0,1,,,,,
,0.05,,,,,,,,,g.PNG,g,5e94c36719906c0b953bea4c,2021-09-08_21h05.23.061,forced_choiceRT,2021.1.2,Win32,59.85156811,,,,,,,,4,Ontime,g,1,1.942,7,2,30,1,1,,,,,
,1.34,,,,,,,,,h.PNG,h,5e94c36719906c0b953bea4c,2021-09-08_21h05.23.061,forced_choiceRT,2021.1.2,Win32,59.85156811,,,,,,,,4,Slow,h,1,2.1173,7,3,31,2,1,,,,,
,0.85,,,,,,,,,j.PNG,j,5e94c36719906c0b953bea4c,2021-09-08_21h05.23.061,forced_choiceRT,2021.1.2,Win32,59.85156811,,,,,,,,4,Ontime,j,1,1.9601,8,0,32,3,1,,,,,
,1.89,,,,,,,,,h.PNG,h,5e94c36719906c0b953bea4c,2021-09-08_21h05.23.061,forced_choiceRT,2021.1.2,Win32,59.85156811,,,,,,,,4,Slow,j,0,2.2186,8,1,33,2,1,,,,,
,1.75,,,,,,,,,j.PNG,j,5e94c36719906c0b953bea4c,2021-09-08_21h05.23.061,forced_choiceRT,2021.1.2,Win32,59.85156811,,,,,,,,4,Slow,h,0,2.2748,8,2,34,3,1,,,,,
,1.49,,,,,,,,,h.PNG,h,5e94c36719906c0b953bea4c,2021-09-08_21h05.23.061,forced_choiceRT,2021.1.2,Win32,59.85156811,,,,,,,,4,Ontime,j,0,2.0496,8,3,35,2,1,,,,,
,1.72,,,,,,,,,f.PNG,f,5e94c36719906c0b953bea4c,2021-09-08_21h05.23.061,forced_choiceRT,2021.1.2,Win32,59.85156811,,,,,,,,4,Slow,j,0,2.2085,9,0,36,0,1,,,,,
,0.12,,,,,,,,,j.PNG,j,5e94c36719906c0b953bea4c,2021-09-08_21h05.23.061,forced_choiceRT,2021.1.2,Win32,59.85156811,,,,,,,,4,Slow,j,1,2.1865,9,1,37,3,1,,,,,
,1.61,,,,,,,,,f.PNG,f,5e94c36719906c0b953bea4c,2021-09-08_21h05.23.061,forced_choiceRT,2021.1.2,Win32,59.85156811,,,,,,,,4,Slow,f,1,2.2598,9,2,38,0,1,,,,,
,0.44,,,,,,,,,j.PNG,j,5e94c36719906c0b953bea4c,2021-09-08_21h05.23.061,forced_choiceRT,2021.1.2,Win32,59.85156811,,,,,,,,4,Ontime,j,1,1.9231,9,3,39,3,1,,,,,
,,,,,,,,,,,,5e94c36719906c0b953bea4c,2021-09-08_21h05.23.061,forced_choiceRT,2021.1.2,Win32,59.85156811,,,,,,,,,,,,,,,,,,3,0,3,0,1
,0.75,,,,,,,,,g.PNG,g,5e94c36719906c0b953bea4c,2021-09-08_21h05.23.061,forced_choiceRT,2021.1.2,Win32,59.85156811,,,,,,,,5,Slow,j,0,2.2585,0,0,0,1,1,,,,,
,1.86,,,,,,,,,j.PNG,j,5e94c36719906c0b953bea4c,2021-09-08_21h05.23.061,forced_choiceRT,2021.1.2,Win32,59.85156811,,,,,,,,5,Slow,j,1,2.2167,0,1,1,3,1,,,,,
,0.85,,,,,,,,,f.PNG,f,5e94c36719906c0b953bea4c,2021-09-08_21h05.23.061,forced_choiceRT,2021.1.2,Win32,59.85156811,,,,,,,,5,Fast,j,0,1.4537,0,2,2,0,1,,,,,
,0.28,,,,,,,,,h.PNG,h,5e94c36719906c0b953bea4c,2021-09-08_21h05.23.061,forced_choiceRT,2021.1.2,Win32,59.85156811,,,,,,,,5,Ontime,h,1,1.9942,0,3,3,2,1,,,,,
,0.99,,,,,,,,,f.PNG,f,5e94c36719906c0b953bea4c,2021-09-08_21h05.23.061,forced_choiceRT,2021.1.2,Win32,59.85156811,,,,,,,,5,Ontime,f,1,2.0224,1,0,4,0,1,,,,,
,0.84,,,,,,,,,j.PNG,j,5e94c36719906c0b953bea4c,2021-09-08_21h05.23.061,forced_choiceRT,2021.1.2,Win32,59.85156811,,,,,,,,5,Ontime,j,1,1.9727,1,1,5,3,1,,,,,
,1.75,,,,,,,,,g.PNG,g,5e94c36719906c0b953bea4c,2021-09-08_21h05.23.061,forced_choiceRT,2021.1.2,Win32,59.85156811,,,,,,,,5,Slow,j,0,2.2476,1,2,6,1,1,,,,,
,1.28,,,,,,,,,h.PNG,h,5e94c36719906c0b953bea4c,2021-09-08_21h05.23.061,forced_choiceRT,2021.1.2,Win32,59.85156811,,,,,,,,5,Slow,h,1,2.228,1,3,7,2,1,,,,,
,0.35,,,,,,,,,h.PNG,h,5e94c36719906c0b953bea4c,2021-09-08_21h05.23.061,forced_choiceRT,2021.1.2,Win32,59.85156811,,,,,,,,5,Ontime,h,1,2.0445,2,0,8,2,1,,,,,
,0.54,,,,,,,,,f.PNG,f,5e94c36719906c0b953bea4c,2021-09-08_21h05.23.061,forced_choiceRT,2021.1.2,Win32,59.85156811,,,,,,,,5,Ontime,f,1,1.9279,2,1,9,0,1,,,,,
,1.77,,,,,,,,,g.PNG,g,5e94c36719906c0b953bea4c,2021-09-08_21h05.23.061,forced_choiceRT,2021.1.2,Win32,59.85156811,,,,,,,,5,Ontime,f,0,2.0457,2,2,10,1,1,,,,,
,1.73,,,,,,,,,h.PNG,h,5e94c36719906c0b953bea4c,2021-09-08_21h05.23.061,forced_choiceRT,2021.1.2,Win32,59.85156811,,,,,,,,5,Slow,g,0,2.2322,2,3,11,2,1,,,,,
,0.89,,,,,,,,,g.PNG,g,5e94c36719906c0b953bea4c,2021-09-08_21h05.23.061,forced_choiceRT,2021.1.2,Win32,59.85156811,,,,,,,,5,Fast,h,0,1.7367,3,0,12,1,1,,,,,
,0.28,,,,,,,,,j.PNG,j,5e94c36719906c0b953bea4c,2021-09-08_21h05.23.061,forced_choiceRT,2021.1.2,Win32,59.85156811,,,,,,,,5,Ontime,j,1,1.9252,3,1,13,3,1,,,,,
,1.95,,,,,,,,,f.PNG,f,5e94c36719906c0b953bea4c,2021-09-08_21h05.23.061,forced_choiceRT,2021.1.2,Win32,59.85156811,,,,,,,,5,Slow,j,0,2.3593,3,2,14,0,1,,,,,
,1.2,,,,,,,,,j.PNG,j,5e94c36719906c0b953bea4c,2021-09-08_21h05.23.061,forced_choiceRT,2021.1.2,Win32,59.85156811,,,,,,,,5,Fast,j,1,1.8841,3,3,15,3,1,,,,,
,0.5,,,,,,,,,f.PNG,f,5e94c36719906c0b953bea4c,2021-09-08_21h05.23.061,forced_choiceRT,2021.1.2,Win32,59.85156811,,,,,,,,5,Ontime,f,1,1.9272,4,0,16,0,1,,,,,
,1,,,,,,,,,g.PNG,g,5e94c36719906c0b953bea4c,2021-09-08_21h05.23.061,forced_choiceRT,2021.1.2,Win32,59.85156811,,,,,,,,5,Ontime,g,1,2.0153,4,1,17,1,1,,,,,
,0.98,,,,,,,,,f.PNG,f,5e94c36719906c0b953bea4c,2021-09-08_21h05.23.061,forced_choiceRT,2021.1.2,Win32,59.85156811,,,,,,,,5,Fast,f,1,1.6811,4,2,18,0,1,,,,,
,0.51,,,,,,,,,f.PNG,f,5e94c36719906c0b953bea4c,2021-09-08_21h05.23.061,forced_choiceRT,2021.1.2,Win32,59.85156811,,,,,,,,5,Ontime,f,1,2.0173,4,3,19,0,1,,,,,
,1.94,,,,,,,,,h.PNG,h,5e94c36719906c0b953bea4c,2021-09-08_21h05.23.061,forced_choiceRT,2021.1.2,Win32,59.85156811,,,,,,,,5,Slow,j,0,3.272,5,0,20,2,1,,,,,
,0.46,,,,,,,,,g.PNG,g,5e94c36719906c0b953bea4c,2021-09-08_21h05.23.061,forced_choiceRT,2021.1.2,Win32,59.85156811,,,,,,,,5,Ontime,g,1,2.0054,5,1,21,1,1,,,,,
,0.79,,,,,,,,,g.PNG,g,5e94c36719906c0b953bea4c,2021-09-08_21h05.23.061,forced_choiceRT,2021.1.2,Win32,59.85156811,,,,,,,,5,Ontime,g,1,1.918,5,2,22,1,1,,,,,
,1.45,,,,,,,,,f.PNG,f,5e94c36719906c0b953bea4c,2021-09-08_21h05.23.061,forced_choiceRT,2021.1.2,Win32,59.85156811,,,,,,,,5,Slow,f,1,2.1705,5,3,23,0,1,,,,,
,0.08,,,,,,,,,g.PNG,g,5e94c36719906c0b953bea4c,2021-09-08_21h05.23.061,forced_choiceRT,2021.1.2,Win32,59.85156811,,,,,,,,5,Ontime,j,0,2.0548,6,0,24,1,1,,,,,
,0.19,,,,,,,,,j.PNG,j,5e94c36719906c0b953bea4c,2021-09-08_21h05.23.061,forced_choiceRT,2021.1.2,Win32,59.85156811,,,,,,,,5,Ontime,j,1,1.996,6,1,25,3,1,,,,,
,0.14,,,,,,,,,g.PNG,g,5e94c36719906c0b953bea4c,2021-09-08_21h05.23.061,forced_choiceRT,2021.1.2,Win32,59.85156811,,,,,,,,5,Ontime,h,0,2.0614,6,2,26,1,1,,,,,
,0.99,,,,,,,,,g.PNG,g,5e94c36719906c0b953bea4c,2021-09-08_21h05.23.061,forced_choiceRT,2021.1.2,Win32,59.85156811,,,,,,,,5,Ontime,g,1,2.0254,6,3,27,1,1,,,,,
,0.72,,,,,,,,,j.PNG,j,5e94c36719906c0b953bea4c,2021-09-08_21h05.23.061,forced_choiceRT,2021.1.2,Win32,59.85156811,,,,,,,,5,Slow,j,1,2.1299,7,0,28,3,1,,,,,
,0.06,,,,,,,,,j.PNG,j,5e94c36719906c0b953bea4c,2021-09-08_21h05.23.061,forced_choiceRT,2021.1.2,Win32,59.85156811,,,,,,,,5,Ontime,j,1,1.9396,7,1,29,3,1,,,,,
,0.06,,,,,,,,,h.PNG,h,5e94c36719906c0b953bea4c,2021-09-08_21h05.23.061,forced_choiceRT,2021.1.2,Win32,59.85156811,,,,,,,,5,Slow,h,1,2.3192,7,2,30,2,1,,,,,
,1.6,,,,,,,,,h.PNG,h,5e94c36719906c0b953bea4c,2021-09-08_21h05.23.061,forced_choiceRT,2021.1.2,Win32,59.85156811,,,,,,,,5,Slow,g,0,2.3898,7,3,31,2,1,,,,,
,0.78,,,,,,,,,j.PNG,j,5e94c36719906c0b953bea4c,2021-09-08_21h05.23.061,forced_choiceRT,2021.1.2,Win32,59.85156811,,,,,,,,5,Fast,j,1,1.5164,8,0,32,3,1,,,,,
,0.07,,,,,,,,,j.PNG,j,5e94c36719906c0b953bea4c,2021-09-08_21h05.23.061,forced_choiceRT,2021.1.2,Win32,59.85156811,,,,,,,,5,Slow,j,1,2.1124,8,1,33,3,1,,,,,
,0.15,,,,,,,,,h.PNG,h,5e94c36719906c0b953bea4c,2021-09-08_21h05.23.061,forced_choiceRT,2021.1.2,Win32,59.85156811,,,,,,,,5,Slow,h,1,2.1143,8,2,34,2,1,,,,,
,0.82,,,,,,,,,f.PNG,f,5e94c36719906c0b953bea4c,2021-09-08_21h05.23.061,forced_choiceRT,2021.1.2,Win32,59.85156811,,,,,,,,5,Ontime,f,1,1.9895,8,3,35,0,1,,,,,
,1.75,,,,,,,,,h.PNG,h,5e94c36719906c0b953bea4c,2021-09-08_21h05.23.061,forced_choiceRT,2021.1.2,Win32,59.85156811,,,,,,,,5,Slow,j,0,2.3889,9,0,36,2,1,,,,,
,1.37,,,,,,,,,h.PNG,h,5e94c36719906c0b953bea4c,2021-09-08_21h05.23.061,forced_choiceRT,2021.1.2,Win32,59.85156811,,,,,,,,5,Ontime,j,0,1.9549,9,1,37,2,1,,,,,
,0.84,,,,,,,,,f.PNG,f,5e94c36719906c0b953bea4c,2021-09-08_21h05.23.061,forced_choiceRT,2021.1.2,Win32,59.85156811,,,,,,,,5,Fast,f,1,1.7734,9,2,38,0,1,,,,,
,0.23,,,,,,,,,j.PNG,j,5e94c36719906c0b953bea4c,2021-09-08_21h05.23.061,forced_choiceRT,2021.1.2,Win32,59.85156811,,,,,,,,5,Ontime,j,1,1.9385,9,3,39,3,1,,,,,
,,,,,,,,,,,,5e94c36719906c0b953bea4c,2021-09-08_21h05.23.061,forced_choiceRT,2021.1.2,Win32,59.85156811,,,,,,,,,,,,,,,,,,4,0,4,0,1
,0.27,,,,,,,,,f.PNG,f,5e94c36719906c0b953bea4c,2021-09-08_21h05.23.061,forced_choiceRT,2021.1.2,Win32,59.85156811,,,,,,,,6,Slow,h,0,2.1167,0,0,0,0,1,,,,,
,1.11,,,,,,,,,j.PNG,j,5e94c36719906c0b953bea4c,2021-09-08_21h05.23.061,forced_choiceRT,2021.1.2,Win32,59.85156811,,,,,,,,6,Ontime,j,1,2.0888,0,1,1,3,1,,,,,
,0.22,,,,,,,,,f.PNG,f,5e94c36719906c0b953bea4c,2021-09-08_21h05.23.061,forced_choiceRT,2021.1.2,Win32,59.85156811,,,,,,,,6,Fast,f,1,1.7746,0,2,2,0,1,,,,,
,0.23,,,,,,,,,g.PNG,g,5e94c36719906c0b953bea4c,2021-09-08_21h05.23.061,forced_choiceRT,2021.1.2,Win32,59.85156811,,,,,,,,6,Ontime,g,1,1.9878,0,3,3,1,1,,,,,
,0.59,,,,,,,,,j.PNG,j,5e94c36719906c0b953bea4c,2021-09-08_21h05.23.061,forced_choiceRT,2021.1.2,Win32,59.85156811,,,,,,,,6,Ontime,j,1,1.9998,1,0,4,3,1,,,,,
,0.44,,,,,,,,,f.PNG,f,5e94c36719906c0b953bea4c,2021-09-08_21h05.23.061,forced_choiceRT,2021.1.2,Win32,59.85156811,,,,,,,,6,Ontime,f,1,2.0575,1,1,5,0,1,,,,,
,1.73,,,,,,,,,j.PNG,j,5e94c36719906c0b953bea4c,2021-09-08_21h05.23.061,forced_choiceRT,2021.1.2,Win32,59.85156811,,,,,,,,6,Slow,j,1,2.2812,1,2,6,3,1,,,,,
,1.27,,,,,,,,,g.PNG,g,5e94c36719906c0b953bea4c,2021-09-08_21h05.23.061,forced_choiceRT,2021.1.2,Win32,59.85156811,,,,,,,,6,Ontime,h,0,1.9963,1,3,7,1,1,,,,,
,0.45,,,,,,,,,h.PNG,h,5e94c36719906c0b953bea4c,2021-09-08_21h05.23.061,forced_choiceRT,2021.1.2,Win32,59.85156811,,,,,,,,6,Ontime,h,1,1.9953,2,0,8,2,1,,,,,
,0.94,,,,,,,,,j.PNG,j,5e94c36719906c0b953bea4c,2021-09-08_21h05.23.061,forced_choiceRT,2021.1.2,Win32,59.85156811,,,,,,,,6,Ontime,j,1,1.9596,2,1,9,3,1,,,,,
,1.96,,,,,,,,,h.PNG,h,5e94c36719906c0b953bea4c,2021-09-08_21h05.23.061,forced_choiceRT,2021.1.2,Win32,59.85156811,,,,,,,,6,Slow,j,0,2.1003,2,2,10,2,1,,,,,
,1.71,,,,,,,,,h.PNG,h,5e94c36719906c0b953bea4c,2021-09-08_21h05.23.061,forced_choiceRT,2021.1.2,Win32,59.85156811,,,,,,,,6,Ontime,h,1,1.9784,2,3,11,2,1,,,,,
,0.85,,,,,,,,,f.PNG,f,5e94c36719906c0b953bea4c,2021-09-08_21h05.23.061,forced_choiceRT,2021.1.2,Win32,59.85156811,,,,,,,,6,Fast,f,1,1.8236,3,0,12,0,1,,,,,
,0.11,,,,,,,,,j.PNG,j,5e94c36719906c0b953bea4c,2021-09-08_21h05.23.061,forced_choiceRT,2021.1.2,Win32,59.85156811,,,,,,,,6,Ontime,j,1,2.0834,3,1,13,3,1,,,,,
,1.26,,,,,,,,,h.PNG,h,5e94c36719906c0b953bea4c,2021-09-08_21h05.23.061,forced_choiceRT,2021.1.2,Win32,59.85156811,,,,,,,,6,Ontime,h,1,2.0069,3,2,14,2,1,,,,,
,0.58,,,,,,,,,h.PNG,h,5e94c36719906c0b953bea4c,2021-09-08_21h05.23.061,forced_choiceRT,2021.1.2,Win32,59.85156811,,,,,,,,6,Ontime,h,1,1.9064,3,3,15,2,1,,,,,
,0.53,,,,,,,,,j.PNG,j,5e94c36719906c0b953bea4c,2021-09-08_21h05.23.061,forced_choiceRT,2021.1.2,Win32,59.85156811,,,,,,,,6,Ontime,j,1,1.9901,4,0,16,3,1,,,,,
,0.59,,,,,,,,,h.PNG,h,5e94c36719906c0b953bea4c,2021-09-08_21h05.23.061,forced_choiceRT,2021.1.2,Win32,59.85156811,,,,,,,,6,Slow,h,1,2.1071,4,1,17,2,1,,,,,
,1.1,,,,,,,,,j.PNG,j,5e94c36719906c0b953bea4c,2021-09-08_21h05.23.061,forced_choiceRT,2021.1.2,Win32,59.85156811,,,,,,,,6,Ontime,j,1,1.9903,4,2,18,3,1,,,,,
,1.54,,,,,,,,,f.PNG,f,5e94c36719906c0b953bea4c,2021-09-08_21h05.23.061,forced_choiceRT,2021.1.2,Win32,59.85156811,,,,,,,,6,Slow,f,1,2.2581,4,3,19,0,1,,,,,
,1.58,,,,,,,,,g.PNG,g,5e94c36719906c0b953bea4c,2021-09-08_21h05.23.061,forced_choiceRT,2021.1.2,Win32,59.85156811,,,,,,,,6,Slow,j,0,2.1754,5,0,20,1,1,,,,,
,0.73,,,,,,,,,f.PNG,f,5e94c36719906c0b953bea4c,2021-09-08_21h05.23.061,forced_choiceRT,2021.1.2,Win32,59.85156811,,,,,,,,6,Ontime,f,1,1.9578,5,1,21,0,1,,,,,
,1.48,,,,,,,,,g.PNG,g,5e94c36719906c0b953bea4c,2021-09-08_21h05.23.061,forced_choiceRT,2021.1.2,Win32,59.85156811,,,,,,,,6,Slow,g,1,2.1075,5,2,22,1,1,,,,,
,0.09,,,,,,,,,f.PNG,f,5e94c36719906c0b953bea4c,2021-09-08_21h05.23.061,forced_choiceRT,2021.1.2,Win32,59.85156811,,,,,,,,6,Slow,f,1,2.1007,5,3,23,0,1,,,,,
,0.73,,,,,,,,,h.PNG,h,5e94c36719906c0b953bea4c,2021-09-08_21h05.23.061,forced_choiceRT,2021.1.2,Win32,59.85156811,,,,,,,,6,Ontime,h,1,2.0413,6,0,24,2,1,,,,,
,0.19,,,,,,,,,j.PNG,j,5e94c36719906c0b953bea4c,2021-09-08_21h05.23.061,forced_choiceRT,2021.1.2,Win32,59.85156811,,,,,,,,6,Ontime,j,1,1.9736,6,1,25,3,1,,,,,
,1.95,,,,,,,,,g.PNG,g,5e94c36719906c0b953bea4c,2021-09-08_21h05.23.061,forced_choiceRT,2021.1.2,Win32,59.85156811,,,,,,,,6,Slow,j,0,2.1998,6,2,26,1,1,,,,,
,0.64,,,,,,,,,f.PNG,f,5e94c36719906c0b953bea4c,2021-09-08_21h05.23.061,forced_choiceRT,2021.1.2,Win32,59.85156811,,,,,,,,6,Ontime,f,1,2.069,6,3,27,0,1,,,,,
,1.47,,,,,,,,,f.PNG,f,5e94c36719906c0b953bea4c,2021-09-08_21h05.23.061,forced_choiceRT,2021.1.2,Win32,59.85156811,,,,,,,,6,Slow,f,1,2.1847,7,0,28,0,1,,,,,
,0.64,,,,,,,,,j.PNG,j,5e94c36719906c0b953bea4c,2021-09-08_21h05.23.061,forced_choiceRT,2021.1.2,Win32,59.85156811,,,,,,,,6,Ontime,j,1,2.0388,7,1,29,3,1,,,,,
,1.3,,,,,,,,,h.PNG,h,5e94c36719906c0b953bea4c,2021-09-08_21h05.23.061,forced_choiceRT,2021.1.2,Win32,59.85156811,,,,,,,,6,Ontime,h,1,2.0817,7,2,30,2,1,,,,,
,0.32,,,,,,,,,h.PNG,h,5e94c36719906c0b953bea4c,2021-09-08_21h05.23.061,forced_choiceRT,2021.1.2,Win32,59.85156811,,,,,,,,6,Ontime,h,1,2.0946,7,3,31,2,1,,,,,
,1.11,,,,,,,,,g.PNG,g,5e94c36719906c0b953bea4c,2021-09-08_21h05.23.061,forced_choiceRT,2021.1.2,Win32,59.85156811,,,,,,,,6,Ontime,h,0,1.9812,8,0,32,1,1,,,,,
,1.81,,,,,,,,,h.PNG,h,5e94c36719906c0b953bea4c,2021-09-08_21h05.23.061,forced_choiceRT,2021.1.2,Win32,59.85156811,,,,,,,,6,Slow,j,0,2.1515,8,1,33,2,1,,,,,
,1.68,,,,,,,,,f.PNG,f,5e94c36719906c0b953bea4c,2021-09-08_21h05.23.061,forced_choiceRT,2021.1.2,Win32,59.85156811,,,,,,,,6,Ontime,h,0,2.0063,8,2,34,0,1,,,,,
,1.7,,,,,,,,,g.PNG,g,5e94c36719906c0b953bea4c,2021-09-08_21h05.23.061,forced_choiceRT,2021.1.2,Win32,59.85156811,,,,,,,,6,Slow,f,0,2.167,8,3,35,1,1,,,,,
,0.95,,,,,,,,,g.PNG,g,5e94c36719906c0b953bea4c,2021-09-08_21h05.23.061,forced_choiceRT,2021.1.2,Win32,59.85156811,,,,,,,,6,Fast,h,0,1.7503,9,0,36,1,1,,,,,
,0.15,,,,,,,,,g.PNG,g,5e94c36719906c0b953bea4c,2021-09-08_21h05.23.061,forced_choiceRT,2021.1.2,Win32,59.85156811,,,,,,,,6,Ontime,h,0,1.9782,9,1,37,1,1,,,,,
,1.16,,,,,,,,,j.PNG,j,5e94c36719906c0b953bea4c,2021-09-08_21h05.23.061,forced_choiceRT,2021.1.2,Win32,59.85156811,,,,,,,,6,Ontime,j,1,1.9883,9,2,38,3,1,,,,,
,0.87,,,,,,,,,g.PNG,g,5e94c36719906c0b953bea4c,2021-09-08_21h05.23.061,forced_choiceRT,2021.1.2,Win32,59.85156811,,,,,,,,6,Ontime,h,0,1.9456,9,3,39,1,1,,,,,
,,,,,,,,,,,,5e94c36719906c0b953bea4c,2021-09-08_21h05.23.061,forced_choiceRT,2021.1.2,Win32,59.85156811,,,,,,,,,,,,,,,,,,5,0,5,0,1
,0.73,,,,,,,,,h.PNG,h,5e94c36719906c0b953bea4c,2021-09-08_21h05.23.061,forced_choiceRT,2021.1.2,Win32,59.85156811,,,,,,,,7,Fast,h,1,1.4287,0,0,0,2,1,,,,,
,0.14,,,,,,,,,h.PNG,h,5e94c36719906c0b953bea4c,2021-09-08_21h05.23.061,forced_choiceRT,2021.1.2,Win32,59.85156811,,,,,,,,7,Ontime,h,1,2.015,0,1,1,2,1,,,,,
,0.69,,,,,,,,,h.PNG,h,5e94c36719906c0b953bea4c,2021-09-08_21h05.23.061,forced_choiceRT,2021.1.2,Win32,59.85156811,,,,,,,,7,Ontime,h,1,1.9292,0,2,2,2,1,,,,,
,1.85,,,,,,,,,j.PNG,j,5e94c36719906c0b953bea4c,2021-09-08_21h05.23.061,forced_choiceRT,2021.1.2,Win32,59.85156811,,,,,,,,7,Slow,h,0,2.1476,0,3,3,3,1,,,,,
,0.28,,,,,,,,,f.PNG,f,5e94c36719906c0b953bea4c,2021-09-08_21h05.23.061,forced_choiceRT,2021.1.2,Win32,59.85156811,,,,,,,,7,Ontime,f,1,1.9666,1,0,4,0,1,,,,,
,1.49,,,,,,,,,g.PNG,g,5e94c36719906c0b953bea4c,2021-09-08_21h05.23.061,forced_choiceRT,2021.1.2,Win32,59.85156811,,,,,,,,7,Slow,h,0,2.2221,1,1,5,1,1,,,,,
,0.13,,,,,,,,,j.PNG,j,5e94c36719906c0b953bea4c,2021-09-08_21h05.23.061,forced_choiceRT,2021.1.2,Win32,59.85156811,,,,,,,,7,Ontime,j,1,1.9501,1,2,6,3,1,,,,,
,0.44,,,,,,,,,g.PNG,g,5e94c36719906c0b953bea4c,2021-09-08_21h05.23.061,forced_choiceRT,2021.1.2,Win32,59.85156811,,,,,,,,7,Ontime,h,0,1.9322,1,3,7,1,1,,,,,
,1.83,,,,,,,,,g.PNG,g,5e94c36719906c0b953bea4c,2021-09-08_21h05.23.061,forced_choiceRT,2021.1.2,Win32,59.85156811,,,,,,,,7,Slow,h,0,2.4457,2,0,8,1,1,,,,,
,1.56,,,,,,,,,h.PNG,h,5e94c36719906c0b953bea4c,2021-09-08_21h05.23.061,forced_choiceRT,2021.1.2,Win32,59.85156811,,,,,,,,7,Ontime,h,1,2.0362,2,1,9,2,1,,,,,
,1.83,,,,,,,,,f.PNG,f,5e94c36719906c0b953bea4c,2021-09-08_21h05.23.061,forced_choiceRT,2021.1.2,Win32,59.85156811,,,,,,,,7,Slow,h,0,2.1127,2,2,10,0,1,,,,,
,0.5,,,,,,,,,f.PNG,f,5e94c36719906c0b953bea4c,2021-09-08_21h05.23.061,forced_choiceRT,2021.1.2,Win32,59.85156811,,,,,,,,7,Ontime,f,1,1.9689,2,3,11,0,1,,,,,
,0.88,,,,,,,,,f.PNG,f,5e94c36719906c0b953bea4c,2021-09-08_21h05.23.061,forced_choiceRT,2021.1.2,Win32,59.85156811,,,,,,,,7,Ontime,f,1,1.977,3,0,12,0,1,,,,,
,1.42,,,,,,,,,g.PNG,g,5e94c36719906c0b953bea4c,2021-09-08_21h05.23.061,forced_choiceRT,2021.1.2,Win32,59.85156811,,,,,,,,7,Ontime,g,1,2.0749,3,1,13,1,1,,,,,
,1.22,,,,,,,,,f.PNG,f,5e94c36719906c0b953bea4c,2021-09-08_21h05.23.061,forced_choiceRT,2021.1.2,Win32,59.85156811,,,,,,,,7,Fast,f,1,1.8335,3,2,14,0,1,,,,,
,1.08,,,,,,,,,g.PNG,g,5e94c36719906c0b953bea4c,2021-09-08_21h05.23.061,forced_choiceRT,2021.1.2,Win32,59.85156811,,,,,,,,7,Ontime,h,0,1.9551,3,3,15,1,1,,,,,
,0.06,,,,,,,,,j.PNG,j,5e94c36719906c0b953bea4c,2021-09-08_21h05.23.061,forced_choiceRT,2021.1.2,Win32,59.85156811,,,,,,,,7,Ontime,j,1,1.9972,4,0,16,3,1,,,,,
,0.19,,,,,,,,,j.PNG,j,5e94c36719906c0b953bea4c,2021-09-08_21h05.23.061,forced_choiceRT,2021.1.2,Win32,59.85156811,,,,,,,,7,Ontime,j,1,1.9729,4,1,17,3,1,,,,,
,1.02,,,,,,,,,h.PNG,h,5e94c36719906c0b953bea4c,2021-09-08_21h05.23.061,forced_choiceRT,2021.1.2,Win32,59.85156811,,,,,,,,7,Ontime,h,1,1.9611,4,2,18,2,1,,,,,
,0.61,,,,,,,,,j.PNG,j,5e94c36719906c0b953bea4c,2021-09-08_21h05.23.061,forced_choiceRT,2021.1.2,Win32,59.85156811,,,,,,,,7,Ontime,j,1,2.0615,4,3,19,3,1,,,,,
,0.32,,,,,,,,,j.PNG,j,5e94c36719906c0b953bea4c,2021-09-08_21h05.23.061,forced_choiceRT,2021.1.2,Win32,59.85156811,,,,,,,,7,Ontime,j,1,2.0595,5,0,20,3,1,,,,,
,1.84,,,,,,,,,j.PNG,j,5e94c36719906c0b953bea4c,2021-09-08_21h05.23.061,forced_choiceRT,2021.1.2,Win32,59.85156811,,,,,,,,7,Slow,j,1,2.1224,5,1,21,3,1,,,,,
,1.31,,,,,,,,,h.PNG,h,5e94c36719906c0b953bea4c,2021-09-08_21h05.23.061,forced_choiceRT,2021.1.2,Win32,59.85156811,,,,,,,,7,Ontime,h,1,2.0127,5,2,22,2,1,,,,,
,1.1,,,,,,,,,g.PNG,g,5e94c36719906c0b953bea4c,2021-09-08_21h05.23.061,forced_choiceRT,2021.1.2,Win32,59.85156811,,,,,,,,7,Ontime,h,0,1.9987,5,3,23,1,1,,,,,
,0.34,,,,,,,,,f.PNG,f,5e94c36719906c0b953bea4c,2021-09-08_21h05.23.061,forced_choiceRT,2021.1.2,Win32,59.85156811,,,,,,,,7,Ontime,f,1,2.0501,6,0,24,0,1,,,,,
,0.38,,,,,,,,,j.PNG,j,5e94c36719906c0b953bea4c,2021-09-08_21h05.23.061,forced_choiceRT,2021.1.2,Win32,59.85156811,,,,,,,,7,Ontime,j,1,1.991,6,1,25,3,1,,,,,
,0.13,,,,,,,,,h.PNG,h,5e94c36719906c0b953bea4c,2021-09-08_21h05.23.061,forced_choiceRT,2021.1.2,Win32,59.85156811,,,,,,,,7,Ontime,h,1,2.0339,6,2,26,2,1,,,,,
,1.71,,,,,,,,,f.PNG,f,5e94c36719906c0b953bea4c,2021-09-08_21h05.23.061,forced_choiceRT,2021.1.2,Win32,59.85156811,,,,,,,,7,Ontime,h,0,2.089,6,3,27,0,1,,,,,
,0.96,,,,,,,,,h.PNG,h,5e94c36719906c0b953bea4c,2021-09-08_21h05.23.061,forced_choiceRT,2021.1.2,Win32,59.85156811,,,,,,,,7,Ontime,h,1,2.0419,7,0,28,2,1,,,,,
,0.28,,,,,,,,,g.PNG,g,5e94c36719906c0b953bea4c,2021-09-08_21h05.23.061,forced_choiceRT,2021.1.2,Win32,59.85156811,,,,,,,,7,Ontime,h,0,2.0144,7,1,29,1,1,,,,,
,0.53,,,,,,,,,g.PNG,g,5e94c36719906c0b953bea4c,2021-09-08_21h05.23.061,forced_choiceRT,2021.1.2,Win32,59.85156811,,,,,,,,7,Ontime,h,0,2.0212,7,2,30,1,1,,,,,
,1.54,,,,,,,,,j.PNG,j,5e94c36719906c0b953bea4c,2021-09-08_21h05.23.061,forced_choiceRT,2021.1.2,Win32,59.85156811,,,,,,,,7,Slow,j,1,2.244,7,3,31,3,1,,,,,
,0.76,,,,,,,,,h.PNG,h,5e94c36719906c0b953bea4c,2021-09-08_21h05.23.061,forced_choiceRT,2021.1.2,Win32,59.85156811,,,,,,,,7,Fast,h,1,1.8267,8,0,32,2,1,,,,,
,0.92,,,,,,,,,f.PNG,f,5e94c36719906c0b953bea4c,2021-09-08_21h05.23.061,forced_choiceRT,2021.1.2,Win32,59.85156811,,,,,,,,7,Ontime,f,1,1.966,8,1,33,0,1,,,,,
,1.65,,,,,,,,,f.PNG,f,5e94c36719906c0b953bea4c,2021-09-08_21h05.23.061,forced_choiceRT,2021.1.2,Win32,59.85156811,,,,,,,,7,Ontime,h,0,2.0069,8,2,34,0,1,,,,,
,0.46,,,,,,,,,h.PNG,h,5e94c36719906c0b953bea4c,2021-09-08_21h05.23.061,forced_choiceRT,2021.1.2,Win32,59.85156811,,,,,,,,7,Ontime,h,1,2.0518,8,3,35,2,1,,,,,
,0.48,,,,,,,,,f.PNG,f,5e94c36719906c0b953bea4c,2021-09-08_21h05.23.061,forced_choiceRT,2021.1.2,Win32,59.85156811,,,,,,,,7,Fast,f,1,1.8804,9,0,36,0,1,,,,,
,0.31,,,,,,,,,j.PNG,j,5e94c36719906c0b953bea4c,2021-09-08_21h05.23.061,forced_choiceRT,2021.1.2,Win32,59.85156811,,,,,,,,7,Slow,j,1,2.1402,9,1,37,3,1,,,,,
,0.99,,,,,,,,,g.PNG,g,5e94c36719906c0b953bea4c,2021-09-08_21h05.23.061,forced_choiceRT,2021.1.2,Win32,59.85156811,,,,,,,,7,Ontime,h,0,2.0072,9,2,38,1,1,,,,,
,1.48,,,,,,,,,g.PNG,g,5e94c36719906c0b953bea4c,2021-09-08_21h05.23.061,forced_choiceRT,2021.1.2,Win32,59.85156811,,,,,,,,7,Ontime,g,1,2.0826,9,3,39,1,1,,,,,
,,,,,,,,,,,,5e94c36719906c0b953bea4c,2021-09-08_21h05.23.061,forced_choiceRT,2021.1.2,Win32,59.85156811,,,,,,,,,,,,,,,,,,6,0,6,0,1
,0.46,,,,,,,,,j.PNG,j,5e94c36719906c0b953bea4c,2021-09-08_21h05.23.061,forced_choiceRT,2021.1.2,Win32,59.85156811,,,,,,,,8,Fast,j,1,1.828,0,0,0,3,1,,,,,
,1.85,,,,,,,,,h.PNG,h,5e94c36719906c0b953bea4c,2021-09-08_21h05.23.061,forced_choiceRT,2021.1.2,Win32,59.85156811,,,,,,,,8,Slow,j,0,2.1504,0,1,1,2,1,,,,,
,0.97,,,,,,,,,g.PNG,g,5e94c36719906c0b953bea4c,2021-09-08_21h05.23.061,forced_choiceRT,2021.1.2,Win32,59.85156811,,,,,,,,8,Ontime,g,1,1.9063,0,2,2,1,1,,,,,
,1.25,,,,,,,,,h.PNG,h,5e94c36719906c0b953bea4c,2021-09-08_21h05.23.061,forced_choiceRT,2021.1.2,Win32,59.85156811,,,,,,,,8,Ontime,h,1,2.0152,0,3,3,2,1,,,,,
,0.57,,,,,,,,,f.PNG,f,5e94c36719906c0b953bea4c,2021-09-08_21h05.23.061,forced_choiceRT,2021.1.2,Win32,59.85156811,,,,,,,,8,Ontime,f,1,1.9272,1,0,4,0,1,,,,,
,0.65,,,,,,,,,f.PNG,f,5e94c36719906c0b953bea4c,2021-09-08_21h05.23.061,forced_choiceRT,2021.1.2,Win32,59.85156811,,,,,,,,8,Ontime,f,1,1.9569,1,1,5,0,1,,,,,
,0.39,,,,,,,,,g.PNG,g,5e94c36719906c0b953bea4c,2021-09-08_21h05.23.061,forced_choiceRT,2021.1.2,Win32,59.85156811,,,,,,,,8,Slow,h,0,2.1094,1,2,6,1,1,,,,,
,0.4,,,,,,,,,j.PNG,j,5e94c36719906c0b953bea4c,2021-09-08_21h05.23.061,forced_choiceRT,2021.1.2,Win32,59.85156811,,,,,,,,8,Ontime,j,1,1.9577,1,3,7,3,1,,,,,
,1.34,,,,,,,,,h.PNG,h,5e94c36719906c0b953bea4c,2021-09-08_21h05.23.061,forced_choiceRT,2021.1.2,Win32,59.85156811,,,,,,,,8,Ontime,h,1,1.9971,2,0,8,2,1,,,,,
,1.64,,,,,,,,,j.PNG,j,5e94c36719906c0b953bea4c,2021-09-08_21h05.23.061,forced_choiceRT,2021.1.2,Win32,59.85156811,,,,,,,,8,Slow,j,1,2.335,2,1,9,3,1,,,,,
,1.8,,,,,,,,,f.PNG,f,5e94c36719906c0b953bea4c,2021-09-08_21h05.23.061,forced_choiceRT,2021.1.2,Win32,59.85156811,,,,,,,,8,Ontime,h,0,2.0591,2,2,10,0,1,,,,,
,1.66,,,,,,,,,g.PNG,g,5e94c36719906c0b953bea4c,2021-09-08_21h05.23.061,forced_choiceRT,2021.1.2,Win32,59.85156811,,,,,,,,8,Slow,h,0,2.2136,2,3,11,1,1,,,,,
,1.34,,,,,,,,,j.PNG,j,5e94c36719906c0b953bea4c,2021-09-08_21h05.23.061,forced_choiceRT,2021.1.2,Win32,59.85156811,,,,,,,,8,Ontime,h,0,1.9084,3,0,12,3,1,,,,,
,1.22,,,,,,,,,g.PNG,g,5e94c36719906c0b953bea4c,2021-09-08_21h05.23.061,forced_choiceRT,2021.1.2,Win32,59.85156811,,,,,,,,8,Ontime,j,0,2.0474,3,1,13,1,1,,,,,
,0.53,,,,,,,,,g.PNG,g,5e94c36719906c0b953bea4c,2021-09-08_21h05.23.061,forced_choiceRT,2021.1.2,Win32,59.85156811,,,,,,,,8,Slow,j,0,3.1579,3,2,14,1,1,,,,,
,1.41,,,,,,,,,f.PNG,f,5e94c36719906c0b953bea4c,2021-09-08_21h05.23.061,forced_choiceRT,2021.1.2,Win32,59.85156811,,,,,,,,8,Ontime,f,1,2.0903,3,3,15,0,1,,,,,
,1.08,,,,,,,,,f.PNG,f,5e94c36719906c0b953bea4c,2021-09-08_21h05.23.061,forced_choiceRT,2021.1.2,Win32,59.85156811,,,,,,,,8,Fast,f,1,1.7789,4,0,16,0,1,,,,,
,1.44,,,,,,,,,g.PNG,g,5e94c36719906c0b953bea4c,2021-09-08_21h05.23.061,forced_choiceRT,2021.1.2,Win32,59.85156811,,,,,,,,8,Slow,g,1,2.1384,4,1,17,1,1,,,,,
,0.22,,,,,,,,,j.PNG,j,5e94c36719906c0b953bea4c,2021-09-08_21h05.23.061,forced_choiceRT,2021.1.2,Win32,59.85156811,,,,,,,,8,Ontime,j,1,2.0954,4,2,18,3,1,,,,,
,0.45,,,,,,,,,h.PNG,h,5e94c36719906c0b953bea4c,2021-09-08_21h05.23.061,forced_choiceRT,2021.1.2,Win32,59.85156811,,,,,,,,8,Ontime,h,1,1.9643,4,3,19,2,1,,,,,
,1.13,,,,,,,,,j.PNG,j,5e94c36719906c0b953bea4c,2021-09-08_21h05.23.061,forced_choiceRT,2021.1.2,Win32,59.85156811,,,,,,,,8,Ontime,j,1,1.9263,5,0,20,3,1,,,,,
,1.69,,,,,,,,,g.PNG,g,5e94c36719906c0b953bea4c,2021-09-08_21h05.23.061,forced_choiceRT,2021.1.2,Win32,59.85156811,,,,,,,,8,Slow,j,0,2.2853,5,1,21,1,1,,,,,
,1.4,,,,,,,,,j.PNG,j,5e94c36719906c0b953bea4c,2021-09-08_21h05.23.061,forced_choiceRT,2021.1.2,Win32,59.85156811,,,,,,,,8,Slow,j,1,2.2549,5,2,22,3,1,,,,,
,0.03,,,,,,,,,h.PNG,h,5e94c36719906c0b953bea4c,2021-09-08_21h05.23.061,forced_choiceRT,2021.1.2,Win32,59.85156811,,,,,,,,8,Ontime,h,1,2.0053,5,3,23,2,1,,,,,
,0.6,,,,,,,,,f.PNG,f,5e94c36719906c0b953bea4c,2021-09-08_21h05.23.061,forced_choiceRT,2021.1.2,Win32,59.85156811,,,,,,,,8,Ontime,f,1,2.0464,6,0,24,0,1,,,,,
,1.33,,,,,,,,,h.PNG,h,5e94c36719906c0b953bea4c,2021-09-08_21h05.23.061,forced_choiceRT,2021.1.2,Win32,59.85156811,,,,,,,,8,Slow,j,0,2.2155,6,1,25,2,1,,,,,
,1.67,,,,,,,,,f.PNG,f,5e94c36719906c0b953bea4c,2021-09-08_21h05.23.061,forced_choiceRT,2021.1.2,Win32,59.85156811,,,,,,,,8,Slow,h,0,2.1254,6,2,26,0,1,,,,,
,1.28,,,,,,,,,h.PNG,h,5e94c36719906c0b953bea4c,2021-09-08_21h05.23.061,forced_choiceRT,2021.1.2,Win32,59.85156811,,,,,,,,8,Fast,j,0,1.8218,6,3,27,2,1,,,,,
,0.7,,,,,,,,,g.PNG,g,5e94c36719906c0b953bea4c,2021-09-08_21h05.23.061,forced_choiceRT,2021.1.2,Win32,59.85156811,,,,,,,,8,Fast,h,0,1.8259,7,0,28,1,1,,,,,
,0,,,,,,,,,h.PNG,h,5e94c36719906c0b953bea4c,2021-09-08_21h05.23.061,forced_choiceRT,2021.1.2,Win32,59.85156811,,,,,,,,8,Ontime,h,1,2.0908,7,1,29,2,1,,,,,
,1.61,,,,,,,,,h.PNG,h,5e94c36719906c0b953bea4c,2021-09-08_21h05.23.061,forced_choiceRT,2021.1.2,Win32,59.85156811,,,,,,,,8,Slow,h,1,2.2467,7,2,30,2,1,,,,,
,0.71,,,,,,,,,f.PNG,f,5e94c36719906c0b953bea4c,2021-09-08_21h05.23.061,forced_choiceRT,2021.1.2,Win32,59.85156811,,,,,,,,8,Ontime,f,1,1.9287,7,3,31,0,1,,,,,
,1.49,,,,,,,,,h.PNG,h,5e94c36719906c0b953bea4c,2021-09-08_21h05.23.061,forced_choiceRT,2021.1.2,Win32,59.85156811,,,,,,,,8,Ontime,h,1,2.0517,8,0,32,2,1,,,,,
,0.25,,,,,,,,,j.PNG,j,5e94c36719906c0b953bea4c,2021-09-08_21h05.23.061,forced_choiceRT,2021.1.2,Win32,59.85156811,,,,,,,,8,Ontime,j,1,2.0631,8,1,33,3,1,,,,,
,1.82,,,,,,,,,f.PNG,f,5e94c36719906c0b953bea4c,2021-09-08_21h05.23.061,forced_choiceRT,2021.1.2,Win32,59.85156811,,,,,,,,8,Slow,j,0,2.1238,8,2,34,0,1,,,,,
,0.17,,,,,,,,,j.PNG,j,5e94c36719906c0b953bea4c,2021-09-08_21h05.23.061,forced_choiceRT,2021.1.2,Win32,59.85156811,,,,,,,,8,Ontime,j,1,1.9007,8,3,35,3,1,,,,,
,0.52,,,,,,,,,j.PNG,j,5e94c36719906c0b953bea4c,2021-09-08_21h05.23.061,forced_choiceRT,2021.1.2,Win32,59.85156811,,,,,,,,8,Ontime,j,1,1.9901,9,0,36,3,1,,,,,
,1.15,,,,,,,,,f.PNG,f,5e94c36719906c0b953bea4c,2021-09-08_21h05.23.061,forced_choiceRT,2021.1.2,Win32,59.85156811,,,,,,,,8,Ontime,f,1,2.0323,9,1,37,0,1,,,,,
,0.67,,,,,,,,,g.PNG,g,5e94c36719906c0b953bea4c,2021-09-08_21h05.23.061,forced_choiceRT,2021.1.2,Win32,59.85156811,,,,,,,,8,Slow,h,0,2.1445,9,2,38,1,1,,,,,
,0.82,,,,,,,,,g.PNG,g,5e94c36719906c0b953bea4c,2021-09-08_21h05.23.061,forced_choiceRT,2021.1.2,Win32,59.85156811,,,,,,,,8,Ontime,h,0,2.04,9,3,39,1,1,,,,,
,,,,,,,,,,,,5e94c36719906c0b953bea4c,2021-09-08_21h05.23.061,forced_choiceRT,2021.1.2,Win32,59.85156811,,,,,,,,,,,,,,,,,,7,0,7,0,1
,0.01,,,,,,,,,j.PNG,j,5e94c36719906c0b953bea4c,2021-09-08_21h05.23.061,forced_choiceRT,2021.1.2,Win32,59.85156811,,,,,,,,9,Fast,j,1,1.0207,0,0,0,3,1,,,,,
,1.43,,,,,,,,,j.PNG,j,5e94c36719906c0b953bea4c,2021-09-08_21h05.23.061,forced_choiceRT,2021.1.2,Win32,59.85156811,,,,,,,,9,Slow,j,1,2.2034,0,1,1,3,1,,,,,
,0.54,,,,,,,,,j.PNG,j,5e94c36719906c0b953bea4c,2021-09-08_21h05.23.061,forced_choiceRT,2021.1.2,Win32,59.85156811,,,,,,,,9,Ontime,j,1,2.0734,0,2,2,3,1,,,,,
,0.65,,,,,,,,,g.PNG,g,5e94c36719906c0b953bea4c,2021-09-08_21h05.23.061,forced_choiceRT,2021.1.2,Win32,59.85156811,,,,,,,,9,Ontime,h,0,1.9701,0,3,3,1,1,,,,,
,0.79,,,,,,,,,h.PNG,h,5e94c36719906c0b953bea4c,2021-09-08_21h05.23.061,forced_choiceRT,2021.1.2,Win32,59.85156811,,,,,,,,9,Fast,h,1,1.8398,1,0,4,2,1,,,,,
,1,,,,,,,,,j.PNG,j,5e94c36719906c0b953bea4c,2021-09-08_21h05.23.061,forced_choiceRT,2021.1.2,Win32,59.85156811,,,,,,,,9,Ontime,j,1,1.9567,1,1,5,3,1,,,,,
,0.19,,,,,,,,,f.PNG,f,5e94c36719906c0b953bea4c,2021-09-08_21h05.23.061,forced_choiceRT,2021.1.2,Win32,59.85156811,,,,,,,,9,Ontime,f,1,2.0574,1,2,6,0,1,,,,,
,0.84,,,,,,,,,g.PNG,g,5e94c36719906c0b953bea4c,2021-09-08_21h05.23.061,forced_choiceRT,2021.1.2,Win32,59.85156811,,,,,,,,9,Fast,h,0,1.8231,1,3,7,1,1,,,,,
,1.99,,,,,,,,,g.PNG,g,5e94c36719906c0b953bea4c,2021-09-08_21h05.23.061,forced_choiceRT,2021.1.2,Win32,59.85156811,,,,,,,,9,Slow,h,0,2.404,2,0,8,1,1,,,,,
,1.75,,,,,,,,,j.PNG,j,5e94c36719906c0b953bea4c,2021-09-08_21h05.23.061,forced_choiceRT,2021.1.2,Win32,59.85156811,,,,,,,,9,Slow,h,0,2.2256,2,1,9,3,1,,,,,
,1.62,,,,,,,,,g.PNG,g,5e94c36719906c0b953bea4c,2021-09-08_21h05.23.061,forced_choiceRT,2021.1.2,Win32,59.85156811,,,,,,,,9,Fast,j,0,1.8893,2,2,10,1,1,,,,,
,1.82,,,,,,,,,g.PNG,g,5e94c36719906c0b953bea4c,2021-09-08_21h05.23.061,forced_choiceRT,2021.1.2,Win32,59.85156811,,,,,,,,9,Slow,h,0,2.3012,2,3,11,1,1,,,,,
,1.51,,,,,,,,,g.PNG,g,5e94c36719906c0b953bea4c,2021-09-08_21h05.23.061,forced_choiceRT,2021.1.2,Win32,59.85156811,,,,,,,,9,Fast,h,0,1.8567,3,0,12,1,1,,,,,
,0.88,,,,,,,,,j.PNG,j,5e94c36719906c0b953bea4c,2021-09-08_21h05.23.061,forced_choiceRT,2021.1.2,Win32,59.85156811,,,,,,,,9,Fast,j,1,1.5592,3,1,13,3,1,,,,,
,0.83,,,,,,,,,f.PNG,f,5e94c36719906c0b953bea4c,2021-09-08_21h05.23.061,forced_choiceRT,2021.1.2,Win32,59.85156811,,,,,,,,9,Fast,f,1,1.8062,3,2,14,0,1,,,,,
,0.29,,,,,,,,,j.PNG,j,5e94c36719906c0b953bea4c,2021-09-08_21h05.23.061,forced_choiceRT,2021.1.2,Win32,59.85156811,,,,,,,,9,Slow,j,1,2.1372,3,3,15,3,1,,,,,
,1.32,,,,,,,,,j.PNG,j,5e94c36719906c0b953bea4c,2021-09-08_21h05.23.061,forced_choiceRT,2021.1.2,Win32,59.85156811,,,,,,,,9,Fast,j,1,1.8064,4,0,16,3,1,,,,,
,1.57,,,,,,,,,h.PNG,h,5e94c36719906c0b953bea4c,2021-09-08_21h05.23.061,forced_choiceRT,2021.1.2,Win32,59.85156811,,,,,,,,9,Slow,h,1,2.3112,4,1,17,2,1,,,,,
,0.75,,,,,,,,,h.PNG,h,5e94c36719906c0b953bea4c,2021-09-08_21h05.23.061,forced_choiceRT,2021.1.2,Win32,59.85156811,,,,,,,,9,Fast,h,1,1.6159,4,2,18,2,1,,,,,
,1.18,,,,,,,,,h.PNG,h,5e94c36719906c0b953bea4c,2021-09-08_21h05.23.061,forced_choiceRT,2021.1.2,Win32,59.85156811,,,,,,,,9,Slow,h,1,2.1814,4,3,19,2,1,,,,,
,0.63,,,,,,,,,h.PNG,h,5e94c36719906c0b953bea4c,2021-09-08_21h05.23.061,forced_choiceRT,2021.1.2,Win32,59.85156811,,,,,,,,9,Ontime,h,1,1.9573,5,0,20,2,1,,,,,
,1.93,,,,,,,,,h.PNG,h,5e94c36719906c0b953bea4c,2021-09-08_21h05.23.061,forced_choiceRT,2021.1.2,Win32,59.85156811,,,,,,,,9,Slow,h,1,2.2273,5,1,21,2,1,,,,,
,0.66,,,,,,,,,h.PNG,h,5e94c36719906c0b953bea4c,2021-09-08_21h05.23.061,forced_choiceRT,2021.1.2,Win32,59.85156811,,,,,,,,9,Fast,h,1,1.7878,5,2,22,2,1,,,,,
,0.92,,,,,,,,,h.PNG,h,5e94c36719906c0b953bea4c,2021-09-08_21h05.23.061,forced_choiceRT,2021.1.2,Win32,59.85156811,,,,,,,,9,Ontime,h,1,2.0885,5,3,23,2,1,,,,,
,0.1,,,,,,,,,f.PNG,f,5e94c36719906c0b953bea4c,2021-09-08_21h05.23.061,forced_choiceRT,2021.1.2,Win32,59.85156811,,,,,,,,9,Ontime,f,1,2.0252,6,0,24,0,1,,,,,
,1.76,,,,,,,,,g.PNG,g,5e94c36719906c0b953bea4c,2021-09-08_21h05.23.061,forced_choiceRT,2021.1.2,Win32,59.85156811,,,,,,,,9,Slow,j,0,2.1677,6,1,25,1,1,,,,,
,0.21,,,,,,,,,g.PNG,g,5e94c36719906c0b953bea4c,2021-09-08_21h05.23.061,forced_choiceRT,2021.1.2,Win32,59.85156811,,,,,,,,9,Ontime,g,1,2.0083,6,2,26,1,1,,,,,
,0.6,,,,,,,,,f.PNG,f,5e94c36719906c0b953bea4c,2021-09-08_21h05.23.061,forced_choiceRT,2021.1.2,Win32,59.85156811,,,,,,,,9,Fast,f,1,1.8778,6,3,27,0,1,,,,,
,0.12,,,,,,,,,j.PNG,j,5e94c36719906c0b953bea4c,2021-09-08_21h05.23.061,forced_choiceRT,2021.1.2,Win32,59.85156811,,,,,,,,9,Ontime,j,1,2.0452,7,0,28,3,1,,,,,
,1.94,,,,,,,,,f.PNG,f,5e94c36719906c0b953bea4c,2021-09-08_21h05.23.061,forced_choiceRT,2021.1.2,Win32,59.85156811,,,,,,,,9,Slow,j,0,2.3289,7,1,29,0,1,,,,,
,0.13,,,,,,,,,h.PNG,h,5e94c36719906c0b953bea4c,2021-09-08_21h05.23.061,forced_choiceRT,2021.1.2,Win32,59.85156811,,,,,,,,9,Ontime,h,1,1.9888,7,2,30,2,1,,,,,
,1.47,,,,,,,,,h.PNG,h,5e94c36719906c0b953bea4c,2021-09-08_21h05.23.061,forced_choiceRT,2021.1.2,Win32,59.85156811,,,,,,,,9,Slow,h,1,2.2786,7,3,31,2,1,,,,,
,0.76,,,,,,,,,f.PNG,f,5e94c36719906c0b953bea4c,2021-09-08_21h05.23.061,forced_choiceRT,2021.1.2,Win32,59.85156811,,,,,,,,9,Ontime,f,1,1.9378,8,0,32,0,1,,,,,
,1.05,,,,,,,,,f.PNG,f,5e94c36719906c0b953bea4c,2021-09-08_21h05.23.061,forced_choiceRT,2021.1.2,Win32,59.85156811,,,,,,,,9,Ontime,f,1,1.9833,8,1,33,0,1,,,,,
,1.16,,,,,,,,,f.PNG,f,5e94c36719906c0b953bea4c,2021-09-08_21h05.23.061,forced_choiceRT,2021.1.2,Win32,59.85156811,,,,,,,,9,Fast,f,1,1.7082,8,2,34,0,1,,,,,
,1.36,,,,,,,,,j.PNG,j,5e94c36719906c0b953bea4c,2021-09-08_21h05.23.061,forced_choiceRT,2021.1.2,Win32,59.85156811,,,,,,,,9,Slow,j,1,2.1371,8,3,35,3,1,,,,,
,1.82,,,,,,,,,f.PNG,f,5e94c36719906c0b953bea4c,2021-09-08_21h05.23.061,forced_choiceRT,2021.1.2,Win32,59.85156811,,,,,,,,9,Slow,j,0,2.1719,9,0,36,0,1,,,,,
,0.43,,,,,,,,,g.PNG,g,5e94c36719906c0b953bea4c,2021-09-08_21h05.23.061,forced_choiceRT,2021.1.2,Win32,59.85156811,,,,,,,,9,Ontime,h,0,1.9408,9,1,37,1,1,,,,,
,0.11,,,,,,,,,g.PNG,g,5e94c36719906c0b953bea4c,2021-09-08_21h05.23.061,forced_choiceRT,2021.1.2,Win32,59.85156811,,,,,,,,9,Ontime,g,1,2.0357,9,2,38,1,1,,,,,
,1.34,,,,,,,,,f.PNG,f,5e94c36719906c0b953bea4c,2021-09-08_21h05.23.061,forced_choiceRT,2021.1.2,Win32,59.85156811,,,,,,,,9,Slow,f,1,2.1235,9,3,39,0,1,,,,,
,,,,,,,,,,,,5e94c36719906c0b953bea4c,2021-09-08_21h05.23.061,forced_choiceRT,2021.1.2,Win32,59.85156811,,,,,,,,,,,,,,,,,,8,0,8,0,1
,0.94,,,,,,,,,g.PNG,g,5e94c36719906c0b953bea4c,2021-09-08_21h05.23.061,forced_choiceRT,2021.1.2,Win32,59.85156811,,,,,,,,10,Fast,j,0,1.8082,0,0,0,1,1,,,,,
,1.26,,,,,,,,,h.PNG,h,5e94c36719906c0b953bea4c,2021-09-08_21h05.23.061,forced_choiceRT,2021.1.2,Win32,59.85156811,,,,,,,,10,Fast,h,1,1.8547,0,1,1,2,1,,,,,
,0.56,,,,,,,,,h.PNG,h,5e94c36719906c0b953bea4c,2021-09-08_21h05.23.061,forced_choiceRT,2021.1.2,Win32,59.85156811,,,,,,,,10,Fast,h,1,1.723,0,2,2,2,1,,,,,
,1.63,,,,,,,,,j.PNG,j,5e94c36719906c0b953bea4c,2021-09-08_21h05.23.061,forced_choiceRT,2021.1.2,Win32,59.85156811,,,,,,,,10,Ontime,h,0,2.0409,0,3,3,3,1,,,,,
,0.37,,,,,,,,,g.PNG,g,5e94c36719906c0b953bea4c,2021-09-08_21h05.23.061,forced_choiceRT,2021.1.2,Win32,59.85156811,,,,,,,,10,Fast,h,0,1.8575,1,0,4,1,1,,,,,
,0.47,,,,,,,,,f.PNG,f,5e94c36719906c0b953bea4c,2021-09-08_21h05.23.061,forced_choiceRT,2021.1.2,Win32,59.85156811,,,,,,,,10,Slow,f,1,2.1898,1,1,5,0,1,,,,,
,0.67,,,,,,,,,j.PNG,j,5e94c36719906c0b953bea4c,2021-09-08_21h05.23.061,forced_choiceRT,2021.1.2,Win32,59.85156811,,,,,,,,10,Ontime,j,1,2.039,1,2,6,3,1,,,,,
,1.85,,,,,,,,,g.PNG,g,5e94c36719906c0b953bea4c,2021-09-08_21h05.23.061,forced_choiceRT,2021.1.2,Win32,59.85156811,,,,,,,,10,Slow,j,0,2.3293,1,3,7,1,1,,,,,
,0.13,,,,,,,,,j.PNG,j,5e94c36719906c0b953bea4c,2021-09-08_21h05.23.061,forced_choiceRT,2021.1.2,Win32,59.85156811,,,,,,,,10,Ontime,j,1,2.0712,2,0,8,3,1,,,,,
,0.91,,,,,,,,,j.PNG,j,5e94c36719906c0b953bea4c,2021-09-08_21h05.23.061,forced_choiceRT,2021.1.2,Win32,59.85156811,,,,,,,,10,Fast,j,1,1.8585,2,1,9,3,1,,,,,
,1.16,,,,,,,,,g.PNG,g,5e94c36719906c0b953bea4c,2021-09-08_21h05.23.061,forced_choiceRT,2021.1.2,Win32,59.85156811,,,,,,,,10,Ontime,h,0,1.9581,2,2,10,1,1,,,,,
,0.83,,,,,,,,,j.PNG,j,5e94c36719906c0b953bea4c,2021-09-08_21h05.23.061,forced_choiceRT,2021.1.2,Win32,59.85156811,,,,,,,,10,Fast,j,1,1.8972,2,3,11,3,1,,,,,
,1.38,,,,,,,,,f.PNG,f,5e94c36719906c0b953bea4c,2021-09-08_21h05.23.061,forced_choiceRT,2021.1.2,Win32,59.85156811,,,,,,,,10,Ontime,f,1,2.068,3,0,12,0,1,,,,,
,1.84,,,,,,,,,h.PNG,h,5e94c36719906c0b953bea4c,2021-09-08_21h05.23.061,forced_choiceRT,2021.1.2,Win32,59.85156811,,,,,,,,10,Slow,j,0,2.1586,3,1,13,2,1,,,,,
,0.81,,,,,,,,,h.PNG,h,5e94c36719906c0b953bea4c,2021-09-08_21h05.23.061,forced_choiceRT,2021.1.2,Win32,59.85156811,,,,,,,,10,Ontime,h,1,1.9074,3,2,14,2,1,,,,,
,1,,,,,,,,,j.PNG,j,5e94c36719906c0b953bea4c,2021-09-08_21h05.23.061,forced_choiceRT,2021.1.2,Win32,59.85156811,,,,,,,,10,Fast,j,1,1.7647,3,3,15,3,1,,,,,
,1,,,,,,,,,g.PNG,g,5e94c36719906c0b953bea4c,2021-09-08_21h05.23.061,forced_choiceRT,2021.1.2,Win32,59.85156811,,,,,,,,10,Fast,h,0,1.7835,4,0,16,1,1,,,,,
,1.83,,,,,,,,,f.PNG,f,5e94c36719906c0b953bea4c,2021-09-08_21h05.23.061,forced_choiceRT,2021.1.2,Win32,59.85156811,,,,,,,,10,Slow,j,0,2.2468,4,1,17,0,1,,,,,
,1.5,,,,,,,,,f.PNG,f,5e94c36719906c0b953bea4c,2021-09-08_21h05.23.061,forced_choiceRT,2021.1.2,Win32,59.85156811,,,,,,,,10,Slow,h,0,2.1237,4,2,18,0,1,,,,,
,1.62,,,,,,,,,h.PNG,h,5e94c36719906c0b953bea4c,2021-09-08_21h05.23.061,forced_choiceRT,2021.1.2,Win32,59.85156811,,,,,,,,10,Slow,h,1,2.3327,4,3,19,2,1,,,,,
,1.36,,,,,,,,,j.PNG,j,5e94c36719906c0b953bea4c,2021-09-08_21h05.23.061,forced_choiceRT,2021.1.2,Win32,59.85156811,,,,,,,,10,Ontime,j,1,2.0067,5,0,20,3,1,,,,,
,1.06,,,,,,,,,g.PNG,g,5e94c36719906c0b953bea4c,2021-09-08_21h05.23.061,forced_choiceRT,2021.1.2,Win32,59.85156811,,,,,,,,10,Ontime,h,0,1.9457,5,1,21,1,1,,,,,
,0.92,,,,,,,,,h.PNG,h,5e94c36719906c0b953bea4c,2021-09-08_21h05.23.061,forced_choiceRT,2021.1.2,Win32,59.85156811,,,,,,,,10,Fast,h,1,1.7878,5,2,22,2,1,,,,,
,0.54,,,,,,,,,g.PNG,g,5e94c36719906c0b953bea4c,2021-09-08_21h05.23.061,forced_choiceRT,2021.1.2,Win32,59.85156811,,,,,,,,10,Fast,g,1,1.5498,5,3,23,1,1,,,,,
,1.7,,,,,,,,,f.PNG,f,5e94c36719906c0b953bea4c,2021-09-08_21h05.23.061,forced_choiceRT,2021.1.2,Win32,59.85156811,,,,,,,,10,Slow,j,0,2.2089,6,0,24,0,1,,,,,
,0.38,,,,,,,,,f.PNG,f,5e94c36719906c0b953bea4c,2021-09-08_21h05.23.061,forced_choiceRT,2021.1.2,Win32,59.85156811,,,,,,,,10,Fast,f,1,1.8766,6,1,25,0,1,,,,,
,1.78,,,,,,,,,g.PNG,g,5e94c36719906c0b953bea4c,2021-09-08_21h05.23.061,forced_choiceRT,2021.1.2,Win32,59.85156811,,,,,,,,10,Slow,f,0,2.1735,6,2,26,1,1,,,,,
,0.54,,,,,,,,,f.PNG,f,5e94c36719906c0b953bea4c,2021-09-08_21h05.23.061,forced_choiceRT,2021.1.2,Win32,59.85156811,,,,,,,,10,Fast,f,1,1.7633,6,3,27,0,1,,,,,
,0.26,,,,,,,,,g.PNG,g,5e94c36719906c0b953bea4c,2021-09-08_21h05.23.061,forced_choiceRT,2021.1.2,Win32,59.85156811,,,,,,,,10,Fast,h,0,1.7382,7,0,28,1,1,,,,,
,0.67,,,,,,,,,f.PNG,f,5e94c36719906c0b953bea4c,2021-09-08_21h05.23.061,forced_choiceRT,2021.1.2,Win32,59.85156811,,,,,,,,10,Fast,f,1,1.825,7,1,29,0,1,,,,,
,0.22,,,,,,,,,f.PNG,f,5e94c36719906c0b953bea4c,2021-09-08_21h05.23.061,forced_choiceRT,2021.1.2,Win32,59.85156811,,,,,,,,10,Fast,f,1,1.7232,7,2,30,0,1,,,,,
,0.82,,,,,,,,,j.PNG,j,5e94c36719906c0b953bea4c,2021-09-08_21h05.23.061,forced_choiceRT,2021.1.2,Win32,59.85156811,,,,,,,,10,Ontime,j,1,2.0756,7,3,31,3,1,,,,,
,1.69,,,,,,,,,j.PNG,j,5e94c36719906c0b953bea4c,2021-09-08_21h05.23.061,forced_choiceRT,2021.1.2,Win32,59.85156811,,,,,,,,10,Slow,j,1,2.4183,8,0,32,3,1,,,,,
,0.14,,,,,,,,,f.PNG,f,5e94c36719906c0b953bea4c,2021-09-08_21h05.23.061,forced_choiceRT,2021.1.2,Win32,59.85156811,,,,,,,,10,Ontime,f,1,2.0308,8,1,33,0,1,,,,,
,1.12,,,,,,,,,h.PNG,h,5e94c36719906c0b953bea4c,2021-09-08_21h05.23.061,forced_choiceRT,2021.1.2,Win32,59.85156811,,,,,,,,10,Ontime,j,0,2.0759,8,2,34,2,1,,,,,
,1.21,,,,,,,,,g.PNG,g,5e94c36719906c0b953bea4c,2021-09-08_21h05.23.061,forced_choiceRT,2021.1.2,Win32,59.85156811,,,,,,,,10,Ontime,g,1,2.0416,8,3,35,1,1,,,,,
,0.32,,,,,,,,,h.PNG,h,5e94c36719906c0b953bea4c,2021-09-08_21h05.23.061,forced_choiceRT,2021.1.2,Win32,59.85156811,,,,,,,,10,Ontime,h,1,1.9653,9,0,36,2,1,,,,,
,0.62,,,,,,,,,h.PNG,h,5e94c36719906c0b953bea4c,2021-09-08_21h05.23.061,forced_choiceRT,2021.1.2,Win32,59.85156811,,,,,,,,10,Fast,h,1,1.7741,9,1,37,2,1,,,,,
,0.75,,,,,,,,,j.PNG,j,5e94c36719906c0b953bea4c,2021-09-08_21h05.23.061,forced_choiceRT,2021.1.2,Win32,59.85156811,,,,,,,,10,Fast,j,1,1.6257,9,2,38,3,1,,,,,
,1.53,,,,,,,,,h.PNG,h,5e94c36719906c0b953bea4c,2021-09-08_21h05.23.061,forced_choiceRT,2021.1.2,Win32,59.85156811,,,,,,,,10,Slow,h,1,2.4068,9,3,39,2,1,,,,,
,,,,,,,,,,,,5e94c36719906c0b953bea4c,2021-09-08_21h05.23.061,forced_choiceRT,2021.1.2,Win32,59.85156811,,,,,,,,,,,,,,,,,,9,0,9,0,1
