IP_Addresss,target_onset,trial_resp_sp.keys,trial_resp_sp.corr,trial_resp_sp.rt,trials_train_loop.thisRepN,trials_train_loop.thisTrialN,trials_train_loop.thisN,trials_train_loop.thisIndex,trials_train_loop.ran,pic,correct_key,participant,date,expName,psychopyVersion,OS,frameRate,trial_resp_timing.keys,trial_resp_timing.rt,trials_train_timing.thisRepN,trials_train_timing.thisTrialN,trials_train_timing.thisN,trials_train_timing.thisIndex,trials_train_timing.ran,block_id,ontime,forcedRT_resp.keys,forcedRT_resp.corr,forcedRT_resp.rt,trials.thisRepN,trials.thisTrialN,trials.thisN,trials.thisIndex,trials.ran,blocks.thisRepN,blocks.thisTrialN,blocks.thisN,blocks.thisIndex,blocks.ran
74.85.117.130,0,g,1,2.0139,0,0,0,1,1,g.PNG,g,5eb89eb4adb9350fb8fc895c,2021-09-08_19h56.20.859,forced_choiceRT,2021.1.2,MacIntel,59.97720866,,,,,,,,,,,,,,,,,,,,,,
,0,h,1,4.464,0,1,1,2,1,h.PNG,h,5eb89eb4adb9350fb8fc895c,2021-09-08_19h56.20.859,forced_choiceRT,2021.1.2,MacIntel,59.97720866,,,,,,,,,,,,,,,,,,,,,,
,0,h,1,2.1525,0,2,2,2,1,h.PNG,h,5eb89eb4adb9350fb8fc895c,2021-09-08_19h56.20.859,forced_choiceRT,2021.1.2,MacIntel,59.97720866,,,,,,,,,,,,,,,,,,,,,,
,0,j,1,2.284,0,3,3,3,1,j.PNG,j,5eb89eb4adb9350fb8fc895c,2021-09-08_19h56.20.859,forced_choiceRT,2021.1.2,MacIntel,59.97720866,,,,,,,,,,,,,,,,,,,,,,
,0,h,0,1.5997,1,0,4,1,1,g.PNG,g,5eb89eb4adb9350fb8fc895c,2021-09-08_19h56.20.859,forced_choiceRT,2021.1.2,MacIntel,59.97720866,,,,,,,,,,,,,,,,,,,,,,
,0,h,1,1.5611,1,1,5,2,1,h.PNG,h,5eb89eb4adb9350fb8fc895c,2021-09-08_19h56.20.859,forced_choiceRT,2021.1.2,MacIntel,59.97720866,,,,,,,,,,,,,,,,,,,,,,
,0,g,1,1.0294,1,2,6,1,1,g.PNG,g,5eb89eb4adb9350fb8fc895c,2021-09-08_19h56.20.859,forced_choiceRT,2021.1.2,MacIntel,59.97720866,,,,,,,,,,,,,,,,,,,,,,
,0,h,1,1.1942,1,3,7,2,1,h.PNG,h,5eb89eb4adb9350fb8fc895c,2021-09-08_19h56.20.859,forced_choiceRT,2021.1.2,MacIntel,59.97720866,,,,,,,,,,,,,,,,,,,,,,
,0,h,1,0.9523,2,0,8,2,1,h.PNG,h,5eb89eb4adb9350fb8fc895c,2021-09-08_19h56.20.859,forced_choiceRT,2021.1.2,MacIntel,59.97720866,,,,,,,,,,,,,,,,,,,,,,
,0,h,1,0.7798,2,1,9,2,1,h.PNG,h,5eb89eb4adb9350fb8fc895c,2021-09-08_19h56.20.859,forced_choiceRT,2021.1.2,MacIntel,59.97720866,,,,,,,,,,,,,,,,,,,,,,
,0,f,1,0.9508,2,2,10,0,1,f.PNG,f,5eb89eb4adb9350fb8fc895c,2021-09-08_19h56.20.859,forced_choiceRT,2021.1.2,MacIntel,59.97720866,,,,,,,,,,,,,,,,,,,,,,
,0,g,1,1.0476,2,3,11,1,1,g.PNG,g,5eb89eb4adb9350fb8fc895c,2021-09-08_19h56.20.859,forced_choiceRT,2021.1.2,MacIntel,59.97720866,,,,,,,,,,,,,,,,,,,,,,
,0,h,1,0.9003,3,0,12,2,1,h.PNG,h,5eb89eb4adb9350fb8fc895c,2021-09-08_19h56.20.859,forced_choiceRT,2021.1.2,MacIntel,59.97720866,,,,,,,,,,,,,,,,,,,,,,
,0,f,1,0.8673,3,1,13,0,1,f.PNG,f,5eb89eb4adb9350fb8fc895c,2021-09-08_19h56.20.859,forced_choiceRT,2021.1.2,MacIntel,59.97720866,,,,,,,,,,,,,,,,,,,,,,
,0,f,1,1.6212,3,2,14,0,1,f.PNG,f,5eb89eb4adb9350fb8fc895c,2021-09-08_19h56.20.859,forced_choiceRT,2021.1.2,MacIntel,59.97720866,,,,,,,,,,,,,,,,,,,,,,
,0,f,1,0.8017,3,3,15,0,1,f.PNG,f,5eb89eb4adb9350fb8fc895c,2021-09-08_19h56.20.859,forced_choiceRT,2021.1.2,MacIntel,59.97720866,,,,,,,,,,,,,,,,,,,,,,
,0,j,1,1.1171,4,0,16,3,1,j.PNG,j,5eb89eb4adb9350fb8fc895c,2021-09-08_19h56.20.859,forced_choiceRT,2021.1.2,MacIntel,59.97720866,,,,,,,,,,,,,,,,,,,,,,
,0,h,1,0.8999,4,1,17,2,1,h.PNG,h,5eb89eb4adb9350fb8fc895c,2021-09-08_19h56.20.859,forced_choiceRT,2021.1.2,MacIntel,59.97720866,,,,,,,,,,,,,,,,,,,,,,
,0,j,1,1.2449,4,2,18,3,1,j.PNG,j,5eb89eb4adb9350fb8fc895c,2021-09-08_19h56.20.859,forced_choiceRT,2021.1.2,MacIntel,59.97720866,,,,,,,,,,,,,,,,,,,,,,
,0,g,1,0.9831,4,3,19,1,1,g.PNG,g,5eb89eb4adb9350fb8fc895c,2021-09-08_19h56.20.859,forced_choiceRT,2021.1.2,MacIntel,59.97720866,,,,,,,,,,,,,,,,,,,,,,
,0,h,0,0.8164,5,0,20,1,1,g.PNG,g,5eb89eb4adb9350fb8fc895c,2021-09-08_19h56.20.859,forced_choiceRT,2021.1.2,MacIntel,59.97720866,,,,,,,,,,,,,,,,,,,,,,
,0,h,1,1.71,5,1,21,2,1,h.PNG,h,5eb89eb4adb9350fb8fc895c,2021-09-08_19h56.20.859,forced_choiceRT,2021.1.2,MacIntel,59.97720866,,,,,,,,,,,,,,,,,,,,,,
,0,h,1,0.9658,5,2,22,2,1,h.PNG,h,5eb89eb4adb9350fb8fc895c,2021-09-08_19h56.20.859,forced_choiceRT,2021.1.2,MacIntel,59.97720866,,,,,,,,,,,,,,,,,,,,,,
,0,j,1,0.8022,5,3,23,3,1,j.PNG,j,5eb89eb4adb9350fb8fc895c,2021-09-08_19h56.20.859,forced_choiceRT,2021.1.2,MacIntel,59.97720866,,,,,,,,,,,,,,,,,,,,,,
,0,j,1,0.7943,6,0,24,3,1,j.PNG,j,5eb89eb4adb9350fb8fc895c,2021-09-08_19h56.20.859,forced_choiceRT,2021.1.2,MacIntel,59.97720866,,,,,,,,,,,,,,,,,,,,,,
,0,j,1,0.5792,6,1,25,3,1,j.PNG,j,5eb89eb4adb9350fb8fc895c,2021-09-08_19h56.20.859,forced_choiceRT,2021.1.2,MacIntel,59.97720866,,,,,,,,,,,,,,,,,,,,,,
,0,j,1,0.5627,6,2,26,3,1,j.PNG,j,5eb89eb4adb9350fb8fc895c,2021-09-08_19h56.20.859,forced_choiceRT,2021.1.2,MacIntel,59.97720866,,,,,,,,,,,,,,,,,,,,,,
,0,f,1,0.7335,6,3,27,0,1,f.PNG,f,5eb89eb4adb9350fb8fc895c,2021-09-08_19h56.20.859,forced_choiceRT,2021.1.2,MacIntel,59.97720866,,,,,,,,,,,,,,,,,,,,,,
,0,g,1,1.1621,7,0,28,1,1,g.PNG,g,5eb89eb4adb9350fb8fc895c,2021-09-08_19h56.20.859,forced_choiceRT,2021.1.2,MacIntel,59.97720866,,,,,,,,,,,,,,,,,,,,,,
,0,j,1,0.7796,7,1,29,3,1,j.PNG,j,5eb89eb4adb9350fb8fc895c,2021-09-08_19h56.20.859,forced_choiceRT,2021.1.2,MacIntel,59.97720866,,,,,,,,,,,,,,,,,,,,,,
,0,h,1,0.8013,7,2,30,2,1,h.PNG,h,5eb89eb4adb9350fb8fc895c,2021-09-08_19h56.20.859,forced_choiceRT,2021.1.2,MacIntel,59.97720866,,,,,,,,,,,,,,,,,,,,,,
,0,f,1,0.7836,7,3,31,0,1,f.PNG,f,5eb89eb4adb9350fb8fc895c,2021-09-08_19h56.20.859,forced_choiceRT,2021.1.2,MacIntel,59.97720866,,,,,,,,,,,,,,,,,,,,,,
,0,j,1,0.745,8,0,32,3,1,j.PNG,j,5eb89eb4adb9350fb8fc895c,2021-09-08_19h56.20.859,forced_choiceRT,2021.1.2,MacIntel,59.97720866,,,,,,,,,,,,,,,,,,,,,,
,0,g,1,0.8207,8,1,33,1,1,g.PNG,g,5eb89eb4adb9350fb8fc895c,2021-09-08_19h56.20.859,forced_choiceRT,2021.1.2,MacIntel,59.97720866,,,,,,,,,,,,,,,,,,,,,,
,0,h,1,0.7777,8,2,34,2,1,h.PNG,h,5eb89eb4adb9350fb8fc895c,2021-09-08_19h56.20.859,forced_choiceRT,2021.1.2,MacIntel,59.97720866,,,,,,,,,,,,,,,,,,,,,,
,0,j,1,0.7259,8,3,35,3,1,j.PNG,j,5eb89eb4adb9350fb8fc895c,2021-09-08_19h56.20.859,forced_choiceRT,2021.1.2,MacIntel,59.97720866,,,,,,,,,,,,,,,,,,,,,,
,0,g,1,0.9641,9,0,36,1,1,g.PNG,g,5eb89eb4adb9350fb8fc895c,2021-09-08_19h56.20.859,forced_choiceRT,2021.1.2,MacIntel,59.97720866,,,,,,,,,,,,,,,,,,,,,,
,0,h,0,0.768,9,1,37,1,1,g.PNG,g,5eb89eb4adb9350fb8fc895c,2021-09-08_19h56.20.859,forced_choiceRT,2021.1.2,MacIntel,59.97720866,,,,,,,,,,,,,,,,,,,,,,
,0,f,1,0.7665,9,2,38,0,1,f.PNG,f,5eb89eb4adb9350fb8fc895c,2021-09-08_19h56.20.859,forced_choiceRT,2021.1.2,MacIntel,59.97720866,,,,,,,,,,,,,,,,,,,,,,
,0,j,1,0.7676,9,3,39,3,1,j.PNG,j,5eb89eb4adb9350fb8fc895c,2021-09-08_19h56.20.859,forced_choiceRT,2021.1.2,MacIntel,59.97720866,,,,,,,,,,,,,,,,,,,,,,
,0,j,1,0.8868,10,0,40,3,1,j.PNG,j,5eb89eb4adb9350fb8fc895c,2021-09-08_19h56.20.859,forced_choiceRT,2021.1.2,MacIntel,59.97720866,,,,,,,,,,,,,,,,,,,,,,
,0,h,1,0.8601,10,1,41,2,1,h.PNG,h,5eb89eb4adb9350fb8fc895c,2021-09-08_19h56.20.859,forced_choiceRT,2021.1.2,MacIntel,59.97720866,,,,,,,,,,,,,,,,,,,,,,
,0,h,1,0.6824,10,2,42,2,1,h.PNG,h,5eb89eb4adb9350fb8fc895c,2021-09-08_19h56.20.859,forced_choiceRT,2021.1.2,MacIntel,59.97720866,,,,,,,,,,,,,,,,,,,,,,
,0,f,1,0.7344,10,3,43,0,1,f.PNG,f,5eb89eb4adb9350fb8fc895c,2021-09-08_19h56.20.859,forced_choiceRT,2021.1.2,MacIntel,59.97720866,,,,,,,,,,,,,,,,,,,,,,
,0,j,1,0.7496,11,0,44,3,1,j.PNG,j,5eb89eb4adb9350fb8fc895c,2021-09-08_19h56.20.859,forced_choiceRT,2021.1.2,MacIntel,59.97720866,,,,,,,,,,,,,,,,,,,,,,
,0,j,1,0.6475,11,1,45,3,1,j.PNG,j,5eb89eb4adb9350fb8fc895c,2021-09-08_19h56.20.859,forced_choiceRT,2021.1.2,MacIntel,59.97720866,,,,,,,,,,,,,,,,,,,,,,
,0,h,1,0.8344,11,2,46,2,1,h.PNG,h,5eb89eb4adb9350fb8fc895c,2021-09-08_19h56.20.859,forced_choiceRT,2021.1.2,MacIntel,59.97720866,,,,,,,,,,,,,,,,,,,,,,
,0,g,1,0.7442,11,3,47,1,1,g.PNG,g,5eb89eb4adb9350fb8fc895c,2021-09-08_19h56.20.859,forced_choiceRT,2021.1.2,MacIntel,59.97720866,,,,,,,,,,,,,,,,,,,,,,
,0,f,1,0.7609,12,0,48,0,1,f.PNG,f,5eb89eb4adb9350fb8fc895c,2021-09-08_19h56.20.859,forced_choiceRT,2021.1.2,MacIntel,59.97720866,,,,,,,,,,,,,,,,,,,,,,
,0,f,1,0.7946,12,1,49,0,1,f.PNG,f,5eb89eb4adb9350fb8fc895c,2021-09-08_19h56.20.859,forced_choiceRT,2021.1.2,MacIntel,59.97720866,,,,,,,,,,,,,,,,,,,,,,
,0,f,1,0.879,12,2,50,0,1,f.PNG,f,5eb89eb4adb9350fb8fc895c,2021-09-08_19h56.20.859,forced_choiceRT,2021.1.2,MacIntel,59.97720866,,,,,,,,,,,,,,,,,,,,,,
,0,g,1,1.1029,12,3,51,1,1,g.PNG,g,5eb89eb4adb9350fb8fc895c,2021-09-08_19h56.20.859,forced_choiceRT,2021.1.2,MacIntel,59.97720866,,,,,,,,,,,,,,,,,,,,,,
,0,f,1,1.2938,13,0,52,0,1,f.PNG,f,5eb89eb4adb9350fb8fc895c,2021-09-08_19h56.20.859,forced_choiceRT,2021.1.2,MacIntel,59.97720866,,,,,,,,,,,,,,,,,,,,,,
,0,f,1,0.7843,13,1,53,0,1,f.PNG,f,5eb89eb4adb9350fb8fc895c,2021-09-08_19h56.20.859,forced_choiceRT,2021.1.2,MacIntel,59.97720866,,,,,,,,,,,,,,,,,,,,,,
,0,g,1,1.0995,13,2,54,1,1,g.PNG,g,5eb89eb4adb9350fb8fc895c,2021-09-08_19h56.20.859,forced_choiceRT,2021.1.2,MacIntel,59.97720866,,,,,,,,,,,,,,,,,,,,,,
,0,g,1,0.7332,13,3,55,1,1,g.PNG,g,5eb89eb4adb9350fb8fc895c,2021-09-08_19h56.20.859,forced_choiceRT,2021.1.2,MacIntel,59.97720866,,,,,,,,,,,,,,,,,,,,,,
,0,j,1,0.9536,14,0,56,3,1,j.PNG,j,5eb89eb4adb9350fb8fc895c,2021-09-08_19h56.20.859,forced_choiceRT,2021.1.2,MacIntel,59.97720866,,,,,,,,,,,,,,,,,,,,,,
,0,g,1,1.1299,14,1,57,1,1,g.PNG,g,5eb89eb4adb9350fb8fc895c,2021-09-08_19h56.20.859,forced_choiceRT,2021.1.2,MacIntel,59.97720866,,,,,,,,,,,,,,,,,,,,,,
,0,f,1,0.7782,14,2,58,0,1,f.PNG,f,5eb89eb4adb9350fb8fc895c,2021-09-08_19h56.20.859,forced_choiceRT,2021.1.2,MacIntel,59.97720866,,,,,,,,,,,,,,,,,,,,,,
,0,f,1,0.6962,14,3,59,0,1,f.PNG,f,5eb89eb4adb9350fb8fc895c,2021-09-08_19h56.20.859,forced_choiceRT,2021.1.2,MacIntel,59.97720866,,,,,,,,,,,,,,,,,,,,,,
,,,,,,,,,,,,5eb89eb4adb9350fb8fc895c,2021-09-08_19h56.20.859,forced_choiceRT,2021.1.2,MacIntel,59.97720866,h,2.2702,0,0,0,0,1,,,,,,,,,,,,,,,
,,,,,,,,,,,,5eb89eb4adb9350fb8fc895c,2021-09-08_19h56.20.859,forced_choiceRT,2021.1.2,MacIntel,59.97720866,h,2.0208,1,0,1,0,1,,,,,,,,,,,,,,,
,,,,,,,,,,,,5eb89eb4adb9350fb8fc895c,2021-09-08_19h56.20.859,forced_choiceRT,2021.1.2,MacIntel,59.97720866,j,1.9749,2,0,2,0,1,,,,,,,,,,,,,,,
,,,,,,,,,,,,5eb89eb4adb9350fb8fc895c,2021-09-08_19h56.20.859,forced_choiceRT,2021.1.2,MacIntel,59.97720866,f,1.9972,3,0,3,0,1,,,,,,,,,,,,,,,
,,,,,,,,,,,,5eb89eb4adb9350fb8fc895c,2021-09-08_19h56.20.859,forced_choiceRT,2021.1.2,MacIntel,59.97720866,g,2.0274,4,0,4,0,1,,,,,,,,,,,,,,,
,,,,,,,,,,,,5eb89eb4adb9350fb8fc895c,2021-09-08_19h56.20.859,forced_choiceRT,2021.1.2,MacIntel,59.97720866,h,2.0036,5,0,5,0,1,,,,,,,,,,,,,,,
,,,,,,,,,,,,5eb89eb4adb9350fb8fc895c,2021-09-08_19h56.20.859,forced_choiceRT,2021.1.2,MacIntel,59.97720866,j,2.0002,6,0,6,0,1,,,,,,,,,,,,,,,
,,,,,,,,,,,,5eb89eb4adb9350fb8fc895c,2021-09-08_19h56.20.859,forced_choiceRT,2021.1.2,MacIntel,59.97720866,f,1.9785,7,0,7,0,1,,,,,,,,,,,,,,,
,,,,,,,,,,,,5eb89eb4adb9350fb8fc895c,2021-09-08_19h56.20.859,forced_choiceRT,2021.1.2,MacIntel,59.97720866,g,1.7456,8,0,8,0,1,,,,,,,,,,,,,,,
,,,,,,,,,,,,5eb89eb4adb9350fb8fc895c,2021-09-08_19h56.20.859,forced_choiceRT,2021.1.2,MacIntel,59.97720866,h,2.0572,9,0,9,0,1,,,,,,,,,,,,,,,
,,,,,,,,,,,,5eb89eb4adb9350fb8fc895c,2021-09-08_19h56.20.859,forced_choiceRT,2021.1.2,MacIntel,59.97720866,j,2.035,10,0,10,0,1,,,,,,,,,,,,,,,
,,,,,,,,,,,,5eb89eb4adb9350fb8fc895c,2021-09-08_19h56.20.859,forced_choiceRT,2021.1.2,MacIntel,59.97720866,j,2.0364,11,0,11,0,1,,,,,,,,,,,,,,,
,,,,,,,,,,,,5eb89eb4adb9350fb8fc895c,2021-09-08_19h56.20.859,forced_choiceRT,2021.1.2,MacIntel,59.97720866,f,2.0494,12,0,12,0,1,,,,,,,,,,,,,,,
,,,,,,,,,,,,5eb89eb4adb9350fb8fc895c,2021-09-08_19h56.20.859,forced_choiceRT,2021.1.2,MacIntel,59.97720866,g,1.9838,13,0,13,0,1,,,,,,,,,,,,,,,
,,,,,,,,,,,,5eb89eb4adb9350fb8fc895c,2021-09-08_19h56.20.859,forced_choiceRT,2021.1.2,MacIntel,59.97720866,h,2.0176,14,0,14,0,1,,,,,,,,,,,,,,,
,,,,,,,,,,,,5eb89eb4adb9350fb8fc895c,2021-09-08_19h56.20.859,forced_choiceRT,2021.1.2,MacIntel,59.97720866,j,2.0641,15,0,15,0,1,,,,,,,,,,,,,,,
,,,,,,,,,,,,5eb89eb4adb9350fb8fc895c,2021-09-08_19h56.20.859,forced_choiceRT,2021.1.2,MacIntel,59.97720866,f,2.0315,16,0,16,0,1,,,,,,,,,,,,,,,
,,,,,,,,,,,,5eb89eb4adb9350fb8fc895c,2021-09-08_19h56.20.859,forced_choiceRT,2021.1.2,MacIntel,59.97720866,g,1.996,17,0,17,0,1,,,,,,,,,,,,,,,
,,,,,,,,,,,,5eb89eb4adb9350fb8fc895c,2021-09-08_19h56.20.859,forced_choiceRT,2021.1.2,MacIntel,59.97720866,h,2.001,18,0,18,0,1,,,,,,,,,,,,,,,
,,,,,,,,,,,,5eb89eb4adb9350fb8fc895c,2021-09-08_19h56.20.859,forced_choiceRT,2021.1.2,MacIntel,59.97720866,j,2.0288,19,0,19,0,1,,,,,,,,,,,,,,,
,0.22,,,,,,,,,g.PNG,g,5eb89eb4adb9350fb8fc895c,2021-09-08_19h56.20.859,forced_choiceRT,2021.1.2,MacIntel,59.97720866,,,,,,,,1,Ontime,f,0,2.067,0,0,0,1,1,,,,,
,1.35,,,,,,,,,g.PNG,g,5eb89eb4adb9350fb8fc895c,2021-09-08_19h56.20.859,forced_choiceRT,2021.1.2,MacIntel,59.97720866,,,,,,,,1,Ontime,g,1,2.0819,0,1,1,1,1,,,,,
,1.04,,,,,,,,,g.PNG,g,5eb89eb4adb9350fb8fc895c,2021-09-08_19h56.20.859,forced_choiceRT,2021.1.2,MacIntel,59.97720866,,,,,,,,1,Slow,g,1,2.1103,0,2,2,1,1,,,,,
,1.55,,,,,,,,,f.PNG,f,5eb89eb4adb9350fb8fc895c,2021-09-08_19h56.20.859,forced_choiceRT,2021.1.2,MacIntel,59.97720866,,,,,,,,1,Slow,f,1,2.2947,0,3,3,0,1,,,,,
,1.95,,,,,,,,,g.PNG,g,5eb89eb4adb9350fb8fc895c,2021-09-08_19h56.20.859,forced_choiceRT,2021.1.2,MacIntel,59.97720866,,,,,,,,1,Slow,h,0,20.2006,1,0,4,1,1,,,,,
,1.35,,,,,,,,,j.PNG,j,5eb89eb4adb9350fb8fc895c,2021-09-08_19h56.20.859,forced_choiceRT,2021.1.2,MacIntel,59.97720866,,,,,,,,1,Slow,j,1,2.125,1,1,5,3,1,,,,,
,0.89,,,,,,,,,j.PNG,j,5eb89eb4adb9350fb8fc895c,2021-09-08_19h56.20.859,forced_choiceRT,2021.1.2,MacIntel,59.97720866,,,,,,,,1,Ontime,j,1,1.9039,1,2,6,3,1,,,,,
,1.56,,,,,,,,,f.PNG,f,5eb89eb4adb9350fb8fc895c,2021-09-08_19h56.20.859,forced_choiceRT,2021.1.2,MacIntel,59.97720866,,,,,,,,1,Slow,f,1,2.1026,1,3,7,0,1,,,,,
,1.34,,,,,,,,,g.PNG,g,5eb89eb4adb9350fb8fc895c,2021-09-08_19h56.20.859,forced_choiceRT,2021.1.2,MacIntel,59.97720866,,,,,,,,1,Ontime,h,0,2.0345,2,0,8,1,1,,,,,
,1.9,,,,,,,,,f.PNG,f,5eb89eb4adb9350fb8fc895c,2021-09-08_19h56.20.859,forced_choiceRT,2021.1.2,MacIntel,59.97720866,,,,,,,,1,Slow,g,0,2.3249,2,1,9,0,1,,,,,
,1.91,,,,,,,,,f.PNG,f,5eb89eb4adb9350fb8fc895c,2021-09-08_19h56.20.859,forced_choiceRT,2021.1.2,MacIntel,59.97720866,,,,,,,,1,Slow,h,0,2.3681,2,2,10,0,1,,,,,
,0.34,,,,,,,,,g.PNG,g,5eb89eb4adb9350fb8fc895c,2021-09-08_19h56.20.859,forced_choiceRT,2021.1.2,MacIntel,59.97720866,,,,,,,,1,Fast,g,1,1.7383,2,3,11,1,1,,,,,
,0.19,,,,,,,,,h.PNG,h,5eb89eb4adb9350fb8fc895c,2021-09-08_19h56.20.859,forced_choiceRT,2021.1.2,MacIntel,59.97720866,,,,,,,,1,Ontime,h,1,2.08,3,0,12,2,1,,,,,
,0.25,,,,,,,,,j.PNG,j,5eb89eb4adb9350fb8fc895c,2021-09-08_19h56.20.859,forced_choiceRT,2021.1.2,MacIntel,59.97720866,,,,,,,,1,Ontime,j,1,2.0489,3,1,13,3,1,,,,,
,0.62,,,,,,,,,j.PNG,j,5eb89eb4adb9350fb8fc895c,2021-09-08_19h56.20.859,forced_choiceRT,2021.1.2,MacIntel,59.97720866,,,,,,,,1,Ontime,j,1,2.0688,3,2,14,3,1,,,,,
,0.44,,,,,,,,,f.PNG,f,5eb89eb4adb9350fb8fc895c,2021-09-08_19h56.20.859,forced_choiceRT,2021.1.2,MacIntel,59.97720866,,,,,,,,1,Slow,f,1,2.1189,3,3,15,0,1,,,,,
,1.13,,,,,,,,,j.PNG,j,5eb89eb4adb9350fb8fc895c,2021-09-08_19h56.20.859,forced_choiceRT,2021.1.2,MacIntel,59.97720866,,,,,,,,1,Slow,j,1,2.1356,4,0,16,3,1,,,,,
,1.01,,,,,,,,,h.PNG,h,5eb89eb4adb9350fb8fc895c,2021-09-08_19h56.20.859,forced_choiceRT,2021.1.2,MacIntel,59.97720866,,,,,,,,1,Ontime,h,1,1.911,4,1,17,2,1,,,,,
,1.86,,,,,,,,,h.PNG,h,5eb89eb4adb9350fb8fc895c,2021-09-08_19h56.20.859,forced_choiceRT,2021.1.2,MacIntel,59.97720866,,,,,,,,1,Slow,h,1,2.3506,4,2,18,2,1,,,,,
,1.84,,,,,,,,,j.PNG,j,5eb89eb4adb9350fb8fc895c,2021-09-08_19h56.20.859,forced_choiceRT,2021.1.2,MacIntel,59.97720866,,,,,,,,1,Slow,h,0,2.2677,4,3,19,3,1,,,,,
,0.29,,,,,,,,,f.PNG,f,5eb89eb4adb9350fb8fc895c,2021-09-08_19h56.20.859,forced_choiceRT,2021.1.2,MacIntel,59.97720866,,,,,,,,1,Ontime,f,1,1.9943,5,0,20,0,1,,,,,
,1.68,,,,,,,,,g.PNG,g,5eb89eb4adb9350fb8fc895c,2021-09-08_19h56.20.859,forced_choiceRT,2021.1.2,MacIntel,59.97720866,,,,,,,,1,Slow,h,0,2.2516,5,1,21,1,1,,,,,
,0.95,,,,,,,,,h.PNG,h,5eb89eb4adb9350fb8fc895c,2021-09-08_19h56.20.859,forced_choiceRT,2021.1.2,MacIntel,59.97720866,,,,,,,,1,Ontime,h,1,1.9948,5,2,22,2,1,,,,,
,0.45,,,,,,,,,j.PNG,j,5eb89eb4adb9350fb8fc895c,2021-09-08_19h56.20.859,forced_choiceRT,2021.1.2,MacIntel,59.97720866,,,,,,,,1,Ontime,j,1,2.0198,5,3,23,3,1,,,,,
,1.49,,,,,,,,,g.PNG,g,5eb89eb4adb9350fb8fc895c,2021-09-08_19h56.20.859,forced_choiceRT,2021.1.2,MacIntel,59.97720866,,,,,,,,1,Slow,h,0,2.1014,6,0,24,1,1,,,,,
,0.79,,,,,,,,,h.PNG,h,5eb89eb4adb9350fb8fc895c,2021-09-08_19h56.20.859,forced_choiceRT,2021.1.2,MacIntel,59.97720866,,,,,,,,1,Ontime,h,1,1.9998,6,1,25,2,1,,,,,
,0.98,,,,,,,,,j.PNG,j,5eb89eb4adb9350fb8fc895c,2021-09-08_19h56.20.859,forced_choiceRT,2021.1.2,MacIntel,59.97720866,,,,,,,,1,Fast,j,1,1.7838,6,2,26,3,1,,,,,
,0.08,,,,,,,,,g.PNG,g,5eb89eb4adb9350fb8fc895c,2021-09-08_19h56.20.859,forced_choiceRT,2021.1.2,MacIntel,59.97720866,,,,,,,,1,Ontime,g,1,2.018,6,3,27,1,1,,,,,
,1.64,,,,,,,,,f.PNG,f,5eb89eb4adb9350fb8fc895c,2021-09-08_19h56.20.859,forced_choiceRT,2021.1.2,MacIntel,59.97720866,,,,,,,,1,Slow,f,1,2.2844,7,0,28,0,1,,,,,
,1.59,,,,,,,,,f.PNG,f,5eb89eb4adb9350fb8fc895c,2021-09-08_19h56.20.859,forced_choiceRT,2021.1.2,MacIntel,59.97720866,,,,,,,,1,Slow,f,1,2.402,7,1,29,0,1,,,,,
,0.67,,,,,,,,,h.PNG,h,5eb89eb4adb9350fb8fc895c,2021-09-08_19h56.20.859,forced_choiceRT,2021.1.2,MacIntel,59.97720866,,,,,,,,1,Ontime,h,1,2.0192,7,2,30,2,1,,,,,
,0.14,,,,,,,,,j.PNG,j,5eb89eb4adb9350fb8fc895c,2021-09-08_19h56.20.859,forced_choiceRT,2021.1.2,MacIntel,59.97720866,,,,,,,,1,Ontime,j,1,2.0722,7,3,31,3,1,,,,,
,1.28,,,,,,,,,g.PNG,g,5eb89eb4adb9350fb8fc895c,2021-09-08_19h56.20.859,forced_choiceRT,2021.1.2,MacIntel,59.97720866,,,,,,,,1,Ontime,g,1,2.0673,8,0,32,1,1,,,,,
,1.22,,,,,,,,,h.PNG,h,5eb89eb4adb9350fb8fc895c,2021-09-08_19h56.20.859,forced_choiceRT,2021.1.2,MacIntel,59.97720866,,,,,,,,1,Ontime,h,1,2.0619,8,1,33,2,1,,,,,
,1.87,,,,,,,,,h.PNG,h,5eb89eb4adb9350fb8fc895c,2021-09-08_19h56.20.859,forced_choiceRT,2021.1.2,MacIntel,59.97720866,,,,,,,,1,Slow,h,1,5.2075,8,2,34,2,1,,,,,
,1.99,,,,,,,,,h.PNG,h,5eb89eb4adb9350fb8fc895c,2021-09-08_19h56.20.859,forced_choiceRT,2021.1.2,MacIntel,59.97720866,,,,,,,,1,Slow,g,0,6.019,8,3,35,2,1,,,,,
,0.48,,,,,,,,,f.PNG,f,5eb89eb4adb9350fb8fc895c,2021-09-08_19h56.20.859,forced_choiceRT,2021.1.2,MacIntel,59.97720866,,,,,,,,1,Ontime,f,1,2.0683,9,0,36,0,1,,,,,
,1.28,,,,,,,,,f.PNG,f,5eb89eb4adb9350fb8fc895c,2021-09-08_19h56.20.859,forced_choiceRT,2021.1.2,MacIntel,59.97720866,,,,,,,,1,Ontime,f,1,1.9825,9,1,37,0,1,,,,,
,0.96,,,,,,,,,j.PNG,j,5eb89eb4adb9350fb8fc895c,2021-09-08_19h56.20.859,forced_choiceRT,2021.1.2,MacIntel,59.97720866,,,,,,,,1,Ontime,j,1,2.0554,9,2,38,3,1,,,,,
,0.61,,,,,,,,,h.PNG,h,5eb89eb4adb9350fb8fc895c,2021-09-08_19h56.20.859,forced_choiceRT,2021.1.2,MacIntel,59.97720866,,,,,,,,1,Ontime,h,1,1.9512,9,3,39,2,1,,,,,
,,,,,,,,,,,,5eb89eb4adb9350fb8fc895c,2021-09-08_19h56.20.859,forced_choiceRT,2021.1.2,MacIntel,59.97720866,,,,,,,,,,,,,,,,,,0,0,0,0,1
,1.18,,,,,,,,,f.PNG,f,5eb89eb4adb9350fb8fc895c,2021-09-08_19h56.20.859,forced_choiceRT,2021.1.2,MacIntel,59.97720866,,,,,,,,2,Ontime,f,1,2.037,0,0,0,0,1,,,,,
,1.54,,,,,,,,,g.PNG,g,5eb89eb4adb9350fb8fc895c,2021-09-08_19h56.20.859,forced_choiceRT,2021.1.2,MacIntel,59.97720866,,,,,,,,2,Slow,h,0,2.1234,0,1,1,1,1,,,,,
,1.8,,,,,,,,,j.PNG,j,5eb89eb4adb9350fb8fc895c,2021-09-08_19h56.20.859,forced_choiceRT,2021.1.2,MacIntel,59.97720866,,,,,,,,2,Slow,j,1,2.3472,0,2,2,3,1,,,,,
,0.32,,,,,,,,,f.PNG,f,5eb89eb4adb9350fb8fc895c,2021-09-08_19h56.20.859,forced_choiceRT,2021.1.2,MacIntel,59.97720866,,,,,,,,2,Ontime,f,1,1.982,0,3,3,0,1,,,,,
,1.45,,,,,,,,,g.PNG,g,5eb89eb4adb9350fb8fc895c,2021-09-08_19h56.20.859,forced_choiceRT,2021.1.2,MacIntel,59.97720866,,,,,,,,2,Ontime,h,0,1.9946,1,0,4,1,1,,,,,
,0.21,,,,,,,,,h.PNG,h,5eb89eb4adb9350fb8fc895c,2021-09-08_19h56.20.859,forced_choiceRT,2021.1.2,MacIntel,59.97720866,,,,,,,,2,Ontime,h,1,1.9853,1,1,5,2,1,,,,,
,1.73,,,,,,,,,f.PNG,f,5eb89eb4adb9350fb8fc895c,2021-09-08_19h56.20.859,forced_choiceRT,2021.1.2,MacIntel,59.97720866,,,,,,,,2,Slow,g,0,2.2393,1,2,6,0,1,,,,,
,1.55,,,,,,,,,h.PNG,h,5eb89eb4adb9350fb8fc895c,2021-09-08_19h56.20.859,forced_choiceRT,2021.1.2,MacIntel,59.97720866,,,,,,,,2,Slow,h,1,2.2279,1,3,7,2,1,,,,,
,1.44,,,,,,,,,g.PNG,g,5eb89eb4adb9350fb8fc895c,2021-09-08_19h56.20.859,forced_choiceRT,2021.1.2,MacIntel,59.97720866,,,,,,,,2,Slow,h,0,2.1673,2,0,8,1,1,,,,,
,0.56,,,,,,,,,g.PNG,g,5eb89eb4adb9350fb8fc895c,2021-09-08_19h56.20.859,forced_choiceRT,2021.1.2,MacIntel,59.97720866,,,,,,,,2,Ontime,g,1,2.0351,2,1,9,1,1,,,,,
,1.61,,,,,,,,,j.PNG,j,5eb89eb4adb9350fb8fc895c,2021-09-08_19h56.20.859,forced_choiceRT,2021.1.2,MacIntel,59.97720866,,,,,,,,2,Slow,h,0,2.135,2,2,10,3,1,,,,,
,0.25,,,,,,,,,g.PNG,g,5eb89eb4adb9350fb8fc895c,2021-09-08_19h56.20.859,forced_choiceRT,2021.1.2,MacIntel,59.97720866,,,,,,,,2,Ontime,h,0,2.0295,2,3,11,1,1,,,,,
,1.87,,,,,,,,,j.PNG,j,5eb89eb4adb9350fb8fc895c,2021-09-08_19h56.20.859,forced_choiceRT,2021.1.2,MacIntel,59.97720866,,,,,,,,2,Slow,j,1,2.3845,3,0,12,3,1,,,,,
,1.69,,,,,,,,,f.PNG,f,5eb89eb4adb9350fb8fc895c,2021-09-08_19h56.20.859,forced_choiceRT,2021.1.2,MacIntel,59.97720866,,,,,,,,2,Slow,g,0,2.3014,3,1,13,0,1,,,,,
,1.84,,,,,,,,,h.PNG,h,5eb89eb4adb9350fb8fc895c,2021-09-08_19h56.20.859,forced_choiceRT,2021.1.2,MacIntel,59.97720866,,,,,,,,2,Slow,h,1,5.4176,3,2,14,2,1,,,,,
,1.08,,,,,,,,,j.PNG,j,5eb89eb4adb9350fb8fc895c,2021-09-08_19h56.20.859,forced_choiceRT,2021.1.2,MacIntel,59.97720866,,,,,,,,2,Ontime,j,1,1.9369,3,3,15,3,1,,,,,
,0.96,,,,,,,,,h.PNG,h,5eb89eb4adb9350fb8fc895c,2021-09-08_19h56.20.859,forced_choiceRT,2021.1.2,MacIntel,59.97720866,,,,,,,,2,Ontime,h,1,2.0458,4,0,16,2,1,,,,,
,1.41,,,,,,,,,j.PNG,j,5eb89eb4adb9350fb8fc895c,2021-09-08_19h56.20.859,forced_choiceRT,2021.1.2,MacIntel,59.97720866,,,,,,,,2,Slow,j,1,2.1395,4,1,17,3,1,,,,,
,1.41,,,,,,,,,h.PNG,h,5eb89eb4adb9350fb8fc895c,2021-09-08_19h56.20.859,forced_choiceRT,2021.1.2,MacIntel,59.97720866,,,,,,,,2,Slow,h,1,2.1444,4,2,18,2,1,,,,,
,0.38,,,,,,,,,g.PNG,g,5eb89eb4adb9350fb8fc895c,2021-09-08_19h56.20.859,forced_choiceRT,2021.1.2,MacIntel,59.97720866,,,,,,,,2,Ontime,g,1,1.9998,4,3,19,1,1,,,,,
,0.1,,,,,,,,,j.PNG,j,5eb89eb4adb9350fb8fc895c,2021-09-08_19h56.20.859,forced_choiceRT,2021.1.2,MacIntel,59.97720866,,,,,,,,2,Ontime,j,1,2.0183,5,0,20,3,1,,,,,
,0.62,,,,,,,,,h.PNG,h,5eb89eb4adb9350fb8fc895c,2021-09-08_19h56.20.859,forced_choiceRT,2021.1.2,MacIntel,59.97720866,,,,,,,,2,Ontime,h,1,2.0317,5,1,21,2,1,,,,,
,1.58,,,,,,,,,f.PNG,f,5eb89eb4adb9350fb8fc895c,2021-09-08_19h56.20.859,forced_choiceRT,2021.1.2,MacIntel,59.97720866,,,,,,,,2,Slow,f,1,2.1267,5,2,22,0,1,,,,,
,1.68,,,,,,,,,f.PNG,f,5eb89eb4adb9350fb8fc895c,2021-09-08_19h56.20.859,forced_choiceRT,2021.1.2,MacIntel,59.97720866,,,,,,,,2,Slow,f,1,2.2777,5,3,23,0,1,,,,,
,0.95,,,,,,,,,h.PNG,h,5eb89eb4adb9350fb8fc895c,2021-09-08_19h56.20.859,forced_choiceRT,2021.1.2,MacIntel,59.97720866,,,,,,,,2,Fast,h,1,1.5508,6,0,24,2,1,,,,,
,0.28,,,,,,,,,g.PNG,g,5eb89eb4adb9350fb8fc895c,2021-09-08_19h56.20.859,forced_choiceRT,2021.1.2,MacIntel,59.97720866,,,,,,,,2,Ontime,g,1,1.9651,6,1,25,1,1,,,,,
,0.99,,,,,,,,,j.PNG,j,5eb89eb4adb9350fb8fc895c,2021-09-08_19h56.20.859,forced_choiceRT,2021.1.2,MacIntel,59.97720866,,,,,,,,2,Fast,j,1,1.8026,6,2,26,3,1,,,,,
,1.86,,,,,,,,,h.PNG,h,5eb89eb4adb9350fb8fc895c,2021-09-08_19h56.20.859,forced_choiceRT,2021.1.2,MacIntel,59.97720866,,,,,,,,2,Slow,h,1,4.4747,6,3,27,2,1,,,,,
,1.68,,,,,,,,,j.PNG,j,5eb89eb4adb9350fb8fc895c,2021-09-08_19h56.20.859,forced_choiceRT,2021.1.2,MacIntel,59.97720866,,,,,,,,2,Slow,j,1,2.1618,7,0,28,3,1,,,,,
,0.53,,,,,,,,,h.PNG,h,5eb89eb4adb9350fb8fc895c,2021-09-08_19h56.20.859,forced_choiceRT,2021.1.2,MacIntel,59.97720866,,,,,,,,2,Ontime,h,1,1.918,7,1,29,2,1,,,,,
,0.42,,,,,,,,,h.PNG,h,5eb89eb4adb9350fb8fc895c,2021-09-08_19h56.20.859,forced_choiceRT,2021.1.2,MacIntel,59.97720866,,,,,,,,2,Ontime,h,1,1.9852,7,2,30,2,1,,,,,
,0.79,,,,,,,,,f.PNG,f,5eb89eb4adb9350fb8fc895c,2021-09-08_19h56.20.859,forced_choiceRT,2021.1.2,MacIntel,59.97720866,,,,,,,,2,Ontime,f,1,2.0017,7,3,31,0,1,,,,,
,0.41,,,,,,,,,f.PNG,f,5eb89eb4adb9350fb8fc895c,2021-09-08_19h56.20.859,forced_choiceRT,2021.1.2,MacIntel,59.97720866,,,,,,,,2,Ontime,f,1,1.9839,8,0,32,0,1,,,,,
,1.5,,,,,,,,,j.PNG,j,5eb89eb4adb9350fb8fc895c,2021-09-08_19h56.20.859,forced_choiceRT,2021.1.2,MacIntel,59.97720866,,,,,,,,2,Ontime,j,1,2.0349,8,1,33,3,1,,,,,
,0.08,,,,,,,,,g.PNG,g,5eb89eb4adb9350fb8fc895c,2021-09-08_19h56.20.859,forced_choiceRT,2021.1.2,MacIntel,59.97720866,,,,,,,,2,Ontime,g,1,1.9957,8,2,34,1,1,,,,,
,1.65,,,,,,,,,f.PNG,f,5eb89eb4adb9350fb8fc895c,2021-09-08_19h56.20.859,forced_choiceRT,2021.1.2,MacIntel,59.97720866,,,,,,,,2,Slow,h,0,2.1111,8,3,35,0,1,,,,,
,1.11,,,,,,,,,g.PNG,g,5eb89eb4adb9350fb8fc895c,2021-09-08_19h56.20.859,forced_choiceRT,2021.1.2,MacIntel,59.97720866,,,,,,,,2,Slow,g,1,2.1072,9,0,36,1,1,,,,,
,0.05,,,,,,,,,f.PNG,f,5eb89eb4adb9350fb8fc895c,2021-09-08_19h56.20.859,forced_choiceRT,2021.1.2,MacIntel,59.97720866,,,,,,,,2,Ontime,f,1,2.0128,9,1,37,0,1,,,,,
,1.68,,,,,,,,,j.PNG,j,5eb89eb4adb9350fb8fc895c,2021-09-08_19h56.20.859,forced_choiceRT,2021.1.2,MacIntel,59.97720866,,,,,,,,2,Slow,j,1,2.2403,9,2,38,3,1,,,,,
,0.47,,,,,,,,,g.PNG,g,5eb89eb4adb9350fb8fc895c,2021-09-08_19h56.20.859,forced_choiceRT,2021.1.2,MacIntel,59.97720866,,,,,,,,2,Ontime,g,1,1.9172,9,3,39,1,1,,,,,
,,,,,,,,,,,,5eb89eb4adb9350fb8fc895c,2021-09-08_19h56.20.859,forced_choiceRT,2021.1.2,MacIntel,59.97720866,,,,,,,,,,,,,,,,,,1,0,1,0,1
,1.79,,,,,,,,,f.PNG,f,5eb89eb4adb9350fb8fc895c,2021-09-08_19h56.20.859,forced_choiceRT,2021.1.2,MacIntel,59.97720866,,,,,,,,3,Slow,f,1,2.3588,0,0,0,0,1,,,,,
,1.24,,,,,,,,,h.PNG,h,5eb89eb4adb9350fb8fc895c,2021-09-08_19h56.20.859,forced_choiceRT,2021.1.2,MacIntel,59.97720866,,,,,,,,3,Ontime,h,1,1.9889,0,1,1,2,1,,,,,
,1.98,,,,,,,,,f.PNG,f,5eb89eb4adb9350fb8fc895c,2021-09-08_19h56.20.859,forced_choiceRT,2021.1.2,MacIntel,59.97720866,,,,,,,,3,Slow,f,1,3.1,0,2,2,0,1,,,,,
,0.97,,,,,,,,,j.PNG,j,5eb89eb4adb9350fb8fc895c,2021-09-08_19h56.20.859,forced_choiceRT,2021.1.2,MacIntel,59.97720866,,,,,,,,3,Ontime,j,1,2.0514,0,3,3,3,1,,,,,
,1.46,,,,,,,,,g.PNG,g,5eb89eb4adb9350fb8fc895c,2021-09-08_19h56.20.859,forced_choiceRT,2021.1.2,MacIntel,59.97720866,,,,,,,,3,Slow,g,1,2.1699,1,0,4,1,1,,,,,
,1.5,,,,,,,,,j.PNG,j,5eb89eb4adb9350fb8fc895c,2021-09-08_19h56.20.859,forced_choiceRT,2021.1.2,MacIntel,59.97720866,,,,,,,,3,Slow,j,1,2.1304,1,1,5,3,1,,,,,
,0.43,,,,,,,,,f.PNG,f,5eb89eb4adb9350fb8fc895c,2021-09-08_19h56.20.859,forced_choiceRT,2021.1.2,MacIntel,59.97720866,,,,,,,,3,Ontime,f,1,1.979,1,2,6,0,1,,,,,
,0.77,,,,,,,,,f.PNG,f,5eb89eb4adb9350fb8fc895c,2021-09-08_19h56.20.859,forced_choiceRT,2021.1.2,MacIntel,59.97720866,,,,,,,,3,Ontime,f,1,1.985,1,3,7,0,1,,,,,
,1.47,,,,,,,,,j.PNG,j,5eb89eb4adb9350fb8fc895c,2021-09-08_19h56.20.859,forced_choiceRT,2021.1.2,MacIntel,59.97720866,,,,,,,,3,Ontime,j,1,1.9334,2,0,8,3,1,,,,,
,1.97,,,,,,,,,g.PNG,g,5eb89eb4adb9350fb8fc895c,2021-09-08_19h56.20.859,forced_choiceRT,2021.1.2,MacIntel,59.97720866,,,,,,,,3,Slow,g,1,3.3311,2,1,9,1,1,,,,,
,0.53,,,,,,,,,h.PNG,h,5eb89eb4adb9350fb8fc895c,2021-09-08_19h56.20.859,forced_choiceRT,2021.1.2,MacIntel,59.97720866,,,,,,,,3,Ontime,h,1,2.031,2,2,10,2,1,,,,,
,0.18,,,,,,,,,j.PNG,j,5eb89eb4adb9350fb8fc895c,2021-09-08_19h56.20.859,forced_choiceRT,2021.1.2,MacIntel,59.97720866,,,,,,,,3,Ontime,j,1,2.018,2,3,11,3,1,,,,,
,0.47,,,,,,,,,j.PNG,j,5eb89eb4adb9350fb8fc895c,2021-09-08_19h56.20.859,forced_choiceRT,2021.1.2,MacIntel,59.97720866,,,,,,,,3,Ontime,j,1,1.9449,3,0,12,3,1,,,,,
,0.66,,,,,,,,,j.PNG,j,5eb89eb4adb9350fb8fc895c,2021-09-08_19h56.20.859,forced_choiceRT,2021.1.2,MacIntel,59.97720866,,,,,,,,3,Ontime,j,1,1.9849,3,1,13,3,1,,,,,
,0.83,,,,,,,,,f.PNG,f,5eb89eb4adb9350fb8fc895c,2021-09-08_19h56.20.859,forced_choiceRT,2021.1.2,MacIntel,59.97720866,,,,,,,,3,Ontime,f,1,1.9447,3,2,14,0,1,,,,,
,0.73,,,,,,,,,g.PNG,g,5eb89eb4adb9350fb8fc895c,2021-09-08_19h56.20.859,forced_choiceRT,2021.1.2,MacIntel,59.97720866,,,,,,,,3,Fast,g,1,1.7915,3,3,15,1,1,,,,,
,1.61,,,,,,,,,g.PNG,g,5eb89eb4adb9350fb8fc895c,2021-09-08_19h56.20.859,forced_choiceRT,2021.1.2,MacIntel,59.97720866,,,,,,,,3,Slow,g,1,2.2681,4,0,16,1,1,,,,,
,0.54,,,,,,,,,j.PNG,j,5eb89eb4adb9350fb8fc895c,2021-09-08_19h56.20.859,forced_choiceRT,2021.1.2,MacIntel,59.97720866,,,,,,,,3,Ontime,j,1,2.0275,4,1,17,3,1,,,,,
,0.5,,,,,,,,,f.PNG,f,5eb89eb4adb9350fb8fc895c,2021-09-08_19h56.20.859,forced_choiceRT,2021.1.2,MacIntel,59.97720866,,,,,,,,3,Ontime,f,1,1.9515,4,2,18,0,1,,,,,
,1.64,,,,,,,,,f.PNG,f,5eb89eb4adb9350fb8fc895c,2021-09-08_19h56.20.859,forced_choiceRT,2021.1.2,MacIntel,59.97720866,,,,,,,,3,Slow,h,0,2.194,4,3,19,0,1,,,,,
,0.23,,,,,,,,,h.PNG,h,5eb89eb4adb9350fb8fc895c,2021-09-08_19h56.20.859,forced_choiceRT,2021.1.2,MacIntel,59.97720866,,,,,,,,3,Fast,h,1,1.6919,5,0,20,2,1,,,,,
,0.56,,,,,,,,,h.PNG,h,5eb89eb4adb9350fb8fc895c,2021-09-08_19h56.20.859,forced_choiceRT,2021.1.2,MacIntel,59.97720866,,,,,,,,3,Ontime,h,1,2.0221,5,1,21,2,1,,,,,
,0.09,,,,,,,,,g.PNG,g,5eb89eb4adb9350fb8fc895c,2021-09-08_19h56.20.859,forced_choiceRT,2021.1.2,MacIntel,59.97720866,,,,,,,,3,Ontime,g,1,2.0082,5,2,22,1,1,,,,,
,0.48,,,,,,,,,f.PNG,f,5eb89eb4adb9350fb8fc895c,2021-09-08_19h56.20.859,forced_choiceRT,2021.1.2,MacIntel,59.97720866,,,,,,,,3,Ontime,f,1,1.902,5,3,23,0,1,,,,,
,1.31,,,,,,,,,h.PNG,h,5eb89eb4adb9350fb8fc895c,2021-09-08_19h56.20.859,forced_choiceRT,2021.1.2,MacIntel,59.97720866,,,,,,,,3,Ontime,h,1,2.011,6,0,24,2,1,,,,,
,1.12,,,,,,,,,h.PNG,h,5eb89eb4adb9350fb8fc895c,2021-09-08_19h56.20.859,forced_choiceRT,2021.1.2,MacIntel,59.97720866,,,,,,,,3,Fast,h,1,1.8779,6,1,25,2,1,,,,,
,1.21,,,,,,,,,j.PNG,j,5eb89eb4adb9350fb8fc895c,2021-09-08_19h56.20.859,forced_choiceRT,2021.1.2,MacIntel,59.97720866,,,,,,,,3,Ontime,j,1,2.0516,6,2,26,3,1,,,,,
,1.43,,,,,,,,,h.PNG,h,5eb89eb4adb9350fb8fc895c,2021-09-08_19h56.20.859,forced_choiceRT,2021.1.2,MacIntel,59.97720866,,,,,,,,3,Ontime,h,1,2.0984,6,3,27,2,1,,,,,
,1.02,,,,,,,,,j.PNG,j,5eb89eb4adb9350fb8fc895c,2021-09-08_19h56.20.859,forced_choiceRT,2021.1.2,MacIntel,59.97720866,,,,,,,,3,Ontime,j,1,1.9181,7,0,28,3,1,,,,,
,1.73,,,,,,,,,g.PNG,g,5eb89eb4adb9350fb8fc895c,2021-09-08_19h56.20.859,forced_choiceRT,2021.1.2,MacIntel,59.97720866,,,,,,,,3,Slow,h,0,2.2136,7,1,29,1,1,,,,,
,0.24,,,,,,,,,h.PNG,h,5eb89eb4adb9350fb8fc895c,2021-09-08_19h56.20.859,forced_choiceRT,2021.1.2,MacIntel,59.97720866,,,,,,,,3,Ontime,h,1,2.0013,7,2,30,2,1,,,,,
,0.66,,,,,,,,,h.PNG,h,5eb89eb4adb9350fb8fc895c,2021-09-08_19h56.20.859,forced_choiceRT,2021.1.2,MacIntel,59.97720866,,,,,,,,3,Ontime,h,1,1.9343,7,3,31,2,1,,,,,
,1.98,,,,,,,,,f.PNG,f,5eb89eb4adb9350fb8fc895c,2021-09-08_19h56.20.859,forced_choiceRT,2021.1.2,MacIntel,59.97720866,,,,,,,,3,Slow,f,1,2.8532,8,0,32,0,1,,,,,
,0.11,,,,,,,,,h.PNG,h,5eb89eb4adb9350fb8fc895c,2021-09-08_19h56.20.859,forced_choiceRT,2021.1.2,MacIntel,59.97720866,,,,,,,,3,Ontime,h,1,1.934,8,1,33,2,1,,,,,
,0.57,,,,,,,,,g.PNG,g,5eb89eb4adb9350fb8fc895c,2021-09-08_19h56.20.859,forced_choiceRT,2021.1.2,MacIntel,59.97720866,,,,,,,,3,Ontime,g,1,1.9293,8,2,34,1,1,,,,,
,0.76,,,,,,,,,g.PNG,g,5eb89eb4adb9350fb8fc895c,2021-09-08_19h56.20.859,forced_choiceRT,2021.1.2,MacIntel,59.97720866,,,,,,,,3,Ontime,g,1,1.936,8,3,35,1,1,,,,,
,1.22,,,,,,,,,f.PNG,f,5eb89eb4adb9350fb8fc895c,2021-09-08_19h56.20.859,forced_choiceRT,2021.1.2,MacIntel,59.97720866,,,,,,,,3,Ontime,f,1,1.9508,9,0,36,0,1,,,,,
,1.08,,,,,,,,,j.PNG,j,5eb89eb4adb9350fb8fc895c,2021-09-08_19h56.20.859,forced_choiceRT,2021.1.2,MacIntel,59.97720866,,,,,,,,3,Ontime,j,1,1.9867,9,1,37,3,1,,,,,
,0.79,,,,,,,,,g.PNG,g,5eb89eb4adb9350fb8fc895c,2021-09-08_19h56.20.859,forced_choiceRT,2021.1.2,MacIntel,59.97720866,,,,,,,,3,Ontime,g,1,1.916,9,2,38,1,1,,,,,
,1.4,,,,,,,,,g.PNG,g,5eb89eb4adb9350fb8fc895c,2021-09-08_19h56.20.859,forced_choiceRT,2021.1.2,MacIntel,59.97720866,,,,,,,,3,Ontime,g,1,1.9774,9,3,39,1,1,,,,,
,,,,,,,,,,,,5eb89eb4adb9350fb8fc895c,2021-09-08_19h56.20.859,forced_choiceRT,2021.1.2,MacIntel,59.97720866,,,,,,,,,,,,,,,,,,2,0,2,0,1
,0.41,,,,,,,,,g.PNG,g,5eb89eb4adb9350fb8fc895c,2021-09-08_19h56.20.859,forced_choiceRT,2021.1.2,MacIntel,59.97720866,,,,,,,,4,Ontime,g,1,2.0311,0,0,0,1,1,,,,,
,0.86,,,,,,,,,h.PNG,h,5eb89eb4adb9350fb8fc895c,2021-09-08_19h56.20.859,forced_choiceRT,2021.1.2,MacIntel,59.97720866,,,,,,,,4,Ontime,h,1,1.9607,0,1,1,2,1,,,,,
,0.51,,,,,,,,,h.PNG,h,5eb89eb4adb9350fb8fc895c,2021-09-08_19h56.20.859,forced_choiceRT,2021.1.2,MacIntel,59.97720866,,,,,,,,4,Ontime,h,1,1.9985,0,2,2,2,1,,,,,
,0.36,,,,,,,,,j.PNG,j,5eb89eb4adb9350fb8fc895c,2021-09-08_19h56.20.859,forced_choiceRT,2021.1.2,MacIntel,59.97720866,,,,,,,,4,Ontime,j,1,1.9797,0,3,3,3,1,,,,,
,0.02,,,,,,,,,h.PNG,h,5eb89eb4adb9350fb8fc895c,2021-09-08_19h56.20.859,forced_choiceRT,2021.1.2,MacIntel,59.97720866,,,,,,,,4,Ontime,h,1,2.0239,1,0,4,2,1,,,,,
,1.89,,,,,,,,,j.PNG,j,5eb89eb4adb9350fb8fc895c,2021-09-08_19h56.20.859,forced_choiceRT,2021.1.2,MacIntel,59.97720866,,,,,,,,4,Slow,h,0,2.3179,1,1,5,3,1,,,,,
,1.16,,,,,,,,,j.PNG,j,5eb89eb4adb9350fb8fc895c,2021-09-08_19h56.20.859,forced_choiceRT,2021.1.2,MacIntel,59.97720866,,,,,,,,4,Ontime,j,1,2.0384,1,2,6,3,1,,,,,
,0.1,,,,,,,,,h.PNG,h,5eb89eb4adb9350fb8fc895c,2021-09-08_19h56.20.859,forced_choiceRT,2021.1.2,MacIntel,59.97720866,,,,,,,,4,Ontime,h,1,1.9968,1,3,7,2,1,,,,,
,0.64,,,,,,,,,f.PNG,f,5eb89eb4adb9350fb8fc895c,2021-09-08_19h56.20.859,forced_choiceRT,2021.1.2,MacIntel,59.97720866,,,,,,,,4,Ontime,f,1,1.9283,2,0,8,0,1,,,,,
,0.31,,,,,,,,,g.PNG,g,5eb89eb4adb9350fb8fc895c,2021-09-08_19h56.20.859,forced_choiceRT,2021.1.2,MacIntel,59.97720866,,,,,,,,4,Ontime,g,1,1.9605,2,1,9,1,1,,,,,
,1.5,,,,,,,,,h.PNG,h,5eb89eb4adb9350fb8fc895c,2021-09-08_19h56.20.859,forced_choiceRT,2021.1.2,MacIntel,59.97720866,,,,,,,,4,Ontime,g,0,2.0473,2,2,10,2,1,,,,,
,1.14,,,,,,,,,f.PNG,f,5eb89eb4adb9350fb8fc895c,2021-09-08_19h56.20.859,forced_choiceRT,2021.1.2,MacIntel,59.97720866,,,,,,,,4,Fast,f,1,1.8961,2,3,11,0,1,,,,,
,1.07,,,,,,,,,j.PNG,j,5eb89eb4adb9350fb8fc895c,2021-09-08_19h56.20.859,forced_choiceRT,2021.1.2,MacIntel,59.97720866,,,,,,,,4,Ontime,j,1,2.0017,3,0,12,3,1,,,,,
,0.75,,,,,,,,,f.PNG,f,5eb89eb4adb9350fb8fc895c,2021-09-08_19h56.20.859,forced_choiceRT,2021.1.2,MacIntel,59.97720866,,,,,,,,4,Ontime,f,1,1.9441,3,1,13,0,1,,,,,
,0,,,,,,,,,j.PNG,j,5eb89eb4adb9350fb8fc895c,2021-09-08_19h56.20.859,forced_choiceRT,2021.1.2,MacIntel,59.97720866,,,,,,,,4,Ontime,j,1,2.018,3,2,14,3,1,,,,,
,1.14,,,,,,,,,f.PNG,f,5eb89eb4adb9350fb8fc895c,2021-09-08_19h56.20.859,forced_choiceRT,2021.1.2,MacIntel,59.97720866,,,,,,,,4,Fast,f,1,1.7174,3,3,15,0,1,,,,,
,1.47,,,,,,,,,f.PNG,f,5eb89eb4adb9350fb8fc895c,2021-09-08_19h56.20.859,forced_choiceRT,2021.1.2,MacIntel,59.97720866,,,,,,,,4,Ontime,f,1,2.0463,4,0,16,0,1,,,,,
,1.26,,,,,,,,,g.PNG,g,5eb89eb4adb9350fb8fc895c,2021-09-08_19h56.20.859,forced_choiceRT,2021.1.2,MacIntel,59.97720866,,,,,,,,4,Ontime,g,1,2.0294,4,1,17,1,1,,,,,
,1.2,,,,,,,,,j.PNG,j,5eb89eb4adb9350fb8fc895c,2021-09-08_19h56.20.859,forced_choiceRT,2021.1.2,MacIntel,59.97720866,,,,,,,,4,Ontime,j,1,2.0779,4,2,18,3,1,,,,,
,0.72,,,,,,,,,f.PNG,f,5eb89eb4adb9350fb8fc895c,2021-09-08_19h56.20.859,forced_choiceRT,2021.1.2,MacIntel,59.97720866,,,,,,,,4,Ontime,f,1,1.9632,4,3,19,0,1,,,,,
,1.43,,,,,,,,,h.PNG,h,5eb89eb4adb9350fb8fc895c,2021-09-08_19h56.20.859,forced_choiceRT,2021.1.2,MacIntel,59.97720866,,,,,,,,4,Ontime,h,1,2.084,5,0,20,2,1,,,,,
,1.6,,,,,,,,,j.PNG,j,5eb89eb4adb9350fb8fc895c,2021-09-08_19h56.20.859,forced_choiceRT,2021.1.2,MacIntel,59.97720866,,,,,,,,4,Slow,j,1,2.2,5,1,21,3,1,,,,,
,0.89,,,,,,,,,h.PNG,h,5eb89eb4adb9350fb8fc895c,2021-09-08_19h56.20.859,forced_choiceRT,2021.1.2,MacIntel,59.97720866,,,,,,,,4,Ontime,h,1,2.0275,5,2,22,2,1,,,,,
,0.84,,,,,,,,,g.PNG,g,5eb89eb4adb9350fb8fc895c,2021-09-08_19h56.20.859,forced_choiceRT,2021.1.2,MacIntel,59.97720866,,,,,,,,4,Ontime,g,1,2.0784,5,3,23,1,1,,,,,
,0.97,,,,,,,,,f.PNG,f,5eb89eb4adb9350fb8fc895c,2021-09-08_19h56.20.859,forced_choiceRT,2021.1.2,MacIntel,59.97720866,,,,,,,,4,Ontime,f,1,1.9952,6,0,24,0,1,,,,,
,0.48,,,,,,,,,g.PNG,g,5eb89eb4adb9350fb8fc895c,2021-09-08_19h56.20.859,forced_choiceRT,2021.1.2,MacIntel,59.97720866,,,,,,,,4,Ontime,g,1,2.0131,6,1,25,1,1,,,,,
,1.62,,,,,,,,,j.PNG,j,5eb89eb4adb9350fb8fc895c,2021-09-08_19h56.20.859,forced_choiceRT,2021.1.2,MacIntel,59.97720866,,,,,,,,4,Slow,j,1,2.1517,6,2,26,3,1,,,,,
,0.53,,,,,,,,,f.PNG,f,5eb89eb4adb9350fb8fc895c,2021-09-08_19h56.20.859,forced_choiceRT,2021.1.2,MacIntel,59.97720866,,,,,,,,4,Ontime,f,1,1.9873,6,3,27,0,1,,,,,
,1.18,,,,,,,,,g.PNG,g,5eb89eb4adb9350fb8fc895c,2021-09-08_19h56.20.859,forced_choiceRT,2021.1.2,MacIntel,59.97720866,,,,,,,,4,Ontime,g,1,2.0314,7,0,28,1,1,,,,,
,0.81,,,,,,,,,g.PNG,g,5eb89eb4adb9350fb8fc895c,2021-09-08_19h56.20.859,forced_choiceRT,2021.1.2,MacIntel,59.97720866,,,,,,,,4,Ontime,g,1,2.0533,7,1,29,1,1,,,,,
,1.75,,,,,,,,,f.PNG,f,5eb89eb4adb9350fb8fc895c,2021-09-08_19h56.20.859,forced_choiceRT,2021.1.2,MacIntel,59.97720866,,,,,,,,4,Slow,f,1,2.3186,7,2,30,0,1,,,,,
,0.05,,,,,,,,,j.PNG,j,5eb89eb4adb9350fb8fc895c,2021-09-08_19h56.20.859,forced_choiceRT,2021.1.2,MacIntel,59.97720866,,,,,,,,4,Ontime,j,1,2.0126,7,3,31,3,1,,,,,
,0.11,,,,,,,,,h.PNG,h,5eb89eb4adb9350fb8fc895c,2021-09-08_19h56.20.859,forced_choiceRT,2021.1.2,MacIntel,59.97720866,,,,,,,,4,Ontime,h,1,1.991,8,0,32,2,1,,,,,
,1.58,,,,,,,,,g.PNG,g,5eb89eb4adb9350fb8fc895c,2021-09-08_19h56.20.859,forced_choiceRT,2021.1.2,MacIntel,59.97720866,,,,,,,,4,Ontime,f,0,2.0352,8,1,33,1,1,,,,,
,0.81,,,,,,,,,h.PNG,h,5eb89eb4adb9350fb8fc895c,2021-09-08_19h56.20.859,forced_choiceRT,2021.1.2,MacIntel,59.97720866,,,,,,,,4,Ontime,h,1,1.9937,8,2,34,2,1,,,,,
,0.02,,,,,,,,,f.PNG,f,5eb89eb4adb9350fb8fc895c,2021-09-08_19h56.20.859,forced_choiceRT,2021.1.2,MacIntel,59.97720866,,,,,,,,4,Ontime,f,1,2.0444,8,3,35,0,1,,,,,
,1.58,,,,,,,,,g.PNG,g,5eb89eb4adb9350fb8fc895c,2021-09-08_19h56.20.859,forced_choiceRT,2021.1.2,MacIntel,59.97720866,,,,,,,,4,Slow,g,1,2.132,9,0,36,1,1,,,,,
,0.18,,,,,,,,,g.PNG,g,5eb89eb4adb9350fb8fc895c,2021-09-08_19h56.20.859,forced_choiceRT,2021.1.2,MacIntel,59.97720866,,,,,,,,4,Ontime,g,1,2.0648,9,1,37,1,1,,,,,
,0.59,,,,,,,,,j.PNG,j,5eb89eb4adb9350fb8fc895c,2021-09-08_19h56.20.859,forced_choiceRT,2021.1.2,MacIntel,59.97720866,,,,,,,,4,Ontime,j,1,1.9806,9,2,38,3,1,,,,,
,0.97,,,,,,,,,h.PNG,h,5eb89eb4adb9350fb8fc895c,2021-09-08_19h56.20.859,forced_choiceRT,2021.1.2,MacIntel,59.97720866,,,,,,,,4,Ontime,h,1,2.0128,9,3,39,2,1,,,,,
,,,,,,,,,,,,5eb89eb4adb9350fb8fc895c,2021-09-08_19h56.20.859,forced_choiceRT,2021.1.2,MacIntel,59.97720866,,,,,,,,,,,,,,,,,,3,0,3,0,1
,1.05,,,,,,,,,f.PNG,f,5eb89eb4adb9350fb8fc895c,2021-09-08_19h56.20.859,forced_choiceRT,2021.1.2,MacIntel,59.97720866,,,,,,,,5,Ontime,f,1,2.0086,0,0,0,0,1,,,,,
,0.94,,,,,,,,,h.PNG,h,5eb89eb4adb9350fb8fc895c,2021-09-08_19h56.20.859,forced_choiceRT,2021.1.2,MacIntel,59.97720866,,,,,,,,5,Fast,h,1,1.8956,0,1,1,2,1,,,,,
,1.14,,,,,,,,,g.PNG,g,5eb89eb4adb9350fb8fc895c,2021-09-08_19h56.20.859,forced_choiceRT,2021.1.2,MacIntel,59.97720866,,,,,,,,5,Ontime,g,1,2.0177,0,2,2,1,1,,,,,
,0.79,,,,,,,,,h.PNG,h,5eb89eb4adb9350fb8fc895c,2021-09-08_19h56.20.859,forced_choiceRT,2021.1.2,MacIntel,59.97720866,,,,,,,,5,Ontime,h,1,1.9783,0,3,3,2,1,,,,,
,0.67,,,,,,,,,j.PNG,j,5eb89eb4adb9350fb8fc895c,2021-09-08_19h56.20.859,forced_choiceRT,2021.1.2,MacIntel,59.97720866,,,,,,,,5,Ontime,j,1,1.9845,1,0,4,3,1,,,,,
,1.26,,,,,,,,,f.PNG,f,5eb89eb4adb9350fb8fc895c,2021-09-08_19h56.20.859,forced_choiceRT,2021.1.2,MacIntel,59.97720866,,,,,,,,5,Ontime,f,1,2.018,1,1,5,0,1,,,,,
,0.45,,,,,,,,,j.PNG,j,5eb89eb4adb9350fb8fc895c,2021-09-08_19h56.20.859,forced_choiceRT,2021.1.2,MacIntel,59.97720866,,,,,,,,5,Ontime,j,1,2.095,1,2,6,3,1,,,,,
,1.93,,,,,,,,,f.PNG,f,5eb89eb4adb9350fb8fc895c,2021-09-08_19h56.20.859,forced_choiceRT,2021.1.2,MacIntel,59.97720866,,,,,,,,5,Slow,f,1,2.7285,1,3,7,0,1,,,,,
,0.49,,,,,,,,,g.PNG,g,5eb89eb4adb9350fb8fc895c,2021-09-08_19h56.20.859,forced_choiceRT,2021.1.2,MacIntel,59.97720866,,,,,,,,5,Ontime,g,1,2.0307,2,0,8,1,1,,,,,
,1.7,,,,,,,,,h.PNG,h,5eb89eb4adb9350fb8fc895c,2021-09-08_19h56.20.859,forced_choiceRT,2021.1.2,MacIntel,59.97720866,,,,,,,,5,Slow,j,0,2.2316,2,1,9,2,1,,,,,
,1.7,,,,,,,,,f.PNG,f,5eb89eb4adb9350fb8fc895c,2021-09-08_19h56.20.859,forced_choiceRT,2021.1.2,MacIntel,59.97720866,,,,,,,,5,Slow,f,1,2.2476,2,2,10,0,1,,,,,
,0.71,,,,,,,,,j.PNG,j,5eb89eb4adb9350fb8fc895c,2021-09-08_19h56.20.859,forced_choiceRT,2021.1.2,MacIntel,59.97720866,,,,,,,,5,Slow,j,1,2.1336,2,3,11,3,1,,,,,
,0.17,,,,,,,,,f.PNG,f,5eb89eb4adb9350fb8fc895c,2021-09-08_19h56.20.859,forced_choiceRT,2021.1.2,MacIntel,59.97720866,,,,,,,,5,Ontime,f,1,1.9452,3,0,12,0,1,,,,,
,1.52,,,,,,,,,g.PNG,g,5eb89eb4adb9350fb8fc895c,2021-09-08_19h56.20.859,forced_choiceRT,2021.1.2,MacIntel,59.97720866,,,,,,,,5,Ontime,h,0,2.0854,3,1,13,1,1,,,,,
,1.93,,,,,,,,,f.PNG,f,5eb89eb4adb9350fb8fc895c,2021-09-08_19h56.20.859,forced_choiceRT,2021.1.2,MacIntel,59.97720866,,,,,,,,5,Slow,f,1,2.4667,3,2,14,0,1,,,,,
,0.24,,,,,,,,,g.PNG,g,5eb89eb4adb9350fb8fc895c,2021-09-08_19h56.20.859,forced_choiceRT,2021.1.2,MacIntel,59.97720866,,,,,,,,5,Ontime,g,1,2.0208,3,3,15,1,1,,,,,
,0.16,,,,,,,,,g.PNG,g,5eb89eb4adb9350fb8fc895c,2021-09-08_19h56.20.859,forced_choiceRT,2021.1.2,MacIntel,59.97720866,,,,,,,,5,Ontime,g,1,2.0135,4,0,16,1,1,,,,,
,0.67,,,,,,,,,g.PNG,g,5eb89eb4adb9350fb8fc895c,2021-09-08_19h56.20.859,forced_choiceRT,2021.1.2,MacIntel,59.97720866,,,,,,,,5,Ontime,g,1,1.9778,4,1,17,1,1,,,,,
,1.99,,,,,,,,,f.PNG,f,5eb89eb4adb9350fb8fc895c,2021-09-08_19h56.20.859,forced_choiceRT,2021.1.2,MacIntel,59.97720866,,,,,,,,5,Slow,f,1,2.3957,4,2,18,0,1,,,,,
,1.08,,,,,,,,,j.PNG,j,5eb89eb4adb9350fb8fc895c,2021-09-08_19h56.20.859,forced_choiceRT,2021.1.2,MacIntel,59.97720866,,,,,,,,5,Ontime,j,1,2.0025,4,3,19,3,1,,,,,
,0.62,,,,,,,,,g.PNG,g,5eb89eb4adb9350fb8fc895c,2021-09-08_19h56.20.859,forced_choiceRT,2021.1.2,MacIntel,59.97720866,,,,,,,,5,Ontime,g,1,2.0119,5,0,20,1,1,,,,,
,0.83,,,,,,,,,j.PNG,j,5eb89eb4adb9350fb8fc895c,2021-09-08_19h56.20.859,forced_choiceRT,2021.1.2,MacIntel,59.97720866,,,,,,,,5,Ontime,j,1,2.019,5,1,21,3,1,,,,,
,0.38,,,,,,,,,g.PNG,g,5eb89eb4adb9350fb8fc895c,2021-09-08_19h56.20.859,forced_choiceRT,2021.1.2,MacIntel,59.97720866,,,,,,,,5,Ontime,g,1,1.9997,5,2,22,1,1,,,,,
,0.67,,,,,,,,,h.PNG,h,5eb89eb4adb9350fb8fc895c,2021-09-08_19h56.20.859,forced_choiceRT,2021.1.2,MacIntel,59.97720866,,,,,,,,5,Ontime,h,1,2.0343,5,3,23,2,1,,,,,
,1.38,,,,,,,,,h.PNG,h,5eb89eb4adb9350fb8fc895c,2021-09-08_19h56.20.859,forced_choiceRT,2021.1.2,MacIntel,59.97720866,,,,,,,,5,Ontime,h,1,1.9347,6,0,24,2,1,,,,,
,0.06,,,,,,,,,g.PNG,g,5eb89eb4adb9350fb8fc895c,2021-09-08_19h56.20.859,forced_choiceRT,2021.1.2,MacIntel,59.97720866,,,,,,,,5,Ontime,g,1,2.0266,6,1,25,1,1,,,,,
,1.71,,,,,,,,,h.PNG,h,5eb89eb4adb9350fb8fc895c,2021-09-08_19h56.20.859,forced_choiceRT,2021.1.2,MacIntel,59.97720866,,,,,,,,5,Slow,h,1,2.2116,6,2,26,2,1,,,,,
,0.15,,,,,,,,,h.PNG,h,5eb89eb4adb9350fb8fc895c,2021-09-08_19h56.20.859,forced_choiceRT,2021.1.2,MacIntel,59.97720866,,,,,,,,5,Ontime,h,1,1.9686,6,3,27,2,1,,,,,
,1.71,,,,,,,,,j.PNG,j,5eb89eb4adb9350fb8fc895c,2021-09-08_19h56.20.859,forced_choiceRT,2021.1.2,MacIntel,59.97720866,,,,,,,,5,Slow,h,0,2.2786,7,0,28,3,1,,,,,
,0.08,,,,,,,,,j.PNG,j,5eb89eb4adb9350fb8fc895c,2021-09-08_19h56.20.859,forced_choiceRT,2021.1.2,MacIntel,59.97720866,,,,,,,,5,Ontime,j,1,2.0277,7,1,29,3,1,,,,,
,0.7,,,,,,,,,f.PNG,f,5eb89eb4adb9350fb8fc895c,2021-09-08_19h56.20.859,forced_choiceRT,2021.1.2,MacIntel,59.97720866,,,,,,,,5,Ontime,f,1,1.9451,7,2,30,0,1,,,,,
,0.16,,,,,,,,,h.PNG,h,5eb89eb4adb9350fb8fc895c,2021-09-08_19h56.20.859,forced_choiceRT,2021.1.2,MacIntel,59.97720866,,,,,,,,5,Ontime,h,1,1.9804,7,3,31,2,1,,,,,
,0.19,,,,,,,,,j.PNG,j,5eb89eb4adb9350fb8fc895c,2021-09-08_19h56.20.859,forced_choiceRT,2021.1.2,MacIntel,59.97720866,,,,,,,,5,Ontime,j,1,1.9192,8,0,32,3,1,,,,,
,0.91,,,,,,,,,h.PNG,h,5eb89eb4adb9350fb8fc895c,2021-09-08_19h56.20.859,forced_choiceRT,2021.1.2,MacIntel,59.97720866,,,,,,,,5,Ontime,h,1,1.9172,8,1,33,2,1,,,,,
,0.53,,,,,,,,,f.PNG,f,5eb89eb4adb9350fb8fc895c,2021-09-08_19h56.20.859,forced_choiceRT,2021.1.2,MacIntel,59.97720866,,,,,,,,5,Fast,f,1,1.8686,8,2,34,0,1,,,,,
,0.13,,,,,,,,,j.PNG,j,5eb89eb4adb9350fb8fc895c,2021-09-08_19h56.20.859,forced_choiceRT,2021.1.2,MacIntel,59.97720866,,,,,,,,5,Ontime,j,1,1.9458,8,3,35,3,1,,,,,
,1.84,,,,,,,,,g.PNG,g,5eb89eb4adb9350fb8fc895c,2021-09-08_19h56.20.859,forced_choiceRT,2021.1.2,MacIntel,59.97720866,,,,,,,,5,Slow,h,0,2.2967,9,0,36,1,1,,,,,
,1.98,,,,,,,,,h.PNG,h,5eb89eb4adb9350fb8fc895c,2021-09-08_19h56.20.859,forced_choiceRT,2021.1.2,MacIntel,59.97720866,,,,,,,,5,Slow,h,1,2.4695,9,1,37,2,1,,,,,
,0.52,,,,,,,,,j.PNG,j,5eb89eb4adb9350fb8fc895c,2021-09-08_19h56.20.859,forced_choiceRT,2021.1.2,MacIntel,59.97720866,,,,,,,,5,Ontime,j,1,2.0631,9,2,38,3,1,,,,,
,1.91,,,,,,,,,f.PNG,f,5eb89eb4adb9350fb8fc895c,2021-09-08_19h56.20.859,forced_choiceRT,2021.1.2,MacIntel,59.97720866,,,,,,,,5,Slow,f,1,2.4798,9,3,39,0,1,,,,,
,,,,,,,,,,,,5eb89eb4adb9350fb8fc895c,2021-09-08_19h56.20.859,forced_choiceRT,2021.1.2,MacIntel,59.97720866,,,,,,,,,,,,,,,,,,4,0,4,0,1
,1.11,,,,,,,,,h.PNG,h,5eb89eb4adb9350fb8fc895c,2021-09-08_19h56.20.859,forced_choiceRT,2021.1.2,MacIntel,59.97720866,,,,,,,,6,Slow,h,1,2.2086,0,0,0,2,1,,,,,
,0.1,,,,,,,,,j.PNG,j,5eb89eb4adb9350fb8fc895c,2021-09-08_19h56.20.859,forced_choiceRT,2021.1.2,MacIntel,59.97720866,,,,,,,,6,Ontime,j,1,1.9945,0,1,1,3,1,,,,,
,1.98,,,,,,,,,f.PNG,f,5eb89eb4adb9350fb8fc895c,2021-09-08_19h56.20.859,forced_choiceRT,2021.1.2,MacIntel,59.97720866,,,,,,,,6,Slow,g,0,2.3813,0,2,2,0,1,,,,,
,1.75,,,,,,,,,f.PNG,f,5eb89eb4adb9350fb8fc895c,2021-09-08_19h56.20.859,forced_choiceRT,2021.1.2,MacIntel,59.97720866,,,,,,,,6,Slow,g,0,2.2944,0,3,3,0,1,,,,,
,0.25,,,,,,,,,j.PNG,j,5eb89eb4adb9350fb8fc895c,2021-09-08_19h56.20.859,forced_choiceRT,2021.1.2,MacIntel,59.97720866,,,,,,,,6,Ontime,j,1,2.0331,1,0,4,3,1,,,,,
,1.45,,,,,,,,,f.PNG,f,5eb89eb4adb9350fb8fc895c,2021-09-08_19h56.20.859,forced_choiceRT,2021.1.2,MacIntel,59.97720866,,,,,,,,6,Ontime,f,1,1.9518,1,1,5,0,1,,,,,
,1.45,,,,,,,,,g.PNG,g,5eb89eb4adb9350fb8fc895c,2021-09-08_19h56.20.859,forced_choiceRT,2021.1.2,MacIntel,59.97720866,,,,,,,,6,Ontime,g,1,2.0179,1,2,6,1,1,,,,,
,0.44,,,,,,,,,j.PNG,j,5eb89eb4adb9350fb8fc895c,2021-09-08_19h56.20.859,forced_choiceRT,2021.1.2,MacIntel,59.97720866,,,,,,,,6,Ontime,j,1,1.9457,1,3,7,3,1,,,,,
,0.36,,,,,,,,,g.PNG,g,5eb89eb4adb9350fb8fc895c,2021-09-08_19h56.20.859,forced_choiceRT,2021.1.2,MacIntel,59.97720866,,,,,,,,6,Ontime,g,1,2.0451,2,0,8,1,1,,,,,
,1.84,,,,,,,,,g.PNG,g,5eb89eb4adb9350fb8fc895c,2021-09-08_19h56.20.859,forced_choiceRT,2021.1.2,MacIntel,59.97720866,,,,,,,,6,Slow,h,0,2.3446,2,1,9,1,1,,,,,
,1.6,,,,,,,,,h.PNG,h,5eb89eb4adb9350fb8fc895c,2021-09-08_19h56.20.859,forced_choiceRT,2021.1.2,MacIntel,59.97720866,,,,,,,,6,Slow,g,0,2.1845,2,2,10,2,1,,,,,
,1.74,,,,,,,,,g.PNG,g,5eb89eb4adb9350fb8fc895c,2021-09-08_19h56.20.859,forced_choiceRT,2021.1.2,MacIntel,59.97720866,,,,,,,,6,Slow,g,1,2.1789,2,3,11,1,1,,,,,
,1.62,,,,,,,,,h.PNG,h,5eb89eb4adb9350fb8fc895c,2021-09-08_19h56.20.859,forced_choiceRT,2021.1.2,MacIntel,59.97720866,,,,,,,,6,Slow,h,1,2.2007,3,0,12,2,1,,,,,
,0.84,,,,,,,,,f.PNG,f,5eb89eb4adb9350fb8fc895c,2021-09-08_19h56.20.859,forced_choiceRT,2021.1.2,MacIntel,59.97720866,,,,,,,,6,Ontime,f,1,1.9694,3,1,13,0,1,,,,,
,1.44,,,,,,,,,g.PNG,g,5eb89eb4adb9350fb8fc895c,2021-09-08_19h56.20.859,forced_choiceRT,2021.1.2,MacIntel,59.97720866,,,,,,,,6,Ontime,g,1,2.0432,3,2,14,1,1,,,,,
,0.65,,,,,,,,,g.PNG,g,5eb89eb4adb9350fb8fc895c,2021-09-08_19h56.20.859,forced_choiceRT,2021.1.2,MacIntel,59.97720866,,,,,,,,6,Ontime,g,1,2.0358,3,3,15,1,1,,,,,
,0.66,,,,,,,,,g.PNG,g,5eb89eb4adb9350fb8fc895c,2021-09-08_19h56.20.859,forced_choiceRT,2021.1.2,MacIntel,59.97720866,,,,,,,,6,Ontime,g,1,2.0514,4,0,16,1,1,,,,,
,0.68,,,,,,,,,j.PNG,j,5eb89eb4adb9350fb8fc895c,2021-09-08_19h56.20.859,forced_choiceRT,2021.1.2,MacIntel,59.97720866,,,,,,,,6,Ontime,j,1,1.962,4,1,17,3,1,,,,,
,0.83,,,,,,,,,f.PNG,f,5eb89eb4adb9350fb8fc895c,2021-09-08_19h56.20.859,forced_choiceRT,2021.1.2,MacIntel,59.97720866,,,,,,,,6,Ontime,f,1,1.9936,4,2,18,0,1,,,,,
,1.9,,,,,,,,,g.PNG,g,5eb89eb4adb9350fb8fc895c,2021-09-08_19h56.20.859,forced_choiceRT,2021.1.2,MacIntel,59.97720866,,,,,,,,6,Slow,h,0,2.2775,4,3,19,1,1,,,,,
,0.45,,,,,,,,,j.PNG,j,5eb89eb4adb9350fb8fc895c,2021-09-08_19h56.20.859,forced_choiceRT,2021.1.2,MacIntel,59.97720866,,,,,,,,6,Ontime,j,1,2.0184,5,0,20,3,1,,,,,
,1.68,,,,,,,,,j.PNG,j,5eb89eb4adb9350fb8fc895c,2021-09-08_19h56.20.859,forced_choiceRT,2021.1.2,MacIntel,59.97720866,,,,,,,,6,Slow,h,0,2.2291,5,1,21,3,1,,,,,
,1.24,,,,,,,,,j.PNG,j,5eb89eb4adb9350fb8fc895c,2021-09-08_19h56.20.859,forced_choiceRT,2021.1.2,MacIntel,59.97720866,,,,,,,,6,Ontime,j,1,2.0628,5,2,22,3,1,,,,,
,1.14,,,,,,,,,f.PNG,f,5eb89eb4adb9350fb8fc895c,2021-09-08_19h56.20.859,forced_choiceRT,2021.1.2,MacIntel,59.97720866,,,,,,,,6,Ontime,f,1,2.0843,5,3,23,0,1,,,,,
,1.24,,,,,,,,,h.PNG,h,5eb89eb4adb9350fb8fc895c,2021-09-08_19h56.20.859,forced_choiceRT,2021.1.2,MacIntel,59.97720866,,,,,,,,6,Ontime,h,1,2.0822,6,0,24,2,1,,,,,
,1.12,,,,,,,,,f.PNG,f,5eb89eb4adb9350fb8fc895c,2021-09-08_19h56.20.859,forced_choiceRT,2021.1.2,MacIntel,59.97720866,,,,,,,,6,Ontime,f,1,2.013,6,1,25,0,1,,,,,
,0.47,,,,,,,,,g.PNG,g,5eb89eb4adb9350fb8fc895c,2021-09-08_19h56.20.859,forced_choiceRT,2021.1.2,MacIntel,59.97720866,,,,,,,,6,Ontime,g,1,1.947,6,2,26,1,1,,,,,
,1.13,,,,,,,,,f.PNG,f,5eb89eb4adb9350fb8fc895c,2021-09-08_19h56.20.859,forced_choiceRT,2021.1.2,MacIntel,59.97720866,,,,,,,,6,Ontime,f,1,1.9502,6,3,27,0,1,,,,,
,0.73,,,,,,,,,h.PNG,h,5eb89eb4adb9350fb8fc895c,2021-09-08_19h56.20.859,forced_choiceRT,2021.1.2,MacIntel,59.97720866,,,,,,,,6,Ontime,h,1,2.0119,7,0,28,2,1,,,,,
,1.81,,,,,,,,,h.PNG,h,5eb89eb4adb9350fb8fc895c,2021-09-08_19h56.20.859,forced_choiceRT,2021.1.2,MacIntel,59.97720866,,,,,,,,6,Slow,h,1,2.2122,7,1,29,2,1,,,,,
,1.47,,,,,,,,,h.PNG,h,5eb89eb4adb9350fb8fc895c,2021-09-08_19h56.20.859,forced_choiceRT,2021.1.2,MacIntel,59.97720866,,,,,,,,6,Ontime,h,1,1.9951,7,2,30,2,1,,,,,
,0.57,,,,,,,,,g.PNG,g,5eb89eb4adb9350fb8fc895c,2021-09-08_19h56.20.859,forced_choiceRT,2021.1.2,MacIntel,59.97720866,,,,,,,,6,Ontime,g,1,2.0443,7,3,31,1,1,,,,,
,0.56,,,,,,,,,f.PNG,f,5eb89eb4adb9350fb8fc895c,2021-09-08_19h56.20.859,forced_choiceRT,2021.1.2,MacIntel,59.97720866,,,,,,,,6,Ontime,f,1,2.0341,8,0,32,0,1,,,,,
,0.28,,,,,,,,,f.PNG,f,5eb89eb4adb9350fb8fc895c,2021-09-08_19h56.20.859,forced_choiceRT,2021.1.2,MacIntel,59.97720866,,,,,,,,6,Ontime,f,1,2.0116,8,1,33,0,1,,,,,
,1.68,,,,,,,,,h.PNG,h,5eb89eb4adb9350fb8fc895c,2021-09-08_19h56.20.859,forced_choiceRT,2021.1.2,MacIntel,59.97720866,,,,,,,,6,Slow,h,1,2.1272,8,2,34,2,1,,,,,
,1.14,,,,,,,,,h.PNG,h,5eb89eb4adb9350fb8fc895c,2021-09-08_19h56.20.859,forced_choiceRT,2021.1.2,MacIntel,59.97720866,,,,,,,,6,Ontime,h,1,2.0454,8,3,35,2,1,,,,,
,0,,,,,,,,,j.PNG,j,5eb89eb4adb9350fb8fc895c,2021-09-08_19h56.20.859,forced_choiceRT,2021.1.2,MacIntel,59.97720866,,,,,,,,6,Ontime,j,1,2.032,9,0,36,3,1,,,,,
,1.46,,,,,,,,,j.PNG,j,5eb89eb4adb9350fb8fc895c,2021-09-08_19h56.20.859,forced_choiceRT,2021.1.2,MacIntel,59.97720866,,,,,,,,6,Ontime,j,1,2.0617,9,1,37,3,1,,,,,
,1.4,,,,,,,,,j.PNG,j,5eb89eb4adb9350fb8fc895c,2021-09-08_19h56.20.859,forced_choiceRT,2021.1.2,MacIntel,59.97720866,,,,,,,,6,Ontime,j,1,2.0524,9,2,38,3,1,,,,,
,1.28,,,,,,,,,h.PNG,h,5eb89eb4adb9350fb8fc895c,2021-09-08_19h56.20.859,forced_choiceRT,2021.1.2,MacIntel,59.97720866,,,,,,,,6,Ontime,h,1,2.0455,9,3,39,2,1,,,,,
,,,,,,,,,,,,5eb89eb4adb9350fb8fc895c,2021-09-08_19h56.20.859,forced_choiceRT,2021.1.2,MacIntel,59.97720866,,,,,,,,,,,,,,,,,,5,0,5,0,1
,1.63,,,,,,,,,h.PNG,h,5eb89eb4adb9350fb8fc895c,2021-09-08_19h56.20.859,forced_choiceRT,2021.1.2,MacIntel,59.97720866,,,,,,,,7,Slow,h,1,2.1472,0,0,0,2,1,,,,,
,1.1,,,,,,,,,g.PNG,g,5eb89eb4adb9350fb8fc895c,2021-09-08_19h56.20.859,forced_choiceRT,2021.1.2,MacIntel,59.97720866,,,,,,,,7,Slow,g,1,2.1013,0,1,1,1,1,,,,,
,1.67,,,,,,,,,j.PNG,j,5eb89eb4adb9350fb8fc895c,2021-09-08_19h56.20.859,forced_choiceRT,2021.1.2,MacIntel,59.97720866,,,,,,,,7,Ontime,f,0,2.097,0,2,2,3,1,,,,,
,0.36,,,,,,,,,h.PNG,h,5eb89eb4adb9350fb8fc895c,2021-09-08_19h56.20.859,forced_choiceRT,2021.1.2,MacIntel,59.97720866,,,,,,,,7,Ontime,h,1,1.9631,0,3,3,2,1,,,,,
,1.81,,,,,,,,,f.PNG,f,5eb89eb4adb9350fb8fc895c,2021-09-08_19h56.20.859,forced_choiceRT,2021.1.2,MacIntel,59.97720866,,,,,,,,7,Slow,h,0,2.1981,1,0,4,0,1,,,,,
,0.52,,,,,,,,,h.PNG,h,5eb89eb4adb9350fb8fc895c,2021-09-08_19h56.20.859,forced_choiceRT,2021.1.2,MacIntel,59.97720866,,,,,,,,7,Ontime,h,1,2.0307,1,1,5,2,1,,,,,
,1.16,,,,,,,,,j.PNG,j,5eb89eb4adb9350fb8fc895c,2021-09-08_19h56.20.859,forced_choiceRT,2021.1.2,MacIntel,59.97720866,,,,,,,,7,Ontime,j,1,2.0339,1,2,6,3,1,,,,,
,0.13,,,,,,,,,g.PNG,g,5eb89eb4adb9350fb8fc895c,2021-09-08_19h56.20.859,forced_choiceRT,2021.1.2,MacIntel,59.97720866,,,,,,,,7,Ontime,g,1,2.0182,1,3,7,1,1,,,,,
,1.89,,,,,,,,,h.PNG,h,5eb89eb4adb9350fb8fc895c,2021-09-08_19h56.20.859,forced_choiceRT,2021.1.2,MacIntel,59.97720866,,,,,,,,7,Slow,h,1,2.3988,2,0,8,2,1,,,,,
,0.5,,,,,,,,,g.PNG,g,5eb89eb4adb9350fb8fc895c,2021-09-08_19h56.20.859,forced_choiceRT,2021.1.2,MacIntel,59.97720866,,,,,,,,7,Ontime,g,1,2.0608,2,1,9,1,1,,,,,
,1.63,,,,,,,,,f.PNG,f,5eb89eb4adb9350fb8fc895c,2021-09-08_19h56.20.859,forced_choiceRT,2021.1.2,MacIntel,59.97720866,,,,,,,,7,Slow,h,0,2.152,2,2,10,0,1,,,,,
,0.22,,,,,,,,,h.PNG,h,5eb89eb4adb9350fb8fc895c,2021-09-08_19h56.20.859,forced_choiceRT,2021.1.2,MacIntel,59.97720866,,,,,,,,7,Ontime,h,1,2.045,2,3,11,2,1,,,,,
,0.37,,,,,,,,,h.PNG,h,5eb89eb4adb9350fb8fc895c,2021-09-08_19h56.20.859,forced_choiceRT,2021.1.2,MacIntel,59.97720866,,,,,,,,7,Ontime,h,1,1.9968,3,0,12,2,1,,,,,
,0.67,,,,,,,,,h.PNG,h,5eb89eb4adb9350fb8fc895c,2021-09-08_19h56.20.859,forced_choiceRT,2021.1.2,MacIntel,59.97720866,,,,,,,,7,Ontime,h,1,2.0144,3,1,13,2,1,,,,,
,1.11,,,,,,,,,j.PNG,j,5eb89eb4adb9350fb8fc895c,2021-09-08_19h56.20.859,forced_choiceRT,2021.1.2,MacIntel,59.97720866,,,,,,,,7,Ontime,j,1,2.0452,3,2,14,3,1,,,,,
,1.24,,,,,,,,,g.PNG,g,5eb89eb4adb9350fb8fc895c,2021-09-08_19h56.20.859,forced_choiceRT,2021.1.2,MacIntel,59.97720866,,,,,,,,7,Ontime,g,1,2.0126,3,3,15,1,1,,,,,
,0.7,,,,,,,,,h.PNG,h,5eb89eb4adb9350fb8fc895c,2021-09-08_19h56.20.859,forced_choiceRT,2021.1.2,MacIntel,59.97720866,,,,,,,,7,Ontime,h,1,2.0166,4,0,16,2,1,,,,,
,1.76,,,,,,,,,h.PNG,h,5eb89eb4adb9350fb8fc895c,2021-09-08_19h56.20.859,forced_choiceRT,2021.1.2,MacIntel,59.97720866,,,,,,,,7,Slow,g,0,2.2507,4,1,17,2,1,,,,,
,1.79,,,,,,,,,f.PNG,f,5eb89eb4adb9350fb8fc895c,2021-09-08_19h56.20.859,forced_choiceRT,2021.1.2,MacIntel,59.97720866,,,,,,,,7,Slow,j,0,2.2515,4,2,18,0,1,,,,,
,0.95,,,,,,,,,j.PNG,j,5eb89eb4adb9350fb8fc895c,2021-09-08_19h56.20.859,forced_choiceRT,2021.1.2,MacIntel,59.97720866,,,,,,,,7,Ontime,j,1,2.001,4,3,19,3,1,,,,,
,1.51,,,,,,,,,j.PNG,j,5eb89eb4adb9350fb8fc895c,2021-09-08_19h56.20.859,forced_choiceRT,2021.1.2,MacIntel,59.97720866,,,,,,,,7,Ontime,j,1,2.0602,5,0,20,3,1,,,,,
,1.76,,,,,,,,,f.PNG,f,5eb89eb4adb9350fb8fc895c,2021-09-08_19h56.20.859,forced_choiceRT,2021.1.2,MacIntel,59.97720866,,,,,,,,7,Slow,f,1,2.2668,5,1,21,0,1,,,,,
,1.8,,,,,,,,,g.PNG,g,5eb89eb4adb9350fb8fc895c,2021-09-08_19h56.20.859,forced_choiceRT,2021.1.2,MacIntel,59.97720866,,,,,,,,7,Slow,j,0,2.2009,5,2,22,1,1,,,,,
,1.91,,,,,,,,,j.PNG,j,5eb89eb4adb9350fb8fc895c,2021-09-08_19h56.20.859,forced_choiceRT,2021.1.2,MacIntel,59.97720866,,,,,,,,7,Slow,j,1,2.3793,5,3,23,3,1,,,,,
,1.85,,,,,,,,,j.PNG,j,5eb89eb4adb9350fb8fc895c,2021-09-08_19h56.20.859,forced_choiceRT,2021.1.2,MacIntel,59.97720866,,,,,,,,7,Slow,j,1,2.2832,6,0,24,3,1,,,,,
,1.7,,,,,,,,,f.PNG,f,5eb89eb4adb9350fb8fc895c,2021-09-08_19h56.20.859,forced_choiceRT,2021.1.2,MacIntel,59.97720866,,,,,,,,7,Slow,g,0,2.2344,6,1,25,0,1,,,,,
,0.48,,,,,,,,,f.PNG,f,5eb89eb4adb9350fb8fc895c,2021-09-08_19h56.20.859,forced_choiceRT,2021.1.2,MacIntel,59.97720866,,,,,,,,7,Ontime,f,1,1.9781,6,2,26,0,1,,,,,
,1.28,,,,,,,,,g.PNG,g,5eb89eb4adb9350fb8fc895c,2021-09-08_19h56.20.859,forced_choiceRT,2021.1.2,MacIntel,59.97720866,,,,,,,,7,Ontime,g,1,1.9601,6,3,27,1,1,,,,,
,0.7,,,,,,,,,j.PNG,j,5eb89eb4adb9350fb8fc895c,2021-09-08_19h56.20.859,forced_choiceRT,2021.1.2,MacIntel,59.97720866,,,,,,,,7,Ontime,j,1,2.0672,7,0,28,3,1,,,,,
,0.73,,,,,,,,,g.PNG,g,5eb89eb4adb9350fb8fc895c,2021-09-08_19h56.20.859,forced_choiceRT,2021.1.2,MacIntel,59.97720866,,,,,,,,7,Ontime,g,1,2.0171,7,1,29,1,1,,,,,
,0.19,,,,,,,,,f.PNG,f,5eb89eb4adb9350fb8fc895c,2021-09-08_19h56.20.859,forced_choiceRT,2021.1.2,MacIntel,59.97720866,,,,,,,,7,Ontime,f,1,1.9944,7,2,30,0,1,,,,,
,0.83,,,,,,,,,f.PNG,f,5eb89eb4adb9350fb8fc895c,2021-09-08_19h56.20.859,forced_choiceRT,2021.1.2,MacIntel,59.97720866,,,,,,,,7,Ontime,f,1,2.0277,7,3,31,0,1,,,,,
,1.54,,,,,,,,,f.PNG,f,5eb89eb4adb9350fb8fc895c,2021-09-08_19h56.20.859,forced_choiceRT,2021.1.2,MacIntel,59.97720866,,,,,,,,7,Ontime,f,1,2.0954,8,0,32,0,1,,,,,
,1.5,,,,,,,,,g.PNG,g,5eb89eb4adb9350fb8fc895c,2021-09-08_19h56.20.859,forced_choiceRT,2021.1.2,MacIntel,59.97720866,,,,,,,,7,Ontime,g,1,2.099,8,1,33,1,1,,,,,
,0.36,,,,,,,,,f.PNG,f,5eb89eb4adb9350fb8fc895c,2021-09-08_19h56.20.859,forced_choiceRT,2021.1.2,MacIntel,59.97720866,,,,,,,,7,Ontime,f,1,2.045,8,2,34,0,1,,,,,
,0.1,,,,,,,,,j.PNG,j,5eb89eb4adb9350fb8fc895c,2021-09-08_19h56.20.859,forced_choiceRT,2021.1.2,MacIntel,59.97720866,,,,,,,,7,Ontime,j,1,2.0344,8,3,35,3,1,,,,,
,0.12,,,,,,,,,j.PNG,j,5eb89eb4adb9350fb8fc895c,2021-09-08_19h56.20.859,forced_choiceRT,2021.1.2,MacIntel,59.97720866,,,,,,,,7,Ontime,j,1,2.017,9,0,36,3,1,,,,,
,0.79,,,,,,,,,g.PNG,g,5eb89eb4adb9350fb8fc895c,2021-09-08_19h56.20.859,forced_choiceRT,2021.1.2,MacIntel,59.97720866,,,,,,,,7,Ontime,g,1,2.0099,9,1,37,1,1,,,,,
,0.21,,,,,,,,,g.PNG,g,5eb89eb4adb9350fb8fc895c,2021-09-08_19h56.20.859,forced_choiceRT,2021.1.2,MacIntel,59.97720866,,,,,,,,7,Ontime,g,1,2.0099,9,2,38,1,1,,,,,
,1.61,,,,,,,,,h.PNG,h,5eb89eb4adb9350fb8fc895c,2021-09-08_19h56.20.859,forced_choiceRT,2021.1.2,MacIntel,59.97720866,,,,,,,,7,Slow,h,1,2.1957,9,3,39,2,1,,,,,
,,,,,,,,,,,,5eb89eb4adb9350fb8fc895c,2021-09-08_19h56.20.859,forced_choiceRT,2021.1.2,MacIntel,59.97720866,,,,,,,,,,,,,,,,,,6,0,6,0,1
,1.84,,,,,,,,,j.PNG,j,5eb89eb4adb9350fb8fc895c,2021-09-08_19h56.20.859,forced_choiceRT,2021.1.2,MacIntel,59.97720866,,,,,,,,8,Slow,j,1,2.2931,0,0,0,3,1,,,,,
,1.93,,,,,,,,,g.PNG,g,5eb89eb4adb9350fb8fc895c,2021-09-08_19h56.20.859,forced_choiceRT,2021.1.2,MacIntel,59.97720866,,,,,,,,8,Slow,f,0,2.3152,0,1,1,1,1,,,,,
,0.83,,,,,,,,,h.PNG,h,5eb89eb4adb9350fb8fc895c,2021-09-08_19h56.20.859,forced_choiceRT,2021.1.2,MacIntel,59.97720866,,,,,,,,8,Ontime,h,1,1.9846,0,2,2,2,1,,,,,
,0.52,,,,,,,,,j.PNG,j,5eb89eb4adb9350fb8fc895c,2021-09-08_19h56.20.859,forced_choiceRT,2021.1.2,MacIntel,59.97720866,,,,,,,,8,Ontime,j,1,2.0787,0,3,3,3,1,,,,,
,0.79,,,,,,,,,h.PNG,h,5eb89eb4adb9350fb8fc895c,2021-09-08_19h56.20.859,forced_choiceRT,2021.1.2,MacIntel,59.97720866,,,,,,,,8,Ontime,h,1,2.0601,1,0,4,2,1,,,,,
,1.22,,,,,,,,,g.PNG,g,5eb89eb4adb9350fb8fc895c,2021-09-08_19h56.20.859,forced_choiceRT,2021.1.2,MacIntel,59.97720866,,,,,,,,8,Ontime,g,1,2.0142,1,1,5,1,1,,,,,
,1.34,,,,,,,,,j.PNG,j,5eb89eb4adb9350fb8fc895c,2021-09-08_19h56.20.859,forced_choiceRT,2021.1.2,MacIntel,59.97720866,,,,,,,,8,Ontime,j,1,1.9977,1,2,6,3,1,,,,,
,1.57,,,,,,,,,g.PNG,g,5eb89eb4adb9350fb8fc895c,2021-09-08_19h56.20.859,forced_choiceRT,2021.1.2,MacIntel,59.97720866,,,,,,,,8,Slow,g,1,2.1132,1,3,7,1,1,,,,,
,1.77,,,,,,,,,f.PNG,f,5eb89eb4adb9350fb8fc895c,2021-09-08_19h56.20.859,forced_choiceRT,2021.1.2,MacIntel,59.97720866,,,,,,,,8,Slow,j,0,2.1613,2,0,8,0,1,,,,,
,1.67,,,,,,,,,j.PNG,j,5eb89eb4adb9350fb8fc895c,2021-09-08_19h56.20.859,forced_choiceRT,2021.1.2,MacIntel,59.97720866,,,,,,,,8,Slow,j,1,2.1614,2,1,9,3,1,,,,,
,1.16,,,,,,,,,h.PNG,h,5eb89eb4adb9350fb8fc895c,2021-09-08_19h56.20.859,forced_choiceRT,2021.1.2,MacIntel,59.97720866,,,,,,,,8,Ontime,h,1,2.0454,2,2,10,2,1,,,,,
,1.38,,,,,,,,,f.PNG,f,5eb89eb4adb9350fb8fc895c,2021-09-08_19h56.20.859,forced_choiceRT,2021.1.2,MacIntel,59.97720866,,,,,,,,8,Ontime,f,1,2.0335,2,3,11,0,1,,,,,
,1.62,,,,,,,,,h.PNG,h,5eb89eb4adb9350fb8fc895c,2021-09-08_19h56.20.859,forced_choiceRT,2021.1.2,MacIntel,59.97720866,,,,,,,,8,Slow,h,1,2.1515,3,0,12,2,1,,,,,
,0.08,,,,,,,,,f.PNG,f,5eb89eb4adb9350fb8fc895c,2021-09-08_19h56.20.859,forced_choiceRT,2021.1.2,MacIntel,59.97720866,,,,,,,,8,Ontime,f,1,1.9672,3,1,13,0,1,,,,,
,0.01,,,,,,,,,f.PNG,f,5eb89eb4adb9350fb8fc895c,2021-09-08_19h56.20.859,forced_choiceRT,2021.1.2,MacIntel,59.97720866,,,,,,,,8,Ontime,f,1,2.0285,3,2,14,0,1,,,,,
,1.51,,,,,,,,,g.PNG,g,5eb89eb4adb9350fb8fc895c,2021-09-08_19h56.20.859,forced_choiceRT,2021.1.2,MacIntel,59.97720866,,,,,,,,8,Slow,h,0,2.1276,3,3,15,1,1,,,,,
,0.81,,,,,,,,,g.PNG,g,5eb89eb4adb9350fb8fc895c,2021-09-08_19h56.20.859,forced_choiceRT,2021.1.2,MacIntel,59.97720866,,,,,,,,8,Ontime,g,1,2.0111,4,0,16,1,1,,,,,
,0.87,,,,,,,,,g.PNG,g,5eb89eb4adb9350fb8fc895c,2021-09-08_19h56.20.859,forced_choiceRT,2021.1.2,MacIntel,59.97720866,,,,,,,,8,Ontime,g,1,2.0329,4,1,17,1,1,,,,,
,1.13,,,,,,,,,h.PNG,h,5eb89eb4adb9350fb8fc895c,2021-09-08_19h56.20.859,forced_choiceRT,2021.1.2,MacIntel,59.97720866,,,,,,,,8,Ontime,h,1,2.026,4,2,18,2,1,,,,,
,1.53,,,,,,,,,h.PNG,h,5eb89eb4adb9350fb8fc895c,2021-09-08_19h56.20.859,forced_choiceRT,2021.1.2,MacIntel,59.97720866,,,,,,,,8,Slow,h,1,2.1102,4,3,19,2,1,,,,,
,1.13,,,,,,,,,j.PNG,j,5eb89eb4adb9350fb8fc895c,2021-09-08_19h56.20.859,forced_choiceRT,2021.1.2,MacIntel,59.97720866,,,,,,,,8,Ontime,j,1,2.0119,5,0,20,3,1,,,,,
,0.17,,,,,,,,,g.PNG,g,5eb89eb4adb9350fb8fc895c,2021-09-08_19h56.20.859,forced_choiceRT,2021.1.2,MacIntel,59.97720866,,,,,,,,8,Ontime,g,1,2.0434,5,1,21,1,1,,,,,
,0.72,,,,,,,,,f.PNG,f,5eb89eb4adb9350fb8fc895c,2021-09-08_19h56.20.859,forced_choiceRT,2021.1.2,MacIntel,59.97720866,,,,,,,,8,Ontime,f,1,1.9838,5,2,22,0,1,,,,,
,0.54,,,,,,,,,j.PNG,j,5eb89eb4adb9350fb8fc895c,2021-09-08_19h56.20.859,forced_choiceRT,2021.1.2,MacIntel,59.97720866,,,,,,,,8,Ontime,j,1,1.994,5,3,23,3,1,,,,,
,1.63,,,,,,,,,h.PNG,h,5eb89eb4adb9350fb8fc895c,2021-09-08_19h56.20.859,forced_choiceRT,2021.1.2,MacIntel,59.97720866,,,,,,,,8,Slow,f,0,2.1118,6,0,24,2,1,,,,,
,0.07,,,,,,,,,f.PNG,f,5eb89eb4adb9350fb8fc895c,2021-09-08_19h56.20.859,forced_choiceRT,2021.1.2,MacIntel,59.97720866,,,,,,,,8,Ontime,f,1,2.0113,6,1,25,0,1,,,,,
,0.75,,,,,,,,,j.PNG,j,5eb89eb4adb9350fb8fc895c,2021-09-08_19h56.20.859,forced_choiceRT,2021.1.2,MacIntel,59.97720866,,,,,,,,8,Ontime,j,1,2.0009,6,2,26,3,1,,,,,
,0.55,,,,,,,,,h.PNG,h,5eb89eb4adb9350fb8fc895c,2021-09-08_19h56.20.859,forced_choiceRT,2021.1.2,MacIntel,59.97720866,,,,,,,,8,Ontime,h,1,1.9819,6,3,27,2,1,,,,,
,0.2,,,,,,,,,f.PNG,f,5eb89eb4adb9350fb8fc895c,2021-09-08_19h56.20.859,forced_choiceRT,2021.1.2,MacIntel,59.97720866,,,,,,,,8,Ontime,f,1,2.0326,7,0,28,0,1,,,,,
,1.94,,,,,,,,,j.PNG,j,5eb89eb4adb9350fb8fc895c,2021-09-08_19h56.20.859,forced_choiceRT,2021.1.2,MacIntel,59.97720866,,,,,,,,8,Slow,j,1,2.3095,7,1,29,3,1,,,,,
,1.76,,,,,,,,,f.PNG,f,5eb89eb4adb9350fb8fc895c,2021-09-08_19h56.20.859,forced_choiceRT,2021.1.2,MacIntel,59.97720866,,,,,,,,8,Slow,h,0,2.1801,7,2,30,0,1,,,,,
,1.32,,,,,,,,,g.PNG,g,5eb89eb4adb9350fb8fc895c,2021-09-08_19h56.20.859,forced_choiceRT,2021.1.2,MacIntel,59.97720866,,,,,,,,8,Ontime,g,1,2.0306,7,3,31,1,1,,,,,
,0.32,,,,,,,,,h.PNG,h,5eb89eb4adb9350fb8fc895c,2021-09-08_19h56.20.859,forced_choiceRT,2021.1.2,MacIntel,59.97720866,,,,,,,,8,Slow,h,1,2.1003,8,0,32,2,1,,,,,
,0,,,,,,,,,g.PNG,g,5eb89eb4adb9350fb8fc895c,2021-09-08_19h56.20.859,forced_choiceRT,2021.1.2,MacIntel,59.97720866,,,,,,,,8,Ontime,g,1,2.0288,8,1,33,1,1,,,,,
,1.58,,,,,,,,,g.PNG,g,5eb89eb4adb9350fb8fc895c,2021-09-08_19h56.20.859,forced_choiceRT,2021.1.2,MacIntel,59.97720866,,,,,,,,8,Ontime,h,0,2.1,8,2,34,1,1,,,,,
,0.41,,,,,,,,,f.PNG,f,5eb89eb4adb9350fb8fc895c,2021-09-08_19h56.20.859,forced_choiceRT,2021.1.2,MacIntel,59.97720866,,,,,,,,8,Ontime,f,1,2.0148,8,3,35,0,1,,,,,
,0.6,,,,,,,,,j.PNG,j,5eb89eb4adb9350fb8fc895c,2021-09-08_19h56.20.859,forced_choiceRT,2021.1.2,MacIntel,59.97720866,,,,,,,,8,Ontime,j,1,2.0657,9,0,36,3,1,,,,,
,1.57,,,,,,,,,j.PNG,j,5eb89eb4adb9350fb8fc895c,2021-09-08_19h56.20.859,forced_choiceRT,2021.1.2,MacIntel,59.97720866,,,,,,,,8,Ontime,h,0,2.086,9,1,37,3,1,,,,,
,0.73,,,,,,,,,f.PNG,f,5eb89eb4adb9350fb8fc895c,2021-09-08_19h56.20.859,forced_choiceRT,2021.1.2,MacIntel,59.97720866,,,,,,,,8,Ontime,f,1,2.0456,9,2,38,0,1,,,,,
,0.42,,,,,,,,,h.PNG,h,5eb89eb4adb9350fb8fc895c,2021-09-08_19h56.20.859,forced_choiceRT,2021.1.2,MacIntel,59.97720866,,,,,,,,8,Ontime,h,1,2.0871,9,3,39,2,1,,,,,
,,,,,,,,,,,,5eb89eb4adb9350fb8fc895c,2021-09-08_19h56.20.859,forced_choiceRT,2021.1.2,MacIntel,59.97720866,,,,,,,,,,,,,,,,,,7,0,7,0,1
,0.41,,,,,,,,,g.PNG,g,5eb89eb4adb9350fb8fc895c,2021-09-08_19h56.20.859,forced_choiceRT,2021.1.2,MacIntel,59.97720866,,,,,,,,9,Ontime,g,1,2.0306,0,0,0,1,1,,,,,
,0.43,,,,,,,,,g.PNG,g,5eb89eb4adb9350fb8fc895c,2021-09-08_19h56.20.859,forced_choiceRT,2021.1.2,MacIntel,59.97720866,,,,,,,,9,Ontime,g,1,2.0021,0,1,1,1,1,,,,,
,1.3,,,,,,,,,f.PNG,f,5eb89eb4adb9350fb8fc895c,2021-09-08_19h56.20.859,forced_choiceRT,2021.1.2,MacIntel,59.97720866,,,,,,,,9,Ontime,f,1,1.9665,0,2,2,0,1,,,,,
,1.36,,,,,,,,,j.PNG,j,5eb89eb4adb9350fb8fc895c,2021-09-08_19h56.20.859,forced_choiceRT,2021.1.2,MacIntel,59.97720866,,,,,,,,9,Ontime,j,1,1.979,0,3,3,3,1,,,,,
,0.12,,,,,,,,,j.PNG,j,5eb89eb4adb9350fb8fc895c,2021-09-08_19h56.20.859,forced_choiceRT,2021.1.2,MacIntel,59.97720866,,,,,,,,9,Ontime,j,1,1.9778,1,0,4,3,1,,,,,
,1.38,,,,,,,,,g.PNG,g,5eb89eb4adb9350fb8fc895c,2021-09-08_19h56.20.859,forced_choiceRT,2021.1.2,MacIntel,59.97720866,,,,,,,,9,Ontime,h,0,1.9775,1,1,5,1,1,,,,,
,0.64,,,,,,,,,h.PNG,h,5eb89eb4adb9350fb8fc895c,2021-09-08_19h56.20.859,forced_choiceRT,2021.1.2,MacIntel,59.97720866,,,,,,,,9,Ontime,h,1,2.0291,1,2,6,2,1,,,,,
,1.04,,,,,,,,,g.PNG,g,5eb89eb4adb9350fb8fc895c,2021-09-08_19h56.20.859,forced_choiceRT,2021.1.2,MacIntel,59.97720866,,,,,,,,9,Ontime,g,1,2.0162,1,3,7,1,1,,,,,
,1.76,,,,,,,,,h.PNG,h,5eb89eb4adb9350fb8fc895c,2021-09-08_19h56.20.859,forced_choiceRT,2021.1.2,MacIntel,59.97720866,,,,,,,,9,Slow,h,1,2.1667,2,0,8,2,1,,,,,
,0.9,,,,,,,,,f.PNG,f,5eb89eb4adb9350fb8fc895c,2021-09-08_19h56.20.859,forced_choiceRT,2021.1.2,MacIntel,59.97720866,,,,,,,,9,Ontime,f,1,2.0287,2,1,9,0,1,,,,,
,0.52,,,,,,,,,g.PNG,g,5eb89eb4adb9350fb8fc895c,2021-09-08_19h56.20.859,forced_choiceRT,2021.1.2,MacIntel,59.97720866,,,,,,,,9,Ontime,g,1,2.0296,2,2,10,1,1,,,,,
,1.5,,,,,,,,,f.PNG,f,5eb89eb4adb9350fb8fc895c,2021-09-08_19h56.20.859,forced_choiceRT,2021.1.2,MacIntel,59.97720866,,,,,,,,9,Ontime,f,1,2.0281,2,3,11,0,1,,,,,
,1.86,,,,,,,,,h.PNG,h,5eb89eb4adb9350fb8fc895c,2021-09-08_19h56.20.859,forced_choiceRT,2021.1.2,MacIntel,59.97720866,,,,,,,,9,Slow,h,1,2.1952,3,0,12,2,1,,,,,
,1.62,,,,,,,,,f.PNG,f,5eb89eb4adb9350fb8fc895c,2021-09-08_19h56.20.859,forced_choiceRT,2021.1.2,MacIntel,59.97720866,,,,,,,,9,Ontime,f,1,2.0773,3,1,13,0,1,,,,,
,0.49,,,,,,,,,j.PNG,j,5eb89eb4adb9350fb8fc895c,2021-09-08_19h56.20.859,forced_choiceRT,2021.1.2,MacIntel,59.97720866,,,,,,,,9,Ontime,j,1,1.9847,3,2,14,3,1,,,,,
,0.33,,,,,,,,,f.PNG,f,5eb89eb4adb9350fb8fc895c,2021-09-08_19h56.20.859,forced_choiceRT,2021.1.2,MacIntel,59.97720866,,,,,,,,9,Ontime,f,1,1.9613,3,3,15,0,1,,,,,
,0.8,,,,,,,,,g.PNG,g,5eb89eb4adb9350fb8fc895c,2021-09-08_19h56.20.859,forced_choiceRT,2021.1.2,MacIntel,59.97720866,,,,,,,,9,Ontime,g,1,1.9975,4,0,16,1,1,,,,,
,1.64,,,,,,,,,h.PNG,h,5eb89eb4adb9350fb8fc895c,2021-09-08_19h56.20.859,forced_choiceRT,2021.1.2,MacIntel,59.97720866,,,,,,,,9,Slow,h,1,2.1131,4,1,17,2,1,,,,,
,0.7,,,,,,,,,h.PNG,h,5eb89eb4adb9350fb8fc895c,2021-09-08_19h56.20.859,forced_choiceRT,2021.1.2,MacIntel,59.97720866,,,,,,,,9,Ontime,h,1,1.9443,4,2,18,2,1,,,,,
,1.68,,,,,,,,,g.PNG,g,5eb89eb4adb9350fb8fc895c,2021-09-08_19h56.20.859,forced_choiceRT,2021.1.2,MacIntel,59.97720866,,,,,,,,9,Slow,h,0,2.1113,4,3,19,1,1,,,,,
,1.5,,,,,,,,,j.PNG,j,5eb89eb4adb9350fb8fc895c,2021-09-08_19h56.20.859,forced_choiceRT,2021.1.2,MacIntel,59.97720866,,,,,,,,9,Ontime,j,1,2.0202,5,0,20,3,1,,,,,
,1.32,,,,,,,,,g.PNG,g,5eb89eb4adb9350fb8fc895c,2021-09-08_19h56.20.859,forced_choiceRT,2021.1.2,MacIntel,59.97720866,,,,,,,,9,Ontime,g,1,2.0332,5,1,21,1,1,,,,,
,0.48,,,,,,,,,h.PNG,h,5eb89eb4adb9350fb8fc895c,2021-09-08_19h56.20.859,forced_choiceRT,2021.1.2,MacIntel,59.97720866,,,,,,,,9,Ontime,h,1,2.0311,5,2,22,2,1,,,,,
,1.51,,,,,,,,,g.PNG,g,5eb89eb4adb9350fb8fc895c,2021-09-08_19h56.20.859,forced_choiceRT,2021.1.2,MacIntel,59.97720866,,,,,,,,9,Ontime,h,0,2.0813,5,3,23,1,1,,,,,
,1.58,,,,,,,,,j.PNG,j,5eb89eb4adb9350fb8fc895c,2021-09-08_19h56.20.859,forced_choiceRT,2021.1.2,MacIntel,59.97720866,,,,,,,,9,Ontime,j,1,2.0982,6,0,24,3,1,,,,,
,1.8,,,,,,,,,f.PNG,f,5eb89eb4adb9350fb8fc895c,2021-09-08_19h56.20.859,forced_choiceRT,2021.1.2,MacIntel,59.97720866,,,,,,,,9,Slow,g,0,2.2852,6,1,25,0,1,,,,,
,0.56,,,,,,,,,h.PNG,h,5eb89eb4adb9350fb8fc895c,2021-09-08_19h56.20.859,forced_choiceRT,2021.1.2,MacIntel,59.97720866,,,,,,,,9,Ontime,h,1,2.0339,6,2,26,2,1,,,,,
,1.76,,,,,,,,,h.PNG,h,5eb89eb4adb9350fb8fc895c,2021-09-08_19h56.20.859,forced_choiceRT,2021.1.2,MacIntel,59.97720866,,,,,,,,9,Slow,h,1,2.129,6,3,27,2,1,,,,,
,0.41,,,,,,,,,j.PNG,j,5eb89eb4adb9350fb8fc895c,2021-09-08_19h56.20.859,forced_choiceRT,2021.1.2,MacIntel,59.97720866,,,,,,,,9,Ontime,j,1,2.0291,7,0,28,3,1,,,,,
,1.63,,,,,,,,,h.PNG,h,5eb89eb4adb9350fb8fc895c,2021-09-08_19h56.20.859,forced_choiceRT,2021.1.2,MacIntel,59.97720866,,,,,,,,9,Slow,h,1,2.1176,7,1,29,2,1,,,,,
,1.69,,,,,,,,,j.PNG,j,5eb89eb4adb9350fb8fc895c,2021-09-08_19h56.20.859,forced_choiceRT,2021.1.2,MacIntel,59.97720866,,,,,,,,9,Ontime,h,0,2.08,7,2,30,3,1,,,,,
,1.87,,,,,,,,,f.PNG,f,5eb89eb4adb9350fb8fc895c,2021-09-08_19h56.20.859,forced_choiceRT,2021.1.2,MacIntel,59.97720866,,,,,,,,9,Slow,h,0,2.2131,7,3,31,0,1,,,,,
,1.3,,,,,,,,,j.PNG,j,5eb89eb4adb9350fb8fc895c,2021-09-08_19h56.20.859,forced_choiceRT,2021.1.2,MacIntel,59.97720866,,,,,,,,9,Ontime,j,1,2.045,8,0,32,3,1,,,,,
,1.75,,,,,,,,,j.PNG,j,5eb89eb4adb9350fb8fc895c,2021-09-08_19h56.20.859,forced_choiceRT,2021.1.2,MacIntel,59.97720866,,,,,,,,9,Slow,h,0,2.1939,8,1,33,3,1,,,,,
,1.79,,,,,,,,,g.PNG,g,5eb89eb4adb9350fb8fc895c,2021-09-08_19h56.20.859,forced_choiceRT,2021.1.2,MacIntel,59.97720866,,,,,,,,9,Slow,f,0,2.2018,8,2,34,1,1,,,,,
,1.29,,,,,,,,,h.PNG,h,5eb89eb4adb9350fb8fc895c,2021-09-08_19h56.20.859,forced_choiceRT,2021.1.2,MacIntel,59.97720866,,,,,,,,9,Slow,h,1,2.1173,8,3,35,2,1,,,,,
,0.52,,,,,,,,,f.PNG,f,5eb89eb4adb9350fb8fc895c,2021-09-08_19h56.20.859,forced_choiceRT,2021.1.2,MacIntel,59.97720866,,,,,,,,9,Ontime,f,1,2.0509,9,0,36,0,1,,,,,
,0.72,,,,,,,,,f.PNG,f,5eb89eb4adb9350fb8fc895c,2021-09-08_19h56.20.859,forced_choiceRT,2021.1.2,MacIntel,59.97720866,,,,,,,,9,Ontime,f,1,2.0365,9,1,37,0,1,,,,,
,0.93,,,,,,,,,j.PNG,j,5eb89eb4adb9350fb8fc895c,2021-09-08_19h56.20.859,forced_choiceRT,2021.1.2,MacIntel,59.97720866,,,,,,,,9,Ontime,j,1,2.035,9,2,38,3,1,,,,,
,1.07,,,,,,,,,f.PNG,f,5eb89eb4adb9350fb8fc895c,2021-09-08_19h56.20.859,forced_choiceRT,2021.1.2,MacIntel,59.97720866,,,,,,,,9,Ontime,f,1,2.0494,9,3,39,0,1,,,,,
,,,,,,,,,,,,5eb89eb4adb9350fb8fc895c,2021-09-08_19h56.20.859,forced_choiceRT,2021.1.2,MacIntel,59.97720866,,,,,,,,,,,,,,,,,,8,0,8,0,1
,0.38,,,,,,,,,g.PNG,g,5eb89eb4adb9350fb8fc895c,2021-09-08_19h56.20.859,forced_choiceRT,2021.1.2,MacIntel,59.97720866,,,,,,,,10,Ontime,g,1,2.0326,0,0,0,1,1,,,,,
,1.8,,,,,,,,,j.PNG,j,5eb89eb4adb9350fb8fc895c,2021-09-08_19h56.20.859,forced_choiceRT,2021.1.2,MacIntel,59.97720866,,,,,,,,10,Slow,h,0,2.1468,0,1,1,3,1,,,,,
,1.76,,,,,,,,,j.PNG,j,5eb89eb4adb9350fb8fc895c,2021-09-08_19h56.20.859,forced_choiceRT,2021.1.2,MacIntel,59.97720866,,,,,,,,10,Ontime,j,1,2.0839,0,2,2,3,1,,,,,
,1.09,,,,,,,,,f.PNG,f,5eb89eb4adb9350fb8fc895c,2021-09-08_19h56.20.859,forced_choiceRT,2021.1.2,MacIntel,59.97720866,,,,,,,,10,Ontime,f,1,2.0268,0,3,3,0,1,,,,,
,0.91,,,,,,,,,g.PNG,g,5eb89eb4adb9350fb8fc895c,2021-09-08_19h56.20.859,forced_choiceRT,2021.1.2,MacIntel,59.97720866,,,,,,,,10,Ontime,g,1,2.0538,1,0,4,1,1,,,,,
,0.98,,,,,,,,,f.PNG,f,5eb89eb4adb9350fb8fc895c,2021-09-08_19h56.20.859,forced_choiceRT,2021.1.2,MacIntel,59.97720866,,,,,,,,10,Ontime,f,1,1.9943,1,1,5,0,1,,,,,
,0.28,,,,,,,,,g.PNG,g,5eb89eb4adb9350fb8fc895c,2021-09-08_19h56.20.859,forced_choiceRT,2021.1.2,MacIntel,59.97720866,,,,,,,,10,Ontime,g,1,1.9451,1,2,6,1,1,,,,,
,1.87,,,,,,,,,j.PNG,j,5eb89eb4adb9350fb8fc895c,2021-09-08_19h56.20.859,forced_choiceRT,2021.1.2,MacIntel,59.97720866,,,,,,,,10,Slow,h,0,2.1609,1,3,7,3,1,,,,,
,0.76,,,,,,,,,g.PNG,g,5eb89eb4adb9350fb8fc895c,2021-09-08_19h56.20.859,forced_choiceRT,2021.1.2,MacIntel,59.97720866,,,,,,,,10,Ontime,g,1,1.9934,2,0,8,1,1,,,,,
,0.06,,,,,,,,,j.PNG,j,5eb89eb4adb9350fb8fc895c,2021-09-08_19h56.20.859,forced_choiceRT,2021.1.2,MacIntel,59.97720866,,,,,,,,10,Ontime,j,1,2.0134,2,1,9,3,1,,,,,
,0.58,,,,,,,,,f.PNG,f,5eb89eb4adb9350fb8fc895c,2021-09-08_19h56.20.859,forced_choiceRT,2021.1.2,MacIntel,59.97720866,,,,,,,,10,Ontime,f,1,2.0171,2,2,10,0,1,,,,,
,0.51,,,,,,,,,f.PNG,f,5eb89eb4adb9350fb8fc895c,2021-09-08_19h56.20.859,forced_choiceRT,2021.1.2,MacIntel,59.97720866,,,,,,,,10,Ontime,f,1,2.0182,2,3,11,0,1,,,,,
,1.94,,,,,,,,,h.PNG,h,5eb89eb4adb9350fb8fc895c,2021-09-08_19h56.20.859,forced_choiceRT,2021.1.2,MacIntel,59.97720866,,,,,,,,10,Slow,f,0,2.1517,3,0,12,2,1,,,,,
,1.94,,,,,,,,,f.PNG,f,5eb89eb4adb9350fb8fc895c,2021-09-08_19h56.20.859,forced_choiceRT,2021.1.2,MacIntel,59.97720866,,,,,,,,10,Slow,h,0,2.3844,3,1,13,0,1,,,,,
,0.59,,,,,,,,,j.PNG,j,5eb89eb4adb9350fb8fc895c,2021-09-08_19h56.20.859,forced_choiceRT,2021.1.2,MacIntel,59.97720866,,,,,,,,10,Ontime,j,1,1.9996,3,2,14,3,1,,,,,
,0.66,,,,,,,,,h.PNG,h,5eb89eb4adb9350fb8fc895c,2021-09-08_19h56.20.859,forced_choiceRT,2021.1.2,MacIntel,59.97720866,,,,,,,,10,Ontime,h,1,2.0526,3,3,15,2,1,,,,,
,1.94,,,,,,,,,f.PNG,f,5eb89eb4adb9350fb8fc895c,2021-09-08_19h56.20.859,forced_choiceRT,2021.1.2,MacIntel,59.97720866,,,,,,,,10,Slow,f,1,2.361,4,0,16,0,1,,,,,
,1.61,,,,,,,,,f.PNG,f,5eb89eb4adb9350fb8fc895c,2021-09-08_19h56.20.859,forced_choiceRT,2021.1.2,MacIntel,59.97720866,,,,,,,,10,Ontime,f,1,2.0466,4,1,17,0,1,,,,,
,1.92,,,,,,,,,h.PNG,h,5eb89eb4adb9350fb8fc895c,2021-09-08_19h56.20.859,forced_choiceRT,2021.1.2,MacIntel,59.97720866,,,,,,,,10,Slow,j,0,2.2844,4,2,18,2,1,,,,,
,0.85,,,,,,,,,h.PNG,h,5eb89eb4adb9350fb8fc895c,2021-09-08_19h56.20.859,forced_choiceRT,2021.1.2,MacIntel,59.97720866,,,,,,,,10,Ontime,h,1,2.0509,4,3,19,2,1,,,,,
,1.17,,,,,,,,,h.PNG,h,5eb89eb4adb9350fb8fc895c,2021-09-08_19h56.20.859,forced_choiceRT,2021.1.2,MacIntel,59.97720866,,,,,,,,10,Ontime,h,1,2.0609,5,0,20,2,1,,,,,
,1.44,,,,,,,,,g.PNG,g,5eb89eb4adb9350fb8fc895c,2021-09-08_19h56.20.859,forced_choiceRT,2021.1.2,MacIntel,59.97720866,,,,,,,,10,Ontime,g,1,2.0469,5,1,21,1,1,,,,,
,0.22,,,,,,,,,j.PNG,j,5eb89eb4adb9350fb8fc895c,2021-09-08_19h56.20.859,forced_choiceRT,2021.1.2,MacIntel,59.97720866,,,,,,,,10,Ontime,j,1,2.0323,5,2,22,3,1,,,,,
,0.1,,,,,,,,,g.PNG,g,5eb89eb4adb9350fb8fc895c,2021-09-08_19h56.20.859,forced_choiceRT,2021.1.2,MacIntel,59.97720866,,,,,,,,10,Ontime,g,1,2.0647,5,3,23,1,1,,,,,
,1.87,,,,,,,,,g.PNG,g,5eb89eb4adb9350fb8fc895c,2021-09-08_19h56.20.859,forced_choiceRT,2021.1.2,MacIntel,59.97720866,,,,,,,,10,Slow,h,0,2.1875,6,0,24,1,1,,,,,
,1.83,,,,,,,,,j.PNG,j,5eb89eb4adb9350fb8fc895c,2021-09-08_19h56.20.859,forced_choiceRT,2021.1.2,MacIntel,59.97720866,,,,,,,,10,Slow,g,0,2.21,6,1,25,3,1,,,,,
,1.63,,,,,,,,,j.PNG,j,5eb89eb4adb9350fb8fc895c,2021-09-08_19h56.20.859,forced_choiceRT,2021.1.2,MacIntel,59.97720866,,,,,,,,10,Ontime,j,1,2.0367,6,2,26,3,1,,,,,
,0.65,,,,,,,,,f.PNG,f,5eb89eb4adb9350fb8fc895c,2021-09-08_19h56.20.859,forced_choiceRT,2021.1.2,MacIntel,59.97720866,,,,,,,,10,Ontime,f,1,2.0192,6,3,27,0,1,,,,,
,0.92,,,,,,,,,h.PNG,h,5eb89eb4adb9350fb8fc895c,2021-09-08_19h56.20.859,forced_choiceRT,2021.1.2,MacIntel,59.97720866,,,,,,,,10,Ontime,h,1,1.9838,7,0,28,2,1,,,,,
,1.29,,,,,,,,,f.PNG,f,5eb89eb4adb9350fb8fc895c,2021-09-08_19h56.20.859,forced_choiceRT,2021.1.2,MacIntel,59.97720866,,,,,,,,10,Ontime,f,1,2.0167,7,1,29,0,1,,,,,
,0.84,,,,,,,,,h.PNG,h,5eb89eb4adb9350fb8fc895c,2021-09-08_19h56.20.859,forced_choiceRT,2021.1.2,MacIntel,59.97720866,,,,,,,,10,Ontime,h,1,2.0534,7,2,30,2,1,,,,,
,1.5,,,,,,,,,j.PNG,j,5eb89eb4adb9350fb8fc895c,2021-09-08_19h56.20.859,forced_choiceRT,2021.1.2,MacIntel,59.97720866,,,,,,,,10,Ontime,g,0,2.0463,7,3,31,3,1,,,,,
,1.92,,,,,,,,,g.PNG,g,5eb89eb4adb9350fb8fc895c,2021-09-08_19h56.20.859,forced_choiceRT,2021.1.2,MacIntel,59.97720866,,,,,,,,10,Slow,h,0,2.3103,8,0,32,1,1,,,,,
,1.88,,,,,,,,,h.PNG,h,5eb89eb4adb9350fb8fc895c,2021-09-08_19h56.20.859,forced_choiceRT,2021.1.2,MacIntel,59.97720866,,,,,,,,10,Slow,f,0,2.1869,8,1,33,2,1,,,,,
,1.77,,,,,,,,,h.PNG,h,5eb89eb4adb9350fb8fc895c,2021-09-08_19h56.20.859,forced_choiceRT,2021.1.2,MacIntel,59.97720866,,,,,,,,10,Slow,h,1,2.2359,8,2,34,2,1,,,,,
,0.68,,,,,,,,,h.PNG,h,5eb89eb4adb9350fb8fc895c,2021-09-08_19h56.20.859,forced_choiceRT,2021.1.2,MacIntel,59.97720866,,,,,,,,10,Ontime,h,1,2.0023,8,3,35,2,1,,,,,
,1.61,,,,,,,,,j.PNG,j,5eb89eb4adb9350fb8fc895c,2021-09-08_19h56.20.859,forced_choiceRT,2021.1.2,MacIntel,59.97720866,,,,,,,,10,Slow,j,1,2.1102,9,0,36,3,1,,,,,
,0.17,,,,,,,,,f.PNG,f,5eb89eb4adb9350fb8fc895c,2021-09-08_19h56.20.859,forced_choiceRT,2021.1.2,MacIntel,59.97720866,,,,,,,,10,Ontime,f,1,2.0466,9,1,37,0,1,,,,,
,1.74,,,,,,,,,g.PNG,g,5eb89eb4adb9350fb8fc895c,2021-09-08_19h56.20.859,forced_choiceRT,2021.1.2,MacIntel,59.97720866,,,,,,,,10,Slow,f,0,2.2122,9,2,38,1,1,,,,,
,1.36,,,,,,,,,g.PNG,g,5eb89eb4adb9350fb8fc895c,2021-09-08_19h56.20.859,forced_choiceRT,2021.1.2,MacIntel,59.97720866,,,,,,,,10,Ontime,g,1,2.046,9,3,39,1,1,,,,,
,,,,,,,,,,,,5eb89eb4adb9350fb8fc895c,2021-09-08_19h56.20.859,forced_choiceRT,2021.1.2,MacIntel,59.97720866,,,,,,,,,,,,,,,,,,9,0,9,0,1
