IP_Addresss,target_onset,trial_resp_sp.keys,trial_resp_sp.corr,trial_resp_sp.rt,trials_train_loop.thisRepN,trials_train_loop.thisTrialN,trials_train_loop.thisN,trials_train_loop.thisIndex,trials_train_loop.ran,pic,correct_key,participant,date,expName,psychopyVersion,OS,frameRate,trial_resp_timing.keys,trial_resp_timing.rt,trials_train_timing.thisRepN,trials_train_timing.thisTrialN,trials_train_timing.thisN,trials_train_timing.thisIndex,trials_train_timing.ran,block_id,ontime,forcedRT_resp.keys,forcedRT_resp.corr,forcedRT_resp.rt,trials.thisRepN,trials.thisTrialN,trials.thisN,trials.thisIndex,trials.ran,blocks.thisRepN,blocks.thisTrialN,blocks.thisN,blocks.thisIndex,blocks.ran
72.208.5.69,0,f,1,1.6423,0,0,0,0,1,f.PNG,f,5f1085a425f85f0b96b36719,2021-09-08_17h53.56.766,forced_choiceRT,2021.1.2,Win32,59.9880024,,,,,,,,,,,,,,,,,,,,,,
,0,f,1,1.1232,0,1,1,0,1,f.PNG,f,5f1085a425f85f0b96b36719,2021-09-08_17h53.56.766,forced_choiceRT,2021.1.2,Win32,59.9880024,,,,,,,,,,,,,,,,,,,,,,
,0,f,1,0.8933,0,2,2,0,1,f.PNG,f,5f1085a425f85f0b96b36719,2021-09-08_17h53.56.766,forced_choiceRT,2021.1.2,Win32,59.9880024,,,,,,,,,,,,,,,,,,,,,,
,0,h,1,1.3149,0,3,3,2,1,h.PNG,h,5f1085a425f85f0b96b36719,2021-09-08_17h53.56.766,forced_choiceRT,2021.1.2,Win32,59.9880024,,,,,,,,,,,,,,,,,,,,,,
,0,j,1,2.5497,1,0,4,3,1,j.PNG,j,5f1085a425f85f0b96b36719,2021-09-08_17h53.56.766,forced_choiceRT,2021.1.2,Win32,59.9880024,,,,,,,,,,,,,,,,,,,,,,
,0,j,1,1.0717,1,1,5,3,1,j.PNG,j,5f1085a425f85f0b96b36719,2021-09-08_17h53.56.766,forced_choiceRT,2021.1.2,Win32,59.9880024,,,,,,,,,,,,,,,,,,,,,,
,0,j,1,0.8709,1,2,6,3,1,j.PNG,j,5f1085a425f85f0b96b36719,2021-09-08_17h53.56.766,forced_choiceRT,2021.1.2,Win32,59.9880024,,,,,,,,,,,,,,,,,,,,,,
,0,g,1,1.0433,1,3,7,1,1,g.PNG,g,5f1085a425f85f0b96b36719,2021-09-08_17h53.56.766,forced_choiceRT,2021.1.2,Win32,59.9880024,,,,,,,,,,,,,,,,,,,,,,
,0,h,1,1.0928,2,0,8,2,1,h.PNG,h,5f1085a425f85f0b96b36719,2021-09-08_17h53.56.766,forced_choiceRT,2021.1.2,Win32,59.9880024,,,,,,,,,,,,,,,,,,,,,,
,0,j,1,0.911,2,1,9,3,1,j.PNG,j,5f1085a425f85f0b96b36719,2021-09-08_17h53.56.766,forced_choiceRT,2021.1.2,Win32,59.9880024,,,,,,,,,,,,,,,,,,,,,,
,0,f,1,0.7548,2,2,10,0,1,f.PNG,f,5f1085a425f85f0b96b36719,2021-09-08_17h53.56.766,forced_choiceRT,2021.1.2,Win32,59.9880024,,,,,,,,,,,,,,,,,,,,,,
,0,h,1,2.0518,2,3,11,2,1,h.PNG,h,5f1085a425f85f0b96b36719,2021-09-08_17h53.56.766,forced_choiceRT,2021.1.2,Win32,59.9880024,,,,,,,,,,,,,,,,,,,,,,
,0,f,1,0.7336,3,0,12,0,1,f.PNG,f,5f1085a425f85f0b96b36719,2021-09-08_17h53.56.766,forced_choiceRT,2021.1.2,Win32,59.9880024,,,,,,,,,,,,,,,,,,,,,,
,0,f,1,0.5853,3,1,13,0,1,f.PNG,f,5f1085a425f85f0b96b36719,2021-09-08_17h53.56.766,forced_choiceRT,2021.1.2,Win32,59.9880024,,,,,,,,,,,,,,,,,,,,,,
,0,j,1,0.9296,3,2,14,3,1,j.PNG,j,5f1085a425f85f0b96b36719,2021-09-08_17h53.56.766,forced_choiceRT,2021.1.2,Win32,59.9880024,,,,,,,,,,,,,,,,,,,,,,
,0,f,1,0.6667,3,3,15,0,1,f.PNG,f,5f1085a425f85f0b96b36719,2021-09-08_17h53.56.766,forced_choiceRT,2021.1.2,Win32,59.9880024,,,,,,,,,,,,,,,,,,,,,,
,0,f,1,0.5982,4,0,16,0,1,f.PNG,f,5f1085a425f85f0b96b36719,2021-09-08_17h53.56.766,forced_choiceRT,2021.1.2,Win32,59.9880024,,,,,,,,,,,,,,,,,,,,,,
,0,h,1,0.8478,4,1,17,2,1,h.PNG,h,5f1085a425f85f0b96b36719,2021-09-08_17h53.56.766,forced_choiceRT,2021.1.2,Win32,59.9880024,,,,,,,,,,,,,,,,,,,,,,
,0,h,1,0.7391,4,2,18,2,1,h.PNG,h,5f1085a425f85f0b96b36719,2021-09-08_17h53.56.766,forced_choiceRT,2021.1.2,Win32,59.9880024,,,,,,,,,,,,,,,,,,,,,,
,0,h,1,0.4834,4,3,19,2,1,h.PNG,h,5f1085a425f85f0b96b36719,2021-09-08_17h53.56.766,forced_choiceRT,2021.1.2,Win32,59.9880024,,,,,,,,,,,,,,,,,,,,,,
,0,h,0,0.49,5,0,20,3,1,j.PNG,j,5f1085a425f85f0b96b36719,2021-09-08_17h53.56.766,forced_choiceRT,2021.1.2,Win32,59.9880024,,,,,,,,,,,,,,,,,,,,,,
,0,j,1,0.9825,5,1,21,3,1,j.PNG,j,5f1085a425f85f0b96b36719,2021-09-08_17h53.56.766,forced_choiceRT,2021.1.2,Win32,59.9880024,,,,,,,,,,,,,,,,,,,,,,
,0,f,1,0.7012,5,2,22,0,1,f.PNG,f,5f1085a425f85f0b96b36719,2021-09-08_17h53.56.766,forced_choiceRT,2021.1.2,Win32,59.9880024,,,,,,,,,,,,,,,,,,,,,,
,0,f,1,0.7835,5,3,23,0,1,f.PNG,f,5f1085a425f85f0b96b36719,2021-09-08_17h53.56.766,forced_choiceRT,2021.1.2,Win32,59.9880024,,,,,,,,,,,,,,,,,,,,,,
,0,j,1,0.7768,6,0,24,3,1,j.PNG,j,5f1085a425f85f0b96b36719,2021-09-08_17h53.56.766,forced_choiceRT,2021.1.2,Win32,59.9880024,,,,,,,,,,,,,,,,,,,,,,
,0,h,1,0.7455,6,1,25,2,1,h.PNG,h,5f1085a425f85f0b96b36719,2021-09-08_17h53.56.766,forced_choiceRT,2021.1.2,Win32,59.9880024,,,,,,,,,,,,,,,,,,,,,,
,0,g,1,0.763,6,2,26,1,1,g.PNG,g,5f1085a425f85f0b96b36719,2021-09-08_17h53.56.766,forced_choiceRT,2021.1.2,Win32,59.9880024,,,,,,,,,,,,,,,,,,,,,,
,0,g,1,0.5148,6,3,27,1,1,g.PNG,g,5f1085a425f85f0b96b36719,2021-09-08_17h53.56.766,forced_choiceRT,2021.1.2,Win32,59.9880024,,,,,,,,,,,,,,,,,,,,,,
,0,g,1,0.8617,7,0,28,1,1,g.PNG,g,5f1085a425f85f0b96b36719,2021-09-08_17h53.56.766,forced_choiceRT,2021.1.2,Win32,59.9880024,,,,,,,,,,,,,,,,,,,,,,
,0,f,1,0.8107,7,1,29,0,1,f.PNG,f,5f1085a425f85f0b96b36719,2021-09-08_17h53.56.766,forced_choiceRT,2021.1.2,Win32,59.9880024,,,,,,,,,,,,,,,,,,,,,,
,0,f,0,0.657,7,2,30,1,1,g.PNG,g,5f1085a425f85f0b96b36719,2021-09-08_17h53.56.766,forced_choiceRT,2021.1.2,Win32,59.9880024,,,,,,,,,,,,,,,,,,,,,,
,0,h,0,2.8144,7,3,31,3,1,j.PNG,j,5f1085a425f85f0b96b36719,2021-09-08_17h53.56.766,forced_choiceRT,2021.1.2,Win32,59.9880024,,,,,,,,,,,,,,,,,,,,,,
,0,j,1,1.0686,8,0,32,3,1,j.PNG,j,5f1085a425f85f0b96b36719,2021-09-08_17h53.56.766,forced_choiceRT,2021.1.2,Win32,59.9880024,,,,,,,,,,,,,,,,,,,,,,
,0,g,1,1.2254,8,1,33,1,1,g.PNG,g,5f1085a425f85f0b96b36719,2021-09-08_17h53.56.766,forced_choiceRT,2021.1.2,Win32,59.9880024,,,,,,,,,,,,,,,,,,,,,,
,0,g,1,4.9284,8,2,34,1,1,g.PNG,g,5f1085a425f85f0b96b36719,2021-09-08_17h53.56.766,forced_choiceRT,2021.1.2,Win32,59.9880024,,,,,,,,,,,,,,,,,,,,,,
,0,g,1,0.8579,8,3,35,1,1,g.PNG,g,5f1085a425f85f0b96b36719,2021-09-08_17h53.56.766,forced_choiceRT,2021.1.2,Win32,59.9880024,,,,,,,,,,,,,,,,,,,,,,
,0,g,1,0.7196,9,0,36,1,1,g.PNG,g,5f1085a425f85f0b96b36719,2021-09-08_17h53.56.766,forced_choiceRT,2021.1.2,Win32,59.9880024,,,,,,,,,,,,,,,,,,,,,,
,0,f,1,0.6887,9,1,37,0,1,f.PNG,f,5f1085a425f85f0b96b36719,2021-09-08_17h53.56.766,forced_choiceRT,2021.1.2,Win32,59.9880024,,,,,,,,,,,,,,,,,,,,,,
,0,j,1,0.9169,9,2,38,3,1,j.PNG,j,5f1085a425f85f0b96b36719,2021-09-08_17h53.56.766,forced_choiceRT,2021.1.2,Win32,59.9880024,,,,,,,,,,,,,,,,,,,,,,
,0,g,1,0.8564,9,3,39,1,1,g.PNG,g,5f1085a425f85f0b96b36719,2021-09-08_17h53.56.766,forced_choiceRT,2021.1.2,Win32,59.9880024,,,,,,,,,,,,,,,,,,,,,,
,0,f,1,0.6906,10,0,40,0,1,f.PNG,f,5f1085a425f85f0b96b36719,2021-09-08_17h53.56.766,forced_choiceRT,2021.1.2,Win32,59.9880024,,,,,,,,,,,,,,,,,,,,,,
,0,j,1,0.782,10,1,41,3,1,j.PNG,j,5f1085a425f85f0b96b36719,2021-09-08_17h53.56.766,forced_choiceRT,2021.1.2,Win32,59.9880024,,,,,,,,,,,,,,,,,,,,,,
,0,h,1,0.7416,10,2,42,2,1,h.PNG,h,5f1085a425f85f0b96b36719,2021-09-08_17h53.56.766,forced_choiceRT,2021.1.2,Win32,59.9880024,,,,,,,,,,,,,,,,,,,,,,
,0,f,1,0.6885,10,3,43,0,1,f.PNG,f,5f1085a425f85f0b96b36719,2021-09-08_17h53.56.766,forced_choiceRT,2021.1.2,Win32,59.9880024,,,,,,,,,,,,,,,,,,,,,,
,0,h,1,0.8839,11,0,44,2,1,h.PNG,h,5f1085a425f85f0b96b36719,2021-09-08_17h53.56.766,forced_choiceRT,2021.1.2,Win32,59.9880024,,,,,,,,,,,,,,,,,,,,,,
,0,g,1,1.2872,11,1,45,1,1,g.PNG,g,5f1085a425f85f0b96b36719,2021-09-08_17h53.56.766,forced_choiceRT,2021.1.2,Win32,59.9880024,,,,,,,,,,,,,,,,,,,,,,
,0,g,1,0.7387,11,2,46,1,1,g.PNG,g,5f1085a425f85f0b96b36719,2021-09-08_17h53.56.766,forced_choiceRT,2021.1.2,Win32,59.9880024,,,,,,,,,,,,,,,,,,,,,,
,0,j,1,0.8435,11,3,47,3,1,j.PNG,j,5f1085a425f85f0b96b36719,2021-09-08_17h53.56.766,forced_choiceRT,2021.1.2,Win32,59.9880024,,,,,,,,,,,,,,,,,,,,,,
,0,h,1,1.244,12,0,48,2,1,h.PNG,h,5f1085a425f85f0b96b36719,2021-09-08_17h53.56.766,forced_choiceRT,2021.1.2,Win32,59.9880024,,,,,,,,,,,,,,,,,,,,,,
,0,f,0,1.0096,12,1,49,1,1,g.PNG,g,5f1085a425f85f0b96b36719,2021-09-08_17h53.56.766,forced_choiceRT,2021.1.2,Win32,59.9880024,,,,,,,,,,,,,,,,,,,,,,
,0,j,1,3.0897,12,2,50,3,1,j.PNG,j,5f1085a425f85f0b96b36719,2021-09-08_17h53.56.766,forced_choiceRT,2021.1.2,Win32,59.9880024,,,,,,,,,,,,,,,,,,,,,,
,0,h,1,1.1124,12,3,51,2,1,h.PNG,h,5f1085a425f85f0b96b36719,2021-09-08_17h53.56.766,forced_choiceRT,2021.1.2,Win32,59.9880024,,,,,,,,,,,,,,,,,,,,,,
,0,h,1,0.7067,13,0,52,2,1,h.PNG,h,5f1085a425f85f0b96b36719,2021-09-08_17h53.56.766,forced_choiceRT,2021.1.2,Win32,59.9880024,,,,,,,,,,,,,,,,,,,,,,
,0,h,1,0.558,13,1,53,2,1,h.PNG,h,5f1085a425f85f0b96b36719,2021-09-08_17h53.56.766,forced_choiceRT,2021.1.2,Win32,59.9880024,,,,,,,,,,,,,,,,,,,,,,
,0,h,1,0.4867,13,2,54,2,1,h.PNG,h,5f1085a425f85f0b96b36719,2021-09-08_17h53.56.766,forced_choiceRT,2021.1.2,Win32,59.9880024,,,,,,,,,,,,,,,,,,,,,,
,0,g,1,0.8982,13,3,55,1,1,g.PNG,g,5f1085a425f85f0b96b36719,2021-09-08_17h53.56.766,forced_choiceRT,2021.1.2,Win32,59.9880024,,,,,,,,,,,,,,,,,,,,,,
,0,j,1,0.8698,14,0,56,3,1,j.PNG,j,5f1085a425f85f0b96b36719,2021-09-08_17h53.56.766,forced_choiceRT,2021.1.2,Win32,59.9880024,,,,,,,,,,,,,,,,,,,,,,
,0,g,1,1.4632,14,1,57,1,1,g.PNG,g,5f1085a425f85f0b96b36719,2021-09-08_17h53.56.766,forced_choiceRT,2021.1.2,Win32,59.9880024,,,,,,,,,,,,,,,,,,,,,,
,0,h,1,3.6146,14,2,58,2,1,h.PNG,h,5f1085a425f85f0b96b36719,2021-09-08_17h53.56.766,forced_choiceRT,2021.1.2,Win32,59.9880024,,,,,,,,,,,,,,,,,,,,,,
,0,f,1,0.7338,14,3,59,0,1,f.PNG,f,5f1085a425f85f0b96b36719,2021-09-08_17h53.56.766,forced_choiceRT,2021.1.2,Win32,59.9880024,,,,,,,,,,,,,,,,,,,,,,
,,,,,,,,,,,,5f1085a425f85f0b96b36719,2021-09-08_17h53.56.766,forced_choiceRT,2021.1.2,Win32,59.9880024,f,2.3563,0,0,0,0,1,,,,,,,,,,,,,,,
,,,,,,,,,,,,5f1085a425f85f0b96b36719,2021-09-08_17h53.56.766,forced_choiceRT,2021.1.2,Win32,59.9880024,f,1.6979,1,0,1,0,1,,,,,,,,,,,,,,,
,,,,,,,,,,,,5f1085a425f85f0b96b36719,2021-09-08_17h53.56.766,forced_choiceRT,2021.1.2,Win32,59.9880024,f,2.2508,2,0,2,0,1,,,,,,,,,,,,,,,
,,,,,,,,,,,,5f1085a425f85f0b96b36719,2021-09-08_17h53.56.766,forced_choiceRT,2021.1.2,Win32,59.9880024,f,2.0161,3,0,3,0,1,,,,,,,,,,,,,,,
,,,,,,,,,,,,5f1085a425f85f0b96b36719,2021-09-08_17h53.56.766,forced_choiceRT,2021.1.2,Win32,59.9880024,f,2.0709,4,0,4,0,1,,,,,,,,,,,,,,,
,,,,,,,,,,,,5f1085a425f85f0b96b36719,2021-09-08_17h53.56.766,forced_choiceRT,2021.1.2,Win32,59.9880024,f,2.1165,5,0,5,0,1,,,,,,,,,,,,,,,
,,,,,,,,,,,,5f1085a425f85f0b96b36719,2021-09-08_17h53.56.766,forced_choiceRT,2021.1.2,Win32,59.9880024,j,2.0699,6,0,6,0,1,,,,,,,,,,,,,,,
,,,,,,,,,,,,5f1085a425f85f0b96b36719,2021-09-08_17h53.56.766,forced_choiceRT,2021.1.2,Win32,59.9880024,j,2.1305,7,0,7,0,1,,,,,,,,,,,,,,,
,,,,,,,,,,,,5f1085a425f85f0b96b36719,2021-09-08_17h53.56.766,forced_choiceRT,2021.1.2,Win32,59.9880024,j,2.0998,8,0,8,0,1,,,,,,,,,,,,,,,
,,,,,,,,,,,,5f1085a425f85f0b96b36719,2021-09-08_17h53.56.766,forced_choiceRT,2021.1.2,Win32,59.9880024,j,2.0167,9,0,9,0,1,,,,,,,,,,,,,,,
,,,,,,,,,,,,5f1085a425f85f0b96b36719,2021-09-08_17h53.56.766,forced_choiceRT,2021.1.2,Win32,59.9880024,j,2.1264,10,0,10,0,1,,,,,,,,,,,,,,,
,,,,,,,,,,,,5f1085a425f85f0b96b36719,2021-09-08_17h53.56.766,forced_choiceRT,2021.1.2,Win32,59.9880024,j,2.0671,11,0,11,0,1,,,,,,,,,,,,,,,
,,,,,,,,,,,,5f1085a425f85f0b96b36719,2021-09-08_17h53.56.766,forced_choiceRT,2021.1.2,Win32,59.9880024,f,1.8867,12,0,12,0,1,,,,,,,,,,,,,,,
,,,,,,,,,,,,5f1085a425f85f0b96b36719,2021-09-08_17h53.56.766,forced_choiceRT,2021.1.2,Win32,59.9880024,f,2.0834,13,0,13,0,1,,,,,,,,,,,,,,,
,,,,,,,,,,,,5f1085a425f85f0b96b36719,2021-09-08_17h53.56.766,forced_choiceRT,2021.1.2,Win32,59.9880024,f,2.0034,14,0,14,0,1,,,,,,,,,,,,,,,
,,,,,,,,,,,,5f1085a425f85f0b96b36719,2021-09-08_17h53.56.766,forced_choiceRT,2021.1.2,Win32,59.9880024,f,1.9818,15,0,15,0,1,,,,,,,,,,,,,,,
,,,,,,,,,,,,5f1085a425f85f0b96b36719,2021-09-08_17h53.56.766,forced_choiceRT,2021.1.2,Win32,59.9880024,g,2.1105,16,0,16,0,1,,,,,,,,,,,,,,,
,,,,,,,,,,,,5f1085a425f85f0b96b36719,2021-09-08_17h53.56.766,forced_choiceRT,2021.1.2,Win32,59.9880024,g,2.0033,17,0,17,0,1,,,,,,,,,,,,,,,
,,,,,,,,,,,,5f1085a425f85f0b96b36719,2021-09-08_17h53.56.766,forced_choiceRT,2021.1.2,Win32,59.9880024,j,2.0645,18,0,18,0,1,,,,,,,,,,,,,,,
,,,,,,,,,,,,5f1085a425f85f0b96b36719,2021-09-08_17h53.56.766,forced_choiceRT,2021.1.2,Win32,59.9880024,h,1.9483,19,0,19,0,1,,,,,,,,,,,,,,,
,1.04,,,,,,,,,j.PNG,j,5f1085a425f85f0b96b36719,2021-09-08_17h53.56.766,forced_choiceRT,2021.1.2,Win32,59.9880024,,,,,,,,1,Ontime,j,1,2.0167,0,0,0,3,1,,,,,
,1.58,,,,,,,,,h.PNG,h,5f1085a425f85f0b96b36719,2021-09-08_17h53.56.766,forced_choiceRT,2021.1.2,Win32,59.9880024,,,,,,,,1,Ontime,f,0,2.0709,0,1,1,2,1,,,,,
,1.83,,,,,,,,,h.PNG,h,5f1085a425f85f0b96b36719,2021-09-08_17h53.56.766,forced_choiceRT,2021.1.2,Win32,59.9880024,,,,,,,,1,Slow,h,1,2.1441,0,2,2,2,1,,,,,
,1.12,,,,,,,,,j.PNG,j,5f1085a425f85f0b96b36719,2021-09-08_17h53.56.766,forced_choiceRT,2021.1.2,Win32,59.9880024,,,,,,,,1,Fast,j,1,1.897,0,3,3,3,1,,,,,
,0.56,,,,,,,,,g.PNG,g,5f1085a425f85f0b96b36719,2021-09-08_17h53.56.766,forced_choiceRT,2021.1.2,Win32,59.9880024,,,,,,,,1,Ontime,g,1,2.0014,1,0,4,1,1,,,,,
,1.11,,,,,,,,,j.PNG,j,5f1085a425f85f0b96b36719,2021-09-08_17h53.56.766,forced_choiceRT,2021.1.2,Win32,59.9880024,,,,,,,,1,Ontime,j,1,2.0979,1,1,5,3,1,,,,,
,0.1,,,,,,,,,j.PNG,j,5f1085a425f85f0b96b36719,2021-09-08_17h53.56.766,forced_choiceRT,2021.1.2,Win32,59.9880024,,,,,,,,1,Ontime,j,1,1.9643,1,2,6,3,1,,,,,
,1.79,,,,,,,,,f.PNG,f,5f1085a425f85f0b96b36719,2021-09-08_17h53.56.766,forced_choiceRT,2021.1.2,Win32,59.9880024,,,,,,,,1,Slow,h,0,2.2926,1,3,7,0,1,,,,,
,1.48,,,,,,,,,h.PNG,h,5f1085a425f85f0b96b36719,2021-09-08_17h53.56.766,forced_choiceRT,2021.1.2,Win32,59.9880024,,,,,,,,1,Ontime,j,0,2.0046,2,0,8,2,1,,,,,
,0.06,,,,,,,,,g.PNG,g,5f1085a425f85f0b96b36719,2021-09-08_17h53.56.766,forced_choiceRT,2021.1.2,Win32,59.9880024,,,,,,,,1,Fast,g,1,1.776,2,1,9,1,1,,,,,
,0.79,,,,,,,,,h.PNG,h,5f1085a425f85f0b96b36719,2021-09-08_17h53.56.766,forced_choiceRT,2021.1.2,Win32,59.9880024,,,,,,,,1,Ontime,j,0,2.0182,2,2,10,2,1,,,,,
,1.99,,,,,,,,,f.PNG,f,5f1085a425f85f0b96b36719,2021-09-08_17h53.56.766,forced_choiceRT,2021.1.2,Win32,59.9880024,,,,,,,,1,Slow,h,0,2.2561,2,3,11,0,1,,,,,
,1.97,,,,,,,,,g.PNG,g,5f1085a425f85f0b96b36719,2021-09-08_17h53.56.766,forced_choiceRT,2021.1.2,Win32,59.9880024,,,,,,,,1,Slow,h,0,2.1004,3,0,12,1,1,,,,,
,0.88,,,,,,,,,h.PNG,h,5f1085a425f85f0b96b36719,2021-09-08_17h53.56.766,forced_choiceRT,2021.1.2,Win32,59.9880024,,,,,,,,1,Ontime,h,1,1.9295,3,1,13,2,1,,,,,
,1.29,,,,,,,,,j.PNG,j,5f1085a425f85f0b96b36719,2021-09-08_17h53.56.766,forced_choiceRT,2021.1.2,Win32,59.9880024,,,,,,,,1,Ontime,h,0,1.9075,3,2,14,3,1,,,,,
,1.41,,,,,,,,,j.PNG,j,5f1085a425f85f0b96b36719,2021-09-08_17h53.56.766,forced_choiceRT,2021.1.2,Win32,59.9880024,,,,,,,,1,Ontime,j,1,2.067,3,3,15,3,1,,,,,
,0.94,,,,,,,,,h.PNG,h,5f1085a425f85f0b96b36719,2021-09-08_17h53.56.766,forced_choiceRT,2021.1.2,Win32,59.9880024,,,,,,,,1,Fast,h,1,1.8584,4,0,16,2,1,,,,,
,0.36,,,,,,,,,j.PNG,j,5f1085a425f85f0b96b36719,2021-09-08_17h53.56.766,forced_choiceRT,2021.1.2,Win32,59.9880024,,,,,,,,1,Ontime,j,1,1.9918,4,1,17,3,1,,,,,
,1.12,,,,,,,,,f.PNG,f,5f1085a425f85f0b96b36719,2021-09-08_17h53.56.766,forced_choiceRT,2021.1.2,Win32,59.9880024,,,,,,,,1,Ontime,f,1,2.0319,4,2,18,0,1,,,,,
,1.14,,,,,,,,,h.PNG,h,5f1085a425f85f0b96b36719,2021-09-08_17h53.56.766,forced_choiceRT,2021.1.2,Win32,59.9880024,,,,,,,,1,Slow,j,0,2.1504,4,3,19,2,1,,,,,
,0.35,,,,,,,,,f.PNG,f,5f1085a425f85f0b96b36719,2021-09-08_17h53.56.766,forced_choiceRT,2021.1.2,Win32,59.9880024,,,,,,,,1,Ontime,f,1,1.9599,5,0,20,0,1,,,,,
,1.64,,,,,,,,,h.PNG,h,5f1085a425f85f0b96b36719,2021-09-08_17h53.56.766,forced_choiceRT,2021.1.2,Win32,59.9880024,,,,,,,,1,Slow,j,0,2.2769,5,1,21,2,1,,,,,
,1.18,,,,,,,,,h.PNG,h,5f1085a425f85f0b96b36719,2021-09-08_17h53.56.766,forced_choiceRT,2021.1.2,Win32,59.9880024,,,,,,,,1,Fast,h,1,1.8379,5,2,22,2,1,,,,,
,1.17,,,,,,,,,f.PNG,f,5f1085a425f85f0b96b36719,2021-09-08_17h53.56.766,forced_choiceRT,2021.1.2,Win32,59.9880024,,,,,,,,1,Fast,f,1,1.8836,5,3,23,0,1,,,,,
,0.47,,,,,,,,,j.PNG,j,5f1085a425f85f0b96b36719,2021-09-08_17h53.56.766,forced_choiceRT,2021.1.2,Win32,59.9880024,,,,,,,,1,Ontime,j,1,2.0169,6,0,24,3,1,,,,,
,1.25,,,,,,,,,g.PNG,g,5f1085a425f85f0b96b36719,2021-09-08_17h53.56.766,forced_choiceRT,2021.1.2,Win32,59.9880024,,,,,,,,1,Ontime,g,1,1.9904,6,1,25,1,1,,,,,
,0.26,,,,,,,,,g.PNG,g,5f1085a425f85f0b96b36719,2021-09-08_17h53.56.766,forced_choiceRT,2021.1.2,Win32,59.9880024,,,,,,,,1,Ontime,g,1,2.014,6,2,26,1,1,,,,,
,1.71,,,,,,,,,f.PNG,f,5f1085a425f85f0b96b36719,2021-09-08_17h53.56.766,forced_choiceRT,2021.1.2,Win32,59.9880024,,,,,,,,1,Slow,g,0,2.2448,6,3,27,0,1,,,,,
,0.18,,,,,,,,,g.PNG,g,5f1085a425f85f0b96b36719,2021-09-08_17h53.56.766,forced_choiceRT,2021.1.2,Win32,59.9880024,,,,,,,,1,Ontime,g,1,2.0357,7,0,28,1,1,,,,,
,1.47,,,,,,,,,g.PNG,g,5f1085a425f85f0b96b36719,2021-09-08_17h53.56.766,forced_choiceRT,2021.1.2,Win32,59.9880024,,,,,,,,1,Slow,g,1,2.1043,7,1,29,1,1,,,,,
,0.2,,,,,,,,,f.PNG,f,5f1085a425f85f0b96b36719,2021-09-08_17h53.56.766,forced_choiceRT,2021.1.2,Win32,59.9880024,,,,,,,,1,Ontime,f,1,1.9476,7,2,30,0,1,,,,,
,1.74,,,,,,,,,j.PNG,j,5f1085a425f85f0b96b36719,2021-09-08_17h53.56.766,forced_choiceRT,2021.1.2,Win32,59.9880024,,,,,,,,1,Slow,h,0,2.2375,7,3,31,3,1,,,,,
,0.4,,,,,,,,,f.PNG,f,5f1085a425f85f0b96b36719,2021-09-08_17h53.56.766,forced_choiceRT,2021.1.2,Win32,59.9880024,,,,,,,,1,Ontime,f,1,2.0005,8,0,32,0,1,,,,,
,1.49,,,,,,,,,f.PNG,f,5f1085a425f85f0b96b36719,2021-09-08_17h53.56.766,forced_choiceRT,2021.1.2,Win32,59.9880024,,,,,,,,1,Ontime,g,0,2.027,8,1,33,0,1,,,,,
,0.06,,,,,,,,,g.PNG,g,5f1085a425f85f0b96b36719,2021-09-08_17h53.56.766,forced_choiceRT,2021.1.2,Win32,59.9880024,,,,,,,,1,Fast,g,1,1.8814,8,2,34,1,1,,,,,
,1.84,,,,,,,,,j.PNG,j,5f1085a425f85f0b96b36719,2021-09-08_17h53.56.766,forced_choiceRT,2021.1.2,Win32,59.9880024,,,,,,,,1,Slow,f,0,2.3098,8,3,35,3,1,,,,,
,0.59,,,,,,,,,h.PNG,h,5f1085a425f85f0b96b36719,2021-09-08_17h53.56.766,forced_choiceRT,2021.1.2,Win32,59.9880024,,,,,,,,1,Ontime,j,0,2.0007,9,0,36,2,1,,,,,
,1.67,,,,,,,,,g.PNG,g,5f1085a425f85f0b96b36719,2021-09-08_17h53.56.766,forced_choiceRT,2021.1.2,Win32,59.9880024,,,,,,,,1,Ontime,h,0,1.9835,9,1,37,1,1,,,,,
,1.05,,,,,,,,,f.PNG,f,5f1085a425f85f0b96b36719,2021-09-08_17h53.56.766,forced_choiceRT,2021.1.2,Win32,59.9880024,,,,,,,,1,Fast,f,1,1.6475,9,2,38,0,1,,,,,
,0.1,,,,,,,,,g.PNG,g,5f1085a425f85f0b96b36719,2021-09-08_17h53.56.766,forced_choiceRT,2021.1.2,Win32,59.9880024,,,,,,,,1,Ontime,f,0,2.0796,9,3,39,1,1,,,,,
,,,,,,,,,,,,5f1085a425f85f0b96b36719,2021-09-08_17h53.56.766,forced_choiceRT,2021.1.2,Win32,59.9880024,,,,,,,,,,,,,,,,,,0,0,0,0,1
,0.04,,,,,,,,,j.PNG,j,5f1085a425f85f0b96b36719,2021-09-08_17h53.56.766,forced_choiceRT,2021.1.2,Win32,59.9880024,,,,,,,,2,Fast,f,0,0.7003,0,0,0,3,1,,,,,
,1.33,,,,,,,,,f.PNG,f,5f1085a425f85f0b96b36719,2021-09-08_17h53.56.766,forced_choiceRT,2021.1.2,Win32,59.9880024,,,,,,,,2,Ontime,f,1,1.9373,0,1,1,0,1,,,,,
,1.7,,,,,,,,,f.PNG,f,5f1085a425f85f0b96b36719,2021-09-08_17h53.56.766,forced_choiceRT,2021.1.2,Win32,59.9880024,,,,,,,,2,Slow,j,0,2.13,0,2,2,0,1,,,,,
,0.63,,,,,,,,,h.PNG,h,5f1085a425f85f0b96b36719,2021-09-08_17h53.56.766,forced_choiceRT,2021.1.2,Win32,59.9880024,,,,,,,,2,Fast,h,1,1.8928,0,3,3,2,1,,,,,
,0.06,,,,,,,,,f.PNG,f,5f1085a425f85f0b96b36719,2021-09-08_17h53.56.766,forced_choiceRT,2021.1.2,Win32,59.9880024,,,,,,,,2,Fast,f,1,0.8081,1,0,4,0,1,,,,,
,1.31,,,,,,,,,h.PNG,h,5f1085a425f85f0b96b36719,2021-09-08_17h53.56.766,forced_choiceRT,2021.1.2,Win32,59.9880024,,,,,,,,2,Ontime,j,0,2.031,1,1,5,2,1,,,,,
,1.53,,,,,,,,,h.PNG,h,5f1085a425f85f0b96b36719,2021-09-08_17h53.56.766,forced_choiceRT,2021.1.2,Win32,59.9880024,,,,,,,,2,Ontime,j,0,2.0215,1,2,6,2,1,,,,,
,1.71,,,,,,,,,h.PNG,h,5f1085a425f85f0b96b36719,2021-09-08_17h53.56.766,forced_choiceRT,2021.1.2,Win32,59.9880024,,,,,,,,2,Slow,h,1,2.135,1,3,7,2,1,,,,,
,1.21,,,,,,,,,g.PNG,g,5f1085a425f85f0b96b36719,2021-09-08_17h53.56.766,forced_choiceRT,2021.1.2,Win32,59.9880024,,,,,,,,2,Fast,g,1,1.7656,2,0,8,1,1,,,,,
,1.78,,,,,,,,,h.PNG,h,5f1085a425f85f0b96b36719,2021-09-08_17h53.56.766,forced_choiceRT,2021.1.2,Win32,59.9880024,,,,,,,,2,Ontime,g,0,2.0749,2,1,9,2,1,,,,,
,1.96,,,,,,,,,g.PNG,g,5f1085a425f85f0b96b36719,2021-09-08_17h53.56.766,forced_choiceRT,2021.1.2,Win32,59.9880024,,,,,,,,2,Slow,g,1,2.4424,2,2,10,1,1,,,,,
,0.9,,,,,,,,,f.PNG,f,5f1085a425f85f0b96b36719,2021-09-08_17h53.56.766,forced_choiceRT,2021.1.2,Win32,59.9880024,,,,,,,,2,Fast,f,1,1.5337,2,3,11,0,1,,,,,
,1.21,,,,,,,,,h.PNG,h,5f1085a425f85f0b96b36719,2021-09-08_17h53.56.766,forced_choiceRT,2021.1.2,Win32,59.9880024,,,,,,,,2,Ontime,h,1,1.9308,3,0,12,2,1,,,,,
,1.96,,,,,,,,,g.PNG,g,5f1085a425f85f0b96b36719,2021-09-08_17h53.56.766,forced_choiceRT,2021.1.2,Win32,59.9880024,,,,,,,,2,Slow,g,1,2.285,3,1,13,1,1,,,,,
,1.26,,,,,,,,,j.PNG,j,5f1085a425f85f0b96b36719,2021-09-08_17h53.56.766,forced_choiceRT,2021.1.2,Win32,59.9880024,,,,,,,,2,Fast,h,0,1.7861,3,2,14,3,1,,,,,
,1.4,,,,,,,,,h.PNG,h,5f1085a425f85f0b96b36719,2021-09-08_17h53.56.766,forced_choiceRT,2021.1.2,Win32,59.9880024,,,,,,,,2,Fast,j,0,1.8672,3,3,15,2,1,,,,,
,0.8,,,,,,,,,f.PNG,f,5f1085a425f85f0b96b36719,2021-09-08_17h53.56.766,forced_choiceRT,2021.1.2,Win32,59.9880024,,,,,,,,2,Ontime,f,1,1.9974,4,0,16,0,1,,,,,
,1.52,,,,,,,,,h.PNG,h,5f1085a425f85f0b96b36719,2021-09-08_17h53.56.766,forced_choiceRT,2021.1.2,Win32,59.9880024,,,,,,,,2,Ontime,h,1,2.046,4,1,17,2,1,,,,,
,1.72,,,,,,,,,f.PNG,f,5f1085a425f85f0b96b36719,2021-09-08_17h53.56.766,forced_choiceRT,2021.1.2,Win32,59.9880024,,,,,,,,2,Slow,j,0,2.1468,4,2,18,0,1,,,,,
,0.88,,,,,,,,,g.PNG,g,5f1085a425f85f0b96b36719,2021-09-08_17h53.56.766,forced_choiceRT,2021.1.2,Win32,59.9880024,,,,,,,,2,Fast,g,1,1.8601,4,3,19,1,1,,,,,
,0.9,,,,,,,,,g.PNG,g,5f1085a425f85f0b96b36719,2021-09-08_17h53.56.766,forced_choiceRT,2021.1.2,Win32,59.9880024,,,,,,,,2,Ontime,g,1,1.9444,5,0,20,1,1,,,,,
,0.73,,,,,,,,,j.PNG,j,5f1085a425f85f0b96b36719,2021-09-08_17h53.56.766,forced_choiceRT,2021.1.2,Win32,59.9880024,,,,,,,,2,Ontime,j,1,1.9308,5,1,21,3,1,,,,,
,1.77,,,,,,,,,j.PNG,j,5f1085a425f85f0b96b36719,2021-09-08_17h53.56.766,forced_choiceRT,2021.1.2,Win32,59.9880024,,,,,,,,2,Slow,g,0,2.197,5,2,22,3,1,,,,,
,1.42,,,,,,,,,j.PNG,j,5f1085a425f85f0b96b36719,2021-09-08_17h53.56.766,forced_choiceRT,2021.1.2,Win32,59.9880024,,,,,,,,2,Ontime,h,0,1.9725,5,3,23,3,1,,,,,
,1.74,,,,,,,,,g.PNG,g,5f1085a425f85f0b96b36719,2021-09-08_17h53.56.766,forced_choiceRT,2021.1.2,Win32,59.9880024,,,,,,,,2,Slow,h,0,2.1813,6,0,24,1,1,,,,,
,1.76,,,,,,,,,g.PNG,g,5f1085a425f85f0b96b36719,2021-09-08_17h53.56.766,forced_choiceRT,2021.1.2,Win32,59.9880024,,,,,,,,2,Ontime,g,1,2.0171,6,1,25,1,1,,,,,
,0.15,,,,,,,,,f.PNG,f,5f1085a425f85f0b96b36719,2021-09-08_17h53.56.766,forced_choiceRT,2021.1.2,Win32,59.9880024,,,,,,,,2,Ontime,f,1,1.9799,6,2,26,0,1,,,,,
,0.16,,,,,,,,,g.PNG,g,5f1085a425f85f0b96b36719,2021-09-08_17h53.56.766,forced_choiceRT,2021.1.2,Win32,59.9880024,,,,,,,,2,Ontime,g,1,2.0161,6,3,27,1,1,,,,,
,0.64,,,,,,,,,g.PNG,g,5f1085a425f85f0b96b36719,2021-09-08_17h53.56.766,forced_choiceRT,2021.1.2,Win32,59.9880024,,,,,,,,2,Fast,g,1,1.7293,7,0,28,1,1,,,,,
,0.71,,,,,,,,,j.PNG,j,5f1085a425f85f0b96b36719,2021-09-08_17h53.56.766,forced_choiceRT,2021.1.2,Win32,59.9880024,,,,,,,,2,Ontime,j,1,2.0049,7,1,29,3,1,,,,,
,0.36,,,,,,,,,f.PNG,f,5f1085a425f85f0b96b36719,2021-09-08_17h53.56.766,forced_choiceRT,2021.1.2,Win32,59.9880024,,,,,,,,2,Ontime,f,1,2.0204,7,2,30,0,1,,,,,
,1.59,,,,,,,,,h.PNG,h,5f1085a425f85f0b96b36719,2021-09-08_17h53.56.766,forced_choiceRT,2021.1.2,Win32,59.9880024,,,,,,,,2,Slow,h,1,2.216,7,3,31,2,1,,,,,
,1.35,,,,,,,,,j.PNG,j,5f1085a425f85f0b96b36719,2021-09-08_17h53.56.766,forced_choiceRT,2021.1.2,Win32,59.9880024,,,,,,,,2,Ontime,j,1,2.0737,8,0,32,3,1,,,,,
,1.42,,,,,,,,,f.PNG,f,5f1085a425f85f0b96b36719,2021-09-08_17h53.56.766,forced_choiceRT,2021.1.2,Win32,59.9880024,,,,,,,,2,Ontime,g,0,1.9951,8,1,33,0,1,,,,,
,0.88,,,,,,,,,j.PNG,j,5f1085a425f85f0b96b36719,2021-09-08_17h53.56.766,forced_choiceRT,2021.1.2,Win32,59.9880024,,,,,,,,2,Ontime,j,1,1.9976,8,2,34,3,1,,,,,
,1.63,,,,,,,,,g.PNG,g,5f1085a425f85f0b96b36719,2021-09-08_17h53.56.766,forced_choiceRT,2021.1.2,Win32,59.9880024,,,,,,,,2,Ontime,j,0,2.0003,8,3,35,1,1,,,,,
,1.97,,,,,,,,,h.PNG,h,5f1085a425f85f0b96b36719,2021-09-08_17h53.56.766,forced_choiceRT,2021.1.2,Win32,59.9880024,,,,,,,,2,Slow,g,0,2.2535,9,0,36,2,1,,,,,
,1.37,,,,,,,,,f.PNG,f,5f1085a425f85f0b96b36719,2021-09-08_17h53.56.766,forced_choiceRT,2021.1.2,Win32,59.9880024,,,,,,,,2,Ontime,f,1,2.0604,9,1,37,0,1,,,,,
,1.5,,,,,,,,,j.PNG,j,5f1085a425f85f0b96b36719,2021-09-08_17h53.56.766,forced_choiceRT,2021.1.2,Win32,59.9880024,,,,,,,,2,Ontime,h,0,2.0474,9,2,38,3,1,,,,,
,0.21,,,,,,,,,j.PNG,j,5f1085a425f85f0b96b36719,2021-09-08_17h53.56.766,forced_choiceRT,2021.1.2,Win32,59.9880024,,,,,,,,2,Ontime,j,1,1.9503,9,3,39,3,1,,,,,
,,,,,,,,,,,,5f1085a425f85f0b96b36719,2021-09-08_17h53.56.766,forced_choiceRT,2021.1.2,Win32,59.9880024,,,,,,,,,,,,,,,,,,1,0,1,0,1
,1.01,,,,,,,,,j.PNG,j,5f1085a425f85f0b96b36719,2021-09-08_17h53.56.766,forced_choiceRT,2021.1.2,Win32,59.9880024,,,,,,,,3,Slow,j,1,2.1005,0,0,0,3,1,,,,,
,1.64,,,,,,,,,j.PNG,j,5f1085a425f85f0b96b36719,2021-09-08_17h53.56.766,forced_choiceRT,2021.1.2,Win32,59.9880024,,,,,,,,3,Slow,f,0,2.1507,0,1,1,3,1,,,,,
,1.03,,,,,,,,,g.PNG,g,5f1085a425f85f0b96b36719,2021-09-08_17h53.56.766,forced_choiceRT,2021.1.2,Win32,59.9880024,,,,,,,,3,Ontime,g,1,2.093,0,2,2,1,1,,,,,
,1.04,,,,,,,,,h.PNG,h,5f1085a425f85f0b96b36719,2021-09-08_17h53.56.766,forced_choiceRT,2021.1.2,Win32,59.9880024,,,,,,,,3,Ontime,h,1,2.0503,0,3,3,2,1,,,,,
,1.71,,,,,,,,,j.PNG,j,5f1085a425f85f0b96b36719,2021-09-08_17h53.56.766,forced_choiceRT,2021.1.2,Win32,59.9880024,,,,,,,,3,Slow,h,0,2.2167,1,0,4,3,1,,,,,
,1.68,,,,,,,,,f.PNG,f,5f1085a425f85f0b96b36719,2021-09-08_17h53.56.766,forced_choiceRT,2021.1.2,Win32,59.9880024,,,,,,,,3,Ontime,j,0,2.02,1,1,5,0,1,,,,,
,1.96,,,,,,,,,g.PNG,g,5f1085a425f85f0b96b36719,2021-09-08_17h53.56.766,forced_choiceRT,2021.1.2,Win32,59.9880024,,,,,,,,3,Ontime,f,0,2.0822,1,2,6,1,1,,,,,
,0.46,,,,,,,,,j.PNG,j,5f1085a425f85f0b96b36719,2021-09-08_17h53.56.766,forced_choiceRT,2021.1.2,Win32,59.9880024,,,,,,,,3,Ontime,j,1,2.0671,1,3,7,3,1,,,,,
,1.65,,,,,,,,,g.PNG,g,5f1085a425f85f0b96b36719,2021-09-08_17h53.56.766,forced_choiceRT,2021.1.2,Win32,59.9880024,,,,,,,,3,Ontime,j,0,2.0369,2,0,8,1,1,,,,,
,0.78,,,,,,,,,h.PNG,h,5f1085a425f85f0b96b36719,2021-09-08_17h53.56.766,forced_choiceRT,2021.1.2,Win32,59.9880024,,,,,,,,3,Ontime,h,1,2.0749,2,1,9,2,1,,,,,
,0.6,,,,,,,,,f.PNG,f,5f1085a425f85f0b96b36719,2021-09-08_17h53.56.766,forced_choiceRT,2021.1.2,Win32,59.9880024,,,,,,,,3,Ontime,f,1,2.0547,2,2,10,0,1,,,,,
,0.04,,,,,,,,,h.PNG,h,5f1085a425f85f0b96b36719,2021-09-08_17h53.56.766,forced_choiceRT,2021.1.2,Win32,59.9880024,,,,,,,,3,Slow,h,1,2.1158,2,3,11,2,1,,,,,
,0.57,,,,,,,,,g.PNG,g,5f1085a425f85f0b96b36719,2021-09-08_17h53.56.766,forced_choiceRT,2021.1.2,Win32,59.9880024,,,,,,,,3,Ontime,g,1,2.0388,3,0,12,1,1,,,,,
,0.71,,,,,,,,,g.PNG,g,5f1085a425f85f0b96b36719,2021-09-08_17h53.56.766,forced_choiceRT,2021.1.2,Win32,59.9880024,,,,,,,,3,Ontime,g,1,2.0046,3,1,13,1,1,,,,,
,0.03,,,,,,,,,j.PNG,j,5f1085a425f85f0b96b36719,2021-09-08_17h53.56.766,forced_choiceRT,2021.1.2,Win32,59.9880024,,,,,,,,3,Ontime,j,1,1.9478,3,2,14,3,1,,,,,
,1.02,,,,,,,,,j.PNG,j,5f1085a425f85f0b96b36719,2021-09-08_17h53.56.766,forced_choiceRT,2021.1.2,Win32,59.9880024,,,,,,,,3,Ontime,j,1,1.9255,3,3,15,3,1,,,,,
,1.29,,,,,,,,,j.PNG,j,5f1085a425f85f0b96b36719,2021-09-08_17h53.56.766,forced_choiceRT,2021.1.2,Win32,59.9880024,,,,,,,,3,Ontime,j,1,1.9945,4,0,16,3,1,,,,,
,1.04,,,,,,,,,g.PNG,g,5f1085a425f85f0b96b36719,2021-09-08_17h53.56.766,forced_choiceRT,2021.1.2,Win32,59.9880024,,,,,,,,3,Ontime,g,1,1.9286,4,1,17,1,1,,,,,
,0.42,,,,,,,,,g.PNG,g,5f1085a425f85f0b96b36719,2021-09-08_17h53.56.766,forced_choiceRT,2021.1.2,Win32,59.9880024,,,,,,,,3,Ontime,g,1,2.0504,4,2,18,1,1,,,,,
,0.31,,,,,,,,,j.PNG,j,5f1085a425f85f0b96b36719,2021-09-08_17h53.56.766,forced_choiceRT,2021.1.2,Win32,59.9880024,,,,,,,,3,Ontime,j,1,2.03,4,3,19,3,1,,,,,
,1.7,,,,,,,,,f.PNG,f,5f1085a425f85f0b96b36719,2021-09-08_17h53.56.766,forced_choiceRT,2021.1.2,Win32,59.9880024,,,,,,,,3,Slow,g,0,2.2551,5,0,20,0,1,,,,,
,1.67,,,,,,,,,j.PNG,j,5f1085a425f85f0b96b36719,2021-09-08_17h53.56.766,forced_choiceRT,2021.1.2,Win32,59.9880024,,,,,,,,3,Slow,g,0,2.14,5,1,21,3,1,,,,,
,1.55,,,,,,,,,f.PNG,f,5f1085a425f85f0b96b36719,2021-09-08_17h53.56.766,forced_choiceRT,2021.1.2,Win32,59.9880024,,,,,,,,3,Ontime,g,0,1.9818,5,2,22,0,1,,,,,
,0.19,,,,,,,,,h.PNG,h,5f1085a425f85f0b96b36719,2021-09-08_17h53.56.766,forced_choiceRT,2021.1.2,Win32,59.9880024,,,,,,,,3,Ontime,h,1,1.9903,5,3,23,2,1,,,,,
,1.74,,,,,,,,,f.PNG,f,5f1085a425f85f0b96b36719,2021-09-08_17h53.56.766,forced_choiceRT,2021.1.2,Win32,59.9880024,,,,,,,,3,Ontime,g,0,2.059,6,0,24,0,1,,,,,
,0.54,,,,,,,,,g.PNG,g,5f1085a425f85f0b96b36719,2021-09-08_17h53.56.766,forced_choiceRT,2021.1.2,Win32,59.9880024,,,,,,,,3,Ontime,g,1,2.0364,6,1,25,1,1,,,,,
,1.2,,,,,,,,,g.PNG,g,5f1085a425f85f0b96b36719,2021-09-08_17h53.56.766,forced_choiceRT,2021.1.2,Win32,59.9880024,,,,,,,,3,Ontime,g,1,2.0505,6,2,26,1,1,,,,,
,0.28,,,,,,,,,h.PNG,h,5f1085a425f85f0b96b36719,2021-09-08_17h53.56.766,forced_choiceRT,2021.1.2,Win32,59.9880024,,,,,,,,3,Ontime,h,1,2.0144,6,3,27,2,1,,,,,
,0.47,,,,,,,,,f.PNG,f,5f1085a425f85f0b96b36719,2021-09-08_17h53.56.766,forced_choiceRT,2021.1.2,Win32,59.9880024,,,,,,,,3,Ontime,f,1,2.0448,7,0,28,0,1,,,,,
,1.7,,,,,,,,,h.PNG,h,5f1085a425f85f0b96b36719,2021-09-08_17h53.56.766,forced_choiceRT,2021.1.2,Win32,59.9880024,,,,,,,,3,Slow,g,0,2.147,7,1,29,2,1,,,,,
,0.28,,,,,,,,,f.PNG,f,5f1085a425f85f0b96b36719,2021-09-08_17h53.56.766,forced_choiceRT,2021.1.2,Win32,59.9880024,,,,,,,,3,Ontime,f,1,2.0116,7,2,30,0,1,,,,,
,0.85,,,,,,,,,f.PNG,f,5f1085a425f85f0b96b36719,2021-09-08_17h53.56.766,forced_choiceRT,2021.1.2,Win32,59.9880024,,,,,,,,3,Ontime,f,1,1.9946,7,3,31,0,1,,,,,
,1.02,,,,,,,,,g.PNG,g,5f1085a425f85f0b96b36719,2021-09-08_17h53.56.766,forced_choiceRT,2021.1.2,Win32,59.9880024,,,,,,,,3,Ontime,g,1,1.9503,8,0,32,1,1,,,,,
,1.21,,,,,,,,,h.PNG,h,5f1085a425f85f0b96b36719,2021-09-08_17h53.56.766,forced_choiceRT,2021.1.2,Win32,59.9880024,,,,,,,,3,Ontime,h,1,1.9475,8,1,33,2,1,,,,,
,1.62,,,,,,,,,h.PNG,h,5f1085a425f85f0b96b36719,2021-09-08_17h53.56.766,forced_choiceRT,2021.1.2,Win32,59.9880024,,,,,,,,3,Slow,h,1,2.1003,8,2,34,2,1,,,,,
,1.65,,,,,,,,,f.PNG,f,5f1085a425f85f0b96b36719,2021-09-08_17h53.56.766,forced_choiceRT,2021.1.2,Win32,59.9880024,,,,,,,,3,Ontime,h,0,2.0179,8,3,35,0,1,,,,,
,0.82,,,,,,,,,h.PNG,h,5f1085a425f85f0b96b36719,2021-09-08_17h53.56.766,forced_choiceRT,2021.1.2,Win32,59.9880024,,,,,,,,3,Ontime,j,0,2.0475,9,0,36,2,1,,,,,
,0.08,,,,,,,,,f.PNG,f,5f1085a425f85f0b96b36719,2021-09-08_17h53.56.766,forced_choiceRT,2021.1.2,Win32,59.9880024,,,,,,,,3,Ontime,f,1,1.9653,9,1,37,0,1,,,,,
,0.47,,,,,,,,,j.PNG,j,5f1085a425f85f0b96b36719,2021-09-08_17h53.56.766,forced_choiceRT,2021.1.2,Win32,59.9880024,,,,,,,,3,Ontime,j,1,2.0627,9,2,38,3,1,,,,,
,1.73,,,,,,,,,h.PNG,h,5f1085a425f85f0b96b36719,2021-09-08_17h53.56.766,forced_choiceRT,2021.1.2,Win32,59.9880024,,,,,,,,3,Slow,j,0,2.1867,9,3,39,2,1,,,,,
,,,,,,,,,,,,5f1085a425f85f0b96b36719,2021-09-08_17h53.56.766,forced_choiceRT,2021.1.2,Win32,59.9880024,,,,,,,,,,,,,,,,,,2,0,2,0,1
,1.39,,,,,,,,,h.PNG,h,5f1085a425f85f0b96b36719,2021-09-08_17h53.56.766,forced_choiceRT,2021.1.2,Win32,59.9880024,,,,,,,,4,Ontime,j,0,1.995,0,0,0,2,1,,,,,
,0.83,,,,,,,,,f.PNG,f,5f1085a425f85f0b96b36719,2021-09-08_17h53.56.766,forced_choiceRT,2021.1.2,Win32,59.9880024,,,,,,,,4,Ontime,f,1,1.9631,0,1,1,0,1,,,,,
,0.68,,,,,,,,,h.PNG,h,5f1085a425f85f0b96b36719,2021-09-08_17h53.56.766,forced_choiceRT,2021.1.2,Win32,59.9880024,,,,,,,,4,Fast,h,1,1.6279,0,2,2,2,1,,,,,
,0.7,,,,,,,,,f.PNG,f,5f1085a425f85f0b96b36719,2021-09-08_17h53.56.766,forced_choiceRT,2021.1.2,Win32,59.9880024,,,,,,,,4,Fast,g,0,1.8028,0,3,3,0,1,,,,,
,0.52,,,,,,,,,g.PNG,g,5f1085a425f85f0b96b36719,2021-09-08_17h53.56.766,forced_choiceRT,2021.1.2,Win32,59.9880024,,,,,,,,4,Ontime,g,1,2.0414,1,0,4,1,1,,,,,
,0.78,,,,,,,,,f.PNG,f,5f1085a425f85f0b96b36719,2021-09-08_17h53.56.766,forced_choiceRT,2021.1.2,Win32,59.9880024,,,,,,,,4,Ontime,f,1,2.0231,1,1,5,0,1,,,,,
,0.92,,,,,,,,,g.PNG,g,5f1085a425f85f0b96b36719,2021-09-08_17h53.56.766,forced_choiceRT,2021.1.2,Win32,59.9880024,,,,,,,,4,Ontime,g,1,1.9567,1,2,6,1,1,,,,,
,1.07,,,,,,,,,f.PNG,f,5f1085a425f85f0b96b36719,2021-09-08_17h53.56.766,forced_choiceRT,2021.1.2,Win32,59.9880024,,,,,,,,4,Ontime,f,1,1.9905,1,3,7,0,1,,,,,
,0.34,,,,,,,,,j.PNG,j,5f1085a425f85f0b96b36719,2021-09-08_17h53.56.766,forced_choiceRT,2021.1.2,Win32,59.9880024,,,,,,,,4,Ontime,j,1,2.0652,2,0,8,3,1,,,,,
,1.56,,,,,,,,,h.PNG,h,5f1085a425f85f0b96b36719,2021-09-08_17h53.56.766,forced_choiceRT,2021.1.2,Win32,59.9880024,,,,,,,,4,Ontime,h,1,2.0503,2,1,9,2,1,,,,,
,0.11,,,,,,,,,f.PNG,f,5f1085a425f85f0b96b36719,2021-09-08_17h53.56.766,forced_choiceRT,2021.1.2,Win32,59.9880024,,,,,,,,4,Ontime,f,1,2.0548,2,2,10,0,1,,,,,
,0.59,,,,,,,,,h.PNG,h,5f1085a425f85f0b96b36719,2021-09-08_17h53.56.766,forced_choiceRT,2021.1.2,Win32,59.9880024,,,,,,,,4,Slow,h,1,2.1668,2,3,11,2,1,,,,,
,0.14,,,,,,,,,j.PNG,j,5f1085a425f85f0b96b36719,2021-09-08_17h53.56.766,forced_choiceRT,2021.1.2,Win32,59.9880024,,,,,,,,4,Ontime,j,1,1.9559,3,0,12,3,1,,,,,
,1.56,,,,,,,,,h.PNG,h,5f1085a425f85f0b96b36719,2021-09-08_17h53.56.766,forced_choiceRT,2021.1.2,Win32,59.9880024,,,,,,,,4,Ontime,h,1,1.9836,3,1,13,2,1,,,,,
,0.62,,,,,,,,,f.PNG,f,5f1085a425f85f0b96b36719,2021-09-08_17h53.56.766,forced_choiceRT,2021.1.2,Win32,59.9880024,,,,,,,,4,Ontime,f,1,2.0003,3,2,14,0,1,,,,,
,1.81,,,,,,,,,j.PNG,j,5f1085a425f85f0b96b36719,2021-09-08_17h53.56.766,forced_choiceRT,2021.1.2,Win32,59.9880024,,,,,,,,4,Slow,g,0,2.127,3,3,15,3,1,,,,,
,1.73,,,,,,,,,g.PNG,g,5f1085a425f85f0b96b36719,2021-09-08_17h53.56.766,forced_choiceRT,2021.1.2,Win32,59.9880024,,,,,,,,4,Ontime,j,0,1.9998,4,0,16,1,1,,,,,
,1.21,,,,,,,,,j.PNG,j,5f1085a425f85f0b96b36719,2021-09-08_17h53.56.766,forced_choiceRT,2021.1.2,Win32,59.9880024,,,,,,,,4,Ontime,j,1,1.9502,4,1,17,3,1,,,,,
,0.6,,,,,,,,,f.PNG,f,5f1085a425f85f0b96b36719,2021-09-08_17h53.56.766,forced_choiceRT,2021.1.2,Win32,59.9880024,,,,,,,,4,Ontime,f,1,2.0172,4,2,18,0,1,,,,,
,0.65,,,,,,,,,h.PNG,h,5f1085a425f85f0b96b36719,2021-09-08_17h53.56.766,forced_choiceRT,2021.1.2,Win32,59.9880024,,,,,,,,4,Ontime,h,1,2.0096,4,3,19,2,1,,,,,
,0.47,,,,,,,,,g.PNG,g,5f1085a425f85f0b96b36719,2021-09-08_17h53.56.766,forced_choiceRT,2021.1.2,Win32,59.9880024,,,,,,,,4,Fast,g,1,1.8848,5,0,20,1,1,,,,,
,0.34,,,,,,,,,j.PNG,j,5f1085a425f85f0b96b36719,2021-09-08_17h53.56.766,forced_choiceRT,2021.1.2,Win32,59.9880024,,,,,,,,4,Ontime,j,1,1.9415,5,1,21,3,1,,,,,
,0.21,,,,,,,,,j.PNG,j,5f1085a425f85f0b96b36719,2021-09-08_17h53.56.766,forced_choiceRT,2021.1.2,Win32,59.9880024,,,,,,,,4,Ontime,j,1,1.9668,5,2,22,3,1,,,,,
,0.64,,,,,,,,,j.PNG,j,5f1085a425f85f0b96b36719,2021-09-08_17h53.56.766,forced_choiceRT,2021.1.2,Win32,59.9880024,,,,,,,,4,Ontime,j,1,1.9747,5,3,23,3,1,,,,,
,1.48,,,,,,,,,g.PNG,g,5f1085a425f85f0b96b36719,2021-09-08_17h53.56.766,forced_choiceRT,2021.1.2,Win32,59.9880024,,,,,,,,4,Ontime,g,1,2.0006,6,0,24,1,1,,,,,
,0.52,,,,,,,,,j.PNG,j,5f1085a425f85f0b96b36719,2021-09-08_17h53.56.766,forced_choiceRT,2021.1.2,Win32,59.9880024,,,,,,,,4,Ontime,j,1,1.99,6,1,25,3,1,,,,,
,1.91,,,,,,,,,g.PNG,g,5f1085a425f85f0b96b36719,2021-09-08_17h53.56.766,forced_choiceRT,2021.1.2,Win32,59.9880024,,,,,,,,4,Slow,j,0,2.1198,6,2,26,1,1,,,,,
,1.96,,,,,,,,,h.PNG,h,5f1085a425f85f0b96b36719,2021-09-08_17h53.56.766,forced_choiceRT,2021.1.2,Win32,59.9880024,,,,,,,,4,Ontime,g,0,2.017,6,3,27,2,1,,,,,
,0.06,,,,,,,,,j.PNG,j,5f1085a425f85f0b96b36719,2021-09-08_17h53.56.766,forced_choiceRT,2021.1.2,Win32,59.9880024,,,,,,,,4,Ontime,j,1,2.0573,7,0,28,3,1,,,,,
,1.01,,,,,,,,,g.PNG,g,5f1085a425f85f0b96b36719,2021-09-08_17h53.56.766,forced_choiceRT,2021.1.2,Win32,59.9880024,,,,,,,,4,Ontime,g,1,2.0168,7,1,29,1,1,,,,,
,1.72,,,,,,,,,j.PNG,j,5f1085a425f85f0b96b36719,2021-09-08_17h53.56.766,forced_choiceRT,2021.1.2,Win32,59.9880024,,,,,,,,4,Ontime,g,0,2.072,7,2,30,3,1,,,,,
,0.82,,,,,,,,,f.PNG,f,5f1085a425f85f0b96b36719,2021-09-08_17h53.56.766,forced_choiceRT,2021.1.2,Win32,59.9880024,,,,,,,,4,Ontime,f,1,1.9503,7,3,31,0,1,,,,,
,1.33,,,,,,,,,h.PNG,h,5f1085a425f85f0b96b36719,2021-09-08_17h53.56.766,forced_choiceRT,2021.1.2,Win32,59.9880024,,,,,,,,4,Ontime,h,1,1.9417,8,0,32,2,1,,,,,
,1.12,,,,,,,,,h.PNG,h,5f1085a425f85f0b96b36719,2021-09-08_17h53.56.766,forced_choiceRT,2021.1.2,Win32,59.9880024,,,,,,,,4,Ontime,h,1,2.0003,8,1,33,2,1,,,,,
,1.6,,,,,,,,,g.PNG,g,5f1085a425f85f0b96b36719,2021-09-08_17h53.56.766,forced_choiceRT,2021.1.2,Win32,59.9880024,,,,,,,,4,Slow,g,1,2.1806,8,2,34,1,1,,,,,
,0.45,,,,,,,,,h.PNG,h,5f1085a425f85f0b96b36719,2021-09-08_17h53.56.766,forced_choiceRT,2021.1.2,Win32,59.9880024,,,,,,,,4,Ontime,h,1,2.0769,8,3,35,2,1,,,,,
,1.4,,,,,,,,,f.PNG,f,5f1085a425f85f0b96b36719,2021-09-08_17h53.56.766,forced_choiceRT,2021.1.2,Win32,59.9880024,,,,,,,,4,Ontime,f,1,1.9856,9,0,36,0,1,,,,,
,0.14,,,,,,,,,g.PNG,g,5f1085a425f85f0b96b36719,2021-09-08_17h53.56.766,forced_choiceRT,2021.1.2,Win32,59.9880024,,,,,,,,4,Ontime,g,1,1.969,9,1,37,1,1,,,,,
,1.86,,,,,,,,,g.PNG,g,5f1085a425f85f0b96b36719,2021-09-08_17h53.56.766,forced_choiceRT,2021.1.2,Win32,59.9880024,,,,,,,,4,Ontime,h,0,2.0175,9,2,38,1,1,,,,,
,0.12,,,,,,,,,f.PNG,f,5f1085a425f85f0b96b36719,2021-09-08_17h53.56.766,forced_choiceRT,2021.1.2,Win32,59.9880024,,,,,,,,4,Ontime,f,1,1.9944,9,3,39,0,1,,,,,
,,,,,,,,,,,,5f1085a425f85f0b96b36719,2021-09-08_17h53.56.766,forced_choiceRT,2021.1.2,Win32,59.9880024,,,,,,,,,,,,,,,,,,3,0,3,0,1
,0.97,,,,,,,,,h.PNG,h,5f1085a425f85f0b96b36719,2021-09-08_17h53.56.766,forced_choiceRT,2021.1.2,Win32,59.9880024,,,,,,,,5,Fast,h,1,1.8155,0,0,0,2,1,,,,,
,1.43,,,,,,,,,f.PNG,f,5f1085a425f85f0b96b36719,2021-09-08_17h53.56.766,forced_choiceRT,2021.1.2,Win32,59.9880024,,,,,,,,5,Ontime,f,1,2.0281,0,1,1,0,1,,,,,
,0.36,,,,,,,,,h.PNG,h,5f1085a425f85f0b96b36719,2021-09-08_17h53.56.766,forced_choiceRT,2021.1.2,Win32,59.9880024,,,,,,,,5,Ontime,h,1,1.9337,0,2,2,2,1,,,,,
,1.3,,,,,,,,,h.PNG,h,5f1085a425f85f0b96b36719,2021-09-08_17h53.56.766,forced_choiceRT,2021.1.2,Win32,59.9880024,,,,,,,,5,Ontime,h,1,2.0167,0,3,3,2,1,,,,,
,0.73,,,,,,,,,g.PNG,g,5f1085a425f85f0b96b36719,2021-09-08_17h53.56.766,forced_choiceRT,2021.1.2,Win32,59.9880024,,,,,,,,5,Slow,g,1,2.1087,1,0,4,1,1,,,,,
,0.64,,,,,,,,,h.PNG,h,5f1085a425f85f0b96b36719,2021-09-08_17h53.56.766,forced_choiceRT,2021.1.2,Win32,59.9880024,,,,,,,,5,Slow,h,1,2.1003,1,1,5,2,1,,,,,
,0.92,,,,,,,,,j.PNG,j,5f1085a425f85f0b96b36719,2021-09-08_17h53.56.766,forced_choiceRT,2021.1.2,Win32,59.9880024,,,,,,,,5,Ontime,j,1,1.9939,1,2,6,3,1,,,,,
,1.22,,,,,,,,,j.PNG,j,5f1085a425f85f0b96b36719,2021-09-08_17h53.56.766,forced_choiceRT,2021.1.2,Win32,59.9880024,,,,,,,,5,Slow,j,1,2.1136,1,3,7,3,1,,,,,
,0.18,,,,,,,,,f.PNG,f,5f1085a425f85f0b96b36719,2021-09-08_17h53.56.766,forced_choiceRT,2021.1.2,Win32,59.9880024,,,,,,,,5,Ontime,f,1,1.9314,2,0,8,0,1,,,,,
,1.4,,,,,,,,,f.PNG,f,5f1085a425f85f0b96b36719,2021-09-08_17h53.56.766,forced_choiceRT,2021.1.2,Win32,59.9880024,,,,,,,,5,Slow,f,1,2.1063,2,1,9,0,1,,,,,
,1.08,,,,,,,,,g.PNG,g,5f1085a425f85f0b96b36719,2021-09-08_17h53.56.766,forced_choiceRT,2021.1.2,Win32,59.9880024,,,,,,,,5,Ontime,g,1,2.0458,2,2,10,1,1,,,,,
,1.73,,,,,,,,,j.PNG,j,5f1085a425f85f0b96b36719,2021-09-08_17h53.56.766,forced_choiceRT,2021.1.2,Win32,59.9880024,,,,,,,,5,Slow,h,0,2.1285,2,3,11,3,1,,,,,
,0.09,,,,,,,,,g.PNG,g,5f1085a425f85f0b96b36719,2021-09-08_17h53.56.766,forced_choiceRT,2021.1.2,Win32,59.9880024,,,,,,,,5,Slow,g,1,2.1308,3,0,12,1,1,,,,,
,1.25,,,,,,,,,j.PNG,j,5f1085a425f85f0b96b36719,2021-09-08_17h53.56.766,forced_choiceRT,2021.1.2,Win32,59.9880024,,,,,,,,5,Ontime,j,1,2.0655,3,1,13,3,1,,,,,
,0.06,,,,,,,,,h.PNG,h,5f1085a425f85f0b96b36719,2021-09-08_17h53.56.766,forced_choiceRT,2021.1.2,Win32,59.9880024,,,,,,,,5,Ontime,h,1,1.9247,3,2,14,2,1,,,,,
,1.45,,,,,,,,,j.PNG,j,5f1085a425f85f0b96b36719,2021-09-08_17h53.56.766,forced_choiceRT,2021.1.2,Win32,59.9880024,,,,,,,,5,Ontime,j,1,2.0292,3,3,15,3,1,,,,,
,1.01,,,,,,,,,f.PNG,f,5f1085a425f85f0b96b36719,2021-09-08_17h53.56.766,forced_choiceRT,2021.1.2,Win32,59.9880024,,,,,,,,5,Ontime,f,1,1.9148,4,0,16,0,1,,,,,
,1.17,,,,,,,,,g.PNG,g,5f1085a425f85f0b96b36719,2021-09-08_17h53.56.766,forced_choiceRT,2021.1.2,Win32,59.9880024,,,,,,,,5,Ontime,g,1,2.0016,4,1,17,1,1,,,,,
,0.81,,,,,,,,,j.PNG,j,5f1085a425f85f0b96b36719,2021-09-08_17h53.56.766,forced_choiceRT,2021.1.2,Win32,59.9880024,,,,,,,,5,Ontime,j,1,2.005,4,2,18,3,1,,,,,
,0.13,,,,,,,,,j.PNG,j,5f1085a425f85f0b96b36719,2021-09-08_17h53.56.766,forced_choiceRT,2021.1.2,Win32,59.9880024,,,,,,,,5,Ontime,j,1,2.0329,4,3,19,3,1,,,,,
,1.63,,,,,,,,,f.PNG,f,5f1085a425f85f0b96b36719,2021-09-08_17h53.56.766,forced_choiceRT,2021.1.2,Win32,59.9880024,,,,,,,,5,Slow,g,0,2.1321,5,0,20,0,1,,,,,
,1.12,,,,,,,,,g.PNG,g,5f1085a425f85f0b96b36719,2021-09-08_17h53.56.766,forced_choiceRT,2021.1.2,Win32,59.9880024,,,,,,,,5,Ontime,g,1,2.0455,5,1,21,1,1,,,,,
,1.11,,,,,,,,,h.PNG,h,5f1085a425f85f0b96b36719,2021-09-08_17h53.56.766,forced_choiceRT,2021.1.2,Win32,59.9880024,,,,,,,,5,Ontime,h,1,2.0734,5,2,22,2,1,,,,,
,1.49,,,,,,,,,g.PNG,g,5f1085a425f85f0b96b36719,2021-09-08_17h53.56.766,forced_choiceRT,2021.1.2,Win32,59.9880024,,,,,,,,5,Ontime,h,0,1.9844,5,3,23,1,1,,,,,
,0.69,,,,,,,,,f.PNG,f,5f1085a425f85f0b96b36719,2021-09-08_17h53.56.766,forced_choiceRT,2021.1.2,Win32,59.9880024,,,,,,,,5,Ontime,f,1,1.9664,6,0,24,0,1,,,,,
,0.53,,,,,,,,,g.PNG,g,5f1085a425f85f0b96b36719,2021-09-08_17h53.56.766,forced_choiceRT,2021.1.2,Win32,59.9880024,,,,,,,,5,Ontime,g,1,1.9763,6,1,25,1,1,,,,,
,1.08,,,,,,,,,g.PNG,g,5f1085a425f85f0b96b36719,2021-09-08_17h53.56.766,forced_choiceRT,2021.1.2,Win32,59.9880024,,,,,,,,5,Ontime,g,1,1.9193,6,2,26,1,1,,,,,
,1.22,,,,,,,,,j.PNG,j,5f1085a425f85f0b96b36719,2021-09-08_17h53.56.766,forced_choiceRT,2021.1.2,Win32,59.9880024,,,,,,,,5,Ontime,j,1,1.9455,6,3,27,3,1,,,,,
,0.04,,,,,,,,,f.PNG,f,5f1085a425f85f0b96b36719,2021-09-08_17h53.56.766,forced_choiceRT,2021.1.2,Win32,59.9880024,,,,,,,,5,Fast,f,1,1.7637,7,0,28,0,1,,,,,
,0.87,,,,,,,,,j.PNG,j,5f1085a425f85f0b96b36719,2021-09-08_17h53.56.766,forced_choiceRT,2021.1.2,Win32,59.9880024,,,,,,,,5,Ontime,j,1,2.0549,7,1,29,3,1,,,,,
,1.42,,,,,,,,,h.PNG,h,5f1085a425f85f0b96b36719,2021-09-08_17h53.56.766,forced_choiceRT,2021.1.2,Win32,59.9880024,,,,,,,,5,Ontime,h,1,2.0168,7,2,30,2,1,,,,,
,0.24,,,,,,,,,g.PNG,g,5f1085a425f85f0b96b36719,2021-09-08_17h53.56.766,forced_choiceRT,2021.1.2,Win32,59.9880024,,,,,,,,5,Ontime,g,1,2.0738,7,3,31,1,1,,,,,
,1.15,,,,,,,,,f.PNG,f,5f1085a425f85f0b96b36719,2021-09-08_17h53.56.766,forced_choiceRT,2021.1.2,Win32,59.9880024,,,,,,,,5,Ontime,f,1,1.9745,8,0,32,0,1,,,,,
,1.05,,,,,,,,,h.PNG,h,5f1085a425f85f0b96b36719,2021-09-08_17h53.56.766,forced_choiceRT,2021.1.2,Win32,59.9880024,,,,,,,,5,Ontime,h,1,2.0329,8,1,33,2,1,,,,,
,1.57,,,,,,,,,h.PNG,h,5f1085a425f85f0b96b36719,2021-09-08_17h53.56.766,forced_choiceRT,2021.1.2,Win32,59.9880024,,,,,,,,5,Slow,h,1,2.1258,8,2,34,2,1,,,,,
,0.93,,,,,,,,,h.PNG,h,5f1085a425f85f0b96b36719,2021-09-08_17h53.56.766,forced_choiceRT,2021.1.2,Win32,59.9880024,,,,,,,,5,Ontime,h,1,2.0008,8,3,35,2,1,,,,,
,0.45,,,,,,,,,f.PNG,f,5f1085a425f85f0b96b36719,2021-09-08_17h53.56.766,forced_choiceRT,2021.1.2,Win32,59.9880024,,,,,,,,5,Ontime,f,1,1.9798,9,0,36,0,1,,,,,
,1.45,,,,,,,,,g.PNG,g,5f1085a425f85f0b96b36719,2021-09-08_17h53.56.766,forced_choiceRT,2021.1.2,Win32,59.9880024,,,,,,,,5,Slow,g,1,2.1208,9,1,37,1,1,,,,,
,1.96,,,,,,,,,f.PNG,f,5f1085a425f85f0b96b36719,2021-09-08_17h53.56.766,forced_choiceRT,2021.1.2,Win32,59.9880024,,,,,,,,5,Slow,h,0,2.1309,9,2,38,0,1,,,,,
,0.96,,,,,,,,,j.PNG,j,5f1085a425f85f0b96b36719,2021-09-08_17h53.56.766,forced_choiceRT,2021.1.2,Win32,59.9880024,,,,,,,,5,Ontime,j,1,2.0839,9,3,39,3,1,,,,,
,,,,,,,,,,,,5f1085a425f85f0b96b36719,2021-09-08_17h53.56.766,forced_choiceRT,2021.1.2,Win32,59.9880024,,,,,,,,,,,,,,,,,,4,0,4,0,1
,1.72,,,,,,,,,h.PNG,h,5f1085a425f85f0b96b36719,2021-09-08_17h53.56.766,forced_choiceRT,2021.1.2,Win32,59.9880024,,,,,,,,6,Ontime,f,0,1.9787,0,0,0,2,1,,,,,
,1.61,,,,,,,,,g.PNG,g,5f1085a425f85f0b96b36719,2021-09-08_17h53.56.766,forced_choiceRT,2021.1.2,Win32,59.9880024,,,,,,,,6,Ontime,g,1,2.091,0,1,1,1,1,,,,,
,1.76,,,,,,,,,j.PNG,j,5f1085a425f85f0b96b36719,2021-09-08_17h53.56.766,forced_choiceRT,2021.1.2,Win32,59.9880024,,,,,,,,6,Ontime,j,1,2.0173,0,2,2,3,1,,,,,
,0.38,,,,,,,,,f.PNG,f,5f1085a425f85f0b96b36719,2021-09-08_17h53.56.766,forced_choiceRT,2021.1.2,Win32,59.9880024,,,,,,,,6,Ontime,f,1,1.9504,0,3,3,0,1,,,,,
,0.83,,,,,,,,,j.PNG,j,5f1085a425f85f0b96b36719,2021-09-08_17h53.56.766,forced_choiceRT,2021.1.2,Win32,59.9880024,,,,,,,,6,Ontime,j,1,1.9238,1,0,4,3,1,,,,,
,1.52,,,,,,,,,h.PNG,h,5f1085a425f85f0b96b36719,2021-09-08_17h53.56.766,forced_choiceRT,2021.1.2,Win32,59.9880024,,,,,,,,6,Slow,j,0,2.1212,1,1,5,2,1,,,,,
,0.1,,,,,,,,,g.PNG,g,5f1085a425f85f0b96b36719,2021-09-08_17h53.56.766,forced_choiceRT,2021.1.2,Win32,59.9880024,,,,,,,,6,Ontime,g,1,2.0594,1,2,6,1,1,,,,,
,0.02,,,,,,,,,h.PNG,h,5f1085a425f85f0b96b36719,2021-09-08_17h53.56.766,forced_choiceRT,2021.1.2,Win32,59.9880024,,,,,,,,6,Ontime,h,1,2.0403,1,3,7,2,1,,,,,
,1.17,,,,,,,,,h.PNG,h,5f1085a425f85f0b96b36719,2021-09-08_17h53.56.766,forced_choiceRT,2021.1.2,Win32,59.9880024,,,,,,,,6,Ontime,h,1,2.0543,2,0,8,2,1,,,,,
,0.56,,,,,,,,,f.PNG,f,5f1085a425f85f0b96b36719,2021-09-08_17h53.56.766,forced_choiceRT,2021.1.2,Win32,59.9880024,,,,,,,,6,Ontime,g,0,2.0177,2,1,9,0,1,,,,,
,1.99,,,,,,,,,h.PNG,h,5f1085a425f85f0b96b36719,2021-09-08_17h53.56.766,forced_choiceRT,2021.1.2,Win32,59.9880024,,,,,,,,6,Ontime,j,0,2.0261,2,2,10,2,1,,,,,
,0.56,,,,,,,,,f.PNG,f,5f1085a425f85f0b96b36719,2021-09-08_17h53.56.766,forced_choiceRT,2021.1.2,Win32,59.9880024,,,,,,,,6,Ontime,f,1,2.0946,2,3,11,0,1,,,,,
,1.75,,,,,,,,,g.PNG,g,5f1085a425f85f0b96b36719,2021-09-08_17h53.56.766,forced_choiceRT,2021.1.2,Win32,59.9880024,,,,,,,,6,Ontime,g,1,2.0161,3,0,12,1,1,,,,,
,0.32,,,,,,,,,g.PNG,g,5f1085a425f85f0b96b36719,2021-09-08_17h53.56.766,forced_choiceRT,2021.1.2,Win32,59.9880024,,,,,,,,6,Ontime,g,1,1.9956,3,1,13,1,1,,,,,
,1.28,,,,,,,,,f.PNG,f,5f1085a425f85f0b96b36719,2021-09-08_17h53.56.766,forced_choiceRT,2021.1.2,Win32,59.9880024,,,,,,,,6,Ontime,f,1,2.0089,3,2,14,0,1,,,,,
,1.06,,,,,,,,,f.PNG,f,5f1085a425f85f0b96b36719,2021-09-08_17h53.56.766,forced_choiceRT,2021.1.2,Win32,59.9880024,,,,,,,,6,Fast,f,1,1.8824,3,3,15,0,1,,,,,
,1.98,,,,,,,,,j.PNG,j,5f1085a425f85f0b96b36719,2021-09-08_17h53.56.766,forced_choiceRT,2021.1.2,Win32,59.9880024,,,,,,,,6,Ontime,f,0,2.0462,4,0,16,3,1,,,,,
,0.9,,,,,,,,,g.PNG,g,5f1085a425f85f0b96b36719,2021-09-08_17h53.56.766,forced_choiceRT,2021.1.2,Win32,59.9880024,,,,,,,,6,Ontime,g,1,1.9809,4,1,17,1,1,,,,,
,0.54,,,,,,,,,f.PNG,f,5f1085a425f85f0b96b36719,2021-09-08_17h53.56.766,forced_choiceRT,2021.1.2,Win32,59.9880024,,,,,,,,6,Ontime,f,1,2.0004,4,2,18,0,1,,,,,
,0.47,,,,,,,,,h.PNG,h,5f1085a425f85f0b96b36719,2021-09-08_17h53.56.766,forced_choiceRT,2021.1.2,Win32,59.9880024,,,,,,,,6,Ontime,h,1,1.9887,4,3,19,2,1,,,,,
,0.16,,,,,,,,,f.PNG,f,5f1085a425f85f0b96b36719,2021-09-08_17h53.56.766,forced_choiceRT,2021.1.2,Win32,59.9880024,,,,,,,,6,Ontime,g,0,2.0175,5,0,20,0,1,,,,,
,1.9,,,,,,,,,j.PNG,j,5f1085a425f85f0b96b36719,2021-09-08_17h53.56.766,forced_choiceRT,2021.1.2,Win32,59.9880024,,,,,,,,6,Ontime,g,0,2.0756,5,1,21,3,1,,,,,
,1.34,,,,,,,,,h.PNG,h,5f1085a425f85f0b96b36719,2021-09-08_17h53.56.766,forced_choiceRT,2021.1.2,Win32,59.9880024,,,,,,,,6,Slow,h,1,2.1437,5,2,22,2,1,,,,,
,1.33,,,,,,,,,h.PNG,h,5f1085a425f85f0b96b36719,2021-09-08_17h53.56.766,forced_choiceRT,2021.1.2,Win32,59.9880024,,,,,,,,6,Slow,h,1,2.2419,5,3,23,2,1,,,,,
,0.32,,,,,,,,,f.PNG,f,5f1085a425f85f0b96b36719,2021-09-08_17h53.56.766,forced_choiceRT,2021.1.2,Win32,59.9880024,,,,,,,,6,Ontime,f,1,2.059,6,0,24,0,1,,,,,
,1.12,,,,,,,,,j.PNG,j,5f1085a425f85f0b96b36719,2021-09-08_17h53.56.766,forced_choiceRT,2021.1.2,Win32,59.9880024,,,,,,,,6,Ontime,j,1,1.9805,6,1,25,3,1,,,,,
,0.3,,,,,,,,,g.PNG,g,5f1085a425f85f0b96b36719,2021-09-08_17h53.56.766,forced_choiceRT,2021.1.2,Win32,59.9880024,,,,,,,,6,Ontime,g,1,2.0212,6,2,26,1,1,,,,,
,1.01,,,,,,,,,f.PNG,f,5f1085a425f85f0b96b36719,2021-09-08_17h53.56.766,forced_choiceRT,2021.1.2,Win32,59.9880024,,,,,,,,6,Ontime,f,1,1.9805,6,3,27,0,1,,,,,
,0.22,,,,,,,,,j.PNG,j,5f1085a425f85f0b96b36719,2021-09-08_17h53.56.766,forced_choiceRT,2021.1.2,Win32,59.9880024,,,,,,,,6,Ontime,j,1,1.9759,7,0,28,3,1,,,,,
,0.74,,,,,,,,,g.PNG,g,5f1085a425f85f0b96b36719,2021-09-08_17h53.56.766,forced_choiceRT,2021.1.2,Win32,59.9880024,,,,,,,,6,Ontime,g,1,2.0365,7,1,29,1,1,,,,,
,1.24,,,,,,,,,j.PNG,j,5f1085a425f85f0b96b36719,2021-09-08_17h53.56.766,forced_choiceRT,2021.1.2,Win32,59.9880024,,,,,,,,6,Ontime,j,1,1.9937,7,2,30,3,1,,,,,
,0.85,,,,,,,,,f.PNG,f,5f1085a425f85f0b96b36719,2021-09-08_17h53.56.766,forced_choiceRT,2021.1.2,Win32,59.9880024,,,,,,,,6,Ontime,f,1,1.9496,7,3,31,0,1,,,,,
,0.84,,,,,,,,,h.PNG,h,5f1085a425f85f0b96b36719,2021-09-08_17h53.56.766,forced_choiceRT,2021.1.2,Win32,59.9880024,,,,,,,,6,Fast,h,1,1.739,8,0,32,2,1,,,,,
,0.32,,,,,,,,,j.PNG,j,5f1085a425f85f0b96b36719,2021-09-08_17h53.56.766,forced_choiceRT,2021.1.2,Win32,59.9880024,,,,,,,,6,Fast,j,1,1.7884,8,1,33,3,1,,,,,
,1.1,,,,,,,,,j.PNG,j,5f1085a425f85f0b96b36719,2021-09-08_17h53.56.766,forced_choiceRT,2021.1.2,Win32,59.9880024,,,,,,,,6,Ontime,j,1,1.948,8,2,34,3,1,,,,,
,1.7,,,,,,,,,g.PNG,g,5f1085a425f85f0b96b36719,2021-09-08_17h53.56.766,forced_choiceRT,2021.1.2,Win32,59.9880024,,,,,,,,6,Ontime,h,0,1.9585,8,3,35,1,1,,,,,
,0.73,,,,,,,,,h.PNG,h,5f1085a425f85f0b96b36719,2021-09-08_17h53.56.766,forced_choiceRT,2021.1.2,Win32,59.9880024,,,,,,,,6,Fast,h,1,1.8261,9,0,36,2,1,,,,,
,1.52,,,,,,,,,g.PNG,g,5f1085a425f85f0b96b36719,2021-09-08_17h53.56.766,forced_choiceRT,2021.1.2,Win32,59.9880024,,,,,,,,6,Ontime,g,1,2.0046,9,1,37,1,1,,,,,
,1.87,,,,,,,,,j.PNG,j,5f1085a425f85f0b96b36719,2021-09-08_17h53.56.766,forced_choiceRT,2021.1.2,Win32,59.9880024,,,,,,,,6,Slow,f,0,2.1726,9,2,38,3,1,,,,,
,0.54,,,,,,,,,g.PNG,g,5f1085a425f85f0b96b36719,2021-09-08_17h53.56.766,forced_choiceRT,2021.1.2,Win32,59.9880024,,,,,,,,6,Ontime,g,1,2.0178,9,3,39,1,1,,,,,
,,,,,,,,,,,,5f1085a425f85f0b96b36719,2021-09-08_17h53.56.766,forced_choiceRT,2021.1.2,Win32,59.9880024,,,,,,,,,,,,,,,,,,5,0,5,0,1
,0.06,,,,,,,,,h.PNG,h,5f1085a425f85f0b96b36719,2021-09-08_17h53.56.766,forced_choiceRT,2021.1.2,Win32,59.9880024,,,,,,,,7,Ontime,h,1,2.0101,0,0,0,2,1,,,,,
,1.67,,,,,,,,,j.PNG,j,5f1085a425f85f0b96b36719,2021-09-08_17h53.56.766,forced_choiceRT,2021.1.2,Win32,59.9880024,,,,,,,,7,Slow,j,1,2.1787,0,1,1,3,1,,,,,
,0.14,,,,,,,,,f.PNG,f,5f1085a425f85f0b96b36719,2021-09-08_17h53.56.766,forced_choiceRT,2021.1.2,Win32,59.9880024,,,,,,,,7,Ontime,f,1,1.9543,0,2,2,0,1,,,,,
,1.7,,,,,,,,,h.PNG,h,5f1085a425f85f0b96b36719,2021-09-08_17h53.56.766,forced_choiceRT,2021.1.2,Win32,59.9880024,,,,,,,,7,Ontime,g,0,1.9619,0,3,3,2,1,,,,,
,1.41,,,,,,,,,g.PNG,g,5f1085a425f85f0b96b36719,2021-09-08_17h53.56.766,forced_choiceRT,2021.1.2,Win32,59.9880024,,,,,,,,7,Ontime,g,1,1.9905,1,0,4,1,1,,,,,
,0.85,,,,,,,,,f.PNG,f,5f1085a425f85f0b96b36719,2021-09-08_17h53.56.766,forced_choiceRT,2021.1.2,Win32,59.9880024,,,,,,,,7,Fast,f,1,1.8823,1,1,5,0,1,,,,,
,1.9,,,,,,,,,g.PNG,g,5f1085a425f85f0b96b36719,2021-09-08_17h53.56.766,forced_choiceRT,2021.1.2,Win32,59.9880024,,,,,,,,7,Ontime,h,0,2.0631,1,2,6,1,1,,,,,
,1.37,,,,,,,,,j.PNG,j,5f1085a425f85f0b96b36719,2021-09-08_17h53.56.766,forced_choiceRT,2021.1.2,Win32,59.9880024,,,,,,,,7,Ontime,h,0,2.0005,1,3,7,3,1,,,,,
,1.19,,,,,,,,,j.PNG,j,5f1085a425f85f0b96b36719,2021-09-08_17h53.56.766,forced_choiceRT,2021.1.2,Win32,59.9880024,,,,,,,,7,Ontime,j,1,1.9477,2,0,8,3,1,,,,,
,0.27,,,,,,,,,f.PNG,f,5f1085a425f85f0b96b36719,2021-09-08_17h53.56.766,forced_choiceRT,2021.1.2,Win32,59.9880024,,,,,,,,7,Ontime,f,1,1.967,2,1,9,0,1,,,,,
,1.89,,,,,,,,,f.PNG,f,5f1085a425f85f0b96b36719,2021-09-08_17h53.56.766,forced_choiceRT,2021.1.2,Win32,59.9880024,,,,,,,,7,Ontime,f,1,2.0465,2,2,10,0,1,,,,,
,0.98,,,,,,,,,j.PNG,j,5f1085a425f85f0b96b36719,2021-09-08_17h53.56.766,forced_choiceRT,2021.1.2,Win32,59.9880024,,,,,,,,7,Slow,j,1,2.1249,2,3,11,3,1,,,,,
,1.42,,,,,,,,,g.PNG,g,5f1085a425f85f0b96b36719,2021-09-08_17h53.56.766,forced_choiceRT,2021.1.2,Win32,59.9880024,,,,,,,,7,Slow,g,1,2.1111,3,0,12,1,1,,,,,
,1.2,,,,,,,,,g.PNG,g,5f1085a425f85f0b96b36719,2021-09-08_17h53.56.766,forced_choiceRT,2021.1.2,Win32,59.9880024,,,,,,,,7,Ontime,g,1,1.9985,3,1,13,1,1,,,,,
,0.91,,,,,,,,,f.PNG,f,5f1085a425f85f0b96b36719,2021-09-08_17h53.56.766,forced_choiceRT,2021.1.2,Win32,59.9880024,,,,,,,,7,Ontime,f,1,2.025,3,2,14,0,1,,,,,
,1.38,,,,,,,,,h.PNG,h,5f1085a425f85f0b96b36719,2021-09-08_17h53.56.766,forced_choiceRT,2021.1.2,Win32,59.9880024,,,,,,,,7,Ontime,j,0,1.9957,3,3,15,2,1,,,,,
,1.83,,,,,,,,,h.PNG,h,5f1085a425f85f0b96b36719,2021-09-08_17h53.56.766,forced_choiceRT,2021.1.2,Win32,59.9880024,,,,,,,,7,Ontime,g,0,1.9783,4,0,16,2,1,,,,,
,0.65,,,,,,,,,f.PNG,f,5f1085a425f85f0b96b36719,2021-09-08_17h53.56.766,forced_choiceRT,2021.1.2,Win32,59.9880024,,,,,,,,7,Ontime,f,1,2.045,4,1,17,0,1,,,,,
,1.67,,,,,,,,,g.PNG,g,5f1085a425f85f0b96b36719,2021-09-08_17h53.56.766,forced_choiceRT,2021.1.2,Win32,59.9880024,,,,,,,,7,Ontime,h,0,2.0168,4,2,18,1,1,,,,,
,0.94,,,,,,,,,g.PNG,g,5f1085a425f85f0b96b36719,2021-09-08_17h53.56.766,forced_choiceRT,2021.1.2,Win32,59.9880024,,,,,,,,7,Ontime,g,1,1.9802,4,3,19,1,1,,,,,
,1.98,,,,,,,,,h.PNG,h,5f1085a425f85f0b96b36719,2021-09-08_17h53.56.766,forced_choiceRT,2021.1.2,Win32,59.9880024,,,,,,,,7,Slow,g,0,2.2114,5,0,20,2,1,,,,,
,0.7,,,,,,,,,j.PNG,j,5f1085a425f85f0b96b36719,2021-09-08_17h53.56.766,forced_choiceRT,2021.1.2,Win32,59.9880024,,,,,,,,7,Ontime,j,1,2.045,5,1,21,3,1,,,,,
,1.54,,,,,,,,,j.PNG,j,5f1085a425f85f0b96b36719,2021-09-08_17h53.56.766,forced_choiceRT,2021.1.2,Win32,59.9880024,,,,,,,,7,Ontime,h,0,2.0685,5,2,22,3,1,,,,,
,0.23,,,,,,,,,h.PNG,h,5f1085a425f85f0b96b36719,2021-09-08_17h53.56.766,forced_choiceRT,2021.1.2,Win32,59.9880024,,,,,,,,7,Ontime,h,1,1.9678,5,3,23,2,1,,,,,
,0.87,,,,,,,,,g.PNG,g,5f1085a425f85f0b96b36719,2021-09-08_17h53.56.766,forced_choiceRT,2021.1.2,Win32,59.9880024,,,,,,,,7,Ontime,g,1,2.0288,6,0,24,1,1,,,,,
,1.1,,,,,,,,,j.PNG,j,5f1085a425f85f0b96b36719,2021-09-08_17h53.56.766,forced_choiceRT,2021.1.2,Win32,59.9880024,,,,,,,,7,Ontime,j,1,1.917,6,1,25,3,1,,,,,
,1.33,,,,,,,,,h.PNG,h,5f1085a425f85f0b96b36719,2021-09-08_17h53.56.766,forced_choiceRT,2021.1.2,Win32,59.9880024,,,,,,,,7,Ontime,h,1,2.0636,6,2,26,2,1,,,,,
,0.79,,,,,,,,,g.PNG,g,5f1085a425f85f0b96b36719,2021-09-08_17h53.56.766,forced_choiceRT,2021.1.2,Win32,59.9880024,,,,,,,,7,Ontime,g,1,1.9809,6,3,27,1,1,,,,,
,1.79,,,,,,,,,g.PNG,g,5f1085a425f85f0b96b36719,2021-09-08_17h53.56.766,forced_choiceRT,2021.1.2,Win32,59.9880024,,,,,,,,7,Ontime,h,0,1.9886,7,0,28,1,1,,,,,
,1.17,,,,,,,,,f.PNG,f,5f1085a425f85f0b96b36719,2021-09-08_17h53.56.766,forced_choiceRT,2021.1.2,Win32,59.9880024,,,,,,,,7,Ontime,f,1,1.9563,7,1,29,0,1,,,,,
,1.33,,,,,,,,,h.PNG,h,5f1085a425f85f0b96b36719,2021-09-08_17h53.56.766,forced_choiceRT,2021.1.2,Win32,59.9880024,,,,,,,,7,Ontime,h,1,2.0298,7,2,30,2,1,,,,,
,1.19,,,,,,,,,f.PNG,f,5f1085a425f85f0b96b36719,2021-09-08_17h53.56.766,forced_choiceRT,2021.1.2,Win32,59.9880024,,,,,,,,7,Ontime,f,1,1.9824,7,3,31,0,1,,,,,
,0.45,,,,,,,,,f.PNG,f,5f1085a425f85f0b96b36719,2021-09-08_17h53.56.766,forced_choiceRT,2021.1.2,Win32,59.9880024,,,,,,,,7,Ontime,f,1,1.9642,8,0,32,0,1,,,,,
,1.2,,,,,,,,,g.PNG,g,5f1085a425f85f0b96b36719,2021-09-08_17h53.56.766,forced_choiceRT,2021.1.2,Win32,59.9880024,,,,,,,,7,Slow,f,0,2.1818,8,1,33,1,1,,,,,
,1.25,,,,,,,,,h.PNG,h,5f1085a425f85f0b96b36719,2021-09-08_17h53.56.766,forced_choiceRT,2021.1.2,Win32,59.9880024,,,,,,,,7,Ontime,h,1,1.9502,8,2,34,2,1,,,,,
,0.84,,,,,,,,,f.PNG,f,5f1085a425f85f0b96b36719,2021-09-08_17h53.56.766,forced_choiceRT,2021.1.2,Win32,59.9880024,,,,,,,,7,Ontime,f,1,1.9274,8,3,35,0,1,,,,,
,1.97,,,,,,,,,j.PNG,j,5f1085a425f85f0b96b36719,2021-09-08_17h53.56.766,forced_choiceRT,2021.1.2,Win32,59.9880024,,,,,,,,7,Ontime,h,0,1.9542,9,0,36,3,1,,,,,
,1.57,,,,,,,,,j.PNG,j,5f1085a425f85f0b96b36719,2021-09-08_17h53.56.766,forced_choiceRT,2021.1.2,Win32,59.9880024,,,,,,,,7,Ontime,f,0,1.9797,9,1,37,3,1,,,,,
,0.11,,,,,,,,,h.PNG,h,5f1085a425f85f0b96b36719,2021-09-08_17h53.56.766,forced_choiceRT,2021.1.2,Win32,59.9880024,,,,,,,,7,Ontime,h,1,2.0515,9,2,38,2,1,,,,,
,0.85,,,,,,,,,j.PNG,j,5f1085a425f85f0b96b36719,2021-09-08_17h53.56.766,forced_choiceRT,2021.1.2,Win32,59.9880024,,,,,,,,7,Ontime,j,1,1.978,9,3,39,3,1,,,,,
,,,,,,,,,,,,5f1085a425f85f0b96b36719,2021-09-08_17h53.56.766,forced_choiceRT,2021.1.2,Win32,59.9880024,,,,,,,,,,,,,,,,,,6,0,6,0,1
,1.4,,,,,,,,,h.PNG,h,5f1085a425f85f0b96b36719,2021-09-08_17h53.56.766,forced_choiceRT,2021.1.2,Win32,59.9880024,,,,,,,,8,Ontime,j,0,2.0002,0,0,0,2,1,,,,,
,1.82,,,,,,,,,g.PNG,g,5f1085a425f85f0b96b36719,2021-09-08_17h53.56.766,forced_choiceRT,2021.1.2,Win32,59.9880024,,,,,,,,8,Ontime,h,0,2.0798,0,1,1,1,1,,,,,
,0.68,,,,,,,,,g.PNG,g,5f1085a425f85f0b96b36719,2021-09-08_17h53.56.766,forced_choiceRT,2021.1.2,Win32,59.9880024,,,,,,,,8,Ontime,g,1,1.9551,0,2,2,1,1,,,,,
,0.3,,,,,,,,,j.PNG,j,5f1085a425f85f0b96b36719,2021-09-08_17h53.56.766,forced_choiceRT,2021.1.2,Win32,59.9880024,,,,,,,,8,Ontime,j,1,1.9419,0,3,3,3,1,,,,,
,1.63,,,,,,,,,f.PNG,f,5f1085a425f85f0b96b36719,2021-09-08_17h53.56.766,forced_choiceRT,2021.1.2,Win32,59.9880024,,,,,,,,8,Slow,f,1,2.1118,1,0,4,0,1,,,,,
,1.9,,,,,,,,,f.PNG,f,5f1085a425f85f0b96b36719,2021-09-08_17h53.56.766,forced_choiceRT,2021.1.2,Win32,59.9880024,,,,,,,,8,Ontime,j,0,2.006,1,1,5,0,1,,,,,
,1.61,,,,,,,,,f.PNG,f,5f1085a425f85f0b96b36719,2021-09-08_17h53.56.766,forced_choiceRT,2021.1.2,Win32,59.9880024,,,,,,,,8,Ontime,f,1,1.978,1,2,6,0,1,,,,,
,1.35,,,,,,,,,g.PNG,g,5f1085a425f85f0b96b36719,2021-09-08_17h53.56.766,forced_choiceRT,2021.1.2,Win32,59.9880024,,,,,,,,8,Ontime,f,0,1.9143,1,3,7,1,1,,,,,
,0.99,,,,,,,,,g.PNG,g,5f1085a425f85f0b96b36719,2021-09-08_17h53.56.766,forced_choiceRT,2021.1.2,Win32,59.9880024,,,,,,,,8,Fast,g,1,1.8455,2,0,8,1,1,,,,,
,1.57,,,,,,,,,h.PNG,h,5f1085a425f85f0b96b36719,2021-09-08_17h53.56.766,forced_choiceRT,2021.1.2,Win32,59.9880024,,,,,,,,8,Slow,g,0,2.1145,2,1,9,2,1,,,,,
,1.98,,,,,,,,,h.PNG,h,5f1085a425f85f0b96b36719,2021-09-08_17h53.56.766,forced_choiceRT,2021.1.2,Win32,59.9880024,,,,,,,,8,Ontime,h,1,2.005,2,2,10,2,1,,,,,
,1.96,,,,,,,,,j.PNG,j,5f1085a425f85f0b96b36719,2021-09-08_17h53.56.766,forced_choiceRT,2021.1.2,Win32,59.9880024,,,,,,,,8,Ontime,g,0,1.9655,2,3,11,3,1,,,,,
,0.22,,,,,,,,,h.PNG,h,5f1085a425f85f0b96b36719,2021-09-08_17h53.56.766,forced_choiceRT,2021.1.2,Win32,59.9880024,,,,,,,,8,Ontime,h,1,1.9336,3,0,12,2,1,,,,,
,0.45,,,,,,,,,j.PNG,j,5f1085a425f85f0b96b36719,2021-09-08_17h53.56.766,forced_choiceRT,2021.1.2,Win32,59.9880024,,,,,,,,8,Ontime,j,1,2.0088,3,1,13,3,1,,,,,
,0.84,,,,,,,,,j.PNG,j,5f1085a425f85f0b96b36719,2021-09-08_17h53.56.766,forced_choiceRT,2021.1.2,Win32,59.9880024,,,,,,,,8,Ontime,j,1,1.9514,3,2,14,3,1,,,,,
,1.76,,,,,,,,,h.PNG,h,5f1085a425f85f0b96b36719,2021-09-08_17h53.56.766,forced_choiceRT,2021.1.2,Win32,59.9880024,,,,,,,,8,Ontime,g,0,2.0423,3,3,15,2,1,,,,,
,1.04,,,,,,,,,f.PNG,f,5f1085a425f85f0b96b36719,2021-09-08_17h53.56.766,forced_choiceRT,2021.1.2,Win32,59.9880024,,,,,,,,8,Ontime,f,1,2.0147,4,0,16,0,1,,,,,
,1.76,,,,,,,,,h.PNG,h,5f1085a425f85f0b96b36719,2021-09-08_17h53.56.766,forced_choiceRT,2021.1.2,Win32,59.9880024,,,,,,,,8,Ontime,h,1,1.9688,4,1,17,2,1,,,,,
,1.22,,,,,,,,,g.PNG,g,5f1085a425f85f0b96b36719,2021-09-08_17h53.56.766,forced_choiceRT,2021.1.2,Win32,59.9880024,,,,,,,,8,Ontime,g,1,2.0168,4,2,18,1,1,,,,,
,1.69,,,,,,,,,f.PNG,f,5f1085a425f85f0b96b36719,2021-09-08_17h53.56.766,forced_choiceRT,2021.1.2,Win32,59.9880024,,,,,,,,8,Ontime,g,0,2.0285,4,3,19,0,1,,,,,
,0.99,,,,,,,,,h.PNG,h,5f1085a425f85f0b96b36719,2021-09-08_17h53.56.766,forced_choiceRT,2021.1.2,Win32,59.9880024,,,,,,,,8,Ontime,g,0,1.9648,5,0,20,2,1,,,,,
,1.54,,,,,,,,,g.PNG,g,5f1085a425f85f0b96b36719,2021-09-08_17h53.56.766,forced_choiceRT,2021.1.2,Win32,59.9880024,,,,,,,,8,Ontime,f,0,2.0005,5,1,21,1,1,,,,,
,0.63,,,,,,,,,g.PNG,g,5f1085a425f85f0b96b36719,2021-09-08_17h53.56.766,forced_choiceRT,2021.1.2,Win32,59.9880024,,,,,,,,8,Ontime,g,1,1.9312,5,2,22,1,1,,,,,
,0.95,,,,,,,,,j.PNG,j,5f1085a425f85f0b96b36719,2021-09-08_17h53.56.766,forced_choiceRT,2021.1.2,Win32,59.9880024,,,,,,,,8,Ontime,j,1,1.9666,5,3,23,3,1,,,,,
,1.36,,,,,,,,,j.PNG,j,5f1085a425f85f0b96b36719,2021-09-08_17h53.56.766,forced_choiceRT,2021.1.2,Win32,59.9880024,,,,,,,,8,Ontime,j,1,1.9723,6,0,24,3,1,,,,,
,1.78,,,,,,,,,h.PNG,h,5f1085a425f85f0b96b36719,2021-09-08_17h53.56.766,forced_choiceRT,2021.1.2,Win32,59.9880024,,,,,,,,8,Ontime,j,0,2.0549,6,1,25,2,1,,,,,
,0.67,,,,,,,,,f.PNG,f,5f1085a425f85f0b96b36719,2021-09-08_17h53.56.766,forced_choiceRT,2021.1.2,Win32,59.9880024,,,,,,,,8,Ontime,f,1,1.9322,6,2,26,0,1,,,,,
,1.78,,,,,,,,,f.PNG,f,5f1085a425f85f0b96b36719,2021-09-08_17h53.56.766,forced_choiceRT,2021.1.2,Win32,59.9880024,,,,,,,,8,Ontime,f,1,2.0163,6,3,27,0,1,,,,,
,0.1,,,,,,,,,j.PNG,j,5f1085a425f85f0b96b36719,2021-09-08_17h53.56.766,forced_choiceRT,2021.1.2,Win32,59.9880024,,,,,,,,8,Ontime,j,1,1.917,7,0,28,3,1,,,,,
,0.99,,,,,,,,,h.PNG,h,5f1085a425f85f0b96b36719,2021-09-08_17h53.56.766,forced_choiceRT,2021.1.2,Win32,59.9880024,,,,,,,,8,Fast,h,1,1.898,7,1,29,2,1,,,,,
,1.64,,,,,,,,,f.PNG,f,5f1085a425f85f0b96b36719,2021-09-08_17h53.56.766,forced_choiceRT,2021.1.2,Win32,59.9880024,,,,,,,,8,Slow,j,0,7.1235,7,2,30,0,1,,,,,
,1.34,,,,,,,,,f.PNG,f,5f1085a425f85f0b96b36719,2021-09-08_17h53.56.766,forced_choiceRT,2021.1.2,Win32,59.9880024,,,,,,,,8,Fast,f,1,1.7168,7,3,31,0,1,,,,,
,0.35,,,,,,,,,f.PNG,f,5f1085a425f85f0b96b36719,2021-09-08_17h53.56.766,forced_choiceRT,2021.1.2,Win32,59.9880024,,,,,,,,8,Ontime,f,1,1.9364,8,0,32,0,1,,,,,
,1.24,,,,,,,,,j.PNG,j,5f1085a425f85f0b96b36719,2021-09-08_17h53.56.766,forced_choiceRT,2021.1.2,Win32,59.9880024,,,,,,,,8,Ontime,j,1,1.9699,8,1,33,3,1,,,,,
,1.19,,,,,,,,,g.PNG,g,5f1085a425f85f0b96b36719,2021-09-08_17h53.56.766,forced_choiceRT,2021.1.2,Win32,59.9880024,,,,,,,,8,Fast,g,1,1.8587,8,2,34,1,1,,,,,
,1.49,,,,,,,,,g.PNG,g,5f1085a425f85f0b96b36719,2021-09-08_17h53.56.766,forced_choiceRT,2021.1.2,Win32,59.9880024,,,,,,,,8,Ontime,g,1,1.9728,8,3,35,1,1,,,,,
,0.14,,,,,,,,,j.PNG,j,5f1085a425f85f0b96b36719,2021-09-08_17h53.56.766,forced_choiceRT,2021.1.2,Win32,59.9880024,,,,,,,,8,Ontime,j,1,1.9913,9,0,36,3,1,,,,,
,1.42,,,,,,,,,g.PNG,g,5f1085a425f85f0b96b36719,2021-09-08_17h53.56.766,forced_choiceRT,2021.1.2,Win32,59.9880024,,,,,,,,8,Ontime,g,1,1.9614,9,1,37,1,1,,,,,
,1.64,,,,,,,,,h.PNG,h,5f1085a425f85f0b96b36719,2021-09-08_17h53.56.766,forced_choiceRT,2021.1.2,Win32,59.9880024,,,,,,,,8,Ontime,g,0,2.0342,9,2,38,2,1,,,,,
,0.02,,,,,,,,,j.PNG,j,5f1085a425f85f0b96b36719,2021-09-08_17h53.56.766,forced_choiceRT,2021.1.2,Win32,59.9880024,,,,,,,,8,Fast,j,1,1.6479,9,3,39,3,1,,,,,
,,,,,,,,,,,,5f1085a425f85f0b96b36719,2021-09-08_17h53.56.766,forced_choiceRT,2021.1.2,Win32,59.9880024,,,,,,,,,,,,,,,,,,7,0,7,0,1
,0.17,,,,,,,,,f.PNG,f,5f1085a425f85f0b96b36719,2021-09-08_17h53.56.766,forced_choiceRT,2021.1.2,Win32,59.9880024,,,,,,,,9,Ontime,f,1,2.0103,0,0,0,0,1,,,,,
,0.56,,,,,,,,,f.PNG,f,5f1085a425f85f0b96b36719,2021-09-08_17h53.56.766,forced_choiceRT,2021.1.2,Win32,59.9880024,,,,,,,,9,Ontime,f,1,1.9713,0,1,1,0,1,,,,,
,0.29,,,,,,,,,g.PNG,g,5f1085a425f85f0b96b36719,2021-09-08_17h53.56.766,forced_choiceRT,2021.1.2,Win32,59.9880024,,,,,,,,9,Fast,g,1,1.896,0,2,2,1,1,,,,,
,0.82,,,,,,,,,h.PNG,h,5f1085a425f85f0b96b36719,2021-09-08_17h53.56.766,forced_choiceRT,2021.1.2,Win32,59.9880024,,,,,,,,9,Ontime,j,0,2.0847,0,3,3,2,1,,,,,
,1.42,,,,,,,,,j.PNG,j,5f1085a425f85f0b96b36719,2021-09-08_17h53.56.766,forced_choiceRT,2021.1.2,Win32,59.9880024,,,,,,,,9,Slow,j,1,2.1681,1,0,4,3,1,,,,,
,1.18,,,,,,,,,j.PNG,j,5f1085a425f85f0b96b36719,2021-09-08_17h53.56.766,forced_choiceRT,2021.1.2,Win32,59.9880024,,,,,,,,9,Slow,j,1,2.1124,1,1,5,3,1,,,,,
,1.18,,,,,,,,,f.PNG,f,5f1085a425f85f0b96b36719,2021-09-08_17h53.56.766,forced_choiceRT,2021.1.2,Win32,59.9880024,,,,,,,,9,Ontime,f,1,2.0331,1,2,6,0,1,,,,,
,0.74,,,,,,,,,h.PNG,h,5f1085a425f85f0b96b36719,2021-09-08_17h53.56.766,forced_choiceRT,2021.1.2,Win32,59.9880024,,,,,,,,9,Ontime,h,1,2.0295,1,3,7,2,1,,,,,
,0.49,,,,,,,,,g.PNG,g,5f1085a425f85f0b96b36719,2021-09-08_17h53.56.766,forced_choiceRT,2021.1.2,Win32,59.9880024,,,,,,,,9,Ontime,g,1,1.955,2,0,8,1,1,,,,,
,1.82,,,,,,,,,f.PNG,f,5f1085a425f85f0b96b36719,2021-09-08_17h53.56.766,forced_choiceRT,2021.1.2,Win32,59.9880024,,,,,,,,9,Ontime,g,0,2.0493,2,1,9,0,1,,,,,
,0.12,,,,,,,,,f.PNG,f,5f1085a425f85f0b96b36719,2021-09-08_17h53.56.766,forced_choiceRT,2021.1.2,Win32,59.9880024,,,,,,,,9,Ontime,f,1,1.9025,2,2,10,0,1,,,,,
,1.65,,,,,,,,,h.PNG,h,5f1085a425f85f0b96b36719,2021-09-08_17h53.56.766,forced_choiceRT,2021.1.2,Win32,59.9880024,,,,,,,,9,Ontime,f,0,2.0002,2,3,11,2,1,,,,,
,1.77,,,,,,,,,h.PNG,h,5f1085a425f85f0b96b36719,2021-09-08_17h53.56.766,forced_choiceRT,2021.1.2,Win32,59.9880024,,,,,,,,9,Slow,h,1,2.2417,3,0,12,2,1,,,,,
,0.84,,,,,,,,,j.PNG,j,5f1085a425f85f0b96b36719,2021-09-08_17h53.56.766,forced_choiceRT,2021.1.2,Win32,59.9880024,,,,,,,,9,Ontime,j,1,1.9191,3,1,13,3,1,,,,,
,0.17,,,,,,,,,h.PNG,h,5f1085a425f85f0b96b36719,2021-09-08_17h53.56.766,forced_choiceRT,2021.1.2,Win32,59.9880024,,,,,,,,9,Ontime,h,1,1.9535,3,2,14,2,1,,,,,
,1.89,,,,,,,,,h.PNG,h,5f1085a425f85f0b96b36719,2021-09-08_17h53.56.766,forced_choiceRT,2021.1.2,Win32,59.9880024,,,,,,,,9,Ontime,f,0,1.9789,3,3,15,2,1,,,,,
,1.4,,,,,,,,,h.PNG,h,5f1085a425f85f0b96b36719,2021-09-08_17h53.56.766,forced_choiceRT,2021.1.2,Win32,59.9880024,,,,,,,,9,Slow,j,0,2.1167,4,0,16,2,1,,,,,
,0.1,,,,,,,,,g.PNG,g,5f1085a425f85f0b96b36719,2021-09-08_17h53.56.766,forced_choiceRT,2021.1.2,Win32,59.9880024,,,,,,,,9,Ontime,g,1,2.0351,4,1,17,1,1,,,,,
,1.82,,,,,,,,,j.PNG,j,5f1085a425f85f0b96b36719,2021-09-08_17h53.56.766,forced_choiceRT,2021.1.2,Win32,59.9880024,,,,,,,,9,Ontime,h,0,2.0667,4,2,18,3,1,,,,,
,0.96,,,,,,,,,f.PNG,f,5f1085a425f85f0b96b36719,2021-09-08_17h53.56.766,forced_choiceRT,2021.1.2,Win32,59.9880024,,,,,,,,9,Ontime,f,1,2.0505,4,3,19,0,1,,,,,
,1.56,,,,,,,,,f.PNG,f,5f1085a425f85f0b96b36719,2021-09-08_17h53.56.766,forced_choiceRT,2021.1.2,Win32,59.9880024,,,,,,,,9,Ontime,g,0,2.0338,5,0,20,0,1,,,,,
,1.1,,,,,,,,,j.PNG,j,5f1085a425f85f0b96b36719,2021-09-08_17h53.56.766,forced_choiceRT,2021.1.2,Win32,59.9880024,,,,,,,,9,Slow,j,1,2.1106,5,1,21,3,1,,,,,
,0.37,,,,,,,,,g.PNG,g,5f1085a425f85f0b96b36719,2021-09-08_17h53.56.766,forced_choiceRT,2021.1.2,Win32,59.9880024,,,,,,,,9,Ontime,g,1,1.917,5,2,22,1,1,,,,,
,1.1,,,,,,,,,g.PNG,g,5f1085a425f85f0b96b36719,2021-09-08_17h53.56.766,forced_choiceRT,2021.1.2,Win32,59.9880024,,,,,,,,9,Ontime,g,1,2.0113,5,3,23,1,1,,,,,
,1.32,,,,,,,,,j.PNG,j,5f1085a425f85f0b96b36719,2021-09-08_17h53.56.766,forced_choiceRT,2021.1.2,Win32,59.9880024,,,,,,,,9,Ontime,j,1,1.9394,6,0,24,3,1,,,,,
,1.94,,,,,,,,,j.PNG,j,5f1085a425f85f0b96b36719,2021-09-08_17h53.56.766,forced_choiceRT,2021.1.2,Win32,59.9880024,,,,,,,,9,Ontime,g,0,2.0609,6,1,25,3,1,,,,,
,1.36,,,,,,,,,f.PNG,f,5f1085a425f85f0b96b36719,2021-09-08_17h53.56.766,forced_choiceRT,2021.1.2,Win32,59.9880024,,,,,,,,9,Ontime,f,1,2.0488,6,2,26,0,1,,,,,
,0.8,,,,,,,,,g.PNG,g,5f1085a425f85f0b96b36719,2021-09-08_17h53.56.766,forced_choiceRT,2021.1.2,Win32,59.9880024,,,,,,,,9,Ontime,g,1,1.912,6,3,27,1,1,,,,,
,1.86,,,,,,,,,f.PNG,f,5f1085a425f85f0b96b36719,2021-09-08_17h53.56.766,forced_choiceRT,2021.1.2,Win32,59.9880024,,,,,,,,9,Ontime,g,0,1.9788,7,0,28,0,1,,,,,
,1.93,,,,,,,,,j.PNG,j,5f1085a425f85f0b96b36719,2021-09-08_17h53.56.766,forced_choiceRT,2021.1.2,Win32,59.9880024,,,,,,,,9,Ontime,f,0,1.9677,7,1,29,3,1,,,,,
,0.66,,,,,,,,,h.PNG,h,5f1085a425f85f0b96b36719,2021-09-08_17h53.56.766,forced_choiceRT,2021.1.2,Win32,59.9880024,,,,,,,,9,Ontime,h,1,1.9725,7,2,30,2,1,,,,,
,1.42,,,,,,,,,h.PNG,h,5f1085a425f85f0b96b36719,2021-09-08_17h53.56.766,forced_choiceRT,2021.1.2,Win32,59.9880024,,,,,,,,9,Slow,h,1,2.1049,7,3,31,2,1,,,,,
,1.45,,,,,,,,,j.PNG,j,5f1085a425f85f0b96b36719,2021-09-08_17h53.56.766,forced_choiceRT,2021.1.2,Win32,59.9880024,,,,,,,,9,Ontime,j,1,2.0563,8,0,32,3,1,,,,,
,0.67,,,,,,,,,g.PNG,g,5f1085a425f85f0b96b36719,2021-09-08_17h53.56.766,forced_choiceRT,2021.1.2,Win32,59.9880024,,,,,,,,9,Ontime,g,1,1.9336,8,1,33,1,1,,,,,
,0.21,,,,,,,,,g.PNG,g,5f1085a425f85f0b96b36719,2021-09-08_17h53.56.766,forced_choiceRT,2021.1.2,Win32,59.9880024,,,,,,,,9,Fast,g,1,1.711,8,2,34,1,1,,,,,
,0.07,,,,,,,,,f.PNG,f,5f1085a425f85f0b96b36719,2021-09-08_17h53.56.766,forced_choiceRT,2021.1.2,Win32,59.9880024,,,,,,,,9,Ontime,f,1,2.0596,8,3,35,0,1,,,,,
,1.27,,,,,,,,,g.PNG,g,5f1085a425f85f0b96b36719,2021-09-08_17h53.56.766,forced_choiceRT,2021.1.2,Win32,59.9880024,,,,,,,,9,Ontime,f,0,1.9931,9,0,36,1,1,,,,,
,1.25,,,,,,,,,j.PNG,j,5f1085a425f85f0b96b36719,2021-09-08_17h53.56.766,forced_choiceRT,2021.1.2,Win32,59.9880024,,,,,,,,9,Ontime,j,1,2.0917,9,1,37,3,1,,,,,
,0.51,,,,,,,,,h.PNG,h,5f1085a425f85f0b96b36719,2021-09-08_17h53.56.766,forced_choiceRT,2021.1.2,Win32,59.9880024,,,,,,,,9,Ontime,h,1,1.997,9,2,38,2,1,,,,,
,1.96,,,,,,,,,g.PNG,g,5f1085a425f85f0b96b36719,2021-09-08_17h53.56.766,forced_choiceRT,2021.1.2,Win32,59.9880024,,,,,,,,9,Ontime,h,0,2.0288,9,3,39,1,1,,,,,
,,,,,,,,,,,,5f1085a425f85f0b96b36719,2021-09-08_17h53.56.766,forced_choiceRT,2021.1.2,Win32,59.9880024,,,,,,,,,,,,,,,,,,8,0,8,0,1
,0.66,,,,,,,,,h.PNG,h,5f1085a425f85f0b96b36719,2021-09-08_17h53.56.766,forced_choiceRT,2021.1.2,Win32,59.9880024,,,,,,,,10,Ontime,h,1,2.1,0,0,0,2,1,,,,,
,1.91,,,,,,,,,f.PNG,f,5f1085a425f85f0b96b36719,2021-09-08_17h53.56.766,forced_choiceRT,2021.1.2,Win32,59.9880024,,,,,,,,10,Slow,g,0,2.1003,0,1,1,0,1,,,,,
,1.85,,,,,,,,,f.PNG,f,5f1085a425f85f0b96b36719,2021-09-08_17h53.56.766,forced_choiceRT,2021.1.2,Win32,59.9880024,,,,,,,,10,Slow,f,1,2.1004,0,2,2,0,1,,,,,
,1.65,,,,,,,,,h.PNG,h,5f1085a425f85f0b96b36719,2021-09-08_17h53.56.766,forced_choiceRT,2021.1.2,Win32,59.9880024,,,,,,,,10,Ontime,f,0,2.0201,0,3,3,2,1,,,,,
,1.37,,,,,,,,,j.PNG,j,5f1085a425f85f0b96b36719,2021-09-08_17h53.56.766,forced_choiceRT,2021.1.2,Win32,59.9880024,,,,,,,,10,Slow,j,1,2.1335,1,0,4,3,1,,,,,
,1.59,,,,,,,,,j.PNG,j,5f1085a425f85f0b96b36719,2021-09-08_17h53.56.766,forced_choiceRT,2021.1.2,Win32,59.9880024,,,,,,,,10,Slow,j,1,2.1043,1,1,5,3,1,,,,,
,1.95,,,,,,,,,h.PNG,h,5f1085a425f85f0b96b36719,2021-09-08_17h53.56.766,forced_choiceRT,2021.1.2,Win32,59.9880024,,,,,,,,10,Ontime,j,0,2.0349,1,2,6,2,1,,,,,
,1.48,,,,,,,,,f.PNG,f,5f1085a425f85f0b96b36719,2021-09-08_17h53.56.766,forced_choiceRT,2021.1.2,Win32,59.9880024,,,,,,,,10,Ontime,f,1,2.0806,1,3,7,0,1,,,,,
,1.73,,,,,,,,,g.PNG,g,5f1085a425f85f0b96b36719,2021-09-08_17h53.56.766,forced_choiceRT,2021.1.2,Win32,59.9880024,,,,,,,,10,Slow,g,1,2.2961,2,0,8,1,1,,,,,
,1.92,,,,,,,,,f.PNG,f,5f1085a425f85f0b96b36719,2021-09-08_17h53.56.766,forced_choiceRT,2021.1.2,Win32,59.9880024,,,,,,,,10,Ontime,g,0,2.0045,2,1,9,0,1,,,,,
,1.47,,,,,,,,,g.PNG,g,5f1085a425f85f0b96b36719,2021-09-08_17h53.56.766,forced_choiceRT,2021.1.2,Win32,59.9880024,,,,,,,,10,Ontime,g,1,2.0161,2,2,10,1,1,,,,,
,1.02,,,,,,,,,f.PNG,f,5f1085a425f85f0b96b36719,2021-09-08_17h53.56.766,forced_choiceRT,2021.1.2,Win32,59.9880024,,,,,,,,10,Ontime,f,1,2.0004,2,3,11,0,1,,,,,
,0.33,,,,,,,,,f.PNG,f,5f1085a425f85f0b96b36719,2021-09-08_17h53.56.766,forced_choiceRT,2021.1.2,Win32,59.9880024,,,,,,,,10,Fast,f,1,1.8001,3,0,12,0,1,,,,,
,1.76,,,,,,,,,j.PNG,j,5f1085a425f85f0b96b36719,2021-09-08_17h53.56.766,forced_choiceRT,2021.1.2,Win32,59.9880024,,,,,,,,10,Slow,f,0,2.1663,3,1,13,3,1,,,,,
,1.8,,,,,,,,,h.PNG,h,5f1085a425f85f0b96b36719,2021-09-08_17h53.56.766,forced_choiceRT,2021.1.2,Win32,59.9880024,,,,,,,,10,Ontime,j,0,1.9393,3,2,14,2,1,,,,,
,1.49,,,,,,,,,j.PNG,j,5f1085a425f85f0b96b36719,2021-09-08_17h53.56.766,forced_choiceRT,2021.1.2,Win32,59.9880024,,,,,,,,10,Ontime,h,0,2.0581,3,3,15,3,1,,,,,
,1.65,,,,,,,,,g.PNG,g,5f1085a425f85f0b96b36719,2021-09-08_17h53.56.766,forced_choiceRT,2021.1.2,Win32,59.9880024,,,,,,,,10,Ontime,f,0,2.055,4,0,16,1,1,,,,,
,1.97,,,,,,,,,g.PNG,g,5f1085a425f85f0b96b36719,2021-09-08_17h53.56.766,forced_choiceRT,2021.1.2,Win32,59.9880024,,,,,,,,10,Ontime,g,1,2.092,4,1,17,1,1,,,,,
,1.67,,,,,,,,,j.PNG,j,5f1085a425f85f0b96b36719,2021-09-08_17h53.56.766,forced_choiceRT,2021.1.2,Win32,59.9880024,,,,,,,,10,Slow,f,0,2.1582,4,2,18,3,1,,,,,
,0.22,,,,,,,,,f.PNG,f,5f1085a425f85f0b96b36719,2021-09-08_17h53.56.766,forced_choiceRT,2021.1.2,Win32,59.9880024,,,,,,,,10,Fast,f,1,1.441,4,3,19,0,1,,,,,
,0.12,,,,,,,,,g.PNG,g,5f1085a425f85f0b96b36719,2021-09-08_17h53.56.766,forced_choiceRT,2021.1.2,Win32,59.9880024,,,,,,,,10,Ontime,g,1,2.0063,5,0,20,1,1,,,,,
,0.57,,,,,,,,,g.PNG,g,5f1085a425f85f0b96b36719,2021-09-08_17h53.56.766,forced_choiceRT,2021.1.2,Win32,59.9880024,,,,,,,,10,Slow,g,1,2.118,5,1,21,1,1,,,,,
,0.9,,,,,,,,,f.PNG,f,5f1085a425f85f0b96b36719,2021-09-08_17h53.56.766,forced_choiceRT,2021.1.2,Win32,59.9880024,,,,,,,,10,Slow,f,1,2.16,5,2,22,0,1,,,,,
,1.7,,,,,,,,,h.PNG,h,5f1085a425f85f0b96b36719,2021-09-08_17h53.56.766,forced_choiceRT,2021.1.2,Win32,59.9880024,,,,,,,,10,Slow,g,0,2.2183,5,3,23,2,1,,,,,
,1.44,,,,,,,,,j.PNG,j,5f1085a425f85f0b96b36719,2021-09-08_17h53.56.766,forced_choiceRT,2021.1.2,Win32,59.9880024,,,,,,,,10,Ontime,j,1,2.0055,6,0,24,3,1,,,,,
,0.83,,,,,,,,,j.PNG,j,5f1085a425f85f0b96b36719,2021-09-08_17h53.56.766,forced_choiceRT,2021.1.2,Win32,59.9880024,,,,,,,,10,Ontime,j,1,2.0168,6,1,25,3,1,,,,,
,0.44,,,,,,,,,h.PNG,h,5f1085a425f85f0b96b36719,2021-09-08_17h53.56.766,forced_choiceRT,2021.1.2,Win32,59.9880024,,,,,,,,10,Ontime,h,1,2.0271,6,2,26,2,1,,,,,
,0.16,,,,,,,,,h.PNG,h,5f1085a425f85f0b96b36719,2021-09-08_17h53.56.766,forced_choiceRT,2021.1.2,Win32,59.9880024,,,,,,,,10,Fast,h,1,1.8932,6,3,27,2,1,,,,,
,1.07,,,,,,,,,g.PNG,g,5f1085a425f85f0b96b36719,2021-09-08_17h53.56.766,forced_choiceRT,2021.1.2,Win32,59.9880024,,,,,,,,10,Ontime,g,1,2.0089,7,0,28,1,1,,,,,
,0.79,,,,,,,,,j.PNG,j,5f1085a425f85f0b96b36719,2021-09-08_17h53.56.766,forced_choiceRT,2021.1.2,Win32,59.9880024,,,,,,,,10,Ontime,j,1,2.0465,7,1,29,3,1,,,,,
,1.99,,,,,,,,,h.PNG,h,5f1085a425f85f0b96b36719,2021-09-08_17h53.56.766,forced_choiceRT,2021.1.2,Win32,59.9880024,,,,,,,,10,Slow,j,0,2.1966,7,2,30,2,1,,,,,
,0.09,,,,,,,,,g.PNG,g,5f1085a425f85f0b96b36719,2021-09-08_17h53.56.766,forced_choiceRT,2021.1.2,Win32,59.9880024,,,,,,,,10,Fast,g,1,1.7095,7,3,31,1,1,,,,,
,1.01,,,,,,,,,j.PNG,j,5f1085a425f85f0b96b36719,2021-09-08_17h53.56.766,forced_choiceRT,2021.1.2,Win32,59.9880024,,,,,,,,10,Ontime,j,1,2.0871,8,0,32,3,1,,,,,
,0.15,,,,,,,,,h.PNG,h,5f1085a425f85f0b96b36719,2021-09-08_17h53.56.766,forced_choiceRT,2021.1.2,Win32,59.9880024,,,,,,,,10,Ontime,h,1,1.9665,8,1,33,2,1,,,,,
,1.51,,,,,,,,,f.PNG,f,5f1085a425f85f0b96b36719,2021-09-08_17h53.56.766,forced_choiceRT,2021.1.2,Win32,59.9880024,,,,,,,,10,Ontime,f,1,2.032,8,2,34,0,1,,,,,
,1.61,,,,,,,,,g.PNG,g,5f1085a425f85f0b96b36719,2021-09-08_17h53.56.766,forced_choiceRT,2021.1.2,Win32,59.9880024,,,,,,,,10,Ontime,j,0,1.9928,8,3,35,1,1,,,,,
,1.36,,,,,,,,,j.PNG,j,5f1085a425f85f0b96b36719,2021-09-08_17h53.56.766,forced_choiceRT,2021.1.2,Win32,59.9880024,,,,,,,,10,Slow,j,1,2.1155,9,0,36,3,1,,,,,
,0.39,,,,,,,,,f.PNG,f,5f1085a425f85f0b96b36719,2021-09-08_17h53.56.766,forced_choiceRT,2021.1.2,Win32,59.9880024,,,,,,,,10,Ontime,f,1,1.9266,9,1,37,0,1,,,,,
,0.61,,,,,,,,,h.PNG,h,5f1085a425f85f0b96b36719,2021-09-08_17h53.56.766,forced_choiceRT,2021.1.2,Win32,59.9880024,,,,,,,,10,Ontime,h,1,1.9054,9,2,38,2,1,,,,,
,1.06,,,,,,,,,g.PNG,g,5f1085a425f85f0b96b36719,2021-09-08_17h53.56.766,forced_choiceRT,2021.1.2,Win32,59.9880024,,,,,,,,10,Ontime,g,1,1.98,9,3,39,1,1,,,,,
,,,,,,,,,,,,5f1085a425f85f0b96b36719,2021-09-08_17h53.56.766,forced_choiceRT,2021.1.2,Win32,59.9880024,,,,,,,,,,,,,,,,,,9,0,9,0,1
