target_onset,trial_resp_sp.keys,trial_resp_sp.corr,trial_resp_sp.rt,trials_train_loop.thisRepN,trials_train_loop.thisTrialN,trials_train_loop.thisN,trials_train_loop.thisIndex,trials_train_loop.ran,pic,correct_key,participant,date,expName,psychopyVersion,OS,frameRate,trial_resp_timing.keys,trial_resp_timing.rt,trials_train_timing.thisRepN,trials_train_timing.thisTrialN,trials_train_timing.thisN,trials_train_timing.thisIndex,trials_train_timing.ran,block_id,ontime,forcedRT_resp.keys,forcedRT_resp.corr,forcedRT_resp.rt,trials.thisRepN,trials.thisTrialN,trials.thisN,trials.thisIndex,trials.ran,blocks.thisRepN,blocks.thisTrialN,blocks.thisN,blocks.thisIndex,blocks.ran
0,f,1,1.2635,0,0,0,0,1,f.PNG,f,5f6daa6a2a8a3e22518b10e0,2021-09-08_16h04.27.195,forced_choiceRT,2021.1.2,Win32,144.0092166,,,,,,,,,,,,,,,,,,,,,,
0,f,1,1.1737,0,1,1,0,1,f.PNG,f,5f6daa6a2a8a3e22518b10e0,2021-09-08_16h04.27.195,forced_choiceRT,2021.1.2,Win32,144.0092166,,,,,,,,,,,,,,,,,,,,,,
0,h,1,1.1387,0,2,2,2,1,h.PNG,h,5f6daa6a2a8a3e22518b10e0,2021-09-08_16h04.27.195,forced_choiceRT,2021.1.2,Win32,144.0092166,,,,,,,,,,,,,,,,,,,,,,
0,j,1,1.2437,0,3,3,3,1,j.PNG,j,5f6daa6a2a8a3e22518b10e0,2021-09-08_16h04.27.195,forced_choiceRT,2021.1.2,Win32,144.0092166,,,,,,,,,,,,,,,,,,,,,,
0,g,1,1.1229,1,0,4,1,1,g.PNG,g,5f6daa6a2a8a3e22518b10e0,2021-09-08_16h04.27.195,forced_choiceRT,2021.1.2,Win32,144.0092166,,,,,,,,,,,,,,,,,,,,,,
0,f,1,0.7567,1,1,5,0,1,f.PNG,f,5f6daa6a2a8a3e22518b10e0,2021-09-08_16h04.27.195,forced_choiceRT,2021.1.2,Win32,144.0092166,,,,,,,,,,,,,,,,,,,,,,
0,g,1,1.0101,1,2,6,1,1,g.PNG,g,5f6daa6a2a8a3e22518b10e0,2021-09-08_16h04.27.195,forced_choiceRT,2021.1.2,Win32,144.0092166,,,,,,,,,,,,,,,,,,,,,,
0,f,1,0.826,1,3,7,0,1,f.PNG,f,5f6daa6a2a8a3e22518b10e0,2021-09-08_16h04.27.195,forced_choiceRT,2021.1.2,Win32,144.0092166,,,,,,,,,,,,,,,,,,,,,,
0,h,1,0.9456,2,0,8,2,1,h.PNG,h,5f6daa6a2a8a3e22518b10e0,2021-09-08_16h04.27.195,forced_choiceRT,2021.1.2,Win32,144.0092166,,,,,,,,,,,,,,,,,,,,,,
0,h,1,0.747,2,1,9,2,1,h.PNG,h,5f6daa6a2a8a3e22518b10e0,2021-09-08_16h04.27.195,forced_choiceRT,2021.1.2,Win32,144.0092166,,,,,,,,,,,,,,,,,,,,,,
0,j,1,0.9055,2,2,10,3,1,j.PNG,j,5f6daa6a2a8a3e22518b10e0,2021-09-08_16h04.27.195,forced_choiceRT,2021.1.2,Win32,144.0092166,,,,,,,,,,,,,,,,,,,,,,
0,h,1,0.8234,2,3,11,2,1,h.PNG,h,5f6daa6a2a8a3e22518b10e0,2021-09-08_16h04.27.195,forced_choiceRT,2021.1.2,Win32,144.0092166,,,,,,,,,,,,,,,,,,,,,,
0,j,1,0.8409,3,0,12,3,1,j.PNG,j,5f6daa6a2a8a3e22518b10e0,2021-09-08_16h04.27.195,forced_choiceRT,2021.1.2,Win32,144.0092166,,,,,,,,,,,,,,,,,,,,,,
0,f,1,1.1312,3,1,13,0,1,f.PNG,f,5f6daa6a2a8a3e22518b10e0,2021-09-08_16h04.27.195,forced_choiceRT,2021.1.2,Win32,144.0092166,,,,,,,,,,,,,,,,,,,,,,
0,f,1,1.092,3,2,14,0,1,f.PNG,f,5f6daa6a2a8a3e22518b10e0,2021-09-08_16h04.27.195,forced_choiceRT,2021.1.2,Win32,144.0092166,,,,,,,,,,,,,,,,,,,,,,
0,j,1,0.9626,3,3,15,3,1,j.PNG,j,5f6daa6a2a8a3e22518b10e0,2021-09-08_16h04.27.195,forced_choiceRT,2021.1.2,Win32,144.0092166,,,,,,,,,,,,,,,,,,,,,,
0,g,1,0.9992,4,0,16,1,1,g.PNG,g,5f6daa6a2a8a3e22518b10e0,2021-09-08_16h04.27.195,forced_choiceRT,2021.1.2,Win32,144.0092166,,,,,,,,,,,,,,,,,,,,,,
0,g,1,0.9244,4,1,17,1,1,g.PNG,g,5f6daa6a2a8a3e22518b10e0,2021-09-08_16h04.27.195,forced_choiceRT,2021.1.2,Win32,144.0092166,,,,,,,,,,,,,,,,,,,,,,
0,h,1,0.8027,4,2,18,2,1,h.PNG,h,5f6daa6a2a8a3e22518b10e0,2021-09-08_16h04.27.195,forced_choiceRT,2021.1.2,Win32,144.0092166,,,,,,,,,,,,,,,,,,,,,,
0,f,1,1.0849,4,3,19,0,1,f.PNG,f,5f6daa6a2a8a3e22518b10e0,2021-09-08_16h04.27.195,forced_choiceRT,2021.1.2,Win32,144.0092166,,,,,,,,,,,,,,,,,,,,,,
0,h,1,0.9653,5,0,20,2,1,h.PNG,h,5f6daa6a2a8a3e22518b10e0,2021-09-08_16h04.27.195,forced_choiceRT,2021.1.2,Win32,144.0092166,,,,,,,,,,,,,,,,,,,,,,
0,g,1,0.9017,5,1,21,1,1,g.PNG,g,5f6daa6a2a8a3e22518b10e0,2021-09-08_16h04.27.195,forced_choiceRT,2021.1.2,Win32,144.0092166,,,,,,,,,,,,,,,,,,,,,,
0,j,1,0.7894,5,2,22,3,1,j.PNG,j,5f6daa6a2a8a3e22518b10e0,2021-09-08_16h04.27.195,forced_choiceRT,2021.1.2,Win32,144.0092166,,,,,,,,,,,,,,,,,,,,,,
0,j,1,0.8344,5,3,23,3,1,j.PNG,j,5f6daa6a2a8a3e22518b10e0,2021-09-08_16h04.27.195,forced_choiceRT,2021.1.2,Win32,144.0092166,,,,,,,,,,,,,,,,,,,,,,
0,f,1,0.9414,6,0,24,0,1,f.PNG,f,5f6daa6a2a8a3e22518b10e0,2021-09-08_16h04.27.195,forced_choiceRT,2021.1.2,Win32,144.0092166,,,,,,,,,,,,,,,,,,,,,,
0,h,1,0.9613,6,1,25,2,1,h.PNG,h,5f6daa6a2a8a3e22518b10e0,2021-09-08_16h04.27.195,forced_choiceRT,2021.1.2,Win32,144.0092166,,,,,,,,,,,,,,,,,,,,,,
0,f,1,0.9152,6,2,26,0,1,f.PNG,f,5f6daa6a2a8a3e22518b10e0,2021-09-08_16h04.27.195,forced_choiceRT,2021.1.2,Win32,144.0092166,,,,,,,,,,,,,,,,,,,,,,
0,g,1,1.2349,6,3,27,1,1,g.PNG,g,5f6daa6a2a8a3e22518b10e0,2021-09-08_16h04.27.195,forced_choiceRT,2021.1.2,Win32,144.0092166,,,,,,,,,,,,,,,,,,,,,,
0,h,1,1.264,7,0,28,2,1,h.PNG,h,5f6daa6a2a8a3e22518b10e0,2021-09-08_16h04.27.195,forced_choiceRT,2021.1.2,Win32,144.0092166,,,,,,,,,,,,,,,,,,,,,,
0,j,1,0.806,7,1,29,3,1,j.PNG,j,5f6daa6a2a8a3e22518b10e0,2021-09-08_16h04.27.195,forced_choiceRT,2021.1.2,Win32,144.0092166,,,,,,,,,,,,,,,,,,,,,,
0,j,1,0.6676,7,2,30,3,1,j.PNG,j,5f6daa6a2a8a3e22518b10e0,2021-09-08_16h04.27.195,forced_choiceRT,2021.1.2,Win32,144.0092166,,,,,,,,,,,,,,,,,,,,,,
0,g,1,1.1474,7,3,31,1,1,g.PNG,g,5f6daa6a2a8a3e22518b10e0,2021-09-08_16h04.27.195,forced_choiceRT,2021.1.2,Win32,144.0092166,,,,,,,,,,,,,,,,,,,,,,
0,f,1,0.4775,8,0,32,0,1,f.PNG,f,5f6daa6a2a8a3e22518b10e0,2021-09-08_16h04.27.195,forced_choiceRT,2021.1.2,Win32,144.0092166,,,,,,,,,,,,,,,,,,,,,,
0,h,1,1.0413,8,1,33,2,1,h.PNG,h,5f6daa6a2a8a3e22518b10e0,2021-09-08_16h04.27.195,forced_choiceRT,2021.1.2,Win32,144.0092166,,,,,,,,,,,,,,,,,,,,,,
0,j,1,0.8613,8,2,34,3,1,j.PNG,j,5f6daa6a2a8a3e22518b10e0,2021-09-08_16h04.27.195,forced_choiceRT,2021.1.2,Win32,144.0092166,,,,,,,,,,,,,,,,,,,,,,
0,h,1,1.3467,8,3,35,2,1,h.PNG,h,5f6daa6a2a8a3e22518b10e0,2021-09-08_16h04.27.195,forced_choiceRT,2021.1.2,Win32,144.0092166,,,,,,,,,,,,,,,,,,,,,,
0,h,1,0.7323,9,0,36,2,1,h.PNG,h,5f6daa6a2a8a3e22518b10e0,2021-09-08_16h04.27.195,forced_choiceRT,2021.1.2,Win32,144.0092166,,,,,,,,,,,,,,,,,,,,,,
0,j,1,0.7741,9,1,37,3,1,j.PNG,j,5f6daa6a2a8a3e22518b10e0,2021-09-08_16h04.27.195,forced_choiceRT,2021.1.2,Win32,144.0092166,,,,,,,,,,,,,,,,,,,,,,
0,j,1,0.7519,9,2,38,3,1,j.PNG,j,5f6daa6a2a8a3e22518b10e0,2021-09-08_16h04.27.195,forced_choiceRT,2021.1.2,Win32,144.0092166,,,,,,,,,,,,,,,,,,,,,,
0,h,1,0.7866,9,3,39,2,1,h.PNG,h,5f6daa6a2a8a3e22518b10e0,2021-09-08_16h04.27.195,forced_choiceRT,2021.1.2,Win32,144.0092166,,,,,,,,,,,,,,,,,,,,,,
0,j,1,0.6275,10,0,40,3,1,j.PNG,j,5f6daa6a2a8a3e22518b10e0,2021-09-08_16h04.27.195,forced_choiceRT,2021.1.2,Win32,144.0092166,,,,,,,,,,,,,,,,,,,,,,
0,f,1,0.8304,10,1,41,0,1,f.PNG,f,5f6daa6a2a8a3e22518b10e0,2021-09-08_16h04.27.195,forced_choiceRT,2021.1.2,Win32,144.0092166,,,,,,,,,,,,,,,,,,,,,,
0,f,1,0.9639,10,2,42,0,1,f.PNG,f,5f6daa6a2a8a3e22518b10e0,2021-09-08_16h04.27.195,forced_choiceRT,2021.1.2,Win32,144.0092166,,,,,,,,,,,,,,,,,,,,,,
0,h,1,0.9587,10,3,43,2,1,h.PNG,h,5f6daa6a2a8a3e22518b10e0,2021-09-08_16h04.27.195,forced_choiceRT,2021.1.2,Win32,144.0092166,,,,,,,,,,,,,,,,,,,,,,
0,g,1,1.1181,11,0,44,1,1,g.PNG,g,5f6daa6a2a8a3e22518b10e0,2021-09-08_16h04.27.195,forced_choiceRT,2021.1.2,Win32,144.0092166,,,,,,,,,,,,,,,,,,,,,,
0,j,1,0.8407,11,1,45,3,1,j.PNG,j,5f6daa6a2a8a3e22518b10e0,2021-09-08_16h04.27.195,forced_choiceRT,2021.1.2,Win32,144.0092166,,,,,,,,,,,,,,,,,,,,,,
0,h,1,0.7075,11,2,46,2,1,h.PNG,h,5f6daa6a2a8a3e22518b10e0,2021-09-08_16h04.27.195,forced_choiceRT,2021.1.2,Win32,144.0092166,,,,,,,,,,,,,,,,,,,,,,
0,f,1,0.6608,11,3,47,0,1,f.PNG,f,5f6daa6a2a8a3e22518b10e0,2021-09-08_16h04.27.195,forced_choiceRT,2021.1.2,Win32,144.0092166,,,,,,,,,,,,,,,,,,,,,,
0,g,1,0.8059,12,0,48,1,1,g.PNG,g,5f6daa6a2a8a3e22518b10e0,2021-09-08_16h04.27.195,forced_choiceRT,2021.1.2,Win32,144.0092166,,,,,,,,,,,,,,,,,,,,,,
0,f,1,0.5898,12,1,49,0,1,f.PNG,f,5f6daa6a2a8a3e22518b10e0,2021-09-08_16h04.27.195,forced_choiceRT,2021.1.2,Win32,144.0092166,,,,,,,,,,,,,,,,,,,,,,
0,j,1,0.8277,12,2,50,3,1,j.PNG,j,5f6daa6a2a8a3e22518b10e0,2021-09-08_16h04.27.195,forced_choiceRT,2021.1.2,Win32,144.0092166,,,,,,,,,,,,,,,,,,,,,,
0,h,1,0.6753,12,3,51,2,1,h.PNG,h,5f6daa6a2a8a3e22518b10e0,2021-09-08_16h04.27.195,forced_choiceRT,2021.1.2,Win32,144.0092166,,,,,,,,,,,,,,,,,,,,,,
0,g,1,0.8671,13,0,52,1,1,g.PNG,g,5f6daa6a2a8a3e22518b10e0,2021-09-08_16h04.27.195,forced_choiceRT,2021.1.2,Win32,144.0092166,,,,,,,,,,,,,,,,,,,,,,
0,g,1,0.8362,13,1,53,1,1,g.PNG,g,5f6daa6a2a8a3e22518b10e0,2021-09-08_16h04.27.195,forced_choiceRT,2021.1.2,Win32,144.0092166,,,,,,,,,,,,,,,,,,,,,,
0,f,1,0.5952,13,2,54,0,1,f.PNG,f,5f6daa6a2a8a3e22518b10e0,2021-09-08_16h04.27.195,forced_choiceRT,2021.1.2,Win32,144.0092166,,,,,,,,,,,,,,,,,,,,,,
0,g,1,0.7971,13,3,55,1,1,g.PNG,g,5f6daa6a2a8a3e22518b10e0,2021-09-08_16h04.27.195,forced_choiceRT,2021.1.2,Win32,144.0092166,,,,,,,,,,,,,,,,,,,,,,
0,j,1,0.711,14,0,56,3,1,j.PNG,j,5f6daa6a2a8a3e22518b10e0,2021-09-08_16h04.27.195,forced_choiceRT,2021.1.2,Win32,144.0092166,,,,,,,,,,,,,,,,,,,,,,
0,g,1,0.9052,14,1,57,1,1,g.PNG,g,5f6daa6a2a8a3e22518b10e0,2021-09-08_16h04.27.195,forced_choiceRT,2021.1.2,Win32,144.0092166,,,,,,,,,,,,,,,,,,,,,,
0,g,1,0.5662,14,2,58,1,1,g.PNG,g,5f6daa6a2a8a3e22518b10e0,2021-09-08_16h04.27.195,forced_choiceRT,2021.1.2,Win32,144.0092166,,,,,,,,,,,,,,,,,,,,,,
0,g,1,0.4308,14,3,59,1,1,g.PNG,g,5f6daa6a2a8a3e22518b10e0,2021-09-08_16h04.27.195,forced_choiceRT,2021.1.2,Win32,144.0092166,,,,,,,,,,,,,,,,,,,,,,
,,,,,,,,,,,5f6daa6a2a8a3e22518b10e0,2021-09-08_16h04.27.195,forced_choiceRT,2021.1.2,Win32,144.0092166,f,2.026,0,0,0,0,1,,,,,,,,,,,,,,,
,,,,,,,,,,,5f6daa6a2a8a3e22518b10e0,2021-09-08_16h04.27.195,forced_choiceRT,2021.1.2,Win32,144.0092166,f,1.9417,1,0,1,0,1,,,,,,,,,,,,,,,
,,,,,,,,,,,5f6daa6a2a8a3e22518b10e0,2021-09-08_16h04.27.195,forced_choiceRT,2021.1.2,Win32,144.0092166,f,1.8392,2,0,2,0,1,,,,,,,,,,,,,,,
,,,,,,,,,,,5f6daa6a2a8a3e22518b10e0,2021-09-08_16h04.27.195,forced_choiceRT,2021.1.2,Win32,144.0092166,f,1.9696,3,0,3,0,1,,,,,,,,,,,,,,,
,,,,,,,,,,,5f6daa6a2a8a3e22518b10e0,2021-09-08_16h04.27.195,forced_choiceRT,2021.1.2,Win32,144.0092166,f,1.9883,4,0,4,0,1,,,,,,,,,,,,,,,
,,,,,,,,,,,5f6daa6a2a8a3e22518b10e0,2021-09-08_16h04.27.195,forced_choiceRT,2021.1.2,Win32,144.0092166,f,1.9192,5,0,5,0,1,,,,,,,,,,,,,,,
,,,,,,,,,,,5f6daa6a2a8a3e22518b10e0,2021-09-08_16h04.27.195,forced_choiceRT,2021.1.2,Win32,144.0092166,f,1.942,6,0,6,0,1,,,,,,,,,,,,,,,
,,,,,,,,,,,5f6daa6a2a8a3e22518b10e0,2021-09-08_16h04.27.195,forced_choiceRT,2021.1.2,Win32,144.0092166,f,1.8885,7,0,7,0,1,,,,,,,,,,,,,,,
,,,,,,,,,,,5f6daa6a2a8a3e22518b10e0,2021-09-08_16h04.27.195,forced_choiceRT,2021.1.2,Win32,144.0092166,f,1.8612,8,0,8,0,1,,,,,,,,,,,,,,,
,,,,,,,,,,,5f6daa6a2a8a3e22518b10e0,2021-09-08_16h04.27.195,forced_choiceRT,2021.1.2,Win32,144.0092166,f,1.9069,9,0,9,0,1,,,,,,,,,,,,,,,
,,,,,,,,,,,5f6daa6a2a8a3e22518b10e0,2021-09-08_16h04.27.195,forced_choiceRT,2021.1.2,Win32,144.0092166,f,1.9341,10,0,10,0,1,,,,,,,,,,,,,,,
,,,,,,,,,,,5f6daa6a2a8a3e22518b10e0,2021-09-08_16h04.27.195,forced_choiceRT,2021.1.2,Win32,144.0092166,f,2.1814,11,0,11,0,1,,,,,,,,,,,,,,,
,,,,,,,,,,,5f6daa6a2a8a3e22518b10e0,2021-09-08_16h04.27.195,forced_choiceRT,2021.1.2,Win32,144.0092166,f,1.9277,12,0,12,0,1,,,,,,,,,,,,,,,
,,,,,,,,,,,5f6daa6a2a8a3e22518b10e0,2021-09-08_16h04.27.195,forced_choiceRT,2021.1.2,Win32,144.0092166,f,1.9758,13,0,13,0,1,,,,,,,,,,,,,,,
,,,,,,,,,,,5f6daa6a2a8a3e22518b10e0,2021-09-08_16h04.27.195,forced_choiceRT,2021.1.2,Win32,144.0092166,f,1.948,14,0,14,0,1,,,,,,,,,,,,,,,
,,,,,,,,,,,5f6daa6a2a8a3e22518b10e0,2021-09-08_16h04.27.195,forced_choiceRT,2021.1.2,Win32,144.0092166,f,2.0291,15,0,15,0,1,,,,,,,,,,,,,,,
,,,,,,,,,,,5f6daa6a2a8a3e22518b10e0,2021-09-08_16h04.27.195,forced_choiceRT,2021.1.2,Win32,144.0092166,f,2.2123,16,0,16,0,1,,,,,,,,,,,,,,,
,,,,,,,,,,,5f6daa6a2a8a3e22518b10e0,2021-09-08_16h04.27.195,forced_choiceRT,2021.1.2,Win32,144.0092166,f,2.2162,17,0,17,0,1,,,,,,,,,,,,,,,
,,,,,,,,,,,5f6daa6a2a8a3e22518b10e0,2021-09-08_16h04.27.195,forced_choiceRT,2021.1.2,Win32,144.0092166,f,2.2059,18,0,18,0,1,,,,,,,,,,,,,,,
,,,,,,,,,,,5f6daa6a2a8a3e22518b10e0,2021-09-08_16h04.27.195,forced_choiceRT,2021.1.2,Win32,144.0092166,f,2.2375,19,0,19,0,1,,,,,,,,,,,,,,,
0.72,,,,,,,,,f.PNG,f,5f6daa6a2a8a3e22518b10e0,2021-09-08_16h04.27.195,forced_choiceRT,2021.1.2,Win32,144.0092166,,,,,,,,1,Ontime,f,1,1.9278,0,0,0,0,1,,,,,
0.77,,,,,,,,,g.PNG,g,5f6daa6a2a8a3e22518b10e0,2021-09-08_16h04.27.195,forced_choiceRT,2021.1.2,Win32,144.0092166,,,,,,,,1,Fast,g,1,1.8553,0,1,1,1,1,,,,,
0.24,,,,,,,,,g.PNG,g,5f6daa6a2a8a3e22518b10e0,2021-09-08_16h04.27.195,forced_choiceRT,2021.1.2,Win32,144.0092166,,,,,,,,1,Ontime,g,1,1.9868,0,2,2,1,1,,,,,
1.81,,,,,,,,,h.PNG,h,5f6daa6a2a8a3e22518b10e0,2021-09-08_16h04.27.195,forced_choiceRT,2021.1.2,Win32,144.0092166,,,,,,,,1,Ontime,f,0,1.9989,0,3,3,2,1,,,,,
0.93,,,,,,,,,f.PNG,f,5f6daa6a2a8a3e22518b10e0,2021-09-08_16h04.27.195,forced_choiceRT,2021.1.2,Win32,144.0092166,,,,,,,,1,Ontime,f,1,1.9634,1,0,4,0,1,,,,,
1.9,,,,,,,,,g.PNG,g,5f6daa6a2a8a3e22518b10e0,2021-09-08_16h04.27.195,forced_choiceRT,2021.1.2,Win32,144.0092166,,,,,,,,1,Slow,f,0,2.3694,1,1,5,1,1,,,,,
1,,,,,,,,,h.PNG,h,5f6daa6a2a8a3e22518b10e0,2021-09-08_16h04.27.195,forced_choiceRT,2021.1.2,Win32,144.0092166,,,,,,,,1,Ontime,h,1,2.0649,1,2,6,2,1,,,,,
1.6,,,,,,,,,h.PNG,h,5f6daa6a2a8a3e22518b10e0,2021-09-08_16h04.27.195,forced_choiceRT,2021.1.2,Win32,144.0092166,,,,,,,,1,Slow,h,1,2.2691,1,3,7,2,1,,,,,
0.19,,,,,,,,,h.PNG,h,5f6daa6a2a8a3e22518b10e0,2021-09-08_16h04.27.195,forced_choiceRT,2021.1.2,Win32,144.0092166,,,,,,,,1,Ontime,h,1,1.9761,2,0,8,2,1,,,,,
1.42,,,,,,,,,g.PNG,g,5f6daa6a2a8a3e22518b10e0,2021-09-08_16h04.27.195,forced_choiceRT,2021.1.2,Win32,144.0092166,,,,,,,,1,Ontime,g,1,1.9179,2,1,9,1,1,,,,,
0.51,,,,,,,,,h.PNG,h,5f6daa6a2a8a3e22518b10e0,2021-09-08_16h04.27.195,forced_choiceRT,2021.1.2,Win32,144.0092166,,,,,,,,1,Ontime,h,1,2.0195,2,2,10,2,1,,,,,
1,,,,,,,,,f.PNG,f,5f6daa6a2a8a3e22518b10e0,2021-09-08_16h04.27.195,forced_choiceRT,2021.1.2,Win32,144.0092166,,,,,,,,1,Slow,f,1,2.1692,2,3,11,0,1,,,,,
1.57,,,,,,,,,h.PNG,h,5f6daa6a2a8a3e22518b10e0,2021-09-08_16h04.27.195,forced_choiceRT,2021.1.2,Win32,144.0092166,,,,,,,,1,Ontime,f,0,2.0313,3,0,12,2,1,,,,,
0.88,,,,,,,,,f.PNG,f,5f6daa6a2a8a3e22518b10e0,2021-09-08_16h04.27.195,forced_choiceRT,2021.1.2,Win32,144.0092166,,,,,,,,1,Ontime,f,1,1.9636,3,1,13,0,1,,,,,
1.4,,,,,,,,,h.PNG,h,5f6daa6a2a8a3e22518b10e0,2021-09-08_16h04.27.195,forced_choiceRT,2021.1.2,Win32,144.0092166,,,,,,,,1,Ontime,h,1,2.0008,3,2,14,2,1,,,,,
1.55,,,,,,,,,j.PNG,j,5f6daa6a2a8a3e22518b10e0,2021-09-08_16h04.27.195,forced_choiceRT,2021.1.2,Win32,144.0092166,,,,,,,,1,Ontime,j,1,2.0521,3,3,15,3,1,,,,,
0.36,,,,,,,,,f.PNG,f,5f6daa6a2a8a3e22518b10e0,2021-09-08_16h04.27.195,forced_choiceRT,2021.1.2,Win32,144.0092166,,,,,,,,1,Ontime,f,1,1.9905,4,0,16,0,1,,,,,
1.01,,,,,,,,,j.PNG,j,5f6daa6a2a8a3e22518b10e0,2021-09-08_16h04.27.195,forced_choiceRT,2021.1.2,Win32,144.0092166,,,,,,,,1,Ontime,j,1,2.0352,4,1,17,3,1,,,,,
0.42,,,,,,,,,g.PNG,g,5f6daa6a2a8a3e22518b10e0,2021-09-08_16h04.27.195,forced_choiceRT,2021.1.2,Win32,144.0092166,,,,,,,,1,Ontime,g,1,2.0039,4,2,18,1,1,,,,,
1.36,,,,,,,,,f.PNG,f,5f6daa6a2a8a3e22518b10e0,2021-09-08_16h04.27.195,forced_choiceRT,2021.1.2,Win32,144.0092166,,,,,,,,1,Slow,f,1,2.2002,4,3,19,0,1,,,,,
0.99,,,,,,,,,j.PNG,j,5f6daa6a2a8a3e22518b10e0,2021-09-08_16h04.27.195,forced_choiceRT,2021.1.2,Win32,144.0092166,,,,,,,,1,Fast,j,1,1.7862,5,0,20,3,1,,,,,
0.66,,,,,,,,,g.PNG,g,5f6daa6a2a8a3e22518b10e0,2021-09-08_16h04.27.195,forced_choiceRT,2021.1.2,Win32,144.0092166,,,,,,,,1,Ontime,g,1,2.0069,5,1,21,1,1,,,,,
1.93,,,,,,,,,j.PNG,j,5f6daa6a2a8a3e22518b10e0,2021-09-08_16h04.27.195,forced_choiceRT,2021.1.2,Win32,144.0092166,,,,,,,,1,Slow,f,0,2.3472,5,2,22,3,1,,,,,
0.39,,,,,,,,,j.PNG,j,5f6daa6a2a8a3e22518b10e0,2021-09-08_16h04.27.195,forced_choiceRT,2021.1.2,Win32,144.0092166,,,,,,,,1,Ontime,j,1,1.9642,5,3,23,3,1,,,,,
1.8,,,,,,,,,f.PNG,f,5f6daa6a2a8a3e22518b10e0,2021-09-08_16h04.27.195,forced_choiceRT,2021.1.2,Win32,144.0092166,,,,,,,,1,Ontime,f,1,2.0682,6,0,24,0,1,,,,,
0.53,,,,,,,,,f.PNG,f,5f6daa6a2a8a3e22518b10e0,2021-09-08_16h04.27.195,forced_choiceRT,2021.1.2,Win32,144.0092166,,,,,,,,1,Ontime,f,1,2.0141,6,1,25,0,1,,,,,
0.51,,,,,,,,,j.PNG,j,5f6daa6a2a8a3e22518b10e0,2021-09-08_16h04.27.195,forced_choiceRT,2021.1.2,Win32,144.0092166,,,,,,,,1,Ontime,j,1,1.9396,6,2,26,3,1,,,,,
1.98,,,,,,,,,g.PNG,g,5f6daa6a2a8a3e22518b10e0,2021-09-08_16h04.27.195,forced_choiceRT,2021.1.2,Win32,144.0092166,,,,,,,,1,Slow,g,1,3.7801,6,3,27,1,1,,,,,
1.1,,,,,,,,,j.PNG,j,5f6daa6a2a8a3e22518b10e0,2021-09-08_16h04.27.195,forced_choiceRT,2021.1.2,Win32,144.0092166,,,,,,,,1,Slow,j,1,2.1802,7,0,28,3,1,,,,,
0.47,,,,,,,,,j.PNG,j,5f6daa6a2a8a3e22518b10e0,2021-09-08_16h04.27.195,forced_choiceRT,2021.1.2,Win32,144.0092166,,,,,,,,1,Ontime,j,1,2.0037,7,1,29,3,1,,,,,
1.37,,,,,,,,,f.PNG,f,5f6daa6a2a8a3e22518b10e0,2021-09-08_16h04.27.195,forced_choiceRT,2021.1.2,Win32,144.0092166,,,,,,,,1,Slow,f,1,2.1017,7,2,30,0,1,,,,,
1.55,,,,,,,,,g.PNG,g,5f6daa6a2a8a3e22518b10e0,2021-09-08_16h04.27.195,forced_choiceRT,2021.1.2,Win32,144.0092166,,,,,,,,1,Slow,h,0,2.1498,7,3,31,1,1,,,,,
0.49,,,,,,,,,g.PNG,g,5f6daa6a2a8a3e22518b10e0,2021-09-08_16h04.27.195,forced_choiceRT,2021.1.2,Win32,144.0092166,,,,,,,,1,Ontime,g,1,2.027,8,0,32,1,1,,,,,
0.67,,,,,,,,,h.PNG,h,5f6daa6a2a8a3e22518b10e0,2021-09-08_16h04.27.195,forced_choiceRT,2021.1.2,Win32,144.0092166,,,,,,,,1,Ontime,h,1,1.9672,8,1,33,2,1,,,,,
1.42,,,,,,,,,f.PNG,f,5f6daa6a2a8a3e22518b10e0,2021-09-08_16h04.27.195,forced_choiceRT,2021.1.2,Win32,144.0092166,,,,,,,,1,Ontime,f,1,2.0146,8,2,34,0,1,,,,,
0.03,,,,,,,,,h.PNG,h,5f6daa6a2a8a3e22518b10e0,2021-09-08_16h04.27.195,forced_choiceRT,2021.1.2,Win32,144.0092166,,,,,,,,1,Fast,h,1,1.8934,8,3,35,2,1,,,,,
1.22,,,,,,,,,h.PNG,h,5f6daa6a2a8a3e22518b10e0,2021-09-08_16h04.27.195,forced_choiceRT,2021.1.2,Win32,144.0092166,,,,,,,,1,Ontime,h,1,1.9617,9,0,36,2,1,,,,,
0.94,,,,,,,,,j.PNG,j,5f6daa6a2a8a3e22518b10e0,2021-09-08_16h04.27.195,forced_choiceRT,2021.1.2,Win32,144.0092166,,,,,,,,1,Ontime,j,1,1.959,9,1,37,3,1,,,,,
0.77,,,,,,,,,g.PNG,g,5f6daa6a2a8a3e22518b10e0,2021-09-08_16h04.27.195,forced_choiceRT,2021.1.2,Win32,144.0092166,,,,,,,,1,Ontime,g,1,1.9121,9,2,38,1,1,,,,,
1.35,,,,,,,,,j.PNG,j,5f6daa6a2a8a3e22518b10e0,2021-09-08_16h04.27.195,forced_choiceRT,2021.1.2,Win32,144.0092166,,,,,,,,1,Ontime,j,1,2.0114,9,3,39,3,1,,,,,
,,,,,,,,,,,5f6daa6a2a8a3e22518b10e0,2021-09-08_16h04.27.195,forced_choiceRT,2021.1.2,Win32,144.0092166,,,,,,,,,,,,,,,,,,0,0,0,0,1
1.71,,,,,,,,,f.PNG,f,5f6daa6a2a8a3e22518b10e0,2021-09-08_16h04.27.195,forced_choiceRT,2021.1.2,Win32,144.0092166,,,,,,,,2,Slow,f,1,2.1766,0,0,0,0,1,,,,,
0.11,,,,,,,,,f.PNG,f,5f6daa6a2a8a3e22518b10e0,2021-09-08_16h04.27.195,forced_choiceRT,2021.1.2,Win32,144.0092166,,,,,,,,2,Ontime,f,1,1.9565,0,1,1,0,1,,,,,
0.28,,,,,,,,,j.PNG,j,5f6daa6a2a8a3e22518b10e0,2021-09-08_16h04.27.195,forced_choiceRT,2021.1.2,Win32,144.0092166,,,,,,,,2,Ontime,j,1,1.9249,0,2,2,3,1,,,,,
0.38,,,,,,,,,h.PNG,h,5f6daa6a2a8a3e22518b10e0,2021-09-08_16h04.27.195,forced_choiceRT,2021.1.2,Win32,144.0092166,,,,,,,,2,Ontime,h,1,1.9521,0,3,3,2,1,,,,,
0.54,,,,,,,,,g.PNG,g,5f6daa6a2a8a3e22518b10e0,2021-09-08_16h04.27.195,forced_choiceRT,2021.1.2,Win32,144.0092166,,,,,,,,2,Ontime,g,1,1.9374,1,0,4,1,1,,,,,
1.32,,,,,,,,,j.PNG,j,5f6daa6a2a8a3e22518b10e0,2021-09-08_16h04.27.195,forced_choiceRT,2021.1.2,Win32,144.0092166,,,,,,,,2,Slow,j,1,2.1317,1,1,5,3,1,,,,,
0.1,,,,,,,,,f.PNG,f,5f6daa6a2a8a3e22518b10e0,2021-09-08_16h04.27.195,forced_choiceRT,2021.1.2,Win32,144.0092166,,,,,,,,2,Ontime,f,1,1.975,1,2,6,0,1,,,,,
1.61,,,,,,,,,j.PNG,j,5f6daa6a2a8a3e22518b10e0,2021-09-08_16h04.27.195,forced_choiceRT,2021.1.2,Win32,144.0092166,,,,,,,,2,Ontime,j,1,1.9036,1,3,7,3,1,,,,,
1.52,,,,,,,,,g.PNG,g,5f6daa6a2a8a3e22518b10e0,2021-09-08_16h04.27.195,forced_choiceRT,2021.1.2,Win32,144.0092166,,,,,,,,2,Ontime,f,0,2.0501,2,0,8,1,1,,,,,
0.2,,,,,,,,,j.PNG,j,5f6daa6a2a8a3e22518b10e0,2021-09-08_16h04.27.195,forced_choiceRT,2021.1.2,Win32,144.0092166,,,,,,,,2,Ontime,j,1,1.9146,2,1,9,3,1,,,,,
0.88,,,,,,,,,h.PNG,h,5f6daa6a2a8a3e22518b10e0,2021-09-08_16h04.27.195,forced_choiceRT,2021.1.2,Win32,144.0092166,,,,,,,,2,Ontime,h,1,1.9616,2,2,10,2,1,,,,,
0.72,,,,,,,,,g.PNG,g,5f6daa6a2a8a3e22518b10e0,2021-09-08_16h04.27.195,forced_choiceRT,2021.1.2,Win32,144.0092166,,,,,,,,2,Ontime,g,1,1.9027,2,3,11,1,1,,,,,
1.64,,,,,,,,,h.PNG,h,5f6daa6a2a8a3e22518b10e0,2021-09-08_16h04.27.195,forced_choiceRT,2021.1.2,Win32,144.0092166,,,,,,,,2,Ontime,j,0,2.014,3,0,12,2,1,,,,,
0.86,,,,,,,,,h.PNG,h,5f6daa6a2a8a3e22518b10e0,2021-09-08_16h04.27.195,forced_choiceRT,2021.1.2,Win32,144.0092166,,,,,,,,2,Ontime,h,1,1.9903,3,1,13,2,1,,,,,
1.5,,,,,,,,,f.PNG,f,5f6daa6a2a8a3e22518b10e0,2021-09-08_16h04.27.195,forced_choiceRT,2021.1.2,Win32,144.0092166,,,,,,,,2,Ontime,f,1,1.9533,3,2,14,0,1,,,,,
0.9,,,,,,,,,f.PNG,f,5f6daa6a2a8a3e22518b10e0,2021-09-08_16h04.27.195,forced_choiceRT,2021.1.2,Win32,144.0092166,,,,,,,,2,Ontime,f,1,1.959,3,3,15,0,1,,,,,
0.22,,,,,,,,,h.PNG,h,5f6daa6a2a8a3e22518b10e0,2021-09-08_16h04.27.195,forced_choiceRT,2021.1.2,Win32,144.0092166,,,,,,,,2,Fast,h,1,1.809,4,0,16,2,1,,,,,
1.92,,,,,,,,,j.PNG,j,5f6daa6a2a8a3e22518b10e0,2021-09-08_16h04.27.195,forced_choiceRT,2021.1.2,Win32,144.0092166,,,,,,,,2,Ontime,f,0,2.0039,4,1,17,3,1,,,,,
1.1,,,,,,,,,h.PNG,h,5f6daa6a2a8a3e22518b10e0,2021-09-08_16h04.27.195,forced_choiceRT,2021.1.2,Win32,144.0092166,,,,,,,,2,Slow,h,1,2.1181,4,2,18,2,1,,,,,
1.42,,,,,,,,,f.PNG,f,5f6daa6a2a8a3e22518b10e0,2021-09-08_16h04.27.195,forced_choiceRT,2021.1.2,Win32,144.0092166,,,,,,,,2,Ontime,f,1,2.0145,4,3,19,0,1,,,,,
1.77,,,,,,,,,f.PNG,f,5f6daa6a2a8a3e22518b10e0,2021-09-08_16h04.27.195,forced_choiceRT,2021.1.2,Win32,144.0092166,,,,,,,,2,Ontime,j,0,2.0578,5,0,20,0,1,,,,,
1.49,,,,,,,,,h.PNG,h,5f6daa6a2a8a3e22518b10e0,2021-09-08_16h04.27.195,forced_choiceRT,2021.1.2,Win32,144.0092166,,,,,,,,2,Ontime,h,1,2.015,5,1,21,2,1,,,,,
0.08,,,,,,,,,g.PNG,g,5f6daa6a2a8a3e22518b10e0,2021-09-08_16h04.27.195,forced_choiceRT,2021.1.2,Win32,144.0092166,,,,,,,,2,Ontime,g,1,1.9327,5,2,22,1,1,,,,,
1.03,,,,,,,,,g.PNG,g,5f6daa6a2a8a3e22518b10e0,2021-09-08_16h04.27.195,forced_choiceRT,2021.1.2,Win32,144.0092166,,,,,,,,2,Ontime,g,1,1.9126,5,3,23,1,1,,,,,
0.93,,,,,,,,,f.PNG,f,5f6daa6a2a8a3e22518b10e0,2021-09-08_16h04.27.195,forced_choiceRT,2021.1.2,Win32,144.0092166,,,,,,,,2,Ontime,f,1,1.9029,6,0,24,0,1,,,,,
1.31,,,,,,,,,h.PNG,h,5f6daa6a2a8a3e22518b10e0,2021-09-08_16h04.27.195,forced_choiceRT,2021.1.2,Win32,144.0092166,,,,,,,,2,Fast,h,1,1.8558,6,1,25,2,1,,,,,
0.85,,,,,,,,,g.PNG,g,5f6daa6a2a8a3e22518b10e0,2021-09-08_16h04.27.195,forced_choiceRT,2021.1.2,Win32,144.0092166,,,,,,,,2,Ontime,g,1,1.9149,6,2,26,1,1,,,,,
1.62,,,,,,,,,j.PNG,j,5f6daa6a2a8a3e22518b10e0,2021-09-08_16h04.27.195,forced_choiceRT,2021.1.2,Win32,144.0092166,,,,,,,,2,Ontime,f,0,2.0177,6,3,27,3,1,,,,,
1.88,,,,,,,,,g.PNG,g,5f6daa6a2a8a3e22518b10e0,2021-09-08_16h04.27.195,forced_choiceRT,2021.1.2,Win32,144.0092166,,,,,,,,2,Ontime,f,0,2.0454,7,0,28,1,1,,,,,
1.61,,,,,,,,,f.PNG,f,5f6daa6a2a8a3e22518b10e0,2021-09-08_16h04.27.195,forced_choiceRT,2021.1.2,Win32,144.0092166,,,,,,,,2,Ontime,f,1,2.0079,7,1,29,0,1,,,,,
0.49,,,,,,,,,j.PNG,j,5f6daa6a2a8a3e22518b10e0,2021-09-08_16h04.27.195,forced_choiceRT,2021.1.2,Win32,144.0092166,,,,,,,,2,Ontime,j,1,1.947,7,2,30,3,1,,,,,
1.17,,,,,,,,,h.PNG,h,5f6daa6a2a8a3e22518b10e0,2021-09-08_16h04.27.195,forced_choiceRT,2021.1.2,Win32,144.0092166,,,,,,,,2,Ontime,h,1,1.9374,7,3,31,2,1,,,,,
0.98,,,,,,,,,j.PNG,j,5f6daa6a2a8a3e22518b10e0,2021-09-08_16h04.27.195,forced_choiceRT,2021.1.2,Win32,144.0092166,,,,,,,,2,Ontime,j,1,1.9488,8,0,32,3,1,,,,,
0.3,,,,,,,,,f.PNG,f,5f6daa6a2a8a3e22518b10e0,2021-09-08_16h04.27.195,forced_choiceRT,2021.1.2,Win32,144.0092166,,,,,,,,2,Ontime,f,1,1.9476,8,1,33,0,1,,,,,
1.38,,,,,,,,,j.PNG,j,5f6daa6a2a8a3e22518b10e0,2021-09-08_16h04.27.195,forced_choiceRT,2021.1.2,Win32,144.0092166,,,,,,,,2,Fast,j,1,1.8939,8,2,34,3,1,,,,,
1.83,,,,,,,,,h.PNG,h,5f6daa6a2a8a3e22518b10e0,2021-09-08_16h04.27.195,forced_choiceRT,2021.1.2,Win32,144.0092166,,,,,,,,2,Slow,h,1,2.2124,8,3,35,2,1,,,,,
0.4,,,,,,,,,g.PNG,g,5f6daa6a2a8a3e22518b10e0,2021-09-08_16h04.27.195,forced_choiceRT,2021.1.2,Win32,144.0092166,,,,,,,,2,Ontime,g,1,1.9105,9,0,36,1,1,,,,,
0.5,,,,,,,,,g.PNG,g,5f6daa6a2a8a3e22518b10e0,2021-09-08_16h04.27.195,forced_choiceRT,2021.1.2,Win32,144.0092166,,,,,,,,2,Ontime,g,1,1.9275,9,1,37,1,1,,,,,
0.4,,,,,,,,,g.PNG,g,5f6daa6a2a8a3e22518b10e0,2021-09-08_16h04.27.195,forced_choiceRT,2021.1.2,Win32,144.0092166,,,,,,,,2,Ontime,g,1,1.9711,9,2,38,1,1,,,,,
1.71,,,,,,,,,j.PNG,j,5f6daa6a2a8a3e22518b10e0,2021-09-08_16h04.27.195,forced_choiceRT,2021.1.2,Win32,144.0092166,,,,,,,,2,Slow,j,1,2.1933,9,3,39,3,1,,,,,
,,,,,,,,,,,5f6daa6a2a8a3e22518b10e0,2021-09-08_16h04.27.195,forced_choiceRT,2021.1.2,Win32,144.0092166,,,,,,,,,,,,,,,,,,1,0,1,0,1
1.32,,,,,,,,,f.PNG,f,5f6daa6a2a8a3e22518b10e0,2021-09-08_16h04.27.195,forced_choiceRT,2021.1.2,Win32,144.0092166,,,,,,,,3,Ontime,f,1,2.0114,0,0,0,0,1,,,,,
0.02,,,,,,,,,j.PNG,j,5f6daa6a2a8a3e22518b10e0,2021-09-08_16h04.27.195,forced_choiceRT,2021.1.2,Win32,144.0092166,,,,,,,,3,Ontime,j,1,1.9535,0,1,1,3,1,,,,,
1.15,,,,,,,,,h.PNG,h,5f6daa6a2a8a3e22518b10e0,2021-09-08_16h04.27.195,forced_choiceRT,2021.1.2,Win32,144.0092166,,,,,,,,3,Ontime,h,1,1.9131,0,2,2,2,1,,,,,
0.62,,,,,,,,,h.PNG,h,5f6daa6a2a8a3e22518b10e0,2021-09-08_16h04.27.195,forced_choiceRT,2021.1.2,Win32,144.0092166,,,,,,,,3,Ontime,h,1,1.9608,0,3,3,2,1,,,,,
1.53,,,,,,,,,h.PNG,h,5f6daa6a2a8a3e22518b10e0,2021-09-08_16h04.27.195,forced_choiceRT,2021.1.2,Win32,144.0092166,,,,,,,,3,Ontime,h,1,1.9678,1,0,4,2,1,,,,,
0.03,,,,,,,,,g.PNG,g,5f6daa6a2a8a3e22518b10e0,2021-09-08_16h04.27.195,forced_choiceRT,2021.1.2,Win32,144.0092166,,,,,,,,3,Ontime,g,1,1.9244,1,1,5,1,1,,,,,
0.11,,,,,,,,,j.PNG,j,5f6daa6a2a8a3e22518b10e0,2021-09-08_16h04.27.195,forced_choiceRT,2021.1.2,Win32,144.0092166,,,,,,,,3,Ontime,j,1,1.9615,1,2,6,3,1,,,,,
1.9,,,,,,,,,h.PNG,h,5f6daa6a2a8a3e22518b10e0,2021-09-08_16h04.27.195,forced_choiceRT,2021.1.2,Win32,144.0092166,,,,,,,,3,Ontime,f,0,2.0468,1,3,7,2,1,,,,,
1.33,,,,,,,,,f.PNG,f,5f6daa6a2a8a3e22518b10e0,2021-09-08_16h04.27.195,forced_choiceRT,2021.1.2,Win32,144.0092166,,,,,,,,3,Ontime,f,1,2.0269,2,0,8,0,1,,,,,
1.34,,,,,,,,,f.PNG,f,5f6daa6a2a8a3e22518b10e0,2021-09-08_16h04.27.195,forced_choiceRT,2021.1.2,Win32,144.0092166,,,,,,,,3,Ontime,f,1,2.0279,2,1,9,0,1,,,,,
0.13,,,,,,,,,f.PNG,f,5f6daa6a2a8a3e22518b10e0,2021-09-08_16h04.27.195,forced_choiceRT,2021.1.2,Win32,144.0092166,,,,,,,,3,Ontime,f,1,1.9662,2,2,10,0,1,,,,,
1.25,,,,,,,,,f.PNG,f,5f6daa6a2a8a3e22518b10e0,2021-09-08_16h04.27.195,forced_choiceRT,2021.1.2,Win32,144.0092166,,,,,,,,3,Ontime,f,1,2.0127,2,3,11,0,1,,,,,
1.14,,,,,,,,,f.PNG,f,5f6daa6a2a8a3e22518b10e0,2021-09-08_16h04.27.195,forced_choiceRT,2021.1.2,Win32,144.0092166,,,,,,,,3,Fast,f,1,1.8991,3,0,12,0,1,,,,,
1.35,,,,,,,,,g.PNG,g,5f6daa6a2a8a3e22518b10e0,2021-09-08_16h04.27.195,forced_choiceRT,2021.1.2,Win32,144.0092166,,,,,,,,3,Ontime,g,1,2.0597,3,1,13,1,1,,,,,
0.1,,,,,,,,,g.PNG,g,5f6daa6a2a8a3e22518b10e0,2021-09-08_16h04.27.195,forced_choiceRT,2021.1.2,Win32,144.0092166,,,,,,,,3,Ontime,g,1,1.9656,3,2,14,1,1,,,,,
0.02,,,,,,,,,f.PNG,f,5f6daa6a2a8a3e22518b10e0,2021-09-08_16h04.27.195,forced_choiceRT,2021.1.2,Win32,144.0092166,,,,,,,,3,Fast,f,1,1.8752,3,3,15,0,1,,,,,
0.08,,,,,,,,,f.PNG,f,5f6daa6a2a8a3e22518b10e0,2021-09-08_16h04.27.195,forced_choiceRT,2021.1.2,Win32,144.0092166,,,,,,,,3,Fast,f,1,1.8892,4,0,16,0,1,,,,,
1.2,,,,,,,,,g.PNG,g,5f6daa6a2a8a3e22518b10e0,2021-09-08_16h04.27.195,forced_choiceRT,2021.1.2,Win32,144.0092166,,,,,,,,3,Ontime,g,1,1.987,4,1,17,1,1,,,,,
0.37,,,,,,,,,j.PNG,j,5f6daa6a2a8a3e22518b10e0,2021-09-08_16h04.27.195,forced_choiceRT,2021.1.2,Win32,144.0092166,,,,,,,,3,Fast,j,1,1.8836,4,2,18,3,1,,,,,
1.68,,,,,,,,,j.PNG,j,5f6daa6a2a8a3e22518b10e0,2021-09-08_16h04.27.195,forced_choiceRT,2021.1.2,Win32,144.0092166,,,,,,,,3,Ontime,h,0,1.9694,4,3,19,3,1,,,,,
1.23,,,,,,,,,h.PNG,h,5f6daa6a2a8a3e22518b10e0,2021-09-08_16h04.27.195,forced_choiceRT,2021.1.2,Win32,144.0092166,,,,,,,,3,Ontime,h,1,1.9975,5,0,20,2,1,,,,,
1.57,,,,,,,,,g.PNG,g,5f6daa6a2a8a3e22518b10e0,2021-09-08_16h04.27.195,forced_choiceRT,2021.1.2,Win32,144.0092166,,,,,,,,3,Ontime,j,0,2.0147,5,1,21,1,1,,,,,
1.35,,,,,,,,,h.PNG,h,5f6daa6a2a8a3e22518b10e0,2021-09-08_16h04.27.195,forced_choiceRT,2021.1.2,Win32,144.0092166,,,,,,,,3,Ontime,h,1,1.9022,5,2,22,2,1,,,,,
1.19,,,,,,,,,g.PNG,g,5f6daa6a2a8a3e22518b10e0,2021-09-08_16h04.27.195,forced_choiceRT,2021.1.2,Win32,144.0092166,,,,,,,,3,Ontime,g,1,2.0062,5,3,23,1,1,,,,,
1.06,,,,,,,,,f.PNG,f,5f6daa6a2a8a3e22518b10e0,2021-09-08_16h04.27.195,forced_choiceRT,2021.1.2,Win32,144.0092166,,,,,,,,3,Ontime,f,1,2.0005,6,0,24,0,1,,,,,
0.68,,,,,,,,,h.PNG,h,5f6daa6a2a8a3e22518b10e0,2021-09-08_16h04.27.195,forced_choiceRT,2021.1.2,Win32,144.0092166,,,,,,,,3,Ontime,h,1,1.9281,6,1,25,2,1,,,,,
0.02,,,,,,,,,j.PNG,j,5f6daa6a2a8a3e22518b10e0,2021-09-08_16h04.27.195,forced_choiceRT,2021.1.2,Win32,144.0092166,,,,,,,,3,Ontime,j,1,1.975,6,2,26,3,1,,,,,
0.94,,,,,,,,,g.PNG,g,5f6daa6a2a8a3e22518b10e0,2021-09-08_16h04.27.195,forced_choiceRT,2021.1.2,Win32,144.0092166,,,,,,,,3,Ontime,g,1,2.0153,6,3,27,1,1,,,,,
1.2,,,,,,,,,j.PNG,j,5f6daa6a2a8a3e22518b10e0,2021-09-08_16h04.27.195,forced_choiceRT,2021.1.2,Win32,144.0092166,,,,,,,,3,Ontime,j,1,1.9825,7,0,28,3,1,,,,,
0.63,,,,,,,,,g.PNG,g,5f6daa6a2a8a3e22518b10e0,2021-09-08_16h04.27.195,forced_choiceRT,2021.1.2,Win32,144.0092166,,,,,,,,3,Ontime,g,1,1.9774,7,1,29,1,1,,,,,
0.38,,,,,,,,,j.PNG,j,5f6daa6a2a8a3e22518b10e0,2021-09-08_16h04.27.195,forced_choiceRT,2021.1.2,Win32,144.0092166,,,,,,,,3,Ontime,j,1,1.9907,7,2,30,3,1,,,,,
1.49,,,,,,,,,j.PNG,j,5f6daa6a2a8a3e22518b10e0,2021-09-08_16h04.27.195,forced_choiceRT,2021.1.2,Win32,144.0092166,,,,,,,,3,Slow,j,1,2.1437,7,3,31,3,1,,,,,
1.84,,,,,,,,,h.PNG,h,5f6daa6a2a8a3e22518b10e0,2021-09-08_16h04.27.195,forced_choiceRT,2021.1.2,Win32,144.0092166,,,,,,,,3,Slow,j,0,2.1588,8,0,32,2,1,,,,,
0.09,,,,,,,,,h.PNG,h,5f6daa6a2a8a3e22518b10e0,2021-09-08_16h04.27.195,forced_choiceRT,2021.1.2,Win32,144.0092166,,,,,,,,3,Ontime,h,1,1.9652,8,1,33,2,1,,,,,
0.17,,,,,,,,,j.PNG,j,5f6daa6a2a8a3e22518b10e0,2021-09-08_16h04.27.195,forced_choiceRT,2021.1.2,Win32,144.0092166,,,,,,,,3,Ontime,j,1,1.9891,8,2,34,3,1,,,,,
0.17,,,,,,,,,h.PNG,h,5f6daa6a2a8a3e22518b10e0,2021-09-08_16h04.27.195,forced_choiceRT,2021.1.2,Win32,144.0092166,,,,,,,,3,Ontime,h,1,2.0463,8,3,35,2,1,,,,,
1.27,,,,,,,,,g.PNG,g,5f6daa6a2a8a3e22518b10e0,2021-09-08_16h04.27.195,forced_choiceRT,2021.1.2,Win32,144.0092166,,,,,,,,3,Ontime,g,1,2.0174,9,0,36,1,1,,,,,
1.92,,,,,,,,,f.PNG,f,5f6daa6a2a8a3e22518b10e0,2021-09-08_16h04.27.195,forced_choiceRT,2021.1.2,Win32,144.0092166,,,,,,,,3,Ontime,j,0,2.0413,9,1,37,0,1,,,,,
1.23,,,,,,,,,j.PNG,j,5f6daa6a2a8a3e22518b10e0,2021-09-08_16h04.27.195,forced_choiceRT,2021.1.2,Win32,144.0092166,,,,,,,,3,Ontime,j,1,1.9399,9,2,38,3,1,,,,,
1.16,,,,,,,,,g.PNG,g,5f6daa6a2a8a3e22518b10e0,2021-09-08_16h04.27.195,forced_choiceRT,2021.1.2,Win32,144.0092166,,,,,,,,3,Ontime,g,1,1.9584,9,3,39,1,1,,,,,
,,,,,,,,,,,5f6daa6a2a8a3e22518b10e0,2021-09-08_16h04.27.195,forced_choiceRT,2021.1.2,Win32,144.0092166,,,,,,,,,,,,,,,,,,2,0,2,0,1
0.04,,,,,,,,,f.PNG,f,5f6daa6a2a8a3e22518b10e0,2021-09-08_16h04.27.195,forced_choiceRT,2021.1.2,Win32,144.0092166,,,,,,,,4,Ontime,f,1,1.9538,0,0,0,0,1,,,,,
1.58,,,,,,,,,j.PNG,j,5f6daa6a2a8a3e22518b10e0,2021-09-08_16h04.27.195,forced_choiceRT,2021.1.2,Win32,144.0092166,,,,,,,,4,Ontime,j,1,1.956,0,1,1,3,1,,,,,
1.54,,,,,,,,,f.PNG,f,5f6daa6a2a8a3e22518b10e0,2021-09-08_16h04.27.195,forced_choiceRT,2021.1.2,Win32,144.0092166,,,,,,,,4,Ontime,f,1,2.0984,0,2,2,0,1,,,,,
0.33,,,,,,,,,j.PNG,j,5f6daa6a2a8a3e22518b10e0,2021-09-08_16h04.27.195,forced_choiceRT,2021.1.2,Win32,144.0092166,,,,,,,,4,Ontime,j,1,2.0094,0,3,3,3,1,,,,,
0.96,,,,,,,,,h.PNG,h,5f6daa6a2a8a3e22518b10e0,2021-09-08_16h04.27.195,forced_choiceRT,2021.1.2,Win32,144.0092166,,,,,,,,4,Ontime,h,1,2.023,1,0,4,2,1,,,,,
1.69,,,,,,,,,g.PNG,g,5f6daa6a2a8a3e22518b10e0,2021-09-08_16h04.27.195,forced_choiceRT,2021.1.2,Win32,144.0092166,,,,,,,,4,Ontime,j,0,2.0948,1,1,5,1,1,,,,,
0.68,,,,,,,,,h.PNG,h,5f6daa6a2a8a3e22518b10e0,2021-09-08_16h04.27.195,forced_choiceRT,2021.1.2,Win32,144.0092166,,,,,,,,4,Ontime,h,1,2.0101,1,2,6,2,1,,,,,
0.74,,,,,,,,,f.PNG,f,5f6daa6a2a8a3e22518b10e0,2021-09-08_16h04.27.195,forced_choiceRT,2021.1.2,Win32,144.0092166,,,,,,,,4,Ontime,f,1,1.992,1,3,7,0,1,,,,,
0.4,,,,,,,,,j.PNG,j,5f6daa6a2a8a3e22518b10e0,2021-09-08_16h04.27.195,forced_choiceRT,2021.1.2,Win32,144.0092166,,,,,,,,4,Ontime,j,1,1.9565,2,0,8,3,1,,,,,
0.2,,,,,,,,,j.PNG,j,5f6daa6a2a8a3e22518b10e0,2021-09-08_16h04.27.195,forced_choiceRT,2021.1.2,Win32,144.0092166,,,,,,,,4,Ontime,j,1,1.9597,2,1,9,3,1,,,,,
0.38,,,,,,,,,f.PNG,f,5f6daa6a2a8a3e22518b10e0,2021-09-08_16h04.27.195,forced_choiceRT,2021.1.2,Win32,144.0092166,,,,,,,,4,Ontime,f,1,2.0703,2,2,10,0,1,,,,,
0.09,,,,,,,,,h.PNG,h,5f6daa6a2a8a3e22518b10e0,2021-09-08_16h04.27.195,forced_choiceRT,2021.1.2,Win32,144.0092166,,,,,,,,4,Ontime,h,1,1.9123,2,3,11,2,1,,,,,
0.72,,,,,,,,,g.PNG,g,5f6daa6a2a8a3e22518b10e0,2021-09-08_16h04.27.195,forced_choiceRT,2021.1.2,Win32,144.0092166,,,,,,,,4,Ontime,g,1,2.006,3,0,12,1,1,,,,,
0.38,,,,,,,,,f.PNG,f,5f6daa6a2a8a3e22518b10e0,2021-09-08_16h04.27.195,forced_choiceRT,2021.1.2,Win32,144.0092166,,,,,,,,4,Ontime,f,1,2.0188,3,1,13,0,1,,,,,
1.65,,,,,,,,,j.PNG,j,5f6daa6a2a8a3e22518b10e0,2021-09-08_16h04.27.195,forced_choiceRT,2021.1.2,Win32,144.0092166,,,,,,,,4,Ontime,j,1,2.0908,3,2,14,3,1,,,,,
1.73,,,,,,,,,h.PNG,h,5f6daa6a2a8a3e22518b10e0,2021-09-08_16h04.27.195,forced_choiceRT,2021.1.2,Win32,144.0092166,,,,,,,,4,Slow,j,0,2.1876,3,3,15,2,1,,,,,
0.65,,,,,,,,,g.PNG,g,5f6daa6a2a8a3e22518b10e0,2021-09-08_16h04.27.195,forced_choiceRT,2021.1.2,Win32,144.0092166,,,,,,,,4,Ontime,g,1,1.9733,4,0,16,1,1,,,,,
1.51,,,,,,,,,f.PNG,f,5f6daa6a2a8a3e22518b10e0,2021-09-08_16h04.27.195,forced_choiceRT,2021.1.2,Win32,144.0092166,,,,,,,,4,Ontime,f,1,2.0754,4,1,17,0,1,,,,,
1.45,,,,,,,,,j.PNG,j,5f6daa6a2a8a3e22518b10e0,2021-09-08_16h04.27.195,forced_choiceRT,2021.1.2,Win32,144.0092166,,,,,,,,4,Slow,j,1,2.1145,4,2,18,3,1,,,,,
0.1,,,,,,,,,g.PNG,g,5f6daa6a2a8a3e22518b10e0,2021-09-08_16h04.27.195,forced_choiceRT,2021.1.2,Win32,144.0092166,,,,,,,,4,Ontime,g,1,1.9462,4,3,19,1,1,,,,,
0.55,,,,,,,,,j.PNG,j,5f6daa6a2a8a3e22518b10e0,2021-09-08_16h04.27.195,forced_choiceRT,2021.1.2,Win32,144.0092166,,,,,,,,4,Ontime,j,1,2.0102,5,0,20,3,1,,,,,
0.21,,,,,,,,,j.PNG,j,5f6daa6a2a8a3e22518b10e0,2021-09-08_16h04.27.195,forced_choiceRT,2021.1.2,Win32,144.0092166,,,,,,,,4,Fast,j,1,1.8189,5,1,21,3,1,,,,,
0.25,,,,,,,,,g.PNG,g,5f6daa6a2a8a3e22518b10e0,2021-09-08_16h04.27.195,forced_choiceRT,2021.1.2,Win32,144.0092166,,,,,,,,4,Ontime,g,1,1.9459,5,2,22,1,1,,,,,
1.9,,,,,,,,,h.PNG,h,5f6daa6a2a8a3e22518b10e0,2021-09-08_16h04.27.195,forced_choiceRT,2021.1.2,Win32,144.0092166,,,,,,,,4,Slow,j,0,2.1153,5,3,23,2,1,,,,,
1.94,,,,,,,,,j.PNG,j,5f6daa6a2a8a3e22518b10e0,2021-09-08_16h04.27.195,forced_choiceRT,2021.1.2,Win32,144.0092166,,,,,,,,4,Slow,j,1,2.1409,6,0,24,3,1,,,,,
1.02,,,,,,,,,g.PNG,g,5f6daa6a2a8a3e22518b10e0,2021-09-08_16h04.27.195,forced_choiceRT,2021.1.2,Win32,144.0092166,,,,,,,,4,Ontime,h,0,1.9728,6,1,25,1,1,,,,,
0.02,,,,,,,,,g.PNG,g,5f6daa6a2a8a3e22518b10e0,2021-09-08_16h04.27.195,forced_choiceRT,2021.1.2,Win32,144.0092166,,,,,,,,4,Ontime,g,1,1.973,6,2,26,1,1,,,,,
1.24,,,,,,,,,g.PNG,g,5f6daa6a2a8a3e22518b10e0,2021-09-08_16h04.27.195,forced_choiceRT,2021.1.2,Win32,144.0092166,,,,,,,,4,Ontime,g,1,2.0537,6,3,27,1,1,,,,,
1.12,,,,,,,,,j.PNG,j,5f6daa6a2a8a3e22518b10e0,2021-09-08_16h04.27.195,forced_choiceRT,2021.1.2,Win32,144.0092166,,,,,,,,4,Slow,j,1,2.1,7,0,28,3,1,,,,,
1.25,,,,,,,,,f.PNG,f,5f6daa6a2a8a3e22518b10e0,2021-09-08_16h04.27.195,forced_choiceRT,2021.1.2,Win32,144.0092166,,,,,,,,4,Ontime,h,0,1.9478,7,1,29,0,1,,,,,
0.03,,,,,,,,,h.PNG,h,5f6daa6a2a8a3e22518b10e0,2021-09-08_16h04.27.195,forced_choiceRT,2021.1.2,Win32,144.0092166,,,,,,,,4,Ontime,h,1,1.9419,7,2,30,2,1,,,,,
1.38,,,,,,,,,g.PNG,g,5f6daa6a2a8a3e22518b10e0,2021-09-08_16h04.27.195,forced_choiceRT,2021.1.2,Win32,144.0092166,,,,,,,,4,Ontime,g,1,1.974,7,3,31,1,1,,,,,
1.57,,,,,,,,,g.PNG,g,5f6daa6a2a8a3e22518b10e0,2021-09-08_16h04.27.195,forced_choiceRT,2021.1.2,Win32,144.0092166,,,,,,,,4,Ontime,g,1,2.036,8,0,32,1,1,,,,,
1.49,,,,,,,,,f.PNG,f,5f6daa6a2a8a3e22518b10e0,2021-09-08_16h04.27.195,forced_choiceRT,2021.1.2,Win32,144.0092166,,,,,,,,4,Ontime,f,1,2.0183,8,1,33,0,1,,,,,
1.59,,,,,,,,,h.PNG,h,5f6daa6a2a8a3e22518b10e0,2021-09-08_16h04.27.195,forced_choiceRT,2021.1.2,Win32,144.0092166,,,,,,,,4,Ontime,j,0,2.0276,8,2,34,2,1,,,,,
1.49,,,,,,,,,f.PNG,f,5f6daa6a2a8a3e22518b10e0,2021-09-08_16h04.27.195,forced_choiceRT,2021.1.2,Win32,144.0092166,,,,,,,,4,Ontime,f,1,2.004,8,3,35,0,1,,,,,
1.21,,,,,,,,,f.PNG,f,5f6daa6a2a8a3e22518b10e0,2021-09-08_16h04.27.195,forced_choiceRT,2021.1.2,Win32,144.0092166,,,,,,,,4,Ontime,f,1,1.9203,9,0,36,0,1,,,,,
0.31,,,,,,,,,h.PNG,h,5f6daa6a2a8a3e22518b10e0,2021-09-08_16h04.27.195,forced_choiceRT,2021.1.2,Win32,144.0092166,,,,,,,,4,Ontime,h,1,2.0186,9,1,37,2,1,,,,,
0.05,,,,,,,,,h.PNG,h,5f6daa6a2a8a3e22518b10e0,2021-09-08_16h04.27.195,forced_choiceRT,2021.1.2,Win32,144.0092166,,,,,,,,4,Ontime,h,1,1.9895,9,2,38,2,1,,,,,
0.52,,,,,,,,,h.PNG,h,5f6daa6a2a8a3e22518b10e0,2021-09-08_16h04.27.195,forced_choiceRT,2021.1.2,Win32,144.0092166,,,,,,,,4,Ontime,h,1,1.9889,9,3,39,2,1,,,,,
,,,,,,,,,,,5f6daa6a2a8a3e22518b10e0,2021-09-08_16h04.27.195,forced_choiceRT,2021.1.2,Win32,144.0092166,,,,,,,,,,,,,,,,,,3,0,3,0,1
1.82,,,,,,,,,h.PNG,h,5f6daa6a2a8a3e22518b10e0,2021-09-08_16h04.27.195,forced_choiceRT,2021.1.2,Win32,144.0092166,,,,,,,,5,Slow,j,0,2.1499,0,0,0,2,1,,,,,
1,,,,,,,,,h.PNG,h,5f6daa6a2a8a3e22518b10e0,2021-09-08_16h04.27.195,forced_choiceRT,2021.1.2,Win32,144.0092166,,,,,,,,5,Ontime,h,1,2.0057,0,1,1,2,1,,,,,
1.46,,,,,,,,,f.PNG,f,5f6daa6a2a8a3e22518b10e0,2021-09-08_16h04.27.195,forced_choiceRT,2021.1.2,Win32,144.0092166,,,,,,,,5,Ontime,f,1,2.0114,0,2,2,0,1,,,,,
0.23,,,,,,,,,j.PNG,j,5f6daa6a2a8a3e22518b10e0,2021-09-08_16h04.27.195,forced_choiceRT,2021.1.2,Win32,144.0092166,,,,,,,,5,Ontime,j,1,1.9673,0,3,3,3,1,,,,,
0.54,,,,,,,,,f.PNG,f,5f6daa6a2a8a3e22518b10e0,2021-09-08_16h04.27.195,forced_choiceRT,2021.1.2,Win32,144.0092166,,,,,,,,5,Ontime,f,1,2.0084,1,0,4,0,1,,,,,
1.28,,,,,,,,,j.PNG,j,5f6daa6a2a8a3e22518b10e0,2021-09-08_16h04.27.195,forced_choiceRT,2021.1.2,Win32,144.0092166,,,,,,,,5,Ontime,j,1,1.994,1,1,5,3,1,,,,,
1.41,,,,,,,,,h.PNG,h,5f6daa6a2a8a3e22518b10e0,2021-09-08_16h04.27.195,forced_choiceRT,2021.1.2,Win32,144.0092166,,,,,,,,5,Slow,j,0,2.1442,1,2,6,2,1,,,,,
1.77,,,,,,,,,f.PNG,f,5f6daa6a2a8a3e22518b10e0,2021-09-08_16h04.27.195,forced_choiceRT,2021.1.2,Win32,144.0092166,,,,,,,,5,Slow,j,0,2.1113,1,3,7,0,1,,,,,
0.4,,,,,,,,,f.PNG,f,5f6daa6a2a8a3e22518b10e0,2021-09-08_16h04.27.195,forced_choiceRT,2021.1.2,Win32,144.0092166,,,,,,,,5,Ontime,f,1,1.959,2,0,8,0,1,,,,,
1.73,,,,,,,,,j.PNG,j,5f6daa6a2a8a3e22518b10e0,2021-09-08_16h04.27.195,forced_choiceRT,2021.1.2,Win32,144.0092166,,,,,,,,5,Ontime,f,0,1.9614,2,1,9,3,1,,,,,
1.99,,,,,,,,,j.PNG,j,5f6daa6a2a8a3e22518b10e0,2021-09-08_16h04.27.195,forced_choiceRT,2021.1.2,Win32,144.0092166,,,,,,,,5,Ontime,j,1,1.9373,2,2,10,3,1,,,,,
1.14,,,,,,,,,g.PNG,g,5f6daa6a2a8a3e22518b10e0,2021-09-08_16h04.27.195,forced_choiceRT,2021.1.2,Win32,144.0092166,,,,,,,,5,Ontime,h,0,2.0378,2,3,11,1,1,,,,,
1.74,,,,,,,,,g.PNG,g,5f6daa6a2a8a3e22518b10e0,2021-09-08_16h04.27.195,forced_choiceRT,2021.1.2,Win32,144.0092166,,,,,,,,5,Ontime,f,0,2.056,3,0,12,1,1,,,,,
1.36,,,,,,,,,g.PNG,g,5f6daa6a2a8a3e22518b10e0,2021-09-08_16h04.27.195,forced_choiceRT,2021.1.2,Win32,144.0092166,,,,,,,,5,Ontime,g,1,1.9879,3,1,13,1,1,,,,,
1.61,,,,,,,,,g.PNG,g,5f6daa6a2a8a3e22518b10e0,2021-09-08_16h04.27.195,forced_choiceRT,2021.1.2,Win32,144.0092166,,,,,,,,5,Slow,g,1,2.139,3,2,14,1,1,,,,,
1.65,,,,,,,,,f.PNG,f,5f6daa6a2a8a3e22518b10e0,2021-09-08_16h04.27.195,forced_choiceRT,2021.1.2,Win32,144.0092166,,,,,,,,5,Ontime,f,1,2.0006,3,3,15,0,1,,,,,
0.82,,,,,,,,,g.PNG,g,5f6daa6a2a8a3e22518b10e0,2021-09-08_16h04.27.195,forced_choiceRT,2021.1.2,Win32,144.0092166,,,,,,,,5,Fast,g,1,1.5999,4,0,16,1,1,,,,,
1.1,,,,,,,,,g.PNG,g,5f6daa6a2a8a3e22518b10e0,2021-09-08_16h04.27.195,forced_choiceRT,2021.1.2,Win32,144.0092166,,,,,,,,5,Ontime,g,1,2.0332,4,1,17,1,1,,,,,
0.2,,,,,,,,,h.PNG,h,5f6daa6a2a8a3e22518b10e0,2021-09-08_16h04.27.195,forced_choiceRT,2021.1.2,Win32,144.0092166,,,,,,,,5,Fast,h,1,1.8707,4,2,18,2,1,,,,,
1.97,,,,,,,,,h.PNG,h,5f6daa6a2a8a3e22518b10e0,2021-09-08_16h04.27.195,forced_choiceRT,2021.1.2,Win32,144.0092166,,,,,,,,5,Slow,f,0,2.1028,4,3,19,2,1,,,,,
1.25,,,,,,,,,h.PNG,h,5f6daa6a2a8a3e22518b10e0,2021-09-08_16h04.27.195,forced_choiceRT,2021.1.2,Win32,144.0092166,,,,,,,,5,Ontime,h,1,2.0208,5,0,20,2,1,,,,,
0.04,,,,,,,,,f.PNG,f,5f6daa6a2a8a3e22518b10e0,2021-09-08_16h04.27.195,forced_choiceRT,2021.1.2,Win32,144.0092166,,,,,,,,5,Ontime,f,1,1.9755,5,1,21,0,1,,,,,
1.79,,,,,,,,,j.PNG,j,5f6daa6a2a8a3e22518b10e0,2021-09-08_16h04.27.195,forced_choiceRT,2021.1.2,Win32,144.0092166,,,,,,,,5,Slow,g,0,2.1265,5,2,22,3,1,,,,,
1.2,,,,,,,,,g.PNG,g,5f6daa6a2a8a3e22518b10e0,2021-09-08_16h04.27.195,forced_choiceRT,2021.1.2,Win32,144.0092166,,,,,,,,5,Ontime,g,1,2.0518,5,3,23,1,1,,,,,
1.84,,,,,,,,,j.PNG,j,5f6daa6a2a8a3e22518b10e0,2021-09-08_16h04.27.195,forced_choiceRT,2021.1.2,Win32,144.0092166,,,,,,,,5,Ontime,j,1,2.0132,6,0,24,3,1,,,,,
0.17,,,,,,,,,g.PNG,g,5f6daa6a2a8a3e22518b10e0,2021-09-08_16h04.27.195,forced_choiceRT,2021.1.2,Win32,144.0092166,,,,,,,,5,Ontime,g,1,1.9618,6,1,25,1,1,,,,,
1.92,,,,,,,,,h.PNG,h,5f6daa6a2a8a3e22518b10e0,2021-09-08_16h04.27.195,forced_choiceRT,2021.1.2,Win32,144.0092166,,,,,,,,5,Ontime,f,0,2.0381,6,2,26,2,1,,,,,
1.74,,,,,,,,,j.PNG,j,5f6daa6a2a8a3e22518b10e0,2021-09-08_16h04.27.195,forced_choiceRT,2021.1.2,Win32,144.0092166,,,,,,,,5,Ontime,j,1,1.9811,6,3,27,3,1,,,,,
1.7,,,,,,,,,f.PNG,f,5f6daa6a2a8a3e22518b10e0,2021-09-08_16h04.27.195,forced_choiceRT,2021.1.2,Win32,144.0092166,,,,,,,,5,Ontime,j,0,2.0071,7,0,28,0,1,,,,,
0.01,,,,,,,,,h.PNG,h,5f6daa6a2a8a3e22518b10e0,2021-09-08_16h04.27.195,forced_choiceRT,2021.1.2,Win32,144.0092166,,,,,,,,5,Ontime,h,1,1.9746,7,1,29,2,1,,,,,
1.43,,,,,,,,,g.PNG,g,5f6daa6a2a8a3e22518b10e0,2021-09-08_16h04.27.195,forced_choiceRT,2021.1.2,Win32,144.0092166,,,,,,,,5,Ontime,g,1,2.0205,7,2,30,1,1,,,,,
0.73,,,,,,,,,h.PNG,h,5f6daa6a2a8a3e22518b10e0,2021-09-08_16h04.27.195,forced_choiceRT,2021.1.2,Win32,144.0092166,,,,,,,,5,Ontime,h,1,1.9618,7,3,31,2,1,,,,,
1.65,,,,,,,,,f.PNG,f,5f6daa6a2a8a3e22518b10e0,2021-09-08_16h04.27.195,forced_choiceRT,2021.1.2,Win32,144.0092166,,,,,,,,5,Ontime,g,0,2.0847,8,0,32,0,1,,,,,
0.17,,,,,,,,,j.PNG,j,5f6daa6a2a8a3e22518b10e0,2021-09-08_16h04.27.195,forced_choiceRT,2021.1.2,Win32,144.0092166,,,,,,,,5,Ontime,j,1,2.0233,8,1,33,3,1,,,,,
1.87,,,,,,,,,f.PNG,f,5f6daa6a2a8a3e22518b10e0,2021-09-08_16h04.27.195,forced_choiceRT,2021.1.2,Win32,144.0092166,,,,,,,,5,Ontime,f,1,1.9728,8,2,34,0,1,,,,,
0.15,,,,,,,,,f.PNG,f,5f6daa6a2a8a3e22518b10e0,2021-09-08_16h04.27.195,forced_choiceRT,2021.1.2,Win32,144.0092166,,,,,,,,5,Ontime,f,1,1.9259,8,3,35,0,1,,,,,
1.25,,,,,,,,,j.PNG,j,5f6daa6a2a8a3e22518b10e0,2021-09-08_16h04.27.195,forced_choiceRT,2021.1.2,Win32,144.0092166,,,,,,,,5,Ontime,j,1,2.0029,9,0,36,3,1,,,,,
0.94,,,,,,,,,h.PNG,h,5f6daa6a2a8a3e22518b10e0,2021-09-08_16h04.27.195,forced_choiceRT,2021.1.2,Win32,144.0092166,,,,,,,,5,Ontime,h,1,1.9733,9,1,37,2,1,,,,,
1.22,,,,,,,,,g.PNG,g,5f6daa6a2a8a3e22518b10e0,2021-09-08_16h04.27.195,forced_choiceRT,2021.1.2,Win32,144.0092166,,,,,,,,5,Ontime,g,1,1.985,9,2,38,1,1,,,,,
1.99,,,,,,,,,j.PNG,j,5f6daa6a2a8a3e22518b10e0,2021-09-08_16h04.27.195,forced_choiceRT,2021.1.2,Win32,144.0092166,,,,,,,,5,Ontime,f,0,1.9934,9,3,39,3,1,,,,,
,,,,,,,,,,,5f6daa6a2a8a3e22518b10e0,2021-09-08_16h04.27.195,forced_choiceRT,2021.1.2,Win32,144.0092166,,,,,,,,,,,,,,,,,,4,0,4,0,1
0.45,,,,,,,,,f.PNG,f,5f6daa6a2a8a3e22518b10e0,2021-09-08_16h04.27.195,forced_choiceRT,2021.1.2,Win32,144.0092166,,,,,,,,6,Ontime,f,1,2.0227,0,0,0,0,1,,,,,
0.67,,,,,,,,,f.PNG,f,5f6daa6a2a8a3e22518b10e0,2021-09-08_16h04.27.195,forced_choiceRT,2021.1.2,Win32,144.0092166,,,,,,,,6,Ontime,f,1,1.9764,0,1,1,0,1,,,,,
0.08,,,,,,,,,j.PNG,j,5f6daa6a2a8a3e22518b10e0,2021-09-08_16h04.27.195,forced_choiceRT,2021.1.2,Win32,144.0092166,,,,,,,,6,Ontime,j,1,2.0098,0,2,2,3,1,,,,,
1.22,,,,,,,,,g.PNG,g,5f6daa6a2a8a3e22518b10e0,2021-09-08_16h04.27.195,forced_choiceRT,2021.1.2,Win32,144.0092166,,,,,,,,6,Ontime,g,1,2.0354,0,3,3,1,1,,,,,
0.71,,,,,,,,,f.PNG,f,5f6daa6a2a8a3e22518b10e0,2021-09-08_16h04.27.195,forced_choiceRT,2021.1.2,Win32,144.0092166,,,,,,,,6,Ontime,f,1,2.0482,1,0,4,0,1,,,,,
1.36,,,,,,,,,h.PNG,h,5f6daa6a2a8a3e22518b10e0,2021-09-08_16h04.27.195,forced_choiceRT,2021.1.2,Win32,144.0092166,,,,,,,,6,Ontime,h,1,2.0701,1,1,5,2,1,,,,,
1.21,,,,,,,,,h.PNG,h,5f6daa6a2a8a3e22518b10e0,2021-09-08_16h04.27.195,forced_choiceRT,2021.1.2,Win32,144.0092166,,,,,,,,6,Ontime,h,1,2.035,1,2,6,2,1,,,,,
0.91,,,,,,,,,f.PNG,f,5f6daa6a2a8a3e22518b10e0,2021-09-08_16h04.27.195,forced_choiceRT,2021.1.2,Win32,144.0092166,,,,,,,,6,Ontime,f,1,2.0266,1,3,7,0,1,,,,,
0.73,,,,,,,,,f.PNG,f,5f6daa6a2a8a3e22518b10e0,2021-09-08_16h04.27.195,forced_choiceRT,2021.1.2,Win32,144.0092166,,,,,,,,6,Ontime,f,1,1.9903,2,0,8,0,1,,,,,
1.57,,,,,,,,,j.PNG,j,5f6daa6a2a8a3e22518b10e0,2021-09-08_16h04.27.195,forced_choiceRT,2021.1.2,Win32,144.0092166,,,,,,,,6,Ontime,j,1,2.093,2,1,9,3,1,,,,,
1.97,,,,,,,,,f.PNG,f,5f6daa6a2a8a3e22518b10e0,2021-09-08_16h04.27.195,forced_choiceRT,2021.1.2,Win32,144.0092166,,,,,,,,6,Slow,f,1,2.1274,2,2,10,0,1,,,,,
1.36,,,,,,,,,j.PNG,j,5f6daa6a2a8a3e22518b10e0,2021-09-08_16h04.27.195,forced_choiceRT,2021.1.2,Win32,144.0092166,,,,,,,,6,Ontime,j,1,2.0389,2,3,11,3,1,,,,,
0.65,,,,,,,,,h.PNG,h,5f6daa6a2a8a3e22518b10e0,2021-09-08_16h04.27.195,forced_choiceRT,2021.1.2,Win32,144.0092166,,,,,,,,6,Ontime,h,1,1.982,3,0,12,2,1,,,,,
1.91,,,,,,,,,h.PNG,h,5f6daa6a2a8a3e22518b10e0,2021-09-08_16h04.27.195,forced_choiceRT,2021.1.2,Win32,144.0092166,,,,,,,,6,Ontime,j,0,2.0754,3,1,13,2,1,,,,,
1.18,,,,,,,,,h.PNG,h,5f6daa6a2a8a3e22518b10e0,2021-09-08_16h04.27.195,forced_choiceRT,2021.1.2,Win32,144.0092166,,,,,,,,6,Ontime,h,1,2.0216,3,2,14,2,1,,,,,
1.07,,,,,,,,,h.PNG,h,5f6daa6a2a8a3e22518b10e0,2021-09-08_16h04.27.195,forced_choiceRT,2021.1.2,Win32,144.0092166,,,,,,,,6,Ontime,h,1,1.9996,3,3,15,2,1,,,,,
1.82,,,,,,,,,g.PNG,g,5f6daa6a2a8a3e22518b10e0,2021-09-08_16h04.27.195,forced_choiceRT,2021.1.2,Win32,144.0092166,,,,,,,,6,Ontime,j,0,1.9751,4,0,16,1,1,,,,,
1.57,,,,,,,,,g.PNG,g,5f6daa6a2a8a3e22518b10e0,2021-09-08_16h04.27.195,forced_choiceRT,2021.1.2,Win32,144.0092166,,,,,,,,6,Ontime,f,0,1.9856,4,1,17,1,1,,,,,
0.56,,,,,,,,,g.PNG,g,5f6daa6a2a8a3e22518b10e0,2021-09-08_16h04.27.195,forced_choiceRT,2021.1.2,Win32,144.0092166,,,,,,,,6,Ontime,g,1,1.9823,4,2,18,1,1,,,,,
0.76,,,,,,,,,f.PNG,f,5f6daa6a2a8a3e22518b10e0,2021-09-08_16h04.27.195,forced_choiceRT,2021.1.2,Win32,144.0092166,,,,,,,,6,Ontime,f,1,1.9979,4,3,19,0,1,,,,,
1.98,,,,,,,,,g.PNG,g,5f6daa6a2a8a3e22518b10e0,2021-09-08_16h04.27.195,forced_choiceRT,2021.1.2,Win32,144.0092166,,,,,,,,6,Ontime,f,0,2.0901,5,0,20,1,1,,,,,
0.5,,,,,,,,,j.PNG,j,5f6daa6a2a8a3e22518b10e0,2021-09-08_16h04.27.195,forced_choiceRT,2021.1.2,Win32,144.0092166,,,,,,,,6,Ontime,j,1,1.9475,5,1,21,3,1,,,,,
0.51,,,,,,,,,g.PNG,g,5f6daa6a2a8a3e22518b10e0,2021-09-08_16h04.27.195,forced_choiceRT,2021.1.2,Win32,144.0092166,,,,,,,,6,Ontime,g,1,2.0566,5,2,22,1,1,,,,,
0.17,,,,,,,,,j.PNG,j,5f6daa6a2a8a3e22518b10e0,2021-09-08_16h04.27.195,forced_choiceRT,2021.1.2,Win32,144.0092166,,,,,,,,6,Ontime,j,1,1.9403,5,3,23,3,1,,,,,
1.99,,,,,,,,,j.PNG,j,5f6daa6a2a8a3e22518b10e0,2021-09-08_16h04.27.195,forced_choiceRT,2021.1.2,Win32,144.0092166,,,,,,,,6,Ontime,j,1,2.0059,6,0,24,3,1,,,,,
0.1,,,,,,,,,g.PNG,g,5f6daa6a2a8a3e22518b10e0,2021-09-08_16h04.27.195,forced_choiceRT,2021.1.2,Win32,144.0092166,,,,,,,,6,Ontime,g,1,2.0254,6,1,25,1,1,,,,,
0.41,,,,,,,,,j.PNG,j,5f6daa6a2a8a3e22518b10e0,2021-09-08_16h04.27.195,forced_choiceRT,2021.1.2,Win32,144.0092166,,,,,,,,6,Ontime,j,1,1.9813,6,2,26,3,1,,,,,
1.41,,,,,,,,,f.PNG,f,5f6daa6a2a8a3e22518b10e0,2021-09-08_16h04.27.195,forced_choiceRT,2021.1.2,Win32,144.0092166,,,,,,,,6,Ontime,f,1,2.0216,6,3,27,0,1,,,,,
0.72,,,,,,,,,h.PNG,h,5f6daa6a2a8a3e22518b10e0,2021-09-08_16h04.27.195,forced_choiceRT,2021.1.2,Win32,144.0092166,,,,,,,,6,Ontime,h,1,1.9855,7,0,28,2,1,,,,,
1.27,,,,,,,,,j.PNG,j,5f6daa6a2a8a3e22518b10e0,2021-09-08_16h04.27.195,forced_choiceRT,2021.1.2,Win32,144.0092166,,,,,,,,6,Ontime,j,1,2.061,7,1,29,3,1,,,,,
1.45,,,,,,,,,g.PNG,g,5f6daa6a2a8a3e22518b10e0,2021-09-08_16h04.27.195,forced_choiceRT,2021.1.2,Win32,144.0092166,,,,,,,,6,Slow,f,0,2.2202,7,2,30,1,1,,,,,
1.3,,,,,,,,,j.PNG,j,5f6daa6a2a8a3e22518b10e0,2021-09-08_16h04.27.195,forced_choiceRT,2021.1.2,Win32,144.0092166,,,,,,,,6,Ontime,j,1,2.0129,7,3,31,3,1,,,,,
1.1,,,,,,,,,g.PNG,g,5f6daa6a2a8a3e22518b10e0,2021-09-08_16h04.27.195,forced_choiceRT,2021.1.2,Win32,144.0092166,,,,,,,,6,Ontime,g,1,1.957,8,0,32,1,1,,,,,
1.97,,,,,,,,,f.PNG,f,5f6daa6a2a8a3e22518b10e0,2021-09-08_16h04.27.195,forced_choiceRT,2021.1.2,Win32,144.0092166,,,,,,,,6,Ontime,f,1,2.0141,8,1,33,0,1,,,,,
1.7,,,,,,,,,f.PNG,f,5f6daa6a2a8a3e22518b10e0,2021-09-08_16h04.27.195,forced_choiceRT,2021.1.2,Win32,144.0092166,,,,,,,,6,Ontime,f,1,2.0837,8,2,34,0,1,,,,,
0.43,,,,,,,,,g.PNG,g,5f6daa6a2a8a3e22518b10e0,2021-09-08_16h04.27.195,forced_choiceRT,2021.1.2,Win32,144.0092166,,,,,,,,6,Ontime,g,1,1.9774,8,3,35,1,1,,,,,
0.86,,,,,,,,,h.PNG,h,5f6daa6a2a8a3e22518b10e0,2021-09-08_16h04.27.195,forced_choiceRT,2021.1.2,Win32,144.0092166,,,,,,,,6,Ontime,h,1,2.0007,9,0,36,2,1,,,,,
1.11,,,,,,,,,h.PNG,h,5f6daa6a2a8a3e22518b10e0,2021-09-08_16h04.27.195,forced_choiceRT,2021.1.2,Win32,144.0092166,,,,,,,,6,Ontime,h,1,2.0677,9,1,37,2,1,,,,,
1.19,,,,,,,,,j.PNG,j,5f6daa6a2a8a3e22518b10e0,2021-09-08_16h04.27.195,forced_choiceRT,2021.1.2,Win32,144.0092166,,,,,,,,6,Ontime,j,1,2.0791,9,2,38,3,1,,,,,
0.08,,,,,,,,,h.PNG,h,5f6daa6a2a8a3e22518b10e0,2021-09-08_16h04.27.195,forced_choiceRT,2021.1.2,Win32,144.0092166,,,,,,,,6,Ontime,h,1,2.022,9,3,39,2,1,,,,,
,,,,,,,,,,,5f6daa6a2a8a3e22518b10e0,2021-09-08_16h04.27.195,forced_choiceRT,2021.1.2,Win32,144.0092166,,,,,,,,,,,,,,,,,,5,0,5,0,1
1.62,,,,,,,,,h.PNG,h,5f6daa6a2a8a3e22518b10e0,2021-09-08_16h04.27.195,forced_choiceRT,2021.1.2,Win32,144.0092166,,,,,,,,7,Ontime,j,0,2.0864,0,0,0,2,1,,,,,
0.3,,,,,,,,,f.PNG,f,5f6daa6a2a8a3e22518b10e0,2021-09-08_16h04.27.195,forced_choiceRT,2021.1.2,Win32,144.0092166,,,,,,,,7,Ontime,f,1,1.9222,0,1,1,0,1,,,,,
1.46,,,,,,,,,f.PNG,f,5f6daa6a2a8a3e22518b10e0,2021-09-08_16h04.27.195,forced_choiceRT,2021.1.2,Win32,144.0092166,,,,,,,,7,Ontime,f,1,1.9408,0,2,2,0,1,,,,,
1.79,,,,,,,,,f.PNG,f,5f6daa6a2a8a3e22518b10e0,2021-09-08_16h04.27.195,forced_choiceRT,2021.1.2,Win32,144.0092166,,,,,,,,7,Ontime,f,1,1.984,0,3,3,0,1,,,,,
0.19,,,,,,,,,j.PNG,j,5f6daa6a2a8a3e22518b10e0,2021-09-08_16h04.27.195,forced_choiceRT,2021.1.2,Win32,144.0092166,,,,,,,,7,Ontime,j,1,2.0365,1,0,4,3,1,,,,,
0.28,,,,,,,,,j.PNG,j,5f6daa6a2a8a3e22518b10e0,2021-09-08_16h04.27.195,forced_choiceRT,2021.1.2,Win32,144.0092166,,,,,,,,7,Ontime,j,1,2.0321,1,1,5,3,1,,,,,
0.83,,,,,,,,,g.PNG,g,5f6daa6a2a8a3e22518b10e0,2021-09-08_16h04.27.195,forced_choiceRT,2021.1.2,Win32,144.0092166,,,,,,,,7,Ontime,g,1,1.976,1,2,6,1,1,,,,,
1.54,,,,,,,,,h.PNG,h,5f6daa6a2a8a3e22518b10e0,2021-09-08_16h04.27.195,forced_choiceRT,2021.1.2,Win32,144.0092166,,,,,,,,7,Ontime,j,0,1.9696,1,3,7,2,1,,,,,
0.89,,,,,,,,,h.PNG,h,5f6daa6a2a8a3e22518b10e0,2021-09-08_16h04.27.195,forced_choiceRT,2021.1.2,Win32,144.0092166,,,,,,,,7,Ontime,h,1,1.942,2,0,8,2,1,,,,,
0.12,,,,,,,,,j.PNG,j,5f6daa6a2a8a3e22518b10e0,2021-09-08_16h04.27.195,forced_choiceRT,2021.1.2,Win32,144.0092166,,,,,,,,7,Ontime,j,1,1.9252,2,1,9,3,1,,,,,
1.76,,,,,,,,,f.PNG,f,5f6daa6a2a8a3e22518b10e0,2021-09-08_16h04.27.195,forced_choiceRT,2021.1.2,Win32,144.0092166,,,,,,,,7,Ontime,f,1,2.0333,2,2,10,0,1,,,,,
1.03,,,,,,,,,f.PNG,f,5f6daa6a2a8a3e22518b10e0,2021-09-08_16h04.27.195,forced_choiceRT,2021.1.2,Win32,144.0092166,,,,,,,,7,Ontime,f,1,1.9746,2,3,11,0,1,,,,,
0.78,,,,,,,,,g.PNG,g,5f6daa6a2a8a3e22518b10e0,2021-09-08_16h04.27.195,forced_choiceRT,2021.1.2,Win32,144.0092166,,,,,,,,7,Ontime,g,1,2.003,3,0,12,1,1,,,,,
1.95,,,,,,,,,h.PNG,h,5f6daa6a2a8a3e22518b10e0,2021-09-08_16h04.27.195,forced_choiceRT,2021.1.2,Win32,144.0092166,,,,,,,,7,Ontime,f,0,2.0505,3,1,13,2,1,,,,,
0.63,,,,,,,,,j.PNG,j,5f6daa6a2a8a3e22518b10e0,2021-09-08_16h04.27.195,forced_choiceRT,2021.1.2,Win32,144.0092166,,,,,,,,7,Ontime,j,1,2.027,3,2,14,3,1,,,,,
1.17,,,,,,,,,h.PNG,h,5f6daa6a2a8a3e22518b10e0,2021-09-08_16h04.27.195,forced_choiceRT,2021.1.2,Win32,144.0092166,,,,,,,,7,Ontime,h,1,2.0208,3,3,15,2,1,,,,,
0.92,,,,,,,,,g.PNG,g,5f6daa6a2a8a3e22518b10e0,2021-09-08_16h04.27.195,forced_choiceRT,2021.1.2,Win32,144.0092166,,,,,,,,7,Ontime,g,1,2.0655,4,0,16,1,1,,,,,
1.31,,,,,,,,,j.PNG,j,5f6daa6a2a8a3e22518b10e0,2021-09-08_16h04.27.195,forced_choiceRT,2021.1.2,Win32,144.0092166,,,,,,,,7,Ontime,j,1,2.0603,4,1,17,3,1,,,,,
0.45,,,,,,,,,j.PNG,j,5f6daa6a2a8a3e22518b10e0,2021-09-08_16h04.27.195,forced_choiceRT,2021.1.2,Win32,144.0092166,,,,,,,,7,Ontime,j,1,2.0168,4,2,18,3,1,,,,,
1.24,,,,,,,,,g.PNG,g,5f6daa6a2a8a3e22518b10e0,2021-09-08_16h04.27.195,forced_choiceRT,2021.1.2,Win32,144.0092166,,,,,,,,7,Ontime,g,1,2.0202,4,3,19,1,1,,,,,
1.5,,,,,,,,,g.PNG,g,5f6daa6a2a8a3e22518b10e0,2021-09-08_16h04.27.195,forced_choiceRT,2021.1.2,Win32,144.0092166,,,,,,,,7,Ontime,g,1,1.9806,5,0,20,1,1,,,,,
1.8,,,,,,,,,h.PNG,h,5f6daa6a2a8a3e22518b10e0,2021-09-08_16h04.27.195,forced_choiceRT,2021.1.2,Win32,144.0092166,,,,,,,,7,Ontime,f,0,2.0508,5,1,21,2,1,,,,,
1.64,,,,,,,,,f.PNG,f,5f6daa6a2a8a3e22518b10e0,2021-09-08_16h04.27.195,forced_choiceRT,2021.1.2,Win32,144.0092166,,,,,,,,7,Ontime,f,1,2.0686,5,2,22,0,1,,,,,
0.6,,,,,,,,,f.PNG,f,5f6daa6a2a8a3e22518b10e0,2021-09-08_16h04.27.195,forced_choiceRT,2021.1.2,Win32,144.0092166,,,,,,,,7,Ontime,f,1,1.9519,5,3,23,0,1,,,,,
0.76,,,,,,,,,h.PNG,h,5f6daa6a2a8a3e22518b10e0,2021-09-08_16h04.27.195,forced_choiceRT,2021.1.2,Win32,144.0092166,,,,,,,,7,Ontime,h,1,2.0151,6,0,24,2,1,,,,,
1.69,,,,,,,,,g.PNG,g,5f6daa6a2a8a3e22518b10e0,2021-09-08_16h04.27.195,forced_choiceRT,2021.1.2,Win32,144.0092166,,,,,,,,7,Ontime,f,0,2.0793,6,1,25,1,1,,,,,
1.6,,,,,,,,,j.PNG,j,5f6daa6a2a8a3e22518b10e0,2021-09-08_16h04.27.195,forced_choiceRT,2021.1.2,Win32,144.0092166,,,,,,,,7,Slow,j,1,2.183,6,2,26,3,1,,,,,
0.65,,,,,,,,,g.PNG,g,5f6daa6a2a8a3e22518b10e0,2021-09-08_16h04.27.195,forced_choiceRT,2021.1.2,Win32,144.0092166,,,,,,,,7,Ontime,g,1,1.9923,6,3,27,1,1,,,,,
1.65,,,,,,,,,g.PNG,g,5f6daa6a2a8a3e22518b10e0,2021-09-08_16h04.27.195,forced_choiceRT,2021.1.2,Win32,144.0092166,,,,,,,,7,Ontime,f,0,1.9947,7,0,28,1,1,,,,,
0.01,,,,,,,,,j.PNG,j,5f6daa6a2a8a3e22518b10e0,2021-09-08_16h04.27.195,forced_choiceRT,2021.1.2,Win32,144.0092166,,,,,,,,7,Ontime,j,1,1.9159,7,1,29,3,1,,,,,
1.37,,,,,,,,,f.PNG,f,5f6daa6a2a8a3e22518b10e0,2021-09-08_16h04.27.195,forced_choiceRT,2021.1.2,Win32,144.0092166,,,,,,,,7,Ontime,f,1,2.0056,7,2,30,0,1,,,,,
1.43,,,,,,,,,h.PNG,h,5f6daa6a2a8a3e22518b10e0,2021-09-08_16h04.27.195,forced_choiceRT,2021.1.2,Win32,144.0092166,,,,,,,,7,Ontime,j,0,2.0211,7,3,31,2,1,,,,,
0.8,,,,,,,,,g.PNG,g,5f6daa6a2a8a3e22518b10e0,2021-09-08_16h04.27.195,forced_choiceRT,2021.1.2,Win32,144.0092166,,,,,,,,7,Ontime,g,1,1.9415,8,0,32,1,1,,,,,
0.74,,,,,,,,,h.PNG,h,5f6daa6a2a8a3e22518b10e0,2021-09-08_16h04.27.195,forced_choiceRT,2021.1.2,Win32,144.0092166,,,,,,,,7,Ontime,h,1,2.0197,8,1,33,2,1,,,,,
0.61,,,,,,,,,j.PNG,j,5f6daa6a2a8a3e22518b10e0,2021-09-08_16h04.27.195,forced_choiceRT,2021.1.2,Win32,144.0092166,,,,,,,,7,Ontime,j,1,1.9971,8,2,34,3,1,,,,,
1.72,,,,,,,,,f.PNG,f,5f6daa6a2a8a3e22518b10e0,2021-09-08_16h04.27.195,forced_choiceRT,2021.1.2,Win32,144.0092166,,,,,,,,7,Ontime,f,1,2.0553,8,3,35,0,1,,,,,
0.14,,,,,,,,,f.PNG,f,5f6daa6a2a8a3e22518b10e0,2021-09-08_16h04.27.195,forced_choiceRT,2021.1.2,Win32,144.0092166,,,,,,,,7,Ontime,f,1,1.9792,9,0,36,0,1,,,,,
0.43,,,,,,,,,g.PNG,g,5f6daa6a2a8a3e22518b10e0,2021-09-08_16h04.27.195,forced_choiceRT,2021.1.2,Win32,144.0092166,,,,,,,,7,Ontime,g,1,2.0614,9,1,37,1,1,,,,,
0.95,,,,,,,,,h.PNG,h,5f6daa6a2a8a3e22518b10e0,2021-09-08_16h04.27.195,forced_choiceRT,2021.1.2,Win32,144.0092166,,,,,,,,7,Slow,h,1,2.1034,9,2,38,2,1,,,,,
0.83,,,,,,,,,j.PNG,j,5f6daa6a2a8a3e22518b10e0,2021-09-08_16h04.27.195,forced_choiceRT,2021.1.2,Win32,144.0092166,,,,,,,,7,Ontime,j,1,1.9277,9,3,39,3,1,,,,,
,,,,,,,,,,,5f6daa6a2a8a3e22518b10e0,2021-09-08_16h04.27.195,forced_choiceRT,2021.1.2,Win32,144.0092166,,,,,,,,,,,,,,,,,,6,0,6,0,1
0.86,,,,,,,,,g.PNG,g,5f6daa6a2a8a3e22518b10e0,2021-09-08_16h04.27.195,forced_choiceRT,2021.1.2,Win32,144.0092166,,,,,,,,8,Slow,g,1,2.1425,0,0,0,1,1,,,,,
1.3,,,,,,,,,g.PNG,g,5f6daa6a2a8a3e22518b10e0,2021-09-08_16h04.27.195,forced_choiceRT,2021.1.2,Win32,144.0092166,,,,,,,,8,Ontime,g,1,2.0271,0,1,1,1,1,,,,,
0.75,,,,,,,,,h.PNG,h,5f6daa6a2a8a3e22518b10e0,2021-09-08_16h04.27.195,forced_choiceRT,2021.1.2,Win32,144.0092166,,,,,,,,8,Ontime,h,1,1.9681,0,2,2,2,1,,,,,
0.45,,,,,,,,,j.PNG,j,5f6daa6a2a8a3e22518b10e0,2021-09-08_16h04.27.195,forced_choiceRT,2021.1.2,Win32,144.0092166,,,,,,,,8,Ontime,j,1,1.9594,0,3,3,3,1,,,,,
0.83,,,,,,,,,g.PNG,g,5f6daa6a2a8a3e22518b10e0,2021-09-08_16h04.27.195,forced_choiceRT,2021.1.2,Win32,144.0092166,,,,,,,,8,Ontime,h,0,2.0008,1,0,4,1,1,,,,,
1.29,,,,,,,,,h.PNG,h,5f6daa6a2a8a3e22518b10e0,2021-09-08_16h04.27.195,forced_choiceRT,2021.1.2,Win32,144.0092166,,,,,,,,8,Ontime,j,0,2.0969,1,1,5,2,1,,,,,
0.48,,,,,,,,,j.PNG,j,5f6daa6a2a8a3e22518b10e0,2021-09-08_16h04.27.195,forced_choiceRT,2021.1.2,Win32,144.0092166,,,,,,,,8,Ontime,j,1,2.0532,1,2,6,3,1,,,,,
0.18,,,,,,,,,j.PNG,j,5f6daa6a2a8a3e22518b10e0,2021-09-08_16h04.27.195,forced_choiceRT,2021.1.2,Win32,144.0092166,,,,,,,,8,Ontime,j,1,1.9733,1,3,7,3,1,,,,,
0.61,,,,,,,,,j.PNG,j,5f6daa6a2a8a3e22518b10e0,2021-09-08_16h04.27.195,forced_choiceRT,2021.1.2,Win32,144.0092166,,,,,,,,8,Ontime,j,1,1.9718,2,0,8,3,1,,,,,
1.99,,,,,,,,,j.PNG,j,5f6daa6a2a8a3e22518b10e0,2021-09-08_16h04.27.195,forced_choiceRT,2021.1.2,Win32,144.0092166,,,,,,,,8,Slow,f,0,2.1684,2,1,9,3,1,,,,,
0.74,,,,,,,,,h.PNG,h,5f6daa6a2a8a3e22518b10e0,2021-09-08_16h04.27.195,forced_choiceRT,2021.1.2,Win32,144.0092166,,,,,,,,8,Ontime,h,1,2.032,2,2,10,2,1,,,,,
0.8,,,,,,,,,h.PNG,h,5f6daa6a2a8a3e22518b10e0,2021-09-08_16h04.27.195,forced_choiceRT,2021.1.2,Win32,144.0092166,,,,,,,,8,Ontime,h,1,1.9987,2,3,11,2,1,,,,,
0.1,,,,,,,,,f.PNG,f,5f6daa6a2a8a3e22518b10e0,2021-09-08_16h04.27.195,forced_choiceRT,2021.1.2,Win32,144.0092166,,,,,,,,8,Ontime,f,1,1.9718,3,0,12,0,1,,,,,
1.84,,,,,,,,,g.PNG,g,5f6daa6a2a8a3e22518b10e0,2021-09-08_16h04.27.195,forced_choiceRT,2021.1.2,Win32,144.0092166,,,,,,,,8,Ontime,j,0,2.0489,3,1,13,1,1,,,,,
0.86,,,,,,,,,j.PNG,j,5f6daa6a2a8a3e22518b10e0,2021-09-08_16h04.27.195,forced_choiceRT,2021.1.2,Win32,144.0092166,,,,,,,,8,Ontime,j,1,1.9639,3,2,14,3,1,,,,,
0.48,,,,,,,,,f.PNG,f,5f6daa6a2a8a3e22518b10e0,2021-09-08_16h04.27.195,forced_choiceRT,2021.1.2,Win32,144.0092166,,,,,,,,8,Ontime,f,1,2.0013,3,3,15,0,1,,,,,
0.87,,,,,,,,,g.PNG,g,5f6daa6a2a8a3e22518b10e0,2021-09-08_16h04.27.195,forced_choiceRT,2021.1.2,Win32,144.0092166,,,,,,,,8,Ontime,g,1,2.0169,4,0,16,1,1,,,,,
1.43,,,,,,,,,f.PNG,f,5f6daa6a2a8a3e22518b10e0,2021-09-08_16h04.27.195,forced_choiceRT,2021.1.2,Win32,144.0092166,,,,,,,,8,Slow,f,1,2.1714,4,1,17,0,1,,,,,
0.09,,,,,,,,,h.PNG,h,5f6daa6a2a8a3e22518b10e0,2021-09-08_16h04.27.195,forced_choiceRT,2021.1.2,Win32,144.0092166,,,,,,,,8,Ontime,h,1,1.9113,4,2,18,2,1,,,,,
0.14,,,,,,,,,f.PNG,f,5f6daa6a2a8a3e22518b10e0,2021-09-08_16h04.27.195,forced_choiceRT,2021.1.2,Win32,144.0092166,,,,,,,,8,Ontime,f,1,1.9455,4,3,19,0,1,,,,,
0.59,,,,,,,,,f.PNG,f,5f6daa6a2a8a3e22518b10e0,2021-09-08_16h04.27.195,forced_choiceRT,2021.1.2,Win32,144.0092166,,,,,,,,8,Ontime,f,1,1.9756,5,0,20,0,1,,,,,
0.76,,,,,,,,,f.PNG,f,5f6daa6a2a8a3e22518b10e0,2021-09-08_16h04.27.195,forced_choiceRT,2021.1.2,Win32,144.0092166,,,,,,,,8,Ontime,f,1,2.0534,5,1,21,0,1,,,,,
1.64,,,,,,,,,g.PNG,g,5f6daa6a2a8a3e22518b10e0,2021-09-08_16h04.27.195,forced_choiceRT,2021.1.2,Win32,144.0092166,,,,,,,,8,Ontime,f,0,1.9846,5,2,22,1,1,,,,,
1.03,,,,,,,,,f.PNG,f,5f6daa6a2a8a3e22518b10e0,2021-09-08_16h04.27.195,forced_choiceRT,2021.1.2,Win32,144.0092166,,,,,,,,8,Ontime,f,1,2.0789,5,3,23,0,1,,,,,
1.56,,,,,,,,,h.PNG,h,5f6daa6a2a8a3e22518b10e0,2021-09-08_16h04.27.195,forced_choiceRT,2021.1.2,Win32,144.0092166,,,,,,,,8,Ontime,j,0,2.0706,6,0,24,2,1,,,,,
1.46,,,,,,,,,f.PNG,f,5f6daa6a2a8a3e22518b10e0,2021-09-08_16h04.27.195,forced_choiceRT,2021.1.2,Win32,144.0092166,,,,,,,,8,Ontime,f,1,1.9015,6,1,25,0,1,,,,,
1.53,,,,,,,,,f.PNG,f,5f6daa6a2a8a3e22518b10e0,2021-09-08_16h04.27.195,forced_choiceRT,2021.1.2,Win32,144.0092166,,,,,,,,8,Ontime,f,1,1.9683,6,2,26,0,1,,,,,
1.14,,,,,,,,,h.PNG,h,5f6daa6a2a8a3e22518b10e0,2021-09-08_16h04.27.195,forced_choiceRT,2021.1.2,Win32,144.0092166,,,,,,,,8,Ontime,h,1,2.0354,6,3,27,2,1,,,,,
1.56,,,,,,,,,j.PNG,j,5f6daa6a2a8a3e22518b10e0,2021-09-08_16h04.27.195,forced_choiceRT,2021.1.2,Win32,144.0092166,,,,,,,,8,Slow,j,1,2.1034,7,0,28,3,1,,,,,
1.65,,,,,,,,,j.PNG,j,5f6daa6a2a8a3e22518b10e0,2021-09-08_16h04.27.195,forced_choiceRT,2021.1.2,Win32,144.0092166,,,,,,,,8,Slow,h,0,2.1233,7,1,29,3,1,,,,,
1.04,,,,,,,,,g.PNG,g,5f6daa6a2a8a3e22518b10e0,2021-09-08_16h04.27.195,forced_choiceRT,2021.1.2,Win32,144.0092166,,,,,,,,8,Ontime,g,1,1.9331,7,2,30,1,1,,,,,
0.44,,,,,,,,,g.PNG,g,5f6daa6a2a8a3e22518b10e0,2021-09-08_16h04.27.195,forced_choiceRT,2021.1.2,Win32,144.0092166,,,,,,,,8,Ontime,g,1,2.0101,7,3,31,1,1,,,,,
0.63,,,,,,,,,h.PNG,h,5f6daa6a2a8a3e22518b10e0,2021-09-08_16h04.27.195,forced_choiceRT,2021.1.2,Win32,144.0092166,,,,,,,,8,Ontime,h,1,1.9592,8,0,32,2,1,,,,,
1.91,,,,,,,,,j.PNG,j,5f6daa6a2a8a3e22518b10e0,2021-09-08_16h04.27.195,forced_choiceRT,2021.1.2,Win32,144.0092166,,,,,,,,8,Ontime,f,0,2.0303,8,1,33,3,1,,,,,
1.48,,,,,,,,,f.PNG,f,5f6daa6a2a8a3e22518b10e0,2021-09-08_16h04.27.195,forced_choiceRT,2021.1.2,Win32,144.0092166,,,,,,,,8,Ontime,f,1,1.9769,8,2,34,0,1,,,,,
0.39,,,,,,,,,g.PNG,g,5f6daa6a2a8a3e22518b10e0,2021-09-08_16h04.27.195,forced_choiceRT,2021.1.2,Win32,144.0092166,,,,,,,,8,Ontime,g,1,1.9401,8,3,35,1,1,,,,,
1.49,,,,,,,,,h.PNG,h,5f6daa6a2a8a3e22518b10e0,2021-09-08_16h04.27.195,forced_choiceRT,2021.1.2,Win32,144.0092166,,,,,,,,8,Ontime,h,1,2.0526,9,0,36,2,1,,,,,
0.34,,,,,,,,,h.PNG,h,5f6daa6a2a8a3e22518b10e0,2021-09-08_16h04.27.195,forced_choiceRT,2021.1.2,Win32,144.0092166,,,,,,,,8,Slow,h,1,2.11,9,1,37,2,1,,,,,
0.58,,,,,,,,,j.PNG,j,5f6daa6a2a8a3e22518b10e0,2021-09-08_16h04.27.195,forced_choiceRT,2021.1.2,Win32,144.0092166,,,,,,,,8,Ontime,j,1,1.9498,9,2,38,3,1,,,,,
0.82,,,,,,,,,g.PNG,g,5f6daa6a2a8a3e22518b10e0,2021-09-08_16h04.27.195,forced_choiceRT,2021.1.2,Win32,144.0092166,,,,,,,,8,Ontime,g,1,2.0047,9,3,39,1,1,,,,,
,,,,,,,,,,,5f6daa6a2a8a3e22518b10e0,2021-09-08_16h04.27.195,forced_choiceRT,2021.1.2,Win32,144.0092166,,,,,,,,,,,,,,,,,,7,0,7,0,1
1.17,,,,,,,,,j.PNG,j,5f6daa6a2a8a3e22518b10e0,2021-09-08_16h04.27.195,forced_choiceRT,2021.1.2,Win32,144.0092166,,,,,,,,9,Ontime,j,1,2.0452,0,0,0,3,1,,,,,
1.94,,,,,,,,,h.PNG,h,5f6daa6a2a8a3e22518b10e0,2021-09-08_16h04.27.195,forced_choiceRT,2021.1.2,Win32,144.0092166,,,,,,,,9,Slow,f,0,2.1789,0,1,1,2,1,,,,,
0.35,,,,,,,,,f.PNG,f,5f6daa6a2a8a3e22518b10e0,2021-09-08_16h04.27.195,forced_choiceRT,2021.1.2,Win32,144.0092166,,,,,,,,9,Ontime,f,1,1.9464,0,2,2,0,1,,,,,
1.48,,,,,,,,,f.PNG,f,5f6daa6a2a8a3e22518b10e0,2021-09-08_16h04.27.195,forced_choiceRT,2021.1.2,Win32,144.0092166,,,,,,,,9,Ontime,f,1,1.9721,0,3,3,0,1,,,,,
0.84,,,,,,,,,j.PNG,j,5f6daa6a2a8a3e22518b10e0,2021-09-08_16h04.27.195,forced_choiceRT,2021.1.2,Win32,144.0092166,,,,,,,,9,Ontime,j,1,1.9871,1,0,4,3,1,,,,,
0.56,,,,,,,,,j.PNG,j,5f6daa6a2a8a3e22518b10e0,2021-09-08_16h04.27.195,forced_choiceRT,2021.1.2,Win32,144.0092166,,,,,,,,9,Ontime,j,1,2.0264,1,1,5,3,1,,,,,
1.97,,,,,,,,,h.PNG,h,5f6daa6a2a8a3e22518b10e0,2021-09-08_16h04.27.195,forced_choiceRT,2021.1.2,Win32,144.0092166,,,,,,,,9,Slow,f,0,2.1333,1,2,6,2,1,,,,,
1.8,,,,,,,,,g.PNG,g,5f6daa6a2a8a3e22518b10e0,2021-09-08_16h04.27.195,forced_choiceRT,2021.1.2,Win32,144.0092166,,,,,,,,9,Ontime,f,0,2.0301,1,3,7,1,1,,,,,
0.57,,,,,,,,,g.PNG,g,5f6daa6a2a8a3e22518b10e0,2021-09-08_16h04.27.195,forced_choiceRT,2021.1.2,Win32,144.0092166,,,,,,,,9,Fast,g,1,1.8433,2,0,8,1,1,,,,,
0.36,,,,,,,,,j.PNG,j,5f6daa6a2a8a3e22518b10e0,2021-09-08_16h04.27.195,forced_choiceRT,2021.1.2,Win32,144.0092166,,,,,,,,9,Ontime,j,1,1.9343,2,1,9,3,1,,,,,
1.66,,,,,,,,,h.PNG,h,5f6daa6a2a8a3e22518b10e0,2021-09-08_16h04.27.195,forced_choiceRT,2021.1.2,Win32,144.0092166,,,,,,,,9,Ontime,f,0,2.0263,2,2,10,2,1,,,,,
0.32,,,,,,,,,j.PNG,j,5f6daa6a2a8a3e22518b10e0,2021-09-08_16h04.27.195,forced_choiceRT,2021.1.2,Win32,144.0092166,,,,,,,,9,Ontime,j,1,1.9512,2,3,11,3,1,,,,,
1.61,,,,,,,,,g.PNG,g,5f6daa6a2a8a3e22518b10e0,2021-09-08_16h04.27.195,forced_choiceRT,2021.1.2,Win32,144.0092166,,,,,,,,9,Ontime,f,0,2.0804,3,0,12,1,1,,,,,
1.47,,,,,,,,,h.PNG,h,5f6daa6a2a8a3e22518b10e0,2021-09-08_16h04.27.195,forced_choiceRT,2021.1.2,Win32,144.0092166,,,,,,,,9,Slow,h,1,2.134,3,1,13,2,1,,,,,
0.25,,,,,,,,,f.PNG,f,5f6daa6a2a8a3e22518b10e0,2021-09-08_16h04.27.195,forced_choiceRT,2021.1.2,Win32,144.0092166,,,,,,,,9,Ontime,f,1,1.9962,3,2,14,0,1,,,,,
1.41,,,,,,,,,h.PNG,h,5f6daa6a2a8a3e22518b10e0,2021-09-08_16h04.27.195,forced_choiceRT,2021.1.2,Win32,144.0092166,,,,,,,,9,Ontime,h,1,2.0707,3,3,15,2,1,,,,,
0.29,,,,,,,,,f.PNG,f,5f6daa6a2a8a3e22518b10e0,2021-09-08_16h04.27.195,forced_choiceRT,2021.1.2,Win32,144.0092166,,,,,,,,9,Ontime,f,1,1.951,4,0,16,0,1,,,,,
0.18,,,,,,,,,g.PNG,g,5f6daa6a2a8a3e22518b10e0,2021-09-08_16h04.27.195,forced_choiceRT,2021.1.2,Win32,144.0092166,,,,,,,,9,Ontime,g,1,1.9734,4,1,17,1,1,,,,,
1.75,,,,,,,,,h.PNG,h,5f6daa6a2a8a3e22518b10e0,2021-09-08_16h04.27.195,forced_choiceRT,2021.1.2,Win32,144.0092166,,,,,,,,9,Ontime,f,0,2.046,4,2,18,2,1,,,,,
0.49,,,,,,,,,j.PNG,j,5f6daa6a2a8a3e22518b10e0,2021-09-08_16h04.27.195,forced_choiceRT,2021.1.2,Win32,144.0092166,,,,,,,,9,Ontime,j,1,1.9624,4,3,19,3,1,,,,,
1.43,,,,,,,,,h.PNG,h,5f6daa6a2a8a3e22518b10e0,2021-09-08_16h04.27.195,forced_choiceRT,2021.1.2,Win32,144.0092166,,,,,,,,9,Slow,h,1,2.1945,5,0,20,2,1,,,,,
0.64,,,,,,,,,j.PNG,j,5f6daa6a2a8a3e22518b10e0,2021-09-08_16h04.27.195,forced_choiceRT,2021.1.2,Win32,144.0092166,,,,,,,,9,Ontime,j,1,1.9405,5,1,21,3,1,,,,,
1.51,,,,,,,,,h.PNG,h,5f6daa6a2a8a3e22518b10e0,2021-09-08_16h04.27.195,forced_choiceRT,2021.1.2,Win32,144.0092166,,,,,,,,9,Ontime,h,1,1.9259,5,2,22,2,1,,,,,
1.71,,,,,,,,,g.PNG,g,5f6daa6a2a8a3e22518b10e0,2021-09-08_16h04.27.195,forced_choiceRT,2021.1.2,Win32,144.0092166,,,,,,,,9,Ontime,j,0,2.0296,5,3,23,1,1,,,,,
1.97,,,,,,,,,f.PNG,f,5f6daa6a2a8a3e22518b10e0,2021-09-08_16h04.27.195,forced_choiceRT,2021.1.2,Win32,144.0092166,,,,,,,,9,Ontime,g,0,2.0636,6,0,24,0,1,,,,,
1.87,,,,,,,,,g.PNG,g,5f6daa6a2a8a3e22518b10e0,2021-09-08_16h04.27.195,forced_choiceRT,2021.1.2,Win32,144.0092166,,,,,,,,9,Ontime,f,0,2.0042,6,1,25,1,1,,,,,
0.32,,,,,,,,,f.PNG,f,5f6daa6a2a8a3e22518b10e0,2021-09-08_16h04.27.195,forced_choiceRT,2021.1.2,Win32,144.0092166,,,,,,,,9,Ontime,f,1,1.9562,6,2,26,0,1,,,,,
0.66,,,,,,,,,h.PNG,h,5f6daa6a2a8a3e22518b10e0,2021-09-08_16h04.27.195,forced_choiceRT,2021.1.2,Win32,144.0092166,,,,,,,,9,Ontime,h,1,1.9657,6,3,27,2,1,,,,,
1.43,,,,,,,,,j.PNG,j,5f6daa6a2a8a3e22518b10e0,2021-09-08_16h04.27.195,forced_choiceRT,2021.1.2,Win32,144.0092166,,,,,,,,9,Ontime,h,0,1.9442,7,0,28,3,1,,,,,
0.97,,,,,,,,,g.PNG,g,5f6daa6a2a8a3e22518b10e0,2021-09-08_16h04.27.195,forced_choiceRT,2021.1.2,Win32,144.0092166,,,,,,,,9,Ontime,g,1,1.9119,7,1,29,1,1,,,,,
0.29,,,,,,,,,f.PNG,f,5f6daa6a2a8a3e22518b10e0,2021-09-08_16h04.27.195,forced_choiceRT,2021.1.2,Win32,144.0092166,,,,,,,,9,Ontime,f,1,1.9209,7,2,30,0,1,,,,,
1.49,,,,,,,,,j.PNG,j,5f6daa6a2a8a3e22518b10e0,2021-09-08_16h04.27.195,forced_choiceRT,2021.1.2,Win32,144.0092166,,,,,,,,9,Ontime,j,1,1.9742,7,3,31,3,1,,,,,
0.18,,,,,,,,,f.PNG,f,5f6daa6a2a8a3e22518b10e0,2021-09-08_16h04.27.195,forced_choiceRT,2021.1.2,Win32,144.0092166,,,,,,,,9,Ontime,f,1,2.0002,8,0,32,0,1,,,,,
0.25,,,,,,,,,j.PNG,j,5f6daa6a2a8a3e22518b10e0,2021-09-08_16h04.27.195,forced_choiceRT,2021.1.2,Win32,144.0092166,,,,,,,,9,Ontime,j,1,2.016,8,1,33,3,1,,,,,
1.28,,,,,,,,,f.PNG,f,5f6daa6a2a8a3e22518b10e0,2021-09-08_16h04.27.195,forced_choiceRT,2021.1.2,Win32,144.0092166,,,,,,,,9,Ontime,f,1,2.0141,8,2,34,0,1,,,,,
1.68,,,,,,,,,g.PNG,g,5f6daa6a2a8a3e22518b10e0,2021-09-08_16h04.27.195,forced_choiceRT,2021.1.2,Win32,144.0092166,,,,,,,,9,Ontime,f,0,2.0836,8,3,35,1,1,,,,,
0.03,,,,,,,,,h.PNG,h,5f6daa6a2a8a3e22518b10e0,2021-09-08_16h04.27.195,forced_choiceRT,2021.1.2,Win32,144.0092166,,,,,,,,9,Fast,h,1,1.6462,9,0,36,2,1,,,,,
0.97,,,,,,,,,g.PNG,g,5f6daa6a2a8a3e22518b10e0,2021-09-08_16h04.27.195,forced_choiceRT,2021.1.2,Win32,144.0092166,,,,,,,,9,Slow,g,1,2.1291,9,1,37,1,1,,,,,
1.49,,,,,,,,,f.PNG,f,5f6daa6a2a8a3e22518b10e0,2021-09-08_16h04.27.195,forced_choiceRT,2021.1.2,Win32,144.0092166,,,,,,,,9,Ontime,f,1,2.0347,9,2,38,0,1,,,,,
0.46,,,,,,,,,g.PNG,g,5f6daa6a2a8a3e22518b10e0,2021-09-08_16h04.27.195,forced_choiceRT,2021.1.2,Win32,144.0092166,,,,,,,,9,Ontime,g,1,2.0082,9,3,39,1,1,,,,,
,,,,,,,,,,,5f6daa6a2a8a3e22518b10e0,2021-09-08_16h04.27.195,forced_choiceRT,2021.1.2,Win32,144.0092166,,,,,,,,,,,,,,,,,,8,0,8,0,1
0.01,,,,,,,,,h.PNG,h,5f6daa6a2a8a3e22518b10e0,2021-09-08_16h04.27.195,forced_choiceRT,2021.1.2,Win32,144.0092166,,,,,,,,10,Slow,f,0,4.6347,0,0,0,2,1,,,,,
1.63,,,,,,,,,h.PNG,h,5f6daa6a2a8a3e22518b10e0,2021-09-08_16h04.27.195,forced_choiceRT,2021.1.2,Win32,144.0092166,,,,,,,,10,Slow,j,0,2.12,0,1,1,2,1,,,,,
1.65,,,,,,,,,h.PNG,h,5f6daa6a2a8a3e22518b10e0,2021-09-08_16h04.27.195,forced_choiceRT,2021.1.2,Win32,144.0092166,,,,,,,,10,Ontime,f,0,2.0342,0,2,2,2,1,,,,,
1.56,,,,,,,,,g.PNG,g,5f6daa6a2a8a3e22518b10e0,2021-09-08_16h04.27.195,forced_choiceRT,2021.1.2,Win32,144.0092166,,,,,,,,10,Ontime,g,1,2.0221,0,3,3,1,1,,,,,
0.41,,,,,,,,,j.PNG,j,5f6daa6a2a8a3e22518b10e0,2021-09-08_16h04.27.195,forced_choiceRT,2021.1.2,Win32,144.0092166,,,,,,,,10,Ontime,j,1,1.9467,1,0,4,3,1,,,,,
0.01,,,,,,,,,h.PNG,h,5f6daa6a2a8a3e22518b10e0,2021-09-08_16h04.27.195,forced_choiceRT,2021.1.2,Win32,144.0092166,,,,,,,,10,Ontime,h,1,1.962,1,1,5,2,1,,,,,
0.93,,,,,,,,,f.PNG,f,5f6daa6a2a8a3e22518b10e0,2021-09-08_16h04.27.195,forced_choiceRT,2021.1.2,Win32,144.0092166,,,,,,,,10,Ontime,f,1,1.9801,1,2,6,0,1,,,,,
0.44,,,,,,,,,h.PNG,h,5f6daa6a2a8a3e22518b10e0,2021-09-08_16h04.27.195,forced_choiceRT,2021.1.2,Win32,144.0092166,,,,,,,,10,Ontime,h,1,2.0076,1,3,7,2,1,,,,,
1.41,,,,,,,,,f.PNG,f,5f6daa6a2a8a3e22518b10e0,2021-09-08_16h04.27.195,forced_choiceRT,2021.1.2,Win32,144.0092166,,,,,,,,10,Slow,f,1,2.1137,2,0,8,0,1,,,,,
0.54,,,,,,,,,f.PNG,f,5f6daa6a2a8a3e22518b10e0,2021-09-08_16h04.27.195,forced_choiceRT,2021.1.2,Win32,144.0092166,,,,,,,,10,Ontime,f,1,1.9996,2,1,9,0,1,,,,,
1.34,,,,,,,,,j.PNG,j,5f6daa6a2a8a3e22518b10e0,2021-09-08_16h04.27.195,forced_choiceRT,2021.1.2,Win32,144.0092166,,,,,,,,10,Ontime,j,1,2.061,2,2,10,3,1,,,,,
0.48,,,,,,,,,g.PNG,g,5f6daa6a2a8a3e22518b10e0,2021-09-08_16h04.27.195,forced_choiceRT,2021.1.2,Win32,144.0092166,,,,,,,,10,Ontime,g,1,2.0449,2,3,11,1,1,,,,,
0.17,,,,,,,,,g.PNG,g,5f6daa6a2a8a3e22518b10e0,2021-09-08_16h04.27.195,forced_choiceRT,2021.1.2,Win32,144.0092166,,,,,,,,10,Ontime,g,1,1.9863,3,0,12,1,1,,,,,
1.98,,,,,,,,,h.PNG,h,5f6daa6a2a8a3e22518b10e0,2021-09-08_16h04.27.195,forced_choiceRT,2021.1.2,Win32,144.0092166,,,,,,,,10,Slow,f,0,2.1965,3,1,13,2,1,,,,,
0.67,,,,,,,,,j.PNG,j,5f6daa6a2a8a3e22518b10e0,2021-09-08_16h04.27.195,forced_choiceRT,2021.1.2,Win32,144.0092166,,,,,,,,10,Ontime,j,1,1.9636,3,2,14,3,1,,,,,
0.33,,,,,,,,,f.PNG,f,5f6daa6a2a8a3e22518b10e0,2021-09-08_16h04.27.195,forced_choiceRT,2021.1.2,Win32,144.0092166,,,,,,,,10,Ontime,f,1,1.9041,3,3,15,0,1,,,,,
1.94,,,,,,,,,j.PNG,j,5f6daa6a2a8a3e22518b10e0,2021-09-08_16h04.27.195,forced_choiceRT,2021.1.2,Win32,144.0092166,,,,,,,,10,Slow,f,0,2.1578,4,0,16,3,1,,,,,
0.05,,,,,,,,,h.PNG,h,5f6daa6a2a8a3e22518b10e0,2021-09-08_16h04.27.195,forced_choiceRT,2021.1.2,Win32,144.0092166,,,,,,,,10,Ontime,h,1,2.0066,4,1,17,2,1,,,,,
0.96,,,,,,,,,f.PNG,f,5f6daa6a2a8a3e22518b10e0,2021-09-08_16h04.27.195,forced_choiceRT,2021.1.2,Win32,144.0092166,,,,,,,,10,Ontime,f,1,2.0135,4,2,18,0,1,,,,,
1.27,,,,,,,,,g.PNG,g,5f6daa6a2a8a3e22518b10e0,2021-09-08_16h04.27.195,forced_choiceRT,2021.1.2,Win32,144.0092166,,,,,,,,10,Ontime,g,1,1.978,4,3,19,1,1,,,,,
0.65,,,,,,,,,j.PNG,j,5f6daa6a2a8a3e22518b10e0,2021-09-08_16h04.27.195,forced_choiceRT,2021.1.2,Win32,144.0092166,,,,,,,,10,Ontime,j,1,1.9773,5,0,20,3,1,,,,,
1.36,,,,,,,,,g.PNG,g,5f6daa6a2a8a3e22518b10e0,2021-09-08_16h04.27.195,forced_choiceRT,2021.1.2,Win32,144.0092166,,,,,,,,10,Slow,g,1,2.1791,5,1,21,1,1,,,,,
1.43,,,,,,,,,g.PNG,g,5f6daa6a2a8a3e22518b10e0,2021-09-08_16h04.27.195,forced_choiceRT,2021.1.2,Win32,144.0092166,,,,,,,,10,Ontime,g,1,1.9818,5,2,22,1,1,,,,,
0.36,,,,,,,,,h.PNG,h,5f6daa6a2a8a3e22518b10e0,2021-09-08_16h04.27.195,forced_choiceRT,2021.1.2,Win32,144.0092166,,,,,,,,10,Ontime,h,1,1.9608,5,3,23,2,1,,,,,
1.89,,,,,,,,,f.PNG,f,5f6daa6a2a8a3e22518b10e0,2021-09-08_16h04.27.195,forced_choiceRT,2021.1.2,Win32,144.0092166,,,,,,,,10,Ontime,f,1,2.0242,6,0,24,0,1,,,,,
0.44,,,,,,,,,f.PNG,f,5f6daa6a2a8a3e22518b10e0,2021-09-08_16h04.27.195,forced_choiceRT,2021.1.2,Win32,144.0092166,,,,,,,,10,Ontime,f,1,2.0381,6,1,25,0,1,,,,,
0.55,,,,,,,,,g.PNG,g,5f6daa6a2a8a3e22518b10e0,2021-09-08_16h04.27.195,forced_choiceRT,2021.1.2,Win32,144.0092166,,,,,,,,10,Ontime,g,1,1.9755,6,2,26,1,1,,,,,
0.15,,,,,,,,,g.PNG,g,5f6daa6a2a8a3e22518b10e0,2021-09-08_16h04.27.195,forced_choiceRT,2021.1.2,Win32,144.0092166,,,,,,,,10,Ontime,g,1,1.9314,6,3,27,1,1,,,,,
1.18,,,,,,,,,f.PNG,f,5f6daa6a2a8a3e22518b10e0,2021-09-08_16h04.27.195,forced_choiceRT,2021.1.2,Win32,144.0092166,,,,,,,,10,Ontime,f,1,1.9619,7,0,28,0,1,,,,,
0.31,,,,,,,,,f.PNG,f,5f6daa6a2a8a3e22518b10e0,2021-09-08_16h04.27.195,forced_choiceRT,2021.1.2,Win32,144.0092166,,,,,,,,10,Ontime,f,1,2.013,7,1,29,0,1,,,,,
0.11,,,,,,,,,j.PNG,j,5f6daa6a2a8a3e22518b10e0,2021-09-08_16h04.27.195,forced_choiceRT,2021.1.2,Win32,144.0092166,,,,,,,,10,Ontime,j,1,1.995,7,2,30,3,1,,,,,
0.33,,,,,,,,,j.PNG,j,5f6daa6a2a8a3e22518b10e0,2021-09-08_16h04.27.195,forced_choiceRT,2021.1.2,Win32,144.0092166,,,,,,,,10,Ontime,j,1,1.9673,7,3,31,3,1,,,,,
0.98,,,,,,,,,g.PNG,g,5f6daa6a2a8a3e22518b10e0,2021-09-08_16h04.27.195,forced_choiceRT,2021.1.2,Win32,144.0092166,,,,,,,,10,Ontime,g,1,2.0378,8,0,32,1,1,,,,,
0.44,,,,,,,,,j.PNG,j,5f6daa6a2a8a3e22518b10e0,2021-09-08_16h04.27.195,forced_choiceRT,2021.1.2,Win32,144.0092166,,,,,,,,10,Ontime,j,1,2.0016,8,1,33,3,1,,,,,
0.95,,,,,,,,,h.PNG,h,5f6daa6a2a8a3e22518b10e0,2021-09-08_16h04.27.195,forced_choiceRT,2021.1.2,Win32,144.0092166,,,,,,,,10,Ontime,h,1,1.968,8,2,34,2,1,,,,,
0.96,,,,,,,,,h.PNG,h,5f6daa6a2a8a3e22518b10e0,2021-09-08_16h04.27.195,forced_choiceRT,2021.1.2,Win32,144.0092166,,,,,,,,10,Ontime,h,1,1.9442,8,3,35,2,1,,,,,
1.65,,,,,,,,,j.PNG,j,5f6daa6a2a8a3e22518b10e0,2021-09-08_16h04.27.195,forced_choiceRT,2021.1.2,Win32,144.0092166,,,,,,,,10,Ontime,g,0,2.0282,9,0,36,3,1,,,,,
1.89,,,,,,,,,f.PNG,f,5f6daa6a2a8a3e22518b10e0,2021-09-08_16h04.27.195,forced_choiceRT,2021.1.2,Win32,144.0092166,,,,,,,,10,Ontime,f,1,2.0599,9,1,37,0,1,,,,,
1.12,,,,,,,,,g.PNG,g,5f6daa6a2a8a3e22518b10e0,2021-09-08_16h04.27.195,forced_choiceRT,2021.1.2,Win32,144.0092166,,,,,,,,10,Ontime,g,1,1.9676,9,2,38,1,1,,,,,
0.42,,,,,,,,,j.PNG,j,5f6daa6a2a8a3e22518b10e0,2021-09-08_16h04.27.195,forced_choiceRT,2021.1.2,Win32,144.0092166,,,,,,,,10,Ontime,j,1,1.9906,9,3,39,3,1,,,,,
,,,,,,,,,,,5f6daa6a2a8a3e22518b10e0,2021-09-08_16h04.27.195,forced_choiceRT,2021.1.2,Win32,144.0092166,,,,,,,,,,,,,,,,,,9,0,9,0,1
