IP_Addresss,target_onset,trial_resp_sp.keys,trial_resp_sp.corr,trial_resp_sp.rt,trials_train_loop.thisRepN,trials_train_loop.thisTrialN,trials_train_loop.thisN,trials_train_loop.thisIndex,trials_train_loop.ran,pic,correct_key,participant,date,expName,psychopyVersion,OS,frameRate,trial_resp_timing.keys,trial_resp_timing.rt,trials_train_timing.thisRepN,trials_train_timing.thisTrialN,trials_train_timing.thisN,trials_train_timing.thisIndex,trials_train_timing.ran,block_id,ontime,forcedRT_resp.keys,forcedRT_resp.corr,forcedRT_resp.rt,trials.thisRepN,trials.thisTrialN,trials.thisN,trials.thisIndex,trials.ran,blocks.thisRepN,blocks.thisTrialN,blocks.thisN,blocks.thisIndex,blocks.ran
71.234.238.76,0,h,1,1.9023,0,0,0,2,1,h.PNG,h,5fbd7394725db215bf27e0a5,2021-09-08_15h44.24.407,forced_choiceRT,2021.1.2,MacIntel,19.94813485,,,,,,,,,,,,,,,,,,,,,,
,0,f,1,1.195,0,1,1,0,1,f.PNG,f,5fbd7394725db215bf27e0a5,2021-09-08_15h44.24.407,forced_choiceRT,2021.1.2,MacIntel,19.94813485,,,,,,,,,,,,,,,,,,,,,,
,0,h,1,1.5806,0,2,2,2,1,h.PNG,h,5fbd7394725db215bf27e0a5,2021-09-08_15h44.24.407,forced_choiceRT,2021.1.2,MacIntel,19.94813485,,,,,,,,,,,,,,,,,,,,,,
,0,j,1,1.2019,0,3,3,3,1,j.PNG,j,5fbd7394725db215bf27e0a5,2021-09-08_15h44.24.407,forced_choiceRT,2021.1.2,MacIntel,19.94813485,,,,,,,,,,,,,,,,,,,,,,
,0,g,1,1.2621,1,0,4,1,1,g.PNG,g,5fbd7394725db215bf27e0a5,2021-09-08_15h44.24.407,forced_choiceRT,2021.1.2,MacIntel,19.94813485,,,,,,,,,,,,,,,,,,,,,,
,0,f,1,1.0727,1,1,5,0,1,f.PNG,f,5fbd7394725db215bf27e0a5,2021-09-08_15h44.24.407,forced_choiceRT,2021.1.2,MacIntel,19.94813485,,,,,,,,,,,,,,,,,,,,,,
,0,g,1,1.0884,1,2,6,1,1,g.PNG,g,5fbd7394725db215bf27e0a5,2021-09-08_15h44.24.407,forced_choiceRT,2021.1.2,MacIntel,19.94813485,,,,,,,,,,,,,,,,,,,,,,
,0,h,1,1.0125,1,3,7,2,1,h.PNG,h,5fbd7394725db215bf27e0a5,2021-09-08_15h44.24.407,forced_choiceRT,2021.1.2,MacIntel,19.94813485,,,,,,,,,,,,,,,,,,,,,,
,0,g,1,1.8405,2,0,8,1,1,g.PNG,g,5fbd7394725db215bf27e0a5,2021-09-08_15h44.24.407,forced_choiceRT,2021.1.2,MacIntel,19.94813485,,,,,,,,,,,,,,,,,,,,,,
,0,g,1,0.8635,2,1,9,1,1,g.PNG,g,5fbd7394725db215bf27e0a5,2021-09-08_15h44.24.407,forced_choiceRT,2021.1.2,MacIntel,19.94813485,,,,,,,,,,,,,,,,,,,,,,
,0,h,1,1.0203,2,2,10,2,1,h.PNG,h,5fbd7394725db215bf27e0a5,2021-09-08_15h44.24.407,forced_choiceRT,2021.1.2,MacIntel,19.94813485,,,,,,,,,,,,,,,,,,,,,,
,0,h,1,0.8961,2,3,11,2,1,h.PNG,h,5fbd7394725db215bf27e0a5,2021-09-08_15h44.24.407,forced_choiceRT,2021.1.2,MacIntel,19.94813485,,,,,,,,,,,,,,,,,,,,,,
,0,g,1,1.0735,3,0,12,1,1,g.PNG,g,5fbd7394725db215bf27e0a5,2021-09-08_15h44.24.407,forced_choiceRT,2021.1.2,MacIntel,19.94813485,,,,,,,,,,,,,,,,,,,,,,
,0,j,1,0.9796,3,1,13,3,1,j.PNG,j,5fbd7394725db215bf27e0a5,2021-09-08_15h44.24.407,forced_choiceRT,2021.1.2,MacIntel,19.94813485,,,,,,,,,,,,,,,,,,,,,,
,0,h,1,1.5201,3,2,14,2,1,h.PNG,h,5fbd7394725db215bf27e0a5,2021-09-08_15h44.24.407,forced_choiceRT,2021.1.2,MacIntel,19.94813485,,,,,,,,,,,,,,,,,,,,,,
,0,g,1,1.024,3,3,15,1,1,g.PNG,g,5fbd7394725db215bf27e0a5,2021-09-08_15h44.24.407,forced_choiceRT,2021.1.2,MacIntel,19.94813485,,,,,,,,,,,,,,,,,,,,,,
,0,j,1,1.1026,4,0,16,3,1,j.PNG,j,5fbd7394725db215bf27e0a5,2021-09-08_15h44.24.407,forced_choiceRT,2021.1.2,MacIntel,19.94813485,,,,,,,,,,,,,,,,,,,,,,
,0,g,1,0.9565,4,1,17,1,1,g.PNG,g,5fbd7394725db215bf27e0a5,2021-09-08_15h44.24.407,forced_choiceRT,2021.1.2,MacIntel,19.94813485,,,,,,,,,,,,,,,,,,,,,,
,0,f,1,1.0269,4,2,18,0,1,f.PNG,f,5fbd7394725db215bf27e0a5,2021-09-08_15h44.24.407,forced_choiceRT,2021.1.2,MacIntel,19.94813485,,,,,,,,,,,,,,,,,,,,,,
,0,g,1,0.8906,4,3,19,1,1,g.PNG,g,5fbd7394725db215bf27e0a5,2021-09-08_15h44.24.407,forced_choiceRT,2021.1.2,MacIntel,19.94813485,,,,,,,,,,,,,,,,,,,,,,
,0,j,1,0.7939,5,0,20,3,1,j.PNG,j,5fbd7394725db215bf27e0a5,2021-09-08_15h44.24.407,forced_choiceRT,2021.1.2,MacIntel,19.94813485,,,,,,,,,,,,,,,,,,,,,,
,0,f,1,0.9264,5,1,21,0,1,f.PNG,f,5fbd7394725db215bf27e0a5,2021-09-08_15h44.24.407,forced_choiceRT,2021.1.2,MacIntel,19.94813485,,,,,,,,,,,,,,,,,,,,,,
,0,j,1,0.9157,5,2,22,3,1,j.PNG,j,5fbd7394725db215bf27e0a5,2021-09-08_15h44.24.407,forced_choiceRT,2021.1.2,MacIntel,19.94813485,,,,,,,,,,,,,,,,,,,,,,
,0,h,1,1.0183,5,3,23,2,1,h.PNG,h,5fbd7394725db215bf27e0a5,2021-09-08_15h44.24.407,forced_choiceRT,2021.1.2,MacIntel,19.94813485,,,,,,,,,,,,,,,,,,,,,,
,0,h,1,0.9567,6,0,24,2,1,h.PNG,h,5fbd7394725db215bf27e0a5,2021-09-08_15h44.24.407,forced_choiceRT,2021.1.2,MacIntel,19.94813485,,,,,,,,,,,,,,,,,,,,,,
,0,f,1,0.9459,6,1,25,0,1,f.PNG,f,5fbd7394725db215bf27e0a5,2021-09-08_15h44.24.407,forced_choiceRT,2021.1.2,MacIntel,19.94813485,,,,,,,,,,,,,,,,,,,,,,
,0,g,1,0.8928,6,2,26,1,1,g.PNG,g,5fbd7394725db215bf27e0a5,2021-09-08_15h44.24.407,forced_choiceRT,2021.1.2,MacIntel,19.94813485,,,,,,,,,,,,,,,,,,,,,,
,0,h,1,1.0101,6,3,27,2,1,h.PNG,h,5fbd7394725db215bf27e0a5,2021-09-08_15h44.24.407,forced_choiceRT,2021.1.2,MacIntel,19.94813485,,,,,,,,,,,,,,,,,,,,,,
,0,j,1,0.8968,7,0,28,3,1,j.PNG,j,5fbd7394725db215bf27e0a5,2021-09-08_15h44.24.407,forced_choiceRT,2021.1.2,MacIntel,19.94813485,,,,,,,,,,,,,,,,,,,,,,
,0,f,1,0.906,7,1,29,0,1,f.PNG,f,5fbd7394725db215bf27e0a5,2021-09-08_15h44.24.407,forced_choiceRT,2021.1.2,MacIntel,19.94813485,,,,,,,,,,,,,,,,,,,,,,
,0,h,1,0.9574,7,2,30,2,1,h.PNG,h,5fbd7394725db215bf27e0a5,2021-09-08_15h44.24.407,forced_choiceRT,2021.1.2,MacIntel,19.94813485,,,,,,,,,,,,,,,,,,,,,,
,0,f,1,0.8993,7,3,31,0,1,f.PNG,f,5fbd7394725db215bf27e0a5,2021-09-08_15h44.24.407,forced_choiceRT,2021.1.2,MacIntel,19.94813485,,,,,,,,,,,,,,,,,,,,,,
,0,f,1,0.8895,8,0,32,0,1,f.PNG,f,5fbd7394725db215bf27e0a5,2021-09-08_15h44.24.407,forced_choiceRT,2021.1.2,MacIntel,19.94813485,,,,,,,,,,,,,,,,,,,,,,
,0,f,1,0.8278,8,1,33,0,1,f.PNG,f,5fbd7394725db215bf27e0a5,2021-09-08_15h44.24.407,forced_choiceRT,2021.1.2,MacIntel,19.94813485,,,,,,,,,,,,,,,,,,,,,,
,0,g,1,0.778,8,2,34,1,1,g.PNG,g,5fbd7394725db215bf27e0a5,2021-09-08_15h44.24.407,forced_choiceRT,2021.1.2,MacIntel,19.94813485,,,,,,,,,,,,,,,,,,,,,,
,0,h,1,0.8017,8,3,35,2,1,h.PNG,h,5fbd7394725db215bf27e0a5,2021-09-08_15h44.24.407,forced_choiceRT,2021.1.2,MacIntel,19.94813485,,,,,,,,,,,,,,,,,,,,,,
,0,j,1,0.7218,9,0,36,3,1,j.PNG,j,5fbd7394725db215bf27e0a5,2021-09-08_15h44.24.407,forced_choiceRT,2021.1.2,MacIntel,19.94813485,,,,,,,,,,,,,,,,,,,,,,
,0,g,1,0.8657,9,1,37,1,1,g.PNG,g,5fbd7394725db215bf27e0a5,2021-09-08_15h44.24.407,forced_choiceRT,2021.1.2,MacIntel,19.94813485,,,,,,,,,,,,,,,,,,,,,,
,0,g,1,0.7595,9,2,38,1,1,g.PNG,g,5fbd7394725db215bf27e0a5,2021-09-08_15h44.24.407,forced_choiceRT,2021.1.2,MacIntel,19.94813485,,,,,,,,,,,,,,,,,,,,,,
,0,h,1,0.874,9,3,39,2,1,h.PNG,h,5fbd7394725db215bf27e0a5,2021-09-08_15h44.24.407,forced_choiceRT,2021.1.2,MacIntel,19.94813485,,,,,,,,,,,,,,,,,,,,,,
,0,j,1,0.7924,10,0,40,3,1,j.PNG,j,5fbd7394725db215bf27e0a5,2021-09-08_15h44.24.407,forced_choiceRT,2021.1.2,MacIntel,19.94813485,,,,,,,,,,,,,,,,,,,,,,
,0,f,1,0.8806,10,1,41,0,1,f.PNG,f,5fbd7394725db215bf27e0a5,2021-09-08_15h44.24.407,forced_choiceRT,2021.1.2,MacIntel,19.94813485,,,,,,,,,,,,,,,,,,,,,,
,0,g,1,0.7734,10,2,42,1,1,g.PNG,g,5fbd7394725db215bf27e0a5,2021-09-08_15h44.24.407,forced_choiceRT,2021.1.2,MacIntel,19.94813485,,,,,,,,,,,,,,,,,,,,,,
,0,f,1,0.8215,10,3,43,0,1,f.PNG,f,5fbd7394725db215bf27e0a5,2021-09-08_15h44.24.407,forced_choiceRT,2021.1.2,MacIntel,19.94813485,,,,,,,,,,,,,,,,,,,,,,
,0,j,1,0.7645,11,0,44,3,1,j.PNG,j,5fbd7394725db215bf27e0a5,2021-09-08_15h44.24.407,forced_choiceRT,2021.1.2,MacIntel,19.94813485,,,,,,,,,,,,,,,,,,,,,,
,0,h,1,0.9041,11,1,45,2,1,h.PNG,h,5fbd7394725db215bf27e0a5,2021-09-08_15h44.24.407,forced_choiceRT,2021.1.2,MacIntel,19.94813485,,,,,,,,,,,,,,,,,,,,,,
,0,g,1,1.0935,11,2,46,1,1,g.PNG,g,5fbd7394725db215bf27e0a5,2021-09-08_15h44.24.407,forced_choiceRT,2021.1.2,MacIntel,19.94813485,,,,,,,,,,,,,,,,,,,,,,
,0,j,1,0.8301,11,3,47,3,1,j.PNG,j,5fbd7394725db215bf27e0a5,2021-09-08_15h44.24.407,forced_choiceRT,2021.1.2,MacIntel,19.94813485,,,,,,,,,,,,,,,,,,,,,,
,0,g,1,0.7804,12,0,48,1,1,g.PNG,g,5fbd7394725db215bf27e0a5,2021-09-08_15h44.24.407,forced_choiceRT,2021.1.2,MacIntel,19.94813485,,,,,,,,,,,,,,,,,,,,,,
,0,f,1,0.8417,12,1,49,0,1,f.PNG,f,5fbd7394725db215bf27e0a5,2021-09-08_15h44.24.407,forced_choiceRT,2021.1.2,MacIntel,19.94813485,,,,,,,,,,,,,,,,,,,,,,
,0,j,1,0.7034,12,2,50,3,1,j.PNG,j,5fbd7394725db215bf27e0a5,2021-09-08_15h44.24.407,forced_choiceRT,2021.1.2,MacIntel,19.94813485,,,,,,,,,,,,,,,,,,,,,,
,0,j,1,0.8514,12,3,51,3,1,j.PNG,j,5fbd7394725db215bf27e0a5,2021-09-08_15h44.24.407,forced_choiceRT,2021.1.2,MacIntel,19.94813485,,,,,,,,,,,,,,,,,,,,,,
,0,h,1,0.9065,13,0,52,2,1,h.PNG,h,5fbd7394725db215bf27e0a5,2021-09-08_15h44.24.407,forced_choiceRT,2021.1.2,MacIntel,19.94813485,,,,,,,,,,,,,,,,,,,,,,
,0,f,1,0.6957,13,1,53,0,1,f.PNG,f,5fbd7394725db215bf27e0a5,2021-09-08_15h44.24.407,forced_choiceRT,2021.1.2,MacIntel,19.94813485,,,,,,,,,,,,,,,,,,,,,,
,0,j,1,0.6674,13,2,54,3,1,j.PNG,j,5fbd7394725db215bf27e0a5,2021-09-08_15h44.24.407,forced_choiceRT,2021.1.2,MacIntel,19.94813485,,,,,,,,,,,,,,,,,,,,,,
,0,j,1,0.6523,13,3,55,3,1,j.PNG,j,5fbd7394725db215bf27e0a5,2021-09-08_15h44.24.407,forced_choiceRT,2021.1.2,MacIntel,19.94813485,,,,,,,,,,,,,,,,,,,,,,
,0,j,1,0.6648,14,0,56,3,1,j.PNG,j,5fbd7394725db215bf27e0a5,2021-09-08_15h44.24.407,forced_choiceRT,2021.1.2,MacIntel,19.94813485,,,,,,,,,,,,,,,,,,,,,,
,0,f,1,0.7031,14,1,57,0,1,f.PNG,f,5fbd7394725db215bf27e0a5,2021-09-08_15h44.24.407,forced_choiceRT,2021.1.2,MacIntel,19.94813485,,,,,,,,,,,,,,,,,,,,,,
,0,h,1,0.7866,14,2,58,2,1,h.PNG,h,5fbd7394725db215bf27e0a5,2021-09-08_15h44.24.407,forced_choiceRT,2021.1.2,MacIntel,19.94813485,,,,,,,,,,,,,,,,,,,,,,
,0,f,1,0.8318,14,3,59,0,1,f.PNG,f,5fbd7394725db215bf27e0a5,2021-09-08_15h44.24.407,forced_choiceRT,2021.1.2,MacIntel,19.94813485,,,,,,,,,,,,,,,,,,,,,,
,,,,,,,,,,,,5fbd7394725db215bf27e0a5,2021-09-08_15h44.24.407,forced_choiceRT,2021.1.2,MacIntel,19.94813485,j,2.2415,0,0,0,0,1,,,,,,,,,,,,,,,
,,,,,,,,,,,,5fbd7394725db215bf27e0a5,2021-09-08_15h44.24.407,forced_choiceRT,2021.1.2,MacIntel,19.94813485,h,2.1302,1,0,1,0,1,,,,,,,,,,,,,,,
,,,,,,,,,,,,5fbd7394725db215bf27e0a5,2021-09-08_15h44.24.407,forced_choiceRT,2021.1.2,MacIntel,19.94813485,h,1.9011,2,0,2,0,1,,,,,,,,,,,,,,,
,,,,,,,,,,,,5fbd7394725db215bf27e0a5,2021-09-08_15h44.24.407,forced_choiceRT,2021.1.2,MacIntel,19.94813485,g,1.8672,3,0,3,0,1,,,,,,,,,,,,,,,
,,,,,,,,,,,,5fbd7394725db215bf27e0a5,2021-09-08_15h44.24.407,forced_choiceRT,2021.1.2,MacIntel,19.94813485,f,2.0473,4,0,4,0,1,,,,,,,,,,,,,,,
,,,,,,,,,,,,5fbd7394725db215bf27e0a5,2021-09-08_15h44.24.407,forced_choiceRT,2021.1.2,MacIntel,19.94813485,j,2.0111,5,0,5,0,1,,,,,,,,,,,,,,,
,,,,,,,,,,,,5fbd7394725db215bf27e0a5,2021-09-08_15h44.24.407,forced_choiceRT,2021.1.2,MacIntel,19.94813485,h,2.0032,6,0,6,0,1,,,,,,,,,,,,,,,
,,,,,,,,,,,,5fbd7394725db215bf27e0a5,2021-09-08_15h44.24.407,forced_choiceRT,2021.1.2,MacIntel,19.94813485,g,2.0956,7,0,7,0,1,,,,,,,,,,,,,,,
,,,,,,,,,,,,5fbd7394725db215bf27e0a5,2021-09-08_15h44.24.407,forced_choiceRT,2021.1.2,MacIntel,19.94813485,j,2.0541,8,0,8,0,1,,,,,,,,,,,,,,,
,,,,,,,,,,,,5fbd7394725db215bf27e0a5,2021-09-08_15h44.24.407,forced_choiceRT,2021.1.2,MacIntel,19.94813485,f,2.0969,9,0,9,0,1,,,,,,,,,,,,,,,
,,,,,,,,,,,,5fbd7394725db215bf27e0a5,2021-09-08_15h44.24.407,forced_choiceRT,2021.1.2,MacIntel,19.94813485,h,2.0763,10,0,10,0,1,,,,,,,,,,,,,,,
,,,,,,,,,,,,5fbd7394725db215bf27e0a5,2021-09-08_15h44.24.407,forced_choiceRT,2021.1.2,MacIntel,19.94813485,g,2.0853,11,0,11,0,1,,,,,,,,,,,,,,,
,,,,,,,,,,,,5fbd7394725db215bf27e0a5,2021-09-08_15h44.24.407,forced_choiceRT,2021.1.2,MacIntel,19.94813485,f,2.1593,12,0,12,0,1,,,,,,,,,,,,,,,
,,,,,,,,,,,,5fbd7394725db215bf27e0a5,2021-09-08_15h44.24.407,forced_choiceRT,2021.1.2,MacIntel,19.94813485,j,2.0081,13,0,13,0,1,,,,,,,,,,,,,,,
,,,,,,,,,,,,5fbd7394725db215bf27e0a5,2021-09-08_15h44.24.407,forced_choiceRT,2021.1.2,MacIntel,19.94813485,g,2.0778,14,0,14,0,1,,,,,,,,,,,,,,,
,,,,,,,,,,,,5fbd7394725db215bf27e0a5,2021-09-08_15h44.24.407,forced_choiceRT,2021.1.2,MacIntel,19.94813485,f,2.1492,15,0,15,0,1,,,,,,,,,,,,,,,
,,,,,,,,,,,,5fbd7394725db215bf27e0a5,2021-09-08_15h44.24.407,forced_choiceRT,2021.1.2,MacIntel,19.94813485,j,1.9508,16,0,16,0,1,,,,,,,,,,,,,,,
,,,,,,,,,,,,5fbd7394725db215bf27e0a5,2021-09-08_15h44.24.407,forced_choiceRT,2021.1.2,MacIntel,19.94813485,g,1.9145,17,0,17,0,1,,,,,,,,,,,,,,,
,,,,,,,,,,,,5fbd7394725db215bf27e0a5,2021-09-08_15h44.24.407,forced_choiceRT,2021.1.2,MacIntel,19.94813485,j,1.9384,18,0,18,0,1,,,,,,,,,,,,,,,
,,,,,,,,,,,,5fbd7394725db215bf27e0a5,2021-09-08_15h44.24.407,forced_choiceRT,2021.1.2,MacIntel,19.94813485,h,1.9635,19,0,19,0,1,,,,,,,,,,,,,,,
,1.48,,,,,,,,,h.PNG,h,5fbd7394725db215bf27e0a5,2021-09-08_15h44.24.407,forced_choiceRT,2021.1.2,MacIntel,19.94813485,,,,,,,,1,Slow,h,1,2.2748,0,0,0,2,1,,,,,
,0.77,,,,,,,,,f.PNG,f,5fbd7394725db215bf27e0a5,2021-09-08_15h44.24.407,forced_choiceRT,2021.1.2,MacIntel,19.94813485,,,,,,,,1,Fast,f,1,1.8613,0,1,1,0,1,,,,,
,1.65,,,,,,,,,j.PNG,j,5fbd7394725db215bf27e0a5,2021-09-08_15h44.24.407,forced_choiceRT,2021.1.2,MacIntel,19.94813485,,,,,,,,1,Slow,j,1,2.1426,0,2,2,3,1,,,,,
,1.72,,,,,,,,,g.PNG,g,5fbd7394725db215bf27e0a5,2021-09-08_15h44.24.407,forced_choiceRT,2021.1.2,MacIntel,19.94813485,,,,,,,,1,Ontime,h,0,2.0524,0,3,3,1,1,,,,,
,1.52,,,,,,,,,g.PNG,g,5fbd7394725db215bf27e0a5,2021-09-08_15h44.24.407,forced_choiceRT,2021.1.2,MacIntel,19.94813485,,,,,,,,1,Ontime,g,1,1.9732,1,0,4,1,1,,,,,
,1.22,,,,,,,,,j.PNG,j,5fbd7394725db215bf27e0a5,2021-09-08_15h44.24.407,forced_choiceRT,2021.1.2,MacIntel,19.94813485,,,,,,,,1,Ontime,j,1,1.9959,1,1,5,3,1,,,,,
,1.09,,,,,,,,,f.PNG,f,5fbd7394725db215bf27e0a5,2021-09-08_15h44.24.407,forced_choiceRT,2021.1.2,MacIntel,19.94813485,,,,,,,,1,Ontime,g,0,2.024,1,2,6,0,1,,,,,
,0.46,,,,,,,,,f.PNG,f,5fbd7394725db215bf27e0a5,2021-09-08_15h44.24.407,forced_choiceRT,2021.1.2,MacIntel,19.94813485,,,,,,,,1,Fast,f,1,1.8521,1,3,7,0,1,,,,,
,1.29,,,,,,,,,f.PNG,f,5fbd7394725db215bf27e0a5,2021-09-08_15h44.24.407,forced_choiceRT,2021.1.2,MacIntel,19.94813485,,,,,,,,1,Ontime,g,0,2.0396,2,0,8,0,1,,,,,
,1.1,,,,,,,,,f.PNG,f,5fbd7394725db215bf27e0a5,2021-09-08_15h44.24.407,forced_choiceRT,2021.1.2,MacIntel,19.94813485,,,,,,,,1,Ontime,f,1,1.9858,2,1,9,0,1,,,,,
,1.51,,,,,,,,,g.PNG,g,5fbd7394725db215bf27e0a5,2021-09-08_15h44.24.407,forced_choiceRT,2021.1.2,MacIntel,19.94813485,,,,,,,,1,Slow,g,1,2.1012,2,2,10,1,1,,,,,
,1.78,,,,,,,,,g.PNG,g,5fbd7394725db215bf27e0a5,2021-09-08_15h44.24.407,forced_choiceRT,2021.1.2,MacIntel,19.94813485,,,,,,,,1,Slow,g,1,2.1836,2,3,11,1,1,,,,,
,0.72,,,,,,,,,g.PNG,g,5fbd7394725db215bf27e0a5,2021-09-08_15h44.24.407,forced_choiceRT,2021.1.2,MacIntel,19.94813485,,,,,,,,1,Ontime,g,1,2.0538,3,0,12,1,1,,,,,
,0.38,,,,,,,,,f.PNG,f,5fbd7394725db215bf27e0a5,2021-09-08_15h44.24.407,forced_choiceRT,2021.1.2,MacIntel,19.94813485,,,,,,,,1,Ontime,f,1,1.946,3,1,13,0,1,,,,,
,0.3,,,,,,,,,g.PNG,g,5fbd7394725db215bf27e0a5,2021-09-08_15h44.24.407,forced_choiceRT,2021.1.2,MacIntel,19.94813485,,,,,,,,1,Ontime,g,1,2.0164,3,2,14,1,1,,,,,
,1.85,,,,,,,,,h.PNG,h,5fbd7394725db215bf27e0a5,2021-09-08_15h44.24.407,forced_choiceRT,2021.1.2,MacIntel,19.94813485,,,,,,,,1,Ontime,h,1,2.02,3,3,15,2,1,,,,,
,1.85,,,,,,,,,j.PNG,j,5fbd7394725db215bf27e0a5,2021-09-08_15h44.24.407,forced_choiceRT,2021.1.2,MacIntel,19.94813485,,,,,,,,1,Slow,j,1,2.101,4,0,16,3,1,,,,,
,1.91,,,,,,,,,j.PNG,j,5fbd7394725db215bf27e0a5,2021-09-08_15h44.24.407,forced_choiceRT,2021.1.2,MacIntel,19.94813485,,,,,,,,1,Ontime,g,0,2.0777,4,1,17,3,1,,,,,
,1.7,,,,,,,,,f.PNG,f,5fbd7394725db215bf27e0a5,2021-09-08_15h44.24.407,forced_choiceRT,2021.1.2,MacIntel,19.94813485,,,,,,,,1,Ontime,g,0,2.0308,4,2,18,0,1,,,,,
,0.01,,,,,,,,,h.PNG,h,5fbd7394725db215bf27e0a5,2021-09-08_15h44.24.407,forced_choiceRT,2021.1.2,MacIntel,19.94813485,,,,,,,,1,Ontime,h,1,1.939,4,3,19,2,1,,,,,
,1.35,,,,,,,,,h.PNG,h,5fbd7394725db215bf27e0a5,2021-09-08_15h44.24.407,forced_choiceRT,2021.1.2,MacIntel,19.94813485,,,,,,,,1,Ontime,f,0,1.936,5,0,20,2,1,,,,,
,0.21,,,,,,,,,h.PNG,h,5fbd7394725db215bf27e0a5,2021-09-08_15h44.24.407,forced_choiceRT,2021.1.2,MacIntel,19.94813485,,,,,,,,1,Ontime,h,1,2.0341,5,1,21,2,1,,,,,
,0.47,,,,,,,,,f.PNG,f,5fbd7394725db215bf27e0a5,2021-09-08_15h44.24.407,forced_choiceRT,2021.1.2,MacIntel,19.94813485,,,,,,,,1,Slow,f,1,2.1075,5,2,22,0,1,,,,,
,0.18,,,,,,,,,j.PNG,j,5fbd7394725db215bf27e0a5,2021-09-08_15h44.24.407,forced_choiceRT,2021.1.2,MacIntel,19.94813485,,,,,,,,1,Ontime,j,1,2.0461,5,3,23,3,1,,,,,
,0.51,,,,,,,,,h.PNG,h,5fbd7394725db215bf27e0a5,2021-09-08_15h44.24.407,forced_choiceRT,2021.1.2,MacIntel,19.94813485,,,,,,,,1,Ontime,g,0,2.0995,6,0,24,2,1,,,,,
,0.13,,,,,,,,,j.PNG,j,5fbd7394725db215bf27e0a5,2021-09-08_15h44.24.407,forced_choiceRT,2021.1.2,MacIntel,19.94813485,,,,,,,,1,Ontime,j,1,2.0063,6,1,25,3,1,,,,,
,0.77,,,,,,,,,j.PNG,j,5fbd7394725db215bf27e0a5,2021-09-08_15h44.24.407,forced_choiceRT,2021.1.2,MacIntel,19.94813485,,,,,,,,1,Ontime,j,1,2.0308,6,2,26,3,1,,,,,
,0.39,,,,,,,,,g.PNG,g,5fbd7394725db215bf27e0a5,2021-09-08_15h44.24.407,forced_choiceRT,2021.1.2,MacIntel,19.94813485,,,,,,,,1,Ontime,g,1,1.9472,6,3,27,1,1,,,,,
,1.6,,,,,,,,,f.PNG,f,5fbd7394725db215bf27e0a5,2021-09-08_15h44.24.407,forced_choiceRT,2021.1.2,MacIntel,19.94813485,,,,,,,,1,Ontime,h,0,2.0507,7,0,28,0,1,,,,,
,1.53,,,,,,,,,j.PNG,j,5fbd7394725db215bf27e0a5,2021-09-08_15h44.24.407,forced_choiceRT,2021.1.2,MacIntel,19.94813485,,,,,,,,1,Ontime,f,0,2.0447,7,1,29,3,1,,,,,
,0.93,,,,,,,,,h.PNG,h,5fbd7394725db215bf27e0a5,2021-09-08_15h44.24.407,forced_choiceRT,2021.1.2,MacIntel,19.94813485,,,,,,,,1,Ontime,h,1,2.0428,7,2,30,2,1,,,,,
,0.02,,,,,,,,,g.PNG,g,5fbd7394725db215bf27e0a5,2021-09-08_15h44.24.407,forced_choiceRT,2021.1.2,MacIntel,19.94813485,,,,,,,,1,Ontime,h,0,1.9608,7,3,31,1,1,,,,,
,0.74,,,,,,,,,g.PNG,g,5fbd7394725db215bf27e0a5,2021-09-08_15h44.24.407,forced_choiceRT,2021.1.2,MacIntel,19.94813485,,,,,,,,1,Fast,g,1,1.8814,8,0,32,1,1,,,,,
,0.27,,,,,,,,,j.PNG,j,5fbd7394725db215bf27e0a5,2021-09-08_15h44.24.407,forced_choiceRT,2021.1.2,MacIntel,19.94813485,,,,,,,,1,Ontime,j,1,1.921,8,1,33,3,1,,,,,
,0.21,,,,,,,,,j.PNG,j,5fbd7394725db215bf27e0a5,2021-09-08_15h44.24.407,forced_choiceRT,2021.1.2,MacIntel,19.94813485,,,,,,,,1,Ontime,g,0,2.0443,8,2,34,3,1,,,,,
,0.55,,,,,,,,,h.PNG,h,5fbd7394725db215bf27e0a5,2021-09-08_15h44.24.407,forced_choiceRT,2021.1.2,MacIntel,19.94813485,,,,,,,,1,Ontime,h,1,1.9989,8,3,35,2,1,,,,,
,0.45,,,,,,,,,h.PNG,h,5fbd7394725db215bf27e0a5,2021-09-08_15h44.24.407,forced_choiceRT,2021.1.2,MacIntel,19.94813485,,,,,,,,1,Ontime,h,1,2.0055,9,0,36,2,1,,,,,
,1.37,,,,,,,,,f.PNG,f,5fbd7394725db215bf27e0a5,2021-09-08_15h44.24.407,forced_choiceRT,2021.1.2,MacIntel,19.94813485,,,,,,,,1,Ontime,f,1,2.0228,9,1,37,0,1,,,,,
,1.99,,,,,,,,,h.PNG,h,5fbd7394725db215bf27e0a5,2021-09-08_15h44.24.407,forced_choiceRT,2021.1.2,MacIntel,19.94813485,,,,,,,,1,Ontime,j,0,2.0927,9,2,38,2,1,,,,,
,0.66,,,,,,,,,g.PNG,g,5fbd7394725db215bf27e0a5,2021-09-08_15h44.24.407,forced_choiceRT,2021.1.2,MacIntel,19.94813485,,,,,,,,1,Ontime,g,1,2.0687,9,3,39,1,1,,,,,
,,,,,,,,,,,,5fbd7394725db215bf27e0a5,2021-09-08_15h44.24.407,forced_choiceRT,2021.1.2,MacIntel,19.94813485,,,,,,,,,,,,,,,,,,0,0,0,0,1
,0.09,,,,,,,,,g.PNG,g,5fbd7394725db215bf27e0a5,2021-09-08_15h44.24.407,forced_choiceRT,2021.1.2,MacIntel,19.94813485,,,,,,,,2,Fast,g,1,1.8283,0,0,0,1,1,,,,,
,0.49,,,,,,,,,j.PNG,j,5fbd7394725db215bf27e0a5,2021-09-08_15h44.24.407,forced_choiceRT,2021.1.2,MacIntel,19.94813485,,,,,,,,2,Ontime,j,1,2.0019,0,1,1,3,1,,,,,
,1.49,,,,,,,,,h.PNG,h,5fbd7394725db215bf27e0a5,2021-09-08_15h44.24.407,forced_choiceRT,2021.1.2,MacIntel,19.94813485,,,,,,,,2,Slow,j,0,2.1588,0,2,2,2,1,,,,,
,0.66,,,,,,,,,f.PNG,f,5fbd7394725db215bf27e0a5,2021-09-08_15h44.24.407,forced_choiceRT,2021.1.2,MacIntel,19.94813485,,,,,,,,2,Ontime,f,1,2.0344,0,3,3,0,1,,,,,
,1.18,,,,,,,,,h.PNG,h,5fbd7394725db215bf27e0a5,2021-09-08_15h44.24.407,forced_choiceRT,2021.1.2,MacIntel,19.94813485,,,,,,,,2,Slow,h,1,2.1155,1,0,4,2,1,,,,,
,0.34,,,,,,,,,h.PNG,h,5fbd7394725db215bf27e0a5,2021-09-08_15h44.24.407,forced_choiceRT,2021.1.2,MacIntel,19.94813485,,,,,,,,2,Ontime,h,1,1.9603,1,1,5,2,1,,,,,
,0.91,,,,,,,,,f.PNG,f,5fbd7394725db215bf27e0a5,2021-09-08_15h44.24.407,forced_choiceRT,2021.1.2,MacIntel,19.94813485,,,,,,,,2,Ontime,f,1,2.0418,1,2,6,0,1,,,,,
,1.77,,,,,,,,,h.PNG,h,5fbd7394725db215bf27e0a5,2021-09-08_15h44.24.407,forced_choiceRT,2021.1.2,MacIntel,19.94813485,,,,,,,,2,Ontime,j,0,2.0684,1,3,7,2,1,,,,,
,1.73,,,,,,,,,g.PNG,g,5fbd7394725db215bf27e0a5,2021-09-08_15h44.24.407,forced_choiceRT,2021.1.2,MacIntel,19.94813485,,,,,,,,2,Slow,h,0,2.1218,2,0,8,1,1,,,,,
,1.7,,,,,,,,,h.PNG,h,5fbd7394725db215bf27e0a5,2021-09-08_15h44.24.407,forced_choiceRT,2021.1.2,MacIntel,19.94813485,,,,,,,,2,Ontime,g,0,1.9789,2,1,9,2,1,,,,,
,1.68,,,,,,,,,g.PNG,g,5fbd7394725db215bf27e0a5,2021-09-08_15h44.24.407,forced_choiceRT,2021.1.2,MacIntel,19.94813485,,,,,,,,2,Ontime,j,0,1.9928,2,2,10,1,1,,,,,
,1.94,,,,,,,,,j.PNG,j,5fbd7394725db215bf27e0a5,2021-09-08_15h44.24.407,forced_choiceRT,2021.1.2,MacIntel,19.94813485,,,,,,,,2,Ontime,h,0,2.0446,2,3,11,3,1,,,,,
,0.27,,,,,,,,,j.PNG,j,5fbd7394725db215bf27e0a5,2021-09-08_15h44.24.407,forced_choiceRT,2021.1.2,MacIntel,19.94813485,,,,,,,,2,Ontime,j,1,2.0673,3,0,12,3,1,,,,,
,0.83,,,,,,,,,g.PNG,g,5fbd7394725db215bf27e0a5,2021-09-08_15h44.24.407,forced_choiceRT,2021.1.2,MacIntel,19.94813485,,,,,,,,2,Ontime,g,1,2.0254,3,1,13,1,1,,,,,
,1.83,,,,,,,,,j.PNG,j,5fbd7394725db215bf27e0a5,2021-09-08_15h44.24.407,forced_choiceRT,2021.1.2,MacIntel,19.94813485,,,,,,,,2,Ontime,h,0,2.0814,3,2,14,3,1,,,,,
,1.2,,,,,,,,,f.PNG,f,5fbd7394725db215bf27e0a5,2021-09-08_15h44.24.407,forced_choiceRT,2021.1.2,MacIntel,19.94813485,,,,,,,,2,Slow,f,1,2.1237,3,3,15,0,1,,,,,
,0.27,,,,,,,,,g.PNG,g,5fbd7394725db215bf27e0a5,2021-09-08_15h44.24.407,forced_choiceRT,2021.1.2,MacIntel,19.94813485,,,,,,,,2,Ontime,g,1,2.0098,4,0,16,1,1,,,,,
,1.91,,,,,,,,,j.PNG,j,5fbd7394725db215bf27e0a5,2021-09-08_15h44.24.407,forced_choiceRT,2021.1.2,MacIntel,19.94813485,,,,,,,,2,Ontime,j,1,2.0051,4,1,17,3,1,,,,,
,0.13,,,,,,,,,f.PNG,f,5fbd7394725db215bf27e0a5,2021-09-08_15h44.24.407,forced_choiceRT,2021.1.2,MacIntel,19.94813485,,,,,,,,2,Fast,f,1,1.85,4,2,18,0,1,,,,,
,1.13,,,,,,,,,f.PNG,f,5fbd7394725db215bf27e0a5,2021-09-08_15h44.24.407,forced_choiceRT,2021.1.2,MacIntel,19.94813485,,,,,,,,2,Slow,f,1,2.1195,4,3,19,0,1,,,,,
,1.19,,,,,,,,,j.PNG,j,5fbd7394725db215bf27e0a5,2021-09-08_15h44.24.407,forced_choiceRT,2021.1.2,MacIntel,19.94813485,,,,,,,,2,Ontime,h,0,1.9322,5,0,20,3,1,,,,,
,1.41,,,,,,,,,j.PNG,j,5fbd7394725db215bf27e0a5,2021-09-08_15h44.24.407,forced_choiceRT,2021.1.2,MacIntel,19.94813485,,,,,,,,2,Ontime,f,0,1.9196,5,1,21,3,1,,,,,
,0.45,,,,,,,,,j.PNG,j,5fbd7394725db215bf27e0a5,2021-09-08_15h44.24.407,forced_choiceRT,2021.1.2,MacIntel,19.94813485,,,,,,,,2,Ontime,j,1,1.9154,5,2,22,3,1,,,,,
,0.29,,,,,,,,,f.PNG,f,5fbd7394725db215bf27e0a5,2021-09-08_15h44.24.407,forced_choiceRT,2021.1.2,MacIntel,19.94813485,,,,,,,,2,Ontime,f,1,1.9302,5,3,23,0,1,,,,,
,1.59,,,,,,,,,j.PNG,j,5fbd7394725db215bf27e0a5,2021-09-08_15h44.24.407,forced_choiceRT,2021.1.2,MacIntel,19.94813485,,,,,,,,2,Ontime,f,0,2.0566,6,0,24,3,1,,,,,
,1.41,,,,,,,,,g.PNG,g,5fbd7394725db215bf27e0a5,2021-09-08_15h44.24.407,forced_choiceRT,2021.1.2,MacIntel,19.94813485,,,,,,,,2,Ontime,j,0,1.9772,6,1,25,1,1,,,,,
,1.94,,,,,,,,,h.PNG,h,5fbd7394725db215bf27e0a5,2021-09-08_15h44.24.407,forced_choiceRT,2021.1.2,MacIntel,19.94813485,,,,,,,,2,Slow,g,0,2.1098,6,2,26,2,1,,,,,
,0.39,,,,,,,,,h.PNG,h,5fbd7394725db215bf27e0a5,2021-09-08_15h44.24.407,forced_choiceRT,2021.1.2,MacIntel,19.94813485,,,,,,,,2,Ontime,h,1,1.9868,6,3,27,2,1,,,,,
,1.26,,,,,,,,,f.PNG,f,5fbd7394725db215bf27e0a5,2021-09-08_15h44.24.407,forced_choiceRT,2021.1.2,MacIntel,19.94813485,,,,,,,,2,Ontime,f,1,2.0883,7,0,28,0,1,,,,,
,1.16,,,,,,,,,f.PNG,f,5fbd7394725db215bf27e0a5,2021-09-08_15h44.24.407,forced_choiceRT,2021.1.2,MacIntel,19.94813485,,,,,,,,2,Ontime,f,1,1.9998,7,1,29,0,1,,,,,
,1.22,,,,,,,,,j.PNG,j,5fbd7394725db215bf27e0a5,2021-09-08_15h44.24.407,forced_choiceRT,2021.1.2,MacIntel,19.94813485,,,,,,,,2,Ontime,j,1,2.0831,7,2,30,3,1,,,,,
,1.52,,,,,,,,,h.PNG,h,5fbd7394725db215bf27e0a5,2021-09-08_15h44.24.407,forced_choiceRT,2021.1.2,MacIntel,19.94813485,,,,,,,,2,Slow,h,1,2.1776,7,3,31,2,1,,,,,
,0.41,,,,,,,,,f.PNG,f,5fbd7394725db215bf27e0a5,2021-09-08_15h44.24.407,forced_choiceRT,2021.1.2,MacIntel,19.94813485,,,,,,,,2,Ontime,f,1,1.9832,8,0,32,0,1,,,,,
,1.42,,,,,,,,,h.PNG,h,5fbd7394725db215bf27e0a5,2021-09-08_15h44.24.407,forced_choiceRT,2021.1.2,MacIntel,19.94813485,,,,,,,,2,Slow,h,1,2.1878,8,1,33,2,1,,,,,
,1.22,,,,,,,,,g.PNG,g,5fbd7394725db215bf27e0a5,2021-09-08_15h44.24.407,forced_choiceRT,2021.1.2,MacIntel,19.94813485,,,,,,,,2,Ontime,g,1,2.0708,8,2,34,1,1,,,,,
,1.11,,,,,,,,,g.PNG,g,5fbd7394725db215bf27e0a5,2021-09-08_15h44.24.407,forced_choiceRT,2021.1.2,MacIntel,19.94813485,,,,,,,,2,Ontime,f,0,2.0676,8,3,35,1,1,,,,,
,1.1,,,,,,,,,g.PNG,g,5fbd7394725db215bf27e0a5,2021-09-08_15h44.24.407,forced_choiceRT,2021.1.2,MacIntel,19.94813485,,,,,,,,2,Ontime,g,1,2.0694,9,0,36,1,1,,,,,
,0.86,,,,,,,,,h.PNG,h,5fbd7394725db215bf27e0a5,2021-09-08_15h44.24.407,forced_choiceRT,2021.1.2,MacIntel,19.94813485,,,,,,,,2,Ontime,h,1,1.9896,9,1,37,2,1,,,,,
,0.54,,,,,,,,,g.PNG,g,5fbd7394725db215bf27e0a5,2021-09-08_15h44.24.407,forced_choiceRT,2021.1.2,MacIntel,19.94813485,,,,,,,,2,Fast,g,1,1.8512,9,2,38,1,1,,,,,
,1.04,,,,,,,,,f.PNG,f,5fbd7394725db215bf27e0a5,2021-09-08_15h44.24.407,forced_choiceRT,2021.1.2,MacIntel,19.94813485,,,,,,,,2,Fast,f,1,1.8974,9,3,39,0,1,,,,,
,,,,,,,,,,,,5fbd7394725db215bf27e0a5,2021-09-08_15h44.24.407,forced_choiceRT,2021.1.2,MacIntel,19.94813485,,,,,,,,,,,,,,,,,,1,0,1,0,1
,1.79,,,,,,,,,h.PNG,h,5fbd7394725db215bf27e0a5,2021-09-08_15h44.24.407,forced_choiceRT,2021.1.2,MacIntel,19.94813485,,,,,,,,3,Slow,f,0,2.1192,0,0,0,2,1,,,,,
,0.13,,,,,,,,,g.PNG,g,5fbd7394725db215bf27e0a5,2021-09-08_15h44.24.407,forced_choiceRT,2021.1.2,MacIntel,19.94813485,,,,,,,,3,Fast,g,1,1.8749,0,1,1,1,1,,,,,
,1.99,,,,,,,,,f.PNG,f,5fbd7394725db215bf27e0a5,2021-09-08_15h44.24.407,forced_choiceRT,2021.1.2,MacIntel,19.94813485,,,,,,,,3,Ontime,j,0,2.0434,0,2,2,0,1,,,,,
,0.46,,,,,,,,,g.PNG,g,5fbd7394725db215bf27e0a5,2021-09-08_15h44.24.407,forced_choiceRT,2021.1.2,MacIntel,19.94813485,,,,,,,,3,Ontime,g,1,1.9738,0,3,3,1,1,,,,,
,0.85,,,,,,,,,h.PNG,h,5fbd7394725db215bf27e0a5,2021-09-08_15h44.24.407,forced_choiceRT,2021.1.2,MacIntel,19.94813485,,,,,,,,3,Ontime,h,1,1.9646,1,0,4,2,1,,,,,
,0.99,,,,,,,,,h.PNG,h,5fbd7394725db215bf27e0a5,2021-09-08_15h44.24.407,forced_choiceRT,2021.1.2,MacIntel,19.94813485,,,,,,,,3,Ontime,h,1,1.9703,1,1,5,2,1,,,,,
,0.17,,,,,,,,,f.PNG,f,5fbd7394725db215bf27e0a5,2021-09-08_15h44.24.407,forced_choiceRT,2021.1.2,MacIntel,19.94813485,,,,,,,,3,Ontime,f,1,1.9235,1,2,6,0,1,,,,,
,1.07,,,,,,,,,j.PNG,j,5fbd7394725db215bf27e0a5,2021-09-08_15h44.24.407,forced_choiceRT,2021.1.2,MacIntel,19.94813485,,,,,,,,3,Ontime,j,1,1.9986,1,3,7,3,1,,,,,
,1.29,,,,,,,,,f.PNG,f,5fbd7394725db215bf27e0a5,2021-09-08_15h44.24.407,forced_choiceRT,2021.1.2,MacIntel,19.94813485,,,,,,,,3,Ontime,f,1,2.0833,2,0,8,0,1,,,,,
,1.96,,,,,,,,,f.PNG,f,5fbd7394725db215bf27e0a5,2021-09-08_15h44.24.407,forced_choiceRT,2021.1.2,MacIntel,19.94813485,,,,,,,,3,Slow,g,0,2.1125,2,1,9,0,1,,,,,
,0.77,,,,,,,,,g.PNG,g,5fbd7394725db215bf27e0a5,2021-09-08_15h44.24.407,forced_choiceRT,2021.1.2,MacIntel,19.94813485,,,,,,,,3,Ontime,g,1,2.0221,2,2,10,1,1,,,,,
,1.27,,,,,,,,,f.PNG,f,5fbd7394725db215bf27e0a5,2021-09-08_15h44.24.407,forced_choiceRT,2021.1.2,MacIntel,19.94813485,,,,,,,,3,Ontime,h,0,1.9409,2,3,11,0,1,,,,,
,1.56,,,,,,,,,f.PNG,f,5fbd7394725db215bf27e0a5,2021-09-08_15h44.24.407,forced_choiceRT,2021.1.2,MacIntel,19.94813485,,,,,,,,3,Ontime,f,1,2.0415,3,0,12,0,1,,,,,
,1.68,,,,,,,,,h.PNG,h,5fbd7394725db215bf27e0a5,2021-09-08_15h44.24.407,forced_choiceRT,2021.1.2,MacIntel,19.94813485,,,,,,,,3,Ontime,f,0,2.047,3,1,13,2,1,,,,,
,0.56,,,,,,,,,g.PNG,g,5fbd7394725db215bf27e0a5,2021-09-08_15h44.24.407,forced_choiceRT,2021.1.2,MacIntel,19.94813485,,,,,,,,3,Ontime,g,1,2.0329,3,2,14,1,1,,,,,
,0.61,,,,,,,,,f.PNG,f,5fbd7394725db215bf27e0a5,2021-09-08_15h44.24.407,forced_choiceRT,2021.1.2,MacIntel,19.94813485,,,,,,,,3,Ontime,f,1,1.9372,3,3,15,0,1,,,,,
,1.54,,,,,,,,,h.PNG,h,5fbd7394725db215bf27e0a5,2021-09-08_15h44.24.407,forced_choiceRT,2021.1.2,MacIntel,19.94813485,,,,,,,,3,Ontime,j,0,1.9135,4,0,16,2,1,,,,,
,1.53,,,,,,,,,h.PNG,h,5fbd7394725db215bf27e0a5,2021-09-08_15h44.24.407,forced_choiceRT,2021.1.2,MacIntel,19.94813485,,,,,,,,3,Ontime,h,1,1.9902,4,1,17,2,1,,,,,
,0.58,,,,,,,,,h.PNG,h,5fbd7394725db215bf27e0a5,2021-09-08_15h44.24.407,forced_choiceRT,2021.1.2,MacIntel,19.94813485,,,,,,,,3,Ontime,h,1,2.0252,4,2,18,2,1,,,,,
,1.54,,,,,,,,,j.PNG,j,5fbd7394725db215bf27e0a5,2021-09-08_15h44.24.407,forced_choiceRT,2021.1.2,MacIntel,19.94813485,,,,,,,,3,Ontime,h,0,1.9598,4,3,19,3,1,,,,,
,0.19,,,,,,,,,j.PNG,j,5fbd7394725db215bf27e0a5,2021-09-08_15h44.24.407,forced_choiceRT,2021.1.2,MacIntel,19.94813485,,,,,,,,3,Ontime,j,1,1.953,5,0,20,3,1,,,,,
,1.28,,,,,,,,,h.PNG,h,5fbd7394725db215bf27e0a5,2021-09-08_15h44.24.407,forced_choiceRT,2021.1.2,MacIntel,19.94813485,,,,,,,,3,Fast,f,0,0.579,5,1,21,2,1,,,,,
,0.86,,,,,,,,,g.PNG,g,5fbd7394725db215bf27e0a5,2021-09-08_15h44.24.407,forced_choiceRT,2021.1.2,MacIntel,19.94813485,,,,,,,,3,Ontime,g,1,2.0664,5,2,22,1,1,,,,,
,1.81,,,,,,,,,j.PNG,j,5fbd7394725db215bf27e0a5,2021-09-08_15h44.24.407,forced_choiceRT,2021.1.2,MacIntel,19.94813485,,,,,,,,3,Ontime,g,0,2.0882,5,3,23,3,1,,,,,
,0.44,,,,,,,,,j.PNG,j,5fbd7394725db215bf27e0a5,2021-09-08_15h44.24.407,forced_choiceRT,2021.1.2,MacIntel,19.94813485,,,,,,,,3,Ontime,j,1,1.9823,6,0,24,3,1,,,,,
,0.81,,,,,,,,,f.PNG,f,5fbd7394725db215bf27e0a5,2021-09-08_15h44.24.407,forced_choiceRT,2021.1.2,MacIntel,19.94813485,,,,,,,,3,Ontime,f,1,2.0561,6,1,25,0,1,,,,,
,0.85,,,,,,,,,g.PNG,g,5fbd7394725db215bf27e0a5,2021-09-08_15h44.24.407,forced_choiceRT,2021.1.2,MacIntel,19.94813485,,,,,,,,3,Ontime,g,1,1.9629,6,2,26,1,1,,,,,
,0.98,,,,,,,,,f.PNG,f,5fbd7394725db215bf27e0a5,2021-09-08_15h44.24.407,forced_choiceRT,2021.1.2,MacIntel,19.94813485,,,,,,,,3,Ontime,f,1,1.9684,6,3,27,0,1,,,,,
,1.23,,,,,,,,,h.PNG,h,5fbd7394725db215bf27e0a5,2021-09-08_15h44.24.407,forced_choiceRT,2021.1.2,MacIntel,19.94813485,,,,,,,,3,Ontime,h,1,2.0651,7,0,28,2,1,,,,,
,1.09,,,,,,,,,j.PNG,j,5fbd7394725db215bf27e0a5,2021-09-08_15h44.24.407,forced_choiceRT,2021.1.2,MacIntel,19.94813485,,,,,,,,3,Ontime,j,1,1.9863,7,1,29,3,1,,,,,
,1.79,,,,,,,,,f.PNG,f,5fbd7394725db215bf27e0a5,2021-09-08_15h44.24.407,forced_choiceRT,2021.1.2,MacIntel,19.94813485,,,,,,,,3,Ontime,g,0,2.0521,7,2,30,0,1,,,,,
,1.27,,,,,,,,,g.PNG,g,5fbd7394725db215bf27e0a5,2021-09-08_15h44.24.407,forced_choiceRT,2021.1.2,MacIntel,19.94813485,,,,,,,,3,Ontime,g,1,2.0551,7,3,31,1,1,,,,,
,0.59,,,,,,,,,g.PNG,g,5fbd7394725db215bf27e0a5,2021-09-08_15h44.24.407,forced_choiceRT,2021.1.2,MacIntel,19.94813485,,,,,,,,3,Ontime,g,1,1.9785,8,0,32,1,1,,,,,
,1.26,,,,,,,,,j.PNG,j,5fbd7394725db215bf27e0a5,2021-09-08_15h44.24.407,forced_choiceRT,2021.1.2,MacIntel,19.94813485,,,,,,,,3,Ontime,j,1,2.062,8,1,33,3,1,,,,,
,1.49,,,,,,,,,h.PNG,h,5fbd7394725db215bf27e0a5,2021-09-08_15h44.24.407,forced_choiceRT,2021.1.2,MacIntel,19.94813485,,,,,,,,3,Ontime,h,1,2.0515,8,2,34,2,1,,,,,
,0.15,,,,,,,,,g.PNG,g,5fbd7394725db215bf27e0a5,2021-09-08_15h44.24.407,forced_choiceRT,2021.1.2,MacIntel,19.94813485,,,,,,,,3,Ontime,g,1,2.017,8,3,35,1,1,,,,,
,1.51,,,,,,,,,j.PNG,j,5fbd7394725db215bf27e0a5,2021-09-08_15h44.24.407,forced_choiceRT,2021.1.2,MacIntel,19.94813485,,,,,,,,3,Slow,f,0,2.1152,9,0,36,3,1,,,,,
,1.63,,,,,,,,,j.PNG,j,5fbd7394725db215bf27e0a5,2021-09-08_15h44.24.407,forced_choiceRT,2021.1.2,MacIntel,19.94813485,,,,,,,,3,Ontime,j,1,2.014,9,1,37,3,1,,,,,
,1.42,,,,,,,,,j.PNG,j,5fbd7394725db215bf27e0a5,2021-09-08_15h44.24.407,forced_choiceRT,2021.1.2,MacIntel,19.94813485,,,,,,,,3,Ontime,j,1,1.9171,9,2,38,3,1,,,,,
,0.54,,,,,,,,,g.PNG,g,5fbd7394725db215bf27e0a5,2021-09-08_15h44.24.407,forced_choiceRT,2021.1.2,MacIntel,19.94813485,,,,,,,,3,Ontime,g,1,1.9341,9,3,39,1,1,,,,,
,,,,,,,,,,,,5fbd7394725db215bf27e0a5,2021-09-08_15h44.24.407,forced_choiceRT,2021.1.2,MacIntel,19.94813485,,,,,,,,,,,,,,,,,,2,0,2,0,1
,1.35,,,,,,,,,h.PNG,h,5fbd7394725db215bf27e0a5,2021-09-08_15h44.24.407,forced_choiceRT,2021.1.2,MacIntel,19.94813485,,,,,,,,4,Ontime,h,1,2.0221,0,0,0,2,1,,,,,
,1.82,,,,,,,,,j.PNG,j,5fbd7394725db215bf27e0a5,2021-09-08_15h44.24.407,forced_choiceRT,2021.1.2,MacIntel,19.94813485,,,,,,,,4,Ontime,f,0,2.0417,0,1,1,3,1,,,,,
,0.47,,,,,,,,,h.PNG,h,5fbd7394725db215bf27e0a5,2021-09-08_15h44.24.407,forced_choiceRT,2021.1.2,MacIntel,19.94813485,,,,,,,,4,Ontime,h,1,2.0491,0,2,2,2,1,,,,,
,0.48,,,,,,,,,f.PNG,f,5fbd7394725db215bf27e0a5,2021-09-08_15h44.24.407,forced_choiceRT,2021.1.2,MacIntel,19.94813485,,,,,,,,4,Ontime,f,1,1.9714,0,3,3,0,1,,,,,
,0.13,,,,,,,,,j.PNG,j,5fbd7394725db215bf27e0a5,2021-09-08_15h44.24.407,forced_choiceRT,2021.1.2,MacIntel,19.94813485,,,,,,,,4,Fast,j,1,1.7333,1,0,4,3,1,,,,,
,0.45,,,,,,,,,f.PNG,f,5fbd7394725db215bf27e0a5,2021-09-08_15h44.24.407,forced_choiceRT,2021.1.2,MacIntel,19.94813485,,,,,,,,4,Ontime,f,1,2.0418,1,1,5,0,1,,,,,
,0.21,,,,,,,,,g.PNG,g,5fbd7394725db215bf27e0a5,2021-09-08_15h44.24.407,forced_choiceRT,2021.1.2,MacIntel,19.94813485,,,,,,,,4,Ontime,g,1,2.0839,1,2,6,1,1,,,,,
,0.44,,,,,,,,,h.PNG,h,5fbd7394725db215bf27e0a5,2021-09-08_15h44.24.407,forced_choiceRT,2021.1.2,MacIntel,19.94813485,,,,,,,,4,Ontime,h,1,2.0467,1,3,7,2,1,,,,,
,0.11,,,,,,,,,j.PNG,j,5fbd7394725db215bf27e0a5,2021-09-08_15h44.24.407,forced_choiceRT,2021.1.2,MacIntel,19.94813485,,,,,,,,4,Slow,j,1,2.1207,2,0,8,3,1,,,,,
,0.14,,,,,,,,,g.PNG,g,5fbd7394725db215bf27e0a5,2021-09-08_15h44.24.407,forced_choiceRT,2021.1.2,MacIntel,19.94813485,,,,,,,,4,Ontime,g,1,1.9419,2,1,9,1,1,,,,,
,1.14,,,,,,,,,f.PNG,f,5fbd7394725db215bf27e0a5,2021-09-08_15h44.24.407,forced_choiceRT,2021.1.2,MacIntel,19.94813485,,,,,,,,4,Ontime,f,1,1.9432,2,2,10,0,1,,,,,
,1.49,,,,,,,,,j.PNG,j,5fbd7394725db215bf27e0a5,2021-09-08_15h44.24.407,forced_choiceRT,2021.1.2,MacIntel,19.94813485,,,,,,,,4,Ontime,h,0,1.9014,2,3,11,3,1,,,,,
,0.14,,,,,,,,,h.PNG,h,5fbd7394725db215bf27e0a5,2021-09-08_15h44.24.407,forced_choiceRT,2021.1.2,MacIntel,19.94813485,,,,,,,,4,Ontime,h,1,1.9791,3,0,12,2,1,,,,,
,1.73,,,,,,,,,j.PNG,j,5fbd7394725db215bf27e0a5,2021-09-08_15h44.24.407,forced_choiceRT,2021.1.2,MacIntel,19.94813485,,,,,,,,4,Ontime,j,1,2.0598,3,1,13,3,1,,,,,
,1.73,,,,,,,,,h.PNG,h,5fbd7394725db215bf27e0a5,2021-09-08_15h44.24.407,forced_choiceRT,2021.1.2,MacIntel,19.94813485,,,,,,,,4,Ontime,j,0,2.0204,3,2,14,2,1,,,,,
,1.26,,,,,,,,,g.PNG,g,5fbd7394725db215bf27e0a5,2021-09-08_15h44.24.407,forced_choiceRT,2021.1.2,MacIntel,19.94813485,,,,,,,,4,Ontime,h,0,1.9794,3,3,15,1,1,,,,,
,1.65,,,,,,,,,f.PNG,f,5fbd7394725db215bf27e0a5,2021-09-08_15h44.24.407,forced_choiceRT,2021.1.2,MacIntel,19.94813485,,,,,,,,4,Ontime,g,0,2.0435,4,0,16,0,1,,,,,
,1.91,,,,,,,,,h.PNG,h,5fbd7394725db215bf27e0a5,2021-09-08_15h44.24.407,forced_choiceRT,2021.1.2,MacIntel,19.94813485,,,,,,,,4,Slow,f,0,2.1061,4,1,17,2,1,,,,,
,1.2,,,,,,,,,f.PNG,f,5fbd7394725db215bf27e0a5,2021-09-08_15h44.24.407,forced_choiceRT,2021.1.2,MacIntel,19.94813485,,,,,,,,4,Ontime,h,0,1.9983,4,2,18,0,1,,,,,
,1.55,,,,,,,,,g.PNG,g,5fbd7394725db215bf27e0a5,2021-09-08_15h44.24.407,forced_choiceRT,2021.1.2,MacIntel,19.94813485,,,,,,,,4,Ontime,f,0,2.0427,4,3,19,1,1,,,,,
,0.03,,,,,,,,,f.PNG,f,5fbd7394725db215bf27e0a5,2021-09-08_15h44.24.407,forced_choiceRT,2021.1.2,MacIntel,19.94813485,,,,,,,,4,Ontime,f,1,1.9254,5,0,20,0,1,,,,,
,0.39,,,,,,,,,j.PNG,j,5fbd7394725db215bf27e0a5,2021-09-08_15h44.24.407,forced_choiceRT,2021.1.2,MacIntel,19.94813485,,,,,,,,4,Ontime,j,1,1.9674,5,1,21,3,1,,,,,
,1.9,,,,,,,,,f.PNG,f,5fbd7394725db215bf27e0a5,2021-09-08_15h44.24.407,forced_choiceRT,2021.1.2,MacIntel,19.94813485,,,,,,,,4,Ontime,h,0,1.9357,5,2,22,0,1,,,,,
,0.04,,,,,,,,,g.PNG,g,5fbd7394725db215bf27e0a5,2021-09-08_15h44.24.407,forced_choiceRT,2021.1.2,MacIntel,19.94813485,,,,,,,,4,Ontime,g,1,1.929,5,3,23,1,1,,,,,
,1.23,,,,,,,,,j.PNG,j,5fbd7394725db215bf27e0a5,2021-09-08_15h44.24.407,forced_choiceRT,2021.1.2,MacIntel,19.94813485,,,,,,,,4,Ontime,f,0,1.9972,6,0,24,3,1,,,,,
,0.57,,,,,,,,,h.PNG,h,5fbd7394725db215bf27e0a5,2021-09-08_15h44.24.407,forced_choiceRT,2021.1.2,MacIntel,19.94813485,,,,,,,,4,Ontime,h,1,1.9868,6,1,25,2,1,,,,,
,0.42,,,,,,,,,g.PNG,g,5fbd7394725db215bf27e0a5,2021-09-08_15h44.24.407,forced_choiceRT,2021.1.2,MacIntel,19.94813485,,,,,,,,4,Ontime,g,1,1.9549,6,2,26,1,1,,,,,
,1.52,,,,,,,,,h.PNG,h,5fbd7394725db215bf27e0a5,2021-09-08_15h44.24.407,forced_choiceRT,2021.1.2,MacIntel,19.94813485,,,,,,,,4,Ontime,j,0,1.9891,6,3,27,2,1,,,,,
,1.86,,,,,,,,,f.PNG,f,5fbd7394725db215bf27e0a5,2021-09-08_15h44.24.407,forced_choiceRT,2021.1.2,MacIntel,19.94813485,,,,,,,,4,Ontime,h,0,2.0687,7,0,28,0,1,,,,,
,1.73,,,,,,,,,g.PNG,g,5fbd7394725db215bf27e0a5,2021-09-08_15h44.24.407,forced_choiceRT,2021.1.2,MacIntel,19.94813485,,,,,,,,4,Fast,f,0,1.8956,7,1,29,1,1,,,,,
,0.27,,,,,,,,,j.PNG,j,5fbd7394725db215bf27e0a5,2021-09-08_15h44.24.407,forced_choiceRT,2021.1.2,MacIntel,19.94813485,,,,,,,,4,Ontime,j,1,1.9174,7,2,30,3,1,,,,,
,0.5,,,,,,,,,f.PNG,f,5fbd7394725db215bf27e0a5,2021-09-08_15h44.24.407,forced_choiceRT,2021.1.2,MacIntel,19.94813485,,,,,,,,4,Ontime,f,1,1.9155,7,3,31,0,1,,,,,
,0.61,,,,,,,,,g.PNG,g,5fbd7394725db215bf27e0a5,2021-09-08_15h44.24.407,forced_choiceRT,2021.1.2,MacIntel,19.94813485,,,,,,,,4,Ontime,g,1,2.0411,8,0,32,1,1,,,,,
,1.64,,,,,,,,,j.PNG,j,5fbd7394725db215bf27e0a5,2021-09-08_15h44.24.407,forced_choiceRT,2021.1.2,MacIntel,19.94813485,,,,,,,,4,Ontime,j,1,1.9201,8,1,33,3,1,,,,,
,1.83,,,,,,,,,j.PNG,j,5fbd7394725db215bf27e0a5,2021-09-08_15h44.24.407,forced_choiceRT,2021.1.2,MacIntel,19.94813485,,,,,,,,4,Ontime,h,0,1.9557,8,2,34,3,1,,,,,
,0.7,,,,,,,,,h.PNG,h,5fbd7394725db215bf27e0a5,2021-09-08_15h44.24.407,forced_choiceRT,2021.1.2,MacIntel,19.94813485,,,,,,,,4,Ontime,h,1,2.012,8,3,35,2,1,,,,,
,0.01,,,,,,,,,f.PNG,f,5fbd7394725db215bf27e0a5,2021-09-08_15h44.24.407,forced_choiceRT,2021.1.2,MacIntel,19.94813485,,,,,,,,4,Ontime,f,1,2.0233,9,0,36,0,1,,,,,
,1.68,,,,,,,,,g.PNG,g,5fbd7394725db215bf27e0a5,2021-09-08_15h44.24.407,forced_choiceRT,2021.1.2,MacIntel,19.94813485,,,,,,,,4,Ontime,f,0,2.0038,9,1,37,1,1,,,,,
,1.44,,,,,,,,,h.PNG,h,5fbd7394725db215bf27e0a5,2021-09-08_15h44.24.407,forced_choiceRT,2021.1.2,MacIntel,19.94813485,,,,,,,,4,Ontime,g,0,2.0152,9,2,38,2,1,,,,,
,1.91,,,,,,,,,g.PNG,g,5fbd7394725db215bf27e0a5,2021-09-08_15h44.24.407,forced_choiceRT,2021.1.2,MacIntel,19.94813485,,,,,,,,4,Ontime,h,0,1.9774,9,3,39,1,1,,,,,
,,,,,,,,,,,,5fbd7394725db215bf27e0a5,2021-09-08_15h44.24.407,forced_choiceRT,2021.1.2,MacIntel,19.94813485,,,,,,,,,,,,,,,,,,3,0,3,0,1
,0.9,,,,,,,,,f.PNG,f,5fbd7394725db215bf27e0a5,2021-09-08_15h44.24.407,forced_choiceRT,2021.1.2,MacIntel,19.94813485,,,,,,,,5,Ontime,f,1,2.0591,0,0,0,0,1,,,,,
,0.34,,,,,,,,,g.PNG,g,5fbd7394725db215bf27e0a5,2021-09-08_15h44.24.407,forced_choiceRT,2021.1.2,MacIntel,19.94813485,,,,,,,,5,Ontime,g,1,1.907,0,1,1,1,1,,,,,
,0.4,,,,,,,,,h.PNG,h,5fbd7394725db215bf27e0a5,2021-09-08_15h44.24.407,forced_choiceRT,2021.1.2,MacIntel,19.94813485,,,,,,,,5,Ontime,h,1,1.9036,0,2,2,2,1,,,,,
,0.9,,,,,,,,,j.PNG,j,5fbd7394725db215bf27e0a5,2021-09-08_15h44.24.407,forced_choiceRT,2021.1.2,MacIntel,19.94813485,,,,,,,,5,Ontime,j,1,1.9258,0,3,3,3,1,,,,,
,0.1,,,,,,,,,f.PNG,f,5fbd7394725db215bf27e0a5,2021-09-08_15h44.24.407,forced_choiceRT,2021.1.2,MacIntel,19.94813485,,,,,,,,5,Ontime,f,1,2.0343,1,0,4,0,1,,,,,
,1.44,,,,,,,,,f.PNG,f,5fbd7394725db215bf27e0a5,2021-09-08_15h44.24.407,forced_choiceRT,2021.1.2,MacIntel,19.94813485,,,,,,,,5,Ontime,h,0,1.953,1,1,5,0,1,,,,,
,1.23,,,,,,,,,h.PNG,h,5fbd7394725db215bf27e0a5,2021-09-08_15h44.24.407,forced_choiceRT,2021.1.2,MacIntel,19.94813485,,,,,,,,5,Slow,h,1,2.1156,1,2,6,2,1,,,,,
,1.9,,,,,,,,,j.PNG,j,5fbd7394725db215bf27e0a5,2021-09-08_15h44.24.407,forced_choiceRT,2021.1.2,MacIntel,19.94813485,,,,,,,,5,Ontime,j,1,1.9704,1,3,7,3,1,,,,,
,0.42,,,,,,,,,g.PNG,g,5fbd7394725db215bf27e0a5,2021-09-08_15h44.24.407,forced_choiceRT,2021.1.2,MacIntel,19.94813485,,,,,,,,5,Ontime,g,1,1.9872,2,0,8,1,1,,,,,
,0.46,,,,,,,,,j.PNG,j,5fbd7394725db215bf27e0a5,2021-09-08_15h44.24.407,forced_choiceRT,2021.1.2,MacIntel,19.94813485,,,,,,,,5,Ontime,j,1,2.0024,2,1,9,3,1,,,,,
,0.94,,,,,,,,,h.PNG,h,5fbd7394725db215bf27e0a5,2021-09-08_15h44.24.407,forced_choiceRT,2021.1.2,MacIntel,19.94813485,,,,,,,,5,Ontime,h,1,2.0545,2,2,10,2,1,,,,,
,0.34,,,,,,,,,h.PNG,h,5fbd7394725db215bf27e0a5,2021-09-08_15h44.24.407,forced_choiceRT,2021.1.2,MacIntel,19.94813485,,,,,,,,5,Ontime,h,1,1.9716,2,3,11,2,1,,,,,
,0.24,,,,,,,,,g.PNG,g,5fbd7394725db215bf27e0a5,2021-09-08_15h44.24.407,forced_choiceRT,2021.1.2,MacIntel,19.94813485,,,,,,,,5,Ontime,g,1,1.9984,3,0,12,1,1,,,,,
,0.74,,,,,,,,,g.PNG,g,5fbd7394725db215bf27e0a5,2021-09-08_15h44.24.407,forced_choiceRT,2021.1.2,MacIntel,19.94813485,,,,,,,,5,Ontime,g,1,2.0118,3,1,13,1,1,,,,,
,1.94,,,,,,,,,f.PNG,f,5fbd7394725db215bf27e0a5,2021-09-08_15h44.24.407,forced_choiceRT,2021.1.2,MacIntel,19.94813485,,,,,,,,5,Ontime,f,1,1.9349,3,2,14,0,1,,,,,
,1.49,,,,,,,,,f.PNG,f,5fbd7394725db215bf27e0a5,2021-09-08_15h44.24.407,forced_choiceRT,2021.1.2,MacIntel,19.94813485,,,,,,,,5,Ontime,h,0,1.9498,3,3,15,0,1,,,,,
,1.07,,,,,,,,,j.PNG,j,5fbd7394725db215bf27e0a5,2021-09-08_15h44.24.407,forced_choiceRT,2021.1.2,MacIntel,19.94813485,,,,,,,,5,Slow,f,0,2.2309,4,0,16,3,1,,,,,
,0.03,,,,,,,,,h.PNG,h,5fbd7394725db215bf27e0a5,2021-09-08_15h44.24.407,forced_choiceRT,2021.1.2,MacIntel,19.94813485,,,,,,,,5,Ontime,h,1,1.9737,4,1,17,2,1,,,,,
,0.28,,,,,,,,,j.PNG,j,5fbd7394725db215bf27e0a5,2021-09-08_15h44.24.407,forced_choiceRT,2021.1.2,MacIntel,19.94813485,,,,,,,,5,Ontime,j,1,1.9433,4,2,18,3,1,,,,,
,0.14,,,,,,,,,g.PNG,g,5fbd7394725db215bf27e0a5,2021-09-08_15h44.24.407,forced_choiceRT,2021.1.2,MacIntel,19.94813485,,,,,,,,5,Ontime,g,1,1.9471,4,3,19,1,1,,,,,
,0.34,,,,,,,,,h.PNG,h,5fbd7394725db215bf27e0a5,2021-09-08_15h44.24.407,forced_choiceRT,2021.1.2,MacIntel,19.94813485,,,,,,,,5,Ontime,h,1,1.9423,5,0,20,2,1,,,,,
,1.85,,,,,,,,,j.PNG,j,5fbd7394725db215bf27e0a5,2021-09-08_15h44.24.407,forced_choiceRT,2021.1.2,MacIntel,19.94813485,,,,,,,,5,Ontime,j,1,1.9193,5,1,21,3,1,,,,,
,1.48,,,,,,,,,f.PNG,f,5fbd7394725db215bf27e0a5,2021-09-08_15h44.24.407,forced_choiceRT,2021.1.2,MacIntel,19.94813485,,,,,,,,5,Ontime,j,0,1.9158,5,2,22,0,1,,,,,
,0.18,,,,,,,,,h.PNG,h,5fbd7394725db215bf27e0a5,2021-09-08_15h44.24.407,forced_choiceRT,2021.1.2,MacIntel,19.94813485,,,,,,,,5,Ontime,h,1,1.9182,5,3,23,2,1,,,,,
,0.77,,,,,,,,,g.PNG,g,5fbd7394725db215bf27e0a5,2021-09-08_15h44.24.407,forced_choiceRT,2021.1.2,MacIntel,19.94813485,,,,,,,,5,Ontime,g,1,1.9628,6,0,24,1,1,,,,,
,0.06,,,,,,,,,f.PNG,f,5fbd7394725db215bf27e0a5,2021-09-08_15h44.24.407,forced_choiceRT,2021.1.2,MacIntel,19.94813485,,,,,,,,5,Ontime,f,1,1.9286,6,1,25,0,1,,,,,
,0.17,,,,,,,,,g.PNG,g,5fbd7394725db215bf27e0a5,2021-09-08_15h44.24.407,forced_choiceRT,2021.1.2,MacIntel,19.94813485,,,,,,,,5,Ontime,g,1,1.943,6,2,26,1,1,,,,,
,1.85,,,,,,,,,f.PNG,f,5fbd7394725db215bf27e0a5,2021-09-08_15h44.24.407,forced_choiceRT,2021.1.2,MacIntel,19.94813485,,,,,,,,5,Ontime,h,0,1.9856,6,3,27,0,1,,,,,
,1.59,,,,,,,,,f.PNG,f,5fbd7394725db215bf27e0a5,2021-09-08_15h44.24.407,forced_choiceRT,2021.1.2,MacIntel,19.94813485,,,,,,,,5,Ontime,f,1,1.996,7,0,28,0,1,,,,,
,1.72,,,,,,,,,f.PNG,f,5fbd7394725db215bf27e0a5,2021-09-08_15h44.24.407,forced_choiceRT,2021.1.2,MacIntel,19.94813485,,,,,,,,5,Ontime,j,0,1.9681,7,1,29,0,1,,,,,
,0.46,,,,,,,,,h.PNG,h,5fbd7394725db215bf27e0a5,2021-09-08_15h44.24.407,forced_choiceRT,2021.1.2,MacIntel,19.94813485,,,,,,,,5,Ontime,h,1,1.995,7,2,30,2,1,,,,,
,1.95,,,,,,,,,g.PNG,g,5fbd7394725db215bf27e0a5,2021-09-08_15h44.24.407,forced_choiceRT,2021.1.2,MacIntel,19.94813485,,,,,,,,5,Ontime,g,1,1.9707,7,3,31,1,1,,,,,
,0.62,,,,,,,,,j.PNG,j,5fbd7394725db215bf27e0a5,2021-09-08_15h44.24.407,forced_choiceRT,2021.1.2,MacIntel,19.94813485,,,,,,,,5,Ontime,j,1,2.0588,8,0,32,3,1,,,,,
,1.61,,,,,,,,,g.PNG,g,5fbd7394725db215bf27e0a5,2021-09-08_15h44.24.407,forced_choiceRT,2021.1.2,MacIntel,19.94813485,,,,,,,,5,Fast,f,0,1.8551,8,1,33,1,1,,,,,
,0.25,,,,,,,,,j.PNG,j,5fbd7394725db215bf27e0a5,2021-09-08_15h44.24.407,forced_choiceRT,2021.1.2,MacIntel,19.94813485,,,,,,,,5,Ontime,j,1,1.9298,8,2,34,3,1,,,,,
,0.31,,,,,,,,,j.PNG,j,5fbd7394725db215bf27e0a5,2021-09-08_15h44.24.407,forced_choiceRT,2021.1.2,MacIntel,19.94813485,,,,,,,,5,Ontime,j,1,1.9653,8,3,35,3,1,,,,,
,0.73,,,,,,,,,h.PNG,h,5fbd7394725db215bf27e0a5,2021-09-08_15h44.24.407,forced_choiceRT,2021.1.2,MacIntel,19.94813485,,,,,,,,5,Ontime,h,1,2.0269,9,0,36,2,1,,,,,
,0.92,,,,,,,,,h.PNG,h,5fbd7394725db215bf27e0a5,2021-09-08_15h44.24.407,forced_choiceRT,2021.1.2,MacIntel,19.94813485,,,,,,,,5,Ontime,h,1,1.9761,9,1,37,2,1,,,,,
,1.61,,,,,,,,,j.PNG,j,5fbd7394725db215bf27e0a5,2021-09-08_15h44.24.407,forced_choiceRT,2021.1.2,MacIntel,19.94813485,,,,,,,,5,Fast,j,1,1.8783,9,2,38,3,1,,,,,
,0.38,,,,,,,,,g.PNG,g,5fbd7394725db215bf27e0a5,2021-09-08_15h44.24.407,forced_choiceRT,2021.1.2,MacIntel,19.94813485,,,,,,,,5,Fast,g,1,1.8562,9,3,39,1,1,,,,,
,,,,,,,,,,,,5fbd7394725db215bf27e0a5,2021-09-08_15h44.24.407,forced_choiceRT,2021.1.2,MacIntel,19.94813485,,,,,,,,,,,,,,,,,,4,0,4,0,1
,0.87,,,,,,,,,j.PNG,j,5fbd7394725db215bf27e0a5,2021-09-08_15h44.24.407,forced_choiceRT,2021.1.2,MacIntel,19.94813485,,,,,,,,6,Ontime,j,1,1.9834,0,0,0,3,1,,,,,
,0.51,,,,,,,,,h.PNG,h,5fbd7394725db215bf27e0a5,2021-09-08_15h44.24.407,forced_choiceRT,2021.1.2,MacIntel,19.94813485,,,,,,,,6,Ontime,h,1,1.9554,0,1,1,2,1,,,,,
,1.52,,,,,,,,,f.PNG,f,5fbd7394725db215bf27e0a5,2021-09-08_15h44.24.407,forced_choiceRT,2021.1.2,MacIntel,19.94813485,,,,,,,,6,Ontime,g,0,1.9349,0,2,2,0,1,,,,,
,0.16,,,,,,,,,g.PNG,g,5fbd7394725db215bf27e0a5,2021-09-08_15h44.24.407,forced_choiceRT,2021.1.2,MacIntel,19.94813485,,,,,,,,6,Ontime,g,1,1.9791,0,3,3,1,1,,,,,
,0.5,,,,,,,,,j.PNG,j,5fbd7394725db215bf27e0a5,2021-09-08_15h44.24.407,forced_choiceRT,2021.1.2,MacIntel,19.94813485,,,,,,,,6,Ontime,j,1,1.9356,1,0,4,3,1,,,,,
,1.34,,,,,,,,,f.PNG,f,5fbd7394725db215bf27e0a5,2021-09-08_15h44.24.407,forced_choiceRT,2021.1.2,MacIntel,19.94813485,,,,,,,,6,Ontime,h,0,1.9321,1,1,5,0,1,,,,,
,1.64,,,,,,,,,f.PNG,f,5fbd7394725db215bf27e0a5,2021-09-08_15h44.24.407,forced_choiceRT,2021.1.2,MacIntel,19.94813485,,,,,,,,6,Ontime,f,1,2.0133,1,2,6,0,1,,,,,
,0.77,,,,,,,,,g.PNG,g,5fbd7394725db215bf27e0a5,2021-09-08_15h44.24.407,forced_choiceRT,2021.1.2,MacIntel,19.94813485,,,,,,,,6,Ontime,g,1,2.0113,1,3,7,1,1,,,,,
,1.33,,,,,,,,,j.PNG,j,5fbd7394725db215bf27e0a5,2021-09-08_15h44.24.407,forced_choiceRT,2021.1.2,MacIntel,19.94813485,,,,,,,,6,Ontime,h,0,2.0003,2,0,8,3,1,,,,,
,0.13,,,,,,,,,f.PNG,f,5fbd7394725db215bf27e0a5,2021-09-08_15h44.24.407,forced_choiceRT,2021.1.2,MacIntel,19.94813485,,,,,,,,6,Ontime,f,1,1.9741,2,1,9,0,1,,,,,
,1.37,,,,,,,,,j.PNG,j,5fbd7394725db215bf27e0a5,2021-09-08_15h44.24.407,forced_choiceRT,2021.1.2,MacIntel,19.94813485,,,,,,,,6,Ontime,j,1,1.9776,2,2,10,3,1,,,,,
,1.68,,,,,,,,,g.PNG,g,5fbd7394725db215bf27e0a5,2021-09-08_15h44.24.407,forced_choiceRT,2021.1.2,MacIntel,19.94813485,,,,,,,,6,Ontime,h,0,1.9961,2,3,11,1,1,,,,,
,1.04,,,,,,,,,g.PNG,g,5fbd7394725db215bf27e0a5,2021-09-08_15h44.24.407,forced_choiceRT,2021.1.2,MacIntel,19.94813485,,,,,,,,6,Ontime,h,0,2.0099,3,0,12,1,1,,,,,
,1.5,,,,,,,,,j.PNG,j,5fbd7394725db215bf27e0a5,2021-09-08_15h44.24.407,forced_choiceRT,2021.1.2,MacIntel,19.94813485,,,,,,,,6,Ontime,f,0,1.9461,3,1,13,3,1,,,,,
,1.55,,,,,,,,,h.PNG,h,5fbd7394725db215bf27e0a5,2021-09-08_15h44.24.407,forced_choiceRT,2021.1.2,MacIntel,19.94813485,,,,,,,,6,Ontime,j,0,1.992,3,2,14,2,1,,,,,
,1.66,,,,,,,,,g.PNG,g,5fbd7394725db215bf27e0a5,2021-09-08_15h44.24.407,forced_choiceRT,2021.1.2,MacIntel,19.94813485,,,,,,,,6,Ontime,h,0,1.954,3,3,15,1,1,,,,,
,0.42,,,,,,,,,h.PNG,h,5fbd7394725db215bf27e0a5,2021-09-08_15h44.24.407,forced_choiceRT,2021.1.2,MacIntel,19.94813485,,,,,,,,6,Ontime,h,1,1.915,4,0,16,2,1,,,,,
,0.55,,,,,,,,,h.PNG,h,5fbd7394725db215bf27e0a5,2021-09-08_15h44.24.407,forced_choiceRT,2021.1.2,MacIntel,19.94813485,,,,,,,,6,Ontime,h,1,1.975,4,1,17,2,1,,,,,
,1.64,,,,,,,,,h.PNG,h,5fbd7394725db215bf27e0a5,2021-09-08_15h44.24.407,forced_choiceRT,2021.1.2,MacIntel,19.94813485,,,,,,,,6,Ontime,j,0,1.9832,4,2,18,2,1,,,,,
,1.78,,,,,,,,,h.PNG,h,5fbd7394725db215bf27e0a5,2021-09-08_15h44.24.407,forced_choiceRT,2021.1.2,MacIntel,19.94813485,,,,,,,,6,Ontime,f,0,1.9874,4,3,19,2,1,,,,,
,1.93,,,,,,,,,j.PNG,j,5fbd7394725db215bf27e0a5,2021-09-08_15h44.24.407,forced_choiceRT,2021.1.2,MacIntel,19.94813485,,,,,,,,6,Ontime,g,0,1.9777,5,0,20,3,1,,,,,
,1.57,,,,,,,,,f.PNG,f,5fbd7394725db215bf27e0a5,2021-09-08_15h44.24.407,forced_choiceRT,2021.1.2,MacIntel,19.94813485,,,,,,,,6,Ontime,g,0,1.9409,5,1,21,0,1,,,,,
,0.44,,,,,,,,,j.PNG,j,5fbd7394725db215bf27e0a5,2021-09-08_15h44.24.407,forced_choiceRT,2021.1.2,MacIntel,19.94813485,,,,,,,,6,Ontime,j,1,1.9663,5,2,22,3,1,,,,,
,0.54,,,,,,,,,f.PNG,f,5fbd7394725db215bf27e0a5,2021-09-08_15h44.24.407,forced_choiceRT,2021.1.2,MacIntel,19.94813485,,,,,,,,6,Ontime,f,1,1.9718,5,3,23,0,1,,,,,
,1.73,,,,,,,,,f.PNG,f,5fbd7394725db215bf27e0a5,2021-09-08_15h44.24.407,forced_choiceRT,2021.1.2,MacIntel,19.94813485,,,,,,,,6,Ontime,j,0,1.975,6,0,24,0,1,,,,,
,1.47,,,,,,,,,f.PNG,f,5fbd7394725db215bf27e0a5,2021-09-08_15h44.24.407,forced_choiceRT,2021.1.2,MacIntel,19.94813485,,,,,,,,6,Ontime,g,0,2.078,6,1,25,0,1,,,,,
,0.43,,,,,,,,,h.PNG,h,5fbd7394725db215bf27e0a5,2021-09-08_15h44.24.407,forced_choiceRT,2021.1.2,MacIntel,19.94813485,,,,,,,,6,Ontime,h,1,2.0056,6,2,26,2,1,,,,,
,0.46,,,,,,,,,j.PNG,j,5fbd7394725db215bf27e0a5,2021-09-08_15h44.24.407,forced_choiceRT,2021.1.2,MacIntel,19.94813485,,,,,,,,6,Ontime,j,1,1.9356,6,3,27,3,1,,,,,
,1.71,,,,,,,,,h.PNG,h,5fbd7394725db215bf27e0a5,2021-09-08_15h44.24.407,forced_choiceRT,2021.1.2,MacIntel,19.94813485,,,,,,,,6,Ontime,h,1,1.9619,7,0,28,2,1,,,,,
,0.9,,,,,,,,,g.PNG,g,5fbd7394725db215bf27e0a5,2021-09-08_15h44.24.407,forced_choiceRT,2021.1.2,MacIntel,19.94813485,,,,,,,,6,Ontime,g,1,2.0516,7,1,29,1,1,,,,,
,1.38,,,,,,,,,f.PNG,f,5fbd7394725db215bf27e0a5,2021-09-08_15h44.24.407,forced_choiceRT,2021.1.2,MacIntel,19.94813485,,,,,,,,6,Ontime,f,1,1.9694,7,2,30,0,1,,,,,
,1.84,,,,,,,,,h.PNG,h,5fbd7394725db215bf27e0a5,2021-09-08_15h44.24.407,forced_choiceRT,2021.1.2,MacIntel,19.94813485,,,,,,,,6,Ontime,j,0,1.9733,7,3,31,2,1,,,,,
,1.59,,,,,,,,,g.PNG,g,5fbd7394725db215bf27e0a5,2021-09-08_15h44.24.407,forced_choiceRT,2021.1.2,MacIntel,19.94813485,,,,,,,,6,Ontime,h,0,2.0309,8,0,32,1,1,,,,,
,1.53,,,,,,,,,f.PNG,f,5fbd7394725db215bf27e0a5,2021-09-08_15h44.24.407,forced_choiceRT,2021.1.2,MacIntel,19.94813485,,,,,,,,6,Ontime,g,0,2.003,8,1,33,0,1,,,,,
,1.95,,,,,,,,,h.PNG,h,5fbd7394725db215bf27e0a5,2021-09-08_15h44.24.407,forced_choiceRT,2021.1.2,MacIntel,19.94813485,,,,,,,,6,Ontime,f,0,1.99,8,2,34,2,1,,,,,
,1.34,,,,,,,,,j.PNG,j,5fbd7394725db215bf27e0a5,2021-09-08_15h44.24.407,forced_choiceRT,2021.1.2,MacIntel,19.94813485,,,,,,,,6,Ontime,h,0,2.0304,8,3,35,3,1,,,,,
,0.98,,,,,,,,,g.PNG,g,5fbd7394725db215bf27e0a5,2021-09-08_15h44.24.407,forced_choiceRT,2021.1.2,MacIntel,19.94813485,,,,,,,,6,Slow,g,1,2.1552,9,0,36,1,1,,,,,
,0.78,,,,,,,,,g.PNG,g,5fbd7394725db215bf27e0a5,2021-09-08_15h44.24.407,forced_choiceRT,2021.1.2,MacIntel,19.94813485,,,,,,,,6,Ontime,g,1,1.9373,9,1,37,1,1,,,,,
,1.7,,,,,,,,,j.PNG,j,5fbd7394725db215bf27e0a5,2021-09-08_15h44.24.407,forced_choiceRT,2021.1.2,MacIntel,19.94813485,,,,,,,,6,Ontime,h,0,1.9818,9,2,38,3,1,,,,,
,1.88,,,,,,,,,g.PNG,g,5fbd7394725db215bf27e0a5,2021-09-08_15h44.24.407,forced_choiceRT,2021.1.2,MacIntel,19.94813485,,,,,,,,6,Ontime,j,0,1.9811,9,3,39,1,1,,,,,
,,,,,,,,,,,,5fbd7394725db215bf27e0a5,2021-09-08_15h44.24.407,forced_choiceRT,2021.1.2,MacIntel,19.94813485,,,,,,,,,,,,,,,,,,5,0,5,0,1
,0.73,,,,,,,,,j.PNG,j,5fbd7394725db215bf27e0a5,2021-09-08_15h44.24.407,forced_choiceRT,2021.1.2,MacIntel,19.94813485,,,,,,,,7,Ontime,j,1,1.9797,0,0,0,3,1,,,,,
,0.99,,,,,,,,,g.PNG,g,5fbd7394725db215bf27e0a5,2021-09-08_15h44.24.407,forced_choiceRT,2021.1.2,MacIntel,19.94813485,,,,,,,,7,Ontime,g,1,1.9971,0,1,1,1,1,,,,,
,0.27,,,,,,,,,f.PNG,f,5fbd7394725db215bf27e0a5,2021-09-08_15h44.24.407,forced_choiceRT,2021.1.2,MacIntel,19.94813485,,,,,,,,7,Ontime,f,1,1.9303,0,2,2,0,1,,,,,
,1.42,,,,,,,,,f.PNG,f,5fbd7394725db215bf27e0a5,2021-09-08_15h44.24.407,forced_choiceRT,2021.1.2,MacIntel,19.94813485,,,,,,,,7,Ontime,j,0,1.9728,0,3,3,0,1,,,,,
,0.98,,,,,,,,,h.PNG,h,5fbd7394725db215bf27e0a5,2021-09-08_15h44.24.407,forced_choiceRT,2021.1.2,MacIntel,19.94813485,,,,,,,,7,Ontime,h,1,1.9783,1,0,4,2,1,,,,,
,1.88,,,,,,,,,h.PNG,h,5fbd7394725db215bf27e0a5,2021-09-08_15h44.24.407,forced_choiceRT,2021.1.2,MacIntel,19.94813485,,,,,,,,7,Ontime,h,1,1.999,1,1,5,2,1,,,,,
,1.36,,,,,,,,,h.PNG,h,5fbd7394725db215bf27e0a5,2021-09-08_15h44.24.407,forced_choiceRT,2021.1.2,MacIntel,19.94813485,,,,,,,,7,Ontime,j,0,1.9731,1,2,6,2,1,,,,,
,1.87,,,,,,,,,g.PNG,g,5fbd7394725db215bf27e0a5,2021-09-08_15h44.24.407,forced_choiceRT,2021.1.2,MacIntel,19.94813485,,,,,,,,7,Ontime,h,0,1.9152,1,3,7,1,1,,,,,
,1.25,,,,,,,,,g.PNG,g,5fbd7394725db215bf27e0a5,2021-09-08_15h44.24.407,forced_choiceRT,2021.1.2,MacIntel,19.94813485,,,,,,,,7,Ontime,g,1,1.9929,2,0,8,1,1,,,,,
,0.66,,,,,,,,,h.PNG,h,5fbd7394725db215bf27e0a5,2021-09-08_15h44.24.407,forced_choiceRT,2021.1.2,MacIntel,19.94813485,,,,,,,,7,Ontime,h,1,1.9507,2,1,9,2,1,,,,,
,0.06,,,,,,,,,g.PNG,g,5fbd7394725db215bf27e0a5,2021-09-08_15h44.24.407,forced_choiceRT,2021.1.2,MacIntel,19.94813485,,,,,,,,7,Ontime,g,1,1.9221,2,2,10,1,1,,,,,
,0.38,,,,,,,,,h.PNG,h,5fbd7394725db215bf27e0a5,2021-09-08_15h44.24.407,forced_choiceRT,2021.1.2,MacIntel,19.94813485,,,,,,,,7,Ontime,h,1,1.9705,2,3,11,2,1,,,,,
,0.35,,,,,,,,,g.PNG,g,5fbd7394725db215bf27e0a5,2021-09-08_15h44.24.407,forced_choiceRT,2021.1.2,MacIntel,19.94813485,,,,,,,,7,Ontime,g,1,1.9676,3,0,12,1,1,,,,,
,1.1,,,,,,,,,h.PNG,h,5fbd7394725db215bf27e0a5,2021-09-08_15h44.24.407,forced_choiceRT,2021.1.2,MacIntel,19.94813485,,,,,,,,7,Ontime,h,1,1.9444,3,1,13,2,1,,,,,
,0.55,,,,,,,,,f.PNG,f,5fbd7394725db215bf27e0a5,2021-09-08_15h44.24.407,forced_choiceRT,2021.1.2,MacIntel,19.94813485,,,,,,,,7,Ontime,f,1,1.9313,3,2,14,0,1,,,,,
,1.71,,,,,,,,,g.PNG,g,5fbd7394725db215bf27e0a5,2021-09-08_15h44.24.407,forced_choiceRT,2021.1.2,MacIntel,19.94813485,,,,,,,,7,Fast,j,0,1.8915,3,3,15,1,1,,,,,
,0.66,,,,,,,,,g.PNG,g,5fbd7394725db215bf27e0a5,2021-09-08_15h44.24.407,forced_choiceRT,2021.1.2,MacIntel,19.94813485,,,,,,,,7,Ontime,g,1,2.0235,4,0,16,1,1,,,,,
,0.71,,,,,,,,,h.PNG,h,5fbd7394725db215bf27e0a5,2021-09-08_15h44.24.407,forced_choiceRT,2021.1.2,MacIntel,19.94813485,,,,,,,,7,Ontime,h,1,1.9828,4,1,17,2,1,,,,,
,1.53,,,,,,,,,j.PNG,j,5fbd7394725db215bf27e0a5,2021-09-08_15h44.24.407,forced_choiceRT,2021.1.2,MacIntel,19.94813485,,,,,,,,7,Ontime,h,0,1.9299,4,2,18,3,1,,,,,
,0.8,,,,,,,,,h.PNG,h,5fbd7394725db215bf27e0a5,2021-09-08_15h44.24.407,forced_choiceRT,2021.1.2,MacIntel,19.94813485,,,,,,,,7,Ontime,h,1,2.0269,4,3,19,2,1,,,,,
,1.94,,,,,,,,,j.PNG,j,5fbd7394725db215bf27e0a5,2021-09-08_15h44.24.407,forced_choiceRT,2021.1.2,MacIntel,19.94813485,,,,,,,,7,Ontime,j,1,1.9414,5,0,20,3,1,,,,,
,0.85,,,,,,,,,g.PNG,g,5fbd7394725db215bf27e0a5,2021-09-08_15h44.24.407,forced_choiceRT,2021.1.2,MacIntel,19.94813485,,,,,,,,7,Ontime,g,1,1.9684,5,1,21,1,1,,,,,
,1.37,,,,,,,,,f.PNG,f,5fbd7394725db215bf27e0a5,2021-09-08_15h44.24.407,forced_choiceRT,2021.1.2,MacIntel,19.94813485,,,,,,,,7,Ontime,f,1,1.9393,5,2,22,0,1,,,,,
,0.07,,,,,,,,,f.PNG,f,5fbd7394725db215bf27e0a5,2021-09-08_15h44.24.407,forced_choiceRT,2021.1.2,MacIntel,19.94813485,,,,,,,,7,Ontime,f,1,1.9551,5,3,23,0,1,,,,,
,1.67,,,,,,,,,j.PNG,j,5fbd7394725db215bf27e0a5,2021-09-08_15h44.24.407,forced_choiceRT,2021.1.2,MacIntel,19.94813485,,,,,,,,7,Ontime,f,0,1.9699,6,0,24,3,1,,,,,
,1.29,,,,,,,,,j.PNG,j,5fbd7394725db215bf27e0a5,2021-09-08_15h44.24.407,forced_choiceRT,2021.1.2,MacIntel,19.94813485,,,,,,,,7,Ontime,j,1,2.0455,6,1,25,3,1,,,,,
,0.05,,,,,,,,,g.PNG,g,5fbd7394725db215bf27e0a5,2021-09-08_15h44.24.407,forced_choiceRT,2021.1.2,MacIntel,19.94813485,,,,,,,,7,Ontime,g,1,1.971,6,2,26,1,1,,,,,
,1.08,,,,,,,,,h.PNG,h,5fbd7394725db215bf27e0a5,2021-09-08_15h44.24.407,forced_choiceRT,2021.1.2,MacIntel,19.94813485,,,,,,,,7,Ontime,h,1,1.9666,6,3,27,2,1,,,,,
,1.95,,,,,,,,,h.PNG,h,5fbd7394725db215bf27e0a5,2021-09-08_15h44.24.407,forced_choiceRT,2021.1.2,MacIntel,19.94813485,,,,,,,,7,Ontime,j,0,1.9877,7,0,28,2,1,,,,,
,1.5,,,,,,,,,j.PNG,j,5fbd7394725db215bf27e0a5,2021-09-08_15h44.24.407,forced_choiceRT,2021.1.2,MacIntel,19.94813485,,,,,,,,7,Ontime,h,0,1.9595,7,1,29,3,1,,,,,
,1.26,,,,,,,,,j.PNG,j,5fbd7394725db215bf27e0a5,2021-09-08_15h44.24.407,forced_choiceRT,2021.1.2,MacIntel,19.94813485,,,,,,,,7,Ontime,j,1,1.9223,7,2,30,3,1,,,,,
,1.14,,,,,,,,,f.PNG,f,5fbd7394725db215bf27e0a5,2021-09-08_15h44.24.407,forced_choiceRT,2021.1.2,MacIntel,19.94813485,,,,,,,,7,Ontime,f,1,1.9622,7,3,31,0,1,,,,,
,0.65,,,,,,,,,f.PNG,f,5fbd7394725db215bf27e0a5,2021-09-08_15h44.24.407,forced_choiceRT,2021.1.2,MacIntel,19.94813485,,,,,,,,7,Ontime,f,1,1.9982,8,0,32,0,1,,,,,
,0.48,,,,,,,,,j.PNG,j,5fbd7394725db215bf27e0a5,2021-09-08_15h44.24.407,forced_choiceRT,2021.1.2,MacIntel,19.94813485,,,,,,,,7,Ontime,j,1,1.9034,8,1,33,3,1,,,,,
,0.64,,,,,,,,,f.PNG,f,5fbd7394725db215bf27e0a5,2021-09-08_15h44.24.407,forced_choiceRT,2021.1.2,MacIntel,19.94813485,,,,,,,,7,Ontime,f,1,1.9217,8,2,34,0,1,,,,,
,0.13,,,,,,,,,j.PNG,j,5fbd7394725db215bf27e0a5,2021-09-08_15h44.24.407,forced_choiceRT,2021.1.2,MacIntel,19.94813485,,,,,,,,7,Fast,j,1,1.8572,8,3,35,3,1,,,,,
,1.45,,,,,,,,,f.PNG,f,5fbd7394725db215bf27e0a5,2021-09-08_15h44.24.407,forced_choiceRT,2021.1.2,MacIntel,19.94813485,,,,,,,,7,Ontime,j,0,2.0869,9,0,36,0,1,,,,,
,0.17,,,,,,,,,g.PNG,g,5fbd7394725db215bf27e0a5,2021-09-08_15h44.24.407,forced_choiceRT,2021.1.2,MacIntel,19.94813485,,,,,,,,7,Ontime,g,1,1.946,9,1,37,1,1,,,,,
,1.73,,,,,,,,,f.PNG,f,5fbd7394725db215bf27e0a5,2021-09-08_15h44.24.407,forced_choiceRT,2021.1.2,MacIntel,19.94813485,,,,,,,,7,Ontime,h,0,1.9336,9,2,38,0,1,,,,,
,0.17,,,,,,,,,j.PNG,j,5fbd7394725db215bf27e0a5,2021-09-08_15h44.24.407,forced_choiceRT,2021.1.2,MacIntel,19.94813485,,,,,,,,7,Ontime,j,1,2.0575,9,3,39,3,1,,,,,
,,,,,,,,,,,,5fbd7394725db215bf27e0a5,2021-09-08_15h44.24.407,forced_choiceRT,2021.1.2,MacIntel,19.94813485,,,,,,,,,,,,,,,,,,6,0,6,0,1
,1.75,,,,,,,,,j.PNG,j,5fbd7394725db215bf27e0a5,2021-09-08_15h44.24.407,forced_choiceRT,2021.1.2,MacIntel,19.94813485,,,,,,,,8,Fast,h,0,1.8843,0,0,0,3,1,,,,,
,0.49,,,,,,,,,h.PNG,h,5fbd7394725db215bf27e0a5,2021-09-08_15h44.24.407,forced_choiceRT,2021.1.2,MacIntel,19.94813485,,,,,,,,8,Ontime,h,1,1.9015,0,1,1,2,1,,,,,
,0.34,,,,,,,,,f.PNG,f,5fbd7394725db215bf27e0a5,2021-09-08_15h44.24.407,forced_choiceRT,2021.1.2,MacIntel,19.94813485,,,,,,,,8,Ontime,f,1,1.934,0,2,2,0,1,,,,,
,0.81,,,,,,,,,f.PNG,f,5fbd7394725db215bf27e0a5,2021-09-08_15h44.24.407,forced_choiceRT,2021.1.2,MacIntel,19.94813485,,,,,,,,8,Ontime,f,1,1.9864,0,3,3,0,1,,,,,
,1.31,,,,,,,,,f.PNG,f,5fbd7394725db215bf27e0a5,2021-09-08_15h44.24.407,forced_choiceRT,2021.1.2,MacIntel,19.94813485,,,,,,,,8,Ontime,f,1,2.0356,1,0,4,0,1,,,,,
,1.09,,,,,,,,,f.PNG,f,5fbd7394725db215bf27e0a5,2021-09-08_15h44.24.407,forced_choiceRT,2021.1.2,MacIntel,19.94813485,,,,,,,,8,Ontime,f,1,2.0239,1,1,5,0,1,,,,,
,0.06,,,,,,,,,g.PNG,g,5fbd7394725db215bf27e0a5,2021-09-08_15h44.24.407,forced_choiceRT,2021.1.2,MacIntel,19.94813485,,,,,,,,8,Ontime,g,1,1.9823,1,2,6,1,1,,,,,
,1.9,,,,,,,,,f.PNG,f,5fbd7394725db215bf27e0a5,2021-09-08_15h44.24.407,forced_choiceRT,2021.1.2,MacIntel,19.94813485,,,,,,,,8,Ontime,j,0,1.9503,1,3,7,0,1,,,,,
,1.06,,,,,,,,,j.PNG,j,5fbd7394725db215bf27e0a5,2021-09-08_15h44.24.407,forced_choiceRT,2021.1.2,MacIntel,19.94813485,,,,,,,,8,Ontime,j,1,2.0974,2,0,8,3,1,,,,,
,1.06,,,,,,,,,h.PNG,h,5fbd7394725db215bf27e0a5,2021-09-08_15h44.24.407,forced_choiceRT,2021.1.2,MacIntel,19.94813485,,,,,,,,8,Ontime,h,1,1.9144,2,1,9,2,1,,,,,
,1.18,,,,,,,,,f.PNG,f,5fbd7394725db215bf27e0a5,2021-09-08_15h44.24.407,forced_choiceRT,2021.1.2,MacIntel,19.94813485,,,,,,,,8,Ontime,f,1,1.9294,2,2,10,0,1,,,,,
,0.68,,,,,,,,,j.PNG,j,5fbd7394725db215bf27e0a5,2021-09-08_15h44.24.407,forced_choiceRT,2021.1.2,MacIntel,19.94813485,,,,,,,,8,Ontime,j,1,2.0018,2,3,11,3,1,,,,,
,0.99,,,,,,,,,h.PNG,h,5fbd7394725db215bf27e0a5,2021-09-08_15h44.24.407,forced_choiceRT,2021.1.2,MacIntel,19.94813485,,,,,,,,8,Ontime,h,1,1.9771,3,0,12,2,1,,,,,
,0.87,,,,,,,,,g.PNG,g,5fbd7394725db215bf27e0a5,2021-09-08_15h44.24.407,forced_choiceRT,2021.1.2,MacIntel,19.94813485,,,,,,,,8,Ontime,g,1,1.9218,3,1,13,1,1,,,,,
,1.87,,,,,,,,,g.PNG,g,5fbd7394725db215bf27e0a5,2021-09-08_15h44.24.407,forced_choiceRT,2021.1.2,MacIntel,19.94813485,,,,,,,,8,Ontime,h,0,1.9466,3,2,14,1,1,,,,,
,0.76,,,,,,,,,g.PNG,g,5fbd7394725db215bf27e0a5,2021-09-08_15h44.24.407,forced_choiceRT,2021.1.2,MacIntel,19.94813485,,,,,,,,8,Ontime,g,1,1.9267,3,3,15,1,1,,,,,
,0.93,,,,,,,,,h.PNG,h,5fbd7394725db215bf27e0a5,2021-09-08_15h44.24.407,forced_choiceRT,2021.1.2,MacIntel,19.94813485,,,,,,,,8,Fast,h,1,1.899,4,0,16,2,1,,,,,
,1.98,,,,,,,,,h.PNG,h,5fbd7394725db215bf27e0a5,2021-09-08_15h44.24.407,forced_choiceRT,2021.1.2,MacIntel,19.94813485,,,,,,,,8,Ontime,j,0,1.9449,4,1,17,2,1,,,,,
,1.42,,,,,,,,,g.PNG,g,5fbd7394725db215bf27e0a5,2021-09-08_15h44.24.407,forced_choiceRT,2021.1.2,MacIntel,19.94813485,,,,,,,,8,Ontime,h,0,1.9445,4,2,18,1,1,,,,,
,1.6,,,,,,,,,g.PNG,g,5fbd7394725db215bf27e0a5,2021-09-08_15h44.24.407,forced_choiceRT,2021.1.2,MacIntel,19.94813485,,,,,,,,8,Ontime,g,1,1.9448,4,3,19,1,1,,,,,
,0.53,,,,,,,,,j.PNG,j,5fbd7394725db215bf27e0a5,2021-09-08_15h44.24.407,forced_choiceRT,2021.1.2,MacIntel,19.94813485,,,,,,,,8,Fast,j,1,1.8644,5,0,20,3,1,,,,,
,1.54,,,,,,,,,h.PNG,h,5fbd7394725db215bf27e0a5,2021-09-08_15h44.24.407,forced_choiceRT,2021.1.2,MacIntel,19.94813485,,,,,,,,8,Ontime,h,1,1.986,5,1,21,2,1,,,,,
,1.42,,,,,,,,,j.PNG,j,5fbd7394725db215bf27e0a5,2021-09-08_15h44.24.407,forced_choiceRT,2021.1.2,MacIntel,19.94813485,,,,,,,,8,Ontime,f,0,1.9424,5,2,22,3,1,,,,,
,0.91,,,,,,,,,j.PNG,j,5fbd7394725db215bf27e0a5,2021-09-08_15h44.24.407,forced_choiceRT,2021.1.2,MacIntel,19.94813485,,,,,,,,8,Ontime,j,1,1.9204,5,3,23,3,1,,,,,
,0.39,,,,,,,,,j.PNG,j,5fbd7394725db215bf27e0a5,2021-09-08_15h44.24.407,forced_choiceRT,2021.1.2,MacIntel,19.94813485,,,,,,,,8,Ontime,j,1,1.9531,6,0,24,3,1,,,,,
,1.53,,,,,,,,,f.PNG,f,5fbd7394725db215bf27e0a5,2021-09-08_15h44.24.407,forced_choiceRT,2021.1.2,MacIntel,19.94813485,,,,,,,,8,Ontime,j,0,1.9341,6,1,25,0,1,,,,,
,1.95,,,,,,,,,j.PNG,j,5fbd7394725db215bf27e0a5,2021-09-08_15h44.24.407,forced_choiceRT,2021.1.2,MacIntel,19.94813485,,,,,,,,8,Ontime,f,0,1.9958,6,2,26,3,1,,,,,
,1.19,,,,,,,,,g.PNG,g,5fbd7394725db215bf27e0a5,2021-09-08_15h44.24.407,forced_choiceRT,2021.1.2,MacIntel,19.94813485,,,,,,,,8,Ontime,g,1,1.9839,6,3,27,1,1,,,,,
,1.66,,,,,,,,,g.PNG,g,5fbd7394725db215bf27e0a5,2021-09-08_15h44.24.407,forced_choiceRT,2021.1.2,MacIntel,19.94813485,,,,,,,,8,Ontime,h,0,2.0308,7,0,28,1,1,,,,,
,0.57,,,,,,,,,g.PNG,g,5fbd7394725db215bf27e0a5,2021-09-08_15h44.24.407,forced_choiceRT,2021.1.2,MacIntel,19.94813485,,,,,,,,8,Ontime,g,1,2.013,7,1,29,1,1,,,,,
,0.86,,,,,,,,,h.PNG,h,5fbd7394725db215bf27e0a5,2021-09-08_15h44.24.407,forced_choiceRT,2021.1.2,MacIntel,19.94813485,,,,,,,,8,Ontime,h,1,2.0092,7,2,30,2,1,,,,,
,0.65,,,,,,,,,h.PNG,h,5fbd7394725db215bf27e0a5,2021-09-08_15h44.24.407,forced_choiceRT,2021.1.2,MacIntel,19.94813485,,,,,,,,8,Ontime,h,1,1.9387,7,3,31,2,1,,,,,
,1.11,,,,,,,,,f.PNG,f,5fbd7394725db215bf27e0a5,2021-09-08_15h44.24.407,forced_choiceRT,2021.1.2,MacIntel,19.94813485,,,,,,,,8,Ontime,f,1,1.9314,8,0,32,0,1,,,,,
,0.4,,,,,,,,,f.PNG,f,5fbd7394725db215bf27e0a5,2021-09-08_15h44.24.407,forced_choiceRT,2021.1.2,MacIntel,19.94813485,,,,,,,,8,Ontime,f,1,1.9285,8,1,33,0,1,,,,,
,0.5,,,,,,,,,j.PNG,j,5fbd7394725db215bf27e0a5,2021-09-08_15h44.24.407,forced_choiceRT,2021.1.2,MacIntel,19.94813485,,,,,,,,8,Ontime,j,1,1.9192,8,2,34,3,1,,,,,
,0.31,,,,,,,,,j.PNG,j,5fbd7394725db215bf27e0a5,2021-09-08_15h44.24.407,forced_choiceRT,2021.1.2,MacIntel,19.94813485,,,,,,,,8,Fast,j,1,1.8819,8,3,35,3,1,,,,,
,0.29,,,,,,,,,g.PNG,g,5fbd7394725db215bf27e0a5,2021-09-08_15h44.24.407,forced_choiceRT,2021.1.2,MacIntel,19.94813485,,,,,,,,8,Ontime,g,1,1.9419,9,0,36,1,1,,,,,
,0.73,,,,,,,,,h.PNG,h,5fbd7394725db215bf27e0a5,2021-09-08_15h44.24.407,forced_choiceRT,2021.1.2,MacIntel,19.94813485,,,,,,,,8,Ontime,h,1,1.9228,9,1,37,2,1,,,,,
,1.7,,,,,,,,,f.PNG,f,5fbd7394725db215bf27e0a5,2021-09-08_15h44.24.407,forced_choiceRT,2021.1.2,MacIntel,19.94813485,,,,,,,,8,Ontime,j,0,1.9333,9,2,38,0,1,,,,,
,1.27,,,,,,,,,h.PNG,h,5fbd7394725db215bf27e0a5,2021-09-08_15h44.24.407,forced_choiceRT,2021.1.2,MacIntel,19.94813485,,,,,,,,8,Ontime,h,1,2.0653,9,3,39,2,1,,,,,
,,,,,,,,,,,,5fbd7394725db215bf27e0a5,2021-09-08_15h44.24.407,forced_choiceRT,2021.1.2,MacIntel,19.94813485,,,,,,,,,,,,,,,,,,7,0,7,0,1
,0.35,,,,,,,,,f.PNG,f,5fbd7394725db215bf27e0a5,2021-09-08_15h44.24.407,forced_choiceRT,2021.1.2,MacIntel,19.94813485,,,,,,,,9,Ontime,f,1,1.9055,0,0,0,0,1,,,,,
,0.48,,,,,,,,,g.PNG,g,5fbd7394725db215bf27e0a5,2021-09-08_15h44.24.407,forced_choiceRT,2021.1.2,MacIntel,19.94813485,,,,,,,,9,Ontime,g,1,1.9278,0,1,1,1,1,,,,,
,1.83,,,,,,,,,j.PNG,j,5fbd7394725db215bf27e0a5,2021-09-08_15h44.24.407,forced_choiceRT,2021.1.2,MacIntel,19.94813485,,,,,,,,9,Ontime,j,1,2.0112,0,2,2,3,1,,,,,
,1.87,,,,,,,,,f.PNG,f,5fbd7394725db215bf27e0a5,2021-09-08_15h44.24.407,forced_choiceRT,2021.1.2,MacIntel,19.94813485,,,,,,,,9,Ontime,f,1,1.9343,0,3,3,0,1,,,,,
,0.04,,,,,,,,,g.PNG,g,5fbd7394725db215bf27e0a5,2021-09-08_15h44.24.407,forced_choiceRT,2021.1.2,MacIntel,19.94813485,,,,,,,,9,Ontime,g,1,1.9814,1,0,4,1,1,,,,,
,0.09,,,,,,,,,f.PNG,f,5fbd7394725db215bf27e0a5,2021-09-08_15h44.24.407,forced_choiceRT,2021.1.2,MacIntel,19.94813485,,,,,,,,9,Ontime,f,1,2.0078,1,1,5,0,1,,,,,
,1.47,,,,,,,,,j.PNG,j,5fbd7394725db215bf27e0a5,2021-09-08_15h44.24.407,forced_choiceRT,2021.1.2,MacIntel,19.94813485,,,,,,,,9,Ontime,h,0,1.9729,1,2,6,3,1,,,,,
,0.56,,,,,,,,,g.PNG,g,5fbd7394725db215bf27e0a5,2021-09-08_15h44.24.407,forced_choiceRT,2021.1.2,MacIntel,19.94813485,,,,,,,,9,Ontime,g,1,1.9516,1,3,7,1,1,,,,,
,1.06,,,,,,,,,g.PNG,g,5fbd7394725db215bf27e0a5,2021-09-08_15h44.24.407,forced_choiceRT,2021.1.2,MacIntel,19.94813485,,,,,,,,9,Ontime,g,1,1.9787,2,0,8,1,1,,,,,
,0.01,,,,,,,,,f.PNG,f,5fbd7394725db215bf27e0a5,2021-09-08_15h44.24.407,forced_choiceRT,2021.1.2,MacIntel,19.94813485,,,,,,,,9,Ontime,f,1,2.0069,2,1,9,0,1,,,,,
,0.48,,,,,,,,,j.PNG,j,5fbd7394725db215bf27e0a5,2021-09-08_15h44.24.407,forced_choiceRT,2021.1.2,MacIntel,19.94813485,,,,,,,,9,Ontime,j,1,1.9799,2,2,10,3,1,,,,,
,1.99,,,,,,,,,f.PNG,f,5fbd7394725db215bf27e0a5,2021-09-08_15h44.24.407,forced_choiceRT,2021.1.2,MacIntel,19.94813485,,,,,,,,9,Ontime,j,0,1.9935,2,3,11,0,1,,,,,
,0.64,,,,,,,,,j.PNG,j,5fbd7394725db215bf27e0a5,2021-09-08_15h44.24.407,forced_choiceRT,2021.1.2,MacIntel,19.94813485,,,,,,,,9,Ontime,j,1,2.0488,3,0,12,3,1,,,,,
,0.1,,,,,,,,,h.PNG,h,5fbd7394725db215bf27e0a5,2021-09-08_15h44.24.407,forced_choiceRT,2021.1.2,MacIntel,19.94813485,,,,,,,,9,Ontime,h,1,1.9763,3,1,13,2,1,,,,,
,1.57,,,,,,,,,j.PNG,j,5fbd7394725db215bf27e0a5,2021-09-08_15h44.24.407,forced_choiceRT,2021.1.2,MacIntel,19.94813485,,,,,,,,9,Ontime,h,0,1.9626,3,2,14,3,1,,,,,
,1.63,,,,,,,,,h.PNG,h,5fbd7394725db215bf27e0a5,2021-09-08_15h44.24.407,forced_choiceRT,2021.1.2,MacIntel,19.94813485,,,,,,,,9,Ontime,g,0,2.0031,3,3,15,2,1,,,,,
,1.59,,,,,,,,,g.PNG,g,5fbd7394725db215bf27e0a5,2021-09-08_15h44.24.407,forced_choiceRT,2021.1.2,MacIntel,19.94813485,,,,,,,,9,Ontime,g,1,1.9921,4,0,16,1,1,,,,,
,0.11,,,,,,,,,f.PNG,f,5fbd7394725db215bf27e0a5,2021-09-08_15h44.24.407,forced_choiceRT,2021.1.2,MacIntel,19.94813485,,,,,,,,9,Ontime,f,1,1.9952,4,1,17,0,1,,,,,
,1.24,,,,,,,,,j.PNG,j,5fbd7394725db215bf27e0a5,2021-09-08_15h44.24.407,forced_choiceRT,2021.1.2,MacIntel,19.94813485,,,,,,,,9,Ontime,j,1,1.9649,4,2,18,3,1,,,,,
,1.46,,,,,,,,,h.PNG,h,5fbd7394725db215bf27e0a5,2021-09-08_15h44.24.407,forced_choiceRT,2021.1.2,MacIntel,19.94813485,,,,,,,,9,Ontime,j,0,1.9712,4,3,19,2,1,,,,,
,0.37,,,,,,,,,h.PNG,h,5fbd7394725db215bf27e0a5,2021-09-08_15h44.24.407,forced_choiceRT,2021.1.2,MacIntel,19.94813485,,,,,,,,9,Ontime,h,1,1.9744,5,0,20,2,1,,,,,
,1.36,,,,,,,,,h.PNG,h,5fbd7394725db215bf27e0a5,2021-09-08_15h44.24.407,forced_choiceRT,2021.1.2,MacIntel,19.94813485,,,,,,,,9,Ontime,j,0,2.0467,5,1,21,2,1,,,,,
,0.35,,,,,,,,,h.PNG,h,5fbd7394725db215bf27e0a5,2021-09-08_15h44.24.407,forced_choiceRT,2021.1.2,MacIntel,19.94813485,,,,,,,,9,Ontime,h,1,1.9955,5,2,22,2,1,,,,,
,1.39,,,,,,,,,j.PNG,j,5fbd7394725db215bf27e0a5,2021-09-08_15h44.24.407,forced_choiceRT,2021.1.2,MacIntel,19.94813485,,,,,,,,9,Ontime,h,0,1.9939,5,3,23,3,1,,,,,
,0.11,,,,,,,,,j.PNG,j,5fbd7394725db215bf27e0a5,2021-09-08_15h44.24.407,forced_choiceRT,2021.1.2,MacIntel,19.94813485,,,,,,,,9,Ontime,j,1,2.0065,6,0,24,3,1,,,,,
,1.73,,,,,,,,,h.PNG,h,5fbd7394725db215bf27e0a5,2021-09-08_15h44.24.407,forced_choiceRT,2021.1.2,MacIntel,19.94813485,,,,,,,,9,Ontime,f,0,1.9903,6,1,25,2,1,,,,,
,0.28,,,,,,,,,g.PNG,g,5fbd7394725db215bf27e0a5,2021-09-08_15h44.24.407,forced_choiceRT,2021.1.2,MacIntel,19.94813485,,,,,,,,9,Ontime,g,1,2.0083,6,2,26,1,1,,,,,
,0.71,,,,,,,,,f.PNG,f,5fbd7394725db215bf27e0a5,2021-09-08_15h44.24.407,forced_choiceRT,2021.1.2,MacIntel,19.94813485,,,,,,,,9,Ontime,f,1,2.059,6,3,27,0,1,,,,,
,0.57,,,,,,,,,j.PNG,j,5fbd7394725db215bf27e0a5,2021-09-08_15h44.24.407,forced_choiceRT,2021.1.2,MacIntel,19.94813485,,,,,,,,9,Ontime,j,1,1.935,7,0,28,3,1,,,,,
,1.85,,,,,,,,,g.PNG,g,5fbd7394725db215bf27e0a5,2021-09-08_15h44.24.407,forced_choiceRT,2021.1.2,MacIntel,19.94813485,,,,,,,,9,Ontime,h,0,2.0442,7,1,29,1,1,,,,,
,1,,,,,,,,,g.PNG,g,5fbd7394725db215bf27e0a5,2021-09-08_15h44.24.407,forced_choiceRT,2021.1.2,MacIntel,19.94813485,,,,,,,,9,Ontime,g,1,2.0554,7,2,30,1,1,,,,,
,0.03,,,,,,,,,h.PNG,h,5fbd7394725db215bf27e0a5,2021-09-08_15h44.24.407,forced_choiceRT,2021.1.2,MacIntel,19.94813485,,,,,,,,9,Ontime,h,1,2.0092,7,3,31,2,1,,,,,
,1.99,,,,,,,,,f.PNG,f,5fbd7394725db215bf27e0a5,2021-09-08_15h44.24.407,forced_choiceRT,2021.1.2,MacIntel,19.94813485,,,,,,,,9,Ontime,j,0,2.0787,8,0,32,0,1,,,,,
,0.44,,,,,,,,,f.PNG,f,5fbd7394725db215bf27e0a5,2021-09-08_15h44.24.407,forced_choiceRT,2021.1.2,MacIntel,19.94813485,,,,,,,,9,Ontime,f,1,1.9867,8,1,33,0,1,,,,,
,1.25,,,,,,,,,h.PNG,h,5fbd7394725db215bf27e0a5,2021-09-08_15h44.24.407,forced_choiceRT,2021.1.2,MacIntel,19.94813485,,,,,,,,9,Slow,h,1,2.2238,8,2,34,2,1,,,,,
,1.12,,,,,,,,,h.PNG,h,5fbd7394725db215bf27e0a5,2021-09-08_15h44.24.407,forced_choiceRT,2021.1.2,MacIntel,19.94813485,,,,,,,,9,Ontime,h,1,1.9784,8,3,35,2,1,,,,,
,1.9,,,,,,,,,j.PNG,j,5fbd7394725db215bf27e0a5,2021-09-08_15h44.24.407,forced_choiceRT,2021.1.2,MacIntel,19.94813485,,,,,,,,9,Ontime,j,1,2.0355,9,0,36,3,1,,,,,
,1.71,,,,,,,,,f.PNG,f,5fbd7394725db215bf27e0a5,2021-09-08_15h44.24.407,forced_choiceRT,2021.1.2,MacIntel,19.94813485,,,,,,,,9,Slow,g,0,2.1173,9,1,37,0,1,,,,,
,1.38,,,,,,,,,g.PNG,g,5fbd7394725db215bf27e0a5,2021-09-08_15h44.24.407,forced_choiceRT,2021.1.2,MacIntel,19.94813485,,,,,,,,9,Ontime,f,0,2.033,9,2,38,1,1,,,,,
,0.67,,,,,,,,,g.PNG,g,5fbd7394725db215bf27e0a5,2021-09-08_15h44.24.407,forced_choiceRT,2021.1.2,MacIntel,19.94813485,,,,,,,,9,Ontime,g,1,2.0515,9,3,39,1,1,,,,,
,,,,,,,,,,,,5fbd7394725db215bf27e0a5,2021-09-08_15h44.24.407,forced_choiceRT,2021.1.2,MacIntel,19.94813485,,,,,,,,,,,,,,,,,,8,0,8,0,1
,0.48,,,,,,,,,j.PNG,j,5fbd7394725db215bf27e0a5,2021-09-08_15h44.24.407,forced_choiceRT,2021.1.2,MacIntel,19.94813485,,,,,,,,10,Ontime,j,1,1.9391,0,0,0,3,1,,,,,
,1.77,,,,,,,,,h.PNG,h,5fbd7394725db215bf27e0a5,2021-09-08_15h44.24.407,forced_choiceRT,2021.1.2,MacIntel,19.94813485,,,,,,,,10,Ontime,j,0,1.9715,0,1,1,2,1,,,,,
,1.86,,,,,,,,,h.PNG,h,5fbd7394725db215bf27e0a5,2021-09-08_15h44.24.407,forced_choiceRT,2021.1.2,MacIntel,19.94813485,,,,,,,,10,Ontime,f,0,1.9814,0,2,2,2,1,,,,,
,0.03,,,,,,,,,h.PNG,h,5fbd7394725db215bf27e0a5,2021-09-08_15h44.24.407,forced_choiceRT,2021.1.2,MacIntel,19.94813485,,,,,,,,10,Ontime,h,1,1.9382,0,3,3,2,1,,,,,
,0.98,,,,,,,,,j.PNG,j,5fbd7394725db215bf27e0a5,2021-09-08_15h44.24.407,forced_choiceRT,2021.1.2,MacIntel,19.94813485,,,,,,,,10,Ontime,j,1,1.9919,1,0,4,3,1,,,,,
,1.39,,,,,,,,,g.PNG,g,5fbd7394725db215bf27e0a5,2021-09-08_15h44.24.407,forced_choiceRT,2021.1.2,MacIntel,19.94813485,,,,,,,,10,Ontime,g,1,1.9729,1,1,5,1,1,,,,,
,1.18,,,,,,,,,h.PNG,h,5fbd7394725db215bf27e0a5,2021-09-08_15h44.24.407,forced_choiceRT,2021.1.2,MacIntel,19.94813485,,,,,,,,10,Ontime,h,1,1.9888,1,2,6,2,1,,,,,
,0.58,,,,,,,,,g.PNG,g,5fbd7394725db215bf27e0a5,2021-09-08_15h44.24.407,forced_choiceRT,2021.1.2,MacIntel,19.94813485,,,,,,,,10,Ontime,g,1,2.0508,1,3,7,1,1,,,,,
,0.36,,,,,,,,,g.PNG,g,5fbd7394725db215bf27e0a5,2021-09-08_15h44.24.407,forced_choiceRT,2021.1.2,MacIntel,19.94813485,,,,,,,,10,Ontime,g,1,1.954,2,0,8,1,1,,,,,
,0.95,,,,,,,,,h.PNG,h,5fbd7394725db215bf27e0a5,2021-09-08_15h44.24.407,forced_choiceRT,2021.1.2,MacIntel,19.94813485,,,,,,,,10,Ontime,h,1,1.982,2,1,9,2,1,,,,,
,0.74,,,,,,,,,g.PNG,g,5fbd7394725db215bf27e0a5,2021-09-08_15h44.24.407,forced_choiceRT,2021.1.2,MacIntel,19.94813485,,,,,,,,10,Ontime,g,1,2.0009,2,2,10,1,1,,,,,
,0.33,,,,,,,,,h.PNG,h,5fbd7394725db215bf27e0a5,2021-09-08_15h44.24.407,forced_choiceRT,2021.1.2,MacIntel,19.94813485,,,,,,,,10,Ontime,h,1,1.9282,2,3,11,2,1,,,,,
,0.34,,,,,,,,,g.PNG,g,5fbd7394725db215bf27e0a5,2021-09-08_15h44.24.407,forced_choiceRT,2021.1.2,MacIntel,19.94813485,,,,,,,,10,Ontime,g,1,1.9616,3,0,12,1,1,,,,,
,0.02,,,,,,,,,g.PNG,g,5fbd7394725db215bf27e0a5,2021-09-08_15h44.24.407,forced_choiceRT,2021.1.2,MacIntel,19.94813485,,,,,,,,10,Ontime,g,1,2.0023,3,1,13,1,1,,,,,
,1.86,,,,,,,,,j.PNG,j,5fbd7394725db215bf27e0a5,2021-09-08_15h44.24.407,forced_choiceRT,2021.1.2,MacIntel,19.94813485,,,,,,,,10,Ontime,j,1,2.0026,3,2,14,3,1,,,,,
,0.59,,,,,,,,,f.PNG,f,5fbd7394725db215bf27e0a5,2021-09-08_15h44.24.407,forced_choiceRT,2021.1.2,MacIntel,19.94813485,,,,,,,,10,Ontime,f,1,1.9564,3,3,15,0,1,,,,,
,0.32,,,,,,,,,g.PNG,g,5fbd7394725db215bf27e0a5,2021-09-08_15h44.24.407,forced_choiceRT,2021.1.2,MacIntel,19.94813485,,,,,,,,10,Ontime,g,1,1.9279,4,0,16,1,1,,,,,
,0.66,,,,,,,,,h.PNG,h,5fbd7394725db215bf27e0a5,2021-09-08_15h44.24.407,forced_choiceRT,2021.1.2,MacIntel,19.94813485,,,,,,,,10,Ontime,h,1,2.0304,4,1,17,2,1,,,,,
,0.13,,,,,,,,,f.PNG,f,5fbd7394725db215bf27e0a5,2021-09-08_15h44.24.407,forced_choiceRT,2021.1.2,MacIntel,19.94813485,,,,,,,,10,Ontime,f,1,1.9597,4,2,18,0,1,,,,,
,1.86,,,,,,,,,j.PNG,j,5fbd7394725db215bf27e0a5,2021-09-08_15h44.24.407,forced_choiceRT,2021.1.2,MacIntel,19.94813485,,,,,,,,10,Ontime,h,0,1.9263,4,3,19,3,1,,,,,
,0.52,,,,,,,,,g.PNG,g,5fbd7394725db215bf27e0a5,2021-09-08_15h44.24.407,forced_choiceRT,2021.1.2,MacIntel,19.94813485,,,,,,,,10,Ontime,g,1,1.9247,5,0,20,1,1,,,,,
,1.06,,,,,,,,,f.PNG,f,5fbd7394725db215bf27e0a5,2021-09-08_15h44.24.407,forced_choiceRT,2021.1.2,MacIntel,19.94813485,,,,,,,,10,Ontime,f,1,2.0537,5,1,21,0,1,,,,,
,0.89,,,,,,,,,f.PNG,f,5fbd7394725db215bf27e0a5,2021-09-08_15h44.24.407,forced_choiceRT,2021.1.2,MacIntel,19.94813485,,,,,,,,10,Ontime,f,1,1.9422,5,2,22,0,1,,,,,
,0.51,,,,,,,,,f.PNG,f,5fbd7394725db215bf27e0a5,2021-09-08_15h44.24.407,forced_choiceRT,2021.1.2,MacIntel,19.94813485,,,,,,,,10,Ontime,f,1,1.9099,5,3,23,0,1,,,,,
,1.21,,,,,,,,,h.PNG,h,5fbd7394725db215bf27e0a5,2021-09-08_15h44.24.407,forced_choiceRT,2021.1.2,MacIntel,19.94813485,,,,,,,,10,Ontime,f,0,1.9952,6,0,24,2,1,,,,,
,0.01,,,,,,,,,j.PNG,j,5fbd7394725db215bf27e0a5,2021-09-08_15h44.24.407,forced_choiceRT,2021.1.2,MacIntel,19.94813485,,,,,,,,10,Ontime,j,1,1.9083,6,1,25,3,1,,,,,
,1.89,,,,,,,,,f.PNG,f,5fbd7394725db215bf27e0a5,2021-09-08_15h44.24.407,forced_choiceRT,2021.1.2,MacIntel,19.94813485,,,,,,,,10,Ontime,j,0,1.9841,6,2,26,0,1,,,,,
,1.98,,,,,,,,,g.PNG,g,5fbd7394725db215bf27e0a5,2021-09-08_15h44.24.407,forced_choiceRT,2021.1.2,MacIntel,19.94813485,,,,,,,,10,Ontime,h,0,1.9246,6,3,27,1,1,,,,,
,0.89,,,,,,,,,h.PNG,h,5fbd7394725db215bf27e0a5,2021-09-08_15h44.24.407,forced_choiceRT,2021.1.2,MacIntel,19.94813485,,,,,,,,10,Ontime,h,1,2.0078,7,0,28,2,1,,,,,
,1.2,,,,,,,,,f.PNG,f,5fbd7394725db215bf27e0a5,2021-09-08_15h44.24.407,forced_choiceRT,2021.1.2,MacIntel,19.94813485,,,,,,,,10,Ontime,f,1,2.0414,7,1,29,0,1,,,,,
,1.24,,,,,,,,,j.PNG,j,5fbd7394725db215bf27e0a5,2021-09-08_15h44.24.407,forced_choiceRT,2021.1.2,MacIntel,19.94813485,,,,,,,,10,Ontime,g,0,2.0518,7,2,30,3,1,,,,,
,0.55,,,,,,,,,j.PNG,j,5fbd7394725db215bf27e0a5,2021-09-08_15h44.24.407,forced_choiceRT,2021.1.2,MacIntel,19.94813485,,,,,,,,10,Ontime,j,1,1.963,7,3,31,3,1,,,,,
,0.85,,,,,,,,,f.PNG,f,5fbd7394725db215bf27e0a5,2021-09-08_15h44.24.407,forced_choiceRT,2021.1.2,MacIntel,19.94813485,,,,,,,,10,Ontime,f,1,2.0538,8,0,32,0,1,,,,,
,1.04,,,,,,,,,j.PNG,j,5fbd7394725db215bf27e0a5,2021-09-08_15h44.24.407,forced_choiceRT,2021.1.2,MacIntel,19.94813485,,,,,,,,10,Ontime,j,1,2.009,8,1,33,3,1,,,,,
,1.6,,,,,,,,,g.PNG,g,5fbd7394725db215bf27e0a5,2021-09-08_15h44.24.407,forced_choiceRT,2021.1.2,MacIntel,19.94813485,,,,,,,,10,Ontime,h,0,1.9645,8,2,34,1,1,,,,,
,1.44,,,,,,,,,h.PNG,h,5fbd7394725db215bf27e0a5,2021-09-08_15h44.24.407,forced_choiceRT,2021.1.2,MacIntel,19.94813485,,,,,,,,10,Ontime,g,0,2.042,8,3,35,2,1,,,,,
,0.34,,,,,,,,,j.PNG,j,5fbd7394725db215bf27e0a5,2021-09-08_15h44.24.407,forced_choiceRT,2021.1.2,MacIntel,19.94813485,,,,,,,,10,Ontime,j,1,1.9765,9,0,36,3,1,,,,,
,0.92,,,,,,,,,f.PNG,f,5fbd7394725db215bf27e0a5,2021-09-08_15h44.24.407,forced_choiceRT,2021.1.2,MacIntel,19.94813485,,,,,,,,10,Ontime,f,1,1.9952,9,1,37,0,1,,,,,
,1.82,,,,,,,,,j.PNG,j,5fbd7394725db215bf27e0a5,2021-09-08_15h44.24.407,forced_choiceRT,2021.1.2,MacIntel,19.94813485,,,,,,,,10,Ontime,g,0,2.0167,9,2,38,3,1,,,,,
,1.91,,,,,,,,,f.PNG,f,5fbd7394725db215bf27e0a5,2021-09-08_15h44.24.407,forced_choiceRT,2021.1.2,MacIntel,19.94813485,,,,,,,,10,Ontime,j,0,2.0366,9,3,39,0,1,,,,,
,,,,,,,,,,,,5fbd7394725db215bf27e0a5,2021-09-08_15h44.24.407,forced_choiceRT,2021.1.2,MacIntel,19.94813485,,,,,,,,,,,,,,,,,,9,0,9,0,1
