IP_Addresss,target_onset,trial_resp_sp.keys,trial_resp_sp.corr,trial_resp_sp.rt,trials_train_loop.thisRepN,trials_train_loop.thisTrialN,trials_train_loop.thisN,trials_train_loop.thisIndex,trials_train_loop.ran,pic,correct_key,participant,date,expName,psychopyVersion,OS,frameRate,trial_resp_timing.keys,trial_resp_timing.rt,trials_train_timing.thisRepN,trials_train_timing.thisTrialN,trials_train_timing.thisN,trials_train_timing.thisIndex,trials_train_timing.ran,block_id,ontime,forcedRT_resp.keys,forcedRT_resp.corr,forcedRT_resp.rt,trials.thisRepN,trials.thisTrialN,trials.thisN,trials.thisIndex,trials.ran,blocks.thisRepN,blocks.thisTrialN,blocks.thisN,blocks.thisIndex,blocks.ran
172.218.202.44,0,h,1,4.2413,0,0,0,2,1,h.PNG,h,60b05d5bc60741f30dd410a0,2021-09-08_17h53.53.079,forced_choiceRT,2021.1.2,Win32,57.34931468,,,,,,,,,,,,,,,,,,,,,,
,0,h,1,6.1661,0,1,1,2,1,h.PNG,h,60b05d5bc60741f30dd410a0,2021-09-08_17h53.53.079,forced_choiceRT,2021.1.2,Win32,57.34931468,,,,,,,,,,,,,,,,,,,,,,
,0,g,1,1.6582,0,2,2,1,1,g.PNG,g,60b05d5bc60741f30dd410a0,2021-09-08_17h53.53.079,forced_choiceRT,2021.1.2,Win32,57.34931468,,,,,,,,,,,,,,,,,,,,,,
,0,g,1,1.3805,0,3,3,1,1,g.PNG,g,60b05d5bc60741f30dd410a0,2021-09-08_17h53.53.079,forced_choiceRT,2021.1.2,Win32,57.34931468,,,,,,,,,,,,,,,,,,,,,,
,0,j,1,1.4152,1,0,4,3,1,j.PNG,j,60b05d5bc60741f30dd410a0,2021-09-08_17h53.53.079,forced_choiceRT,2021.1.2,Win32,57.34931468,,,,,,,,,,,,,,,,,,,,,,
,0,h,1,1.7822,1,1,5,2,1,h.PNG,h,60b05d5bc60741f30dd410a0,2021-09-08_17h53.53.079,forced_choiceRT,2021.1.2,Win32,57.34931468,,,,,,,,,,,,,,,,,,,,,,
,0,j,1,2.3048,1,2,6,3,1,j.PNG,j,60b05d5bc60741f30dd410a0,2021-09-08_17h53.53.079,forced_choiceRT,2021.1.2,Win32,57.34931468,,,,,,,,,,,,,,,,,,,,,,
,0,f,1,1.7805,1,3,7,0,1,f.PNG,f,60b05d5bc60741f30dd410a0,2021-09-08_17h53.53.079,forced_choiceRT,2021.1.2,Win32,57.34931468,,,,,,,,,,,,,,,,,,,,,,
,0,h,1,2.1998,2,0,8,2,1,h.PNG,h,60b05d5bc60741f30dd410a0,2021-09-08_17h53.53.079,forced_choiceRT,2021.1.2,Win32,57.34931468,,,,,,,,,,,,,,,,,,,,,,
,0,j,1,1.2928,2,1,9,3,1,j.PNG,j,60b05d5bc60741f30dd410a0,2021-09-08_17h53.53.079,forced_choiceRT,2021.1.2,Win32,57.34931468,,,,,,,,,,,,,,,,,,,,,,
,0,j,1,1.1735,2,2,10,3,1,j.PNG,j,60b05d5bc60741f30dd410a0,2021-09-08_17h53.53.079,forced_choiceRT,2021.1.2,Win32,57.34931468,,,,,,,,,,,,,,,,,,,,,,
,0,f,1,1.2662,2,3,11,0,1,f.PNG,f,60b05d5bc60741f30dd410a0,2021-09-08_17h53.53.079,forced_choiceRT,2021.1.2,Win32,57.34931468,,,,,,,,,,,,,,,,,,,,,,
,0,g,1,1.2261,3,0,12,1,1,g.PNG,g,60b05d5bc60741f30dd410a0,2021-09-08_17h53.53.079,forced_choiceRT,2021.1.2,Win32,57.34931468,,,,,,,,,,,,,,,,,,,,,,
,0,g,1,0.9092,3,1,13,1,1,g.PNG,g,60b05d5bc60741f30dd410a0,2021-09-08_17h53.53.079,forced_choiceRT,2021.1.2,Win32,57.34931468,,,,,,,,,,,,,,,,,,,,,,
,0,g,1,0.6647,3,2,14,1,1,g.PNG,g,60b05d5bc60741f30dd410a0,2021-09-08_17h53.53.079,forced_choiceRT,2021.1.2,Win32,57.34931468,,,,,,,,,,,,,,,,,,,,,,
,0,j,1,1.17,3,3,15,3,1,j.PNG,j,60b05d5bc60741f30dd410a0,2021-09-08_17h53.53.079,forced_choiceRT,2021.1.2,Win32,57.34931468,,,,,,,,,,,,,,,,,,,,,,
,0,h,1,1.3105,4,0,16,2,1,h.PNG,h,60b05d5bc60741f30dd410a0,2021-09-08_17h53.53.079,forced_choiceRT,2021.1.2,Win32,57.34931468,,,,,,,,,,,,,,,,,,,,,,
,0,j,1,1.3323,4,1,17,3,1,j.PNG,j,60b05d5bc60741f30dd410a0,2021-09-08_17h53.53.079,forced_choiceRT,2021.1.2,Win32,57.34931468,,,,,,,,,,,,,,,,,,,,,,
,0,g,1,1.6068,4,2,18,1,1,g.PNG,g,60b05d5bc60741f30dd410a0,2021-09-08_17h53.53.079,forced_choiceRT,2021.1.2,Win32,57.34931468,,,,,,,,,,,,,,,,,,,,,,
,0,g,1,1.4323,4,3,19,1,1,g.PNG,g,60b05d5bc60741f30dd410a0,2021-09-08_17h53.53.079,forced_choiceRT,2021.1.2,Win32,57.34931468,,,,,,,,,,,,,,,,,,,,,,
,0,j,1,3.62,5,0,20,3,1,j.PNG,j,60b05d5bc60741f30dd410a0,2021-09-08_17h53.53.079,forced_choiceRT,2021.1.2,Win32,57.34931468,,,,,,,,,,,,,,,,,,,,,,
,0,h,1,1.4842,5,1,21,2,1,h.PNG,h,60b05d5bc60741f30dd410a0,2021-09-08_17h53.53.079,forced_choiceRT,2021.1.2,Win32,57.34931468,,,,,,,,,,,,,,,,,,,,,,
,0,j,1,1.4705,5,2,22,3,1,j.PNG,j,60b05d5bc60741f30dd410a0,2021-09-08_17h53.53.079,forced_choiceRT,2021.1.2,Win32,57.34931468,,,,,,,,,,,,,,,,,,,,,,
,0,h,1,3.1066,5,3,23,2,1,h.PNG,h,60b05d5bc60741f30dd410a0,2021-09-08_17h53.53.079,forced_choiceRT,2021.1.2,Win32,57.34931468,,,,,,,,,,,,,,,,,,,,,,
,0,f,1,1.4327,6,0,24,0,1,f.PNG,f,60b05d5bc60741f30dd410a0,2021-09-08_17h53.53.079,forced_choiceRT,2021.1.2,Win32,57.34931468,,,,,,,,,,,,,,,,,,,,,,
,0,f,1,1.066,6,1,25,0,1,f.PNG,f,60b05d5bc60741f30dd410a0,2021-09-08_17h53.53.079,forced_choiceRT,2021.1.2,Win32,57.34931468,,,,,,,,,,,,,,,,,,,,,,
,0,g,1,1.222,6,2,26,1,1,g.PNG,g,60b05d5bc60741f30dd410a0,2021-09-08_17h53.53.079,forced_choiceRT,2021.1.2,Win32,57.34931468,,,,,,,,,,,,,,,,,,,,,,
,0,g,1,1.4159,6,3,27,1,1,g.PNG,g,60b05d5bc60741f30dd410a0,2021-09-08_17h53.53.079,forced_choiceRT,2021.1.2,Win32,57.34931468,,,,,,,,,,,,,,,,,,,,,,
,0,h,1,1.4664,7,0,28,2,1,h.PNG,h,60b05d5bc60741f30dd410a0,2021-09-08_17h53.53.079,forced_choiceRT,2021.1.2,Win32,57.34931468,,,,,,,,,,,,,,,,,,,,,,
,0,h,1,1.3097,7,1,29,2,1,h.PNG,h,60b05d5bc60741f30dd410a0,2021-09-08_17h53.53.079,forced_choiceRT,2021.1.2,Win32,57.34931468,,,,,,,,,,,,,,,,,,,,,,
,0,h,1,1.1246,7,2,30,2,1,h.PNG,h,60b05d5bc60741f30dd410a0,2021-09-08_17h53.53.079,forced_choiceRT,2021.1.2,Win32,57.34931468,,,,,,,,,,,,,,,,,,,,,,
,0,h,1,0.8388,7,3,31,2,1,h.PNG,h,60b05d5bc60741f30dd410a0,2021-09-08_17h53.53.079,forced_choiceRT,2021.1.2,Win32,57.34931468,,,,,,,,,,,,,,,,,,,,,,
,0,h,1,0.6991,8,0,32,2,1,h.PNG,h,60b05d5bc60741f30dd410a0,2021-09-08_17h53.53.079,forced_choiceRT,2021.1.2,Win32,57.34931468,,,,,,,,,,,,,,,,,,,,,,
,0,f,1,1.1348,8,1,33,0,1,f.PNG,f,60b05d5bc60741f30dd410a0,2021-09-08_17h53.53.079,forced_choiceRT,2021.1.2,Win32,57.34931468,,,,,,,,,,,,,,,,,,,,,,
,0,f,1,0.6464,8,2,34,0,1,f.PNG,f,60b05d5bc60741f30dd410a0,2021-09-08_17h53.53.079,forced_choiceRT,2021.1.2,Win32,57.34931468,,,,,,,,,,,,,,,,,,,,,,
,0,g,1,1.2225,8,3,35,1,1,g.PNG,g,60b05d5bc60741f30dd410a0,2021-09-08_17h53.53.079,forced_choiceRT,2021.1.2,Win32,57.34931468,,,,,,,,,,,,,,,,,,,,,,
,0,g,1,0.8045,9,0,36,1,1,g.PNG,g,60b05d5bc60741f30dd410a0,2021-09-08_17h53.53.079,forced_choiceRT,2021.1.2,Win32,57.34931468,,,,,,,,,,,,,,,,,,,,,,
,0,f,1,1.1804,9,1,37,0,1,f.PNG,f,60b05d5bc60741f30dd410a0,2021-09-08_17h53.53.079,forced_choiceRT,2021.1.2,Win32,57.34931468,,,,,,,,,,,,,,,,,,,,,,
,0,g,1,1.1883,9,2,38,1,1,g.PNG,g,60b05d5bc60741f30dd410a0,2021-09-08_17h53.53.079,forced_choiceRT,2021.1.2,Win32,57.34931468,,,,,,,,,,,,,,,,,,,,,,
,0,g,1,0.7688,9,3,39,1,1,g.PNG,g,60b05d5bc60741f30dd410a0,2021-09-08_17h53.53.079,forced_choiceRT,2021.1.2,Win32,57.34931468,,,,,,,,,,,,,,,,,,,,,,
,0,f,1,1.0311,10,0,40,0,1,f.PNG,f,60b05d5bc60741f30dd410a0,2021-09-08_17h53.53.079,forced_choiceRT,2021.1.2,Win32,57.34931468,,,,,,,,,,,,,,,,,,,,,,
,0,j,1,1.9038,10,1,41,3,1,j.PNG,j,60b05d5bc60741f30dd410a0,2021-09-08_17h53.53.079,forced_choiceRT,2021.1.2,Win32,57.34931468,,,,,,,,,,,,,,,,,,,,,,
,0,f,1,0.9617,10,2,42,0,1,f.PNG,f,60b05d5bc60741f30dd410a0,2021-09-08_17h53.53.079,forced_choiceRT,2021.1.2,Win32,57.34931468,,,,,,,,,,,,,,,,,,,,,,
,0,h,1,2.0971,10,3,43,2,1,h.PNG,h,60b05d5bc60741f30dd410a0,2021-09-08_17h53.53.079,forced_choiceRT,2021.1.2,Win32,57.34931468,,,,,,,,,,,,,,,,,,,,,,
,0,f,1,1.9732,11,0,44,0,1,f.PNG,f,60b05d5bc60741f30dd410a0,2021-09-08_17h53.53.079,forced_choiceRT,2021.1.2,Win32,57.34931468,,,,,,,,,,,,,,,,,,,,,,
,0,f,1,0.5969,11,1,45,0,1,f.PNG,f,60b05d5bc60741f30dd410a0,2021-09-08_17h53.53.079,forced_choiceRT,2021.1.2,Win32,57.34931468,,,,,,,,,,,,,,,,,,,,,,
,0,f,1,0.6482,11,2,46,0,1,f.PNG,f,60b05d5bc60741f30dd410a0,2021-09-08_17h53.53.079,forced_choiceRT,2021.1.2,Win32,57.34931468,,,,,,,,,,,,,,,,,,,,,,
,0,g,1,2.5724,11,3,47,1,1,g.PNG,g,60b05d5bc60741f30dd410a0,2021-09-08_17h53.53.079,forced_choiceRT,2021.1.2,Win32,57.34931468,,,,,,,,,,,,,,,,,,,,,,
,0,h,1,1.385,12,0,48,2,1,h.PNG,h,60b05d5bc60741f30dd410a0,2021-09-08_17h53.53.079,forced_choiceRT,2021.1.2,Win32,57.34931468,,,,,,,,,,,,,,,,,,,,,,
,0,j,1,1.0141,12,1,49,3,1,j.PNG,j,60b05d5bc60741f30dd410a0,2021-09-08_17h53.53.079,forced_choiceRT,2021.1.2,Win32,57.34931468,,,,,,,,,,,,,,,,,,,,,,
,0,j,1,0.5793,12,2,50,3,1,j.PNG,j,60b05d5bc60741f30dd410a0,2021-09-08_17h53.53.079,forced_choiceRT,2021.1.2,Win32,57.34931468,,,,,,,,,,,,,,,,,,,,,,
,0,j,1,0.5245,12,3,51,3,1,j.PNG,j,60b05d5bc60741f30dd410a0,2021-09-08_17h53.53.079,forced_choiceRT,2021.1.2,Win32,57.34931468,,,,,,,,,,,,,,,,,,,,,,
,0,g,1,1.5726,13,0,52,1,1,g.PNG,g,60b05d5bc60741f30dd410a0,2021-09-08_17h53.53.079,forced_choiceRT,2021.1.2,Win32,57.34931468,,,,,,,,,,,,,,,,,,,,,,
,0,j,1,0.7515,13,1,53,3,1,j.PNG,j,60b05d5bc60741f30dd410a0,2021-09-08_17h53.53.079,forced_choiceRT,2021.1.2,Win32,57.34931468,,,,,,,,,,,,,,,,,,,,,,
,0,j,1,0.7368,13,2,54,3,1,j.PNG,j,60b05d5bc60741f30dd410a0,2021-09-08_17h53.53.079,forced_choiceRT,2021.1.2,Win32,57.34931468,,,,,,,,,,,,,,,,,,,,,,
,0,f,1,1.1064,13,3,55,0,1,f.PNG,f,60b05d5bc60741f30dd410a0,2021-09-08_17h53.53.079,forced_choiceRT,2021.1.2,Win32,57.34931468,,,,,,,,,,,,,,,,,,,,,,
,0,f,1,0.4602,14,0,56,0,1,f.PNG,f,60b05d5bc60741f30dd410a0,2021-09-08_17h53.53.079,forced_choiceRT,2021.1.2,Win32,57.34931468,,,,,,,,,,,,,,,,,,,,,,
,0,h,1,1.1705,14,1,57,2,1,h.PNG,h,60b05d5bc60741f30dd410a0,2021-09-08_17h53.53.079,forced_choiceRT,2021.1.2,Win32,57.34931468,,,,,,,,,,,,,,,,,,,,,,
,0,f,1,1.1179,14,2,58,0,1,f.PNG,f,60b05d5bc60741f30dd410a0,2021-09-08_17h53.53.079,forced_choiceRT,2021.1.2,Win32,57.34931468,,,,,,,,,,,,,,,,,,,,,,
,0,j,1,1.4008,14,3,59,3,1,j.PNG,j,60b05d5bc60741f30dd410a0,2021-09-08_17h53.53.079,forced_choiceRT,2021.1.2,Win32,57.34931468,,,,,,,,,,,,,,,,,,,,,,
,,,,,,,,,,,,60b05d5bc60741f30dd410a0,2021-09-08_17h53.53.079,forced_choiceRT,2021.1.2,Win32,57.34931468,h,2.2322,0,0,0,0,1,,,,,,,,,,,,,,,
,,,,,,,,,,,,60b05d5bc60741f30dd410a0,2021-09-08_17h53.53.079,forced_choiceRT,2021.1.2,Win32,57.34931468,h,1.6415,1,0,1,0,1,,,,,,,,,,,,,,,
,,,,,,,,,,,,60b05d5bc60741f30dd410a0,2021-09-08_17h53.53.079,forced_choiceRT,2021.1.2,Win32,57.34931468,h,2.0787,2,0,2,0,1,,,,,,,,,,,,,,,
,,,,,,,,,,,,60b05d5bc60741f30dd410a0,2021-09-08_17h53.53.079,forced_choiceRT,2021.1.2,Win32,57.34931468,h,2.0945,3,0,3,0,1,,,,,,,,,,,,,,,
,,,,,,,,,,,,60b05d5bc60741f30dd410a0,2021-09-08_17h53.53.079,forced_choiceRT,2021.1.2,Win32,57.34931468,h,2.0951,4,0,4,0,1,,,,,,,,,,,,,,,
,,,,,,,,,,,,60b05d5bc60741f30dd410a0,2021-09-08_17h53.53.079,forced_choiceRT,2021.1.2,Win32,57.34931468,h,2.1136,5,0,5,0,1,,,,,,,,,,,,,,,
,,,,,,,,,,,,60b05d5bc60741f30dd410a0,2021-09-08_17h53.53.079,forced_choiceRT,2021.1.2,Win32,57.34931468,h,2.0428,6,0,6,0,1,,,,,,,,,,,,,,,
,,,,,,,,,,,,60b05d5bc60741f30dd410a0,2021-09-08_17h53.53.079,forced_choiceRT,2021.1.2,Win32,57.34931468,f,1.9906,7,0,7,0,1,,,,,,,,,,,,,,,
,,,,,,,,,,,,60b05d5bc60741f30dd410a0,2021-09-08_17h53.53.079,forced_choiceRT,2021.1.2,Win32,57.34931468,f,1.9558,8,0,8,0,1,,,,,,,,,,,,,,,
,,,,,,,,,,,,60b05d5bc60741f30dd410a0,2021-09-08_17h53.53.079,forced_choiceRT,2021.1.2,Win32,57.34931468,f,1.8506,9,0,9,0,1,,,,,,,,,,,,,,,
,,,,,,,,,,,,60b05d5bc60741f30dd410a0,2021-09-08_17h53.53.079,forced_choiceRT,2021.1.2,Win32,57.34931468,f,2.0083,10,0,10,0,1,,,,,,,,,,,,,,,
,,,,,,,,,,,,60b05d5bc60741f30dd410a0,2021-09-08_17h53.53.079,forced_choiceRT,2021.1.2,Win32,57.34931468,f,2.0428,11,0,11,0,1,,,,,,,,,,,,,,,
,,,,,,,,,,,,60b05d5bc60741f30dd410a0,2021-09-08_17h53.53.079,forced_choiceRT,2021.1.2,Win32,57.34931468,f,2.0946,12,0,12,0,1,,,,,,,,,,,,,,,
,,,,,,,,,,,,60b05d5bc60741f30dd410a0,2021-09-08_17h53.53.079,forced_choiceRT,2021.1.2,Win32,57.34931468,f,2.0426,13,0,13,0,1,,,,,,,,,,,,,,,
,,,,,,,,,,,,60b05d5bc60741f30dd410a0,2021-09-08_17h53.53.079,forced_choiceRT,2021.1.2,Win32,57.34931468,f,2.0085,14,0,14,0,1,,,,,,,,,,,,,,,
,,,,,,,,,,,,60b05d5bc60741f30dd410a0,2021-09-08_17h53.53.079,forced_choiceRT,2021.1.2,Win32,57.34931468,f,2.0642,15,0,15,0,1,,,,,,,,,,,,,,,
,,,,,,,,,,,,60b05d5bc60741f30dd410a0,2021-09-08_17h53.53.079,forced_choiceRT,2021.1.2,Win32,57.34931468,f,2.0432,16,0,16,0,1,,,,,,,,,,,,,,,
,,,,,,,,,,,,60b05d5bc60741f30dd410a0,2021-09-08_17h53.53.079,forced_choiceRT,2021.1.2,Win32,57.34931468,f,1.9721,17,0,17,0,1,,,,,,,,,,,,,,,
,,,,,,,,,,,,60b05d5bc60741f30dd410a0,2021-09-08_17h53.53.079,forced_choiceRT,2021.1.2,Win32,57.34931468,f,2.0772,18,0,18,0,1,,,,,,,,,,,,,,,
,,,,,,,,,,,,60b05d5bc60741f30dd410a0,2021-09-08_17h53.53.079,forced_choiceRT,2021.1.2,Win32,57.34931468,f,2.0623,19,0,19,0,1,,,,,,,,,,,,,,,
,0.24,,,,,,,,,h.PNG,h,60b05d5bc60741f30dd410a0,2021-09-08_17h53.53.079,forced_choiceRT,2021.1.2,Win32,57.34931468,,,,,,,,1,Fast,h,1,1.3023,0,0,0,2,1,,,,,
,0.55,,,,,,,,,j.PNG,j,60b05d5bc60741f30dd410a0,2021-09-08_17h53.53.079,forced_choiceRT,2021.1.2,Win32,57.34931468,,,,,,,,1,Ontime,j,1,2.0266,0,1,1,3,1,,,,,
,0.94,,,,,,,,,h.PNG,h,60b05d5bc60741f30dd410a0,2021-09-08_17h53.53.079,forced_choiceRT,2021.1.2,Win32,57.34931468,,,,,,,,1,Slow,h,1,2.1125,0,2,2,2,1,,,,,
,0.8,,,,,,,,,j.PNG,j,60b05d5bc60741f30dd410a0,2021-09-08_17h53.53.079,forced_choiceRT,2021.1.2,Win32,57.34931468,,,,,,,,1,Fast,j,1,1.607,0,3,3,3,1,,,,,
,1.63,,,,,,,,,j.PNG,j,60b05d5bc60741f30dd410a0,2021-09-08_17h53.53.079,forced_choiceRT,2021.1.2,Win32,57.34931468,,,,,,,,1,Slow,j,1,2.1464,1,0,4,3,1,,,,,
,0.52,,,,,,,,,h.PNG,h,60b05d5bc60741f30dd410a0,2021-09-08_17h53.53.079,forced_choiceRT,2021.1.2,Win32,57.34931468,,,,,,,,1,Fast,h,1,1.7306,1,1,5,2,1,,,,,
,0.82,,,,,,,,,f.PNG,f,60b05d5bc60741f30dd410a0,2021-09-08_17h53.53.079,forced_choiceRT,2021.1.2,Win32,57.34931468,,,,,,,,1,Fast,f,1,1.6409,1,2,6,0,1,,,,,
,0.23,,,,,,,,,j.PNG,j,60b05d5bc60741f30dd410a0,2021-09-08_17h53.53.079,forced_choiceRT,2021.1.2,Win32,57.34931468,,,,,,,,1,Fast,j,1,1.7299,1,3,7,3,1,,,,,
,0.53,,,,,,,,,f.PNG,f,60b05d5bc60741f30dd410a0,2021-09-08_17h53.53.079,forced_choiceRT,2021.1.2,Win32,57.34931468,,,,,,,,1,Slow,f,1,2.1122,2,0,8,0,1,,,,,
,1.95,,,,,,,,,g.PNG,g,60b05d5bc60741f30dd410a0,2021-09-08_17h53.53.079,forced_choiceRT,2021.1.2,Win32,57.34931468,,,,,,,,1,Slow,f,0,5.8652,2,1,9,1,1,,,,,
,0.51,,,,,,,,,f.PNG,f,60b05d5bc60741f30dd410a0,2021-09-08_17h53.53.079,forced_choiceRT,2021.1.2,Win32,57.34931468,,,,,,,,1,Fast,f,1,1.8508,2,2,10,0,1,,,,,
,1.76,,,,,,,,,g.PNG,g,60b05d5bc60741f30dd410a0,2021-09-08_17h53.53.079,forced_choiceRT,2021.1.2,Win32,57.34931468,,,,,,,,1,Slow,g,1,2.3042,2,3,11,1,1,,,,,
,1.16,,,,,,,,,f.PNG,f,60b05d5bc60741f30dd410a0,2021-09-08_17h53.53.079,forced_choiceRT,2021.1.2,Win32,57.34931468,,,,,,,,1,Ontime,f,1,1.9402,3,0,12,0,1,,,,,
,1.95,,,,,,,,,j.PNG,j,60b05d5bc60741f30dd410a0,2021-09-08_17h53.53.079,forced_choiceRT,2021.1.2,Win32,57.34931468,,,,,,,,1,Slow,j,1,2.1641,3,1,13,3,1,,,,,
,0.8,,,,,,,,,j.PNG,j,60b05d5bc60741f30dd410a0,2021-09-08_17h53.53.079,forced_choiceRT,2021.1.2,Win32,57.34931468,,,,,,,,1,Ontime,j,1,1.9225,3,2,14,3,1,,,,,
,0.47,,,,,,,,,g.PNG,g,60b05d5bc60741f30dd410a0,2021-09-08_17h53.53.079,forced_choiceRT,2021.1.2,Win32,57.34931468,,,,,,,,1,Fast,g,1,1.7465,3,3,15,1,1,,,,,
,1,,,,,,,,,h.PNG,h,60b05d5bc60741f30dd410a0,2021-09-08_17h53.53.079,forced_choiceRT,2021.1.2,Win32,57.34931468,,,,,,,,1,Ontime,j,0,1.904,4,0,16,2,1,,,,,
,0.2,,,,,,,,,h.PNG,h,60b05d5bc60741f30dd410a0,2021-09-08_17h53.53.079,forced_choiceRT,2021.1.2,Win32,57.34931468,,,,,,,,1,Fast,h,1,1.7985,4,1,17,2,1,,,,,
,1.29,,,,,,,,,h.PNG,h,60b05d5bc60741f30dd410a0,2021-09-08_17h53.53.079,forced_choiceRT,2021.1.2,Win32,57.34931468,,,,,,,,1,Ontime,h,1,1.9226,4,2,18,2,1,,,,,
,0.59,,,,,,,,,f.PNG,f,60b05d5bc60741f30dd410a0,2021-09-08_17h53.53.079,forced_choiceRT,2021.1.2,Win32,57.34931468,,,,,,,,1,Ontime,f,1,2.0432,4,3,19,0,1,,,,,
,0.45,,,,,,,,,g.PNG,g,60b05d5bc60741f30dd410a0,2021-09-08_17h53.53.079,forced_choiceRT,2021.1.2,Win32,57.34931468,,,,,,,,1,Ontime,g,1,1.9905,5,0,20,1,1,,,,,
,1.99,,,,,,,,,j.PNG,j,60b05d5bc60741f30dd410a0,2021-09-08_17h53.53.079,forced_choiceRT,2021.1.2,Win32,57.34931468,,,,,,,,1,Slow,j,1,2.2171,5,1,21,3,1,,,,,
,1.04,,,,,,,,,f.PNG,f,60b05d5bc60741f30dd410a0,2021-09-08_17h53.53.079,forced_choiceRT,2021.1.2,Win32,57.34931468,,,,,,,,1,Fast,f,1,1.852,5,2,22,0,1,,,,,
,0.83,,,,,,,,,f.PNG,f,60b05d5bc60741f30dd410a0,2021-09-08_17h53.53.079,forced_choiceRT,2021.1.2,Win32,57.34931468,,,,,,,,1,Ontime,f,1,2.0435,5,3,23,0,1,,,,,
,0.3,,,,,,,,,g.PNG,g,60b05d5bc60741f30dd410a0,2021-09-08_17h53.53.079,forced_choiceRT,2021.1.2,Win32,57.34931468,,,,,,,,1,Ontime,g,1,2.0081,6,0,24,1,1,,,,,
,0.5,,,,,,,,,g.PNG,g,60b05d5bc60741f30dd410a0,2021-09-08_17h53.53.079,forced_choiceRT,2021.1.2,Win32,57.34931468,,,,,,,,1,Ontime,g,1,2.0254,6,1,25,1,1,,,,,
,1.37,,,,,,,,,g.PNG,g,60b05d5bc60741f30dd410a0,2021-09-08_17h53.53.079,forced_choiceRT,2021.1.2,Win32,57.34931468,,,,,,,,1,Ontime,g,1,1.9203,6,2,26,1,1,,,,,
,1.45,,,,,,,,,g.PNG,g,60b05d5bc60741f30dd410a0,2021-09-08_17h53.53.079,forced_choiceRT,2021.1.2,Win32,57.34931468,,,,,,,,1,Slow,g,1,2.165,6,3,27,1,1,,,,,
,1.55,,,,,,,,,g.PNG,g,60b05d5bc60741f30dd410a0,2021-09-08_17h53.53.079,forced_choiceRT,2021.1.2,Win32,57.34931468,,,,,,,,1,Ontime,g,1,1.9386,7,0,28,1,1,,,,,
,1.94,,,,,,,,,j.PNG,j,60b05d5bc60741f30dd410a0,2021-09-08_17h53.53.079,forced_choiceRT,2021.1.2,Win32,57.34931468,,,,,,,,1,Slow,f,0,2.2879,7,1,29,3,1,,,,,
,0.01,,,,,,,,,f.PNG,f,60b05d5bc60741f30dd410a0,2021-09-08_17h53.53.079,forced_choiceRT,2021.1.2,Win32,57.34931468,,,,,,,,1,Ontime,f,1,1.9913,7,2,30,0,1,,,,,
,1.17,,,,,,,,,h.PNG,h,60b05d5bc60741f30dd410a0,2021-09-08_17h53.53.079,forced_choiceRT,2021.1.2,Win32,57.34931468,,,,,,,,1,Ontime,g,0,2.0079,7,3,31,2,1,,,,,
,0.88,,,,,,,,,h.PNG,h,60b05d5bc60741f30dd410a0,2021-09-08_17h53.53.079,forced_choiceRT,2021.1.2,Win32,57.34931468,,,,,,,,1,Ontime,h,1,1.9222,8,0,32,2,1,,,,,
,1.67,,,,,,,,,f.PNG,f,60b05d5bc60741f30dd410a0,2021-09-08_17h53.53.079,forced_choiceRT,2021.1.2,Win32,57.34931468,,,,,,,,1,Ontime,h,0,2.0077,8,1,33,0,1,,,,,
,0.06,,,,,,,,,j.PNG,j,60b05d5bc60741f30dd410a0,2021-09-08_17h53.53.079,forced_choiceRT,2021.1.2,Win32,57.34931468,,,,,,,,1,Ontime,j,1,1.9559,8,2,34,3,1,,,,,
,0.33,,,,,,,,,h.PNG,h,60b05d5bc60741f30dd410a0,2021-09-08_17h53.53.079,forced_choiceRT,2021.1.2,Win32,57.34931468,,,,,,,,1,Ontime,h,1,2.0086,8,3,35,2,1,,,,,
,0.41,,,,,,,,,h.PNG,h,60b05d5bc60741f30dd410a0,2021-09-08_17h53.53.079,forced_choiceRT,2021.1.2,Win32,57.34931468,,,,,,,,1,Ontime,h,1,1.9733,9,0,36,2,1,,,,,
,1.75,,,,,,,,,j.PNG,j,60b05d5bc60741f30dd410a0,2021-09-08_17h53.53.079,forced_choiceRT,2021.1.2,Win32,57.34931468,,,,,,,,1,Slow,j,1,2.3229,9,1,37,3,1,,,,,
,1.54,,,,,,,,,f.PNG,f,60b05d5bc60741f30dd410a0,2021-09-08_17h53.53.079,forced_choiceRT,2021.1.2,Win32,57.34931468,,,,,,,,1,Ontime,f,1,2.0805,9,2,38,0,1,,,,,
,0.46,,,,,,,,,g.PNG,g,60b05d5bc60741f30dd410a0,2021-09-08_17h53.53.079,forced_choiceRT,2021.1.2,Win32,57.34931468,,,,,,,,1,Ontime,g,1,2.0271,9,3,39,1,1,,,,,
,,,,,,,,,,,,60b05d5bc60741f30dd410a0,2021-09-08_17h53.53.079,forced_choiceRT,2021.1.2,Win32,57.34931468,,,,,,,,,,,,,,,,,,0,0,0,0,1
,1.66,,,,,,,,,g.PNG,g,60b05d5bc60741f30dd410a0,2021-09-08_17h53.53.079,forced_choiceRT,2021.1.2,Win32,57.34931468,,,,,,,,2,Ontime,f,0,1.9863,0,0,0,1,1,,,,,
,1.96,,,,,,,,,j.PNG,j,60b05d5bc60741f30dd410a0,2021-09-08_17h53.53.079,forced_choiceRT,2021.1.2,Win32,57.34931468,,,,,,,,2,Slow,j,1,2.1703,0,1,1,3,1,,,,,
,1.45,,,,,,,,,j.PNG,j,60b05d5bc60741f30dd410a0,2021-09-08_17h53.53.079,forced_choiceRT,2021.1.2,Win32,57.34931468,,,,,,,,2,Ontime,h,0,1.9203,0,2,2,3,1,,,,,
,1.01,,,,,,,,,f.PNG,f,60b05d5bc60741f30dd410a0,2021-09-08_17h53.53.079,forced_choiceRT,2021.1.2,Win32,57.34931468,,,,,,,,2,Fast,f,1,1.5229,0,3,3,0,1,,,,,
,1.92,,,,,,,,,f.PNG,f,60b05d5bc60741f30dd410a0,2021-09-08_17h53.53.079,forced_choiceRT,2021.1.2,Win32,57.34931468,,,,,,,,2,Ontime,j,0,2.0669,1,0,4,0,1,,,,,
,0.35,,,,,,,,,g.PNG,g,60b05d5bc60741f30dd410a0,2021-09-08_17h53.53.079,forced_choiceRT,2021.1.2,Win32,57.34931468,,,,,,,,2,Ontime,g,1,2.0079,1,1,5,1,1,,,,,
,0.37,,,,,,,,,j.PNG,j,60b05d5bc60741f30dd410a0,2021-09-08_17h53.53.079,forced_choiceRT,2021.1.2,Win32,57.34931468,,,,,,,,2,Fast,j,1,1.7814,1,2,6,3,1,,,,,
,0.01,,,,,,,,,g.PNG,g,60b05d5bc60741f30dd410a0,2021-09-08_17h53.53.079,forced_choiceRT,2021.1.2,Win32,57.34931468,,,,,,,,2,Ontime,g,1,1.976,1,3,7,1,1,,,,,
,1.44,,,,,,,,,h.PNG,h,60b05d5bc60741f30dd410a0,2021-09-08_17h53.53.079,forced_choiceRT,2021.1.2,Win32,57.34931468,,,,,,,,2,Ontime,h,1,1.9912,2,0,8,2,1,,,,,
,0.2,,,,,,,,,h.PNG,h,60b05d5bc60741f30dd410a0,2021-09-08_17h53.53.079,forced_choiceRT,2021.1.2,Win32,57.34931468,,,,,,,,2,Ontime,h,1,1.9907,2,1,9,2,1,,,,,
,0.94,,,,,,,,,h.PNG,h,60b05d5bc60741f30dd410a0,2021-09-08_17h53.53.079,forced_choiceRT,2021.1.2,Win32,57.34931468,,,,,,,,2,Fast,h,1,1.876,2,2,10,2,1,,,,,
,1.18,,,,,,,,,h.PNG,h,60b05d5bc60741f30dd410a0,2021-09-08_17h53.53.079,forced_choiceRT,2021.1.2,Win32,57.34931468,,,,,,,,2,Fast,h,1,1.7802,2,3,11,2,1,,,,,
,1.77,,,,,,,,,f.PNG,f,60b05d5bc60741f30dd410a0,2021-09-08_17h53.53.079,forced_choiceRT,2021.1.2,Win32,57.34931468,,,,,,,,2,Slow,h,0,2.1823,3,0,12,0,1,,,,,
,1.92,,,,,,,,,h.PNG,h,60b05d5bc60741f30dd410a0,2021-09-08_17h53.53.079,forced_choiceRT,2021.1.2,Win32,57.34931468,,,,,,,,2,Slow,g,0,2.1648,3,1,13,2,1,,,,,
,0.42,,,,,,,,,g.PNG,g,60b05d5bc60741f30dd410a0,2021-09-08_17h53.53.079,forced_choiceRT,2021.1.2,Win32,57.34931468,,,,,,,,2,Ontime,g,1,1.9911,3,2,14,1,1,,,,,
,1.05,,,,,,,,,g.PNG,g,60b05d5bc60741f30dd410a0,2021-09-08_17h53.53.079,forced_choiceRT,2021.1.2,Win32,57.34931468,,,,,,,,2,Ontime,g,1,2.061,3,3,15,1,1,,,,,
,0.87,,,,,,,,,f.PNG,f,60b05d5bc60741f30dd410a0,2021-09-08_17h53.53.079,forced_choiceRT,2021.1.2,Win32,57.34931468,,,,,,,,2,Ontime,f,1,1.9736,4,0,16,0,1,,,,,
,1.76,,,,,,,,,f.PNG,f,60b05d5bc60741f30dd410a0,2021-09-08_17h53.53.079,forced_choiceRT,2021.1.2,Win32,57.34931468,,,,,,,,2,Slow,f,1,2.27,4,1,17,0,1,,,,,
,1.6,,,,,,,,,g.PNG,g,60b05d5bc60741f30dd410a0,2021-09-08_17h53.53.079,forced_choiceRT,2021.1.2,Win32,57.34931468,,,,,,,,2,Ontime,f,0,2.0436,4,2,18,1,1,,,,,
,0.53,,,,,,,,,f.PNG,f,60b05d5bc60741f30dd410a0,2021-09-08_17h53.53.079,forced_choiceRT,2021.1.2,Win32,57.34931468,,,,,,,,2,Ontime,f,1,2.0605,4,3,19,0,1,,,,,
,1.26,,,,,,,,,h.PNG,h,60b05d5bc60741f30dd410a0,2021-09-08_17h53.53.079,forced_choiceRT,2021.1.2,Win32,57.34931468,,,,,,,,2,Fast,h,1,1.8872,5,0,20,2,1,,,,,
,1.66,,,,,,,,,g.PNG,g,60b05d5bc60741f30dd410a0,2021-09-08_17h53.53.079,forced_choiceRT,2021.1.2,Win32,57.34931468,,,,,,,,2,Slow,g,1,2.2001,5,1,21,1,1,,,,,
,1.82,,,,,,,,,g.PNG,g,60b05d5bc60741f30dd410a0,2021-09-08_17h53.53.079,forced_choiceRT,2021.1.2,Win32,57.34931468,,,,,,,,2,Slow,g,1,2.2183,5,2,22,1,1,,,,,
,1.88,,,,,,,,,h.PNG,h,60b05d5bc60741f30dd410a0,2021-09-08_17h53.53.079,forced_choiceRT,2021.1.2,Win32,57.34931468,,,,,,,,2,Ontime,j,0,2.0783,5,3,23,2,1,,,,,
,0.13,,,,,,,,,h.PNG,h,60b05d5bc60741f30dd410a0,2021-09-08_17h53.53.079,forced_choiceRT,2021.1.2,Win32,57.34931468,,,,,,,,2,Fast,h,1,1.8862,6,0,24,2,1,,,,,
,1.91,,,,,,,,,f.PNG,f,60b05d5bc60741f30dd410a0,2021-09-08_17h53.53.079,forced_choiceRT,2021.1.2,Win32,57.34931468,,,,,,,,2,Ontime,h,0,1.9561,6,1,25,0,1,,,,,
,1.87,,,,,,,,,f.PNG,f,60b05d5bc60741f30dd410a0,2021-09-08_17h53.53.079,forced_choiceRT,2021.1.2,Win32,57.34931468,,,,,,,,2,Slow,f,1,2.2165,6,2,26,0,1,,,,,
,1.99,,,,,,,,,f.PNG,f,60b05d5bc60741f30dd410a0,2021-09-08_17h53.53.079,forced_choiceRT,2021.1.2,Win32,57.34931468,,,,,,,,2,Slow,f,1,2.2002,6,3,27,0,1,,,,,
,0.03,,,,,,,,,h.PNG,h,60b05d5bc60741f30dd410a0,2021-09-08_17h53.53.079,forced_choiceRT,2021.1.2,Win32,57.34931468,,,,,,,,2,Ontime,h,1,1.9734,7,0,28,2,1,,,,,
,1.54,,,,,,,,,h.PNG,h,60b05d5bc60741f30dd410a0,2021-09-08_17h53.53.079,forced_choiceRT,2021.1.2,Win32,57.34931468,,,,,,,,2,Ontime,h,1,2.0447,7,1,29,2,1,,,,,
,0.39,,,,,,,,,f.PNG,f,60b05d5bc60741f30dd410a0,2021-09-08_17h53.53.079,forced_choiceRT,2021.1.2,Win32,57.34931468,,,,,,,,2,Ontime,f,1,2.0448,7,2,30,0,1,,,,,
,1.98,,,,,,,,,j.PNG,j,60b05d5bc60741f30dd410a0,2021-09-08_17h53.53.079,forced_choiceRT,2021.1.2,Win32,57.34931468,,,,,,,,2,Slow,f,0,2.1996,7,3,31,3,1,,,,,
,0.06,,,,,,,,,j.PNG,j,60b05d5bc60741f30dd410a0,2021-09-08_17h53.53.079,forced_choiceRT,2021.1.2,Win32,57.34931468,,,,,,,,2,Ontime,j,1,1.9382,8,0,32,3,1,,,,,
,0.23,,,,,,,,,j.PNG,j,60b05d5bc60741f30dd410a0,2021-09-08_17h53.53.079,forced_choiceRT,2021.1.2,Win32,57.34931468,,,,,,,,2,Ontime,j,1,1.9384,8,1,33,3,1,,,,,
,1.02,,,,,,,,,g.PNG,g,60b05d5bc60741f30dd410a0,2021-09-08_17h53.53.079,forced_choiceRT,2021.1.2,Win32,57.34931468,,,,,,,,2,Ontime,h,0,1.9388,8,2,34,1,1,,,,,
,1.54,,,,,,,,,j.PNG,j,60b05d5bc60741f30dd410a0,2021-09-08_17h53.53.079,forced_choiceRT,2021.1.2,Win32,57.34931468,,,,,,,,2,Slow,j,1,2.1127,8,3,35,3,1,,,,,
,1.62,,,,,,,,,j.PNG,j,60b05d5bc60741f30dd410a0,2021-09-08_17h53.53.079,forced_choiceRT,2021.1.2,Win32,57.34931468,,,,,,,,2,Slow,j,1,2.1302,9,0,36,3,1,,,,,
,1.36,,,,,,,,,j.PNG,j,60b05d5bc60741f30dd410a0,2021-09-08_17h53.53.079,forced_choiceRT,2021.1.2,Win32,57.34931468,,,,,,,,2,Ontime,j,1,1.9383,9,1,37,3,1,,,,,
,0.32,,,,,,,,,g.PNG,g,60b05d5bc60741f30dd410a0,2021-09-08_17h53.53.079,forced_choiceRT,2021.1.2,Win32,57.34931468,,,,,,,,2,Fast,g,1,1.7819,9,2,38,1,1,,,,,
,0.88,,,,,,,,,j.PNG,j,60b05d5bc60741f30dd410a0,2021-09-08_17h53.53.079,forced_choiceRT,2021.1.2,Win32,57.34931468,,,,,,,,2,Fast,j,1,1.6416,9,3,39,3,1,,,,,
,,,,,,,,,,,,60b05d5bc60741f30dd410a0,2021-09-08_17h53.53.079,forced_choiceRT,2021.1.2,Win32,57.34931468,,,,,,,,,,,,,,,,,,1,0,1,0,1
,1.87,,,,,,,,,g.PNG,g,60b05d5bc60741f30dd410a0,2021-09-08_17h53.53.079,forced_choiceRT,2021.1.2,Win32,57.34931468,,,,,,,,3,Slow,g,1,3.195,0,0,0,1,1,,,,,
,0.69,,,,,,,,,j.PNG,j,60b05d5bc60741f30dd410a0,2021-09-08_17h53.53.079,forced_choiceRT,2021.1.2,Win32,57.34931468,,,,,,,,3,Ontime,j,1,1.9565,0,1,1,3,1,,,,,
,1.85,,,,,,,,,h.PNG,h,60b05d5bc60741f30dd410a0,2021-09-08_17h53.53.079,forced_choiceRT,2021.1.2,Win32,57.34931468,,,,,,,,3,Slow,f,0,2.1188,0,2,2,2,1,,,,,
,0.27,,,,,,,,,j.PNG,j,60b05d5bc60741f30dd410a0,2021-09-08_17h53.53.079,forced_choiceRT,2021.1.2,Win32,57.34931468,,,,,,,,3,Ontime,j,1,1.9745,0,3,3,3,1,,,,,
,1.29,,,,,,,,,h.PNG,h,60b05d5bc60741f30dd410a0,2021-09-08_17h53.53.079,forced_choiceRT,2021.1.2,Win32,57.34931468,,,,,,,,3,Ontime,h,1,1.9036,1,0,4,2,1,,,,,
,1.74,,,,,,,,,h.PNG,h,60b05d5bc60741f30dd410a0,2021-09-08_17h53.53.079,forced_choiceRT,2021.1.2,Win32,57.34931468,,,,,,,,3,Ontime,h,1,2.0781,1,1,5,2,1,,,,,
,0.18,,,,,,,,,j.PNG,j,60b05d5bc60741f30dd410a0,2021-09-08_17h53.53.079,forced_choiceRT,2021.1.2,Win32,57.34931468,,,,,,,,3,Ontime,j,1,2.009,1,2,6,3,1,,,,,
,1.28,,,,,,,,,g.PNG,g,60b05d5bc60741f30dd410a0,2021-09-08_17h53.53.079,forced_choiceRT,2021.1.2,Win32,57.34931468,,,,,,,,3,Slow,g,1,2.1128,1,3,7,1,1,,,,,
,1.35,,,,,,,,,f.PNG,f,60b05d5bc60741f30dd410a0,2021-09-08_17h53.53.079,forced_choiceRT,2021.1.2,Win32,57.34931468,,,,,,,,3,Fast,f,1,1.8552,2,0,8,0,1,,,,,
,1.4,,,,,,,,,f.PNG,f,60b05d5bc60741f30dd410a0,2021-09-08_17h53.53.079,forced_choiceRT,2021.1.2,Win32,57.34931468,,,,,,,,3,Ontime,f,1,1.9267,2,1,9,0,1,,,,,
,0.06,,,,,,,,,f.PNG,f,60b05d5bc60741f30dd410a0,2021-09-08_17h53.53.079,forced_choiceRT,2021.1.2,Win32,57.34931468,,,,,,,,3,Ontime,f,1,2.0291,2,2,10,0,1,,,,,
,0.3,,,,,,,,,j.PNG,j,60b05d5bc60741f30dd410a0,2021-09-08_17h53.53.079,forced_choiceRT,2021.1.2,Win32,57.34931468,,,,,,,,3,Fast,j,1,1.8013,2,3,11,3,1,,,,,
,1.68,,,,,,,,,f.PNG,f,60b05d5bc60741f30dd410a0,2021-09-08_17h53.53.079,forced_choiceRT,2021.1.2,Win32,57.34931468,,,,,,,,3,Slow,f,1,2.1712,3,0,12,0,1,,,,,
,0.89,,,,,,,,,f.PNG,f,60b05d5bc60741f30dd410a0,2021-09-08_17h53.53.079,forced_choiceRT,2021.1.2,Win32,57.34931468,,,,,,,,3,Ontime,f,1,1.9197,3,1,13,0,1,,,,,
,1.17,,,,,,,,,g.PNG,g,60b05d5bc60741f30dd410a0,2021-09-08_17h53.53.079,forced_choiceRT,2021.1.2,Win32,57.34931468,,,,,,,,3,Ontime,g,1,2.0082,3,2,14,1,1,,,,,
,0.04,,,,,,,,,h.PNG,h,60b05d5bc60741f30dd410a0,2021-09-08_17h53.53.079,forced_choiceRT,2021.1.2,Win32,57.34931468,,,,,,,,3,Fast,h,1,1.7914,3,3,15,2,1,,,,,
,0.98,,,,,,,,,f.PNG,f,60b05d5bc60741f30dd410a0,2021-09-08_17h53.53.079,forced_choiceRT,2021.1.2,Win32,57.34931468,,,,,,,,3,Fast,f,1,1.8872,4,0,16,0,1,,,,,
,0.44,,,,,,,,,g.PNG,g,60b05d5bc60741f30dd410a0,2021-09-08_17h53.53.079,forced_choiceRT,2021.1.2,Win32,57.34931468,,,,,,,,3,Fast,g,1,1.8194,4,1,17,1,1,,,,,
,1.43,,,,,,,,,g.PNG,g,60b05d5bc60741f30dd410a0,2021-09-08_17h53.53.079,forced_choiceRT,2021.1.2,Win32,57.34931468,,,,,,,,3,Ontime,g,1,2.0078,4,2,18,1,1,,,,,
,0.88,,,,,,,,,f.PNG,f,60b05d5bc60741f30dd410a0,2021-09-08_17h53.53.079,forced_choiceRT,2021.1.2,Win32,57.34931468,,,,,,,,3,Ontime,f,1,2.0261,4,3,19,0,1,,,,,
,0.68,,,,,,,,,g.PNG,g,60b05d5bc60741f30dd410a0,2021-09-08_17h53.53.079,forced_choiceRT,2021.1.2,Win32,57.34931468,,,,,,,,3,Ontime,g,1,1.9449,5,0,20,1,1,,,,,
,1.78,,,,,,,,,j.PNG,j,60b05d5bc60741f30dd410a0,2021-09-08_17h53.53.079,forced_choiceRT,2021.1.2,Win32,57.34931468,,,,,,,,3,Slow,j,1,2.621,5,1,21,3,1,,,,,
,1.93,,,,,,,,,j.PNG,j,60b05d5bc60741f30dd410a0,2021-09-08_17h53.53.079,forced_choiceRT,2021.1.2,Win32,57.34931468,,,,,,,,3,Slow,g,0,2.2511,5,2,22,3,1,,,,,
,1.97,,,,,,,,,h.PNG,h,60b05d5bc60741f30dd410a0,2021-09-08_17h53.53.079,forced_choiceRT,2021.1.2,Win32,57.34931468,,,,,,,,3,Slow,h,1,2.2694,5,3,23,2,1,,,,,
,1.6,,,,,,,,,f.PNG,f,60b05d5bc60741f30dd410a0,2021-09-08_17h53.53.079,forced_choiceRT,2021.1.2,Win32,57.34931468,,,,,,,,3,Ontime,h,0,1.9407,6,0,24,0,1,,,,,
,1.72,,,,,,,,,h.PNG,h,60b05d5bc60741f30dd410a0,2021-09-08_17h53.53.079,forced_choiceRT,2021.1.2,Win32,57.34931468,,,,,,,,3,Ontime,f,0,1.9407,6,1,25,2,1,,,,,
,0.46,,,,,,,,,j.PNG,j,60b05d5bc60741f30dd410a0,2021-09-08_17h53.53.079,forced_choiceRT,2021.1.2,Win32,57.34931468,,,,,,,,3,Fast,j,1,1.8157,6,2,26,3,1,,,,,
,0.6,,,,,,,,,g.PNG,g,60b05d5bc60741f30dd410a0,2021-09-08_17h53.53.079,forced_choiceRT,2021.1.2,Win32,57.34931468,,,,,,,,3,Fast,j,0,0.2627,6,3,27,1,1,,,,,
,0.29,,,,,,,,,j.PNG,j,60b05d5bc60741f30dd410a0,2021-09-08_17h53.53.079,forced_choiceRT,2021.1.2,Win32,57.34931468,,,,,,,,3,Fast,j,1,1.8681,7,0,28,3,1,,,,,
,0.71,,,,,,,,,h.PNG,h,60b05d5bc60741f30dd410a0,2021-09-08_17h53.53.079,forced_choiceRT,2021.1.2,Win32,57.34931468,,,,,,,,3,Ontime,h,1,1.9026,7,1,29,2,1,,,,,
,0.77,,,,,,,,,j.PNG,j,60b05d5bc60741f30dd410a0,2021-09-08_17h53.53.079,forced_choiceRT,2021.1.2,Win32,57.34931468,,,,,,,,3,Fast,j,1,1.7717,7,2,30,3,1,,,,,
,0.05,,,,,,,,,g.PNG,g,60b05d5bc60741f30dd410a0,2021-09-08_17h53.53.079,forced_choiceRT,2021.1.2,Win32,57.34931468,,,,,,,,3,Fast,g,1,1.8606,7,3,31,1,1,,,,,
,0.19,,,,,,,,,h.PNG,h,60b05d5bc60741f30dd410a0,2021-09-08_17h53.53.079,forced_choiceRT,2021.1.2,Win32,57.34931468,,,,,,,,3,Ontime,h,1,1.943,8,0,32,2,1,,,,,
,0.7,,,,,,,,,h.PNG,h,60b05d5bc60741f30dd410a0,2021-09-08_17h53.53.079,forced_choiceRT,2021.1.2,Win32,57.34931468,,,,,,,,3,Fast,h,1,1.8685,8,1,33,2,1,,,,,
,0.94,,,,,,,,,f.PNG,f,60b05d5bc60741f30dd410a0,2021-09-08_17h53.53.079,forced_choiceRT,2021.1.2,Win32,57.34931468,,,,,,,,3,Ontime,f,1,1.9729,8,2,34,0,1,,,,,
,1.68,,,,,,,,,j.PNG,j,60b05d5bc60741f30dd410a0,2021-09-08_17h53.53.079,forced_choiceRT,2021.1.2,Win32,57.34931468,,,,,,,,3,Slow,j,1,2.3026,8,3,35,3,1,,,,,
,1.64,,,,,,,,,f.PNG,f,60b05d5bc60741f30dd410a0,2021-09-08_17h53.53.079,forced_choiceRT,2021.1.2,Win32,57.34931468,,,,,,,,3,Ontime,j,0,1.9823,9,0,36,0,1,,,,,
,1.78,,,,,,,,,g.PNG,g,60b05d5bc60741f30dd410a0,2021-09-08_17h53.53.079,forced_choiceRT,2021.1.2,Win32,57.34931468,,,,,,,,3,Slow,f,0,2.2069,9,1,37,1,1,,,,,
,0.44,,,,,,,,,g.PNG,g,60b05d5bc60741f30dd410a0,2021-09-08_17h53.53.079,forced_choiceRT,2021.1.2,Win32,57.34931468,,,,,,,,3,Fast,g,1,1.8959,9,2,38,1,1,,,,,
,1.96,,,,,,,,,h.PNG,h,60b05d5bc60741f30dd410a0,2021-09-08_17h53.53.079,forced_choiceRT,2021.1.2,Win32,57.34931468,,,,,,,,3,Slow,j,0,2.3054,9,3,39,2,1,,,,,
,,,,,,,,,,,,60b05d5bc60741f30dd410a0,2021-09-08_17h53.53.079,forced_choiceRT,2021.1.2,Win32,57.34931468,,,,,,,,,,,,,,,,,,2,0,2,0,1
,1.67,,,,,,,,,f.PNG,f,60b05d5bc60741f30dd410a0,2021-09-08_17h53.53.079,forced_choiceRT,2021.1.2,Win32,57.34931468,,,,,,,,4,Slow,f,1,2.2618,0,0,0,0,1,,,,,
,0.85,,,,,,,,,f.PNG,f,60b05d5bc60741f30dd410a0,2021-09-08_17h53.53.079,forced_choiceRT,2021.1.2,Win32,57.34931468,,,,,,,,4,Ontime,f,1,2.0427,0,1,1,0,1,,,,,
,0.88,,,,,,,,,f.PNG,f,60b05d5bc60741f30dd410a0,2021-09-08_17h53.53.079,forced_choiceRT,2021.1.2,Win32,57.34931468,,,,,,,,4,Ontime,f,1,2.0077,0,2,2,0,1,,,,,
,0.28,,,,,,,,,j.PNG,j,60b05d5bc60741f30dd410a0,2021-09-08_17h53.53.079,forced_choiceRT,2021.1.2,Win32,57.34931468,,,,,,,,4,Ontime,j,1,1.9907,0,3,3,3,1,,,,,
,1.92,,,,,,,,,h.PNG,h,60b05d5bc60741f30dd410a0,2021-09-08_17h53.53.079,forced_choiceRT,2021.1.2,Win32,57.34931468,,,,,,,,4,Slow,h,1,2.5397,1,0,4,2,1,,,,,
,0.86,,,,,,,,,g.PNG,g,60b05d5bc60741f30dd410a0,2021-09-08_17h53.53.079,forced_choiceRT,2021.1.2,Win32,57.34931468,,,,,,,,4,Ontime,g,1,2.0675,1,1,5,1,1,,,,,
,0.84,,,,,,,,,g.PNG,g,60b05d5bc60741f30dd410a0,2021-09-08_17h53.53.079,forced_choiceRT,2021.1.2,Win32,57.34931468,,,,,,,,4,Ontime,g,1,2.0112,1,2,6,1,1,,,,,
,1.32,,,,,,,,,g.PNG,g,60b05d5bc60741f30dd410a0,2021-09-08_17h53.53.079,forced_choiceRT,2021.1.2,Win32,57.34931468,,,,,,,,4,Ontime,g,1,1.9403,1,3,7,1,1,,,,,
,0.39,,,,,,,,,j.PNG,j,60b05d5bc60741f30dd410a0,2021-09-08_17h53.53.079,forced_choiceRT,2021.1.2,Win32,57.34931468,,,,,,,,4,Fast,j,1,1.8344,2,0,8,3,1,,,,,
,1.98,,,,,,,,,j.PNG,j,60b05d5bc60741f30dd410a0,2021-09-08_17h53.53.079,forced_choiceRT,2021.1.2,Win32,57.34931468,,,,,,,,4,Slow,j,1,2.2239,2,1,9,3,1,,,,,
,1.19,,,,,,,,,h.PNG,h,60b05d5bc60741f30dd410a0,2021-09-08_17h53.53.079,forced_choiceRT,2021.1.2,Win32,57.34931468,,,,,,,,4,Ontime,h,1,2.0462,2,2,10,2,1,,,,,
,1.92,,,,,,,,,f.PNG,f,60b05d5bc60741f30dd410a0,2021-09-08_17h53.53.079,forced_choiceRT,2021.1.2,Win32,57.34931468,,,,,,,,4,Ontime,h,0,1.9607,2,3,11,0,1,,,,,
,1.01,,,,,,,,,h.PNG,h,60b05d5bc60741f30dd410a0,2021-09-08_17h53.53.079,forced_choiceRT,2021.1.2,Win32,57.34931468,,,,,,,,4,Ontime,h,1,1.9217,3,0,12,2,1,,,,,
,0.78,,,,,,,,,h.PNG,h,60b05d5bc60741f30dd410a0,2021-09-08_17h53.53.079,forced_choiceRT,2021.1.2,Win32,57.34931468,,,,,,,,4,Ontime,h,1,2.0094,3,1,13,2,1,,,,,
,0.77,,,,,,,,,f.PNG,f,60b05d5bc60741f30dd410a0,2021-09-08_17h53.53.079,forced_choiceRT,2021.1.2,Win32,57.34931468,,,,,,,,4,Fast,f,1,1.8868,3,2,14,0,1,,,,,
,0.47,,,,,,,,,f.PNG,f,60b05d5bc60741f30dd410a0,2021-09-08_17h53.53.079,forced_choiceRT,2021.1.2,Win32,57.34931468,,,,,,,,4,Ontime,f,1,1.9629,3,3,15,0,1,,,,,
,1.08,,,,,,,,,h.PNG,h,60b05d5bc60741f30dd410a0,2021-09-08_17h53.53.079,forced_choiceRT,2021.1.2,Win32,57.34931468,,,,,,,,4,Ontime,h,1,1.9551,4,0,16,2,1,,,,,
,1.59,,,,,,,,,j.PNG,j,60b05d5bc60741f30dd410a0,2021-09-08_17h53.53.079,forced_choiceRT,2021.1.2,Win32,57.34931468,,,,,,,,4,Ontime,h,0,2.0074,4,1,17,3,1,,,,,
,1.7,,,,,,,,,j.PNG,j,60b05d5bc60741f30dd410a0,2021-09-08_17h53.53.079,forced_choiceRT,2021.1.2,Win32,57.34931468,,,,,,,,4,Slow,j,1,2.1297,4,2,18,3,1,,,,,
,0.6,,,,,,,,,j.PNG,j,60b05d5bc60741f30dd410a0,2021-09-08_17h53.53.079,forced_choiceRT,2021.1.2,Win32,57.34931468,,,,,,,,4,Ontime,j,1,1.9376,4,3,19,3,1,,,,,
,0.71,,,,,,,,,h.PNG,h,60b05d5bc60741f30dd410a0,2021-09-08_17h53.53.079,forced_choiceRT,2021.1.2,Win32,57.34931468,,,,,,,,4,Ontime,h,1,1.956,5,0,20,2,1,,,,,
,0.42,,,,,,,,,g.PNG,g,60b05d5bc60741f30dd410a0,2021-09-08_17h53.53.079,forced_choiceRT,2021.1.2,Win32,57.34931468,,,,,,,,4,Ontime,g,1,2.0438,5,1,21,1,1,,,,,
,1.94,,,,,,,,,h.PNG,h,60b05d5bc60741f30dd410a0,2021-09-08_17h53.53.079,forced_choiceRT,2021.1.2,Win32,57.34931468,,,,,,,,4,Slow,h,1,2.5562,5,2,22,2,1,,,,,
,0.49,,,,,,,,,j.PNG,j,60b05d5bc60741f30dd410a0,2021-09-08_17h53.53.079,forced_choiceRT,2021.1.2,Win32,57.34931468,,,,,,,,4,Ontime,j,1,2.0602,5,3,23,3,1,,,,,
,1.51,,,,,,,,,j.PNG,j,60b05d5bc60741f30dd410a0,2021-09-08_17h53.53.079,forced_choiceRT,2021.1.2,Win32,57.34931468,,,,,,,,4,Ontime,j,1,2.0128,6,0,24,3,1,,,,,
,1.74,,,,,,,,,f.PNG,f,60b05d5bc60741f30dd410a0,2021-09-08_17h53.53.079,forced_choiceRT,2021.1.2,Win32,57.34931468,,,,,,,,4,Slow,f,1,2.2712,6,1,25,0,1,,,,,
,0.08,,,,,,,,,h.PNG,h,60b05d5bc60741f30dd410a0,2021-09-08_17h53.53.079,forced_choiceRT,2021.1.2,Win32,57.34931468,,,,,,,,4,Ontime,h,1,1.9432,6,2,26,2,1,,,,,
,1.05,,,,,,,,,f.PNG,f,60b05d5bc60741f30dd410a0,2021-09-08_17h53.53.079,forced_choiceRT,2021.1.2,Win32,57.34931468,,,,,,,,4,Ontime,f,1,1.973,6,3,27,0,1,,,,,
,1,,,,,,,,,f.PNG,f,60b05d5bc60741f30dd410a0,2021-09-08_17h53.53.079,forced_choiceRT,2021.1.2,Win32,57.34931468,,,,,,,,4,Ontime,f,1,1.9272,7,0,28,0,1,,,,,
,0.5,,,,,,,,,f.PNG,f,60b05d5bc60741f30dd410a0,2021-09-08_17h53.53.079,forced_choiceRT,2021.1.2,Win32,57.34931468,,,,,,,,4,Ontime,f,1,2.0149,7,1,29,0,1,,,,,
,1.8,,,,,,,,,g.PNG,g,60b05d5bc60741f30dd410a0,2021-09-08_17h53.53.079,forced_choiceRT,2021.1.2,Win32,57.34931468,,,,,,,,4,Ontime,h,0,1.9551,7,2,30,1,1,,,,,
,1.95,,,,,,,,,g.PNG,g,60b05d5bc60741f30dd410a0,2021-09-08_17h53.53.079,forced_choiceRT,2021.1.2,Win32,57.34931468,,,,,,,,4,Slow,g,1,2.2435,7,3,31,1,1,,,,,
,0.11,,,,,,,,,j.PNG,j,60b05d5bc60741f30dd410a0,2021-09-08_17h53.53.079,forced_choiceRT,2021.1.2,Win32,57.34931468,,,,,,,,4,Ontime,j,1,1.957,8,0,32,3,1,,,,,
,0.21,,,,,,,,,h.PNG,h,60b05d5bc60741f30dd410a0,2021-09-08_17h53.53.079,forced_choiceRT,2021.1.2,Win32,57.34931468,,,,,,,,4,Ontime,h,1,2.0948,8,1,33,2,1,,,,,
,1.99,,,,,,,,,g.PNG,g,60b05d5bc60741f30dd410a0,2021-09-08_17h53.53.079,forced_choiceRT,2021.1.2,Win32,57.34931468,,,,,,,,4,Slow,h,0,2.5311,8,2,34,1,1,,,,,
,1.35,,,,,,,,,h.PNG,h,60b05d5bc60741f30dd410a0,2021-09-08_17h53.53.079,forced_choiceRT,2021.1.2,Win32,57.34931468,,,,,,,,4,Ontime,h,1,1.9727,8,3,35,2,1,,,,,
,1.98,,,,,,,,,g.PNG,g,60b05d5bc60741f30dd410a0,2021-09-08_17h53.53.079,forced_choiceRT,2021.1.2,Win32,57.34931468,,,,,,,,4,Slow,f,0,2.5483,9,0,36,1,1,,,,,
,1.33,,,,,,,,,g.PNG,g,60b05d5bc60741f30dd410a0,2021-09-08_17h53.53.079,forced_choiceRT,2021.1.2,Win32,57.34931468,,,,,,,,4,Fast,g,1,1.8683,9,1,37,1,1,,,,,
,1.6,,,,,,,,,g.PNG,g,60b05d5bc60741f30dd410a0,2021-09-08_17h53.53.079,forced_choiceRT,2021.1.2,Win32,57.34931468,,,,,,,,4,Ontime,g,1,1.9732,9,2,38,1,1,,,,,
,1.07,,,,,,,,,j.PNG,j,60b05d5bc60741f30dd410a0,2021-09-08_17h53.53.079,forced_choiceRT,2021.1.2,Win32,57.34931468,,,,,,,,4,Ontime,j,1,1.9903,9,3,39,3,1,,,,,
,,,,,,,,,,,,60b05d5bc60741f30dd410a0,2021-09-08_17h53.53.079,forced_choiceRT,2021.1.2,Win32,57.34931468,,,,,,,,,,,,,,,,,,3,0,3,0,1
,0.41,,,,,,,,,h.PNG,h,60b05d5bc60741f30dd410a0,2021-09-08_17h53.53.079,forced_choiceRT,2021.1.2,Win32,57.34931468,,,,,,,,5,Ontime,h,1,1.9816,0,0,0,2,1,,,,,
,1.53,,,,,,,,,f.PNG,f,60b05d5bc60741f30dd410a0,2021-09-08_17h53.53.079,forced_choiceRT,2021.1.2,Win32,57.34931468,,,,,,,,5,Ontime,h,0,1.9391,0,1,1,0,1,,,,,
,1.72,,,,,,,,,f.PNG,f,60b05d5bc60741f30dd410a0,2021-09-08_17h53.53.079,forced_choiceRT,2021.1.2,Win32,57.34931468,,,,,,,,5,Ontime,f,1,2.0598,0,2,2,0,1,,,,,
,1.1,,,,,,,,,h.PNG,h,60b05d5bc60741f30dd410a0,2021-09-08_17h53.53.079,forced_choiceRT,2021.1.2,Win32,57.34931468,,,,,,,,5,Fast,h,1,1.8766,0,3,3,2,1,,,,,
,0.62,,,,,,,,,h.PNG,h,60b05d5bc60741f30dd410a0,2021-09-08_17h53.53.079,forced_choiceRT,2021.1.2,Win32,57.34931468,,,,,,,,5,Ontime,h,1,2.0078,1,0,4,2,1,,,,,
,0.76,,,,,,,,,g.PNG,g,60b05d5bc60741f30dd410a0,2021-09-08_17h53.53.079,forced_choiceRT,2021.1.2,Win32,57.34931468,,,,,,,,5,Ontime,g,1,1.9914,1,1,5,1,1,,,,,
,1.17,,,,,,,,,j.PNG,j,60b05d5bc60741f30dd410a0,2021-09-08_17h53.53.079,forced_choiceRT,2021.1.2,Win32,57.34931468,,,,,,,,5,Fast,j,1,1.8334,1,2,6,3,1,,,,,
,1.15,,,,,,,,,f.PNG,f,60b05d5bc60741f30dd410a0,2021-09-08_17h53.53.079,forced_choiceRT,2021.1.2,Win32,57.34931468,,,,,,,,5,Ontime,f,1,2.0603,1,3,7,0,1,,,,,
,0.19,,,,,,,,,f.PNG,f,60b05d5bc60741f30dd410a0,2021-09-08_17h53.53.079,forced_choiceRT,2021.1.2,Win32,57.34931468,,,,,,,,5,Ontime,f,1,2.0427,2,0,8,0,1,,,,,
,1.76,,,,,,,,,g.PNG,g,60b05d5bc60741f30dd410a0,2021-09-08_17h53.53.079,forced_choiceRT,2021.1.2,Win32,57.34931468,,,,,,,,5,Slow,j,0,2.1568,2,1,9,1,1,,,,,
,0.75,,,,,,,,,f.PNG,f,60b05d5bc60741f30dd410a0,2021-09-08_17h53.53.079,forced_choiceRT,2021.1.2,Win32,57.34931468,,,,,,,,5,Ontime,f,1,1.9574,2,2,10,0,1,,,,,
,1.9,,,,,,,,,g.PNG,g,60b05d5bc60741f30dd410a0,2021-09-08_17h53.53.079,forced_choiceRT,2021.1.2,Win32,57.34931468,,,,,,,,5,Slow,g,1,2.2562,2,3,11,1,1,,,,,
,0.71,,,,,,,,,f.PNG,f,60b05d5bc60741f30dd410a0,2021-09-08_17h53.53.079,forced_choiceRT,2021.1.2,Win32,57.34931468,,,,,,,,5,Ontime,f,1,2.011,3,0,12,0,1,,,,,
,1.12,,,,,,,,,h.PNG,h,60b05d5bc60741f30dd410a0,2021-09-08_17h53.53.079,forced_choiceRT,2021.1.2,Win32,57.34931468,,,,,,,,5,Ontime,h,1,2.0318,3,1,13,2,1,,,,,
,0.44,,,,,,,,,f.PNG,f,60b05d5bc60741f30dd410a0,2021-09-08_17h53.53.079,forced_choiceRT,2021.1.2,Win32,57.34931468,,,,,,,,5,Ontime,f,1,1.991,3,2,14,0,1,,,,,
,1.96,,,,,,,,,j.PNG,j,60b05d5bc60741f30dd410a0,2021-09-08_17h53.53.079,forced_choiceRT,2021.1.2,Win32,57.34931468,,,,,,,,5,Slow,j,1,2.4199,3,3,15,3,1,,,,,
,0.74,,,,,,,,,g.PNG,g,60b05d5bc60741f30dd410a0,2021-09-08_17h53.53.079,forced_choiceRT,2021.1.2,Win32,57.34931468,,,,,,,,5,Ontime,g,1,2.0948,4,0,16,1,1,,,,,
,1.94,,,,,,,,,g.PNG,g,60b05d5bc60741f30dd410a0,2021-09-08_17h53.53.079,forced_choiceRT,2021.1.2,Win32,57.34931468,,,,,,,,5,Slow,j,0,2.1471,4,1,17,1,1,,,,,
,0.93,,,,,,,,,f.PNG,f,60b05d5bc60741f30dd410a0,2021-09-08_17h53.53.079,forced_choiceRT,2021.1.2,Win32,57.34931468,,,,,,,,5,Fast,f,1,1.8766,4,2,18,0,1,,,,,
,0.25,,,,,,,,,h.PNG,h,60b05d5bc60741f30dd410a0,2021-09-08_17h53.53.079,forced_choiceRT,2021.1.2,Win32,57.34931468,,,,,,,,5,Ontime,h,1,2.0088,4,3,19,2,1,,,,,
,1.73,,,,,,,,,j.PNG,j,60b05d5bc60741f30dd410a0,2021-09-08_17h53.53.079,forced_choiceRT,2021.1.2,Win32,57.34931468,,,,,,,,5,Slow,f,0,2.2029,5,0,20,3,1,,,,,
,1.82,,,,,,,,,j.PNG,j,60b05d5bc60741f30dd410a0,2021-09-08_17h53.53.079,forced_choiceRT,2021.1.2,Win32,57.34931468,,,,,,,,5,Ontime,j,1,2.0102,5,1,21,3,1,,,,,
,0.36,,,,,,,,,j.PNG,j,60b05d5bc60741f30dd410a0,2021-09-08_17h53.53.079,forced_choiceRT,2021.1.2,Win32,57.34931468,,,,,,,,5,Ontime,j,1,1.9955,5,2,22,3,1,,,,,
,1.43,,,,,,,,,g.PNG,g,60b05d5bc60741f30dd410a0,2021-09-08_17h53.53.079,forced_choiceRT,2021.1.2,Win32,57.34931468,,,,,,,,5,Slow,g,1,2.1235,5,3,23,1,1,,,,,
,0.67,,,,,,,,,h.PNG,h,60b05d5bc60741f30dd410a0,2021-09-08_17h53.53.079,forced_choiceRT,2021.1.2,Win32,57.34931468,,,,,,,,5,Fast,h,1,1.8853,6,0,24,2,1,,,,,
,0.38,,,,,,,,,h.PNG,h,60b05d5bc60741f30dd410a0,2021-09-08_17h53.53.079,forced_choiceRT,2021.1.2,Win32,57.34931468,,,,,,,,5,Ontime,h,1,1.9736,6,1,25,2,1,,,,,
,0.99,,,,,,,,,h.PNG,h,60b05d5bc60741f30dd410a0,2021-09-08_17h53.53.079,forced_choiceRT,2021.1.2,Win32,57.34931468,,,,,,,,5,Ontime,h,1,2.0434,6,2,26,2,1,,,,,
,1.39,,,,,,,,,j.PNG,j,60b05d5bc60741f30dd410a0,2021-09-08_17h53.53.079,forced_choiceRT,2021.1.2,Win32,57.34931468,,,,,,,,5,Fast,f,0,1.8509,6,3,27,3,1,,,,,
,0.06,,,,,,,,,f.PNG,f,60b05d5bc60741f30dd410a0,2021-09-08_17h53.53.079,forced_choiceRT,2021.1.2,Win32,57.34931468,,,,,,,,5,Ontime,f,1,2.041,7,0,28,0,1,,,,,
,0,,,,,,,,,g.PNG,g,60b05d5bc60741f30dd410a0,2021-09-08_17h53.53.079,forced_choiceRT,2021.1.2,Win32,57.34931468,,,,,,,,5,Ontime,g,1,2.0263,7,1,29,1,1,,,,,
,1.63,,,,,,,,,j.PNG,j,60b05d5bc60741f30dd410a0,2021-09-08_17h53.53.079,forced_choiceRT,2021.1.2,Win32,57.34931468,,,,,,,,5,Ontime,h,0,2.0834,7,2,30,3,1,,,,,
,1.42,,,,,,,,,g.PNG,g,60b05d5bc60741f30dd410a0,2021-09-08_17h53.53.079,forced_choiceRT,2021.1.2,Win32,57.34931468,,,,,,,,5,Ontime,f,0,1.9736,7,3,31,1,1,,,,,
,1.47,,,,,,,,,f.PNG,f,60b05d5bc60741f30dd410a0,2021-09-08_17h53.53.079,forced_choiceRT,2021.1.2,Win32,57.34931468,,,,,,,,5,Ontime,f,1,2.0003,8,0,32,0,1,,,,,
,0.28,,,,,,,,,g.PNG,g,60b05d5bc60741f30dd410a0,2021-09-08_17h53.53.079,forced_choiceRT,2021.1.2,Win32,57.34931468,,,,,,,,5,Ontime,g,1,1.9558,8,1,33,1,1,,,,,
,0.29,,,,,,,,,h.PNG,h,60b05d5bc60741f30dd410a0,2021-09-08_17h53.53.079,forced_choiceRT,2021.1.2,Win32,57.34931468,,,,,,,,5,Ontime,h,1,2.0425,8,2,34,2,1,,,,,
,0.04,,,,,,,,,j.PNG,j,60b05d5bc60741f30dd410a0,2021-09-08_17h53.53.079,forced_choiceRT,2021.1.2,Win32,57.34931468,,,,,,,,5,Ontime,j,1,2.0422,8,3,35,3,1,,,,,
,1.44,,,,,,,,,g.PNG,g,60b05d5bc60741f30dd410a0,2021-09-08_17h53.53.079,forced_choiceRT,2021.1.2,Win32,57.34931468,,,,,,,,5,Ontime,g,1,1.9554,9,0,36,1,1,,,,,
,1.27,,,,,,,,,h.PNG,h,60b05d5bc60741f30dd410a0,2021-09-08_17h53.53.079,forced_choiceRT,2021.1.2,Win32,57.34931468,,,,,,,,5,Ontime,h,1,1.9553,9,1,37,2,1,,,,,
,1.2,,,,,,,,,j.PNG,j,60b05d5bc60741f30dd410a0,2021-09-08_17h53.53.079,forced_choiceRT,2021.1.2,Win32,57.34931468,,,,,,,,5,Ontime,j,1,1.9726,9,2,38,3,1,,,,,
,0.41,,,,,,,,,j.PNG,j,60b05d5bc60741f30dd410a0,2021-09-08_17h53.53.079,forced_choiceRT,2021.1.2,Win32,57.34931468,,,,,,,,5,Ontime,j,1,2.0951,9,3,39,3,1,,,,,
,,,,,,,,,,,,60b05d5bc60741f30dd410a0,2021-09-08_17h53.53.079,forced_choiceRT,2021.1.2,Win32,57.34931468,,,,,,,,,,,,,,,,,,4,0,4,0,1
,0.53,,,,,,,,,g.PNG,g,60b05d5bc60741f30dd410a0,2021-09-08_17h53.53.079,forced_choiceRT,2021.1.2,Win32,57.34931468,,,,,,,,6,Ontime,g,1,2.0246,0,0,0,1,1,,,,,
,1.98,,,,,,,,,j.PNG,j,60b05d5bc60741f30dd410a0,2021-09-08_17h53.53.079,forced_choiceRT,2021.1.2,Win32,57.34931468,,,,,,,,6,Slow,j,1,2.5489,0,1,1,3,1,,,,,
,1.06,,,,,,,,,j.PNG,j,60b05d5bc60741f30dd410a0,2021-09-08_17h53.53.079,forced_choiceRT,2021.1.2,Win32,57.34931468,,,,,,,,6,Fast,j,1,1.7471,0,2,2,3,1,,,,,
,1.31,,,,,,,,,f.PNG,f,60b05d5bc60741f30dd410a0,2021-09-08_17h53.53.079,forced_choiceRT,2021.1.2,Win32,57.34931468,,,,,,,,6,Fast,j,0,0.0013,0,3,3,0,1,,,,,
,0.87,,,,,,,,,f.PNG,f,60b05d5bc60741f30dd410a0,2021-09-08_17h53.53.079,forced_choiceRT,2021.1.2,Win32,57.34931468,,,,,,,,6,Ontime,f,1,2.0265,1,0,4,0,1,,,,,
,0.04,,,,,,,,,j.PNG,j,60b05d5bc60741f30dd410a0,2021-09-08_17h53.53.079,forced_choiceRT,2021.1.2,Win32,57.34931468,,,,,,,,6,Ontime,j,1,2.079,1,1,5,3,1,,,,,
,1,,,,,,,,,h.PNG,h,60b05d5bc60741f30dd410a0,2021-09-08_17h53.53.079,forced_choiceRT,2021.1.2,Win32,57.34931468,,,,,,,,6,Ontime,h,1,2.0252,1,2,6,2,1,,,,,
,1.77,,,,,,,,,f.PNG,f,60b05d5bc60741f30dd410a0,2021-09-08_17h53.53.079,forced_choiceRT,2021.1.2,Win32,57.34931468,,,,,,,,6,Slow,j,0,2.1296,1,3,7,0,1,,,,,
,1.42,,,,,,,,,h.PNG,h,60b05d5bc60741f30dd410a0,2021-09-08_17h53.53.079,forced_choiceRT,2021.1.2,Win32,57.34931468,,,,,,,,6,Fast,f,0,1.8865,2,0,8,2,1,,,,,
,1.56,,,,,,,,,h.PNG,h,60b05d5bc60741f30dd410a0,2021-09-08_17h53.53.079,forced_choiceRT,2021.1.2,Win32,57.34931468,,,,,,,,6,Ontime,h,1,1.9378,2,1,9,2,1,,,,,
,0.12,,,,,,,,,f.PNG,f,60b05d5bc60741f30dd410a0,2021-09-08_17h53.53.079,forced_choiceRT,2021.1.2,Win32,57.34931468,,,,,,,,6,Ontime,f,1,1.9735,2,2,10,0,1,,,,,
,1.81,,,,,,,,,h.PNG,h,60b05d5bc60741f30dd410a0,2021-09-08_17h53.53.079,forced_choiceRT,2021.1.2,Win32,57.34931468,,,,,,,,6,Ontime,j,0,2.0083,2,3,11,2,1,,,,,
,1.18,,,,,,,,,j.PNG,j,60b05d5bc60741f30dd410a0,2021-09-08_17h53.53.079,forced_choiceRT,2021.1.2,Win32,57.34931468,,,,,,,,6,Ontime,j,1,1.9381,3,0,12,3,1,,,,,
,1.13,,,,,,,,,h.PNG,h,60b05d5bc60741f30dd410a0,2021-09-08_17h53.53.079,forced_choiceRT,2021.1.2,Win32,57.34931468,,,,,,,,6,Ontime,h,1,1.9035,3,1,13,2,1,,,,,
,1.84,,,,,,,,,j.PNG,j,60b05d5bc60741f30dd410a0,2021-09-08_17h53.53.079,forced_choiceRT,2021.1.2,Win32,57.34931468,,,,,,,,6,Slow,g,0,2.2176,3,2,14,3,1,,,,,
,1.17,,,,,,,,,g.PNG,g,60b05d5bc60741f30dd410a0,2021-09-08_17h53.53.079,forced_choiceRT,2021.1.2,Win32,57.34931468,,,,,,,,6,Fast,g,1,1.8714,3,3,15,1,1,,,,,
,1.74,,,,,,,,,g.PNG,g,60b05d5bc60741f30dd410a0,2021-09-08_17h53.53.079,forced_choiceRT,2021.1.2,Win32,57.34931468,,,,,,,,6,Slow,g,1,2.1302,4,0,16,1,1,,,,,
,1.68,,,,,,,,,f.PNG,f,60b05d5bc60741f30dd410a0,2021-09-08_17h53.53.079,forced_choiceRT,2021.1.2,Win32,57.34931468,,,,,,,,6,Slow,f,1,2.1999,4,1,17,0,1,,,,,
,0.73,,,,,,,,,h.PNG,h,60b05d5bc60741f30dd410a0,2021-09-08_17h53.53.079,forced_choiceRT,2021.1.2,Win32,57.34931468,,,,,,,,6,Slow,h,1,2.1837,4,2,18,2,1,,,,,
,0,,,,,,,,,h.PNG,h,60b05d5bc60741f30dd410a0,2021-09-08_17h53.53.079,forced_choiceRT,2021.1.2,Win32,57.34931468,,,,,,,,6,Ontime,h,1,2.06,4,3,19,2,1,,,,,
,0.83,,,,,,,,,j.PNG,j,60b05d5bc60741f30dd410a0,2021-09-08_17h53.53.079,forced_choiceRT,2021.1.2,Win32,57.34931468,,,,,,,,6,Ontime,j,1,2.0083,5,0,20,3,1,,,,,
,0.34,,,,,,,,,f.PNG,f,60b05d5bc60741f30dd410a0,2021-09-08_17h53.53.079,forced_choiceRT,2021.1.2,Win32,57.34931468,,,,,,,,6,Ontime,f,1,1.9557,5,1,21,0,1,,,,,
,1.79,,,,,,,,,j.PNG,j,60b05d5bc60741f30dd410a0,2021-09-08_17h53.53.079,forced_choiceRT,2021.1.2,Win32,57.34931468,,,,,,,,6,Slow,g,0,2.2174,5,2,22,3,1,,,,,
,0.16,,,,,,,,,j.PNG,j,60b05d5bc60741f30dd410a0,2021-09-08_17h53.53.079,forced_choiceRT,2021.1.2,Win32,57.34931468,,,,,,,,6,Ontime,j,1,1.9543,5,3,23,3,1,,,,,
,0.11,,,,,,,,,h.PNG,h,60b05d5bc60741f30dd410a0,2021-09-08_17h53.53.079,forced_choiceRT,2021.1.2,Win32,57.34931468,,,,,,,,6,Ontime,h,1,1.9562,6,0,24,2,1,,,,,
,1.46,,,,,,,,,g.PNG,g,60b05d5bc60741f30dd410a0,2021-09-08_17h53.53.079,forced_choiceRT,2021.1.2,Win32,57.34931468,,,,,,,,6,Ontime,g,1,2.0078,6,1,25,1,1,,,,,
,0.23,,,,,,,,,f.PNG,f,60b05d5bc60741f30dd410a0,2021-09-08_17h53.53.079,forced_choiceRT,2021.1.2,Win32,57.34931468,,,,,,,,6,Ontime,f,1,1.974,6,2,26,0,1,,,,,
,0.78,,,,,,,,,g.PNG,g,60b05d5bc60741f30dd410a0,2021-09-08_17h53.53.079,forced_choiceRT,2021.1.2,Win32,57.34931468,,,,,,,,6,Ontime,g,1,1.9039,6,3,27,1,1,,,,,
,0.45,,,,,,,,,g.PNG,g,60b05d5bc60741f30dd410a0,2021-09-08_17h53.53.079,forced_choiceRT,2021.1.2,Win32,57.34931468,,,,,,,,6,Ontime,g,1,1.9741,7,0,28,1,1,,,,,
,1.72,,,,,,,,,f.PNG,f,60b05d5bc60741f30dd410a0,2021-09-08_17h53.53.079,forced_choiceRT,2021.1.2,Win32,57.34931468,,,,,,,,6,Slow,g,0,2.2519,7,1,29,0,1,,,,,
,0.71,,,,,,,,,h.PNG,h,60b05d5bc60741f30dd410a0,2021-09-08_17h53.53.079,forced_choiceRT,2021.1.2,Win32,57.34931468,,,,,,,,6,Ontime,h,1,2.0607,7,2,30,2,1,,,,,
,1.84,,,,,,,,,g.PNG,g,60b05d5bc60741f30dd410a0,2021-09-08_17h53.53.079,forced_choiceRT,2021.1.2,Win32,57.34931468,,,,,,,,6,Slow,h,0,2.2028,7,3,31,1,1,,,,,
,0.98,,,,,,,,,f.PNG,f,60b05d5bc60741f30dd410a0,2021-09-08_17h53.53.079,forced_choiceRT,2021.1.2,Win32,57.34931468,,,,,,,,6,Slow,f,1,2.1028,8,0,32,0,1,,,,,
,0.81,,,,,,,,,f.PNG,f,60b05d5bc60741f30dd410a0,2021-09-08_17h53.53.079,forced_choiceRT,2021.1.2,Win32,57.34931468,,,,,,,,6,Ontime,f,1,1.9557,8,1,33,0,1,,,,,
,1.41,,,,,,,,,g.PNG,g,60b05d5bc60741f30dd410a0,2021-09-08_17h53.53.079,forced_choiceRT,2021.1.2,Win32,57.34931468,,,,,,,,6,Ontime,g,1,1.9762,8,2,34,1,1,,,,,
,1.62,,,,,,,,,g.PNG,g,60b05d5bc60741f30dd410a0,2021-09-08_17h53.53.079,forced_choiceRT,2021.1.2,Win32,57.34931468,,,,,,,,6,Ontime,g,1,2.0255,8,3,35,1,1,,,,,
,0.75,,,,,,,,,j.PNG,j,60b05d5bc60741f30dd410a0,2021-09-08_17h53.53.079,forced_choiceRT,2021.1.2,Win32,57.34931468,,,,,,,,6,Ontime,j,1,2.0089,9,0,36,3,1,,,,,
,1.78,,,,,,,,,g.PNG,g,60b05d5bc60741f30dd410a0,2021-09-08_17h53.53.079,forced_choiceRT,2021.1.2,Win32,57.34931468,,,,,,,,6,Slow,g,1,2.3222,9,1,37,1,1,,,,,
,1.36,,,,,,,,,h.PNG,h,60b05d5bc60741f30dd410a0,2021-09-08_17h53.53.079,forced_choiceRT,2021.1.2,Win32,57.34931468,,,,,,,,6,Ontime,g,0,2.0254,9,2,38,2,1,,,,,
,1.31,,,,,,,,,j.PNG,j,60b05d5bc60741f30dd410a0,2021-09-08_17h53.53.079,forced_choiceRT,2021.1.2,Win32,57.34931468,,,,,,,,6,Ontime,j,1,2.0793,9,3,39,3,1,,,,,
,,,,,,,,,,,,60b05d5bc60741f30dd410a0,2021-09-08_17h53.53.079,forced_choiceRT,2021.1.2,Win32,57.34931468,,,,,,,,,,,,,,,,,,5,0,5,0,1
,1.18,,,,,,,,,j.PNG,j,60b05d5bc60741f30dd410a0,2021-09-08_17h53.53.079,forced_choiceRT,2021.1.2,Win32,57.34931468,,,,,,,,7,Ontime,j,1,1.9917,0,0,0,3,1,,,,,
,0.48,,,,,,,,,h.PNG,h,60b05d5bc60741f30dd410a0,2021-09-08_17h53.53.079,forced_choiceRT,2021.1.2,Win32,57.34931468,,,,,,,,7,Ontime,h,1,1.9815,0,1,1,2,1,,,,,
,1.52,,,,,,,,,g.PNG,g,60b05d5bc60741f30dd410a0,2021-09-08_17h53.53.079,forced_choiceRT,2021.1.2,Win32,57.34931468,,,,,,,,7,Ontime,g,1,2.0777,0,2,2,1,1,,,,,
,0.94,,,,,,,,,f.PNG,f,60b05d5bc60741f30dd410a0,2021-09-08_17h53.53.079,forced_choiceRT,2021.1.2,Win32,57.34931468,,,,,,,,7,Slow,f,1,2.1033,0,3,3,0,1,,,,,
,1.42,,,,,,,,,g.PNG,g,60b05d5bc60741f30dd410a0,2021-09-08_17h53.53.079,forced_choiceRT,2021.1.2,Win32,57.34931468,,,,,,,,7,Fast,g,1,1.851,1,0,4,1,1,,,,,
,1.61,,,,,,,,,f.PNG,f,60b05d5bc60741f30dd410a0,2021-09-08_17h53.53.079,forced_choiceRT,2021.1.2,Win32,57.34931468,,,,,,,,7,Fast,j,0,1.822,1,1,5,0,1,,,,,
,1.47,,,,,,,,,f.PNG,f,60b05d5bc60741f30dd410a0,2021-09-08_17h53.53.079,forced_choiceRT,2021.1.2,Win32,57.34931468,,,,,,,,7,Fast,f,1,1.78,1,2,6,0,1,,,,,
,1.18,,,,,,,,,h.PNG,h,60b05d5bc60741f30dd410a0,2021-09-08_17h53.53.079,forced_choiceRT,2021.1.2,Win32,57.34931468,,,,,,,,7,Ontime,h,1,2.0781,1,3,7,2,1,,,,,
,1.71,,,,,,,,,g.PNG,g,60b05d5bc60741f30dd410a0,2021-09-08_17h53.53.079,forced_choiceRT,2021.1.2,Win32,57.34931468,,,,,,,,7,Ontime,h,0,2.078,2,0,8,1,1,,,,,
,0.68,,,,,,,,,j.PNG,j,60b05d5bc60741f30dd410a0,2021-09-08_17h53.53.079,forced_choiceRT,2021.1.2,Win32,57.34931468,,,,,,,,7,Ontime,j,1,2.0602,2,1,9,3,1,,,,,
,1.58,,,,,,,,,f.PNG,f,60b05d5bc60741f30dd410a0,2021-09-08_17h53.53.079,forced_choiceRT,2021.1.2,Win32,57.34931468,,,,,,,,7,Slow,f,1,2.1301,2,2,10,0,1,,,,,
,0.82,,,,,,,,,h.PNG,h,60b05d5bc60741f30dd410a0,2021-09-08_17h53.53.079,forced_choiceRT,2021.1.2,Win32,57.34931468,,,,,,,,7,Ontime,h,1,2.0783,2,3,11,2,1,,,,,
,1.52,,,,,,,,,g.PNG,g,60b05d5bc60741f30dd410a0,2021-09-08_17h53.53.079,forced_choiceRT,2021.1.2,Win32,57.34931468,,,,,,,,7,Ontime,f,0,2.061,3,0,12,1,1,,,,,
,0.07,,,,,,,,,f.PNG,f,60b05d5bc60741f30dd410a0,2021-09-08_17h53.53.079,forced_choiceRT,2021.1.2,Win32,57.34931468,,,,,,,,7,Ontime,f,1,1.958,3,1,13,0,1,,,,,
,0.04,,,,,,,,,g.PNG,g,60b05d5bc60741f30dd410a0,2021-09-08_17h53.53.079,forced_choiceRT,2021.1.2,Win32,57.34931468,,,,,,,,7,Ontime,g,1,1.991,3,2,14,1,1,,,,,
,0.17,,,,,,,,,j.PNG,j,60b05d5bc60741f30dd410a0,2021-09-08_17h53.53.079,forced_choiceRT,2021.1.2,Win32,57.34931468,,,,,,,,7,Fast,j,1,1.8691,3,3,15,3,1,,,,,
,1.71,,,,,,,,,j.PNG,j,60b05d5bc60741f30dd410a0,2021-09-08_17h53.53.079,forced_choiceRT,2021.1.2,Win32,57.34931468,,,,,,,,7,Slow,j,1,2.1476,4,0,16,3,1,,,,,
,0.83,,,,,,,,,h.PNG,h,60b05d5bc60741f30dd410a0,2021-09-08_17h53.53.079,forced_choiceRT,2021.1.2,Win32,57.34931468,,,,,,,,7,Ontime,h,1,1.9035,4,1,17,2,1,,,,,
,1.98,,,,,,,,,h.PNG,h,60b05d5bc60741f30dd410a0,2021-09-08_17h53.53.079,forced_choiceRT,2021.1.2,Win32,57.34931468,,,,,,,,7,Slow,h,1,2.5835,4,2,18,2,1,,,,,
,1.36,,,,,,,,,g.PNG,g,60b05d5bc60741f30dd410a0,2021-09-08_17h53.53.079,forced_choiceRT,2021.1.2,Win32,57.34931468,,,,,,,,7,Ontime,g,1,2.0948,4,3,19,1,1,,,,,
,1.98,,,,,,,,,g.PNG,g,60b05d5bc60741f30dd410a0,2021-09-08_17h53.53.079,forced_choiceRT,2021.1.2,Win32,57.34931468,,,,,,,,7,Slow,j,0,2.2001,5,0,20,1,1,,,,,
,1.94,,,,,,,,,h.PNG,h,60b05d5bc60741f30dd410a0,2021-09-08_17h53.53.079,forced_choiceRT,2021.1.2,Win32,57.34931468,,,,,,,,7,Ontime,g,0,1.9562,5,1,21,2,1,,,,,
,1.3,,,,,,,,,g.PNG,g,60b05d5bc60741f30dd410a0,2021-09-08_17h53.53.079,forced_choiceRT,2021.1.2,Win32,57.34931468,,,,,,,,7,Ontime,g,1,1.9732,5,2,22,1,1,,,,,
,1.39,,,,,,,,,j.PNG,j,60b05d5bc60741f30dd410a0,2021-09-08_17h53.53.079,forced_choiceRT,2021.1.2,Win32,57.34931468,,,,,,,,7,Ontime,j,1,1.9563,5,3,23,3,1,,,,,
,0.29,,,,,,,,,h.PNG,h,60b05d5bc60741f30dd410a0,2021-09-08_17h53.53.079,forced_choiceRT,2021.1.2,Win32,57.34931468,,,,,,,,7,Ontime,h,1,2.0085,6,0,24,2,1,,,,,
,0.63,,,,,,,,,f.PNG,f,60b05d5bc60741f30dd410a0,2021-09-08_17h53.53.079,forced_choiceRT,2021.1.2,Win32,57.34931468,,,,,,,,7,Ontime,f,1,1.9738,6,1,25,0,1,,,,,
,1.58,,,,,,,,,f.PNG,f,60b05d5bc60741f30dd410a0,2021-09-08_17h53.53.079,forced_choiceRT,2021.1.2,Win32,57.34931468,,,,,,,,7,Ontime,f,1,2.0436,6,2,26,0,1,,,,,
,1.24,,,,,,,,,g.PNG,g,60b05d5bc60741f30dd410a0,2021-09-08_17h53.53.079,forced_choiceRT,2021.1.2,Win32,57.34931468,,,,,,,,7,Fast,g,1,1.8172,6,3,27,1,1,,,,,
,1.73,,,,,,,,,f.PNG,f,60b05d5bc60741f30dd410a0,2021-09-08_17h53.53.079,forced_choiceRT,2021.1.2,Win32,57.34931468,,,,,,,,7,Slow,f,1,2.1125,7,0,28,0,1,,,,,
,1.12,,,,,,,,,j.PNG,j,60b05d5bc60741f30dd410a0,2021-09-08_17h53.53.079,forced_choiceRT,2021.1.2,Win32,57.34931468,,,,,,,,7,Ontime,j,1,2.0433,7,1,29,3,1,,,,,
,1.11,,,,,,,,,j.PNG,j,60b05d5bc60741f30dd410a0,2021-09-08_17h53.53.079,forced_choiceRT,2021.1.2,Win32,57.34931468,,,,,,,,7,Ontime,j,1,2.0951,7,2,30,3,1,,,,,
,1.42,,,,,,,,,f.PNG,f,60b05d5bc60741f30dd410a0,2021-09-08_17h53.53.079,forced_choiceRT,2021.1.2,Win32,57.34931468,,,,,,,,7,Ontime,f,1,1.9728,7,3,31,0,1,,,,,
,1.73,,,,,,,,,h.PNG,h,60b05d5bc60741f30dd410a0,2021-09-08_17h53.53.079,forced_choiceRT,2021.1.2,Win32,57.34931468,,,,,,,,7,Slow,f,0,2.3389,8,0,32,2,1,,,,,
,0.88,,,,,,,,,j.PNG,j,60b05d5bc60741f30dd410a0,2021-09-08_17h53.53.079,forced_choiceRT,2021.1.2,Win32,57.34931468,,,,,,,,7,Ontime,j,1,1.9735,8,1,33,3,1,,,,,
,1.6,,,,,,,,,g.PNG,g,60b05d5bc60741f30dd410a0,2021-09-08_17h53.53.079,forced_choiceRT,2021.1.2,Win32,57.34931468,,,,,,,,7,Slow,g,1,2.1298,8,2,34,1,1,,,,,
,1.68,,,,,,,,,f.PNG,f,60b05d5bc60741f30dd410a0,2021-09-08_17h53.53.079,forced_choiceRT,2021.1.2,Win32,57.34931468,,,,,,,,7,Ontime,f,1,2.0774,8,3,35,0,1,,,,,
,0.16,,,,,,,,,h.PNG,h,60b05d5bc60741f30dd410a0,2021-09-08_17h53.53.079,forced_choiceRT,2021.1.2,Win32,57.34931468,,,,,,,,7,Ontime,h,1,1.9561,9,0,36,2,1,,,,,
,1.15,,,,,,,,,h.PNG,h,60b05d5bc60741f30dd410a0,2021-09-08_17h53.53.079,forced_choiceRT,2021.1.2,Win32,57.34931468,,,,,,,,7,Ontime,h,1,2.0435,9,1,37,2,1,,,,,
,1.93,,,,,,,,,j.PNG,j,60b05d5bc60741f30dd410a0,2021-09-08_17h53.53.079,forced_choiceRT,2021.1.2,Win32,57.34931468,,,,,,,,7,Slow,h,0,2.3219,9,2,38,3,1,,,,,
,0.47,,,,,,,,,j.PNG,j,60b05d5bc60741f30dd410a0,2021-09-08_17h53.53.079,forced_choiceRT,2021.1.2,Win32,57.34931468,,,,,,,,7,Ontime,j,1,1.9732,9,3,39,3,1,,,,,
,,,,,,,,,,,,60b05d5bc60741f30dd410a0,2021-09-08_17h53.53.079,forced_choiceRT,2021.1.2,Win32,57.34931468,,,,,,,,,,,,,,,,,,6,0,6,0,1
,1.81,,,,,,,,,g.PNG,g,60b05d5bc60741f30dd410a0,2021-09-08_17h53.53.079,forced_choiceRT,2021.1.2,Win32,57.34931468,,,,,,,,8,Slow,j,0,2.1694,0,0,0,1,1,,,,,
,0.02,,,,,,,,,j.PNG,j,60b05d5bc60741f30dd410a0,2021-09-08_17h53.53.079,forced_choiceRT,2021.1.2,Win32,57.34931468,,,,,,,,8,Ontime,j,1,1.9729,0,1,1,3,1,,,,,
,1.99,,,,,,,,,g.PNG,g,60b05d5bc60741f30dd410a0,2021-09-08_17h53.53.079,forced_choiceRT,2021.1.2,Win32,57.34931468,,,,,,,,8,Slow,g,1,2.5665,0,2,2,1,1,,,,,
,0.73,,,,,,,,,f.PNG,f,60b05d5bc60741f30dd410a0,2021-09-08_17h53.53.079,forced_choiceRT,2021.1.2,Win32,57.34931468,,,,,,,,8,Ontime,f,1,2.0281,0,3,3,0,1,,,,,
,0.37,,,,,,,,,j.PNG,j,60b05d5bc60741f30dd410a0,2021-09-08_17h53.53.079,forced_choiceRT,2021.1.2,Win32,57.34931468,,,,,,,,8,Ontime,j,1,1.966,1,0,4,3,1,,,,,
,0.64,,,,,,,,,g.PNG,g,60b05d5bc60741f30dd410a0,2021-09-08_17h53.53.079,forced_choiceRT,2021.1.2,Win32,57.34931468,,,,,,,,8,Ontime,g,1,1.9379,1,1,5,1,1,,,,,
,0.42,,,,,,,,,h.PNG,h,60b05d5bc60741f30dd410a0,2021-09-08_17h53.53.079,forced_choiceRT,2021.1.2,Win32,57.34931468,,,,,,,,8,Ontime,h,1,1.9564,1,2,6,2,1,,,,,
,1.13,,,,,,,,,j.PNG,j,60b05d5bc60741f30dd410a0,2021-09-08_17h53.53.079,forced_choiceRT,2021.1.2,Win32,57.34931468,,,,,,,,8,Fast,j,1,1.8356,1,3,7,3,1,,,,,
,0.13,,,,,,,,,f.PNG,f,60b05d5bc60741f30dd410a0,2021-09-08_17h53.53.079,forced_choiceRT,2021.1.2,Win32,57.34931468,,,,,,,,8,Ontime,f,1,1.9907,2,0,8,0,1,,,,,
,1.39,,,,,,,,,g.PNG,g,60b05d5bc60741f30dd410a0,2021-09-08_17h53.53.079,forced_choiceRT,2021.1.2,Win32,57.34931468,,,,,,,,8,Ontime,g,1,2.0489,2,1,9,1,1,,,,,
,0.77,,,,,,,,,f.PNG,f,60b05d5bc60741f30dd410a0,2021-09-08_17h53.53.079,forced_choiceRT,2021.1.2,Win32,57.34931468,,,,,,,,8,Ontime,f,1,2.026,2,2,10,0,1,,,,,
,1.64,,,,,,,,,h.PNG,h,60b05d5bc60741f30dd410a0,2021-09-08_17h53.53.079,forced_choiceRT,2021.1.2,Win32,57.34931468,,,,,,,,8,Slow,h,1,2.1123,2,3,11,2,1,,,,,
,0.82,,,,,,,,,f.PNG,f,60b05d5bc60741f30dd410a0,2021-09-08_17h53.53.079,forced_choiceRT,2021.1.2,Win32,57.34931468,,,,,,,,8,Ontime,f,1,2.0428,3,0,12,0,1,,,,,
,1.97,,,,,,,,,j.PNG,j,60b05d5bc60741f30dd410a0,2021-09-08_17h53.53.079,forced_choiceRT,2021.1.2,Win32,57.34931468,,,,,,,,8,Slow,j,1,2.1728,3,1,13,3,1,,,,,
,1.39,,,,,,,,,g.PNG,g,60b05d5bc60741f30dd410a0,2021-09-08_17h53.53.079,forced_choiceRT,2021.1.2,Win32,57.34931468,,,,,,,,8,Slow,g,1,2.1205,3,2,14,1,1,,,,,
,1.91,,,,,,,,,f.PNG,f,60b05d5bc60741f30dd410a0,2021-09-08_17h53.53.079,forced_choiceRT,2021.1.2,Win32,57.34931468,,,,,,,,8,Slow,g,0,2.188,3,3,15,0,1,,,,,
,0.18,,,,,,,,,f.PNG,f,60b05d5bc60741f30dd410a0,2021-09-08_17h53.53.079,forced_choiceRT,2021.1.2,Win32,57.34931468,,,,,,,,8,Fast,f,1,0.8987,4,0,16,0,1,,,,,
,0.21,,,,,,,,,h.PNG,h,60b05d5bc60741f30dd410a0,2021-09-08_17h53.53.079,forced_choiceRT,2021.1.2,Win32,57.34931468,,,,,,,,8,Ontime,h,1,1.9399,4,1,17,2,1,,,,,
,1.38,,,,,,,,,j.PNG,j,60b05d5bc60741f30dd410a0,2021-09-08_17h53.53.079,forced_choiceRT,2021.1.2,Win32,57.34931468,,,,,,,,8,Slow,j,1,2.1119,4,2,18,3,1,,,,,
,0.85,,,,,,,,,j.PNG,j,60b05d5bc60741f30dd410a0,2021-09-08_17h53.53.079,forced_choiceRT,2021.1.2,Win32,57.34931468,,,,,,,,8,Ontime,j,1,2.0256,4,3,19,3,1,,,,,
,0.24,,,,,,,,,h.PNG,h,60b05d5bc60741f30dd410a0,2021-09-08_17h53.53.079,forced_choiceRT,2021.1.2,Win32,57.34931468,,,,,,,,8,Ontime,h,1,2.0939,5,0,20,2,1,,,,,
,0.72,,,,,,,,,h.PNG,h,60b05d5bc60741f30dd410a0,2021-09-08_17h53.53.079,forced_choiceRT,2021.1.2,Win32,57.34931468,,,,,,,,8,Ontime,h,1,1.9908,5,1,21,2,1,,,,,
,0.12,,,,,,,,,f.PNG,f,60b05d5bc60741f30dd410a0,2021-09-08_17h53.53.079,forced_choiceRT,2021.1.2,Win32,57.34931468,,,,,,,,8,Ontime,f,1,2.043,5,2,22,0,1,,,,,
,1.34,,,,,,,,,j.PNG,j,60b05d5bc60741f30dd410a0,2021-09-08_17h53.53.079,forced_choiceRT,2021.1.2,Win32,57.34931468,,,,,,,,8,Ontime,j,1,2.0793,5,3,23,3,1,,,,,
,1.21,,,,,,,,,h.PNG,h,60b05d5bc60741f30dd410a0,2021-09-08_17h53.53.079,forced_choiceRT,2021.1.2,Win32,57.34931468,,,,,,,,8,Ontime,h,1,1.9036,6,0,24,2,1,,,,,
,0.32,,,,,,,,,f.PNG,f,60b05d5bc60741f30dd410a0,2021-09-08_17h53.53.079,forced_choiceRT,2021.1.2,Win32,57.34931468,,,,,,,,8,Ontime,f,1,2.0258,6,1,25,0,1,,,,,
,1.17,,,,,,,,,j.PNG,j,60b05d5bc60741f30dd410a0,2021-09-08_17h53.53.079,forced_choiceRT,2021.1.2,Win32,57.34931468,,,,,,,,8,Ontime,j,1,2.0091,6,2,26,3,1,,,,,
,0.22,,,,,,,,,g.PNG,g,60b05d5bc60741f30dd410a0,2021-09-08_17h53.53.079,forced_choiceRT,2021.1.2,Win32,57.34931468,,,,,,,,8,Ontime,g,1,1.9382,6,3,27,1,1,,,,,
,1.17,,,,,,,,,j.PNG,j,60b05d5bc60741f30dd410a0,2021-09-08_17h53.53.079,forced_choiceRT,2021.1.2,Win32,57.34931468,,,,,,,,8,Fast,j,1,1.8672,7,0,28,3,1,,,,,
,0.28,,,,,,,,,h.PNG,h,60b05d5bc60741f30dd410a0,2021-09-08_17h53.53.079,forced_choiceRT,2021.1.2,Win32,57.34931468,,,,,,,,8,Ontime,h,1,2.0258,7,1,29,2,1,,,,,
,1.05,,,,,,,,,h.PNG,h,60b05d5bc60741f30dd410a0,2021-09-08_17h53.53.079,forced_choiceRT,2021.1.2,Win32,57.34931468,,,,,,,,8,Ontime,h,1,2.0593,7,2,30,2,1,,,,,
,1.36,,,,,,,,,f.PNG,f,60b05d5bc60741f30dd410a0,2021-09-08_17h53.53.079,forced_choiceRT,2021.1.2,Win32,57.34931468,,,,,,,,8,Ontime,f,1,1.9025,7,3,31,0,1,,,,,
,0.23,,,,,,,,,g.PNG,g,60b05d5bc60741f30dd410a0,2021-09-08_17h53.53.079,forced_choiceRT,2021.1.2,Win32,57.34931468,,,,,,,,8,Ontime,g,1,2.0254,8,0,32,1,1,,,,,
,0.67,,,,,,,,,g.PNG,g,60b05d5bc60741f30dd410a0,2021-09-08_17h53.53.079,forced_choiceRT,2021.1.2,Win32,57.34931468,,,,,,,,8,Ontime,g,1,2.0435,8,1,33,1,1,,,,,
,1.48,,,,,,,,,h.PNG,h,60b05d5bc60741f30dd410a0,2021-09-08_17h53.53.079,forced_choiceRT,2021.1.2,Win32,57.34931468,,,,,,,,8,Ontime,h,1,2.0425,8,2,34,2,1,,,,,
,1.66,,,,,,,,,g.PNG,g,60b05d5bc60741f30dd410a0,2021-09-08_17h53.53.079,forced_choiceRT,2021.1.2,Win32,57.34931468,,,,,,,,8,Slow,g,1,2.2006,8,3,35,1,1,,,,,
,0.1,,,,,,,,,j.PNG,j,60b05d5bc60741f30dd410a0,2021-09-08_17h53.53.079,forced_choiceRT,2021.1.2,Win32,57.34931468,,,,,,,,8,Ontime,j,1,2.0083,9,0,36,3,1,,,,,
,0.77,,,,,,,,,g.PNG,g,60b05d5bc60741f30dd410a0,2021-09-08_17h53.53.079,forced_choiceRT,2021.1.2,Win32,57.34931468,,,,,,,,8,Ontime,g,1,2.0777,9,1,37,1,1,,,,,
,1.32,,,,,,,,,f.PNG,f,60b05d5bc60741f30dd410a0,2021-09-08_17h53.53.079,forced_choiceRT,2021.1.2,Win32,57.34931468,,,,,,,,8,Ontime,f,1,1.9912,9,2,38,0,1,,,,,
,1.05,,,,,,,,,h.PNG,h,60b05d5bc60741f30dd410a0,2021-09-08_17h53.53.079,forced_choiceRT,2021.1.2,Win32,57.34931468,,,,,,,,8,Ontime,h,1,2.0433,9,3,39,2,1,,,,,
,,,,,,,,,,,,60b05d5bc60741f30dd410a0,2021-09-08_17h53.53.079,forced_choiceRT,2021.1.2,Win32,57.34931468,,,,,,,,,,,,,,,,,,7,0,7,0,1
,1,,,,,,,,,j.PNG,j,60b05d5bc60741f30dd410a0,2021-09-08_17h53.53.079,forced_choiceRT,2021.1.2,Win32,57.34931468,,,,,,,,9,Fast,j,1,1.8346,0,0,0,3,1,,,,,
,1.17,,,,,,,,,j.PNG,j,60b05d5bc60741f30dd410a0,2021-09-08_17h53.53.079,forced_choiceRT,2021.1.2,Win32,57.34931468,,,,,,,,9,Ontime,j,1,2.0781,0,1,1,3,1,,,,,
,1.63,,,,,,,,,h.PNG,h,60b05d5bc60741f30dd410a0,2021-09-08_17h53.53.079,forced_choiceRT,2021.1.2,Win32,57.34931468,,,,,,,,9,Ontime,h,1,2.0605,0,2,2,2,1,,,,,
,0.06,,,,,,,,,h.PNG,h,60b05d5bc60741f30dd410a0,2021-09-08_17h53.53.079,forced_choiceRT,2021.1.2,Win32,57.34931468,,,,,,,,9,Ontime,h,1,2.0076,0,3,3,2,1,,,,,
,1.01,,,,,,,,,j.PNG,j,60b05d5bc60741f30dd410a0,2021-09-08_17h53.53.079,forced_choiceRT,2021.1.2,Win32,57.34931468,,,,,,,,9,Ontime,j,1,2.0079,1,0,4,3,1,,,,,
,1.69,,,,,,,,,g.PNG,g,60b05d5bc60741f30dd410a0,2021-09-08_17h53.53.079,forced_choiceRT,2021.1.2,Win32,57.34931468,,,,,,,,9,Slow,g,1,2.3046,1,1,5,1,1,,,,,
,1.58,,,,,,,,,f.PNG,f,60b05d5bc60741f30dd410a0,2021-09-08_17h53.53.079,forced_choiceRT,2021.1.2,Win32,57.34931468,,,,,,,,9,Slow,f,1,2.1296,1,2,6,0,1,,,,,
,1.51,,,,,,,,,h.PNG,h,60b05d5bc60741f30dd410a0,2021-09-08_17h53.53.079,forced_choiceRT,2021.1.2,Win32,57.34931468,,,,,,,,9,Ontime,g,0,2.0436,1,3,7,2,1,,,,,
,0.55,,,,,,,,,g.PNG,g,60b05d5bc60741f30dd410a0,2021-09-08_17h53.53.079,forced_choiceRT,2021.1.2,Win32,57.34931468,,,,,,,,9,Ontime,g,1,1.9727,2,0,8,1,1,,,,,
,1.24,,,,,,,,,h.PNG,h,60b05d5bc60741f30dd410a0,2021-09-08_17h53.53.079,forced_choiceRT,2021.1.2,Win32,57.34931468,,,,,,,,9,Ontime,h,1,2.0428,2,1,9,2,1,,,,,
,0.42,,,,,,,,,g.PNG,g,60b05d5bc60741f30dd410a0,2021-09-08_17h53.53.079,forced_choiceRT,2021.1.2,Win32,57.34931468,,,,,,,,9,Ontime,g,1,1.9905,2,2,10,1,1,,,,,
,1.75,,,,,,,,,f.PNG,f,60b05d5bc60741f30dd410a0,2021-09-08_17h53.53.079,forced_choiceRT,2021.1.2,Win32,57.34931468,,,,,,,,9,Slow,f,1,2.1117,2,3,11,0,1,,,,,
,1.97,,,,,,,,,j.PNG,j,60b05d5bc60741f30dd410a0,2021-09-08_17h53.53.079,forced_choiceRT,2021.1.2,Win32,57.34931468,,,,,,,,9,Slow,j,1,2.1839,3,0,12,3,1,,,,,
,0.98,,,,,,,,,f.PNG,f,60b05d5bc60741f30dd410a0,2021-09-08_17h53.53.079,forced_choiceRT,2021.1.2,Win32,57.34931468,,,,,,,,9,Ontime,f,1,2.0062,3,1,13,0,1,,,,,
,1.83,,,,,,,,,j.PNG,j,60b05d5bc60741f30dd410a0,2021-09-08_17h53.53.079,forced_choiceRT,2021.1.2,Win32,57.34931468,,,,,,,,9,Ontime,f,0,2.0855,3,2,14,3,1,,,,,
,0.99,,,,,,,,,f.PNG,f,60b05d5bc60741f30dd410a0,2021-09-08_17h53.53.079,forced_choiceRT,2021.1.2,Win32,57.34931468,,,,,,,,9,Ontime,f,1,2.0288,3,3,15,0,1,,,,,
,0.1,,,,,,,,,j.PNG,j,60b05d5bc60741f30dd410a0,2021-09-08_17h53.53.079,forced_choiceRT,2021.1.2,Win32,57.34931468,,,,,,,,9,Ontime,j,1,1.9764,4,0,16,3,1,,,,,
,0.92,,,,,,,,,h.PNG,h,60b05d5bc60741f30dd410a0,2021-09-08_17h53.53.079,forced_choiceRT,2021.1.2,Win32,57.34931468,,,,,,,,9,Ontime,h,1,2.0485,4,1,17,2,1,,,,,
,0.05,,,,,,,,,g.PNG,g,60b05d5bc60741f30dd410a0,2021-09-08_17h53.53.079,forced_choiceRT,2021.1.2,Win32,57.34931468,,,,,,,,9,Ontime,g,1,2.0153,4,2,18,1,1,,,,,
,1.15,,,,,,,,,g.PNG,g,60b05d5bc60741f30dd410a0,2021-09-08_17h53.53.079,forced_choiceRT,2021.1.2,Win32,57.34931468,,,,,,,,9,Ontime,g,1,2.0412,4,3,19,1,1,,,,,
,1.37,,,,,,,,,h.PNG,h,60b05d5bc60741f30dd410a0,2021-09-08_17h53.53.079,forced_choiceRT,2021.1.2,Win32,57.34931468,,,,,,,,9,Slow,h,1,2.1128,5,0,20,2,1,,,,,
,1.23,,,,,,,,,j.PNG,j,60b05d5bc60741f30dd410a0,2021-09-08_17h53.53.079,forced_choiceRT,2021.1.2,Win32,57.34931468,,,,,,,,9,Ontime,j,1,1.9464,5,1,21,3,1,,,,,
,0.39,,,,,,,,,g.PNG,g,60b05d5bc60741f30dd410a0,2021-09-08_17h53.53.079,forced_choiceRT,2021.1.2,Win32,57.34931468,,,,,,,,9,Ontime,g,1,2.008,5,2,22,1,1,,,,,
,0.19,,,,,,,,,g.PNG,g,60b05d5bc60741f30dd410a0,2021-09-08_17h53.53.079,forced_choiceRT,2021.1.2,Win32,57.34931468,,,,,,,,9,Ontime,g,1,2.0266,5,3,23,1,1,,,,,
,1.61,,,,,,,,,f.PNG,f,60b05d5bc60741f30dd410a0,2021-09-08_17h53.53.079,forced_choiceRT,2021.1.2,Win32,57.34931468,,,,,,,,9,Ontime,f,1,1.9908,6,0,24,0,1,,,,,
,1,,,,,,,,,h.PNG,h,60b05d5bc60741f30dd410a0,2021-09-08_17h53.53.079,forced_choiceRT,2021.1.2,Win32,57.34931468,,,,,,,,9,Ontime,h,1,1.9413,6,1,25,2,1,,,,,
,1.1,,,,,,,,,h.PNG,h,60b05d5bc60741f30dd410a0,2021-09-08_17h53.53.079,forced_choiceRT,2021.1.2,Win32,57.34931468,,,,,,,,9,Ontime,h,1,1.9377,6,2,26,2,1,,,,,
,0.29,,,,,,,,,f.PNG,f,60b05d5bc60741f30dd410a0,2021-09-08_17h53.53.079,forced_choiceRT,2021.1.2,Win32,57.34931468,,,,,,,,9,Ontime,f,1,1.9773,6,3,27,0,1,,,,,
,0.23,,,,,,,,,g.PNG,g,60b05d5bc60741f30dd410a0,2021-09-08_17h53.53.079,forced_choiceRT,2021.1.2,Win32,57.34931468,,,,,,,,9,Ontime,g,1,2.0427,7,0,28,1,1,,,,,
,0.51,,,,,,,,,j.PNG,j,60b05d5bc60741f30dd410a0,2021-09-08_17h53.53.079,forced_choiceRT,2021.1.2,Win32,57.34931468,,,,,,,,9,Ontime,j,1,1.9402,7,1,29,3,1,,,,,
,1.89,,,,,,,,,f.PNG,f,60b05d5bc60741f30dd410a0,2021-09-08_17h53.53.079,forced_choiceRT,2021.1.2,Win32,57.34931468,,,,,,,,9,Slow,h,0,2.3044,7,2,30,0,1,,,,,
,1.86,,,,,,,,,f.PNG,f,60b05d5bc60741f30dd410a0,2021-09-08_17h53.53.079,forced_choiceRT,2021.1.2,Win32,57.34931468,,,,,,,,9,Slow,f,1,2.2015,7,3,31,0,1,,,,,
,1.07,,,,,,,,,g.PNG,g,60b05d5bc60741f30dd410a0,2021-09-08_17h53.53.079,forced_choiceRT,2021.1.2,Win32,57.34931468,,,,,,,,9,Ontime,g,1,1.9443,8,0,32,1,1,,,,,
,0.26,,,,,,,,,f.PNG,f,60b05d5bc60741f30dd410a0,2021-09-08_17h53.53.079,forced_choiceRT,2021.1.2,Win32,57.34931468,,,,,,,,9,Ontime,f,1,2.0495,8,1,33,0,1,,,,,
,1.38,,,,,,,,,h.PNG,h,60b05d5bc60741f30dd410a0,2021-09-08_17h53.53.079,forced_choiceRT,2021.1.2,Win32,57.34931468,,,,,,,,9,Slow,h,1,2.1641,8,2,34,2,1,,,,,
,0.01,,,,,,,,,f.PNG,f,60b05d5bc60741f30dd410a0,2021-09-08_17h53.53.079,forced_choiceRT,2021.1.2,Win32,57.34931468,,,,,,,,9,Ontime,f,1,2.0329,8,3,35,0,1,,,,,
,1.06,,,,,,,,,j.PNG,j,60b05d5bc60741f30dd410a0,2021-09-08_17h53.53.079,forced_choiceRT,2021.1.2,Win32,57.34931468,,,,,,,,9,Ontime,j,1,2.0603,9,0,36,3,1,,,,,
,0.8,,,,,,,,,g.PNG,g,60b05d5bc60741f30dd410a0,2021-09-08_17h53.53.079,forced_choiceRT,2021.1.2,Win32,57.34931468,,,,,,,,9,Ontime,g,1,2.0692,9,1,37,1,1,,,,,
,0.75,,,,,,,,,j.PNG,j,60b05d5bc60741f30dd410a0,2021-09-08_17h53.53.079,forced_choiceRT,2021.1.2,Win32,57.34931468,,,,,,,,9,Ontime,j,1,1.9731,9,2,38,3,1,,,,,
,1.73,,,,,,,,,h.PNG,h,60b05d5bc60741f30dd410a0,2021-09-08_17h53.53.079,forced_choiceRT,2021.1.2,Win32,57.34931468,,,,,,,,9,Slow,g,0,2.2357,9,3,39,2,1,,,,,
,,,,,,,,,,,,60b05d5bc60741f30dd410a0,2021-09-08_17h53.53.079,forced_choiceRT,2021.1.2,Win32,57.34931468,,,,,,,,,,,,,,,,,,8,0,8,0,1
,0.88,,,,,,,,,f.PNG,f,60b05d5bc60741f30dd410a0,2021-09-08_17h53.53.079,forced_choiceRT,2021.1.2,Win32,57.34931468,,,,,,,,10,Ontime,f,1,1.9881,0,0,0,0,1,,,,,
,0.52,,,,,,,,,g.PNG,g,60b05d5bc60741f30dd410a0,2021-09-08_17h53.53.079,forced_choiceRT,2021.1.2,Win32,57.34931468,,,,,,,,10,Ontime,g,1,1.9834,0,1,1,1,1,,,,,
,1.8,,,,,,,,,h.PNG,h,60b05d5bc60741f30dd410a0,2021-09-08_17h53.53.079,forced_choiceRT,2021.1.2,Win32,57.34931468,,,,,,,,10,Slow,f,0,2.1542,0,2,2,2,1,,,,,
,0.93,,,,,,,,,j.PNG,j,60b05d5bc60741f30dd410a0,2021-09-08_17h53.53.079,forced_choiceRT,2021.1.2,Win32,57.34931468,,,,,,,,10,Ontime,j,1,1.9944,0,3,3,3,1,,,,,
,0.53,,,,,,,,,f.PNG,f,60b05d5bc60741f30dd410a0,2021-09-08_17h53.53.079,forced_choiceRT,2021.1.2,Win32,57.34931468,,,,,,,,10,Ontime,f,1,2.0972,1,0,4,0,1,,,,,
,1.64,,,,,,,,,h.PNG,h,60b05d5bc60741f30dd410a0,2021-09-08_17h53.53.079,forced_choiceRT,2021.1.2,Win32,57.34931468,,,,,,,,10,Slow,g,0,2.1301,1,1,5,2,1,,,,,
,1.96,,,,,,,,,f.PNG,f,60b05d5bc60741f30dd410a0,2021-09-08_17h53.53.079,forced_choiceRT,2021.1.2,Win32,57.34931468,,,,,,,,10,Slow,f,1,2.4607,1,2,6,0,1,,,,,
,1.49,,,,,,,,,h.PNG,h,60b05d5bc60741f30dd410a0,2021-09-08_17h53.53.079,forced_choiceRT,2021.1.2,Win32,57.34931468,,,,,,,,10,Ontime,g,0,2.0254,1,3,7,2,1,,,,,
,0.29,,,,,,,,,j.PNG,j,60b05d5bc60741f30dd410a0,2021-09-08_17h53.53.079,forced_choiceRT,2021.1.2,Win32,57.34931468,,,,,,,,10,Ontime,j,1,1.9203,2,0,8,3,1,,,,,
,1.42,,,,,,,,,h.PNG,h,60b05d5bc60741f30dd410a0,2021-09-08_17h53.53.079,forced_choiceRT,2021.1.2,Win32,57.34931468,,,,,,,,10,Ontime,h,1,2.0955,2,1,9,2,1,,,,,
,0.73,,,,,,,,,h.PNG,h,60b05d5bc60741f30dd410a0,2021-09-08_17h53.53.079,forced_choiceRT,2021.1.2,Win32,57.34931468,,,,,,,,10,Ontime,h,1,1.9206,2,2,10,2,1,,,,,
,0.58,,,,,,,,,g.PNG,g,60b05d5bc60741f30dd410a0,2021-09-08_17h53.53.079,forced_choiceRT,2021.1.2,Win32,57.34931468,,,,,,,,10,Ontime,g,1,1.9721,2,3,11,1,1,,,,,
,0.95,,,,,,,,,j.PNG,j,60b05d5bc60741f30dd410a0,2021-09-08_17h53.53.079,forced_choiceRT,2021.1.2,Win32,57.34931468,,,,,,,,10,Ontime,j,1,2.0428,3,0,12,3,1,,,,,
,1.39,,,,,,,,,j.PNG,j,60b05d5bc60741f30dd410a0,2021-09-08_17h53.53.079,forced_choiceRT,2021.1.2,Win32,57.34931468,,,,,,,,10,Ontime,j,1,2.0948,3,1,13,3,1,,,,,
,0.33,,,,,,,,,g.PNG,g,60b05d5bc60741f30dd410a0,2021-09-08_17h53.53.079,forced_choiceRT,2021.1.2,Win32,57.34931468,,,,,,,,10,Ontime,g,1,2.0063,3,2,14,1,1,,,,,
,0.06,,,,,,,,,g.PNG,g,60b05d5bc60741f30dd410a0,2021-09-08_17h53.53.079,forced_choiceRT,2021.1.2,Win32,57.34931468,,,,,,,,10,Ontime,g,1,2.0608,3,3,15,1,1,,,,,
,1.28,,,,,,,,,g.PNG,g,60b05d5bc60741f30dd410a0,2021-09-08_17h53.53.079,forced_choiceRT,2021.1.2,Win32,57.34931468,,,,,,,,10,Ontime,g,1,2.0603,4,0,16,1,1,,,,,
,1.8,,,,,,,,,h.PNG,h,60b05d5bc60741f30dd410a0,2021-09-08_17h53.53.079,forced_choiceRT,2021.1.2,Win32,57.34931468,,,,,,,,10,Slow,f,0,2.1998,4,1,17,2,1,,,,,
,1.22,,,,,,,,,g.PNG,g,60b05d5bc60741f30dd410a0,2021-09-08_17h53.53.079,forced_choiceRT,2021.1.2,Win32,57.34931468,,,,,,,,10,Fast,g,1,1.7818,4,2,18,1,1,,,,,
,0.3,,,,,,,,,h.PNG,h,60b05d5bc60741f30dd410a0,2021-09-08_17h53.53.079,forced_choiceRT,2021.1.2,Win32,57.34931468,,,,,,,,10,Ontime,h,1,2.0257,4,3,19,2,1,,,,,
,1.96,,,,,,,,,j.PNG,j,60b05d5bc60741f30dd410a0,2021-09-08_17h53.53.079,forced_choiceRT,2021.1.2,Win32,57.34931468,,,,,,,,10,Slow,g,0,2.4619,5,0,20,3,1,,,,,
,0.61,,,,,,,,,f.PNG,f,60b05d5bc60741f30dd410a0,2021-09-08_17h53.53.079,forced_choiceRT,2021.1.2,Win32,57.34931468,,,,,,,,10,Ontime,f,1,1.9893,5,1,21,0,1,,,,,
,1.95,,,,,,,,,f.PNG,f,60b05d5bc60741f30dd410a0,2021-09-08_17h53.53.079,forced_choiceRT,2021.1.2,Win32,57.34931468,,,,,,,,10,Slow,f,1,2.3215,5,2,22,0,1,,,,,
,1.22,,,,,,,,,j.PNG,j,60b05d5bc60741f30dd410a0,2021-09-08_17h53.53.079,forced_choiceRT,2021.1.2,Win32,57.34931468,,,,,,,,10,Ontime,j,1,1.9548,5,3,23,3,1,,,,,
,1.85,,,,,,,,,j.PNG,j,60b05d5bc60741f30dd410a0,2021-09-08_17h53.53.079,forced_choiceRT,2021.1.2,Win32,57.34931468,,,,,,,,10,Ontime,f,0,2.0784,6,0,24,3,1,,,,,
,0.66,,,,,,,,,j.PNG,j,60b05d5bc60741f30dd410a0,2021-09-08_17h53.53.079,forced_choiceRT,2021.1.2,Win32,57.34931468,,,,,,,,10,Ontime,j,1,1.9912,6,1,25,3,1,,,,,
,1.67,,,,,,,,,f.PNG,f,60b05d5bc60741f30dd410a0,2021-09-08_17h53.53.079,forced_choiceRT,2021.1.2,Win32,57.34931468,,,,,,,,10,Ontime,h,0,2.0083,6,2,26,0,1,,,,,
,1.18,,,,,,,,,f.PNG,f,60b05d5bc60741f30dd410a0,2021-09-08_17h53.53.079,forced_choiceRT,2021.1.2,Win32,57.34931468,,,,,,,,10,Ontime,f,1,1.9036,6,3,27,0,1,,,,,
,0.93,,,,,,,,,f.PNG,f,60b05d5bc60741f30dd410a0,2021-09-08_17h53.53.079,forced_choiceRT,2021.1.2,Win32,57.34931468,,,,,,,,10,Ontime,f,1,2.0253,7,0,28,0,1,,,,,
,0.26,,,,,,,,,g.PNG,g,60b05d5bc60741f30dd410a0,2021-09-08_17h53.53.079,forced_choiceRT,2021.1.2,Win32,57.34931468,,,,,,,,10,Ontime,g,1,2.0427,7,1,29,1,1,,,,,
,1.88,,,,,,,,,f.PNG,f,60b05d5bc60741f30dd410a0,2021-09-08_17h53.53.079,forced_choiceRT,2021.1.2,Win32,57.34931468,,,,,,,,10,Slow,f,1,2.2689,7,2,30,0,1,,,,,
,1.71,,,,,,,,,f.PNG,f,60b05d5bc60741f30dd410a0,2021-09-08_17h53.53.079,forced_choiceRT,2021.1.2,Win32,57.34931468,,,,,,,,10,Slow,g,0,2.1647,7,3,31,0,1,,,,,
,1.18,,,,,,,,,j.PNG,j,60b05d5bc60741f30dd410a0,2021-09-08_17h53.53.079,forced_choiceRT,2021.1.2,Win32,57.34931468,,,,,,,,10,Fast,f,0,0.7689,8,0,32,3,1,,,,,
,0.66,,,,,,,,,g.PNG,g,60b05d5bc60741f30dd410a0,2021-09-08_17h53.53.079,forced_choiceRT,2021.1.2,Win32,57.34931468,,,,,,,,10,Ontime,g,1,2.0604,8,1,33,1,1,,,,,
,0.7,,,,,,,,,h.PNG,h,60b05d5bc60741f30dd410a0,2021-09-08_17h53.53.079,forced_choiceRT,2021.1.2,Win32,57.34931468,,,,,,,,10,Ontime,h,1,2.0444,8,2,34,2,1,,,,,
,1.93,,,,,,,,,h.PNG,h,60b05d5bc60741f30dd410a0,2021-09-08_17h53.53.079,forced_choiceRT,2021.1.2,Win32,57.34931468,,,,,,,,10,Slow,h,1,2.3914,8,3,35,2,1,,,,,
,0.05,,,,,,,,,g.PNG,g,60b05d5bc60741f30dd410a0,2021-09-08_17h53.53.079,forced_choiceRT,2021.1.2,Win32,57.34931468,,,,,,,,10,Ontime,g,1,1.9906,9,0,36,1,1,,,,,
,1.4,,,,,,,,,h.PNG,h,60b05d5bc60741f30dd410a0,2021-09-08_17h53.53.079,forced_choiceRT,2021.1.2,Win32,57.34931468,,,,,,,,10,Ontime,j,0,1.9924,9,1,37,2,1,,,,,
,0.07,,,,,,,,,g.PNG,g,60b05d5bc60741f30dd410a0,2021-09-08_17h53.53.079,forced_choiceRT,2021.1.2,Win32,57.34931468,,,,,,,,10,Ontime,g,1,2.0251,9,2,38,1,1,,,,,
,0.62,,,,,,,,,j.PNG,j,60b05d5bc60741f30dd410a0,2021-09-08_17h53.53.079,forced_choiceRT,2021.1.2,Win32,57.34931468,,,,,,,,10,Ontime,j,1,2.0262,9,3,39,3,1,,,,,
,,,,,,,,,,,,60b05d5bc60741f30dd410a0,2021-09-08_17h53.53.079,forced_choiceRT,2021.1.2,Win32,57.34931468,,,,,,,,,,,,,,,,,,9,0,9,0,1
