IP_Addresss,target_onset,trial_resp_sp.keys,trial_resp_sp.corr,trial_resp_sp.rt,trials_train_loop.thisRepN,trials_train_loop.thisTrialN,trials_train_loop.thisN,trials_train_loop.thisIndex,trials_train_loop.ran,pic,correct_key,participant,date,expName,psychopyVersion,OS,frameRate,trial_resp_timing.keys,trial_resp_timing.rt,trials_train_timing.thisRepN,trials_train_timing.thisTrialN,trials_train_timing.thisN,trials_train_timing.thisIndex,trials_train_timing.ran,block_id,ontime,forcedRT_resp.keys,forcedRT_resp.corr,forcedRT_resp.rt,trials.thisRepN,trials.thisTrialN,trials.thisN,trials.thisIndex,trials.ran,blocks.thisRepN,blocks.thisTrialN,blocks.thisN,blocks.thisIndex,blocks.ran
73.148.87.218,0,f,1,1.851,0,0,0,0,1,f.PNG,f,60fcbd8c2fa267d7e2c04e88,2021-09-08_20h54.34.945,forced_choiceRT,2021.1.2,MacIntel,58.82352941,,,,,,,,,,,,,,,,,,,,,,
,0,h,1,1.551,0,1,1,2,1,h.PNG,h,60fcbd8c2fa267d7e2c04e88,2021-09-08_20h54.34.945,forced_choiceRT,2021.1.2,MacIntel,58.82352941,,,,,,,,,,,,,,,,,,,,,,
,0,j,1,0.948,0,2,2,3,1,j.PNG,j,60fcbd8c2fa267d7e2c04e88,2021-09-08_20h54.34.945,forced_choiceRT,2021.1.2,MacIntel,58.82352941,,,,,,,,,,,,,,,,,,,,,,
,0,h,1,1.385,0,3,3,2,1,h.PNG,h,60fcbd8c2fa267d7e2c04e88,2021-09-08_20h54.34.945,forced_choiceRT,2021.1.2,MacIntel,58.82352941,,,,,,,,,,,,,,,,,,,,,,
,0,f,1,1.065,1,0,4,0,1,f.PNG,f,60fcbd8c2fa267d7e2c04e88,2021-09-08_20h54.34.945,forced_choiceRT,2021.1.2,MacIntel,58.82352941,,,,,,,,,,,,,,,,,,,,,,
,0,f,1,1.022,1,1,5,0,1,f.PNG,f,60fcbd8c2fa267d7e2c04e88,2021-09-08_20h54.34.945,forced_choiceRT,2021.1.2,MacIntel,58.82352941,,,,,,,,,,,,,,,,,,,,,,
,0,j,1,1.015,1,2,6,3,1,j.PNG,j,60fcbd8c2fa267d7e2c04e88,2021-09-08_20h54.34.945,forced_choiceRT,2021.1.2,MacIntel,58.82352941,,,,,,,,,,,,,,,,,,,,,,
,0,j,1,0.87,1,3,7,3,1,j.PNG,j,60fcbd8c2fa267d7e2c04e88,2021-09-08_20h54.34.945,forced_choiceRT,2021.1.2,MacIntel,58.82352941,,,,,,,,,,,,,,,,,,,,,,
,0,f,1,1.069,2,0,8,0,1,f.PNG,f,60fcbd8c2fa267d7e2c04e88,2021-09-08_20h54.34.945,forced_choiceRT,2021.1.2,MacIntel,58.82352941,,,,,,,,,,,,,,,,,,,,,,
,0,h,1,1.156,2,1,9,2,1,h.PNG,h,60fcbd8c2fa267d7e2c04e88,2021-09-08_20h54.34.945,forced_choiceRT,2021.1.2,MacIntel,58.82352941,,,,,,,,,,,,,,,,,,,,,,
,0,j,1,0.937,2,2,10,3,1,j.PNG,j,60fcbd8c2fa267d7e2c04e88,2021-09-08_20h54.34.945,forced_choiceRT,2021.1.2,MacIntel,58.82352941,,,,,,,,,,,,,,,,,,,,,,
,0,j,1,0.798,2,3,11,3,1,j.PNG,j,60fcbd8c2fa267d7e2c04e88,2021-09-08_20h54.34.945,forced_choiceRT,2021.1.2,MacIntel,58.82352941,,,,,,,,,,,,,,,,,,,,,,
,0,f,1,0.765,3,0,12,0,1,f.PNG,f,60fcbd8c2fa267d7e2c04e88,2021-09-08_20h54.34.945,forced_choiceRT,2021.1.2,MacIntel,58.82352941,,,,,,,,,,,,,,,,,,,,,,
,0,h,1,1.003,3,1,13,2,1,h.PNG,h,60fcbd8c2fa267d7e2c04e88,2021-09-08_20h54.34.945,forced_choiceRT,2021.1.2,MacIntel,58.82352941,,,,,,,,,,,,,,,,,,,,,,
,0,h,1,0.767,3,2,14,2,1,h.PNG,h,60fcbd8c2fa267d7e2c04e88,2021-09-08_20h54.34.945,forced_choiceRT,2021.1.2,MacIntel,58.82352941,,,,,,,,,,,,,,,,,,,,,,
,0,j,1,0.915,3,3,15,3,1,j.PNG,j,60fcbd8c2fa267d7e2c04e88,2021-09-08_20h54.34.945,forced_choiceRT,2021.1.2,MacIntel,58.82352941,,,,,,,,,,,,,,,,,,,,,,
,0,f,1,0.74,4,0,16,0,1,f.PNG,f,60fcbd8c2fa267d7e2c04e88,2021-09-08_20h54.34.945,forced_choiceRT,2021.1.2,MacIntel,58.82352941,,,,,,,,,,,,,,,,,,,,,,
,0,h,1,1.149,4,1,17,2,1,h.PNG,h,60fcbd8c2fa267d7e2c04e88,2021-09-08_20h54.34.945,forced_choiceRT,2021.1.2,MacIntel,58.82352941,,,,,,,,,,,,,,,,,,,,,,
,0,f,1,0.772,4,2,18,0,1,f.PNG,f,60fcbd8c2fa267d7e2c04e88,2021-09-08_20h54.34.945,forced_choiceRT,2021.1.2,MacIntel,58.82352941,,,,,,,,,,,,,,,,,,,,,,
,0,h,1,0.882,4,3,19,2,1,h.PNG,h,60fcbd8c2fa267d7e2c04e88,2021-09-08_20h54.34.945,forced_choiceRT,2021.1.2,MacIntel,58.82352941,,,,,,,,,,,,,,,,,,,,,,
,0,f,1,0.627,5,0,20,0,1,f.PNG,f,60fcbd8c2fa267d7e2c04e88,2021-09-08_20h54.34.945,forced_choiceRT,2021.1.2,MacIntel,58.82352941,,,,,,,,,,,,,,,,,,,,,,
,0,j,1,0.853,5,1,21,3,1,j.PNG,j,60fcbd8c2fa267d7e2c04e88,2021-09-08_20h54.34.945,forced_choiceRT,2021.1.2,MacIntel,58.82352941,,,,,,,,,,,,,,,,,,,,,,
,0,j,1,0.784,5,2,22,3,1,j.PNG,j,60fcbd8c2fa267d7e2c04e88,2021-09-08_20h54.34.945,forced_choiceRT,2021.1.2,MacIntel,58.82352941,,,,,,,,,,,,,,,,,,,,,,
,0,j,1,0.737,5,3,23,3,1,j.PNG,j,60fcbd8c2fa267d7e2c04e88,2021-09-08_20h54.34.945,forced_choiceRT,2021.1.2,MacIntel,58.82352941,,,,,,,,,,,,,,,,,,,,,,
,0,j,1,0.749,6,0,24,3,1,j.PNG,j,60fcbd8c2fa267d7e2c04e88,2021-09-08_20h54.34.945,forced_choiceRT,2021.1.2,MacIntel,58.82352941,,,,,,,,,,,,,,,,,,,,,,
,0,g,1,0.985,6,1,25,1,1,g.PNG,g,60fcbd8c2fa267d7e2c04e88,2021-09-08_20h54.34.945,forced_choiceRT,2021.1.2,MacIntel,58.82352941,,,,,,,,,,,,,,,,,,,,,,
,0,h,1,0.867,6,2,26,2,1,h.PNG,h,60fcbd8c2fa267d7e2c04e88,2021-09-08_20h54.34.945,forced_choiceRT,2021.1.2,MacIntel,58.82352941,,,,,,,,,,,,,,,,,,,,,,
,0,h,1,1.816,6,3,27,2,1,h.PNG,h,60fcbd8c2fa267d7e2c04e88,2021-09-08_20h54.34.945,forced_choiceRT,2021.1.2,MacIntel,58.82352941,,,,,,,,,,,,,,,,,,,,,,
,0,g,1,1.065,7,0,28,1,1,g.PNG,g,60fcbd8c2fa267d7e2c04e88,2021-09-08_20h54.34.945,forced_choiceRT,2021.1.2,MacIntel,58.82352941,,,,,,,,,,,,,,,,,,,,,,
,0,g,1,0.785,7,1,29,1,1,g.PNG,g,60fcbd8c2fa267d7e2c04e88,2021-09-08_20h54.34.945,forced_choiceRT,2021.1.2,MacIntel,58.82352941,,,,,,,,,,,,,,,,,,,,,,
,0,g,1,0.673,7,2,30,1,1,g.PNG,g,60fcbd8c2fa267d7e2c04e88,2021-09-08_20h54.34.945,forced_choiceRT,2021.1.2,MacIntel,58.82352941,,,,,,,,,,,,,,,,,,,,,,
,0,h,1,1.188,7,3,31,2,1,h.PNG,h,60fcbd8c2fa267d7e2c04e88,2021-09-08_20h54.34.945,forced_choiceRT,2021.1.2,MacIntel,58.82352941,,,,,,,,,,,,,,,,,,,,,,
,0,g,1,0.814,8,0,32,1,1,g.PNG,g,60fcbd8c2fa267d7e2c04e88,2021-09-08_20h54.34.945,forced_choiceRT,2021.1.2,MacIntel,58.82352941,,,,,,,,,,,,,,,,,,,,,,
,0,f,1,0.766,8,1,33,0,1,f.PNG,f,60fcbd8c2fa267d7e2c04e88,2021-09-08_20h54.34.945,forced_choiceRT,2021.1.2,MacIntel,58.82352941,,,,,,,,,,,,,,,,,,,,,,
,0,f,1,0.735,8,2,34,0,1,f.PNG,f,60fcbd8c2fa267d7e2c04e88,2021-09-08_20h54.34.945,forced_choiceRT,2021.1.2,MacIntel,58.82352941,,,,,,,,,,,,,,,,,,,,,,
,0,g,1,0.823,8,3,35,1,1,g.PNG,g,60fcbd8c2fa267d7e2c04e88,2021-09-08_20h54.34.945,forced_choiceRT,2021.1.2,MacIntel,58.82352941,,,,,,,,,,,,,,,,,,,,,,
,0,h,1,0.954,9,0,36,2,1,h.PNG,h,60fcbd8c2fa267d7e2c04e88,2021-09-08_20h54.34.945,forced_choiceRT,2021.1.2,MacIntel,58.82352941,,,,,,,,,,,,,,,,,,,,,,
,0,j,1,1.318,9,1,37,3,1,j.PNG,j,60fcbd8c2fa267d7e2c04e88,2021-09-08_20h54.34.945,forced_choiceRT,2021.1.2,MacIntel,58.82352941,,,,,,,,,,,,,,,,,,,,,,
,0,f,1,0.765,9,2,38,0,1,f.PNG,f,60fcbd8c2fa267d7e2c04e88,2021-09-08_20h54.34.945,forced_choiceRT,2021.1.2,MacIntel,58.82352941,,,,,,,,,,,,,,,,,,,,,,
,0,f,1,0.648,9,3,39,0,1,f.PNG,f,60fcbd8c2fa267d7e2c04e88,2021-09-08_20h54.34.945,forced_choiceRT,2021.1.2,MacIntel,58.82352941,,,,,,,,,,,,,,,,,,,,,,
,0,h,1,0.801,10,0,40,2,1,h.PNG,h,60fcbd8c2fa267d7e2c04e88,2021-09-08_20h54.34.945,forced_choiceRT,2021.1.2,MacIntel,58.82352941,,,,,,,,,,,,,,,,,,,,,,
,0,f,1,0.772,10,1,41,0,1,f.PNG,f,60fcbd8c2fa267d7e2c04e88,2021-09-08_20h54.34.945,forced_choiceRT,2021.1.2,MacIntel,58.82352941,,,,,,,,,,,,,,,,,,,,,,
,0,j,1,1.132,10,2,42,3,1,j.PNG,j,60fcbd8c2fa267d7e2c04e88,2021-09-08_20h54.34.945,forced_choiceRT,2021.1.2,MacIntel,58.82352941,,,,,,,,,,,,,,,,,,,,,,
,0,g,1,0.735,10,3,43,1,1,g.PNG,g,60fcbd8c2fa267d7e2c04e88,2021-09-08_20h54.34.945,forced_choiceRT,2021.1.2,MacIntel,58.82352941,,,,,,,,,,,,,,,,,,,,,,
,0,h,1,0.774,11,0,44,2,1,h.PNG,h,60fcbd8c2fa267d7e2c04e88,2021-09-08_20h54.34.945,forced_choiceRT,2021.1.2,MacIntel,58.82352941,,,,,,,,,,,,,,,,,,,,,,
,0,h,1,0.848,11,1,45,2,1,h.PNG,h,60fcbd8c2fa267d7e2c04e88,2021-09-08_20h54.34.945,forced_choiceRT,2021.1.2,MacIntel,58.82352941,,,,,,,,,,,,,,,,,,,,,,
,0,g,1,0.735,11,2,46,1,1,g.PNG,g,60fcbd8c2fa267d7e2c04e88,2021-09-08_20h54.34.945,forced_choiceRT,2021.1.2,MacIntel,58.82352941,,,,,,,,,,,,,,,,,,,,,,
,0,g,1,0.734,11,3,47,1,1,g.PNG,g,60fcbd8c2fa267d7e2c04e88,2021-09-08_20h54.34.945,forced_choiceRT,2021.1.2,MacIntel,58.82352941,,,,,,,,,,,,,,,,,,,,,,
,0,g,1,0.735,12,0,48,1,1,g.PNG,g,60fcbd8c2fa267d7e2c04e88,2021-09-08_20h54.34.945,forced_choiceRT,2021.1.2,MacIntel,58.82352941,,,,,,,,,,,,,,,,,,,,,,
,0,g,1,0.785,12,1,49,1,1,g.PNG,g,60fcbd8c2fa267d7e2c04e88,2021-09-08_20h54.34.945,forced_choiceRT,2021.1.2,MacIntel,58.82352941,,,,,,,,,,,,,,,,,,,,,,
,0,f,1,0.781,12,2,50,0,1,f.PNG,f,60fcbd8c2fa267d7e2c04e88,2021-09-08_20h54.34.945,forced_choiceRT,2021.1.2,MacIntel,58.82352941,,,,,,,,,,,,,,,,,,,,,,
,0,g,1,0.701,12,3,51,1,1,g.PNG,g,60fcbd8c2fa267d7e2c04e88,2021-09-08_20h54.34.945,forced_choiceRT,2021.1.2,MacIntel,58.82352941,,,,,,,,,,,,,,,,,,,,,,
,0,g,1,0.631,13,0,52,1,1,g.PNG,g,60fcbd8c2fa267d7e2c04e88,2021-09-08_20h54.34.945,forced_choiceRT,2021.1.2,MacIntel,58.82352941,,,,,,,,,,,,,,,,,,,,,,
,0,j,1,0.917,13,1,53,3,1,j.PNG,j,60fcbd8c2fa267d7e2c04e88,2021-09-08_20h54.34.945,forced_choiceRT,2021.1.2,MacIntel,58.82352941,,,,,,,,,,,,,,,,,,,,,,
,0,j,1,0.754,13,2,54,3,1,j.PNG,j,60fcbd8c2fa267d7e2c04e88,2021-09-08_20h54.34.945,forced_choiceRT,2021.1.2,MacIntel,58.82352941,,,,,,,,,,,,,,,,,,,,,,
,0,f,1,0.751,13,3,55,0,1,f.PNG,f,60fcbd8c2fa267d7e2c04e88,2021-09-08_20h54.34.945,forced_choiceRT,2021.1.2,MacIntel,58.82352941,,,,,,,,,,,,,,,,,,,,,,
,0,h,1,0.822,14,0,56,2,1,h.PNG,h,60fcbd8c2fa267d7e2c04e88,2021-09-08_20h54.34.945,forced_choiceRT,2021.1.2,MacIntel,58.82352941,,,,,,,,,,,,,,,,,,,,,,
,0,g,1,0.755,14,1,57,1,1,g.PNG,g,60fcbd8c2fa267d7e2c04e88,2021-09-08_20h54.34.945,forced_choiceRT,2021.1.2,MacIntel,58.82352941,,,,,,,,,,,,,,,,,,,,,,
,0,j,1,0.8,14,2,58,3,1,j.PNG,j,60fcbd8c2fa267d7e2c04e88,2021-09-08_20h54.34.945,forced_choiceRT,2021.1.2,MacIntel,58.82352941,,,,,,,,,,,,,,,,,,,,,,
,0,g,1,1.232,14,3,59,1,1,g.PNG,g,60fcbd8c2fa267d7e2c04e88,2021-09-08_20h54.34.945,forced_choiceRT,2021.1.2,MacIntel,58.82352941,,,,,,,,,,,,,,,,,,,,,,
,,,,,,,,,,,,60fcbd8c2fa267d7e2c04e88,2021-09-08_20h54.34.945,forced_choiceRT,2021.1.2,MacIntel,58.82352941,f,2.252,0,0,0,0,1,,,,,,,,,,,,,,,
,,,,,,,,,,,,60fcbd8c2fa267d7e2c04e88,2021-09-08_20h54.34.945,forced_choiceRT,2021.1.2,MacIntel,58.82352941,j,1.966,1,0,1,0,1,,,,,,,,,,,,,,,
,,,,,,,,,,,,60fcbd8c2fa267d7e2c04e88,2021-09-08_20h54.34.945,forced_choiceRT,2021.1.2,MacIntel,58.82352941,f,1.974,2,0,2,0,1,,,,,,,,,,,,,,,
,,,,,,,,,,,,60fcbd8c2fa267d7e2c04e88,2021-09-08_20h54.34.945,forced_choiceRT,2021.1.2,MacIntel,58.82352941,h,2.051,3,0,3,0,1,,,,,,,,,,,,,,,
,,,,,,,,,,,,60fcbd8c2fa267d7e2c04e88,2021-09-08_20h54.34.945,forced_choiceRT,2021.1.2,MacIntel,58.82352941,g,1.75,4,0,4,0,1,,,,,,,,,,,,,,,
,,,,,,,,,,,,60fcbd8c2fa267d7e2c04e88,2021-09-08_20h54.34.945,forced_choiceRT,2021.1.2,MacIntel,58.82352941,g,2,5,0,5,0,1,,,,,,,,,,,,,,,
,,,,,,,,,,,,60fcbd8c2fa267d7e2c04e88,2021-09-08_20h54.34.945,forced_choiceRT,2021.1.2,MacIntel,58.82352941,f,2.016,6,0,6,0,1,,,,,,,,,,,,,,,
,,,,,,,,,,,,60fcbd8c2fa267d7e2c04e88,2021-09-08_20h54.34.945,forced_choiceRT,2021.1.2,MacIntel,58.82352941,h,1.956,7,0,7,0,1,,,,,,,,,,,,,,,
,,,,,,,,,,,,60fcbd8c2fa267d7e2c04e88,2021-09-08_20h54.34.945,forced_choiceRT,2021.1.2,MacIntel,58.82352941,j,1.983,8,0,8,0,1,,,,,,,,,,,,,,,
,,,,,,,,,,,,60fcbd8c2fa267d7e2c04e88,2021-09-08_20h54.34.945,forced_choiceRT,2021.1.2,MacIntel,58.82352941,f,2.04,9,0,9,0,1,,,,,,,,,,,,,,,
,,,,,,,,,,,,60fcbd8c2fa267d7e2c04e88,2021-09-08_20h54.34.945,forced_choiceRT,2021.1.2,MacIntel,58.82352941,g,2.016,10,0,10,0,1,,,,,,,,,,,,,,,
,,,,,,,,,,,,60fcbd8c2fa267d7e2c04e88,2021-09-08_20h54.34.945,forced_choiceRT,2021.1.2,MacIntel,58.82352941,h,2.015,11,0,11,0,1,,,,,,,,,,,,,,,
,,,,,,,,,,,,60fcbd8c2fa267d7e2c04e88,2021-09-08_20h54.34.945,forced_choiceRT,2021.1.2,MacIntel,58.82352941,j,1.853,12,0,12,0,1,,,,,,,,,,,,,,,
,,,,,,,,,,,,60fcbd8c2fa267d7e2c04e88,2021-09-08_20h54.34.945,forced_choiceRT,2021.1.2,MacIntel,58.82352941,f,2.152,13,0,13,0,1,,,,,,,,,,,,,,,
,,,,,,,,,,,,60fcbd8c2fa267d7e2c04e88,2021-09-08_20h54.34.945,forced_choiceRT,2021.1.2,MacIntel,58.82352941,g,1.966,14,0,14,0,1,,,,,,,,,,,,,,,
,,,,,,,,,,,,60fcbd8c2fa267d7e2c04e88,2021-09-08_20h54.34.945,forced_choiceRT,2021.1.2,MacIntel,58.82352941,h,1.803,15,0,15,0,1,,,,,,,,,,,,,,,
,,,,,,,,,,,,60fcbd8c2fa267d7e2c04e88,2021-09-08_20h54.34.945,forced_choiceRT,2021.1.2,MacIntel,58.82352941,j,2.034,16,0,16,0,1,,,,,,,,,,,,,,,
,,,,,,,,,,,,60fcbd8c2fa267d7e2c04e88,2021-09-08_20h54.34.945,forced_choiceRT,2021.1.2,MacIntel,58.82352941,f,2.066,17,0,17,0,1,,,,,,,,,,,,,,,
,,,,,,,,,,,,60fcbd8c2fa267d7e2c04e88,2021-09-08_20h54.34.945,forced_choiceRT,2021.1.2,MacIntel,58.82352941,g,2.024,18,0,18,0,1,,,,,,,,,,,,,,,
,,,,,,,,,,,,60fcbd8c2fa267d7e2c04e88,2021-09-08_20h54.34.945,forced_choiceRT,2021.1.2,MacIntel,58.82352941,h,2.166,19,0,19,0,1,,,,,,,,,,,,,,,
,0.49,,,,,,,,,f.PNG,f,60fcbd8c2fa267d7e2c04e88,2021-09-08_20h54.34.945,forced_choiceRT,2021.1.2,MacIntel,58.82352941,,,,,,,,1,Ontime,f,1,1.996,0,0,0,0,1,,,,,
,0.23,,,,,,,,,h.PNG,h,60fcbd8c2fa267d7e2c04e88,2021-09-08_20h54.34.945,forced_choiceRT,2021.1.2,MacIntel,58.82352941,,,,,,,,1,Fast,h,1,1.752,0,1,1,2,1,,,,,
,0.56,,,,,,,,,f.PNG,f,60fcbd8c2fa267d7e2c04e88,2021-09-08_20h54.34.945,forced_choiceRT,2021.1.2,MacIntel,58.82352941,,,,,,,,1,Ontime,f,1,1.952,0,2,2,0,1,,,,,
,0.44,,,,,,,,,f.PNG,f,60fcbd8c2fa267d7e2c04e88,2021-09-08_20h54.34.945,forced_choiceRT,2021.1.2,MacIntel,58.82352941,,,,,,,,1,Ontime,f,1,1.95,0,3,3,0,1,,,,,
,1.82,,,,,,,,,h.PNG,h,60fcbd8c2fa267d7e2c04e88,2021-09-08_20h54.34.945,forced_choiceRT,2021.1.2,MacIntel,58.82352941,,,,,,,,1,Slow,h,1,9.086,1,0,4,2,1,,,,,
,0.2,,,,,,,,,g.PNG,g,60fcbd8c2fa267d7e2c04e88,2021-09-08_20h54.34.945,forced_choiceRT,2021.1.2,MacIntel,58.82352941,,,,,,,,1,Fast,g,1,1.738,1,1,5,1,1,,,,,
,0.63,,,,,,,,,j.PNG,j,60fcbd8c2fa267d7e2c04e88,2021-09-08_20h54.34.945,forced_choiceRT,2021.1.2,MacIntel,58.82352941,,,,,,,,1,Ontime,j,1,1.932,1,2,6,3,1,,,,,
,0.86,,,,,,,,,j.PNG,j,60fcbd8c2fa267d7e2c04e88,2021-09-08_20h54.34.945,forced_choiceRT,2021.1.2,MacIntel,58.82352941,,,,,,,,1,Slow,j,1,2.933,1,3,7,3,1,,,,,
,0.18,,,,,,,,,h.PNG,h,60fcbd8c2fa267d7e2c04e88,2021-09-08_20h54.34.945,forced_choiceRT,2021.1.2,MacIntel,58.82352941,,,,,,,,1,Ontime,h,1,1.971,2,0,8,2,1,,,,,
,1.73,,,,,,,,,g.PNG,g,60fcbd8c2fa267d7e2c04e88,2021-09-08_20h54.34.945,forced_choiceRT,2021.1.2,MacIntel,58.82352941,,,,,,,,1,Slow,f,0,2.118,2,1,9,1,1,,,,,
,1.54,,,,,,,,,f.PNG,f,60fcbd8c2fa267d7e2c04e88,2021-09-08_20h54.34.945,forced_choiceRT,2021.1.2,MacIntel,58.82352941,,,,,,,,1,Slow,f,1,2.836,2,2,10,0,1,,,,,
,0.24,,,,,,,,,j.PNG,j,60fcbd8c2fa267d7e2c04e88,2021-09-08_20h54.34.945,forced_choiceRT,2021.1.2,MacIntel,58.82352941,,,,,,,,1,Ontime,j,1,1.972,2,3,11,3,1,,,,,
,1.84,,,,,,,,,f.PNG,f,60fcbd8c2fa267d7e2c04e88,2021-09-08_20h54.34.945,forced_choiceRT,2021.1.2,MacIntel,58.82352941,,,,,,,,1,Slow,f,1,2.12,3,0,12,0,1,,,,,
,0.74,,,,,,,,,f.PNG,f,60fcbd8c2fa267d7e2c04e88,2021-09-08_20h54.34.945,forced_choiceRT,2021.1.2,MacIntel,58.82352941,,,,,,,,1,Ontime,f,1,1.97,3,1,13,0,1,,,,,
,1.3,,,,,,,,,g.PNG,g,60fcbd8c2fa267d7e2c04e88,2021-09-08_20h54.34.945,forced_choiceRT,2021.1.2,MacIntel,58.82352941,,,,,,,,1,Slow,h,0,2.198,3,2,14,1,1,,,,,
,1.91,,,,,,,,,f.PNG,f,60fcbd8c2fa267d7e2c04e88,2021-09-08_20h54.34.945,forced_choiceRT,2021.1.2,MacIntel,58.82352941,,,,,,,,1,Slow,g,0,2.285,3,3,15,0,1,,,,,
,1.08,,,,,,,,,h.PNG,h,60fcbd8c2fa267d7e2c04e88,2021-09-08_20h54.34.945,forced_choiceRT,2021.1.2,MacIntel,58.82352941,,,,,,,,1,Slow,h,1,2.288,4,0,16,2,1,,,,,
,1.21,,,,,,,,,g.PNG,g,60fcbd8c2fa267d7e2c04e88,2021-09-08_20h54.34.945,forced_choiceRT,2021.1.2,MacIntel,58.82352941,,,,,,,,1,Ontime,g,1,2.04,4,1,17,1,1,,,,,
,1.14,,,,,,,,,j.PNG,j,60fcbd8c2fa267d7e2c04e88,2021-09-08_20h54.34.945,forced_choiceRT,2021.1.2,MacIntel,58.82352941,,,,,,,,1,Slow,j,1,2.183,4,2,18,3,1,,,,,
,0.36,,,,,,,,,j.PNG,j,60fcbd8c2fa267d7e2c04e88,2021-09-08_20h54.34.945,forced_choiceRT,2021.1.2,MacIntel,58.82352941,,,,,,,,1,Ontime,j,1,1.953,4,3,19,3,1,,,,,
,1.38,,,,,,,,,h.PNG,h,60fcbd8c2fa267d7e2c04e88,2021-09-08_20h54.34.945,forced_choiceRT,2021.1.2,MacIntel,58.82352941,,,,,,,,1,Slow,h,1,2.187,5,0,20,2,1,,,,,
,1.15,,,,,,,,,h.PNG,h,60fcbd8c2fa267d7e2c04e88,2021-09-08_20h54.34.945,forced_choiceRT,2021.1.2,MacIntel,58.82352941,,,,,,,,1,Ontime,h,1,2.049,5,1,21,2,1,,,,,
,1.25,,,,,,,,,g.PNG,g,60fcbd8c2fa267d7e2c04e88,2021-09-08_20h54.34.945,forced_choiceRT,2021.1.2,MacIntel,58.82352941,,,,,,,,1,Ontime,g,1,2.099,5,2,22,1,1,,,,,
,0.99,,,,,,,,,h.PNG,h,60fcbd8c2fa267d7e2c04e88,2021-09-08_20h54.34.945,forced_choiceRT,2021.1.2,MacIntel,58.82352941,,,,,,,,1,Fast,h,1,1.784,5,3,23,2,1,,,,,
,1.39,,,,,,,,,g.PNG,g,60fcbd8c2fa267d7e2c04e88,2021-09-08_20h54.34.945,forced_choiceRT,2021.1.2,MacIntel,58.82352941,,,,,,,,1,Ontime,g,1,2.023,6,0,24,1,1,,,,,
,0.06,,,,,,,,,j.PNG,j,60fcbd8c2fa267d7e2c04e88,2021-09-08_20h54.34.945,forced_choiceRT,2021.1.2,MacIntel,58.82352941,,,,,,,,1,Fast,j,1,1.899,6,1,25,3,1,,,,,
,1.02,,,,,,,,,h.PNG,h,60fcbd8c2fa267d7e2c04e88,2021-09-08_20h54.34.945,forced_choiceRT,2021.1.2,MacIntel,58.82352941,,,,,,,,1,Ontime,h,1,2,6,2,26,2,1,,,,,
,1.63,,,,,,,,,f.PNG,f,60fcbd8c2fa267d7e2c04e88,2021-09-08_20h54.34.945,forced_choiceRT,2021.1.2,MacIntel,58.82352941,,,,,,,,1,Slow,f,1,2.148,6,3,27,0,1,,,,,
,0.92,,,,,,,,,g.PNG,g,60fcbd8c2fa267d7e2c04e88,2021-09-08_20h54.34.945,forced_choiceRT,2021.1.2,MacIntel,58.82352941,,,,,,,,1,Fast,g,1,1.832,7,0,28,1,1,,,,,
,1.7,,,,,,,,,g.PNG,g,60fcbd8c2fa267d7e2c04e88,2021-09-08_20h54.34.945,forced_choiceRT,2021.1.2,MacIntel,58.82352941,,,,,,,,1,Slow,f,0,2.786,7,1,29,1,1,,,,,
,1.99,,,,,,,,,f.PNG,f,60fcbd8c2fa267d7e2c04e88,2021-09-08_20h54.34.945,forced_choiceRT,2021.1.2,MacIntel,58.82352941,,,,,,,,1,Slow,f,1,2.301,7,2,30,0,1,,,,,
,0.38,,,,,,,,,g.PNG,g,60fcbd8c2fa267d7e2c04e88,2021-09-08_20h54.34.945,forced_choiceRT,2021.1.2,MacIntel,58.82352941,,,,,,,,1,Fast,g,1,1.799,7,3,31,1,1,,,,,
,1.46,,,,,,,,,j.PNG,j,60fcbd8c2fa267d7e2c04e88,2021-09-08_20h54.34.945,forced_choiceRT,2021.1.2,MacIntel,58.82352941,,,,,,,,1,Slow,h,0,2.301,8,0,32,3,1,,,,,
,1.28,,,,,,,,,f.PNG,f,60fcbd8c2fa267d7e2c04e88,2021-09-08_20h54.34.945,forced_choiceRT,2021.1.2,MacIntel,58.82352941,,,,,,,,1,Fast,f,1,1.782,8,1,33,0,1,,,,,
,0.11,,,,,,,,,j.PNG,j,60fcbd8c2fa267d7e2c04e88,2021-09-08_20h54.34.945,forced_choiceRT,2021.1.2,MacIntel,58.82352941,,,,,,,,1,Ontime,j,1,1.924,8,2,34,3,1,,,,,
,0.91,,,,,,,,,g.PNG,g,60fcbd8c2fa267d7e2c04e88,2021-09-08_20h54.34.945,forced_choiceRT,2021.1.2,MacIntel,58.82352941,,,,,,,,1,Ontime,g,1,2.055,8,3,35,1,1,,,,,
,1.75,,,,,,,,,h.PNG,h,60fcbd8c2fa267d7e2c04e88,2021-09-08_20h54.34.945,forced_choiceRT,2021.1.2,MacIntel,58.82352941,,,,,,,,1,Slow,j,0,2.767,9,0,36,2,1,,,,,
,0.75,,,,,,,,,j.PNG,j,60fcbd8c2fa267d7e2c04e88,2021-09-08_20h54.34.945,forced_choiceRT,2021.1.2,MacIntel,58.82352941,,,,,,,,1,Ontime,j,1,1.916,9,1,37,3,1,,,,,
,1.19,,,,,,,,,h.PNG,h,60fcbd8c2fa267d7e2c04e88,2021-09-08_20h54.34.945,forced_choiceRT,2021.1.2,MacIntel,58.82352941,,,,,,,,1,Slow,h,1,2.204,9,2,38,2,1,,,,,
,1.93,,,,,,,,,j.PNG,j,60fcbd8c2fa267d7e2c04e88,2021-09-08_20h54.34.945,forced_choiceRT,2021.1.2,MacIntel,58.82352941,,,,,,,,1,Slow,j,1,2.853,9,3,39,3,1,,,,,
,,,,,,,,,,,,60fcbd8c2fa267d7e2c04e88,2021-09-08_20h54.34.945,forced_choiceRT,2021.1.2,MacIntel,58.82352941,,,,,,,,,,,,,,,,,,0,0,0,0,1
,1.96,,,,,,,,,h.PNG,h,60fcbd8c2fa267d7e2c04e88,2021-09-08_20h54.34.945,forced_choiceRT,2021.1.2,MacIntel,58.82352941,,,,,,,,2,Slow,j,0,2.84,0,0,0,2,1,,,,,
,1.09,,,,,,,,,h.PNG,h,60fcbd8c2fa267d7e2c04e88,2021-09-08_20h54.34.945,forced_choiceRT,2021.1.2,MacIntel,58.82352941,,,,,,,,2,Ontime,h,1,2.09,0,1,1,2,1,,,,,
,1.67,,,,,,,,,j.PNG,j,60fcbd8c2fa267d7e2c04e88,2021-09-08_20h54.34.945,forced_choiceRT,2021.1.2,MacIntel,58.82352941,,,,,,,,2,Slow,j,1,2.267,0,2,2,3,1,,,,,
,0.25,,,,,,,,,j.PNG,j,60fcbd8c2fa267d7e2c04e88,2021-09-08_20h54.34.945,forced_choiceRT,2021.1.2,MacIntel,58.82352941,,,,,,,,2,Ontime,j,1,1.935,0,3,3,3,1,,,,,
,1.53,,,,,,,,,f.PNG,f,60fcbd8c2fa267d7e2c04e88,2021-09-08_20h54.34.945,forced_choiceRT,2021.1.2,MacIntel,58.82352941,,,,,,,,2,Ontime,f,1,1.92,1,0,4,0,1,,,,,
,1.81,,,,,,,,,g.PNG,g,60fcbd8c2fa267d7e2c04e88,2021-09-08_20h54.34.945,forced_choiceRT,2021.1.2,MacIntel,58.82352941,,,,,,,,2,Slow,g,1,2.419,1,1,5,1,1,,,,,
,1.61,,,,,,,,,j.PNG,j,60fcbd8c2fa267d7e2c04e88,2021-09-08_20h54.34.945,forced_choiceRT,2021.1.2,MacIntel,58.82352941,,,,,,,,2,Slow,j,1,2.437,1,2,6,3,1,,,,,
,1.34,,,,,,,,,h.PNG,h,60fcbd8c2fa267d7e2c04e88,2021-09-08_20h54.34.945,forced_choiceRT,2021.1.2,MacIntel,58.82352941,,,,,,,,2,Ontime,h,1,2.098,1,3,7,2,1,,,,,
,0.55,,,,,,,,,h.PNG,h,60fcbd8c2fa267d7e2c04e88,2021-09-08_20h54.34.945,forced_choiceRT,2021.1.2,MacIntel,58.82352941,,,,,,,,2,Ontime,h,1,1.95,2,0,8,2,1,,,,,
,0.27,,,,,,,,,h.PNG,h,60fcbd8c2fa267d7e2c04e88,2021-09-08_20h54.34.945,forced_choiceRT,2021.1.2,MacIntel,58.82352941,,,,,,,,2,Ontime,h,1,1.953,2,1,9,2,1,,,,,
,1.67,,,,,,,,,f.PNG,f,60fcbd8c2fa267d7e2c04e88,2021-09-08_20h54.34.945,forced_choiceRT,2021.1.2,MacIntel,58.82352941,,,,,,,,2,Slow,f,1,2.102,2,2,10,0,1,,,,,
,0,,,,,,,,,j.PNG,j,60fcbd8c2fa267d7e2c04e88,2021-09-08_20h54.34.945,forced_choiceRT,2021.1.2,MacIntel,58.82352941,,,,,,,,2,Ontime,j,1,1.933,2,3,11,3,1,,,,,
,0.44,,,,,,,,,j.PNG,j,60fcbd8c2fa267d7e2c04e88,2021-09-08_20h54.34.945,forced_choiceRT,2021.1.2,MacIntel,58.82352941,,,,,,,,2,Ontime,j,1,1.965,3,0,12,3,1,,,,,
,0.37,,,,,,,,,f.PNG,f,60fcbd8c2fa267d7e2c04e88,2021-09-08_20h54.34.945,forced_choiceRT,2021.1.2,MacIntel,58.82352941,,,,,,,,2,Fast,f,1,1.866,3,1,13,0,1,,,,,
,0.37,,,,,,,,,h.PNG,h,60fcbd8c2fa267d7e2c04e88,2021-09-08_20h54.34.945,forced_choiceRT,2021.1.2,MacIntel,58.82352941,,,,,,,,2,Ontime,h,1,2.099,3,2,14,2,1,,,,,
,1.54,,,,,,,,,g.PNG,g,60fcbd8c2fa267d7e2c04e88,2021-09-08_20h54.34.945,forced_choiceRT,2021.1.2,MacIntel,58.82352941,,,,,,,,2,Ontime,g,1,2.017,3,3,15,1,1,,,,,
,0.76,,,,,,,,,h.PNG,h,60fcbd8c2fa267d7e2c04e88,2021-09-08_20h54.34.945,forced_choiceRT,2021.1.2,MacIntel,58.82352941,,,,,,,,2,Ontime,h,1,1.907,4,0,16,2,1,,,,,
,1.4,,,,,,,,,j.PNG,j,60fcbd8c2fa267d7e2c04e88,2021-09-08_20h54.34.945,forced_choiceRT,2021.1.2,MacIntel,58.82352941,,,,,,,,2,Slow,j,1,2.248,4,1,17,3,1,,,,,
,1.91,,,,,,,,,f.PNG,f,60fcbd8c2fa267d7e2c04e88,2021-09-08_20h54.34.945,forced_choiceRT,2021.1.2,MacIntel,58.82352941,,,,,,,,2,Slow,f,1,2.455,4,2,18,0,1,,,,,
,0.99,,,,,,,,,j.PNG,j,60fcbd8c2fa267d7e2c04e88,2021-09-08_20h54.34.945,forced_choiceRT,2021.1.2,MacIntel,58.82352941,,,,,,,,2,Fast,j,1,1.819,4,3,19,3,1,,,,,
,0.85,,,,,,,,,f.PNG,f,60fcbd8c2fa267d7e2c04e88,2021-09-08_20h54.34.945,forced_choiceRT,2021.1.2,MacIntel,58.82352941,,,,,,,,2,Ontime,f,1,1.967,5,0,20,0,1,,,,,
,0.34,,,,,,,,,j.PNG,j,60fcbd8c2fa267d7e2c04e88,2021-09-08_20h54.34.945,forced_choiceRT,2021.1.2,MacIntel,58.82352941,,,,,,,,2,Ontime,j,1,1.903,5,1,21,3,1,,,,,
,0.6,,,,,,,,,g.PNG,g,60fcbd8c2fa267d7e2c04e88,2021-09-08_20h54.34.945,forced_choiceRT,2021.1.2,MacIntel,58.82352941,,,,,,,,2,Slow,g,1,2.116,5,2,22,1,1,,,,,
,1.66,,,,,,,,,g.PNG,g,60fcbd8c2fa267d7e2c04e88,2021-09-08_20h54.34.945,forced_choiceRT,2021.1.2,MacIntel,58.82352941,,,,,,,,2,Slow,g,1,2.937,5,3,23,1,1,,,,,
,1.37,,,,,,,,,h.PNG,h,60fcbd8c2fa267d7e2c04e88,2021-09-08_20h54.34.945,forced_choiceRT,2021.1.2,MacIntel,58.82352941,,,,,,,,2,Slow,h,1,2.141,6,0,24,2,1,,,,,
,1.59,,,,,,,,,f.PNG,f,60fcbd8c2fa267d7e2c04e88,2021-09-08_20h54.34.945,forced_choiceRT,2021.1.2,MacIntel,58.82352941,,,,,,,,2,Slow,f,1,2.117,6,1,25,0,1,,,,,
,0.59,,,,,,,,,f.PNG,f,60fcbd8c2fa267d7e2c04e88,2021-09-08_20h54.34.945,forced_choiceRT,2021.1.2,MacIntel,58.82352941,,,,,,,,2,Fast,f,1,1.783,6,2,26,0,1,,,,,
,0.14,,,,,,,,,g.PNG,g,60fcbd8c2fa267d7e2c04e88,2021-09-08_20h54.34.945,forced_choiceRT,2021.1.2,MacIntel,58.82352941,,,,,,,,2,Ontime,g,1,1.952,6,3,27,1,1,,,,,
,0.95,,,,,,,,,g.PNG,g,60fcbd8c2fa267d7e2c04e88,2021-09-08_20h54.34.945,forced_choiceRT,2021.1.2,MacIntel,58.82352941,,,,,,,,2,Ontime,g,1,2.033,7,0,28,1,1,,,,,
,1.2,,,,,,,,,g.PNG,g,60fcbd8c2fa267d7e2c04e88,2021-09-08_20h54.34.945,forced_choiceRT,2021.1.2,MacIntel,58.82352941,,,,,,,,2,Ontime,g,1,2.016,7,1,29,1,1,,,,,
,0.76,,,,,,,,,g.PNG,g,60fcbd8c2fa267d7e2c04e88,2021-09-08_20h54.34.945,forced_choiceRT,2021.1.2,MacIntel,58.82352941,,,,,,,,2,Ontime,g,1,1.965,7,2,30,1,1,,,,,
,1.52,,,,,,,,,h.PNG,h,60fcbd8c2fa267d7e2c04e88,2021-09-08_20h54.34.945,forced_choiceRT,2021.1.2,MacIntel,58.82352941,,,,,,,,2,Slow,h,1,2.169,7,3,31,2,1,,,,,
,1.67,,,,,,,,,f.PNG,f,60fcbd8c2fa267d7e2c04e88,2021-09-08_20h54.34.945,forced_choiceRT,2021.1.2,MacIntel,58.82352941,,,,,,,,2,Slow,f,1,2.333,8,0,32,0,1,,,,,
,1.67,,,,,,,,,g.PNG,g,60fcbd8c2fa267d7e2c04e88,2021-09-08_20h54.34.945,forced_choiceRT,2021.1.2,MacIntel,58.82352941,,,,,,,,2,Slow,g,1,2.29,8,1,33,1,1,,,,,
,0.87,,,,,,,,,g.PNG,g,60fcbd8c2fa267d7e2c04e88,2021-09-08_20h54.34.945,forced_choiceRT,2021.1.2,MacIntel,58.82352941,,,,,,,,2,Ontime,g,1,1.969,8,2,34,1,1,,,,,
,0.45,,,,,,,,,f.PNG,f,60fcbd8c2fa267d7e2c04e88,2021-09-08_20h54.34.945,forced_choiceRT,2021.1.2,MacIntel,58.82352941,,,,,,,,2,Fast,f,1,1.783,8,3,35,0,1,,,,,
,1.99,,,,,,,,,j.PNG,j,60fcbd8c2fa267d7e2c04e88,2021-09-08_20h54.34.945,forced_choiceRT,2021.1.2,MacIntel,58.82352941,,,,,,,,2,Slow,h,0,3.332,9,0,36,3,1,,,,,
,1.61,,,,,,,,,f.PNG,f,60fcbd8c2fa267d7e2c04e88,2021-09-08_20h54.34.945,forced_choiceRT,2021.1.2,MacIntel,58.82352941,,,,,,,,2,Slow,f,1,2.249,9,1,37,0,1,,,,,
,0.97,,,,,,,,,h.PNG,h,60fcbd8c2fa267d7e2c04e88,2021-09-08_20h54.34.945,forced_choiceRT,2021.1.2,MacIntel,58.82352941,,,,,,,,2,Slow,h,1,2.132,9,2,38,2,1,,,,,
,1.06,,,,,,,,,j.PNG,j,60fcbd8c2fa267d7e2c04e88,2021-09-08_20h54.34.945,forced_choiceRT,2021.1.2,MacIntel,58.82352941,,,,,,,,2,Slow,j,1,2.2,9,3,39,3,1,,,,,
,,,,,,,,,,,,60fcbd8c2fa267d7e2c04e88,2021-09-08_20h54.34.945,forced_choiceRT,2021.1.2,MacIntel,58.82352941,,,,,,,,,,,,,,,,,,1,0,1,0,1
,0.93,,,,,,,,,f.PNG,f,60fcbd8c2fa267d7e2c04e88,2021-09-08_20h54.34.945,forced_choiceRT,2021.1.2,MacIntel,58.82352941,,,,,,,,3,Fast,f,1,1.68,0,0,0,0,1,,,,,
,1.01,,,,,,,,,j.PNG,j,60fcbd8c2fa267d7e2c04e88,2021-09-08_20h54.34.945,forced_choiceRT,2021.1.2,MacIntel,58.82352941,,,,,,,,3,Ontime,j,1,2.069,0,1,1,3,1,,,,,
,0.75,,,,,,,,,f.PNG,f,60fcbd8c2fa267d7e2c04e88,2021-09-08_20h54.34.945,forced_choiceRT,2021.1.2,MacIntel,58.82352941,,,,,,,,3,Ontime,f,1,1.982,0,2,2,0,1,,,,,
,1.13,,,,,,,,,h.PNG,h,60fcbd8c2fa267d7e2c04e88,2021-09-08_20h54.34.945,forced_choiceRT,2021.1.2,MacIntel,58.82352941,,,,,,,,3,Ontime,h,1,1.999,0,3,3,2,1,,,,,
,1.48,,,,,,,,,g.PNG,g,60fcbd8c2fa267d7e2c04e88,2021-09-08_20h54.34.945,forced_choiceRT,2021.1.2,MacIntel,58.82352941,,,,,,,,3,Slow,g,1,2.119,1,0,4,1,1,,,,,
,0.39,,,,,,,,,f.PNG,f,60fcbd8c2fa267d7e2c04e88,2021-09-08_20h54.34.945,forced_choiceRT,2021.1.2,MacIntel,58.82352941,,,,,,,,3,Fast,f,1,1.819,1,1,5,0,1,,,,,
,1.57,,,,,,,,,g.PNG,g,60fcbd8c2fa267d7e2c04e88,2021-09-08_20h54.34.945,forced_choiceRT,2021.1.2,MacIntel,58.82352941,,,,,,,,3,Slow,h,0,2.233,1,2,6,1,1,,,,,
,1,,,,,,,,,h.PNG,h,60fcbd8c2fa267d7e2c04e88,2021-09-08_20h54.34.945,forced_choiceRT,2021.1.2,MacIntel,58.82352941,,,,,,,,3,Slow,h,1,3.334,1,3,7,2,1,,,,,
,0.98,,,,,,,,,h.PNG,h,60fcbd8c2fa267d7e2c04e88,2021-09-08_20h54.34.945,forced_choiceRT,2021.1.2,MacIntel,58.82352941,,,,,,,,3,Slow,h,1,2.75,2,0,8,2,1,,,,,
,1.26,,,,,,,,,j.PNG,j,60fcbd8c2fa267d7e2c04e88,2021-09-08_20h54.34.945,forced_choiceRT,2021.1.2,MacIntel,58.82352941,,,,,,,,3,Slow,g,0,2.15,2,1,9,3,1,,,,,
,0.55,,,,,,,,,j.PNG,j,60fcbd8c2fa267d7e2c04e88,2021-09-08_20h54.34.945,forced_choiceRT,2021.1.2,MacIntel,58.82352941,,,,,,,,3,Ontime,j,1,1.949,2,2,10,3,1,,,,,
,1.48,,,,,,,,,g.PNG,g,60fcbd8c2fa267d7e2c04e88,2021-09-08_20h54.34.945,forced_choiceRT,2021.1.2,MacIntel,58.82352941,,,,,,,,3,Slow,g,1,2.15,2,3,11,1,1,,,,,
,1.66,,,,,,,,,h.PNG,h,60fcbd8c2fa267d7e2c04e88,2021-09-08_20h54.34.945,forced_choiceRT,2021.1.2,MacIntel,58.82352941,,,,,,,,3,Slow,h,1,2.669,3,0,12,2,1,,,,,
,0.6,,,,,,,,,h.PNG,h,60fcbd8c2fa267d7e2c04e88,2021-09-08_20h54.34.945,forced_choiceRT,2021.1.2,MacIntel,58.82352941,,,,,,,,3,Fast,h,1,1.599,3,1,13,2,1,,,,,
,1.33,,,,,,,,,f.PNG,f,60fcbd8c2fa267d7e2c04e88,2021-09-08_20h54.34.945,forced_choiceRT,2021.1.2,MacIntel,58.82352941,,,,,,,,3,Ontime,f,1,2.017,3,2,14,0,1,,,,,
,0.64,,,,,,,,,j.PNG,j,60fcbd8c2fa267d7e2c04e88,2021-09-08_20h54.34.945,forced_choiceRT,2021.1.2,MacIntel,58.82352941,,,,,,,,3,Fast,j,1,1.9,3,3,15,3,1,,,,,
,0.25,,,,,,,,,g.PNG,g,60fcbd8c2fa267d7e2c04e88,2021-09-08_20h54.34.945,forced_choiceRT,2021.1.2,MacIntel,58.82352941,,,,,,,,3,Ontime,g,1,1.998,4,0,16,1,1,,,,,
,1.9,,,,,,,,,f.PNG,f,60fcbd8c2fa267d7e2c04e88,2021-09-08_20h54.34.945,forced_choiceRT,2021.1.2,MacIntel,58.82352941,,,,,,,,3,Slow,f,1,2.6,4,1,17,0,1,,,,,
,1.71,,,,,,,,,j.PNG,j,60fcbd8c2fa267d7e2c04e88,2021-09-08_20h54.34.945,forced_choiceRT,2021.1.2,MacIntel,58.82352941,,,,,,,,3,Slow,h,0,2.284,4,2,18,3,1,,,,,
,0.76,,,,,,,,,g.PNG,g,60fcbd8c2fa267d7e2c04e88,2021-09-08_20h54.34.945,forced_choiceRT,2021.1.2,MacIntel,58.82352941,,,,,,,,3,Ontime,g,1,2.049,4,3,19,1,1,,,,,
,1.81,,,,,,,,,f.PNG,f,60fcbd8c2fa267d7e2c04e88,2021-09-08_20h54.34.945,forced_choiceRT,2021.1.2,MacIntel,58.82352941,,,,,,,,3,Slow,f,1,2.132,5,0,20,0,1,,,,,
,1.36,,,,,,,,,h.PNG,h,60fcbd8c2fa267d7e2c04e88,2021-09-08_20h54.34.945,forced_choiceRT,2021.1.2,MacIntel,58.82352941,,,,,,,,3,Slow,h,1,2.601,5,1,21,2,1,,,,,
,1.28,,,,,,,,,f.PNG,f,60fcbd8c2fa267d7e2c04e88,2021-09-08_20h54.34.945,forced_choiceRT,2021.1.2,MacIntel,58.82352941,,,,,,,,3,Slow,f,1,2.102,5,2,22,0,1,,,,,
,1.22,,,,,,,,,f.PNG,f,60fcbd8c2fa267d7e2c04e88,2021-09-08_20h54.34.945,forced_choiceRT,2021.1.2,MacIntel,58.82352941,,,,,,,,3,Fast,f,1,1.834,5,3,23,0,1,,,,,
,1.29,,,,,,,,,g.PNG,g,60fcbd8c2fa267d7e2c04e88,2021-09-08_20h54.34.945,forced_choiceRT,2021.1.2,MacIntel,58.82352941,,,,,,,,3,Slow,g,1,2.186,6,0,24,1,1,,,,,
,1.59,,,,,,,,,f.PNG,f,60fcbd8c2fa267d7e2c04e88,2021-09-08_20h54.34.945,forced_choiceRT,2021.1.2,MacIntel,58.82352941,,,,,,,,3,Slow,f,1,2.266,6,1,25,0,1,,,,,
,1.62,,,,,,,,,f.PNG,f,60fcbd8c2fa267d7e2c04e88,2021-09-08_20h54.34.945,forced_choiceRT,2021.1.2,MacIntel,58.82352941,,,,,,,,3,Ontime,f,1,2.049,6,2,26,0,1,,,,,
,0.71,,,,,,,,,j.PNG,j,60fcbd8c2fa267d7e2c04e88,2021-09-08_20h54.34.945,forced_choiceRT,2021.1.2,MacIntel,58.82352941,,,,,,,,3,Slow,j,1,2.24,6,3,27,3,1,,,,,
,1.41,,,,,,,,,g.PNG,g,60fcbd8c2fa267d7e2c04e88,2021-09-08_20h54.34.945,forced_choiceRT,2021.1.2,MacIntel,58.82352941,,,,,,,,3,Ontime,g,1,2.049,7,0,28,1,1,,,,,
,0.83,,,,,,,,,h.PNG,h,60fcbd8c2fa267d7e2c04e88,2021-09-08_20h54.34.945,forced_choiceRT,2021.1.2,MacIntel,58.82352941,,,,,,,,3,Ontime,h,1,2.02,7,1,29,2,1,,,,,
,0.09,,,,,,,,,g.PNG,g,60fcbd8c2fa267d7e2c04e88,2021-09-08_20h54.34.945,forced_choiceRT,2021.1.2,MacIntel,58.82352941,,,,,,,,3,Fast,g,1,1.819,7,2,30,1,1,,,,,
,1.79,,,,,,,,,j.PNG,j,60fcbd8c2fa267d7e2c04e88,2021-09-08_20h54.34.945,forced_choiceRT,2021.1.2,MacIntel,58.82352941,,,,,,,,3,Slow,g,0,2.233,7,3,31,3,1,,,,,
,0.06,,,,,,,,,j.PNG,j,60fcbd8c2fa267d7e2c04e88,2021-09-08_20h54.34.945,forced_choiceRT,2021.1.2,MacIntel,58.82352941,,,,,,,,3,Fast,j,1,1.853,8,0,32,3,1,,,,,
,1.39,,,,,,,,,h.PNG,h,60fcbd8c2fa267d7e2c04e88,2021-09-08_20h54.34.945,forced_choiceRT,2021.1.2,MacIntel,58.82352941,,,,,,,,3,Slow,h,1,2.299,8,1,33,2,1,,,,,
,1.15,,,,,,,,,g.PNG,g,60fcbd8c2fa267d7e2c04e88,2021-09-08_20h54.34.945,forced_choiceRT,2021.1.2,MacIntel,58.82352941,,,,,,,,3,Ontime,g,1,2.066,8,2,34,1,1,,,,,
,0.19,,,,,,,,,j.PNG,j,60fcbd8c2fa267d7e2c04e88,2021-09-08_20h54.34.945,forced_choiceRT,2021.1.2,MacIntel,58.82352941,,,,,,,,3,Ontime,j,1,2.016,8,3,35,3,1,,,,,
,0.21,,,,,,,,,h.PNG,h,60fcbd8c2fa267d7e2c04e88,2021-09-08_20h54.34.945,forced_choiceRT,2021.1.2,MacIntel,58.82352941,,,,,,,,3,Ontime,h,1,1.966,9,0,36,2,1,,,,,
,0.14,,,,,,,,,j.PNG,j,60fcbd8c2fa267d7e2c04e88,2021-09-08_20h54.34.945,forced_choiceRT,2021.1.2,MacIntel,58.82352941,,,,,,,,3,Ontime,j,1,2.053,9,1,37,3,1,,,,,
,0.93,,,,,,,,,h.PNG,h,60fcbd8c2fa267d7e2c04e88,2021-09-08_20h54.34.945,forced_choiceRT,2021.1.2,MacIntel,58.82352941,,,,,,,,3,Ontime,h,1,2.099,9,2,38,2,1,,,,,
,0.91,,,,,,,,,g.PNG,g,60fcbd8c2fa267d7e2c04e88,2021-09-08_20h54.34.945,forced_choiceRT,2021.1.2,MacIntel,58.82352941,,,,,,,,3,Slow,g,1,2.15,9,3,39,1,1,,,,,
,,,,,,,,,,,,60fcbd8c2fa267d7e2c04e88,2021-09-08_20h54.34.945,forced_choiceRT,2021.1.2,MacIntel,58.82352941,,,,,,,,,,,,,,,,,,2,0,2,0,1
,1.33,,,,,,,,,f.PNG,f,60fcbd8c2fa267d7e2c04e88,2021-09-08_20h54.34.945,forced_choiceRT,2021.1.2,MacIntel,58.82352941,,,,,,,,4,Ontime,f,1,2.011,0,0,0,0,1,,,,,
,0.49,,,,,,,,,j.PNG,j,60fcbd8c2fa267d7e2c04e88,2021-09-08_20h54.34.945,forced_choiceRT,2021.1.2,MacIntel,58.82352941,,,,,,,,4,Ontime,j,1,2.015,0,1,1,3,1,,,,,
,1.99,,,,,,,,,f.PNG,f,60fcbd8c2fa267d7e2c04e88,2021-09-08_20h54.34.945,forced_choiceRT,2021.1.2,MacIntel,58.82352941,,,,,,,,4,Slow,f,1,2.723,0,2,2,0,1,,,,,
,0.1,,,,,,,,,j.PNG,j,60fcbd8c2fa267d7e2c04e88,2021-09-08_20h54.34.945,forced_choiceRT,2021.1.2,MacIntel,58.82352941,,,,,,,,4,Ontime,j,1,1.957,0,3,3,3,1,,,,,
,1.97,,,,,,,,,h.PNG,h,60fcbd8c2fa267d7e2c04e88,2021-09-08_20h54.34.945,forced_choiceRT,2021.1.2,MacIntel,58.82352941,,,,,,,,4,Slow,g,0,2.515,1,0,4,2,1,,,,,
,1.68,,,,,,,,,j.PNG,j,60fcbd8c2fa267d7e2c04e88,2021-09-08_20h54.34.945,forced_choiceRT,2021.1.2,MacIntel,58.82352941,,,,,,,,4,Slow,j,1,2.183,1,1,5,3,1,,,,,
,1.33,,,,,,,,,h.PNG,h,60fcbd8c2fa267d7e2c04e88,2021-09-08_20h54.34.945,forced_choiceRT,2021.1.2,MacIntel,58.82352941,,,,,,,,4,Slow,h,1,2.118,1,2,6,2,1,,,,,
,0.62,,,,,,,,,f.PNG,f,60fcbd8c2fa267d7e2c04e88,2021-09-08_20h54.34.945,forced_choiceRT,2021.1.2,MacIntel,58.82352941,,,,,,,,4,Ontime,f,1,1.95,1,3,7,0,1,,,,,
,1.51,,,,,,,,,g.PNG,g,60fcbd8c2fa267d7e2c04e88,2021-09-08_20h54.34.945,forced_choiceRT,2021.1.2,MacIntel,58.82352941,,,,,,,,4,Slow,g,1,2.274,2,0,8,1,1,,,,,
,0.16,,,,,,,,,f.PNG,f,60fcbd8c2fa267d7e2c04e88,2021-09-08_20h54.34.945,forced_choiceRT,2021.1.2,MacIntel,58.82352941,,,,,,,,4,Fast,f,1,1.887,2,1,9,0,1,,,,,
,1.74,,,,,,,,,h.PNG,h,60fcbd8c2fa267d7e2c04e88,2021-09-08_20h54.34.945,forced_choiceRT,2021.1.2,MacIntel,58.82352941,,,,,,,,4,Slow,f,0,2.249,2,2,10,2,1,,,,,
,0.55,,,,,,,,,g.PNG,g,60fcbd8c2fa267d7e2c04e88,2021-09-08_20h54.34.945,forced_choiceRT,2021.1.2,MacIntel,58.82352941,,,,,,,,4,Ontime,g,1,2.054,2,3,11,1,1,,,,,
,1.47,,,,,,,,,h.PNG,h,60fcbd8c2fa267d7e2c04e88,2021-09-08_20h54.34.945,forced_choiceRT,2021.1.2,MacIntel,58.82352941,,,,,,,,4,Slow,h,1,2.682,3,0,12,2,1,,,,,
,1.91,,,,,,,,,j.PNG,j,60fcbd8c2fa267d7e2c04e88,2021-09-08_20h54.34.945,forced_choiceRT,2021.1.2,MacIntel,58.82352941,,,,,,,,4,Slow,j,1,3.056,3,1,13,3,1,,,,,
,1.96,,,,,,,,,h.PNG,h,60fcbd8c2fa267d7e2c04e88,2021-09-08_20h54.34.945,forced_choiceRT,2021.1.2,MacIntel,58.82352941,,,,,,,,4,Slow,h,1,3.183,3,2,14,2,1,,,,,
,0.74,,,,,,,,,j.PNG,j,60fcbd8c2fa267d7e2c04e88,2021-09-08_20h54.34.945,forced_choiceRT,2021.1.2,MacIntel,58.82352941,,,,,,,,4,Fast,j,1,1.9,3,3,15,3,1,,,,,
,0.67,,,,,,,,,g.PNG,g,60fcbd8c2fa267d7e2c04e88,2021-09-08_20h54.34.945,forced_choiceRT,2021.1.2,MacIntel,58.82352941,,,,,,,,4,Fast,g,1,1.467,4,0,16,1,1,,,,,
,1.44,,,,,,,,,f.PNG,f,60fcbd8c2fa267d7e2c04e88,2021-09-08_20h54.34.945,forced_choiceRT,2021.1.2,MacIntel,58.82352941,,,,,,,,4,Slow,f,1,2.1,4,1,17,0,1,,,,,
,1.43,,,,,,,,,g.PNG,g,60fcbd8c2fa267d7e2c04e88,2021-09-08_20h54.34.945,forced_choiceRT,2021.1.2,MacIntel,58.82352941,,,,,,,,4,Slow,g,1,2.106,4,2,18,1,1,,,,,
,0.77,,,,,,,,,f.PNG,f,60fcbd8c2fa267d7e2c04e88,2021-09-08_20h54.34.945,forced_choiceRT,2021.1.2,MacIntel,58.82352941,,,,,,,,4,Ontime,f,1,1.923,4,3,19,0,1,,,,,
,1.23,,,,,,,,,f.PNG,f,60fcbd8c2fa267d7e2c04e88,2021-09-08_20h54.34.945,forced_choiceRT,2021.1.2,MacIntel,58.82352941,,,,,,,,4,Slow,f,1,2.116,5,0,20,0,1,,,,,
,0.75,,,,,,,,,g.PNG,g,60fcbd8c2fa267d7e2c04e88,2021-09-08_20h54.34.945,forced_choiceRT,2021.1.2,MacIntel,58.82352941,,,,,,,,4,Ontime,g,1,1.906,5,1,21,1,1,,,,,
,0.76,,,,,,,,,h.PNG,h,60fcbd8c2fa267d7e2c04e88,2021-09-08_20h54.34.945,forced_choiceRT,2021.1.2,MacIntel,58.82352941,,,,,,,,4,Ontime,h,1,2.05,5,2,22,2,1,,,,,
,0.98,,,,,,,,,j.PNG,j,60fcbd8c2fa267d7e2c04e88,2021-09-08_20h54.34.945,forced_choiceRT,2021.1.2,MacIntel,58.82352941,,,,,,,,4,Slow,j,1,2.104,5,3,23,3,1,,,,,
,0.03,,,,,,,,,g.PNG,g,60fcbd8c2fa267d7e2c04e88,2021-09-08_20h54.34.945,forced_choiceRT,2021.1.2,MacIntel,58.82352941,,,,,,,,4,Fast,g,1,1.767,6,0,24,1,1,,,,,
,1.27,,,,,,,,,g.PNG,g,60fcbd8c2fa267d7e2c04e88,2021-09-08_20h54.34.945,forced_choiceRT,2021.1.2,MacIntel,58.82352941,,,,,,,,4,Slow,g,1,2.152,6,1,25,1,1,,,,,
,1.05,,,,,,,,,g.PNG,g,60fcbd8c2fa267d7e2c04e88,2021-09-08_20h54.34.945,forced_choiceRT,2021.1.2,MacIntel,58.82352941,,,,,,,,4,Ontime,g,1,1.914,6,2,26,1,1,,,,,
,0.13,,,,,,,,,h.PNG,h,60fcbd8c2fa267d7e2c04e88,2021-09-08_20h54.34.945,forced_choiceRT,2021.1.2,MacIntel,58.82352941,,,,,,,,4,Fast,h,1,1.748,6,3,27,2,1,,,,,
,1.98,,,,,,,,,f.PNG,f,60fcbd8c2fa267d7e2c04e88,2021-09-08_20h54.34.945,forced_choiceRT,2021.1.2,MacIntel,58.82352941,,,,,,,,4,Slow,f,1,2.407,7,0,28,0,1,,,,,
,0.54,,,,,,,,,j.PNG,j,60fcbd8c2fa267d7e2c04e88,2021-09-08_20h54.34.945,forced_choiceRT,2021.1.2,MacIntel,58.82352941,,,,,,,,4,Slow,j,1,2.215,7,1,29,3,1,,,,,
,0.89,,,,,,,,,h.PNG,h,60fcbd8c2fa267d7e2c04e88,2021-09-08_20h54.34.945,forced_choiceRT,2021.1.2,MacIntel,58.82352941,,,,,,,,4,Ontime,h,1,2.033,7,2,30,2,1,,,,,
,1.12,,,,,,,,,j.PNG,j,60fcbd8c2fa267d7e2c04e88,2021-09-08_20h54.34.945,forced_choiceRT,2021.1.2,MacIntel,58.82352941,,,,,,,,4,Ontime,j,1,2.099,7,3,31,3,1,,,,,
,0.24,,,,,,,,,h.PNG,h,60fcbd8c2fa267d7e2c04e88,2021-09-08_20h54.34.945,forced_choiceRT,2021.1.2,MacIntel,58.82352941,,,,,,,,4,Ontime,h,1,1.985,8,0,32,2,1,,,,,
,1.83,,,,,,,,,g.PNG,g,60fcbd8c2fa267d7e2c04e88,2021-09-08_20h54.34.945,forced_choiceRT,2021.1.2,MacIntel,58.82352941,,,,,,,,4,Slow,f,0,2.236,8,1,33,1,1,,,,,
,0.36,,,,,,,,,f.PNG,f,60fcbd8c2fa267d7e2c04e88,2021-09-08_20h54.34.945,forced_choiceRT,2021.1.2,MacIntel,58.82352941,,,,,,,,4,Ontime,f,1,1.917,8,2,34,0,1,,,,,
,0.78,,,,,,,,,f.PNG,f,60fcbd8c2fa267d7e2c04e88,2021-09-08_20h54.34.945,forced_choiceRT,2021.1.2,MacIntel,58.82352941,,,,,,,,4,Ontime,f,1,1.954,8,3,35,0,1,,,,,
,0.91,,,,,,,,,j.PNG,j,60fcbd8c2fa267d7e2c04e88,2021-09-08_20h54.34.945,forced_choiceRT,2021.1.2,MacIntel,58.82352941,,,,,,,,4,Ontime,j,1,2.069,9,0,36,3,1,,,,,
,0.5,,,,,,,,,g.PNG,g,60fcbd8c2fa267d7e2c04e88,2021-09-08_20h54.34.945,forced_choiceRT,2021.1.2,MacIntel,58.82352941,,,,,,,,4,Ontime,g,1,1.95,9,1,37,1,1,,,,,
,0.88,,,,,,,,,h.PNG,h,60fcbd8c2fa267d7e2c04e88,2021-09-08_20h54.34.945,forced_choiceRT,2021.1.2,MacIntel,58.82352941,,,,,,,,4,Ontime,h,1,2.016,9,2,38,2,1,,,,,
,1.37,,,,,,,,,j.PNG,j,60fcbd8c2fa267d7e2c04e88,2021-09-08_20h54.34.945,forced_choiceRT,2021.1.2,MacIntel,58.82352941,,,,,,,,4,Slow,j,1,2.221,9,3,39,3,1,,,,,
,,,,,,,,,,,,60fcbd8c2fa267d7e2c04e88,2021-09-08_20h54.34.945,forced_choiceRT,2021.1.2,MacIntel,58.82352941,,,,,,,,,,,,,,,,,,3,0,3,0,1
,0.51,,,,,,,,,f.PNG,f,60fcbd8c2fa267d7e2c04e88,2021-09-08_20h54.34.945,forced_choiceRT,2021.1.2,MacIntel,58.82352941,,,,,,,,5,Fast,f,1,1.054,0,0,0,0,1,,,,,
,0.92,,,,,,,,,h.PNG,h,60fcbd8c2fa267d7e2c04e88,2021-09-08_20h54.34.945,forced_choiceRT,2021.1.2,MacIntel,58.82352941,,,,,,,,5,Slow,j,0,2.298,0,1,1,2,1,,,,,
,0.8,,,,,,,,,f.PNG,f,60fcbd8c2fa267d7e2c04e88,2021-09-08_20h54.34.945,forced_choiceRT,2021.1.2,MacIntel,58.82352941,,,,,,,,5,Ontime,f,1,1.955,0,2,2,0,1,,,,,
,0,,,,,,,,,f.PNG,f,60fcbd8c2fa267d7e2c04e88,2021-09-08_20h54.34.945,forced_choiceRT,2021.1.2,MacIntel,58.82352941,,,,,,,,5,Ontime,f,1,1.915,0,3,3,0,1,,,,,
,1.63,,,,,,,,,j.PNG,j,60fcbd8c2fa267d7e2c04e88,2021-09-08_20h54.34.945,forced_choiceRT,2021.1.2,MacIntel,58.82352941,,,,,,,,5,Slow,g,0,2.339,1,0,4,3,1,,,,,
,0.31,,,,,,,,,j.PNG,j,60fcbd8c2fa267d7e2c04e88,2021-09-08_20h54.34.945,forced_choiceRT,2021.1.2,MacIntel,58.82352941,,,,,,,,5,Ontime,j,1,1.902,1,1,5,3,1,,,,,
,1.04,,,,,,,,,g.PNG,g,60fcbd8c2fa267d7e2c04e88,2021-09-08_20h54.34.945,forced_choiceRT,2021.1.2,MacIntel,58.82352941,,,,,,,,5,Ontime,g,1,1.916,1,2,6,1,1,,,,,
,0.46,,,,,,,,,g.PNG,g,60fcbd8c2fa267d7e2c04e88,2021-09-08_20h54.34.945,forced_choiceRT,2021.1.2,MacIntel,58.82352941,,,,,,,,5,Ontime,g,1,1.922,1,3,7,1,1,,,,,
,1.34,,,,,,,,,j.PNG,j,60fcbd8c2fa267d7e2c04e88,2021-09-08_20h54.34.945,forced_choiceRT,2021.1.2,MacIntel,58.82352941,,,,,,,,5,Slow,j,1,2.283,2,0,8,3,1,,,,,
,1.73,,,,,,,,,h.PNG,h,60fcbd8c2fa267d7e2c04e88,2021-09-08_20h54.34.945,forced_choiceRT,2021.1.2,MacIntel,58.82352941,,,,,,,,5,Slow,h,1,2.582,2,1,9,2,1,,,,,
,0.95,,,,,,,,,j.PNG,j,60fcbd8c2fa267d7e2c04e88,2021-09-08_20h54.34.945,forced_choiceRT,2021.1.2,MacIntel,58.82352941,,,,,,,,5,Ontime,j,1,1.966,2,2,10,3,1,,,,,
,1.51,,,,,,,,,h.PNG,h,60fcbd8c2fa267d7e2c04e88,2021-09-08_20h54.34.945,forced_choiceRT,2021.1.2,MacIntel,58.82352941,,,,,,,,5,Slow,h,1,2.3,2,3,11,2,1,,,,,
,1.17,,,,,,,,,f.PNG,f,60fcbd8c2fa267d7e2c04e88,2021-09-08_20h54.34.945,forced_choiceRT,2021.1.2,MacIntel,58.82352941,,,,,,,,5,Fast,f,1,1.719,3,0,12,0,1,,,,,
,0.03,,,,,,,,,f.PNG,f,60fcbd8c2fa267d7e2c04e88,2021-09-08_20h54.34.945,forced_choiceRT,2021.1.2,MacIntel,58.82352941,,,,,,,,5,Ontime,f,1,1.983,3,1,13,0,1,,,,,
,1.2,,,,,,,,,g.PNG,g,60fcbd8c2fa267d7e2c04e88,2021-09-08_20h54.34.945,forced_choiceRT,2021.1.2,MacIntel,58.82352941,,,,,,,,5,Slow,g,1,2.224,3,2,14,1,1,,,,,
,1.16,,,,,,,,,h.PNG,h,60fcbd8c2fa267d7e2c04e88,2021-09-08_20h54.34.945,forced_choiceRT,2021.1.2,MacIntel,58.82352941,,,,,,,,5,Slow,h,1,2.166,3,3,15,2,1,,,,,
,1.62,,,,,,,,,f.PNG,f,60fcbd8c2fa267d7e2c04e88,2021-09-08_20h54.34.945,forced_choiceRT,2021.1.2,MacIntel,58.82352941,,,,,,,,5,Slow,f,1,2.166,4,0,16,0,1,,,,,
,1.79,,,,,,,,,g.PNG,g,60fcbd8c2fa267d7e2c04e88,2021-09-08_20h54.34.945,forced_choiceRT,2021.1.2,MacIntel,58.82352941,,,,,,,,5,Slow,f,0,2.153,4,1,17,1,1,,,,,
,0.48,,,,,,,,,g.PNG,g,60fcbd8c2fa267d7e2c04e88,2021-09-08_20h54.34.945,forced_choiceRT,2021.1.2,MacIntel,58.82352941,,,,,,,,5,Ontime,g,1,1.986,4,2,18,1,1,,,,,
,0.78,,,,,,,,,f.PNG,f,60fcbd8c2fa267d7e2c04e88,2021-09-08_20h54.34.945,forced_choiceRT,2021.1.2,MacIntel,58.82352941,,,,,,,,5,Ontime,f,1,1.964,4,3,19,0,1,,,,,
,0.53,,,,,,,,,f.PNG,f,60fcbd8c2fa267d7e2c04e88,2021-09-08_20h54.34.945,forced_choiceRT,2021.1.2,MacIntel,58.82352941,,,,,,,,5,Ontime,f,1,2.004,5,0,20,0,1,,,,,
,1.73,,,,,,,,,j.PNG,j,60fcbd8c2fa267d7e2c04e88,2021-09-08_20h54.34.945,forced_choiceRT,2021.1.2,MacIntel,58.82352941,,,,,,,,5,Slow,j,1,2.549,5,1,21,3,1,,,,,
,0.57,,,,,,,,,h.PNG,h,60fcbd8c2fa267d7e2c04e88,2021-09-08_20h54.34.945,forced_choiceRT,2021.1.2,MacIntel,58.82352941,,,,,,,,5,Ontime,h,1,2.068,5,2,22,2,1,,,,,
,0.95,,,,,,,,,j.PNG,j,60fcbd8c2fa267d7e2c04e88,2021-09-08_20h54.34.945,forced_choiceRT,2021.1.2,MacIntel,58.82352941,,,,,,,,5,Ontime,j,1,1.916,5,3,23,3,1,,,,,
,1.83,,,,,,,,,h.PNG,h,60fcbd8c2fa267d7e2c04e88,2021-09-08_20h54.34.945,forced_choiceRT,2021.1.2,MacIntel,58.82352941,,,,,,,,5,Slow,h,1,2.767,6,0,24,2,1,,,,,
,1.2,,,,,,,,,f.PNG,f,60fcbd8c2fa267d7e2c04e88,2021-09-08_20h54.34.945,forced_choiceRT,2021.1.2,MacIntel,58.82352941,,,,,,,,5,Ontime,f,1,2.019,6,1,25,0,1,,,,,
,0.93,,,,,,,,,f.PNG,f,60fcbd8c2fa267d7e2c04e88,2021-09-08_20h54.34.945,forced_choiceRT,2021.1.2,MacIntel,58.82352941,,,,,,,,5,Fast,f,1,1.765,6,2,26,0,1,,,,,
,1.68,,,,,,,,,g.PNG,g,60fcbd8c2fa267d7e2c04e88,2021-09-08_20h54.34.945,forced_choiceRT,2021.1.2,MacIntel,58.82352941,,,,,,,,5,Slow,g,1,2.351,6,3,27,1,1,,,,,
,1.79,,,,,,,,,j.PNG,j,60fcbd8c2fa267d7e2c04e88,2021-09-08_20h54.34.945,forced_choiceRT,2021.1.2,MacIntel,58.82352941,,,,,,,,5,Slow,j,1,2.35,7,0,28,3,1,,,,,
,0.06,,,,,,,,,g.PNG,g,60fcbd8c2fa267d7e2c04e88,2021-09-08_20h54.34.945,forced_choiceRT,2021.1.2,MacIntel,58.82352941,,,,,,,,5,Fast,g,1,1.668,7,1,29,1,1,,,,,
,0.87,,,,,,,,,g.PNG,g,60fcbd8c2fa267d7e2c04e88,2021-09-08_20h54.34.945,forced_choiceRT,2021.1.2,MacIntel,58.82352941,,,,,,,,5,Ontime,g,1,1.933,7,2,30,1,1,,,,,
,0.74,,,,,,,,,h.PNG,h,60fcbd8c2fa267d7e2c04e88,2021-09-08_20h54.34.945,forced_choiceRT,2021.1.2,MacIntel,58.82352941,,,,,,,,5,Fast,h,1,1.816,7,3,31,2,1,,,,,
,1.17,,,,,,,,,j.PNG,j,60fcbd8c2fa267d7e2c04e88,2021-09-08_20h54.34.945,forced_choiceRT,2021.1.2,MacIntel,58.82352941,,,,,,,,5,Ontime,j,1,2.015,8,0,32,3,1,,,,,
,0.63,,,,,,,,,j.PNG,j,60fcbd8c2fa267d7e2c04e88,2021-09-08_20h54.34.945,forced_choiceRT,2021.1.2,MacIntel,58.82352941,,,,,,,,5,Fast,j,1,1.766,8,1,33,3,1,,,,,
,0.18,,,,,,,,,g.PNG,g,60fcbd8c2fa267d7e2c04e88,2021-09-08_20h54.34.945,forced_choiceRT,2021.1.2,MacIntel,58.82352941,,,,,,,,5,Ontime,g,1,1.965,8,2,34,1,1,,,,,
,0.13,,,,,,,,,h.PNG,h,60fcbd8c2fa267d7e2c04e88,2021-09-08_20h54.34.945,forced_choiceRT,2021.1.2,MacIntel,58.82352941,,,,,,,,5,Fast,h,1,1.866,8,3,35,2,1,,,,,
,0.69,,,,,,,,,h.PNG,h,60fcbd8c2fa267d7e2c04e88,2021-09-08_20h54.34.945,forced_choiceRT,2021.1.2,MacIntel,58.82352941,,,,,,,,5,Ontime,h,1,2.057,9,0,36,2,1,,,,,
,1.79,,,,,,,,,g.PNG,g,60fcbd8c2fa267d7e2c04e88,2021-09-08_20h54.34.945,forced_choiceRT,2021.1.2,MacIntel,58.82352941,,,,,,,,5,Slow,f,0,2.115,9,1,37,1,1,,,,,
,1.82,,,,,,,,,h.PNG,h,60fcbd8c2fa267d7e2c04e88,2021-09-08_20h54.34.945,forced_choiceRT,2021.1.2,MacIntel,58.82352941,,,,,,,,5,Ontime,f,0,2.056,9,2,38,2,1,,,,,
,0.86,,,,,,,,,j.PNG,j,60fcbd8c2fa267d7e2c04e88,2021-09-08_20h54.34.945,forced_choiceRT,2021.1.2,MacIntel,58.82352941,,,,,,,,5,Slow,j,1,2.2,9,3,39,3,1,,,,,
,,,,,,,,,,,,60fcbd8c2fa267d7e2c04e88,2021-09-08_20h54.34.945,forced_choiceRT,2021.1.2,MacIntel,58.82352941,,,,,,,,,,,,,,,,,,4,0,4,0,1
,1.59,,,,,,,,,g.PNG,g,60fcbd8c2fa267d7e2c04e88,2021-09-08_20h54.34.945,forced_choiceRT,2021.1.2,MacIntel,58.82352941,,,,,,,,6,Slow,g,1,2.177,0,0,0,1,1,,,,,
,0.37,,,,,,,,,g.PNG,g,60fcbd8c2fa267d7e2c04e88,2021-09-08_20h54.34.945,forced_choiceRT,2021.1.2,MacIntel,58.82352941,,,,,,,,6,Ontime,g,1,2.016,0,1,1,1,1,,,,,
,0.68,,,,,,,,,j.PNG,j,60fcbd8c2fa267d7e2c04e88,2021-09-08_20h54.34.945,forced_choiceRT,2021.1.2,MacIntel,58.82352941,,,,,,,,6,Ontime,h,0,2.066,0,2,2,3,1,,,,,
,1.1,,,,,,,,,f.PNG,f,60fcbd8c2fa267d7e2c04e88,2021-09-08_20h54.34.945,forced_choiceRT,2021.1.2,MacIntel,58.82352941,,,,,,,,6,Slow,f,1,2.119,0,3,3,0,1,,,,,
,0.23,,,,,,,,,g.PNG,g,60fcbd8c2fa267d7e2c04e88,2021-09-08_20h54.34.945,forced_choiceRT,2021.1.2,MacIntel,58.82352941,,,,,,,,6,Fast,g,1,1.553,1,0,4,1,1,,,,,
,1.76,,,,,,,,,f.PNG,f,60fcbd8c2fa267d7e2c04e88,2021-09-08_20h54.34.945,forced_choiceRT,2021.1.2,MacIntel,58.82352941,,,,,,,,6,Slow,f,1,2.316,1,1,5,0,1,,,,,
,1.85,,,,,,,,,j.PNG,j,60fcbd8c2fa267d7e2c04e88,2021-09-08_20h54.34.945,forced_choiceRT,2021.1.2,MacIntel,58.82352941,,,,,,,,6,Fast,j,1,1.736,1,2,6,3,1,,,,,
,0.06,,,,,,,,,g.PNG,g,60fcbd8c2fa267d7e2c04e88,2021-09-08_20h54.34.945,forced_choiceRT,2021.1.2,MacIntel,58.82352941,,,,,,,,6,Ontime,g,1,2.089,1,3,7,1,1,,,,,
,0.97,,,,,,,,,j.PNG,j,60fcbd8c2fa267d7e2c04e88,2021-09-08_20h54.34.945,forced_choiceRT,2021.1.2,MacIntel,58.82352941,,,,,,,,6,Ontime,j,1,1.965,2,0,8,3,1,,,,,
,1.64,,,,,,,,,h.PNG,h,60fcbd8c2fa267d7e2c04e88,2021-09-08_20h54.34.945,forced_choiceRT,2021.1.2,MacIntel,58.82352941,,,,,,,,6,Ontime,j,0,2.053,2,1,9,2,1,,,,,
,1.25,,,,,,,,,j.PNG,j,60fcbd8c2fa267d7e2c04e88,2021-09-08_20h54.34.945,forced_choiceRT,2021.1.2,MacIntel,58.82352941,,,,,,,,6,Ontime,j,1,2.085,2,2,10,3,1,,,,,
,0.11,,,,,,,,,f.PNG,f,60fcbd8c2fa267d7e2c04e88,2021-09-08_20h54.34.945,forced_choiceRT,2021.1.2,MacIntel,58.82352941,,,,,,,,6,Fast,f,1,1.873,2,3,11,0,1,,,,,
,1.69,,,,,,,,,f.PNG,f,60fcbd8c2fa267d7e2c04e88,2021-09-08_20h54.34.945,forced_choiceRT,2021.1.2,MacIntel,58.82352941,,,,,,,,6,Slow,j,0,3.273,3,0,12,0,1,,,,,
,1.85,,,,,,,,,f.PNG,f,60fcbd8c2fa267d7e2c04e88,2021-09-08_20h54.34.945,forced_choiceRT,2021.1.2,MacIntel,58.82352941,,,,,,,,6,Ontime,f,1,1.933,3,1,13,0,1,,,,,
,1.02,,,,,,,,,g.PNG,g,60fcbd8c2fa267d7e2c04e88,2021-09-08_20h54.34.945,forced_choiceRT,2021.1.2,MacIntel,58.82352941,,,,,,,,6,Ontime,g,1,2.05,3,2,14,1,1,,,,,
,1.01,,,,,,,,,g.PNG,g,60fcbd8c2fa267d7e2c04e88,2021-09-08_20h54.34.945,forced_choiceRT,2021.1.2,MacIntel,58.82352941,,,,,,,,6,Ontime,g,1,2.072,3,3,15,1,1,,,,,
,1.27,,,,,,,,,h.PNG,h,60fcbd8c2fa267d7e2c04e88,2021-09-08_20h54.34.945,forced_choiceRT,2021.1.2,MacIntel,58.82352941,,,,,,,,6,Slow,h,1,2.117,4,0,16,2,1,,,,,
,0.55,,,,,,,,,j.PNG,j,60fcbd8c2fa267d7e2c04e88,2021-09-08_20h54.34.945,forced_choiceRT,2021.1.2,MacIntel,58.82352941,,,,,,,,6,Ontime,j,1,1.987,4,1,17,3,1,,,,,
,0.97,,,,,,,,,h.PNG,h,60fcbd8c2fa267d7e2c04e88,2021-09-08_20h54.34.945,forced_choiceRT,2021.1.2,MacIntel,58.82352941,,,,,,,,6,Ontime,h,1,2.083,4,2,18,2,1,,,,,
,1.09,,,,,,,,,f.PNG,f,60fcbd8c2fa267d7e2c04e88,2021-09-08_20h54.34.945,forced_choiceRT,2021.1.2,MacIntel,58.82352941,,,,,,,,6,Fast,g,0,1.787,4,3,19,0,1,,,,,
,1.52,,,,,,,,,h.PNG,h,60fcbd8c2fa267d7e2c04e88,2021-09-08_20h54.34.945,forced_choiceRT,2021.1.2,MacIntel,58.82352941,,,,,,,,6,Slow,h,1,2.332,5,0,20,2,1,,,,,
,0.76,,,,,,,,,f.PNG,f,60fcbd8c2fa267d7e2c04e88,2021-09-08_20h54.34.945,forced_choiceRT,2021.1.2,MacIntel,58.82352941,,,,,,,,6,Ontime,f,1,2.041,5,1,21,0,1,,,,,
,1.57,,,,,,,,,f.PNG,f,60fcbd8c2fa267d7e2c04e88,2021-09-08_20h54.34.945,forced_choiceRT,2021.1.2,MacIntel,58.82352941,,,,,,,,6,Ontime,f,1,2.066,5,2,22,0,1,,,,,
,1.13,,,,,,,,,j.PNG,j,60fcbd8c2fa267d7e2c04e88,2021-09-08_20h54.34.945,forced_choiceRT,2021.1.2,MacIntel,58.82352941,,,,,,,,6,Slow,j,1,2.151,5,3,23,3,1,,,,,
,1.78,,,,,,,,,g.PNG,g,60fcbd8c2fa267d7e2c04e88,2021-09-08_20h54.34.945,forced_choiceRT,2021.1.2,MacIntel,58.82352941,,,,,,,,6,Ontime,j,0,2.054,6,0,24,1,1,,,,,
,1.63,,,,,,,,,j.PNG,j,60fcbd8c2fa267d7e2c04e88,2021-09-08_20h54.34.945,forced_choiceRT,2021.1.2,MacIntel,58.82352941,,,,,,,,6,Slow,j,1,2.307,6,1,25,3,1,,,,,
,0.84,,,,,,,,,j.PNG,j,60fcbd8c2fa267d7e2c04e88,2021-09-08_20h54.34.945,forced_choiceRT,2021.1.2,MacIntel,58.82352941,,,,,,,,6,Ontime,j,1,2.019,6,2,26,3,1,,,,,
,0.81,,,,,,,,,h.PNG,h,60fcbd8c2fa267d7e2c04e88,2021-09-08_20h54.34.945,forced_choiceRT,2021.1.2,MacIntel,58.82352941,,,,,,,,6,Ontime,h,1,1.95,6,3,27,2,1,,,,,
,1.8,,,,,,,,,h.PNG,h,60fcbd8c2fa267d7e2c04e88,2021-09-08_20h54.34.945,forced_choiceRT,2021.1.2,MacIntel,58.82352941,,,,,,,,6,Ontime,j,0,2.057,7,0,28,2,1,,,,,
,0.99,,,,,,,,,f.PNG,f,60fcbd8c2fa267d7e2c04e88,2021-09-08_20h54.34.945,forced_choiceRT,2021.1.2,MacIntel,58.82352941,,,,,,,,6,Ontime,f,1,2.053,7,1,29,0,1,,,,,
,0.9,,,,,,,,,g.PNG,g,60fcbd8c2fa267d7e2c04e88,2021-09-08_20h54.34.945,forced_choiceRT,2021.1.2,MacIntel,58.82352941,,,,,,,,6,Ontime,g,1,2.017,7,2,30,1,1,,,,,
,1.46,,,,,,,,,h.PNG,h,60fcbd8c2fa267d7e2c04e88,2021-09-08_20h54.34.945,forced_choiceRT,2021.1.2,MacIntel,58.82352941,,,,,,,,6,Slow,h,1,2.251,7,3,31,2,1,,,,,
,0.75,,,,,,,,,h.PNG,h,60fcbd8c2fa267d7e2c04e88,2021-09-08_20h54.34.945,forced_choiceRT,2021.1.2,MacIntel,58.82352941,,,,,,,,6,Ontime,h,1,2.065,8,0,32,2,1,,,,,
,1.03,,,,,,,,,f.PNG,f,60fcbd8c2fa267d7e2c04e88,2021-09-08_20h54.34.945,forced_choiceRT,2021.1.2,MacIntel,58.82352941,,,,,,,,6,Ontime,f,1,1.951,8,1,33,0,1,,,,,
,0.81,,,,,,,,,g.PNG,g,60fcbd8c2fa267d7e2c04e88,2021-09-08_20h54.34.945,forced_choiceRT,2021.1.2,MacIntel,58.82352941,,,,,,,,6,Ontime,g,1,1.999,8,2,34,1,1,,,,,
,1.36,,,,,,,,,j.PNG,j,60fcbd8c2fa267d7e2c04e88,2021-09-08_20h54.34.945,forced_choiceRT,2021.1.2,MacIntel,58.82352941,,,,,,,,6,Slow,j,1,2.218,8,3,35,3,1,,,,,
,0.57,,,,,,,,,h.PNG,h,60fcbd8c2fa267d7e2c04e88,2021-09-08_20h54.34.945,forced_choiceRT,2021.1.2,MacIntel,58.82352941,,,,,,,,6,Slow,h,1,2.268,9,0,36,2,1,,,,,
,1.9,,,,,,,,,j.PNG,j,60fcbd8c2fa267d7e2c04e88,2021-09-08_20h54.34.945,forced_choiceRT,2021.1.2,MacIntel,58.82352941,,,,,,,,6,Ontime,j,1,1.922,9,1,37,3,1,,,,,
,1.59,,,,,,,,,g.PNG,g,60fcbd8c2fa267d7e2c04e88,2021-09-08_20h54.34.945,forced_choiceRT,2021.1.2,MacIntel,58.82352941,,,,,,,,6,Fast,j,0,1.856,9,2,38,1,1,,,,,
,1.1,,,,,,,,,h.PNG,h,60fcbd8c2fa267d7e2c04e88,2021-09-08_20h54.34.945,forced_choiceRT,2021.1.2,MacIntel,58.82352941,,,,,,,,6,Slow,h,1,2.104,9,3,39,2,1,,,,,
,,,,,,,,,,,,60fcbd8c2fa267d7e2c04e88,2021-09-08_20h54.34.945,forced_choiceRT,2021.1.2,MacIntel,58.82352941,,,,,,,,,,,,,,,,,,5,0,5,0,1
,0.64,,,,,,,,,f.PNG,f,60fcbd8c2fa267d7e2c04e88,2021-09-08_20h54.34.945,forced_choiceRT,2021.1.2,MacIntel,58.82352941,,,,,,,,7,Ontime,f,1,1.939,0,0,0,0,1,,,,,
,0.3,,,,,,,,,h.PNG,h,60fcbd8c2fa267d7e2c04e88,2021-09-08_20h54.34.945,forced_choiceRT,2021.1.2,MacIntel,58.82352941,,,,,,,,7,Ontime,h,1,2.038,0,1,1,2,1,,,,,
,0.13,,,,,,,,,j.PNG,j,60fcbd8c2fa267d7e2c04e88,2021-09-08_20h54.34.945,forced_choiceRT,2021.1.2,MacIntel,58.82352941,,,,,,,,7,Ontime,j,1,1.949,0,2,2,3,1,,,,,
,0.84,,,,,,,,,h.PNG,h,60fcbd8c2fa267d7e2c04e88,2021-09-08_20h54.34.945,forced_choiceRT,2021.1.2,MacIntel,58.82352941,,,,,,,,7,Ontime,h,1,2.005,0,3,3,2,1,,,,,
,0.62,,,,,,,,,j.PNG,j,60fcbd8c2fa267d7e2c04e88,2021-09-08_20h54.34.945,forced_choiceRT,2021.1.2,MacIntel,58.82352941,,,,,,,,7,Ontime,j,1,1.982,1,0,4,3,1,,,,,
,0.5,,,,,,,,,g.PNG,g,60fcbd8c2fa267d7e2c04e88,2021-09-08_20h54.34.945,forced_choiceRT,2021.1.2,MacIntel,58.82352941,,,,,,,,7,Ontime,g,1,2.016,1,1,5,1,1,,,,,
,0.27,,,,,,,,,j.PNG,j,60fcbd8c2fa267d7e2c04e88,2021-09-08_20h54.34.945,forced_choiceRT,2021.1.2,MacIntel,58.82352941,,,,,,,,7,Ontime,j,1,1.971,1,2,6,3,1,,,,,
,1.58,,,,,,,,,g.PNG,g,60fcbd8c2fa267d7e2c04e88,2021-09-08_20h54.34.945,forced_choiceRT,2021.1.2,MacIntel,58.82352941,,,,,,,,7,Slow,f,0,2.1,1,3,7,1,1,,,,,
,1.89,,,,,,,,,h.PNG,h,60fcbd8c2fa267d7e2c04e88,2021-09-08_20h54.34.945,forced_choiceRT,2021.1.2,MacIntel,58.82352941,,,,,,,,7,Slow,g,0,2.121,2,0,8,2,1,,,,,
,1.37,,,,,,,,,h.PNG,h,60fcbd8c2fa267d7e2c04e88,2021-09-08_20h54.34.945,forced_choiceRT,2021.1.2,MacIntel,58.82352941,,,,,,,,7,Ontime,j,0,2.04,2,1,9,2,1,,,,,
,1.7,,,,,,,,,j.PNG,j,60fcbd8c2fa267d7e2c04e88,2021-09-08_20h54.34.945,forced_choiceRT,2021.1.2,MacIntel,58.82352941,,,,,,,,7,Ontime,j,1,1.95,2,2,10,3,1,,,,,
,0.65,,,,,,,,,h.PNG,h,60fcbd8c2fa267d7e2c04e88,2021-09-08_20h54.34.945,forced_choiceRT,2021.1.2,MacIntel,58.82352941,,,,,,,,7,Ontime,h,1,2.089,2,3,11,2,1,,,,,
,0.79,,,,,,,,,f.PNG,f,60fcbd8c2fa267d7e2c04e88,2021-09-08_20h54.34.945,forced_choiceRT,2021.1.2,MacIntel,58.82352941,,,,,,,,7,Fast,f,1,1.882,3,0,12,0,1,,,,,
,1.81,,,,,,,,,j.PNG,j,60fcbd8c2fa267d7e2c04e88,2021-09-08_20h54.34.945,forced_choiceRT,2021.1.2,MacIntel,58.82352941,,,,,,,,7,Ontime,f,0,2.037,3,1,13,3,1,,,,,
,0.8,,,,,,,,,f.PNG,f,60fcbd8c2fa267d7e2c04e88,2021-09-08_20h54.34.945,forced_choiceRT,2021.1.2,MacIntel,58.82352941,,,,,,,,7,Ontime,f,1,2.049,3,2,14,0,1,,,,,
,1.03,,,,,,,,,j.PNG,j,60fcbd8c2fa267d7e2c04e88,2021-09-08_20h54.34.945,forced_choiceRT,2021.1.2,MacIntel,58.82352941,,,,,,,,7,Slow,j,1,2.15,3,3,15,3,1,,,,,
,1.34,,,,,,,,,g.PNG,g,60fcbd8c2fa267d7e2c04e88,2021-09-08_20h54.34.945,forced_choiceRT,2021.1.2,MacIntel,58.82352941,,,,,,,,7,Slow,g,1,2.216,4,0,16,1,1,,,,,
,0.9,,,,,,,,,h.PNG,h,60fcbd8c2fa267d7e2c04e88,2021-09-08_20h54.34.945,forced_choiceRT,2021.1.2,MacIntel,58.82352941,,,,,,,,7,Ontime,h,1,1.933,4,1,17,2,1,,,,,
,0.29,,,,,,,,,f.PNG,f,60fcbd8c2fa267d7e2c04e88,2021-09-08_20h54.34.945,forced_choiceRT,2021.1.2,MacIntel,58.82352941,,,,,,,,7,Ontime,f,1,1.973,4,2,18,0,1,,,,,
,0.58,,,,,,,,,h.PNG,h,60fcbd8c2fa267d7e2c04e88,2021-09-08_20h54.34.945,forced_choiceRT,2021.1.2,MacIntel,58.82352941,,,,,,,,7,Slow,h,1,2.14,4,3,19,2,1,,,,,
,1.81,,,,,,,,,f.PNG,f,60fcbd8c2fa267d7e2c04e88,2021-09-08_20h54.34.945,forced_choiceRT,2021.1.2,MacIntel,58.82352941,,,,,,,,7,Slow,j,0,2.116,5,0,20,0,1,,,,,
,0.34,,,,,,,,,g.PNG,g,60fcbd8c2fa267d7e2c04e88,2021-09-08_20h54.34.945,forced_choiceRT,2021.1.2,MacIntel,58.82352941,,,,,,,,7,Fast,g,1,1.734,5,1,21,1,1,,,,,
,1.62,,,,,,,,,g.PNG,g,60fcbd8c2fa267d7e2c04e88,2021-09-08_20h54.34.945,forced_choiceRT,2021.1.2,MacIntel,58.82352941,,,,,,,,7,Fast,j,0,1.885,5,2,22,1,1,,,,,
,0.9,,,,,,,,,j.PNG,j,60fcbd8c2fa267d7e2c04e88,2021-09-08_20h54.34.945,forced_choiceRT,2021.1.2,MacIntel,58.82352941,,,,,,,,7,Ontime,j,1,1.918,5,3,23,3,1,,,,,
,1.4,,,,,,,,,h.PNG,h,60fcbd8c2fa267d7e2c04e88,2021-09-08_20h54.34.945,forced_choiceRT,2021.1.2,MacIntel,58.82352941,,,,,,,,7,Slow,h,1,2.133,6,0,24,2,1,,,,,
,1.13,,,,,,,,,j.PNG,j,60fcbd8c2fa267d7e2c04e88,2021-09-08_20h54.34.945,forced_choiceRT,2021.1.2,MacIntel,58.82352941,,,,,,,,7,Ontime,j,1,2.038,6,1,25,3,1,,,,,
,0.91,,,,,,,,,g.PNG,g,60fcbd8c2fa267d7e2c04e88,2021-09-08_20h54.34.945,forced_choiceRT,2021.1.2,MacIntel,58.82352941,,,,,,,,7,Ontime,g,1,2.006,6,2,26,1,1,,,,,
,1.33,,,,,,,,,f.PNG,f,60fcbd8c2fa267d7e2c04e88,2021-09-08_20h54.34.945,forced_choiceRT,2021.1.2,MacIntel,58.82352941,,,,,,,,7,Slow,f,1,2.15,6,3,27,0,1,,,,,
,1.39,,,,,,,,,g.PNG,g,60fcbd8c2fa267d7e2c04e88,2021-09-08_20h54.34.945,forced_choiceRT,2021.1.2,MacIntel,58.82352941,,,,,,,,7,Slow,g,1,2.131,7,0,28,1,1,,,,,
,1.91,,,,,,,,,j.PNG,j,60fcbd8c2fa267d7e2c04e88,2021-09-08_20h54.34.945,forced_choiceRT,2021.1.2,MacIntel,58.82352941,,,,,,,,7,Ontime,f,0,2.033,7,1,29,3,1,,,,,
,1.17,,,,,,,,,h.PNG,h,60fcbd8c2fa267d7e2c04e88,2021-09-08_20h54.34.945,forced_choiceRT,2021.1.2,MacIntel,58.82352941,,,,,,,,7,Slow,h,1,2.117,7,2,30,2,1,,,,,
,0.09,,,,,,,,,f.PNG,f,60fcbd8c2fa267d7e2c04e88,2021-09-08_20h54.34.945,forced_choiceRT,2021.1.2,MacIntel,58.82352941,,,,,,,,7,Fast,f,1,1.899,7,3,31,0,1,,,,,
,1.92,,,,,,,,,g.PNG,g,60fcbd8c2fa267d7e2c04e88,2021-09-08_20h54.34.945,forced_choiceRT,2021.1.2,MacIntel,58.82352941,,,,,,,,7,Slow,g,1,3.17,8,0,32,1,1,,,,,
,0.81,,,,,,,,,f.PNG,f,60fcbd8c2fa267d7e2c04e88,2021-09-08_20h54.34.945,forced_choiceRT,2021.1.2,MacIntel,58.82352941,,,,,,,,7,Slow,f,1,2.115,8,1,33,0,1,,,,,
,1.4,,,,,,,,,f.PNG,f,60fcbd8c2fa267d7e2c04e88,2021-09-08_20h54.34.945,forced_choiceRT,2021.1.2,MacIntel,58.82352941,,,,,,,,7,Slow,f,1,2.315,8,2,34,0,1,,,,,
,1.09,,,,,,,,,g.PNG,g,60fcbd8c2fa267d7e2c04e88,2021-09-08_20h54.34.945,forced_choiceRT,2021.1.2,MacIntel,58.82352941,,,,,,,,7,Ontime,g,1,2.018,8,3,35,1,1,,,,,
,0.96,,,,,,,,,j.PNG,j,60fcbd8c2fa267d7e2c04e88,2021-09-08_20h54.34.945,forced_choiceRT,2021.1.2,MacIntel,58.82352941,,,,,,,,7,Slow,j,1,2.132,9,0,36,3,1,,,,,
,0.32,,,,,,,,,g.PNG,g,60fcbd8c2fa267d7e2c04e88,2021-09-08_20h54.34.945,forced_choiceRT,2021.1.2,MacIntel,58.82352941,,,,,,,,7,Ontime,g,1,1.919,9,1,37,1,1,,,,,
,0.45,,,,,,,,,h.PNG,h,60fcbd8c2fa267d7e2c04e88,2021-09-08_20h54.34.945,forced_choiceRT,2021.1.2,MacIntel,58.82352941,,,,,,,,7,Slow,j,0,2.117,9,2,38,2,1,,,,,
,1.58,,,,,,,,,f.PNG,f,60fcbd8c2fa267d7e2c04e88,2021-09-08_20h54.34.945,forced_choiceRT,2021.1.2,MacIntel,58.82352941,,,,,,,,7,Slow,f,1,2.403,9,3,39,0,1,,,,,
,,,,,,,,,,,,60fcbd8c2fa267d7e2c04e88,2021-09-08_20h54.34.945,forced_choiceRT,2021.1.2,MacIntel,58.82352941,,,,,,,,,,,,,,,,,,6,0,6,0,1
,0.07,,,,,,,,,f.PNG,f,60fcbd8c2fa267d7e2c04e88,2021-09-08_20h54.34.945,forced_choiceRT,2021.1.2,MacIntel,58.82352941,,,,,,,,8,Ontime,f,1,1.973,0,0,0,0,1,,,,,
,1.42,,,,,,,,,j.PNG,j,60fcbd8c2fa267d7e2c04e88,2021-09-08_20h54.34.945,forced_choiceRT,2021.1.2,MacIntel,58.82352941,,,,,,,,8,Slow,j,1,2.106,0,1,1,3,1,,,,,
,1.12,,,,,,,,,h.PNG,h,60fcbd8c2fa267d7e2c04e88,2021-09-08_20h54.34.945,forced_choiceRT,2021.1.2,MacIntel,58.82352941,,,,,,,,8,Slow,h,1,2.199,0,2,2,2,1,,,,,
,1.42,,,,,,,,,g.PNG,g,60fcbd8c2fa267d7e2c04e88,2021-09-08_20h54.34.945,forced_choiceRT,2021.1.2,MacIntel,58.82352941,,,,,,,,8,Ontime,j,0,2.016,0,3,3,1,1,,,,,
,1.86,,,,,,,,,f.PNG,f,60fcbd8c2fa267d7e2c04e88,2021-09-08_20h54.34.945,forced_choiceRT,2021.1.2,MacIntel,58.82352941,,,,,,,,8,Slow,j,0,2.116,1,0,4,0,1,,,,,
,1.32,,,,,,,,,g.PNG,g,60fcbd8c2fa267d7e2c04e88,2021-09-08_20h54.34.945,forced_choiceRT,2021.1.2,MacIntel,58.82352941,,,,,,,,8,Slow,g,1,2.151,1,1,5,1,1,,,,,
,1.97,,,,,,,,,j.PNG,j,60fcbd8c2fa267d7e2c04e88,2021-09-08_20h54.34.945,forced_choiceRT,2021.1.2,MacIntel,58.82352941,,,,,,,,8,Ontime,f,0,1.95,1,2,6,3,1,,,,,
,1.19,,,,,,,,,j.PNG,j,60fcbd8c2fa267d7e2c04e88,2021-09-08_20h54.34.945,forced_choiceRT,2021.1.2,MacIntel,58.82352941,,,,,,,,8,Ontime,g,0,2.049,1,3,7,3,1,,,,,
,0.85,,,,,,,,,h.PNG,h,60fcbd8c2fa267d7e2c04e88,2021-09-08_20h54.34.945,forced_choiceRT,2021.1.2,MacIntel,58.82352941,,,,,,,,8,Ontime,h,1,2,2,0,8,2,1,,,,,
,1.47,,,,,,,,,j.PNG,j,60fcbd8c2fa267d7e2c04e88,2021-09-08_20h54.34.945,forced_choiceRT,2021.1.2,MacIntel,58.82352941,,,,,,,,8,Ontime,j,1,2.035,2,1,9,3,1,,,,,
,1.02,,,,,,,,,f.PNG,f,60fcbd8c2fa267d7e2c04e88,2021-09-08_20h54.34.945,forced_choiceRT,2021.1.2,MacIntel,58.82352941,,,,,,,,8,Ontime,f,1,2.015,2,2,10,0,1,,,,,
,1.74,,,,,,,,,j.PNG,j,60fcbd8c2fa267d7e2c04e88,2021-09-08_20h54.34.945,forced_choiceRT,2021.1.2,MacIntel,58.82352941,,,,,,,,8,Ontime,j,1,2.016,2,3,11,3,1,,,,,
,0.63,,,,,,,,,f.PNG,f,60fcbd8c2fa267d7e2c04e88,2021-09-08_20h54.34.945,forced_choiceRT,2021.1.2,MacIntel,58.82352941,,,,,,,,8,Ontime,f,1,2.016,3,0,12,0,1,,,,,
,0.04,,,,,,,,,g.PNG,g,60fcbd8c2fa267d7e2c04e88,2021-09-08_20h54.34.945,forced_choiceRT,2021.1.2,MacIntel,58.82352941,,,,,,,,8,Ontime,g,1,2.033,3,1,13,1,1,,,,,
,0.07,,,,,,,,,h.PNG,h,60fcbd8c2fa267d7e2c04e88,2021-09-08_20h54.34.945,forced_choiceRT,2021.1.2,MacIntel,58.82352941,,,,,,,,8,Fast,h,1,1.883,3,2,14,2,1,,,,,
,0.72,,,,,,,,,h.PNG,h,60fcbd8c2fa267d7e2c04e88,2021-09-08_20h54.34.945,forced_choiceRT,2021.1.2,MacIntel,58.82352941,,,,,,,,8,Slow,h,1,2.101,3,3,15,2,1,,,,,
,0.03,,,,,,,,,g.PNG,g,60fcbd8c2fa267d7e2c04e88,2021-09-08_20h54.34.945,forced_choiceRT,2021.1.2,MacIntel,58.82352941,,,,,,,,8,Ontime,g,1,1.906,4,0,16,1,1,,,,,
,1.05,,,,,,,,,f.PNG,f,60fcbd8c2fa267d7e2c04e88,2021-09-08_20h54.34.945,forced_choiceRT,2021.1.2,MacIntel,58.82352941,,,,,,,,8,Ontime,f,1,2.065,4,1,17,0,1,,,,,
,1.11,,,,,,,,,h.PNG,h,60fcbd8c2fa267d7e2c04e88,2021-09-08_20h54.34.945,forced_choiceRT,2021.1.2,MacIntel,58.82352941,,,,,,,,8,Ontime,h,1,2.015,4,2,18,2,1,,,,,
,0.78,,,,,,,,,f.PNG,f,60fcbd8c2fa267d7e2c04e88,2021-09-08_20h54.34.945,forced_choiceRT,2021.1.2,MacIntel,58.82352941,,,,,,,,8,Ontime,f,1,2.033,4,3,19,0,1,,,,,
,0.63,,,,,,,,,h.PNG,h,60fcbd8c2fa267d7e2c04e88,2021-09-08_20h54.34.945,forced_choiceRT,2021.1.2,MacIntel,58.82352941,,,,,,,,8,Slow,h,1,2.182,5,0,20,2,1,,,,,
,0.27,,,,,,,,,j.PNG,j,60fcbd8c2fa267d7e2c04e88,2021-09-08_20h54.34.945,forced_choiceRT,2021.1.2,MacIntel,58.82352941,,,,,,,,8,Ontime,j,1,1.95,5,1,21,3,1,,,,,
,0.03,,,,,,,,,g.PNG,g,60fcbd8c2fa267d7e2c04e88,2021-09-08_20h54.34.945,forced_choiceRT,2021.1.2,MacIntel,58.82352941,,,,,,,,8,Fast,g,1,1.866,5,2,22,1,1,,,,,
,1.14,,,,,,,,,j.PNG,j,60fcbd8c2fa267d7e2c04e88,2021-09-08_20h54.34.945,forced_choiceRT,2021.1.2,MacIntel,58.82352941,,,,,,,,8,Fast,j,1,1.858,5,3,23,3,1,,,,,
,0.54,,,,,,,,,h.PNG,h,60fcbd8c2fa267d7e2c04e88,2021-09-08_20h54.34.945,forced_choiceRT,2021.1.2,MacIntel,58.82352941,,,,,,,,8,Ontime,h,1,1.983,6,0,24,2,1,,,,,
,0.91,,,,,,,,,f.PNG,f,60fcbd8c2fa267d7e2c04e88,2021-09-08_20h54.34.945,forced_choiceRT,2021.1.2,MacIntel,58.82352941,,,,,,,,8,Slow,f,1,2.202,6,1,25,0,1,,,,,
,0.61,,,,,,,,,h.PNG,h,60fcbd8c2fa267d7e2c04e88,2021-09-08_20h54.34.945,forced_choiceRT,2021.1.2,MacIntel,58.82352941,,,,,,,,8,Fast,h,1,1.702,6,2,26,2,1,,,,,
,0.88,,,,,,,,,f.PNG,f,60fcbd8c2fa267d7e2c04e88,2021-09-08_20h54.34.945,forced_choiceRT,2021.1.2,MacIntel,58.82352941,,,,,,,,8,Ontime,f,1,2.069,6,3,27,0,1,,,,,
,1.2,,,,,,,,,f.PNG,f,60fcbd8c2fa267d7e2c04e88,2021-09-08_20h54.34.945,forced_choiceRT,2021.1.2,MacIntel,58.82352941,,,,,,,,8,Fast,f,1,1.887,7,0,28,0,1,,,,,
,0.7,,,,,,,,,h.PNG,h,60fcbd8c2fa267d7e2c04e88,2021-09-08_20h54.34.945,forced_choiceRT,2021.1.2,MacIntel,58.82352941,,,,,,,,8,Ontime,h,1,1.973,7,1,29,2,1,,,,,
,1.79,,,,,,,,,g.PNG,g,60fcbd8c2fa267d7e2c04e88,2021-09-08_20h54.34.945,forced_choiceRT,2021.1.2,MacIntel,58.82352941,,,,,,,,8,Slow,f,0,2.131,7,2,30,1,1,,,,,
,1.73,,,,,,,,,j.PNG,j,60fcbd8c2fa267d7e2c04e88,2021-09-08_20h54.34.945,forced_choiceRT,2021.1.2,MacIntel,58.82352941,,,,,,,,8,Slow,g,0,2.12,7,3,31,3,1,,,,,
,0.06,,,,,,,,,g.PNG,g,60fcbd8c2fa267d7e2c04e88,2021-09-08_20h54.34.945,forced_choiceRT,2021.1.2,MacIntel,58.82352941,,,,,,,,8,Ontime,g,1,2.002,8,0,32,1,1,,,,,
,1.2,,,,,,,,,g.PNG,g,60fcbd8c2fa267d7e2c04e88,2021-09-08_20h54.34.945,forced_choiceRT,2021.1.2,MacIntel,58.82352941,,,,,,,,8,Ontime,g,1,2.066,8,1,33,1,1,,,,,
,1.14,,,,,,,,,h.PNG,h,60fcbd8c2fa267d7e2c04e88,2021-09-08_20h54.34.945,forced_choiceRT,2021.1.2,MacIntel,58.82352941,,,,,,,,8,Slow,h,1,2.164,8,2,34,2,1,,,,,
,0.48,,,,,,,,,j.PNG,j,60fcbd8c2fa267d7e2c04e88,2021-09-08_20h54.34.945,forced_choiceRT,2021.1.2,MacIntel,58.82352941,,,,,,,,8,Ontime,j,1,1.952,8,3,35,3,1,,,,,
,0.21,,,,,,,,,g.PNG,g,60fcbd8c2fa267d7e2c04e88,2021-09-08_20h54.34.945,forced_choiceRT,2021.1.2,MacIntel,58.82352941,,,,,,,,8,Ontime,g,1,2.022,9,0,36,1,1,,,,,
,1.76,,,,,,,,,f.PNG,f,60fcbd8c2fa267d7e2c04e88,2021-09-08_20h54.34.945,forced_choiceRT,2021.1.2,MacIntel,58.82352941,,,,,,,,8,Ontime,f,1,2.017,9,1,37,0,1,,,,,
,1.9,,,,,,,,,g.PNG,g,60fcbd8c2fa267d7e2c04e88,2021-09-08_20h54.34.945,forced_choiceRT,2021.1.2,MacIntel,58.82352941,,,,,,,,8,Slow,f,0,2.206,9,2,38,1,1,,,,,
,1.68,,,,,,,,,j.PNG,j,60fcbd8c2fa267d7e2c04e88,2021-09-08_20h54.34.945,forced_choiceRT,2021.1.2,MacIntel,58.82352941,,,,,,,,8,Ontime,f,0,1.999,9,3,39,3,1,,,,,
,,,,,,,,,,,,60fcbd8c2fa267d7e2c04e88,2021-09-08_20h54.34.945,forced_choiceRT,2021.1.2,MacIntel,58.82352941,,,,,,,,,,,,,,,,,,7,0,7,0,1
,0.27,,,,,,,,,f.PNG,f,60fcbd8c2fa267d7e2c04e88,2021-09-08_20h54.34.945,forced_choiceRT,2021.1.2,MacIntel,58.82352941,,,,,,,,9,Fast,f,1,0.94,0,0,0,0,1,,,,,
,1.96,,,,,,,,,j.PNG,j,60fcbd8c2fa267d7e2c04e88,2021-09-08_20h54.34.945,forced_choiceRT,2021.1.2,MacIntel,58.82352941,,,,,,,,9,Slow,j,1,3.416,0,1,1,3,1,,,,,
,0.8,,,,,,,,,f.PNG,f,60fcbd8c2fa267d7e2c04e88,2021-09-08_20h54.34.945,forced_choiceRT,2021.1.2,MacIntel,58.82352941,,,,,,,,9,Ontime,f,1,1.951,0,2,2,0,1,,,,,
,1.58,,,,,,,,,h.PNG,h,60fcbd8c2fa267d7e2c04e88,2021-09-08_20h54.34.945,forced_choiceRT,2021.1.2,MacIntel,58.82352941,,,,,,,,9,Slow,j,0,2.403,0,3,3,2,1,,,,,
,1.99,,,,,,,,,j.PNG,j,60fcbd8c2fa267d7e2c04e88,2021-09-08_20h54.34.945,forced_choiceRT,2021.1.2,MacIntel,58.82352941,,,,,,,,9,Slow,h,0,2.118,1,0,4,3,1,,,,,
,0.48,,,,,,,,,f.PNG,f,60fcbd8c2fa267d7e2c04e88,2021-09-08_20h54.34.945,forced_choiceRT,2021.1.2,MacIntel,58.82352941,,,,,,,,9,Ontime,f,1,1.982,1,1,5,0,1,,,,,
,0.68,,,,,,,,,j.PNG,j,60fcbd8c2fa267d7e2c04e88,2021-09-08_20h54.34.945,forced_choiceRT,2021.1.2,MacIntel,58.82352941,,,,,,,,9,Ontime,j,1,2.02,1,2,6,3,1,,,,,
,1.24,,,,,,,,,h.PNG,h,60fcbd8c2fa267d7e2c04e88,2021-09-08_20h54.34.945,forced_choiceRT,2021.1.2,MacIntel,58.82352941,,,,,,,,9,Ontime,h,1,1.902,1,3,7,2,1,,,,,
,1.43,,,,,,,,,j.PNG,j,60fcbd8c2fa267d7e2c04e88,2021-09-08_20h54.34.945,forced_choiceRT,2021.1.2,MacIntel,58.82352941,,,,,,,,9,Slow,j,1,2.283,2,0,8,3,1,,,,,
,1.75,,,,,,,,,f.PNG,f,60fcbd8c2fa267d7e2c04e88,2021-09-08_20h54.34.945,forced_choiceRT,2021.1.2,MacIntel,58.82352941,,,,,,,,9,Ontime,f,1,2.033,2,1,9,0,1,,,,,
,1.07,,,,,,,,,h.PNG,h,60fcbd8c2fa267d7e2c04e88,2021-09-08_20h54.34.945,forced_choiceRT,2021.1.2,MacIntel,58.82352941,,,,,,,,9,Ontime,h,1,2.033,2,2,10,2,1,,,,,
,0.87,,,,,,,,,g.PNG,g,60fcbd8c2fa267d7e2c04e88,2021-09-08_20h54.34.945,forced_choiceRT,2021.1.2,MacIntel,58.82352941,,,,,,,,9,Ontime,g,1,2.099,2,3,11,1,1,,,,,
,1.46,,,,,,,,,f.PNG,f,60fcbd8c2fa267d7e2c04e88,2021-09-08_20h54.34.945,forced_choiceRT,2021.1.2,MacIntel,58.82352941,,,,,,,,9,Slow,f,1,2.199,3,0,12,0,1,,,,,
,0.22,,,,,,,,,j.PNG,j,60fcbd8c2fa267d7e2c04e88,2021-09-08_20h54.34.945,forced_choiceRT,2021.1.2,MacIntel,58.82352941,,,,,,,,9,Ontime,j,1,1.982,3,1,13,3,1,,,,,
,1.16,,,,,,,,,h.PNG,h,60fcbd8c2fa267d7e2c04e88,2021-09-08_20h54.34.945,forced_choiceRT,2021.1.2,MacIntel,58.82352941,,,,,,,,9,Slow,j,0,2.239,3,2,14,2,1,,,,,
,0.22,,,,,,,,,g.PNG,g,60fcbd8c2fa267d7e2c04e88,2021-09-08_20h54.34.945,forced_choiceRT,2021.1.2,MacIntel,58.82352941,,,,,,,,9,Ontime,g,1,1.999,3,3,15,1,1,,,,,
,1.47,,,,,,,,,h.PNG,h,60fcbd8c2fa267d7e2c04e88,2021-09-08_20h54.34.945,forced_choiceRT,2021.1.2,MacIntel,58.82352941,,,,,,,,9,Slow,j,0,2.272,4,0,16,2,1,,,,,
,1,,,,,,,,,g.PNG,g,60fcbd8c2fa267d7e2c04e88,2021-09-08_20h54.34.945,forced_choiceRT,2021.1.2,MacIntel,58.82352941,,,,,,,,9,Ontime,g,1,2.069,4,1,17,1,1,,,,,
,0.31,,,,,,,,,g.PNG,g,60fcbd8c2fa267d7e2c04e88,2021-09-08_20h54.34.945,forced_choiceRT,2021.1.2,MacIntel,58.82352941,,,,,,,,9,Ontime,g,1,2.017,4,2,18,1,1,,,,,
,0.97,,,,,,,,,g.PNG,g,60fcbd8c2fa267d7e2c04e88,2021-09-08_20h54.34.945,forced_choiceRT,2021.1.2,MacIntel,58.82352941,,,,,,,,9,Ontime,g,1,2.052,4,3,19,1,1,,,,,
,1.63,,,,,,,,,f.PNG,f,60fcbd8c2fa267d7e2c04e88,2021-09-08_20h54.34.945,forced_choiceRT,2021.1.2,MacIntel,58.82352941,,,,,,,,9,Ontime,f,1,1.95,5,0,20,0,1,,,,,
,0.19,,,,,,,,,h.PNG,h,60fcbd8c2fa267d7e2c04e88,2021-09-08_20h54.34.945,forced_choiceRT,2021.1.2,MacIntel,58.82352941,,,,,,,,9,Ontime,h,1,1.983,5,1,21,2,1,,,,,
,0.55,,,,,,,,,j.PNG,j,60fcbd8c2fa267d7e2c04e88,2021-09-08_20h54.34.945,forced_choiceRT,2021.1.2,MacIntel,58.82352941,,,,,,,,9,Ontime,j,1,2.052,5,2,22,3,1,,,,,
,1.48,,,,,,,,,h.PNG,h,60fcbd8c2fa267d7e2c04e88,2021-09-08_20h54.34.945,forced_choiceRT,2021.1.2,MacIntel,58.82352941,,,,,,,,9,Slow,j,0,2.266,5,3,23,2,1,,,,,
,0.49,,,,,,,,,f.PNG,f,60fcbd8c2fa267d7e2c04e88,2021-09-08_20h54.34.945,forced_choiceRT,2021.1.2,MacIntel,58.82352941,,,,,,,,9,Ontime,f,1,1.983,6,0,24,0,1,,,,,
,0.36,,,,,,,,,f.PNG,f,60fcbd8c2fa267d7e2c04e88,2021-09-08_20h54.34.945,forced_choiceRT,2021.1.2,MacIntel,58.82352941,,,,,,,,9,Ontime,f,1,1.983,6,1,25,0,1,,,,,
,1.76,,,,,,,,,g.PNG,g,60fcbd8c2fa267d7e2c04e88,2021-09-08_20h54.34.945,forced_choiceRT,2021.1.2,MacIntel,58.82352941,,,,,,,,9,Ontime,f,0,2.073,6,2,26,1,1,,,,,
,0.87,,,,,,,,,g.PNG,g,60fcbd8c2fa267d7e2c04e88,2021-09-08_20h54.34.945,forced_choiceRT,2021.1.2,MacIntel,58.82352941,,,,,,,,9,Ontime,g,1,2.067,6,3,27,1,1,,,,,
,1.64,,,,,,,,,h.PNG,h,60fcbd8c2fa267d7e2c04e88,2021-09-08_20h54.34.945,forced_choiceRT,2021.1.2,MacIntel,58.82352941,,,,,,,,9,Ontime,f,0,1.999,7,0,28,2,1,,,,,
,1.13,,,,,,,,,h.PNG,h,60fcbd8c2fa267d7e2c04e88,2021-09-08_20h54.34.945,forced_choiceRT,2021.1.2,MacIntel,58.82352941,,,,,,,,9,Slow,h,1,2.118,7,1,29,2,1,,,,,
,1.09,,,,,,,,,f.PNG,f,60fcbd8c2fa267d7e2c04e88,2021-09-08_20h54.34.945,forced_choiceRT,2021.1.2,MacIntel,58.82352941,,,,,,,,9,Ontime,f,1,1.983,7,2,30,0,1,,,,,
,0.84,,,,,,,,,j.PNG,j,60fcbd8c2fa267d7e2c04e88,2021-09-08_20h54.34.945,forced_choiceRT,2021.1.2,MacIntel,58.82352941,,,,,,,,9,Ontime,j,1,2.002,7,3,31,3,1,,,,,
,1.47,,,,,,,,,j.PNG,j,60fcbd8c2fa267d7e2c04e88,2021-09-08_20h54.34.945,forced_choiceRT,2021.1.2,MacIntel,58.82352941,,,,,,,,9,Ontime,j,1,1.953,8,0,32,3,1,,,,,
,0.66,,,,,,,,,g.PNG,g,60fcbd8c2fa267d7e2c04e88,2021-09-08_20h54.34.945,forced_choiceRT,2021.1.2,MacIntel,58.82352941,,,,,,,,9,Ontime,g,1,2.002,8,1,33,1,1,,,,,
,0.13,,,,,,,,,g.PNG,g,60fcbd8c2fa267d7e2c04e88,2021-09-08_20h54.34.945,forced_choiceRT,2021.1.2,MacIntel,58.82352941,,,,,,,,9,Fast,g,1,1.835,8,2,34,1,1,,,,,
,1.84,,,,,,,,,g.PNG,g,60fcbd8c2fa267d7e2c04e88,2021-09-08_20h54.34.945,forced_choiceRT,2021.1.2,MacIntel,58.82352941,,,,,,,,9,Ontime,j,0,1.974,8,3,35,1,1,,,,,
,0.21,,,,,,,,,j.PNG,j,60fcbd8c2fa267d7e2c04e88,2021-09-08_20h54.34.945,forced_choiceRT,2021.1.2,MacIntel,58.82352941,,,,,,,,9,Ontime,j,1,1.967,9,0,36,3,1,,,,,
,0.14,,,,,,,,,f.PNG,f,60fcbd8c2fa267d7e2c04e88,2021-09-08_20h54.34.945,forced_choiceRT,2021.1.2,MacIntel,58.82352941,,,,,,,,9,Ontime,f,1,2.049,9,1,37,0,1,,,,,
,0.02,,,,,,,,,h.PNG,h,60fcbd8c2fa267d7e2c04e88,2021-09-08_20h54.34.945,forced_choiceRT,2021.1.2,MacIntel,58.82352941,,,,,,,,9,Ontime,h,1,2.015,9,2,38,2,1,,,,,
,1.17,,,,,,,,,j.PNG,j,60fcbd8c2fa267d7e2c04e88,2021-09-08_20h54.34.945,forced_choiceRT,2021.1.2,MacIntel,58.82352941,,,,,,,,9,Ontime,j,1,1.915,9,3,39,3,1,,,,,
,,,,,,,,,,,,60fcbd8c2fa267d7e2c04e88,2021-09-08_20h54.34.945,forced_choiceRT,2021.1.2,MacIntel,58.82352941,,,,,,,,,,,,,,,,,,8,0,8,0,1
,0.78,,,,,,,,,h.PNG,h,60fcbd8c2fa267d7e2c04e88,2021-09-08_20h54.34.945,forced_choiceRT,2021.1.2,MacIntel,58.82352941,,,,,,,,10,Ontime,j,0,1.973,0,0,0,2,1,,,,,
,1.77,,,,,,,,,j.PNG,j,60fcbd8c2fa267d7e2c04e88,2021-09-08_20h54.34.945,forced_choiceRT,2021.1.2,MacIntel,58.82352941,,,,,,,,10,Ontime,j,1,2.037,0,1,1,3,1,,,,,
,0.23,,,,,,,,,g.PNG,g,60fcbd8c2fa267d7e2c04e88,2021-09-08_20h54.34.945,forced_choiceRT,2021.1.2,MacIntel,58.82352941,,,,,,,,10,Fast,g,1,1.8,0,2,2,1,1,,,,,
,1.85,,,,,,,,,h.PNG,h,60fcbd8c2fa267d7e2c04e88,2021-09-08_20h54.34.945,forced_choiceRT,2021.1.2,MacIntel,58.82352941,,,,,,,,10,Slow,g,0,2.132,0,3,3,2,1,,,,,
,1.98,,,,,,,,,j.PNG,j,60fcbd8c2fa267d7e2c04e88,2021-09-08_20h54.34.945,forced_choiceRT,2021.1.2,MacIntel,58.82352941,,,,,,,,10,Ontime,f,0,1.937,1,0,4,3,1,,,,,
,1,,,,,,,,,j.PNG,j,60fcbd8c2fa267d7e2c04e88,2021-09-08_20h54.34.945,forced_choiceRT,2021.1.2,MacIntel,58.82352941,,,,,,,,10,Ontime,j,1,1.956,1,1,5,3,1,,,,,
,1.97,,,,,,,,,g.PNG,g,60fcbd8c2fa267d7e2c04e88,2021-09-08_20h54.34.945,forced_choiceRT,2021.1.2,MacIntel,58.82352941,,,,,,,,10,Ontime,j,0,2.034,1,2,6,1,1,,,,,
,0.77,,,,,,,,,j.PNG,j,60fcbd8c2fa267d7e2c04e88,2021-09-08_20h54.34.945,forced_choiceRT,2021.1.2,MacIntel,58.82352941,,,,,,,,10,Ontime,j,1,2.083,1,3,7,3,1,,,,,
,0.5,,,,,,,,,h.PNG,h,60fcbd8c2fa267d7e2c04e88,2021-09-08_20h54.34.945,forced_choiceRT,2021.1.2,MacIntel,58.82352941,,,,,,,,10,Ontime,h,1,1.949,2,0,8,2,1,,,,,
,0.83,,,,,,,,,j.PNG,j,60fcbd8c2fa267d7e2c04e88,2021-09-08_20h54.34.945,forced_choiceRT,2021.1.2,MacIntel,58.82352941,,,,,,,,10,Ontime,j,1,1.986,2,1,9,3,1,,,,,
,0.34,,,,,,,,,j.PNG,j,60fcbd8c2fa267d7e2c04e88,2021-09-08_20h54.34.945,forced_choiceRT,2021.1.2,MacIntel,58.82352941,,,,,,,,10,Ontime,j,1,1.924,2,2,10,3,1,,,,,
,1.86,,,,,,,,,j.PNG,j,60fcbd8c2fa267d7e2c04e88,2021-09-08_20h54.34.945,forced_choiceRT,2021.1.2,MacIntel,58.82352941,,,,,,,,10,Ontime,j,1,2.098,2,3,11,3,1,,,,,
,0,,,,,,,,,g.PNG,g,60fcbd8c2fa267d7e2c04e88,2021-09-08_20h54.34.945,forced_choiceRT,2021.1.2,MacIntel,58.82352941,,,,,,,,10,Ontime,g,1,2.018,3,0,12,1,1,,,,,
,1.93,,,,,,,,,h.PNG,h,60fcbd8c2fa267d7e2c04e88,2021-09-08_20h54.34.945,forced_choiceRT,2021.1.2,MacIntel,58.82352941,,,,,,,,10,Ontime,g,0,1.953,3,1,13,2,1,,,,,
,0.35,,,,,,,,,f.PNG,f,60fcbd8c2fa267d7e2c04e88,2021-09-08_20h54.34.945,forced_choiceRT,2021.1.2,MacIntel,58.82352941,,,,,,,,10,Fast,f,1,1.849,3,2,14,0,1,,,,,
,0.48,,,,,,,,,f.PNG,f,60fcbd8c2fa267d7e2c04e88,2021-09-08_20h54.34.945,forced_choiceRT,2021.1.2,MacIntel,58.82352941,,,,,,,,10,Ontime,f,1,1.982,3,3,15,0,1,,,,,
,1.47,,,,,,,,,h.PNG,h,60fcbd8c2fa267d7e2c04e88,2021-09-08_20h54.34.945,forced_choiceRT,2021.1.2,MacIntel,58.82352941,,,,,,,,10,Ontime,f,0,1.983,4,0,16,2,1,,,,,
,0.44,,,,,,,,,h.PNG,h,60fcbd8c2fa267d7e2c04e88,2021-09-08_20h54.34.945,forced_choiceRT,2021.1.2,MacIntel,58.82352941,,,,,,,,10,Ontime,h,1,2.032,4,1,17,2,1,,,,,
,1.06,,,,,,,,,h.PNG,h,60fcbd8c2fa267d7e2c04e88,2021-09-08_20h54.34.945,forced_choiceRT,2021.1.2,MacIntel,58.82352941,,,,,,,,10,Slow,h,1,2.201,4,2,18,2,1,,,,,
,0.34,,,,,,,,,g.PNG,g,60fcbd8c2fa267d7e2c04e88,2021-09-08_20h54.34.945,forced_choiceRT,2021.1.2,MacIntel,58.82352941,,,,,,,,10,Fast,g,1,1.767,4,3,19,1,1,,,,,
,0.58,,,,,,,,,h.PNG,h,60fcbd8c2fa267d7e2c04e88,2021-09-08_20h54.34.945,forced_choiceRT,2021.1.2,MacIntel,58.82352941,,,,,,,,10,Ontime,h,1,2.056,5,0,20,2,1,,,,,
,1.43,,,,,,,,,g.PNG,g,60fcbd8c2fa267d7e2c04e88,2021-09-08_20h54.34.945,forced_choiceRT,2021.1.2,MacIntel,58.82352941,,,,,,,,10,Ontime,j,0,2.083,5,1,21,1,1,,,,,
,0.06,,,,,,,,,h.PNG,h,60fcbd8c2fa267d7e2c04e88,2021-09-08_20h54.34.945,forced_choiceRT,2021.1.2,MacIntel,58.82352941,,,,,,,,10,Ontime,h,1,1.931,5,2,22,2,1,,,,,
,1.16,,,,,,,,,h.PNG,h,60fcbd8c2fa267d7e2c04e88,2021-09-08_20h54.34.945,forced_choiceRT,2021.1.2,MacIntel,58.82352941,,,,,,,,10,Slow,h,1,2.102,5,3,23,2,1,,,,,
,1.25,,,,,,,,,g.PNG,g,60fcbd8c2fa267d7e2c04e88,2021-09-08_20h54.34.945,forced_choiceRT,2021.1.2,MacIntel,58.82352941,,,,,,,,10,Ontime,g,1,2.016,6,0,24,1,1,,,,,
,0.6,,,,,,,,,j.PNG,j,60fcbd8c2fa267d7e2c04e88,2021-09-08_20h54.34.945,forced_choiceRT,2021.1.2,MacIntel,58.82352941,,,,,,,,10,Fast,j,1,1.699,6,1,25,3,1,,,,,
,0.22,,,,,,,,,j.PNG,j,60fcbd8c2fa267d7e2c04e88,2021-09-08_20h54.34.945,forced_choiceRT,2021.1.2,MacIntel,58.82352941,,,,,,,,10,Fast,j,1,1.869,6,2,26,3,1,,,,,
,1.28,,,,,,,,,f.PNG,f,60fcbd8c2fa267d7e2c04e88,2021-09-08_20h54.34.945,forced_choiceRT,2021.1.2,MacIntel,58.82352941,,,,,,,,10,Ontime,f,1,1.985,6,3,27,0,1,,,,,
,1.41,,,,,,,,,f.PNG,f,60fcbd8c2fa267d7e2c04e88,2021-09-08_20h54.34.945,forced_choiceRT,2021.1.2,MacIntel,58.82352941,,,,,,,,10,Ontime,f,1,1.965,7,0,28,0,1,,,,,
,0.01,,,,,,,,,g.PNG,g,60fcbd8c2fa267d7e2c04e88,2021-09-08_20h54.34.945,forced_choiceRT,2021.1.2,MacIntel,58.82352941,,,,,,,,10,Ontime,g,1,1.982,7,1,29,1,1,,,,,
,1.77,,,,,,,,,f.PNG,f,60fcbd8c2fa267d7e2c04e88,2021-09-08_20h54.34.945,forced_choiceRT,2021.1.2,MacIntel,58.82352941,,,,,,,,10,Slow,j,0,2.149,7,2,30,0,1,,,,,
,0.06,,,,,,,,,f.PNG,f,60fcbd8c2fa267d7e2c04e88,2021-09-08_20h54.34.945,forced_choiceRT,2021.1.2,MacIntel,58.82352941,,,,,,,,10,Ontime,f,1,2.033,7,3,31,0,1,,,,,
,1.56,,,,,,,,,f.PNG,f,60fcbd8c2fa267d7e2c04e88,2021-09-08_20h54.34.945,forced_choiceRT,2021.1.2,MacIntel,58.82352941,,,,,,,,10,Ontime,j,0,1.951,8,0,32,0,1,,,,,
,0.1,,,,,,,,,f.PNG,f,60fcbd8c2fa267d7e2c04e88,2021-09-08_20h54.34.945,forced_choiceRT,2021.1.2,MacIntel,58.82352941,,,,,,,,10,Ontime,f,1,1.966,8,1,33,0,1,,,,,
,1.14,,,,,,,,,g.PNG,g,60fcbd8c2fa267d7e2c04e88,2021-09-08_20h54.34.945,forced_choiceRT,2021.1.2,MacIntel,58.82352941,,,,,,,,10,Ontime,g,1,2.037,8,2,34,1,1,,,,,
,0.67,,,,,,,,,g.PNG,g,60fcbd8c2fa267d7e2c04e88,2021-09-08_20h54.34.945,forced_choiceRT,2021.1.2,MacIntel,58.82352941,,,,,,,,10,Ontime,g,1,1.938,8,3,35,1,1,,,,,
,0.37,,,,,,,,,g.PNG,g,60fcbd8c2fa267d7e2c04e88,2021-09-08_20h54.34.945,forced_choiceRT,2021.1.2,MacIntel,58.82352941,,,,,,,,10,Fast,g,1,1.882,9,0,36,1,1,,,,,
,0.07,,,,,,,,,j.PNG,j,60fcbd8c2fa267d7e2c04e88,2021-09-08_20h54.34.945,forced_choiceRT,2021.1.2,MacIntel,58.82352941,,,,,,,,10,Ontime,j,1,1.951,9,1,37,3,1,,,,,
,0.22,,,,,,,,,f.PNG,f,60fcbd8c2fa267d7e2c04e88,2021-09-08_20h54.34.945,forced_choiceRT,2021.1.2,MacIntel,58.82352941,,,,,,,,10,Ontime,f,1,1.9,9,2,38,0,1,,,,,
,1.43,,,,,,,,,f.PNG,f,60fcbd8c2fa267d7e2c04e88,2021-09-08_20h54.34.945,forced_choiceRT,2021.1.2,MacIntel,58.82352941,,,,,,,,10,Ontime,f,1,2.033,9,3,39,0,1,,,,,
,,,,,,,,,,,,60fcbd8c2fa267d7e2c04e88,2021-09-08_20h54.34.945,forced_choiceRT,2021.1.2,MacIntel,58.82352941,,,,,,,,,,,,,,,,,,9,0,9,0,1
