IP_Addresss,target_onset,trial_resp_sp.keys,trial_resp_sp.corr,trial_resp_sp.rt,trials_train_loop.thisRepN,trials_train_loop.thisTrialN,trials_train_loop.thisN,trials_train_loop.thisIndex,trials_train_loop.ran,pic,correct_key,participant,date,expName,psychopyVersion,OS,frameRate,trial_resp_timing.keys,trial_resp_timing.rt,trials_train_timing.thisRepN,trials_train_timing.thisTrialN,trials_train_timing.thisN,trials_train_timing.thisIndex,trials_train_timing.ran,block_id,ontime,forcedRT_resp.keys,forcedRT_resp.corr,forcedRT_resp.rt,trials.thisRepN,trials.thisTrialN,trials.thisN,trials.thisIndex,trials.ran,blocks.thisRepN,blocks.thisTrialN,blocks.thisN,blocks.thisIndex,blocks.ran
67.197.12.63,0,j,1,2.4219,0,0,0,3,1,j.PNG,j,60fd939463ee2094a0ad7082,2021-09-08_20h54.26.381,forced_choiceRT,2021.1.2,Win32,59.95922773,,,,,,,,,,,,,,,,,,,,,,
,0,f,1,0.8357,0,1,1,0,1,f.PNG,f,60fd939463ee2094a0ad7082,2021-09-08_20h54.26.381,forced_choiceRT,2021.1.2,Win32,59.95922773,,,,,,,,,,,,,,,,,,,,,,
,0,j,1,1.3584,0,2,2,3,1,j.PNG,j,60fd939463ee2094a0ad7082,2021-09-08_20h54.26.381,forced_choiceRT,2021.1.2,Win32,59.95922773,,,,,,,,,,,,,,,,,,,,,,
,0,g,1,1.0454,0,3,3,1,1,g.PNG,g,60fd939463ee2094a0ad7082,2021-09-08_20h54.26.381,forced_choiceRT,2021.1.2,Win32,59.95922773,,,,,,,,,,,,,,,,,,,,,,
,0,g,1,0.8619,1,0,4,1,1,g.PNG,g,60fd939463ee2094a0ad7082,2021-09-08_20h54.26.381,forced_choiceRT,2021.1.2,Win32,59.95922773,,,,,,,,,,,,,,,,,,,,,,
,0,j,1,1.0028,1,1,5,3,1,j.PNG,j,60fd939463ee2094a0ad7082,2021-09-08_20h54.26.381,forced_choiceRT,2021.1.2,Win32,59.95922773,,,,,,,,,,,,,,,,,,,,,,
,0,j,1,0.737,1,2,6,3,1,j.PNG,j,60fd939463ee2094a0ad7082,2021-09-08_20h54.26.381,forced_choiceRT,2021.1.2,Win32,59.95922773,,,,,,,,,,,,,,,,,,,,,,
,0,f,1,0.7579,1,3,7,0,1,f.PNG,f,60fd939463ee2094a0ad7082,2021-09-08_20h54.26.381,forced_choiceRT,2021.1.2,Win32,59.95922773,,,,,,,,,,,,,,,,,,,,,,
,0,g,1,0.8739,2,0,8,1,1,g.PNG,g,60fd939463ee2094a0ad7082,2021-09-08_20h54.26.381,forced_choiceRT,2021.1.2,Win32,59.95922773,,,,,,,,,,,,,,,,,,,,,,
,0,j,1,0.8206,2,1,9,3,1,j.PNG,j,60fd939463ee2094a0ad7082,2021-09-08_20h54.26.381,forced_choiceRT,2021.1.2,Win32,59.95922773,,,,,,,,,,,,,,,,,,,,,,
,0,j,1,0.7176,2,2,10,3,1,j.PNG,j,60fd939463ee2094a0ad7082,2021-09-08_20h54.26.381,forced_choiceRT,2021.1.2,Win32,59.95922773,,,,,,,,,,,,,,,,,,,,,,
,0,g,1,0.5894,2,3,11,1,1,g.PNG,g,60fd939463ee2094a0ad7082,2021-09-08_20h54.26.381,forced_choiceRT,2021.1.2,Win32,59.95922773,,,,,,,,,,,,,,,,,,,,,,
,0,h,0,0.967,3,0,12,1,1,g.PNG,g,60fd939463ee2094a0ad7082,2021-09-08_20h54.26.381,forced_choiceRT,2021.1.2,Win32,59.95922773,,,,,,,,,,,,,,,,,,,,,,
,0,f,1,0.7647,3,1,13,0,1,f.PNG,f,60fd939463ee2094a0ad7082,2021-09-08_20h54.26.381,forced_choiceRT,2021.1.2,Win32,59.95922773,,,,,,,,,,,,,,,,,,,,,,
,0,j,0,0.9774,3,2,14,2,1,h.PNG,h,60fd939463ee2094a0ad7082,2021-09-08_20h54.26.381,forced_choiceRT,2021.1.2,Win32,59.95922773,,,,,,,,,,,,,,,,,,,,,,
,0,g,1,0.7909,3,3,15,1,1,g.PNG,g,60fd939463ee2094a0ad7082,2021-09-08_20h54.26.381,forced_choiceRT,2021.1.2,Win32,59.95922773,,,,,,,,,,,,,,,,,,,,,,
,0,j,1,0.726,4,0,16,3,1,j.PNG,j,60fd939463ee2094a0ad7082,2021-09-08_20h54.26.381,forced_choiceRT,2021.1.2,Win32,59.95922773,,,,,,,,,,,,,,,,,,,,,,
,0,f,1,0.6535,4,1,17,0,1,f.PNG,f,60fd939463ee2094a0ad7082,2021-09-08_20h54.26.381,forced_choiceRT,2021.1.2,Win32,59.95922773,,,,,,,,,,,,,,,,,,,,,,
,0,g,1,0.9334,4,2,18,1,1,g.PNG,g,60fd939463ee2094a0ad7082,2021-09-08_20h54.26.381,forced_choiceRT,2021.1.2,Win32,59.95922773,,,,,,,,,,,,,,,,,,,,,,
,0,j,1,0.9931,4,3,19,3,1,j.PNG,j,60fd939463ee2094a0ad7082,2021-09-08_20h54.26.381,forced_choiceRT,2021.1.2,Win32,59.95922773,,,,,,,,,,,,,,,,,,,,,,
,0,j,1,0.5901,5,0,20,3,1,j.PNG,j,60fd939463ee2094a0ad7082,2021-09-08_20h54.26.381,forced_choiceRT,2021.1.2,Win32,59.95922773,,,,,,,,,,,,,,,,,,,,,,
,0,h,1,0.755,5,1,21,2,1,h.PNG,h,60fd939463ee2094a0ad7082,2021-09-08_20h54.26.381,forced_choiceRT,2021.1.2,Win32,59.95922773,,,,,,,,,,,,,,,,,,,,,,
,0,f,1,0.7095,5,2,22,0,1,f.PNG,f,60fd939463ee2094a0ad7082,2021-09-08_20h54.26.381,forced_choiceRT,2021.1.2,Win32,59.95922773,,,,,,,,,,,,,,,,,,,,,,
,0,j,1,0.8451,5,3,23,3,1,j.PNG,j,60fd939463ee2094a0ad7082,2021-09-08_20h54.26.381,forced_choiceRT,2021.1.2,Win32,59.95922773,,,,,,,,,,,,,,,,,,,,,,
,0,g,1,0.7441,6,0,24,1,1,g.PNG,g,60fd939463ee2094a0ad7082,2021-09-08_20h54.26.381,forced_choiceRT,2021.1.2,Win32,59.95922773,,,,,,,,,,,,,,,,,,,,,,
,0,h,1,0.9549,6,1,25,2,1,h.PNG,h,60fd939463ee2094a0ad7082,2021-09-08_20h54.26.381,forced_choiceRT,2021.1.2,Win32,59.95922773,,,,,,,,,,,,,,,,,,,,,,
,0,h,1,1.5196,6,2,26,2,1,h.PNG,h,60fd939463ee2094a0ad7082,2021-09-08_20h54.26.381,forced_choiceRT,2021.1.2,Win32,59.95922773,,,,,,,,,,,,,,,,,,,,,,
,0,j,1,0.6889,6,3,27,3,1,j.PNG,j,60fd939463ee2094a0ad7082,2021-09-08_20h54.26.381,forced_choiceRT,2021.1.2,Win32,59.95922773,,,,,,,,,,,,,,,,,,,,,,
,0,f,0,0.7345,7,0,28,1,1,g.PNG,g,60fd939463ee2094a0ad7082,2021-09-08_20h54.26.381,forced_choiceRT,2021.1.2,Win32,59.95922773,,,,,,,,,,,,,,,,,,,,,,
,0,h,1,1.6879,7,1,29,2,1,h.PNG,h,60fd939463ee2094a0ad7082,2021-09-08_20h54.26.381,forced_choiceRT,2021.1.2,Win32,59.95922773,,,,,,,,,,,,,,,,,,,,,,
,0,g,1,0.8663,7,2,30,1,1,g.PNG,g,60fd939463ee2094a0ad7082,2021-09-08_20h54.26.381,forced_choiceRT,2021.1.2,Win32,59.95922773,,,,,,,,,,,,,,,,,,,,,,
,0,h,1,1.3017,7,3,31,2,1,h.PNG,h,60fd939463ee2094a0ad7082,2021-09-08_20h54.26.381,forced_choiceRT,2021.1.2,Win32,59.95922773,,,,,,,,,,,,,,,,,,,,,,
,0,g,1,0.8538,8,0,32,1,1,g.PNG,g,60fd939463ee2094a0ad7082,2021-09-08_20h54.26.381,forced_choiceRT,2021.1.2,Win32,59.95922773,,,,,,,,,,,,,,,,,,,,,,
,0,h,1,0.9603,8,1,33,2,1,h.PNG,h,60fd939463ee2094a0ad7082,2021-09-08_20h54.26.381,forced_choiceRT,2021.1.2,Win32,59.95922773,,,,,,,,,,,,,,,,,,,,,,
,0,h,1,0.6092,8,2,34,2,1,h.PNG,h,60fd939463ee2094a0ad7082,2021-09-08_20h54.26.381,forced_choiceRT,2021.1.2,Win32,59.95922773,,,,,,,,,,,,,,,,,,,,,,
,0,f,0,0.7028,8,3,35,1,1,g.PNG,g,60fd939463ee2094a0ad7082,2021-09-08_20h54.26.381,forced_choiceRT,2021.1.2,Win32,59.95922773,,,,,,,,,,,,,,,,,,,,,,
,0,j,1,0.8974,9,0,36,3,1,j.PNG,j,60fd939463ee2094a0ad7082,2021-09-08_20h54.26.381,forced_choiceRT,2021.1.2,Win32,59.95922773,,,,,,,,,,,,,,,,,,,,,,
,0,h,1,1.0401,9,1,37,2,1,h.PNG,h,60fd939463ee2094a0ad7082,2021-09-08_20h54.26.381,forced_choiceRT,2021.1.2,Win32,59.95922773,,,,,,,,,,,,,,,,,,,,,,
,0,f,1,1.0613,9,2,38,0,1,f.PNG,f,60fd939463ee2094a0ad7082,2021-09-08_20h54.26.381,forced_choiceRT,2021.1.2,Win32,59.95922773,,,,,,,,,,,,,,,,,,,,,,
,0,g,1,0.8115,9,3,39,1,1,g.PNG,g,60fd939463ee2094a0ad7082,2021-09-08_20h54.26.381,forced_choiceRT,2021.1.2,Win32,59.95922773,,,,,,,,,,,,,,,,,,,,,,
,0,h,1,0.7891,10,0,40,2,1,h.PNG,h,60fd939463ee2094a0ad7082,2021-09-08_20h54.26.381,forced_choiceRT,2021.1.2,Win32,59.95922773,,,,,,,,,,,,,,,,,,,,,,
,0,f,1,0.8037,10,1,41,0,1,f.PNG,f,60fd939463ee2094a0ad7082,2021-09-08_20h54.26.381,forced_choiceRT,2021.1.2,Win32,59.95922773,,,,,,,,,,,,,,,,,,,,,,
,0,f,1,0.6079,10,2,42,0,1,f.PNG,f,60fd939463ee2094a0ad7082,2021-09-08_20h54.26.381,forced_choiceRT,2021.1.2,Win32,59.95922773,,,,,,,,,,,,,,,,,,,,,,
,0,h,1,0.8937,10,3,43,2,1,h.PNG,h,60fd939463ee2094a0ad7082,2021-09-08_20h54.26.381,forced_choiceRT,2021.1.2,Win32,59.95922773,,,,,,,,,,,,,,,,,,,,,,
,0,j,1,0.6687,11,0,44,3,1,j.PNG,j,60fd939463ee2094a0ad7082,2021-09-08_20h54.26.381,forced_choiceRT,2021.1.2,Win32,59.95922773,,,,,,,,,,,,,,,,,,,,,,
,0,j,1,0.5648,11,1,45,3,1,j.PNG,j,60fd939463ee2094a0ad7082,2021-09-08_20h54.26.381,forced_choiceRT,2021.1.2,Win32,59.95922773,,,,,,,,,,,,,,,,,,,,,,
,0,j,1,0.5191,11,2,46,3,1,j.PNG,j,60fd939463ee2094a0ad7082,2021-09-08_20h54.26.381,forced_choiceRT,2021.1.2,Win32,59.95922773,,,,,,,,,,,,,,,,,,,,,,
,0,f,1,0.7938,11,3,47,0,1,f.PNG,f,60fd939463ee2094a0ad7082,2021-09-08_20h54.26.381,forced_choiceRT,2021.1.2,Win32,59.95922773,,,,,,,,,,,,,,,,,,,,,,
,0,f,1,0.5609,12,0,48,0,1,f.PNG,f,60fd939463ee2094a0ad7082,2021-09-08_20h54.26.381,forced_choiceRT,2021.1.2,Win32,59.95922773,,,,,,,,,,,,,,,,,,,,,,
,0,h,1,0.94,12,1,49,2,1,h.PNG,h,60fd939463ee2094a0ad7082,2021-09-08_20h54.26.381,forced_choiceRT,2021.1.2,Win32,59.95922773,,,,,,,,,,,,,,,,,,,,,,
,0,f,1,0.6817,12,2,50,0,1,f.PNG,f,60fd939463ee2094a0ad7082,2021-09-08_20h54.26.381,forced_choiceRT,2021.1.2,Win32,59.95922773,,,,,,,,,,,,,,,,,,,,,,
,0,f,1,0.7251,12,3,51,0,1,f.PNG,f,60fd939463ee2094a0ad7082,2021-09-08_20h54.26.381,forced_choiceRT,2021.1.2,Win32,59.95922773,,,,,,,,,,,,,,,,,,,,,,
,0,h,1,0.7877,13,0,52,2,1,h.PNG,h,60fd939463ee2094a0ad7082,2021-09-08_20h54.26.381,forced_choiceRT,2021.1.2,Win32,59.95922773,,,,,,,,,,,,,,,,,,,,,,
,0,f,1,0.6683,13,1,53,0,1,f.PNG,f,60fd939463ee2094a0ad7082,2021-09-08_20h54.26.381,forced_choiceRT,2021.1.2,Win32,59.95922773,,,,,,,,,,,,,,,,,,,,,,
,0,f,1,0.6052,13,2,54,0,1,f.PNG,f,60fd939463ee2094a0ad7082,2021-09-08_20h54.26.381,forced_choiceRT,2021.1.2,Win32,59.95922773,,,,,,,,,,,,,,,,,,,,,,
,0,h,1,1.0599,13,3,55,2,1,h.PNG,h,60fd939463ee2094a0ad7082,2021-09-08_20h54.26.381,forced_choiceRT,2021.1.2,Win32,59.95922773,,,,,,,,,,,,,,,,,,,,,,
,0,g,1,0.852,14,0,56,1,1,g.PNG,g,60fd939463ee2094a0ad7082,2021-09-08_20h54.26.381,forced_choiceRT,2021.1.2,Win32,59.95922773,,,,,,,,,,,,,,,,,,,,,,
,0,f,1,0.8735,14,1,57,0,1,f.PNG,f,60fd939463ee2094a0ad7082,2021-09-08_20h54.26.381,forced_choiceRT,2021.1.2,Win32,59.95922773,,,,,,,,,,,,,,,,,,,,,,
,0,h,1,0.982,14,2,58,2,1,h.PNG,h,60fd939463ee2094a0ad7082,2021-09-08_20h54.26.381,forced_choiceRT,2021.1.2,Win32,59.95922773,,,,,,,,,,,,,,,,,,,,,,
,0,g,1,0.9275,14,3,59,1,1,g.PNG,g,60fd939463ee2094a0ad7082,2021-09-08_20h54.26.381,forced_choiceRT,2021.1.2,Win32,59.95922773,,,,,,,,,,,,,,,,,,,,,,
,,,,,,,,,,,,60fd939463ee2094a0ad7082,2021-09-08_20h54.26.381,forced_choiceRT,2021.1.2,Win32,59.95922773,h,2.2201,0,0,0,0,1,,,,,,,,,,,,,,,
,,,,,,,,,,,,60fd939463ee2094a0ad7082,2021-09-08_20h54.26.381,forced_choiceRT,2021.1.2,Win32,59.95922773,h,1.2525,1,0,1,0,1,,,,,,,,,,,,,,,
,,,,,,,,,,,,60fd939463ee2094a0ad7082,2021-09-08_20h54.26.381,forced_choiceRT,2021.1.2,Win32,59.95922773,h,1.7675,2,0,2,0,1,,,,,,,,,,,,,,,
,,,,,,,,,,,,60fd939463ee2094a0ad7082,2021-09-08_20h54.26.381,forced_choiceRT,2021.1.2,Win32,59.95922773,f,2.225,3,0,3,0,1,,,,,,,,,,,,,,,
,,,,,,,,,,,,60fd939463ee2094a0ad7082,2021-09-08_20h54.26.381,forced_choiceRT,2021.1.2,Win32,59.95922773,j,1.756,4,0,4,0,1,,,,,,,,,,,,,,,
,,,,,,,,,,,,60fd939463ee2094a0ad7082,2021-09-08_20h54.26.381,forced_choiceRT,2021.1.2,Win32,59.95922773,h,1.7753,5,0,5,0,1,,,,,,,,,,,,,,,
,,,,,,,,,,,,60fd939463ee2094a0ad7082,2021-09-08_20h54.26.381,forced_choiceRT,2021.1.2,Win32,59.95922773,g,2.1275,6,0,6,0,1,,,,,,,,,,,,,,,
,,,,,,,,,,,,60fd939463ee2094a0ad7082,2021-09-08_20h54.26.381,forced_choiceRT,2021.1.2,Win32,59.95922773,h,2.0636,7,0,7,0,1,,,,,,,,,,,,,,,
,,,,,,,,,,,,60fd939463ee2094a0ad7082,2021-09-08_20h54.26.381,forced_choiceRT,2021.1.2,Win32,59.95922773,f,2.0563,8,0,8,0,1,,,,,,,,,,,,,,,
,,,,,,,,,,,,60fd939463ee2094a0ad7082,2021-09-08_20h54.26.381,forced_choiceRT,2021.1.2,Win32,59.95922773,g,2.059,9,0,9,0,1,,,,,,,,,,,,,,,
,,,,,,,,,,,,60fd939463ee2094a0ad7082,2021-09-08_20h54.26.381,forced_choiceRT,2021.1.2,Win32,59.95922773,h,2.0851,10,0,10,0,1,,,,,,,,,,,,,,,
,,,,,,,,,,,,60fd939463ee2094a0ad7082,2021-09-08_20h54.26.381,forced_choiceRT,2021.1.2,Win32,59.95922773,j,1.9804,11,0,11,0,1,,,,,,,,,,,,,,,
,,,,,,,,,,,,60fd939463ee2094a0ad7082,2021-09-08_20h54.26.381,forced_choiceRT,2021.1.2,Win32,59.95922773,h,1.9781,12,0,12,0,1,,,,,,,,,,,,,,,
,,,,,,,,,,,,60fd939463ee2094a0ad7082,2021-09-08_20h54.26.381,forced_choiceRT,2021.1.2,Win32,59.95922773,g,2.0398,13,0,13,0,1,,,,,,,,,,,,,,,
,,,,,,,,,,,,60fd939463ee2094a0ad7082,2021-09-08_20h54.26.381,forced_choiceRT,2021.1.2,Win32,59.95922773,f,1.9925,14,0,14,0,1,,,,,,,,,,,,,,,
,,,,,,,,,,,,60fd939463ee2094a0ad7082,2021-09-08_20h54.26.381,forced_choiceRT,2021.1.2,Win32,59.95922773,g,1.9319,15,0,15,0,1,,,,,,,,,,,,,,,
,,,,,,,,,,,,60fd939463ee2094a0ad7082,2021-09-08_20h54.26.381,forced_choiceRT,2021.1.2,Win32,59.95922773,h,2.0191,16,0,16,0,1,,,,,,,,,,,,,,,
,,,,,,,,,,,,60fd939463ee2094a0ad7082,2021-09-08_20h54.26.381,forced_choiceRT,2021.1.2,Win32,59.95922773,j,1.844,17,0,17,0,1,,,,,,,,,,,,,,,
,,,,,,,,,,,,60fd939463ee2094a0ad7082,2021-09-08_20h54.26.381,forced_choiceRT,2021.1.2,Win32,59.95922773,g,2.1002,18,0,18,0,1,,,,,,,,,,,,,,,
,,,,,,,,,,,,60fd939463ee2094a0ad7082,2021-09-08_20h54.26.381,forced_choiceRT,2021.1.2,Win32,59.95922773,g,1.9954,19,0,19,0,1,,,,,,,,,,,,,,,
,1.96,,,,,,,,,g.PNG,g,60fd939463ee2094a0ad7082,2021-09-08_20h54.26.381,forced_choiceRT,2021.1.2,Win32,59.95922773,,,,,,,,1,Ontime,g,1,1.9836,0,0,0,1,1,,,,,
,0.4,,,,,,,,,f.PNG,f,60fd939463ee2094a0ad7082,2021-09-08_20h54.26.381,forced_choiceRT,2021.1.2,Win32,59.95922773,,,,,,,,1,Ontime,f,1,2.0231,0,1,1,0,1,,,,,
,1.89,,,,,,,,,g.PNG,g,60fd939463ee2094a0ad7082,2021-09-08_20h54.26.381,forced_choiceRT,2021.1.2,Win32,59.95922773,,,,,,,,1,Ontime,j,0,1.9035,0,2,2,1,1,,,,,
,0.13,,,,,,,,,f.PNG,f,60fd939463ee2094a0ad7082,2021-09-08_20h54.26.381,forced_choiceRT,2021.1.2,Win32,59.95922773,,,,,,,,1,Ontime,f,1,2.0373,0,3,3,0,1,,,,,
,1.05,,,,,,,,,g.PNG,g,60fd939463ee2094a0ad7082,2021-09-08_20h54.26.381,forced_choiceRT,2021.1.2,Win32,59.95922773,,,,,,,,1,Fast,g,1,1.8909,1,0,4,1,1,,,,,
,0.44,,,,,,,,,j.PNG,j,60fd939463ee2094a0ad7082,2021-09-08_20h54.26.381,forced_choiceRT,2021.1.2,Win32,59.95922773,,,,,,,,1,Slow,j,1,2.1017,1,1,5,3,1,,,,,
,0.82,,,,,,,,,h.PNG,h,60fd939463ee2094a0ad7082,2021-09-08_20h54.26.381,forced_choiceRT,2021.1.2,Win32,59.95922773,,,,,,,,1,Ontime,h,1,1.9349,1,2,6,2,1,,,,,
,1.11,,,,,,,,,j.PNG,j,60fd939463ee2094a0ad7082,2021-09-08_20h54.26.381,forced_choiceRT,2021.1.2,Win32,59.95922773,,,,,,,,1,Ontime,h,0,1.9013,1,3,7,3,1,,,,,
,1.11,,,,,,,,,f.PNG,f,60fd939463ee2094a0ad7082,2021-09-08_20h54.26.381,forced_choiceRT,2021.1.2,Win32,59.95922773,,,,,,,,1,Fast,f,1,1.7852,2,0,8,0,1,,,,,
,0.91,,,,,,,,,j.PNG,j,60fd939463ee2094a0ad7082,2021-09-08_20h54.26.381,forced_choiceRT,2021.1.2,Win32,59.95922773,,,,,,,,1,Fast,j,1,1.8669,2,1,9,3,1,,,,,
,0.74,,,,,,,,,h.PNG,h,60fd939463ee2094a0ad7082,2021-09-08_20h54.26.381,forced_choiceRT,2021.1.2,Win32,59.95922773,,,,,,,,1,Ontime,h,1,1.9352,2,2,10,2,1,,,,,
,1.9,,,,,,,,,j.PNG,j,60fd939463ee2094a0ad7082,2021-09-08_20h54.26.381,forced_choiceRT,2021.1.2,Win32,59.95922773,,,,,,,,1,Ontime,g,0,2.0849,2,3,11,3,1,,,,,
,0.25,,,,,,,,,j.PNG,j,60fd939463ee2094a0ad7082,2021-09-08_20h54.26.381,forced_choiceRT,2021.1.2,Win32,59.95922773,,,,,,,,1,Fast,j,1,1.8189,3,0,12,3,1,,,,,
,0.04,,,,,,,,,h.PNG,h,60fd939463ee2094a0ad7082,2021-09-08_20h54.26.381,forced_choiceRT,2021.1.2,Win32,59.95922773,,,,,,,,1,Ontime,h,1,1.9843,3,1,13,2,1,,,,,
,1.12,,,,,,,,,j.PNG,j,60fd939463ee2094a0ad7082,2021-09-08_20h54.26.381,forced_choiceRT,2021.1.2,Win32,59.95922773,,,,,,,,1,Slow,h,0,2.1266,3,2,14,3,1,,,,,
,1.36,,,,,,,,,h.PNG,h,60fd939463ee2094a0ad7082,2021-09-08_20h54.26.381,forced_choiceRT,2021.1.2,Win32,59.95922773,,,,,,,,1,Ontime,j,0,2.048,3,3,15,2,1,,,,,
,0.5,,,,,,,,,g.PNG,g,60fd939463ee2094a0ad7082,2021-09-08_20h54.26.381,forced_choiceRT,2021.1.2,Win32,59.95922773,,,,,,,,1,Ontime,g,1,1.9103,4,0,16,1,1,,,,,
,0.98,,,,,,,,,h.PNG,h,60fd939463ee2094a0ad7082,2021-09-08_20h54.26.381,forced_choiceRT,2021.1.2,Win32,59.95922773,,,,,,,,1,Fast,h,1,1.8623,4,1,17,2,1,,,,,
,1.24,,,,,,,,,h.PNG,h,60fd939463ee2094a0ad7082,2021-09-08_20h54.26.381,forced_choiceRT,2021.1.2,Win32,59.95922773,,,,,,,,1,Ontime,h,1,1.9284,4,2,18,2,1,,,,,
,0.63,,,,,,,,,h.PNG,h,60fd939463ee2094a0ad7082,2021-09-08_20h54.26.381,forced_choiceRT,2021.1.2,Win32,59.95922773,,,,,,,,1,Ontime,h,1,1.9841,4,3,19,2,1,,,,,
,0.21,,,,,,,,,f.PNG,f,60fd939463ee2094a0ad7082,2021-09-08_20h54.26.381,forced_choiceRT,2021.1.2,Win32,59.95922773,,,,,,,,1,Ontime,f,1,2.0182,5,0,20,0,1,,,,,
,1.49,,,,,,,,,g.PNG,g,60fd939463ee2094a0ad7082,2021-09-08_20h54.26.381,forced_choiceRT,2021.1.2,Win32,59.95922773,,,,,,,,1,Ontime,g,1,2.0675,5,1,21,1,1,,,,,
,1.74,,,,,,,,,g.PNG,g,60fd939463ee2094a0ad7082,2021-09-08_20h54.26.381,forced_choiceRT,2021.1.2,Win32,59.95922773,,,,,,,,1,Slow,h,0,2.2515,5,2,22,1,1,,,,,
,1,,,,,,,,,g.PNG,g,60fd939463ee2094a0ad7082,2021-09-08_20h54.26.381,forced_choiceRT,2021.1.2,Win32,59.95922773,,,,,,,,1,Fast,f,0,1.8896,5,3,23,1,1,,,,,
,1.61,,,,,,,,,j.PNG,j,60fd939463ee2094a0ad7082,2021-09-08_20h54.26.381,forced_choiceRT,2021.1.2,Win32,59.95922773,,,,,,,,1,Ontime,f,0,1.951,6,0,24,3,1,,,,,
,0.75,,,,,,,,,h.PNG,h,60fd939463ee2094a0ad7082,2021-09-08_20h54.26.381,forced_choiceRT,2021.1.2,Win32,59.95922773,,,,,,,,1,Fast,j,0,1.8677,6,1,25,2,1,,,,,
,0.46,,,,,,,,,j.PNG,j,60fd939463ee2094a0ad7082,2021-09-08_20h54.26.381,forced_choiceRT,2021.1.2,Win32,59.95922773,,,,,,,,1,Ontime,j,1,1.9361,6,2,26,3,1,,,,,
,1.18,,,,,,,,,h.PNG,h,60fd939463ee2094a0ad7082,2021-09-08_20h54.26.381,forced_choiceRT,2021.1.2,Win32,59.95922773,,,,,,,,1,Ontime,h,1,2.0742,6,3,27,2,1,,,,,
,0.95,,,,,,,,,g.PNG,g,60fd939463ee2094a0ad7082,2021-09-08_20h54.26.381,forced_choiceRT,2021.1.2,Win32,59.95922773,,,,,,,,1,Fast,g,1,1.8698,7,0,28,1,1,,,,,
,0.68,,,,,,,,,f.PNG,f,60fd939463ee2094a0ad7082,2021-09-08_20h54.26.381,forced_choiceRT,2021.1.2,Win32,59.95922773,,,,,,,,1,Ontime,f,1,2.0237,7,1,29,0,1,,,,,
,0.45,,,,,,,,,j.PNG,j,60fd939463ee2094a0ad7082,2021-09-08_20h54.26.381,forced_choiceRT,2021.1.2,Win32,59.95922773,,,,,,,,1,Fast,j,1,1.8411,7,2,30,3,1,,,,,
,1.3,,,,,,,,,g.PNG,g,60fd939463ee2094a0ad7082,2021-09-08_20h54.26.381,forced_choiceRT,2021.1.2,Win32,59.95922773,,,,,,,,1,Fast,j,0,1.6552,7,3,31,1,1,,,,,
,0.45,,,,,,,,,j.PNG,j,60fd939463ee2094a0ad7082,2021-09-08_20h54.26.381,forced_choiceRT,2021.1.2,Win32,59.95922773,,,,,,,,1,Fast,j,1,1.7243,8,0,32,3,1,,,,,
,1.28,,,,,,,,,f.PNG,f,60fd939463ee2094a0ad7082,2021-09-08_20h54.26.381,forced_choiceRT,2021.1.2,Win32,59.95922773,,,,,,,,1,Fast,g,0,1.7427,8,1,33,0,1,,,,,
,0.41,,,,,,,,,f.PNG,f,60fd939463ee2094a0ad7082,2021-09-08_20h54.26.381,forced_choiceRT,2021.1.2,Win32,59.95922773,,,,,,,,1,Fast,f,1,1.883,8,2,34,0,1,,,,,
,0.94,,,,,,,,,g.PNG,g,60fd939463ee2094a0ad7082,2021-09-08_20h54.26.381,forced_choiceRT,2021.1.2,Win32,59.95922773,,,,,,,,1,Slow,f,0,2.1646,8,3,35,1,1,,,,,
,0.83,,,,,,,,,f.PNG,f,60fd939463ee2094a0ad7082,2021-09-08_20h54.26.381,forced_choiceRT,2021.1.2,Win32,59.95922773,,,,,,,,1,Ontime,g,0,1.9025,9,0,36,0,1,,,,,
,1.12,,,,,,,,,h.PNG,h,60fd939463ee2094a0ad7082,2021-09-08_20h54.26.381,forced_choiceRT,2021.1.2,Win32,59.95922773,,,,,,,,1,Fast,j,0,1.8877,9,1,37,2,1,,,,,
,0.45,,,,,,,,,f.PNG,f,60fd939463ee2094a0ad7082,2021-09-08_20h54.26.381,forced_choiceRT,2021.1.2,Win32,59.95922773,,,,,,,,1,Fast,g,0,1.8874,9,2,38,0,1,,,,,
,1.77,,,,,,,,,f.PNG,f,60fd939463ee2094a0ad7082,2021-09-08_20h54.26.381,forced_choiceRT,2021.1.2,Win32,59.95922773,,,,,,,,1,Slow,h,0,2.1138,9,3,39,0,1,,,,,
,,,,,,,,,,,,60fd939463ee2094a0ad7082,2021-09-08_20h54.26.381,forced_choiceRT,2021.1.2,Win32,59.95922773,,,,,,,,,,,,,,,,,,0,0,0,0,1
,0.35,,,,,,,,,g.PNG,g,60fd939463ee2094a0ad7082,2021-09-08_20h54.26.381,forced_choiceRT,2021.1.2,Win32,59.95922773,,,,,,,,2,Fast,g,1,1.7231,0,0,0,1,1,,,,,
,1.38,,,,,,,,,j.PNG,j,60fd939463ee2094a0ad7082,2021-09-08_20h54.26.381,forced_choiceRT,2021.1.2,Win32,59.95922773,,,,,,,,2,Slow,j,1,2.1508,0,1,1,3,1,,,,,
,0.9,,,,,,,,,j.PNG,j,60fd939463ee2094a0ad7082,2021-09-08_20h54.26.381,forced_choiceRT,2021.1.2,Win32,59.95922773,,,,,,,,2,Slow,j,1,2.1851,0,2,2,3,1,,,,,
,1.56,,,,,,,,,g.PNG,g,60fd939463ee2094a0ad7082,2021-09-08_20h54.26.381,forced_choiceRT,2021.1.2,Win32,59.95922773,,,,,,,,2,Ontime,j,0,1.9517,0,3,3,1,1,,,,,
,1.85,,,,,,,,,j.PNG,j,60fd939463ee2094a0ad7082,2021-09-08_20h54.26.381,forced_choiceRT,2021.1.2,Win32,59.95922773,,,,,,,,2,Slow,j,1,2.1386,1,0,4,3,1,,,,,
,0.58,,,,,,,,,g.PNG,g,60fd939463ee2094a0ad7082,2021-09-08_20h54.26.381,forced_choiceRT,2021.1.2,Win32,59.95922773,,,,,,,,2,Fast,g,1,1.1181,1,1,5,1,1,,,,,
,1.59,,,,,,,,,j.PNG,j,60fd939463ee2094a0ad7082,2021-09-08_20h54.26.381,forced_choiceRT,2021.1.2,Win32,59.95922773,,,,,,,,2,Ontime,h,0,2.073,1,2,6,3,1,,,,,
,0.25,,,,,,,,,j.PNG,j,60fd939463ee2094a0ad7082,2021-09-08_20h54.26.381,forced_choiceRT,2021.1.2,Win32,59.95922773,,,,,,,,2,Ontime,j,1,1.9015,1,3,7,3,1,,,,,
,0.97,,,,,,,,,j.PNG,j,60fd939463ee2094a0ad7082,2021-09-08_20h54.26.381,forced_choiceRT,2021.1.2,Win32,59.95922773,,,,,,,,2,Fast,j,1,1.8508,2,0,8,3,1,,,,,
,0.44,,,,,,,,,g.PNG,g,60fd939463ee2094a0ad7082,2021-09-08_20h54.26.381,forced_choiceRT,2021.1.2,Win32,59.95922773,,,,,,,,2,Fast,g,1,1.1358,2,1,9,1,1,,,,,
,0.78,,,,,,,,,g.PNG,g,60fd939463ee2094a0ad7082,2021-09-08_20h54.26.381,forced_choiceRT,2021.1.2,Win32,59.95922773,,,,,,,,2,Fast,g,1,1.8189,2,2,10,1,1,,,,,
,1.62,,,,,,,,,g.PNG,g,60fd939463ee2094a0ad7082,2021-09-08_20h54.26.381,forced_choiceRT,2021.1.2,Win32,59.95922773,,,,,,,,2,Ontime,g,1,1.9185,2,3,11,1,1,,,,,
,0.2,,,,,,,,,f.PNG,f,60fd939463ee2094a0ad7082,2021-09-08_20h54.26.381,forced_choiceRT,2021.1.2,Win32,59.95922773,,,,,,,,2,Fast,f,1,1.5011,3,0,12,0,1,,,,,
,0.01,,,,,,,,,f.PNG,f,60fd939463ee2094a0ad7082,2021-09-08_20h54.26.381,forced_choiceRT,2021.1.2,Win32,59.95922773,,,,,,,,2,Ontime,f,1,1.9696,3,1,13,0,1,,,,,
,1.34,,,,,,,,,h.PNG,h,60fd939463ee2094a0ad7082,2021-09-08_20h54.26.381,forced_choiceRT,2021.1.2,Win32,59.95922773,,,,,,,,2,Slow,j,0,2.1345,3,2,14,2,1,,,,,
,0.12,,,,,,,,,h.PNG,h,60fd939463ee2094a0ad7082,2021-09-08_20h54.26.381,forced_choiceRT,2021.1.2,Win32,59.95922773,,,,,,,,2,Ontime,h,1,2.0176,3,3,15,2,1,,,,,
,1.54,,,,,,,,,f.PNG,f,60fd939463ee2094a0ad7082,2021-09-08_20h54.26.381,forced_choiceRT,2021.1.2,Win32,59.95922773,,,,,,,,2,Slow,h,0,3.951,4,0,16,0,1,,,,,
,1.54,,,,,,,,,h.PNG,h,60fd939463ee2094a0ad7082,2021-09-08_20h54.26.381,forced_choiceRT,2021.1.2,Win32,59.95922773,,,,,,,,2,Slow,h,1,2.2497,4,1,17,2,1,,,,,
,0.34,,,,,,,,,j.PNG,j,60fd939463ee2094a0ad7082,2021-09-08_20h54.26.381,forced_choiceRT,2021.1.2,Win32,59.95922773,,,,,,,,2,Fast,h,0,1.3558,4,2,18,3,1,,,,,
,1.77,,,,,,,,,h.PNG,h,60fd939463ee2094a0ad7082,2021-09-08_20h54.26.381,forced_choiceRT,2021.1.2,Win32,59.95922773,,,,,,,,2,Ontime,h,1,1.9224,4,3,19,2,1,,,,,
,0.3,,,,,,,,,g.PNG,g,60fd939463ee2094a0ad7082,2021-09-08_20h54.26.381,forced_choiceRT,2021.1.2,Win32,59.95922773,,,,,,,,2,Fast,g,1,1.7509,5,0,20,1,1,,,,,
,1.87,,,,,,,,,h.PNG,h,60fd939463ee2094a0ad7082,2021-09-08_20h54.26.381,forced_choiceRT,2021.1.2,Win32,59.95922773,,,,,,,,2,Slow,h,1,2.8346,5,1,21,2,1,,,,,
,0.58,,,,,,,,,h.PNG,h,60fd939463ee2094a0ad7082,2021-09-08_20h54.26.381,forced_choiceRT,2021.1.2,Win32,59.95922773,,,,,,,,2,Fast,h,1,1.8606,5,2,22,2,1,,,,,
,1.92,,,,,,,,,f.PNG,f,60fd939463ee2094a0ad7082,2021-09-08_20h54.26.381,forced_choiceRT,2021.1.2,Win32,59.95922773,,,,,,,,2,Ontime,j,0,1.9347,5,3,23,0,1,,,,,
,1.11,,,,,,,,,j.PNG,j,60fd939463ee2094a0ad7082,2021-09-08_20h54.26.381,forced_choiceRT,2021.1.2,Win32,59.95922773,,,,,,,,2,Ontime,h,0,1.9506,6,0,24,3,1,,,,,
,1.25,,,,,,,,,f.PNG,f,60fd939463ee2094a0ad7082,2021-09-08_20h54.26.381,forced_choiceRT,2021.1.2,Win32,59.95922773,,,,,,,,2,Ontime,j,0,1.9511,6,1,25,0,1,,,,,
,0.94,,,,,,,,,f.PNG,f,60fd939463ee2094a0ad7082,2021-09-08_20h54.26.381,forced_choiceRT,2021.1.2,Win32,59.95922773,,,,,,,,2,Fast,f,1,1.7686,6,2,26,0,1,,,,,
,0.34,,,,,,,,,f.PNG,f,60fd939463ee2094a0ad7082,2021-09-08_20h54.26.381,forced_choiceRT,2021.1.2,Win32,59.95922773,,,,,,,,2,Ontime,f,1,1.9681,6,3,27,0,1,,,,,
,1.58,,,,,,,,,f.PNG,f,60fd939463ee2094a0ad7082,2021-09-08_20h54.26.381,forced_choiceRT,2021.1.2,Win32,59.95922773,,,,,,,,2,Ontime,f,1,2.0621,7,0,28,0,1,,,,,
,1.7,,,,,,,,,j.PNG,j,60fd939463ee2094a0ad7082,2021-09-08_20h54.26.381,forced_choiceRT,2021.1.2,Win32,59.95922773,,,,,,,,2,Slow,f,0,2.1407,7,1,29,3,1,,,,,
,0.12,,,,,,,,,f.PNG,f,60fd939463ee2094a0ad7082,2021-09-08_20h54.26.381,forced_choiceRT,2021.1.2,Win32,59.95922773,,,,,,,,2,Ontime,f,1,1.9013,7,2,30,0,1,,,,,
,1.12,,,,,,,,,h.PNG,h,60fd939463ee2094a0ad7082,2021-09-08_20h54.26.381,forced_choiceRT,2021.1.2,Win32,59.95922773,,,,,,,,2,Fast,h,1,1.8847,7,3,31,2,1,,,,,
,0.59,,,,,,,,,h.PNG,h,60fd939463ee2094a0ad7082,2021-09-08_20h54.26.381,forced_choiceRT,2021.1.2,Win32,59.95922773,,,,,,,,2,Fast,h,1,0.6009,8,0,32,2,1,,,,,
,1.21,,,,,,,,,g.PNG,g,60fd939463ee2094a0ad7082,2021-09-08_20h54.26.381,forced_choiceRT,2021.1.2,Win32,59.95922773,,,,,,,,2,Ontime,g,1,1.9507,8,1,33,1,1,,,,,
,1.12,,,,,,,,,h.PNG,h,60fd939463ee2094a0ad7082,2021-09-08_20h54.26.381,forced_choiceRT,2021.1.2,Win32,59.95922773,,,,,,,,2,Fast,g,0,1.6348,8,2,34,2,1,,,,,
,0.53,,,,,,,,,j.PNG,j,60fd939463ee2094a0ad7082,2021-09-08_20h54.26.381,forced_choiceRT,2021.1.2,Win32,59.95922773,,,,,,,,2,Ontime,j,1,2.0189,8,3,35,3,1,,,,,
,0.37,,,,,,,,,g.PNG,g,60fd939463ee2094a0ad7082,2021-09-08_20h54.26.381,forced_choiceRT,2021.1.2,Win32,59.95922773,,,,,,,,2,Fast,g,1,1.4292,9,0,36,1,1,,,,,
,0.74,,,,,,,,,f.PNG,f,60fd939463ee2094a0ad7082,2021-09-08_20h54.26.381,forced_choiceRT,2021.1.2,Win32,59.95922773,,,,,,,,2,Ontime,f,1,1.9845,9,1,37,0,1,,,,,
,1.98,,,,,,,,,g.PNG,g,60fd939463ee2094a0ad7082,2021-09-08_20h54.26.381,forced_choiceRT,2021.1.2,Win32,59.95922773,,,,,,,,2,Slow,f,0,2.1015,9,2,38,1,1,,,,,
,1.35,,,,,,,,,h.PNG,h,60fd939463ee2094a0ad7082,2021-09-08_20h54.26.381,forced_choiceRT,2021.1.2,Win32,59.95922773,,,,,,,,2,Fast,h,1,1.6561,9,3,39,2,1,,,,,
,,,,,,,,,,,,60fd939463ee2094a0ad7082,2021-09-08_20h54.26.381,forced_choiceRT,2021.1.2,Win32,59.95922773,,,,,,,,,,,,,,,,,,1,0,1,0,1
,1.55,,,,,,,,,g.PNG,g,60fd939463ee2094a0ad7082,2021-09-08_20h54.26.381,forced_choiceRT,2021.1.2,Win32,59.95922773,,,,,,,,3,Slow,g,1,2.1516,0,0,0,1,1,,,,,
,1.56,,,,,,,,,h.PNG,h,60fd939463ee2094a0ad7082,2021-09-08_20h54.26.381,forced_choiceRT,2021.1.2,Win32,59.95922773,,,,,,,,3,Slow,g,0,2.218,0,1,1,2,1,,,,,
,1.49,,,,,,,,,f.PNG,f,60fd939463ee2094a0ad7082,2021-09-08_20h54.26.381,forced_choiceRT,2021.1.2,Win32,59.95922773,,,,,,,,3,Fast,h,0,1.7012,0,2,2,0,1,,,,,
,1.34,,,,,,,,,f.PNG,f,60fd939463ee2094a0ad7082,2021-09-08_20h54.26.381,forced_choiceRT,2021.1.2,Win32,59.95922773,,,,,,,,3,Fast,h,0,1.6893,0,3,3,0,1,,,,,
,0.35,,,,,,,,,f.PNG,f,60fd939463ee2094a0ad7082,2021-09-08_20h54.26.381,forced_choiceRT,2021.1.2,Win32,59.95922773,,,,,,,,3,Fast,f,1,1.7437,1,0,4,0,1,,,,,
,0.07,,,,,,,,,h.PNG,h,60fd939463ee2094a0ad7082,2021-09-08_20h54.26.381,forced_choiceRT,2021.1.2,Win32,59.95922773,,,,,,,,3,Ontime,h,1,1.9262,1,1,5,2,1,,,,,
,1.1,,,,,,,,,j.PNG,j,60fd939463ee2094a0ad7082,2021-09-08_20h54.26.381,forced_choiceRT,2021.1.2,Win32,59.95922773,,,,,,,,3,Ontime,j,1,2.0009,1,2,6,3,1,,,,,
,0.83,,,,,,,,,j.PNG,j,60fd939463ee2094a0ad7082,2021-09-08_20h54.26.381,forced_choiceRT,2021.1.2,Win32,59.95922773,,,,,,,,3,Ontime,j,1,1.9674,1,3,7,3,1,,,,,
,1.1,,,,,,,,,j.PNG,j,60fd939463ee2094a0ad7082,2021-09-08_20h54.26.381,forced_choiceRT,2021.1.2,Win32,59.95922773,,,,,,,,3,Ontime,j,1,1.968,2,0,8,3,1,,,,,
,0.06,,,,,,,,,g.PNG,g,60fd939463ee2094a0ad7082,2021-09-08_20h54.26.381,forced_choiceRT,2021.1.2,Win32,59.95922773,,,,,,,,3,Ontime,g,1,2.0847,2,1,9,1,1,,,,,
,0.52,,,,,,,,,j.PNG,j,60fd939463ee2094a0ad7082,2021-09-08_20h54.26.381,forced_choiceRT,2021.1.2,Win32,59.95922773,,,,,,,,3,Slow,j,1,2.1932,2,2,10,3,1,,,,,
,1.46,,,,,,,,,g.PNG,g,60fd939463ee2094a0ad7082,2021-09-08_20h54.26.381,forced_choiceRT,2021.1.2,Win32,59.95922773,,,,,,,,3,Ontime,j,0,1.9355,2,3,11,1,1,,,,,
,0.09,,,,,,,,,f.PNG,f,60fd939463ee2094a0ad7082,2021-09-08_20h54.26.381,forced_choiceRT,2021.1.2,Win32,59.95922773,,,,,,,,3,Fast,f,1,1.7784,3,0,12,0,1,,,,,
,1.64,,,,,,,,,j.PNG,j,60fd939463ee2094a0ad7082,2021-09-08_20h54.26.381,forced_choiceRT,2021.1.2,Win32,59.95922773,,,,,,,,3,Slow,g,0,2.218,3,1,13,3,1,,,,,
,0.98,,,,,,,,,h.PNG,h,60fd939463ee2094a0ad7082,2021-09-08_20h54.26.381,forced_choiceRT,2021.1.2,Win32,59.95922773,,,,,,,,3,Ontime,h,1,1.9678,3,2,14,2,1,,,,,
,1.46,,,,,,,,,f.PNG,f,60fd939463ee2094a0ad7082,2021-09-08_20h54.26.381,forced_choiceRT,2021.1.2,Win32,59.95922773,,,,,,,,3,Fast,g,0,1.8007,3,3,15,0,1,,,,,
,0.88,,,,,,,,,g.PNG,g,60fd939463ee2094a0ad7082,2021-09-08_20h54.26.381,forced_choiceRT,2021.1.2,Win32,59.95922773,,,,,,,,3,Ontime,g,1,2.0021,4,0,16,1,1,,,,,
,1.78,,,,,,,,,j.PNG,j,60fd939463ee2094a0ad7082,2021-09-08_20h54.26.381,forced_choiceRT,2021.1.2,Win32,59.95922773,,,,,,,,3,Ontime,g,0,2.0011,4,1,17,3,1,,,,,
,1.21,,,,,,,,,f.PNG,f,60fd939463ee2094a0ad7082,2021-09-08_20h54.26.381,forced_choiceRT,2021.1.2,Win32,59.95922773,,,,,,,,3,Fast,g,0,1.8404,4,2,18,0,1,,,,,
,0.39,,,,,,,,,j.PNG,j,60fd939463ee2094a0ad7082,2021-09-08_20h54.26.381,forced_choiceRT,2021.1.2,Win32,59.95922773,,,,,,,,3,Ontime,j,1,1.9183,4,3,19,3,1,,,,,
,1.51,,,,,,,,,h.PNG,h,60fd939463ee2094a0ad7082,2021-09-08_20h54.26.381,forced_choiceRT,2021.1.2,Win32,59.95922773,,,,,,,,3,Slow,h,1,2.2297,5,0,20,2,1,,,,,
,1.37,,,,,,,,,g.PNG,g,60fd939463ee2094a0ad7082,2021-09-08_20h54.26.381,forced_choiceRT,2021.1.2,Win32,59.95922773,,,,,,,,3,Fast,g,1,1.7051,5,1,21,1,1,,,,,
,1.08,,,,,,,,,g.PNG,g,60fd939463ee2094a0ad7082,2021-09-08_20h54.26.381,forced_choiceRT,2021.1.2,Win32,59.95922773,,,,,,,,3,Fast,g,1,1.8027,5,2,22,1,1,,,,,
,0.33,,,,,,,,,g.PNG,g,60fd939463ee2094a0ad7082,2021-09-08_20h54.26.381,forced_choiceRT,2021.1.2,Win32,59.95922773,,,,,,,,3,Ontime,g,1,1.9389,5,3,23,1,1,,,,,
,0.55,,,,,,,,,j.PNG,j,60fd939463ee2094a0ad7082,2021-09-08_20h54.26.381,forced_choiceRT,2021.1.2,Win32,59.95922773,,,,,,,,3,Ontime,j,1,2.0014,6,0,24,3,1,,,,,
,1.08,,,,,,,,,f.PNG,f,60fd939463ee2094a0ad7082,2021-09-08_20h54.26.381,forced_choiceRT,2021.1.2,Win32,59.95922773,,,,,,,,3,Ontime,f,1,2.0773,6,1,25,0,1,,,,,
,0.17,,,,,,,,,f.PNG,f,60fd939463ee2094a0ad7082,2021-09-08_20h54.26.381,forced_choiceRT,2021.1.2,Win32,59.95922773,,,,,,,,3,Ontime,f,1,2.0245,6,2,26,0,1,,,,,
,1.14,,,,,,,,,h.PNG,h,60fd939463ee2094a0ad7082,2021-09-08_20h54.26.381,forced_choiceRT,2021.1.2,Win32,59.95922773,,,,,,,,3,Ontime,h,1,1.9126,6,3,27,2,1,,,,,
,1.55,,,,,,,,,h.PNG,h,60fd939463ee2094a0ad7082,2021-09-08_20h54.26.381,forced_choiceRT,2021.1.2,Win32,59.95922773,,,,,,,,3,Ontime,g,0,1.9677,7,0,28,2,1,,,,,
,0.26,,,,,,,,,h.PNG,h,60fd939463ee2094a0ad7082,2021-09-08_20h54.26.381,forced_choiceRT,2021.1.2,Win32,59.95922773,,,,,,,,3,Ontime,h,1,2.0681,7,1,29,2,1,,,,,
,0.9,,,,,,,,,h.PNG,h,60fd939463ee2094a0ad7082,2021-09-08_20h54.26.381,forced_choiceRT,2021.1.2,Win32,59.95922773,,,,,,,,3,Slow,h,1,2.1344,7,2,30,2,1,,,,,
,1.62,,,,,,,,,g.PNG,g,60fd939463ee2094a0ad7082,2021-09-08_20h54.26.381,forced_choiceRT,2021.1.2,Win32,59.95922773,,,,,,,,3,Slow,f,0,2.2231,7,3,31,1,1,,,,,
,1.3,,,,,,,,,f.PNG,f,60fd939463ee2094a0ad7082,2021-09-08_20h54.26.381,forced_choiceRT,2021.1.2,Win32,59.95922773,,,,,,,,3,Slow,f,1,2.2017,8,0,32,0,1,,,,,
,0.66,,,,,,,,,h.PNG,h,60fd939463ee2094a0ad7082,2021-09-08_20h54.26.381,forced_choiceRT,2021.1.2,Win32,59.95922773,,,,,,,,3,Fast,h,1,1.8234,8,1,33,2,1,,,,,
,0.14,,,,,,,,,g.PNG,g,60fd939463ee2094a0ad7082,2021-09-08_20h54.26.381,forced_choiceRT,2021.1.2,Win32,59.95922773,,,,,,,,3,Fast,g,1,1.7691,8,2,34,1,1,,,,,
,1.25,,,,,,,,,j.PNG,j,60fd939463ee2094a0ad7082,2021-09-08_20h54.26.381,forced_choiceRT,2021.1.2,Win32,59.95922773,,,,,,,,3,Ontime,j,1,1.9512,8,3,35,3,1,,,,,
,0.99,,,,,,,,,h.PNG,h,60fd939463ee2094a0ad7082,2021-09-08_20h54.26.381,forced_choiceRT,2021.1.2,Win32,59.95922773,,,,,,,,3,Fast,h,1,1.8705,9,0,36,2,1,,,,,
,0.27,,,,,,,,,g.PNG,g,60fd939463ee2094a0ad7082,2021-09-08_20h54.26.381,forced_choiceRT,2021.1.2,Win32,59.95922773,,,,,,,,3,Fast,g,1,1.8026,9,1,37,1,1,,,,,
,0.78,,,,,,,,,f.PNG,f,60fd939463ee2094a0ad7082,2021-09-08_20h54.26.381,forced_choiceRT,2021.1.2,Win32,59.95922773,,,,,,,,3,Ontime,f,1,1.9873,9,2,38,0,1,,,,,
,0.85,,,,,,,,,j.PNG,j,60fd939463ee2094a0ad7082,2021-09-08_20h54.26.381,forced_choiceRT,2021.1.2,Win32,59.95922773,,,,,,,,3,Fast,j,1,1.8691,9,3,39,3,1,,,,,
,,,,,,,,,,,,60fd939463ee2094a0ad7082,2021-09-08_20h54.26.381,forced_choiceRT,2021.1.2,Win32,59.95922773,,,,,,,,,,,,,,,,,,2,0,2,0,1
,1.91,,,,,,,,,h.PNG,h,60fd939463ee2094a0ad7082,2021-09-08_20h54.26.381,forced_choiceRT,2021.1.2,Win32,59.95922773,,,,,,,,4,Slow,j,0,2.3061,0,0,0,2,1,,,,,
,0.4,,,,,,,,,h.PNG,h,60fd939463ee2094a0ad7082,2021-09-08_20h54.26.381,forced_choiceRT,2021.1.2,Win32,59.95922773,,,,,,,,4,Fast,h,1,1.854,0,1,1,2,1,,,,,
,0,,,,,,,,,f.PNG,f,60fd939463ee2094a0ad7082,2021-09-08_20h54.26.381,forced_choiceRT,2021.1.2,Win32,59.95922773,,,,,,,,4,Fast,f,1,1.7532,0,2,2,0,1,,,,,
,1.49,,,,,,,,,f.PNG,f,60fd939463ee2094a0ad7082,2021-09-08_20h54.26.381,forced_choiceRT,2021.1.2,Win32,59.95922773,,,,,,,,4,Fast,h,0,1.7658,0,3,3,0,1,,,,,
,1.71,,,,,,,,,f.PNG,f,60fd939463ee2094a0ad7082,2021-09-08_20h54.26.381,forced_choiceRT,2021.1.2,Win32,59.95922773,,,,,,,,4,Ontime,f,1,1.933,1,0,4,0,1,,,,,
,0.58,,,,,,,,,j.PNG,j,60fd939463ee2094a0ad7082,2021-09-08_20h54.26.381,forced_choiceRT,2021.1.2,Win32,59.95922773,,,,,,,,4,Ontime,j,1,1.9312,1,1,5,3,1,,,,,
,1.12,,,,,,,,,f.PNG,f,60fd939463ee2094a0ad7082,2021-09-08_20h54.26.381,forced_choiceRT,2021.1.2,Win32,59.95922773,,,,,,,,4,Ontime,f,1,1.9654,1,2,6,0,1,,,,,
,0.93,,,,,,,,,g.PNG,g,60fd939463ee2094a0ad7082,2021-09-08_20h54.26.381,forced_choiceRT,2021.1.2,Win32,59.95922773,,,,,,,,4,Fast,g,1,1.8588,1,3,7,1,1,,,,,
,0.58,,,,,,,,,h.PNG,h,60fd939463ee2094a0ad7082,2021-09-08_20h54.26.381,forced_choiceRT,2021.1.2,Win32,59.95922773,,,,,,,,4,Ontime,h,1,1.9056,2,0,8,2,1,,,,,
,1.75,,,,,,,,,g.PNG,g,60fd939463ee2094a0ad7082,2021-09-08_20h54.26.381,forced_choiceRT,2021.1.2,Win32,59.95922773,,,,,,,,4,Ontime,h,0,1.9255,2,1,9,1,1,,,,,
,1.89,,,,,,,,,f.PNG,f,60fd939463ee2094a0ad7082,2021-09-08_20h54.26.381,forced_choiceRT,2021.1.2,Win32,59.95922773,,,,,,,,4,Slow,g,0,2.1476,2,2,10,0,1,,,,,
,0.2,,,,,,,,,j.PNG,j,60fd939463ee2094a0ad7082,2021-09-08_20h54.26.381,forced_choiceRT,2021.1.2,Win32,59.95922773,,,,,,,,4,Ontime,j,1,1.9713,2,3,11,3,1,,,,,
,1.03,,,,,,,,,h.PNG,h,60fd939463ee2094a0ad7082,2021-09-08_20h54.26.381,forced_choiceRT,2021.1.2,Win32,59.95922773,,,,,,,,4,Ontime,h,1,2.0158,3,0,12,2,1,,,,,
,0.73,,,,,,,,,j.PNG,j,60fd939463ee2094a0ad7082,2021-09-08_20h54.26.381,forced_choiceRT,2021.1.2,Win32,59.95922773,,,,,,,,4,Ontime,j,1,1.9482,3,1,13,3,1,,,,,
,1.48,,,,,,,,,h.PNG,h,60fd939463ee2094a0ad7082,2021-09-08_20h54.26.381,forced_choiceRT,2021.1.2,Win32,59.95922773,,,,,,,,4,Ontime,h,1,2.016,3,2,14,2,1,,,,,
,1.61,,,,,,,,,h.PNG,h,60fd939463ee2094a0ad7082,2021-09-08_20h54.26.381,forced_choiceRT,2021.1.2,Win32,59.95922773,,,,,,,,4,Ontime,f,0,1.9371,3,3,15,2,1,,,,,
,1.7,,,,,,,,,g.PNG,g,60fd939463ee2094a0ad7082,2021-09-08_20h54.26.381,forced_choiceRT,2021.1.2,Win32,59.95922773,,,,,,,,4,Slow,g,1,2.1342,4,0,16,1,1,,,,,
,1.55,,,,,,,,,j.PNG,j,60fd939463ee2094a0ad7082,2021-09-08_20h54.26.381,forced_choiceRT,2021.1.2,Win32,59.95922773,,,,,,,,4,Fast,f,0,1.8492,4,1,17,3,1,,,,,
,1.93,,,,,,,,,g.PNG,g,60fd939463ee2094a0ad7082,2021-09-08_20h54.26.381,forced_choiceRT,2021.1.2,Win32,59.95922773,,,,,,,,4,Slow,g,1,3.2367,4,2,18,1,1,,,,,
,0.92,,,,,,,,,g.PNG,g,60fd939463ee2094a0ad7082,2021-09-08_20h54.26.381,forced_choiceRT,2021.1.2,Win32,59.95922773,,,,,,,,4,Ontime,g,1,2.002,4,3,19,1,1,,,,,
,0.7,,,,,,,,,f.PNG,f,60fd939463ee2094a0ad7082,2021-09-08_20h54.26.381,forced_choiceRT,2021.1.2,Win32,59.95922773,,,,,,,,4,Slow,f,1,2.107,5,0,20,0,1,,,,,
,0.59,,,,,,,,,g.PNG,g,60fd939463ee2094a0ad7082,2021-09-08_20h54.26.381,forced_choiceRT,2021.1.2,Win32,59.95922773,,,,,,,,4,Slow,g,1,2.1164,5,1,21,1,1,,,,,
,1.21,,,,,,,,,j.PNG,j,60fd939463ee2094a0ad7082,2021-09-08_20h54.26.381,forced_choiceRT,2021.1.2,Win32,59.95922773,,,,,,,,4,Ontime,j,1,1.9893,5,2,22,3,1,,,,,
,0.65,,,,,,,,,j.PNG,j,60fd939463ee2094a0ad7082,2021-09-08_20h54.26.381,forced_choiceRT,2021.1.2,Win32,59.95922773,,,,,,,,4,Ontime,j,1,1.9313,5,3,23,3,1,,,,,
,1.52,,,,,,,,,h.PNG,h,60fd939463ee2094a0ad7082,2021-09-08_20h54.26.381,forced_choiceRT,2021.1.2,Win32,59.95922773,,,,,,,,4,Fast,h,1,1.854,6,0,24,2,1,,,,,
,1.31,,,,,,,,,h.PNG,h,60fd939463ee2094a0ad7082,2021-09-08_20h54.26.381,forced_choiceRT,2021.1.2,Win32,59.95922773,,,,,,,,4,Ontime,h,1,1.9324,6,1,25,2,1,,,,,
,1.03,,,,,,,,,g.PNG,g,60fd939463ee2094a0ad7082,2021-09-08_20h54.26.381,forced_choiceRT,2021.1.2,Win32,59.95922773,,,,,,,,4,Fast,g,1,1.8324,6,2,26,1,1,,,,,
,1.92,,,,,,,,,g.PNG,g,60fd939463ee2094a0ad7082,2021-09-08_20h54.26.381,forced_choiceRT,2021.1.2,Win32,59.95922773,,,,,,,,4,Ontime,g,1,2.0625,6,3,27,1,1,,,,,
,1.79,,,,,,,,,j.PNG,j,60fd939463ee2094a0ad7082,2021-09-08_20h54.26.381,forced_choiceRT,2021.1.2,Win32,59.95922773,,,,,,,,4,Ontime,f,0,2.0474,7,0,28,3,1,,,,,
,0.1,,,,,,,,,g.PNG,g,60fd939463ee2094a0ad7082,2021-09-08_20h54.26.381,forced_choiceRT,2021.1.2,Win32,59.95922773,,,,,,,,4,Ontime,g,1,1.9819,7,1,29,1,1,,,,,
,0.69,,,,,,,,,g.PNG,g,60fd939463ee2094a0ad7082,2021-09-08_20h54.26.381,forced_choiceRT,2021.1.2,Win32,59.95922773,,,,,,,,4,Ontime,g,1,1.9812,7,2,30,1,1,,,,,
,0.2,,,,,,,,,f.PNG,f,60fd939463ee2094a0ad7082,2021-09-08_20h54.26.381,forced_choiceRT,2021.1.2,Win32,59.95922773,,,,,,,,4,Ontime,f,1,1.9483,7,3,31,0,1,,,,,
,0.08,,,,,,,,,h.PNG,h,60fd939463ee2094a0ad7082,2021-09-08_20h54.26.381,forced_choiceRT,2021.1.2,Win32,59.95922773,,,,,,,,4,Fast,h,1,1.8887,8,0,32,2,1,,,,,
,0.47,,,,,,,,,f.PNG,f,60fd939463ee2094a0ad7082,2021-09-08_20h54.26.381,forced_choiceRT,2021.1.2,Win32,59.95922773,,,,,,,,4,Ontime,f,1,1.9733,8,1,33,0,1,,,,,
,0.41,,,,,,,,,j.PNG,j,60fd939463ee2094a0ad7082,2021-09-08_20h54.26.381,forced_choiceRT,2021.1.2,Win32,59.95922773,,,,,,,,4,Ontime,j,1,1.9037,8,2,34,3,1,,,,,
,1.75,,,,,,,,,h.PNG,h,60fd939463ee2094a0ad7082,2021-09-08_20h54.26.381,forced_choiceRT,2021.1.2,Win32,59.95922773,,,,,,,,4,Slow,g,0,2.1583,8,3,35,2,1,,,,,
,1.9,,,,,,,,,j.PNG,j,60fd939463ee2094a0ad7082,2021-09-08_20h54.26.381,forced_choiceRT,2021.1.2,Win32,59.95922773,,,,,,,,4,Slow,h,0,3.7195,9,0,36,3,1,,,,,
,1.11,,,,,,,,,f.PNG,f,60fd939463ee2094a0ad7082,2021-09-08_20h54.26.381,forced_choiceRT,2021.1.2,Win32,59.95922773,,,,,,,,4,Fast,j,0,1.3982,9,1,37,0,1,,,,,
,1.18,,,,,,,,,f.PNG,f,60fd939463ee2094a0ad7082,2021-09-08_20h54.26.381,forced_choiceRT,2021.1.2,Win32,59.95922773,,,,,,,,4,Fast,f,1,1.6006,9,2,38,0,1,,,,,
,1.09,,,,,,,,,j.PNG,j,60fd939463ee2094a0ad7082,2021-09-08_20h54.26.381,forced_choiceRT,2021.1.2,Win32,59.95922773,,,,,,,,4,Fast,j,1,1.8666,9,3,39,3,1,,,,,
,,,,,,,,,,,,60fd939463ee2094a0ad7082,2021-09-08_20h54.26.381,forced_choiceRT,2021.1.2,Win32,59.95922773,,,,,,,,,,,,,,,,,,3,0,3,0,1
,1.38,,,,,,,,,g.PNG,g,60fd939463ee2094a0ad7082,2021-09-08_20h54.26.381,forced_choiceRT,2021.1.2,Win32,59.95922773,,,,,,,,5,Fast,f,0,1.6806,0,0,0,1,1,,,,,
,0.39,,,,,,,,,j.PNG,j,60fd939463ee2094a0ad7082,2021-09-08_20h54.26.381,forced_choiceRT,2021.1.2,Win32,59.95922773,,,,,,,,5,Ontime,j,1,1.9371,0,1,1,3,1,,,,,
,1.32,,,,,,,,,f.PNG,f,60fd939463ee2094a0ad7082,2021-09-08_20h54.26.381,forced_choiceRT,2021.1.2,Win32,59.95922773,,,,,,,,5,Ontime,f,1,2.0244,0,2,2,0,1,,,,,
,0.09,,,,,,,,,f.PNG,f,60fd939463ee2094a0ad7082,2021-09-08_20h54.26.381,forced_choiceRT,2021.1.2,Win32,59.95922773,,,,,,,,5,Ontime,f,1,1.9042,0,3,3,0,1,,,,,
,0.9,,,,,,,,,g.PNG,g,60fd939463ee2094a0ad7082,2021-09-08_20h54.26.381,forced_choiceRT,2021.1.2,Win32,59.95922773,,,,,,,,5,Fast,g,1,1.8984,1,0,4,1,1,,,,,
,0.66,,,,,,,,,j.PNG,j,60fd939463ee2094a0ad7082,2021-09-08_20h54.26.381,forced_choiceRT,2021.1.2,Win32,59.95922773,,,,,,,,5,Ontime,j,1,1.9541,1,1,5,3,1,,,,,
,1.75,,,,,,,,,j.PNG,j,60fd939463ee2094a0ad7082,2021-09-08_20h54.26.381,forced_choiceRT,2021.1.2,Win32,59.95922773,,,,,,,,5,Ontime,j,1,1.9966,1,2,6,3,1,,,,,
,1.56,,,,,,,,,h.PNG,h,60fd939463ee2094a0ad7082,2021-09-08_20h54.26.381,forced_choiceRT,2021.1.2,Win32,59.95922773,,,,,,,,5,Fast,h,1,1.8405,1,3,7,2,1,,,,,
,1.04,,,,,,,,,g.PNG,g,60fd939463ee2094a0ad7082,2021-09-08_20h54.26.381,forced_choiceRT,2021.1.2,Win32,59.95922773,,,,,,,,5,Ontime,g,1,1.963,2,0,8,1,1,,,,,
,0.83,,,,,,,,,g.PNG,g,60fd939463ee2094a0ad7082,2021-09-08_20h54.26.381,forced_choiceRT,2021.1.2,Win32,59.95922773,,,,,,,,5,Ontime,g,1,1.9733,2,1,9,1,1,,,,,
,0.23,,,,,,,,,j.PNG,j,60fd939463ee2094a0ad7082,2021-09-08_20h54.26.381,forced_choiceRT,2021.1.2,Win32,59.95922773,,,,,,,,5,Fast,j,1,1.7516,2,2,10,3,1,,,,,
,0.92,,,,,,,,,h.PNG,h,60fd939463ee2094a0ad7082,2021-09-08_20h54.26.381,forced_choiceRT,2021.1.2,Win32,59.95922773,,,,,,,,5,Ontime,h,1,2.0329,2,3,11,2,1,,,,,
,1.43,,,,,,,,,f.PNG,f,60fd939463ee2094a0ad7082,2021-09-08_20h54.26.381,forced_choiceRT,2021.1.2,Win32,59.95922773,,,,,,,,5,Slow,f,1,2.1585,3,0,12,0,1,,,,,
,0.16,,,,,,,,,h.PNG,h,60fd939463ee2094a0ad7082,2021-09-08_20h54.26.381,forced_choiceRT,2021.1.2,Win32,59.95922773,,,,,,,,5,Fast,h,1,1.2527,3,1,13,2,1,,,,,
,1.81,,,,,,,,,f.PNG,f,60fd939463ee2094a0ad7082,2021-09-08_20h54.26.381,forced_choiceRT,2021.1.2,Win32,59.95922773,,,,,,,,5,Ontime,h,0,1.9997,3,2,14,0,1,,,,,
,0.08,,,,,,,,,j.PNG,j,60fd939463ee2094a0ad7082,2021-09-08_20h54.26.381,forced_choiceRT,2021.1.2,Win32,59.95922773,,,,,,,,5,Fast,j,1,1.8881,3,3,15,3,1,,,,,
,0.01,,,,,,,,,f.PNG,f,60fd939463ee2094a0ad7082,2021-09-08_20h54.26.381,forced_choiceRT,2021.1.2,Win32,59.95922773,,,,,,,,5,Ontime,f,1,2.0221,4,0,16,0,1,,,,,
,1.3,,,,,,,,,g.PNG,g,60fd939463ee2094a0ad7082,2021-09-08_20h54.26.381,forced_choiceRT,2021.1.2,Win32,59.95922773,,,,,,,,5,Slow,g,1,2.1653,4,1,17,1,1,,,,,
,0.19,,,,,,,,,h.PNG,h,60fd939463ee2094a0ad7082,2021-09-08_20h54.26.381,forced_choiceRT,2021.1.2,Win32,59.95922773,,,,,,,,5,Ontime,h,1,1.9402,4,2,18,2,1,,,,,
,1.63,,,,,,,,,h.PNG,h,60fd939463ee2094a0ad7082,2021-09-08_20h54.26.381,forced_choiceRT,2021.1.2,Win32,59.95922773,,,,,,,,5,Slow,h,1,2.2894,4,3,19,2,1,,,,,
,0.76,,,,,,,,,g.PNG,g,60fd939463ee2094a0ad7082,2021-09-08_20h54.26.381,forced_choiceRT,2021.1.2,Win32,59.95922773,,,,,,,,5,Ontime,g,1,1.9147,5,0,20,1,1,,,,,
,1.78,,,,,,,,,j.PNG,j,60fd939463ee2094a0ad7082,2021-09-08_20h54.26.381,forced_choiceRT,2021.1.2,Win32,59.95922773,,,,,,,,5,Ontime,g,0,1.9574,5,1,21,3,1,,,,,
,1.67,,,,,,,,,h.PNG,h,60fd939463ee2094a0ad7082,2021-09-08_20h54.26.381,forced_choiceRT,2021.1.2,Win32,59.95922773,,,,,,,,5,Fast,j,0,1.8788,5,2,22,2,1,,,,,
,1.2,,,,,,,,,f.PNG,f,60fd939463ee2094a0ad7082,2021-09-08_20h54.26.381,forced_choiceRT,2021.1.2,Win32,59.95922773,,,,,,,,5,Ontime,f,1,1.9508,5,3,23,0,1,,,,,
,1.5,,,,,,,,,f.PNG,f,60fd939463ee2094a0ad7082,2021-09-08_20h54.26.381,forced_choiceRT,2021.1.2,Win32,59.95922773,,,,,,,,5,Fast,g,0,1.8157,6,0,24,0,1,,,,,
,0.07,,,,,,,,,j.PNG,j,60fd939463ee2094a0ad7082,2021-09-08_20h54.26.381,forced_choiceRT,2021.1.2,Win32,59.95922773,,,,,,,,5,Ontime,j,1,1.9658,6,1,25,3,1,,,,,
,1.83,,,,,,,,,j.PNG,j,60fd939463ee2094a0ad7082,2021-09-08_20h54.26.381,forced_choiceRT,2021.1.2,Win32,59.95922773,,,,,,,,5,Ontime,h,0,2.0864,6,2,26,3,1,,,,,
,1.6,,,,,,,,,g.PNG,g,60fd939463ee2094a0ad7082,2021-09-08_20h54.26.381,forced_choiceRT,2021.1.2,Win32,59.95922773,,,,,,,,5,Slow,g,1,2.281,6,3,27,1,1,,,,,
,1.56,,,,,,,,,f.PNG,f,60fd939463ee2094a0ad7082,2021-09-08_20h54.26.381,forced_choiceRT,2021.1.2,Win32,59.95922773,,,,,,,,5,Slow,f,1,2.2571,7,0,28,0,1,,,,,
,0.99,,,,,,,,,g.PNG,g,60fd939463ee2094a0ad7082,2021-09-08_20h54.26.381,forced_choiceRT,2021.1.2,Win32,59.95922773,,,,,,,,5,Fast,g,1,1.8453,7,1,29,1,1,,,,,
,0.81,,,,,,,,,h.PNG,h,60fd939463ee2094a0ad7082,2021-09-08_20h54.26.381,forced_choiceRT,2021.1.2,Win32,59.95922773,,,,,,,,5,Ontime,h,1,1.9647,7,2,30,2,1,,,,,
,0.74,,,,,,,,,h.PNG,h,60fd939463ee2094a0ad7082,2021-09-08_20h54.26.381,forced_choiceRT,2021.1.2,Win32,59.95922773,,,,,,,,5,Ontime,h,1,2.0147,7,3,31,2,1,,,,,
,1.29,,,,,,,,,g.PNG,g,60fd939463ee2094a0ad7082,2021-09-08_20h54.26.381,forced_choiceRT,2021.1.2,Win32,59.95922773,,,,,,,,5,Slow,g,1,2.1006,8,0,32,1,1,,,,,
,0.6,,,,,,,,,h.PNG,h,60fd939463ee2094a0ad7082,2021-09-08_20h54.26.381,forced_choiceRT,2021.1.2,Win32,59.95922773,,,,,,,,5,Ontime,h,1,1.9155,8,1,33,2,1,,,,,
,0.53,,,,,,,,,h.PNG,h,60fd939463ee2094a0ad7082,2021-09-08_20h54.26.381,forced_choiceRT,2021.1.2,Win32,59.95922773,,,,,,,,5,Fast,h,1,1.7149,8,2,34,2,1,,,,,
,1.28,,,,,,,,,j.PNG,j,60fd939463ee2094a0ad7082,2021-09-08_20h54.26.381,forced_choiceRT,2021.1.2,Win32,59.95922773,,,,,,,,5,Ontime,j,1,2.0413,8,3,35,3,1,,,,,
,1.31,,,,,,,,,j.PNG,j,60fd939463ee2094a0ad7082,2021-09-08_20h54.26.381,forced_choiceRT,2021.1.2,Win32,59.95922773,,,,,,,,5,Ontime,j,1,1.9896,9,0,36,3,1,,,,,
,1.43,,,,,,,,,f.PNG,f,60fd939463ee2094a0ad7082,2021-09-08_20h54.26.381,forced_choiceRT,2021.1.2,Win32,59.95922773,,,,,,,,5,Slow,f,1,2.2185,9,1,37,0,1,,,,,
,0.49,,,,,,,,,g.PNG,g,60fd939463ee2094a0ad7082,2021-09-08_20h54.26.381,forced_choiceRT,2021.1.2,Win32,59.95922773,,,,,,,,5,Ontime,g,1,1.9317,9,2,38,1,1,,,,,
,0.43,,,,,,,,,f.PNG,f,60fd939463ee2094a0ad7082,2021-09-08_20h54.26.381,forced_choiceRT,2021.1.2,Win32,59.95922773,,,,,,,,5,Ontime,f,1,1.9401,9,3,39,0,1,,,,,
,,,,,,,,,,,,60fd939463ee2094a0ad7082,2021-09-08_20h54.26.381,forced_choiceRT,2021.1.2,Win32,59.95922773,,,,,,,,,,,,,,,,,,4,0,4,0,1
,0.47,,,,,,,,,f.PNG,f,60fd939463ee2094a0ad7082,2021-09-08_20h54.26.381,forced_choiceRT,2021.1.2,Win32,59.95922773,,,,,,,,6,Fast,g,0,1.7358,0,0,0,0,1,,,,,
,0.44,,,,,,,,,h.PNG,h,60fd939463ee2094a0ad7082,2021-09-08_20h54.26.381,forced_choiceRT,2021.1.2,Win32,59.95922773,,,,,,,,6,Ontime,h,1,1.9528,0,1,1,2,1,,,,,
,1.14,,,,,,,,,f.PNG,f,60fd939463ee2094a0ad7082,2021-09-08_20h54.26.381,forced_choiceRT,2021.1.2,Win32,59.95922773,,,,,,,,6,Slow,f,1,2.1395,0,2,2,0,1,,,,,
,0.19,,,,,,,,,j.PNG,j,60fd939463ee2094a0ad7082,2021-09-08_20h54.26.381,forced_choiceRT,2021.1.2,Win32,59.95922773,,,,,,,,6,Ontime,h,0,1.9846,0,3,3,3,1,,,,,
,0.36,,,,,,,,,h.PNG,h,60fd939463ee2094a0ad7082,2021-09-08_20h54.26.381,forced_choiceRT,2021.1.2,Win32,59.95922773,,,,,,,,6,Ontime,h,1,1.9159,1,0,4,2,1,,,,,
,0.75,,,,,,,,,f.PNG,f,60fd939463ee2094a0ad7082,2021-09-08_20h54.26.381,forced_choiceRT,2021.1.2,Win32,59.95922773,,,,,,,,6,Ontime,f,1,1.9005,1,1,5,0,1,,,,,
,1.91,,,,,,,,,f.PNG,f,60fd939463ee2094a0ad7082,2021-09-08_20h54.26.381,forced_choiceRT,2021.1.2,Win32,59.95922773,,,,,,,,6,Ontime,f,1,2.0379,1,2,6,0,1,,,,,
,0.36,,,,,,,,,f.PNG,f,60fd939463ee2094a0ad7082,2021-09-08_20h54.26.381,forced_choiceRT,2021.1.2,Win32,59.95922773,,,,,,,,6,Fast,f,1,1.7302,1,3,7,0,1,,,,,
,1.05,,,,,,,,,j.PNG,j,60fd939463ee2094a0ad7082,2021-09-08_20h54.26.381,forced_choiceRT,2021.1.2,Win32,59.95922773,,,,,,,,6,Ontime,j,1,1.9028,2,0,8,3,1,,,,,
,1.6,,,,,,,,,g.PNG,g,60fd939463ee2094a0ad7082,2021-09-08_20h54.26.381,forced_choiceRT,2021.1.2,Win32,59.95922773,,,,,,,,6,Ontime,j,0,1.9506,2,1,9,1,1,,,,,
,1.87,,,,,,,,,j.PNG,j,60fd939463ee2094a0ad7082,2021-09-08_20h54.26.381,forced_choiceRT,2021.1.2,Win32,59.95922773,,,,,,,,6,Ontime,f,0,1.9526,2,2,10,3,1,,,,,
,0.04,,,,,,,,,g.PNG,g,60fd939463ee2094a0ad7082,2021-09-08_20h54.26.381,forced_choiceRT,2021.1.2,Win32,59.95922773,,,,,,,,6,Fast,g,1,1.8718,2,3,11,1,1,,,,,
,0.66,,,,,,,,,h.PNG,h,60fd939463ee2094a0ad7082,2021-09-08_20h54.26.381,forced_choiceRT,2021.1.2,Win32,59.95922773,,,,,,,,6,Ontime,h,1,1.9055,3,0,12,2,1,,,,,
,1.38,,,,,,,,,j.PNG,j,60fd939463ee2094a0ad7082,2021-09-08_20h54.26.381,forced_choiceRT,2021.1.2,Win32,59.95922773,,,,,,,,6,Slow,h,0,2.1065,3,1,13,3,1,,,,,
,1.3,,,,,,,,,h.PNG,h,60fd939463ee2094a0ad7082,2021-09-08_20h54.26.381,forced_choiceRT,2021.1.2,Win32,59.95922773,,,,,,,,6,Slow,h,1,2.1264,3,2,14,2,1,,,,,
,0.42,,,,,,,,,h.PNG,h,60fd939463ee2094a0ad7082,2021-09-08_20h54.26.381,forced_choiceRT,2021.1.2,Win32,59.95922773,,,,,,,,6,Fast,h,1,1.865,3,3,15,2,1,,,,,
,1.44,,,,,,,,,h.PNG,h,60fd939463ee2094a0ad7082,2021-09-08_20h54.26.381,forced_choiceRT,2021.1.2,Win32,59.95922773,,,,,,,,6,Ontime,h,1,2.0983,4,0,16,2,1,,,,,
,1.64,,,,,,,,,j.PNG,j,60fd939463ee2094a0ad7082,2021-09-08_20h54.26.381,forced_choiceRT,2021.1.2,Win32,59.95922773,,,,,,,,6,Ontime,j,1,2.0025,4,1,17,3,1,,,,,
,0.19,,,,,,,,,g.PNG,g,60fd939463ee2094a0ad7082,2021-09-08_20h54.26.381,forced_choiceRT,2021.1.2,Win32,59.95922773,,,,,,,,6,Ontime,g,1,1.9241,4,2,18,1,1,,,,,
,0.17,,,,,,,,,g.PNG,g,60fd939463ee2094a0ad7082,2021-09-08_20h54.26.381,forced_choiceRT,2021.1.2,Win32,59.95922773,,,,,,,,6,Fast,g,1,1.8489,4,3,19,1,1,,,,,
,1.16,,,,,,,,,g.PNG,g,60fd939463ee2094a0ad7082,2021-09-08_20h54.26.381,forced_choiceRT,2021.1.2,Win32,59.95922773,,,,,,,,6,Ontime,g,1,1.9702,5,0,20,1,1,,,,,
,1.19,,,,,,,,,h.PNG,h,60fd939463ee2094a0ad7082,2021-09-08_20h54.26.381,forced_choiceRT,2021.1.2,Win32,59.95922773,,,,,,,,6,Ontime,h,1,2.0344,5,1,21,2,1,,,,,
,1.71,,,,,,,,,h.PNG,h,60fd939463ee2094a0ad7082,2021-09-08_20h54.26.381,forced_choiceRT,2021.1.2,Win32,59.95922773,,,,,,,,6,Slow,h,1,2.2813,5,2,22,2,1,,,,,
,0.78,,,,,,,,,h.PNG,h,60fd939463ee2094a0ad7082,2021-09-08_20h54.26.381,forced_choiceRT,2021.1.2,Win32,59.95922773,,,,,,,,6,Ontime,h,1,1.9188,5,3,23,2,1,,,,,
,1.98,,,,,,,,,g.PNG,g,60fd939463ee2094a0ad7082,2021-09-08_20h54.26.381,forced_choiceRT,2021.1.2,Win32,59.95922773,,,,,,,,6,Fast,h,0,1.8843,6,0,24,1,1,,,,,
,0.1,,,,,,,,,f.PNG,f,60fd939463ee2094a0ad7082,2021-09-08_20h54.26.381,forced_choiceRT,2021.1.2,Win32,59.95922773,,,,,,,,6,Ontime,f,1,1.9162,6,1,25,0,1,,,,,
,0.27,,,,,,,,,g.PNG,g,60fd939463ee2094a0ad7082,2021-09-08_20h54.26.381,forced_choiceRT,2021.1.2,Win32,59.95922773,,,,,,,,6,Fast,g,1,1.849,6,2,26,1,1,,,,,
,1.51,,,,,,,,,f.PNG,f,60fd939463ee2094a0ad7082,2021-09-08_20h54.26.381,forced_choiceRT,2021.1.2,Win32,59.95922773,,,,,,,,6,Ontime,g,0,1.9656,6,3,27,0,1,,,,,
,1.88,,,,,,,,,g.PNG,g,60fd939463ee2094a0ad7082,2021-09-08_20h54.26.381,forced_choiceRT,2021.1.2,Win32,59.95922773,,,,,,,,6,Ontime,g,1,2.0741,7,0,28,1,1,,,,,
,1.53,,,,,,,,,j.PNG,j,60fd939463ee2094a0ad7082,2021-09-08_20h54.26.381,forced_choiceRT,2021.1.2,Win32,59.95922773,,,,,,,,6,Slow,j,1,2.2578,7,1,29,3,1,,,,,
,0.82,,,,,,,,,j.PNG,j,60fd939463ee2094a0ad7082,2021-09-08_20h54.26.381,forced_choiceRT,2021.1.2,Win32,59.95922773,,,,,,,,6,Fast,j,1,1.8676,7,2,30,3,1,,,,,
,0.55,,,,,,,,,g.PNG,g,60fd939463ee2094a0ad7082,2021-09-08_20h54.26.381,forced_choiceRT,2021.1.2,Win32,59.95922773,,,,,,,,6,Fast,g,1,1.823,7,3,31,1,1,,,,,
,0.42,,,,,,,,,f.PNG,f,60fd939463ee2094a0ad7082,2021-09-08_20h54.26.381,forced_choiceRT,2021.1.2,Win32,59.95922773,,,,,,,,6,Fast,f,1,1.8816,8,0,32,0,1,,,,,
,0.44,,,,,,,,,f.PNG,f,60fd939463ee2094a0ad7082,2021-09-08_20h54.26.381,forced_choiceRT,2021.1.2,Win32,59.95922773,,,,,,,,6,Fast,f,1,1.7833,8,1,33,0,1,,,,,
,0.72,,,,,,,,,j.PNG,j,60fd939463ee2094a0ad7082,2021-09-08_20h54.26.381,forced_choiceRT,2021.1.2,Win32,59.95922773,,,,,,,,6,Ontime,j,1,1.9174,8,2,34,3,1,,,,,
,0.42,,,,,,,,,f.PNG,f,60fd939463ee2094a0ad7082,2021-09-08_20h54.26.381,forced_choiceRT,2021.1.2,Win32,59.95922773,,,,,,,,6,Ontime,f,1,1.9256,8,3,35,0,1,,,,,
,1.65,,,,,,,,,j.PNG,j,60fd939463ee2094a0ad7082,2021-09-08_20h54.26.381,forced_choiceRT,2021.1.2,Win32,59.95922773,,,,,,,,6,Slow,j,1,2.2147,9,0,36,3,1,,,,,
,1.77,,,,,,,,,g.PNG,g,60fd939463ee2094a0ad7082,2021-09-08_20h54.26.381,forced_choiceRT,2021.1.2,Win32,59.95922773,,,,,,,,6,Ontime,j,0,2.0988,9,1,37,1,1,,,,,
,1.29,,,,,,,,,h.PNG,h,60fd939463ee2094a0ad7082,2021-09-08_20h54.26.381,forced_choiceRT,2021.1.2,Win32,59.95922773,,,,,,,,6,Ontime,h,1,2.0176,9,2,38,2,1,,,,,
,0.05,,,,,,,,,j.PNG,j,60fd939463ee2094a0ad7082,2021-09-08_20h54.26.381,forced_choiceRT,2021.1.2,Win32,59.95922773,,,,,,,,6,Fast,j,1,1.7702,9,3,39,3,1,,,,,
,,,,,,,,,,,,60fd939463ee2094a0ad7082,2021-09-08_20h54.26.381,forced_choiceRT,2021.1.2,Win32,59.95922773,,,,,,,,,,,,,,,,,,5,0,5,0,1
,1.82,,,,,,,,,f.PNG,f,60fd939463ee2094a0ad7082,2021-09-08_20h54.26.381,forced_choiceRT,2021.1.2,Win32,59.95922773,,,,,,,,7,Ontime,f,1,2.0589,0,0,0,0,1,,,,,
,1.54,,,,,,,,,f.PNG,f,60fd939463ee2094a0ad7082,2021-09-08_20h54.26.381,forced_choiceRT,2021.1.2,Win32,59.95922773,,,,,,,,7,Ontime,g,0,1.9593,0,1,1,0,1,,,,,
,0.56,,,,,,,,,g.PNG,g,60fd939463ee2094a0ad7082,2021-09-08_20h54.26.381,forced_choiceRT,2021.1.2,Win32,59.95922773,,,,,,,,7,Ontime,g,1,1.9882,0,2,2,1,1,,,,,
,1.15,,,,,,,,,f.PNG,f,60fd939463ee2094a0ad7082,2021-09-08_20h54.26.381,forced_choiceRT,2021.1.2,Win32,59.95922773,,,,,,,,7,Fast,f,1,1.8888,0,3,3,0,1,,,,,
,1.3,,,,,,,,,h.PNG,h,60fd939463ee2094a0ad7082,2021-09-08_20h54.26.381,forced_choiceRT,2021.1.2,Win32,59.95922773,,,,,,,,7,Fast,h,1,1.8874,1,0,4,2,1,,,,,
,0.3,,,,,,,,,g.PNG,g,60fd939463ee2094a0ad7082,2021-09-08_20h54.26.381,forced_choiceRT,2021.1.2,Win32,59.95922773,,,,,,,,7,Fast,g,1,1.8488,1,1,5,1,1,,,,,
,1.45,,,,,,,,,j.PNG,j,60fd939463ee2094a0ad7082,2021-09-08_20h54.26.381,forced_choiceRT,2021.1.2,Win32,59.95922773,,,,,,,,7,Ontime,h,0,1.9825,1,2,6,3,1,,,,,
,1.47,,,,,,,,,j.PNG,j,60fd939463ee2094a0ad7082,2021-09-08_20h54.26.381,forced_choiceRT,2021.1.2,Win32,59.95922773,,,,,,,,7,Ontime,h,0,2.0164,1,3,7,3,1,,,,,
,1.93,,,,,,,,,j.PNG,j,60fd939463ee2094a0ad7082,2021-09-08_20h54.26.381,forced_choiceRT,2021.1.2,Win32,59.95922773,,,,,,,,7,Slow,h,0,2.214,2,0,8,3,1,,,,,
,1.1,,,,,,,,,g.PNG,g,60fd939463ee2094a0ad7082,2021-09-08_20h54.26.381,forced_choiceRT,2021.1.2,Win32,59.95922773,,,,,,,,7,Fast,g,1,1.8152,2,1,9,1,1,,,,,
,1.78,,,,,,,,,h.PNG,h,60fd939463ee2094a0ad7082,2021-09-08_20h54.26.381,forced_choiceRT,2021.1.2,Win32,59.95922773,,,,,,,,7,Slow,h,1,2.4677,2,2,10,2,1,,,,,
,0.94,,,,,,,,,g.PNG,g,60fd939463ee2094a0ad7082,2021-09-08_20h54.26.381,forced_choiceRT,2021.1.2,Win32,59.95922773,,,,,,,,7,Fast,g,1,1.5982,2,3,11,1,1,,,,,
,1.76,,,,,,,,,g.PNG,g,60fd939463ee2094a0ad7082,2021-09-08_20h54.26.381,forced_choiceRT,2021.1.2,Win32,59.95922773,,,,,,,,7,Slow,g,1,2.2678,3,0,12,1,1,,,,,
,0.17,,,,,,,,,h.PNG,h,60fd939463ee2094a0ad7082,2021-09-08_20h54.26.381,forced_choiceRT,2021.1.2,Win32,59.95922773,,,,,,,,7,Fast,g,0,0.8321,3,1,13,2,1,,,,,
,0.67,,,,,,,,,h.PNG,h,60fd939463ee2094a0ad7082,2021-09-08_20h54.26.381,forced_choiceRT,2021.1.2,Win32,59.95922773,,,,,,,,7,Fast,h,1,1.8937,3,2,14,2,1,,,,,
,1.57,,,,,,,,,j.PNG,j,60fd939463ee2094a0ad7082,2021-09-08_20h54.26.381,forced_choiceRT,2021.1.2,Win32,59.95922773,,,,,,,,7,Ontime,h,0,1.9392,3,3,15,3,1,,,,,
,0.34,,,,,,,,,h.PNG,h,60fd939463ee2094a0ad7082,2021-09-08_20h54.26.381,forced_choiceRT,2021.1.2,Win32,59.95922773,,,,,,,,7,Fast,h,1,1.833,4,0,16,2,1,,,,,
,1.74,,,,,,,,,g.PNG,g,60fd939463ee2094a0ad7082,2021-09-08_20h54.26.381,forced_choiceRT,2021.1.2,Win32,59.95922773,,,,,,,,7,Ontime,j,0,1.9816,4,1,17,1,1,,,,,
,0.79,,,,,,,,,g.PNG,g,60fd939463ee2094a0ad7082,2021-09-08_20h54.26.381,forced_choiceRT,2021.1.2,Win32,59.95922773,,,,,,,,7,Fast,g,1,1.8723,4,2,18,1,1,,,,,
,0.45,,,,,,,,,g.PNG,g,60fd939463ee2094a0ad7082,2021-09-08_20h54.26.381,forced_choiceRT,2021.1.2,Win32,59.95922773,,,,,,,,7,Ontime,g,1,1.9183,4,3,19,1,1,,,,,
,0.31,,,,,,,,,j.PNG,j,60fd939463ee2094a0ad7082,2021-09-08_20h54.26.381,forced_choiceRT,2021.1.2,Win32,59.95922773,,,,,,,,7,Ontime,j,1,1.9064,5,0,20,3,1,,,,,
,1.34,,,,,,,,,f.PNG,f,60fd939463ee2094a0ad7082,2021-09-08_20h54.26.381,forced_choiceRT,2021.1.2,Win32,59.95922773,,,,,,,,7,Ontime,f,1,1.915,5,1,21,0,1,,,,,
,0.45,,,,,,,,,f.PNG,f,60fd939463ee2094a0ad7082,2021-09-08_20h54.26.381,forced_choiceRT,2021.1.2,Win32,59.95922773,,,,,,,,7,Fast,f,1,1.8537,5,2,22,0,1,,,,,
,1.32,,,,,,,,,j.PNG,j,60fd939463ee2094a0ad7082,2021-09-08_20h54.26.381,forced_choiceRT,2021.1.2,Win32,59.95922773,,,,,,,,7,Slow,j,1,2.2147,5,3,23,3,1,,,,,
,1.72,,,,,,,,,j.PNG,j,60fd939463ee2094a0ad7082,2021-09-08_20h54.26.381,forced_choiceRT,2021.1.2,Win32,59.95922773,,,,,,,,7,Slow,j,1,2.3987,6,0,24,3,1,,,,,
,1.23,,,,,,,,,h.PNG,h,60fd939463ee2094a0ad7082,2021-09-08_20h54.26.381,forced_choiceRT,2021.1.2,Win32,59.95922773,,,,,,,,7,Ontime,h,1,2.0053,6,1,25,2,1,,,,,
,1.95,,,,,,,,,j.PNG,j,60fd939463ee2094a0ad7082,2021-09-08_20h54.26.381,forced_choiceRT,2021.1.2,Win32,59.95922773,,,,,,,,7,Slow,h,0,2.3811,6,2,26,3,1,,,,,
,0.49,,,,,,,,,h.PNG,h,60fd939463ee2094a0ad7082,2021-09-08_20h54.26.381,forced_choiceRT,2021.1.2,Win32,59.95922773,,,,,,,,7,Fast,h,1,1.7562,6,3,27,2,1,,,,,
,1.09,,,,,,,,,f.PNG,f,60fd939463ee2094a0ad7082,2021-09-08_20h54.26.381,forced_choiceRT,2021.1.2,Win32,59.95922773,,,,,,,,7,Fast,f,1,1.7673,7,0,28,0,1,,,,,
,0.61,,,,,,,,,f.PNG,f,60fd939463ee2094a0ad7082,2021-09-08_20h54.26.381,forced_choiceRT,2021.1.2,Win32,59.95922773,,,,,,,,7,Fast,f,1,1.8631,7,1,29,0,1,,,,,
,1.61,,,,,,,,,f.PNG,f,60fd939463ee2094a0ad7082,2021-09-08_20h54.26.381,forced_choiceRT,2021.1.2,Win32,59.95922773,,,,,,,,7,Ontime,f,1,1.9541,7,2,30,0,1,,,,,
,0.41,,,,,,,,,h.PNG,h,60fd939463ee2094a0ad7082,2021-09-08_20h54.26.381,forced_choiceRT,2021.1.2,Win32,59.95922773,,,,,,,,7,Fast,h,1,1.825,7,3,31,2,1,,,,,
,1.33,,,,,,,,,h.PNG,h,60fd939463ee2094a0ad7082,2021-09-08_20h54.26.381,forced_choiceRT,2021.1.2,Win32,59.95922773,,,,,,,,7,Ontime,h,1,1.9843,8,0,32,2,1,,,,,
,1.47,,,,,,,,,g.PNG,g,60fd939463ee2094a0ad7082,2021-09-08_20h54.26.381,forced_choiceRT,2021.1.2,Win32,59.95922773,,,,,,,,7,Fast,j,0,1.8912,8,1,33,1,1,,,,,
,1.3,,,,,,,,,h.PNG,h,60fd939463ee2094a0ad7082,2021-09-08_20h54.26.381,forced_choiceRT,2021.1.2,Win32,59.95922773,,,,,,,,7,Fast,h,1,1.8473,8,2,34,2,1,,,,,
,1.03,,,,,,,,,g.PNG,g,60fd939463ee2094a0ad7082,2021-09-08_20h54.26.381,forced_choiceRT,2021.1.2,Win32,59.95922773,,,,,,,,7,Fast,g,1,1.8651,8,3,35,1,1,,,,,
,1.24,,,,,,,,,j.PNG,j,60fd939463ee2094a0ad7082,2021-09-08_20h54.26.381,forced_choiceRT,2021.1.2,Win32,59.95922773,,,,,,,,7,Slow,h,0,2.174,9,0,36,3,1,,,,,
,0.81,,,,,,,,,f.PNG,f,60fd939463ee2094a0ad7082,2021-09-08_20h54.26.381,forced_choiceRT,2021.1.2,Win32,59.95922773,,,,,,,,7,Ontime,f,1,1.9489,9,1,37,0,1,,,,,
,0.85,,,,,,,,,j.PNG,j,60fd939463ee2094a0ad7082,2021-09-08_20h54.26.381,forced_choiceRT,2021.1.2,Win32,59.95922773,,,,,,,,7,Ontime,j,1,1.9504,9,2,38,3,1,,,,,
,0.8,,,,,,,,,f.PNG,f,60fd939463ee2094a0ad7082,2021-09-08_20h54.26.381,forced_choiceRT,2021.1.2,Win32,59.95922773,,,,,,,,7,Slow,f,1,2.1518,9,3,39,0,1,,,,,
,,,,,,,,,,,,60fd939463ee2094a0ad7082,2021-09-08_20h54.26.381,forced_choiceRT,2021.1.2,Win32,59.95922773,,,,,,,,,,,,,,,,,,6,0,6,0,1
,1.93,,,,,,,,,h.PNG,h,60fd939463ee2094a0ad7082,2021-09-08_20h54.26.381,forced_choiceRT,2021.1.2,Win32,59.95922773,,,,,,,,8,Slow,j,0,2.3875,0,0,0,2,1,,,,,
,0.26,,,,,,,,,h.PNG,h,60fd939463ee2094a0ad7082,2021-09-08_20h54.26.381,forced_choiceRT,2021.1.2,Win32,59.95922773,,,,,,,,8,Fast,h,1,1.7661,0,1,1,2,1,,,,,
,1.74,,,,,,,,,h.PNG,h,60fd939463ee2094a0ad7082,2021-09-08_20h54.26.381,forced_choiceRT,2021.1.2,Win32,59.95922773,,,,,,,,8,Slow,h,1,2.2958,0,2,2,2,1,,,,,
,0.52,,,,,,,,,f.PNG,f,60fd939463ee2094a0ad7082,2021-09-08_20h54.26.381,forced_choiceRT,2021.1.2,Win32,59.95922773,,,,,,,,8,Fast,f,1,1.7573,0,3,3,0,1,,,,,
,0.37,,,,,,,,,g.PNG,g,60fd939463ee2094a0ad7082,2021-09-08_20h54.26.381,forced_choiceRT,2021.1.2,Win32,59.95922773,,,,,,,,8,Ontime,g,1,1.9858,1,0,4,1,1,,,,,
,1.24,,,,,,,,,h.PNG,h,60fd939463ee2094a0ad7082,2021-09-08_20h54.26.381,forced_choiceRT,2021.1.2,Win32,59.95922773,,,,,,,,8,Ontime,h,1,2.065,1,1,5,2,1,,,,,
,1.16,,,,,,,,,j.PNG,j,60fd939463ee2094a0ad7082,2021-09-08_20h54.26.381,forced_choiceRT,2021.1.2,Win32,59.95922773,,,,,,,,8,Fast,j,1,1.8508,1,2,6,3,1,,,,,
,1.12,,,,,,,,,h.PNG,h,60fd939463ee2094a0ad7082,2021-09-08_20h54.26.381,forced_choiceRT,2021.1.2,Win32,59.95922773,,,,,,,,8,Fast,h,1,1.5559,1,3,7,2,1,,,,,
,1.1,,,,,,,,,h.PNG,h,60fd939463ee2094a0ad7082,2021-09-08_20h54.26.381,forced_choiceRT,2021.1.2,Win32,59.95922773,,,,,,,,8,Fast,h,1,1.5182,2,0,8,2,1,,,,,
,1.75,,,,,,,,,j.PNG,j,60fd939463ee2094a0ad7082,2021-09-08_20h54.26.381,forced_choiceRT,2021.1.2,Win32,59.95922773,,,,,,,,8,Slow,g,0,2.3135,2,1,9,3,1,,,,,
,1.76,,,,,,,,,f.PNG,f,60fd939463ee2094a0ad7082,2021-09-08_20h54.26.381,forced_choiceRT,2021.1.2,Win32,59.95922773,,,,,,,,8,Ontime,f,1,2.0235,2,2,10,0,1,,,,,
,0.87,,,,,,,,,g.PNG,g,60fd939463ee2094a0ad7082,2021-09-08_20h54.26.381,forced_choiceRT,2021.1.2,Win32,59.95922773,,,,,,,,8,Ontime,g,1,2.0182,2,3,11,1,1,,,,,
,0.01,,,,,,,,,g.PNG,g,60fd939463ee2094a0ad7082,2021-09-08_20h54.26.381,forced_choiceRT,2021.1.2,Win32,59.95922773,,,,,,,,8,Fast,g,1,1.8658,3,0,12,1,1,,,,,
,1.67,,,,,,,,,g.PNG,g,60fd939463ee2094a0ad7082,2021-09-08_20h54.26.381,forced_choiceRT,2021.1.2,Win32,59.95922773,,,,,,,,8,Slow,g,1,2.3468,3,1,13,1,1,,,,,
,0.35,,,,,,,,,f.PNG,f,60fd939463ee2094a0ad7082,2021-09-08_20h54.26.381,forced_choiceRT,2021.1.2,Win32,59.95922773,,,,,,,,8,Ontime,f,1,1.9149,3,2,14,0,1,,,,,
,0.98,,,,,,,,,h.PNG,h,60fd939463ee2094a0ad7082,2021-09-08_20h54.26.381,forced_choiceRT,2021.1.2,Win32,59.95922773,,,,,,,,8,Fast,h,1,1.5367,3,3,15,2,1,,,,,
,1.11,,,,,,,,,j.PNG,j,60fd939463ee2094a0ad7082,2021-09-08_20h54.26.381,forced_choiceRT,2021.1.2,Win32,59.95922773,,,,,,,,8,Ontime,j,1,2.0072,4,0,16,3,1,,,,,
,0.36,,,,,,,,,f.PNG,f,60fd939463ee2094a0ad7082,2021-09-08_20h54.26.381,forced_choiceRT,2021.1.2,Win32,59.95922773,,,,,,,,8,Ontime,f,1,2.0975,4,1,17,0,1,,,,,
,1.52,,,,,,,,,f.PNG,f,60fd939463ee2094a0ad7082,2021-09-08_20h54.26.381,forced_choiceRT,2021.1.2,Win32,59.95922773,,,,,,,,8,Ontime,f,1,2.0986,4,2,18,0,1,,,,,
,1.42,,,,,,,,,h.PNG,h,60fd939463ee2094a0ad7082,2021-09-08_20h54.26.381,forced_choiceRT,2021.1.2,Win32,59.95922773,,,,,,,,8,Ontime,h,1,2.084,4,3,19,2,1,,,,,
,1.66,,,,,,,,,j.PNG,j,60fd939463ee2094a0ad7082,2021-09-08_20h54.26.381,forced_choiceRT,2021.1.2,Win32,59.95922773,,,,,,,,8,Slow,j,1,2.2881,5,0,20,3,1,,,,,
,0.17,,,,,,,,,f.PNG,f,60fd939463ee2094a0ad7082,2021-09-08_20h54.26.381,forced_choiceRT,2021.1.2,Win32,59.95922773,,,,,,,,8,Ontime,f,1,1.9838,5,1,21,0,1,,,,,
,1.27,,,,,,,,,h.PNG,h,60fd939463ee2094a0ad7082,2021-09-08_20h54.26.381,forced_choiceRT,2021.1.2,Win32,59.95922773,,,,,,,,8,Fast,j,0,1.8983,5,2,22,2,1,,,,,
,0.56,,,,,,,,,j.PNG,j,60fd939463ee2094a0ad7082,2021-09-08_20h54.26.381,forced_choiceRT,2021.1.2,Win32,59.95922773,,,,,,,,8,Ontime,j,1,2.0536,5,3,23,3,1,,,,,
,0.36,,,,,,,,,g.PNG,g,60fd939463ee2094a0ad7082,2021-09-08_20h54.26.381,forced_choiceRT,2021.1.2,Win32,59.95922773,,,,,,,,8,Fast,h,0,1.4471,6,0,24,1,1,,,,,
,1.07,,,,,,,,,g.PNG,g,60fd939463ee2094a0ad7082,2021-09-08_20h54.26.381,forced_choiceRT,2021.1.2,Win32,59.95922773,,,,,,,,8,Ontime,f,0,2.0671,6,1,25,1,1,,,,,
,1.33,,,,,,,,,j.PNG,j,60fd939463ee2094a0ad7082,2021-09-08_20h54.26.381,forced_choiceRT,2021.1.2,Win32,59.95922773,,,,,,,,8,Slow,h,0,2.2091,6,2,26,3,1,,,,,
,0.16,,,,,,,,,g.PNG,g,60fd939463ee2094a0ad7082,2021-09-08_20h54.26.381,forced_choiceRT,2021.1.2,Win32,59.95922773,,,,,,,,8,Slow,g,1,2.1004,6,3,27,1,1,,,,,
,0.83,,,,,,,,,g.PNG,g,60fd939463ee2094a0ad7082,2021-09-08_20h54.26.381,forced_choiceRT,2021.1.2,Win32,59.95922773,,,,,,,,8,Slow,g,1,2.1133,7,0,28,1,1,,,,,
,1.8,,,,,,,,,f.PNG,f,60fd939463ee2094a0ad7082,2021-09-08_20h54.26.381,forced_choiceRT,2021.1.2,Win32,59.95922773,,,,,,,,8,Slow,f,1,2.2834,7,1,29,0,1,,,,,
,1.5,,,,,,,,,j.PNG,j,60fd939463ee2094a0ad7082,2021-09-08_20h54.26.381,forced_choiceRT,2021.1.2,Win32,59.95922773,,,,,,,,8,Slow,h,0,3.0359,7,2,30,3,1,,,,,
,1.1,,,,,,,,,f.PNG,f,60fd939463ee2094a0ad7082,2021-09-08_20h54.26.381,forced_choiceRT,2021.1.2,Win32,59.95922773,,,,,,,,8,Slow,f,1,2.2648,7,3,31,0,1,,,,,
,1.05,,,,,,,,,j.PNG,j,60fd939463ee2094a0ad7082,2021-09-08_20h54.26.381,forced_choiceRT,2021.1.2,Win32,59.95922773,,,,,,,,8,Slow,h,0,2.134,8,0,32,3,1,,,,,
,1.99,,,,,,,,,j.PNG,j,60fd939463ee2094a0ad7082,2021-09-08_20h54.26.381,forced_choiceRT,2021.1.2,Win32,59.95922773,,,,,,,,8,Slow,f,0,2.2846,8,1,33,3,1,,,,,
,0.27,,,,,,,,,h.PNG,h,60fd939463ee2094a0ad7082,2021-09-08_20h54.26.381,forced_choiceRT,2021.1.2,Win32,59.95922773,,,,,,,,8,Fast,h,1,1.1822,8,2,34,2,1,,,,,
,0.1,,,,,,,,,g.PNG,g,60fd939463ee2094a0ad7082,2021-09-08_20h54.26.381,forced_choiceRT,2021.1.2,Win32,59.95922773,,,,,,,,8,Ontime,g,1,1.9343,8,3,35,1,1,,,,,
,1,,,,,,,,,g.PNG,g,60fd939463ee2094a0ad7082,2021-09-08_20h54.26.381,forced_choiceRT,2021.1.2,Win32,59.95922773,,,,,,,,8,Ontime,g,1,2.0379,9,0,36,1,1,,,,,
,0.05,,,,,,,,,f.PNG,f,60fd939463ee2094a0ad7082,2021-09-08_20h54.26.381,forced_choiceRT,2021.1.2,Win32,59.95922773,,,,,,,,8,Ontime,f,1,2.0707,9,1,37,0,1,,,,,
,0.67,,,,,,,,,j.PNG,j,60fd939463ee2094a0ad7082,2021-09-08_20h54.26.381,forced_choiceRT,2021.1.2,Win32,59.95922773,,,,,,,,8,Ontime,j,1,1.9871,9,2,38,3,1,,,,,
,1.27,,,,,,,,,f.PNG,f,60fd939463ee2094a0ad7082,2021-09-08_20h54.26.381,forced_choiceRT,2021.1.2,Win32,59.95922773,,,,,,,,8,Slow,f,1,2.2525,9,3,39,0,1,,,,,
,,,,,,,,,,,,60fd939463ee2094a0ad7082,2021-09-08_20h54.26.381,forced_choiceRT,2021.1.2,Win32,59.95922773,,,,,,,,,,,,,,,,,,7,0,7,0,1
,0.13,,,,,,,,,j.PNG,j,60fd939463ee2094a0ad7082,2021-09-08_20h54.26.381,forced_choiceRT,2021.1.2,Win32,59.95922773,,,,,,,,9,Ontime,j,1,2.0571,0,0,0,3,1,,,,,
,1.67,,,,,,,,,h.PNG,h,60fd939463ee2094a0ad7082,2021-09-08_20h54.26.381,forced_choiceRT,2021.1.2,Win32,59.95922773,,,,,,,,9,Slow,h,1,2.2887,0,1,1,2,1,,,,,
,1.93,,,,,,,,,g.PNG,g,60fd939463ee2094a0ad7082,2021-09-08_20h54.26.381,forced_choiceRT,2021.1.2,Win32,59.95922773,,,,,,,,9,Slow,g,1,2.1608,0,2,2,1,1,,,,,
,0.54,,,,,,,,,g.PNG,g,60fd939463ee2094a0ad7082,2021-09-08_20h54.26.381,forced_choiceRT,2021.1.2,Win32,59.95922773,,,,,,,,9,Ontime,g,1,2.0661,0,3,3,1,1,,,,,
,1.75,,,,,,,,,h.PNG,h,60fd939463ee2094a0ad7082,2021-09-08_20h54.26.381,forced_choiceRT,2021.1.2,Win32,59.95922773,,,,,,,,9,Slow,g,0,2.2634,1,0,4,2,1,,,,,
,0.07,,,,,,,,,g.PNG,g,60fd939463ee2094a0ad7082,2021-09-08_20h54.26.381,forced_choiceRT,2021.1.2,Win32,59.95922773,,,,,,,,9,Slow,f,0,18.5853,1,1,5,1,1,,,,,
,1.14,,,,,,,,,h.PNG,h,60fd939463ee2094a0ad7082,2021-09-08_20h54.26.381,forced_choiceRT,2021.1.2,Win32,59.95922773,,,,,,,,9,Fast,g,0,1.8877,1,2,6,2,1,,,,,
,1.38,,,,,,,,,f.PNG,f,60fd939463ee2094a0ad7082,2021-09-08_20h54.26.381,forced_choiceRT,2021.1.2,Win32,59.95922773,,,,,,,,9,Slow,f,1,2.1569,1,3,7,0,1,,,,,
,1.07,,,,,,,,,g.PNG,g,60fd939463ee2094a0ad7082,2021-09-08_20h54.26.381,forced_choiceRT,2021.1.2,Win32,59.95922773,,,,,,,,9,Ontime,g,1,2.0699,2,0,8,1,1,,,,,
,1.02,,,,,,,,,f.PNG,f,60fd939463ee2094a0ad7082,2021-09-08_20h54.26.381,forced_choiceRT,2021.1.2,Win32,59.95922773,,,,,,,,9,Fast,f,1,1.8276,2,1,9,0,1,,,,,
,0.09,,,,,,,,,g.PNG,g,60fd939463ee2094a0ad7082,2021-09-08_20h54.26.381,forced_choiceRT,2021.1.2,Win32,59.95922773,,,,,,,,9,Ontime,g,1,1.9026,2,2,10,1,1,,,,,
,0.86,,,,,,,,,h.PNG,h,60fd939463ee2094a0ad7082,2021-09-08_20h54.26.381,forced_choiceRT,2021.1.2,Win32,59.95922773,,,,,,,,9,Fast,h,1,1.6278,2,3,11,2,1,,,,,
,0.44,,,,,,,,,f.PNG,f,60fd939463ee2094a0ad7082,2021-09-08_20h54.26.381,forced_choiceRT,2021.1.2,Win32,59.95922773,,,,,,,,9,Ontime,f,1,1.9271,3,0,12,0,1,,,,,
,1.69,,,,,,,,,j.PNG,j,60fd939463ee2094a0ad7082,2021-09-08_20h54.26.381,forced_choiceRT,2021.1.2,Win32,59.95922773,,,,,,,,9,Slow,h,0,2.2726,3,1,13,3,1,,,,,
,0.87,,,,,,,,,h.PNG,h,60fd939463ee2094a0ad7082,2021-09-08_20h54.26.381,forced_choiceRT,2021.1.2,Win32,59.95922773,,,,,,,,9,Slow,h,1,2.1896,3,2,14,2,1,,,,,
,0.43,,,,,,,,,j.PNG,j,60fd939463ee2094a0ad7082,2021-09-08_20h54.26.381,forced_choiceRT,2021.1.2,Win32,59.95922773,,,,,,,,9,Ontime,j,1,1.9102,3,3,15,3,1,,,,,
,0,,,,,,,,,h.PNG,h,60fd939463ee2094a0ad7082,2021-09-08_20h54.26.381,forced_choiceRT,2021.1.2,Win32,59.95922773,,,,,,,,9,Ontime,h,1,1.9183,4,0,16,2,1,,,,,
,1.85,,,,,,,,,h.PNG,h,60fd939463ee2094a0ad7082,2021-09-08_20h54.26.381,forced_choiceRT,2021.1.2,Win32,59.95922773,,,,,,,,9,Slow,h,1,2.5197,4,1,17,2,1,,,,,
,0.86,,,,,,,,,f.PNG,f,60fd939463ee2094a0ad7082,2021-09-08_20h54.26.381,forced_choiceRT,2021.1.2,Win32,59.95922773,,,,,,,,9,Ontime,f,1,2.0315,4,2,18,0,1,,,,,
,1.04,,,,,,,,,f.PNG,f,60fd939463ee2094a0ad7082,2021-09-08_20h54.26.381,forced_choiceRT,2021.1.2,Win32,59.95922773,,,,,,,,9,Slow,f,1,2.1326,4,3,19,0,1,,,,,
,0.74,,,,,,,,,g.PNG,g,60fd939463ee2094a0ad7082,2021-09-08_20h54.26.381,forced_choiceRT,2021.1.2,Win32,59.95922773,,,,,,,,9,Fast,g,1,1.699,5,0,20,1,1,,,,,
,1.39,,,,,,,,,f.PNG,f,60fd939463ee2094a0ad7082,2021-09-08_20h54.26.381,forced_choiceRT,2021.1.2,Win32,59.95922773,,,,,,,,9,Fast,g,0,1.8822,5,1,21,0,1,,,,,
,0.39,,,,,,,,,j.PNG,j,60fd939463ee2094a0ad7082,2021-09-08_20h54.26.381,forced_choiceRT,2021.1.2,Win32,59.95922773,,,,,,,,9,Fast,j,1,1.8914,5,2,22,3,1,,,,,
,0.66,,,,,,,,,j.PNG,j,60fd939463ee2094a0ad7082,2021-09-08_20h54.26.381,forced_choiceRT,2021.1.2,Win32,59.95922773,,,,,,,,9,Ontime,j,1,2.089,5,3,23,3,1,,,,,
,0.54,,,,,,,,,j.PNG,j,60fd939463ee2094a0ad7082,2021-09-08_20h54.26.381,forced_choiceRT,2021.1.2,Win32,59.95922773,,,,,,,,9,Ontime,j,1,2.0819,6,0,24,3,1,,,,,
,0.73,,,,,,,,,j.PNG,j,60fd939463ee2094a0ad7082,2021-09-08_20h54.26.381,forced_choiceRT,2021.1.2,Win32,59.95922773,,,,,,,,9,Ontime,j,1,2.0237,6,1,25,3,1,,,,,
,0.72,,,,,,,,,h.PNG,h,60fd939463ee2094a0ad7082,2021-09-08_20h54.26.381,forced_choiceRT,2021.1.2,Win32,59.95922773,,,,,,,,9,Ontime,h,1,1.9656,6,2,26,2,1,,,,,
,1.55,,,,,,,,,f.PNG,f,60fd939463ee2094a0ad7082,2021-09-08_20h54.26.381,forced_choiceRT,2021.1.2,Win32,59.95922773,,,,,,,,9,Slow,f,1,2.4074,6,3,27,0,1,,,,,
,1.49,,,,,,,,,g.PNG,g,60fd939463ee2094a0ad7082,2021-09-08_20h54.26.381,forced_choiceRT,2021.1.2,Win32,59.95922773,,,,,,,,9,Ontime,g,1,1.9661,7,0,28,1,1,,,,,
,1.57,,,,,,,,,f.PNG,f,60fd939463ee2094a0ad7082,2021-09-08_20h54.26.381,forced_choiceRT,2021.1.2,Win32,59.95922773,,,,,,,,9,Ontime,f,1,2.0706,7,1,29,0,1,,,,,
,1.51,,,,,,,,,g.PNG,g,60fd939463ee2094a0ad7082,2021-09-08_20h54.26.381,forced_choiceRT,2021.1.2,Win32,59.95922773,,,,,,,,9,Slow,g,1,2.3314,7,2,30,1,1,,,,,
,1.76,,,,,,,,,h.PNG,h,60fd939463ee2094a0ad7082,2021-09-08_20h54.26.381,forced_choiceRT,2021.1.2,Win32,59.95922773,,,,,,,,9,Slow,h,1,2.2809,7,3,31,2,1,,,,,
,1.63,,,,,,,,,h.PNG,h,60fd939463ee2094a0ad7082,2021-09-08_20h54.26.381,forced_choiceRT,2021.1.2,Win32,59.95922773,,,,,,,,9,Slow,h,1,2.232,8,0,32,2,1,,,,,
,1.38,,,,,,,,,f.PNG,f,60fd939463ee2094a0ad7082,2021-09-08_20h54.26.381,forced_choiceRT,2021.1.2,Win32,59.95922773,,,,,,,,9,Fast,j,0,1.7313,8,1,33,0,1,,,,,
,0.18,,,,,,,,,g.PNG,g,60fd939463ee2094a0ad7082,2021-09-08_20h54.26.381,forced_choiceRT,2021.1.2,Win32,59.95922773,,,,,,,,9,Fast,g,1,1.7653,8,2,34,1,1,,,,,
,1.65,,,,,,,,,j.PNG,j,60fd939463ee2094a0ad7082,2021-09-08_20h54.26.381,forced_choiceRT,2021.1.2,Win32,59.95922773,,,,,,,,9,Slow,h,0,2.1824,8,3,35,3,1,,,,,
,0.19,,,,,,,,,f.PNG,f,60fd939463ee2094a0ad7082,2021-09-08_20h54.26.381,forced_choiceRT,2021.1.2,Win32,59.95922773,,,,,,,,9,Fast,f,1,1.814,9,0,36,0,1,,,,,
,1.05,,,,,,,,,j.PNG,j,60fd939463ee2094a0ad7082,2021-09-08_20h54.26.381,forced_choiceRT,2021.1.2,Win32,59.95922773,,,,,,,,9,Fast,j,1,1.8567,9,1,37,3,1,,,,,
,1.86,,,,,,,,,g.PNG,g,60fd939463ee2094a0ad7082,2021-09-08_20h54.26.381,forced_choiceRT,2021.1.2,Win32,59.95922773,,,,,,,,9,Ontime,j,0,2.0995,9,2,38,1,1,,,,,
,0.01,,,,,,,,,j.PNG,j,60fd939463ee2094a0ad7082,2021-09-08_20h54.26.381,forced_choiceRT,2021.1.2,Win32,59.95922773,,,,,,,,9,Fast,j,1,1.8165,9,3,39,3,1,,,,,
,,,,,,,,,,,,60fd939463ee2094a0ad7082,2021-09-08_20h54.26.381,forced_choiceRT,2021.1.2,Win32,59.95922773,,,,,,,,,,,,,,,,,,8,0,8,0,1
,1.35,,,,,,,,,j.PNG,j,60fd939463ee2094a0ad7082,2021-09-08_20h54.26.381,forced_choiceRT,2021.1.2,Win32,59.95922773,,,,,,,,10,Fast,f,0,1.6839,0,0,0,3,1,,,,,
,1.71,,,,,,,,,g.PNG,g,60fd939463ee2094a0ad7082,2021-09-08_20h54.26.381,forced_choiceRT,2021.1.2,Win32,59.95922773,,,,,,,,10,Slow,h,0,2.1414,0,1,1,1,1,,,,,
,1.98,,,,,,,,,f.PNG,f,60fd939463ee2094a0ad7082,2021-09-08_20h54.26.381,forced_choiceRT,2021.1.2,Win32,59.95922773,,,,,,,,10,Slow,f,1,2.3653,0,2,2,0,1,,,,,
,1.95,,,,,,,,,g.PNG,g,60fd939463ee2094a0ad7082,2021-09-08_20h54.26.381,forced_choiceRT,2021.1.2,Win32,59.95922773,,,,,,,,10,Slow,h,0,2.3472,0,3,3,1,1,,,,,
,1.88,,,,,,,,,f.PNG,f,60fd939463ee2094a0ad7082,2021-09-08_20h54.26.381,forced_choiceRT,2021.1.2,Win32,59.95922773,,,,,,,,10,Slow,g,0,2.1989,1,0,4,0,1,,,,,
,1.36,,,,,,,,,j.PNG,j,60fd939463ee2094a0ad7082,2021-09-08_20h54.26.381,forced_choiceRT,2021.1.2,Win32,59.95922773,,,,,,,,10,Ontime,j,1,2.0923,1,1,5,3,1,,,,,
,1.13,,,,,,,,,h.PNG,h,60fd939463ee2094a0ad7082,2021-09-08_20h54.26.381,forced_choiceRT,2021.1.2,Win32,59.95922773,,,,,,,,10,Fast,g,0,1.8813,1,2,6,2,1,,,,,
,1.88,,,,,,,,,g.PNG,g,60fd939463ee2094a0ad7082,2021-09-08_20h54.26.381,forced_choiceRT,2021.1.2,Win32,59.95922773,,,,,,,,10,Slow,f,0,2.313,1,3,7,1,1,,,,,
,0.26,,,,,,,,,j.PNG,j,60fd939463ee2094a0ad7082,2021-09-08_20h54.26.381,forced_choiceRT,2021.1.2,Win32,59.95922773,,,,,,,,10,Ontime,j,1,1.965,2,0,8,3,1,,,,,
,0.61,,,,,,,,,h.PNG,h,60fd939463ee2094a0ad7082,2021-09-08_20h54.26.381,forced_choiceRT,2021.1.2,Win32,59.95922773,,,,,,,,10,Ontime,h,1,1.9917,2,1,9,2,1,,,,,
,0.44,,,,,,,,,f.PNG,f,60fd939463ee2094a0ad7082,2021-09-08_20h54.26.381,forced_choiceRT,2021.1.2,Win32,59.95922773,,,,,,,,10,Ontime,f,1,1.9681,2,2,10,0,1,,,,,
,1.47,,,,,,,,,g.PNG,g,60fd939463ee2094a0ad7082,2021-09-08_20h54.26.381,forced_choiceRT,2021.1.2,Win32,59.95922773,,,,,,,,10,Ontime,f,0,2.0154,2,3,11,1,1,,,,,
,1.83,,,,,,,,,f.PNG,f,60fd939463ee2094a0ad7082,2021-09-08_20h54.26.381,forced_choiceRT,2021.1.2,Win32,59.95922773,,,,,,,,10,Slow,f,1,2.4439,3,0,12,0,1,,,,,
,0.55,,,,,,,,,j.PNG,j,60fd939463ee2094a0ad7082,2021-09-08_20h54.26.381,forced_choiceRT,2021.1.2,Win32,59.95922773,,,,,,,,10,Ontime,j,1,1.9696,3,1,13,3,1,,,,,
,1.89,,,,,,,,,h.PNG,h,60fd939463ee2094a0ad7082,2021-09-08_20h54.26.381,forced_choiceRT,2021.1.2,Win32,59.95922773,,,,,,,,10,Slow,g,0,2.4511,3,2,14,2,1,,,,,
,1.82,,,,,,,,,j.PNG,j,60fd939463ee2094a0ad7082,2021-09-08_20h54.26.381,forced_choiceRT,2021.1.2,Win32,59.95922773,,,,,,,,10,Slow,h,0,2.5618,3,3,15,3,1,,,,,
,0.79,,,,,,,,,f.PNG,f,60fd939463ee2094a0ad7082,2021-09-08_20h54.26.381,forced_choiceRT,2021.1.2,Win32,59.95922773,,,,,,,,10,Ontime,f,1,2.001,4,0,16,0,1,,,,,
,1.13,,,,,,,,,j.PNG,j,60fd939463ee2094a0ad7082,2021-09-08_20h54.26.381,forced_choiceRT,2021.1.2,Win32,59.95922773,,,,,,,,10,Slow,j,1,2.1518,4,1,17,3,1,,,,,
,0.69,,,,,,,,,g.PNG,g,60fd939463ee2094a0ad7082,2021-09-08_20h54.26.381,forced_choiceRT,2021.1.2,Win32,59.95922773,,,,,,,,10,Ontime,g,1,2.0326,4,2,18,1,1,,,,,
,0.2,,,,,,,,,g.PNG,g,60fd939463ee2094a0ad7082,2021-09-08_20h54.26.381,forced_choiceRT,2021.1.2,Win32,59.95922773,,,,,,,,10,Fast,g,1,1.2443,4,3,19,1,1,,,,,
,0.02,,,,,,,,,f.PNG,f,60fd939463ee2094a0ad7082,2021-09-08_20h54.26.381,forced_choiceRT,2021.1.2,Win32,59.95922773,,,,,,,,10,Ontime,f,1,2.0507,5,0,20,0,1,,,,,
,1.7,,,,,,,,,j.PNG,j,60fd939463ee2094a0ad7082,2021-09-08_20h54.26.381,forced_choiceRT,2021.1.2,Win32,59.95922773,,,,,,,,10,Slow,g,0,2.4512,5,1,21,3,1,,,,,
,0.39,,,,,,,,,f.PNG,f,60fd939463ee2094a0ad7082,2021-09-08_20h54.26.381,forced_choiceRT,2021.1.2,Win32,59.95922773,,,,,,,,10,Ontime,f,1,2.0013,5,2,22,0,1,,,,,
,1.32,,,,,,,,,j.PNG,j,60fd939463ee2094a0ad7082,2021-09-08_20h54.26.381,forced_choiceRT,2021.1.2,Win32,59.95922773,,,,,,,,10,Fast,h,0,1.8679,5,3,23,3,1,,,,,
,1.18,,,,,,,,,h.PNG,h,60fd939463ee2094a0ad7082,2021-09-08_20h54.26.381,forced_choiceRT,2021.1.2,Win32,59.95922773,,,,,,,,10,Slow,h,1,2.4636,6,0,24,2,1,,,,,
,0.47,,,,,,,,,j.PNG,j,60fd939463ee2094a0ad7082,2021-09-08_20h54.26.381,forced_choiceRT,2021.1.2,Win32,59.95922773,,,,,,,,10,Fast,j,1,1.8725,6,1,25,3,1,,,,,
,1.02,,,,,,,,,h.PNG,h,60fd939463ee2094a0ad7082,2021-09-08_20h54.26.381,forced_choiceRT,2021.1.2,Win32,59.95922773,,,,,,,,10,Fast,h,1,1.6679,6,2,26,2,1,,,,,
,1.69,,,,,,,,,h.PNG,h,60fd939463ee2094a0ad7082,2021-09-08_20h54.26.381,forced_choiceRT,2021.1.2,Win32,59.95922773,,,,,,,,10,Slow,h,1,2.2204,6,3,27,2,1,,,,,
,1.1,,,,,,,,,h.PNG,h,60fd939463ee2094a0ad7082,2021-09-08_20h54.26.381,forced_choiceRT,2021.1.2,Win32,59.95922773,,,,,,,,10,Fast,h,1,1.5486,7,0,28,2,1,,,,,
,0.17,,,,,,,,,g.PNG,g,60fd939463ee2094a0ad7082,2021-09-08_20h54.26.381,forced_choiceRT,2021.1.2,Win32,59.95922773,,,,,,,,10,Ontime,g,1,2.0479,7,1,29,1,1,,,,,
,0.39,,,,,,,,,g.PNG,g,60fd939463ee2094a0ad7082,2021-09-08_20h54.26.381,forced_choiceRT,2021.1.2,Win32,59.95922773,,,,,,,,10,Ontime,g,1,2.0904,7,2,30,1,1,,,,,
,1.36,,,,,,,,,g.PNG,g,60fd939463ee2094a0ad7082,2021-09-08_20h54.26.381,forced_choiceRT,2021.1.2,Win32,59.95922773,,,,,,,,10,Ontime,g,1,2.0543,7,3,31,1,1,,,,,
,1.42,,,,,,,,,h.PNG,h,60fd939463ee2094a0ad7082,2021-09-08_20h54.26.381,forced_choiceRT,2021.1.2,Win32,59.95922773,,,,,,,,10,Slow,g,0,2.1907,8,0,32,2,1,,,,,
,0.53,,,,,,,,,f.PNG,f,60fd939463ee2094a0ad7082,2021-09-08_20h54.26.381,forced_choiceRT,2021.1.2,Win32,59.95922773,,,,,,,,10,Slow,f,1,2.2011,8,1,33,0,1,,,,,
,0.15,,,,,,,,,g.PNG,g,60fd939463ee2094a0ad7082,2021-09-08_20h54.26.381,forced_choiceRT,2021.1.2,Win32,59.95922773,,,,,,,,10,Ontime,g,1,1.9007,8,2,34,1,1,,,,,
,1.07,,,,,,,,,j.PNG,j,60fd939463ee2094a0ad7082,2021-09-08_20h54.26.381,forced_choiceRT,2021.1.2,Win32,59.95922773,,,,,,,,10,Fast,j,1,1.894,8,3,35,3,1,,,,,
,1.06,,,,,,,,,f.PNG,f,60fd939463ee2094a0ad7082,2021-09-08_20h54.26.381,forced_choiceRT,2021.1.2,Win32,59.95922773,,,,,,,,10,Slow,f,1,2.1995,9,0,36,0,1,,,,,
,1.05,,,,,,,,,h.PNG,h,60fd939463ee2094a0ad7082,2021-09-08_20h54.26.381,forced_choiceRT,2021.1.2,Win32,59.95922773,,,,,,,,10,Fast,h,1,1.8887,9,1,37,2,1,,,,,
,0.75,,,,,,,,,f.PNG,f,60fd939463ee2094a0ad7082,2021-09-08_20h54.26.381,forced_choiceRT,2021.1.2,Win32,59.95922773,,,,,,,,10,Ontime,f,1,2.0135,9,2,38,0,1,,,,,
,1,,,,,,,,,h.PNG,h,60fd939463ee2094a0ad7082,2021-09-08_20h54.26.381,forced_choiceRT,2021.1.2,Win32,59.95922773,,,,,,,,10,Ontime,h,1,2.053,9,3,39,2,1,,,,,
,,,,,,,,,,,,60fd939463ee2094a0ad7082,2021-09-08_20h54.26.381,forced_choiceRT,2021.1.2,Win32,59.95922773,,,,,,,,,,,,,,,,,,9,0,9,0,1
