IP_Addresss,target_onset,trial_resp_sp.keys,trial_resp_sp.corr,trial_resp_sp.rt,trials_train_loop.thisRepN,trials_train_loop.thisTrialN,trials_train_loop.thisN,trials_train_loop.thisIndex,trials_train_loop.ran,pic,correct_key,participant,date,expName,psychopyVersion,OS,frameRate,trial_resp_timing.keys,trial_resp_timing.rt,trials_train_timing.thisRepN,trials_train_timing.thisTrialN,trials_train_timing.thisN,trials_train_timing.thisIndex,trials_train_timing.ran,block_id,ontime,forcedRT_resp.keys,forcedRT_resp.corr,forcedRT_resp.rt,trials.thisRepN,trials.thisTrialN,trials.thisN,trials.thisIndex,trials.ran,blocks.thisRepN,blocks.thisTrialN,blocks.thisN,blocks.thisIndex,blocks.ran
136.36.48.144,0,g,1,2.2297,0,0,0,1,1,g.PNG,g,60ff10899697dd7bdbdac10f,2021-09-08_15h00.13.544,forced_choiceRT,2021.1.2,Win32,69.22810661,,,,,,,,,,,,,,,,,,,,,,
,0,g,1,1.1318,0,1,1,1,1,g.PNG,g,60ff10899697dd7bdbdac10f,2021-09-08_15h00.13.544,forced_choiceRT,2021.1.2,Win32,69.22810661,,,,,,,,,,,,,,,,,,,,,,
,0,f,1,0.6365,0,2,2,0,1,f.PNG,f,60ff10899697dd7bdbdac10f,2021-09-08_15h00.13.544,forced_choiceRT,2021.1.2,Win32,69.22810661,,,,,,,,,,,,,,,,,,,,,,
,0,j,1,0.9065,0,3,3,3,1,j.PNG,j,60ff10899697dd7bdbdac10f,2021-09-08_15h00.13.544,forced_choiceRT,2021.1.2,Win32,69.22810661,,,,,,,,,,,,,,,,,,,,,,
,0,h,1,0.6345,1,0,4,2,1,h.PNG,h,60ff10899697dd7bdbdac10f,2021-09-08_15h00.13.544,forced_choiceRT,2021.1.2,Win32,69.22810661,,,,,,,,,,,,,,,,,,,,,,
,0,g,1,0.6654,1,1,5,1,1,g.PNG,g,60ff10899697dd7bdbdac10f,2021-09-08_15h00.13.544,forced_choiceRT,2021.1.2,Win32,69.22810661,,,,,,,,,,,,,,,,,,,,,,
,0,g,1,0.8102,1,2,6,1,1,g.PNG,g,60ff10899697dd7bdbdac10f,2021-09-08_15h00.13.544,forced_choiceRT,2021.1.2,Win32,69.22810661,,,,,,,,,,,,,,,,,,,,,,
,0,h,1,1.0351,1,3,7,2,1,h.PNG,h,60ff10899697dd7bdbdac10f,2021-09-08_15h00.13.544,forced_choiceRT,2021.1.2,Win32,69.22810661,,,,,,,,,,,,,,,,,,,,,,
,0,h,1,0.5244,2,0,8,2,1,h.PNG,h,60ff10899697dd7bdbdac10f,2021-09-08_15h00.13.544,forced_choiceRT,2021.1.2,Win32,69.22810661,,,,,,,,,,,,,,,,,,,,,,
,0,j,1,0.6485,2,1,9,3,1,j.PNG,j,60ff10899697dd7bdbdac10f,2021-09-08_15h00.13.544,forced_choiceRT,2021.1.2,Win32,69.22810661,,,,,,,,,,,,,,,,,,,,,,
,0,g,1,0.6685,2,2,10,1,1,g.PNG,g,60ff10899697dd7bdbdac10f,2021-09-08_15h00.13.544,forced_choiceRT,2021.1.2,Win32,69.22810661,,,,,,,,,,,,,,,,,,,,,,
,0,h,1,0.802,2,3,11,2,1,h.PNG,h,60ff10899697dd7bdbdac10f,2021-09-08_15h00.13.544,forced_choiceRT,2021.1.2,Win32,69.22810661,,,,,,,,,,,,,,,,,,,,,,
,0,f,1,0.7911,3,0,12,0,1,f.PNG,f,60ff10899697dd7bdbdac10f,2021-09-08_15h00.13.544,forced_choiceRT,2021.1.2,Win32,69.22810661,,,,,,,,,,,,,,,,,,,,,,
,0,j,1,0.9441,3,1,13,3,1,j.PNG,j,60ff10899697dd7bdbdac10f,2021-09-08_15h00.13.544,forced_choiceRT,2021.1.2,Win32,69.22810661,,,,,,,,,,,,,,,,,,,,,,
,0,f,1,0.7657,3,2,14,0,1,f.PNG,f,60ff10899697dd7bdbdac10f,2021-09-08_15h00.13.544,forced_choiceRT,2021.1.2,Win32,69.22810661,,,,,,,,,,,,,,,,,,,,,,
,0,j,1,0.9098,3,3,15,3,1,j.PNG,j,60ff10899697dd7bdbdac10f,2021-09-08_15h00.13.544,forced_choiceRT,2021.1.2,Win32,69.22810661,,,,,,,,,,,,,,,,,,,,,,
,0,h,1,0.6495,4,0,16,2,1,h.PNG,h,60ff10899697dd7bdbdac10f,2021-09-08_15h00.13.544,forced_choiceRT,2021.1.2,Win32,69.22810661,,,,,,,,,,,,,,,,,,,,,,
,0,j,1,0.6075,4,1,17,3,1,j.PNG,j,60ff10899697dd7bdbdac10f,2021-09-08_15h00.13.544,forced_choiceRT,2021.1.2,Win32,69.22810661,,,,,,,,,,,,,,,,,,,,,,
,0,j,1,0.6249,4,2,18,3,1,j.PNG,j,60ff10899697dd7bdbdac10f,2021-09-08_15h00.13.544,forced_choiceRT,2021.1.2,Win32,69.22810661,,,,,,,,,,,,,,,,,,,,,,
,0,f,1,0.7256,4,3,19,0,1,f.PNG,f,60ff10899697dd7bdbdac10f,2021-09-08_15h00.13.544,forced_choiceRT,2021.1.2,Win32,69.22810661,,,,,,,,,,,,,,,,,,,,,,
,0,g,1,0.5764,5,0,20,1,1,g.PNG,g,60ff10899697dd7bdbdac10f,2021-09-08_15h00.13.544,forced_choiceRT,2021.1.2,Win32,69.22810661,,,,,,,,,,,,,,,,,,,,,,
,0,j,1,0.7438,5,1,21,3,1,j.PNG,j,60ff10899697dd7bdbdac10f,2021-09-08_15h00.13.544,forced_choiceRT,2021.1.2,Win32,69.22810661,,,,,,,,,,,,,,,,,,,,,,
,0,f,1,0.6815,5,2,22,0,1,f.PNG,f,60ff10899697dd7bdbdac10f,2021-09-08_15h00.13.544,forced_choiceRT,2021.1.2,Win32,69.22810661,,,,,,,,,,,,,,,,,,,,,,
,0,h,1,0.7832,5,3,23,2,1,h.PNG,h,60ff10899697dd7bdbdac10f,2021-09-08_15h00.13.544,forced_choiceRT,2021.1.2,Win32,69.22810661,,,,,,,,,,,,,,,,,,,,,,
,0,f,1,0.752,6,0,24,0,1,f.PNG,f,60ff10899697dd7bdbdac10f,2021-09-08_15h00.13.544,forced_choiceRT,2021.1.2,Win32,69.22810661,,,,,,,,,,,,,,,,,,,,,,
,0,f,1,0.5208,6,1,25,0,1,f.PNG,f,60ff10899697dd7bdbdac10f,2021-09-08_15h00.13.544,forced_choiceRT,2021.1.2,Win32,69.22810661,,,,,,,,,,,,,,,,,,,,,,
,0,j,1,0.7822,6,2,26,3,1,j.PNG,j,60ff10899697dd7bdbdac10f,2021-09-08_15h00.13.544,forced_choiceRT,2021.1.2,Win32,69.22810661,,,,,,,,,,,,,,,,,,,,,,
,0,g,1,0.7252,6,3,27,1,1,g.PNG,g,60ff10899697dd7bdbdac10f,2021-09-08_15h00.13.544,forced_choiceRT,2021.1.2,Win32,69.22810661,,,,,,,,,,,,,,,,,,,,,,
,0,h,1,0.5907,7,0,28,2,1,h.PNG,h,60ff10899697dd7bdbdac10f,2021-09-08_15h00.13.544,forced_choiceRT,2021.1.2,Win32,69.22810661,,,,,,,,,,,,,,,,,,,,,,
,0,j,1,0.6353,7,1,29,3,1,j.PNG,j,60ff10899697dd7bdbdac10f,2021-09-08_15h00.13.544,forced_choiceRT,2021.1.2,Win32,69.22810661,,,,,,,,,,,,,,,,,,,,,,
,0,g,1,0.6672,7,2,30,1,1,g.PNG,g,60ff10899697dd7bdbdac10f,2021-09-08_15h00.13.544,forced_choiceRT,2021.1.2,Win32,69.22810661,,,,,,,,,,,,,,,,,,,,,,
,0,j,1,0.716,7,3,31,3,1,j.PNG,j,60ff10899697dd7bdbdac10f,2021-09-08_15h00.13.544,forced_choiceRT,2021.1.2,Win32,69.22810661,,,,,,,,,,,,,,,,,,,,,,
,0,g,1,0.8329,8,0,32,1,1,g.PNG,g,60ff10899697dd7bdbdac10f,2021-09-08_15h00.13.544,forced_choiceRT,2021.1.2,Win32,69.22810661,,,,,,,,,,,,,,,,,,,,,,
,0,f,1,0.5392,8,1,33,0,1,f.PNG,f,60ff10899697dd7bdbdac10f,2021-09-08_15h00.13.544,forced_choiceRT,2021.1.2,Win32,69.22810661,,,,,,,,,,,,,,,,,,,,,,
,0,h,1,0.666,8,2,34,2,1,h.PNG,h,60ff10899697dd7bdbdac10f,2021-09-08_15h00.13.544,forced_choiceRT,2021.1.2,Win32,69.22810661,,,,,,,,,,,,,,,,,,,,,,
,0,f,1,0.5943,8,3,35,0,1,f.PNG,f,60ff10899697dd7bdbdac10f,2021-09-08_15h00.13.544,forced_choiceRT,2021.1.2,Win32,69.22810661,,,,,,,,,,,,,,,,,,,,,,
,0,g,1,0.5495,9,0,36,1,1,g.PNG,g,60ff10899697dd7bdbdac10f,2021-09-08_15h00.13.544,forced_choiceRT,2021.1.2,Win32,69.22810661,,,,,,,,,,,,,,,,,,,,,,
,0,h,1,0.6165,9,1,37,2,1,h.PNG,h,60ff10899697dd7bdbdac10f,2021-09-08_15h00.13.544,forced_choiceRT,2021.1.2,Win32,69.22810661,,,,,,,,,,,,,,,,,,,,,,
,0,f,1,0.5945,9,2,38,0,1,f.PNG,f,60ff10899697dd7bdbdac10f,2021-09-08_15h00.13.544,forced_choiceRT,2021.1.2,Win32,69.22810661,,,,,,,,,,,,,,,,,,,,,,
,0,g,1,0.7308,9,3,39,1,1,g.PNG,g,60ff10899697dd7bdbdac10f,2021-09-08_15h00.13.544,forced_choiceRT,2021.1.2,Win32,69.22810661,,,,,,,,,,,,,,,,,,,,,,
,0,j,1,0.6087,10,0,40,3,1,j.PNG,j,60ff10899697dd7bdbdac10f,2021-09-08_15h00.13.544,forced_choiceRT,2021.1.2,Win32,69.22810661,,,,,,,,,,,,,,,,,,,,,,
,0,g,1,0.6498,10,1,41,1,1,g.PNG,g,60ff10899697dd7bdbdac10f,2021-09-08_15h00.13.544,forced_choiceRT,2021.1.2,Win32,69.22810661,,,,,,,,,,,,,,,,,,,,,,
,0,h,1,0.9139,10,2,42,2,1,h.PNG,h,60ff10899697dd7bdbdac10f,2021-09-08_15h00.13.544,forced_choiceRT,2021.1.2,Win32,69.22810661,,,,,,,,,,,,,,,,,,,,,,
,0,f,1,0.6058,10,3,43,0,1,f.PNG,f,60ff10899697dd7bdbdac10f,2021-09-08_15h00.13.544,forced_choiceRT,2021.1.2,Win32,69.22810661,,,,,,,,,,,,,,,,,,,,,,
,0,j,1,0.6773,11,0,44,3,1,j.PNG,j,60ff10899697dd7bdbdac10f,2021-09-08_15h00.13.544,forced_choiceRT,2021.1.2,Win32,69.22810661,,,,,,,,,,,,,,,,,,,,,,
,0,f,1,0.5873,11,1,45,0,1,f.PNG,f,60ff10899697dd7bdbdac10f,2021-09-08_15h00.13.544,forced_choiceRT,2021.1.2,Win32,69.22810661,,,,,,,,,,,,,,,,,,,,,,
,0,g,1,0.6266,11,2,46,1,1,g.PNG,g,60ff10899697dd7bdbdac10f,2021-09-08_15h00.13.544,forced_choiceRT,2021.1.2,Win32,69.22810661,,,,,,,,,,,,,,,,,,,,,,
,0,h,1,1.7512,11,3,47,2,1,h.PNG,h,60ff10899697dd7bdbdac10f,2021-09-08_15h00.13.544,forced_choiceRT,2021.1.2,Win32,69.22810661,,,,,,,,,,,,,,,,,,,,,,
,0,j,1,0.6968,12,0,48,3,1,j.PNG,j,60ff10899697dd7bdbdac10f,2021-09-08_15h00.13.544,forced_choiceRT,2021.1.2,Win32,69.22810661,,,,,,,,,,,,,,,,,,,,,,
,0,f,1,0.5329,12,1,49,0,1,f.PNG,f,60ff10899697dd7bdbdac10f,2021-09-08_15h00.13.544,forced_choiceRT,2021.1.2,Win32,69.22810661,,,,,,,,,,,,,,,,,,,,,,
,0,j,1,0.7826,12,2,50,3,1,j.PNG,j,60ff10899697dd7bdbdac10f,2021-09-08_15h00.13.544,forced_choiceRT,2021.1.2,Win32,69.22810661,,,,,,,,,,,,,,,,,,,,,,
,0,h,1,0.6108,12,3,51,2,1,h.PNG,h,60ff10899697dd7bdbdac10f,2021-09-08_15h00.13.544,forced_choiceRT,2021.1.2,Win32,69.22810661,,,,,,,,,,,,,,,,,,,,,,
,0,g,1,0.5378,13,0,52,1,1,g.PNG,g,60ff10899697dd7bdbdac10f,2021-09-08_15h00.13.544,forced_choiceRT,2021.1.2,Win32,69.22810661,,,,,,,,,,,,,,,,,,,,,,
,0,h,1,0.6941,13,1,53,2,1,h.PNG,h,60ff10899697dd7bdbdac10f,2021-09-08_15h00.13.544,forced_choiceRT,2021.1.2,Win32,69.22810661,,,,,,,,,,,,,,,,,,,,,,
,0,f,1,0.5765,13,2,54,0,1,f.PNG,f,60ff10899697dd7bdbdac10f,2021-09-08_15h00.13.544,forced_choiceRT,2021.1.2,Win32,69.22810661,,,,,,,,,,,,,,,,,,,,,,
,0,g,1,0.6409,13,3,55,1,1,g.PNG,g,60ff10899697dd7bdbdac10f,2021-09-08_15h00.13.544,forced_choiceRT,2021.1.2,Win32,69.22810661,,,,,,,,,,,,,,,,,,,,,,
,0,h,1,0.7295,14,0,56,2,1,h.PNG,h,60ff10899697dd7bdbdac10f,2021-09-08_15h00.13.544,forced_choiceRT,2021.1.2,Win32,69.22810661,,,,,,,,,,,,,,,,,,,,,,
,0,f,1,0.6455,14,1,57,0,1,f.PNG,f,60ff10899697dd7bdbdac10f,2021-09-08_15h00.13.544,forced_choiceRT,2021.1.2,Win32,69.22810661,,,,,,,,,,,,,,,,,,,,,,
,0,j,1,0.7192,14,2,58,3,1,j.PNG,j,60ff10899697dd7bdbdac10f,2021-09-08_15h00.13.544,forced_choiceRT,2021.1.2,Win32,69.22810661,,,,,,,,,,,,,,,,,,,,,,
,0,h,1,0.7664,14,3,59,2,1,h.PNG,h,60ff10899697dd7bdbdac10f,2021-09-08_15h00.13.544,forced_choiceRT,2021.1.2,Win32,69.22810661,,,,,,,,,,,,,,,,,,,,,,
,,,,,,,,,,,,60ff10899697dd7bdbdac10f,2021-09-08_15h00.13.544,forced_choiceRT,2021.1.2,Win32,69.22810661,g,2.1497,0,0,0,0,1,,,,,,,,,,,,,,,
,,,,,,,,,,,,60ff10899697dd7bdbdac10f,2021-09-08_15h00.13.544,forced_choiceRT,2021.1.2,Win32,69.22810661,g,2.0174,1,0,1,0,1,,,,,,,,,,,,,,,
,,,,,,,,,,,,60ff10899697dd7bdbdac10f,2021-09-08_15h00.13.544,forced_choiceRT,2021.1.2,Win32,69.22810661,h,2.0652,2,0,2,0,1,,,,,,,,,,,,,,,
,,,,,,,,,,,,60ff10899697dd7bdbdac10f,2021-09-08_15h00.13.544,forced_choiceRT,2021.1.2,Win32,69.22810661,j,2.0476,3,0,3,0,1,,,,,,,,,,,,,,,
,,,,,,,,,,,,60ff10899697dd7bdbdac10f,2021-09-08_15h00.13.544,forced_choiceRT,2021.1.2,Win32,69.22810661,h,2.009,4,0,4,0,1,,,,,,,,,,,,,,,
,,,,,,,,,,,,60ff10899697dd7bdbdac10f,2021-09-08_15h00.13.544,forced_choiceRT,2021.1.2,Win32,69.22810661,f,1.9626,5,0,5,0,1,,,,,,,,,,,,,,,
,,,,,,,,,,,,60ff10899697dd7bdbdac10f,2021-09-08_15h00.13.544,forced_choiceRT,2021.1.2,Win32,69.22810661,g,2.0208,6,0,6,0,1,,,,,,,,,,,,,,,
,,,,,,,,,,,,60ff10899697dd7bdbdac10f,2021-09-08_15h00.13.544,forced_choiceRT,2021.1.2,Win32,69.22810661,h,2.0035,7,0,7,0,1,,,,,,,,,,,,,,,
,,,,,,,,,,,,60ff10899697dd7bdbdac10f,2021-09-08_15h00.13.544,forced_choiceRT,2021.1.2,Win32,69.22810661,j,1.9995,8,0,8,0,1,,,,,,,,,,,,,,,
,,,,,,,,,,,,60ff10899697dd7bdbdac10f,2021-09-08_15h00.13.544,forced_choiceRT,2021.1.2,Win32,69.22810661,h,2.0192,9,0,9,0,1,,,,,,,,,,,,,,,
,,,,,,,,,,,,60ff10899697dd7bdbdac10f,2021-09-08_15h00.13.544,forced_choiceRT,2021.1.2,Win32,69.22810661,g,2.0028,10,0,10,0,1,,,,,,,,,,,,,,,
,,,,,,,,,,,,60ff10899697dd7bdbdac10f,2021-09-08_15h00.13.544,forced_choiceRT,2021.1.2,Win32,69.22810661,f,2.0067,11,0,11,0,1,,,,,,,,,,,,,,,
,,,,,,,,,,,,60ff10899697dd7bdbdac10f,2021-09-08_15h00.13.544,forced_choiceRT,2021.1.2,Win32,69.22810661,g,2.0457,12,0,12,0,1,,,,,,,,,,,,,,,
,,,,,,,,,,,,60ff10899697dd7bdbdac10f,2021-09-08_15h00.13.544,forced_choiceRT,2021.1.2,Win32,69.22810661,h,1.9681,13,0,13,0,1,,,,,,,,,,,,,,,
,,,,,,,,,,,,60ff10899697dd7bdbdac10f,2021-09-08_15h00.13.544,forced_choiceRT,2021.1.2,Win32,69.22810661,j,1.9785,14,0,14,0,1,,,,,,,,,,,,,,,
,,,,,,,,,,,,60ff10899697dd7bdbdac10f,2021-09-08_15h00.13.544,forced_choiceRT,2021.1.2,Win32,69.22810661,h,2.0595,15,0,15,0,1,,,,,,,,,,,,,,,
,,,,,,,,,,,,60ff10899697dd7bdbdac10f,2021-09-08_15h00.13.544,forced_choiceRT,2021.1.2,Win32,69.22810661,g,2.0182,16,0,16,0,1,,,,,,,,,,,,,,,
,,,,,,,,,,,,60ff10899697dd7bdbdac10f,2021-09-08_15h00.13.544,forced_choiceRT,2021.1.2,Win32,69.22810661,f,2.0055,17,0,17,0,1,,,,,,,,,,,,,,,
,,,,,,,,,,,,60ff10899697dd7bdbdac10f,2021-09-08_15h00.13.544,forced_choiceRT,2021.1.2,Win32,69.22810661,g,2.0168,18,0,18,0,1,,,,,,,,,,,,,,,
,,,,,,,,,,,,60ff10899697dd7bdbdac10f,2021-09-08_15h00.13.544,forced_choiceRT,2021.1.2,Win32,69.22810661,h,1.9648,19,0,19,0,1,,,,,,,,,,,,,,,
,0.66,,,,,,,,,g.PNG,g,60ff10899697dd7bdbdac10f,2021-09-08_15h00.13.544,forced_choiceRT,2021.1.2,Win32,69.22810661,,,,,,,,1,Ontime,g,1,2.0456,0,0,0,1,1,,,,,
,1.87,,,,,,,,,j.PNG,j,60ff10899697dd7bdbdac10f,2021-09-08_15h00.13.544,forced_choiceRT,2021.1.2,Win32,69.22810661,,,,,,,,1,Ontime,g,0,2.047,0,1,1,3,1,,,,,
,0.22,,,,,,,,,f.PNG,f,60ff10899697dd7bdbdac10f,2021-09-08_15h00.13.544,forced_choiceRT,2021.1.2,Win32,69.22810661,,,,,,,,1,Ontime,f,1,1.9722,0,2,2,0,1,,,,,
,1.41,,,,,,,,,g.PNG,g,60ff10899697dd7bdbdac10f,2021-09-08_15h00.13.544,forced_choiceRT,2021.1.2,Win32,69.22810661,,,,,,,,1,Ontime,g,1,2.0008,0,3,3,1,1,,,,,
,0.18,,,,,,,,,j.PNG,j,60ff10899697dd7bdbdac10f,2021-09-08_15h00.13.544,forced_choiceRT,2021.1.2,Win32,69.22810661,,,,,,,,1,Ontime,j,1,1.9839,1,0,4,3,1,,,,,
,0.33,,,,,,,,,h.PNG,h,60ff10899697dd7bdbdac10f,2021-09-08_15h00.13.544,forced_choiceRT,2021.1.2,Win32,69.22810661,,,,,,,,1,Ontime,h,1,2.0179,1,1,5,2,1,,,,,
,0.82,,,,,,,,,g.PNG,g,60ff10899697dd7bdbdac10f,2021-09-08_15h00.13.544,forced_choiceRT,2021.1.2,Win32,69.22810661,,,,,,,,1,Ontime,g,1,2.017,1,2,6,1,1,,,,,
,1.49,,,,,,,,,h.PNG,h,60ff10899697dd7bdbdac10f,2021-09-08_15h00.13.544,forced_choiceRT,2021.1.2,Win32,69.22810661,,,,,,,,1,Slow,h,1,2.1003,1,3,7,2,1,,,,,
,1.98,,,,,,,,,f.PNG,f,60ff10899697dd7bdbdac10f,2021-09-08_15h00.13.544,forced_choiceRT,2021.1.2,Win32,69.22810661,,,,,,,,1,Slow,h,0,2.2169,2,0,8,0,1,,,,,
,0.79,,,,,,,,,g.PNG,g,60ff10899697dd7bdbdac10f,2021-09-08_15h00.13.544,forced_choiceRT,2021.1.2,Win32,69.22810661,,,,,,,,1,Ontime,g,1,1.9274,2,1,9,1,1,,,,,
,1.29,,,,,,,,,j.PNG,j,60ff10899697dd7bdbdac10f,2021-09-08_15h00.13.544,forced_choiceRT,2021.1.2,Win32,69.22810661,,,,,,,,1,Ontime,j,1,1.9673,2,2,10,3,1,,,,,
,1.65,,,,,,,,,j.PNG,j,60ff10899697dd7bdbdac10f,2021-09-08_15h00.13.544,forced_choiceRT,2021.1.2,Win32,69.22810661,,,,,,,,1,Ontime,g,0,2.0569,2,3,11,3,1,,,,,
,0.9,,,,,,,,,j.PNG,j,60ff10899697dd7bdbdac10f,2021-09-08_15h00.13.544,forced_choiceRT,2021.1.2,Win32,69.22810661,,,,,,,,1,Ontime,j,1,1.9535,3,0,12,3,1,,,,,
,0.64,,,,,,,,,f.PNG,f,60ff10899697dd7bdbdac10f,2021-09-08_15h00.13.544,forced_choiceRT,2021.1.2,Win32,69.22810661,,,,,,,,1,Ontime,f,1,2.0162,3,1,13,0,1,,,,,
,1.96,,,,,,,,,g.PNG,g,60ff10899697dd7bdbdac10f,2021-09-08_15h00.13.544,forced_choiceRT,2021.1.2,Win32,69.22810661,,,,,,,,1,Slow,h,0,2.321,3,2,14,1,1,,,,,
,1.1,,,,,,,,,g.PNG,g,60ff10899697dd7bdbdac10f,2021-09-08_15h00.13.544,forced_choiceRT,2021.1.2,Win32,69.22810661,,,,,,,,1,Ontime,g,1,2.0438,3,3,15,1,1,,,,,
,1.39,,,,,,,,,g.PNG,g,60ff10899697dd7bdbdac10f,2021-09-08_15h00.13.544,forced_choiceRT,2021.1.2,Win32,69.22810661,,,,,,,,1,Ontime,g,1,1.9761,4,0,16,1,1,,,,,
,1.28,,,,,,,,,h.PNG,h,60ff10899697dd7bdbdac10f,2021-09-08_15h00.13.544,forced_choiceRT,2021.1.2,Win32,69.22810661,,,,,,,,1,Ontime,h,1,2.0025,4,1,17,2,1,,,,,
,1.13,,,,,,,,,f.PNG,f,60ff10899697dd7bdbdac10f,2021-09-08_15h00.13.544,forced_choiceRT,2021.1.2,Win32,69.22810661,,,,,,,,1,Ontime,f,1,1.9439,4,2,18,0,1,,,,,
,0.97,,,,,,,,,j.PNG,j,60ff10899697dd7bdbdac10f,2021-09-08_15h00.13.544,forced_choiceRT,2021.1.2,Win32,69.22810661,,,,,,,,1,Ontime,j,1,1.9613,4,3,19,3,1,,,,,
,1.72,,,,,,,,,g.PNG,g,60ff10899697dd7bdbdac10f,2021-09-08_15h00.13.544,forced_choiceRT,2021.1.2,Win32,69.22810661,,,,,,,,1,Slow,h,0,2.1041,5,0,20,1,1,,,,,
,0.88,,,,,,,,,h.PNG,h,60ff10899697dd7bdbdac10f,2021-09-08_15h00.13.544,forced_choiceRT,2021.1.2,Win32,69.22810661,,,,,,,,1,Ontime,h,1,1.9172,5,1,21,2,1,,,,,
,1.57,,,,,,,,,g.PNG,g,60ff10899697dd7bdbdac10f,2021-09-08_15h00.13.544,forced_choiceRT,2021.1.2,Win32,69.22810661,,,,,,,,1,Ontime,g,1,2.062,5,2,22,1,1,,,,,
,1.04,,,,,,,,,f.PNG,f,60ff10899697dd7bdbdac10f,2021-09-08_15h00.13.544,forced_choiceRT,2021.1.2,Win32,69.22810661,,,,,,,,1,Ontime,f,1,1.9043,5,3,23,0,1,,,,,
,1.93,,,,,,,,,f.PNG,f,60ff10899697dd7bdbdac10f,2021-09-08_15h00.13.544,forced_choiceRT,2021.1.2,Win32,69.22810661,,,,,,,,1,Slow,g,0,2.3659,6,0,24,0,1,,,,,
,0.37,,,,,,,,,h.PNG,h,60ff10899697dd7bdbdac10f,2021-09-08_15h00.13.544,forced_choiceRT,2021.1.2,Win32,69.22810661,,,,,,,,1,Ontime,h,1,1.9998,6,1,25,2,1,,,,,
,0.78,,,,,,,,,h.PNG,h,60ff10899697dd7bdbdac10f,2021-09-08_15h00.13.544,forced_choiceRT,2021.1.2,Win32,69.22810661,,,,,,,,1,Ontime,h,1,1.9504,6,2,26,2,1,,,,,
,1.32,,,,,,,,,f.PNG,f,60ff10899697dd7bdbdac10f,2021-09-08_15h00.13.544,forced_choiceRT,2021.1.2,Win32,69.22810661,,,,,,,,1,Ontime,f,1,2.0002,6,3,27,0,1,,,,,
,1.39,,,,,,,,,f.PNG,f,60ff10899697dd7bdbdac10f,2021-09-08_15h00.13.544,forced_choiceRT,2021.1.2,Win32,69.22810661,,,,,,,,1,Ontime,f,1,1.933,7,0,28,0,1,,,,,
,0.21,,,,,,,,,h.PNG,h,60ff10899697dd7bdbdac10f,2021-09-08_15h00.13.544,forced_choiceRT,2021.1.2,Win32,69.22810661,,,,,,,,1,Ontime,h,1,1.9715,7,1,29,2,1,,,,,
,1.36,,,,,,,,,h.PNG,h,60ff10899697dd7bdbdac10f,2021-09-08_15h00.13.544,forced_choiceRT,2021.1.2,Win32,69.22810661,,,,,,,,1,Slow,h,1,2.1679,7,2,30,2,1,,,,,
,1.78,,,,,,,,,g.PNG,g,60ff10899697dd7bdbdac10f,2021-09-08_15h00.13.544,forced_choiceRT,2021.1.2,Win32,69.22810661,,,,,,,,1,Slow,g,1,2.1844,7,3,31,1,1,,,,,
,0.66,,,,,,,,,f.PNG,f,60ff10899697dd7bdbdac10f,2021-09-08_15h00.13.544,forced_choiceRT,2021.1.2,Win32,69.22810661,,,,,,,,1,Ontime,f,1,1.9675,8,0,32,0,1,,,,,
,0.26,,,,,,,,,h.PNG,h,60ff10899697dd7bdbdac10f,2021-09-08_15h00.13.544,forced_choiceRT,2021.1.2,Win32,69.22810661,,,,,,,,1,Ontime,h,1,1.9829,8,1,33,2,1,,,,,
,0.67,,,,,,,,,j.PNG,j,60ff10899697dd7bdbdac10f,2021-09-08_15h00.13.544,forced_choiceRT,2021.1.2,Win32,69.22810661,,,,,,,,1,Ontime,j,1,1.9837,8,2,34,3,1,,,,,
,1.09,,,,,,,,,j.PNG,j,60ff10899697dd7bdbdac10f,2021-09-08_15h00.13.544,forced_choiceRT,2021.1.2,Win32,69.22810661,,,,,,,,1,Ontime,j,1,1.9512,8,3,35,3,1,,,,,
,1.58,,,,,,,,,j.PNG,j,60ff10899697dd7bdbdac10f,2021-09-08_15h00.13.544,forced_choiceRT,2021.1.2,Win32,69.22810661,,,,,,,,1,Ontime,j,1,2.0015,9,0,36,3,1,,,,,
,0.77,,,,,,,,,f.PNG,f,60ff10899697dd7bdbdac10f,2021-09-08_15h00.13.544,forced_choiceRT,2021.1.2,Win32,69.22810661,,,,,,,,1,Ontime,f,1,1.9673,9,1,37,0,1,,,,,
,0,,,,,,,,,h.PNG,h,60ff10899697dd7bdbdac10f,2021-09-08_15h00.13.544,forced_choiceRT,2021.1.2,Win32,69.22810661,,,,,,,,1,Ontime,h,1,1.9178,9,2,38,2,1,,,,,
,1.26,,,,,,,,,j.PNG,j,60ff10899697dd7bdbdac10f,2021-09-08_15h00.13.544,forced_choiceRT,2021.1.2,Win32,69.22810661,,,,,,,,1,Ontime,j,1,2.0138,9,3,39,3,1,,,,,
,,,,,,,,,,,,60ff10899697dd7bdbdac10f,2021-09-08_15h00.13.544,forced_choiceRT,2021.1.2,Win32,69.22810661,,,,,,,,,,,,,,,,,,0,0,0,0,1
,1.56,,,,,,,,,g.PNG,g,60ff10899697dd7bdbdac10f,2021-09-08_15h00.13.544,forced_choiceRT,2021.1.2,Win32,69.22810661,,,,,,,,2,Ontime,g,1,2.0465,0,0,0,1,1,,,,,
,0.23,,,,,,,,,f.PNG,f,60ff10899697dd7bdbdac10f,2021-09-08_15h00.13.544,forced_choiceRT,2021.1.2,Win32,69.22810661,,,,,,,,2,Ontime,f,1,1.9594,0,1,1,0,1,,,,,
,1.33,,,,,,,,,h.PNG,h,60ff10899697dd7bdbdac10f,2021-09-08_15h00.13.544,forced_choiceRT,2021.1.2,Win32,69.22810661,,,,,,,,2,Ontime,h,1,1.9748,0,2,2,2,1,,,,,
,1.63,,,,,,,,,f.PNG,f,60ff10899697dd7bdbdac10f,2021-09-08_15h00.13.544,forced_choiceRT,2021.1.2,Win32,69.22810661,,,,,,,,2,Ontime,j,0,2.0182,0,3,3,0,1,,,,,
,0.75,,,,,,,,,j.PNG,j,60ff10899697dd7bdbdac10f,2021-09-08_15h00.13.544,forced_choiceRT,2021.1.2,Win32,69.22810661,,,,,,,,2,Ontime,j,1,1.9385,1,0,4,3,1,,,,,
,0.93,,,,,,,,,j.PNG,j,60ff10899697dd7bdbdac10f,2021-09-08_15h00.13.544,forced_choiceRT,2021.1.2,Win32,69.22810661,,,,,,,,2,Ontime,j,1,1.9243,1,1,5,3,1,,,,,
,1.89,,,,,,,,,f.PNG,f,60ff10899697dd7bdbdac10f,2021-09-08_15h00.13.544,forced_choiceRT,2021.1.2,Win32,69.22810661,,,,,,,,2,Ontime,f,1,1.9232,1,2,6,0,1,,,,,
,0,,,,,,,,,h.PNG,h,60ff10899697dd7bdbdac10f,2021-09-08_15h00.13.544,forced_choiceRT,2021.1.2,Win32,69.22810661,,,,,,,,2,Ontime,h,1,1.9566,1,3,7,2,1,,,,,
,0.15,,,,,,,,,f.PNG,f,60ff10899697dd7bdbdac10f,2021-09-08_15h00.13.544,forced_choiceRT,2021.1.2,Win32,69.22810661,,,,,,,,2,Ontime,f,1,1.9685,2,0,8,0,1,,,,,
,1.79,,,,,,,,,j.PNG,j,60ff10899697dd7bdbdac10f,2021-09-08_15h00.13.544,forced_choiceRT,2021.1.2,Win32,69.22810661,,,,,,,,2,Ontime,f,0,2.0359,2,1,9,3,1,,,,,
,0.96,,,,,,,,,h.PNG,h,60ff10899697dd7bdbdac10f,2021-09-08_15h00.13.544,forced_choiceRT,2021.1.2,Win32,69.22810661,,,,,,,,2,Ontime,h,1,1.9599,2,2,10,2,1,,,,,
,1.13,,,,,,,,,h.PNG,h,60ff10899697dd7bdbdac10f,2021-09-08_15h00.13.544,forced_choiceRT,2021.1.2,Win32,69.22810661,,,,,,,,2,Ontime,h,1,1.9826,2,3,11,2,1,,,,,
,1.23,,,,,,,,,f.PNG,f,60ff10899697dd7bdbdac10f,2021-09-08_15h00.13.544,forced_choiceRT,2021.1.2,Win32,69.22810661,,,,,,,,2,Ontime,f,1,2.0009,3,0,12,0,1,,,,,
,0.97,,,,,,,,,h.PNG,h,60ff10899697dd7bdbdac10f,2021-09-08_15h00.13.544,forced_choiceRT,2021.1.2,Win32,69.22810661,,,,,,,,2,Ontime,h,1,1.9679,3,1,13,2,1,,,,,
,1.87,,,,,,,,,f.PNG,f,60ff10899697dd7bdbdac10f,2021-09-08_15h00.13.544,forced_choiceRT,2021.1.2,Win32,69.22810661,,,,,,,,2,Ontime,g,0,1.9827,3,2,14,0,1,,,,,
,0.15,,,,,,,,,h.PNG,h,60ff10899697dd7bdbdac10f,2021-09-08_15h00.13.544,forced_choiceRT,2021.1.2,Win32,69.22810661,,,,,,,,2,Ontime,h,1,1.9671,3,3,15,2,1,,,,,
,0.2,,,,,,,,,g.PNG,g,60ff10899697dd7bdbdac10f,2021-09-08_15h00.13.544,forced_choiceRT,2021.1.2,Win32,69.22810661,,,,,,,,2,Ontime,g,1,1.9772,4,0,16,1,1,,,,,
,0.79,,,,,,,,,j.PNG,j,60ff10899697dd7bdbdac10f,2021-09-08_15h00.13.544,forced_choiceRT,2021.1.2,Win32,69.22810661,,,,,,,,2,Ontime,j,1,1.988,4,1,17,3,1,,,,,
,1.19,,,,,,,,,h.PNG,h,60ff10899697dd7bdbdac10f,2021-09-08_15h00.13.544,forced_choiceRT,2021.1.2,Win32,69.22810661,,,,,,,,2,Ontime,h,1,1.9679,4,2,18,2,1,,,,,
,1.08,,,,,,,,,f.PNG,f,60ff10899697dd7bdbdac10f,2021-09-08_15h00.13.544,forced_choiceRT,2021.1.2,Win32,69.22810661,,,,,,,,2,Ontime,f,1,1.9199,4,3,19,0,1,,,,,
,1.88,,,,,,,,,g.PNG,g,60ff10899697dd7bdbdac10f,2021-09-08_15h00.13.544,forced_choiceRT,2021.1.2,Win32,69.22810661,,,,,,,,2,Ontime,h,0,1.975,5,0,20,1,1,,,,,
,0.36,,,,,,,,,g.PNG,g,60ff10899697dd7bdbdac10f,2021-09-08_15h00.13.544,forced_choiceRT,2021.1.2,Win32,69.22810661,,,,,,,,2,Ontime,g,1,1.9181,5,1,21,1,1,,,,,
,0.33,,,,,,,,,j.PNG,j,60ff10899697dd7bdbdac10f,2021-09-08_15h00.13.544,forced_choiceRT,2021.1.2,Win32,69.22810661,,,,,,,,2,Ontime,j,1,1.9654,5,2,22,3,1,,,,,
,0.13,,,,,,,,,j.PNG,j,60ff10899697dd7bdbdac10f,2021-09-08_15h00.13.544,forced_choiceRT,2021.1.2,Win32,69.22810661,,,,,,,,2,Ontime,j,1,2.0251,5,3,23,3,1,,,,,
,1.22,,,,,,,,,f.PNG,f,60ff10899697dd7bdbdac10f,2021-09-08_15h00.13.544,forced_choiceRT,2021.1.2,Win32,69.22810661,,,,,,,,2,Ontime,f,1,2.0339,6,0,24,0,1,,,,,
,1.65,,,,,,,,,j.PNG,j,60ff10899697dd7bdbdac10f,2021-09-08_15h00.13.544,forced_choiceRT,2021.1.2,Win32,69.22810661,,,,,,,,2,Slow,j,1,2.1542,6,1,25,3,1,,,,,
,0,,,,,,,,,h.PNG,h,60ff10899697dd7bdbdac10f,2021-09-08_15h00.13.544,forced_choiceRT,2021.1.2,Win32,69.22810661,,,,,,,,2,Ontime,h,1,1.989,6,2,26,2,1,,,,,
,0.16,,,,,,,,,j.PNG,j,60ff10899697dd7bdbdac10f,2021-09-08_15h00.13.544,forced_choiceRT,2021.1.2,Win32,69.22810661,,,,,,,,2,Ontime,j,1,2.0401,6,3,27,3,1,,,,,
,0.66,,,,,,,,,j.PNG,j,60ff10899697dd7bdbdac10f,2021-09-08_15h00.13.544,forced_choiceRT,2021.1.2,Win32,69.22810661,,,,,,,,2,Ontime,j,1,1.9182,7,0,28,3,1,,,,,
,1.68,,,,,,,,,g.PNG,g,60ff10899697dd7bdbdac10f,2021-09-08_15h00.13.544,forced_choiceRT,2021.1.2,Win32,69.22810661,,,,,,,,2,Slow,g,1,2.1332,7,1,29,1,1,,,,,
,1.81,,,,,,,,,h.PNG,h,60ff10899697dd7bdbdac10f,2021-09-08_15h00.13.544,forced_choiceRT,2021.1.2,Win32,69.22810661,,,,,,,,2,Ontime,g,0,1.9702,7,2,30,2,1,,,,,
,1.02,,,,,,,,,g.PNG,g,60ff10899697dd7bdbdac10f,2021-09-08_15h00.13.544,forced_choiceRT,2021.1.2,Win32,69.22810661,,,,,,,,2,Ontime,g,1,1.9305,7,3,31,1,1,,,,,
,0.89,,,,,,,,,g.PNG,g,60ff10899697dd7bdbdac10f,2021-09-08_15h00.13.544,forced_choiceRT,2021.1.2,Win32,69.22810661,,,,,,,,2,Ontime,g,1,1.9456,8,0,32,1,1,,,,,
,0.33,,,,,,,,,h.PNG,h,60ff10899697dd7bdbdac10f,2021-09-08_15h00.13.544,forced_choiceRT,2021.1.2,Win32,69.22810661,,,,,,,,2,Ontime,h,1,1.9325,8,1,33,2,1,,,,,
,1.95,,,,,,,,,j.PNG,j,60ff10899697dd7bdbdac10f,2021-09-08_15h00.13.544,forced_choiceRT,2021.1.2,Win32,69.22810661,,,,,,,,2,Ontime,g,0,1.9576,8,2,34,3,1,,,,,
,1.58,,,,,,,,,g.PNG,g,60ff10899697dd7bdbdac10f,2021-09-08_15h00.13.544,forced_choiceRT,2021.1.2,Win32,69.22810661,,,,,,,,2,Ontime,g,1,2.0343,8,3,35,1,1,,,,,
,1.85,,,,,,,,,f.PNG,f,60ff10899697dd7bdbdac10f,2021-09-08_15h00.13.544,forced_choiceRT,2021.1.2,Win32,69.22810661,,,,,,,,2,Ontime,g,0,1.9323,9,0,36,0,1,,,,,
,1.06,,,,,,,,,g.PNG,g,60ff10899697dd7bdbdac10f,2021-09-08_15h00.13.544,forced_choiceRT,2021.1.2,Win32,69.22810661,,,,,,,,2,Ontime,g,1,1.9974,9,1,37,1,1,,,,,
,0.81,,,,,,,,,g.PNG,g,60ff10899697dd7bdbdac10f,2021-09-08_15h00.13.544,forced_choiceRT,2021.1.2,Win32,69.22810661,,,,,,,,2,Ontime,g,1,1.9533,9,2,38,1,1,,,,,
,0.77,,,,,,,,,f.PNG,f,60ff10899697dd7bdbdac10f,2021-09-08_15h00.13.544,forced_choiceRT,2021.1.2,Win32,69.22810661,,,,,,,,2,Ontime,f,1,2.0069,9,3,39,0,1,,,,,
,,,,,,,,,,,,60ff10899697dd7bdbdac10f,2021-09-08_15h00.13.544,forced_choiceRT,2021.1.2,Win32,69.22810661,,,,,,,,,,,,,,,,,,1,0,1,0,1
,1.27,,,,,,,,,h.PNG,h,60ff10899697dd7bdbdac10f,2021-09-08_15h00.13.544,forced_choiceRT,2021.1.2,Win32,69.22810661,,,,,,,,3,Ontime,h,1,2.0323,0,0,0,2,1,,,,,
,1.18,,,,,,,,,g.PNG,g,60ff10899697dd7bdbdac10f,2021-09-08_15h00.13.544,forced_choiceRT,2021.1.2,Win32,69.22810661,,,,,,,,3,Ontime,g,1,1.9193,0,1,1,1,1,,,,,
,0.3,,,,,,,,,f.PNG,f,60ff10899697dd7bdbdac10f,2021-09-08_15h00.13.544,forced_choiceRT,2021.1.2,Win32,69.22810661,,,,,,,,3,Ontime,f,1,2.0197,0,2,2,0,1,,,,,
,0.28,,,,,,,,,h.PNG,h,60ff10899697dd7bdbdac10f,2021-09-08_15h00.13.544,forced_choiceRT,2021.1.2,Win32,69.22810661,,,,,,,,3,Ontime,h,1,1.9849,0,3,3,2,1,,,,,
,1.84,,,,,,,,,j.PNG,j,60ff10899697dd7bdbdac10f,2021-09-08_15h00.13.544,forced_choiceRT,2021.1.2,Win32,69.22810661,,,,,,,,3,Ontime,f,0,1.9423,1,0,4,3,1,,,,,
,1.1,,,,,,,,,g.PNG,g,60ff10899697dd7bdbdac10f,2021-09-08_15h00.13.544,forced_choiceRT,2021.1.2,Win32,69.22810661,,,,,,,,3,Ontime,g,1,1.9856,1,1,5,1,1,,,,,
,1.67,,,,,,,,,g.PNG,g,60ff10899697dd7bdbdac10f,2021-09-08_15h00.13.544,forced_choiceRT,2021.1.2,Win32,69.22810661,,,,,,,,3,Ontime,h,0,1.953,1,2,6,1,1,,,,,
,0.45,,,,,,,,,h.PNG,h,60ff10899697dd7bdbdac10f,2021-09-08_15h00.13.544,forced_choiceRT,2021.1.2,Win32,69.22810661,,,,,,,,3,Fast,h,1,1.8986,1,3,7,2,1,,,,,
,1.33,,,,,,,,,g.PNG,g,60ff10899697dd7bdbdac10f,2021-09-08_15h00.13.544,forced_choiceRT,2021.1.2,Win32,69.22810661,,,,,,,,3,Ontime,g,1,2.0569,2,0,8,1,1,,,,,
,1.75,,,,,,,,,f.PNG,f,60ff10899697dd7bdbdac10f,2021-09-08_15h00.13.544,forced_choiceRT,2021.1.2,Win32,69.22810661,,,,,,,,3,Ontime,g,0,2.0736,2,1,9,0,1,,,,,
,1.86,,,,,,,,,g.PNG,g,60ff10899697dd7bdbdac10f,2021-09-08_15h00.13.544,forced_choiceRT,2021.1.2,Win32,69.22810661,,,,,,,,3,Slow,g,1,2.2835,2,2,10,1,1,,,,,
,1.63,,,,,,,,,h.PNG,h,60ff10899697dd7bdbdac10f,2021-09-08_15h00.13.544,forced_choiceRT,2021.1.2,Win32,69.22810661,,,,,,,,3,Slow,h,1,2.1003,2,3,11,2,1,,,,,
,1.89,,,,,,,,,f.PNG,f,60ff10899697dd7bdbdac10f,2021-09-08_15h00.13.544,forced_choiceRT,2021.1.2,Win32,69.22810661,,,,,,,,3,Ontime,h,0,2.0338,3,0,12,0,1,,,,,
,1.2,,,,,,,,,g.PNG,g,60ff10899697dd7bdbdac10f,2021-09-08_15h00.13.544,forced_choiceRT,2021.1.2,Win32,69.22810661,,,,,,,,3,Ontime,g,1,1.9702,3,1,13,1,1,,,,,
,0.62,,,,,,,,,h.PNG,h,60ff10899697dd7bdbdac10f,2021-09-08_15h00.13.544,forced_choiceRT,2021.1.2,Win32,69.22810661,,,,,,,,3,Ontime,h,1,1.9333,3,2,14,2,1,,,,,
,1.79,,,,,,,,,f.PNG,f,60ff10899697dd7bdbdac10f,2021-09-08_15h00.13.544,forced_choiceRT,2021.1.2,Win32,69.22810661,,,,,,,,3,Fast,g,0,1.8851,3,3,15,0,1,,,,,
,1.26,,,,,,,,,h.PNG,h,60ff10899697dd7bdbdac10f,2021-09-08_15h00.13.544,forced_choiceRT,2021.1.2,Win32,69.22810661,,,,,,,,3,Ontime,h,1,2.0777,4,0,16,2,1,,,,,
,1.76,,,,,,,,,j.PNG,j,60ff10899697dd7bdbdac10f,2021-09-08_15h00.13.544,forced_choiceRT,2021.1.2,Win32,69.22810661,,,,,,,,3,Ontime,g,0,1.9469,4,1,17,3,1,,,,,
,1.48,,,,,,,,,j.PNG,j,60ff10899697dd7bdbdac10f,2021-09-08_15h00.13.544,forced_choiceRT,2021.1.2,Win32,69.22810661,,,,,,,,3,Ontime,j,1,1.9669,4,2,18,3,1,,,,,
,1.83,,,,,,,,,f.PNG,f,60ff10899697dd7bdbdac10f,2021-09-08_15h00.13.544,forced_choiceRT,2021.1.2,Win32,69.22810661,,,,,,,,3,Ontime,h,0,1.9914,4,3,19,0,1,,,,,
,1.44,,,,,,,,,f.PNG,f,60ff10899697dd7bdbdac10f,2021-09-08_15h00.13.544,forced_choiceRT,2021.1.2,Win32,69.22810661,,,,,,,,3,Ontime,f,1,1.9833,5,0,20,0,1,,,,,
,1.58,,,,,,,,,j.PNG,j,60ff10899697dd7bdbdac10f,2021-09-08_15h00.13.544,forced_choiceRT,2021.1.2,Win32,69.22810661,,,,,,,,3,Ontime,f,0,1.9448,5,1,21,3,1,,,,,
,1.96,,,,,,,,,g.PNG,g,60ff10899697dd7bdbdac10f,2021-09-08_15h00.13.544,forced_choiceRT,2021.1.2,Win32,69.22810661,,,,,,,,3,Ontime,g,1,2.0887,5,2,22,1,1,,,,,
,0.32,,,,,,,,,f.PNG,f,60ff10899697dd7bdbdac10f,2021-09-08_15h00.13.544,forced_choiceRT,2021.1.2,Win32,69.22810661,,,,,,,,3,Ontime,f,1,1.9506,5,3,23,0,1,,,,,
,0.4,,,,,,,,,f.PNG,f,60ff10899697dd7bdbdac10f,2021-09-08_15h00.13.544,forced_choiceRT,2021.1.2,Win32,69.22810661,,,,,,,,3,Ontime,f,1,1.9157,6,0,24,0,1,,,,,
,0,,,,,,,,,j.PNG,j,60ff10899697dd7bdbdac10f,2021-09-08_15h00.13.544,forced_choiceRT,2021.1.2,Win32,69.22810661,,,,,,,,3,Ontime,j,1,1.9867,6,1,25,3,1,,,,,
,1.42,,,,,,,,,g.PNG,g,60ff10899697dd7bdbdac10f,2021-09-08_15h00.13.544,forced_choiceRT,2021.1.2,Win32,69.22810661,,,,,,,,3,Ontime,g,1,1.9789,6,2,26,1,1,,,,,
,1.43,,,,,,,,,j.PNG,j,60ff10899697dd7bdbdac10f,2021-09-08_15h00.13.544,forced_choiceRT,2021.1.2,Win32,69.22810661,,,,,,,,3,Ontime,j,1,2.0032,6,3,27,3,1,,,,,
,1.58,,,,,,,,,h.PNG,h,60ff10899697dd7bdbdac10f,2021-09-08_15h00.13.544,forced_choiceRT,2021.1.2,Win32,69.22810661,,,,,,,,3,Ontime,g,0,1.9806,7,0,28,2,1,,,,,
,0.73,,,,,,,,,g.PNG,g,60ff10899697dd7bdbdac10f,2021-09-08_15h00.13.544,forced_choiceRT,2021.1.2,Win32,69.22810661,,,,,,,,3,Ontime,g,1,1.9181,7,1,29,1,1,,,,,
,1.87,,,,,,,,,j.PNG,j,60ff10899697dd7bdbdac10f,2021-09-08_15h00.13.544,forced_choiceRT,2021.1.2,Win32,69.22810661,,,,,,,,3,Ontime,h,0,1.9501,7,2,30,3,1,,,,,
,0.37,,,,,,,,,j.PNG,j,60ff10899697dd7bdbdac10f,2021-09-08_15h00.13.544,forced_choiceRT,2021.1.2,Win32,69.22810661,,,,,,,,3,Ontime,j,1,1.9513,7,3,31,3,1,,,,,
,1.91,,,,,,,,,h.PNG,h,60ff10899697dd7bdbdac10f,2021-09-08_15h00.13.544,forced_choiceRT,2021.1.2,Win32,69.22810661,,,,,,,,3,Ontime,h,1,1.965,8,0,32,2,1,,,,,
,1.46,,,,,,,,,j.PNG,j,60ff10899697dd7bdbdac10f,2021-09-08_15h00.13.544,forced_choiceRT,2021.1.2,Win32,69.22810661,,,,,,,,3,Slow,j,1,2.1432,8,1,33,3,1,,,,,
,0.3,,,,,,,,,g.PNG,g,60ff10899697dd7bdbdac10f,2021-09-08_15h00.13.544,forced_choiceRT,2021.1.2,Win32,69.22810661,,,,,,,,3,Ontime,g,1,1.9994,8,2,34,1,1,,,,,
,1.15,,,,,,,,,f.PNG,f,60ff10899697dd7bdbdac10f,2021-09-08_15h00.13.544,forced_choiceRT,2021.1.2,Win32,69.22810661,,,,,,,,3,Ontime,f,1,1.9145,8,3,35,0,1,,,,,
,1.81,,,,,,,,,h.PNG,h,60ff10899697dd7bdbdac10f,2021-09-08_15h00.13.544,forced_choiceRT,2021.1.2,Win32,69.22810661,,,,,,,,3,Ontime,h,1,2.0104,9,0,36,2,1,,,,,
,1.06,,,,,,,,,j.PNG,j,60ff10899697dd7bdbdac10f,2021-09-08_15h00.13.544,forced_choiceRT,2021.1.2,Win32,69.22810661,,,,,,,,3,Ontime,j,1,1.9642,9,1,37,3,1,,,,,
,1.9,,,,,,,,,h.PNG,h,60ff10899697dd7bdbdac10f,2021-09-08_15h00.13.544,forced_choiceRT,2021.1.2,Win32,69.22810661,,,,,,,,3,Ontime,g,0,1.9395,9,2,38,2,1,,,,,
,1.85,,,,,,,,,f.PNG,f,60ff10899697dd7bdbdac10f,2021-09-08_15h00.13.544,forced_choiceRT,2021.1.2,Win32,69.22810661,,,,,,,,3,Ontime,h,0,2.0824,9,3,39,0,1,,,,,
,,,,,,,,,,,,60ff10899697dd7bdbdac10f,2021-09-08_15h00.13.544,forced_choiceRT,2021.1.2,Win32,69.22810661,,,,,,,,,,,,,,,,,,2,0,2,0,1
,1.46,,,,,,,,,h.PNG,h,60ff10899697dd7bdbdac10f,2021-09-08_15h00.13.544,forced_choiceRT,2021.1.2,Win32,69.22810661,,,,,,,,4,Fast,h,1,1.8595,0,0,0,2,1,,,,,
,0.69,,,,,,,,,h.PNG,h,60ff10899697dd7bdbdac10f,2021-09-08_15h00.13.544,forced_choiceRT,2021.1.2,Win32,69.22810661,,,,,,,,4,Ontime,h,1,2.0208,0,1,1,2,1,,,,,
,0.26,,,,,,,,,j.PNG,j,60ff10899697dd7bdbdac10f,2021-09-08_15h00.13.544,forced_choiceRT,2021.1.2,Win32,69.22810661,,,,,,,,4,Ontime,j,1,2.0618,0,2,2,3,1,,,,,
,1.92,,,,,,,,,h.PNG,h,60ff10899697dd7bdbdac10f,2021-09-08_15h00.13.544,forced_choiceRT,2021.1.2,Win32,69.22810661,,,,,,,,4,Ontime,g,0,2.0755,0,3,3,2,1,,,,,
,1.92,,,,,,,,,h.PNG,h,60ff10899697dd7bdbdac10f,2021-09-08_15h00.13.544,forced_choiceRT,2021.1.2,Win32,69.22810661,,,,,,,,4,Ontime,g,0,2.0285,1,0,4,2,1,,,,,
,1.75,,,,,,,,,g.PNG,g,60ff10899697dd7bdbdac10f,2021-09-08_15h00.13.544,forced_choiceRT,2021.1.2,Win32,69.22810661,,,,,,,,4,Ontime,h,0,2.003,1,1,5,1,1,,,,,
,0.36,,,,,,,,,g.PNG,g,60ff10899697dd7bdbdac10f,2021-09-08_15h00.13.544,forced_choiceRT,2021.1.2,Win32,69.22810661,,,,,,,,4,Ontime,g,1,1.9426,1,2,6,1,1,,,,,
,1.37,,,,,,,,,h.PNG,h,60ff10899697dd7bdbdac10f,2021-09-08_15h00.13.544,forced_choiceRT,2021.1.2,Win32,69.22810661,,,,,,,,4,Ontime,g,0,1.9546,1,3,7,2,1,,,,,
,1.68,,,,,,,,,f.PNG,f,60ff10899697dd7bdbdac10f,2021-09-08_15h00.13.544,forced_choiceRT,2021.1.2,Win32,69.22810661,,,,,,,,4,Ontime,g,0,1.9982,2,0,8,0,1,,,,,
,0.76,,,,,,,,,g.PNG,g,60ff10899697dd7bdbdac10f,2021-09-08_15h00.13.544,forced_choiceRT,2021.1.2,Win32,69.22810661,,,,,,,,4,Ontime,g,1,1.9505,2,1,9,1,1,,,,,
,1.74,,,,,,,,,j.PNG,j,60ff10899697dd7bdbdac10f,2021-09-08_15h00.13.544,forced_choiceRT,2021.1.2,Win32,69.22810661,,,,,,,,4,Ontime,g,0,1.983,2,2,10,3,1,,,,,
,1.66,,,,,,,,,g.PNG,g,60ff10899697dd7bdbdac10f,2021-09-08_15h00.13.544,forced_choiceRT,2021.1.2,Win32,69.22810661,,,,,,,,4,Ontime,h,0,1.9667,2,3,11,1,1,,,,,
,1.35,,,,,,,,,f.PNG,f,60ff10899697dd7bdbdac10f,2021-09-08_15h00.13.544,forced_choiceRT,2021.1.2,Win32,69.22810661,,,,,,,,4,Ontime,f,1,1.9692,3,0,12,0,1,,,,,
,1.68,,,,,,,,,j.PNG,j,60ff10899697dd7bdbdac10f,2021-09-08_15h00.13.544,forced_choiceRT,2021.1.2,Win32,69.22810661,,,,,,,,4,Ontime,h,0,1.9166,3,1,13,3,1,,,,,
,0.8,,,,,,,,,j.PNG,j,60ff10899697dd7bdbdac10f,2021-09-08_15h00.13.544,forced_choiceRT,2021.1.2,Win32,69.22810661,,,,,,,,4,Ontime,j,1,2.0047,3,2,14,3,1,,,,,
,1.91,,,,,,,,,f.PNG,f,60ff10899697dd7bdbdac10f,2021-09-08_15h00.13.544,forced_choiceRT,2021.1.2,Win32,69.22810661,,,,,,,,4,Ontime,g,0,2.0395,3,3,15,0,1,,,,,
,0.66,,,,,,,,,h.PNG,h,60ff10899697dd7bdbdac10f,2021-09-08_15h00.13.544,forced_choiceRT,2021.1.2,Win32,69.22810661,,,,,,,,4,Ontime,h,1,2.043,4,0,16,2,1,,,,,
,1.47,,,,,,,,,f.PNG,f,60ff10899697dd7bdbdac10f,2021-09-08_15h00.13.544,forced_choiceRT,2021.1.2,Win32,69.22810661,,,,,,,,4,Ontime,f,1,2.0323,4,1,17,0,1,,,,,
,0.99,,,,,,,,,f.PNG,f,60ff10899697dd7bdbdac10f,2021-09-08_15h00.13.544,forced_choiceRT,2021.1.2,Win32,69.22810661,,,,,,,,4,Ontime,f,1,1.9718,4,2,18,0,1,,,,,
,1.84,,,,,,,,,f.PNG,f,60ff10899697dd7bdbdac10f,2021-09-08_15h00.13.544,forced_choiceRT,2021.1.2,Win32,69.22810661,,,,,,,,4,Ontime,f,1,2.0417,4,3,19,0,1,,,,,
,0.24,,,,,,,,,g.PNG,g,60ff10899697dd7bdbdac10f,2021-09-08_15h00.13.544,forced_choiceRT,2021.1.2,Win32,69.22810661,,,,,,,,4,Ontime,g,1,2.0026,5,0,20,1,1,,,,,
,0.82,,,,,,,,,g.PNG,g,60ff10899697dd7bdbdac10f,2021-09-08_15h00.13.544,forced_choiceRT,2021.1.2,Win32,69.22810661,,,,,,,,4,Ontime,g,1,1.9635,5,1,21,1,1,,,,,
,0.07,,,,,,,,,f.PNG,f,60ff10899697dd7bdbdac10f,2021-09-08_15h00.13.544,forced_choiceRT,2021.1.2,Win32,69.22810661,,,,,,,,4,Slow,f,1,2.1139,5,2,22,0,1,,,,,
,0.37,,,,,,,,,j.PNG,j,60ff10899697dd7bdbdac10f,2021-09-08_15h00.13.544,forced_choiceRT,2021.1.2,Win32,69.22810661,,,,,,,,4,Ontime,j,1,1.9839,5,3,23,3,1,,,,,
,1.53,,,,,,,,,h.PNG,h,60ff10899697dd7bdbdac10f,2021-09-08_15h00.13.544,forced_choiceRT,2021.1.2,Win32,69.22810661,,,,,,,,4,Ontime,h,1,2.0271,6,0,24,2,1,,,,,
,0.11,,,,,,,,,g.PNG,g,60ff10899697dd7bdbdac10f,2021-09-08_15h00.13.544,forced_choiceRT,2021.1.2,Win32,69.22810661,,,,,,,,4,Ontime,g,1,1.9994,6,1,25,1,1,,,,,
,0.23,,,,,,,,,g.PNG,g,60ff10899697dd7bdbdac10f,2021-09-08_15h00.13.544,forced_choiceRT,2021.1.2,Win32,69.22810661,,,,,,,,4,Ontime,g,1,2.0516,6,2,26,1,1,,,,,
,0.07,,,,,,,,,h.PNG,h,60ff10899697dd7bdbdac10f,2021-09-08_15h00.13.544,forced_choiceRT,2021.1.2,Win32,69.22810661,,,,,,,,4,Ontime,h,1,1.9869,6,3,27,2,1,,,,,
,1.06,,,,,,,,,g.PNG,g,60ff10899697dd7bdbdac10f,2021-09-08_15h00.13.544,forced_choiceRT,2021.1.2,Win32,69.22810661,,,,,,,,4,Ontime,g,1,2.0321,7,0,28,1,1,,,,,
,1.55,,,,,,,,,f.PNG,f,60ff10899697dd7bdbdac10f,2021-09-08_15h00.13.544,forced_choiceRT,2021.1.2,Win32,69.22810661,,,,,,,,4,Ontime,h,0,1.913,7,1,29,0,1,,,,,
,1.06,,,,,,,,,j.PNG,j,60ff10899697dd7bdbdac10f,2021-09-08_15h00.13.544,forced_choiceRT,2021.1.2,Win32,69.22810661,,,,,,,,4,Ontime,j,1,1.9742,7,2,30,3,1,,,,,
,0.37,,,,,,,,,j.PNG,j,60ff10899697dd7bdbdac10f,2021-09-08_15h00.13.544,forced_choiceRT,2021.1.2,Win32,69.22810661,,,,,,,,4,Ontime,j,1,1.9139,7,3,31,3,1,,,,,
,0.09,,,,,,,,,j.PNG,j,60ff10899697dd7bdbdac10f,2021-09-08_15h00.13.544,forced_choiceRT,2021.1.2,Win32,69.22810661,,,,,,,,4,Ontime,j,1,2.0538,8,0,32,3,1,,,,,
,1.42,,,,,,,,,j.PNG,j,60ff10899697dd7bdbdac10f,2021-09-08_15h00.13.544,forced_choiceRT,2021.1.2,Win32,69.22810661,,,,,,,,4,Fast,j,1,1.8494,8,1,33,3,1,,,,,
,1.81,,,,,,,,,f.PNG,f,60ff10899697dd7bdbdac10f,2021-09-08_15h00.13.544,forced_choiceRT,2021.1.2,Win32,69.22810661,,,,,,,,4,Ontime,g,0,1.9608,8,2,34,0,1,,,,,
,0.7,,,,,,,,,j.PNG,j,60ff10899697dd7bdbdac10f,2021-09-08_15h00.13.544,forced_choiceRT,2021.1.2,Win32,69.22810661,,,,,,,,4,Ontime,j,1,2.0331,8,3,35,3,1,,,,,
,0.33,,,,,,,,,f.PNG,f,60ff10899697dd7bdbdac10f,2021-09-08_15h00.13.544,forced_choiceRT,2021.1.2,Win32,69.22810661,,,,,,,,4,Ontime,f,1,1.9565,9,0,36,0,1,,,,,
,1.08,,,,,,,,,g.PNG,g,60ff10899697dd7bdbdac10f,2021-09-08_15h00.13.544,forced_choiceRT,2021.1.2,Win32,69.22810661,,,,,,,,4,Ontime,g,1,1.9753,9,1,37,1,1,,,,,
,0.74,,,,,,,,,h.PNG,h,60ff10899697dd7bdbdac10f,2021-09-08_15h00.13.544,forced_choiceRT,2021.1.2,Win32,69.22810661,,,,,,,,4,Fast,h,1,1.8825,9,2,38,2,1,,,,,
,0,,,,,,,,,h.PNG,h,60ff10899697dd7bdbdac10f,2021-09-08_15h00.13.544,forced_choiceRT,2021.1.2,Win32,69.22810661,,,,,,,,4,Ontime,h,1,1.9724,9,3,39,2,1,,,,,
,,,,,,,,,,,,60ff10899697dd7bdbdac10f,2021-09-08_15h00.13.544,forced_choiceRT,2021.1.2,Win32,69.22810661,,,,,,,,,,,,,,,,,,3,0,3,0,1
,0.21,,,,,,,,,f.PNG,f,60ff10899697dd7bdbdac10f,2021-09-08_15h00.13.544,forced_choiceRT,2021.1.2,Win32,69.22810661,,,,,,,,5,Ontime,f,1,2.0104,0,0,0,0,1,,,,,
,0.35,,,,,,,,,f.PNG,f,60ff10899697dd7bdbdac10f,2021-09-08_15h00.13.544,forced_choiceRT,2021.1.2,Win32,69.22810661,,,,,,,,5,Ontime,f,1,2.0162,0,1,1,0,1,,,,,
,0.12,,,,,,,,,j.PNG,j,60ff10899697dd7bdbdac10f,2021-09-08_15h00.13.544,forced_choiceRT,2021.1.2,Win32,69.22810661,,,,,,,,5,Ontime,j,1,1.9447,0,2,2,3,1,,,,,
,0.9,,,,,,,,,h.PNG,h,60ff10899697dd7bdbdac10f,2021-09-08_15h00.13.544,forced_choiceRT,2021.1.2,Win32,69.22810661,,,,,,,,5,Fast,h,1,1.8993,0,3,3,2,1,,,,,
,1.7,,,,,,,,,g.PNG,g,60ff10899697dd7bdbdac10f,2021-09-08_15h00.13.544,forced_choiceRT,2021.1.2,Win32,69.22810661,,,,,,,,5,Ontime,f,0,2.0001,1,0,4,1,1,,,,,
,0.67,,,,,,,,,f.PNG,f,60ff10899697dd7bdbdac10f,2021-09-08_15h00.13.544,forced_choiceRT,2021.1.2,Win32,69.22810661,,,,,,,,5,Ontime,f,1,2,1,1,5,0,1,,,,,
,0.52,,,,,,,,,g.PNG,g,60ff10899697dd7bdbdac10f,2021-09-08_15h00.13.544,forced_choiceRT,2021.1.2,Win32,69.22810661,,,,,,,,5,Ontime,g,1,2.0349,1,2,6,1,1,,,,,
,1.6,,,,,,,,,j.PNG,j,60ff10899697dd7bdbdac10f,2021-09-08_15h00.13.544,forced_choiceRT,2021.1.2,Win32,69.22810661,,,,,,,,5,Ontime,h,0,2.0011,1,3,7,3,1,,,,,
,1.98,,,,,,,,,g.PNG,g,60ff10899697dd7bdbdac10f,2021-09-08_15h00.13.544,forced_choiceRT,2021.1.2,Win32,69.22810661,,,,,,,,5,Ontime,h,0,1.989,2,0,8,1,1,,,,,
,1.34,,,,,,,,,f.PNG,f,60ff10899697dd7bdbdac10f,2021-09-08_15h00.13.544,forced_choiceRT,2021.1.2,Win32,69.22810661,,,,,,,,5,Ontime,f,1,2.0052,2,1,9,0,1,,,,,
,1.58,,,,,,,,,f.PNG,f,60ff10899697dd7bdbdac10f,2021-09-08_15h00.13.544,forced_choiceRT,2021.1.2,Win32,69.22810661,,,,,,,,5,Ontime,g,0,2.0698,2,2,10,0,1,,,,,
,0.51,,,,,,,,,j.PNG,j,60ff10899697dd7bdbdac10f,2021-09-08_15h00.13.544,forced_choiceRT,2021.1.2,Win32,69.22810661,,,,,,,,5,Ontime,j,1,2.0165,2,3,11,3,1,,,,,
,1.59,,,,,,,,,j.PNG,j,60ff10899697dd7bdbdac10f,2021-09-08_15h00.13.544,forced_choiceRT,2021.1.2,Win32,69.22810661,,,,,,,,5,Ontime,j,1,2.0527,3,0,12,3,1,,,,,
,0.7,,,,,,,,,j.PNG,j,60ff10899697dd7bdbdac10f,2021-09-08_15h00.13.544,forced_choiceRT,2021.1.2,Win32,69.22810661,,,,,,,,5,Ontime,j,1,1.9682,3,1,13,3,1,,,,,
,1.32,,,,,,,,,g.PNG,g,60ff10899697dd7bdbdac10f,2021-09-08_15h00.13.544,forced_choiceRT,2021.1.2,Win32,69.22810661,,,,,,,,5,Ontime,g,1,2.0022,3,2,14,1,1,,,,,
,1.75,,,,,,,,,f.PNG,f,60ff10899697dd7bdbdac10f,2021-09-08_15h00.13.544,forced_choiceRT,2021.1.2,Win32,69.22810661,,,,,,,,5,Ontime,f,1,2.0373,3,3,15,0,1,,,,,
,0.92,,,,,,,,,h.PNG,h,60ff10899697dd7bdbdac10f,2021-09-08_15h00.13.544,forced_choiceRT,2021.1.2,Win32,69.22810661,,,,,,,,5,Ontime,h,1,2.0274,4,0,16,2,1,,,,,
,1.45,,,,,,,,,g.PNG,g,60ff10899697dd7bdbdac10f,2021-09-08_15h00.13.544,forced_choiceRT,2021.1.2,Win32,69.22810661,,,,,,,,5,Ontime,g,1,1.9869,4,1,17,1,1,,,,,
,0.77,,,,,,,,,h.PNG,h,60ff10899697dd7bdbdac10f,2021-09-08_15h00.13.544,forced_choiceRT,2021.1.2,Win32,69.22810661,,,,,,,,5,Ontime,h,1,1.9986,4,2,18,2,1,,,,,
,1.73,,,,,,,,,h.PNG,h,60ff10899697dd7bdbdac10f,2021-09-08_15h00.13.544,forced_choiceRT,2021.1.2,Win32,69.22810661,,,,,,,,5,Ontime,g,0,2.0426,4,3,19,2,1,,,,,
,1.75,,,,,,,,,j.PNG,j,60ff10899697dd7bdbdac10f,2021-09-08_15h00.13.544,forced_choiceRT,2021.1.2,Win32,69.22810661,,,,,,,,5,Ontime,f,0,1.9875,5,0,20,3,1,,,,,
,1.55,,,,,,,,,f.PNG,f,60ff10899697dd7bdbdac10f,2021-09-08_15h00.13.544,forced_choiceRT,2021.1.2,Win32,69.22810661,,,,,,,,5,Ontime,f,1,2.0164,5,1,21,0,1,,,,,
,1.47,,,,,,,,,j.PNG,j,60ff10899697dd7bdbdac10f,2021-09-08_15h00.13.544,forced_choiceRT,2021.1.2,Win32,69.22810661,,,,,,,,5,Slow,j,1,2.1004,5,2,22,3,1,,,,,
,0.35,,,,,,,,,g.PNG,g,60ff10899697dd7bdbdac10f,2021-09-08_15h00.13.544,forced_choiceRT,2021.1.2,Win32,69.22810661,,,,,,,,5,Slow,g,1,2.1097,5,3,23,1,1,,,,,
,0.34,,,,,,,,,h.PNG,h,60ff10899697dd7bdbdac10f,2021-09-08_15h00.13.544,forced_choiceRT,2021.1.2,Win32,69.22810661,,,,,,,,5,Ontime,h,1,1.9821,6,0,24,2,1,,,,,
,1.98,,,,,,,,,g.PNG,g,60ff10899697dd7bdbdac10f,2021-09-08_15h00.13.544,forced_choiceRT,2021.1.2,Win32,69.22810661,,,,,,,,5,Ontime,h,0,1.9821,6,1,25,1,1,,,,,
,1.1,,,,,,,,,f.PNG,f,60ff10899697dd7bdbdac10f,2021-09-08_15h00.13.544,forced_choiceRT,2021.1.2,Win32,69.22810661,,,,,,,,5,Ontime,f,1,1.9856,6,2,26,0,1,,,,,
,1.41,,,,,,,,,g.PNG,g,60ff10899697dd7bdbdac10f,2021-09-08_15h00.13.544,forced_choiceRT,2021.1.2,Win32,69.22810661,,,,,,,,5,Ontime,g,1,1.9993,6,3,27,1,1,,,,,
,0.11,,,,,,,,,h.PNG,h,60ff10899697dd7bdbdac10f,2021-09-08_15h00.13.544,forced_choiceRT,2021.1.2,Win32,69.22810661,,,,,,,,5,Ontime,h,1,1.9507,7,0,28,2,1,,,,,
,1.66,,,,,,,,,h.PNG,h,60ff10899697dd7bdbdac10f,2021-09-08_15h00.13.544,forced_choiceRT,2021.1.2,Win32,69.22810661,,,,,,,,5,Ontime,g,0,1.954,7,1,29,2,1,,,,,
,0.26,,,,,,,,,h.PNG,h,60ff10899697dd7bdbdac10f,2021-09-08_15h00.13.544,forced_choiceRT,2021.1.2,Win32,69.22810661,,,,,,,,5,Ontime,h,1,1.9429,7,2,30,2,1,,,,,
,0.7,,,,,,,,,j.PNG,j,60ff10899697dd7bdbdac10f,2021-09-08_15h00.13.544,forced_choiceRT,2021.1.2,Win32,69.22810661,,,,,,,,5,Ontime,j,1,2.005,7,3,31,3,1,,,,,
,0.44,,,,,,,,,g.PNG,g,60ff10899697dd7bdbdac10f,2021-09-08_15h00.13.544,forced_choiceRT,2021.1.2,Win32,69.22810661,,,,,,,,5,Ontime,g,1,1.9654,8,0,32,1,1,,,,,
,1.24,,,,,,,,,j.PNG,j,60ff10899697dd7bdbdac10f,2021-09-08_15h00.13.544,forced_choiceRT,2021.1.2,Win32,69.22810661,,,,,,,,5,Ontime,j,1,2.0848,8,1,33,3,1,,,,,
,0.6,,,,,,,,,j.PNG,j,60ff10899697dd7bdbdac10f,2021-09-08_15h00.13.544,forced_choiceRT,2021.1.2,Win32,69.22810661,,,,,,,,5,Ontime,j,1,1.9972,8,2,34,3,1,,,,,
,1.77,,,,,,,,,h.PNG,h,60ff10899697dd7bdbdac10f,2021-09-08_15h00.13.544,forced_choiceRT,2021.1.2,Win32,69.22810661,,,,,,,,5,Ontime,g,0,1.9764,8,3,35,2,1,,,,,
,0.05,,,,,,,,,f.PNG,f,60ff10899697dd7bdbdac10f,2021-09-08_15h00.13.544,forced_choiceRT,2021.1.2,Win32,69.22810661,,,,,,,,5,Ontime,f,1,1.968,9,0,36,0,1,,,,,
,0.8,,,,,,,,,g.PNG,g,60ff10899697dd7bdbdac10f,2021-09-08_15h00.13.544,forced_choiceRT,2021.1.2,Win32,69.22810661,,,,,,,,5,Ontime,g,1,2.018,9,1,37,1,1,,,,,
,0.06,,,,,,,,,f.PNG,f,60ff10899697dd7bdbdac10f,2021-09-08_15h00.13.544,forced_choiceRT,2021.1.2,Win32,69.22810661,,,,,,,,5,Ontime,f,1,2.0173,9,2,38,0,1,,,,,
,1.78,,,,,,,,,h.PNG,h,60ff10899697dd7bdbdac10f,2021-09-08_15h00.13.544,forced_choiceRT,2021.1.2,Win32,69.22810661,,,,,,,,5,Ontime,h,1,1.9512,9,3,39,2,1,,,,,
,,,,,,,,,,,,60ff10899697dd7bdbdac10f,2021-09-08_15h00.13.544,forced_choiceRT,2021.1.2,Win32,69.22810661,,,,,,,,,,,,,,,,,,4,0,4,0,1
,1.22,,,,,,,,,g.PNG,g,60ff10899697dd7bdbdac10f,2021-09-08_15h00.13.544,forced_choiceRT,2021.1.2,Win32,69.22810661,,,,,,,,6,Slow,g,1,2.15,0,0,0,1,1,,,,,
,0.77,,,,,,,,,g.PNG,g,60ff10899697dd7bdbdac10f,2021-09-08_15h00.13.544,forced_choiceRT,2021.1.2,Win32,69.22810661,,,,,,,,6,Ontime,g,1,2.0524,0,1,1,1,1,,,,,
,0.03,,,,,,,,,g.PNG,g,60ff10899697dd7bdbdac10f,2021-09-08_15h00.13.544,forced_choiceRT,2021.1.2,Win32,69.22810661,,,,,,,,6,Ontime,g,1,1.9835,0,2,2,1,1,,,,,
,1.68,,,,,,,,,f.PNG,f,60ff10899697dd7bdbdac10f,2021-09-08_15h00.13.544,forced_choiceRT,2021.1.2,Win32,69.22810661,,,,,,,,6,Ontime,g,0,1.9708,0,3,3,0,1,,,,,
,0.27,,,,,,,,,h.PNG,h,60ff10899697dd7bdbdac10f,2021-09-08_15h00.13.544,forced_choiceRT,2021.1.2,Win32,69.22810661,,,,,,,,6,Ontime,h,1,1.9843,1,0,4,2,1,,,,,
,1.03,,,,,,,,,f.PNG,f,60ff10899697dd7bdbdac10f,2021-09-08_15h00.13.544,forced_choiceRT,2021.1.2,Win32,69.22810661,,,,,,,,6,Ontime,f,1,2.0007,1,1,5,0,1,,,,,
,1.14,,,,,,,,,g.PNG,g,60ff10899697dd7bdbdac10f,2021-09-08_15h00.13.544,forced_choiceRT,2021.1.2,Win32,69.22810661,,,,,,,,6,Ontime,g,1,2.0001,1,2,6,1,1,,,,,
,0.28,,,,,,,,,j.PNG,j,60ff10899697dd7bdbdac10f,2021-09-08_15h00.13.544,forced_choiceRT,2021.1.2,Win32,69.22810661,,,,,,,,6,Ontime,j,1,1.9506,1,3,7,3,1,,,,,
,0.83,,,,,,,,,j.PNG,j,60ff10899697dd7bdbdac10f,2021-09-08_15h00.13.544,forced_choiceRT,2021.1.2,Win32,69.22810661,,,,,,,,6,Ontime,j,1,1.9669,2,0,8,3,1,,,,,
,1.97,,,,,,,,,j.PNG,j,60ff10899697dd7bdbdac10f,2021-09-08_15h00.13.544,forced_choiceRT,2021.1.2,Win32,69.22810661,,,,,,,,6,Ontime,g,0,1.9897,2,1,9,3,1,,,,,
,1.16,,,,,,,,,g.PNG,g,60ff10899697dd7bdbdac10f,2021-09-08_15h00.13.544,forced_choiceRT,2021.1.2,Win32,69.22810661,,,,,,,,6,Ontime,g,1,1.9695,2,2,10,1,1,,,,,
,1.66,,,,,,,,,g.PNG,g,60ff10899697dd7bdbdac10f,2021-09-08_15h00.13.544,forced_choiceRT,2021.1.2,Win32,69.22810661,,,,,,,,6,Ontime,f,0,1.9184,2,3,11,1,1,,,,,
,0.77,,,,,,,,,f.PNG,f,60ff10899697dd7bdbdac10f,2021-09-08_15h00.13.544,forced_choiceRT,2021.1.2,Win32,69.22810661,,,,,,,,6,Ontime,f,1,1.933,3,0,12,0,1,,,,,
,0.61,,,,,,,,,g.PNG,g,60ff10899697dd7bdbdac10f,2021-09-08_15h00.13.544,forced_choiceRT,2021.1.2,Win32,69.22810661,,,,,,,,6,Ontime,g,1,1.9619,3,1,13,1,1,,,,,
,0.31,,,,,,,,,f.PNG,f,60ff10899697dd7bdbdac10f,2021-09-08_15h00.13.544,forced_choiceRT,2021.1.2,Win32,69.22810661,,,,,,,,6,Ontime,f,1,1.9843,3,2,14,0,1,,,,,
,0.56,,,,,,,,,f.PNG,f,60ff10899697dd7bdbdac10f,2021-09-08_15h00.13.544,forced_choiceRT,2021.1.2,Win32,69.22810661,,,,,,,,6,Ontime,f,1,2.0007,3,3,15,0,1,,,,,
,0.28,,,,,,,,,f.PNG,f,60ff10899697dd7bdbdac10f,2021-09-08_15h00.13.544,forced_choiceRT,2021.1.2,Win32,69.22810661,,,,,,,,6,Ontime,f,1,1.9846,4,0,16,0,1,,,,,
,0.26,,,,,,,,,j.PNG,j,60ff10899697dd7bdbdac10f,2021-09-08_15h00.13.544,forced_choiceRT,2021.1.2,Win32,69.22810661,,,,,,,,6,Ontime,j,1,1.9841,4,1,17,3,1,,,,,
,0.6,,,,,,,,,j.PNG,j,60ff10899697dd7bdbdac10f,2021-09-08_15h00.13.544,forced_choiceRT,2021.1.2,Win32,69.22810661,,,,,,,,6,Ontime,j,1,1.9071,4,2,18,3,1,,,,,
,1.62,,,,,,,,,h.PNG,h,60ff10899697dd7bdbdac10f,2021-09-08_15h00.13.544,forced_choiceRT,2021.1.2,Win32,69.22810661,,,,,,,,6,Ontime,g,0,1.9175,4,3,19,2,1,,,,,
,1.37,,,,,,,,,h.PNG,h,60ff10899697dd7bdbdac10f,2021-09-08_15h00.13.544,forced_choiceRT,2021.1.2,Win32,69.22810661,,,,,,,,6,Ontime,h,1,2.0673,5,0,20,2,1,,,,,
,1.9,,,,,,,,,j.PNG,j,60ff10899697dd7bdbdac10f,2021-09-08_15h00.13.544,forced_choiceRT,2021.1.2,Win32,69.22810661,,,,,,,,6,Ontime,g,0,1.9449,5,1,21,3,1,,,,,
,1.08,,,,,,,,,g.PNG,g,60ff10899697dd7bdbdac10f,2021-09-08_15h00.13.544,forced_choiceRT,2021.1.2,Win32,69.22810661,,,,,,,,6,Ontime,g,1,1.9512,5,2,22,1,1,,,,,
,1.09,,,,,,,,,f.PNG,f,60ff10899697dd7bdbdac10f,2021-09-08_15h00.13.544,forced_choiceRT,2021.1.2,Win32,69.22810661,,,,,,,,6,Ontime,f,1,1.9354,5,3,23,0,1,,,,,
,0.94,,,,,,,,,j.PNG,j,60ff10899697dd7bdbdac10f,2021-09-08_15h00.13.544,forced_choiceRT,2021.1.2,Win32,69.22810661,,,,,,,,6,Ontime,j,1,1.9004,6,0,24,3,1,,,,,
,0.43,,,,,,,,,g.PNG,g,60ff10899697dd7bdbdac10f,2021-09-08_15h00.13.544,forced_choiceRT,2021.1.2,Win32,69.22810661,,,,,,,,6,Slow,g,1,2.1678,6,1,25,1,1,,,,,
,0.24,,,,,,,,,h.PNG,h,60ff10899697dd7bdbdac10f,2021-09-08_15h00.13.544,forced_choiceRT,2021.1.2,Win32,69.22810661,,,,,,,,6,Ontime,h,1,1.9742,6,2,26,2,1,,,,,
,1.73,,,,,,,,,f.PNG,f,60ff10899697dd7bdbdac10f,2021-09-08_15h00.13.544,forced_choiceRT,2021.1.2,Win32,69.22810661,,,,,,,,6,Ontime,j,0,1.9351,6,3,27,0,1,,,,,
,1.27,,,,,,,,,g.PNG,g,60ff10899697dd7bdbdac10f,2021-09-08_15h00.13.544,forced_choiceRT,2021.1.2,Win32,69.22810661,,,,,,,,6,Ontime,g,1,2.0189,7,0,28,1,1,,,,,
,1.56,,,,,,,,,h.PNG,h,60ff10899697dd7bdbdac10f,2021-09-08_15h00.13.544,forced_choiceRT,2021.1.2,Win32,69.22810661,,,,,,,,6,Ontime,g,0,1.9031,7,1,29,2,1,,,,,
,0.23,,,,,,,,,h.PNG,h,60ff10899697dd7bdbdac10f,2021-09-08_15h00.13.544,forced_choiceRT,2021.1.2,Win32,69.22810661,,,,,,,,6,Ontime,h,1,1.9255,7,2,30,2,1,,,,,
,0.47,,,,,,,,,f.PNG,f,60ff10899697dd7bdbdac10f,2021-09-08_15h00.13.544,forced_choiceRT,2021.1.2,Win32,69.22810661,,,,,,,,6,Ontime,f,1,1.9491,7,3,31,0,1,,,,,
,0.17,,,,,,,,,h.PNG,h,60ff10899697dd7bdbdac10f,2021-09-08_15h00.13.544,forced_choiceRT,2021.1.2,Win32,69.22810661,,,,,,,,6,Ontime,h,1,1.9669,8,0,32,2,1,,,,,
,0.85,,,,,,,,,f.PNG,f,60ff10899697dd7bdbdac10f,2021-09-08_15h00.13.544,forced_choiceRT,2021.1.2,Win32,69.22810661,,,,,,,,6,Ontime,f,1,1.9671,8,1,33,0,1,,,,,
,0.14,,,,,,,,,h.PNG,h,60ff10899697dd7bdbdac10f,2021-09-08_15h00.13.544,forced_choiceRT,2021.1.2,Win32,69.22810661,,,,,,,,6,Ontime,h,1,1.9168,8,2,34,2,1,,,,,
,0.67,,,,,,,,,j.PNG,j,60ff10899697dd7bdbdac10f,2021-09-08_15h00.13.544,forced_choiceRT,2021.1.2,Win32,69.22810661,,,,,,,,6,Ontime,j,1,1.9667,8,3,35,3,1,,,,,
,0.56,,,,,,,,,h.PNG,h,60ff10899697dd7bdbdac10f,2021-09-08_15h00.13.544,forced_choiceRT,2021.1.2,Win32,69.22810661,,,,,,,,6,Ontime,h,1,2.0511,9,0,36,2,1,,,,,
,0.9,,,,,,,,,j.PNG,j,60ff10899697dd7bdbdac10f,2021-09-08_15h00.13.544,forced_choiceRT,2021.1.2,Win32,69.22810661,,,,,,,,6,Ontime,j,1,1.9505,9,1,37,3,1,,,,,
,1.74,,,,,,,,,j.PNG,j,60ff10899697dd7bdbdac10f,2021-09-08_15h00.13.544,forced_choiceRT,2021.1.2,Win32,69.22810661,,,,,,,,6,Ontime,g,0,1.9767,9,2,38,3,1,,,,,
,1.28,,,,,,,,,h.PNG,h,60ff10899697dd7bdbdac10f,2021-09-08_15h00.13.544,forced_choiceRT,2021.1.2,Win32,69.22810661,,,,,,,,6,Ontime,h,1,2.0343,9,3,39,2,1,,,,,
,,,,,,,,,,,,60ff10899697dd7bdbdac10f,2021-09-08_15h00.13.544,forced_choiceRT,2021.1.2,Win32,69.22810661,,,,,,,,,,,,,,,,,,5,0,5,0,1
,1.4,,,,,,,,,f.PNG,f,60ff10899697dd7bdbdac10f,2021-09-08_15h00.13.544,forced_choiceRT,2021.1.2,Win32,69.22810661,,,,,,,,7,Ontime,f,1,1.9911,0,0,0,0,1,,,,,
,1.04,,,,,,,,,j.PNG,j,60ff10899697dd7bdbdac10f,2021-09-08_15h00.13.544,forced_choiceRT,2021.1.2,Win32,69.22810661,,,,,,,,7,Ontime,j,1,2.0338,0,1,1,3,1,,,,,
,0.58,,,,,,,,,j.PNG,j,60ff10899697dd7bdbdac10f,2021-09-08_15h00.13.544,forced_choiceRT,2021.1.2,Win32,69.22810661,,,,,,,,7,Ontime,j,1,1.9839,0,2,2,3,1,,,,,
,0.78,,,,,,,,,f.PNG,f,60ff10899697dd7bdbdac10f,2021-09-08_15h00.13.544,forced_choiceRT,2021.1.2,Win32,69.22810661,,,,,,,,7,Ontime,f,1,1.9505,0,3,3,0,1,,,,,
,1.58,,,,,,,,,j.PNG,j,60ff10899697dd7bdbdac10f,2021-09-08_15h00.13.544,forced_choiceRT,2021.1.2,Win32,69.22810661,,,,,,,,7,Ontime,h,0,2.0369,1,0,4,3,1,,,,,
,1.17,,,,,,,,,f.PNG,f,60ff10899697dd7bdbdac10f,2021-09-08_15h00.13.544,forced_choiceRT,2021.1.2,Win32,69.22810661,,,,,,,,7,Ontime,f,1,1.9962,1,1,5,0,1,,,,,
,0.1,,,,,,,,,g.PNG,g,60ff10899697dd7bdbdac10f,2021-09-08_15h00.13.544,forced_choiceRT,2021.1.2,Win32,69.22810661,,,,,,,,7,Ontime,g,1,1.9751,1,2,6,1,1,,,,,
,0.17,,,,,,,,,g.PNG,g,60ff10899697dd7bdbdac10f,2021-09-08_15h00.13.544,forced_choiceRT,2021.1.2,Win32,69.22810661,,,,,,,,7,Ontime,g,1,2.0671,1,3,7,1,1,,,,,
,1.97,,,,,,,,,j.PNG,j,60ff10899697dd7bdbdac10f,2021-09-08_15h00.13.544,forced_choiceRT,2021.1.2,Win32,69.22810661,,,,,,,,7,Ontime,j,1,1.9903,2,0,8,3,1,,,,,
,1.15,,,,,,,,,g.PNG,g,60ff10899697dd7bdbdac10f,2021-09-08_15h00.13.544,forced_choiceRT,2021.1.2,Win32,69.22810661,,,,,,,,7,Ontime,g,1,2.0731,2,1,9,1,1,,,,,
,1.94,,,,,,,,,g.PNG,g,60ff10899697dd7bdbdac10f,2021-09-08_15h00.13.544,forced_choiceRT,2021.1.2,Win32,69.22810661,,,,,,,,7,Ontime,h,0,2.0003,2,2,10,1,1,,,,,
,1.17,,,,,,,,,f.PNG,f,60ff10899697dd7bdbdac10f,2021-09-08_15h00.13.544,forced_choiceRT,2021.1.2,Win32,69.22810661,,,,,,,,7,Ontime,f,1,1.9847,2,3,11,0,1,,,,,
,0.69,,,,,,,,,h.PNG,h,60ff10899697dd7bdbdac10f,2021-09-08_15h00.13.544,forced_choiceRT,2021.1.2,Win32,69.22810661,,,,,,,,7,Ontime,h,1,2.0881,3,0,12,2,1,,,,,
,0.8,,,,,,,,,h.PNG,h,60ff10899697dd7bdbdac10f,2021-09-08_15h00.13.544,forced_choiceRT,2021.1.2,Win32,69.22810661,,,,,,,,7,Ontime,h,1,2.0171,3,1,13,2,1,,,,,
,0.5,,,,,,,,,f.PNG,f,60ff10899697dd7bdbdac10f,2021-09-08_15h00.13.544,forced_choiceRT,2021.1.2,Win32,69.22810661,,,,,,,,7,Ontime,f,1,2.0672,3,2,14,0,1,,,,,
,1.69,,,,,,,,,g.PNG,g,60ff10899697dd7bdbdac10f,2021-09-08_15h00.13.544,forced_choiceRT,2021.1.2,Win32,69.22810661,,,,,,,,7,Ontime,h,0,1.9792,3,3,15,1,1,,,,,
,1.64,,,,,,,,,g.PNG,g,60ff10899697dd7bdbdac10f,2021-09-08_15h00.13.544,forced_choiceRT,2021.1.2,Win32,69.22810661,,,,,,,,7,Ontime,f,0,2.0005,4,0,16,1,1,,,,,
,0.19,,,,,,,,,j.PNG,j,60ff10899697dd7bdbdac10f,2021-09-08_15h00.13.544,forced_choiceRT,2021.1.2,Win32,69.22810661,,,,,,,,7,Ontime,j,1,2.0332,4,1,17,3,1,,,,,
,0.67,,,,,,,,,j.PNG,j,60ff10899697dd7bdbdac10f,2021-09-08_15h00.13.544,forced_choiceRT,2021.1.2,Win32,69.22810661,,,,,,,,7,Ontime,j,1,2.0838,4,2,18,3,1,,,,,
,1.9,,,,,,,,,h.PNG,h,60ff10899697dd7bdbdac10f,2021-09-08_15h00.13.544,forced_choiceRT,2021.1.2,Win32,69.22810661,,,,,,,,7,Ontime,h,1,1.9505,4,3,19,2,1,,,,,
,1.96,,,,,,,,,g.PNG,g,60ff10899697dd7bdbdac10f,2021-09-08_15h00.13.544,forced_choiceRT,2021.1.2,Win32,69.22810661,,,,,,,,7,Ontime,h,0,2.0009,5,0,20,1,1,,,,,
,0.11,,,,,,,,,g.PNG,g,60ff10899697dd7bdbdac10f,2021-09-08_15h00.13.544,forced_choiceRT,2021.1.2,Win32,69.22810661,,,,,,,,7,Ontime,g,1,2.0359,5,1,21,1,1,,,,,
,1.88,,,,,,,,,j.PNG,j,60ff10899697dd7bdbdac10f,2021-09-08_15h00.13.544,forced_choiceRT,2021.1.2,Win32,69.22810661,,,,,,,,7,Ontime,f,0,2.0104,5,2,22,3,1,,,,,
,1.5,,,,,,,,,h.PNG,h,60ff10899697dd7bdbdac10f,2021-09-08_15h00.13.544,forced_choiceRT,2021.1.2,Win32,69.22810661,,,,,,,,7,Ontime,h,1,2.0055,5,3,23,2,1,,,,,
,1.05,,,,,,,,,h.PNG,h,60ff10899697dd7bdbdac10f,2021-09-08_15h00.13.544,forced_choiceRT,2021.1.2,Win32,69.22810661,,,,,,,,7,Ontime,h,1,1.9335,6,0,24,2,1,,,,,
,1.9,,,,,,,,,f.PNG,f,60ff10899697dd7bdbdac10f,2021-09-08_15h00.13.544,forced_choiceRT,2021.1.2,Win32,69.22810661,,,,,,,,7,Ontime,g,0,2.0962,6,1,25,0,1,,,,,
,1.78,,,,,,,,,h.PNG,h,60ff10899697dd7bdbdac10f,2021-09-08_15h00.13.544,forced_choiceRT,2021.1.2,Win32,69.22810661,,,,,,,,7,Ontime,j,0,2.038,6,2,26,2,1,,,,,
,1.05,,,,,,,,,j.PNG,j,60ff10899697dd7bdbdac10f,2021-09-08_15h00.13.544,forced_choiceRT,2021.1.2,Win32,69.22810661,,,,,,,,7,Ontime,j,1,2.0346,6,3,27,3,1,,,,,
,0.59,,,,,,,,,h.PNG,h,60ff10899697dd7bdbdac10f,2021-09-08_15h00.13.544,forced_choiceRT,2021.1.2,Win32,69.22810661,,,,,,,,7,Ontime,h,1,1.9387,7,0,28,2,1,,,,,
,0.5,,,,,,,,,h.PNG,h,60ff10899697dd7bdbdac10f,2021-09-08_15h00.13.544,forced_choiceRT,2021.1.2,Win32,69.22810661,,,,,,,,7,Ontime,h,1,1.9671,7,1,29,2,1,,,,,
,1.57,,,,,,,,,j.PNG,j,60ff10899697dd7bdbdac10f,2021-09-08_15h00.13.544,forced_choiceRT,2021.1.2,Win32,69.22810661,,,,,,,,7,Ontime,j,1,1.9946,7,2,30,3,1,,,,,
,1.41,,,,,,,,,f.PNG,f,60ff10899697dd7bdbdac10f,2021-09-08_15h00.13.544,forced_choiceRT,2021.1.2,Win32,69.22810661,,,,,,,,7,Slow,f,1,2.1213,7,3,31,0,1,,,,,
,0.05,,,,,,,,,h.PNG,h,60ff10899697dd7bdbdac10f,2021-09-08_15h00.13.544,forced_choiceRT,2021.1.2,Win32,69.22810661,,,,,,,,7,Fast,h,1,1.8819,8,0,32,2,1,,,,,
,0.09,,,,,,,,,g.PNG,g,60ff10899697dd7bdbdac10f,2021-09-08_15h00.13.544,forced_choiceRT,2021.1.2,Win32,69.22810661,,,,,,,,7,Ontime,g,1,2.034,8,1,33,1,1,,,,,
,1.14,,,,,,,,,g.PNG,g,60ff10899697dd7bdbdac10f,2021-09-08_15h00.13.544,forced_choiceRT,2021.1.2,Win32,69.22810661,,,,,,,,7,Slow,g,1,2.2514,8,2,34,1,1,,,,,
,0.21,,,,,,,,,f.PNG,f,60ff10899697dd7bdbdac10f,2021-09-08_15h00.13.544,forced_choiceRT,2021.1.2,Win32,69.22810661,,,,,,,,7,Ontime,f,1,1.9566,8,3,35,0,1,,,,,
,0.92,,,,,,,,,j.PNG,j,60ff10899697dd7bdbdac10f,2021-09-08_15h00.13.544,forced_choiceRT,2021.1.2,Win32,69.22810661,,,,,,,,7,Ontime,j,1,1.9835,9,0,36,3,1,,,,,
,1.92,,,,,,,,,f.PNG,f,60ff10899697dd7bdbdac10f,2021-09-08_15h00.13.544,forced_choiceRT,2021.1.2,Win32,69.22810661,,,,,,,,7,Ontime,h,0,1.9682,9,1,37,0,1,,,,,
,0.48,,,,,,,,,h.PNG,h,60ff10899697dd7bdbdac10f,2021-09-08_15h00.13.544,forced_choiceRT,2021.1.2,Win32,69.22810661,,,,,,,,7,Ontime,h,1,2.0017,9,2,38,2,1,,,,,
,1.75,,,,,,,,,f.PNG,f,60ff10899697dd7bdbdac10f,2021-09-08_15h00.13.544,forced_choiceRT,2021.1.2,Win32,69.22810661,,,,,,,,7,Ontime,j,0,2.0014,9,3,39,0,1,,,,,
,,,,,,,,,,,,60ff10899697dd7bdbdac10f,2021-09-08_15h00.13.544,forced_choiceRT,2021.1.2,Win32,69.22810661,,,,,,,,,,,,,,,,,,6,0,6,0,1
,0.48,,,,,,,,,h.PNG,h,60ff10899697dd7bdbdac10f,2021-09-08_15h00.13.544,forced_choiceRT,2021.1.2,Win32,69.22810661,,,,,,,,8,Ontime,h,1,2.0024,0,0,0,2,1,,,,,
,0.66,,,,,,,,,g.PNG,g,60ff10899697dd7bdbdac10f,2021-09-08_15h00.13.544,forced_choiceRT,2021.1.2,Win32,69.22810661,,,,,,,,8,Ontime,g,1,1.9698,0,1,1,1,1,,,,,
,1.73,,,,,,,,,j.PNG,j,60ff10899697dd7bdbdac10f,2021-09-08_15h00.13.544,forced_choiceRT,2021.1.2,Win32,69.22810661,,,,,,,,8,Ontime,g,0,2.0448,0,2,2,3,1,,,,,
,0.18,,,,,,,,,h.PNG,h,60ff10899697dd7bdbdac10f,2021-09-08_15h00.13.544,forced_choiceRT,2021.1.2,Win32,69.22810661,,,,,,,,8,Ontime,h,1,1.9602,0,3,3,2,1,,,,,
,1.04,,,,,,,,,g.PNG,g,60ff10899697dd7bdbdac10f,2021-09-08_15h00.13.544,forced_choiceRT,2021.1.2,Win32,69.22810661,,,,,,,,8,Ontime,g,1,1.9963,1,0,4,1,1,,,,,
,0.8,,,,,,,,,g.PNG,g,60ff10899697dd7bdbdac10f,2021-09-08_15h00.13.544,forced_choiceRT,2021.1.2,Win32,69.22810661,,,,,,,,8,Ontime,g,1,2.094,1,1,5,1,1,,,,,
,1.4,,,,,,,,,h.PNG,h,60ff10899697dd7bdbdac10f,2021-09-08_15h00.13.544,forced_choiceRT,2021.1.2,Win32,69.22810661,,,,,,,,8,Ontime,h,1,2.0502,1,2,6,2,1,,,,,
,1.03,,,,,,,,,h.PNG,h,60ff10899697dd7bdbdac10f,2021-09-08_15h00.13.544,forced_choiceRT,2021.1.2,Win32,69.22810661,,,,,,,,8,Ontime,h,1,1.9471,1,3,7,2,1,,,,,
,1.32,,,,,,,,,f.PNG,f,60ff10899697dd7bdbdac10f,2021-09-08_15h00.13.544,forced_choiceRT,2021.1.2,Win32,69.22810661,,,,,,,,8,Ontime,f,1,2.0173,2,0,8,0,1,,,,,
,0.6,,,,,,,,,j.PNG,j,60ff10899697dd7bdbdac10f,2021-09-08_15h00.13.544,forced_choiceRT,2021.1.2,Win32,69.22810661,,,,,,,,8,Ontime,j,1,1.9527,2,1,9,3,1,,,,,
,0.61,,,,,,,,,f.PNG,f,60ff10899697dd7bdbdac10f,2021-09-08_15h00.13.544,forced_choiceRT,2021.1.2,Win32,69.22810661,,,,,,,,8,Ontime,f,1,2.0347,2,2,10,0,1,,,,,
,1.25,,,,,,,,,g.PNG,g,60ff10899697dd7bdbdac10f,2021-09-08_15h00.13.544,forced_choiceRT,2021.1.2,Win32,69.22810661,,,,,,,,8,Ontime,g,1,2.0677,2,3,11,1,1,,,,,
,1.45,,,,,,,,,j.PNG,j,60ff10899697dd7bdbdac10f,2021-09-08_15h00.13.544,forced_choiceRT,2021.1.2,Win32,69.22810661,,,,,,,,8,Ontime,j,1,2.027,3,0,12,3,1,,,,,
,0.85,,,,,,,,,f.PNG,f,60ff10899697dd7bdbdac10f,2021-09-08_15h00.13.544,forced_choiceRT,2021.1.2,Win32,69.22810661,,,,,,,,8,Ontime,f,1,1.9593,3,1,13,0,1,,,,,
,1.42,,,,,,,,,h.PNG,h,60ff10899697dd7bdbdac10f,2021-09-08_15h00.13.544,forced_choiceRT,2021.1.2,Win32,69.22810661,,,,,,,,8,Ontime,h,1,1.9677,3,2,14,2,1,,,,,
,0.21,,,,,,,,,j.PNG,j,60ff10899697dd7bdbdac10f,2021-09-08_15h00.13.544,forced_choiceRT,2021.1.2,Win32,69.22810661,,,,,,,,8,Ontime,j,1,2.0198,3,3,15,3,1,,,,,
,0.97,,,,,,,,,g.PNG,g,60ff10899697dd7bdbdac10f,2021-09-08_15h00.13.544,forced_choiceRT,2021.1.2,Win32,69.22810661,,,,,,,,8,Ontime,g,1,2.0432,4,0,16,1,1,,,,,
,0.74,,,,,,,,,h.PNG,h,60ff10899697dd7bdbdac10f,2021-09-08_15h00.13.544,forced_choiceRT,2021.1.2,Win32,69.22810661,,,,,,,,8,Ontime,h,1,2.0502,4,1,17,2,1,,,,,
,1.35,,,,,,,,,f.PNG,f,60ff10899697dd7bdbdac10f,2021-09-08_15h00.13.544,forced_choiceRT,2021.1.2,Win32,69.22810661,,,,,,,,8,Ontime,f,1,1.9909,4,2,18,0,1,,,,,
,1.1,,,,,,,,,j.PNG,j,60ff10899697dd7bdbdac10f,2021-09-08_15h00.13.544,forced_choiceRT,2021.1.2,Win32,69.22810661,,,,,,,,8,Ontime,j,1,2.0674,4,3,19,3,1,,,,,
,1.47,,,,,,,,,f.PNG,f,60ff10899697dd7bdbdac10f,2021-09-08_15h00.13.544,forced_choiceRT,2021.1.2,Win32,69.22810661,,,,,,,,8,Ontime,f,1,2.0171,5,0,20,0,1,,,,,
,0.05,,,,,,,,,h.PNG,h,60ff10899697dd7bdbdac10f,2021-09-08_15h00.13.544,forced_choiceRT,2021.1.2,Win32,69.22810661,,,,,,,,8,Ontime,h,1,2.0396,5,1,21,2,1,,,,,
,1.18,,,,,,,,,f.PNG,f,60ff10899697dd7bdbdac10f,2021-09-08_15h00.13.544,forced_choiceRT,2021.1.2,Win32,69.22810661,,,,,,,,8,Ontime,f,1,2.0349,5,2,22,0,1,,,,,
,1.68,,,,,,,,,g.PNG,g,60ff10899697dd7bdbdac10f,2021-09-08_15h00.13.544,forced_choiceRT,2021.1.2,Win32,69.22810661,,,,,,,,8,Ontime,j,0,2.0115,5,3,23,1,1,,,,,
,1.67,,,,,,,,,g.PNG,g,60ff10899697dd7bdbdac10f,2021-09-08_15h00.13.544,forced_choiceRT,2021.1.2,Win32,69.22810661,,,,,,,,8,Ontime,g,1,1.9936,6,0,24,1,1,,,,,
,0.47,,,,,,,,,h.PNG,h,60ff10899697dd7bdbdac10f,2021-09-08_15h00.13.544,forced_choiceRT,2021.1.2,Win32,69.22810661,,,,,,,,8,Ontime,h,1,1.9763,6,1,25,2,1,,,,,
,0.2,,,,,,,,,g.PNG,g,60ff10899697dd7bdbdac10f,2021-09-08_15h00.13.544,forced_choiceRT,2021.1.2,Win32,69.22810661,,,,,,,,8,Ontime,g,1,1.984,6,2,26,1,1,,,,,
,0.4,,,,,,,,,h.PNG,h,60ff10899697dd7bdbdac10f,2021-09-08_15h00.13.544,forced_choiceRT,2021.1.2,Win32,69.22810661,,,,,,,,8,Ontime,h,1,2.0293,6,3,27,2,1,,,,,
,0.17,,,,,,,,,g.PNG,g,60ff10899697dd7bdbdac10f,2021-09-08_15h00.13.544,forced_choiceRT,2021.1.2,Win32,69.22810661,,,,,,,,8,Ontime,g,1,1.9396,7,0,28,1,1,,,,,
,1.14,,,,,,,,,f.PNG,f,60ff10899697dd7bdbdac10f,2021-09-08_15h00.13.544,forced_choiceRT,2021.1.2,Win32,69.22810661,,,,,,,,8,Ontime,f,1,2.0334,7,1,29,0,1,,,,,
,1.68,,,,,,,,,j.PNG,j,60ff10899697dd7bdbdac10f,2021-09-08_15h00.13.544,forced_choiceRT,2021.1.2,Win32,69.22810661,,,,,,,,8,Ontime,g,0,2.001,7,2,30,3,1,,,,,
,1.93,,,,,,,,,j.PNG,j,60ff10899697dd7bdbdac10f,2021-09-08_15h00.13.544,forced_choiceRT,2021.1.2,Win32,69.22810661,,,,,,,,8,Ontime,j,1,1.9153,7,3,31,3,1,,,,,
,1.65,,,,,,,,,j.PNG,j,60ff10899697dd7bdbdac10f,2021-09-08_15h00.13.544,forced_choiceRT,2021.1.2,Win32,69.22810661,,,,,,,,8,Ontime,h,0,1.9995,8,0,32,3,1,,,,,
,0.22,,,,,,,,,j.PNG,j,60ff10899697dd7bdbdac10f,2021-09-08_15h00.13.544,forced_choiceRT,2021.1.2,Win32,69.22810661,,,,,,,,8,Ontime,j,1,2.0676,8,1,33,3,1,,,,,
,0.67,,,,,,,,,f.PNG,f,60ff10899697dd7bdbdac10f,2021-09-08_15h00.13.544,forced_choiceRT,2021.1.2,Win32,69.22810661,,,,,,,,8,Ontime,f,1,1.9945,8,2,34,0,1,,,,,
,1.63,,,,,,,,,f.PNG,f,60ff10899697dd7bdbdac10f,2021-09-08_15h00.13.544,forced_choiceRT,2021.1.2,Win32,69.22810661,,,,,,,,8,Slow,h,0,2.1238,8,3,35,0,1,,,,,
,1.23,,,,,,,,,h.PNG,h,60ff10899697dd7bdbdac10f,2021-09-08_15h00.13.544,forced_choiceRT,2021.1.2,Win32,69.22810661,,,,,,,,8,Slow,h,1,2.1003,9,0,36,2,1,,,,,
,0.59,,,,,,,,,j.PNG,j,60ff10899697dd7bdbdac10f,2021-09-08_15h00.13.544,forced_choiceRT,2021.1.2,Win32,69.22810661,,,,,,,,8,Ontime,j,1,2.0202,9,1,37,3,1,,,,,
,0.55,,,,,,,,,f.PNG,f,60ff10899697dd7bdbdac10f,2021-09-08_15h00.13.544,forced_choiceRT,2021.1.2,Win32,69.22810661,,,,,,,,8,Ontime,f,1,1.9854,9,2,38,0,1,,,,,
,0.14,,,,,,,,,g.PNG,g,60ff10899697dd7bdbdac10f,2021-09-08_15h00.13.544,forced_choiceRT,2021.1.2,Win32,69.22810661,,,,,,,,8,Ontime,g,1,2.0175,9,3,39,1,1,,,,,
,,,,,,,,,,,,60ff10899697dd7bdbdac10f,2021-09-08_15h00.13.544,forced_choiceRT,2021.1.2,Win32,69.22810661,,,,,,,,,,,,,,,,,,7,0,7,0,1
,1.97,,,,,,,,,f.PNG,f,60ff10899697dd7bdbdac10f,2021-09-08_15h00.13.544,forced_choiceRT,2021.1.2,Win32,69.22810661,,,,,,,,9,Slow,g,0,2.1893,0,0,0,0,1,,,,,
,0.96,,,,,,,,,h.PNG,h,60ff10899697dd7bdbdac10f,2021-09-08_15h00.13.544,forced_choiceRT,2021.1.2,Win32,69.22810661,,,,,,,,9,Ontime,h,1,1.9843,0,1,1,2,1,,,,,
,1.47,,,,,,,,,f.PNG,f,60ff10899697dd7bdbdac10f,2021-09-08_15h00.13.544,forced_choiceRT,2021.1.2,Win32,69.22810661,,,,,,,,9,Ontime,f,1,2.003,0,2,2,0,1,,,,,
,0.7,,,,,,,,,g.PNG,g,60ff10899697dd7bdbdac10f,2021-09-08_15h00.13.544,forced_choiceRT,2021.1.2,Win32,69.22810661,,,,,,,,9,Ontime,g,1,2.0512,0,3,3,1,1,,,,,
,0.74,,,,,,,,,j.PNG,j,60ff10899697dd7bdbdac10f,2021-09-08_15h00.13.544,forced_choiceRT,2021.1.2,Win32,69.22810661,,,,,,,,9,Ontime,j,1,1.9993,1,0,4,3,1,,,,,
,1.52,,,,,,,,,f.PNG,f,60ff10899697dd7bdbdac10f,2021-09-08_15h00.13.544,forced_choiceRT,2021.1.2,Win32,69.22810661,,,,,,,,9,Ontime,g,0,1.9842,1,1,5,0,1,,,,,
,1.11,,,,,,,,,f.PNG,f,60ff10899697dd7bdbdac10f,2021-09-08_15h00.13.544,forced_choiceRT,2021.1.2,Win32,69.22810661,,,,,,,,9,Ontime,f,1,1.953,1,2,6,0,1,,,,,
,1.24,,,,,,,,,f.PNG,f,60ff10899697dd7bdbdac10f,2021-09-08_15h00.13.544,forced_choiceRT,2021.1.2,Win32,69.22810661,,,,,,,,9,Ontime,f,1,2.0255,1,3,7,0,1,,,,,
,0.19,,,,,,,,,g.PNG,g,60ff10899697dd7bdbdac10f,2021-09-08_15h00.13.544,forced_choiceRT,2021.1.2,Win32,69.22810661,,,,,,,,9,Ontime,g,1,2.0347,2,0,8,1,1,,,,,
,0.2,,,,,,,,,j.PNG,j,60ff10899697dd7bdbdac10f,2021-09-08_15h00.13.544,forced_choiceRT,2021.1.2,Win32,69.22810661,,,,,,,,9,Ontime,j,1,1.9851,2,1,9,3,1,,,,,
,0.95,,,,,,,,,g.PNG,g,60ff10899697dd7bdbdac10f,2021-09-08_15h00.13.544,forced_choiceRT,2021.1.2,Win32,69.22810661,,,,,,,,9,Ontime,g,1,1.9518,2,2,10,1,1,,,,,
,1.26,,,,,,,,,f.PNG,f,60ff10899697dd7bdbdac10f,2021-09-08_15h00.13.544,forced_choiceRT,2021.1.2,Win32,69.22810661,,,,,,,,9,Ontime,f,1,2.0851,2,3,11,0,1,,,,,
,0.46,,,,,,,,,h.PNG,h,60ff10899697dd7bdbdac10f,2021-09-08_15h00.13.544,forced_choiceRT,2021.1.2,Win32,69.22810661,,,,,,,,9,Ontime,h,1,2.0674,3,0,12,2,1,,,,,
,0.98,,,,,,,,,g.PNG,g,60ff10899697dd7bdbdac10f,2021-09-08_15h00.13.544,forced_choiceRT,2021.1.2,Win32,69.22810661,,,,,,,,9,Ontime,g,1,2.0091,3,1,13,1,1,,,,,
,1.43,,,,,,,,,j.PNG,j,60ff10899697dd7bdbdac10f,2021-09-08_15h00.13.544,forced_choiceRT,2021.1.2,Win32,69.22810661,,,,,,,,9,Ontime,j,1,2.02,3,2,14,3,1,,,,,
,1.21,,,,,,,,,h.PNG,h,60ff10899697dd7bdbdac10f,2021-09-08_15h00.13.544,forced_choiceRT,2021.1.2,Win32,69.22810661,,,,,,,,9,Ontime,h,1,2.0338,3,3,15,2,1,,,,,
,0.13,,,,,,,,,h.PNG,h,60ff10899697dd7bdbdac10f,2021-09-08_15h00.13.544,forced_choiceRT,2021.1.2,Win32,69.22810661,,,,,,,,9,Ontime,h,1,1.9508,4,0,16,2,1,,,,,
,1.84,,,,,,,,,j.PNG,j,60ff10899697dd7bdbdac10f,2021-09-08_15h00.13.544,forced_choiceRT,2021.1.2,Win32,69.22810661,,,,,,,,9,Ontime,j,1,2.0385,4,1,17,3,1,,,,,
,1.27,,,,,,,,,h.PNG,h,60ff10899697dd7bdbdac10f,2021-09-08_15h00.13.544,forced_choiceRT,2021.1.2,Win32,69.22810661,,,,,,,,9,Ontime,h,1,2.0169,4,2,18,2,1,,,,,
,0.81,,,,,,,,,h.PNG,h,60ff10899697dd7bdbdac10f,2021-09-08_15h00.13.544,forced_choiceRT,2021.1.2,Win32,69.22810661,,,,,,,,9,Slow,h,1,2.383,4,3,19,2,1,,,,,
,0.7,,,,,,,,,g.PNG,g,60ff10899697dd7bdbdac10f,2021-09-08_15h00.13.544,forced_choiceRT,2021.1.2,Win32,69.22810661,,,,,,,,9,Ontime,g,1,1.9306,5,0,20,1,1,,,,,
,0.02,,,,,,,,,f.PNG,f,60ff10899697dd7bdbdac10f,2021-09-08_15h00.13.544,forced_choiceRT,2021.1.2,Win32,69.22810661,,,,,,,,9,Ontime,f,1,2.0429,5,1,21,0,1,,,,,
,1.55,,,,,,,,,h.PNG,h,60ff10899697dd7bdbdac10f,2021-09-08_15h00.13.544,forced_choiceRT,2021.1.2,Win32,69.22810661,,,,,,,,9,Ontime,j,0,1.9714,5,2,22,2,1,,,,,
,1.6,,,,,,,,,g.PNG,g,60ff10899697dd7bdbdac10f,2021-09-08_15h00.13.544,forced_choiceRT,2021.1.2,Win32,69.22810661,,,,,,,,9,Slow,g,1,2.1798,5,3,23,1,1,,,,,
,0.14,,,,,,,,,g.PNG,g,60ff10899697dd7bdbdac10f,2021-09-08_15h00.13.544,forced_choiceRT,2021.1.2,Win32,69.22810661,,,,,,,,9,Ontime,g,1,2.0511,6,0,24,1,1,,,,,
,1.66,,,,,,,,,h.PNG,h,60ff10899697dd7bdbdac10f,2021-09-08_15h00.13.544,forced_choiceRT,2021.1.2,Win32,69.22810661,,,,,,,,9,Ontime,g,0,1.9501,6,1,25,2,1,,,,,
,1.73,,,,,,,,,j.PNG,j,60ff10899697dd7bdbdac10f,2021-09-08_15h00.13.544,forced_choiceRT,2021.1.2,Win32,69.22810661,,,,,,,,9,Ontime,f,0,2.0007,6,2,26,3,1,,,,,
,0.36,,,,,,,,,h.PNG,h,60ff10899697dd7bdbdac10f,2021-09-08_15h00.13.544,forced_choiceRT,2021.1.2,Win32,69.22810661,,,,,,,,9,Ontime,h,1,1.9832,6,3,27,2,1,,,,,
,1.99,,,,,,,,,j.PNG,j,60ff10899697dd7bdbdac10f,2021-09-08_15h00.13.544,forced_choiceRT,2021.1.2,Win32,69.22810661,,,,,,,,9,Ontime,j,1,1.9342,7,0,28,3,1,,,,,
,0.52,,,,,,,,,g.PNG,g,60ff10899697dd7bdbdac10f,2021-09-08_15h00.13.544,forced_choiceRT,2021.1.2,Win32,69.22810661,,,,,,,,9,Ontime,g,1,2.0006,7,1,29,1,1,,,,,
,1,,,,,,,,,f.PNG,f,60ff10899697dd7bdbdac10f,2021-09-08_15h00.13.544,forced_choiceRT,2021.1.2,Win32,69.22810661,,,,,,,,9,Ontime,f,1,1.9595,7,2,30,0,1,,,,,
,0.38,,,,,,,,,g.PNG,g,60ff10899697dd7bdbdac10f,2021-09-08_15h00.13.544,forced_choiceRT,2021.1.2,Win32,69.22810661,,,,,,,,9,Ontime,g,1,2.0505,7,3,31,1,1,,,,,
,1.5,,,,,,,,,j.PNG,j,60ff10899697dd7bdbdac10f,2021-09-08_15h00.13.544,forced_choiceRT,2021.1.2,Win32,69.22810661,,,,,,,,9,Ontime,h,0,1.9839,8,0,32,3,1,,,,,
,0.18,,,,,,,,,f.PNG,f,60ff10899697dd7bdbdac10f,2021-09-08_15h00.13.544,forced_choiceRT,2021.1.2,Win32,69.22810661,,,,,,,,9,Ontime,f,1,2.0337,8,1,33,0,1,,,,,
,0.59,,,,,,,,,g.PNG,g,60ff10899697dd7bdbdac10f,2021-09-08_15h00.13.544,forced_choiceRT,2021.1.2,Win32,69.22810661,,,,,,,,9,Ontime,g,1,1.9838,8,2,34,1,1,,,,,
,0.58,,,,,,,,,j.PNG,j,60ff10899697dd7bdbdac10f,2021-09-08_15h00.13.544,forced_choiceRT,2021.1.2,Win32,69.22810661,,,,,,,,9,Ontime,j,1,2.0214,8,3,35,3,1,,,,,
,0.65,,,,,,,,,h.PNG,h,60ff10899697dd7bdbdac10f,2021-09-08_15h00.13.544,forced_choiceRT,2021.1.2,Win32,69.22810661,,,,,,,,9,Ontime,h,1,1.9396,9,0,36,2,1,,,,,
,1.56,,,,,,,,,f.PNG,f,60ff10899697dd7bdbdac10f,2021-09-08_15h00.13.544,forced_choiceRT,2021.1.2,Win32,69.22810661,,,,,,,,9,Ontime,h,0,1.9614,9,1,37,0,1,,,,,
,1.53,,,,,,,,,j.PNG,j,60ff10899697dd7bdbdac10f,2021-09-08_15h00.13.544,forced_choiceRT,2021.1.2,Win32,69.22810661,,,,,,,,9,Ontime,f,0,2.0001,9,2,38,3,1,,,,,
,0.53,,,,,,,,,j.PNG,j,60ff10899697dd7bdbdac10f,2021-09-08_15h00.13.544,forced_choiceRT,2021.1.2,Win32,69.22810661,,,,,,,,9,Ontime,j,1,1.9791,9,3,39,3,1,,,,,
,,,,,,,,,,,,60ff10899697dd7bdbdac10f,2021-09-08_15h00.13.544,forced_choiceRT,2021.1.2,Win32,69.22810661,,,,,,,,,,,,,,,,,,8,0,8,0,1
,0.94,,,,,,,,,g.PNG,g,60ff10899697dd7bdbdac10f,2021-09-08_15h00.13.544,forced_choiceRT,2021.1.2,Win32,69.22810661,,,,,,,,10,Ontime,g,1,2.0442,0,0,0,1,1,,,,,
,0.2,,,,,,,,,j.PNG,j,60ff10899697dd7bdbdac10f,2021-09-08_15h00.13.544,forced_choiceRT,2021.1.2,Win32,69.22810661,,,,,,,,10,Ontime,j,1,1.9841,0,1,1,3,1,,,,,
,1.07,,,,,,,,,j.PNG,j,60ff10899697dd7bdbdac10f,2021-09-08_15h00.13.544,forced_choiceRT,2021.1.2,Win32,69.22810661,,,,,,,,10,Ontime,j,1,2.0008,0,2,2,3,1,,,,,
,0.22,,,,,,,,,h.PNG,h,60ff10899697dd7bdbdac10f,2021-09-08_15h00.13.544,forced_choiceRT,2021.1.2,Win32,69.22810661,,,,,,,,10,Ontime,h,1,2.0171,0,3,3,2,1,,,,,
,0.23,,,,,,,,,g.PNG,g,60ff10899697dd7bdbdac10f,2021-09-08_15h00.13.544,forced_choiceRT,2021.1.2,Win32,69.22810661,,,,,,,,10,Ontime,g,1,1.9302,1,0,4,1,1,,,,,
,1.04,,,,,,,,,f.PNG,f,60ff10899697dd7bdbdac10f,2021-09-08_15h00.13.544,forced_choiceRT,2021.1.2,Win32,69.22810661,,,,,,,,10,Ontime,f,1,2.0675,1,1,5,0,1,,,,,
,1.29,,,,,,,,,g.PNG,g,60ff10899697dd7bdbdac10f,2021-09-08_15h00.13.544,forced_choiceRT,2021.1.2,Win32,69.22810661,,,,,,,,10,Ontime,g,1,1.9834,1,2,6,1,1,,,,,
,0.3,,,,,,,,,g.PNG,g,60ff10899697dd7bdbdac10f,2021-09-08_15h00.13.544,forced_choiceRT,2021.1.2,Win32,69.22810661,,,,,,,,10,Ontime,g,1,1.9949,1,3,7,1,1,,,,,
,0.58,,,,,,,,,g.PNG,g,60ff10899697dd7bdbdac10f,2021-09-08_15h00.13.544,forced_choiceRT,2021.1.2,Win32,69.22810661,,,,,,,,10,Ontime,g,1,2.04,2,0,8,1,1,,,,,
,1.18,,,,,,,,,f.PNG,f,60ff10899697dd7bdbdac10f,2021-09-08_15h00.13.544,forced_choiceRT,2021.1.2,Win32,69.22810661,,,,,,,,10,Ontime,f,1,2.0005,2,1,9,0,1,,,,,
,0.77,,,,,,,,,j.PNG,j,60ff10899697dd7bdbdac10f,2021-09-08_15h00.13.544,forced_choiceRT,2021.1.2,Win32,69.22810661,,,,,,,,10,Ontime,j,1,2.0171,2,2,10,3,1,,,,,
,0.67,,,,,,,,,j.PNG,j,60ff10899697dd7bdbdac10f,2021-09-08_15h00.13.544,forced_choiceRT,2021.1.2,Win32,69.22810661,,,,,,,,10,Ontime,j,1,1.9947,2,3,11,3,1,,,,,
,1.87,,,,,,,,,g.PNG,g,60ff10899697dd7bdbdac10f,2021-09-08_15h00.13.544,forced_choiceRT,2021.1.2,Win32,69.22810661,,,,,,,,10,Ontime,g,1,2.0344,3,0,12,1,1,,,,,
,0.67,,,,,,,,,f.PNG,f,60ff10899697dd7bdbdac10f,2021-09-08_15h00.13.544,forced_choiceRT,2021.1.2,Win32,69.22810661,,,,,,,,10,Slow,f,1,2.1014,3,1,13,0,1,,,,,
,0.06,,,,,,,,,f.PNG,f,60ff10899697dd7bdbdac10f,2021-09-08_15h00.13.544,forced_choiceRT,2021.1.2,Win32,69.22810661,,,,,,,,10,Ontime,f,1,2.0336,3,2,14,0,1,,,,,
,0,,,,,,,,,h.PNG,h,60ff10899697dd7bdbdac10f,2021-09-08_15h00.13.544,forced_choiceRT,2021.1.2,Win32,69.22810661,,,,,,,,10,Ontime,h,1,1.9912,3,3,15,2,1,,,,,
,1.26,,,,,,,,,f.PNG,f,60ff10899697dd7bdbdac10f,2021-09-08_15h00.13.544,forced_choiceRT,2021.1.2,Win32,69.22810661,,,,,,,,10,Ontime,f,1,1.9844,4,0,16,0,1,,,,,
,0.99,,,,,,,,,f.PNG,f,60ff10899697dd7bdbdac10f,2021-09-08_15h00.13.544,forced_choiceRT,2021.1.2,Win32,69.22810661,,,,,,,,10,Ontime,f,1,1.9848,4,1,17,0,1,,,,,
,1.13,,,,,,,,,h.PNG,h,60ff10899697dd7bdbdac10f,2021-09-08_15h00.13.544,forced_choiceRT,2021.1.2,Win32,69.22810661,,,,,,,,10,Ontime,h,1,1.963,4,2,18,2,1,,,,,
,1.22,,,,,,,,,j.PNG,j,60ff10899697dd7bdbdac10f,2021-09-08_15h00.13.544,forced_choiceRT,2021.1.2,Win32,69.22810661,,,,,,,,10,Ontime,j,1,2.0133,4,3,19,3,1,,,,,
,0.4,,,,,,,,,g.PNG,g,60ff10899697dd7bdbdac10f,2021-09-08_15h00.13.544,forced_choiceRT,2021.1.2,Win32,69.22810661,,,,,,,,10,Ontime,g,1,1.9109,5,0,20,1,1,,,,,
,1.29,,,,,,,,,j.PNG,j,60ff10899697dd7bdbdac10f,2021-09-08_15h00.13.544,forced_choiceRT,2021.1.2,Win32,69.22810661,,,,,,,,10,Ontime,j,1,2.0004,5,1,21,3,1,,,,,
,0.95,,,,,,,,,f.PNG,f,60ff10899697dd7bdbdac10f,2021-09-08_15h00.13.544,forced_choiceRT,2021.1.2,Win32,69.22810661,,,,,,,,10,Ontime,f,1,1.9873,5,2,22,0,1,,,,,
,0.98,,,,,,,,,h.PNG,h,60ff10899697dd7bdbdac10f,2021-09-08_15h00.13.544,forced_choiceRT,2021.1.2,Win32,69.22810661,,,,,,,,10,Ontime,h,1,1.9604,5,3,23,2,1,,,,,
,1.21,,,,,,,,,h.PNG,h,60ff10899697dd7bdbdac10f,2021-09-08_15h00.13.544,forced_choiceRT,2021.1.2,Win32,69.22810661,,,,,,,,10,Ontime,h,1,1.974,6,0,24,2,1,,,,,
,1.37,,,,,,,,,h.PNG,h,60ff10899697dd7bdbdac10f,2021-09-08_15h00.13.544,forced_choiceRT,2021.1.2,Win32,69.22810661,,,,,,,,10,Ontime,h,1,2.0174,6,1,25,2,1,,,,,
,0.3,,,,,,,,,j.PNG,j,60ff10899697dd7bdbdac10f,2021-09-08_15h00.13.544,forced_choiceRT,2021.1.2,Win32,69.22810661,,,,,,,,10,Ontime,j,1,1.9927,6,2,26,3,1,,,,,
,1.31,,,,,,,,,h.PNG,h,60ff10899697dd7bdbdac10f,2021-09-08_15h00.13.544,forced_choiceRT,2021.1.2,Win32,69.22810661,,,,,,,,10,Ontime,h,1,1.9282,6,3,27,2,1,,,,,
,1.65,,,,,,,,,g.PNG,g,60ff10899697dd7bdbdac10f,2021-09-08_15h00.13.544,forced_choiceRT,2021.1.2,Win32,69.22810661,,,,,,,,10,Ontime,g,1,1.9801,7,0,28,1,1,,,,,
,0.8,,,,,,,,,g.PNG,g,60ff10899697dd7bdbdac10f,2021-09-08_15h00.13.544,forced_choiceRT,2021.1.2,Win32,69.22810661,,,,,,,,10,Ontime,g,1,1.9915,7,1,29,1,1,,,,,
,1,,,,,,,,,h.PNG,h,60ff10899697dd7bdbdac10f,2021-09-08_15h00.13.544,forced_choiceRT,2021.1.2,Win32,69.22810661,,,,,,,,10,Ontime,h,1,2.0338,7,2,30,2,1,,,,,
,0.53,,,,,,,,,f.PNG,f,60ff10899697dd7bdbdac10f,2021-09-08_15h00.13.544,forced_choiceRT,2021.1.2,Win32,69.22810661,,,,,,,,10,Ontime,f,1,2.0537,7,3,31,0,1,,,,,
,1.83,,,,,,,,,h.PNG,h,60ff10899697dd7bdbdac10f,2021-09-08_15h00.13.544,forced_choiceRT,2021.1.2,Win32,69.22810661,,,,,,,,10,Ontime,j,0,1.9174,8,0,32,2,1,,,,,
,0.02,,,,,,,,,j.PNG,j,60ff10899697dd7bdbdac10f,2021-09-08_15h00.13.544,forced_choiceRT,2021.1.2,Win32,69.22810661,,,,,,,,10,Fast,j,1,1.5506,8,1,33,3,1,,,,,
,1.71,,,,,,,,,f.PNG,f,60ff10899697dd7bdbdac10f,2021-09-08_15h00.13.544,forced_choiceRT,2021.1.2,Win32,69.22810661,,,,,,,,10,Ontime,j,0,2.0531,8,2,34,0,1,,,,,
,0.45,,,,,,,,,h.PNG,h,60ff10899697dd7bdbdac10f,2021-09-08_15h00.13.544,forced_choiceRT,2021.1.2,Win32,69.22810661,,,,,,,,10,Ontime,h,1,2.0341,8,3,35,2,1,,,,,
,1.13,,,,,,,,,j.PNG,j,60ff10899697dd7bdbdac10f,2021-09-08_15h00.13.544,forced_choiceRT,2021.1.2,Win32,69.22810661,,,,,,,,10,Ontime,j,1,2.0844,9,0,36,3,1,,,,,
,1.86,,,,,,,,,g.PNG,g,60ff10899697dd7bdbdac10f,2021-09-08_15h00.13.544,forced_choiceRT,2021.1.2,Win32,69.22810661,,,,,,,,10,Ontime,g,1,2.0513,9,1,37,1,1,,,,,
,1.98,,,,,,,,,j.PNG,j,60ff10899697dd7bdbdac10f,2021-09-08_15h00.13.544,forced_choiceRT,2021.1.2,Win32,69.22810661,,,,,,,,10,Ontime,g,0,1.9449,9,2,38,3,1,,,,,
,0.54,,,,,,,,,f.PNG,f,60ff10899697dd7bdbdac10f,2021-09-08_15h00.13.544,forced_choiceRT,2021.1.2,Win32,69.22810661,,,,,,,,10,Ontime,f,1,2.0003,9,3,39,0,1,,,,,
,,,,,,,,,,,,60ff10899697dd7bdbdac10f,2021-09-08_15h00.13.544,forced_choiceRT,2021.1.2,Win32,69.22810661,,,,,,,,,,,,,,,,,,9,0,9,0,1
