IP_Addresss,target_onset,trial_resp_sp.keys,trial_resp_sp.corr,trial_resp_sp.rt,trials_train_loop.thisRepN,trials_train_loop.thisTrialN,trials_train_loop.thisN,trials_train_loop.thisIndex,trials_train_loop.ran,pic,correct_key,participant,date,expName,psychopyVersion,OS,frameRate,trial_resp_timing.keys,trial_resp_timing.rt,trials_train_timing.thisRepN,trials_train_timing.thisTrialN,trials_train_timing.thisN,trials_train_timing.thisIndex,trials_train_timing.ran,block_id,ontime,forcedRT_resp.keys,forcedRT_resp.corr,forcedRT_resp.rt,trials.thisRepN,trials.thisTrialN,trials.thisN,trials.thisIndex,trials.ran,blocks.thisRepN,blocks.thisTrialN,blocks.thisN,blocks.thisIndex,blocks.ran
69.125.219.86,0,g,1,1.4417,0,0,0,1,1,g.PNG,g,6100c1e6c313cc2fc5ab3335,2021-09-08_20h54.01.998,forced_choiceRT,2021.1.2,MacIntel,60.0024001,,,,,,,,,,,,,,,,,,,,,,
,0,f,1,0.9206,0,1,1,0,1,f.PNG,f,6100c1e6c313cc2fc5ab3335,2021-09-08_20h54.01.998,forced_choiceRT,2021.1.2,MacIntel,60.0024001,,,,,,,,,,,,,,,,,,,,,,
,0,g,1,0.8827,0,2,2,1,1,g.PNG,g,6100c1e6c313cc2fc5ab3335,2021-09-08_20h54.01.998,forced_choiceRT,2021.1.2,MacIntel,60.0024001,,,,,,,,,,,,,,,,,,,,,,
,0,h,1,1.4538,0,3,3,2,1,h.PNG,h,6100c1e6c313cc2fc5ab3335,2021-09-08_20h54.01.998,forced_choiceRT,2021.1.2,MacIntel,60.0024001,,,,,,,,,,,,,,,,,,,,,,
,0,f,1,1.5673,1,0,4,0,1,f.PNG,f,6100c1e6c313cc2fc5ab3335,2021-09-08_20h54.01.998,forced_choiceRT,2021.1.2,MacIntel,60.0024001,,,,,,,,,,,,,,,,,,,,,,
,0,j,1,2.1349,1,1,5,3,1,j.PNG,j,6100c1e6c313cc2fc5ab3335,2021-09-08_20h54.01.998,forced_choiceRT,2021.1.2,MacIntel,60.0024001,,,,,,,,,,,,,,,,,,,,,,
,0,g,1,1.8818,1,2,6,1,1,g.PNG,g,6100c1e6c313cc2fc5ab3335,2021-09-08_20h54.01.998,forced_choiceRT,2021.1.2,MacIntel,60.0024001,,,,,,,,,,,,,,,,,,,,,,
,0,j,1,0.6174,1,3,7,3,1,j.PNG,j,6100c1e6c313cc2fc5ab3335,2021-09-08_20h54.01.998,forced_choiceRT,2021.1.2,MacIntel,60.0024001,,,,,,,,,,,,,,,,,,,,,,
,0,h,1,1.5025,2,0,8,2,1,h.PNG,h,6100c1e6c313cc2fc5ab3335,2021-09-08_20h54.01.998,forced_choiceRT,2021.1.2,MacIntel,60.0024001,,,,,,,,,,,,,,,,,,,,,,
,0,f,1,0.6668,2,1,9,0,1,f.PNG,f,6100c1e6c313cc2fc5ab3335,2021-09-08_20h54.01.998,forced_choiceRT,2021.1.2,MacIntel,60.0024001,,,,,,,,,,,,,,,,,,,,,,
,0,j,1,1.3012,2,2,10,3,1,j.PNG,j,6100c1e6c313cc2fc5ab3335,2021-09-08_20h54.01.998,forced_choiceRT,2021.1.2,MacIntel,60.0024001,,,,,,,,,,,,,,,,,,,,,,
,0,g,1,0.883,2,3,11,1,1,g.PNG,g,6100c1e6c313cc2fc5ab3335,2021-09-08_20h54.01.998,forced_choiceRT,2021.1.2,MacIntel,60.0024001,,,,,,,,,,,,,,,,,,,,,,
,0,h,1,0.8033,3,0,12,2,1,h.PNG,h,6100c1e6c313cc2fc5ab3335,2021-09-08_20h54.01.998,forced_choiceRT,2021.1.2,MacIntel,60.0024001,,,,,,,,,,,,,,,,,,,,,,
,0,j,1,0.7335,3,1,13,3,1,j.PNG,j,6100c1e6c313cc2fc5ab3335,2021-09-08_20h54.01.998,forced_choiceRT,2021.1.2,MacIntel,60.0024001,,,,,,,,,,,,,,,,,,,,,,
,0,j,1,0.7041,3,2,14,3,1,j.PNG,j,6100c1e6c313cc2fc5ab3335,2021-09-08_20h54.01.998,forced_choiceRT,2021.1.2,MacIntel,60.0024001,,,,,,,,,,,,,,,,,,,,,,
,0,j,1,0.5334,3,3,15,3,1,j.PNG,j,6100c1e6c313cc2fc5ab3335,2021-09-08_20h54.01.998,forced_choiceRT,2021.1.2,MacIntel,60.0024001,,,,,,,,,,,,,,,,,,,,,,
,0,f,1,0.601,4,0,16,0,1,f.PNG,f,6100c1e6c313cc2fc5ab3335,2021-09-08_20h54.01.998,forced_choiceRT,2021.1.2,MacIntel,60.0024001,,,,,,,,,,,,,,,,,,,,,,
,0,f,1,0.783,4,1,17,0,1,f.PNG,f,6100c1e6c313cc2fc5ab3335,2021-09-08_20h54.01.998,forced_choiceRT,2021.1.2,MacIntel,60.0024001,,,,,,,,,,,,,,,,,,,,,,
,0,g,1,0.7662,4,2,18,1,1,g.PNG,g,6100c1e6c313cc2fc5ab3335,2021-09-08_20h54.01.998,forced_choiceRT,2021.1.2,MacIntel,60.0024001,,,,,,,,,,,,,,,,,,,,,,
,0,h,1,0.7331,4,3,19,2,1,h.PNG,h,6100c1e6c313cc2fc5ab3335,2021-09-08_20h54.01.998,forced_choiceRT,2021.1.2,MacIntel,60.0024001,,,,,,,,,,,,,,,,,,,,,,
,0,g,1,1.0924,5,0,20,1,1,g.PNG,g,6100c1e6c313cc2fc5ab3335,2021-09-08_20h54.01.998,forced_choiceRT,2021.1.2,MacIntel,60.0024001,,,,,,,,,,,,,,,,,,,,,,
,0,g,1,0.5505,5,1,21,1,1,g.PNG,g,6100c1e6c313cc2fc5ab3335,2021-09-08_20h54.01.998,forced_choiceRT,2021.1.2,MacIntel,60.0024001,,,,,,,,,,,,,,,,,,,,,,
,0,f,1,0.6832,5,2,22,0,1,f.PNG,f,6100c1e6c313cc2fc5ab3335,2021-09-08_20h54.01.998,forced_choiceRT,2021.1.2,MacIntel,60.0024001,,,,,,,,,,,,,,,,,,,,,,
,0,j,1,1.4337,5,3,23,3,1,j.PNG,j,6100c1e6c313cc2fc5ab3335,2021-09-08_20h54.01.998,forced_choiceRT,2021.1.2,MacIntel,60.0024001,,,,,,,,,,,,,,,,,,,,,,
,0,j,1,0.5004,6,0,24,3,1,j.PNG,j,6100c1e6c313cc2fc5ab3335,2021-09-08_20h54.01.998,forced_choiceRT,2021.1.2,MacIntel,60.0024001,,,,,,,,,,,,,,,,,,,,,,
,0,g,1,0.7843,6,1,25,1,1,g.PNG,g,6100c1e6c313cc2fc5ab3335,2021-09-08_20h54.01.998,forced_choiceRT,2021.1.2,MacIntel,60.0024001,,,,,,,,,,,,,,,,,,,,,,
,0,f,1,0.6667,6,2,26,0,1,f.PNG,f,6100c1e6c313cc2fc5ab3335,2021-09-08_20h54.01.998,forced_choiceRT,2021.1.2,MacIntel,60.0024001,,,,,,,,,,,,,,,,,,,,,,
,0,h,1,0.7168,6,3,27,2,1,h.PNG,h,6100c1e6c313cc2fc5ab3335,2021-09-08_20h54.01.998,forced_choiceRT,2021.1.2,MacIntel,60.0024001,,,,,,,,,,,,,,,,,,,,,,
,0,h,1,0.5672,7,0,28,2,1,h.PNG,h,6100c1e6c313cc2fc5ab3335,2021-09-08_20h54.01.998,forced_choiceRT,2021.1.2,MacIntel,60.0024001,,,,,,,,,,,,,,,,,,,,,,
,0,h,1,0.4502,7,1,29,2,1,h.PNG,h,6100c1e6c313cc2fc5ab3335,2021-09-08_20h54.01.998,forced_choiceRT,2021.1.2,MacIntel,60.0024001,,,,,,,,,,,,,,,,,,,,,,
,0,h,1,0.4168,7,2,30,2,1,h.PNG,h,6100c1e6c313cc2fc5ab3335,2021-09-08_20h54.01.998,forced_choiceRT,2021.1.2,MacIntel,60.0024001,,,,,,,,,,,,,,,,,,,,,,
,0,h,1,0.4502,7,3,31,2,1,h.PNG,h,6100c1e6c313cc2fc5ab3335,2021-09-08_20h54.01.998,forced_choiceRT,2021.1.2,MacIntel,60.0024001,,,,,,,,,,,,,,,,,,,,,,
,0,f,1,0.5465,8,0,32,0,1,f.PNG,f,6100c1e6c313cc2fc5ab3335,2021-09-08_20h54.01.998,forced_choiceRT,2021.1.2,MacIntel,60.0024001,,,,,,,,,,,,,,,,,,,,,,
,0,f,1,0.5831,8,1,33,0,1,f.PNG,f,6100c1e6c313cc2fc5ab3335,2021-09-08_20h54.01.998,forced_choiceRT,2021.1.2,MacIntel,60.0024001,,,,,,,,,,,,,,,,,,,,,,
,0,f,1,0.4001,8,2,34,0,1,f.PNG,f,6100c1e6c313cc2fc5ab3335,2021-09-08_20h54.01.998,forced_choiceRT,2021.1.2,MacIntel,60.0024001,,,,,,,,,,,,,,,,,,,,,,
,0,g,1,0.6669,8,3,35,1,1,g.PNG,g,6100c1e6c313cc2fc5ab3335,2021-09-08_20h54.01.998,forced_choiceRT,2021.1.2,MacIntel,60.0024001,,,,,,,,,,,,,,,,,,,,,,
,0,h,1,0.9174,9,0,36,2,1,h.PNG,h,6100c1e6c313cc2fc5ab3335,2021-09-08_20h54.01.998,forced_choiceRT,2021.1.2,MacIntel,60.0024001,,,,,,,,,,,,,,,,,,,,,,
,0,g,1,1.0339,9,1,37,1,1,g.PNG,g,6100c1e6c313cc2fc5ab3335,2021-09-08_20h54.01.998,forced_choiceRT,2021.1.2,MacIntel,60.0024001,,,,,,,,,,,,,,,,,,,,,,
,0,h,1,0.6986,9,2,38,2,1,h.PNG,h,6100c1e6c313cc2fc5ab3335,2021-09-08_20h54.01.998,forced_choiceRT,2021.1.2,MacIntel,60.0024001,,,,,,,,,,,,,,,,,,,,,,
,0,h,1,0.5494,9,3,39,2,1,h.PNG,h,6100c1e6c313cc2fc5ab3335,2021-09-08_20h54.01.998,forced_choiceRT,2021.1.2,MacIntel,60.0024001,,,,,,,,,,,,,,,,,,,,,,
,0,g,1,0.8499,10,0,40,1,1,g.PNG,g,6100c1e6c313cc2fc5ab3335,2021-09-08_20h54.01.998,forced_choiceRT,2021.1.2,MacIntel,60.0024001,,,,,,,,,,,,,,,,,,,,,,
,0,h,1,0.7816,10,1,41,2,1,h.PNG,h,6100c1e6c313cc2fc5ab3335,2021-09-08_20h54.01.998,forced_choiceRT,2021.1.2,MacIntel,60.0024001,,,,,,,,,,,,,,,,,,,,,,
,0,h,1,0.5521,10,2,42,2,1,h.PNG,h,6100c1e6c313cc2fc5ab3335,2021-09-08_20h54.01.998,forced_choiceRT,2021.1.2,MacIntel,60.0024001,,,,,,,,,,,,,,,,,,,,,,
,0,j,1,0.4838,10,3,43,3,1,j.PNG,j,6100c1e6c313cc2fc5ab3335,2021-09-08_20h54.01.998,forced_choiceRT,2021.1.2,MacIntel,60.0024001,,,,,,,,,,,,,,,,,,,,,,
,0,g,1,0.8045,11,0,44,1,1,g.PNG,g,6100c1e6c313cc2fc5ab3335,2021-09-08_20h54.01.998,forced_choiceRT,2021.1.2,MacIntel,60.0024001,,,,,,,,,,,,,,,,,,,,,,
,0,g,1,0.9856,11,1,45,1,1,g.PNG,g,6100c1e6c313cc2fc5ab3335,2021-09-08_20h54.01.998,forced_choiceRT,2021.1.2,MacIntel,60.0024001,,,,,,,,,,,,,,,,,,,,,,
,0,j,1,0.8181,11,2,46,3,1,j.PNG,j,6100c1e6c313cc2fc5ab3335,2021-09-08_20h54.01.998,forced_choiceRT,2021.1.2,MacIntel,60.0024001,,,,,,,,,,,,,,,,,,,,,,
,0,f,1,0.667,11,3,47,0,1,f.PNG,f,6100c1e6c313cc2fc5ab3335,2021-09-08_20h54.01.998,forced_choiceRT,2021.1.2,MacIntel,60.0024001,,,,,,,,,,,,,,,,,,,,,,
,0,g,1,0.484,12,0,48,1,1,g.PNG,g,6100c1e6c313cc2fc5ab3335,2021-09-08_20h54.01.998,forced_choiceRT,2021.1.2,MacIntel,60.0024001,,,,,,,,,,,,,,,,,,,,,,
,0,j,1,0.7343,12,1,49,3,1,j.PNG,j,6100c1e6c313cc2fc5ab3335,2021-09-08_20h54.01.998,forced_choiceRT,2021.1.2,MacIntel,60.0024001,,,,,,,,,,,,,,,,,,,,,,
,0,j,1,0.6671,12,2,50,3,1,j.PNG,j,6100c1e6c313cc2fc5ab3335,2021-09-08_20h54.01.998,forced_choiceRT,2021.1.2,MacIntel,60.0024001,,,,,,,,,,,,,,,,,,,,,,
,0,h,1,0.6181,12,3,51,2,1,h.PNG,h,6100c1e6c313cc2fc5ab3335,2021-09-08_20h54.01.998,forced_choiceRT,2021.1.2,MacIntel,60.0024001,,,,,,,,,,,,,,,,,,,,,,
,0,f,1,0.7342,13,0,52,0,1,f.PNG,f,6100c1e6c313cc2fc5ab3335,2021-09-08_20h54.01.998,forced_choiceRT,2021.1.2,MacIntel,60.0024001,,,,,,,,,,,,,,,,,,,,,,
,0,g,1,0.5819,13,1,53,1,1,g.PNG,g,6100c1e6c313cc2fc5ab3335,2021-09-08_20h54.01.998,forced_choiceRT,2021.1.2,MacIntel,60.0024001,,,,,,,,,,,,,,,,,,,,,,
,0,j,1,0.6499,13,2,54,3,1,j.PNG,j,6100c1e6c313cc2fc5ab3335,2021-09-08_20h54.01.998,forced_choiceRT,2021.1.2,MacIntel,60.0024001,,,,,,,,,,,,,,,,,,,,,,
,0,f,1,0.7503,13,3,55,0,1,f.PNG,f,6100c1e6c313cc2fc5ab3335,2021-09-08_20h54.01.998,forced_choiceRT,2021.1.2,MacIntel,60.0024001,,,,,,,,,,,,,,,,,,,,,,
,0,f,1,0.5338,14,0,56,0,1,f.PNG,f,6100c1e6c313cc2fc5ab3335,2021-09-08_20h54.01.998,forced_choiceRT,2021.1.2,MacIntel,60.0024001,,,,,,,,,,,,,,,,,,,,,,
,0,j,1,1.2372,14,1,57,3,1,j.PNG,j,6100c1e6c313cc2fc5ab3335,2021-09-08_20h54.01.998,forced_choiceRT,2021.1.2,MacIntel,60.0024001,,,,,,,,,,,,,,,,,,,,,,
,0,j,1,0.5,14,2,58,3,1,j.PNG,j,6100c1e6c313cc2fc5ab3335,2021-09-08_20h54.01.998,forced_choiceRT,2021.1.2,MacIntel,60.0024001,,,,,,,,,,,,,,,,,,,,,,
,0,f,1,0.6504,14,3,59,0,1,f.PNG,f,6100c1e6c313cc2fc5ab3335,2021-09-08_20h54.01.998,forced_choiceRT,2021.1.2,MacIntel,60.0024001,,,,,,,,,,,,,,,,,,,,,,
,,,,,,,,,,,,6100c1e6c313cc2fc5ab3335,2021-09-08_20h54.01.998,forced_choiceRT,2021.1.2,MacIntel,60.0024001,f,6.4739,0,0,0,0,1,,,,,,,,,,,,,,,
,,,,,,,,,,,,6100c1e6c313cc2fc5ab3335,2021-09-08_20h54.01.998,forced_choiceRT,2021.1.2,MacIntel,60.0024001,g,2.1983,1,0,1,0,1,,,,,,,,,,,,,,,
,,,,,,,,,,,,6100c1e6c313cc2fc5ab3335,2021-09-08_20h54.01.998,forced_choiceRT,2021.1.2,MacIntel,60.0024001,j,1.8838,2,0,2,0,1,,,,,,,,,,,,,,,
,,,,,,,,,,,,6100c1e6c313cc2fc5ab3335,2021-09-08_20h54.01.998,forced_choiceRT,2021.1.2,MacIntel,60.0024001,j,2.018,3,0,3,0,1,,,,,,,,,,,,,,,
,,,,,,,,,,,,6100c1e6c313cc2fc5ab3335,2021-09-08_20h54.01.998,forced_choiceRT,2021.1.2,MacIntel,60.0024001,j,2.0672,4,0,4,0,1,,,,,,,,,,,,,,,
,,,,,,,,,,,,6100c1e6c313cc2fc5ab3335,2021-09-08_20h54.01.998,forced_choiceRT,2021.1.2,MacIntel,60.0024001,h,2.0525,5,0,5,0,1,,,,,,,,,,,,,,,
,,,,,,,,,,,,6100c1e6c313cc2fc5ab3335,2021-09-08_20h54.01.998,forced_choiceRT,2021.1.2,MacIntel,60.0024001,g,2.0342,6,0,6,0,1,,,,,,,,,,,,,,,
,,,,,,,,,,,,6100c1e6c313cc2fc5ab3335,2021-09-08_20h54.01.998,forced_choiceRT,2021.1.2,MacIntel,60.0024001,f,1.9872,7,0,7,0,1,,,,,,,,,,,,,,,
,,,,,,,,,,,,6100c1e6c313cc2fc5ab3335,2021-09-08_20h54.01.998,forced_choiceRT,2021.1.2,MacIntel,60.0024001,j,2.0524,8,0,8,0,1,,,,,,,,,,,,,,,
,,,,,,,,,,,,6100c1e6c313cc2fc5ab3335,2021-09-08_20h54.01.998,forced_choiceRT,2021.1.2,MacIntel,60.0024001,j,2.0999,9,0,9,0,1,,,,,,,,,,,,,,,
,,,,,,,,,,,,6100c1e6c313cc2fc5ab3335,2021-09-08_20h54.01.998,forced_choiceRT,2021.1.2,MacIntel,60.0024001,j,2.0145,10,0,10,0,1,,,,,,,,,,,,,,,
,,,,,,,,,,,,6100c1e6c313cc2fc5ab3335,2021-09-08_20h54.01.998,forced_choiceRT,2021.1.2,MacIntel,60.0024001,j,2.0504,11,0,11,0,1,,,,,,,,,,,,,,,
,,,,,,,,,,,,6100c1e6c313cc2fc5ab3335,2021-09-08_20h54.01.998,forced_choiceRT,2021.1.2,MacIntel,60.0024001,j,1.9696,12,0,12,0,1,,,,,,,,,,,,,,,
,,,,,,,,,,,,6100c1e6c313cc2fc5ab3335,2021-09-08_20h54.01.998,forced_choiceRT,2021.1.2,MacIntel,60.0024001,j,2.0375,13,0,13,0,1,,,,,,,,,,,,,,,
,,,,,,,,,,,,6100c1e6c313cc2fc5ab3335,2021-09-08_20h54.01.998,forced_choiceRT,2021.1.2,MacIntel,60.0024001,j,2.0677,14,0,14,0,1,,,,,,,,,,,,,,,
,,,,,,,,,,,,6100c1e6c313cc2fc5ab3335,2021-09-08_20h54.01.998,forced_choiceRT,2021.1.2,MacIntel,60.0024001,j,1.9866,15,0,15,0,1,,,,,,,,,,,,,,,
,,,,,,,,,,,,6100c1e6c313cc2fc5ab3335,2021-09-08_20h54.01.998,forced_choiceRT,2021.1.2,MacIntel,60.0024001,j,1.9998,16,0,16,0,1,,,,,,,,,,,,,,,
,,,,,,,,,,,,6100c1e6c313cc2fc5ab3335,2021-09-08_20h54.01.998,forced_choiceRT,2021.1.2,MacIntel,60.0024001,j,2.0344,17,0,17,0,1,,,,,,,,,,,,,,,
,,,,,,,,,,,,6100c1e6c313cc2fc5ab3335,2021-09-08_20h54.01.998,forced_choiceRT,2021.1.2,MacIntel,60.0024001,j,1.9818,18,0,18,0,1,,,,,,,,,,,,,,,
,,,,,,,,,,,,6100c1e6c313cc2fc5ab3335,2021-09-08_20h54.01.998,forced_choiceRT,2021.1.2,MacIntel,60.0024001,j,1.9853,19,0,19,0,1,,,,,,,,,,,,,,,
,1.33,,,,,,,,,g.PNG,g,6100c1e6c313cc2fc5ab3335,2021-09-08_20h54.01.998,forced_choiceRT,2021.1.2,MacIntel,60.0024001,,,,,,,,1,Ontime,j,0,1.954,0,0,0,1,1,,,,,
,0.65,,,,,,,,,h.PNG,h,6100c1e6c313cc2fc5ab3335,2021-09-08_20h54.01.998,forced_choiceRT,2021.1.2,MacIntel,60.0024001,,,,,,,,1,Fast,h,1,1.6502,0,1,1,2,1,,,,,
,0.15,,,,,,,,,g.PNG,g,6100c1e6c313cc2fc5ab3335,2021-09-08_20h54.01.998,forced_choiceRT,2021.1.2,MacIntel,60.0024001,,,,,,,,1,Slow,g,1,2.1176,0,2,2,1,1,,,,,
,0.31,,,,,,,,,j.PNG,j,6100c1e6c313cc2fc5ab3335,2021-09-08_20h54.01.998,forced_choiceRT,2021.1.2,MacIntel,60.0024001,,,,,,,,1,Ontime,j,1,2.0502,0,3,3,3,1,,,,,
,0.55,,,,,,,,,f.PNG,f,6100c1e6c313cc2fc5ab3335,2021-09-08_20h54.01.998,forced_choiceRT,2021.1.2,MacIntel,60.0024001,,,,,,,,1,Ontime,f,1,2.0513,1,0,4,0,1,,,,,
,0.89,,,,,,,,,f.PNG,f,6100c1e6c313cc2fc5ab3335,2021-09-08_20h54.01.998,forced_choiceRT,2021.1.2,MacIntel,60.0024001,,,,,,,,1,Ontime,f,1,2.0673,1,1,5,0,1,,,,,
,1.83,,,,,,,,,h.PNG,h,6100c1e6c313cc2fc5ab3335,2021-09-08_20h54.01.998,forced_choiceRT,2021.1.2,MacIntel,60.0024001,,,,,,,,1,Slow,g,0,2.3671,1,2,6,2,1,,,,,
,1.84,,,,,,,,,g.PNG,g,6100c1e6c313cc2fc5ab3335,2021-09-08_20h54.01.998,forced_choiceRT,2021.1.2,MacIntel,60.0024001,,,,,,,,1,Slow,j,0,2.284,1,3,7,1,1,,,,,
,1.57,,,,,,,,,h.PNG,h,6100c1e6c313cc2fc5ab3335,2021-09-08_20h54.01.998,forced_choiceRT,2021.1.2,MacIntel,60.0024001,,,,,,,,1,Slow,h,1,2.2034,2,0,8,2,1,,,,,
,1.39,,,,,,,,,j.PNG,j,6100c1e6c313cc2fc5ab3335,2021-09-08_20h54.01.998,forced_choiceRT,2021.1.2,MacIntel,60.0024001,,,,,,,,1,Ontime,j,1,2.0362,2,1,9,3,1,,,,,
,1.37,,,,,,,,,h.PNG,h,6100c1e6c313cc2fc5ab3335,2021-09-08_20h54.01.998,forced_choiceRT,2021.1.2,MacIntel,60.0024001,,,,,,,,1,Slow,h,1,2.1172,2,2,10,2,1,,,,,
,1.65,,,,,,,,,g.PNG,g,6100c1e6c313cc2fc5ab3335,2021-09-08_20h54.01.998,forced_choiceRT,2021.1.2,MacIntel,60.0024001,,,,,,,,1,Slow,j,0,2.3335,2,3,11,1,1,,,,,
,1.03,,,,,,,,,g.PNG,g,6100c1e6c313cc2fc5ab3335,2021-09-08_20h54.01.998,forced_choiceRT,2021.1.2,MacIntel,60.0024001,,,,,,,,1,Slow,g,1,3.2007,3,0,12,1,1,,,,,
,0.79,,,,,,,,,h.PNG,h,6100c1e6c313cc2fc5ab3335,2021-09-08_20h54.01.998,forced_choiceRT,2021.1.2,MacIntel,60.0024001,,,,,,,,1,Ontime,h,1,2.0179,3,1,13,2,1,,,,,
,0.58,,,,,,,,,j.PNG,j,6100c1e6c313cc2fc5ab3335,2021-09-08_20h54.01.998,forced_choiceRT,2021.1.2,MacIntel,60.0024001,,,,,,,,1,Fast,j,1,1.7839,3,2,14,3,1,,,,,
,1.18,,,,,,,,,j.PNG,j,6100c1e6c313cc2fc5ab3335,2021-09-08_20h54.01.998,forced_choiceRT,2021.1.2,MacIntel,60.0024001,,,,,,,,1,Ontime,j,1,2.0836,3,3,15,3,1,,,,,
,0.19,,,,,,,,,h.PNG,h,6100c1e6c313cc2fc5ab3335,2021-09-08_20h54.01.998,forced_choiceRT,2021.1.2,MacIntel,60.0024001,,,,,,,,1,Ontime,h,1,2.084,4,0,16,2,1,,,,,
,0.93,,,,,,,,,j.PNG,j,6100c1e6c313cc2fc5ab3335,2021-09-08_20h54.01.998,forced_choiceRT,2021.1.2,MacIntel,60.0024001,,,,,,,,1,Ontime,j,1,2.053,4,1,17,3,1,,,,,
,0.38,,,,,,,,,f.PNG,f,6100c1e6c313cc2fc5ab3335,2021-09-08_20h54.01.998,forced_choiceRT,2021.1.2,MacIntel,60.0024001,,,,,,,,1,Ontime,f,1,2.0374,4,2,18,0,1,,,,,
,1.8,,,,,,,,,j.PNG,j,6100c1e6c313cc2fc5ab3335,2021-09-08_20h54.01.998,forced_choiceRT,2021.1.2,MacIntel,60.0024001,,,,,,,,1,Slow,j,1,2.3352,4,3,19,3,1,,,,,
,1.19,,,,,,,,,h.PNG,h,6100c1e6c313cc2fc5ab3335,2021-09-08_20h54.01.998,forced_choiceRT,2021.1.2,MacIntel,60.0024001,,,,,,,,1,Slow,g,0,2.1488,5,0,20,2,1,,,,,
,1.51,,,,,,,,,g.PNG,g,6100c1e6c313cc2fc5ab3335,2021-09-08_20h54.01.998,forced_choiceRT,2021.1.2,MacIntel,60.0024001,,,,,,,,1,Slow,g,1,2.1236,5,1,21,1,1,,,,,
,0.66,,,,,,,,,g.PNG,g,6100c1e6c313cc2fc5ab3335,2021-09-08_20h54.01.998,forced_choiceRT,2021.1.2,MacIntel,60.0024001,,,,,,,,1,Ontime,g,1,2.0841,5,2,22,1,1,,,,,
,0.64,,,,,,,,,j.PNG,j,6100c1e6c313cc2fc5ab3335,2021-09-08_20h54.01.998,forced_choiceRT,2021.1.2,MacIntel,60.0024001,,,,,,,,1,Slow,j,1,2.1006,5,3,23,3,1,,,,,
,1.49,,,,,,,,,f.PNG,f,6100c1e6c313cc2fc5ab3335,2021-09-08_20h54.01.998,forced_choiceRT,2021.1.2,MacIntel,60.0024001,,,,,,,,1,Slow,f,1,2.1873,6,0,24,0,1,,,,,
,0.61,,,,,,,,,j.PNG,j,6100c1e6c313cc2fc5ab3335,2021-09-08_20h54.01.998,forced_choiceRT,2021.1.2,MacIntel,60.0024001,,,,,,,,1,Ontime,j,1,2.0513,6,1,25,3,1,,,,,
,1.54,,,,,,,,,j.PNG,j,6100c1e6c313cc2fc5ab3335,2021-09-08_20h54.01.998,forced_choiceRT,2021.1.2,MacIntel,60.0024001,,,,,,,,1,Slow,j,1,2.1327,6,2,26,3,1,,,,,
,0.57,,,,,,,,,f.PNG,f,6100c1e6c313cc2fc5ab3335,2021-09-08_20h54.01.998,forced_choiceRT,2021.1.2,MacIntel,60.0024001,,,,,,,,1,Ontime,f,1,2.0797,6,3,27,0,1,,,,,
,1,,,,,,,,,g.PNG,g,6100c1e6c313cc2fc5ab3335,2021-09-08_20h54.01.998,forced_choiceRT,2021.1.2,MacIntel,60.0024001,,,,,,,,1,Ontime,g,1,1.9347,7,0,28,1,1,,,,,
,0.98,,,,,,,,,f.PNG,f,6100c1e6c313cc2fc5ab3335,2021-09-08_20h54.01.998,forced_choiceRT,2021.1.2,MacIntel,60.0024001,,,,,,,,1,Ontime,f,1,2.0163,7,1,29,0,1,,,,,
,1.87,,,,,,,,,g.PNG,g,6100c1e6c313cc2fc5ab3335,2021-09-08_20h54.01.998,forced_choiceRT,2021.1.2,MacIntel,60.0024001,,,,,,,,1,Slow,g,1,2.9512,7,2,30,1,1,,,,,
,1.78,,,,,,,,,f.PNG,f,6100c1e6c313cc2fc5ab3335,2021-09-08_20h54.01.998,forced_choiceRT,2021.1.2,MacIntel,60.0024001,,,,,,,,1,Slow,h,0,2.1692,7,3,31,0,1,,,,,
,1.24,,,,,,,,,j.PNG,j,6100c1e6c313cc2fc5ab3335,2021-09-08_20h54.01.998,forced_choiceRT,2021.1.2,MacIntel,60.0024001,,,,,,,,1,Slow,j,1,2.1387,8,0,32,3,1,,,,,
,1.89,,,,,,,,,h.PNG,h,6100c1e6c313cc2fc5ab3335,2021-09-08_20h54.01.998,forced_choiceRT,2021.1.2,MacIntel,60.0024001,,,,,,,,1,Slow,f,0,2.1017,8,1,33,2,1,,,,,
,0,,,,,,,,,f.PNG,f,6100c1e6c313cc2fc5ab3335,2021-09-08_20h54.01.998,forced_choiceRT,2021.1.2,MacIntel,60.0024001,,,,,,,,1,Ontime,f,1,2.0688,8,2,34,0,1,,,,,
,1.23,,,,,,,,,f.PNG,f,6100c1e6c313cc2fc5ab3335,2021-09-08_20h54.01.998,forced_choiceRT,2021.1.2,MacIntel,60.0024001,,,,,,,,1,Ontime,f,1,1.9156,8,3,35,0,1,,,,,
,1.27,,,,,,,,,g.PNG,g,6100c1e6c313cc2fc5ab3335,2021-09-08_20h54.01.998,forced_choiceRT,2021.1.2,MacIntel,60.0024001,,,,,,,,1,Ontime,g,1,2.0172,9,0,36,1,1,,,,,
,1.24,,,,,,,,,h.PNG,h,6100c1e6c313cc2fc5ab3335,2021-09-08_20h54.01.998,forced_choiceRT,2021.1.2,MacIntel,60.0024001,,,,,,,,1,Ontime,h,1,1.9179,9,1,37,2,1,,,,,
,0.6,,,,,,,,,h.PNG,h,6100c1e6c313cc2fc5ab3335,2021-09-08_20h54.01.998,forced_choiceRT,2021.1.2,MacIntel,60.0024001,,,,,,,,1,Fast,h,1,1.7678,9,2,38,2,1,,,,,
,1.32,,,,,,,,,f.PNG,f,6100c1e6c313cc2fc5ab3335,2021-09-08_20h54.01.998,forced_choiceRT,2021.1.2,MacIntel,60.0024001,,,,,,,,1,Ontime,f,1,2.0526,9,3,39,0,1,,,,,
,,,,,,,,,,,,6100c1e6c313cc2fc5ab3335,2021-09-08_20h54.01.998,forced_choiceRT,2021.1.2,MacIntel,60.0024001,,,,,,,,,,,,,,,,,,0,0,0,0,1
,1.21,,,,,,,,,g.PNG,g,6100c1e6c313cc2fc5ab3335,2021-09-08_20h54.01.998,forced_choiceRT,2021.1.2,MacIntel,60.0024001,,,,,,,,2,Ontime,g,1,1.9798,0,0,0,1,1,,,,,
,0.28,,,,,,,,,f.PNG,f,6100c1e6c313cc2fc5ab3335,2021-09-08_20h54.01.998,forced_choiceRT,2021.1.2,MacIntel,60.0024001,,,,,,,,2,Ontime,f,1,2.0343,0,1,1,0,1,,,,,
,0.41,,,,,,,,,h.PNG,h,6100c1e6c313cc2fc5ab3335,2021-09-08_20h54.01.998,forced_choiceRT,2021.1.2,MacIntel,60.0024001,,,,,,,,2,Ontime,h,1,2.0514,0,2,2,2,1,,,,,
,0.37,,,,,,,,,h.PNG,h,6100c1e6c313cc2fc5ab3335,2021-09-08_20h54.01.998,forced_choiceRT,2021.1.2,MacIntel,60.0024001,,,,,,,,2,Fast,g,0,1.6837,0,3,3,2,1,,,,,
,0.8,,,,,,,,,f.PNG,f,6100c1e6c313cc2fc5ab3335,2021-09-08_20h54.01.998,forced_choiceRT,2021.1.2,MacIntel,60.0024001,,,,,,,,2,Ontime,f,1,2.051,1,0,4,0,1,,,,,
,0.02,,,,,,,,,g.PNG,g,6100c1e6c313cc2fc5ab3335,2021-09-08_20h54.01.998,forced_choiceRT,2021.1.2,MacIntel,60.0024001,,,,,,,,2,Ontime,g,1,2.084,1,1,5,1,1,,,,,
,0.66,,,,,,,,,g.PNG,g,6100c1e6c313cc2fc5ab3335,2021-09-08_20h54.01.998,forced_choiceRT,2021.1.2,MacIntel,60.0024001,,,,,,,,2,Ontime,g,1,2.0183,1,2,6,1,1,,,,,
,1.78,,,,,,,,,f.PNG,f,6100c1e6c313cc2fc5ab3335,2021-09-08_20h54.01.998,forced_choiceRT,2021.1.2,MacIntel,60.0024001,,,,,,,,2,Slow,f,1,2.2678,1,3,7,0,1,,,,,
,1.55,,,,,,,,,j.PNG,j,6100c1e6c313cc2fc5ab3335,2021-09-08_20h54.01.998,forced_choiceRT,2021.1.2,MacIntel,60.0024001,,,,,,,,2,Ontime,j,1,2.0162,2,0,8,3,1,,,,,
,1.02,,,,,,,,,j.PNG,j,6100c1e6c313cc2fc5ab3335,2021-09-08_20h54.01.998,forced_choiceRT,2021.1.2,MacIntel,60.0024001,,,,,,,,2,Ontime,j,1,2.0337,2,1,9,3,1,,,,,
,0.61,,,,,,,,,j.PNG,j,6100c1e6c313cc2fc5ab3335,2021-09-08_20h54.01.998,forced_choiceRT,2021.1.2,MacIntel,60.0024001,,,,,,,,2,Ontime,j,1,2.0289,2,2,10,3,1,,,,,
,1.05,,,,,,,,,h.PNG,h,6100c1e6c313cc2fc5ab3335,2021-09-08_20h54.01.998,forced_choiceRT,2021.1.2,MacIntel,60.0024001,,,,,,,,2,Ontime,h,1,2.0487,2,3,11,2,1,,,,,
,0.35,,,,,,,,,j.PNG,j,6100c1e6c313cc2fc5ab3335,2021-09-08_20h54.01.998,forced_choiceRT,2021.1.2,MacIntel,60.0024001,,,,,,,,2,Ontime,j,1,2.0518,3,0,12,3,1,,,,,
,1.62,,,,,,,,,f.PNG,f,6100c1e6c313cc2fc5ab3335,2021-09-08_20h54.01.998,forced_choiceRT,2021.1.2,MacIntel,60.0024001,,,,,,,,2,Ontime,f,1,2.0344,3,1,13,0,1,,,,,
,1.39,,,,,,,,,f.PNG,f,6100c1e6c313cc2fc5ab3335,2021-09-08_20h54.01.998,forced_choiceRT,2021.1.2,MacIntel,60.0024001,,,,,,,,2,Ontime,f,1,2.0503,3,2,14,0,1,,,,,
,1.46,,,,,,,,,j.PNG,j,6100c1e6c313cc2fc5ab3335,2021-09-08_20h54.01.998,forced_choiceRT,2021.1.2,MacIntel,60.0024001,,,,,,,,2,Ontime,j,1,2.0343,3,3,15,3,1,,,,,
,0.47,,,,,,,,,j.PNG,j,6100c1e6c313cc2fc5ab3335,2021-09-08_20h54.01.998,forced_choiceRT,2021.1.2,MacIntel,60.0024001,,,,,,,,2,Ontime,j,1,2.0173,4,0,16,3,1,,,,,
,0.14,,,,,,,,,h.PNG,h,6100c1e6c313cc2fc5ab3335,2021-09-08_20h54.01.998,forced_choiceRT,2021.1.2,MacIntel,60.0024001,,,,,,,,2,Ontime,g,0,2.0031,4,1,17,2,1,,,,,
,0.35,,,,,,,,,j.PNG,j,6100c1e6c313cc2fc5ab3335,2021-09-08_20h54.01.998,forced_choiceRT,2021.1.2,MacIntel,60.0024001,,,,,,,,2,Ontime,j,1,2.0345,4,2,18,3,1,,,,,
,0.3,,,,,,,,,f.PNG,f,6100c1e6c313cc2fc5ab3335,2021-09-08_20h54.01.998,forced_choiceRT,2021.1.2,MacIntel,60.0024001,,,,,,,,2,Ontime,f,1,2.0506,4,3,19,0,1,,,,,
,0.88,,,,,,,,,h.PNG,h,6100c1e6c313cc2fc5ab3335,2021-09-08_20h54.01.998,forced_choiceRT,2021.1.2,MacIntel,60.0024001,,,,,,,,2,Ontime,g,0,2.0339,5,0,20,2,1,,,,,
,0.12,,,,,,,,,g.PNG,g,6100c1e6c313cc2fc5ab3335,2021-09-08_20h54.01.998,forced_choiceRT,2021.1.2,MacIntel,60.0024001,,,,,,,,2,Ontime,g,1,2.0007,5,1,21,1,1,,,,,
,1,,,,,,,,,h.PNG,h,6100c1e6c313cc2fc5ab3335,2021-09-08_20h54.01.998,forced_choiceRT,2021.1.2,MacIntel,60.0024001,,,,,,,,2,Ontime,h,1,2.0002,5,2,22,2,1,,,,,
,0.56,,,,,,,,,f.PNG,f,6100c1e6c313cc2fc5ab3335,2021-09-08_20h54.01.998,forced_choiceRT,2021.1.2,MacIntel,60.0024001,,,,,,,,2,Ontime,f,1,2.0345,5,3,23,0,1,,,,,
,0.68,,,,,,,,,h.PNG,h,6100c1e6c313cc2fc5ab3335,2021-09-08_20h54.01.998,forced_choiceRT,2021.1.2,MacIntel,60.0024001,,,,,,,,2,Ontime,h,1,2.0505,6,0,24,2,1,,,,,
,0.03,,,,,,,,,f.PNG,f,6100c1e6c313cc2fc5ab3335,2021-09-08_20h54.01.998,forced_choiceRT,2021.1.2,MacIntel,60.0024001,,,,,,,,2,Ontime,f,1,2.0837,6,1,25,0,1,,,,,
,0.23,,,,,,,,,g.PNG,g,6100c1e6c313cc2fc5ab3335,2021-09-08_20h54.01.998,forced_choiceRT,2021.1.2,MacIntel,60.0024001,,,,,,,,2,Ontime,g,1,2.0518,6,2,26,1,1,,,,,
,1.51,,,,,,,,,j.PNG,j,6100c1e6c313cc2fc5ab3335,2021-09-08_20h54.01.998,forced_choiceRT,2021.1.2,MacIntel,60.0024001,,,,,,,,2,Ontime,j,1,2.0169,6,3,27,3,1,,,,,
,0.09,,,,,,,,,f.PNG,f,6100c1e6c313cc2fc5ab3335,2021-09-08_20h54.01.998,forced_choiceRT,2021.1.2,MacIntel,60.0024001,,,,,,,,2,Slow,f,1,2.1003,7,0,28,0,1,,,,,
,1.87,,,,,,,,,g.PNG,g,6100c1e6c313cc2fc5ab3335,2021-09-08_20h54.01.998,forced_choiceRT,2021.1.2,MacIntel,60.0024001,,,,,,,,2,Slow,f,0,2.2177,7,1,29,1,1,,,,,
,0.42,,,,,,,,,h.PNG,h,6100c1e6c313cc2fc5ab3335,2021-09-08_20h54.01.998,forced_choiceRT,2021.1.2,MacIntel,60.0024001,,,,,,,,2,Ontime,h,1,2.0684,7,2,30,2,1,,,,,
,1.09,,,,,,,,,g.PNG,g,6100c1e6c313cc2fc5ab3335,2021-09-08_20h54.01.998,forced_choiceRT,2021.1.2,MacIntel,60.0024001,,,,,,,,2,Ontime,g,1,2.0515,7,3,31,1,1,,,,,
,0.34,,,,,,,,,f.PNG,f,6100c1e6c313cc2fc5ab3335,2021-09-08_20h54.01.998,forced_choiceRT,2021.1.2,MacIntel,60.0024001,,,,,,,,2,Ontime,f,1,2.0513,8,0,32,0,1,,,,,
,0.55,,,,,,,,,j.PNG,j,6100c1e6c313cc2fc5ab3335,2021-09-08_20h54.01.998,forced_choiceRT,2021.1.2,MacIntel,60.0024001,,,,,,,,2,Ontime,j,1,2.0503,8,1,33,3,1,,,,,
,0.71,,,,,,,,,h.PNG,h,6100c1e6c313cc2fc5ab3335,2021-09-08_20h54.01.998,forced_choiceRT,2021.1.2,MacIntel,60.0024001,,,,,,,,2,Ontime,h,1,2.0261,8,2,34,2,1,,,,,
,0.53,,,,,,,,,h.PNG,h,6100c1e6c313cc2fc5ab3335,2021-09-08_20h54.01.998,forced_choiceRT,2021.1.2,MacIntel,60.0024001,,,,,,,,2,Ontime,h,1,2.0172,8,3,35,2,1,,,,,
,1.72,,,,,,,,,g.PNG,g,6100c1e6c313cc2fc5ab3335,2021-09-08_20h54.01.998,forced_choiceRT,2021.1.2,MacIntel,60.0024001,,,,,,,,2,Ontime,f,0,2.0013,9,0,36,1,1,,,,,
,0.84,,,,,,,,,j.PNG,j,6100c1e6c313cc2fc5ab3335,2021-09-08_20h54.01.998,forced_choiceRT,2021.1.2,MacIntel,60.0024001,,,,,,,,2,Ontime,j,1,2.0842,9,1,37,3,1,,,,,
,0.93,,,,,,,,,g.PNG,g,6100c1e6c313cc2fc5ab3335,2021-09-08_20h54.01.998,forced_choiceRT,2021.1.2,MacIntel,60.0024001,,,,,,,,2,Ontime,g,1,2.0502,9,2,38,1,1,,,,,
,1.47,,,,,,,,,g.PNG,g,6100c1e6c313cc2fc5ab3335,2021-09-08_20h54.01.998,forced_choiceRT,2021.1.2,MacIntel,60.0024001,,,,,,,,2,Slow,g,1,2.1667,9,3,39,1,1,,,,,
,,,,,,,,,,,,6100c1e6c313cc2fc5ab3335,2021-09-08_20h54.01.998,forced_choiceRT,2021.1.2,MacIntel,60.0024001,,,,,,,,,,,,,,,,,,1,0,1,0,1
,0.9,,,,,,,,,h.PNG,h,6100c1e6c313cc2fc5ab3335,2021-09-08_20h54.01.998,forced_choiceRT,2021.1.2,MacIntel,60.0024001,,,,,,,,3,Ontime,h,1,2.0605,0,0,0,2,1,,,,,
,1.64,,,,,,,,,h.PNG,h,6100c1e6c313cc2fc5ab3335,2021-09-08_20h54.01.998,forced_choiceRT,2021.1.2,MacIntel,60.0024001,,,,,,,,3,Slow,h,1,2.1042,0,1,1,2,1,,,,,
,0.94,,,,,,,,,j.PNG,j,6100c1e6c313cc2fc5ab3335,2021-09-08_20h54.01.998,forced_choiceRT,2021.1.2,MacIntel,60.0024001,,,,,,,,3,Ontime,j,1,2.0326,0,2,2,3,1,,,,,
,0.55,,,,,,,,,h.PNG,h,6100c1e6c313cc2fc5ab3335,2021-09-08_20h54.01.998,forced_choiceRT,2021.1.2,MacIntel,60.0024001,,,,,,,,3,Ontime,h,1,2.0478,0,3,3,2,1,,,,,
,0.49,,,,,,,,,h.PNG,h,6100c1e6c313cc2fc5ab3335,2021-09-08_20h54.01.998,forced_choiceRT,2021.1.2,MacIntel,60.0024001,,,,,,,,3,Ontime,h,1,1.9994,1,0,4,2,1,,,,,
,0.88,,,,,,,,,g.PNG,g,6100c1e6c313cc2fc5ab3335,2021-09-08_20h54.01.998,forced_choiceRT,2021.1.2,MacIntel,60.0024001,,,,,,,,3,Ontime,g,1,2.0003,1,1,5,1,1,,,,,
,1.91,,,,,,,,,f.PNG,f,6100c1e6c313cc2fc5ab3335,2021-09-08_20h54.01.998,forced_choiceRT,2021.1.2,MacIntel,60.0024001,,,,,,,,3,Ontime,f,1,2.0954,1,2,6,0,1,,,,,
,1.13,,,,,,,,,h.PNG,h,6100c1e6c313cc2fc5ab3335,2021-09-08_20h54.01.998,forced_choiceRT,2021.1.2,MacIntel,60.0024001,,,,,,,,3,Ontime,h,1,2.0347,1,3,7,2,1,,,,,
,0.38,,,,,,,,,j.PNG,j,6100c1e6c313cc2fc5ab3335,2021-09-08_20h54.01.998,forced_choiceRT,2021.1.2,MacIntel,60.0024001,,,,,,,,3,Ontime,j,1,2.0518,2,0,8,3,1,,,,,
,1.01,,,,,,,,,f.PNG,f,6100c1e6c313cc2fc5ab3335,2021-09-08_20h54.01.998,forced_choiceRT,2021.1.2,MacIntel,60.0024001,,,,,,,,3,Ontime,f,1,2.0171,2,1,9,0,1,,,,,
,0.29,,,,,,,,,j.PNG,j,6100c1e6c313cc2fc5ab3335,2021-09-08_20h54.01.998,forced_choiceRT,2021.1.2,MacIntel,60.0024001,,,,,,,,3,Ontime,j,1,2.0672,2,2,10,3,1,,,,,
,0.5,,,,,,,,,j.PNG,j,6100c1e6c313cc2fc5ab3335,2021-09-08_20h54.01.998,forced_choiceRT,2021.1.2,MacIntel,60.0024001,,,,,,,,3,Slow,j,1,2.1012,2,3,11,3,1,,,,,
,0.49,,,,,,,,,g.PNG,g,6100c1e6c313cc2fc5ab3335,2021-09-08_20h54.01.998,forced_choiceRT,2021.1.2,MacIntel,60.0024001,,,,,,,,3,Ontime,g,1,2.0672,3,0,12,1,1,,,,,
,1.33,,,,,,,,,g.PNG,g,6100c1e6c313cc2fc5ab3335,2021-09-08_20h54.01.998,forced_choiceRT,2021.1.2,MacIntel,60.0024001,,,,,,,,3,Ontime,g,1,2.0678,3,1,13,1,1,,,,,
,1.83,,,,,,,,,g.PNG,g,6100c1e6c313cc2fc5ab3335,2021-09-08_20h54.01.998,forced_choiceRT,2021.1.2,MacIntel,60.0024001,,,,,,,,3,Slow,g,1,2.234,3,2,14,1,1,,,,,
,0.01,,,,,,,,,f.PNG,f,6100c1e6c313cc2fc5ab3335,2021-09-08_20h54.01.998,forced_choiceRT,2021.1.2,MacIntel,60.0024001,,,,,,,,3,Ontime,f,1,2.0349,3,3,15,0,1,,,,,
,0.4,,,,,,,,,g.PNG,g,6100c1e6c313cc2fc5ab3335,2021-09-08_20h54.01.998,forced_choiceRT,2021.1.2,MacIntel,60.0024001,,,,,,,,3,Ontime,g,1,2.0338,4,0,16,1,1,,,,,
,0.39,,,,,,,,,f.PNG,f,6100c1e6c313cc2fc5ab3335,2021-09-08_20h54.01.998,forced_choiceRT,2021.1.2,MacIntel,60.0024001,,,,,,,,3,Ontime,f,1,2.0159,4,1,17,0,1,,,,,
,1.6,,,,,,,,,j.PNG,j,6100c1e6c313cc2fc5ab3335,2021-09-08_20h54.01.998,forced_choiceRT,2021.1.2,MacIntel,60.0024001,,,,,,,,3,Slow,j,1,2.1506,4,2,18,3,1,,,,,
,0.51,,,,,,,,,j.PNG,j,6100c1e6c313cc2fc5ab3335,2021-09-08_20h54.01.998,forced_choiceRT,2021.1.2,MacIntel,60.0024001,,,,,,,,3,Ontime,j,1,2.017,4,3,19,3,1,,,,,
,0.53,,,,,,,,,g.PNG,g,6100c1e6c313cc2fc5ab3335,2021-09-08_20h54.01.998,forced_choiceRT,2021.1.2,MacIntel,60.0024001,,,,,,,,3,Slow,g,1,2.1171,5,0,20,1,1,,,,,
,1.19,,,,,,,,,f.PNG,f,6100c1e6c313cc2fc5ab3335,2021-09-08_20h54.01.998,forced_choiceRT,2021.1.2,MacIntel,60.0024001,,,,,,,,3,Ontime,f,1,2.0372,5,1,21,0,1,,,,,
,1.22,,,,,,,,,h.PNG,h,6100c1e6c313cc2fc5ab3335,2021-09-08_20h54.01.998,forced_choiceRT,2021.1.2,MacIntel,60.0024001,,,,,,,,3,Slow,h,1,2.1006,5,2,22,2,1,,,,,
,0.75,,,,,,,,,g.PNG,g,6100c1e6c313cc2fc5ab3335,2021-09-08_20h54.01.998,forced_choiceRT,2021.1.2,MacIntel,60.0024001,,,,,,,,3,Ontime,g,1,1.9508,5,3,23,1,1,,,,,
,1.31,,,,,,,,,f.PNG,f,6100c1e6c313cc2fc5ab3335,2021-09-08_20h54.01.998,forced_choiceRT,2021.1.2,MacIntel,60.0024001,,,,,,,,3,Ontime,f,1,2.0345,6,0,24,0,1,,,,,
,1.57,,,,,,,,,f.PNG,f,6100c1e6c313cc2fc5ab3335,2021-09-08_20h54.01.998,forced_choiceRT,2021.1.2,MacIntel,60.0024001,,,,,,,,3,Slow,g,0,2.1509,6,1,25,0,1,,,,,
,1.78,,,,,,,,,f.PNG,f,6100c1e6c313cc2fc5ab3335,2021-09-08_20h54.01.998,forced_choiceRT,2021.1.2,MacIntel,60.0024001,,,,,,,,3,Slow,f,1,2.1343,6,2,26,0,1,,,,,
,1.6,,,,,,,,,j.PNG,j,6100c1e6c313cc2fc5ab3335,2021-09-08_20h54.01.998,forced_choiceRT,2021.1.2,MacIntel,60.0024001,,,,,,,,3,Slow,j,1,2.1841,6,3,27,3,1,,,,,
,1.14,,,,,,,,,g.PNG,g,6100c1e6c313cc2fc5ab3335,2021-09-08_20h54.01.998,forced_choiceRT,2021.1.2,MacIntel,60.0024001,,,,,,,,3,Ontime,g,1,2.0698,7,0,28,1,1,,,,,
,1.33,,,,,,,,,h.PNG,h,6100c1e6c313cc2fc5ab3335,2021-09-08_20h54.01.998,forced_choiceRT,2021.1.2,MacIntel,60.0024001,,,,,,,,3,Slow,h,1,2.1342,7,1,29,2,1,,,,,
,1.59,,,,,,,,,f.PNG,f,6100c1e6c313cc2fc5ab3335,2021-09-08_20h54.01.998,forced_choiceRT,2021.1.2,MacIntel,60.0024001,,,,,,,,3,Ontime,f,1,2.0538,7,2,30,0,1,,,,,
,0.49,,,,,,,,,j.PNG,j,6100c1e6c313cc2fc5ab3335,2021-09-08_20h54.01.998,forced_choiceRT,2021.1.2,MacIntel,60.0024001,,,,,,,,3,Ontime,j,1,2.0373,7,3,31,3,1,,,,,
,1.62,,,,,,,,,f.PNG,f,6100c1e6c313cc2fc5ab3335,2021-09-08_20h54.01.998,forced_choiceRT,2021.1.2,MacIntel,60.0024001,,,,,,,,3,Slow,g,0,2.1342,8,0,32,0,1,,,,,
,0.62,,,,,,,,,g.PNG,g,6100c1e6c313cc2fc5ab3335,2021-09-08_20h54.01.998,forced_choiceRT,2021.1.2,MacIntel,60.0024001,,,,,,,,3,Ontime,g,1,2.0199,8,1,33,1,1,,,,,
,1.77,,,,,,,,,h.PNG,h,6100c1e6c313cc2fc5ab3335,2021-09-08_20h54.01.998,forced_choiceRT,2021.1.2,MacIntel,60.0024001,,,,,,,,3,Slow,g,0,2.2338,8,2,34,2,1,,,,,
,0.23,,,,,,,,,h.PNG,h,6100c1e6c313cc2fc5ab3335,2021-09-08_20h54.01.998,forced_choiceRT,2021.1.2,MacIntel,60.0024001,,,,,,,,3,Ontime,h,1,2.0177,8,3,35,2,1,,,,,
,0.86,,,,,,,,,j.PNG,j,6100c1e6c313cc2fc5ab3335,2021-09-08_20h54.01.998,forced_choiceRT,2021.1.2,MacIntel,60.0024001,,,,,,,,3,Ontime,j,1,1.9893,9,0,36,3,1,,,,,
,1.54,,,,,,,,,j.PNG,j,6100c1e6c313cc2fc5ab3335,2021-09-08_20h54.01.998,forced_choiceRT,2021.1.2,MacIntel,60.0024001,,,,,,,,3,Ontime,j,1,2.0833,9,1,37,3,1,,,,,
,1.41,,,,,,,,,h.PNG,h,6100c1e6c313cc2fc5ab3335,2021-09-08_20h54.01.998,forced_choiceRT,2021.1.2,MacIntel,60.0024001,,,,,,,,3,Ontime,g,0,2.0858,9,2,38,2,1,,,,,
,0.34,,,,,,,,,g.PNG,g,6100c1e6c313cc2fc5ab3335,2021-09-08_20h54.01.998,forced_choiceRT,2021.1.2,MacIntel,60.0024001,,,,,,,,3,Ontime,g,1,2.0212,9,3,39,1,1,,,,,
,,,,,,,,,,,,6100c1e6c313cc2fc5ab3335,2021-09-08_20h54.01.998,forced_choiceRT,2021.1.2,MacIntel,60.0024001,,,,,,,,,,,,,,,,,,2,0,2,0,1
,1.03,,,,,,,,,j.PNG,j,6100c1e6c313cc2fc5ab3335,2021-09-08_20h54.01.998,forced_choiceRT,2021.1.2,MacIntel,60.0024001,,,,,,,,4,Ontime,j,1,2.093,0,0,0,3,1,,,,,
,0.99,,,,,,,,,f.PNG,f,6100c1e6c313cc2fc5ab3335,2021-09-08_20h54.01.998,forced_choiceRT,2021.1.2,MacIntel,60.0024001,,,,,,,,4,Ontime,f,1,2.0984,0,1,1,0,1,,,,,
,1.77,,,,,,,,,f.PNG,f,6100c1e6c313cc2fc5ab3335,2021-09-08_20h54.01.998,forced_choiceRT,2021.1.2,MacIntel,60.0024001,,,,,,,,4,Slow,g,0,2.2668,0,2,2,0,1,,,,,
,1.2,,,,,,,,,j.PNG,j,6100c1e6c313cc2fc5ab3335,2021-09-08_20h54.01.998,forced_choiceRT,2021.1.2,MacIntel,60.0024001,,,,,,,,4,Slow,j,1,2.1514,0,3,3,3,1,,,,,
,1.09,,,,,,,,,g.PNG,g,6100c1e6c313cc2fc5ab3335,2021-09-08_20h54.01.998,forced_choiceRT,2021.1.2,MacIntel,60.0024001,,,,,,,,4,Ontime,g,1,1.9877,1,0,4,1,1,,,,,
,1.49,,,,,,,,,g.PNG,g,6100c1e6c313cc2fc5ab3335,2021-09-08_20h54.01.998,forced_choiceRT,2021.1.2,MacIntel,60.0024001,,,,,,,,4,Slow,g,1,2.1013,1,1,5,1,1,,,,,
,0.91,,,,,,,,,h.PNG,h,6100c1e6c313cc2fc5ab3335,2021-09-08_20h54.01.998,forced_choiceRT,2021.1.2,MacIntel,60.0024001,,,,,,,,4,Ontime,j,0,2.0006,1,2,6,2,1,,,,,
,1.3,,,,,,,,,j.PNG,j,6100c1e6c313cc2fc5ab3335,2021-09-08_20h54.01.998,forced_choiceRT,2021.1.2,MacIntel,60.0024001,,,,,,,,4,Slow,j,1,4.4833,1,3,7,3,1,,,,,
,0.52,,,,,,,,,h.PNG,h,6100c1e6c313cc2fc5ab3335,2021-09-08_20h54.01.998,forced_choiceRT,2021.1.2,MacIntel,60.0024001,,,,,,,,4,Ontime,h,1,2.0711,2,0,8,2,1,,,,,
,0.18,,,,,,,,,f.PNG,f,6100c1e6c313cc2fc5ab3335,2021-09-08_20h54.01.998,forced_choiceRT,2021.1.2,MacIntel,60.0024001,,,,,,,,4,Ontime,f,1,2.0176,2,1,9,0,1,,,,,
,1.81,,,,,,,,,g.PNG,g,6100c1e6c313cc2fc5ab3335,2021-09-08_20h54.01.998,forced_choiceRT,2021.1.2,MacIntel,60.0024001,,,,,,,,4,Slow,f,0,2.3171,2,2,10,1,1,,,,,
,1.92,,,,,,,,,g.PNG,g,6100c1e6c313cc2fc5ab3335,2021-09-08_20h54.01.998,forced_choiceRT,2021.1.2,MacIntel,60.0024001,,,,,,,,4,Slow,g,1,2.8844,2,3,11,1,1,,,,,
,1.05,,,,,,,,,f.PNG,f,6100c1e6c313cc2fc5ab3335,2021-09-08_20h54.01.998,forced_choiceRT,2021.1.2,MacIntel,60.0024001,,,,,,,,4,Ontime,f,1,2.02,3,0,12,0,1,,,,,
,1.05,,,,,,,,,j.PNG,j,6100c1e6c313cc2fc5ab3335,2021-09-08_20h54.01.998,forced_choiceRT,2021.1.2,MacIntel,60.0024001,,,,,,,,4,Ontime,j,1,2.0015,3,1,13,3,1,,,,,
,1.39,,,,,,,,,f.PNG,f,6100c1e6c313cc2fc5ab3335,2021-09-08_20h54.01.998,forced_choiceRT,2021.1.2,MacIntel,60.0024001,,,,,,,,4,Ontime,f,1,2.0354,3,2,14,0,1,,,,,
,0.65,,,,,,,,,h.PNG,h,6100c1e6c313cc2fc5ab3335,2021-09-08_20h54.01.998,forced_choiceRT,2021.1.2,MacIntel,60.0024001,,,,,,,,4,Ontime,h,1,2.0006,3,3,15,2,1,,,,,
,0.49,,,,,,,,,h.PNG,h,6100c1e6c313cc2fc5ab3335,2021-09-08_20h54.01.998,forced_choiceRT,2021.1.2,MacIntel,60.0024001,,,,,,,,4,Ontime,h,1,1.9699,4,0,16,2,1,,,,,
,0.96,,,,,,,,,f.PNG,f,6100c1e6c313cc2fc5ab3335,2021-09-08_20h54.01.998,forced_choiceRT,2021.1.2,MacIntel,60.0024001,,,,,,,,4,Ontime,f,1,2.0009,4,1,17,0,1,,,,,
,0.87,,,,,,,,,g.PNG,g,6100c1e6c313cc2fc5ab3335,2021-09-08_20h54.01.998,forced_choiceRT,2021.1.2,MacIntel,60.0024001,,,,,,,,4,Ontime,g,1,1.9674,4,2,18,1,1,,,,,
,0.87,,,,,,,,,h.PNG,h,6100c1e6c313cc2fc5ab3335,2021-09-08_20h54.01.998,forced_choiceRT,2021.1.2,MacIntel,60.0024001,,,,,,,,4,Ontime,h,1,1.9508,4,3,19,2,1,,,,,
,0.24,,,,,,,,,j.PNG,j,6100c1e6c313cc2fc5ab3335,2021-09-08_20h54.01.998,forced_choiceRT,2021.1.2,MacIntel,60.0024001,,,,,,,,4,Ontime,j,1,1.9843,5,0,20,3,1,,,,,
,0.35,,,,,,,,,h.PNG,h,6100c1e6c313cc2fc5ab3335,2021-09-08_20h54.01.998,forced_choiceRT,2021.1.2,MacIntel,60.0024001,,,,,,,,4,Ontime,h,1,2.0176,5,1,21,2,1,,,,,
,1.56,,,,,,,,,f.PNG,f,6100c1e6c313cc2fc5ab3335,2021-09-08_20h54.01.998,forced_choiceRT,2021.1.2,MacIntel,60.0024001,,,,,,,,4,Ontime,f,1,2.0373,5,2,22,0,1,,,,,
,1.86,,,,,,,,,f.PNG,f,6100c1e6c313cc2fc5ab3335,2021-09-08_20h54.01.998,forced_choiceRT,2021.1.2,MacIntel,60.0024001,,,,,,,,4,Ontime,j,0,2.0848,5,3,23,0,1,,,,,
,0.1,,,,,,,,,g.PNG,g,6100c1e6c313cc2fc5ab3335,2021-09-08_20h54.01.998,forced_choiceRT,2021.1.2,MacIntel,60.0024001,,,,,,,,4,Ontime,g,1,2.0361,6,0,24,1,1,,,,,
,1.44,,,,,,,,,j.PNG,j,6100c1e6c313cc2fc5ab3335,2021-09-08_20h54.01.998,forced_choiceRT,2021.1.2,MacIntel,60.0024001,,,,,,,,4,Ontime,j,1,1.9679,6,1,25,3,1,,,,,
,0.93,,,,,,,,,j.PNG,j,6100c1e6c313cc2fc5ab3335,2021-09-08_20h54.01.998,forced_choiceRT,2021.1.2,MacIntel,60.0024001,,,,,,,,4,Ontime,j,1,2.0496,6,2,26,3,1,,,,,
,1.22,,,,,,,,,j.PNG,j,6100c1e6c313cc2fc5ab3335,2021-09-08_20h54.01.998,forced_choiceRT,2021.1.2,MacIntel,60.0024001,,,,,,,,4,Ontime,j,1,2.0399,6,3,27,3,1,,,,,
,1.76,,,,,,,,,f.PNG,f,6100c1e6c313cc2fc5ab3335,2021-09-08_20h54.01.998,forced_choiceRT,2021.1.2,MacIntel,60.0024001,,,,,,,,4,Slow,g,0,2.1853,7,0,28,0,1,,,,,
,1.26,,,,,,,,,j.PNG,j,6100c1e6c313cc2fc5ab3335,2021-09-08_20h54.01.998,forced_choiceRT,2021.1.2,MacIntel,60.0024001,,,,,,,,4,Ontime,j,1,2.0345,7,1,29,3,1,,,,,
,0.79,,,,,,,,,g.PNG,g,6100c1e6c313cc2fc5ab3335,2021-09-08_20h54.01.998,forced_choiceRT,2021.1.2,MacIntel,60.0024001,,,,,,,,4,Ontime,g,1,2.0044,7,2,30,1,1,,,,,
,1.15,,,,,,,,,h.PNG,h,6100c1e6c313cc2fc5ab3335,2021-09-08_20h54.01.998,forced_choiceRT,2021.1.2,MacIntel,60.0024001,,,,,,,,4,Ontime,h,1,1.982,7,3,31,2,1,,,,,
,0.51,,,,,,,,,g.PNG,g,6100c1e6c313cc2fc5ab3335,2021-09-08_20h54.01.998,forced_choiceRT,2021.1.2,MacIntel,60.0024001,,,,,,,,4,Ontime,g,1,2.0013,8,0,32,1,1,,,,,
,0.84,,,,,,,,,j.PNG,j,6100c1e6c313cc2fc5ab3335,2021-09-08_20h54.01.998,forced_choiceRT,2021.1.2,MacIntel,60.0024001,,,,,,,,4,Ontime,j,1,1.9837,8,1,33,3,1,,,,,
,1.69,,,,,,,,,g.PNG,g,6100c1e6c313cc2fc5ab3335,2021-09-08_20h54.01.998,forced_choiceRT,2021.1.2,MacIntel,60.0024001,,,,,,,,4,Slow,j,0,2.2171,8,2,34,1,1,,,,,
,1.56,,,,,,,,,h.PNG,h,6100c1e6c313cc2fc5ab3335,2021-09-08_20h54.01.998,forced_choiceRT,2021.1.2,MacIntel,60.0024001,,,,,,,,4,Ontime,g,0,2.0676,8,3,35,2,1,,,,,
,0.78,,,,,,,,,h.PNG,h,6100c1e6c313cc2fc5ab3335,2021-09-08_20h54.01.998,forced_choiceRT,2021.1.2,MacIntel,60.0024001,,,,,,,,4,Ontime,h,1,1.9845,9,0,36,2,1,,,,,
,1.25,,,,,,,,,h.PNG,h,6100c1e6c313cc2fc5ab3335,2021-09-08_20h54.01.998,forced_choiceRT,2021.1.2,MacIntel,60.0024001,,,,,,,,4,Ontime,h,1,2.0692,9,1,37,2,1,,,,,
,0.93,,,,,,,,,f.PNG,f,6100c1e6c313cc2fc5ab3335,2021-09-08_20h54.01.998,forced_choiceRT,2021.1.2,MacIntel,60.0024001,,,,,,,,4,Ontime,f,1,2.017,9,2,38,0,1,,,,,
,1.83,,,,,,,,,g.PNG,g,6100c1e6c313cc2fc5ab3335,2021-09-08_20h54.01.998,forced_choiceRT,2021.1.2,MacIntel,60.0024001,,,,,,,,4,Ontime,f,0,2.0343,9,3,39,1,1,,,,,
,,,,,,,,,,,,6100c1e6c313cc2fc5ab3335,2021-09-08_20h54.01.998,forced_choiceRT,2021.1.2,MacIntel,60.0024001,,,,,,,,,,,,,,,,,,3,0,3,0,1
,1.6,,,,,,,,,f.PNG,f,6100c1e6c313cc2fc5ab3335,2021-09-08_20h54.01.998,forced_choiceRT,2021.1.2,MacIntel,60.0024001,,,,,,,,5,Ontime,g,0,2.0976,0,0,0,0,1,,,,,
,1.29,,,,,,,,,j.PNG,j,6100c1e6c313cc2fc5ab3335,2021-09-08_20h54.01.998,forced_choiceRT,2021.1.2,MacIntel,60.0024001,,,,,,,,5,Ontime,j,1,2.0509,0,1,1,3,1,,,,,
,1.4,,,,,,,,,j.PNG,j,6100c1e6c313cc2fc5ab3335,2021-09-08_20h54.01.998,forced_choiceRT,2021.1.2,MacIntel,60.0024001,,,,,,,,5,Ontime,j,1,2.0835,0,2,2,3,1,,,,,
,1.53,,,,,,,,,h.PNG,h,6100c1e6c313cc2fc5ab3335,2021-09-08_20h54.01.998,forced_choiceRT,2021.1.2,MacIntel,60.0024001,,,,,,,,5,Slow,j,0,2.1005,0,3,3,2,1,,,,,
,1.32,,,,,,,,,h.PNG,h,6100c1e6c313cc2fc5ab3335,2021-09-08_20h54.01.998,forced_choiceRT,2021.1.2,MacIntel,60.0024001,,,,,,,,5,Ontime,h,1,2.0675,1,0,4,2,1,,,,,
,1.61,,,,,,,,,f.PNG,f,6100c1e6c313cc2fc5ab3335,2021-09-08_20h54.01.998,forced_choiceRT,2021.1.2,MacIntel,60.0024001,,,,,,,,5,Ontime,f,1,2.1,1,1,5,0,1,,,,,
,0.13,,,,,,,,,f.PNG,f,6100c1e6c313cc2fc5ab3335,2021-09-08_20h54.01.998,forced_choiceRT,2021.1.2,MacIntel,60.0024001,,,,,,,,5,Ontime,f,1,1.9843,1,2,6,0,1,,,,,
,0.43,,,,,,,,,h.PNG,h,6100c1e6c313cc2fc5ab3335,2021-09-08_20h54.01.998,forced_choiceRT,2021.1.2,MacIntel,60.0024001,,,,,,,,5,Ontime,h,1,1.985,1,3,7,2,1,,,,,
,1.54,,,,,,,,,g.PNG,g,6100c1e6c313cc2fc5ab3335,2021-09-08_20h54.01.998,forced_choiceRT,2021.1.2,MacIntel,60.0024001,,,,,,,,5,Ontime,g,1,1.9844,2,0,8,1,1,,,,,
,1.85,,,,,,,,,j.PNG,j,6100c1e6c313cc2fc5ab3335,2021-09-08_20h54.01.998,forced_choiceRT,2021.1.2,MacIntel,60.0024001,,,,,,,,5,Slow,g,0,2.2182,2,1,9,3,1,,,,,
,1.38,,,,,,,,,g.PNG,g,6100c1e6c313cc2fc5ab3335,2021-09-08_20h54.01.998,forced_choiceRT,2021.1.2,MacIntel,60.0024001,,,,,,,,5,Ontime,g,1,2.0661,2,2,10,1,1,,,,,
,0.96,,,,,,,,,h.PNG,h,6100c1e6c313cc2fc5ab3335,2021-09-08_20h54.01.998,forced_choiceRT,2021.1.2,MacIntel,60.0024001,,,,,,,,5,Ontime,h,1,1.985,2,3,11,2,1,,,,,
,1.78,,,,,,,,,h.PNG,h,6100c1e6c313cc2fc5ab3335,2021-09-08_20h54.01.998,forced_choiceRT,2021.1.2,MacIntel,60.0024001,,,,,,,,5,Slow,f,0,2.1175,3,0,12,2,1,,,,,
,1.54,,,,,,,,,g.PNG,g,6100c1e6c313cc2fc5ab3335,2021-09-08_20h54.01.998,forced_choiceRT,2021.1.2,MacIntel,60.0024001,,,,,,,,5,Ontime,g,1,2.0838,3,1,13,1,1,,,,,
,0.48,,,,,,,,,j.PNG,j,6100c1e6c313cc2fc5ab3335,2021-09-08_20h54.01.998,forced_choiceRT,2021.1.2,MacIntel,60.0024001,,,,,,,,5,Ontime,j,1,2.0335,3,2,14,3,1,,,,,
,1.36,,,,,,,,,j.PNG,j,6100c1e6c313cc2fc5ab3335,2021-09-08_20h54.01.998,forced_choiceRT,2021.1.2,MacIntel,60.0024001,,,,,,,,5,Ontime,j,1,2.052,3,3,15,3,1,,,,,
,0.15,,,,,,,,,j.PNG,j,6100c1e6c313cc2fc5ab3335,2021-09-08_20h54.01.998,forced_choiceRT,2021.1.2,MacIntel,60.0024001,,,,,,,,5,Ontime,j,1,2.011,4,0,16,3,1,,,,,
,0.99,,,,,,,,,f.PNG,f,6100c1e6c313cc2fc5ab3335,2021-09-08_20h54.01.998,forced_choiceRT,2021.1.2,MacIntel,60.0024001,,,,,,,,5,Ontime,f,1,2.034,4,1,17,0,1,,,,,
,0.28,,,,,,,,,f.PNG,f,6100c1e6c313cc2fc5ab3335,2021-09-08_20h54.01.998,forced_choiceRT,2021.1.2,MacIntel,60.0024001,,,,,,,,5,Ontime,f,1,2.0176,4,2,18,0,1,,,,,
,1.9,,,,,,,,,j.PNG,j,6100c1e6c313cc2fc5ab3335,2021-09-08_20h54.01.998,forced_choiceRT,2021.1.2,MacIntel,60.0024001,,,,,,,,5,Slow,f,0,2.2006,4,3,19,3,1,,,,,
,0.56,,,,,,,,,f.PNG,f,6100c1e6c313cc2fc5ab3335,2021-09-08_20h54.01.998,forced_choiceRT,2021.1.2,MacIntel,60.0024001,,,,,,,,5,Ontime,f,1,2.0013,5,0,20,0,1,,,,,
,0.32,,,,,,,,,g.PNG,g,6100c1e6c313cc2fc5ab3335,2021-09-08_20h54.01.998,forced_choiceRT,2021.1.2,MacIntel,60.0024001,,,,,,,,5,Ontime,g,1,1.9519,5,1,21,1,1,,,,,
,0.57,,,,,,,,,h.PNG,h,6100c1e6c313cc2fc5ab3335,2021-09-08_20h54.01.998,forced_choiceRT,2021.1.2,MacIntel,60.0024001,,,,,,,,5,Ontime,h,1,2.0005,5,2,22,2,1,,,,,
,0.57,,,,,,,,,j.PNG,j,6100c1e6c313cc2fc5ab3335,2021-09-08_20h54.01.998,forced_choiceRT,2021.1.2,MacIntel,60.0024001,,,,,,,,5,Ontime,j,1,2.0035,5,3,23,3,1,,,,,
,1.24,,,,,,,,,h.PNG,h,6100c1e6c313cc2fc5ab3335,2021-09-08_20h54.01.998,forced_choiceRT,2021.1.2,MacIntel,60.0024001,,,,,,,,5,Ontime,h,1,2.0337,6,0,24,2,1,,,,,
,1.62,,,,,,,,,f.PNG,f,6100c1e6c313cc2fc5ab3335,2021-09-08_20h54.01.998,forced_choiceRT,2021.1.2,MacIntel,60.0024001,,,,,,,,5,Ontime,f,1,1.9867,6,1,25,0,1,,,,,
,1.62,,,,,,,,,g.PNG,g,6100c1e6c313cc2fc5ab3335,2021-09-08_20h54.01.998,forced_choiceRT,2021.1.2,MacIntel,60.0024001,,,,,,,,5,Slow,g,1,2.2003,6,2,26,1,1,,,,,
,1.34,,,,,,,,,f.PNG,f,6100c1e6c313cc2fc5ab3335,2021-09-08_20h54.01.998,forced_choiceRT,2021.1.2,MacIntel,60.0024001,,,,,,,,5,Ontime,f,1,2.0496,6,3,27,0,1,,,,,
,0.09,,,,,,,,,f.PNG,f,6100c1e6c313cc2fc5ab3335,2021-09-08_20h54.01.998,forced_choiceRT,2021.1.2,MacIntel,60.0024001,,,,,,,,5,Ontime,f,1,1.9708,7,0,28,0,1,,,,,
,0.17,,,,,,,,,g.PNG,g,6100c1e6c313cc2fc5ab3335,2021-09-08_20h54.01.998,forced_choiceRT,2021.1.2,MacIntel,60.0024001,,,,,,,,5,Ontime,g,1,2.0043,7,1,29,1,1,,,,,
,0.74,,,,,,,,,g.PNG,g,6100c1e6c313cc2fc5ab3335,2021-09-08_20h54.01.998,forced_choiceRT,2021.1.2,MacIntel,60.0024001,,,,,,,,5,Ontime,g,1,2.0344,7,2,30,1,1,,,,,
,0.63,,,,,,,,,h.PNG,h,6100c1e6c313cc2fc5ab3335,2021-09-08_20h54.01.998,forced_choiceRT,2021.1.2,MacIntel,60.0024001,,,,,,,,5,Ontime,h,1,2.0178,7,3,31,2,1,,,,,
,1.17,,,,,,,,,g.PNG,g,6100c1e6c313cc2fc5ab3335,2021-09-08_20h54.01.998,forced_choiceRT,2021.1.2,MacIntel,60.0024001,,,,,,,,5,Ontime,g,1,2.0343,8,0,32,1,1,,,,,
,0.34,,,,,,,,,j.PNG,j,6100c1e6c313cc2fc5ab3335,2021-09-08_20h54.01.998,forced_choiceRT,2021.1.2,MacIntel,60.0024001,,,,,,,,5,Ontime,j,1,2.0336,8,1,33,3,1,,,,,
,0.28,,,,,,,,,g.PNG,g,6100c1e6c313cc2fc5ab3335,2021-09-08_20h54.01.998,forced_choiceRT,2021.1.2,MacIntel,60.0024001,,,,,,,,5,Ontime,g,1,1.9697,8,2,34,1,1,,,,,
,1.43,,,,,,,,,h.PNG,h,6100c1e6c313cc2fc5ab3335,2021-09-08_20h54.01.998,forced_choiceRT,2021.1.2,MacIntel,60.0024001,,,,,,,,5,Ontime,h,1,2.0845,8,3,35,2,1,,,,,
,1.15,,,,,,,,,f.PNG,f,6100c1e6c313cc2fc5ab3335,2021-09-08_20h54.01.998,forced_choiceRT,2021.1.2,MacIntel,60.0024001,,,,,,,,5,Ontime,f,1,2.0345,9,0,36,0,1,,,,,
,1,,,,,,,,,j.PNG,j,6100c1e6c313cc2fc5ab3335,2021-09-08_20h54.01.998,forced_choiceRT,2021.1.2,MacIntel,60.0024001,,,,,,,,5,Ontime,j,1,2.0042,9,1,37,3,1,,,,,
,1,,,,,,,,,h.PNG,h,6100c1e6c313cc2fc5ab3335,2021-09-08_20h54.01.998,forced_choiceRT,2021.1.2,MacIntel,60.0024001,,,,,,,,5,Ontime,h,1,2.0338,9,2,38,2,1,,,,,
,0.58,,,,,,,,,g.PNG,g,6100c1e6c313cc2fc5ab3335,2021-09-08_20h54.01.998,forced_choiceRT,2021.1.2,MacIntel,60.0024001,,,,,,,,5,Slow,g,1,2.1173,9,3,39,1,1,,,,,
,,,,,,,,,,,,6100c1e6c313cc2fc5ab3335,2021-09-08_20h54.01.998,forced_choiceRT,2021.1.2,MacIntel,60.0024001,,,,,,,,,,,,,,,,,,4,0,4,0,1
,0.08,,,,,,,,,j.PNG,j,6100c1e6c313cc2fc5ab3335,2021-09-08_20h54.01.998,forced_choiceRT,2021.1.2,MacIntel,60.0024001,,,,,,,,6,Ontime,j,1,1.9813,0,0,0,3,1,,,,,
,0.9,,,,,,,,,h.PNG,h,6100c1e6c313cc2fc5ab3335,2021-09-08_20h54.01.998,forced_choiceRT,2021.1.2,MacIntel,60.0024001,,,,,,,,6,Ontime,h,1,1.9837,0,1,1,2,1,,,,,
,1.65,,,,,,,,,h.PNG,h,6100c1e6c313cc2fc5ab3335,2021-09-08_20h54.01.998,forced_choiceRT,2021.1.2,MacIntel,60.0024001,,,,,,,,6,Ontime,g,0,2.0164,0,2,2,2,1,,,,,
,1.65,,,,,,,,,g.PNG,g,6100c1e6c313cc2fc5ab3335,2021-09-08_20h54.01.998,forced_choiceRT,2021.1.2,MacIntel,60.0024001,,,,,,,,6,Ontime,f,0,2.0013,0,3,3,1,1,,,,,
,0.88,,,,,,,,,j.PNG,j,6100c1e6c313cc2fc5ab3335,2021-09-08_20h54.01.998,forced_choiceRT,2021.1.2,MacIntel,60.0024001,,,,,,,,6,Ontime,j,1,1.9709,1,0,4,3,1,,,,,
,1.91,,,,,,,,,h.PNG,h,6100c1e6c313cc2fc5ab3335,2021-09-08_20h54.01.998,forced_choiceRT,2021.1.2,MacIntel,60.0024001,,,,,,,,6,Ontime,f,0,2.0842,1,1,5,2,1,,,,,
,1.74,,,,,,,,,f.PNG,f,6100c1e6c313cc2fc5ab3335,2021-09-08_20h54.01.998,forced_choiceRT,2021.1.2,MacIntel,60.0024001,,,,,,,,6,Slow,g,0,2.2032,1,2,6,0,1,,,,,
,0.78,,,,,,,,,f.PNG,f,6100c1e6c313cc2fc5ab3335,2021-09-08_20h54.01.998,forced_choiceRT,2021.1.2,MacIntel,60.0024001,,,,,,,,6,Ontime,f,1,2.0006,1,3,7,0,1,,,,,
,1.09,,,,,,,,,h.PNG,h,6100c1e6c313cc2fc5ab3335,2021-09-08_20h54.01.998,forced_choiceRT,2021.1.2,MacIntel,60.0024001,,,,,,,,6,Ontime,h,1,2.0506,2,0,8,2,1,,,,,
,1.39,,,,,,,,,f.PNG,f,6100c1e6c313cc2fc5ab3335,2021-09-08_20h54.01.998,forced_choiceRT,2021.1.2,MacIntel,60.0024001,,,,,,,,6,Ontime,f,1,2.0033,2,1,9,0,1,,,,,
,0.57,,,,,,,,,j.PNG,j,6100c1e6c313cc2fc5ab3335,2021-09-08_20h54.01.998,forced_choiceRT,2021.1.2,MacIntel,60.0024001,,,,,,,,6,Ontime,j,1,2.0005,2,2,10,3,1,,,,,
,0.62,,,,,,,,,h.PNG,h,6100c1e6c313cc2fc5ab3335,2021-09-08_20h54.01.998,forced_choiceRT,2021.1.2,MacIntel,60.0024001,,,,,,,,6,Ontime,h,1,2.0341,2,3,11,2,1,,,,,
,0.23,,,,,,,,,g.PNG,g,6100c1e6c313cc2fc5ab3335,2021-09-08_20h54.01.998,forced_choiceRT,2021.1.2,MacIntel,60.0024001,,,,,,,,6,Ontime,g,1,2.0009,3,0,12,1,1,,,,,
,0.84,,,,,,,,,j.PNG,j,6100c1e6c313cc2fc5ab3335,2021-09-08_20h54.01.998,forced_choiceRT,2021.1.2,MacIntel,60.0024001,,,,,,,,6,Ontime,j,1,1.9709,3,1,13,3,1,,,,,
,0.9,,,,,,,,,g.PNG,g,6100c1e6c313cc2fc5ab3335,2021-09-08_20h54.01.998,forced_choiceRT,2021.1.2,MacIntel,60.0024001,,,,,,,,6,Ontime,g,1,2.0509,3,2,14,1,1,,,,,
,1.69,,,,,,,,,j.PNG,j,6100c1e6c313cc2fc5ab3335,2021-09-08_20h54.01.998,forced_choiceRT,2021.1.2,MacIntel,60.0024001,,,,,,,,6,Slow,h,0,2.2005,3,3,15,3,1,,,,,
,1.23,,,,,,,,,f.PNG,f,6100c1e6c313cc2fc5ab3335,2021-09-08_20h54.01.998,forced_choiceRT,2021.1.2,MacIntel,60.0024001,,,,,,,,6,Ontime,f,1,2.0011,4,0,16,0,1,,,,,
,0.33,,,,,,,,,h.PNG,h,6100c1e6c313cc2fc5ab3335,2021-09-08_20h54.01.998,forced_choiceRT,2021.1.2,MacIntel,60.0024001,,,,,,,,6,Ontime,h,1,2.0174,4,1,17,2,1,,,,,
,1.67,,,,,,,,,h.PNG,h,6100c1e6c313cc2fc5ab3335,2021-09-08_20h54.01.998,forced_choiceRT,2021.1.2,MacIntel,60.0024001,,,,,,,,6,Slow,h,1,2.1852,4,2,18,2,1,,,,,
,1.44,,,,,,,,,f.PNG,f,6100c1e6c313cc2fc5ab3335,2021-09-08_20h54.01.998,forced_choiceRT,2021.1.2,MacIntel,60.0024001,,,,,,,,6,Ontime,f,1,2.0179,4,3,19,0,1,,,,,
,0.77,,,,,,,,,f.PNG,f,6100c1e6c313cc2fc5ab3335,2021-09-08_20h54.01.998,forced_choiceRT,2021.1.2,MacIntel,60.0024001,,,,,,,,6,Ontime,f,1,2.0014,5,0,20,0,1,,,,,
,1.06,,,,,,,,,f.PNG,f,6100c1e6c313cc2fc5ab3335,2021-09-08_20h54.01.998,forced_choiceRT,2021.1.2,MacIntel,60.0024001,,,,,,,,6,Ontime,f,1,2.0681,5,1,21,0,1,,,,,
,0.1,,,,,,,,,h.PNG,h,6100c1e6c313cc2fc5ab3335,2021-09-08_20h54.01.998,forced_choiceRT,2021.1.2,MacIntel,60.0024001,,,,,,,,6,Ontime,h,1,2.0171,5,2,22,2,1,,,,,
,0.94,,,,,,,,,g.PNG,g,6100c1e6c313cc2fc5ab3335,2021-09-08_20h54.01.998,forced_choiceRT,2021.1.2,MacIntel,60.0024001,,,,,,,,6,Ontime,g,1,2.0011,5,3,23,1,1,,,,,
,1.69,,,,,,,,,f.PNG,f,6100c1e6c313cc2fc5ab3335,2021-09-08_20h54.01.998,forced_choiceRT,2021.1.2,MacIntel,60.0024001,,,,,,,,6,Ontime,f,1,2.0509,6,0,24,0,1,,,,,
,0.29,,,,,,,,,g.PNG,g,6100c1e6c313cc2fc5ab3335,2021-09-08_20h54.01.998,forced_choiceRT,2021.1.2,MacIntel,60.0024001,,,,,,,,6,Ontime,g,1,2.0339,6,1,25,1,1,,,,,
,1.09,,,,,,,,,j.PNG,j,6100c1e6c313cc2fc5ab3335,2021-09-08_20h54.01.998,forced_choiceRT,2021.1.2,MacIntel,60.0024001,,,,,,,,6,Ontime,j,1,2.0838,6,2,26,3,1,,,,,
,0.85,,,,,,,,,h.PNG,h,6100c1e6c313cc2fc5ab3335,2021-09-08_20h54.01.998,forced_choiceRT,2021.1.2,MacIntel,60.0024001,,,,,,,,6,Ontime,h,1,1.9821,6,3,27,2,1,,,,,
,1.01,,,,,,,,,g.PNG,g,6100c1e6c313cc2fc5ab3335,2021-09-08_20h54.01.998,forced_choiceRT,2021.1.2,MacIntel,60.0024001,,,,,,,,6,Ontime,g,1,1.9676,7,0,28,1,1,,,,,
,0.68,,,,,,,,,h.PNG,h,6100c1e6c313cc2fc5ab3335,2021-09-08_20h54.01.998,forced_choiceRT,2021.1.2,MacIntel,60.0024001,,,,,,,,6,Ontime,h,1,2.0002,7,1,29,2,1,,,,,
,0.57,,,,,,,,,g.PNG,g,6100c1e6c313cc2fc5ab3335,2021-09-08_20h54.01.998,forced_choiceRT,2021.1.2,MacIntel,60.0024001,,,,,,,,6,Ontime,g,1,1.9492,7,2,30,1,1,,,,,
,0.67,,,,,,,,,j.PNG,j,6100c1e6c313cc2fc5ab3335,2021-09-08_20h54.01.998,forced_choiceRT,2021.1.2,MacIntel,60.0024001,,,,,,,,6,Ontime,j,1,1.9714,7,3,31,3,1,,,,,
,0.63,,,,,,,,,g.PNG,g,6100c1e6c313cc2fc5ab3335,2021-09-08_20h54.01.998,forced_choiceRT,2021.1.2,MacIntel,60.0024001,,,,,,,,6,Ontime,g,1,1.984,8,0,32,1,1,,,,,
,1.53,,,,,,,,,g.PNG,g,6100c1e6c313cc2fc5ab3335,2021-09-08_20h54.01.998,forced_choiceRT,2021.1.2,MacIntel,60.0024001,,,,,,,,6,Ontime,g,1,2.0343,8,1,33,1,1,,,,,
,0.18,,,,,,,,,j.PNG,j,6100c1e6c313cc2fc5ab3335,2021-09-08_20h54.01.998,forced_choiceRT,2021.1.2,MacIntel,60.0024001,,,,,,,,6,Ontime,j,1,1.9673,8,2,34,3,1,,,,,
,0.02,,,,,,,,,j.PNG,j,6100c1e6c313cc2fc5ab3335,2021-09-08_20h54.01.998,forced_choiceRT,2021.1.2,MacIntel,60.0024001,,,,,,,,6,Ontime,j,1,1.9504,8,3,35,3,1,,,,,
,0.66,,,,,,,,,g.PNG,g,6100c1e6c313cc2fc5ab3335,2021-09-08_20h54.01.998,forced_choiceRT,2021.1.2,MacIntel,60.0024001,,,,,,,,6,Fast,g,1,1.853,9,0,36,1,1,,,,,
,0.74,,,,,,,,,j.PNG,j,6100c1e6c313cc2fc5ab3335,2021-09-08_20h54.01.998,forced_choiceRT,2021.1.2,MacIntel,60.0024001,,,,,,,,6,Ontime,j,1,1.9522,9,1,37,3,1,,,,,
,1.75,,,,,,,,,f.PNG,f,6100c1e6c313cc2fc5ab3335,2021-09-08_20h54.01.998,forced_choiceRT,2021.1.2,MacIntel,60.0024001,,,,,,,,6,Ontime,f,1,2.0403,9,2,38,0,1,,,,,
,1.9,,,,,,,,,f.PNG,f,6100c1e6c313cc2fc5ab3335,2021-09-08_20h54.01.998,forced_choiceRT,2021.1.2,MacIntel,60.0024001,,,,,,,,6,Ontime,g,0,1.9677,9,3,39,0,1,,,,,
,,,,,,,,,,,,6100c1e6c313cc2fc5ab3335,2021-09-08_20h54.01.998,forced_choiceRT,2021.1.2,MacIntel,60.0024001,,,,,,,,,,,,,,,,,,5,0,5,0,1
,1.24,,,,,,,,,g.PNG,g,6100c1e6c313cc2fc5ab3335,2021-09-08_20h54.01.998,forced_choiceRT,2021.1.2,MacIntel,60.0024001,,,,,,,,7,Ontime,g,1,2.0813,0,0,0,1,1,,,,,
,1.42,,,,,,,,,h.PNG,h,6100c1e6c313cc2fc5ab3335,2021-09-08_20h54.01.998,forced_choiceRT,2021.1.2,MacIntel,60.0024001,,,,,,,,7,Ontime,h,1,2.0844,0,1,1,2,1,,,,,
,0.17,,,,,,,,,g.PNG,g,6100c1e6c313cc2fc5ab3335,2021-09-08_20h54.01.998,forced_choiceRT,2021.1.2,MacIntel,60.0024001,,,,,,,,7,Ontime,g,1,1.9007,0,2,2,1,1,,,,,
,0.47,,,,,,,,,f.PNG,f,6100c1e6c313cc2fc5ab3335,2021-09-08_20h54.01.998,forced_choiceRT,2021.1.2,MacIntel,60.0024001,,,,,,,,7,Ontime,f,1,1.9345,0,3,3,0,1,,,,,
,0.67,,,,,,,,,h.PNG,h,6100c1e6c313cc2fc5ab3335,2021-09-08_20h54.01.998,forced_choiceRT,2021.1.2,MacIntel,60.0024001,,,,,,,,7,Ontime,h,1,1.9676,1,0,4,2,1,,,,,
,1.02,,,,,,,,,h.PNG,h,6100c1e6c313cc2fc5ab3335,2021-09-08_20h54.01.998,forced_choiceRT,2021.1.2,MacIntel,60.0024001,,,,,,,,7,Ontime,h,1,1.9858,1,1,5,2,1,,,,,
,1.22,,,,,,,,,h.PNG,h,6100c1e6c313cc2fc5ab3335,2021-09-08_20h54.01.998,forced_choiceRT,2021.1.2,MacIntel,60.0024001,,,,,,,,7,Ontime,h,1,1.917,1,2,6,2,1,,,,,
,1.26,,,,,,,,,h.PNG,h,6100c1e6c313cc2fc5ab3335,2021-09-08_20h54.01.998,forced_choiceRT,2021.1.2,MacIntel,60.0024001,,,,,,,,7,Ontime,h,1,2.0346,1,3,7,2,1,,,,,
,0.35,,,,,,,,,j.PNG,j,6100c1e6c313cc2fc5ab3335,2021-09-08_20h54.01.998,forced_choiceRT,2021.1.2,MacIntel,60.0024001,,,,,,,,7,Ontime,j,1,1.9175,2,0,8,3,1,,,,,
,0.76,,,,,,,,,j.PNG,j,6100c1e6c313cc2fc5ab3335,2021-09-08_20h54.01.998,forced_choiceRT,2021.1.2,MacIntel,60.0024001,,,,,,,,7,Ontime,j,1,1.9337,2,1,9,3,1,,,,,
,1.68,,,,,,,,,h.PNG,h,6100c1e6c313cc2fc5ab3335,2021-09-08_20h54.01.998,forced_choiceRT,2021.1.2,MacIntel,60.0024001,,,,,,,,7,Ontime,f,0,1.9061,2,2,10,2,1,,,,,
,0.2,,,,,,,,,j.PNG,j,6100c1e6c313cc2fc5ab3335,2021-09-08_20h54.01.998,forced_choiceRT,2021.1.2,MacIntel,60.0024001,,,,,,,,7,Ontime,j,1,1.9337,2,3,11,3,1,,,,,
,1.92,,,,,,,,,h.PNG,h,6100c1e6c313cc2fc5ab3335,2021-09-08_20h54.01.998,forced_choiceRT,2021.1.2,MacIntel,60.0024001,,,,,,,,7,Ontime,f,0,2.0837,3,0,12,2,1,,,,,
,0.94,,,,,,,,,g.PNG,g,6100c1e6c313cc2fc5ab3335,2021-09-08_20h54.01.998,forced_choiceRT,2021.1.2,MacIntel,60.0024001,,,,,,,,7,Ontime,g,1,1.9342,3,1,13,1,1,,,,,
,1.79,,,,,,,,,h.PNG,h,6100c1e6c313cc2fc5ab3335,2021-09-08_20h54.01.998,forced_choiceRT,2021.1.2,MacIntel,60.0024001,,,,,,,,7,Ontime,f,0,2.0343,3,2,14,2,1,,,,,
,1.12,,,,,,,,,f.PNG,f,6100c1e6c313cc2fc5ab3335,2021-09-08_20h54.01.998,forced_choiceRT,2021.1.2,MacIntel,60.0024001,,,,,,,,7,Fast,f,1,1.8702,3,3,15,0,1,,,,,
,0.52,,,,,,,,,h.PNG,h,6100c1e6c313cc2fc5ab3335,2021-09-08_20h54.01.998,forced_choiceRT,2021.1.2,MacIntel,60.0024001,,,,,,,,7,Ontime,h,1,1.9672,4,0,16,2,1,,,,,
,0.82,,,,,,,,,g.PNG,g,6100c1e6c313cc2fc5ab3335,2021-09-08_20h54.01.998,forced_choiceRT,2021.1.2,MacIntel,60.0024001,,,,,,,,7,Fast,g,1,1.8837,4,1,17,1,1,,,,,
,1.47,,,,,,,,,j.PNG,j,6100c1e6c313cc2fc5ab3335,2021-09-08_20h54.01.998,forced_choiceRT,2021.1.2,MacIntel,60.0024001,,,,,,,,7,Ontime,h,0,2.0029,4,2,18,3,1,,,,,
,0.82,,,,,,,,,j.PNG,j,6100c1e6c313cc2fc5ab3335,2021-09-08_20h54.01.998,forced_choiceRT,2021.1.2,MacIntel,60.0024001,,,,,,,,7,Ontime,j,1,1.9514,4,3,19,3,1,,,,,
,1.53,,,,,,,,,g.PNG,g,6100c1e6c313cc2fc5ab3335,2021-09-08_20h54.01.998,forced_choiceRT,2021.1.2,MacIntel,60.0024001,,,,,,,,7,Ontime,g,1,2.0235,5,0,20,1,1,,,,,
,1.77,,,,,,,,,f.PNG,f,6100c1e6c313cc2fc5ab3335,2021-09-08_20h54.01.998,forced_choiceRT,2021.1.2,MacIntel,60.0024001,,,,,,,,7,Ontime,f,1,2.0685,5,1,21,0,1,,,,,
,0.85,,,,,,,,,g.PNG,g,6100c1e6c313cc2fc5ab3335,2021-09-08_20h54.01.998,forced_choiceRT,2021.1.2,MacIntel,60.0024001,,,,,,,,7,Ontime,g,1,1.9359,5,2,22,1,1,,,,,
,0.62,,,,,,,,,f.PNG,f,6100c1e6c313cc2fc5ab3335,2021-09-08_20h54.01.998,forced_choiceRT,2021.1.2,MacIntel,60.0024001,,,,,,,,7,Ontime,f,1,1.9205,5,3,23,0,1,,,,,
,1.34,,,,,,,,,g.PNG,g,6100c1e6c313cc2fc5ab3335,2021-09-08_20h54.01.998,forced_choiceRT,2021.1.2,MacIntel,60.0024001,,,,,,,,7,Slow,g,1,2.105,6,0,24,1,1,,,,,
,0.27,,,,,,,,,f.PNG,f,6100c1e6c313cc2fc5ab3335,2021-09-08_20h54.01.998,forced_choiceRT,2021.1.2,MacIntel,60.0024001,,,,,,,,7,Ontime,f,1,1.9175,6,1,25,0,1,,,,,
,0.65,,,,,,,,,j.PNG,j,6100c1e6c313cc2fc5ab3335,2021-09-08_20h54.01.998,forced_choiceRT,2021.1.2,MacIntel,60.0024001,,,,,,,,7,Ontime,j,1,1.9842,6,2,26,3,1,,,,,
,0.08,,,,,,,,,g.PNG,g,6100c1e6c313cc2fc5ab3335,2021-09-08_20h54.01.998,forced_choiceRT,2021.1.2,MacIntel,60.0024001,,,,,,,,7,Ontime,g,1,1.9513,6,3,27,1,1,,,,,
,0.04,,,,,,,,,f.PNG,f,6100c1e6c313cc2fc5ab3335,2021-09-08_20h54.01.998,forced_choiceRT,2021.1.2,MacIntel,60.0024001,,,,,,,,7,Ontime,f,1,1.9009,7,0,28,0,1,,,,,
,1.21,,,,,,,,,g.PNG,g,6100c1e6c313cc2fc5ab3335,2021-09-08_20h54.01.998,forced_choiceRT,2021.1.2,MacIntel,60.0024001,,,,,,,,7,Ontime,g,1,1.9509,7,1,29,1,1,,,,,
,1.72,,,,,,,,,f.PNG,f,6100c1e6c313cc2fc5ab3335,2021-09-08_20h54.01.998,forced_choiceRT,2021.1.2,MacIntel,60.0024001,,,,,,,,7,Slow,f,1,2.151,7,2,30,0,1,,,,,
,1.67,,,,,,,,,j.PNG,j,6100c1e6c313cc2fc5ab3335,2021-09-08_20h54.01.998,forced_choiceRT,2021.1.2,MacIntel,60.0024001,,,,,,,,7,Slow,j,1,2.2028,7,3,31,3,1,,,,,
,1.48,,,,,,,,,j.PNG,j,6100c1e6c313cc2fc5ab3335,2021-09-08_20h54.01.998,forced_choiceRT,2021.1.2,MacIntel,60.0024001,,,,,,,,7,Ontime,j,1,1.9354,8,0,32,3,1,,,,,
,1.11,,,,,,,,,h.PNG,h,6100c1e6c313cc2fc5ab3335,2021-09-08_20h54.01.998,forced_choiceRT,2021.1.2,MacIntel,60.0024001,,,,,,,,7,Ontime,h,1,1.9845,8,1,33,2,1,,,,,
,0.74,,,,,,,,,j.PNG,j,6100c1e6c313cc2fc5ab3335,2021-09-08_20h54.01.998,forced_choiceRT,2021.1.2,MacIntel,60.0024001,,,,,,,,7,Ontime,j,1,1.9342,8,2,34,3,1,,,,,
,0.79,,,,,,,,,j.PNG,j,6100c1e6c313cc2fc5ab3335,2021-09-08_20h54.01.998,forced_choiceRT,2021.1.2,MacIntel,60.0024001,,,,,,,,7,Ontime,j,1,1.951,8,3,35,3,1,,,,,
,0.66,,,,,,,,,f.PNG,f,6100c1e6c313cc2fc5ab3335,2021-09-08_20h54.01.998,forced_choiceRT,2021.1.2,MacIntel,60.0024001,,,,,,,,7,Ontime,f,1,1.917,9,0,36,0,1,,,,,
,0.46,,,,,,,,,f.PNG,f,6100c1e6c313cc2fc5ab3335,2021-09-08_20h54.01.998,forced_choiceRT,2021.1.2,MacIntel,60.0024001,,,,,,,,7,Fast,f,1,1.8845,9,1,37,0,1,,,,,
,0.75,,,,,,,,,g.PNG,g,6100c1e6c313cc2fc5ab3335,2021-09-08_20h54.01.998,forced_choiceRT,2021.1.2,MacIntel,60.0024001,,,,,,,,7,Ontime,g,1,1.9836,9,2,38,1,1,,,,,
,0.95,,,,,,,,,f.PNG,f,6100c1e6c313cc2fc5ab3335,2021-09-08_20h54.01.998,forced_choiceRT,2021.1.2,MacIntel,60.0024001,,,,,,,,7,Ontime,f,1,1.9009,9,3,39,0,1,,,,,
,,,,,,,,,,,,6100c1e6c313cc2fc5ab3335,2021-09-08_20h54.01.998,forced_choiceRT,2021.1.2,MacIntel,60.0024001,,,,,,,,,,,,,,,,,,6,0,6,0,1
,0.44,,,,,,,,,f.PNG,f,6100c1e6c313cc2fc5ab3335,2021-09-08_20h54.01.998,forced_choiceRT,2021.1.2,MacIntel,60.0024001,,,,,,,,8,Ontime,f,1,1.9812,0,0,0,0,1,,,,,
,1.09,,,,,,,,,h.PNG,h,6100c1e6c313cc2fc5ab3335,2021-09-08_20h54.01.998,forced_choiceRT,2021.1.2,MacIntel,60.0024001,,,,,,,,8,Ontime,h,1,1.9491,0,1,1,2,1,,,,,
,0.67,,,,,,,,,g.PNG,g,6100c1e6c313cc2fc5ab3335,2021-09-08_20h54.01.998,forced_choiceRT,2021.1.2,MacIntel,60.0024001,,,,,,,,8,Ontime,g,1,1.9652,0,2,2,1,1,,,,,
,0.71,,,,,,,,,g.PNG,g,6100c1e6c313cc2fc5ab3335,2021-09-08_20h54.01.998,forced_choiceRT,2021.1.2,MacIntel,60.0024001,,,,,,,,8,Ontime,g,1,1.9671,0,3,3,1,1,,,,,
,0.95,,,,,,,,,j.PNG,j,6100c1e6c313cc2fc5ab3335,2021-09-08_20h54.01.998,forced_choiceRT,2021.1.2,MacIntel,60.0024001,,,,,,,,8,Ontime,j,1,1.9511,1,0,4,3,1,,,,,
,0.36,,,,,,,,,f.PNG,f,6100c1e6c313cc2fc5ab3335,2021-09-08_20h54.01.998,forced_choiceRT,2021.1.2,MacIntel,60.0024001,,,,,,,,8,Ontime,f,1,1.9338,1,1,5,0,1,,,,,
,0.18,,,,,,,,,g.PNG,g,6100c1e6c313cc2fc5ab3335,2021-09-08_20h54.01.998,forced_choiceRT,2021.1.2,MacIntel,60.0024001,,,,,,,,8,Ontime,g,1,1.9177,1,2,6,1,1,,,,,
,1.05,,,,,,,,,h.PNG,h,6100c1e6c313cc2fc5ab3335,2021-09-08_20h54.01.998,forced_choiceRT,2021.1.2,MacIntel,60.0024001,,,,,,,,8,Ontime,h,1,2.0331,1,3,7,2,1,,,,,
,1.12,,,,,,,,,f.PNG,f,6100c1e6c313cc2fc5ab3335,2021-09-08_20h54.01.998,forced_choiceRT,2021.1.2,MacIntel,60.0024001,,,,,,,,8,Ontime,f,1,2.0009,2,0,8,0,1,,,,,
,1.64,,,,,,,,,j.PNG,j,6100c1e6c313cc2fc5ab3335,2021-09-08_20h54.01.998,forced_choiceRT,2021.1.2,MacIntel,60.0024001,,,,,,,,8,Ontime,j,1,2.0345,2,1,9,3,1,,,,,
,0.39,,,,,,,,,g.PNG,g,6100c1e6c313cc2fc5ab3335,2021-09-08_20h54.01.998,forced_choiceRT,2021.1.2,MacIntel,60.0024001,,,,,,,,8,Ontime,g,1,1.9847,2,2,10,1,1,,,,,
,0.76,,,,,,,,,f.PNG,f,6100c1e6c313cc2fc5ab3335,2021-09-08_20h54.01.998,forced_choiceRT,2021.1.2,MacIntel,60.0024001,,,,,,,,8,Ontime,f,1,1.9676,2,3,11,0,1,,,,,
,0.48,,,,,,,,,f.PNG,f,6100c1e6c313cc2fc5ab3335,2021-09-08_20h54.01.998,forced_choiceRT,2021.1.2,MacIntel,60.0024001,,,,,,,,8,Ontime,f,1,1.9669,3,0,12,0,1,,,,,
,1.6,,,,,,,,,j.PNG,j,6100c1e6c313cc2fc5ab3335,2021-09-08_20h54.01.998,forced_choiceRT,2021.1.2,MacIntel,60.0024001,,,,,,,,8,Ontime,j,1,2.0156,3,1,13,3,1,,,,,
,1.99,,,,,,,,,g.PNG,g,6100c1e6c313cc2fc5ab3335,2021-09-08_20h54.01.998,forced_choiceRT,2021.1.2,MacIntel,60.0024001,,,,,,,,8,Slow,f,0,2.2548,3,2,14,1,1,,,,,
,0.97,,,,,,,,,j.PNG,j,6100c1e6c313cc2fc5ab3335,2021-09-08_20h54.01.998,forced_choiceRT,2021.1.2,MacIntel,60.0024001,,,,,,,,8,Ontime,j,1,2.0506,3,3,15,3,1,,,,,
,1.53,,,,,,,,,j.PNG,j,6100c1e6c313cc2fc5ab3335,2021-09-08_20h54.01.998,forced_choiceRT,2021.1.2,MacIntel,60.0024001,,,,,,,,8,Ontime,j,1,1.9844,4,0,16,3,1,,,,,
,0.55,,,,,,,,,h.PNG,h,6100c1e6c313cc2fc5ab3335,2021-09-08_20h54.01.998,forced_choiceRT,2021.1.2,MacIntel,60.0024001,,,,,,,,8,Ontime,h,1,1.987,4,1,17,2,1,,,,,
,1.14,,,,,,,,,g.PNG,g,6100c1e6c313cc2fc5ab3335,2021-09-08_20h54.01.998,forced_choiceRT,2021.1.2,MacIntel,60.0024001,,,,,,,,8,Ontime,g,1,2.0177,4,2,18,1,1,,,,,
,1.24,,,,,,,,,j.PNG,j,6100c1e6c313cc2fc5ab3335,2021-09-08_20h54.01.998,forced_choiceRT,2021.1.2,MacIntel,60.0024001,,,,,,,,8,Ontime,j,1,2.0367,4,3,19,3,1,,,,,
,1.48,,,,,,,,,f.PNG,f,6100c1e6c313cc2fc5ab3335,2021-09-08_20h54.01.998,forced_choiceRT,2021.1.2,MacIntel,60.0024001,,,,,,,,8,Ontime,f,1,2.0343,5,0,20,0,1,,,,,
,0.45,,,,,,,,,h.PNG,h,6100c1e6c313cc2fc5ab3335,2021-09-08_20h54.01.998,forced_choiceRT,2021.1.2,MacIntel,60.0024001,,,,,,,,8,Ontime,h,1,1.9341,5,1,21,2,1,,,,,
,0.46,,,,,,,,,h.PNG,h,6100c1e6c313cc2fc5ab3335,2021-09-08_20h54.01.998,forced_choiceRT,2021.1.2,MacIntel,60.0024001,,,,,,,,8,Ontime,h,1,2.0158,5,2,22,2,1,,,,,
,1.44,,,,,,,,,j.PNG,j,6100c1e6c313cc2fc5ab3335,2021-09-08_20h54.01.998,forced_choiceRT,2021.1.2,MacIntel,60.0024001,,,,,,,,8,Ontime,j,1,1.9846,5,3,23,3,1,,,,,
,1.48,,,,,,,,,h.PNG,h,6100c1e6c313cc2fc5ab3335,2021-09-08_20h54.01.998,forced_choiceRT,2021.1.2,MacIntel,60.0024001,,,,,,,,8,Fast,f,0,1.8837,6,0,24,2,1,,,,,
,0.85,,,,,,,,,g.PNG,g,6100c1e6c313cc2fc5ab3335,2021-09-08_20h54.01.998,forced_choiceRT,2021.1.2,MacIntel,60.0024001,,,,,,,,8,Ontime,g,1,1.9491,6,1,25,1,1,,,,,
,0.68,,,,,,,,,f.PNG,f,6100c1e6c313cc2fc5ab3335,2021-09-08_20h54.01.998,forced_choiceRT,2021.1.2,MacIntel,60.0024001,,,,,,,,8,Ontime,f,1,1.9523,6,2,26,0,1,,,,,
,1.72,,,,,,,,,j.PNG,j,6100c1e6c313cc2fc5ab3335,2021-09-08_20h54.01.998,forced_choiceRT,2021.1.2,MacIntel,60.0024001,,,,,,,,8,Slow,j,1,2.2683,6,3,27,3,1,,,,,
,0.68,,,,,,,,,h.PNG,h,6100c1e6c313cc2fc5ab3335,2021-09-08_20h54.01.998,forced_choiceRT,2021.1.2,MacIntel,60.0024001,,,,,,,,8,Ontime,h,1,1.9174,7,0,28,2,1,,,,,
,1.51,,,,,,,,,g.PNG,g,6100c1e6c313cc2fc5ab3335,2021-09-08_20h54.01.998,forced_choiceRT,2021.1.2,MacIntel,60.0024001,,,,,,,,8,Ontime,h,0,1.936,7,1,29,1,1,,,,,
,1.03,,,,,,,,,h.PNG,h,6100c1e6c313cc2fc5ab3335,2021-09-08_20h54.01.998,forced_choiceRT,2021.1.2,MacIntel,60.0024001,,,,,,,,8,Ontime,h,1,2.0176,7,2,30,2,1,,,,,
,1.93,,,,,,,,,h.PNG,h,6100c1e6c313cc2fc5ab3335,2021-09-08_20h54.01.998,forced_choiceRT,2021.1.2,MacIntel,60.0024001,,,,,,,,8,Slow,f,0,2.1814,7,3,31,2,1,,,,,
,0.78,,,,,,,,,j.PNG,j,6100c1e6c313cc2fc5ab3335,2021-09-08_20h54.01.998,forced_choiceRT,2021.1.2,MacIntel,60.0024001,,,,,,,,8,Ontime,j,1,1.9485,8,0,32,3,1,,,,,
,1.31,,,,,,,,,h.PNG,h,6100c1e6c313cc2fc5ab3335,2021-09-08_20h54.01.998,forced_choiceRT,2021.1.2,MacIntel,60.0024001,,,,,,,,8,Ontime,h,1,2.0519,8,1,33,2,1,,,,,
,0.51,,,,,,,,,j.PNG,j,6100c1e6c313cc2fc5ab3335,2021-09-08_20h54.01.998,forced_choiceRT,2021.1.2,MacIntel,60.0024001,,,,,,,,8,Ontime,j,1,1.9828,8,2,34,3,1,,,,,
,0.09,,,,,,,,,f.PNG,f,6100c1e6c313cc2fc5ab3335,2021-09-08_20h54.01.998,forced_choiceRT,2021.1.2,MacIntel,60.0024001,,,,,,,,8,Ontime,f,1,1.9336,8,3,35,0,1,,,,,
,1.01,,,,,,,,,g.PNG,g,6100c1e6c313cc2fc5ab3335,2021-09-08_20h54.01.998,forced_choiceRT,2021.1.2,MacIntel,60.0024001,,,,,,,,8,Ontime,g,1,2.0152,9,0,36,1,1,,,,,
,1.29,,,,,,,,,f.PNG,f,6100c1e6c313cc2fc5ab3335,2021-09-08_20h54.01.998,forced_choiceRT,2021.1.2,MacIntel,60.0024001,,,,,,,,8,Ontime,f,1,2.0209,9,1,37,0,1,,,,,
,0.43,,,,,,,,,g.PNG,g,6100c1e6c313cc2fc5ab3335,2021-09-08_20h54.01.998,forced_choiceRT,2021.1.2,MacIntel,60.0024001,,,,,,,,8,Ontime,g,1,1.9844,9,2,38,1,1,,,,,
,1.49,,,,,,,,,f.PNG,f,6100c1e6c313cc2fc5ab3335,2021-09-08_20h54.01.998,forced_choiceRT,2021.1.2,MacIntel,60.0024001,,,,,,,,8,Fast,f,1,1.8639,9,3,39,0,1,,,,,
,,,,,,,,,,,,6100c1e6c313cc2fc5ab3335,2021-09-08_20h54.01.998,forced_choiceRT,2021.1.2,MacIntel,60.0024001,,,,,,,,,,,,,,,,,,7,0,7,0,1
,0.84,,,,,,,,,f.PNG,f,6100c1e6c313cc2fc5ab3335,2021-09-08_20h54.01.998,forced_choiceRT,2021.1.2,MacIntel,60.0024001,,,,,,,,9,Ontime,f,1,1.9824,0,0,0,0,1,,,,,
,0.22,,,,,,,,,j.PNG,j,6100c1e6c313cc2fc5ab3335,2021-09-08_20h54.01.998,forced_choiceRT,2021.1.2,MacIntel,60.0024001,,,,,,,,9,Fast,j,1,1.8677,0,1,1,3,1,,,,,
,1.34,,,,,,,,,j.PNG,j,6100c1e6c313cc2fc5ab3335,2021-09-08_20h54.01.998,forced_choiceRT,2021.1.2,MacIntel,60.0024001,,,,,,,,9,Ontime,j,1,2.0337,0,2,2,3,1,,,,,
,0.5,,,,,,,,,j.PNG,j,6100c1e6c313cc2fc5ab3335,2021-09-08_20h54.01.998,forced_choiceRT,2021.1.2,MacIntel,60.0024001,,,,,,,,9,Ontime,j,1,2.0176,0,3,3,3,1,,,,,
,0.34,,,,,,,,,h.PNG,h,6100c1e6c313cc2fc5ab3335,2021-09-08_20h54.01.998,forced_choiceRT,2021.1.2,MacIntel,60.0024001,,,,,,,,9,Ontime,h,1,1.9176,1,0,4,2,1,,,,,
,0.72,,,,,,,,,f.PNG,f,6100c1e6c313cc2fc5ab3335,2021-09-08_20h54.01.998,forced_choiceRT,2021.1.2,MacIntel,60.0024001,,,,,,,,9,Ontime,f,1,1.9666,1,1,5,0,1,,,,,
,1.85,,,,,,,,,f.PNG,f,6100c1e6c313cc2fc5ab3335,2021-09-08_20h54.01.998,forced_choiceRT,2021.1.2,MacIntel,60.0024001,,,,,,,,9,Slow,f,1,2.1169,1,2,6,0,1,,,,,
,1.07,,,,,,,,,f.PNG,f,6100c1e6c313cc2fc5ab3335,2021-09-08_20h54.01.998,forced_choiceRT,2021.1.2,MacIntel,60.0024001,,,,,,,,9,Ontime,f,1,2.0008,1,3,7,0,1,,,,,
,1.34,,,,,,,,,g.PNG,g,6100c1e6c313cc2fc5ab3335,2021-09-08_20h54.01.998,forced_choiceRT,2021.1.2,MacIntel,60.0024001,,,,,,,,9,Ontime,g,1,2.0175,2,0,8,1,1,,,,,
,0.21,,,,,,,,,h.PNG,h,6100c1e6c313cc2fc5ab3335,2021-09-08_20h54.01.998,forced_choiceRT,2021.1.2,MacIntel,60.0024001,,,,,,,,9,Ontime,h,1,1.9998,2,1,9,2,1,,,,,
,0.96,,,,,,,,,f.PNG,f,6100c1e6c313cc2fc5ab3335,2021-09-08_20h54.01.998,forced_choiceRT,2021.1.2,MacIntel,60.0024001,,,,,,,,9,Ontime,f,1,2.0018,2,2,10,0,1,,,,,
,1.96,,,,,,,,,h.PNG,h,6100c1e6c313cc2fc5ab3335,2021-09-08_20h54.01.998,forced_choiceRT,2021.1.2,MacIntel,60.0024001,,,,,,,,9,Slow,f,0,2.2171,2,3,11,2,1,,,,,
,1.85,,,,,,,,,h.PNG,h,6100c1e6c313cc2fc5ab3335,2021-09-08_20h54.01.998,forced_choiceRT,2021.1.2,MacIntel,60.0024001,,,,,,,,9,Slow,h,1,2.134,3,0,12,2,1,,,,,
,0.77,,,,,,,,,g.PNG,g,6100c1e6c313cc2fc5ab3335,2021-09-08_20h54.01.998,forced_choiceRT,2021.1.2,MacIntel,60.0024001,,,,,,,,9,Ontime,g,1,2.0339,3,1,13,1,1,,,,,
,0.08,,,,,,,,,g.PNG,g,6100c1e6c313cc2fc5ab3335,2021-09-08_20h54.01.998,forced_choiceRT,2021.1.2,MacIntel,60.0024001,,,,,,,,9,Ontime,g,1,1.9342,3,2,14,1,1,,,,,
,1.4,,,,,,,,,f.PNG,f,6100c1e6c313cc2fc5ab3335,2021-09-08_20h54.01.998,forced_choiceRT,2021.1.2,MacIntel,60.0024001,,,,,,,,9,Ontime,f,1,2.001,3,3,15,0,1,,,,,
,0.44,,,,,,,,,h.PNG,h,6100c1e6c313cc2fc5ab3335,2021-09-08_20h54.01.998,forced_choiceRT,2021.1.2,MacIntel,60.0024001,,,,,,,,9,Ontime,h,1,2.0672,4,0,16,2,1,,,,,
,0.08,,,,,,,,,g.PNG,g,6100c1e6c313cc2fc5ab3335,2021-09-08_20h54.01.998,forced_choiceRT,2021.1.2,MacIntel,60.0024001,,,,,,,,9,Ontime,g,1,2.0001,4,1,17,1,1,,,,,
,1.91,,,,,,,,,h.PNG,h,6100c1e6c313cc2fc5ab3335,2021-09-08_20h54.01.998,forced_choiceRT,2021.1.2,MacIntel,60.0024001,,,,,,,,9,Ontime,h,1,2.0673,4,2,18,2,1,,,,,
,0.51,,,,,,,,,g.PNG,g,6100c1e6c313cc2fc5ab3335,2021-09-08_20h54.01.998,forced_choiceRT,2021.1.2,MacIntel,60.0024001,,,,,,,,9,Ontime,g,1,2.0341,4,3,19,1,1,,,,,
,1.65,,,,,,,,,h.PNG,h,6100c1e6c313cc2fc5ab3335,2021-09-08_20h54.01.998,forced_choiceRT,2021.1.2,MacIntel,60.0024001,,,,,,,,9,Ontime,f,0,1.9507,5,0,20,2,1,,,,,
,0.29,,,,,,,,,j.PNG,j,6100c1e6c313cc2fc5ab3335,2021-09-08_20h54.01.998,forced_choiceRT,2021.1.2,MacIntel,60.0024001,,,,,,,,9,Slow,j,1,2.1156,5,1,21,3,1,,,,,
,1.17,,,,,,,,,f.PNG,f,6100c1e6c313cc2fc5ab3335,2021-09-08_20h54.01.998,forced_choiceRT,2021.1.2,MacIntel,60.0024001,,,,,,,,9,Fast,f,1,1.718,5,2,22,0,1,,,,,
,0.2,,,,,,,,,j.PNG,j,6100c1e6c313cc2fc5ab3335,2021-09-08_20h54.01.998,forced_choiceRT,2021.1.2,MacIntel,60.0024001,,,,,,,,9,Ontime,j,1,2.0034,5,3,23,3,1,,,,,
,1.67,,,,,,,,,h.PNG,h,6100c1e6c313cc2fc5ab3335,2021-09-08_20h54.01.998,forced_choiceRT,2021.1.2,MacIntel,60.0024001,,,,,,,,9,Ontime,f,0,2.0504,6,0,24,2,1,,,,,
,1.91,,,,,,,,,g.PNG,g,6100c1e6c313cc2fc5ab3335,2021-09-08_20h54.01.998,forced_choiceRT,2021.1.2,MacIntel,60.0024001,,,,,,,,9,Slow,f,0,2.1489,6,1,25,1,1,,,,,
,1.65,,,,,,,,,h.PNG,h,6100c1e6c313cc2fc5ab3335,2021-09-08_20h54.01.998,forced_choiceRT,2021.1.2,MacIntel,60.0024001,,,,,,,,9,Slow,j,0,2.1503,6,2,26,2,1,,,,,
,0.86,,,,,,,,,f.PNG,f,6100c1e6c313cc2fc5ab3335,2021-09-08_20h54.01.998,forced_choiceRT,2021.1.2,MacIntel,60.0024001,,,,,,,,9,Ontime,f,1,2.0007,6,3,27,0,1,,,,,
,1.07,,,,,,,,,j.PNG,j,6100c1e6c313cc2fc5ab3335,2021-09-08_20h54.01.998,forced_choiceRT,2021.1.2,MacIntel,60.0024001,,,,,,,,9,Ontime,j,1,2.0171,7,0,28,3,1,,,,,
,1.57,,,,,,,,,g.PNG,g,6100c1e6c313cc2fc5ab3335,2021-09-08_20h54.01.998,forced_choiceRT,2021.1.2,MacIntel,60.0024001,,,,,,,,9,Slow,h,0,2.1309,7,1,29,1,1,,,,,
,1.64,,,,,,,,,g.PNG,g,6100c1e6c313cc2fc5ab3335,2021-09-08_20h54.01.998,forced_choiceRT,2021.1.2,MacIntel,60.0024001,,,,,,,,9,Ontime,g,1,1.9675,7,2,30,1,1,,,,,
,0.88,,,,,,,,,j.PNG,j,6100c1e6c313cc2fc5ab3335,2021-09-08_20h54.01.998,forced_choiceRT,2021.1.2,MacIntel,60.0024001,,,,,,,,9,Ontime,j,1,2.017,7,3,31,3,1,,,,,
,1.24,,,,,,,,,f.PNG,f,6100c1e6c313cc2fc5ab3335,2021-09-08_20h54.01.998,forced_choiceRT,2021.1.2,MacIntel,60.0024001,,,,,,,,9,Ontime,f,1,2.0167,8,0,32,0,1,,,,,
,1.62,,,,,,,,,g.PNG,g,6100c1e6c313cc2fc5ab3335,2021-09-08_20h54.01.998,forced_choiceRT,2021.1.2,MacIntel,60.0024001,,,,,,,,9,Ontime,g,1,2.0509,8,1,33,1,1,,,,,
,0.73,,,,,,,,,j.PNG,j,6100c1e6c313cc2fc5ab3335,2021-09-08_20h54.01.998,forced_choiceRT,2021.1.2,MacIntel,60.0024001,,,,,,,,9,Ontime,j,1,2.0651,8,2,34,3,1,,,,,
,1.57,,,,,,,,,g.PNG,g,6100c1e6c313cc2fc5ab3335,2021-09-08_20h54.01.998,forced_choiceRT,2021.1.2,MacIntel,60.0024001,,,,,,,,9,Ontime,g,1,1.9037,8,3,35,1,1,,,,,
,0.62,,,,,,,,,j.PNG,j,6100c1e6c313cc2fc5ab3335,2021-09-08_20h54.01.998,forced_choiceRT,2021.1.2,MacIntel,60.0024001,,,,,,,,9,Ontime,j,1,1.9859,9,0,36,3,1,,,,,
,1.4,,,,,,,,,h.PNG,h,6100c1e6c313cc2fc5ab3335,2021-09-08_20h54.01.998,forced_choiceRT,2021.1.2,MacIntel,60.0024001,,,,,,,,9,Ontime,h,1,2.0342,9,1,37,2,1,,,,,
,1.81,,,,,,,,,j.PNG,j,6100c1e6c313cc2fc5ab3335,2021-09-08_20h54.01.998,forced_choiceRT,2021.1.2,MacIntel,60.0024001,,,,,,,,9,Ontime,f,0,2.0373,9,2,38,3,1,,,,,
,0.5,,,,,,,,,f.PNG,f,6100c1e6c313cc2fc5ab3335,2021-09-08_20h54.01.998,forced_choiceRT,2021.1.2,MacIntel,60.0024001,,,,,,,,9,Ontime,f,1,2.001,9,3,39,0,1,,,,,
,,,,,,,,,,,,6100c1e6c313cc2fc5ab3335,2021-09-08_20h54.01.998,forced_choiceRT,2021.1.2,MacIntel,60.0024001,,,,,,,,,,,,,,,,,,8,0,8,0,1
,1.4,,,,,,,,,j.PNG,j,6100c1e6c313cc2fc5ab3335,2021-09-08_20h54.01.998,forced_choiceRT,2021.1.2,MacIntel,60.0024001,,,,,,,,10,Ontime,j,1,2.0993,0,0,0,3,1,,,,,
,1.73,,,,,,,,,h.PNG,h,6100c1e6c313cc2fc5ab3335,2021-09-08_20h54.01.998,forced_choiceRT,2021.1.2,MacIntel,60.0024001,,,,,,,,10,Ontime,g,0,1.9565,0,1,1,2,1,,,,,
,0.99,,,,,,,,,g.PNG,g,6100c1e6c313cc2fc5ab3335,2021-09-08_20h54.01.998,forced_choiceRT,2021.1.2,MacIntel,60.0024001,,,,,,,,10,Ontime,g,1,2.0173,0,2,2,1,1,,,,,
,1.34,,,,,,,,,f.PNG,f,6100c1e6c313cc2fc5ab3335,2021-09-08_20h54.01.998,forced_choiceRT,2021.1.2,MacIntel,60.0024001,,,,,,,,10,Ontime,f,1,1.9582,0,3,3,0,1,,,,,
,0.84,,,,,,,,,j.PNG,j,6100c1e6c313cc2fc5ab3335,2021-09-08_20h54.01.998,forced_choiceRT,2021.1.2,MacIntel,60.0024001,,,,,,,,10,Ontime,j,1,2.018,1,0,4,3,1,,,,,
,0.8,,,,,,,,,f.PNG,f,6100c1e6c313cc2fc5ab3335,2021-09-08_20h54.01.998,forced_choiceRT,2021.1.2,MacIntel,60.0024001,,,,,,,,10,Ontime,f,1,1.9831,1,1,5,0,1,,,,,
,0.61,,,,,,,,,j.PNG,j,6100c1e6c313cc2fc5ab3335,2021-09-08_20h54.01.998,forced_choiceRT,2021.1.2,MacIntel,60.0024001,,,,,,,,10,Ontime,j,1,1.9835,1,2,6,3,1,,,,,
,1.9,,,,,,,,,h.PNG,h,6100c1e6c313cc2fc5ab3335,2021-09-08_20h54.01.998,forced_choiceRT,2021.1.2,MacIntel,60.0024001,,,,,,,,10,Ontime,g,0,2.0832,1,3,7,2,1,,,,,
,0.5,,,,,,,,,g.PNG,g,6100c1e6c313cc2fc5ab3335,2021-09-08_20h54.01.998,forced_choiceRT,2021.1.2,MacIntel,60.0024001,,,,,,,,10,Ontime,g,1,1.9991,2,0,8,1,1,,,,,
,0.24,,,,,,,,,h.PNG,h,6100c1e6c313cc2fc5ab3335,2021-09-08_20h54.01.998,forced_choiceRT,2021.1.2,MacIntel,60.0024001,,,,,,,,10,Ontime,h,1,1.9676,2,1,9,2,1,,,,,
,0.5,,,,,,,,,g.PNG,g,6100c1e6c313cc2fc5ab3335,2021-09-08_20h54.01.998,forced_choiceRT,2021.1.2,MacIntel,60.0024001,,,,,,,,10,Ontime,g,1,1.9674,2,2,10,1,1,,,,,
,0.29,,,,,,,,,g.PNG,g,6100c1e6c313cc2fc5ab3335,2021-09-08_20h54.01.998,forced_choiceRT,2021.1.2,MacIntel,60.0024001,,,,,,,,10,Ontime,g,1,1.9352,2,3,11,1,1,,,,,
,0.61,,,,,,,,,h.PNG,h,6100c1e6c313cc2fc5ab3335,2021-09-08_20h54.01.998,forced_choiceRT,2021.1.2,MacIntel,60.0024001,,,,,,,,10,Ontime,h,1,1.9671,3,0,12,2,1,,,,,
,1.81,,,,,,,,,j.PNG,j,6100c1e6c313cc2fc5ab3335,2021-09-08_20h54.01.998,forced_choiceRT,2021.1.2,MacIntel,60.0024001,,,,,,,,10,Ontime,f,0,2.0668,3,1,13,3,1,,,,,
,0.35,,,,,,,,,f.PNG,f,6100c1e6c313cc2fc5ab3335,2021-09-08_20h54.01.998,forced_choiceRT,2021.1.2,MacIntel,60.0024001,,,,,,,,10,Ontime,f,1,1.9845,3,2,14,0,1,,,,,
,1.76,,,,,,,,,f.PNG,f,6100c1e6c313cc2fc5ab3335,2021-09-08_20h54.01.998,forced_choiceRT,2021.1.2,MacIntel,60.0024001,,,,,,,,10,Ontime,j,0,2.0505,3,3,15,0,1,,,,,
,0.64,,,,,,,,,f.PNG,f,6100c1e6c313cc2fc5ab3335,2021-09-08_20h54.01.998,forced_choiceRT,2021.1.2,MacIntel,60.0024001,,,,,,,,10,Ontime,f,1,2.0511,4,0,16,0,1,,,,,
,1,,,,,,,,,f.PNG,f,6100c1e6c313cc2fc5ab3335,2021-09-08_20h54.01.998,forced_choiceRT,2021.1.2,MacIntel,60.0024001,,,,,,,,10,Ontime,f,1,2.0184,4,1,17,0,1,,,,,
,1.72,,,,,,,,,h.PNG,h,6100c1e6c313cc2fc5ab3335,2021-09-08_20h54.01.998,forced_choiceRT,2021.1.2,MacIntel,60.0024001,,,,,,,,10,Ontime,j,0,2.0506,4,2,18,2,1,,,,,
,0.74,,,,,,,,,h.PNG,h,6100c1e6c313cc2fc5ab3335,2021-09-08_20h54.01.998,forced_choiceRT,2021.1.2,MacIntel,60.0024001,,,,,,,,10,Ontime,h,1,2.051,4,3,19,2,1,,,,,
,0.92,,,,,,,,,j.PNG,j,6100c1e6c313cc2fc5ab3335,2021-09-08_20h54.01.998,forced_choiceRT,2021.1.2,MacIntel,60.0024001,,,,,,,,10,Ontime,j,1,2.0367,5,0,20,3,1,,,,,
,1.98,,,,,,,,,j.PNG,j,6100c1e6c313cc2fc5ab3335,2021-09-08_20h54.01.998,forced_choiceRT,2021.1.2,MacIntel,60.0024001,,,,,,,,10,Slow,j,1,2.1344,5,1,21,3,1,,,,,
,0.41,,,,,,,,,f.PNG,f,6100c1e6c313cc2fc5ab3335,2021-09-08_20h54.01.998,forced_choiceRT,2021.1.2,MacIntel,60.0024001,,,,,,,,10,Ontime,f,1,1.9344,5,2,22,0,1,,,,,
,0.84,,,,,,,,,j.PNG,j,6100c1e6c313cc2fc5ab3335,2021-09-08_20h54.01.998,forced_choiceRT,2021.1.2,MacIntel,60.0024001,,,,,,,,10,Ontime,j,1,2.0173,5,3,23,3,1,,,,,
,1.53,,,,,,,,,h.PNG,h,6100c1e6c313cc2fc5ab3335,2021-09-08_20h54.01.998,forced_choiceRT,2021.1.2,MacIntel,60.0024001,,,,,,,,10,Ontime,j,0,1.9655,6,0,24,2,1,,,,,
,1.06,,,,,,,,,g.PNG,g,6100c1e6c313cc2fc5ab3335,2021-09-08_20h54.01.998,forced_choiceRT,2021.1.2,MacIntel,60.0024001,,,,,,,,10,Ontime,g,1,2.0915,6,1,25,1,1,,,,,
,1.12,,,,,,,,,g.PNG,g,6100c1e6c313cc2fc5ab3335,2021-09-08_20h54.01.998,forced_choiceRT,2021.1.2,MacIntel,60.0024001,,,,,,,,10,Slow,g,1,2.2341,6,2,26,1,1,,,,,
,0.16,,,,,,,,,f.PNG,f,6100c1e6c313cc2fc5ab3335,2021-09-08_20h54.01.998,forced_choiceRT,2021.1.2,MacIntel,60.0024001,,,,,,,,10,Fast,f,1,1.8555,6,3,27,0,1,,,,,
,0.17,,,,,,,,,g.PNG,g,6100c1e6c313cc2fc5ab3335,2021-09-08_20h54.01.998,forced_choiceRT,2021.1.2,MacIntel,60.0024001,,,,,,,,10,Ontime,g,1,1.9031,7,0,28,1,1,,,,,
,1.76,,,,,,,,,j.PNG,j,6100c1e6c313cc2fc5ab3335,2021-09-08_20h54.01.998,forced_choiceRT,2021.1.2,MacIntel,60.0024001,,,,,,,,10,Ontime,g,0,2.036,7,1,29,3,1,,,,,
,0.55,,,,,,,,,h.PNG,h,6100c1e6c313cc2fc5ab3335,2021-09-08_20h54.01.998,forced_choiceRT,2021.1.2,MacIntel,60.0024001,,,,,,,,10,Ontime,h,1,2.0209,7,2,30,2,1,,,,,
,1.71,,,,,,,,,g.PNG,g,6100c1e6c313cc2fc5ab3335,2021-09-08_20h54.01.998,forced_choiceRT,2021.1.2,MacIntel,60.0024001,,,,,,,,10,Ontime,h,0,2.0169,7,3,31,1,1,,,,,
,0.27,,,,,,,,,g.PNG,g,6100c1e6c313cc2fc5ab3335,2021-09-08_20h54.01.998,forced_choiceRT,2021.1.2,MacIntel,60.0024001,,,,,,,,10,Ontime,g,1,1.9878,8,0,32,1,1,,,,,
,1.98,,,,,,,,,f.PNG,f,6100c1e6c313cc2fc5ab3335,2021-09-08_20h54.01.998,forced_choiceRT,2021.1.2,MacIntel,60.0024001,,,,,,,,10,Ontime,h,0,2.0344,8,1,33,0,1,,,,,
,0.25,,,,,,,,,j.PNG,j,6100c1e6c313cc2fc5ab3335,2021-09-08_20h54.01.998,forced_choiceRT,2021.1.2,MacIntel,60.0024001,,,,,,,,10,Ontime,j,1,1.9504,8,2,34,3,1,,,,,
,0.54,,,,,,,,,h.PNG,h,6100c1e6c313cc2fc5ab3335,2021-09-08_20h54.01.998,forced_choiceRT,2021.1.2,MacIntel,60.0024001,,,,,,,,10,Ontime,h,1,2.0156,8,3,35,2,1,,,,,
,1.28,,,,,,,,,h.PNG,h,6100c1e6c313cc2fc5ab3335,2021-09-08_20h54.01.998,forced_choiceRT,2021.1.2,MacIntel,60.0024001,,,,,,,,10,Ontime,h,1,1.9671,9,0,36,2,1,,,,,
,1.26,,,,,,,,,j.PNG,j,6100c1e6c313cc2fc5ab3335,2021-09-08_20h54.01.998,forced_choiceRT,2021.1.2,MacIntel,60.0024001,,,,,,,,10,Ontime,j,1,1.9818,9,1,37,3,1,,,,,
,1.63,,,,,,,,,f.PNG,f,6100c1e6c313cc2fc5ab3335,2021-09-08_20h54.01.998,forced_choiceRT,2021.1.2,MacIntel,60.0024001,,,,,,,,10,Ontime,f,1,1.9207,9,2,38,0,1,,,,,
,1.33,,,,,,,,,g.PNG,g,6100c1e6c313cc2fc5ab3335,2021-09-08_20h54.01.998,forced_choiceRT,2021.1.2,MacIntel,60.0024001,,,,,,,,10,Ontime,g,1,1.9822,9,3,39,1,1,,,,,
,,,,,,,,,,,,6100c1e6c313cc2fc5ab3335,2021-09-08_20h54.01.998,forced_choiceRT,2021.1.2,MacIntel,60.0024001,,,,,,,,,,,,,,,,,,9,0,9,0,1
