IP_Addresss,target_onset,trial_resp_sp.keys,trial_resp_sp.corr,trial_resp_sp.rt,trials_train_loop.thisRepN,trials_train_loop.thisTrialN,trials_train_loop.thisN,trials_train_loop.thisIndex,trials_train_loop.ran,pic,correct_key,participant,date,expName,psychopyVersion,OS,frameRate,trial_resp_timing.keys,trial_resp_timing.rt,trials_train_timing.thisRepN,trials_train_timing.thisTrialN,trials_train_timing.thisN,trials_train_timing.thisIndex,trials_train_timing.ran,block_id,ontime,forcedRT_resp.keys,forcedRT_resp.corr,forcedRT_resp.rt,trials.thisRepN,trials.thisTrialN,trials.thisN,trials.thisIndex,trials.ran,blocks.thisRepN,blocks.thisTrialN,blocks.thisN,blocks.thisIndex,blocks.ran
50.235.47.74,0,h,1,3.6303,0,0,0,2,1,h.PNG,h,610421096c1af729ade5aac1,2021-09-09_10h28.23.401,forced_choiceRT,2021.1.2,Win32,60.08171113,,,,,,,,,,,,,,,,,,,,,,
,0,f,1,2.4015,0,1,1,0,1,f.PNG,f,610421096c1af729ade5aac1,2021-09-09_10h28.23.401,forced_choiceRT,2021.1.2,Win32,60.08171113,,,,,,,,,,,,,,,,,,,,,,
,0,j,1,4.3508,0,2,2,3,1,j.PNG,j,610421096c1af729ade5aac1,2021-09-09_10h28.23.401,forced_choiceRT,2021.1.2,Win32,60.08171113,,,,,,,,,,,,,,,,,,,,,,
,0,j,1,0.8658,0,3,3,3,1,j.PNG,j,610421096c1af729ade5aac1,2021-09-09_10h28.23.401,forced_choiceRT,2021.1.2,Win32,60.08171113,,,,,,,,,,,,,,,,,,,,,,
,0,f,1,0.7772,1,0,4,0,1,f.PNG,f,610421096c1af729ade5aac1,2021-09-09_10h28.23.401,forced_choiceRT,2021.1.2,Win32,60.08171113,,,,,,,,,,,,,,,,,,,,,,
,0,g,1,1.6193,1,1,5,1,1,g.PNG,g,610421096c1af729ade5aac1,2021-09-09_10h28.23.401,forced_choiceRT,2021.1.2,Win32,60.08171113,,,,,,,,,,,,,,,,,,,,,,
,0,g,1,1.8184,1,2,6,1,1,g.PNG,g,610421096c1af729ade5aac1,2021-09-09_10h28.23.401,forced_choiceRT,2021.1.2,Win32,60.08171113,,,,,,,,,,,,,,,,,,,,,,
,0,g,1,0.6967,1,3,7,1,1,g.PNG,g,610421096c1af729ade5aac1,2021-09-09_10h28.23.401,forced_choiceRT,2021.1.2,Win32,60.08171113,,,,,,,,,,,,,,,,,,,,,,
,0,h,1,1.2019,2,0,8,2,1,h.PNG,h,610421096c1af729ade5aac1,2021-09-09_10h28.23.401,forced_choiceRT,2021.1.2,Win32,60.08171113,,,,,,,,,,,,,,,,,,,,,,
,0,f,1,0.8006,2,1,9,0,1,f.PNG,f,610421096c1af729ade5aac1,2021-09-09_10h28.23.401,forced_choiceRT,2021.1.2,Win32,60.08171113,,,,,,,,,,,,,,,,,,,,,,
,0,f,1,0.5749,2,2,10,0,1,f.PNG,f,610421096c1af729ade5aac1,2021-09-09_10h28.23.401,forced_choiceRT,2021.1.2,Win32,60.08171113,,,,,,,,,,,,,,,,,,,,,,
,0,h,1,0.8586,2,3,11,2,1,h.PNG,h,610421096c1af729ade5aac1,2021-09-09_10h28.23.401,forced_choiceRT,2021.1.2,Win32,60.08171113,,,,,,,,,,,,,,,,,,,,,,
,0,g,1,0.8038,3,0,12,1,1,g.PNG,g,610421096c1af729ade5aac1,2021-09-09_10h28.23.401,forced_choiceRT,2021.1.2,Win32,60.08171113,,,,,,,,,,,,,,,,,,,,,,
,0,f,1,0.9858,3,1,13,0,1,f.PNG,f,610421096c1af729ade5aac1,2021-09-09_10h28.23.401,forced_choiceRT,2021.1.2,Win32,60.08171113,,,,,,,,,,,,,,,,,,,,,,
,0,g,1,0.8174,3,2,14,1,1,g.PNG,g,610421096c1af729ade5aac1,2021-09-09_10h28.23.401,forced_choiceRT,2021.1.2,Win32,60.08171113,,,,,,,,,,,,,,,,,,,,,,
,0,j,1,0.9422,3,3,15,3,1,j.PNG,j,610421096c1af729ade5aac1,2021-09-09_10h28.23.401,forced_choiceRT,2021.1.2,Win32,60.08171113,,,,,,,,,,,,,,,,,,,,,,
,0,h,1,0.7807,4,0,16,2,1,h.PNG,h,610421096c1af729ade5aac1,2021-09-09_10h28.23.401,forced_choiceRT,2021.1.2,Win32,60.08171113,,,,,,,,,,,,,,,,,,,,,,
,0,j,1,0.7078,4,1,17,3,1,j.PNG,j,610421096c1af729ade5aac1,2021-09-09_10h28.23.401,forced_choiceRT,2021.1.2,Win32,60.08171113,,,,,,,,,,,,,,,,,,,,,,
,0,g,1,0.7241,4,2,18,1,1,g.PNG,g,610421096c1af729ade5aac1,2021-09-09_10h28.23.401,forced_choiceRT,2021.1.2,Win32,60.08171113,,,,,,,,,,,,,,,,,,,,,,
,0,j,0,2.7757,4,3,19,2,1,h.PNG,h,610421096c1af729ade5aac1,2021-09-09_10h28.23.401,forced_choiceRT,2021.1.2,Win32,60.08171113,,,,,,,,,,,,,,,,,,,,,,
,0,f,1,1.6159,5,0,20,0,1,f.PNG,f,610421096c1af729ade5aac1,2021-09-09_10h28.23.401,forced_choiceRT,2021.1.2,Win32,60.08171113,,,,,,,,,,,,,,,,,,,,,,
,0,j,1,0.8487,5,1,21,3,1,j.PNG,j,610421096c1af729ade5aac1,2021-09-09_10h28.23.401,forced_choiceRT,2021.1.2,Win32,60.08171113,,,,,,,,,,,,,,,,,,,,,,
,0,g,1,0.7009,5,2,22,1,1,g.PNG,g,610421096c1af729ade5aac1,2021-09-09_10h28.23.401,forced_choiceRT,2021.1.2,Win32,60.08171113,,,,,,,,,,,,,,,,,,,,,,
,0,f,1,0.6563,5,3,23,0,1,f.PNG,f,610421096c1af729ade5aac1,2021-09-09_10h28.23.401,forced_choiceRT,2021.1.2,Win32,60.08171113,,,,,,,,,,,,,,,,,,,,,,
,0,f,1,0.5671,6,0,24,0,1,f.PNG,f,610421096c1af729ade5aac1,2021-09-09_10h28.23.401,forced_choiceRT,2021.1.2,Win32,60.08171113,,,,,,,,,,,,,,,,,,,,,,
,0,h,0,0.7105,6,1,25,1,1,g.PNG,g,610421096c1af729ade5aac1,2021-09-09_10h28.23.401,forced_choiceRT,2021.1.2,Win32,60.08171113,,,,,,,,,,,,,,,,,,,,,,
,0,g,1,0.4744,6,2,26,1,1,g.PNG,g,610421096c1af729ade5aac1,2021-09-09_10h28.23.401,forced_choiceRT,2021.1.2,Win32,60.08171113,,,,,,,,,,,,,,,,,,,,,,
,0,h,1,0.4857,6,3,27,2,1,h.PNG,h,610421096c1af729ade5aac1,2021-09-09_10h28.23.401,forced_choiceRT,2021.1.2,Win32,60.08171113,,,,,,,,,,,,,,,,,,,,,,
,0,j,1,0.6038,7,0,28,3,1,j.PNG,j,610421096c1af729ade5aac1,2021-09-09_10h28.23.401,forced_choiceRT,2021.1.2,Win32,60.08171113,,,,,,,,,,,,,,,,,,,,,,
,0,f,1,0.6734,7,1,29,0,1,f.PNG,f,610421096c1af729ade5aac1,2021-09-09_10h28.23.401,forced_choiceRT,2021.1.2,Win32,60.08171113,,,,,,,,,,,,,,,,,,,,,,
,0,f,1,0.7902,7,2,30,0,1,f.PNG,f,610421096c1af729ade5aac1,2021-09-09_10h28.23.401,forced_choiceRT,2021.1.2,Win32,60.08171113,,,,,,,,,,,,,,,,,,,,,,
,0,g,1,0.6805,7,3,31,1,1,g.PNG,g,610421096c1af729ade5aac1,2021-09-09_10h28.23.401,forced_choiceRT,2021.1.2,Win32,60.08171113,,,,,,,,,,,,,,,,,,,,,,
,0,h,1,0.602,8,0,32,2,1,h.PNG,h,610421096c1af729ade5aac1,2021-09-09_10h28.23.401,forced_choiceRT,2021.1.2,Win32,60.08171113,,,,,,,,,,,,,,,,,,,,,,
,0,f,1,0.737,8,1,33,0,1,f.PNG,f,610421096c1af729ade5aac1,2021-09-09_10h28.23.401,forced_choiceRT,2021.1.2,Win32,60.08171113,,,,,,,,,,,,,,,,,,,,,,
,0,j,1,0.6914,8,2,34,3,1,j.PNG,j,610421096c1af729ade5aac1,2021-09-09_10h28.23.401,forced_choiceRT,2021.1.2,Win32,60.08171113,,,,,,,,,,,,,,,,,,,,,,
,0,f,1,1.0673,8,3,35,0,1,f.PNG,f,610421096c1af729ade5aac1,2021-09-09_10h28.23.401,forced_choiceRT,2021.1.2,Win32,60.08171113,,,,,,,,,,,,,,,,,,,,,,
,0,g,1,0.692,9,0,36,1,1,g.PNG,g,610421096c1af729ade5aac1,2021-09-09_10h28.23.401,forced_choiceRT,2021.1.2,Win32,60.08171113,,,,,,,,,,,,,,,,,,,,,,
,0,j,1,0.6167,9,1,37,3,1,j.PNG,j,610421096c1af729ade5aac1,2021-09-09_10h28.23.401,forced_choiceRT,2021.1.2,Win32,60.08171113,,,,,,,,,,,,,,,,,,,,,,
,0,j,0,0.9037,9,2,38,2,1,h.PNG,h,610421096c1af729ade5aac1,2021-09-09_10h28.23.401,forced_choiceRT,2021.1.2,Win32,60.08171113,,,,,,,,,,,,,,,,,,,,,,
,0,j,1,0.7262,9,3,39,3,1,j.PNG,j,610421096c1af729ade5aac1,2021-09-09_10h28.23.401,forced_choiceRT,2021.1.2,Win32,60.08171113,,,,,,,,,,,,,,,,,,,,,,
,0,g,1,2.2488,10,0,40,1,1,g.PNG,g,610421096c1af729ade5aac1,2021-09-09_10h28.23.401,forced_choiceRT,2021.1.2,Win32,60.08171113,,,,,,,,,,,,,,,,,,,,,,
,0,j,1,1.7115,10,1,41,3,1,j.PNG,j,610421096c1af729ade5aac1,2021-09-09_10h28.23.401,forced_choiceRT,2021.1.2,Win32,60.08171113,,,,,,,,,,,,,,,,,,,,,,
,0,g,1,1.3854,10,2,42,1,1,g.PNG,g,610421096c1af729ade5aac1,2021-09-09_10h28.23.401,forced_choiceRT,2021.1.2,Win32,60.08171113,,,,,,,,,,,,,,,,,,,,,,
,0,g,1,1.4024,10,3,43,1,1,g.PNG,g,610421096c1af729ade5aac1,2021-09-09_10h28.23.401,forced_choiceRT,2021.1.2,Win32,60.08171113,,,,,,,,,,,,,,,,,,,,,,
,0,j,0,4.1065,11,0,44,2,1,h.PNG,h,610421096c1af729ade5aac1,2021-09-09_10h28.23.401,forced_choiceRT,2021.1.2,Win32,60.08171113,,,,,,,,,,,,,,,,,,,,,,
,0,j,1,1.8211,11,1,45,3,1,j.PNG,j,610421096c1af729ade5aac1,2021-09-09_10h28.23.401,forced_choiceRT,2021.1.2,Win32,60.08171113,,,,,,,,,,,,,,,,,,,,,,
,0,f,0,0.8688,11,2,46,1,1,g.PNG,g,610421096c1af729ade5aac1,2021-09-09_10h28.23.401,forced_choiceRT,2021.1.2,Win32,60.08171113,,,,,,,,,,,,,,,,,,,,,,
,0,h,1,1.0346,11,3,47,2,1,h.PNG,h,610421096c1af729ade5aac1,2021-09-09_10h28.23.401,forced_choiceRT,2021.1.2,Win32,60.08171113,,,,,,,,,,,,,,,,,,,,,,
,0,j,1,0.6082,12,0,48,3,1,j.PNG,j,610421096c1af729ade5aac1,2021-09-09_10h28.23.401,forced_choiceRT,2021.1.2,Win32,60.08171113,,,,,,,,,,,,,,,,,,,,,,
,0,h,1,0.6879,12,1,49,2,1,h.PNG,h,610421096c1af729ade5aac1,2021-09-09_10h28.23.401,forced_choiceRT,2021.1.2,Win32,60.08171113,,,,,,,,,,,,,,,,,,,,,,
,0,h,1,0.6035,12,2,50,2,1,h.PNG,h,610421096c1af729ade5aac1,2021-09-09_10h28.23.401,forced_choiceRT,2021.1.2,Win32,60.08171113,,,,,,,,,,,,,,,,,,,,,,
,0,j,1,0.6428,12,3,51,3,1,j.PNG,j,610421096c1af729ade5aac1,2021-09-09_10h28.23.401,forced_choiceRT,2021.1.2,Win32,60.08171113,,,,,,,,,,,,,,,,,,,,,,
,0,h,1,0.6752,13,0,52,2,1,h.PNG,h,610421096c1af729ade5aac1,2021-09-09_10h28.23.401,forced_choiceRT,2021.1.2,Win32,60.08171113,,,,,,,,,,,,,,,,,,,,,,
,0,j,1,0.7166,13,1,53,3,1,j.PNG,j,610421096c1af729ade5aac1,2021-09-09_10h28.23.401,forced_choiceRT,2021.1.2,Win32,60.08171113,,,,,,,,,,,,,,,,,,,,,,
,0,h,1,0.7387,13,2,54,2,1,h.PNG,h,610421096c1af729ade5aac1,2021-09-09_10h28.23.401,forced_choiceRT,2021.1.2,Win32,60.08171113,,,,,,,,,,,,,,,,,,,,,,
,0,f,1,2.002,13,3,55,0,1,f.PNG,f,610421096c1af729ade5aac1,2021-09-09_10h28.23.401,forced_choiceRT,2021.1.2,Win32,60.08171113,,,,,,,,,,,,,,,,,,,,,,
,0,f,1,0.8363,14,0,56,0,1,f.PNG,f,610421096c1af729ade5aac1,2021-09-09_10h28.23.401,forced_choiceRT,2021.1.2,Win32,60.08171113,,,,,,,,,,,,,,,,,,,,,,
,0,j,1,0.7194,14,1,57,3,1,j.PNG,j,610421096c1af729ade5aac1,2021-09-09_10h28.23.401,forced_choiceRT,2021.1.2,Win32,60.08171113,,,,,,,,,,,,,,,,,,,,,,
,0,h,1,1.2103,14,2,58,2,1,h.PNG,h,610421096c1af729ade5aac1,2021-09-09_10h28.23.401,forced_choiceRT,2021.1.2,Win32,60.08171113,,,,,,,,,,,,,,,,,,,,,,
,0,f,1,0.6826,14,3,59,0,1,f.PNG,f,610421096c1af729ade5aac1,2021-09-09_10h28.23.401,forced_choiceRT,2021.1.2,Win32,60.08171113,,,,,,,,,,,,,,,,,,,,,,
,,,,,,,,,,,,610421096c1af729ade5aac1,2021-09-09_10h28.23.401,forced_choiceRT,2021.1.2,Win32,60.08171113,f,2.3668,0,0,0,0,1,,,,,,,,,,,,,,,
,,,,,,,,,,,,610421096c1af729ade5aac1,2021-09-09_10h28.23.401,forced_choiceRT,2021.1.2,Win32,60.08171113,f,2.234,1,0,1,0,1,,,,,,,,,,,,,,,
,,,,,,,,,,,,610421096c1af729ade5aac1,2021-09-09_10h28.23.401,forced_choiceRT,2021.1.2,Win32,60.08171113,f,1.9185,2,0,2,0,1,,,,,,,,,,,,,,,
,,,,,,,,,,,,610421096c1af729ade5aac1,2021-09-09_10h28.23.401,forced_choiceRT,2021.1.2,Win32,60.08171113,f,2.0746,3,0,3,0,1,,,,,,,,,,,,,,,
,,,,,,,,,,,,610421096c1af729ade5aac1,2021-09-09_10h28.23.401,forced_choiceRT,2021.1.2,Win32,60.08171113,f,1.9839,4,0,4,0,1,,,,,,,,,,,,,,,
,,,,,,,,,,,,610421096c1af729ade5aac1,2021-09-09_10h28.23.401,forced_choiceRT,2021.1.2,Win32,60.08171113,f,2.05,5,0,5,0,1,,,,,,,,,,,,,,,
,,,,,,,,,,,,610421096c1af729ade5aac1,2021-09-09_10h28.23.401,forced_choiceRT,2021.1.2,Win32,60.08171113,f,2.14,6,0,6,0,1,,,,,,,,,,,,,,,
,,,,,,,,,,,,610421096c1af729ade5aac1,2021-09-09_10h28.23.401,forced_choiceRT,2021.1.2,Win32,60.08171113,f,2.0581,7,0,7,0,1,,,,,,,,,,,,,,,
,,,,,,,,,,,,610421096c1af729ade5aac1,2021-09-09_10h28.23.401,forced_choiceRT,2021.1.2,Win32,60.08171113,f,2.0362,8,0,8,0,1,,,,,,,,,,,,,,,
,,,,,,,,,,,,610421096c1af729ade5aac1,2021-09-09_10h28.23.401,forced_choiceRT,2021.1.2,Win32,60.08171113,f,2.0982,9,0,9,0,1,,,,,,,,,,,,,,,
,,,,,,,,,,,,610421096c1af729ade5aac1,2021-09-09_10h28.23.401,forced_choiceRT,2021.1.2,Win32,60.08171113,f,1.9202,10,0,10,0,1,,,,,,,,,,,,,,,
,,,,,,,,,,,,610421096c1af729ade5aac1,2021-09-09_10h28.23.401,forced_choiceRT,2021.1.2,Win32,60.08171113,f,2.0181,11,0,11,0,1,,,,,,,,,,,,,,,
,,,,,,,,,,,,610421096c1af729ade5aac1,2021-09-09_10h28.23.401,forced_choiceRT,2021.1.2,Win32,60.08171113,f,2.0841,12,0,12,0,1,,,,,,,,,,,,,,,
,,,,,,,,,,,,610421096c1af729ade5aac1,2021-09-09_10h28.23.401,forced_choiceRT,2021.1.2,Win32,60.08171113,f,2.0584,13,0,13,0,1,,,,,,,,,,,,,,,
,,,,,,,,,,,,610421096c1af729ade5aac1,2021-09-09_10h28.23.401,forced_choiceRT,2021.1.2,Win32,60.08171113,f,2.0202,14,0,14,0,1,,,,,,,,,,,,,,,
,,,,,,,,,,,,610421096c1af729ade5aac1,2021-09-09_10h28.23.401,forced_choiceRT,2021.1.2,Win32,60.08171113,f,2.1319,15,0,15,0,1,,,,,,,,,,,,,,,
,,,,,,,,,,,,610421096c1af729ade5aac1,2021-09-09_10h28.23.401,forced_choiceRT,2021.1.2,Win32,60.08171113,f,2.0377,16,0,16,0,1,,,,,,,,,,,,,,,
,,,,,,,,,,,,610421096c1af729ade5aac1,2021-09-09_10h28.23.401,forced_choiceRT,2021.1.2,Win32,60.08171113,f,2.124,17,0,17,0,1,,,,,,,,,,,,,,,
,,,,,,,,,,,,610421096c1af729ade5aac1,2021-09-09_10h28.23.401,forced_choiceRT,2021.1.2,Win32,60.08171113,f,2.1135,18,0,18,0,1,,,,,,,,,,,,,,,
,,,,,,,,,,,,610421096c1af729ade5aac1,2021-09-09_10h28.23.401,forced_choiceRT,2021.1.2,Win32,60.08171113,f,1.9881,19,0,19,0,1,,,,,,,,,,,,,,,
,0.89,,,,,,,,,j.PNG,j,610421096c1af729ade5aac1,2021-09-09_10h28.23.401,forced_choiceRT,2021.1.2,Win32,60.08171113,,,,,,,,1,Slow,j,1,5.3433,0,0,0,3,1,,,,,
,0.89,,,,,,,,,f.PNG,f,610421096c1af729ade5aac1,2021-09-09_10h28.23.401,forced_choiceRT,2021.1.2,Win32,60.08171113,,,,,,,,1,Slow,f,1,8.0736,0,1,1,0,1,,,,,
,0.9,,,,,,,,,j.PNG,j,610421096c1af729ade5aac1,2021-09-09_10h28.23.401,forced_choiceRT,2021.1.2,Win32,60.08171113,,,,,,,,1,Slow,j,1,2.1096,0,2,2,3,1,,,,,
,1.59,,,,,,,,,g.PNG,g,610421096c1af729ade5aac1,2021-09-09_10h28.23.401,forced_choiceRT,2021.1.2,Win32,60.08171113,,,,,,,,1,Slow,h,0,2.1905,0,3,3,1,1,,,,,
,0.63,,,,,,,,,f.PNG,f,610421096c1af729ade5aac1,2021-09-09_10h28.23.401,forced_choiceRT,2021.1.2,Win32,60.08171113,,,,,,,,1,Slow,f,1,2.1045,1,0,4,0,1,,,,,
,1.4,,,,,,,,,j.PNG,j,610421096c1af729ade5aac1,2021-09-09_10h28.23.401,forced_choiceRT,2021.1.2,Win32,60.08171113,,,,,,,,1,Slow,j,1,2.1645,1,1,5,3,1,,,,,
,1.85,,,,,,,,,j.PNG,j,610421096c1af729ade5aac1,2021-09-09_10h28.23.401,forced_choiceRT,2021.1.2,Win32,60.08171113,,,,,,,,1,Slow,g,0,2.3412,1,2,6,3,1,,,,,
,0.54,,,,,,,,,j.PNG,j,610421096c1af729ade5aac1,2021-09-09_10h28.23.401,forced_choiceRT,2021.1.2,Win32,60.08171113,,,,,,,,1,Ontime,j,1,2.0076,1,3,7,3,1,,,,,
,0.49,,,,,,,,,j.PNG,j,610421096c1af729ade5aac1,2021-09-09_10h28.23.401,forced_choiceRT,2021.1.2,Win32,60.08171113,,,,,,,,1,Ontime,j,1,2.0306,2,0,8,3,1,,,,,
,0.6,,,,,,,,,g.PNG,g,610421096c1af729ade5aac1,2021-09-09_10h28.23.401,forced_choiceRT,2021.1.2,Win32,60.08171113,,,,,,,,1,Ontime,g,1,1.9979,2,1,9,1,1,,,,,
,0.63,,,,,,,,,f.PNG,f,610421096c1af729ade5aac1,2021-09-09_10h28.23.401,forced_choiceRT,2021.1.2,Win32,60.08171113,,,,,,,,1,Ontime,f,1,2.0448,2,2,10,0,1,,,,,
,0.53,,,,,,,,,f.PNG,f,610421096c1af729ade5aac1,2021-09-09_10h28.23.401,forced_choiceRT,2021.1.2,Win32,60.08171113,,,,,,,,1,Ontime,f,1,2.0342,2,3,11,0,1,,,,,
,1.11,,,,,,,,,g.PNG,g,610421096c1af729ade5aac1,2021-09-09_10h28.23.401,forced_choiceRT,2021.1.2,Win32,60.08171113,,,,,,,,1,Slow,f,0,2.1527,3,0,12,1,1,,,,,
,0.85,,,,,,,,,h.PNG,h,610421096c1af729ade5aac1,2021-09-09_10h28.23.401,forced_choiceRT,2021.1.2,Win32,60.08171113,,,,,,,,1,Ontime,h,1,2.0582,3,1,13,2,1,,,,,
,0.7,,,,,,,,,j.PNG,j,610421096c1af729ade5aac1,2021-09-09_10h28.23.401,forced_choiceRT,2021.1.2,Win32,60.08171113,,,,,,,,1,Ontime,j,1,2.0954,3,2,14,3,1,,,,,
,1.01,,,,,,,,,g.PNG,g,610421096c1af729ade5aac1,2021-09-09_10h28.23.401,forced_choiceRT,2021.1.2,Win32,60.08171113,,,,,,,,1,Slow,h,0,2.1356,3,3,15,1,1,,,,,
,0.54,,,,,,,,,h.PNG,h,610421096c1af729ade5aac1,2021-09-09_10h28.23.401,forced_choiceRT,2021.1.2,Win32,60.08171113,,,,,,,,1,Ontime,j,0,2.0034,4,0,16,2,1,,,,,
,1.1,,,,,,,,,f.PNG,f,610421096c1af729ade5aac1,2021-09-09_10h28.23.401,forced_choiceRT,2021.1.2,Win32,60.08171113,,,,,,,,1,Ontime,f,1,2.0916,4,1,17,0,1,,,,,
,0.68,,,,,,,,,g.PNG,g,610421096c1af729ade5aac1,2021-09-09_10h28.23.401,forced_choiceRT,2021.1.2,Win32,60.08171113,,,,,,,,1,Ontime,g,1,2.0403,4,2,18,1,1,,,,,
,1.34,,,,,,,,,g.PNG,g,610421096c1af729ade5aac1,2021-09-09_10h28.23.401,forced_choiceRT,2021.1.2,Win32,60.08171113,,,,,,,,1,Ontime,h,0,2.0879,4,3,19,1,1,,,,,
,0.41,,,,,,,,,g.PNG,g,610421096c1af729ade5aac1,2021-09-09_10h28.23.401,forced_choiceRT,2021.1.2,Win32,60.08171113,,,,,,,,1,Slow,g,1,2.1304,5,0,20,1,1,,,,,
,1.34,,,,,,,,,j.PNG,j,610421096c1af729ade5aac1,2021-09-09_10h28.23.401,forced_choiceRT,2021.1.2,Win32,60.08171113,,,,,,,,1,Slow,j,1,2.1324,5,1,21,3,1,,,,,
,0.79,,,,,,,,,h.PNG,h,610421096c1af729ade5aac1,2021-09-09_10h28.23.401,forced_choiceRT,2021.1.2,Win32,60.08171113,,,,,,,,1,Ontime,h,1,2.0547,5,2,22,2,1,,,,,
,1.07,,,,,,,,,g.PNG,g,610421096c1af729ade5aac1,2021-09-09_10h28.23.401,forced_choiceRT,2021.1.2,Win32,60.08171113,,,,,,,,1,Ontime,g,1,2.0039,5,3,23,1,1,,,,,
,1.8,,,,,,,,,h.PNG,h,610421096c1af729ade5aac1,2021-09-09_10h28.23.401,forced_choiceRT,2021.1.2,Win32,60.08171113,,,,,,,,1,Slow,j,0,2.1812,6,0,24,2,1,,,,,
,1.47,,,,,,,,,f.PNG,f,610421096c1af729ade5aac1,2021-09-09_10h28.23.401,forced_choiceRT,2021.1.2,Win32,60.08171113,,,,,,,,1,Ontime,f,1,1.9556,6,1,25,0,1,,,,,
,1.09,,,,,,,,,j.PNG,j,610421096c1af729ade5aac1,2021-09-09_10h28.23.401,forced_choiceRT,2021.1.2,Win32,60.08171113,,,,,,,,1,Ontime,j,1,2.0534,6,2,26,3,1,,,,,
,1.98,,,,,,,,,h.PNG,h,610421096c1af729ade5aac1,2021-09-09_10h28.23.401,forced_choiceRT,2021.1.2,Win32,60.08171113,,,,,,,,1,Slow,h,1,2.3016,6,3,27,2,1,,,,,
,1.47,,,,,,,,,f.PNG,f,610421096c1af729ade5aac1,2021-09-09_10h28.23.401,forced_choiceRT,2021.1.2,Win32,60.08171113,,,,,,,,1,Ontime,g,0,2.0593,7,0,28,0,1,,,,,
,1.8,,,,,,,,,f.PNG,f,610421096c1af729ade5aac1,2021-09-09_10h28.23.401,forced_choiceRT,2021.1.2,Win32,60.08171113,,,,,,,,1,Slow,h,0,2.1853,7,1,29,0,1,,,,,
,0.15,,,,,,,,,j.PNG,j,610421096c1af729ade5aac1,2021-09-09_10h28.23.401,forced_choiceRT,2021.1.2,Win32,60.08171113,,,,,,,,1,Ontime,j,1,2.0344,7,2,30,3,1,,,,,
,0.33,,,,,,,,,h.PNG,h,610421096c1af729ade5aac1,2021-09-09_10h28.23.401,forced_choiceRT,2021.1.2,Win32,60.08171113,,,,,,,,1,Ontime,h,1,2.0086,7,3,31,2,1,,,,,
,1.15,,,,,,,,,h.PNG,h,610421096c1af729ade5aac1,2021-09-09_10h28.23.401,forced_choiceRT,2021.1.2,Win32,60.08171113,,,,,,,,1,Ontime,h,1,2.072,8,0,32,2,1,,,,,
,1.3,,,,,,,,,f.PNG,f,610421096c1af729ade5aac1,2021-09-09_10h28.23.401,forced_choiceRT,2021.1.2,Win32,60.08171113,,,,,,,,1,Ontime,f,1,2.0674,8,1,33,0,1,,,,,
,0.31,,,,,,,,,g.PNG,g,610421096c1af729ade5aac1,2021-09-09_10h28.23.401,forced_choiceRT,2021.1.2,Win32,60.08171113,,,,,,,,1,Ontime,g,1,2.0995,8,2,34,1,1,,,,,
,1.17,,,,,,,,,g.PNG,g,610421096c1af729ade5aac1,2021-09-09_10h28.23.401,forced_choiceRT,2021.1.2,Win32,60.08171113,,,,,,,,1,Ontime,g,1,2.0038,8,3,35,1,1,,,,,
,1.61,,,,,,,,,h.PNG,h,610421096c1af729ade5aac1,2021-09-09_10h28.23.401,forced_choiceRT,2021.1.2,Win32,60.08171113,,,,,,,,1,Slow,h,1,2.1174,9,0,36,2,1,,,,,
,1.21,,,,,,,,,f.PNG,f,610421096c1af729ade5aac1,2021-09-09_10h28.23.401,forced_choiceRT,2021.1.2,Win32,60.08171113,,,,,,,,1,Slow,f,1,2.1501,9,1,37,0,1,,,,,
,1.8,,,,,,,,,h.PNG,h,610421096c1af729ade5aac1,2021-09-09_10h28.23.401,forced_choiceRT,2021.1.2,Win32,60.08171113,,,,,,,,1,Slow,g,0,2.2071,9,2,38,2,1,,,,,
,1.24,,,,,,,,,h.PNG,h,610421096c1af729ade5aac1,2021-09-09_10h28.23.401,forced_choiceRT,2021.1.2,Win32,60.08171113,,,,,,,,1,Ontime,h,1,1.9317,9,3,39,2,1,,,,,
,,,,,,,,,,,,610421096c1af729ade5aac1,2021-09-09_10h28.23.401,forced_choiceRT,2021.1.2,Win32,60.08171113,,,,,,,,,,,,,,,,,,0,0,0,0,1
,0.31,,,,,,,,,h.PNG,h,610421096c1af729ade5aac1,2021-09-09_10h28.23.401,forced_choiceRT,2021.1.2,Win32,60.08171113,,,,,,,,2,Slow,h,1,2.2306,0,0,0,2,1,,,,,
,1.78,,,,,,,,,j.PNG,j,610421096c1af729ade5aac1,2021-09-09_10h28.23.401,forced_choiceRT,2021.1.2,Win32,60.08171113,,,,,,,,2,Slow,h,0,2.1516,0,1,1,3,1,,,,,
,1.25,,,,,,,,,f.PNG,f,610421096c1af729ade5aac1,2021-09-09_10h28.23.401,forced_choiceRT,2021.1.2,Win32,60.08171113,,,,,,,,2,Ontime,f,1,2.0969,0,2,2,0,1,,,,,
,1.33,,,,,,,,,j.PNG,j,610421096c1af729ade5aac1,2021-09-09_10h28.23.401,forced_choiceRT,2021.1.2,Win32,60.08171113,,,,,,,,2,Ontime,j,1,1.9977,0,3,3,3,1,,,,,
,0.73,,,,,,,,,j.PNG,j,610421096c1af729ade5aac1,2021-09-09_10h28.23.401,forced_choiceRT,2021.1.2,Win32,60.08171113,,,,,,,,2,Ontime,j,1,1.9479,1,0,4,3,1,,,,,
,0.89,,,,,,,,,j.PNG,j,610421096c1af729ade5aac1,2021-09-09_10h28.23.401,forced_choiceRT,2021.1.2,Win32,60.08171113,,,,,,,,2,Ontime,j,1,1.9661,1,1,5,3,1,,,,,
,1.48,,,,,,,,,g.PNG,g,610421096c1af729ade5aac1,2021-09-09_10h28.23.401,forced_choiceRT,2021.1.2,Win32,60.08171113,,,,,,,,2,Slow,j,0,2.1506,1,2,6,1,1,,,,,
,0.94,,,,,,,,,g.PNG,g,610421096c1af729ade5aac1,2021-09-09_10h28.23.401,forced_choiceRT,2021.1.2,Win32,60.08171113,,,,,,,,2,Ontime,g,1,1.9582,1,3,7,1,1,,,,,
,1.44,,,,,,,,,f.PNG,f,610421096c1af729ade5aac1,2021-09-09_10h28.23.401,forced_choiceRT,2021.1.2,Win32,60.08171113,,,,,,,,2,Ontime,f,1,1.9563,2,0,8,0,1,,,,,
,0.17,,,,,,,,,h.PNG,h,610421096c1af729ade5aac1,2021-09-09_10h28.23.401,forced_choiceRT,2021.1.2,Win32,60.08171113,,,,,,,,2,Ontime,h,1,2.0469,2,1,9,2,1,,,,,
,0.52,,,,,,,,,g.PNG,g,610421096c1af729ade5aac1,2021-09-09_10h28.23.401,forced_choiceRT,2021.1.2,Win32,60.08171113,,,,,,,,2,Ontime,g,1,1.9891,2,2,10,1,1,,,,,
,0.07,,,,,,,,,j.PNG,j,610421096c1af729ade5aac1,2021-09-09_10h28.23.401,forced_choiceRT,2021.1.2,Win32,60.08171113,,,,,,,,2,Ontime,j,1,1.9752,2,3,11,3,1,,,,,
,0.53,,,,,,,,,f.PNG,f,610421096c1af729ade5aac1,2021-09-09_10h28.23.401,forced_choiceRT,2021.1.2,Win32,60.08171113,,,,,,,,2,Ontime,f,1,2.0474,3,0,12,0,1,,,,,
,0.87,,,,,,,,,j.PNG,j,610421096c1af729ade5aac1,2021-09-09_10h28.23.401,forced_choiceRT,2021.1.2,Win32,60.08171113,,,,,,,,2,Ontime,j,1,1.9554,3,1,13,3,1,,,,,
,0.94,,,,,,,,,f.PNG,f,610421096c1af729ade5aac1,2021-09-09_10h28.23.401,forced_choiceRT,2021.1.2,Win32,60.08171113,,,,,,,,2,Ontime,f,1,1.9985,3,2,14,0,1,,,,,
,1.71,,,,,,,,,g.PNG,g,610421096c1af729ade5aac1,2021-09-09_10h28.23.401,forced_choiceRT,2021.1.2,Win32,60.08171113,,,,,,,,2,Slow,h,0,2.3364,3,3,15,1,1,,,,,
,1.38,,,,,,,,,f.PNG,f,610421096c1af729ade5aac1,2021-09-09_10h28.23.401,forced_choiceRT,2021.1.2,Win32,60.08171113,,,,,,,,2,Ontime,f,1,2.0702,4,0,16,0,1,,,,,
,1.3,,,,,,,,,g.PNG,g,610421096c1af729ade5aac1,2021-09-09_10h28.23.401,forced_choiceRT,2021.1.2,Win32,60.08171113,,,,,,,,2,Slow,g,1,2.1078,4,1,17,1,1,,,,,
,0.16,,,,,,,,,h.PNG,h,610421096c1af729ade5aac1,2021-09-09_10h28.23.401,forced_choiceRT,2021.1.2,Win32,60.08171113,,,,,,,,2,Ontime,h,1,2.0308,4,2,18,2,1,,,,,
,1.58,,,,,,,,,g.PNG,g,610421096c1af729ade5aac1,2021-09-09_10h28.23.401,forced_choiceRT,2021.1.2,Win32,60.08171113,,,,,,,,2,Ontime,g,1,2.009,4,3,19,1,1,,,,,
,1.64,,,,,,,,,j.PNG,j,610421096c1af729ade5aac1,2021-09-09_10h28.23.401,forced_choiceRT,2021.1.2,Win32,60.08171113,,,,,,,,2,Ontime,g,0,2.0396,5,0,20,3,1,,,,,
,1.05,,,,,,,,,j.PNG,j,610421096c1af729ade5aac1,2021-09-09_10h28.23.401,forced_choiceRT,2021.1.2,Win32,60.08171113,,,,,,,,2,Ontime,j,1,2.0389,5,1,21,3,1,,,,,
,0.31,,,,,,,,,f.PNG,f,610421096c1af729ade5aac1,2021-09-09_10h28.23.401,forced_choiceRT,2021.1.2,Win32,60.08171113,,,,,,,,2,Ontime,f,1,2.038,5,2,22,0,1,,,,,
,1.64,,,,,,,,,h.PNG,h,610421096c1af729ade5aac1,2021-09-09_10h28.23.401,forced_choiceRT,2021.1.2,Win32,60.08171113,,,,,,,,2,Slow,j,0,2.1895,5,3,23,2,1,,,,,
,0.86,,,,,,,,,h.PNG,h,610421096c1af729ade5aac1,2021-09-09_10h28.23.401,forced_choiceRT,2021.1.2,Win32,60.08171113,,,,,,,,2,Fast,h,1,1.8692,6,0,24,2,1,,,,,
,0.61,,,,,,,,,j.PNG,j,610421096c1af729ade5aac1,2021-09-09_10h28.23.401,forced_choiceRT,2021.1.2,Win32,60.08171113,,,,,,,,2,Ontime,j,1,2.0018,6,1,25,3,1,,,,,
,1.34,,,,,,,,,g.PNG,g,610421096c1af729ade5aac1,2021-09-09_10h28.23.401,forced_choiceRT,2021.1.2,Win32,60.08171113,,,,,,,,2,Ontime,g,1,2.0841,6,2,26,1,1,,,,,
,1.15,,,,,,,,,h.PNG,h,610421096c1af729ade5aac1,2021-09-09_10h28.23.401,forced_choiceRT,2021.1.2,Win32,60.08171113,,,,,,,,2,Ontime,h,1,2.0047,6,3,27,2,1,,,,,
,0.99,,,,,,,,,g.PNG,g,610421096c1af729ade5aac1,2021-09-09_10h28.23.401,forced_choiceRT,2021.1.2,Win32,60.08171113,,,,,,,,2,Slow,g,1,2.1337,7,0,28,1,1,,,,,
,1.92,,,,,,,,,g.PNG,g,610421096c1af729ade5aac1,2021-09-09_10h28.23.401,forced_choiceRT,2021.1.2,Win32,60.08171113,,,,,,,,2,Slow,g,1,2.2808,7,1,29,1,1,,,,,
,1.65,,,,,,,,,h.PNG,h,610421096c1af729ade5aac1,2021-09-09_10h28.23.401,forced_choiceRT,2021.1.2,Win32,60.08171113,,,,,,,,2,Slow,g,0,2.13,7,2,30,2,1,,,,,
,1.11,,,,,,,,,f.PNG,f,610421096c1af729ade5aac1,2021-09-09_10h28.23.401,forced_choiceRT,2021.1.2,Win32,60.08171113,,,,,,,,2,Fast,f,1,1.7002,7,3,31,0,1,,,,,
,1.07,,,,,,,,,f.PNG,f,610421096c1af729ade5aac1,2021-09-09_10h28.23.401,forced_choiceRT,2021.1.2,Win32,60.08171113,,,,,,,,2,Fast,f,1,1.7493,8,0,32,0,1,,,,,
,1.94,,,,,,,,,h.PNG,h,610421096c1af729ade5aac1,2021-09-09_10h28.23.401,forced_choiceRT,2021.1.2,Win32,60.08171113,,,,,,,,2,Slow,g,0,2.3342,8,1,33,2,1,,,,,
,1.87,,,,,,,,,f.PNG,f,610421096c1af729ade5aac1,2021-09-09_10h28.23.401,forced_choiceRT,2021.1.2,Win32,60.08171113,,,,,,,,2,Slow,g,0,2.3061,8,2,34,0,1,,,,,
,0.89,,,,,,,,,g.PNG,g,610421096c1af729ade5aac1,2021-09-09_10h28.23.401,forced_choiceRT,2021.1.2,Win32,60.08171113,,,,,,,,2,Ontime,g,1,2.0068,8,3,35,1,1,,,,,
,0.99,,,,,,,,,h.PNG,h,610421096c1af729ade5aac1,2021-09-09_10h28.23.401,forced_choiceRT,2021.1.2,Win32,60.08171113,,,,,,,,2,Ontime,h,1,1.9493,9,0,36,2,1,,,,,
,1.73,,,,,,,,,j.PNG,j,610421096c1af729ade5aac1,2021-09-09_10h28.23.401,forced_choiceRT,2021.1.2,Win32,60.08171113,,,,,,,,2,Slow,g,0,2.1106,9,1,37,3,1,,,,,
,0.41,,,,,,,,,f.PNG,f,610421096c1af729ade5aac1,2021-09-09_10h28.23.401,forced_choiceRT,2021.1.2,Win32,60.08171113,,,,,,,,2,Slow,f,1,2.1471,9,2,38,0,1,,,,,
,1.65,,,,,,,,,h.PNG,h,610421096c1af729ade5aac1,2021-09-09_10h28.23.401,forced_choiceRT,2021.1.2,Win32,60.08171113,,,,,,,,2,Slow,j,0,2.3167,9,3,39,2,1,,,,,
,,,,,,,,,,,,610421096c1af729ade5aac1,2021-09-09_10h28.23.401,forced_choiceRT,2021.1.2,Win32,60.08171113,,,,,,,,,,,,,,,,,,1,0,1,0,1
,0.23,,,,,,,,,j.PNG,j,610421096c1af729ade5aac1,2021-09-09_10h28.23.401,forced_choiceRT,2021.1.2,Win32,60.08171113,,,,,,,,3,Ontime,j,1,2.0065,0,0,0,3,1,,,,,
,1.16,,,,,,,,,g.PNG,g,610421096c1af729ade5aac1,2021-09-09_10h28.23.401,forced_choiceRT,2021.1.2,Win32,60.08171113,,,,,,,,3,Ontime,g,1,1.9856,0,1,1,1,1,,,,,
,0.64,,,,,,,,,h.PNG,h,610421096c1af729ade5aac1,2021-09-09_10h28.23.401,forced_choiceRT,2021.1.2,Win32,60.08171113,,,,,,,,3,Fast,h,1,1.8658,0,2,2,2,1,,,,,
,0.4,,,,,,,,,g.PNG,g,610421096c1af729ade5aac1,2021-09-09_10h28.23.401,forced_choiceRT,2021.1.2,Win32,60.08171113,,,,,,,,3,Ontime,g,1,2.0118,0,3,3,1,1,,,,,
,0.47,,,,,,,,,h.PNG,h,610421096c1af729ade5aac1,2021-09-09_10h28.23.401,forced_choiceRT,2021.1.2,Win32,60.08171113,,,,,,,,3,Ontime,h,1,2.0673,1,0,4,2,1,,,,,
,1.58,,,,,,,,,h.PNG,h,610421096c1af729ade5aac1,2021-09-09_10h28.23.401,forced_choiceRT,2021.1.2,Win32,60.08171113,,,,,,,,3,Slow,h,1,2.1454,1,1,5,2,1,,,,,
,0.31,,,,,,,,,j.PNG,j,610421096c1af729ade5aac1,2021-09-09_10h28.23.401,forced_choiceRT,2021.1.2,Win32,60.08171113,,,,,,,,3,Ontime,j,1,2.0205,1,2,6,3,1,,,,,
,0.74,,,,,,,,,h.PNG,h,610421096c1af729ade5aac1,2021-09-09_10h28.23.401,forced_choiceRT,2021.1.2,Win32,60.08171113,,,,,,,,3,Ontime,j,0,2.0427,1,3,7,2,1,,,,,
,0.97,,,,,,,,,j.PNG,j,610421096c1af729ade5aac1,2021-09-09_10h28.23.401,forced_choiceRT,2021.1.2,Win32,60.08171113,,,,,,,,3,Ontime,j,1,1.9605,2,0,8,3,1,,,,,
,1.64,,,,,,,,,j.PNG,j,610421096c1af729ade5aac1,2021-09-09_10h28.23.401,forced_choiceRT,2021.1.2,Win32,60.08171113,,,,,,,,3,Slow,j,1,2.1223,2,1,9,3,1,,,,,
,1.82,,,,,,,,,j.PNG,j,610421096c1af729ade5aac1,2021-09-09_10h28.23.401,forced_choiceRT,2021.1.2,Win32,60.08171113,,,,,,,,3,Ontime,j,1,2.0763,2,2,10,3,1,,,,,
,1.01,,,,,,,,,f.PNG,f,610421096c1af729ade5aac1,2021-09-09_10h28.23.401,forced_choiceRT,2021.1.2,Win32,60.08171113,,,,,,,,3,Ontime,f,1,2.0424,2,3,11,0,1,,,,,
,1.34,,,,,,,,,g.PNG,g,610421096c1af729ade5aac1,2021-09-09_10h28.23.401,forced_choiceRT,2021.1.2,Win32,60.08171113,,,,,,,,3,Ontime,j,0,1.9848,3,0,12,1,1,,,,,
,1.8,,,,,,,,,g.PNG,g,610421096c1af729ade5aac1,2021-09-09_10h28.23.401,forced_choiceRT,2021.1.2,Win32,60.08171113,,,,,,,,3,Slow,g,1,2.2229,3,1,13,1,1,,,,,
,1.09,,,,,,,,,f.PNG,f,610421096c1af729ade5aac1,2021-09-09_10h28.23.401,forced_choiceRT,2021.1.2,Win32,60.08171113,,,,,,,,3,Slow,f,1,2.1415,3,2,14,0,1,,,,,
,0.9,,,,,,,,,f.PNG,f,610421096c1af729ade5aac1,2021-09-09_10h28.23.401,forced_choiceRT,2021.1.2,Win32,60.08171113,,,,,,,,3,Ontime,f,1,2.0602,3,3,15,0,1,,,,,
,0.9,,,,,,,,,f.PNG,f,610421096c1af729ade5aac1,2021-09-09_10h28.23.401,forced_choiceRT,2021.1.2,Win32,60.08171113,,,,,,,,3,Ontime,f,1,1.9954,4,0,16,0,1,,,,,
,1.05,,,,,,,,,h.PNG,h,610421096c1af729ade5aac1,2021-09-09_10h28.23.401,forced_choiceRT,2021.1.2,Win32,60.08171113,,,,,,,,3,Ontime,h,1,2.0025,4,1,17,2,1,,,,,
,0.03,,,,,,,,,h.PNG,h,610421096c1af729ade5aac1,2021-09-09_10h28.23.401,forced_choiceRT,2021.1.2,Win32,60.08171113,,,,,,,,3,Ontime,g,0,1.9809,4,2,18,2,1,,,,,
,1.49,,,,,,,,,j.PNG,j,610421096c1af729ade5aac1,2021-09-09_10h28.23.401,forced_choiceRT,2021.1.2,Win32,60.08171113,,,,,,,,3,Ontime,j,1,2.0873,4,3,19,3,1,,,,,
,0.81,,,,,,,,,g.PNG,g,610421096c1af729ade5aac1,2021-09-09_10h28.23.401,forced_choiceRT,2021.1.2,Win32,60.08171113,,,,,,,,3,Fast,g,1,1.8323,5,0,20,1,1,,,,,
,1.35,,,,,,,,,j.PNG,j,610421096c1af729ade5aac1,2021-09-09_10h28.23.401,forced_choiceRT,2021.1.2,Win32,60.08171113,,,,,,,,3,Fast,j,1,1.8944,5,1,21,3,1,,,,,
,1.12,,,,,,,,,g.PNG,g,610421096c1af729ade5aac1,2021-09-09_10h28.23.401,forced_choiceRT,2021.1.2,Win32,60.08171113,,,,,,,,3,Ontime,g,1,1.9932,5,2,22,1,1,,,,,
,0.95,,,,,,,,,g.PNG,g,610421096c1af729ade5aac1,2021-09-09_10h28.23.401,forced_choiceRT,2021.1.2,Win32,60.08171113,,,,,,,,3,Fast,g,1,1.8565,5,3,23,1,1,,,,,
,0.74,,,,,,,,,g.PNG,g,610421096c1af729ade5aac1,2021-09-09_10h28.23.401,forced_choiceRT,2021.1.2,Win32,60.08171113,,,,,,,,3,Ontime,g,1,2.0015,6,0,24,1,1,,,,,
,1.84,,,,,,,,,j.PNG,j,610421096c1af729ade5aac1,2021-09-09_10h28.23.401,forced_choiceRT,2021.1.2,Win32,60.08171113,,,,,,,,3,Slow,g,0,2.206,6,1,25,3,1,,,,,
,0.57,,,,,,,,,h.PNG,h,610421096c1af729ade5aac1,2021-09-09_10h28.23.401,forced_choiceRT,2021.1.2,Win32,60.08171113,,,,,,,,3,Ontime,g,0,1.9735,6,2,26,2,1,,,,,
,1.67,,,,,,,,,j.PNG,j,610421096c1af729ade5aac1,2021-09-09_10h28.23.401,forced_choiceRT,2021.1.2,Win32,60.08171113,,,,,,,,3,Slow,h,0,2.2099,6,3,27,3,1,,,,,
,0.7,,,,,,,,,h.PNG,h,610421096c1af729ade5aac1,2021-09-09_10h28.23.401,forced_choiceRT,2021.1.2,Win32,60.08171113,,,,,,,,3,Ontime,h,1,2.0117,7,0,28,2,1,,,,,
,0.09,,,,,,,,,f.PNG,f,610421096c1af729ade5aac1,2021-09-09_10h28.23.401,forced_choiceRT,2021.1.2,Win32,60.08171113,,,,,,,,3,Ontime,f,1,1.9211,7,1,29,0,1,,,,,
,1.56,,,,,,,,,g.PNG,g,610421096c1af729ade5aac1,2021-09-09_10h28.23.401,forced_choiceRT,2021.1.2,Win32,60.08171113,,,,,,,,3,Slow,h,0,2.2306,7,2,30,1,1,,,,,
,0.21,,,,,,,,,h.PNG,h,610421096c1af729ade5aac1,2021-09-09_10h28.23.401,forced_choiceRT,2021.1.2,Win32,60.08171113,,,,,,,,3,Ontime,h,1,2.0034,7,3,31,2,1,,,,,
,0.88,,,,,,,,,f.PNG,f,610421096c1af729ade5aac1,2021-09-09_10h28.23.401,forced_choiceRT,2021.1.2,Win32,60.08171113,,,,,,,,3,Ontime,f,1,2.0845,8,0,32,0,1,,,,,
,1.72,,,,,,,,,f.PNG,f,610421096c1af729ade5aac1,2021-09-09_10h28.23.401,forced_choiceRT,2021.1.2,Win32,60.08171113,,,,,,,,3,Slow,g,0,2.2487,8,1,33,0,1,,,,,
,1.08,,,,,,,,,f.PNG,f,610421096c1af729ade5aac1,2021-09-09_10h28.23.401,forced_choiceRT,2021.1.2,Win32,60.08171113,,,,,,,,3,Slow,f,1,2.1021,8,2,34,0,1,,,,,
,0.98,,,,,,,,,h.PNG,h,610421096c1af729ade5aac1,2021-09-09_10h28.23.401,forced_choiceRT,2021.1.2,Win32,60.08171113,,,,,,,,3,Slow,h,1,2.1358,8,3,35,2,1,,,,,
,1.59,,,,,,,,,j.PNG,j,610421096c1af729ade5aac1,2021-09-09_10h28.23.401,forced_choiceRT,2021.1.2,Win32,60.08171113,,,,,,,,3,Slow,j,1,2.3057,9,0,36,3,1,,,,,
,1.6,,,,,,,,,f.PNG,f,610421096c1af729ade5aac1,2021-09-09_10h28.23.401,forced_choiceRT,2021.1.2,Win32,60.08171113,,,,,,,,3,Slow,f,1,2.1251,9,1,37,0,1,,,,,
,0.4,,,,,,,,,g.PNG,g,610421096c1af729ade5aac1,2021-09-09_10h28.23.401,forced_choiceRT,2021.1.2,Win32,60.08171113,,,,,,,,3,Ontime,g,1,1.9685,9,2,38,1,1,,,,,
,1,,,,,,,,,f.PNG,f,610421096c1af729ade5aac1,2021-09-09_10h28.23.401,forced_choiceRT,2021.1.2,Win32,60.08171113,,,,,,,,3,Ontime,f,1,1.9817,9,3,39,0,1,,,,,
,,,,,,,,,,,,610421096c1af729ade5aac1,2021-09-09_10h28.23.401,forced_choiceRT,2021.1.2,Win32,60.08171113,,,,,,,,,,,,,,,,,,2,0,2,0,1
,0,,,,,,,,,j.PNG,j,610421096c1af729ade5aac1,2021-09-09_10h28.23.401,forced_choiceRT,2021.1.2,Win32,60.08171113,,,,,,,,4,Ontime,j,1,2.0686,0,0,0,3,1,,,,,
,1.92,,,,,,,,,f.PNG,f,610421096c1af729ade5aac1,2021-09-09_10h28.23.401,forced_choiceRT,2021.1.2,Win32,60.08171113,,,,,,,,4,Slow,f,1,2.2211,0,1,1,0,1,,,,,
,0.08,,,,,,,,,f.PNG,f,610421096c1af729ade5aac1,2021-09-09_10h28.23.401,forced_choiceRT,2021.1.2,Win32,60.08171113,,,,,,,,4,Ontime,f,1,2.0204,0,2,2,0,1,,,,,
,0.22,,,,,,,,,h.PNG,h,610421096c1af729ade5aac1,2021-09-09_10h28.23.401,forced_choiceRT,2021.1.2,Win32,60.08171113,,,,,,,,4,Ontime,h,1,2.0266,0,3,3,2,1,,,,,
,0.83,,,,,,,,,f.PNG,f,610421096c1af729ade5aac1,2021-09-09_10h28.23.401,forced_choiceRT,2021.1.2,Win32,60.08171113,,,,,,,,4,Ontime,f,1,1.931,1,0,4,0,1,,,,,
,0.88,,,,,,,,,j.PNG,j,610421096c1af729ade5aac1,2021-09-09_10h28.23.401,forced_choiceRT,2021.1.2,Win32,60.08171113,,,,,,,,4,Ontime,j,1,2.0839,1,1,5,3,1,,,,,
,0.7,,,,,,,,,j.PNG,j,610421096c1af729ade5aac1,2021-09-09_10h28.23.401,forced_choiceRT,2021.1.2,Win32,60.08171113,,,,,,,,4,Ontime,j,1,1.9799,1,2,6,3,1,,,,,
,1.81,,,,,,,,,g.PNG,g,610421096c1af729ade5aac1,2021-09-09_10h28.23.401,forced_choiceRT,2021.1.2,Win32,60.08171113,,,,,,,,4,Slow,j,0,2.2528,1,3,7,1,1,,,,,
,0.9,,,,,,,,,f.PNG,f,610421096c1af729ade5aac1,2021-09-09_10h28.23.401,forced_choiceRT,2021.1.2,Win32,60.08171113,,,,,,,,4,Ontime,f,1,2.0047,2,0,8,0,1,,,,,
,0.88,,,,,,,,,g.PNG,g,610421096c1af729ade5aac1,2021-09-09_10h28.23.401,forced_choiceRT,2021.1.2,Win32,60.08171113,,,,,,,,4,Slow,g,1,2.1004,2,1,9,1,1,,,,,
,0.37,,,,,,,,,j.PNG,j,610421096c1af729ade5aac1,2021-09-09_10h28.23.401,forced_choiceRT,2021.1.2,Win32,60.08171113,,,,,,,,4,Slow,g,0,7.3855,2,2,10,3,1,,,,,
,1.15,,,,,,,,,g.PNG,g,610421096c1af729ade5aac1,2021-09-09_10h28.23.401,forced_choiceRT,2021.1.2,Win32,60.08171113,,,,,,,,4,Slow,g,1,2.1287,2,3,11,1,1,,,,,
,1.84,,,,,,,,,h.PNG,h,610421096c1af729ade5aac1,2021-09-09_10h28.23.401,forced_choiceRT,2021.1.2,Win32,60.08171113,,,,,,,,4,Slow,g,0,2.17,3,0,12,2,1,,,,,
,1.08,,,,,,,,,g.PNG,g,610421096c1af729ade5aac1,2021-09-09_10h28.23.401,forced_choiceRT,2021.1.2,Win32,60.08171113,,,,,,,,4,Ontime,g,1,2.0844,3,1,13,1,1,,,,,
,1.08,,,,,,,,,g.PNG,g,610421096c1af729ade5aac1,2021-09-09_10h28.23.401,forced_choiceRT,2021.1.2,Win32,60.08171113,,,,,,,,4,Ontime,g,1,1.9033,3,2,14,1,1,,,,,
,0.29,,,,,,,,,g.PNG,g,610421096c1af729ade5aac1,2021-09-09_10h28.23.401,forced_choiceRT,2021.1.2,Win32,60.08171113,,,,,,,,4,Ontime,g,1,1.9858,3,3,15,1,1,,,,,
,0.89,,,,,,,,,h.PNG,h,610421096c1af729ade5aac1,2021-09-09_10h28.23.401,forced_choiceRT,2021.1.2,Win32,60.08171113,,,,,,,,4,Ontime,h,1,2.0663,4,0,16,2,1,,,,,
,0.48,,,,,,,,,f.PNG,f,610421096c1af729ade5aac1,2021-09-09_10h28.23.401,forced_choiceRT,2021.1.2,Win32,60.08171113,,,,,,,,4,Ontime,f,1,2.0774,4,1,17,0,1,,,,,
,0.39,,,,,,,,,g.PNG,g,610421096c1af729ade5aac1,2021-09-09_10h28.23.401,forced_choiceRT,2021.1.2,Win32,60.08171113,,,,,,,,4,Ontime,g,1,2.0084,4,2,18,1,1,,,,,
,0.11,,,,,,,,,f.PNG,f,610421096c1af729ade5aac1,2021-09-09_10h28.23.401,forced_choiceRT,2021.1.2,Win32,60.08171113,,,,,,,,4,Ontime,f,1,2.0737,4,3,19,0,1,,,,,
,1.55,,,,,,,,,g.PNG,g,610421096c1af729ade5aac1,2021-09-09_10h28.23.401,forced_choiceRT,2021.1.2,Win32,60.08171113,,,,,,,,4,Ontime,g,1,2.0946,5,0,20,1,1,,,,,
,0.3,,,,,,,,,j.PNG,j,610421096c1af729ade5aac1,2021-09-09_10h28.23.401,forced_choiceRT,2021.1.2,Win32,60.08171113,,,,,,,,4,Ontime,h,0,2.0754,5,1,21,3,1,,,,,
,1.71,,,,,,,,,j.PNG,j,610421096c1af729ade5aac1,2021-09-09_10h28.23.401,forced_choiceRT,2021.1.2,Win32,60.08171113,,,,,,,,4,Slow,h,0,2.1438,5,2,22,3,1,,,,,
,0.26,,,,,,,,,h.PNG,h,610421096c1af729ade5aac1,2021-09-09_10h28.23.401,forced_choiceRT,2021.1.2,Win32,60.08171113,,,,,,,,4,Ontime,h,1,2.0253,5,3,23,2,1,,,,,
,1.12,,,,,,,,,j.PNG,j,610421096c1af729ade5aac1,2021-09-09_10h28.23.401,forced_choiceRT,2021.1.2,Win32,60.08171113,,,,,,,,4,Ontime,j,1,2.0975,6,0,24,3,1,,,,,
,0.79,,,,,,,,,f.PNG,f,610421096c1af729ade5aac1,2021-09-09_10h28.23.401,forced_choiceRT,2021.1.2,Win32,60.08171113,,,,,,,,4,Slow,f,1,2.1471,6,1,25,0,1,,,,,
,0.31,,,,,,,,,j.PNG,j,610421096c1af729ade5aac1,2021-09-09_10h28.23.401,forced_choiceRT,2021.1.2,Win32,60.08171113,,,,,,,,4,Slow,j,1,2.2762,6,2,26,3,1,,,,,
,1.22,,,,,,,,,f.PNG,f,610421096c1af729ade5aac1,2021-09-09_10h28.23.401,forced_choiceRT,2021.1.2,Win32,60.08171113,,,,,,,,4,Ontime,f,1,1.9418,6,3,27,0,1,,,,,
,0.79,,,,,,,,,j.PNG,j,610421096c1af729ade5aac1,2021-09-09_10h28.23.401,forced_choiceRT,2021.1.2,Win32,60.08171113,,,,,,,,4,Ontime,j,1,2.0819,7,0,28,3,1,,,,,
,0.42,,,,,,,,,j.PNG,j,610421096c1af729ade5aac1,2021-09-09_10h28.23.401,forced_choiceRT,2021.1.2,Win32,60.08171113,,,,,,,,4,Slow,j,1,2.2812,7,1,29,3,1,,,,,
,0.66,,,,,,,,,f.PNG,f,610421096c1af729ade5aac1,2021-09-09_10h28.23.401,forced_choiceRT,2021.1.2,Win32,60.08171113,,,,,,,,4,Slow,f,1,2.1499,7,2,30,0,1,,,,,
,0.14,,,,,,,,,h.PNG,h,610421096c1af729ade5aac1,2021-09-09_10h28.23.401,forced_choiceRT,2021.1.2,Win32,60.08171113,,,,,,,,4,Ontime,h,1,1.932,7,3,31,2,1,,,,,
,1.11,,,,,,,,,g.PNG,g,610421096c1af729ade5aac1,2021-09-09_10h28.23.401,forced_choiceRT,2021.1.2,Win32,60.08171113,,,,,,,,4,Ontime,h,0,2.094,8,0,32,1,1,,,,,
,0.11,,,,,,,,,h.PNG,h,610421096c1af729ade5aac1,2021-09-09_10h28.23.401,forced_choiceRT,2021.1.2,Win32,60.08171113,,,,,,,,4,Ontime,h,1,2.0673,8,1,33,2,1,,,,,
,0.81,,,,,,,,,f.PNG,f,610421096c1af729ade5aac1,2021-09-09_10h28.23.401,forced_choiceRT,2021.1.2,Win32,60.08171113,,,,,,,,4,Ontime,f,1,2.073,8,2,34,0,1,,,,,
,0.28,,,,,,,,,h.PNG,h,610421096c1af729ade5aac1,2021-09-09_10h28.23.401,forced_choiceRT,2021.1.2,Win32,60.08171113,,,,,,,,4,Fast,h,1,1.8994,8,3,35,2,1,,,,,
,1.33,,,,,,,,,g.PNG,g,610421096c1af729ade5aac1,2021-09-09_10h28.23.401,forced_choiceRT,2021.1.2,Win32,60.08171113,,,,,,,,4,Slow,g,1,2.1028,9,0,36,1,1,,,,,
,0.37,,,,,,,,,h.PNG,h,610421096c1af729ade5aac1,2021-09-09_10h28.23.401,forced_choiceRT,2021.1.2,Win32,60.08171113,,,,,,,,4,Ontime,h,1,2.0856,9,1,37,2,1,,,,,
,1.62,,,,,,,,,h.PNG,h,610421096c1af729ade5aac1,2021-09-09_10h28.23.401,forced_choiceRT,2021.1.2,Win32,60.08171113,,,,,,,,4,Slow,g,0,2.2849,9,2,38,2,1,,,,,
,0.5,,,,,,,,,h.PNG,h,610421096c1af729ade5aac1,2021-09-09_10h28.23.401,forced_choiceRT,2021.1.2,Win32,60.08171113,,,,,,,,4,Ontime,h,1,2.042,9,3,39,2,1,,,,,
,,,,,,,,,,,,610421096c1af729ade5aac1,2021-09-09_10h28.23.401,forced_choiceRT,2021.1.2,Win32,60.08171113,,,,,,,,,,,,,,,,,,3,0,3,0,1
,0.67,,,,,,,,,h.PNG,h,610421096c1af729ade5aac1,2021-09-09_10h28.23.401,forced_choiceRT,2021.1.2,Win32,60.08171113,,,,,,,,5,Slow,h,1,2.1012,0,0,0,2,1,,,,,
,0.05,,,,,,,,,g.PNG,g,610421096c1af729ade5aac1,2021-09-09_10h28.23.401,forced_choiceRT,2021.1.2,Win32,60.08171113,,,,,,,,5,Slow,g,1,2.1222,0,1,1,1,1,,,,,
,0.99,,,,,,,,,h.PNG,h,610421096c1af729ade5aac1,2021-09-09_10h28.23.401,forced_choiceRT,2021.1.2,Win32,60.08171113,,,,,,,,5,Slow,g,0,17.9464,0,2,2,2,1,,,,,
,0.01,,,,,,,,,g.PNG,g,610421096c1af729ade5aac1,2021-09-09_10h28.23.401,forced_choiceRT,2021.1.2,Win32,60.08171113,,,,,,,,5,Fast,g,1,1.7944,0,3,3,1,1,,,,,
,0.45,,,,,,,,,f.PNG,f,610421096c1af729ade5aac1,2021-09-09_10h28.23.401,forced_choiceRT,2021.1.2,Win32,60.08171113,,,,,,,,5,Ontime,f,1,1.9869,1,0,4,0,1,,,,,
,0.94,,,,,,,,,h.PNG,h,610421096c1af729ade5aac1,2021-09-09_10h28.23.401,forced_choiceRT,2021.1.2,Win32,60.08171113,,,,,,,,5,Ontime,h,1,1.9528,1,1,5,2,1,,,,,
,1.54,,,,,,,,,f.PNG,f,610421096c1af729ade5aac1,2021-09-09_10h28.23.401,forced_choiceRT,2021.1.2,Win32,60.08171113,,,,,,,,5,Ontime,f,1,2.0818,1,2,6,0,1,,,,,
,0.18,,,,,,,,,h.PNG,h,610421096c1af729ade5aac1,2021-09-09_10h28.23.401,forced_choiceRT,2021.1.2,Win32,60.08171113,,,,,,,,5,Fast,h,1,1.7181,1,3,7,2,1,,,,,
,1.64,,,,,,,,,j.PNG,j,610421096c1af729ade5aac1,2021-09-09_10h28.23.401,forced_choiceRT,2021.1.2,Win32,60.08171113,,,,,,,,5,Slow,f,0,2.151,2,0,8,3,1,,,,,
,0.65,,,,,,,,,j.PNG,j,610421096c1af729ade5aac1,2021-09-09_10h28.23.401,forced_choiceRT,2021.1.2,Win32,60.08171113,,,,,,,,5,Fast,j,1,1.8158,2,1,9,3,1,,,,,
,0.51,,,,,,,,,f.PNG,f,610421096c1af729ade5aac1,2021-09-09_10h28.23.401,forced_choiceRT,2021.1.2,Win32,60.08171113,,,,,,,,5,Ontime,f,1,2.0168,2,2,10,0,1,,,,,
,0.81,,,,,,,,,h.PNG,h,610421096c1af729ade5aac1,2021-09-09_10h28.23.401,forced_choiceRT,2021.1.2,Win32,60.08171113,,,,,,,,5,Ontime,h,1,1.9834,2,3,11,2,1,,,,,
,0.79,,,,,,,,,f.PNG,f,610421096c1af729ade5aac1,2021-09-09_10h28.23.401,forced_choiceRT,2021.1.2,Win32,60.08171113,,,,,,,,5,Slow,f,1,2.1663,3,0,12,0,1,,,,,
,1,,,,,,,,,j.PNG,j,610421096c1af729ade5aac1,2021-09-09_10h28.23.401,forced_choiceRT,2021.1.2,Win32,60.08171113,,,,,,,,5,Ontime,j,1,2.069,3,1,13,3,1,,,,,
,1.2,,,,,,,,,f.PNG,f,610421096c1af729ade5aac1,2021-09-09_10h28.23.401,forced_choiceRT,2021.1.2,Win32,60.08171113,,,,,,,,5,Slow,f,1,2.1511,3,2,14,0,1,,,,,
,1.16,,,,,,,,,g.PNG,g,610421096c1af729ade5aac1,2021-09-09_10h28.23.401,forced_choiceRT,2021.1.2,Win32,60.08171113,,,,,,,,5,Slow,h,0,2.1246,3,3,15,1,1,,,,,
,0.82,,,,,,,,,g.PNG,g,610421096c1af729ade5aac1,2021-09-09_10h28.23.401,forced_choiceRT,2021.1.2,Win32,60.08171113,,,,,,,,5,Ontime,g,1,1.9435,4,0,16,1,1,,,,,
,1.06,,,,,,,,,g.PNG,g,610421096c1af729ade5aac1,2021-09-09_10h28.23.401,forced_choiceRT,2021.1.2,Win32,60.08171113,,,,,,,,5,Slow,g,1,2.1715,4,1,17,1,1,,,,,
,1.8,,,,,,,,,h.PNG,h,610421096c1af729ade5aac1,2021-09-09_10h28.23.401,forced_choiceRT,2021.1.2,Win32,60.08171113,,,,,,,,5,Slow,h,1,2.2999,4,2,18,2,1,,,,,
,0.64,,,,,,,,,g.PNG,g,610421096c1af729ade5aac1,2021-09-09_10h28.23.401,forced_choiceRT,2021.1.2,Win32,60.08171113,,,,,,,,5,Fast,g,1,1.8327,4,3,19,1,1,,,,,
,0.03,,,,,,,,,j.PNG,j,610421096c1af729ade5aac1,2021-09-09_10h28.23.401,forced_choiceRT,2021.1.2,Win32,60.08171113,,,,,,,,5,Ontime,j,1,2.0611,5,0,20,3,1,,,,,
,1.28,,,,,,,,,g.PNG,g,610421096c1af729ade5aac1,2021-09-09_10h28.23.401,forced_choiceRT,2021.1.2,Win32,60.08171113,,,,,,,,5,Ontime,h,0,1.9444,5,1,21,1,1,,,,,
,1.5,,,,,,,,,h.PNG,h,610421096c1af729ade5aac1,2021-09-09_10h28.23.401,forced_choiceRT,2021.1.2,Win32,60.08171113,,,,,,,,5,Slow,h,1,2.1786,5,2,22,2,1,,,,,
,1.77,,,,,,,,,f.PNG,f,610421096c1af729ade5aac1,2021-09-09_10h28.23.401,forced_choiceRT,2021.1.2,Win32,60.08171113,,,,,,,,5,Slow,h,0,2.1225,5,3,23,0,1,,,,,
,1.82,,,,,,,,,g.PNG,g,610421096c1af729ade5aac1,2021-09-09_10h28.23.401,forced_choiceRT,2021.1.2,Win32,60.08171113,,,,,,,,5,Slow,h,0,2.216,6,0,24,1,1,,,,,
,0.6,,,,,,,,,h.PNG,h,610421096c1af729ade5aac1,2021-09-09_10h28.23.401,forced_choiceRT,2021.1.2,Win32,60.08171113,,,,,,,,5,Fast,h,1,1.8598,6,1,25,2,1,,,,,
,1.52,,,,,,,,,h.PNG,h,610421096c1af729ade5aac1,2021-09-09_10h28.23.401,forced_choiceRT,2021.1.2,Win32,60.08171113,,,,,,,,5,Ontime,h,1,2.0019,6,2,26,2,1,,,,,
,0.5,,,,,,,,,h.PNG,h,610421096c1af729ade5aac1,2021-09-09_10h28.23.401,forced_choiceRT,2021.1.2,Win32,60.08171113,,,,,,,,5,Ontime,h,1,1.9374,6,3,27,2,1,,,,,
,1.3,,,,,,,,,g.PNG,g,610421096c1af729ade5aac1,2021-09-09_10h28.23.401,forced_choiceRT,2021.1.2,Win32,60.08171113,,,,,,,,5,Ontime,g,1,1.9257,7,0,28,1,1,,,,,
,1.51,,,,,,,,,f.PNG,f,610421096c1af729ade5aac1,2021-09-09_10h28.23.401,forced_choiceRT,2021.1.2,Win32,60.08171113,,,,,,,,5,Ontime,f,1,2.0833,7,1,29,0,1,,,,,
,1.37,,,,,,,,,g.PNG,g,610421096c1af729ade5aac1,2021-09-09_10h28.23.401,forced_choiceRT,2021.1.2,Win32,60.08171113,,,,,,,,5,Ontime,g,1,2.0579,7,2,30,1,1,,,,,
,0.06,,,,,,,,,f.PNG,f,610421096c1af729ade5aac1,2021-09-09_10h28.23.401,forced_choiceRT,2021.1.2,Win32,60.08171113,,,,,,,,5,Fast,f,1,1.7423,7,3,31,0,1,,,,,
,0.92,,,,,,,,,f.PNG,f,610421096c1af729ade5aac1,2021-09-09_10h28.23.401,forced_choiceRT,2021.1.2,Win32,60.08171113,,,,,,,,5,Slow,f,1,2.116,8,0,32,0,1,,,,,
,0.12,,,,,,,,,j.PNG,j,610421096c1af729ade5aac1,2021-09-09_10h28.23.401,forced_choiceRT,2021.1.2,Win32,60.08171113,,,,,,,,5,Slow,j,1,2.1155,8,1,33,3,1,,,,,
,0.5,,,,,,,,,j.PNG,j,610421096c1af729ade5aac1,2021-09-09_10h28.23.401,forced_choiceRT,2021.1.2,Win32,60.08171113,,,,,,,,5,Ontime,j,1,1.9849,8,2,34,3,1,,,,,
,1.49,,,,,,,,,f.PNG,f,610421096c1af729ade5aac1,2021-09-09_10h28.23.401,forced_choiceRT,2021.1.2,Win32,60.08171113,,,,,,,,5,Ontime,f,1,2.0885,8,3,35,0,1,,,,,
,0.34,,,,,,,,,j.PNG,j,610421096c1af729ade5aac1,2021-09-09_10h28.23.401,forced_choiceRT,2021.1.2,Win32,60.08171113,,,,,,,,5,Ontime,j,1,2.0253,9,0,36,3,1,,,,,
,0.8,,,,,,,,,j.PNG,j,610421096c1af729ade5aac1,2021-09-09_10h28.23.401,forced_choiceRT,2021.1.2,Win32,60.08171113,,,,,,,,5,Ontime,j,1,1.9679,9,1,37,3,1,,,,,
,0.77,,,,,,,,,j.PNG,j,610421096c1af729ade5aac1,2021-09-09_10h28.23.401,forced_choiceRT,2021.1.2,Win32,60.08171113,,,,,,,,5,Ontime,j,1,1.9205,9,2,38,3,1,,,,,
,1.1,,,,,,,,,j.PNG,j,610421096c1af729ade5aac1,2021-09-09_10h28.23.401,forced_choiceRT,2021.1.2,Win32,60.08171113,,,,,,,,5,Ontime,j,1,2.0749,9,3,39,3,1,,,,,
,,,,,,,,,,,,610421096c1af729ade5aac1,2021-09-09_10h28.23.401,forced_choiceRT,2021.1.2,Win32,60.08171113,,,,,,,,,,,,,,,,,,4,0,4,0,1
,0.59,,,,,,,,,j.PNG,j,610421096c1af729ade5aac1,2021-09-09_10h28.23.401,forced_choiceRT,2021.1.2,Win32,60.08171113,,,,,,,,6,Slow,j,1,2.2425,0,0,0,3,1,,,,,
,0.51,,,,,,,,,j.PNG,j,610421096c1af729ade5aac1,2021-09-09_10h28.23.401,forced_choiceRT,2021.1.2,Win32,60.08171113,,,,,,,,6,Ontime,j,1,2.009,0,1,1,3,1,,,,,
,1.13,,,,,,,,,h.PNG,h,610421096c1af729ade5aac1,2021-09-09_10h28.23.401,forced_choiceRT,2021.1.2,Win32,60.08171113,,,,,,,,6,Ontime,h,1,1.9303,0,2,2,2,1,,,,,
,1.34,,,,,,,,,g.PNG,g,610421096c1af729ade5aac1,2021-09-09_10h28.23.401,forced_choiceRT,2021.1.2,Win32,60.08171113,,,,,,,,6,Ontime,g,1,2.0685,0,3,3,1,1,,,,,
,0.33,,,,,,,,,g.PNG,g,610421096c1af729ade5aac1,2021-09-09_10h28.23.401,forced_choiceRT,2021.1.2,Win32,60.08171113,,,,,,,,6,Fast,h,0,1.8355,1,0,4,1,1,,,,,
,0.67,,,,,,,,,h.PNG,h,610421096c1af729ade5aac1,2021-09-09_10h28.23.401,forced_choiceRT,2021.1.2,Win32,60.08171113,,,,,,,,6,Fast,h,1,1.6344,1,1,5,2,1,,,,,
,1.31,,,,,,,,,g.PNG,g,610421096c1af729ade5aac1,2021-09-09_10h28.23.401,forced_choiceRT,2021.1.2,Win32,60.08171113,,,,,,,,6,Fast,h,0,1.8988,1,2,6,1,1,,,,,
,1.99,,,,,,,,,h.PNG,h,610421096c1af729ade5aac1,2021-09-09_10h28.23.401,forced_choiceRT,2021.1.2,Win32,60.08171113,,,,,,,,6,Slow,g,0,2.3987,1,3,7,2,1,,,,,
,1.26,,,,,,,,,f.PNG,f,610421096c1af729ade5aac1,2021-09-09_10h28.23.401,forced_choiceRT,2021.1.2,Win32,60.08171113,,,,,,,,6,Ontime,f,1,1.9592,2,0,8,0,1,,,,,
,1.86,,,,,,,,,g.PNG,g,610421096c1af729ade5aac1,2021-09-09_10h28.23.401,forced_choiceRT,2021.1.2,Win32,60.08171113,,,,,,,,6,Slow,h,0,2.2672,2,1,9,1,1,,,,,
,0.71,,,,,,,,,f.PNG,f,610421096c1af729ade5aac1,2021-09-09_10h28.23.401,forced_choiceRT,2021.1.2,Win32,60.08171113,,,,,,,,6,Ontime,f,1,2.0143,2,2,10,0,1,,,,,
,0.22,,,,,,,,,j.PNG,j,610421096c1af729ade5aac1,2021-09-09_10h28.23.401,forced_choiceRT,2021.1.2,Win32,60.08171113,,,,,,,,6,Ontime,j,1,2.01,2,3,11,3,1,,,,,
,0.08,,,,,,,,,f.PNG,f,610421096c1af729ade5aac1,2021-09-09_10h28.23.401,forced_choiceRT,2021.1.2,Win32,60.08171113,,,,,,,,6,Ontime,f,1,2.0363,3,0,12,0,1,,,,,
,0.35,,,,,,,,,h.PNG,h,610421096c1af729ade5aac1,2021-09-09_10h28.23.401,forced_choiceRT,2021.1.2,Win32,60.08171113,,,,,,,,6,Ontime,h,1,1.9595,3,1,13,2,1,,,,,
,0.06,,,,,,,,,h.PNG,h,610421096c1af729ade5aac1,2021-09-09_10h28.23.401,forced_choiceRT,2021.1.2,Win32,60.08171113,,,,,,,,6,Slow,h,1,5.9694,3,2,14,2,1,,,,,
,0.74,,,,,,,,,f.PNG,f,610421096c1af729ade5aac1,2021-09-09_10h28.23.401,forced_choiceRT,2021.1.2,Win32,60.08171113,,,,,,,,6,Ontime,f,1,2.0029,3,3,15,0,1,,,,,
,0.39,,,,,,,,,f.PNG,f,610421096c1af729ade5aac1,2021-09-09_10h28.23.401,forced_choiceRT,2021.1.2,Win32,60.08171113,,,,,,,,6,Ontime,f,1,2.0149,4,0,16,0,1,,,,,
,0.74,,,,,,,,,h.PNG,h,610421096c1af729ade5aac1,2021-09-09_10h28.23.401,forced_choiceRT,2021.1.2,Win32,60.08171113,,,,,,,,6,Fast,h,1,1.842,4,1,17,2,1,,,,,
,1.96,,,,,,,,,h.PNG,h,610421096c1af729ade5aac1,2021-09-09_10h28.23.401,forced_choiceRT,2021.1.2,Win32,60.08171113,,,,,,,,6,Slow,h,1,2.399,4,2,18,2,1,,,,,
,0.83,,,,,,,,,h.PNG,h,610421096c1af729ade5aac1,2021-09-09_10h28.23.401,forced_choiceRT,2021.1.2,Win32,60.08171113,,,,,,,,6,Ontime,h,1,2.0143,4,3,19,2,1,,,,,
,1.32,,,,,,,,,j.PNG,j,610421096c1af729ade5aac1,2021-09-09_10h28.23.401,forced_choiceRT,2021.1.2,Win32,60.08171113,,,,,,,,6,Ontime,j,1,1.9204,5,0,20,3,1,,,,,
,0.39,,,,,,,,,j.PNG,j,610421096c1af729ade5aac1,2021-09-09_10h28.23.401,forced_choiceRT,2021.1.2,Win32,60.08171113,,,,,,,,6,Ontime,j,1,1.9713,5,1,21,3,1,,,,,
,1.28,,,,,,,,,f.PNG,f,610421096c1af729ade5aac1,2021-09-09_10h28.23.401,forced_choiceRT,2021.1.2,Win32,60.08171113,,,,,,,,6,Fast,f,1,1.7668,5,2,22,0,1,,,,,
,1.83,,,,,,,,,f.PNG,f,610421096c1af729ade5aac1,2021-09-09_10h28.23.401,forced_choiceRT,2021.1.2,Win32,60.08171113,,,,,,,,6,Slow,f,1,2.3353,5,3,23,0,1,,,,,
,0.92,,,,,,,,,g.PNG,g,610421096c1af729ade5aac1,2021-09-09_10h28.23.401,forced_choiceRT,2021.1.2,Win32,60.08171113,,,,,,,,6,Fast,g,1,1.8742,6,0,24,1,1,,,,,
,0.41,,,,,,,,,j.PNG,j,610421096c1af729ade5aac1,2021-09-09_10h28.23.401,forced_choiceRT,2021.1.2,Win32,60.08171113,,,,,,,,6,Ontime,j,1,1.9673,6,1,25,3,1,,,,,
,0.94,,,,,,,,,j.PNG,j,610421096c1af729ade5aac1,2021-09-09_10h28.23.401,forced_choiceRT,2021.1.2,Win32,60.08171113,,,,,,,,6,Ontime,j,1,1.9837,6,2,26,3,1,,,,,
,0.19,,,,,,,,,h.PNG,h,610421096c1af729ade5aac1,2021-09-09_10h28.23.401,forced_choiceRT,2021.1.2,Win32,60.08171113,,,,,,,,6,Fast,h,1,1.6658,6,3,27,2,1,,,,,
,1.05,,,,,,,,,g.PNG,g,610421096c1af729ade5aac1,2021-09-09_10h28.23.401,forced_choiceRT,2021.1.2,Win32,60.08171113,,,,,,,,6,Ontime,g,1,2.0241,7,0,28,1,1,,,,,
,0.11,,,,,,,,,f.PNG,f,610421096c1af729ade5aac1,2021-09-09_10h28.23.401,forced_choiceRT,2021.1.2,Win32,60.08171113,,,,,,,,6,Ontime,f,1,2.0587,7,1,29,0,1,,,,,
,0.09,,,,,,,,,g.PNG,g,610421096c1af729ade5aac1,2021-09-09_10h28.23.401,forced_choiceRT,2021.1.2,Win32,60.08171113,,,,,,,,6,Slow,g,1,2.1025,7,2,30,1,1,,,,,
,1.72,,,,,,,,,j.PNG,j,610421096c1af729ade5aac1,2021-09-09_10h28.23.401,forced_choiceRT,2021.1.2,Win32,60.08171113,,,,,,,,6,Slow,h,0,2.1397,7,3,31,3,1,,,,,
,1.96,,,,,,,,,j.PNG,j,610421096c1af729ade5aac1,2021-09-09_10h28.23.401,forced_choiceRT,2021.1.2,Win32,60.08171113,,,,,,,,6,Slow,j,1,2.3507,8,0,32,3,1,,,,,
,1.24,,,,,,,,,j.PNG,j,610421096c1af729ade5aac1,2021-09-09_10h28.23.401,forced_choiceRT,2021.1.2,Win32,60.08171113,,,,,,,,6,Fast,j,1,1.8382,8,1,33,3,1,,,,,
,0.77,,,,,,,,,h.PNG,h,610421096c1af729ade5aac1,2021-09-09_10h28.23.401,forced_choiceRT,2021.1.2,Win32,60.08171113,,,,,,,,6,Ontime,h,1,1.9881,8,2,34,2,1,,,,,
,0.13,,,,,,,,,f.PNG,f,610421096c1af729ade5aac1,2021-09-09_10h28.23.401,forced_choiceRT,2021.1.2,Win32,60.08171113,,,,,,,,6,Ontime,f,1,2.0051,8,3,35,0,1,,,,,
,1.36,,,,,,,,,f.PNG,f,610421096c1af729ade5aac1,2021-09-09_10h28.23.401,forced_choiceRT,2021.1.2,Win32,60.08171113,,,,,,,,6,Slow,f,1,2.1912,9,0,36,0,1,,,,,
,0.84,,,,,,,,,g.PNG,g,610421096c1af729ade5aac1,2021-09-09_10h28.23.401,forced_choiceRT,2021.1.2,Win32,60.08171113,,,,,,,,6,Ontime,g,1,2.0061,9,1,37,1,1,,,,,
,1.68,,,,,,,,,g.PNG,g,610421096c1af729ade5aac1,2021-09-09_10h28.23.401,forced_choiceRT,2021.1.2,Win32,60.08171113,,,,,,,,6,Ontime,g,1,2.0595,9,2,38,1,1,,,,,
,0.93,,,,,,,,,g.PNG,g,610421096c1af729ade5aac1,2021-09-09_10h28.23.401,forced_choiceRT,2021.1.2,Win32,60.08171113,,,,,,,,6,Slow,g,1,2.1305,9,3,39,1,1,,,,,
,,,,,,,,,,,,610421096c1af729ade5aac1,2021-09-09_10h28.23.401,forced_choiceRT,2021.1.2,Win32,60.08171113,,,,,,,,,,,,,,,,,,5,0,5,0,1
,1.57,,,,,,,,,f.PNG,f,610421096c1af729ade5aac1,2021-09-09_10h28.23.401,forced_choiceRT,2021.1.2,Win32,60.08171113,,,,,,,,7,Slow,f,1,2.1871,0,0,0,0,1,,,,,
,0.48,,,,,,,,,f.PNG,f,610421096c1af729ade5aac1,2021-09-09_10h28.23.401,forced_choiceRT,2021.1.2,Win32,60.08171113,,,,,,,,7,Ontime,f,1,2.0455,0,1,1,0,1,,,,,
,0.14,,,,,,,,,h.PNG,h,610421096c1af729ade5aac1,2021-09-09_10h28.23.401,forced_choiceRT,2021.1.2,Win32,60.08171113,,,,,,,,7,Slow,h,1,2.1,0,2,2,2,1,,,,,
,0.08,,,,,,,,,f.PNG,f,610421096c1af729ade5aac1,2021-09-09_10h28.23.401,forced_choiceRT,2021.1.2,Win32,60.08171113,,,,,,,,7,Ontime,f,1,2.0074,0,3,3,0,1,,,,,
,1.54,,,,,,,,,g.PNG,g,610421096c1af729ade5aac1,2021-09-09_10h28.23.401,forced_choiceRT,2021.1.2,Win32,60.08171113,,,,,,,,7,Slow,g,1,2.2505,1,0,4,1,1,,,,,
,0.95,,,,,,,,,h.PNG,h,610421096c1af729ade5aac1,2021-09-09_10h28.23.401,forced_choiceRT,2021.1.2,Win32,60.08171113,,,,,,,,7,Ontime,h,1,1.9565,1,1,5,2,1,,,,,
,0.09,,,,,,,,,j.PNG,j,610421096c1af729ade5aac1,2021-09-09_10h28.23.401,forced_choiceRT,2021.1.2,Win32,60.08171113,,,,,,,,7,Fast,j,1,1.8773,1,2,6,3,1,,,,,
,0.24,,,,,,,,,j.PNG,j,610421096c1af729ade5aac1,2021-09-09_10h28.23.401,forced_choiceRT,2021.1.2,Win32,60.08171113,,,,,,,,7,Ontime,j,1,2.0185,1,3,7,3,1,,,,,
,0.74,,,,,,,,,h.PNG,h,610421096c1af729ade5aac1,2021-09-09_10h28.23.401,forced_choiceRT,2021.1.2,Win32,60.08171113,,,,,,,,7,Fast,h,1,1.2813,2,0,8,2,1,,,,,
,0.4,,,,,,,,,h.PNG,h,610421096c1af729ade5aac1,2021-09-09_10h28.23.401,forced_choiceRT,2021.1.2,Win32,60.08171113,,,,,,,,7,Fast,h,1,1.2803,2,1,9,2,1,,,,,
,1.61,,,,,,,,,g.PNG,g,610421096c1af729ade5aac1,2021-09-09_10h28.23.401,forced_choiceRT,2021.1.2,Win32,60.08171113,,,,,,,,7,Ontime,h,0,1.9943,2,2,10,1,1,,,,,
,1.77,,,,,,,,,h.PNG,h,610421096c1af729ade5aac1,2021-09-09_10h28.23.401,forced_choiceRT,2021.1.2,Win32,60.08171113,,,,,,,,7,Slow,h,1,2.2571,2,3,11,2,1,,,,,
,0.71,,,,,,,,,j.PNG,j,610421096c1af729ade5aac1,2021-09-09_10h28.23.401,forced_choiceRT,2021.1.2,Win32,60.08171113,,,,,,,,7,Fast,h,0,1.1322,3,0,12,3,1,,,,,
,0.08,,,,,,,,,g.PNG,g,610421096c1af729ade5aac1,2021-09-09_10h28.23.401,forced_choiceRT,2021.1.2,Win32,60.08171113,,,,,,,,7,Fast,h,0,0.7582,3,1,13,1,1,,,,,
,0.71,,,,,,,,,j.PNG,j,610421096c1af729ade5aac1,2021-09-09_10h28.23.401,forced_choiceRT,2021.1.2,Win32,60.08171113,,,,,,,,7,Fast,j,1,1.3515,3,2,14,3,1,,,,,
,1.4,,,,,,,,,f.PNG,f,610421096c1af729ade5aac1,2021-09-09_10h28.23.401,forced_choiceRT,2021.1.2,Win32,60.08171113,,,,,,,,7,Ontime,f,1,1.954,3,3,15,0,1,,,,,
,1.91,,,,,,,,,j.PNG,j,610421096c1af729ade5aac1,2021-09-09_10h28.23.401,forced_choiceRT,2021.1.2,Win32,60.08171113,,,,,,,,7,Slow,j,1,2.3,4,0,16,3,1,,,,,
,1.86,,,,,,,,,h.PNG,h,610421096c1af729ade5aac1,2021-09-09_10h28.23.401,forced_choiceRT,2021.1.2,Win32,60.08171113,,,,,,,,7,Slow,h,1,2.5671,4,1,17,2,1,,,,,
,1.84,,,,,,,,,g.PNG,g,610421096c1af729ade5aac1,2021-09-09_10h28.23.401,forced_choiceRT,2021.1.2,Win32,60.08171113,,,,,,,,7,Slow,j,0,2.2559,4,2,18,1,1,,,,,
,0.18,,,,,,,,,j.PNG,j,610421096c1af729ade5aac1,2021-09-09_10h28.23.401,forced_choiceRT,2021.1.2,Win32,60.08171113,,,,,,,,7,Ontime,j,1,2.0806,4,3,19,3,1,,,,,
,0.61,,,,,,,,,h.PNG,h,610421096c1af729ade5aac1,2021-09-09_10h28.23.401,forced_choiceRT,2021.1.2,Win32,60.08171113,,,,,,,,7,Ontime,h,1,1.9373,5,0,20,2,1,,,,,
,1.99,,,,,,,,,g.PNG,g,610421096c1af729ade5aac1,2021-09-09_10h28.23.401,forced_choiceRT,2021.1.2,Win32,60.08171113,,,,,,,,7,Ontime,h,0,2.0848,5,1,21,1,1,,,,,
,1.52,,,,,,,,,g.PNG,g,610421096c1af729ade5aac1,2021-09-09_10h28.23.401,forced_choiceRT,2021.1.2,Win32,60.08171113,,,,,,,,7,Slow,g,1,2.1604,5,2,22,1,1,,,,,
,1.52,,,,,,,,,f.PNG,f,610421096c1af729ade5aac1,2021-09-09_10h28.23.401,forced_choiceRT,2021.1.2,Win32,60.08171113,,,,,,,,7,Ontime,f,1,2.0898,5,3,23,0,1,,,,,
,0.23,,,,,,,,,j.PNG,j,610421096c1af729ade5aac1,2021-09-09_10h28.23.401,forced_choiceRT,2021.1.2,Win32,60.08171113,,,,,,,,7,Ontime,j,1,1.9407,6,0,24,3,1,,,,,
,1.41,,,,,,,,,f.PNG,f,610421096c1af729ade5aac1,2021-09-09_10h28.23.401,forced_choiceRT,2021.1.2,Win32,60.08171113,,,,,,,,7,Ontime,f,1,1.9562,6,1,25,0,1,,,,,
,1.87,,,,,,,,,f.PNG,f,610421096c1af729ade5aac1,2021-09-09_10h28.23.401,forced_choiceRT,2021.1.2,Win32,60.08171113,,,,,,,,7,Slow,f,1,2.3418,6,2,26,0,1,,,,,
,1.53,,,,,,,,,j.PNG,j,610421096c1af729ade5aac1,2021-09-09_10h28.23.401,forced_choiceRT,2021.1.2,Win32,60.08171113,,,,,,,,7,Ontime,j,1,2.0279,6,3,27,3,1,,,,,
,0.72,,,,,,,,,f.PNG,f,610421096c1af729ade5aac1,2021-09-09_10h28.23.401,forced_choiceRT,2021.1.2,Win32,60.08171113,,,,,,,,7,Ontime,f,1,2.0894,7,0,28,0,1,,,,,
,0.18,,,,,,,,,j.PNG,j,610421096c1af729ade5aac1,2021-09-09_10h28.23.401,forced_choiceRT,2021.1.2,Win32,60.08171113,,,,,,,,7,Ontime,j,1,1.947,7,1,29,3,1,,,,,
,0.54,,,,,,,,,j.PNG,j,610421096c1af729ade5aac1,2021-09-09_10h28.23.401,forced_choiceRT,2021.1.2,Win32,60.08171113,,,,,,,,7,Ontime,j,1,2,7,2,30,3,1,,,,,
,1.96,,,,,,,,,g.PNG,g,610421096c1af729ade5aac1,2021-09-09_10h28.23.401,forced_choiceRT,2021.1.2,Win32,60.08171113,,,,,,,,7,Slow,j,0,2.2152,7,3,31,1,1,,,,,
,1.09,,,,,,,,,g.PNG,g,610421096c1af729ade5aac1,2021-09-09_10h28.23.401,forced_choiceRT,2021.1.2,Win32,60.08171113,,,,,,,,7,Fast,g,1,1.7657,8,0,32,1,1,,,,,
,1.98,,,,,,,,,f.PNG,f,610421096c1af729ade5aac1,2021-09-09_10h28.23.401,forced_choiceRT,2021.1.2,Win32,60.08171113,,,,,,,,7,Slow,h,0,2.1977,8,1,33,0,1,,,,,
,1.22,,,,,,,,,g.PNG,g,610421096c1af729ade5aac1,2021-09-09_10h28.23.401,forced_choiceRT,2021.1.2,Win32,60.08171113,,,,,,,,7,Slow,g,1,2.2134,8,2,34,1,1,,,,,
,1.32,,,,,,,,,h.PNG,h,610421096c1af729ade5aac1,2021-09-09_10h28.23.401,forced_choiceRT,2021.1.2,Win32,60.08171113,,,,,,,,7,Slow,h,1,5.1463,8,3,35,2,1,,,,,
,0.67,,,,,,,,,h.PNG,h,610421096c1af729ade5aac1,2021-09-09_10h28.23.401,forced_choiceRT,2021.1.2,Win32,60.08171113,,,,,,,,7,Fast,h,1,1.4101,9,0,36,2,1,,,,,
,0.48,,,,,,,,,g.PNG,g,610421096c1af729ade5aac1,2021-09-09_10h28.23.401,forced_choiceRT,2021.1.2,Win32,60.08171113,,,,,,,,7,Fast,g,1,1.6151,9,1,37,1,1,,,,,
,0.78,,,,,,,,,h.PNG,h,610421096c1af729ade5aac1,2021-09-09_10h28.23.401,forced_choiceRT,2021.1.2,Win32,60.08171113,,,,,,,,7,Fast,h,1,1.4907,9,2,38,2,1,,,,,
,1.45,,,,,,,,,f.PNG,f,610421096c1af729ade5aac1,2021-09-09_10h28.23.401,forced_choiceRT,2021.1.2,Win32,60.08171113,,,,,,,,7,Ontime,f,1,1.9738,9,3,39,0,1,,,,,
,,,,,,,,,,,,610421096c1af729ade5aac1,2021-09-09_10h28.23.401,forced_choiceRT,2021.1.2,Win32,60.08171113,,,,,,,,,,,,,,,,,,6,0,6,0,1
,0.45,,,,,,,,,f.PNG,f,610421096c1af729ade5aac1,2021-09-09_10h28.23.401,forced_choiceRT,2021.1.2,Win32,60.08171113,,,,,,,,8,Fast,f,1,1.7073,0,0,0,0,1,,,,,
,1.02,,,,,,,,,f.PNG,f,610421096c1af729ade5aac1,2021-09-09_10h28.23.401,forced_choiceRT,2021.1.2,Win32,60.08171113,,,,,,,,8,Ontime,f,1,1.931,0,1,1,0,1,,,,,
,1.24,,,,,,,,,f.PNG,f,610421096c1af729ade5aac1,2021-09-09_10h28.23.401,forced_choiceRT,2021.1.2,Win32,60.08171113,,,,,,,,8,Ontime,f,1,2.0681,0,2,2,0,1,,,,,
,1.49,,,,,,,,,f.PNG,f,610421096c1af729ade5aac1,2021-09-09_10h28.23.401,forced_choiceRT,2021.1.2,Win32,60.08171113,,,,,,,,8,Ontime,f,1,2.001,0,3,3,0,1,,,,,
,0.48,,,,,,,,,h.PNG,h,610421096c1af729ade5aac1,2021-09-09_10h28.23.401,forced_choiceRT,2021.1.2,Win32,60.08171113,,,,,,,,8,Fast,h,1,1.7896,1,0,4,2,1,,,,,
,0.67,,,,,,,,,f.PNG,f,610421096c1af729ade5aac1,2021-09-09_10h28.23.401,forced_choiceRT,2021.1.2,Win32,60.08171113,,,,,,,,8,Ontime,f,1,2.032,1,1,5,0,1,,,,,
,0.34,,,,,,,,,h.PNG,h,610421096c1af729ade5aac1,2021-09-09_10h28.23.401,forced_choiceRT,2021.1.2,Win32,60.08171113,,,,,,,,8,Ontime,h,1,1.9734,1,2,6,2,1,,,,,
,1.76,,,,,,,,,h.PNG,h,610421096c1af729ade5aac1,2021-09-09_10h28.23.401,forced_choiceRT,2021.1.2,Win32,60.08171113,,,,,,,,8,Slow,h,1,2.1572,1,3,7,2,1,,,,,
,1.04,,,,,,,,,j.PNG,j,610421096c1af729ade5aac1,2021-09-09_10h28.23.401,forced_choiceRT,2021.1.2,Win32,60.08171113,,,,,,,,8,Fast,j,1,1.7781,2,0,8,3,1,,,,,
,1.02,,,,,,,,,j.PNG,j,610421096c1af729ade5aac1,2021-09-09_10h28.23.401,forced_choiceRT,2021.1.2,Win32,60.08171113,,,,,,,,8,Fast,j,1,1.7229,2,1,9,3,1,,,,,
,0.7,,,,,,,,,h.PNG,h,610421096c1af729ade5aac1,2021-09-09_10h28.23.401,forced_choiceRT,2021.1.2,Win32,60.08171113,,,,,,,,8,Ontime,h,1,1.9909,2,2,10,2,1,,,,,
,0.51,,,,,,,,,g.PNG,g,610421096c1af729ade5aac1,2021-09-09_10h28.23.401,forced_choiceRT,2021.1.2,Win32,60.08171113,,,,,,,,8,Ontime,g,1,2.0728,2,3,11,1,1,,,,,
,0.8,,,,,,,,,j.PNG,j,610421096c1af729ade5aac1,2021-09-09_10h28.23.401,forced_choiceRT,2021.1.2,Win32,60.08171113,,,,,,,,8,Ontime,j,1,1.9017,3,0,12,3,1,,,,,
,0.57,,,,,,,,,g.PNG,g,610421096c1af729ade5aac1,2021-09-09_10h28.23.401,forced_choiceRT,2021.1.2,Win32,60.08171113,,,,,,,,8,Slow,g,1,2.361,3,1,13,1,1,,,,,
,0.35,,,,,,,,,j.PNG,j,610421096c1af729ade5aac1,2021-09-09_10h28.23.401,forced_choiceRT,2021.1.2,Win32,60.08171113,,,,,,,,8,Ontime,j,1,1.9472,3,2,14,3,1,,,,,
,1.63,,,,,,,,,h.PNG,h,610421096c1af729ade5aac1,2021-09-09_10h28.23.401,forced_choiceRT,2021.1.2,Win32,60.08171113,,,,,,,,8,Ontime,j,0,2.0606,3,3,15,2,1,,,,,
,1.59,,,,,,,,,h.PNG,h,610421096c1af729ade5aac1,2021-09-09_10h28.23.401,forced_choiceRT,2021.1.2,Win32,60.08171113,,,,,,,,8,Ontime,h,1,2.0011,4,0,16,2,1,,,,,
,0.34,,,,,,,,,h.PNG,h,610421096c1af729ade5aac1,2021-09-09_10h28.23.401,forced_choiceRT,2021.1.2,Win32,60.08171113,,,,,,,,8,Ontime,h,1,1.9701,4,1,17,2,1,,,,,
,0.02,,,,,,,,,f.PNG,f,610421096c1af729ade5aac1,2021-09-09_10h28.23.401,forced_choiceRT,2021.1.2,Win32,60.08171113,,,,,,,,8,Ontime,f,1,1.9539,4,2,18,0,1,,,,,
,1.17,,,,,,,,,g.PNG,g,610421096c1af729ade5aac1,2021-09-09_10h28.23.401,forced_choiceRT,2021.1.2,Win32,60.08171113,,,,,,,,8,Fast,h,0,1.6484,4,3,19,1,1,,,,,
,0.74,,,,,,,,,h.PNG,h,610421096c1af729ade5aac1,2021-09-09_10h28.23.401,forced_choiceRT,2021.1.2,Win32,60.08171113,,,,,,,,8,Fast,h,1,1.8654,5,0,20,2,1,,,,,
,0.15,,,,,,,,,h.PNG,h,610421096c1af729ade5aac1,2021-09-09_10h28.23.401,forced_choiceRT,2021.1.2,Win32,60.08171113,,,,,,,,8,Slow,h,1,2.1364,5,1,21,2,1,,,,,
,1.16,,,,,,,,,f.PNG,f,610421096c1af729ade5aac1,2021-09-09_10h28.23.401,forced_choiceRT,2021.1.2,Win32,60.08171113,,,,,,,,8,Ontime,f,1,1.9702,5,2,22,0,1,,,,,
,1.96,,,,,,,,,j.PNG,j,610421096c1af729ade5aac1,2021-09-09_10h28.23.401,forced_choiceRT,2021.1.2,Win32,60.08171113,,,,,,,,8,Slow,f,0,2.2015,5,3,23,3,1,,,,,
,1.7,,,,,,,,,j.PNG,j,610421096c1af729ade5aac1,2021-09-09_10h28.23.401,forced_choiceRT,2021.1.2,Win32,60.08171113,,,,,,,,8,Slow,j,1,2.1867,6,0,24,3,1,,,,,
,0.5,,,,,,,,,g.PNG,g,610421096c1af729ade5aac1,2021-09-09_10h28.23.401,forced_choiceRT,2021.1.2,Win32,60.08171113,,,,,,,,8,Slow,g,1,2.1184,6,1,25,1,1,,,,,
,1.06,,,,,,,,,j.PNG,j,610421096c1af729ade5aac1,2021-09-09_10h28.23.401,forced_choiceRT,2021.1.2,Win32,60.08171113,,,,,,,,8,Slow,j,1,2.202,6,2,26,3,1,,,,,
,1.83,,,,,,,,,f.PNG,f,610421096c1af729ade5aac1,2021-09-09_10h28.23.401,forced_choiceRT,2021.1.2,Win32,60.08171113,,,,,,,,8,Ontime,f,1,2.0881,6,3,27,0,1,,,,,
,1.97,,,,,,,,,g.PNG,g,610421096c1af729ade5aac1,2021-09-09_10h28.23.401,forced_choiceRT,2021.1.2,Win32,60.08171113,,,,,,,,8,Slow,j,0,2.2646,7,0,28,1,1,,,,,
,1.6,,,,,,,,,g.PNG,g,610421096c1af729ade5aac1,2021-09-09_10h28.23.401,forced_choiceRT,2021.1.2,Win32,60.08171113,,,,,,,,8,Ontime,g,1,1.9728,7,1,29,1,1,,,,,
,1.98,,,,,,,,,j.PNG,j,610421096c1af729ade5aac1,2021-09-09_10h28.23.401,forced_choiceRT,2021.1.2,Win32,60.08171113,,,,,,,,8,Ontime,g,0,2.0895,7,2,30,3,1,,,,,
,0.94,,,,,,,,,g.PNG,g,610421096c1af729ade5aac1,2021-09-09_10h28.23.401,forced_choiceRT,2021.1.2,Win32,60.08171113,,,,,,,,8,Fast,g,1,1.8775,7,3,31,1,1,,,,,
,1.19,,,,,,,,,f.PNG,f,610421096c1af729ade5aac1,2021-09-09_10h28.23.401,forced_choiceRT,2021.1.2,Win32,60.08171113,,,,,,,,8,Slow,f,1,2.8146,8,0,32,0,1,,,,,
,0.17,,,,,,,,,g.PNG,g,610421096c1af729ade5aac1,2021-09-09_10h28.23.401,forced_choiceRT,2021.1.2,Win32,60.08171113,,,,,,,,8,Slow,g,1,6.7737,8,1,33,1,1,,,,,
,1.02,,,,,,,,,g.PNG,g,610421096c1af729ade5aac1,2021-09-09_10h28.23.401,forced_choiceRT,2021.1.2,Win32,60.08171113,,,,,,,,8,Slow,g,1,2.1668,8,2,34,1,1,,,,,
,1.79,,,,,,,,,h.PNG,h,610421096c1af729ade5aac1,2021-09-09_10h28.23.401,forced_choiceRT,2021.1.2,Win32,60.08171113,,,,,,,,8,Slow,h,1,2.3996,8,3,35,2,1,,,,,
,1.17,,,,,,,,,j.PNG,j,610421096c1af729ade5aac1,2021-09-09_10h28.23.401,forced_choiceRT,2021.1.2,Win32,60.08171113,,,,,,,,8,Slow,g,0,4.8585,9,0,36,3,1,,,,,
,0.95,,,,,,,,,j.PNG,j,610421096c1af729ade5aac1,2021-09-09_10h28.23.401,forced_choiceRT,2021.1.2,Win32,60.08171113,,,,,,,,8,Fast,h,0,1.7304,9,1,37,3,1,,,,,
,1.06,,,,,,,,,f.PNG,f,610421096c1af729ade5aac1,2021-09-09_10h28.23.401,forced_choiceRT,2021.1.2,Win32,60.08171113,,,,,,,,8,Fast,f,1,1.7087,9,2,38,0,1,,,,,
,1.46,,,,,,,,,g.PNG,g,610421096c1af729ade5aac1,2021-09-09_10h28.23.401,forced_choiceRT,2021.1.2,Win32,60.08171113,,,,,,,,8,Ontime,h,0,2.0001,9,3,39,1,1,,,,,
,,,,,,,,,,,,610421096c1af729ade5aac1,2021-09-09_10h28.23.401,forced_choiceRT,2021.1.2,Win32,60.08171113,,,,,,,,,,,,,,,,,,7,0,7,0,1
,0.75,,,,,,,,,f.PNG,f,610421096c1af729ade5aac1,2021-09-09_10h28.23.401,forced_choiceRT,2021.1.2,Win32,60.08171113,,,,,,,,9,Ontime,f,1,1.9088,0,0,0,0,1,,,,,
,1.72,,,,,,,,,j.PNG,j,610421096c1af729ade5aac1,2021-09-09_10h28.23.401,forced_choiceRT,2021.1.2,Win32,60.08171113,,,,,,,,9,Slow,j,1,2.2493,0,1,1,3,1,,,,,
,0.35,,,,,,,,,g.PNG,g,610421096c1af729ade5aac1,2021-09-09_10h28.23.401,forced_choiceRT,2021.1.2,Win32,60.08171113,,,,,,,,9,Slow,g,1,3.3002,0,2,2,1,1,,,,,
,1.59,,,,,,,,,f.PNG,f,610421096c1af729ade5aac1,2021-09-09_10h28.23.401,forced_choiceRT,2021.1.2,Win32,60.08171113,,,,,,,,9,Slow,f,1,2.2359,0,3,3,0,1,,,,,
,1.06,,,,,,,,,h.PNG,h,610421096c1af729ade5aac1,2021-09-09_10h28.23.401,forced_choiceRT,2021.1.2,Win32,60.08171113,,,,,,,,9,Ontime,j,0,2.004,1,0,4,2,1,,,,,
,0.66,,,,,,,,,h.PNG,h,610421096c1af729ade5aac1,2021-09-09_10h28.23.401,forced_choiceRT,2021.1.2,Win32,60.08171113,,,,,,,,9,Fast,h,1,1.7179,1,1,5,2,1,,,,,
,1.98,,,,,,,,,j.PNG,j,610421096c1af729ade5aac1,2021-09-09_10h28.23.401,forced_choiceRT,2021.1.2,Win32,60.08171113,,,,,,,,9,Slow,h,0,2.2561,1,2,6,3,1,,,,,
,0.87,,,,,,,,,j.PNG,j,610421096c1af729ade5aac1,2021-09-09_10h28.23.401,forced_choiceRT,2021.1.2,Win32,60.08171113,,,,,,,,9,Ontime,j,1,2.0364,1,3,7,3,1,,,,,
,0.77,,,,,,,,,g.PNG,g,610421096c1af729ade5aac1,2021-09-09_10h28.23.401,forced_choiceRT,2021.1.2,Win32,60.08171113,,,,,,,,9,Fast,g,1,1.8199,2,0,8,1,1,,,,,
,1.08,,,,,,,,,h.PNG,h,610421096c1af729ade5aac1,2021-09-09_10h28.23.401,forced_choiceRT,2021.1.2,Win32,60.08171113,,,,,,,,9,Slow,h,1,2.209,2,1,9,2,1,,,,,
,1.33,,,,,,,,,h.PNG,h,610421096c1af729ade5aac1,2021-09-09_10h28.23.401,forced_choiceRT,2021.1.2,Win32,60.08171113,,,,,,,,9,Fast,h,1,1.8889,2,2,10,2,1,,,,,
,1.85,,,,,,,,,j.PNG,j,610421096c1af729ade5aac1,2021-09-09_10h28.23.401,forced_choiceRT,2021.1.2,Win32,60.08171113,,,,,,,,9,Slow,h,0,2.2374,2,3,11,3,1,,,,,
,1.68,,,,,,,,,g.PNG,g,610421096c1af729ade5aac1,2021-09-09_10h28.23.401,forced_choiceRT,2021.1.2,Win32,60.08171113,,,,,,,,9,Slow,j,0,2.2336,3,0,12,1,1,,,,,
,0.32,,,,,,,,,g.PNG,g,610421096c1af729ade5aac1,2021-09-09_10h28.23.401,forced_choiceRT,2021.1.2,Win32,60.08171113,,,,,,,,9,Fast,g,1,1.7848,3,1,13,1,1,,,,,
,0.65,,,,,,,,,f.PNG,f,610421096c1af729ade5aac1,2021-09-09_10h28.23.401,forced_choiceRT,2021.1.2,Win32,60.08171113,,,,,,,,9,Ontime,f,1,2.0571,3,2,14,0,1,,,,,
,1.62,,,,,,,,,g.PNG,g,610421096c1af729ade5aac1,2021-09-09_10h28.23.401,forced_choiceRT,2021.1.2,Win32,60.08171113,,,,,,,,9,Slow,h,0,2.2772,3,3,15,1,1,,,,,
,1.57,,,,,,,,,h.PNG,h,610421096c1af729ade5aac1,2021-09-09_10h28.23.401,forced_choiceRT,2021.1.2,Win32,60.08171113,,,,,,,,9,Ontime,h,1,2.0978,4,0,16,2,1,,,,,
,0.78,,,,,,,,,g.PNG,g,610421096c1af729ade5aac1,2021-09-09_10h28.23.401,forced_choiceRT,2021.1.2,Win32,60.08171113,,,,,,,,9,Fast,g,1,1.8057,4,1,17,1,1,,,,,
,0.11,,,,,,,,,j.PNG,j,610421096c1af729ade5aac1,2021-09-09_10h28.23.401,forced_choiceRT,2021.1.2,Win32,60.08171113,,,,,,,,9,Ontime,j,1,1.9015,4,2,18,3,1,,,,,
,0.09,,,,,,,,,f.PNG,f,610421096c1af729ade5aac1,2021-09-09_10h28.23.401,forced_choiceRT,2021.1.2,Win32,60.08171113,,,,,,,,9,Ontime,f,1,1.9839,4,3,19,0,1,,,,,
,0.54,,,,,,,,,g.PNG,g,610421096c1af729ade5aac1,2021-09-09_10h28.23.401,forced_choiceRT,2021.1.2,Win32,60.08171113,,,,,,,,9,Ontime,g,1,2.0887,5,0,20,1,1,,,,,
,0.43,,,,,,,,,h.PNG,h,610421096c1af729ade5aac1,2021-09-09_10h28.23.401,forced_choiceRT,2021.1.2,Win32,60.08171113,,,,,,,,9,Ontime,h,1,2.02,5,1,21,2,1,,,,,
,0.65,,,,,,,,,f.PNG,f,610421096c1af729ade5aac1,2021-09-09_10h28.23.401,forced_choiceRT,2021.1.2,Win32,60.08171113,,,,,,,,9,Ontime,f,1,2.0512,5,2,22,0,1,,,,,
,1.86,,,,,,,,,h.PNG,h,610421096c1af729ade5aac1,2021-09-09_10h28.23.401,forced_choiceRT,2021.1.2,Win32,60.08171113,,,,,,,,9,Slow,g,0,2.2403,5,3,23,2,1,,,,,
,0.43,,,,,,,,,h.PNG,h,610421096c1af729ade5aac1,2021-09-09_10h28.23.401,forced_choiceRT,2021.1.2,Win32,60.08171113,,,,,,,,9,Ontime,h,1,1.9917,6,0,24,2,1,,,,,
,0.43,,,,,,,,,h.PNG,h,610421096c1af729ade5aac1,2021-09-09_10h28.23.401,forced_choiceRT,2021.1.2,Win32,60.08171113,,,,,,,,9,Ontime,h,1,1.9583,6,1,25,2,1,,,,,
,0.93,,,,,,,,,g.PNG,g,610421096c1af729ade5aac1,2021-09-09_10h28.23.401,forced_choiceRT,2021.1.2,Win32,60.08171113,,,,,,,,9,Ontime,g,1,1.944,6,2,26,1,1,,,,,
,1.38,,,,,,,,,j.PNG,j,610421096c1af729ade5aac1,2021-09-09_10h28.23.401,forced_choiceRT,2021.1.2,Win32,60.08171113,,,,,,,,9,Slow,j,1,2.199,6,3,27,3,1,,,,,
,0.84,,,,,,,,,j.PNG,j,610421096c1af729ade5aac1,2021-09-09_10h28.23.401,forced_choiceRT,2021.1.2,Win32,60.08171113,,,,,,,,9,Slow,j,1,2.1119,7,0,28,3,1,,,,,
,1.52,,,,,,,,,f.PNG,f,610421096c1af729ade5aac1,2021-09-09_10h28.23.401,forced_choiceRT,2021.1.2,Win32,60.08171113,,,,,,,,9,Ontime,f,1,1.9874,7,1,29,0,1,,,,,
,0.76,,,,,,,,,g.PNG,g,610421096c1af729ade5aac1,2021-09-09_10h28.23.401,forced_choiceRT,2021.1.2,Win32,60.08171113,,,,,,,,9,Ontime,g,1,1.9716,7,2,30,1,1,,,,,
,0.52,,,,,,,,,f.PNG,f,610421096c1af729ade5aac1,2021-09-09_10h28.23.401,forced_choiceRT,2021.1.2,Win32,60.08171113,,,,,,,,9,Ontime,f,1,2.0361,7,3,31,0,1,,,,,
,1.61,,,,,,,,,j.PNG,j,610421096c1af729ade5aac1,2021-09-09_10h28.23.401,forced_choiceRT,2021.1.2,Win32,60.08171113,,,,,,,,9,Slow,j,1,2.1973,8,0,32,3,1,,,,,
,0.33,,,,,,,,,g.PNG,g,610421096c1af729ade5aac1,2021-09-09_10h28.23.401,forced_choiceRT,2021.1.2,Win32,60.08171113,,,,,,,,9,Fast,g,1,1.8824,8,1,33,1,1,,,,,
,0.16,,,,,,,,,f.PNG,f,610421096c1af729ade5aac1,2021-09-09_10h28.23.401,forced_choiceRT,2021.1.2,Win32,60.08171113,,,,,,,,9,Ontime,f,1,2.0334,8,2,34,0,1,,,,,
,0.24,,,,,,,,,j.PNG,j,610421096c1af729ade5aac1,2021-09-09_10h28.23.401,forced_choiceRT,2021.1.2,Win32,60.08171113,,,,,,,,9,Ontime,j,1,1.981,8,3,35,3,1,,,,,
,1.76,,,,,,,,,h.PNG,h,610421096c1af729ade5aac1,2021-09-09_10h28.23.401,forced_choiceRT,2021.1.2,Win32,60.08171113,,,,,,,,9,Slow,j,0,2.1634,9,0,36,2,1,,,,,
,1.53,,,,,,,,,f.PNG,f,610421096c1af729ade5aac1,2021-09-09_10h28.23.401,forced_choiceRT,2021.1.2,Win32,60.08171113,,,,,,,,9,Slow,f,1,2.1496,9,1,37,0,1,,,,,
,0.7,,,,,,,,,j.PNG,j,610421096c1af729ade5aac1,2021-09-09_10h28.23.401,forced_choiceRT,2021.1.2,Win32,60.08171113,,,,,,,,9,Ontime,j,1,1.9149,9,2,38,3,1,,,,,
,0.26,,,,,,,,,f.PNG,f,610421096c1af729ade5aac1,2021-09-09_10h28.23.401,forced_choiceRT,2021.1.2,Win32,60.08171113,,,,,,,,9,Ontime,f,1,1.9885,9,3,39,0,1,,,,,
,,,,,,,,,,,,610421096c1af729ade5aac1,2021-09-09_10h28.23.401,forced_choiceRT,2021.1.2,Win32,60.08171113,,,,,,,,,,,,,,,,,,8,0,8,0,1
,1.77,,,,,,,,,g.PNG,g,610421096c1af729ade5aac1,2021-09-09_10h28.23.401,forced_choiceRT,2021.1.2,Win32,60.08171113,,,,,,,,10,Slow,f,0,2.196,0,0,0,1,1,,,,,
,1.84,,,,,,,,,h.PNG,h,610421096c1af729ade5aac1,2021-09-09_10h28.23.401,forced_choiceRT,2021.1.2,Win32,60.08171113,,,,,,,,10,Slow,h,1,2.1685,0,1,1,2,1,,,,,
,1.75,,,,,,,,,j.PNG,j,610421096c1af729ade5aac1,2021-09-09_10h28.23.401,forced_choiceRT,2021.1.2,Win32,60.08171113,,,,,,,,10,Slow,j,1,2.4135,0,2,2,3,1,,,,,
,0.64,,,,,,,,,j.PNG,j,610421096c1af729ade5aac1,2021-09-09_10h28.23.401,forced_choiceRT,2021.1.2,Win32,60.08171113,,,,,,,,10,Fast,j,1,1.3685,0,3,3,3,1,,,,,
,0.6,,,,,,,,,h.PNG,h,610421096c1af729ade5aac1,2021-09-09_10h28.23.401,forced_choiceRT,2021.1.2,Win32,60.08171113,,,,,,,,10,Fast,h,1,1.2891,1,0,4,2,1,,,,,
,1.75,,,,,,,,,f.PNG,f,610421096c1af729ade5aac1,2021-09-09_10h28.23.401,forced_choiceRT,2021.1.2,Win32,60.08171113,,,,,,,,10,Slow,f,1,2.3754,1,1,5,0,1,,,,,
,1.61,,,,,,,,,h.PNG,h,610421096c1af729ade5aac1,2021-09-09_10h28.23.401,forced_choiceRT,2021.1.2,Win32,60.08171113,,,,,,,,10,Ontime,j,0,2.0805,1,2,6,2,1,,,,,
,1.66,,,,,,,,,j.PNG,j,610421096c1af729ade5aac1,2021-09-09_10h28.23.401,forced_choiceRT,2021.1.2,Win32,60.08171113,,,,,,,,10,Ontime,h,0,2.0672,1,3,7,3,1,,,,,
,0.23,,,,,,,,,f.PNG,f,610421096c1af729ade5aac1,2021-09-09_10h28.23.401,forced_choiceRT,2021.1.2,Win32,60.08171113,,,,,,,,10,Fast,f,1,1.7264,2,0,8,0,1,,,,,
,0.65,,,,,,,,,f.PNG,f,610421096c1af729ade5aac1,2021-09-09_10h28.23.401,forced_choiceRT,2021.1.2,Win32,60.08171113,,,,,,,,10,Fast,f,1,1.0758,2,1,9,0,1,,,,,
,1.32,,,,,,,,,g.PNG,g,610421096c1af729ade5aac1,2021-09-09_10h28.23.401,forced_choiceRT,2021.1.2,Win32,60.08171113,,,,,,,,10,Ontime,h,0,1.9261,2,2,10,1,1,,,,,
,1.01,,,,,,,,,g.PNG,g,610421096c1af729ade5aac1,2021-09-09_10h28.23.401,forced_choiceRT,2021.1.2,Win32,60.08171113,,,,,,,,10,Fast,g,1,1.5396,2,3,11,1,1,,,,,
,1.32,,,,,,,,,h.PNG,h,610421096c1af729ade5aac1,2021-09-09_10h28.23.401,forced_choiceRT,2021.1.2,Win32,60.08171113,,,,,,,,10,Ontime,h,1,1.9003,3,0,12,2,1,,,,,
,0.03,,,,,,,,,f.PNG,f,610421096c1af729ade5aac1,2021-09-09_10h28.23.401,forced_choiceRT,2021.1.2,Win32,60.08171113,,,,,,,,10,Slow,f,1,2.116,3,1,13,0,1,,,,,
,1.91,,,,,,,,,f.PNG,f,610421096c1af729ade5aac1,2021-09-09_10h28.23.401,forced_choiceRT,2021.1.2,Win32,60.08171113,,,,,,,,10,Slow,h,0,2.2233,3,2,14,0,1,,,,,
,0.62,,,,,,,,,j.PNG,j,610421096c1af729ade5aac1,2021-09-09_10h28.23.401,forced_choiceRT,2021.1.2,Win32,60.08171113,,,,,,,,10,Ontime,j,1,2.0477,3,3,15,3,1,,,,,
,0.09,,,,,,,,,f.PNG,f,610421096c1af729ade5aac1,2021-09-09_10h28.23.401,forced_choiceRT,2021.1.2,Win32,60.08171113,,,,,,,,10,Ontime,f,1,2.0841,4,0,16,0,1,,,,,
,0.12,,,,,,,,,h.PNG,h,610421096c1af729ade5aac1,2021-09-09_10h28.23.401,forced_choiceRT,2021.1.2,Win32,60.08171113,,,,,,,,10,Slow,h,1,2.1132,4,1,17,2,1,,,,,
,0.55,,,,,,,,,f.PNG,f,610421096c1af729ade5aac1,2021-09-09_10h28.23.401,forced_choiceRT,2021.1.2,Win32,60.08171113,,,,,,,,10,Ontime,f,1,1.9482,4,2,18,0,1,,,,,
,0.61,,,,,,,,,g.PNG,g,610421096c1af729ade5aac1,2021-09-09_10h28.23.401,forced_choiceRT,2021.1.2,Win32,60.08171113,,,,,,,,10,Ontime,g,1,1.9478,4,3,19,1,1,,,,,
,0.45,,,,,,,,,h.PNG,h,610421096c1af729ade5aac1,2021-09-09_10h28.23.401,forced_choiceRT,2021.1.2,Win32,60.08171113,,,,,,,,10,Ontime,h,1,1.9347,5,0,20,2,1,,,,,
,0.19,,,,,,,,,h.PNG,h,610421096c1af729ade5aac1,2021-09-09_10h28.23.401,forced_choiceRT,2021.1.2,Win32,60.08171113,,,,,,,,10,Ontime,h,1,2.0008,5,1,21,2,1,,,,,
,1.55,,,,,,,,,f.PNG,f,610421096c1af729ade5aac1,2021-09-09_10h28.23.401,forced_choiceRT,2021.1.2,Win32,60.08171113,,,,,,,,10,Ontime,f,1,2.0699,5,2,22,0,1,,,,,
,1.03,,,,,,,,,g.PNG,g,610421096c1af729ade5aac1,2021-09-09_10h28.23.401,forced_choiceRT,2021.1.2,Win32,60.08171113,,,,,,,,10,Ontime,g,1,1.9744,5,3,23,1,1,,,,,
,0.28,,,,,,,,,g.PNG,g,610421096c1af729ade5aac1,2021-09-09_10h28.23.401,forced_choiceRT,2021.1.2,Win32,60.08171113,,,,,,,,10,Ontime,g,1,1.9284,6,0,24,1,1,,,,,
,0.69,,,,,,,,,j.PNG,j,610421096c1af729ade5aac1,2021-09-09_10h28.23.401,forced_choiceRT,2021.1.2,Win32,60.08171113,,,,,,,,10,Ontime,j,1,2.0354,6,1,25,3,1,,,,,
,1.66,,,,,,,,,g.PNG,g,610421096c1af729ade5aac1,2021-09-09_10h28.23.401,forced_choiceRT,2021.1.2,Win32,60.08171113,,,,,,,,10,Ontime,f,0,2.0425,6,2,26,1,1,,,,,
,0.82,,,,,,,,,g.PNG,g,610421096c1af729ade5aac1,2021-09-09_10h28.23.401,forced_choiceRT,2021.1.2,Win32,60.08171113,,,,,,,,10,Ontime,g,1,1.9157,6,3,27,1,1,,,,,
,0.2,,,,,,,,,h.PNG,h,610421096c1af729ade5aac1,2021-09-09_10h28.23.401,forced_choiceRT,2021.1.2,Win32,60.08171113,,,,,,,,10,Ontime,h,1,2.0773,7,0,28,2,1,,,,,
,0.8,,,,,,,,,j.PNG,j,610421096c1af729ade5aac1,2021-09-09_10h28.23.401,forced_choiceRT,2021.1.2,Win32,60.08171113,,,,,,,,10,Ontime,j,1,2.0992,7,1,29,3,1,,,,,
,1.89,,,,,,,,,h.PNG,h,610421096c1af729ade5aac1,2021-09-09_10h28.23.401,forced_choiceRT,2021.1.2,Win32,60.08171113,,,,,,,,10,Slow,g,0,2.1966,7,2,30,2,1,,,,,
,1.39,,,,,,,,,g.PNG,g,610421096c1af729ade5aac1,2021-09-09_10h28.23.401,forced_choiceRT,2021.1.2,Win32,60.08171113,,,,,,,,10,Ontime,g,1,1.9632,7,3,31,1,1,,,,,
,1.25,,,,,,,,,g.PNG,g,610421096c1af729ade5aac1,2021-09-09_10h28.23.401,forced_choiceRT,2021.1.2,Win32,60.08171113,,,,,,,,10,Ontime,h,0,1.9006,8,0,32,1,1,,,,,
,0.89,,,,,,,,,h.PNG,h,610421096c1af729ade5aac1,2021-09-09_10h28.23.401,forced_choiceRT,2021.1.2,Win32,60.08171113,,,,,,,,10,Fast,h,1,1.7518,8,1,33,2,1,,,,,
,1.05,,,,,,,,,j.PNG,j,610421096c1af729ade5aac1,2021-09-09_10h28.23.401,forced_choiceRT,2021.1.2,Win32,60.08171113,,,,,,,,10,Ontime,j,1,1.9586,8,2,34,3,1,,,,,
,1.09,,,,,,,,,j.PNG,j,610421096c1af729ade5aac1,2021-09-09_10h28.23.401,forced_choiceRT,2021.1.2,Win32,60.08171113,,,,,,,,10,Ontime,j,1,2.0147,8,3,35,3,1,,,,,
,0.83,,,,,,,,,j.PNG,j,610421096c1af729ade5aac1,2021-09-09_10h28.23.401,forced_choiceRT,2021.1.2,Win32,60.08171113,,,,,,,,10,Ontime,j,1,1.9108,9,0,36,3,1,,,,,
,0.37,,,,,,,,,f.PNG,f,610421096c1af729ade5aac1,2021-09-09_10h28.23.401,forced_choiceRT,2021.1.2,Win32,60.08171113,,,,,,,,10,Fast,f,1,1.8727,9,1,37,0,1,,,,,
,1.7,,,,,,,,,j.PNG,j,610421096c1af729ade5aac1,2021-09-09_10h28.23.401,forced_choiceRT,2021.1.2,Win32,60.08171113,,,,,,,,10,Slow,j,1,2.296,9,2,38,3,1,,,,,
,0.37,,,,,,,,,f.PNG,f,610421096c1af729ade5aac1,2021-09-09_10h28.23.401,forced_choiceRT,2021.1.2,Win32,60.08171113,,,,,,,,10,Fast,f,1,1.7328,9,3,39,0,1,,,,,
,,,,,,,,,,,,610421096c1af729ade5aac1,2021-09-09_10h28.23.401,forced_choiceRT,2021.1.2,Win32,60.08171113,,,,,,,,,,,,,,,,,,9,0,9,0,1
