IP_Addresss,target_onset,trial_resp_sp.keys,trial_resp_sp.corr,trial_resp_sp.rt,trials_train_loop.thisRepN,trials_train_loop.thisTrialN,trials_train_loop.thisN,trials_train_loop.thisIndex,trials_train_loop.ran,pic,correct_key,participant,date,expName,psychopyVersion,OS,frameRate,trial_resp_timing.keys,trial_resp_timing.rt,trials_train_timing.thisRepN,trials_train_timing.thisTrialN,trials_train_timing.thisN,trials_train_timing.thisIndex,trials_train_timing.ran,block_id,ontime,forcedRT_resp.keys,forcedRT_resp.corr,forcedRT_resp.rt,trials.thisRepN,trials.thisTrialN,trials.thisN,trials.thisIndex,trials.ran,blocks.thisRepN,blocks.thisTrialN,blocks.thisN,blocks.thisIndex,blocks.ran
73.68.171.67,0,g,1,2.585,0,0,0,1,1,g.PNG,g,61057c37788e6c17adc37517,2021-09-08_20h53.01.777,forced_choiceRT,2021.1.2,MacIntel,59.99880002,,,,,,,,,,,,,,,,,,,,,,
,0,g,1,2.0465,0,1,1,1,1,g.PNG,g,61057c37788e6c17adc37517,2021-09-08_20h53.01.777,forced_choiceRT,2021.1.2,MacIntel,59.99880002,,,,,,,,,,,,,,,,,,,,,,
,0,j,1,1.5991,0,2,2,3,1,j.PNG,j,61057c37788e6c17adc37517,2021-09-08_20h53.01.777,forced_choiceRT,2021.1.2,MacIntel,59.99880002,,,,,,,,,,,,,,,,,,,,,,
,0,g,1,2.32,0,3,3,1,1,g.PNG,g,61057c37788e6c17adc37517,2021-09-08_20h53.01.777,forced_choiceRT,2021.1.2,MacIntel,59.99880002,,,,,,,,,,,,,,,,,,,,,,
,0,h,1,1.5177,1,0,4,2,1,h.PNG,h,61057c37788e6c17adc37517,2021-09-08_20h53.01.777,forced_choiceRT,2021.1.2,MacIntel,59.99880002,,,,,,,,,,,,,,,,,,,,,,
,0,g,1,1.6163,1,1,5,1,1,g.PNG,g,61057c37788e6c17adc37517,2021-09-08_20h53.01.777,forced_choiceRT,2021.1.2,MacIntel,59.99880002,,,,,,,,,,,,,,,,,,,,,,
,0,g,1,0.9573,1,2,6,1,1,g.PNG,g,61057c37788e6c17adc37517,2021-09-08_20h53.01.777,forced_choiceRT,2021.1.2,MacIntel,59.99880002,,,,,,,,,,,,,,,,,,,,,,
,0,j,1,1.7336,1,3,7,3,1,j.PNG,j,61057c37788e6c17adc37517,2021-09-08_20h53.01.777,forced_choiceRT,2021.1.2,MacIntel,59.99880002,,,,,,,,,,,,,,,,,,,,,,
,0,g,1,1.0932,2,0,8,1,1,g.PNG,g,61057c37788e6c17adc37517,2021-09-08_20h53.01.777,forced_choiceRT,2021.1.2,MacIntel,59.99880002,,,,,,,,,,,,,,,,,,,,,,
,0,g,1,1.032,2,1,9,1,1,g.PNG,g,61057c37788e6c17adc37517,2021-09-08_20h53.01.777,forced_choiceRT,2021.1.2,MacIntel,59.99880002,,,,,,,,,,,,,,,,,,,,,,
,0,g,1,0.8517,2,2,10,1,1,g.PNG,g,61057c37788e6c17adc37517,2021-09-08_20h53.01.777,forced_choiceRT,2021.1.2,MacIntel,59.99880002,,,,,,,,,,,,,,,,,,,,,,
,0,h,0,1.3489,2,3,11,3,1,j.PNG,j,61057c37788e6c17adc37517,2021-09-08_20h53.01.777,forced_choiceRT,2021.1.2,MacIntel,59.99880002,,,,,,,,,,,,,,,,,,,,,,
,0,j,1,2.034,3,0,12,3,1,j.PNG,j,61057c37788e6c17adc37517,2021-09-08_20h53.01.777,forced_choiceRT,2021.1.2,MacIntel,59.99880002,,,,,,,,,,,,,,,,,,,,,,
,0,f,1,1.8295,3,1,13,0,1,f.PNG,f,61057c37788e6c17adc37517,2021-09-08_20h53.01.777,forced_choiceRT,2021.1.2,MacIntel,59.99880002,,,,,,,,,,,,,,,,,,,,,,
,0,h,1,1.4003,3,2,14,2,1,h.PNG,h,61057c37788e6c17adc37517,2021-09-08_20h53.01.777,forced_choiceRT,2021.1.2,MacIntel,59.99880002,,,,,,,,,,,,,,,,,,,,,,
,0,f,1,1.3062,3,3,15,0,1,f.PNG,f,61057c37788e6c17adc37517,2021-09-08_20h53.01.777,forced_choiceRT,2021.1.2,MacIntel,59.99880002,,,,,,,,,,,,,,,,,,,,,,
,0,h,1,2.6097,4,0,16,2,1,h.PNG,h,61057c37788e6c17adc37517,2021-09-08_20h53.01.777,forced_choiceRT,2021.1.2,MacIntel,59.99880002,,,,,,,,,,,,,,,,,,,,,,
,0,j,1,1.2891,4,1,17,3,1,j.PNG,j,61057c37788e6c17adc37517,2021-09-08_20h53.01.777,forced_choiceRT,2021.1.2,MacIntel,59.99880002,,,,,,,,,,,,,,,,,,,,,,
,0,h,1,1.2998,4,2,18,2,1,h.PNG,h,61057c37788e6c17adc37517,2021-09-08_20h53.01.777,forced_choiceRT,2021.1.2,MacIntel,59.99880002,,,,,,,,,,,,,,,,,,,,,,
,0,h,1,1.2692,4,3,19,2,1,h.PNG,h,61057c37788e6c17adc37517,2021-09-08_20h53.01.777,forced_choiceRT,2021.1.2,MacIntel,59.99880002,,,,,,,,,,,,,,,,,,,,,,
,0,g,1,0.8656,5,0,20,1,1,g.PNG,g,61057c37788e6c17adc37517,2021-09-08_20h53.01.777,forced_choiceRT,2021.1.2,MacIntel,59.99880002,,,,,,,,,,,,,,,,,,,,,,
,0,h,1,1.3329,5,1,21,2,1,h.PNG,h,61057c37788e6c17adc37517,2021-09-08_20h53.01.777,forced_choiceRT,2021.1.2,MacIntel,59.99880002,,,,,,,,,,,,,,,,,,,,,,
,0,f,1,1.1649,5,2,22,0,1,f.PNG,f,61057c37788e6c17adc37517,2021-09-08_20h53.01.777,forced_choiceRT,2021.1.2,MacIntel,59.99880002,,,,,,,,,,,,,,,,,,,,,,
,0,h,1,1.0319,5,3,23,2,1,h.PNG,h,61057c37788e6c17adc37517,2021-09-08_20h53.01.777,forced_choiceRT,2021.1.2,MacIntel,59.99880002,,,,,,,,,,,,,,,,,,,,,,
,0,g,1,1.0331,6,0,24,1,1,g.PNG,g,61057c37788e6c17adc37517,2021-09-08_20h53.01.777,forced_choiceRT,2021.1.2,MacIntel,59.99880002,,,,,,,,,,,,,,,,,,,,,,
,0,f,1,1.2513,6,1,25,0,1,f.PNG,f,61057c37788e6c17adc37517,2021-09-08_20h53.01.777,forced_choiceRT,2021.1.2,MacIntel,59.99880002,,,,,,,,,,,,,,,,,,,,,,
,0,h,1,1.567,6,2,26,2,1,h.PNG,h,61057c37788e6c17adc37517,2021-09-08_20h53.01.777,forced_choiceRT,2021.1.2,MacIntel,59.99880002,,,,,,,,,,,,,,,,,,,,,,
,0,h,1,1.9514,6,3,27,2,1,h.PNG,h,61057c37788e6c17adc37517,2021-09-08_20h53.01.777,forced_choiceRT,2021.1.2,MacIntel,59.99880002,,,,,,,,,,,,,,,,,,,,,,
,0,j,1,2.486,7,0,28,3,1,j.PNG,j,61057c37788e6c17adc37517,2021-09-08_20h53.01.777,forced_choiceRT,2021.1.2,MacIntel,59.99880002,,,,,,,,,,,,,,,,,,,,,,
,0,h,1,2.9652,7,1,29,2,1,h.PNG,h,61057c37788e6c17adc37517,2021-09-08_20h53.01.777,forced_choiceRT,2021.1.2,MacIntel,59.99880002,,,,,,,,,,,,,,,,,,,,,,
,0,g,1,1.1416,7,2,30,1,1,g.PNG,g,61057c37788e6c17adc37517,2021-09-08_20h53.01.777,forced_choiceRT,2021.1.2,MacIntel,59.99880002,,,,,,,,,,,,,,,,,,,,,,
,0,j,1,1.7262,7,3,31,3,1,j.PNG,j,61057c37788e6c17adc37517,2021-09-08_20h53.01.777,forced_choiceRT,2021.1.2,MacIntel,59.99880002,,,,,,,,,,,,,,,,,,,,,,
,0,j,1,1.0162,8,0,32,3,1,j.PNG,j,61057c37788e6c17adc37517,2021-09-08_20h53.01.777,forced_choiceRT,2021.1.2,MacIntel,59.99880002,,,,,,,,,,,,,,,,,,,,,,
,0,f,1,0.8592,8,1,33,0,1,f.PNG,f,61057c37788e6c17adc37517,2021-09-08_20h53.01.777,forced_choiceRT,2021.1.2,MacIntel,59.99880002,,,,,,,,,,,,,,,,,,,,,,
,0,f,1,0.8677,8,2,34,0,1,f.PNG,f,61057c37788e6c17adc37517,2021-09-08_20h53.01.777,forced_choiceRT,2021.1.2,MacIntel,59.99880002,,,,,,,,,,,,,,,,,,,,,,
,0,g,1,2.4183,8,3,35,1,1,g.PNG,g,61057c37788e6c17adc37517,2021-09-08_20h53.01.777,forced_choiceRT,2021.1.2,MacIntel,59.99880002,,,,,,,,,,,,,,,,,,,,,,
,0,j,1,1.6417,9,0,36,3,1,j.PNG,j,61057c37788e6c17adc37517,2021-09-08_20h53.01.777,forced_choiceRT,2021.1.2,MacIntel,59.99880002,,,,,,,,,,,,,,,,,,,,,,
,0,f,1,0.6497,9,1,37,0,1,f.PNG,f,61057c37788e6c17adc37517,2021-09-08_20h53.01.777,forced_choiceRT,2021.1.2,MacIntel,59.99880002,,,,,,,,,,,,,,,,,,,,,,
,0,f,1,0.7161,9,2,38,0,1,f.PNG,f,61057c37788e6c17adc37517,2021-09-08_20h53.01.777,forced_choiceRT,2021.1.2,MacIntel,59.99880002,,,,,,,,,,,,,,,,,,,,,,
,0,g,1,3.9986,9,3,39,1,1,g.PNG,g,61057c37788e6c17adc37517,2021-09-08_20h53.01.777,forced_choiceRT,2021.1.2,MacIntel,59.99880002,,,,,,,,,,,,,,,,,,,,,,
,0,j,1,1.8015,10,0,40,3,1,j.PNG,j,61057c37788e6c17adc37517,2021-09-08_20h53.01.777,forced_choiceRT,2021.1.2,MacIntel,59.99880002,,,,,,,,,,,,,,,,,,,,,,
,0,j,1,0.698,10,1,41,3,1,j.PNG,j,61057c37788e6c17adc37517,2021-09-08_20h53.01.777,forced_choiceRT,2021.1.2,MacIntel,59.99880002,,,,,,,,,,,,,,,,,,,,,,
,0,j,1,0.6001,10,2,42,3,1,j.PNG,j,61057c37788e6c17adc37517,2021-09-08_20h53.01.777,forced_choiceRT,2021.1.2,MacIntel,59.99880002,,,,,,,,,,,,,,,,,,,,,,
,0,h,1,0.9504,10,3,43,2,1,h.PNG,h,61057c37788e6c17adc37517,2021-09-08_20h53.01.777,forced_choiceRT,2021.1.2,MacIntel,59.99880002,,,,,,,,,,,,,,,,,,,,,,
,0,g,1,0.8532,11,0,44,1,1,g.PNG,g,61057c37788e6c17adc37517,2021-09-08_20h53.01.777,forced_choiceRT,2021.1.2,MacIntel,59.99880002,,,,,,,,,,,,,,,,,,,,,,
,0,g,1,0.532,11,1,45,1,1,g.PNG,g,61057c37788e6c17adc37517,2021-09-08_20h53.01.777,forced_choiceRT,2021.1.2,MacIntel,59.99880002,,,,,,,,,,,,,,,,,,,,,,
,0,f,1,0.6406,11,2,46,0,1,f.PNG,f,61057c37788e6c17adc37517,2021-09-08_20h53.01.777,forced_choiceRT,2021.1.2,MacIntel,59.99880002,,,,,,,,,,,,,,,,,,,,,,
,0,f,1,0.4498,11,3,47,0,1,f.PNG,f,61057c37788e6c17adc37517,2021-09-08_20h53.01.777,forced_choiceRT,2021.1.2,MacIntel,59.99880002,,,,,,,,,,,,,,,,,,,,,,
,0,f,1,0.4373,12,0,48,0,1,f.PNG,f,61057c37788e6c17adc37517,2021-09-08_20h53.01.777,forced_choiceRT,2021.1.2,MacIntel,59.99880002,,,,,,,,,,,,,,,,,,,,,,
,0,h,1,1.3183,12,1,49,2,1,h.PNG,h,61057c37788e6c17adc37517,2021-09-08_20h53.01.777,forced_choiceRT,2021.1.2,MacIntel,59.99880002,,,,,,,,,,,,,,,,,,,,,,
,0,h,1,0.4747,12,2,50,2,1,h.PNG,h,61057c37788e6c17adc37517,2021-09-08_20h53.01.777,forced_choiceRT,2021.1.2,MacIntel,59.99880002,,,,,,,,,,,,,,,,,,,,,,
,0,f,1,0.5328,12,3,51,0,1,f.PNG,f,61057c37788e6c17adc37517,2021-09-08_20h53.01.777,forced_choiceRT,2021.1.2,MacIntel,59.99880002,,,,,,,,,,,,,,,,,,,,,,
,0,g,0,0.5659,13,0,52,3,1,j.PNG,j,61057c37788e6c17adc37517,2021-09-08_20h53.01.777,forced_choiceRT,2021.1.2,MacIntel,59.99880002,,,,,,,,,,,,,,,,,,,,,,
,0,j,1,1.1506,13,1,53,3,1,j.PNG,j,61057c37788e6c17adc37517,2021-09-08_20h53.01.777,forced_choiceRT,2021.1.2,MacIntel,59.99880002,,,,,,,,,,,,,,,,,,,,,,
,0,f,1,0.8379,13,2,54,0,1,f.PNG,f,61057c37788e6c17adc37517,2021-09-08_20h53.01.777,forced_choiceRT,2021.1.2,MacIntel,59.99880002,,,,,,,,,,,,,,,,,,,,,,
,0,f,1,1.5518,13,3,55,0,1,f.PNG,f,61057c37788e6c17adc37517,2021-09-08_20h53.01.777,forced_choiceRT,2021.1.2,MacIntel,59.99880002,,,,,,,,,,,,,,,,,,,,,,
,0,h,1,1.9203,14,0,56,2,1,h.PNG,h,61057c37788e6c17adc37517,2021-09-08_20h53.01.777,forced_choiceRT,2021.1.2,MacIntel,59.99880002,,,,,,,,,,,,,,,,,,,,,,
,0,j,1,1.3977,14,1,57,3,1,j.PNG,j,61057c37788e6c17adc37517,2021-09-08_20h53.01.777,forced_choiceRT,2021.1.2,MacIntel,59.99880002,,,,,,,,,,,,,,,,,,,,,,
,0,h,1,1.0332,14,2,58,2,1,h.PNG,h,61057c37788e6c17adc37517,2021-09-08_20h53.01.777,forced_choiceRT,2021.1.2,MacIntel,59.99880002,,,,,,,,,,,,,,,,,,,,,,
,0,f,1,1.2193,14,3,59,0,1,f.PNG,f,61057c37788e6c17adc37517,2021-09-08_20h53.01.777,forced_choiceRT,2021.1.2,MacIntel,59.99880002,,,,,,,,,,,,,,,,,,,,,,
,,,,,,,,,,,,61057c37788e6c17adc37517,2021-09-08_20h53.01.777,forced_choiceRT,2021.1.2,MacIntel,59.99880002,h,7.5325,0,0,0,0,1,,,,,,,,,,,,,,,
,,,,,,,,,,,,61057c37788e6c17adc37517,2021-09-08_20h53.01.777,forced_choiceRT,2021.1.2,MacIntel,59.99880002,g,2.3182,1,0,1,0,1,,,,,,,,,,,,,,,
,,,,,,,,,,,,61057c37788e6c17adc37517,2021-09-08_20h53.01.777,forced_choiceRT,2021.1.2,MacIntel,59.99880002,f,2.2893,2,0,2,0,1,,,,,,,,,,,,,,,
,,,,,,,,,,,,61057c37788e6c17adc37517,2021-09-08_20h53.01.777,forced_choiceRT,2021.1.2,MacIntel,59.99880002,g,0.4665,3,0,3,0,1,,,,,,,,,,,,,,,
,,,,,,,,,,,,61057c37788e6c17adc37517,2021-09-08_20h53.01.777,forced_choiceRT,2021.1.2,MacIntel,59.99880002,g,0.8027,4,0,4,0,1,,,,,,,,,,,,,,,
,,,,,,,,,,,,61057c37788e6c17adc37517,2021-09-08_20h53.01.777,forced_choiceRT,2021.1.2,MacIntel,59.99880002,h,1.9387,5,0,5,0,1,,,,,,,,,,,,,,,
,,,,,,,,,,,,61057c37788e6c17adc37517,2021-09-08_20h53.01.777,forced_choiceRT,2021.1.2,MacIntel,59.99880002,h,1.8366,6,0,6,0,1,,,,,,,,,,,,,,,
,,,,,,,,,,,,61057c37788e6c17adc37517,2021-09-08_20h53.01.777,forced_choiceRT,2021.1.2,MacIntel,59.99880002,h,2.0759,7,0,7,0,1,,,,,,,,,,,,,,,
,,,,,,,,,,,,61057c37788e6c17adc37517,2021-09-08_20h53.01.777,forced_choiceRT,2021.1.2,MacIntel,59.99880002,h,2.0839,8,0,8,0,1,,,,,,,,,,,,,,,
,,,,,,,,,,,,61057c37788e6c17adc37517,2021-09-08_20h53.01.777,forced_choiceRT,2021.1.2,MacIntel,59.99880002,h,2.0507,9,0,9,0,1,,,,,,,,,,,,,,,
,,,,,,,,,,,,61057c37788e6c17adc37517,2021-09-08_20h53.01.777,forced_choiceRT,2021.1.2,MacIntel,59.99880002,h,2.1171,10,0,10,0,1,,,,,,,,,,,,,,,
,,,,,,,,,,,,61057c37788e6c17adc37517,2021-09-08_20h53.01.777,forced_choiceRT,2021.1.2,MacIntel,59.99880002,h,2.0708,11,0,11,0,1,,,,,,,,,,,,,,,
,,,,,,,,,,,,61057c37788e6c17adc37517,2021-09-08_20h53.01.777,forced_choiceRT,2021.1.2,MacIntel,59.99880002,h,1.9551,12,0,12,0,1,,,,,,,,,,,,,,,
,,,,,,,,,,,,61057c37788e6c17adc37517,2021-09-08_20h53.01.777,forced_choiceRT,2021.1.2,MacIntel,59.99880002,h,2.0711,13,0,13,0,1,,,,,,,,,,,,,,,
,,,,,,,,,,,,61057c37788e6c17adc37517,2021-09-08_20h53.01.777,forced_choiceRT,2021.1.2,MacIntel,59.99880002,h,2.0709,14,0,14,0,1,,,,,,,,,,,,,,,
,,,,,,,,,,,,61057c37788e6c17adc37517,2021-09-08_20h53.01.777,forced_choiceRT,2021.1.2,MacIntel,59.99880002,h,2.0233,15,0,15,0,1,,,,,,,,,,,,,,,
,,,,,,,,,,,,61057c37788e6c17adc37517,2021-09-08_20h53.01.777,forced_choiceRT,2021.1.2,MacIntel,59.99880002,h,2.1749,16,0,16,0,1,,,,,,,,,,,,,,,
,,,,,,,,,,,,61057c37788e6c17adc37517,2021-09-08_20h53.01.777,forced_choiceRT,2021.1.2,MacIntel,59.99880002,h,2.0442,17,0,17,0,1,,,,,,,,,,,,,,,
,,,,,,,,,,,,61057c37788e6c17adc37517,2021-09-08_20h53.01.777,forced_choiceRT,2021.1.2,MacIntel,59.99880002,h,1.9487,18,0,18,0,1,,,,,,,,,,,,,,,
,,,,,,,,,,,,61057c37788e6c17adc37517,2021-09-08_20h53.01.777,forced_choiceRT,2021.1.2,MacIntel,59.99880002,h,1.8719,19,0,19,0,1,,,,,,,,,,,,,,,
,0.98,,,,,,,,,g.PNG,g,61057c37788e6c17adc37517,2021-09-08_20h53.01.777,forced_choiceRT,2021.1.2,MacIntel,59.99880002,,,,,,,,1,Slow,g,1,2.1836,0,0,0,1,1,,,,,
,0.9,,,,,,,,,h.PNG,h,61057c37788e6c17adc37517,2021-09-08_20h53.01.777,forced_choiceRT,2021.1.2,MacIntel,59.99880002,,,,,,,,1,Ontime,h,1,1.9991,0,1,1,2,1,,,,,
,0.38,,,,,,,,,f.PNG,f,61057c37788e6c17adc37517,2021-09-08_20h53.01.777,forced_choiceRT,2021.1.2,MacIntel,59.99880002,,,,,,,,1,Ontime,f,1,2.0314,0,2,2,0,1,,,,,
,0.52,,,,,,,,,g.PNG,g,61057c37788e6c17adc37517,2021-09-08_20h53.01.777,forced_choiceRT,2021.1.2,MacIntel,59.99880002,,,,,,,,1,Ontime,g,1,2.0685,0,3,3,1,1,,,,,
,0.07,,,,,,,,,h.PNG,h,61057c37788e6c17adc37517,2021-09-08_20h53.01.777,forced_choiceRT,2021.1.2,MacIntel,59.99880002,,,,,,,,1,Fast,h,1,1.7679,1,0,4,2,1,,,,,
,0.89,,,,,,,,,j.PNG,j,61057c37788e6c17adc37517,2021-09-08_20h53.01.777,forced_choiceRT,2021.1.2,MacIntel,59.99880002,,,,,,,,1,Slow,j,1,2.1101,1,1,5,3,1,,,,,
,0.13,,,,,,,,,f.PNG,f,61057c37788e6c17adc37517,2021-09-08_20h53.01.777,forced_choiceRT,2021.1.2,MacIntel,59.99880002,,,,,,,,1,Ontime,f,1,2.0563,1,2,6,0,1,,,,,
,0.45,,,,,,,,,g.PNG,g,61057c37788e6c17adc37517,2021-09-08_20h53.01.777,forced_choiceRT,2021.1.2,MacIntel,59.99880002,,,,,,,,1,Ontime,g,1,2.05,1,3,7,1,1,,,,,
,0.03,,,,,,,,,j.PNG,j,61057c37788e6c17adc37517,2021-09-08_20h53.01.777,forced_choiceRT,2021.1.2,MacIntel,59.99880002,,,,,,,,1,Slow,j,1,2.1501,2,0,8,3,1,,,,,
,0.78,,,,,,,,,g.PNG,g,61057c37788e6c17adc37517,2021-09-08_20h53.01.777,forced_choiceRT,2021.1.2,MacIntel,59.99880002,,,,,,,,1,Ontime,g,1,2.0732,2,1,9,1,1,,,,,
,0.05,,,,,,,,,j.PNG,j,61057c37788e6c17adc37517,2021-09-08_20h53.01.777,forced_choiceRT,2021.1.2,MacIntel,59.99880002,,,,,,,,1,Ontime,j,1,1.9668,2,2,10,3,1,,,,,
,1.57,,,,,,,,,j.PNG,j,61057c37788e6c17adc37517,2021-09-08_20h53.01.777,forced_choiceRT,2021.1.2,MacIntel,59.99880002,,,,,,,,1,Slow,g,0,2.3389,2,3,11,3,1,,,,,
,0.74,,,,,,,,,j.PNG,j,61057c37788e6c17adc37517,2021-09-08_20h53.01.777,forced_choiceRT,2021.1.2,MacIntel,59.99880002,,,,,,,,1,Ontime,j,1,2.0992,3,0,12,3,1,,,,,
,0.62,,,,,,,,,f.PNG,f,61057c37788e6c17adc37517,2021-09-08_20h53.01.777,forced_choiceRT,2021.1.2,MacIntel,59.99880002,,,,,,,,1,Ontime,f,1,2.0883,3,1,13,0,1,,,,,
,1.28,,,,,,,,,h.PNG,h,61057c37788e6c17adc37517,2021-09-08_20h53.01.777,forced_choiceRT,2021.1.2,MacIntel,59.99880002,,,,,,,,1,Slow,h,1,2.1705,3,2,14,2,1,,,,,
,1.26,,,,,,,,,j.PNG,j,61057c37788e6c17adc37517,2021-09-08_20h53.01.777,forced_choiceRT,2021.1.2,MacIntel,59.99880002,,,,,,,,1,Slow,j,1,7.434,3,3,15,3,1,,,,,
,1.28,,,,,,,,,h.PNG,h,61057c37788e6c17adc37517,2021-09-08_20h53.01.777,forced_choiceRT,2021.1.2,MacIntel,59.99880002,,,,,,,,1,Slow,h,1,2.1502,4,0,16,2,1,,,,,
,1.19,,,,,,,,,h.PNG,h,61057c37788e6c17adc37517,2021-09-08_20h53.01.777,forced_choiceRT,2021.1.2,MacIntel,59.99880002,,,,,,,,1,Ontime,h,1,1.9838,4,1,17,2,1,,,,,
,0.15,,,,,,,,,f.PNG,f,61057c37788e6c17adc37517,2021-09-08_20h53.01.777,forced_choiceRT,2021.1.2,MacIntel,59.99880002,,,,,,,,1,Ontime,f,1,1.919,4,2,18,0,1,,,,,
,0.04,,,,,,,,,f.PNG,f,61057c37788e6c17adc37517,2021-09-08_20h53.01.777,forced_choiceRT,2021.1.2,MacIntel,59.99880002,,,,,,,,1,Ontime,f,1,2.0239,4,3,19,0,1,,,,,
,0.77,,,,,,,,,j.PNG,j,61057c37788e6c17adc37517,2021-09-08_20h53.01.777,forced_choiceRT,2021.1.2,MacIntel,59.99880002,,,,,,,,1,Ontime,j,1,1.9985,5,0,20,3,1,,,,,
,0.11,,,,,,,,,j.PNG,j,61057c37788e6c17adc37517,2021-09-08_20h53.01.777,forced_choiceRT,2021.1.2,MacIntel,59.99880002,,,,,,,,1,Ontime,j,1,2.0274,5,1,21,3,1,,,,,
,1.6,,,,,,,,,f.PNG,f,61057c37788e6c17adc37517,2021-09-08_20h53.01.777,forced_choiceRT,2021.1.2,MacIntel,59.99880002,,,,,,,,1,Slow,g,0,2.2163,5,2,22,0,1,,,,,
,0.68,,,,,,,,,h.PNG,h,61057c37788e6c17adc37517,2021-09-08_20h53.01.777,forced_choiceRT,2021.1.2,MacIntel,59.99880002,,,,,,,,1,Slow,h,1,2.1482,5,3,23,2,1,,,,,
,0.6,,,,,,,,,f.PNG,f,61057c37788e6c17adc37517,2021-09-08_20h53.01.777,forced_choiceRT,2021.1.2,MacIntel,59.99880002,,,,,,,,1,Ontime,f,1,2.0024,6,0,24,0,1,,,,,
,0.15,,,,,,,,,j.PNG,j,61057c37788e6c17adc37517,2021-09-08_20h53.01.777,forced_choiceRT,2021.1.2,MacIntel,59.99880002,,,,,,,,1,Slow,j,1,2.1025,6,1,25,3,1,,,,,
,1.74,,,,,,,,,g.PNG,g,61057c37788e6c17adc37517,2021-09-08_20h53.01.777,forced_choiceRT,2021.1.2,MacIntel,59.99880002,,,,,,,,1,Slow,g,1,2.2994,6,2,26,1,1,,,,,
,1.58,,,,,,,,,f.PNG,f,61057c37788e6c17adc37517,2021-09-08_20h53.01.777,forced_choiceRT,2021.1.2,MacIntel,59.99880002,,,,,,,,1,Slow,f,1,2.1319,6,3,27,0,1,,,,,
,1.06,,,,,,,,,g.PNG,g,61057c37788e6c17adc37517,2021-09-08_20h53.01.777,forced_choiceRT,2021.1.2,MacIntel,59.99880002,,,,,,,,1,Ontime,g,1,1.9996,7,0,28,1,1,,,,,
,0.22,,,,,,,,,f.PNG,f,61057c37788e6c17adc37517,2021-09-08_20h53.01.777,forced_choiceRT,2021.1.2,MacIntel,59.99880002,,,,,,,,1,Ontime,f,1,1.9819,7,1,29,0,1,,,,,
,0.08,,,,,,,,,g.PNG,g,61057c37788e6c17adc37517,2021-09-08_20h53.01.777,forced_choiceRT,2021.1.2,MacIntel,59.99880002,,,,,,,,1,Ontime,g,1,2.0004,7,2,30,1,1,,,,,
,0.82,,,,,,,,,f.PNG,f,61057c37788e6c17adc37517,2021-09-08_20h53.01.777,forced_choiceRT,2021.1.2,MacIntel,59.99880002,,,,,,,,1,Ontime,f,1,2.0813,7,3,31,0,1,,,,,
,0.26,,,,,,,,,g.PNG,g,61057c37788e6c17adc37517,2021-09-08_20h53.01.777,forced_choiceRT,2021.1.2,MacIntel,59.99880002,,,,,,,,1,Ontime,g,1,1.983,8,0,32,1,1,,,,,
,0.36,,,,,,,,,h.PNG,h,61057c37788e6c17adc37517,2021-09-08_20h53.01.777,forced_choiceRT,2021.1.2,MacIntel,59.99880002,,,,,,,,1,Ontime,h,1,2.0251,8,1,33,2,1,,,,,
,1.07,,,,,,,,,j.PNG,j,61057c37788e6c17adc37517,2021-09-08_20h53.01.777,forced_choiceRT,2021.1.2,MacIntel,59.99880002,,,,,,,,1,Slow,j,1,2.1161,8,2,34,3,1,,,,,
,1.16,,,,,,,,,g.PNG,g,61057c37788e6c17adc37517,2021-09-08_20h53.01.777,forced_choiceRT,2021.1.2,MacIntel,59.99880002,,,,,,,,1,Slow,g,1,2.1171,8,3,35,1,1,,,,,
,1.37,,,,,,,,,h.PNG,h,61057c37788e6c17adc37517,2021-09-08_20h53.01.777,forced_choiceRT,2021.1.2,MacIntel,59.99880002,,,,,,,,1,Slow,h,1,2.1362,9,0,36,2,1,,,,,
,0.99,,,,,,,,,g.PNG,g,61057c37788e6c17adc37517,2021-09-08_20h53.01.777,forced_choiceRT,2021.1.2,MacIntel,59.99880002,,,,,,,,1,Ontime,g,1,1.9827,9,1,37,1,1,,,,,
,1.05,,,,,,,,,h.PNG,h,61057c37788e6c17adc37517,2021-09-08_20h53.01.777,forced_choiceRT,2021.1.2,MacIntel,59.99880002,,,,,,,,1,Ontime,h,1,1.9844,9,2,38,2,1,,,,,
,0.82,,,,,,,,,h.PNG,h,61057c37788e6c17adc37517,2021-09-08_20h53.01.777,forced_choiceRT,2021.1.2,MacIntel,59.99880002,,,,,,,,1,Ontime,h,1,2.051,9,3,39,2,1,,,,,
,,,,,,,,,,,,61057c37788e6c17adc37517,2021-09-08_20h53.01.777,forced_choiceRT,2021.1.2,MacIntel,59.99880002,,,,,,,,,,,,,,,,,,0,0,0,0,1
,1.21,,,,,,,,,h.PNG,h,61057c37788e6c17adc37517,2021-09-08_20h53.01.777,forced_choiceRT,2021.1.2,MacIntel,59.99880002,,,,,,,,2,Slow,h,1,2.1609,0,0,0,2,1,,,,,
,0.61,,,,,,,,,g.PNG,g,61057c37788e6c17adc37517,2021-09-08_20h53.01.777,forced_choiceRT,2021.1.2,MacIntel,59.99880002,,,,,,,,2,Ontime,g,1,2.0087,0,1,1,1,1,,,,,
,0.56,,,,,,,,,h.PNG,h,61057c37788e6c17adc37517,2021-09-08_20h53.01.777,forced_choiceRT,2021.1.2,MacIntel,59.99880002,,,,,,,,2,Slow,h,1,2.1189,0,2,2,2,1,,,,,
,1.51,,,,,,,,,f.PNG,f,61057c37788e6c17adc37517,2021-09-08_20h53.01.777,forced_choiceRT,2021.1.2,MacIntel,59.99880002,,,,,,,,2,Ontime,f,1,2.0376,0,3,3,0,1,,,,,
,0.49,,,,,,,,,j.PNG,j,61057c37788e6c17adc37517,2021-09-08_20h53.01.777,forced_choiceRT,2021.1.2,MacIntel,59.99880002,,,,,,,,2,Ontime,j,1,2.0839,1,0,4,3,1,,,,,
,1.75,,,,,,,,,g.PNG,g,61057c37788e6c17adc37517,2021-09-08_20h53.01.777,forced_choiceRT,2021.1.2,MacIntel,59.99880002,,,,,,,,2,Slow,g,1,2.2487,1,1,5,1,1,,,,,
,0.42,,,,,,,,,f.PNG,f,61057c37788e6c17adc37517,2021-09-08_20h53.01.777,forced_choiceRT,2021.1.2,MacIntel,59.99880002,,,,,,,,2,Slow,f,1,2.104,1,2,6,0,1,,,,,
,0.9,,,,,,,,,j.PNG,j,61057c37788e6c17adc37517,2021-09-08_20h53.01.777,forced_choiceRT,2021.1.2,MacIntel,59.99880002,,,,,,,,2,Slow,h,0,2.1977,1,3,7,3,1,,,,,
,0.8,,,,,,,,,f.PNG,f,61057c37788e6c17adc37517,2021-09-08_20h53.01.777,forced_choiceRT,2021.1.2,MacIntel,59.99880002,,,,,,,,2,Ontime,f,1,2.0665,2,0,8,0,1,,,,,
,0.9,,,,,,,,,h.PNG,h,61057c37788e6c17adc37517,2021-09-08_20h53.01.777,forced_choiceRT,2021.1.2,MacIntel,59.99880002,,,,,,,,2,Ontime,h,1,2.0356,2,1,9,2,1,,,,,
,1.53,,,,,,,,,j.PNG,j,61057c37788e6c17adc37517,2021-09-08_20h53.01.777,forced_choiceRT,2021.1.2,MacIntel,59.99880002,,,,,,,,2,Ontime,h,0,2.067,2,2,10,3,1,,,,,
,1.14,,,,,,,,,f.PNG,f,61057c37788e6c17adc37517,2021-09-08_20h53.01.777,forced_choiceRT,2021.1.2,MacIntel,59.99880002,,,,,,,,2,Ontime,f,1,1.9863,2,3,11,0,1,,,,,
,1.51,,,,,,,,,j.PNG,j,61057c37788e6c17adc37517,2021-09-08_20h53.01.777,forced_choiceRT,2021.1.2,MacIntel,59.99880002,,,,,,,,2,Ontime,h,0,2.0675,3,0,12,3,1,,,,,
,1.66,,,,,,,,,f.PNG,f,61057c37788e6c17adc37517,2021-09-08_20h53.01.777,forced_choiceRT,2021.1.2,MacIntel,59.99880002,,,,,,,,2,Slow,g,0,2.1175,3,1,13,0,1,,,,,
,1.66,,,,,,,,,j.PNG,j,61057c37788e6c17adc37517,2021-09-08_20h53.01.777,forced_choiceRT,2021.1.2,MacIntel,59.99880002,,,,,,,,2,Ontime,f,0,1.9933,3,2,14,3,1,,,,,
,0.32,,,,,,,,,g.PNG,g,61057c37788e6c17adc37517,2021-09-08_20h53.01.777,forced_choiceRT,2021.1.2,MacIntel,59.99880002,,,,,,,,2,Fast,g,1,1.8704,3,3,15,1,1,,,,,
,1.74,,,,,,,,,h.PNG,h,61057c37788e6c17adc37517,2021-09-08_20h53.01.777,forced_choiceRT,2021.1.2,MacIntel,59.99880002,,,,,,,,2,Ontime,h,1,2.0516,4,0,16,2,1,,,,,
,0.94,,,,,,,,,f.PNG,f,61057c37788e6c17adc37517,2021-09-08_20h53.01.777,forced_choiceRT,2021.1.2,MacIntel,59.99880002,,,,,,,,2,Ontime,f,1,2.0393,4,1,17,0,1,,,,,
,1.33,,,,,,,,,f.PNG,f,61057c37788e6c17adc37517,2021-09-08_20h53.01.777,forced_choiceRT,2021.1.2,MacIntel,59.99880002,,,,,,,,2,Ontime,f,1,1.9573,4,2,18,0,1,,,,,
,0.56,,,,,,,,,h.PNG,h,61057c37788e6c17adc37517,2021-09-08_20h53.01.777,forced_choiceRT,2021.1.2,MacIntel,59.99880002,,,,,,,,2,Slow,h,1,2.1353,4,3,19,2,1,,,,,
,0.84,,,,,,,,,g.PNG,g,61057c37788e6c17adc37517,2021-09-08_20h53.01.777,forced_choiceRT,2021.1.2,MacIntel,59.99880002,,,,,,,,2,Ontime,g,1,1.9925,5,0,20,1,1,,,,,
,0.46,,,,,,,,,h.PNG,h,61057c37788e6c17adc37517,2021-09-08_20h53.01.777,forced_choiceRT,2021.1.2,MacIntel,59.99880002,,,,,,,,2,Ontime,h,1,2.0517,5,1,21,2,1,,,,,
,1.57,,,,,,,,,f.PNG,f,61057c37788e6c17adc37517,2021-09-08_20h53.01.777,forced_choiceRT,2021.1.2,MacIntel,59.99880002,,,,,,,,2,Ontime,f,1,2.0579,5,2,22,0,1,,,,,
,0.17,,,,,,,,,h.PNG,h,61057c37788e6c17adc37517,2021-09-08_20h53.01.777,forced_choiceRT,2021.1.2,MacIntel,59.99880002,,,,,,,,2,Ontime,h,1,2.0176,5,3,23,2,1,,,,,
,0.49,,,,,,,,,h.PNG,h,61057c37788e6c17adc37517,2021-09-08_20h53.01.777,forced_choiceRT,2021.1.2,MacIntel,59.99880002,,,,,,,,2,Slow,h,1,2.1161,6,0,24,2,1,,,,,
,1.54,,,,,,,,,f.PNG,f,61057c37788e6c17adc37517,2021-09-08_20h53.01.777,forced_choiceRT,2021.1.2,MacIntel,59.99880002,,,,,,,,2,Ontime,f,1,1.9991,6,1,25,0,1,,,,,
,1.17,,,,,,,,,g.PNG,g,61057c37788e6c17adc37517,2021-09-08_20h53.01.777,forced_choiceRT,2021.1.2,MacIntel,59.99880002,,,,,,,,2,Ontime,g,1,2.0835,6,2,26,1,1,,,,,
,1.82,,,,,,,,,g.PNG,g,61057c37788e6c17adc37517,2021-09-08_20h53.01.777,forced_choiceRT,2021.1.2,MacIntel,59.99880002,,,,,,,,2,Slow,h,0,2.1326,6,3,27,1,1,,,,,
,1.18,,,,,,,,,h.PNG,h,61057c37788e6c17adc37517,2021-09-08_20h53.01.777,forced_choiceRT,2021.1.2,MacIntel,59.99880002,,,,,,,,2,Fast,h,1,1.7557,7,0,28,2,1,,,,,
,0.45,,,,,,,,,j.PNG,j,61057c37788e6c17adc37517,2021-09-08_20h53.01.777,forced_choiceRT,2021.1.2,MacIntel,59.99880002,,,,,,,,2,Ontime,j,1,1.9177,7,1,29,3,1,,,,,
,1.26,,,,,,,,,g.PNG,g,61057c37788e6c17adc37517,2021-09-08_20h53.01.777,forced_choiceRT,2021.1.2,MacIntel,59.99880002,,,,,,,,2,Ontime,g,1,2.0159,7,2,30,1,1,,,,,
,0.57,,,,,,,,,j.PNG,j,61057c37788e6c17adc37517,2021-09-08_20h53.01.777,forced_choiceRT,2021.1.2,MacIntel,59.99880002,,,,,,,,2,Slow,j,1,3.4565,7,3,31,3,1,,,,,
,1.84,,,,,,,,,j.PNG,j,61057c37788e6c17adc37517,2021-09-08_20h53.01.777,forced_choiceRT,2021.1.2,MacIntel,59.99880002,,,,,,,,2,Slow,h,0,2.1987,8,0,32,3,1,,,,,
,1.58,,,,,,,,,j.PNG,j,61057c37788e6c17adc37517,2021-09-08_20h53.01.777,forced_choiceRT,2021.1.2,MacIntel,59.99880002,,,,,,,,2,Ontime,h,0,2.0331,8,1,33,3,1,,,,,
,0.86,,,,,,,,,g.PNG,g,61057c37788e6c17adc37517,2021-09-08_20h53.01.777,forced_choiceRT,2021.1.2,MacIntel,59.99880002,,,,,,,,2,Ontime,g,1,1.9504,8,2,34,1,1,,,,,
,0.53,,,,,,,,,j.PNG,j,61057c37788e6c17adc37517,2021-09-08_20h53.01.777,forced_choiceRT,2021.1.2,MacIntel,59.99880002,,,,,,,,2,Slow,j,1,2.2108,8,3,35,3,1,,,,,
,1.35,,,,,,,,,f.PNG,f,61057c37788e6c17adc37517,2021-09-08_20h53.01.777,forced_choiceRT,2021.1.2,MacIntel,59.99880002,,,,,,,,2,Ontime,f,1,1.9233,9,0,36,0,1,,,,,
,1.93,,,,,,,,,g.PNG,g,61057c37788e6c17adc37517,2021-09-08_20h53.01.777,forced_choiceRT,2021.1.2,MacIntel,59.99880002,,,,,,,,2,Slow,h,0,2.2211,9,1,37,1,1,,,,,
,0.53,,,,,,,,,h.PNG,h,61057c37788e6c17adc37517,2021-09-08_20h53.01.777,forced_choiceRT,2021.1.2,MacIntel,59.99880002,,,,,,,,2,Ontime,h,1,1.9829,9,2,38,2,1,,,,,
,0.38,,,,,,,,,g.PNG,g,61057c37788e6c17adc37517,2021-09-08_20h53.01.777,forced_choiceRT,2021.1.2,MacIntel,59.99880002,,,,,,,,2,Ontime,g,1,1.9683,9,3,39,1,1,,,,,
,,,,,,,,,,,,61057c37788e6c17adc37517,2021-09-08_20h53.01.777,forced_choiceRT,2021.1.2,MacIntel,59.99880002,,,,,,,,,,,,,,,,,,1,0,1,0,1
,1.56,,,,,,,,,j.PNG,j,61057c37788e6c17adc37517,2021-09-08_20h53.01.777,forced_choiceRT,2021.1.2,MacIntel,59.99880002,,,,,,,,3,Ontime,h,0,2.037,0,0,0,3,1,,,,,
,1.83,,,,,,,,,j.PNG,j,61057c37788e6c17adc37517,2021-09-08_20h53.01.777,forced_choiceRT,2021.1.2,MacIntel,59.99880002,,,,,,,,3,Slow,j,1,2.2364,0,1,1,3,1,,,,,
,0.63,,,,,,,,,h.PNG,h,61057c37788e6c17adc37517,2021-09-08_20h53.01.777,forced_choiceRT,2021.1.2,MacIntel,59.99880002,,,,,,,,3,Ontime,h,1,2.0366,0,2,2,2,1,,,,,
,0.42,,,,,,,,,h.PNG,h,61057c37788e6c17adc37517,2021-09-08_20h53.01.777,forced_choiceRT,2021.1.2,MacIntel,59.99880002,,,,,,,,3,Ontime,h,1,2.0361,0,3,3,2,1,,,,,
,0.09,,,,,,,,,g.PNG,g,61057c37788e6c17adc37517,2021-09-08_20h53.01.777,forced_choiceRT,2021.1.2,MacIntel,59.99880002,,,,,,,,3,Ontime,g,1,2.0494,1,0,4,1,1,,,,,
,0.27,,,,,,,,,h.PNG,h,61057c37788e6c17adc37517,2021-09-08_20h53.01.777,forced_choiceRT,2021.1.2,MacIntel,59.99880002,,,,,,,,3,Ontime,h,1,2.0014,1,1,5,2,1,,,,,
,1.25,,,,,,,,,h.PNG,h,61057c37788e6c17adc37517,2021-09-08_20h53.01.777,forced_choiceRT,2021.1.2,MacIntel,59.99880002,,,,,,,,3,Ontime,h,1,2.0678,1,2,6,2,1,,,,,
,1.23,,,,,,,,,j.PNG,j,61057c37788e6c17adc37517,2021-09-08_20h53.01.777,forced_choiceRT,2021.1.2,MacIntel,59.99880002,,,,,,,,3,Ontime,h,0,2.0325,1,3,7,3,1,,,,,
,0.5,,,,,,,,,j.PNG,j,61057c37788e6c17adc37517,2021-09-08_20h53.01.777,forced_choiceRT,2021.1.2,MacIntel,59.99880002,,,,,,,,3,Slow,j,1,2.1672,2,0,8,3,1,,,,,
,0.62,,,,,,,,,h.PNG,h,61057c37788e6c17adc37517,2021-09-08_20h53.01.777,forced_choiceRT,2021.1.2,MacIntel,59.99880002,,,,,,,,3,Ontime,h,1,2.0334,2,1,9,2,1,,,,,
,1.97,,,,,,,,,g.PNG,g,61057c37788e6c17adc37517,2021-09-08_20h53.01.777,forced_choiceRT,2021.1.2,MacIntel,59.99880002,,,,,,,,3,Slow,j,0,2.2338,2,2,10,1,1,,,,,
,1.6,,,,,,,,,g.PNG,g,61057c37788e6c17adc37517,2021-09-08_20h53.01.777,forced_choiceRT,2021.1.2,MacIntel,59.99880002,,,,,,,,3,Ontime,j,0,1.9844,2,3,11,1,1,,,,,
,1.85,,,,,,,,,f.PNG,f,61057c37788e6c17adc37517,2021-09-08_20h53.01.777,forced_choiceRT,2021.1.2,MacIntel,59.99880002,,,,,,,,3,Ontime,g,0,2.0984,3,0,12,0,1,,,,,
,1.09,,,,,,,,,f.PNG,f,61057c37788e6c17adc37517,2021-09-08_20h53.01.777,forced_choiceRT,2021.1.2,MacIntel,59.99880002,,,,,,,,3,Fast,f,1,1.8871,3,1,13,0,1,,,,,
,0.19,,,,,,,,,j.PNG,j,61057c37788e6c17adc37517,2021-09-08_20h53.01.777,forced_choiceRT,2021.1.2,MacIntel,59.99880002,,,,,,,,3,Ontime,j,1,1.9583,3,2,14,3,1,,,,,
,1.73,,,,,,,,,j.PNG,j,61057c37788e6c17adc37517,2021-09-08_20h53.01.777,forced_choiceRT,2021.1.2,MacIntel,59.99880002,,,,,,,,3,Ontime,f,0,1.933,3,3,15,3,1,,,,,
,0.55,,,,,,,,,h.PNG,h,61057c37788e6c17adc37517,2021-09-08_20h53.01.777,forced_choiceRT,2021.1.2,MacIntel,59.99880002,,,,,,,,3,Slow,h,1,2.1022,4,0,16,2,1,,,,,
,1.26,,,,,,,,,h.PNG,h,61057c37788e6c17adc37517,2021-09-08_20h53.01.777,forced_choiceRT,2021.1.2,MacIntel,59.99880002,,,,,,,,3,Fast,h,1,1.8188,4,1,17,2,1,,,,,
,0.4,,,,,,,,,h.PNG,h,61057c37788e6c17adc37517,2021-09-08_20h53.01.777,forced_choiceRT,2021.1.2,MacIntel,59.99880002,,,,,,,,3,Slow,h,1,2.1338,4,2,18,2,1,,,,,
,0.29,,,,,,,,,g.PNG,g,61057c37788e6c17adc37517,2021-09-08_20h53.01.777,forced_choiceRT,2021.1.2,MacIntel,59.99880002,,,,,,,,3,Ontime,g,1,2.0908,4,3,19,1,1,,,,,
,0.36,,,,,,,,,f.PNG,f,61057c37788e6c17adc37517,2021-09-08_20h53.01.777,forced_choiceRT,2021.1.2,MacIntel,59.99880002,,,,,,,,3,Ontime,f,1,2.0164,5,0,20,0,1,,,,,
,0.97,,,,,,,,,j.PNG,j,61057c37788e6c17adc37517,2021-09-08_20h53.01.777,forced_choiceRT,2021.1.2,MacIntel,59.99880002,,,,,,,,3,Slow,j,1,2.1153,5,1,21,3,1,,,,,
,0.71,,,,,,,,,j.PNG,j,61057c37788e6c17adc37517,2021-09-08_20h53.01.777,forced_choiceRT,2021.1.2,MacIntel,59.99880002,,,,,,,,3,Ontime,j,1,1.9986,5,2,22,3,1,,,,,
,0.85,,,,,,,,,g.PNG,g,61057c37788e6c17adc37517,2021-09-08_20h53.01.777,forced_choiceRT,2021.1.2,MacIntel,59.99880002,,,,,,,,3,Ontime,g,1,2.0092,5,3,23,1,1,,,,,
,1.22,,,,,,,,,j.PNG,j,61057c37788e6c17adc37517,2021-09-08_20h53.01.777,forced_choiceRT,2021.1.2,MacIntel,59.99880002,,,,,,,,3,Ontime,j,1,2.0842,6,0,24,3,1,,,,,
,0.85,,,,,,,,,g.PNG,g,61057c37788e6c17adc37517,2021-09-08_20h53.01.777,forced_choiceRT,2021.1.2,MacIntel,59.99880002,,,,,,,,3,Ontime,g,1,2.0317,6,1,25,1,1,,,,,
,0.17,,,,,,,,,h.PNG,h,61057c37788e6c17adc37517,2021-09-08_20h53.01.777,forced_choiceRT,2021.1.2,MacIntel,59.99880002,,,,,,,,3,Ontime,h,1,2.0092,6,2,26,2,1,,,,,
,1.42,,,,,,,,,g.PNG,g,61057c37788e6c17adc37517,2021-09-08_20h53.01.777,forced_choiceRT,2021.1.2,MacIntel,59.99880002,,,,,,,,3,Ontime,f,0,1.9354,6,3,27,1,1,,,,,
,1.81,,,,,,,,,f.PNG,f,61057c37788e6c17adc37517,2021-09-08_20h53.01.777,forced_choiceRT,2021.1.2,MacIntel,59.99880002,,,,,,,,3,Slow,f,1,2.3822,7,0,28,0,1,,,,,
,0.96,,,,,,,,,h.PNG,h,61057c37788e6c17adc37517,2021-09-08_20h53.01.777,forced_choiceRT,2021.1.2,MacIntel,59.99880002,,,,,,,,3,Fast,h,1,1.591,7,1,29,2,1,,,,,
,0.44,,,,,,,,,f.PNG,f,61057c37788e6c17adc37517,2021-09-08_20h53.01.777,forced_choiceRT,2021.1.2,MacIntel,59.99880002,,,,,,,,3,Slow,f,1,2.1057,7,2,30,0,1,,,,,
,1.44,,,,,,,,,f.PNG,f,61057c37788e6c17adc37517,2021-09-08_20h53.01.777,forced_choiceRT,2021.1.2,MacIntel,59.99880002,,,,,,,,3,Fast,f,1,1.87,7,3,31,0,1,,,,,
,0.73,,,,,,,,,g.PNG,g,61057c37788e6c17adc37517,2021-09-08_20h53.01.777,forced_choiceRT,2021.1.2,MacIntel,59.99880002,,,,,,,,3,Ontime,g,1,2.0728,8,0,32,1,1,,,,,
,1.22,,,,,,,,,f.PNG,f,61057c37788e6c17adc37517,2021-09-08_20h53.01.777,forced_choiceRT,2021.1.2,MacIntel,59.99880002,,,,,,,,3,Slow,f,1,2.1226,8,1,33,0,1,,,,,
,1.12,,,,,,,,,g.PNG,g,61057c37788e6c17adc37517,2021-09-08_20h53.01.777,forced_choiceRT,2021.1.2,MacIntel,59.99880002,,,,,,,,3,Ontime,g,1,1.9871,8,2,34,1,1,,,,,
,0.75,,,,,,,,,j.PNG,j,61057c37788e6c17adc37517,2021-09-08_20h53.01.777,forced_choiceRT,2021.1.2,MacIntel,59.99880002,,,,,,,,3,Fast,j,1,1.8843,8,3,35,3,1,,,,,
,0.59,,,,,,,,,f.PNG,f,61057c37788e6c17adc37517,2021-09-08_20h53.01.777,forced_choiceRT,2021.1.2,MacIntel,59.99880002,,,,,,,,3,Ontime,f,1,2.0395,9,0,36,0,1,,,,,
,0.95,,,,,,,,,f.PNG,f,61057c37788e6c17adc37517,2021-09-08_20h53.01.777,forced_choiceRT,2021.1.2,MacIntel,59.99880002,,,,,,,,3,Ontime,f,1,2.0992,9,1,37,0,1,,,,,
,0.55,,,,,,,,,f.PNG,f,61057c37788e6c17adc37517,2021-09-08_20h53.01.777,forced_choiceRT,2021.1.2,MacIntel,59.99880002,,,,,,,,3,Ontime,f,1,1.9846,9,2,38,0,1,,,,,
,0.44,,,,,,,,,g.PNG,g,61057c37788e6c17adc37517,2021-09-08_20h53.01.777,forced_choiceRT,2021.1.2,MacIntel,59.99880002,,,,,,,,3,Ontime,g,1,1.9904,9,3,39,1,1,,,,,
,,,,,,,,,,,,61057c37788e6c17adc37517,2021-09-08_20h53.01.777,forced_choiceRT,2021.1.2,MacIntel,59.99880002,,,,,,,,,,,,,,,,,,2,0,2,0,1
,0.56,,,,,,,,,h.PNG,h,61057c37788e6c17adc37517,2021-09-08_20h53.01.777,forced_choiceRT,2021.1.2,MacIntel,59.99880002,,,,,,,,4,Ontime,h,1,2.0229,0,0,0,2,1,,,,,
,0.37,,,,,,,,,g.PNG,g,61057c37788e6c17adc37517,2021-09-08_20h53.01.777,forced_choiceRT,2021.1.2,MacIntel,59.99880002,,,,,,,,4,Ontime,g,1,2.0569,0,1,1,1,1,,,,,
,0.43,,,,,,,,,g.PNG,g,61057c37788e6c17adc37517,2021-09-08_20h53.01.777,forced_choiceRT,2021.1.2,MacIntel,59.99880002,,,,,,,,4,Slow,g,1,2.1051,0,2,2,1,1,,,,,
,1.48,,,,,,,,,g.PNG,g,61057c37788e6c17adc37517,2021-09-08_20h53.01.777,forced_choiceRT,2021.1.2,MacIntel,59.99880002,,,,,,,,4,Slow,g,1,2.1406,0,3,3,1,1,,,,,
,1.07,,,,,,,,,f.PNG,f,61057c37788e6c17adc37517,2021-09-08_20h53.01.777,forced_choiceRT,2021.1.2,MacIntel,59.99880002,,,,,,,,4,Slow,f,1,2.1005,1,0,4,0,1,,,,,
,0.65,,,,,,,,,g.PNG,g,61057c37788e6c17adc37517,2021-09-08_20h53.01.777,forced_choiceRT,2021.1.2,MacIntel,59.99880002,,,,,,,,4,Ontime,g,1,1.9584,1,1,5,1,1,,,,,
,0.92,,,,,,,,,h.PNG,h,61057c37788e6c17adc37517,2021-09-08_20h53.01.777,forced_choiceRT,2021.1.2,MacIntel,59.99880002,,,,,,,,4,Ontime,h,1,1.9571,1,2,6,2,1,,,,,
,0.55,,,,,,,,,j.PNG,j,61057c37788e6c17adc37517,2021-09-08_20h53.01.777,forced_choiceRT,2021.1.2,MacIntel,59.99880002,,,,,,,,4,Fast,j,1,1.8183,1,3,7,3,1,,,,,
,0.31,,,,,,,,,g.PNG,g,61057c37788e6c17adc37517,2021-09-08_20h53.01.777,forced_choiceRT,2021.1.2,MacIntel,59.99880002,,,,,,,,4,Ontime,g,1,2.0667,2,0,8,1,1,,,,,
,1.96,,,,,,,,,f.PNG,f,61057c37788e6c17adc37517,2021-09-08_20h53.01.777,forced_choiceRT,2021.1.2,MacIntel,59.99880002,,,,,,,,4,Slow,j,0,2.1039,2,1,9,0,1,,,,,
,1.22,,,,,,,,,g.PNG,g,61057c37788e6c17adc37517,2021-09-08_20h53.01.777,forced_choiceRT,2021.1.2,MacIntel,59.99880002,,,,,,,,4,Fast,g,1,1.772,2,2,10,1,1,,,,,
,1.58,,,,,,,,,h.PNG,h,61057c37788e6c17adc37517,2021-09-08_20h53.01.777,forced_choiceRT,2021.1.2,MacIntel,59.99880002,,,,,,,,4,Slow,h,1,2.2034,2,3,11,2,1,,,,,
,0.45,,,,,,,,,j.PNG,j,61057c37788e6c17adc37517,2021-09-08_20h53.01.777,forced_choiceRT,2021.1.2,MacIntel,59.99880002,,,,,,,,4,Ontime,j,1,2.0504,3,0,12,3,1,,,,,
,0.24,,,,,,,,,h.PNG,h,61057c37788e6c17adc37517,2021-09-08_20h53.01.777,forced_choiceRT,2021.1.2,MacIntel,59.99880002,,,,,,,,4,Fast,h,1,1.8412,3,1,13,2,1,,,,,
,1.2,,,,,,,,,j.PNG,j,61057c37788e6c17adc37517,2021-09-08_20h53.01.777,forced_choiceRT,2021.1.2,MacIntel,59.99880002,,,,,,,,4,Slow,j,1,2.1325,3,2,14,3,1,,,,,
,1.64,,,,,,,,,h.PNG,h,61057c37788e6c17adc37517,2021-09-08_20h53.01.777,forced_choiceRT,2021.1.2,MacIntel,59.99880002,,,,,,,,4,Ontime,h,1,1.932,3,3,15,2,1,,,,,
,0.67,,,,,,,,,f.PNG,f,61057c37788e6c17adc37517,2021-09-08_20h53.01.777,forced_choiceRT,2021.1.2,MacIntel,59.99880002,,,,,,,,4,Ontime,f,1,2.0086,4,0,16,0,1,,,,,
,1.2,,,,,,,,,j.PNG,j,61057c37788e6c17adc37517,2021-09-08_20h53.01.777,forced_choiceRT,2021.1.2,MacIntel,59.99880002,,,,,,,,4,Ontime,h,0,1.97,4,1,17,3,1,,,,,
,0.89,,,,,,,,,j.PNG,j,61057c37788e6c17adc37517,2021-09-08_20h53.01.777,forced_choiceRT,2021.1.2,MacIntel,59.99880002,,,,,,,,4,Fast,j,1,1.8084,4,2,18,3,1,,,,,
,0.45,,,,,,,,,h.PNG,h,61057c37788e6c17adc37517,2021-09-08_20h53.01.777,forced_choiceRT,2021.1.2,MacIntel,59.99880002,,,,,,,,4,Ontime,h,1,2.0188,4,3,19,2,1,,,,,
,0.17,,,,,,,,,g.PNG,g,61057c37788e6c17adc37517,2021-09-08_20h53.01.777,forced_choiceRT,2021.1.2,MacIntel,59.99880002,,,,,,,,4,Fast,g,1,1.8992,5,0,20,1,1,,,,,
,1.04,,,,,,,,,j.PNG,j,61057c37788e6c17adc37517,2021-09-08_20h53.01.777,forced_choiceRT,2021.1.2,MacIntel,59.99880002,,,,,,,,4,Slow,j,1,2.1408,5,1,21,3,1,,,,,
,0.76,,,,,,,,,g.PNG,g,61057c37788e6c17adc37517,2021-09-08_20h53.01.777,forced_choiceRT,2021.1.2,MacIntel,59.99880002,,,,,,,,4,Ontime,g,1,2.0319,5,2,22,1,1,,,,,
,1.4,,,,,,,,,f.PNG,f,61057c37788e6c17adc37517,2021-09-08_20h53.01.777,forced_choiceRT,2021.1.2,MacIntel,59.99880002,,,,,,,,4,Ontime,f,1,2.0359,5,3,23,0,1,,,,,
,1.32,,,,,,,,,j.PNG,j,61057c37788e6c17adc37517,2021-09-08_20h53.01.777,forced_choiceRT,2021.1.2,MacIntel,59.99880002,,,,,,,,4,Ontime,j,1,2.0819,6,0,24,3,1,,,,,
,0.97,,,,,,,,,j.PNG,j,61057c37788e6c17adc37517,2021-09-08_20h53.01.777,forced_choiceRT,2021.1.2,MacIntel,59.99880002,,,,,,,,4,Ontime,h,0,2.0594,6,1,25,3,1,,,,,
,1.81,,,,,,,,,f.PNG,f,61057c37788e6c17adc37517,2021-09-08_20h53.01.777,forced_choiceRT,2021.1.2,MacIntel,59.99880002,,,,,,,,4,Ontime,j,0,2.0671,6,2,26,0,1,,,,,
,1.39,,,,,,,,,f.PNG,f,61057c37788e6c17adc37517,2021-09-08_20h53.01.777,forced_choiceRT,2021.1.2,MacIntel,59.99880002,,,,,,,,4,Ontime,f,1,2.0332,6,3,27,0,1,,,,,
,0.47,,,,,,,,,f.PNG,f,61057c37788e6c17adc37517,2021-09-08_20h53.01.777,forced_choiceRT,2021.1.2,MacIntel,59.99880002,,,,,,,,4,Slow,f,1,2.1157,7,0,28,0,1,,,,,
,0.62,,,,,,,,,j.PNG,j,61057c37788e6c17adc37517,2021-09-08_20h53.01.777,forced_choiceRT,2021.1.2,MacIntel,59.99880002,,,,,,,,4,Ontime,j,1,1.974,7,1,29,3,1,,,,,
,1.54,,,,,,,,,g.PNG,g,61057c37788e6c17adc37517,2021-09-08_20h53.01.777,forced_choiceRT,2021.1.2,MacIntel,59.99880002,,,,,,,,4,Ontime,j,0,1.954,7,2,30,1,1,,,,,
,1.61,,,,,,,,,h.PNG,h,61057c37788e6c17adc37517,2021-09-08_20h53.01.777,forced_choiceRT,2021.1.2,MacIntel,59.99880002,,,,,,,,4,Ontime,h,1,2.0986,7,3,31,2,1,,,,,
,1.15,,,,,,,,,j.PNG,j,61057c37788e6c17adc37517,2021-09-08_20h53.01.777,forced_choiceRT,2021.1.2,MacIntel,59.99880002,,,,,,,,4,Slow,j,1,2.1557,8,0,32,3,1,,,,,
,1.18,,,,,,,,,f.PNG,f,61057c37788e6c17adc37517,2021-09-08_20h53.01.777,forced_choiceRT,2021.1.2,MacIntel,59.99880002,,,,,,,,4,Ontime,f,1,1.9383,8,1,33,0,1,,,,,
,1.57,,,,,,,,,h.PNG,h,61057c37788e6c17adc37517,2021-09-08_20h53.01.777,forced_choiceRT,2021.1.2,MacIntel,59.99880002,,,,,,,,4,Ontime,f,0,1.9084,8,2,34,2,1,,,,,
,1.25,,,,,,,,,f.PNG,f,61057c37788e6c17adc37517,2021-09-08_20h53.01.777,forced_choiceRT,2021.1.2,MacIntel,59.99880002,,,,,,,,4,Ontime,f,1,2.0581,8,3,35,0,1,,,,,
,1.78,,,,,,,,,f.PNG,f,61057c37788e6c17adc37517,2021-09-08_20h53.01.777,forced_choiceRT,2021.1.2,MacIntel,59.99880002,,,,,,,,4,Slow,h,0,2.1328,9,0,36,0,1,,,,,
,1.12,,,,,,,,,h.PNG,h,61057c37788e6c17adc37517,2021-09-08_20h53.01.777,forced_choiceRT,2021.1.2,MacIntel,59.99880002,,,,,,,,4,Ontime,h,1,1.9542,9,1,37,2,1,,,,,
,1.34,,,,,,,,,h.PNG,h,61057c37788e6c17adc37517,2021-09-08_20h53.01.777,forced_choiceRT,2021.1.2,MacIntel,59.99880002,,,,,,,,4,Ontime,h,1,2.0157,9,2,38,2,1,,,,,
,1.94,,,,,,,,,g.PNG,g,61057c37788e6c17adc37517,2021-09-08_20h53.01.777,forced_choiceRT,2021.1.2,MacIntel,59.99880002,,,,,,,,4,Ontime,f,0,2.0387,9,3,39,1,1,,,,,
,,,,,,,,,,,,61057c37788e6c17adc37517,2021-09-08_20h53.01.777,forced_choiceRT,2021.1.2,MacIntel,59.99880002,,,,,,,,,,,,,,,,,,3,0,3,0,1
,0.73,,,,,,,,,f.PNG,f,61057c37788e6c17adc37517,2021-09-08_20h53.01.777,forced_choiceRT,2021.1.2,MacIntel,59.99880002,,,,,,,,5,Ontime,f,1,2.0402,0,0,0,0,1,,,,,
,1.66,,,,,,,,,g.PNG,g,61057c37788e6c17adc37517,2021-09-08_20h53.01.777,forced_choiceRT,2021.1.2,MacIntel,59.99880002,,,,,,,,5,Ontime,f,0,1.933,0,1,1,1,1,,,,,
,1.94,,,,,,,,,h.PNG,h,61057c37788e6c17adc37517,2021-09-08_20h53.01.777,forced_choiceRT,2021.1.2,MacIntel,59.99880002,,,,,,,,5,Slow,f,0,2.1672,0,2,2,2,1,,,,,
,1.53,,,,,,,,,h.PNG,h,61057c37788e6c17adc37517,2021-09-08_20h53.01.777,forced_choiceRT,2021.1.2,MacIntel,59.99880002,,,,,,,,5,Fast,f,0,1.8991,0,3,3,2,1,,,,,
,0.23,,,,,,,,,g.PNG,g,61057c37788e6c17adc37517,2021-09-08_20h53.01.777,forced_choiceRT,2021.1.2,MacIntel,59.99880002,,,,,,,,5,Ontime,g,1,2.0708,1,0,4,1,1,,,,,
,0.32,,,,,,,,,j.PNG,j,61057c37788e6c17adc37517,2021-09-08_20h53.01.777,forced_choiceRT,2021.1.2,MacIntel,59.99880002,,,,,,,,5,Fast,j,1,1.8562,1,1,5,3,1,,,,,
,1.01,,,,,,,,,f.PNG,f,61057c37788e6c17adc37517,2021-09-08_20h53.01.777,forced_choiceRT,2021.1.2,MacIntel,59.99880002,,,,,,,,5,Slow,f,1,2.1219,1,2,6,0,1,,,,,
,1.22,,,,,,,,,g.PNG,g,61057c37788e6c17adc37517,2021-09-08_20h53.01.777,forced_choiceRT,2021.1.2,MacIntel,59.99880002,,,,,,,,5,Slow,g,1,2.1196,1,3,7,1,1,,,,,
,0.64,,,,,,,,,g.PNG,g,61057c37788e6c17adc37517,2021-09-08_20h53.01.777,forced_choiceRT,2021.1.2,MacIntel,59.99880002,,,,,,,,5,Ontime,g,1,2.0002,2,0,8,1,1,,,,,
,1.75,,,,,,,,,f.PNG,f,61057c37788e6c17adc37517,2021-09-08_20h53.01.777,forced_choiceRT,2021.1.2,MacIntel,59.99880002,,,,,,,,5,Ontime,f,1,2.0057,2,1,9,0,1,,,,,
,1.11,,,,,,,,,j.PNG,j,61057c37788e6c17adc37517,2021-09-08_20h53.01.777,forced_choiceRT,2021.1.2,MacIntel,59.99880002,,,,,,,,5,Ontime,j,1,2.0997,2,2,10,3,1,,,,,
,1.04,,,,,,,,,f.PNG,f,61057c37788e6c17adc37517,2021-09-08_20h53.01.777,forced_choiceRT,2021.1.2,MacIntel,59.99880002,,,,,,,,5,Ontime,f,1,2.0426,2,3,11,0,1,,,,,
,0.13,,,,,,,,,f.PNG,f,61057c37788e6c17adc37517,2021-09-08_20h53.01.777,forced_choiceRT,2021.1.2,MacIntel,59.99880002,,,,,,,,5,Ontime,f,1,1.9383,3,0,12,0,1,,,,,
,1.53,,,,,,,,,h.PNG,h,61057c37788e6c17adc37517,2021-09-08_20h53.01.777,forced_choiceRT,2021.1.2,MacIntel,59.99880002,,,,,,,,5,Ontime,f,0,1.9545,3,1,13,2,1,,,,,
,0.37,,,,,,,,,j.PNG,j,61057c37788e6c17adc37517,2021-09-08_20h53.01.777,forced_choiceRT,2021.1.2,MacIntel,59.99880002,,,,,,,,5,Ontime,j,1,2.0491,3,2,14,3,1,,,,,
,0.49,,,,,,,,,h.PNG,h,61057c37788e6c17adc37517,2021-09-08_20h53.01.777,forced_choiceRT,2021.1.2,MacIntel,59.99880002,,,,,,,,5,Ontime,h,1,2.0529,3,3,15,2,1,,,,,
,1.48,,,,,,,,,j.PNG,j,61057c37788e6c17adc37517,2021-09-08_20h53.01.777,forced_choiceRT,2021.1.2,MacIntel,59.99880002,,,,,,,,5,Ontime,h,0,2.0203,4,0,16,3,1,,,,,
,0.02,,,,,,,,,g.PNG,g,61057c37788e6c17adc37517,2021-09-08_20h53.01.777,forced_choiceRT,2021.1.2,MacIntel,59.99880002,,,,,,,,5,Ontime,g,1,2.017,4,1,17,1,1,,,,,
,0.23,,,,,,,,,f.PNG,f,61057c37788e6c17adc37517,2021-09-08_20h53.01.777,forced_choiceRT,2021.1.2,MacIntel,59.99880002,,,,,,,,5,Ontime,f,1,2.0335,4,2,18,0,1,,,,,
,1.64,,,,,,,,,f.PNG,f,61057c37788e6c17adc37517,2021-09-08_20h53.01.777,forced_choiceRT,2021.1.2,MacIntel,59.99880002,,,,,,,,5,Slow,f,1,2.1011,4,3,19,0,1,,,,,
,1.98,,,,,,,,,h.PNG,h,61057c37788e6c17adc37517,2021-09-08_20h53.01.777,forced_choiceRT,2021.1.2,MacIntel,59.99880002,,,,,,,,5,Slow,f,0,2.2509,5,0,20,2,1,,,,,
,1.54,,,,,,,,,h.PNG,h,61057c37788e6c17adc37517,2021-09-08_20h53.01.777,forced_choiceRT,2021.1.2,MacIntel,59.99880002,,,,,,,,5,Fast,f,0,1.8375,5,1,21,2,1,,,,,
,0.6,,,,,,,,,g.PNG,g,61057c37788e6c17adc37517,2021-09-08_20h53.01.777,forced_choiceRT,2021.1.2,MacIntel,59.99880002,,,,,,,,5,Ontime,g,1,2.0336,5,2,22,1,1,,,,,
,1.1,,,,,,,,,j.PNG,j,61057c37788e6c17adc37517,2021-09-08_20h53.01.777,forced_choiceRT,2021.1.2,MacIntel,59.99880002,,,,,,,,5,Slow,j,1,2.1637,5,3,23,3,1,,,,,
,1.67,,,,,,,,,j.PNG,j,61057c37788e6c17adc37517,2021-09-08_20h53.01.777,forced_choiceRT,2021.1.2,MacIntel,59.99880002,,,,,,,,5,Ontime,h,0,1.9071,6,0,24,3,1,,,,,
,0.6,,,,,,,,,j.PNG,j,61057c37788e6c17adc37517,2021-09-08_20h53.01.777,forced_choiceRT,2021.1.2,MacIntel,59.99880002,,,,,,,,5,Ontime,j,1,2.0487,6,1,25,3,1,,,,,
,0.64,,,,,,,,,j.PNG,j,61057c37788e6c17adc37517,2021-09-08_20h53.01.777,forced_choiceRT,2021.1.2,MacIntel,59.99880002,,,,,,,,5,Ontime,j,1,2.0338,6,2,26,3,1,,,,,
,1.91,,,,,,,,,f.PNG,f,61057c37788e6c17adc37517,2021-09-08_20h53.01.777,forced_choiceRT,2021.1.2,MacIntel,59.99880002,,,,,,,,5,Ontime,h,0,1.999,6,3,27,0,1,,,,,
,0.5,,,,,,,,,g.PNG,g,61057c37788e6c17adc37517,2021-09-08_20h53.01.777,forced_choiceRT,2021.1.2,MacIntel,59.99880002,,,,,,,,5,Slow,g,1,2.1173,7,0,28,1,1,,,,,
,0.92,,,,,,,,,g.PNG,g,61057c37788e6c17adc37517,2021-09-08_20h53.01.777,forced_choiceRT,2021.1.2,MacIntel,59.99880002,,,,,,,,5,Ontime,g,1,2.0026,7,1,29,1,1,,,,,
,1.86,,,,,,,,,f.PNG,f,61057c37788e6c17adc37517,2021-09-08_20h53.01.777,forced_choiceRT,2021.1.2,MacIntel,59.99880002,,,,,,,,5,Fast,f,1,1.834,7,2,30,0,1,,,,,
,0.71,,,,,,,,,h.PNG,h,61057c37788e6c17adc37517,2021-09-08_20h53.01.777,forced_choiceRT,2021.1.2,MacIntel,59.99880002,,,,,,,,5,Fast,h,1,1.8924,7,3,31,2,1,,,,,
,1.85,,,,,,,,,f.PNG,f,61057c37788e6c17adc37517,2021-09-08_20h53.01.777,forced_choiceRT,2021.1.2,MacIntel,59.99880002,,,,,,,,5,Ontime,j,0,1.9367,8,0,32,0,1,,,,,
,0.12,,,,,,,,,h.PNG,h,61057c37788e6c17adc37517,2021-09-08_20h53.01.777,forced_choiceRT,2021.1.2,MacIntel,59.99880002,,,,,,,,5,Ontime,h,1,1.9681,8,1,33,2,1,,,,,
,1.23,,,,,,,,,g.PNG,g,61057c37788e6c17adc37517,2021-09-08_20h53.01.777,forced_choiceRT,2021.1.2,MacIntel,59.99880002,,,,,,,,5,Ontime,g,1,1.933,8,2,34,1,1,,,,,
,0.68,,,,,,,,,h.PNG,h,61057c37788e6c17adc37517,2021-09-08_20h53.01.777,forced_choiceRT,2021.1.2,MacIntel,59.99880002,,,,,,,,5,Ontime,h,1,2.0748,8,3,35,2,1,,,,,
,0.07,,,,,,,,,h.PNG,h,61057c37788e6c17adc37517,2021-09-08_20h53.01.777,forced_choiceRT,2021.1.2,MacIntel,59.99880002,,,,,,,,5,Fast,h,1,1.7763,9,0,36,2,1,,,,,
,1.52,,,,,,,,,j.PNG,j,61057c37788e6c17adc37517,2021-09-08_20h53.01.777,forced_choiceRT,2021.1.2,MacIntel,59.99880002,,,,,,,,5,Slow,j,1,2.2486,9,1,37,3,1,,,,,
,1.62,,,,,,,,,j.PNG,j,61057c37788e6c17adc37517,2021-09-08_20h53.01.777,forced_choiceRT,2021.1.2,MacIntel,59.99880002,,,,,,,,5,Fast,h,0,1.8686,9,2,38,3,1,,,,,
,0.49,,,,,,,,,g.PNG,g,61057c37788e6c17adc37517,2021-09-08_20h53.01.777,forced_choiceRT,2021.1.2,MacIntel,59.99880002,,,,,,,,5,Ontime,g,1,2.0157,9,3,39,1,1,,,,,
,,,,,,,,,,,,61057c37788e6c17adc37517,2021-09-08_20h53.01.777,forced_choiceRT,2021.1.2,MacIntel,59.99880002,,,,,,,,,,,,,,,,,,4,0,4,0,1
,0.36,,,,,,,,,g.PNG,g,61057c37788e6c17adc37517,2021-09-08_20h53.01.777,forced_choiceRT,2021.1.2,MacIntel,59.99880002,,,,,,,,6,Fast,g,1,1.8903,0,0,0,1,1,,,,,
,1.26,,,,,,,,,h.PNG,h,61057c37788e6c17adc37517,2021-09-08_20h53.01.777,forced_choiceRT,2021.1.2,MacIntel,59.99880002,,,,,,,,6,Ontime,h,1,1.9701,0,1,1,2,1,,,,,
,1.23,,,,,,,,,h.PNG,h,61057c37788e6c17adc37517,2021-09-08_20h53.01.777,forced_choiceRT,2021.1.2,MacIntel,59.99880002,,,,,,,,6,Ontime,h,1,2.0362,0,2,2,2,1,,,,,
,1.76,,,,,,,,,h.PNG,h,61057c37788e6c17adc37517,2021-09-08_20h53.01.777,forced_choiceRT,2021.1.2,MacIntel,59.99880002,,,,,,,,6,Ontime,j,0,2.0507,0,3,3,2,1,,,,,
,0.64,,,,,,,,,g.PNG,g,61057c37788e6c17adc37517,2021-09-08_20h53.01.777,forced_choiceRT,2021.1.2,MacIntel,59.99880002,,,,,,,,6,Slow,g,1,2.124,1,0,4,1,1,,,,,
,0.54,,,,,,,,,f.PNG,f,61057c37788e6c17adc37517,2021-09-08_20h53.01.777,forced_choiceRT,2021.1.2,MacIntel,59.99880002,,,,,,,,6,Ontime,f,1,2.0831,1,1,5,0,1,,,,,
,1.2,,,,,,,,,g.PNG,g,61057c37788e6c17adc37517,2021-09-08_20h53.01.777,forced_choiceRT,2021.1.2,MacIntel,59.99880002,,,,,,,,6,Ontime,g,1,1.9183,1,2,6,1,1,,,,,
,0.68,,,,,,,,,f.PNG,f,61057c37788e6c17adc37517,2021-09-08_20h53.01.777,forced_choiceRT,2021.1.2,MacIntel,59.99880002,,,,,,,,6,Ontime,f,1,2.0331,1,3,7,0,1,,,,,
,1.39,,,,,,,,,g.PNG,g,61057c37788e6c17adc37517,2021-09-08_20h53.01.777,forced_choiceRT,2021.1.2,MacIntel,59.99880002,,,,,,,,6,Ontime,g,1,1.9323,2,0,8,1,1,,,,,
,1.78,,,,,,,,,j.PNG,j,61057c37788e6c17adc37517,2021-09-08_20h53.01.777,forced_choiceRT,2021.1.2,MacIntel,59.99880002,,,,,,,,6,Slow,g,0,2.1503,2,1,9,3,1,,,,,
,1.68,,,,,,,,,g.PNG,g,61057c37788e6c17adc37517,2021-09-08_20h53.01.777,forced_choiceRT,2021.1.2,MacIntel,59.99880002,,,,,,,,6,Fast,f,0,1.7657,2,2,10,1,1,,,,,
,0.22,,,,,,,,,f.PNG,f,61057c37788e6c17adc37517,2021-09-08_20h53.01.777,forced_choiceRT,2021.1.2,MacIntel,59.99880002,,,,,,,,6,Slow,f,1,2.1168,2,3,11,0,1,,,,,
,1.94,,,,,,,,,j.PNG,j,61057c37788e6c17adc37517,2021-09-08_20h53.01.777,forced_choiceRT,2021.1.2,MacIntel,59.99880002,,,,,,,,6,Slow,h,0,2.1714,3,0,12,3,1,,,,,
,1.18,,,,,,,,,f.PNG,f,61057c37788e6c17adc37517,2021-09-08_20h53.01.777,forced_choiceRT,2021.1.2,MacIntel,59.99880002,,,,,,,,6,Ontime,f,1,2.0315,3,1,13,0,1,,,,,
,0.66,,,,,,,,,g.PNG,g,61057c37788e6c17adc37517,2021-09-08_20h53.01.777,forced_choiceRT,2021.1.2,MacIntel,59.99880002,,,,,,,,6,Ontime,g,1,1.9327,3,2,14,1,1,,,,,
,0.58,,,,,,,,,g.PNG,g,61057c37788e6c17adc37517,2021-09-08_20h53.01.777,forced_choiceRT,2021.1.2,MacIntel,59.99880002,,,,,,,,6,Ontime,g,1,1.9966,3,3,15,1,1,,,,,
,0.21,,,,,,,,,h.PNG,h,61057c37788e6c17adc37517,2021-09-08_20h53.01.777,forced_choiceRT,2021.1.2,MacIntel,59.99880002,,,,,,,,6,Ontime,h,1,2.0162,4,0,16,2,1,,,,,
,0.46,,,,,,,,,f.PNG,f,61057c37788e6c17adc37517,2021-09-08_20h53.01.777,forced_choiceRT,2021.1.2,MacIntel,59.99880002,,,,,,,,6,Ontime,f,1,2.0984,4,1,17,0,1,,,,,
,0.24,,,,,,,,,j.PNG,j,61057c37788e6c17adc37517,2021-09-08_20h53.01.777,forced_choiceRT,2021.1.2,MacIntel,59.99880002,,,,,,,,6,Ontime,j,1,2.0508,4,2,18,3,1,,,,,
,0.81,,,,,,,,,j.PNG,j,61057c37788e6c17adc37517,2021-09-08_20h53.01.777,forced_choiceRT,2021.1.2,MacIntel,59.99880002,,,,,,,,6,Ontime,j,1,2.0059,4,3,19,3,1,,,,,
,1.46,,,,,,,,,f.PNG,f,61057c37788e6c17adc37517,2021-09-08_20h53.01.777,forced_choiceRT,2021.1.2,MacIntel,59.99880002,,,,,,,,6,Fast,f,1,1.7901,5,0,20,0,1,,,,,
,1.4,,,,,,,,,g.PNG,g,61057c37788e6c17adc37517,2021-09-08_20h53.01.777,forced_choiceRT,2021.1.2,MacIntel,59.99880002,,,,,,,,6,Ontime,g,1,2.0169,5,1,21,1,1,,,,,
,1.26,,,,,,,,,h.PNG,h,61057c37788e6c17adc37517,2021-09-08_20h53.01.777,forced_choiceRT,2021.1.2,MacIntel,59.99880002,,,,,,,,6,Slow,h,1,2.1089,5,2,22,2,1,,,,,
,0.15,,,,,,,,,f.PNG,f,61057c37788e6c17adc37517,2021-09-08_20h53.01.777,forced_choiceRT,2021.1.2,MacIntel,59.99880002,,,,,,,,6,Ontime,f,1,1.9216,5,3,23,0,1,,,,,
,0.65,,,,,,,,,j.PNG,j,61057c37788e6c17adc37517,2021-09-08_20h53.01.777,forced_choiceRT,2021.1.2,MacIntel,59.99880002,,,,,,,,6,Fast,j,1,1.8673,6,0,24,3,1,,,,,
,0.94,,,,,,,,,j.PNG,j,61057c37788e6c17adc37517,2021-09-08_20h53.01.777,forced_choiceRT,2021.1.2,MacIntel,59.99880002,,,,,,,,6,Ontime,j,1,2.0664,6,1,25,3,1,,,,,
,0.41,,,,,,,,,h.PNG,h,61057c37788e6c17adc37517,2021-09-08_20h53.01.777,forced_choiceRT,2021.1.2,MacIntel,59.99880002,,,,,,,,6,Ontime,h,1,2.0675,6,2,26,2,1,,,,,
,1.58,,,,,,,,,g.PNG,g,61057c37788e6c17adc37517,2021-09-08_20h53.01.777,forced_choiceRT,2021.1.2,MacIntel,59.99880002,,,,,,,,6,Fast,j,0,1.8847,6,3,27,1,1,,,,,
,1.38,,,,,,,,,f.PNG,f,61057c37788e6c17adc37517,2021-09-08_20h53.01.777,forced_choiceRT,2021.1.2,MacIntel,59.99880002,,,,,,,,6,Ontime,f,1,1.9551,7,0,28,0,1,,,,,
,1.42,,,,,,,,,h.PNG,h,61057c37788e6c17adc37517,2021-09-08_20h53.01.777,forced_choiceRT,2021.1.2,MacIntel,59.99880002,,,,,,,,6,Slow,h,1,2.1002,7,1,29,2,1,,,,,
,0.9,,,,,,,,,g.PNG,g,61057c37788e6c17adc37517,2021-09-08_20h53.01.777,forced_choiceRT,2021.1.2,MacIntel,59.99880002,,,,,,,,6,Ontime,g,1,1.9691,7,2,30,1,1,,,,,
,0.08,,,,,,,,,j.PNG,j,61057c37788e6c17adc37517,2021-09-08_20h53.01.777,forced_choiceRT,2021.1.2,MacIntel,59.99880002,,,,,,,,6,Fast,j,1,1.7837,7,3,31,3,1,,,,,
,0.23,,,,,,,,,f.PNG,f,61057c37788e6c17adc37517,2021-09-08_20h53.01.777,forced_choiceRT,2021.1.2,MacIntel,59.99880002,,,,,,,,6,Ontime,f,1,2.0508,8,0,32,0,1,,,,,
,0.3,,,,,,,,,j.PNG,j,61057c37788e6c17adc37517,2021-09-08_20h53.01.777,forced_choiceRT,2021.1.2,MacIntel,59.99880002,,,,,,,,6,Ontime,h,0,2.0642,8,1,33,3,1,,,,,
,1.34,,,,,,,,,j.PNG,j,61057c37788e6c17adc37517,2021-09-08_20h53.01.777,forced_choiceRT,2021.1.2,MacIntel,59.99880002,,,,,,,,6,Slow,g,0,2.1403,8,2,34,3,1,,,,,
,1.07,,,,,,,,,j.PNG,j,61057c37788e6c17adc37517,2021-09-08_20h53.01.777,forced_choiceRT,2021.1.2,MacIntel,59.99880002,,,,,,,,6,Ontime,j,1,1.9997,8,3,35,3,1,,,,,
,1.9,,,,,,,,,f.PNG,f,61057c37788e6c17adc37517,2021-09-08_20h53.01.777,forced_choiceRT,2021.1.2,MacIntel,59.99880002,,,,,,,,6,Ontime,h,0,1.9752,9,0,36,0,1,,,,,
,0.25,,,,,,,,,h.PNG,h,61057c37788e6c17adc37517,2021-09-08_20h53.01.777,forced_choiceRT,2021.1.2,MacIntel,59.99880002,,,,,,,,6,Ontime,h,1,1.9,9,1,37,2,1,,,,,
,0.87,,,,,,,,,h.PNG,h,61057c37788e6c17adc37517,2021-09-08_20h53.01.777,forced_choiceRT,2021.1.2,MacIntel,59.99880002,,,,,,,,6,Ontime,h,1,2.099,9,2,38,2,1,,,,,
,1.71,,,,,,,,,h.PNG,h,61057c37788e6c17adc37517,2021-09-08_20h53.01.777,forced_choiceRT,2021.1.2,MacIntel,59.99880002,,,,,,,,6,Ontime,h,1,2.0676,9,3,39,2,1,,,,,
,,,,,,,,,,,,61057c37788e6c17adc37517,2021-09-08_20h53.01.777,forced_choiceRT,2021.1.2,MacIntel,59.99880002,,,,,,,,,,,,,,,,,,5,0,5,0,1
,0.65,,,,,,,,,h.PNG,h,61057c37788e6c17adc37517,2021-09-08_20h53.01.777,forced_choiceRT,2021.1.2,MacIntel,59.99880002,,,,,,,,7,Ontime,h,1,2.0103,0,0,0,2,1,,,,,
,1.73,,,,,,,,,j.PNG,j,61057c37788e6c17adc37517,2021-09-08_20h53.01.777,forced_choiceRT,2021.1.2,MacIntel,59.99880002,,,,,,,,7,Ontime,h,0,1.9834,0,1,1,3,1,,,,,
,0.25,,,,,,,,,g.PNG,g,61057c37788e6c17adc37517,2021-09-08_20h53.01.777,forced_choiceRT,2021.1.2,MacIntel,59.99880002,,,,,,,,7,Ontime,g,1,2.0041,0,2,2,1,1,,,,,
,0.07,,,,,,,,,j.PNG,j,61057c37788e6c17adc37517,2021-09-08_20h53.01.777,forced_choiceRT,2021.1.2,MacIntel,59.99880002,,,,,,,,7,Ontime,j,1,2.002,0,3,3,3,1,,,,,
,1.31,,,,,,,,,f.PNG,f,61057c37788e6c17adc37517,2021-09-08_20h53.01.777,forced_choiceRT,2021.1.2,MacIntel,59.99880002,,,,,,,,7,Slow,f,1,2.149,1,0,4,0,1,,,,,
,0.23,,,,,,,,,h.PNG,h,61057c37788e6c17adc37517,2021-09-08_20h53.01.777,forced_choiceRT,2021.1.2,MacIntel,59.99880002,,,,,,,,7,Ontime,h,1,2.0075,1,1,5,2,1,,,,,
,1.59,,,,,,,,,h.PNG,h,61057c37788e6c17adc37517,2021-09-08_20h53.01.777,forced_choiceRT,2021.1.2,MacIntel,59.99880002,,,,,,,,7,Ontime,h,1,1.983,1,2,6,2,1,,,,,
,1.63,,,,,,,,,f.PNG,f,61057c37788e6c17adc37517,2021-09-08_20h53.01.777,forced_choiceRT,2021.1.2,MacIntel,59.99880002,,,,,,,,7,Ontime,f,1,1.953,1,3,7,0,1,,,,,
,1.8,,,,,,,,,g.PNG,g,61057c37788e6c17adc37517,2021-09-08_20h53.01.777,forced_choiceRT,2021.1.2,MacIntel,59.99880002,,,,,,,,7,Ontime,h,0,2.0841,2,0,8,1,1,,,,,
,1.29,,,,,,,,,f.PNG,f,61057c37788e6c17adc37517,2021-09-08_20h53.01.777,forced_choiceRT,2021.1.2,MacIntel,59.99880002,,,,,,,,7,Slow,f,1,2.15,2,1,9,0,1,,,,,
,0.25,,,,,,,,,j.PNG,j,61057c37788e6c17adc37517,2021-09-08_20h53.01.777,forced_choiceRT,2021.1.2,MacIntel,59.99880002,,,,,,,,7,Slow,j,1,2.1172,2,2,10,3,1,,,,,
,0.46,,,,,,,,,h.PNG,h,61057c37788e6c17adc37517,2021-09-08_20h53.01.777,forced_choiceRT,2021.1.2,MacIntel,59.99880002,,,,,,,,7,Ontime,h,1,2.0356,2,3,11,2,1,,,,,
,0.12,,,,,,,,,g.PNG,g,61057c37788e6c17adc37517,2021-09-08_20h53.01.777,forced_choiceRT,2021.1.2,MacIntel,59.99880002,,,,,,,,7,Ontime,g,1,2.0036,3,0,12,1,1,,,,,
,0.2,,,,,,,,,h.PNG,h,61057c37788e6c17adc37517,2021-09-08_20h53.01.777,forced_choiceRT,2021.1.2,MacIntel,59.99880002,,,,,,,,7,Ontime,h,1,2.0503,3,1,13,2,1,,,,,
,0.52,,,,,,,,,f.PNG,f,61057c37788e6c17adc37517,2021-09-08_20h53.01.777,forced_choiceRT,2021.1.2,MacIntel,59.99880002,,,,,,,,7,Ontime,f,1,1.9659,3,2,14,0,1,,,,,
,0.59,,,,,,,,,j.PNG,j,61057c37788e6c17adc37517,2021-09-08_20h53.01.777,forced_choiceRT,2021.1.2,MacIntel,59.99880002,,,,,,,,7,Ontime,j,1,2.0236,3,3,15,3,1,,,,,
,1.55,,,,,,,,,j.PNG,j,61057c37788e6c17adc37517,2021-09-08_20h53.01.777,forced_choiceRT,2021.1.2,MacIntel,59.99880002,,,,,,,,7,Ontime,g,0,2.0357,4,0,16,3,1,,,,,
,0.67,,,,,,,,,j.PNG,j,61057c37788e6c17adc37517,2021-09-08_20h53.01.777,forced_choiceRT,2021.1.2,MacIntel,59.99880002,,,,,,,,7,Ontime,j,1,2.0887,4,1,17,3,1,,,,,
,0.44,,,,,,,,,j.PNG,j,61057c37788e6c17adc37517,2021-09-08_20h53.01.777,forced_choiceRT,2021.1.2,MacIntel,59.99880002,,,,,,,,7,Ontime,j,1,1.9507,4,2,18,3,1,,,,,
,0.93,,,,,,,,,h.PNG,h,61057c37788e6c17adc37517,2021-09-08_20h53.01.777,forced_choiceRT,2021.1.2,MacIntel,59.99880002,,,,,,,,7,Ontime,h,1,2.0039,4,3,19,2,1,,,,,
,0.79,,,,,,,,,f.PNG,f,61057c37788e6c17adc37517,2021-09-08_20h53.01.777,forced_choiceRT,2021.1.2,MacIntel,59.99880002,,,,,,,,7,Ontime,f,1,1.9869,5,0,20,0,1,,,,,
,1.86,,,,,,,,,g.PNG,g,61057c37788e6c17adc37517,2021-09-08_20h53.01.777,forced_choiceRT,2021.1.2,MacIntel,59.99880002,,,,,,,,7,Ontime,h,0,2.0249,5,1,21,1,1,,,,,
,1.37,,,,,,,,,h.PNG,h,61057c37788e6c17adc37517,2021-09-08_20h53.01.777,forced_choiceRT,2021.1.2,MacIntel,59.99880002,,,,,,,,7,Fast,g,0,1.8874,5,2,22,2,1,,,,,
,1.99,,,,,,,,,j.PNG,j,61057c37788e6c17adc37517,2021-09-08_20h53.01.777,forced_choiceRT,2021.1.2,MacIntel,59.99880002,,,,,,,,7,Ontime,h,0,1.9837,5,3,23,3,1,,,,,
,0.02,,,,,,,,,g.PNG,g,61057c37788e6c17adc37517,2021-09-08_20h53.01.777,forced_choiceRT,2021.1.2,MacIntel,59.99880002,,,,,,,,7,Ontime,g,1,1.9865,6,0,24,1,1,,,,,
,1.91,,,,,,,,,g.PNG,g,61057c37788e6c17adc37517,2021-09-08_20h53.01.777,forced_choiceRT,2021.1.2,MacIntel,59.99880002,,,,,,,,7,Ontime,j,0,1.9493,6,1,25,1,1,,,,,
,0.17,,,,,,,,,f.PNG,f,61057c37788e6c17adc37517,2021-09-08_20h53.01.777,forced_choiceRT,2021.1.2,MacIntel,59.99880002,,,,,,,,7,Ontime,f,1,1.9461,6,2,26,0,1,,,,,
,0.62,,,,,,,,,f.PNG,f,61057c37788e6c17adc37517,2021-09-08_20h53.01.777,forced_choiceRT,2021.1.2,MacIntel,59.99880002,,,,,,,,7,Ontime,f,1,1.9583,6,3,27,0,1,,,,,
,1.42,,,,,,,,,g.PNG,g,61057c37788e6c17adc37517,2021-09-08_20h53.01.777,forced_choiceRT,2021.1.2,MacIntel,59.99880002,,,,,,,,7,Slow,g,1,2.2908,7,0,28,1,1,,,,,
,1.35,,,,,,,,,f.PNG,f,61057c37788e6c17adc37517,2021-09-08_20h53.01.777,forced_choiceRT,2021.1.2,MacIntel,59.99880002,,,,,,,,7,Ontime,f,1,1.9363,7,1,29,0,1,,,,,
,0.46,,,,,,,,,h.PNG,h,61057c37788e6c17adc37517,2021-09-08_20h53.01.777,forced_choiceRT,2021.1.2,MacIntel,59.99880002,,,,,,,,7,Ontime,h,1,1.9812,7,2,30,2,1,,,,,
,0.69,,,,,,,,,h.PNG,h,61057c37788e6c17adc37517,2021-09-08_20h53.01.777,forced_choiceRT,2021.1.2,MacIntel,59.99880002,,,,,,,,7,Ontime,h,1,2.0362,7,3,31,2,1,,,,,
,0.96,,,,,,,,,f.PNG,f,61057c37788e6c17adc37517,2021-09-08_20h53.01.777,forced_choiceRT,2021.1.2,MacIntel,59.99880002,,,,,,,,7,Ontime,f,1,1.9871,8,0,32,0,1,,,,,
,0.42,,,,,,,,,f.PNG,f,61057c37788e6c17adc37517,2021-09-08_20h53.01.777,forced_choiceRT,2021.1.2,MacIntel,59.99880002,,,,,,,,7,Ontime,f,1,2.0333,8,1,33,0,1,,,,,
,0.14,,,,,,,,,g.PNG,g,61057c37788e6c17adc37517,2021-09-08_20h53.01.777,forced_choiceRT,2021.1.2,MacIntel,59.99880002,,,,,,,,7,Ontime,g,1,1.9916,8,2,34,1,1,,,,,
,1.8,,,,,,,,,g.PNG,g,61057c37788e6c17adc37517,2021-09-08_20h53.01.777,forced_choiceRT,2021.1.2,MacIntel,59.99880002,,,,,,,,7,Ontime,h,0,1.9004,8,3,35,1,1,,,,,
,1.99,,,,,,,,,h.PNG,h,61057c37788e6c17adc37517,2021-09-08_20h53.01.777,forced_choiceRT,2021.1.2,MacIntel,59.99880002,,,,,,,,7,Ontime,f,0,1.932,9,0,36,2,1,,,,,
,1.9,,,,,,,,,j.PNG,j,61057c37788e6c17adc37517,2021-09-08_20h53.01.777,forced_choiceRT,2021.1.2,MacIntel,59.99880002,,,,,,,,7,Ontime,h,0,1.982,9,1,37,3,1,,,,,
,1.4,,,,,,,,,g.PNG,g,61057c37788e6c17adc37517,2021-09-08_20h53.01.777,forced_choiceRT,2021.1.2,MacIntel,59.99880002,,,,,,,,7,Ontime,h,0,1.9199,9,2,38,1,1,,,,,
,0.09,,,,,,,,,j.PNG,j,61057c37788e6c17adc37517,2021-09-08_20h53.01.777,forced_choiceRT,2021.1.2,MacIntel,59.99880002,,,,,,,,7,Ontime,j,1,2.0857,9,3,39,3,1,,,,,
,,,,,,,,,,,,61057c37788e6c17adc37517,2021-09-08_20h53.01.777,forced_choiceRT,2021.1.2,MacIntel,59.99880002,,,,,,,,,,,,,,,,,,6,0,6,0,1
,1.91,,,,,,,,,j.PNG,j,61057c37788e6c17adc37517,2021-09-08_20h53.01.777,forced_choiceRT,2021.1.2,MacIntel,59.99880002,,,,,,,,8,Ontime,h,0,1.9327,0,0,0,3,1,,,,,
,1.66,,,,,,,,,h.PNG,h,61057c37788e6c17adc37517,2021-09-08_20h53.01.777,forced_choiceRT,2021.1.2,MacIntel,59.99880002,,,,,,,,8,Ontime,h,1,1.9524,0,1,1,2,1,,,,,
,0.75,,,,,,,,,h.PNG,h,61057c37788e6c17adc37517,2021-09-08_20h53.01.777,forced_choiceRT,2021.1.2,MacIntel,59.99880002,,,,,,,,8,Ontime,h,1,2.0174,0,2,2,2,1,,,,,
,0.69,,,,,,,,,g.PNG,g,61057c37788e6c17adc37517,2021-09-08_20h53.01.777,forced_choiceRT,2021.1.2,MacIntel,59.99880002,,,,,,,,8,Ontime,g,1,1.9206,0,3,3,1,1,,,,,
,0.9,,,,,,,,,h.PNG,h,61057c37788e6c17adc37517,2021-09-08_20h53.01.777,forced_choiceRT,2021.1.2,MacIntel,59.99880002,,,,,,,,8,Slow,h,1,2.1336,1,0,4,2,1,,,,,
,0.3,,,,,,,,,j.PNG,j,61057c37788e6c17adc37517,2021-09-08_20h53.01.777,forced_choiceRT,2021.1.2,MacIntel,59.99880002,,,,,,,,8,Ontime,j,1,1.9555,1,1,5,3,1,,,,,
,0.96,,,,,,,,,h.PNG,h,61057c37788e6c17adc37517,2021-09-08_20h53.01.777,forced_choiceRT,2021.1.2,MacIntel,59.99880002,,,,,,,,8,Ontime,h,1,2.0338,1,2,6,2,1,,,,,
,0.11,,,,,,,,,g.PNG,g,61057c37788e6c17adc37517,2021-09-08_20h53.01.777,forced_choiceRT,2021.1.2,MacIntel,59.99880002,,,,,,,,8,Ontime,g,1,1.915,1,3,7,1,1,,,,,
,0.39,,,,,,,,,f.PNG,f,61057c37788e6c17adc37517,2021-09-08_20h53.01.777,forced_choiceRT,2021.1.2,MacIntel,59.99880002,,,,,,,,8,Ontime,f,1,1.9692,2,0,8,0,1,,,,,
,1.68,,,,,,,,,h.PNG,h,61057c37788e6c17adc37517,2021-09-08_20h53.01.777,forced_choiceRT,2021.1.2,MacIntel,59.99880002,,,,,,,,8,Ontime,h,1,1.9723,2,1,9,2,1,,,,,
,1.83,,,,,,,,,f.PNG,f,61057c37788e6c17adc37517,2021-09-08_20h53.01.777,forced_choiceRT,2021.1.2,MacIntel,59.99880002,,,,,,,,8,Ontime,f,1,1.939,2,2,10,0,1,,,,,
,1.52,,,,,,,,,f.PNG,f,61057c37788e6c17adc37517,2021-09-08_20h53.01.777,forced_choiceRT,2021.1.2,MacIntel,59.99880002,,,,,,,,8,Ontime,h,0,1.9209,2,3,11,0,1,,,,,
,0.1,,,,,,,,,j.PNG,j,61057c37788e6c17adc37517,2021-09-08_20h53.01.777,forced_choiceRT,2021.1.2,MacIntel,59.99880002,,,,,,,,8,Ontime,j,1,1.9837,3,0,12,3,1,,,,,
,1.99,,,,,,,,,g.PNG,g,61057c37788e6c17adc37517,2021-09-08_20h53.01.777,forced_choiceRT,2021.1.2,MacIntel,59.99880002,,,,,,,,8,Slow,h,0,2.1177,3,1,13,1,1,,,,,
,1.22,,,,,,,,,g.PNG,g,61057c37788e6c17adc37517,2021-09-08_20h53.01.777,forced_choiceRT,2021.1.2,MacIntel,59.99880002,,,,,,,,8,Ontime,h,0,1.9835,3,2,14,1,1,,,,,
,1.4,,,,,,,,,g.PNG,g,61057c37788e6c17adc37517,2021-09-08_20h53.01.777,forced_choiceRT,2021.1.2,MacIntel,59.99880002,,,,,,,,8,Ontime,g,1,1.9877,3,3,15,1,1,,,,,
,0.9,,,,,,,,,f.PNG,f,61057c37788e6c17adc37517,2021-09-08_20h53.01.777,forced_choiceRT,2021.1.2,MacIntel,59.99880002,,,,,,,,8,Fast,f,1,1.8811,4,0,16,0,1,,,,,
,0.02,,,,,,,,,g.PNG,g,61057c37788e6c17adc37517,2021-09-08_20h53.01.777,forced_choiceRT,2021.1.2,MacIntel,59.99880002,,,,,,,,8,Ontime,g,1,1.9997,4,1,17,1,1,,,,,
,1.82,,,,,,,,,g.PNG,g,61057c37788e6c17adc37517,2021-09-08_20h53.01.777,forced_choiceRT,2021.1.2,MacIntel,59.99880002,,,,,,,,8,Ontime,h,0,1.9731,4,2,18,1,1,,,,,
,1.03,,,,,,,,,f.PNG,f,61057c37788e6c17adc37517,2021-09-08_20h53.01.777,forced_choiceRT,2021.1.2,MacIntel,59.99880002,,,,,,,,8,Ontime,f,1,2.0845,4,3,19,0,1,,,,,
,1.42,,,,,,,,,g.PNG,g,61057c37788e6c17adc37517,2021-09-08_20h53.01.777,forced_choiceRT,2021.1.2,MacIntel,59.99880002,,,,,,,,8,Ontime,h,0,1.9486,5,0,20,1,1,,,,,
,1.95,,,,,,,,,j.PNG,j,61057c37788e6c17adc37517,2021-09-08_20h53.01.777,forced_choiceRT,2021.1.2,MacIntel,59.99880002,,,,,,,,8,Ontime,f,0,1.9885,5,1,21,3,1,,,,,
,0.81,,,,,,,,,f.PNG,f,61057c37788e6c17adc37517,2021-09-08_20h53.01.777,forced_choiceRT,2021.1.2,MacIntel,59.99880002,,,,,,,,8,Ontime,f,1,1.9824,5,2,22,0,1,,,,,
,1.15,,,,,,,,,g.PNG,g,61057c37788e6c17adc37517,2021-09-08_20h53.01.777,forced_choiceRT,2021.1.2,MacIntel,59.99880002,,,,,,,,8,Ontime,g,1,1.9499,5,3,23,1,1,,,,,
,1.8,,,,,,,,,h.PNG,h,61057c37788e6c17adc37517,2021-09-08_20h53.01.777,forced_choiceRT,2021.1.2,MacIntel,59.99880002,,,,,,,,8,Slow,j,0,2.1165,6,0,24,2,1,,,,,
,0.37,,,,,,,,,h.PNG,h,61057c37788e6c17adc37517,2021-09-08_20h53.01.777,forced_choiceRT,2021.1.2,MacIntel,59.99880002,,,,,,,,8,Fast,h,1,1.7717,6,1,25,2,1,,,,,
,0.38,,,,,,,,,j.PNG,j,61057c37788e6c17adc37517,2021-09-08_20h53.01.777,forced_choiceRT,2021.1.2,MacIntel,59.99880002,,,,,,,,8,Ontime,j,1,1.9836,6,2,26,3,1,,,,,
,1.19,,,,,,,,,h.PNG,h,61057c37788e6c17adc37517,2021-09-08_20h53.01.777,forced_choiceRT,2021.1.2,MacIntel,59.99880002,,,,,,,,8,Ontime,h,1,2.0333,6,3,27,2,1,,,,,
,0.68,,,,,,,,,j.PNG,j,61057c37788e6c17adc37517,2021-09-08_20h53.01.777,forced_choiceRT,2021.1.2,MacIntel,59.99880002,,,,,,,,8,Ontime,j,1,2.087,7,0,28,3,1,,,,,
,1.49,,,,,,,,,j.PNG,j,61057c37788e6c17adc37517,2021-09-08_20h53.01.777,forced_choiceRT,2021.1.2,MacIntel,59.99880002,,,,,,,,8,Ontime,h,0,2.0403,7,1,29,3,1,,,,,
,0.12,,,,,,,,,f.PNG,f,61057c37788e6c17adc37517,2021-09-08_20h53.01.777,forced_choiceRT,2021.1.2,MacIntel,59.99880002,,,,,,,,8,Ontime,f,1,2.0171,7,2,30,0,1,,,,,
,1.58,,,,,,,,,g.PNG,g,61057c37788e6c17adc37517,2021-09-08_20h53.01.777,forced_choiceRT,2021.1.2,MacIntel,59.99880002,,,,,,,,8,Ontime,f,0,1.9152,7,3,31,1,1,,,,,
,1.08,,,,,,,,,f.PNG,f,61057c37788e6c17adc37517,2021-09-08_20h53.01.777,forced_choiceRT,2021.1.2,MacIntel,59.99880002,,,,,,,,8,Ontime,f,1,1.985,8,0,32,0,1,,,,,
,0.52,,,,,,,,,f.PNG,f,61057c37788e6c17adc37517,2021-09-08_20h53.01.777,forced_choiceRT,2021.1.2,MacIntel,59.99880002,,,,,,,,8,Ontime,f,1,1.9397,8,1,33,0,1,,,,,
,1.87,,,,,,,,,j.PNG,j,61057c37788e6c17adc37517,2021-09-08_20h53.01.777,forced_choiceRT,2021.1.2,MacIntel,59.99880002,,,,,,,,8,Fast,f,0,1.8993,8,2,34,3,1,,,,,
,0.98,,,,,,,,,j.PNG,j,61057c37788e6c17adc37517,2021-09-08_20h53.01.777,forced_choiceRT,2021.1.2,MacIntel,59.99880002,,,,,,,,8,Ontime,j,1,1.9366,8,3,35,3,1,,,,,
,1.85,,,,,,,,,h.PNG,h,61057c37788e6c17adc37517,2021-09-08_20h53.01.777,forced_choiceRT,2021.1.2,MacIntel,59.99880002,,,,,,,,8,Ontime,h,1,1.97,9,0,36,2,1,,,,,
,1.8,,,,,,,,,f.PNG,f,61057c37788e6c17adc37517,2021-09-08_20h53.01.777,forced_choiceRT,2021.1.2,MacIntel,59.99880002,,,,,,,,8,Ontime,g,0,1.9838,9,1,37,0,1,,,,,
,0.54,,,,,,,,,j.PNG,j,61057c37788e6c17adc37517,2021-09-08_20h53.01.777,forced_choiceRT,2021.1.2,MacIntel,59.99880002,,,,,,,,8,Ontime,j,1,2.0327,9,2,38,3,1,,,,,
,1.5,,,,,,,,,h.PNG,h,61057c37788e6c17adc37517,2021-09-08_20h53.01.777,forced_choiceRT,2021.1.2,MacIntel,59.99880002,,,,,,,,8,Fast,f,0,1.8476,9,3,39,2,1,,,,,
,,,,,,,,,,,,61057c37788e6c17adc37517,2021-09-08_20h53.01.777,forced_choiceRT,2021.1.2,MacIntel,59.99880002,,,,,,,,,,,,,,,,,,7,0,7,0,1
,0.94,,,,,,,,,j.PNG,j,61057c37788e6c17adc37517,2021-09-08_20h53.01.777,forced_choiceRT,2021.1.2,MacIntel,59.99880002,,,,,,,,9,Slow,h,0,5.9491,0,0,0,3,1,,,,,
,0.41,,,,,,,,,h.PNG,h,61057c37788e6c17adc37517,2021-09-08_20h53.01.777,forced_choiceRT,2021.1.2,MacIntel,59.99880002,,,,,,,,9,Slow,h,1,2.1007,0,1,1,2,1,,,,,
,0.58,,,,,,,,,h.PNG,h,61057c37788e6c17adc37517,2021-09-08_20h53.01.777,forced_choiceRT,2021.1.2,MacIntel,59.99880002,,,,,,,,9,Ontime,h,1,2.0008,0,2,2,2,1,,,,,
,0.09,,,,,,,,,h.PNG,h,61057c37788e6c17adc37517,2021-09-08_20h53.01.777,forced_choiceRT,2021.1.2,MacIntel,59.99880002,,,,,,,,9,Slow,h,1,2.131,0,3,3,2,1,,,,,
,1.17,,,,,,,,,j.PNG,j,61057c37788e6c17adc37517,2021-09-08_20h53.01.777,forced_choiceRT,2021.1.2,MacIntel,59.99880002,,,,,,,,9,Ontime,j,1,1.9183,1,0,4,3,1,,,,,
,0.27,,,,,,,,,h.PNG,h,61057c37788e6c17adc37517,2021-09-08_20h53.01.777,forced_choiceRT,2021.1.2,MacIntel,59.99880002,,,,,,,,9,Ontime,h,1,1.9567,1,1,5,2,1,,,,,
,0.79,,,,,,,,,j.PNG,j,61057c37788e6c17adc37517,2021-09-08_20h53.01.777,forced_choiceRT,2021.1.2,MacIntel,59.99880002,,,,,,,,9,Ontime,j,1,1.986,1,2,6,3,1,,,,,
,1.41,,,,,,,,,g.PNG,g,61057c37788e6c17adc37517,2021-09-08_20h53.01.777,forced_choiceRT,2021.1.2,MacIntel,59.99880002,,,,,,,,9,Ontime,g,1,2.0328,1,3,7,1,1,,,,,
,1.53,,,,,,,,,f.PNG,f,61057c37788e6c17adc37517,2021-09-08_20h53.01.777,forced_choiceRT,2021.1.2,MacIntel,59.99880002,,,,,,,,9,Ontime,f,1,1.9075,2,0,8,0,1,,,,,
,1.95,,,,,,,,,g.PNG,g,61057c37788e6c17adc37517,2021-09-08_20h53.01.777,forced_choiceRT,2021.1.2,MacIntel,59.99880002,,,,,,,,9,Ontime,g,1,1.9676,2,1,9,1,1,,,,,
,0.5,,,,,,,,,j.PNG,j,61057c37788e6c17adc37517,2021-09-08_20h53.01.777,forced_choiceRT,2021.1.2,MacIntel,59.99880002,,,,,,,,9,Ontime,j,1,2.035,2,2,10,3,1,,,,,
,0.01,,,,,,,,,h.PNG,h,61057c37788e6c17adc37517,2021-09-08_20h53.01.777,forced_choiceRT,2021.1.2,MacIntel,59.99880002,,,,,,,,9,Fast,h,1,1.8684,2,3,11,2,1,,,,,
,0.49,,,,,,,,,h.PNG,h,61057c37788e6c17adc37517,2021-09-08_20h53.01.777,forced_choiceRT,2021.1.2,MacIntel,59.99880002,,,,,,,,9,Ontime,h,1,2.034,3,0,12,2,1,,,,,
,0.07,,,,,,,,,h.PNG,h,61057c37788e6c17adc37517,2021-09-08_20h53.01.777,forced_choiceRT,2021.1.2,MacIntel,59.99880002,,,,,,,,9,Ontime,h,1,2.0483,3,1,13,2,1,,,,,
,1.44,,,,,,,,,g.PNG,g,61057c37788e6c17adc37517,2021-09-08_20h53.01.777,forced_choiceRT,2021.1.2,MacIntel,59.99880002,,,,,,,,9,Ontime,f,0,2.0841,3,2,14,1,1,,,,,
,0.22,,,,,,,,,h.PNG,h,61057c37788e6c17adc37517,2021-09-08_20h53.01.777,forced_choiceRT,2021.1.2,MacIntel,59.99880002,,,,,,,,9,Ontime,h,1,2.0159,3,3,15,2,1,,,,,
,0.81,,,,,,,,,g.PNG,g,61057c37788e6c17adc37517,2021-09-08_20h53.01.777,forced_choiceRT,2021.1.2,MacIntel,59.99880002,,,,,,,,9,Ontime,g,1,1.941,4,0,16,1,1,,,,,
,1.64,,,,,,,,,j.PNG,j,61057c37788e6c17adc37517,2021-09-08_20h53.01.777,forced_choiceRT,2021.1.2,MacIntel,59.99880002,,,,,,,,9,Ontime,g,0,1.9828,4,1,17,3,1,,,,,
,0.39,,,,,,,,,g.PNG,g,61057c37788e6c17adc37517,2021-09-08_20h53.01.777,forced_choiceRT,2021.1.2,MacIntel,59.99880002,,,,,,,,9,Ontime,g,1,2.0165,4,2,18,1,1,,,,,
,1.86,,,,,,,,,g.PNG,g,61057c37788e6c17adc37517,2021-09-08_20h53.01.777,forced_choiceRT,2021.1.2,MacIntel,59.99880002,,,,,,,,9,Ontime,h,0,2.0002,4,3,19,1,1,,,,,
,1.03,,,,,,,,,f.PNG,f,61057c37788e6c17adc37517,2021-09-08_20h53.01.777,forced_choiceRT,2021.1.2,MacIntel,59.99880002,,,,,,,,9,Ontime,f,1,1.9483,5,0,20,0,1,,,,,
,1.36,,,,,,,,,j.PNG,j,61057c37788e6c17adc37517,2021-09-08_20h53.01.777,forced_choiceRT,2021.1.2,MacIntel,59.99880002,,,,,,,,9,Slow,j,1,2.2059,5,1,21,3,1,,,,,
,0.73,,,,,,,,,f.PNG,f,61057c37788e6c17adc37517,2021-09-08_20h53.01.777,forced_choiceRT,2021.1.2,MacIntel,59.99880002,,,,,,,,9,Ontime,f,1,1.9846,5,2,22,0,1,,,,,
,1.48,,,,,,,,,f.PNG,f,61057c37788e6c17adc37517,2021-09-08_20h53.01.777,forced_choiceRT,2021.1.2,MacIntel,59.99880002,,,,,,,,9,Fast,f,1,1.8409,5,3,23,0,1,,,,,
,0.31,,,,,,,,,h.PNG,h,61057c37788e6c17adc37517,2021-09-08_20h53.01.777,forced_choiceRT,2021.1.2,MacIntel,59.99880002,,,,,,,,9,Ontime,h,1,2.0179,6,0,24,2,1,,,,,
,0.05,,,,,,,,,g.PNG,g,61057c37788e6c17adc37517,2021-09-08_20h53.01.777,forced_choiceRT,2021.1.2,MacIntel,59.99880002,,,,,,,,9,Ontime,g,1,2.0535,6,1,25,1,1,,,,,
,0.81,,,,,,,,,g.PNG,g,61057c37788e6c17adc37517,2021-09-08_20h53.01.777,forced_choiceRT,2021.1.2,MacIntel,59.99880002,,,,,,,,9,Fast,g,1,1.7825,6,2,26,1,1,,,,,
,1.49,,,,,,,,,j.PNG,j,61057c37788e6c17adc37517,2021-09-08_20h53.01.777,forced_choiceRT,2021.1.2,MacIntel,59.99880002,,,,,,,,9,Ontime,h,0,2.0205,6,3,27,3,1,,,,,
,1.07,,,,,,,,,j.PNG,j,61057c37788e6c17adc37517,2021-09-08_20h53.01.777,forced_choiceRT,2021.1.2,MacIntel,59.99880002,,,,,,,,9,Slow,j,1,2.1006,7,0,28,3,1,,,,,
,0.18,,,,,,,,,f.PNG,f,61057c37788e6c17adc37517,2021-09-08_20h53.01.777,forced_choiceRT,2021.1.2,MacIntel,59.99880002,,,,,,,,9,Ontime,f,1,2.0342,7,1,29,0,1,,,,,
,0.07,,,,,,,,,j.PNG,j,61057c37788e6c17adc37517,2021-09-08_20h53.01.777,forced_choiceRT,2021.1.2,MacIntel,59.99880002,,,,,,,,9,Ontime,j,1,2.0013,7,2,30,3,1,,,,,
,1.38,,,,,,,,,f.PNG,f,61057c37788e6c17adc37517,2021-09-08_20h53.01.777,forced_choiceRT,2021.1.2,MacIntel,59.99880002,,,,,,,,9,Fast,f,1,1.8641,7,3,31,0,1,,,,,
,1.04,,,,,,,,,f.PNG,f,61057c37788e6c17adc37517,2021-09-08_20h53.01.777,forced_choiceRT,2021.1.2,MacIntel,59.99880002,,,,,,,,9,Slow,f,1,2.1474,8,0,32,0,1,,,,,
,0.71,,,,,,,,,f.PNG,f,61057c37788e6c17adc37517,2021-09-08_20h53.01.777,forced_choiceRT,2021.1.2,MacIntel,59.99880002,,,,,,,,9,Ontime,f,1,1.9489,8,1,33,0,1,,,,,
,1.86,,,,,,,,,f.PNG,f,61057c37788e6c17adc37517,2021-09-08_20h53.01.777,forced_choiceRT,2021.1.2,MacIntel,59.99880002,,,,,,,,9,Ontime,h,0,1.9884,8,2,34,0,1,,,,,
,0.22,,,,,,,,,g.PNG,g,61057c37788e6c17adc37517,2021-09-08_20h53.01.777,forced_choiceRT,2021.1.2,MacIntel,59.99880002,,,,,,,,9,Ontime,g,1,2.0845,8,3,35,1,1,,,,,
,1.92,,,,,,,,,g.PNG,g,61057c37788e6c17adc37517,2021-09-08_20h53.01.777,forced_choiceRT,2021.1.2,MacIntel,59.99880002,,,,,,,,9,Slow,h,0,2.2357,9,0,36,1,1,,,,,
,1.69,,,,,,,,,h.PNG,h,61057c37788e6c17adc37517,2021-09-08_20h53.01.777,forced_choiceRT,2021.1.2,MacIntel,59.99880002,,,,,,,,9,Ontime,h,1,1.9238,9,1,37,2,1,,,,,
,1.22,,,,,,,,,j.PNG,j,61057c37788e6c17adc37517,2021-09-08_20h53.01.777,forced_choiceRT,2021.1.2,MacIntel,59.99880002,,,,,,,,9,Ontime,j,1,1.9647,9,2,38,3,1,,,,,
,1.78,,,,,,,,,f.PNG,f,61057c37788e6c17adc37517,2021-09-08_20h53.01.777,forced_choiceRT,2021.1.2,MacIntel,59.99880002,,,,,,,,9,Ontime,h,0,2.0533,9,3,39,0,1,,,,,
,,,,,,,,,,,,61057c37788e6c17adc37517,2021-09-08_20h53.01.777,forced_choiceRT,2021.1.2,MacIntel,59.99880002,,,,,,,,,,,,,,,,,,8,0,8,0,1
,1.23,,,,,,,,,j.PNG,j,61057c37788e6c17adc37517,2021-09-08_20h53.01.777,forced_choiceRT,2021.1.2,MacIntel,59.99880002,,,,,,,,10,Fast,j,1,1.8246,0,0,0,3,1,,,,,
,1.82,,,,,,,,,f.PNG,f,61057c37788e6c17adc37517,2021-09-08_20h53.01.777,forced_choiceRT,2021.1.2,MacIntel,59.99880002,,,,,,,,10,Ontime,h,0,1.984,0,1,1,0,1,,,,,
,1.86,,,,,,,,,j.PNG,j,61057c37788e6c17adc37517,2021-09-08_20h53.01.777,forced_choiceRT,2021.1.2,MacIntel,59.99880002,,,,,,,,10,Ontime,j,1,1.9648,0,2,2,3,1,,,,,
,0.45,,,,,,,,,j.PNG,j,61057c37788e6c17adc37517,2021-09-08_20h53.01.777,forced_choiceRT,2021.1.2,MacIntel,59.99880002,,,,,,,,10,Ontime,j,1,1.92,0,3,3,3,1,,,,,
,0.62,,,,,,,,,h.PNG,h,61057c37788e6c17adc37517,2021-09-08_20h53.01.777,forced_choiceRT,2021.1.2,MacIntel,59.99880002,,,,,,,,10,Ontime,h,1,1.9059,1,0,4,2,1,,,,,
,1,,,,,,,,,g.PNG,g,61057c37788e6c17adc37517,2021-09-08_20h53.01.777,forced_choiceRT,2021.1.2,MacIntel,59.99880002,,,,,,,,10,Ontime,g,1,2.0164,1,1,5,1,1,,,,,
,0.25,,,,,,,,,f.PNG,f,61057c37788e6c17adc37517,2021-09-08_20h53.01.777,forced_choiceRT,2021.1.2,MacIntel,59.99880002,,,,,,,,10,Ontime,f,1,2.0169,1,2,6,0,1,,,,,
,1.05,,,,,,,,,h.PNG,h,61057c37788e6c17adc37517,2021-09-08_20h53.01.777,forced_choiceRT,2021.1.2,MacIntel,59.99880002,,,,,,,,10,Ontime,h,1,2.0726,1,3,7,2,1,,,,,
,1.62,,,,,,,,,f.PNG,f,61057c37788e6c17adc37517,2021-09-08_20h53.01.777,forced_choiceRT,2021.1.2,MacIntel,59.99880002,,,,,,,,10,Ontime,j,0,1.9734,2,0,8,0,1,,,,,
,0.35,,,,,,,,,h.PNG,h,61057c37788e6c17adc37517,2021-09-08_20h53.01.777,forced_choiceRT,2021.1.2,MacIntel,59.99880002,,,,,,,,10,Ontime,h,1,2.0351,2,1,9,2,1,,,,,
,0.2,,,,,,,,,g.PNG,g,61057c37788e6c17adc37517,2021-09-08_20h53.01.777,forced_choiceRT,2021.1.2,MacIntel,59.99880002,,,,,,,,10,Ontime,g,1,1.9157,2,2,10,1,1,,,,,
,1.66,,,,,,,,,h.PNG,h,61057c37788e6c17adc37517,2021-09-08_20h53.01.777,forced_choiceRT,2021.1.2,MacIntel,59.99880002,,,,,,,,10,Fast,f,0,1.7841,2,3,11,2,1,,,,,
,1.45,,,,,,,,,h.PNG,h,61057c37788e6c17adc37517,2021-09-08_20h53.01.777,forced_choiceRT,2021.1.2,MacIntel,59.99880002,,,,,,,,10,Ontime,h,1,1.9666,3,0,12,2,1,,,,,
,0.06,,,,,,,,,j.PNG,j,61057c37788e6c17adc37517,2021-09-08_20h53.01.777,forced_choiceRT,2021.1.2,MacIntel,59.99880002,,,,,,,,10,Fast,j,1,1.8996,3,1,13,3,1,,,,,
,0.45,,,,,,,,,g.PNG,g,61057c37788e6c17adc37517,2021-09-08_20h53.01.777,forced_choiceRT,2021.1.2,MacIntel,59.99880002,,,,,,,,10,Slow,g,1,2.1325,3,2,14,1,1,,,,,
,0.55,,,,,,,,,h.PNG,h,61057c37788e6c17adc37517,2021-09-08_20h53.01.777,forced_choiceRT,2021.1.2,MacIntel,59.99880002,,,,,,,,10,Ontime,h,1,2.0677,3,3,15,2,1,,,,,
,1.15,,,,,,,,,g.PNG,g,61057c37788e6c17adc37517,2021-09-08_20h53.01.777,forced_choiceRT,2021.1.2,MacIntel,59.99880002,,,,,,,,10,Ontime,h,0,1.9254,4,0,16,1,1,,,,,
,0.65,,,,,,,,,g.PNG,g,61057c37788e6c17adc37517,2021-09-08_20h53.01.777,forced_choiceRT,2021.1.2,MacIntel,59.99880002,,,,,,,,10,Ontime,g,1,2.0165,4,1,17,1,1,,,,,
,0.6,,,,,,,,,j.PNG,j,61057c37788e6c17adc37517,2021-09-08_20h53.01.777,forced_choiceRT,2021.1.2,MacIntel,59.99880002,,,,,,,,10,Ontime,j,1,2.0841,4,2,18,3,1,,,,,
,0.19,,,,,,,,,h.PNG,h,61057c37788e6c17adc37517,2021-09-08_20h53.01.777,forced_choiceRT,2021.1.2,MacIntel,59.99880002,,,,,,,,10,Ontime,h,1,1.9487,4,3,19,2,1,,,,,
,1.5,,,,,,,,,j.PNG,j,61057c37788e6c17adc37517,2021-09-08_20h53.01.777,forced_choiceRT,2021.1.2,MacIntel,59.99880002,,,,,,,,10,Ontime,h,0,2.033,5,0,20,3,1,,,,,
,1.06,,,,,,,,,f.PNG,f,61057c37788e6c17adc37517,2021-09-08_20h53.01.777,forced_choiceRT,2021.1.2,MacIntel,59.99880002,,,,,,,,10,Fast,f,1,1.6729,5,1,21,0,1,,,,,
,1.88,,,,,,,,,h.PNG,h,61057c37788e6c17adc37517,2021-09-08_20h53.01.777,forced_choiceRT,2021.1.2,MacIntel,59.99880002,,,,,,,,10,Ontime,h,1,2.0402,5,2,22,2,1,,,,,
,1.65,,,,,,,,,f.PNG,f,61057c37788e6c17adc37517,2021-09-08_20h53.01.777,forced_choiceRT,2021.1.2,MacIntel,59.99880002,,,,,,,,10,Ontime,h,0,2.0501,5,3,23,0,1,,,,,
,1.04,,,,,,,,,f.PNG,f,61057c37788e6c17adc37517,2021-09-08_20h53.01.777,forced_choiceRT,2021.1.2,MacIntel,59.99880002,,,,,,,,10,Ontime,f,1,1.9682,6,0,24,0,1,,,,,
,0.48,,,,,,,,,j.PNG,j,61057c37788e6c17adc37517,2021-09-08_20h53.01.777,forced_choiceRT,2021.1.2,MacIntel,59.99880002,,,,,,,,10,Ontime,h,0,1.9386,6,1,25,3,1,,,,,
,0.81,,,,,,,,,h.PNG,h,61057c37788e6c17adc37517,2021-09-08_20h53.01.777,forced_choiceRT,2021.1.2,MacIntel,59.99880002,,,,,,,,10,Ontime,h,1,1.9825,6,2,26,2,1,,,,,
,1.47,,,,,,,,,j.PNG,j,61057c37788e6c17adc37517,2021-09-08_20h53.01.777,forced_choiceRT,2021.1.2,MacIntel,59.99880002,,,,,,,,10,Ontime,j,1,1.9988,6,3,27,3,1,,,,,
,1.26,,,,,,,,,f.PNG,f,61057c37788e6c17adc37517,2021-09-08_20h53.01.777,forced_choiceRT,2021.1.2,MacIntel,59.99880002,,,,,,,,10,Ontime,h,0,1.9668,7,0,28,0,1,,,,,
,1.86,,,,,,,,,f.PNG,f,61057c37788e6c17adc37517,2021-09-08_20h53.01.777,forced_choiceRT,2021.1.2,MacIntel,59.99880002,,,,,,,,10,Slow,h,0,2.1163,7,1,29,0,1,,,,,
,0.21,,,,,,,,,g.PNG,g,61057c37788e6c17adc37517,2021-09-08_20h53.01.777,forced_choiceRT,2021.1.2,MacIntel,59.99880002,,,,,,,,10,Ontime,g,1,1.9674,7,2,30,1,1,,,,,
,1.17,,,,,,,,,j.PNG,j,61057c37788e6c17adc37517,2021-09-08_20h53.01.777,forced_choiceRT,2021.1.2,MacIntel,59.99880002,,,,,,,,10,Ontime,h,0,2.0012,7,3,31,3,1,,,,,
,0.97,,,,,,,,,f.PNG,f,61057c37788e6c17adc37517,2021-09-08_20h53.01.777,forced_choiceRT,2021.1.2,MacIntel,59.99880002,,,,,,,,10,Ontime,f,1,1.9235,8,0,32,0,1,,,,,
,1.64,,,,,,,,,f.PNG,f,61057c37788e6c17adc37517,2021-09-08_20h53.01.777,forced_choiceRT,2021.1.2,MacIntel,59.99880002,,,,,,,,10,Ontime,h,0,1.9343,8,1,33,0,1,,,,,
,0.73,,,,,,,,,j.PNG,j,61057c37788e6c17adc37517,2021-09-08_20h53.01.777,forced_choiceRT,2021.1.2,MacIntel,59.99880002,,,,,,,,10,Ontime,j,1,1.9822,8,2,34,3,1,,,,,
,0.29,,,,,,,,,h.PNG,h,61057c37788e6c17adc37517,2021-09-08_20h53.01.777,forced_choiceRT,2021.1.2,MacIntel,59.99880002,,,,,,,,10,Ontime,h,1,2.0005,8,3,35,2,1,,,,,
,0.32,,,,,,,,,g.PNG,g,61057c37788e6c17adc37517,2021-09-08_20h53.01.777,forced_choiceRT,2021.1.2,MacIntel,59.99880002,,,,,,,,10,Ontime,g,1,2.0157,9,0,36,1,1,,,,,
,0.56,,,,,,,,,g.PNG,g,61057c37788e6c17adc37517,2021-09-08_20h53.01.777,forced_choiceRT,2021.1.2,MacIntel,59.99880002,,,,,,,,10,Ontime,g,1,2.0331,9,1,37,1,1,,,,,
,0.82,,,,,,,,,g.PNG,g,61057c37788e6c17adc37517,2021-09-08_20h53.01.777,forced_choiceRT,2021.1.2,MacIntel,59.99880002,,,,,,,,10,Ontime,g,1,1.9149,9,2,38,1,1,,,,,
,0.49,,,,,,,,,g.PNG,g,61057c37788e6c17adc37517,2021-09-08_20h53.01.777,forced_choiceRT,2021.1.2,MacIntel,59.99880002,,,,,,,,10,Ontime,g,1,1.9679,9,3,39,1,1,,,,,
,,,,,,,,,,,,61057c37788e6c17adc37517,2021-09-08_20h53.01.777,forced_choiceRT,2021.1.2,MacIntel,59.99880002,,,,,,,,,,,,,,,,,,9,0,9,0,1
