IP_Addresss,target_onset,trial_resp_sp.keys,trial_resp_sp.corr,trial_resp_sp.rt,trials_train_loop.thisRepN,trials_train_loop.thisTrialN,trials_train_loop.thisN,trials_train_loop.thisIndex,trials_train_loop.ran,pic,correct_key,participant,date,expName,psychopyVersion,OS,frameRate,trial_resp_timing.keys,trial_resp_timing.rt,trials_train_timing.thisRepN,trials_train_timing.thisTrialN,trials_train_timing.thisN,trials_train_timing.thisIndex,trials_train_timing.ran,block_id,ontime,forcedRT_resp.keys,forcedRT_resp.corr,forcedRT_resp.rt,trials.thisRepN,trials.thisTrialN,trials.thisN,trials.thisIndex,trials.ran,blocks.thisRepN,blocks.thisTrialN,blocks.thisN,blocks.thisIndex,blocks.ran
68.100.151.137,0,f,1,2.2111,0,0,0,0,1,f.PNG,f,61072bb0994edb6da025a11b,2021-09-08_16h44.44.886,forced_choiceRT,2021.1.2,MacIntel,60.0024001,,,,,,,,,,,,,,,,,,,,,,
,0,g,1,1.0495,0,1,1,1,1,g.PNG,g,61072bb0994edb6da025a11b,2021-09-08_16h44.44.886,forced_choiceRT,2021.1.2,MacIntel,60.0024001,,,,,,,,,,,,,,,,,,,,,,
,0,j,1,0.8367,0,2,2,3,1,j.PNG,j,61072bb0994edb6da025a11b,2021-09-08_16h44.44.886,forced_choiceRT,2021.1.2,MacIntel,60.0024001,,,,,,,,,,,,,,,,,,,,,,
,0,h,1,1.2392,0,3,3,2,1,h.PNG,h,61072bb0994edb6da025a11b,2021-09-08_16h44.44.886,forced_choiceRT,2021.1.2,MacIntel,60.0024001,,,,,,,,,,,,,,,,,,,,,,
,0,f,1,0.6656,1,0,4,0,1,f.PNG,f,61072bb0994edb6da025a11b,2021-09-08_16h44.44.886,forced_choiceRT,2021.1.2,MacIntel,60.0024001,,,,,,,,,,,,,,,,,,,,,,
,0,h,1,1.082,1,1,5,2,1,h.PNG,h,61072bb0994edb6da025a11b,2021-09-08_16h44.44.886,forced_choiceRT,2021.1.2,MacIntel,60.0024001,,,,,,,,,,,,,,,,,,,,,,
,0,g,1,0.8185,1,2,6,1,1,g.PNG,g,61072bb0994edb6da025a11b,2021-09-08_16h44.44.886,forced_choiceRT,2021.1.2,MacIntel,60.0024001,,,,,,,,,,,,,,,,,,,,,,
,0,f,1,0.5858,1,3,7,0,1,f.PNG,f,61072bb0994edb6da025a11b,2021-09-08_16h44.44.886,forced_choiceRT,2021.1.2,MacIntel,60.0024001,,,,,,,,,,,,,,,,,,,,,,
,0,g,1,0.8503,2,0,8,1,1,g.PNG,g,61072bb0994edb6da025a11b,2021-09-08_16h44.44.886,forced_choiceRT,2021.1.2,MacIntel,60.0024001,,,,,,,,,,,,,,,,,,,,,,
,0,j,1,0.8009,2,1,9,3,1,j.PNG,j,61072bb0994edb6da025a11b,2021-09-08_16h44.44.886,forced_choiceRT,2021.1.2,MacIntel,60.0024001,,,,,,,,,,,,,,,,,,,,,,
,0,g,1,1.0517,2,2,10,1,1,g.PNG,g,61072bb0994edb6da025a11b,2021-09-08_16h44.44.886,forced_choiceRT,2021.1.2,MacIntel,60.0024001,,,,,,,,,,,,,,,,,,,,,,
,0,g,1,0.5502,2,3,11,1,1,g.PNG,g,61072bb0994edb6da025a11b,2021-09-08_16h44.44.886,forced_choiceRT,2021.1.2,MacIntel,60.0024001,,,,,,,,,,,,,,,,,,,,,,
,0,g,1,0.5495,3,0,12,1,1,g.PNG,g,61072bb0994edb6da025a11b,2021-09-08_16h44.44.886,forced_choiceRT,2021.1.2,MacIntel,60.0024001,,,,,,,,,,,,,,,,,,,,,,
,0,j,1,0.8223,3,1,13,3,1,j.PNG,j,61072bb0994edb6da025a11b,2021-09-08_16h44.44.886,forced_choiceRT,2021.1.2,MacIntel,60.0024001,,,,,,,,,,,,,,,,,,,,,,
,0,f,1,0.6695,3,2,14,0,1,f.PNG,f,61072bb0994edb6da025a11b,2021-09-08_16h44.44.886,forced_choiceRT,2021.1.2,MacIntel,60.0024001,,,,,,,,,,,,,,,,,,,,,,
,0,j,1,1.9321,3,3,15,3,1,j.PNG,j,61072bb0994edb6da025a11b,2021-09-08_16h44.44.886,forced_choiceRT,2021.1.2,MacIntel,60.0024001,,,,,,,,,,,,,,,,,,,,,,
,0,f,1,0.6026,4,0,16,0,1,f.PNG,f,61072bb0994edb6da025a11b,2021-09-08_16h44.44.886,forced_choiceRT,2021.1.2,MacIntel,60.0024001,,,,,,,,,,,,,,,,,,,,,,
,0,h,1,1.568,4,1,17,2,1,h.PNG,h,61072bb0994edb6da025a11b,2021-09-08_16h44.44.886,forced_choiceRT,2021.1.2,MacIntel,60.0024001,,,,,,,,,,,,,,,,,,,,,,
,0,g,1,0.7839,4,2,18,1,1,g.PNG,g,61072bb0994edb6da025a11b,2021-09-08_16h44.44.886,forced_choiceRT,2021.1.2,MacIntel,60.0024001,,,,,,,,,,,,,,,,,,,,,,
,0,f,1,0.7171,4,3,19,0,1,f.PNG,f,61072bb0994edb6da025a11b,2021-09-08_16h44.44.886,forced_choiceRT,2021.1.2,MacIntel,60.0024001,,,,,,,,,,,,,,,,,,,,,,
,0,j,1,0.7868,5,0,20,3,1,j.PNG,j,61072bb0994edb6da025a11b,2021-09-08_16h44.44.886,forced_choiceRT,2021.1.2,MacIntel,60.0024001,,,,,,,,,,,,,,,,,,,,,,
,0,j,1,0.5853,5,1,21,3,1,j.PNG,j,61072bb0994edb6da025a11b,2021-09-08_16h44.44.886,forced_choiceRT,2021.1.2,MacIntel,60.0024001,,,,,,,,,,,,,,,,,,,,,,
,0,j,1,0.5286,5,2,22,3,1,j.PNG,j,61072bb0994edb6da025a11b,2021-09-08_16h44.44.886,forced_choiceRT,2021.1.2,MacIntel,60.0024001,,,,,,,,,,,,,,,,,,,,,,
,0,h,1,0.5997,5,3,23,2,1,h.PNG,h,61072bb0994edb6da025a11b,2021-09-08_16h44.44.886,forced_choiceRT,2021.1.2,MacIntel,60.0024001,,,,,,,,,,,,,,,,,,,,,,
,0,f,1,0.533,6,0,24,0,1,f.PNG,f,61072bb0994edb6da025a11b,2021-09-08_16h44.44.886,forced_choiceRT,2021.1.2,MacIntel,60.0024001,,,,,,,,,,,,,,,,,,,,,,
,0,f,1,0.7352,6,1,25,0,1,f.PNG,f,61072bb0994edb6da025a11b,2021-09-08_16h44.44.886,forced_choiceRT,2021.1.2,MacIntel,60.0024001,,,,,,,,,,,,,,,,,,,,,,
,0,h,1,1.0348,6,2,26,2,1,h.PNG,h,61072bb0994edb6da025a11b,2021-09-08_16h44.44.886,forced_choiceRT,2021.1.2,MacIntel,60.0024001,,,,,,,,,,,,,,,,,,,,,,
,0,g,1,0.5988,6,3,27,1,1,g.PNG,g,61072bb0994edb6da025a11b,2021-09-08_16h44.44.886,forced_choiceRT,2021.1.2,MacIntel,60.0024001,,,,,,,,,,,,,,,,,,,,,,
,0,f,1,0.5676,7,0,28,0,1,f.PNG,f,61072bb0994edb6da025a11b,2021-09-08_16h44.44.886,forced_choiceRT,2021.1.2,MacIntel,60.0024001,,,,,,,,,,,,,,,,,,,,,,
,0,f,1,0.6828,7,1,29,0,1,f.PNG,f,61072bb0994edb6da025a11b,2021-09-08_16h44.44.886,forced_choiceRT,2021.1.2,MacIntel,60.0024001,,,,,,,,,,,,,,,,,,,,,,
,0,j,1,0.8,7,2,30,3,1,j.PNG,j,61072bb0994edb6da025a11b,2021-09-08_16h44.44.886,forced_choiceRT,2021.1.2,MacIntel,60.0024001,,,,,,,,,,,,,,,,,,,,,,
,0,j,1,0.5812,7,3,31,3,1,j.PNG,j,61072bb0994edb6da025a11b,2021-09-08_16h44.44.886,forced_choiceRT,2021.1.2,MacIntel,60.0024001,,,,,,,,,,,,,,,,,,,,,,
,0,h,1,0.7843,8,0,32,2,1,h.PNG,h,61072bb0994edb6da025a11b,2021-09-08_16h44.44.886,forced_choiceRT,2021.1.2,MacIntel,60.0024001,,,,,,,,,,,,,,,,,,,,,,
,0,h,1,0.5838,8,1,33,2,1,h.PNG,h,61072bb0994edb6da025a11b,2021-09-08_16h44.44.886,forced_choiceRT,2021.1.2,MacIntel,60.0024001,,,,,,,,,,,,,,,,,,,,,,
,0,h,1,0.4501,8,2,34,2,1,h.PNG,h,61072bb0994edb6da025a11b,2021-09-08_16h44.44.886,forced_choiceRT,2021.1.2,MacIntel,60.0024001,,,,,,,,,,,,,,,,,,,,,,
,0,g,1,0.7041,8,3,35,1,1,g.PNG,g,61072bb0994edb6da025a11b,2021-09-08_16h44.44.886,forced_choiceRT,2021.1.2,MacIntel,60.0024001,,,,,,,,,,,,,,,,,,,,,,
,0,g,1,0.4509,9,0,36,1,1,g.PNG,g,61072bb0994edb6da025a11b,2021-09-08_16h44.44.886,forced_choiceRT,2021.1.2,MacIntel,60.0024001,,,,,,,,,,,,,,,,,,,,,,
,0,g,1,0.451,9,1,37,1,1,g.PNG,g,61072bb0994edb6da025a11b,2021-09-08_16h44.44.886,forced_choiceRT,2021.1.2,MacIntel,60.0024001,,,,,,,,,,,,,,,,,,,,,,
,0,f,1,0.4521,9,2,38,0,1,f.PNG,f,61072bb0994edb6da025a11b,2021-09-08_16h44.44.886,forced_choiceRT,2021.1.2,MacIntel,60.0024001,,,,,,,,,,,,,,,,,,,,,,
,0,h,1,0.6676,9,3,39,2,1,h.PNG,h,61072bb0994edb6da025a11b,2021-09-08_16h44.44.886,forced_choiceRT,2021.1.2,MacIntel,60.0024001,,,,,,,,,,,,,,,,,,,,,,
,0,j,1,0.7357,10,0,40,3,1,j.PNG,j,61072bb0994edb6da025a11b,2021-09-08_16h44.44.886,forced_choiceRT,2021.1.2,MacIntel,60.0024001,,,,,,,,,,,,,,,,,,,,,,
,0,h,0,0.57,10,1,41,3,1,j.PNG,j,61072bb0994edb6da025a11b,2021-09-08_16h44.44.886,forced_choiceRT,2021.1.2,MacIntel,60.0024001,,,,,,,,,,,,,,,,,,,,,,
,0,g,1,0.9178,10,2,42,1,1,g.PNG,g,61072bb0994edb6da025a11b,2021-09-08_16h44.44.886,forced_choiceRT,2021.1.2,MacIntel,60.0024001,,,,,,,,,,,,,,,,,,,,,,
,0,g,1,0.6503,10,3,43,1,1,g.PNG,g,61072bb0994edb6da025a11b,2021-09-08_16h44.44.886,forced_choiceRT,2021.1.2,MacIntel,60.0024001,,,,,,,,,,,,,,,,,,,,,,
,0,g,1,0.488,11,0,44,1,1,g.PNG,g,61072bb0994edb6da025a11b,2021-09-08_16h44.44.886,forced_choiceRT,2021.1.2,MacIntel,60.0024001,,,,,,,,,,,,,,,,,,,,,,
,0,h,1,0.6707,11,1,45,2,1,h.PNG,h,61072bb0994edb6da025a11b,2021-09-08_16h44.44.886,forced_choiceRT,2021.1.2,MacIntel,60.0024001,,,,,,,,,,,,,,,,,,,,,,
,0,h,1,0.6002,11,2,46,2,1,h.PNG,h,61072bb0994edb6da025a11b,2021-09-08_16h44.44.886,forced_choiceRT,2021.1.2,MacIntel,60.0024001,,,,,,,,,,,,,,,,,,,,,,
,0,j,1,0.5542,11,3,47,3,1,j.PNG,j,61072bb0994edb6da025a11b,2021-09-08_16h44.44.886,forced_choiceRT,2021.1.2,MacIntel,60.0024001,,,,,,,,,,,,,,,,,,,,,,
,0,h,1,0.5829,12,0,48,2,1,h.PNG,h,61072bb0994edb6da025a11b,2021-09-08_16h44.44.886,forced_choiceRT,2021.1.2,MacIntel,60.0024001,,,,,,,,,,,,,,,,,,,,,,
,0,g,1,0.6334,12,1,49,1,1,g.PNG,g,61072bb0994edb6da025a11b,2021-09-08_16h44.44.886,forced_choiceRT,2021.1.2,MacIntel,60.0024001,,,,,,,,,,,,,,,,,,,,,,
,0,h,1,0.7071,12,2,50,2,1,h.PNG,h,61072bb0994edb6da025a11b,2021-09-08_16h44.44.886,forced_choiceRT,2021.1.2,MacIntel,60.0024001,,,,,,,,,,,,,,,,,,,,,,
,0,j,1,0.6839,12,3,51,3,1,j.PNG,j,61072bb0994edb6da025a11b,2021-09-08_16h44.44.886,forced_choiceRT,2021.1.2,MacIntel,60.0024001,,,,,,,,,,,,,,,,,,,,,,
,0,f,1,0.5201,13,0,52,0,1,f.PNG,f,61072bb0994edb6da025a11b,2021-09-08_16h44.44.886,forced_choiceRT,2021.1.2,MacIntel,60.0024001,,,,,,,,,,,,,,,,,,,,,,
,0,j,1,0.7842,13,1,53,3,1,j.PNG,j,61072bb0994edb6da025a11b,2021-09-08_16h44.44.886,forced_choiceRT,2021.1.2,MacIntel,60.0024001,,,,,,,,,,,,,,,,,,,,,,
,0,h,1,0.6677,13,2,54,2,1,h.PNG,h,61072bb0994edb6da025a11b,2021-09-08_16h44.44.886,forced_choiceRT,2021.1.2,MacIntel,60.0024001,,,,,,,,,,,,,,,,,,,,,,
,0,f,1,0.633,13,3,55,0,1,f.PNG,f,61072bb0994edb6da025a11b,2021-09-08_16h44.44.886,forced_choiceRT,2021.1.2,MacIntel,60.0024001,,,,,,,,,,,,,,,,,,,,,,
,0,j,1,0.8666,14,0,56,3,1,j.PNG,j,61072bb0994edb6da025a11b,2021-09-08_16h44.44.886,forced_choiceRT,2021.1.2,MacIntel,60.0024001,,,,,,,,,,,,,,,,,,,,,,
,0,f,1,0.5849,14,1,57,0,1,f.PNG,f,61072bb0994edb6da025a11b,2021-09-08_16h44.44.886,forced_choiceRT,2021.1.2,MacIntel,60.0024001,,,,,,,,,,,,,,,,,,,,,,
,0,h,1,0.6327,14,2,58,2,1,h.PNG,h,61072bb0994edb6da025a11b,2021-09-08_16h44.44.886,forced_choiceRT,2021.1.2,MacIntel,60.0024001,,,,,,,,,,,,,,,,,,,,,,
,0,g,0,0.4831,14,3,59,0,1,f.PNG,f,61072bb0994edb6da025a11b,2021-09-08_16h44.44.886,forced_choiceRT,2021.1.2,MacIntel,60.0024001,,,,,,,,,,,,,,,,,,,,,,
,,,,,,,,,,,,61072bb0994edb6da025a11b,2021-09-08_16h44.44.886,forced_choiceRT,2021.1.2,MacIntel,60.0024001,f,2.1309,0,0,0,0,1,,,,,,,,,,,,,,,
,,,,,,,,,,,,61072bb0994edb6da025a11b,2021-09-08_16h44.44.886,forced_choiceRT,2021.1.2,MacIntel,60.0024001,g,2.0187,1,0,1,0,1,,,,,,,,,,,,,,,
,,,,,,,,,,,,61072bb0994edb6da025a11b,2021-09-08_16h44.44.886,forced_choiceRT,2021.1.2,MacIntel,60.0024001,h,1.9661,2,0,2,0,1,,,,,,,,,,,,,,,
,,,,,,,,,,,,61072bb0994edb6da025a11b,2021-09-08_16h44.44.886,forced_choiceRT,2021.1.2,MacIntel,60.0024001,j,2.0323,3,0,3,0,1,,,,,,,,,,,,,,,
,,,,,,,,,,,,61072bb0994edb6da025a11b,2021-09-08_16h44.44.886,forced_choiceRT,2021.1.2,MacIntel,60.0024001,f,2.0154,4,0,4,0,1,,,,,,,,,,,,,,,
,,,,,,,,,,,,61072bb0994edb6da025a11b,2021-09-08_16h44.44.886,forced_choiceRT,2021.1.2,MacIntel,60.0024001,g,2.0351,5,0,5,0,1,,,,,,,,,,,,,,,
,,,,,,,,,,,,61072bb0994edb6da025a11b,2021-09-08_16h44.44.886,forced_choiceRT,2021.1.2,MacIntel,60.0024001,h,2.0838,6,0,6,0,1,,,,,,,,,,,,,,,
,,,,,,,,,,,,61072bb0994edb6da025a11b,2021-09-08_16h44.44.886,forced_choiceRT,2021.1.2,MacIntel,60.0024001,j,2.1014,7,0,7,0,1,,,,,,,,,,,,,,,
,,,,,,,,,,,,61072bb0994edb6da025a11b,2021-09-08_16h44.44.886,forced_choiceRT,2021.1.2,MacIntel,60.0024001,f,2.0169,8,0,8,0,1,,,,,,,,,,,,,,,
,,,,,,,,,,,,61072bb0994edb6da025a11b,2021-09-08_16h44.44.886,forced_choiceRT,2021.1.2,MacIntel,60.0024001,g,2.0862,9,0,9,0,1,,,,,,,,,,,,,,,
,,,,,,,,,,,,61072bb0994edb6da025a11b,2021-09-08_16h44.44.886,forced_choiceRT,2021.1.2,MacIntel,60.0024001,h,1.9683,10,0,10,0,1,,,,,,,,,,,,,,,
,,,,,,,,,,,,61072bb0994edb6da025a11b,2021-09-08_16h44.44.886,forced_choiceRT,2021.1.2,MacIntel,60.0024001,j,2.0676,11,0,11,0,1,,,,,,,,,,,,,,,
,,,,,,,,,,,,61072bb0994edb6da025a11b,2021-09-08_16h44.44.886,forced_choiceRT,2021.1.2,MacIntel,60.0024001,f,2.016,12,0,12,0,1,,,,,,,,,,,,,,,
,,,,,,,,,,,,61072bb0994edb6da025a11b,2021-09-08_16h44.44.886,forced_choiceRT,2021.1.2,MacIntel,60.0024001,g,2.0008,13,0,13,0,1,,,,,,,,,,,,,,,
,,,,,,,,,,,,61072bb0994edb6da025a11b,2021-09-08_16h44.44.886,forced_choiceRT,2021.1.2,MacIntel,60.0024001,h,2.0488,14,0,14,0,1,,,,,,,,,,,,,,,
,,,,,,,,,,,,61072bb0994edb6da025a11b,2021-09-08_16h44.44.886,forced_choiceRT,2021.1.2,MacIntel,60.0024001,j,1.9731,15,0,15,0,1,,,,,,,,,,,,,,,
,,,,,,,,,,,,61072bb0994edb6da025a11b,2021-09-08_16h44.44.886,forced_choiceRT,2021.1.2,MacIntel,60.0024001,f,1.9694,16,0,16,0,1,,,,,,,,,,,,,,,
,,,,,,,,,,,,61072bb0994edb6da025a11b,2021-09-08_16h44.44.886,forced_choiceRT,2021.1.2,MacIntel,60.0024001,g,2.0002,17,0,17,0,1,,,,,,,,,,,,,,,
,,,,,,,,,,,,61072bb0994edb6da025a11b,2021-09-08_16h44.44.886,forced_choiceRT,2021.1.2,MacIntel,60.0024001,h,2.0164,18,0,18,0,1,,,,,,,,,,,,,,,
,,,,,,,,,,,,61072bb0994edb6da025a11b,2021-09-08_16h44.44.886,forced_choiceRT,2021.1.2,MacIntel,60.0024001,j,2.0018,19,0,19,0,1,,,,,,,,,,,,,,,
,0.75,,,,,,,,,g.PNG,g,61072bb0994edb6da025a11b,2021-09-08_16h44.44.886,forced_choiceRT,2021.1.2,MacIntel,60.0024001,,,,,,,,1,Ontime,g,1,2.0795,0,0,0,1,1,,,,,
,1.28,,,,,,,,,h.PNG,h,61072bb0994edb6da025a11b,2021-09-08_16h44.44.886,forced_choiceRT,2021.1.2,MacIntel,60.0024001,,,,,,,,1,Slow,h,1,2.1167,0,1,1,2,1,,,,,
,0.48,,,,,,,,,f.PNG,f,61072bb0994edb6da025a11b,2021-09-08_16h44.44.886,forced_choiceRT,2021.1.2,MacIntel,60.0024001,,,,,,,,1,Ontime,f,1,2.0346,0,2,2,0,1,,,,,
,1.22,,,,,,,,,f.PNG,f,61072bb0994edb6da025a11b,2021-09-08_16h44.44.886,forced_choiceRT,2021.1.2,MacIntel,60.0024001,,,,,,,,1,Ontime,f,1,2.0045,0,3,3,0,1,,,,,
,1.61,,,,,,,,,j.PNG,j,61072bb0994edb6da025a11b,2021-09-08_16h44.44.886,forced_choiceRT,2021.1.2,MacIntel,60.0024001,,,,,,,,1,Slow,j,1,2.3006,1,0,4,3,1,,,,,
,1.49,,,,,,,,,h.PNG,h,61072bb0994edb6da025a11b,2021-09-08_16h44.44.886,forced_choiceRT,2021.1.2,MacIntel,60.0024001,,,,,,,,1,Ontime,h,1,2.0008,1,1,5,2,1,,,,,
,0.36,,,,,,,,,h.PNG,h,61072bb0994edb6da025a11b,2021-09-08_16h44.44.886,forced_choiceRT,2021.1.2,MacIntel,60.0024001,,,,,,,,1,Fast,h,1,1.8543,1,2,6,2,1,,,,,
,0.2,,,,,,,,,f.PNG,f,61072bb0994edb6da025a11b,2021-09-08_16h44.44.886,forced_choiceRT,2021.1.2,MacIntel,60.0024001,,,,,,,,1,Ontime,f,1,2.0336,1,3,7,0,1,,,,,
,1.11,,,,,,,,,g.PNG,g,61072bb0994edb6da025a11b,2021-09-08_16h44.44.886,forced_choiceRT,2021.1.2,MacIntel,60.0024001,,,,,,,,1,Ontime,g,1,2.0682,2,0,8,1,1,,,,,
,0.58,,,,,,,,,f.PNG,f,61072bb0994edb6da025a11b,2021-09-08_16h44.44.886,forced_choiceRT,2021.1.2,MacIntel,60.0024001,,,,,,,,1,Ontime,f,1,2.0676,2,1,9,0,1,,,,,
,1,,,,,,,,,j.PNG,j,61072bb0994edb6da025a11b,2021-09-08_16h44.44.886,forced_choiceRT,2021.1.2,MacIntel,60.0024001,,,,,,,,1,Ontime,j,1,2.0012,2,2,10,3,1,,,,,
,1.94,,,,,,,,,j.PNG,j,61072bb0994edb6da025a11b,2021-09-08_16h44.44.886,forced_choiceRT,2021.1.2,MacIntel,60.0024001,,,,,,,,1,Slow,j,1,8.4835,2,3,11,3,1,,,,,
,1.18,,,,,,,,,j.PNG,j,61072bb0994edb6da025a11b,2021-09-08_16h44.44.886,forced_choiceRT,2021.1.2,MacIntel,60.0024001,,,,,,,,1,Ontime,j,1,2.0191,3,0,12,3,1,,,,,
,1.52,,,,,,,,,j.PNG,j,61072bb0994edb6da025a11b,2021-09-08_16h44.44.886,forced_choiceRT,2021.1.2,MacIntel,60.0024001,,,,,,,,1,Slow,h,0,2.1864,3,1,13,3,1,,,,,
,1.01,,,,,,,,,g.PNG,g,61072bb0994edb6da025a11b,2021-09-08_16h44.44.886,forced_choiceRT,2021.1.2,MacIntel,60.0024001,,,,,,,,1,Ontime,g,1,2.049,3,2,14,1,1,,,,,
,0.28,,,,,,,,,g.PNG,g,61072bb0994edb6da025a11b,2021-09-08_16h44.44.886,forced_choiceRT,2021.1.2,MacIntel,60.0024001,,,,,,,,1,Ontime,g,1,2.0827,3,3,15,1,1,,,,,
,1.14,,,,,,,,,f.PNG,f,61072bb0994edb6da025a11b,2021-09-08_16h44.44.886,forced_choiceRT,2021.1.2,MacIntel,60.0024001,,,,,,,,1,Ontime,f,1,2.0172,4,0,16,0,1,,,,,
,1.46,,,,,,,,,f.PNG,f,61072bb0994edb6da025a11b,2021-09-08_16h44.44.886,forced_choiceRT,2021.1.2,MacIntel,60.0024001,,,,,,,,1,Ontime,f,1,2.0833,4,1,17,0,1,,,,,
,0.89,,,,,,,,,j.PNG,j,61072bb0994edb6da025a11b,2021-09-08_16h44.44.886,forced_choiceRT,2021.1.2,MacIntel,60.0024001,,,,,,,,1,Ontime,j,1,1.985,4,2,18,3,1,,,,,
,1.66,,,,,,,,,h.PNG,h,61072bb0994edb6da025a11b,2021-09-08_16h44.44.886,forced_choiceRT,2021.1.2,MacIntel,60.0024001,,,,,,,,1,Slow,h,1,2.1535,4,3,19,2,1,,,,,
,0.78,,,,,,,,,g.PNG,g,61072bb0994edb6da025a11b,2021-09-08_16h44.44.886,forced_choiceRT,2021.1.2,MacIntel,60.0024001,,,,,,,,1,Ontime,g,1,2.0735,5,0,20,1,1,,,,,
,1.06,,,,,,,,,h.PNG,h,61072bb0994edb6da025a11b,2021-09-08_16h44.44.886,forced_choiceRT,2021.1.2,MacIntel,60.0024001,,,,,,,,1,Ontime,h,1,2.0335,5,1,21,2,1,,,,,
,1.59,,,,,,,,,j.PNG,j,61072bb0994edb6da025a11b,2021-09-08_16h44.44.886,forced_choiceRT,2021.1.2,MacIntel,60.0024001,,,,,,,,1,Slow,j,1,2.1329,5,2,22,3,1,,,,,
,0.55,,,,,,,,,f.PNG,f,61072bb0994edb6da025a11b,2021-09-08_16h44.44.886,forced_choiceRT,2021.1.2,MacIntel,60.0024001,,,,,,,,1,Ontime,f,1,2.018,5,3,23,0,1,,,,,
,0.12,,,,,,,,,g.PNG,g,61072bb0994edb6da025a11b,2021-09-08_16h44.44.886,forced_choiceRT,2021.1.2,MacIntel,60.0024001,,,,,,,,1,Ontime,g,1,2.0516,6,0,24,1,1,,,,,
,1.74,,,,,,,,,h.PNG,h,61072bb0994edb6da025a11b,2021-09-08_16h44.44.886,forced_choiceRT,2021.1.2,MacIntel,60.0024001,,,,,,,,1,Slow,h,1,2.3062,6,1,25,2,1,,,,,
,0.78,,,,,,,,,h.PNG,h,61072bb0994edb6da025a11b,2021-09-08_16h44.44.886,forced_choiceRT,2021.1.2,MacIntel,60.0024001,,,,,,,,1,Ontime,h,1,1.986,6,2,26,2,1,,,,,
,0.06,,,,,,,,,h.PNG,h,61072bb0994edb6da025a11b,2021-09-08_16h44.44.886,forced_choiceRT,2021.1.2,MacIntel,60.0024001,,,,,,,,1,Ontime,h,1,2.0499,6,3,27,2,1,,,,,
,1.54,,,,,,,,,h.PNG,h,61072bb0994edb6da025a11b,2021-09-08_16h44.44.886,forced_choiceRT,2021.1.2,MacIntel,60.0024001,,,,,,,,1,Ontime,h,1,2.0577,7,0,28,2,1,,,,,
,1.11,,,,,,,,,g.PNG,g,61072bb0994edb6da025a11b,2021-09-08_16h44.44.886,forced_choiceRT,2021.1.2,MacIntel,60.0024001,,,,,,,,1,Ontime,g,1,2.0012,7,1,29,1,1,,,,,
,1.16,,,,,,,,,g.PNG,g,61072bb0994edb6da025a11b,2021-09-08_16h44.44.886,forced_choiceRT,2021.1.2,MacIntel,60.0024001,,,,,,,,1,Ontime,g,1,1.992,7,2,30,1,1,,,,,
,1.24,,,,,,,,,h.PNG,h,61072bb0994edb6da025a11b,2021-09-08_16h44.44.886,forced_choiceRT,2021.1.2,MacIntel,60.0024001,,,,,,,,1,Ontime,h,1,2.0494,7,3,31,2,1,,,,,
,0.42,,,,,,,,,j.PNG,j,61072bb0994edb6da025a11b,2021-09-08_16h44.44.886,forced_choiceRT,2021.1.2,MacIntel,60.0024001,,,,,,,,1,Ontime,j,1,2.0535,8,0,32,3,1,,,,,
,0.38,,,,,,,,,j.PNG,j,61072bb0994edb6da025a11b,2021-09-08_16h44.44.886,forced_choiceRT,2021.1.2,MacIntel,60.0024001,,,,,,,,1,Ontime,j,1,2.0161,8,1,33,3,1,,,,,
,1.94,,,,,,,,,f.PNG,f,61072bb0994edb6da025a11b,2021-09-08_16h44.44.886,forced_choiceRT,2021.1.2,MacIntel,60.0024001,,,,,,,,1,Slow,f,1,2.1566,8,2,34,0,1,,,,,
,0.16,,,,,,,,,f.PNG,f,61072bb0994edb6da025a11b,2021-09-08_16h44.44.886,forced_choiceRT,2021.1.2,MacIntel,60.0024001,,,,,,,,1,Ontime,f,1,2.0717,8,3,35,0,1,,,,,
,0.33,,,,,,,,,j.PNG,j,61072bb0994edb6da025a11b,2021-09-08_16h44.44.886,forced_choiceRT,2021.1.2,MacIntel,60.0024001,,,,,,,,1,Slow,j,1,2.1028,9,0,36,3,1,,,,,
,1.91,,,,,,,,,g.PNG,g,61072bb0994edb6da025a11b,2021-09-08_16h44.44.886,forced_choiceRT,2021.1.2,MacIntel,60.0024001,,,,,,,,1,Slow,f,0,2.3555,9,1,37,1,1,,,,,
,0.24,,,,,,,,,g.PNG,g,61072bb0994edb6da025a11b,2021-09-08_16h44.44.886,forced_choiceRT,2021.1.2,MacIntel,60.0024001,,,,,,,,1,Ontime,g,1,2.0192,9,2,38,1,1,,,,,
,1.65,,,,,,,,,f.PNG,f,61072bb0994edb6da025a11b,2021-09-08_16h44.44.886,forced_choiceRT,2021.1.2,MacIntel,60.0024001,,,,,,,,1,Slow,f,1,2.1752,9,3,39,0,1,,,,,
,,,,,,,,,,,,61072bb0994edb6da025a11b,2021-09-08_16h44.44.886,forced_choiceRT,2021.1.2,MacIntel,60.0024001,,,,,,,,,,,,,,,,,,0,0,0,0,1
,1.47,,,,,,,,,h.PNG,h,61072bb0994edb6da025a11b,2021-09-08_16h44.44.886,forced_choiceRT,2021.1.2,MacIntel,60.0024001,,,,,,,,2,Slow,h,1,2.2398,0,0,0,2,1,,,,,
,1.54,,,,,,,,,g.PNG,g,61072bb0994edb6da025a11b,2021-09-08_16h44.44.886,forced_choiceRT,2021.1.2,MacIntel,60.0024001,,,,,,,,2,Ontime,h,0,2.0507,0,1,1,1,1,,,,,
,0.21,,,,,,,,,j.PNG,j,61072bb0994edb6da025a11b,2021-09-08_16h44.44.886,forced_choiceRT,2021.1.2,MacIntel,60.0024001,,,,,,,,2,Ontime,j,1,2.0532,0,2,2,3,1,,,,,
,0.03,,,,,,,,,f.PNG,f,61072bb0994edb6da025a11b,2021-09-08_16h44.44.886,forced_choiceRT,2021.1.2,MacIntel,60.0024001,,,,,,,,2,Ontime,f,1,2.0827,0,3,3,0,1,,,,,
,0.81,,,,,,,,,f.PNG,f,61072bb0994edb6da025a11b,2021-09-08_16h44.44.886,forced_choiceRT,2021.1.2,MacIntel,60.0024001,,,,,,,,2,Slow,f,1,2.1162,1,0,4,0,1,,,,,
,1.7,,,,,,,,,j.PNG,j,61072bb0994edb6da025a11b,2021-09-08_16h44.44.886,forced_choiceRT,2021.1.2,MacIntel,60.0024001,,,,,,,,2,Slow,h,0,2.2505,1,1,5,3,1,,,,,
,1.74,,,,,,,,,h.PNG,h,61072bb0994edb6da025a11b,2021-09-08_16h44.44.886,forced_choiceRT,2021.1.2,MacIntel,60.0024001,,,,,,,,2,Slow,f,0,2.1836,1,2,6,2,1,,,,,
,1.37,,,,,,,,,g.PNG,g,61072bb0994edb6da025a11b,2021-09-08_16h44.44.886,forced_choiceRT,2021.1.2,MacIntel,60.0024001,,,,,,,,2,Ontime,h,0,2.033,1,3,7,1,1,,,,,
,0.98,,,,,,,,,h.PNG,h,61072bb0994edb6da025a11b,2021-09-08_16h44.44.886,forced_choiceRT,2021.1.2,MacIntel,60.0024001,,,,,,,,2,Ontime,h,1,1.9838,2,0,8,2,1,,,,,
,0.07,,,,,,,,,g.PNG,g,61072bb0994edb6da025a11b,2021-09-08_16h44.44.886,forced_choiceRT,2021.1.2,MacIntel,60.0024001,,,,,,,,2,Ontime,g,1,2.0026,2,1,9,1,1,,,,,
,1.31,,,,,,,,,j.PNG,j,61072bb0994edb6da025a11b,2021-09-08_16h44.44.886,forced_choiceRT,2021.1.2,MacIntel,60.0024001,,,,,,,,2,Ontime,j,1,2.018,2,2,10,3,1,,,,,
,0.11,,,,,,,,,f.PNG,f,61072bb0994edb6da025a11b,2021-09-08_16h44.44.886,forced_choiceRT,2021.1.2,MacIntel,60.0024001,,,,,,,,2,Ontime,f,1,2.0178,2,3,11,0,1,,,,,
,1.1,,,,,,,,,j.PNG,j,61072bb0994edb6da025a11b,2021-09-08_16h44.44.886,forced_choiceRT,2021.1.2,MacIntel,60.0024001,,,,,,,,2,Ontime,j,1,2.001,3,0,12,3,1,,,,,
,1.04,,,,,,,,,j.PNG,j,61072bb0994edb6da025a11b,2021-09-08_16h44.44.886,forced_choiceRT,2021.1.2,MacIntel,60.0024001,,,,,,,,2,Ontime,j,1,2.0005,3,1,13,3,1,,,,,
,1.85,,,,,,,,,f.PNG,f,61072bb0994edb6da025a11b,2021-09-08_16h44.44.886,forced_choiceRT,2021.1.2,MacIntel,60.0024001,,,,,,,,2,Slow,j,0,2.1835,3,2,14,0,1,,,,,
,1.93,,,,,,,,,h.PNG,h,61072bb0994edb6da025a11b,2021-09-08_16h44.44.886,forced_choiceRT,2021.1.2,MacIntel,60.0024001,,,,,,,,2,Slow,f,0,2.2495,3,3,15,2,1,,,,,
,1.13,,,,,,,,,j.PNG,j,61072bb0994edb6da025a11b,2021-09-08_16h44.44.886,forced_choiceRT,2021.1.2,MacIntel,60.0024001,,,,,,,,2,Ontime,j,1,1.9822,4,0,16,3,1,,,,,
,0.74,,,,,,,,,h.PNG,h,61072bb0994edb6da025a11b,2021-09-08_16h44.44.886,forced_choiceRT,2021.1.2,MacIntel,60.0024001,,,,,,,,2,Ontime,h,1,2.0324,4,1,17,2,1,,,,,
,1.91,,,,,,,,,j.PNG,j,61072bb0994edb6da025a11b,2021-09-08_16h44.44.886,forced_choiceRT,2021.1.2,MacIntel,60.0024001,,,,,,,,2,Slow,f,0,2.2818,4,2,18,3,1,,,,,
,0.03,,,,,,,,,g.PNG,g,61072bb0994edb6da025a11b,2021-09-08_16h44.44.886,forced_choiceRT,2021.1.2,MacIntel,60.0024001,,,,,,,,2,Ontime,g,1,1.9882,4,3,19,1,1,,,,,
,0.97,,,,,,,,,g.PNG,g,61072bb0994edb6da025a11b,2021-09-08_16h44.44.886,forced_choiceRT,2021.1.2,MacIntel,60.0024001,,,,,,,,2,Ontime,g,1,1.9834,5,0,20,1,1,,,,,
,1.87,,,,,,,,,f.PNG,f,61072bb0994edb6da025a11b,2021-09-08_16h44.44.886,forced_choiceRT,2021.1.2,MacIntel,60.0024001,,,,,,,,2,Slow,j,0,2.2007,5,1,21,0,1,,,,,
,1.24,,,,,,,,,h.PNG,h,61072bb0994edb6da025a11b,2021-09-08_16h44.44.886,forced_choiceRT,2021.1.2,MacIntel,60.0024001,,,,,,,,2,Ontime,h,1,2.0667,5,2,22,2,1,,,,,
,0.99,,,,,,,,,h.PNG,h,61072bb0994edb6da025a11b,2021-09-08_16h44.44.886,forced_choiceRT,2021.1.2,MacIntel,60.0024001,,,,,,,,2,Ontime,h,1,2.0017,5,3,23,2,1,,,,,
,1.24,,,,,,,,,h.PNG,h,61072bb0994edb6da025a11b,2021-09-08_16h44.44.886,forced_choiceRT,2021.1.2,MacIntel,60.0024001,,,,,,,,2,Ontime,h,1,1.9977,6,0,24,2,1,,,,,
,1.92,,,,,,,,,g.PNG,g,61072bb0994edb6da025a11b,2021-09-08_16h44.44.886,forced_choiceRT,2021.1.2,MacIntel,60.0024001,,,,,,,,2,Slow,f,0,2.1081,6,1,25,1,1,,,,,
,0.92,,,,,,,,,j.PNG,j,61072bb0994edb6da025a11b,2021-09-08_16h44.44.886,forced_choiceRT,2021.1.2,MacIntel,60.0024001,,,,,,,,2,Ontime,j,1,1.9668,6,2,26,3,1,,,,,
,1.29,,,,,,,,,g.PNG,g,61072bb0994edb6da025a11b,2021-09-08_16h44.44.886,forced_choiceRT,2021.1.2,MacIntel,60.0024001,,,,,,,,2,Ontime,h,0,1.9567,6,3,27,1,1,,,,,
,1.96,,,,,,,,,f.PNG,f,61072bb0994edb6da025a11b,2021-09-08_16h44.44.886,forced_choiceRT,2021.1.2,MacIntel,60.0024001,,,,,,,,2,Slow,g,0,2.1186,7,0,28,0,1,,,,,
,0.02,,,,,,,,,f.PNG,f,61072bb0994edb6da025a11b,2021-09-08_16h44.44.886,forced_choiceRT,2021.1.2,MacIntel,60.0024001,,,,,,,,2,Ontime,f,1,1.9668,7,1,29,0,1,,,,,
,0.32,,,,,,,,,f.PNG,f,61072bb0994edb6da025a11b,2021-09-08_16h44.44.886,forced_choiceRT,2021.1.2,MacIntel,60.0024001,,,,,,,,2,Ontime,f,1,2.0345,7,2,30,0,1,,,,,
,0.08,,,,,,,,,j.PNG,j,61072bb0994edb6da025a11b,2021-09-08_16h44.44.886,forced_choiceRT,2021.1.2,MacIntel,60.0024001,,,,,,,,2,Ontime,j,1,1.9987,7,3,31,3,1,,,,,
,0.5,,,,,,,,,g.PNG,g,61072bb0994edb6da025a11b,2021-09-08_16h44.44.886,forced_choiceRT,2021.1.2,MacIntel,60.0024001,,,,,,,,2,Ontime,g,1,2.0228,8,0,32,1,1,,,,,
,1.23,,,,,,,,,h.PNG,h,61072bb0994edb6da025a11b,2021-09-08_16h44.44.886,forced_choiceRT,2021.1.2,MacIntel,60.0024001,,,,,,,,2,Ontime,h,1,2.0335,8,1,33,2,1,,,,,
,1.08,,,,,,,,,j.PNG,j,61072bb0994edb6da025a11b,2021-09-08_16h44.44.886,forced_choiceRT,2021.1.2,MacIntel,60.0024001,,,,,,,,2,Ontime,j,1,2.0338,8,2,34,3,1,,,,,
,0.6,,,,,,,,,g.PNG,g,61072bb0994edb6da025a11b,2021-09-08_16h44.44.886,forced_choiceRT,2021.1.2,MacIntel,60.0024001,,,,,,,,2,Ontime,g,1,2,8,3,35,1,1,,,,,
,0.38,,,,,,,,,g.PNG,g,61072bb0994edb6da025a11b,2021-09-08_16h44.44.886,forced_choiceRT,2021.1.2,MacIntel,60.0024001,,,,,,,,2,Ontime,g,1,1.9988,9,0,36,1,1,,,,,
,0.46,,,,,,,,,f.PNG,f,61072bb0994edb6da025a11b,2021-09-08_16h44.44.886,forced_choiceRT,2021.1.2,MacIntel,60.0024001,,,,,,,,2,Ontime,f,1,2.0218,9,1,37,0,1,,,,,
,0.84,,,,,,,,,f.PNG,f,61072bb0994edb6da025a11b,2021-09-08_16h44.44.886,forced_choiceRT,2021.1.2,MacIntel,60.0024001,,,,,,,,2,Ontime,f,1,2.0465,9,2,38,0,1,,,,,
,1.82,,,,,,,,,h.PNG,h,61072bb0994edb6da025a11b,2021-09-08_16h44.44.886,forced_choiceRT,2021.1.2,MacIntel,60.0024001,,,,,,,,2,Slow,j,0,2.2646,9,3,39,2,1,,,,,
,,,,,,,,,,,,61072bb0994edb6da025a11b,2021-09-08_16h44.44.886,forced_choiceRT,2021.1.2,MacIntel,60.0024001,,,,,,,,,,,,,,,,,,1,0,1,0,1
,1.86,,,,,,,,,g.PNG,g,61072bb0994edb6da025a11b,2021-09-08_16h44.44.886,forced_choiceRT,2021.1.2,MacIntel,60.0024001,,,,,,,,3,Ontime,j,0,2.0168,0,0,0,1,1,,,,,
,0.5,,,,,,,,,g.PNG,g,61072bb0994edb6da025a11b,2021-09-08_16h44.44.886,forced_choiceRT,2021.1.2,MacIntel,60.0024001,,,,,,,,3,Ontime,g,1,1.9925,0,1,1,1,1,,,,,
,0.01,,,,,,,,,j.PNG,j,61072bb0994edb6da025a11b,2021-09-08_16h44.44.886,forced_choiceRT,2021.1.2,MacIntel,60.0024001,,,,,,,,3,Ontime,j,1,1.9677,0,2,2,3,1,,,,,
,0.48,,,,,,,,,j.PNG,j,61072bb0994edb6da025a11b,2021-09-08_16h44.44.886,forced_choiceRT,2021.1.2,MacIntel,60.0024001,,,,,,,,3,Fast,j,1,1.8991,0,3,3,3,1,,,,,
,0.25,,,,,,,,,h.PNG,h,61072bb0994edb6da025a11b,2021-09-08_16h44.44.886,forced_choiceRT,2021.1.2,MacIntel,60.0024001,,,,,,,,3,Fast,h,1,1.7497,1,0,4,2,1,,,,,
,1.46,,,,,,,,,h.PNG,h,61072bb0994edb6da025a11b,2021-09-08_16h44.44.886,forced_choiceRT,2021.1.2,MacIntel,60.0024001,,,,,,,,3,Ontime,h,1,1.9652,1,1,5,2,1,,,,,
,1.23,,,,,,,,,f.PNG,f,61072bb0994edb6da025a11b,2021-09-08_16h44.44.886,forced_choiceRT,2021.1.2,MacIntel,60.0024001,,,,,,,,3,Ontime,f,1,1.9022,1,2,6,0,1,,,,,
,1.81,,,,,,,,,h.PNG,h,61072bb0994edb6da025a11b,2021-09-08_16h44.44.886,forced_choiceRT,2021.1.2,MacIntel,60.0024001,,,,,,,,3,Ontime,f,0,2.0177,1,3,7,2,1,,,,,
,0.68,,,,,,,,,g.PNG,g,61072bb0994edb6da025a11b,2021-09-08_16h44.44.886,forced_choiceRT,2021.1.2,MacIntel,60.0024001,,,,,,,,3,Ontime,g,1,1.9511,2,0,8,1,1,,,,,
,0.34,,,,,,,,,g.PNG,g,61072bb0994edb6da025a11b,2021-09-08_16h44.44.886,forced_choiceRT,2021.1.2,MacIntel,60.0024001,,,,,,,,3,Ontime,g,1,1.9524,2,1,9,1,1,,,,,
,0.92,,,,,,,,,j.PNG,j,61072bb0994edb6da025a11b,2021-09-08_16h44.44.886,forced_choiceRT,2021.1.2,MacIntel,60.0024001,,,,,,,,3,Ontime,j,1,1.9717,2,2,10,3,1,,,,,
,1.89,,,,,,,,,f.PNG,f,61072bb0994edb6da025a11b,2021-09-08_16h44.44.886,forced_choiceRT,2021.1.2,MacIntel,60.0024001,,,,,,,,3,Ontime,f,1,2.0856,2,3,11,0,1,,,,,
,0.99,,,,,,,,,f.PNG,f,61072bb0994edb6da025a11b,2021-09-08_16h44.44.886,forced_choiceRT,2021.1.2,MacIntel,60.0024001,,,,,,,,3,Ontime,f,1,1.9843,3,0,12,0,1,,,,,
,1.78,,,,,,,,,h.PNG,h,61072bb0994edb6da025a11b,2021-09-08_16h44.44.886,forced_choiceRT,2021.1.2,MacIntel,60.0024001,,,,,,,,3,Ontime,f,0,1.9513,3,1,13,2,1,,,,,
,0.71,,,,,,,,,h.PNG,h,61072bb0994edb6da025a11b,2021-09-08_16h44.44.886,forced_choiceRT,2021.1.2,MacIntel,60.0024001,,,,,,,,3,Ontime,h,1,2.001,3,2,14,2,1,,,,,
,0.57,,,,,,,,,g.PNG,g,61072bb0994edb6da025a11b,2021-09-08_16h44.44.886,forced_choiceRT,2021.1.2,MacIntel,60.0024001,,,,,,,,3,Ontime,g,1,2.0327,3,3,15,1,1,,,,,
,1.74,,,,,,,,,j.PNG,j,61072bb0994edb6da025a11b,2021-09-08_16h44.44.886,forced_choiceRT,2021.1.2,MacIntel,60.0024001,,,,,,,,3,Ontime,j,1,1.9676,4,0,16,3,1,,,,,
,0.11,,,,,,,,,h.PNG,h,61072bb0994edb6da025a11b,2021-09-08_16h44.44.886,forced_choiceRT,2021.1.2,MacIntel,60.0024001,,,,,,,,3,Ontime,h,1,2.0017,4,1,17,2,1,,,,,
,0.1,,,,,,,,,f.PNG,f,61072bb0994edb6da025a11b,2021-09-08_16h44.44.886,forced_choiceRT,2021.1.2,MacIntel,60.0024001,,,,,,,,3,Ontime,f,1,2.0682,4,2,18,0,1,,,,,
,0.9,,,,,,,,,j.PNG,j,61072bb0994edb6da025a11b,2021-09-08_16h44.44.886,forced_choiceRT,2021.1.2,MacIntel,60.0024001,,,,,,,,3,Ontime,j,1,2.049,4,3,19,3,1,,,,,
,0.57,,,,,,,,,f.PNG,f,61072bb0994edb6da025a11b,2021-09-08_16h44.44.886,forced_choiceRT,2021.1.2,MacIntel,60.0024001,,,,,,,,3,Ontime,f,1,2.0337,5,0,20,0,1,,,,,
,0.96,,,,,,,,,h.PNG,h,61072bb0994edb6da025a11b,2021-09-08_16h44.44.886,forced_choiceRT,2021.1.2,MacIntel,60.0024001,,,,,,,,3,Ontime,h,1,2.0664,5,1,21,2,1,,,,,
,1.7,,,,,,,,,g.PNG,g,61072bb0994edb6da025a11b,2021-09-08_16h44.44.886,forced_choiceRT,2021.1.2,MacIntel,60.0024001,,,,,,,,3,Ontime,f,0,2.0333,5,2,22,1,1,,,,,
,1.99,,,,,,,,,g.PNG,g,61072bb0994edb6da025a11b,2021-09-08_16h44.44.886,forced_choiceRT,2021.1.2,MacIntel,60.0024001,,,,,,,,3,Slow,h,0,2.1184,5,3,23,1,1,,,,,
,1.63,,,,,,,,,h.PNG,h,61072bb0994edb6da025a11b,2021-09-08_16h44.44.886,forced_choiceRT,2021.1.2,MacIntel,60.0024001,,,,,,,,3,Ontime,h,1,2.0541,6,0,24,2,1,,,,,
,1.98,,,,,,,,,g.PNG,g,61072bb0994edb6da025a11b,2021-09-08_16h44.44.886,forced_choiceRT,2021.1.2,MacIntel,60.0024001,,,,,,,,3,Slow,j,0,2.1971,6,1,25,1,1,,,,,
,1.3,,,,,,,,,j.PNG,j,61072bb0994edb6da025a11b,2021-09-08_16h44.44.886,forced_choiceRT,2021.1.2,MacIntel,60.0024001,,,,,,,,3,Slow,h,0,2.1514,6,2,26,3,1,,,,,
,0.65,,,,,,,,,j.PNG,j,61072bb0994edb6da025a11b,2021-09-08_16h44.44.886,forced_choiceRT,2021.1.2,MacIntel,60.0024001,,,,,,,,3,Ontime,j,1,2.0512,6,3,27,3,1,,,,,
,1.39,,,,,,,,,j.PNG,j,61072bb0994edb6da025a11b,2021-09-08_16h44.44.886,forced_choiceRT,2021.1.2,MacIntel,60.0024001,,,,,,,,3,Ontime,j,1,1.9672,7,0,28,3,1,,,,,
,1.38,,,,,,,,,f.PNG,f,61072bb0994edb6da025a11b,2021-09-08_16h44.44.886,forced_choiceRT,2021.1.2,MacIntel,60.0024001,,,,,,,,3,Ontime,f,1,2.0022,7,1,29,0,1,,,,,
,1.11,,,,,,,,,j.PNG,j,61072bb0994edb6da025a11b,2021-09-08_16h44.44.886,forced_choiceRT,2021.1.2,MacIntel,60.0024001,,,,,,,,3,Ontime,j,1,2.0698,7,2,30,3,1,,,,,
,1.31,,,,,,,,,f.PNG,f,61072bb0994edb6da025a11b,2021-09-08_16h44.44.886,forced_choiceRT,2021.1.2,MacIntel,60.0024001,,,,,,,,3,Ontime,f,1,2.0535,7,3,31,0,1,,,,,
,0.33,,,,,,,,,f.PNG,f,61072bb0994edb6da025a11b,2021-09-08_16h44.44.886,forced_choiceRT,2021.1.2,MacIntel,60.0024001,,,,,,,,3,Ontime,f,1,2.071,8,0,32,0,1,,,,,
,0.19,,,,,,,,,h.PNG,h,61072bb0994edb6da025a11b,2021-09-08_16h44.44.886,forced_choiceRT,2021.1.2,MacIntel,60.0024001,,,,,,,,3,Ontime,h,1,2.0167,8,1,33,2,1,,,,,
,0.29,,,,,,,,,j.PNG,j,61072bb0994edb6da025a11b,2021-09-08_16h44.44.886,forced_choiceRT,2021.1.2,MacIntel,60.0024001,,,,,,,,3,Ontime,j,1,2.0005,8,2,34,3,1,,,,,
,1.8,,,,,,,,,g.PNG,g,61072bb0994edb6da025a11b,2021-09-08_16h44.44.886,forced_choiceRT,2021.1.2,MacIntel,60.0024001,,,,,,,,3,Ontime,f,0,2.0351,8,3,35,1,1,,,,,
,1.82,,,,,,,,,g.PNG,g,61072bb0994edb6da025a11b,2021-09-08_16h44.44.886,forced_choiceRT,2021.1.2,MacIntel,60.0024001,,,,,,,,3,Slow,h,0,2.102,9,0,36,1,1,,,,,
,1.6,,,,,,,,,f.PNG,f,61072bb0994edb6da025a11b,2021-09-08_16h44.44.886,forced_choiceRT,2021.1.2,MacIntel,60.0024001,,,,,,,,3,Ontime,f,1,2.0832,9,1,37,0,1,,,,,
,1,,,,,,,,,f.PNG,f,61072bb0994edb6da025a11b,2021-09-08_16h44.44.886,forced_choiceRT,2021.1.2,MacIntel,60.0024001,,,,,,,,3,Ontime,f,1,2.0175,9,2,38,0,1,,,,,
,0.76,,,,,,,,,h.PNG,h,61072bb0994edb6da025a11b,2021-09-08_16h44.44.886,forced_choiceRT,2021.1.2,MacIntel,60.0024001,,,,,,,,3,Ontime,j,0,1.9888,9,3,39,2,1,,,,,
,,,,,,,,,,,,61072bb0994edb6da025a11b,2021-09-08_16h44.44.886,forced_choiceRT,2021.1.2,MacIntel,60.0024001,,,,,,,,,,,,,,,,,,2,0,2,0,1
,0.37,,,,,,,,,f.PNG,f,61072bb0994edb6da025a11b,2021-09-08_16h44.44.886,forced_choiceRT,2021.1.2,MacIntel,60.0024001,,,,,,,,4,Ontime,f,1,2.0308,0,0,0,0,1,,,,,
,1.01,,,,,,,,,f.PNG,f,61072bb0994edb6da025a11b,2021-09-08_16h44.44.886,forced_choiceRT,2021.1.2,MacIntel,60.0024001,,,,,,,,4,Ontime,f,1,1.9662,0,1,1,0,1,,,,,
,0.73,,,,,,,,,f.PNG,f,61072bb0994edb6da025a11b,2021-09-08_16h44.44.886,forced_choiceRT,2021.1.2,MacIntel,60.0024001,,,,,,,,4,Ontime,f,1,1.9663,0,2,2,0,1,,,,,
,0.59,,,,,,,,,f.PNG,f,61072bb0994edb6da025a11b,2021-09-08_16h44.44.886,forced_choiceRT,2021.1.2,MacIntel,60.0024001,,,,,,,,4,Ontime,f,1,1.9849,0,3,3,0,1,,,,,
,0.3,,,,,,,,,j.PNG,j,61072bb0994edb6da025a11b,2021-09-08_16h44.44.886,forced_choiceRT,2021.1.2,MacIntel,60.0024001,,,,,,,,4,Fast,j,1,1.6162,1,0,4,3,1,,,,,
,0.33,,,,,,,,,h.PNG,h,61072bb0994edb6da025a11b,2021-09-08_16h44.44.886,forced_choiceRT,2021.1.2,MacIntel,60.0024001,,,,,,,,4,Ontime,h,1,1.983,1,1,5,2,1,,,,,
,1.34,,,,,,,,,f.PNG,f,61072bb0994edb6da025a11b,2021-09-08_16h44.44.886,forced_choiceRT,2021.1.2,MacIntel,60.0024001,,,,,,,,4,Ontime,f,1,2.0969,1,2,6,0,1,,,,,
,0.85,,,,,,,,,j.PNG,j,61072bb0994edb6da025a11b,2021-09-08_16h44.44.886,forced_choiceRT,2021.1.2,MacIntel,60.0024001,,,,,,,,4,Ontime,j,1,2.0342,1,3,7,3,1,,,,,
,0.5,,,,,,,,,j.PNG,j,61072bb0994edb6da025a11b,2021-09-08_16h44.44.886,forced_choiceRT,2021.1.2,MacIntel,60.0024001,,,,,,,,4,Ontime,j,1,2.0336,2,0,8,3,1,,,,,
,1.55,,,,,,,,,g.PNG,g,61072bb0994edb6da025a11b,2021-09-08_16h44.44.886,forced_choiceRT,2021.1.2,MacIntel,60.0024001,,,,,,,,4,Ontime,f,0,2.0515,2,1,9,1,1,,,,,
,0.07,,,,,,,,,f.PNG,f,61072bb0994edb6da025a11b,2021-09-08_16h44.44.886,forced_choiceRT,2021.1.2,MacIntel,60.0024001,,,,,,,,4,Ontime,f,1,2.0203,2,2,10,0,1,,,,,
,1.64,,,,,,,,,f.PNG,f,61072bb0994edb6da025a11b,2021-09-08_16h44.44.886,forced_choiceRT,2021.1.2,MacIntel,60.0024001,,,,,,,,4,Ontime,f,1,2.0695,2,3,11,0,1,,,,,
,1.24,,,,,,,,,g.PNG,g,61072bb0994edb6da025a11b,2021-09-08_16h44.44.886,forced_choiceRT,2021.1.2,MacIntel,60.0024001,,,,,,,,4,Ontime,h,0,2.0515,3,0,12,1,1,,,,,
,0.84,,,,,,,,,g.PNG,g,61072bb0994edb6da025a11b,2021-09-08_16h44.44.886,forced_choiceRT,2021.1.2,MacIntel,60.0024001,,,,,,,,4,Ontime,g,1,2.0178,3,1,13,1,1,,,,,
,0.9,,,,,,,,,h.PNG,h,61072bb0994edb6da025a11b,2021-09-08_16h44.44.886,forced_choiceRT,2021.1.2,MacIntel,60.0024001,,,,,,,,4,Ontime,h,1,2.0498,3,2,14,2,1,,,,,
,1.25,,,,,,,,,j.PNG,j,61072bb0994edb6da025a11b,2021-09-08_16h44.44.886,forced_choiceRT,2021.1.2,MacIntel,60.0024001,,,,,,,,4,Ontime,j,1,2.0829,3,3,15,3,1,,,,,
,0.31,,,,,,,,,g.PNG,g,61072bb0994edb6da025a11b,2021-09-08_16h44.44.886,forced_choiceRT,2021.1.2,MacIntel,60.0024001,,,,,,,,4,Ontime,g,1,2.017,4,0,16,1,1,,,,,
,0.99,,,,,,,,,h.PNG,h,61072bb0994edb6da025a11b,2021-09-08_16h44.44.886,forced_choiceRT,2021.1.2,MacIntel,60.0024001,,,,,,,,4,Ontime,h,1,2.0218,4,1,17,2,1,,,,,
,0.42,,,,,,,,,g.PNG,g,61072bb0994edb6da025a11b,2021-09-08_16h44.44.886,forced_choiceRT,2021.1.2,MacIntel,60.0024001,,,,,,,,4,Ontime,g,1,2.029,4,2,18,1,1,,,,,
,1.55,,,,,,,,,g.PNG,g,61072bb0994edb6da025a11b,2021-09-08_16h44.44.886,forced_choiceRT,2021.1.2,MacIntel,60.0024001,,,,,,,,4,Slow,h,0,2.1383,4,3,19,1,1,,,,,
,0.37,,,,,,,,,h.PNG,h,61072bb0994edb6da025a11b,2021-09-08_16h44.44.886,forced_choiceRT,2021.1.2,MacIntel,60.0024001,,,,,,,,4,Ontime,h,1,1.9823,5,0,20,2,1,,,,,
,1.82,,,,,,,,,j.PNG,j,61072bb0994edb6da025a11b,2021-09-08_16h44.44.886,forced_choiceRT,2021.1.2,MacIntel,60.0024001,,,,,,,,4,Slow,f,0,2.1006,5,1,21,3,1,,,,,
,1.81,,,,,,,,,h.PNG,h,61072bb0994edb6da025a11b,2021-09-08_16h44.44.886,forced_choiceRT,2021.1.2,MacIntel,60.0024001,,,,,,,,4,Slow,h,1,2.3567,5,2,22,2,1,,,,,
,0.44,,,,,,,,,h.PNG,h,61072bb0994edb6da025a11b,2021-09-08_16h44.44.886,forced_choiceRT,2021.1.2,MacIntel,60.0024001,,,,,,,,4,Ontime,h,1,1.955,5,3,23,2,1,,,,,
,1.18,,,,,,,,,g.PNG,g,61072bb0994edb6da025a11b,2021-09-08_16h44.44.886,forced_choiceRT,2021.1.2,MacIntel,60.0024001,,,,,,,,4,Ontime,g,1,2.0496,6,0,24,1,1,,,,,
,0.98,,,,,,,,,f.PNG,f,61072bb0994edb6da025a11b,2021-09-08_16h44.44.886,forced_choiceRT,2021.1.2,MacIntel,60.0024001,,,,,,,,4,Ontime,f,1,2.0037,6,1,25,0,1,,,,,
,0.93,,,,,,,,,f.PNG,f,61072bb0994edb6da025a11b,2021-09-08_16h44.44.886,forced_choiceRT,2021.1.2,MacIntel,60.0024001,,,,,,,,4,Ontime,f,1,1.9898,6,2,26,0,1,,,,,
,0.54,,,,,,,,,g.PNG,g,61072bb0994edb6da025a11b,2021-09-08_16h44.44.886,forced_choiceRT,2021.1.2,MacIntel,60.0024001,,,,,,,,4,Ontime,g,1,2.0377,6,3,27,1,1,,,,,
,1.88,,,,,,,,,g.PNG,g,61072bb0994edb6da025a11b,2021-09-08_16h44.44.886,forced_choiceRT,2021.1.2,MacIntel,60.0024001,,,,,,,,4,Ontime,f,0,2.0494,7,0,28,1,1,,,,,
,0.67,,,,,,,,,j.PNG,j,61072bb0994edb6da025a11b,2021-09-08_16h44.44.886,forced_choiceRT,2021.1.2,MacIntel,60.0024001,,,,,,,,4,Ontime,j,1,2.0497,7,1,29,3,1,,,,,
,1.71,,,,,,,,,j.PNG,j,61072bb0994edb6da025a11b,2021-09-08_16h44.44.886,forced_choiceRT,2021.1.2,MacIntel,60.0024001,,,,,,,,4,Slow,h,0,2.2333,7,2,30,3,1,,,,,
,1.84,,,,,,,,,h.PNG,h,61072bb0994edb6da025a11b,2021-09-08_16h44.44.886,forced_choiceRT,2021.1.2,MacIntel,60.0024001,,,,,,,,4,Ontime,f,0,2.0351,7,3,31,2,1,,,,,
,0.67,,,,,,,,,h.PNG,h,61072bb0994edb6da025a11b,2021-09-08_16h44.44.886,forced_choiceRT,2021.1.2,MacIntel,60.0024001,,,,,,,,4,Fast,h,1,0.1216,8,0,32,2,1,,,,,
,1.11,,,,,,,,,j.PNG,j,61072bb0994edb6da025a11b,2021-09-08_16h44.44.886,forced_choiceRT,2021.1.2,MacIntel,60.0024001,,,,,,,,4,Ontime,j,1,2.0347,8,1,33,3,1,,,,,
,0.59,,,,,,,,,h.PNG,h,61072bb0994edb6da025a11b,2021-09-08_16h44.44.886,forced_choiceRT,2021.1.2,MacIntel,60.0024001,,,,,,,,4,Ontime,h,1,1.967,8,2,34,2,1,,,,,
,1.27,,,,,,,,,j.PNG,j,61072bb0994edb6da025a11b,2021-09-08_16h44.44.886,forced_choiceRT,2021.1.2,MacIntel,60.0024001,,,,,,,,4,Ontime,j,1,2.0503,8,3,35,3,1,,,,,
,0.63,,,,,,,,,j.PNG,j,61072bb0994edb6da025a11b,2021-09-08_16h44.44.886,forced_choiceRT,2021.1.2,MacIntel,60.0024001,,,,,,,,4,Ontime,j,1,2.0367,9,0,36,3,1,,,,,
,0.42,,,,,,,,,f.PNG,f,61072bb0994edb6da025a11b,2021-09-08_16h44.44.886,forced_choiceRT,2021.1.2,MacIntel,60.0024001,,,,,,,,4,Ontime,f,1,2.0158,9,1,37,0,1,,,,,
,0.75,,,,,,,,,g.PNG,g,61072bb0994edb6da025a11b,2021-09-08_16h44.44.886,forced_choiceRT,2021.1.2,MacIntel,60.0024001,,,,,,,,4,Ontime,g,1,2.035,9,2,38,1,1,,,,,
,0.02,,,,,,,,,h.PNG,h,61072bb0994edb6da025a11b,2021-09-08_16h44.44.886,forced_choiceRT,2021.1.2,MacIntel,60.0024001,,,,,,,,4,Ontime,h,1,2.0172,9,3,39,2,1,,,,,
,,,,,,,,,,,,61072bb0994edb6da025a11b,2021-09-08_16h44.44.886,forced_choiceRT,2021.1.2,MacIntel,60.0024001,,,,,,,,,,,,,,,,,,3,0,3,0,1
,0.68,,,,,,,,,h.PNG,h,61072bb0994edb6da025a11b,2021-09-08_16h44.44.886,forced_choiceRT,2021.1.2,MacIntel,60.0024001,,,,,,,,5,Ontime,h,1,2.0288,0,0,0,2,1,,,,,
,1.78,,,,,,,,,f.PNG,f,61072bb0994edb6da025a11b,2021-09-08_16h44.44.886,forced_choiceRT,2021.1.2,MacIntel,60.0024001,,,,,,,,5,Ontime,f,1,2.0128,0,1,1,0,1,,,,,
,0.88,,,,,,,,,g.PNG,g,61072bb0994edb6da025a11b,2021-09-08_16h44.44.886,forced_choiceRT,2021.1.2,MacIntel,60.0024001,,,,,,,,5,Ontime,g,1,1.9988,0,2,2,1,1,,,,,
,0.78,,,,,,,,,h.PNG,h,61072bb0994edb6da025a11b,2021-09-08_16h44.44.886,forced_choiceRT,2021.1.2,MacIntel,60.0024001,,,,,,,,5,Ontime,h,1,2.0502,0,3,3,2,1,,,,,
,0.85,,,,,,,,,j.PNG,j,61072bb0994edb6da025a11b,2021-09-08_16h44.44.886,forced_choiceRT,2021.1.2,MacIntel,60.0024001,,,,,,,,5,Ontime,j,1,2.0009,1,0,4,3,1,,,,,
,0.07,,,,,,,,,f.PNG,f,61072bb0994edb6da025a11b,2021-09-08_16h44.44.886,forced_choiceRT,2021.1.2,MacIntel,60.0024001,,,,,,,,5,Ontime,f,1,1.9831,1,1,5,0,1,,,,,
,0.15,,,,,,,,,h.PNG,h,61072bb0994edb6da025a11b,2021-09-08_16h44.44.886,forced_choiceRT,2021.1.2,MacIntel,60.0024001,,,,,,,,5,Ontime,h,1,1.9667,1,2,6,2,1,,,,,
,0.02,,,,,,,,,h.PNG,h,61072bb0994edb6da025a11b,2021-09-08_16h44.44.886,forced_choiceRT,2021.1.2,MacIntel,60.0024001,,,,,,,,5,Ontime,h,1,2.0008,1,3,7,2,1,,,,,
,0.08,,,,,,,,,f.PNG,f,61072bb0994edb6da025a11b,2021-09-08_16h44.44.886,forced_choiceRT,2021.1.2,MacIntel,60.0024001,,,,,,,,5,Ontime,f,1,2.0574,2,0,8,0,1,,,,,
,0.32,,,,,,,,,g.PNG,g,61072bb0994edb6da025a11b,2021-09-08_16h44.44.886,forced_choiceRT,2021.1.2,MacIntel,60.0024001,,,,,,,,5,Ontime,g,1,2.0671,2,1,9,1,1,,,,,
,0.05,,,,,,,,,h.PNG,h,61072bb0994edb6da025a11b,2021-09-08_16h44.44.886,forced_choiceRT,2021.1.2,MacIntel,60.0024001,,,,,,,,5,Ontime,h,1,2.0043,2,2,10,2,1,,,,,
,0.34,,,,,,,,,g.PNG,g,61072bb0994edb6da025a11b,2021-09-08_16h44.44.886,forced_choiceRT,2021.1.2,MacIntel,60.0024001,,,,,,,,5,Ontime,g,1,2.0333,2,3,11,1,1,,,,,
,0.43,,,,,,,,,g.PNG,g,61072bb0994edb6da025a11b,2021-09-08_16h44.44.886,forced_choiceRT,2021.1.2,MacIntel,60.0024001,,,,,,,,5,Ontime,g,1,2.0864,3,0,12,1,1,,,,,
,0.19,,,,,,,,,f.PNG,f,61072bb0994edb6da025a11b,2021-09-08_16h44.44.886,forced_choiceRT,2021.1.2,MacIntel,60.0024001,,,,,,,,5,Ontime,f,1,2,3,1,13,0,1,,,,,
,0.84,,,,,,,,,g.PNG,g,61072bb0994edb6da025a11b,2021-09-08_16h44.44.886,forced_choiceRT,2021.1.2,MacIntel,60.0024001,,,,,,,,5,Slow,g,1,2.1033,3,2,14,1,1,,,,,
,1.48,,,,,,,,,j.PNG,j,61072bb0994edb6da025a11b,2021-09-08_16h44.44.886,forced_choiceRT,2021.1.2,MacIntel,60.0024001,,,,,,,,5,Ontime,f,0,1.9476,3,3,15,3,1,,,,,
,0.15,,,,,,,,,f.PNG,f,61072bb0994edb6da025a11b,2021-09-08_16h44.44.886,forced_choiceRT,2021.1.2,MacIntel,60.0024001,,,,,,,,5,Fast,f,1,1.8383,4,0,16,0,1,,,,,
,0.24,,,,,,,,,g.PNG,g,61072bb0994edb6da025a11b,2021-09-08_16h44.44.886,forced_choiceRT,2021.1.2,MacIntel,60.0024001,,,,,,,,5,Ontime,g,1,1.9022,4,1,17,1,1,,,,,
,0.57,,,,,,,,,g.PNG,g,61072bb0994edb6da025a11b,2021-09-08_16h44.44.886,forced_choiceRT,2021.1.2,MacIntel,60.0024001,,,,,,,,5,Ontime,g,1,1.9717,4,2,18,1,1,,,,,
,0.64,,,,,,,,,g.PNG,g,61072bb0994edb6da025a11b,2021-09-08_16h44.44.886,forced_choiceRT,2021.1.2,MacIntel,60.0024001,,,,,,,,5,Fast,g,1,1.8841,4,3,19,1,1,,,,,
,1.64,,,,,,,,,h.PNG,h,61072bb0994edb6da025a11b,2021-09-08_16h44.44.886,forced_choiceRT,2021.1.2,MacIntel,60.0024001,,,,,,,,5,Ontime,f,0,2.0166,5,0,20,2,1,,,,,
,0.1,,,,,,,,,j.PNG,j,61072bb0994edb6da025a11b,2021-09-08_16h44.44.886,forced_choiceRT,2021.1.2,MacIntel,60.0024001,,,,,,,,5,Fast,j,1,1.8655,5,1,21,3,1,,,,,
,0.51,,,,,,,,,h.PNG,h,61072bb0994edb6da025a11b,2021-09-08_16h44.44.886,forced_choiceRT,2021.1.2,MacIntel,60.0024001,,,,,,,,5,Ontime,h,1,1.9158,5,2,22,2,1,,,,,
,1.51,,,,,,,,,j.PNG,j,61072bb0994edb6da025a11b,2021-09-08_16h44.44.886,forced_choiceRT,2021.1.2,MacIntel,60.0024001,,,,,,,,5,Ontime,h,0,2.0347,5,3,23,3,1,,,,,
,1.65,,,,,,,,,f.PNG,f,61072bb0994edb6da025a11b,2021-09-08_16h44.44.886,forced_choiceRT,2021.1.2,MacIntel,60.0024001,,,,,,,,5,Ontime,h,0,2.0506,6,0,24,0,1,,,,,
,1.72,,,,,,,,,h.PNG,h,61072bb0994edb6da025a11b,2021-09-08_16h44.44.886,forced_choiceRT,2021.1.2,MacIntel,60.0024001,,,,,,,,5,Slow,h,1,2.1027,6,1,25,2,1,,,,,
,0.04,,,,,,,,,h.PNG,h,61072bb0994edb6da025a11b,2021-09-08_16h44.44.886,forced_choiceRT,2021.1.2,MacIntel,60.0024001,,,,,,,,5,Ontime,h,1,1.9337,6,2,26,2,1,,,,,
,1.81,,,,,,,,,j.PNG,j,61072bb0994edb6da025a11b,2021-09-08_16h44.44.886,forced_choiceRT,2021.1.2,MacIntel,60.0024001,,,,,,,,5,Ontime,f,0,2.0013,6,3,27,3,1,,,,,
,0.89,,,,,,,,,j.PNG,j,61072bb0994edb6da025a11b,2021-09-08_16h44.44.886,forced_choiceRT,2021.1.2,MacIntel,60.0024001,,,,,,,,5,Ontime,j,1,2.0838,7,0,28,3,1,,,,,
,1.72,,,,,,,,,g.PNG,g,61072bb0994edb6da025a11b,2021-09-08_16h44.44.886,forced_choiceRT,2021.1.2,MacIntel,60.0024001,,,,,,,,5,Ontime,j,0,2.0648,7,1,29,1,1,,,,,
,0.3,,,,,,,,,h.PNG,h,61072bb0994edb6da025a11b,2021-09-08_16h44.44.886,forced_choiceRT,2021.1.2,MacIntel,60.0024001,,,,,,,,5,Fast,h,1,1.7349,7,2,30,2,1,,,,,
,0.59,,,,,,,,,g.PNG,g,61072bb0994edb6da025a11b,2021-09-08_16h44.44.886,forced_choiceRT,2021.1.2,MacIntel,60.0024001,,,,,,,,5,Ontime,g,1,2.0178,7,3,31,1,1,,,,,
,1.18,,,,,,,,,j.PNG,j,61072bb0994edb6da025a11b,2021-09-08_16h44.44.886,forced_choiceRT,2021.1.2,MacIntel,60.0024001,,,,,,,,5,Ontime,j,1,2.0003,8,0,32,3,1,,,,,
,1.05,,,,,,,,,j.PNG,j,61072bb0994edb6da025a11b,2021-09-08_16h44.44.886,forced_choiceRT,2021.1.2,MacIntel,60.0024001,,,,,,,,5,Ontime,j,1,1.9676,8,1,33,3,1,,,,,
,0.5,,,,,,,,,f.PNG,f,61072bb0994edb6da025a11b,2021-09-08_16h44.44.886,forced_choiceRT,2021.1.2,MacIntel,60.0024001,,,,,,,,5,Ontime,f,1,1.9681,8,2,34,0,1,,,,,
,0.37,,,,,,,,,j.PNG,j,61072bb0994edb6da025a11b,2021-09-08_16h44.44.886,forced_choiceRT,2021.1.2,MacIntel,60.0024001,,,,,,,,5,Ontime,j,1,2.0183,8,3,35,3,1,,,,,
,1.66,,,,,,,,,f.PNG,f,61072bb0994edb6da025a11b,2021-09-08_16h44.44.886,forced_choiceRT,2021.1.2,MacIntel,60.0024001,,,,,,,,5,Ontime,j,0,2.0185,9,0,36,0,1,,,,,
,0.19,,,,,,,,,f.PNG,f,61072bb0994edb6da025a11b,2021-09-08_16h44.44.886,forced_choiceRT,2021.1.2,MacIntel,60.0024001,,,,,,,,5,Ontime,f,1,2.0347,9,1,37,0,1,,,,,
,0.9,,,,,,,,,j.PNG,j,61072bb0994edb6da025a11b,2021-09-08_16h44.44.886,forced_choiceRT,2021.1.2,MacIntel,60.0024001,,,,,,,,5,Ontime,j,1,1.9839,9,2,38,3,1,,,,,
,0.18,,,,,,,,,f.PNG,f,61072bb0994edb6da025a11b,2021-09-08_16h44.44.886,forced_choiceRT,2021.1.2,MacIntel,60.0024001,,,,,,,,5,Ontime,f,1,1.9842,9,3,39,0,1,,,,,
,,,,,,,,,,,,61072bb0994edb6da025a11b,2021-09-08_16h44.44.886,forced_choiceRT,2021.1.2,MacIntel,60.0024001,,,,,,,,,,,,,,,,,,4,0,4,0,1
,0.63,,,,,,,,,j.PNG,j,61072bb0994edb6da025a11b,2021-09-08_16h44.44.886,forced_choiceRT,2021.1.2,MacIntel,60.0024001,,,,,,,,6,Ontime,j,1,1.963,0,0,0,3,1,,,,,
,0.48,,,,,,,,,g.PNG,g,61072bb0994edb6da025a11b,2021-09-08_16h44.44.886,forced_choiceRT,2021.1.2,MacIntel,60.0024001,,,,,,,,6,Ontime,g,1,1.9857,0,1,1,1,1,,,,,
,0.96,,,,,,,,,h.PNG,h,61072bb0994edb6da025a11b,2021-09-08_16h44.44.886,forced_choiceRT,2021.1.2,MacIntel,60.0024001,,,,,,,,6,Ontime,h,1,2.0191,0,2,2,2,1,,,,,
,1.04,,,,,,,,,j.PNG,j,61072bb0994edb6da025a11b,2021-09-08_16h44.44.886,forced_choiceRT,2021.1.2,MacIntel,60.0024001,,,,,,,,6,Ontime,j,1,2.0031,0,3,3,3,1,,,,,
,1.28,,,,,,,,,f.PNG,f,61072bb0994edb6da025a11b,2021-09-08_16h44.44.886,forced_choiceRT,2021.1.2,MacIntel,60.0024001,,,,,,,,6,Ontime,f,1,2.0183,1,0,4,0,1,,,,,
,0.02,,,,,,,,,j.PNG,j,61072bb0994edb6da025a11b,2021-09-08_16h44.44.886,forced_choiceRT,2021.1.2,MacIntel,60.0024001,,,,,,,,6,Ontime,j,1,2.0678,1,1,5,3,1,,,,,
,0.26,,,,,,,,,g.PNG,g,61072bb0994edb6da025a11b,2021-09-08_16h44.44.886,forced_choiceRT,2021.1.2,MacIntel,60.0024001,,,,,,,,6,Ontime,g,1,2.0663,1,2,6,1,1,,,,,
,1.43,,,,,,,,,h.PNG,h,61072bb0994edb6da025a11b,2021-09-08_16h44.44.886,forced_choiceRT,2021.1.2,MacIntel,60.0024001,,,,,,,,6,Slow,h,1,2.1492,1,3,7,2,1,,,,,
,1.75,,,,,,,,,j.PNG,j,61072bb0994edb6da025a11b,2021-09-08_16h44.44.886,forced_choiceRT,2021.1.2,MacIntel,60.0024001,,,,,,,,6,Ontime,j,1,2.0001,2,0,8,3,1,,,,,
,0.61,,,,,,,,,f.PNG,f,61072bb0994edb6da025a11b,2021-09-08_16h44.44.886,forced_choiceRT,2021.1.2,MacIntel,60.0024001,,,,,,,,6,Ontime,f,1,2.0174,2,1,9,0,1,,,,,
,1.6,,,,,,,,,g.PNG,g,61072bb0994edb6da025a11b,2021-09-08_16h44.44.886,forced_choiceRT,2021.1.2,MacIntel,60.0024001,,,,,,,,6,Ontime,h,0,2.0846,2,2,10,1,1,,,,,
,0.41,,,,,,,,,j.PNG,j,61072bb0994edb6da025a11b,2021-09-08_16h44.44.886,forced_choiceRT,2021.1.2,MacIntel,60.0024001,,,,,,,,6,Ontime,j,1,1.9834,2,3,11,3,1,,,,,
,0.81,,,,,,,,,g.PNG,g,61072bb0994edb6da025a11b,2021-09-08_16h44.44.886,forced_choiceRT,2021.1.2,MacIntel,60.0024001,,,,,,,,6,Ontime,g,1,2.0702,3,0,12,1,1,,,,,
,0.8,,,,,,,,,h.PNG,h,61072bb0994edb6da025a11b,2021-09-08_16h44.44.886,forced_choiceRT,2021.1.2,MacIntel,60.0024001,,,,,,,,6,Ontime,h,1,2.0532,3,1,13,2,1,,,,,
,0.85,,,,,,,,,j.PNG,j,61072bb0994edb6da025a11b,2021-09-08_16h44.44.886,forced_choiceRT,2021.1.2,MacIntel,60.0024001,,,,,,,,6,Ontime,j,1,2.0018,3,2,14,3,1,,,,,
,0.07,,,,,,,,,h.PNG,h,61072bb0994edb6da025a11b,2021-09-08_16h44.44.886,forced_choiceRT,2021.1.2,MacIntel,60.0024001,,,,,,,,6,Ontime,h,1,1.999,3,3,15,2,1,,,,,
,1.97,,,,,,,,,f.PNG,f,61072bb0994edb6da025a11b,2021-09-08_16h44.44.886,forced_choiceRT,2021.1.2,MacIntel,60.0024001,,,,,,,,6,Ontime,f,1,2.0358,4,0,16,0,1,,,,,
,1.72,,,,,,,,,j.PNG,j,61072bb0994edb6da025a11b,2021-09-08_16h44.44.886,forced_choiceRT,2021.1.2,MacIntel,60.0024001,,,,,,,,6,Ontime,f,0,1.984,4,1,17,3,1,,,,,
,0.71,,,,,,,,,g.PNG,g,61072bb0994edb6da025a11b,2021-09-08_16h44.44.886,forced_choiceRT,2021.1.2,MacIntel,60.0024001,,,,,,,,6,Ontime,g,1,2.0192,4,2,18,1,1,,,,,
,1.21,,,,,,,,,h.PNG,h,61072bb0994edb6da025a11b,2021-09-08_16h44.44.886,forced_choiceRT,2021.1.2,MacIntel,60.0024001,,,,,,,,6,Ontime,h,1,2.0843,4,3,19,2,1,,,,,
,0.56,,,,,,,,,g.PNG,g,61072bb0994edb6da025a11b,2021-09-08_16h44.44.886,forced_choiceRT,2021.1.2,MacIntel,60.0024001,,,,,,,,6,Ontime,g,1,2.0339,5,0,20,1,1,,,,,
,1.96,,,,,,,,,h.PNG,h,61072bb0994edb6da025a11b,2021-09-08_16h44.44.886,forced_choiceRT,2021.1.2,MacIntel,60.0024001,,,,,,,,6,Ontime,h,1,2.0682,5,1,21,2,1,,,,,
,1.91,,,,,,,,,f.PNG,f,61072bb0994edb6da025a11b,2021-09-08_16h44.44.886,forced_choiceRT,2021.1.2,MacIntel,60.0024001,,,,,,,,6,Slow,h,0,2.1004,5,2,22,0,1,,,,,
,0.93,,,,,,,,,h.PNG,h,61072bb0994edb6da025a11b,2021-09-08_16h44.44.886,forced_choiceRT,2021.1.2,MacIntel,60.0024001,,,,,,,,6,Ontime,h,1,1.9998,5,3,23,2,1,,,,,
,0.89,,,,,,,,,f.PNG,f,61072bb0994edb6da025a11b,2021-09-08_16h44.44.886,forced_choiceRT,2021.1.2,MacIntel,60.0024001,,,,,,,,6,Ontime,f,1,1.9812,6,0,24,0,1,,,,,
,1.15,,,,,,,,,j.PNG,j,61072bb0994edb6da025a11b,2021-09-08_16h44.44.886,forced_choiceRT,2021.1.2,MacIntel,60.0024001,,,,,,,,6,Ontime,j,1,2.0334,6,1,25,3,1,,,,,
,0.34,,,,,,,,,g.PNG,g,61072bb0994edb6da025a11b,2021-09-08_16h44.44.886,forced_choiceRT,2021.1.2,MacIntel,60.0024001,,,,,,,,6,Ontime,g,1,1.967,6,2,26,1,1,,,,,
,0.09,,,,,,,,,f.PNG,f,61072bb0994edb6da025a11b,2021-09-08_16h44.44.886,forced_choiceRT,2021.1.2,MacIntel,60.0024001,,,,,,,,6,Ontime,f,1,2.0842,6,3,27,0,1,,,,,
,1.39,,,,,,,,,h.PNG,h,61072bb0994edb6da025a11b,2021-09-08_16h44.44.886,forced_choiceRT,2021.1.2,MacIntel,60.0024001,,,,,,,,6,Slow,h,1,2.1209,7,0,28,2,1,,,,,
,0.34,,,,,,,,,g.PNG,g,61072bb0994edb6da025a11b,2021-09-08_16h44.44.886,forced_choiceRT,2021.1.2,MacIntel,60.0024001,,,,,,,,6,Ontime,g,1,2.001,7,1,29,1,1,,,,,
,0.26,,,,,,,,,g.PNG,g,61072bb0994edb6da025a11b,2021-09-08_16h44.44.886,forced_choiceRT,2021.1.2,MacIntel,60.0024001,,,,,,,,6,Ontime,g,1,1.9995,7,2,30,1,1,,,,,
,0.68,,,,,,,,,f.PNG,f,61072bb0994edb6da025a11b,2021-09-08_16h44.44.886,forced_choiceRT,2021.1.2,MacIntel,60.0024001,,,,,,,,6,Ontime,f,1,1.9797,7,3,31,0,1,,,,,
,0.75,,,,,,,,,j.PNG,j,61072bb0994edb6da025a11b,2021-09-08_16h44.44.886,forced_choiceRT,2021.1.2,MacIntel,60.0024001,,,,,,,,6,Ontime,j,1,2.067,8,0,32,3,1,,,,,
,1.89,,,,,,,,,f.PNG,f,61072bb0994edb6da025a11b,2021-09-08_16h44.44.886,forced_choiceRT,2021.1.2,MacIntel,60.0024001,,,,,,,,6,Ontime,f,1,2.0681,8,1,33,0,1,,,,,
,0.35,,,,,,,,,f.PNG,f,61072bb0994edb6da025a11b,2021-09-08_16h44.44.886,forced_choiceRT,2021.1.2,MacIntel,60.0024001,,,,,,,,6,Ontime,f,1,1.9855,8,2,34,0,1,,,,,
,0.66,,,,,,,,,h.PNG,h,61072bb0994edb6da025a11b,2021-09-08_16h44.44.886,forced_choiceRT,2021.1.2,MacIntel,60.0024001,,,,,,,,6,Ontime,h,1,2.0031,8,3,35,2,1,,,,,
,0.76,,,,,,,,,g.PNG,g,61072bb0994edb6da025a11b,2021-09-08_16h44.44.886,forced_choiceRT,2021.1.2,MacIntel,60.0024001,,,,,,,,6,Ontime,g,1,1.9478,9,0,36,1,1,,,,,
,1.1,,,,,,,,,f.PNG,f,61072bb0994edb6da025a11b,2021-09-08_16h44.44.886,forced_choiceRT,2021.1.2,MacIntel,60.0024001,,,,,,,,6,Ontime,f,1,2.0367,9,1,37,0,1,,,,,
,1.11,,,,,,,,,h.PNG,h,61072bb0994edb6da025a11b,2021-09-08_16h44.44.886,forced_choiceRT,2021.1.2,MacIntel,60.0024001,,,,,,,,6,Ontime,h,1,2.0008,9,2,38,2,1,,,,,
,0.73,,,,,,,,,j.PNG,j,61072bb0994edb6da025a11b,2021-09-08_16h44.44.886,forced_choiceRT,2021.1.2,MacIntel,60.0024001,,,,,,,,6,Ontime,j,1,2.0957,9,3,39,3,1,,,,,
,,,,,,,,,,,,61072bb0994edb6da025a11b,2021-09-08_16h44.44.886,forced_choiceRT,2021.1.2,MacIntel,60.0024001,,,,,,,,,,,,,,,,,,5,0,5,0,1
,0.54,,,,,,,,,h.PNG,h,61072bb0994edb6da025a11b,2021-09-08_16h44.44.886,forced_choiceRT,2021.1.2,MacIntel,60.0024001,,,,,,,,7,Ontime,h,1,1.9885,0,0,0,2,1,,,,,
,0.75,,,,,,,,,g.PNG,g,61072bb0994edb6da025a11b,2021-09-08_16h44.44.886,forced_choiceRT,2021.1.2,MacIntel,60.0024001,,,,,,,,7,Ontime,g,1,1.9826,0,1,1,1,1,,,,,
,0.83,,,,,,,,,h.PNG,h,61072bb0994edb6da025a11b,2021-09-08_16h44.44.886,forced_choiceRT,2021.1.2,MacIntel,60.0024001,,,,,,,,7,Ontime,h,1,1.9841,0,2,2,2,1,,,,,
,0.87,,,,,,,,,j.PNG,j,61072bb0994edb6da025a11b,2021-09-08_16h44.44.886,forced_choiceRT,2021.1.2,MacIntel,60.0024001,,,,,,,,7,Ontime,j,1,1.9835,0,3,3,3,1,,,,,
,0.27,,,,,,,,,f.PNG,f,61072bb0994edb6da025a11b,2021-09-08_16h44.44.886,forced_choiceRT,2021.1.2,MacIntel,60.0024001,,,,,,,,7,Ontime,f,1,1.9839,1,0,4,0,1,,,,,
,1.87,,,,,,,,,h.PNG,h,61072bb0994edb6da025a11b,2021-09-08_16h44.44.886,forced_choiceRT,2021.1.2,MacIntel,60.0024001,,,,,,,,7,Ontime,j,0,2.0004,1,1,5,2,1,,,,,
,1.05,,,,,,,,,f.PNG,f,61072bb0994edb6da025a11b,2021-09-08_16h44.44.886,forced_choiceRT,2021.1.2,MacIntel,60.0024001,,,,,,,,7,Ontime,f,1,1.9871,1,2,6,0,1,,,,,
,1,,,,,,,,,h.PNG,h,61072bb0994edb6da025a11b,2021-09-08_16h44.44.886,forced_choiceRT,2021.1.2,MacIntel,60.0024001,,,,,,,,7,Ontime,h,1,2.0342,1,3,7,2,1,,,,,
,0.82,,,,,,,,,f.PNG,f,61072bb0994edb6da025a11b,2021-09-08_16h44.44.886,forced_choiceRT,2021.1.2,MacIntel,60.0024001,,,,,,,,7,Ontime,f,1,2.0371,2,0,8,0,1,,,,,
,1.35,,,,,,,,,f.PNG,f,61072bb0994edb6da025a11b,2021-09-08_16h44.44.886,forced_choiceRT,2021.1.2,MacIntel,60.0024001,,,,,,,,7,Ontime,f,1,2.0319,2,1,9,0,1,,,,,
,1.24,,,,,,,,,j.PNG,j,61072bb0994edb6da025a11b,2021-09-08_16h44.44.886,forced_choiceRT,2021.1.2,MacIntel,60.0024001,,,,,,,,7,Ontime,j,1,2.0339,2,2,10,3,1,,,,,
,0.39,,,,,,,,,h.PNG,h,61072bb0994edb6da025a11b,2021-09-08_16h44.44.886,forced_choiceRT,2021.1.2,MacIntel,60.0024001,,,,,,,,7,Ontime,h,1,2.0685,2,3,11,2,1,,,,,
,0.89,,,,,,,,,j.PNG,j,61072bb0994edb6da025a11b,2021-09-08_16h44.44.886,forced_choiceRT,2021.1.2,MacIntel,60.0024001,,,,,,,,7,Slow,j,1,2.1172,3,0,12,3,1,,,,,
,0.11,,,,,,,,,g.PNG,g,61072bb0994edb6da025a11b,2021-09-08_16h44.44.886,forced_choiceRT,2021.1.2,MacIntel,60.0024001,,,,,,,,7,Ontime,g,1,2.0488,3,1,13,1,1,,,,,
,1.59,,,,,,,,,j.PNG,j,61072bb0994edb6da025a11b,2021-09-08_16h44.44.886,forced_choiceRT,2021.1.2,MacIntel,60.0024001,,,,,,,,7,Ontime,f,0,2.0836,3,2,14,3,1,,,,,
,0.98,,,,,,,,,h.PNG,h,61072bb0994edb6da025a11b,2021-09-08_16h44.44.886,forced_choiceRT,2021.1.2,MacIntel,60.0024001,,,,,,,,7,Ontime,h,1,2.0854,3,3,15,2,1,,,,,
,1.64,,,,,,,,,g.PNG,g,61072bb0994edb6da025a11b,2021-09-08_16h44.44.886,forced_choiceRT,2021.1.2,MacIntel,60.0024001,,,,,,,,7,Ontime,j,0,2.0518,4,0,16,1,1,,,,,
,0.4,,,,,,,,,j.PNG,j,61072bb0994edb6da025a11b,2021-09-08_16h44.44.886,forced_choiceRT,2021.1.2,MacIntel,60.0024001,,,,,,,,7,Ontime,j,1,2.0668,4,1,17,3,1,,,,,
,0.61,,,,,,,,,g.PNG,g,61072bb0994edb6da025a11b,2021-09-08_16h44.44.886,forced_choiceRT,2021.1.2,MacIntel,60.0024001,,,,,,,,7,Ontime,g,1,2.0321,4,2,18,1,1,,,,,
,1.88,,,,,,,,,f.PNG,f,61072bb0994edb6da025a11b,2021-09-08_16h44.44.886,forced_choiceRT,2021.1.2,MacIntel,60.0024001,,,,,,,,7,Ontime,j,0,2.0467,4,3,19,0,1,,,,,
,0.93,,,,,,,,,h.PNG,h,61072bb0994edb6da025a11b,2021-09-08_16h44.44.886,forced_choiceRT,2021.1.2,MacIntel,60.0024001,,,,,,,,7,Ontime,h,1,2.0462,5,0,20,2,1,,,,,
,0,,,,,,,,,f.PNG,f,61072bb0994edb6da025a11b,2021-09-08_16h44.44.886,forced_choiceRT,2021.1.2,MacIntel,60.0024001,,,,,,,,7,Ontime,f,1,2.0382,5,1,21,0,1,,,,,
,1.33,,,,,,,,,g.PNG,g,61072bb0994edb6da025a11b,2021-09-08_16h44.44.886,forced_choiceRT,2021.1.2,MacIntel,60.0024001,,,,,,,,7,Slow,g,1,2.115,5,2,22,1,1,,,,,
,1.22,,,,,,,,,j.PNG,j,61072bb0994edb6da025a11b,2021-09-08_16h44.44.886,forced_choiceRT,2021.1.2,MacIntel,60.0024001,,,,,,,,7,Ontime,j,1,2.0176,5,3,23,3,1,,,,,
,1.04,,,,,,,,,g.PNG,g,61072bb0994edb6da025a11b,2021-09-08_16h44.44.886,forced_choiceRT,2021.1.2,MacIntel,60.0024001,,,,,,,,7,Ontime,g,1,1.9477,6,0,24,1,1,,,,,
,0.12,,,,,,,,,j.PNG,j,61072bb0994edb6da025a11b,2021-09-08_16h44.44.886,forced_choiceRT,2021.1.2,MacIntel,60.0024001,,,,,,,,7,Ontime,j,1,2.0667,6,1,25,3,1,,,,,
,0.88,,,,,,,,,f.PNG,f,61072bb0994edb6da025a11b,2021-09-08_16h44.44.886,forced_choiceRT,2021.1.2,MacIntel,60.0024001,,,,,,,,7,Ontime,f,1,2.0325,6,2,26,0,1,,,,,
,1.88,,,,,,,,,g.PNG,g,61072bb0994edb6da025a11b,2021-09-08_16h44.44.886,forced_choiceRT,2021.1.2,MacIntel,60.0024001,,,,,,,,7,Fast,h,0,1.6836,6,3,27,1,1,,,,,
,0.78,,,,,,,,,h.PNG,h,61072bb0994edb6da025a11b,2021-09-08_16h44.44.886,forced_choiceRT,2021.1.2,MacIntel,60.0024001,,,,,,,,7,Ontime,h,1,2.0032,7,0,28,2,1,,,,,
,1.52,,,,,,,,,j.PNG,j,61072bb0994edb6da025a11b,2021-09-08_16h44.44.886,forced_choiceRT,2021.1.2,MacIntel,60.0024001,,,,,,,,7,Slow,g,0,2.1518,7,1,29,3,1,,,,,
,0.73,,,,,,,,,f.PNG,f,61072bb0994edb6da025a11b,2021-09-08_16h44.44.886,forced_choiceRT,2021.1.2,MacIntel,60.0024001,,,,,,,,7,Fast,f,1,1.703,7,2,30,0,1,,,,,
,1.3,,,,,,,,,h.PNG,h,61072bb0994edb6da025a11b,2021-09-08_16h44.44.886,forced_choiceRT,2021.1.2,MacIntel,60.0024001,,,,,,,,7,Ontime,h,1,2.0658,7,3,31,2,1,,,,,
,1.63,,,,,,,,,g.PNG,g,61072bb0994edb6da025a11b,2021-09-08_16h44.44.886,forced_choiceRT,2021.1.2,MacIntel,60.0024001,,,,,,,,7,Ontime,j,0,2.0848,8,0,32,1,1,,,,,
,1.87,,,,,,,,,j.PNG,j,61072bb0994edb6da025a11b,2021-09-08_16h44.44.886,forced_choiceRT,2021.1.2,MacIntel,60.0024001,,,,,,,,7,Slow,f,0,2.199,8,1,33,3,1,,,,,
,1.53,,,,,,,,,j.PNG,j,61072bb0994edb6da025a11b,2021-09-08_16h44.44.886,forced_choiceRT,2021.1.2,MacIntel,60.0024001,,,,,,,,7,Ontime,h,0,2.0492,8,2,34,3,1,,,,,
,0.62,,,,,,,,,f.PNG,f,61072bb0994edb6da025a11b,2021-09-08_16h44.44.886,forced_choiceRT,2021.1.2,MacIntel,60.0024001,,,,,,,,7,Ontime,f,1,2.0173,8,3,35,0,1,,,,,
,1.43,,,,,,,,,h.PNG,h,61072bb0994edb6da025a11b,2021-09-08_16h44.44.886,forced_choiceRT,2021.1.2,MacIntel,60.0024001,,,,,,,,7,Ontime,h,1,2.0845,9,0,36,2,1,,,,,
,0.05,,,,,,,,,g.PNG,g,61072bb0994edb6da025a11b,2021-09-08_16h44.44.886,forced_choiceRT,2021.1.2,MacIntel,60.0024001,,,,,,,,7,Ontime,h,0,2.0178,9,1,37,1,1,,,,,
,0.85,,,,,,,,,f.PNG,f,61072bb0994edb6da025a11b,2021-09-08_16h44.44.886,forced_choiceRT,2021.1.2,MacIntel,60.0024001,,,,,,,,7,Ontime,f,1,2.0334,9,2,38,0,1,,,,,
,1.2,,,,,,,,,g.PNG,g,61072bb0994edb6da025a11b,2021-09-08_16h44.44.886,forced_choiceRT,2021.1.2,MacIntel,60.0024001,,,,,,,,7,Ontime,g,1,2.0528,9,3,39,1,1,,,,,
,,,,,,,,,,,,61072bb0994edb6da025a11b,2021-09-08_16h44.44.886,forced_choiceRT,2021.1.2,MacIntel,60.0024001,,,,,,,,,,,,,,,,,,6,0,6,0,1
,0.07,,,,,,,,,f.PNG,f,61072bb0994edb6da025a11b,2021-09-08_16h44.44.886,forced_choiceRT,2021.1.2,MacIntel,60.0024001,,,,,,,,8,Ontime,f,1,2.0337,0,0,0,0,1,,,,,
,1.34,,,,,,,,,f.PNG,f,61072bb0994edb6da025a11b,2021-09-08_16h44.44.886,forced_choiceRT,2021.1.2,MacIntel,60.0024001,,,,,,,,8,Slow,f,1,2.1167,0,1,1,0,1,,,,,
,0.22,,,,,,,,,h.PNG,h,61072bb0994edb6da025a11b,2021-09-08_16h44.44.886,forced_choiceRT,2021.1.2,MacIntel,60.0024001,,,,,,,,8,Ontime,h,1,2.0526,0,2,2,2,1,,,,,
,0.56,,,,,,,,,g.PNG,g,61072bb0994edb6da025a11b,2021-09-08_16h44.44.886,forced_choiceRT,2021.1.2,MacIntel,60.0024001,,,,,,,,8,Ontime,g,1,2.0055,0,3,3,1,1,,,,,
,1.75,,,,,,,,,j.PNG,j,61072bb0994edb6da025a11b,2021-09-08_16h44.44.886,forced_choiceRT,2021.1.2,MacIntel,60.0024001,,,,,,,,8,Ontime,f,0,1.9678,1,0,4,3,1,,,,,
,1.01,,,,,,,,,h.PNG,h,61072bb0994edb6da025a11b,2021-09-08_16h44.44.886,forced_choiceRT,2021.1.2,MacIntel,60.0024001,,,,,,,,8,Ontime,h,1,2.0505,1,1,5,2,1,,,,,
,1.71,,,,,,,,,f.PNG,f,61072bb0994edb6da025a11b,2021-09-08_16h44.44.886,forced_choiceRT,2021.1.2,MacIntel,60.0024001,,,,,,,,8,Ontime,j,0,2.0339,1,2,6,0,1,,,,,
,1.27,,,,,,,,,j.PNG,j,61072bb0994edb6da025a11b,2021-09-08_16h44.44.886,forced_choiceRT,2021.1.2,MacIntel,60.0024001,,,,,,,,8,Ontime,j,1,2.0856,1,3,7,3,1,,,,,
,0.79,,,,,,,,,f.PNG,f,61072bb0994edb6da025a11b,2021-09-08_16h44.44.886,forced_choiceRT,2021.1.2,MacIntel,60.0024001,,,,,,,,8,Ontime,f,1,2.0335,2,0,8,0,1,,,,,
,0.69,,,,,,,,,f.PNG,f,61072bb0994edb6da025a11b,2021-09-08_16h44.44.886,forced_choiceRT,2021.1.2,MacIntel,60.0024001,,,,,,,,8,Ontime,f,1,2,2,1,9,0,1,,,,,
,0.5,,,,,,,,,f.PNG,f,61072bb0994edb6da025a11b,2021-09-08_16h44.44.886,forced_choiceRT,2021.1.2,MacIntel,60.0024001,,,,,,,,8,Ontime,f,1,2.0176,2,2,10,0,1,,,,,
,1.72,,,,,,,,,h.PNG,h,61072bb0994edb6da025a11b,2021-09-08_16h44.44.886,forced_choiceRT,2021.1.2,MacIntel,60.0024001,,,,,,,,8,Ontime,h,1,2.0517,2,3,11,2,1,,,,,
,1.73,,,,,,,,,h.PNG,h,61072bb0994edb6da025a11b,2021-09-08_16h44.44.886,forced_choiceRT,2021.1.2,MacIntel,60.0024001,,,,,,,,8,Ontime,h,1,2.0326,3,0,12,2,1,,,,,
,1.15,,,,,,,,,j.PNG,j,61072bb0994edb6da025a11b,2021-09-08_16h44.44.886,forced_choiceRT,2021.1.2,MacIntel,60.0024001,,,,,,,,8,Ontime,j,1,2.0371,3,1,13,3,1,,,,,
,0.45,,,,,,,,,j.PNG,j,61072bb0994edb6da025a11b,2021-09-08_16h44.44.886,forced_choiceRT,2021.1.2,MacIntel,60.0024001,,,,,,,,8,Ontime,j,1,2.017,3,2,14,3,1,,,,,
,1.45,,,,,,,,,j.PNG,j,61072bb0994edb6da025a11b,2021-09-08_16h44.44.886,forced_choiceRT,2021.1.2,MacIntel,60.0024001,,,,,,,,8,Ontime,f,0,2.0342,3,3,15,3,1,,,,,
,1.27,,,,,,,,,g.PNG,g,61072bb0994edb6da025a11b,2021-09-08_16h44.44.886,forced_choiceRT,2021.1.2,MacIntel,60.0024001,,,,,,,,8,Slow,g,1,2.1844,4,0,16,1,1,,,,,
,1.6,,,,,,,,,g.PNG,g,61072bb0994edb6da025a11b,2021-09-08_16h44.44.886,forced_choiceRT,2021.1.2,MacIntel,60.0024001,,,,,,,,8,Slow,h,0,2.1688,4,1,17,1,1,,,,,
,1.04,,,,,,,,,h.PNG,h,61072bb0994edb6da025a11b,2021-09-08_16h44.44.886,forced_choiceRT,2021.1.2,MacIntel,60.0024001,,,,,,,,8,Ontime,h,1,2.0218,4,2,18,2,1,,,,,
,1.74,,,,,,,,,f.PNG,f,61072bb0994edb6da025a11b,2021-09-08_16h44.44.886,forced_choiceRT,2021.1.2,MacIntel,60.0024001,,,,,,,,8,Ontime,f,1,2.0196,4,3,19,0,1,,,,,
,1.36,,,,,,,,,g.PNG,g,61072bb0994edb6da025a11b,2021-09-08_16h44.44.886,forced_choiceRT,2021.1.2,MacIntel,60.0024001,,,,,,,,8,Ontime,g,1,2.0683,5,0,20,1,1,,,,,
,0.33,,,,,,,,,h.PNG,h,61072bb0994edb6da025a11b,2021-09-08_16h44.44.886,forced_choiceRT,2021.1.2,MacIntel,60.0024001,,,,,,,,8,Ontime,h,1,2.0005,5,1,21,2,1,,,,,
,1.86,,,,,,,,,j.PNG,j,61072bb0994edb6da025a11b,2021-09-08_16h44.44.886,forced_choiceRT,2021.1.2,MacIntel,60.0024001,,,,,,,,8,Ontime,j,1,2.0322,5,2,22,3,1,,,,,
,0.34,,,,,,,,,g.PNG,g,61072bb0994edb6da025a11b,2021-09-08_16h44.44.886,forced_choiceRT,2021.1.2,MacIntel,60.0024001,,,,,,,,8,Ontime,g,1,1.9856,5,3,23,1,1,,,,,
,0.52,,,,,,,,,g.PNG,g,61072bb0994edb6da025a11b,2021-09-08_16h44.44.886,forced_choiceRT,2021.1.2,MacIntel,60.0024001,,,,,,,,8,Ontime,g,1,2.0456,6,0,24,1,1,,,,,
,1.22,,,,,,,,,g.PNG,g,61072bb0994edb6da025a11b,2021-09-08_16h44.44.886,forced_choiceRT,2021.1.2,MacIntel,60.0024001,,,,,,,,8,Ontime,g,1,1.9833,6,1,25,1,1,,,,,
,0.43,,,,,,,,,g.PNG,g,61072bb0994edb6da025a11b,2021-09-08_16h44.44.886,forced_choiceRT,2021.1.2,MacIntel,60.0024001,,,,,,,,8,Ontime,g,1,1.9663,6,2,26,1,1,,,,,
,0.92,,,,,,,,,h.PNG,h,61072bb0994edb6da025a11b,2021-09-08_16h44.44.886,forced_choiceRT,2021.1.2,MacIntel,60.0024001,,,,,,,,8,Ontime,h,1,1.9677,6,3,27,2,1,,,,,
,0.24,,,,,,,,,f.PNG,f,61072bb0994edb6da025a11b,2021-09-08_16h44.44.886,forced_choiceRT,2021.1.2,MacIntel,60.0024001,,,,,,,,8,Ontime,f,1,2.0344,7,0,28,0,1,,,,,
,1.08,,,,,,,,,h.PNG,h,61072bb0994edb6da025a11b,2021-09-08_16h44.44.886,forced_choiceRT,2021.1.2,MacIntel,60.0024001,,,,,,,,8,Ontime,h,1,2.0392,7,1,29,2,1,,,,,
,1.84,,,,,,,,,j.PNG,j,61072bb0994edb6da025a11b,2021-09-08_16h44.44.886,forced_choiceRT,2021.1.2,MacIntel,60.0024001,,,,,,,,8,Ontime,j,1,2.0524,7,2,30,3,1,,,,,
,0.49,,,,,,,,,g.PNG,g,61072bb0994edb6da025a11b,2021-09-08_16h44.44.886,forced_choiceRT,2021.1.2,MacIntel,60.0024001,,,,,,,,8,Ontime,g,1,1.9833,7,3,31,1,1,,,,,
,0.81,,,,,,,,,j.PNG,j,61072bb0994edb6da025a11b,2021-09-08_16h44.44.886,forced_choiceRT,2021.1.2,MacIntel,60.0024001,,,,,,,,8,Ontime,j,1,1.969,8,0,32,3,1,,,,,
,0.45,,,,,,,,,j.PNG,j,61072bb0994edb6da025a11b,2021-09-08_16h44.44.886,forced_choiceRT,2021.1.2,MacIntel,60.0024001,,,,,,,,8,Ontime,j,1,1.9688,8,1,33,3,1,,,,,
,1.25,,,,,,,,,f.PNG,f,61072bb0994edb6da025a11b,2021-09-08_16h44.44.886,forced_choiceRT,2021.1.2,MacIntel,60.0024001,,,,,,,,8,Ontime,f,1,2.0765,8,2,34,0,1,,,,,
,0.93,,,,,,,,,g.PNG,g,61072bb0994edb6da025a11b,2021-09-08_16h44.44.886,forced_choiceRT,2021.1.2,MacIntel,60.0024001,,,,,,,,8,Ontime,g,1,2.0508,8,3,35,1,1,,,,,
,1.6,,,,,,,,,f.PNG,f,61072bb0994edb6da025a11b,2021-09-08_16h44.44.886,forced_choiceRT,2021.1.2,MacIntel,60.0024001,,,,,,,,8,Ontime,j,0,2.0669,9,0,36,0,1,,,,,
,1.1,,,,,,,,,h.PNG,h,61072bb0994edb6da025a11b,2021-09-08_16h44.44.886,forced_choiceRT,2021.1.2,MacIntel,60.0024001,,,,,,,,8,Ontime,h,1,2.0146,9,1,37,2,1,,,,,
,0.67,,,,,,,,,h.PNG,h,61072bb0994edb6da025a11b,2021-09-08_16h44.44.886,forced_choiceRT,2021.1.2,MacIntel,60.0024001,,,,,,,,8,Ontime,h,1,2.0181,9,2,38,2,1,,,,,
,1.06,,,,,,,,,j.PNG,j,61072bb0994edb6da025a11b,2021-09-08_16h44.44.886,forced_choiceRT,2021.1.2,MacIntel,60.0024001,,,,,,,,8,Ontime,j,1,2.0888,9,3,39,3,1,,,,,
,,,,,,,,,,,,61072bb0994edb6da025a11b,2021-09-08_16h44.44.886,forced_choiceRT,2021.1.2,MacIntel,60.0024001,,,,,,,,,,,,,,,,,,7,0,7,0,1
,0.64,,,,,,,,,h.PNG,h,61072bb0994edb6da025a11b,2021-09-08_16h44.44.886,forced_choiceRT,2021.1.2,MacIntel,60.0024001,,,,,,,,9,Ontime,h,1,2.0461,0,0,0,2,1,,,,,
,1.92,,,,,,,,,g.PNG,g,61072bb0994edb6da025a11b,2021-09-08_16h44.44.886,forced_choiceRT,2021.1.2,MacIntel,60.0024001,,,,,,,,9,Ontime,h,0,2.0388,0,1,1,1,1,,,,,
,0.06,,,,,,,,,h.PNG,h,61072bb0994edb6da025a11b,2021-09-08_16h44.44.886,forced_choiceRT,2021.1.2,MacIntel,60.0024001,,,,,,,,9,Ontime,h,1,2.03,0,2,2,2,1,,,,,
,1.5,,,,,,,,,f.PNG,f,61072bb0994edb6da025a11b,2021-09-08_16h44.44.886,forced_choiceRT,2021.1.2,MacIntel,60.0024001,,,,,,,,9,Ontime,f,1,2.0344,0,3,3,0,1,,,,,
,0.05,,,,,,,,,f.PNG,f,61072bb0994edb6da025a11b,2021-09-08_16h44.44.886,forced_choiceRT,2021.1.2,MacIntel,60.0024001,,,,,,,,9,Ontime,f,1,2.0343,1,0,4,0,1,,,,,
,0.76,,,,,,,,,h.PNG,h,61072bb0994edb6da025a11b,2021-09-08_16h44.44.886,forced_choiceRT,2021.1.2,MacIntel,60.0024001,,,,,,,,9,Ontime,h,1,2.002,1,1,5,2,1,,,,,
,0.83,,,,,,,,,g.PNG,g,61072bb0994edb6da025a11b,2021-09-08_16h44.44.886,forced_choiceRT,2021.1.2,MacIntel,60.0024001,,,,,,,,9,Ontime,g,1,1.9991,1,2,6,1,1,,,,,
,0.23,,,,,,,,,j.PNG,j,61072bb0994edb6da025a11b,2021-09-08_16h44.44.886,forced_choiceRT,2021.1.2,MacIntel,60.0024001,,,,,,,,9,Ontime,j,1,2.0025,1,3,7,3,1,,,,,
,0.37,,,,,,,,,f.PNG,f,61072bb0994edb6da025a11b,2021-09-08_16h44.44.886,forced_choiceRT,2021.1.2,MacIntel,60.0024001,,,,,,,,9,Ontime,f,1,1.9343,2,0,8,0,1,,,,,
,1.04,,,,,,,,,f.PNG,f,61072bb0994edb6da025a11b,2021-09-08_16h44.44.886,forced_choiceRT,2021.1.2,MacIntel,60.0024001,,,,,,,,9,Ontime,f,1,2.0321,2,1,9,0,1,,,,,
,0.73,,,,,,,,,g.PNG,g,61072bb0994edb6da025a11b,2021-09-08_16h44.44.886,forced_choiceRT,2021.1.2,MacIntel,60.0024001,,,,,,,,9,Ontime,g,1,1.9679,2,2,10,1,1,,,,,
,1.55,,,,,,,,,g.PNG,g,61072bb0994edb6da025a11b,2021-09-08_16h44.44.886,forced_choiceRT,2021.1.2,MacIntel,60.0024001,,,,,,,,9,Ontime,h,0,2.0218,2,3,11,1,1,,,,,
,0.83,,,,,,,,,j.PNG,j,61072bb0994edb6da025a11b,2021-09-08_16h44.44.886,forced_choiceRT,2021.1.2,MacIntel,60.0024001,,,,,,,,9,Ontime,j,1,1.998,3,0,12,3,1,,,,,
,0.51,,,,,,,,,j.PNG,j,61072bb0994edb6da025a11b,2021-09-08_16h44.44.886,forced_choiceRT,2021.1.2,MacIntel,60.0024001,,,,,,,,9,Ontime,j,1,1.9993,3,1,13,3,1,,,,,
,0.67,,,,,,,,,f.PNG,f,61072bb0994edb6da025a11b,2021-09-08_16h44.44.886,forced_choiceRT,2021.1.2,MacIntel,60.0024001,,,,,,,,9,Ontime,f,1,1.968,3,2,14,0,1,,,,,
,0.41,,,,,,,,,g.PNG,g,61072bb0994edb6da025a11b,2021-09-08_16h44.44.886,forced_choiceRT,2021.1.2,MacIntel,60.0024001,,,,,,,,9,Ontime,g,1,2.0344,3,3,15,1,1,,,,,
,0.33,,,,,,,,,j.PNG,j,61072bb0994edb6da025a11b,2021-09-08_16h44.44.886,forced_choiceRT,2021.1.2,MacIntel,60.0024001,,,,,,,,9,Ontime,j,1,2.0335,4,0,16,3,1,,,,,
,1.32,,,,,,,,,f.PNG,f,61072bb0994edb6da025a11b,2021-09-08_16h44.44.886,forced_choiceRT,2021.1.2,MacIntel,60.0024001,,,,,,,,9,Ontime,f,1,2.0377,4,1,17,0,1,,,,,
,0.18,,,,,,,,,g.PNG,g,61072bb0994edb6da025a11b,2021-09-08_16h44.44.886,forced_choiceRT,2021.1.2,MacIntel,60.0024001,,,,,,,,9,Ontime,g,1,2.0011,4,2,18,1,1,,,,,
,1.71,,,,,,,,,j.PNG,j,61072bb0994edb6da025a11b,2021-09-08_16h44.44.886,forced_choiceRT,2021.1.2,MacIntel,60.0024001,,,,,,,,9,Ontime,f,0,2.0017,4,3,19,3,1,,,,,
,1.88,,,,,,,,,f.PNG,f,61072bb0994edb6da025a11b,2021-09-08_16h44.44.886,forced_choiceRT,2021.1.2,MacIntel,60.0024001,,,,,,,,9,Ontime,j,0,2.0155,5,0,20,0,1,,,,,
,0.25,,,,,,,,,h.PNG,h,61072bb0994edb6da025a11b,2021-09-08_16h44.44.886,forced_choiceRT,2021.1.2,MacIntel,60.0024001,,,,,,,,9,Ontime,h,1,2.068,5,1,21,2,1,,,,,
,1.87,,,,,,,,,f.PNG,f,61072bb0994edb6da025a11b,2021-09-08_16h44.44.886,forced_choiceRT,2021.1.2,MacIntel,60.0024001,,,,,,,,9,Slow,f,1,2.1006,5,2,22,0,1,,,,,
,0.01,,,,,,,,,g.PNG,g,61072bb0994edb6da025a11b,2021-09-08_16h44.44.886,forced_choiceRT,2021.1.2,MacIntel,60.0024001,,,,,,,,9,Ontime,g,1,2.0009,5,3,23,1,1,,,,,
,1.8,,,,,,,,,f.PNG,f,61072bb0994edb6da025a11b,2021-09-08_16h44.44.886,forced_choiceRT,2021.1.2,MacIntel,60.0024001,,,,,,,,9,Ontime,f,1,2.0352,6,0,24,0,1,,,,,
,0.14,,,,,,,,,g.PNG,g,61072bb0994edb6da025a11b,2021-09-08_16h44.44.886,forced_choiceRT,2021.1.2,MacIntel,60.0024001,,,,,,,,9,Ontime,g,1,1.9682,6,1,25,1,1,,,,,
,1.71,,,,,,,,,j.PNG,j,61072bb0994edb6da025a11b,2021-09-08_16h44.44.886,forced_choiceRT,2021.1.2,MacIntel,60.0024001,,,,,,,,9,Ontime,f,0,1.9677,6,2,26,3,1,,,,,
,0.36,,,,,,,,,g.PNG,g,61072bb0994edb6da025a11b,2021-09-08_16h44.44.886,forced_choiceRT,2021.1.2,MacIntel,60.0024001,,,,,,,,9,Ontime,g,1,2.0034,6,3,27,1,1,,,,,
,1.5,,,,,,,,,j.PNG,j,61072bb0994edb6da025a11b,2021-09-08_16h44.44.886,forced_choiceRT,2021.1.2,MacIntel,60.0024001,,,,,,,,9,Ontime,f,0,2.0011,7,0,28,3,1,,,,,
,1.64,,,,,,,,,h.PNG,h,61072bb0994edb6da025a11b,2021-09-08_16h44.44.886,forced_choiceRT,2021.1.2,MacIntel,60.0024001,,,,,,,,9,Ontime,f,0,2.0018,7,1,29,2,1,,,,,
,1.54,,,,,,,,,g.PNG,g,61072bb0994edb6da025a11b,2021-09-08_16h44.44.886,forced_choiceRT,2021.1.2,MacIntel,60.0024001,,,,,,,,9,Ontime,g,1,2.0995,7,2,30,1,1,,,,,
,1.66,,,,,,,,,j.PNG,j,61072bb0994edb6da025a11b,2021-09-08_16h44.44.886,forced_choiceRT,2021.1.2,MacIntel,60.0024001,,,,,,,,9,Ontime,f,0,2.049,7,3,31,3,1,,,,,
,0.49,,,,,,,,,h.PNG,h,61072bb0994edb6da025a11b,2021-09-08_16h44.44.886,forced_choiceRT,2021.1.2,MacIntel,60.0024001,,,,,,,,9,Ontime,h,1,2.0507,8,0,32,2,1,,,,,
,1.22,,,,,,,,,f.PNG,f,61072bb0994edb6da025a11b,2021-09-08_16h44.44.886,forced_choiceRT,2021.1.2,MacIntel,60.0024001,,,,,,,,9,Ontime,f,1,2.0511,8,1,33,0,1,,,,,
,0.15,,,,,,,,,h.PNG,h,61072bb0994edb6da025a11b,2021-09-08_16h44.44.886,forced_choiceRT,2021.1.2,MacIntel,60.0024001,,,,,,,,9,Ontime,h,1,2.0016,8,2,34,2,1,,,,,
,1.07,,,,,,,,,h.PNG,h,61072bb0994edb6da025a11b,2021-09-08_16h44.44.886,forced_choiceRT,2021.1.2,MacIntel,60.0024001,,,,,,,,9,Ontime,h,1,2.0491,8,3,35,2,1,,,,,
,0.27,,,,,,,,,h.PNG,h,61072bb0994edb6da025a11b,2021-09-08_16h44.44.886,forced_choiceRT,2021.1.2,MacIntel,60.0024001,,,,,,,,9,Ontime,h,1,1.9845,9,0,36,2,1,,,,,
,1.24,,,,,,,,,h.PNG,h,61072bb0994edb6da025a11b,2021-09-08_16h44.44.886,forced_choiceRT,2021.1.2,MacIntel,60.0024001,,,,,,,,9,Ontime,h,1,2.017,9,1,37,2,1,,,,,
,0.72,,,,,,,,,j.PNG,j,61072bb0994edb6da025a11b,2021-09-08_16h44.44.886,forced_choiceRT,2021.1.2,MacIntel,60.0024001,,,,,,,,9,Ontime,j,1,1.9993,9,2,38,3,1,,,,,
,1.81,,,,,,,,,j.PNG,j,61072bb0994edb6da025a11b,2021-09-08_16h44.44.886,forced_choiceRT,2021.1.2,MacIntel,60.0024001,,,,,,,,9,Ontime,j,1,2.017,9,3,39,3,1,,,,,
,,,,,,,,,,,,61072bb0994edb6da025a11b,2021-09-08_16h44.44.886,forced_choiceRT,2021.1.2,MacIntel,60.0024001,,,,,,,,,,,,,,,,,,8,0,8,0,1
,0.1,,,,,,,,,h.PNG,h,61072bb0994edb6da025a11b,2021-09-08_16h44.44.886,forced_choiceRT,2021.1.2,MacIntel,60.0024001,,,,,,,,10,Ontime,h,1,2.0311,0,0,0,2,1,,,,,
,1.25,,,,,,,,,g.PNG,g,61072bb0994edb6da025a11b,2021-09-08_16h44.44.886,forced_choiceRT,2021.1.2,MacIntel,60.0024001,,,,,,,,10,Ontime,g,1,2.0147,0,1,1,1,1,,,,,
,1.43,,,,,,,,,g.PNG,g,61072bb0994edb6da025a11b,2021-09-08_16h44.44.886,forced_choiceRT,2021.1.2,MacIntel,60.0024001,,,,,,,,10,Ontime,g,1,2.0383,0,2,2,1,1,,,,,
,1.83,,,,,,,,,f.PNG,f,61072bb0994edb6da025a11b,2021-09-08_16h44.44.886,forced_choiceRT,2021.1.2,MacIntel,60.0024001,,,,,,,,10,Ontime,f,1,2.034,0,3,3,0,1,,,,,
,1.54,,,,,,,,,j.PNG,j,61072bb0994edb6da025a11b,2021-09-08_16h44.44.886,forced_choiceRT,2021.1.2,MacIntel,60.0024001,,,,,,,,10,Ontime,f,0,2.0508,1,0,4,3,1,,,,,
,1.74,,,,,,,,,h.PNG,h,61072bb0994edb6da025a11b,2021-09-08_16h44.44.886,forced_choiceRT,2021.1.2,MacIntel,60.0024001,,,,,,,,10,Ontime,h,1,2.0652,1,1,5,2,1,,,,,
,1.06,,,,,,,,,g.PNG,g,61072bb0994edb6da025a11b,2021-09-08_16h44.44.886,forced_choiceRT,2021.1.2,MacIntel,60.0024001,,,,,,,,10,Ontime,g,1,1.9691,1,2,6,1,1,,,,,
,1.38,,,,,,,,,f.PNG,f,61072bb0994edb6da025a11b,2021-09-08_16h44.44.886,forced_choiceRT,2021.1.2,MacIntel,60.0024001,,,,,,,,10,Ontime,f,1,2.0358,1,3,7,0,1,,,,,
,0.66,,,,,,,,,h.PNG,h,61072bb0994edb6da025a11b,2021-09-08_16h44.44.886,forced_choiceRT,2021.1.2,MacIntel,60.0024001,,,,,,,,10,Ontime,h,1,2.0034,2,0,8,2,1,,,,,
,0.14,,,,,,,,,j.PNG,j,61072bb0994edb6da025a11b,2021-09-08_16h44.44.886,forced_choiceRT,2021.1.2,MacIntel,60.0024001,,,,,,,,10,Ontime,j,1,2.0336,2,1,9,3,1,,,,,
,1.49,,,,,,,,,f.PNG,f,61072bb0994edb6da025a11b,2021-09-08_16h44.44.886,forced_choiceRT,2021.1.2,MacIntel,60.0024001,,,,,,,,10,Ontime,j,0,2.0364,2,2,10,0,1,,,,,
,1.48,,,,,,,,,f.PNG,f,61072bb0994edb6da025a11b,2021-09-08_16h44.44.886,forced_choiceRT,2021.1.2,MacIntel,60.0024001,,,,,,,,10,Ontime,f,1,2.0663,2,3,11,0,1,,,,,
,1.54,,,,,,,,,g.PNG,g,61072bb0994edb6da025a11b,2021-09-08_16h44.44.886,forced_choiceRT,2021.1.2,MacIntel,60.0024001,,,,,,,,10,Ontime,f,0,2.0008,3,0,12,1,1,,,,,
,1.74,,,,,,,,,f.PNG,f,61072bb0994edb6da025a11b,2021-09-08_16h44.44.886,forced_choiceRT,2021.1.2,MacIntel,60.0024001,,,,,,,,10,Ontime,f,1,1.9881,3,1,13,0,1,,,,,
,0.4,,,,,,,,,f.PNG,f,61072bb0994edb6da025a11b,2021-09-08_16h44.44.886,forced_choiceRT,2021.1.2,MacIntel,60.0024001,,,,,,,,10,Ontime,f,1,1.9829,3,2,14,0,1,,,,,
,0.12,,,,,,,,,j.PNG,j,61072bb0994edb6da025a11b,2021-09-08_16h44.44.886,forced_choiceRT,2021.1.2,MacIntel,60.0024001,,,,,,,,10,Ontime,j,1,1.9835,3,3,15,3,1,,,,,
,0.22,,,,,,,,,f.PNG,f,61072bb0994edb6da025a11b,2021-09-08_16h44.44.886,forced_choiceRT,2021.1.2,MacIntel,60.0024001,,,,,,,,10,Fast,f,1,1.8887,4,0,16,0,1,,,,,
,1.91,,,,,,,,,h.PNG,h,61072bb0994edb6da025a11b,2021-09-08_16h44.44.886,forced_choiceRT,2021.1.2,MacIntel,60.0024001,,,,,,,,10,Ontime,f,0,2.0006,4,1,17,2,1,,,,,
,0.61,,,,,,,,,h.PNG,h,61072bb0994edb6da025a11b,2021-09-08_16h44.44.886,forced_choiceRT,2021.1.2,MacIntel,60.0024001,,,,,,,,10,Ontime,h,1,1.968,4,2,18,2,1,,,,,
,0.61,,,,,,,,,j.PNG,j,61072bb0994edb6da025a11b,2021-09-08_16h44.44.886,forced_choiceRT,2021.1.2,MacIntel,60.0024001,,,,,,,,10,Ontime,j,1,1.9727,4,3,19,3,1,,,,,
,0.08,,,,,,,,,j.PNG,j,61072bb0994edb6da025a11b,2021-09-08_16h44.44.886,forced_choiceRT,2021.1.2,MacIntel,60.0024001,,,,,,,,10,Ontime,j,1,1.9845,5,0,20,3,1,,,,,
,1.26,,,,,,,,,f.PNG,f,61072bb0994edb6da025a11b,2021-09-08_16h44.44.886,forced_choiceRT,2021.1.2,MacIntel,60.0024001,,,,,,,,10,Ontime,f,1,2.0339,5,1,21,0,1,,,,,
,1.93,,,,,,,,,f.PNG,f,61072bb0994edb6da025a11b,2021-09-08_16h44.44.886,forced_choiceRT,2021.1.2,MacIntel,60.0024001,,,,,,,,10,Ontime,f,1,2.0213,5,2,22,0,1,,,,,
,1.83,,,,,,,,,h.PNG,h,61072bb0994edb6da025a11b,2021-09-08_16h44.44.886,forced_choiceRT,2021.1.2,MacIntel,60.0024001,,,,,,,,10,Ontime,f,0,2.0882,5,3,23,2,1,,,,,
,1.38,,,,,,,,,g.PNG,g,61072bb0994edb6da025a11b,2021-09-08_16h44.44.886,forced_choiceRT,2021.1.2,MacIntel,60.0024001,,,,,,,,10,Ontime,h,0,2.083,6,0,24,1,1,,,,,
,1.25,,,,,,,,,g.PNG,g,61072bb0994edb6da025a11b,2021-09-08_16h44.44.886,forced_choiceRT,2021.1.2,MacIntel,60.0024001,,,,,,,,10,Slow,g,1,2.119,6,1,25,1,1,,,,,
,1.7,,,,,,,,,h.PNG,h,61072bb0994edb6da025a11b,2021-09-08_16h44.44.886,forced_choiceRT,2021.1.2,MacIntel,60.0024001,,,,,,,,10,Ontime,f,0,2.0162,6,2,26,2,1,,,,,
,1.45,,,,,,,,,h.PNG,h,61072bb0994edb6da025a11b,2021-09-08_16h44.44.886,forced_choiceRT,2021.1.2,MacIntel,60.0024001,,,,,,,,10,Slow,h,1,2.213,6,3,27,2,1,,,,,
,0.18,,,,,,,,,g.PNG,g,61072bb0994edb6da025a11b,2021-09-08_16h44.44.886,forced_choiceRT,2021.1.2,MacIntel,60.0024001,,,,,,,,10,Fast,g,1,1.8513,7,0,28,1,1,,,,,
,1.08,,,,,,,,,g.PNG,g,61072bb0994edb6da025a11b,2021-09-08_16h44.44.886,forced_choiceRT,2021.1.2,MacIntel,60.0024001,,,,,,,,10,Ontime,g,1,1.9995,7,1,29,1,1,,,,,
,1.84,,,,,,,,,j.PNG,j,61072bb0994edb6da025a11b,2021-09-08_16h44.44.886,forced_choiceRT,2021.1.2,MacIntel,60.0024001,,,,,,,,10,Ontime,f,0,1.967,7,2,30,3,1,,,,,
,0.79,,,,,,,,,f.PNG,f,61072bb0994edb6da025a11b,2021-09-08_16h44.44.886,forced_choiceRT,2021.1.2,MacIntel,60.0024001,,,,,,,,10,Ontime,f,1,1.9833,7,3,31,0,1,,,,,
,0.71,,,,,,,,,h.PNG,h,61072bb0994edb6da025a11b,2021-09-08_16h44.44.886,forced_choiceRT,2021.1.2,MacIntel,60.0024001,,,,,,,,10,Ontime,h,1,1.9375,8,0,32,2,1,,,,,
,1.76,,,,,,,,,j.PNG,j,61072bb0994edb6da025a11b,2021-09-08_16h44.44.886,forced_choiceRT,2021.1.2,MacIntel,60.0024001,,,,,,,,10,Ontime,f,0,2.0158,8,1,33,3,1,,,,,
,0.84,,,,,,,,,h.PNG,h,61072bb0994edb6da025a11b,2021-09-08_16h44.44.886,forced_choiceRT,2021.1.2,MacIntel,60.0024001,,,,,,,,10,Ontime,h,1,2.0017,8,2,34,2,1,,,,,
,1.94,,,,,,,,,j.PNG,j,61072bb0994edb6da025a11b,2021-09-08_16h44.44.886,forced_choiceRT,2021.1.2,MacIntel,60.0024001,,,,,,,,10,Ontime,f,0,1.9998,8,3,35,3,1,,,,,
,1.03,,,,,,,,,g.PNG,g,61072bb0994edb6da025a11b,2021-09-08_16h44.44.886,forced_choiceRT,2021.1.2,MacIntel,60.0024001,,,,,,,,10,Ontime,g,1,1.9543,9,0,36,1,1,,,,,
,1.59,,,,,,,,,j.PNG,j,61072bb0994edb6da025a11b,2021-09-08_16h44.44.886,forced_choiceRT,2021.1.2,MacIntel,60.0024001,,,,,,,,10,Ontime,j,1,2.0844,9,1,37,3,1,,,,,
,0.29,,,,,,,,,j.PNG,j,61072bb0994edb6da025a11b,2021-09-08_16h44.44.886,forced_choiceRT,2021.1.2,MacIntel,60.0024001,,,,,,,,10,Ontime,j,1,1.9521,9,2,38,3,1,,,,,
,1.84,,,,,,,,,g.PNG,g,61072bb0994edb6da025a11b,2021-09-08_16h44.44.886,forced_choiceRT,2021.1.2,MacIntel,60.0024001,,,,,,,,10,Ontime,j,0,1.9846,9,3,39,1,1,,,,,
,,,,,,,,,,,,61072bb0994edb6da025a11b,2021-09-08_16h44.44.886,forced_choiceRT,2021.1.2,MacIntel,60.0024001,,,,,,,,,,,,,,,,,,9,0,9,0,1
