IP_Addresss,target_onset,trial_resp_sp.keys,trial_resp_sp.corr,trial_resp_sp.rt,trials_train_loop.thisRepN,trials_train_loop.thisTrialN,trials_train_loop.thisN,trials_train_loop.thisIndex,trials_train_loop.ran,pic,correct_key,participant,date,expName,psychopyVersion,OS,frameRate,trial_resp_timing.keys,trial_resp_timing.rt,trials_train_timing.thisRepN,trials_train_timing.thisTrialN,trials_train_timing.thisN,trials_train_timing.thisIndex,trials_train_timing.ran,block_id,ontime,forcedRT_resp.keys,forcedRT_resp.corr,forcedRT_resp.rt,trials.thisRepN,trials.thisTrialN,trials.thisN,trials.thisIndex,trials.ran,blocks.thisRepN,blocks.thisTrialN,blocks.thisN,blocks.thisIndex,blocks.ran
96.32.138.219,0,h,1,1.3149,0,0,0,2,1,h.PNG,h,6109a5154bfaad8f41606b51,2021-09-08_20h59.49.402,forced_choiceRT,2021.1.2,Win32,59.28385108,,,,,,,,,,,,,,,,,,,,,,
,0,f,1,2.128400001,0,1,1,0,1,f.PNG,f,6109a5154bfaad8f41606b51,2021-09-08_20h59.49.402,forced_choiceRT,2021.1.2,Win32,59.28385108,,,,,,,,,,,,,,,,,,,,,,
,0,j,1,2.344,0,2,2,3,1,j.PNG,j,6109a5154bfaad8f41606b51,2021-09-08_20h59.49.402,forced_choiceRT,2021.1.2,Win32,59.28385108,,,,,,,,,,,,,,,,,,,,,,
,0,g,1,1.5736,0,3,3,1,1,g.PNG,g,6109a5154bfaad8f41606b51,2021-09-08_20h59.49.402,forced_choiceRT,2021.1.2,Win32,59.28385108,,,,,,,,,,,,,,,,,,,,,,
,0,h,1,1.6787,1,0,4,2,1,h.PNG,h,6109a5154bfaad8f41606b51,2021-09-08_20h59.49.402,forced_choiceRT,2021.1.2,Win32,59.28385108,,,,,,,,,,,,,,,,,,,,,,
,0,j,1,1.7429,1,1,5,3,1,j.PNG,j,6109a5154bfaad8f41606b51,2021-09-08_20h59.49.402,forced_choiceRT,2021.1.2,Win32,59.28385108,,,,,,,,,,,,,,,,,,,,,,
,0,f,1,1.4428,1,2,6,0,1,f.PNG,f,6109a5154bfaad8f41606b51,2021-09-08_20h59.49.402,forced_choiceRT,2021.1.2,Win32,59.28385108,,,,,,,,,,,,,,,,,,,,,,
,0,h,1,1.9842,1,3,7,2,1,h.PNG,h,6109a5154bfaad8f41606b51,2021-09-08_20h59.49.402,forced_choiceRT,2021.1.2,Win32,59.28385108,,,,,,,,,,,,,,,,,,,,,,
,0,g,1,1.208099999,2,0,8,1,1,g.PNG,g,6109a5154bfaad8f41606b51,2021-09-08_20h59.49.402,forced_choiceRT,2021.1.2,Win32,59.28385108,,,,,,,,,,,,,,,,,,,,,,
,0,h,1,2.3795,2,1,9,2,1,h.PNG,h,6109a5154bfaad8f41606b51,2021-09-08_20h59.49.402,forced_choiceRT,2021.1.2,Win32,59.28385108,,,,,,,,,,,,,,,,,,,,,,
,0,f,1,1.4728,2,2,10,0,1,f.PNG,f,6109a5154bfaad8f41606b51,2021-09-08_20h59.49.402,forced_choiceRT,2021.1.2,Win32,59.28385108,,,,,,,,,,,,,,,,,,,,,,
,0,j,1,3.1025,2,3,11,3,1,j.PNG,j,6109a5154bfaad8f41606b51,2021-09-08_20h59.49.402,forced_choiceRT,2021.1.2,Win32,59.28385108,,,,,,,,,,,,,,,,,,,,,,
,0,f,0,1.0611,3,0,12,1,1,g.PNG,g,6109a5154bfaad8f41606b51,2021-09-08_20h59.49.402,forced_choiceRT,2021.1.2,Win32,59.28385108,,,,,,,,,,,,,,,,,,,,,,
,0,g,1,1.6767,3,1,13,1,1,g.PNG,g,6109a5154bfaad8f41606b51,2021-09-08_20h59.49.402,forced_choiceRT,2021.1.2,Win32,59.28385108,,,,,,,,,,,,,,,,,,,,,,
,0,j,1,1.8898,3,2,14,3,1,j.PNG,j,6109a5154bfaad8f41606b51,2021-09-08_20h59.49.402,forced_choiceRT,2021.1.2,Win32,59.28385108,,,,,,,,,,,,,,,,,,,,,,
,0,h,1,1.2925,3,3,15,2,1,h.PNG,h,6109a5154bfaad8f41606b51,2021-09-08_20h59.49.402,forced_choiceRT,2021.1.2,Win32,59.28385108,,,,,,,,,,,,,,,,,,,,,,
,0,f,1,1.246,4,0,16,0,1,f.PNG,f,6109a5154bfaad8f41606b51,2021-09-08_20h59.49.402,forced_choiceRT,2021.1.2,Win32,59.28385108,,,,,,,,,,,,,,,,,,,,,,
,0,j,1,2.6755,4,1,17,3,1,j.PNG,j,6109a5154bfaad8f41606b51,2021-09-08_20h59.49.402,forced_choiceRT,2021.1.2,Win32,59.28385108,,,,,,,,,,,,,,,,,,,,,,
,0,h,1,1.1205,4,2,18,2,1,h.PNG,h,6109a5154bfaad8f41606b51,2021-09-08_20h59.49.402,forced_choiceRT,2021.1.2,Win32,59.28385108,,,,,,,,,,,,,,,,,,,,,,
,0,g,1,1.010700001,4,3,19,1,1,g.PNG,g,6109a5154bfaad8f41606b51,2021-09-08_20h59.49.402,forced_choiceRT,2021.1.2,Win32,59.28385108,,,,,,,,,,,,,,,,,,,,,,
,0,f,1,0.662,5,0,20,0,1,f.PNG,f,6109a5154bfaad8f41606b51,2021-09-08_20h59.49.402,forced_choiceRT,2021.1.2,Win32,59.28385108,,,,,,,,,,,,,,,,,,,,,,
,0,j,1,1.2833,5,1,21,3,1,j.PNG,j,6109a5154bfaad8f41606b51,2021-09-08_20h59.49.402,forced_choiceRT,2021.1.2,Win32,59.28385108,,,,,,,,,,,,,,,,,,,,,,
,0,g,1,0.8922,5,2,22,1,1,g.PNG,g,6109a5154bfaad8f41606b51,2021-09-08_20h59.49.402,forced_choiceRT,2021.1.2,Win32,59.28385108,,,,,,,,,,,,,,,,,,,,,,
,0,g,1,0.540200001,5,3,23,1,1,g.PNG,g,6109a5154bfaad8f41606b51,2021-09-08_20h59.49.402,forced_choiceRT,2021.1.2,Win32,59.28385108,,,,,,,,,,,,,,,,,,,,,,
,0,f,1,0.556900001,6,0,24,0,1,f.PNG,f,6109a5154bfaad8f41606b51,2021-09-08_20h59.49.402,forced_choiceRT,2021.1.2,Win32,59.28385108,,,,,,,,,,,,,,,,,,,,,,
,0,j,1,0.8107,6,1,25,3,1,j.PNG,j,6109a5154bfaad8f41606b51,2021-09-08_20h59.49.402,forced_choiceRT,2021.1.2,Win32,59.28385108,,,,,,,,,,,,,,,,,,,,,,
,0,f,1,0.746299999,6,2,26,0,1,f.PNG,f,6109a5154bfaad8f41606b51,2021-09-08_20h59.49.402,forced_choiceRT,2021.1.2,Win32,59.28385108,,,,,,,,,,,,,,,,,,,,,,
,0,f,1,0.5499,6,3,27,0,1,f.PNG,f,6109a5154bfaad8f41606b51,2021-09-08_20h59.49.402,forced_choiceRT,2021.1.2,Win32,59.28385108,,,,,,,,,,,,,,,,,,,,,,
,0,j,1,0.678,7,0,28,3,1,j.PNG,j,6109a5154bfaad8f41606b51,2021-09-08_20h59.49.402,forced_choiceRT,2021.1.2,Win32,59.28385108,,,,,,,,,,,,,,,,,,,,,,
,0,f,1,0.7271,7,1,29,0,1,f.PNG,f,6109a5154bfaad8f41606b51,2021-09-08_20h59.49.402,forced_choiceRT,2021.1.2,Win32,59.28385108,,,,,,,,,,,,,,,,,,,,,,
,0,g,1,0.479200001,7,2,30,1,1,g.PNG,g,6109a5154bfaad8f41606b51,2021-09-08_20h59.49.402,forced_choiceRT,2021.1.2,Win32,59.28385108,,,,,,,,,,,,,,,,,,,,,,
,0,g,1,0.4584,7,3,31,1,1,g.PNG,g,6109a5154bfaad8f41606b51,2021-09-08_20h59.49.402,forced_choiceRT,2021.1.2,Win32,59.28385108,,,,,,,,,,,,,,,,,,,,,,
,0,h,1,0.8233,8,0,32,2,1,h.PNG,h,6109a5154bfaad8f41606b51,2021-09-08_20h59.49.402,forced_choiceRT,2021.1.2,Win32,59.28385108,,,,,,,,,,,,,,,,,,,,,,
,0,h,1,0.528400001,8,1,33,2,1,h.PNG,h,6109a5154bfaad8f41606b51,2021-09-08_20h59.49.402,forced_choiceRT,2021.1.2,Win32,59.28385108,,,,,,,,,,,,,,,,,,,,,,
,0,h,1,0.4571,8,2,34,2,1,h.PNG,h,6109a5154bfaad8f41606b51,2021-09-08_20h59.49.402,forced_choiceRT,2021.1.2,Win32,59.28385108,,,,,,,,,,,,,,,,,,,,,,
,0,h,0,0.5095,8,3,35,3,1,j.PNG,j,6109a5154bfaad8f41606b51,2021-09-08_20h59.49.402,forced_choiceRT,2021.1.2,Win32,59.28385108,,,,,,,,,,,,,,,,,,,,,,
,0,j,0,0.3136,9,0,36,2,1,h.PNG,h,6109a5154bfaad8f41606b51,2021-09-08_20h59.49.402,forced_choiceRT,2021.1.2,Win32,59.28385108,,,,,,,,,,,,,,,,,,,,,,
,0,h,0,0.448,9,1,37,3,1,j.PNG,j,6109a5154bfaad8f41606b51,2021-09-08_20h59.49.402,forced_choiceRT,2021.1.2,Win32,59.28385108,,,,,,,,,,,,,,,,,,,,,,
,0,h,1,0.7293,9,2,38,2,1,h.PNG,h,6109a5154bfaad8f41606b51,2021-09-08_20h59.49.402,forced_choiceRT,2021.1.2,Win32,59.28385108,,,,,,,,,,,,,,,,,,,,,,
,0,f,1,0.7479,9,3,39,0,1,f.PNG,f,6109a5154bfaad8f41606b51,2021-09-08_20h59.49.402,forced_choiceRT,2021.1.2,Win32,59.28385108,,,,,,,,,,,,,,,,,,,,,,
,0,j,1,1.114599999,10,0,40,3,1,j.PNG,j,6109a5154bfaad8f41606b51,2021-09-08_20h59.49.402,forced_choiceRT,2021.1.2,Win32,59.28385108,,,,,,,,,,,,,,,,,,,,,,
,0,g,1,0.8113,10,1,41,1,1,g.PNG,g,6109a5154bfaad8f41606b51,2021-09-08_20h59.49.402,forced_choiceRT,2021.1.2,Win32,59.28385108,,,,,,,,,,,,,,,,,,,,,,
,0,g,1,0.9493,10,2,42,1,1,g.PNG,g,6109a5154bfaad8f41606b51,2021-09-08_20h59.49.402,forced_choiceRT,2021.1.2,Win32,59.28385108,,,,,,,,,,,,,,,,,,,,,,
,0,f,1,0.7587,10,3,43,0,1,f.PNG,f,6109a5154bfaad8f41606b51,2021-09-08_20h59.49.402,forced_choiceRT,2021.1.2,Win32,59.28385108,,,,,,,,,,,,,,,,,,,,,,
,0,f,1,0.755900001,11,0,44,0,1,f.PNG,f,6109a5154bfaad8f41606b51,2021-09-08_20h59.49.402,forced_choiceRT,2021.1.2,Win32,59.28385108,,,,,,,,,,,,,,,,,,,,,,
,0,j,1,0.8467,11,1,45,3,1,j.PNG,j,6109a5154bfaad8f41606b51,2021-09-08_20h59.49.402,forced_choiceRT,2021.1.2,Win32,59.28385108,,,,,,,,,,,,,,,,,,,,,,
,0,h,1,0.577599999,11,2,46,2,1,h.PNG,h,6109a5154bfaad8f41606b51,2021-09-08_20h59.49.402,forced_choiceRT,2021.1.2,Win32,59.28385108,,,,,,,,,,,,,,,,,,,,,,
,0,g,1,0.892,11,3,47,1,1,g.PNG,g,6109a5154bfaad8f41606b51,2021-09-08_20h59.49.402,forced_choiceRT,2021.1.2,Win32,59.28385108,,,,,,,,,,,,,,,,,,,,,,
,0,f,1,0.643099999,12,0,48,0,1,f.PNG,f,6109a5154bfaad8f41606b51,2021-09-08_20h59.49.402,forced_choiceRT,2021.1.2,Win32,59.28385108,,,,,,,,,,,,,,,,,,,,,,
,0,g,1,0.7723,12,1,49,1,1,g.PNG,g,6109a5154bfaad8f41606b51,2021-09-08_20h59.49.402,forced_choiceRT,2021.1.2,Win32,59.28385108,,,,,,,,,,,,,,,,,,,,,,
,0,h,1,0.828400001,12,2,50,2,1,h.PNG,h,6109a5154bfaad8f41606b51,2021-09-08_20h59.49.402,forced_choiceRT,2021.1.2,Win32,59.28385108,,,,,,,,,,,,,,,,,,,,,,
,0,j,1,0.6883,12,3,51,3,1,j.PNG,j,6109a5154bfaad8f41606b51,2021-09-08_20h59.49.402,forced_choiceRT,2021.1.2,Win32,59.28385108,,,,,,,,,,,,,,,,,,,,,,
,0,f,1,0.6147,13,0,52,0,1,f.PNG,f,6109a5154bfaad8f41606b51,2021-09-08_20h59.49.402,forced_choiceRT,2021.1.2,Win32,59.28385108,,,,,,,,,,,,,,,,,,,,,,
,0,j,1,0.7614,13,1,53,3,1,j.PNG,j,6109a5154bfaad8f41606b51,2021-09-08_20h59.49.402,forced_choiceRT,2021.1.2,Win32,59.28385108,,,,,,,,,,,,,,,,,,,,,,
,0,f,1,0.763900001,13,2,54,0,1,f.PNG,f,6109a5154bfaad8f41606b51,2021-09-08_20h59.49.402,forced_choiceRT,2021.1.2,Win32,59.28385108,,,,,,,,,,,,,,,,,,,,,,
,0,g,1,0.707,13,3,55,1,1,g.PNG,g,6109a5154bfaad8f41606b51,2021-09-08_20h59.49.402,forced_choiceRT,2021.1.2,Win32,59.28385108,,,,,,,,,,,,,,,,,,,,,,
,0,h,1,0.744099999,14,0,56,2,1,h.PNG,h,6109a5154bfaad8f41606b51,2021-09-08_20h59.49.402,forced_choiceRT,2021.1.2,Win32,59.28385108,,,,,,,,,,,,,,,,,,,,,,
,0,j,0,0.6071,14,1,57,1,1,g.PNG,g,6109a5154bfaad8f41606b51,2021-09-08_20h59.49.402,forced_choiceRT,2021.1.2,Win32,59.28385108,,,,,,,,,,,,,,,,,,,,,,
,0,j,1,1.2681,14,2,58,3,1,j.PNG,j,6109a5154bfaad8f41606b51,2021-09-08_20h59.49.402,forced_choiceRT,2021.1.2,Win32,59.28385108,,,,,,,,,,,,,,,,,,,,,,
,0,h,1,0.5428,14,3,59,2,1,h.PNG,h,6109a5154bfaad8f41606b51,2021-09-08_20h59.49.402,forced_choiceRT,2021.1.2,Win32,59.28385108,,,,,,,,,,,,,,,,,,,,,,
,,,,,,,,,,,,6109a5154bfaad8f41606b51,2021-09-08_20h59.49.402,forced_choiceRT,2021.1.2,Win32,59.28385108,f,1.6221,0,0,0,0,1,,,,,,,,,,,,,,,
,,,,,,,,,,,,6109a5154bfaad8f41606b51,2021-09-08_20h59.49.402,forced_choiceRT,2021.1.2,Win32,59.28385108,f,2.337799999,1,0,1,0,1,,,,,,,,,,,,,,,
,,,,,,,,,,,,6109a5154bfaad8f41606b51,2021-09-08_20h59.49.402,forced_choiceRT,2021.1.2,Win32,59.28385108,f,2.109599999,2,0,2,0,1,,,,,,,,,,,,,,,
,,,,,,,,,,,,6109a5154bfaad8f41606b51,2021-09-08_20h59.49.402,forced_choiceRT,2021.1.2,Win32,59.28385108,g,2.0679,3,0,3,0,1,,,,,,,,,,,,,,,
,,,,,,,,,,,,6109a5154bfaad8f41606b51,2021-09-08_20h59.49.402,forced_choiceRT,2021.1.2,Win32,59.28385108,g,2.0283,4,0,4,0,1,,,,,,,,,,,,,,,
,,,,,,,,,,,,6109a5154bfaad8f41606b51,2021-09-08_20h59.49.402,forced_choiceRT,2021.1.2,Win32,59.28385108,g,1.7653,5,0,5,0,1,,,,,,,,,,,,,,,
,,,,,,,,,,,,6109a5154bfaad8f41606b51,2021-09-08_20h59.49.402,forced_choiceRT,2021.1.2,Win32,59.28385108,h,2.021,6,0,6,0,1,,,,,,,,,,,,,,,
,,,,,,,,,,,,6109a5154bfaad8f41606b51,2021-09-08_20h59.49.402,forced_choiceRT,2021.1.2,Win32,59.28385108,h,2.0273,7,0,7,0,1,,,,,,,,,,,,,,,
,,,,,,,,,,,,6109a5154bfaad8f41606b51,2021-09-08_20h59.49.402,forced_choiceRT,2021.1.2,Win32,59.28385108,h,1.992900001,8,0,8,0,1,,,,,,,,,,,,,,,
,,,,,,,,,,,,6109a5154bfaad8f41606b51,2021-09-08_20h59.49.402,forced_choiceRT,2021.1.2,Win32,59.28385108,h,1.811,9,0,9,0,1,,,,,,,,,,,,,,,
,,,,,,,,,,,,6109a5154bfaad8f41606b51,2021-09-08_20h59.49.402,forced_choiceRT,2021.1.2,Win32,59.28385108,h,2.0506,10,0,10,0,1,,,,,,,,,,,,,,,
,,,,,,,,,,,,6109a5154bfaad8f41606b51,2021-09-08_20h59.49.402,forced_choiceRT,2021.1.2,Win32,59.28385108,h,2.1595,11,0,11,0,1,,,,,,,,,,,,,,,
,,,,,,,,,,,,6109a5154bfaad8f41606b51,2021-09-08_20h59.49.402,forced_choiceRT,2021.1.2,Win32,59.28385108,h,2.062599999,12,0,12,0,1,,,,,,,,,,,,,,,
,,,,,,,,,,,,6109a5154bfaad8f41606b51,2021-09-08_20h59.49.402,forced_choiceRT,2021.1.2,Win32,59.28385108,h,2.1103,13,0,13,0,1,,,,,,,,,,,,,,,
,,,,,,,,,,,,6109a5154bfaad8f41606b51,2021-09-08_20h59.49.402,forced_choiceRT,2021.1.2,Win32,59.28385108,h,2.0135,14,0,14,0,1,,,,,,,,,,,,,,,
,,,,,,,,,,,,6109a5154bfaad8f41606b51,2021-09-08_20h59.49.402,forced_choiceRT,2021.1.2,Win32,59.28385108,h,1.7646,15,0,15,0,1,,,,,,,,,,,,,,,
,,,,,,,,,,,,6109a5154bfaad8f41606b51,2021-09-08_20h59.49.402,forced_choiceRT,2021.1.2,Win32,59.28385108,h,2.0062,16,0,16,0,1,,,,,,,,,,,,,,,
,,,,,,,,,,,,6109a5154bfaad8f41606b51,2021-09-08_20h59.49.402,forced_choiceRT,2021.1.2,Win32,59.28385108,h,1.823599999,17,0,17,0,1,,,,,,,,,,,,,,,
,,,,,,,,,,,,6109a5154bfaad8f41606b51,2021-09-08_20h59.49.402,forced_choiceRT,2021.1.2,Win32,59.28385108,h,1.829599999,18,0,18,0,1,,,,,,,,,,,,,,,
,,,,,,,,,,,,6109a5154bfaad8f41606b51,2021-09-08_20h59.49.402,forced_choiceRT,2021.1.2,Win32,59.28385108,h,2.0673,19,0,19,0,1,,,,,,,,,,,,,,,
,1.53,,,,,,,,,f.PNG,f,6109a5154bfaad8f41606b51,2021-09-08_20h59.49.402,forced_choiceRT,2021.1.2,Win32,59.28385108,,,,,,,,1,Fast,f,1,1.8049,0,0,0,0,1,,,,,
,0.77,,,,,,,,,g.PNG,g,6109a5154bfaad8f41606b51,2021-09-08_20h59.49.402,forced_choiceRT,2021.1.2,Win32,59.28385108,,,,,,,,1,Fast,g,1,1.3736,0,1,1,1,1,,,,,
,0.86,,,,,,,,,j.PNG,j,6109a5154bfaad8f41606b51,2021-09-08_20h59.49.402,forced_choiceRT,2021.1.2,Win32,59.28385108,,,,,,,,1,Fast,j,1,1.8599,0,2,2,3,1,,,,,
,1.36,,,,,,,,,h.PNG,h,6109a5154bfaad8f41606b51,2021-09-08_20h59.49.402,forced_choiceRT,2021.1.2,Win32,59.28385108,,,,,,,,1,Slow,h,1,2.1807,0,3,3,2,1,,,,,
,0.66,,,,,,,,,f.PNG,f,6109a5154bfaad8f41606b51,2021-09-08_20h59.49.402,forced_choiceRT,2021.1.2,Win32,59.28385108,,,,,,,,1,Fast,f,1,1.7732,1,0,4,0,1,,,,,
,1.31,,,,,,,,,f.PNG,f,6109a5154bfaad8f41606b51,2021-09-08_20h59.49.402,forced_choiceRT,2021.1.2,Win32,59.28385108,,,,,,,,1,Fast,g,0,1.897,1,1,5,0,1,,,,,
,0.93,,,,,,,,,f.PNG,f,6109a5154bfaad8f41606b51,2021-09-08_20h59.49.402,forced_choiceRT,2021.1.2,Win32,59.28385108,,,,,,,,1,Fast,f,1,1.563200001,1,2,6,0,1,,,,,
,0.39,,,,,,,,,j.PNG,j,6109a5154bfaad8f41606b51,2021-09-08_20h59.49.402,forced_choiceRT,2021.1.2,Win32,59.28385108,,,,,,,,1,Ontime,j,1,1.926799999,1,3,7,3,1,,,,,
,0.13,,,,,,,,,f.PNG,f,6109a5154bfaad8f41606b51,2021-09-08_20h59.49.402,forced_choiceRT,2021.1.2,Win32,59.28385108,,,,,,,,1,Fast,f,1,1.876,2,0,8,0,1,,,,,
,1.75,,,,,,,,,g.PNG,g,6109a5154bfaad8f41606b51,2021-09-08_20h59.49.402,forced_choiceRT,2021.1.2,Win32,59.28385108,,,,,,,,1,Slow,f,0,2.258099999,2,1,9,1,1,,,,,
,0.95,,,,,,,,,j.PNG,j,6109a5154bfaad8f41606b51,2021-09-08_20h59.49.402,forced_choiceRT,2021.1.2,Win32,59.28385108,,,,,,,,1,Ontime,j,1,2.047099999,2,2,10,3,1,,,,,
,0.8,,,,,,,,,j.PNG,j,6109a5154bfaad8f41606b51,2021-09-08_20h59.49.402,forced_choiceRT,2021.1.2,Win32,59.28385108,,,,,,,,1,Ontime,j,1,2.0281,2,3,11,3,1,,,,,
,0.78,,,,,,,,,f.PNG,f,6109a5154bfaad8f41606b51,2021-09-08_20h59.49.402,forced_choiceRT,2021.1.2,Win32,59.28385108,,,,,,,,1,Fast,f,1,1.824900001,3,0,12,0,1,,,,,
,0.81,,,,,,,,,g.PNG,g,6109a5154bfaad8f41606b51,2021-09-08_20h59.49.402,forced_choiceRT,2021.1.2,Win32,59.28385108,,,,,,,,1,Fast,g,1,1.5475,3,1,13,1,1,,,,,
,1.52,,,,,,,,,j.PNG,j,6109a5154bfaad8f41606b51,2021-09-08_20h59.49.402,forced_choiceRT,2021.1.2,Win32,59.28385108,,,,,,,,1,Ontime,h,0,2.0811,3,2,14,3,1,,,,,
,1.91,,,,,,,,,g.PNG,g,6109a5154bfaad8f41606b51,2021-09-08_20h59.49.402,forced_choiceRT,2021.1.2,Win32,59.28385108,,,,,,,,1,Slow,f,0,2.274,3,3,15,1,1,,,,,
,0.28,,,,,,,,,h.PNG,h,6109a5154bfaad8f41606b51,2021-09-08_20h59.49.402,forced_choiceRT,2021.1.2,Win32,59.28385108,,,,,,,,1,Fast,h,1,1.8764,4,0,16,2,1,,,,,
,1.05,,,,,,,,,g.PNG,g,6109a5154bfaad8f41606b51,2021-09-08_20h59.49.402,forced_choiceRT,2021.1.2,Win32,59.28385108,,,,,,,,1,Ontime,g,1,1.9267,4,1,17,1,1,,,,,
,0.41,,,,,,,,,j.PNG,j,6109a5154bfaad8f41606b51,2021-09-08_20h59.49.402,forced_choiceRT,2021.1.2,Win32,59.28385108,,,,,,,,1,Ontime,j,1,1.9441,4,2,18,3,1,,,,,
,0.09,,,,,,,,,h.PNG,h,6109a5154bfaad8f41606b51,2021-09-08_20h59.49.402,forced_choiceRT,2021.1.2,Win32,59.28385108,,,,,,,,1,Ontime,h,1,1.9949,4,3,19,2,1,,,,,
,1.78,,,,,,,,,h.PNG,h,6109a5154bfaad8f41606b51,2021-09-08_20h59.49.402,forced_choiceRT,2021.1.2,Win32,59.28385108,,,,,,,,1,Slow,h,1,2.2616,5,0,20,2,1,,,,,
,0.9,,,,,,,,,h.PNG,h,6109a5154bfaad8f41606b51,2021-09-08_20h59.49.402,forced_choiceRT,2021.1.2,Win32,59.28385108,,,,,,,,1,Fast,h,1,1.809099999,5,1,21,2,1,,,,,
,1.91,,,,,,,,,g.PNG,g,6109a5154bfaad8f41606b51,2021-09-08_20h59.49.402,forced_choiceRT,2021.1.2,Win32,59.28385108,,,,,,,,1,Slow,h,0,11.0977,5,2,22,1,1,,,,,
,1.22,,,,,,,,,h.PNG,h,6109a5154bfaad8f41606b51,2021-09-08_20h59.49.402,forced_choiceRT,2021.1.2,Win32,59.28385108,,,,,,,,1,Ontime,h,1,2.0289,5,3,23,2,1,,,,,
,0,,,,,,,,,g.PNG,g,6109a5154bfaad8f41606b51,2021-09-08_20h59.49.402,forced_choiceRT,2021.1.2,Win32,59.28385108,,,,,,,,1,Ontime,g,1,2.061200001,6,0,24,1,1,,,,,
,0.72,,,,,,,,,h.PNG,h,6109a5154bfaad8f41606b51,2021-09-08_20h59.49.402,forced_choiceRT,2021.1.2,Win32,59.28385108,,,,,,,,1,Fast,h,1,1.844700001,6,1,25,2,1,,,,,
,0.98,,,,,,,,,h.PNG,h,6109a5154bfaad8f41606b51,2021-09-08_20h59.49.402,forced_choiceRT,2021.1.2,Win32,59.28385108,,,,,,,,1,Ontime,h,1,2.029400001,6,2,26,2,1,,,,,
,1.27,,,,,,,,,g.PNG,g,6109a5154bfaad8f41606b51,2021-09-08_20h59.49.402,forced_choiceRT,2021.1.2,Win32,59.28385108,,,,,,,,1,Ontime,g,1,1.991099999,6,3,27,1,1,,,,,
,0.41,,,,,,,,,h.PNG,h,6109a5154bfaad8f41606b51,2021-09-08_20h59.49.402,forced_choiceRT,2021.1.2,Win32,59.28385108,,,,,,,,1,Ontime,h,1,1.9938,7,0,28,2,1,,,,,
,1.54,,,,,,,,,f.PNG,f,6109a5154bfaad8f41606b51,2021-09-08_20h59.49.402,forced_choiceRT,2021.1.2,Win32,59.28385108,,,,,,,,1,Slow,f,1,2.1921,7,1,29,0,1,,,,,
,0.21,,,,,,,,,f.PNG,f,6109a5154bfaad8f41606b51,2021-09-08_20h59.49.402,forced_choiceRT,2021.1.2,Win32,59.28385108,,,,,,,,1,Ontime,f,1,2.004799999,7,2,30,0,1,,,,,
,1.76,,,,,,,,,j.PNG,j,6109a5154bfaad8f41606b51,2021-09-08_20h59.49.402,forced_choiceRT,2021.1.2,Win32,59.28385108,,,,,,,,1,Slow,g,0,2.203,7,3,31,3,1,,,,,
,1.36,,,,,,,,,h.PNG,h,6109a5154bfaad8f41606b51,2021-09-08_20h59.49.402,forced_choiceRT,2021.1.2,Win32,59.28385108,,,,,,,,1,Ontime,j,0,1.9383,8,0,32,2,1,,,,,
,1.01,,,,,,,,,f.PNG,f,6109a5154bfaad8f41606b51,2021-09-08_20h59.49.402,forced_choiceRT,2021.1.2,Win32,59.28385108,,,,,,,,1,Fast,f,1,1.734599999,8,1,33,0,1,,,,,
,1.21,,,,,,,,,j.PNG,j,6109a5154bfaad8f41606b51,2021-09-08_20h59.49.402,forced_choiceRT,2021.1.2,Win32,59.28385108,,,,,,,,1,Fast,j,1,1.8994,8,2,34,3,1,,,,,
,1.47,,,,,,,,,j.PNG,j,6109a5154bfaad8f41606b51,2021-09-08_20h59.49.402,forced_choiceRT,2021.1.2,Win32,59.28385108,,,,,,,,1,Slow,j,1,2.1487,8,3,35,3,1,,,,,
,0.6,,,,,,,,,g.PNG,g,6109a5154bfaad8f41606b51,2021-09-08_20h59.49.402,forced_choiceRT,2021.1.2,Win32,59.28385108,,,,,,,,1,Ontime,g,1,2.011400001,9,0,36,1,1,,,,,
,0.22,,,,,,,,,f.PNG,f,6109a5154bfaad8f41606b51,2021-09-08_20h59.49.402,forced_choiceRT,2021.1.2,Win32,59.28385108,,,,,,,,1,Ontime,f,1,1.9801,9,1,37,0,1,,,,,
,0.27,,,,,,,,,g.PNG,g,6109a5154bfaad8f41606b51,2021-09-08_20h59.49.402,forced_choiceRT,2021.1.2,Win32,59.28385108,,,,,,,,1,Ontime,g,1,1.922400001,9,2,38,1,1,,,,,
,1.1,,,,,,,,,j.PNG,j,6109a5154bfaad8f41606b51,2021-09-08_20h59.49.402,forced_choiceRT,2021.1.2,Win32,59.28385108,,,,,,,,1,Fast,j,1,1.8683,9,3,39,3,1,,,,,
,,,,,,,,,,,,6109a5154bfaad8f41606b51,2021-09-08_20h59.49.402,forced_choiceRT,2021.1.2,Win32,59.28385108,,,,,,,,,,,,,,,,,,0,0,0,0,1
,1.8,,,,,,,,,h.PNG,h,6109a5154bfaad8f41606b51,2021-09-08_20h59.49.402,forced_choiceRT,2021.1.2,Win32,59.28385108,,,,,,,,2,Slow,j,0,2.132099999,0,0,0,2,1,,,,,
,1.83,,,,,,,,,g.PNG,g,6109a5154bfaad8f41606b51,2021-09-08_20h59.49.402,forced_choiceRT,2021.1.2,Win32,59.28385108,,,,,,,,2,Slow,g,1,2.2937,0,1,1,1,1,,,,,
,0.07,,,,,,,,,g.PNG,g,6109a5154bfaad8f41606b51,2021-09-08_20h59.49.402,forced_choiceRT,2021.1.2,Win32,59.28385108,,,,,,,,2,Ontime,g,1,1.9245,0,2,2,1,1,,,,,
,1.3,,,,,,,,,g.PNG,g,6109a5154bfaad8f41606b51,2021-09-08_20h59.49.402,forced_choiceRT,2021.1.2,Win32,59.28385108,,,,,,,,2,Fast,g,1,1.8113,0,3,3,1,1,,,,,
,0.14,,,,,,,,,f.PNG,f,6109a5154bfaad8f41606b51,2021-09-08_20h59.49.402,forced_choiceRT,2021.1.2,Win32,59.28385108,,,,,,,,2,Ontime,f,1,2.0077,1,0,4,0,1,,,,,
,0.13,,,,,,,,,f.PNG,f,6109a5154bfaad8f41606b51,2021-09-08_20h59.49.402,forced_choiceRT,2021.1.2,Win32,59.28385108,,,,,,,,2,Ontime,f,1,2.023599999,1,1,5,0,1,,,,,
,0.47,,,,,,,,,h.PNG,h,6109a5154bfaad8f41606b51,2021-09-08_20h59.49.402,forced_choiceRT,2021.1.2,Win32,59.28385108,,,,,,,,2,Ontime,h,1,1.995700001,1,2,6,2,1,,,,,
,1.09,,,,,,,,,j.PNG,j,6109a5154bfaad8f41606b51,2021-09-08_20h59.49.402,forced_choiceRT,2021.1.2,Win32,59.28385108,,,,,,,,2,Ontime,j,1,1.910799999,1,3,7,3,1,,,,,
,0.34,,,,,,,,,f.PNG,f,6109a5154bfaad8f41606b51,2021-09-08_20h59.49.402,forced_choiceRT,2021.1.2,Win32,59.28385108,,,,,,,,2,Fast,f,1,1.8733,2,0,8,0,1,,,,,
,1.03,,,,,,,,,h.PNG,h,6109a5154bfaad8f41606b51,2021-09-08_20h59.49.402,forced_choiceRT,2021.1.2,Win32,59.28385108,,,,,,,,2,Ontime,j,0,1.9426,2,1,9,2,1,,,,,
,1.42,,,,,,,,,j.PNG,j,6109a5154bfaad8f41606b51,2021-09-08_20h59.49.402,forced_choiceRT,2021.1.2,Win32,59.28385108,,,,,,,,2,Ontime,j,1,2.0347,2,2,10,3,1,,,,,
,0.16,,,,,,,,,f.PNG,f,6109a5154bfaad8f41606b51,2021-09-08_20h59.49.402,forced_choiceRT,2021.1.2,Win32,59.28385108,,,,,,,,2,Ontime,f,1,1.951599999,2,3,11,0,1,,,,,
,0.7,,,,,,,,,h.PNG,h,6109a5154bfaad8f41606b51,2021-09-08_20h59.49.402,forced_choiceRT,2021.1.2,Win32,59.28385108,,,,,,,,2,Fast,h,1,1.8955,3,0,12,2,1,,,,,
,1.18,,,,,,,,,f.PNG,f,6109a5154bfaad8f41606b51,2021-09-08_20h59.49.402,forced_choiceRT,2021.1.2,Win32,59.28385108,,,,,,,,2,Ontime,f,1,1.9041,3,1,13,0,1,,,,,
,0.16,,,,,,,,,g.PNG,g,6109a5154bfaad8f41606b51,2021-09-08_20h59.49.402,forced_choiceRT,2021.1.2,Win32,59.28385108,,,,,,,,2,Ontime,g,1,2.007,3,2,14,1,1,,,,,
,0.94,,,,,,,,,h.PNG,h,6109a5154bfaad8f41606b51,2021-09-08_20h59.49.402,forced_choiceRT,2021.1.2,Win32,59.28385108,,,,,,,,2,Slow,h,1,2.1246,3,3,15,2,1,,,,,
,0.55,,,,,,,,,g.PNG,g,6109a5154bfaad8f41606b51,2021-09-08_20h59.49.402,forced_choiceRT,2021.1.2,Win32,59.28385108,,,,,,,,2,Fast,g,1,1.8631,4,0,16,1,1,,,,,
,0.95,,,,,,,,,j.PNG,j,6109a5154bfaad8f41606b51,2021-09-08_20h59.49.402,forced_choiceRT,2021.1.2,Win32,59.28385108,,,,,,,,2,Ontime,j,1,1.9808,4,1,17,3,1,,,,,
,1.77,,,,,,,,,h.PNG,h,6109a5154bfaad8f41606b51,2021-09-08_20h59.49.402,forced_choiceRT,2021.1.2,Win32,59.28385108,,,,,,,,2,Slow,j,0,2.3116,4,2,18,2,1,,,,,
,1.23,,,,,,,,,g.PNG,g,6109a5154bfaad8f41606b51,2021-09-08_20h59.49.402,forced_choiceRT,2021.1.2,Win32,59.28385108,,,,,,,,2,Ontime,g,1,1.926,4,3,19,1,1,,,,,
,0.26,,,,,,,,,j.PNG,j,6109a5154bfaad8f41606b51,2021-09-08_20h59.49.402,forced_choiceRT,2021.1.2,Win32,59.28385108,,,,,,,,2,Ontime,j,1,1.9805,5,0,20,3,1,,,,,
,0.78,,,,,,,,,j.PNG,j,6109a5154bfaad8f41606b51,2021-09-08_20h59.49.402,forced_choiceRT,2021.1.2,Win32,59.28385108,,,,,,,,2,Ontime,j,1,1.9272,5,1,21,3,1,,,,,
,1.55,,,,,,,,,h.PNG,h,6109a5154bfaad8f41606b51,2021-09-08_20h59.49.402,forced_choiceRT,2021.1.2,Win32,59.28385108,,,,,,,,2,Ontime,h,1,1.9955,5,2,22,2,1,,,,,
,1.02,,,,,,,,,j.PNG,j,6109a5154bfaad8f41606b51,2021-09-08_20h59.49.402,forced_choiceRT,2021.1.2,Win32,59.28385108,,,,,,,,2,Ontime,j,1,1.9923,5,3,23,3,1,,,,,
,0.76,,,,,,,,,j.PNG,j,6109a5154bfaad8f41606b51,2021-09-08_20h59.49.402,forced_choiceRT,2021.1.2,Win32,59.28385108,,,,,,,,2,Ontime,j,1,1.9268,6,0,24,3,1,,,,,
,0.61,,,,,,,,,f.PNG,f,6109a5154bfaad8f41606b51,2021-09-08_20h59.49.402,forced_choiceRT,2021.1.2,Win32,59.28385108,,,,,,,,2,Ontime,f,1,1.9925,6,1,25,0,1,,,,,
,1.81,,,,,,,,,j.PNG,j,6109a5154bfaad8f41606b51,2021-09-08_20h59.49.402,forced_choiceRT,2021.1.2,Win32,59.28385108,,,,,,,,2,Slow,h,0,2.195799999,6,2,26,3,1,,,,,
,1.79,,,,,,,,,f.PNG,f,6109a5154bfaad8f41606b51,2021-09-08_20h59.49.402,forced_choiceRT,2021.1.2,Win32,59.28385108,,,,,,,,2,Slow,g,0,2.3038,6,3,27,0,1,,,,,
,0.32,,,,,,,,,g.PNG,g,6109a5154bfaad8f41606b51,2021-09-08_20h59.49.402,forced_choiceRT,2021.1.2,Win32,59.28385108,,,,,,,,2,Ontime,g,1,1.944599999,7,0,28,1,1,,,,,
,1.63,,,,,,,,,h.PNG,h,6109a5154bfaad8f41606b51,2021-09-08_20h59.49.402,forced_choiceRT,2021.1.2,Win32,59.28385108,,,,,,,,2,Slow,h,1,2.245,7,1,29,2,1,,,,,
,1.92,,,,,,,,,h.PNG,h,6109a5154bfaad8f41606b51,2021-09-08_20h59.49.402,forced_choiceRT,2021.1.2,Win32,59.28385108,,,,,,,,2,Slow,j,0,2.1733,7,2,30,2,1,,,,,
,1.58,,,,,,,,,g.PNG,g,6109a5154bfaad8f41606b51,2021-09-08_20h59.49.402,forced_choiceRT,2021.1.2,Win32,59.28385108,,,,,,,,2,Ontime,g,1,1.992,7,3,31,1,1,,,,,
,1.93,,,,,,,,,j.PNG,j,6109a5154bfaad8f41606b51,2021-09-08_20h59.49.402,forced_choiceRT,2021.1.2,Win32,59.28385108,,,,,,,,2,Slow,f,0,2.2547,8,0,32,3,1,,,,,
,1.74,,,,,,,,,h.PNG,h,6109a5154bfaad8f41606b51,2021-09-08_20h59.49.402,forced_choiceRT,2021.1.2,Win32,59.28385108,,,,,,,,2,Slow,f,0,2.2405,8,1,33,2,1,,,,,
,0.6,,,,,,,,,f.PNG,f,6109a5154bfaad8f41606b51,2021-09-08_20h59.49.402,forced_choiceRT,2021.1.2,Win32,59.28385108,,,,,,,,2,Fast,f,1,1.7939,8,2,34,0,1,,,,,
,1.32,,,,,,,,,g.PNG,g,6109a5154bfaad8f41606b51,2021-09-08_20h59.49.402,forced_choiceRT,2021.1.2,Win32,59.28385108,,,,,,,,2,Ontime,g,1,2.0295,8,3,35,1,1,,,,,
,0.29,,,,,,,,,f.PNG,f,6109a5154bfaad8f41606b51,2021-09-08_20h59.49.402,forced_choiceRT,2021.1.2,Win32,59.28385108,,,,,,,,2,Ontime,f,1,1.9276,9,0,36,0,1,,,,,
,1.39,,,,,,,,,f.PNG,f,6109a5154bfaad8f41606b51,2021-09-08_20h59.49.402,forced_choiceRT,2021.1.2,Win32,59.28385108,,,,,,,,2,Ontime,f,1,1.9475,9,1,37,0,1,,,,,
,1.92,,,,,,,,,j.PNG,j,6109a5154bfaad8f41606b51,2021-09-08_20h59.49.402,forced_choiceRT,2021.1.2,Win32,59.28385108,,,,,,,,2,Slow,g,0,2.323,9,2,38,3,1,,,,,
,1.39,,,,,,,,,g.PNG,g,6109a5154bfaad8f41606b51,2021-09-08_20h59.49.402,forced_choiceRT,2021.1.2,Win32,59.28385108,,,,,,,,2,Ontime,j,0,1.9635,9,3,39,1,1,,,,,
,,,,,,,,,,,,6109a5154bfaad8f41606b51,2021-09-08_20h59.49.402,forced_choiceRT,2021.1.2,Win32,59.28385108,,,,,,,,,,,,,,,,,,1,0,1,0,1
,1.18,,,,,,,,,g.PNG,g,6109a5154bfaad8f41606b51,2021-09-08_20h59.49.402,forced_choiceRT,2021.1.2,Win32,59.28385108,,,,,,,,3,Slow,g,1,2.175200001,0,0,0,1,1,,,,,
,1.18,,,,,,,,,j.PNG,j,6109a5154bfaad8f41606b51,2021-09-08_20h59.49.402,forced_choiceRT,2021.1.2,Win32,59.28385108,,,,,,,,3,Ontime,j,1,1.941400001,0,1,1,3,1,,,,,
,1.71,,,,,,,,,f.PNG,f,6109a5154bfaad8f41606b51,2021-09-08_20h59.49.402,forced_choiceRT,2021.1.2,Win32,59.28385108,,,,,,,,3,Slow,g,0,2.2279,0,2,2,0,1,,,,,
,1.96,,,,,,,,,j.PNG,j,6109a5154bfaad8f41606b51,2021-09-08_20h59.49.402,forced_choiceRT,2021.1.2,Win32,59.28385108,,,,,,,,3,Slow,j,1,6.0183,0,3,3,3,1,,,,,
,0.77,,,,,,,,,h.PNG,h,6109a5154bfaad8f41606b51,2021-09-08_20h59.49.402,forced_choiceRT,2021.1.2,Win32,59.28385108,,,,,,,,3,Fast,h,1,1.8053,1,0,4,2,1,,,,,
,1.82,,,,,,,,,j.PNG,j,6109a5154bfaad8f41606b51,2021-09-08_20h59.49.402,forced_choiceRT,2021.1.2,Win32,59.28385108,,,,,,,,3,Slow,j,1,2.8885,1,1,5,3,1,,,,,
,1.47,,,,,,,,,f.PNG,f,6109a5154bfaad8f41606b51,2021-09-08_20h59.49.402,forced_choiceRT,2021.1.2,Win32,59.28385108,,,,,,,,3,Ontime,f,1,2.0448,1,2,6,0,1,,,,,
,0.79,,,,,,,,,f.PNG,f,6109a5154bfaad8f41606b51,2021-09-08_20h59.49.402,forced_choiceRT,2021.1.2,Win32,59.28385108,,,,,,,,3,Ontime,f,1,1.933,1,3,7,0,1,,,,,
,0.13,,,,,,,,,g.PNG,g,6109a5154bfaad8f41606b51,2021-09-08_20h59.49.402,forced_choiceRT,2021.1.2,Win32,59.28385108,,,,,,,,3,Ontime,g,1,1.981200001,2,0,8,1,1,,,,,
,1.19,,,,,,,,,h.PNG,h,6109a5154bfaad8f41606b51,2021-09-08_20h59.49.402,forced_choiceRT,2021.1.2,Win32,59.28385108,,,,,,,,3,Ontime,h,1,1.9287,2,1,9,2,1,,,,,
,1.94,,,,,,,,,f.PNG,f,6109a5154bfaad8f41606b51,2021-09-08_20h59.49.402,forced_choiceRT,2021.1.2,Win32,59.28385108,,,,,,,,3,Slow,j,0,2.3094,2,2,10,0,1,,,,,
,0.16,,,,,,,,,h.PNG,h,6109a5154bfaad8f41606b51,2021-09-08_20h59.49.402,forced_choiceRT,2021.1.2,Win32,59.28385108,,,,,,,,3,Ontime,h,1,1.9635,2,3,11,2,1,,,,,
,0.04,,,,,,,,,h.PNG,h,6109a5154bfaad8f41606b51,2021-09-08_20h59.49.402,forced_choiceRT,2021.1.2,Win32,59.28385108,,,,,,,,3,Ontime,h,1,1.9592,3,0,12,2,1,,,,,
,1.97,,,,,,,,,f.PNG,f,6109a5154bfaad8f41606b51,2021-09-08_20h59.49.402,forced_choiceRT,2021.1.2,Win32,59.28385108,,,,,,,,3,Slow,f,1,2.2822,3,1,13,0,1,,,,,
,0.13,,,,,,,,,g.PNG,g,6109a5154bfaad8f41606b51,2021-09-08_20h59.49.402,forced_choiceRT,2021.1.2,Win32,59.28385108,,,,,,,,3,Ontime,g,1,1.9012,3,2,14,1,1,,,,,
,1.7,,,,,,,,,g.PNG,g,6109a5154bfaad8f41606b51,2021-09-08_20h59.49.402,forced_choiceRT,2021.1.2,Win32,59.28385108,,,,,,,,3,Slow,j,0,2.141400001,3,3,15,1,1,,,,,
,1.8,,,,,,,,,g.PNG,g,6109a5154bfaad8f41606b51,2021-09-08_20h59.49.402,forced_choiceRT,2021.1.2,Win32,59.28385108,,,,,,,,3,Slow,g,1,2.610299999,4,0,16,1,1,,,,,
,0.84,,,,,,,,,j.PNG,j,6109a5154bfaad8f41606b51,2021-09-08_20h59.49.402,forced_choiceRT,2021.1.2,Win32,59.28385108,,,,,,,,3,Fast,j,1,1.8589,4,1,17,3,1,,,,,
,1.83,,,,,,,,,g.PNG,g,6109a5154bfaad8f41606b51,2021-09-08_20h59.49.402,forced_choiceRT,2021.1.2,Win32,59.28385108,,,,,,,,3,Slow,h,0,2.2962,4,2,18,1,1,,,,,
,0.74,,,,,,,,,g.PNG,g,6109a5154bfaad8f41606b51,2021-09-08_20h59.49.402,forced_choiceRT,2021.1.2,Win32,59.28385108,,,,,,,,3,Ontime,g,1,2.0463,4,3,19,1,1,,,,,
,1.75,,,,,,,,,j.PNG,j,6109a5154bfaad8f41606b51,2021-09-08_20h59.49.402,forced_choiceRT,2021.1.2,Win32,59.28385108,,,,,,,,3,Slow,g,0,2.154099999,5,0,20,3,1,,,,,
,0.05,,,,,,,,,j.PNG,j,6109a5154bfaad8f41606b51,2021-09-08_20h59.49.402,forced_choiceRT,2021.1.2,Win32,59.28385108,,,,,,,,3,Ontime,j,1,1.963,5,1,21,3,1,,,,,
,0.01,,,,,,,,,h.PNG,h,6109a5154bfaad8f41606b51,2021-09-08_20h59.49.402,forced_choiceRT,2021.1.2,Win32,59.28385108,,,,,,,,3,Ontime,h,1,1.9956,5,2,22,2,1,,,,,
,0.73,,,,,,,,,h.PNG,h,6109a5154bfaad8f41606b51,2021-09-08_20h59.49.402,forced_choiceRT,2021.1.2,Win32,59.28385108,,,,,,,,3,Fast,h,1,1.897,5,3,23,2,1,,,,,
,1.43,,,,,,,,,f.PNG,f,6109a5154bfaad8f41606b51,2021-09-08_20h59.49.402,forced_choiceRT,2021.1.2,Win32,59.28385108,,,,,,,,3,Fast,f,1,1.8987,6,0,24,0,1,,,,,
,1.21,,,,,,,,,g.PNG,g,6109a5154bfaad8f41606b51,2021-09-08_20h59.49.402,forced_choiceRT,2021.1.2,Win32,59.28385108,,,,,,,,3,Ontime,g,1,1.937900001,6,1,25,1,1,,,,,
,0.15,,,,,,,,,f.PNG,f,6109a5154bfaad8f41606b51,2021-09-08_20h59.49.402,forced_choiceRT,2021.1.2,Win32,59.28385108,,,,,,,,3,Ontime,f,1,1.9619,6,2,26,0,1,,,,,
,0.26,,,,,,,,,f.PNG,f,6109a5154bfaad8f41606b51,2021-09-08_20h59.49.402,forced_choiceRT,2021.1.2,Win32,59.28385108,,,,,,,,3,Fast,f,1,0.9636,6,3,27,0,1,,,,,
,0.51,,,,,,,,,j.PNG,j,6109a5154bfaad8f41606b51,2021-09-08_20h59.49.402,forced_choiceRT,2021.1.2,Win32,59.28385108,,,,,,,,3,Ontime,j,1,1.9772,7,0,28,3,1,,,,,
,0.08,,,,,,,,,h.PNG,h,6109a5154bfaad8f41606b51,2021-09-08_20h59.49.402,forced_choiceRT,2021.1.2,Win32,59.28385108,,,,,,,,3,Ontime,h,1,2.044900001,7,1,29,2,1,,,,,
,0.49,,,,,,,,,h.PNG,h,6109a5154bfaad8f41606b51,2021-09-08_20h59.49.402,forced_choiceRT,2021.1.2,Win32,59.28385108,,,,,,,,3,Fast,h,1,1.8228,7,2,30,2,1,,,,,
,1.39,,,,,,,,,f.PNG,f,6109a5154bfaad8f41606b51,2021-09-08_20h59.49.402,forced_choiceRT,2021.1.2,Win32,59.28385108,,,,,,,,3,Ontime,f,1,2.03,7,3,31,0,1,,,,,
,1.48,,,,,,,,,g.PNG,g,6109a5154bfaad8f41606b51,2021-09-08_20h59.49.402,forced_choiceRT,2021.1.2,Win32,59.28385108,,,,,,,,3,Slow,g,1,2.1228,8,0,32,1,1,,,,,
,0.35,,,,,,,,,f.PNG,f,6109a5154bfaad8f41606b51,2021-09-08_20h59.49.402,forced_choiceRT,2021.1.2,Win32,59.28385108,,,,,,,,3,Ontime,f,1,1.926799999,8,1,33,0,1,,,,,
,0.73,,,,,,,,,j.PNG,j,6109a5154bfaad8f41606b51,2021-09-08_20h59.49.402,forced_choiceRT,2021.1.2,Win32,59.28385108,,,,,,,,3,Ontime,j,1,1.982900001,8,2,34,3,1,,,,,
,0.61,,,,,,,,,j.PNG,j,6109a5154bfaad8f41606b51,2021-09-08_20h59.49.402,forced_choiceRT,2021.1.2,Win32,59.28385108,,,,,,,,3,Ontime,j,1,2.052,8,3,35,3,1,,,,,
,0.7,,,,,,,,,h.PNG,h,6109a5154bfaad8f41606b51,2021-09-08_20h59.49.402,forced_choiceRT,2021.1.2,Win32,59.28385108,,,,,,,,3,Ontime,h,1,1.9611,9,0,36,2,1,,,,,
,0.89,,,,,,,,,j.PNG,j,6109a5154bfaad8f41606b51,2021-09-08_20h59.49.402,forced_choiceRT,2021.1.2,Win32,59.28385108,,,,,,,,3,Ontime,j,1,1.9132,9,1,37,3,1,,,,,
,0.78,,,,,,,,,g.PNG,g,6109a5154bfaad8f41606b51,2021-09-08_20h59.49.402,forced_choiceRT,2021.1.2,Win32,59.28385108,,,,,,,,3,Fast,g,1,1.8416,9,2,38,1,1,,,,,
,0.59,,,,,,,,,h.PNG,h,6109a5154bfaad8f41606b51,2021-09-08_20h59.49.402,forced_choiceRT,2021.1.2,Win32,59.28385108,,,,,,,,3,Ontime,h,1,1.9832,9,3,39,2,1,,,,,
,,,,,,,,,,,,6109a5154bfaad8f41606b51,2021-09-08_20h59.49.402,forced_choiceRT,2021.1.2,Win32,59.28385108,,,,,,,,,,,,,,,,,,2,0,2,0,1
,0.57,,,,,,,,,f.PNG,f,6109a5154bfaad8f41606b51,2021-09-08_20h59.49.402,forced_choiceRT,2021.1.2,Win32,59.28385108,,,,,,,,4,Fast,f,1,1.267900001,0,0,0,0,1,,,,,
,0.74,,,,,,,,,g.PNG,g,6109a5154bfaad8f41606b51,2021-09-08_20h59.49.402,forced_choiceRT,2021.1.2,Win32,59.28385108,,,,,,,,4,Ontime,g,1,1.9815,0,1,1,1,1,,,,,
,0.81,,,,,,,,,g.PNG,g,6109a5154bfaad8f41606b51,2021-09-08_20h59.49.402,forced_choiceRT,2021.1.2,Win32,59.28385108,,,,,,,,4,Ontime,g,1,1.935,0,2,2,1,1,,,,,
,1.64,,,,,,,,,f.PNG,f,6109a5154bfaad8f41606b51,2021-09-08_20h59.49.402,forced_choiceRT,2021.1.2,Win32,59.28385108,,,,,,,,4,Ontime,h,0,2.0809,0,3,3,0,1,,,,,
,0.22,,,,,,,,,h.PNG,h,6109a5154bfaad8f41606b51,2021-09-08_20h59.49.402,forced_choiceRT,2021.1.2,Win32,59.28385108,,,,,,,,4,Ontime,h,1,1.9302,1,0,4,2,1,,,,,
,0.25,,,,,,,,,j.PNG,j,6109a5154bfaad8f41606b51,2021-09-08_20h59.49.402,forced_choiceRT,2021.1.2,Win32,59.28385108,,,,,,,,4,Ontime,j,1,1.9319,1,1,5,3,1,,,,,
,0.36,,,,,,,,,g.PNG,g,6109a5154bfaad8f41606b51,2021-09-08_20h59.49.402,forced_choiceRT,2021.1.2,Win32,59.28385108,,,,,,,,4,Ontime,g,1,1.957299999,1,2,6,1,1,,,,,
,0.15,,,,,,,,,h.PNG,h,6109a5154bfaad8f41606b51,2021-09-08_20h59.49.402,forced_choiceRT,2021.1.2,Win32,59.28385108,,,,,,,,4,Ontime,h,1,1.9671,1,3,7,2,1,,,,,
,1.32,,,,,,,,,j.PNG,j,6109a5154bfaad8f41606b51,2021-09-08_20h59.49.402,forced_choiceRT,2021.1.2,Win32,59.28385108,,,,,,,,4,Slow,j,1,2.1195,2,0,8,3,1,,,,,
,0.4,,,,,,,,,h.PNG,h,6109a5154bfaad8f41606b51,2021-09-08_20h59.49.402,forced_choiceRT,2021.1.2,Win32,59.28385108,,,,,,,,4,Fast,h,1,1.861900001,2,1,9,2,1,,,,,
,1.66,,,,,,,,,h.PNG,h,6109a5154bfaad8f41606b51,2021-09-08_20h59.49.402,forced_choiceRT,2021.1.2,Win32,59.28385108,,,,,,,,4,Slow,g,0,2.1377,2,2,10,2,1,,,,,
,1.22,,,,,,,,,f.PNG,f,6109a5154bfaad8f41606b51,2021-09-08_20h59.49.402,forced_choiceRT,2021.1.2,Win32,59.28385108,,,,,,,,4,Ontime,f,1,1.936099999,2,3,11,0,1,,,,,
,0.79,,,,,,,,,j.PNG,j,6109a5154bfaad8f41606b51,2021-09-08_20h59.49.402,forced_choiceRT,2021.1.2,Win32,59.28385108,,,,,,,,4,Fast,j,1,1.752400001,3,0,12,3,1,,,,,
,0.46,,,,,,,,,f.PNG,f,6109a5154bfaad8f41606b51,2021-09-08_20h59.49.402,forced_choiceRT,2021.1.2,Win32,59.28385108,,,,,,,,4,Ontime,f,1,1.9775,3,1,13,0,1,,,,,
,0.93,,,,,,,,,f.PNG,f,6109a5154bfaad8f41606b51,2021-09-08_20h59.49.402,forced_choiceRT,2021.1.2,Win32,59.28385108,,,,,,,,4,Ontime,f,1,2.0425,3,2,14,0,1,,,,,
,0.62,,,,,,,,,h.PNG,h,6109a5154bfaad8f41606b51,2021-09-08_20h59.49.402,forced_choiceRT,2021.1.2,Win32,59.28385108,,,,,,,,4,Ontime,h,1,2.0088,3,3,15,2,1,,,,,
,1.09,,,,,,,,,j.PNG,j,6109a5154bfaad8f41606b51,2021-09-08_20h59.49.402,forced_choiceRT,2021.1.2,Win32,59.28385108,,,,,,,,4,Slow,j,1,2.1005,4,0,16,3,1,,,,,
,0.87,,,,,,,,,f.PNG,f,6109a5154bfaad8f41606b51,2021-09-08_20h59.49.402,forced_choiceRT,2021.1.2,Win32,59.28385108,,,,,,,,4,Ontime,f,1,1.990799999,4,1,17,0,1,,,,,
,1.17,,,,,,,,,g.PNG,g,6109a5154bfaad8f41606b51,2021-09-08_20h59.49.402,forced_choiceRT,2021.1.2,Win32,59.28385108,,,,,,,,4,Ontime,g,1,2.032,4,2,18,1,1,,,,,
,0.11,,,,,,,,,f.PNG,f,6109a5154bfaad8f41606b51,2021-09-08_20h59.49.402,forced_choiceRT,2021.1.2,Win32,59.28385108,,,,,,,,4,Ontime,f,1,1.9228,4,3,19,0,1,,,,,
,1.54,,,,,,,,,h.PNG,h,6109a5154bfaad8f41606b51,2021-09-08_20h59.49.402,forced_choiceRT,2021.1.2,Win32,59.28385108,,,,,,,,4,Slow,h,1,2.194,5,0,20,2,1,,,,,
,1.74,,,,,,,,,h.PNG,h,6109a5154bfaad8f41606b51,2021-09-08_20h59.49.402,forced_choiceRT,2021.1.2,Win32,59.28385108,,,,,,,,4,Slow,h,1,2.2317,5,1,21,2,1,,,,,
,1.05,,,,,,,,,f.PNG,f,6109a5154bfaad8f41606b51,2021-09-08_20h59.49.402,forced_choiceRT,2021.1.2,Win32,59.28385108,,,,,,,,4,Ontime,f,1,1.9741,5,2,22,0,1,,,,,
,0.62,,,,,,,,,f.PNG,f,6109a5154bfaad8f41606b51,2021-09-08_20h59.49.402,forced_choiceRT,2021.1.2,Win32,59.28385108,,,,,,,,4,Fast,f,1,1.8927,5,3,23,0,1,,,,,
,1.8,,,,,,,,,f.PNG,f,6109a5154bfaad8f41606b51,2021-09-08_20h59.49.402,forced_choiceRT,2021.1.2,Win32,59.28385108,,,,,,,,4,Slow,f,1,2.1757,6,0,24,0,1,,,,,
,0.92,,,,,,,,,g.PNG,g,6109a5154bfaad8f41606b51,2021-09-08_20h59.49.402,forced_choiceRT,2021.1.2,Win32,59.28385108,,,,,,,,4,Fast,g,1,1.5878,6,1,25,1,1,,,,,
,1.28,,,,,,,,,j.PNG,j,6109a5154bfaad8f41606b51,2021-09-08_20h59.49.402,forced_choiceRT,2021.1.2,Win32,59.28385108,,,,,,,,4,Ontime,j,1,2.0386,6,2,26,3,1,,,,,
,0.28,,,,,,,,,j.PNG,j,6109a5154bfaad8f41606b51,2021-09-08_20h59.49.402,forced_choiceRT,2021.1.2,Win32,59.28385108,,,,,,,,4,Fast,j,1,1.877900001,6,3,27,3,1,,,,,
,1.78,,,,,,,,,j.PNG,j,6109a5154bfaad8f41606b51,2021-09-08_20h59.49.402,forced_choiceRT,2021.1.2,Win32,59.28385108,,,,,,,,4,Slow,j,1,2.2046,7,0,28,3,1,,,,,
,0.12,,,,,,,,,g.PNG,g,6109a5154bfaad8f41606b51,2021-09-08_20h59.49.402,forced_choiceRT,2021.1.2,Win32,59.28385108,,,,,,,,4,Ontime,g,1,2.0635,7,1,29,1,1,,,,,
,1.67,,,,,,,,,j.PNG,j,6109a5154bfaad8f41606b51,2021-09-08_20h59.49.402,forced_choiceRT,2021.1.2,Win32,59.28385108,,,,,,,,4,Ontime,g,0,2.075,7,2,30,3,1,,,,,
,1.27,,,,,,,,,h.PNG,h,6109a5154bfaad8f41606b51,2021-09-08_20h59.49.402,forced_choiceRT,2021.1.2,Win32,59.28385108,,,,,,,,4,Ontime,h,1,1.994900001,7,3,31,2,1,,,,,
,1.22,,,,,,,,,g.PNG,g,6109a5154bfaad8f41606b51,2021-09-08_20h59.49.402,forced_choiceRT,2021.1.2,Win32,59.28385108,,,,,,,,4,Fast,g,1,1.878,8,0,32,1,1,,,,,
,0.01,,,,,,,,,g.PNG,g,6109a5154bfaad8f41606b51,2021-09-08_20h59.49.402,forced_choiceRT,2021.1.2,Win32,59.28385108,,,,,,,,4,Ontime,g,1,1.943400001,8,1,33,1,1,,,,,
,0.86,,,,,,,,,g.PNG,g,6109a5154bfaad8f41606b51,2021-09-08_20h59.49.402,forced_choiceRT,2021.1.2,Win32,59.28385108,,,,,,,,4,Ontime,g,1,2.028400001,8,2,34,1,1,,,,,
,0.18,,,,,,,,,j.PNG,j,6109a5154bfaad8f41606b51,2021-09-08_20h59.49.402,forced_choiceRT,2021.1.2,Win32,59.28385108,,,,,,,,4,Fast,j,1,1.887099999,8,3,35,3,1,,,,,
,1.27,,,,,,,,,g.PNG,g,6109a5154bfaad8f41606b51,2021-09-08_20h59.49.402,forced_choiceRT,2021.1.2,Win32,59.28385108,,,,,,,,4,Ontime,g,1,2.0462,9,0,36,1,1,,,,,
,1.04,,,,,,,,,h.PNG,h,6109a5154bfaad8f41606b51,2021-09-08_20h59.49.402,forced_choiceRT,2021.1.2,Win32,59.28385108,,,,,,,,4,Ontime,h,1,2.0439,9,1,37,2,1,,,,,
,0.98,,,,,,,,,h.PNG,h,6109a5154bfaad8f41606b51,2021-09-08_20h59.49.402,forced_choiceRT,2021.1.2,Win32,59.28385108,,,,,,,,4,Fast,h,1,1.662799999,9,2,38,2,1,,,,,
,0.13,,,,,,,,,j.PNG,j,6109a5154bfaad8f41606b51,2021-09-08_20h59.49.402,forced_choiceRT,2021.1.2,Win32,59.28385108,,,,,,,,4,Ontime,j,1,2.0713,9,3,39,3,1,,,,,
,,,,,,,,,,,,6109a5154bfaad8f41606b51,2021-09-08_20h59.49.402,forced_choiceRT,2021.1.2,Win32,59.28385108,,,,,,,,,,,,,,,,,,3,0,3,0,1
,1.56,,,,,,,,,f.PNG,f,6109a5154bfaad8f41606b51,2021-09-08_20h59.49.402,forced_choiceRT,2021.1.2,Win32,59.28385108,,,,,,,,5,Ontime,f,1,2.0669,0,0,0,0,1,,,,,
,0.98,,,,,,,,,h.PNG,h,6109a5154bfaad8f41606b51,2021-09-08_20h59.49.402,forced_choiceRT,2021.1.2,Win32,59.28385108,,,,,,,,5,Fast,h,1,1.6043,0,1,1,2,1,,,,,
,0.65,,,,,,,,,h.PNG,h,6109a5154bfaad8f41606b51,2021-09-08_20h59.49.402,forced_choiceRT,2021.1.2,Win32,59.28385108,,,,,,,,5,Ontime,h,1,2.0101,0,2,2,2,1,,,,,
,0.05,,,,,,,,,h.PNG,h,6109a5154bfaad8f41606b51,2021-09-08_20h59.49.402,forced_choiceRT,2021.1.2,Win32,59.28385108,,,,,,,,5,Ontime,h,1,2.0481,0,3,3,2,1,,,,,
,0.06,,,,,,,,,f.PNG,f,6109a5154bfaad8f41606b51,2021-09-08_20h59.49.402,forced_choiceRT,2021.1.2,Win32,59.28385108,,,,,,,,5,Ontime,f,1,1.912,1,0,4,0,1,,,,,
,1.44,,,,,,,,,f.PNG,f,6109a5154bfaad8f41606b51,2021-09-08_20h59.49.402,forced_choiceRT,2021.1.2,Win32,59.28385108,,,,,,,,5,Slow,f,1,2.1181,1,1,5,0,1,,,,,
,0.6,,,,,,,,,j.PNG,j,6109a5154bfaad8f41606b51,2021-09-08_20h59.49.402,forced_choiceRT,2021.1.2,Win32,59.28385108,,,,,,,,5,Ontime,j,1,1.9999,1,2,6,3,1,,,,,
,1.89,,,,,,,,,h.PNG,h,6109a5154bfaad8f41606b51,2021-09-08_20h59.49.402,forced_choiceRT,2021.1.2,Win32,59.28385108,,,,,,,,5,Slow,g,0,2.3488,1,3,7,2,1,,,,,
,1.61,,,,,,,,,f.PNG,f,6109a5154bfaad8f41606b51,2021-09-08_20h59.49.402,forced_choiceRT,2021.1.2,Win32,59.28385108,,,,,,,,5,Ontime,h,0,2.0275,2,0,8,0,1,,,,,
,1.82,,,,,,,,,h.PNG,h,6109a5154bfaad8f41606b51,2021-09-08_20h59.49.402,forced_choiceRT,2021.1.2,Win32,59.28385108,,,,,,,,5,Slow,j,0,2.3401,2,1,9,2,1,,,,,
,0.52,,,,,,,,,g.PNG,g,6109a5154bfaad8f41606b51,2021-09-08_20h59.49.402,forced_choiceRT,2021.1.2,Win32,59.28385108,,,,,,,,5,Ontime,g,1,1.912,2,2,10,1,1,,,,,
,1.8,,,,,,,,,j.PNG,j,6109a5154bfaad8f41606b51,2021-09-08_20h59.49.402,forced_choiceRT,2021.1.2,Win32,59.28385108,,,,,,,,5,Slow,g,0,2.2573,2,3,11,3,1,,,,,
,1.3,,,,,,,,,h.PNG,h,6109a5154bfaad8f41606b51,2021-09-08_20h59.49.402,forced_choiceRT,2021.1.2,Win32,59.28385108,,,,,,,,5,Ontime,h,1,2.0294,3,0,12,2,1,,,,,
,0.03,,,,,,,,,j.PNG,j,6109a5154bfaad8f41606b51,2021-09-08_20h59.49.402,forced_choiceRT,2021.1.2,Win32,59.28385108,,,,,,,,5,Ontime,j,1,1.942700001,3,1,13,3,1,,,,,
,1.07,,,,,,,,,g.PNG,g,6109a5154bfaad8f41606b51,2021-09-08_20h59.49.402,forced_choiceRT,2021.1.2,Win32,59.28385108,,,,,,,,5,Ontime,g,1,1.9114,3,2,14,1,1,,,,,
,0.8,,,,,,,,,j.PNG,j,6109a5154bfaad8f41606b51,2021-09-08_20h59.49.402,forced_choiceRT,2021.1.2,Win32,59.28385108,,,,,,,,5,Ontime,j,1,1.9441,3,3,15,3,1,,,,,
,1.08,,,,,,,,,h.PNG,h,6109a5154bfaad8f41606b51,2021-09-08_20h59.49.402,forced_choiceRT,2021.1.2,Win32,59.28385108,,,,,,,,5,Fast,h,1,1.8079,4,0,16,2,1,,,,,
,1.95,,,,,,,,,g.PNG,g,6109a5154bfaad8f41606b51,2021-09-08_20h59.49.402,forced_choiceRT,2021.1.2,Win32,59.28385108,,,,,,,,5,Slow,j,0,2.312900001,4,1,17,1,1,,,,,
,1.52,,,,,,,,,g.PNG,g,6109a5154bfaad8f41606b51,2021-09-08_20h59.49.402,forced_choiceRT,2021.1.2,Win32,59.28385108,,,,,,,,5,Ontime,g,1,1.9615,4,2,18,1,1,,,,,
,0.64,,,,,,,,,j.PNG,j,6109a5154bfaad8f41606b51,2021-09-08_20h59.49.402,forced_choiceRT,2021.1.2,Win32,59.28385108,,,,,,,,5,Ontime,j,1,1.982099999,4,3,19,3,1,,,,,
,1.75,,,,,,,,,j.PNG,j,6109a5154bfaad8f41606b51,2021-09-08_20h59.49.402,forced_choiceRT,2021.1.2,Win32,59.28385108,,,,,,,,5,Slow,j,1,2.1888,5,0,20,3,1,,,,,
,0.29,,,,,,,,,j.PNG,j,6109a5154bfaad8f41606b51,2021-09-08_20h59.49.402,forced_choiceRT,2021.1.2,Win32,59.28385108,,,,,,,,5,Ontime,j,1,1.9572,5,1,21,3,1,,,,,
,0.98,,,,,,,,,f.PNG,f,6109a5154bfaad8f41606b51,2021-09-08_20h59.49.402,forced_choiceRT,2021.1.2,Win32,59.28385108,,,,,,,,5,Fast,f,1,1.5979,5,2,22,0,1,,,,,
,1.1,,,,,,,,,f.PNG,f,6109a5154bfaad8f41606b51,2021-09-08_20h59.49.402,forced_choiceRT,2021.1.2,Win32,59.28385108,,,,,,,,5,Ontime,f,1,1.9615,5,3,23,0,1,,,,,
,1.92,,,,,,,,,j.PNG,j,6109a5154bfaad8f41606b51,2021-09-08_20h59.49.402,forced_choiceRT,2021.1.2,Win32,59.28385108,,,,,,,,5,Slow,f,0,2.1896,6,0,24,3,1,,,,,
,0.02,,,,,,,,,f.PNG,f,6109a5154bfaad8f41606b51,2021-09-08_20h59.49.402,forced_choiceRT,2021.1.2,Win32,59.28385108,,,,,,,,5,Ontime,f,1,1.9286,6,1,25,0,1,,,,,
,0.65,,,,,,,,,h.PNG,h,6109a5154bfaad8f41606b51,2021-09-08_20h59.49.402,forced_choiceRT,2021.1.2,Win32,59.28385108,,,,,,,,5,Ontime,h,1,1.9581,6,2,26,2,1,,,,,
,1.01,,,,,,,,,f.PNG,f,6109a5154bfaad8f41606b51,2021-09-08_20h59.49.402,forced_choiceRT,2021.1.2,Win32,59.28385108,,,,,,,,5,Ontime,f,1,1.9461,6,3,27,0,1,,,,,
,1.55,,,,,,,,,h.PNG,h,6109a5154bfaad8f41606b51,2021-09-08_20h59.49.402,forced_choiceRT,2021.1.2,Win32,59.28385108,,,,,,,,5,Ontime,j,0,2.0496,7,0,28,2,1,,,,,
,0.97,,,,,,,,,j.PNG,j,6109a5154bfaad8f41606b51,2021-09-08_20h59.49.402,forced_choiceRT,2021.1.2,Win32,59.28385108,,,,,,,,5,Ontime,j,1,1.979,7,1,29,3,1,,,,,
,1.32,,,,,,,,,f.PNG,f,6109a5154bfaad8f41606b51,2021-09-08_20h59.49.402,forced_choiceRT,2021.1.2,Win32,59.28385108,,,,,,,,5,Ontime,f,1,2.0129,7,2,30,0,1,,,,,
,1.73,,,,,,,,,f.PNG,f,6109a5154bfaad8f41606b51,2021-09-08_20h59.49.402,forced_choiceRT,2021.1.2,Win32,59.28385108,,,,,,,,5,Slow,f,1,2.24,7,3,31,0,1,,,,,
,1.2,,,,,,,,,g.PNG,g,6109a5154bfaad8f41606b51,2021-09-08_20h59.49.402,forced_choiceRT,2021.1.2,Win32,59.28385108,,,,,,,,5,Ontime,h,0,1.9268,8,0,32,1,1,,,,,
,1.48,,,,,,,,,g.PNG,g,6109a5154bfaad8f41606b51,2021-09-08_20h59.49.402,forced_choiceRT,2021.1.2,Win32,59.28385108,,,,,,,,5,Ontime,g,1,1.9786,8,1,33,1,1,,,,,
,0.64,,,,,,,,,g.PNG,g,6109a5154bfaad8f41606b51,2021-09-08_20h59.49.402,forced_choiceRT,2021.1.2,Win32,59.28385108,,,,,,,,5,Fast,g,1,1.7764,8,2,34,1,1,,,,,
,1.73,,,,,,,,,g.PNG,g,6109a5154bfaad8f41606b51,2021-09-08_20h59.49.402,forced_choiceRT,2021.1.2,Win32,59.28385108,,,,,,,,5,Slow,g,1,2.1472,8,3,35,1,1,,,,,
,1.55,,,,,,,,,g.PNG,g,6109a5154bfaad8f41606b51,2021-09-08_20h59.49.402,forced_choiceRT,2021.1.2,Win32,59.28385108,,,,,,,,5,Ontime,g,1,1.9111,9,0,36,1,1,,,,,
,1.75,,,,,,,,,h.PNG,h,6109a5154bfaad8f41606b51,2021-09-08_20h59.49.402,forced_choiceRT,2021.1.2,Win32,59.28385108,,,,,,,,5,Ontime,g,0,1.9623,9,1,37,2,1,,,,,
,0.92,,,,,,,,,g.PNG,g,6109a5154bfaad8f41606b51,2021-09-08_20h59.49.402,forced_choiceRT,2021.1.2,Win32,59.28385108,,,,,,,,5,Ontime,g,1,1.9306,9,2,38,1,1,,,,,
,0.84,,,,,,,,,j.PNG,j,6109a5154bfaad8f41606b51,2021-09-08_20h59.49.402,forced_choiceRT,2021.1.2,Win32,59.28385108,,,,,,,,5,Fast,j,1,1.8913,9,3,39,3,1,,,,,
,,,,,,,,,,,,6109a5154bfaad8f41606b51,2021-09-08_20h59.49.402,forced_choiceRT,2021.1.2,Win32,59.28385108,,,,,,,,,,,,,,,,,,4,0,4,0,1
,1.35,,,,,,,,,g.PNG,g,6109a5154bfaad8f41606b51,2021-09-08_20h59.49.402,forced_choiceRT,2021.1.2,Win32,59.28385108,,,,,,,,6,Ontime,g,1,1.972700001,0,0,0,1,1,,,,,
,1.32,,,,,,,,,j.PNG,j,6109a5154bfaad8f41606b51,2021-09-08_20h59.49.402,forced_choiceRT,2021.1.2,Win32,59.28385108,,,,,,,,6,Fast,g,0,1.7298,0,1,1,3,1,,,,,
,0.87,,,,,,,,,h.PNG,h,6109a5154bfaad8f41606b51,2021-09-08_20h59.49.402,forced_choiceRT,2021.1.2,Win32,59.28385108,,,,,,,,6,Fast,h,1,1.696200001,0,2,2,2,1,,,,,
,1.18,,,,,,,,,j.PNG,j,6109a5154bfaad8f41606b51,2021-09-08_20h59.49.402,forced_choiceRT,2021.1.2,Win32,59.28385108,,,,,,,,6,Ontime,j,1,1.945700001,0,3,3,3,1,,,,,
,1.96,,,,,,,,,g.PNG,g,6109a5154bfaad8f41606b51,2021-09-08_20h59.49.402,forced_choiceRT,2021.1.2,Win32,59.28385108,,,,,,,,6,Slow,j,0,2.243299999,1,0,4,1,1,,,,,
,0.07,,,,,,,,,g.PNG,g,6109a5154bfaad8f41606b51,2021-09-08_20h59.49.402,forced_choiceRT,2021.1.2,Win32,59.28385108,,,,,,,,6,Ontime,g,1,2.010799999,1,1,5,1,1,,,,,
,1.14,,,,,,,,,f.PNG,f,6109a5154bfaad8f41606b51,2021-09-08_20h59.49.402,forced_choiceRT,2021.1.2,Win32,59.28385108,,,,,,,,6,Ontime,f,1,1.9237,1,2,6,0,1,,,,,
,0.85,,,,,,,,,h.PNG,h,6109a5154bfaad8f41606b51,2021-09-08_20h59.49.402,forced_choiceRT,2021.1.2,Win32,59.28385108,,,,,,,,6,Fast,h,1,1.6611,1,3,7,2,1,,,,,
,0.28,,,,,,,,,f.PNG,f,6109a5154bfaad8f41606b51,2021-09-08_20h59.49.402,forced_choiceRT,2021.1.2,Win32,59.28385108,,,,,,,,6,Ontime,f,1,2.041700001,2,0,8,0,1,,,,,
,1.61,,,,,,,,,g.PNG,g,6109a5154bfaad8f41606b51,2021-09-08_20h59.49.402,forced_choiceRT,2021.1.2,Win32,59.28385108,,,,,,,,6,Slow,g,1,2.1155,2,1,9,1,1,,,,,
,0.04,,,,,,,,,j.PNG,j,6109a5154bfaad8f41606b51,2021-09-08_20h59.49.402,forced_choiceRT,2021.1.2,Win32,59.28385108,,,,,,,,6,Ontime,j,1,1.9973,2,2,10,3,1,,,,,
,1.45,,,,,,,,,j.PNG,j,6109a5154bfaad8f41606b51,2021-09-08_20h59.49.402,forced_choiceRT,2021.1.2,Win32,59.28385108,,,,,,,,6,Ontime,j,1,1.9929,2,3,11,3,1,,,,,
,1.12,,,,,,,,,f.PNG,f,6109a5154bfaad8f41606b51,2021-09-08_20h59.49.402,forced_choiceRT,2021.1.2,Win32,59.28385108,,,,,,,,6,Ontime,f,1,1.9858,3,0,12,0,1,,,,,
,0.61,,,,,,,,,h.PNG,h,6109a5154bfaad8f41606b51,2021-09-08_20h59.49.402,forced_choiceRT,2021.1.2,Win32,59.28385108,,,,,,,,6,Ontime,h,1,1.9117,3,1,13,2,1,,,,,
,0.14,,,,,,,,,f.PNG,f,6109a5154bfaad8f41606b51,2021-09-08_20h59.49.402,forced_choiceRT,2021.1.2,Win32,59.28385108,,,,,,,,6,Ontime,f,1,1.9788,3,2,14,0,1,,,,,
,0.74,,,,,,,,,j.PNG,j,6109a5154bfaad8f41606b51,2021-09-08_20h59.49.402,forced_choiceRT,2021.1.2,Win32,59.28385108,,,,,,,,6,Ontime,j,1,1.9902,3,3,15,3,1,,,,,
,1.54,,,,,,,,,j.PNG,j,6109a5154bfaad8f41606b51,2021-09-08_20h59.49.402,forced_choiceRT,2021.1.2,Win32,59.28385108,,,,,,,,6,Ontime,h,0,1.9508,4,0,16,3,1,,,,,
,1.54,,,,,,,,,h.PNG,h,6109a5154bfaad8f41606b51,2021-09-08_20h59.49.402,forced_choiceRT,2021.1.2,Win32,59.28385108,,,,,,,,6,Ontime,f,0,1.929,4,1,17,2,1,,,,,
,0.47,,,,,,,,,j.PNG,j,6109a5154bfaad8f41606b51,2021-09-08_20h59.49.402,forced_choiceRT,2021.1.2,Win32,59.28385108,,,,,,,,6,Ontime,j,1,1.9617,4,2,18,3,1,,,,,
,1.37,,,,,,,,,h.PNG,h,6109a5154bfaad8f41606b51,2021-09-08_20h59.49.402,forced_choiceRT,2021.1.2,Win32,59.28385108,,,,,,,,6,Ontime,h,1,2.0073,4,3,19,2,1,,,,,
,1.33,,,,,,,,,f.PNG,f,6109a5154bfaad8f41606b51,2021-09-08_20h59.49.402,forced_choiceRT,2021.1.2,Win32,59.28385108,,,,,,,,6,Ontime,f,1,1.9935,5,0,20,0,1,,,,,
,1.94,,,,,,,,,j.PNG,j,6109a5154bfaad8f41606b51,2021-09-08_20h59.49.402,forced_choiceRT,2021.1.2,Win32,59.28385108,,,,,,,,6,Slow,j,1,2.3237,5,1,21,3,1,,,,,
,0.01,,,,,,,,,f.PNG,f,6109a5154bfaad8f41606b51,2021-09-08_20h59.49.402,forced_choiceRT,2021.1.2,Win32,59.28385108,,,,,,,,6,Ontime,f,1,1.9775,5,2,22,0,1,,,,,
,1.1,,,,,,,,,j.PNG,j,6109a5154bfaad8f41606b51,2021-09-08_20h59.49.402,forced_choiceRT,2021.1.2,Win32,59.28385108,,,,,,,,6,Ontime,j,1,2.0012,5,3,23,3,1,,,,,
,0.21,,,,,,,,,h.PNG,h,6109a5154bfaad8f41606b51,2021-09-08_20h59.49.402,forced_choiceRT,2021.1.2,Win32,59.28385108,,,,,,,,6,Ontime,h,1,1.9519,6,0,24,2,1,,,,,
,0.61,,,,,,,,,h.PNG,h,6109a5154bfaad8f41606b51,2021-09-08_20h59.49.402,forced_choiceRT,2021.1.2,Win32,59.28385108,,,,,,,,6,Ontime,h,1,1.9624,6,1,25,2,1,,,,,
,1.76,,,,,,,,,g.PNG,g,6109a5154bfaad8f41606b51,2021-09-08_20h59.49.402,forced_choiceRT,2021.1.2,Win32,59.28385108,,,,,,,,6,Ontime,h,0,2.0758,6,2,26,1,1,,,,,
,0.72,,,,,,,,,h.PNG,h,6109a5154bfaad8f41606b51,2021-09-08_20h59.49.402,forced_choiceRT,2021.1.2,Win32,59.28385108,,,,,,,,6,Ontime,h,1,1.98,6,3,27,2,1,,,,,
,0.75,,,,,,,,,f.PNG,f,6109a5154bfaad8f41606b51,2021-09-08_20h59.49.402,forced_choiceRT,2021.1.2,Win32,59.28385108,,,,,,,,6,Ontime,f,1,1.9292,7,0,28,0,1,,,,,
,1.89,,,,,,,,,g.PNG,g,6109a5154bfaad8f41606b51,2021-09-08_20h59.49.402,forced_choiceRT,2021.1.2,Win32,59.28385108,,,,,,,,6,Slow,f,0,2.144099999,7,1,29,1,1,,,,,
,0.93,,,,,,,,,g.PNG,g,6109a5154bfaad8f41606b51,2021-09-08_20h59.49.402,forced_choiceRT,2021.1.2,Win32,59.28385108,,,,,,,,6,Ontime,g,1,1.9097,7,2,30,1,1,,,,,
,0.32,,,,,,,,,g.PNG,g,6109a5154bfaad8f41606b51,2021-09-08_20h59.49.402,forced_choiceRT,2021.1.2,Win32,59.28385108,,,,,,,,6,Ontime,g,1,1.915200001,7,3,31,1,1,,,,,
,0.32,,,,,,,,,f.PNG,f,6109a5154bfaad8f41606b51,2021-09-08_20h59.49.402,forced_choiceRT,2021.1.2,Win32,59.28385108,,,,,,,,6,Ontime,f,1,2.0065,8,0,32,0,1,,,,,
,1.02,,,,,,,,,h.PNG,h,6109a5154bfaad8f41606b51,2021-09-08_20h59.49.402,forced_choiceRT,2021.1.2,Win32,59.28385108,,,,,,,,6,Ontime,h,1,1.9912,8,1,33,2,1,,,,,
,1.06,,,,,,,,,j.PNG,j,6109a5154bfaad8f41606b51,2021-09-08_20h59.49.402,forced_choiceRT,2021.1.2,Win32,59.28385108,,,,,,,,6,Ontime,j,1,1.923,8,2,34,3,1,,,,,
,1.85,,,,,,,,,h.PNG,h,6109a5154bfaad8f41606b51,2021-09-08_20h59.49.402,forced_choiceRT,2021.1.2,Win32,59.28385108,,,,,,,,6,Slow,h,1,2.1082,8,3,35,2,1,,,,,
,1.36,,,,,,,,,f.PNG,f,6109a5154bfaad8f41606b51,2021-09-08_20h59.49.402,forced_choiceRT,2021.1.2,Win32,59.28385108,,,,,,,,6,Fast,h,0,1.723,9,0,36,0,1,,,,,
,1.51,,,,,,,,,g.PNG,g,6109a5154bfaad8f41606b51,2021-09-08_20h59.49.402,forced_choiceRT,2021.1.2,Win32,59.28385108,,,,,,,,6,Ontime,g,1,2.0451,9,1,37,1,1,,,,,
,1.67,,,,,,,,,f.PNG,f,6109a5154bfaad8f41606b51,2021-09-08_20h59.49.402,forced_choiceRT,2021.1.2,Win32,59.28385108,,,,,,,,6,Ontime,g,0,1.9286,9,2,38,0,1,,,,,
,1.18,,,,,,,,,g.PNG,g,6109a5154bfaad8f41606b51,2021-09-08_20h59.49.402,forced_choiceRT,2021.1.2,Win32,59.28385108,,,,,,,,6,Fast,g,1,1.8644,9,3,39,1,1,,,,,
,,,,,,,,,,,,6109a5154bfaad8f41606b51,2021-09-08_20h59.49.402,forced_choiceRT,2021.1.2,Win32,59.28385108,,,,,,,,,,,,,,,,,,5,0,5,0,1
,1.58,,,,,,,,,h.PNG,h,6109a5154bfaad8f41606b51,2021-09-08_20h59.49.402,forced_choiceRT,2021.1.2,Win32,59.28385108,,,,,,,,7,Ontime,g,0,2.0321,0,0,0,2,1,,,,,
,0.16,,,,,,,,,h.PNG,h,6109a5154bfaad8f41606b51,2021-09-08_20h59.49.402,forced_choiceRT,2021.1.2,Win32,59.28385108,,,,,,,,7,Ontime,h,1,1.9453,0,1,1,2,1,,,,,
,0.39,,,,,,,,,j.PNG,j,6109a5154bfaad8f41606b51,2021-09-08_20h59.49.402,forced_choiceRT,2021.1.2,Win32,59.28385108,,,,,,,,7,Fast,j,1,1.7914,0,2,2,3,1,,,,,
,1.92,,,,,,,,,j.PNG,j,6109a5154bfaad8f41606b51,2021-09-08_20h59.49.402,forced_choiceRT,2021.1.2,Win32,59.28385108,,,,,,,,7,Slow,h,0,2.1726,0,3,3,3,1,,,,,
,1.64,,,,,,,,,h.PNG,h,6109a5154bfaad8f41606b51,2021-09-08_20h59.49.402,forced_choiceRT,2021.1.2,Win32,59.28385108,,,,,,,,7,Ontime,j,0,2.0782,1,0,4,2,1,,,,,
,0.36,,,,,,,,,g.PNG,g,6109a5154bfaad8f41606b51,2021-09-08_20h59.49.402,forced_choiceRT,2021.1.2,Win32,59.28385108,,,,,,,,7,Ontime,g,1,2.027299999,1,1,5,1,1,,,,,
,1.43,,,,,,,,,f.PNG,f,6109a5154bfaad8f41606b51,2021-09-08_20h59.49.402,forced_choiceRT,2021.1.2,Win32,59.28385108,,,,,,,,7,Ontime,f,1,1.9913,1,2,6,0,1,,,,,
,1.02,,,,,,,,,h.PNG,h,6109a5154bfaad8f41606b51,2021-09-08_20h59.49.402,forced_choiceRT,2021.1.2,Win32,59.28385108,,,,,,,,7,Fast,h,1,1.8568,1,3,7,2,1,,,,,
,0.01,,,,,,,,,g.PNG,g,6109a5154bfaad8f41606b51,2021-09-08_20h59.49.402,forced_choiceRT,2021.1.2,Win32,59.28385108,,,,,,,,7,Fast,g,1,1.8808,2,0,8,1,1,,,,,
,1.94,,,,,,,,,h.PNG,h,6109a5154bfaad8f41606b51,2021-09-08_20h59.49.402,forced_choiceRT,2021.1.2,Win32,59.28385108,,,,,,,,7,Ontime,g,0,1.943700001,2,1,9,2,1,,,,,
,0.01,,,,,,,,,f.PNG,f,6109a5154bfaad8f41606b51,2021-09-08_20h59.49.402,forced_choiceRT,2021.1.2,Win32,59.28385108,,,,,,,,7,Ontime,f,1,1.9427,2,2,10,0,1,,,,,
,1.84,,,,,,,,,j.PNG,j,6109a5154bfaad8f41606b51,2021-09-08_20h59.49.402,forced_choiceRT,2021.1.2,Win32,59.28385108,,,,,,,,7,Ontime,g,0,1.912,2,3,11,3,1,,,,,
,1,,,,,,,,,g.PNG,g,6109a5154bfaad8f41606b51,2021-09-08_20h59.49.402,forced_choiceRT,2021.1.2,Win32,59.28385108,,,,,,,,7,Fast,g,1,1.6915,3,0,12,1,1,,,,,
,0.26,,,,,,,,,h.PNG,h,6109a5154bfaad8f41606b51,2021-09-08_20h59.49.402,forced_choiceRT,2021.1.2,Win32,59.28385108,,,,,,,,7,Ontime,h,1,1.972299999,3,1,13,2,1,,,,,
,0.63,,,,,,,,,f.PNG,f,6109a5154bfaad8f41606b51,2021-09-08_20h59.49.402,forced_choiceRT,2021.1.2,Win32,59.28385108,,,,,,,,7,Fast,f,1,1.8431,3,2,14,0,1,,,,,
,1.89,,,,,,,,,h.PNG,h,6109a5154bfaad8f41606b51,2021-09-08_20h59.49.402,forced_choiceRT,2021.1.2,Win32,59.28385108,,,,,,,,7,Ontime,j,0,2.013200001,3,3,15,2,1,,,,,
,0.85,,,,,,,,,g.PNG,g,6109a5154bfaad8f41606b51,2021-09-08_20h59.49.402,forced_choiceRT,2021.1.2,Win32,59.28385108,,,,,,,,7,Fast,g,1,1.721599999,4,0,16,1,1,,,,,
,0.9,,,,,,,,,g.PNG,g,6109a5154bfaad8f41606b51,2021-09-08_20h59.49.402,forced_choiceRT,2021.1.2,Win32,59.28385108,,,,,,,,7,Ontime,g,1,1.9444,4,1,17,1,1,,,,,
,1.68,,,,,,,,,f.PNG,f,6109a5154bfaad8f41606b51,2021-09-08_20h59.49.402,forced_choiceRT,2021.1.2,Win32,59.28385108,,,,,,,,7,Ontime,g,0,1.963400001,4,2,18,0,1,,,,,
,0.46,,,,,,,,,h.PNG,h,6109a5154bfaad8f41606b51,2021-09-08_20h59.49.402,forced_choiceRT,2021.1.2,Win32,59.28385108,,,,,,,,7,Ontime,h,1,2.061400001,4,3,19,2,1,,,,,
,0.32,,,,,,,,,j.PNG,j,6109a5154bfaad8f41606b51,2021-09-08_20h59.49.402,forced_choiceRT,2021.1.2,Win32,59.28385108,,,,,,,,7,Ontime,j,1,2.016,5,0,20,3,1,,,,,
,1.63,,,,,,,,,f.PNG,f,6109a5154bfaad8f41606b51,2021-09-08_20h59.49.402,forced_choiceRT,2021.1.2,Win32,59.28385108,,,,,,,,7,Ontime,j,0,1.976700001,5,1,21,0,1,,,,,
,0.56,,,,,,,,,f.PNG,f,6109a5154bfaad8f41606b51,2021-09-08_20h59.49.402,forced_choiceRT,2021.1.2,Win32,59.28385108,,,,,,,,7,Ontime,f,1,1.948,5,2,22,0,1,,,,,
,0.55,,,,,,,,,f.PNG,f,6109a5154bfaad8f41606b51,2021-09-08_20h59.49.402,forced_choiceRT,2021.1.2,Win32,59.28385108,,,,,,,,7,Ontime,f,1,1.930200001,5,3,23,0,1,,,,,
,1.25,,,,,,,,,h.PNG,h,6109a5154bfaad8f41606b51,2021-09-08_20h59.49.402,forced_choiceRT,2021.1.2,Win32,59.28385108,,,,,,,,7,Ontime,g,0,1.9268,6,0,24,2,1,,,,,
,0.74,,,,,,,,,g.PNG,g,6109a5154bfaad8f41606b51,2021-09-08_20h59.49.402,forced_choiceRT,2021.1.2,Win32,59.28385108,,,,,,,,7,Ontime,g,1,1.9117,6,1,25,1,1,,,,,
,1.31,,,,,,,,,j.PNG,j,6109a5154bfaad8f41606b51,2021-09-08_20h59.49.402,forced_choiceRT,2021.1.2,Win32,59.28385108,,,,,,,,7,Slow,j,1,2.1441,6,2,26,3,1,,,,,
,0.91,,,,,,,,,j.PNG,j,6109a5154bfaad8f41606b51,2021-09-08_20h59.49.402,forced_choiceRT,2021.1.2,Win32,59.28385108,,,,,,,,7,Ontime,j,1,1.9229,6,3,27,3,1,,,,,
,0.95,,,,,,,,,j.PNG,j,6109a5154bfaad8f41606b51,2021-09-08_20h59.49.402,forced_choiceRT,2021.1.2,Win32,59.28385108,,,,,,,,7,Fast,j,1,1.8314,7,0,28,3,1,,,,,
,1.49,,,,,,,,,j.PNG,j,6109a5154bfaad8f41606b51,2021-09-08_20h59.49.402,forced_choiceRT,2021.1.2,Win32,59.28385108,,,,,,,,7,Ontime,j,1,1.9308,7,1,29,3,1,,,,,
,0.65,,,,,,,,,h.PNG,h,6109a5154bfaad8f41606b51,2021-09-08_20h59.49.402,forced_choiceRT,2021.1.2,Win32,59.28385108,,,,,,,,7,Ontime,h,1,1.914,7,2,30,2,1,,,,,
,0.43,,,,,,,,,f.PNG,f,6109a5154bfaad8f41606b51,2021-09-08_20h59.49.402,forced_choiceRT,2021.1.2,Win32,59.28385108,,,,,,,,7,Ontime,f,1,2.0439,7,3,31,0,1,,,,,
,1.26,,,,,,,,,f.PNG,f,6109a5154bfaad8f41606b51,2021-09-08_20h59.49.402,forced_choiceRT,2021.1.2,Win32,59.28385108,,,,,,,,7,Ontime,f,1,1.943200001,8,0,32,0,1,,,,,
,0.02,,,,,,,,,g.PNG,g,6109a5154bfaad8f41606b51,2021-09-08_20h59.49.402,forced_choiceRT,2021.1.2,Win32,59.28385108,,,,,,,,7,Ontime,g,1,2.0131,8,1,33,1,1,,,,,
,0.37,,,,,,,,,g.PNG,g,6109a5154bfaad8f41606b51,2021-09-08_20h59.49.402,forced_choiceRT,2021.1.2,Win32,59.28385108,,,,,,,,7,Ontime,g,1,1.981200001,8,2,34,1,1,,,,,
,0.37,,,,,,,,,j.PNG,j,6109a5154bfaad8f41606b51,2021-09-08_20h59.49.402,forced_choiceRT,2021.1.2,Win32,59.28385108,,,,,,,,7,Ontime,j,1,1.994,8,3,35,3,1,,,,,
,1.11,,,,,,,,,j.PNG,j,6109a5154bfaad8f41606b51,2021-09-08_20h59.49.402,forced_choiceRT,2021.1.2,Win32,59.28385108,,,,,,,,7,Fast,j,1,1.75,9,0,36,3,1,,,,,
,0.79,,,,,,,,,f.PNG,f,6109a5154bfaad8f41606b51,2021-09-08_20h59.49.402,forced_choiceRT,2021.1.2,Win32,59.28385108,,,,,,,,7,Fast,f,1,1.5133,9,1,37,0,1,,,,,
,0.87,,,,,,,,,g.PNG,g,6109a5154bfaad8f41606b51,2021-09-08_20h59.49.402,forced_choiceRT,2021.1.2,Win32,59.28385108,,,,,,,,7,Fast,g,1,1.6968,9,2,38,1,1,,,,,
,0.03,,,,,,,,,g.PNG,g,6109a5154bfaad8f41606b51,2021-09-08_20h59.49.402,forced_choiceRT,2021.1.2,Win32,59.28385108,,,,,,,,7,Ontime,g,1,1.9782,9,3,39,1,1,,,,,
,,,,,,,,,,,,6109a5154bfaad8f41606b51,2021-09-08_20h59.49.402,forced_choiceRT,2021.1.2,Win32,59.28385108,,,,,,,,,,,,,,,,,,6,0,6,0,1
,0.65,,,,,,,,,h.PNG,h,6109a5154bfaad8f41606b51,2021-09-08_20h59.49.402,forced_choiceRT,2021.1.2,Win32,59.28385108,,,,,,,,8,Ontime,h,1,1.926,0,0,0,2,1,,,,,
,0.18,,,,,,,,,g.PNG,g,6109a5154bfaad8f41606b51,2021-09-08_20h59.49.402,forced_choiceRT,2021.1.2,Win32,59.28385108,,,,,,,,8,Ontime,g,1,2.0111,0,1,1,1,1,,,,,
,1.05,,,,,,,,,g.PNG,g,6109a5154bfaad8f41606b51,2021-09-08_20h59.49.402,forced_choiceRT,2021.1.2,Win32,59.28385108,,,,,,,,8,Ontime,g,1,1.912299999,0,2,2,1,1,,,,,
,1.84,,,,,,,,,f.PNG,f,6109a5154bfaad8f41606b51,2021-09-08_20h59.49.402,forced_choiceRT,2021.1.2,Win32,59.28385108,,,,,,,,8,Ontime,g,0,2.0118,0,3,3,0,1,,,,,
,0.96,,,,,,,,,f.PNG,f,6109a5154bfaad8f41606b51,2021-09-08_20h59.49.402,forced_choiceRT,2021.1.2,Win32,59.28385108,,,,,,,,8,Ontime,f,1,1.9303,1,0,4,0,1,,,,,
,1.56,,,,,,,,,f.PNG,f,6109a5154bfaad8f41606b51,2021-09-08_20h59.49.402,forced_choiceRT,2021.1.2,Win32,59.28385108,,,,,,,,8,Ontime,g,0,2.017599999,1,1,5,0,1,,,,,
,0.95,,,,,,,,,g.PNG,g,6109a5154bfaad8f41606b51,2021-09-08_20h59.49.402,forced_choiceRT,2021.1.2,Win32,59.28385108,,,,,,,,8,Ontime,g,1,1.942,1,2,6,1,1,,,,,
,1.67,,,,,,,,,g.PNG,g,6109a5154bfaad8f41606b51,2021-09-08_20h59.49.402,forced_choiceRT,2021.1.2,Win32,59.28385108,,,,,,,,8,Ontime,g,1,2.057599999,1,3,7,1,1,,,,,
,0.72,,,,,,,,,j.PNG,j,6109a5154bfaad8f41606b51,2021-09-08_20h59.49.402,forced_choiceRT,2021.1.2,Win32,59.28385108,,,,,,,,8,Ontime,j,1,1.9937,2,0,8,3,1,,,,,
,1.57,,,,,,,,,f.PNG,f,6109a5154bfaad8f41606b51,2021-09-08_20h59.49.402,forced_choiceRT,2021.1.2,Win32,59.28385108,,,,,,,,8,Slow,g,0,2.1403,2,1,9,0,1,,,,,
,0.76,,,,,,,,,j.PNG,j,6109a5154bfaad8f41606b51,2021-09-08_20h59.49.402,forced_choiceRT,2021.1.2,Win32,59.28385108,,,,,,,,8,Ontime,j,1,2.0588,2,2,10,3,1,,,,,
,0.54,,,,,,,,,g.PNG,g,6109a5154bfaad8f41606b51,2021-09-08_20h59.49.402,forced_choiceRT,2021.1.2,Win32,59.28385108,,,,,,,,8,Ontime,g,1,1.994,2,3,11,1,1,,,,,
,0.49,,,,,,,,,h.PNG,h,6109a5154bfaad8f41606b51,2021-09-08_20h59.49.402,forced_choiceRT,2021.1.2,Win32,59.28385108,,,,,,,,8,Ontime,h,1,1.9619,3,0,12,2,1,,,,,
,1.43,,,,,,,,,j.PNG,j,6109a5154bfaad8f41606b51,2021-09-08_20h59.49.402,forced_choiceRT,2021.1.2,Win32,59.28385108,,,,,,,,8,Ontime,j,1,2.0999,3,1,13,3,1,,,,,
,0.11,,,,,,,,,j.PNG,j,6109a5154bfaad8f41606b51,2021-09-08_20h59.49.402,forced_choiceRT,2021.1.2,Win32,59.28385108,,,,,,,,8,Ontime,j,1,2.0911,3,2,14,3,1,,,,,
,1.49,,,,,,,,,f.PNG,f,6109a5154bfaad8f41606b51,2021-09-08_20h59.49.402,forced_choiceRT,2021.1.2,Win32,59.28385108,,,,,,,,8,Ontime,f,1,2.023700001,3,3,15,0,1,,,,,
,0,,,,,,,,,f.PNG,f,6109a5154bfaad8f41606b51,2021-09-08_20h59.49.402,forced_choiceRT,2021.1.2,Win32,59.28385108,,,,,,,,8,Ontime,f,1,1.9264,4,0,16,0,1,,,,,
,1.24,,,,,,,,,g.PNG,g,6109a5154bfaad8f41606b51,2021-09-08_20h59.49.402,forced_choiceRT,2021.1.2,Win32,59.28385108,,,,,,,,8,Ontime,g,1,1.9935,4,1,17,1,1,,,,,
,1.98,,,,,,,,,h.PNG,h,6109a5154bfaad8f41606b51,2021-09-08_20h59.49.402,forced_choiceRT,2021.1.2,Win32,59.28385108,,,,,,,,8,Ontime,g,0,2.0005,4,2,18,2,1,,,,,
,0.29,,,,,,,,,g.PNG,g,6109a5154bfaad8f41606b51,2021-09-08_20h59.49.402,forced_choiceRT,2021.1.2,Win32,59.28385108,,,,,,,,8,Ontime,g,1,1.979,4,3,19,1,1,,,,,
,0.96,,,,,,,,,f.PNG,f,6109a5154bfaad8f41606b51,2021-09-08_20h59.49.402,forced_choiceRT,2021.1.2,Win32,59.28385108,,,,,,,,8,Fast,f,1,1.708,5,0,20,0,1,,,,,
,0.15,,,,,,,,,h.PNG,h,6109a5154bfaad8f41606b51,2021-09-08_20h59.49.402,forced_choiceRT,2021.1.2,Win32,59.28385108,,,,,,,,8,Ontime,h,1,1.9861,5,1,21,2,1,,,,,
,0.36,,,,,,,,,h.PNG,h,6109a5154bfaad8f41606b51,2021-09-08_20h59.49.402,forced_choiceRT,2021.1.2,Win32,59.28385108,,,,,,,,8,Ontime,h,1,1.9422,5,2,22,2,1,,,,,
,1.14,,,,,,,,,j.PNG,j,6109a5154bfaad8f41606b51,2021-09-08_20h59.49.402,forced_choiceRT,2021.1.2,Win32,59.28385108,,,,,,,,8,Ontime,j,1,2.0659,5,3,23,3,1,,,,,
,0.23,,,,,,,,,h.PNG,h,6109a5154bfaad8f41606b51,2021-09-08_20h59.49.402,forced_choiceRT,2021.1.2,Win32,59.28385108,,,,,,,,8,Ontime,h,1,1.9943,6,0,24,2,1,,,,,
,0,,,,,,,,,h.PNG,h,6109a5154bfaad8f41606b51,2021-09-08_20h59.49.402,forced_choiceRT,2021.1.2,Win32,59.28385108,,,,,,,,8,Ontime,h,1,1.9942,6,1,25,2,1,,,,,
,0.93,,,,,,,,,j.PNG,j,6109a5154bfaad8f41606b51,2021-09-08_20h59.49.402,forced_choiceRT,2021.1.2,Win32,59.28385108,,,,,,,,8,Ontime,j,1,1.9266,6,2,26,3,1,,,,,
,0.61,,,,,,,,,j.PNG,j,6109a5154bfaad8f41606b51,2021-09-08_20h59.49.402,forced_choiceRT,2021.1.2,Win32,59.28385108,,,,,,,,8,Ontime,j,1,2.0096,6,3,27,3,1,,,,,
,1.4,,,,,,,,,g.PNG,g,6109a5154bfaad8f41606b51,2021-09-08_20h59.49.402,forced_choiceRT,2021.1.2,Win32,59.28385108,,,,,,,,8,Ontime,h,0,1.978900001,7,0,28,1,1,,,,,
,1.05,,,,,,,,,j.PNG,j,6109a5154bfaad8f41606b51,2021-09-08_20h59.49.402,forced_choiceRT,2021.1.2,Win32,59.28385108,,,,,,,,8,Ontime,j,1,2.0957,7,1,29,3,1,,,,,
,0.63,,,,,,,,,j.PNG,j,6109a5154bfaad8f41606b51,2021-09-08_20h59.49.402,forced_choiceRT,2021.1.2,Win32,59.28385108,,,,,,,,8,Ontime,j,1,2.076900001,7,2,30,3,1,,,,,
,0.75,,,,,,,,,f.PNG,f,6109a5154bfaad8f41606b51,2021-09-08_20h59.49.402,forced_choiceRT,2021.1.2,Win32,59.28385108,,,,,,,,8,Ontime,f,1,2.0454,7,3,31,0,1,,,,,
,1.25,,,,,,,,,h.PNG,h,6109a5154bfaad8f41606b51,2021-09-08_20h59.49.402,forced_choiceRT,2021.1.2,Win32,59.28385108,,,,,,,,8,Ontime,h,1,1.9436,8,0,32,2,1,,,,,
,0.63,,,,,,,,,g.PNG,g,6109a5154bfaad8f41606b51,2021-09-08_20h59.49.402,forced_choiceRT,2021.1.2,Win32,59.28385108,,,,,,,,8,Ontime,g,1,1.9582,8,1,33,1,1,,,,,
,1.02,,,,,,,,,f.PNG,f,6109a5154bfaad8f41606b51,2021-09-08_20h59.49.402,forced_choiceRT,2021.1.2,Win32,59.28385108,,,,,,,,8,Ontime,f,1,2.045,8,2,34,0,1,,,,,
,0.52,,,,,,,,,h.PNG,h,6109a5154bfaad8f41606b51,2021-09-08_20h59.49.402,forced_choiceRT,2021.1.2,Win32,59.28385108,,,,,,,,8,Ontime,h,1,2.0617,8,3,35,2,1,,,,,
,0.44,,,,,,,,,g.PNG,g,6109a5154bfaad8f41606b51,2021-09-08_20h59.49.402,forced_choiceRT,2021.1.2,Win32,59.28385108,,,,,,,,8,Ontime,g,1,2.0769,9,0,36,1,1,,,,,
,1.14,,,,,,,,,h.PNG,h,6109a5154bfaad8f41606b51,2021-09-08_20h59.49.402,forced_choiceRT,2021.1.2,Win32,59.28385108,,,,,,,,8,Ontime,h,1,2.0842,9,1,37,2,1,,,,,
,0.64,,,,,,,,,f.PNG,f,6109a5154bfaad8f41606b51,2021-09-08_20h59.49.402,forced_choiceRT,2021.1.2,Win32,59.28385108,,,,,,,,8,Ontime,f,1,2.0627,9,2,38,0,1,,,,,
,0.17,,,,,,,,,j.PNG,j,6109a5154bfaad8f41606b51,2021-09-08_20h59.49.402,forced_choiceRT,2021.1.2,Win32,59.28385108,,,,,,,,8,Ontime,j,1,1.9912,9,3,39,3,1,,,,,
,,,,,,,,,,,,6109a5154bfaad8f41606b51,2021-09-08_20h59.49.402,forced_choiceRT,2021.1.2,Win32,59.28385108,,,,,,,,,,,,,,,,,,7,0,7,0,1
,1.38,,,,,,,,,j.PNG,j,6109a5154bfaad8f41606b51,2021-09-08_20h59.49.402,forced_choiceRT,2021.1.2,Win32,59.28385108,,,,,,,,9,Ontime,j,1,2.0764,0,0,0,3,1,,,,,
,1.76,,,,,,,,,h.PNG,h,6109a5154bfaad8f41606b51,2021-09-08_20h59.49.402,forced_choiceRT,2021.1.2,Win32,59.28385108,,,,,,,,9,Slow,j,0,2.139099999,0,1,1,2,1,,,,,
,1.82,,,,,,,,,h.PNG,h,6109a5154bfaad8f41606b51,2021-09-08_20h59.49.402,forced_choiceRT,2021.1.2,Win32,59.28385108,,,,,,,,9,Ontime,h,1,2.0238,0,2,2,2,1,,,,,
,0.78,,,,,,,,,j.PNG,j,6109a5154bfaad8f41606b51,2021-09-08_20h59.49.402,forced_choiceRT,2021.1.2,Win32,59.28385108,,,,,,,,9,Ontime,j,1,1.9753,0,3,3,3,1,,,,,
,1.76,,,,,,,,,g.PNG,g,6109a5154bfaad8f41606b51,2021-09-08_20h59.49.402,forced_choiceRT,2021.1.2,Win32,59.28385108,,,,,,,,9,Slow,j,0,2.1449,1,0,4,1,1,,,,,
,0.17,,,,,,,,,h.PNG,h,6109a5154bfaad8f41606b51,2021-09-08_20h59.49.402,forced_choiceRT,2021.1.2,Win32,59.28385108,,,,,,,,9,Ontime,h,1,2.021099999,1,1,5,2,1,,,,,
,1.32,,,,,,,,,j.PNG,j,6109a5154bfaad8f41606b51,2021-09-08_20h59.49.402,forced_choiceRT,2021.1.2,Win32,59.28385108,,,,,,,,9,Ontime,h,0,2.095,1,2,6,3,1,,,,,
,0.15,,,,,,,,,f.PNG,f,6109a5154bfaad8f41606b51,2021-09-08_20h59.49.402,forced_choiceRT,2021.1.2,Win32,59.28385108,,,,,,,,9,Ontime,f,1,2.0446,1,3,7,0,1,,,,,
,1.67,,,,,,,,,f.PNG,f,6109a5154bfaad8f41606b51,2021-09-08_20h59.49.402,forced_choiceRT,2021.1.2,Win32,59.28385108,,,,,,,,9,Ontime,f,1,1.9105,2,0,8,0,1,,,,,
,1.44,,,,,,,,,j.PNG,j,6109a5154bfaad8f41606b51,2021-09-08_20h59.49.402,forced_choiceRT,2021.1.2,Win32,59.28385108,,,,,,,,9,Ontime,f,0,2.060400001,2,1,9,3,1,,,,,
,0.03,,,,,,,,,j.PNG,j,6109a5154bfaad8f41606b51,2021-09-08_20h59.49.402,forced_choiceRT,2021.1.2,Win32,59.28385108,,,,,,,,9,Ontime,j,1,2.060400001,2,2,10,3,1,,,,,
,1.11,,,,,,,,,j.PNG,j,6109a5154bfaad8f41606b51,2021-09-08_20h59.49.402,forced_choiceRT,2021.1.2,Win32,59.28385108,,,,,,,,9,Ontime,j,1,1.965599999,2,3,11,3,1,,,,,
,0.21,,,,,,,,,f.PNG,f,6109a5154bfaad8f41606b51,2021-09-08_20h59.49.402,forced_choiceRT,2021.1.2,Win32,59.28385108,,,,,,,,9,Ontime,f,1,1.9408,3,0,12,0,1,,,,,
,0.86,,,,,,,,,f.PNG,f,6109a5154bfaad8f41606b51,2021-09-08_20h59.49.402,forced_choiceRT,2021.1.2,Win32,59.28385108,,,,,,,,9,Ontime,f,1,1.9244,3,1,13,0,1,,,,,
,0.64,,,,,,,,,f.PNG,f,6109a5154bfaad8f41606b51,2021-09-08_20h59.49.402,forced_choiceRT,2021.1.2,Win32,59.28385108,,,,,,,,9,Ontime,f,1,1.9335,3,2,14,0,1,,,,,
,0.36,,,,,,,,,j.PNG,j,6109a5154bfaad8f41606b51,2021-09-08_20h59.49.402,forced_choiceRT,2021.1.2,Win32,59.28385108,,,,,,,,9,Ontime,j,1,2.0266,3,3,15,3,1,,,,,
,1.41,,,,,,,,,j.PNG,j,6109a5154bfaad8f41606b51,2021-09-08_20h59.49.402,forced_choiceRT,2021.1.2,Win32,59.28385108,,,,,,,,9,Fast,j,1,1.842200001,4,0,16,3,1,,,,,
,1.29,,,,,,,,,g.PNG,g,6109a5154bfaad8f41606b51,2021-09-08_20h59.49.402,forced_choiceRT,2021.1.2,Win32,59.28385108,,,,,,,,9,Ontime,g,1,1.9278,4,1,17,1,1,,,,,
,1.5,,,,,,,,,h.PNG,h,6109a5154bfaad8f41606b51,2021-09-08_20h59.49.402,forced_choiceRT,2021.1.2,Win32,59.28385108,,,,,,,,9,Ontime,g,0,1.9812,4,2,18,2,1,,,,,
,0.32,,,,,,,,,g.PNG,g,6109a5154bfaad8f41606b51,2021-09-08_20h59.49.402,forced_choiceRT,2021.1.2,Win32,59.28385108,,,,,,,,9,Ontime,g,1,2.0775,4,3,19,1,1,,,,,
,1.73,,,,,,,,,g.PNG,g,6109a5154bfaad8f41606b51,2021-09-08_20h59.49.402,forced_choiceRT,2021.1.2,Win32,59.28385108,,,,,,,,9,Ontime,g,1,1.9784,5,0,20,1,1,,,,,
,1.52,,,,,,,,,g.PNG,g,6109a5154bfaad8f41606b51,2021-09-08_20h59.49.402,forced_choiceRT,2021.1.2,Win32,59.28385108,,,,,,,,9,Fast,g,1,1.8953,5,1,21,1,1,,,,,
,1.5,,,,,,,,,f.PNG,f,6109a5154bfaad8f41606b51,2021-09-08_20h59.49.402,forced_choiceRT,2021.1.2,Win32,59.28385108,,,,,,,,9,Ontime,g,0,1.9767,5,2,22,0,1,,,,,
,1.82,,,,,,,,,g.PNG,g,6109a5154bfaad8f41606b51,2021-09-08_20h59.49.402,forced_choiceRT,2021.1.2,Win32,59.28385108,,,,,,,,9,Ontime,g,1,2.042,5,3,23,1,1,,,,,
,0.82,,,,,,,,,f.PNG,f,6109a5154bfaad8f41606b51,2021-09-08_20h59.49.402,forced_choiceRT,2021.1.2,Win32,59.28385108,,,,,,,,9,Ontime,f,1,1.9781,6,0,24,0,1,,,,,
,0.49,,,,,,,,,h.PNG,h,6109a5154bfaad8f41606b51,2021-09-08_20h59.49.402,forced_choiceRT,2021.1.2,Win32,59.28385108,,,,,,,,9,Ontime,h,1,1.9775,6,1,25,2,1,,,,,
,0.12,,,,,,,,,h.PNG,h,6109a5154bfaad8f41606b51,2021-09-08_20h59.49.402,forced_choiceRT,2021.1.2,Win32,59.28385108,,,,,,,,9,Ontime,h,1,2.0663,6,2,26,2,1,,,,,
,1.64,,,,,,,,,g.PNG,g,6109a5154bfaad8f41606b51,2021-09-08_20h59.49.402,forced_choiceRT,2021.1.2,Win32,59.28385108,,,,,,,,9,Ontime,h,0,1.926700001,6,3,27,1,1,,,,,
,1.15,,,,,,,,,g.PNG,g,6109a5154bfaad8f41606b51,2021-09-08_20h59.49.402,forced_choiceRT,2021.1.2,Win32,59.28385108,,,,,,,,9,Ontime,g,1,1.9302,7,0,28,1,1,,,,,
,0.68,,,,,,,,,h.PNG,h,6109a5154bfaad8f41606b51,2021-09-08_20h59.49.402,forced_choiceRT,2021.1.2,Win32,59.28385108,,,,,,,,9,Ontime,h,1,2.0141,7,1,29,2,1,,,,,
,0.39,,,,,,,,,h.PNG,h,6109a5154bfaad8f41606b51,2021-09-08_20h59.49.402,forced_choiceRT,2021.1.2,Win32,59.28385108,,,,,,,,9,Ontime,h,1,1.995,7,2,30,2,1,,,,,
,1.21,,,,,,,,,f.PNG,f,6109a5154bfaad8f41606b51,2021-09-08_20h59.49.402,forced_choiceRT,2021.1.2,Win32,59.28385108,,,,,,,,9,Ontime,f,1,1.9766,7,3,31,0,1,,,,,
,1.22,,,,,,,,,h.PNG,h,6109a5154bfaad8f41606b51,2021-09-08_20h59.49.402,forced_choiceRT,2021.1.2,Win32,59.28385108,,,,,,,,9,Ontime,h,1,1.9255,8,0,32,2,1,,,,,
,0.01,,,,,,,,,f.PNG,f,6109a5154bfaad8f41606b51,2021-09-08_20h59.49.402,forced_choiceRT,2021.1.2,Win32,59.28385108,,,,,,,,9,Ontime,f,1,2.0282,8,1,33,0,1,,,,,
,0.32,,,,,,,,,g.PNG,g,6109a5154bfaad8f41606b51,2021-09-08_20h59.49.402,forced_choiceRT,2021.1.2,Win32,59.28385108,,,,,,,,9,Ontime,g,1,1.9939,8,2,34,1,1,,,,,
,0.93,,,,,,,,,j.PNG,j,6109a5154bfaad8f41606b51,2021-09-08_20h59.49.402,forced_choiceRT,2021.1.2,Win32,59.28385108,,,,,,,,9,Ontime,j,1,2.013200001,8,3,35,3,1,,,,,
,1.08,,,,,,,,,h.PNG,h,6109a5154bfaad8f41606b51,2021-09-08_20h59.49.402,forced_choiceRT,2021.1.2,Win32,59.28385108,,,,,,,,9,Ontime,h,1,1.9617,9,0,36,2,1,,,,,
,0.53,,,,,,,,,g.PNG,g,6109a5154bfaad8f41606b51,2021-09-08_20h59.49.402,forced_choiceRT,2021.1.2,Win32,59.28385108,,,,,,,,9,Ontime,g,1,2.0593,9,1,37,1,1,,,,,
,0.91,,,,,,,,,j.PNG,j,6109a5154bfaad8f41606b51,2021-09-08_20h59.49.402,forced_choiceRT,2021.1.2,Win32,59.28385108,,,,,,,,9,Ontime,j,1,1.9272,9,2,38,3,1,,,,,
,0.27,,,,,,,,,f.PNG,f,6109a5154bfaad8f41606b51,2021-09-08_20h59.49.402,forced_choiceRT,2021.1.2,Win32,59.28385108,,,,,,,,9,Ontime,f,1,2.0089,9,3,39,0,1,,,,,
,,,,,,,,,,,,6109a5154bfaad8f41606b51,2021-09-08_20h59.49.402,forced_choiceRT,2021.1.2,Win32,59.28385108,,,,,,,,,,,,,,,,,,8,0,8,0,1
,1.73,,,,,,,,,j.PNG,j,6109a5154bfaad8f41606b51,2021-09-08_20h59.49.402,forced_choiceRT,2021.1.2,Win32,59.28385108,,,,,,,,10,Ontime,f,0,1.977900001,0,0,0,3,1,,,,,
,0.59,,,,,,,,,g.PNG,g,6109a5154bfaad8f41606b51,2021-09-08_20h59.49.402,forced_choiceRT,2021.1.2,Win32,59.28385108,,,,,,,,10,Ontime,g,1,2.026900001,0,1,1,1,1,,,,,
,1.18,,,,,,,,,j.PNG,j,6109a5154bfaad8f41606b51,2021-09-08_20h59.49.402,forced_choiceRT,2021.1.2,Win32,59.28385108,,,,,,,,10,Fast,j,1,1.811400001,0,2,2,3,1,,,,,
,1.84,,,,,,,,,h.PNG,h,6109a5154bfaad8f41606b51,2021-09-08_20h59.49.402,forced_choiceRT,2021.1.2,Win32,59.28385108,,,,,,,,10,Slow,j,0,2.1297,0,3,3,2,1,,,,,
,0.16,,,,,,,,,h.PNG,h,6109a5154bfaad8f41606b51,2021-09-08_20h59.49.402,forced_choiceRT,2021.1.2,Win32,59.28385108,,,,,,,,10,Ontime,h,1,2.0425,1,0,4,2,1,,,,,
,0.84,,,,,,,,,f.PNG,f,6109a5154bfaad8f41606b51,2021-09-08_20h59.49.402,forced_choiceRT,2021.1.2,Win32,59.28385108,,,,,,,,10,Fast,f,1,1.5912,1,1,5,0,1,,,,,
,1.1,,,,,,,,,f.PNG,f,6109a5154bfaad8f41606b51,2021-09-08_20h59.49.402,forced_choiceRT,2021.1.2,Win32,59.28385108,,,,,,,,10,Ontime,f,1,1.963,1,2,6,0,1,,,,,
,0.32,,,,,,,,,j.PNG,j,6109a5154bfaad8f41606b51,2021-09-08_20h59.49.402,forced_choiceRT,2021.1.2,Win32,59.28385108,,,,,,,,10,Ontime,j,1,1.9923,1,3,7,3,1,,,,,
,1.23,,,,,,,,,h.PNG,h,6109a5154bfaad8f41606b51,2021-09-08_20h59.49.402,forced_choiceRT,2021.1.2,Win32,59.28385108,,,,,,,,10,Ontime,h,1,1.9415,2,0,8,2,1,,,,,
,0.8,,,,,,,,,h.PNG,h,6109a5154bfaad8f41606b51,2021-09-08_20h59.49.402,forced_choiceRT,2021.1.2,Win32,59.28385108,,,,,,,,10,Ontime,h,1,2.045900001,2,1,9,2,1,,,,,
,1.94,,,,,,,,,f.PNG,f,6109a5154bfaad8f41606b51,2021-09-08_20h59.49.402,forced_choiceRT,2021.1.2,Win32,59.28385108,,,,,,,,10,Ontime,h,0,2.0619,2,2,10,0,1,,,,,
,1.06,,,,,,,,,f.PNG,f,6109a5154bfaad8f41606b51,2021-09-08_20h59.49.402,forced_choiceRT,2021.1.2,Win32,59.28385108,,,,,,,,10,Ontime,f,1,1.911,2,3,11,0,1,,,,,
,1.59,,,,,,,,,g.PNG,g,6109a5154bfaad8f41606b51,2021-09-08_20h59.49.402,forced_choiceRT,2021.1.2,Win32,59.28385108,,,,,,,,10,Ontime,f,0,2.0221,3,0,12,1,1,,,,,
,1.68,,,,,,,,,g.PNG,g,6109a5154bfaad8f41606b51,2021-09-08_20h59.49.402,forced_choiceRT,2021.1.2,Win32,59.28385108,,,,,,,,10,Ontime,f,0,2.0575,3,1,13,1,1,,,,,
,0.77,,,,,,,,,g.PNG,g,6109a5154bfaad8f41606b51,2021-09-08_20h59.49.402,forced_choiceRT,2021.1.2,Win32,59.28385108,,,,,,,,10,Ontime,g,1,2.0072,3,2,14,1,1,,,,,
,1.32,,,,,,,,,h.PNG,h,6109a5154bfaad8f41606b51,2021-09-08_20h59.49.402,forced_choiceRT,2021.1.2,Win32,59.28385108,,,,,,,,10,Ontime,h,1,1.9915,3,3,15,2,1,,,,,
,0.59,,,,,,,,,f.PNG,f,6109a5154bfaad8f41606b51,2021-09-08_20h59.49.402,forced_choiceRT,2021.1.2,Win32,59.28385108,,,,,,,,10,Ontime,f,1,2.044,4,0,16,0,1,,,,,
,1.94,,,,,,,,,j.PNG,j,6109a5154bfaad8f41606b51,2021-09-08_20h59.49.402,forced_choiceRT,2021.1.2,Win32,59.28385108,,,,,,,,10,Ontime,f,0,1.992,4,1,17,3,1,,,,,
,0.41,,,,,,,,,h.PNG,h,6109a5154bfaad8f41606b51,2021-09-08_20h59.49.402,forced_choiceRT,2021.1.2,Win32,59.28385108,,,,,,,,10,Ontime,h,1,2.0271,4,2,18,2,1,,,,,
,1.94,,,,,,,,,h.PNG,h,6109a5154bfaad8f41606b51,2021-09-08_20h59.49.402,forced_choiceRT,2021.1.2,Win32,59.28385108,,,,,,,,10,Ontime,h,1,2.046400001,4,3,19,2,1,,,,,
,0.22,,,,,,,,,j.PNG,j,6109a5154bfaad8f41606b51,2021-09-08_20h59.49.402,forced_choiceRT,2021.1.2,Win32,59.28385108,,,,,,,,10,Ontime,j,1,2.098,5,0,20,3,1,,,,,
,1.62,,,,,,,,,j.PNG,j,6109a5154bfaad8f41606b51,2021-09-08_20h59.49.402,forced_choiceRT,2021.1.2,Win32,59.28385108,,,,,,,,10,Slow,h,0,2.239,5,1,21,3,1,,,,,
,1.77,,,,,,,,,g.PNG,g,6109a5154bfaad8f41606b51,2021-09-08_20h59.49.402,forced_choiceRT,2021.1.2,Win32,59.28385108,,,,,,,,10,Ontime,j,0,2.0273,5,2,22,1,1,,,,,
,1.9,,,,,,,,,f.PNG,f,6109a5154bfaad8f41606b51,2021-09-08_20h59.49.402,forced_choiceRT,2021.1.2,Win32,59.28385108,,,,,,,,10,Ontime,g,0,1.9651,5,3,23,0,1,,,,,
,1.99,,,,,,,,,g.PNG,g,6109a5154bfaad8f41606b51,2021-09-08_20h59.49.402,forced_choiceRT,2021.1.2,Win32,59.28385108,,,,,,,,10,Ontime,h,0,2.0077,6,0,24,1,1,,,,,
,0.54,,,,,,,,,g.PNG,g,6109a5154bfaad8f41606b51,2021-09-08_20h59.49.402,forced_choiceRT,2021.1.2,Win32,59.28385108,,,,,,,,10,Ontime,g,1,2.028400001,6,1,25,1,1,,,,,
,1.96,,,,,,,,,g.PNG,g,6109a5154bfaad8f41606b51,2021-09-08_20h59.49.402,forced_choiceRT,2021.1.2,Win32,59.28385108,,,,,,,,10,Ontime,j,0,2.0599,6,2,26,1,1,,,,,
,1.85,,,,,,,,,g.PNG,g,6109a5154bfaad8f41606b51,2021-09-08_20h59.49.402,forced_choiceRT,2021.1.2,Win32,59.28385108,,,,,,,,10,Ontime,g,1,2.0112,6,3,27,1,1,,,,,
,0.41,,,,,,,,,h.PNG,h,6109a5154bfaad8f41606b51,2021-09-08_20h59.49.402,forced_choiceRT,2021.1.2,Win32,59.28385108,,,,,,,,10,Ontime,h,1,1.9748,7,0,28,2,1,,,,,
,1.24,,,,,,,,,f.PNG,f,6109a5154bfaad8f41606b51,2021-09-08_20h59.49.402,forced_choiceRT,2021.1.2,Win32,59.28385108,,,,,,,,10,Ontime,f,1,1.944700001,7,1,29,0,1,,,,,
,1.79,,,,,,,,,j.PNG,j,6109a5154bfaad8f41606b51,2021-09-08_20h59.49.402,forced_choiceRT,2021.1.2,Win32,59.28385108,,,,,,,,10,Ontime,f,0,1.9425,7,2,30,3,1,,,,,
,0.11,,,,,,,,,f.PNG,f,6109a5154bfaad8f41606b51,2021-09-08_20h59.49.402,forced_choiceRT,2021.1.2,Win32,59.28385108,,,,,,,,10,Ontime,f,1,1.914900001,7,3,31,0,1,,,,,
,1.31,,,,,,,,,h.PNG,h,6109a5154bfaad8f41606b51,2021-09-08_20h59.49.402,forced_choiceRT,2021.1.2,Win32,59.28385108,,,,,,,,10,Ontime,h,1,2.0272,8,0,32,2,1,,,,,
,1.28,,,,,,,,,h.PNG,h,6109a5154bfaad8f41606b51,2021-09-08_20h59.49.402,forced_choiceRT,2021.1.2,Win32,59.28385108,,,,,,,,10,Ontime,h,1,1.945799999,8,1,33,2,1,,,,,
,1.95,,,,,,,,,g.PNG,g,6109a5154bfaad8f41606b51,2021-09-08_20h59.49.402,forced_choiceRT,2021.1.2,Win32,59.28385108,,,,,,,,10,Ontime,h,0,1.9793,8,2,34,1,1,,,,,
,1.95,,,,,,,,,j.PNG,j,6109a5154bfaad8f41606b51,2021-09-08_20h59.49.402,forced_choiceRT,2021.1.2,Win32,59.28385108,,,,,,,,10,Ontime,h,0,1.978700001,8,3,35,3,1,,,,,
,1.72,,,,,,,,,j.PNG,j,6109a5154bfaad8f41606b51,2021-09-08_20h59.49.402,forced_choiceRT,2021.1.2,Win32,59.28385108,,,,,,,,10,Ontime,h,0,1.976200001,9,0,36,3,1,,,,,
,0.22,,,,,,,,,f.PNG,f,6109a5154bfaad8f41606b51,2021-09-08_20h59.49.402,forced_choiceRT,2021.1.2,Win32,59.28385108,,,,,,,,10,Ontime,f,1,1.9397,9,1,37,0,1,,,,,
,0.19,,,,,,,,,j.PNG,j,6109a5154bfaad8f41606b51,2021-09-08_20h59.49.402,forced_choiceRT,2021.1.2,Win32,59.28385108,,,,,,,,10,Ontime,j,1,1.995099999,9,2,38,3,1,,,,,
,0.01,,,,,,,,,f.PNG,f,6109a5154bfaad8f41606b51,2021-09-08_20h59.49.402,forced_choiceRT,2021.1.2,Win32,59.28385108,,,,,,,,10,Ontime,f,1,2.0579,9,3,39,0,1,,,,,
,,,,,,,,,,,,6109a5154bfaad8f41606b51,2021-09-08_20h59.49.402,forced_choiceRT,2021.1.2,Win32,59.28385108,,,,,,,,,,,,,,,,,,9,0,9,0,1
