IP_Addresss,target_onset,trial_resp_sp.keys,trial_resp_sp.corr,trial_resp_sp.rt,trials_train_loop.thisRepN,trials_train_loop.thisTrialN,trials_train_loop.thisN,trials_train_loop.thisIndex,trials_train_loop.ran,pic,correct_key,participant,date,expName,psychopyVersion,OS,frameRate,trial_resp_timing.keys,trial_resp_timing.rt,trials_train_timing.thisRepN,trials_train_timing.thisTrialN,trials_train_timing.thisN,trials_train_timing.thisIndex,trials_train_timing.ran,block_id,ontime,forcedRT_resp.keys,forcedRT_resp.corr,forcedRT_resp.rt,trials.thisRepN,trials.thisTrialN,trials.thisN,trials.thisIndex,trials.ran,blocks.thisRepN,blocks.thisTrialN,blocks.thisN,blocks.thisIndex,blocks.ran
104.175.46.153,0,g,1,5.6165,0,0,0,1,1,g.PNG,g,610afc69d32d0b52165ca115,2021-09-08_18h20.24.463,forced_choiceRT,2021.1.2,MacIntel,60.0024001,,,,,,,,,,,,,,,,,,,,,,
,0,h,1,2.081,0,1,1,2,1,h.PNG,h,610afc69d32d0b52165ca115,2021-09-08_18h20.24.463,forced_choiceRT,2021.1.2,MacIntel,60.0024001,,,,,,,,,,,,,,,,,,,,,,
,0,f,1,1.8105,0,2,2,0,1,f.PNG,f,610afc69d32d0b52165ca115,2021-09-08_18h20.24.463,forced_choiceRT,2021.1.2,MacIntel,60.0024001,,,,,,,,,,,,,,,,,,,,,,
,0,f,1,1.5521,0,3,3,0,1,f.PNG,f,610afc69d32d0b52165ca115,2021-09-08_18h20.24.463,forced_choiceRT,2021.1.2,MacIntel,60.0024001,,,,,,,,,,,,,,,,,,,,,,
,0,g,1,1.584,1,0,4,1,1,g.PNG,g,610afc69d32d0b52165ca115,2021-09-08_18h20.24.463,forced_choiceRT,2021.1.2,MacIntel,60.0024001,,,,,,,,,,,,,,,,,,,,,,
,0,g,1,0.9012,1,1,5,1,1,g.PNG,g,610afc69d32d0b52165ca115,2021-09-08_18h20.24.463,forced_choiceRT,2021.1.2,MacIntel,60.0024001,,,,,,,,,,,,,,,,,,,,,,
,0,j,1,1.722,1,2,6,3,1,j.PNG,j,610afc69d32d0b52165ca115,2021-09-08_18h20.24.463,forced_choiceRT,2021.1.2,MacIntel,60.0024001,,,,,,,,,,,,,,,,,,,,,,
,0,h,1,1.4681,1,3,7,2,1,h.PNG,h,610afc69d32d0b52165ca115,2021-09-08_18h20.24.463,forced_choiceRT,2021.1.2,MacIntel,60.0024001,,,,,,,,,,,,,,,,,,,,,,
,0,j,1,1.6206,2,0,8,3,1,j.PNG,j,610afc69d32d0b52165ca115,2021-09-08_18h20.24.463,forced_choiceRT,2021.1.2,MacIntel,60.0024001,,,,,,,,,,,,,,,,,,,,,,
,0,j,1,1.8057,2,1,9,3,1,j.PNG,j,610afc69d32d0b52165ca115,2021-09-08_18h20.24.463,forced_choiceRT,2021.1.2,MacIntel,60.0024001,,,,,,,,,,,,,,,,,,,,,,
,0,g,1,1.7727,2,2,10,1,1,g.PNG,g,610afc69d32d0b52165ca115,2021-09-08_18h20.24.463,forced_choiceRT,2021.1.2,MacIntel,60.0024001,,,,,,,,,,,,,,,,,,,,,,
,0,h,1,2.7554,2,3,11,2,1,h.PNG,h,610afc69d32d0b52165ca115,2021-09-08_18h20.24.463,forced_choiceRT,2021.1.2,MacIntel,60.0024001,,,,,,,,,,,,,,,,,,,,,,
,0,h,1,0.9408,3,0,12,2,1,h.PNG,h,610afc69d32d0b52165ca115,2021-09-08_18h20.24.463,forced_choiceRT,2021.1.2,MacIntel,60.0024001,,,,,,,,,,,,,,,,,,,,,,
,0,g,1,1.2166,3,1,13,1,1,g.PNG,g,610afc69d32d0b52165ca115,2021-09-08_18h20.24.463,forced_choiceRT,2021.1.2,MacIntel,60.0024001,,,,,,,,,,,,,,,,,,,,,,
,0,h,1,1.0675,3,2,14,2,1,h.PNG,h,610afc69d32d0b52165ca115,2021-09-08_18h20.24.463,forced_choiceRT,2021.1.2,MacIntel,60.0024001,,,,,,,,,,,,,,,,,,,,,,
,0,f,1,1.1399,3,3,15,0,1,f.PNG,f,610afc69d32d0b52165ca115,2021-09-08_18h20.24.463,forced_choiceRT,2021.1.2,MacIntel,60.0024001,,,,,,,,,,,,,,,,,,,,,,
,0,j,1,1.4657,4,0,16,3,1,j.PNG,j,610afc69d32d0b52165ca115,2021-09-08_18h20.24.463,forced_choiceRT,2021.1.2,MacIntel,60.0024001,,,,,,,,,,,,,,,,,,,,,,
,0,h,1,1.6674,4,1,17,2,1,h.PNG,h,610afc69d32d0b52165ca115,2021-09-08_18h20.24.463,forced_choiceRT,2021.1.2,MacIntel,60.0024001,,,,,,,,,,,,,,,,,,,,,,
,0,g,1,1.0094,4,2,18,1,1,g.PNG,g,610afc69d32d0b52165ca115,2021-09-08_18h20.24.463,forced_choiceRT,2021.1.2,MacIntel,60.0024001,,,,,,,,,,,,,,,,,,,,,,
,0,h,1,1.1134,4,3,19,2,1,h.PNG,h,610afc69d32d0b52165ca115,2021-09-08_18h20.24.463,forced_choiceRT,2021.1.2,MacIntel,60.0024001,,,,,,,,,,,,,,,,,,,,,,
,0,j,1,1.0341,5,0,20,3,1,j.PNG,j,610afc69d32d0b52165ca115,2021-09-08_18h20.24.463,forced_choiceRT,2021.1.2,MacIntel,60.0024001,,,,,,,,,,,,,,,,,,,,,,
,0,j,1,0.8556,5,1,21,3,1,j.PNG,j,610afc69d32d0b52165ca115,2021-09-08_18h20.24.463,forced_choiceRT,2021.1.2,MacIntel,60.0024001,,,,,,,,,,,,,,,,,,,,,,
,0,g,1,1.169,5,2,22,1,1,g.PNG,g,610afc69d32d0b52165ca115,2021-09-08_18h20.24.463,forced_choiceRT,2021.1.2,MacIntel,60.0024001,,,,,,,,,,,,,,,,,,,,,,
,0,f,1,1.3525,5,3,23,0,1,f.PNG,f,610afc69d32d0b52165ca115,2021-09-08_18h20.24.463,forced_choiceRT,2021.1.2,MacIntel,60.0024001,,,,,,,,,,,,,,,,,,,,,,
,0,j,1,1.9192,6,0,24,3,1,j.PNG,j,610afc69d32d0b52165ca115,2021-09-08_18h20.24.463,forced_choiceRT,2021.1.2,MacIntel,60.0024001,,,,,,,,,,,,,,,,,,,,,,
,0,f,1,1.1036,6,1,25,0,1,f.PNG,f,610afc69d32d0b52165ca115,2021-09-08_18h20.24.463,forced_choiceRT,2021.1.2,MacIntel,60.0024001,,,,,,,,,,,,,,,,,,,,,,
,0,j,1,1.6915,6,2,26,3,1,j.PNG,j,610afc69d32d0b52165ca115,2021-09-08_18h20.24.463,forced_choiceRT,2021.1.2,MacIntel,60.0024001,,,,,,,,,,,,,,,,,,,,,,
,0,g,1,1.5232,6,3,27,1,1,g.PNG,g,610afc69d32d0b52165ca115,2021-09-08_18h20.24.463,forced_choiceRT,2021.1.2,MacIntel,60.0024001,,,,,,,,,,,,,,,,,,,,,,
,0,f,1,1.4657,7,0,28,0,1,f.PNG,f,610afc69d32d0b52165ca115,2021-09-08_18h20.24.463,forced_choiceRT,2021.1.2,MacIntel,60.0024001,,,,,,,,,,,,,,,,,,,,,,
,0,g,1,0.9927,7,1,29,1,1,g.PNG,g,610afc69d32d0b52165ca115,2021-09-08_18h20.24.463,forced_choiceRT,2021.1.2,MacIntel,60.0024001,,,,,,,,,,,,,,,,,,,,,,
,0,h,1,0.8755,7,2,30,2,1,h.PNG,h,610afc69d32d0b52165ca115,2021-09-08_18h20.24.463,forced_choiceRT,2021.1.2,MacIntel,60.0024001,,,,,,,,,,,,,,,,,,,,,,
,0,f,1,0.931,7,3,31,0,1,f.PNG,f,610afc69d32d0b52165ca115,2021-09-08_18h20.24.463,forced_choiceRT,2021.1.2,MacIntel,60.0024001,,,,,,,,,,,,,,,,,,,,,,
,0,h,1,0.948,8,0,32,2,1,h.PNG,h,610afc69d32d0b52165ca115,2021-09-08_18h20.24.463,forced_choiceRT,2021.1.2,MacIntel,60.0024001,,,,,,,,,,,,,,,,,,,,,,
,0,g,1,0.9359,8,1,33,1,1,g.PNG,g,610afc69d32d0b52165ca115,2021-09-08_18h20.24.463,forced_choiceRT,2021.1.2,MacIntel,60.0024001,,,,,,,,,,,,,,,,,,,,,,
,0,h,1,0.8706,8,2,34,2,1,h.PNG,h,610afc69d32d0b52165ca115,2021-09-08_18h20.24.463,forced_choiceRT,2021.1.2,MacIntel,60.0024001,,,,,,,,,,,,,,,,,,,,,,
,0,f,1,1.0061,8,3,35,0,1,f.PNG,f,610afc69d32d0b52165ca115,2021-09-08_18h20.24.463,forced_choiceRT,2021.1.2,MacIntel,60.0024001,,,,,,,,,,,,,,,,,,,,,,
,0,h,1,1.0228,9,0,36,2,1,h.PNG,h,610afc69d32d0b52165ca115,2021-09-08_18h20.24.463,forced_choiceRT,2021.1.2,MacIntel,60.0024001,,,,,,,,,,,,,,,,,,,,,,
,0,j,1,1.6055,9,1,37,3,1,j.PNG,j,610afc69d32d0b52165ca115,2021-09-08_18h20.24.463,forced_choiceRT,2021.1.2,MacIntel,60.0024001,,,,,,,,,,,,,,,,,,,,,,
,0,h,1,0.854,9,2,38,2,1,h.PNG,h,610afc69d32d0b52165ca115,2021-09-08_18h20.24.463,forced_choiceRT,2021.1.2,MacIntel,60.0024001,,,,,,,,,,,,,,,,,,,,,,
,0,f,1,1.8331,9,3,39,0,1,f.PNG,f,610afc69d32d0b52165ca115,2021-09-08_18h20.24.463,forced_choiceRT,2021.1.2,MacIntel,60.0024001,,,,,,,,,,,,,,,,,,,,,,
,0,f,1,0.6485,10,0,40,0,1,f.PNG,f,610afc69d32d0b52165ca115,2021-09-08_18h20.24.463,forced_choiceRT,2021.1.2,MacIntel,60.0024001,,,,,,,,,,,,,,,,,,,,,,
,0,h,1,1.022,10,1,41,2,1,h.PNG,h,610afc69d32d0b52165ca115,2021-09-08_18h20.24.463,forced_choiceRT,2021.1.2,MacIntel,60.0024001,,,,,,,,,,,,,,,,,,,,,,
,0,j,1,1.1231,10,2,42,3,1,j.PNG,j,610afc69d32d0b52165ca115,2021-09-08_18h20.24.463,forced_choiceRT,2021.1.2,MacIntel,60.0024001,,,,,,,,,,,,,,,,,,,,,,
,0,g,1,1.0226,10,3,43,1,1,g.PNG,g,610afc69d32d0b52165ca115,2021-09-08_18h20.24.463,forced_choiceRT,2021.1.2,MacIntel,60.0024001,,,,,,,,,,,,,,,,,,,,,,
,0,j,1,2.4881,11,0,44,3,1,j.PNG,j,610afc69d32d0b52165ca115,2021-09-08_18h20.24.463,forced_choiceRT,2021.1.2,MacIntel,60.0024001,,,,,,,,,,,,,,,,,,,,,,
,0,g,1,3.1043,11,1,45,1,1,g.PNG,g,610afc69d32d0b52165ca115,2021-09-08_18h20.24.463,forced_choiceRT,2021.1.2,MacIntel,60.0024001,,,,,,,,,,,,,,,,,,,,,,
,0,j,1,1.4714,11,2,46,3,1,j.PNG,j,610afc69d32d0b52165ca115,2021-09-08_18h20.24.463,forced_choiceRT,2021.1.2,MacIntel,60.0024001,,,,,,,,,,,,,,,,,,,,,,
,0,h,1,2.3876,11,3,47,2,1,h.PNG,h,610afc69d32d0b52165ca115,2021-09-08_18h20.24.463,forced_choiceRT,2021.1.2,MacIntel,60.0024001,,,,,,,,,,,,,,,,,,,,,,
,0,h,1,0.9072,12,0,48,2,1,h.PNG,h,610afc69d32d0b52165ca115,2021-09-08_18h20.24.463,forced_choiceRT,2021.1.2,MacIntel,60.0024001,,,,,,,,,,,,,,,,,,,,,,
,0,j,1,1.2399,12,1,49,3,1,j.PNG,j,610afc69d32d0b52165ca115,2021-09-08_18h20.24.463,forced_choiceRT,2021.1.2,MacIntel,60.0024001,,,,,,,,,,,,,,,,,,,,,,
,0,j,1,1.0226,12,2,50,3,1,j.PNG,j,610afc69d32d0b52165ca115,2021-09-08_18h20.24.463,forced_choiceRT,2021.1.2,MacIntel,60.0024001,,,,,,,,,,,,,,,,,,,,,,
,0,g,1,1.1661,12,3,51,1,1,g.PNG,g,610afc69d32d0b52165ca115,2021-09-08_18h20.24.463,forced_choiceRT,2021.1.2,MacIntel,60.0024001,,,,,,,,,,,,,,,,,,,,,,
,0,g,1,0.698,13,0,52,1,1,g.PNG,g,610afc69d32d0b52165ca115,2021-09-08_18h20.24.463,forced_choiceRT,2021.1.2,MacIntel,60.0024001,,,,,,,,,,,,,,,,,,,,,,
,0,j,1,1.2073,13,1,53,3,1,j.PNG,j,610afc69d32d0b52165ca115,2021-09-08_18h20.24.463,forced_choiceRT,2021.1.2,MacIntel,60.0024001,,,,,,,,,,,,,,,,,,,,,,
,0,f,1,1.2566,13,2,54,0,1,f.PNG,f,610afc69d32d0b52165ca115,2021-09-08_18h20.24.463,forced_choiceRT,2021.1.2,MacIntel,60.0024001,,,,,,,,,,,,,,,,,,,,,,
,0,g,1,0.9558,13,3,55,1,1,g.PNG,g,610afc69d32d0b52165ca115,2021-09-08_18h20.24.463,forced_choiceRT,2021.1.2,MacIntel,60.0024001,,,,,,,,,,,,,,,,,,,,,,
,0,f,1,1.3823,14,0,56,0,1,f.PNG,f,610afc69d32d0b52165ca115,2021-09-08_18h20.24.463,forced_choiceRT,2021.1.2,MacIntel,60.0024001,,,,,,,,,,,,,,,,,,,,,,
,0,f,1,0.651,14,1,57,0,1,f.PNG,f,610afc69d32d0b52165ca115,2021-09-08_18h20.24.463,forced_choiceRT,2021.1.2,MacIntel,60.0024001,,,,,,,,,,,,,,,,,,,,,,
,0,f,1,0.7221,14,2,58,0,1,f.PNG,f,610afc69d32d0b52165ca115,2021-09-08_18h20.24.463,forced_choiceRT,2021.1.2,MacIntel,60.0024001,,,,,,,,,,,,,,,,,,,,,,
,0,f,1,0.589,14,3,59,0,1,f.PNG,f,610afc69d32d0b52165ca115,2021-09-08_18h20.24.463,forced_choiceRT,2021.1.2,MacIntel,60.0024001,,,,,,,,,,,,,,,,,,,,,,
,,,,,,,,,,,,610afc69d32d0b52165ca115,2021-09-08_18h20.24.463,forced_choiceRT,2021.1.2,MacIntel,60.0024001,j,2.5129,0,0,0,0,1,,,,,,,,,,,,,,,
,,,,,,,,,,,,610afc69d32d0b52165ca115,2021-09-08_18h20.24.463,forced_choiceRT,2021.1.2,MacIntel,60.0024001,j,1.9386,1,0,1,0,1,,,,,,,,,,,,,,,
,,,,,,,,,,,,610afc69d32d0b52165ca115,2021-09-08_18h20.24.463,forced_choiceRT,2021.1.2,MacIntel,60.0024001,j,1.7732,2,0,2,0,1,,,,,,,,,,,,,,,
,,,,,,,,,,,,610afc69d32d0b52165ca115,2021-09-08_18h20.24.463,forced_choiceRT,2021.1.2,MacIntel,60.0024001,j,1.9818,3,0,3,0,1,,,,,,,,,,,,,,,
,,,,,,,,,,,,610afc69d32d0b52165ca115,2021-09-08_18h20.24.463,forced_choiceRT,2021.1.2,MacIntel,60.0024001,j,1.9831,4,0,4,0,1,,,,,,,,,,,,,,,
,,,,,,,,,,,,610afc69d32d0b52165ca115,2021-09-08_18h20.24.463,forced_choiceRT,2021.1.2,MacIntel,60.0024001,j,2.0334,5,0,5,0,1,,,,,,,,,,,,,,,
,,,,,,,,,,,,610afc69d32d0b52165ca115,2021-09-08_18h20.24.463,forced_choiceRT,2021.1.2,MacIntel,60.0024001,j,2.0896,6,0,6,0,1,,,,,,,,,,,,,,,
,,,,,,,,,,,,610afc69d32d0b52165ca115,2021-09-08_18h20.24.463,forced_choiceRT,2021.1.2,MacIntel,60.0024001,j,1.9909,7,0,7,0,1,,,,,,,,,,,,,,,
,,,,,,,,,,,,610afc69d32d0b52165ca115,2021-09-08_18h20.24.463,forced_choiceRT,2021.1.2,MacIntel,60.0024001,j,1.9726,8,0,8,0,1,,,,,,,,,,,,,,,
,,,,,,,,,,,,610afc69d32d0b52165ca115,2021-09-08_18h20.24.463,forced_choiceRT,2021.1.2,MacIntel,60.0024001,j,1.9652,9,0,9,0,1,,,,,,,,,,,,,,,
,,,,,,,,,,,,610afc69d32d0b52165ca115,2021-09-08_18h20.24.463,forced_choiceRT,2021.1.2,MacIntel,60.0024001,j,2.1013,10,0,10,0,1,,,,,,,,,,,,,,,
,,,,,,,,,,,,610afc69d32d0b52165ca115,2021-09-08_18h20.24.463,forced_choiceRT,2021.1.2,MacIntel,60.0024001,j,2.0002,11,0,11,0,1,,,,,,,,,,,,,,,
,,,,,,,,,,,,610afc69d32d0b52165ca115,2021-09-08_18h20.24.463,forced_choiceRT,2021.1.2,MacIntel,60.0024001,j,2.068,12,0,12,0,1,,,,,,,,,,,,,,,
,,,,,,,,,,,,610afc69d32d0b52165ca115,2021-09-08_18h20.24.463,forced_choiceRT,2021.1.2,MacIntel,60.0024001,j,1.9668,13,0,13,0,1,,,,,,,,,,,,,,,
,,,,,,,,,,,,610afc69d32d0b52165ca115,2021-09-08_18h20.24.463,forced_choiceRT,2021.1.2,MacIntel,60.0024001,j,1.8668,14,0,14,0,1,,,,,,,,,,,,,,,
,,,,,,,,,,,,610afc69d32d0b52165ca115,2021-09-08_18h20.24.463,forced_choiceRT,2021.1.2,MacIntel,60.0024001,j,1.946,15,0,15,0,1,,,,,,,,,,,,,,,
,,,,,,,,,,,,610afc69d32d0b52165ca115,2021-09-08_18h20.24.463,forced_choiceRT,2021.1.2,MacIntel,60.0024001,j,1.9479,16,0,16,0,1,,,,,,,,,,,,,,,
,,,,,,,,,,,,610afc69d32d0b52165ca115,2021-09-08_18h20.24.463,forced_choiceRT,2021.1.2,MacIntel,60.0024001,j,2.0108,17,0,17,0,1,,,,,,,,,,,,,,,
,,,,,,,,,,,,610afc69d32d0b52165ca115,2021-09-08_18h20.24.463,forced_choiceRT,2021.1.2,MacIntel,60.0024001,j,1.8256,18,0,18,0,1,,,,,,,,,,,,,,,
,,,,,,,,,,,,610afc69d32d0b52165ca115,2021-09-08_18h20.24.463,forced_choiceRT,2021.1.2,MacIntel,60.0024001,h,1.9577,19,0,19,0,1,,,,,,,,,,,,,,,
,0.14,,,,,,,,,j.PNG,j,610afc69d32d0b52165ca115,2021-09-08_18h20.24.463,forced_choiceRT,2021.1.2,MacIntel,60.0024001,,,,,,,,1,Slow,j,1,7.81,0,0,0,3,1,,,,,
,1,,,,,,,,,h.PNG,h,610afc69d32d0b52165ca115,2021-09-08_18h20.24.463,forced_choiceRT,2021.1.2,MacIntel,60.0024001,,,,,,,,1,Slow,f,0,2.1667,0,1,1,2,1,,,,,
,1.23,,,,,,,,,g.PNG,g,610afc69d32d0b52165ca115,2021-09-08_18h20.24.463,forced_choiceRT,2021.1.2,MacIntel,60.0024001,,,,,,,,1,Slow,g,1,2.1243,0,2,2,1,1,,,,,
,1.79,,,,,,,,,g.PNG,g,610afc69d32d0b52165ca115,2021-09-08_18h20.24.463,forced_choiceRT,2021.1.2,MacIntel,60.0024001,,,,,,,,1,Ontime,h,0,1.9332,0,3,3,1,1,,,,,
,1.92,,,,,,,,,g.PNG,g,610afc69d32d0b52165ca115,2021-09-08_18h20.24.463,forced_choiceRT,2021.1.2,MacIntel,60.0024001,,,,,,,,1,Ontime,g,1,2.0718,1,0,4,1,1,,,,,
,0.24,,,,,,,,,f.PNG,f,610afc69d32d0b52165ca115,2021-09-08_18h20.24.463,forced_choiceRT,2021.1.2,MacIntel,60.0024001,,,,,,,,1,Ontime,f,1,2.0327,1,1,5,0,1,,,,,
,0.5,,,,,,,,,j.PNG,j,610afc69d32d0b52165ca115,2021-09-08_18h20.24.463,forced_choiceRT,2021.1.2,MacIntel,60.0024001,,,,,,,,1,Ontime,j,1,1.9525,1,2,6,3,1,,,,,
,1.37,,,,,,,,,g.PNG,g,610afc69d32d0b52165ca115,2021-09-08_18h20.24.463,forced_choiceRT,2021.1.2,MacIntel,60.0024001,,,,,,,,1,Slow,g,1,2.1748,1,3,7,1,1,,,,,
,1.13,,,,,,,,,f.PNG,f,610afc69d32d0b52165ca115,2021-09-08_18h20.24.463,forced_choiceRT,2021.1.2,MacIntel,60.0024001,,,,,,,,1,Ontime,f,1,1.9107,2,0,8,0,1,,,,,
,0.51,,,,,,,,,h.PNG,h,610afc69d32d0b52165ca115,2021-09-08_18h20.24.463,forced_choiceRT,2021.1.2,MacIntel,60.0024001,,,,,,,,1,Fast,j,0,1.7671,2,1,9,2,1,,,,,
,1.82,,,,,,,,,j.PNG,j,610afc69d32d0b52165ca115,2021-09-08_18h20.24.463,forced_choiceRT,2021.1.2,MacIntel,60.0024001,,,,,,,,1,Ontime,h,0,2.0477,2,2,10,3,1,,,,,
,1.19,,,,,,,,,j.PNG,j,610afc69d32d0b52165ca115,2021-09-08_18h20.24.463,forced_choiceRT,2021.1.2,MacIntel,60.0024001,,,,,,,,1,Ontime,j,1,2.0816,2,3,11,3,1,,,,,
,0.18,,,,,,,,,f.PNG,f,610afc69d32d0b52165ca115,2021-09-08_18h20.24.463,forced_choiceRT,2021.1.2,MacIntel,60.0024001,,,,,,,,1,Ontime,f,1,2.0226,3,0,12,0,1,,,,,
,0.37,,,,,,,,,j.PNG,j,610afc69d32d0b52165ca115,2021-09-08_18h20.24.463,forced_choiceRT,2021.1.2,MacIntel,60.0024001,,,,,,,,1,Fast,j,1,1.86,3,1,13,3,1,,,,,
,0.29,,,,,,,,,h.PNG,h,610afc69d32d0b52165ca115,2021-09-08_18h20.24.463,forced_choiceRT,2021.1.2,MacIntel,60.0024001,,,,,,,,1,Ontime,h,1,1.98,3,2,14,2,1,,,,,
,1.8,,,,,,,,,g.PNG,g,610afc69d32d0b52165ca115,2021-09-08_18h20.24.463,forced_choiceRT,2021.1.2,MacIntel,60.0024001,,,,,,,,1,Slow,g,1,2.4638,3,3,15,1,1,,,,,
,1.58,,,,,,,,,f.PNG,f,610afc69d32d0b52165ca115,2021-09-08_18h20.24.463,forced_choiceRT,2021.1.2,MacIntel,60.0024001,,,,,,,,1,Slow,f,1,2.3091,4,0,16,0,1,,,,,
,0.03,,,,,,,,,h.PNG,h,610afc69d32d0b52165ca115,2021-09-08_18h20.24.463,forced_choiceRT,2021.1.2,MacIntel,60.0024001,,,,,,,,1,Ontime,h,1,2.05,4,1,17,2,1,,,,,
,0.56,,,,,,,,,g.PNG,g,610afc69d32d0b52165ca115,2021-09-08_18h20.24.463,forced_choiceRT,2021.1.2,MacIntel,60.0024001,,,,,,,,1,Ontime,g,1,1.9656,4,2,18,1,1,,,,,
,1.04,,,,,,,,,g.PNG,g,610afc69d32d0b52165ca115,2021-09-08_18h20.24.463,forced_choiceRT,2021.1.2,MacIntel,60.0024001,,,,,,,,1,Ontime,g,1,2.0675,4,3,19,1,1,,,,,
,0.94,,,,,,,,,f.PNG,f,610afc69d32d0b52165ca115,2021-09-08_18h20.24.463,forced_choiceRT,2021.1.2,MacIntel,60.0024001,,,,,,,,1,Ontime,f,1,1.9711,5,0,20,0,1,,,,,
,0.08,,,,,,,,,h.PNG,h,610afc69d32d0b52165ca115,2021-09-08_18h20.24.463,forced_choiceRT,2021.1.2,MacIntel,60.0024001,,,,,,,,1,Fast,j,0,1.7995,5,1,21,2,1,,,,,
,0,,,,,,,,,h.PNG,h,610afc69d32d0b52165ca115,2021-09-08_18h20.24.463,forced_choiceRT,2021.1.2,MacIntel,60.0024001,,,,,,,,1,Fast,h,1,1.6307,5,2,22,2,1,,,,,
,0.63,,,,,,,,,h.PNG,h,610afc69d32d0b52165ca115,2021-09-08_18h20.24.463,forced_choiceRT,2021.1.2,MacIntel,60.0024001,,,,,,,,1,Slow,h,1,2.1552,5,3,23,2,1,,,,,
,1.74,,,,,,,,,g.PNG,g,610afc69d32d0b52165ca115,2021-09-08_18h20.24.463,forced_choiceRT,2021.1.2,MacIntel,60.0024001,,,,,,,,1,Slow,h,0,2.3076,6,0,24,1,1,,,,,
,0.44,,,,,,,,,h.PNG,h,610afc69d32d0b52165ca115,2021-09-08_18h20.24.463,forced_choiceRT,2021.1.2,MacIntel,60.0024001,,,,,,,,1,Ontime,h,1,2.0007,6,1,25,2,1,,,,,
,1.57,,,,,,,,,f.PNG,f,610afc69d32d0b52165ca115,2021-09-08_18h20.24.463,forced_choiceRT,2021.1.2,MacIntel,60.0024001,,,,,,,,1,Slow,f,1,2.3491,6,2,26,0,1,,,,,
,0.82,,,,,,,,,f.PNG,f,610afc69d32d0b52165ca115,2021-09-08_18h20.24.463,forced_choiceRT,2021.1.2,MacIntel,60.0024001,,,,,,,,1,Fast,f,1,1.7564,6,3,27,0,1,,,,,
,1.1,,,,,,,,,h.PNG,h,610afc69d32d0b52165ca115,2021-09-08_18h20.24.463,forced_choiceRT,2021.1.2,MacIntel,60.0024001,,,,,,,,1,Ontime,h,1,2.0824,7,0,28,2,1,,,,,
,0.15,,,,,,,,,f.PNG,f,610afc69d32d0b52165ca115,2021-09-08_18h20.24.463,forced_choiceRT,2021.1.2,MacIntel,60.0024001,,,,,,,,1,Ontime,f,1,1.9257,7,1,29,0,1,,,,,
,1.63,,,,,,,,,f.PNG,f,610afc69d32d0b52165ca115,2021-09-08_18h20.24.463,forced_choiceRT,2021.1.2,MacIntel,60.0024001,,,,,,,,1,Slow,h,0,2.2342,7,2,30,0,1,,,,,
,1.63,,,,,,,,,f.PNG,f,610afc69d32d0b52165ca115,2021-09-08_18h20.24.463,forced_choiceRT,2021.1.2,MacIntel,60.0024001,,,,,,,,1,Ontime,g,0,2.0187,7,3,31,0,1,,,,,
,0.11,,,,,,,,,g.PNG,g,610afc69d32d0b52165ca115,2021-09-08_18h20.24.463,forced_choiceRT,2021.1.2,MacIntel,60.0024001,,,,,,,,1,Ontime,g,1,2.0014,8,0,32,1,1,,,,,
,0.75,,,,,,,,,j.PNG,j,610afc69d32d0b52165ca115,2021-09-08_18h20.24.463,forced_choiceRT,2021.1.2,MacIntel,60.0024001,,,,,,,,1,Ontime,j,1,1.97,8,1,33,3,1,,,,,
,1.69,,,,,,,,,h.PNG,h,610afc69d32d0b52165ca115,2021-09-08_18h20.24.463,forced_choiceRT,2021.1.2,MacIntel,60.0024001,,,,,,,,1,Slow,h,1,2.1493,8,2,34,2,1,,,,,
,1.85,,,,,,,,,j.PNG,j,610afc69d32d0b52165ca115,2021-09-08_18h20.24.463,forced_choiceRT,2021.1.2,MacIntel,60.0024001,,,,,,,,1,Fast,h,0,1.8843,8,3,35,3,1,,,,,
,1.72,,,,,,,,,g.PNG,g,610afc69d32d0b52165ca115,2021-09-08_18h20.24.463,forced_choiceRT,2021.1.2,MacIntel,60.0024001,,,,,,,,1,Slow,j,0,2.1184,9,0,36,1,1,,,,,
,1.89,,,,,,,,,j.PNG,j,610afc69d32d0b52165ca115,2021-09-08_18h20.24.463,forced_choiceRT,2021.1.2,MacIntel,60.0024001,,,,,,,,1,Ontime,g,0,2.0961,9,1,37,3,1,,,,,
,0.08,,,,,,,,,j.PNG,j,610afc69d32d0b52165ca115,2021-09-08_18h20.24.463,forced_choiceRT,2021.1.2,MacIntel,60.0024001,,,,,,,,1,Fast,j,1,1.8013,9,2,38,3,1,,,,,
,1.7,,,,,,,,,j.PNG,j,610afc69d32d0b52165ca115,2021-09-08_18h20.24.463,forced_choiceRT,2021.1.2,MacIntel,60.0024001,,,,,,,,1,Slow,j,1,2.1306,9,3,39,3,1,,,,,
,,,,,,,,,,,,610afc69d32d0b52165ca115,2021-09-08_18h20.24.463,forced_choiceRT,2021.1.2,MacIntel,60.0024001,,,,,,,,,,,,,,,,,,0,0,0,0,1
,0.87,,,,,,,,,f.PNG,f,610afc69d32d0b52165ca115,2021-09-08_18h20.24.463,forced_choiceRT,2021.1.2,MacIntel,60.0024001,,,,,,,,2,Ontime,g,0,1.9028,0,0,0,0,1,,,,,
,1.49,,,,,,,,,g.PNG,g,610afc69d32d0b52165ca115,2021-09-08_18h20.24.463,forced_choiceRT,2021.1.2,MacIntel,60.0024001,,,,,,,,2,Ontime,h,0,1.9725,0,1,1,1,1,,,,,
,0.47,,,,,,,,,j.PNG,j,610afc69d32d0b52165ca115,2021-09-08_18h20.24.463,forced_choiceRT,2021.1.2,MacIntel,60.0024001,,,,,,,,2,Ontime,j,1,2.0406,0,2,2,3,1,,,,,
,0.82,,,,,,,,,f.PNG,f,610afc69d32d0b52165ca115,2021-09-08_18h20.24.463,forced_choiceRT,2021.1.2,MacIntel,60.0024001,,,,,,,,2,Fast,f,1,1.8877,0,3,3,0,1,,,,,
,1.56,,,,,,,,,g.PNG,g,610afc69d32d0b52165ca115,2021-09-08_18h20.24.463,forced_choiceRT,2021.1.2,MacIntel,60.0024001,,,,,,,,2,Ontime,h,0,2.099,1,0,4,1,1,,,,,
,0.88,,,,,,,,,g.PNG,g,610afc69d32d0b52165ca115,2021-09-08_18h20.24.463,forced_choiceRT,2021.1.2,MacIntel,60.0024001,,,,,,,,2,Ontime,g,1,1.9566,1,1,5,1,1,,,,,
,1.92,,,,,,,,,j.PNG,j,610afc69d32d0b52165ca115,2021-09-08_18h20.24.463,forced_choiceRT,2021.1.2,MacIntel,60.0024001,,,,,,,,2,Slow,h,0,2.1054,1,2,6,3,1,,,,,
,0.93,,,,,,,,,f.PNG,f,610afc69d32d0b52165ca115,2021-09-08_18h20.24.463,forced_choiceRT,2021.1.2,MacIntel,60.0024001,,,,,,,,2,Ontime,j,0,1.9035,1,3,7,0,1,,,,,
,1.77,,,,,,,,,f.PNG,f,610afc69d32d0b52165ca115,2021-09-08_18h20.24.463,forced_choiceRT,2021.1.2,MacIntel,60.0024001,,,,,,,,2,Ontime,h,0,1.9892,2,0,8,0,1,,,,,
,0.27,,,,,,,,,h.PNG,h,610afc69d32d0b52165ca115,2021-09-08_18h20.24.463,forced_choiceRT,2021.1.2,MacIntel,60.0024001,,,,,,,,2,Fast,g,0,1.8137,2,1,9,2,1,,,,,
,0.92,,,,,,,,,f.PNG,f,610afc69d32d0b52165ca115,2021-09-08_18h20.24.463,forced_choiceRT,2021.1.2,MacIntel,60.0024001,,,,,,,,2,Slow,f,1,2.1727,2,2,10,0,1,,,,,
,1.29,,,,,,,,,g.PNG,g,610afc69d32d0b52165ca115,2021-09-08_18h20.24.463,forced_choiceRT,2021.1.2,MacIntel,60.0024001,,,,,,,,2,Ontime,h,0,1.9821,2,3,11,1,1,,,,,
,0.95,,,,,,,,,h.PNG,h,610afc69d32d0b52165ca115,2021-09-08_18h20.24.463,forced_choiceRT,2021.1.2,MacIntel,60.0024001,,,,,,,,2,Ontime,h,1,2.0559,3,0,12,2,1,,,,,
,0.65,,,,,,,,,j.PNG,j,610afc69d32d0b52165ca115,2021-09-08_18h20.24.463,forced_choiceRT,2021.1.2,MacIntel,60.0024001,,,,,,,,2,Fast,j,1,1.8669,3,1,13,3,1,,,,,
,0.91,,,,,,,,,j.PNG,j,610afc69d32d0b52165ca115,2021-09-08_18h20.24.463,forced_choiceRT,2021.1.2,MacIntel,60.0024001,,,,,,,,2,Fast,j,1,1.8886,3,2,14,3,1,,,,,
,1.03,,,,,,,,,h.PNG,h,610afc69d32d0b52165ca115,2021-09-08_18h20.24.463,forced_choiceRT,2021.1.2,MacIntel,60.0024001,,,,,,,,2,Ontime,h,1,2.0562,3,3,15,2,1,,,,,
,1.34,,,,,,,,,h.PNG,h,610afc69d32d0b52165ca115,2021-09-08_18h20.24.463,forced_choiceRT,2021.1.2,MacIntel,60.0024001,,,,,,,,2,Fast,f,0,1.8387,4,0,16,2,1,,,,,
,0.71,,,,,,,,,h.PNG,h,610afc69d32d0b52165ca115,2021-09-08_18h20.24.463,forced_choiceRT,2021.1.2,MacIntel,60.0024001,,,,,,,,2,Slow,h,1,2.2218,4,1,17,2,1,,,,,
,1.61,,,,,,,,,g.PNG,g,610afc69d32d0b52165ca115,2021-09-08_18h20.24.463,forced_choiceRT,2021.1.2,MacIntel,60.0024001,,,,,,,,2,Ontime,j,0,1.9889,4,2,18,1,1,,,,,
,0.08,,,,,,,,,j.PNG,j,610afc69d32d0b52165ca115,2021-09-08_18h20.24.463,forced_choiceRT,2021.1.2,MacIntel,60.0024001,,,,,,,,2,Ontime,j,1,2.0069,4,3,19,3,1,,,,,
,0.69,,,,,,,,,g.PNG,g,610afc69d32d0b52165ca115,2021-09-08_18h20.24.463,forced_choiceRT,2021.1.2,MacIntel,60.0024001,,,,,,,,2,Ontime,h,0,1.9671,5,0,20,1,1,,,,,
,0.91,,,,,,,,,h.PNG,h,610afc69d32d0b52165ca115,2021-09-08_18h20.24.463,forced_choiceRT,2021.1.2,MacIntel,60.0024001,,,,,,,,2,Ontime,h,1,1.9555,5,1,21,2,1,,,,,
,0.94,,,,,,,,,f.PNG,f,610afc69d32d0b52165ca115,2021-09-08_18h20.24.463,forced_choiceRT,2021.1.2,MacIntel,60.0024001,,,,,,,,2,Ontime,f,1,2.0151,5,2,22,0,1,,,,,
,0.35,,,,,,,,,f.PNG,f,610afc69d32d0b52165ca115,2021-09-08_18h20.24.463,forced_choiceRT,2021.1.2,MacIntel,60.0024001,,,,,,,,2,Ontime,f,1,2.0879,5,3,23,0,1,,,,,
,0.01,,,,,,,,,f.PNG,f,610afc69d32d0b52165ca115,2021-09-08_18h20.24.463,forced_choiceRT,2021.1.2,MacIntel,60.0024001,,,,,,,,2,Ontime,f,1,1.94,6,0,24,0,1,,,,,
,1.24,,,,,,,,,j.PNG,j,610afc69d32d0b52165ca115,2021-09-08_18h20.24.463,forced_choiceRT,2021.1.2,MacIntel,60.0024001,,,,,,,,2,Slow,j,1,2.3548,6,1,25,3,1,,,,,
,0.46,,,,,,,,,j.PNG,j,610afc69d32d0b52165ca115,2021-09-08_18h20.24.463,forced_choiceRT,2021.1.2,MacIntel,60.0024001,,,,,,,,2,Fast,j,1,1.7361,6,2,26,3,1,,,,,
,0.11,,,,,,,,,g.PNG,g,610afc69d32d0b52165ca115,2021-09-08_18h20.24.463,forced_choiceRT,2021.1.2,MacIntel,60.0024001,,,,,,,,2,Ontime,g,1,2.0628,6,3,27,1,1,,,,,
,0.21,,,,,,,,,f.PNG,f,610afc69d32d0b52165ca115,2021-09-08_18h20.24.463,forced_choiceRT,2021.1.2,MacIntel,60.0024001,,,,,,,,2,Ontime,f,1,2.0545,7,0,28,0,1,,,,,
,1.42,,,,,,,,,g.PNG,g,610afc69d32d0b52165ca115,2021-09-08_18h20.24.463,forced_choiceRT,2021.1.2,MacIntel,60.0024001,,,,,,,,2,Ontime,g,1,2.0224,7,1,29,1,1,,,,,
,1.15,,,,,,,,,j.PNG,j,610afc69d32d0b52165ca115,2021-09-08_18h20.24.463,forced_choiceRT,2021.1.2,MacIntel,60.0024001,,,,,,,,2,Ontime,j,1,2.082,7,2,30,3,1,,,,,
,0.82,,,,,,,,,h.PNG,h,610afc69d32d0b52165ca115,2021-09-08_18h20.24.463,forced_choiceRT,2021.1.2,MacIntel,60.0024001,,,,,,,,2,Ontime,h,1,2.0933,7,3,31,2,1,,,,,
,0.39,,,,,,,,,j.PNG,j,610afc69d32d0b52165ca115,2021-09-08_18h20.24.463,forced_choiceRT,2021.1.2,MacIntel,60.0024001,,,,,,,,2,Fast,j,1,1.8333,8,0,32,3,1,,,,,
,1.04,,,,,,,,,h.PNG,h,610afc69d32d0b52165ca115,2021-09-08_18h20.24.463,forced_choiceRT,2021.1.2,MacIntel,60.0024001,,,,,,,,2,Ontime,g,0,1.9766,8,1,33,2,1,,,,,
,1.84,,,,,,,,,g.PNG,g,610afc69d32d0b52165ca115,2021-09-08_18h20.24.463,forced_choiceRT,2021.1.2,MacIntel,60.0024001,,,,,,,,2,Slow,g,1,2.326,8,2,34,1,1,,,,,
,1.87,,,,,,,,,g.PNG,g,610afc69d32d0b52165ca115,2021-09-08_18h20.24.463,forced_choiceRT,2021.1.2,MacIntel,60.0024001,,,,,,,,2,Ontime,h,0,2.0124,8,3,35,1,1,,,,,
,1.52,,,,,,,,,j.PNG,j,610afc69d32d0b52165ca115,2021-09-08_18h20.24.463,forced_choiceRT,2021.1.2,MacIntel,60.0024001,,,,,,,,2,Ontime,g,0,1.9539,9,0,36,3,1,,,,,
,1.8,,,,,,,,,h.PNG,h,610afc69d32d0b52165ca115,2021-09-08_18h20.24.463,forced_choiceRT,2021.1.2,MacIntel,60.0024001,,,,,,,,2,Ontime,h,1,2.0402,9,1,37,2,1,,,,,
,0.11,,,,,,,,,f.PNG,f,610afc69d32d0b52165ca115,2021-09-08_18h20.24.463,forced_choiceRT,2021.1.2,MacIntel,60.0024001,,,,,,,,2,Ontime,f,1,2.0575,9,2,38,0,1,,,,,
,0.57,,,,,,,,,h.PNG,h,610afc69d32d0b52165ca115,2021-09-08_18h20.24.463,forced_choiceRT,2021.1.2,MacIntel,60.0024001,,,,,,,,2,Ontime,g,0,1.9731,9,3,39,2,1,,,,,
,,,,,,,,,,,,610afc69d32d0b52165ca115,2021-09-08_18h20.24.463,forced_choiceRT,2021.1.2,MacIntel,60.0024001,,,,,,,,,,,,,,,,,,1,0,1,0,1
,1.77,,,,,,,,,f.PNG,f,610afc69d32d0b52165ca115,2021-09-08_18h20.24.463,forced_choiceRT,2021.1.2,MacIntel,60.0024001,,,,,,,,3,Slow,g,0,2.2865,0,0,0,0,1,,,,,
,1.01,,,,,,,,,h.PNG,h,610afc69d32d0b52165ca115,2021-09-08_18h20.24.463,forced_choiceRT,2021.1.2,MacIntel,60.0024001,,,,,,,,3,Fast,g,0,1.6659,0,1,1,2,1,,,,,
,0.3,,,,,,,,,g.PNG,g,610afc69d32d0b52165ca115,2021-09-08_18h20.24.463,forced_choiceRT,2021.1.2,MacIntel,60.0024001,,,,,,,,3,Ontime,g,1,1.9202,0,2,2,1,1,,,,,
,1.25,,,,,,,,,h.PNG,h,610afc69d32d0b52165ca115,2021-09-08_18h20.24.463,forced_choiceRT,2021.1.2,MacIntel,60.0024001,,,,,,,,3,Fast,h,1,1.7379,0,3,3,2,1,,,,,
,1.54,,,,,,,,,h.PNG,h,610afc69d32d0b52165ca115,2021-09-08_18h20.24.463,forced_choiceRT,2021.1.2,MacIntel,60.0024001,,,,,,,,3,Slow,g,0,2.1221,1,0,4,2,1,,,,,
,1.14,,,,,,,,,h.PNG,h,610afc69d32d0b52165ca115,2021-09-08_18h20.24.463,forced_choiceRT,2021.1.2,MacIntel,60.0024001,,,,,,,,3,Ontime,h,1,2.0218,1,1,5,2,1,,,,,
,1.61,,,,,,,,,j.PNG,j,610afc69d32d0b52165ca115,2021-09-08_18h20.24.463,forced_choiceRT,2021.1.2,MacIntel,60.0024001,,,,,,,,3,Slow,h,0,3.6501,1,2,6,3,1,,,,,
,1.66,,,,,,,,,g.PNG,g,610afc69d32d0b52165ca115,2021-09-08_18h20.24.463,forced_choiceRT,2021.1.2,MacIntel,60.0024001,,,,,,,,3,Ontime,h,0,1.9674,1,3,7,1,1,,,,,
,0.3,,,,,,,,,f.PNG,f,610afc69d32d0b52165ca115,2021-09-08_18h20.24.463,forced_choiceRT,2021.1.2,MacIntel,60.0024001,,,,,,,,3,Ontime,f,1,2.0662,2,0,8,0,1,,,,,
,1.69,,,,,,,,,j.PNG,j,610afc69d32d0b52165ca115,2021-09-08_18h20.24.463,forced_choiceRT,2021.1.2,MacIntel,60.0024001,,,,,,,,3,Ontime,h,0,2.0487,2,1,9,3,1,,,,,
,0.52,,,,,,,,,f.PNG,f,610afc69d32d0b52165ca115,2021-09-08_18h20.24.463,forced_choiceRT,2021.1.2,MacIntel,60.0024001,,,,,,,,3,Ontime,f,1,1.9662,2,2,10,0,1,,,,,
,1.98,,,,,,,,,j.PNG,j,610afc69d32d0b52165ca115,2021-09-08_18h20.24.463,forced_choiceRT,2021.1.2,MacIntel,60.0024001,,,,,,,,3,Ontime,g,0,2.0839,2,3,11,3,1,,,,,
,0.42,,,,,,,,,h.PNG,h,610afc69d32d0b52165ca115,2021-09-08_18h20.24.463,forced_choiceRT,2021.1.2,MacIntel,60.0024001,,,,,,,,3,Ontime,h,1,2.0229,3,0,12,2,1,,,,,
,0.97,,,,,,,,,g.PNG,g,610afc69d32d0b52165ca115,2021-09-08_18h20.24.463,forced_choiceRT,2021.1.2,MacIntel,60.0024001,,,,,,,,3,Ontime,g,1,1.9992,3,1,13,1,1,,,,,
,0.82,,,,,,,,,j.PNG,j,610afc69d32d0b52165ca115,2021-09-08_18h20.24.463,forced_choiceRT,2021.1.2,MacIntel,60.0024001,,,,,,,,3,Ontime,j,1,1.9401,3,2,14,3,1,,,,,
,0.63,,,,,,,,,j.PNG,j,610afc69d32d0b52165ca115,2021-09-08_18h20.24.463,forced_choiceRT,2021.1.2,MacIntel,60.0024001,,,,,,,,3,Ontime,j,1,2.0341,3,3,15,3,1,,,,,
,1.76,,,,,,,,,f.PNG,f,610afc69d32d0b52165ca115,2021-09-08_18h20.24.463,forced_choiceRT,2021.1.2,MacIntel,60.0024001,,,,,,,,3,Slow,j,0,2.171,4,0,16,0,1,,,,,
,0.94,,,,,,,,,h.PNG,h,610afc69d32d0b52165ca115,2021-09-08_18h20.24.463,forced_choiceRT,2021.1.2,MacIntel,60.0024001,,,,,,,,3,Ontime,h,1,1.9579,4,1,17,2,1,,,,,
,0.53,,,,,,,,,h.PNG,h,610afc69d32d0b52165ca115,2021-09-08_18h20.24.463,forced_choiceRT,2021.1.2,MacIntel,60.0024001,,,,,,,,3,Ontime,h,1,1.9846,4,2,18,2,1,,,,,
,0.16,,,,,,,,,g.PNG,g,610afc69d32d0b52165ca115,2021-09-08_18h20.24.463,forced_choiceRT,2021.1.2,MacIntel,60.0024001,,,,,,,,3,Ontime,g,1,2.0214,4,3,19,1,1,,,,,
,0.99,,,,,,,,,h.PNG,h,610afc69d32d0b52165ca115,2021-09-08_18h20.24.463,forced_choiceRT,2021.1.2,MacIntel,60.0024001,,,,,,,,3,Ontime,h,1,2.0668,5,0,20,2,1,,,,,
,1.16,,,,,,,,,j.PNG,j,610afc69d32d0b52165ca115,2021-09-08_18h20.24.463,forced_choiceRT,2021.1.2,MacIntel,60.0024001,,,,,,,,3,Ontime,j,1,2.0145,5,1,21,3,1,,,,,
,1.91,,,,,,,,,g.PNG,g,610afc69d32d0b52165ca115,2021-09-08_18h20.24.463,forced_choiceRT,2021.1.2,MacIntel,60.0024001,,,,,,,,3,Slow,j,0,2.2231,5,2,22,1,1,,,,,
,0.79,,,,,,,,,g.PNG,g,610afc69d32d0b52165ca115,2021-09-08_18h20.24.463,forced_choiceRT,2021.1.2,MacIntel,60.0024001,,,,,,,,3,Ontime,g,1,1.9314,5,3,23,1,1,,,,,
,1.86,,,,,,,,,g.PNG,g,610afc69d32d0b52165ca115,2021-09-08_18h20.24.463,forced_choiceRT,2021.1.2,MacIntel,60.0024001,,,,,,,,3,Ontime,g,1,2.0731,6,0,24,1,1,,,,,
,0.35,,,,,,,,,j.PNG,j,610afc69d32d0b52165ca115,2021-09-08_18h20.24.463,forced_choiceRT,2021.1.2,MacIntel,60.0024001,,,,,,,,3,Ontime,j,1,2.0227,6,1,25,3,1,,,,,
,0.18,,,,,,,,,j.PNG,j,610afc69d32d0b52165ca115,2021-09-08_18h20.24.463,forced_choiceRT,2021.1.2,MacIntel,60.0024001,,,,,,,,3,Ontime,j,1,2.0369,6,2,26,3,1,,,,,
,1.13,,,,,,,,,g.PNG,g,610afc69d32d0b52165ca115,2021-09-08_18h20.24.463,forced_choiceRT,2021.1.2,MacIntel,60.0024001,,,,,,,,3,Ontime,g,1,2.0508,6,3,27,1,1,,,,,
,1.81,,,,,,,,,g.PNG,g,610afc69d32d0b52165ca115,2021-09-08_18h20.24.463,forced_choiceRT,2021.1.2,MacIntel,60.0024001,,,,,,,,3,Ontime,j,0,2.0404,7,0,28,1,1,,,,,
,0.2,,,,,,,,,f.PNG,f,610afc69d32d0b52165ca115,2021-09-08_18h20.24.463,forced_choiceRT,2021.1.2,MacIntel,60.0024001,,,,,,,,3,Fast,f,1,1.8002,7,1,29,0,1,,,,,
,0.06,,,,,,,,,f.PNG,f,610afc69d32d0b52165ca115,2021-09-08_18h20.24.463,forced_choiceRT,2021.1.2,MacIntel,60.0024001,,,,,,,,3,Ontime,f,1,2.0406,7,2,30,0,1,,,,,
,1.06,,,,,,,,,g.PNG,g,610afc69d32d0b52165ca115,2021-09-08_18h20.24.463,forced_choiceRT,2021.1.2,MacIntel,60.0024001,,,,,,,,3,Ontime,g,1,2.0419,7,3,31,1,1,,,,,
,1.64,,,,,,,,,h.PNG,h,610afc69d32d0b52165ca115,2021-09-08_18h20.24.463,forced_choiceRT,2021.1.2,MacIntel,60.0024001,,,,,,,,3,Slow,g,0,2.1546,8,0,32,2,1,,,,,
,1.22,,,,,,,,,j.PNG,j,610afc69d32d0b52165ca115,2021-09-08_18h20.24.463,forced_choiceRT,2021.1.2,MacIntel,60.0024001,,,,,,,,3,Fast,h,0,1.7988,8,1,33,3,1,,,,,
,1.97,,,,,,,,,f.PNG,f,610afc69d32d0b52165ca115,2021-09-08_18h20.24.463,forced_choiceRT,2021.1.2,MacIntel,60.0024001,,,,,,,,3,Slow,j,0,2.1342,8,2,34,0,1,,,,,
,1.6,,,,,,,,,j.PNG,j,610afc69d32d0b52165ca115,2021-09-08_18h20.24.463,forced_choiceRT,2021.1.2,MacIntel,60.0024001,,,,,,,,3,Ontime,h,0,2.0338,8,3,35,3,1,,,,,
,0.89,,,,,,,,,h.PNG,h,610afc69d32d0b52165ca115,2021-09-08_18h20.24.463,forced_choiceRT,2021.1.2,MacIntel,60.0024001,,,,,,,,3,Fast,h,1,1.8876,9,0,36,2,1,,,,,
,1.59,,,,,,,,,f.PNG,f,610afc69d32d0b52165ca115,2021-09-08_18h20.24.463,forced_choiceRT,2021.1.2,MacIntel,60.0024001,,,,,,,,3,Slow,h,0,2.1319,9,1,37,0,1,,,,,
,0,,,,,,,,,f.PNG,f,610afc69d32d0b52165ca115,2021-09-08_18h20.24.463,forced_choiceRT,2021.1.2,MacIntel,60.0024001,,,,,,,,3,Ontime,f,1,2.089,9,2,38,0,1,,,,,
,1.99,,,,,,,,,f.PNG,f,610afc69d32d0b52165ca115,2021-09-08_18h20.24.463,forced_choiceRT,2021.1.2,MacIntel,60.0024001,,,,,,,,3,Ontime,g,0,2.0494,9,3,39,0,1,,,,,
,,,,,,,,,,,,610afc69d32d0b52165ca115,2021-09-08_18h20.24.463,forced_choiceRT,2021.1.2,MacIntel,60.0024001,,,,,,,,,,,,,,,,,,2,0,2,0,1
,1.61,,,,,,,,,h.PNG,h,610afc69d32d0b52165ca115,2021-09-08_18h20.24.463,forced_choiceRT,2021.1.2,MacIntel,60.0024001,,,,,,,,4,Slow,g,0,2.355,0,0,0,2,1,,,,,
,0.21,,,,,,,,,h.PNG,h,610afc69d32d0b52165ca115,2021-09-08_18h20.24.463,forced_choiceRT,2021.1.2,MacIntel,60.0024001,,,,,,,,4,Ontime,h,1,1.9702,0,1,1,2,1,,,,,
,1.33,,,,,,,,,j.PNG,j,610afc69d32d0b52165ca115,2021-09-08_18h20.24.463,forced_choiceRT,2021.1.2,MacIntel,60.0024001,,,,,,,,4,Slow,j,1,2.1715,0,2,2,3,1,,,,,
,1.55,,,,,,,,,h.PNG,h,610afc69d32d0b52165ca115,2021-09-08_18h20.24.463,forced_choiceRT,2021.1.2,MacIntel,60.0024001,,,,,,,,4,Ontime,g,0,2.0371,0,3,3,2,1,,,,,
,1.22,,,,,,,,,g.PNG,g,610afc69d32d0b52165ca115,2021-09-08_18h20.24.463,forced_choiceRT,2021.1.2,MacIntel,60.0024001,,,,,,,,4,Fast,h,0,1.8656,1,0,4,1,1,,,,,
,1.72,,,,,,,,,h.PNG,h,610afc69d32d0b52165ca115,2021-09-08_18h20.24.463,forced_choiceRT,2021.1.2,MacIntel,60.0024001,,,,,,,,4,Ontime,g,0,2.0508,1,1,5,2,1,,,,,
,1.73,,,,,,,,,h.PNG,h,610afc69d32d0b52165ca115,2021-09-08_18h20.24.463,forced_choiceRT,2021.1.2,MacIntel,60.0024001,,,,,,,,4,Ontime,g,0,1.9192,1,2,6,2,1,,,,,
,0.91,,,,,,,,,g.PNG,g,610afc69d32d0b52165ca115,2021-09-08_18h20.24.463,forced_choiceRT,2021.1.2,MacIntel,60.0024001,,,,,,,,4,Fast,g,1,1.5865,1,3,7,1,1,,,,,
,0.39,,,,,,,,,f.PNG,f,610afc69d32d0b52165ca115,2021-09-08_18h20.24.463,forced_choiceRT,2021.1.2,MacIntel,60.0024001,,,,,,,,4,Ontime,f,1,2.0827,2,0,8,0,1,,,,,
,0.45,,,,,,,,,g.PNG,g,610afc69d32d0b52165ca115,2021-09-08_18h20.24.463,forced_choiceRT,2021.1.2,MacIntel,60.0024001,,,,,,,,4,Slow,g,1,2.2726,2,1,9,1,1,,,,,
,0.61,,,,,,,,,j.PNG,j,610afc69d32d0b52165ca115,2021-09-08_18h20.24.463,forced_choiceRT,2021.1.2,MacIntel,60.0024001,,,,,,,,4,Ontime,j,1,2.0382,2,2,10,3,1,,,,,
,0.31,,,,,,,,,f.PNG,f,610afc69d32d0b52165ca115,2021-09-08_18h20.24.463,forced_choiceRT,2021.1.2,MacIntel,60.0024001,,,,,,,,4,Slow,f,1,2.1156,2,3,11,0,1,,,,,
,1.69,,,,,,,,,f.PNG,f,610afc69d32d0b52165ca115,2021-09-08_18h20.24.463,forced_choiceRT,2021.1.2,MacIntel,60.0024001,,,,,,,,4,Ontime,g,0,2.0701,3,0,12,0,1,,,,,
,1.49,,,,,,,,,j.PNG,j,610afc69d32d0b52165ca115,2021-09-08_18h20.24.463,forced_choiceRT,2021.1.2,MacIntel,60.0024001,,,,,,,,4,Slow,g,0,2.1523,3,1,13,3,1,,,,,
,1.92,,,,,,,,,h.PNG,h,610afc69d32d0b52165ca115,2021-09-08_18h20.24.463,forced_choiceRT,2021.1.2,MacIntel,60.0024001,,,,,,,,4,Ontime,j,0,1.9001,3,2,14,2,1,,,,,
,1.05,,,,,,,,,g.PNG,g,610afc69d32d0b52165ca115,2021-09-08_18h20.24.463,forced_choiceRT,2021.1.2,MacIntel,60.0024001,,,,,,,,4,Ontime,j,0,1.9155,3,3,15,1,1,,,,,
,0.39,,,,,,,,,j.PNG,j,610afc69d32d0b52165ca115,2021-09-08_18h20.24.463,forced_choiceRT,2021.1.2,MacIntel,60.0024001,,,,,,,,4,Ontime,j,1,2.0561,4,0,16,3,1,,,,,
,0.72,,,,,,,,,h.PNG,h,610afc69d32d0b52165ca115,2021-09-08_18h20.24.463,forced_choiceRT,2021.1.2,MacIntel,60.0024001,,,,,,,,4,Fast,h,1,1.8227,4,1,17,2,1,,,,,
,1.52,,,,,,,,,g.PNG,g,610afc69d32d0b52165ca115,2021-09-08_18h20.24.463,forced_choiceRT,2021.1.2,MacIntel,60.0024001,,,,,,,,4,Ontime,h,0,2.0396,4,2,18,1,1,,,,,
,0.63,,,,,,,,,g.PNG,g,610afc69d32d0b52165ca115,2021-09-08_18h20.24.463,forced_choiceRT,2021.1.2,MacIntel,60.0024001,,,,,,,,4,Slow,g,1,2.1057,4,3,19,1,1,,,,,
,1.35,,,,,,,,,g.PNG,g,610afc69d32d0b52165ca115,2021-09-08_18h20.24.463,forced_choiceRT,2021.1.2,MacIntel,60.0024001,,,,,,,,4,Fast,g,1,1.7667,5,0,20,1,1,,,,,
,0.2,,,,,,,,,f.PNG,f,610afc69d32d0b52165ca115,2021-09-08_18h20.24.463,forced_choiceRT,2021.1.2,MacIntel,60.0024001,,,,,,,,4,Ontime,f,1,2.001,5,1,21,0,1,,,,,
,1.75,,,,,,,,,j.PNG,j,610afc69d32d0b52165ca115,2021-09-08_18h20.24.463,forced_choiceRT,2021.1.2,MacIntel,60.0024001,,,,,,,,4,Ontime,h,0,2.0218,5,2,22,3,1,,,,,
,1.61,,,,,,,,,j.PNG,j,610afc69d32d0b52165ca115,2021-09-08_18h20.24.463,forced_choiceRT,2021.1.2,MacIntel,60.0024001,,,,,,,,4,Slow,j,1,2.155,5,3,23,3,1,,,,,
,0.48,,,,,,,,,f.PNG,f,610afc69d32d0b52165ca115,2021-09-08_18h20.24.463,forced_choiceRT,2021.1.2,MacIntel,60.0024001,,,,,,,,4,Ontime,f,1,1.9172,6,0,24,0,1,,,,,
,1.44,,,,,,,,,f.PNG,f,610afc69d32d0b52165ca115,2021-09-08_18h20.24.463,forced_choiceRT,2021.1.2,MacIntel,60.0024001,,,,,,,,4,Slow,f,1,2.1898,6,1,25,0,1,,,,,
,1.44,,,,,,,,,f.PNG,f,610afc69d32d0b52165ca115,2021-09-08_18h20.24.463,forced_choiceRT,2021.1.2,MacIntel,60.0024001,,,,,,,,4,Fast,g,0,1.7496,6,2,26,0,1,,,,,
,1.57,,,,,,,,,f.PNG,f,610afc69d32d0b52165ca115,2021-09-08_18h20.24.463,forced_choiceRT,2021.1.2,MacIntel,60.0024001,,,,,,,,4,Slow,f,1,2.2375,6,3,27,0,1,,,,,
,0.58,,,,,,,,,h.PNG,h,610afc69d32d0b52165ca115,2021-09-08_18h20.24.463,forced_choiceRT,2021.1.2,MacIntel,60.0024001,,,,,,,,4,Ontime,g,0,2.0615,7,0,28,2,1,,,,,
,1.55,,,,,,,,,g.PNG,g,610afc69d32d0b52165ca115,2021-09-08_18h20.24.463,forced_choiceRT,2021.1.2,MacIntel,60.0024001,,,,,,,,4,Fast,h,0,1.8381,7,1,29,1,1,,,,,
,0.49,,,,,,,,,j.PNG,j,610afc69d32d0b52165ca115,2021-09-08_18h20.24.463,forced_choiceRT,2021.1.2,MacIntel,60.0024001,,,,,,,,4,Ontime,j,1,2.05,7,2,30,3,1,,,,,
,1.93,,,,,,,,,j.PNG,j,610afc69d32d0b52165ca115,2021-09-08_18h20.24.463,forced_choiceRT,2021.1.2,MacIntel,60.0024001,,,,,,,,4,Slow,h,0,2.3219,7,3,31,3,1,,,,,
,0.29,,,,,,,,,j.PNG,j,610afc69d32d0b52165ca115,2021-09-08_18h20.24.463,forced_choiceRT,2021.1.2,MacIntel,60.0024001,,,,,,,,4,Ontime,j,1,2.0885,8,0,32,3,1,,,,,
,0.73,,,,,,,,,f.PNG,f,610afc69d32d0b52165ca115,2021-09-08_18h20.24.463,forced_choiceRT,2021.1.2,MacIntel,60.0024001,,,,,,,,4,Slow,f,1,2.1235,8,1,33,0,1,,,,,
,1.27,,,,,,,,,g.PNG,g,610afc69d32d0b52165ca115,2021-09-08_18h20.24.463,forced_choiceRT,2021.1.2,MacIntel,60.0024001,,,,,,,,4,Ontime,h,0,2.0328,8,2,34,1,1,,,,,
,0.36,,,,,,,,,h.PNG,h,610afc69d32d0b52165ca115,2021-09-08_18h20.24.463,forced_choiceRT,2021.1.2,MacIntel,60.0024001,,,,,,,,4,Ontime,g,0,1.9334,8,3,35,2,1,,,,,
,0.38,,,,,,,,,j.PNG,j,610afc69d32d0b52165ca115,2021-09-08_18h20.24.463,forced_choiceRT,2021.1.2,MacIntel,60.0024001,,,,,,,,4,Ontime,j,1,2.0995,9,0,36,3,1,,,,,
,0.41,,,,,,,,,g.PNG,g,610afc69d32d0b52165ca115,2021-09-08_18h20.24.463,forced_choiceRT,2021.1.2,MacIntel,60.0024001,,,,,,,,4,Ontime,g,1,2.0227,9,1,37,1,1,,,,,
,1.08,,,,,,,,,h.PNG,h,610afc69d32d0b52165ca115,2021-09-08_18h20.24.463,forced_choiceRT,2021.1.2,MacIntel,60.0024001,,,,,,,,4,Slow,h,1,2.1106,9,2,38,2,1,,,,,
,1.85,,,,,,,,,f.PNG,f,610afc69d32d0b52165ca115,2021-09-08_18h20.24.463,forced_choiceRT,2021.1.2,MacIntel,60.0024001,,,,,,,,4,Ontime,g,0,1.9901,9,3,39,0,1,,,,,
,,,,,,,,,,,,610afc69d32d0b52165ca115,2021-09-08_18h20.24.463,forced_choiceRT,2021.1.2,MacIntel,60.0024001,,,,,,,,,,,,,,,,,,3,0,3,0,1
,1.56,,,,,,,,,h.PNG,h,610afc69d32d0b52165ca115,2021-09-08_18h20.24.463,forced_choiceRT,2021.1.2,MacIntel,60.0024001,,,,,,,,5,Ontime,h,1,1.9624,0,0,0,2,1,,,,,
,0.06,,,,,,,,,h.PNG,h,610afc69d32d0b52165ca115,2021-09-08_18h20.24.463,forced_choiceRT,2021.1.2,MacIntel,60.0024001,,,,,,,,5,Ontime,h,1,2.0502,0,1,1,2,1,,,,,
,1.78,,,,,,,,,f.PNG,f,610afc69d32d0b52165ca115,2021-09-08_18h20.24.463,forced_choiceRT,2021.1.2,MacIntel,60.0024001,,,,,,,,5,Slow,h,0,2.1335,0,2,2,0,1,,,,,
,1.6,,,,,,,,,h.PNG,h,610afc69d32d0b52165ca115,2021-09-08_18h20.24.463,forced_choiceRT,2021.1.2,MacIntel,60.0024001,,,,,,,,5,Slow,g,0,2.1388,0,3,3,2,1,,,,,
,0.72,,,,,,,,,j.PNG,j,610afc69d32d0b52165ca115,2021-09-08_18h20.24.463,forced_choiceRT,2021.1.2,MacIntel,60.0024001,,,,,,,,5,Ontime,j,1,2.007,1,0,4,3,1,,,,,
,0.47,,,,,,,,,g.PNG,g,610afc69d32d0b52165ca115,2021-09-08_18h20.24.463,forced_choiceRT,2021.1.2,MacIntel,60.0024001,,,,,,,,5,Ontime,g,1,2.0265,1,1,5,1,1,,,,,
,1.44,,,,,,,,,f.PNG,f,610afc69d32d0b52165ca115,2021-09-08_18h20.24.463,forced_choiceRT,2021.1.2,MacIntel,60.0024001,,,,,,,,5,Slow,f,1,3.0055,1,2,6,0,1,,,,,
,0.4,,,,,,,,,g.PNG,g,610afc69d32d0b52165ca115,2021-09-08_18h20.24.463,forced_choiceRT,2021.1.2,MacIntel,60.0024001,,,,,,,,5,Ontime,g,1,2.034,1,3,7,1,1,,,,,
,0.43,,,,,,,,,g.PNG,g,610afc69d32d0b52165ca115,2021-09-08_18h20.24.463,forced_choiceRT,2021.1.2,MacIntel,60.0024001,,,,,,,,5,Ontime,g,1,1.9549,2,0,8,1,1,,,,,
,1.26,,,,,,,,,h.PNG,h,610afc69d32d0b52165ca115,2021-09-08_18h20.24.463,forced_choiceRT,2021.1.2,MacIntel,60.0024001,,,,,,,,5,Ontime,h,1,1.9667,2,1,9,2,1,,,,,
,1.97,,,,,,,,,f.PNG,f,610afc69d32d0b52165ca115,2021-09-08_18h20.24.463,forced_choiceRT,2021.1.2,MacIntel,60.0024001,,,,,,,,5,Slow,h,0,2.1378,2,2,10,0,1,,,,,
,0.81,,,,,,,,,h.PNG,h,610afc69d32d0b52165ca115,2021-09-08_18h20.24.463,forced_choiceRT,2021.1.2,MacIntel,60.0024001,,,,,,,,5,Ontime,h,1,2.0092,2,3,11,2,1,,,,,
,0.18,,,,,,,,,g.PNG,g,610afc69d32d0b52165ca115,2021-09-08_18h20.24.463,forced_choiceRT,2021.1.2,MacIntel,60.0024001,,,,,,,,5,Ontime,g,1,1.9845,3,0,12,1,1,,,,,
,0.46,,,,,,,,,g.PNG,g,610afc69d32d0b52165ca115,2021-09-08_18h20.24.463,forced_choiceRT,2021.1.2,MacIntel,60.0024001,,,,,,,,5,Ontime,g,1,1.9547,3,1,13,1,1,,,,,
,1.36,,,,,,,,,j.PNG,j,610afc69d32d0b52165ca115,2021-09-08_18h20.24.463,forced_choiceRT,2021.1.2,MacIntel,60.0024001,,,,,,,,5,Ontime,h,0,2.032,3,2,14,3,1,,,,,
,1.56,,,,,,,,,j.PNG,j,610afc69d32d0b52165ca115,2021-09-08_18h20.24.463,forced_choiceRT,2021.1.2,MacIntel,60.0024001,,,,,,,,5,Ontime,j,1,2.01,3,3,15,3,1,,,,,
,0.81,,,,,,,,,h.PNG,h,610afc69d32d0b52165ca115,2021-09-08_18h20.24.463,forced_choiceRT,2021.1.2,MacIntel,60.0024001,,,,,,,,5,Ontime,g,0,1.9552,4,0,16,2,1,,,,,
,0.31,,,,,,,,,j.PNG,j,610afc69d32d0b52165ca115,2021-09-08_18h20.24.463,forced_choiceRT,2021.1.2,MacIntel,60.0024001,,,,,,,,5,Fast,j,1,1.7158,4,1,17,3,1,,,,,
,0.15,,,,,,,,,g.PNG,g,610afc69d32d0b52165ca115,2021-09-08_18h20.24.463,forced_choiceRT,2021.1.2,MacIntel,60.0024001,,,,,,,,5,Fast,g,1,1.8883,4,2,18,1,1,,,,,
,0.89,,,,,,,,,j.PNG,j,610afc69d32d0b52165ca115,2021-09-08_18h20.24.463,forced_choiceRT,2021.1.2,MacIntel,60.0024001,,,,,,,,5,Ontime,j,1,2.0542,4,3,19,3,1,,,,,
,0.91,,,,,,,,,j.PNG,j,610afc69d32d0b52165ca115,2021-09-08_18h20.24.463,forced_choiceRT,2021.1.2,MacIntel,60.0024001,,,,,,,,5,Slow,j,1,2.2218,5,0,20,3,1,,,,,
,1.64,,,,,,,,,j.PNG,j,610afc69d32d0b52165ca115,2021-09-08_18h20.24.463,forced_choiceRT,2021.1.2,MacIntel,60.0024001,,,,,,,,5,Ontime,h,0,1.9885,5,1,21,3,1,,,,,
,1.92,,,,,,,,,f.PNG,f,610afc69d32d0b52165ca115,2021-09-08_18h20.24.463,forced_choiceRT,2021.1.2,MacIntel,60.0024001,,,,,,,,5,Slow,j,0,2.1488,5,2,22,0,1,,,,,
,1,,,,,,,,,f.PNG,f,610afc69d32d0b52165ca115,2021-09-08_18h20.24.463,forced_choiceRT,2021.1.2,MacIntel,60.0024001,,,,,,,,5,Slow,f,1,2.2559,5,3,23,0,1,,,,,
,0.47,,,,,,,,,f.PNG,f,610afc69d32d0b52165ca115,2021-09-08_18h20.24.463,forced_choiceRT,2021.1.2,MacIntel,60.0024001,,,,,,,,5,Ontime,f,1,2.0667,6,0,24,0,1,,,,,
,0.44,,,,,,,,,f.PNG,f,610afc69d32d0b52165ca115,2021-09-08_18h20.24.463,forced_choiceRT,2021.1.2,MacIntel,60.0024001,,,,,,,,5,Ontime,f,1,2.0377,6,1,25,0,1,,,,,
,0.55,,,,,,,,,j.PNG,j,610afc69d32d0b52165ca115,2021-09-08_18h20.24.463,forced_choiceRT,2021.1.2,MacIntel,60.0024001,,,,,,,,5,Ontime,j,1,2.0058,6,2,26,3,1,,,,,
,1.62,,,,,,,,,f.PNG,f,610afc69d32d0b52165ca115,2021-09-08_18h20.24.463,forced_choiceRT,2021.1.2,MacIntel,60.0024001,,,,,,,,5,Ontime,h,0,2.0502,6,3,27,0,1,,,,,
,0.67,,,,,,,,,f.PNG,f,610afc69d32d0b52165ca115,2021-09-08_18h20.24.463,forced_choiceRT,2021.1.2,MacIntel,60.0024001,,,,,,,,5,Ontime,f,1,1.9994,7,0,28,0,1,,,,,
,1.26,,,,,,,,,g.PNG,g,610afc69d32d0b52165ca115,2021-09-08_18h20.24.463,forced_choiceRT,2021.1.2,MacIntel,60.0024001,,,,,,,,5,Slow,g,1,2.1857,7,1,29,1,1,,,,,
,1.3,,,,,,,,,h.PNG,h,610afc69d32d0b52165ca115,2021-09-08_18h20.24.463,forced_choiceRT,2021.1.2,MacIntel,60.0024001,,,,,,,,5,Ontime,h,1,1.9985,7,2,30,2,1,,,,,
,0.55,,,,,,,,,g.PNG,g,610afc69d32d0b52165ca115,2021-09-08_18h20.24.463,forced_choiceRT,2021.1.2,MacIntel,60.0024001,,,,,,,,5,Ontime,g,1,2.0006,7,3,31,1,1,,,,,
,0.02,,,,,,,,,j.PNG,j,610afc69d32d0b52165ca115,2021-09-08_18h20.24.463,forced_choiceRT,2021.1.2,MacIntel,60.0024001,,,,,,,,5,Ontime,j,1,1.9551,8,0,32,3,1,,,,,
,1.64,,,,,,,,,g.PNG,g,610afc69d32d0b52165ca115,2021-09-08_18h20.24.463,forced_choiceRT,2021.1.2,MacIntel,60.0024001,,,,,,,,5,Slow,g,1,2.2295,8,1,33,1,1,,,,,
,0.05,,,,,,,,,g.PNG,g,610afc69d32d0b52165ca115,2021-09-08_18h20.24.463,forced_choiceRT,2021.1.2,MacIntel,60.0024001,,,,,,,,5,Ontime,g,1,2.0601,8,2,34,1,1,,,,,
,1.77,,,,,,,,,j.PNG,j,610afc69d32d0b52165ca115,2021-09-08_18h20.24.463,forced_choiceRT,2021.1.2,MacIntel,60.0024001,,,,,,,,5,Ontime,h,0,1.9894,8,3,35,3,1,,,,,
,0.79,,,,,,,,,h.PNG,h,610afc69d32d0b52165ca115,2021-09-08_18h20.24.463,forced_choiceRT,2021.1.2,MacIntel,60.0024001,,,,,,,,5,Ontime,h,1,2.0589,9,0,36,2,1,,,,,
,1.97,,,,,,,,,h.PNG,h,610afc69d32d0b52165ca115,2021-09-08_18h20.24.463,forced_choiceRT,2021.1.2,MacIntel,60.0024001,,,,,,,,5,Slow,h,1,2.545,9,1,37,2,1,,,,,
,0.79,,,,,,,,,f.PNG,f,610afc69d32d0b52165ca115,2021-09-08_18h20.24.463,forced_choiceRT,2021.1.2,MacIntel,60.0024001,,,,,,,,5,Fast,f,1,1.7564,9,2,38,0,1,,,,,
,0.29,,,,,,,,,h.PNG,h,610afc69d32d0b52165ca115,2021-09-08_18h20.24.463,forced_choiceRT,2021.1.2,MacIntel,60.0024001,,,,,,,,5,Ontime,h,1,2.0171,9,3,39,2,1,,,,,
,,,,,,,,,,,,610afc69d32d0b52165ca115,2021-09-08_18h20.24.463,forced_choiceRT,2021.1.2,MacIntel,60.0024001,,,,,,,,,,,,,,,,,,4,0,4,0,1
,0.76,,,,,,,,,f.PNG,f,610afc69d32d0b52165ca115,2021-09-08_18h20.24.463,forced_choiceRT,2021.1.2,MacIntel,60.0024001,,,,,,,,6,Ontime,f,1,1.9982,0,0,0,0,1,,,,,
,0.77,,,,,,,,,j.PNG,j,610afc69d32d0b52165ca115,2021-09-08_18h20.24.463,forced_choiceRT,2021.1.2,MacIntel,60.0024001,,,,,,,,6,Ontime,j,1,2.0061,0,1,1,3,1,,,,,
,0.48,,,,,,,,,h.PNG,h,610afc69d32d0b52165ca115,2021-09-08_18h20.24.463,forced_choiceRT,2021.1.2,MacIntel,60.0024001,,,,,,,,6,Slow,h,1,2.1416,0,2,2,2,1,,,,,
,0.09,,,,,,,,,g.PNG,g,610afc69d32d0b52165ca115,2021-09-08_18h20.24.463,forced_choiceRT,2021.1.2,MacIntel,60.0024001,,,,,,,,6,Ontime,g,1,1.9326,0,3,3,1,1,,,,,
,1.27,,,,,,,,,h.PNG,h,610afc69d32d0b52165ca115,2021-09-08_18h20.24.463,forced_choiceRT,2021.1.2,MacIntel,60.0024001,,,,,,,,6,Slow,h,1,2.1996,1,0,4,2,1,,,,,
,0.61,,,,,,,,,f.PNG,f,610afc69d32d0b52165ca115,2021-09-08_18h20.24.463,forced_choiceRT,2021.1.2,MacIntel,60.0024001,,,,,,,,6,Slow,f,1,2.1339,1,1,5,0,1,,,,,
,0.23,,,,,,,,,f.PNG,f,610afc69d32d0b52165ca115,2021-09-08_18h20.24.463,forced_choiceRT,2021.1.2,MacIntel,60.0024001,,,,,,,,6,Ontime,f,1,1.9672,1,2,6,0,1,,,,,
,0.45,,,,,,,,,j.PNG,j,610afc69d32d0b52165ca115,2021-09-08_18h20.24.463,forced_choiceRT,2021.1.2,MacIntel,60.0024001,,,,,,,,6,Ontime,j,1,2.0431,1,3,7,3,1,,,,,
,0.63,,,,,,,,,f.PNG,f,610afc69d32d0b52165ca115,2021-09-08_18h20.24.463,forced_choiceRT,2021.1.2,MacIntel,60.0024001,,,,,,,,6,Slow,f,1,2.1064,2,0,8,0,1,,,,,
,1.47,,,,,,,,,g.PNG,g,610afc69d32d0b52165ca115,2021-09-08_18h20.24.463,forced_choiceRT,2021.1.2,MacIntel,60.0024001,,,,,,,,6,Ontime,g,1,2.035,2,1,9,1,1,,,,,
,0.27,,,,,,,,,j.PNG,j,610afc69d32d0b52165ca115,2021-09-08_18h20.24.463,forced_choiceRT,2021.1.2,MacIntel,60.0024001,,,,,,,,6,Fast,j,1,1.3342,2,2,10,3,1,,,,,
,0.32,,,,,,,,,h.PNG,h,610afc69d32d0b52165ca115,2021-09-08_18h20.24.463,forced_choiceRT,2021.1.2,MacIntel,60.0024001,,,,,,,,6,Ontime,h,1,2.0082,2,3,11,2,1,,,,,
,1.96,,,,,,,,,h.PNG,h,610afc69d32d0b52165ca115,2021-09-08_18h20.24.463,forced_choiceRT,2021.1.2,MacIntel,60.0024001,,,,,,,,6,Slow,g,0,2.4833,3,0,12,2,1,,,,,
,0.16,,,,,,,,,g.PNG,g,610afc69d32d0b52165ca115,2021-09-08_18h20.24.463,forced_choiceRT,2021.1.2,MacIntel,60.0024001,,,,,,,,6,Ontime,g,1,1.9379,3,1,13,1,1,,,,,
,1.95,,,,,,,,,j.PNG,j,610afc69d32d0b52165ca115,2021-09-08_18h20.24.463,forced_choiceRT,2021.1.2,MacIntel,60.0024001,,,,,,,,6,Slow,h,0,2.6552,3,2,14,3,1,,,,,
,1.94,,,,,,,,,g.PNG,g,610afc69d32d0b52165ca115,2021-09-08_18h20.24.463,forced_choiceRT,2021.1.2,MacIntel,60.0024001,,,,,,,,6,Slow,j,0,2.3989,3,3,15,1,1,,,,,
,1.94,,,,,,,,,j.PNG,j,610afc69d32d0b52165ca115,2021-09-08_18h20.24.463,forced_choiceRT,2021.1.2,MacIntel,60.0024001,,,,,,,,6,Ontime,h,0,2.0181,4,0,16,3,1,,,,,
,1.1,,,,,,,,,h.PNG,h,610afc69d32d0b52165ca115,2021-09-08_18h20.24.463,forced_choiceRT,2021.1.2,MacIntel,60.0024001,,,,,,,,6,Ontime,h,1,1.9001,4,1,17,2,1,,,,,
,0.89,,,,,,,,,g.PNG,g,610afc69d32d0b52165ca115,2021-09-08_18h20.24.463,forced_choiceRT,2021.1.2,MacIntel,60.0024001,,,,,,,,6,Ontime,g,1,2.0491,4,2,18,1,1,,,,,
,1.08,,,,,,,,,g.PNG,g,610afc69d32d0b52165ca115,2021-09-08_18h20.24.463,forced_choiceRT,2021.1.2,MacIntel,60.0024001,,,,,,,,6,Ontime,g,1,2.0041,4,3,19,1,1,,,,,
,1,,,,,,,,,j.PNG,j,610afc69d32d0b52165ca115,2021-09-08_18h20.24.463,forced_choiceRT,2021.1.2,MacIntel,60.0024001,,,,,,,,6,Fast,j,1,1.8311,5,0,20,3,1,,,,,
,1.55,,,,,,,,,f.PNG,f,610afc69d32d0b52165ca115,2021-09-08_18h20.24.463,forced_choiceRT,2021.1.2,MacIntel,60.0024001,,,,,,,,6,Slow,g,0,2.2704,5,1,21,0,1,,,,,
,1.45,,,,,,,,,f.PNG,f,610afc69d32d0b52165ca115,2021-09-08_18h20.24.463,forced_choiceRT,2021.1.2,MacIntel,60.0024001,,,,,,,,6,Ontime,h,0,2.0556,5,2,22,0,1,,,,,
,0.23,,,,,,,,,f.PNG,f,610afc69d32d0b52165ca115,2021-09-08_18h20.24.463,forced_choiceRT,2021.1.2,MacIntel,60.0024001,,,,,,,,6,Ontime,f,1,2.0075,5,3,23,0,1,,,,,
,1.62,,,,,,,,,f.PNG,f,610afc69d32d0b52165ca115,2021-09-08_18h20.24.463,forced_choiceRT,2021.1.2,MacIntel,60.0024001,,,,,,,,6,Slow,f,1,2.3333,6,0,24,0,1,,,,,
,0.71,,,,,,,,,g.PNG,g,610afc69d32d0b52165ca115,2021-09-08_18h20.24.463,forced_choiceRT,2021.1.2,MacIntel,60.0024001,,,,,,,,6,Ontime,g,1,1.9731,6,1,25,1,1,,,,,
,1.33,,,,,,,,,h.PNG,h,610afc69d32d0b52165ca115,2021-09-08_18h20.24.463,forced_choiceRT,2021.1.2,MacIntel,60.0024001,,,,,,,,6,Ontime,h,1,1.9996,6,2,26,2,1,,,,,
,0.13,,,,,,,,,g.PNG,g,610afc69d32d0b52165ca115,2021-09-08_18h20.24.463,forced_choiceRT,2021.1.2,MacIntel,60.0024001,,,,,,,,6,Ontime,g,1,1.915,6,3,27,1,1,,,,,
,1.65,,,,,,,,,j.PNG,j,610afc69d32d0b52165ca115,2021-09-08_18h20.24.463,forced_choiceRT,2021.1.2,MacIntel,60.0024001,,,,,,,,6,Slow,h,0,2.175,7,0,28,3,1,,,,,
,0.1,,,,,,,,,f.PNG,f,610afc69d32d0b52165ca115,2021-09-08_18h20.24.463,forced_choiceRT,2021.1.2,MacIntel,60.0024001,,,,,,,,6,Ontime,f,1,1.9881,7,1,29,0,1,,,,,
,0.63,,,,,,,,,h.PNG,h,610afc69d32d0b52165ca115,2021-09-08_18h20.24.463,forced_choiceRT,2021.1.2,MacIntel,60.0024001,,,,,,,,6,Ontime,h,1,1.9318,7,2,30,2,1,,,,,
,1.47,,,,,,,,,j.PNG,j,610afc69d32d0b52165ca115,2021-09-08_18h20.24.463,forced_choiceRT,2021.1.2,MacIntel,60.0024001,,,,,,,,6,Slow,j,1,2.1661,7,3,31,3,1,,,,,
,1.39,,,,,,,,,h.PNG,h,610afc69d32d0b52165ca115,2021-09-08_18h20.24.463,forced_choiceRT,2021.1.2,MacIntel,60.0024001,,,,,,,,6,Ontime,j,0,2.0888,8,0,32,2,1,,,,,
,1.69,,,,,,,,,h.PNG,h,610afc69d32d0b52165ca115,2021-09-08_18h20.24.463,forced_choiceRT,2021.1.2,MacIntel,60.0024001,,,,,,,,6,Slow,h,1,2.1841,8,1,33,2,1,,,,,
,1.72,,,,,,,,,g.PNG,g,610afc69d32d0b52165ca115,2021-09-08_18h20.24.463,forced_choiceRT,2021.1.2,MacIntel,60.0024001,,,,,,,,6,Slow,g,1,2.3599,8,2,34,1,1,,,,,
,1.79,,,,,,,,,j.PNG,j,610afc69d32d0b52165ca115,2021-09-08_18h20.24.463,forced_choiceRT,2021.1.2,MacIntel,60.0024001,,,,,,,,6,Ontime,h,0,2.0239,8,3,35,3,1,,,,,
,1.49,,,,,,,,,f.PNG,f,610afc69d32d0b52165ca115,2021-09-08_18h20.24.463,forced_choiceRT,2021.1.2,MacIntel,60.0024001,,,,,,,,6,Ontime,g,0,2.0332,9,0,36,0,1,,,,,
,0.92,,,,,,,,,j.PNG,j,610afc69d32d0b52165ca115,2021-09-08_18h20.24.463,forced_choiceRT,2021.1.2,MacIntel,60.0024001,,,,,,,,6,Slow,j,1,2.1233,9,1,37,3,1,,,,,
,1.56,,,,,,,,,g.PNG,g,610afc69d32d0b52165ca115,2021-09-08_18h20.24.463,forced_choiceRT,2021.1.2,MacIntel,60.0024001,,,,,,,,6,Ontime,h,0,2.0386,9,2,38,1,1,,,,,
,0.06,,,,,,,,,h.PNG,h,610afc69d32d0b52165ca115,2021-09-08_18h20.24.463,forced_choiceRT,2021.1.2,MacIntel,60.0024001,,,,,,,,6,Ontime,h,1,2.0065,9,3,39,2,1,,,,,
,,,,,,,,,,,,610afc69d32d0b52165ca115,2021-09-08_18h20.24.463,forced_choiceRT,2021.1.2,MacIntel,60.0024001,,,,,,,,,,,,,,,,,,5,0,5,0,1
,0.33,,,,,,,,,j.PNG,j,610afc69d32d0b52165ca115,2021-09-08_18h20.24.463,forced_choiceRT,2021.1.2,MacIntel,60.0024001,,,,,,,,7,Fast,j,1,1.8619,0,0,0,3,1,,,,,
,0.27,,,,,,,,,h.PNG,h,610afc69d32d0b52165ca115,2021-09-08_18h20.24.463,forced_choiceRT,2021.1.2,MacIntel,60.0024001,,,,,,,,7,Ontime,h,1,1.9901,0,1,1,2,1,,,,,
,1.24,,,,,,,,,h.PNG,h,610afc69d32d0b52165ca115,2021-09-08_18h20.24.463,forced_choiceRT,2021.1.2,MacIntel,60.0024001,,,,,,,,7,Ontime,h,1,2.0197,0,2,2,2,1,,,,,
,0.32,,,,,,,,,h.PNG,h,610afc69d32d0b52165ca115,2021-09-08_18h20.24.463,forced_choiceRT,2021.1.2,MacIntel,60.0024001,,,,,,,,7,Ontime,h,1,1.9611,0,3,3,2,1,,,,,
,0.47,,,,,,,,,h.PNG,h,610afc69d32d0b52165ca115,2021-09-08_18h20.24.463,forced_choiceRT,2021.1.2,MacIntel,60.0024001,,,,,,,,7,Fast,h,1,1.881,1,0,4,2,1,,,,,
,1.42,,,,,,,,,g.PNG,g,610afc69d32d0b52165ca115,2021-09-08_18h20.24.463,forced_choiceRT,2021.1.2,MacIntel,60.0024001,,,,,,,,7,Slow,g,1,2.1428,1,1,5,1,1,,,,,
,1.28,,,,,,,,,f.PNG,f,610afc69d32d0b52165ca115,2021-09-08_18h20.24.463,forced_choiceRT,2021.1.2,MacIntel,60.0024001,,,,,,,,7,Ontime,f,1,2.0341,1,2,6,0,1,,,,,
,1.92,,,,,,,,,f.PNG,f,610afc69d32d0b52165ca115,2021-09-08_18h20.24.463,forced_choiceRT,2021.1.2,MacIntel,60.0024001,,,,,,,,7,Slow,h,0,2.8215,1,3,7,0,1,,,,,
,0.25,,,,,,,,,j.PNG,j,610afc69d32d0b52165ca115,2021-09-08_18h20.24.463,forced_choiceRT,2021.1.2,MacIntel,60.0024001,,,,,,,,7,Ontime,j,1,1.9933,2,0,8,3,1,,,,,
,1.66,,,,,,,,,f.PNG,f,610afc69d32d0b52165ca115,2021-09-08_18h20.24.463,forced_choiceRT,2021.1.2,MacIntel,60.0024001,,,,,,,,7,Slow,h,0,2.2216,2,1,9,0,1,,,,,
,0.59,,,,,,,,,f.PNG,f,610afc69d32d0b52165ca115,2021-09-08_18h20.24.463,forced_choiceRT,2021.1.2,MacIntel,60.0024001,,,,,,,,7,Ontime,f,1,1.9882,2,2,10,0,1,,,,,
,1.53,,,,,,,,,f.PNG,f,610afc69d32d0b52165ca115,2021-09-08_18h20.24.463,forced_choiceRT,2021.1.2,MacIntel,60.0024001,,,,,,,,7,Ontime,f,1,2.0886,2,3,11,0,1,,,,,
,0.92,,,,,,,,,h.PNG,h,610afc69d32d0b52165ca115,2021-09-08_18h20.24.463,forced_choiceRT,2021.1.2,MacIntel,60.0024001,,,,,,,,7,Ontime,h,1,2.0075,3,0,12,2,1,,,,,
,0.16,,,,,,,,,j.PNG,j,610afc69d32d0b52165ca115,2021-09-08_18h20.24.463,forced_choiceRT,2021.1.2,MacIntel,60.0024001,,,,,,,,7,Ontime,j,1,1.9882,3,1,13,3,1,,,,,
,0.68,,,,,,,,,g.PNG,g,610afc69d32d0b52165ca115,2021-09-08_18h20.24.463,forced_choiceRT,2021.1.2,MacIntel,60.0024001,,,,,,,,7,Ontime,g,1,2.0155,3,2,14,1,1,,,,,
,1.77,,,,,,,,,j.PNG,j,610afc69d32d0b52165ca115,2021-09-08_18h20.24.463,forced_choiceRT,2021.1.2,MacIntel,60.0024001,,,,,,,,7,Slow,j,1,2.2883,3,3,15,3,1,,,,,
,1.47,,,,,,,,,g.PNG,g,610afc69d32d0b52165ca115,2021-09-08_18h20.24.463,forced_choiceRT,2021.1.2,MacIntel,60.0024001,,,,,,,,7,Slow,g,1,2.5051,4,0,16,1,1,,,,,
,0.86,,,,,,,,,f.PNG,f,610afc69d32d0b52165ca115,2021-09-08_18h20.24.463,forced_choiceRT,2021.1.2,MacIntel,60.0024001,,,,,,,,7,Slow,f,1,2.1216,4,1,17,0,1,,,,,
,1.8,,,,,,,,,g.PNG,g,610afc69d32d0b52165ca115,2021-09-08_18h20.24.463,forced_choiceRT,2021.1.2,MacIntel,60.0024001,,,,,,,,7,Slow,g,1,2.2769,4,2,18,1,1,,,,,
,1.77,,,,,,,,,f.PNG,f,610afc69d32d0b52165ca115,2021-09-08_18h20.24.463,forced_choiceRT,2021.1.2,MacIntel,60.0024001,,,,,,,,7,Ontime,j,0,1.9974,4,3,19,0,1,,,,,
,1.44,,,,,,,,,g.PNG,g,610afc69d32d0b52165ca115,2021-09-08_18h20.24.463,forced_choiceRT,2021.1.2,MacIntel,60.0024001,,,,,,,,7,Slow,g,1,2.1046,5,0,20,1,1,,,,,
,0.92,,,,,,,,,h.PNG,h,610afc69d32d0b52165ca115,2021-09-08_18h20.24.463,forced_choiceRT,2021.1.2,MacIntel,60.0024001,,,,,,,,7,Ontime,h,1,1.9571,5,1,21,2,1,,,,,
,1.81,,,,,,,,,h.PNG,h,610afc69d32d0b52165ca115,2021-09-08_18h20.24.463,forced_choiceRT,2021.1.2,MacIntel,60.0024001,,,,,,,,7,Ontime,j,0,2.017,5,2,22,2,1,,,,,
,0.54,,,,,,,,,f.PNG,f,610afc69d32d0b52165ca115,2021-09-08_18h20.24.463,forced_choiceRT,2021.1.2,MacIntel,60.0024001,,,,,,,,7,Ontime,f,1,1.9559,5,3,23,0,1,,,,,
,1.29,,,,,,,,,h.PNG,h,610afc69d32d0b52165ca115,2021-09-08_18h20.24.463,forced_choiceRT,2021.1.2,MacIntel,60.0024001,,,,,,,,7,Ontime,h,1,2.0553,6,0,24,2,1,,,,,
,1.4,,,,,,,,,j.PNG,j,610afc69d32d0b52165ca115,2021-09-08_18h20.24.463,forced_choiceRT,2021.1.2,MacIntel,60.0024001,,,,,,,,7,Ontime,j,1,1.9842,6,1,25,3,1,,,,,
,1.82,,,,,,,,,j.PNG,j,610afc69d32d0b52165ca115,2021-09-08_18h20.24.463,forced_choiceRT,2021.1.2,MacIntel,60.0024001,,,,,,,,7,Slow,j,1,2.19,6,2,26,3,1,,,,,
,1.31,,,,,,,,,j.PNG,j,610afc69d32d0b52165ca115,2021-09-08_18h20.24.463,forced_choiceRT,2021.1.2,MacIntel,60.0024001,,,,,,,,7,Ontime,j,1,2.0728,6,3,27,3,1,,,,,
,0.89,,,,,,,,,g.PNG,g,610afc69d32d0b52165ca115,2021-09-08_18h20.24.463,forced_choiceRT,2021.1.2,MacIntel,60.0024001,,,,,,,,7,Fast,g,1,1.8882,7,0,28,1,1,,,,,
,1.08,,,,,,,,,j.PNG,j,610afc69d32d0b52165ca115,2021-09-08_18h20.24.463,forced_choiceRT,2021.1.2,MacIntel,60.0024001,,,,,,,,7,Ontime,j,1,2.0719,7,1,29,3,1,,,,,
,1.73,,,,,,,,,f.PNG,f,610afc69d32d0b52165ca115,2021-09-08_18h20.24.463,forced_choiceRT,2021.1.2,MacIntel,60.0024001,,,,,,,,7,Ontime,h,0,2.0887,7,2,30,0,1,,,,,
,0.97,,,,,,,,,g.PNG,g,610afc69d32d0b52165ca115,2021-09-08_18h20.24.463,forced_choiceRT,2021.1.2,MacIntel,60.0024001,,,,,,,,7,Ontime,g,1,2.0891,7,3,31,1,1,,,,,
,0.92,,,,,,,,,f.PNG,f,610afc69d32d0b52165ca115,2021-09-08_18h20.24.463,forced_choiceRT,2021.1.2,MacIntel,60.0024001,,,,,,,,7,Ontime,f,1,1.9564,8,0,32,0,1,,,,,
,1.08,,,,,,,,,j.PNG,j,610afc69d32d0b52165ca115,2021-09-08_18h20.24.463,forced_choiceRT,2021.1.2,MacIntel,60.0024001,,,,,,,,7,Ontime,j,1,2.0014,8,1,33,3,1,,,,,
,1.21,,,,,,,,,g.PNG,g,610afc69d32d0b52165ca115,2021-09-08_18h20.24.463,forced_choiceRT,2021.1.2,MacIntel,60.0024001,,,,,,,,7,Ontime,g,1,1.924,8,2,34,1,1,,,,,
,1.86,,,,,,,,,g.PNG,g,610afc69d32d0b52165ca115,2021-09-08_18h20.24.463,forced_choiceRT,2021.1.2,MacIntel,60.0024001,,,,,,,,7,Fast,g,1,1.8974,8,3,35,1,1,,,,,
,1.7,,,,,,,,,g.PNG,g,610afc69d32d0b52165ca115,2021-09-08_18h20.24.463,forced_choiceRT,2021.1.2,MacIntel,60.0024001,,,,,,,,7,Slow,g,1,2.2884,9,0,36,1,1,,,,,
,0.94,,,,,,,,,j.PNG,j,610afc69d32d0b52165ca115,2021-09-08_18h20.24.463,forced_choiceRT,2021.1.2,MacIntel,60.0024001,,,,,,,,7,Fast,j,1,1.6699,9,1,37,3,1,,,,,
,0.26,,,,,,,,,h.PNG,h,610afc69d32d0b52165ca115,2021-09-08_18h20.24.463,forced_choiceRT,2021.1.2,MacIntel,60.0024001,,,,,,,,7,Fast,h,1,1.8476,9,2,38,2,1,,,,,
,0.49,,,,,,,,,h.PNG,h,610afc69d32d0b52165ca115,2021-09-08_18h20.24.463,forced_choiceRT,2021.1.2,MacIntel,60.0024001,,,,,,,,7,Slow,h,1,2.149,9,3,39,2,1,,,,,
,,,,,,,,,,,,610afc69d32d0b52165ca115,2021-09-08_18h20.24.463,forced_choiceRT,2021.1.2,MacIntel,60.0024001,,,,,,,,,,,,,,,,,,6,0,6,0,1
,1.94,,,,,,,,,g.PNG,g,610afc69d32d0b52165ca115,2021-09-08_18h20.24.463,forced_choiceRT,2021.1.2,MacIntel,60.0024001,,,,,,,,8,Slow,g,1,2.664,0,0,0,1,1,,,,,
,0.22,,,,,,,,,h.PNG,h,610afc69d32d0b52165ca115,2021-09-08_18h20.24.463,forced_choiceRT,2021.1.2,MacIntel,60.0024001,,,,,,,,8,Fast,h,1,1.6567,0,1,1,2,1,,,,,
,1.2,,,,,,,,,f.PNG,f,610afc69d32d0b52165ca115,2021-09-08_18h20.24.463,forced_choiceRT,2021.1.2,MacIntel,60.0024001,,,,,,,,8,Ontime,f,1,2.0887,0,2,2,0,1,,,,,
,0.89,,,,,,,,,f.PNG,f,610afc69d32d0b52165ca115,2021-09-08_18h20.24.463,forced_choiceRT,2021.1.2,MacIntel,60.0024001,,,,,,,,8,Ontime,f,1,1.9702,0,3,3,0,1,,,,,
,1.98,,,,,,,,,f.PNG,f,610afc69d32d0b52165ca115,2021-09-08_18h20.24.463,forced_choiceRT,2021.1.2,MacIntel,60.0024001,,,,,,,,8,Ontime,j,0,2.0683,1,0,4,0,1,,,,,
,0.58,,,,,,,,,h.PNG,h,610afc69d32d0b52165ca115,2021-09-08_18h20.24.463,forced_choiceRT,2021.1.2,MacIntel,60.0024001,,,,,,,,8,Ontime,h,1,2.0968,1,1,5,2,1,,,,,
,1.91,,,,,,,,,f.PNG,f,610afc69d32d0b52165ca115,2021-09-08_18h20.24.463,forced_choiceRT,2021.1.2,MacIntel,60.0024001,,,,,,,,8,Ontime,h,0,2.0215,1,2,6,0,1,,,,,
,1.17,,,,,,,,,g.PNG,g,610afc69d32d0b52165ca115,2021-09-08_18h20.24.463,forced_choiceRT,2021.1.2,MacIntel,60.0024001,,,,,,,,8,Ontime,h,0,1.9986,1,3,7,1,1,,,,,
,1.95,,,,,,,,,h.PNG,h,610afc69d32d0b52165ca115,2021-09-08_18h20.24.463,forced_choiceRT,2021.1.2,MacIntel,60.0024001,,,,,,,,8,Slow,g,0,2.1339,2,0,8,2,1,,,,,
,1.04,,,,,,,,,h.PNG,h,610afc69d32d0b52165ca115,2021-09-08_18h20.24.463,forced_choiceRT,2021.1.2,MacIntel,60.0024001,,,,,,,,8,Fast,h,1,1.8188,2,1,9,2,1,,,,,
,1.92,,,,,,,,,f.PNG,f,610afc69d32d0b52165ca115,2021-09-08_18h20.24.463,forced_choiceRT,2021.1.2,MacIntel,60.0024001,,,,,,,,8,Ontime,j,0,2.0946,2,2,10,0,1,,,,,
,1.01,,,,,,,,,g.PNG,g,610afc69d32d0b52165ca115,2021-09-08_18h20.24.463,forced_choiceRT,2021.1.2,MacIntel,60.0024001,,,,,,,,8,Ontime,h,0,2.0336,2,3,11,1,1,,,,,
,1.85,,,,,,,,,g.PNG,g,610afc69d32d0b52165ca115,2021-09-08_18h20.24.463,forced_choiceRT,2021.1.2,MacIntel,60.0024001,,,,,,,,8,Slow,f,0,2.1708,3,0,12,1,1,,,,,
,1.76,,,,,,,,,j.PNG,j,610afc69d32d0b52165ca115,2021-09-08_18h20.24.463,forced_choiceRT,2021.1.2,MacIntel,60.0024001,,,,,,,,8,Ontime,j,1,1.9909,3,1,13,3,1,,,,,
,1.82,,,,,,,,,j.PNG,j,610afc69d32d0b52165ca115,2021-09-08_18h20.24.463,forced_choiceRT,2021.1.2,MacIntel,60.0024001,,,,,,,,8,Slow,j,1,2.3391,3,2,14,3,1,,,,,
,1.47,,,,,,,,,h.PNG,h,610afc69d32d0b52165ca115,2021-09-08_18h20.24.463,forced_choiceRT,2021.1.2,MacIntel,60.0024001,,,,,,,,8,Ontime,h,1,1.9379,3,3,15,2,1,,,,,
,1.36,,,,,,,,,g.PNG,g,610afc69d32d0b52165ca115,2021-09-08_18h20.24.463,forced_choiceRT,2021.1.2,MacIntel,60.0024001,,,,,,,,8,Ontime,h,0,2.0007,4,0,16,1,1,,,,,
,0.96,,,,,,,,,f.PNG,f,610afc69d32d0b52165ca115,2021-09-08_18h20.24.463,forced_choiceRT,2021.1.2,MacIntel,60.0024001,,,,,,,,8,Ontime,f,1,2.0375,4,1,17,0,1,,,,,
,1.13,,,,,,,,,f.PNG,f,610afc69d32d0b52165ca115,2021-09-08_18h20.24.463,forced_choiceRT,2021.1.2,MacIntel,60.0024001,,,,,,,,8,Ontime,f,1,1.9187,4,2,18,0,1,,,,,
,0.21,,,,,,,,,h.PNG,h,610afc69d32d0b52165ca115,2021-09-08_18h20.24.463,forced_choiceRT,2021.1.2,MacIntel,60.0024001,,,,,,,,8,Ontime,h,1,1.9947,4,3,19,2,1,,,,,
,1.91,,,,,,,,,j.PNG,j,610afc69d32d0b52165ca115,2021-09-08_18h20.24.463,forced_choiceRT,2021.1.2,MacIntel,60.0024001,,,,,,,,8,Ontime,j,1,2.0167,5,0,20,3,1,,,,,
,1.76,,,,,,,,,j.PNG,j,610afc69d32d0b52165ca115,2021-09-08_18h20.24.463,forced_choiceRT,2021.1.2,MacIntel,60.0024001,,,,,,,,8,Slow,h,0,2.1557,5,1,21,3,1,,,,,
,0.76,,,,,,,,,j.PNG,j,610afc69d32d0b52165ca115,2021-09-08_18h20.24.463,forced_choiceRT,2021.1.2,MacIntel,60.0024001,,,,,,,,8,Ontime,j,1,1.9901,5,2,22,3,1,,,,,
,1.59,,,,,,,,,j.PNG,j,610afc69d32d0b52165ca115,2021-09-08_18h20.24.463,forced_choiceRT,2021.1.2,MacIntel,60.0024001,,,,,,,,8,Slow,j,1,2.1723,5,3,23,3,1,,,,,
,1.65,,,,,,,,,h.PNG,h,610afc69d32d0b52165ca115,2021-09-08_18h20.24.463,forced_choiceRT,2021.1.2,MacIntel,60.0024001,,,,,,,,8,Slow,j,0,2.1147,6,0,24,2,1,,,,,
,1.34,,,,,,,,,f.PNG,f,610afc69d32d0b52165ca115,2021-09-08_18h20.24.463,forced_choiceRT,2021.1.2,MacIntel,60.0024001,,,,,,,,8,Ontime,f,1,2.0049,6,1,25,0,1,,,,,
,1.31,,,,,,,,,j.PNG,j,610afc69d32d0b52165ca115,2021-09-08_18h20.24.463,forced_choiceRT,2021.1.2,MacIntel,60.0024001,,,,,,,,8,Slow,j,1,2.1315,6,2,26,3,1,,,,,
,1.13,,,,,,,,,f.PNG,f,610afc69d32d0b52165ca115,2021-09-08_18h20.24.463,forced_choiceRT,2021.1.2,MacIntel,60.0024001,,,,,,,,8,Ontime,f,1,1.903,6,3,27,0,1,,,,,
,0.84,,,,,,,,,j.PNG,j,610afc69d32d0b52165ca115,2021-09-08_18h20.24.463,forced_choiceRT,2021.1.2,MacIntel,60.0024001,,,,,,,,8,Ontime,j,1,1.9815,7,0,28,3,1,,,,,
,0.19,,,,,,,,,h.PNG,h,610afc69d32d0b52165ca115,2021-09-08_18h20.24.463,forced_choiceRT,2021.1.2,MacIntel,60.0024001,,,,,,,,8,Ontime,h,1,1.9501,7,1,29,2,1,,,,,
,1.71,,,,,,,,,h.PNG,h,610afc69d32d0b52165ca115,2021-09-08_18h20.24.463,forced_choiceRT,2021.1.2,MacIntel,60.0024001,,,,,,,,8,Slow,j,0,2.1404,7,2,30,2,1,,,,,
,1.97,,,,,,,,,f.PNG,f,610afc69d32d0b52165ca115,2021-09-08_18h20.24.463,forced_choiceRT,2021.1.2,MacIntel,60.0024001,,,,,,,,8,Slow,h,0,2.2846,7,3,31,0,1,,,,,
,1.93,,,,,,,,,g.PNG,g,610afc69d32d0b52165ca115,2021-09-08_18h20.24.463,forced_choiceRT,2021.1.2,MacIntel,60.0024001,,,,,,,,8,Slow,j,0,2.4051,8,0,32,1,1,,,,,
,0.13,,,,,,,,,g.PNG,g,610afc69d32d0b52165ca115,2021-09-08_18h20.24.463,forced_choiceRT,2021.1.2,MacIntel,60.0024001,,,,,,,,8,Ontime,g,1,1.9323,8,1,33,1,1,,,,,
,0.91,,,,,,,,,g.PNG,g,610afc69d32d0b52165ca115,2021-09-08_18h20.24.463,forced_choiceRT,2021.1.2,MacIntel,60.0024001,,,,,,,,8,Fast,g,1,1.8885,8,2,34,1,1,,,,,
,1.66,,,,,,,,,h.PNG,h,610afc69d32d0b52165ca115,2021-09-08_18h20.24.463,forced_choiceRT,2021.1.2,MacIntel,60.0024001,,,,,,,,8,Slow,g,0,2.2499,8,3,35,2,1,,,,,
,1.67,,,,,,,,,j.PNG,j,610afc69d32d0b52165ca115,2021-09-08_18h20.24.463,forced_choiceRT,2021.1.2,MacIntel,60.0024001,,,,,,,,8,Ontime,h,0,2.0997,9,0,36,3,1,,,,,
,1.81,,,,,,,,,j.PNG,j,610afc69d32d0b52165ca115,2021-09-08_18h20.24.463,forced_choiceRT,2021.1.2,MacIntel,60.0024001,,,,,,,,8,Ontime,h,0,1.9699,9,1,37,3,1,,,,,
,0.09,,,,,,,,,g.PNG,g,610afc69d32d0b52165ca115,2021-09-08_18h20.24.463,forced_choiceRT,2021.1.2,MacIntel,60.0024001,,,,,,,,8,Ontime,g,1,1.9913,9,2,38,1,1,,,,,
,0.99,,,,,,,,,g.PNG,g,610afc69d32d0b52165ca115,2021-09-08_18h20.24.463,forced_choiceRT,2021.1.2,MacIntel,60.0024001,,,,,,,,8,Ontime,g,1,2.0222,9,3,39,1,1,,,,,
,,,,,,,,,,,,610afc69d32d0b52165ca115,2021-09-08_18h20.24.463,forced_choiceRT,2021.1.2,MacIntel,60.0024001,,,,,,,,,,,,,,,,,,7,0,7,0,1
,0.98,,,,,,,,,f.PNG,f,610afc69d32d0b52165ca115,2021-09-08_18h20.24.463,forced_choiceRT,2021.1.2,MacIntel,60.0024001,,,,,,,,9,Slow,f,1,2.3934,0,0,0,0,1,,,,,
,1,,,,,,,,,j.PNG,j,610afc69d32d0b52165ca115,2021-09-08_18h20.24.463,forced_choiceRT,2021.1.2,MacIntel,60.0024001,,,,,,,,9,Fast,j,1,1.5808,0,1,1,3,1,,,,,
,1.89,,,,,,,,,h.PNG,h,610afc69d32d0b52165ca115,2021-09-08_18h20.24.463,forced_choiceRT,2021.1.2,MacIntel,60.0024001,,,,,,,,9,Slow,h,1,2.3322,0,2,2,2,1,,,,,
,0.83,,,,,,,,,g.PNG,g,610afc69d32d0b52165ca115,2021-09-08_18h20.24.463,forced_choiceRT,2021.1.2,MacIntel,60.0024001,,,,,,,,9,Ontime,g,1,2.0567,0,3,3,1,1,,,,,
,1.66,,,,,,,,,g.PNG,g,610afc69d32d0b52165ca115,2021-09-08_18h20.24.463,forced_choiceRT,2021.1.2,MacIntel,60.0024001,,,,,,,,9,Slow,g,1,2.1207,1,0,4,1,1,,,,,
,0.79,,,,,,,,,g.PNG,g,610afc69d32d0b52165ca115,2021-09-08_18h20.24.463,forced_choiceRT,2021.1.2,MacIntel,60.0024001,,,,,,,,9,Ontime,g,1,1.9811,1,1,5,1,1,,,,,
,1.65,,,,,,,,,h.PNG,h,610afc69d32d0b52165ca115,2021-09-08_18h20.24.463,forced_choiceRT,2021.1.2,MacIntel,60.0024001,,,,,,,,9,Ontime,g,0,2.0556,1,2,6,2,1,,,,,
,0.49,,,,,,,,,j.PNG,j,610afc69d32d0b52165ca115,2021-09-08_18h20.24.463,forced_choiceRT,2021.1.2,MacIntel,60.0024001,,,,,,,,9,Ontime,j,1,2.0007,1,3,7,3,1,,,,,
,0.52,,,,,,,,,f.PNG,f,610afc69d32d0b52165ca115,2021-09-08_18h20.24.463,forced_choiceRT,2021.1.2,MacIntel,60.0024001,,,,,,,,9,Ontime,f,1,2.0819,2,0,8,0,1,,,,,
,1.76,,,,,,,,,j.PNG,j,610afc69d32d0b52165ca115,2021-09-08_18h20.24.463,forced_choiceRT,2021.1.2,MacIntel,60.0024001,,,,,,,,9,Ontime,f,0,1.9546,2,1,9,3,1,,,,,
,0.08,,,,,,,,,g.PNG,g,610afc69d32d0b52165ca115,2021-09-08_18h20.24.463,forced_choiceRT,2021.1.2,MacIntel,60.0024001,,,,,,,,9,Slow,g,1,2.1175,2,2,10,1,1,,,,,
,0.75,,,,,,,,,j.PNG,j,610afc69d32d0b52165ca115,2021-09-08_18h20.24.463,forced_choiceRT,2021.1.2,MacIntel,60.0024001,,,,,,,,9,Ontime,j,1,1.956,2,3,11,3,1,,,,,
,1.4,,,,,,,,,f.PNG,f,610afc69d32d0b52165ca115,2021-09-08_18h20.24.463,forced_choiceRT,2021.1.2,MacIntel,60.0024001,,,,,,,,9,Slow,j,0,2.1033,3,0,12,0,1,,,,,
,1.99,,,,,,,,,f.PNG,f,610afc69d32d0b52165ca115,2021-09-08_18h20.24.463,forced_choiceRT,2021.1.2,MacIntel,60.0024001,,,,,,,,9,Slow,f,1,2.5221,3,1,13,0,1,,,,,
,0.96,,,,,,,,,h.PNG,h,610afc69d32d0b52165ca115,2021-09-08_18h20.24.463,forced_choiceRT,2021.1.2,MacIntel,60.0024001,,,,,,,,9,Ontime,h,1,2.0373,3,2,14,2,1,,,,,
,0.57,,,,,,,,,g.PNG,g,610afc69d32d0b52165ca115,2021-09-08_18h20.24.463,forced_choiceRT,2021.1.2,MacIntel,60.0024001,,,,,,,,9,Ontime,g,1,1.9876,3,3,15,1,1,,,,,
,0.44,,,,,,,,,h.PNG,h,610afc69d32d0b52165ca115,2021-09-08_18h20.24.463,forced_choiceRT,2021.1.2,MacIntel,60.0024001,,,,,,,,9,Ontime,h,1,2.0511,4,0,16,2,1,,,,,
,1.03,,,,,,,,,h.PNG,h,610afc69d32d0b52165ca115,2021-09-08_18h20.24.463,forced_choiceRT,2021.1.2,MacIntel,60.0024001,,,,,,,,9,Fast,h,1,1.8661,4,1,17,2,1,,,,,
,1.24,,,,,,,,,f.PNG,f,610afc69d32d0b52165ca115,2021-09-08_18h20.24.463,forced_choiceRT,2021.1.2,MacIntel,60.0024001,,,,,,,,9,Ontime,f,1,1.9572,4,2,18,0,1,,,,,
,0.93,,,,,,,,,h.PNG,h,610afc69d32d0b52165ca115,2021-09-08_18h20.24.463,forced_choiceRT,2021.1.2,MacIntel,60.0024001,,,,,,,,9,Ontime,h,1,2.023,4,3,19,2,1,,,,,
,1.45,,,,,,,,,h.PNG,h,610afc69d32d0b52165ca115,2021-09-08_18h20.24.463,forced_choiceRT,2021.1.2,MacIntel,60.0024001,,,,,,,,9,Ontime,h,1,2.0841,5,0,20,2,1,,,,,
,0.88,,,,,,,,,h.PNG,h,610afc69d32d0b52165ca115,2021-09-08_18h20.24.463,forced_choiceRT,2021.1.2,MacIntel,60.0024001,,,,,,,,9,Ontime,h,1,2.0731,5,1,21,2,1,,,,,
,1.07,,,,,,,,,g.PNG,g,610afc69d32d0b52165ca115,2021-09-08_18h20.24.463,forced_choiceRT,2021.1.2,MacIntel,60.0024001,,,,,,,,9,Ontime,g,1,2.0882,5,2,22,1,1,,,,,
,1,,,,,,,,,j.PNG,j,610afc69d32d0b52165ca115,2021-09-08_18h20.24.463,forced_choiceRT,2021.1.2,MacIntel,60.0024001,,,,,,,,9,Ontime,j,1,2.0343,5,3,23,3,1,,,,,
,1,,,,,,,,,j.PNG,j,610afc69d32d0b52165ca115,2021-09-08_18h20.24.463,forced_choiceRT,2021.1.2,MacIntel,60.0024001,,,,,,,,9,Ontime,j,1,2.0552,6,0,24,3,1,,,,,
,1.96,,,,,,,,,f.PNG,f,610afc69d32d0b52165ca115,2021-09-08_18h20.24.463,forced_choiceRT,2021.1.2,MacIntel,60.0024001,,,,,,,,9,Slow,g,0,2.1873,6,1,25,0,1,,,,,
,1.84,,,,,,,,,f.PNG,f,610afc69d32d0b52165ca115,2021-09-08_18h20.24.463,forced_choiceRT,2021.1.2,MacIntel,60.0024001,,,,,,,,9,Slow,j,0,2.1551,6,2,26,0,1,,,,,
,0.2,,,,,,,,,f.PNG,f,610afc69d32d0b52165ca115,2021-09-08_18h20.24.463,forced_choiceRT,2021.1.2,MacIntel,60.0024001,,,,,,,,9,Ontime,f,1,2.0172,6,3,27,0,1,,,,,
,0.66,,,,,,,,,h.PNG,h,610afc69d32d0b52165ca115,2021-09-08_18h20.24.463,forced_choiceRT,2021.1.2,MacIntel,60.0024001,,,,,,,,9,Ontime,h,1,2.0346,7,0,28,2,1,,,,,
,1.44,,,,,,,,,g.PNG,g,610afc69d32d0b52165ca115,2021-09-08_18h20.24.463,forced_choiceRT,2021.1.2,MacIntel,60.0024001,,,,,,,,9,Slow,g,1,2.1331,7,1,29,1,1,,,,,
,1.37,,,,,,,,,j.PNG,j,610afc69d32d0b52165ca115,2021-09-08_18h20.24.463,forced_choiceRT,2021.1.2,MacIntel,60.0024001,,,,,,,,9,Ontime,j,1,1.9833,7,2,30,3,1,,,,,
,1.12,,,,,,,,,h.PNG,h,610afc69d32d0b52165ca115,2021-09-08_18h20.24.463,forced_choiceRT,2021.1.2,MacIntel,60.0024001,,,,,,,,9,Ontime,h,1,1.923,7,3,31,2,1,,,,,
,1.48,,,,,,,,,f.PNG,f,610afc69d32d0b52165ca115,2021-09-08_18h20.24.463,forced_choiceRT,2021.1.2,MacIntel,60.0024001,,,,,,,,9,Ontime,f,1,2.0995,8,0,32,0,1,,,,,
,1.17,,,,,,,,,g.PNG,g,610afc69d32d0b52165ca115,2021-09-08_18h20.24.463,forced_choiceRT,2021.1.2,MacIntel,60.0024001,,,,,,,,9,Fast,h,0,1.8712,8,1,33,1,1,,,,,
,1.05,,,,,,,,,g.PNG,g,610afc69d32d0b52165ca115,2021-09-08_18h20.24.463,forced_choiceRT,2021.1.2,MacIntel,60.0024001,,,,,,,,9,Ontime,g,1,2.0718,8,2,34,1,1,,,,,
,1.47,,,,,,,,,j.PNG,j,610afc69d32d0b52165ca115,2021-09-08_18h20.24.463,forced_choiceRT,2021.1.2,MacIntel,60.0024001,,,,,,,,9,Slow,g,0,2.1011,8,3,35,3,1,,,,,
,1.15,,,,,,,,,j.PNG,j,610afc69d32d0b52165ca115,2021-09-08_18h20.24.463,forced_choiceRT,2021.1.2,MacIntel,60.0024001,,,,,,,,9,Ontime,j,1,1.9239,9,0,36,3,1,,,,,
,0.79,,,,,,,,,j.PNG,j,610afc69d32d0b52165ca115,2021-09-08_18h20.24.463,forced_choiceRT,2021.1.2,MacIntel,60.0024001,,,,,,,,9,Ontime,j,1,2.0663,9,1,37,3,1,,,,,
,0.71,,,,,,,,,g.PNG,g,610afc69d32d0b52165ca115,2021-09-08_18h20.24.463,forced_choiceRT,2021.1.2,MacIntel,60.0024001,,,,,,,,9,Ontime,g,1,2.0234,9,2,38,1,1,,,,,
,0.54,,,,,,,,,f.PNG,f,610afc69d32d0b52165ca115,2021-09-08_18h20.24.463,forced_choiceRT,2021.1.2,MacIntel,60.0024001,,,,,,,,9,Ontime,f,1,2.0182,9,3,39,0,1,,,,,
,,,,,,,,,,,,610afc69d32d0b52165ca115,2021-09-08_18h20.24.463,forced_choiceRT,2021.1.2,MacIntel,60.0024001,,,,,,,,,,,,,,,,,,8,0,8,0,1
,1.31,,,,,,,,,f.PNG,f,610afc69d32d0b52165ca115,2021-09-08_18h20.24.463,forced_choiceRT,2021.1.2,MacIntel,60.0024001,,,,,,,,10,Fast,f,1,1.8937,0,0,0,0,1,,,,,
,0.27,,,,,,,,,h.PNG,h,610afc69d32d0b52165ca115,2021-09-08_18h20.24.463,forced_choiceRT,2021.1.2,MacIntel,60.0024001,,,,,,,,10,Ontime,h,1,2.0323,0,1,1,2,1,,,,,
,0.41,,,,,,,,,g.PNG,g,610afc69d32d0b52165ca115,2021-09-08_18h20.24.463,forced_choiceRT,2021.1.2,MacIntel,60.0024001,,,,,,,,10,Ontime,g,1,1.9887,0,2,2,1,1,,,,,
,0.37,,,,,,,,,j.PNG,j,610afc69d32d0b52165ca115,2021-09-08_18h20.24.463,forced_choiceRT,2021.1.2,MacIntel,60.0024001,,,,,,,,10,Fast,j,1,1.8805,0,3,3,3,1,,,,,
,0.91,,,,,,,,,j.PNG,j,610afc69d32d0b52165ca115,2021-09-08_18h20.24.463,forced_choiceRT,2021.1.2,MacIntel,60.0024001,,,,,,,,10,Ontime,j,1,2.0542,1,0,4,3,1,,,,,
,0.51,,,,,,,,,h.PNG,h,610afc69d32d0b52165ca115,2021-09-08_18h20.24.463,forced_choiceRT,2021.1.2,MacIntel,60.0024001,,,,,,,,10,Ontime,h,1,2.0259,1,1,5,2,1,,,,,
,1.56,,,,,,,,,j.PNG,j,610afc69d32d0b52165ca115,2021-09-08_18h20.24.463,forced_choiceRT,2021.1.2,MacIntel,60.0024001,,,,,,,,10,Ontime,j,1,2.084,1,2,6,3,1,,,,,
,0.09,,,,,,,,,g.PNG,g,610afc69d32d0b52165ca115,2021-09-08_18h20.24.463,forced_choiceRT,2021.1.2,MacIntel,60.0024001,,,,,,,,10,Ontime,g,1,2.0737,1,3,7,1,1,,,,,
,1.98,,,,,,,,,h.PNG,h,610afc69d32d0b52165ca115,2021-09-08_18h20.24.463,forced_choiceRT,2021.1.2,MacIntel,60.0024001,,,,,,,,10,Slow,j,0,2.3087,2,0,8,2,1,,,,,
,1.46,,,,,,,,,j.PNG,j,610afc69d32d0b52165ca115,2021-09-08_18h20.24.463,forced_choiceRT,2021.1.2,MacIntel,60.0024001,,,,,,,,10,Ontime,j,1,2.097,2,1,9,3,1,,,,,
,1.94,,,,,,,,,j.PNG,j,610afc69d32d0b52165ca115,2021-09-08_18h20.24.463,forced_choiceRT,2021.1.2,MacIntel,60.0024001,,,,,,,,10,Fast,j,1,1.855,2,2,10,3,1,,,,,
,0.04,,,,,,,,,j.PNG,j,610afc69d32d0b52165ca115,2021-09-08_18h20.24.463,forced_choiceRT,2021.1.2,MacIntel,60.0024001,,,,,,,,10,Ontime,j,1,1.9324,2,3,11,3,1,,,,,
,1.22,,,,,,,,,g.PNG,g,610afc69d32d0b52165ca115,2021-09-08_18h20.24.463,forced_choiceRT,2021.1.2,MacIntel,60.0024001,,,,,,,,10,Slow,g,1,2.103,3,0,12,1,1,,,,,
,1.64,,,,,,,,,f.PNG,f,610afc69d32d0b52165ca115,2021-09-08_18h20.24.463,forced_choiceRT,2021.1.2,MacIntel,60.0024001,,,,,,,,10,Ontime,g,0,2.0181,3,1,13,0,1,,,,,
,0.61,,,,,,,,,h.PNG,h,610afc69d32d0b52165ca115,2021-09-08_18h20.24.463,forced_choiceRT,2021.1.2,MacIntel,60.0024001,,,,,,,,10,Slow,h,1,2.1012,3,2,14,2,1,,,,,
,0.49,,,,,,,,,g.PNG,g,610afc69d32d0b52165ca115,2021-09-08_18h20.24.463,forced_choiceRT,2021.1.2,MacIntel,60.0024001,,,,,,,,10,Slow,g,1,2.1347,3,3,15,1,1,,,,,
,0.62,,,,,,,,,f.PNG,f,610afc69d32d0b52165ca115,2021-09-08_18h20.24.463,forced_choiceRT,2021.1.2,MacIntel,60.0024001,,,,,,,,10,Ontime,f,1,1.9677,4,0,16,0,1,,,,,
,0.65,,,,,,,,,f.PNG,f,610afc69d32d0b52165ca115,2021-09-08_18h20.24.463,forced_choiceRT,2021.1.2,MacIntel,60.0024001,,,,,,,,10,Ontime,f,1,2.021,4,1,17,0,1,,,,,
,1.32,,,,,,,,,h.PNG,h,610afc69d32d0b52165ca115,2021-09-08_18h20.24.463,forced_choiceRT,2021.1.2,MacIntel,60.0024001,,,,,,,,10,Ontime,h,1,2.0171,4,2,18,2,1,,,,,
,1.56,,,,,,,,,j.PNG,j,610afc69d32d0b52165ca115,2021-09-08_18h20.24.463,forced_choiceRT,2021.1.2,MacIntel,60.0024001,,,,,,,,10,Ontime,j,1,2.0507,4,3,19,3,1,,,,,
,0.54,,,,,,,,,j.PNG,j,610afc69d32d0b52165ca115,2021-09-08_18h20.24.463,forced_choiceRT,2021.1.2,MacIntel,60.0024001,,,,,,,,10,Ontime,j,1,1.9679,5,0,20,3,1,,,,,
,0.33,,,,,,,,,h.PNG,h,610afc69d32d0b52165ca115,2021-09-08_18h20.24.463,forced_choiceRT,2021.1.2,MacIntel,60.0024001,,,,,,,,10,Ontime,h,1,1.9848,5,1,21,2,1,,,,,
,1.12,,,,,,,,,j.PNG,j,610afc69d32d0b52165ca115,2021-09-08_18h20.24.463,forced_choiceRT,2021.1.2,MacIntel,60.0024001,,,,,,,,10,Ontime,j,1,1.9356,5,2,22,3,1,,,,,
,0.74,,,,,,,,,g.PNG,g,610afc69d32d0b52165ca115,2021-09-08_18h20.24.463,forced_choiceRT,2021.1.2,MacIntel,60.0024001,,,,,,,,10,Ontime,g,1,2.0186,5,3,23,1,1,,,,,
,1.61,,,,,,,,,g.PNG,g,610afc69d32d0b52165ca115,2021-09-08_18h20.24.463,forced_choiceRT,2021.1.2,MacIntel,60.0024001,,,,,,,,10,Ontime,j,0,1.9843,6,0,24,1,1,,,,,
,1.63,,,,,,,,,g.PNG,g,610afc69d32d0b52165ca115,2021-09-08_18h20.24.463,forced_choiceRT,2021.1.2,MacIntel,60.0024001,,,,,,,,10,Slow,j,0,2.3007,6,1,25,1,1,,,,,
,0.45,,,,,,,,,h.PNG,h,610afc69d32d0b52165ca115,2021-09-08_18h20.24.463,forced_choiceRT,2021.1.2,MacIntel,60.0024001,,,,,,,,10,Ontime,h,1,1.9851,6,2,26,2,1,,,,,
,1.82,,,,,,,,,f.PNG,f,610afc69d32d0b52165ca115,2021-09-08_18h20.24.463,forced_choiceRT,2021.1.2,MacIntel,60.0024001,,,,,,,,10,Ontime,j,0,2.0851,6,3,27,0,1,,,,,
,1.79,,,,,,,,,f.PNG,f,610afc69d32d0b52165ca115,2021-09-08_18h20.24.463,forced_choiceRT,2021.1.2,MacIntel,60.0024001,,,,,,,,10,Ontime,f,1,2.0859,7,0,28,0,1,,,,,
,1.77,,,,,,,,,g.PNG,g,610afc69d32d0b52165ca115,2021-09-08_18h20.24.463,forced_choiceRT,2021.1.2,MacIntel,60.0024001,,,,,,,,10,Ontime,f,0,2.0687,7,1,29,1,1,,,,,
,1.74,,,,,,,,,f.PNG,f,610afc69d32d0b52165ca115,2021-09-08_18h20.24.463,forced_choiceRT,2021.1.2,MacIntel,60.0024001,,,,,,,,10,Ontime,g,0,2.0701,7,2,30,0,1,,,,,
,0.16,,,,,,,,,g.PNG,g,610afc69d32d0b52165ca115,2021-09-08_18h20.24.463,forced_choiceRT,2021.1.2,MacIntel,60.0024001,,,,,,,,10,Ontime,g,1,2.0521,7,3,31,1,1,,,,,
,1.96,,,,,,,,,h.PNG,h,610afc69d32d0b52165ca115,2021-09-08_18h20.24.463,forced_choiceRT,2021.1.2,MacIntel,60.0024001,,,,,,,,10,Slow,g,0,2.1992,8,0,32,2,1,,,,,
,1.34,,,,,,,,,f.PNG,f,610afc69d32d0b52165ca115,2021-09-08_18h20.24.463,forced_choiceRT,2021.1.2,MacIntel,60.0024001,,,,,,,,10,Ontime,f,1,1.9682,8,1,33,0,1,,,,,
,1.93,,,,,,,,,f.PNG,f,610afc69d32d0b52165ca115,2021-09-08_18h20.24.463,forced_choiceRT,2021.1.2,MacIntel,60.0024001,,,,,,,,10,Ontime,h,0,2.0176,8,2,34,0,1,,,,,
,1.98,,,,,,,,,f.PNG,f,610afc69d32d0b52165ca115,2021-09-08_18h20.24.463,forced_choiceRT,2021.1.2,MacIntel,60.0024001,,,,,,,,10,Ontime,f,1,2.0841,8,3,35,0,1,,,,,
,0.05,,,,,,,,,h.PNG,h,610afc69d32d0b52165ca115,2021-09-08_18h20.24.463,forced_choiceRT,2021.1.2,MacIntel,60.0024001,,,,,,,,10,Ontime,h,1,2.0349,9,0,36,2,1,,,,,
,1.55,,,,,,,,,g.PNG,g,610afc69d32d0b52165ca115,2021-09-08_18h20.24.463,forced_choiceRT,2021.1.2,MacIntel,60.0024001,,,,,,,,10,Slow,j,0,2.1003,9,1,37,1,1,,,,,
,1.18,,,,,,,,,j.PNG,j,610afc69d32d0b52165ca115,2021-09-08_18h20.24.463,forced_choiceRT,2021.1.2,MacIntel,60.0024001,,,,,,,,10,Ontime,j,1,1.9335,9,2,38,3,1,,,,,
,1.3,,,,,,,,,h.PNG,h,610afc69d32d0b52165ca115,2021-09-08_18h20.24.463,forced_choiceRT,2021.1.2,MacIntel,60.0024001,,,,,,,,10,Ontime,h,1,1.9611,9,3,39,2,1,,,,,
,,,,,,,,,,,,610afc69d32d0b52165ca115,2021-09-08_18h20.24.463,forced_choiceRT,2021.1.2,MacIntel,60.0024001,,,,,,,,,,,,,,,,,,9,0,9,0,1
