IP_Addresss,target_onset,trial_resp_sp.keys,trial_resp_sp.corr,trial_resp_sp.rt,trials_train_loop.thisRepN,trials_train_loop.thisTrialN,trials_train_loop.thisN,trials_train_loop.thisIndex,trials_train_loop.ran,pic,correct_key,participant,date,expName,psychopyVersion,OS,frameRate,trial_resp_timing.keys,trial_resp_timing.rt,trials_train_timing.thisRepN,trials_train_timing.thisTrialN,trials_train_timing.thisN,trials_train_timing.thisIndex,trials_train_timing.ran,block_id,ontime,forcedRT_resp.keys,forcedRT_resp.corr,forcedRT_resp.rt,trials.thisRepN,trials.thisTrialN,trials.thisN,trials.thisIndex,trials.ran,blocks.thisRepN,blocks.thisTrialN,blocks.thisN,blocks.thisIndex,blocks.ran
71.79.47.222,0,h,1,3.263,0,0,0,2,1,h.PNG,h,610c2d6cad3f3f38381bc9b6,2021-09-08_20h54.05.407,forced_choiceRT,2021.1.2,Linux x86_64,59.98080614,,,,,,,,,,,,,,,,,,,,,,
,0,g,1,1.0769,0,1,1,1,1,g.PNG,g,610c2d6cad3f3f38381bc9b6,2021-09-08_20h54.05.407,forced_choiceRT,2021.1.2,Linux x86_64,59.98080614,,,,,,,,,,,,,,,,,,,,,,
,0,f,1,0.6317,0,2,2,0,1,f.PNG,f,610c2d6cad3f3f38381bc9b6,2021-09-08_20h54.05.407,forced_choiceRT,2021.1.2,Linux x86_64,59.98080614,,,,,,,,,,,,,,,,,,,,,,
,0,f,1,0.6298,0,3,3,0,1,f.PNG,f,610c2d6cad3f3f38381bc9b6,2021-09-08_20h54.05.407,forced_choiceRT,2021.1.2,Linux x86_64,59.98080614,,,,,,,,,,,,,,,,,,,,,,
,0,f,1,0.5329,1,0,4,0,1,f.PNG,f,610c2d6cad3f3f38381bc9b6,2021-09-08_20h54.05.407,forced_choiceRT,2021.1.2,Linux x86_64,59.98080614,,,,,,,,,,,,,,,,,,,,,,
,0,h,0,0.8549,1,1,5,1,1,g.PNG,g,610c2d6cad3f3f38381bc9b6,2021-09-08_20h54.05.407,forced_choiceRT,2021.1.2,Linux x86_64,59.98080614,,,,,,,,,,,,,,,,,,,,,,
,0,j,1,0.7927,1,2,6,3,1,j.PNG,j,610c2d6cad3f3f38381bc9b6,2021-09-08_20h54.05.407,forced_choiceRT,2021.1.2,Linux x86_64,59.98080614,,,,,,,,,,,,,,,,,,,,,,
,0,g,1,1.7651,1,3,7,1,1,g.PNG,g,610c2d6cad3f3f38381bc9b6,2021-09-08_20h54.05.407,forced_choiceRT,2021.1.2,Linux x86_64,59.98080614,,,,,,,,,,,,,,,,,,,,,,
,0,j,1,0.9162,2,0,8,3,1,j.PNG,j,610c2d6cad3f3f38381bc9b6,2021-09-08_20h54.05.407,forced_choiceRT,2021.1.2,Linux x86_64,59.98080614,,,,,,,,,,,,,,,,,,,,,,
,0,g,1,0.7241,2,1,9,1,1,g.PNG,g,610c2d6cad3f3f38381bc9b6,2021-09-08_20h54.05.407,forced_choiceRT,2021.1.2,Linux x86_64,59.98080614,,,,,,,,,,,,,,,,,,,,,,
,0,f,1,0.5994,2,2,10,0,1,f.PNG,f,610c2d6cad3f3f38381bc9b6,2021-09-08_20h54.05.407,forced_choiceRT,2021.1.2,Linux x86_64,59.98080614,,,,,,,,,,,,,,,,,,,,,,
,0,h,1,0.6812,2,3,11,2,1,h.PNG,h,610c2d6cad3f3f38381bc9b6,2021-09-08_20h54.05.407,forced_choiceRT,2021.1.2,Linux x86_64,59.98080614,,,,,,,,,,,,,,,,,,,,,,
,0,h,1,0.732,3,0,12,2,1,h.PNG,h,610c2d6cad3f3f38381bc9b6,2021-09-08_20h54.05.407,forced_choiceRT,2021.1.2,Linux x86_64,59.98080614,,,,,,,,,,,,,,,,,,,,,,
,0,g,1,1.0169,3,1,13,1,1,g.PNG,g,610c2d6cad3f3f38381bc9b6,2021-09-08_20h54.05.407,forced_choiceRT,2021.1.2,Linux x86_64,59.98080614,,,,,,,,,,,,,,,,,,,,,,
,0,f,1,0.5841,3,2,14,0,1,f.PNG,f,610c2d6cad3f3f38381bc9b6,2021-09-08_20h54.05.407,forced_choiceRT,2021.1.2,Linux x86_64,59.98080614,,,,,,,,,,,,,,,,,,,,,,
,0,f,1,0.7848,3,3,15,0,1,f.PNG,f,610c2d6cad3f3f38381bc9b6,2021-09-08_20h54.05.407,forced_choiceRT,2021.1.2,Linux x86_64,59.98080614,,,,,,,,,,,,,,,,,,,,,,
,0,j,1,0.7857,4,0,16,3,1,j.PNG,j,610c2d6cad3f3f38381bc9b6,2021-09-08_20h54.05.407,forced_choiceRT,2021.1.2,Linux x86_64,59.98080614,,,,,,,,,,,,,,,,,,,,,,
,0,g,1,0.8555,4,1,17,1,1,g.PNG,g,610c2d6cad3f3f38381bc9b6,2021-09-08_20h54.05.407,forced_choiceRT,2021.1.2,Linux x86_64,59.98080614,,,,,,,,,,,,,,,,,,,,,,
,0,h,1,0.6013,4,2,18,2,1,h.PNG,h,610c2d6cad3f3f38381bc9b6,2021-09-08_20h54.05.407,forced_choiceRT,2021.1.2,Linux x86_64,59.98080614,,,,,,,,,,,,,,,,,,,,,,
,0,j,1,0.737,4,3,19,3,1,j.PNG,j,610c2d6cad3f3f38381bc9b6,2021-09-08_20h54.05.407,forced_choiceRT,2021.1.2,Linux x86_64,59.98080614,,,,,,,,,,,,,,,,,,,,,,
,0,h,1,1.3006,5,0,20,2,1,h.PNG,h,610c2d6cad3f3f38381bc9b6,2021-09-08_20h54.05.407,forced_choiceRT,2021.1.2,Linux x86_64,59.98080614,,,,,,,,,,,,,,,,,,,,,,
,0,j,1,0.7675,5,1,21,3,1,j.PNG,j,610c2d6cad3f3f38381bc9b6,2021-09-08_20h54.05.407,forced_choiceRT,2021.1.2,Linux x86_64,59.98080614,,,,,,,,,,,,,,,,,,,,,,
,0,j,1,0.6317,5,2,22,3,1,j.PNG,j,610c2d6cad3f3f38381bc9b6,2021-09-08_20h54.05.407,forced_choiceRT,2021.1.2,Linux x86_64,59.98080614,,,,,,,,,,,,,,,,,,,,,,
,0,g,1,1.0496,5,3,23,1,1,g.PNG,g,610c2d6cad3f3f38381bc9b6,2021-09-08_20h54.05.407,forced_choiceRT,2021.1.2,Linux x86_64,59.98080614,,,,,,,,,,,,,,,,,,,,,,
,0,h,1,0.6337,6,0,24,2,1,h.PNG,h,610c2d6cad3f3f38381bc9b6,2021-09-08_20h54.05.407,forced_choiceRT,2021.1.2,Linux x86_64,59.98080614,,,,,,,,,,,,,,,,,,,,,,
,0,j,1,0.821,6,1,25,3,1,j.PNG,j,610c2d6cad3f3f38381bc9b6,2021-09-08_20h54.05.407,forced_choiceRT,2021.1.2,Linux x86_64,59.98080614,,,,,,,,,,,,,,,,,,,,,,
,0,j,1,1.0238,6,2,26,3,1,j.PNG,j,610c2d6cad3f3f38381bc9b6,2021-09-08_20h54.05.407,forced_choiceRT,2021.1.2,Linux x86_64,59.98080614,,,,,,,,,,,,,,,,,,,,,,
,0,j,1,0.6297,6,3,27,3,1,j.PNG,j,610c2d6cad3f3f38381bc9b6,2021-09-08_20h54.05.407,forced_choiceRT,2021.1.2,Linux x86_64,59.98080614,,,,,,,,,,,,,,,,,,,,,,
,0,h,1,0.7306,7,0,28,2,1,h.PNG,h,610c2d6cad3f3f38381bc9b6,2021-09-08_20h54.05.407,forced_choiceRT,2021.1.2,Linux x86_64,59.98080614,,,,,,,,,,,,,,,,,,,,,,
,0,g,1,0.7219,7,1,29,1,1,g.PNG,g,610c2d6cad3f3f38381bc9b6,2021-09-08_20h54.05.407,forced_choiceRT,2021.1.2,Linux x86_64,59.98080614,,,,,,,,,,,,,,,,,,,,,,
,0,j,1,0.7396,7,2,30,3,1,j.PNG,j,610c2d6cad3f3f38381bc9b6,2021-09-08_20h54.05.407,forced_choiceRT,2021.1.2,Linux x86_64,59.98080614,,,,,,,,,,,,,,,,,,,,,,
,0,f,1,0.7204,7,3,31,0,1,f.PNG,f,610c2d6cad3f3f38381bc9b6,2021-09-08_20h54.05.407,forced_choiceRT,2021.1.2,Linux x86_64,59.98080614,,,,,,,,,,,,,,,,,,,,,,
,0,h,1,1.3336,8,0,32,2,1,h.PNG,h,610c2d6cad3f3f38381bc9b6,2021-09-08_20h54.05.407,forced_choiceRT,2021.1.2,Linux x86_64,59.98080614,,,,,,,,,,,,,,,,,,,,,,
,0,h,1,1.2142,8,1,33,2,1,h.PNG,h,610c2d6cad3f3f38381bc9b6,2021-09-08_20h54.05.407,forced_choiceRT,2021.1.2,Linux x86_64,59.98080614,,,,,,,,,,,,,,,,,,,,,,
,0,f,1,0.7847,8,2,34,0,1,f.PNG,f,610c2d6cad3f3f38381bc9b6,2021-09-08_20h54.05.407,forced_choiceRT,2021.1.2,Linux x86_64,59.98080614,,,,,,,,,,,,,,,,,,,,,,
,0,g,1,1.1882,8,3,35,1,1,g.PNG,g,610c2d6cad3f3f38381bc9b6,2021-09-08_20h54.05.407,forced_choiceRT,2021.1.2,Linux x86_64,59.98080614,,,,,,,,,,,,,,,,,,,,,,
,0,f,1,0.6971,9,0,36,0,1,f.PNG,f,610c2d6cad3f3f38381bc9b6,2021-09-08_20h54.05.407,forced_choiceRT,2021.1.2,Linux x86_64,59.98080614,,,,,,,,,,,,,,,,,,,,,,
,0,j,1,0.6505,9,1,37,3,1,j.PNG,j,610c2d6cad3f3f38381bc9b6,2021-09-08_20h54.05.407,forced_choiceRT,2021.1.2,Linux x86_64,59.98080614,,,,,,,,,,,,,,,,,,,,,,
,0,h,1,0.9174,9,2,38,2,1,h.PNG,h,610c2d6cad3f3f38381bc9b6,2021-09-08_20h54.05.407,forced_choiceRT,2021.1.2,Linux x86_64,59.98080614,,,,,,,,,,,,,,,,,,,,,,
,0,j,1,0.698,9,3,39,3,1,j.PNG,j,610c2d6cad3f3f38381bc9b6,2021-09-08_20h54.05.407,forced_choiceRT,2021.1.2,Linux x86_64,59.98080614,,,,,,,,,,,,,,,,,,,,,,
,0,f,1,0.7022,10,0,40,0,1,f.PNG,f,610c2d6cad3f3f38381bc9b6,2021-09-08_20h54.05.407,forced_choiceRT,2021.1.2,Linux x86_64,59.98080614,,,,,,,,,,,,,,,,,,,,,,
,0,h,1,0.6159,10,1,41,2,1,h.PNG,h,610c2d6cad3f3f38381bc9b6,2021-09-08_20h54.05.407,forced_choiceRT,2021.1.2,Linux x86_64,59.98080614,,,,,,,,,,,,,,,,,,,,,,
,0,g,1,0.788,10,2,42,1,1,g.PNG,g,610c2d6cad3f3f38381bc9b6,2021-09-08_20h54.05.407,forced_choiceRT,2021.1.2,Linux x86_64,59.98080614,,,,,,,,,,,,,,,,,,,,,,
,0,f,1,0.5526,10,3,43,0,1,f.PNG,f,610c2d6cad3f3f38381bc9b6,2021-09-08_20h54.05.407,forced_choiceRT,2021.1.2,Linux x86_64,59.98080614,,,,,,,,,,,,,,,,,,,,,,
,0,j,1,0.7821,11,0,44,3,1,j.PNG,j,610c2d6cad3f3f38381bc9b6,2021-09-08_20h54.05.407,forced_choiceRT,2021.1.2,Linux x86_64,59.98080614,,,,,,,,,,,,,,,,,,,,,,
,0,f,1,0.6358,11,1,45,0,1,f.PNG,f,610c2d6cad3f3f38381bc9b6,2021-09-08_20h54.05.407,forced_choiceRT,2021.1.2,Linux x86_64,59.98080614,,,,,,,,,,,,,,,,,,,,,,
,0,h,1,0.6171,11,2,46,2,1,h.PNG,h,610c2d6cad3f3f38381bc9b6,2021-09-08_20h54.05.407,forced_choiceRT,2021.1.2,Linux x86_64,59.98080614,,,,,,,,,,,,,,,,,,,,,,
,0,h,1,0.7149,11,3,47,2,1,h.PNG,h,610c2d6cad3f3f38381bc9b6,2021-09-08_20h54.05.407,forced_choiceRT,2021.1.2,Linux x86_64,59.98080614,,,,,,,,,,,,,,,,,,,,,,
,0,g,1,0.6464,12,0,48,1,1,g.PNG,g,610c2d6cad3f3f38381bc9b6,2021-09-08_20h54.05.407,forced_choiceRT,2021.1.2,Linux x86_64,59.98080614,,,,,,,,,,,,,,,,,,,,,,
,0,g,1,0.588,12,1,49,1,1,g.PNG,g,610c2d6cad3f3f38381bc9b6,2021-09-08_20h54.05.407,forced_choiceRT,2021.1.2,Linux x86_64,59.98080614,,,,,,,,,,,,,,,,,,,,,,
,0,h,1,0.6525,12,2,50,2,1,h.PNG,h,610c2d6cad3f3f38381bc9b6,2021-09-08_20h54.05.407,forced_choiceRT,2021.1.2,Linux x86_64,59.98080614,,,,,,,,,,,,,,,,,,,,,,
,0,j,1,0.6828,12,3,51,3,1,j.PNG,j,610c2d6cad3f3f38381bc9b6,2021-09-08_20h54.05.407,forced_choiceRT,2021.1.2,Linux x86_64,59.98080614,,,,,,,,,,,,,,,,,,,,,,
,0,g,1,0.731,13,0,52,1,1,g.PNG,g,610c2d6cad3f3f38381bc9b6,2021-09-08_20h54.05.407,forced_choiceRT,2021.1.2,Linux x86_64,59.98080614,,,,,,,,,,,,,,,,,,,,,,
,0,h,1,0.5658,13,1,53,2,1,h.PNG,h,610c2d6cad3f3f38381bc9b6,2021-09-08_20h54.05.407,forced_choiceRT,2021.1.2,Linux x86_64,59.98080614,,,,,,,,,,,,,,,,,,,,,,
,0,g,1,0.5668,13,2,54,1,1,g.PNG,g,610c2d6cad3f3f38381bc9b6,2021-09-08_20h54.05.407,forced_choiceRT,2021.1.2,Linux x86_64,59.98080614,,,,,,,,,,,,,,,,,,,,,,
,0,j,1,0.6347,13,3,55,3,1,j.PNG,j,610c2d6cad3f3f38381bc9b6,2021-09-08_20h54.05.407,forced_choiceRT,2021.1.2,Linux x86_64,59.98080614,,,,,,,,,,,,,,,,,,,,,,
,0,f,1,0.6136,14,0,56,0,1,f.PNG,f,610c2d6cad3f3f38381bc9b6,2021-09-08_20h54.05.407,forced_choiceRT,2021.1.2,Linux x86_64,59.98080614,,,,,,,,,,,,,,,,,,,,,,
,0,f,1,0.6496,14,1,57,0,1,f.PNG,f,610c2d6cad3f3f38381bc9b6,2021-09-08_20h54.05.407,forced_choiceRT,2021.1.2,Linux x86_64,59.98080614,,,,,,,,,,,,,,,,,,,,,,
,0,f,1,0.4339,14,2,58,0,1,f.PNG,f,610c2d6cad3f3f38381bc9b6,2021-09-08_20h54.05.407,forced_choiceRT,2021.1.2,Linux x86_64,59.98080614,,,,,,,,,,,,,,,,,,,,,,
,0,g,1,0.8331,14,3,59,1,1,g.PNG,g,610c2d6cad3f3f38381bc9b6,2021-09-08_20h54.05.407,forced_choiceRT,2021.1.2,Linux x86_64,59.98080614,,,,,,,,,,,,,,,,,,,,,,
,,,,,,,,,,,,610c2d6cad3f3f38381bc9b6,2021-09-08_20h54.05.407,forced_choiceRT,2021.1.2,Linux x86_64,59.98080614,f,2.0939,0,0,0,0,1,,,,,,,,,,,,,,,
,,,,,,,,,,,,610c2d6cad3f3f38381bc9b6,2021-09-08_20h54.05.407,forced_choiceRT,2021.1.2,Linux x86_64,59.98080614,f,2.0085,1,0,1,0,1,,,,,,,,,,,,,,,
,,,,,,,,,,,,610c2d6cad3f3f38381bc9b6,2021-09-08_20h54.05.407,forced_choiceRT,2021.1.2,Linux x86_64,59.98080614,f,2.0003,2,0,2,0,1,,,,,,,,,,,,,,,
,,,,,,,,,,,,610c2d6cad3f3f38381bc9b6,2021-09-08_20h54.05.407,forced_choiceRT,2021.1.2,Linux x86_64,59.98080614,f,1.9221,3,0,3,0,1,,,,,,,,,,,,,,,
,,,,,,,,,,,,610c2d6cad3f3f38381bc9b6,2021-09-08_20h54.05.407,forced_choiceRT,2021.1.2,Linux x86_64,59.98080614,f,2,4,0,4,0,1,,,,,,,,,,,,,,,
,,,,,,,,,,,,610c2d6cad3f3f38381bc9b6,2021-09-08_20h54.05.407,forced_choiceRT,2021.1.2,Linux x86_64,59.98080614,g,1.9589,5,0,5,0,1,,,,,,,,,,,,,,,
,,,,,,,,,,,,610c2d6cad3f3f38381bc9b6,2021-09-08_20h54.05.407,forced_choiceRT,2021.1.2,Linux x86_64,59.98080614,h,1.9667,6,0,6,0,1,,,,,,,,,,,,,,,
,,,,,,,,,,,,610c2d6cad3f3f38381bc9b6,2021-09-08_20h54.05.407,forced_choiceRT,2021.1.2,Linux x86_64,59.98080614,j,2.0026,7,0,7,0,1,,,,,,,,,,,,,,,
,,,,,,,,,,,,610c2d6cad3f3f38381bc9b6,2021-09-08_20h54.05.407,forced_choiceRT,2021.1.2,Linux x86_64,59.98080614,g,2.142,8,0,8,0,1,,,,,,,,,,,,,,,
,,,,,,,,,,,,610c2d6cad3f3f38381bc9b6,2021-09-08_20h54.05.407,forced_choiceRT,2021.1.2,Linux x86_64,59.98080614,g,1.9367,9,0,9,0,1,,,,,,,,,,,,,,,
,,,,,,,,,,,,610c2d6cad3f3f38381bc9b6,2021-09-08_20h54.05.407,forced_choiceRT,2021.1.2,Linux x86_64,59.98080614,j,1.9545,10,0,10,0,1,,,,,,,,,,,,,,,
,,,,,,,,,,,,610c2d6cad3f3f38381bc9b6,2021-09-08_20h54.05.407,forced_choiceRT,2021.1.2,Linux x86_64,59.98080614,j,1.7855,11,0,11,0,1,,,,,,,,,,,,,,,
,,,,,,,,,,,,610c2d6cad3f3f38381bc9b6,2021-09-08_20h54.05.407,forced_choiceRT,2021.1.2,Linux x86_64,59.98080614,j,2.0212,12,0,12,0,1,,,,,,,,,,,,,,,
,,,,,,,,,,,,610c2d6cad3f3f38381bc9b6,2021-09-08_20h54.05.407,forced_choiceRT,2021.1.2,Linux x86_64,59.98080614,h,2.0342,13,0,13,0,1,,,,,,,,,,,,,,,
,,,,,,,,,,,,610c2d6cad3f3f38381bc9b6,2021-09-08_20h54.05.407,forced_choiceRT,2021.1.2,Linux x86_64,59.98080614,j,2.0153,14,0,14,0,1,,,,,,,,,,,,,,,
,,,,,,,,,,,,610c2d6cad3f3f38381bc9b6,2021-09-08_20h54.05.407,forced_choiceRT,2021.1.2,Linux x86_64,59.98080614,h,1.9886,15,0,15,0,1,,,,,,,,,,,,,,,
,,,,,,,,,,,,610c2d6cad3f3f38381bc9b6,2021-09-08_20h54.05.407,forced_choiceRT,2021.1.2,Linux x86_64,59.98080614,h,1.9407,16,0,16,0,1,,,,,,,,,,,,,,,
,,,,,,,,,,,,610c2d6cad3f3f38381bc9b6,2021-09-08_20h54.05.407,forced_choiceRT,2021.1.2,Linux x86_64,59.98080614,j,1.9351,17,0,17,0,1,,,,,,,,,,,,,,,
,,,,,,,,,,,,610c2d6cad3f3f38381bc9b6,2021-09-08_20h54.05.407,forced_choiceRT,2021.1.2,Linux x86_64,59.98080614,j,2.0378,18,0,18,0,1,,,,,,,,,,,,,,,
,,,,,,,,,,,,610c2d6cad3f3f38381bc9b6,2021-09-08_20h54.05.407,forced_choiceRT,2021.1.2,Linux x86_64,59.98080614,f,1.9193,19,0,19,0,1,,,,,,,,,,,,,,,
,1.98,,,,,,,,,h.PNG,h,610c2d6cad3f3f38381bc9b6,2021-09-08_20h54.05.407,forced_choiceRT,2021.1.2,Linux x86_64,59.98080614,,,,,,,,1,Slow,f,0,2.1498,0,0,0,2,1,,,,,
,1.81,,,,,,,,,g.PNG,g,610c2d6cad3f3f38381bc9b6,2021-09-08_20h54.05.407,forced_choiceRT,2021.1.2,Linux x86_64,59.98080614,,,,,,,,1,Ontime,h,0,1.9806,0,1,1,1,1,,,,,
,1.4,,,,,,,,,h.PNG,h,610c2d6cad3f3f38381bc9b6,2021-09-08_20h54.05.407,forced_choiceRT,2021.1.2,Linux x86_64,59.98080614,,,,,,,,1,Ontime,h,1,2.0151,0,2,2,2,1,,,,,
,0.63,,,,,,,,,h.PNG,h,610c2d6cad3f3f38381bc9b6,2021-09-08_20h54.05.407,forced_choiceRT,2021.1.2,Linux x86_64,59.98080614,,,,,,,,1,Fast,h,1,1.8829,0,3,3,2,1,,,,,
,0.85,,,,,,,,,g.PNG,g,610c2d6cad3f3f38381bc9b6,2021-09-08_20h54.05.407,forced_choiceRT,2021.1.2,Linux x86_64,59.98080614,,,,,,,,1,Ontime,g,1,2.0346,1,0,4,1,1,,,,,
,1.33,,,,,,,,,g.PNG,g,610c2d6cad3f3f38381bc9b6,2021-09-08_20h54.05.407,forced_choiceRT,2021.1.2,Linux x86_64,59.98080614,,,,,,,,1,Ontime,g,1,2.0832,1,1,5,1,1,,,,,
,0.02,,,,,,,,,f.PNG,f,610c2d6cad3f3f38381bc9b6,2021-09-08_20h54.05.407,forced_choiceRT,2021.1.2,Linux x86_64,59.98080614,,,,,,,,1,Ontime,f,1,1.9039,1,2,6,0,1,,,,,
,1,,,,,,,,,g.PNG,g,610c2d6cad3f3f38381bc9b6,2021-09-08_20h54.05.407,forced_choiceRT,2021.1.2,Linux x86_64,59.98080614,,,,,,,,1,Ontime,g,1,1.9929,1,3,7,1,1,,,,,
,1.41,,,,,,,,,h.PNG,h,610c2d6cad3f3f38381bc9b6,2021-09-08_20h54.05.407,forced_choiceRT,2021.1.2,Linux x86_64,59.98080614,,,,,,,,1,Ontime,h,1,2.0881,2,0,8,2,1,,,,,
,0.57,,,,,,,,,f.PNG,f,610c2d6cad3f3f38381bc9b6,2021-09-08_20h54.05.407,forced_choiceRT,2021.1.2,Linux x86_64,59.98080614,,,,,,,,1,Fast,f,1,1.8767,2,1,9,0,1,,,,,
,0.3,,,,,,,,,f.PNG,f,610c2d6cad3f3f38381bc9b6,2021-09-08_20h54.05.407,forced_choiceRT,2021.1.2,Linux x86_64,59.98080614,,,,,,,,1,Ontime,f,1,1.9212,2,2,10,0,1,,,,,
,0.62,,,,,,,,,j.PNG,j,610c2d6cad3f3f38381bc9b6,2021-09-08_20h54.05.407,forced_choiceRT,2021.1.2,Linux x86_64,59.98080614,,,,,,,,1,Ontime,j,1,1.9556,2,3,11,3,1,,,,,
,1.33,,,,,,,,,j.PNG,j,610c2d6cad3f3f38381bc9b6,2021-09-08_20h54.05.407,forced_choiceRT,2021.1.2,Linux x86_64,59.98080614,,,,,,,,1,Ontime,h,0,2.0571,3,0,12,3,1,,,,,
,0.79,,,,,,,,,g.PNG,g,610c2d6cad3f3f38381bc9b6,2021-09-08_20h54.05.407,forced_choiceRT,2021.1.2,Linux x86_64,59.98080614,,,,,,,,1,Ontime,h,0,1.9232,3,1,13,1,1,,,,,
,0.05,,,,,,,,,j.PNG,j,610c2d6cad3f3f38381bc9b6,2021-09-08_20h54.05.407,forced_choiceRT,2021.1.2,Linux x86_64,59.98080614,,,,,,,,1,Fast,j,1,1.7516,3,2,14,3,1,,,,,
,1.07,,,,,,,,,h.PNG,h,610c2d6cad3f3f38381bc9b6,2021-09-08_20h54.05.407,forced_choiceRT,2021.1.2,Linux x86_64,59.98080614,,,,,,,,1,Ontime,h,1,2.0549,3,3,15,2,1,,,,,
,1.78,,,,,,,,,j.PNG,j,610c2d6cad3f3f38381bc9b6,2021-09-08_20h54.05.407,forced_choiceRT,2021.1.2,Linux x86_64,59.98080614,,,,,,,,1,Slow,j,1,2.3094,4,0,16,3,1,,,,,
,1.25,,,,,,,,,h.PNG,h,610c2d6cad3f3f38381bc9b6,2021-09-08_20h54.05.407,forced_choiceRT,2021.1.2,Linux x86_64,59.98080614,,,,,,,,1,Ontime,f,0,2.0466,4,1,17,2,1,,,,,
,0.99,,,,,,,,,j.PNG,j,610c2d6cad3f3f38381bc9b6,2021-09-08_20h54.05.407,forced_choiceRT,2021.1.2,Linux x86_64,59.98080614,,,,,,,,1,Fast,j,1,1.8345,4,2,18,3,1,,,,,
,0.1,,,,,,,,,h.PNG,h,610c2d6cad3f3f38381bc9b6,2021-09-08_20h54.05.407,forced_choiceRT,2021.1.2,Linux x86_64,59.98080614,,,,,,,,1,Ontime,h,1,2.0346,4,3,19,2,1,,,,,
,1.86,,,,,,,,,g.PNG,g,610c2d6cad3f3f38381bc9b6,2021-09-08_20h54.05.407,forced_choiceRT,2021.1.2,Linux x86_64,59.98080614,,,,,,,,1,Slow,j,0,2.3347,5,0,20,1,1,,,,,
,0.89,,,,,,,,,f.PNG,f,610c2d6cad3f3f38381bc9b6,2021-09-08_20h54.05.407,forced_choiceRT,2021.1.2,Linux x86_64,59.98080614,,,,,,,,1,Ontime,f,1,1.9834,5,1,21,0,1,,,,,
,1.72,,,,,,,,,h.PNG,h,610c2d6cad3f3f38381bc9b6,2021-09-08_20h54.05.407,forced_choiceRT,2021.1.2,Linux x86_64,59.98080614,,,,,,,,1,Slow,h,1,2.2156,5,2,22,2,1,,,,,
,1.53,,,,,,,,,h.PNG,h,610c2d6cad3f3f38381bc9b6,2021-09-08_20h54.05.407,forced_choiceRT,2021.1.2,Linux x86_64,59.98080614,,,,,,,,1,Ontime,h,1,2.0177,5,3,23,2,1,,,,,
,0.5,,,,,,,,,f.PNG,f,610c2d6cad3f3f38381bc9b6,2021-09-08_20h54.05.407,forced_choiceRT,2021.1.2,Linux x86_64,59.98080614,,,,,,,,1,Ontime,f,1,2.0155,6,0,24,0,1,,,,,
,0.43,,,,,,,,,g.PNG,g,610c2d6cad3f3f38381bc9b6,2021-09-08_20h54.05.407,forced_choiceRT,2021.1.2,Linux x86_64,59.98080614,,,,,,,,1,Ontime,g,1,2.0032,6,1,25,1,1,,,,,
,0.74,,,,,,,,,j.PNG,j,610c2d6cad3f3f38381bc9b6,2021-09-08_20h54.05.407,forced_choiceRT,2021.1.2,Linux x86_64,59.98080614,,,,,,,,1,Ontime,j,1,2.0311,6,2,26,3,1,,,,,
,1.79,,,,,,,,,j.PNG,j,610c2d6cad3f3f38381bc9b6,2021-09-08_20h54.05.407,forced_choiceRT,2021.1.2,Linux x86_64,59.98080614,,,,,,,,1,Slow,g,0,2.2358,6,3,27,3,1,,,,,
,1.96,,,,,,,,,g.PNG,g,610c2d6cad3f3f38381bc9b6,2021-09-08_20h54.05.407,forced_choiceRT,2021.1.2,Linux x86_64,59.98080614,,,,,,,,1,Slow,j,0,2.1392,7,0,28,1,1,,,,,
,0.42,,,,,,,,,f.PNG,f,610c2d6cad3f3f38381bc9b6,2021-09-08_20h54.05.407,forced_choiceRT,2021.1.2,Linux x86_64,59.98080614,,,,,,,,1,Slow,f,1,2.1054,7,1,29,0,1,,,,,
,0.81,,,,,,,,,g.PNG,g,610c2d6cad3f3f38381bc9b6,2021-09-08_20h54.05.407,forced_choiceRT,2021.1.2,Linux x86_64,59.98080614,,,,,,,,1,Fast,g,1,1.8517,7,2,30,1,1,,,,,
,0.18,,,,,,,,,j.PNG,j,610c2d6cad3f3f38381bc9b6,2021-09-08_20h54.05.407,forced_choiceRT,2021.1.2,Linux x86_64,59.98080614,,,,,,,,1,Ontime,j,1,2.0157,7,3,31,3,1,,,,,
,1.35,,,,,,,,,h.PNG,h,610c2d6cad3f3f38381bc9b6,2021-09-08_20h54.05.407,forced_choiceRT,2021.1.2,Linux x86_64,59.98080614,,,,,,,,1,Ontime,h,1,2.0449,8,0,32,2,1,,,,,
,0.95,,,,,,,,,j.PNG,j,610c2d6cad3f3f38381bc9b6,2021-09-08_20h54.05.407,forced_choiceRT,2021.1.2,Linux x86_64,59.98080614,,,,,,,,1,Ontime,j,1,1.9357,8,1,33,3,1,,,,,
,1.7,,,,,,,,,j.PNG,j,610c2d6cad3f3f38381bc9b6,2021-09-08_20h54.05.407,forced_choiceRT,2021.1.2,Linux x86_64,59.98080614,,,,,,,,1,Ontime,h,0,1.9826,8,2,34,3,1,,,,,
,0.35,,,,,,,,,f.PNG,f,610c2d6cad3f3f38381bc9b6,2021-09-08_20h54.05.407,forced_choiceRT,2021.1.2,Linux x86_64,59.98080614,,,,,,,,1,Ontime,f,1,2.0028,8,3,35,0,1,,,,,
,0.83,,,,,,,,,f.PNG,f,610c2d6cad3f3f38381bc9b6,2021-09-08_20h54.05.407,forced_choiceRT,2021.1.2,Linux x86_64,59.98080614,,,,,,,,1,Ontime,f,1,2.089,9,0,36,0,1,,,,,
,0.22,,,,,,,,,f.PNG,f,610c2d6cad3f3f38381bc9b6,2021-09-08_20h54.05.407,forced_choiceRT,2021.1.2,Linux x86_64,59.98080614,,,,,,,,1,Ontime,f,1,1.9553,9,1,37,0,1,,,,,
,0.63,,,,,,,,,f.PNG,f,610c2d6cad3f3f38381bc9b6,2021-09-08_20h54.05.407,forced_choiceRT,2021.1.2,Linux x86_64,59.98080614,,,,,,,,1,Ontime,f,1,1.9848,9,2,38,0,1,,,,,
,0.72,,,,,,,,,g.PNG,g,610c2d6cad3f3f38381bc9b6,2021-09-08_20h54.05.407,forced_choiceRT,2021.1.2,Linux x86_64,59.98080614,,,,,,,,1,Ontime,g,1,1.9846,9,3,39,1,1,,,,,
,,,,,,,,,,,,610c2d6cad3f3f38381bc9b6,2021-09-08_20h54.05.407,forced_choiceRT,2021.1.2,Linux x86_64,59.98080614,,,,,,,,,,,,,,,,,,0,0,0,0,1
,1.63,,,,,,,,,g.PNG,g,610c2d6cad3f3f38381bc9b6,2021-09-08_20h54.05.407,forced_choiceRT,2021.1.2,Linux x86_64,59.98080614,,,,,,,,2,Slow,g,1,2.1237,0,0,0,1,1,,,,,
,0.33,,,,,,,,,h.PNG,h,610c2d6cad3f3f38381bc9b6,2021-09-08_20h54.05.407,forced_choiceRT,2021.1.2,Linux x86_64,59.98080614,,,,,,,,2,Ontime,h,1,2.0036,0,1,1,2,1,,,,,
,1.99,,,,,,,,,g.PNG,g,610c2d6cad3f3f38381bc9b6,2021-09-08_20h54.05.407,forced_choiceRT,2021.1.2,Linux x86_64,59.98080614,,,,,,,,2,Ontime,g,1,2.0177,0,2,2,1,1,,,,,
,1.75,,,,,,,,,h.PNG,h,610c2d6cad3f3f38381bc9b6,2021-09-08_20h54.05.407,forced_choiceRT,2021.1.2,Linux x86_64,59.98080614,,,,,,,,2,Ontime,h,1,2.0847,0,3,3,2,1,,,,,
,0.02,,,,,,,,,h.PNG,h,610c2d6cad3f3f38381bc9b6,2021-09-08_20h54.05.407,forced_choiceRT,2021.1.2,Linux x86_64,59.98080614,,,,,,,,2,Ontime,h,1,2.0368,1,0,4,2,1,,,,,
,1.81,,,,,,,,,h.PNG,h,610c2d6cad3f3f38381bc9b6,2021-09-08_20h54.05.407,forced_choiceRT,2021.1.2,Linux x86_64,59.98080614,,,,,,,,2,Ontime,h,1,2.0398,1,1,5,2,1,,,,,
,0.96,,,,,,,,,g.PNG,g,610c2d6cad3f3f38381bc9b6,2021-09-08_20h54.05.407,forced_choiceRT,2021.1.2,Linux x86_64,59.98080614,,,,,,,,2,Ontime,g,1,2.0036,1,2,6,1,1,,,,,
,1.8,,,,,,,,,h.PNG,h,610c2d6cad3f3f38381bc9b6,2021-09-08_20h54.05.407,forced_choiceRT,2021.1.2,Linux x86_64,59.98080614,,,,,,,,2,Slow,h,1,2.2019,1,3,7,2,1,,,,,
,1.22,,,,,,,,,j.PNG,j,610c2d6cad3f3f38381bc9b6,2021-09-08_20h54.05.407,forced_choiceRT,2021.1.2,Linux x86_64,59.98080614,,,,,,,,2,Ontime,j,1,1.9882,2,0,8,3,1,,,,,
,1.6,,,,,,,,,f.PNG,f,610c2d6cad3f3f38381bc9b6,2021-09-08_20h54.05.407,forced_choiceRT,2021.1.2,Linux x86_64,59.98080614,,,,,,,,2,Ontime,h,0,1.9653,2,1,9,0,1,,,,,
,1.39,,,,,,,,,f.PNG,f,610c2d6cad3f3f38381bc9b6,2021-09-08_20h54.05.407,forced_choiceRT,2021.1.2,Linux x86_64,59.98080614,,,,,,,,2,Ontime,f,1,2.0163,2,2,10,0,1,,,,,
,1.52,,,,,,,,,h.PNG,h,610c2d6cad3f3f38381bc9b6,2021-09-08_20h54.05.407,forced_choiceRT,2021.1.2,Linux x86_64,59.98080614,,,,,,,,2,Ontime,h,1,1.9638,2,3,11,2,1,,,,,
,0.58,,,,,,,,,j.PNG,j,610c2d6cad3f3f38381bc9b6,2021-09-08_20h54.05.407,forced_choiceRT,2021.1.2,Linux x86_64,59.98080614,,,,,,,,2,Slow,j,1,2.1332,3,0,12,3,1,,,,,
,1.66,,,,,,,,,g.PNG,g,610c2d6cad3f3f38381bc9b6,2021-09-08_20h54.05.407,forced_choiceRT,2021.1.2,Linux x86_64,59.98080614,,,,,,,,2,Ontime,j,0,1.9994,3,1,13,1,1,,,,,
,0.19,,,,,,,,,g.PNG,g,610c2d6cad3f3f38381bc9b6,2021-09-08_20h54.05.407,forced_choiceRT,2021.1.2,Linux x86_64,59.98080614,,,,,,,,2,Ontime,g,1,1.9344,3,2,14,1,1,,,,,
,1.2,,,,,,,,,g.PNG,g,610c2d6cad3f3f38381bc9b6,2021-09-08_20h54.05.407,forced_choiceRT,2021.1.2,Linux x86_64,59.98080614,,,,,,,,2,Fast,h,0,1.869,3,3,15,1,1,,,,,
,1.3,,,,,,,,,j.PNG,j,610c2d6cad3f3f38381bc9b6,2021-09-08_20h54.05.407,forced_choiceRT,2021.1.2,Linux x86_64,59.98080614,,,,,,,,2,Ontime,j,1,2.0203,4,0,16,3,1,,,,,
,0.28,,,,,,,,,h.PNG,h,610c2d6cad3f3f38381bc9b6,2021-09-08_20h54.05.407,forced_choiceRT,2021.1.2,Linux x86_64,59.98080614,,,,,,,,2,Ontime,h,1,1.9386,4,1,17,2,1,,,,,
,1.87,,,,,,,,,j.PNG,j,610c2d6cad3f3f38381bc9b6,2021-09-08_20h54.05.407,forced_choiceRT,2021.1.2,Linux x86_64,59.98080614,,,,,,,,2,Ontime,j,1,1.9841,4,2,18,3,1,,,,,
,1.06,,,,,,,,,h.PNG,h,610c2d6cad3f3f38381bc9b6,2021-09-08_20h54.05.407,forced_choiceRT,2021.1.2,Linux x86_64,59.98080614,,,,,,,,2,Fast,h,1,1.8023,4,3,19,2,1,,,,,
,1.86,,,,,,,,,j.PNG,j,610c2d6cad3f3f38381bc9b6,2021-09-08_20h54.05.407,forced_choiceRT,2021.1.2,Linux x86_64,59.98080614,,,,,,,,2,Ontime,h,0,1.9805,5,0,20,3,1,,,,,
,0.11,,,,,,,,,f.PNG,f,610c2d6cad3f3f38381bc9b6,2021-09-08_20h54.05.407,forced_choiceRT,2021.1.2,Linux x86_64,59.98080614,,,,,,,,2,Ontime,f,1,1.9179,5,1,21,0,1,,,,,
,0.91,,,,,,,,,f.PNG,f,610c2d6cad3f3f38381bc9b6,2021-09-08_20h54.05.407,forced_choiceRT,2021.1.2,Linux x86_64,59.98080614,,,,,,,,2,Fast,f,1,1.8691,5,2,22,0,1,,,,,
,0.05,,,,,,,,,g.PNG,g,610c2d6cad3f3f38381bc9b6,2021-09-08_20h54.05.407,forced_choiceRT,2021.1.2,Linux x86_64,59.98080614,,,,,,,,2,Ontime,g,1,1.905,5,3,23,1,1,,,,,
,0.98,,,,,,,,,g.PNG,g,610c2d6cad3f3f38381bc9b6,2021-09-08_20h54.05.407,forced_choiceRT,2021.1.2,Linux x86_64,59.98080614,,,,,,,,2,Fast,g,1,1.8337,6,0,24,1,1,,,,,
,1.53,,,,,,,,,h.PNG,h,610c2d6cad3f3f38381bc9b6,2021-09-08_20h54.05.407,forced_choiceRT,2021.1.2,Linux x86_64,59.98080614,,,,,,,,2,Ontime,h,1,1.9664,6,1,25,2,1,,,,,
,1.25,,,,,,,,,f.PNG,f,610c2d6cad3f3f38381bc9b6,2021-09-08_20h54.05.407,forced_choiceRT,2021.1.2,Linux x86_64,59.98080614,,,,,,,,2,Ontime,f,1,2.0005,6,2,26,0,1,,,,,
,1.78,,,,,,,,,j.PNG,j,610c2d6cad3f3f38381bc9b6,2021-09-08_20h54.05.407,forced_choiceRT,2021.1.2,Linux x86_64,59.98080614,,,,,,,,2,Ontime,h,0,2.021,6,3,27,3,1,,,,,
,1.73,,,,,,,,,g.PNG,g,610c2d6cad3f3f38381bc9b6,2021-09-08_20h54.05.407,forced_choiceRT,2021.1.2,Linux x86_64,59.98080614,,,,,,,,2,Slow,g,1,2.1184,7,0,28,1,1,,,,,
,1.31,,,,,,,,,h.PNG,h,610c2d6cad3f3f38381bc9b6,2021-09-08_20h54.05.407,forced_choiceRT,2021.1.2,Linux x86_64,59.98080614,,,,,,,,2,Ontime,h,1,2.0495,7,1,29,2,1,,,,,
,0.75,,,,,,,,,j.PNG,j,610c2d6cad3f3f38381bc9b6,2021-09-08_20h54.05.407,forced_choiceRT,2021.1.2,Linux x86_64,59.98080614,,,,,,,,2,Ontime,j,1,2.0358,7,2,30,3,1,,,,,
,1.27,,,,,,,,,f.PNG,f,610c2d6cad3f3f38381bc9b6,2021-09-08_20h54.05.407,forced_choiceRT,2021.1.2,Linux x86_64,59.98080614,,,,,,,,2,Ontime,f,1,1.9911,7,3,31,0,1,,,,,
,1.44,,,,,,,,,f.PNG,f,610c2d6cad3f3f38381bc9b6,2021-09-08_20h54.05.407,forced_choiceRT,2021.1.2,Linux x86_64,59.98080614,,,,,,,,2,Ontime,f,1,2.0182,8,0,32,0,1,,,,,
,0.82,,,,,,,,,f.PNG,f,610c2d6cad3f3f38381bc9b6,2021-09-08_20h54.05.407,forced_choiceRT,2021.1.2,Linux x86_64,59.98080614,,,,,,,,2,Ontime,f,1,1.9369,8,1,33,0,1,,,,,
,1.42,,,,,,,,,g.PNG,g,610c2d6cad3f3f38381bc9b6,2021-09-08_20h54.05.407,forced_choiceRT,2021.1.2,Linux x86_64,59.98080614,,,,,,,,2,Ontime,g,1,1.9563,8,2,34,1,1,,,,,
,1.3,,,,,,,,,j.PNG,j,610c2d6cad3f3f38381bc9b6,2021-09-08_20h54.05.407,forced_choiceRT,2021.1.2,Linux x86_64,59.98080614,,,,,,,,2,Ontime,j,1,1.9565,8,3,35,3,1,,,,,
,1.19,,,,,,,,,f.PNG,f,610c2d6cad3f3f38381bc9b6,2021-09-08_20h54.05.407,forced_choiceRT,2021.1.2,Linux x86_64,59.98080614,,,,,,,,2,Ontime,f,1,2.0028,9,0,36,0,1,,,,,
,0.05,,,,,,,,,j.PNG,j,610c2d6cad3f3f38381bc9b6,2021-09-08_20h54.05.407,forced_choiceRT,2021.1.2,Linux x86_64,59.98080614,,,,,,,,2,Ontime,j,1,2.0366,9,1,37,3,1,,,,,
,0.69,,,,,,,,,f.PNG,f,610c2d6cad3f3f38381bc9b6,2021-09-08_20h54.05.407,forced_choiceRT,2021.1.2,Linux x86_64,59.98080614,,,,,,,,2,Ontime,f,1,1.9305,9,2,38,0,1,,,,,
,1.42,,,,,,,,,j.PNG,j,610c2d6cad3f3f38381bc9b6,2021-09-08_20h54.05.407,forced_choiceRT,2021.1.2,Linux x86_64,59.98080614,,,,,,,,2,Ontime,j,1,2.0169,9,3,39,3,1,,,,,
,,,,,,,,,,,,610c2d6cad3f3f38381bc9b6,2021-09-08_20h54.05.407,forced_choiceRT,2021.1.2,Linux x86_64,59.98080614,,,,,,,,,,,,,,,,,,1,0,1,0,1
,1.67,,,,,,,,,h.PNG,h,610c2d6cad3f3f38381bc9b6,2021-09-08_20h54.05.407,forced_choiceRT,2021.1.2,Linux x86_64,59.98080614,,,,,,,,3,Ontime,f,0,2.0766,0,0,0,2,1,,,,,
,1.85,,,,,,,,,f.PNG,f,610c2d6cad3f3f38381bc9b6,2021-09-08_20h54.05.407,forced_choiceRT,2021.1.2,Linux x86_64,59.98080614,,,,,,,,3,Ontime,g,0,2.005,0,1,1,0,1,,,,,
,0.87,,,,,,,,,g.PNG,g,610c2d6cad3f3f38381bc9b6,2021-09-08_20h54.05.407,forced_choiceRT,2021.1.2,Linux x86_64,59.98080614,,,,,,,,3,Fast,g,1,1.8372,0,2,2,1,1,,,,,
,1.04,,,,,,,,,g.PNG,g,610c2d6cad3f3f38381bc9b6,2021-09-08_20h54.05.407,forced_choiceRT,2021.1.2,Linux x86_64,59.98080614,,,,,,,,3,Fast,g,1,1.8343,0,3,3,1,1,,,,,
,0.22,,,,,,,,,g.PNG,g,610c2d6cad3f3f38381bc9b6,2021-09-08_20h54.05.407,forced_choiceRT,2021.1.2,Linux x86_64,59.98080614,,,,,,,,3,Ontime,g,1,2.007,1,0,4,1,1,,,,,
,1.63,,,,,,,,,f.PNG,f,610c2d6cad3f3f38381bc9b6,2021-09-08_20h54.05.407,forced_choiceRT,2021.1.2,Linux x86_64,59.98080614,,,,,,,,3,Slow,h,0,2.1193,1,1,5,0,1,,,,,
,1.46,,,,,,,,,h.PNG,h,610c2d6cad3f3f38381bc9b6,2021-09-08_20h54.05.407,forced_choiceRT,2021.1.2,Linux x86_64,59.98080614,,,,,,,,3,Ontime,h,1,2.0692,1,2,6,2,1,,,,,
,1.8,,,,,,,,,f.PNG,f,610c2d6cad3f3f38381bc9b6,2021-09-08_20h54.05.407,forced_choiceRT,2021.1.2,Linux x86_64,59.98080614,,,,,,,,3,Ontime,h,0,2.0221,1,3,7,0,1,,,,,
,0.71,,,,,,,,,g.PNG,g,610c2d6cad3f3f38381bc9b6,2021-09-08_20h54.05.407,forced_choiceRT,2021.1.2,Linux x86_64,59.98080614,,,,,,,,3,Fast,g,1,1.8332,2,0,8,1,1,,,,,
,0.8,,,,,,,,,f.PNG,f,610c2d6cad3f3f38381bc9b6,2021-09-08_20h54.05.407,forced_choiceRT,2021.1.2,Linux x86_64,59.98080614,,,,,,,,3,Ontime,f,1,2.0045,2,1,9,0,1,,,,,
,0.08,,,,,,,,,g.PNG,g,610c2d6cad3f3f38381bc9b6,2021-09-08_20h54.05.407,forced_choiceRT,2021.1.2,Linux x86_64,59.98080614,,,,,,,,3,Ontime,g,1,1.9401,2,2,10,1,1,,,,,
,1.91,,,,,,,,,g.PNG,g,610c2d6cad3f3f38381bc9b6,2021-09-08_20h54.05.407,forced_choiceRT,2021.1.2,Linux x86_64,59.98080614,,,,,,,,3,Ontime,h,0,2.0353,2,3,11,1,1,,,,,
,0.78,,,,,,,,,g.PNG,g,610c2d6cad3f3f38381bc9b6,2021-09-08_20h54.05.407,forced_choiceRT,2021.1.2,Linux x86_64,59.98080614,,,,,,,,3,Ontime,g,1,1.9738,3,0,12,1,1,,,,,
,0.59,,,,,,,,,g.PNG,g,610c2d6cad3f3f38381bc9b6,2021-09-08_20h54.05.407,forced_choiceRT,2021.1.2,Linux x86_64,59.98080614,,,,,,,,3,Ontime,g,1,1.968,3,1,13,1,1,,,,,
,0.67,,,,,,,,,h.PNG,h,610c2d6cad3f3f38381bc9b6,2021-09-08_20h54.05.407,forced_choiceRT,2021.1.2,Linux x86_64,59.98080614,,,,,,,,3,Fast,h,1,1.8993,3,2,14,2,1,,,,,
,0.34,,,,,,,,,h.PNG,h,610c2d6cad3f3f38381bc9b6,2021-09-08_20h54.05.407,forced_choiceRT,2021.1.2,Linux x86_64,59.98080614,,,,,,,,3,Ontime,h,1,2.0835,3,3,15,2,1,,,,,
,0.13,,,,,,,,,f.PNG,f,610c2d6cad3f3f38381bc9b6,2021-09-08_20h54.05.407,forced_choiceRT,2021.1.2,Linux x86_64,59.98080614,,,,,,,,3,Ontime,f,1,2.0227,4,0,16,0,1,,,,,
,0.65,,,,,,,,,h.PNG,h,610c2d6cad3f3f38381bc9b6,2021-09-08_20h54.05.407,forced_choiceRT,2021.1.2,Linux x86_64,59.98080614,,,,,,,,3,Ontime,h,1,1.9731,4,1,17,2,1,,,,,
,1.06,,,,,,,,,j.PNG,j,610c2d6cad3f3f38381bc9b6,2021-09-08_20h54.05.407,forced_choiceRT,2021.1.2,Linux x86_64,59.98080614,,,,,,,,3,Ontime,j,1,2.0043,4,2,18,3,1,,,,,
,1.31,,,,,,,,,f.PNG,f,610c2d6cad3f3f38381bc9b6,2021-09-08_20h54.05.407,forced_choiceRT,2021.1.2,Linux x86_64,59.98080614,,,,,,,,3,Ontime,f,1,1.9397,4,3,19,0,1,,,,,
,1.67,,,,,,,,,g.PNG,g,610c2d6cad3f3f38381bc9b6,2021-09-08_20h54.05.407,forced_choiceRT,2021.1.2,Linux x86_64,59.98080614,,,,,,,,3,Slow,h,0,2.1722,5,0,20,1,1,,,,,
,1.34,,,,,,,,,f.PNG,f,610c2d6cad3f3f38381bc9b6,2021-09-08_20h54.05.407,forced_choiceRT,2021.1.2,Linux x86_64,59.98080614,,,,,,,,3,Ontime,f,1,2.0043,5,1,21,0,1,,,,,
,1.39,,,,,,,,,j.PNG,j,610c2d6cad3f3f38381bc9b6,2021-09-08_20h54.05.407,forced_choiceRT,2021.1.2,Linux x86_64,59.98080614,,,,,,,,3,Ontime,j,1,1.9204,5,2,22,3,1,,,,,
,1.78,,,,,,,,,h.PNG,h,610c2d6cad3f3f38381bc9b6,2021-09-08_20h54.05.407,forced_choiceRT,2021.1.2,Linux x86_64,59.98080614,,,,,,,,3,Ontime,g,0,2.0178,5,3,23,2,1,,,,,
,0.77,,,,,,,,,j.PNG,j,610c2d6cad3f3f38381bc9b6,2021-09-08_20h54.05.407,forced_choiceRT,2021.1.2,Linux x86_64,59.98080614,,,,,,,,3,Ontime,j,1,1.9202,6,0,24,3,1,,,,,
,1.65,,,,,,,,,h.PNG,h,610c2d6cad3f3f38381bc9b6,2021-09-08_20h54.05.407,forced_choiceRT,2021.1.2,Linux x86_64,59.98080614,,,,,,,,3,Ontime,h,1,2.0552,6,1,25,2,1,,,,,
,0.75,,,,,,,,,j.PNG,j,610c2d6cad3f3f38381bc9b6,2021-09-08_20h54.05.407,forced_choiceRT,2021.1.2,Linux x86_64,59.98080614,,,,,,,,3,Ontime,j,1,2.0173,6,2,26,3,1,,,,,
,1.49,,,,,,,,,j.PNG,j,610c2d6cad3f3f38381bc9b6,2021-09-08_20h54.05.407,forced_choiceRT,2021.1.2,Linux x86_64,59.98080614,,,,,,,,3,Ontime,j,1,2.0324,6,3,27,3,1,,,,,
,0.66,,,,,,,,,h.PNG,h,610c2d6cad3f3f38381bc9b6,2021-09-08_20h54.05.407,forced_choiceRT,2021.1.2,Linux x86_64,59.98080614,,,,,,,,3,Fast,h,1,1.8668,7,0,28,2,1,,,,,
,0.27,,,,,,,,,g.PNG,g,610c2d6cad3f3f38381bc9b6,2021-09-08_20h54.05.407,forced_choiceRT,2021.1.2,Linux x86_64,59.98080614,,,,,,,,3,Ontime,g,1,2.0042,7,1,29,1,1,,,,,
,0.2,,,,,,,,,f.PNG,f,610c2d6cad3f3f38381bc9b6,2021-09-08_20h54.05.407,forced_choiceRT,2021.1.2,Linux x86_64,59.98080614,,,,,,,,3,Ontime,f,1,1.9528,7,2,30,0,1,,,,,
,0.87,,,,,,,,,f.PNG,f,610c2d6cad3f3f38381bc9b6,2021-09-08_20h54.05.407,forced_choiceRT,2021.1.2,Linux x86_64,59.98080614,,,,,,,,3,Ontime,f,1,1.9659,7,3,31,0,1,,,,,
,1.89,,,,,,,,,j.PNG,j,610c2d6cad3f3f38381bc9b6,2021-09-08_20h54.05.407,forced_choiceRT,2021.1.2,Linux x86_64,59.98080614,,,,,,,,3,Ontime,f,0,2.0991,8,0,32,3,1,,,,,
,0.82,,,,,,,,,h.PNG,h,610c2d6cad3f3f38381bc9b6,2021-09-08_20h54.05.407,forced_choiceRT,2021.1.2,Linux x86_64,59.98080614,,,,,,,,3,Ontime,h,1,1.9841,8,1,33,2,1,,,,,
,0.25,,,,,,,,,j.PNG,j,610c2d6cad3f3f38381bc9b6,2021-09-08_20h54.05.407,forced_choiceRT,2021.1.2,Linux x86_64,59.98080614,,,,,,,,3,Ontime,j,1,2.0891,8,2,34,3,1,,,,,
,1.79,,,,,,,,,j.PNG,j,610c2d6cad3f3f38381bc9b6,2021-09-08_20h54.05.407,forced_choiceRT,2021.1.2,Linux x86_64,59.98080614,,,,,,,,3,Ontime,f,0,2.0334,8,3,35,3,1,,,,,
,0.95,,,,,,,,,j.PNG,j,610c2d6cad3f3f38381bc9b6,2021-09-08_20h54.05.407,forced_choiceRT,2021.1.2,Linux x86_64,59.98080614,,,,,,,,3,Ontime,j,1,1.9928,9,0,36,3,1,,,,,
,0.36,,,,,,,,,h.PNG,h,610c2d6cad3f3f38381bc9b6,2021-09-08_20h54.05.407,forced_choiceRT,2021.1.2,Linux x86_64,59.98080614,,,,,,,,3,Slow,h,1,2.1337,9,1,37,2,1,,,,,
,0.86,,,,,,,,,j.PNG,j,610c2d6cad3f3f38381bc9b6,2021-09-08_20h54.05.407,forced_choiceRT,2021.1.2,Linux x86_64,59.98080614,,,,,,,,3,Ontime,j,1,1.9031,9,2,38,3,1,,,,,
,1.89,,,,,,,,,f.PNG,f,610c2d6cad3f3f38381bc9b6,2021-09-08_20h54.05.407,forced_choiceRT,2021.1.2,Linux x86_64,59.98080614,,,,,,,,3,Ontime,h,0,2.0206,9,3,39,0,1,,,,,
,,,,,,,,,,,,610c2d6cad3f3f38381bc9b6,2021-09-08_20h54.05.407,forced_choiceRT,2021.1.2,Linux x86_64,59.98080614,,,,,,,,,,,,,,,,,,2,0,2,0,1
,0.3,,,,,,,,,g.PNG,g,610c2d6cad3f3f38381bc9b6,2021-09-08_20h54.05.407,forced_choiceRT,2021.1.2,Linux x86_64,59.98080614,,,,,,,,4,Ontime,g,1,2.0633,0,0,0,1,1,,,,,
,0.23,,,,,,,,,f.PNG,f,610c2d6cad3f3f38381bc9b6,2021-09-08_20h54.05.407,forced_choiceRT,2021.1.2,Linux x86_64,59.98080614,,,,,,,,4,Ontime,f,1,1.9168,0,1,1,0,1,,,,,
,1.11,,,,,,,,,h.PNG,h,610c2d6cad3f3f38381bc9b6,2021-09-08_20h54.05.407,forced_choiceRT,2021.1.2,Linux x86_64,59.98080614,,,,,,,,4,Ontime,h,1,2.0181,0,2,2,2,1,,,,,
,0.47,,,,,,,,,h.PNG,h,610c2d6cad3f3f38381bc9b6,2021-09-08_20h54.05.407,forced_choiceRT,2021.1.2,Linux x86_64,59.98080614,,,,,,,,4,Ontime,h,1,1.9692,0,3,3,2,1,,,,,
,1.81,,,,,,,,,f.PNG,f,610c2d6cad3f3f38381bc9b6,2021-09-08_20h54.05.407,forced_choiceRT,2021.1.2,Linux x86_64,59.98080614,,,,,,,,4,Ontime,j,0,1.9846,1,0,4,0,1,,,,,
,1,,,,,,,,,f.PNG,f,610c2d6cad3f3f38381bc9b6,2021-09-08_20h54.05.407,forced_choiceRT,2021.1.2,Linux x86_64,59.98080614,,,,,,,,4,Ontime,f,1,1.9125,1,1,5,0,1,,,,,
,1.33,,,,,,,,,g.PNG,g,610c2d6cad3f3f38381bc9b6,2021-09-08_20h54.05.407,forced_choiceRT,2021.1.2,Linux x86_64,59.98080614,,,,,,,,4,Ontime,g,1,2.0696,1,2,6,1,1,,,,,
,1.85,,,,,,,,,h.PNG,h,610c2d6cad3f3f38381bc9b6,2021-09-08_20h54.05.407,forced_choiceRT,2021.1.2,Linux x86_64,59.98080614,,,,,,,,4,Ontime,f,0,1.9654,1,3,7,2,1,,,,,
,0.58,,,,,,,,,g.PNG,g,610c2d6cad3f3f38381bc9b6,2021-09-08_20h54.05.407,forced_choiceRT,2021.1.2,Linux x86_64,59.98080614,,,,,,,,4,Ontime,g,1,2.0168,2,0,8,1,1,,,,,
,0.11,,,,,,,,,j.PNG,j,610c2d6cad3f3f38381bc9b6,2021-09-08_20h54.05.407,forced_choiceRT,2021.1.2,Linux x86_64,59.98080614,,,,,,,,4,Ontime,j,1,1.9196,2,1,9,3,1,,,,,
,0.34,,,,,,,,,h.PNG,h,610c2d6cad3f3f38381bc9b6,2021-09-08_20h54.05.407,forced_choiceRT,2021.1.2,Linux x86_64,59.98080614,,,,,,,,4,Ontime,h,1,1.9012,2,2,10,2,1,,,,,
,0.23,,,,,,,,,g.PNG,g,610c2d6cad3f3f38381bc9b6,2021-09-08_20h54.05.407,forced_choiceRT,2021.1.2,Linux x86_64,59.98080614,,,,,,,,4,Fast,g,1,1.8825,2,3,11,1,1,,,,,
,1.46,,,,,,,,,j.PNG,j,610c2d6cad3f3f38381bc9b6,2021-09-08_20h54.05.407,forced_choiceRT,2021.1.2,Linux x86_64,59.98080614,,,,,,,,4,Ontime,j,1,2.0365,3,0,12,3,1,,,,,
,0.77,,,,,,,,,g.PNG,g,610c2d6cad3f3f38381bc9b6,2021-09-08_20h54.05.407,forced_choiceRT,2021.1.2,Linux x86_64,59.98080614,,,,,,,,4,Ontime,g,1,2.0022,3,1,13,1,1,,,,,
,0.03,,,,,,,,,h.PNG,h,610c2d6cad3f3f38381bc9b6,2021-09-08_20h54.05.407,forced_choiceRT,2021.1.2,Linux x86_64,59.98080614,,,,,,,,4,Ontime,h,1,1.9658,3,2,14,2,1,,,,,
,1.45,,,,,,,,,j.PNG,j,610c2d6cad3f3f38381bc9b6,2021-09-08_20h54.05.407,forced_choiceRT,2021.1.2,Linux x86_64,59.98080614,,,,,,,,4,Ontime,j,1,2.0413,3,3,15,3,1,,,,,
,1.68,,,,,,,,,h.PNG,h,610c2d6cad3f3f38381bc9b6,2021-09-08_20h54.05.407,forced_choiceRT,2021.1.2,Linux x86_64,59.98080614,,,,,,,,4,Slow,g,0,2.1183,4,0,16,2,1,,,,,
,0.15,,,,,,,,,f.PNG,f,610c2d6cad3f3f38381bc9b6,2021-09-08_20h54.05.407,forced_choiceRT,2021.1.2,Linux x86_64,59.98080614,,,,,,,,4,Ontime,f,1,2.0024,4,1,17,0,1,,,,,
,1.08,,,,,,,,,f.PNG,f,610c2d6cad3f3f38381bc9b6,2021-09-08_20h54.05.407,forced_choiceRT,2021.1.2,Linux x86_64,59.98080614,,,,,,,,4,Fast,f,1,1.1546,4,2,18,0,1,,,,,
,0.86,,,,,,,,,j.PNG,j,610c2d6cad3f3f38381bc9b6,2021-09-08_20h54.05.407,forced_choiceRT,2021.1.2,Linux x86_64,59.98080614,,,,,,,,4,Ontime,j,1,2.0676,4,3,19,3,1,,,,,
,1.34,,,,,,,,,j.PNG,j,610c2d6cad3f3f38381bc9b6,2021-09-08_20h54.05.407,forced_choiceRT,2021.1.2,Linux x86_64,59.98080614,,,,,,,,4,Ontime,j,1,1.9833,5,0,20,3,1,,,,,
,1.5,,,,,,,,,f.PNG,f,610c2d6cad3f3f38381bc9b6,2021-09-08_20h54.05.407,forced_choiceRT,2021.1.2,Linux x86_64,59.98080614,,,,,,,,4,Slow,f,1,2.1311,5,1,21,0,1,,,,,
,0.05,,,,,,,,,g.PNG,g,610c2d6cad3f3f38381bc9b6,2021-09-08_20h54.05.407,forced_choiceRT,2021.1.2,Linux x86_64,59.98080614,,,,,,,,4,Fast,g,1,1.8973,5,2,22,1,1,,,,,
,1.01,,,,,,,,,g.PNG,g,610c2d6cad3f3f38381bc9b6,2021-09-08_20h54.05.407,forced_choiceRT,2021.1.2,Linux x86_64,59.98080614,,,,,,,,4,Ontime,g,1,1.9023,5,3,23,1,1,,,,,
,0.41,,,,,,,,,g.PNG,g,610c2d6cad3f3f38381bc9b6,2021-09-08_20h54.05.407,forced_choiceRT,2021.1.2,Linux x86_64,59.98080614,,,,,,,,4,Ontime,g,1,1.952,6,0,24,1,1,,,,,
,1.23,,,,,,,,,f.PNG,f,610c2d6cad3f3f38381bc9b6,2021-09-08_20h54.05.407,forced_choiceRT,2021.1.2,Linux x86_64,59.98080614,,,,,,,,4,Ontime,f,1,1.9019,6,1,25,0,1,,,,,
,0.12,,,,,,,,,f.PNG,f,610c2d6cad3f3f38381bc9b6,2021-09-08_20h54.05.407,forced_choiceRT,2021.1.2,Linux x86_64,59.98080614,,,,,,,,4,Ontime,f,1,1.9363,6,2,26,0,1,,,,,
,0.9,,,,,,,,,h.PNG,h,610c2d6cad3f3f38381bc9b6,2021-09-08_20h54.05.407,forced_choiceRT,2021.1.2,Linux x86_64,59.98080614,,,,,,,,4,Ontime,h,1,1.9516,6,3,27,2,1,,,,,
,0.52,,,,,,,,,j.PNG,j,610c2d6cad3f3f38381bc9b6,2021-09-08_20h54.05.407,forced_choiceRT,2021.1.2,Linux x86_64,59.98080614,,,,,,,,4,Ontime,j,1,1.9863,7,0,28,3,1,,,,,
,0.71,,,,,,,,,j.PNG,j,610c2d6cad3f3f38381bc9b6,2021-09-08_20h54.05.407,forced_choiceRT,2021.1.2,Linux x86_64,59.98080614,,,,,,,,4,Ontime,j,1,1.9162,7,1,29,3,1,,,,,
,0.35,,,,,,,,,g.PNG,g,610c2d6cad3f3f38381bc9b6,2021-09-08_20h54.05.407,forced_choiceRT,2021.1.2,Linux x86_64,59.98080614,,,,,,,,4,Fast,g,1,1.8664,7,2,30,1,1,,,,,
,1.83,,,,,,,,,f.PNG,f,610c2d6cad3f3f38381bc9b6,2021-09-08_20h54.05.407,forced_choiceRT,2021.1.2,Linux x86_64,59.98080614,,,,,,,,4,Ontime,g,0,2.0172,7,3,31,0,1,,,,,
,1.53,,,,,,,,,f.PNG,f,610c2d6cad3f3f38381bc9b6,2021-09-08_20h54.05.407,forced_choiceRT,2021.1.2,Linux x86_64,59.98080614,,,,,,,,4,Slow,f,1,2.1207,8,0,32,0,1,,,,,
,1.83,,,,,,,,,j.PNG,j,610c2d6cad3f3f38381bc9b6,2021-09-08_20h54.05.407,forced_choiceRT,2021.1.2,Linux x86_64,59.98080614,,,,,,,,4,Ontime,h,0,1.9696,8,1,33,3,1,,,,,
,1.62,,,,,,,,,j.PNG,j,610c2d6cad3f3f38381bc9b6,2021-09-08_20h54.05.407,forced_choiceRT,2021.1.2,Linux x86_64,59.98080614,,,,,,,,4,Ontime,f,0,1.9341,8,2,34,3,1,,,,,
,0.79,,,,,,,,,h.PNG,h,610c2d6cad3f3f38381bc9b6,2021-09-08_20h54.05.407,forced_choiceRT,2021.1.2,Linux x86_64,59.98080614,,,,,,,,4,Fast,h,1,1.8031,8,3,35,2,1,,,,,
,0.32,,,,,,,,,j.PNG,j,610c2d6cad3f3f38381bc9b6,2021-09-08_20h54.05.407,forced_choiceRT,2021.1.2,Linux x86_64,59.98080614,,,,,,,,4,Ontime,j,1,2.002,9,0,36,3,1,,,,,
,1.74,,,,,,,,,g.PNG,g,610c2d6cad3f3f38381bc9b6,2021-09-08_20h54.05.407,forced_choiceRT,2021.1.2,Linux x86_64,59.98080614,,,,,,,,4,Slow,h,0,2.1326,9,1,37,1,1,,,,,
,0.89,,,,,,,,,h.PNG,h,610c2d6cad3f3f38381bc9b6,2021-09-08_20h54.05.407,forced_choiceRT,2021.1.2,Linux x86_64,59.98080614,,,,,,,,4,Fast,h,1,1.8844,9,2,38,2,1,,,,,
,0.42,,,,,,,,,h.PNG,h,610c2d6cad3f3f38381bc9b6,2021-09-08_20h54.05.407,forced_choiceRT,2021.1.2,Linux x86_64,59.98080614,,,,,,,,4,Fast,h,1,1.8339,9,3,39,2,1,,,,,
,,,,,,,,,,,,610c2d6cad3f3f38381bc9b6,2021-09-08_20h54.05.407,forced_choiceRT,2021.1.2,Linux x86_64,59.98080614,,,,,,,,,,,,,,,,,,3,0,3,0,1
,0.99,,,,,,,,,j.PNG,j,610c2d6cad3f3f38381bc9b6,2021-09-08_20h54.05.407,forced_choiceRT,2021.1.2,Linux x86_64,59.98080614,,,,,,,,5,Ontime,j,1,2.0372,0,0,0,3,1,,,,,
,1.27,,,,,,,,,h.PNG,h,610c2d6cad3f3f38381bc9b6,2021-09-08_20h54.05.407,forced_choiceRT,2021.1.2,Linux x86_64,59.98080614,,,,,,,,5,Slow,h,1,2.1188,0,1,1,2,1,,,,,
,0.69,,,,,,,,,h.PNG,h,610c2d6cad3f3f38381bc9b6,2021-09-08_20h54.05.407,forced_choiceRT,2021.1.2,Linux x86_64,59.98080614,,,,,,,,5,Ontime,h,1,1.9809,0,2,2,2,1,,,,,
,0.52,,,,,,,,,f.PNG,f,610c2d6cad3f3f38381bc9b6,2021-09-08_20h54.05.407,forced_choiceRT,2021.1.2,Linux x86_64,59.98080614,,,,,,,,5,Ontime,f,1,1.9089,0,3,3,0,1,,,,,
,1.2,,,,,,,,,h.PNG,h,610c2d6cad3f3f38381bc9b6,2021-09-08_20h54.05.407,forced_choiceRT,2021.1.2,Linux x86_64,59.98080614,,,,,,,,5,Ontime,h,1,1.9736,1,0,4,2,1,,,,,
,1.97,,,,,,,,,h.PNG,h,610c2d6cad3f3f38381bc9b6,2021-09-08_20h54.05.407,forced_choiceRT,2021.1.2,Linux x86_64,59.98080614,,,,,,,,5,Ontime,h,1,2.083,1,1,5,2,1,,,,,
,1.21,,,,,,,,,g.PNG,g,610c2d6cad3f3f38381bc9b6,2021-09-08_20h54.05.407,forced_choiceRT,2021.1.2,Linux x86_64,59.98080614,,,,,,,,5,Ontime,g,1,1.9161,1,2,6,1,1,,,,,
,1.8,,,,,,,,,g.PNG,g,610c2d6cad3f3f38381bc9b6,2021-09-08_20h54.05.407,forced_choiceRT,2021.1.2,Linux x86_64,59.98080614,,,,,,,,5,Ontime,h,0,2.0344,1,3,7,1,1,,,,,
,0.26,,,,,,,,,g.PNG,g,610c2d6cad3f3f38381bc9b6,2021-09-08_20h54.05.407,forced_choiceRT,2021.1.2,Linux x86_64,59.98080614,,,,,,,,5,Ontime,g,1,2.0167,2,0,8,1,1,,,,,
,1.69,,,,,,,,,g.PNG,g,610c2d6cad3f3f38381bc9b6,2021-09-08_20h54.05.407,forced_choiceRT,2021.1.2,Linux x86_64,59.98080614,,,,,,,,5,Ontime,g,1,2.0248,2,1,9,1,1,,,,,
,1.8,,,,,,,,,g.PNG,g,610c2d6cad3f3f38381bc9b6,2021-09-08_20h54.05.407,forced_choiceRT,2021.1.2,Linux x86_64,59.98080614,,,,,,,,5,Ontime,f,0,2.0851,2,2,10,1,1,,,,,
,0.3,,,,,,,,,h.PNG,h,610c2d6cad3f3f38381bc9b6,2021-09-08_20h54.05.407,forced_choiceRT,2021.1.2,Linux x86_64,59.98080614,,,,,,,,5,Ontime,h,1,2.0507,2,3,11,2,1,,,,,
,1.45,,,,,,,,,f.PNG,f,610c2d6cad3f3f38381bc9b6,2021-09-08_20h54.05.407,forced_choiceRT,2021.1.2,Linux x86_64,59.98080614,,,,,,,,5,Ontime,f,1,2.0517,3,0,12,0,1,,,,,
,1.48,,,,,,,,,f.PNG,f,610c2d6cad3f3f38381bc9b6,2021-09-08_20h54.05.407,forced_choiceRT,2021.1.2,Linux x86_64,59.98080614,,,,,,,,5,Slow,f,1,2.2014,3,1,13,0,1,,,,,
,0.04,,,,,,,,,h.PNG,h,610c2d6cad3f3f38381bc9b6,2021-09-08_20h54.05.407,forced_choiceRT,2021.1.2,Linux x86_64,59.98080614,,,,,,,,5,Slow,h,1,2.1048,3,2,14,2,1,,,,,
,1.91,,,,,,,,,f.PNG,f,610c2d6cad3f3f38381bc9b6,2021-09-08_20h54.05.407,forced_choiceRT,2021.1.2,Linux x86_64,59.98080614,,,,,,,,5,Ontime,h,0,1.9344,3,3,15,0,1,,,,,
,1.62,,,,,,,,,f.PNG,f,610c2d6cad3f3f38381bc9b6,2021-09-08_20h54.05.407,forced_choiceRT,2021.1.2,Linux x86_64,59.98080614,,,,,,,,5,Ontime,g,0,1.9198,4,0,16,0,1,,,,,
,0.2,,,,,,,,,g.PNG,g,610c2d6cad3f3f38381bc9b6,2021-09-08_20h54.05.407,forced_choiceRT,2021.1.2,Linux x86_64,59.98080614,,,,,,,,5,Ontime,g,1,1.9854,4,1,17,1,1,,,,,
,1.9,,,,,,,,,h.PNG,h,610c2d6cad3f3f38381bc9b6,2021-09-08_20h54.05.407,forced_choiceRT,2021.1.2,Linux x86_64,59.98080614,,,,,,,,5,Slow,g,0,2.1515,4,2,18,2,1,,,,,
,1.38,,,,,,,,,f.PNG,f,610c2d6cad3f3f38381bc9b6,2021-09-08_20h54.05.407,forced_choiceRT,2021.1.2,Linux x86_64,59.98080614,,,,,,,,5,Ontime,f,1,2.0186,4,3,19,0,1,,,,,
,0.69,,,,,,,,,h.PNG,h,610c2d6cad3f3f38381bc9b6,2021-09-08_20h54.05.407,forced_choiceRT,2021.1.2,Linux x86_64,59.98080614,,,,,,,,5,Ontime,h,1,1.9372,5,0,20,2,1,,,,,
,1.91,,,,,,,,,f.PNG,f,610c2d6cad3f3f38381bc9b6,2021-09-08_20h54.05.407,forced_choiceRT,2021.1.2,Linux x86_64,59.98080614,,,,,,,,5,Ontime,g,0,2.014,5,1,21,0,1,,,,,
,1.29,,,,,,,,,j.PNG,j,610c2d6cad3f3f38381bc9b6,2021-09-08_20h54.05.407,forced_choiceRT,2021.1.2,Linux x86_64,59.98080614,,,,,,,,5,Ontime,j,1,1.9997,5,2,22,3,1,,,,,
,1.43,,,,,,,,,j.PNG,j,610c2d6cad3f3f38381bc9b6,2021-09-08_20h54.05.407,forced_choiceRT,2021.1.2,Linux x86_64,59.98080614,,,,,,,,5,Ontime,j,1,1.9741,5,3,23,3,1,,,,,
,1.02,,,,,,,,,f.PNG,f,610c2d6cad3f3f38381bc9b6,2021-09-08_20h54.05.407,forced_choiceRT,2021.1.2,Linux x86_64,59.98080614,,,,,,,,5,Ontime,f,1,2.0003,6,0,24,0,1,,,,,
,1.23,,,,,,,,,f.PNG,f,610c2d6cad3f3f38381bc9b6,2021-09-08_20h54.05.407,forced_choiceRT,2021.1.2,Linux x86_64,59.98080614,,,,,,,,5,Ontime,f,1,2.0162,6,1,25,0,1,,,,,
,1.87,,,,,,,,,h.PNG,h,610c2d6cad3f3f38381bc9b6,2021-09-08_20h54.05.407,forced_choiceRT,2021.1.2,Linux x86_64,59.98080614,,,,,,,,5,Ontime,h,1,2.0153,6,2,26,2,1,,,,,
,0.78,,,,,,,,,h.PNG,h,610c2d6cad3f3f38381bc9b6,2021-09-08_20h54.05.407,forced_choiceRT,2021.1.2,Linux x86_64,59.98080614,,,,,,,,5,Ontime,h,1,1.9661,6,3,27,2,1,,,,,
,0.03,,,,,,,,,g.PNG,g,610c2d6cad3f3f38381bc9b6,2021-09-08_20h54.05.407,forced_choiceRT,2021.1.2,Linux x86_64,59.98080614,,,,,,,,5,Ontime,g,1,2.0847,7,0,28,1,1,,,,,
,0.98,,,,,,,,,g.PNG,g,610c2d6cad3f3f38381bc9b6,2021-09-08_20h54.05.407,forced_choiceRT,2021.1.2,Linux x86_64,59.98080614,,,,,,,,5,Ontime,g,1,1.9503,7,1,29,1,1,,,,,
,1.53,,,,,,,,,j.PNG,j,610c2d6cad3f3f38381bc9b6,2021-09-08_20h54.05.407,forced_choiceRT,2021.1.2,Linux x86_64,59.98080614,,,,,,,,5,Ontime,h,0,2.0507,7,2,30,3,1,,,,,
,0.28,,,,,,,,,j.PNG,j,610c2d6cad3f3f38381bc9b6,2021-09-08_20h54.05.407,forced_choiceRT,2021.1.2,Linux x86_64,59.98080614,,,,,,,,5,Ontime,j,1,1.9879,7,3,31,3,1,,,,,
,1.32,,,,,,,,,j.PNG,j,610c2d6cad3f3f38381bc9b6,2021-09-08_20h54.05.407,forced_choiceRT,2021.1.2,Linux x86_64,59.98080614,,,,,,,,5,Ontime,j,1,2.0478,8,0,32,3,1,,,,,
,0.9,,,,,,,,,j.PNG,j,610c2d6cad3f3f38381bc9b6,2021-09-08_20h54.05.407,forced_choiceRT,2021.1.2,Linux x86_64,59.98080614,,,,,,,,5,Fast,j,1,1.8966,8,1,33,3,1,,,,,
,1.29,,,,,,,,,j.PNG,j,610c2d6cad3f3f38381bc9b6,2021-09-08_20h54.05.407,forced_choiceRT,2021.1.2,Linux x86_64,59.98080614,,,,,,,,5,Ontime,j,1,2.0009,8,2,34,3,1,,,,,
,1.68,,,,,,,,,g.PNG,g,610c2d6cad3f3f38381bc9b6,2021-09-08_20h54.05.407,forced_choiceRT,2021.1.2,Linux x86_64,59.98080614,,,,,,,,5,Ontime,h,0,2.036,8,3,35,1,1,,,,,
,0.36,,,,,,,,,g.PNG,g,610c2d6cad3f3f38381bc9b6,2021-09-08_20h54.05.407,forced_choiceRT,2021.1.2,Linux x86_64,59.98080614,,,,,,,,5,Ontime,g,1,1.9844,9,0,36,1,1,,,,,
,1.53,,,,,,,,,j.PNG,j,610c2d6cad3f3f38381bc9b6,2021-09-08_20h54.05.407,forced_choiceRT,2021.1.2,Linux x86_64,59.98080614,,,,,,,,5,Slow,j,1,2.1376,9,1,37,3,1,,,,,
,0.2,,,,,,,,,j.PNG,j,610c2d6cad3f3f38381bc9b6,2021-09-08_20h54.05.407,forced_choiceRT,2021.1.2,Linux x86_64,59.98080614,,,,,,,,5,Ontime,j,1,1.9668,9,2,38,3,1,,,,,
,0.29,,,,,,,,,f.PNG,f,610c2d6cad3f3f38381bc9b6,2021-09-08_20h54.05.407,forced_choiceRT,2021.1.2,Linux x86_64,59.98080614,,,,,,,,5,Ontime,f,1,2.0382,9,3,39,0,1,,,,,
,,,,,,,,,,,,610c2d6cad3f3f38381bc9b6,2021-09-08_20h54.05.407,forced_choiceRT,2021.1.2,Linux x86_64,59.98080614,,,,,,,,,,,,,,,,,,4,0,4,0,1
,1.64,,,,,,,,,h.PNG,h,610c2d6cad3f3f38381bc9b6,2021-09-08_20h54.05.407,forced_choiceRT,2021.1.2,Linux x86_64,59.98080614,,,,,,,,6,Slow,h,1,2.2382,0,0,0,2,1,,,,,
,0.13,,,,,,,,,f.PNG,f,610c2d6cad3f3f38381bc9b6,2021-09-08_20h54.05.407,forced_choiceRT,2021.1.2,Linux x86_64,59.98080614,,,,,,,,6,Ontime,f,1,2.0334,0,1,1,0,1,,,,,
,0.26,,,,,,,,,h.PNG,h,610c2d6cad3f3f38381bc9b6,2021-09-08_20h54.05.407,forced_choiceRT,2021.1.2,Linux x86_64,59.98080614,,,,,,,,6,Ontime,h,1,2.0701,0,2,2,2,1,,,,,
,1.07,,,,,,,,,h.PNG,h,610c2d6cad3f3f38381bc9b6,2021-09-08_20h54.05.407,forced_choiceRT,2021.1.2,Linux x86_64,59.98080614,,,,,,,,6,Ontime,h,1,1.9509,0,3,3,2,1,,,,,
,0.38,,,,,,,,,g.PNG,g,610c2d6cad3f3f38381bc9b6,2021-09-08_20h54.05.407,forced_choiceRT,2021.1.2,Linux x86_64,59.98080614,,,,,,,,6,Ontime,g,1,2.0693,1,0,4,1,1,,,,,
,1.88,,,,,,,,,g.PNG,g,610c2d6cad3f3f38381bc9b6,2021-09-08_20h54.05.407,forced_choiceRT,2021.1.2,Linux x86_64,59.98080614,,,,,,,,6,Ontime,h,0,2.036,1,1,5,1,1,,,,,
,0.88,,,,,,,,,g.PNG,g,610c2d6cad3f3f38381bc9b6,2021-09-08_20h54.05.407,forced_choiceRT,2021.1.2,Linux x86_64,59.98080614,,,,,,,,6,Ontime,g,1,1.9565,1,2,6,1,1,,,,,
,1.65,,,,,,,,,h.PNG,h,610c2d6cad3f3f38381bc9b6,2021-09-08_20h54.05.407,forced_choiceRT,2021.1.2,Linux x86_64,59.98080614,,,,,,,,6,Ontime,h,1,1.9499,1,3,7,2,1,,,,,
,0.27,,,,,,,,,f.PNG,f,610c2d6cad3f3f38381bc9b6,2021-09-08_20h54.05.407,forced_choiceRT,2021.1.2,Linux x86_64,59.98080614,,,,,,,,6,Ontime,f,1,1.9703,2,0,8,0,1,,,,,
,0.02,,,,,,,,,h.PNG,h,610c2d6cad3f3f38381bc9b6,2021-09-08_20h54.05.407,forced_choiceRT,2021.1.2,Linux x86_64,59.98080614,,,,,,,,6,Ontime,h,1,1.9852,2,1,9,2,1,,,,,
,1.66,,,,,,,,,h.PNG,h,610c2d6cad3f3f38381bc9b6,2021-09-08_20h54.05.407,forced_choiceRT,2021.1.2,Linux x86_64,59.98080614,,,,,,,,6,Ontime,h,1,2.0485,2,2,10,2,1,,,,,
,1.34,,,,,,,,,f.PNG,f,610c2d6cad3f3f38381bc9b6,2021-09-08_20h54.05.407,forced_choiceRT,2021.1.2,Linux x86_64,59.98080614,,,,,,,,6,Ontime,f,1,2.0012,2,3,11,0,1,,,,,
,1.3,,,,,,,,,j.PNG,j,610c2d6cad3f3f38381bc9b6,2021-09-08_20h54.05.407,forced_choiceRT,2021.1.2,Linux x86_64,59.98080614,,,,,,,,6,Ontime,j,1,1.9307,3,0,12,3,1,,,,,
,1.15,,,,,,,,,h.PNG,h,610c2d6cad3f3f38381bc9b6,2021-09-08_20h54.05.407,forced_choiceRT,2021.1.2,Linux x86_64,59.98080614,,,,,,,,6,Ontime,h,1,1.9849,3,1,13,2,1,,,,,
,0.34,,,,,,,,,h.PNG,h,610c2d6cad3f3f38381bc9b6,2021-09-08_20h54.05.407,forced_choiceRT,2021.1.2,Linux x86_64,59.98080614,,,,,,,,6,Ontime,h,1,1.9191,3,2,14,2,1,,,,,
,0.27,,,,,,,,,j.PNG,j,610c2d6cad3f3f38381bc9b6,2021-09-08_20h54.05.407,forced_choiceRT,2021.1.2,Linux x86_64,59.98080614,,,,,,,,6,Ontime,j,1,2.0499,3,3,15,3,1,,,,,
,1,,,,,,,,,f.PNG,f,610c2d6cad3f3f38381bc9b6,2021-09-08_20h54.05.407,forced_choiceRT,2021.1.2,Linux x86_64,59.98080614,,,,,,,,6,Ontime,f,1,2.0336,4,0,16,0,1,,,,,
,0.54,,,,,,,,,j.PNG,j,610c2d6cad3f3f38381bc9b6,2021-09-08_20h54.05.407,forced_choiceRT,2021.1.2,Linux x86_64,59.98080614,,,,,,,,6,Ontime,j,1,2.0082,4,1,17,3,1,,,,,
,1.76,,,,,,,,,g.PNG,g,610c2d6cad3f3f38381bc9b6,2021-09-08_20h54.05.407,forced_choiceRT,2021.1.2,Linux x86_64,59.98080614,,,,,,,,6,Slow,j,0,2.2372,4,2,18,1,1,,,,,
,0.61,,,,,,,,,f.PNG,f,610c2d6cad3f3f38381bc9b6,2021-09-08_20h54.05.407,forced_choiceRT,2021.1.2,Linux x86_64,59.98080614,,,,,,,,6,Ontime,f,1,1.9327,4,3,19,0,1,,,,,
,0,,,,,,,,,j.PNG,j,610c2d6cad3f3f38381bc9b6,2021-09-08_20h54.05.407,forced_choiceRT,2021.1.2,Linux x86_64,59.98080614,,,,,,,,6,Slow,j,1,2.1148,5,0,20,3,1,,,,,
,1.53,,,,,,,,,g.PNG,g,610c2d6cad3f3f38381bc9b6,2021-09-08_20h54.05.407,forced_choiceRT,2021.1.2,Linux x86_64,59.98080614,,,,,,,,6,Slow,h,0,2.1052,5,1,21,1,1,,,,,
,1.7,,,,,,,,,g.PNG,g,610c2d6cad3f3f38381bc9b6,2021-09-08_20h54.05.407,forced_choiceRT,2021.1.2,Linux x86_64,59.98080614,,,,,,,,6,Ontime,g,1,1.9353,5,2,22,1,1,,,,,
,1.22,,,,,,,,,j.PNG,j,610c2d6cad3f3f38381bc9b6,2021-09-08_20h54.05.407,forced_choiceRT,2021.1.2,Linux x86_64,59.98080614,,,,,,,,6,Ontime,j,1,1.9516,5,3,23,3,1,,,,,
,0.81,,,,,,,,,j.PNG,j,610c2d6cad3f3f38381bc9b6,2021-09-08_20h54.05.407,forced_choiceRT,2021.1.2,Linux x86_64,59.98080614,,,,,,,,6,Ontime,j,1,2.0202,6,0,24,3,1,,,,,
,0.61,,,,,,,,,j.PNG,j,610c2d6cad3f3f38381bc9b6,2021-09-08_20h54.05.407,forced_choiceRT,2021.1.2,Linux x86_64,59.98080614,,,,,,,,6,Ontime,j,1,1.9508,6,1,25,3,1,,,,,
,1.81,,,,,,,,,g.PNG,g,610c2d6cad3f3f38381bc9b6,2021-09-08_20h54.05.407,forced_choiceRT,2021.1.2,Linux x86_64,59.98080614,,,,,,,,6,Ontime,h,0,1.9334,6,2,26,1,1,,,,,
,1.59,,,,,,,,,f.PNG,f,610c2d6cad3f3f38381bc9b6,2021-09-08_20h54.05.407,forced_choiceRT,2021.1.2,Linux x86_64,59.98080614,,,,,,,,6,Slow,f,1,2.1017,6,3,27,0,1,,,,,
,1.52,,,,,,,,,j.PNG,j,610c2d6cad3f3f38381bc9b6,2021-09-08_20h54.05.407,forced_choiceRT,2021.1.2,Linux x86_64,59.98080614,,,,,,,,6,Ontime,j,1,2.0497,7,0,28,3,1,,,,,
,0.31,,,,,,,,,f.PNG,f,610c2d6cad3f3f38381bc9b6,2021-09-08_20h54.05.407,forced_choiceRT,2021.1.2,Linux x86_64,59.98080614,,,,,,,,6,Fast,f,1,1.8769,7,1,29,0,1,,,,,
,1.69,,,,,,,,,j.PNG,j,610c2d6cad3f3f38381bc9b6,2021-09-08_20h54.05.407,forced_choiceRT,2021.1.2,Linux x86_64,59.98080614,,,,,,,,6,Ontime,h,0,2.0625,7,2,30,3,1,,,,,
,0.11,,,,,,,,,h.PNG,h,610c2d6cad3f3f38381bc9b6,2021-09-08_20h54.05.407,forced_choiceRT,2021.1.2,Linux x86_64,59.98080614,,,,,,,,6,Ontime,h,1,2.039,7,3,31,2,1,,,,,
,0.37,,,,,,,,,h.PNG,h,610c2d6cad3f3f38381bc9b6,2021-09-08_20h54.05.407,forced_choiceRT,2021.1.2,Linux x86_64,59.98080614,,,,,,,,6,Fast,h,1,1.8856,8,0,32,2,1,,,,,
,1.57,,,,,,,,,f.PNG,f,610c2d6cad3f3f38381bc9b6,2021-09-08_20h54.05.407,forced_choiceRT,2021.1.2,Linux x86_64,59.98080614,,,,,,,,6,Ontime,h,0,2.0076,8,1,33,0,1,,,,,
,1.8,,,,,,,,,f.PNG,f,610c2d6cad3f3f38381bc9b6,2021-09-08_20h54.05.407,forced_choiceRT,2021.1.2,Linux x86_64,59.98080614,,,,,,,,6,Ontime,h,0,2.0363,8,2,34,0,1,,,,,
,1.56,,,,,,,,,g.PNG,g,610c2d6cad3f3f38381bc9b6,2021-09-08_20h54.05.407,forced_choiceRT,2021.1.2,Linux x86_64,59.98080614,,,,,,,,6,Ontime,f,0,2.0487,8,3,35,1,1,,,,,
,0.22,,,,,,,,,g.PNG,g,610c2d6cad3f3f38381bc9b6,2021-09-08_20h54.05.407,forced_choiceRT,2021.1.2,Linux x86_64,59.98080614,,,,,,,,6,Ontime,g,1,1.9823,9,0,36,1,1,,,,,
,0.21,,,,,,,,,j.PNG,j,610c2d6cad3f3f38381bc9b6,2021-09-08_20h54.05.407,forced_choiceRT,2021.1.2,Linux x86_64,59.98080614,,,,,,,,6,Ontime,j,1,1.9866,9,1,37,3,1,,,,,
,0.38,,,,,,,,,g.PNG,g,610c2d6cad3f3f38381bc9b6,2021-09-08_20h54.05.407,forced_choiceRT,2021.1.2,Linux x86_64,59.98080614,,,,,,,,6,Ontime,g,1,2.0827,9,2,38,1,1,,,,,
,1.66,,,,,,,,,f.PNG,f,610c2d6cad3f3f38381bc9b6,2021-09-08_20h54.05.407,forced_choiceRT,2021.1.2,Linux x86_64,59.98080614,,,,,,,,6,Slow,g,0,2.1197,9,3,39,0,1,,,,,
,,,,,,,,,,,,610c2d6cad3f3f38381bc9b6,2021-09-08_20h54.05.407,forced_choiceRT,2021.1.2,Linux x86_64,59.98080614,,,,,,,,,,,,,,,,,,5,0,5,0,1
,0.33,,,,,,,,,j.PNG,j,610c2d6cad3f3f38381bc9b6,2021-09-08_20h54.05.407,forced_choiceRT,2021.1.2,Linux x86_64,59.98080614,,,,,,,,7,Fast,j,1,1.8356,0,0,0,3,1,,,,,
,0.76,,,,,,,,,g.PNG,g,610c2d6cad3f3f38381bc9b6,2021-09-08_20h54.05.407,forced_choiceRT,2021.1.2,Linux x86_64,59.98080614,,,,,,,,7,Ontime,g,1,1.9311,0,1,1,1,1,,,,,
,0.17,,,,,,,,,f.PNG,f,610c2d6cad3f3f38381bc9b6,2021-09-08_20h54.05.407,forced_choiceRT,2021.1.2,Linux x86_64,59.98080614,,,,,,,,7,Ontime,f,1,1.9315,0,2,2,0,1,,,,,
,0.05,,,,,,,,,g.PNG,g,610c2d6cad3f3f38381bc9b6,2021-09-08_20h54.05.407,forced_choiceRT,2021.1.2,Linux x86_64,59.98080614,,,,,,,,7,Ontime,g,1,2.0043,0,3,3,1,1,,,,,
,1.52,,,,,,,,,j.PNG,j,610c2d6cad3f3f38381bc9b6,2021-09-08_20h54.05.407,forced_choiceRT,2021.1.2,Linux x86_64,59.98080614,,,,,,,,7,Ontime,g,0,2.0524,1,0,4,3,1,,,,,
,1.37,,,,,,,,,j.PNG,j,610c2d6cad3f3f38381bc9b6,2021-09-08_20h54.05.407,forced_choiceRT,2021.1.2,Linux x86_64,59.98080614,,,,,,,,7,Ontime,j,1,2.0078,1,1,5,3,1,,,,,
,0.4,,,,,,,,,f.PNG,f,610c2d6cad3f3f38381bc9b6,2021-09-08_20h54.05.407,forced_choiceRT,2021.1.2,Linux x86_64,59.98080614,,,,,,,,7,Ontime,f,1,2.0333,1,2,6,0,1,,,,,
,1.76,,,,,,,,,f.PNG,f,610c2d6cad3f3f38381bc9b6,2021-09-08_20h54.05.407,forced_choiceRT,2021.1.2,Linux x86_64,59.98080614,,,,,,,,7,Ontime,h,0,1.9894,1,3,7,0,1,,,,,
,0.18,,,,,,,,,j.PNG,j,610c2d6cad3f3f38381bc9b6,2021-09-08_20h54.05.407,forced_choiceRT,2021.1.2,Linux x86_64,59.98080614,,,,,,,,7,Ontime,j,1,1.9525,2,0,8,3,1,,,,,
,1.74,,,,,,,,,h.PNG,h,610c2d6cad3f3f38381bc9b6,2021-09-08_20h54.05.407,forced_choiceRT,2021.1.2,Linux x86_64,59.98080614,,,,,,,,7,Slow,h,1,2.1686,2,1,9,2,1,,,,,
,1.63,,,,,,,,,g.PNG,g,610c2d6cad3f3f38381bc9b6,2021-09-08_20h54.05.407,forced_choiceRT,2021.1.2,Linux x86_64,59.98080614,,,,,,,,7,Ontime,g,1,2.0656,2,2,10,1,1,,,,,
,1.54,,,,,,,,,h.PNG,h,610c2d6cad3f3f38381bc9b6,2021-09-08_20h54.05.407,forced_choiceRT,2021.1.2,Linux x86_64,59.98080614,,,,,,,,7,Ontime,h,1,1.9034,2,3,11,2,1,,,,,
,0.57,,,,,,,,,j.PNG,j,610c2d6cad3f3f38381bc9b6,2021-09-08_20h54.05.407,forced_choiceRT,2021.1.2,Linux x86_64,59.98080614,,,,,,,,7,Fast,j,1,1.8728,3,0,12,3,1,,,,,
,1.63,,,,,,,,,h.PNG,h,610c2d6cad3f3f38381bc9b6,2021-09-08_20h54.05.407,forced_choiceRT,2021.1.2,Linux x86_64,59.98080614,,,,,,,,7,Ontime,j,0,2.0149,3,1,13,2,1,,,,,
,0.7,,,,,,,,,g.PNG,g,610c2d6cad3f3f38381bc9b6,2021-09-08_20h54.05.407,forced_choiceRT,2021.1.2,Linux x86_64,59.98080614,,,,,,,,7,Fast,g,1,1.6565,3,2,14,1,1,,,,,
,1.58,,,,,,,,,j.PNG,j,610c2d6cad3f3f38381bc9b6,2021-09-08_20h54.05.407,forced_choiceRT,2021.1.2,Linux x86_64,59.98080614,,,,,,,,7,Slow,j,1,2.1165,3,3,15,3,1,,,,,
,0.75,,,,,,,,,h.PNG,h,610c2d6cad3f3f38381bc9b6,2021-09-08_20h54.05.407,forced_choiceRT,2021.1.2,Linux x86_64,59.98080614,,,,,,,,7,Ontime,h,1,1.9114,4,0,16,2,1,,,,,
,0.61,,,,,,,,,h.PNG,h,610c2d6cad3f3f38381bc9b6,2021-09-08_20h54.05.407,forced_choiceRT,2021.1.2,Linux x86_64,59.98080614,,,,,,,,7,Ontime,h,1,1.9523,4,1,17,2,1,,,,,
,1.04,,,,,,,,,f.PNG,f,610c2d6cad3f3f38381bc9b6,2021-09-08_20h54.05.407,forced_choiceRT,2021.1.2,Linux x86_64,59.98080614,,,,,,,,7,Ontime,f,1,2.0006,4,2,18,0,1,,,,,
,1.13,,,,,,,,,f.PNG,f,610c2d6cad3f3f38381bc9b6,2021-09-08_20h54.05.407,forced_choiceRT,2021.1.2,Linux x86_64,59.98080614,,,,,,,,7,Ontime,f,1,1.9534,4,3,19,0,1,,,,,
,1.84,,,,,,,,,h.PNG,h,610c2d6cad3f3f38381bc9b6,2021-09-08_20h54.05.407,forced_choiceRT,2021.1.2,Linux x86_64,59.98080614,,,,,,,,7,Ontime,g,0,1.9679,5,0,20,2,1,,,,,
,0.78,,,,,,,,,j.PNG,j,610c2d6cad3f3f38381bc9b6,2021-09-08_20h54.05.407,forced_choiceRT,2021.1.2,Linux x86_64,59.98080614,,,,,,,,7,Ontime,j,1,1.9338,5,1,21,3,1,,,,,
,1.58,,,,,,,,,h.PNG,h,610c2d6cad3f3f38381bc9b6,2021-09-08_20h54.05.407,forced_choiceRT,2021.1.2,Linux x86_64,59.98080614,,,,,,,,7,Ontime,h,1,2.0512,5,2,22,2,1,,,,,
,1.38,,,,,,,,,g.PNG,g,610c2d6cad3f3f38381bc9b6,2021-09-08_20h54.05.407,forced_choiceRT,2021.1.2,Linux x86_64,59.98080614,,,,,,,,7,Ontime,g,1,1.9318,5,3,23,1,1,,,,,
,1.73,,,,,,,,,g.PNG,g,610c2d6cad3f3f38381bc9b6,2021-09-08_20h54.05.407,forced_choiceRT,2021.1.2,Linux x86_64,59.98080614,,,,,,,,7,Slow,h,0,2.1029,6,0,24,1,1,,,,,
,1.65,,,,,,,,,j.PNG,j,610c2d6cad3f3f38381bc9b6,2021-09-08_20h54.05.407,forced_choiceRT,2021.1.2,Linux x86_64,59.98080614,,,,,,,,7,Ontime,g,0,1.9504,6,1,25,3,1,,,,,
,0.48,,,,,,,,,f.PNG,f,610c2d6cad3f3f38381bc9b6,2021-09-08_20h54.05.407,forced_choiceRT,2021.1.2,Linux x86_64,59.98080614,,,,,,,,7,Fast,f,1,1.8893,6,2,26,0,1,,,,,
,1.25,,,,,,,,,j.PNG,j,610c2d6cad3f3f38381bc9b6,2021-09-08_20h54.05.407,forced_choiceRT,2021.1.2,Linux x86_64,59.98080614,,,,,,,,7,Slow,j,1,2.1336,6,3,27,3,1,,,,,
,1.72,,,,,,,,,h.PNG,h,610c2d6cad3f3f38381bc9b6,2021-09-08_20h54.05.407,forced_choiceRT,2021.1.2,Linux x86_64,59.98080614,,,,,,,,7,Ontime,h,1,1.955,7,0,28,2,1,,,,,
,1.75,,,,,,,,,f.PNG,f,610c2d6cad3f3f38381bc9b6,2021-09-08_20h54.05.407,forced_choiceRT,2021.1.2,Linux x86_64,59.98080614,,,,,,,,7,Ontime,h,0,1.9389,7,1,29,0,1,,,,,
,0.47,,,,,,,,,f.PNG,f,610c2d6cad3f3f38381bc9b6,2021-09-08_20h54.05.407,forced_choiceRT,2021.1.2,Linux x86_64,59.98080614,,,,,,,,7,Ontime,f,1,1.9476,7,2,30,0,1,,,,,
,0.06,,,,,,,,,j.PNG,j,610c2d6cad3f3f38381bc9b6,2021-09-08_20h54.05.407,forced_choiceRT,2021.1.2,Linux x86_64,59.98080614,,,,,,,,7,Ontime,j,1,1.9592,7,3,31,3,1,,,,,
,0.99,,,,,,,,,g.PNG,g,610c2d6cad3f3f38381bc9b6,2021-09-08_20h54.05.407,forced_choiceRT,2021.1.2,Linux x86_64,59.98080614,,,,,,,,7,Ontime,g,1,2.0555,8,0,32,1,1,,,,,
,0.16,,,,,,,,,g.PNG,g,610c2d6cad3f3f38381bc9b6,2021-09-08_20h54.05.407,forced_choiceRT,2021.1.2,Linux x86_64,59.98080614,,,,,,,,7,Fast,g,1,1.8837,8,1,33,1,1,,,,,
,0.91,,,,,,,,,h.PNG,h,610c2d6cad3f3f38381bc9b6,2021-09-08_20h54.05.407,forced_choiceRT,2021.1.2,Linux x86_64,59.98080614,,,,,,,,7,Ontime,h,1,2.0448,8,2,34,2,1,,,,,
,0.12,,,,,,,,,f.PNG,f,610c2d6cad3f3f38381bc9b6,2021-09-08_20h54.05.407,forced_choiceRT,2021.1.2,Linux x86_64,59.98080614,,,,,,,,7,Ontime,f,1,1.9862,8,3,35,0,1,,,,,
,1.04,,,,,,,,,h.PNG,h,610c2d6cad3f3f38381bc9b6,2021-09-08_20h54.05.407,forced_choiceRT,2021.1.2,Linux x86_64,59.98080614,,,,,,,,7,Ontime,h,1,1.9509,9,0,36,2,1,,,,,
,0.05,,,,,,,,,f.PNG,f,610c2d6cad3f3f38381bc9b6,2021-09-08_20h54.05.407,forced_choiceRT,2021.1.2,Linux x86_64,59.98080614,,,,,,,,7,Ontime,f,1,2.0503,9,1,37,0,1,,,,,
,1.8,,,,,,,,,g.PNG,g,610c2d6cad3f3f38381bc9b6,2021-09-08_20h54.05.407,forced_choiceRT,2021.1.2,Linux x86_64,59.98080614,,,,,,,,7,Slow,f,0,2.3535,9,2,38,1,1,,,,,
,1.37,,,,,,,,,g.PNG,g,610c2d6cad3f3f38381bc9b6,2021-09-08_20h54.05.407,forced_choiceRT,2021.1.2,Linux x86_64,59.98080614,,,,,,,,7,Ontime,g,1,1.9575,9,3,39,1,1,,,,,
,,,,,,,,,,,,610c2d6cad3f3f38381bc9b6,2021-09-08_20h54.05.407,forced_choiceRT,2021.1.2,Linux x86_64,59.98080614,,,,,,,,,,,,,,,,,,6,0,6,0,1
,0.4,,,,,,,,,j.PNG,j,610c2d6cad3f3f38381bc9b6,2021-09-08_20h54.05.407,forced_choiceRT,2021.1.2,Linux x86_64,59.98080614,,,,,,,,8,Fast,g,0,1.7858,0,0,0,3,1,,,,,
,1.51,,,,,,,,,h.PNG,h,610c2d6cad3f3f38381bc9b6,2021-09-08_20h54.05.407,forced_choiceRT,2021.1.2,Linux x86_64,59.98080614,,,,,,,,8,Ontime,j,0,2.0587,0,1,1,2,1,,,,,
,1.15,,,,,,,,,g.PNG,g,610c2d6cad3f3f38381bc9b6,2021-09-08_20h54.05.407,forced_choiceRT,2021.1.2,Linux x86_64,59.98080614,,,,,,,,8,Ontime,h,0,1.9696,0,2,2,1,1,,,,,
,1.04,,,,,,,,,h.PNG,h,610c2d6cad3f3f38381bc9b6,2021-09-08_20h54.05.407,forced_choiceRT,2021.1.2,Linux x86_64,59.98080614,,,,,,,,8,Fast,j,0,1.8692,0,3,3,2,1,,,,,
,0.16,,,,,,,,,f.PNG,f,610c2d6cad3f3f38381bc9b6,2021-09-08_20h54.05.407,forced_choiceRT,2021.1.2,Linux x86_64,59.98080614,,,,,,,,8,Ontime,g,0,1.9824,1,0,4,0,1,,,,,
,0.01,,,,,,,,,h.PNG,h,610c2d6cad3f3f38381bc9b6,2021-09-08_20h54.05.407,forced_choiceRT,2021.1.2,Linux x86_64,59.98080614,,,,,,,,8,Ontime,j,0,1.9497,1,1,5,2,1,,,,,
,1.89,,,,,,,,,g.PNG,g,610c2d6cad3f3f38381bc9b6,2021-09-08_20h54.05.407,forced_choiceRT,2021.1.2,Linux x86_64,59.98080614,,,,,,,,8,Ontime,h,0,1.9543,1,2,6,1,1,,,,,
,0.81,,,,,,,,,h.PNG,h,610c2d6cad3f3f38381bc9b6,2021-09-08_20h54.05.407,forced_choiceRT,2021.1.2,Linux x86_64,59.98080614,,,,,,,,8,Ontime,j,0,1.9853,1,3,7,2,1,,,,,
,0.3,,,,,,,,,j.PNG,j,610c2d6cad3f3f38381bc9b6,2021-09-08_20h54.05.407,forced_choiceRT,2021.1.2,Linux x86_64,59.98080614,,,,,,,,8,Slow,g,0,22.9709,2,0,8,3,1,,,,,
,1.43,,,,,,,,,h.PNG,h,610c2d6cad3f3f38381bc9b6,2021-09-08_20h54.05.407,forced_choiceRT,2021.1.2,Linux x86_64,59.98080614,,,,,,,,8,Ontime,h,1,2.0994,2,1,9,2,1,,,,,
,1.87,,,,,,,,,j.PNG,j,610c2d6cad3f3f38381bc9b6,2021-09-08_20h54.05.407,forced_choiceRT,2021.1.2,Linux x86_64,59.98080614,,,,,,,,8,Ontime,h,0,2.0342,2,2,10,3,1,,,,,
,0.91,,,,,,,,,f.PNG,f,610c2d6cad3f3f38381bc9b6,2021-09-08_20h54.05.407,forced_choiceRT,2021.1.2,Linux x86_64,59.98080614,,,,,,,,8,Ontime,f,1,1.9964,2,3,11,0,1,,,,,
,1.37,,,,,,,,,f.PNG,f,610c2d6cad3f3f38381bc9b6,2021-09-08_20h54.05.407,forced_choiceRT,2021.1.2,Linux x86_64,59.98080614,,,,,,,,8,Ontime,f,1,2.0249,3,0,12,0,1,,,,,
,0.94,,,,,,,,,j.PNG,j,610c2d6cad3f3f38381bc9b6,2021-09-08_20h54.05.407,forced_choiceRT,2021.1.2,Linux x86_64,59.98080614,,,,,,,,8,Ontime,j,1,2.0046,3,1,13,3,1,,,,,
,1.41,,,,,,,,,h.PNG,h,610c2d6cad3f3f38381bc9b6,2021-09-08_20h54.05.407,forced_choiceRT,2021.1.2,Linux x86_64,59.98080614,,,,,,,,8,Ontime,h,1,2.0511,3,2,14,2,1,,,,,
,0.6,,,,,,,,,f.PNG,f,610c2d6cad3f3f38381bc9b6,2021-09-08_20h54.05.407,forced_choiceRT,2021.1.2,Linux x86_64,59.98080614,,,,,,,,8,Ontime,f,1,1.9829,3,3,15,0,1,,,,,
,0.19,,,,,,,,,j.PNG,j,610c2d6cad3f3f38381bc9b6,2021-09-08_20h54.05.407,forced_choiceRT,2021.1.2,Linux x86_64,59.98080614,,,,,,,,8,Ontime,j,1,1.9839,4,0,16,3,1,,,,,
,1.28,,,,,,,,,j.PNG,j,610c2d6cad3f3f38381bc9b6,2021-09-08_20h54.05.407,forced_choiceRT,2021.1.2,Linux x86_64,59.98080614,,,,,,,,8,Ontime,h,0,2.0371,4,1,17,3,1,,,,,
,0.82,,,,,,,,,f.PNG,f,610c2d6cad3f3f38381bc9b6,2021-09-08_20h54.05.407,forced_choiceRT,2021.1.2,Linux x86_64,59.98080614,,,,,,,,8,Ontime,f,1,2.0492,4,2,18,0,1,,,,,
,1.97,,,,,,,,,g.PNG,g,610c2d6cad3f3f38381bc9b6,2021-09-08_20h54.05.407,forced_choiceRT,2021.1.2,Linux x86_64,59.98080614,,,,,,,,8,Ontime,g,1,1.9984,4,3,19,1,1,,,,,
,1.57,,,,,,,,,f.PNG,f,610c2d6cad3f3f38381bc9b6,2021-09-08_20h54.05.407,forced_choiceRT,2021.1.2,Linux x86_64,59.98080614,,,,,,,,8,Slow,f,1,2.1502,5,0,20,0,1,,,,,
,0.21,,,,,,,,,g.PNG,g,610c2d6cad3f3f38381bc9b6,2021-09-08_20h54.05.407,forced_choiceRT,2021.1.2,Linux x86_64,59.98080614,,,,,,,,8,Ontime,g,1,1.9355,5,1,21,1,1,,,,,
,1.65,,,,,,,,,g.PNG,g,610c2d6cad3f3f38381bc9b6,2021-09-08_20h54.05.407,forced_choiceRT,2021.1.2,Linux x86_64,59.98080614,,,,,,,,8,Slow,g,1,2.1861,5,2,22,1,1,,,,,
,1.73,,,,,,,,,h.PNG,h,610c2d6cad3f3f38381bc9b6,2021-09-08_20h54.05.407,forced_choiceRT,2021.1.2,Linux x86_64,59.98080614,,,,,,,,8,Ontime,g,0,1.9269,5,3,23,2,1,,,,,
,1.82,,,,,,,,,g.PNG,g,610c2d6cad3f3f38381bc9b6,2021-09-08_20h54.05.407,forced_choiceRT,2021.1.2,Linux x86_64,59.98080614,,,,,,,,8,Ontime,g,1,2.0481,6,0,24,1,1,,,,,
,1.81,,,,,,,,,j.PNG,j,610c2d6cad3f3f38381bc9b6,2021-09-08_20h54.05.407,forced_choiceRT,2021.1.2,Linux x86_64,59.98080614,,,,,,,,8,Fast,h,0,1.8991,6,1,25,3,1,,,,,
,1.99,,,,,,,,,j.PNG,j,610c2d6cad3f3f38381bc9b6,2021-09-08_20h54.05.407,forced_choiceRT,2021.1.2,Linux x86_64,59.98080614,,,,,,,,8,Ontime,j,1,2.0696,6,2,26,3,1,,,,,
,0.76,,,,,,,,,f.PNG,f,610c2d6cad3f3f38381bc9b6,2021-09-08_20h54.05.407,forced_choiceRT,2021.1.2,Linux x86_64,59.98080614,,,,,,,,8,Ontime,f,1,2.0302,6,3,27,0,1,,,,,
,0.47,,,,,,,,,g.PNG,g,610c2d6cad3f3f38381bc9b6,2021-09-08_20h54.05.407,forced_choiceRT,2021.1.2,Linux x86_64,59.98080614,,,,,,,,8,Ontime,g,1,1.9189,7,0,28,1,1,,,,,
,0.17,,,,,,,,,h.PNG,h,610c2d6cad3f3f38381bc9b6,2021-09-08_20h54.05.407,forced_choiceRT,2021.1.2,Linux x86_64,59.98080614,,,,,,,,8,Ontime,h,1,1.9732,7,1,29,2,1,,,,,
,1.41,,,,,,,,,f.PNG,f,610c2d6cad3f3f38381bc9b6,2021-09-08_20h54.05.407,forced_choiceRT,2021.1.2,Linux x86_64,59.98080614,,,,,,,,8,Ontime,f,1,1.9913,7,2,30,0,1,,,,,
,1.13,,,,,,,,,g.PNG,g,610c2d6cad3f3f38381bc9b6,2021-09-08_20h54.05.407,forced_choiceRT,2021.1.2,Linux x86_64,59.98080614,,,,,,,,8,Fast,h,0,1.8175,7,3,31,1,1,,,,,
,1.12,,,,,,,,,h.PNG,h,610c2d6cad3f3f38381bc9b6,2021-09-08_20h54.05.407,forced_choiceRT,2021.1.2,Linux x86_64,59.98080614,,,,,,,,8,Ontime,h,1,1.9384,8,0,32,2,1,,,,,
,1.54,,,,,,,,,g.PNG,g,610c2d6cad3f3f38381bc9b6,2021-09-08_20h54.05.407,forced_choiceRT,2021.1.2,Linux x86_64,59.98080614,,,,,,,,8,Ontime,g,1,1.9992,8,1,33,1,1,,,,,
,0.37,,,,,,,,,j.PNG,j,610c2d6cad3f3f38381bc9b6,2021-09-08_20h54.05.407,forced_choiceRT,2021.1.2,Linux x86_64,59.98080614,,,,,,,,8,Fast,j,1,1.8908,8,2,34,3,1,,,,,
,1.93,,,,,,,,,h.PNG,h,610c2d6cad3f3f38381bc9b6,2021-09-08_20h54.05.407,forced_choiceRT,2021.1.2,Linux x86_64,59.98080614,,,,,,,,8,Ontime,j,0,2.0889,8,3,35,2,1,,,,,
,0.9,,,,,,,,,f.PNG,f,610c2d6cad3f3f38381bc9b6,2021-09-08_20h54.05.407,forced_choiceRT,2021.1.2,Linux x86_64,59.98080614,,,,,,,,8,Ontime,f,1,2.0056,9,0,36,0,1,,,,,
,1.99,,,,,,,,,f.PNG,f,610c2d6cad3f3f38381bc9b6,2021-09-08_20h54.05.407,forced_choiceRT,2021.1.2,Linux x86_64,59.98080614,,,,,,,,8,Ontime,h,0,2.0671,9,1,37,0,1,,,,,
,1.98,,,,,,,,,g.PNG,g,610c2d6cad3f3f38381bc9b6,2021-09-08_20h54.05.407,forced_choiceRT,2021.1.2,Linux x86_64,59.98080614,,,,,,,,8,Ontime,g,1,2.0688,9,2,38,1,1,,,,,
,0.9,,,,,,,,,j.PNG,j,610c2d6cad3f3f38381bc9b6,2021-09-08_20h54.05.407,forced_choiceRT,2021.1.2,Linux x86_64,59.98080614,,,,,,,,8,Ontime,j,1,2.0144,9,3,39,3,1,,,,,
,,,,,,,,,,,,610c2d6cad3f3f38381bc9b6,2021-09-08_20h54.05.407,forced_choiceRT,2021.1.2,Linux x86_64,59.98080614,,,,,,,,,,,,,,,,,,7,0,7,0,1
,0.04,,,,,,,,,j.PNG,j,610c2d6cad3f3f38381bc9b6,2021-09-08_20h54.05.407,forced_choiceRT,2021.1.2,Linux x86_64,59.98080614,,,,,,,,9,Fast,j,1,0.7732,0,0,0,3,1,,,,,
,1.83,,,,,,,,,h.PNG,h,610c2d6cad3f3f38381bc9b6,2021-09-08_20h54.05.407,forced_choiceRT,2021.1.2,Linux x86_64,59.98080614,,,,,,,,9,Ontime,g,0,2.0051,0,1,1,2,1,,,,,
,0.76,,,,,,,,,j.PNG,j,610c2d6cad3f3f38381bc9b6,2021-09-08_20h54.05.407,forced_choiceRT,2021.1.2,Linux x86_64,59.98080614,,,,,,,,9,Ontime,j,1,1.9526,0,2,2,3,1,,,,,
,0.99,,,,,,,,,f.PNG,f,610c2d6cad3f3f38381bc9b6,2021-09-08_20h54.05.407,forced_choiceRT,2021.1.2,Linux x86_64,59.98080614,,,,,,,,9,Ontime,f,1,1.9509,0,3,3,0,1,,,,,
,0.15,,,,,,,,,f.PNG,f,610c2d6cad3f3f38381bc9b6,2021-09-08_20h54.05.407,forced_choiceRT,2021.1.2,Linux x86_64,59.98080614,,,,,,,,9,Ontime,f,1,1.9863,1,0,4,0,1,,,,,
,0.2,,,,,,,,,g.PNG,g,610c2d6cad3f3f38381bc9b6,2021-09-08_20h54.05.407,forced_choiceRT,2021.1.2,Linux x86_64,59.98080614,,,,,,,,9,Ontime,g,1,1.9673,1,1,5,1,1,,,,,
,0.95,,,,,,,,,j.PNG,j,610c2d6cad3f3f38381bc9b6,2021-09-08_20h54.05.407,forced_choiceRT,2021.1.2,Linux x86_64,59.98080614,,,,,,,,9,Ontime,j,1,2.0572,1,2,6,3,1,,,,,
,1.7,,,,,,,,,f.PNG,f,610c2d6cad3f3f38381bc9b6,2021-09-08_20h54.05.407,forced_choiceRT,2021.1.2,Linux x86_64,59.98080614,,,,,,,,9,Ontime,h,0,1.9756,1,3,7,0,1,,,,,
,1.01,,,,,,,,,g.PNG,g,610c2d6cad3f3f38381bc9b6,2021-09-08_20h54.05.407,forced_choiceRT,2021.1.2,Linux x86_64,59.98080614,,,,,,,,9,Ontime,g,1,1.9551,2,0,8,1,1,,,,,
,0.72,,,,,,,,,f.PNG,f,610c2d6cad3f3f38381bc9b6,2021-09-08_20h54.05.407,forced_choiceRT,2021.1.2,Linux x86_64,59.98080614,,,,,,,,9,Ontime,f,1,2.0185,2,1,9,0,1,,,,,
,0.11,,,,,,,,,j.PNG,j,610c2d6cad3f3f38381bc9b6,2021-09-08_20h54.05.407,forced_choiceRT,2021.1.2,Linux x86_64,59.98080614,,,,,,,,9,Ontime,j,1,1.9342,2,2,10,3,1,,,,,
,0.96,,,,,,,,,h.PNG,h,610c2d6cad3f3f38381bc9b6,2021-09-08_20h54.05.407,forced_choiceRT,2021.1.2,Linux x86_64,59.98080614,,,,,,,,9,Fast,h,1,1.8577,2,3,11,2,1,,,,,
,1.9,,,,,,,,,g.PNG,g,610c2d6cad3f3f38381bc9b6,2021-09-08_20h54.05.407,forced_choiceRT,2021.1.2,Linux x86_64,59.98080614,,,,,,,,9,Ontime,h,0,1.9223,3,0,12,1,1,,,,,
,0.21,,,,,,,,,j.PNG,j,610c2d6cad3f3f38381bc9b6,2021-09-08_20h54.05.407,forced_choiceRT,2021.1.2,Linux x86_64,59.98080614,,,,,,,,9,Ontime,j,1,1.9663,3,1,13,3,1,,,,,
,1.84,,,,,,,,,f.PNG,f,610c2d6cad3f3f38381bc9b6,2021-09-08_20h54.05.407,forced_choiceRT,2021.1.2,Linux x86_64,59.98080614,,,,,,,,9,Ontime,h,0,1.9719,3,2,14,0,1,,,,,
,0.37,,,,,,,,,j.PNG,j,610c2d6cad3f3f38381bc9b6,2021-09-08_20h54.05.407,forced_choiceRT,2021.1.2,Linux x86_64,59.98080614,,,,,,,,9,Fast,j,1,1.8527,3,3,15,3,1,,,,,
,0.39,,,,,,,,,f.PNG,f,610c2d6cad3f3f38381bc9b6,2021-09-08_20h54.05.407,forced_choiceRT,2021.1.2,Linux x86_64,59.98080614,,,,,,,,9,Ontime,f,1,1.9187,4,0,16,0,1,,,,,
,0.88,,,,,,,,,h.PNG,h,610c2d6cad3f3f38381bc9b6,2021-09-08_20h54.05.407,forced_choiceRT,2021.1.2,Linux x86_64,59.98080614,,,,,,,,9,Ontime,h,1,1.9494,4,1,17,2,1,,,,,
,0.8,,,,,,,,,h.PNG,h,610c2d6cad3f3f38381bc9b6,2021-09-08_20h54.05.407,forced_choiceRT,2021.1.2,Linux x86_64,59.98080614,,,,,,,,9,Slow,h,1,2.1155,4,2,18,2,1,,,,,
,0.25,,,,,,,,,g.PNG,g,610c2d6cad3f3f38381bc9b6,2021-09-08_20h54.05.407,forced_choiceRT,2021.1.2,Linux x86_64,59.98080614,,,,,,,,9,Ontime,g,1,1.9679,4,3,19,1,1,,,,,
,0.17,,,,,,,,,f.PNG,f,610c2d6cad3f3f38381bc9b6,2021-09-08_20h54.05.407,forced_choiceRT,2021.1.2,Linux x86_64,59.98080614,,,,,,,,9,Ontime,f,1,1.941,5,0,20,0,1,,,,,
,1.54,,,,,,,,,g.PNG,g,610c2d6cad3f3f38381bc9b6,2021-09-08_20h54.05.407,forced_choiceRT,2021.1.2,Linux x86_64,59.98080614,,,,,,,,9,Ontime,h,0,1.9991,5,1,21,1,1,,,,,
,0.93,,,,,,,,,g.PNG,g,610c2d6cad3f3f38381bc9b6,2021-09-08_20h54.05.407,forced_choiceRT,2021.1.2,Linux x86_64,59.98080614,,,,,,,,9,Ontime,g,1,1.9734,5,2,22,1,1,,,,,
,1.76,,,,,,,,,h.PNG,h,610c2d6cad3f3f38381bc9b6,2021-09-08_20h54.05.407,forced_choiceRT,2021.1.2,Linux x86_64,59.98080614,,,,,,,,9,Ontime,h,1,1.9196,5,3,23,2,1,,,,,
,1.38,,,,,,,,,g.PNG,g,610c2d6cad3f3f38381bc9b6,2021-09-08_20h54.05.407,forced_choiceRT,2021.1.2,Linux x86_64,59.98080614,,,,,,,,9,Ontime,g,1,2.0381,6,0,24,1,1,,,,,
,1.44,,,,,,,,,g.PNG,g,610c2d6cad3f3f38381bc9b6,2021-09-08_20h54.05.407,forced_choiceRT,2021.1.2,Linux x86_64,59.98080614,,,,,,,,9,Ontime,g,1,2.0321,6,1,25,1,1,,,,,
,0.74,,,,,,,,,f.PNG,f,610c2d6cad3f3f38381bc9b6,2021-09-08_20h54.05.407,forced_choiceRT,2021.1.2,Linux x86_64,59.98080614,,,,,,,,9,Ontime,f,1,1.9689,6,2,26,0,1,,,,,
,1.46,,,,,,,,,h.PNG,h,610c2d6cad3f3f38381bc9b6,2021-09-08_20h54.05.407,forced_choiceRT,2021.1.2,Linux x86_64,59.98080614,,,,,,,,9,Ontime,g,0,2.0017,6,3,27,2,1,,,,,
,0.28,,,,,,,,,j.PNG,j,610c2d6cad3f3f38381bc9b6,2021-09-08_20h54.05.407,forced_choiceRT,2021.1.2,Linux x86_64,59.98080614,,,,,,,,9,Ontime,j,1,2.0163,7,0,28,3,1,,,,,
,1.82,,,,,,,,,h.PNG,h,610c2d6cad3f3f38381bc9b6,2021-09-08_20h54.05.407,forced_choiceRT,2021.1.2,Linux x86_64,59.98080614,,,,,,,,9,Ontime,h,1,2.0351,7,1,29,2,1,,,,,
,0.63,,,,,,,,,h.PNG,h,610c2d6cad3f3f38381bc9b6,2021-09-08_20h54.05.407,forced_choiceRT,2021.1.2,Linux x86_64,59.98080614,,,,,,,,9,Ontime,h,1,1.9852,7,2,30,2,1,,,,,
,1.57,,,,,,,,,g.PNG,g,610c2d6cad3f3f38381bc9b6,2021-09-08_20h54.05.407,forced_choiceRT,2021.1.2,Linux x86_64,59.98080614,,,,,,,,9,Ontime,g,1,2.0382,7,3,31,1,1,,,,,
,1.14,,,,,,,,,f.PNG,f,610c2d6cad3f3f38381bc9b6,2021-09-08_20h54.05.407,forced_choiceRT,2021.1.2,Linux x86_64,59.98080614,,,,,,,,9,Ontime,f,1,1.9489,8,0,32,0,1,,,,,
,1.79,,,,,,,,,f.PNG,f,610c2d6cad3f3f38381bc9b6,2021-09-08_20h54.05.407,forced_choiceRT,2021.1.2,Linux x86_64,59.98080614,,,,,,,,9,Ontime,f,1,1.9995,8,1,33,0,1,,,,,
,1.76,,,,,,,,,j.PNG,j,610c2d6cad3f3f38381bc9b6,2021-09-08_20h54.05.407,forced_choiceRT,2021.1.2,Linux x86_64,59.98080614,,,,,,,,9,Ontime,j,1,1.9669,8,2,34,3,1,,,,,
,0.7,,,,,,,,,g.PNG,g,610c2d6cad3f3f38381bc9b6,2021-09-08_20h54.05.407,forced_choiceRT,2021.1.2,Linux x86_64,59.98080614,,,,,,,,9,Ontime,g,1,2.0027,8,3,35,1,1,,,,,
,0.23,,,,,,,,,j.PNG,j,610c2d6cad3f3f38381bc9b6,2021-09-08_20h54.05.407,forced_choiceRT,2021.1.2,Linux x86_64,59.98080614,,,,,,,,9,Ontime,j,1,1.9521,9,0,36,3,1,,,,,
,1.08,,,,,,,,,h.PNG,h,610c2d6cad3f3f38381bc9b6,2021-09-08_20h54.05.407,forced_choiceRT,2021.1.2,Linux x86_64,59.98080614,,,,,,,,9,Ontime,h,1,1.9572,9,1,37,2,1,,,,,
,1.94,,,,,,,,,h.PNG,h,610c2d6cad3f3f38381bc9b6,2021-09-08_20h54.05.407,forced_choiceRT,2021.1.2,Linux x86_64,59.98080614,,,,,,,,9,Ontime,g,0,1.984,9,2,38,2,1,,,,,
,0.59,,,,,,,,,j.PNG,j,610c2d6cad3f3f38381bc9b6,2021-09-08_20h54.05.407,forced_choiceRT,2021.1.2,Linux x86_64,59.98080614,,,,,,,,9,Ontime,j,1,2.0027,9,3,39,3,1,,,,,
,,,,,,,,,,,,610c2d6cad3f3f38381bc9b6,2021-09-08_20h54.05.407,forced_choiceRT,2021.1.2,Linux x86_64,59.98080614,,,,,,,,,,,,,,,,,,8,0,8,0,1
,0.89,,,,,,,,,j.PNG,j,610c2d6cad3f3f38381bc9b6,2021-09-08_20h54.05.407,forced_choiceRT,2021.1.2,Linux x86_64,59.98080614,,,,,,,,10,Ontime,j,1,2.0014,0,0,0,3,1,,,,,
,0.75,,,,,,,,,f.PNG,f,610c2d6cad3f3f38381bc9b6,2021-09-08_20h54.05.407,forced_choiceRT,2021.1.2,Linux x86_64,59.98080614,,,,,,,,10,Slow,f,1,2.1007,0,1,1,0,1,,,,,
,0.55,,,,,,,,,g.PNG,g,610c2d6cad3f3f38381bc9b6,2021-09-08_20h54.05.407,forced_choiceRT,2021.1.2,Linux x86_64,59.98080614,,,,,,,,10,Fast,g,1,1.8833,0,2,2,1,1,,,,,
,0.63,,,,,,,,,j.PNG,j,610c2d6cad3f3f38381bc9b6,2021-09-08_20h54.05.407,forced_choiceRT,2021.1.2,Linux x86_64,59.98080614,,,,,,,,10,Ontime,j,1,2.0491,0,3,3,3,1,,,,,
,0.59,,,,,,,,,g.PNG,g,610c2d6cad3f3f38381bc9b6,2021-09-08_20h54.05.407,forced_choiceRT,2021.1.2,Linux x86_64,59.98080614,,,,,,,,10,Ontime,g,1,2.0209,1,0,4,1,1,,,,,
,1.05,,,,,,,,,h.PNG,h,610c2d6cad3f3f38381bc9b6,2021-09-08_20h54.05.407,forced_choiceRT,2021.1.2,Linux x86_64,59.98080614,,,,,,,,10,Fast,h,1,1.8671,1,1,5,2,1,,,,,
,0.17,,,,,,,,,f.PNG,f,610c2d6cad3f3f38381bc9b6,2021-09-08_20h54.05.407,forced_choiceRT,2021.1.2,Linux x86_64,59.98080614,,,,,,,,10,Ontime,f,1,1.9175,1,2,6,0,1,,,,,
,0.34,,,,,,,,,g.PNG,g,610c2d6cad3f3f38381bc9b6,2021-09-08_20h54.05.407,forced_choiceRT,2021.1.2,Linux x86_64,59.98080614,,,,,,,,10,Ontime,g,1,1.9235,1,3,7,1,1,,,,,
,1.68,,,,,,,,,g.PNG,g,610c2d6cad3f3f38381bc9b6,2021-09-08_20h54.05.407,forced_choiceRT,2021.1.2,Linux x86_64,59.98080614,,,,,,,,10,Slow,h,0,2.134,2,0,8,1,1,,,,,
,0.48,,,,,,,,,h.PNG,h,610c2d6cad3f3f38381bc9b6,2021-09-08_20h54.05.407,forced_choiceRT,2021.1.2,Linux x86_64,59.98080614,,,,,,,,10,Ontime,h,1,1.932,2,1,9,2,1,,,,,
,1.7,,,,,,,,,h.PNG,h,610c2d6cad3f3f38381bc9b6,2021-09-08_20h54.05.407,forced_choiceRT,2021.1.2,Linux x86_64,59.98080614,,,,,,,,10,Ontime,g,0,1.9015,2,2,10,2,1,,,,,
,0.14,,,,,,,,,g.PNG,g,610c2d6cad3f3f38381bc9b6,2021-09-08_20h54.05.407,forced_choiceRT,2021.1.2,Linux x86_64,59.98080614,,,,,,,,10,Fast,g,1,1.7804,2,3,11,1,1,,,,,
,1.55,,,,,,,,,f.PNG,f,610c2d6cad3f3f38381bc9b6,2021-09-08_20h54.05.407,forced_choiceRT,2021.1.2,Linux x86_64,59.98080614,,,,,,,,10,Ontime,h,0,2.0256,3,0,12,0,1,,,,,
,1.69,,,,,,,,,f.PNG,f,610c2d6cad3f3f38381bc9b6,2021-09-08_20h54.05.407,forced_choiceRT,2021.1.2,Linux x86_64,59.98080614,,,,,,,,10,Fast,g,0,1.8846,3,1,13,0,1,,,,,
,0.79,,,,,,,,,j.PNG,j,610c2d6cad3f3f38381bc9b6,2021-09-08_20h54.05.407,forced_choiceRT,2021.1.2,Linux x86_64,59.98080614,,,,,,,,10,Ontime,j,1,1.9412,3,2,14,3,1,,,,,
,0.55,,,,,,,,,f.PNG,f,610c2d6cad3f3f38381bc9b6,2021-09-08_20h54.05.407,forced_choiceRT,2021.1.2,Linux x86_64,59.98080614,,,,,,,,10,Ontime,f,1,1.9837,3,3,15,0,1,,,,,
,1.98,,,,,,,,,g.PNG,g,610c2d6cad3f3f38381bc9b6,2021-09-08_20h54.05.407,forced_choiceRT,2021.1.2,Linux x86_64,59.98080614,,,,,,,,10,Ontime,g,1,2.0327,4,0,16,1,1,,,,,
,0.4,,,,,,,,,h.PNG,h,610c2d6cad3f3f38381bc9b6,2021-09-08_20h54.05.407,forced_choiceRT,2021.1.2,Linux x86_64,59.98080614,,,,,,,,10,Fast,h,1,1.8723,4,1,17,2,1,,,,,
,1.71,,,,,,,,,f.PNG,f,610c2d6cad3f3f38381bc9b6,2021-09-08_20h54.05.407,forced_choiceRT,2021.1.2,Linux x86_64,59.98080614,,,,,,,,10,Ontime,h,0,2.0514,4,2,18,0,1,,,,,
,1.12,,,,,,,,,j.PNG,j,610c2d6cad3f3f38381bc9b6,2021-09-08_20h54.05.407,forced_choiceRT,2021.1.2,Linux x86_64,59.98080614,,,,,,,,10,Slow,j,1,2.1656,4,3,19,3,1,,,,,
,0.58,,,,,,,,,j.PNG,j,610c2d6cad3f3f38381bc9b6,2021-09-08_20h54.05.407,forced_choiceRT,2021.1.2,Linux x86_64,59.98080614,,,,,,,,10,Fast,j,1,1.851,5,0,20,3,1,,,,,
,0.81,,,,,,,,,j.PNG,j,610c2d6cad3f3f38381bc9b6,2021-09-08_20h54.05.407,forced_choiceRT,2021.1.2,Linux x86_64,59.98080614,,,,,,,,10,Ontime,j,1,1.9932,5,1,21,3,1,,,,,
,0.44,,,,,,,,,g.PNG,g,610c2d6cad3f3f38381bc9b6,2021-09-08_20h54.05.407,forced_choiceRT,2021.1.2,Linux x86_64,59.98080614,,,,,,,,10,Ontime,g,1,1.9495,5,2,22,1,1,,,,,
,1.53,,,,,,,,,h.PNG,h,610c2d6cad3f3f38381bc9b6,2021-09-08_20h54.05.407,forced_choiceRT,2021.1.2,Linux x86_64,59.98080614,,,,,,,,10,Fast,h,1,1.8908,5,3,23,2,1,,,,,
,0.15,,,,,,,,,j.PNG,j,610c2d6cad3f3f38381bc9b6,2021-09-08_20h54.05.407,forced_choiceRT,2021.1.2,Linux x86_64,59.98080614,,,,,,,,10,Ontime,j,1,2.0817,6,0,24,3,1,,,,,
,0.08,,,,,,,,,h.PNG,h,610c2d6cad3f3f38381bc9b6,2021-09-08_20h54.05.407,forced_choiceRT,2021.1.2,Linux x86_64,59.98080614,,,,,,,,10,Ontime,h,1,2.0823,6,1,25,2,1,,,,,
,0.04,,,,,,,,,f.PNG,f,610c2d6cad3f3f38381bc9b6,2021-09-08_20h54.05.407,forced_choiceRT,2021.1.2,Linux x86_64,59.98080614,,,,,,,,10,Ontime,f,1,2.0077,6,2,26,0,1,,,,,
,1.57,,,,,,,,,f.PNG,f,610c2d6cad3f3f38381bc9b6,2021-09-08_20h54.05.407,forced_choiceRT,2021.1.2,Linux x86_64,59.98080614,,,,,,,,10,Ontime,h,0,2.0138,6,3,27,0,1,,,,,
,1.32,,,,,,,,,h.PNG,h,610c2d6cad3f3f38381bc9b6,2021-09-08_20h54.05.407,forced_choiceRT,2021.1.2,Linux x86_64,59.98080614,,,,,,,,10,Ontime,h,1,1.9452,7,0,28,2,1,,,,,
,1.71,,,,,,,,,g.PNG,g,610c2d6cad3f3f38381bc9b6,2021-09-08_20h54.05.407,forced_choiceRT,2021.1.2,Linux x86_64,59.98080614,,,,,,,,10,Ontime,g,1,1.9828,7,1,29,1,1,,,,,
,1.3,,,,,,,,,h.PNG,h,610c2d6cad3f3f38381bc9b6,2021-09-08_20h54.05.407,forced_choiceRT,2021.1.2,Linux x86_64,59.98080614,,,,,,,,10,Ontime,h,1,2.0162,7,2,30,2,1,,,,,
,0.36,,,,,,,,,j.PNG,j,610c2d6cad3f3f38381bc9b6,2021-09-08_20h54.05.407,forced_choiceRT,2021.1.2,Linux x86_64,59.98080614,,,,,,,,10,Ontime,j,1,2.0293,7,3,31,3,1,,,,,
,0.85,,,,,,,,,g.PNG,g,610c2d6cad3f3f38381bc9b6,2021-09-08_20h54.05.407,forced_choiceRT,2021.1.2,Linux x86_64,59.98080614,,,,,,,,10,Ontime,g,1,1.9191,8,0,32,1,1,,,,,
,1.37,,,,,,,,,f.PNG,f,610c2d6cad3f3f38381bc9b6,2021-09-08_20h54.05.407,forced_choiceRT,2021.1.2,Linux x86_64,59.98080614,,,,,,,,10,Ontime,f,1,1.9742,8,1,33,0,1,,,,,
,0.73,,,,,,,,,g.PNG,g,610c2d6cad3f3f38381bc9b6,2021-09-08_20h54.05.407,forced_choiceRT,2021.1.2,Linux x86_64,59.98080614,,,,,,,,10,Ontime,g,1,1.9545,8,2,34,1,1,,,,,
,1.96,,,,,,,,,h.PNG,h,610c2d6cad3f3f38381bc9b6,2021-09-08_20h54.05.407,forced_choiceRT,2021.1.2,Linux x86_64,59.98080614,,,,,,,,10,Ontime,h,1,1.999,8,3,35,2,1,,,,,
,0.45,,,,,,,,,j.PNG,j,610c2d6cad3f3f38381bc9b6,2021-09-08_20h54.05.407,forced_choiceRT,2021.1.2,Linux x86_64,59.98080614,,,,,,,,10,Ontime,j,1,1.9495,9,0,36,3,1,,,,,
,1.24,,,,,,,,,j.PNG,j,610c2d6cad3f3f38381bc9b6,2021-09-08_20h54.05.407,forced_choiceRT,2021.1.2,Linux x86_64,59.98080614,,,,,,,,10,Ontime,j,1,2.0182,9,1,37,3,1,,,,,
,0.03,,,,,,,,,f.PNG,f,610c2d6cad3f3f38381bc9b6,2021-09-08_20h54.05.407,forced_choiceRT,2021.1.2,Linux x86_64,59.98080614,,,,,,,,10,Ontime,f,1,1.9674,9,2,38,0,1,,,,,
,1.85,,,,,,,,,h.PNG,h,610c2d6cad3f3f38381bc9b6,2021-09-08_20h54.05.407,forced_choiceRT,2021.1.2,Linux x86_64,59.98080614,,,,,,,,10,Ontime,h,1,2.0636,9,3,39,2,1,,,,,
,,,,,,,,,,,,610c2d6cad3f3f38381bc9b6,2021-09-08_20h54.05.407,forced_choiceRT,2021.1.2,Linux x86_64,59.98080614,,,,,,,,,,,,,,,,,,9,0,9,0,1
