IP_Addresss,target_onset,trial_resp_sp.keys,trial_resp_sp.corr,trial_resp_sp.rt,trials_train_loop.thisRepN,trials_train_loop.thisTrialN,trials_train_loop.thisN,trials_train_loop.thisIndex,trials_train_loop.ran,pic,correct_key,participant,date,expName,psychopyVersion,OS,frameRate,trial_resp_timing.keys,trial_resp_timing.rt,trials_train_timing.thisRepN,trials_train_timing.thisTrialN,trials_train_timing.thisN,trials_train_timing.thisIndex,trials_train_timing.ran,block_id,ontime,forcedRT_resp.keys,forcedRT_resp.corr,forcedRT_resp.rt,trials.thisRepN,trials.thisTrialN,trials.thisN,trials.thisIndex,trials.ran,blocks.thisRepN,blocks.thisTrialN,blocks.thisN,blocks.thisIndex,blocks.ran
104.229.188.92,0,g,1,2.3989,0,0,0,1,1,g.PNG,g,610eedb873951ea1ebab3912,2021-09-08_20h55.26.500,forced_choiceRT,2021.1.2,Win32,59.91970759,,,,,,,,,,,,,,,,,,,,,,
,0,h,1,0.9266,0,1,1,2,1,h.PNG,h,610eedb873951ea1ebab3912,2021-09-08_20h55.26.500,forced_choiceRT,2021.1.2,Win32,59.91970759,,,,,,,,,,,,,,,,,,,,,,
,0,j,1,0.679,0,2,2,3,1,j.PNG,j,610eedb873951ea1ebab3912,2021-09-08_20h55.26.500,forced_choiceRT,2021.1.2,Win32,59.91970759,,,,,,,,,,,,,,,,,,,,,,
,0,j,1,0.6703,0,3,3,3,1,j.PNG,j,610eedb873951ea1ebab3912,2021-09-08_20h55.26.500,forced_choiceRT,2021.1.2,Win32,59.91970759,,,,,,,,,,,,,,,,,,,,,,
,0,h,1,0.6846,1,0,4,2,1,h.PNG,h,610eedb873951ea1ebab3912,2021-09-08_20h55.26.500,forced_choiceRT,2021.1.2,Win32,59.91970759,,,,,,,,,,,,,,,,,,,,,,
,0,g,1,0.8003,1,1,5,1,1,g.PNG,g,610eedb873951ea1ebab3912,2021-09-08_20h55.26.500,forced_choiceRT,2021.1.2,Win32,59.91970759,,,,,,,,,,,,,,,,,,,,,,
,0,f,1,0.6849,1,2,6,0,1,f.PNG,f,610eedb873951ea1ebab3912,2021-09-08_20h55.26.500,forced_choiceRT,2021.1.2,Win32,59.91970759,,,,,,,,,,,,,,,,,,,,,,
,0,g,1,0.7364,1,3,7,1,1,g.PNG,g,610eedb873951ea1ebab3912,2021-09-08_20h55.26.500,forced_choiceRT,2021.1.2,Win32,59.91970759,,,,,,,,,,,,,,,,,,,,,,
,0,f,1,0.8516,2,0,8,0,1,f.PNG,f,610eedb873951ea1ebab3912,2021-09-08_20h55.26.500,forced_choiceRT,2021.1.2,Win32,59.91970759,,,,,,,,,,,,,,,,,,,,,,
,0,f,1,0.5449,2,1,9,0,1,f.PNG,f,610eedb873951ea1ebab3912,2021-09-08_20h55.26.500,forced_choiceRT,2021.1.2,Win32,59.91970759,,,,,,,,,,,,,,,,,,,,,,
,0,j,1,0.7129,2,2,10,3,1,j.PNG,j,610eedb873951ea1ebab3912,2021-09-08_20h55.26.500,forced_choiceRT,2021.1.2,Win32,59.91970759,,,,,,,,,,,,,,,,,,,,,,
,0,j,1,0.5521,2,3,11,3,1,j.PNG,j,610eedb873951ea1ebab3912,2021-09-08_20h55.26.500,forced_choiceRT,2021.1.2,Win32,59.91970759,,,,,,,,,,,,,,,,,,,,,,
,0,h,1,0.763,3,0,12,2,1,h.PNG,h,610eedb873951ea1ebab3912,2021-09-08_20h55.26.500,forced_choiceRT,2021.1.2,Win32,59.91970759,,,,,,,,,,,,,,,,,,,,,,
,0,g,1,0.9346,3,1,13,1,1,g.PNG,g,610eedb873951ea1ebab3912,2021-09-08_20h55.26.500,forced_choiceRT,2021.1.2,Win32,59.91970759,,,,,,,,,,,,,,,,,,,,,,
,0,g,1,0.5634,3,2,14,1,1,g.PNG,g,610eedb873951ea1ebab3912,2021-09-08_20h55.26.500,forced_choiceRT,2021.1.2,Win32,59.91970759,,,,,,,,,,,,,,,,,,,,,,
,0,j,1,0.7205,3,3,15,3,1,j.PNG,j,610eedb873951ea1ebab3912,2021-09-08_20h55.26.500,forced_choiceRT,2021.1.2,Win32,59.91970759,,,,,,,,,,,,,,,,,,,,,,
,0,f,1,0.6289,4,0,16,0,1,f.PNG,f,610eedb873951ea1ebab3912,2021-09-08_20h55.26.500,forced_choiceRT,2021.1.2,Win32,59.91970759,,,,,,,,,,,,,,,,,,,,,,
,0,h,1,0.9005,4,1,17,2,1,h.PNG,h,610eedb873951ea1ebab3912,2021-09-08_20h55.26.500,forced_choiceRT,2021.1.2,Win32,59.91970759,,,,,,,,,,,,,,,,,,,,,,
,0,g,1,0.7229,4,2,18,1,1,g.PNG,g,610eedb873951ea1ebab3912,2021-09-08_20h55.26.500,forced_choiceRT,2021.1.2,Win32,59.91970759,,,,,,,,,,,,,,,,,,,,,,
,0,g,1,0.5043,4,3,19,1,1,g.PNG,g,610eedb873951ea1ebab3912,2021-09-08_20h55.26.500,forced_choiceRT,2021.1.2,Win32,59.91970759,,,,,,,,,,,,,,,,,,,,,,
,0,h,1,1.1712,5,0,20,2,1,h.PNG,h,610eedb873951ea1ebab3912,2021-09-08_20h55.26.500,forced_choiceRT,2021.1.2,Win32,59.91970759,,,,,,,,,,,,,,,,,,,,,,
,0,h,1,0.5344,5,1,21,2,1,h.PNG,h,610eedb873951ea1ebab3912,2021-09-08_20h55.26.500,forced_choiceRT,2021.1.2,Win32,59.91970759,,,,,,,,,,,,,,,,,,,,,,
,0,g,1,0.7497,5,2,22,1,1,g.PNG,g,610eedb873951ea1ebab3912,2021-09-08_20h55.26.500,forced_choiceRT,2021.1.2,Win32,59.91970759,,,,,,,,,,,,,,,,,,,,,,
,0,g,1,0.5285,5,3,23,1,1,g.PNG,g,610eedb873951ea1ebab3912,2021-09-08_20h55.26.500,forced_choiceRT,2021.1.2,Win32,59.91970759,,,,,,,,,,,,,,,,,,,,,,
,0,h,1,1.0245,6,0,24,2,1,h.PNG,h,610eedb873951ea1ebab3912,2021-09-08_20h55.26.500,forced_choiceRT,2021.1.2,Win32,59.91970759,,,,,,,,,,,,,,,,,,,,,,
,0,j,1,0.5899,6,1,25,3,1,j.PNG,j,610eedb873951ea1ebab3912,2021-09-08_20h55.26.500,forced_choiceRT,2021.1.2,Win32,59.91970759,,,,,,,,,,,,,,,,,,,,,,
,0,j,1,0.519,6,2,26,3,1,j.PNG,j,610eedb873951ea1ebab3912,2021-09-08_20h55.26.500,forced_choiceRT,2021.1.2,Win32,59.91970759,,,,,,,,,,,,,,,,,,,,,,
,0,h,1,0.6561,6,3,27,2,1,h.PNG,h,610eedb873951ea1ebab3912,2021-09-08_20h55.26.500,forced_choiceRT,2021.1.2,Win32,59.91970759,,,,,,,,,,,,,,,,,,,,,,
,0,h,1,0.463,7,0,28,2,1,h.PNG,h,610eedb873951ea1ebab3912,2021-09-08_20h55.26.500,forced_choiceRT,2021.1.2,Win32,59.91970759,,,,,,,,,,,,,,,,,,,,,,
,0,g,1,0.6563,7,1,29,1,1,g.PNG,g,610eedb873951ea1ebab3912,2021-09-08_20h55.26.500,forced_choiceRT,2021.1.2,Win32,59.91970759,,,,,,,,,,,,,,,,,,,,,,
,0,g,1,0.7397,7,2,30,1,1,g.PNG,g,610eedb873951ea1ebab3912,2021-09-08_20h55.26.500,forced_choiceRT,2021.1.2,Win32,59.91970759,,,,,,,,,,,,,,,,,,,,,,
,0,j,1,0.7259,7,3,31,3,1,j.PNG,j,610eedb873951ea1ebab3912,2021-09-08_20h55.26.500,forced_choiceRT,2021.1.2,Win32,59.91970759,,,,,,,,,,,,,,,,,,,,,,
,0,j,1,0.5714,8,0,32,3,1,j.PNG,j,610eedb873951ea1ebab3912,2021-09-08_20h55.26.500,forced_choiceRT,2021.1.2,Win32,59.91970759,,,,,,,,,,,,,,,,,,,,,,
,0,f,1,0.6832,8,1,33,0,1,f.PNG,f,610eedb873951ea1ebab3912,2021-09-08_20h55.26.500,forced_choiceRT,2021.1.2,Win32,59.91970759,,,,,,,,,,,,,,,,,,,,,,
,0,f,1,0.7862,8,2,34,0,1,f.PNG,f,610eedb873951ea1ebab3912,2021-09-08_20h55.26.500,forced_choiceRT,2021.1.2,Win32,59.91970759,,,,,,,,,,,,,,,,,,,,,,
,0,f,1,0.5179,8,3,35,0,1,f.PNG,f,610eedb873951ea1ebab3912,2021-09-08_20h55.26.500,forced_choiceRT,2021.1.2,Win32,59.91970759,,,,,,,,,,,,,,,,,,,,,,
,0,g,1,0.5783,9,0,36,1,1,g.PNG,g,610eedb873951ea1ebab3912,2021-09-08_20h55.26.500,forced_choiceRT,2021.1.2,Win32,59.91970759,,,,,,,,,,,,,,,,,,,,,,
,0,f,1,0.7548,9,1,37,0,1,f.PNG,f,610eedb873951ea1ebab3912,2021-09-08_20h55.26.500,forced_choiceRT,2021.1.2,Win32,59.91970759,,,,,,,,,,,,,,,,,,,,,,
,0,f,1,0.5434,9,2,38,0,1,f.PNG,f,610eedb873951ea1ebab3912,2021-09-08_20h55.26.500,forced_choiceRT,2021.1.2,Win32,59.91970759,,,,,,,,,,,,,,,,,,,,,,
,0,j,1,0.654,9,3,39,3,1,j.PNG,j,610eedb873951ea1ebab3912,2021-09-08_20h55.26.500,forced_choiceRT,2021.1.2,Win32,59.91970759,,,,,,,,,,,,,,,,,,,,,,
,0,h,1,0.4762,10,0,40,2,1,h.PNG,h,610eedb873951ea1ebab3912,2021-09-08_20h55.26.500,forced_choiceRT,2021.1.2,Win32,59.91970759,,,,,,,,,,,,,,,,,,,,,,
,0,h,1,0.5421,10,1,41,2,1,h.PNG,h,610eedb873951ea1ebab3912,2021-09-08_20h55.26.500,forced_choiceRT,2021.1.2,Win32,59.91970759,,,,,,,,,,,,,,,,,,,,,,
,0,f,1,0.7845,10,2,42,0,1,f.PNG,f,610eedb873951ea1ebab3912,2021-09-08_20h55.26.500,forced_choiceRT,2021.1.2,Win32,59.91970759,,,,,,,,,,,,,,,,,,,,,,
,0,g,1,0.647,10,3,43,1,1,g.PNG,g,610eedb873951ea1ebab3912,2021-09-08_20h55.26.500,forced_choiceRT,2021.1.2,Win32,59.91970759,,,,,,,,,,,,,,,,,,,,,,
,0,j,1,0.6631,11,0,44,3,1,j.PNG,j,610eedb873951ea1ebab3912,2021-09-08_20h55.26.500,forced_choiceRT,2021.1.2,Win32,59.91970759,,,,,,,,,,,,,,,,,,,,,,
,0,j,1,0.5405,11,1,45,3,1,j.PNG,j,610eedb873951ea1ebab3912,2021-09-08_20h55.26.500,forced_choiceRT,2021.1.2,Win32,59.91970759,,,,,,,,,,,,,,,,,,,,,,
,0,g,1,1.3014,11,2,46,1,1,g.PNG,g,610eedb873951ea1ebab3912,2021-09-08_20h55.26.500,forced_choiceRT,2021.1.2,Win32,59.91970759,,,,,,,,,,,,,,,,,,,,,,
,0,h,1,0.6752,11,3,47,2,1,h.PNG,h,610eedb873951ea1ebab3912,2021-09-08_20h55.26.500,forced_choiceRT,2021.1.2,Win32,59.91970759,,,,,,,,,,,,,,,,,,,,,,
,0,j,1,0.5921,12,0,48,3,1,j.PNG,j,610eedb873951ea1ebab3912,2021-09-08_20h55.26.500,forced_choiceRT,2021.1.2,Win32,59.91970759,,,,,,,,,,,,,,,,,,,,,,
,0,f,1,0.5846,12,1,49,0,1,f.PNG,f,610eedb873951ea1ebab3912,2021-09-08_20h55.26.500,forced_choiceRT,2021.1.2,Win32,59.91970759,,,,,,,,,,,,,,,,,,,,,,
,0,h,1,0.8376,12,2,50,2,1,h.PNG,h,610eedb873951ea1ebab3912,2021-09-08_20h55.26.500,forced_choiceRT,2021.1.2,Win32,59.91970759,,,,,,,,,,,,,,,,,,,,,,
,0,f,1,0.7177,12,3,51,0,1,f.PNG,f,610eedb873951ea1ebab3912,2021-09-08_20h55.26.500,forced_choiceRT,2021.1.2,Win32,59.91970759,,,,,,,,,,,,,,,,,,,,,,
,0,j,1,0.6918,13,0,52,3,1,j.PNG,j,610eedb873951ea1ebab3912,2021-09-08_20h55.26.500,forced_choiceRT,2021.1.2,Win32,59.91970759,,,,,,,,,,,,,,,,,,,,,,
,0,g,1,0.6918,13,1,53,1,1,g.PNG,g,610eedb873951ea1ebab3912,2021-09-08_20h55.26.500,forced_choiceRT,2021.1.2,Win32,59.91970759,,,,,,,,,,,,,,,,,,,,,,
,0,h,1,0.5628,13,2,54,2,1,h.PNG,h,610eedb873951ea1ebab3912,2021-09-08_20h55.26.500,forced_choiceRT,2021.1.2,Win32,59.91970759,,,,,,,,,,,,,,,,,,,,,,
,0,h,1,0.7693,13,3,55,2,1,h.PNG,h,610eedb873951ea1ebab3912,2021-09-08_20h55.26.500,forced_choiceRT,2021.1.2,Win32,59.91970759,,,,,,,,,,,,,,,,,,,,,,
,0,f,1,0.7174,14,0,56,0,1,f.PNG,f,610eedb873951ea1ebab3912,2021-09-08_20h55.26.500,forced_choiceRT,2021.1.2,Win32,59.91970759,,,,,,,,,,,,,,,,,,,,,,
,0,f,1,0.8407,14,1,57,0,1,f.PNG,f,610eedb873951ea1ebab3912,2021-09-08_20h55.26.500,forced_choiceRT,2021.1.2,Win32,59.91970759,,,,,,,,,,,,,,,,,,,,,,
,0,j,1,0.595,14,2,58,3,1,j.PNG,j,610eedb873951ea1ebab3912,2021-09-08_20h55.26.500,forced_choiceRT,2021.1.2,Win32,59.91970759,,,,,,,,,,,,,,,,,,,,,,
,0,f,1,0.718,14,3,59,0,1,f.PNG,f,610eedb873951ea1ebab3912,2021-09-08_20h55.26.500,forced_choiceRT,2021.1.2,Win32,59.91970759,,,,,,,,,,,,,,,,,,,,,,
,,,,,,,,,,,,610eedb873951ea1ebab3912,2021-09-08_20h55.26.500,forced_choiceRT,2021.1.2,Win32,59.91970759,f,2.1919,0,0,0,0,1,,,,,,,,,,,,,,,
,,,,,,,,,,,,610eedb873951ea1ebab3912,2021-09-08_20h55.26.500,forced_choiceRT,2021.1.2,Win32,59.91970759,f,2.0344,1,0,1,0,1,,,,,,,,,,,,,,,
,,,,,,,,,,,,610eedb873951ea1ebab3912,2021-09-08_20h55.26.500,forced_choiceRT,2021.1.2,Win32,59.91970759,f,2.0817,2,0,2,0,1,,,,,,,,,,,,,,,
,,,,,,,,,,,,610eedb873951ea1ebab3912,2021-09-08_20h55.26.500,forced_choiceRT,2021.1.2,Win32,59.91970759,g,2.0427,3,0,3,0,1,,,,,,,,,,,,,,,
,,,,,,,,,,,,610eedb873951ea1ebab3912,2021-09-08_20h55.26.500,forced_choiceRT,2021.1.2,Win32,59.91970759,h,2.0771,4,0,4,0,1,,,,,,,,,,,,,,,
,,,,,,,,,,,,610eedb873951ea1ebab3912,2021-09-08_20h55.26.500,forced_choiceRT,2021.1.2,Win32,59.91970759,j,2.0202,5,0,5,0,1,,,,,,,,,,,,,,,
,,,,,,,,,,,,610eedb873951ea1ebab3912,2021-09-08_20h55.26.500,forced_choiceRT,2021.1.2,Win32,59.91970759,f,2.0679,6,0,6,0,1,,,,,,,,,,,,,,,
,,,,,,,,,,,,610eedb873951ea1ebab3912,2021-09-08_20h55.26.500,forced_choiceRT,2021.1.2,Win32,59.91970759,g,2.0695,7,0,7,0,1,,,,,,,,,,,,,,,
,,,,,,,,,,,,610eedb873951ea1ebab3912,2021-09-08_20h55.26.500,forced_choiceRT,2021.1.2,Win32,59.91970759,h,2.0732,8,0,8,0,1,,,,,,,,,,,,,,,
,,,,,,,,,,,,610eedb873951ea1ebab3912,2021-09-08_20h55.26.500,forced_choiceRT,2021.1.2,Win32,59.91970759,j,2.0824,9,0,9,0,1,,,,,,,,,,,,,,,
,,,,,,,,,,,,610eedb873951ea1ebab3912,2021-09-08_20h55.26.500,forced_choiceRT,2021.1.2,Win32,59.91970759,f,2.0573,10,0,10,0,1,,,,,,,,,,,,,,,
,,,,,,,,,,,,610eedb873951ea1ebab3912,2021-09-08_20h55.26.500,forced_choiceRT,2021.1.2,Win32,59.91970759,g,2.0107,11,0,11,0,1,,,,,,,,,,,,,,,
,,,,,,,,,,,,610eedb873951ea1ebab3912,2021-09-08_20h55.26.500,forced_choiceRT,2021.1.2,Win32,59.91970759,h,2.0878,12,0,12,0,1,,,,,,,,,,,,,,,
,,,,,,,,,,,,610eedb873951ea1ebab3912,2021-09-08_20h55.26.500,forced_choiceRT,2021.1.2,Win32,59.91970759,j,2.0451,13,0,13,0,1,,,,,,,,,,,,,,,
,,,,,,,,,,,,610eedb873951ea1ebab3912,2021-09-08_20h55.26.500,forced_choiceRT,2021.1.2,Win32,59.91970759,j,2.0186,14,0,14,0,1,,,,,,,,,,,,,,,
,,,,,,,,,,,,610eedb873951ea1ebab3912,2021-09-08_20h55.26.500,forced_choiceRT,2021.1.2,Win32,59.91970759,f,2.073,15,0,15,0,1,,,,,,,,,,,,,,,
,,,,,,,,,,,,610eedb873951ea1ebab3912,2021-09-08_20h55.26.500,forced_choiceRT,2021.1.2,Win32,59.91970759,g,2.057,16,0,16,0,1,,,,,,,,,,,,,,,
,,,,,,,,,,,,610eedb873951ea1ebab3912,2021-09-08_20h55.26.500,forced_choiceRT,2021.1.2,Win32,59.91970759,f,2.0278,17,0,17,0,1,,,,,,,,,,,,,,,
,,,,,,,,,,,,610eedb873951ea1ebab3912,2021-09-08_20h55.26.500,forced_choiceRT,2021.1.2,Win32,59.91970759,g,2.0849,18,0,18,0,1,,,,,,,,,,,,,,,
,,,,,,,,,,,,610eedb873951ea1ebab3912,2021-09-08_20h55.26.500,forced_choiceRT,2021.1.2,Win32,59.91970759,h,2.1174,19,0,19,0,1,,,,,,,,,,,,,,,
,1.23,,,,,,,,,j.PNG,j,610eedb873951ea1ebab3912,2021-09-08_20h55.26.500,forced_choiceRT,2021.1.2,Win32,59.91970759,,,,,,,,1,Slow,j,1,2.3111,0,0,0,3,1,,,,,
,0.28,,,,,,,,,f.PNG,f,610eedb873951ea1ebab3912,2021-09-08_20h55.26.500,forced_choiceRT,2021.1.2,Win32,59.91970759,,,,,,,,1,Slow,f,1,2.1208,0,1,1,0,1,,,,,
,0.72,,,,,,,,,g.PNG,g,610eedb873951ea1ebab3912,2021-09-08_20h55.26.500,forced_choiceRT,2021.1.2,Win32,59.91970759,,,,,,,,1,Ontime,g,1,1.998,0,2,2,1,1,,,,,
,0.16,,,,,,,,,j.PNG,j,610eedb873951ea1ebab3912,2021-09-08_20h55.26.500,forced_choiceRT,2021.1.2,Win32,59.91970759,,,,,,,,1,Ontime,j,1,2.0648,0,3,3,3,1,,,,,
,0.58,,,,,,,,,g.PNG,g,610eedb873951ea1ebab3912,2021-09-08_20h55.26.500,forced_choiceRT,2021.1.2,Win32,59.91970759,,,,,,,,1,Ontime,g,1,2.059,1,0,4,1,1,,,,,
,0.86,,,,,,,,,f.PNG,f,610eedb873951ea1ebab3912,2021-09-08_20h55.26.500,forced_choiceRT,2021.1.2,Win32,59.91970759,,,,,,,,1,Ontime,f,1,2.0381,1,1,5,0,1,,,,,
,0.16,,,,,,,,,j.PNG,j,610eedb873951ea1ebab3912,2021-09-08_20h55.26.500,forced_choiceRT,2021.1.2,Win32,59.91970759,,,,,,,,1,Ontime,j,1,2.0256,1,2,6,3,1,,,,,
,1.17,,,,,,,,,g.PNG,g,610eedb873951ea1ebab3912,2021-09-08_20h55.26.500,forced_choiceRT,2021.1.2,Win32,59.91970759,,,,,,,,1,Ontime,g,1,2.0177,1,3,7,1,1,,,,,
,0.65,,,,,,,,,h.PNG,h,610eedb873951ea1ebab3912,2021-09-08_20h55.26.500,forced_choiceRT,2021.1.2,Win32,59.91970759,,,,,,,,1,Ontime,h,1,2.0067,2,0,8,2,1,,,,,
,1.62,,,,,,,,,j.PNG,j,610eedb873951ea1ebab3912,2021-09-08_20h55.26.500,forced_choiceRT,2021.1.2,Win32,59.91970759,,,,,,,,1,Slow,j,1,2.1484,2,1,9,3,1,,,,,
,0.92,,,,,,,,,f.PNG,f,610eedb873951ea1ebab3912,2021-09-08_20h55.26.500,forced_choiceRT,2021.1.2,Win32,59.91970759,,,,,,,,1,Ontime,f,1,1.9652,2,2,10,0,1,,,,,
,1.58,,,,,,,,,g.PNG,g,610eedb873951ea1ebab3912,2021-09-08_20h55.26.500,forced_choiceRT,2021.1.2,Win32,59.91970759,,,,,,,,1,Slow,h,0,2.1576,2,3,11,1,1,,,,,
,1.78,,,,,,,,,j.PNG,j,610eedb873951ea1ebab3912,2021-09-08_20h55.26.500,forced_choiceRT,2021.1.2,Win32,59.91970759,,,,,,,,1,Slow,j,1,2.1573,3,0,12,3,1,,,,,
,1.32,,,,,,,,,g.PNG,g,610eedb873951ea1ebab3912,2021-09-08_20h55.26.500,forced_choiceRT,2021.1.2,Win32,59.91970759,,,,,,,,1,Ontime,g,1,2.0334,3,1,13,1,1,,,,,
,1.87,,,,,,,,,j.PNG,j,610eedb873951ea1ebab3912,2021-09-08_20h55.26.500,forced_choiceRT,2021.1.2,Win32,59.91970759,,,,,,,,1,Slow,j,1,2.2596,3,2,14,3,1,,,,,
,0.06,,,,,,,,,h.PNG,h,610eedb873951ea1ebab3912,2021-09-08_20h55.26.500,forced_choiceRT,2021.1.2,Win32,59.91970759,,,,,,,,1,Ontime,h,1,2.0153,3,3,15,2,1,,,,,
,0.95,,,,,,,,,j.PNG,j,610eedb873951ea1ebab3912,2021-09-08_20h55.26.500,forced_choiceRT,2021.1.2,Win32,59.91970759,,,,,,,,1,Ontime,j,1,2.0233,4,0,16,3,1,,,,,
,0.29,,,,,,,,,h.PNG,h,610eedb873951ea1ebab3912,2021-09-08_20h55.26.500,forced_choiceRT,2021.1.2,Win32,59.91970759,,,,,,,,1,Ontime,h,1,2.0032,4,1,17,2,1,,,,,
,1.49,,,,,,,,,j.PNG,j,610eedb873951ea1ebab3912,2021-09-08_20h55.26.500,forced_choiceRT,2021.1.2,Win32,59.91970759,,,,,,,,1,Ontime,j,1,2.036,4,2,18,3,1,,,,,
,1.49,,,,,,,,,h.PNG,h,610eedb873951ea1ebab3912,2021-09-08_20h55.26.500,forced_choiceRT,2021.1.2,Win32,59.91970759,,,,,,,,1,Ontime,h,1,2.0376,4,3,19,2,1,,,,,
,1.71,,,,,,,,,j.PNG,j,610eedb873951ea1ebab3912,2021-09-08_20h55.26.500,forced_choiceRT,2021.1.2,Win32,59.91970759,,,,,,,,1,Slow,j,1,2.1517,5,0,20,3,1,,,,,
,1.25,,,,,,,,,f.PNG,f,610eedb873951ea1ebab3912,2021-09-08_20h55.26.500,forced_choiceRT,2021.1.2,Win32,59.91970759,,,,,,,,1,Ontime,f,1,2.0536,5,1,21,0,1,,,,,
,1.57,,,,,,,,,h.PNG,h,610eedb873951ea1ebab3912,2021-09-08_20h55.26.500,forced_choiceRT,2021.1.2,Win32,59.91970759,,,,,,,,1,Ontime,j,0,2.0542,5,2,22,2,1,,,,,
,0.49,,,,,,,,,f.PNG,f,610eedb873951ea1ebab3912,2021-09-08_20h55.26.500,forced_choiceRT,2021.1.2,Win32,59.91970759,,,,,,,,1,Ontime,f,1,2.0326,5,3,23,0,1,,,,,
,0.41,,,,,,,,,j.PNG,j,610eedb873951ea1ebab3912,2021-09-08_20h55.26.500,forced_choiceRT,2021.1.2,Win32,59.91970759,,,,,,,,1,Ontime,j,1,1.9895,6,0,24,3,1,,,,,
,1.52,,,,,,,,,f.PNG,f,610eedb873951ea1ebab3912,2021-09-08_20h55.26.500,forced_choiceRT,2021.1.2,Win32,59.91970759,,,,,,,,1,Ontime,g,0,1.9816,6,1,25,0,1,,,,,
,1.86,,,,,,,,,h.PNG,h,610eedb873951ea1ebab3912,2021-09-08_20h55.26.500,forced_choiceRT,2021.1.2,Win32,59.91970759,,,,,,,,1,Ontime,j,0,2.0497,6,2,26,2,1,,,,,
,0.69,,,,,,,,,g.PNG,g,610eedb873951ea1ebab3912,2021-09-08_20h55.26.500,forced_choiceRT,2021.1.2,Win32,59.91970759,,,,,,,,1,Ontime,g,1,2.0305,6,3,27,1,1,,,,,
,1.93,,,,,,,,,f.PNG,f,610eedb873951ea1ebab3912,2021-09-08_20h55.26.500,forced_choiceRT,2021.1.2,Win32,59.91970759,,,,,,,,1,Slow,f,1,2.133,7,0,28,0,1,,,,,
,1.21,,,,,,,,,g.PNG,g,610eedb873951ea1ebab3912,2021-09-08_20h55.26.500,forced_choiceRT,2021.1.2,Win32,59.91970759,,,,,,,,1,Ontime,g,1,2.0433,7,1,29,1,1,,,,,
,0.63,,,,,,,,,f.PNG,f,610eedb873951ea1ebab3912,2021-09-08_20h55.26.500,forced_choiceRT,2021.1.2,Win32,59.91970759,,,,,,,,1,Ontime,f,1,2.0936,7,2,30,0,1,,,,,
,1.69,,,,,,,,,h.PNG,h,610eedb873951ea1ebab3912,2021-09-08_20h55.26.500,forced_choiceRT,2021.1.2,Win32,59.91970759,,,,,,,,1,Ontime,j,0,2.0856,7,3,31,2,1,,,,,
,0.33,,,,,,,,,f.PNG,f,610eedb873951ea1ebab3912,2021-09-08_20h55.26.500,forced_choiceRT,2021.1.2,Win32,59.91970759,,,,,,,,1,Ontime,f,1,2.0661,8,0,32,0,1,,,,,
,0.68,,,,,,,,,h.PNG,h,610eedb873951ea1ebab3912,2021-09-08_20h55.26.500,forced_choiceRT,2021.1.2,Win32,59.91970759,,,,,,,,1,Ontime,h,1,2.0182,8,1,33,2,1,,,,,
,0.62,,,,,,,,,g.PNG,g,610eedb873951ea1ebab3912,2021-09-08_20h55.26.500,forced_choiceRT,2021.1.2,Win32,59.91970759,,,,,,,,1,Ontime,g,1,2.0863,8,2,34,1,1,,,,,
,1.45,,,,,,,,,g.PNG,g,610eedb873951ea1ebab3912,2021-09-08_20h55.26.500,forced_choiceRT,2021.1.2,Win32,59.91970759,,,,,,,,1,Ontime,h,0,2.0543,8,3,35,1,1,,,,,
,0.69,,,,,,,,,f.PNG,f,610eedb873951ea1ebab3912,2021-09-08_20h55.26.500,forced_choiceRT,2021.1.2,Win32,59.91970759,,,,,,,,1,Ontime,f,1,2.0814,9,0,36,0,1,,,,,
,1.77,,,,,,,,,h.PNG,h,610eedb873951ea1ebab3912,2021-09-08_20h55.26.500,forced_choiceRT,2021.1.2,Win32,59.91970759,,,,,,,,1,Slow,j,0,2.138,9,1,37,2,1,,,,,
,1.29,,,,,,,,,h.PNG,h,610eedb873951ea1ebab3912,2021-09-08_20h55.26.500,forced_choiceRT,2021.1.2,Win32,59.91970759,,,,,,,,1,Ontime,h,1,2.0039,9,2,38,2,1,,,,,
,0.61,,,,,,,,,g.PNG,g,610eedb873951ea1ebab3912,2021-09-08_20h55.26.500,forced_choiceRT,2021.1.2,Win32,59.91970759,,,,,,,,1,Ontime,g,1,2.0029,9,3,39,1,1,,,,,
,,,,,,,,,,,,610eedb873951ea1ebab3912,2021-09-08_20h55.26.500,forced_choiceRT,2021.1.2,Win32,59.91970759,,,,,,,,,,,,,,,,,,0,0,0,0,1
,0.5,,,,,,,,,j.PNG,j,610eedb873951ea1ebab3912,2021-09-08_20h55.26.500,forced_choiceRT,2021.1.2,Win32,59.91970759,,,,,,,,2,Ontime,j,1,2.0458,0,0,0,3,1,,,,,
,0.23,,,,,,,,,j.PNG,j,610eedb873951ea1ebab3912,2021-09-08_20h55.26.500,forced_choiceRT,2021.1.2,Win32,59.91970759,,,,,,,,2,Ontime,j,1,2.0392,0,1,1,3,1,,,,,
,1.95,,,,,,,,,g.PNG,g,610eedb873951ea1ebab3912,2021-09-08_20h55.26.500,forced_choiceRT,2021.1.2,Win32,59.91970759,,,,,,,,2,Slow,f,0,2.2185,0,2,2,1,1,,,,,
,0.93,,,,,,,,,f.PNG,f,610eedb873951ea1ebab3912,2021-09-08_20h55.26.500,forced_choiceRT,2021.1.2,Win32,59.91970759,,,,,,,,2,Ontime,f,1,2.0668,0,3,3,0,1,,,,,
,1.32,,,,,,,,,h.PNG,h,610eedb873951ea1ebab3912,2021-09-08_20h55.26.500,forced_choiceRT,2021.1.2,Win32,59.91970759,,,,,,,,2,Ontime,h,1,1.9867,1,0,4,2,1,,,,,
,0.97,,,,,,,,,j.PNG,j,610eedb873951ea1ebab3912,2021-09-08_20h55.26.500,forced_choiceRT,2021.1.2,Win32,59.91970759,,,,,,,,2,Ontime,j,1,2.061,1,1,5,3,1,,,,,
,1.52,,,,,,,,,f.PNG,f,610eedb873951ea1ebab3912,2021-09-08_20h55.26.500,forced_choiceRT,2021.1.2,Win32,59.91970759,,,,,,,,2,Ontime,f,1,2.0088,1,2,6,0,1,,,,,
,0.58,,,,,,,,,g.PNG,g,610eedb873951ea1ebab3912,2021-09-08_20h55.26.500,forced_choiceRT,2021.1.2,Win32,59.91970759,,,,,,,,2,Ontime,g,1,1.9867,1,3,7,1,1,,,,,
,1.21,,,,,,,,,g.PNG,g,610eedb873951ea1ebab3912,2021-09-08_20h55.26.500,forced_choiceRT,2021.1.2,Win32,59.91970759,,,,,,,,2,Ontime,g,1,2.0424,2,0,8,1,1,,,,,
,1.61,,,,,,,,,h.PNG,h,610eedb873951ea1ebab3912,2021-09-08_20h55.26.500,forced_choiceRT,2021.1.2,Win32,59.91970759,,,,,,,,2,Ontime,j,0,2.0923,2,1,9,2,1,,,,,
,1.65,,,,,,,,,j.PNG,j,610eedb873951ea1ebab3912,2021-09-08_20h55.26.500,forced_choiceRT,2021.1.2,Win32,59.91970759,,,,,,,,2,Ontime,h,0,2.0655,2,2,10,3,1,,,,,
,0.66,,,,,,,,,h.PNG,h,610eedb873951ea1ebab3912,2021-09-08_20h55.26.500,forced_choiceRT,2021.1.2,Win32,59.91970759,,,,,,,,2,Ontime,h,1,2.0536,2,3,11,2,1,,,,,
,1.5,,,,,,,,,j.PNG,j,610eedb873951ea1ebab3912,2021-09-08_20h55.26.500,forced_choiceRT,2021.1.2,Win32,59.91970759,,,,,,,,2,Ontime,j,1,2.0132,3,0,12,3,1,,,,,
,1.95,,,,,,,,,g.PNG,g,610eedb873951ea1ebab3912,2021-09-08_20h55.26.500,forced_choiceRT,2021.1.2,Win32,59.91970759,,,,,,,,2,Slow,g,1,2.1818,3,1,13,1,1,,,,,
,1.34,,,,,,,,,g.PNG,g,610eedb873951ea1ebab3912,2021-09-08_20h55.26.500,forced_choiceRT,2021.1.2,Win32,59.91970759,,,,,,,,2,Ontime,g,1,1.9817,3,2,14,1,1,,,,,
,0.45,,,,,,,,,h.PNG,h,610eedb873951ea1ebab3912,2021-09-08_20h55.26.500,forced_choiceRT,2021.1.2,Win32,59.91970759,,,,,,,,2,Ontime,h,1,1.9865,3,3,15,2,1,,,,,
,0.99,,,,,,,,,f.PNG,f,610eedb873951ea1ebab3912,2021-09-08_20h55.26.500,forced_choiceRT,2021.1.2,Win32,59.91970759,,,,,,,,2,Ontime,f,1,2.0812,4,0,16,0,1,,,,,
,1.35,,,,,,,,,g.PNG,g,610eedb873951ea1ebab3912,2021-09-08_20h55.26.500,forced_choiceRT,2021.1.2,Win32,59.91970759,,,,,,,,2,Ontime,g,1,1.9985,4,1,17,1,1,,,,,
,1.9,,,,,,,,,f.PNG,f,610eedb873951ea1ebab3912,2021-09-08_20h55.26.500,forced_choiceRT,2021.1.2,Win32,59.91970759,,,,,,,,2,Ontime,h,0,2.0529,4,2,18,0,1,,,,,
,0.48,,,,,,,,,f.PNG,f,610eedb873951ea1ebab3912,2021-09-08_20h55.26.500,forced_choiceRT,2021.1.2,Win32,59.91970759,,,,,,,,2,Ontime,f,1,2.0325,4,3,19,0,1,,,,,
,0.65,,,,,,,,,g.PNG,g,610eedb873951ea1ebab3912,2021-09-08_20h55.26.500,forced_choiceRT,2021.1.2,Win32,59.91970759,,,,,,,,2,Ontime,g,1,2.0359,5,0,20,1,1,,,,,
,1.83,,,,,,,,,j.PNG,j,610eedb873951ea1ebab3912,2021-09-08_20h55.26.500,forced_choiceRT,2021.1.2,Win32,59.91970759,,,,,,,,2,Ontime,j,1,2.0875,5,1,21,3,1,,,,,
,0.89,,,,,,,,,h.PNG,h,610eedb873951ea1ebab3912,2021-09-08_20h55.26.500,forced_choiceRT,2021.1.2,Win32,59.91970759,,,,,,,,2,Ontime,h,1,1.9489,5,2,22,2,1,,,,,
,0.77,,,,,,,,,h.PNG,h,610eedb873951ea1ebab3912,2021-09-08_20h55.26.500,forced_choiceRT,2021.1.2,Win32,59.91970759,,,,,,,,2,Ontime,h,1,2.0418,5,3,23,2,1,,,,,
,1.29,,,,,,,,,g.PNG,g,610eedb873951ea1ebab3912,2021-09-08_20h55.26.500,forced_choiceRT,2021.1.2,Win32,59.91970759,,,,,,,,2,Ontime,g,1,2.0378,6,0,24,1,1,,,,,
,1.98,,,,,,,,,h.PNG,h,610eedb873951ea1ebab3912,2021-09-08_20h55.26.500,forced_choiceRT,2021.1.2,Win32,59.91970759,,,,,,,,2,Slow,f,0,2.1688,6,1,25,2,1,,,,,
,1.66,,,,,,,,,g.PNG,g,610eedb873951ea1ebab3912,2021-09-08_20h55.26.500,forced_choiceRT,2021.1.2,Win32,59.91970759,,,,,,,,2,Ontime,h,0,2.0243,6,2,26,1,1,,,,,
,1.72,,,,,,,,,f.PNG,f,610eedb873951ea1ebab3912,2021-09-08_20h55.26.500,forced_choiceRT,2021.1.2,Win32,59.91970759,,,,,,,,2,Ontime,g,0,2.0434,6,3,27,0,1,,,,,
,0.03,,,,,,,,,f.PNG,f,610eedb873951ea1ebab3912,2021-09-08_20h55.26.500,forced_choiceRT,2021.1.2,Win32,59.91970759,,,,,,,,2,Ontime,f,1,2.0056,7,0,28,0,1,,,,,
,0.48,,,,,,,,,g.PNG,g,610eedb873951ea1ebab3912,2021-09-08_20h55.26.500,forced_choiceRT,2021.1.2,Win32,59.91970759,,,,,,,,2,Ontime,g,1,2.0165,7,1,29,1,1,,,,,
,0.7,,,,,,,,,h.PNG,h,610eedb873951ea1ebab3912,2021-09-08_20h55.26.500,forced_choiceRT,2021.1.2,Win32,59.91970759,,,,,,,,2,Ontime,h,1,2.0397,7,2,30,2,1,,,,,
,1.65,,,,,,,,,f.PNG,f,610eedb873951ea1ebab3912,2021-09-08_20h55.26.500,forced_choiceRT,2021.1.2,Win32,59.91970759,,,,,,,,2,Ontime,j,0,2.0106,7,3,31,0,1,,,,,
,0.15,,,,,,,,,j.PNG,j,610eedb873951ea1ebab3912,2021-09-08_20h55.26.500,forced_choiceRT,2021.1.2,Win32,59.91970759,,,,,,,,2,Ontime,j,1,2.0008,8,0,32,3,1,,,,,
,1.36,,,,,,,,,j.PNG,j,610eedb873951ea1ebab3912,2021-09-08_20h55.26.500,forced_choiceRT,2021.1.2,Win32,59.91970759,,,,,,,,2,Ontime,j,1,2.012,8,1,33,3,1,,,,,
,0.64,,,,,,,,,f.PNG,f,610eedb873951ea1ebab3912,2021-09-08_20h55.26.500,forced_choiceRT,2021.1.2,Win32,59.91970759,,,,,,,,2,Ontime,f,1,2.0586,8,2,34,0,1,,,,,
,1.14,,,,,,,,,j.PNG,j,610eedb873951ea1ebab3912,2021-09-08_20h55.26.500,forced_choiceRT,2021.1.2,Win32,59.91970759,,,,,,,,2,Ontime,j,1,2.038,8,3,35,3,1,,,,,
,0.7,,,,,,,,,h.PNG,h,610eedb873951ea1ebab3912,2021-09-08_20h55.26.500,forced_choiceRT,2021.1.2,Win32,59.91970759,,,,,,,,2,Ontime,h,1,2,9,0,36,2,1,,,,,
,1.66,,,,,,,,,f.PNG,f,610eedb873951ea1ebab3912,2021-09-08_20h55.26.500,forced_choiceRT,2021.1.2,Win32,59.91970759,,,,,,,,2,Ontime,g,0,2.0489,9,1,37,0,1,,,,,
,0.88,,,,,,,,,h.PNG,h,610eedb873951ea1ebab3912,2021-09-08_20h55.26.500,forced_choiceRT,2021.1.2,Win32,59.91970759,,,,,,,,2,Ontime,h,1,1.9985,9,2,38,2,1,,,,,
,0.45,,,,,,,,,j.PNG,j,610eedb873951ea1ebab3912,2021-09-08_20h55.26.500,forced_choiceRT,2021.1.2,Win32,59.91970759,,,,,,,,2,Ontime,j,1,2.0084,9,3,39,3,1,,,,,
,,,,,,,,,,,,610eedb873951ea1ebab3912,2021-09-08_20h55.26.500,forced_choiceRT,2021.1.2,Win32,59.91970759,,,,,,,,,,,,,,,,,,1,0,1,0,1
,0.78,,,,,,,,,h.PNG,h,610eedb873951ea1ebab3912,2021-09-08_20h55.26.500,forced_choiceRT,2021.1.2,Win32,59.91970759,,,,,,,,3,Ontime,h,1,1.9606,0,0,0,2,1,,,,,
,1.81,,,,,,,,,g.PNG,g,610eedb873951ea1ebab3912,2021-09-08_20h55.26.500,forced_choiceRT,2021.1.2,Win32,59.91970759,,,,,,,,3,Slow,j,0,2.1057,0,1,1,1,1,,,,,
,1.5,,,,,,,,,j.PNG,j,610eedb873951ea1ebab3912,2021-09-08_20h55.26.500,forced_choiceRT,2021.1.2,Win32,59.91970759,,,,,,,,3,Ontime,j,1,2.0408,0,2,2,3,1,,,,,
,1.62,,,,,,,,,h.PNG,h,610eedb873951ea1ebab3912,2021-09-08_20h55.26.500,forced_choiceRT,2021.1.2,Win32,59.91970759,,,,,,,,3,Ontime,h,1,2.09,0,3,3,2,1,,,,,
,1.05,,,,,,,,,j.PNG,j,610eedb873951ea1ebab3912,2021-09-08_20h55.26.500,forced_choiceRT,2021.1.2,Win32,59.91970759,,,,,,,,3,Ontime,j,1,2.0479,1,0,4,3,1,,,,,
,0.39,,,,,,,,,j.PNG,j,610eedb873951ea1ebab3912,2021-09-08_20h55.26.500,forced_choiceRT,2021.1.2,Win32,59.91970759,,,,,,,,3,Ontime,j,1,1.9724,1,1,5,3,1,,,,,
,1.85,,,,,,,,,g.PNG,g,610eedb873951ea1ebab3912,2021-09-08_20h55.26.500,forced_choiceRT,2021.1.2,Win32,59.91970759,,,,,,,,3,Ontime,g,1,2.056,1,2,6,1,1,,,,,
,0.12,,,,,,,,,h.PNG,h,610eedb873951ea1ebab3912,2021-09-08_20h55.26.500,forced_choiceRT,2021.1.2,Win32,59.91970759,,,,,,,,3,Ontime,h,1,2.0514,1,3,7,2,1,,,,,
,0.18,,,,,,,,,f.PNG,f,610eedb873951ea1ebab3912,2021-09-08_20h55.26.500,forced_choiceRT,2021.1.2,Win32,59.91970759,,,,,,,,3,Ontime,f,1,2.0241,2,0,8,0,1,,,,,
,0.96,,,,,,,,,h.PNG,h,610eedb873951ea1ebab3912,2021-09-08_20h55.26.500,forced_choiceRT,2021.1.2,Win32,59.91970759,,,,,,,,3,Ontime,h,1,2.0208,2,1,9,2,1,,,,,
,1.32,,,,,,,,,g.PNG,g,610eedb873951ea1ebab3912,2021-09-08_20h55.26.500,forced_choiceRT,2021.1.2,Win32,59.91970759,,,,,,,,3,Ontime,g,1,2.0244,2,2,10,1,1,,,,,
,1.39,,,,,,,,,h.PNG,h,610eedb873951ea1ebab3912,2021-09-08_20h55.26.500,forced_choiceRT,2021.1.2,Win32,59.91970759,,,,,,,,3,Ontime,h,1,1.9965,2,3,11,2,1,,,,,
,1.14,,,,,,,,,f.PNG,f,610eedb873951ea1ebab3912,2021-09-08_20h55.26.500,forced_choiceRT,2021.1.2,Win32,59.91970759,,,,,,,,3,Ontime,f,1,2.0218,3,0,12,0,1,,,,,
,0.06,,,,,,,,,g.PNG,g,610eedb873951ea1ebab3912,2021-09-08_20h55.26.500,forced_choiceRT,2021.1.2,Win32,59.91970759,,,,,,,,3,Ontime,g,1,2.0264,3,1,13,1,1,,,,,
,0.1,,,,,,,,,f.PNG,f,610eedb873951ea1ebab3912,2021-09-08_20h55.26.500,forced_choiceRT,2021.1.2,Win32,59.91970759,,,,,,,,3,Ontime,f,1,2.0103,3,2,14,0,1,,,,,
,1.62,,,,,,,,,j.PNG,j,610eedb873951ea1ebab3912,2021-09-08_20h55.26.500,forced_choiceRT,2021.1.2,Win32,59.91970759,,,,,,,,3,Ontime,h,0,2.0816,3,3,15,3,1,,,,,
,1.43,,,,,,,,,f.PNG,f,610eedb873951ea1ebab3912,2021-09-08_20h55.26.500,forced_choiceRT,2021.1.2,Win32,59.91970759,,,,,,,,3,Ontime,g,0,1.9853,4,0,16,0,1,,,,,
,0.56,,,,,,,,,j.PNG,j,610eedb873951ea1ebab3912,2021-09-08_20h55.26.500,forced_choiceRT,2021.1.2,Win32,59.91970759,,,,,,,,3,Ontime,j,1,2.0408,4,1,17,3,1,,,,,
,1.73,,,,,,,,,h.PNG,h,610eedb873951ea1ebab3912,2021-09-08_20h55.26.500,forced_choiceRT,2021.1.2,Win32,59.91970759,,,,,,,,3,Slow,h,1,2.1053,4,2,18,2,1,,,,,
,1.74,,,,,,,,,f.PNG,f,610eedb873951ea1ebab3912,2021-09-08_20h55.26.500,forced_choiceRT,2021.1.2,Win32,59.91970759,,,,,,,,3,Ontime,j,0,1.9759,4,3,19,0,1,,,,,
,0.17,,,,,,,,,j.PNG,j,610eedb873951ea1ebab3912,2021-09-08_20h55.26.500,forced_choiceRT,2021.1.2,Win32,59.91970759,,,,,,,,3,Ontime,j,1,2.0045,5,0,20,3,1,,,,,
,0.31,,,,,,,,,f.PNG,f,610eedb873951ea1ebab3912,2021-09-08_20h55.26.500,forced_choiceRT,2021.1.2,Win32,59.91970759,,,,,,,,3,Ontime,f,1,2.0174,5,1,21,0,1,,,,,
,0.65,,,,,,,,,f.PNG,f,610eedb873951ea1ebab3912,2021-09-08_20h55.26.500,forced_choiceRT,2021.1.2,Win32,59.91970759,,,,,,,,3,Ontime,f,1,2.042,5,2,22,0,1,,,,,
,1.83,,,,,,,,,g.PNG,g,610eedb873951ea1ebab3912,2021-09-08_20h55.26.500,forced_choiceRT,2021.1.2,Win32,59.91970759,,,,,,,,3,Ontime,h,0,2.0202,5,3,23,1,1,,,,,
,1.02,,,,,,,,,h.PNG,h,610eedb873951ea1ebab3912,2021-09-08_20h55.26.500,forced_choiceRT,2021.1.2,Win32,59.91970759,,,,,,,,3,Ontime,h,1,1.9933,6,0,24,2,1,,,,,
,1.54,,,,,,,,,g.PNG,g,610eedb873951ea1ebab3912,2021-09-08_20h55.26.500,forced_choiceRT,2021.1.2,Win32,59.91970759,,,,,,,,3,Ontime,h,0,2.0249,6,1,25,1,1,,,,,
,0.47,,,,,,,,,f.PNG,f,610eedb873951ea1ebab3912,2021-09-08_20h55.26.500,forced_choiceRT,2021.1.2,Win32,59.91970759,,,,,,,,3,Ontime,f,1,2.0312,6,2,26,0,1,,,,,
,1.27,,,,,,,,,g.PNG,g,610eedb873951ea1ebab3912,2021-09-08_20h55.26.500,forced_choiceRT,2021.1.2,Win32,59.91970759,,,,,,,,3,Ontime,g,1,2.03,6,3,27,1,1,,,,,
,1.54,,,,,,,,,j.PNG,j,610eedb873951ea1ebab3912,2021-09-08_20h55.26.500,forced_choiceRT,2021.1.2,Win32,59.91970759,,,,,,,,3,Ontime,h,0,2.0589,7,0,28,3,1,,,,,
,1.89,,,,,,,,,g.PNG,g,610eedb873951ea1ebab3912,2021-09-08_20h55.26.500,forced_choiceRT,2021.1.2,Win32,59.91970759,,,,,,,,3,Ontime,h,0,2.0988,7,1,29,1,1,,,,,
,0.08,,,,,,,,,h.PNG,h,610eedb873951ea1ebab3912,2021-09-08_20h55.26.500,forced_choiceRT,2021.1.2,Win32,59.91970759,,,,,,,,3,Ontime,h,1,2.0151,7,2,30,2,1,,,,,
,0.53,,,,,,,,,j.PNG,j,610eedb873951ea1ebab3912,2021-09-08_20h55.26.500,forced_choiceRT,2021.1.2,Win32,59.91970759,,,,,,,,3,Ontime,j,1,1.998,7,3,31,3,1,,,,,
,0.62,,,,,,,,,f.PNG,f,610eedb873951ea1ebab3912,2021-09-08_20h55.26.500,forced_choiceRT,2021.1.2,Win32,59.91970759,,,,,,,,3,Ontime,f,1,2.0609,8,0,32,0,1,,,,,
,0.6,,,,,,,,,j.PNG,j,610eedb873951ea1ebab3912,2021-09-08_20h55.26.500,forced_choiceRT,2021.1.2,Win32,59.91970759,,,,,,,,3,Ontime,j,1,2.0317,8,1,33,3,1,,,,,
,0.76,,,,,,,,,h.PNG,h,610eedb873951ea1ebab3912,2021-09-08_20h55.26.500,forced_choiceRT,2021.1.2,Win32,59.91970759,,,,,,,,3,Ontime,h,1,1.991,8,2,34,2,1,,,,,
,1.27,,,,,,,,,g.PNG,g,610eedb873951ea1ebab3912,2021-09-08_20h55.26.500,forced_choiceRT,2021.1.2,Win32,59.91970759,,,,,,,,3,Ontime,g,1,1.9646,8,3,35,1,1,,,,,
,1.6,,,,,,,,,h.PNG,h,610eedb873951ea1ebab3912,2021-09-08_20h55.26.500,forced_choiceRT,2021.1.2,Win32,59.91970759,,,,,,,,3,Ontime,h,1,2.0383,9,0,36,2,1,,,,,
,1.57,,,,,,,,,f.PNG,f,610eedb873951ea1ebab3912,2021-09-08_20h55.26.500,forced_choiceRT,2021.1.2,Win32,59.91970759,,,,,,,,3,Ontime,f,1,2.0717,9,1,37,0,1,,,,,
,1.76,,,,,,,,,g.PNG,g,610eedb873951ea1ebab3912,2021-09-08_20h55.26.500,forced_choiceRT,2021.1.2,Win32,59.91970759,,,,,,,,3,Ontime,j,0,2.0198,9,2,38,1,1,,,,,
,1.67,,,,,,,,,j.PNG,j,610eedb873951ea1ebab3912,2021-09-08_20h55.26.500,forced_choiceRT,2021.1.2,Win32,59.91970759,,,,,,,,3,Ontime,g,0,1.9998,9,3,39,3,1,,,,,
,,,,,,,,,,,,610eedb873951ea1ebab3912,2021-09-08_20h55.26.500,forced_choiceRT,2021.1.2,Win32,59.91970759,,,,,,,,,,,,,,,,,,2,0,2,0,1
,0.56,,,,,,,,,h.PNG,h,610eedb873951ea1ebab3912,2021-09-08_20h55.26.500,forced_choiceRT,2021.1.2,Win32,59.91970759,,,,,,,,4,Ontime,h,1,1.9899,0,0,0,2,1,,,,,
,0.23,,,,,,,,,h.PNG,h,610eedb873951ea1ebab3912,2021-09-08_20h55.26.500,forced_choiceRT,2021.1.2,Win32,59.91970759,,,,,,,,4,Ontime,h,1,1.9657,0,1,1,2,1,,,,,
,0.27,,,,,,,,,j.PNG,j,610eedb873951ea1ebab3912,2021-09-08_20h55.26.500,forced_choiceRT,2021.1.2,Win32,59.91970759,,,,,,,,4,Ontime,j,1,1.972,0,2,2,3,1,,,,,
,1.62,,,,,,,,,f.PNG,f,610eedb873951ea1ebab3912,2021-09-08_20h55.26.500,forced_choiceRT,2021.1.2,Win32,59.91970759,,,,,,,,4,Ontime,g,0,2.0313,0,3,3,0,1,,,,,
,0.26,,,,,,,,,g.PNG,g,610eedb873951ea1ebab3912,2021-09-08_20h55.26.500,forced_choiceRT,2021.1.2,Win32,59.91970759,,,,,,,,4,Ontime,g,1,1.9815,1,0,4,1,1,,,,,
,1.31,,,,,,,,,f.PNG,f,610eedb873951ea1ebab3912,2021-09-08_20h55.26.500,forced_choiceRT,2021.1.2,Win32,59.91970759,,,,,,,,4,Ontime,f,1,2.0372,1,1,5,0,1,,,,,
,1.18,,,,,,,,,f.PNG,f,610eedb873951ea1ebab3912,2021-09-08_20h55.26.500,forced_choiceRT,2021.1.2,Win32,59.91970759,,,,,,,,4,Ontime,f,1,2.0151,1,2,6,0,1,,,,,
,0.67,,,,,,,,,j.PNG,j,610eedb873951ea1ebab3912,2021-09-08_20h55.26.500,forced_choiceRT,2021.1.2,Win32,59.91970759,,,,,,,,4,Ontime,j,1,2.0506,1,3,7,3,1,,,,,
,1.67,,,,,,,,,g.PNG,g,610eedb873951ea1ebab3912,2021-09-08_20h55.26.500,forced_choiceRT,2021.1.2,Win32,59.91970759,,,,,,,,4,Slow,f,0,2.1227,2,0,8,1,1,,,,,
,1.48,,,,,,,,,j.PNG,j,610eedb873951ea1ebab3912,2021-09-08_20h55.26.500,forced_choiceRT,2021.1.2,Win32,59.91970759,,,,,,,,4,Ontime,h,0,2.0527,2,1,9,3,1,,,,,
,1.64,,,,,,,,,f.PNG,f,610eedb873951ea1ebab3912,2021-09-08_20h55.26.500,forced_choiceRT,2021.1.2,Win32,59.91970759,,,,,,,,4,Ontime,h,0,2.0565,2,2,10,0,1,,,,,
,0.67,,,,,,,,,h.PNG,h,610eedb873951ea1ebab3912,2021-09-08_20h55.26.500,forced_choiceRT,2021.1.2,Win32,59.91970759,,,,,,,,4,Ontime,h,1,1.9997,2,3,11,2,1,,,,,
,1.38,,,,,,,,,f.PNG,f,610eedb873951ea1ebab3912,2021-09-08_20h55.26.500,forced_choiceRT,2021.1.2,Win32,59.91970759,,,,,,,,4,Ontime,f,1,1.9982,3,0,12,0,1,,,,,
,1.48,,,,,,,,,g.PNG,g,610eedb873951ea1ebab3912,2021-09-08_20h55.26.500,forced_choiceRT,2021.1.2,Win32,59.91970759,,,,,,,,4,Ontime,g,1,2.0185,3,1,13,1,1,,,,,
,0.95,,,,,,,,,h.PNG,h,610eedb873951ea1ebab3912,2021-09-08_20h55.26.500,forced_choiceRT,2021.1.2,Win32,59.91970759,,,,,,,,4,Ontime,h,1,1.9688,3,2,14,2,1,,,,,
,0.29,,,,,,,,,j.PNG,j,610eedb873951ea1ebab3912,2021-09-08_20h55.26.500,forced_choiceRT,2021.1.2,Win32,59.91970759,,,,,,,,4,Ontime,j,1,1.9985,3,3,15,3,1,,,,,
,1.19,,,,,,,,,f.PNG,f,610eedb873951ea1ebab3912,2021-09-08_20h55.26.500,forced_choiceRT,2021.1.2,Win32,59.91970759,,,,,,,,4,Ontime,f,1,2.0834,4,0,16,0,1,,,,,
,1.84,,,,,,,,,j.PNG,j,610eedb873951ea1ebab3912,2021-09-08_20h55.26.500,forced_choiceRT,2021.1.2,Win32,59.91970759,,,,,,,,4,Ontime,j,1,2.0604,4,1,17,3,1,,,,,
,0.71,,,,,,,,,f.PNG,f,610eedb873951ea1ebab3912,2021-09-08_20h55.26.500,forced_choiceRT,2021.1.2,Win32,59.91970759,,,,,,,,4,Ontime,f,1,1.9531,4,2,18,0,1,,,,,
,1.13,,,,,,,,,j.PNG,j,610eedb873951ea1ebab3912,2021-09-08_20h55.26.500,forced_choiceRT,2021.1.2,Win32,59.91970759,,,,,,,,4,Ontime,j,1,2.0155,4,3,19,3,1,,,,,
,0.45,,,,,,,,,j.PNG,j,610eedb873951ea1ebab3912,2021-09-08_20h55.26.500,forced_choiceRT,2021.1.2,Win32,59.91970759,,,,,,,,4,Ontime,j,1,1.9928,5,0,20,3,1,,,,,
,0.27,,,,,,,,,f.PNG,f,610eedb873951ea1ebab3912,2021-09-08_20h55.26.500,forced_choiceRT,2021.1.2,Win32,59.91970759,,,,,,,,4,Ontime,f,1,2.0077,5,1,21,0,1,,,,,
,0.24,,,,,,,,,g.PNG,g,610eedb873951ea1ebab3912,2021-09-08_20h55.26.500,forced_choiceRT,2021.1.2,Win32,59.91970759,,,,,,,,4,Ontime,g,1,1.9822,5,2,22,1,1,,,,,
,1.92,,,,,,,,,g.PNG,g,610eedb873951ea1ebab3912,2021-09-08_20h55.26.500,forced_choiceRT,2021.1.2,Win32,59.91970759,,,,,,,,4,Ontime,j,0,2.0486,5,3,23,1,1,,,,,
,1.76,,,,,,,,,g.PNG,g,610eedb873951ea1ebab3912,2021-09-08_20h55.26.500,forced_choiceRT,2021.1.2,Win32,59.91970759,,,,,,,,4,Ontime,h,0,2.0045,6,0,24,1,1,,,,,
,1.2,,,,,,,,,h.PNG,h,610eedb873951ea1ebab3912,2021-09-08_20h55.26.500,forced_choiceRT,2021.1.2,Win32,59.91970759,,,,,,,,4,Ontime,h,1,2.0439,6,1,25,2,1,,,,,
,1.2,,,,,,,,,j.PNG,j,610eedb873951ea1ebab3912,2021-09-08_20h55.26.500,forced_choiceRT,2021.1.2,Win32,59.91970759,,,,,,,,4,Ontime,j,1,2.0673,6,2,26,3,1,,,,,
,1.91,,,,,,,,,j.PNG,j,610eedb873951ea1ebab3912,2021-09-08_20h55.26.500,forced_choiceRT,2021.1.2,Win32,59.91970759,,,,,,,,4,Ontime,j,1,2.0315,6,3,27,3,1,,,,,
,1.57,,,,,,,,,h.PNG,h,610eedb873951ea1ebab3912,2021-09-08_20h55.26.500,forced_choiceRT,2021.1.2,Win32,59.91970759,,,,,,,,4,Ontime,g,0,2.0284,7,0,28,2,1,,,,,
,0.41,,,,,,,,,g.PNG,g,610eedb873951ea1ebab3912,2021-09-08_20h55.26.500,forced_choiceRT,2021.1.2,Win32,59.91970759,,,,,,,,4,Ontime,g,1,1.9319,7,1,29,1,1,,,,,
,1.55,,,,,,,,,h.PNG,h,610eedb873951ea1ebab3912,2021-09-08_20h55.26.500,forced_choiceRT,2021.1.2,Win32,59.91970759,,,,,,,,4,Ontime,j,0,2.0173,7,2,30,2,1,,,,,
,0.81,,,,,,,,,h.PNG,h,610eedb873951ea1ebab3912,2021-09-08_20h55.26.500,forced_choiceRT,2021.1.2,Win32,59.91970759,,,,,,,,4,Ontime,h,1,1.9436,7,3,31,2,1,,,,,
,0,,,,,,,,,g.PNG,g,610eedb873951ea1ebab3912,2021-09-08_20h55.26.500,forced_choiceRT,2021.1.2,Win32,59.91970759,,,,,,,,4,Ontime,g,1,1.9371,8,0,32,1,1,,,,,
,0.69,,,,,,,,,f.PNG,f,610eedb873951ea1ebab3912,2021-09-08_20h55.26.500,forced_choiceRT,2021.1.2,Win32,59.91970759,,,,,,,,4,Ontime,f,1,1.9589,8,1,33,0,1,,,,,
,0.22,,,,,,,,,g.PNG,g,610eedb873951ea1ebab3912,2021-09-08_20h55.26.500,forced_choiceRT,2021.1.2,Win32,59.91970759,,,,,,,,4,Ontime,g,1,1.9677,8,2,34,1,1,,,,,
,1.34,,,,,,,,,h.PNG,h,610eedb873951ea1ebab3912,2021-09-08_20h55.26.500,forced_choiceRT,2021.1.2,Win32,59.91970759,,,,,,,,4,Ontime,h,1,2.0752,8,3,35,2,1,,,,,
,0.03,,,,,,,,,f.PNG,f,610eedb873951ea1ebab3912,2021-09-08_20h55.26.500,forced_choiceRT,2021.1.2,Win32,59.91970759,,,,,,,,4,Ontime,f,1,2.032,9,0,36,0,1,,,,,
,1.45,,,,,,,,,j.PNG,j,610eedb873951ea1ebab3912,2021-09-08_20h55.26.500,forced_choiceRT,2021.1.2,Win32,59.91970759,,,,,,,,4,Ontime,j,1,1.9831,9,1,37,3,1,,,,,
,1.3,,,,,,,,,h.PNG,h,610eedb873951ea1ebab3912,2021-09-08_20h55.26.500,forced_choiceRT,2021.1.2,Win32,59.91970759,,,,,,,,4,Ontime,h,1,1.9986,9,2,38,2,1,,,,,
,0.37,,,,,,,,,g.PNG,g,610eedb873951ea1ebab3912,2021-09-08_20h55.26.500,forced_choiceRT,2021.1.2,Win32,59.91970759,,,,,,,,4,Ontime,g,1,1.9701,9,3,39,1,1,,,,,
,,,,,,,,,,,,610eedb873951ea1ebab3912,2021-09-08_20h55.26.500,forced_choiceRT,2021.1.2,Win32,59.91970759,,,,,,,,,,,,,,,,,,3,0,3,0,1
,1.08,,,,,,,,,j.PNG,j,610eedb873951ea1ebab3912,2021-09-08_20h55.26.500,forced_choiceRT,2021.1.2,Win32,59.91970759,,,,,,,,5,Ontime,j,1,2.0188,0,0,0,3,1,,,,,
,1.03,,,,,,,,,g.PNG,g,610eedb873951ea1ebab3912,2021-09-08_20h55.26.500,forced_choiceRT,2021.1.2,Win32,59.91970759,,,,,,,,5,Ontime,g,1,1.9482,0,1,1,1,1,,,,,
,1.77,,,,,,,,,f.PNG,f,610eedb873951ea1ebab3912,2021-09-08_20h55.26.500,forced_choiceRT,2021.1.2,Win32,59.91970759,,,,,,,,5,Ontime,j,0,2.0837,0,2,2,0,1,,,,,
,1.24,,,,,,,,,j.PNG,j,610eedb873951ea1ebab3912,2021-09-08_20h55.26.500,forced_choiceRT,2021.1.2,Win32,59.91970759,,,,,,,,5,Ontime,j,1,1.9681,0,3,3,3,1,,,,,
,0.93,,,,,,,,,f.PNG,f,610eedb873951ea1ebab3912,2021-09-08_20h55.26.500,forced_choiceRT,2021.1.2,Win32,59.91970759,,,,,,,,5,Ontime,f,1,1.9747,1,0,4,0,1,,,,,
,0.76,,,,,,,,,g.PNG,g,610eedb873951ea1ebab3912,2021-09-08_20h55.26.500,forced_choiceRT,2021.1.2,Win32,59.91970759,,,,,,,,5,Ontime,g,1,1.9876,1,1,5,1,1,,,,,
,1.81,,,,,,,,,h.PNG,h,610eedb873951ea1ebab3912,2021-09-08_20h55.26.500,forced_choiceRT,2021.1.2,Win32,59.91970759,,,,,,,,5,Ontime,j,0,2.0992,1,2,6,2,1,,,,,
,1.91,,,,,,,,,g.PNG,g,610eedb873951ea1ebab3912,2021-09-08_20h55.26.500,forced_choiceRT,2021.1.2,Win32,59.91970759,,,,,,,,5,Slow,j,0,2.1373,1,3,7,1,1,,,,,
,0.15,,,,,,,,,h.PNG,h,610eedb873951ea1ebab3912,2021-09-08_20h55.26.500,forced_choiceRT,2021.1.2,Win32,59.91970759,,,,,,,,5,Ontime,h,1,2.0444,2,0,8,2,1,,,,,
,0.97,,,,,,,,,j.PNG,j,610eedb873951ea1ebab3912,2021-09-08_20h55.26.500,forced_choiceRT,2021.1.2,Win32,59.91970759,,,,,,,,5,Ontime,j,1,1.9769,2,1,9,3,1,,,,,
,0.76,,,,,,,,,f.PNG,f,610eedb873951ea1ebab3912,2021-09-08_20h55.26.500,forced_choiceRT,2021.1.2,Win32,59.91970759,,,,,,,,5,Ontime,f,1,1.959,2,2,10,0,1,,,,,
,0.24,,,,,,,,,g.PNG,g,610eedb873951ea1ebab3912,2021-09-08_20h55.26.500,forced_choiceRT,2021.1.2,Win32,59.91970759,,,,,,,,5,Ontime,g,1,1.9744,2,3,11,1,1,,,,,
,0.47,,,,,,,,,j.PNG,j,610eedb873951ea1ebab3912,2021-09-08_20h55.26.500,forced_choiceRT,2021.1.2,Win32,59.91970759,,,,,,,,5,Ontime,j,1,1.9339,3,0,12,3,1,,,,,
,1.35,,,,,,,,,g.PNG,g,610eedb873951ea1ebab3912,2021-09-08_20h55.26.500,forced_choiceRT,2021.1.2,Win32,59.91970759,,,,,,,,5,Ontime,g,1,2.0524,3,1,13,1,1,,,,,
,0.82,,,,,,,,,h.PNG,h,610eedb873951ea1ebab3912,2021-09-08_20h55.26.500,forced_choiceRT,2021.1.2,Win32,59.91970759,,,,,,,,5,Ontime,h,1,1.9557,3,2,14,2,1,,,,,
,1.61,,,,,,,,,h.PNG,h,610eedb873951ea1ebab3912,2021-09-08_20h55.26.500,forced_choiceRT,2021.1.2,Win32,59.91970759,,,,,,,,5,Slow,h,1,2.1229,3,3,15,2,1,,,,,
,1.16,,,,,,,,,f.PNG,f,610eedb873951ea1ebab3912,2021-09-08_20h55.26.500,forced_choiceRT,2021.1.2,Win32,59.91970759,,,,,,,,5,Ontime,f,1,1.9846,4,0,16,0,1,,,,,
,0.54,,,,,,,,,f.PNG,f,610eedb873951ea1ebab3912,2021-09-08_20h55.26.500,forced_choiceRT,2021.1.2,Win32,59.91970759,,,,,,,,5,Ontime,f,1,1.9844,4,1,17,0,1,,,,,
,1.56,,,,,,,,,f.PNG,f,610eedb873951ea1ebab3912,2021-09-08_20h55.26.500,forced_choiceRT,2021.1.2,Win32,59.91970759,,,,,,,,5,Ontime,g,0,2.0874,4,2,18,0,1,,,,,
,0.41,,,,,,,,,g.PNG,g,610eedb873951ea1ebab3912,2021-09-08_20h55.26.500,forced_choiceRT,2021.1.2,Win32,59.91970759,,,,,,,,5,Ontime,g,1,2.0359,4,3,19,1,1,,,,,
,0.83,,,,,,,,,g.PNG,g,610eedb873951ea1ebab3912,2021-09-08_20h55.26.500,forced_choiceRT,2021.1.2,Win32,59.91970759,,,,,,,,5,Ontime,g,1,2.0167,5,0,20,1,1,,,,,
,0.98,,,,,,,,,j.PNG,j,610eedb873951ea1ebab3912,2021-09-08_20h55.26.500,forced_choiceRT,2021.1.2,Win32,59.91970759,,,,,,,,5,Ontime,j,1,1.9761,5,1,21,3,1,,,,,
,0.99,,,,,,,,,h.PNG,h,610eedb873951ea1ebab3912,2021-09-08_20h55.26.500,forced_choiceRT,2021.1.2,Win32,59.91970759,,,,,,,,5,Ontime,h,1,2.0679,5,2,22,2,1,,,,,
,1.7,,,,,,,,,f.PNG,f,610eedb873951ea1ebab3912,2021-09-08_20h55.26.500,forced_choiceRT,2021.1.2,Win32,59.91970759,,,,,,,,5,Slow,g,0,2.1614,5,3,23,0,1,,,,,
,1.68,,,,,,,,,g.PNG,g,610eedb873951ea1ebab3912,2021-09-08_20h55.26.500,forced_choiceRT,2021.1.2,Win32,59.91970759,,,,,,,,5,Ontime,g,1,2.0207,6,0,24,1,1,,,,,
,0.91,,,,,,,,,j.PNG,j,610eedb873951ea1ebab3912,2021-09-08_20h55.26.500,forced_choiceRT,2021.1.2,Win32,59.91970759,,,,,,,,5,Ontime,j,1,2.0268,6,1,25,3,1,,,,,
,0.48,,,,,,,,,j.PNG,j,610eedb873951ea1ebab3912,2021-09-08_20h55.26.500,forced_choiceRT,2021.1.2,Win32,59.91970759,,,,,,,,5,Ontime,j,1,1.9598,6,2,26,3,1,,,,,
,1.58,,,,,,,,,g.PNG,g,610eedb873951ea1ebab3912,2021-09-08_20h55.26.500,forced_choiceRT,2021.1.2,Win32,59.91970759,,,,,,,,5,Slow,g,1,2.1442,6,3,27,1,1,,,,,
,1.61,,,,,,,,,h.PNG,h,610eedb873951ea1ebab3912,2021-09-08_20h55.26.500,forced_choiceRT,2021.1.2,Win32,59.91970759,,,,,,,,5,Slow,g,0,2.1158,7,0,28,2,1,,,,,
,1.51,,,,,,,,,j.PNG,j,610eedb873951ea1ebab3912,2021-09-08_20h55.26.500,forced_choiceRT,2021.1.2,Win32,59.91970759,,,,,,,,5,Ontime,j,1,1.9897,7,1,29,3,1,,,,,
,0.73,,,,,,,,,f.PNG,f,610eedb873951ea1ebab3912,2021-09-08_20h55.26.500,forced_choiceRT,2021.1.2,Win32,59.91970759,,,,,,,,5,Ontime,f,1,1.9516,7,2,30,0,1,,,,,
,0.68,,,,,,,,,h.PNG,h,610eedb873951ea1ebab3912,2021-09-08_20h55.26.500,forced_choiceRT,2021.1.2,Win32,59.91970759,,,,,,,,5,Ontime,h,1,1.9692,7,3,31,2,1,,,,,
,0.68,,,,,,,,,f.PNG,f,610eedb873951ea1ebab3912,2021-09-08_20h55.26.500,forced_choiceRT,2021.1.2,Win32,59.91970759,,,,,,,,5,Ontime,f,1,1.9717,8,0,32,0,1,,,,,
,0.44,,,,,,,,,h.PNG,h,610eedb873951ea1ebab3912,2021-09-08_20h55.26.500,forced_choiceRT,2021.1.2,Win32,59.91970759,,,,,,,,5,Ontime,h,1,1.986,8,1,33,2,1,,,,,
,1.04,,,,,,,,,j.PNG,j,610eedb873951ea1ebab3912,2021-09-08_20h55.26.500,forced_choiceRT,2021.1.2,Win32,59.91970759,,,,,,,,5,Ontime,j,1,2.0216,8,2,34,3,1,,,,,
,0.29,,,,,,,,,g.PNG,g,610eedb873951ea1ebab3912,2021-09-08_20h55.26.500,forced_choiceRT,2021.1.2,Win32,59.91970759,,,,,,,,5,Ontime,g,1,2.0203,8,3,35,1,1,,,,,
,1,,,,,,,,,j.PNG,j,610eedb873951ea1ebab3912,2021-09-08_20h55.26.500,forced_choiceRT,2021.1.2,Win32,59.91970759,,,,,,,,5,Ontime,j,1,1.921,9,0,36,3,1,,,,,
,0.5,,,,,,,,,h.PNG,h,610eedb873951ea1ebab3912,2021-09-08_20h55.26.500,forced_choiceRT,2021.1.2,Win32,59.91970759,,,,,,,,5,Slow,j,0,12.6342,9,1,37,2,1,,,,,
,0.84,,,,,,,,,h.PNG,h,610eedb873951ea1ebab3912,2021-09-08_20h55.26.500,forced_choiceRT,2021.1.2,Win32,59.91970759,,,,,,,,5,Slow,h,1,2.1571,9,2,38,2,1,,,,,
,0.06,,,,,,,,,f.PNG,f,610eedb873951ea1ebab3912,2021-09-08_20h55.26.500,forced_choiceRT,2021.1.2,Win32,59.91970759,,,,,,,,5,Ontime,f,1,2.0533,9,3,39,0,1,,,,,
,,,,,,,,,,,,610eedb873951ea1ebab3912,2021-09-08_20h55.26.500,forced_choiceRT,2021.1.2,Win32,59.91970759,,,,,,,,,,,,,,,,,,4,0,4,0,1
,1.68,,,,,,,,,h.PNG,h,610eedb873951ea1ebab3912,2021-09-08_20h55.26.500,forced_choiceRT,2021.1.2,Win32,59.91970759,,,,,,,,6,Ontime,j,0,2.055,0,0,0,2,1,,,,,
,0.61,,,,,,,,,j.PNG,j,610eedb873951ea1ebab3912,2021-09-08_20h55.26.500,forced_choiceRT,2021.1.2,Win32,59.91970759,,,,,,,,6,Ontime,j,1,2.0394,0,1,1,3,1,,,,,
,1.01,,,,,,,,,j.PNG,j,610eedb873951ea1ebab3912,2021-09-08_20h55.26.500,forced_choiceRT,2021.1.2,Win32,59.91970759,,,,,,,,6,Ontime,j,1,1.9761,0,2,2,3,1,,,,,
,0.92,,,,,,,,,g.PNG,g,610eedb873951ea1ebab3912,2021-09-08_20h55.26.500,forced_choiceRT,2021.1.2,Win32,59.91970759,,,,,,,,6,Ontime,g,1,2.0059,0,3,3,1,1,,,,,
,1.2,,,,,,,,,j.PNG,j,610eedb873951ea1ebab3912,2021-09-08_20h55.26.500,forced_choiceRT,2021.1.2,Win32,59.91970759,,,,,,,,6,Ontime,j,1,1.9862,1,0,4,3,1,,,,,
,0.47,,,,,,,,,h.PNG,h,610eedb873951ea1ebab3912,2021-09-08_20h55.26.500,forced_choiceRT,2021.1.2,Win32,59.91970759,,,,,,,,6,Ontime,h,1,2.0093,1,1,5,2,1,,,,,
,1.11,,,,,,,,,f.PNG,f,610eedb873951ea1ebab3912,2021-09-08_20h55.26.500,forced_choiceRT,2021.1.2,Win32,59.91970759,,,,,,,,6,Ontime,f,1,2.0303,1,2,6,0,1,,,,,
,0.29,,,,,,,,,f.PNG,f,610eedb873951ea1ebab3912,2021-09-08_20h55.26.500,forced_choiceRT,2021.1.2,Win32,59.91970759,,,,,,,,6,Ontime,f,1,2.0412,1,3,7,0,1,,,,,
,0.18,,,,,,,,,g.PNG,g,610eedb873951ea1ebab3912,2021-09-08_20h55.26.500,forced_choiceRT,2021.1.2,Win32,59.91970759,,,,,,,,6,Ontime,g,1,2.0518,2,0,8,1,1,,,,,
,1.17,,,,,,,,,h.PNG,h,610eedb873951ea1ebab3912,2021-09-08_20h55.26.500,forced_choiceRT,2021.1.2,Win32,59.91970759,,,,,,,,6,Ontime,h,1,2.0045,2,1,9,2,1,,,,,
,0.17,,,,,,,,,f.PNG,f,610eedb873951ea1ebab3912,2021-09-08_20h55.26.500,forced_choiceRT,2021.1.2,Win32,59.91970759,,,,,,,,6,Ontime,f,1,2.0269,2,2,10,0,1,,,,,
,0.2,,,,,,,,,g.PNG,g,610eedb873951ea1ebab3912,2021-09-08_20h55.26.500,forced_choiceRT,2021.1.2,Win32,59.91970759,,,,,,,,6,Ontime,g,1,2.0183,2,3,11,1,1,,,,,
,1.95,,,,,,,,,f.PNG,f,610eedb873951ea1ebab3912,2021-09-08_20h55.26.500,forced_choiceRT,2021.1.2,Win32,59.91970759,,,,,,,,6,Ontime,j,0,2.0683,3,0,12,0,1,,,,,
,0.42,,,,,,,,,g.PNG,g,610eedb873951ea1ebab3912,2021-09-08_20h55.26.500,forced_choiceRT,2021.1.2,Win32,59.91970759,,,,,,,,6,Ontime,g,1,2.0025,3,1,13,1,1,,,,,
,1.24,,,,,,,,,j.PNG,j,610eedb873951ea1ebab3912,2021-09-08_20h55.26.500,forced_choiceRT,2021.1.2,Win32,59.91970759,,,,,,,,6,Ontime,j,1,2.0539,3,2,14,3,1,,,,,
,0.13,,,,,,,,,h.PNG,h,610eedb873951ea1ebab3912,2021-09-08_20h55.26.500,forced_choiceRT,2021.1.2,Win32,59.91970759,,,,,,,,6,Ontime,h,1,2.0017,3,3,15,2,1,,,,,
,0.17,,,,,,,,,h.PNG,h,610eedb873951ea1ebab3912,2021-09-08_20h55.26.500,forced_choiceRT,2021.1.2,Win32,59.91970759,,,,,,,,6,Ontime,h,1,1.9715,4,0,16,2,1,,,,,
,1.78,,,,,,,,,f.PNG,f,610eedb873951ea1ebab3912,2021-09-08_20h55.26.500,forced_choiceRT,2021.1.2,Win32,59.91970759,,,,,,,,6,Ontime,j,0,2.0293,4,1,17,0,1,,,,,
,1.97,,,,,,,,,h.PNG,h,610eedb873951ea1ebab3912,2021-09-08_20h55.26.500,forced_choiceRT,2021.1.2,Win32,59.91970759,,,,,,,,6,Slow,h,1,2.1298,4,2,18,2,1,,,,,
,0.32,,,,,,,,,g.PNG,g,610eedb873951ea1ebab3912,2021-09-08_20h55.26.500,forced_choiceRT,2021.1.2,Win32,59.91970759,,,,,,,,6,Ontime,g,1,1.9971,4,3,19,1,1,,,,,
,1.13,,,,,,,,,h.PNG,h,610eedb873951ea1ebab3912,2021-09-08_20h55.26.500,forced_choiceRT,2021.1.2,Win32,59.91970759,,,,,,,,6,Ontime,h,1,1.9859,5,0,20,2,1,,,,,
,1.77,,,,,,,,,f.PNG,f,610eedb873951ea1ebab3912,2021-09-08_20h55.26.500,forced_choiceRT,2021.1.2,Win32,59.91970759,,,,,,,,6,Ontime,j,0,2.0186,5,1,21,0,1,,,,,
,0.29,,,,,,,,,h.PNG,h,610eedb873951ea1ebab3912,2021-09-08_20h55.26.500,forced_choiceRT,2021.1.2,Win32,59.91970759,,,,,,,,6,Ontime,h,1,2.0054,5,2,22,2,1,,,,,
,0.05,,,,,,,,,f.PNG,f,610eedb873951ea1ebab3912,2021-09-08_20h55.26.500,forced_choiceRT,2021.1.2,Win32,59.91970759,,,,,,,,6,Ontime,f,1,2.0192,5,3,23,0,1,,,,,
,1.99,,,,,,,,,g.PNG,g,610eedb873951ea1ebab3912,2021-09-08_20h55.26.500,forced_choiceRT,2021.1.2,Win32,59.91970759,,,,,,,,6,Ontime,j,0,2.0178,6,0,24,1,1,,,,,
,1.32,,,,,,,,,g.PNG,g,610eedb873951ea1ebab3912,2021-09-08_20h55.26.500,forced_choiceRT,2021.1.2,Win32,59.91970759,,,,,,,,6,Ontime,g,1,2.0121,6,1,25,1,1,,,,,
,0.43,,,,,,,,,j.PNG,j,610eedb873951ea1ebab3912,2021-09-08_20h55.26.500,forced_choiceRT,2021.1.2,Win32,59.91970759,,,,,,,,6,Ontime,j,1,1.9378,6,2,26,3,1,,,,,
,1.42,,,,,,,,,h.PNG,h,610eedb873951ea1ebab3912,2021-09-08_20h55.26.500,forced_choiceRT,2021.1.2,Win32,59.91970759,,,,,,,,6,Slow,h,1,2.1015,6,3,27,2,1,,,,,
,0.93,,,,,,,,,h.PNG,h,610eedb873951ea1ebab3912,2021-09-08_20h55.26.500,forced_choiceRT,2021.1.2,Win32,59.91970759,,,,,,,,6,Ontime,h,1,1.9863,7,0,28,2,1,,,,,
,0.33,,,,,,,,,j.PNG,j,610eedb873951ea1ebab3912,2021-09-08_20h55.26.500,forced_choiceRT,2021.1.2,Win32,59.91970759,,,,,,,,6,Ontime,j,1,1.9516,7,1,29,3,1,,,,,
,1.72,,,,,,,,,j.PNG,j,610eedb873951ea1ebab3912,2021-09-08_20h55.26.500,forced_choiceRT,2021.1.2,Win32,59.91970759,,,,,,,,6,Ontime,f,0,2.0214,7,2,30,3,1,,,,,
,1.13,,,,,,,,,g.PNG,g,610eedb873951ea1ebab3912,2021-09-08_20h55.26.500,forced_choiceRT,2021.1.2,Win32,59.91970759,,,,,,,,6,Ontime,g,1,2.0018,7,3,31,1,1,,,,,
,1.72,,,,,,,,,j.PNG,j,610eedb873951ea1ebab3912,2021-09-08_20h55.26.500,forced_choiceRT,2021.1.2,Win32,59.91970759,,,,,,,,6,Ontime,j,1,2.0253,8,0,32,3,1,,,,,
,1.19,,,,,,,,,f.PNG,f,610eedb873951ea1ebab3912,2021-09-08_20h55.26.500,forced_choiceRT,2021.1.2,Win32,59.91970759,,,,,,,,6,Ontime,f,1,2.0129,8,1,33,0,1,,,,,
,0.62,,,,,,,,,f.PNG,f,610eedb873951ea1ebab3912,2021-09-08_20h55.26.500,forced_choiceRT,2021.1.2,Win32,59.91970759,,,,,,,,6,Ontime,g,0,1.9857,8,2,34,0,1,,,,,
,0.17,,,,,,,,,j.PNG,j,610eedb873951ea1ebab3912,2021-09-08_20h55.26.500,forced_choiceRT,2021.1.2,Win32,59.91970759,,,,,,,,6,Ontime,j,1,1.9522,8,3,35,3,1,,,,,
,0.12,,,,,,,,,g.PNG,g,610eedb873951ea1ebab3912,2021-09-08_20h55.26.500,forced_choiceRT,2021.1.2,Win32,59.91970759,,,,,,,,6,Ontime,g,1,1.9621,9,0,36,1,1,,,,,
,1.03,,,,,,,,,g.PNG,g,610eedb873951ea1ebab3912,2021-09-08_20h55.26.500,forced_choiceRT,2021.1.2,Win32,59.91970759,,,,,,,,6,Ontime,g,1,2.0295,9,1,37,1,1,,,,,
,0.17,,,,,,,,,j.PNG,j,610eedb873951ea1ebab3912,2021-09-08_20h55.26.500,forced_choiceRT,2021.1.2,Win32,59.91970759,,,,,,,,6,Ontime,j,1,1.9411,9,2,38,3,1,,,,,
,0.97,,,,,,,,,f.PNG,f,610eedb873951ea1ebab3912,2021-09-08_20h55.26.500,forced_choiceRT,2021.1.2,Win32,59.91970759,,,,,,,,6,Ontime,f,1,1.9841,9,3,39,0,1,,,,,
,,,,,,,,,,,,610eedb873951ea1ebab3912,2021-09-08_20h55.26.500,forced_choiceRT,2021.1.2,Win32,59.91970759,,,,,,,,,,,,,,,,,,5,0,5,0,1
,0.8,,,,,,,,,j.PNG,j,610eedb873951ea1ebab3912,2021-09-08_20h55.26.500,forced_choiceRT,2021.1.2,Win32,59.91970759,,,,,,,,7,Ontime,j,1,1.9854,0,0,0,3,1,,,,,
,1.81,,,,,,,,,f.PNG,f,610eedb873951ea1ebab3912,2021-09-08_20h55.26.500,forced_choiceRT,2021.1.2,Win32,59.91970759,,,,,,,,7,Ontime,h,0,2.0191,0,1,1,0,1,,,,,
,0.5,,,,,,,,,f.PNG,f,610eedb873951ea1ebab3912,2021-09-08_20h55.26.500,forced_choiceRT,2021.1.2,Win32,59.91970759,,,,,,,,7,Ontime,f,1,1.9507,0,2,2,0,1,,,,,
,1.04,,,,,,,,,g.PNG,g,610eedb873951ea1ebab3912,2021-09-08_20h55.26.500,forced_choiceRT,2021.1.2,Win32,59.91970759,,,,,,,,7,Ontime,g,1,1.9857,0,3,3,1,1,,,,,
,1.75,,,,,,,,,j.PNG,j,610eedb873951ea1ebab3912,2021-09-08_20h55.26.500,forced_choiceRT,2021.1.2,Win32,59.91970759,,,,,,,,7,Ontime,j,1,1.9868,1,0,4,3,1,,,,,
,1.14,,,,,,,,,f.PNG,f,610eedb873951ea1ebab3912,2021-09-08_20h55.26.500,forced_choiceRT,2021.1.2,Win32,59.91970759,,,,,,,,7,Ontime,f,1,1.9677,1,1,5,0,1,,,,,
,0.83,,,,,,,,,g.PNG,g,610eedb873951ea1ebab3912,2021-09-08_20h55.26.500,forced_choiceRT,2021.1.2,Win32,59.91970759,,,,,,,,7,Ontime,g,1,2.0252,1,2,6,1,1,,,,,
,1.71,,,,,,,,,j.PNG,j,610eedb873951ea1ebab3912,2021-09-08_20h55.26.500,forced_choiceRT,2021.1.2,Win32,59.91970759,,,,,,,,7,Ontime,j,1,2.0121,1,3,7,3,1,,,,,
,1.85,,,,,,,,,h.PNG,h,610eedb873951ea1ebab3912,2021-09-08_20h55.26.500,forced_choiceRT,2021.1.2,Win32,59.91970759,,,,,,,,7,Ontime,h,1,2.0472,2,0,8,2,1,,,,,
,1.47,,,,,,,,,h.PNG,h,610eedb873951ea1ebab3912,2021-09-08_20h55.26.500,forced_choiceRT,2021.1.2,Win32,59.91970759,,,,,,,,7,Ontime,h,1,2.0188,2,1,9,2,1,,,,,
,0.04,,,,,,,,,f.PNG,f,610eedb873951ea1ebab3912,2021-09-08_20h55.26.500,forced_choiceRT,2021.1.2,Win32,59.91970759,,,,,,,,7,Ontime,f,1,1.9787,2,2,10,0,1,,,,,
,0.32,,,,,,,,,j.PNG,j,610eedb873951ea1ebab3912,2021-09-08_20h55.26.500,forced_choiceRT,2021.1.2,Win32,59.91970759,,,,,,,,7,Ontime,j,1,1.9855,2,3,11,3,1,,,,,
,1.57,,,,,,,,,g.PNG,g,610eedb873951ea1ebab3912,2021-09-08_20h55.26.500,forced_choiceRT,2021.1.2,Win32,59.91970759,,,,,,,,7,Ontime,h,0,1.9616,3,0,12,1,1,,,,,
,0.92,,,,,,,,,g.PNG,g,610eedb873951ea1ebab3912,2021-09-08_20h55.26.500,forced_choiceRT,2021.1.2,Win32,59.91970759,,,,,,,,7,Ontime,g,1,2.0181,3,1,13,1,1,,,,,
,1.71,,,,,,,,,g.PNG,g,610eedb873951ea1ebab3912,2021-09-08_20h55.26.500,forced_choiceRT,2021.1.2,Win32,59.91970759,,,,,,,,7,Ontime,j,0,2.057,3,2,14,1,1,,,,,
,1.52,,,,,,,,,g.PNG,g,610eedb873951ea1ebab3912,2021-09-08_20h55.26.500,forced_choiceRT,2021.1.2,Win32,59.91970759,,,,,,,,7,Ontime,g,1,1.9579,3,3,15,1,1,,,,,
,1.24,,,,,,,,,g.PNG,g,610eedb873951ea1ebab3912,2021-09-08_20h55.26.500,forced_choiceRT,2021.1.2,Win32,59.91970759,,,,,,,,7,Ontime,g,1,2.0515,4,0,16,1,1,,,,,
,1.25,,,,,,,,,h.PNG,h,610eedb873951ea1ebab3912,2021-09-08_20h55.26.500,forced_choiceRT,2021.1.2,Win32,59.91970759,,,,,,,,7,Ontime,h,1,1.977,4,1,17,2,1,,,,,
,1.83,,,,,,,,,h.PNG,h,610eedb873951ea1ebab3912,2021-09-08_20h55.26.500,forced_choiceRT,2021.1.2,Win32,59.91970759,,,,,,,,7,Slow,j,0,2.1895,4,2,18,2,1,,,,,
,1.52,,,,,,,,,f.PNG,f,610eedb873951ea1ebab3912,2021-09-08_20h55.26.500,forced_choiceRT,2021.1.2,Win32,59.91970759,,,,,,,,7,Slow,j,0,2.1019,4,3,19,0,1,,,,,
,1.43,,,,,,,,,j.PNG,j,610eedb873951ea1ebab3912,2021-09-08_20h55.26.500,forced_choiceRT,2021.1.2,Win32,59.91970759,,,,,,,,7,Ontime,j,1,2.0523,5,0,20,3,1,,,,,
,0.26,,,,,,,,,f.PNG,f,610eedb873951ea1ebab3912,2021-09-08_20h55.26.500,forced_choiceRT,2021.1.2,Win32,59.91970759,,,,,,,,7,Ontime,f,1,1.9937,5,1,21,0,1,,,,,
,1.06,,,,,,,,,g.PNG,g,610eedb873951ea1ebab3912,2021-09-08_20h55.26.500,forced_choiceRT,2021.1.2,Win32,59.91970759,,,,,,,,7,Ontime,g,1,2.0513,5,2,22,1,1,,,,,
,0.6,,,,,,,,,h.PNG,h,610eedb873951ea1ebab3912,2021-09-08_20h55.26.500,forced_choiceRT,2021.1.2,Win32,59.91970759,,,,,,,,7,Ontime,h,1,2.0435,5,3,23,2,1,,,,,
,0.34,,,,,,,,,g.PNG,g,610eedb873951ea1ebab3912,2021-09-08_20h55.26.500,forced_choiceRT,2021.1.2,Win32,59.91970759,,,,,,,,7,Ontime,g,1,2.0346,6,0,24,1,1,,,,,
,1.92,,,,,,,,,j.PNG,j,610eedb873951ea1ebab3912,2021-09-08_20h55.26.500,forced_choiceRT,2021.1.2,Win32,59.91970759,,,,,,,,7,Ontime,j,1,2.01,6,1,25,3,1,,,,,
,1.06,,,,,,,,,j.PNG,j,610eedb873951ea1ebab3912,2021-09-08_20h55.26.500,forced_choiceRT,2021.1.2,Win32,59.91970759,,,,,,,,7,Ontime,j,1,1.9913,6,2,26,3,1,,,,,
,1.38,,,,,,,,,h.PNG,h,610eedb873951ea1ebab3912,2021-09-08_20h55.26.500,forced_choiceRT,2021.1.2,Win32,59.91970759,,,,,,,,7,Ontime,h,1,1.9978,6,3,27,2,1,,,,,
,1.57,,,,,,,,,h.PNG,h,610eedb873951ea1ebab3912,2021-09-08_20h55.26.500,forced_choiceRT,2021.1.2,Win32,59.91970759,,,,,,,,7,Ontime,h,1,2.0848,7,0,28,2,1,,,,,
,0.02,,,,,,,,,j.PNG,j,610eedb873951ea1ebab3912,2021-09-08_20h55.26.500,forced_choiceRT,2021.1.2,Win32,59.91970759,,,,,,,,7,Ontime,j,1,2.0151,7,1,29,3,1,,,,,
,0.72,,,,,,,,,j.PNG,j,610eedb873951ea1ebab3912,2021-09-08_20h55.26.500,forced_choiceRT,2021.1.2,Win32,59.91970759,,,,,,,,7,Ontime,j,1,1.9421,7,2,30,3,1,,,,,
,0.61,,,,,,,,,f.PNG,f,610eedb873951ea1ebab3912,2021-09-08_20h55.26.500,forced_choiceRT,2021.1.2,Win32,59.91970759,,,,,,,,7,Ontime,f,1,2.0012,7,3,31,0,1,,,,,
,1.72,,,,,,,,,f.PNG,f,610eedb873951ea1ebab3912,2021-09-08_20h55.26.500,forced_choiceRT,2021.1.2,Win32,59.91970759,,,,,,,,7,Ontime,j,0,2.0209,8,0,32,0,1,,,,,
,1.12,,,,,,,,,h.PNG,h,610eedb873951ea1ebab3912,2021-09-08_20h55.26.500,forced_choiceRT,2021.1.2,Win32,59.91970759,,,,,,,,7,Ontime,h,1,1.9687,8,1,33,2,1,,,,,
,0.04,,,,,,,,,g.PNG,g,610eedb873951ea1ebab3912,2021-09-08_20h55.26.500,forced_choiceRT,2021.1.2,Win32,59.91970759,,,,,,,,7,Ontime,g,1,1.9727,8,2,34,1,1,,,,,
,1.8,,,,,,,,,f.PNG,f,610eedb873951ea1ebab3912,2021-09-08_20h55.26.500,forced_choiceRT,2021.1.2,Win32,59.91970759,,,,,,,,7,Ontime,j,0,2.0021,8,3,35,0,1,,,,,
,1.13,,,,,,,,,f.PNG,f,610eedb873951ea1ebab3912,2021-09-08_20h55.26.500,forced_choiceRT,2021.1.2,Win32,59.91970759,,,,,,,,7,Ontime,f,1,2.0023,9,0,36,0,1,,,,,
,1.75,,,,,,,,,h.PNG,h,610eedb873951ea1ebab3912,2021-09-08_20h55.26.500,forced_choiceRT,2021.1.2,Win32,59.91970759,,,,,,,,7,Ontime,j,0,2.0236,9,1,37,2,1,,,,,
,0.88,,,,,,,,,h.PNG,h,610eedb873951ea1ebab3912,2021-09-08_20h55.26.500,forced_choiceRT,2021.1.2,Win32,59.91970759,,,,,,,,7,Ontime,h,1,2.0069,9,2,38,2,1,,,,,
,1.47,,,,,,,,,j.PNG,j,610eedb873951ea1ebab3912,2021-09-08_20h55.26.500,forced_choiceRT,2021.1.2,Win32,59.91970759,,,,,,,,7,Ontime,j,1,1.9849,9,3,39,3,1,,,,,
,,,,,,,,,,,,610eedb873951ea1ebab3912,2021-09-08_20h55.26.500,forced_choiceRT,2021.1.2,Win32,59.91970759,,,,,,,,,,,,,,,,,,6,0,6,0,1
,0.06,,,,,,,,,h.PNG,h,610eedb873951ea1ebab3912,2021-09-08_20h55.26.500,forced_choiceRT,2021.1.2,Win32,59.91970759,,,,,,,,8,Fast,j,0,0.8465,0,0,0,2,1,,,,,
,0.09,,,,,,,,,h.PNG,h,610eedb873951ea1ebab3912,2021-09-08_20h55.26.500,forced_choiceRT,2021.1.2,Win32,59.91970759,,,,,,,,8,Ontime,h,1,2.0016,0,1,1,2,1,,,,,
,0.6,,,,,,,,,j.PNG,j,610eedb873951ea1ebab3912,2021-09-08_20h55.26.500,forced_choiceRT,2021.1.2,Win32,59.91970759,,,,,,,,8,Ontime,j,1,2.0042,0,2,2,3,1,,,,,
,0.95,,,,,,,,,h.PNG,h,610eedb873951ea1ebab3912,2021-09-08_20h55.26.500,forced_choiceRT,2021.1.2,Win32,59.91970759,,,,,,,,8,Ontime,h,1,2.0223,0,3,3,2,1,,,,,
,1.33,,,,,,,,,f.PNG,f,610eedb873951ea1ebab3912,2021-09-08_20h55.26.500,forced_choiceRT,2021.1.2,Win32,59.91970759,,,,,,,,8,Slow,f,1,3.2024,1,0,4,0,1,,,,,
,0.94,,,,,,,,,f.PNG,f,610eedb873951ea1ebab3912,2021-09-08_20h55.26.500,forced_choiceRT,2021.1.2,Win32,59.91970759,,,,,,,,8,Ontime,f,1,2.0186,1,1,5,0,1,,,,,
,1.03,,,,,,,,,g.PNG,g,610eedb873951ea1ebab3912,2021-09-08_20h55.26.500,forced_choiceRT,2021.1.2,Win32,59.91970759,,,,,,,,8,Ontime,g,1,2.0024,1,2,6,1,1,,,,,
,0.23,,,,,,,,,j.PNG,j,610eedb873951ea1ebab3912,2021-09-08_20h55.26.500,forced_choiceRT,2021.1.2,Win32,59.91970759,,,,,,,,8,Ontime,j,1,2.0064,1,3,7,3,1,,,,,
,1.76,,,,,,,,,f.PNG,f,610eedb873951ea1ebab3912,2021-09-08_20h55.26.500,forced_choiceRT,2021.1.2,Win32,59.91970759,,,,,,,,8,Ontime,h,0,2.0521,2,0,8,0,1,,,,,
,0.65,,,,,,,,,j.PNG,j,610eedb873951ea1ebab3912,2021-09-08_20h55.26.500,forced_choiceRT,2021.1.2,Win32,59.91970759,,,,,,,,8,Ontime,j,1,1.9576,2,1,9,3,1,,,,,
,1.05,,,,,,,,,g.PNG,g,610eedb873951ea1ebab3912,2021-09-08_20h55.26.500,forced_choiceRT,2021.1.2,Win32,59.91970759,,,,,,,,8,Ontime,g,1,1.9851,2,2,10,1,1,,,,,
,1.64,,,,,,,,,f.PNG,f,610eedb873951ea1ebab3912,2021-09-08_20h55.26.500,forced_choiceRT,2021.1.2,Win32,59.91970759,,,,,,,,8,Ontime,h,0,1.9464,2,3,11,0,1,,,,,
,0.59,,,,,,,,,g.PNG,g,610eedb873951ea1ebab3912,2021-09-08_20h55.26.500,forced_choiceRT,2021.1.2,Win32,59.91970759,,,,,,,,8,Ontime,g,1,1.9969,3,0,12,1,1,,,,,
,1.35,,,,,,,,,h.PNG,h,610eedb873951ea1ebab3912,2021-09-08_20h55.26.500,forced_choiceRT,2021.1.2,Win32,59.91970759,,,,,,,,8,Ontime,h,1,1.987,3,1,13,2,1,,,,,
,0.32,,,,,,,,,f.PNG,f,610eedb873951ea1ebab3912,2021-09-08_20h55.26.500,forced_choiceRT,2021.1.2,Win32,59.91970759,,,,,,,,8,Ontime,f,1,1.9564,3,2,14,0,1,,,,,
,1.74,,,,,,,,,f.PNG,f,610eedb873951ea1ebab3912,2021-09-08_20h55.26.500,forced_choiceRT,2021.1.2,Win32,59.91970759,,,,,,,,8,Ontime,j,0,2.018,3,3,15,0,1,,,,,
,0.67,,,,,,,,,h.PNG,h,610eedb873951ea1ebab3912,2021-09-08_20h55.26.500,forced_choiceRT,2021.1.2,Win32,59.91970759,,,,,,,,8,Ontime,h,1,2.0091,4,0,16,2,1,,,,,
,1.72,,,,,,,,,j.PNG,j,610eedb873951ea1ebab3912,2021-09-08_20h55.26.500,forced_choiceRT,2021.1.2,Win32,59.91970759,,,,,,,,8,Slow,g,0,2.1557,4,1,17,3,1,,,,,
,1.03,,,,,,,,,h.PNG,h,610eedb873951ea1ebab3912,2021-09-08_20h55.26.500,forced_choiceRT,2021.1.2,Win32,59.91970759,,,,,,,,8,Ontime,h,1,1.9794,4,2,18,2,1,,,,,
,1.38,,,,,,,,,g.PNG,g,610eedb873951ea1ebab3912,2021-09-08_20h55.26.500,forced_choiceRT,2021.1.2,Win32,59.91970759,,,,,,,,8,Ontime,g,1,2.0189,4,3,19,1,1,,,,,
,0.83,,,,,,,,,j.PNG,j,610eedb873951ea1ebab3912,2021-09-08_20h55.26.500,forced_choiceRT,2021.1.2,Win32,59.91970759,,,,,,,,8,Ontime,j,1,1.9774,5,0,20,3,1,,,,,
,0.87,,,,,,,,,h.PNG,h,610eedb873951ea1ebab3912,2021-09-08_20h55.26.500,forced_choiceRT,2021.1.2,Win32,59.91970759,,,,,,,,8,Slow,h,1,2.1202,5,1,21,2,1,,,,,
,1.66,,,,,,,,,g.PNG,g,610eedb873951ea1ebab3912,2021-09-08_20h55.26.500,forced_choiceRT,2021.1.2,Win32,59.91970759,,,,,,,,8,Ontime,h,0,2.071,5,2,22,1,1,,,,,
,1.87,,,,,,,,,g.PNG,g,610eedb873951ea1ebab3912,2021-09-08_20h55.26.500,forced_choiceRT,2021.1.2,Win32,59.91970759,,,,,,,,8,Ontime,j,0,2.0242,5,3,23,1,1,,,,,
,0.38,,,,,,,,,j.PNG,j,610eedb873951ea1ebab3912,2021-09-08_20h55.26.500,forced_choiceRT,2021.1.2,Win32,59.91970759,,,,,,,,8,Ontime,j,1,1.9881,6,0,24,3,1,,,,,
,0.73,,,,,,,,,f.PNG,f,610eedb873951ea1ebab3912,2021-09-08_20h55.26.500,forced_choiceRT,2021.1.2,Win32,59.91970759,,,,,,,,8,Ontime,f,1,1.9925,6,1,25,0,1,,,,,
,1.63,,,,,,,,,g.PNG,g,610eedb873951ea1ebab3912,2021-09-08_20h55.26.500,forced_choiceRT,2021.1.2,Win32,59.91970759,,,,,,,,8,Slow,h,0,2.1185,6,2,26,1,1,,,,,
,1.42,,,,,,,,,j.PNG,j,610eedb873951ea1ebab3912,2021-09-08_20h55.26.500,forced_choiceRT,2021.1.2,Win32,59.91970759,,,,,,,,8,Ontime,j,1,1.9913,6,3,27,3,1,,,,,
,0.69,,,,,,,,,h.PNG,h,610eedb873951ea1ebab3912,2021-09-08_20h55.26.500,forced_choiceRT,2021.1.2,Win32,59.91970759,,,,,,,,8,Ontime,h,1,2.0544,7,0,28,2,1,,,,,
,1.39,,,,,,,,,j.PNG,j,610eedb873951ea1ebab3912,2021-09-08_20h55.26.500,forced_choiceRT,2021.1.2,Win32,59.91970759,,,,,,,,8,Ontime,j,1,1.9752,7,1,29,3,1,,,,,
,1.84,,,,,,,,,j.PNG,j,610eedb873951ea1ebab3912,2021-09-08_20h55.26.500,forced_choiceRT,2021.1.2,Win32,59.91970759,,,,,,,,8,Ontime,g,0,2.0179,7,2,30,3,1,,,,,
,1.8,,,,,,,,,f.PNG,f,610eedb873951ea1ebab3912,2021-09-08_20h55.26.500,forced_choiceRT,2021.1.2,Win32,59.91970759,,,,,,,,8,Slow,j,0,2.114,7,3,31,0,1,,,,,
,0.73,,,,,,,,,f.PNG,f,610eedb873951ea1ebab3912,2021-09-08_20h55.26.500,forced_choiceRT,2021.1.2,Win32,59.91970759,,,,,,,,8,Ontime,f,1,1.9967,8,0,32,0,1,,,,,
,1.03,,,,,,,,,g.PNG,g,610eedb873951ea1ebab3912,2021-09-08_20h55.26.500,forced_choiceRT,2021.1.2,Win32,59.91970759,,,,,,,,8,Ontime,g,1,2.0464,8,1,33,1,1,,,,,
,1.42,,,,,,,,,j.PNG,j,610eedb873951ea1ebab3912,2021-09-08_20h55.26.500,forced_choiceRT,2021.1.2,Win32,59.91970759,,,,,,,,8,Ontime,j,1,2.0183,8,2,34,3,1,,,,,
,1.73,,,,,,,,,f.PNG,f,610eedb873951ea1ebab3912,2021-09-08_20h55.26.500,forced_choiceRT,2021.1.2,Win32,59.91970759,,,,,,,,8,Ontime,h,0,2.0365,8,3,35,0,1,,,,,
,1.24,,,,,,,,,h.PNG,h,610eedb873951ea1ebab3912,2021-09-08_20h55.26.500,forced_choiceRT,2021.1.2,Win32,59.91970759,,,,,,,,8,Ontime,h,1,2.0218,9,0,36,2,1,,,,,
,1.71,,,,,,,,,g.PNG,g,610eedb873951ea1ebab3912,2021-09-08_20h55.26.500,forced_choiceRT,2021.1.2,Win32,59.91970759,,,,,,,,8,Ontime,j,0,2.0702,9,1,37,1,1,,,,,
,0.47,,,,,,,,,h.PNG,h,610eedb873951ea1ebab3912,2021-09-08_20h55.26.500,forced_choiceRT,2021.1.2,Win32,59.91970759,,,,,,,,8,Ontime,h,1,1.9448,9,2,38,2,1,,,,,
,1.91,,,,,,,,,g.PNG,g,610eedb873951ea1ebab3912,2021-09-08_20h55.26.500,forced_choiceRT,2021.1.2,Win32,59.91970759,,,,,,,,8,Ontime,j,0,2.075,9,3,39,1,1,,,,,
,,,,,,,,,,,,610eedb873951ea1ebab3912,2021-09-08_20h55.26.500,forced_choiceRT,2021.1.2,Win32,59.91970759,,,,,,,,,,,,,,,,,,7,0,7,0,1
,1.78,,,,,,,,,j.PNG,j,610eedb873951ea1ebab3912,2021-09-08_20h55.26.500,forced_choiceRT,2021.1.2,Win32,59.91970759,,,,,,,,9,Slow,h,0,2.1399,0,0,0,3,1,,,,,
,0.84,,,,,,,,,f.PNG,f,610eedb873951ea1ebab3912,2021-09-08_20h55.26.500,forced_choiceRT,2021.1.2,Win32,59.91970759,,,,,,,,9,Ontime,f,1,2.0552,0,1,1,0,1,,,,,
,1.91,,,,,,,,,g.PNG,g,610eedb873951ea1ebab3912,2021-09-08_20h55.26.500,forced_choiceRT,2021.1.2,Win32,59.91970759,,,,,,,,9,Ontime,j,0,2.0681,0,2,2,1,1,,,,,
,1.99,,,,,,,,,h.PNG,h,610eedb873951ea1ebab3912,2021-09-08_20h55.26.500,forced_choiceRT,2021.1.2,Win32,59.91970759,,,,,,,,9,Ontime,h,1,2.0056,0,3,3,2,1,,,,,
,1.18,,,,,,,,,h.PNG,h,610eedb873951ea1ebab3912,2021-09-08_20h55.26.500,forced_choiceRT,2021.1.2,Win32,59.91970759,,,,,,,,9,Ontime,h,1,2.0239,1,0,4,2,1,,,,,
,1.97,,,,,,,,,g.PNG,g,610eedb873951ea1ebab3912,2021-09-08_20h55.26.500,forced_choiceRT,2021.1.2,Win32,59.91970759,,,,,,,,9,Slow,j,0,2.104,1,1,5,1,1,,,,,
,1.54,,,,,,,,,j.PNG,j,610eedb873951ea1ebab3912,2021-09-08_20h55.26.500,forced_choiceRT,2021.1.2,Win32,59.91970759,,,,,,,,9,Ontime,h,0,1.975,1,2,6,3,1,,,,,
,1.29,,,,,,,,,h.PNG,h,610eedb873951ea1ebab3912,2021-09-08_20h55.26.500,forced_choiceRT,2021.1.2,Win32,59.91970759,,,,,,,,9,Ontime,h,1,2.0285,1,3,7,2,1,,,,,
,0.68,,,,,,,,,f.PNG,f,610eedb873951ea1ebab3912,2021-09-08_20h55.26.500,forced_choiceRT,2021.1.2,Win32,59.91970759,,,,,,,,9,Ontime,f,1,1.9849,2,0,8,0,1,,,,,
,1.56,,,,,,,,,j.PNG,j,610eedb873951ea1ebab3912,2021-09-08_20h55.26.500,forced_choiceRT,2021.1.2,Win32,59.91970759,,,,,,,,9,Ontime,j,1,2.0553,2,1,9,3,1,,,,,
,0.1,,,,,,,,,f.PNG,f,610eedb873951ea1ebab3912,2021-09-08_20h55.26.500,forced_choiceRT,2021.1.2,Win32,59.91970759,,,,,,,,9,Ontime,f,1,2.0225,2,2,10,0,1,,,,,
,1.01,,,,,,,,,g.PNG,g,610eedb873951ea1ebab3912,2021-09-08_20h55.26.500,forced_choiceRT,2021.1.2,Win32,59.91970759,,,,,,,,9,Ontime,g,1,1.9576,2,3,11,1,1,,,,,
,0.43,,,,,,,,,h.PNG,h,610eedb873951ea1ebab3912,2021-09-08_20h55.26.500,forced_choiceRT,2021.1.2,Win32,59.91970759,,,,,,,,9,Ontime,h,1,1.9793,3,0,12,2,1,,,,,
,0.78,,,,,,,,,g.PNG,g,610eedb873951ea1ebab3912,2021-09-08_20h55.26.500,forced_choiceRT,2021.1.2,Win32,59.91970759,,,,,,,,9,Ontime,g,1,1.969,3,1,13,1,1,,,,,
,1.94,,,,,,,,,j.PNG,j,610eedb873951ea1ebab3912,2021-09-08_20h55.26.500,forced_choiceRT,2021.1.2,Win32,59.91970759,,,,,,,,9,Slow,j,1,2.1262,3,2,14,3,1,,,,,
,1.37,,,,,,,,,f.PNG,f,610eedb873951ea1ebab3912,2021-09-08_20h55.26.500,forced_choiceRT,2021.1.2,Win32,59.91970759,,,,,,,,9,Ontime,f,1,2.0119,3,3,15,0,1,,,,,
,1.49,,,,,,,,,j.PNG,j,610eedb873951ea1ebab3912,2021-09-08_20h55.26.500,forced_choiceRT,2021.1.2,Win32,59.91970759,,,,,,,,9,Ontime,j,1,2.0889,4,0,16,3,1,,,,,
,1.17,,,,,,,,,h.PNG,h,610eedb873951ea1ebab3912,2021-09-08_20h55.26.500,forced_choiceRT,2021.1.2,Win32,59.91970759,,,,,,,,9,Ontime,h,1,1.9893,4,1,17,2,1,,,,,
,0.71,,,,,,,,,g.PNG,g,610eedb873951ea1ebab3912,2021-09-08_20h55.26.500,forced_choiceRT,2021.1.2,Win32,59.91970759,,,,,,,,9,Ontime,g,1,1.9114,4,2,18,1,1,,,,,
,1.86,,,,,,,,,j.PNG,j,610eedb873951ea1ebab3912,2021-09-08_20h55.26.500,forced_choiceRT,2021.1.2,Win32,59.91970759,,,,,,,,9,Ontime,j,1,2.0106,4,3,19,3,1,,,,,
,1.49,,,,,,,,,h.PNG,h,610eedb873951ea1ebab3912,2021-09-08_20h55.26.500,forced_choiceRT,2021.1.2,Win32,59.91970759,,,,,,,,9,Ontime,h,1,1.9852,5,0,20,2,1,,,,,
,1.12,,,,,,,,,j.PNG,j,610eedb873951ea1ebab3912,2021-09-08_20h55.26.500,forced_choiceRT,2021.1.2,Win32,59.91970759,,,,,,,,9,Ontime,j,1,2.0211,5,1,21,3,1,,,,,
,1.83,,,,,,,,,j.PNG,j,610eedb873951ea1ebab3912,2021-09-08_20h55.26.500,forced_choiceRT,2021.1.2,Win32,59.91970759,,,,,,,,9,Ontime,f,0,2.036,5,2,22,3,1,,,,,
,0.04,,,,,,,,,j.PNG,j,610eedb873951ea1ebab3912,2021-09-08_20h55.26.500,forced_choiceRT,2021.1.2,Win32,59.91970759,,,,,,,,9,Ontime,j,1,1.9457,5,3,23,3,1,,,,,
,0.57,,,,,,,,,f.PNG,f,610eedb873951ea1ebab3912,2021-09-08_20h55.26.500,forced_choiceRT,2021.1.2,Win32,59.91970759,,,,,,,,9,Ontime,f,1,1.9871,6,0,24,0,1,,,,,
,1.39,,,,,,,,,f.PNG,f,610eedb873951ea1ebab3912,2021-09-08_20h55.26.500,forced_choiceRT,2021.1.2,Win32,59.91970759,,,,,,,,9,Ontime,f,1,2.0727,6,1,25,0,1,,,,,
,0.09,,,,,,,,,g.PNG,g,610eedb873951ea1ebab3912,2021-09-08_20h55.26.500,forced_choiceRT,2021.1.2,Win32,59.91970759,,,,,,,,9,Ontime,g,1,2.0121,6,2,26,1,1,,,,,
,1.28,,,,,,,,,g.PNG,g,610eedb873951ea1ebab3912,2021-09-08_20h55.26.500,forced_choiceRT,2021.1.2,Win32,59.91970759,,,,,,,,9,Ontime,g,1,1.9902,6,3,27,1,1,,,,,
,0.86,,,,,,,,,h.PNG,h,610eedb873951ea1ebab3912,2021-09-08_20h55.26.500,forced_choiceRT,2021.1.2,Win32,59.91970759,,,,,,,,9,Ontime,h,1,2.0702,7,0,28,2,1,,,,,
,1.59,,,,,,,,,h.PNG,h,610eedb873951ea1ebab3912,2021-09-08_20h55.26.500,forced_choiceRT,2021.1.2,Win32,59.91970759,,,,,,,,9,Slow,h,1,2.1682,7,1,29,2,1,,,,,
,0.19,,,,,,,,,f.PNG,f,610eedb873951ea1ebab3912,2021-09-08_20h55.26.500,forced_choiceRT,2021.1.2,Win32,59.91970759,,,,,,,,9,Ontime,f,1,2.0078,7,2,30,0,1,,,,,
,1.98,,,,,,,,,j.PNG,j,610eedb873951ea1ebab3912,2021-09-08_20h55.26.500,forced_choiceRT,2021.1.2,Win32,59.91970759,,,,,,,,9,Ontime,j,1,2.0021,7,3,31,3,1,,,,,
,0.9,,,,,,,,,g.PNG,g,610eedb873951ea1ebab3912,2021-09-08_20h55.26.500,forced_choiceRT,2021.1.2,Win32,59.91970759,,,,,,,,9,Ontime,g,1,2.0123,8,0,32,1,1,,,,,
,1.29,,,,,,,,,g.PNG,g,610eedb873951ea1ebab3912,2021-09-08_20h55.26.500,forced_choiceRT,2021.1.2,Win32,59.91970759,,,,,,,,9,Ontime,g,1,1.9598,8,1,33,1,1,,,,,
,0.07,,,,,,,,,f.PNG,f,610eedb873951ea1ebab3912,2021-09-08_20h55.26.500,forced_choiceRT,2021.1.2,Win32,59.91970759,,,,,,,,9,Ontime,f,1,1.9683,8,2,34,0,1,,,,,
,1.65,,,,,,,,,f.PNG,f,610eedb873951ea1ebab3912,2021-09-08_20h55.26.500,forced_choiceRT,2021.1.2,Win32,59.91970759,,,,,,,,9,Ontime,h,0,2.0414,8,3,35,0,1,,,,,
,1.23,,,,,,,,,h.PNG,h,610eedb873951ea1ebab3912,2021-09-08_20h55.26.500,forced_choiceRT,2021.1.2,Win32,59.91970759,,,,,,,,9,Ontime,h,1,2.0412,9,0,36,2,1,,,,,
,1.97,,,,,,,,,f.PNG,f,610eedb873951ea1ebab3912,2021-09-08_20h55.26.500,forced_choiceRT,2021.1.2,Win32,59.91970759,,,,,,,,9,Ontime,j,0,2.0351,9,1,37,0,1,,,,,
,1.09,,,,,,,,,h.PNG,h,610eedb873951ea1ebab3912,2021-09-08_20h55.26.500,forced_choiceRT,2021.1.2,Win32,59.91970759,,,,,,,,9,Ontime,h,1,1.9463,9,2,38,2,1,,,,,
,1.3,,,,,,,,,g.PNG,g,610eedb873951ea1ebab3912,2021-09-08_20h55.26.500,forced_choiceRT,2021.1.2,Win32,59.91970759,,,,,,,,9,Ontime,g,1,1.9982,9,3,39,1,1,,,,,
,,,,,,,,,,,,610eedb873951ea1ebab3912,2021-09-08_20h55.26.500,forced_choiceRT,2021.1.2,Win32,59.91970759,,,,,,,,,,,,,,,,,,8,0,8,0,1
,1.67,,,,,,,,,j.PNG,j,610eedb873951ea1ebab3912,2021-09-08_20h55.26.500,forced_choiceRT,2021.1.2,Win32,59.91970759,,,,,,,,10,Slow,h,0,2.2507,0,0,0,3,1,,,,,
,1.42,,,,,,,,,h.PNG,h,610eedb873951ea1ebab3912,2021-09-08_20h55.26.500,forced_choiceRT,2021.1.2,Win32,59.91970759,,,,,,,,10,Ontime,h,1,2.0572,0,1,1,2,1,,,,,
,0.18,,,,,,,,,g.PNG,g,610eedb873951ea1ebab3912,2021-09-08_20h55.26.500,forced_choiceRT,2021.1.2,Win32,59.91970759,,,,,,,,10,Ontime,g,1,1.9956,0,2,2,1,1,,,,,
,1.8,,,,,,,,,j.PNG,j,610eedb873951ea1ebab3912,2021-09-08_20h55.26.500,forced_choiceRT,2021.1.2,Win32,59.91970759,,,,,,,,10,Ontime,j,1,2.074,0,3,3,3,1,,,,,
,1.85,,,,,,,,,g.PNG,g,610eedb873951ea1ebab3912,2021-09-08_20h55.26.500,forced_choiceRT,2021.1.2,Win32,59.91970759,,,,,,,,10,Slow,g,1,2.1084,1,0,4,1,1,,,,,
,0.06,,,,,,,,,h.PNG,h,610eedb873951ea1ebab3912,2021-09-08_20h55.26.500,forced_choiceRT,2021.1.2,Win32,59.91970759,,,,,,,,10,Ontime,h,1,2.0082,1,1,5,2,1,,,,,
,0.31,,,,,,,,,g.PNG,g,610eedb873951ea1ebab3912,2021-09-08_20h55.26.500,forced_choiceRT,2021.1.2,Win32,59.91970759,,,,,,,,10,Ontime,g,1,1.9686,1,2,6,1,1,,,,,
,1.75,,,,,,,,,j.PNG,j,610eedb873951ea1ebab3912,2021-09-08_20h55.26.500,forced_choiceRT,2021.1.2,Win32,59.91970759,,,,,,,,10,Ontime,j,1,1.9721,1,3,7,3,1,,,,,
,1.52,,,,,,,,,h.PNG,h,610eedb873951ea1ebab3912,2021-09-08_20h55.26.500,forced_choiceRT,2021.1.2,Win32,59.91970759,,,,,,,,10,Ontime,h,1,2.0431,2,0,8,2,1,,,,,
,1.39,,,,,,,,,f.PNG,f,610eedb873951ea1ebab3912,2021-09-08_20h55.26.500,forced_choiceRT,2021.1.2,Win32,59.91970759,,,,,,,,10,Ontime,f,1,2.0372,2,1,9,0,1,,,,,
,0.58,,,,,,,,,j.PNG,j,610eedb873951ea1ebab3912,2021-09-08_20h55.26.500,forced_choiceRT,2021.1.2,Win32,59.91970759,,,,,,,,10,Ontime,j,1,1.9963,2,2,10,3,1,,,,,
,1.28,,,,,,,,,j.PNG,j,610eedb873951ea1ebab3912,2021-09-08_20h55.26.500,forced_choiceRT,2021.1.2,Win32,59.91970759,,,,,,,,10,Ontime,j,1,2.0193,2,3,11,3,1,,,,,
,0.51,,,,,,,,,f.PNG,f,610eedb873951ea1ebab3912,2021-09-08_20h55.26.500,forced_choiceRT,2021.1.2,Win32,59.91970759,,,,,,,,10,Ontime,f,1,1.9852,3,0,12,0,1,,,,,
,0.03,,,,,,,,,h.PNG,h,610eedb873951ea1ebab3912,2021-09-08_20h55.26.500,forced_choiceRT,2021.1.2,Win32,59.91970759,,,,,,,,10,Ontime,h,1,1.9386,3,1,13,2,1,,,,,
,1.58,,,,,,,,,g.PNG,g,610eedb873951ea1ebab3912,2021-09-08_20h55.26.500,forced_choiceRT,2021.1.2,Win32,59.91970759,,,,,,,,10,Ontime,g,1,2.0298,3,2,14,1,1,,,,,
,0.14,,,,,,,,,f.PNG,f,610eedb873951ea1ebab3912,2021-09-08_20h55.26.500,forced_choiceRT,2021.1.2,Win32,59.91970759,,,,,,,,10,Ontime,f,1,1.9458,3,3,15,0,1,,,,,
,0.02,,,,,,,,,f.PNG,f,610eedb873951ea1ebab3912,2021-09-08_20h55.26.500,forced_choiceRT,2021.1.2,Win32,59.91970759,,,,,,,,10,Ontime,f,1,1.9428,4,0,16,0,1,,,,,
,0.16,,,,,,,,,f.PNG,f,610eedb873951ea1ebab3912,2021-09-08_20h55.26.500,forced_choiceRT,2021.1.2,Win32,59.91970759,,,,,,,,10,Ontime,f,1,1.9142,4,1,17,0,1,,,,,
,0.48,,,,,,,,,h.PNG,h,610eedb873951ea1ebab3912,2021-09-08_20h55.26.500,forced_choiceRT,2021.1.2,Win32,59.91970759,,,,,,,,10,Ontime,h,1,1.9266,4,2,18,2,1,,,,,
,0.29,,,,,,,,,j.PNG,j,610eedb873951ea1ebab3912,2021-09-08_20h55.26.500,forced_choiceRT,2021.1.2,Win32,59.91970759,,,,,,,,10,Ontime,j,1,1.9507,4,3,19,3,1,,,,,
,0.49,,,,,,,,,f.PNG,f,610eedb873951ea1ebab3912,2021-09-08_20h55.26.500,forced_choiceRT,2021.1.2,Win32,59.91970759,,,,,,,,10,Ontime,f,1,1.9952,5,0,20,0,1,,,,,
,1.92,,,,,,,,,g.PNG,g,610eedb873951ea1ebab3912,2021-09-08_20h55.26.500,forced_choiceRT,2021.1.2,Win32,59.91970759,,,,,,,,10,Ontime,h,0,2.0216,5,1,21,1,1,,,,,
,1.6,,,,,,,,,f.PNG,f,610eedb873951ea1ebab3912,2021-09-08_20h55.26.500,forced_choiceRT,2021.1.2,Win32,59.91970759,,,,,,,,10,Slow,h,0,2.1088,5,2,22,0,1,,,,,
,0.22,,,,,,,,,j.PNG,j,610eedb873951ea1ebab3912,2021-09-08_20h55.26.500,forced_choiceRT,2021.1.2,Win32,59.91970759,,,,,,,,10,Ontime,j,1,1.9907,5,3,23,3,1,,,,,
,1.59,,,,,,,,,g.PNG,g,610eedb873951ea1ebab3912,2021-09-08_20h55.26.500,forced_choiceRT,2021.1.2,Win32,59.91970759,,,,,,,,10,Ontime,g,1,2.0889,6,0,24,1,1,,,,,
,1.83,,,,,,,,,h.PNG,h,610eedb873951ea1ebab3912,2021-09-08_20h55.26.500,forced_choiceRT,2021.1.2,Win32,59.91970759,,,,,,,,10,Ontime,h,1,2.0684,6,1,25,2,1,,,,,
,1.24,,,,,,,,,j.PNG,j,610eedb873951ea1ebab3912,2021-09-08_20h55.26.500,forced_choiceRT,2021.1.2,Win32,59.91970759,,,,,,,,10,Ontime,j,1,2.0181,6,2,26,3,1,,,,,
,0.91,,,,,,,,,g.PNG,g,610eedb873951ea1ebab3912,2021-09-08_20h55.26.500,forced_choiceRT,2021.1.2,Win32,59.91970759,,,,,,,,10,Ontime,g,1,2.0141,6,3,27,1,1,,,,,
,0.61,,,,,,,,,j.PNG,j,610eedb873951ea1ebab3912,2021-09-08_20h55.26.500,forced_choiceRT,2021.1.2,Win32,59.91970759,,,,,,,,10,Ontime,j,1,1.9353,7,0,28,3,1,,,,,
,1.9,,,,,,,,,h.PNG,h,610eedb873951ea1ebab3912,2021-09-08_20h55.26.500,forced_choiceRT,2021.1.2,Win32,59.91970759,,,,,,,,10,Slow,j,0,2.1351,7,1,29,2,1,,,,,
,1.21,,,,,,,,,h.PNG,h,610eedb873951ea1ebab3912,2021-09-08_20h55.26.500,forced_choiceRT,2021.1.2,Win32,59.91970759,,,,,,,,10,Ontime,h,1,1.9469,7,2,30,2,1,,,,,
,0.39,,,,,,,,,h.PNG,h,610eedb873951ea1ebab3912,2021-09-08_20h55.26.500,forced_choiceRT,2021.1.2,Win32,59.91970759,,,,,,,,10,Ontime,h,1,1.9387,7,3,31,2,1,,,,,
,1.18,,,,,,,,,g.PNG,g,610eedb873951ea1ebab3912,2021-09-08_20h55.26.500,forced_choiceRT,2021.1.2,Win32,59.91970759,,,,,,,,10,Ontime,g,1,2.052,8,0,32,1,1,,,,,
,1.82,,,,,,,,,f.PNG,f,610eedb873951ea1ebab3912,2021-09-08_20h55.26.500,forced_choiceRT,2021.1.2,Win32,59.91970759,,,,,,,,10,Ontime,j,0,1.9939,8,1,33,0,1,,,,,
,1.31,,,,,,,,,j.PNG,j,610eedb873951ea1ebab3912,2021-09-08_20h55.26.500,forced_choiceRT,2021.1.2,Win32,59.91970759,,,,,,,,10,Ontime,j,1,1.9842,8,2,34,3,1,,,,,
,1.07,,,,,,,,,h.PNG,h,610eedb873951ea1ebab3912,2021-09-08_20h55.26.500,forced_choiceRT,2021.1.2,Win32,59.91970759,,,,,,,,10,Ontime,h,1,2.0242,8,3,35,2,1,,,,,
,1.94,,,,,,,,,f.PNG,f,610eedb873951ea1ebab3912,2021-09-08_20h55.26.500,forced_choiceRT,2021.1.2,Win32,59.91970759,,,,,,,,10,Ontime,g,0,1.9518,9,0,36,0,1,,,,,
,1.5,,,,,,,,,f.PNG,f,610eedb873951ea1ebab3912,2021-09-08_20h55.26.500,forced_choiceRT,2021.1.2,Win32,59.91970759,,,,,,,,10,Slow,f,1,2.1016,9,1,37,0,1,,,,,
,0.35,,,,,,,,,g.PNG,g,610eedb873951ea1ebab3912,2021-09-08_20h55.26.500,forced_choiceRT,2021.1.2,Win32,59.91970759,,,,,,,,10,Ontime,g,1,1.9517,9,2,38,1,1,,,,,
,1.92,,,,,,,,,g.PNG,g,610eedb873951ea1ebab3912,2021-09-08_20h55.26.500,forced_choiceRT,2021.1.2,Win32,59.91970759,,,,,,,,10,Ontime,j,0,1.993,9,3,39,1,1,,,,,
,,,,,,,,,,,,610eedb873951ea1ebab3912,2021-09-08_20h55.26.500,forced_choiceRT,2021.1.2,Win32,59.91970759,,,,,,,,,,,,,,,,,,9,0,9,0,1
