IP_Addresss,target_onset,trial_resp_sp.keys,trial_resp_sp.corr,trial_resp_sp.rt,trials_train_loop.thisRepN,trials_train_loop.thisTrialN,trials_train_loop.thisN,trials_train_loop.thisIndex,trials_train_loop.ran,pic,correct_key,participant,date,expName,psychopyVersion,OS,frameRate,trial_resp_timing.keys,trial_resp_timing.rt,trials_train_timing.thisRepN,trials_train_timing.thisTrialN,trials_train_timing.thisN,trials_train_timing.thisIndex,trials_train_timing.ran,block_id,ontime,forcedRT_resp.keys,forcedRT_resp.corr,forcedRT_resp.rt,trials.thisRepN,trials.thisTrialN,trials.thisN,trials.thisIndex,trials.ran,blocks.thisRepN,blocks.thisTrialN,blocks.thisN,blocks.thisIndex,blocks.ran
100.11.199.199,0,f,1,4.869,0,0,0,0,1,f.PNG,f,6110c38319642536b289d716,2021-09-08_21h04.47.372,forced_choiceRT,2021.1.2,MacIntel,58.82352941,,,,,,,,,,,,,,,,,,,,,,
,0,j,1,1.5,0,1,1,3,1,j.PNG,j,6110c38319642536b289d716,2021-09-08_21h04.47.372,forced_choiceRT,2021.1.2,MacIntel,58.82352941,,,,,,,,,,,,,,,,,,,,,,
,0,g,1,1.117,0,2,2,1,1,g.PNG,g,6110c38319642536b289d716,2021-09-08_21h04.47.372,forced_choiceRT,2021.1.2,MacIntel,58.82352941,,,,,,,,,,,,,,,,,,,,,,
,0,f,1,5.283,0,3,3,0,1,f.PNG,f,6110c38319642536b289d716,2021-09-08_21h04.47.372,forced_choiceRT,2021.1.2,MacIntel,58.82352941,,,,,,,,,,,,,,,,,,,,,,
,0,j,1,3.425,1,0,4,3,1,j.PNG,j,6110c38319642536b289d716,2021-09-08_21h04.47.372,forced_choiceRT,2021.1.2,MacIntel,58.82352941,,,,,,,,,,,,,,,,,,,,,,
,0,f,1,1.152,1,1,5,0,1,f.PNG,f,6110c38319642536b289d716,2021-09-08_21h04.47.372,forced_choiceRT,2021.1.2,MacIntel,58.82352941,,,,,,,,,,,,,,,,,,,,,,
,0,j,1,1.166,1,2,6,3,1,j.PNG,j,6110c38319642536b289d716,2021-09-08_21h04.47.372,forced_choiceRT,2021.1.2,MacIntel,58.82352941,,,,,,,,,,,,,,,,,,,,,,
,0,f,1,2.025,1,3,7,0,1,f.PNG,f,6110c38319642536b289d716,2021-09-08_21h04.47.372,forced_choiceRT,2021.1.2,MacIntel,58.82352941,,,,,,,,,,,,,,,,,,,,,,
,0,h,1,1.495,2,0,8,2,1,h.PNG,h,6110c38319642536b289d716,2021-09-08_21h04.47.372,forced_choiceRT,2021.1.2,MacIntel,58.82352941,,,,,,,,,,,,,,,,,,,,,,
,0,g,1,1.707,2,1,9,1,1,g.PNG,g,6110c38319642536b289d716,2021-09-08_21h04.47.372,forced_choiceRT,2021.1.2,MacIntel,58.82352941,,,,,,,,,,,,,,,,,,,,,,
,0,f,1,0.72,2,2,10,0,1,f.PNG,f,6110c38319642536b289d716,2021-09-08_21h04.47.372,forced_choiceRT,2021.1.2,MacIntel,58.82352941,,,,,,,,,,,,,,,,,,,,,,
,0,h,1,1.86,2,3,11,2,1,h.PNG,h,6110c38319642536b289d716,2021-09-08_21h04.47.372,forced_choiceRT,2021.1.2,MacIntel,58.82352941,,,,,,,,,,,,,,,,,,,,,,
,0,g,1,1.9,3,0,12,1,1,g.PNG,g,6110c38319642536b289d716,2021-09-08_21h04.47.372,forced_choiceRT,2021.1.2,MacIntel,58.82352941,,,,,,,,,,,,,,,,,,,,,,
,0,j,1,1.151,3,1,13,3,1,j.PNG,j,6110c38319642536b289d716,2021-09-08_21h04.47.372,forced_choiceRT,2021.1.2,MacIntel,58.82352941,,,,,,,,,,,,,,,,,,,,,,
,0,f,1,1.134,3,2,14,0,1,f.PNG,f,6110c38319642536b289d716,2021-09-08_21h04.47.372,forced_choiceRT,2021.1.2,MacIntel,58.82352941,,,,,,,,,,,,,,,,,,,,,,
,0,f,1,0.808,3,3,15,0,1,f.PNG,f,6110c38319642536b289d716,2021-09-08_21h04.47.372,forced_choiceRT,2021.1.2,MacIntel,58.82352941,,,,,,,,,,,,,,,,,,,,,,
,0,g,1,0.885,4,0,16,1,1,g.PNG,g,6110c38319642536b289d716,2021-09-08_21h04.47.372,forced_choiceRT,2021.1.2,MacIntel,58.82352941,,,,,,,,,,,,,,,,,,,,,,
,0,f,1,1.016,4,1,17,0,1,f.PNG,f,6110c38319642536b289d716,2021-09-08_21h04.47.372,forced_choiceRT,2021.1.2,MacIntel,58.82352941,,,,,,,,,,,,,,,,,,,,,,
,0,f,1,0.65,4,2,18,0,1,f.PNG,f,6110c38319642536b289d716,2021-09-08_21h04.47.372,forced_choiceRT,2021.1.2,MacIntel,58.82352941,,,,,,,,,,,,,,,,,,,,,,
,0,g,1,0.882,4,3,19,1,1,g.PNG,g,6110c38319642536b289d716,2021-09-08_21h04.47.372,forced_choiceRT,2021.1.2,MacIntel,58.82352941,,,,,,,,,,,,,,,,,,,,,,
,0,j,1,0.919,5,0,20,3,1,j.PNG,j,6110c38319642536b289d716,2021-09-08_21h04.47.372,forced_choiceRT,2021.1.2,MacIntel,58.82352941,,,,,,,,,,,,,,,,,,,,,,
,0,j,1,1.703,5,1,21,3,1,j.PNG,j,6110c38319642536b289d716,2021-09-08_21h04.47.372,forced_choiceRT,2021.1.2,MacIntel,58.82352941,,,,,,,,,,,,,,,,,,,,,,
,0,j,1,1.684,5,2,22,3,1,j.PNG,j,6110c38319642536b289d716,2021-09-08_21h04.47.372,forced_choiceRT,2021.1.2,MacIntel,58.82352941,,,,,,,,,,,,,,,,,,,,,,
,0,g,1,0.975,5,3,23,1,1,g.PNG,g,6110c38319642536b289d716,2021-09-08_21h04.47.372,forced_choiceRT,2021.1.2,MacIntel,58.82352941,,,,,,,,,,,,,,,,,,,,,,
,0,g,1,2.276,6,0,24,1,1,g.PNG,g,6110c38319642536b289d716,2021-09-08_21h04.47.372,forced_choiceRT,2021.1.2,MacIntel,58.82352941,,,,,,,,,,,,,,,,,,,,,,
,0,h,1,0.99,6,1,25,2,1,h.PNG,h,6110c38319642536b289d716,2021-09-08_21h04.47.372,forced_choiceRT,2021.1.2,MacIntel,58.82352941,,,,,,,,,,,,,,,,,,,,,,
,0,h,1,0.494,6,2,26,2,1,h.PNG,h,6110c38319642536b289d716,2021-09-08_21h04.47.372,forced_choiceRT,2021.1.2,MacIntel,58.82352941,,,,,,,,,,,,,,,,,,,,,,
,0,h,1,0.444,6,3,27,2,1,h.PNG,h,6110c38319642536b289d716,2021-09-08_21h04.47.372,forced_choiceRT,2021.1.2,MacIntel,58.82352941,,,,,,,,,,,,,,,,,,,,,,
,0,g,1,0.882,7,0,28,1,1,g.PNG,g,6110c38319642536b289d716,2021-09-08_21h04.47.372,forced_choiceRT,2021.1.2,MacIntel,58.82352941,,,,,,,,,,,,,,,,,,,,,,
,0,h,1,2.06,7,1,29,2,1,h.PNG,h,6110c38319642536b289d716,2021-09-08_21h04.47.372,forced_choiceRT,2021.1.2,MacIntel,58.82352941,,,,,,,,,,,,,,,,,,,,,,
,0,j,1,1.043,7,2,30,3,1,j.PNG,j,6110c38319642536b289d716,2021-09-08_21h04.47.372,forced_choiceRT,2021.1.2,MacIntel,58.82352941,,,,,,,,,,,,,,,,,,,,,,
,0,j,1,0.66,7,3,31,3,1,j.PNG,j,6110c38319642536b289d716,2021-09-08_21h04.47.372,forced_choiceRT,2021.1.2,MacIntel,58.82352941,,,,,,,,,,,,,,,,,,,,,,
,0,h,1,2.324,8,0,32,2,1,h.PNG,h,6110c38319642536b289d716,2021-09-08_21h04.47.372,forced_choiceRT,2021.1.2,MacIntel,58.82352941,,,,,,,,,,,,,,,,,,,,,,
,0,j,1,1.207,8,1,33,3,1,j.PNG,j,6110c38319642536b289d716,2021-09-08_21h04.47.372,forced_choiceRT,2021.1.2,MacIntel,58.82352941,,,,,,,,,,,,,,,,,,,,,,
,0,g,1,0.939,8,2,34,1,1,g.PNG,g,6110c38319642536b289d716,2021-09-08_21h04.47.372,forced_choiceRT,2021.1.2,MacIntel,58.82352941,,,,,,,,,,,,,,,,,,,,,,
,0,j,1,1.09,8,3,35,3,1,j.PNG,j,6110c38319642536b289d716,2021-09-08_21h04.47.372,forced_choiceRT,2021.1.2,MacIntel,58.82352941,,,,,,,,,,,,,,,,,,,,,,
,0,h,1,2.157,9,0,36,2,1,h.PNG,h,6110c38319642536b289d716,2021-09-08_21h04.47.372,forced_choiceRT,2021.1.2,MacIntel,58.82352941,,,,,,,,,,,,,,,,,,,,,,
,0,f,1,0.978,9,1,37,0,1,f.PNG,f,6110c38319642536b289d716,2021-09-08_21h04.47.372,forced_choiceRT,2021.1.2,MacIntel,58.82352941,,,,,,,,,,,,,,,,,,,,,,
,0,g,1,0.914,9,2,38,1,1,g.PNG,g,6110c38319642536b289d716,2021-09-08_21h04.47.372,forced_choiceRT,2021.1.2,MacIntel,58.82352941,,,,,,,,,,,,,,,,,,,,,,
,0,f,1,0.678,9,3,39,0,1,f.PNG,f,6110c38319642536b289d716,2021-09-08_21h04.47.372,forced_choiceRT,2021.1.2,MacIntel,58.82352941,,,,,,,,,,,,,,,,,,,,,,
,0,h,1,1.003,10,0,40,2,1,h.PNG,h,6110c38319642536b289d716,2021-09-08_21h04.47.372,forced_choiceRT,2021.1.2,MacIntel,58.82352941,,,,,,,,,,,,,,,,,,,,,,
,0,f,1,0.7,10,1,41,0,1,f.PNG,f,6110c38319642536b289d716,2021-09-08_21h04.47.372,forced_choiceRT,2021.1.2,MacIntel,58.82352941,,,,,,,,,,,,,,,,,,,,,,
,0,h,1,2.772,10,2,42,2,1,h.PNG,h,6110c38319642536b289d716,2021-09-08_21h04.47.372,forced_choiceRT,2021.1.2,MacIntel,58.82352941,,,,,,,,,,,,,,,,,,,,,,
,0,g,1,0.938,10,3,43,1,1,g.PNG,g,6110c38319642536b289d716,2021-09-08_21h04.47.372,forced_choiceRT,2021.1.2,MacIntel,58.82352941,,,,,,,,,,,,,,,,,,,,,,
,0,f,1,0.585,11,0,44,0,1,f.PNG,f,6110c38319642536b289d716,2021-09-08_21h04.47.372,forced_choiceRT,2021.1.2,MacIntel,58.82352941,,,,,,,,,,,,,,,,,,,,,,
,0,h,1,1.034,11,1,45,2,1,h.PNG,h,6110c38319642536b289d716,2021-09-08_21h04.47.372,forced_choiceRT,2021.1.2,MacIntel,58.82352941,,,,,,,,,,,,,,,,,,,,,,
,0,f,1,0.7,11,2,46,0,1,f.PNG,f,6110c38319642536b289d716,2021-09-08_21h04.47.372,forced_choiceRT,2021.1.2,MacIntel,58.82352941,,,,,,,,,,,,,,,,,,,,,,
,0,g,1,0.932,11,3,47,1,1,g.PNG,g,6110c38319642536b289d716,2021-09-08_21h04.47.372,forced_choiceRT,2021.1.2,MacIntel,58.82352941,,,,,,,,,,,,,,,,,,,,,,
,0,h,1,1.118,12,0,48,2,1,h.PNG,h,6110c38319642536b289d716,2021-09-08_21h04.47.372,forced_choiceRT,2021.1.2,MacIntel,58.82352941,,,,,,,,,,,,,,,,,,,,,,
,0,h,1,2.24,12,1,49,2,1,h.PNG,h,6110c38319642536b289d716,2021-09-08_21h04.47.372,forced_choiceRT,2021.1.2,MacIntel,58.82352941,,,,,,,,,,,,,,,,,,,,,,
,0,h,1,0.908,12,2,50,2,1,h.PNG,h,6110c38319642536b289d716,2021-09-08_21h04.47.372,forced_choiceRT,2021.1.2,MacIntel,58.82352941,,,,,,,,,,,,,,,,,,,,,,
,0,j,1,0.964,12,3,51,3,1,j.PNG,j,6110c38319642536b289d716,2021-09-08_21h04.47.372,forced_choiceRT,2021.1.2,MacIntel,58.82352941,,,,,,,,,,,,,,,,,,,,,,
,0,j,1,0.708,13,0,52,3,1,j.PNG,j,6110c38319642536b289d716,2021-09-08_21h04.47.372,forced_choiceRT,2021.1.2,MacIntel,58.82352941,,,,,,,,,,,,,,,,,,,,,,
,0,j,1,0.574,13,1,53,3,1,j.PNG,j,6110c38319642536b289d716,2021-09-08_21h04.47.372,forced_choiceRT,2021.1.2,MacIntel,58.82352941,,,,,,,,,,,,,,,,,,,,,,
,0,g,1,1.107,13,2,54,1,1,g.PNG,g,6110c38319642536b289d716,2021-09-08_21h04.47.372,forced_choiceRT,2021.1.2,MacIntel,58.82352941,,,,,,,,,,,,,,,,,,,,,,
,0,g,1,0.633,13,3,55,1,1,g.PNG,g,6110c38319642536b289d716,2021-09-08_21h04.47.372,forced_choiceRT,2021.1.2,MacIntel,58.82352941,,,,,,,,,,,,,,,,,,,,,,
,0,j,1,1.159,14,0,56,3,1,j.PNG,j,6110c38319642536b289d716,2021-09-08_21h04.47.372,forced_choiceRT,2021.1.2,MacIntel,58.82352941,,,,,,,,,,,,,,,,,,,,,,
,0,g,1,0.826,14,1,57,1,1,g.PNG,g,6110c38319642536b289d716,2021-09-08_21h04.47.372,forced_choiceRT,2021.1.2,MacIntel,58.82352941,,,,,,,,,,,,,,,,,,,,,,
,0,h,1,1.118,14,2,58,2,1,h.PNG,h,6110c38319642536b289d716,2021-09-08_21h04.47.372,forced_choiceRT,2021.1.2,MacIntel,58.82352941,,,,,,,,,,,,,,,,,,,,,,
,0,f,1,0.892,14,3,59,0,1,f.PNG,f,6110c38319642536b289d716,2021-09-08_21h04.47.372,forced_choiceRT,2021.1.2,MacIntel,58.82352941,,,,,,,,,,,,,,,,,,,,,,
,,,,,,,,,,,,6110c38319642536b289d716,2021-09-08_21h04.47.372,forced_choiceRT,2021.1.2,MacIntel,58.82352941,f,2.227,0,0,0,0,1,,,,,,,,,,,,,,,
,,,,,,,,,,,,6110c38319642536b289d716,2021-09-08_21h04.47.372,forced_choiceRT,2021.1.2,MacIntel,58.82352941,f,1.785,1,0,1,0,1,,,,,,,,,,,,,,,
,,,,,,,,,,,,6110c38319642536b289d716,2021-09-08_21h04.47.372,forced_choiceRT,2021.1.2,MacIntel,58.82352941,j,1.887,2,0,2,0,1,,,,,,,,,,,,,,,
,,,,,,,,,,,,6110c38319642536b289d716,2021-09-08_21h04.47.372,forced_choiceRT,2021.1.2,MacIntel,58.82352941,j,1.979,3,0,3,0,1,,,,,,,,,,,,,,,
,,,,,,,,,,,,6110c38319642536b289d716,2021-09-08_21h04.47.372,forced_choiceRT,2021.1.2,MacIntel,58.82352941,h,1.85,4,0,4,0,1,,,,,,,,,,,,,,,
,,,,,,,,,,,,6110c38319642536b289d716,2021-09-08_21h04.47.372,forced_choiceRT,2021.1.2,MacIntel,58.82352941,g,2.011,5,0,5,0,1,,,,,,,,,,,,,,,
,,,,,,,,,,,,6110c38319642536b289d716,2021-09-08_21h04.47.372,forced_choiceRT,2021.1.2,MacIntel,58.82352941,f,1.926,6,0,6,0,1,,,,,,,,,,,,,,,
,,,,,,,,,,,,6110c38319642536b289d716,2021-09-08_21h04.47.372,forced_choiceRT,2021.1.2,MacIntel,58.82352941,g,1.968,7,0,7,0,1,,,,,,,,,,,,,,,
,,,,,,,,,,,,6110c38319642536b289d716,2021-09-08_21h04.47.372,forced_choiceRT,2021.1.2,MacIntel,58.82352941,h,2.017,8,0,8,0,1,,,,,,,,,,,,,,,
,,,,,,,,,,,,6110c38319642536b289d716,2021-09-08_21h04.47.372,forced_choiceRT,2021.1.2,MacIntel,58.82352941,j,1.993,9,0,9,0,1,,,,,,,,,,,,,,,
,,,,,,,,,,,,6110c38319642536b289d716,2021-09-08_21h04.47.372,forced_choiceRT,2021.1.2,MacIntel,58.82352941,f,1.832,10,0,10,0,1,,,,,,,,,,,,,,,
,,,,,,,,,,,,6110c38319642536b289d716,2021-09-08_21h04.47.372,forced_choiceRT,2021.1.2,MacIntel,58.82352941,j,1.904,11,0,11,0,1,,,,,,,,,,,,,,,
,,,,,,,,,,,,6110c38319642536b289d716,2021-09-08_21h04.47.372,forced_choiceRT,2021.1.2,MacIntel,58.82352941,h,2.026,12,0,12,0,1,,,,,,,,,,,,,,,
,,,,,,,,,,,,6110c38319642536b289d716,2021-09-08_21h04.47.372,forced_choiceRT,2021.1.2,MacIntel,58.82352941,g,2.059,13,0,13,0,1,,,,,,,,,,,,,,,
,,,,,,,,,,,,6110c38319642536b289d716,2021-09-08_21h04.47.372,forced_choiceRT,2021.1.2,MacIntel,58.82352941,f,1.908,14,0,14,0,1,,,,,,,,,,,,,,,
,,,,,,,,,,,,6110c38319642536b289d716,2021-09-08_21h04.47.372,forced_choiceRT,2021.1.2,MacIntel,58.82352941,j,1.942,15,0,15,0,1,,,,,,,,,,,,,,,
,,,,,,,,,,,,6110c38319642536b289d716,2021-09-08_21h04.47.372,forced_choiceRT,2021.1.2,MacIntel,58.82352941,h,2.02,16,0,16,0,1,,,,,,,,,,,,,,,
,,,,,,,,,,,,6110c38319642536b289d716,2021-09-08_21h04.47.372,forced_choiceRT,2021.1.2,MacIntel,58.82352941,f,1.917,17,0,17,0,1,,,,,,,,,,,,,,,
,,,,,,,,,,,,6110c38319642536b289d716,2021-09-08_21h04.47.372,forced_choiceRT,2021.1.2,MacIntel,58.82352941,g,1.868,18,0,18,0,1,,,,,,,,,,,,,,,
,,,,,,,,,,,,6110c38319642536b289d716,2021-09-08_21h04.47.372,forced_choiceRT,2021.1.2,MacIntel,58.82352941,g,1.843,19,0,19,0,1,,,,,,,,,,,,,,,
,0.12,,,,,,,,,j.PNG,j,6110c38319642536b289d716,2021-09-08_21h04.47.372,forced_choiceRT,2021.1.2,MacIntel,58.82352941,,,,,,,,1,Slow,j,1,2.105,0,0,0,3,1,,,,,
,0.48,,,,,,,,,f.PNG,f,6110c38319642536b289d716,2021-09-08_21h04.47.372,forced_choiceRT,2021.1.2,MacIntel,58.82352941,,,,,,,,1,Ontime,f,1,1.903,0,1,1,0,1,,,,,
,1.68,,,,,,,,,f.PNG,f,6110c38319642536b289d716,2021-09-08_21h04.47.372,forced_choiceRT,2021.1.2,MacIntel,58.82352941,,,,,,,,1,Slow,f,1,2.439,0,2,2,0,1,,,,,
,0.6,,,,,,,,,j.PNG,j,6110c38319642536b289d716,2021-09-08_21h04.47.372,forced_choiceRT,2021.1.2,MacIntel,58.82352941,,,,,,,,1,Ontime,j,1,2.009,0,3,3,3,1,,,,,
,1.55,,,,,,,,,j.PNG,j,6110c38319642536b289d716,2021-09-08_21h04.47.372,forced_choiceRT,2021.1.2,MacIntel,58.82352941,,,,,,,,1,Slow,j,1,2.243,1,0,4,3,1,,,,,
,0.83,,,,,,,,,h.PNG,h,6110c38319642536b289d716,2021-09-08_21h04.47.372,forced_choiceRT,2021.1.2,MacIntel,58.82352941,,,,,,,,1,Ontime,h,1,2.05,1,1,5,2,1,,,,,
,0.23,,,,,,,,,f.PNG,f,6110c38319642536b289d716,2021-09-08_21h04.47.372,forced_choiceRT,2021.1.2,MacIntel,58.82352941,,,,,,,,1,Ontime,f,1,1.933,1,2,6,0,1,,,,,
,0.46,,,,,,,,,f.PNG,f,6110c38319642536b289d716,2021-09-08_21h04.47.372,forced_choiceRT,2021.1.2,MacIntel,58.82352941,,,,,,,,1,Ontime,f,1,2.094,1,3,7,0,1,,,,,
,0.18,,,,,,,,,f.PNG,f,6110c38319642536b289d716,2021-09-08_21h04.47.372,forced_choiceRT,2021.1.2,MacIntel,58.82352941,,,,,,,,1,Ontime,f,1,2.012,2,0,8,0,1,,,,,
,1.66,,,,,,,,,h.PNG,h,6110c38319642536b289d716,2021-09-08_21h04.47.372,forced_choiceRT,2021.1.2,MacIntel,58.82352941,,,,,,,,1,Slow,g,0,12.826,2,1,9,2,1,,,,,
,0.47,,,,,,,,,h.PNG,h,6110c38319642536b289d716,2021-09-08_21h04.47.372,forced_choiceRT,2021.1.2,MacIntel,58.82352941,,,,,,,,1,Ontime,h,1,1.959,2,2,10,2,1,,,,,
,1.51,,,,,,,,,f.PNG,f,6110c38319642536b289d716,2021-09-08_21h04.47.372,forced_choiceRT,2021.1.2,MacIntel,58.82352941,,,,,,,,1,Slow,f,1,2.138,2,3,11,0,1,,,,,
,1.47,,,,,,,,,f.PNG,f,6110c38319642536b289d716,2021-09-08_21h04.47.372,forced_choiceRT,2021.1.2,MacIntel,58.82352941,,,,,,,,1,Ontime,f,1,2.084,3,0,12,0,1,,,,,
,0.8,,,,,,,,,g.PNG,g,6110c38319642536b289d716,2021-09-08_21h04.47.372,forced_choiceRT,2021.1.2,MacIntel,58.82352941,,,,,,,,1,Fast,g,1,1.837,3,1,13,1,1,,,,,
,1.39,,,,,,,,,g.PNG,g,6110c38319642536b289d716,2021-09-08_21h04.47.372,forced_choiceRT,2021.1.2,MacIntel,58.82352941,,,,,,,,1,Ontime,g,1,2.078,3,2,14,1,1,,,,,
,0.38,,,,,,,,,j.PNG,j,6110c38319642536b289d716,2021-09-08_21h04.47.372,forced_choiceRT,2021.1.2,MacIntel,58.82352941,,,,,,,,1,Ontime,j,1,1.936,3,3,15,3,1,,,,,
,0.69,,,,,,,,,j.PNG,j,6110c38319642536b289d716,2021-09-08_21h04.47.372,forced_choiceRT,2021.1.2,MacIntel,58.82352941,,,,,,,,1,Slow,j,1,2.148,4,0,16,3,1,,,,,
,1.27,,,,,,,,,f.PNG,f,6110c38319642536b289d716,2021-09-08_21h04.47.372,forced_choiceRT,2021.1.2,MacIntel,58.82352941,,,,,,,,1,Fast,f,1,1.896,4,1,17,0,1,,,,,
,0.35,,,,,,,,,j.PNG,j,6110c38319642536b289d716,2021-09-08_21h04.47.372,forced_choiceRT,2021.1.2,MacIntel,58.82352941,,,,,,,,1,Slow,j,1,2.158,4,2,18,3,1,,,,,
,1.34,,,,,,,,,j.PNG,j,6110c38319642536b289d716,2021-09-08_21h04.47.372,forced_choiceRT,2021.1.2,MacIntel,58.82352941,,,,,,,,1,Ontime,j,1,1.96,4,3,19,3,1,,,,,
,0.41,,,,,,,,,h.PNG,h,6110c38319642536b289d716,2021-09-08_21h04.47.372,forced_choiceRT,2021.1.2,MacIntel,58.82352941,,,,,,,,1,Ontime,h,1,2.01,5,0,20,2,1,,,,,
,0.11,,,,,,,,,g.PNG,g,6110c38319642536b289d716,2021-09-08_21h04.47.372,forced_choiceRT,2021.1.2,MacIntel,58.82352941,,,,,,,,1,Slow,g,1,2.1,5,1,21,1,1,,,,,
,0.64,,,,,,,,,j.PNG,j,6110c38319642536b289d716,2021-09-08_21h04.47.372,forced_choiceRT,2021.1.2,MacIntel,58.82352941,,,,,,,,1,Slow,j,1,2.131,5,2,22,3,1,,,,,
,1.51,,,,,,,,,g.PNG,g,6110c38319642536b289d716,2021-09-08_21h04.47.372,forced_choiceRT,2021.1.2,MacIntel,58.82352941,,,,,,,,1,Slow,g,1,2.184,5,3,23,1,1,,,,,
,1.43,,,,,,,,,f.PNG,f,6110c38319642536b289d716,2021-09-08_21h04.47.372,forced_choiceRT,2021.1.2,MacIntel,58.82352941,,,,,,,,1,Ontime,f,1,1.986,6,0,24,0,1,,,,,
,0.17,,,,,,,,,h.PNG,h,6110c38319642536b289d716,2021-09-08_21h04.47.372,forced_choiceRT,2021.1.2,MacIntel,58.82352941,,,,,,,,1,Ontime,h,1,2.007,6,1,25,2,1,,,,,
,1.01,,,,,,,,,f.PNG,f,6110c38319642536b289d716,2021-09-08_21h04.47.372,forced_choiceRT,2021.1.2,MacIntel,58.82352941,,,,,,,,1,Fast,f,1,1.783,6,2,26,0,1,,,,,
,1.63,,,,,,,,,g.PNG,g,6110c38319642536b289d716,2021-09-08_21h04.47.372,forced_choiceRT,2021.1.2,MacIntel,58.82352941,,,,,,,,1,Slow,g,1,2.226,6,3,27,1,1,,,,,
,1.86,,,,,,,,,h.PNG,h,6110c38319642536b289d716,2021-09-08_21h04.47.372,forced_choiceRT,2021.1.2,MacIntel,58.82352941,,,,,,,,1,Slow,h,1,3.892,7,0,28,2,1,,,,,
,0.39,,,,,,,,,h.PNG,h,6110c38319642536b289d716,2021-09-08_21h04.47.372,forced_choiceRT,2021.1.2,MacIntel,58.82352941,,,,,,,,1,Ontime,h,1,1.992,7,1,29,2,1,,,,,
,0.89,,,,,,,,,g.PNG,g,6110c38319642536b289d716,2021-09-08_21h04.47.372,forced_choiceRT,2021.1.2,MacIntel,58.82352941,,,,,,,,1,Fast,g,1,1.844,7,2,30,1,1,,,,,
,1.71,,,,,,,,,g.PNG,g,6110c38319642536b289d716,2021-09-08_21h04.47.372,forced_choiceRT,2021.1.2,MacIntel,58.82352941,,,,,,,,1,Slow,g,1,2.17,7,3,31,1,1,,,,,
,1.97,,,,,,,,,g.PNG,g,6110c38319642536b289d716,2021-09-08_21h04.47.372,forced_choiceRT,2021.1.2,MacIntel,58.82352941,,,,,,,,1,Ontime,f,0,2.085,8,0,32,1,1,,,,,
,1.8,,,,,,,,,g.PNG,g,6110c38319642536b289d716,2021-09-08_21h04.47.372,forced_choiceRT,2021.1.2,MacIntel,58.82352941,,,,,,,,1,Slow,g,1,2.211,8,1,33,1,1,,,,,
,1.73,,,,,,,,,h.PNG,h,6110c38319642536b289d716,2021-09-08_21h04.47.372,forced_choiceRT,2021.1.2,MacIntel,58.82352941,,,,,,,,1,Slow,f,0,2.11,8,2,34,2,1,,,,,
,1.12,,,,,,,,,h.PNG,h,6110c38319642536b289d716,2021-09-08_21h04.47.372,forced_choiceRT,2021.1.2,MacIntel,58.82352941,,,,,,,,1,Ontime,h,1,2.042,8,3,35,2,1,,,,,
,0.72,,,,,,,,,j.PNG,j,6110c38319642536b289d716,2021-09-08_21h04.47.372,forced_choiceRT,2021.1.2,MacIntel,58.82352941,,,,,,,,1,Fast,j,1,1.79,9,0,36,3,1,,,,,
,1.11,,,,,,,,,h.PNG,h,6110c38319642536b289d716,2021-09-08_21h04.47.372,forced_choiceRT,2021.1.2,MacIntel,58.82352941,,,,,,,,1,Ontime,h,1,2.001,9,1,37,2,1,,,,,
,0.25,,,,,,,,,j.PNG,j,6110c38319642536b289d716,2021-09-08_21h04.47.372,forced_choiceRT,2021.1.2,MacIntel,58.82352941,,,,,,,,1,Ontime,j,1,1.911,9,2,38,3,1,,,,,
,0.12,,,,,,,,,g.PNG,g,6110c38319642536b289d716,2021-09-08_21h04.47.372,forced_choiceRT,2021.1.2,MacIntel,58.82352941,,,,,,,,1,Fast,g,1,1.534,9,3,39,1,1,,,,,
,,,,,,,,,,,,6110c38319642536b289d716,2021-09-08_21h04.47.372,forced_choiceRT,2021.1.2,MacIntel,58.82352941,,,,,,,,,,,,,,,,,,0,0,0,0,1
,0.2,,,,,,,,,h.PNG,h,6110c38319642536b289d716,2021-09-08_21h04.47.372,forced_choiceRT,2021.1.2,MacIntel,58.82352941,,,,,,,,2,Fast,h,1,1.826,0,0,0,2,1,,,,,
,1.7,,,,,,,,,h.PNG,h,6110c38319642536b289d716,2021-09-08_21h04.47.372,forced_choiceRT,2021.1.2,MacIntel,58.82352941,,,,,,,,2,Slow,h,1,2.296,0,1,1,2,1,,,,,
,0.71,,,,,,,,,h.PNG,h,6110c38319642536b289d716,2021-09-08_21h04.47.372,forced_choiceRT,2021.1.2,MacIntel,58.82352941,,,,,,,,2,Ontime,h,1,2.003,0,2,2,2,1,,,,,
,0.11,,,,,,,,,h.PNG,h,6110c38319642536b289d716,2021-09-08_21h04.47.372,forced_choiceRT,2021.1.2,MacIntel,58.82352941,,,,,,,,2,Ontime,h,1,1.963,0,3,3,2,1,,,,,
,0.96,,,,,,,,,g.PNG,g,6110c38319642536b289d716,2021-09-08_21h04.47.372,forced_choiceRT,2021.1.2,MacIntel,58.82352941,,,,,,,,2,Fast,g,1,1.833,1,0,4,1,1,,,,,
,0.77,,,,,,,,,g.PNG,g,6110c38319642536b289d716,2021-09-08_21h04.47.372,forced_choiceRT,2021.1.2,MacIntel,58.82352941,,,,,,,,2,Slow,g,1,2.116,1,1,5,1,1,,,,,
,1.83,,,,,,,,,f.PNG,f,6110c38319642536b289d716,2021-09-08_21h04.47.372,forced_choiceRT,2021.1.2,MacIntel,58.82352941,,,,,,,,2,Slow,g,0,2.352,1,2,6,0,1,,,,,
,0.06,,,,,,,,,h.PNG,h,6110c38319642536b289d716,2021-09-08_21h04.47.372,forced_choiceRT,2021.1.2,MacIntel,58.82352941,,,,,,,,2,Ontime,h,1,1.987,1,3,7,2,1,,,,,
,0.39,,,,,,,,,g.PNG,g,6110c38319642536b289d716,2021-09-08_21h04.47.372,forced_choiceRT,2021.1.2,MacIntel,58.82352941,,,,,,,,2,Ontime,g,1,1.976,2,0,8,1,1,,,,,
,0.22,,,,,,,,,j.PNG,j,6110c38319642536b289d716,2021-09-08_21h04.47.372,forced_choiceRT,2021.1.2,MacIntel,58.82352941,,,,,,,,2,Ontime,j,1,1.996,2,1,9,3,1,,,,,
,1.83,,,,,,,,,f.PNG,f,6110c38319642536b289d716,2021-09-08_21h04.47.372,forced_choiceRT,2021.1.2,MacIntel,58.82352941,,,,,,,,2,Slow,f,1,2.161,2,2,10,0,1,,,,,
,0.13,,,,,,,,,j.PNG,j,6110c38319642536b289d716,2021-09-08_21h04.47.372,forced_choiceRT,2021.1.2,MacIntel,58.82352941,,,,,,,,2,Ontime,j,1,1.976,2,3,11,3,1,,,,,
,1.46,,,,,,,,,g.PNG,g,6110c38319642536b289d716,2021-09-08_21h04.47.372,forced_choiceRT,2021.1.2,MacIntel,58.82352941,,,,,,,,2,Slow,h,0,2.442,3,0,12,1,1,,,,,
,1.23,,,,,,,,,j.PNG,j,6110c38319642536b289d716,2021-09-08_21h04.47.372,forced_choiceRT,2021.1.2,MacIntel,58.82352941,,,,,,,,2,Slow,j,1,2.172,3,1,13,3,1,,,,,
,1.55,,,,,,,,,j.PNG,j,6110c38319642536b289d716,2021-09-08_21h04.47.372,forced_choiceRT,2021.1.2,MacIntel,58.82352941,,,,,,,,2,Ontime,j,1,2.048,3,2,14,3,1,,,,,
,0.62,,,,,,,,,j.PNG,j,6110c38319642536b289d716,2021-09-08_21h04.47.372,forced_choiceRT,2021.1.2,MacIntel,58.82352941,,,,,,,,2,Ontime,j,1,2.035,3,3,15,3,1,,,,,
,0.67,,,,,,,,,f.PNG,f,6110c38319642536b289d716,2021-09-08_21h04.47.372,forced_choiceRT,2021.1.2,MacIntel,58.82352941,,,,,,,,2,Ontime,f,1,1.967,4,0,16,0,1,,,,,
,0.21,,,,,,,,,j.PNG,j,6110c38319642536b289d716,2021-09-08_21h04.47.372,forced_choiceRT,2021.1.2,MacIntel,58.82352941,,,,,,,,2,Fast,j,1,1.878,4,1,17,3,1,,,,,
,0.6,,,,,,,,,f.PNG,f,6110c38319642536b289d716,2021-09-08_21h04.47.372,forced_choiceRT,2021.1.2,MacIntel,58.82352941,,,,,,,,2,Ontime,f,1,2.009,4,2,18,0,1,,,,,
,0.25,,,,,,,,,f.PNG,f,6110c38319642536b289d716,2021-09-08_21h04.47.372,forced_choiceRT,2021.1.2,MacIntel,58.82352941,,,,,,,,2,Fast,f,1,1.796,4,3,19,0,1,,,,,
,1.72,,,,,,,,,h.PNG,h,6110c38319642536b289d716,2021-09-08_21h04.47.372,forced_choiceRT,2021.1.2,MacIntel,58.82352941,,,,,,,,2,Slow,j,0,2.209,5,0,20,2,1,,,,,
,1.39,,,,,,,,,h.PNG,h,6110c38319642536b289d716,2021-09-08_21h04.47.372,forced_choiceRT,2021.1.2,MacIntel,58.82352941,,,,,,,,2,Ontime,h,1,2.012,5,1,21,2,1,,,,,
,1,,,,,,,,,g.PNG,g,6110c38319642536b289d716,2021-09-08_21h04.47.372,forced_choiceRT,2021.1.2,MacIntel,58.82352941,,,,,,,,2,Ontime,g,1,2.06,5,2,22,1,1,,,,,
,1.64,,,,,,,,,j.PNG,j,6110c38319642536b289d716,2021-09-08_21h04.47.372,forced_choiceRT,2021.1.2,MacIntel,58.82352941,,,,,,,,2,Slow,h,0,2.172,5,3,23,3,1,,,,,
,1.94,,,,,,,,,h.PNG,h,6110c38319642536b289d716,2021-09-08_21h04.47.372,forced_choiceRT,2021.1.2,MacIntel,58.82352941,,,,,,,,2,Slow,h,1,3.285,6,0,24,2,1,,,,,
,0.62,,,,,,,,,h.PNG,h,6110c38319642536b289d716,2021-09-08_21h04.47.372,forced_choiceRT,2021.1.2,MacIntel,58.82352941,,,,,,,,2,Ontime,h,1,1.902,6,1,25,2,1,,,,,
,0.85,,,,,,,,,g.PNG,g,6110c38319642536b289d716,2021-09-08_21h04.47.372,forced_choiceRT,2021.1.2,MacIntel,58.82352941,,,,,,,,2,Fast,g,1,1.796,6,2,26,1,1,,,,,
,0.9,,,,,,,,,f.PNG,f,6110c38319642536b289d716,2021-09-08_21h04.47.372,forced_choiceRT,2021.1.2,MacIntel,58.82352941,,,,,,,,2,Ontime,f,1,2.009,6,3,27,0,1,,,,,
,1.56,,,,,,,,,f.PNG,f,6110c38319642536b289d716,2021-09-08_21h04.47.372,forced_choiceRT,2021.1.2,MacIntel,58.82352941,,,,,,,,2,Ontime,f,1,2.029,7,0,28,0,1,,,,,
,0.47,,,,,,,,,g.PNG,g,6110c38319642536b289d716,2021-09-08_21h04.47.372,forced_choiceRT,2021.1.2,MacIntel,58.82352941,,,,,,,,2,Fast,g,1,1.819,7,1,29,1,1,,,,,
,1.97,,,,,,,,,h.PNG,h,6110c38319642536b289d716,2021-09-08_21h04.47.372,forced_choiceRT,2021.1.2,MacIntel,58.82352941,,,,,,,,2,Slow,h,1,2.845,7,2,30,2,1,,,,,
,0.41,,,,,,,,,g.PNG,g,6110c38319642536b289d716,2021-09-08_21h04.47.372,forced_choiceRT,2021.1.2,MacIntel,58.82352941,,,,,,,,2,Fast,g,1,1.773,7,3,31,1,1,,,,,
,1.31,,,,,,,,,j.PNG,j,6110c38319642536b289d716,2021-09-08_21h04.47.372,forced_choiceRT,2021.1.2,MacIntel,58.82352941,,,,,,,,2,Ontime,j,1,1.986,8,0,32,3,1,,,,,
,0.24,,,,,,,,,f.PNG,f,6110c38319642536b289d716,2021-09-08_21h04.47.372,forced_choiceRT,2021.1.2,MacIntel,58.82352941,,,,,,,,2,Ontime,f,1,2.014,8,1,33,0,1,,,,,
,0.46,,,,,,,,,f.PNG,f,6110c38319642536b289d716,2021-09-08_21h04.47.372,forced_choiceRT,2021.1.2,MacIntel,58.82352941,,,,,,,,2,Ontime,f,1,1.953,8,2,34,0,1,,,,,
,0.68,,,,,,,,,j.PNG,j,6110c38319642536b289d716,2021-09-08_21h04.47.372,forced_choiceRT,2021.1.2,MacIntel,58.82352941,,,,,,,,2,Ontime,j,1,2.004,8,3,35,3,1,,,,,
,1.25,,,,,,,,,j.PNG,j,6110c38319642536b289d716,2021-09-08_21h04.47.372,forced_choiceRT,2021.1.2,MacIntel,58.82352941,,,,,,,,2,Fast,j,1,1.9,9,0,36,3,1,,,,,
,0.58,,,,,,,,,f.PNG,f,6110c38319642536b289d716,2021-09-08_21h04.47.372,forced_choiceRT,2021.1.2,MacIntel,58.82352941,,,,,,,,2,Ontime,f,1,2.043,9,1,37,0,1,,,,,
,0.83,,,,,,,,,g.PNG,g,6110c38319642536b289d716,2021-09-08_21h04.47.372,forced_choiceRT,2021.1.2,MacIntel,58.82352941,,,,,,,,2,Slow,g,1,2.149,9,2,38,1,1,,,,,
,0.46,,,,,,,,,g.PNG,g,6110c38319642536b289d716,2021-09-08_21h04.47.372,forced_choiceRT,2021.1.2,MacIntel,58.82352941,,,,,,,,2,Ontime,g,1,2.052,9,3,39,1,1,,,,,
,,,,,,,,,,,,6110c38319642536b289d716,2021-09-08_21h04.47.372,forced_choiceRT,2021.1.2,MacIntel,58.82352941,,,,,,,,,,,,,,,,,,1,0,1,0,1
,0,,,,,,,,,g.PNG,g,6110c38319642536b289d716,2021-09-08_21h04.47.372,forced_choiceRT,2021.1.2,MacIntel,58.82352941,,,,,,,,3,Ontime,g,1,2.016,0,0,0,1,1,,,,,
,1.53,,,,,,,,,j.PNG,j,6110c38319642536b289d716,2021-09-08_21h04.47.372,forced_choiceRT,2021.1.2,MacIntel,58.82352941,,,,,,,,3,Slow,j,1,2.317,0,1,1,3,1,,,,,
,0.24,,,,,,,,,f.PNG,f,6110c38319642536b289d716,2021-09-08_21h04.47.372,forced_choiceRT,2021.1.2,MacIntel,58.82352941,,,,,,,,3,Ontime,f,1,1.933,0,2,2,0,1,,,,,
,1.47,,,,,,,,,f.PNG,f,6110c38319642536b289d716,2021-09-08_21h04.47.372,forced_choiceRT,2021.1.2,MacIntel,58.82352941,,,,,,,,3,Ontime,f,1,2.059,0,3,3,0,1,,,,,
,1.64,,,,,,,,,g.PNG,g,6110c38319642536b289d716,2021-09-08_21h04.47.372,forced_choiceRT,2021.1.2,MacIntel,58.82352941,,,,,,,,3,Slow,h,0,2.192,1,0,4,1,1,,,,,
,1.57,,,,,,,,,h.PNG,h,6110c38319642536b289d716,2021-09-08_21h04.47.372,forced_choiceRT,2021.1.2,MacIntel,58.82352941,,,,,,,,3,Slow,j,0,2.146,1,1,5,2,1,,,,,
,1.93,,,,,,,,,g.PNG,g,6110c38319642536b289d716,2021-09-08_21h04.47.372,forced_choiceRT,2021.1.2,MacIntel,58.82352941,,,,,,,,3,Slow,f,0,2.145,1,2,6,1,1,,,,,
,0.57,,,,,,,,,f.PNG,f,6110c38319642536b289d716,2021-09-08_21h04.47.372,forced_choiceRT,2021.1.2,MacIntel,58.82352941,,,,,,,,3,Ontime,f,1,1.977,1,3,7,0,1,,,,,
,0.98,,,,,,,,,h.PNG,h,6110c38319642536b289d716,2021-09-08_21h04.47.372,forced_choiceRT,2021.1.2,MacIntel,58.82352941,,,,,,,,3,Ontime,h,1,2.088,2,0,8,2,1,,,,,
,1,,,,,,,,,g.PNG,g,6110c38319642536b289d716,2021-09-08_21h04.47.372,forced_choiceRT,2021.1.2,MacIntel,58.82352941,,,,,,,,3,Ontime,g,1,1.967,2,1,9,1,1,,,,,
,1.49,,,,,,,,,f.PNG,f,6110c38319642536b289d716,2021-09-08_21h04.47.372,forced_choiceRT,2021.1.2,MacIntel,58.82352941,,,,,,,,3,Slow,f,1,2.143,2,2,10,0,1,,,,,
,0.5,,,,,,,,,g.PNG,g,6110c38319642536b289d716,2021-09-08_21h04.47.372,forced_choiceRT,2021.1.2,MacIntel,58.82352941,,,,,,,,3,Ontime,g,1,1.988,2,3,11,1,1,,,,,
,1.64,,,,,,,,,f.PNG,f,6110c38319642536b289d716,2021-09-08_21h04.47.372,forced_choiceRT,2021.1.2,MacIntel,58.82352941,,,,,,,,3,Ontime,f,1,1.918,3,0,12,0,1,,,,,
,1.99,,,,,,,,,j.PNG,j,6110c38319642536b289d716,2021-09-08_21h04.47.372,forced_choiceRT,2021.1.2,MacIntel,58.82352941,,,,,,,,3,Fast,j,1,1.887,3,1,13,3,1,,,,,
,0.67,,,,,,,,,h.PNG,h,6110c38319642536b289d716,2021-09-08_21h04.47.372,forced_choiceRT,2021.1.2,MacIntel,58.82352941,,,,,,,,3,Ontime,h,1,2.052,3,2,14,2,1,,,,,
,1.04,,,,,,,,,j.PNG,j,6110c38319642536b289d716,2021-09-08_21h04.47.372,forced_choiceRT,2021.1.2,MacIntel,58.82352941,,,,,,,,3,Ontime,j,1,2.085,3,3,15,3,1,,,,,
,1.18,,,,,,,,,j.PNG,j,6110c38319642536b289d716,2021-09-08_21h04.47.372,forced_choiceRT,2021.1.2,MacIntel,58.82352941,,,,,,,,3,Ontime,j,1,2.094,4,0,16,3,1,,,,,
,1.31,,,,,,,,,g.PNG,g,6110c38319642536b289d716,2021-09-08_21h04.47.372,forced_choiceRT,2021.1.2,MacIntel,58.82352941,,,,,,,,3,Ontime,g,1,2.027,4,1,17,1,1,,,,,
,1.16,,,,,,,,,h.PNG,h,6110c38319642536b289d716,2021-09-08_21h04.47.372,forced_choiceRT,2021.1.2,MacIntel,58.82352941,,,,,,,,3,Ontime,h,1,1.974,4,2,18,2,1,,,,,
,0.16,,,,,,,,,j.PNG,j,6110c38319642536b289d716,2021-09-08_21h04.47.372,forced_choiceRT,2021.1.2,MacIntel,58.82352941,,,,,,,,3,Ontime,j,1,2.009,4,3,19,3,1,,,,,
,0.69,,,,,,,,,h.PNG,h,6110c38319642536b289d716,2021-09-08_21h04.47.372,forced_choiceRT,2021.1.2,MacIntel,58.82352941,,,,,,,,3,Slow,h,1,2.112,5,0,20,2,1,,,,,
,0.72,,,,,,,,,f.PNG,f,6110c38319642536b289d716,2021-09-08_21h04.47.372,forced_choiceRT,2021.1.2,MacIntel,58.82352941,,,,,,,,3,Slow,f,1,2.103,5,1,21,0,1,,,,,
,1.49,,,,,,,,,f.PNG,f,6110c38319642536b289d716,2021-09-08_21h04.47.372,forced_choiceRT,2021.1.2,MacIntel,58.82352941,,,,,,,,3,Ontime,f,1,1.936,5,2,22,0,1,,,,,
,1.66,,,,,,,,,j.PNG,j,6110c38319642536b289d716,2021-09-08_21h04.47.372,forced_choiceRT,2021.1.2,MacIntel,58.82352941,,,,,,,,3,Ontime,f,0,1.971,5,3,23,3,1,,,,,
,0,,,,,,,,,g.PNG,g,6110c38319642536b289d716,2021-09-08_21h04.47.372,forced_choiceRT,2021.1.2,MacIntel,58.82352941,,,,,,,,3,Ontime,h,0,2.009,6,0,24,1,1,,,,,
,0.93,,,,,,,,,j.PNG,j,6110c38319642536b289d716,2021-09-08_21h04.47.372,forced_choiceRT,2021.1.2,MacIntel,58.82352941,,,,,,,,3,Ontime,j,1,2.015,6,1,25,3,1,,,,,
,1.42,,,,,,,,,h.PNG,h,6110c38319642536b289d716,2021-09-08_21h04.47.372,forced_choiceRT,2021.1.2,MacIntel,58.82352941,,,,,,,,3,Slow,h,1,2.209,6,2,26,2,1,,,,,
,1.66,,,,,,,,,j.PNG,j,6110c38319642536b289d716,2021-09-08_21h04.47.372,forced_choiceRT,2021.1.2,MacIntel,58.82352941,,,,,,,,3,Slow,h,0,2.235,6,3,27,3,1,,,,,
,1.35,,,,,,,,,j.PNG,j,6110c38319642536b289d716,2021-09-08_21h04.47.372,forced_choiceRT,2021.1.2,MacIntel,58.82352941,,,,,,,,3,Slow,j,1,2.148,7,0,28,3,1,,,,,
,0.66,,,,,,,,,g.PNG,g,6110c38319642536b289d716,2021-09-08_21h04.47.372,forced_choiceRT,2021.1.2,MacIntel,58.82352941,,,,,,,,3,Ontime,h,0,2.001,7,1,29,1,1,,,,,
,1.09,,,,,,,,,f.PNG,f,6110c38319642536b289d716,2021-09-08_21h04.47.372,forced_choiceRT,2021.1.2,MacIntel,58.82352941,,,,,,,,3,Ontime,f,1,2.03,7,2,30,0,1,,,,,
,1.31,,,,,,,,,h.PNG,h,6110c38319642536b289d716,2021-09-08_21h04.47.372,forced_choiceRT,2021.1.2,MacIntel,58.82352941,,,,,,,,3,Ontime,h,1,2.077,7,3,31,2,1,,,,,
,1.03,,,,,,,,,f.PNG,f,6110c38319642536b289d716,2021-09-08_21h04.47.372,forced_choiceRT,2021.1.2,MacIntel,58.82352941,,,,,,,,3,Ontime,f,1,2.041,8,0,32,0,1,,,,,
,1.22,,,,,,,,,h.PNG,h,6110c38319642536b289d716,2021-09-08_21h04.47.372,forced_choiceRT,2021.1.2,MacIntel,58.82352941,,,,,,,,3,Slow,h,1,2.103,8,1,33,2,1,,,,,
,0.96,,,,,,,,,j.PNG,j,6110c38319642536b289d716,2021-09-08_21h04.47.372,forced_choiceRT,2021.1.2,MacIntel,58.82352941,,,,,,,,3,Ontime,j,1,2.018,8,2,34,3,1,,,,,
,1.57,,,,,,,,,f.PNG,f,6110c38319642536b289d716,2021-09-08_21h04.47.372,forced_choiceRT,2021.1.2,MacIntel,58.82352941,,,,,,,,3,Slow,f,1,2.136,8,3,35,0,1,,,,,
,1.31,,,,,,,,,g.PNG,g,6110c38319642536b289d716,2021-09-08_21h04.47.372,forced_choiceRT,2021.1.2,MacIntel,58.82352941,,,,,,,,3,Ontime,g,1,1.982,9,0,36,1,1,,,,,
,0.83,,,,,,,,,g.PNG,g,6110c38319642536b289d716,2021-09-08_21h04.47.372,forced_choiceRT,2021.1.2,MacIntel,58.82352941,,,,,,,,3,Ontime,g,1,2.01,9,1,37,1,1,,,,,
,0.54,,,,,,,,,h.PNG,h,6110c38319642536b289d716,2021-09-08_21h04.47.372,forced_choiceRT,2021.1.2,MacIntel,58.82352941,,,,,,,,3,Fast,h,1,1.832,9,2,38,2,1,,,,,
,0.14,,,,,,,,,h.PNG,h,6110c38319642536b289d716,2021-09-08_21h04.47.372,forced_choiceRT,2021.1.2,MacIntel,58.82352941,,,,,,,,3,Ontime,h,1,2.001,9,3,39,2,1,,,,,
,,,,,,,,,,,,6110c38319642536b289d716,2021-09-08_21h04.47.372,forced_choiceRT,2021.1.2,MacIntel,58.82352941,,,,,,,,,,,,,,,,,,2,0,2,0,1
,1.01,,,,,,,,,h.PNG,h,6110c38319642536b289d716,2021-09-08_21h04.47.372,forced_choiceRT,2021.1.2,MacIntel,58.82352941,,,,,,,,4,Ontime,h,1,1.97,0,0,0,2,1,,,,,
,0.92,,,,,,,,,f.PNG,f,6110c38319642536b289d716,2021-09-08_21h04.47.372,forced_choiceRT,2021.1.2,MacIntel,58.82352941,,,,,,,,4,Ontime,f,1,2.066,0,1,1,0,1,,,,,
,1.62,,,,,,,,,f.PNG,f,6110c38319642536b289d716,2021-09-08_21h04.47.372,forced_choiceRT,2021.1.2,MacIntel,58.82352941,,,,,,,,4,Slow,g,0,2.147,0,2,2,0,1,,,,,
,1.02,,,,,,,,,f.PNG,f,6110c38319642536b289d716,2021-09-08_21h04.47.372,forced_choiceRT,2021.1.2,MacIntel,58.82352941,,,,,,,,4,Ontime,f,1,2.025,0,3,3,0,1,,,,,
,1.37,,,,,,,,,j.PNG,j,6110c38319642536b289d716,2021-09-08_21h04.47.372,forced_choiceRT,2021.1.2,MacIntel,58.82352941,,,,,,,,4,Ontime,j,1,1.995,1,0,4,3,1,,,,,
,0.26,,,,,,,,,j.PNG,j,6110c38319642536b289d716,2021-09-08_21h04.47.372,forced_choiceRT,2021.1.2,MacIntel,58.82352941,,,,,,,,4,Ontime,j,1,2.008,1,1,5,3,1,,,,,
,0.27,,,,,,,,,h.PNG,h,6110c38319642536b289d716,2021-09-08_21h04.47.372,forced_choiceRT,2021.1.2,MacIntel,58.82352941,,,,,,,,4,Ontime,h,1,1.976,1,2,6,2,1,,,,,
,0.05,,,,,,,,,g.PNG,g,6110c38319642536b289d716,2021-09-08_21h04.47.372,forced_choiceRT,2021.1.2,MacIntel,58.82352941,,,,,,,,4,Ontime,g,1,1.983,1,3,7,1,1,,,,,
,1.88,,,,,,,,,h.PNG,h,6110c38319642536b289d716,2021-09-08_21h04.47.372,forced_choiceRT,2021.1.2,MacIntel,58.82352941,,,,,,,,4,Ontime,f,0,1.974,2,0,8,2,1,,,,,
,0.58,,,,,,,,,j.PNG,j,6110c38319642536b289d716,2021-09-08_21h04.47.372,forced_choiceRT,2021.1.2,MacIntel,58.82352941,,,,,,,,4,Ontime,j,1,2.054,2,1,9,3,1,,,,,
,1.34,,,,,,,,,f.PNG,f,6110c38319642536b289d716,2021-09-08_21h04.47.372,forced_choiceRT,2021.1.2,MacIntel,58.82352941,,,,,,,,4,Fast,f,1,1.853,2,2,10,0,1,,,,,
,1.49,,,,,,,,,g.PNG,g,6110c38319642536b289d716,2021-09-08_21h04.47.372,forced_choiceRT,2021.1.2,MacIntel,58.82352941,,,,,,,,4,Slow,h,0,2.142,2,3,11,1,1,,,,,
,0.6,,,,,,,,,f.PNG,f,6110c38319642536b289d716,2021-09-08_21h04.47.372,forced_choiceRT,2021.1.2,MacIntel,58.82352941,,,,,,,,4,Ontime,f,1,2.009,3,0,12,0,1,,,,,
,0.58,,,,,,,,,g.PNG,g,6110c38319642536b289d716,2021-09-08_21h04.47.372,forced_choiceRT,2021.1.2,MacIntel,58.82352941,,,,,,,,4,Ontime,g,1,2.016,3,1,13,1,1,,,,,
,0.9,,,,,,,,,f.PNG,f,6110c38319642536b289d716,2021-09-08_21h04.47.372,forced_choiceRT,2021.1.2,MacIntel,58.82352941,,,,,,,,4,Ontime,f,1,1.987,3,2,14,0,1,,,,,
,0.44,,,,,,,,,j.PNG,j,6110c38319642536b289d716,2021-09-08_21h04.47.372,forced_choiceRT,2021.1.2,MacIntel,58.82352941,,,,,,,,4,Ontime,j,1,2.069,3,3,15,3,1,,,,,
,1.39,,,,,,,,,h.PNG,h,6110c38319642536b289d716,2021-09-08_21h04.47.372,forced_choiceRT,2021.1.2,MacIntel,58.82352941,,,,,,,,4,Ontime,f,0,1.977,4,0,16,2,1,,,,,
,1.17,,,,,,,,,f.PNG,f,6110c38319642536b289d716,2021-09-08_21h04.47.372,forced_choiceRT,2021.1.2,MacIntel,58.82352941,,,,,,,,4,Ontime,f,1,2.026,4,1,17,0,1,,,,,
,1.95,,,,,,,,,j.PNG,j,6110c38319642536b289d716,2021-09-08_21h04.47.372,forced_choiceRT,2021.1.2,MacIntel,58.82352941,,,,,,,,4,Ontime,f,0,2.085,4,2,18,3,1,,,,,
,0.33,,,,,,,,,h.PNG,h,6110c38319642536b289d716,2021-09-08_21h04.47.372,forced_choiceRT,2021.1.2,MacIntel,58.82352941,,,,,,,,4,Ontime,h,1,2.019,4,3,19,2,1,,,,,
,0.24,,,,,,,,,h.PNG,h,6110c38319642536b289d716,2021-09-08_21h04.47.372,forced_choiceRT,2021.1.2,MacIntel,58.82352941,,,,,,,,4,Ontime,h,1,2.039,5,0,20,2,1,,,,,
,1.7,,,,,,,,,g.PNG,g,6110c38319642536b289d716,2021-09-08_21h04.47.372,forced_choiceRT,2021.1.2,MacIntel,58.82352941,,,,,,,,4,Ontime,f,0,1.904,5,1,21,1,1,,,,,
,0.76,,,,,,,,,j.PNG,j,6110c38319642536b289d716,2021-09-08_21h04.47.372,forced_choiceRT,2021.1.2,MacIntel,58.82352941,,,,,,,,4,Ontime,j,1,2.065,5,2,22,3,1,,,,,
,0.87,,,,,,,,,g.PNG,g,6110c38319642536b289d716,2021-09-08_21h04.47.372,forced_choiceRT,2021.1.2,MacIntel,58.82352941,,,,,,,,4,Ontime,g,1,2.049,5,3,23,1,1,,,,,
,0.82,,,,,,,,,h.PNG,h,6110c38319642536b289d716,2021-09-08_21h04.47.372,forced_choiceRT,2021.1.2,MacIntel,58.82352941,,,,,,,,4,Slow,h,1,2.115,6,0,24,2,1,,,,,
,0.58,,,,,,,,,h.PNG,h,6110c38319642536b289d716,2021-09-08_21h04.47.372,forced_choiceRT,2021.1.2,MacIntel,58.82352941,,,,,,,,4,Ontime,h,1,2.053,6,1,25,2,1,,,,,
,0.11,,,,,,,,,j.PNG,j,6110c38319642536b289d716,2021-09-08_21h04.47.372,forced_choiceRT,2021.1.2,MacIntel,58.82352941,,,,,,,,4,Slow,j,1,2.11,6,2,26,3,1,,,,,
,0.27,,,,,,,,,g.PNG,g,6110c38319642536b289d716,2021-09-08_21h04.47.372,forced_choiceRT,2021.1.2,MacIntel,58.82352941,,,,,,,,4,Fast,g,1,1.716,6,3,27,1,1,,,,,
,0.45,,,,,,,,,f.PNG,f,6110c38319642536b289d716,2021-09-08_21h04.47.372,forced_choiceRT,2021.1.2,MacIntel,58.82352941,,,,,,,,4,Ontime,f,1,2.067,7,0,28,0,1,,,,,
,1.97,,,,,,,,,g.PNG,g,6110c38319642536b289d716,2021-09-08_21h04.47.372,forced_choiceRT,2021.1.2,MacIntel,58.82352941,,,,,,,,4,Slow,h,0,3.386,7,1,29,1,1,,,,,
,0.53,,,,,,,,,j.PNG,j,6110c38319642536b289d716,2021-09-08_21h04.47.372,forced_choiceRT,2021.1.2,MacIntel,58.82352941,,,,,,,,4,Ontime,j,1,2.078,7,2,30,3,1,,,,,
,1.26,,,,,,,,,g.PNG,g,6110c38319642536b289d716,2021-09-08_21h04.47.372,forced_choiceRT,2021.1.2,MacIntel,58.82352941,,,,,,,,4,Fast,g,1,1.892,7,3,31,1,1,,,,,
,1.91,,,,,,,,,h.PNG,h,6110c38319642536b289d716,2021-09-08_21h04.47.372,forced_choiceRT,2021.1.2,MacIntel,58.82352941,,,,,,,,4,Fast,j,0,0.903,8,0,32,2,1,,,,,
,0.94,,,,,,,,,g.PNG,g,6110c38319642536b289d716,2021-09-08_21h04.47.372,forced_choiceRT,2021.1.2,MacIntel,58.82352941,,,,,,,,4,Fast,j,0,1.021,8,1,33,1,1,,,,,
,1.73,,,,,,,,,g.PNG,g,6110c38319642536b289d716,2021-09-08_21h04.47.372,forced_choiceRT,2021.1.2,MacIntel,58.82352941,,,,,,,,4,Slow,f,0,2.21,8,2,34,1,1,,,,,
,1.14,,,,,,,,,f.PNG,f,6110c38319642536b289d716,2021-09-08_21h04.47.372,forced_choiceRT,2021.1.2,MacIntel,58.82352941,,,,,,,,4,Ontime,f,1,1.96,8,3,35,0,1,,,,,
,0.72,,,,,,,,,j.PNG,j,6110c38319642536b289d716,2021-09-08_21h04.47.372,forced_choiceRT,2021.1.2,MacIntel,58.82352941,,,,,,,,4,Ontime,j,1,2.084,9,0,36,3,1,,,,,
,1.3,,,,,,,,,j.PNG,j,6110c38319642536b289d716,2021-09-08_21h04.47.372,forced_choiceRT,2021.1.2,MacIntel,58.82352941,,,,,,,,4,Slow,j,1,2.212,9,1,37,3,1,,,,,
,1.7,,,,,,,,,f.PNG,f,6110c38319642536b289d716,2021-09-08_21h04.47.372,forced_choiceRT,2021.1.2,MacIntel,58.82352941,,,,,,,,4,Slow,f,1,2.173,9,2,38,0,1,,,,,
,0.18,,,,,,,,,h.PNG,h,6110c38319642536b289d716,2021-09-08_21h04.47.372,forced_choiceRT,2021.1.2,MacIntel,58.82352941,,,,,,,,4,Ontime,h,1,1.969,9,3,39,2,1,,,,,
,,,,,,,,,,,,6110c38319642536b289d716,2021-09-08_21h04.47.372,forced_choiceRT,2021.1.2,MacIntel,58.82352941,,,,,,,,,,,,,,,,,,3,0,3,0,1
,1,,,,,,,,,g.PNG,g,6110c38319642536b289d716,2021-09-08_21h04.47.372,forced_choiceRT,2021.1.2,MacIntel,58.82352941,,,,,,,,5,Ontime,g,1,1.912,0,0,0,1,1,,,,,
,1.52,,,,,,,,,g.PNG,g,6110c38319642536b289d716,2021-09-08_21h04.47.372,forced_choiceRT,2021.1.2,MacIntel,58.82352941,,,,,,,,5,Ontime,g,1,2.079,0,1,1,1,1,,,,,
,1.35,,,,,,,,,g.PNG,g,6110c38319642536b289d716,2021-09-08_21h04.47.372,forced_choiceRT,2021.1.2,MacIntel,58.82352941,,,,,,,,5,Ontime,g,1,1.909,0,2,2,1,1,,,,,
,1.56,,,,,,,,,f.PNG,f,6110c38319642536b289d716,2021-09-08_21h04.47.372,forced_choiceRT,2021.1.2,MacIntel,58.82352941,,,,,,,,5,Ontime,f,1,2.003,0,3,3,0,1,,,,,
,1.91,,,,,,,,,g.PNG,g,6110c38319642536b289d716,2021-09-08_21h04.47.372,forced_choiceRT,2021.1.2,MacIntel,58.82352941,,,,,,,,5,Slow,g,1,2.774,1,0,4,1,1,,,,,
,1.29,,,,,,,,,h.PNG,h,6110c38319642536b289d716,2021-09-08_21h04.47.372,forced_choiceRT,2021.1.2,MacIntel,58.82352941,,,,,,,,5,Ontime,j,0,1.932,1,1,5,2,1,,,,,
,1.29,,,,,,,,,h.PNG,h,6110c38319642536b289d716,2021-09-08_21h04.47.372,forced_choiceRT,2021.1.2,MacIntel,58.82352941,,,,,,,,5,Ontime,j,0,1.97,1,2,6,2,1,,,,,
,1.88,,,,,,,,,g.PNG,g,6110c38319642536b289d716,2021-09-08_21h04.47.372,forced_choiceRT,2021.1.2,MacIntel,58.82352941,,,,,,,,5,Ontime,j,0,1.961,1,3,7,1,1,,,,,
,0.34,,,,,,,,,j.PNG,j,6110c38319642536b289d716,2021-09-08_21h04.47.372,forced_choiceRT,2021.1.2,MacIntel,58.82352941,,,,,,,,5,Ontime,j,1,1.902,2,0,8,3,1,,,,,
,1.46,,,,,,,,,f.PNG,f,6110c38319642536b289d716,2021-09-08_21h04.47.372,forced_choiceRT,2021.1.2,MacIntel,58.82352941,,,,,,,,5,Ontime,g,0,1.992,2,1,9,0,1,,,,,
,1.3,,,,,,,,,j.PNG,j,6110c38319642536b289d716,2021-09-08_21h04.47.372,forced_choiceRT,2021.1.2,MacIntel,58.82352941,,,,,,,,5,Ontime,j,1,1.998,2,2,10,3,1,,,,,
,1.5,,,,,,,,,g.PNG,g,6110c38319642536b289d716,2021-09-08_21h04.47.372,forced_choiceRT,2021.1.2,MacIntel,58.82352941,,,,,,,,5,Ontime,h,0,2.07,2,3,11,1,1,,,,,
,0.78,,,,,,,,,f.PNG,f,6110c38319642536b289d716,2021-09-08_21h04.47.372,forced_choiceRT,2021.1.2,MacIntel,58.82352941,,,,,,,,5,Ontime,f,1,1.967,3,0,12,0,1,,,,,
,0.07,,,,,,,,,h.PNG,h,6110c38319642536b289d716,2021-09-08_21h04.47.372,forced_choiceRT,2021.1.2,MacIntel,58.82352941,,,,,,,,5,Fast,h,1,1.899,3,1,13,2,1,,,,,
,1.23,,,,,,,,,g.PNG,g,6110c38319642536b289d716,2021-09-08_21h04.47.372,forced_choiceRT,2021.1.2,MacIntel,58.82352941,,,,,,,,5,Ontime,g,1,1.985,3,2,14,1,1,,,,,
,0.15,,,,,,,,,h.PNG,h,6110c38319642536b289d716,2021-09-08_21h04.47.372,forced_choiceRT,2021.1.2,MacIntel,58.82352941,,,,,,,,5,Ontime,h,1,2.012,3,3,15,2,1,,,,,
,1.5,,,,,,,,,j.PNG,j,6110c38319642536b289d716,2021-09-08_21h04.47.372,forced_choiceRT,2021.1.2,MacIntel,58.82352941,,,,,,,,5,Ontime,j,1,2.079,4,0,16,3,1,,,,,
,0.82,,,,,,,,,j.PNG,j,6110c38319642536b289d716,2021-09-08_21h04.47.372,forced_choiceRT,2021.1.2,MacIntel,58.82352941,,,,,,,,5,Ontime,j,1,2.025,4,1,17,3,1,,,,,
,1.35,,,,,,,,,f.PNG,f,6110c38319642536b289d716,2021-09-08_21h04.47.372,forced_choiceRT,2021.1.2,MacIntel,58.82352941,,,,,,,,5,Ontime,f,1,1.992,4,2,18,0,1,,,,,
,0.63,,,,,,,,,h.PNG,h,6110c38319642536b289d716,2021-09-08_21h04.47.372,forced_choiceRT,2021.1.2,MacIntel,58.82352941,,,,,,,,5,Fast,g,0,1.769,4,3,19,2,1,,,,,
,0.3,,,,,,,,,g.PNG,g,6110c38319642536b289d716,2021-09-08_21h04.47.372,forced_choiceRT,2021.1.2,MacIntel,58.82352941,,,,,,,,5,Ontime,g,1,1.978,5,0,20,1,1,,,,,
,0.04,,,,,,,,,j.PNG,j,6110c38319642536b289d716,2021-09-08_21h04.47.372,forced_choiceRT,2021.1.2,MacIntel,58.82352941,,,,,,,,5,Ontime,j,1,2.005,5,1,21,3,1,,,,,
,0.23,,,,,,,,,g.PNG,g,6110c38319642536b289d716,2021-09-08_21h04.47.372,forced_choiceRT,2021.1.2,MacIntel,58.82352941,,,,,,,,5,Ontime,g,1,1.959,5,2,22,1,1,,,,,
,1.41,,,,,,,,,f.PNG,f,6110c38319642536b289d716,2021-09-08_21h04.47.372,forced_choiceRT,2021.1.2,MacIntel,58.82352941,,,,,,,,5,Ontime,f,1,2.05,5,3,23,0,1,,,,,
,1.99,,,,,,,,,j.PNG,j,6110c38319642536b289d716,2021-09-08_21h04.47.372,forced_choiceRT,2021.1.2,MacIntel,58.82352941,,,,,,,,5,Slow,g,0,2.249,6,0,24,3,1,,,,,
,1.03,,,,,,,,,h.PNG,h,6110c38319642536b289d716,2021-09-08_21h04.47.372,forced_choiceRT,2021.1.2,MacIntel,58.82352941,,,,,,,,5,Ontime,h,1,1.972,6,1,25,2,1,,,,,
,1.5,,,,,,,,,h.PNG,h,6110c38319642536b289d716,2021-09-08_21h04.47.372,forced_choiceRT,2021.1.2,MacIntel,58.82352941,,,,,,,,5,Ontime,h,1,2.051,6,2,26,2,1,,,,,
,0.76,,,,,,,,,j.PNG,j,6110c38319642536b289d716,2021-09-08_21h04.47.372,forced_choiceRT,2021.1.2,MacIntel,58.82352941,,,,,,,,5,Ontime,j,1,2.036,6,3,27,3,1,,,,,
,1.47,,,,,,,,,f.PNG,f,6110c38319642536b289d716,2021-09-08_21h04.47.372,forced_choiceRT,2021.1.2,MacIntel,58.82352941,,,,,,,,5,Ontime,f,1,2.052,7,0,28,0,1,,,,,
,0.17,,,,,,,,,f.PNG,f,6110c38319642536b289d716,2021-09-08_21h04.47.372,forced_choiceRT,2021.1.2,MacIntel,58.82352941,,,,,,,,5,Ontime,f,1,1.952,7,1,29,0,1,,,,,
,1.99,,,,,,,,,j.PNG,j,6110c38319642536b289d716,2021-09-08_21h04.47.372,forced_choiceRT,2021.1.2,MacIntel,58.82352941,,,,,,,,5,Slow,j,1,2.193,7,2,30,3,1,,,,,
,0.52,,,,,,,,,f.PNG,f,6110c38319642536b289d716,2021-09-08_21h04.47.372,forced_choiceRT,2021.1.2,MacIntel,58.82352941,,,,,,,,5,Ontime,f,1,1.984,7,3,31,0,1,,,,,
,0.09,,,,,,,,,j.PNG,j,6110c38319642536b289d716,2021-09-08_21h04.47.372,forced_choiceRT,2021.1.2,MacIntel,58.82352941,,,,,,,,5,Ontime,j,1,2.003,8,0,32,3,1,,,,,
,0.66,,,,,,,,,h.PNG,h,6110c38319642536b289d716,2021-09-08_21h04.47.372,forced_choiceRT,2021.1.2,MacIntel,58.82352941,,,,,,,,5,Slow,h,1,2.104,8,1,33,2,1,,,,,
,0.65,,,,,,,,,h.PNG,h,6110c38319642536b289d716,2021-09-08_21h04.47.372,forced_choiceRT,2021.1.2,MacIntel,58.82352941,,,,,,,,5,Ontime,h,1,2.025,8,2,34,2,1,,,,,
,1.57,,,,,,,,,f.PNG,f,6110c38319642536b289d716,2021-09-08_21h04.47.372,forced_choiceRT,2021.1.2,MacIntel,58.82352941,,,,,,,,5,Slow,f,1,2.189,8,3,35,0,1,,,,,
,0.77,,,,,,,,,h.PNG,h,6110c38319642536b289d716,2021-09-08_21h04.47.372,forced_choiceRT,2021.1.2,MacIntel,58.82352941,,,,,,,,5,Ontime,h,1,2.099,9,0,36,2,1,,,,,
,0.92,,,,,,,,,j.PNG,j,6110c38319642536b289d716,2021-09-08_21h04.47.372,forced_choiceRT,2021.1.2,MacIntel,58.82352941,,,,,,,,5,Fast,j,1,1.725,9,1,37,3,1,,,,,
,0.1,,,,,,,,,f.PNG,f,6110c38319642536b289d716,2021-09-08_21h04.47.372,forced_choiceRT,2021.1.2,MacIntel,58.82352941,,,,,,,,5,Fast,f,1,1.888,9,2,38,0,1,,,,,
,1.01,,,,,,,,,g.PNG,g,6110c38319642536b289d716,2021-09-08_21h04.47.372,forced_choiceRT,2021.1.2,MacIntel,58.82352941,,,,,,,,5,Ontime,g,1,2.093,9,3,39,1,1,,,,,
,,,,,,,,,,,,6110c38319642536b289d716,2021-09-08_21h04.47.372,forced_choiceRT,2021.1.2,MacIntel,58.82352941,,,,,,,,,,,,,,,,,,4,0,4,0,1
,1.49,,,,,,,,,h.PNG,h,6110c38319642536b289d716,2021-09-08_21h04.47.372,forced_choiceRT,2021.1.2,MacIntel,58.82352941,,,,,,,,6,Ontime,f,0,2.062,0,0,0,2,1,,,,,
,0.6,,,,,,,,,h.PNG,h,6110c38319642536b289d716,2021-09-08_21h04.47.372,forced_choiceRT,2021.1.2,MacIntel,58.82352941,,,,,,,,6,Ontime,h,1,1.937,0,1,1,2,1,,,,,
,0.55,,,,,,,,,f.PNG,f,6110c38319642536b289d716,2021-09-08_21h04.47.372,forced_choiceRT,2021.1.2,MacIntel,58.82352941,,,,,,,,6,Ontime,f,1,1.995,0,2,2,0,1,,,,,
,0,,,,,,,,,g.PNG,g,6110c38319642536b289d716,2021-09-08_21h04.47.372,forced_choiceRT,2021.1.2,MacIntel,58.82352941,,,,,,,,6,Ontime,g,1,1.958,0,3,3,1,1,,,,,
,0.13,,,,,,,,,j.PNG,j,6110c38319642536b289d716,2021-09-08_21h04.47.372,forced_choiceRT,2021.1.2,MacIntel,58.82352941,,,,,,,,6,Ontime,j,1,1.991,1,0,4,3,1,,,,,
,0.7,,,,,,,,,j.PNG,j,6110c38319642536b289d716,2021-09-08_21h04.47.372,forced_choiceRT,2021.1.2,MacIntel,58.82352941,,,,,,,,6,Ontime,j,1,1.949,1,1,5,3,1,,,,,
,1.99,,,,,,,,,g.PNG,g,6110c38319642536b289d716,2021-09-08_21h04.47.372,forced_choiceRT,2021.1.2,MacIntel,58.82352941,,,,,,,,6,Ontime,f,0,1.903,1,2,6,1,1,,,,,
,0.97,,,,,,,,,g.PNG,g,6110c38319642536b289d716,2021-09-08_21h04.47.372,forced_choiceRT,2021.1.2,MacIntel,58.82352941,,,,,,,,6,Ontime,g,1,2.009,1,3,7,1,1,,,,,
,0.61,,,,,,,,,g.PNG,g,6110c38319642536b289d716,2021-09-08_21h04.47.372,forced_choiceRT,2021.1.2,MacIntel,58.82352941,,,,,,,,6,Ontime,g,1,2.07,2,0,8,1,1,,,,,
,0.94,,,,,,,,,j.PNG,j,6110c38319642536b289d716,2021-09-08_21h04.47.372,forced_choiceRT,2021.1.2,MacIntel,58.82352941,,,,,,,,6,Ontime,j,1,2.086,2,1,9,3,1,,,,,
,1.74,,,,,,,,,g.PNG,g,6110c38319642536b289d716,2021-09-08_21h04.47.372,forced_choiceRT,2021.1.2,MacIntel,58.82352941,,,,,,,,6,Ontime,f,0,1.977,2,2,10,1,1,,,,,
,0.73,,,,,,,,,j.PNG,j,6110c38319642536b289d716,2021-09-08_21h04.47.372,forced_choiceRT,2021.1.2,MacIntel,58.82352941,,,,,,,,6,Slow,j,1,2.107,2,3,11,3,1,,,,,
,1.82,,,,,,,,,h.PNG,h,6110c38319642536b289d716,2021-09-08_21h04.47.372,forced_choiceRT,2021.1.2,MacIntel,58.82352941,,,,,,,,6,Ontime,f,0,1.977,3,0,12,2,1,,,,,
,0.07,,,,,,,,,f.PNG,f,6110c38319642536b289d716,2021-09-08_21h04.47.372,forced_choiceRT,2021.1.2,MacIntel,58.82352941,,,,,,,,6,Ontime,f,1,2.036,3,1,13,0,1,,,,,
,1.68,,,,,,,,,g.PNG,g,6110c38319642536b289d716,2021-09-08_21h04.47.372,forced_choiceRT,2021.1.2,MacIntel,58.82352941,,,,,,,,6,Ontime,f,0,2.02,3,2,14,1,1,,,,,
,1.77,,,,,,,,,h.PNG,h,6110c38319642536b289d716,2021-09-08_21h04.47.372,forced_choiceRT,2021.1.2,MacIntel,58.82352941,,,,,,,,6,Ontime,f,0,1.975,3,3,15,2,1,,,,,
,0.31,,,,,,,,,g.PNG,g,6110c38319642536b289d716,2021-09-08_21h04.47.372,forced_choiceRT,2021.1.2,MacIntel,58.82352941,,,,,,,,6,Ontime,g,1,2.06,4,0,16,1,1,,,,,
,1.29,,,,,,,,,g.PNG,g,6110c38319642536b289d716,2021-09-08_21h04.47.372,forced_choiceRT,2021.1.2,MacIntel,58.82352941,,,,,,,,6,Ontime,g,1,2.029,4,1,17,1,1,,,,,
,1.54,,,,,,,,,f.PNG,f,6110c38319642536b289d716,2021-09-08_21h04.47.372,forced_choiceRT,2021.1.2,MacIntel,58.82352941,,,,,,,,6,Slow,f,1,2.121,4,2,18,0,1,,,,,
,0.35,,,,,,,,,h.PNG,h,6110c38319642536b289d716,2021-09-08_21h04.47.372,forced_choiceRT,2021.1.2,MacIntel,58.82352941,,,,,,,,6,Ontime,h,1,2.016,4,3,19,2,1,,,,,
,1.66,,,,,,,,,f.PNG,f,6110c38319642536b289d716,2021-09-08_21h04.47.372,forced_choiceRT,2021.1.2,MacIntel,58.82352941,,,,,,,,6,Ontime,h,0,2.01,5,0,20,0,1,,,,,
,1.27,,,,,,,,,j.PNG,j,6110c38319642536b289d716,2021-09-08_21h04.47.372,forced_choiceRT,2021.1.2,MacIntel,58.82352941,,,,,,,,6,Ontime,j,1,2.02,5,1,21,3,1,,,,,
,1.58,,,,,,,,,h.PNG,h,6110c38319642536b289d716,2021-09-08_21h04.47.372,forced_choiceRT,2021.1.2,MacIntel,58.82352941,,,,,,,,6,Ontime,j,0,1.995,5,2,22,2,1,,,,,
,0.7,,,,,,,,,f.PNG,f,6110c38319642536b289d716,2021-09-08_21h04.47.372,forced_choiceRT,2021.1.2,MacIntel,58.82352941,,,,,,,,6,Slow,f,1,2.11,5,3,23,0,1,,,,,
,0.57,,,,,,,,,f.PNG,f,6110c38319642536b289d716,2021-09-08_21h04.47.372,forced_choiceRT,2021.1.2,MacIntel,58.82352941,,,,,,,,6,Ontime,f,1,2.037,6,0,24,0,1,,,,,
,1.5,,,,,,,,,j.PNG,j,6110c38319642536b289d716,2021-09-08_21h04.47.372,forced_choiceRT,2021.1.2,MacIntel,58.82352941,,,,,,,,6,Ontime,j,1,2.054,6,1,25,3,1,,,,,
,0.69,,,,,,,,,h.PNG,h,6110c38319642536b289d716,2021-09-08_21h04.47.372,forced_choiceRT,2021.1.2,MacIntel,58.82352941,,,,,,,,6,Ontime,h,1,2,6,2,26,2,1,,,,,
,1.93,,,,,,,,,f.PNG,f,6110c38319642536b289d716,2021-09-08_21h04.47.372,forced_choiceRT,2021.1.2,MacIntel,58.82352941,,,,,,,,6,Ontime,h,0,2.002,6,3,27,0,1,,,,,
,0,,,,,,,,,j.PNG,j,6110c38319642536b289d716,2021-09-08_21h04.47.372,forced_choiceRT,2021.1.2,MacIntel,58.82352941,,,,,,,,6,Ontime,j,1,2.045,7,0,28,3,1,,,,,
,1.56,,,,,,,,,j.PNG,j,6110c38319642536b289d716,2021-09-08_21h04.47.372,forced_choiceRT,2021.1.2,MacIntel,58.82352941,,,,,,,,6,Slow,j,1,2.137,7,1,29,3,1,,,,,
,0.97,,,,,,,,,f.PNG,f,6110c38319642536b289d716,2021-09-08_21h04.47.372,forced_choiceRT,2021.1.2,MacIntel,58.82352941,,,,,,,,6,Ontime,f,1,1.999,7,2,30,0,1,,,,,
,0.33,,,,,,,,,g.PNG,g,6110c38319642536b289d716,2021-09-08_21h04.47.372,forced_choiceRT,2021.1.2,MacIntel,58.82352941,,,,,,,,6,Ontime,g,1,1.979,7,3,31,1,1,,,,,
,0.6,,,,,,,,,f.PNG,f,6110c38319642536b289d716,2021-09-08_21h04.47.372,forced_choiceRT,2021.1.2,MacIntel,58.82352941,,,,,,,,6,Ontime,f,1,2.029,8,0,32,0,1,,,,,
,0.31,,,,,,,,,g.PNG,g,6110c38319642536b289d716,2021-09-08_21h04.47.372,forced_choiceRT,2021.1.2,MacIntel,58.82352941,,,,,,,,6,Fast,g,1,1.885,8,1,33,1,1,,,,,
,1.39,,,,,,,,,j.PNG,j,6110c38319642536b289d716,2021-09-08_21h04.47.372,forced_choiceRT,2021.1.2,MacIntel,58.82352941,,,,,,,,6,Ontime,j,1,2.021,8,2,34,3,1,,,,,
,0.09,,,,,,,,,h.PNG,h,6110c38319642536b289d716,2021-09-08_21h04.47.372,forced_choiceRT,2021.1.2,MacIntel,58.82352941,,,,,,,,6,Ontime,h,1,2.07,8,3,35,2,1,,,,,
,1.52,,,,,,,,,h.PNG,h,6110c38319642536b289d716,2021-09-08_21h04.47.372,forced_choiceRT,2021.1.2,MacIntel,58.82352941,,,,,,,,6,Slow,j,0,2.109,9,0,36,2,1,,,,,
,1.03,,,,,,,,,j.PNG,j,6110c38319642536b289d716,2021-09-08_21h04.47.372,forced_choiceRT,2021.1.2,MacIntel,58.82352941,,,,,,,,6,Ontime,j,1,1.962,9,1,37,3,1,,,,,
,0.73,,,,,,,,,h.PNG,h,6110c38319642536b289d716,2021-09-08_21h04.47.372,forced_choiceRT,2021.1.2,MacIntel,58.82352941,,,,,,,,6,Ontime,h,1,1.951,9,2,38,2,1,,,,,
,0.51,,,,,,,,,f.PNG,f,6110c38319642536b289d716,2021-09-08_21h04.47.372,forced_choiceRT,2021.1.2,MacIntel,58.82352941,,,,,,,,6,Ontime,f,1,1.966,9,3,39,0,1,,,,,
,,,,,,,,,,,,6110c38319642536b289d716,2021-09-08_21h04.47.372,forced_choiceRT,2021.1.2,MacIntel,58.82352941,,,,,,,,,,,,,,,,,,5,0,5,0,1
,1.58,,,,,,,,,f.PNG,f,6110c38319642536b289d716,2021-09-08_21h04.47.372,forced_choiceRT,2021.1.2,MacIntel,58.82352941,,,,,,,,7,Slow,f,1,2.209,0,0,0,0,1,,,,,
,0.91,,,,,,,,,h.PNG,h,6110c38319642536b289d716,2021-09-08_21h04.47.372,forced_choiceRT,2021.1.2,MacIntel,58.82352941,,,,,,,,7,Ontime,h,1,2.023,0,1,1,2,1,,,,,
,0.61,,,,,,,,,f.PNG,f,6110c38319642536b289d716,2021-09-08_21h04.47.372,forced_choiceRT,2021.1.2,MacIntel,58.82352941,,,,,,,,7,Slow,f,1,2.226,0,2,2,0,1,,,,,
,1.34,,,,,,,,,g.PNG,g,6110c38319642536b289d716,2021-09-08_21h04.47.372,forced_choiceRT,2021.1.2,MacIntel,58.82352941,,,,,,,,7,Slow,h,0,2.191,0,3,3,1,1,,,,,
,1.04,,,,,,,,,h.PNG,h,6110c38319642536b289d716,2021-09-08_21h04.47.372,forced_choiceRT,2021.1.2,MacIntel,58.82352941,,,,,,,,7,Fast,h,1,1.875,1,0,4,2,1,,,,,
,0.99,,,,,,,,,j.PNG,j,6110c38319642536b289d716,2021-09-08_21h04.47.372,forced_choiceRT,2021.1.2,MacIntel,58.82352941,,,,,,,,7,Fast,j,1,1.837,1,1,5,3,1,,,,,
,1.17,,,,,,,,,g.PNG,g,6110c38319642536b289d716,2021-09-08_21h04.47.372,forced_choiceRT,2021.1.2,MacIntel,58.82352941,,,,,,,,7,Ontime,h,0,2.044,1,2,6,1,1,,,,,
,0.34,,,,,,,,,j.PNG,j,6110c38319642536b289d716,2021-09-08_21h04.47.372,forced_choiceRT,2021.1.2,MacIntel,58.82352941,,,,,,,,7,Fast,j,1,1.834,1,3,7,3,1,,,,,
,1.96,,,,,,,,,j.PNG,j,6110c38319642536b289d716,2021-09-08_21h04.47.372,forced_choiceRT,2021.1.2,MacIntel,58.82352941,,,,,,,,7,Slow,j,1,2.343,2,0,8,3,1,,,,,
,0.56,,,,,,,,,j.PNG,j,6110c38319642536b289d716,2021-09-08_21h04.47.372,forced_choiceRT,2021.1.2,MacIntel,58.82352941,,,,,,,,7,Ontime,j,1,1.929,2,1,9,3,1,,,,,
,1.32,,,,,,,,,h.PNG,h,6110c38319642536b289d716,2021-09-08_21h04.47.372,forced_choiceRT,2021.1.2,MacIntel,58.82352941,,,,,,,,7,Ontime,j,0,1.999,2,2,10,2,1,,,,,
,0.51,,,,,,,,,j.PNG,j,6110c38319642536b289d716,2021-09-08_21h04.47.372,forced_choiceRT,2021.1.2,MacIntel,58.82352941,,,,,,,,7,Ontime,j,1,2.003,2,3,11,3,1,,,,,
,0.05,,,,,,,,,f.PNG,f,6110c38319642536b289d716,2021-09-08_21h04.47.372,forced_choiceRT,2021.1.2,MacIntel,58.82352941,,,,,,,,7,Ontime,f,1,1.965,3,0,12,0,1,,,,,
,1.27,,,,,,,,,f.PNG,f,6110c38319642536b289d716,2021-09-08_21h04.47.372,forced_choiceRT,2021.1.2,MacIntel,58.82352941,,,,,,,,7,Fast,f,1,1.895,3,1,13,0,1,,,,,
,1.66,,,,,,,,,f.PNG,f,6110c38319642536b289d716,2021-09-08_21h04.47.372,forced_choiceRT,2021.1.2,MacIntel,58.82352941,,,,,,,,7,Ontime,f,1,1.988,3,2,14,0,1,,,,,
,1.71,,,,,,,,,h.PNG,h,6110c38319642536b289d716,2021-09-08_21h04.47.372,forced_choiceRT,2021.1.2,MacIntel,58.82352941,,,,,,,,7,Ontime,f,0,1.952,3,3,15,2,1,,,,,
,1.38,,,,,,,,,f.PNG,f,6110c38319642536b289d716,2021-09-08_21h04.47.372,forced_choiceRT,2021.1.2,MacIntel,58.82352941,,,,,,,,7,Fast,f,1,1.858,4,0,16,0,1,,,,,
,0.68,,,,,,,,,g.PNG,g,6110c38319642536b289d716,2021-09-08_21h04.47.372,forced_choiceRT,2021.1.2,MacIntel,58.82352941,,,,,,,,7,Ontime,g,1,2.02,4,1,17,1,1,,,,,
,1.33,,,,,,,,,g.PNG,g,6110c38319642536b289d716,2021-09-08_21h04.47.372,forced_choiceRT,2021.1.2,MacIntel,58.82352941,,,,,,,,7,Ontime,g,1,1.957,4,2,18,1,1,,,,,
,1.37,,,,,,,,,j.PNG,j,6110c38319642536b289d716,2021-09-08_21h04.47.372,forced_choiceRT,2021.1.2,MacIntel,58.82352941,,,,,,,,7,Ontime,j,1,1.952,4,3,19,3,1,,,,,
,1.36,,,,,,,,,j.PNG,j,6110c38319642536b289d716,2021-09-08_21h04.47.372,forced_choiceRT,2021.1.2,MacIntel,58.82352941,,,,,,,,7,Fast,j,1,1.877,5,0,20,3,1,,,,,
,1.91,,,,,,,,,h.PNG,h,6110c38319642536b289d716,2021-09-08_21h04.47.372,forced_choiceRT,2021.1.2,MacIntel,58.82352941,,,,,,,,7,Ontime,j,0,1.922,5,1,21,2,1,,,,,
,0.8,,,,,,,,,j.PNG,j,6110c38319642536b289d716,2021-09-08_21h04.47.372,forced_choiceRT,2021.1.2,MacIntel,58.82352941,,,,,,,,7,Ontime,j,1,1.968,5,2,22,3,1,,,,,
,0.36,,,,,,,,,h.PNG,h,6110c38319642536b289d716,2021-09-08_21h04.47.372,forced_choiceRT,2021.1.2,MacIntel,58.82352941,,,,,,,,7,Ontime,h,1,2.009,5,3,23,2,1,,,,,
,1.88,,,,,,,,,f.PNG,f,6110c38319642536b289d716,2021-09-08_21h04.47.372,forced_choiceRT,2021.1.2,MacIntel,58.82352941,,,,,,,,7,Ontime,j,0,1.999,6,0,24,0,1,,,,,
,0.94,,,,,,,,,h.PNG,h,6110c38319642536b289d716,2021-09-08_21h04.47.372,forced_choiceRT,2021.1.2,MacIntel,58.82352941,,,,,,,,7,Ontime,h,1,1.968,6,1,25,2,1,,,,,
,0.35,,,,,,,,,g.PNG,g,6110c38319642536b289d716,2021-09-08_21h04.47.372,forced_choiceRT,2021.1.2,MacIntel,58.82352941,,,,,,,,7,Ontime,g,1,1.994,6,2,26,1,1,,,,,
,0.64,,,,,,,,,j.PNG,j,6110c38319642536b289d716,2021-09-08_21h04.47.372,forced_choiceRT,2021.1.2,MacIntel,58.82352941,,,,,,,,7,Ontime,j,1,1.927,6,3,27,3,1,,,,,
,1.12,,,,,,,,,j.PNG,j,6110c38319642536b289d716,2021-09-08_21h04.47.372,forced_choiceRT,2021.1.2,MacIntel,58.82352941,,,,,,,,7,Ontime,j,1,2.041,7,0,28,3,1,,,,,
,1.73,,,,,,,,,f.PNG,f,6110c38319642536b289d716,2021-09-08_21h04.47.372,forced_choiceRT,2021.1.2,MacIntel,58.82352941,,,,,,,,7,Ontime,f,1,1.9,7,1,29,0,1,,,,,
,1.49,,,,,,,,,f.PNG,f,6110c38319642536b289d716,2021-09-08_21h04.47.372,forced_choiceRT,2021.1.2,MacIntel,58.82352941,,,,,,,,7,Fast,j,0,1.882,7,2,30,0,1,,,,,
,1.43,,,,,,,,,g.PNG,g,6110c38319642536b289d716,2021-09-08_21h04.47.372,forced_choiceRT,2021.1.2,MacIntel,58.82352941,,,,,,,,7,Ontime,h,0,2.033,7,3,31,1,1,,,,,
,0.91,,,,,,,,,f.PNG,f,6110c38319642536b289d716,2021-09-08_21h04.47.372,forced_choiceRT,2021.1.2,MacIntel,58.82352941,,,,,,,,7,Fast,f,1,1.755,8,0,32,0,1,,,,,
,0.17,,,,,,,,,h.PNG,h,6110c38319642536b289d716,2021-09-08_21h04.47.372,forced_choiceRT,2021.1.2,MacIntel,58.82352941,,,,,,,,7,Ontime,h,1,2.043,8,1,33,2,1,,,,,
,0.97,,,,,,,,,g.PNG,g,6110c38319642536b289d716,2021-09-08_21h04.47.372,forced_choiceRT,2021.1.2,MacIntel,58.82352941,,,,,,,,7,Fast,g,1,1.874,8,2,34,1,1,,,,,
,0.31,,,,,,,,,g.PNG,g,6110c38319642536b289d716,2021-09-08_21h04.47.372,forced_choiceRT,2021.1.2,MacIntel,58.82352941,,,,,,,,7,Ontime,g,1,2.059,8,3,35,1,1,,,,,
,0.24,,,,,,,,,g.PNG,g,6110c38319642536b289d716,2021-09-08_21h04.47.372,forced_choiceRT,2021.1.2,MacIntel,58.82352941,,,,,,,,7,Ontime,g,1,2.04,9,0,36,1,1,,,,,
,0.65,,,,,,,,,h.PNG,h,6110c38319642536b289d716,2021-09-08_21h04.47.372,forced_choiceRT,2021.1.2,MacIntel,58.82352941,,,,,,,,7,Ontime,h,1,1.986,9,1,37,2,1,,,,,
,0.53,,,,,,,,,h.PNG,h,6110c38319642536b289d716,2021-09-08_21h04.47.372,forced_choiceRT,2021.1.2,MacIntel,58.82352941,,,,,,,,7,Ontime,h,1,2.004,9,2,38,2,1,,,,,
,0.65,,,,,,,,,g.PNG,g,6110c38319642536b289d716,2021-09-08_21h04.47.372,forced_choiceRT,2021.1.2,MacIntel,58.82352941,,,,,,,,7,Ontime,g,1,2.046,9,3,39,1,1,,,,,
,,,,,,,,,,,,6110c38319642536b289d716,2021-09-08_21h04.47.372,forced_choiceRT,2021.1.2,MacIntel,58.82352941,,,,,,,,,,,,,,,,,,6,0,6,0,1
,0.94,,,,,,,,,f.PNG,f,6110c38319642536b289d716,2021-09-08_21h04.47.372,forced_choiceRT,2021.1.2,MacIntel,58.82352941,,,,,,,,8,Ontime,f,1,2.097,0,0,0,0,1,,,,,
,1.17,,,,,,,,,g.PNG,g,6110c38319642536b289d716,2021-09-08_21h04.47.372,forced_choiceRT,2021.1.2,MacIntel,58.82352941,,,,,,,,8,Ontime,g,1,1.975,0,1,1,1,1,,,,,
,0.04,,,,,,,,,g.PNG,g,6110c38319642536b289d716,2021-09-08_21h04.47.372,forced_choiceRT,2021.1.2,MacIntel,58.82352941,,,,,,,,8,Ontime,g,1,1.986,0,2,2,1,1,,,,,
,0.81,,,,,,,,,h.PNG,h,6110c38319642536b289d716,2021-09-08_21h04.47.372,forced_choiceRT,2021.1.2,MacIntel,58.82352941,,,,,,,,8,Ontime,h,1,1.937,0,3,3,2,1,,,,,
,0.56,,,,,,,,,h.PNG,h,6110c38319642536b289d716,2021-09-08_21h04.47.372,forced_choiceRT,2021.1.2,MacIntel,58.82352941,,,,,,,,8,Slow,h,1,2.101,1,0,4,2,1,,,,,
,0.33,,,,,,,,,j.PNG,j,6110c38319642536b289d716,2021-09-08_21h04.47.372,forced_choiceRT,2021.1.2,MacIntel,58.82352941,,,,,,,,8,Ontime,j,1,1.959,1,1,5,3,1,,,,,
,0.23,,,,,,,,,j.PNG,j,6110c38319642536b289d716,2021-09-08_21h04.47.372,forced_choiceRT,2021.1.2,MacIntel,58.82352941,,,,,,,,8,Ontime,j,1,2.015,1,2,6,3,1,,,,,
,1.24,,,,,,,,,f.PNG,f,6110c38319642536b289d716,2021-09-08_21h04.47.372,forced_choiceRT,2021.1.2,MacIntel,58.82352941,,,,,,,,8,Fast,f,1,1.873,1,3,7,0,1,,,,,
,0.72,,,,,,,,,h.PNG,h,6110c38319642536b289d716,2021-09-08_21h04.47.372,forced_choiceRT,2021.1.2,MacIntel,58.82352941,,,,,,,,8,Ontime,h,1,2.065,2,0,8,2,1,,,,,
,0.37,,,,,,,,,j.PNG,j,6110c38319642536b289d716,2021-09-08_21h04.47.372,forced_choiceRT,2021.1.2,MacIntel,58.82352941,,,,,,,,8,Ontime,j,1,1.949,2,1,9,3,1,,,,,
,0.42,,,,,,,,,h.PNG,h,6110c38319642536b289d716,2021-09-08_21h04.47.372,forced_choiceRT,2021.1.2,MacIntel,58.82352941,,,,,,,,8,Ontime,h,1,1.992,2,2,10,2,1,,,,,
,0.48,,,,,,,,,g.PNG,g,6110c38319642536b289d716,2021-09-08_21h04.47.372,forced_choiceRT,2021.1.2,MacIntel,58.82352941,,,,,,,,8,Ontime,g,1,1.984,2,3,11,1,1,,,,,
,1.31,,,,,,,,,j.PNG,j,6110c38319642536b289d716,2021-09-08_21h04.47.372,forced_choiceRT,2021.1.2,MacIntel,58.82352941,,,,,,,,8,Ontime,j,1,2.025,3,0,12,3,1,,,,,
,1.81,,,,,,,,,g.PNG,g,6110c38319642536b289d716,2021-09-08_21h04.47.372,forced_choiceRT,2021.1.2,MacIntel,58.82352941,,,,,,,,8,Ontime,j,0,1.988,3,1,13,1,1,,,,,
,0.04,,,,,,,,,g.PNG,g,6110c38319642536b289d716,2021-09-08_21h04.47.372,forced_choiceRT,2021.1.2,MacIntel,58.82352941,,,,,,,,8,Ontime,g,1,1.992,3,2,14,1,1,,,,,
,1.7,,,,,,,,,j.PNG,j,6110c38319642536b289d716,2021-09-08_21h04.47.372,forced_choiceRT,2021.1.2,MacIntel,58.82352941,,,,,,,,8,Slow,j,1,2.153,3,3,15,3,1,,,,,
,1.48,,,,,,,,,f.PNG,f,6110c38319642536b289d716,2021-09-08_21h04.47.372,forced_choiceRT,2021.1.2,MacIntel,58.82352941,,,,,,,,8,Ontime,f,1,2.002,4,0,16,0,1,,,,,
,0.28,,,,,,,,,g.PNG,g,6110c38319642536b289d716,2021-09-08_21h04.47.372,forced_choiceRT,2021.1.2,MacIntel,58.82352941,,,,,,,,8,Ontime,g,1,2.063,4,1,17,1,1,,,,,
,1.49,,,,,,,,,j.PNG,j,6110c38319642536b289d716,2021-09-08_21h04.47.372,forced_choiceRT,2021.1.2,MacIntel,58.82352941,,,,,,,,8,Ontime,j,1,2.026,4,2,18,3,1,,,,,
,0.6,,,,,,,,,f.PNG,f,6110c38319642536b289d716,2021-09-08_21h04.47.372,forced_choiceRT,2021.1.2,MacIntel,58.82352941,,,,,,,,8,Ontime,f,1,2.06,4,3,19,0,1,,,,,
,0.39,,,,,,,,,j.PNG,j,6110c38319642536b289d716,2021-09-08_21h04.47.372,forced_choiceRT,2021.1.2,MacIntel,58.82352941,,,,,,,,8,Ontime,j,1,2.024,5,0,20,3,1,,,,,
,1.25,,,,,,,,,f.PNG,f,6110c38319642536b289d716,2021-09-08_21h04.47.372,forced_choiceRT,2021.1.2,MacIntel,58.82352941,,,,,,,,8,Ontime,f,1,1.943,5,1,21,0,1,,,,,
,0.72,,,,,,,,,j.PNG,j,6110c38319642536b289d716,2021-09-08_21h04.47.372,forced_choiceRT,2021.1.2,MacIntel,58.82352941,,,,,,,,8,Ontime,j,1,1.993,5,2,22,3,1,,,,,
,0.34,,,,,,,,,j.PNG,j,6110c38319642536b289d716,2021-09-08_21h04.47.372,forced_choiceRT,2021.1.2,MacIntel,58.82352941,,,,,,,,8,Fast,j,1,1.76,5,3,23,3,1,,,,,
,1.69,,,,,,,,,f.PNG,f,6110c38319642536b289d716,2021-09-08_21h04.47.372,forced_choiceRT,2021.1.2,MacIntel,58.82352941,,,,,,,,8,Slow,f,1,2.161,6,0,24,0,1,,,,,
,1.51,,,,,,,,,g.PNG,g,6110c38319642536b289d716,2021-09-08_21h04.47.372,forced_choiceRT,2021.1.2,MacIntel,58.82352941,,,,,,,,8,Slow,g,1,2.116,6,1,25,1,1,,,,,
,1.71,,,,,,,,,f.PNG,f,6110c38319642536b289d716,2021-09-08_21h04.47.372,forced_choiceRT,2021.1.2,MacIntel,58.82352941,,,,,,,,8,Slow,f,1,2.174,6,2,26,0,1,,,,,
,0.07,,,,,,,,,f.PNG,f,6110c38319642536b289d716,2021-09-08_21h04.47.372,forced_choiceRT,2021.1.2,MacIntel,58.82352941,,,,,,,,8,Ontime,f,1,1.983,6,3,27,0,1,,,,,
,0.66,,,,,,,,,g.PNG,g,6110c38319642536b289d716,2021-09-08_21h04.47.372,forced_choiceRT,2021.1.2,MacIntel,58.82352941,,,,,,,,8,Ontime,g,1,1.906,7,0,28,1,1,,,,,
,0.8,,,,,,,,,h.PNG,h,6110c38319642536b289d716,2021-09-08_21h04.47.372,forced_choiceRT,2021.1.2,MacIntel,58.82352941,,,,,,,,8,Ontime,h,1,2.066,7,1,29,2,1,,,,,
,0.81,,,,,,,,,j.PNG,j,6110c38319642536b289d716,2021-09-08_21h04.47.372,forced_choiceRT,2021.1.2,MacIntel,58.82352941,,,,,,,,8,Ontime,j,1,2.003,7,2,30,3,1,,,,,
,1.74,,,,,,,,,h.PNG,h,6110c38319642536b289d716,2021-09-08_21h04.47.372,forced_choiceRT,2021.1.2,MacIntel,58.82352941,,,,,,,,8,Ontime,f,0,1.944,7,3,31,2,1,,,,,
,0.18,,,,,,,,,g.PNG,g,6110c38319642536b289d716,2021-09-08_21h04.47.372,forced_choiceRT,2021.1.2,MacIntel,58.82352941,,,,,,,,8,Ontime,g,1,1.925,8,0,32,1,1,,,,,
,1.37,,,,,,,,,g.PNG,g,6110c38319642536b289d716,2021-09-08_21h04.47.372,forced_choiceRT,2021.1.2,MacIntel,58.82352941,,,,,,,,8,Ontime,g,1,1.983,8,1,33,1,1,,,,,
,1.12,,,,,,,,,f.PNG,f,6110c38319642536b289d716,2021-09-08_21h04.47.372,forced_choiceRT,2021.1.2,MacIntel,58.82352941,,,,,,,,8,Ontime,f,1,2.085,8,2,34,0,1,,,,,
,1.22,,,,,,,,,h.PNG,h,6110c38319642536b289d716,2021-09-08_21h04.47.372,forced_choiceRT,2021.1.2,MacIntel,58.82352941,,,,,,,,8,Slow,h,1,2.128,8,3,35,2,1,,,,,
,1.62,,,,,,,,,h.PNG,h,6110c38319642536b289d716,2021-09-08_21h04.47.372,forced_choiceRT,2021.1.2,MacIntel,58.82352941,,,,,,,,8,Slow,g,0,2.157,9,0,36,2,1,,,,,
,0.62,,,,,,,,,f.PNG,f,6110c38319642536b289d716,2021-09-08_21h04.47.372,forced_choiceRT,2021.1.2,MacIntel,58.82352941,,,,,,,,8,Ontime,f,1,2.048,9,1,37,0,1,,,,,
,1.35,,,,,,,,,h.PNG,h,6110c38319642536b289d716,2021-09-08_21h04.47.372,forced_choiceRT,2021.1.2,MacIntel,58.82352941,,,,,,,,8,Ontime,h,1,2.023,9,2,38,2,1,,,,,
,0.97,,,,,,,,,h.PNG,h,6110c38319642536b289d716,2021-09-08_21h04.47.372,forced_choiceRT,2021.1.2,MacIntel,58.82352941,,,,,,,,8,Ontime,h,1,1.954,9,3,39,2,1,,,,,
,,,,,,,,,,,,6110c38319642536b289d716,2021-09-08_21h04.47.372,forced_choiceRT,2021.1.2,MacIntel,58.82352941,,,,,,,,,,,,,,,,,,7,0,7,0,1
,1.46,,,,,,,,,h.PNG,h,6110c38319642536b289d716,2021-09-08_21h04.47.372,forced_choiceRT,2021.1.2,MacIntel,58.82352941,,,,,,,,9,Ontime,f,0,2.017,0,0,0,2,1,,,,,
,0.75,,,,,,,,,f.PNG,f,6110c38319642536b289d716,2021-09-08_21h04.47.372,forced_choiceRT,2021.1.2,MacIntel,58.82352941,,,,,,,,9,Ontime,f,1,2.09,0,1,1,0,1,,,,,
,0.98,,,,,,,,,h.PNG,h,6110c38319642536b289d716,2021-09-08_21h04.47.372,forced_choiceRT,2021.1.2,MacIntel,58.82352941,,,,,,,,9,Fast,g,0,1.827,0,2,2,2,1,,,,,
,1.09,,,,,,,,,g.PNG,g,6110c38319642536b289d716,2021-09-08_21h04.47.372,forced_choiceRT,2021.1.2,MacIntel,58.82352941,,,,,,,,9,Ontime,g,1,1.942,0,3,3,1,1,,,,,
,1.93,,,,,,,,,j.PNG,j,6110c38319642536b289d716,2021-09-08_21h04.47.372,forced_choiceRT,2021.1.2,MacIntel,58.82352941,,,,,,,,9,Ontime,f,0,2.035,1,0,4,3,1,,,,,
,1.09,,,,,,,,,h.PNG,h,6110c38319642536b289d716,2021-09-08_21h04.47.372,forced_choiceRT,2021.1.2,MacIntel,58.82352941,,,,,,,,9,Ontime,h,1,1.952,1,1,5,2,1,,,,,
,0.73,,,,,,,,,f.PNG,f,6110c38319642536b289d716,2021-09-08_21h04.47.372,forced_choiceRT,2021.1.2,MacIntel,58.82352941,,,,,,,,9,Ontime,f,1,1.978,1,2,6,0,1,,,,,
,1.88,,,,,,,,,h.PNG,h,6110c38319642536b289d716,2021-09-08_21h04.47.372,forced_choiceRT,2021.1.2,MacIntel,58.82352941,,,,,,,,9,Ontime,f,0,1.933,1,3,7,2,1,,,,,
,0.42,,,,,,,,,g.PNG,g,6110c38319642536b289d716,2021-09-08_21h04.47.372,forced_choiceRT,2021.1.2,MacIntel,58.82352941,,,,,,,,9,Ontime,g,1,2.041,2,0,8,1,1,,,,,
,1.7,,,,,,,,,j.PNG,j,6110c38319642536b289d716,2021-09-08_21h04.47.372,forced_choiceRT,2021.1.2,MacIntel,58.82352941,,,,,,,,9,Fast,f,0,1.875,2,1,9,3,1,,,,,
,0.79,,,,,,,,,g.PNG,g,6110c38319642536b289d716,2021-09-08_21h04.47.372,forced_choiceRT,2021.1.2,MacIntel,58.82352941,,,,,,,,9,Ontime,g,1,2.05,2,2,10,1,1,,,,,
,1.13,,,,,,,,,f.PNG,f,6110c38319642536b289d716,2021-09-08_21h04.47.372,forced_choiceRT,2021.1.2,MacIntel,58.82352941,,,,,,,,9,Fast,f,1,1.783,2,3,11,0,1,,,,,
,1.66,,,,,,,,,g.PNG,g,6110c38319642536b289d716,2021-09-08_21h04.47.372,forced_choiceRT,2021.1.2,MacIntel,58.82352941,,,,,,,,9,Ontime,f,0,1.916,3,0,12,1,1,,,,,
,0.36,,,,,,,,,f.PNG,f,6110c38319642536b289d716,2021-09-08_21h04.47.372,forced_choiceRT,2021.1.2,MacIntel,58.82352941,,,,,,,,9,Ontime,f,1,1.992,3,1,13,0,1,,,,,
,0.61,,,,,,,,,h.PNG,h,6110c38319642536b289d716,2021-09-08_21h04.47.372,forced_choiceRT,2021.1.2,MacIntel,58.82352941,,,,,,,,9,Ontime,h,1,2.06,3,2,14,2,1,,,,,
,1.45,,,,,,,,,g.PNG,g,6110c38319642536b289d716,2021-09-08_21h04.47.372,forced_choiceRT,2021.1.2,MacIntel,58.82352941,,,,,,,,9,Ontime,f,0,1.984,3,3,15,1,1,,,,,
,1.5,,,,,,,,,h.PNG,h,6110c38319642536b289d716,2021-09-08_21h04.47.372,forced_choiceRT,2021.1.2,MacIntel,58.82352941,,,,,,,,9,Ontime,f,0,1.971,4,0,16,2,1,,,,,
,0.36,,,,,,,,,f.PNG,f,6110c38319642536b289d716,2021-09-08_21h04.47.372,forced_choiceRT,2021.1.2,MacIntel,58.82352941,,,,,,,,9,Ontime,f,1,2.054,4,1,17,0,1,,,,,
,1.26,,,,,,,,,f.PNG,f,6110c38319642536b289d716,2021-09-08_21h04.47.372,forced_choiceRT,2021.1.2,MacIntel,58.82352941,,,,,,,,9,Fast,f,1,1.891,4,2,18,0,1,,,,,
,0.54,,,,,,,,,j.PNG,j,6110c38319642536b289d716,2021-09-08_21h04.47.372,forced_choiceRT,2021.1.2,MacIntel,58.82352941,,,,,,,,9,Ontime,j,1,2.087,4,3,19,3,1,,,,,
,1.67,,,,,,,,,f.PNG,f,6110c38319642536b289d716,2021-09-08_21h04.47.372,forced_choiceRT,2021.1.2,MacIntel,58.82352941,,,,,,,,9,Ontime,j,0,2.092,5,0,20,0,1,,,,,
,0.1,,,,,,,,,j.PNG,j,6110c38319642536b289d716,2021-09-08_21h04.47.372,forced_choiceRT,2021.1.2,MacIntel,58.82352941,,,,,,,,9,Ontime,j,1,2.055,5,1,21,3,1,,,,,
,1.11,,,,,,,,,j.PNG,j,6110c38319642536b289d716,2021-09-08_21h04.47.372,forced_choiceRT,2021.1.2,MacIntel,58.82352941,,,,,,,,9,Ontime,j,1,2.058,5,2,22,3,1,,,,,
,1.73,,,,,,,,,h.PNG,h,6110c38319642536b289d716,2021-09-08_21h04.47.372,forced_choiceRT,2021.1.2,MacIntel,58.82352941,,,,,,,,9,Ontime,j,0,1.935,5,3,23,2,1,,,,,
,0.9,,,,,,,,,h.PNG,h,6110c38319642536b289d716,2021-09-08_21h04.47.372,forced_choiceRT,2021.1.2,MacIntel,58.82352941,,,,,,,,9,Ontime,h,1,2.037,6,0,24,2,1,,,,,
,1.46,,,,,,,,,h.PNG,h,6110c38319642536b289d716,2021-09-08_21h04.47.372,forced_choiceRT,2021.1.2,MacIntel,58.82352941,,,,,,,,9,Ontime,j,0,1.986,6,1,25,2,1,,,,,
,1.41,,,,,,,,,g.PNG,g,6110c38319642536b289d716,2021-09-08_21h04.47.372,forced_choiceRT,2021.1.2,MacIntel,58.82352941,,,,,,,,9,Slow,h,0,2.127,6,2,26,1,1,,,,,
,0.25,,,,,,,,,g.PNG,g,6110c38319642536b289d716,2021-09-08_21h04.47.372,forced_choiceRT,2021.1.2,MacIntel,58.82352941,,,,,,,,9,Ontime,g,1,2.043,6,3,27,1,1,,,,,
,1.8,,,,,,,,,h.PNG,h,6110c38319642536b289d716,2021-09-08_21h04.47.372,forced_choiceRT,2021.1.2,MacIntel,58.82352941,,,,,,,,9,Ontime,g,0,1.9,7,0,28,2,1,,,,,
,0.89,,,,,,,,,g.PNG,g,6110c38319642536b289d716,2021-09-08_21h04.47.372,forced_choiceRT,2021.1.2,MacIntel,58.82352941,,,,,,,,9,Ontime,g,1,2.059,7,1,29,1,1,,,,,
,0.75,,,,,,,,,f.PNG,f,6110c38319642536b289d716,2021-09-08_21h04.47.372,forced_choiceRT,2021.1.2,MacIntel,58.82352941,,,,,,,,9,Ontime,f,1,1.974,7,2,30,0,1,,,,,
,0.97,,,,,,,,,g.PNG,g,6110c38319642536b289d716,2021-09-08_21h04.47.372,forced_choiceRT,2021.1.2,MacIntel,58.82352941,,,,,,,,9,Ontime,g,1,2.094,7,3,31,1,1,,,,,
,1.1,,,,,,,,,f.PNG,f,6110c38319642536b289d716,2021-09-08_21h04.47.372,forced_choiceRT,2021.1.2,MacIntel,58.82352941,,,,,,,,9,Ontime,f,1,2.06,8,0,32,0,1,,,,,
,1.66,,,,,,,,,g.PNG,g,6110c38319642536b289d716,2021-09-08_21h04.47.372,forced_choiceRT,2021.1.2,MacIntel,58.82352941,,,,,,,,9,Ontime,f,0,1.959,8,1,33,1,1,,,,,
,1.72,,,,,,,,,j.PNG,j,6110c38319642536b289d716,2021-09-08_21h04.47.372,forced_choiceRT,2021.1.2,MacIntel,58.82352941,,,,,,,,9,Ontime,f,0,1.927,8,2,34,3,1,,,,,
,1.09,,,,,,,,,j.PNG,j,6110c38319642536b289d716,2021-09-08_21h04.47.372,forced_choiceRT,2021.1.2,MacIntel,58.82352941,,,,,,,,9,Slow,j,1,2.133,8,3,35,3,1,,,,,
,1.9,,,,,,,,,j.PNG,j,6110c38319642536b289d716,2021-09-08_21h04.47.372,forced_choiceRT,2021.1.2,MacIntel,58.82352941,,,,,,,,9,Ontime,j,1,1.93,9,0,36,3,1,,,,,
,1.41,,,,,,,,,j.PNG,j,6110c38319642536b289d716,2021-09-08_21h04.47.372,forced_choiceRT,2021.1.2,MacIntel,58.82352941,,,,,,,,9,Ontime,j,1,1.961,9,1,37,3,1,,,,,
,0.69,,,,,,,,,j.PNG,j,6110c38319642536b289d716,2021-09-08_21h04.47.372,forced_choiceRT,2021.1.2,MacIntel,58.82352941,,,,,,,,9,Slow,j,1,2.125,9,2,38,3,1,,,,,
,1.24,,,,,,,,,f.PNG,f,6110c38319642536b289d716,2021-09-08_21h04.47.372,forced_choiceRT,2021.1.2,MacIntel,58.82352941,,,,,,,,9,Ontime,f,1,1.978,9,3,39,0,1,,,,,
,,,,,,,,,,,,6110c38319642536b289d716,2021-09-08_21h04.47.372,forced_choiceRT,2021.1.2,MacIntel,58.82352941,,,,,,,,,,,,,,,,,,8,0,8,0,1
,1.75,,,,,,,,,f.PNG,f,6110c38319642536b289d716,2021-09-08_21h04.47.372,forced_choiceRT,2021.1.2,MacIntel,58.82352941,,,,,,,,10,Ontime,j,0,2.008,0,0,0,0,1,,,,,
,0.25,,,,,,,,,g.PNG,g,6110c38319642536b289d716,2021-09-08_21h04.47.372,forced_choiceRT,2021.1.2,MacIntel,58.82352941,,,,,,,,10,Ontime,g,1,1.991,0,1,1,1,1,,,,,
,0.14,,,,,,,,,h.PNG,h,6110c38319642536b289d716,2021-09-08_21h04.47.372,forced_choiceRT,2021.1.2,MacIntel,58.82352941,,,,,,,,10,Ontime,h,1,1.923,0,2,2,2,1,,,,,
,1.4,,,,,,,,,j.PNG,j,6110c38319642536b289d716,2021-09-08_21h04.47.372,forced_choiceRT,2021.1.2,MacIntel,58.82352941,,,,,,,,10,Ontime,j,1,2.018,0,3,3,3,1,,,,,
,0.39,,,,,,,,,f.PNG,f,6110c38319642536b289d716,2021-09-08_21h04.47.372,forced_choiceRT,2021.1.2,MacIntel,58.82352941,,,,,,,,10,Fast,f,1,1.858,1,0,4,0,1,,,,,
,1.61,,,,,,,,,h.PNG,h,6110c38319642536b289d716,2021-09-08_21h04.47.372,forced_choiceRT,2021.1.2,MacIntel,58.82352941,,,,,,,,10,Slow,j,0,2.103,1,1,5,2,1,,,,,
,0.29,,,,,,,,,f.PNG,f,6110c38319642536b289d716,2021-09-08_21h04.47.372,forced_choiceRT,2021.1.2,MacIntel,58.82352941,,,,,,,,10,Fast,f,1,1.713,1,2,6,0,1,,,,,
,1.39,,,,,,,,,j.PNG,j,6110c38319642536b289d716,2021-09-08_21h04.47.372,forced_choiceRT,2021.1.2,MacIntel,58.82352941,,,,,,,,10,Ontime,j,1,1.966,1,3,7,3,1,,,,,
,1.58,,,,,,,,,h.PNG,h,6110c38319642536b289d716,2021-09-08_21h04.47.372,forced_choiceRT,2021.1.2,MacIntel,58.82352941,,,,,,,,10,Slow,j,0,2.188,2,0,8,2,1,,,,,
,1,,,,,,,,,g.PNG,g,6110c38319642536b289d716,2021-09-08_21h04.47.372,forced_choiceRT,2021.1.2,MacIntel,58.82352941,,,,,,,,10,Ontime,j,0,1.932,2,1,9,1,1,,,,,
,0.31,,,,,,,,,g.PNG,g,6110c38319642536b289d716,2021-09-08_21h04.47.372,forced_choiceRT,2021.1.2,MacIntel,58.82352941,,,,,,,,10,Ontime,h,0,1.984,2,2,10,1,1,,,,,
,1.24,,,,,,,,,j.PNG,j,6110c38319642536b289d716,2021-09-08_21h04.47.372,forced_choiceRT,2021.1.2,MacIntel,58.82352941,,,,,,,,10,Slow,j,1,2.136,2,3,11,3,1,,,,,
,0.62,,,,,,,,,h.PNG,h,6110c38319642536b289d716,2021-09-08_21h04.47.372,forced_choiceRT,2021.1.2,MacIntel,58.82352941,,,,,,,,10,Ontime,h,1,2.002,3,0,12,2,1,,,,,
,1.88,,,,,,,,,f.PNG,f,6110c38319642536b289d716,2021-09-08_21h04.47.372,forced_choiceRT,2021.1.2,MacIntel,58.82352941,,,,,,,,10,Ontime,f,1,1.933,3,1,13,0,1,,,,,
,1.87,,,,,,,,,f.PNG,f,6110c38319642536b289d716,2021-09-08_21h04.47.372,forced_choiceRT,2021.1.2,MacIntel,58.82352941,,,,,,,,10,Ontime,f,1,1.927,3,2,14,0,1,,,,,
,0.54,,,,,,,,,h.PNG,h,6110c38319642536b289d716,2021-09-08_21h04.47.372,forced_choiceRT,2021.1.2,MacIntel,58.82352941,,,,,,,,10,Ontime,h,1,1.932,3,3,15,2,1,,,,,
,0.07,,,,,,,,,h.PNG,h,6110c38319642536b289d716,2021-09-08_21h04.47.372,forced_choiceRT,2021.1.2,MacIntel,58.82352941,,,,,,,,10,Ontime,h,1,2.02,4,0,16,2,1,,,,,
,1.92,,,,,,,,,j.PNG,j,6110c38319642536b289d716,2021-09-08_21h04.47.372,forced_choiceRT,2021.1.2,MacIntel,58.82352941,,,,,,,,10,Fast,j,1,1.886,4,1,17,3,1,,,,,
,1.55,,,,,,,,,f.PNG,f,6110c38319642536b289d716,2021-09-08_21h04.47.372,forced_choiceRT,2021.1.2,MacIntel,58.82352941,,,,,,,,10,Ontime,j,0,2.006,4,2,18,0,1,,,,,
,1.41,,,,,,,,,j.PNG,j,6110c38319642536b289d716,2021-09-08_21h04.47.372,forced_choiceRT,2021.1.2,MacIntel,58.82352941,,,,,,,,10,Fast,j,1,1.835,4,3,19,3,1,,,,,
,0.61,,,,,,,,,j.PNG,j,6110c38319642536b289d716,2021-09-08_21h04.47.372,forced_choiceRT,2021.1.2,MacIntel,58.82352941,,,,,,,,10,Ontime,j,1,2.076,5,0,20,3,1,,,,,
,1.39,,,,,,,,,f.PNG,f,6110c38319642536b289d716,2021-09-08_21h04.47.372,forced_choiceRT,2021.1.2,MacIntel,58.82352941,,,,,,,,10,Fast,j,0,1.893,5,1,21,0,1,,,,,
,0.31,,,,,,,,,j.PNG,j,6110c38319642536b289d716,2021-09-08_21h04.47.372,forced_choiceRT,2021.1.2,MacIntel,58.82352941,,,,,,,,10,Ontime,j,1,1.949,5,2,22,3,1,,,,,
,1.09,,,,,,,,,g.PNG,g,6110c38319642536b289d716,2021-09-08_21h04.47.372,forced_choiceRT,2021.1.2,MacIntel,58.82352941,,,,,,,,10,Ontime,h,0,2.06,5,3,23,1,1,,,,,
,1.29,,,,,,,,,h.PNG,h,6110c38319642536b289d716,2021-09-08_21h04.47.372,forced_choiceRT,2021.1.2,MacIntel,58.82352941,,,,,,,,10,Ontime,h,1,1.983,6,0,24,2,1,,,,,
,1.45,,,,,,,,,j.PNG,j,6110c38319642536b289d716,2021-09-08_21h04.47.372,forced_choiceRT,2021.1.2,MacIntel,58.82352941,,,,,,,,10,Ontime,h,0,1.998,6,1,25,3,1,,,,,
,1.95,,,,,,,,,j.PNG,j,6110c38319642536b289d716,2021-09-08_21h04.47.372,forced_choiceRT,2021.1.2,MacIntel,58.82352941,,,,,,,,10,Ontime,f,0,2.003,6,2,26,3,1,,,,,
,1.48,,,,,,,,,j.PNG,j,6110c38319642536b289d716,2021-09-08_21h04.47.372,forced_choiceRT,2021.1.2,MacIntel,58.82352941,,,,,,,,10,Fast,f,0,1.888,6,3,27,3,1,,,,,
,0.02,,,,,,,,,h.PNG,h,6110c38319642536b289d716,2021-09-08_21h04.47.372,forced_choiceRT,2021.1.2,MacIntel,58.82352941,,,,,,,,10,Ontime,h,1,2.01,7,0,28,2,1,,,,,
,1.2,,,,,,,,,h.PNG,h,6110c38319642536b289d716,2021-09-08_21h04.47.372,forced_choiceRT,2021.1.2,MacIntel,58.82352941,,,,,,,,10,Slow,h,1,2.121,7,1,29,2,1,,,,,
,1.4,,,,,,,,,g.PNG,g,6110c38319642536b289d716,2021-09-08_21h04.47.372,forced_choiceRT,2021.1.2,MacIntel,58.82352941,,,,,,,,10,Slow,j,0,2.135,7,2,30,1,1,,,,,
,0.61,,,,,,,,,g.PNG,g,6110c38319642536b289d716,2021-09-08_21h04.47.372,forced_choiceRT,2021.1.2,MacIntel,58.82352941,,,,,,,,10,Slow,h,0,2.171,7,3,31,1,1,,,,,
,1.48,,,,,,,,,g.PNG,g,6110c38319642536b289d716,2021-09-08_21h04.47.372,forced_choiceRT,2021.1.2,MacIntel,58.82352941,,,,,,,,10,Ontime,f,0,1.942,8,0,32,1,1,,,,,
,1.19,,,,,,,,,g.PNG,g,6110c38319642536b289d716,2021-09-08_21h04.47.372,forced_choiceRT,2021.1.2,MacIntel,58.82352941,,,,,,,,10,Ontime,g,1,2.003,8,1,33,1,1,,,,,
,0.93,,,,,,,,,f.PNG,f,6110c38319642536b289d716,2021-09-08_21h04.47.372,forced_choiceRT,2021.1.2,MacIntel,58.82352941,,,,,,,,10,Ontime,f,1,2.085,8,2,34,0,1,,,,,
,0.35,,,,,,,,,f.PNG,f,6110c38319642536b289d716,2021-09-08_21h04.47.372,forced_choiceRT,2021.1.2,MacIntel,58.82352941,,,,,,,,10,Ontime,f,1,1.988,8,3,35,0,1,,,,,
,1.18,,,,,,,,,h.PNG,h,6110c38319642536b289d716,2021-09-08_21h04.47.372,forced_choiceRT,2021.1.2,MacIntel,58.82352941,,,,,,,,10,Ontime,h,1,2.007,9,0,36,2,1,,,,,
,1.03,,,,,,,,,f.PNG,f,6110c38319642536b289d716,2021-09-08_21h04.47.372,forced_choiceRT,2021.1.2,MacIntel,58.82352941,,,,,,,,10,Ontime,h,0,2.099,9,1,37,0,1,,,,,
,0.58,,,,,,,,,g.PNG,g,6110c38319642536b289d716,2021-09-08_21h04.47.372,forced_choiceRT,2021.1.2,MacIntel,58.82352941,,,,,,,,10,Ontime,g,1,2.052,9,2,38,1,1,,,,,
,0.03,,,,,,,,,g.PNG,g,6110c38319642536b289d716,2021-09-08_21h04.47.372,forced_choiceRT,2021.1.2,MacIntel,58.82352941,,,,,,,,10,Fast,g,1,1.8,9,3,39,1,1,,,,,
,,,,,,,,,,,,6110c38319642536b289d716,2021-09-08_21h04.47.372,forced_choiceRT,2021.1.2,MacIntel,58.82352941,,,,,,,,,,,,,,,,,,9,0,9,0,1
