IP_Addresss,target_onset,trial_resp_sp.keys,trial_resp_sp.corr,trial_resp_sp.rt,trials_train_loop.thisRepN,trials_train_loop.thisTrialN,trials_train_loop.thisN,trials_train_loop.thisIndex,trials_train_loop.ran,pic,correct_key,participant,date,expName,psychopyVersion,OS,frameRate,trial_resp_timing.keys,trial_resp_timing.rt,trials_train_timing.thisRepN,trials_train_timing.thisTrialN,trials_train_timing.thisN,trials_train_timing.thisIndex,trials_train_timing.ran,block_id,ontime,forcedRT_resp.keys,forcedRT_resp.corr,forcedRT_resp.rt,trials.thisRepN,trials.thisTrialN,trials.thisN,trials.thisIndex,trials.ran,blocks.thisRepN,blocks.thisTrialN,blocks.thisN,blocks.thisIndex,blocks.ran
73.254.73.13,0,j,1,2.5695,0,0,0,3,1,j.PNG,j,6110d421de071a61f949a5a3,2021-09-08_20h08.26.809,forced_choiceRT,2021.1.2,Win32,60.12506013,,,,,,,,,,,,,,,,,,,,,,
,0,h,1,1.1309,0,1,1,2,1,h.PNG,h,6110d421de071a61f949a5a3,2021-09-08_20h08.26.809,forced_choiceRT,2021.1.2,Win32,60.12506013,,,,,,,,,,,,,,,,,,,,,,
,0,h,1,0.6723,0,2,2,2,1,h.PNG,h,6110d421de071a61f949a5a3,2021-09-08_20h08.26.809,forced_choiceRT,2021.1.2,Win32,60.12506013,,,,,,,,,,,,,,,,,,,,,,
,0,g,1,0.8202,0,3,3,1,1,g.PNG,g,6110d421de071a61f949a5a3,2021-09-08_20h08.26.809,forced_choiceRT,2021.1.2,Win32,60.12506013,,,,,,,,,,,,,,,,,,,,,,
,0,f,1,0.7814,1,0,4,0,1,f.PNG,f,6110d421de071a61f949a5a3,2021-09-08_20h08.26.809,forced_choiceRT,2021.1.2,Win32,60.12506013,,,,,,,,,,,,,,,,,,,,,,
,0,g,1,0.8186,1,1,5,1,1,g.PNG,g,6110d421de071a61f949a5a3,2021-09-08_20h08.26.809,forced_choiceRT,2021.1.2,Win32,60.12506013,,,,,,,,,,,,,,,,,,,,,,
,0,g,1,0.6848,1,2,6,1,1,g.PNG,g,6110d421de071a61f949a5a3,2021-09-08_20h08.26.809,forced_choiceRT,2021.1.2,Win32,60.12506013,,,,,,,,,,,,,,,,,,,,,,
,0,j,1,0.9216,1,3,7,3,1,j.PNG,j,6110d421de071a61f949a5a3,2021-09-08_20h08.26.809,forced_choiceRT,2021.1.2,Win32,60.12506013,,,,,,,,,,,,,,,,,,,,,,
,0,h,0,0.4956,2,0,8,1,1,g.PNG,g,6110d421de071a61f949a5a3,2021-09-08_20h08.26.809,forced_choiceRT,2021.1.2,Win32,60.12506013,,,,,,,,,,,,,,,,,,,,,,
,0,h,1,1.1021,2,1,9,2,1,h.PNG,h,6110d421de071a61f949a5a3,2021-09-08_20h08.26.809,forced_choiceRT,2021.1.2,Win32,60.12506013,,,,,,,,,,,,,,,,,,,,,,
,0,h,1,0.7513,2,2,10,2,1,h.PNG,h,6110d421de071a61f949a5a3,2021-09-08_20h08.26.809,forced_choiceRT,2021.1.2,Win32,60.12506013,,,,,,,,,,,,,,,,,,,,,,
,0,h,1,0.4607,2,3,11,2,1,h.PNG,h,6110d421de071a61f949a5a3,2021-09-08_20h08.26.809,forced_choiceRT,2021.1.2,Win32,60.12506013,,,,,,,,,,,,,,,,,,,,,,
,0,j,1,0.8019,3,0,12,3,1,j.PNG,j,6110d421de071a61f949a5a3,2021-09-08_20h08.26.809,forced_choiceRT,2021.1.2,Win32,60.12506013,,,,,,,,,,,,,,,,,,,,,,
,0,f,1,0.7407,3,1,13,0,1,f.PNG,f,6110d421de071a61f949a5a3,2021-09-08_20h08.26.809,forced_choiceRT,2021.1.2,Win32,60.12506013,,,,,,,,,,,,,,,,,,,,,,
,0,h,1,1.2007,3,2,14,2,1,h.PNG,h,6110d421de071a61f949a5a3,2021-09-08_20h08.26.809,forced_choiceRT,2021.1.2,Win32,60.12506013,,,,,,,,,,,,,,,,,,,,,,
,0,j,1,0.8676,3,3,15,3,1,j.PNG,j,6110d421de071a61f949a5a3,2021-09-08_20h08.26.809,forced_choiceRT,2021.1.2,Win32,60.12506013,,,,,,,,,,,,,,,,,,,,,,
,0,f,1,0.8958,4,0,16,0,1,f.PNG,f,6110d421de071a61f949a5a3,2021-09-08_20h08.26.809,forced_choiceRT,2021.1.2,Win32,60.12506013,,,,,,,,,,,,,,,,,,,,,,
,0,f,1,1.2139,4,1,17,0,1,f.PNG,f,6110d421de071a61f949a5a3,2021-09-08_20h08.26.809,forced_choiceRT,2021.1.2,Win32,60.12506013,,,,,,,,,,,,,,,,,,,,,,
,0,j,1,0.781,4,2,18,3,1,j.PNG,j,6110d421de071a61f949a5a3,2021-09-08_20h08.26.809,forced_choiceRT,2021.1.2,Win32,60.12506013,,,,,,,,,,,,,,,,,,,,,,
,0,f,1,0.6697,4,3,19,0,1,f.PNG,f,6110d421de071a61f949a5a3,2021-09-08_20h08.26.809,forced_choiceRT,2021.1.2,Win32,60.12506013,,,,,,,,,,,,,,,,,,,,,,
,0,j,1,0.7179,5,0,20,3,1,j.PNG,j,6110d421de071a61f949a5a3,2021-09-08_20h08.26.809,forced_choiceRT,2021.1.2,Win32,60.12506013,,,,,,,,,,,,,,,,,,,,,,
,0,j,1,0.7389,5,1,21,3,1,j.PNG,j,6110d421de071a61f949a5a3,2021-09-08_20h08.26.809,forced_choiceRT,2021.1.2,Win32,60.12506013,,,,,,,,,,,,,,,,,,,,,,
,0,g,1,1.0383,5,2,22,1,1,g.PNG,g,6110d421de071a61f949a5a3,2021-09-08_20h08.26.809,forced_choiceRT,2021.1.2,Win32,60.12506013,,,,,,,,,,,,,,,,,,,,,,
,0,g,1,0.7017,5,3,23,1,1,g.PNG,g,6110d421de071a61f949a5a3,2021-09-08_20h08.26.809,forced_choiceRT,2021.1.2,Win32,60.12506013,,,,,,,,,,,,,,,,,,,,,,
,0,h,1,0.7419,6,0,24,2,1,h.PNG,h,6110d421de071a61f949a5a3,2021-09-08_20h08.26.809,forced_choiceRT,2021.1.2,Win32,60.12506013,,,,,,,,,,,,,,,,,,,,,,
,0,g,1,0.5597,6,1,25,1,1,g.PNG,g,6110d421de071a61f949a5a3,2021-09-08_20h08.26.809,forced_choiceRT,2021.1.2,Win32,60.12506013,,,,,,,,,,,,,,,,,,,,,,
,0,f,1,0.6875,6,2,26,0,1,f.PNG,f,6110d421de071a61f949a5a3,2021-09-08_20h08.26.809,forced_choiceRT,2021.1.2,Win32,60.12506013,,,,,,,,,,,,,,,,,,,,,,
,0,j,1,0.8342,6,3,27,3,1,j.PNG,j,6110d421de071a61f949a5a3,2021-09-08_20h08.26.809,forced_choiceRT,2021.1.2,Win32,60.12506013,,,,,,,,,,,,,,,,,,,,,,
,0,g,1,0.8529,7,0,28,1,1,g.PNG,g,6110d421de071a61f949a5a3,2021-09-08_20h08.26.809,forced_choiceRT,2021.1.2,Win32,60.12506013,,,,,,,,,,,,,,,,,,,,,,
,0,f,1,0.6437,7,1,29,0,1,f.PNG,f,6110d421de071a61f949a5a3,2021-09-08_20h08.26.809,forced_choiceRT,2021.1.2,Win32,60.12506013,,,,,,,,,,,,,,,,,,,,,,
,0,g,1,0.7511,7,2,30,1,1,g.PNG,g,6110d421de071a61f949a5a3,2021-09-08_20h08.26.809,forced_choiceRT,2021.1.2,Win32,60.12506013,,,,,,,,,,,,,,,,,,,,,,
,0,f,1,0.6147,7,3,31,0,1,f.PNG,f,6110d421de071a61f949a5a3,2021-09-08_20h08.26.809,forced_choiceRT,2021.1.2,Win32,60.12506013,,,,,,,,,,,,,,,,,,,,,,
,0,j,1,0.6695,8,0,32,3,1,j.PNG,j,6110d421de071a61f949a5a3,2021-09-08_20h08.26.809,forced_choiceRT,2021.1.2,Win32,60.12506013,,,,,,,,,,,,,,,,,,,,,,
,0,j,1,0.7899,8,1,33,3,1,j.PNG,j,6110d421de071a61f949a5a3,2021-09-08_20h08.26.809,forced_choiceRT,2021.1.2,Win32,60.12506013,,,,,,,,,,,,,,,,,,,,,,
,0,j,1,0.5755,8,2,34,3,1,j.PNG,j,6110d421de071a61f949a5a3,2021-09-08_20h08.26.809,forced_choiceRT,2021.1.2,Win32,60.12506013,,,,,,,,,,,,,,,,,,,,,,
,0,g,1,0.6865,8,3,35,1,1,g.PNG,g,6110d421de071a61f949a5a3,2021-09-08_20h08.26.809,forced_choiceRT,2021.1.2,Win32,60.12506013,,,,,,,,,,,,,,,,,,,,,,
,0,f,1,0.601,9,0,36,0,1,f.PNG,f,6110d421de071a61f949a5a3,2021-09-08_20h08.26.809,forced_choiceRT,2021.1.2,Win32,60.12506013,,,,,,,,,,,,,,,,,,,,,,
,0,g,1,0.7448,9,1,37,1,1,g.PNG,g,6110d421de071a61f949a5a3,2021-09-08_20h08.26.809,forced_choiceRT,2021.1.2,Win32,60.12506013,,,,,,,,,,,,,,,,,,,,,,
,0,f,1,0.6535,9,2,38,0,1,f.PNG,f,6110d421de071a61f949a5a3,2021-09-08_20h08.26.809,forced_choiceRT,2021.1.2,Win32,60.12506013,,,,,,,,,,,,,,,,,,,,,,
,0,h,1,0.7425,9,3,39,2,1,h.PNG,h,6110d421de071a61f949a5a3,2021-09-08_20h08.26.809,forced_choiceRT,2021.1.2,Win32,60.12506013,,,,,,,,,,,,,,,,,,,,,,
,0,j,1,0.671,10,0,40,3,1,j.PNG,j,6110d421de071a61f949a5a3,2021-09-08_20h08.26.809,forced_choiceRT,2021.1.2,Win32,60.12506013,,,,,,,,,,,,,,,,,,,,,,
,0,j,1,0.476,10,1,41,3,1,j.PNG,j,6110d421de071a61f949a5a3,2021-09-08_20h08.26.809,forced_choiceRT,2021.1.2,Win32,60.12506013,,,,,,,,,,,,,,,,,,,,,,
,0,h,1,0.5895,10,2,42,2,1,h.PNG,h,6110d421de071a61f949a5a3,2021-09-08_20h08.26.809,forced_choiceRT,2021.1.2,Win32,60.12506013,,,,,,,,,,,,,,,,,,,,,,
,0,h,1,0.7118,10,3,43,2,1,h.PNG,h,6110d421de071a61f949a5a3,2021-09-08_20h08.26.809,forced_choiceRT,2021.1.2,Win32,60.12506013,,,,,,,,,,,,,,,,,,,,,,
,0,f,1,0.6375,11,0,44,0,1,f.PNG,f,6110d421de071a61f949a5a3,2021-09-08_20h08.26.809,forced_choiceRT,2021.1.2,Win32,60.12506013,,,,,,,,,,,,,,,,,,,,,,
,0,g,1,0.6052,11,1,45,1,1,g.PNG,g,6110d421de071a61f949a5a3,2021-09-08_20h08.26.809,forced_choiceRT,2021.1.2,Win32,60.12506013,,,,,,,,,,,,,,,,,,,,,,
,0,f,1,1.5081,11,2,46,0,1,f.PNG,f,6110d421de071a61f949a5a3,2021-09-08_20h08.26.809,forced_choiceRT,2021.1.2,Win32,60.12506013,,,,,,,,,,,,,,,,,,,,,,
,0,f,1,0.8051,11,3,47,0,1,f.PNG,f,6110d421de071a61f949a5a3,2021-09-08_20h08.26.809,forced_choiceRT,2021.1.2,Win32,60.12506013,,,,,,,,,,,,,,,,,,,,,,
,0,h,1,0.6947,12,0,48,2,1,h.PNG,h,6110d421de071a61f949a5a3,2021-09-08_20h08.26.809,forced_choiceRT,2021.1.2,Win32,60.12506013,,,,,,,,,,,,,,,,,,,,,,
,0,h,0,0.554,12,1,49,3,1,j.PNG,j,6110d421de071a61f949a5a3,2021-09-08_20h08.26.809,forced_choiceRT,2021.1.2,Win32,60.12506013,,,,,,,,,,,,,,,,,,,,,,
,0,h,1,0.7732,12,2,50,2,1,h.PNG,h,6110d421de071a61f949a5a3,2021-09-08_20h08.26.809,forced_choiceRT,2021.1.2,Win32,60.12506013,,,,,,,,,,,,,,,,,,,,,,
,0,h,1,0.5011,12,3,51,2,1,h.PNG,h,6110d421de071a61f949a5a3,2021-09-08_20h08.26.809,forced_choiceRT,2021.1.2,Win32,60.12506013,,,,,,,,,,,,,,,,,,,,,,
,0,g,1,0.6044,13,0,52,1,1,g.PNG,g,6110d421de071a61f949a5a3,2021-09-08_20h08.26.809,forced_choiceRT,2021.1.2,Win32,60.12506013,,,,,,,,,,,,,,,,,,,,,,
,0,f,1,0.5846,13,1,53,0,1,f.PNG,f,6110d421de071a61f949a5a3,2021-09-08_20h08.26.809,forced_choiceRT,2021.1.2,Win32,60.12506013,,,,,,,,,,,,,,,,,,,,,,
,0,h,1,0.9122,13,2,54,2,1,h.PNG,h,6110d421de071a61f949a5a3,2021-09-08_20h08.26.809,forced_choiceRT,2021.1.2,Win32,60.12506013,,,,,,,,,,,,,,,,,,,,,,
,0,f,1,0.5847,13,3,55,0,1,f.PNG,f,6110d421de071a61f949a5a3,2021-09-08_20h08.26.809,forced_choiceRT,2021.1.2,Win32,60.12506013,,,,,,,,,,,,,,,,,,,,,,
,0,h,1,0.581,14,0,56,2,1,h.PNG,h,6110d421de071a61f949a5a3,2021-09-08_20h08.26.809,forced_choiceRT,2021.1.2,Win32,60.12506013,,,,,,,,,,,,,,,,,,,,,,
,0,j,1,0.7046,14,1,57,3,1,j.PNG,j,6110d421de071a61f949a5a3,2021-09-08_20h08.26.809,forced_choiceRT,2021.1.2,Win32,60.12506013,,,,,,,,,,,,,,,,,,,,,,
,0,g,1,0.7578,14,2,58,1,1,g.PNG,g,6110d421de071a61f949a5a3,2021-09-08_20h08.26.809,forced_choiceRT,2021.1.2,Win32,60.12506013,,,,,,,,,,,,,,,,,,,,,,
,0,g,1,0.5179,14,3,59,1,1,g.PNG,g,6110d421de071a61f949a5a3,2021-09-08_20h08.26.809,forced_choiceRT,2021.1.2,Win32,60.12506013,,,,,,,,,,,,,,,,,,,,,,
,,,,,,,,,,,,6110d421de071a61f949a5a3,2021-09-08_20h08.26.809,forced_choiceRT,2021.1.2,Win32,60.12506013,h,2.2683,0,0,0,0,1,,,,,,,,,,,,,,,
,,,,,,,,,,,,6110d421de071a61f949a5a3,2021-09-08_20h08.26.809,forced_choiceRT,2021.1.2,Win32,60.12506013,h,1.8896,1,0,1,0,1,,,,,,,,,,,,,,,
,,,,,,,,,,,,6110d421de071a61f949a5a3,2021-09-08_20h08.26.809,forced_choiceRT,2021.1.2,Win32,60.12506013,j,2.0182,2,0,2,0,1,,,,,,,,,,,,,,,
,,,,,,,,,,,,6110d421de071a61f949a5a3,2021-09-08_20h08.26.809,forced_choiceRT,2021.1.2,Win32,60.12506013,f,1.9517,3,0,3,0,1,,,,,,,,,,,,,,,
,,,,,,,,,,,,6110d421de071a61f949a5a3,2021-09-08_20h08.26.809,forced_choiceRT,2021.1.2,Win32,60.12506013,g,2.0543,4,0,4,0,1,,,,,,,,,,,,,,,
,,,,,,,,,,,,6110d421de071a61f949a5a3,2021-09-08_20h08.26.809,forced_choiceRT,2021.1.2,Win32,60.12506013,h,2.0477,5,0,5,0,1,,,,,,,,,,,,,,,
,,,,,,,,,,,,6110d421de071a61f949a5a3,2021-09-08_20h08.26.809,forced_choiceRT,2021.1.2,Win32,60.12506013,j,2.06,6,0,6,0,1,,,,,,,,,,,,,,,
,,,,,,,,,,,,6110d421de071a61f949a5a3,2021-09-08_20h08.26.809,forced_choiceRT,2021.1.2,Win32,60.12506013,f,2.0787,7,0,7,0,1,,,,,,,,,,,,,,,
,,,,,,,,,,,,6110d421de071a61f949a5a3,2021-09-08_20h08.26.809,forced_choiceRT,2021.1.2,Win32,60.12506013,g,2.0684,8,0,8,0,1,,,,,,,,,,,,,,,
,,,,,,,,,,,,6110d421de071a61f949a5a3,2021-09-08_20h08.26.809,forced_choiceRT,2021.1.2,Win32,60.12506013,h,2.0847,9,0,9,0,1,,,,,,,,,,,,,,,
,,,,,,,,,,,,6110d421de071a61f949a5a3,2021-09-08_20h08.26.809,forced_choiceRT,2021.1.2,Win32,60.12506013,j,2.0513,10,0,10,0,1,,,,,,,,,,,,,,,
,,,,,,,,,,,,6110d421de071a61f949a5a3,2021-09-08_20h08.26.809,forced_choiceRT,2021.1.2,Win32,60.12506013,f,2.0465,11,0,11,0,1,,,,,,,,,,,,,,,
,,,,,,,,,,,,6110d421de071a61f949a5a3,2021-09-08_20h08.26.809,forced_choiceRT,2021.1.2,Win32,60.12506013,g,2.0353,12,0,12,0,1,,,,,,,,,,,,,,,
,,,,,,,,,,,,6110d421de071a61f949a5a3,2021-09-08_20h08.26.809,forced_choiceRT,2021.1.2,Win32,60.12506013,h,2.1016,13,0,13,0,1,,,,,,,,,,,,,,,
,,,,,,,,,,,,6110d421de071a61f949a5a3,2021-09-08_20h08.26.809,forced_choiceRT,2021.1.2,Win32,60.12506013,h,2.0565,14,0,14,0,1,,,,,,,,,,,,,,,
,,,,,,,,,,,,6110d421de071a61f949a5a3,2021-09-08_20h08.26.809,forced_choiceRT,2021.1.2,Win32,60.12506013,j,2.0798,15,0,15,0,1,,,,,,,,,,,,,,,
,,,,,,,,,,,,6110d421de071a61f949a5a3,2021-09-08_20h08.26.809,forced_choiceRT,2021.1.2,Win32,60.12506013,g,2.0771,16,0,16,0,1,,,,,,,,,,,,,,,
,,,,,,,,,,,,6110d421de071a61f949a5a3,2021-09-08_20h08.26.809,forced_choiceRT,2021.1.2,Win32,60.12506013,f,2.1185,17,0,17,0,1,,,,,,,,,,,,,,,
,,,,,,,,,,,,6110d421de071a61f949a5a3,2021-09-08_20h08.26.809,forced_choiceRT,2021.1.2,Win32,60.12506013,g,2.052,18,0,18,0,1,,,,,,,,,,,,,,,
,,,,,,,,,,,,6110d421de071a61f949a5a3,2021-09-08_20h08.26.809,forced_choiceRT,2021.1.2,Win32,60.12506013,h,2.0588,19,0,19,0,1,,,,,,,,,,,,,,,
,1.95,,,,,,,,,j.PNG,j,6110d421de071a61f949a5a3,2021-09-08_20h08.26.809,forced_choiceRT,2021.1.2,Win32,60.12506013,,,,,,,,1,Slow,h,0,2.1177,0,0,0,3,1,,,,,
,1.56,,,,,,,,,g.PNG,g,6110d421de071a61f949a5a3,2021-09-08_20h08.26.809,forced_choiceRT,2021.1.2,Win32,60.12506013,,,,,,,,1,Ontime,h,0,1.9955,0,1,1,1,1,,,,,
,0.41,,,,,,,,,g.PNG,g,6110d421de071a61f949a5a3,2021-09-08_20h08.26.809,forced_choiceRT,2021.1.2,Win32,60.12506013,,,,,,,,1,Ontime,g,1,2.0216,0,2,2,1,1,,,,,
,1.94,,,,,,,,,f.PNG,f,6110d421de071a61f949a5a3,2021-09-08_20h08.26.809,forced_choiceRT,2021.1.2,Win32,60.12506013,,,,,,,,1,Slow,f,1,2.3285,0,3,3,0,1,,,,,
,0.77,,,,,,,,,g.PNG,g,6110d421de071a61f949a5a3,2021-09-08_20h08.26.809,forced_choiceRT,2021.1.2,Win32,60.12506013,,,,,,,,1,Ontime,g,1,2.0353,1,0,4,1,1,,,,,
,1.04,,,,,,,,,f.PNG,f,6110d421de071a61f949a5a3,2021-09-08_20h08.26.809,forced_choiceRT,2021.1.2,Win32,60.12506013,,,,,,,,1,Ontime,f,1,2.0851,1,1,5,0,1,,,,,
,1.79,,,,,,,,,h.PNG,h,6110d421de071a61f949a5a3,2021-09-08_20h08.26.809,forced_choiceRT,2021.1.2,Win32,60.12506013,,,,,,,,1,Slow,g,0,2.1678,1,2,6,2,1,,,,,
,1.31,,,,,,,,,j.PNG,j,6110d421de071a61f949a5a3,2021-09-08_20h08.26.809,forced_choiceRT,2021.1.2,Win32,60.12506013,,,,,,,,1,Ontime,j,1,1.9233,1,3,7,3,1,,,,,
,1.21,,,,,,,,,f.PNG,f,6110d421de071a61f949a5a3,2021-09-08_20h08.26.809,forced_choiceRT,2021.1.2,Win32,60.12506013,,,,,,,,1,Ontime,f,1,2.0182,2,0,8,0,1,,,,,
,1.27,,,,,,,,,f.PNG,f,6110d421de071a61f949a5a3,2021-09-08_20h08.26.809,forced_choiceRT,2021.1.2,Win32,60.12506013,,,,,,,,1,Ontime,f,1,2.0465,2,1,9,0,1,,,,,
,1.76,,,,,,,,,f.PNG,f,6110d421de071a61f949a5a3,2021-09-08_20h08.26.809,forced_choiceRT,2021.1.2,Win32,60.12506013,,,,,,,,1,Ontime,h,0,2.0706,2,2,10,0,1,,,,,
,0.83,,,,,,,,,g.PNG,g,6110d421de071a61f949a5a3,2021-09-08_20h08.26.809,forced_choiceRT,2021.1.2,Win32,60.12506013,,,,,,,,1,Ontime,g,1,2.0847,2,3,11,1,1,,,,,
,0.8,,,,,,,,,h.PNG,h,6110d421de071a61f949a5a3,2021-09-08_20h08.26.809,forced_choiceRT,2021.1.2,Win32,60.12506013,,,,,,,,1,Slow,h,1,2.1013,3,0,12,2,1,,,,,
,1.39,,,,,,,,,g.PNG,g,6110d421de071a61f949a5a3,2021-09-08_20h08.26.809,forced_choiceRT,2021.1.2,Win32,60.12506013,,,,,,,,1,Slow,g,1,2.125,3,1,13,1,1,,,,,
,1.51,,,,,,,,,j.PNG,j,6110d421de071a61f949a5a3,2021-09-08_20h08.26.809,forced_choiceRT,2021.1.2,Win32,60.12506013,,,,,,,,1,Slow,j,1,2.1512,3,2,14,3,1,,,,,
,0.55,,,,,,,,,f.PNG,f,6110d421de071a61f949a5a3,2021-09-08_20h08.26.809,forced_choiceRT,2021.1.2,Win32,60.12506013,,,,,,,,1,Ontime,f,1,2.0577,3,3,15,0,1,,,,,
,1.9,,,,,,,,,j.PNG,j,6110d421de071a61f949a5a3,2021-09-08_20h08.26.809,forced_choiceRT,2021.1.2,Win32,60.12506013,,,,,,,,1,Slow,h,0,2.1461,4,0,16,3,1,,,,,
,1.51,,,,,,,,,g.PNG,g,6110d421de071a61f949a5a3,2021-09-08_20h08.26.809,forced_choiceRT,2021.1.2,Win32,60.12506013,,,,,,,,1,Ontime,g,1,2.0467,4,1,17,1,1,,,,,
,1.05,,,,,,,,,h.PNG,h,6110d421de071a61f949a5a3,2021-09-08_20h08.26.809,forced_choiceRT,2021.1.2,Win32,60.12506013,,,,,,,,1,Ontime,h,1,2.0184,4,2,18,2,1,,,,,
,1.32,,,,,,,,,f.PNG,f,6110d421de071a61f949a5a3,2021-09-08_20h08.26.809,forced_choiceRT,2021.1.2,Win32,60.12506013,,,,,,,,1,Ontime,f,1,2.0178,4,3,19,0,1,,,,,
,0.57,,,,,,,,,h.PNG,h,6110d421de071a61f949a5a3,2021-09-08_20h08.26.809,forced_choiceRT,2021.1.2,Win32,60.12506013,,,,,,,,1,Ontime,h,1,2.0644,5,0,20,2,1,,,,,
,1.69,,,,,,,,,h.PNG,h,6110d421de071a61f949a5a3,2021-09-08_20h08.26.809,forced_choiceRT,2021.1.2,Win32,60.12506013,,,,,,,,1,Slow,h,1,2.1053,5,1,21,2,1,,,,,
,1.64,,,,,,,,,h.PNG,h,6110d421de071a61f949a5a3,2021-09-08_20h08.26.809,forced_choiceRT,2021.1.2,Win32,60.12506013,,,,,,,,1,Slow,h,1,2.1076,5,2,22,2,1,,,,,
,1.2,,,,,,,,,f.PNG,f,6110d421de071a61f949a5a3,2021-09-08_20h08.26.809,forced_choiceRT,2021.1.2,Win32,60.12506013,,,,,,,,1,Ontime,f,1,2.0444,5,3,23,0,1,,,,,
,1.89,,,,,,,,,h.PNG,h,6110d421de071a61f949a5a3,2021-09-08_20h08.26.809,forced_choiceRT,2021.1.2,Win32,60.12506013,,,,,,,,1,Slow,g,0,2.2859,6,0,24,2,1,,,,,
,0.6,,,,,,,,,j.PNG,j,6110d421de071a61f949a5a3,2021-09-08_20h08.26.809,forced_choiceRT,2021.1.2,Win32,60.12506013,,,,,,,,1,Ontime,j,1,1.9995,6,1,25,3,1,,,,,
,1.16,,,,,,,,,g.PNG,g,6110d421de071a61f949a5a3,2021-09-08_20h08.26.809,forced_choiceRT,2021.1.2,Win32,60.12506013,,,,,,,,1,Ontime,g,1,1.9964,6,2,26,1,1,,,,,
,0.47,,,,,,,,,j.PNG,j,6110d421de071a61f949a5a3,2021-09-08_20h08.26.809,forced_choiceRT,2021.1.2,Win32,60.12506013,,,,,,,,1,Ontime,j,1,2.0347,6,3,27,3,1,,,,,
,1.68,,,,,,,,,h.PNG,h,6110d421de071a61f949a5a3,2021-09-08_20h08.26.809,forced_choiceRT,2021.1.2,Win32,60.12506013,,,,,,,,1,Ontime,h,1,2.0099,7,0,28,2,1,,,,,
,0.35,,,,,,,,,f.PNG,f,6110d421de071a61f949a5a3,2021-09-08_20h08.26.809,forced_choiceRT,2021.1.2,Win32,60.12506013,,,,,,,,1,Ontime,f,1,2.0647,7,1,29,0,1,,,,,
,1.45,,,,,,,,,g.PNG,g,6110d421de071a61f949a5a3,2021-09-08_20h08.26.809,forced_choiceRT,2021.1.2,Win32,60.12506013,,,,,,,,1,Ontime,g,1,2.0354,7,2,30,1,1,,,,,
,1.87,,,,,,,,,h.PNG,h,6110d421de071a61f949a5a3,2021-09-08_20h08.26.809,forced_choiceRT,2021.1.2,Win32,60.12506013,,,,,,,,1,Ontime,h,1,2.0761,7,3,31,2,1,,,,,
,1.83,,,,,,,,,j.PNG,j,6110d421de071a61f949a5a3,2021-09-08_20h08.26.809,forced_choiceRT,2021.1.2,Win32,60.12506013,,,,,,,,1,Ontime,j,1,2.0689,8,0,32,3,1,,,,,
,1.13,,,,,,,,,h.PNG,h,6110d421de071a61f949a5a3,2021-09-08_20h08.26.809,forced_choiceRT,2021.1.2,Win32,60.12506013,,,,,,,,1,Ontime,h,1,2.0778,8,1,33,2,1,,,,,
,0.5,,,,,,,,,j.PNG,j,6110d421de071a61f949a5a3,2021-09-08_20h08.26.809,forced_choiceRT,2021.1.2,Win32,60.12506013,,,,,,,,1,Ontime,j,1,2.0538,8,2,34,3,1,,,,,
,0.64,,,,,,,,,f.PNG,f,6110d421de071a61f949a5a3,2021-09-08_20h08.26.809,forced_choiceRT,2021.1.2,Win32,60.12506013,,,,,,,,1,Slow,f,1,2.1278,8,3,35,0,1,,,,,
,1.54,,,,,,,,,g.PNG,g,6110d421de071a61f949a5a3,2021-09-08_20h08.26.809,forced_choiceRT,2021.1.2,Win32,60.12506013,,,,,,,,1,Slow,g,1,2.1726,9,0,36,1,1,,,,,
,0.13,,,,,,,,,g.PNG,g,6110d421de071a61f949a5a3,2021-09-08_20h08.26.809,forced_choiceRT,2021.1.2,Win32,60.12506013,,,,,,,,1,Ontime,g,1,2.0364,9,1,37,1,1,,,,,
,0.87,,,,,,,,,j.PNG,j,6110d421de071a61f949a5a3,2021-09-08_20h08.26.809,forced_choiceRT,2021.1.2,Win32,60.12506013,,,,,,,,1,Fast,j,1,1.824,9,2,38,3,1,,,,,
,1.76,,,,,,,,,j.PNG,j,6110d421de071a61f949a5a3,2021-09-08_20h08.26.809,forced_choiceRT,2021.1.2,Win32,60.12506013,,,,,,,,1,Slow,h,0,2.1019,9,3,39,3,1,,,,,
,,,,,,,,,,,,6110d421de071a61f949a5a3,2021-09-08_20h08.26.809,forced_choiceRT,2021.1.2,Win32,60.12506013,,,,,,,,,,,,,,,,,,0,0,0,0,1
,1.01,,,,,,,,,f.PNG,f,6110d421de071a61f949a5a3,2021-09-08_20h08.26.809,forced_choiceRT,2021.1.2,Win32,60.12506013,,,,,,,,2,Fast,f,1,1.5419,0,0,0,0,1,,,,,
,1.96,,,,,,,,,f.PNG,f,6110d421de071a61f949a5a3,2021-09-08_20h08.26.809,forced_choiceRT,2021.1.2,Win32,60.12506013,,,,,,,,2,Slow,h,0,2.1255,0,1,1,0,1,,,,,
,1.3,,,,,,,,,j.PNG,j,6110d421de071a61f949a5a3,2021-09-08_20h08.26.809,forced_choiceRT,2021.1.2,Win32,60.12506013,,,,,,,,2,Ontime,j,1,1.9588,0,2,2,3,1,,,,,
,1.75,,,,,,,,,f.PNG,f,6110d421de071a61f949a5a3,2021-09-08_20h08.26.809,forced_choiceRT,2021.1.2,Win32,60.12506013,,,,,,,,2,Ontime,f,1,2.0472,0,3,3,0,1,,,,,
,1.85,,,,,,,,,h.PNG,h,6110d421de071a61f949a5a3,2021-09-08_20h08.26.809,forced_choiceRT,2021.1.2,Win32,60.12506013,,,,,,,,2,Slow,g,0,2.1013,1,0,4,2,1,,,,,
,1.93,,,,,,,,,f.PNG,f,6110d421de071a61f949a5a3,2021-09-08_20h08.26.809,forced_choiceRT,2021.1.2,Win32,60.12506013,,,,,,,,2,Ontime,f,1,2.0575,1,1,5,0,1,,,,,
,0.29,,,,,,,,,f.PNG,f,6110d421de071a61f949a5a3,2021-09-08_20h08.26.809,forced_choiceRT,2021.1.2,Win32,60.12506013,,,,,,,,2,Ontime,f,1,2.0517,1,2,6,0,1,,,,,
,1.16,,,,,,,,,j.PNG,j,6110d421de071a61f949a5a3,2021-09-08_20h08.26.809,forced_choiceRT,2021.1.2,Win32,60.12506013,,,,,,,,2,Slow,j,1,2.1014,1,3,7,3,1,,,,,
,0.43,,,,,,,,,j.PNG,j,6110d421de071a61f949a5a3,2021-09-08_20h08.26.809,forced_choiceRT,2021.1.2,Win32,60.12506013,,,,,,,,2,Ontime,j,1,2.0078,2,0,8,3,1,,,,,
,0.56,,,,,,,,,j.PNG,j,6110d421de071a61f949a5a3,2021-09-08_20h08.26.809,forced_choiceRT,2021.1.2,Win32,60.12506013,,,,,,,,2,Ontime,j,1,2.0515,2,1,9,3,1,,,,,
,1.43,,,,,,,,,h.PNG,h,6110d421de071a61f949a5a3,2021-09-08_20h08.26.809,forced_choiceRT,2021.1.2,Win32,60.12506013,,,,,,,,2,Ontime,h,1,1.9907,2,2,10,2,1,,,,,
,0.21,,,,,,,,,h.PNG,h,6110d421de071a61f949a5a3,2021-09-08_20h08.26.809,forced_choiceRT,2021.1.2,Win32,60.12506013,,,,,,,,2,Ontime,h,1,2.0292,2,3,11,2,1,,,,,
,0.11,,,,,,,,,g.PNG,g,6110d421de071a61f949a5a3,2021-09-08_20h08.26.809,forced_choiceRT,2021.1.2,Win32,60.12506013,,,,,,,,2,Slow,g,1,2.1016,3,0,12,1,1,,,,,
,0.86,,,,,,,,,g.PNG,g,6110d421de071a61f949a5a3,2021-09-08_20h08.26.809,forced_choiceRT,2021.1.2,Win32,60.12506013,,,,,,,,2,Ontime,g,1,2.0202,3,1,13,1,1,,,,,
,1.6,,,,,,,,,f.PNG,f,6110d421de071a61f949a5a3,2021-09-08_20h08.26.809,forced_choiceRT,2021.1.2,Win32,60.12506013,,,,,,,,2,Ontime,g,0,2.035,3,2,14,0,1,,,,,
,1.97,,,,,,,,,g.PNG,g,6110d421de071a61f949a5a3,2021-09-08_20h08.26.809,forced_choiceRT,2021.1.2,Win32,60.12506013,,,,,,,,2,Ontime,f,0,2.0849,3,3,15,1,1,,,,,
,0.33,,,,,,,,,f.PNG,f,6110d421de071a61f949a5a3,2021-09-08_20h08.26.809,forced_choiceRT,2021.1.2,Win32,60.12506013,,,,,,,,2,Ontime,f,1,2.0742,4,0,16,0,1,,,,,
,0.73,,,,,,,,,j.PNG,j,6110d421de071a61f949a5a3,2021-09-08_20h08.26.809,forced_choiceRT,2021.1.2,Win32,60.12506013,,,,,,,,2,Ontime,j,1,2.0367,4,1,17,3,1,,,,,
,1.25,,,,,,,,,f.PNG,f,6110d421de071a61f949a5a3,2021-09-08_20h08.26.809,forced_choiceRT,2021.1.2,Win32,60.12506013,,,,,,,,2,Ontime,f,1,2.0083,4,2,18,0,1,,,,,
,0.18,,,,,,,,,h.PNG,h,6110d421de071a61f949a5a3,2021-09-08_20h08.26.809,forced_choiceRT,2021.1.2,Win32,60.12506013,,,,,,,,2,Ontime,h,1,1.9972,4,3,19,2,1,,,,,
,1.85,,,,,,,,,j.PNG,j,6110d421de071a61f949a5a3,2021-09-08_20h08.26.809,forced_choiceRT,2021.1.2,Win32,60.12506013,,,,,,,,2,Ontime,h,0,2.0526,5,0,20,3,1,,,,,
,1.46,,,,,,,,,g.PNG,g,6110d421de071a61f949a5a3,2021-09-08_20h08.26.809,forced_choiceRT,2021.1.2,Win32,60.12506013,,,,,,,,2,Ontime,g,1,2.0285,5,1,21,1,1,,,,,
,1.4,,,,,,,,,g.PNG,g,6110d421de071a61f949a5a3,2021-09-08_20h08.26.809,forced_choiceRT,2021.1.2,Win32,60.12506013,,,,,,,,2,Ontime,g,1,1.9681,5,2,22,1,1,,,,,
,1.99,,,,,,,,,f.PNG,f,6110d421de071a61f949a5a3,2021-09-08_20h08.26.809,forced_choiceRT,2021.1.2,Win32,60.12506013,,,,,,,,2,Ontime,g,0,2.0367,5,3,23,0,1,,,,,
,0.79,,,,,,,,,j.PNG,j,6110d421de071a61f949a5a3,2021-09-08_20h08.26.809,forced_choiceRT,2021.1.2,Win32,60.12506013,,,,,,,,2,Slow,j,1,2.1344,6,0,24,3,1,,,,,
,0.41,,,,,,,,,g.PNG,g,6110d421de071a61f949a5a3,2021-09-08_20h08.26.809,forced_choiceRT,2021.1.2,Win32,60.12506013,,,,,,,,2,Ontime,g,1,1.9866,6,1,25,1,1,,,,,
,1.29,,,,,,,,,j.PNG,j,6110d421de071a61f949a5a3,2021-09-08_20h08.26.809,forced_choiceRT,2021.1.2,Win32,60.12506013,,,,,,,,2,Ontime,j,1,2.035,6,2,26,3,1,,,,,
,1.97,,,,,,,,,g.PNG,g,6110d421de071a61f949a5a3,2021-09-08_20h08.26.809,forced_choiceRT,2021.1.2,Win32,60.12506013,,,,,,,,2,Ontime,h,0,2.0525,6,3,27,1,1,,,,,
,1.87,,,,,,,,,g.PNG,g,6110d421de071a61f949a5a3,2021-09-08_20h08.26.809,forced_choiceRT,2021.1.2,Win32,60.12506013,,,,,,,,2,Ontime,f,0,2.0576,7,0,28,1,1,,,,,
,0.7,,,,,,,,,g.PNG,g,6110d421de071a61f949a5a3,2021-09-08_20h08.26.809,forced_choiceRT,2021.1.2,Win32,60.12506013,,,,,,,,2,Ontime,g,1,2.0857,7,1,29,1,1,,,,,
,0.11,,,,,,,,,j.PNG,j,6110d421de071a61f949a5a3,2021-09-08_20h08.26.809,forced_choiceRT,2021.1.2,Win32,60.12506013,,,,,,,,2,Ontime,j,1,2.0528,7,2,30,3,1,,,,,
,1.78,,,,,,,,,h.PNG,h,6110d421de071a61f949a5a3,2021-09-08_20h08.26.809,forced_choiceRT,2021.1.2,Win32,60.12506013,,,,,,,,2,Slow,h,1,2.1014,7,3,31,2,1,,,,,
,0.37,,,,,,,,,h.PNG,h,6110d421de071a61f949a5a3,2021-09-08_20h08.26.809,forced_choiceRT,2021.1.2,Win32,60.12506013,,,,,,,,2,Ontime,h,1,2.0201,8,0,32,2,1,,,,,
,1.2,,,,,,,,,g.PNG,g,6110d421de071a61f949a5a3,2021-09-08_20h08.26.809,forced_choiceRT,2021.1.2,Win32,60.12506013,,,,,,,,2,Ontime,g,1,2.0019,8,1,33,1,1,,,,,
,1.1,,,,,,,,,h.PNG,h,6110d421de071a61f949a5a3,2021-09-08_20h08.26.809,forced_choiceRT,2021.1.2,Win32,60.12506013,,,,,,,,2,Ontime,h,1,2.042,8,2,34,2,1,,,,,
,1.66,,,,,,,,,h.PNG,h,6110d421de071a61f949a5a3,2021-09-08_20h08.26.809,forced_choiceRT,2021.1.2,Win32,60.12506013,,,,,,,,2,Ontime,h,1,2.0725,8,3,35,2,1,,,,,
,0.09,,,,,,,,,j.PNG,j,6110d421de071a61f949a5a3,2021-09-08_20h08.26.809,forced_choiceRT,2021.1.2,Win32,60.12506013,,,,,,,,2,Ontime,j,1,1.9788,9,0,36,3,1,,,,,
,1.24,,,,,,,,,h.PNG,h,6110d421de071a61f949a5a3,2021-09-08_20h08.26.809,forced_choiceRT,2021.1.2,Win32,60.12506013,,,,,,,,2,Ontime,h,1,2.0184,9,1,37,2,1,,,,,
,1.85,,,,,,,,,f.PNG,f,6110d421de071a61f949a5a3,2021-09-08_20h08.26.809,forced_choiceRT,2021.1.2,Win32,60.12506013,,,,,,,,2,Ontime,h,0,2.0366,9,2,38,0,1,,,,,
,1.97,,,,,,,,,h.PNG,h,6110d421de071a61f949a5a3,2021-09-08_20h08.26.809,forced_choiceRT,2021.1.2,Win32,60.12506013,,,,,,,,2,Slow,f,0,2.1043,9,3,39,2,1,,,,,
,,,,,,,,,,,,6110d421de071a61f949a5a3,2021-09-08_20h08.26.809,forced_choiceRT,2021.1.2,Win32,60.12506013,,,,,,,,,,,,,,,,,,1,0,1,0,1
,1.11,,,,,,,,,h.PNG,h,6110d421de071a61f949a5a3,2021-09-08_20h08.26.809,forced_choiceRT,2021.1.2,Win32,60.12506013,,,,,,,,3,Ontime,h,1,2.0181,0,0,0,2,1,,,,,
,1.53,,,,,,,,,g.PNG,g,6110d421de071a61f949a5a3,2021-09-08_20h08.26.809,forced_choiceRT,2021.1.2,Win32,60.12506013,,,,,,,,3,Ontime,g,1,2.0534,0,1,1,1,1,,,,,
,1.26,,,,,,,,,f.PNG,f,6110d421de071a61f949a5a3,2021-09-08_20h08.26.809,forced_choiceRT,2021.1.2,Win32,60.12506013,,,,,,,,3,Ontime,f,1,1.9552,0,2,2,0,1,,,,,
,0.71,,,,,,,,,g.PNG,g,6110d421de071a61f949a5a3,2021-09-08_20h08.26.809,forced_choiceRT,2021.1.2,Win32,60.12506013,,,,,,,,3,Ontime,g,1,1.9449,0,3,3,1,1,,,,,
,1,,,,,,,,,g.PNG,g,6110d421de071a61f949a5a3,2021-09-08_20h08.26.809,forced_choiceRT,2021.1.2,Win32,60.12506013,,,,,,,,3,Ontime,g,1,1.9179,1,0,4,1,1,,,,,
,1.19,,,,,,,,,g.PNG,g,6110d421de071a61f949a5a3,2021-09-08_20h08.26.809,forced_choiceRT,2021.1.2,Win32,60.12506013,,,,,,,,3,Ontime,g,1,1.9849,1,1,5,1,1,,,,,
,0.23,,,,,,,,,g.PNG,g,6110d421de071a61f949a5a3,2021-09-08_20h08.26.809,forced_choiceRT,2021.1.2,Win32,60.12506013,,,,,,,,3,Ontime,g,1,2.0178,1,2,6,1,1,,,,,
,1.73,,,,,,,,,f.PNG,f,6110d421de071a61f949a5a3,2021-09-08_20h08.26.809,forced_choiceRT,2021.1.2,Win32,60.12506013,,,,,,,,3,Slow,f,1,2.1621,1,3,7,0,1,,,,,
,0.06,,,,,,,,,h.PNG,h,6110d421de071a61f949a5a3,2021-09-08_20h08.26.809,forced_choiceRT,2021.1.2,Win32,60.12506013,,,,,,,,3,Ontime,h,1,2.0509,2,0,8,2,1,,,,,
,1.35,,,,,,,,,j.PNG,j,6110d421de071a61f949a5a3,2021-09-08_20h08.26.809,forced_choiceRT,2021.1.2,Win32,60.12506013,,,,,,,,3,Ontime,j,1,1.9847,2,1,9,3,1,,,,,
,0.76,,,,,,,,,f.PNG,f,6110d421de071a61f949a5a3,2021-09-08_20h08.26.809,forced_choiceRT,2021.1.2,Win32,60.12506013,,,,,,,,3,Ontime,f,1,2.068,2,2,10,0,1,,,,,
,0.66,,,,,,,,,j.PNG,j,6110d421de071a61f949a5a3,2021-09-08_20h08.26.809,forced_choiceRT,2021.1.2,Win32,60.12506013,,,,,,,,3,Ontime,j,1,2.0515,2,3,11,3,1,,,,,
,1.26,,,,,,,,,g.PNG,g,6110d421de071a61f949a5a3,2021-09-08_20h08.26.809,forced_choiceRT,2021.1.2,Win32,60.12506013,,,,,,,,3,Ontime,g,1,2.0116,3,0,12,1,1,,,,,
,0.41,,,,,,,,,j.PNG,j,6110d421de071a61f949a5a3,2021-09-08_20h08.26.809,forced_choiceRT,2021.1.2,Win32,60.12506013,,,,,,,,3,Ontime,j,1,2.0524,3,1,13,3,1,,,,,
,1.16,,,,,,,,,g.PNG,g,6110d421de071a61f949a5a3,2021-09-08_20h08.26.809,forced_choiceRT,2021.1.2,Win32,60.12506013,,,,,,,,3,Slow,g,1,2.1347,3,2,14,1,1,,,,,
,0.39,,,,,,,,,f.PNG,f,6110d421de071a61f949a5a3,2021-09-08_20h08.26.809,forced_choiceRT,2021.1.2,Win32,60.12506013,,,,,,,,3,Ontime,f,1,2.014,3,3,15,0,1,,,,,
,0.88,,,,,,,,,f.PNG,f,6110d421de071a61f949a5a3,2021-09-08_20h08.26.809,forced_choiceRT,2021.1.2,Win32,60.12506013,,,,,,,,3,Ontime,f,1,2.0349,4,0,16,0,1,,,,,
,0.96,,,,,,,,,j.PNG,j,6110d421de071a61f949a5a3,2021-09-08_20h08.26.809,forced_choiceRT,2021.1.2,Win32,60.12506013,,,,,,,,3,Ontime,j,1,1.9772,4,1,17,3,1,,,,,
,0.54,,,,,,,,,f.PNG,f,6110d421de071a61f949a5a3,2021-09-08_20h08.26.809,forced_choiceRT,2021.1.2,Win32,60.12506013,,,,,,,,3,Ontime,f,1,2.0308,4,2,18,0,1,,,,,
,1,,,,,,,,,h.PNG,h,6110d421de071a61f949a5a3,2021-09-08_20h08.26.809,forced_choiceRT,2021.1.2,Win32,60.12506013,,,,,,,,3,Ontime,h,1,2.0179,4,3,19,2,1,,,,,
,0.37,,,,,,,,,h.PNG,h,6110d421de071a61f949a5a3,2021-09-08_20h08.26.809,forced_choiceRT,2021.1.2,Win32,60.12506013,,,,,,,,3,Ontime,h,1,2.0181,5,0,20,2,1,,,,,
,0.09,,,,,,,,,h.PNG,h,6110d421de071a61f949a5a3,2021-09-08_20h08.26.809,forced_choiceRT,2021.1.2,Win32,60.12506013,,,,,,,,3,Ontime,h,1,2.0591,5,1,21,2,1,,,,,
,0.25,,,,,,,,,g.PNG,g,6110d421de071a61f949a5a3,2021-09-08_20h08.26.809,forced_choiceRT,2021.1.2,Win32,60.12506013,,,,,,,,3,Ontime,g,1,2.0372,5,2,22,1,1,,,,,
,1.25,,,,,,,,,h.PNG,h,6110d421de071a61f949a5a3,2021-09-08_20h08.26.809,forced_choiceRT,2021.1.2,Win32,60.12506013,,,,,,,,3,Ontime,h,1,2.0574,5,3,23,2,1,,,,,
,1.21,,,,,,,,,j.PNG,j,6110d421de071a61f949a5a3,2021-09-08_20h08.26.809,forced_choiceRT,2021.1.2,Win32,60.12506013,,,,,,,,3,Ontime,j,1,2.0847,6,0,24,3,1,,,,,
,1.19,,,,,,,,,g.PNG,g,6110d421de071a61f949a5a3,2021-09-08_20h08.26.809,forced_choiceRT,2021.1.2,Win32,60.12506013,,,,,,,,3,Ontime,g,1,1.985,6,1,25,1,1,,,,,
,0.3,,,,,,,,,j.PNG,j,6110d421de071a61f949a5a3,2021-09-08_20h08.26.809,forced_choiceRT,2021.1.2,Win32,60.12506013,,,,,,,,3,Ontime,j,1,2.0181,6,2,26,3,1,,,,,
,0.58,,,,,,,,,f.PNG,f,6110d421de071a61f949a5a3,2021-09-08_20h08.26.809,forced_choiceRT,2021.1.2,Win32,60.12506013,,,,,,,,3,Ontime,f,1,2.0348,6,3,27,0,1,,,,,
,0.46,,,,,,,,,f.PNG,f,6110d421de071a61f949a5a3,2021-09-08_20h08.26.809,forced_choiceRT,2021.1.2,Win32,60.12506013,,,,,,,,3,Ontime,f,1,1.9863,7,0,28,0,1,,,,,
,0.46,,,,,,,,,h.PNG,h,6110d421de071a61f949a5a3,2021-09-08_20h08.26.809,forced_choiceRT,2021.1.2,Win32,60.12506013,,,,,,,,3,Ontime,h,1,1.9985,7,1,29,2,1,,,,,
,1.11,,,,,,,,,j.PNG,j,6110d421de071a61f949a5a3,2021-09-08_20h08.26.809,forced_choiceRT,2021.1.2,Win32,60.12506013,,,,,,,,3,Ontime,j,1,1.9852,7,2,30,3,1,,,,,
,0.08,,,,,,,,,j.PNG,j,6110d421de071a61f949a5a3,2021-09-08_20h08.26.809,forced_choiceRT,2021.1.2,Win32,60.12506013,,,,,,,,3,Ontime,j,1,1.9848,7,3,31,3,1,,,,,
,1.42,,,,,,,,,h.PNG,h,6110d421de071a61f949a5a3,2021-09-08_20h08.26.809,forced_choiceRT,2021.1.2,Win32,60.12506013,,,,,,,,3,Ontime,h,1,2.0035,8,0,32,2,1,,,,,
,0.03,,,,,,,,,h.PNG,h,6110d421de071a61f949a5a3,2021-09-08_20h08.26.809,forced_choiceRT,2021.1.2,Win32,60.12506013,,,,,,,,3,Fast,h,1,1.6112,8,1,33,2,1,,,,,
,1.41,,,,,,,,,f.PNG,f,6110d421de071a61f949a5a3,2021-09-08_20h08.26.809,forced_choiceRT,2021.1.2,Win32,60.12506013,,,,,,,,3,Slow,f,1,2.3946,8,2,34,0,1,,,,,
,0.23,,,,,,,,,f.PNG,f,6110d421de071a61f949a5a3,2021-09-08_20h08.26.809,forced_choiceRT,2021.1.2,Win32,60.12506013,,,,,,,,3,Ontime,f,1,1.9244,8,3,35,0,1,,,,,
,0.5,,,,,,,,,g.PNG,g,6110d421de071a61f949a5a3,2021-09-08_20h08.26.809,forced_choiceRT,2021.1.2,Win32,60.12506013,,,,,,,,3,Ontime,g,1,2.0178,9,0,36,1,1,,,,,
,1.79,,,,,,,,,j.PNG,j,6110d421de071a61f949a5a3,2021-09-08_20h08.26.809,forced_choiceRT,2021.1.2,Win32,60.12506013,,,,,,,,3,Ontime,f,0,2.0347,9,1,37,3,1,,,,,
,1.15,,,,,,,,,j.PNG,j,6110d421de071a61f949a5a3,2021-09-08_20h08.26.809,forced_choiceRT,2021.1.2,Win32,60.12506013,,,,,,,,3,Ontime,j,1,2.0182,9,2,38,3,1,,,,,
,1.01,,,,,,,,,h.PNG,h,6110d421de071a61f949a5a3,2021-09-08_20h08.26.809,forced_choiceRT,2021.1.2,Win32,60.12506013,,,,,,,,3,Ontime,h,1,2.0199,9,3,39,2,1,,,,,
,,,,,,,,,,,,6110d421de071a61f949a5a3,2021-09-08_20h08.26.809,forced_choiceRT,2021.1.2,Win32,60.12506013,,,,,,,,,,,,,,,,,,2,0,2,0,1
,0.76,,,,,,,,,h.PNG,h,6110d421de071a61f949a5a3,2021-09-08_20h08.26.809,forced_choiceRT,2021.1.2,Win32,60.12506013,,,,,,,,4,Ontime,h,1,2.0261,0,0,0,2,1,,,,,
,1.6,,,,,,,,,h.PNG,h,6110d421de071a61f949a5a3,2021-09-08_20h08.26.809,forced_choiceRT,2021.1.2,Win32,60.12506013,,,,,,,,4,Ontime,j,0,1.9763,0,1,1,2,1,,,,,
,0.81,,,,,,,,,h.PNG,h,6110d421de071a61f949a5a3,2021-09-08_20h08.26.809,forced_choiceRT,2021.1.2,Win32,60.12506013,,,,,,,,4,Ontime,h,1,1.9951,0,2,2,2,1,,,,,
,1.89,,,,,,,,,j.PNG,j,6110d421de071a61f949a5a3,2021-09-08_20h08.26.809,forced_choiceRT,2021.1.2,Win32,60.12506013,,,,,,,,4,Slow,h,0,2.1015,0,3,3,3,1,,,,,
,1.07,,,,,,,,,f.PNG,f,6110d421de071a61f949a5a3,2021-09-08_20h08.26.809,forced_choiceRT,2021.1.2,Win32,60.12506013,,,,,,,,4,Ontime,f,1,1.9932,1,0,4,0,1,,,,,
,1.61,,,,,,,,,g.PNG,g,6110d421de071a61f949a5a3,2021-09-08_20h08.26.809,forced_choiceRT,2021.1.2,Win32,60.12506013,,,,,,,,4,Ontime,g,1,2.0752,1,1,5,1,1,,,,,
,0.59,,,,,,,,,j.PNG,j,6110d421de071a61f949a5a3,2021-09-08_20h08.26.809,forced_choiceRT,2021.1.2,Win32,60.12506013,,,,,,,,4,Ontime,j,1,2.0211,1,2,6,3,1,,,,,
,1.08,,,,,,,,,h.PNG,h,6110d421de071a61f949a5a3,2021-09-08_20h08.26.809,forced_choiceRT,2021.1.2,Win32,60.12506013,,,,,,,,4,Ontime,h,1,1.9757,1,3,7,2,1,,,,,
,1.93,,,,,,,,,f.PNG,f,6110d421de071a61f949a5a3,2021-09-08_20h08.26.809,forced_choiceRT,2021.1.2,Win32,60.12506013,,,,,,,,4,Ontime,h,0,2.0681,2,0,8,0,1,,,,,
,0.78,,,,,,,,,h.PNG,h,6110d421de071a61f949a5a3,2021-09-08_20h08.26.809,forced_choiceRT,2021.1.2,Win32,60.12506013,,,,,,,,4,Ontime,h,1,2.0586,2,1,9,2,1,,,,,
,0.76,,,,,,,,,g.PNG,g,6110d421de071a61f949a5a3,2021-09-08_20h08.26.809,forced_choiceRT,2021.1.2,Win32,60.12506013,,,,,,,,4,Ontime,g,1,1.9738,2,2,10,1,1,,,,,
,1.74,,,,,,,,,g.PNG,g,6110d421de071a61f949a5a3,2021-09-08_20h08.26.809,forced_choiceRT,2021.1.2,Win32,60.12506013,,,,,,,,4,Ontime,h,0,2.0569,2,3,11,1,1,,,,,
,0.64,,,,,,,,,f.PNG,f,6110d421de071a61f949a5a3,2021-09-08_20h08.26.809,forced_choiceRT,2021.1.2,Win32,60.12506013,,,,,,,,4,Ontime,f,1,1.9757,3,0,12,0,1,,,,,
,0.37,,,,,,,,,f.PNG,f,6110d421de071a61f949a5a3,2021-09-08_20h08.26.809,forced_choiceRT,2021.1.2,Win32,60.12506013,,,,,,,,4,Ontime,f,1,1.989,3,1,13,0,1,,,,,
,1.94,,,,,,,,,j.PNG,j,6110d421de071a61f949a5a3,2021-09-08_20h08.26.809,forced_choiceRT,2021.1.2,Win32,60.12506013,,,,,,,,4,Ontime,f,0,1.9778,3,2,14,3,1,,,,,
,0.8,,,,,,,,,f.PNG,f,6110d421de071a61f949a5a3,2021-09-08_20h08.26.809,forced_choiceRT,2021.1.2,Win32,60.12506013,,,,,,,,4,Ontime,f,1,1.9867,3,3,15,0,1,,,,,
,1.99,,,,,,,,,g.PNG,g,6110d421de071a61f949a5a3,2021-09-08_20h08.26.809,forced_choiceRT,2021.1.2,Win32,60.12506013,,,,,,,,4,Ontime,g,1,2.0677,4,0,16,1,1,,,,,
,0.93,,,,,,,,,f.PNG,f,6110d421de071a61f949a5a3,2021-09-08_20h08.26.809,forced_choiceRT,2021.1.2,Win32,60.12506013,,,,,,,,4,Ontime,f,1,1.9469,4,1,17,0,1,,,,,
,1.25,,,,,,,,,j.PNG,j,6110d421de071a61f949a5a3,2021-09-08_20h08.26.809,forced_choiceRT,2021.1.2,Win32,60.12506013,,,,,,,,4,Ontime,j,1,1.9681,4,2,18,3,1,,,,,
,0.38,,,,,,,,,h.PNG,h,6110d421de071a61f949a5a3,2021-09-08_20h08.26.809,forced_choiceRT,2021.1.2,Win32,60.12506013,,,,,,,,4,Ontime,h,1,2.0177,4,3,19,2,1,,,,,
,0.57,,,,,,,,,j.PNG,j,6110d421de071a61f949a5a3,2021-09-08_20h08.26.809,forced_choiceRT,2021.1.2,Win32,60.12506013,,,,,,,,4,Ontime,j,1,1.9755,5,0,20,3,1,,,,,
,1.1,,,,,,,,,j.PNG,j,6110d421de071a61f949a5a3,2021-09-08_20h08.26.809,forced_choiceRT,2021.1.2,Win32,60.12506013,,,,,,,,4,Ontime,j,1,1.9962,5,1,21,3,1,,,,,
,0.89,,,,,,,,,h.PNG,h,6110d421de071a61f949a5a3,2021-09-08_20h08.26.809,forced_choiceRT,2021.1.2,Win32,60.12506013,,,,,,,,4,Ontime,h,1,1.942,5,2,22,2,1,,,,,
,0.39,,,,,,,,,g.PNG,g,6110d421de071a61f949a5a3,2021-09-08_20h08.26.809,forced_choiceRT,2021.1.2,Win32,60.12506013,,,,,,,,4,Ontime,g,1,1.9814,5,3,23,1,1,,,,,
,1.27,,,,,,,,,g.PNG,g,6110d421de071a61f949a5a3,2021-09-08_20h08.26.809,forced_choiceRT,2021.1.2,Win32,60.12506013,,,,,,,,4,Ontime,g,1,1.953,6,0,24,1,1,,,,,
,1.91,,,,,,,,,g.PNG,g,6110d421de071a61f949a5a3,2021-09-08_20h08.26.809,forced_choiceRT,2021.1.2,Win32,60.12506013,,,,,,,,4,Ontime,g,1,2.0016,6,1,25,1,1,,,,,
,1.32,,,,,,,,,j.PNG,j,6110d421de071a61f949a5a3,2021-09-08_20h08.26.809,forced_choiceRT,2021.1.2,Win32,60.12506013,,,,,,,,4,Ontime,j,1,2.0134,6,2,26,3,1,,,,,
,0.47,,,,,,,,,f.PNG,f,6110d421de071a61f949a5a3,2021-09-08_20h08.26.809,forced_choiceRT,2021.1.2,Win32,60.12506013,,,,,,,,4,Ontime,f,1,1.9904,6,3,27,0,1,,,,,
,1.29,,,,,,,,,f.PNG,f,6110d421de071a61f949a5a3,2021-09-08_20h08.26.809,forced_choiceRT,2021.1.2,Win32,60.12506013,,,,,,,,4,Ontime,f,1,2.0216,7,0,28,0,1,,,,,
,0.04,,,,,,,,,g.PNG,g,6110d421de071a61f949a5a3,2021-09-08_20h08.26.809,forced_choiceRT,2021.1.2,Win32,60.12506013,,,,,,,,4,Ontime,g,1,2.0179,7,1,29,1,1,,,,,
,1.27,,,,,,,,,g.PNG,g,6110d421de071a61f949a5a3,2021-09-08_20h08.26.809,forced_choiceRT,2021.1.2,Win32,60.12506013,,,,,,,,4,Ontime,g,1,2.0732,7,2,30,1,1,,,,,
,1.87,,,,,,,,,j.PNG,j,6110d421de071a61f949a5a3,2021-09-08_20h08.26.809,forced_choiceRT,2021.1.2,Win32,60.12506013,,,,,,,,4,Ontime,f,0,2.0814,7,3,31,3,1,,,,,
,1.23,,,,,,,,,j.PNG,j,6110d421de071a61f949a5a3,2021-09-08_20h08.26.809,forced_choiceRT,2021.1.2,Win32,60.12506013,,,,,,,,4,Ontime,j,1,2.0012,8,0,32,3,1,,,,,
,0.85,,,,,,,,,j.PNG,j,6110d421de071a61f949a5a3,2021-09-08_20h08.26.809,forced_choiceRT,2021.1.2,Win32,60.12506013,,,,,,,,4,Ontime,j,1,2.0481,8,1,33,3,1,,,,,
,0.41,,,,,,,,,h.PNG,h,6110d421de071a61f949a5a3,2021-09-08_20h08.26.809,forced_choiceRT,2021.1.2,Win32,60.12506013,,,,,,,,4,Ontime,h,1,1.9602,8,2,34,2,1,,,,,
,1.96,,,,,,,,,f.PNG,f,6110d421de071a61f949a5a3,2021-09-08_20h08.26.809,forced_choiceRT,2021.1.2,Win32,60.12506013,,,,,,,,4,Ontime,h,0,2.0266,8,3,35,0,1,,,,,
,0.32,,,,,,,,,h.PNG,h,6110d421de071a61f949a5a3,2021-09-08_20h08.26.809,forced_choiceRT,2021.1.2,Win32,60.12506013,,,,,,,,4,Ontime,h,1,1.962,9,0,36,2,1,,,,,
,0.83,,,,,,,,,f.PNG,f,6110d421de071a61f949a5a3,2021-09-08_20h08.26.809,forced_choiceRT,2021.1.2,Win32,60.12506013,,,,,,,,4,Ontime,f,1,2.0514,9,1,37,0,1,,,,,
,1.77,,,,,,,,,h.PNG,h,6110d421de071a61f949a5a3,2021-09-08_20h08.26.809,forced_choiceRT,2021.1.2,Win32,60.12506013,,,,,,,,4,Ontime,g,0,1.9937,9,2,38,2,1,,,,,
,0,,,,,,,,,g.PNG,g,6110d421de071a61f949a5a3,2021-09-08_20h08.26.809,forced_choiceRT,2021.1.2,Win32,60.12506013,,,,,,,,4,Ontime,g,1,2.0032,9,3,39,1,1,,,,,
,,,,,,,,,,,,6110d421de071a61f949a5a3,2021-09-08_20h08.26.809,forced_choiceRT,2021.1.2,Win32,60.12506013,,,,,,,,,,,,,,,,,,3,0,3,0,1
,1.92,,,,,,,,,g.PNG,g,6110d421de071a61f949a5a3,2021-09-08_20h08.26.809,forced_choiceRT,2021.1.2,Win32,60.12506013,,,,,,,,5,Slow,h,0,2.1514,0,0,0,1,1,,,,,
,1.94,,,,,,,,,j.PNG,j,6110d421de071a61f949a5a3,2021-09-08_20h08.26.809,forced_choiceRT,2021.1.2,Win32,60.12506013,,,,,,,,5,Ontime,g,0,2.0179,0,1,1,3,1,,,,,
,0.42,,,,,,,,,f.PNG,f,6110d421de071a61f949a5a3,2021-09-08_20h08.26.809,forced_choiceRT,2021.1.2,Win32,60.12506013,,,,,,,,5,Ontime,f,1,1.9848,0,2,2,0,1,,,,,
,0.71,,,,,,,,,h.PNG,h,6110d421de071a61f949a5a3,2021-09-08_20h08.26.809,forced_choiceRT,2021.1.2,Win32,60.12506013,,,,,,,,5,Ontime,h,1,1.9312,0,3,3,2,1,,,,,
,0.55,,,,,,,,,f.PNG,f,6110d421de071a61f949a5a3,2021-09-08_20h08.26.809,forced_choiceRT,2021.1.2,Win32,60.12506013,,,,,,,,5,Ontime,f,1,2.0509,1,0,4,0,1,,,,,
,0.22,,,,,,,,,f.PNG,f,6110d421de071a61f949a5a3,2021-09-08_20h08.26.809,forced_choiceRT,2021.1.2,Win32,60.12506013,,,,,,,,5,Ontime,f,1,1.9846,1,1,5,0,1,,,,,
,1.92,,,,,,,,,g.PNG,g,6110d421de071a61f949a5a3,2021-09-08_20h08.26.809,forced_choiceRT,2021.1.2,Win32,60.12506013,,,,,,,,5,Ontime,g,1,1.9457,1,2,6,1,1,,,,,
,0.68,,,,,,,,,h.PNG,h,6110d421de071a61f949a5a3,2021-09-08_20h08.26.809,forced_choiceRT,2021.1.2,Win32,60.12506013,,,,,,,,5,Ontime,h,1,1.9595,1,3,7,2,1,,,,,
,0.31,,,,,,,,,h.PNG,h,6110d421de071a61f949a5a3,2021-09-08_20h08.26.809,forced_choiceRT,2021.1.2,Win32,60.12506013,,,,,,,,5,Ontime,h,1,1.9852,2,0,8,2,1,,,,,
,1.3,,,,,,,,,f.PNG,f,6110d421de071a61f949a5a3,2021-09-08_20h08.26.809,forced_choiceRT,2021.1.2,Win32,60.12506013,,,,,,,,5,Ontime,f,1,1.9593,2,1,9,0,1,,,,,
,1.37,,,,,,,,,j.PNG,j,6110d421de071a61f949a5a3,2021-09-08_20h08.26.809,forced_choiceRT,2021.1.2,Win32,60.12506013,,,,,,,,5,Ontime,j,1,2.0182,2,2,10,3,1,,,,,
,0.6,,,,,,,,,j.PNG,j,6110d421de071a61f949a5a3,2021-09-08_20h08.26.809,forced_choiceRT,2021.1.2,Win32,60.12506013,,,,,,,,5,Ontime,j,1,2.0113,2,3,11,3,1,,,,,
,1.42,,,,,,,,,j.PNG,j,6110d421de071a61f949a5a3,2021-09-08_20h08.26.809,forced_choiceRT,2021.1.2,Win32,60.12506013,,,,,,,,5,Ontime,j,1,1.9479,3,0,12,3,1,,,,,
,0.5,,,,,,,,,g.PNG,g,6110d421de071a61f949a5a3,2021-09-08_20h08.26.809,forced_choiceRT,2021.1.2,Win32,60.12506013,,,,,,,,5,Ontime,g,1,2.0312,3,1,13,1,1,,,,,
,0.3,,,,,,,,,j.PNG,j,6110d421de071a61f949a5a3,2021-09-08_20h08.26.809,forced_choiceRT,2021.1.2,Win32,60.12506013,,,,,,,,5,Ontime,j,1,2.0131,3,2,14,3,1,,,,,
,0,,,,,,,,,g.PNG,g,6110d421de071a61f949a5a3,2021-09-08_20h08.26.809,forced_choiceRT,2021.1.2,Win32,60.12506013,,,,,,,,5,Ontime,g,1,2.0851,3,3,15,1,1,,,,,
,0.81,,,,,,,,,h.PNG,h,6110d421de071a61f949a5a3,2021-09-08_20h08.26.809,forced_choiceRT,2021.1.2,Win32,60.12506013,,,,,,,,5,Ontime,h,1,2.0489,4,0,16,2,1,,,,,
,0.22,,,,,,,,,j.PNG,j,6110d421de071a61f949a5a3,2021-09-08_20h08.26.809,forced_choiceRT,2021.1.2,Win32,60.12506013,,,,,,,,5,Ontime,j,1,2.0517,4,1,17,3,1,,,,,
,0.55,,,,,,,,,h.PNG,h,6110d421de071a61f949a5a3,2021-09-08_20h08.26.809,forced_choiceRT,2021.1.2,Win32,60.12506013,,,,,,,,5,Slow,h,1,2.1202,4,2,18,2,1,,,,,
,0.17,,,,,,,,,h.PNG,h,6110d421de071a61f949a5a3,2021-09-08_20h08.26.809,forced_choiceRT,2021.1.2,Win32,60.12506013,,,,,,,,5,Ontime,h,1,1.9537,4,3,19,2,1,,,,,
,1.23,,,,,,,,,g.PNG,g,6110d421de071a61f949a5a3,2021-09-08_20h08.26.809,forced_choiceRT,2021.1.2,Win32,60.12506013,,,,,,,,5,Ontime,g,1,1.9796,5,0,20,1,1,,,,,
,0.15,,,,,,,,,f.PNG,f,6110d421de071a61f949a5a3,2021-09-08_20h08.26.809,forced_choiceRT,2021.1.2,Win32,60.12506013,,,,,,,,5,Ontime,f,1,1.9512,5,1,21,0,1,,,,,
,0.58,,,,,,,,,j.PNG,j,6110d421de071a61f949a5a3,2021-09-08_20h08.26.809,forced_choiceRT,2021.1.2,Win32,60.12506013,,,,,,,,5,Ontime,j,1,2.0179,5,2,22,3,1,,,,,
,0.77,,,,,,,,,g.PNG,g,6110d421de071a61f949a5a3,2021-09-08_20h08.26.809,forced_choiceRT,2021.1.2,Win32,60.12506013,,,,,,,,5,Ontime,g,1,2.02,5,3,23,1,1,,,,,
,0.72,,,,,,,,,h.PNG,h,6110d421de071a61f949a5a3,2021-09-08_20h08.26.809,forced_choiceRT,2021.1.2,Win32,60.12506013,,,,,,,,5,Ontime,h,1,2.0181,6,0,24,2,1,,,,,
,0.81,,,,,,,,,j.PNG,j,6110d421de071a61f949a5a3,2021-09-08_20h08.26.809,forced_choiceRT,2021.1.2,Win32,60.12506013,,,,,,,,5,Ontime,j,1,1.9929,6,1,25,3,1,,,,,
,1.49,,,,,,,,,f.PNG,f,6110d421de071a61f949a5a3,2021-09-08_20h08.26.809,forced_choiceRT,2021.1.2,Win32,60.12506013,,,,,,,,5,Ontime,j,0,2.0179,6,2,26,0,1,,,,,
,0.84,,,,,,,,,f.PNG,f,6110d421de071a61f949a5a3,2021-09-08_20h08.26.809,forced_choiceRT,2021.1.2,Win32,60.12506013,,,,,,,,5,Ontime,f,1,1.961,6,3,27,0,1,,,,,
,0.28,,,,,,,,,f.PNG,f,6110d421de071a61f949a5a3,2021-09-08_20h08.26.809,forced_choiceRT,2021.1.2,Win32,60.12506013,,,,,,,,5,Ontime,f,1,1.9738,7,0,28,0,1,,,,,
,0.45,,,,,,,,,h.PNG,h,6110d421de071a61f949a5a3,2021-09-08_20h08.26.809,forced_choiceRT,2021.1.2,Win32,60.12506013,,,,,,,,5,Ontime,h,1,1.9629,7,1,29,2,1,,,,,
,0.86,,,,,,,,,g.PNG,g,6110d421de071a61f949a5a3,2021-09-08_20h08.26.809,forced_choiceRT,2021.1.2,Win32,60.12506013,,,,,,,,5,Ontime,g,1,2.008,7,2,30,1,1,,,,,
,0.82,,,,,,,,,g.PNG,g,6110d421de071a61f949a5a3,2021-09-08_20h08.26.809,forced_choiceRT,2021.1.2,Win32,60.12506013,,,,,,,,5,Ontime,g,1,1.9733,7,3,31,1,1,,,,,
,1.36,,,,,,,,,g.PNG,g,6110d421de071a61f949a5a3,2021-09-08_20h08.26.809,forced_choiceRT,2021.1.2,Win32,60.12506013,,,,,,,,5,Ontime,g,1,2.0366,8,0,32,1,1,,,,,
,1.41,,,,,,,,,h.PNG,h,6110d421de071a61f949a5a3,2021-09-08_20h08.26.809,forced_choiceRT,2021.1.2,Win32,60.12506013,,,,,,,,5,Ontime,h,1,2.0318,8,1,33,2,1,,,,,
,1.6,,,,,,,,,f.PNG,f,6110d421de071a61f949a5a3,2021-09-08_20h08.26.809,forced_choiceRT,2021.1.2,Win32,60.12506013,,,,,,,,5,Ontime,h,0,2.0453,8,2,34,0,1,,,,,
,0.67,,,,,,,,,h.PNG,h,6110d421de071a61f949a5a3,2021-09-08_20h08.26.809,forced_choiceRT,2021.1.2,Win32,60.12506013,,,,,,,,5,Ontime,h,1,2.0014,8,3,35,2,1,,,,,
,1.77,,,,,,,,,g.PNG,g,6110d421de071a61f949a5a3,2021-09-08_20h08.26.809,forced_choiceRT,2021.1.2,Win32,60.12506013,,,,,,,,5,Ontime,h,0,2.0845,9,0,36,1,1,,,,,
,0.75,,,,,,,,,j.PNG,j,6110d421de071a61f949a5a3,2021-09-08_20h08.26.809,forced_choiceRT,2021.1.2,Win32,60.12506013,,,,,,,,5,Ontime,j,1,1.9754,9,1,37,3,1,,,,,
,1.19,,,,,,,,,f.PNG,f,6110d421de071a61f949a5a3,2021-09-08_20h08.26.809,forced_choiceRT,2021.1.2,Win32,60.12506013,,,,,,,,5,Ontime,f,1,1.9775,9,2,38,0,1,,,,,
,0.87,,,,,,,,,j.PNG,j,6110d421de071a61f949a5a3,2021-09-08_20h08.26.809,forced_choiceRT,2021.1.2,Win32,60.12506013,,,,,,,,5,Ontime,j,1,2.0478,9,3,39,3,1,,,,,
,,,,,,,,,,,,6110d421de071a61f949a5a3,2021-09-08_20h08.26.809,forced_choiceRT,2021.1.2,Win32,60.12506013,,,,,,,,,,,,,,,,,,4,0,4,0,1
,0.65,,,,,,,,,g.PNG,g,6110d421de071a61f949a5a3,2021-09-08_20h08.26.809,forced_choiceRT,2021.1.2,Win32,60.12506013,,,,,,,,6,Ontime,g,1,2.039,0,0,0,1,1,,,,,
,0.94,,,,,,,,,g.PNG,g,6110d421de071a61f949a5a3,2021-09-08_20h08.26.809,forced_choiceRT,2021.1.2,Win32,60.12506013,,,,,,,,6,Slow,g,1,2.1011,0,1,1,1,1,,,,,
,1.1,,,,,,,,,h.PNG,h,6110d421de071a61f949a5a3,2021-09-08_20h08.26.809,forced_choiceRT,2021.1.2,Win32,60.12506013,,,,,,,,6,Ontime,h,1,1.9978,0,2,2,2,1,,,,,
,1.62,,,,,,,,,j.PNG,j,6110d421de071a61f949a5a3,2021-09-08_20h08.26.809,forced_choiceRT,2021.1.2,Win32,60.12506013,,,,,,,,6,Ontime,h,0,1.9223,0,3,3,3,1,,,,,
,1.42,,,,,,,,,g.PNG,g,6110d421de071a61f949a5a3,2021-09-08_20h08.26.809,forced_choiceRT,2021.1.2,Win32,60.12506013,,,,,,,,6,Ontime,g,1,1.9678,1,0,4,1,1,,,,,
,1.81,,,,,,,,,f.PNG,f,6110d421de071a61f949a5a3,2021-09-08_20h08.26.809,forced_choiceRT,2021.1.2,Win32,60.12506013,,,,,,,,6,Ontime,h,0,2.0845,1,1,5,0,1,,,,,
,0.44,,,,,,,,,h.PNG,h,6110d421de071a61f949a5a3,2021-09-08_20h08.26.809,forced_choiceRT,2021.1.2,Win32,60.12506013,,,,,,,,6,Ontime,h,1,2.0514,1,2,6,2,1,,,,,
,0.48,,,,,,,,,f.PNG,f,6110d421de071a61f949a5a3,2021-09-08_20h08.26.809,forced_choiceRT,2021.1.2,Win32,60.12506013,,,,,,,,6,Ontime,f,1,2.0181,1,3,7,0,1,,,,,
,0.54,,,,,,,,,g.PNG,g,6110d421de071a61f949a5a3,2021-09-08_20h08.26.809,forced_choiceRT,2021.1.2,Win32,60.12506013,,,,,,,,6,Ontime,g,1,1.9865,2,0,8,1,1,,,,,
,1.61,,,,,,,,,h.PNG,h,6110d421de071a61f949a5a3,2021-09-08_20h08.26.809,forced_choiceRT,2021.1.2,Win32,60.12506013,,,,,,,,6,Ontime,j,0,2.0516,2,1,9,2,1,,,,,
,0.12,,,,,,,,,g.PNG,g,6110d421de071a61f949a5a3,2021-09-08_20h08.26.809,forced_choiceRT,2021.1.2,Win32,60.12506013,,,,,,,,6,Ontime,g,1,1.9959,2,2,10,1,1,,,,,
,0.41,,,,,,,,,f.PNG,f,6110d421de071a61f949a5a3,2021-09-08_20h08.26.809,forced_choiceRT,2021.1.2,Win32,60.12506013,,,,,,,,6,Ontime,f,1,2.0011,2,3,11,0,1,,,,,
,1.52,,,,,,,,,f.PNG,f,6110d421de071a61f949a5a3,2021-09-08_20h08.26.809,forced_choiceRT,2021.1.2,Win32,60.12506013,,,,,,,,6,Ontime,f,1,2.0463,3,0,12,0,1,,,,,
,1.55,,,,,,,,,h.PNG,h,6110d421de071a61f949a5a3,2021-09-08_20h08.26.809,forced_choiceRT,2021.1.2,Win32,60.12506013,,,,,,,,6,Ontime,f,0,2.0181,3,1,13,2,1,,,,,
,1.44,,,,,,,,,h.PNG,h,6110d421de071a61f949a5a3,2021-09-08_20h08.26.809,forced_choiceRT,2021.1.2,Win32,60.12506013,,,,,,,,6,Ontime,h,1,2.018,3,2,14,2,1,,,,,
,1.76,,,,,,,,,j.PNG,j,6110d421de071a61f949a5a3,2021-09-08_20h08.26.809,forced_choiceRT,2021.1.2,Win32,60.12506013,,,,,,,,6,Ontime,h,0,2.0784,3,3,15,3,1,,,,,
,0.2,,,,,,,,,f.PNG,f,6110d421de071a61f949a5a3,2021-09-08_20h08.26.809,forced_choiceRT,2021.1.2,Win32,60.12506013,,,,,,,,6,Ontime,f,1,2.0652,4,0,16,0,1,,,,,
,1.28,,,,,,,,,j.PNG,j,6110d421de071a61f949a5a3,2021-09-08_20h08.26.809,forced_choiceRT,2021.1.2,Win32,60.12506013,,,,,,,,6,Ontime,j,1,1.9855,4,1,17,3,1,,,,,
,0.91,,,,,,,,,j.PNG,j,6110d421de071a61f949a5a3,2021-09-08_20h08.26.809,forced_choiceRT,2021.1.2,Win32,60.12506013,,,,,,,,6,Ontime,j,1,2.0345,4,2,18,3,1,,,,,
,0.8,,,,,,,,,j.PNG,j,6110d421de071a61f949a5a3,2021-09-08_20h08.26.809,forced_choiceRT,2021.1.2,Win32,60.12506013,,,,,,,,6,Ontime,j,1,2.0528,4,3,19,3,1,,,,,
,1.8,,,,,,,,,g.PNG,g,6110d421de071a61f949a5a3,2021-09-08_20h08.26.809,forced_choiceRT,2021.1.2,Win32,60.12506013,,,,,,,,6,Slow,g,1,2.1857,5,0,20,1,1,,,,,
,0.35,,,,,,,,,g.PNG,g,6110d421de071a61f949a5a3,2021-09-08_20h08.26.809,forced_choiceRT,2021.1.2,Win32,60.12506013,,,,,,,,6,Ontime,g,1,2.0312,5,1,21,1,1,,,,,
,0.48,,,,,,,,,j.PNG,j,6110d421de071a61f949a5a3,2021-09-08_20h08.26.809,forced_choiceRT,2021.1.2,Win32,60.12506013,,,,,,,,6,Ontime,j,1,2.0016,5,2,22,3,1,,,,,
,1.28,,,,,,,,,f.PNG,f,6110d421de071a61f949a5a3,2021-09-08_20h08.26.809,forced_choiceRT,2021.1.2,Win32,60.12506013,,,,,,,,6,Ontime,f,1,2.0188,5,3,23,0,1,,,,,
,0.3,,,,,,,,,j.PNG,j,6110d421de071a61f949a5a3,2021-09-08_20h08.26.809,forced_choiceRT,2021.1.2,Win32,60.12506013,,,,,,,,6,Ontime,j,1,1.9953,6,0,24,3,1,,,,,
,1.78,,,,,,,,,j.PNG,j,6110d421de071a61f949a5a3,2021-09-08_20h08.26.809,forced_choiceRT,2021.1.2,Win32,60.12506013,,,,,,,,6,Ontime,h,0,2.0179,6,1,25,3,1,,,,,
,0.43,,,,,,,,,j.PNG,j,6110d421de071a61f949a5a3,2021-09-08_20h08.26.809,forced_choiceRT,2021.1.2,Win32,60.12506013,,,,,,,,6,Ontime,j,1,1.9717,6,2,26,3,1,,,,,
,1.64,,,,,,,,,h.PNG,h,6110d421de071a61f949a5a3,2021-09-08_20h08.26.809,forced_choiceRT,2021.1.2,Win32,60.12506013,,,,,,,,6,Ontime,j,0,1.9455,6,3,27,2,1,,,,,
,0.23,,,,,,,,,g.PNG,g,6110d421de071a61f949a5a3,2021-09-08_20h08.26.809,forced_choiceRT,2021.1.2,Win32,60.12506013,,,,,,,,6,Ontime,g,1,2.0182,7,0,28,1,1,,,,,
,0.09,,,,,,,,,f.PNG,f,6110d421de071a61f949a5a3,2021-09-08_20h08.26.809,forced_choiceRT,2021.1.2,Win32,60.12506013,,,,,,,,6,Ontime,f,1,1.9695,7,1,29,0,1,,,,,
,1.08,,,,,,,,,h.PNG,h,6110d421de071a61f949a5a3,2021-09-08_20h08.26.809,forced_choiceRT,2021.1.2,Win32,60.12506013,,,,,,,,6,Ontime,h,1,2.0478,7,2,30,2,1,,,,,
,1.85,,,,,,,,,h.PNG,h,6110d421de071a61f949a5a3,2021-09-08_20h08.26.809,forced_choiceRT,2021.1.2,Win32,60.12506013,,,,,,,,6,Ontime,g,0,2.0921,7,3,31,2,1,,,,,
,0.63,,,,,,,,,g.PNG,g,6110d421de071a61f949a5a3,2021-09-08_20h08.26.809,forced_choiceRT,2021.1.2,Win32,60.12506013,,,,,,,,6,Ontime,g,1,2.0511,8,0,32,1,1,,,,,
,0.23,,,,,,,,,j.PNG,j,6110d421de071a61f949a5a3,2021-09-08_20h08.26.809,forced_choiceRT,2021.1.2,Win32,60.12506013,,,,,,,,6,Ontime,j,1,2.0346,8,1,33,3,1,,,,,
,0,,,,,,,,,f.PNG,f,6110d421de071a61f949a5a3,2021-09-08_20h08.26.809,forced_choiceRT,2021.1.2,Win32,60.12506013,,,,,,,,6,Ontime,f,1,2.0181,8,2,34,0,1,,,,,
,0.17,,,,,,,,,f.PNG,f,6110d421de071a61f949a5a3,2021-09-08_20h08.26.809,forced_choiceRT,2021.1.2,Win32,60.12506013,,,,,,,,6,Ontime,f,1,1.9867,8,3,35,0,1,,,,,
,1.45,,,,,,,,,g.PNG,g,6110d421de071a61f949a5a3,2021-09-08_20h08.26.809,forced_choiceRT,2021.1.2,Win32,60.12506013,,,,,,,,6,Ontime,g,1,2.0512,9,0,36,1,1,,,,,
,0.58,,,,,,,,,f.PNG,f,6110d421de071a61f949a5a3,2021-09-08_20h08.26.809,forced_choiceRT,2021.1.2,Win32,60.12506013,,,,,,,,6,Ontime,f,1,2.0249,9,1,37,0,1,,,,,
,0.46,,,,,,,,,h.PNG,h,6110d421de071a61f949a5a3,2021-09-08_20h08.26.809,forced_choiceRT,2021.1.2,Win32,60.12506013,,,,,,,,6,Ontime,h,1,2.0512,9,2,38,2,1,,,,,
,0.7,,,,,,,,,h.PNG,h,6110d421de071a61f949a5a3,2021-09-08_20h08.26.809,forced_choiceRT,2021.1.2,Win32,60.12506013,,,,,,,,6,Ontime,h,1,2.0233,9,3,39,2,1,,,,,
,,,,,,,,,,,,6110d421de071a61f949a5a3,2021-09-08_20h08.26.809,forced_choiceRT,2021.1.2,Win32,60.12506013,,,,,,,,,,,,,,,,,,5,0,5,0,1
,0.73,,,,,,,,,h.PNG,h,6110d421de071a61f949a5a3,2021-09-08_20h08.26.809,forced_choiceRT,2021.1.2,Win32,60.12506013,,,,,,,,7,Ontime,h,1,2.012,0,0,0,2,1,,,,,
,1.55,,,,,,,,,f.PNG,f,6110d421de071a61f949a5a3,2021-09-08_20h08.26.809,forced_choiceRT,2021.1.2,Win32,60.12506013,,,,,,,,7,Slow,f,1,2.1014,0,1,1,0,1,,,,,
,1.74,,,,,,,,,h.PNG,h,6110d421de071a61f949a5a3,2021-09-08_20h08.26.809,forced_choiceRT,2021.1.2,Win32,60.12506013,,,,,,,,7,Ontime,h,1,2.0245,0,2,2,2,1,,,,,
,0.33,,,,,,,,,g.PNG,g,6110d421de071a61f949a5a3,2021-09-08_20h08.26.809,forced_choiceRT,2021.1.2,Win32,60.12506013,,,,,,,,7,Ontime,g,1,2.0362,0,3,3,1,1,,,,,
,1.86,,,,,,,,,h.PNG,h,6110d421de071a61f949a5a3,2021-09-08_20h08.26.809,forced_choiceRT,2021.1.2,Win32,60.12506013,,,,,,,,7,Ontime,g,0,2.0176,1,0,4,2,1,,,,,
,0.82,,,,,,,,,j.PNG,j,6110d421de071a61f949a5a3,2021-09-08_20h08.26.809,forced_choiceRT,2021.1.2,Win32,60.12506013,,,,,,,,7,Ontime,j,1,1.9346,1,1,5,3,1,,,,,
,1.8,,,,,,,,,j.PNG,j,6110d421de071a61f949a5a3,2021-09-08_20h08.26.809,forced_choiceRT,2021.1.2,Win32,60.12506013,,,,,,,,7,Ontime,h,0,2.0732,1,2,6,3,1,,,,,
,1.86,,,,,,,,,h.PNG,h,6110d421de071a61f949a5a3,2021-09-08_20h08.26.809,forced_choiceRT,2021.1.2,Win32,60.12506013,,,,,,,,7,Ontime,j,0,2.0179,1,3,7,2,1,,,,,
,0.16,,,,,,,,,h.PNG,h,6110d421de071a61f949a5a3,2021-09-08_20h08.26.809,forced_choiceRT,2021.1.2,Win32,60.12506013,,,,,,,,7,Ontime,h,1,1.9846,2,0,8,2,1,,,,,
,0.7,,,,,,,,,h.PNG,h,6110d421de071a61f949a5a3,2021-09-08_20h08.26.809,forced_choiceRT,2021.1.2,Win32,60.12506013,,,,,,,,7,Ontime,h,1,1.9863,2,1,9,2,1,,,,,
,0.27,,,,,,,,,g.PNG,g,6110d421de071a61f949a5a3,2021-09-08_20h08.26.809,forced_choiceRT,2021.1.2,Win32,60.12506013,,,,,,,,7,Ontime,g,1,2.018,2,2,10,1,1,,,,,
,0.14,,,,,,,,,f.PNG,f,6110d421de071a61f949a5a3,2021-09-08_20h08.26.809,forced_choiceRT,2021.1.2,Win32,60.12506013,,,,,,,,7,Ontime,f,1,1.9514,2,3,11,0,1,,,,,
,0.75,,,,,,,,,g.PNG,g,6110d421de071a61f949a5a3,2021-09-08_20h08.26.809,forced_choiceRT,2021.1.2,Win32,60.12506013,,,,,,,,7,Ontime,g,1,2.0134,3,0,12,1,1,,,,,
,0.24,,,,,,,,,j.PNG,j,6110d421de071a61f949a5a3,2021-09-08_20h08.26.809,forced_choiceRT,2021.1.2,Win32,60.12506013,,,,,,,,7,Ontime,j,1,2.0219,3,1,13,3,1,,,,,
,1.99,,,,,,,,,f.PNG,f,6110d421de071a61f949a5a3,2021-09-08_20h08.26.809,forced_choiceRT,2021.1.2,Win32,60.12506013,,,,,,,,7,Ontime,h,0,2.0587,3,2,14,0,1,,,,,
,1.3,,,,,,,,,h.PNG,h,6110d421de071a61f949a5a3,2021-09-08_20h08.26.809,forced_choiceRT,2021.1.2,Win32,60.12506013,,,,,,,,7,Ontime,h,1,2.0681,3,3,15,2,1,,,,,
,1,,,,,,,,,f.PNG,f,6110d421de071a61f949a5a3,2021-09-08_20h08.26.809,forced_choiceRT,2021.1.2,Win32,60.12506013,,,,,,,,7,Ontime,f,1,2.0725,4,0,16,0,1,,,,,
,1.23,,,,,,,,,f.PNG,f,6110d421de071a61f949a5a3,2021-09-08_20h08.26.809,forced_choiceRT,2021.1.2,Win32,60.12506013,,,,,,,,7,Ontime,f,1,1.9879,4,1,17,0,1,,,,,
,1.11,,,,,,,,,j.PNG,j,6110d421de071a61f949a5a3,2021-09-08_20h08.26.809,forced_choiceRT,2021.1.2,Win32,60.12506013,,,,,,,,7,Ontime,j,1,2.0472,4,2,18,3,1,,,,,
,1.73,,,,,,,,,f.PNG,f,6110d421de071a61f949a5a3,2021-09-08_20h08.26.809,forced_choiceRT,2021.1.2,Win32,60.12506013,,,,,,,,7,Ontime,h,0,2.0345,4,3,19,0,1,,,,,
,0.05,,,,,,,,,g.PNG,g,6110d421de071a61f949a5a3,2021-09-08_20h08.26.809,forced_choiceRT,2021.1.2,Win32,60.12506013,,,,,,,,7,Ontime,g,1,2.0358,5,0,20,1,1,,,,,
,1.97,,,,,,,,,g.PNG,g,6110d421de071a61f949a5a3,2021-09-08_20h08.26.809,forced_choiceRT,2021.1.2,Win32,60.12506013,,,,,,,,7,Ontime,j,0,2.0347,5,1,21,1,1,,,,,
,0.19,,,,,,,,,f.PNG,f,6110d421de071a61f949a5a3,2021-09-08_20h08.26.809,forced_choiceRT,2021.1.2,Win32,60.12506013,,,,,,,,7,Ontime,f,1,1.9548,5,2,22,0,1,,,,,
,0.99,,,,,,,,,g.PNG,g,6110d421de071a61f949a5a3,2021-09-08_20h08.26.809,forced_choiceRT,2021.1.2,Win32,60.12506013,,,,,,,,7,Ontime,g,1,1.9908,5,3,23,1,1,,,,,
,0.67,,,,,,,,,f.PNG,f,6110d421de071a61f949a5a3,2021-09-08_20h08.26.809,forced_choiceRT,2021.1.2,Win32,60.12506013,,,,,,,,7,Ontime,f,1,1.9846,6,0,24,0,1,,,,,
,0.19,,,,,,,,,j.PNG,j,6110d421de071a61f949a5a3,2021-09-08_20h08.26.809,forced_choiceRT,2021.1.2,Win32,60.12506013,,,,,,,,7,Ontime,j,1,1.9845,6,1,25,3,1,,,,,
,1.99,,,,,,,,,j.PNG,j,6110d421de071a61f949a5a3,2021-09-08_20h08.26.809,forced_choiceRT,2021.1.2,Win32,60.12506013,,,,,,,,7,Ontime,h,0,1.9632,6,2,26,3,1,,,,,
,1.82,,,,,,,,,j.PNG,j,6110d421de071a61f949a5a3,2021-09-08_20h08.26.809,forced_choiceRT,2021.1.2,Win32,60.12506013,,,,,,,,7,Ontime,h,0,2.0214,6,3,27,3,1,,,,,
,1.08,,,,,,,,,h.PNG,h,6110d421de071a61f949a5a3,2021-09-08_20h08.26.809,forced_choiceRT,2021.1.2,Win32,60.12506013,,,,,,,,7,Ontime,h,1,2.0756,7,0,28,2,1,,,,,
,1.51,,,,,,,,,g.PNG,g,6110d421de071a61f949a5a3,2021-09-08_20h08.26.809,forced_choiceRT,2021.1.2,Win32,60.12506013,,,,,,,,7,Ontime,g,1,2.0512,7,1,29,1,1,,,,,
,1.38,,,,,,,,,j.PNG,j,6110d421de071a61f949a5a3,2021-09-08_20h08.26.809,forced_choiceRT,2021.1.2,Win32,60.12506013,,,,,,,,7,Ontime,j,1,2.0219,7,2,30,3,1,,,,,
,1.15,,,,,,,,,j.PNG,j,6110d421de071a61f949a5a3,2021-09-08_20h08.26.809,forced_choiceRT,2021.1.2,Win32,60.12506013,,,,,,,,7,Ontime,j,1,2.018,7,3,31,3,1,,,,,
,0.2,,,,,,,,,g.PNG,g,6110d421de071a61f949a5a3,2021-09-08_20h08.26.809,forced_choiceRT,2021.1.2,Win32,60.12506013,,,,,,,,7,Ontime,g,1,1.9135,8,0,32,1,1,,,,,
,1.09,,,,,,,,,f.PNG,f,6110d421de071a61f949a5a3,2021-09-08_20h08.26.809,forced_choiceRT,2021.1.2,Win32,60.12506013,,,,,,,,7,Ontime,f,1,1.9509,8,1,33,0,1,,,,,
,0.56,,,,,,,,,g.PNG,g,6110d421de071a61f949a5a3,2021-09-08_20h08.26.809,forced_choiceRT,2021.1.2,Win32,60.12506013,,,,,,,,7,Ontime,g,1,1.9513,8,2,34,1,1,,,,,
,1.98,,,,,,,,,h.PNG,h,6110d421de071a61f949a5a3,2021-09-08_20h08.26.809,forced_choiceRT,2021.1.2,Win32,60.12506013,,,,,,,,7,Ontime,j,0,1.968,8,3,35,2,1,,,,,
,1.88,,,,,,,,,g.PNG,g,6110d421de071a61f949a5a3,2021-09-08_20h08.26.809,forced_choiceRT,2021.1.2,Win32,60.12506013,,,,,,,,7,Ontime,h,0,2.0847,9,0,36,1,1,,,,,
,1.1,,,,,,,,,h.PNG,h,6110d421de071a61f949a5a3,2021-09-08_20h08.26.809,forced_choiceRT,2021.1.2,Win32,60.12506013,,,,,,,,7,Ontime,h,1,2.0681,9,1,37,2,1,,,,,
,1.35,,,,,,,,,f.PNG,f,6110d421de071a61f949a5a3,2021-09-08_20h08.26.809,forced_choiceRT,2021.1.2,Win32,60.12506013,,,,,,,,7,Ontime,f,1,1.9937,9,2,38,0,1,,,,,
,1.87,,,,,,,,,j.PNG,j,6110d421de071a61f949a5a3,2021-09-08_20h08.26.809,forced_choiceRT,2021.1.2,Win32,60.12506013,,,,,,,,7,Ontime,g,0,2.0452,9,3,39,3,1,,,,,
,,,,,,,,,,,,6110d421de071a61f949a5a3,2021-09-08_20h08.26.809,forced_choiceRT,2021.1.2,Win32,60.12506013,,,,,,,,,,,,,,,,,,6,0,6,0,1
,1.34,,,,,,,,,j.PNG,j,6110d421de071a61f949a5a3,2021-09-08_20h08.26.809,forced_choiceRT,2021.1.2,Win32,60.12506013,,,,,,,,8,Ontime,j,1,2.0378,0,0,0,3,1,,,,,
,1.21,,,,,,,,,f.PNG,f,6110d421de071a61f949a5a3,2021-09-08_20h08.26.809,forced_choiceRT,2021.1.2,Win32,60.12506013,,,,,,,,8,Ontime,f,1,2.0139,0,1,1,0,1,,,,,
,1.9,,,,,,,,,f.PNG,f,6110d421de071a61f949a5a3,2021-09-08_20h08.26.809,forced_choiceRT,2021.1.2,Win32,60.12506013,,,,,,,,8,Ontime,g,0,2.0349,0,2,2,0,1,,,,,
,0.23,,,,,,,,,j.PNG,j,6110d421de071a61f949a5a3,2021-09-08_20h08.26.809,forced_choiceRT,2021.1.2,Win32,60.12506013,,,,,,,,8,Ontime,j,1,1.9445,0,3,3,3,1,,,,,
,0.33,,,,,,,,,g.PNG,g,6110d421de071a61f949a5a3,2021-09-08_20h08.26.809,forced_choiceRT,2021.1.2,Win32,60.12506013,,,,,,,,8,Ontime,g,1,1.9679,1,0,4,1,1,,,,,
,1.41,,,,,,,,,f.PNG,f,6110d421de071a61f949a5a3,2021-09-08_20h08.26.809,forced_choiceRT,2021.1.2,Win32,60.12506013,,,,,,,,8,Ontime,f,1,1.9592,1,1,5,0,1,,,,,
,1.04,,,,,,,,,f.PNG,f,6110d421de071a61f949a5a3,2021-09-08_20h08.26.809,forced_choiceRT,2021.1.2,Win32,60.12506013,,,,,,,,8,Ontime,f,1,2.0318,1,2,6,0,1,,,,,
,1.55,,,,,,,,,f.PNG,f,6110d421de071a61f949a5a3,2021-09-08_20h08.26.809,forced_choiceRT,2021.1.2,Win32,60.12506013,,,,,,,,8,Ontime,f,1,2.037,1,3,7,0,1,,,,,
,0.22,,,,,,,,,j.PNG,j,6110d421de071a61f949a5a3,2021-09-08_20h08.26.809,forced_choiceRT,2021.1.2,Win32,60.12506013,,,,,,,,8,Ontime,j,1,2.0197,2,0,8,3,1,,,,,
,0.56,,,,,,,,,f.PNG,f,6110d421de071a61f949a5a3,2021-09-08_20h08.26.809,forced_choiceRT,2021.1.2,Win32,60.12506013,,,,,,,,8,Ontime,f,1,2.0516,2,1,9,0,1,,,,,
,0.58,,,,,,,,,h.PNG,h,6110d421de071a61f949a5a3,2021-09-08_20h08.26.809,forced_choiceRT,2021.1.2,Win32,60.12506013,,,,,,,,8,Ontime,h,1,2.0605,2,2,10,2,1,,,,,
,0.13,,,,,,,,,g.PNG,g,6110d421de071a61f949a5a3,2021-09-08_20h08.26.809,forced_choiceRT,2021.1.2,Win32,60.12506013,,,,,,,,8,Ontime,g,1,2.0355,2,3,11,1,1,,,,,
,0.59,,,,,,,,,h.PNG,h,6110d421de071a61f949a5a3,2021-09-08_20h08.26.809,forced_choiceRT,2021.1.2,Win32,60.12506013,,,,,,,,8,Ontime,h,1,1.9899,3,0,12,2,1,,,,,
,0.31,,,,,,,,,g.PNG,g,6110d421de071a61f949a5a3,2021-09-08_20h08.26.809,forced_choiceRT,2021.1.2,Win32,60.12506013,,,,,,,,8,Ontime,g,1,2.0313,3,1,13,1,1,,,,,
,1.9,,,,,,,,,g.PNG,g,6110d421de071a61f949a5a3,2021-09-08_20h08.26.809,forced_choiceRT,2021.1.2,Win32,60.12506013,,,,,,,,8,Ontime,h,0,1.9757,3,2,14,1,1,,,,,
,1.07,,,,,,,,,g.PNG,g,6110d421de071a61f949a5a3,2021-09-08_20h08.26.809,forced_choiceRT,2021.1.2,Win32,60.12506013,,,,,,,,8,Slow,g,1,2.1015,3,3,15,1,1,,,,,
,1.18,,,,,,,,,j.PNG,j,6110d421de071a61f949a5a3,2021-09-08_20h08.26.809,forced_choiceRT,2021.1.2,Win32,60.12506013,,,,,,,,8,Ontime,j,1,2.0092,4,0,16,3,1,,,,,
,1.39,,,,,,,,,j.PNG,j,6110d421de071a61f949a5a3,2021-09-08_20h08.26.809,forced_choiceRT,2021.1.2,Win32,60.12506013,,,,,,,,8,Ontime,j,1,1.9683,4,1,17,3,1,,,,,
,1.47,,,,,,,,,h.PNG,h,6110d421de071a61f949a5a3,2021-09-08_20h08.26.809,forced_choiceRT,2021.1.2,Win32,60.12506013,,,,,,,,8,Ontime,h,1,2.018,4,2,18,2,1,,,,,
,0.2,,,,,,,,,f.PNG,f,6110d421de071a61f949a5a3,2021-09-08_20h08.26.809,forced_choiceRT,2021.1.2,Win32,60.12506013,,,,,,,,8,Ontime,f,1,2.0016,4,3,19,0,1,,,,,
,0.13,,,,,,,,,h.PNG,h,6110d421de071a61f949a5a3,2021-09-08_20h08.26.809,forced_choiceRT,2021.1.2,Win32,60.12506013,,,,,,,,8,Ontime,h,1,2.0019,5,0,20,2,1,,,,,
,0.53,,,,,,,,,h.PNG,h,6110d421de071a61f949a5a3,2021-09-08_20h08.26.809,forced_choiceRT,2021.1.2,Win32,60.12506013,,,,,,,,8,Ontime,h,1,2.0184,5,1,21,2,1,,,,,
,1.72,,,,,,,,,g.PNG,g,6110d421de071a61f949a5a3,2021-09-08_20h08.26.809,forced_choiceRT,2021.1.2,Win32,60.12506013,,,,,,,,8,Ontime,h,0,1.989,5,2,22,1,1,,,,,
,0.36,,,,,,,,,h.PNG,h,6110d421de071a61f949a5a3,2021-09-08_20h08.26.809,forced_choiceRT,2021.1.2,Win32,60.12506013,,,,,,,,8,Ontime,h,1,2.0649,5,3,23,2,1,,,,,
,0.51,,,,,,,,,h.PNG,h,6110d421de071a61f949a5a3,2021-09-08_20h08.26.809,forced_choiceRT,2021.1.2,Win32,60.12506013,,,,,,,,8,Ontime,h,1,2.0013,6,0,24,2,1,,,,,
,0.99,,,,,,,,,g.PNG,g,6110d421de071a61f949a5a3,2021-09-08_20h08.26.809,forced_choiceRT,2021.1.2,Win32,60.12506013,,,,,,,,8,Ontime,g,1,1.9512,6,1,25,1,1,,,,,
,0.93,,,,,,,,,j.PNG,j,6110d421de071a61f949a5a3,2021-09-08_20h08.26.809,forced_choiceRT,2021.1.2,Win32,60.12506013,,,,,,,,8,Ontime,j,1,1.9179,6,2,26,3,1,,,,,
,0.38,,,,,,,,,j.PNG,j,6110d421de071a61f949a5a3,2021-09-08_20h08.26.809,forced_choiceRT,2021.1.2,Win32,60.12506013,,,,,,,,8,Ontime,j,1,2.0511,6,3,27,3,1,,,,,
,1.25,,,,,,,,,j.PNG,j,6110d421de071a61f949a5a3,2021-09-08_20h08.26.809,forced_choiceRT,2021.1.2,Win32,60.12506013,,,,,,,,8,Ontime,j,1,2.0419,7,0,28,3,1,,,,,
,0.47,,,,,,,,,h.PNG,h,6110d421de071a61f949a5a3,2021-09-08_20h08.26.809,forced_choiceRT,2021.1.2,Win32,60.12506013,,,,,,,,8,Ontime,h,1,1.9634,7,1,29,2,1,,,,,
,1.61,,,,,,,,,g.PNG,g,6110d421de071a61f949a5a3,2021-09-08_20h08.26.809,forced_choiceRT,2021.1.2,Win32,60.12506013,,,,,,,,8,Slow,g,1,5.569,7,2,30,1,1,,,,,
,1.93,,,,,,,,,f.PNG,f,6110d421de071a61f949a5a3,2021-09-08_20h08.26.809,forced_choiceRT,2021.1.2,Win32,60.12506013,,,,,,,,8,Ontime,g,0,2.0066,7,3,31,0,1,,,,,
,1.45,,,,,,,,,f.PNG,f,6110d421de071a61f949a5a3,2021-09-08_20h08.26.809,forced_choiceRT,2021.1.2,Win32,60.12506013,,,,,,,,8,Ontime,f,1,2.0185,8,0,32,0,1,,,,,
,0.73,,,,,,,,,h.PNG,h,6110d421de071a61f949a5a3,2021-09-08_20h08.26.809,forced_choiceRT,2021.1.2,Win32,60.12506013,,,,,,,,8,Ontime,h,1,1.9819,8,1,33,2,1,,,,,
,1.92,,,,,,,,,h.PNG,h,6110d421de071a61f949a5a3,2021-09-08_20h08.26.809,forced_choiceRT,2021.1.2,Win32,60.12506013,,,,,,,,8,Ontime,h,1,2.0264,8,2,34,2,1,,,,,
,0.65,,,,,,,,,j.PNG,j,6110d421de071a61f949a5a3,2021-09-08_20h08.26.809,forced_choiceRT,2021.1.2,Win32,60.12506013,,,,,,,,8,Ontime,j,1,2.0347,8,3,35,3,1,,,,,
,1.17,,,,,,,,,g.PNG,g,6110d421de071a61f949a5a3,2021-09-08_20h08.26.809,forced_choiceRT,2021.1.2,Win32,60.12506013,,,,,,,,8,Ontime,g,1,2.0182,9,0,36,1,1,,,,,
,0.86,,,,,,,,,g.PNG,g,6110d421de071a61f949a5a3,2021-09-08_20h08.26.809,forced_choiceRT,2021.1.2,Win32,60.12506013,,,,,,,,8,Ontime,g,1,1.9364,9,1,37,1,1,,,,,
,1.46,,,,,,,,,f.PNG,f,6110d421de071a61f949a5a3,2021-09-08_20h08.26.809,forced_choiceRT,2021.1.2,Win32,60.12506013,,,,,,,,8,Ontime,f,1,2.022,9,2,38,0,1,,,,,
,0.82,,,,,,,,,j.PNG,j,6110d421de071a61f949a5a3,2021-09-08_20h08.26.809,forced_choiceRT,2021.1.2,Win32,60.12506013,,,,,,,,8,Ontime,j,1,1.9569,9,3,39,3,1,,,,,
,,,,,,,,,,,,6110d421de071a61f949a5a3,2021-09-08_20h08.26.809,forced_choiceRT,2021.1.2,Win32,60.12506013,,,,,,,,,,,,,,,,,,7,0,7,0,1
,0.12,,,,,,,,,h.PNG,h,6110d421de071a61f949a5a3,2021-09-08_20h08.26.809,forced_choiceRT,2021.1.2,Win32,60.12506013,,,,,,,,9,Ontime,h,1,2.0175,0,0,0,2,1,,,,,
,1.78,,,,,,,,,j.PNG,j,6110d421de071a61f949a5a3,2021-09-08_20h08.26.809,forced_choiceRT,2021.1.2,Win32,60.12506013,,,,,,,,9,Ontime,h,0,1.9901,0,1,1,3,1,,,,,
,1.89,,,,,,,,,f.PNG,f,6110d421de071a61f949a5a3,2021-09-08_20h08.26.809,forced_choiceRT,2021.1.2,Win32,60.12506013,,,,,,,,9,Ontime,f,1,2.0511,0,2,2,0,1,,,,,
,0.04,,,,,,,,,j.PNG,j,6110d421de071a61f949a5a3,2021-09-08_20h08.26.809,forced_choiceRT,2021.1.2,Win32,60.12506013,,,,,,,,9,Ontime,j,1,2.0368,0,3,3,3,1,,,,,
,0.18,,,,,,,,,h.PNG,h,6110d421de071a61f949a5a3,2021-09-08_20h08.26.809,forced_choiceRT,2021.1.2,Win32,60.12506013,,,,,,,,9,Ontime,h,1,2.0309,1,0,4,2,1,,,,,
,0.48,,,,,,,,,j.PNG,j,6110d421de071a61f949a5a3,2021-09-08_20h08.26.809,forced_choiceRT,2021.1.2,Win32,60.12506013,,,,,,,,9,Ontime,j,1,1.989,1,1,5,3,1,,,,,
,0.66,,,,,,,,,h.PNG,h,6110d421de071a61f949a5a3,2021-09-08_20h08.26.809,forced_choiceRT,2021.1.2,Win32,60.12506013,,,,,,,,9,Ontime,h,1,1.9849,1,2,6,2,1,,,,,
,1,,,,,,,,,g.PNG,g,6110d421de071a61f949a5a3,2021-09-08_20h08.26.809,forced_choiceRT,2021.1.2,Win32,60.12506013,,,,,,,,9,Ontime,g,1,1.9845,1,3,7,1,1,,,,,
,0.03,,,,,,,,,h.PNG,h,6110d421de071a61f949a5a3,2021-09-08_20h08.26.809,forced_choiceRT,2021.1.2,Win32,60.12506013,,,,,,,,9,Ontime,h,1,1.9624,2,0,8,2,1,,,,,
,0.61,,,,,,,,,g.PNG,g,6110d421de071a61f949a5a3,2021-09-08_20h08.26.809,forced_choiceRT,2021.1.2,Win32,60.12506013,,,,,,,,9,Ontime,g,1,1.941,2,1,9,1,1,,,,,
,1.42,,,,,,,,,f.PNG,f,6110d421de071a61f949a5a3,2021-09-08_20h08.26.809,forced_choiceRT,2021.1.2,Win32,60.12506013,,,,,,,,9,Ontime,f,1,2.0017,2,2,10,0,1,,,,,
,0.64,,,,,,,,,g.PNG,g,6110d421de071a61f949a5a3,2021-09-08_20h08.26.809,forced_choiceRT,2021.1.2,Win32,60.12506013,,,,,,,,9,Ontime,g,1,2.0183,2,3,11,1,1,,,,,
,1.84,,,,,,,,,g.PNG,g,6110d421de071a61f949a5a3,2021-09-08_20h08.26.809,forced_choiceRT,2021.1.2,Win32,60.12506013,,,,,,,,9,Ontime,h,0,1.9845,3,0,12,1,1,,,,,
,1.88,,,,,,,,,g.PNG,g,6110d421de071a61f949a5a3,2021-09-08_20h08.26.809,forced_choiceRT,2021.1.2,Win32,60.12506013,,,,,,,,9,Ontime,h,0,2.0199,3,1,13,1,1,,,,,
,0.83,,,,,,,,,f.PNG,f,6110d421de071a61f949a5a3,2021-09-08_20h08.26.809,forced_choiceRT,2021.1.2,Win32,60.12506013,,,,,,,,9,Ontime,f,1,1.9349,3,2,14,0,1,,,,,
,1.31,,,,,,,,,j.PNG,j,6110d421de071a61f949a5a3,2021-09-08_20h08.26.809,forced_choiceRT,2021.1.2,Win32,60.12506013,,,,,,,,9,Ontime,j,1,1.9348,3,3,15,3,1,,,,,
,1.47,,,,,,,,,h.PNG,h,6110d421de071a61f949a5a3,2021-09-08_20h08.26.809,forced_choiceRT,2021.1.2,Win32,60.12506013,,,,,,,,9,Ontime,h,1,1.9866,4,0,16,2,1,,,,,
,0.4,,,,,,,,,f.PNG,f,6110d421de071a61f949a5a3,2021-09-08_20h08.26.809,forced_choiceRT,2021.1.2,Win32,60.12506013,,,,,,,,9,Ontime,f,1,1.94,4,1,17,0,1,,,,,
,1.97,,,,,,,,,g.PNG,g,6110d421de071a61f949a5a3,2021-09-08_20h08.26.809,forced_choiceRT,2021.1.2,Win32,60.12506013,,,,,,,,9,Ontime,h,0,1.9684,4,2,18,1,1,,,,,
,0.05,,,,,,,,,f.PNG,f,6110d421de071a61f949a5a3,2021-09-08_20h08.26.809,forced_choiceRT,2021.1.2,Win32,60.12506013,,,,,,,,9,Ontime,f,1,2.0348,4,3,19,0,1,,,,,
,0.8,,,,,,,,,g.PNG,g,6110d421de071a61f949a5a3,2021-09-08_20h08.26.809,forced_choiceRT,2021.1.2,Win32,60.12506013,,,,,,,,9,Ontime,g,1,2.0768,5,0,20,1,1,,,,,
,0.24,,,,,,,,,f.PNG,f,6110d421de071a61f949a5a3,2021-09-08_20h08.26.809,forced_choiceRT,2021.1.2,Win32,60.12506013,,,,,,,,9,Ontime,f,1,1.943,5,1,21,0,1,,,,,
,1.19,,,,,,,,,j.PNG,j,6110d421de071a61f949a5a3,2021-09-08_20h08.26.809,forced_choiceRT,2021.1.2,Win32,60.12506013,,,,,,,,9,Ontime,j,1,2.0346,5,2,22,3,1,,,,,
,0.49,,,,,,,,,g.PNG,g,6110d421de071a61f949a5a3,2021-09-08_20h08.26.809,forced_choiceRT,2021.1.2,Win32,60.12506013,,,,,,,,9,Ontime,g,1,1.9216,5,3,23,1,1,,,,,
,0.15,,,,,,,,,h.PNG,h,6110d421de071a61f949a5a3,2021-09-08_20h08.26.809,forced_choiceRT,2021.1.2,Win32,60.12506013,,,,,,,,9,Fast,h,1,1.8348,6,0,24,2,1,,,,,
,1.79,,,,,,,,,f.PNG,f,6110d421de071a61f949a5a3,2021-09-08_20h08.26.809,forced_choiceRT,2021.1.2,Win32,60.12506013,,,,,,,,9,Ontime,h,0,1.9844,6,1,25,0,1,,,,,
,1.01,,,,,,,,,h.PNG,h,6110d421de071a61f949a5a3,2021-09-08_20h08.26.809,forced_choiceRT,2021.1.2,Win32,60.12506013,,,,,,,,9,Ontime,h,1,1.9849,6,2,26,2,1,,,,,
,1.23,,,,,,,,,h.PNG,h,6110d421de071a61f949a5a3,2021-09-08_20h08.26.809,forced_choiceRT,2021.1.2,Win32,60.12506013,,,,,,,,9,Fast,h,1,1.8891,6,3,27,2,1,,,,,
,1.51,,,,,,,,,j.PNG,j,6110d421de071a61f949a5a3,2021-09-08_20h08.26.809,forced_choiceRT,2021.1.2,Win32,60.12506013,,,,,,,,9,Ontime,j,1,2.0181,7,0,28,3,1,,,,,
,0.06,,,,,,,,,j.PNG,j,6110d421de071a61f949a5a3,2021-09-08_20h08.26.809,forced_choiceRT,2021.1.2,Win32,60.12506013,,,,,,,,9,Ontime,j,1,1.9513,7,1,29,3,1,,,,,
,1.17,,,,,,,,,f.PNG,f,6110d421de071a61f949a5a3,2021-09-08_20h08.26.809,forced_choiceRT,2021.1.2,Win32,60.12506013,,,,,,,,9,Ontime,f,1,1.9204,7,2,30,0,1,,,,,
,0.7,,,,,,,,,f.PNG,f,6110d421de071a61f949a5a3,2021-09-08_20h08.26.809,forced_choiceRT,2021.1.2,Win32,60.12506013,,,,,,,,9,Ontime,f,1,1.9871,7,3,31,0,1,,,,,
,1.74,,,,,,,,,j.PNG,j,6110d421de071a61f949a5a3,2021-09-08_20h08.26.809,forced_choiceRT,2021.1.2,Win32,60.12506013,,,,,,,,9,Ontime,g,0,1.9702,8,0,32,3,1,,,,,
,0.71,,,,,,,,,g.PNG,g,6110d421de071a61f949a5a3,2021-09-08_20h08.26.809,forced_choiceRT,2021.1.2,Win32,60.12506013,,,,,,,,9,Ontime,g,1,2.0346,8,1,33,1,1,,,,,
,0.4,,,,,,,,,h.PNG,h,6110d421de071a61f949a5a3,2021-09-08_20h08.26.809,forced_choiceRT,2021.1.2,Win32,60.12506013,,,,,,,,9,Ontime,h,1,1.9732,8,2,34,2,1,,,,,
,1.42,,,,,,,,,j.PNG,j,6110d421de071a61f949a5a3,2021-09-08_20h08.26.809,forced_choiceRT,2021.1.2,Win32,60.12506013,,,,,,,,9,Ontime,j,1,2.0454,8,3,35,3,1,,,,,
,1.78,,,,,,,,,h.PNG,h,6110d421de071a61f949a5a3,2021-09-08_20h08.26.809,forced_choiceRT,2021.1.2,Win32,60.12506013,,,,,,,,9,Ontime,h,1,2.0272,9,0,36,2,1,,,,,
,1.29,,,,,,,,,g.PNG,g,6110d421de071a61f949a5a3,2021-09-08_20h08.26.809,forced_choiceRT,2021.1.2,Win32,60.12506013,,,,,,,,9,Ontime,g,1,1.9824,9,1,37,1,1,,,,,
,0.18,,,,,,,,,f.PNG,f,6110d421de071a61f949a5a3,2021-09-08_20h08.26.809,forced_choiceRT,2021.1.2,Win32,60.12506013,,,,,,,,9,Ontime,f,1,2.0179,9,2,38,0,1,,,,,
,0.41,,,,,,,,,j.PNG,j,6110d421de071a61f949a5a3,2021-09-08_20h08.26.809,forced_choiceRT,2021.1.2,Win32,60.12506013,,,,,,,,9,Ontime,j,1,2.0345,9,3,39,3,1,,,,,
,,,,,,,,,,,,6110d421de071a61f949a5a3,2021-09-08_20h08.26.809,forced_choiceRT,2021.1.2,Win32,60.12506013,,,,,,,,,,,,,,,,,,8,0,8,0,1
,1.68,,,,,,,,,h.PNG,h,6110d421de071a61f949a5a3,2021-09-08_20h08.26.809,forced_choiceRT,2021.1.2,Win32,60.12506013,,,,,,,,10,Slow,h,1,2.1807,0,0,0,2,1,,,,,
,0.07,,,,,,,,,j.PNG,j,6110d421de071a61f949a5a3,2021-09-08_20h08.26.809,forced_choiceRT,2021.1.2,Win32,60.12506013,,,,,,,,10,Ontime,j,1,2.0484,0,1,1,3,1,,,,,
,0.75,,,,,,,,,j.PNG,j,6110d421de071a61f949a5a3,2021-09-08_20h08.26.809,forced_choiceRT,2021.1.2,Win32,60.12506013,,,,,,,,10,Slow,j,1,2.1517,0,2,2,3,1,,,,,
,1.6,,,,,,,,,h.PNG,h,6110d421de071a61f949a5a3,2021-09-08_20h08.26.809,forced_choiceRT,2021.1.2,Win32,60.12506013,,,,,,,,10,Ontime,j,0,2.058,0,3,3,2,1,,,,,
,1.71,,,,,,,,,h.PNG,h,6110d421de071a61f949a5a3,2021-09-08_20h08.26.809,forced_choiceRT,2021.1.2,Win32,60.12506013,,,,,,,,10,Ontime,h,1,1.9918,1,0,4,2,1,,,,,
,1.52,,,,,,,,,j.PNG,j,6110d421de071a61f949a5a3,2021-09-08_20h08.26.809,forced_choiceRT,2021.1.2,Win32,60.12506013,,,,,,,,10,Ontime,h,0,1.9847,1,1,5,3,1,,,,,
,0.79,,,,,,,,,j.PNG,j,6110d421de071a61f949a5a3,2021-09-08_20h08.26.809,forced_choiceRT,2021.1.2,Win32,60.12506013,,,,,,,,10,Ontime,j,1,1.9075,1,2,6,3,1,,,,,
,0.81,,,,,,,,,f.PNG,f,6110d421de071a61f949a5a3,2021-09-08_20h08.26.809,forced_choiceRT,2021.1.2,Win32,60.12506013,,,,,,,,10,Ontime,f,1,1.9446,1,3,7,0,1,,,,,
,1.58,,,,,,,,,f.PNG,f,6110d421de071a61f949a5a3,2021-09-08_20h08.26.809,forced_choiceRT,2021.1.2,Win32,60.12506013,,,,,,,,10,Ontime,f,1,2.0369,2,0,8,0,1,,,,,
,1.68,,,,,,,,,g.PNG,g,6110d421de071a61f949a5a3,2021-09-08_20h08.26.809,forced_choiceRT,2021.1.2,Win32,60.12506013,,,,,,,,10,Ontime,f,0,2.0513,2,1,9,1,1,,,,,
,0.26,,,,,,,,,h.PNG,h,6110d421de071a61f949a5a3,2021-09-08_20h08.26.809,forced_choiceRT,2021.1.2,Win32,60.12506013,,,,,,,,10,Ontime,h,1,1.9681,2,2,10,2,1,,,,,
,0.5,,,,,,,,,f.PNG,f,6110d421de071a61f949a5a3,2021-09-08_20h08.26.809,forced_choiceRT,2021.1.2,Win32,60.12506013,,,,,,,,10,Ontime,f,1,1.9518,2,3,11,0,1,,,,,
,0.36,,,,,,,,,g.PNG,g,6110d421de071a61f949a5a3,2021-09-08_20h08.26.809,forced_choiceRT,2021.1.2,Win32,60.12506013,,,,,,,,10,Ontime,g,1,1.9341,3,0,12,1,1,,,,,
,1,,,,,,,,,g.PNG,g,6110d421de071a61f949a5a3,2021-09-08_20h08.26.809,forced_choiceRT,2021.1.2,Win32,60.12506013,,,,,,,,10,Ontime,g,1,1.9789,3,1,13,1,1,,,,,
,1.36,,,,,,,,,j.PNG,j,6110d421de071a61f949a5a3,2021-09-08_20h08.26.809,forced_choiceRT,2021.1.2,Win32,60.12506013,,,,,,,,10,Ontime,j,1,1.9702,3,2,14,3,1,,,,,
,0.23,,,,,,,,,f.PNG,f,6110d421de071a61f949a5a3,2021-09-08_20h08.26.809,forced_choiceRT,2021.1.2,Win32,60.12506013,,,,,,,,10,Ontime,f,1,1.9603,3,3,15,0,1,,,,,
,1.42,,,,,,,,,g.PNG,g,6110d421de071a61f949a5a3,2021-09-08_20h08.26.809,forced_choiceRT,2021.1.2,Win32,60.12506013,,,,,,,,10,Ontime,g,1,2.0016,4,0,16,1,1,,,,,
,0.31,,,,,,,,,h.PNG,h,6110d421de071a61f949a5a3,2021-09-08_20h08.26.809,forced_choiceRT,2021.1.2,Win32,60.12506013,,,,,,,,10,Ontime,h,1,1.9292,4,1,17,2,1,,,,,
,0.63,,,,,,,,,f.PNG,f,6110d421de071a61f949a5a3,2021-09-08_20h08.26.809,forced_choiceRT,2021.1.2,Win32,60.12506013,,,,,,,,10,Ontime,f,1,2.0346,4,2,18,0,1,,,,,
,1.72,,,,,,,,,h.PNG,h,6110d421de071a61f949a5a3,2021-09-08_20h08.26.809,forced_choiceRT,2021.1.2,Win32,60.12506013,,,,,,,,10,Ontime,h,1,2.0346,4,3,19,2,1,,,,,
,1.99,,,,,,,,,f.PNG,f,6110d421de071a61f949a5a3,2021-09-08_20h08.26.809,forced_choiceRT,2021.1.2,Win32,60.12506013,,,,,,,,10,Ontime,h,0,2.0405,5,0,20,0,1,,,,,
,1.07,,,,,,,,,j.PNG,j,6110d421de071a61f949a5a3,2021-09-08_20h08.26.809,forced_choiceRT,2021.1.2,Win32,60.12506013,,,,,,,,10,Ontime,j,1,2.0344,5,1,21,3,1,,,,,
,0.11,,,,,,,,,f.PNG,f,6110d421de071a61f949a5a3,2021-09-08_20h08.26.809,forced_choiceRT,2021.1.2,Win32,60.12506013,,,,,,,,10,Ontime,f,1,1.9681,5,2,22,0,1,,,,,
,0.09,,,,,,,,,h.PNG,h,6110d421de071a61f949a5a3,2021-09-08_20h08.26.809,forced_choiceRT,2021.1.2,Win32,60.12506013,,,,,,,,10,Ontime,h,1,1.9937,5,3,23,2,1,,,,,
,0.15,,,,,,,,,g.PNG,g,6110d421de071a61f949a5a3,2021-09-08_20h08.26.809,forced_choiceRT,2021.1.2,Win32,60.12506013,,,,,,,,10,Ontime,g,1,2.0516,6,0,24,1,1,,,,,
,0.31,,,,,,,,,g.PNG,g,6110d421de071a61f949a5a3,2021-09-08_20h08.26.809,forced_choiceRT,2021.1.2,Win32,60.12506013,,,,,,,,10,Ontime,g,1,2.0114,6,1,25,1,1,,,,,
,1.1,,,,,,,,,f.PNG,f,6110d421de071a61f949a5a3,2021-09-08_20h08.26.809,forced_choiceRT,2021.1.2,Win32,60.12506013,,,,,,,,10,Ontime,f,1,2.0349,6,2,26,0,1,,,,,
,1.74,,,,,,,,,h.PNG,h,6110d421de071a61f949a5a3,2021-09-08_20h08.26.809,forced_choiceRT,2021.1.2,Win32,60.12506013,,,,,,,,10,Ontime,h,1,1.9915,6,3,27,2,1,,,,,
,1.06,,,,,,,,,g.PNG,g,6110d421de071a61f949a5a3,2021-09-08_20h08.26.809,forced_choiceRT,2021.1.2,Win32,60.12506013,,,,,,,,10,Ontime,g,1,2.0348,7,0,28,1,1,,,,,
,0.9,,,,,,,,,h.PNG,h,6110d421de071a61f949a5a3,2021-09-08_20h08.26.809,forced_choiceRT,2021.1.2,Win32,60.12506013,,,,,,,,10,Ontime,h,1,2.018,7,1,29,2,1,,,,,
,0.53,,,,,,,,,f.PNG,f,6110d421de071a61f949a5a3,2021-09-08_20h08.26.809,forced_choiceRT,2021.1.2,Win32,60.12506013,,,,,,,,10,Ontime,f,1,2.0181,7,2,30,0,1,,,,,
,1,,,,,,,,,f.PNG,f,6110d421de071a61f949a5a3,2021-09-08_20h08.26.809,forced_choiceRT,2021.1.2,Win32,60.12506013,,,,,,,,10,Ontime,f,1,2.0348,7,3,31,0,1,,,,,
,1.51,,,,,,,,,g.PNG,g,6110d421de071a61f949a5a3,2021-09-08_20h08.26.809,forced_choiceRT,2021.1.2,Win32,60.12506013,,,,,,,,10,Ontime,g,1,2.0177,8,0,32,1,1,,,,,
,0.18,,,,,,,,,j.PNG,j,6110d421de071a61f949a5a3,2021-09-08_20h08.26.809,forced_choiceRT,2021.1.2,Win32,60.12506013,,,,,,,,10,Ontime,j,1,2.0015,8,1,33,3,1,,,,,
,1.88,,,,,,,,,j.PNG,j,6110d421de071a61f949a5a3,2021-09-08_20h08.26.809,forced_choiceRT,2021.1.2,Win32,60.12506013,,,,,,,,10,Ontime,h,0,2.0181,8,2,34,3,1,,,,,
,0.37,,,,,,,,,j.PNG,j,6110d421de071a61f949a5a3,2021-09-08_20h08.26.809,forced_choiceRT,2021.1.2,Win32,60.12506013,,,,,,,,10,Ontime,j,1,2.0179,8,3,35,3,1,,,,,
,0.46,,,,,,,,,h.PNG,h,6110d421de071a61f949a5a3,2021-09-08_20h08.26.809,forced_choiceRT,2021.1.2,Win32,60.12506013,,,,,,,,10,Ontime,h,1,1.9514,9,0,36,2,1,,,,,
,0.55,,,,,,,,,g.PNG,g,6110d421de071a61f949a5a3,2021-09-08_20h08.26.809,forced_choiceRT,2021.1.2,Win32,60.12506013,,,,,,,,10,Ontime,g,1,1.9848,9,1,37,1,1,,,,,
,1.19,,,,,,,,,g.PNG,g,6110d421de071a61f949a5a3,2021-09-08_20h08.26.809,forced_choiceRT,2021.1.2,Win32,60.12506013,,,,,,,,10,Ontime,g,1,1.9511,9,2,38,1,1,,,,,
,1.5,,,,,,,,,j.PNG,j,6110d421de071a61f949a5a3,2021-09-08_20h08.26.809,forced_choiceRT,2021.1.2,Win32,60.12506013,,,,,,,,10,Ontime,h,0,2.0682,9,3,39,3,1,,,,,
,,,,,,,,,,,,6110d421de071a61f949a5a3,2021-09-08_20h08.26.809,forced_choiceRT,2021.1.2,Win32,60.12506013,,,,,,,,,,,,,,,,,,9,0,9,0,1
