IP_Addresss,target_onset,trial_resp_sp.keys,trial_resp_sp.corr,trial_resp_sp.rt,trials_train_loop.thisRepN,trials_train_loop.thisTrialN,trials_train_loop.thisN,trials_train_loop.thisIndex,trials_train_loop.ran,pic,correct_key,participant,date,expName,psychopyVersion,OS,frameRate,trial_resp_timing.keys,trial_resp_timing.rt,trials_train_timing.thisRepN,trials_train_timing.thisTrialN,trials_train_timing.thisN,trials_train_timing.thisIndex,trials_train_timing.ran,block_id,ontime,forcedRT_resp.keys,forcedRT_resp.corr,forcedRT_resp.rt,trials.thisRepN,trials.thisTrialN,trials.thisN,trials.thisIndex,trials.ran,blocks.thisRepN,blocks.thisTrialN,blocks.thisN,blocks.thisIndex,blocks.ran
75.188.1.107,0,g,1,2.7279,0,0,0,1,1,g.PNG,g,6110d7e62afb7dafbc68fbaf,2021-09-08_21h15.49.026,forced_choiceRT,2021.1.2,Win32,59.25925926,,,,,,,,,,,,,,,,,,,,,,
,0,h,1,1.2988,0,1,1,2,1,h.PNG,h,6110d7e62afb7dafbc68fbaf,2021-09-08_21h15.49.026,forced_choiceRT,2021.1.2,Win32,59.25925926,,,,,,,,,,,,,,,,,,,,,,
,0,j,1,0.969,0,2,2,3,1,j.PNG,j,6110d7e62afb7dafbc68fbaf,2021-09-08_21h15.49.026,forced_choiceRT,2021.1.2,Win32,59.25925926,,,,,,,,,,,,,,,,,,,,,,
,0,h,1,1.6763,0,3,3,2,1,h.PNG,h,6110d7e62afb7dafbc68fbaf,2021-09-08_21h15.49.026,forced_choiceRT,2021.1.2,Win32,59.25925926,,,,,,,,,,,,,,,,,,,,,,
,0,g,1,0.8006,1,0,4,1,1,g.PNG,g,6110d7e62afb7dafbc68fbaf,2021-09-08_21h15.49.026,forced_choiceRT,2021.1.2,Win32,59.25925926,,,,,,,,,,,,,,,,,,,,,,
,0,g,1,0.7116,1,1,5,1,1,g.PNG,g,6110d7e62afb7dafbc68fbaf,2021-09-08_21h15.49.026,forced_choiceRT,2021.1.2,Win32,59.25925926,,,,,,,,,,,,,,,,,,,,,,
,0,f,1,0.7235,1,2,6,0,1,f.PNG,f,6110d7e62afb7dafbc68fbaf,2021-09-08_21h15.49.026,forced_choiceRT,2021.1.2,Win32,59.25925926,,,,,,,,,,,,,,,,,,,,,,
,0,g,1,0.8832,1,3,7,1,1,g.PNG,g,6110d7e62afb7dafbc68fbaf,2021-09-08_21h15.49.026,forced_choiceRT,2021.1.2,Win32,59.25925926,,,,,,,,,,,,,,,,,,,,,,
,0,f,1,0.8089,2,0,8,0,1,f.PNG,f,6110d7e62afb7dafbc68fbaf,2021-09-08_21h15.49.026,forced_choiceRT,2021.1.2,Win32,59.25925926,,,,,,,,,,,,,,,,,,,,,,
,0,j,1,0.7833,2,1,9,3,1,j.PNG,j,6110d7e62afb7dafbc68fbaf,2021-09-08_21h15.49.026,forced_choiceRT,2021.1.2,Win32,59.25925926,,,,,,,,,,,,,,,,,,,,,,
,0,h,1,1.05,2,2,10,2,1,h.PNG,h,6110d7e62afb7dafbc68fbaf,2021-09-08_21h15.49.026,forced_choiceRT,2021.1.2,Win32,59.25925926,,,,,,,,,,,,,,,,,,,,,,
,0,f,1,0.9075,2,3,11,0,1,f.PNG,f,6110d7e62afb7dafbc68fbaf,2021-09-08_21h15.49.026,forced_choiceRT,2021.1.2,Win32,59.25925926,,,,,,,,,,,,,,,,,,,,,,
,0,f,1,0.5769,3,0,12,0,1,f.PNG,f,6110d7e62afb7dafbc68fbaf,2021-09-08_21h15.49.026,forced_choiceRT,2021.1.2,Win32,59.25925926,,,,,,,,,,,,,,,,,,,,,,
,0,f,1,0.4184,3,1,13,0,1,f.PNG,f,6110d7e62afb7dafbc68fbaf,2021-09-08_21h15.49.026,forced_choiceRT,2021.1.2,Win32,59.25925926,,,,,,,,,,,,,,,,,,,,,,
,0,j,1,0.7525,3,2,14,3,1,j.PNG,j,6110d7e62afb7dafbc68fbaf,2021-09-08_21h15.49.026,forced_choiceRT,2021.1.2,Win32,59.25925926,,,,,,,,,,,,,,,,,,,,,,
,0,h,1,1.2746,3,3,15,2,1,h.PNG,h,6110d7e62afb7dafbc68fbaf,2021-09-08_21h15.49.026,forced_choiceRT,2021.1.2,Win32,59.25925926,,,,,,,,,,,,,,,,,,,,,,
,0,g,1,0.6433,4,0,16,1,1,g.PNG,g,6110d7e62afb7dafbc68fbaf,2021-09-08_21h15.49.026,forced_choiceRT,2021.1.2,Win32,59.25925926,,,,,,,,,,,,,,,,,,,,,,
,0,h,1,0.7649,4,1,17,2,1,h.PNG,h,6110d7e62afb7dafbc68fbaf,2021-09-08_21h15.49.026,forced_choiceRT,2021.1.2,Win32,59.25925926,,,,,,,,,,,,,,,,,,,,,,
,0,h,1,0.7496,4,2,18,2,1,h.PNG,h,6110d7e62afb7dafbc68fbaf,2021-09-08_21h15.49.026,forced_choiceRT,2021.1.2,Win32,59.25925926,,,,,,,,,,,,,,,,,,,,,,
,0,j,1,0.623,4,3,19,3,1,j.PNG,j,6110d7e62afb7dafbc68fbaf,2021-09-08_21h15.49.026,forced_choiceRT,2021.1.2,Win32,59.25925926,,,,,,,,,,,,,,,,,,,,,,
,0,j,1,0.6062,5,0,20,3,1,j.PNG,j,6110d7e62afb7dafbc68fbaf,2021-09-08_21h15.49.026,forced_choiceRT,2021.1.2,Win32,59.25925926,,,,,,,,,,,,,,,,,,,,,,
,0,f,1,0.6086,5,1,21,0,1,f.PNG,f,6110d7e62afb7dafbc68fbaf,2021-09-08_21h15.49.026,forced_choiceRT,2021.1.2,Win32,59.25925926,,,,,,,,,,,,,,,,,,,,,,
,0,g,1,0.7176,5,2,22,1,1,g.PNG,g,6110d7e62afb7dafbc68fbaf,2021-09-08_21h15.49.026,forced_choiceRT,2021.1.2,Win32,59.25925926,,,,,,,,,,,,,,,,,,,,,,
,0,j,1,0.7941,5,3,23,3,1,j.PNG,j,6110d7e62afb7dafbc68fbaf,2021-09-08_21h15.49.026,forced_choiceRT,2021.1.2,Win32,59.25925926,,,,,,,,,,,,,,,,,,,,,,
,0,f,1,1.035,6,0,24,0,1,f.PNG,f,6110d7e62afb7dafbc68fbaf,2021-09-08_21h15.49.026,forced_choiceRT,2021.1.2,Win32,59.25925926,,,,,,,,,,,,,,,,,,,,,,
,0,j,1,0.7552,6,1,25,3,1,j.PNG,j,6110d7e62afb7dafbc68fbaf,2021-09-08_21h15.49.026,forced_choiceRT,2021.1.2,Win32,59.25925926,,,,,,,,,,,,,,,,,,,,,,
,0,g,1,1.0851,6,2,26,1,1,g.PNG,g,6110d7e62afb7dafbc68fbaf,2021-09-08_21h15.49.026,forced_choiceRT,2021.1.2,Win32,59.25925926,,,,,,,,,,,,,,,,,,,,,,
,0,h,1,0.5257,6,3,27,2,1,h.PNG,h,6110d7e62afb7dafbc68fbaf,2021-09-08_21h15.49.026,forced_choiceRT,2021.1.2,Win32,59.25925926,,,,,,,,,,,,,,,,,,,,,,
,0,h,1,0.8242,7,0,28,2,1,h.PNG,h,6110d7e62afb7dafbc68fbaf,2021-09-08_21h15.49.026,forced_choiceRT,2021.1.2,Win32,59.25925926,,,,,,,,,,,,,,,,,,,,,,
,0,g,1,0.7208,7,1,29,1,1,g.PNG,g,6110d7e62afb7dafbc68fbaf,2021-09-08_21h15.49.026,forced_choiceRT,2021.1.2,Win32,59.25925926,,,,,,,,,,,,,,,,,,,,,,
,0,j,1,0.704,7,2,30,3,1,j.PNG,j,6110d7e62afb7dafbc68fbaf,2021-09-08_21h15.49.026,forced_choiceRT,2021.1.2,Win32,59.25925926,,,,,,,,,,,,,,,,,,,,,,
,0,h,1,2.3255,7,3,31,2,1,h.PNG,h,6110d7e62afb7dafbc68fbaf,2021-09-08_21h15.49.026,forced_choiceRT,2021.1.2,Win32,59.25925926,,,,,,,,,,,,,,,,,,,,,,
,0,j,1,1.4171,8,0,32,3,1,j.PNG,j,6110d7e62afb7dafbc68fbaf,2021-09-08_21h15.49.026,forced_choiceRT,2021.1.2,Win32,59.25925926,,,,,,,,,,,,,,,,,,,,,,
,0,f,1,0.6908,8,1,33,0,1,f.PNG,f,6110d7e62afb7dafbc68fbaf,2021-09-08_21h15.49.026,forced_choiceRT,2021.1.2,Win32,59.25925926,,,,,,,,,,,,,,,,,,,,,,
,0,j,1,1.3647,8,2,34,3,1,j.PNG,j,6110d7e62afb7dafbc68fbaf,2021-09-08_21h15.49.026,forced_choiceRT,2021.1.2,Win32,59.25925926,,,,,,,,,,,,,,,,,,,,,,
,0,h,1,1.0328,8,3,35,2,1,h.PNG,h,6110d7e62afb7dafbc68fbaf,2021-09-08_21h15.49.026,forced_choiceRT,2021.1.2,Win32,59.25925926,,,,,,,,,,,,,,,,,,,,,,
,0,g,1,0.7845,9,0,36,1,1,g.PNG,g,6110d7e62afb7dafbc68fbaf,2021-09-08_21h15.49.026,forced_choiceRT,2021.1.2,Win32,59.25925926,,,,,,,,,,,,,,,,,,,,,,
,0,f,1,0.7269,9,1,37,0,1,f.PNG,f,6110d7e62afb7dafbc68fbaf,2021-09-08_21h15.49.026,forced_choiceRT,2021.1.2,Win32,59.25925926,,,,,,,,,,,,,,,,,,,,,,
,0,g,1,0.7736,9,2,38,1,1,g.PNG,g,6110d7e62afb7dafbc68fbaf,2021-09-08_21h15.49.026,forced_choiceRT,2021.1.2,Win32,59.25925926,,,,,,,,,,,,,,,,,,,,,,
,0,f,1,0.8377,9,3,39,0,1,f.PNG,f,6110d7e62afb7dafbc68fbaf,2021-09-08_21h15.49.026,forced_choiceRT,2021.1.2,Win32,59.25925926,,,,,,,,,,,,,,,,,,,,,,
,0,f,1,0.5482,10,0,40,0,1,f.PNG,f,6110d7e62afb7dafbc68fbaf,2021-09-08_21h15.49.026,forced_choiceRT,2021.1.2,Win32,59.25925926,,,,,,,,,,,,,,,,,,,,,,
,0,j,1,0.6987,10,1,41,3,1,j.PNG,j,6110d7e62afb7dafbc68fbaf,2021-09-08_21h15.49.026,forced_choiceRT,2021.1.2,Win32,59.25925926,,,,,,,,,,,,,,,,,,,,,,
,0,f,1,0.8262,10,2,42,0,1,f.PNG,f,6110d7e62afb7dafbc68fbaf,2021-09-08_21h15.49.026,forced_choiceRT,2021.1.2,Win32,59.25925926,,,,,,,,,,,,,,,,,,,,,,
,0,f,1,0.6669,10,3,43,0,1,f.PNG,f,6110d7e62afb7dafbc68fbaf,2021-09-08_21h15.49.026,forced_choiceRT,2021.1.2,Win32,59.25925926,,,,,,,,,,,,,,,,,,,,,,
,0,j,1,0.8008,11,0,44,3,1,j.PNG,j,6110d7e62afb7dafbc68fbaf,2021-09-08_21h15.49.026,forced_choiceRT,2021.1.2,Win32,59.25925926,,,,,,,,,,,,,,,,,,,,,,
,0,j,1,0.5704,11,1,45,3,1,j.PNG,j,6110d7e62afb7dafbc68fbaf,2021-09-08_21h15.49.026,forced_choiceRT,2021.1.2,Win32,59.25925926,,,,,,,,,,,,,,,,,,,,,,
,0,j,1,0.4747,11,2,46,3,1,j.PNG,j,6110d7e62afb7dafbc68fbaf,2021-09-08_21h15.49.026,forced_choiceRT,2021.1.2,Win32,59.25925926,,,,,,,,,,,,,,,,,,,,,,
,0,f,1,0.6273,11,3,47,0,1,f.PNG,f,6110d7e62afb7dafbc68fbaf,2021-09-08_21h15.49.026,forced_choiceRT,2021.1.2,Win32,59.25925926,,,,,,,,,,,,,,,,,,,,,,
,0,h,1,1.2477,12,0,48,2,1,h.PNG,h,6110d7e62afb7dafbc68fbaf,2021-09-08_21h15.49.026,forced_choiceRT,2021.1.2,Win32,59.25925926,,,,,,,,,,,,,,,,,,,,,,
,0,g,1,1.3653,12,1,49,1,1,g.PNG,g,6110d7e62afb7dafbc68fbaf,2021-09-08_21h15.49.026,forced_choiceRT,2021.1.2,Win32,59.25925926,,,,,,,,,,,,,,,,,,,,,,
,0,h,1,2.7988,12,2,50,2,1,h.PNG,h,6110d7e62afb7dafbc68fbaf,2021-09-08_21h15.49.026,forced_choiceRT,2021.1.2,Win32,59.25925926,,,,,,,,,,,,,,,,,,,,,,
,0,f,1,0.6162,12,3,51,0,1,f.PNG,f,6110d7e62afb7dafbc68fbaf,2021-09-08_21h15.49.026,forced_choiceRT,2021.1.2,Win32,59.25925926,,,,,,,,,,,,,,,,,,,,,,
,0,g,1,0.7367,13,0,52,1,1,g.PNG,g,6110d7e62afb7dafbc68fbaf,2021-09-08_21h15.49.026,forced_choiceRT,2021.1.2,Win32,59.25925926,,,,,,,,,,,,,,,,,,,,,,
,0,g,1,0.5518,13,1,53,1,1,g.PNG,g,6110d7e62afb7dafbc68fbaf,2021-09-08_21h15.49.026,forced_choiceRT,2021.1.2,Win32,59.25925926,,,,,,,,,,,,,,,,,,,,,,
,0,g,1,0.4851,13,2,54,1,1,g.PNG,g,6110d7e62afb7dafbc68fbaf,2021-09-08_21h15.49.026,forced_choiceRT,2021.1.2,Win32,59.25925926,,,,,,,,,,,,,,,,,,,,,,
,0,j,1,0.6069,13,3,55,3,1,j.PNG,j,6110d7e62afb7dafbc68fbaf,2021-09-08_21h15.49.026,forced_choiceRT,2021.1.2,Win32,59.25925926,,,,,,,,,,,,,,,,,,,,,,
,0,h,1,2.1141,14,0,56,2,1,h.PNG,h,6110d7e62afb7dafbc68fbaf,2021-09-08_21h15.49.026,forced_choiceRT,2021.1.2,Win32,59.25925926,,,,,,,,,,,,,,,,,,,,,,
,0,h,1,0.616,14,1,57,2,1,h.PNG,h,6110d7e62afb7dafbc68fbaf,2021-09-08_21h15.49.026,forced_choiceRT,2021.1.2,Win32,59.25925926,,,,,,,,,,,,,,,,,,,,,,
,0,g,1,0.9405,14,2,58,1,1,g.PNG,g,6110d7e62afb7dafbc68fbaf,2021-09-08_21h15.49.026,forced_choiceRT,2021.1.2,Win32,59.25925926,,,,,,,,,,,,,,,,,,,,,,
,0,h,1,0.6781,14,3,59,2,1,h.PNG,h,6110d7e62afb7dafbc68fbaf,2021-09-08_21h15.49.026,forced_choiceRT,2021.1.2,Win32,59.25925926,,,,,,,,,,,,,,,,,,,,,,
,,,,,,,,,,,,6110d7e62afb7dafbc68fbaf,2021-09-08_21h15.49.026,forced_choiceRT,2021.1.2,Win32,59.25925926,f,2.1831,0,0,0,0,1,,,,,,,,,,,,,,,
,,,,,,,,,,,,6110d7e62afb7dafbc68fbaf,2021-09-08_21h15.49.026,forced_choiceRT,2021.1.2,Win32,59.25925926,g,1.8989,1,0,1,0,1,,,,,,,,,,,,,,,
,,,,,,,,,,,,6110d7e62afb7dafbc68fbaf,2021-09-08_21h15.49.026,forced_choiceRT,2021.1.2,Win32,59.25925926,f,1.9748,2,0,2,0,1,,,,,,,,,,,,,,,
,,,,,,,,,,,,6110d7e62afb7dafbc68fbaf,2021-09-08_21h15.49.026,forced_choiceRT,2021.1.2,Win32,59.25925926,g,1.89,3,0,3,0,1,,,,,,,,,,,,,,,
,,,,,,,,,,,,6110d7e62afb7dafbc68fbaf,2021-09-08_21h15.49.026,forced_choiceRT,2021.1.2,Win32,59.25925926,h,1.9997,4,0,4,0,1,,,,,,,,,,,,,,,
,,,,,,,,,,,,6110d7e62afb7dafbc68fbaf,2021-09-08_21h15.49.026,forced_choiceRT,2021.1.2,Win32,59.25925926,f,1.9772,5,0,5,0,1,,,,,,,,,,,,,,,
,,,,,,,,,,,,6110d7e62afb7dafbc68fbaf,2021-09-08_21h15.49.026,forced_choiceRT,2021.1.2,Win32,59.25925926,h,1.9829,6,0,6,0,1,,,,,,,,,,,,,,,
,,,,,,,,,,,,6110d7e62afb7dafbc68fbaf,2021-09-08_21h15.49.026,forced_choiceRT,2021.1.2,Win32,59.25925926,j,1.9544,7,0,7,0,1,,,,,,,,,,,,,,,
,,,,,,,,,,,,6110d7e62afb7dafbc68fbaf,2021-09-08_21h15.49.026,forced_choiceRT,2021.1.2,Win32,59.25925926,g,1.9193,8,0,8,0,1,,,,,,,,,,,,,,,
,,,,,,,,,,,,6110d7e62afb7dafbc68fbaf,2021-09-08_21h15.49.026,forced_choiceRT,2021.1.2,Win32,59.25925926,f,1.9856,9,0,9,0,1,,,,,,,,,,,,,,,
,,,,,,,,,,,,6110d7e62afb7dafbc68fbaf,2021-09-08_21h15.49.026,forced_choiceRT,2021.1.2,Win32,59.25925926,f,2.0001,10,0,10,0,1,,,,,,,,,,,,,,,
,,,,,,,,,,,,6110d7e62afb7dafbc68fbaf,2021-09-08_21h15.49.026,forced_choiceRT,2021.1.2,Win32,59.25925926,f,1.9503,11,0,11,0,1,,,,,,,,,,,,,,,
,,,,,,,,,,,,6110d7e62afb7dafbc68fbaf,2021-09-08_21h15.49.026,forced_choiceRT,2021.1.2,Win32,59.25925926,f,1.946,12,0,12,0,1,,,,,,,,,,,,,,,
,,,,,,,,,,,,6110d7e62afb7dafbc68fbaf,2021-09-08_21h15.49.026,forced_choiceRT,2021.1.2,Win32,59.25925926,f,1.9688,13,0,13,0,1,,,,,,,,,,,,,,,
,,,,,,,,,,,,6110d7e62afb7dafbc68fbaf,2021-09-08_21h15.49.026,forced_choiceRT,2021.1.2,Win32,59.25925926,g,1.9591,14,0,14,0,1,,,,,,,,,,,,,,,
,,,,,,,,,,,,6110d7e62afb7dafbc68fbaf,2021-09-08_21h15.49.026,forced_choiceRT,2021.1.2,Win32,59.25925926,h,1.9755,15,0,15,0,1,,,,,,,,,,,,,,,
,,,,,,,,,,,,6110d7e62afb7dafbc68fbaf,2021-09-08_21h15.49.026,forced_choiceRT,2021.1.2,Win32,59.25925926,h,2.0024,16,0,16,0,1,,,,,,,,,,,,,,,
,,,,,,,,,,,,6110d7e62afb7dafbc68fbaf,2021-09-08_21h15.49.026,forced_choiceRT,2021.1.2,Win32,59.25925926,j,2.06,17,0,17,0,1,,,,,,,,,,,,,,,
,,,,,,,,,,,,6110d7e62afb7dafbc68fbaf,2021-09-08_21h15.49.026,forced_choiceRT,2021.1.2,Win32,59.25925926,h,1.9918,18,0,18,0,1,,,,,,,,,,,,,,,
,,,,,,,,,,,,6110d7e62afb7dafbc68fbaf,2021-09-08_21h15.49.026,forced_choiceRT,2021.1.2,Win32,59.25925926,g,1.8691,19,0,19,0,1,,,,,,,,,,,,,,,
,1.96,,,,,,,,,j.PNG,j,6110d7e62afb7dafbc68fbaf,2021-09-08_21h15.49.026,forced_choiceRT,2021.1.2,Win32,59.25925926,,,,,,,,1,Slow,j,1,3.6978,0,0,0,3,1,,,,,
,1.16,,,,,,,,,g.PNG,g,6110d7e62afb7dafbc68fbaf,2021-09-08_21h15.49.026,forced_choiceRT,2021.1.2,Win32,59.25925926,,,,,,,,1,Fast,f,0,1.783,0,1,1,1,1,,,,,
,0.86,,,,,,,,,f.PNG,f,6110d7e62afb7dafbc68fbaf,2021-09-08_21h15.49.026,forced_choiceRT,2021.1.2,Win32,59.25925926,,,,,,,,1,Ontime,f,1,2.0062,0,2,2,0,1,,,,,
,1.94,,,,,,,,,h.PNG,h,6110d7e62afb7dafbc68fbaf,2021-09-08_21h15.49.026,forced_choiceRT,2021.1.2,Win32,59.25925926,,,,,,,,1,Slow,g,0,2.2158,0,3,3,2,1,,,,,
,1.28,,,,,,,,,h.PNG,h,6110d7e62afb7dafbc68fbaf,2021-09-08_21h15.49.026,forced_choiceRT,2021.1.2,Win32,59.25925926,,,,,,,,1,Ontime,h,1,1.9483,1,0,4,2,1,,,,,
,0.33,,,,,,,,,h.PNG,h,6110d7e62afb7dafbc68fbaf,2021-09-08_21h15.49.026,forced_choiceRT,2021.1.2,Win32,59.25925926,,,,,,,,1,Ontime,h,1,1.9279,1,1,5,2,1,,,,,
,1.6,,,,,,,,,f.PNG,f,6110d7e62afb7dafbc68fbaf,2021-09-08_21h15.49.026,forced_choiceRT,2021.1.2,Win32,59.25925926,,,,,,,,1,Fast,h,0,1.895,1,2,6,0,1,,,,,
,0.02,,,,,,,,,h.PNG,h,6110d7e62afb7dafbc68fbaf,2021-09-08_21h15.49.026,forced_choiceRT,2021.1.2,Win32,59.25925926,,,,,,,,1,Fast,h,1,1.7509,1,3,7,2,1,,,,,
,0.26,,,,,,,,,h.PNG,h,6110d7e62afb7dafbc68fbaf,2021-09-08_21h15.49.026,forced_choiceRT,2021.1.2,Win32,59.25925926,,,,,,,,1,Fast,h,1,1.8035,2,0,8,2,1,,,,,
,0.59,,,,,,,,,j.PNG,j,6110d7e62afb7dafbc68fbaf,2021-09-08_21h15.49.026,forced_choiceRT,2021.1.2,Win32,59.25925926,,,,,,,,1,Ontime,j,1,2.0993,2,1,9,3,1,,,,,
,0.23,,,,,,,,,h.PNG,h,6110d7e62afb7dafbc68fbaf,2021-09-08_21h15.49.026,forced_choiceRT,2021.1.2,Win32,59.25925926,,,,,,,,1,Ontime,h,1,1.9946,2,2,10,2,1,,,,,
,1.84,,,,,,,,,f.PNG,f,6110d7e62afb7dafbc68fbaf,2021-09-08_21h15.49.026,forced_choiceRT,2021.1.2,Win32,59.25925926,,,,,,,,1,Slow,f,1,2.1209,2,3,11,0,1,,,,,
,0.1,,,,,,,,,g.PNG,g,6110d7e62afb7dafbc68fbaf,2021-09-08_21h15.49.026,forced_choiceRT,2021.1.2,Win32,59.25925926,,,,,,,,1,Ontime,g,1,1.9154,3,0,12,1,1,,,,,
,0,,,,,,,,,g.PNG,g,6110d7e62afb7dafbc68fbaf,2021-09-08_21h15.49.026,forced_choiceRT,2021.1.2,Win32,59.25925926,,,,,,,,1,Ontime,g,1,2.0269,3,1,13,1,1,,,,,
,1.49,,,,,,,,,j.PNG,j,6110d7e62afb7dafbc68fbaf,2021-09-08_21h15.49.026,forced_choiceRT,2021.1.2,Win32,59.25925926,,,,,,,,1,Slow,j,1,2.141,3,2,14,3,1,,,,,
,0.51,,,,,,,,,g.PNG,g,6110d7e62afb7dafbc68fbaf,2021-09-08_21h15.49.026,forced_choiceRT,2021.1.2,Win32,59.25925926,,,,,,,,1,Ontime,g,1,2.0202,3,3,15,1,1,,,,,
,1.04,,,,,,,,,f.PNG,f,6110d7e62afb7dafbc68fbaf,2021-09-08_21h15.49.026,forced_choiceRT,2021.1.2,Win32,59.25925926,,,,,,,,1,Ontime,f,1,2.0326,4,0,16,0,1,,,,,
,0.6,,,,,,,,,j.PNG,j,6110d7e62afb7dafbc68fbaf,2021-09-08_21h15.49.026,forced_choiceRT,2021.1.2,Win32,59.25925926,,,,,,,,1,Ontime,j,1,2.0767,4,1,17,3,1,,,,,
,0.09,,,,,,,,,g.PNG,g,6110d7e62afb7dafbc68fbaf,2021-09-08_21h15.49.026,forced_choiceRT,2021.1.2,Win32,59.25925926,,,,,,,,1,Ontime,g,1,2.0425,4,2,18,1,1,,,,,
,1.55,,,,,,,,,h.PNG,h,6110d7e62afb7dafbc68fbaf,2021-09-08_21h15.49.026,forced_choiceRT,2021.1.2,Win32,59.25925926,,,,,,,,1,Ontime,f,0,2.0249,4,3,19,2,1,,,,,
,1.41,,,,,,,,,g.PNG,g,6110d7e62afb7dafbc68fbaf,2021-09-08_21h15.49.026,forced_choiceRT,2021.1.2,Win32,59.25925926,,,,,,,,1,Ontime,g,1,2.0391,5,0,20,1,1,,,,,
,0.58,,,,,,,,,j.PNG,j,6110d7e62afb7dafbc68fbaf,2021-09-08_21h15.49.026,forced_choiceRT,2021.1.2,Win32,59.25925926,,,,,,,,1,Ontime,j,1,2.0834,5,1,21,3,1,,,,,
,0.14,,,,,,,,,j.PNG,j,6110d7e62afb7dafbc68fbaf,2021-09-08_21h15.49.026,forced_choiceRT,2021.1.2,Win32,59.25925926,,,,,,,,1,Ontime,j,1,1.998,5,2,22,3,1,,,,,
,0.76,,,,,,,,,f.PNG,f,6110d7e62afb7dafbc68fbaf,2021-09-08_21h15.49.026,forced_choiceRT,2021.1.2,Win32,59.25925926,,,,,,,,1,Ontime,f,1,2.054,5,3,23,0,1,,,,,
,0.83,,,,,,,,,f.PNG,f,6110d7e62afb7dafbc68fbaf,2021-09-08_21h15.49.026,forced_choiceRT,2021.1.2,Win32,59.25925926,,,,,,,,1,Ontime,f,1,2.0282,6,0,24,0,1,,,,,
,0.71,,,,,,,,,h.PNG,h,6110d7e62afb7dafbc68fbaf,2021-09-08_21h15.49.026,forced_choiceRT,2021.1.2,Win32,59.25925926,,,,,,,,1,Ontime,g,0,2.0492,6,1,25,2,1,,,,,
,1.42,,,,,,,,,f.PNG,f,6110d7e62afb7dafbc68fbaf,2021-09-08_21h15.49.026,forced_choiceRT,2021.1.2,Win32,59.25925926,,,,,,,,1,Slow,f,1,2.1556,6,2,26,0,1,,,,,
,1.98,,,,,,,,,g.PNG,g,6110d7e62afb7dafbc68fbaf,2021-09-08_21h15.49.026,forced_choiceRT,2021.1.2,Win32,59.25925926,,,,,,,,1,Slow,f,0,2.2502,6,3,27,1,1,,,,,
,0.4,,,,,,,,,g.PNG,g,6110d7e62afb7dafbc68fbaf,2021-09-08_21h15.49.026,forced_choiceRT,2021.1.2,Win32,59.25925926,,,,,,,,1,Fast,g,1,1.8675,7,0,28,1,1,,,,,
,0.98,,,,,,,,,j.PNG,j,6110d7e62afb7dafbc68fbaf,2021-09-08_21h15.49.026,forced_choiceRT,2021.1.2,Win32,59.25925926,,,,,,,,1,Ontime,j,1,2.0145,7,1,29,3,1,,,,,
,0.25,,,,,,,,,g.PNG,g,6110d7e62afb7dafbc68fbaf,2021-09-08_21h15.49.026,forced_choiceRT,2021.1.2,Win32,59.25925926,,,,,,,,1,Ontime,g,1,1.9811,7,2,30,1,1,,,,,
,1.34,,,,,,,,,h.PNG,h,6110d7e62afb7dafbc68fbaf,2021-09-08_21h15.49.026,forced_choiceRT,2021.1.2,Win32,59.25925926,,,,,,,,1,Slow,h,1,2.1214,7,3,31,2,1,,,,,
,0.57,,,,,,,,,j.PNG,j,6110d7e62afb7dafbc68fbaf,2021-09-08_21h15.49.026,forced_choiceRT,2021.1.2,Win32,59.25925926,,,,,,,,1,Ontime,j,1,2.0811,8,0,32,3,1,,,,,
,0.31,,,,,,,,,h.PNG,h,6110d7e62afb7dafbc68fbaf,2021-09-08_21h15.49.026,forced_choiceRT,2021.1.2,Win32,59.25925926,,,,,,,,1,Ontime,h,1,1.9896,8,1,33,2,1,,,,,
,0.9,,,,,,,,,f.PNG,f,6110d7e62afb7dafbc68fbaf,2021-09-08_21h15.49.026,forced_choiceRT,2021.1.2,Win32,59.25925926,,,,,,,,1,Ontime,f,1,2.0377,8,2,34,0,1,,,,,
,1.78,,,,,,,,,j.PNG,j,6110d7e62afb7dafbc68fbaf,2021-09-08_21h15.49.026,forced_choiceRT,2021.1.2,Win32,59.25925926,,,,,,,,1,Slow,f,0,2.214,8,3,35,3,1,,,,,
,0.21,,,,,,,,,j.PNG,j,6110d7e62afb7dafbc68fbaf,2021-09-08_21h15.49.026,forced_choiceRT,2021.1.2,Win32,59.25925926,,,,,,,,1,Ontime,j,1,2.06,9,0,36,3,1,,,,,
,1.99,,,,,,,,,f.PNG,f,6110d7e62afb7dafbc68fbaf,2021-09-08_21h15.49.026,forced_choiceRT,2021.1.2,Win32,59.25925926,,,,,,,,1,Ontime,f,1,2.0511,9,1,37,0,1,,,,,
,0.98,,,,,,,,,g.PNG,g,6110d7e62afb7dafbc68fbaf,2021-09-08_21h15.49.026,forced_choiceRT,2021.1.2,Win32,59.25925926,,,,,,,,1,Ontime,g,1,1.9181,9,2,38,1,1,,,,,
,1.69,,,,,,,,,f.PNG,f,6110d7e62afb7dafbc68fbaf,2021-09-08_21h15.49.026,forced_choiceRT,2021.1.2,Win32,59.25925926,,,,,,,,1,Ontime,h,0,2.0084,9,3,39,0,1,,,,,
,,,,,,,,,,,,6110d7e62afb7dafbc68fbaf,2021-09-08_21h15.49.026,forced_choiceRT,2021.1.2,Win32,59.25925926,,,,,,,,,,,,,,,,,,0,0,0,0,1
,0.67,,,,,,,,,f.PNG,f,6110d7e62afb7dafbc68fbaf,2021-09-08_21h15.49.026,forced_choiceRT,2021.1.2,Win32,59.25925926,,,,,,,,2,Slow,f,1,2.1189,0,0,0,0,1,,,,,
,1.31,,,,,,,,,g.PNG,g,6110d7e62afb7dafbc68fbaf,2021-09-08_21h15.49.026,forced_choiceRT,2021.1.2,Win32,59.25925926,,,,,,,,2,Ontime,g,1,1.9831,0,1,1,1,1,,,,,
,0.92,,,,,,,,,j.PNG,j,6110d7e62afb7dafbc68fbaf,2021-09-08_21h15.49.026,forced_choiceRT,2021.1.2,Win32,59.25925926,,,,,,,,2,Ontime,j,1,1.9601,0,2,2,3,1,,,,,
,1.68,,,,,,,,,j.PNG,j,6110d7e62afb7dafbc68fbaf,2021-09-08_21h15.49.026,forced_choiceRT,2021.1.2,Win32,59.25925926,,,,,,,,2,Slow,f,0,2.2771,0,3,3,3,1,,,,,
,1.96,,,,,,,,,g.PNG,g,6110d7e62afb7dafbc68fbaf,2021-09-08_21h15.49.026,forced_choiceRT,2021.1.2,Win32,59.25925926,,,,,,,,2,Ontime,g,1,2.0812,1,0,4,1,1,,,,,
,1.85,,,,,,,,,j.PNG,j,6110d7e62afb7dafbc68fbaf,2021-09-08_21h15.49.026,forced_choiceRT,2021.1.2,Win32,59.25925926,,,,,,,,2,Fast,j,1,1.8846,1,1,5,3,1,,,,,
,1.98,,,,,,,,,g.PNG,g,6110d7e62afb7dafbc68fbaf,2021-09-08_21h15.49.026,forced_choiceRT,2021.1.2,Win32,59.25925926,,,,,,,,2,Slow,j,0,2.1644,1,2,6,1,1,,,,,
,0.09,,,,,,,,,f.PNG,f,6110d7e62afb7dafbc68fbaf,2021-09-08_21h15.49.026,forced_choiceRT,2021.1.2,Win32,59.25925926,,,,,,,,2,Fast,f,1,1.8816,1,3,7,0,1,,,,,
,0.72,,,,,,,,,j.PNG,j,6110d7e62afb7dafbc68fbaf,2021-09-08_21h15.49.026,forced_choiceRT,2021.1.2,Win32,59.25925926,,,,,,,,2,Fast,f,0,1.8758,2,0,8,3,1,,,,,
,0.97,,,,,,,,,f.PNG,f,6110d7e62afb7dafbc68fbaf,2021-09-08_21h15.49.026,forced_choiceRT,2021.1.2,Win32,59.25925926,,,,,,,,2,Ontime,f,1,2.015,2,1,9,0,1,,,,,
,0.06,,,,,,,,,f.PNG,f,6110d7e62afb7dafbc68fbaf,2021-09-08_21h15.49.026,forced_choiceRT,2021.1.2,Win32,59.25925926,,,,,,,,2,Ontime,f,1,2.0663,2,2,10,0,1,,,,,
,0.87,,,,,,,,,f.PNG,f,6110d7e62afb7dafbc68fbaf,2021-09-08_21h15.49.026,forced_choiceRT,2021.1.2,Win32,59.25925926,,,,,,,,2,Fast,f,1,1.8069,2,3,11,0,1,,,,,
,1.2,,,,,,,,,h.PNG,h,6110d7e62afb7dafbc68fbaf,2021-09-08_21h15.49.026,forced_choiceRT,2021.1.2,Win32,59.25925926,,,,,,,,2,Ontime,h,1,2.0509,3,0,12,2,1,,,,,
,0.41,,,,,,,,,f.PNG,f,6110d7e62afb7dafbc68fbaf,2021-09-08_21h15.49.026,forced_choiceRT,2021.1.2,Win32,59.25925926,,,,,,,,2,Slow,f,1,2.1154,3,1,13,0,1,,,,,
,0.28,,,,,,,,,g.PNG,g,6110d7e62afb7dafbc68fbaf,2021-09-08_21h15.49.026,forced_choiceRT,2021.1.2,Win32,59.25925926,,,,,,,,2,Ontime,g,1,2.0161,3,2,14,1,1,,,,,
,1.39,,,,,,,,,h.PNG,h,6110d7e62afb7dafbc68fbaf,2021-09-08_21h15.49.026,forced_choiceRT,2021.1.2,Win32,59.25925926,,,,,,,,2,Ontime,h,1,1.9474,3,3,15,2,1,,,,,
,1.87,,,,,,,,,g.PNG,g,6110d7e62afb7dafbc68fbaf,2021-09-08_21h15.49.026,forced_choiceRT,2021.1.2,Win32,59.25925926,,,,,,,,2,Ontime,j,0,1.9837,4,0,16,1,1,,,,,
,0.86,,,,,,,,,j.PNG,j,6110d7e62afb7dafbc68fbaf,2021-09-08_21h15.49.026,forced_choiceRT,2021.1.2,Win32,59.25925926,,,,,,,,2,Ontime,j,1,2.0651,4,1,17,3,1,,,,,
,1.85,,,,,,,,,g.PNG,g,6110d7e62afb7dafbc68fbaf,2021-09-08_21h15.49.026,forced_choiceRT,2021.1.2,Win32,59.25925926,,,,,,,,2,Slow,j,0,2.2709,4,2,18,1,1,,,,,
,0.73,,,,,,,,,g.PNG,g,6110d7e62afb7dafbc68fbaf,2021-09-08_21h15.49.026,forced_choiceRT,2021.1.2,Win32,59.25925926,,,,,,,,2,Fast,g,1,1.8869,4,3,19,1,1,,,,,
,1.11,,,,,,,,,h.PNG,h,6110d7e62afb7dafbc68fbaf,2021-09-08_21h15.49.026,forced_choiceRT,2021.1.2,Win32,59.25925926,,,,,,,,2,Ontime,g,0,1.9395,5,0,20,2,1,,,,,
,0.35,,,,,,,,,f.PNG,f,6110d7e62afb7dafbc68fbaf,2021-09-08_21h15.49.026,forced_choiceRT,2021.1.2,Win32,59.25925926,,,,,,,,2,Ontime,f,1,1.976,5,1,21,0,1,,,,,
,1.51,,,,,,,,,j.PNG,j,6110d7e62afb7dafbc68fbaf,2021-09-08_21h15.49.026,forced_choiceRT,2021.1.2,Win32,59.25925926,,,,,,,,2,Slow,j,1,2.2166,5,2,22,3,1,,,,,
,0.11,,,,,,,,,h.PNG,h,6110d7e62afb7dafbc68fbaf,2021-09-08_21h15.49.026,forced_choiceRT,2021.1.2,Win32,59.25925926,,,,,,,,2,Fast,f,0,1.633,5,3,23,2,1,,,,,
,0.38,,,,,,,,,h.PNG,h,6110d7e62afb7dafbc68fbaf,2021-09-08_21h15.49.026,forced_choiceRT,2021.1.2,Win32,59.25925926,,,,,,,,2,Ontime,h,1,2.0106,6,0,24,2,1,,,,,
,0.16,,,,,,,,,j.PNG,j,6110d7e62afb7dafbc68fbaf,2021-09-08_21h15.49.026,forced_choiceRT,2021.1.2,Win32,59.25925926,,,,,,,,2,Ontime,j,1,2.0567,6,1,25,3,1,,,,,
,0.8,,,,,,,,,j.PNG,j,6110d7e62afb7dafbc68fbaf,2021-09-08_21h15.49.026,forced_choiceRT,2021.1.2,Win32,59.25925926,,,,,,,,2,Slow,j,1,2.1185,6,2,26,3,1,,,,,
,0.83,,,,,,,,,f.PNG,f,6110d7e62afb7dafbc68fbaf,2021-09-08_21h15.49.026,forced_choiceRT,2021.1.2,Win32,59.25925926,,,,,,,,2,Ontime,f,1,2.0359,6,3,27,0,1,,,,,
,1.74,,,,,,,,,h.PNG,h,6110d7e62afb7dafbc68fbaf,2021-09-08_21h15.49.026,forced_choiceRT,2021.1.2,Win32,59.25925926,,,,,,,,2,Slow,h,1,3.9136,7,0,28,2,1,,,,,
,0.72,,,,,,,,,h.PNG,h,6110d7e62afb7dafbc68fbaf,2021-09-08_21h15.49.026,forced_choiceRT,2021.1.2,Win32,59.25925926,,,,,,,,2,Ontime,h,1,1.9167,7,1,29,2,1,,,,,
,1.52,,,,,,,,,g.PNG,g,6110d7e62afb7dafbc68fbaf,2021-09-08_21h15.49.026,forced_choiceRT,2021.1.2,Win32,59.25925926,,,,,,,,2,Ontime,g,1,2.0756,7,2,30,1,1,,,,,
,1.02,,,,,,,,,g.PNG,g,6110d7e62afb7dafbc68fbaf,2021-09-08_21h15.49.026,forced_choiceRT,2021.1.2,Win32,59.25925926,,,,,,,,2,Ontime,g,1,2.0476,7,3,31,1,1,,,,,
,0.18,,,,,,,,,h.PNG,h,6110d7e62afb7dafbc68fbaf,2021-09-08_21h15.49.026,forced_choiceRT,2021.1.2,Win32,59.25925926,,,,,,,,2,Ontime,h,1,2.0889,8,0,32,2,1,,,,,
,0.95,,,,,,,,,g.PNG,g,6110d7e62afb7dafbc68fbaf,2021-09-08_21h15.49.026,forced_choiceRT,2021.1.2,Win32,59.25925926,,,,,,,,2,Ontime,g,1,2.0721,8,1,33,1,1,,,,,
,1.86,,,,,,,,,j.PNG,j,6110d7e62afb7dafbc68fbaf,2021-09-08_21h15.49.026,forced_choiceRT,2021.1.2,Win32,59.25925926,,,,,,,,2,Slow,j,1,3.132,8,2,34,3,1,,,,,
,1.57,,,,,,,,,f.PNG,f,6110d7e62afb7dafbc68fbaf,2021-09-08_21h15.49.026,forced_choiceRT,2021.1.2,Win32,59.25925926,,,,,,,,2,Slow,f,1,2.1285,8,3,35,0,1,,,,,
,0.68,,,,,,,,,h.PNG,h,6110d7e62afb7dafbc68fbaf,2021-09-08_21h15.49.026,forced_choiceRT,2021.1.2,Win32,59.25925926,,,,,,,,2,Ontime,h,1,1.9555,9,0,36,2,1,,,,,
,1.6,,,,,,,,,f.PNG,f,6110d7e62afb7dafbc68fbaf,2021-09-08_21h15.49.026,forced_choiceRT,2021.1.2,Win32,59.25925926,,,,,,,,2,Ontime,g,0,2.0647,9,1,37,0,1,,,,,
,0.15,,,,,,,,,h.PNG,h,6110d7e62afb7dafbc68fbaf,2021-09-08_21h15.49.026,forced_choiceRT,2021.1.2,Win32,59.25925926,,,,,,,,2,Ontime,h,1,2.0812,9,2,38,2,1,,,,,
,0.73,,,,,,,,,j.PNG,j,6110d7e62afb7dafbc68fbaf,2021-09-08_21h15.49.026,forced_choiceRT,2021.1.2,Win32,59.25925926,,,,,,,,2,Ontime,j,1,2.0765,9,3,39,3,1,,,,,
,,,,,,,,,,,,6110d7e62afb7dafbc68fbaf,2021-09-08_21h15.49.026,forced_choiceRT,2021.1.2,Win32,59.25925926,,,,,,,,,,,,,,,,,,1,0,1,0,1
,1.15,,,,,,,,,j.PNG,j,6110d7e62afb7dafbc68fbaf,2021-09-08_21h15.49.026,forced_choiceRT,2021.1.2,Win32,59.25925926,,,,,,,,3,Ontime,j,1,2.0972,0,0,0,3,1,,,,,
,0.1,,,,,,,,,g.PNG,g,6110d7e62afb7dafbc68fbaf,2021-09-08_21h15.49.026,forced_choiceRT,2021.1.2,Win32,59.25925926,,,,,,,,3,Slow,g,1,2.1014,0,1,1,1,1,,,,,
,0.43,,,,,,,,,h.PNG,h,6110d7e62afb7dafbc68fbaf,2021-09-08_21h15.49.026,forced_choiceRT,2021.1.2,Win32,59.25925926,,,,,,,,3,Fast,h,1,1.8573,0,2,2,2,1,,,,,
,0.67,,,,,,,,,f.PNG,f,6110d7e62afb7dafbc68fbaf,2021-09-08_21h15.49.026,forced_choiceRT,2021.1.2,Win32,59.25925926,,,,,,,,3,Ontime,f,1,1.9799,0,3,3,0,1,,,,,
,0.88,,,,,,,,,h.PNG,h,6110d7e62afb7dafbc68fbaf,2021-09-08_21h15.49.026,forced_choiceRT,2021.1.2,Win32,59.25925926,,,,,,,,3,Ontime,h,1,2.0163,1,0,4,2,1,,,,,
,1.56,,,,,,,,,h.PNG,h,6110d7e62afb7dafbc68fbaf,2021-09-08_21h15.49.026,forced_choiceRT,2021.1.2,Win32,59.25925926,,,,,,,,3,Slow,h,1,2.6542,1,1,5,2,1,,,,,
,1.2,,,,,,,,,f.PNG,f,6110d7e62afb7dafbc68fbaf,2021-09-08_21h15.49.026,forced_choiceRT,2021.1.2,Win32,59.25925926,,,,,,,,3,Ontime,f,1,2.0479,1,2,6,0,1,,,,,
,0.15,,,,,,,,,h.PNG,h,6110d7e62afb7dafbc68fbaf,2021-09-08_21h15.49.026,forced_choiceRT,2021.1.2,Win32,59.25925926,,,,,,,,3,Fast,h,1,1.828,1,3,7,2,1,,,,,
,0.35,,,,,,,,,f.PNG,f,6110d7e62afb7dafbc68fbaf,2021-09-08_21h15.49.026,forced_choiceRT,2021.1.2,Win32,59.25925926,,,,,,,,3,Ontime,f,1,2.0379,2,0,8,0,1,,,,,
,1.29,,,,,,,,,j.PNG,j,6110d7e62afb7dafbc68fbaf,2021-09-08_21h15.49.026,forced_choiceRT,2021.1.2,Win32,59.25925926,,,,,,,,3,Slow,j,1,2.2239,2,1,9,3,1,,,,,
,0.52,,,,,,,,,g.PNG,g,6110d7e62afb7dafbc68fbaf,2021-09-08_21h15.49.026,forced_choiceRT,2021.1.2,Win32,59.25925926,,,,,,,,3,Ontime,g,1,2.0503,2,2,10,1,1,,,,,
,1.18,,,,,,,,,f.PNG,f,6110d7e62afb7dafbc68fbaf,2021-09-08_21h15.49.026,forced_choiceRT,2021.1.2,Win32,59.25925926,,,,,,,,3,Ontime,f,1,2.0498,2,3,11,0,1,,,,,
,0.5,,,,,,,,,g.PNG,g,6110d7e62afb7dafbc68fbaf,2021-09-08_21h15.49.026,forced_choiceRT,2021.1.2,Win32,59.25925926,,,,,,,,3,Ontime,g,1,1.9347,3,0,12,1,1,,,,,
,0.58,,,,,,,,,g.PNG,g,6110d7e62afb7dafbc68fbaf,2021-09-08_21h15.49.026,forced_choiceRT,2021.1.2,Win32,59.25925926,,,,,,,,3,Ontime,g,1,2.0479,3,1,13,1,1,,,,,
,0.94,,,,,,,,,f.PNG,f,6110d7e62afb7dafbc68fbaf,2021-09-08_21h15.49.026,forced_choiceRT,2021.1.2,Win32,59.25925926,,,,,,,,3,Ontime,f,1,2.0506,3,2,14,0,1,,,,,
,1.64,,,,,,,,,h.PNG,h,6110d7e62afb7dafbc68fbaf,2021-09-08_21h15.49.026,forced_choiceRT,2021.1.2,Win32,59.25925926,,,,,,,,3,Ontime,f,0,2.0484,3,3,15,2,1,,,,,
,1.27,,,,,,,,,f.PNG,f,6110d7e62afb7dafbc68fbaf,2021-09-08_21h15.49.026,forced_choiceRT,2021.1.2,Win32,59.25925926,,,,,,,,3,Ontime,f,1,1.9053,4,0,16,0,1,,,,,
,1.64,,,,,,,,,j.PNG,j,6110d7e62afb7dafbc68fbaf,2021-09-08_21h15.49.026,forced_choiceRT,2021.1.2,Win32,59.25925926,,,,,,,,3,Ontime,f,0,1.9342,4,1,17,3,1,,,,,
,0.75,,,,,,,,,g.PNG,g,6110d7e62afb7dafbc68fbaf,2021-09-08_21h15.49.026,forced_choiceRT,2021.1.2,Win32,59.25925926,,,,,,,,3,Fast,g,1,1.8714,4,2,18,1,1,,,,,
,0.61,,,,,,,,,j.PNG,j,6110d7e62afb7dafbc68fbaf,2021-09-08_21h15.49.026,forced_choiceRT,2021.1.2,Win32,59.25925926,,,,,,,,3,Ontime,j,1,2.014,4,3,19,3,1,,,,,
,0.42,,,,,,,,,j.PNG,j,6110d7e62afb7dafbc68fbaf,2021-09-08_21h15.49.026,forced_choiceRT,2021.1.2,Win32,59.25925926,,,,,,,,3,Ontime,j,1,1.9337,5,0,20,3,1,,,,,
,0.04,,,,,,,,,j.PNG,j,6110d7e62afb7dafbc68fbaf,2021-09-08_21h15.49.026,forced_choiceRT,2021.1.2,Win32,59.25925926,,,,,,,,3,Fast,j,1,1.8458,5,1,21,3,1,,,,,
,1.5,,,,,,,,,f.PNG,f,6110d7e62afb7dafbc68fbaf,2021-09-08_21h15.49.026,forced_choiceRT,2021.1.2,Win32,59.25925926,,,,,,,,3,Ontime,g,0,2.017,5,2,22,0,1,,,,,
,0.2,,,,,,,,,h.PNG,h,6110d7e62afb7dafbc68fbaf,2021-09-08_21h15.49.026,forced_choiceRT,2021.1.2,Win32,59.25925926,,,,,,,,3,Ontime,h,1,1.9578,5,3,23,2,1,,,,,
,0.82,,,,,,,,,j.PNG,j,6110d7e62afb7dafbc68fbaf,2021-09-08_21h15.49.026,forced_choiceRT,2021.1.2,Win32,59.25925926,,,,,,,,3,Ontime,j,1,2.0102,6,0,24,3,1,,,,,
,0.52,,,,,,,,,j.PNG,j,6110d7e62afb7dafbc68fbaf,2021-09-08_21h15.49.026,forced_choiceRT,2021.1.2,Win32,59.25925926,,,,,,,,3,Slow,j,1,2.1303,6,1,25,3,1,,,,,
,1.23,,,,,,,,,j.PNG,j,6110d7e62afb7dafbc68fbaf,2021-09-08_21h15.49.026,forced_choiceRT,2021.1.2,Win32,59.25925926,,,,,,,,3,Fast,j,1,1.8497,6,2,26,3,1,,,,,
,1.26,,,,,,,,,h.PNG,h,6110d7e62afb7dafbc68fbaf,2021-09-08_21h15.49.026,forced_choiceRT,2021.1.2,Win32,59.25925926,,,,,,,,3,Slow,h,1,2.2603,6,3,27,2,1,,,,,
,0.49,,,,,,,,,g.PNG,g,6110d7e62afb7dafbc68fbaf,2021-09-08_21h15.49.026,forced_choiceRT,2021.1.2,Win32,59.25925926,,,,,,,,3,Fast,g,1,1.8903,7,0,28,1,1,,,,,
,1.35,,,,,,,,,f.PNG,f,6110d7e62afb7dafbc68fbaf,2021-09-08_21h15.49.026,forced_choiceRT,2021.1.2,Win32,59.25925926,,,,,,,,3,Ontime,f,1,1.9731,7,1,29,0,1,,,,,
,1.71,,,,,,,,,f.PNG,f,6110d7e62afb7dafbc68fbaf,2021-09-08_21h15.49.026,forced_choiceRT,2021.1.2,Win32,59.25925926,,,,,,,,3,Slow,j,0,2.1399,7,2,30,0,1,,,,,
,1.48,,,,,,,,,g.PNG,g,6110d7e62afb7dafbc68fbaf,2021-09-08_21h15.49.026,forced_choiceRT,2021.1.2,Win32,59.25925926,,,,,,,,3,Slow,g,1,2.3096,7,3,31,1,1,,,,,
,1.89,,,,,,,,,g.PNG,g,6110d7e62afb7dafbc68fbaf,2021-09-08_21h15.49.026,forced_choiceRT,2021.1.2,Win32,59.25925926,,,,,,,,3,Slow,f,0,2.1181,8,0,32,1,1,,,,,
,1.83,,,,,,,,,h.PNG,h,6110d7e62afb7dafbc68fbaf,2021-09-08_21h15.49.026,forced_choiceRT,2021.1.2,Win32,59.25925926,,,,,,,,3,Ontime,h,1,2.0672,8,1,33,2,1,,,,,
,0.14,,,,,,,,,h.PNG,h,6110d7e62afb7dafbc68fbaf,2021-09-08_21h15.49.026,forced_choiceRT,2021.1.2,Win32,59.25925926,,,,,,,,3,Fast,h,1,1.8745,8,2,34,2,1,,,,,
,1.13,,,,,,,,,f.PNG,f,6110d7e62afb7dafbc68fbaf,2021-09-08_21h15.49.026,forced_choiceRT,2021.1.2,Win32,59.25925926,,,,,,,,3,Ontime,f,1,1.9889,8,3,35,0,1,,,,,
,0.51,,,,,,,,,h.PNG,h,6110d7e62afb7dafbc68fbaf,2021-09-08_21h15.49.026,forced_choiceRT,2021.1.2,Win32,59.25925926,,,,,,,,3,Ontime,h,1,2.0183,9,0,36,2,1,,,,,
,0.44,,,,,,,,,g.PNG,g,6110d7e62afb7dafbc68fbaf,2021-09-08_21h15.49.026,forced_choiceRT,2021.1.2,Win32,59.25925926,,,,,,,,3,Ontime,g,1,1.939,9,1,37,1,1,,,,,
,1.99,,,,,,,,,j.PNG,j,6110d7e62afb7dafbc68fbaf,2021-09-08_21h15.49.026,forced_choiceRT,2021.1.2,Win32,59.25925926,,,,,,,,3,Slow,j,1,2.8139,9,2,38,3,1,,,,,
,1.73,,,,,,,,,g.PNG,g,6110d7e62afb7dafbc68fbaf,2021-09-08_21h15.49.026,forced_choiceRT,2021.1.2,Win32,59.25925926,,,,,,,,3,Ontime,f,0,2.0014,9,3,39,1,1,,,,,
,,,,,,,,,,,,6110d7e62afb7dafbc68fbaf,2021-09-08_21h15.49.026,forced_choiceRT,2021.1.2,Win32,59.25925926,,,,,,,,,,,,,,,,,,2,0,2,0,1
,0.01,,,,,,,,,g.PNG,g,6110d7e62afb7dafbc68fbaf,2021-09-08_21h15.49.026,forced_choiceRT,2021.1.2,Win32,59.25925926,,,,,,,,4,Ontime,g,1,2.0959,0,0,0,1,1,,,,,
,1.41,,,,,,,,,f.PNG,f,6110d7e62afb7dafbc68fbaf,2021-09-08_21h15.49.026,forced_choiceRT,2021.1.2,Win32,59.25925926,,,,,,,,4,Slow,f,1,2.1205,0,1,1,0,1,,,,,
,1.72,,,,,,,,,f.PNG,f,6110d7e62afb7dafbc68fbaf,2021-09-08_21h15.49.026,forced_choiceRT,2021.1.2,Win32,59.25925926,,,,,,,,4,Ontime,g,0,1.9926,0,2,2,0,1,,,,,
,1.22,,,,,,,,,j.PNG,j,6110d7e62afb7dafbc68fbaf,2021-09-08_21h15.49.026,forced_choiceRT,2021.1.2,Win32,59.25925926,,,,,,,,4,Ontime,j,1,2.0271,0,3,3,3,1,,,,,
,1.72,,,,,,,,,g.PNG,g,6110d7e62afb7dafbc68fbaf,2021-09-08_21h15.49.026,forced_choiceRT,2021.1.2,Win32,59.25925926,,,,,,,,4,Slow,g,1,3.4485,1,0,4,1,1,,,,,
,1.68,,,,,,,,,f.PNG,f,6110d7e62afb7dafbc68fbaf,2021-09-08_21h15.49.026,forced_choiceRT,2021.1.2,Win32,59.25925926,,,,,,,,4,Slow,f,1,2.283,1,1,5,0,1,,,,,
,0.64,,,,,,,,,j.PNG,j,6110d7e62afb7dafbc68fbaf,2021-09-08_21h15.49.026,forced_choiceRT,2021.1.2,Win32,59.25925926,,,,,,,,4,Ontime,j,1,2.0096,1,2,6,3,1,,,,,
,1.73,,,,,,,,,j.PNG,j,6110d7e62afb7dafbc68fbaf,2021-09-08_21h15.49.026,forced_choiceRT,2021.1.2,Win32,59.25925926,,,,,,,,4,Slow,f,0,2.1688,1,3,7,3,1,,,,,
,0.98,,,,,,,,,g.PNG,g,6110d7e62afb7dafbc68fbaf,2021-09-08_21h15.49.026,forced_choiceRT,2021.1.2,Win32,59.25925926,,,,,,,,4,Ontime,g,1,1.9691,2,0,8,1,1,,,,,
,1.93,,,,,,,,,g.PNG,g,6110d7e62afb7dafbc68fbaf,2021-09-08_21h15.49.026,forced_choiceRT,2021.1.2,Win32,59.25925926,,,,,,,,4,Ontime,g,1,2.0669,2,1,9,1,1,,,,,
,0.49,,,,,,,,,f.PNG,f,6110d7e62afb7dafbc68fbaf,2021-09-08_21h15.49.026,forced_choiceRT,2021.1.2,Win32,59.25925926,,,,,,,,4,Ontime,f,1,1.972,2,2,10,0,1,,,,,
,1.28,,,,,,,,,g.PNG,g,6110d7e62afb7dafbc68fbaf,2021-09-08_21h15.49.026,forced_choiceRT,2021.1.2,Win32,59.25925926,,,,,,,,4,Ontime,g,1,2.0221,2,3,11,1,1,,,,,
,0.43,,,,,,,,,h.PNG,h,6110d7e62afb7dafbc68fbaf,2021-09-08_21h15.49.026,forced_choiceRT,2021.1.2,Win32,59.25925926,,,,,,,,4,Ontime,h,1,1.9312,3,0,12,2,1,,,,,
,1.96,,,,,,,,,f.PNG,f,6110d7e62afb7dafbc68fbaf,2021-09-08_21h15.49.026,forced_choiceRT,2021.1.2,Win32,59.25925926,,,,,,,,4,Ontime,f,1,1.9184,3,1,13,0,1,,,,,
,1.07,,,,,,,,,h.PNG,h,6110d7e62afb7dafbc68fbaf,2021-09-08_21h15.49.026,forced_choiceRT,2021.1.2,Win32,59.25925926,,,,,,,,4,Ontime,h,1,2.0411,3,2,14,2,1,,,,,
,1.04,,,,,,,,,f.PNG,f,6110d7e62afb7dafbc68fbaf,2021-09-08_21h15.49.026,forced_choiceRT,2021.1.2,Win32,59.25925926,,,,,,,,4,Ontime,f,1,1.9516,3,3,15,0,1,,,,,
,1.4,,,,,,,,,j.PNG,j,6110d7e62afb7dafbc68fbaf,2021-09-08_21h15.49.026,forced_choiceRT,2021.1.2,Win32,59.25925926,,,,,,,,4,Fast,g,0,1.887,4,0,16,3,1,,,,,
,0.35,,,,,,,,,h.PNG,h,6110d7e62afb7dafbc68fbaf,2021-09-08_21h15.49.026,forced_choiceRT,2021.1.2,Win32,59.25925926,,,,,,,,4,Ontime,h,1,1.9102,4,1,17,2,1,,,,,
,0.83,,,,,,,,,h.PNG,h,6110d7e62afb7dafbc68fbaf,2021-09-08_21h15.49.026,forced_choiceRT,2021.1.2,Win32,59.25925926,,,,,,,,4,Ontime,h,1,2.0649,4,2,18,2,1,,,,,
,0.91,,,,,,,,,j.PNG,j,6110d7e62afb7dafbc68fbaf,2021-09-08_21h15.49.026,forced_choiceRT,2021.1.2,Win32,59.25925926,,,,,,,,4,Slow,j,1,2.1168,4,3,19,3,1,,,,,
,1.25,,,,,,,,,g.PNG,g,6110d7e62afb7dafbc68fbaf,2021-09-08_21h15.49.026,forced_choiceRT,2021.1.2,Win32,59.25925926,,,,,,,,4,Ontime,g,1,2.037,5,0,20,1,1,,,,,
,1.36,,,,,,,,,h.PNG,h,6110d7e62afb7dafbc68fbaf,2021-09-08_21h15.49.026,forced_choiceRT,2021.1.2,Win32,59.25925926,,,,,,,,4,Ontime,g,0,2.0488,5,1,21,2,1,,,,,
,0.52,,,,,,,,,j.PNG,j,6110d7e62afb7dafbc68fbaf,2021-09-08_21h15.49.026,forced_choiceRT,2021.1.2,Win32,59.25925926,,,,,,,,4,Ontime,j,1,2.0574,5,2,22,3,1,,,,,
,1.19,,,,,,,,,f.PNG,f,6110d7e62afb7dafbc68fbaf,2021-09-08_21h15.49.026,forced_choiceRT,2021.1.2,Win32,59.25925926,,,,,,,,4,Ontime,f,1,2.0164,5,3,23,0,1,,,,,
,0.42,,,,,,,,,f.PNG,f,6110d7e62afb7dafbc68fbaf,2021-09-08_21h15.49.026,forced_choiceRT,2021.1.2,Win32,59.25925926,,,,,,,,4,Ontime,f,1,1.9996,6,0,24,0,1,,,,,
,0.01,,,,,,,,,j.PNG,j,6110d7e62afb7dafbc68fbaf,2021-09-08_21h15.49.026,forced_choiceRT,2021.1.2,Win32,59.25925926,,,,,,,,4,Fast,j,1,1.8368,6,1,25,3,1,,,,,
,1.15,,,,,,,,,g.PNG,g,6110d7e62afb7dafbc68fbaf,2021-09-08_21h15.49.026,forced_choiceRT,2021.1.2,Win32,59.25925926,,,,,,,,4,Ontime,g,1,1.9727,6,2,26,1,1,,,,,
,0.59,,,,,,,,,g.PNG,g,6110d7e62afb7dafbc68fbaf,2021-09-08_21h15.49.026,forced_choiceRT,2021.1.2,Win32,59.25925926,,,,,,,,4,Ontime,g,1,2.0067,6,3,27,1,1,,,,,
,0.63,,,,,,,,,j.PNG,j,6110d7e62afb7dafbc68fbaf,2021-09-08_21h15.49.026,forced_choiceRT,2021.1.2,Win32,59.25925926,,,,,,,,4,Ontime,j,1,2.0688,7,0,28,3,1,,,,,
,1.27,,,,,,,,,j.PNG,j,6110d7e62afb7dafbc68fbaf,2021-09-08_21h15.49.026,forced_choiceRT,2021.1.2,Win32,59.25925926,,,,,,,,4,Ontime,j,1,1.9916,7,1,29,3,1,,,,,
,1.7,,,,,,,,,f.PNG,f,6110d7e62afb7dafbc68fbaf,2021-09-08_21h15.49.026,forced_choiceRT,2021.1.2,Win32,59.25925926,,,,,,,,4,Ontime,f,1,2.0248,7,2,30,0,1,,,,,
,1.52,,,,,,,,,g.PNG,g,6110d7e62afb7dafbc68fbaf,2021-09-08_21h15.49.026,forced_choiceRT,2021.1.2,Win32,59.25925926,,,,,,,,4,Fast,g,1,1.8588,7,3,31,1,1,,,,,
,1.52,,,,,,,,,h.PNG,h,6110d7e62afb7dafbc68fbaf,2021-09-08_21h15.49.026,forced_choiceRT,2021.1.2,Win32,59.25925926,,,,,,,,4,Slow,j,0,2.1642,8,0,32,2,1,,,,,
,1.7,,,,,,,,,g.PNG,g,6110d7e62afb7dafbc68fbaf,2021-09-08_21h15.49.026,forced_choiceRT,2021.1.2,Win32,59.25925926,,,,,,,,4,Ontime,h,0,2.0996,8,1,33,1,1,,,,,
,0.73,,,,,,,,,h.PNG,h,6110d7e62afb7dafbc68fbaf,2021-09-08_21h15.49.026,forced_choiceRT,2021.1.2,Win32,59.25925926,,,,,,,,4,Ontime,h,1,1.9981,8,2,34,2,1,,,,,
,0.53,,,,,,,,,h.PNG,h,6110d7e62afb7dafbc68fbaf,2021-09-08_21h15.49.026,forced_choiceRT,2021.1.2,Win32,59.25925926,,,,,,,,4,Ontime,h,1,1.9862,8,3,35,2,1,,,,,
,0.55,,,,,,,,,f.PNG,f,6110d7e62afb7dafbc68fbaf,2021-09-08_21h15.49.026,forced_choiceRT,2021.1.2,Win32,59.25925926,,,,,,,,4,Ontime,f,1,2.0877,9,0,36,0,1,,,,,
,0.05,,,,,,,,,h.PNG,h,6110d7e62afb7dafbc68fbaf,2021-09-08_21h15.49.026,forced_choiceRT,2021.1.2,Win32,59.25925926,,,,,,,,4,Fast,h,1,1.8935,9,1,37,2,1,,,,,
,0.01,,,,,,,,,h.PNG,h,6110d7e62afb7dafbc68fbaf,2021-09-08_21h15.49.026,forced_choiceRT,2021.1.2,Win32,59.25925926,,,,,,,,4,Ontime,h,1,1.9439,9,2,38,2,1,,,,,
,1.08,,,,,,,,,j.PNG,j,6110d7e62afb7dafbc68fbaf,2021-09-08_21h15.49.026,forced_choiceRT,2021.1.2,Win32,59.25925926,,,,,,,,4,Slow,j,1,2.1401,9,3,39,3,1,,,,,
,,,,,,,,,,,,6110d7e62afb7dafbc68fbaf,2021-09-08_21h15.49.026,forced_choiceRT,2021.1.2,Win32,59.25925926,,,,,,,,,,,,,,,,,,3,0,3,0,1
,0.1,,,,,,,,,g.PNG,g,6110d7e62afb7dafbc68fbaf,2021-09-08_21h15.49.026,forced_choiceRT,2021.1.2,Win32,59.25925926,,,,,,,,5,Fast,g,1,1.8146,0,0,0,1,1,,,,,
,0.45,,,,,,,,,h.PNG,h,6110d7e62afb7dafbc68fbaf,2021-09-08_21h15.49.026,forced_choiceRT,2021.1.2,Win32,59.25925926,,,,,,,,5,Slow,h,1,2.131,0,1,1,2,1,,,,,
,1.69,,,,,,,,,h.PNG,h,6110d7e62afb7dafbc68fbaf,2021-09-08_21h15.49.026,forced_choiceRT,2021.1.2,Win32,59.25925926,,,,,,,,5,Ontime,f,0,1.9104,0,2,2,2,1,,,,,
,1.07,,,,,,,,,h.PNG,h,6110d7e62afb7dafbc68fbaf,2021-09-08_21h15.49.026,forced_choiceRT,2021.1.2,Win32,59.25925926,,,,,,,,5,Ontime,h,1,1.9685,0,3,3,2,1,,,,,
,0.55,,,,,,,,,h.PNG,h,6110d7e62afb7dafbc68fbaf,2021-09-08_21h15.49.026,forced_choiceRT,2021.1.2,Win32,59.25925926,,,,,,,,5,Ontime,h,1,1.9729,1,0,4,2,1,,,,,
,1.05,,,,,,,,,g.PNG,g,6110d7e62afb7dafbc68fbaf,2021-09-08_21h15.49.026,forced_choiceRT,2021.1.2,Win32,59.25925926,,,,,,,,5,Ontime,g,1,1.9234,1,1,5,1,1,,,,,
,1.78,,,,,,,,,f.PNG,f,6110d7e62afb7dafbc68fbaf,2021-09-08_21h15.49.026,forced_choiceRT,2021.1.2,Win32,59.25925926,,,,,,,,5,Ontime,j,0,2.0116,1,2,6,0,1,,,,,
,0.98,,,,,,,,,f.PNG,f,6110d7e62afb7dafbc68fbaf,2021-09-08_21h15.49.026,forced_choiceRT,2021.1.2,Win32,59.25925926,,,,,,,,5,Ontime,f,1,2.0651,1,3,7,0,1,,,,,
,0.85,,,,,,,,,h.PNG,h,6110d7e62afb7dafbc68fbaf,2021-09-08_21h15.49.026,forced_choiceRT,2021.1.2,Win32,59.25925926,,,,,,,,5,Fast,h,1,1.6241,2,0,8,2,1,,,,,
,0.78,,,,,,,,,h.PNG,h,6110d7e62afb7dafbc68fbaf,2021-09-08_21h15.49.026,forced_choiceRT,2021.1.2,Win32,59.25925926,,,,,,,,5,Ontime,g,0,1.919,2,1,9,2,1,,,,,
,1.12,,,,,,,,,g.PNG,g,6110d7e62afb7dafbc68fbaf,2021-09-08_21h15.49.026,forced_choiceRT,2021.1.2,Win32,59.25925926,,,,,,,,5,Fast,g,1,1.8941,2,2,10,1,1,,,,,
,1.86,,,,,,,,,f.PNG,f,6110d7e62afb7dafbc68fbaf,2021-09-08_21h15.49.026,forced_choiceRT,2021.1.2,Win32,59.25925926,,,,,,,,5,Ontime,g,0,2.0977,2,3,11,0,1,,,,,
,0.93,,,,,,,,,h.PNG,h,6110d7e62afb7dafbc68fbaf,2021-09-08_21h15.49.026,forced_choiceRT,2021.1.2,Win32,59.25925926,,,,,,,,5,Ontime,h,1,1.9693,3,0,12,2,1,,,,,
,1.25,,,,,,,,,j.PNG,j,6110d7e62afb7dafbc68fbaf,2021-09-08_21h15.49.026,forced_choiceRT,2021.1.2,Win32,59.25925926,,,,,,,,5,Ontime,j,1,2.0039,3,1,13,3,1,,,,,
,0.49,,,,,,,,,f.PNG,f,6110d7e62afb7dafbc68fbaf,2021-09-08_21h15.49.026,forced_choiceRT,2021.1.2,Win32,59.25925926,,,,,,,,5,Ontime,f,1,2.0733,3,2,14,0,1,,,,,
,1.27,,,,,,,,,f.PNG,f,6110d7e62afb7dafbc68fbaf,2021-09-08_21h15.49.026,forced_choiceRT,2021.1.2,Win32,59.25925926,,,,,,,,5,Slow,f,1,2.1471,3,3,15,0,1,,,,,
,0.13,,,,,,,,,f.PNG,f,6110d7e62afb7dafbc68fbaf,2021-09-08_21h15.49.026,forced_choiceRT,2021.1.2,Win32,59.25925926,,,,,,,,5,Fast,f,1,1.852,4,0,16,0,1,,,,,
,1.45,,,,,,,,,j.PNG,j,6110d7e62afb7dafbc68fbaf,2021-09-08_21h15.49.026,forced_choiceRT,2021.1.2,Win32,59.25925926,,,,,,,,5,Slow,j,1,2.1594,4,1,17,3,1,,,,,
,1.83,,,,,,,,,f.PNG,f,6110d7e62afb7dafbc68fbaf,2021-09-08_21h15.49.026,forced_choiceRT,2021.1.2,Win32,59.25925926,,,,,,,,5,Ontime,h,0,1.9075,4,2,18,0,1,,,,,
,0.12,,,,,,,,,j.PNG,j,6110d7e62afb7dafbc68fbaf,2021-09-08_21h15.49.026,forced_choiceRT,2021.1.2,Win32,59.25925926,,,,,,,,5,Ontime,j,1,2.005,4,3,19,3,1,,,,,
,1.05,,,,,,,,,f.PNG,f,6110d7e62afb7dafbc68fbaf,2021-09-08_21h15.49.026,forced_choiceRT,2021.1.2,Win32,59.25925926,,,,,,,,5,Ontime,f,1,2.0774,5,0,20,0,1,,,,,
,1.73,,,,,,,,,h.PNG,h,6110d7e62afb7dafbc68fbaf,2021-09-08_21h15.49.026,forced_choiceRT,2021.1.2,Win32,59.25925926,,,,,,,,5,Ontime,g,0,1.9573,5,1,21,2,1,,,,,
,1.8,,,,,,,,,g.PNG,g,6110d7e62afb7dafbc68fbaf,2021-09-08_21h15.49.026,forced_choiceRT,2021.1.2,Win32,59.25925926,,,,,,,,5,Ontime,f,0,2.0689,5,2,22,1,1,,,,,
,1.4,,,,,,,,,g.PNG,g,6110d7e62afb7dafbc68fbaf,2021-09-08_21h15.49.026,forced_choiceRT,2021.1.2,Win32,59.25925926,,,,,,,,5,Ontime,g,1,1.9697,5,3,23,1,1,,,,,
,0.95,,,,,,,,,j.PNG,j,6110d7e62afb7dafbc68fbaf,2021-09-08_21h15.49.026,forced_choiceRT,2021.1.2,Win32,59.25925926,,,,,,,,5,Ontime,j,1,1.9911,6,0,24,3,1,,,,,
,1.91,,,,,,,,,g.PNG,g,6110d7e62afb7dafbc68fbaf,2021-09-08_21h15.49.026,forced_choiceRT,2021.1.2,Win32,59.25925926,,,,,,,,5,Ontime,h,0,1.9496,6,1,25,1,1,,,,,
,0,,,,,,,,,j.PNG,j,6110d7e62afb7dafbc68fbaf,2021-09-08_21h15.49.026,forced_choiceRT,2021.1.2,Win32,59.25925926,,,,,,,,5,Ontime,j,1,1.9893,6,2,26,3,1,,,,,
,0.06,,,,,,,,,g.PNG,g,6110d7e62afb7dafbc68fbaf,2021-09-08_21h15.49.026,forced_choiceRT,2021.1.2,Win32,59.25925926,,,,,,,,5,Fast,g,1,1.8874,6,3,27,1,1,,,,,
,1.73,,,,,,,,,g.PNG,g,6110d7e62afb7dafbc68fbaf,2021-09-08_21h15.49.026,forced_choiceRT,2021.1.2,Win32,59.25925926,,,,,,,,5,Ontime,g,1,2,7,0,28,1,1,,,,,
,1.6,,,,,,,,,j.PNG,j,6110d7e62afb7dafbc68fbaf,2021-09-08_21h15.49.026,forced_choiceRT,2021.1.2,Win32,59.25925926,,,,,,,,5,Ontime,h,0,1.938,7,1,29,3,1,,,,,
,1.28,,,,,,,,,j.PNG,j,6110d7e62afb7dafbc68fbaf,2021-09-08_21h15.49.026,forced_choiceRT,2021.1.2,Win32,59.25925926,,,,,,,,5,Ontime,j,1,1.9554,7,2,30,3,1,,,,,
,0.03,,,,,,,,,f.PNG,f,6110d7e62afb7dafbc68fbaf,2021-09-08_21h15.49.026,forced_choiceRT,2021.1.2,Win32,59.25925926,,,,,,,,5,Ontime,f,1,2.0562,7,3,31,0,1,,,,,
,1.45,,,,,,,,,h.PNG,h,6110d7e62afb7dafbc68fbaf,2021-09-08_21h15.49.026,forced_choiceRT,2021.1.2,Win32,59.25925926,,,,,,,,5,Ontime,g,0,2.0995,8,0,32,2,1,,,,,
,1.12,,,,,,,,,g.PNG,g,6110d7e62afb7dafbc68fbaf,2021-09-08_21h15.49.026,forced_choiceRT,2021.1.2,Win32,59.25925926,,,,,,,,5,Ontime,g,1,1.9781,8,1,33,1,1,,,,,
,0.05,,,,,,,,,h.PNG,h,6110d7e62afb7dafbc68fbaf,2021-09-08_21h15.49.026,forced_choiceRT,2021.1.2,Win32,59.25925926,,,,,,,,5,Ontime,h,1,1.9252,8,2,34,2,1,,,,,
,0.95,,,,,,,,,f.PNG,f,6110d7e62afb7dafbc68fbaf,2021-09-08_21h15.49.026,forced_choiceRT,2021.1.2,Win32,59.25925926,,,,,,,,5,Ontime,f,1,1.942,8,3,35,0,1,,,,,
,0.62,,,,,,,,,g.PNG,g,6110d7e62afb7dafbc68fbaf,2021-09-08_21h15.49.026,forced_choiceRT,2021.1.2,Win32,59.25925926,,,,,,,,5,Ontime,g,1,2.0154,9,0,36,1,1,,,,,
,0.35,,,,,,,,,j.PNG,j,6110d7e62afb7dafbc68fbaf,2021-09-08_21h15.49.026,forced_choiceRT,2021.1.2,Win32,59.25925926,,,,,,,,5,Ontime,j,1,2.076,9,1,37,3,1,,,,,
,0.63,,,,,,,,,j.PNG,j,6110d7e62afb7dafbc68fbaf,2021-09-08_21h15.49.026,forced_choiceRT,2021.1.2,Win32,59.25925926,,,,,,,,5,Fast,g,0,1.8091,9,2,38,3,1,,,,,
,0.73,,,,,,,,,j.PNG,j,6110d7e62afb7dafbc68fbaf,2021-09-08_21h15.49.026,forced_choiceRT,2021.1.2,Win32,59.25925926,,,,,,,,5,Slow,j,1,2.1055,9,3,39,3,1,,,,,
,,,,,,,,,,,,6110d7e62afb7dafbc68fbaf,2021-09-08_21h15.49.026,forced_choiceRT,2021.1.2,Win32,59.25925926,,,,,,,,,,,,,,,,,,4,0,4,0,1
,0.79,,,,,,,,,h.PNG,h,6110d7e62afb7dafbc68fbaf,2021-09-08_21h15.49.026,forced_choiceRT,2021.1.2,Win32,59.25925926,,,,,,,,6,Slow,h,1,2.2695,0,0,0,2,1,,,,,
,1.18,,,,,,,,,h.PNG,h,6110d7e62afb7dafbc68fbaf,2021-09-08_21h15.49.026,forced_choiceRT,2021.1.2,Win32,59.25925926,,,,,,,,6,Ontime,h,1,1.9118,0,1,1,2,1,,,,,
,1.58,,,,,,,,,h.PNG,h,6110d7e62afb7dafbc68fbaf,2021-09-08_21h15.49.026,forced_choiceRT,2021.1.2,Win32,59.25925926,,,,,,,,6,Ontime,h,1,2.0515,0,2,2,2,1,,,,,
,0.68,,,,,,,,,j.PNG,j,6110d7e62afb7dafbc68fbaf,2021-09-08_21h15.49.026,forced_choiceRT,2021.1.2,Win32,59.25925926,,,,,,,,6,Ontime,j,1,2.0177,0,3,3,3,1,,,,,
,1.25,,,,,,,,,j.PNG,j,6110d7e62afb7dafbc68fbaf,2021-09-08_21h15.49.026,forced_choiceRT,2021.1.2,Win32,59.25925926,,,,,,,,6,Ontime,j,1,1.9442,1,0,4,3,1,,,,,
,1.35,,,,,,,,,f.PNG,f,6110d7e62afb7dafbc68fbaf,2021-09-08_21h15.49.026,forced_choiceRT,2021.1.2,Win32,59.25925926,,,,,,,,6,Slow,f,1,2.1331,1,1,5,0,1,,,,,
,1.56,,,,,,,,,f.PNG,f,6110d7e62afb7dafbc68fbaf,2021-09-08_21h15.49.026,forced_choiceRT,2021.1.2,Win32,59.25925926,,,,,,,,6,Ontime,f,1,2.0278,1,2,6,0,1,,,,,
,0.89,,,,,,,,,g.PNG,g,6110d7e62afb7dafbc68fbaf,2021-09-08_21h15.49.026,forced_choiceRT,2021.1.2,Win32,59.25925926,,,,,,,,6,Ontime,g,1,1.9706,1,3,7,1,1,,,,,
,1.35,,,,,,,,,f.PNG,f,6110d7e62afb7dafbc68fbaf,2021-09-08_21h15.49.026,forced_choiceRT,2021.1.2,Win32,59.25925926,,,,,,,,6,Ontime,f,1,2.0197,2,0,8,0,1,,,,,
,1.52,,,,,,,,,f.PNG,f,6110d7e62afb7dafbc68fbaf,2021-09-08_21h15.49.026,forced_choiceRT,2021.1.2,Win32,59.25925926,,,,,,,,6,Ontime,f,1,2.091,2,1,9,0,1,,,,,
,0.44,,,,,,,,,g.PNG,g,6110d7e62afb7dafbc68fbaf,2021-09-08_21h15.49.026,forced_choiceRT,2021.1.2,Win32,59.25925926,,,,,,,,6,Ontime,g,1,2.0263,2,2,10,1,1,,,,,
,0.26,,,,,,,,,g.PNG,g,6110d7e62afb7dafbc68fbaf,2021-09-08_21h15.49.026,forced_choiceRT,2021.1.2,Win32,59.25925926,,,,,,,,6,Ontime,g,1,2.0952,2,3,11,1,1,,,,,
,1.8,,,,,,,,,f.PNG,f,6110d7e62afb7dafbc68fbaf,2021-09-08_21h15.49.026,forced_choiceRT,2021.1.2,Win32,59.25925926,,,,,,,,6,Ontime,g,0,2.017,3,0,12,0,1,,,,,
,0.45,,,,,,,,,h.PNG,h,6110d7e62afb7dafbc68fbaf,2021-09-08_21h15.49.026,forced_choiceRT,2021.1.2,Win32,59.25925926,,,,,,,,6,Ontime,h,1,2.0367,3,1,13,2,1,,,,,
,0.86,,,,,,,,,f.PNG,f,6110d7e62afb7dafbc68fbaf,2021-09-08_21h15.49.026,forced_choiceRT,2021.1.2,Win32,59.25925926,,,,,,,,6,Ontime,f,1,2.05,3,2,14,0,1,,,,,
,0.22,,,,,,,,,h.PNG,h,6110d7e62afb7dafbc68fbaf,2021-09-08_21h15.49.026,forced_choiceRT,2021.1.2,Win32,59.25925926,,,,,,,,6,Ontime,h,1,1.9405,3,3,15,2,1,,,,,
,1.7,,,,,,,,,g.PNG,g,6110d7e62afb7dafbc68fbaf,2021-09-08_21h15.49.026,forced_choiceRT,2021.1.2,Win32,59.25925926,,,,,,,,6,Ontime,f,0,1.9883,4,0,16,1,1,,,,,
,0.37,,,,,,,,,h.PNG,h,6110d7e62afb7dafbc68fbaf,2021-09-08_21h15.49.026,forced_choiceRT,2021.1.2,Win32,59.25925926,,,,,,,,6,Ontime,h,1,1.9213,4,1,17,2,1,,,,,
,1.84,,,,,,,,,h.PNG,h,6110d7e62afb7dafbc68fbaf,2021-09-08_21h15.49.026,forced_choiceRT,2021.1.2,Win32,59.25925926,,,,,,,,6,Ontime,g,0,2.0754,4,2,18,2,1,,,,,
,0.65,,,,,,,,,j.PNG,j,6110d7e62afb7dafbc68fbaf,2021-09-08_21h15.49.026,forced_choiceRT,2021.1.2,Win32,59.25925926,,,,,,,,6,Slow,j,1,2.1093,4,3,19,3,1,,,,,
,0.99,,,,,,,,,g.PNG,g,6110d7e62afb7dafbc68fbaf,2021-09-08_21h15.49.026,forced_choiceRT,2021.1.2,Win32,59.25925926,,,,,,,,6,Ontime,g,1,1.9796,5,0,20,1,1,,,,,
,0.8,,,,,,,,,j.PNG,j,6110d7e62afb7dafbc68fbaf,2021-09-08_21h15.49.026,forced_choiceRT,2021.1.2,Win32,59.25925926,,,,,,,,6,Ontime,j,1,2.0591,5,1,21,3,1,,,,,
,0.61,,,,,,,,,j.PNG,j,6110d7e62afb7dafbc68fbaf,2021-09-08_21h15.49.026,forced_choiceRT,2021.1.2,Win32,59.25925926,,,,,,,,6,Ontime,j,1,2.0681,5,2,22,3,1,,,,,
,0.38,,,,,,,,,j.PNG,j,6110d7e62afb7dafbc68fbaf,2021-09-08_21h15.49.026,forced_choiceRT,2021.1.2,Win32,59.25925926,,,,,,,,6,Ontime,j,1,2.0231,5,3,23,3,1,,,,,
,0.67,,,,,,,,,j.PNG,j,6110d7e62afb7dafbc68fbaf,2021-09-08_21h15.49.026,forced_choiceRT,2021.1.2,Win32,59.25925926,,,,,,,,6,Ontime,j,1,2.0994,6,0,24,3,1,,,,,
,0.94,,,,,,,,,j.PNG,j,6110d7e62afb7dafbc68fbaf,2021-09-08_21h15.49.026,forced_choiceRT,2021.1.2,Win32,59.25925926,,,,,,,,6,Ontime,j,1,1.9858,6,1,25,3,1,,,,,
,1.7,,,,,,,,,h.PNG,h,6110d7e62afb7dafbc68fbaf,2021-09-08_21h15.49.026,forced_choiceRT,2021.1.2,Win32,59.25925926,,,,,,,,6,Slow,f,0,2.1207,6,2,26,2,1,,,,,
,1.46,,,,,,,,,j.PNG,j,6110d7e62afb7dafbc68fbaf,2021-09-08_21h15.49.026,forced_choiceRT,2021.1.2,Win32,59.25925926,,,,,,,,6,Ontime,h,0,1.9404,6,3,27,3,1,,,,,
,1.58,,,,,,,,,g.PNG,g,6110d7e62afb7dafbc68fbaf,2021-09-08_21h15.49.026,forced_choiceRT,2021.1.2,Win32,59.25925926,,,,,,,,6,Ontime,j,0,1.9239,7,0,28,1,1,,,,,
,0.79,,,,,,,,,g.PNG,g,6110d7e62afb7dafbc68fbaf,2021-09-08_21h15.49.026,forced_choiceRT,2021.1.2,Win32,59.25925926,,,,,,,,6,Ontime,g,1,1.9005,7,1,29,1,1,,,,,
,0.55,,,,,,,,,g.PNG,g,6110d7e62afb7dafbc68fbaf,2021-09-08_21h15.49.026,forced_choiceRT,2021.1.2,Win32,59.25925926,,,,,,,,6,Fast,g,1,1.7501,7,2,30,1,1,,,,,
,1.94,,,,,,,,,f.PNG,f,6110d7e62afb7dafbc68fbaf,2021-09-08_21h15.49.026,forced_choiceRT,2021.1.2,Win32,59.25925926,,,,,,,,6,Fast,g,0,1.8089,7,3,31,0,1,,,,,
,0.86,,,,,,,,,f.PNG,f,6110d7e62afb7dafbc68fbaf,2021-09-08_21h15.49.026,forced_choiceRT,2021.1.2,Win32,59.25925926,,,,,,,,6,Ontime,f,1,1.9914,8,0,32,0,1,,,,,
,0.06,,,,,,,,,h.PNG,h,6110d7e62afb7dafbc68fbaf,2021-09-08_21h15.49.026,forced_choiceRT,2021.1.2,Win32,59.25925926,,,,,,,,6,Ontime,h,1,1.9836,8,1,33,2,1,,,,,
,0.81,,,,,,,,,j.PNG,j,6110d7e62afb7dafbc68fbaf,2021-09-08_21h15.49.026,forced_choiceRT,2021.1.2,Win32,59.25925926,,,,,,,,6,Ontime,j,1,2.05,8,2,34,3,1,,,,,
,1.95,,,,,,,,,g.PNG,g,6110d7e62afb7dafbc68fbaf,2021-09-08_21h15.49.026,forced_choiceRT,2021.1.2,Win32,59.25925926,,,,,,,,6,Ontime,f,0,2.0245,8,3,35,1,1,,,,,
,0.93,,,,,,,,,f.PNG,f,6110d7e62afb7dafbc68fbaf,2021-09-08_21h15.49.026,forced_choiceRT,2021.1.2,Win32,59.25925926,,,,,,,,6,Ontime,f,1,1.9501,9,0,36,0,1,,,,,
,1.53,,,,,,,,,h.PNG,h,6110d7e62afb7dafbc68fbaf,2021-09-08_21h15.49.026,forced_choiceRT,2021.1.2,Win32,59.25925926,,,,,,,,6,Fast,f,0,1.8793,9,1,37,2,1,,,,,
,1,,,,,,,,,f.PNG,f,6110d7e62afb7dafbc68fbaf,2021-09-08_21h15.49.026,forced_choiceRT,2021.1.2,Win32,59.25925926,,,,,,,,6,Ontime,f,1,1.9014,9,2,38,0,1,,,,,
,0.86,,,,,,,,,g.PNG,g,6110d7e62afb7dafbc68fbaf,2021-09-08_21h15.49.026,forced_choiceRT,2021.1.2,Win32,59.25925926,,,,,,,,6,Fast,g,1,1.8515,9,3,39,1,1,,,,,
,,,,,,,,,,,,6110d7e62afb7dafbc68fbaf,2021-09-08_21h15.49.026,forced_choiceRT,2021.1.2,Win32,59.25925926,,,,,,,,,,,,,,,,,,5,0,5,0,1
,1.49,,,,,,,,,j.PNG,j,6110d7e62afb7dafbc68fbaf,2021-09-08_21h15.49.026,forced_choiceRT,2021.1.2,Win32,59.25925926,,,,,,,,7,Ontime,g,0,1.917,0,0,0,3,1,,,,,
,1.4,,,,,,,,,f.PNG,f,6110d7e62afb7dafbc68fbaf,2021-09-08_21h15.49.026,forced_choiceRT,2021.1.2,Win32,59.25925926,,,,,,,,7,Ontime,f,1,1.9234,0,1,1,0,1,,,,,
,1.61,,,,,,,,,g.PNG,g,6110d7e62afb7dafbc68fbaf,2021-09-08_21h15.49.026,forced_choiceRT,2021.1.2,Win32,59.25925926,,,,,,,,7,Fast,f,0,1.8734,0,2,2,1,1,,,,,
,1.31,,,,,,,,,f.PNG,f,6110d7e62afb7dafbc68fbaf,2021-09-08_21h15.49.026,forced_choiceRT,2021.1.2,Win32,59.25925926,,,,,,,,7,Fast,g,0,1.8169,0,3,3,0,1,,,,,
,1.8,,,,,,,,,j.PNG,j,6110d7e62afb7dafbc68fbaf,2021-09-08_21h15.49.026,forced_choiceRT,2021.1.2,Win32,59.25925926,,,,,,,,7,Fast,f,0,1.8336,1,0,4,3,1,,,,,
,0.41,,,,,,,,,g.PNG,g,6110d7e62afb7dafbc68fbaf,2021-09-08_21h15.49.026,forced_choiceRT,2021.1.2,Win32,59.25925926,,,,,,,,7,Ontime,g,1,1.9921,1,1,5,1,1,,,,,
,0.9,,,,,,,,,f.PNG,f,6110d7e62afb7dafbc68fbaf,2021-09-08_21h15.49.026,forced_choiceRT,2021.1.2,Win32,59.25925926,,,,,,,,7,Ontime,f,1,2.0612,1,2,6,0,1,,,,,
,0.17,,,,,,,,,f.PNG,f,6110d7e62afb7dafbc68fbaf,2021-09-08_21h15.49.026,forced_choiceRT,2021.1.2,Win32,59.25925926,,,,,,,,7,Ontime,f,1,2.0391,1,3,7,0,1,,,,,
,0.6,,,,,,,,,h.PNG,h,6110d7e62afb7dafbc68fbaf,2021-09-08_21h15.49.026,forced_choiceRT,2021.1.2,Win32,59.25925926,,,,,,,,7,Ontime,h,1,1.9838,2,0,8,2,1,,,,,
,0.52,,,,,,,,,h.PNG,h,6110d7e62afb7dafbc68fbaf,2021-09-08_21h15.49.026,forced_choiceRT,2021.1.2,Win32,59.25925926,,,,,,,,7,Ontime,h,1,2.008,2,1,9,2,1,,,,,
,1.59,,,,,,,,,f.PNG,f,6110d7e62afb7dafbc68fbaf,2021-09-08_21h15.49.026,forced_choiceRT,2021.1.2,Win32,59.25925926,,,,,,,,7,Slow,f,1,2.1406,2,2,10,0,1,,,,,
,0.28,,,,,,,,,f.PNG,f,6110d7e62afb7dafbc68fbaf,2021-09-08_21h15.49.026,forced_choiceRT,2021.1.2,Win32,59.25925926,,,,,,,,7,Ontime,f,1,1.9566,2,3,11,0,1,,,,,
,0.14,,,,,,,,,g.PNG,g,6110d7e62afb7dafbc68fbaf,2021-09-08_21h15.49.026,forced_choiceRT,2021.1.2,Win32,59.25925926,,,,,,,,7,Ontime,g,1,1.9686,3,0,12,1,1,,,,,
,0.59,,,,,,,,,g.PNG,g,6110d7e62afb7dafbc68fbaf,2021-09-08_21h15.49.026,forced_choiceRT,2021.1.2,Win32,59.25925926,,,,,,,,7,Ontime,g,1,2.0667,3,1,13,1,1,,,,,
,1.69,,,,,,,,,h.PNG,h,6110d7e62afb7dafbc68fbaf,2021-09-08_21h15.49.026,forced_choiceRT,2021.1.2,Win32,59.25925926,,,,,,,,7,Ontime,g,0,2.0889,3,2,14,2,1,,,,,
,0.01,,,,,,,,,h.PNG,h,6110d7e62afb7dafbc68fbaf,2021-09-08_21h15.49.026,forced_choiceRT,2021.1.2,Win32,59.25925926,,,,,,,,7,Ontime,h,1,2.0165,3,3,15,2,1,,,,,
,0.57,,,,,,,,,g.PNG,g,6110d7e62afb7dafbc68fbaf,2021-09-08_21h15.49.026,forced_choiceRT,2021.1.2,Win32,59.25925926,,,,,,,,7,Ontime,g,1,1.9668,4,0,16,1,1,,,,,
,1.49,,,,,,,,,j.PNG,j,6110d7e62afb7dafbc68fbaf,2021-09-08_21h15.49.026,forced_choiceRT,2021.1.2,Win32,59.25925926,,,,,,,,7,Slow,j,1,2.1864,4,1,17,3,1,,,,,
,0.28,,,,,,,,,h.PNG,h,6110d7e62afb7dafbc68fbaf,2021-09-08_21h15.49.026,forced_choiceRT,2021.1.2,Win32,59.25925926,,,,,,,,7,Ontime,h,1,2.0502,4,2,18,2,1,,,,,
,0.53,,,,,,,,,g.PNG,g,6110d7e62afb7dafbc68fbaf,2021-09-08_21h15.49.026,forced_choiceRT,2021.1.2,Win32,59.25925926,,,,,,,,7,Ontime,g,1,2.062,4,3,19,1,1,,,,,
,1.59,,,,,,,,,j.PNG,j,6110d7e62afb7dafbc68fbaf,2021-09-08_21h15.49.026,forced_choiceRT,2021.1.2,Win32,59.25925926,,,,,,,,7,Slow,j,1,2.3329,5,0,20,3,1,,,,,
,0.39,,,,,,,,,j.PNG,j,6110d7e62afb7dafbc68fbaf,2021-09-08_21h15.49.026,forced_choiceRT,2021.1.2,Win32,59.25925926,,,,,,,,7,Ontime,j,1,1.9914,5,1,21,3,1,,,,,
,1.44,,,,,,,,,f.PNG,f,6110d7e62afb7dafbc68fbaf,2021-09-08_21h15.49.026,forced_choiceRT,2021.1.2,Win32,59.25925926,,,,,,,,7,Ontime,h,0,1.9013,5,2,22,0,1,,,,,
,1.77,,,,,,,,,h.PNG,h,6110d7e62afb7dafbc68fbaf,2021-09-08_21h15.49.026,forced_choiceRT,2021.1.2,Win32,59.25925926,,,,,,,,7,Ontime,f,0,2.0072,5,3,23,2,1,,,,,
,0.52,,,,,,,,,h.PNG,h,6110d7e62afb7dafbc68fbaf,2021-09-08_21h15.49.026,forced_choiceRT,2021.1.2,Win32,59.25925926,,,,,,,,7,Ontime,h,1,2.0502,6,0,24,2,1,,,,,
,1.26,,,,,,,,,g.PNG,g,6110d7e62afb7dafbc68fbaf,2021-09-08_21h15.49.026,forced_choiceRT,2021.1.2,Win32,59.25925926,,,,,,,,7,Slow,g,1,2.1879,6,1,25,1,1,,,,,
,1.18,,,,,,,,,j.PNG,j,6110d7e62afb7dafbc68fbaf,2021-09-08_21h15.49.026,forced_choiceRT,2021.1.2,Win32,59.25925926,,,,,,,,7,Slow,j,1,2.1223,6,2,26,3,1,,,,,
,1.46,,,,,,,,,h.PNG,h,6110d7e62afb7dafbc68fbaf,2021-09-08_21h15.49.026,forced_choiceRT,2021.1.2,Win32,59.25925926,,,,,,,,7,Ontime,f,0,1.9061,6,3,27,2,1,,,,,
,0.87,,,,,,,,,h.PNG,h,6110d7e62afb7dafbc68fbaf,2021-09-08_21h15.49.026,forced_choiceRT,2021.1.2,Win32,59.25925926,,,,,,,,7,Ontime,g,0,1.9528,7,0,28,2,1,,,,,
,1.2,,,,,,,,,j.PNG,j,6110d7e62afb7dafbc68fbaf,2021-09-08_21h15.49.026,forced_choiceRT,2021.1.2,Win32,59.25925926,,,,,,,,7,Fast,j,1,1.8761,7,1,29,3,1,,,,,
,0.01,,,,,,,,,j.PNG,j,6110d7e62afb7dafbc68fbaf,2021-09-08_21h15.49.026,forced_choiceRT,2021.1.2,Win32,59.25925926,,,,,,,,7,Ontime,j,1,1.9285,7,2,30,3,1,,,,,
,1.12,,,,,,,,,j.PNG,j,6110d7e62afb7dafbc68fbaf,2021-09-08_21h15.49.026,forced_choiceRT,2021.1.2,Win32,59.25925926,,,,,,,,7,Fast,j,1,1.7785,7,3,31,3,1,,,,,
,1.05,,,,,,,,,g.PNG,g,6110d7e62afb7dafbc68fbaf,2021-09-08_21h15.49.026,forced_choiceRT,2021.1.2,Win32,59.25925926,,,,,,,,7,Ontime,g,1,2.0204,8,0,32,1,1,,,,,
,0.91,,,,,,,,,g.PNG,g,6110d7e62afb7dafbc68fbaf,2021-09-08_21h15.49.026,forced_choiceRT,2021.1.2,Win32,59.25925926,,,,,,,,7,Ontime,g,1,1.9507,8,1,33,1,1,,,,,
,1.17,,,,,,,,,h.PNG,h,6110d7e62afb7dafbc68fbaf,2021-09-08_21h15.49.026,forced_choiceRT,2021.1.2,Win32,59.25925926,,,,,,,,7,Fast,g,0,1.8874,8,2,34,2,1,,,,,
,0.64,,,,,,,,,f.PNG,f,6110d7e62afb7dafbc68fbaf,2021-09-08_21h15.49.026,forced_choiceRT,2021.1.2,Win32,59.25925926,,,,,,,,7,Ontime,f,1,1.9954,8,3,35,0,1,,,,,
,0.33,,,,,,,,,f.PNG,f,6110d7e62afb7dafbc68fbaf,2021-09-08_21h15.49.026,forced_choiceRT,2021.1.2,Win32,59.25925926,,,,,,,,7,Ontime,f,1,2.0227,9,0,36,0,1,,,,,
,0.32,,,,,,,,,g.PNG,g,6110d7e62afb7dafbc68fbaf,2021-09-08_21h15.49.026,forced_choiceRT,2021.1.2,Win32,59.25925926,,,,,,,,7,Ontime,f,0,1.9225,9,1,37,1,1,,,,,
,1.12,,,,,,,,,f.PNG,f,6110d7e62afb7dafbc68fbaf,2021-09-08_21h15.49.026,forced_choiceRT,2021.1.2,Win32,59.25925926,,,,,,,,7,Fast,f,1,1.7864,9,2,38,0,1,,,,,
,0.4,,,,,,,,,j.PNG,j,6110d7e62afb7dafbc68fbaf,2021-09-08_21h15.49.026,forced_choiceRT,2021.1.2,Win32,59.25925926,,,,,,,,7,Ontime,j,1,2.0506,9,3,39,3,1,,,,,
,,,,,,,,,,,,6110d7e62afb7dafbc68fbaf,2021-09-08_21h15.49.026,forced_choiceRT,2021.1.2,Win32,59.25925926,,,,,,,,,,,,,,,,,,6,0,6,0,1
,1.98,,,,,,,,,j.PNG,j,6110d7e62afb7dafbc68fbaf,2021-09-08_21h15.49.026,forced_choiceRT,2021.1.2,Win32,59.25925926,,,,,,,,8,Ontime,f,0,2.0902,0,0,0,3,1,,,,,
,0.31,,,,,,,,,j.PNG,j,6110d7e62afb7dafbc68fbaf,2021-09-08_21h15.49.026,forced_choiceRT,2021.1.2,Win32,59.25925926,,,,,,,,8,Ontime,j,1,2.0521,0,1,1,3,1,,,,,
,1.8,,,,,,,,,g.PNG,g,6110d7e62afb7dafbc68fbaf,2021-09-08_21h15.49.026,forced_choiceRT,2021.1.2,Win32,59.25925926,,,,,,,,8,Ontime,g,1,2.0869,0,2,2,1,1,,,,,
,1.95,,,,,,,,,g.PNG,g,6110d7e62afb7dafbc68fbaf,2021-09-08_21h15.49.026,forced_choiceRT,2021.1.2,Win32,59.25925926,,,,,,,,8,Ontime,j,0,1.9902,0,3,3,1,1,,,,,
,0.6,,,,,,,,,j.PNG,j,6110d7e62afb7dafbc68fbaf,2021-09-08_21h15.49.026,forced_choiceRT,2021.1.2,Win32,59.25925926,,,,,,,,8,Fast,j,1,1.8569,1,0,4,3,1,,,,,
,0.15,,,,,,,,,f.PNG,f,6110d7e62afb7dafbc68fbaf,2021-09-08_21h15.49.026,forced_choiceRT,2021.1.2,Win32,59.25925926,,,,,,,,8,Ontime,f,1,2.0092,1,1,5,0,1,,,,,
,1.04,,,,,,,,,h.PNG,h,6110d7e62afb7dafbc68fbaf,2021-09-08_21h15.49.026,forced_choiceRT,2021.1.2,Win32,59.25925926,,,,,,,,8,Ontime,h,1,1.988,1,2,6,2,1,,,,,
,0.96,,,,,,,,,h.PNG,h,6110d7e62afb7dafbc68fbaf,2021-09-08_21h15.49.026,forced_choiceRT,2021.1.2,Win32,59.25925926,,,,,,,,8,Fast,h,1,1.7867,1,3,7,2,1,,,,,
,1.86,,,,,,,,,j.PNG,j,6110d7e62afb7dafbc68fbaf,2021-09-08_21h15.49.026,forced_choiceRT,2021.1.2,Win32,59.25925926,,,,,,,,8,Slow,j,1,2.85,2,0,8,3,1,,,,,
,0.52,,,,,,,,,j.PNG,j,6110d7e62afb7dafbc68fbaf,2021-09-08_21h15.49.026,forced_choiceRT,2021.1.2,Win32,59.25925926,,,,,,,,8,Ontime,j,1,2.0075,2,1,9,3,1,,,,,
,0.04,,,,,,,,,f.PNG,f,6110d7e62afb7dafbc68fbaf,2021-09-08_21h15.49.026,forced_choiceRT,2021.1.2,Win32,59.25925926,,,,,,,,8,Ontime,g,0,2.0777,2,2,10,0,1,,,,,
,1.29,,,,,,,,,f.PNG,f,6110d7e62afb7dafbc68fbaf,2021-09-08_21h15.49.026,forced_choiceRT,2021.1.2,Win32,59.25925926,,,,,,,,8,Fast,g,0,1.8006,2,3,11,0,1,,,,,
,0.3,,,,,,,,,f.PNG,f,6110d7e62afb7dafbc68fbaf,2021-09-08_21h15.49.026,forced_choiceRT,2021.1.2,Win32,59.25925926,,,,,,,,8,Ontime,f,1,2.0671,3,0,12,0,1,,,,,
,1.45,,,,,,,,,f.PNG,f,6110d7e62afb7dafbc68fbaf,2021-09-08_21h15.49.026,forced_choiceRT,2021.1.2,Win32,59.25925926,,,,,,,,8,Ontime,f,1,2.0626,3,1,13,0,1,,,,,
,1.12,,,,,,,,,h.PNG,h,6110d7e62afb7dafbc68fbaf,2021-09-08_21h15.49.026,forced_choiceRT,2021.1.2,Win32,59.25925926,,,,,,,,8,Slow,h,1,2.2454,3,2,14,2,1,,,,,
,1.95,,,,,,,,,g.PNG,g,6110d7e62afb7dafbc68fbaf,2021-09-08_21h15.49.026,forced_choiceRT,2021.1.2,Win32,59.25925926,,,,,,,,8,Slow,f,0,2.1691,3,3,15,1,1,,,,,
,1.24,,,,,,,,,g.PNG,g,6110d7e62afb7dafbc68fbaf,2021-09-08_21h15.49.026,forced_choiceRT,2021.1.2,Win32,59.25925926,,,,,,,,8,Fast,g,1,1.8671,4,0,16,1,1,,,,,
,1.19,,,,,,,,,h.PNG,h,6110d7e62afb7dafbc68fbaf,2021-09-08_21h15.49.026,forced_choiceRT,2021.1.2,Win32,59.25925926,,,,,,,,8,Ontime,h,1,1.9862,4,1,17,2,1,,,,,
,1.7,,,,,,,,,h.PNG,h,6110d7e62afb7dafbc68fbaf,2021-09-08_21h15.49.026,forced_choiceRT,2021.1.2,Win32,59.25925926,,,,,,,,8,Slow,h,1,2.2438,4,2,18,2,1,,,,,
,0.22,,,,,,,,,g.PNG,g,6110d7e62afb7dafbc68fbaf,2021-09-08_21h15.49.026,forced_choiceRT,2021.1.2,Win32,59.25925926,,,,,,,,8,Ontime,g,1,1.9999,4,3,19,1,1,,,,,
,0.06,,,,,,,,,j.PNG,j,6110d7e62afb7dafbc68fbaf,2021-09-08_21h15.49.026,forced_choiceRT,2021.1.2,Win32,59.25925926,,,,,,,,8,Ontime,j,1,1.969,5,0,20,3,1,,,,,
,0.74,,,,,,,,,h.PNG,h,6110d7e62afb7dafbc68fbaf,2021-09-08_21h15.49.026,forced_choiceRT,2021.1.2,Win32,59.25925926,,,,,,,,8,Ontime,h,1,1.967,5,1,21,2,1,,,,,
,1.86,,,,,,,,,j.PNG,j,6110d7e62afb7dafbc68fbaf,2021-09-08_21h15.49.026,forced_choiceRT,2021.1.2,Win32,59.25925926,,,,,,,,8,Slow,h,0,2.1501,5,2,22,3,1,,,,,
,0.81,,,,,,,,,g.PNG,g,6110d7e62afb7dafbc68fbaf,2021-09-08_21h15.49.026,forced_choiceRT,2021.1.2,Win32,59.25925926,,,,,,,,8,Ontime,h,0,1.9452,5,3,23,1,1,,,,,
,1.74,,,,,,,,,f.PNG,f,6110d7e62afb7dafbc68fbaf,2021-09-08_21h15.49.026,forced_choiceRT,2021.1.2,Win32,59.25925926,,,,,,,,8,Slow,f,1,2.2831,6,0,24,0,1,,,,,
,0.76,,,,,,,,,h.PNG,h,6110d7e62afb7dafbc68fbaf,2021-09-08_21h15.49.026,forced_choiceRT,2021.1.2,Win32,59.25925926,,,,,,,,8,Fast,h,1,1.8502,6,1,25,2,1,,,,,
,1.29,,,,,,,,,j.PNG,j,6110d7e62afb7dafbc68fbaf,2021-09-08_21h15.49.026,forced_choiceRT,2021.1.2,Win32,59.25925926,,,,,,,,8,Ontime,j,1,2.008,6,2,26,3,1,,,,,
,0.34,,,,,,,,,f.PNG,f,6110d7e62afb7dafbc68fbaf,2021-09-08_21h15.49.026,forced_choiceRT,2021.1.2,Win32,59.25925926,,,,,,,,8,Slow,f,1,2.1235,6,3,27,0,1,,,,,
,0.03,,,,,,,,,g.PNG,g,6110d7e62afb7dafbc68fbaf,2021-09-08_21h15.49.026,forced_choiceRT,2021.1.2,Win32,59.25925926,,,,,,,,8,Slow,g,1,2.1831,7,0,28,1,1,,,,,
,0.46,,,,,,,,,g.PNG,g,6110d7e62afb7dafbc68fbaf,2021-09-08_21h15.49.026,forced_choiceRT,2021.1.2,Win32,59.25925926,,,,,,,,8,Slow,g,1,2.1251,7,1,29,1,1,,,,,
,1.48,,,,,,,,,h.PNG,h,6110d7e62afb7dafbc68fbaf,2021-09-08_21h15.49.026,forced_choiceRT,2021.1.2,Win32,59.25925926,,,,,,,,8,Fast,h,1,1.8506,7,2,30,2,1,,,,,
,0.28,,,,,,,,,h.PNG,h,6110d7e62afb7dafbc68fbaf,2021-09-08_21h15.49.026,forced_choiceRT,2021.1.2,Win32,59.25925926,,,,,,,,8,Ontime,h,1,1.9228,7,3,31,2,1,,,,,
,0.36,,,,,,,,,f.PNG,f,6110d7e62afb7dafbc68fbaf,2021-09-08_21h15.49.026,forced_choiceRT,2021.1.2,Win32,59.25925926,,,,,,,,8,Ontime,f,1,2.0336,8,0,32,0,1,,,,,
,0.39,,,,,,,,,f.PNG,f,6110d7e62afb7dafbc68fbaf,2021-09-08_21h15.49.026,forced_choiceRT,2021.1.2,Win32,59.25925926,,,,,,,,8,Ontime,f,1,2.0522,8,1,33,0,1,,,,,
,0.36,,,,,,,,,g.PNG,g,6110d7e62afb7dafbc68fbaf,2021-09-08_21h15.49.026,forced_choiceRT,2021.1.2,Win32,59.25925926,,,,,,,,8,Ontime,g,1,1.9507,8,2,34,1,1,,,,,
,1.99,,,,,,,,,j.PNG,j,6110d7e62afb7dafbc68fbaf,2021-09-08_21h15.49.026,forced_choiceRT,2021.1.2,Win32,59.25925926,,,,,,,,8,Ontime,h,0,2.0612,8,3,35,3,1,,,,,
,0.84,,,,,,,,,f.PNG,f,6110d7e62afb7dafbc68fbaf,2021-09-08_21h15.49.026,forced_choiceRT,2021.1.2,Win32,59.25925926,,,,,,,,8,Ontime,f,1,1.9859,9,0,36,0,1,,,,,
,1.62,,,,,,,,,j.PNG,j,6110d7e62afb7dafbc68fbaf,2021-09-08_21h15.49.026,forced_choiceRT,2021.1.2,Win32,59.25925926,,,,,,,,8,Fast,h,0,1.8433,9,1,37,3,1,,,,,
,1.38,,,,,,,,,g.PNG,g,6110d7e62afb7dafbc68fbaf,2021-09-08_21h15.49.026,forced_choiceRT,2021.1.2,Win32,59.25925926,,,,,,,,8,Fast,j,0,1.8665,9,2,38,1,1,,,,,
,1.33,,,,,,,,,h.PNG,h,6110d7e62afb7dafbc68fbaf,2021-09-08_21h15.49.026,forced_choiceRT,2021.1.2,Win32,59.25925926,,,,,,,,8,Ontime,h,1,2.029,9,3,39,2,1,,,,,
,,,,,,,,,,,,6110d7e62afb7dafbc68fbaf,2021-09-08_21h15.49.026,forced_choiceRT,2021.1.2,Win32,59.25925926,,,,,,,,,,,,,,,,,,7,0,7,0,1
,0.68,,,,,,,,,h.PNG,h,6110d7e62afb7dafbc68fbaf,2021-09-08_21h15.49.026,forced_choiceRT,2021.1.2,Win32,59.25925926,,,,,,,,9,Fast,h,1,1.6564,0,0,0,2,1,,,,,
,0.77,,,,,,,,,g.PNG,g,6110d7e62afb7dafbc68fbaf,2021-09-08_21h15.49.026,forced_choiceRT,2021.1.2,Win32,59.25925926,,,,,,,,9,Ontime,g,1,2.0281,0,1,1,1,1,,,,,
,0.41,,,,,,,,,f.PNG,f,6110d7e62afb7dafbc68fbaf,2021-09-08_21h15.49.026,forced_choiceRT,2021.1.2,Win32,59.25925926,,,,,,,,9,Ontime,f,1,2.0172,0,2,2,0,1,,,,,
,0.01,,,,,,,,,j.PNG,j,6110d7e62afb7dafbc68fbaf,2021-09-08_21h15.49.026,forced_choiceRT,2021.1.2,Win32,59.25925926,,,,,,,,9,Ontime,j,1,2.0887,0,3,3,3,1,,,,,
,0.82,,,,,,,,,f.PNG,f,6110d7e62afb7dafbc68fbaf,2021-09-08_21h15.49.026,forced_choiceRT,2021.1.2,Win32,59.25925926,,,,,,,,9,Ontime,f,1,1.9753,1,0,4,0,1,,,,,
,1.29,,,,,,,,,g.PNG,g,6110d7e62afb7dafbc68fbaf,2021-09-08_21h15.49.026,forced_choiceRT,2021.1.2,Win32,59.25925926,,,,,,,,9,Ontime,f,0,2.0247,1,1,5,1,1,,,,,
,1.94,,,,,,,,,h.PNG,h,6110d7e62afb7dafbc68fbaf,2021-09-08_21h15.49.026,forced_choiceRT,2021.1.2,Win32,59.25925926,,,,,,,,9,Ontime,g,0,2.0336,1,2,6,2,1,,,,,
,1.77,,,,,,,,,h.PNG,h,6110d7e62afb7dafbc68fbaf,2021-09-08_21h15.49.026,forced_choiceRT,2021.1.2,Win32,59.25925926,,,,,,,,9,Fast,h,1,1.7834,1,3,7,2,1,,,,,
,1.21,,,,,,,,,g.PNG,g,6110d7e62afb7dafbc68fbaf,2021-09-08_21h15.49.026,forced_choiceRT,2021.1.2,Win32,59.25925926,,,,,,,,9,Ontime,g,1,1.95,2,0,8,1,1,,,,,
,0.32,,,,,,,,,j.PNG,j,6110d7e62afb7dafbc68fbaf,2021-09-08_21h15.49.026,forced_choiceRT,2021.1.2,Win32,59.25925926,,,,,,,,9,Ontime,j,1,1.9728,2,1,9,3,1,,,,,
,1.22,,,,,,,,,h.PNG,h,6110d7e62afb7dafbc68fbaf,2021-09-08_21h15.49.026,forced_choiceRT,2021.1.2,Win32,59.25925926,,,,,,,,9,Ontime,g,0,1.9068,2,2,10,2,1,,,,,
,1.53,,,,,,,,,g.PNG,g,6110d7e62afb7dafbc68fbaf,2021-09-08_21h15.49.026,forced_choiceRT,2021.1.2,Win32,59.25925926,,,,,,,,9,Ontime,h,0,1.9769,2,3,11,1,1,,,,,
,0.06,,,,,,,,,j.PNG,j,6110d7e62afb7dafbc68fbaf,2021-09-08_21h15.49.026,forced_choiceRT,2021.1.2,Win32,59.25925926,,,,,,,,9,Ontime,j,1,2.0166,3,0,12,3,1,,,,,
,1.67,,,,,,,,,g.PNG,g,6110d7e62afb7dafbc68fbaf,2021-09-08_21h15.49.026,forced_choiceRT,2021.1.2,Win32,59.25925926,,,,,,,,9,Slow,g,1,2.8261,3,1,13,1,1,,,,,
,1.15,,,,,,,,,f.PNG,f,6110d7e62afb7dafbc68fbaf,2021-09-08_21h15.49.026,forced_choiceRT,2021.1.2,Win32,59.25925926,,,,,,,,9,Ontime,f,1,1.9246,3,2,14,0,1,,,,,
,0.68,,,,,,,,,f.PNG,f,6110d7e62afb7dafbc68fbaf,2021-09-08_21h15.49.026,forced_choiceRT,2021.1.2,Win32,59.25925926,,,,,,,,9,Slow,f,1,2.1842,3,3,15,0,1,,,,,
,0.14,,,,,,,,,g.PNG,g,6110d7e62afb7dafbc68fbaf,2021-09-08_21h15.49.026,forced_choiceRT,2021.1.2,Win32,59.25925926,,,,,,,,9,Ontime,h,0,2.0509,4,0,16,1,1,,,,,
,1.58,,,,,,,,,h.PNG,h,6110d7e62afb7dafbc68fbaf,2021-09-08_21h15.49.026,forced_choiceRT,2021.1.2,Win32,59.25925926,,,,,,,,9,Fast,g,0,1.8537,4,1,17,2,1,,,,,
,0.55,,,,,,,,,g.PNG,g,6110d7e62afb7dafbc68fbaf,2021-09-08_21h15.49.026,forced_choiceRT,2021.1.2,Win32,59.25925926,,,,,,,,9,Fast,g,1,1.8335,4,2,18,1,1,,,,,
,1.18,,,,,,,,,h.PNG,h,6110d7e62afb7dafbc68fbaf,2021-09-08_21h15.49.026,forced_choiceRT,2021.1.2,Win32,59.25925926,,,,,,,,9,Ontime,h,1,2.0671,4,3,19,2,1,,,,,
,1.97,,,,,,,,,j.PNG,j,6110d7e62afb7dafbc68fbaf,2021-09-08_21h15.49.026,forced_choiceRT,2021.1.2,Win32,59.25925926,,,,,,,,9,Slow,j,1,2.1664,5,0,20,3,1,,,,,
,0.37,,,,,,,,,f.PNG,f,6110d7e62afb7dafbc68fbaf,2021-09-08_21h15.49.026,forced_choiceRT,2021.1.2,Win32,59.25925926,,,,,,,,9,Fast,f,1,1.8835,5,1,21,0,1,,,,,
,0.3,,,,,,,,,j.PNG,j,6110d7e62afb7dafbc68fbaf,2021-09-08_21h15.49.026,forced_choiceRT,2021.1.2,Win32,59.25925926,,,,,,,,9,Ontime,j,1,1.9913,5,2,22,3,1,,,,,
,0.84,,,,,,,,,g.PNG,g,6110d7e62afb7dafbc68fbaf,2021-09-08_21h15.49.026,forced_choiceRT,2021.1.2,Win32,59.25925926,,,,,,,,9,Ontime,g,1,1.9427,5,3,23,1,1,,,,,
,0.55,,,,,,,,,h.PNG,h,6110d7e62afb7dafbc68fbaf,2021-09-08_21h15.49.026,forced_choiceRT,2021.1.2,Win32,59.25925926,,,,,,,,9,Fast,h,1,1.7833,6,0,24,2,1,,,,,
,0.47,,,,,,,,,f.PNG,f,6110d7e62afb7dafbc68fbaf,2021-09-08_21h15.49.026,forced_choiceRT,2021.1.2,Win32,59.25925926,,,,,,,,9,Ontime,f,1,1.9835,6,1,25,0,1,,,,,
,1.93,,,,,,,,,h.PNG,h,6110d7e62afb7dafbc68fbaf,2021-09-08_21h15.49.026,forced_choiceRT,2021.1.2,Win32,59.25925926,,,,,,,,9,Ontime,h,1,1.9333,6,2,26,2,1,,,,,
,0.91,,,,,,,,,g.PNG,g,6110d7e62afb7dafbc68fbaf,2021-09-08_21h15.49.026,forced_choiceRT,2021.1.2,Win32,59.25925926,,,,,,,,9,Ontime,g,1,1.9171,6,3,27,1,1,,,,,
,1.95,,,,,,,,,j.PNG,j,6110d7e62afb7dafbc68fbaf,2021-09-08_21h15.49.026,forced_choiceRT,2021.1.2,Win32,59.25925926,,,,,,,,9,Fast,f,0,1.7919,7,0,28,3,1,,,,,
,0.3,,,,,,,,,f.PNG,f,6110d7e62afb7dafbc68fbaf,2021-09-08_21h15.49.026,forced_choiceRT,2021.1.2,Win32,59.25925926,,,,,,,,9,Ontime,f,1,2.0344,7,1,29,0,1,,,,,
,0.23,,,,,,,,,f.PNG,f,6110d7e62afb7dafbc68fbaf,2021-09-08_21h15.49.026,forced_choiceRT,2021.1.2,Win32,59.25925926,,,,,,,,9,Ontime,f,1,2.0528,7,2,30,0,1,,,,,
,0.88,,,,,,,,,j.PNG,j,6110d7e62afb7dafbc68fbaf,2021-09-08_21h15.49.026,forced_choiceRT,2021.1.2,Win32,59.25925926,,,,,,,,9,Ontime,j,1,1.9835,7,3,31,3,1,,,,,
,0.39,,,,,,,,,f.PNG,f,6110d7e62afb7dafbc68fbaf,2021-09-08_21h15.49.026,forced_choiceRT,2021.1.2,Win32,59.25925926,,,,,,,,9,Ontime,f,1,2.042,8,0,32,0,1,,,,,
,0.15,,,,,,,,,j.PNG,j,6110d7e62afb7dafbc68fbaf,2021-09-08_21h15.49.026,forced_choiceRT,2021.1.2,Win32,59.25925926,,,,,,,,9,Ontime,j,1,1.9929,8,1,33,3,1,,,,,
,1.15,,,,,,,,,h.PNG,h,6110d7e62afb7dafbc68fbaf,2021-09-08_21h15.49.026,forced_choiceRT,2021.1.2,Win32,59.25925926,,,,,,,,9,Ontime,h,1,2.0599,8,2,34,2,1,,,,,
,1.89,,,,,,,,,g.PNG,g,6110d7e62afb7dafbc68fbaf,2021-09-08_21h15.49.026,forced_choiceRT,2021.1.2,Win32,59.25925926,,,,,,,,9,Ontime,f,0,2.0738,8,3,35,1,1,,,,,
,0.63,,,,,,,,,j.PNG,j,6110d7e62afb7dafbc68fbaf,2021-09-08_21h15.49.026,forced_choiceRT,2021.1.2,Win32,59.25925926,,,,,,,,9,Ontime,j,1,2.0068,9,0,36,3,1,,,,,
,0.75,,,,,,,,,j.PNG,j,6110d7e62afb7dafbc68fbaf,2021-09-08_21h15.49.026,forced_choiceRT,2021.1.2,Win32,59.25925926,,,,,,,,9,Slow,j,1,2.1166,9,1,37,3,1,,,,,
,0.5,,,,,,,,,h.PNG,h,6110d7e62afb7dafbc68fbaf,2021-09-08_21h15.49.026,forced_choiceRT,2021.1.2,Win32,59.25925926,,,,,,,,9,Ontime,h,1,1.9503,9,2,38,2,1,,,,,
,1.87,,,,,,,,,f.PNG,f,6110d7e62afb7dafbc68fbaf,2021-09-08_21h15.49.026,forced_choiceRT,2021.1.2,Win32,59.25925926,,,,,,,,9,Ontime,h,0,2.0032,9,3,39,0,1,,,,,
,,,,,,,,,,,,6110d7e62afb7dafbc68fbaf,2021-09-08_21h15.49.026,forced_choiceRT,2021.1.2,Win32,59.25925926,,,,,,,,,,,,,,,,,,8,0,8,0,1
,1.69,,,,,,,,,g.PNG,g,6110d7e62afb7dafbc68fbaf,2021-09-08_21h15.49.026,forced_choiceRT,2021.1.2,Win32,59.25925926,,,,,,,,10,Ontime,f,0,2.0375,0,0,0,1,1,,,,,
,0.69,,,,,,,,,g.PNG,g,6110d7e62afb7dafbc68fbaf,2021-09-08_21h15.49.026,forced_choiceRT,2021.1.2,Win32,59.25925926,,,,,,,,10,Ontime,g,1,1.9533,0,1,1,1,1,,,,,
,1.41,,,,,,,,,h.PNG,h,6110d7e62afb7dafbc68fbaf,2021-09-08_21h15.49.026,forced_choiceRT,2021.1.2,Win32,59.25925926,,,,,,,,10,Slow,h,1,2.1025,0,2,2,2,1,,,,,
,0.72,,,,,,,,,j.PNG,j,6110d7e62afb7dafbc68fbaf,2021-09-08_21h15.49.026,forced_choiceRT,2021.1.2,Win32,59.25925926,,,,,,,,10,Fast,j,1,1.8999,0,3,3,3,1,,,,,
,1.36,,,,,,,,,h.PNG,h,6110d7e62afb7dafbc68fbaf,2021-09-08_21h15.49.026,forced_choiceRT,2021.1.2,Win32,59.25925926,,,,,,,,10,Ontime,h,1,1.9444,1,0,4,2,1,,,,,
,1.12,,,,,,,,,j.PNG,j,6110d7e62afb7dafbc68fbaf,2021-09-08_21h15.49.026,forced_choiceRT,2021.1.2,Win32,59.25925926,,,,,,,,10,Ontime,j,1,2.0168,1,1,5,3,1,,,,,
,1.15,,,,,,,,,h.PNG,h,6110d7e62afb7dafbc68fbaf,2021-09-08_21h15.49.026,forced_choiceRT,2021.1.2,Win32,59.25925926,,,,,,,,10,Fast,h,1,1.8027,1,2,6,2,1,,,,,
,0.99,,,,,,,,,h.PNG,h,6110d7e62afb7dafbc68fbaf,2021-09-08_21h15.49.026,forced_choiceRT,2021.1.2,Win32,59.25925926,,,,,,,,10,Slow,h,1,2.1225,1,3,7,2,1,,,,,
,1.28,,,,,,,,,g.PNG,g,6110d7e62afb7dafbc68fbaf,2021-09-08_21h15.49.026,forced_choiceRT,2021.1.2,Win32,59.25925926,,,,,,,,10,Ontime,g,1,1.9443,2,0,8,1,1,,,,,
,1.79,,,,,,,,,j.PNG,j,6110d7e62afb7dafbc68fbaf,2021-09-08_21h15.49.026,forced_choiceRT,2021.1.2,Win32,59.25925926,,,,,,,,10,Ontime,g,0,2.0384,2,1,9,3,1,,,,,
,0.63,,,,,,,,,f.PNG,f,6110d7e62afb7dafbc68fbaf,2021-09-08_21h15.49.026,forced_choiceRT,2021.1.2,Win32,59.25925926,,,,,,,,10,Ontime,f,1,1.9603,2,2,10,0,1,,,,,
,1.28,,,,,,,,,j.PNG,j,6110d7e62afb7dafbc68fbaf,2021-09-08_21h15.49.026,forced_choiceRT,2021.1.2,Win32,59.25925926,,,,,,,,10,Fast,j,1,1.8863,2,3,11,3,1,,,,,
,1.51,,,,,,,,,f.PNG,f,6110d7e62afb7dafbc68fbaf,2021-09-08_21h15.49.026,forced_choiceRT,2021.1.2,Win32,59.25925926,,,,,,,,10,Ontime,f,1,2.0664,3,0,12,0,1,,,,,
,0.59,,,,,,,,,g.PNG,g,6110d7e62afb7dafbc68fbaf,2021-09-08_21h15.49.026,forced_choiceRT,2021.1.2,Win32,59.25925926,,,,,,,,10,Ontime,g,1,1.9539,3,1,13,1,1,,,,,
,0.7,,,,,,,,,j.PNG,j,6110d7e62afb7dafbc68fbaf,2021-09-08_21h15.49.026,forced_choiceRT,2021.1.2,Win32,59.25925926,,,,,,,,10,Ontime,j,1,2.006,3,2,14,3,1,,,,,
,0.67,,,,,,,,,h.PNG,h,6110d7e62afb7dafbc68fbaf,2021-09-08_21h15.49.026,forced_choiceRT,2021.1.2,Win32,59.25925926,,,,,,,,10,Ontime,h,1,2.0006,3,3,15,2,1,,,,,
,0.67,,,,,,,,,f.PNG,f,6110d7e62afb7dafbc68fbaf,2021-09-08_21h15.49.026,forced_choiceRT,2021.1.2,Win32,59.25925926,,,,,,,,10,Ontime,f,1,2.0251,4,0,16,0,1,,,,,
,0.19,,,,,,,,,j.PNG,j,6110d7e62afb7dafbc68fbaf,2021-09-08_21h15.49.026,forced_choiceRT,2021.1.2,Win32,59.25925926,,,,,,,,10,Ontime,j,1,1.9217,4,1,17,3,1,,,,,
,1.73,,,,,,,,,g.PNG,g,6110d7e62afb7dafbc68fbaf,2021-09-08_21h15.49.026,forced_choiceRT,2021.1.2,Win32,59.25925926,,,,,,,,10,Ontime,j,0,1.9706,4,2,18,1,1,,,,,
,1.49,,,,,,,,,f.PNG,f,6110d7e62afb7dafbc68fbaf,2021-09-08_21h15.49.026,forced_choiceRT,2021.1.2,Win32,59.25925926,,,,,,,,10,Fast,f,1,1.7272,4,3,19,0,1,,,,,
,0.91,,,,,,,,,h.PNG,h,6110d7e62afb7dafbc68fbaf,2021-09-08_21h15.49.026,forced_choiceRT,2021.1.2,Win32,59.25925926,,,,,,,,10,Ontime,h,1,1.9352,5,0,20,2,1,,,,,
,1.56,,,,,,,,,f.PNG,f,6110d7e62afb7dafbc68fbaf,2021-09-08_21h15.49.026,forced_choiceRT,2021.1.2,Win32,59.25925926,,,,,,,,10,Slow,f,1,2.2736,5,1,21,0,1,,,,,
,0.29,,,,,,,,,g.PNG,g,6110d7e62afb7dafbc68fbaf,2021-09-08_21h15.49.026,forced_choiceRT,2021.1.2,Win32,59.25925926,,,,,,,,10,Ontime,g,1,1.9828,5,2,22,1,1,,,,,
,0.14,,,,,,,,,f.PNG,f,6110d7e62afb7dafbc68fbaf,2021-09-08_21h15.49.026,forced_choiceRT,2021.1.2,Win32,59.25925926,,,,,,,,10,Ontime,f,1,1.9676,5,3,23,0,1,,,,,
,1.04,,,,,,,,,g.PNG,g,6110d7e62afb7dafbc68fbaf,2021-09-08_21h15.49.026,forced_choiceRT,2021.1.2,Win32,59.25925926,,,,,,,,10,Ontime,g,1,2.0533,6,0,24,1,1,,,,,
,1.11,,,,,,,,,g.PNG,g,6110d7e62afb7dafbc68fbaf,2021-09-08_21h15.49.026,forced_choiceRT,2021.1.2,Win32,59.25925926,,,,,,,,10,Ontime,g,1,1.9889,6,1,25,1,1,,,,,
,1.98,,,,,,,,,f.PNG,f,6110d7e62afb7dafbc68fbaf,2021-09-08_21h15.49.026,forced_choiceRT,2021.1.2,Win32,59.25925926,,,,,,,,10,Ontime,f,1,2.0606,6,2,26,0,1,,,,,
,1.43,,,,,,,,,f.PNG,f,6110d7e62afb7dafbc68fbaf,2021-09-08_21h15.49.026,forced_choiceRT,2021.1.2,Win32,59.25925926,,,,,,,,10,Ontime,f,1,1.9847,6,3,27,0,1,,,,,
,1.78,,,,,,,,,f.PNG,f,6110d7e62afb7dafbc68fbaf,2021-09-08_21h15.49.026,forced_choiceRT,2021.1.2,Win32,59.25925926,,,,,,,,10,Fast,f,1,1.886,7,0,28,0,1,,,,,
,1.62,,,,,,,,,h.PNG,h,6110d7e62afb7dafbc68fbaf,2021-09-08_21h15.49.026,forced_choiceRT,2021.1.2,Win32,59.25925926,,,,,,,,10,Slow,h,1,2.1904,7,1,29,2,1,,,,,
,1.76,,,,,,,,,j.PNG,j,6110d7e62afb7dafbc68fbaf,2021-09-08_21h15.49.026,forced_choiceRT,2021.1.2,Win32,59.25925926,,,,,,,,10,Ontime,j,1,2.0453,7,2,30,3,1,,,,,
,0.38,,,,,,,,,g.PNG,g,6110d7e62afb7dafbc68fbaf,2021-09-08_21h15.49.026,forced_choiceRT,2021.1.2,Win32,59.25925926,,,,,,,,10,Ontime,g,1,2.0374,7,3,31,1,1,,,,,
,1.73,,,,,,,,,j.PNG,j,6110d7e62afb7dafbc68fbaf,2021-09-08_21h15.49.026,forced_choiceRT,2021.1.2,Win32,59.25925926,,,,,,,,10,Ontime,h,0,2.0244,8,0,32,3,1,,,,,
,0.63,,,,,,,,,f.PNG,f,6110d7e62afb7dafbc68fbaf,2021-09-08_21h15.49.026,forced_choiceRT,2021.1.2,Win32,59.25925926,,,,,,,,10,Ontime,f,1,2.04,8,1,33,0,1,,,,,
,0.55,,,,,,,,,g.PNG,g,6110d7e62afb7dafbc68fbaf,2021-09-08_21h15.49.026,forced_choiceRT,2021.1.2,Win32,59.25925926,,,,,,,,10,Ontime,g,1,2.0219,8,2,34,1,1,,,,,
,1.21,,,,,,,,,h.PNG,h,6110d7e62afb7dafbc68fbaf,2021-09-08_21h15.49.026,forced_choiceRT,2021.1.2,Win32,59.25925926,,,,,,,,10,Ontime,h,1,2.0221,8,3,35,2,1,,,,,
,1.54,,,,,,,,,j.PNG,j,6110d7e62afb7dafbc68fbaf,2021-09-08_21h15.49.026,forced_choiceRT,2021.1.2,Win32,59.25925926,,,,,,,,10,Slow,j,1,2.1333,9,0,36,3,1,,,,,
,1.08,,,,,,,,,h.PNG,h,6110d7e62afb7dafbc68fbaf,2021-09-08_21h15.49.026,forced_choiceRT,2021.1.2,Win32,59.25925926,,,,,,,,10,Ontime,h,1,1.9667,9,1,37,2,1,,,,,
,0.48,,,,,,,,,j.PNG,j,6110d7e62afb7dafbc68fbaf,2021-09-08_21h15.49.026,forced_choiceRT,2021.1.2,Win32,59.25925926,,,,,,,,10,Slow,j,1,2.1497,9,2,38,3,1,,,,,
,1.49,,,,,,,,,h.PNG,h,6110d7e62afb7dafbc68fbaf,2021-09-08_21h15.49.026,forced_choiceRT,2021.1.2,Win32,59.25925926,,,,,,,,10,Slow,h,1,2.2602,9,3,39,2,1,,,,,
,,,,,,,,,,,,6110d7e62afb7dafbc68fbaf,2021-09-08_21h15.49.026,forced_choiceRT,2021.1.2,Win32,59.25925926,,,,,,,,,,,,,,,,,,9,0,9,0,1
