IP_Addresss,target_onset,trial_resp_sp.keys,trial_resp_sp.corr,trial_resp_sp.rt,trials_train_loop.thisRepN,trials_train_loop.thisTrialN,trials_train_loop.thisN,trials_train_loop.thisIndex,trials_train_loop.ran,pic,correct_key,participant,date,expName,psychopyVersion,OS,frameRate,trial_resp_timing.keys,trial_resp_timing.rt,trials_train_timing.thisRepN,trials_train_timing.thisTrialN,trials_train_timing.thisN,trials_train_timing.thisIndex,trials_train_timing.ran,block_id,ontime,forcedRT_resp.keys,forcedRT_resp.corr,forcedRT_resp.rt,trials.thisRepN,trials.thisTrialN,trials.thisN,trials.thisIndex,trials.ran,blocks.thisRepN,blocks.thisTrialN,blocks.thisN,blocks.thisIndex,blocks.ran
170.140.105.12,0,j,1,2.077,0,0,0,3,1,j.PNG,j,6111487d928672ed8b815cae,2021-09-08_20h53.47.830,forced_choiceRT,2021.1.2,MacIntel,58.82352941,,,,,,,,,,,,,,,,,,,,,,
,0,g,1,5.645,0,1,1,1,1,g.PNG,g,6111487d928672ed8b815cae,2021-09-08_20h53.47.830,forced_choiceRT,2021.1.2,MacIntel,58.82352941,,,,,,,,,,,,,,,,,,,,,,
,0,h,1,1.328,0,2,2,2,1,h.PNG,h,6111487d928672ed8b815cae,2021-09-08_20h53.47.830,forced_choiceRT,2021.1.2,MacIntel,58.82352941,,,,,,,,,,,,,,,,,,,,,,
,0,h,1,0.856,0,3,3,2,1,h.PNG,h,6111487d928672ed8b815cae,2021-09-08_20h53.47.830,forced_choiceRT,2021.1.2,MacIntel,58.82352941,,,,,,,,,,,,,,,,,,,,,,
,0,f,1,1.166,1,0,4,0,1,f.PNG,f,6111487d928672ed8b815cae,2021-09-08_20h53.47.830,forced_choiceRT,2021.1.2,MacIntel,58.82352941,,,,,,,,,,,,,,,,,,,,,,
,0,h,1,0.883,1,1,5,2,1,h.PNG,h,6111487d928672ed8b815cae,2021-09-08_20h53.47.830,forced_choiceRT,2021.1.2,MacIntel,58.82352941,,,,,,,,,,,,,,,,,,,,,,
,0,h,1,0.677,1,2,6,2,1,h.PNG,h,6111487d928672ed8b815cae,2021-09-08_20h53.47.830,forced_choiceRT,2021.1.2,MacIntel,58.82352941,,,,,,,,,,,,,,,,,,,,,,
,0,f,1,0.764,1,3,7,0,1,f.PNG,f,6111487d928672ed8b815cae,2021-09-08_20h53.47.830,forced_choiceRT,2021.1.2,MacIntel,58.82352941,,,,,,,,,,,,,,,,,,,,,,
,0,j,1,1.05,2,0,8,3,1,j.PNG,j,6111487d928672ed8b815cae,2021-09-08_20h53.47.830,forced_choiceRT,2021.1.2,MacIntel,58.82352941,,,,,,,,,,,,,,,,,,,,,,
,0,f,1,1.246,2,1,9,0,1,f.PNG,f,6111487d928672ed8b815cae,2021-09-08_20h53.47.830,forced_choiceRT,2021.1.2,MacIntel,58.82352941,,,,,,,,,,,,,,,,,,,,,,
,0,f,1,0.624,2,2,10,0,1,f.PNG,f,6111487d928672ed8b815cae,2021-09-08_20h53.47.830,forced_choiceRT,2021.1.2,MacIntel,58.82352941,,,,,,,,,,,,,,,,,,,,,,
,0,h,1,1.084,2,3,11,2,1,h.PNG,h,6111487d928672ed8b815cae,2021-09-08_20h53.47.830,forced_choiceRT,2021.1.2,MacIntel,58.82352941,,,,,,,,,,,,,,,,,,,,,,
,0,h,1,0.776,3,0,12,2,1,h.PNG,h,6111487d928672ed8b815cae,2021-09-08_20h53.47.830,forced_choiceRT,2021.1.2,MacIntel,58.82352941,,,,,,,,,,,,,,,,,,,,,,
,0,h,1,0.684,3,1,13,2,1,h.PNG,h,6111487d928672ed8b815cae,2021-09-08_20h53.47.830,forced_choiceRT,2021.1.2,MacIntel,58.82352941,,,,,,,,,,,,,,,,,,,,,,
,0,f,1,0.616,3,2,14,0,1,f.PNG,f,6111487d928672ed8b815cae,2021-09-08_20h53.47.830,forced_choiceRT,2021.1.2,MacIntel,58.82352941,,,,,,,,,,,,,,,,,,,,,,
,0,f,1,0.62,3,3,15,0,1,f.PNG,f,6111487d928672ed8b815cae,2021-09-08_20h53.47.830,forced_choiceRT,2021.1.2,MacIntel,58.82352941,,,,,,,,,,,,,,,,,,,,,,
,0,f,1,0.616,4,0,16,0,1,f.PNG,f,6111487d928672ed8b815cae,2021-09-08_20h53.47.830,forced_choiceRT,2021.1.2,MacIntel,58.82352941,,,,,,,,,,,,,,,,,,,,,,
,0,g,1,0.693,4,1,17,1,1,g.PNG,g,6111487d928672ed8b815cae,2021-09-08_20h53.47.830,forced_choiceRT,2021.1.2,MacIntel,58.82352941,,,,,,,,,,,,,,,,,,,,,,
,0,g,1,0.744,4,2,18,1,1,g.PNG,g,6111487d928672ed8b815cae,2021-09-08_20h53.47.830,forced_choiceRT,2021.1.2,MacIntel,58.82352941,,,,,,,,,,,,,,,,,,,,,,
,0,g,1,0.571,4,3,19,1,1,g.PNG,g,6111487d928672ed8b815cae,2021-09-08_20h53.47.830,forced_choiceRT,2021.1.2,MacIntel,58.82352941,,,,,,,,,,,,,,,,,,,,,,
,0,g,1,0.606,5,0,20,1,1,g.PNG,g,6111487d928672ed8b815cae,2021-09-08_20h53.47.830,forced_choiceRT,2021.1.2,MacIntel,58.82352941,,,,,,,,,,,,,,,,,,,,,,
,0,j,1,0.817,5,1,21,3,1,j.PNG,j,6111487d928672ed8b815cae,2021-09-08_20h53.47.830,forced_choiceRT,2021.1.2,MacIntel,58.82352941,,,,,,,,,,,,,,,,,,,,,,
,0,f,1,0.789,5,2,22,0,1,f.PNG,f,6111487d928672ed8b815cae,2021-09-08_20h53.47.830,forced_choiceRT,2021.1.2,MacIntel,58.82352941,,,,,,,,,,,,,,,,,,,,,,
,0,f,1,1.191,5,3,23,0,1,f.PNG,f,6111487d928672ed8b815cae,2021-09-08_20h53.47.830,forced_choiceRT,2021.1.2,MacIntel,58.82352941,,,,,,,,,,,,,,,,,,,,,,
,0,h,1,0.825,6,0,24,2,1,h.PNG,h,6111487d928672ed8b815cae,2021-09-08_20h53.47.830,forced_choiceRT,2021.1.2,MacIntel,58.82352941,,,,,,,,,,,,,,,,,,,,,,
,0,h,0,0.662,6,1,25,0,1,f.PNG,f,6111487d928672ed8b815cae,2021-09-08_20h53.47.830,forced_choiceRT,2021.1.2,MacIntel,58.82352941,,,,,,,,,,,,,,,,,,,,,,
,0,h,1,2.072,6,2,26,2,1,h.PNG,h,6111487d928672ed8b815cae,2021-09-08_20h53.47.830,forced_choiceRT,2021.1.2,MacIntel,58.82352941,,,,,,,,,,,,,,,,,,,,,,
,0,j,1,0.717,6,3,27,3,1,j.PNG,j,6111487d928672ed8b815cae,2021-09-08_20h53.47.830,forced_choiceRT,2021.1.2,MacIntel,58.82352941,,,,,,,,,,,,,,,,,,,,,,
,0,j,1,0.758,7,0,28,3,1,j.PNG,j,6111487d928672ed8b815cae,2021-09-08_20h53.47.830,forced_choiceRT,2021.1.2,MacIntel,58.82352941,,,,,,,,,,,,,,,,,,,,,,
,0,j,1,0.673,7,1,29,3,1,j.PNG,j,6111487d928672ed8b815cae,2021-09-08_20h53.47.830,forced_choiceRT,2021.1.2,MacIntel,58.82352941,,,,,,,,,,,,,,,,,,,,,,
,0,j,1,0.642,7,2,30,3,1,j.PNG,j,6111487d928672ed8b815cae,2021-09-08_20h53.47.830,forced_choiceRT,2021.1.2,MacIntel,58.82352941,,,,,,,,,,,,,,,,,,,,,,
,0,j,1,0.626,7,3,31,3,1,j.PNG,j,6111487d928672ed8b815cae,2021-09-08_20h53.47.830,forced_choiceRT,2021.1.2,MacIntel,58.82352941,,,,,,,,,,,,,,,,,,,,,,
,0,g,1,0.975,8,0,32,1,1,g.PNG,g,6111487d928672ed8b815cae,2021-09-08_20h53.47.830,forced_choiceRT,2021.1.2,MacIntel,58.82352941,,,,,,,,,,,,,,,,,,,,,,
,0,g,1,0.606,8,1,33,1,1,g.PNG,g,6111487d928672ed8b815cae,2021-09-08_20h53.47.830,forced_choiceRT,2021.1.2,MacIntel,58.82352941,,,,,,,,,,,,,,,,,,,,,,
,0,g,1,0.559,8,2,34,1,1,g.PNG,g,6111487d928672ed8b815cae,2021-09-08_20h53.47.830,forced_choiceRT,2021.1.2,MacIntel,58.82352941,,,,,,,,,,,,,,,,,,,,,,
,0,g,1,0.552,8,3,35,1,1,g.PNG,g,6111487d928672ed8b815cae,2021-09-08_20h53.47.830,forced_choiceRT,2021.1.2,MacIntel,58.82352941,,,,,,,,,,,,,,,,,,,,,,
,0,j,1,0.865,9,0,36,3,1,j.PNG,j,6111487d928672ed8b815cae,2021-09-08_20h53.47.830,forced_choiceRT,2021.1.2,MacIntel,58.82352941,,,,,,,,,,,,,,,,,,,,,,
,0,f,1,0.727,9,1,37,0,1,f.PNG,f,6111487d928672ed8b815cae,2021-09-08_20h53.47.830,forced_choiceRT,2021.1.2,MacIntel,58.82352941,,,,,,,,,,,,,,,,,,,,,,
,0,h,1,0.623,9,2,38,2,1,h.PNG,h,6111487d928672ed8b815cae,2021-09-08_20h53.47.830,forced_choiceRT,2021.1.2,MacIntel,58.82352941,,,,,,,,,,,,,,,,,,,,,,
,0,j,1,0.743,9,3,39,3,1,j.PNG,j,6111487d928672ed8b815cae,2021-09-08_20h53.47.830,forced_choiceRT,2021.1.2,MacIntel,58.82352941,,,,,,,,,,,,,,,,,,,,,,
,0,f,1,0.713,10,0,40,0,1,f.PNG,f,6111487d928672ed8b815cae,2021-09-08_20h53.47.830,forced_choiceRT,2021.1.2,MacIntel,58.82352941,,,,,,,,,,,,,,,,,,,,,,
,0,j,1,0.683,10,1,41,3,1,j.PNG,j,6111487d928672ed8b815cae,2021-09-08_20h53.47.830,forced_choiceRT,2021.1.2,MacIntel,58.82352941,,,,,,,,,,,,,,,,,,,,,,
,0,h,1,1.707,10,2,42,2,1,h.PNG,h,6111487d928672ed8b815cae,2021-09-08_20h53.47.830,forced_choiceRT,2021.1.2,MacIntel,58.82352941,,,,,,,,,,,,,,,,,,,,,,
,0,j,1,0.704,10,3,43,3,1,j.PNG,j,6111487d928672ed8b815cae,2021-09-08_20h53.47.830,forced_choiceRT,2021.1.2,MacIntel,58.82352941,,,,,,,,,,,,,,,,,,,,,,
,0,g,1,0.735,11,0,44,1,1,g.PNG,g,6111487d928672ed8b815cae,2021-09-08_20h53.47.830,forced_choiceRT,2021.1.2,MacIntel,58.82352941,,,,,,,,,,,,,,,,,,,,,,
,0,g,1,0.483,11,1,45,1,1,g.PNG,g,6111487d928672ed8b815cae,2021-09-08_20h53.47.830,forced_choiceRT,2021.1.2,MacIntel,58.82352941,,,,,,,,,,,,,,,,,,,,,,
,0,h,1,0.807,11,2,46,2,1,h.PNG,h,6111487d928672ed8b815cae,2021-09-08_20h53.47.830,forced_choiceRT,2021.1.2,MacIntel,58.82352941,,,,,,,,,,,,,,,,,,,,,,
,0,f,1,0.595,11,3,47,0,1,f.PNG,f,6111487d928672ed8b815cae,2021-09-08_20h53.47.830,forced_choiceRT,2021.1.2,MacIntel,58.82352941,,,,,,,,,,,,,,,,,,,,,,
,0,j,1,0.64,12,0,48,3,1,j.PNG,j,6111487d928672ed8b815cae,2021-09-08_20h53.47.830,forced_choiceRT,2021.1.2,MacIntel,58.82352941,,,,,,,,,,,,,,,,,,,,,,
,0,g,1,0.664,12,1,49,1,1,g.PNG,g,6111487d928672ed8b815cae,2021-09-08_20h53.47.830,forced_choiceRT,2021.1.2,MacIntel,58.82352941,,,,,,,,,,,,,,,,,,,,,,
,0,g,1,0.831,12,2,50,1,1,g.PNG,g,6111487d928672ed8b815cae,2021-09-08_20h53.47.830,forced_choiceRT,2021.1.2,MacIntel,58.82352941,,,,,,,,,,,,,,,,,,,,,,
,0,f,1,0.768,12,3,51,0,1,f.PNG,f,6111487d928672ed8b815cae,2021-09-08_20h53.47.830,forced_choiceRT,2021.1.2,MacIntel,58.82352941,,,,,,,,,,,,,,,,,,,,,,
,0,j,1,0.734,13,0,52,3,1,j.PNG,j,6111487d928672ed8b815cae,2021-09-08_20h53.47.830,forced_choiceRT,2021.1.2,MacIntel,58.82352941,,,,,,,,,,,,,,,,,,,,,,
,0,h,1,1.382,13,1,53,2,1,h.PNG,h,6111487d928672ed8b815cae,2021-09-08_20h53.47.830,forced_choiceRT,2021.1.2,MacIntel,58.82352941,,,,,,,,,,,,,,,,,,,,,,
,0,j,1,0.781,13,2,54,3,1,j.PNG,j,6111487d928672ed8b815cae,2021-09-08_20h53.47.830,forced_choiceRT,2021.1.2,MacIntel,58.82352941,,,,,,,,,,,,,,,,,,,,,,
,0,g,1,0.726,13,3,55,1,1,g.PNG,g,6111487d928672ed8b815cae,2021-09-08_20h53.47.830,forced_choiceRT,2021.1.2,MacIntel,58.82352941,,,,,,,,,,,,,,,,,,,,,,
,0,h,1,0.632,14,0,56,2,1,h.PNG,h,6111487d928672ed8b815cae,2021-09-08_20h53.47.830,forced_choiceRT,2021.1.2,MacIntel,58.82352941,,,,,,,,,,,,,,,,,,,,,,
,0,h,1,1.817,14,1,57,2,1,h.PNG,h,6111487d928672ed8b815cae,2021-09-08_20h53.47.830,forced_choiceRT,2021.1.2,MacIntel,58.82352941,,,,,,,,,,,,,,,,,,,,,,
,0,f,0,0.651,14,2,58,1,1,g.PNG,g,6111487d928672ed8b815cae,2021-09-08_20h53.47.830,forced_choiceRT,2021.1.2,MacIntel,58.82352941,,,,,,,,,,,,,,,,,,,,,,
,0,f,1,0.942,14,3,59,0,1,f.PNG,f,6111487d928672ed8b815cae,2021-09-08_20h53.47.830,forced_choiceRT,2021.1.2,MacIntel,58.82352941,,,,,,,,,,,,,,,,,,,,,,
,,,,,,,,,,,,6111487d928672ed8b815cae,2021-09-08_20h53.47.830,forced_choiceRT,2021.1.2,MacIntel,58.82352941,j,2.26,0,0,0,0,1,,,,,,,,,,,,,,,
,,,,,,,,,,,,6111487d928672ed8b815cae,2021-09-08_20h53.47.830,forced_choiceRT,2021.1.2,MacIntel,58.82352941,j,1.764,1,0,1,0,1,,,,,,,,,,,,,,,
,,,,,,,,,,,,6111487d928672ed8b815cae,2021-09-08_20h53.47.830,forced_choiceRT,2021.1.2,MacIntel,58.82352941,f,2.174,2,0,2,0,1,,,,,,,,,,,,,,,
,,,,,,,,,,,,6111487d928672ed8b815cae,2021-09-08_20h53.47.830,forced_choiceRT,2021.1.2,MacIntel,58.82352941,f,2.172,3,0,3,0,1,,,,,,,,,,,,,,,
,,,,,,,,,,,,6111487d928672ed8b815cae,2021-09-08_20h53.47.830,forced_choiceRT,2021.1.2,MacIntel,58.82352941,f,2.069,4,0,4,0,1,,,,,,,,,,,,,,,
,,,,,,,,,,,,6111487d928672ed8b815cae,2021-09-08_20h53.47.830,forced_choiceRT,2021.1.2,MacIntel,58.82352941,f,2.058,5,0,5,0,1,,,,,,,,,,,,,,,
,,,,,,,,,,,,6111487d928672ed8b815cae,2021-09-08_20h53.47.830,forced_choiceRT,2021.1.2,MacIntel,58.82352941,g,2.077,6,0,6,0,1,,,,,,,,,,,,,,,
,,,,,,,,,,,,6111487d928672ed8b815cae,2021-09-08_20h53.47.830,forced_choiceRT,2021.1.2,MacIntel,58.82352941,f,2.065,7,0,7,0,1,,,,,,,,,,,,,,,
,,,,,,,,,,,,6111487d928672ed8b815cae,2021-09-08_20h53.47.830,forced_choiceRT,2021.1.2,MacIntel,58.82352941,j,2.004,8,0,8,0,1,,,,,,,,,,,,,,,
,,,,,,,,,,,,6111487d928672ed8b815cae,2021-09-08_20h53.47.830,forced_choiceRT,2021.1.2,MacIntel,58.82352941,h,2.049,9,0,9,0,1,,,,,,,,,,,,,,,
,,,,,,,,,,,,6111487d928672ed8b815cae,2021-09-08_20h53.47.830,forced_choiceRT,2021.1.2,MacIntel,58.82352941,f,1.985,10,0,10,0,1,,,,,,,,,,,,,,,
,,,,,,,,,,,,6111487d928672ed8b815cae,2021-09-08_20h53.47.830,forced_choiceRT,2021.1.2,MacIntel,58.82352941,j,2.091,11,0,11,0,1,,,,,,,,,,,,,,,
,,,,,,,,,,,,6111487d928672ed8b815cae,2021-09-08_20h53.47.830,forced_choiceRT,2021.1.2,MacIntel,58.82352941,h,2.074,12,0,12,0,1,,,,,,,,,,,,,,,
,,,,,,,,,,,,6111487d928672ed8b815cae,2021-09-08_20h53.47.830,forced_choiceRT,2021.1.2,MacIntel,58.82352941,j,2.043,13,0,13,0,1,,,,,,,,,,,,,,,
,,,,,,,,,,,,6111487d928672ed8b815cae,2021-09-08_20h53.47.830,forced_choiceRT,2021.1.2,MacIntel,58.82352941,h,2.066,14,0,14,0,1,,,,,,,,,,,,,,,
,,,,,,,,,,,,6111487d928672ed8b815cae,2021-09-08_20h53.47.830,forced_choiceRT,2021.1.2,MacIntel,58.82352941,j,2.117,15,0,15,0,1,,,,,,,,,,,,,,,
,,,,,,,,,,,,6111487d928672ed8b815cae,2021-09-08_20h53.47.830,forced_choiceRT,2021.1.2,MacIntel,58.82352941,h,2.094,16,0,16,0,1,,,,,,,,,,,,,,,
,,,,,,,,,,,,6111487d928672ed8b815cae,2021-09-08_20h53.47.830,forced_choiceRT,2021.1.2,MacIntel,58.82352941,f,2.053,17,0,17,0,1,,,,,,,,,,,,,,,
,,,,,,,,,,,,6111487d928672ed8b815cae,2021-09-08_20h53.47.830,forced_choiceRT,2021.1.2,MacIntel,58.82352941,g,2.111,18,0,18,0,1,,,,,,,,,,,,,,,
,,,,,,,,,,,,6111487d928672ed8b815cae,2021-09-08_20h53.47.830,forced_choiceRT,2021.1.2,MacIntel,58.82352941,j,2.226,19,0,19,0,1,,,,,,,,,,,,,,,
,1.27,,,,,,,,,j.PNG,j,6111487d928672ed8b815cae,2021-09-08_20h53.47.830,forced_choiceRT,2021.1.2,MacIntel,58.82352941,,,,,,,,1,Ontime,f,0,2.098,0,0,0,3,1,,,,,
,1.09,,,,,,,,,h.PNG,h,6111487d928672ed8b815cae,2021-09-08_20h53.47.830,forced_choiceRT,2021.1.2,MacIntel,58.82352941,,,,,,,,1,Fast,h,1,1.876,0,1,1,2,1,,,,,
,1.8,,,,,,,,,j.PNG,j,6111487d928672ed8b815cae,2021-09-08_20h53.47.830,forced_choiceRT,2021.1.2,MacIntel,58.82352941,,,,,,,,1,Slow,j,1,2.435,0,2,2,3,1,,,,,
,1.79,,,,,,,,,h.PNG,h,6111487d928672ed8b815cae,2021-09-08_20h53.47.830,forced_choiceRT,2021.1.2,MacIntel,58.82352941,,,,,,,,1,Slow,h,1,2.428,0,3,3,2,1,,,,,
,1.87,,,,,,,,,g.PNG,g,6111487d928672ed8b815cae,2021-09-08_20h53.47.830,forced_choiceRT,2021.1.2,MacIntel,58.82352941,,,,,,,,1,Slow,f,0,2.401,1,0,4,1,1,,,,,
,0.15,,,,,,,,,j.PNG,j,6111487d928672ed8b815cae,2021-09-08_20h53.47.830,forced_choiceRT,2021.1.2,MacIntel,58.82352941,,,,,,,,1,Fast,j,1,1.867,1,1,5,3,1,,,,,
,1.18,,,,,,,,,g.PNG,g,6111487d928672ed8b815cae,2021-09-08_20h53.47.830,forced_choiceRT,2021.1.2,MacIntel,58.82352941,,,,,,,,1,Ontime,g,1,2.082,1,2,6,1,1,,,,,
,1.31,,,,,,,,,f.PNG,f,6111487d928672ed8b815cae,2021-09-08_20h53.47.830,forced_choiceRT,2021.1.2,MacIntel,58.82352941,,,,,,,,1,Ontime,f,1,1.96,1,3,7,0,1,,,,,
,1.94,,,,,,,,,h.PNG,h,6111487d928672ed8b815cae,2021-09-08_20h53.47.830,forced_choiceRT,2021.1.2,MacIntel,58.82352941,,,,,,,,1,Slow,h,1,2.584,2,0,8,2,1,,,,,
,0.15,,,,,,,,,j.PNG,j,6111487d928672ed8b815cae,2021-09-08_20h53.47.830,forced_choiceRT,2021.1.2,MacIntel,58.82352941,,,,,,,,1,Fast,j,1,1.76,2,1,9,3,1,,,,,
,0.99,,,,,,,,,h.PNG,h,6111487d928672ed8b815cae,2021-09-08_20h53.47.830,forced_choiceRT,2021.1.2,MacIntel,58.82352941,,,,,,,,1,Slow,h,1,2.175,2,2,10,2,1,,,,,
,1.59,,,,,,,,,g.PNG,g,6111487d928672ed8b815cae,2021-09-08_20h53.47.830,forced_choiceRT,2021.1.2,MacIntel,58.82352941,,,,,,,,1,Slow,g,1,2.233,2,3,11,1,1,,,,,
,0.26,,,,,,,,,f.PNG,f,6111487d928672ed8b815cae,2021-09-08_20h53.47.830,forced_choiceRT,2021.1.2,MacIntel,58.82352941,,,,,,,,1,Ontime,f,1,1.94,3,0,12,0,1,,,,,
,0.62,,,,,,,,,f.PNG,f,6111487d928672ed8b815cae,2021-09-08_20h53.47.830,forced_choiceRT,2021.1.2,MacIntel,58.82352941,,,,,,,,1,Slow,f,1,2.433,3,1,13,0,1,,,,,
,1.9,,,,,,,,,f.PNG,f,6111487d928672ed8b815cae,2021-09-08_20h53.47.830,forced_choiceRT,2021.1.2,MacIntel,58.82352941,,,,,,,,1,Slow,f,1,2.473,3,2,14,0,1,,,,,
,0.57,,,,,,,,,h.PNG,h,6111487d928672ed8b815cae,2021-09-08_20h53.47.830,forced_choiceRT,2021.1.2,MacIntel,58.82352941,,,,,,,,1,Ontime,h,1,2.006,3,3,15,2,1,,,,,
,1.79,,,,,,,,,h.PNG,h,6111487d928672ed8b815cae,2021-09-08_20h53.47.830,forced_choiceRT,2021.1.2,MacIntel,58.82352941,,,,,,,,1,Slow,h,1,2.341,4,0,16,2,1,,,,,
,0.62,,,,,,,,,g.PNG,g,6111487d928672ed8b815cae,2021-09-08_20h53.47.830,forced_choiceRT,2021.1.2,MacIntel,58.82352941,,,,,,,,1,Ontime,g,1,2.019,4,1,17,1,1,,,,,
,1.8,,,,,,,,,f.PNG,f,6111487d928672ed8b815cae,2021-09-08_20h53.47.830,forced_choiceRT,2021.1.2,MacIntel,58.82352941,,,,,,,,1,Slow,f,1,2.383,4,2,18,0,1,,,,,
,0.29,,,,,,,,,h.PNG,h,6111487d928672ed8b815cae,2021-09-08_20h53.47.830,forced_choiceRT,2021.1.2,MacIntel,58.82352941,,,,,,,,1,Ontime,h,1,1.966,4,3,19,2,1,,,,,
,1.89,,,,,,,,,j.PNG,j,6111487d928672ed8b815cae,2021-09-08_20h53.47.830,forced_choiceRT,2021.1.2,MacIntel,58.82352941,,,,,,,,1,Slow,j,1,2.357,5,0,20,3,1,,,,,
,0.95,,,,,,,,,j.PNG,j,6111487d928672ed8b815cae,2021-09-08_20h53.47.830,forced_choiceRT,2021.1.2,MacIntel,58.82352941,,,,,,,,1,Ontime,j,1,2.074,5,1,21,3,1,,,,,
,0.27,,,,,,,,,f.PNG,f,6111487d928672ed8b815cae,2021-09-08_20h53.47.830,forced_choiceRT,2021.1.2,MacIntel,58.82352941,,,,,,,,1,Ontime,f,1,2.099,5,2,22,0,1,,,,,
,0.06,,,,,,,,,f.PNG,f,6111487d928672ed8b815cae,2021-09-08_20h53.47.830,forced_choiceRT,2021.1.2,MacIntel,58.82352941,,,,,,,,1,Slow,g,0,2.223,5,3,23,0,1,,,,,
,1.29,,,,,,,,,f.PNG,f,6111487d928672ed8b815cae,2021-09-08_20h53.47.830,forced_choiceRT,2021.1.2,MacIntel,58.82352941,,,,,,,,1,Slow,f,1,2.234,6,0,24,0,1,,,,,
,1.85,,,,,,,,,g.PNG,g,6111487d928672ed8b815cae,2021-09-08_20h53.47.830,forced_choiceRT,2021.1.2,MacIntel,58.82352941,,,,,,,,1,Slow,g,1,2.409,6,1,25,1,1,,,,,
,0.22,,,,,,,,,j.PNG,j,6111487d928672ed8b815cae,2021-09-08_20h53.47.830,forced_choiceRT,2021.1.2,MacIntel,58.82352941,,,,,,,,1,Ontime,j,1,2.05,6,2,26,3,1,,,,,
,0.9,,,,,,,,,h.PNG,h,6111487d928672ed8b815cae,2021-09-08_20h53.47.830,forced_choiceRT,2021.1.2,MacIntel,58.82352941,,,,,,,,1,Slow,h,1,2.143,6,3,27,2,1,,,,,
,1.48,,,,,,,,,j.PNG,j,6111487d928672ed8b815cae,2021-09-08_20h53.47.830,forced_choiceRT,2021.1.2,MacIntel,58.82352941,,,,,,,,1,Slow,j,1,2.151,7,0,28,3,1,,,,,
,1.52,,,,,,,,,g.PNG,g,6111487d928672ed8b815cae,2021-09-08_20h53.47.830,forced_choiceRT,2021.1.2,MacIntel,58.82352941,,,,,,,,1,Ontime,f,0,1.999,7,1,29,1,1,,,,,
,1.41,,,,,,,,,j.PNG,j,6111487d928672ed8b815cae,2021-09-08_20h53.47.830,forced_choiceRT,2021.1.2,MacIntel,58.82352941,,,,,,,,1,Slow,j,1,2.252,7,2,30,3,1,,,,,
,0.97,,,,,,,,,f.PNG,f,6111487d928672ed8b815cae,2021-09-08_20h53.47.830,forced_choiceRT,2021.1.2,MacIntel,58.82352941,,,,,,,,1,Ontime,f,1,2.035,7,3,31,0,1,,,,,
,1.86,,,,,,,,,g.PNG,g,6111487d928672ed8b815cae,2021-09-08_20h53.47.830,forced_choiceRT,2021.1.2,MacIntel,58.82352941,,,,,,,,1,Slow,f,0,2.4,8,0,32,1,1,,,,,
,0.6,,,,,,,,,g.PNG,g,6111487d928672ed8b815cae,2021-09-08_20h53.47.830,forced_choiceRT,2021.1.2,MacIntel,58.82352941,,,,,,,,1,Ontime,g,1,1.928,8,1,33,1,1,,,,,
,1.04,,,,,,,,,f.PNG,f,6111487d928672ed8b815cae,2021-09-08_20h53.47.830,forced_choiceRT,2021.1.2,MacIntel,58.82352941,,,,,,,,1,Ontime,f,1,2.077,8,2,34,0,1,,,,,
,0.51,,,,,,,,,g.PNG,g,6111487d928672ed8b815cae,2021-09-08_20h53.47.830,forced_choiceRT,2021.1.2,MacIntel,58.82352941,,,,,,,,1,Ontime,g,1,1.977,8,3,35,1,1,,,,,
,1.08,,,,,,,,,g.PNG,g,6111487d928672ed8b815cae,2021-09-08_20h53.47.830,forced_choiceRT,2021.1.2,MacIntel,58.82352941,,,,,,,,1,Slow,g,1,2.169,9,0,36,1,1,,,,,
,0.3,,,,,,,,,j.PNG,j,6111487d928672ed8b815cae,2021-09-08_20h53.47.830,forced_choiceRT,2021.1.2,MacIntel,58.82352941,,,,,,,,1,Ontime,j,1,1.985,9,1,37,3,1,,,,,
,0.82,,,,,,,,,h.PNG,h,6111487d928672ed8b815cae,2021-09-08_20h53.47.830,forced_choiceRT,2021.1.2,MacIntel,58.82352941,,,,,,,,1,Ontime,h,1,1.984,9,2,38,2,1,,,,,
,0.17,,,,,,,,,h.PNG,h,6111487d928672ed8b815cae,2021-09-08_20h53.47.830,forced_choiceRT,2021.1.2,MacIntel,58.82352941,,,,,,,,1,Fast,h,1,1.788,9,3,39,2,1,,,,,
,,,,,,,,,,,,6111487d928672ed8b815cae,2021-09-08_20h53.47.830,forced_choiceRT,2021.1.2,MacIntel,58.82352941,,,,,,,,,,,,,,,,,,0,0,0,0,1
,1.17,,,,,,,,,f.PNG,f,6111487d928672ed8b815cae,2021-09-08_20h53.47.830,forced_choiceRT,2021.1.2,MacIntel,58.82352941,,,,,,,,2,Ontime,f,1,2.038,0,0,0,0,1,,,,,
,1.82,,,,,,,,,f.PNG,f,6111487d928672ed8b815cae,2021-09-08_20h53.47.830,forced_choiceRT,2021.1.2,MacIntel,58.82352941,,,,,,,,2,Slow,f,1,2.373,0,1,1,0,1,,,,,
,1.69,,,,,,,,,f.PNG,f,6111487d928672ed8b815cae,2021-09-08_20h53.47.830,forced_choiceRT,2021.1.2,MacIntel,58.82352941,,,,,,,,2,Slow,f,1,2.335,0,2,2,0,1,,,,,
,0.29,,,,,,,,,h.PNG,h,6111487d928672ed8b815cae,2021-09-08_20h53.47.830,forced_choiceRT,2021.1.2,MacIntel,58.82352941,,,,,,,,2,Ontime,h,1,1.998,0,3,3,2,1,,,,,
,0.04,,,,,,,,,f.PNG,f,6111487d928672ed8b815cae,2021-09-08_20h53.47.830,forced_choiceRT,2021.1.2,MacIntel,58.82352941,,,,,,,,2,Ontime,f,1,1.983,1,0,4,0,1,,,,,
,1.63,,,,,,,,,f.PNG,f,6111487d928672ed8b815cae,2021-09-08_20h53.47.830,forced_choiceRT,2021.1.2,MacIntel,58.82352941,,,,,,,,2,Slow,f,1,2.241,1,1,5,0,1,,,,,
,0.74,,,,,,,,,g.PNG,g,6111487d928672ed8b815cae,2021-09-08_20h53.47.830,forced_choiceRT,2021.1.2,MacIntel,58.82352941,,,,,,,,2,Ontime,g,1,2.057,1,2,6,1,1,,,,,
,1.09,,,,,,,,,f.PNG,f,6111487d928672ed8b815cae,2021-09-08_20h53.47.830,forced_choiceRT,2021.1.2,MacIntel,58.82352941,,,,,,,,2,Ontime,f,1,2.069,1,3,7,0,1,,,,,
,0.04,,,,,,,,,g.PNG,g,6111487d928672ed8b815cae,2021-09-08_20h53.47.830,forced_choiceRT,2021.1.2,MacIntel,58.82352941,,,,,,,,2,Ontime,g,1,1.967,2,0,8,1,1,,,,,
,0.96,,,,,,,,,f.PNG,f,6111487d928672ed8b815cae,2021-09-08_20h53.47.830,forced_choiceRT,2021.1.2,MacIntel,58.82352941,,,,,,,,2,Slow,f,1,2.15,2,1,9,0,1,,,,,
,1.02,,,,,,,,,h.PNG,h,6111487d928672ed8b815cae,2021-09-08_20h53.47.830,forced_choiceRT,2021.1.2,MacIntel,58.82352941,,,,,,,,2,Ontime,h,1,2.09,2,2,10,2,1,,,,,
,0.96,,,,,,,,,j.PNG,j,6111487d928672ed8b815cae,2021-09-08_20h53.47.830,forced_choiceRT,2021.1.2,MacIntel,58.82352941,,,,,,,,2,Slow,j,1,6.752,2,3,11,3,1,,,,,
,1.94,,,,,,,,,j.PNG,j,6111487d928672ed8b815cae,2021-09-08_20h53.47.830,forced_choiceRT,2021.1.2,MacIntel,58.82352941,,,,,,,,2,Slow,j,1,2.618,3,0,12,3,1,,,,,
,0.06,,,,,,,,,g.PNG,g,6111487d928672ed8b815cae,2021-09-08_20h53.47.830,forced_choiceRT,2021.1.2,MacIntel,58.82352941,,,,,,,,2,Fast,g,1,1.652,3,1,13,1,1,,,,,
,1.43,,,,,,,,,j.PNG,j,6111487d928672ed8b815cae,2021-09-08_20h53.47.830,forced_choiceRT,2021.1.2,MacIntel,58.82352941,,,,,,,,2,Slow,j,1,2.11,3,2,14,3,1,,,,,
,1.15,,,,,,,,,f.PNG,f,6111487d928672ed8b815cae,2021-09-08_20h53.47.830,forced_choiceRT,2021.1.2,MacIntel,58.82352941,,,,,,,,2,Ontime,f,1,2.033,3,3,15,0,1,,,,,
,0.92,,,,,,,,,j.PNG,j,6111487d928672ed8b815cae,2021-09-08_20h53.47.830,forced_choiceRT,2021.1.2,MacIntel,58.82352941,,,,,,,,2,Ontime,j,1,2.087,4,0,16,3,1,,,,,
,1.42,,,,,,,,,h.PNG,h,6111487d928672ed8b815cae,2021-09-08_20h53.47.830,forced_choiceRT,2021.1.2,MacIntel,58.82352941,,,,,,,,2,Slow,h,1,2.267,4,1,17,2,1,,,,,
,1.95,,,,,,,,,h.PNG,h,6111487d928672ed8b815cae,2021-09-08_20h53.47.830,forced_choiceRT,2021.1.2,MacIntel,58.82352941,,,,,,,,2,Slow,h,1,2.536,4,2,18,2,1,,,,,
,0.69,,,,,,,,,g.PNG,g,6111487d928672ed8b815cae,2021-09-08_20h53.47.830,forced_choiceRT,2021.1.2,MacIntel,58.82352941,,,,,,,,2,Ontime,g,1,1.98,4,3,19,1,1,,,,,
,1.62,,,,,,,,,j.PNG,j,6111487d928672ed8b815cae,2021-09-08_20h53.47.830,forced_choiceRT,2021.1.2,MacIntel,58.82352941,,,,,,,,2,Slow,j,1,2.192,5,0,20,3,1,,,,,
,1.17,,,,,,,,,g.PNG,g,6111487d928672ed8b815cae,2021-09-08_20h53.47.830,forced_choiceRT,2021.1.2,MacIntel,58.82352941,,,,,,,,2,Ontime,g,1,2.066,5,1,21,1,1,,,,,
,1.79,,,,,,,,,h.PNG,h,6111487d928672ed8b815cae,2021-09-08_20h53.47.830,forced_choiceRT,2021.1.2,MacIntel,58.82352941,,,,,,,,2,Slow,h,1,2.451,5,2,22,2,1,,,,,
,1.72,,,,,,,,,g.PNG,g,6111487d928672ed8b815cae,2021-09-08_20h53.47.830,forced_choiceRT,2021.1.2,MacIntel,58.82352941,,,,,,,,2,Slow,f,0,2.291,5,3,23,1,1,,,,,
,0.22,,,,,,,,,j.PNG,j,6111487d928672ed8b815cae,2021-09-08_20h53.47.830,forced_choiceRT,2021.1.2,MacIntel,58.82352941,,,,,,,,2,Fast,j,1,1.766,6,0,24,3,1,,,,,
,0.64,,,,,,,,,h.PNG,h,6111487d928672ed8b815cae,2021-09-08_20h53.47.830,forced_choiceRT,2021.1.2,MacIntel,58.82352941,,,,,,,,2,Ontime,h,1,1.992,6,1,25,2,1,,,,,
,1.33,,,,,,,,,f.PNG,f,6111487d928672ed8b815cae,2021-09-08_20h53.47.830,forced_choiceRT,2021.1.2,MacIntel,58.82352941,,,,,,,,2,Slow,f,1,2.214,6,2,26,0,1,,,,,
,1.95,,,,,,,,,h.PNG,h,6111487d928672ed8b815cae,2021-09-08_20h53.47.830,forced_choiceRT,2021.1.2,MacIntel,58.82352941,,,,,,,,2,Slow,h,1,2.614,6,3,27,2,1,,,,,
,1.86,,,,,,,,,j.PNG,j,6111487d928672ed8b815cae,2021-09-08_20h53.47.830,forced_choiceRT,2021.1.2,MacIntel,58.82352941,,,,,,,,2,Slow,j,1,2.418,7,0,28,3,1,,,,,
,1.66,,,,,,,,,g.PNG,g,6111487d928672ed8b815cae,2021-09-08_20h53.47.830,forced_choiceRT,2021.1.2,MacIntel,58.82352941,,,,,,,,2,Slow,f,0,2.175,7,1,29,1,1,,,,,
,1.97,,,,,,,,,j.PNG,j,6111487d928672ed8b815cae,2021-09-08_20h53.47.830,forced_choiceRT,2021.1.2,MacIntel,58.82352941,,,,,,,,2,Slow,j,1,2.709,7,2,30,3,1,,,,,
,1.01,,,,,,,,,j.PNG,j,6111487d928672ed8b815cae,2021-09-08_20h53.47.830,forced_choiceRT,2021.1.2,MacIntel,58.82352941,,,,,,,,2,Ontime,j,1,1.931,7,3,31,3,1,,,,,
,1.61,,,,,,,,,g.PNG,g,6111487d928672ed8b815cae,2021-09-08_20h53.47.830,forced_choiceRT,2021.1.2,MacIntel,58.82352941,,,,,,,,2,Slow,g,1,2.133,8,0,32,1,1,,,,,
,0.67,,,,,,,,,f.PNG,f,6111487d928672ed8b815cae,2021-09-08_20h53.47.830,forced_choiceRT,2021.1.2,MacIntel,58.82352941,,,,,,,,2,Ontime,f,1,2.03,8,1,33,0,1,,,,,
,0.08,,,,,,,,,j.PNG,j,6111487d928672ed8b815cae,2021-09-08_20h53.47.830,forced_choiceRT,2021.1.2,MacIntel,58.82352941,,,,,,,,2,Ontime,j,1,2.043,8,2,34,3,1,,,,,
,1.83,,,,,,,,,h.PNG,h,6111487d928672ed8b815cae,2021-09-08_20h53.47.830,forced_choiceRT,2021.1.2,MacIntel,58.82352941,,,,,,,,2,Slow,h,1,2.541,8,3,35,2,1,,,,,
,1.19,,,,,,,,,g.PNG,g,6111487d928672ed8b815cae,2021-09-08_20h53.47.830,forced_choiceRT,2021.1.2,MacIntel,58.82352941,,,,,,,,2,Ontime,g,1,2.055,9,0,36,1,1,,,,,
,1.21,,,,,,,,,h.PNG,h,6111487d928672ed8b815cae,2021-09-08_20h53.47.830,forced_choiceRT,2021.1.2,MacIntel,58.82352941,,,,,,,,2,Ontime,h,1,1.988,9,1,37,2,1,,,,,
,1.75,,,,,,,,,h.PNG,h,6111487d928672ed8b815cae,2021-09-08_20h53.47.830,forced_choiceRT,2021.1.2,MacIntel,58.82352941,,,,,,,,2,Slow,h,1,2.284,9,2,38,2,1,,,,,
,1.47,,,,,,,,,g.PNG,g,6111487d928672ed8b815cae,2021-09-08_20h53.47.830,forced_choiceRT,2021.1.2,MacIntel,58.82352941,,,,,,,,2,Ontime,g,1,2.058,9,3,39,1,1,,,,,
,,,,,,,,,,,,6111487d928672ed8b815cae,2021-09-08_20h53.47.830,forced_choiceRT,2021.1.2,MacIntel,58.82352941,,,,,,,,,,,,,,,,,,1,0,1,0,1
,1.16,,,,,,,,,g.PNG,g,6111487d928672ed8b815cae,2021-09-08_20h53.47.830,forced_choiceRT,2021.1.2,MacIntel,58.82352941,,,,,,,,3,Slow,g,1,2.367,0,0,0,1,1,,,,,
,1.29,,,,,,,,,g.PNG,g,6111487d928672ed8b815cae,2021-09-08_20h53.47.830,forced_choiceRT,2021.1.2,MacIntel,58.82352941,,,,,,,,3,Fast,g,1,1.899,0,1,1,1,1,,,,,
,1.96,,,,,,,,,f.PNG,f,6111487d928672ed8b815cae,2021-09-08_20h53.47.830,forced_choiceRT,2021.1.2,MacIntel,58.82352941,,,,,,,,3,Slow,f,1,2.525,0,2,2,0,1,,,,,
,1.74,,,,,,,,,g.PNG,g,6111487d928672ed8b815cae,2021-09-08_20h53.47.830,forced_choiceRT,2021.1.2,MacIntel,58.82352941,,,,,,,,3,Slow,g,1,2.208,0,3,3,1,1,,,,,
,1.51,,,,,,,,,f.PNG,f,6111487d928672ed8b815cae,2021-09-08_20h53.47.830,forced_choiceRT,2021.1.2,MacIntel,58.82352941,,,,,,,,3,Fast,h,0,1.867,1,0,4,0,1,,,,,
,1.39,,,,,,,,,f.PNG,f,6111487d928672ed8b815cae,2021-09-08_20h53.47.830,forced_choiceRT,2021.1.2,MacIntel,58.82352941,,,,,,,,3,Slow,f,1,2.218,1,1,5,0,1,,,,,
,0.63,,,,,,,,,f.PNG,f,6111487d928672ed8b815cae,2021-09-08_20h53.47.830,forced_choiceRT,2021.1.2,MacIntel,58.82352941,,,,,,,,3,Ontime,f,1,2.025,1,2,6,0,1,,,,,
,1.09,,,,,,,,,j.PNG,j,6111487d928672ed8b815cae,2021-09-08_20h53.47.830,forced_choiceRT,2021.1.2,MacIntel,58.82352941,,,,,,,,3,Slow,j,1,2.216,1,3,7,3,1,,,,,
,1.98,,,,,,,,,g.PNG,g,6111487d928672ed8b815cae,2021-09-08_20h53.47.830,forced_choiceRT,2021.1.2,MacIntel,58.82352941,,,,,,,,3,Slow,g,1,2.6,2,0,8,1,1,,,,,
,1.38,,,,,,,,,g.PNG,g,6111487d928672ed8b815cae,2021-09-08_20h53.47.830,forced_choiceRT,2021.1.2,MacIntel,58.82352941,,,,,,,,3,Ontime,g,1,1.972,2,1,9,1,1,,,,,
,1.99,,,,,,,,,j.PNG,j,6111487d928672ed8b815cae,2021-09-08_20h53.47.830,forced_choiceRT,2021.1.2,MacIntel,58.82352941,,,,,,,,3,Slow,j,1,2.608,2,2,10,3,1,,,,,
,1.87,,,,,,,,,g.PNG,g,6111487d928672ed8b815cae,2021-09-08_20h53.47.830,forced_choiceRT,2021.1.2,MacIntel,58.82352941,,,,,,,,3,Slow,g,1,2.358,2,3,11,1,1,,,,,
,0.08,,,,,,,,,h.PNG,h,6111487d928672ed8b815cae,2021-09-08_20h53.47.830,forced_choiceRT,2021.1.2,MacIntel,58.82352941,,,,,,,,3,Ontime,h,1,1.998,3,0,12,2,1,,,,,
,1.51,,,,,,,,,j.PNG,j,6111487d928672ed8b815cae,2021-09-08_20h53.47.830,forced_choiceRT,2021.1.2,MacIntel,58.82352941,,,,,,,,3,Slow,j,1,2.101,3,1,13,3,1,,,,,
,0.85,,,,,,,,,g.PNG,g,6111487d928672ed8b815cae,2021-09-08_20h53.47.830,forced_choiceRT,2021.1.2,MacIntel,58.82352941,,,,,,,,3,Ontime,g,1,2.009,3,2,14,1,1,,,,,
,1.36,,,,,,,,,h.PNG,h,6111487d928672ed8b815cae,2021-09-08_20h53.47.830,forced_choiceRT,2021.1.2,MacIntel,58.82352941,,,,,,,,3,Slow,h,1,2.406,3,3,15,2,1,,,,,
,1.53,,,,,,,,,j.PNG,j,6111487d928672ed8b815cae,2021-09-08_20h53.47.830,forced_choiceRT,2021.1.2,MacIntel,58.82352941,,,,,,,,3,Ontime,j,1,2.044,4,0,16,3,1,,,,,
,1,,,,,,,,,h.PNG,h,6111487d928672ed8b815cae,2021-09-08_20h53.47.830,forced_choiceRT,2021.1.2,MacIntel,58.82352941,,,,,,,,3,Slow,h,1,2.153,4,1,17,2,1,,,,,
,1.24,,,,,,,,,j.PNG,j,6111487d928672ed8b815cae,2021-09-08_20h53.47.830,forced_choiceRT,2021.1.2,MacIntel,58.82352941,,,,,,,,3,Fast,j,1,1.816,4,2,18,3,1,,,,,
,0.3,,,,,,,,,h.PNG,h,6111487d928672ed8b815cae,2021-09-08_20h53.47.830,forced_choiceRT,2021.1.2,MacIntel,58.82352941,,,,,,,,3,Ontime,h,1,2.036,4,3,19,2,1,,,,,
,1.22,,,,,,,,,g.PNG,g,6111487d928672ed8b815cae,2021-09-08_20h53.47.830,forced_choiceRT,2021.1.2,MacIntel,58.82352941,,,,,,,,3,Ontime,g,1,2.067,5,0,20,1,1,,,,,
,1.86,,,,,,,,,f.PNG,f,6111487d928672ed8b815cae,2021-09-08_20h53.47.830,forced_choiceRT,2021.1.2,MacIntel,58.82352941,,,,,,,,3,Slow,f,1,2.399,5,1,21,0,1,,,,,
,0.66,,,,,,,,,f.PNG,f,6111487d928672ed8b815cae,2021-09-08_20h53.47.830,forced_choiceRT,2021.1.2,MacIntel,58.82352941,,,,,,,,3,Ontime,f,1,2.093,5,2,22,0,1,,,,,
,1.19,,,,,,,,,g.PNG,g,6111487d928672ed8b815cae,2021-09-08_20h53.47.830,forced_choiceRT,2021.1.2,MacIntel,58.82352941,,,,,,,,3,Ontime,g,1,2.059,5,3,23,1,1,,,,,
,1.29,,,,,,,,,f.PNG,f,6111487d928672ed8b815cae,2021-09-08_20h53.47.830,forced_choiceRT,2021.1.2,MacIntel,58.82352941,,,,,,,,3,Ontime,f,1,2.043,6,0,24,0,1,,,,,
,1.19,,,,,,,,,j.PNG,j,6111487d928672ed8b815cae,2021-09-08_20h53.47.830,forced_choiceRT,2021.1.2,MacIntel,58.82352941,,,,,,,,3,Slow,j,1,2.16,6,1,25,3,1,,,,,
,0.34,,,,,,,,,j.PNG,j,6111487d928672ed8b815cae,2021-09-08_20h53.47.830,forced_choiceRT,2021.1.2,MacIntel,58.82352941,,,,,,,,3,Ontime,j,1,1.997,6,2,26,3,1,,,,,
,1.61,,,,,,,,,h.PNG,h,6111487d928672ed8b815cae,2021-09-08_20h53.47.830,forced_choiceRT,2021.1.2,MacIntel,58.82352941,,,,,,,,3,Ontime,h,1,2.049,6,3,27,2,1,,,,,
,1.74,,,,,,,,,j.PNG,j,6111487d928672ed8b815cae,2021-09-08_20h53.47.830,forced_choiceRT,2021.1.2,MacIntel,58.82352941,,,,,,,,3,Slow,h,0,2.176,7,0,28,3,1,,,,,
,0.02,,,,,,,,,f.PNG,f,6111487d928672ed8b815cae,2021-09-08_20h53.47.830,forced_choiceRT,2021.1.2,MacIntel,58.82352941,,,,,,,,3,Ontime,f,1,2,7,1,29,0,1,,,,,
,0.75,,,,,,,,,g.PNG,g,6111487d928672ed8b815cae,2021-09-08_20h53.47.830,forced_choiceRT,2021.1.2,MacIntel,58.82352941,,,,,,,,3,Ontime,g,1,2.083,7,2,30,1,1,,,,,
,0.1,,,,,,,,,h.PNG,h,6111487d928672ed8b815cae,2021-09-08_20h53.47.830,forced_choiceRT,2021.1.2,MacIntel,58.82352941,,,,,,,,3,Slow,h,1,2.149,7,3,31,2,1,,,,,
,0.49,,,,,,,,,h.PNG,h,6111487d928672ed8b815cae,2021-09-08_20h53.47.830,forced_choiceRT,2021.1.2,MacIntel,58.82352941,,,,,,,,3,Ontime,h,1,2.023,8,0,32,2,1,,,,,
,0.58,,,,,,,,,h.PNG,h,6111487d928672ed8b815cae,2021-09-08_20h53.47.830,forced_choiceRT,2021.1.2,MacIntel,58.82352941,,,,,,,,3,Ontime,h,1,2.027,8,1,33,2,1,,,,,
,1.3,,,,,,,,,j.PNG,j,6111487d928672ed8b815cae,2021-09-08_20h53.47.830,forced_choiceRT,2021.1.2,MacIntel,58.82352941,,,,,,,,3,Slow,j,1,2.274,8,2,34,3,1,,,,,
,1.97,,,,,,,,,f.PNG,f,6111487d928672ed8b815cae,2021-09-08_20h53.47.830,forced_choiceRT,2021.1.2,MacIntel,58.82352941,,,,,,,,3,Slow,f,1,2.508,8,3,35,0,1,,,,,
,0.56,,,,,,,,,h.PNG,h,6111487d928672ed8b815cae,2021-09-08_20h53.47.830,forced_choiceRT,2021.1.2,MacIntel,58.82352941,,,,,,,,3,Ontime,h,1,2.037,9,0,36,2,1,,,,,
,0.17,,,,,,,,,h.PNG,h,6111487d928672ed8b815cae,2021-09-08_20h53.47.830,forced_choiceRT,2021.1.2,MacIntel,58.82352941,,,,,,,,3,Ontime,h,1,2.011,9,1,37,2,1,,,,,
,1.72,,,,,,,,,f.PNG,f,6111487d928672ed8b815cae,2021-09-08_20h53.47.830,forced_choiceRT,2021.1.2,MacIntel,58.82352941,,,,,,,,3,Slow,f,1,2.159,9,2,38,0,1,,,,,
,1.01,,,,,,,,,j.PNG,j,6111487d928672ed8b815cae,2021-09-08_20h53.47.830,forced_choiceRT,2021.1.2,MacIntel,58.82352941,,,,,,,,3,Slow,j,1,2.119,9,3,39,3,1,,,,,
,,,,,,,,,,,,6111487d928672ed8b815cae,2021-09-08_20h53.47.830,forced_choiceRT,2021.1.2,MacIntel,58.82352941,,,,,,,,,,,,,,,,,,2,0,2,0,1
,0.81,,,,,,,,,j.PNG,j,6111487d928672ed8b815cae,2021-09-08_20h53.47.830,forced_choiceRT,2021.1.2,MacIntel,58.82352941,,,,,,,,4,Slow,j,1,2.832,0,0,0,3,1,,,,,
,0.39,,,,,,,,,j.PNG,j,6111487d928672ed8b815cae,2021-09-08_20h53.47.830,forced_choiceRT,2021.1.2,MacIntel,58.82352941,,,,,,,,4,Ontime,j,1,2.058,0,1,1,3,1,,,,,
,0.7,,,,,,,,,j.PNG,j,6111487d928672ed8b815cae,2021-09-08_20h53.47.830,forced_choiceRT,2021.1.2,MacIntel,58.82352941,,,,,,,,4,Ontime,j,1,2.098,0,2,2,3,1,,,,,
,1.89,,,,,,,,,f.PNG,f,6111487d928672ed8b815cae,2021-09-08_20h53.47.830,forced_choiceRT,2021.1.2,MacIntel,58.82352941,,,,,,,,4,Slow,f,1,2.401,0,3,3,0,1,,,,,
,1.66,,,,,,,,,h.PNG,h,6111487d928672ed8b815cae,2021-09-08_20h53.47.830,forced_choiceRT,2021.1.2,MacIntel,58.82352941,,,,,,,,4,Slow,h,1,2.4,1,0,4,2,1,,,,,
,0.8,,,,,,,,,g.PNG,g,6111487d928672ed8b815cae,2021-09-08_20h53.47.830,forced_choiceRT,2021.1.2,MacIntel,58.82352941,,,,,,,,4,Ontime,g,1,2.048,1,1,5,1,1,,,,,
,0.38,,,,,,,,,f.PNG,f,6111487d928672ed8b815cae,2021-09-08_20h53.47.830,forced_choiceRT,2021.1.2,MacIntel,58.82352941,,,,,,,,4,Ontime,f,1,2.06,1,2,6,0,1,,,,,
,1.55,,,,,,,,,j.PNG,j,6111487d928672ed8b815cae,2021-09-08_20h53.47.830,forced_choiceRT,2021.1.2,MacIntel,58.82352941,,,,,,,,4,Slow,j,1,2.14,1,3,7,3,1,,,,,
,0.42,,,,,,,,,g.PNG,g,6111487d928672ed8b815cae,2021-09-08_20h53.47.830,forced_choiceRT,2021.1.2,MacIntel,58.82352941,,,,,,,,4,Ontime,g,1,2.042,2,0,8,1,1,,,,,
,1.31,,,,,,,,,g.PNG,g,6111487d928672ed8b815cae,2021-09-08_20h53.47.830,forced_choiceRT,2021.1.2,MacIntel,58.82352941,,,,,,,,4,Ontime,g,1,2.086,2,1,9,1,1,,,,,
,0.85,,,,,,,,,j.PNG,j,6111487d928672ed8b815cae,2021-09-08_20h53.47.830,forced_choiceRT,2021.1.2,MacIntel,58.82352941,,,,,,,,4,Slow,j,1,2.135,2,2,10,3,1,,,,,
,1.23,,,,,,,,,h.PNG,h,6111487d928672ed8b815cae,2021-09-08_20h53.47.830,forced_choiceRT,2021.1.2,MacIntel,58.82352941,,,,,,,,4,Ontime,h,1,2.068,2,3,11,2,1,,,,,
,0.86,,,,,,,,,f.PNG,f,6111487d928672ed8b815cae,2021-09-08_20h53.47.830,forced_choiceRT,2021.1.2,MacIntel,58.82352941,,,,,,,,4,Ontime,f,1,2.04,3,0,12,0,1,,,,,
,0.05,,,,,,,,,h.PNG,h,6111487d928672ed8b815cae,2021-09-08_20h53.47.830,forced_choiceRT,2021.1.2,MacIntel,58.82352941,,,,,,,,4,Ontime,h,1,2.017,3,1,13,2,1,,,,,
,1.03,,,,,,,,,f.PNG,f,6111487d928672ed8b815cae,2021-09-08_20h53.47.830,forced_choiceRT,2021.1.2,MacIntel,58.82352941,,,,,,,,4,Ontime,f,1,2.066,3,2,14,0,1,,,,,
,1.52,,,,,,,,,j.PNG,j,6111487d928672ed8b815cae,2021-09-08_20h53.47.830,forced_choiceRT,2021.1.2,MacIntel,58.82352941,,,,,,,,4,Ontime,j,1,2.073,3,3,15,3,1,,,,,
,0.32,,,,,,,,,h.PNG,h,6111487d928672ed8b815cae,2021-09-08_20h53.47.830,forced_choiceRT,2021.1.2,MacIntel,58.82352941,,,,,,,,4,Ontime,h,1,2.068,4,0,16,2,1,,,,,
,0.66,,,,,,,,,f.PNG,f,6111487d928672ed8b815cae,2021-09-08_20h53.47.830,forced_choiceRT,2021.1.2,MacIntel,58.82352941,,,,,,,,4,Ontime,f,1,2.035,4,1,17,0,1,,,,,
,1.33,,,,,,,,,h.PNG,h,6111487d928672ed8b815cae,2021-09-08_20h53.47.830,forced_choiceRT,2021.1.2,MacIntel,58.82352941,,,,,,,,4,Ontime,h,1,2.084,4,2,18,2,1,,,,,
,0.93,,,,,,,,,h.PNG,h,6111487d928672ed8b815cae,2021-09-08_20h53.47.830,forced_choiceRT,2021.1.2,MacIntel,58.82352941,,,,,,,,4,Ontime,h,1,1.978,4,3,19,2,1,,,,,
,1.08,,,,,,,,,f.PNG,f,6111487d928672ed8b815cae,2021-09-08_20h53.47.830,forced_choiceRT,2021.1.2,MacIntel,58.82352941,,,,,,,,4,Ontime,f,1,2.07,5,0,20,0,1,,,,,
,1.51,,,,,,,,,f.PNG,f,6111487d928672ed8b815cae,2021-09-08_20h53.47.830,forced_choiceRT,2021.1.2,MacIntel,58.82352941,,,,,,,,4,Ontime,f,1,2.034,5,1,21,0,1,,,,,
,0.35,,,,,,,,,f.PNG,f,6111487d928672ed8b815cae,2021-09-08_20h53.47.830,forced_choiceRT,2021.1.2,MacIntel,58.82352941,,,,,,,,4,Fast,f,1,1.798,5,2,22,0,1,,,,,
,1.49,,,,,,,,,f.PNG,f,6111487d928672ed8b815cae,2021-09-08_20h53.47.830,forced_choiceRT,2021.1.2,MacIntel,58.82352941,,,,,,,,4,Ontime,f,1,2.091,5,3,23,0,1,,,,,
,0.33,,,,,,,,,g.PNG,g,6111487d928672ed8b815cae,2021-09-08_20h53.47.830,forced_choiceRT,2021.1.2,MacIntel,58.82352941,,,,,,,,4,Ontime,g,1,1.987,6,0,24,1,1,,,,,
,1.66,,,,,,,,,j.PNG,j,6111487d928672ed8b815cae,2021-09-08_20h53.47.830,forced_choiceRT,2021.1.2,MacIntel,58.82352941,,,,,,,,4,Slow,j,1,2.267,6,1,25,3,1,,,,,
,1.41,,,,,,,,,h.PNG,h,6111487d928672ed8b815cae,2021-09-08_20h53.47.830,forced_choiceRT,2021.1.2,MacIntel,58.82352941,,,,,,,,4,Ontime,h,1,2.059,6,2,26,2,1,,,,,
,0.15,,,,,,,,,g.PNG,g,6111487d928672ed8b815cae,2021-09-08_20h53.47.830,forced_choiceRT,2021.1.2,MacIntel,58.82352941,,,,,,,,4,Slow,g,1,2.107,6,3,27,1,1,,,,,
,0.16,,,,,,,,,g.PNG,g,6111487d928672ed8b815cae,2021-09-08_20h53.47.830,forced_choiceRT,2021.1.2,MacIntel,58.82352941,,,,,,,,4,Ontime,g,1,2.009,7,0,28,1,1,,,,,
,1.38,,,,,,,,,f.PNG,f,6111487d928672ed8b815cae,2021-09-08_20h53.47.830,forced_choiceRT,2021.1.2,MacIntel,58.82352941,,,,,,,,4,Ontime,f,1,2.002,7,1,29,0,1,,,,,
,0.95,,,,,,,,,g.PNG,g,6111487d928672ed8b815cae,2021-09-08_20h53.47.830,forced_choiceRT,2021.1.2,MacIntel,58.82352941,,,,,,,,4,Slow,g,1,2.106,7,2,30,1,1,,,,,
,0.81,,,,,,,,,g.PNG,g,6111487d928672ed8b815cae,2021-09-08_20h53.47.830,forced_choiceRT,2021.1.2,MacIntel,58.82352941,,,,,,,,4,Ontime,g,1,2.027,7,3,31,1,1,,,,,
,1.11,,,,,,,,,h.PNG,h,6111487d928672ed8b815cae,2021-09-08_20h53.47.830,forced_choiceRT,2021.1.2,MacIntel,58.82352941,,,,,,,,4,Ontime,h,1,2.042,8,0,32,2,1,,,,,
,0.5,,,,,,,,,j.PNG,j,6111487d928672ed8b815cae,2021-09-08_20h53.47.830,forced_choiceRT,2021.1.2,MacIntel,58.82352941,,,,,,,,4,Ontime,j,1,2.022,8,1,33,3,1,,,,,
,0.29,,,,,,,,,j.PNG,j,6111487d928672ed8b815cae,2021-09-08_20h53.47.830,forced_choiceRT,2021.1.2,MacIntel,58.82352941,,,,,,,,4,Ontime,j,1,1.973,8,2,34,3,1,,,,,
,0.18,,,,,,,,,h.PNG,h,6111487d928672ed8b815cae,2021-09-08_20h53.47.830,forced_choiceRT,2021.1.2,MacIntel,58.82352941,,,,,,,,4,Ontime,h,1,2.017,8,3,35,2,1,,,,,
,0.23,,,,,,,,,h.PNG,h,6111487d928672ed8b815cae,2021-09-08_20h53.47.830,forced_choiceRT,2021.1.2,MacIntel,58.82352941,,,,,,,,4,Slow,h,1,2.126,9,0,36,2,1,,,,,
,1.1,,,,,,,,,j.PNG,j,6111487d928672ed8b815cae,2021-09-08_20h53.47.830,forced_choiceRT,2021.1.2,MacIntel,58.82352941,,,,,,,,4,Ontime,j,1,1.973,9,1,37,3,1,,,,,
,1.41,,,,,,,,,g.PNG,g,6111487d928672ed8b815cae,2021-09-08_20h53.47.830,forced_choiceRT,2021.1.2,MacIntel,58.82352941,,,,,,,,4,Ontime,g,1,2.068,9,2,38,1,1,,,,,
,0.32,,,,,,,,,g.PNG,g,6111487d928672ed8b815cae,2021-09-08_20h53.47.830,forced_choiceRT,2021.1.2,MacIntel,58.82352941,,,,,,,,4,Ontime,g,1,1.934,9,3,39,1,1,,,,,
,,,,,,,,,,,,6111487d928672ed8b815cae,2021-09-08_20h53.47.830,forced_choiceRT,2021.1.2,MacIntel,58.82352941,,,,,,,,,,,,,,,,,,3,0,3,0,1
,1.21,,,,,,,,,g.PNG,g,6111487d928672ed8b815cae,2021-09-08_20h53.47.830,forced_choiceRT,2021.1.2,MacIntel,58.82352941,,,,,,,,5,Ontime,g,1,2.045,0,0,0,1,1,,,,,
,1.41,,,,,,,,,f.PNG,f,6111487d928672ed8b815cae,2021-09-08_20h53.47.830,forced_choiceRT,2021.1.2,MacIntel,58.82352941,,,,,,,,5,Ontime,f,1,1.925,0,1,1,0,1,,,,,
,1.91,,,,,,,,,f.PNG,f,6111487d928672ed8b815cae,2021-09-08_20h53.47.830,forced_choiceRT,2021.1.2,MacIntel,58.82352941,,,,,,,,5,Slow,f,1,2.409,0,2,2,0,1,,,,,
,0.57,,,,,,,,,f.PNG,f,6111487d928672ed8b815cae,2021-09-08_20h53.47.830,forced_choiceRT,2021.1.2,MacIntel,58.82352941,,,,,,,,5,Ontime,f,1,1.993,0,3,3,0,1,,,,,
,0.54,,,,,,,,,h.PNG,h,6111487d928672ed8b815cae,2021-09-08_20h53.47.830,forced_choiceRT,2021.1.2,MacIntel,58.82352941,,,,,,,,5,Ontime,h,1,2.05,1,0,4,2,1,,,,,
,1.05,,,,,,,,,j.PNG,j,6111487d928672ed8b815cae,2021-09-08_20h53.47.830,forced_choiceRT,2021.1.2,MacIntel,58.82352941,,,,,,,,5,Fast,j,1,1.783,1,1,5,3,1,,,,,
,1.29,,,,,,,,,g.PNG,g,6111487d928672ed8b815cae,2021-09-08_20h53.47.830,forced_choiceRT,2021.1.2,MacIntel,58.82352941,,,,,,,,5,Ontime,g,1,2.092,1,2,6,1,1,,,,,
,0.92,,,,,,,,,j.PNG,j,6111487d928672ed8b815cae,2021-09-08_20h53.47.830,forced_choiceRT,2021.1.2,MacIntel,58.82352941,,,,,,,,5,Ontime,j,1,1.987,1,3,7,3,1,,,,,
,1.2,,,,,,,,,g.PNG,g,6111487d928672ed8b815cae,2021-09-08_20h53.47.830,forced_choiceRT,2021.1.2,MacIntel,58.82352941,,,,,,,,5,Ontime,g,1,1.968,2,0,8,1,1,,,,,
,0.95,,,,,,,,,h.PNG,h,6111487d928672ed8b815cae,2021-09-08_20h53.47.830,forced_choiceRT,2021.1.2,MacIntel,58.82352941,,,,,,,,5,Slow,h,1,2.109,2,1,9,2,1,,,,,
,1.02,,,,,,,,,g.PNG,g,6111487d928672ed8b815cae,2021-09-08_20h53.47.830,forced_choiceRT,2021.1.2,MacIntel,58.82352941,,,,,,,,5,Slow,g,1,2.108,2,2,10,1,1,,,,,
,1.2,,,,,,,,,h.PNG,h,6111487d928672ed8b815cae,2021-09-08_20h53.47.830,forced_choiceRT,2021.1.2,MacIntel,58.82352941,,,,,,,,5,Ontime,h,1,2.051,2,3,11,2,1,,,,,
,0.44,,,,,,,,,h.PNG,h,6111487d928672ed8b815cae,2021-09-08_20h53.47.830,forced_choiceRT,2021.1.2,MacIntel,58.82352941,,,,,,,,5,Ontime,h,1,2.036,3,0,12,2,1,,,,,
,0.45,,,,,,,,,h.PNG,h,6111487d928672ed8b815cae,2021-09-08_20h53.47.830,forced_choiceRT,2021.1.2,MacIntel,58.82352941,,,,,,,,5,Ontime,h,1,2.059,3,1,13,2,1,,,,,
,0.8,,,,,,,,,g.PNG,g,6111487d928672ed8b815cae,2021-09-08_20h53.47.830,forced_choiceRT,2021.1.2,MacIntel,58.82352941,,,,,,,,5,Ontime,g,1,2.067,3,2,14,1,1,,,,,
,1.4,,,,,,,,,j.PNG,j,6111487d928672ed8b815cae,2021-09-08_20h53.47.830,forced_choiceRT,2021.1.2,MacIntel,58.82352941,,,,,,,,5,Slow,j,1,2.223,3,3,15,3,1,,,,,
,1.07,,,,,,,,,g.PNG,g,6111487d928672ed8b815cae,2021-09-08_20h53.47.830,forced_choiceRT,2021.1.2,MacIntel,58.82352941,,,,,,,,5,Ontime,g,1,2.025,4,0,16,1,1,,,,,
,0.45,,,,,,,,,j.PNG,j,6111487d928672ed8b815cae,2021-09-08_20h53.47.830,forced_choiceRT,2021.1.2,MacIntel,58.82352941,,,,,,,,5,Ontime,j,1,2.017,4,1,17,3,1,,,,,
,1.73,,,,,,,,,h.PNG,h,6111487d928672ed8b815cae,2021-09-08_20h53.47.830,forced_choiceRT,2021.1.2,MacIntel,58.82352941,,,,,,,,5,Slow,h,1,2.107,4,2,18,2,1,,,,,
,1.9,,,,,,,,,j.PNG,j,6111487d928672ed8b815cae,2021-09-08_20h53.47.830,forced_choiceRT,2021.1.2,MacIntel,58.82352941,,,,,,,,5,Slow,j,1,2.41,4,3,19,3,1,,,,,
,0.13,,,,,,,,,h.PNG,h,6111487d928672ed8b815cae,2021-09-08_20h53.47.830,forced_choiceRT,2021.1.2,MacIntel,58.82352941,,,,,,,,5,Ontime,h,1,1.976,5,0,20,2,1,,,,,
,1.91,,,,,,,,,f.PNG,f,6111487d928672ed8b815cae,2021-09-08_20h53.47.830,forced_choiceRT,2021.1.2,MacIntel,58.82352941,,,,,,,,5,Slow,f,1,2.584,5,1,21,0,1,,,,,
,1.43,,,,,,,,,h.PNG,h,6111487d928672ed8b815cae,2021-09-08_20h53.47.830,forced_choiceRT,2021.1.2,MacIntel,58.82352941,,,,,,,,5,Slow,h,1,2.243,5,2,22,2,1,,,,,
,0.05,,,,,,,,,g.PNG,g,6111487d928672ed8b815cae,2021-09-08_20h53.47.830,forced_choiceRT,2021.1.2,MacIntel,58.82352941,,,,,,,,5,Ontime,g,1,2.017,5,3,23,1,1,,,,,
,1.22,,,,,,,,,f.PNG,f,6111487d928672ed8b815cae,2021-09-08_20h53.47.830,forced_choiceRT,2021.1.2,MacIntel,58.82352941,,,,,,,,5,Ontime,f,1,1.915,6,0,24,0,1,,,,,
,1.24,,,,,,,,,g.PNG,g,6111487d928672ed8b815cae,2021-09-08_20h53.47.830,forced_choiceRT,2021.1.2,MacIntel,58.82352941,,,,,,,,5,Ontime,g,1,2.075,6,1,25,1,1,,,,,
,0.8,,,,,,,,,h.PNG,h,6111487d928672ed8b815cae,2021-09-08_20h53.47.830,forced_choiceRT,2021.1.2,MacIntel,58.82352941,,,,,,,,5,Ontime,h,1,2.091,6,2,26,2,1,,,,,
,0.79,,,,,,,,,f.PNG,f,6111487d928672ed8b815cae,2021-09-08_20h53.47.830,forced_choiceRT,2021.1.2,MacIntel,58.82352941,,,,,,,,5,Ontime,f,1,1.976,6,3,27,0,1,,,,,
,1.22,,,,,,,,,f.PNG,f,6111487d928672ed8b815cae,2021-09-08_20h53.47.830,forced_choiceRT,2021.1.2,MacIntel,58.82352941,,,,,,,,5,Slow,f,1,2.217,7,0,28,0,1,,,,,
,0.99,,,,,,,,,f.PNG,f,6111487d928672ed8b815cae,2021-09-08_20h53.47.830,forced_choiceRT,2021.1.2,MacIntel,58.82352941,,,,,,,,5,Ontime,f,1,2.018,7,1,29,0,1,,,,,
,1.17,,,,,,,,,g.PNG,g,6111487d928672ed8b815cae,2021-09-08_20h53.47.830,forced_choiceRT,2021.1.2,MacIntel,58.82352941,,,,,,,,5,Ontime,h,0,2.067,7,2,30,1,1,,,,,
,0.54,,,,,,,,,f.PNG,f,6111487d928672ed8b815cae,2021-09-08_20h53.47.830,forced_choiceRT,2021.1.2,MacIntel,58.82352941,,,,,,,,5,Fast,f,1,1.8,7,3,31,0,1,,,,,
,0.44,,,,,,,,,g.PNG,g,6111487d928672ed8b815cae,2021-09-08_20h53.47.830,forced_choiceRT,2021.1.2,MacIntel,58.82352941,,,,,,,,5,Ontime,g,1,2.01,8,0,32,1,1,,,,,
,0.84,,,,,,,,,j.PNG,j,6111487d928672ed8b815cae,2021-09-08_20h53.47.830,forced_choiceRT,2021.1.2,MacIntel,58.82352941,,,,,,,,5,Ontime,j,1,2.077,8,1,33,3,1,,,,,
,1.64,,,,,,,,,j.PNG,j,6111487d928672ed8b815cae,2021-09-08_20h53.47.830,forced_choiceRT,2021.1.2,MacIntel,58.82352941,,,,,,,,5,Slow,j,1,2.115,8,2,34,3,1,,,,,
,0.28,,,,,,,,,f.PNG,f,6111487d928672ed8b815cae,2021-09-08_20h53.47.830,forced_choiceRT,2021.1.2,MacIntel,58.82352941,,,,,,,,5,Ontime,f,1,1.968,8,3,35,0,1,,,,,
,1.67,,,,,,,,,j.PNG,j,6111487d928672ed8b815cae,2021-09-08_20h53.47.830,forced_choiceRT,2021.1.2,MacIntel,58.82352941,,,,,,,,5,Slow,j,1,2.16,9,0,36,3,1,,,,,
,0.7,,,,,,,,,j.PNG,j,6111487d928672ed8b815cae,2021-09-08_20h53.47.830,forced_choiceRT,2021.1.2,MacIntel,58.82352941,,,,,,,,5,Slow,j,1,2.235,9,1,37,3,1,,,,,
,0.22,,,,,,,,,j.PNG,j,6111487d928672ed8b815cae,2021-09-08_20h53.47.830,forced_choiceRT,2021.1.2,MacIntel,58.82352941,,,,,,,,5,Fast,j,1,1.889,9,2,38,3,1,,,,,
,1.34,,,,,,,,,h.PNG,h,6111487d928672ed8b815cae,2021-09-08_20h53.47.830,forced_choiceRT,2021.1.2,MacIntel,58.82352941,,,,,,,,5,Fast,h,1,1.897,9,3,39,2,1,,,,,
,,,,,,,,,,,,6111487d928672ed8b815cae,2021-09-08_20h53.47.830,forced_choiceRT,2021.1.2,MacIntel,58.82352941,,,,,,,,,,,,,,,,,,4,0,4,0,1
,1.3,,,,,,,,,g.PNG,g,6111487d928672ed8b815cae,2021-09-08_20h53.47.830,forced_choiceRT,2021.1.2,MacIntel,58.82352941,,,,,,,,6,Ontime,g,1,2.045,0,0,0,1,1,,,,,
,1.87,,,,,,,,,h.PNG,h,6111487d928672ed8b815cae,2021-09-08_20h53.47.830,forced_choiceRT,2021.1.2,MacIntel,58.82352941,,,,,,,,6,Slow,j,0,2.472,0,1,1,2,1,,,,,
,1.65,,,,,,,,,h.PNG,h,6111487d928672ed8b815cae,2021-09-08_20h53.47.830,forced_choiceRT,2021.1.2,MacIntel,58.82352941,,,,,,,,6,Slow,h,1,2.206,0,2,2,2,1,,,,,
,0.29,,,,,,,,,f.PNG,f,6111487d928672ed8b815cae,2021-09-08_20h53.47.830,forced_choiceRT,2021.1.2,MacIntel,58.82352941,,,,,,,,6,Ontime,f,1,1.96,0,3,3,0,1,,,,,
,1.99,,,,,,,,,f.PNG,f,6111487d928672ed8b815cae,2021-09-08_20h53.47.830,forced_choiceRT,2021.1.2,MacIntel,58.82352941,,,,,,,,6,Slow,f,1,2.509,1,0,4,0,1,,,,,
,1.97,,,,,,,,,f.PNG,f,6111487d928672ed8b815cae,2021-09-08_20h53.47.830,forced_choiceRT,2021.1.2,MacIntel,58.82352941,,,,,,,,6,Slow,f,1,2.395,1,1,5,0,1,,,,,
,0.27,,,,,,,,,g.PNG,g,6111487d928672ed8b815cae,2021-09-08_20h53.47.830,forced_choiceRT,2021.1.2,MacIntel,58.82352941,,,,,,,,6,Ontime,g,1,1.982,1,2,6,1,1,,,,,
,1.32,,,,,,,,,h.PNG,h,6111487d928672ed8b815cae,2021-09-08_20h53.47.830,forced_choiceRT,2021.1.2,MacIntel,58.82352941,,,,,,,,6,Slow,h,1,2.234,1,3,7,2,1,,,,,
,1.12,,,,,,,,,h.PNG,h,6111487d928672ed8b815cae,2021-09-08_20h53.47.830,forced_choiceRT,2021.1.2,MacIntel,58.82352941,,,,,,,,6,Slow,h,1,2.101,2,0,8,2,1,,,,,
,0.79,,,,,,,,,j.PNG,j,6111487d928672ed8b815cae,2021-09-08_20h53.47.830,forced_choiceRT,2021.1.2,MacIntel,58.82352941,,,,,,,,6,Ontime,j,1,1.985,2,1,9,3,1,,,,,
,0.54,,,,,,,,,j.PNG,j,6111487d928672ed8b815cae,2021-09-08_20h53.47.830,forced_choiceRT,2021.1.2,MacIntel,58.82352941,,,,,,,,6,Ontime,j,1,2.018,2,2,10,3,1,,,,,
,0.86,,,,,,,,,g.PNG,g,6111487d928672ed8b815cae,2021-09-08_20h53.47.830,forced_choiceRT,2021.1.2,MacIntel,58.82352941,,,,,,,,6,Ontime,g,1,2.008,2,3,11,1,1,,,,,
,0.02,,,,,,,,,h.PNG,h,6111487d928672ed8b815cae,2021-09-08_20h53.47.830,forced_choiceRT,2021.1.2,MacIntel,58.82352941,,,,,,,,6,Ontime,h,1,1.943,3,0,12,2,1,,,,,
,1.85,,,,,,,,,j.PNG,j,6111487d928672ed8b815cae,2021-09-08_20h53.47.830,forced_choiceRT,2021.1.2,MacIntel,58.82352941,,,,,,,,6,Slow,j,1,2.361,3,1,13,3,1,,,,,
,0.2,,,,,,,,,h.PNG,h,6111487d928672ed8b815cae,2021-09-08_20h53.47.830,forced_choiceRT,2021.1.2,MacIntel,58.82352941,,,,,,,,6,Fast,h,1,1.676,3,2,14,2,1,,,,,
,1.57,,,,,,,,,f.PNG,f,6111487d928672ed8b815cae,2021-09-08_20h53.47.830,forced_choiceRT,2021.1.2,MacIntel,58.82352941,,,,,,,,6,Slow,f,1,2.151,3,3,15,0,1,,,,,
,1.75,,,,,,,,,g.PNG,g,6111487d928672ed8b815cae,2021-09-08_20h53.47.830,forced_choiceRT,2021.1.2,MacIntel,58.82352941,,,,,,,,6,Slow,g,1,2.327,4,0,16,1,1,,,,,
,1.82,,,,,,,,,h.PNG,h,6111487d928672ed8b815cae,2021-09-08_20h53.47.830,forced_choiceRT,2021.1.2,MacIntel,58.82352941,,,,,,,,6,Slow,h,1,2.726,4,1,17,2,1,,,,,
,0.21,,,,,,,,,f.PNG,f,6111487d928672ed8b815cae,2021-09-08_20h53.47.830,forced_choiceRT,2021.1.2,MacIntel,58.82352941,,,,,,,,6,Fast,f,1,1.711,4,2,18,0,1,,,,,
,0.59,,,,,,,,,f.PNG,f,6111487d928672ed8b815cae,2021-09-08_20h53.47.830,forced_choiceRT,2021.1.2,MacIntel,58.82352941,,,,,,,,6,Ontime,f,1,1.992,4,3,19,0,1,,,,,
,1.87,,,,,,,,,g.PNG,g,6111487d928672ed8b815cae,2021-09-08_20h53.47.830,forced_choiceRT,2021.1.2,MacIntel,58.82352941,,,,,,,,6,Slow,g,1,2.383,5,0,20,1,1,,,,,
,0.02,,,,,,,,,f.PNG,f,6111487d928672ed8b815cae,2021-09-08_20h53.47.830,forced_choiceRT,2021.1.2,MacIntel,58.82352941,,,,,,,,6,Ontime,f,1,1.975,5,1,21,0,1,,,,,
,0.6,,,,,,,,,f.PNG,f,6111487d928672ed8b815cae,2021-09-08_20h53.47.830,forced_choiceRT,2021.1.2,MacIntel,58.82352941,,,,,,,,6,Slow,f,1,2.116,5,2,22,0,1,,,,,
,1.03,,,,,,,,,j.PNG,j,6111487d928672ed8b815cae,2021-09-08_20h53.47.830,forced_choiceRT,2021.1.2,MacIntel,58.82352941,,,,,,,,6,Ontime,j,1,2.054,5,3,23,3,1,,,,,
,0.37,,,,,,,,,j.PNG,j,6111487d928672ed8b815cae,2021-09-08_20h53.47.830,forced_choiceRT,2021.1.2,MacIntel,58.82352941,,,,,,,,6,Ontime,j,1,1.968,6,0,24,3,1,,,,,
,1.51,,,,,,,,,j.PNG,j,6111487d928672ed8b815cae,2021-09-08_20h53.47.830,forced_choiceRT,2021.1.2,MacIntel,58.82352941,,,,,,,,6,Slow,j,1,2.183,6,1,25,3,1,,,,,
,1.33,,,,,,,,,j.PNG,j,6111487d928672ed8b815cae,2021-09-08_20h53.47.830,forced_choiceRT,2021.1.2,MacIntel,58.82352941,,,,,,,,6,Ontime,j,1,2.064,6,2,26,3,1,,,,,
,1.93,,,,,,,,,g.PNG,g,6111487d928672ed8b815cae,2021-09-08_20h53.47.830,forced_choiceRT,2021.1.2,MacIntel,58.82352941,,,,,,,,6,Slow,g,1,2.533,6,3,27,1,1,,,,,
,0.36,,,,,,,,,h.PNG,h,6111487d928672ed8b815cae,2021-09-08_20h53.47.830,forced_choiceRT,2021.1.2,MacIntel,58.82352941,,,,,,,,6,Ontime,h,1,2.025,7,0,28,2,1,,,,,
,0.4,,,,,,,,,f.PNG,f,6111487d928672ed8b815cae,2021-09-08_20h53.47.830,forced_choiceRT,2021.1.2,MacIntel,58.82352941,,,,,,,,6,Ontime,f,1,2.07,7,1,29,0,1,,,,,
,0.45,,,,,,,,,g.PNG,g,6111487d928672ed8b815cae,2021-09-08_20h53.47.830,forced_choiceRT,2021.1.2,MacIntel,58.82352941,,,,,,,,6,Ontime,g,1,2.032,7,2,30,1,1,,,,,
,1.68,,,,,,,,,j.PNG,j,6111487d928672ed8b815cae,2021-09-08_20h53.47.830,forced_choiceRT,2021.1.2,MacIntel,58.82352941,,,,,,,,6,Slow,j,1,2.258,7,3,31,3,1,,,,,
,1.51,,,,,,,,,g.PNG,g,6111487d928672ed8b815cae,2021-09-08_20h53.47.830,forced_choiceRT,2021.1.2,MacIntel,58.82352941,,,,,,,,6,Slow,g,1,2.21,8,0,32,1,1,,,,,
,1.64,,,,,,,,,j.PNG,j,6111487d928672ed8b815cae,2021-09-08_20h53.47.830,forced_choiceRT,2021.1.2,MacIntel,58.82352941,,,,,,,,6,Slow,j,1,2.152,8,1,33,3,1,,,,,
,0.86,,,,,,,,,f.PNG,f,6111487d928672ed8b815cae,2021-09-08_20h53.47.830,forced_choiceRT,2021.1.2,MacIntel,58.82352941,,,,,,,,6,Ontime,f,1,1.967,8,2,34,0,1,,,,,
,1.27,,,,,,,,,h.PNG,h,6111487d928672ed8b815cae,2021-09-08_20h53.47.830,forced_choiceRT,2021.1.2,MacIntel,58.82352941,,,,,,,,6,Ontime,h,1,2.007,8,3,35,2,1,,,,,
,0.93,,,,,,,,,g.PNG,g,6111487d928672ed8b815cae,2021-09-08_20h53.47.830,forced_choiceRT,2021.1.2,MacIntel,58.82352941,,,,,,,,6,Slow,g,1,2.242,9,0,36,1,1,,,,,
,0.22,,,,,,,,,g.PNG,g,6111487d928672ed8b815cae,2021-09-08_20h53.47.830,forced_choiceRT,2021.1.2,MacIntel,58.82352941,,,,,,,,6,Fast,g,1,1.612,9,1,37,1,1,,,,,
,1.63,,,,,,,,,h.PNG,h,6111487d928672ed8b815cae,2021-09-08_20h53.47.830,forced_choiceRT,2021.1.2,MacIntel,58.82352941,,,,,,,,6,Slow,h,1,2.2,9,2,38,2,1,,,,,
,0.74,,,,,,,,,j.PNG,j,6111487d928672ed8b815cae,2021-09-08_20h53.47.830,forced_choiceRT,2021.1.2,MacIntel,58.82352941,,,,,,,,6,Ontime,j,1,1.999,9,3,39,3,1,,,,,
,,,,,,,,,,,,6111487d928672ed8b815cae,2021-09-08_20h53.47.830,forced_choiceRT,2021.1.2,MacIntel,58.82352941,,,,,,,,,,,,,,,,,,5,0,5,0,1
,0.55,,,,,,,,,j.PNG,j,6111487d928672ed8b815cae,2021-09-08_20h53.47.830,forced_choiceRT,2021.1.2,MacIntel,58.82352941,,,,,,,,7,Ontime,j,1,2.068,0,0,0,3,1,,,,,
,1.2,,,,,,,,,h.PNG,h,6111487d928672ed8b815cae,2021-09-08_20h53.47.830,forced_choiceRT,2021.1.2,MacIntel,58.82352941,,,,,,,,7,Ontime,h,1,2.068,0,1,1,2,1,,,,,
,0.07,,,,,,,,,j.PNG,j,6111487d928672ed8b815cae,2021-09-08_20h53.47.830,forced_choiceRT,2021.1.2,MacIntel,58.82352941,,,,,,,,7,Ontime,j,1,2.009,0,2,2,3,1,,,,,
,0.02,,,,,,,,,j.PNG,j,6111487d928672ed8b815cae,2021-09-08_20h53.47.830,forced_choiceRT,2021.1.2,MacIntel,58.82352941,,,,,,,,7,Ontime,j,1,2.091,0,3,3,3,1,,,,,
,1.69,,,,,,,,,h.PNG,h,6111487d928672ed8b815cae,2021-09-08_20h53.47.830,forced_choiceRT,2021.1.2,MacIntel,58.82352941,,,,,,,,7,Slow,h,1,2.256,1,0,4,2,1,,,,,
,0.17,,,,,,,,,g.PNG,g,6111487d928672ed8b815cae,2021-09-08_20h53.47.830,forced_choiceRT,2021.1.2,MacIntel,58.82352941,,,,,,,,7,Ontime,g,1,2.045,1,1,5,1,1,,,,,
,1.58,,,,,,,,,j.PNG,j,6111487d928672ed8b815cae,2021-09-08_20h53.47.830,forced_choiceRT,2021.1.2,MacIntel,58.82352941,,,,,,,,7,Slow,j,1,2.108,1,2,6,3,1,,,,,
,1.96,,,,,,,,,h.PNG,h,6111487d928672ed8b815cae,2021-09-08_20h53.47.830,forced_choiceRT,2021.1.2,MacIntel,58.82352941,,,,,,,,7,Slow,h,1,2.703,1,3,7,2,1,,,,,
,0.49,,,,,,,,,g.PNG,g,6111487d928672ed8b815cae,2021-09-08_20h53.47.830,forced_choiceRT,2021.1.2,MacIntel,58.82352941,,,,,,,,7,Ontime,g,1,1.93,2,0,8,1,1,,,,,
,1.35,,,,,,,,,h.PNG,h,6111487d928672ed8b815cae,2021-09-08_20h53.47.830,forced_choiceRT,2021.1.2,MacIntel,58.82352941,,,,,,,,7,Slow,h,1,2.294,2,1,9,2,1,,,,,
,1.66,,,,,,,,,g.PNG,g,6111487d928672ed8b815cae,2021-09-08_20h53.47.830,forced_choiceRT,2021.1.2,MacIntel,58.82352941,,,,,,,,7,Slow,g,1,2.181,2,2,10,1,1,,,,,
,0.16,,,,,,,,,h.PNG,h,6111487d928672ed8b815cae,2021-09-08_20h53.47.830,forced_choiceRT,2021.1.2,MacIntel,58.82352941,,,,,,,,7,Fast,h,1,1.643,2,3,11,2,1,,,,,
,0.08,,,,,,,,,f.PNG,f,6111487d928672ed8b815cae,2021-09-08_20h53.47.830,forced_choiceRT,2021.1.2,MacIntel,58.82352941,,,,,,,,7,Ontime,f,1,2.094,3,0,12,0,1,,,,,
,1.1,,,,,,,,,f.PNG,f,6111487d928672ed8b815cae,2021-09-08_20h53.47.830,forced_choiceRT,2021.1.2,MacIntel,58.82352941,,,,,,,,7,Slow,f,1,2.119,3,1,13,0,1,,,,,
,1.53,,,,,,,,,j.PNG,j,6111487d928672ed8b815cae,2021-09-08_20h53.47.830,forced_choiceRT,2021.1.2,MacIntel,58.82352941,,,,,,,,7,Slow,j,1,2.126,3,2,14,3,1,,,,,
,0.02,,,,,,,,,j.PNG,j,6111487d928672ed8b815cae,2021-09-08_20h53.47.830,forced_choiceRT,2021.1.2,MacIntel,58.82352941,,,,,,,,7,Ontime,j,1,2.034,3,3,15,3,1,,,,,
,1.06,,,,,,,,,j.PNG,j,6111487d928672ed8b815cae,2021-09-08_20h53.47.830,forced_choiceRT,2021.1.2,MacIntel,58.82352941,,,,,,,,7,Ontime,j,1,2.045,4,0,16,3,1,,,,,
,1.28,,,,,,,,,g.PNG,g,6111487d928672ed8b815cae,2021-09-08_20h53.47.830,forced_choiceRT,2021.1.2,MacIntel,58.82352941,,,,,,,,7,Slow,g,1,2.126,4,1,17,1,1,,,,,
,1.18,,,,,,,,,g.PNG,g,6111487d928672ed8b815cae,2021-09-08_20h53.47.830,forced_choiceRT,2021.1.2,MacIntel,58.82352941,,,,,,,,7,Slow,g,1,2.111,4,2,18,1,1,,,,,
,1.52,,,,,,,,,h.PNG,h,6111487d928672ed8b815cae,2021-09-08_20h53.47.830,forced_choiceRT,2021.1.2,MacIntel,58.82352941,,,,,,,,7,Slow,h,1,2.136,4,3,19,2,1,,,,,
,1.69,,,,,,,,,f.PNG,f,6111487d928672ed8b815cae,2021-09-08_20h53.47.830,forced_choiceRT,2021.1.2,MacIntel,58.82352941,,,,,,,,7,Slow,f,1,2.286,5,0,20,0,1,,,,,
,1.41,,,,,,,,,f.PNG,f,6111487d928672ed8b815cae,2021-09-08_20h53.47.830,forced_choiceRT,2021.1.2,MacIntel,58.82352941,,,,,,,,7,Slow,f,1,2.1,5,1,21,0,1,,,,,
,0.97,,,,,,,,,g.PNG,g,6111487d928672ed8b815cae,2021-09-08_20h53.47.830,forced_choiceRT,2021.1.2,MacIntel,58.82352941,,,,,,,,7,Ontime,g,1,2.051,5,2,22,1,1,,,,,
,1.09,,,,,,,,,f.PNG,f,6111487d928672ed8b815cae,2021-09-08_20h53.47.830,forced_choiceRT,2021.1.2,MacIntel,58.82352941,,,,,,,,7,Slow,f,1,2.118,5,3,23,0,1,,,,,
,0.51,,,,,,,,,f.PNG,f,6111487d928672ed8b815cae,2021-09-08_20h53.47.830,forced_choiceRT,2021.1.2,MacIntel,58.82352941,,,,,,,,7,Ontime,f,1,2.058,6,0,24,0,1,,,,,
,1.19,,,,,,,,,f.PNG,f,6111487d928672ed8b815cae,2021-09-08_20h53.47.830,forced_choiceRT,2021.1.2,MacIntel,58.82352941,,,,,,,,7,Ontime,f,1,2.05,6,1,25,0,1,,,,,
,1.32,,,,,,,,,j.PNG,j,6111487d928672ed8b815cae,2021-09-08_20h53.47.830,forced_choiceRT,2021.1.2,MacIntel,58.82352941,,,,,,,,7,Slow,j,1,2.143,6,2,26,3,1,,,,,
,0.67,,,,,,,,,h.PNG,h,6111487d928672ed8b815cae,2021-09-08_20h53.47.830,forced_choiceRT,2021.1.2,MacIntel,58.82352941,,,,,,,,7,Slow,h,1,2.176,6,3,27,2,1,,,,,
,0.61,,,,,,,,,g.PNG,g,6111487d928672ed8b815cae,2021-09-08_20h53.47.830,forced_choiceRT,2021.1.2,MacIntel,58.82352941,,,,,,,,7,Ontime,g,1,2.024,7,0,28,1,1,,,,,
,1.78,,,,,,,,,f.PNG,f,6111487d928672ed8b815cae,2021-09-08_20h53.47.830,forced_choiceRT,2021.1.2,MacIntel,58.82352941,,,,,,,,7,Slow,f,1,2.235,7,1,29,0,1,,,,,
,1.9,,,,,,,,,g.PNG,g,6111487d928672ed8b815cae,2021-09-08_20h53.47.830,forced_choiceRT,2021.1.2,MacIntel,58.82352941,,,,,,,,7,Slow,f,0,2.334,7,2,30,1,1,,,,,
,0.7,,,,,,,,,h.PNG,h,6111487d928672ed8b815cae,2021-09-08_20h53.47.830,forced_choiceRT,2021.1.2,MacIntel,58.82352941,,,,,,,,7,Ontime,h,1,2.024,7,3,31,2,1,,,,,
,0.83,,,,,,,,,f.PNG,f,6111487d928672ed8b815cae,2021-09-08_20h53.47.830,forced_choiceRT,2021.1.2,MacIntel,58.82352941,,,,,,,,7,Ontime,f,1,2.013,8,0,32,0,1,,,,,
,0.32,,,,,,,,,h.PNG,h,6111487d928672ed8b815cae,2021-09-08_20h53.47.830,forced_choiceRT,2021.1.2,MacIntel,58.82352941,,,,,,,,7,Ontime,h,1,2.049,8,1,33,2,1,,,,,
,1.41,,,,,,,,,h.PNG,h,6111487d928672ed8b815cae,2021-09-08_20h53.47.830,forced_choiceRT,2021.1.2,MacIntel,58.82352941,,,,,,,,7,Slow,h,1,2.191,8,2,34,2,1,,,,,
,0.85,,,,,,,,,j.PNG,j,6111487d928672ed8b815cae,2021-09-08_20h53.47.830,forced_choiceRT,2021.1.2,MacIntel,58.82352941,,,,,,,,7,Ontime,j,1,1.986,8,3,35,3,1,,,,,
,0.16,,,,,,,,,g.PNG,g,6111487d928672ed8b815cae,2021-09-08_20h53.47.830,forced_choiceRT,2021.1.2,MacIntel,58.82352941,,,,,,,,7,Ontime,g,1,2.018,9,0,36,1,1,,,,,
,1.74,,,,,,,,,g.PNG,g,6111487d928672ed8b815cae,2021-09-08_20h53.47.830,forced_choiceRT,2021.1.2,MacIntel,58.82352941,,,,,,,,7,Slow,g,1,2.4,9,1,37,1,1,,,,,
,0.08,,,,,,,,,f.PNG,f,6111487d928672ed8b815cae,2021-09-08_20h53.47.830,forced_choiceRT,2021.1.2,MacIntel,58.82352941,,,,,,,,7,Ontime,f,1,2.02,9,2,38,0,1,,,,,
,1.64,,,,,,,,,j.PNG,j,6111487d928672ed8b815cae,2021-09-08_20h53.47.830,forced_choiceRT,2021.1.2,MacIntel,58.82352941,,,,,,,,7,Slow,j,1,2.176,9,3,39,3,1,,,,,
,,,,,,,,,,,,6111487d928672ed8b815cae,2021-09-08_20h53.47.830,forced_choiceRT,2021.1.2,MacIntel,58.82352941,,,,,,,,,,,,,,,,,,6,0,6,0,1
,0.33,,,,,,,,,j.PNG,j,6111487d928672ed8b815cae,2021-09-08_20h53.47.830,forced_choiceRT,2021.1.2,MacIntel,58.82352941,,,,,,,,8,Slow,j,1,2.649,0,0,0,3,1,,,,,
,0.6,,,,,,,,,f.PNG,f,6111487d928672ed8b815cae,2021-09-08_20h53.47.830,forced_choiceRT,2021.1.2,MacIntel,58.82352941,,,,,,,,8,Ontime,f,1,2.053,0,1,1,0,1,,,,,
,1.56,,,,,,,,,g.PNG,g,6111487d928672ed8b815cae,2021-09-08_20h53.47.830,forced_choiceRT,2021.1.2,MacIntel,58.82352941,,,,,,,,8,Slow,g,1,2.163,0,2,2,1,1,,,,,
,1.49,,,,,,,,,f.PNG,f,6111487d928672ed8b815cae,2021-09-08_20h53.47.830,forced_choiceRT,2021.1.2,MacIntel,58.82352941,,,,,,,,8,Ontime,f,1,2.05,0,3,3,0,1,,,,,
,0.52,,,,,,,,,j.PNG,j,6111487d928672ed8b815cae,2021-09-08_20h53.47.830,forced_choiceRT,2021.1.2,MacIntel,58.82352941,,,,,,,,8,Ontime,j,1,2.021,1,0,4,3,1,,,,,
,1.77,,,,,,,,,g.PNG,g,6111487d928672ed8b815cae,2021-09-08_20h53.47.830,forced_choiceRT,2021.1.2,MacIntel,58.82352941,,,,,,,,8,Slow,g,1,2.268,1,1,5,1,1,,,,,
,1.56,,,,,,,,,h.PNG,h,6111487d928672ed8b815cae,2021-09-08_20h53.47.830,forced_choiceRT,2021.1.2,MacIntel,58.82352941,,,,,,,,8,Slow,h,1,2.142,1,2,6,2,1,,,,,
,0.41,,,,,,,,,f.PNG,f,6111487d928672ed8b815cae,2021-09-08_20h53.47.830,forced_choiceRT,2021.1.2,MacIntel,58.82352941,,,,,,,,8,Ontime,f,1,1.958,1,3,7,0,1,,,,,
,1.73,,,,,,,,,j.PNG,j,6111487d928672ed8b815cae,2021-09-08_20h53.47.830,forced_choiceRT,2021.1.2,MacIntel,58.82352941,,,,,,,,8,Slow,j,1,2.29,2,0,8,3,1,,,,,
,1.16,,,,,,,,,g.PNG,g,6111487d928672ed8b815cae,2021-09-08_20h53.47.830,forced_choiceRT,2021.1.2,MacIntel,58.82352941,,,,,,,,8,Ontime,g,1,2.051,2,1,9,1,1,,,,,
,0.34,,,,,,,,,j.PNG,j,6111487d928672ed8b815cae,2021-09-08_20h53.47.830,forced_choiceRT,2021.1.2,MacIntel,58.82352941,,,,,,,,8,Ontime,j,1,1.986,2,2,10,3,1,,,,,
,0.32,,,,,,,,,f.PNG,f,6111487d928672ed8b815cae,2021-09-08_20h53.47.830,forced_choiceRT,2021.1.2,MacIntel,58.82352941,,,,,,,,8,Ontime,f,1,1.977,2,3,11,0,1,,,,,
,0.56,,,,,,,,,f.PNG,f,6111487d928672ed8b815cae,2021-09-08_20h53.47.830,forced_choiceRT,2021.1.2,MacIntel,58.82352941,,,,,,,,8,Slow,f,1,2.117,3,0,12,0,1,,,,,
,0.83,,,,,,,,,g.PNG,g,6111487d928672ed8b815cae,2021-09-08_20h53.47.830,forced_choiceRT,2021.1.2,MacIntel,58.82352941,,,,,,,,8,Ontime,g,1,2.026,3,1,13,1,1,,,,,
,1.81,,,,,,,,,h.PNG,h,6111487d928672ed8b815cae,2021-09-08_20h53.47.830,forced_choiceRT,2021.1.2,MacIntel,58.82352941,,,,,,,,8,Slow,h,1,2.355,3,2,14,2,1,,,,,
,0.86,,,,,,,,,h.PNG,h,6111487d928672ed8b815cae,2021-09-08_20h53.47.830,forced_choiceRT,2021.1.2,MacIntel,58.82352941,,,,,,,,8,Ontime,h,1,2.025,3,3,15,2,1,,,,,
,1.88,,,,,,,,,j.PNG,j,6111487d928672ed8b815cae,2021-09-08_20h53.47.830,forced_choiceRT,2021.1.2,MacIntel,58.82352941,,,,,,,,8,Slow,j,1,2.389,4,0,16,3,1,,,,,
,0.7,,,,,,,,,j.PNG,j,6111487d928672ed8b815cae,2021-09-08_20h53.47.830,forced_choiceRT,2021.1.2,MacIntel,58.82352941,,,,,,,,8,Ontime,j,1,2.076,4,1,17,3,1,,,,,
,1.83,,,,,,,,,h.PNG,h,6111487d928672ed8b815cae,2021-09-08_20h53.47.830,forced_choiceRT,2021.1.2,MacIntel,58.82352941,,,,,,,,8,Slow,h,1,2.407,4,2,18,2,1,,,,,
,1.83,,,,,,,,,f.PNG,f,6111487d928672ed8b815cae,2021-09-08_20h53.47.830,forced_choiceRT,2021.1.2,MacIntel,58.82352941,,,,,,,,8,Slow,f,1,2.34,4,3,19,0,1,,,,,
,1.2,,,,,,,,,h.PNG,h,6111487d928672ed8b815cae,2021-09-08_20h53.47.830,forced_choiceRT,2021.1.2,MacIntel,58.82352941,,,,,,,,8,Slow,h,1,2.125,5,0,20,2,1,,,,,
,1.25,,,,,,,,,h.PNG,h,6111487d928672ed8b815cae,2021-09-08_20h53.47.830,forced_choiceRT,2021.1.2,MacIntel,58.82352941,,,,,,,,8,Fast,h,1,1.762,5,1,21,2,1,,,,,
,1.1,,,,,,,,,h.PNG,h,6111487d928672ed8b815cae,2021-09-08_20h53.47.830,forced_choiceRT,2021.1.2,MacIntel,58.82352941,,,,,,,,8,Ontime,h,1,2.068,5,2,22,2,1,,,,,
,1.77,,,,,,,,,g.PNG,g,6111487d928672ed8b815cae,2021-09-08_20h53.47.830,forced_choiceRT,2021.1.2,MacIntel,58.82352941,,,,,,,,8,Slow,g,1,2.297,5,3,23,1,1,,,,,
,1.2,,,,,,,,,j.PNG,j,6111487d928672ed8b815cae,2021-09-08_20h53.47.830,forced_choiceRT,2021.1.2,MacIntel,58.82352941,,,,,,,,8,Ontime,j,1,2.049,6,0,24,3,1,,,,,
,1.58,,,,,,,,,g.PNG,g,6111487d928672ed8b815cae,2021-09-08_20h53.47.830,forced_choiceRT,2021.1.2,MacIntel,58.82352941,,,,,,,,8,Ontime,g,1,2.067,6,1,25,1,1,,,,,
,0.97,,,,,,,,,f.PNG,f,6111487d928672ed8b815cae,2021-09-08_20h53.47.830,forced_choiceRT,2021.1.2,MacIntel,58.82352941,,,,,,,,8,Slow,f,1,2.107,6,2,26,0,1,,,,,
,0.46,,,,,,,,,f.PNG,f,6111487d928672ed8b815cae,2021-09-08_20h53.47.830,forced_choiceRT,2021.1.2,MacIntel,58.82352941,,,,,,,,8,Slow,f,1,2.143,6,3,27,0,1,,,,,
,0.18,,,,,,,,,h.PNG,h,6111487d928672ed8b815cae,2021-09-08_20h53.47.830,forced_choiceRT,2021.1.2,MacIntel,58.82352941,,,,,,,,8,Ontime,h,1,2.028,7,0,28,2,1,,,,,
,0.81,,,,,,,,,f.PNG,f,6111487d928672ed8b815cae,2021-09-08_20h53.47.830,forced_choiceRT,2021.1.2,MacIntel,58.82352941,,,,,,,,8,Ontime,f,1,2.023,7,1,29,0,1,,,,,
,1.07,,,,,,,,,h.PNG,h,6111487d928672ed8b815cae,2021-09-08_20h53.47.830,forced_choiceRT,2021.1.2,MacIntel,58.82352941,,,,,,,,8,Ontime,h,1,2.022,7,2,30,2,1,,,,,
,1.36,,,,,,,,,g.PNG,g,6111487d928672ed8b815cae,2021-09-08_20h53.47.830,forced_choiceRT,2021.1.2,MacIntel,58.82352941,,,,,,,,8,Ontime,g,1,1.902,7,3,31,1,1,,,,,
,0.76,,,,,,,,,f.PNG,f,6111487d928672ed8b815cae,2021-09-08_20h53.47.830,forced_choiceRT,2021.1.2,MacIntel,58.82352941,,,,,,,,8,Slow,f,1,2.117,8,0,32,0,1,,,,,
,1.47,,,,,,,,,g.PNG,g,6111487d928672ed8b815cae,2021-09-08_20h53.47.830,forced_choiceRT,2021.1.2,MacIntel,58.82352941,,,,,,,,8,Slow,g,1,2.11,8,1,33,1,1,,,,,
,1.37,,,,,,,,,g.PNG,g,6111487d928672ed8b815cae,2021-09-08_20h53.47.830,forced_choiceRT,2021.1.2,MacIntel,58.82352941,,,,,,,,8,Ontime,g,1,2.002,8,2,34,1,1,,,,,
,1.95,,,,,,,,,j.PNG,j,6111487d928672ed8b815cae,2021-09-08_20h53.47.830,forced_choiceRT,2021.1.2,MacIntel,58.82352941,,,,,,,,8,Slow,j,1,2.477,8,3,35,3,1,,,,,
,0.15,,,,,,,,,g.PNG,g,6111487d928672ed8b815cae,2021-09-08_20h53.47.830,forced_choiceRT,2021.1.2,MacIntel,58.82352941,,,,,,,,8,Slow,g,1,2.124,9,0,36,1,1,,,,,
,1.97,,,,,,,,,j.PNG,j,6111487d928672ed8b815cae,2021-09-08_20h53.47.830,forced_choiceRT,2021.1.2,MacIntel,58.82352941,,,,,,,,8,Slow,j,1,2.499,9,1,37,3,1,,,,,
,0.61,,,,,,,,,h.PNG,h,6111487d928672ed8b815cae,2021-09-08_20h53.47.830,forced_choiceRT,2021.1.2,MacIntel,58.82352941,,,,,,,,8,Ontime,h,1,2.026,9,2,38,2,1,,,,,
,0.72,,,,,,,,,j.PNG,j,6111487d928672ed8b815cae,2021-09-08_20h53.47.830,forced_choiceRT,2021.1.2,MacIntel,58.82352941,,,,,,,,8,Ontime,j,1,2.041,9,3,39,3,1,,,,,
,,,,,,,,,,,,6111487d928672ed8b815cae,2021-09-08_20h53.47.830,forced_choiceRT,2021.1.2,MacIntel,58.82352941,,,,,,,,,,,,,,,,,,7,0,7,0,1
,1.14,,,,,,,,,h.PNG,h,6111487d928672ed8b815cae,2021-09-08_20h53.47.830,forced_choiceRT,2021.1.2,MacIntel,58.82352941,,,,,,,,9,Slow,j,0,2.382,0,0,0,2,1,,,,,
,0.78,,,,,,,,,f.PNG,f,6111487d928672ed8b815cae,2021-09-08_20h53.47.830,forced_choiceRT,2021.1.2,MacIntel,58.82352941,,,,,,,,9,Ontime,f,1,2.038,0,1,1,0,1,,,,,
,1.11,,,,,,,,,f.PNG,f,6111487d928672ed8b815cae,2021-09-08_20h53.47.830,forced_choiceRT,2021.1.2,MacIntel,58.82352941,,,,,,,,9,Ontime,f,1,2.002,0,2,2,0,1,,,,,
,0.79,,,,,,,,,j.PNG,j,6111487d928672ed8b815cae,2021-09-08_20h53.47.830,forced_choiceRT,2021.1.2,MacIntel,58.82352941,,,,,,,,9,Ontime,h,0,1.977,0,3,3,3,1,,,,,
,0.36,,,,,,,,,g.PNG,g,6111487d928672ed8b815cae,2021-09-08_20h53.47.830,forced_choiceRT,2021.1.2,MacIntel,58.82352941,,,,,,,,9,Ontime,g,1,2.042,1,0,4,1,1,,,,,
,1.25,,,,,,,,,g.PNG,g,6111487d928672ed8b815cae,2021-09-08_20h53.47.830,forced_choiceRT,2021.1.2,MacIntel,58.82352941,,,,,,,,9,Ontime,g,1,1.976,1,1,5,1,1,,,,,
,1.96,,,,,,,,,j.PNG,j,6111487d928672ed8b815cae,2021-09-08_20h53.47.830,forced_choiceRT,2021.1.2,MacIntel,58.82352941,,,,,,,,9,Slow,j,1,2.52,1,2,6,3,1,,,,,
,0.19,,,,,,,,,h.PNG,h,6111487d928672ed8b815cae,2021-09-08_20h53.47.830,forced_choiceRT,2021.1.2,MacIntel,58.82352941,,,,,,,,9,Ontime,h,1,1.992,1,3,7,2,1,,,,,
,1.59,,,,,,,,,j.PNG,j,6111487d928672ed8b815cae,2021-09-08_20h53.47.830,forced_choiceRT,2021.1.2,MacIntel,58.82352941,,,,,,,,9,Slow,j,1,2.126,2,0,8,3,1,,,,,
,0.01,,,,,,,,,g.PNG,g,6111487d928672ed8b815cae,2021-09-08_20h53.47.830,forced_choiceRT,2021.1.2,MacIntel,58.82352941,,,,,,,,9,Ontime,g,1,2.068,2,1,9,1,1,,,,,
,1.95,,,,,,,,,f.PNG,f,6111487d928672ed8b815cae,2021-09-08_20h53.47.830,forced_choiceRT,2021.1.2,MacIntel,58.82352941,,,,,,,,9,Slow,f,1,2.45,2,2,10,0,1,,,,,
,0.01,,,,,,,,,h.PNG,h,6111487d928672ed8b815cae,2021-09-08_20h53.47.830,forced_choiceRT,2021.1.2,MacIntel,58.82352941,,,,,,,,9,Ontime,h,1,2.01,2,3,11,2,1,,,,,
,0.53,,,,,,,,,g.PNG,g,6111487d928672ed8b815cae,2021-09-08_20h53.47.830,forced_choiceRT,2021.1.2,MacIntel,58.82352941,,,,,,,,9,Ontime,g,1,2.053,3,0,12,1,1,,,,,
,0.9,,,,,,,,,f.PNG,f,6111487d928672ed8b815cae,2021-09-08_20h53.47.830,forced_choiceRT,2021.1.2,MacIntel,58.82352941,,,,,,,,9,Ontime,f,1,2.086,3,1,13,0,1,,,,,
,1.03,,,,,,,,,j.PNG,j,6111487d928672ed8b815cae,2021-09-08_20h53.47.830,forced_choiceRT,2021.1.2,MacIntel,58.82352941,,,,,,,,9,Slow,j,1,2.102,3,2,14,3,1,,,,,
,0.92,,,,,,,,,g.PNG,g,6111487d928672ed8b815cae,2021-09-08_20h53.47.830,forced_choiceRT,2021.1.2,MacIntel,58.82352941,,,,,,,,9,Ontime,g,1,2.067,3,3,15,1,1,,,,,
,0.69,,,,,,,,,g.PNG,g,6111487d928672ed8b815cae,2021-09-08_20h53.47.830,forced_choiceRT,2021.1.2,MacIntel,58.82352941,,,,,,,,9,Ontime,g,1,2.086,4,0,16,1,1,,,,,
,0.36,,,,,,,,,h.PNG,h,6111487d928672ed8b815cae,2021-09-08_20h53.47.830,forced_choiceRT,2021.1.2,MacIntel,58.82352941,,,,,,,,9,Ontime,h,1,2.043,4,1,17,2,1,,,,,
,1.35,,,,,,,,,f.PNG,f,6111487d928672ed8b815cae,2021-09-08_20h53.47.830,forced_choiceRT,2021.1.2,MacIntel,58.82352941,,,,,,,,9,Slow,f,1,2.318,4,2,18,0,1,,,,,
,1.4,,,,,,,,,j.PNG,j,6111487d928672ed8b815cae,2021-09-08_20h53.47.830,forced_choiceRT,2021.1.2,MacIntel,58.82352941,,,,,,,,9,Slow,j,1,2.318,4,3,19,3,1,,,,,
,1.16,,,,,,,,,j.PNG,j,6111487d928672ed8b815cae,2021-09-08_20h53.47.830,forced_choiceRT,2021.1.2,MacIntel,58.82352941,,,,,,,,9,Ontime,j,1,1.924,5,0,20,3,1,,,,,
,1.7,,,,,,,,,h.PNG,h,6111487d928672ed8b815cae,2021-09-08_20h53.47.830,forced_choiceRT,2021.1.2,MacIntel,58.82352941,,,,,,,,9,Slow,h,1,2.276,5,1,21,2,1,,,,,
,1.35,,,,,,,,,h.PNG,h,6111487d928672ed8b815cae,2021-09-08_20h53.47.830,forced_choiceRT,2021.1.2,MacIntel,58.82352941,,,,,,,,9,Slow,h,1,2.165,5,2,22,2,1,,,,,
,1.73,,,,,,,,,j.PNG,j,6111487d928672ed8b815cae,2021-09-08_20h53.47.830,forced_choiceRT,2021.1.2,MacIntel,58.82352941,,,,,,,,9,Slow,j,1,2.2,5,3,23,3,1,,,,,
,1.17,,,,,,,,,f.PNG,f,6111487d928672ed8b815cae,2021-09-08_20h53.47.830,forced_choiceRT,2021.1.2,MacIntel,58.82352941,,,,,,,,9,Ontime,f,1,1.985,6,0,24,0,1,,,,,
,1.9,,,,,,,,,g.PNG,g,6111487d928672ed8b815cae,2021-09-08_20h53.47.830,forced_choiceRT,2021.1.2,MacIntel,58.82352941,,,,,,,,9,Slow,g,1,2.339,6,1,25,1,1,,,,,
,1.42,,,,,,,,,f.PNG,f,6111487d928672ed8b815cae,2021-09-08_20h53.47.830,forced_choiceRT,2021.1.2,MacIntel,58.82352941,,,,,,,,9,Ontime,f,1,2.055,6,2,26,0,1,,,,,
,0.99,,,,,,,,,h.PNG,h,6111487d928672ed8b815cae,2021-09-08_20h53.47.830,forced_choiceRT,2021.1.2,MacIntel,58.82352941,,,,,,,,9,Ontime,h,1,2.026,6,3,27,2,1,,,,,
,0.26,,,,,,,,,f.PNG,f,6111487d928672ed8b815cae,2021-09-08_20h53.47.830,forced_choiceRT,2021.1.2,MacIntel,58.82352941,,,,,,,,9,Ontime,f,1,1.983,7,0,28,0,1,,,,,
,1.86,,,,,,,,,g.PNG,g,6111487d928672ed8b815cae,2021-09-08_20h53.47.830,forced_choiceRT,2021.1.2,MacIntel,58.82352941,,,,,,,,9,Slow,g,1,2.292,7,1,29,1,1,,,,,
,1.61,,,,,,,,,j.PNG,j,6111487d928672ed8b815cae,2021-09-08_20h53.47.830,forced_choiceRT,2021.1.2,MacIntel,58.82352941,,,,,,,,9,Slow,j,1,2.152,7,2,30,3,1,,,,,
,1.54,,,,,,,,,f.PNG,f,6111487d928672ed8b815cae,2021-09-08_20h53.47.830,forced_choiceRT,2021.1.2,MacIntel,58.82352941,,,,,,,,9,Ontime,f,1,2.051,7,3,31,0,1,,,,,
,0.51,,,,,,,,,j.PNG,j,6111487d928672ed8b815cae,2021-09-08_20h53.47.830,forced_choiceRT,2021.1.2,MacIntel,58.82352941,,,,,,,,9,Ontime,j,1,2.04,8,0,32,3,1,,,,,
,0.93,,,,,,,,,h.PNG,h,6111487d928672ed8b815cae,2021-09-08_20h53.47.830,forced_choiceRT,2021.1.2,MacIntel,58.82352941,,,,,,,,9,Ontime,h,1,2.018,8,1,33,2,1,,,,,
,1.06,,,,,,,,,h.PNG,h,6111487d928672ed8b815cae,2021-09-08_20h53.47.830,forced_choiceRT,2021.1.2,MacIntel,58.82352941,,,,,,,,9,Ontime,h,1,2.019,8,2,34,2,1,,,,,
,0.66,,,,,,,,,g.PNG,g,6111487d928672ed8b815cae,2021-09-08_20h53.47.830,forced_choiceRT,2021.1.2,MacIntel,58.82352941,,,,,,,,9,Ontime,g,1,2.084,8,3,35,1,1,,,,,
,0.14,,,,,,,,,j.PNG,j,6111487d928672ed8b815cae,2021-09-08_20h53.47.830,forced_choiceRT,2021.1.2,MacIntel,58.82352941,,,,,,,,9,Ontime,j,1,1.97,9,0,36,3,1,,,,,
,1.89,,,,,,,,,f.PNG,f,6111487d928672ed8b815cae,2021-09-08_20h53.47.830,forced_choiceRT,2021.1.2,MacIntel,58.82352941,,,,,,,,9,Slow,f,1,2.454,9,1,37,0,1,,,,,
,0.2,,,,,,,,,h.PNG,h,6111487d928672ed8b815cae,2021-09-08_20h53.47.830,forced_choiceRT,2021.1.2,MacIntel,58.82352941,,,,,,,,9,Ontime,h,1,1.994,9,2,38,2,1,,,,,
,0.09,,,,,,,,,g.PNG,g,6111487d928672ed8b815cae,2021-09-08_20h53.47.830,forced_choiceRT,2021.1.2,MacIntel,58.82352941,,,,,,,,9,Ontime,g,1,2,9,3,39,1,1,,,,,
,,,,,,,,,,,,6111487d928672ed8b815cae,2021-09-08_20h53.47.830,forced_choiceRT,2021.1.2,MacIntel,58.82352941,,,,,,,,,,,,,,,,,,8,0,8,0,1
,0.28,,,,,,,,,h.PNG,h,6111487d928672ed8b815cae,2021-09-08_20h53.47.830,forced_choiceRT,2021.1.2,MacIntel,58.82352941,,,,,,,,10,Ontime,h,1,2.053,0,0,0,2,1,,,,,
,1.77,,,,,,,,,j.PNG,j,6111487d928672ed8b815cae,2021-09-08_20h53.47.830,forced_choiceRT,2021.1.2,MacIntel,58.82352941,,,,,,,,10,Slow,j,1,2.288,0,1,1,3,1,,,,,
,1.45,,,,,,,,,h.PNG,h,6111487d928672ed8b815cae,2021-09-08_20h53.47.830,forced_choiceRT,2021.1.2,MacIntel,58.82352941,,,,,,,,10,Ontime,h,1,1.959,0,2,2,2,1,,,,,
,0.84,,,,,,,,,f.PNG,f,6111487d928672ed8b815cae,2021-09-08_20h53.47.830,forced_choiceRT,2021.1.2,MacIntel,58.82352941,,,,,,,,10,Ontime,f,1,1.959,0,3,3,0,1,,,,,
,0.16,,,,,,,,,j.PNG,j,6111487d928672ed8b815cae,2021-09-08_20h53.47.830,forced_choiceRT,2021.1.2,MacIntel,58.82352941,,,,,,,,10,Ontime,j,1,2.01,1,0,4,3,1,,,,,
,1.87,,,,,,,,,j.PNG,j,6111487d928672ed8b815cae,2021-09-08_20h53.47.830,forced_choiceRT,2021.1.2,MacIntel,58.82352941,,,,,,,,10,Slow,j,1,2.333,1,1,5,3,1,,,,,
,0.22,,,,,,,,,g.PNG,g,6111487d928672ed8b815cae,2021-09-08_20h53.47.830,forced_choiceRT,2021.1.2,MacIntel,58.82352941,,,,,,,,10,Ontime,g,1,2.087,1,2,6,1,1,,,,,
,0.48,,,,,,,,,h.PNG,h,6111487d928672ed8b815cae,2021-09-08_20h53.47.830,forced_choiceRT,2021.1.2,MacIntel,58.82352941,,,,,,,,10,Ontime,h,1,1.958,1,3,7,2,1,,,,,
,0.37,,,,,,,,,g.PNG,g,6111487d928672ed8b815cae,2021-09-08_20h53.47.830,forced_choiceRT,2021.1.2,MacIntel,58.82352941,,,,,,,,10,Ontime,g,1,2.016,2,0,8,1,1,,,,,
,1.5,,,,,,,,,g.PNG,g,6111487d928672ed8b815cae,2021-09-08_20h53.47.830,forced_choiceRT,2021.1.2,MacIntel,58.82352941,,,,,,,,10,Ontime,g,1,2.082,2,1,9,1,1,,,,,
,0.6,,,,,,,,,f.PNG,f,6111487d928672ed8b815cae,2021-09-08_20h53.47.830,forced_choiceRT,2021.1.2,MacIntel,58.82352941,,,,,,,,10,Ontime,f,1,1.993,2,2,10,0,1,,,,,
,0.44,,,,,,,,,f.PNG,f,6111487d928672ed8b815cae,2021-09-08_20h53.47.830,forced_choiceRT,2021.1.2,MacIntel,58.82352941,,,,,,,,10,Fast,g,0,1.898,2,3,11,0,1,,,,,
,1.67,,,,,,,,,h.PNG,h,6111487d928672ed8b815cae,2021-09-08_20h53.47.830,forced_choiceRT,2021.1.2,MacIntel,58.82352941,,,,,,,,10,Slow,h,1,2.3,3,0,12,2,1,,,,,
,1.2,,,,,,,,,j.PNG,j,6111487d928672ed8b815cae,2021-09-08_20h53.47.830,forced_choiceRT,2021.1.2,MacIntel,58.82352941,,,,,,,,10,Ontime,j,1,1.929,3,1,13,3,1,,,,,
,1.4,,,,,,,,,g.PNG,g,6111487d928672ed8b815cae,2021-09-08_20h53.47.830,forced_choiceRT,2021.1.2,MacIntel,58.82352941,,,,,,,,10,Ontime,g,1,2.042,3,2,14,1,1,,,,,
,1.46,,,,,,,,,g.PNG,g,6111487d928672ed8b815cae,2021-09-08_20h53.47.830,forced_choiceRT,2021.1.2,MacIntel,58.82352941,,,,,,,,10,Ontime,g,1,1.966,3,3,15,1,1,,,,,
,1.97,,,,,,,,,f.PNG,f,6111487d928672ed8b815cae,2021-09-08_20h53.47.830,forced_choiceRT,2021.1.2,MacIntel,58.82352941,,,,,,,,10,Slow,f,1,2.476,4,0,16,0,1,,,,,
,1.5,,,,,,,,,g.PNG,g,6111487d928672ed8b815cae,2021-09-08_20h53.47.830,forced_choiceRT,2021.1.2,MacIntel,58.82352941,,,,,,,,10,Ontime,g,1,1.967,4,1,17,1,1,,,,,
,1.84,,,,,,,,,h.PNG,h,6111487d928672ed8b815cae,2021-09-08_20h53.47.830,forced_choiceRT,2021.1.2,MacIntel,58.82352941,,,,,,,,10,Slow,f,0,2.253,4,2,18,2,1,,,,,
,0.3,,,,,,,,,g.PNG,g,6111487d928672ed8b815cae,2021-09-08_20h53.47.830,forced_choiceRT,2021.1.2,MacIntel,58.82352941,,,,,,,,10,Ontime,g,1,1.96,4,3,19,1,1,,,,,
,1.93,,,,,,,,,j.PNG,j,6111487d928672ed8b815cae,2021-09-08_20h53.47.830,forced_choiceRT,2021.1.2,MacIntel,58.82352941,,,,,,,,10,Slow,h,0,2.326,5,0,20,3,1,,,,,
,0.86,,,,,,,,,j.PNG,j,6111487d928672ed8b815cae,2021-09-08_20h53.47.830,forced_choiceRT,2021.1.2,MacIntel,58.82352941,,,,,,,,10,Ontime,j,1,2.032,5,1,21,3,1,,,,,
,1.54,,,,,,,,,f.PNG,f,6111487d928672ed8b815cae,2021-09-08_20h53.47.830,forced_choiceRT,2021.1.2,MacIntel,58.82352941,,,,,,,,10,Slow,f,1,2.294,5,2,22,0,1,,,,,
,1.97,,,,,,,,,h.PNG,h,6111487d928672ed8b815cae,2021-09-08_20h53.47.830,forced_choiceRT,2021.1.2,MacIntel,58.82352941,,,,,,,,10,Slow,h,1,2.692,5,3,23,2,1,,,,,
,1.88,,,,,,,,,g.PNG,g,6111487d928672ed8b815cae,2021-09-08_20h53.47.830,forced_choiceRT,2021.1.2,MacIntel,58.82352941,,,,,,,,10,Slow,g,1,2.446,6,0,24,1,1,,,,,
,0.8,,,,,,,,,j.PNG,j,6111487d928672ed8b815cae,2021-09-08_20h53.47.830,forced_choiceRT,2021.1.2,MacIntel,58.82352941,,,,,,,,10,Ontime,j,1,1.948,6,1,25,3,1,,,,,
,0.3,,,,,,,,,j.PNG,j,6111487d928672ed8b815cae,2021-09-08_20h53.47.830,forced_choiceRT,2021.1.2,MacIntel,58.82352941,,,,,,,,10,Ontime,j,1,1.949,6,2,26,3,1,,,,,
,0.24,,,,,,,,,f.PNG,f,6111487d928672ed8b815cae,2021-09-08_20h53.47.830,forced_choiceRT,2021.1.2,MacIntel,58.82352941,,,,,,,,10,Ontime,g,0,1.959,6,3,27,0,1,,,,,
,0.83,,,,,,,,,h.PNG,h,6111487d928672ed8b815cae,2021-09-08_20h53.47.830,forced_choiceRT,2021.1.2,MacIntel,58.82352941,,,,,,,,10,Ontime,h,1,2.001,7,0,28,2,1,,,,,
,1.77,,,,,,,,,f.PNG,f,6111487d928672ed8b815cae,2021-09-08_20h53.47.830,forced_choiceRT,2021.1.2,MacIntel,58.82352941,,,,,,,,10,Slow,f,1,2.325,7,1,29,0,1,,,,,
,0.26,,,,,,,,,g.PNG,g,6111487d928672ed8b815cae,2021-09-08_20h53.47.830,forced_choiceRT,2021.1.2,MacIntel,58.82352941,,,,,,,,10,Slow,f,0,2.151,7,2,30,1,1,,,,,
,0.89,,,,,,,,,j.PNG,j,6111487d928672ed8b815cae,2021-09-08_20h53.47.830,forced_choiceRT,2021.1.2,MacIntel,58.82352941,,,,,,,,10,Ontime,j,1,2.069,7,3,31,3,1,,,,,
,1.92,,,,,,,,,h.PNG,h,6111487d928672ed8b815cae,2021-09-08_20h53.47.830,forced_choiceRT,2021.1.2,MacIntel,58.82352941,,,,,,,,10,Slow,h,1,2.609,8,0,32,2,1,,,,,
,1.59,,,,,,,,,h.PNG,h,6111487d928672ed8b815cae,2021-09-08_20h53.47.830,forced_choiceRT,2021.1.2,MacIntel,58.82352941,,,,,,,,10,Slow,h,1,2.321,8,1,33,2,1,,,,,
,1.15,,,,,,,,,f.PNG,f,6111487d928672ed8b815cae,2021-09-08_20h53.47.830,forced_choiceRT,2021.1.2,MacIntel,58.82352941,,,,,,,,10,Slow,f,1,2.335,8,2,34,0,1,,,,,
,1.42,,,,,,,,,f.PNG,f,6111487d928672ed8b815cae,2021-09-08_20h53.47.830,forced_choiceRT,2021.1.2,MacIntel,58.82352941,,,,,,,,10,Slow,f,1,2.174,8,3,35,0,1,,,,,
,1.56,,,,,,,,,j.PNG,j,6111487d928672ed8b815cae,2021-09-08_20h53.47.830,forced_choiceRT,2021.1.2,MacIntel,58.82352941,,,,,,,,10,Ontime,j,1,2.069,9,0,36,3,1,,,,,
,0.9,,,,,,,,,g.PNG,g,6111487d928672ed8b815cae,2021-09-08_20h53.47.830,forced_choiceRT,2021.1.2,MacIntel,58.82352941,,,,,,,,10,Ontime,g,1,2.027,9,1,37,1,1,,,,,
,1.4,,,,,,,,,h.PNG,h,6111487d928672ed8b815cae,2021-09-08_20h53.47.830,forced_choiceRT,2021.1.2,MacIntel,58.82352941,,,,,,,,10,Ontime,h,1,2.034,9,2,38,2,1,,,,,
,0.25,,,,,,,,,f.PNG,f,6111487d928672ed8b815cae,2021-09-08_20h53.47.830,forced_choiceRT,2021.1.2,MacIntel,58.82352941,,,,,,,,10,Ontime,f,1,1.96,9,3,39,0,1,,,,,
,,,,,,,,,,,,6111487d928672ed8b815cae,2021-09-08_20h53.47.830,forced_choiceRT,2021.1.2,MacIntel,58.82352941,,,,,,,,,,,,,,,,,,9,0,9,0,1
