IP_Addresss,target_onset,trial_resp_sp.keys,trial_resp_sp.corr,trial_resp_sp.rt,trials_train_loop.thisRepN,trials_train_loop.thisTrialN,trials_train_loop.thisN,trials_train_loop.thisIndex,trials_train_loop.ran,pic,correct_key,participant,date,expName,psychopyVersion,OS,frameRate,trial_resp_timing.keys,trial_resp_timing.rt,trials_train_timing.thisRepN,trials_train_timing.thisTrialN,trials_train_timing.thisN,trials_train_timing.thisIndex,trials_train_timing.ran,block_id,ontime,forcedRT_resp.keys,forcedRT_resp.corr,forcedRT_resp.rt,trials.thisRepN,trials.thisTrialN,trials.thisN,trials.thisIndex,trials.ran,blocks.thisRepN,blocks.thisTrialN,blocks.thisN,blocks.thisIndex,blocks.ran
70.185.25.226,0,h,1,1.7111,0,0,0,2,1,h.PNG,h,6111c4865701e1ba367af3e3,2021-09-08_21h03.43.831,forced_choiceRT,2021.1.2,Win32,60.01680471,,,,,,,,,,,,,,,,,,,,,,
,0,j,1,2.4653,0,1,1,3,1,j.PNG,j,6111c4865701e1ba367af3e3,2021-09-08_21h03.43.831,forced_choiceRT,2021.1.2,Win32,60.01680471,,,,,,,,,,,,,,,,,,,,,,
,0,j,1,1.0589,0,2,2,3,1,j.PNG,j,6111c4865701e1ba367af3e3,2021-09-08_21h03.43.831,forced_choiceRT,2021.1.2,Win32,60.01680471,,,,,,,,,,,,,,,,,,,,,,
,0,h,1,1.1367,0,3,3,2,1,h.PNG,h,6111c4865701e1ba367af3e3,2021-09-08_21h03.43.831,forced_choiceRT,2021.1.2,Win32,60.01680471,,,,,,,,,,,,,,,,,,,,,,
,0,g,1,0.9347,1,0,4,1,1,g.PNG,g,6111c4865701e1ba367af3e3,2021-09-08_21h03.43.831,forced_choiceRT,2021.1.2,Win32,60.01680471,,,,,,,,,,,,,,,,,,,,,,
,0,f,1,0.6158,1,1,5,0,1,f.PNG,f,6111c4865701e1ba367af3e3,2021-09-08_21h03.43.831,forced_choiceRT,2021.1.2,Win32,60.01680471,,,,,,,,,,,,,,,,,,,,,,
,0,g,1,1.0161,1,2,6,1,1,g.PNG,g,6111c4865701e1ba367af3e3,2021-09-08_21h03.43.831,forced_choiceRT,2021.1.2,Win32,60.01680471,,,,,,,,,,,,,,,,,,,,,,
,0,g,1,0.8184,1,3,7,1,1,g.PNG,g,6111c4865701e1ba367af3e3,2021-09-08_21h03.43.831,forced_choiceRT,2021.1.2,Win32,60.01680471,,,,,,,,,,,,,,,,,,,,,,
,0,g,0,0.6179,2,0,8,3,1,j.PNG,j,6111c4865701e1ba367af3e3,2021-09-08_21h03.43.831,forced_choiceRT,2021.1.2,Win32,60.01680471,,,,,,,,,,,,,,,,,,,,,,
,0,f,1,0.9671,2,1,9,0,1,f.PNG,f,6111c4865701e1ba367af3e3,2021-09-08_21h03.43.831,forced_choiceRT,2021.1.2,Win32,60.01680471,,,,,,,,,,,,,,,,,,,,,,
,0,g,1,0.9001,2,2,10,1,1,g.PNG,g,6111c4865701e1ba367af3e3,2021-09-08_21h03.43.831,forced_choiceRT,2021.1.2,Win32,60.01680471,,,,,,,,,,,,,,,,,,,,,,
,0,f,1,0.7197,2,3,11,0,1,f.PNG,f,6111c4865701e1ba367af3e3,2021-09-08_21h03.43.831,forced_choiceRT,2021.1.2,Win32,60.01680471,,,,,,,,,,,,,,,,,,,,,,
,0,g,1,0.8391,3,0,12,1,1,g.PNG,g,6111c4865701e1ba367af3e3,2021-09-08_21h03.43.831,forced_choiceRT,2021.1.2,Win32,60.01680471,,,,,,,,,,,,,,,,,,,,,,
,0,f,1,0.7167,3,1,13,0,1,f.PNG,f,6111c4865701e1ba367af3e3,2021-09-08_21h03.43.831,forced_choiceRT,2021.1.2,Win32,60.01680471,,,,,,,,,,,,,,,,,,,,,,
,0,g,1,0.8912,3,2,14,1,1,g.PNG,g,6111c4865701e1ba367af3e3,2021-09-08_21h03.43.831,forced_choiceRT,2021.1.2,Win32,60.01680471,,,,,,,,,,,,,,,,,,,,,,
,0,f,1,0.7508,3,3,15,0,1,f.PNG,f,6111c4865701e1ba367af3e3,2021-09-08_21h03.43.831,forced_choiceRT,2021.1.2,Win32,60.01680471,,,,,,,,,,,,,,,,,,,,,,
,0,f,1,0.601,4,0,16,0,1,f.PNG,f,6111c4865701e1ba367af3e3,2021-09-08_21h03.43.831,forced_choiceRT,2021.1.2,Win32,60.01680471,,,,,,,,,,,,,,,,,,,,,,
,0,h,1,1.2335,4,1,17,2,1,h.PNG,h,6111c4865701e1ba367af3e3,2021-09-08_21h03.43.831,forced_choiceRT,2021.1.2,Win32,60.01680471,,,,,,,,,,,,,,,,,,,,,,
,0,j,1,0.8836,4,2,18,3,1,j.PNG,j,6111c4865701e1ba367af3e3,2021-09-08_21h03.43.831,forced_choiceRT,2021.1.2,Win32,60.01680471,,,,,,,,,,,,,,,,,,,,,,
,0,g,1,1.2165,4,3,19,1,1,g.PNG,g,6111c4865701e1ba367af3e3,2021-09-08_21h03.43.831,forced_choiceRT,2021.1.2,Win32,60.01680471,,,,,,,,,,,,,,,,,,,,,,
,0,h,1,0.9672,5,0,20,2,1,h.PNG,h,6111c4865701e1ba367af3e3,2021-09-08_21h03.43.831,forced_choiceRT,2021.1.2,Win32,60.01680471,,,,,,,,,,,,,,,,,,,,,,
,0,h,1,1.15,5,1,21,2,1,h.PNG,h,6111c4865701e1ba367af3e3,2021-09-08_21h03.43.831,forced_choiceRT,2021.1.2,Win32,60.01680471,,,,,,,,,,,,,,,,,,,,,,
,0,h,1,0.7343,5,2,22,2,1,h.PNG,h,6111c4865701e1ba367af3e3,2021-09-08_21h03.43.831,forced_choiceRT,2021.1.2,Win32,60.01680471,,,,,,,,,,,,,,,,,,,,,,
,0,g,1,0.7836,5,3,23,1,1,g.PNG,g,6111c4865701e1ba367af3e3,2021-09-08_21h03.43.831,forced_choiceRT,2021.1.2,Win32,60.01680471,,,,,,,,,,,,,,,,,,,,,,
,0,h,1,1.0047,6,0,24,2,1,h.PNG,h,6111c4865701e1ba367af3e3,2021-09-08_21h03.43.831,forced_choiceRT,2021.1.2,Win32,60.01680471,,,,,,,,,,,,,,,,,,,,,,
,0,g,1,0.8495,6,1,25,1,1,g.PNG,g,6111c4865701e1ba367af3e3,2021-09-08_21h03.43.831,forced_choiceRT,2021.1.2,Win32,60.01680471,,,,,,,,,,,,,,,,,,,,,,
,0,g,1,0.553,6,2,26,1,1,g.PNG,g,6111c4865701e1ba367af3e3,2021-09-08_21h03.43.831,forced_choiceRT,2021.1.2,Win32,60.01680471,,,,,,,,,,,,,,,,,,,,,,
,0,f,1,0.6838,6,3,27,0,1,f.PNG,f,6111c4865701e1ba367af3e3,2021-09-08_21h03.43.831,forced_choiceRT,2021.1.2,Win32,60.01680471,,,,,,,,,,,,,,,,,,,,,,
,0,g,1,1.4039,7,0,28,1,1,g.PNG,g,6111c4865701e1ba367af3e3,2021-09-08_21h03.43.831,forced_choiceRT,2021.1.2,Win32,60.01680471,,,,,,,,,,,,,,,,,,,,,,
,0,f,1,0.6507,7,1,29,0,1,f.PNG,f,6111c4865701e1ba367af3e3,2021-09-08_21h03.43.831,forced_choiceRT,2021.1.2,Win32,60.01680471,,,,,,,,,,,,,,,,,,,,,,
,0,g,1,0.7834,7,2,30,1,1,g.PNG,g,6111c4865701e1ba367af3e3,2021-09-08_21h03.43.831,forced_choiceRT,2021.1.2,Win32,60.01680471,,,,,,,,,,,,,,,,,,,,,,
,0,h,1,1.8206,7,3,31,2,1,h.PNG,h,6111c4865701e1ba367af3e3,2021-09-08_21h03.43.831,forced_choiceRT,2021.1.2,Win32,60.01680471,,,,,,,,,,,,,,,,,,,,,,
,0,h,1,1.1666,8,0,32,2,1,h.PNG,h,6111c4865701e1ba367af3e3,2021-09-08_21h03.43.831,forced_choiceRT,2021.1.2,Win32,60.01680471,,,,,,,,,,,,,,,,,,,,,,
,0,h,1,0.7672,8,1,33,2,1,h.PNG,h,6111c4865701e1ba367af3e3,2021-09-08_21h03.43.831,forced_choiceRT,2021.1.2,Win32,60.01680471,,,,,,,,,,,,,,,,,,,,,,
,0,f,1,0.6828,8,2,34,0,1,f.PNG,f,6111c4865701e1ba367af3e3,2021-09-08_21h03.43.831,forced_choiceRT,2021.1.2,Win32,60.01680471,,,,,,,,,,,,,,,,,,,,,,
,0,j,1,1.366,8,3,35,3,1,j.PNG,j,6111c4865701e1ba367af3e3,2021-09-08_21h03.43.831,forced_choiceRT,2021.1.2,Win32,60.01680471,,,,,,,,,,,,,,,,,,,,,,
,0,h,1,1.1493,9,0,36,2,1,h.PNG,h,6111c4865701e1ba367af3e3,2021-09-08_21h03.43.831,forced_choiceRT,2021.1.2,Win32,60.01680471,,,,,,,,,,,,,,,,,,,,,,
,0,h,1,0.9238,9,1,37,2,1,h.PNG,h,6111c4865701e1ba367af3e3,2021-09-08_21h03.43.831,forced_choiceRT,2021.1.2,Win32,60.01680471,,,,,,,,,,,,,,,,,,,,,,
,0,h,1,0.6177,9,2,38,2,1,h.PNG,h,6111c4865701e1ba367af3e3,2021-09-08_21h03.43.831,forced_choiceRT,2021.1.2,Win32,60.01680471,,,,,,,,,,,,,,,,,,,,,,
,0,j,1,0.8332,9,3,39,3,1,j.PNG,j,6111c4865701e1ba367af3e3,2021-09-08_21h03.43.831,forced_choiceRT,2021.1.2,Win32,60.01680471,,,,,,,,,,,,,,,,,,,,,,
,0,g,1,0.8995,10,0,40,1,1,g.PNG,g,6111c4865701e1ba367af3e3,2021-09-08_21h03.43.831,forced_choiceRT,2021.1.2,Win32,60.01680471,,,,,,,,,,,,,,,,,,,,,,
,0,j,1,0.9668,10,1,41,3,1,j.PNG,j,6111c4865701e1ba367af3e3,2021-09-08_21h03.43.831,forced_choiceRT,2021.1.2,Win32,60.01680471,,,,,,,,,,,,,,,,,,,,,,
,0,g,1,0.7219,10,2,42,1,1,g.PNG,g,6111c4865701e1ba367af3e3,2021-09-08_21h03.43.831,forced_choiceRT,2021.1.2,Win32,60.01680471,,,,,,,,,,,,,,,,,,,,,,
,0,h,1,1.0889,10,3,43,2,1,h.PNG,h,6111c4865701e1ba367af3e3,2021-09-08_21h03.43.831,forced_choiceRT,2021.1.2,Win32,60.01680471,,,,,,,,,,,,,,,,,,,,,,
,0,f,1,0.5422,11,0,44,0,1,f.PNG,f,6111c4865701e1ba367af3e3,2021-09-08_21h03.43.831,forced_choiceRT,2021.1.2,Win32,60.01680471,,,,,,,,,,,,,,,,,,,,,,
,0,j,1,1.1189,11,1,45,3,1,j.PNG,j,6111c4865701e1ba367af3e3,2021-09-08_21h03.43.831,forced_choiceRT,2021.1.2,Win32,60.01680471,,,,,,,,,,,,,,,,,,,,,,
,0,h,1,0.7836,11,2,46,2,1,h.PNG,h,6111c4865701e1ba367af3e3,2021-09-08_21h03.43.831,forced_choiceRT,2021.1.2,Win32,60.01680471,,,,,,,,,,,,,,,,,,,,,,
,0,f,1,0.5854,11,3,47,0,1,f.PNG,f,6111c4865701e1ba367af3e3,2021-09-08_21h03.43.831,forced_choiceRT,2021.1.2,Win32,60.01680471,,,,,,,,,,,,,,,,,,,,,,
,0,f,1,0.6264,12,0,48,0,1,f.PNG,f,6111c4865701e1ba367af3e3,2021-09-08_21h03.43.831,forced_choiceRT,2021.1.2,Win32,60.01680471,,,,,,,,,,,,,,,,,,,,,,
,0,g,1,0.7172,12,1,49,1,1,g.PNG,g,6111c4865701e1ba367af3e3,2021-09-08_21h03.43.831,forced_choiceRT,2021.1.2,Win32,60.01680471,,,,,,,,,,,,,,,,,,,,,,
,0,j,1,0.9493,12,2,50,3,1,j.PNG,j,6111c4865701e1ba367af3e3,2021-09-08_21h03.43.831,forced_choiceRT,2021.1.2,Win32,60.01680471,,,,,,,,,,,,,,,,,,,,,,
,0,j,1,0.5251,12,3,51,3,1,j.PNG,j,6111c4865701e1ba367af3e3,2021-09-08_21h03.43.831,forced_choiceRT,2021.1.2,Win32,60.01680471,,,,,,,,,,,,,,,,,,,,,,
,0,j,1,0.4835,13,0,52,3,1,j.PNG,j,6111c4865701e1ba367af3e3,2021-09-08_21h03.43.831,forced_choiceRT,2021.1.2,Win32,60.01680471,,,,,,,,,,,,,,,,,,,,,,
,0,j,1,0.4676,13,1,53,3,1,j.PNG,j,6111c4865701e1ba367af3e3,2021-09-08_21h03.43.831,forced_choiceRT,2021.1.2,Win32,60.01680471,,,,,,,,,,,,,,,,,,,,,,
,0,j,1,0.45,13,2,54,3,1,j.PNG,j,6111c4865701e1ba367af3e3,2021-09-08_21h03.43.831,forced_choiceRT,2021.1.2,Win32,60.01680471,,,,,,,,,,,,,,,,,,,,,,
,0,f,1,0.6006,13,3,55,0,1,f.PNG,f,6111c4865701e1ba367af3e3,2021-09-08_21h03.43.831,forced_choiceRT,2021.1.2,Win32,60.01680471,,,,,,,,,,,,,,,,,,,,,,
,0,j,1,0.5561,14,0,56,3,1,j.PNG,j,6111c4865701e1ba367af3e3,2021-09-08_21h03.43.831,forced_choiceRT,2021.1.2,Win32,60.01680471,,,,,,,,,,,,,,,,,,,,,,
,0,f,1,0.5837,14,1,57,0,1,f.PNG,f,6111c4865701e1ba367af3e3,2021-09-08_21h03.43.831,forced_choiceRT,2021.1.2,Win32,60.01680471,,,,,,,,,,,,,,,,,,,,,,
,0,f,1,0.4835,14,2,58,0,1,f.PNG,f,6111c4865701e1ba367af3e3,2021-09-08_21h03.43.831,forced_choiceRT,2021.1.2,Win32,60.01680471,,,,,,,,,,,,,,,,,,,,,,
,0,j,1,0.6163,14,3,59,3,1,j.PNG,j,6111c4865701e1ba367af3e3,2021-09-08_21h03.43.831,forced_choiceRT,2021.1.2,Win32,60.01680471,,,,,,,,,,,,,,,,,,,,,,
,,,,,,,,,,,,6111c4865701e1ba367af3e3,2021-09-08_21h03.43.831,forced_choiceRT,2021.1.2,Win32,60.01680471,h,12.007,0,0,0,0,1,,,,,,,,,,,,,,,
,,,,,,,,,,,,6111c4865701e1ba367af3e3,2021-09-08_21h03.43.831,forced_choiceRT,2021.1.2,Win32,60.01680471,f,2.379,1,0,1,0,1,,,,,,,,,,,,,,,
,,,,,,,,,,,,6111c4865701e1ba367af3e3,2021-09-08_21h03.43.831,forced_choiceRT,2021.1.2,Win32,60.01680471,g,1.0186,2,0,2,0,1,,,,,,,,,,,,,,,
,,,,,,,,,,,,6111c4865701e1ba367af3e3,2021-09-08_21h03.43.831,forced_choiceRT,2021.1.2,Win32,60.01680471,g,2.1622,3,0,3,0,1,,,,,,,,,,,,,,,
,,,,,,,,,,,,6111c4865701e1ba367af3e3,2021-09-08_21h03.43.831,forced_choiceRT,2021.1.2,Win32,60.01680471,j,1.9798,4,0,4,0,1,,,,,,,,,,,,,,,
,,,,,,,,,,,,6111c4865701e1ba367af3e3,2021-09-08_21h03.43.831,forced_choiceRT,2021.1.2,Win32,60.01680471,j,1.7671,5,0,5,0,1,,,,,,,,,,,,,,,
,,,,,,,,,,,,6111c4865701e1ba367af3e3,2021-09-08_21h03.43.831,forced_choiceRT,2021.1.2,Win32,60.01680471,j,2.1635,6,0,6,0,1,,,,,,,,,,,,,,,
,,,,,,,,,,,,6111c4865701e1ba367af3e3,2021-09-08_21h03.43.831,forced_choiceRT,2021.1.2,Win32,60.01680471,j,1.9636,7,0,7,0,1,,,,,,,,,,,,,,,
,,,,,,,,,,,,6111c4865701e1ba367af3e3,2021-09-08_21h03.43.831,forced_choiceRT,2021.1.2,Win32,60.01680471,j,1.9969,8,0,8,0,1,,,,,,,,,,,,,,,
,,,,,,,,,,,,6111c4865701e1ba367af3e3,2021-09-08_21h03.43.831,forced_choiceRT,2021.1.2,Win32,60.01680471,j,1.907,9,0,9,0,1,,,,,,,,,,,,,,,
,,,,,,,,,,,,6111c4865701e1ba367af3e3,2021-09-08_21h03.43.831,forced_choiceRT,2021.1.2,Win32,60.01680471,j,1.9197,10,0,10,0,1,,,,,,,,,,,,,,,
,,,,,,,,,,,,6111c4865701e1ba367af3e3,2021-09-08_21h03.43.831,forced_choiceRT,2021.1.2,Win32,60.01680471,h,2.0467,11,0,11,0,1,,,,,,,,,,,,,,,
,,,,,,,,,,,,6111c4865701e1ba367af3e3,2021-09-08_21h03.43.831,forced_choiceRT,2021.1.2,Win32,60.01680471,j,1.919,12,0,12,0,1,,,,,,,,,,,,,,,
,,,,,,,,,,,,6111c4865701e1ba367af3e3,2021-09-08_21h03.43.831,forced_choiceRT,2021.1.2,Win32,60.01680471,j,1.9698,13,0,13,0,1,,,,,,,,,,,,,,,
,,,,,,,,,,,,6111c4865701e1ba367af3e3,2021-09-08_21h03.43.831,forced_choiceRT,2021.1.2,Win32,60.01680471,g,1.9323,14,0,14,0,1,,,,,,,,,,,,,,,
,,,,,,,,,,,,6111c4865701e1ba367af3e3,2021-09-08_21h03.43.831,forced_choiceRT,2021.1.2,Win32,60.01680471,g,2.1796,15,0,15,0,1,,,,,,,,,,,,,,,
,,,,,,,,,,,,6111c4865701e1ba367af3e3,2021-09-08_21h03.43.831,forced_choiceRT,2021.1.2,Win32,60.01680471,g,2.0989,16,0,16,0,1,,,,,,,,,,,,,,,
,,,,,,,,,,,,6111c4865701e1ba367af3e3,2021-09-08_21h03.43.831,forced_choiceRT,2021.1.2,Win32,60.01680471,g,2.0638,17,0,17,0,1,,,,,,,,,,,,,,,
,,,,,,,,,,,,6111c4865701e1ba367af3e3,2021-09-08_21h03.43.831,forced_choiceRT,2021.1.2,Win32,60.01680471,g,1.7984,18,0,18,0,1,,,,,,,,,,,,,,,
,,,,,,,,,,,,6111c4865701e1ba367af3e3,2021-09-08_21h03.43.831,forced_choiceRT,2021.1.2,Win32,60.01680471,g,2.0985,19,0,19,0,1,,,,,,,,,,,,,,,
,1.36,,,,,,,,,h.PNG,h,6111c4865701e1ba367af3e3,2021-09-08_21h03.43.831,forced_choiceRT,2021.1.2,Win32,60.01680471,,,,,,,,1,Fast,j,0,1.7781,0,0,0,2,1,,,,,
,1.96,,,,,,,,,h.PNG,h,6111c4865701e1ba367af3e3,2021-09-08_21h03.43.831,forced_choiceRT,2021.1.2,Win32,60.01680471,,,,,,,,1,Ontime,h,1,2.0071,0,1,1,2,1,,,,,
,1.36,,,,,,,,,j.PNG,j,6111c4865701e1ba367af3e3,2021-09-08_21h03.43.831,forced_choiceRT,2021.1.2,Win32,60.01680471,,,,,,,,1,Fast,h,0,1.8361,0,2,2,3,1,,,,,
,1.21,,,,,,,,,f.PNG,f,6111c4865701e1ba367af3e3,2021-09-08_21h03.43.831,forced_choiceRT,2021.1.2,Win32,60.01680471,,,,,,,,1,Fast,f,1,1.805,0,3,3,0,1,,,,,
,0.36,,,,,,,,,h.PNG,h,6111c4865701e1ba367af3e3,2021-09-08_21h03.43.831,forced_choiceRT,2021.1.2,Win32,60.01680471,,,,,,,,1,Fast,h,1,1.3807,1,0,4,2,1,,,,,
,0.4,,,,,,,,,g.PNG,g,6111c4865701e1ba367af3e3,2021-09-08_21h03.43.831,forced_choiceRT,2021.1.2,Win32,60.01680471,,,,,,,,1,Ontime,g,1,1.921,1,1,5,1,1,,,,,
,0.69,,,,,,,,,h.PNG,h,6111c4865701e1ba367af3e3,2021-09-08_21h03.43.831,forced_choiceRT,2021.1.2,Win32,60.01680471,,,,,,,,1,Fast,h,1,1.6874,1,2,6,2,1,,,,,
,0.38,,,,,,,,,g.PNG,g,6111c4865701e1ba367af3e3,2021-09-08_21h03.43.831,forced_choiceRT,2021.1.2,Win32,60.01680471,,,,,,,,1,Ontime,g,1,1.92,1,3,7,1,1,,,,,
,0.03,,,,,,,,,h.PNG,h,6111c4865701e1ba367af3e3,2021-09-08_21h03.43.831,forced_choiceRT,2021.1.2,Win32,60.01680471,,,,,,,,1,Fast,h,1,1.8157,2,0,8,2,1,,,,,
,1.74,,,,,,,,,f.PNG,f,6111c4865701e1ba367af3e3,2021-09-08_21h03.43.831,forced_choiceRT,2021.1.2,Win32,60.01680471,,,,,,,,1,Slow,f,1,2.2968,2,1,9,0,1,,,,,
,1.13,,,,,,,,,f.PNG,f,6111c4865701e1ba367af3e3,2021-09-08_21h03.43.831,forced_choiceRT,2021.1.2,Win32,60.01680471,,,,,,,,1,Fast,f,1,1.7402,2,2,10,0,1,,,,,
,0.75,,,,,,,,,h.PNG,h,6111c4865701e1ba367af3e3,2021-09-08_21h03.43.831,forced_choiceRT,2021.1.2,Win32,60.01680471,,,,,,,,1,Fast,h,1,1.747,2,3,11,2,1,,,,,
,1.95,,,,,,,,,g.PNG,g,6111c4865701e1ba367af3e3,2021-09-08_21h03.43.831,forced_choiceRT,2021.1.2,Win32,60.01680471,,,,,,,,1,Slow,f,0,2.3993,3,0,12,1,1,,,,,
,0.65,,,,,,,,,f.PNG,f,6111c4865701e1ba367af3e3,2021-09-08_21h03.43.831,forced_choiceRT,2021.1.2,Win32,60.01680471,,,,,,,,1,Fast,f,1,1.8373,3,1,13,0,1,,,,,
,1.76,,,,,,,,,j.PNG,j,6111c4865701e1ba367af3e3,2021-09-08_21h03.43.831,forced_choiceRT,2021.1.2,Win32,60.01680471,,,,,,,,1,Slow,h,0,2.2986,3,2,14,3,1,,,,,
,1.4,,,,,,,,,g.PNG,g,6111c4865701e1ba367af3e3,2021-09-08_21h03.43.831,forced_choiceRT,2021.1.2,Win32,60.01680471,,,,,,,,1,Ontime,g,1,1.989,3,3,15,1,1,,,,,
,0.18,,,,,,,,,f.PNG,f,6111c4865701e1ba367af3e3,2021-09-08_21h03.43.831,forced_choiceRT,2021.1.2,Win32,60.01680471,,,,,,,,1,Ontime,f,1,2.0631,4,0,16,0,1,,,,,
,1.29,,,,,,,,,j.PNG,j,6111c4865701e1ba367af3e3,2021-09-08_21h03.43.831,forced_choiceRT,2021.1.2,Win32,60.01680471,,,,,,,,1,Slow,j,1,2.113,4,1,17,3,1,,,,,
,1.66,,,,,,,,,f.PNG,f,6111c4865701e1ba367af3e3,2021-09-08_21h03.43.831,forced_choiceRT,2021.1.2,Win32,60.01680471,,,,,,,,1,Slow,f,1,2.18,4,2,18,0,1,,,,,
,1.66,,,,,,,,,h.PNG,h,6111c4865701e1ba367af3e3,2021-09-08_21h03.43.831,forced_choiceRT,2021.1.2,Win32,60.01680471,,,,,,,,1,Slow,h,1,2.2155,4,3,19,2,1,,,,,
,1.91,,,,,,,,,g.PNG,g,6111c4865701e1ba367af3e3,2021-09-08_21h03.43.831,forced_choiceRT,2021.1.2,Win32,60.01680471,,,,,,,,1,Slow,g,1,2.1212,5,0,20,1,1,,,,,
,1.34,,,,,,,,,j.PNG,j,6111c4865701e1ba367af3e3,2021-09-08_21h03.43.831,forced_choiceRT,2021.1.2,Win32,60.01680471,,,,,,,,1,Ontime,h,0,2.0543,5,1,21,3,1,,,,,
,0.33,,,,,,,,,j.PNG,j,6111c4865701e1ba367af3e3,2021-09-08_21h03.43.831,forced_choiceRT,2021.1.2,Win32,60.01680471,,,,,,,,1,Fast,h,0,1.4158,5,2,22,3,1,,,,,
,0.08,,,,,,,,,h.PNG,h,6111c4865701e1ba367af3e3,2021-09-08_21h03.43.831,forced_choiceRT,2021.1.2,Win32,60.01680471,,,,,,,,1,Ontime,h,1,2.0641,5,3,23,2,1,,,,,
,1,,,,,,,,,g.PNG,g,6111c4865701e1ba367af3e3,2021-09-08_21h03.43.831,forced_choiceRT,2021.1.2,Win32,60.01680471,,,,,,,,1,Fast,g,1,1.6038,6,0,24,1,1,,,,,
,1.67,,,,,,,,,j.PNG,j,6111c4865701e1ba367af3e3,2021-09-08_21h03.43.831,forced_choiceRT,2021.1.2,Win32,60.01680471,,,,,,,,1,Slow,g,0,2.1824,6,1,25,3,1,,,,,
,0.88,,,,,,,,,f.PNG,f,6111c4865701e1ba367af3e3,2021-09-08_21h03.43.831,forced_choiceRT,2021.1.2,Win32,60.01680471,,,,,,,,1,Ontime,f,1,1.9044,6,2,26,0,1,,,,,
,0.03,,,,,,,,,j.PNG,j,6111c4865701e1ba367af3e3,2021-09-08_21h03.43.831,forced_choiceRT,2021.1.2,Win32,60.01680471,,,,,,,,1,Ontime,j,1,1.9366,6,3,27,3,1,,,,,
,1.86,,,,,,,,,f.PNG,f,6111c4865701e1ba367af3e3,2021-09-08_21h03.43.831,forced_choiceRT,2021.1.2,Win32,60.01680471,,,,,,,,1,Slow,f,1,2.3535,7,0,28,0,1,,,,,
,0.81,,,,,,,,,h.PNG,h,6111c4865701e1ba367af3e3,2021-09-08_21h03.43.831,forced_choiceRT,2021.1.2,Win32,60.01680471,,,,,,,,1,Fast,h,1,1.6234,7,1,29,2,1,,,,,
,0.08,,,,,,,,,j.PNG,j,6111c4865701e1ba367af3e3,2021-09-08_21h03.43.831,forced_choiceRT,2021.1.2,Win32,60.01680471,,,,,,,,1,Ontime,j,1,2.0059,7,2,30,3,1,,,,,
,0.97,,,,,,,,,f.PNG,f,6111c4865701e1ba367af3e3,2021-09-08_21h03.43.831,forced_choiceRT,2021.1.2,Win32,60.01680471,,,,,,,,1,Fast,f,1,1.8041,7,3,31,0,1,,,,,
,0.46,,,,,,,,,f.PNG,f,6111c4865701e1ba367af3e3,2021-09-08_21h03.43.831,forced_choiceRT,2021.1.2,Win32,60.01680471,,,,,,,,1,Fast,f,1,1.5195,8,0,32,0,1,,,,,
,0.08,,,,,,,,,j.PNG,j,6111c4865701e1ba367af3e3,2021-09-08_21h03.43.831,forced_choiceRT,2021.1.2,Win32,60.01680471,,,,,,,,1,Ontime,j,1,1.9804,8,1,33,3,1,,,,,
,1.85,,,,,,,,,g.PNG,g,6111c4865701e1ba367af3e3,2021-09-08_21h03.43.831,forced_choiceRT,2021.1.2,Win32,60.01680471,,,,,,,,1,Slow,f,0,2.2293,8,2,34,1,1,,,,,
,0.54,,,,,,,,,g.PNG,g,6111c4865701e1ba367af3e3,2021-09-08_21h03.43.831,forced_choiceRT,2021.1.2,Win32,60.01680471,,,,,,,,1,Ontime,g,1,1.9637,8,3,35,1,1,,,,,
,1.47,,,,,,,,,g.PNG,g,6111c4865701e1ba367af3e3,2021-09-08_21h03.43.831,forced_choiceRT,2021.1.2,Win32,60.01680471,,,,,,,,1,Ontime,g,1,1.9345,9,0,36,1,1,,,,,
,1.78,,,,,,,,,j.PNG,j,6111c4865701e1ba367af3e3,2021-09-08_21h03.43.831,forced_choiceRT,2021.1.2,Win32,60.01680471,,,,,,,,1,Ontime,f,0,2.0966,9,1,37,3,1,,,,,
,0.77,,,,,,,,,h.PNG,h,6111c4865701e1ba367af3e3,2021-09-08_21h03.43.831,forced_choiceRT,2021.1.2,Win32,60.01680471,,,,,,,,1,Fast,h,1,1.7334,9,2,38,2,1,,,,,
,1.6,,,,,,,,,g.PNG,g,6111c4865701e1ba367af3e3,2021-09-08_21h03.43.831,forced_choiceRT,2021.1.2,Win32,60.01680471,,,,,,,,1,Slow,h,0,2.1377,9,3,39,1,1,,,,,
,,,,,,,,,,,,6111c4865701e1ba367af3e3,2021-09-08_21h03.43.831,forced_choiceRT,2021.1.2,Win32,60.01680471,,,,,,,,,,,,,,,,,,0,0,0,0,1
,0.61,,,,,,,,,f.PNG,f,6111c4865701e1ba367af3e3,2021-09-08_21h03.43.831,forced_choiceRT,2021.1.2,Win32,60.01680471,,,,,,,,2,Ontime,f,1,1.9495,0,0,0,0,1,,,,,
,1.08,,,,,,,,,g.PNG,g,6111c4865701e1ba367af3e3,2021-09-08_21h03.43.831,forced_choiceRT,2021.1.2,Win32,60.01680471,,,,,,,,2,Fast,g,1,1.8475,0,1,1,1,1,,,,,
,1.86,,,,,,,,,j.PNG,j,6111c4865701e1ba367af3e3,2021-09-08_21h03.43.831,forced_choiceRT,2021.1.2,Win32,60.01680471,,,,,,,,2,Fast,g,0,1.0198,0,2,2,3,1,,,,,
,1.51,,,,,,,,,g.PNG,g,6111c4865701e1ba367af3e3,2021-09-08_21h03.43.831,forced_choiceRT,2021.1.2,Win32,60.01680471,,,,,,,,2,Fast,h,0,0.3192,0,3,3,1,1,,,,,
,0.42,,,,,,,,,j.PNG,j,6111c4865701e1ba367af3e3,2021-09-08_21h03.43.831,forced_choiceRT,2021.1.2,Win32,60.01680471,,,,,,,,2,Fast,f,0,0.2652,1,0,4,3,1,,,,,
,1.79,,,,,,,,,g.PNG,g,6111c4865701e1ba367af3e3,2021-09-08_21h03.43.831,forced_choiceRT,2021.1.2,Win32,60.01680471,,,,,,,,2,Fast,h,0,0.2395,1,1,5,1,1,,,,,
,1.89,,,,,,,,,f.PNG,f,6111c4865701e1ba367af3e3,2021-09-08_21h03.43.831,forced_choiceRT,2021.1.2,Win32,60.01680471,,,,,,,,2,Fast,g,0,0.266,1,2,6,0,1,,,,,
,1.91,,,,,,,,,h.PNG,h,6111c4865701e1ba367af3e3,2021-09-08_21h03.43.831,forced_choiceRT,2021.1.2,Win32,60.01680471,,,,,,,,2,Fast,j,0,0.2642,1,3,7,2,1,,,,,
,0.47,,,,,,,,,j.PNG,j,6111c4865701e1ba367af3e3,2021-09-08_21h03.43.831,forced_choiceRT,2021.1.2,Win32,60.01680471,,,,,,,,2,Fast,h,0,0.2646,2,0,8,3,1,,,,,
,0.07,,,,,,,,,f.PNG,f,6111c4865701e1ba367af3e3,2021-09-08_21h03.43.831,forced_choiceRT,2021.1.2,Win32,60.01680471,,,,,,,,2,Fast,g,0,0.2395,2,1,9,0,1,,,,,
,1.45,,,,,,,,,j.PNG,j,6111c4865701e1ba367af3e3,2021-09-08_21h03.43.831,forced_choiceRT,2021.1.2,Win32,60.01680471,,,,,,,,2,Fast,f,0,0.2985,2,2,10,3,1,,,,,
,1.79,,,,,,,,,h.PNG,h,6111c4865701e1ba367af3e3,2021-09-08_21h03.43.831,forced_choiceRT,2021.1.2,Win32,60.01680471,,,,,,,,2,Fast,f,0,0.2689,2,3,11,2,1,,,,,
,1.02,,,,,,,,,g.PNG,g,6111c4865701e1ba367af3e3,2021-09-08_21h03.43.831,forced_choiceRT,2021.1.2,Win32,60.01680471,,,,,,,,2,Fast,f,0,1.0489,3,0,12,1,1,,,,,
,1.19,,,,,,,,,f.PNG,f,6111c4865701e1ba367af3e3,2021-09-08_21h03.43.831,forced_choiceRT,2021.1.2,Win32,60.01680471,,,,,,,,2,Fast,f,1,0.2319,3,1,13,0,1,,,,,
,1.76,,,,,,,,,g.PNG,g,6111c4865701e1ba367af3e3,2021-09-08_21h03.43.831,forced_choiceRT,2021.1.2,Win32,60.01680471,,,,,,,,2,Fast,j,0,0.0817,3,2,14,1,1,,,,,
,0.83,,,,,,,,,j.PNG,j,6111c4865701e1ba367af3e3,2021-09-08_21h03.43.831,forced_choiceRT,2021.1.2,Win32,60.01680471,,,,,,,,2,Fast,h,0,0.0057,3,3,15,3,1,,,,,
,0.5,,,,,,,,,f.PNG,f,6111c4865701e1ba367af3e3,2021-09-08_21h03.43.831,forced_choiceRT,2021.1.2,Win32,60.01680471,,,,,,,,2,Fast,g,0,0.2316,4,0,16,0,1,,,,,
,0.31,,,,,,,,,f.PNG,f,6111c4865701e1ba367af3e3,2021-09-08_21h03.43.831,forced_choiceRT,2021.1.2,Win32,60.01680471,,,,,,,,2,Fast,j,0,0.0982,4,1,17,0,1,,,,,
,1.24,,,,,,,,,f.PNG,f,6111c4865701e1ba367af3e3,2021-09-08_21h03.43.831,forced_choiceRT,2021.1.2,Win32,60.01680471,,,,,,,,2,Fast,h,0,0.1189,4,2,18,0,1,,,,,
,1.59,,,,,,,,,f.PNG,f,6111c4865701e1ba367af3e3,2021-09-08_21h03.43.831,forced_choiceRT,2021.1.2,Win32,60.01680471,,,,,,,,2,Fast,g,0,0.3034,4,3,19,0,1,,,,,
,0.79,,,,,,,,,h.PNG,h,6111c4865701e1ba367af3e3,2021-09-08_21h03.43.831,forced_choiceRT,2021.1.2,Win32,60.01680471,,,,,,,,2,Fast,f,0,0.2185,5,0,20,2,1,,,,,
,1.98,,,,,,,,,j.PNG,j,6111c4865701e1ba367af3e3,2021-09-08_21h03.43.831,forced_choiceRT,2021.1.2,Win32,60.01680471,,,,,,,,2,Fast,j,1,0.2491,5,1,21,3,1,,,,,
,0.55,,,,,,,,,g.PNG,g,6111c4865701e1ba367af3e3,2021-09-08_21h03.43.831,forced_choiceRT,2021.1.2,Win32,60.01680471,,,,,,,,2,Fast,j,0,0.1658,5,2,22,1,1,,,,,
,1.71,,,,,,,,,h.PNG,h,6111c4865701e1ba367af3e3,2021-09-08_21h03.43.831,forced_choiceRT,2021.1.2,Win32,60.01680471,,,,,,,,2,Fast,g,0,0.2661,5,3,23,2,1,,,,,
,0.01,,,,,,,,,g.PNG,g,6111c4865701e1ba367af3e3,2021-09-08_21h03.43.831,forced_choiceRT,2021.1.2,Win32,60.01680471,,,,,,,,2,Fast,f,0,0.1049,6,0,24,1,1,,,,,
,0.78,,,,,,,,,j.PNG,j,6111c4865701e1ba367af3e3,2021-09-08_21h03.43.831,forced_choiceRT,2021.1.2,Win32,60.01680471,,,,,,,,2,Fast,h,0,0.2359,6,1,25,3,1,,,,,
,1.07,,,,,,,,,j.PNG,j,6111c4865701e1ba367af3e3,2021-09-08_21h03.43.831,forced_choiceRT,2021.1.2,Win32,60.01680471,,,,,,,,2,Fast,j,1,0.2141,6,2,26,3,1,,,,,
,0.17,,,,,,,,,h.PNG,h,6111c4865701e1ba367af3e3,2021-09-08_21h03.43.831,forced_choiceRT,2021.1.2,Win32,60.01680471,,,,,,,,2,Fast,j,0,0.0533,6,3,27,2,1,,,,,
,1.52,,,,,,,,,g.PNG,g,6111c4865701e1ba367af3e3,2021-09-08_21h03.43.831,forced_choiceRT,2021.1.2,Win32,60.01680471,,,,,,,,2,Fast,j,0,0.0715,7,0,28,1,1,,,,,
,1.49,,,,,,,,,j.PNG,j,6111c4865701e1ba367af3e3,2021-09-08_21h03.43.831,forced_choiceRT,2021.1.2,Win32,60.01680471,,,,,,,,2,Fast,g,0,0.1863,7,1,29,3,1,,,,,
,1.89,,,,,,,,,g.PNG,g,6111c4865701e1ba367af3e3,2021-09-08_21h03.43.831,forced_choiceRT,2021.1.2,Win32,60.01680471,,,,,,,,2,Fast,f,0,0.1643,7,2,30,1,1,,,,,
,0.09,,,,,,,,,h.PNG,h,6111c4865701e1ba367af3e3,2021-09-08_21h03.43.831,forced_choiceRT,2021.1.2,Win32,60.01680471,,,,,,,,2,Fast,g,0,0.9067,7,3,31,2,1,,,,,
,0.75,,,,,,,,,j.PNG,j,6111c4865701e1ba367af3e3,2021-09-08_21h03.43.831,forced_choiceRT,2021.1.2,Win32,60.01680471,,,,,,,,2,Slow,f,0,5.0623,8,0,32,3,1,,,,,
,0.11,,,,,,,,,f.PNG,f,6111c4865701e1ba367af3e3,2021-09-08_21h03.43.831,forced_choiceRT,2021.1.2,Win32,60.01680471,,,,,,,,2,Fast,f,1,1.6503,8,1,33,0,1,,,,,
,0.71,,,,,,,,,h.PNG,h,6111c4865701e1ba367af3e3,2021-09-08_21h03.43.831,forced_choiceRT,2021.1.2,Win32,60.01680471,,,,,,,,2,Ontime,j,0,1.9834,8,2,34,2,1,,,,,
,1.6,,,,,,,,,h.PNG,h,6111c4865701e1ba367af3e3,2021-09-08_21h03.43.831,forced_choiceRT,2021.1.2,Win32,60.01680471,,,,,,,,2,Slow,g,0,2.2161,8,3,35,2,1,,,,,
,1.16,,,,,,,,,h.PNG,h,6111c4865701e1ba367af3e3,2021-09-08_21h03.43.831,forced_choiceRT,2021.1.2,Win32,60.01680471,,,,,,,,2,Ontime,g,0,1.9497,9,0,36,2,1,,,,,
,0.59,,,,,,,,,h.PNG,h,6111c4865701e1ba367af3e3,2021-09-08_21h03.43.831,forced_choiceRT,2021.1.2,Win32,60.01680471,,,,,,,,2,Ontime,g,0,1.9664,9,1,37,2,1,,,,,
,0.42,,,,,,,,,g.PNG,g,6111c4865701e1ba367af3e3,2021-09-08_21h03.43.831,forced_choiceRT,2021.1.2,Win32,60.01680471,,,,,,,,2,Fast,g,1,1.8833,9,2,38,1,1,,,,,
,1.01,,,,,,,,,f.PNG,f,6111c4865701e1ba367af3e3,2021-09-08_21h03.43.831,forced_choiceRT,2021.1.2,Win32,60.01680471,,,,,,,,2,Ontime,f,1,1.9549,9,3,39,0,1,,,,,
,,,,,,,,,,,,6111c4865701e1ba367af3e3,2021-09-08_21h03.43.831,forced_choiceRT,2021.1.2,Win32,60.01680471,,,,,,,,,,,,,,,,,,1,0,1,0,1
,1.52,,,,,,,,,h.PNG,h,6111c4865701e1ba367af3e3,2021-09-08_21h03.43.831,forced_choiceRT,2021.1.2,Win32,60.01680471,,,,,,,,3,Ontime,f,0,2.0223,0,0,0,2,1,,,,,
,0.61,,,,,,,,,j.PNG,j,6111c4865701e1ba367af3e3,2021-09-08_21h03.43.831,forced_choiceRT,2021.1.2,Win32,60.01680471,,,,,,,,3,Slow,j,1,6.4473,0,1,1,3,1,,,,,
,0.14,,,,,,,,,h.PNG,h,6111c4865701e1ba367af3e3,2021-09-08_21h03.43.831,forced_choiceRT,2021.1.2,Win32,60.01680471,,,,,,,,3,Ontime,j,0,1.9508,0,2,2,2,1,,,,,
,0.04,,,,,,,,,j.PNG,j,6111c4865701e1ba367af3e3,2021-09-08_21h03.43.831,forced_choiceRT,2021.1.2,Win32,60.01680471,,,,,,,,3,Slow,g,0,3.9797,0,3,3,3,1,,,,,
,0.03,,,,,,,,,h.PNG,h,6111c4865701e1ba367af3e3,2021-09-08_21h03.43.831,forced_choiceRT,2021.1.2,Win32,60.01680471,,,,,,,,3,Fast,j,0,1.4899,1,0,4,2,1,,,,,
,0.88,,,,,,,,,g.PNG,g,6111c4865701e1ba367af3e3,2021-09-08_21h03.43.831,forced_choiceRT,2021.1.2,Win32,60.01680471,,,,,,,,3,Fast,g,1,1.5828,1,1,5,1,1,,,,,
,0.87,,,,,,,,,f.PNG,f,6111c4865701e1ba367af3e3,2021-09-08_21h03.43.831,forced_choiceRT,2021.1.2,Win32,60.01680471,,,,,,,,3,Fast,f,1,1.7334,1,2,6,0,1,,,,,
,0.01,,,,,,,,,f.PNG,f,6111c4865701e1ba367af3e3,2021-09-08_21h03.43.831,forced_choiceRT,2021.1.2,Win32,60.01680471,,,,,,,,3,Ontime,f,1,1.9993,1,3,7,0,1,,,,,
,1.48,,,,,,,,,f.PNG,f,6111c4865701e1ba367af3e3,2021-09-08_21h03.43.831,forced_choiceRT,2021.1.2,Win32,60.01680471,,,,,,,,3,Ontime,f,1,2.0365,2,0,8,0,1,,,,,
,1.41,,,,,,,,,f.PNG,f,6111c4865701e1ba367af3e3,2021-09-08_21h03.43.831,forced_choiceRT,2021.1.2,Win32,60.01680471,,,,,,,,3,Fast,f,1,1.8825,2,1,9,0,1,,,,,
,0.65,,,,,,,,,f.PNG,f,6111c4865701e1ba367af3e3,2021-09-08_21h03.43.831,forced_choiceRT,2021.1.2,Win32,60.01680471,,,,,,,,3,Fast,f,1,1.1328,2,2,10,0,1,,,,,
,0.31,,,,,,,,,h.PNG,h,6111c4865701e1ba367af3e3,2021-09-08_21h03.43.831,forced_choiceRT,2021.1.2,Win32,60.01680471,,,,,,,,3,Fast,j,0,1.7707,2,3,11,2,1,,,,,
,1.69,,,,,,,,,j.PNG,j,6111c4865701e1ba367af3e3,2021-09-08_21h03.43.831,forced_choiceRT,2021.1.2,Win32,60.01680471,,,,,,,,3,Slow,f,0,2.1688,3,0,12,3,1,,,,,
,0.19,,,,,,,,,g.PNG,g,6111c4865701e1ba367af3e3,2021-09-08_21h03.43.831,forced_choiceRT,2021.1.2,Win32,60.01680471,,,,,,,,3,Ontime,g,1,1.9827,3,1,13,1,1,,,,,
,0.47,,,,,,,,,j.PNG,j,6111c4865701e1ba367af3e3,2021-09-08_21h03.43.831,forced_choiceRT,2021.1.2,Win32,60.01680471,,,,,,,,3,Slow,j,1,4.5174,3,2,14,3,1,,,,,
,0.63,,,,,,,,,j.PNG,j,6111c4865701e1ba367af3e3,2021-09-08_21h03.43.831,forced_choiceRT,2021.1.2,Win32,60.01680471,,,,,,,,3,Fast,j,1,1.6001,3,3,15,3,1,,,,,
,0.35,,,,,,,,,f.PNG,f,6111c4865701e1ba367af3e3,2021-09-08_21h03.43.831,forced_choiceRT,2021.1.2,Win32,60.01680471,,,,,,,,3,Ontime,f,1,1.9494,4,0,16,0,1,,,,,
,1.41,,,,,,,,,g.PNG,g,6111c4865701e1ba367af3e3,2021-09-08_21h03.43.831,forced_choiceRT,2021.1.2,Win32,60.01680471,,,,,,,,3,Ontime,g,1,2.05,4,1,17,1,1,,,,,
,1.61,,,,,,,,,h.PNG,h,6111c4865701e1ba367af3e3,2021-09-08_21h03.43.831,forced_choiceRT,2021.1.2,Win32,60.01680471,,,,,,,,3,Ontime,h,1,2.0171,4,2,18,2,1,,,,,
,1.59,,,,,,,,,g.PNG,g,6111c4865701e1ba367af3e3,2021-09-08_21h03.43.831,forced_choiceRT,2021.1.2,Win32,60.01680471,,,,,,,,3,Slow,g,1,2.1326,4,3,19,1,1,,,,,
,0.89,,,,,,,,,j.PNG,j,6111c4865701e1ba367af3e3,2021-09-08_21h03.43.831,forced_choiceRT,2021.1.2,Win32,60.01680471,,,,,,,,3,Fast,h,0,1.4417,5,0,20,3,1,,,,,
,1.24,,,,,,,,,g.PNG,g,6111c4865701e1ba367af3e3,2021-09-08_21h03.43.831,forced_choiceRT,2021.1.2,Win32,60.01680471,,,,,,,,3,Fast,h,0,1.7833,5,1,21,1,1,,,,,
,1.3,,,,,,,,,j.PNG,j,6111c4865701e1ba367af3e3,2021-09-08_21h03.43.831,forced_choiceRT,2021.1.2,Win32,60.01680471,,,,,,,,3,Fast,h,0,1.8709,5,2,22,3,1,,,,,
,1.31,,,,,,,,,f.PNG,f,6111c4865701e1ba367af3e3,2021-09-08_21h03.43.831,forced_choiceRT,2021.1.2,Win32,60.01680471,,,,,,,,3,Fast,f,1,1.8181,5,3,23,0,1,,,,,
,0.92,,,,,,,,,g.PNG,g,6111c4865701e1ba367af3e3,2021-09-08_21h03.43.831,forced_choiceRT,2021.1.2,Win32,60.01680471,,,,,,,,3,Fast,g,1,1.8241,6,0,24,1,1,,,,,
,1.26,,,,,,,,,f.PNG,f,6111c4865701e1ba367af3e3,2021-09-08_21h03.43.831,forced_choiceRT,2021.1.2,Win32,60.01680471,,,,,,,,3,Ontime,f,1,2.071,6,1,25,0,1,,,,,
,1.94,,,,,,,,,f.PNG,f,6111c4865701e1ba367af3e3,2021-09-08_21h03.43.831,forced_choiceRT,2021.1.2,Win32,60.01680471,,,,,,,,3,Slow,f,1,2.1488,6,2,26,0,1,,,,,
,0.09,,,,,,,,,g.PNG,g,6111c4865701e1ba367af3e3,2021-09-08_21h03.43.831,forced_choiceRT,2021.1.2,Win32,60.01680471,,,,,,,,3,Fast,g,1,1.467,6,3,27,1,1,,,,,
,1.19,,,,,,,,,j.PNG,j,6111c4865701e1ba367af3e3,2021-09-08_21h03.43.831,forced_choiceRT,2021.1.2,Win32,60.01680471,,,,,,,,3,Fast,j,1,1.7709,7,0,28,3,1,,,,,
,1.37,,,,,,,,,j.PNG,j,6111c4865701e1ba367af3e3,2021-09-08_21h03.43.831,forced_choiceRT,2021.1.2,Win32,60.01680471,,,,,,,,3,Ontime,j,1,2.022,7,1,29,3,1,,,,,
,1.28,,,,,,,,,g.PNG,g,6111c4865701e1ba367af3e3,2021-09-08_21h03.43.831,forced_choiceRT,2021.1.2,Win32,60.01680471,,,,,,,,3,Fast,g,1,1.8724,7,2,30,1,1,,,,,
,1.77,,,,,,,,,h.PNG,h,6111c4865701e1ba367af3e3,2021-09-08_21h03.43.831,forced_choiceRT,2021.1.2,Win32,60.01680471,,,,,,,,3,Slow,g,0,2.133,7,3,31,2,1,,,,,
,1.56,,,,,,,,,j.PNG,j,6111c4865701e1ba367af3e3,2021-09-08_21h03.43.831,forced_choiceRT,2021.1.2,Win32,60.01680471,,,,,,,,3,Ontime,j,1,2.0345,8,0,32,3,1,,,,,
,1.36,,,,,,,,,h.PNG,h,6111c4865701e1ba367af3e3,2021-09-08_21h03.43.831,forced_choiceRT,2021.1.2,Win32,60.01680471,,,,,,,,3,Fast,j,0,1.8667,8,1,33,2,1,,,,,
,0.27,,,,,,,,,h.PNG,h,6111c4865701e1ba367af3e3,2021-09-08_21h03.43.831,forced_choiceRT,2021.1.2,Win32,60.01680471,,,,,,,,3,Fast,h,1,0.8676,8,2,34,2,1,,,,,
,0.73,,,,,,,,,h.PNG,h,6111c4865701e1ba367af3e3,2021-09-08_21h03.43.831,forced_choiceRT,2021.1.2,Win32,60.01680471,,,,,,,,3,Fast,h,1,1.7644,8,3,35,2,1,,,,,
,1.82,,,,,,,,,f.PNG,f,6111c4865701e1ba367af3e3,2021-09-08_21h03.43.831,forced_choiceRT,2021.1.2,Win32,60.01680471,,,,,,,,3,Ontime,j,0,1.9167,9,0,36,0,1,,,,,
,0.28,,,,,,,,,g.PNG,g,6111c4865701e1ba367af3e3,2021-09-08_21h03.43.831,forced_choiceRT,2021.1.2,Win32,60.01680471,,,,,,,,3,Ontime,g,1,1.9325,9,1,37,1,1,,,,,
,1.55,,,,,,,,,g.PNG,g,6111c4865701e1ba367af3e3,2021-09-08_21h03.43.831,forced_choiceRT,2021.1.2,Win32,60.01680471,,,,,,,,3,Ontime,g,1,1.9823,9,2,38,1,1,,,,,
,0.26,,,,,,,,,h.PNG,h,6111c4865701e1ba367af3e3,2021-09-08_21h03.43.831,forced_choiceRT,2021.1.2,Win32,60.01680471,,,,,,,,3,Fast,h,1,1.2384,9,3,39,2,1,,,,,
,,,,,,,,,,,,6111c4865701e1ba367af3e3,2021-09-08_21h03.43.831,forced_choiceRT,2021.1.2,Win32,60.01680471,,,,,,,,,,,,,,,,,,2,0,2,0,1
,0.89,,,,,,,,,g.PNG,g,6111c4865701e1ba367af3e3,2021-09-08_21h03.43.831,forced_choiceRT,2021.1.2,Win32,60.01680471,,,,,,,,4,Fast,g,1,1.4654,0,0,0,1,1,,,,,
,1.08,,,,,,,,,h.PNG,h,6111c4865701e1ba367af3e3,2021-09-08_21h03.43.831,forced_choiceRT,2021.1.2,Win32,60.01680471,,,,,,,,4,Fast,h,1,1.6663,0,1,1,2,1,,,,,
,0.12,,,,,,,,,h.PNG,h,6111c4865701e1ba367af3e3,2021-09-08_21h03.43.831,forced_choiceRT,2021.1.2,Win32,60.01680471,,,,,,,,4,Fast,g,0,1.7501,0,2,2,2,1,,,,,
,1.15,,,,,,,,,j.PNG,j,6111c4865701e1ba367af3e3,2021-09-08_21h03.43.831,forced_choiceRT,2021.1.2,Win32,60.01680471,,,,,,,,4,Fast,f,0,1.5385,0,3,3,3,1,,,,,
,0.78,,,,,,,,,h.PNG,h,6111c4865701e1ba367af3e3,2021-09-08_21h03.43.831,forced_choiceRT,2021.1.2,Win32,60.01680471,,,,,,,,4,Fast,h,1,1.6329,1,0,4,2,1,,,,,
,0.21,,,,,,,,,h.PNG,h,6111c4865701e1ba367af3e3,2021-09-08_21h03.43.831,forced_choiceRT,2021.1.2,Win32,60.01680471,,,,,,,,4,Ontime,h,1,2.0494,1,1,5,2,1,,,,,
,1.41,,,,,,,,,j.PNG,j,6111c4865701e1ba367af3e3,2021-09-08_21h03.43.831,forced_choiceRT,2021.1.2,Win32,60.01680471,,,,,,,,4,Ontime,j,1,2.0334,1,2,6,3,1,,,,,
,0.05,,,,,,,,,h.PNG,h,6111c4865701e1ba367af3e3,2021-09-08_21h03.43.831,forced_choiceRT,2021.1.2,Win32,60.01680471,,,,,,,,4,Ontime,h,1,1.9996,1,3,7,2,1,,,,,
,1.24,,,,,,,,,j.PNG,j,6111c4865701e1ba367af3e3,2021-09-08_21h03.43.831,forced_choiceRT,2021.1.2,Win32,60.01680471,,,,,,,,4,Ontime,j,1,1.9053,2,0,8,3,1,,,,,
,1.19,,,,,,,,,f.PNG,f,6111c4865701e1ba367af3e3,2021-09-08_21h03.43.831,forced_choiceRT,2021.1.2,Win32,60.01680471,,,,,,,,4,Fast,f,1,1.9,2,1,9,0,1,,,,,
,0.34,,,,,,,,,h.PNG,h,6111c4865701e1ba367af3e3,2021-09-08_21h03.43.831,forced_choiceRT,2021.1.2,Win32,60.01680471,,,,,,,,4,Ontime,h,1,1.9334,2,2,10,2,1,,,,,
,1.14,,,,,,,,,f.PNG,f,6111c4865701e1ba367af3e3,2021-09-08_21h03.43.831,forced_choiceRT,2021.1.2,Win32,60.01680471,,,,,,,,4,Ontime,f,1,1.9331,2,3,11,0,1,,,,,
,1.7,,,,,,,,,g.PNG,g,6111c4865701e1ba367af3e3,2021-09-08_21h03.43.831,forced_choiceRT,2021.1.2,Win32,60.01680471,,,,,,,,4,Slow,g,1,2.272,3,0,12,1,1,,,,,
,0.48,,,,,,,,,f.PNG,f,6111c4865701e1ba367af3e3,2021-09-08_21h03.43.831,forced_choiceRT,2021.1.2,Win32,60.01680471,,,,,,,,4,Fast,f,1,1.7503,3,1,13,0,1,,,,,
,0.85,,,,,,,,,f.PNG,f,6111c4865701e1ba367af3e3,2021-09-08_21h03.43.831,forced_choiceRT,2021.1.2,Win32,60.01680471,,,,,,,,4,Fast,f,1,1.8,3,2,14,0,1,,,,,
,1.6,,,,,,,,,j.PNG,j,6111c4865701e1ba367af3e3,2021-09-08_21h03.43.831,forced_choiceRT,2021.1.2,Win32,60.01680471,,,,,,,,4,Slow,j,1,2.2492,3,3,15,3,1,,,,,
,1.7,,,,,,,,,h.PNG,h,6111c4865701e1ba367af3e3,2021-09-08_21h03.43.831,forced_choiceRT,2021.1.2,Win32,60.01680471,,,,,,,,4,Ontime,f,0,2.0323,4,0,16,2,1,,,,,
,0.87,,,,,,,,,j.PNG,j,6111c4865701e1ba367af3e3,2021-09-08_21h03.43.831,forced_choiceRT,2021.1.2,Win32,60.01680471,,,,,,,,4,Fast,j,1,1.8348,4,1,17,3,1,,,,,
,0.87,,,,,,,,,g.PNG,g,6111c4865701e1ba367af3e3,2021-09-08_21h03.43.831,forced_choiceRT,2021.1.2,Win32,60.01680471,,,,,,,,4,Fast,j,0,1.7712,4,2,18,1,1,,,,,
,0.57,,,,,,,,,g.PNG,g,6111c4865701e1ba367af3e3,2021-09-08_21h03.43.831,forced_choiceRT,2021.1.2,Win32,60.01680471,,,,,,,,4,Fast,g,1,1.1681,4,3,19,1,1,,,,,
,0.14,,,,,,,,,g.PNG,g,6111c4865701e1ba367af3e3,2021-09-08_21h03.43.831,forced_choiceRT,2021.1.2,Win32,60.01680471,,,,,,,,4,Fast,g,1,1.0336,5,0,20,1,1,,,,,
,1.67,,,,,,,,,j.PNG,j,6111c4865701e1ba367af3e3,2021-09-08_21h03.43.831,forced_choiceRT,2021.1.2,Win32,60.01680471,,,,,,,,4,Slow,j,1,2.1832,5,1,21,3,1,,,,,
,0.97,,,,,,,,,f.PNG,f,6111c4865701e1ba367af3e3,2021-09-08_21h03.43.831,forced_choiceRT,2021.1.2,Win32,60.01680471,,,,,,,,4,Ontime,f,1,1.916,5,2,22,0,1,,,,,
,0.13,,,,,,,,,g.PNG,g,6111c4865701e1ba367af3e3,2021-09-08_21h03.43.831,forced_choiceRT,2021.1.2,Win32,60.01680471,,,,,,,,4,Fast,g,1,1.7652,5,3,23,1,1,,,,,
,0.83,,,,,,,,,h.PNG,h,6111c4865701e1ba367af3e3,2021-09-08_21h03.43.831,forced_choiceRT,2021.1.2,Win32,60.01680471,,,,,,,,4,Fast,f,0,1.7212,6,0,24,2,1,,,,,
,0.6,,,,,,,,,j.PNG,j,6111c4865701e1ba367af3e3,2021-09-08_21h03.43.831,forced_choiceRT,2021.1.2,Win32,60.01680471,,,,,,,,4,Ontime,j,1,2.0333,6,1,25,3,1,,,,,
,1.39,,,,,,,,,g.PNG,g,6111c4865701e1ba367af3e3,2021-09-08_21h03.43.831,forced_choiceRT,2021.1.2,Win32,60.01680471,,,,,,,,4,Ontime,g,1,1.9158,6,2,26,1,1,,,,,
,1.1,,,,,,,,,f.PNG,f,6111c4865701e1ba367af3e3,2021-09-08_21h03.43.831,forced_choiceRT,2021.1.2,Win32,60.01680471,,,,,,,,4,Fast,f,1,1.7002,6,3,27,0,1,,,,,
,0.7,,,,,,,,,f.PNG,f,6111c4865701e1ba367af3e3,2021-09-08_21h03.43.831,forced_choiceRT,2021.1.2,Win32,60.01680471,,,,,,,,4,Fast,f,1,1.5835,7,0,28,0,1,,,,,
,0.96,,,,,,,,,g.PNG,g,6111c4865701e1ba367af3e3,2021-09-08_21h03.43.831,forced_choiceRT,2021.1.2,Win32,60.01680471,,,,,,,,4,Fast,g,1,1.6835,7,1,29,1,1,,,,,
,1.7,,,,,,,,,f.PNG,f,6111c4865701e1ba367af3e3,2021-09-08_21h03.43.831,forced_choiceRT,2021.1.2,Win32,60.01680471,,,,,,,,4,Ontime,f,1,2.068,7,2,30,0,1,,,,,
,1.73,,,,,,,,,j.PNG,j,6111c4865701e1ba367af3e3,2021-09-08_21h03.43.831,forced_choiceRT,2021.1.2,Win32,60.01680471,,,,,,,,4,Ontime,g,0,2.0742,7,3,31,3,1,,,,,
,0.79,,,,,,,,,g.PNG,g,6111c4865701e1ba367af3e3,2021-09-08_21h03.43.831,forced_choiceRT,2021.1.2,Win32,60.01680471,,,,,,,,4,Ontime,g,1,1.9832,8,0,32,1,1,,,,,
,0.04,,,,,,,,,f.PNG,f,6111c4865701e1ba367af3e3,2021-09-08_21h03.43.831,forced_choiceRT,2021.1.2,Win32,60.01680471,,,,,,,,4,Ontime,f,1,1.9881,8,1,33,0,1,,,,,
,0.4,,,,,,,,,h.PNG,h,6111c4865701e1ba367af3e3,2021-09-08_21h03.43.831,forced_choiceRT,2021.1.2,Win32,60.01680471,,,,,,,,4,Fast,h,1,1.8084,8,2,34,2,1,,,,,
,1.55,,,,,,,,,j.PNG,j,6111c4865701e1ba367af3e3,2021-09-08_21h03.43.831,forced_choiceRT,2021.1.2,Win32,60.01680471,,,,,,,,4,Ontime,j,1,1.9333,8,3,35,3,1,,,,,
,1.9,,,,,,,,,f.PNG,f,6111c4865701e1ba367af3e3,2021-09-08_21h03.43.831,forced_choiceRT,2021.1.2,Win32,60.01680471,,,,,,,,4,Ontime,j,0,1.9827,9,0,36,0,1,,,,,
,0.69,,,,,,,,,h.PNG,h,6111c4865701e1ba367af3e3,2021-09-08_21h03.43.831,forced_choiceRT,2021.1.2,Win32,60.01680471,,,,,,,,4,Fast,h,1,1.8988,9,1,37,2,1,,,,,
,1.73,,,,,,,,,j.PNG,j,6111c4865701e1ba367af3e3,2021-09-08_21h03.43.831,forced_choiceRT,2021.1.2,Win32,60.01680471,,,,,,,,4,Ontime,j,1,2.0995,9,2,38,3,1,,,,,
,0.15,,,,,,,,,g.PNG,g,6111c4865701e1ba367af3e3,2021-09-08_21h03.43.831,forced_choiceRT,2021.1.2,Win32,60.01680471,,,,,,,,4,Ontime,g,1,2.0692,9,3,39,1,1,,,,,
,,,,,,,,,,,,6111c4865701e1ba367af3e3,2021-09-08_21h03.43.831,forced_choiceRT,2021.1.2,Win32,60.01680471,,,,,,,,,,,,,,,,,,3,0,3,0,1
,0.76,,,,,,,,,f.PNG,f,6111c4865701e1ba367af3e3,2021-09-08_21h03.43.831,forced_choiceRT,2021.1.2,Win32,60.01680471,,,,,,,,5,Fast,f,1,1.7834,0,0,0,0,1,,,,,
,1.22,,,,,,,,,g.PNG,g,6111c4865701e1ba367af3e3,2021-09-08_21h03.43.831,forced_choiceRT,2021.1.2,Win32,60.01680471,,,,,,,,5,Fast,g,1,1.8665,0,1,1,1,1,,,,,
,0.14,,,,,,,,,g.PNG,g,6111c4865701e1ba367af3e3,2021-09-08_21h03.43.831,forced_choiceRT,2021.1.2,Win32,60.01680471,,,,,,,,5,Ontime,g,1,2.0164,0,2,2,1,1,,,,,
,0.49,,,,,,,,,g.PNG,g,6111c4865701e1ba367af3e3,2021-09-08_21h03.43.831,forced_choiceRT,2021.1.2,Win32,60.01680471,,,,,,,,5,Fast,g,1,1.7867,0,3,3,1,1,,,,,
,0.28,,,,,,,,,j.PNG,j,6111c4865701e1ba367af3e3,2021-09-08_21h03.43.831,forced_choiceRT,2021.1.2,Win32,60.01680471,,,,,,,,5,Ontime,j,1,2.091,1,0,4,3,1,,,,,
,0.99,,,,,,,,,h.PNG,h,6111c4865701e1ba367af3e3,2021-09-08_21h03.43.831,forced_choiceRT,2021.1.2,Win32,60.01680471,,,,,,,,5,Fast,h,1,1.7702,1,1,5,2,1,,,,,
,0.61,,,,,,,,,j.PNG,j,6111c4865701e1ba367af3e3,2021-09-08_21h03.43.831,forced_choiceRT,2021.1.2,Win32,60.01680471,,,,,,,,5,Ontime,j,1,2.0152,1,2,6,3,1,,,,,
,1.97,,,,,,,,,j.PNG,j,6111c4865701e1ba367af3e3,2021-09-08_21h03.43.831,forced_choiceRT,2021.1.2,Win32,60.01680471,,,,,,,,5,Slow,j,1,2.1827,1,3,7,3,1,,,,,
,0.5,,,,,,,,,f.PNG,f,6111c4865701e1ba367af3e3,2021-09-08_21h03.43.831,forced_choiceRT,2021.1.2,Win32,60.01680471,,,,,,,,5,Ontime,f,1,1.9534,2,0,8,0,1,,,,,
,0.2,,,,,,,,,j.PNG,j,6111c4865701e1ba367af3e3,2021-09-08_21h03.43.831,forced_choiceRT,2021.1.2,Win32,60.01680471,,,,,,,,5,Ontime,j,1,2.0168,2,1,9,3,1,,,,,
,0.45,,,,,,,,,f.PNG,f,6111c4865701e1ba367af3e3,2021-09-08_21h03.43.831,forced_choiceRT,2021.1.2,Win32,60.01680471,,,,,,,,5,Ontime,f,1,1.9827,2,2,10,0,1,,,,,
,1.69,,,,,,,,,h.PNG,h,6111c4865701e1ba367af3e3,2021-09-08_21h03.43.831,forced_choiceRT,2021.1.2,Win32,60.01680471,,,,,,,,5,Ontime,j,0,1.983,2,3,11,2,1,,,,,
,0,,,,,,,,,f.PNG,f,6111c4865701e1ba367af3e3,2021-09-08_21h03.43.831,forced_choiceRT,2021.1.2,Win32,60.01680471,,,,,,,,5,Fast,f,1,1.4911,3,0,12,0,1,,,,,
,1.98,,,,,,,,,j.PNG,j,6111c4865701e1ba367af3e3,2021-09-08_21h03.43.831,forced_choiceRT,2021.1.2,Win32,60.01680471,,,,,,,,5,Slow,j,1,2.2656,3,1,13,3,1,,,,,
,1.77,,,,,,,,,g.PNG,g,6111c4865701e1ba367af3e3,2021-09-08_21h03.43.831,forced_choiceRT,2021.1.2,Win32,60.01680471,,,,,,,,5,Fast,g,1,1.5334,3,2,14,1,1,,,,,
,0,,,,,,,,,f.PNG,f,6111c4865701e1ba367af3e3,2021-09-08_21h03.43.831,forced_choiceRT,2021.1.2,Win32,60.01680471,,,,,,,,5,Fast,j,0,0.6341,3,3,15,0,1,,,,,
,0.58,,,,,,,,,j.PNG,j,6111c4865701e1ba367af3e3,2021-09-08_21h03.43.831,forced_choiceRT,2021.1.2,Win32,60.01680471,,,,,,,,5,Fast,f,0,1.1035,4,0,16,3,1,,,,,
,1.77,,,,,,,,,j.PNG,j,6111c4865701e1ba367af3e3,2021-09-08_21h03.43.831,forced_choiceRT,2021.1.2,Win32,60.01680471,,,,,,,,5,Fast,j,1,1.8055,4,1,17,3,1,,,,,
,1.07,,,,,,,,,h.PNG,h,6111c4865701e1ba367af3e3,2021-09-08_21h03.43.831,forced_choiceRT,2021.1.2,Win32,60.01680471,,,,,,,,5,Ontime,h,1,1.9708,4,2,18,2,1,,,,,
,1.58,,,,,,,,,f.PNG,f,6111c4865701e1ba367af3e3,2021-09-08_21h03.43.831,forced_choiceRT,2021.1.2,Win32,60.01680471,,,,,,,,5,Slow,g,0,2.1376,4,3,19,0,1,,,,,
,0.32,,,,,,,,,h.PNG,h,6111c4865701e1ba367af3e3,2021-09-08_21h03.43.831,forced_choiceRT,2021.1.2,Win32,60.01680471,,,,,,,,5,Ontime,h,1,1.9367,5,0,20,2,1,,,,,
,0.44,,,,,,,,,f.PNG,f,6111c4865701e1ba367af3e3,2021-09-08_21h03.43.831,forced_choiceRT,2021.1.2,Win32,60.01680471,,,,,,,,5,Fast,f,1,1.7661,5,1,21,0,1,,,,,
,1.75,,,,,,,,,g.PNG,g,6111c4865701e1ba367af3e3,2021-09-08_21h03.43.831,forced_choiceRT,2021.1.2,Win32,60.01680471,,,,,,,,5,Fast,j,0,1.7659,5,2,22,1,1,,,,,
,1.98,,,,,,,,,j.PNG,j,6111c4865701e1ba367af3e3,2021-09-08_21h03.43.831,forced_choiceRT,2021.1.2,Win32,60.01680471,,,,,,,,5,Slow,f,0,2.1184,5,3,23,3,1,,,,,
,0.53,,,,,,,,,h.PNG,h,6111c4865701e1ba367af3e3,2021-09-08_21h03.43.831,forced_choiceRT,2021.1.2,Win32,60.01680471,,,,,,,,5,Fast,g,0,1.8816,6,0,24,2,1,,,,,
,0.02,,,,,,,,,h.PNG,h,6111c4865701e1ba367af3e3,2021-09-08_21h03.43.831,forced_choiceRT,2021.1.2,Win32,60.01680471,,,,,,,,5,Ontime,j,0,2.0031,6,1,25,2,1,,,,,
,1.54,,,,,,,,,g.PNG,g,6111c4865701e1ba367af3e3,2021-09-08_21h03.43.831,forced_choiceRT,2021.1.2,Win32,60.01680471,,,,,,,,5,Fast,j,0,1.8738,6,2,26,1,1,,,,,
,0.78,,,,,,,,,h.PNG,h,6111c4865701e1ba367af3e3,2021-09-08_21h03.43.831,forced_choiceRT,2021.1.2,Win32,60.01680471,,,,,,,,5,Fast,f,0,1.3178,6,3,27,2,1,,,,,
,1.39,,,,,,,,,g.PNG,g,6111c4865701e1ba367af3e3,2021-09-08_21h03.43.831,forced_choiceRT,2021.1.2,Win32,60.01680471,,,,,,,,5,Ontime,g,1,1.9504,7,0,28,1,1,,,,,
,1.44,,,,,,,,,f.PNG,f,6111c4865701e1ba367af3e3,2021-09-08_21h03.43.831,forced_choiceRT,2021.1.2,Win32,60.01680471,,,,,,,,5,Ontime,f,1,1.9997,7,1,29,0,1,,,,,
,0.33,,,,,,,,,j.PNG,j,6111c4865701e1ba367af3e3,2021-09-08_21h03.43.831,forced_choiceRT,2021.1.2,Win32,60.01680471,,,,,,,,5,Slow,j,1,2.1179,7,2,30,3,1,,,,,
,0.35,,,,,,,,,f.PNG,f,6111c4865701e1ba367af3e3,2021-09-08_21h03.43.831,forced_choiceRT,2021.1.2,Win32,60.01680471,,,,,,,,5,Fast,f,1,1.8568,7,3,31,0,1,,,,,
,0.81,,,,,,,,,f.PNG,f,6111c4865701e1ba367af3e3,2021-09-08_21h03.43.831,forced_choiceRT,2021.1.2,Win32,60.01680471,,,,,,,,5,Ontime,f,1,1.9164,8,0,32,0,1,,,,,
,0.99,,,,,,,,,g.PNG,g,6111c4865701e1ba367af3e3,2021-09-08_21h03.43.831,forced_choiceRT,2021.1.2,Win32,60.01680471,,,,,,,,5,Ontime,g,1,1.9995,8,1,33,1,1,,,,,
,0.93,,,,,,,,,h.PNG,h,6111c4865701e1ba367af3e3,2021-09-08_21h03.43.831,forced_choiceRT,2021.1.2,Win32,60.01680471,,,,,,,,5,Fast,h,1,1.7493,8,2,34,2,1,,,,,
,0.93,,,,,,,,,h.PNG,h,6111c4865701e1ba367af3e3,2021-09-08_21h03.43.831,forced_choiceRT,2021.1.2,Win32,60.01680471,,,,,,,,5,Fast,g,0,1.8568,8,3,35,2,1,,,,,
,1.77,,,,,,,,,g.PNG,g,6111c4865701e1ba367af3e3,2021-09-08_21h03.43.831,forced_choiceRT,2021.1.2,Win32,60.01680471,,,,,,,,5,Ontime,j,0,1.9827,9,0,36,1,1,,,,,
,0.82,,,,,,,,,g.PNG,g,6111c4865701e1ba367af3e3,2021-09-08_21h03.43.831,forced_choiceRT,2021.1.2,Win32,60.01680471,,,,,,,,5,Fast,g,1,1.874,9,1,37,1,1,,,,,
,0.78,,,,,,,,,h.PNG,h,6111c4865701e1ba367af3e3,2021-09-08_21h03.43.831,forced_choiceRT,2021.1.2,Win32,60.01680471,,,,,,,,5,Ontime,h,1,1.9497,9,2,38,2,1,,,,,
,0.6,,,,,,,,,j.PNG,j,6111c4865701e1ba367af3e3,2021-09-08_21h03.43.831,forced_choiceRT,2021.1.2,Win32,60.01680471,,,,,,,,5,Fast,j,1,1.8155,9,3,39,3,1,,,,,
,,,,,,,,,,,,6111c4865701e1ba367af3e3,2021-09-08_21h03.43.831,forced_choiceRT,2021.1.2,Win32,60.01680471,,,,,,,,,,,,,,,,,,4,0,4,0,1
,0.1,,,,,,,,,g.PNG,g,6111c4865701e1ba367af3e3,2021-09-08_21h03.43.831,forced_choiceRT,2021.1.2,Win32,60.01680471,,,,,,,,6,Fast,g,1,0.7866,0,0,0,1,1,,,,,
,1.16,,,,,,,,,h.PNG,h,6111c4865701e1ba367af3e3,2021-09-08_21h03.43.831,forced_choiceRT,2021.1.2,Win32,60.01680471,,,,,,,,6,Fast,j,0,0.4189,0,1,1,2,1,,,,,
,1.71,,,,,,,,,g.PNG,g,6111c4865701e1ba367af3e3,2021-09-08_21h03.43.831,forced_choiceRT,2021.1.2,Win32,60.01680471,,,,,,,,6,Fast,h,0,0.256,0,2,2,1,1,,,,,
,0.41,,,,,,,,,h.PNG,h,6111c4865701e1ba367af3e3,2021-09-08_21h03.43.831,forced_choiceRT,2021.1.2,Win32,60.01680471,,,,,,,,6,Fast,h,1,0.1842,0,3,3,2,1,,,,,
,1.17,,,,,,,,,j.PNG,j,6111c4865701e1ba367af3e3,2021-09-08_21h03.43.831,forced_choiceRT,2021.1.2,Win32,60.01680471,,,,,,,,6,Fast,j,1,0.2514,1,0,4,3,1,,,,,
,1.53,,,,,,,,,g.PNG,g,6111c4865701e1ba367af3e3,2021-09-08_21h03.43.831,forced_choiceRT,2021.1.2,Win32,60.01680471,,,,,,,,6,Fast,g,1,0.2678,1,1,5,1,1,,,,,
,1.75,,,,,,,,,j.PNG,j,6111c4865701e1ba367af3e3,2021-09-08_21h03.43.831,forced_choiceRT,2021.1.2,Win32,60.01680471,,,,,,,,6,Fast,f,0,0.0865,1,2,6,3,1,,,,,
,0.94,,,,,,,,,f.PNG,f,6111c4865701e1ba367af3e3,2021-09-08_21h03.43.831,forced_choiceRT,2021.1.2,Win32,60.01680471,,,,,,,,6,Fast,j,0,0.239,1,3,7,0,1,,,,,
,0.46,,,,,,,,,h.PNG,h,6111c4865701e1ba367af3e3,2021-09-08_21h03.43.831,forced_choiceRT,2021.1.2,Win32,60.01680471,,,,,,,,6,Fast,h,1,0.1541,2,0,8,2,1,,,,,
,0.16,,,,,,,,,f.PNG,f,6111c4865701e1ba367af3e3,2021-09-08_21h03.43.831,forced_choiceRT,2021.1.2,Win32,60.01680471,,,,,,,,6,Fast,g,0,0.1673,2,1,9,0,1,,,,,
,0.52,,,,,,,,,j.PNG,j,6111c4865701e1ba367af3e3,2021-09-08_21h03.43.831,forced_choiceRT,2021.1.2,Win32,60.01680471,,,,,,,,6,Fast,f,0,0.0421,2,2,10,3,1,,,,,
,1.8,,,,,,,,,h.PNG,h,6111c4865701e1ba367af3e3,2021-09-08_21h03.43.831,forced_choiceRT,2021.1.2,Win32,60.01680471,,,,,,,,6,Fast,f,0,0.006,2,3,11,2,1,,,,,
,1.85,,,,,,,,,g.PNG,g,6111c4865701e1ba367af3e3,2021-09-08_21h03.43.831,forced_choiceRT,2021.1.2,Win32,60.01680471,,,,,,,,6,Fast,j,0,0.7009,3,0,12,1,1,,,,,
,1.52,,,,,,,,,h.PNG,h,6111c4865701e1ba367af3e3,2021-09-08_21h03.43.831,forced_choiceRT,2021.1.2,Win32,60.01680471,,,,,,,,6,Fast,h,1,0.7501,3,1,13,2,1,,,,,
,0.21,,,,,,,,,j.PNG,j,6111c4865701e1ba367af3e3,2021-09-08_21h03.43.831,forced_choiceRT,2021.1.2,Win32,60.01680471,,,,,,,,6,Fast,g,0,0.3053,3,2,14,3,1,,,,,
,1.58,,,,,,,,,h.PNG,h,6111c4865701e1ba367af3e3,2021-09-08_21h03.43.831,forced_choiceRT,2021.1.2,Win32,60.01680471,,,,,,,,6,Fast,j,0,0.1346,3,3,15,2,1,,,,,
,0.05,,,,,,,,,f.PNG,f,6111c4865701e1ba367af3e3,2021-09-08_21h03.43.831,forced_choiceRT,2021.1.2,Win32,60.01680471,,,,,,,,6,Fast,h,0,0.2507,4,0,16,0,1,,,,,
,0.04,,,,,,,,,f.PNG,f,6111c4865701e1ba367af3e3,2021-09-08_21h03.43.831,forced_choiceRT,2021.1.2,Win32,60.01680471,,,,,,,,6,Fast,f,1,0.251,4,1,17,0,1,,,,,
,0.74,,,,,,,,,j.PNG,j,6111c4865701e1ba367af3e3,2021-09-08_21h03.43.831,forced_choiceRT,2021.1.2,Win32,60.01680471,,,,,,,,6,Fast,f,0,0.251,4,2,18,3,1,,,,,
,0.38,,,,,,,,,f.PNG,f,6111c4865701e1ba367af3e3,2021-09-08_21h03.43.831,forced_choiceRT,2021.1.2,Win32,60.01680471,,,,,,,,6,Fast,g,0,0.3014,4,3,19,0,1,,,,,
,1.49,,,,,,,,,j.PNG,j,6111c4865701e1ba367af3e3,2021-09-08_21h03.43.831,forced_choiceRT,2021.1.2,Win32,60.01680471,,,,,,,,6,Fast,j,1,0.3223,5,0,20,3,1,,,,,
,0.84,,,,,,,,,f.PNG,f,6111c4865701e1ba367af3e3,2021-09-08_21h03.43.831,forced_choiceRT,2021.1.2,Win32,60.01680471,,,,,,,,6,Fast,h,0,0.1188,5,1,21,0,1,,,,,
,1.33,,,,,,,,,g.PNG,g,6111c4865701e1ba367af3e3,2021-09-08_21h03.43.831,forced_choiceRT,2021.1.2,Win32,60.01680471,,,,,,,,6,Fast,h,0,0.2919,5,2,22,1,1,,,,,
,0.89,,,,,,,,,g.PNG,g,6111c4865701e1ba367af3e3,2021-09-08_21h03.43.831,forced_choiceRT,2021.1.2,Win32,60.01680471,,,,,,,,6,Fast,j,0,0.1092,5,3,23,1,1,,,,,
,0.18,,,,,,,,,f.PNG,f,6111c4865701e1ba367af3e3,2021-09-08_21h03.43.831,forced_choiceRT,2021.1.2,Win32,60.01680471,,,,,,,,6,Fast,g,0,0.3548,6,0,24,0,1,,,,,
,1.49,,,,,,,,,f.PNG,f,6111c4865701e1ba367af3e3,2021-09-08_21h03.43.831,forced_choiceRT,2021.1.2,Win32,60.01680471,,,,,,,,6,Fast,f,1,0.2366,6,1,25,0,1,,,,,
,0.83,,,,,,,,,j.PNG,j,6111c4865701e1ba367af3e3,2021-09-08_21h03.43.831,forced_choiceRT,2021.1.2,Win32,60.01680471,,,,,,,,6,Fast,f,0,0.0056,6,2,26,3,1,,,,,
,1.5,,,,,,,,,h.PNG,h,6111c4865701e1ba367af3e3,2021-09-08_21h03.43.831,forced_choiceRT,2021.1.2,Win32,60.01680471,,,,,,,,6,Fast,g,0,0.0182,6,3,27,2,1,,,,,
,0.75,,,,,,,,,g.PNG,g,6111c4865701e1ba367af3e3,2021-09-08_21h03.43.831,forced_choiceRT,2021.1.2,Win32,60.01680471,,,,,,,,6,Fast,j,0,0.023,7,0,28,1,1,,,,,
,0.08,,,,,,,,,j.PNG,j,6111c4865701e1ba367af3e3,2021-09-08_21h03.43.831,forced_choiceRT,2021.1.2,Win32,60.01680471,,,,,,,,6,Fast,h,0,0.4586,7,1,29,3,1,,,,,
,0.99,,,,,,,,,j.PNG,j,6111c4865701e1ba367af3e3,2021-09-08_21h03.43.831,forced_choiceRT,2021.1.2,Win32,60.01680471,,,,,,,,6,Fast,j,1,0.6227,7,2,30,3,1,,,,,
,0.09,,,,,,,,,g.PNG,g,6111c4865701e1ba367af3e3,2021-09-08_21h03.43.831,forced_choiceRT,2021.1.2,Win32,60.01680471,,,,,,,,6,Fast,g,1,0.0511,7,3,31,1,1,,,,,
,0.39,,,,,,,,,g.PNG,g,6111c4865701e1ba367af3e3,2021-09-08_21h03.43.831,forced_choiceRT,2021.1.2,Win32,60.01680471,,,,,,,,6,Fast,f,0,0.0844,8,0,32,1,1,,,,,
,1.5,,,,,,,,,h.PNG,h,6111c4865701e1ba367af3e3,2021-09-08_21h03.43.831,forced_choiceRT,2021.1.2,Win32,60.01680471,,,,,,,,6,Fast,j,0,0.201,8,1,33,2,1,,,,,
,0.71,,,,,,,,,g.PNG,g,6111c4865701e1ba367af3e3,2021-09-08_21h03.43.831,forced_choiceRT,2021.1.2,Win32,60.01680471,,,,,,,,6,Fast,h,0,0.0012,8,2,34,1,1,,,,,
,1.18,,,,,,,,,h.PNG,h,6111c4865701e1ba367af3e3,2021-09-08_21h03.43.831,forced_choiceRT,2021.1.2,Win32,60.01680471,,,,,,,,6,Fast,g,0,0.1011,8,3,35,2,1,,,,,
,0.38,,,,,,,,,h.PNG,h,6111c4865701e1ba367af3e3,2021-09-08_21h03.43.831,forced_choiceRT,2021.1.2,Win32,60.01680471,,,,,,,,6,Fast,f,0,0.2175,9,0,36,2,1,,,,,
,1.03,,,,,,,,,j.PNG,j,6111c4865701e1ba367af3e3,2021-09-08_21h03.43.831,forced_choiceRT,2021.1.2,Win32,60.01680471,,,,,,,,6,Fast,j,1,0.251,9,1,37,3,1,,,,,
,1.1,,,,,,,,,f.PNG,f,6111c4865701e1ba367af3e3,2021-09-08_21h03.43.831,forced_choiceRT,2021.1.2,Win32,60.01680471,,,,,,,,6,Fast,h,0,0.0876,9,2,38,0,1,,,,,
,1.8,,,,,,,,,f.PNG,f,6111c4865701e1ba367af3e3,2021-09-08_21h03.43.831,forced_choiceRT,2021.1.2,Win32,60.01680471,,,,,,,,6,Fast,g,0,0.3029,9,3,39,0,1,,,,,
,,,,,,,,,,,,6111c4865701e1ba367af3e3,2021-09-08_21h03.43.831,forced_choiceRT,2021.1.2,Win32,60.01680471,,,,,,,,,,,,,,,,,,5,0,5,0,1
,0.46,,,,,,,,,h.PNG,h,6111c4865701e1ba367af3e3,2021-09-08_21h03.43.831,forced_choiceRT,2021.1.2,Win32,60.01680471,,,,,,,,7,Fast,f,0,0.9679,0,0,0,2,1,,,,,
,1.93,,,,,,,,,h.PNG,h,6111c4865701e1ba367af3e3,2021-09-08_21h03.43.831,forced_choiceRT,2021.1.2,Win32,60.01680471,,,,,,,,7,Slow,j,0,2.1356,0,1,1,2,1,,,,,
,0.98,,,,,,,,,h.PNG,h,6111c4865701e1ba367af3e3,2021-09-08_21h03.43.831,forced_choiceRT,2021.1.2,Win32,60.01680471,,,,,,,,7,Fast,h,1,1.85,0,2,2,2,1,,,,,
,1.12,,,,,,,,,g.PNG,g,6111c4865701e1ba367af3e3,2021-09-08_21h03.43.831,forced_choiceRT,2021.1.2,Win32,60.01680471,,,,,,,,7,Ontime,g,1,1.9047,0,3,3,1,1,,,,,
,0.51,,,,,,,,,f.PNG,f,6111c4865701e1ba367af3e3,2021-09-08_21h03.43.831,forced_choiceRT,2021.1.2,Win32,60.01680471,,,,,,,,7,Ontime,f,1,1.9398,1,0,4,0,1,,,,,
,0.04,,,,,,,,,f.PNG,f,6111c4865701e1ba367af3e3,2021-09-08_21h03.43.831,forced_choiceRT,2021.1.2,Win32,60.01680471,,,,,,,,7,Ontime,f,1,1.9693,1,1,5,0,1,,,,,
,1.06,,,,,,,,,h.PNG,h,6111c4865701e1ba367af3e3,2021-09-08_21h03.43.831,forced_choiceRT,2021.1.2,Win32,60.01680471,,,,,,,,7,Ontime,g,0,1.9522,1,2,6,2,1,,,,,
,0.96,,,,,,,,,g.PNG,g,6111c4865701e1ba367af3e3,2021-09-08_21h03.43.831,forced_choiceRT,2021.1.2,Win32,60.01680471,,,,,,,,7,Fast,g,1,1.7022,1,3,7,1,1,,,,,
,0.3,,,,,,,,,g.PNG,g,6111c4865701e1ba367af3e3,2021-09-08_21h03.43.831,forced_choiceRT,2021.1.2,Win32,60.01680471,,,,,,,,7,Fast,g,1,1.7001,2,0,8,1,1,,,,,
,1.1,,,,,,,,,f.PNG,f,6111c4865701e1ba367af3e3,2021-09-08_21h03.43.831,forced_choiceRT,2021.1.2,Win32,60.01680471,,,,,,,,7,Ontime,f,1,1.916,2,1,9,0,1,,,,,
,1.99,,,,,,,,,g.PNG,g,6111c4865701e1ba367af3e3,2021-09-08_21h03.43.831,forced_choiceRT,2021.1.2,Win32,60.01680471,,,,,,,,7,Ontime,g,1,1.9709,2,2,10,1,1,,,,,
,0.95,,,,,,,,,g.PNG,g,6111c4865701e1ba367af3e3,2021-09-08_21h03.43.831,forced_choiceRT,2021.1.2,Win32,60.01680471,,,,,,,,7,Fast,g,1,1.8992,2,3,11,1,1,,,,,
,1.77,,,,,,,,,h.PNG,h,6111c4865701e1ba367af3e3,2021-09-08_21h03.43.831,forced_choiceRT,2021.1.2,Win32,60.01680471,,,,,,,,7,Ontime,f,0,2.0006,3,0,12,2,1,,,,,
,0.76,,,,,,,,,j.PNG,j,6111c4865701e1ba367af3e3,2021-09-08_21h03.43.831,forced_choiceRT,2021.1.2,Win32,60.01680471,,,,,,,,7,Fast,j,1,1.7316,3,1,13,3,1,,,,,
,0.08,,,,,,,,,f.PNG,f,6111c4865701e1ba367af3e3,2021-09-08_21h03.43.831,forced_choiceRT,2021.1.2,Win32,60.01680471,,,,,,,,7,Fast,f,1,1.8725,3,2,14,0,1,,,,,
,0.66,,,,,,,,,g.PNG,g,6111c4865701e1ba367af3e3,2021-09-08_21h03.43.831,forced_choiceRT,2021.1.2,Win32,60.01680471,,,,,,,,7,Fast,g,1,1.5165,3,3,15,1,1,,,,,
,0.88,,,,,,,,,j.PNG,j,6111c4865701e1ba367af3e3,2021-09-08_21h03.43.831,forced_choiceRT,2021.1.2,Win32,60.01680471,,,,,,,,7,Fast,j,1,1.4668,4,0,16,3,1,,,,,
,1.58,,,,,,,,,f.PNG,f,6111c4865701e1ba367af3e3,2021-09-08_21h03.43.831,forced_choiceRT,2021.1.2,Win32,60.01680471,,,,,,,,7,Fast,j,0,1.5689,4,1,17,0,1,,,,,
,1.59,,,,,,,,,f.PNG,f,6111c4865701e1ba367af3e3,2021-09-08_21h03.43.831,forced_choiceRT,2021.1.2,Win32,60.01680471,,,,,,,,7,Ontime,j,0,1.9003,4,2,18,0,1,,,,,
,0.7,,,,,,,,,h.PNG,h,6111c4865701e1ba367af3e3,2021-09-08_21h03.43.831,forced_choiceRT,2021.1.2,Win32,60.01680471,,,,,,,,7,Ontime,h,1,1.9325,4,3,19,2,1,,,,,
,1.69,,,,,,,,,h.PNG,h,6111c4865701e1ba367af3e3,2021-09-08_21h03.43.831,forced_choiceRT,2021.1.2,Win32,60.01680471,,,,,,,,7,Ontime,f,0,2.0491,5,0,20,2,1,,,,,
,0.89,,,,,,,,,h.PNG,h,6111c4865701e1ba367af3e3,2021-09-08_21h03.43.831,forced_choiceRT,2021.1.2,Win32,60.01680471,,,,,,,,7,Fast,h,1,1.7829,5,1,21,2,1,,,,,
,0.36,,,,,,,,,j.PNG,j,6111c4865701e1ba367af3e3,2021-09-08_21h03.43.831,forced_choiceRT,2021.1.2,Win32,60.01680471,,,,,,,,7,Ontime,j,1,2.0221,5,2,22,3,1,,,,,
,1.91,,,,,,,,,j.PNG,j,6111c4865701e1ba367af3e3,2021-09-08_21h03.43.831,forced_choiceRT,2021.1.2,Win32,60.01680471,,,,,,,,7,Ontime,j,1,1.9332,5,3,23,3,1,,,,,
,0.7,,,,,,,,,j.PNG,j,6111c4865701e1ba367af3e3,2021-09-08_21h03.43.831,forced_choiceRT,2021.1.2,Win32,60.01680471,,,,,,,,7,Fast,j,1,1.8501,6,0,24,3,1,,,,,
,0.67,,,,,,,,,j.PNG,j,6111c4865701e1ba367af3e3,2021-09-08_21h03.43.831,forced_choiceRT,2021.1.2,Win32,60.01680471,,,,,,,,7,Ontime,j,1,2.0369,6,1,25,3,1,,,,,
,1.1,,,,,,,,,j.PNG,j,6111c4865701e1ba367af3e3,2021-09-08_21h03.43.831,forced_choiceRT,2021.1.2,Win32,60.01680471,,,,,,,,7,Ontime,j,1,2.0498,6,2,26,3,1,,,,,
,1.67,,,,,,,,,g.PNG,g,6111c4865701e1ba367af3e3,2021-09-08_21h03.43.831,forced_choiceRT,2021.1.2,Win32,60.01680471,,,,,,,,7,Fast,j,0,1.7666,6,3,27,1,1,,,,,
,0.27,,,,,,,,,j.PNG,j,6111c4865701e1ba367af3e3,2021-09-08_21h03.43.831,forced_choiceRT,2021.1.2,Win32,60.01680471,,,,,,,,7,Fast,j,1,1.5666,7,0,28,3,1,,,,,
,0.23,,,,,,,,,j.PNG,j,6111c4865701e1ba367af3e3,2021-09-08_21h03.43.831,forced_choiceRT,2021.1.2,Win32,60.01680471,,,,,,,,7,Ontime,j,1,1.9501,7,1,29,3,1,,,,,
,1.14,,,,,,,,,j.PNG,j,6111c4865701e1ba367af3e3,2021-09-08_21h03.43.831,forced_choiceRT,2021.1.2,Win32,60.01680471,,,,,,,,7,Fast,j,1,1.8546,7,2,30,3,1,,,,,
,1.51,,,,,,,,,h.PNG,h,6111c4865701e1ba367af3e3,2021-09-08_21h03.43.831,forced_choiceRT,2021.1.2,Win32,60.01680471,,,,,,,,7,Fast,h,1,1.5208,7,3,31,2,1,,,,,
,0.01,,,,,,,,,g.PNG,g,6111c4865701e1ba367af3e3,2021-09-08_21h03.43.831,forced_choiceRT,2021.1.2,Win32,60.01680471,,,,,,,,7,Ontime,g,1,1.9329,8,0,32,1,1,,,,,
,1.76,,,,,,,,,f.PNG,f,6111c4865701e1ba367af3e3,2021-09-08_21h03.43.831,forced_choiceRT,2021.1.2,Win32,60.01680471,,,,,,,,7,Ontime,f,1,2.0163,8,1,33,0,1,,,,,
,0.56,,,,,,,,,h.PNG,h,6111c4865701e1ba367af3e3,2021-09-08_21h03.43.831,forced_choiceRT,2021.1.2,Win32,60.01680471,,,,,,,,7,Ontime,g,0,1.9657,8,2,34,2,1,,,,,
,0.08,,,,,,,,,g.PNG,g,6111c4865701e1ba367af3e3,2021-09-08_21h03.43.831,forced_choiceRT,2021.1.2,Win32,60.01680471,,,,,,,,7,Ontime,g,1,1.9705,8,3,35,1,1,,,,,
,0.01,,,,,,,,,f.PNG,f,6111c4865701e1ba367af3e3,2021-09-08_21h03.43.831,forced_choiceRT,2021.1.2,Win32,60.01680471,,,,,,,,7,Ontime,f,1,1.9331,9,0,36,0,1,,,,,
,0.47,,,,,,,,,f.PNG,f,6111c4865701e1ba367af3e3,2021-09-08_21h03.43.831,forced_choiceRT,2021.1.2,Win32,60.01680471,,,,,,,,7,Fast,f,1,1.8336,9,1,37,0,1,,,,,
,0.81,,,,,,,,,f.PNG,f,6111c4865701e1ba367af3e3,2021-09-08_21h03.43.831,forced_choiceRT,2021.1.2,Win32,60.01680471,,,,,,,,7,Ontime,f,1,1.9564,9,2,38,0,1,,,,,
,1.97,,,,,,,,,g.PNG,g,6111c4865701e1ba367af3e3,2021-09-08_21h03.43.831,forced_choiceRT,2021.1.2,Win32,60.01680471,,,,,,,,7,Ontime,f,0,1.9987,9,3,39,1,1,,,,,
,,,,,,,,,,,,6111c4865701e1ba367af3e3,2021-09-08_21h03.43.831,forced_choiceRT,2021.1.2,Win32,60.01680471,,,,,,,,,,,,,,,,,,6,0,6,0,1
,1.21,,,,,,,,,f.PNG,f,6111c4865701e1ba367af3e3,2021-09-08_21h03.43.831,forced_choiceRT,2021.1.2,Win32,60.01680471,,,,,,,,8,Fast,f,1,1.7609,0,0,0,0,1,,,,,
,1.69,,,,,,,,,j.PNG,j,6111c4865701e1ba367af3e3,2021-09-08_21h03.43.831,forced_choiceRT,2021.1.2,Win32,60.01680471,,,,,,,,8,Ontime,f,0,1.9537,0,1,1,3,1,,,,,
,1.57,,,,,,,,,h.PNG,h,6111c4865701e1ba367af3e3,2021-09-08_21h03.43.831,forced_choiceRT,2021.1.2,Win32,60.01680471,,,,,,,,8,Fast,h,1,1.8995,0,2,2,2,1,,,,,
,0.34,,,,,,,,,f.PNG,f,6111c4865701e1ba367af3e3,2021-09-08_21h03.43.831,forced_choiceRT,2021.1.2,Win32,60.01680471,,,,,,,,8,Ontime,f,1,1.9409,0,3,3,0,1,,,,,
,1.67,,,,,,,,,h.PNG,h,6111c4865701e1ba367af3e3,2021-09-08_21h03.43.831,forced_choiceRT,2021.1.2,Win32,60.01680471,,,,,,,,8,Slow,h,1,2.1986,1,0,4,2,1,,,,,
,0.54,,,,,,,,,j.PNG,j,6111c4865701e1ba367af3e3,2021-09-08_21h03.43.831,forced_choiceRT,2021.1.2,Win32,60.01680471,,,,,,,,8,Fast,j,1,1.8161,1,1,5,3,1,,,,,
,1.61,,,,,,,,,f.PNG,f,6111c4865701e1ba367af3e3,2021-09-08_21h03.43.831,forced_choiceRT,2021.1.2,Win32,60.01680471,,,,,,,,8,Fast,j,0,1.8666,1,2,6,0,1,,,,,
,1.31,,,,,,,,,f.PNG,f,6111c4865701e1ba367af3e3,2021-09-08_21h03.43.831,forced_choiceRT,2021.1.2,Win32,60.01680471,,,,,,,,8,Fast,j,0,1.8163,1,3,7,0,1,,,,,
,1.33,,,,,,,,,f.PNG,f,6111c4865701e1ba367af3e3,2021-09-08_21h03.43.831,forced_choiceRT,2021.1.2,Win32,60.01680471,,,,,,,,8,Ontime,f,1,1.9332,2,0,8,0,1,,,,,
,1.1,,,,,,,,,g.PNG,g,6111c4865701e1ba367af3e3,2021-09-08_21h03.43.831,forced_choiceRT,2021.1.2,Win32,60.01680471,,,,,,,,8,Fast,g,1,1.8027,2,1,9,1,1,,,,,
,0.21,,,,,,,,,g.PNG,g,6111c4865701e1ba367af3e3,2021-09-08_21h03.43.831,forced_choiceRT,2021.1.2,Win32,60.01680471,,,,,,,,8,Fast,g,1,1.7694,2,2,10,1,1,,,,,
,1.95,,,,,,,,,g.PNG,g,6111c4865701e1ba367af3e3,2021-09-08_21h03.43.831,forced_choiceRT,2021.1.2,Win32,60.01680471,,,,,,,,8,Ontime,j,0,1.9331,2,3,11,1,1,,,,,
,0.6,,,,,,,,,f.PNG,f,6111c4865701e1ba367af3e3,2021-09-08_21h03.43.831,forced_choiceRT,2021.1.2,Win32,60.01680471,,,,,,,,8,Ontime,f,1,1.9193,3,0,12,0,1,,,,,
,1.87,,,,,,,,,g.PNG,g,6111c4865701e1ba367af3e3,2021-09-08_21h03.43.831,forced_choiceRT,2021.1.2,Win32,60.01680471,,,,,,,,8,Ontime,j,0,2.0333,3,1,13,1,1,,,,,
,1.37,,,,,,,,,h.PNG,h,6111c4865701e1ba367af3e3,2021-09-08_21h03.43.831,forced_choiceRT,2021.1.2,Win32,60.01680471,,,,,,,,8,Ontime,h,1,2.0172,3,2,14,2,1,,,,,
,0.25,,,,,,,,,j.PNG,j,6111c4865701e1ba367af3e3,2021-09-08_21h03.43.831,forced_choiceRT,2021.1.2,Win32,60.01680471,,,,,,,,8,Ontime,j,1,2.016,3,3,15,3,1,,,,,
,1.6,,,,,,,,,g.PNG,g,6111c4865701e1ba367af3e3,2021-09-08_21h03.43.831,forced_choiceRT,2021.1.2,Win32,60.01680471,,,,,,,,8,Fast,g,1,1.8329,4,0,16,1,1,,,,,
,0.56,,,,,,,,,j.PNG,j,6111c4865701e1ba367af3e3,2021-09-08_21h03.43.831,forced_choiceRT,2021.1.2,Win32,60.01680471,,,,,,,,8,Ontime,j,1,1.9667,4,1,17,3,1,,,,,
,1.7,,,,,,,,,g.PNG,g,6111c4865701e1ba367af3e3,2021-09-08_21h03.43.831,forced_choiceRT,2021.1.2,Win32,60.01680471,,,,,,,,8,Ontime,j,0,2.0668,4,2,18,1,1,,,,,
,0.38,,,,,,,,,g.PNG,g,6111c4865701e1ba367af3e3,2021-09-08_21h03.43.831,forced_choiceRT,2021.1.2,Win32,60.01680471,,,,,,,,8,Ontime,g,1,2.0321,4,3,19,1,1,,,,,
,1.28,,,,,,,,,h.PNG,h,6111c4865701e1ba367af3e3,2021-09-08_21h03.43.831,forced_choiceRT,2021.1.2,Win32,60.01680471,,,,,,,,8,Ontime,h,1,1.9161,5,0,20,2,1,,,,,
,1.68,,,,,,,,,h.PNG,h,6111c4865701e1ba367af3e3,2021-09-08_21h03.43.831,forced_choiceRT,2021.1.2,Win32,60.01680471,,,,,,,,8,Ontime,j,0,1.9498,5,1,21,2,1,,,,,
,0.7,,,,,,,,,g.PNG,g,6111c4865701e1ba367af3e3,2021-09-08_21h03.43.831,forced_choiceRT,2021.1.2,Win32,60.01680471,,,,,,,,8,Ontime,g,1,1.9827,5,2,22,1,1,,,,,
,1.28,,,,,,,,,g.PNG,g,6111c4865701e1ba367af3e3,2021-09-08_21h03.43.831,forced_choiceRT,2021.1.2,Win32,60.01680471,,,,,,,,8,Ontime,g,1,1.9321,5,3,23,1,1,,,,,
,0.79,,,,,,,,,h.PNG,h,6111c4865701e1ba367af3e3,2021-09-08_21h03.43.831,forced_choiceRT,2021.1.2,Win32,60.01680471,,,,,,,,8,Ontime,h,1,1.9166,6,0,24,2,1,,,,,
,0.98,,,,,,,,,j.PNG,j,6111c4865701e1ba367af3e3,2021-09-08_21h03.43.831,forced_choiceRT,2021.1.2,Win32,60.01680471,,,,,,,,8,Fast,h,0,1.6359,6,1,25,3,1,,,,,
,0,,,,,,,,,h.PNG,h,6111c4865701e1ba367af3e3,2021-09-08_21h03.43.831,forced_choiceRT,2021.1.2,Win32,60.01680471,,,,,,,,8,Ontime,h,1,1.925,6,2,26,2,1,,,,,
,0.07,,,,,,,,,j.PNG,j,6111c4865701e1ba367af3e3,2021-09-08_21h03.43.831,forced_choiceRT,2021.1.2,Win32,60.01680471,,,,,,,,8,Ontime,j,1,1.9998,6,3,27,3,1,,,,,
,0.17,,,,,,,,,h.PNG,h,6111c4865701e1ba367af3e3,2021-09-08_21h03.43.831,forced_choiceRT,2021.1.2,Win32,60.01680471,,,,,,,,8,Fast,h,1,1.8665,7,0,28,2,1,,,,,
,1.57,,,,,,,,,f.PNG,f,6111c4865701e1ba367af3e3,2021-09-08_21h03.43.831,forced_choiceRT,2021.1.2,Win32,60.01680471,,,,,,,,8,Fast,j,0,1.8914,7,1,29,0,1,,,,,
,0.92,,,,,,,,,j.PNG,j,6111c4865701e1ba367af3e3,2021-09-08_21h03.43.831,forced_choiceRT,2021.1.2,Win32,60.01680471,,,,,,,,8,Fast,j,1,1.8849,7,2,30,3,1,,,,,
,0.03,,,,,,,,,j.PNG,j,6111c4865701e1ba367af3e3,2021-09-08_21h03.43.831,forced_choiceRT,2021.1.2,Win32,60.01680471,,,,,,,,8,Fast,j,1,1.8567,7,3,31,3,1,,,,,
,1.98,,,,,,,,,j.PNG,j,6111c4865701e1ba367af3e3,2021-09-08_21h03.43.831,forced_choiceRT,2021.1.2,Win32,60.01680471,,,,,,,,8,Slow,j,1,2.1013,8,0,32,3,1,,,,,
,1.43,,,,,,,,,h.PNG,h,6111c4865701e1ba367af3e3,2021-09-08_21h03.43.831,forced_choiceRT,2021.1.2,Win32,60.01680471,,,,,,,,8,Fast,h,1,1.8577,8,1,33,2,1,,,,,
,0.54,,,,,,,,,h.PNG,h,6111c4865701e1ba367af3e3,2021-09-08_21h03.43.831,forced_choiceRT,2021.1.2,Win32,60.01680471,,,,,,,,8,Ontime,h,1,1.9178,8,2,34,2,1,,,,,
,0.3,,,,,,,,,f.PNG,f,6111c4865701e1ba367af3e3,2021-09-08_21h03.43.831,forced_choiceRT,2021.1.2,Win32,60.01680471,,,,,,,,8,Fast,f,1,1.8331,8,3,35,0,1,,,,,
,0.75,,,,,,,,,f.PNG,f,6111c4865701e1ba367af3e3,2021-09-08_21h03.43.831,forced_choiceRT,2021.1.2,Win32,60.01680471,,,,,,,,8,Fast,f,1,1.8668,9,0,36,0,1,,,,,
,0.02,,,,,,,,,j.PNG,j,6111c4865701e1ba367af3e3,2021-09-08_21h03.43.831,forced_choiceRT,2021.1.2,Win32,60.01680471,,,,,,,,8,Ontime,j,1,1.9374,9,1,37,3,1,,,,,
,1.59,,,,,,,,,f.PNG,f,6111c4865701e1ba367af3e3,2021-09-08_21h03.43.831,forced_choiceRT,2021.1.2,Win32,60.01680471,,,,,,,,8,Ontime,h,0,1.9328,9,2,38,0,1,,,,,
,0.74,,,,,,,,,g.PNG,g,6111c4865701e1ba367af3e3,2021-09-08_21h03.43.831,forced_choiceRT,2021.1.2,Win32,60.01680471,,,,,,,,8,Ontime,g,1,1.9387,9,3,39,1,1,,,,,
,,,,,,,,,,,,6111c4865701e1ba367af3e3,2021-09-08_21h03.43.831,forced_choiceRT,2021.1.2,Win32,60.01680471,,,,,,,,,,,,,,,,,,7,0,7,0,1
,1.71,,,,,,,,,g.PNG,g,6111c4865701e1ba367af3e3,2021-09-08_21h03.43.831,forced_choiceRT,2021.1.2,Win32,60.01680471,,,,,,,,9,Fast,h,0,0.8657,0,0,0,1,1,,,,,
,1.78,,,,,,,,,h.PNG,h,6111c4865701e1ba367af3e3,2021-09-08_21h03.43.831,forced_choiceRT,2021.1.2,Win32,60.01680471,,,,,,,,9,Fast,f,0,0.2181,0,1,1,2,1,,,,,
,1.15,,,,,,,,,j.PNG,j,6111c4865701e1ba367af3e3,2021-09-08_21h03.43.831,forced_choiceRT,2021.1.2,Win32,60.01680471,,,,,,,,9,Fast,j,1,0.258,0,2,2,3,1,,,,,
,1.09,,,,,,,,,j.PNG,j,6111c4865701e1ba367af3e3,2021-09-08_21h03.43.831,forced_choiceRT,2021.1.2,Win32,60.01680471,,,,,,,,9,Fast,g,0,0.2376,0,3,3,3,1,,,,,
,0.88,,,,,,,,,g.PNG,g,6111c4865701e1ba367af3e3,2021-09-08_21h03.43.831,forced_choiceRT,2021.1.2,Win32,60.01680471,,,,,,,,9,Fast,f,0,0.0246,1,0,4,1,1,,,,,
,0.95,,,,,,,,,j.PNG,j,6111c4865701e1ba367af3e3,2021-09-08_21h03.43.831,forced_choiceRT,2021.1.2,Win32,60.01680471,,,,,,,,9,Fast,j,1,0.2078,1,1,5,3,1,,,,,
,0.99,,,,,,,,,g.PNG,g,6111c4865701e1ba367af3e3,2021-09-08_21h03.43.831,forced_choiceRT,2021.1.2,Win32,60.01680471,,,,,,,,9,Fast,h,0,0.2013,1,2,6,1,1,,,,,
,0.15,,,,,,,,,h.PNG,h,6111c4865701e1ba367af3e3,2021-09-08_21h03.43.831,forced_choiceRT,2021.1.2,Win32,60.01680471,,,,,,,,9,Fast,g,0,0.0722,1,3,7,2,1,,,,,
,1.44,,,,,,,,,h.PNG,h,6111c4865701e1ba367af3e3,2021-09-08_21h03.43.831,forced_choiceRT,2021.1.2,Win32,60.01680471,,,,,,,,9,Fast,f,0,0.2193,2,0,8,2,1,,,,,
,1.32,,,,,,,,,h.PNG,h,6111c4865701e1ba367af3e3,2021-09-08_21h03.43.831,forced_choiceRT,2021.1.2,Win32,60.01680471,,,,,,,,9,Fast,j,0,0.1569,2,1,9,2,1,,,,,
,1.1,,,,,,,,,g.PNG,g,6111c4865701e1ba367af3e3,2021-09-08_21h03.43.831,forced_choiceRT,2021.1.2,Win32,60.01680471,,,,,,,,9,Fast,h,0,0.2717,2,2,10,1,1,,,,,
,0.86,,,,,,,,,h.PNG,h,6111c4865701e1ba367af3e3,2021-09-08_21h03.43.831,forced_choiceRT,2021.1.2,Win32,60.01680471,,,,,,,,9,Fast,g,0,0.1094,2,3,11,2,1,,,,,
,0.41,,,,,,,,,h.PNG,h,6111c4865701e1ba367af3e3,2021-09-08_21h03.43.831,forced_choiceRT,2021.1.2,Win32,60.01680471,,,,,,,,9,Fast,j,0,0.1094,3,0,12,2,1,,,,,
,0.7,,,,,,,,,g.PNG,g,6111c4865701e1ba367af3e3,2021-09-08_21h03.43.831,forced_choiceRT,2021.1.2,Win32,60.01680471,,,,,,,,9,Fast,f,0,0.0011,3,1,13,1,1,,,,,
,0.57,,,,,,,,,f.PNG,f,6111c4865701e1ba367af3e3,2021-09-08_21h03.43.831,forced_choiceRT,2021.1.2,Win32,60.01680471,,,,,,,,9,Fast,j,0,0.4178,3,2,14,0,1,,,,,
,1.93,,,,,,,,,f.PNG,f,6111c4865701e1ba367af3e3,2021-09-08_21h03.43.831,forced_choiceRT,2021.1.2,Win32,60.01680471,,,,,,,,9,Fast,h,0,0.0179,3,3,15,0,1,,,,,
,1.69,,,,,,,,,j.PNG,j,6111c4865701e1ba367af3e3,2021-09-08_21h03.43.831,forced_choiceRT,2021.1.2,Win32,60.01680471,,,,,,,,9,Fast,j,1,0.4675,4,0,16,3,1,,,,,
,1.21,,,,,,,,,f.PNG,f,6111c4865701e1ba367af3e3,2021-09-08_21h03.43.831,forced_choiceRT,2021.1.2,Win32,60.01680471,,,,,,,,9,Ontime,f,1,2.0332,4,1,17,0,1,,,,,
,1.45,,,,,,,,,j.PNG,j,6111c4865701e1ba367af3e3,2021-09-08_21h03.43.831,forced_choiceRT,2021.1.2,Win32,60.01680471,,,,,,,,9,Fast,g,0,0.6347,4,2,18,3,1,,,,,
,1.12,,,,,,,,,h.PNG,h,6111c4865701e1ba367af3e3,2021-09-08_21h03.43.831,forced_choiceRT,2021.1.2,Win32,60.01680471,,,,,,,,9,Fast,f,0,0.1087,4,3,19,2,1,,,,,
,1.32,,,,,,,,,g.PNG,g,6111c4865701e1ba367af3e3,2021-09-08_21h03.43.831,forced_choiceRT,2021.1.2,Win32,60.01680471,,,,,,,,9,Fast,f,0,1.5334,5,0,20,1,1,,,,,
,1.03,,,,,,,,,h.PNG,h,6111c4865701e1ba367af3e3,2021-09-08_21h03.43.831,forced_choiceRT,2021.1.2,Win32,60.01680471,,,,,,,,9,Fast,h,1,0.0372,5,1,21,2,1,,,,,
,0.19,,,,,,,,,j.PNG,j,6111c4865701e1ba367af3e3,2021-09-08_21h03.43.831,forced_choiceRT,2021.1.2,Win32,60.01680471,,,,,,,,9,Fast,j,1,0.3513,5,2,22,3,1,,,,,
,0.62,,,,,,,,,f.PNG,f,6111c4865701e1ba367af3e3,2021-09-08_21h03.43.831,forced_choiceRT,2021.1.2,Win32,60.01680471,,,,,,,,9,Fast,g,0,0.3516,5,3,23,0,1,,,,,
,0.72,,,,,,,,,f.PNG,f,6111c4865701e1ba367af3e3,2021-09-08_21h03.43.831,forced_choiceRT,2021.1.2,Win32,60.01680471,,,,,,,,9,Fast,f,1,0.734,6,0,24,0,1,,,,,
,1.93,,,,,,,,,j.PNG,j,6111c4865701e1ba367af3e3,2021-09-08_21h03.43.831,forced_choiceRT,2021.1.2,Win32,60.01680471,,,,,,,,9,Fast,f,0,0.1184,6,1,25,3,1,,,,,
,1.96,,,,,,,,,g.PNG,g,6111c4865701e1ba367af3e3,2021-09-08_21h03.43.831,forced_choiceRT,2021.1.2,Win32,60.01680471,,,,,,,,9,Fast,j,0,0.4883,6,2,26,1,1,,,,,
,1.6,,,,,,,,,f.PNG,f,6111c4865701e1ba367af3e3,2021-09-08_21h03.43.831,forced_choiceRT,2021.1.2,Win32,60.01680471,,,,,,,,9,Fast,j,0,0.7003,6,3,27,0,1,,,,,
,1.13,,,,,,,,,f.PNG,f,6111c4865701e1ba367af3e3,2021-09-08_21h03.43.831,forced_choiceRT,2021.1.2,Win32,60.01680471,,,,,,,,9,Fast,j,0,0.2248,7,0,28,0,1,,,,,
,0.36,,,,,,,,,g.PNG,g,6111c4865701e1ba367af3e3,2021-09-08_21h03.43.831,forced_choiceRT,2021.1.2,Win32,60.01680471,,,,,,,,9,Fast,f,0,0.118,7,1,29,1,1,,,,,
,0.33,,,,,,,,,h.PNG,h,6111c4865701e1ba367af3e3,2021-09-08_21h03.43.831,forced_choiceRT,2021.1.2,Win32,60.01680471,,,,,,,,9,Fast,g,0,0.7499,7,2,30,2,1,,,,,
,0.99,,,,,,,,,g.PNG,g,6111c4865701e1ba367af3e3,2021-09-08_21h03.43.831,forced_choiceRT,2021.1.2,Win32,60.01680471,,,,,,,,9,Fast,f,0,0.2081,7,3,31,1,1,,,,,
,1.82,,,,,,,,,j.PNG,j,6111c4865701e1ba367af3e3,2021-09-08_21h03.43.831,forced_choiceRT,2021.1.2,Win32,60.01680471,,,,,,,,9,Fast,h,0,0.8604,8,0,32,3,1,,,,,
,0.56,,,,,,,,,h.PNG,h,6111c4865701e1ba367af3e3,2021-09-08_21h03.43.831,forced_choiceRT,2021.1.2,Win32,60.01680471,,,,,,,,9,Fast,h,1,0.168,8,1,33,2,1,,,,,
,0.74,,,,,,,,,f.PNG,f,6111c4865701e1ba367af3e3,2021-09-08_21h03.43.831,forced_choiceRT,2021.1.2,Win32,60.01680471,,,,,,,,9,Fast,g,0,0.2025,8,2,34,0,1,,,,,
,1.47,,,,,,,,,j.PNG,j,6111c4865701e1ba367af3e3,2021-09-08_21h03.43.831,forced_choiceRT,2021.1.2,Win32,60.01680471,,,,,,,,9,Fast,j,1,1.2704,8,3,35,3,1,,,,,
,0.26,,,,,,,,,f.PNG,f,6111c4865701e1ba367af3e3,2021-09-08_21h03.43.831,forced_choiceRT,2021.1.2,Win32,60.01680471,,,,,,,,9,Fast,h,0,0.434,9,0,36,0,1,,,,,
,0.93,,,,,,,,,f.PNG,f,6111c4865701e1ba367af3e3,2021-09-08_21h03.43.831,forced_choiceRT,2021.1.2,Win32,60.01680471,,,,,,,,9,Fast,j,0,0.4515,9,1,37,0,1,,,,,
,1.76,,,,,,,,,g.PNG,g,6111c4865701e1ba367af3e3,2021-09-08_21h03.43.831,forced_choiceRT,2021.1.2,Win32,60.01680471,,,,,,,,9,Fast,f,0,0.0012,9,2,38,1,1,,,,,
,1.38,,,,,,,,,j.PNG,j,6111c4865701e1ba367af3e3,2021-09-08_21h03.43.831,forced_choiceRT,2021.1.2,Win32,60.01680471,,,,,,,,9,Fast,g,0,0.6737,9,3,39,3,1,,,,,
,,,,,,,,,,,,6111c4865701e1ba367af3e3,2021-09-08_21h03.43.831,forced_choiceRT,2021.1.2,Win32,60.01680471,,,,,,,,,,,,,,,,,,8,0,8,0,1
,1.49,,,,,,,,,f.PNG,f,6111c4865701e1ba367af3e3,2021-09-08_21h03.43.831,forced_choiceRT,2021.1.2,Win32,60.01680471,,,,,,,,10,Fast,j,0,1.8001,0,0,0,0,1,,,,,
,1.54,,,,,,,,,f.PNG,f,6111c4865701e1ba367af3e3,2021-09-08_21h03.43.831,forced_choiceRT,2021.1.2,Win32,60.01680471,,,,,,,,10,Fast,j,0,1.7702,0,1,1,0,1,,,,,
,1.09,,,,,,,,,g.PNG,g,6111c4865701e1ba367af3e3,2021-09-08_21h03.43.831,forced_choiceRT,2021.1.2,Win32,60.01680471,,,,,,,,10,Fast,g,1,1.7165,0,2,2,1,1,,,,,
,1.62,,,,,,,,,j.PNG,j,6111c4865701e1ba367af3e3,2021-09-08_21h03.43.831,forced_choiceRT,2021.1.2,Win32,60.01680471,,,,,,,,10,Fast,j,1,1.6332,0,3,3,3,1,,,,,
,1.9,,,,,,,,,g.PNG,g,6111c4865701e1ba367af3e3,2021-09-08_21h03.43.831,forced_choiceRT,2021.1.2,Win32,60.01680471,,,,,,,,10,Fast,f,0,1.6331,1,0,4,1,1,,,,,
,1.66,,,,,,,,,g.PNG,g,6111c4865701e1ba367af3e3,2021-09-08_21h03.43.831,forced_choiceRT,2021.1.2,Win32,60.01680471,,,,,,,,10,Fast,j,0,1.5498,1,1,5,1,1,,,,,
,1.41,,,,,,,,,f.PNG,f,6111c4865701e1ba367af3e3,2021-09-08_21h03.43.831,forced_choiceRT,2021.1.2,Win32,60.01680471,,,,,,,,10,Fast,g,0,1.8,1,2,6,0,1,,,,,
,1.17,,,,,,,,,h.PNG,h,6111c4865701e1ba367af3e3,2021-09-08_21h03.43.831,forced_choiceRT,2021.1.2,Win32,60.01680471,,,,,,,,10,Fast,f,0,1.7067,1,3,7,2,1,,,,,
,0.52,,,,,,,,,j.PNG,j,6111c4865701e1ba367af3e3,2021-09-08_21h03.43.831,forced_choiceRT,2021.1.2,Win32,60.01680471,,,,,,,,10,Fast,j,1,1.8331,2,0,8,3,1,,,,,
,1.2,,,,,,,,,j.PNG,j,6111c4865701e1ba367af3e3,2021-09-08_21h03.43.831,forced_choiceRT,2021.1.2,Win32,60.01680471,,,,,,,,10,Fast,j,1,1.7993,2,1,9,3,1,,,,,
,0.58,,,,,,,,,h.PNG,h,6111c4865701e1ba367af3e3,2021-09-08_21h03.43.831,forced_choiceRT,2021.1.2,Win32,60.01680471,,,,,,,,10,Fast,h,1,1.7995,2,2,10,2,1,,,,,
,0.77,,,,,,,,,g.PNG,g,6111c4865701e1ba367af3e3,2021-09-08_21h03.43.831,forced_choiceRT,2021.1.2,Win32,60.01680471,,,,,,,,10,Fast,g,1,1.7333,2,3,11,1,1,,,,,
,0.21,,,,,,,,,h.PNG,h,6111c4865701e1ba367af3e3,2021-09-08_21h03.43.831,forced_choiceRT,2021.1.2,Win32,60.01680471,,,,,,,,10,Ontime,h,1,1.9911,3,0,12,2,1,,,,,
,1.35,,,,,,,,,f.PNG,f,6111c4865701e1ba367af3e3,2021-09-08_21h03.43.831,forced_choiceRT,2021.1.2,Win32,60.01680471,,,,,,,,10,Ontime,f,1,1.9168,3,1,13,0,1,,,,,
,0.02,,,,,,,,,f.PNG,f,6111c4865701e1ba367af3e3,2021-09-08_21h03.43.831,forced_choiceRT,2021.1.2,Win32,60.01680471,,,,,,,,10,Ontime,f,1,1.9998,3,2,14,0,1,,,,,
,1.58,,,,,,,,,h.PNG,h,6111c4865701e1ba367af3e3,2021-09-08_21h03.43.831,forced_choiceRT,2021.1.2,Win32,60.01680471,,,,,,,,10,Fast,j,0,1.8869,3,3,15,2,1,,,,,
,0.24,,,,,,,,,j.PNG,j,6111c4865701e1ba367af3e3,2021-09-08_21h03.43.831,forced_choiceRT,2021.1.2,Win32,60.01680471,,,,,,,,10,Fast,j,1,1.6665,4,0,16,3,1,,,,,
,1.63,,,,,,,,,f.PNG,f,6111c4865701e1ba367af3e3,2021-09-08_21h03.43.831,forced_choiceRT,2021.1.2,Win32,60.01680471,,,,,,,,10,Ontime,h,0,2.0496,4,1,17,0,1,,,,,
,1.94,,,,,,,,,h.PNG,h,6111c4865701e1ba367af3e3,2021-09-08_21h03.43.831,forced_choiceRT,2021.1.2,Win32,60.01680471,,,,,,,,10,Ontime,j,0,2.0663,4,2,18,2,1,,,,,
,0.15,,,,,,,,,f.PNG,f,6111c4865701e1ba367af3e3,2021-09-08_21h03.43.831,forced_choiceRT,2021.1.2,Win32,60.01680471,,,,,,,,10,Fast,f,1,1.2681,4,3,19,0,1,,,,,
,1.84,,,,,,,,,g.PNG,g,6111c4865701e1ba367af3e3,2021-09-08_21h03.43.831,forced_choiceRT,2021.1.2,Win32,60.01680471,,,,,,,,10,Ontime,j,0,1.9222,5,0,20,1,1,,,,,
,0.32,,,,,,,,,g.PNG,g,6111c4865701e1ba367af3e3,2021-09-08_21h03.43.831,forced_choiceRT,2021.1.2,Win32,60.01680471,,,,,,,,10,Fast,g,1,1.7164,5,1,21,1,1,,,,,
,1.11,,,,,,,,,j.PNG,j,6111c4865701e1ba367af3e3,2021-09-08_21h03.43.831,forced_choiceRT,2021.1.2,Win32,60.01680471,,,,,,,,10,Fast,j,1,1.7836,5,2,22,3,1,,,,,
,1.5,,,,,,,,,h.PNG,h,6111c4865701e1ba367af3e3,2021-09-08_21h03.43.831,forced_choiceRT,2021.1.2,Win32,60.01680471,,,,,,,,10,Ontime,g,0,1.9545,5,3,23,2,1,,,,,
,0.35,,,,,,,,,h.PNG,h,6111c4865701e1ba367af3e3,2021-09-08_21h03.43.831,forced_choiceRT,2021.1.2,Win32,60.01680471,,,,,,,,10,Fast,g,0,1.8665,6,0,24,2,1,,,,,
,1.79,,,,,,,,,h.PNG,h,6111c4865701e1ba367af3e3,2021-09-08_21h03.43.831,forced_choiceRT,2021.1.2,Win32,60.01680471,,,,,,,,10,Fast,j,0,1.6338,6,1,25,2,1,,,,,
,1.23,,,,,,,,,f.PNG,f,6111c4865701e1ba367af3e3,2021-09-08_21h03.43.831,forced_choiceRT,2021.1.2,Win32,60.01680471,,,,,,,,10,Fast,h,0,1.5862,6,2,26,0,1,,,,,
,1.28,,,,,,,,,g.PNG,g,6111c4865701e1ba367af3e3,2021-09-08_21h03.43.831,forced_choiceRT,2021.1.2,Win32,60.01680471,,,,,,,,10,Fast,f,0,1.8,6,3,27,1,1,,,,,
,1.23,,,,,,,,,j.PNG,j,6111c4865701e1ba367af3e3,2021-09-08_21h03.43.831,forced_choiceRT,2021.1.2,Win32,60.01680471,,,,,,,,10,Fast,g,0,1.5392,7,0,28,3,1,,,,,
,0.7,,,,,,,,,j.PNG,j,6111c4865701e1ba367af3e3,2021-09-08_21h03.43.831,forced_choiceRT,2021.1.2,Win32,60.01680471,,,,,,,,10,Fast,j,1,1.7726,7,1,29,3,1,,,,,
,1.68,,,,,,,,,g.PNG,g,6111c4865701e1ba367af3e3,2021-09-08_21h03.43.831,forced_choiceRT,2021.1.2,Win32,60.01680471,,,,,,,,10,Ontime,j,0,1.9666,7,2,30,1,1,,,,,
,1.78,,,,,,,,,j.PNG,j,6111c4865701e1ba367af3e3,2021-09-08_21h03.43.831,forced_choiceRT,2021.1.2,Win32,60.01680471,,,,,,,,10,Fast,f,0,1.8832,7,3,31,3,1,,,,,
,0.59,,,,,,,,,g.PNG,g,6111c4865701e1ba367af3e3,2021-09-08_21h03.43.831,forced_choiceRT,2021.1.2,Win32,60.01680471,,,,,,,,10,Fast,g,1,1.2584,8,0,32,1,1,,,,,
,0.78,,,,,,,,,j.PNG,j,6111c4865701e1ba367af3e3,2021-09-08_21h03.43.831,forced_choiceRT,2021.1.2,Win32,60.01680471,,,,,,,,10,Fast,j,1,1.7372,8,1,33,3,1,,,,,
,0.9,,,,,,,,,j.PNG,j,6111c4865701e1ba367af3e3,2021-09-08_21h03.43.831,forced_choiceRT,2021.1.2,Win32,60.01680471,,,,,,,,10,Fast,j,1,1.6328,8,2,34,3,1,,,,,
,0.46,,,,,,,,,h.PNG,h,6111c4865701e1ba367af3e3,2021-09-08_21h03.43.831,forced_choiceRT,2021.1.2,Win32,60.01680471,,,,,,,,10,Ontime,g,0,1.956,8,3,35,2,1,,,,,
,1.33,,,,,,,,,g.PNG,g,6111c4865701e1ba367af3e3,2021-09-08_21h03.43.831,forced_choiceRT,2021.1.2,Win32,60.01680471,,,,,,,,10,Fast,j,0,1.7577,9,0,36,1,1,,,,,
,1.38,,,,,,,,,f.PNG,f,6111c4865701e1ba367af3e3,2021-09-08_21h03.43.831,forced_choiceRT,2021.1.2,Win32,60.01680471,,,,,,,,10,Fast,j,0,0.3672,9,1,37,0,1,,,,,
,0.27,,,,,,,,,h.PNG,h,6111c4865701e1ba367af3e3,2021-09-08_21h03.43.831,forced_choiceRT,2021.1.2,Win32,60.01680471,,,,,,,,10,Fast,f,0,1.801,9,2,38,2,1,,,,,
,0.08,,,,,,,,,f.PNG,f,6111c4865701e1ba367af3e3,2021-09-08_21h03.43.831,forced_choiceRT,2021.1.2,Win32,60.01680471,,,,,,,,10,Slow,f,1,3.1675,9,3,39,0,1,,,,,
,,,,,,,,,,,,6111c4865701e1ba367af3e3,2021-09-08_21h03.43.831,forced_choiceRT,2021.1.2,Win32,60.01680471,,,,,,,,,,,,,,,,,,9,0,9,0,1
