IP_Addresss,target_onset,trial_resp_sp.keys,trial_resp_sp.corr,trial_resp_sp.rt,trials_train_loop.thisRepN,trials_train_loop.thisTrialN,trials_train_loop.thisN,trials_train_loop.thisIndex,trials_train_loop.ran,pic,correct_key,participant,date,expName,psychopyVersion,OS,frameRate,trial_resp_timing.keys,trial_resp_timing.rt,trials_train_timing.thisRepN,trials_train_timing.thisTrialN,trials_train_timing.thisN,trials_train_timing.thisIndex,trials_train_timing.ran,block_id,ontime,forcedRT_resp.keys,forcedRT_resp.corr,forcedRT_resp.rt,trials.thisRepN,trials.thisTrialN,trials.thisN,trials.thisIndex,trials.ran,blocks.thisRepN,blocks.thisTrialN,blocks.thisN,blocks.thisIndex,blocks.ran
24.167.11.66,0,j,1,185.7071,0,0,0,3,1,j.PNG,j,61140d2c5d85c524932a2c59,2021-09-09_09h55.01.042,forced_choiceRT,2021.1.2,MacIntel,60.0024001,,,,,,,,,,,,,,,,,,,,,,
,0,f,1,1.2809,0,1,1,0,1,f.PNG,f,61140d2c5d85c524932a2c59,2021-09-09_09h55.01.042,forced_choiceRT,2021.1.2,MacIntel,60.0024001,,,,,,,,,,,,,,,,,,,,,,
,0,f,1,0.5684,0,2,2,0,1,f.PNG,f,61140d2c5d85c524932a2c59,2021-09-09_09h55.01.042,forced_choiceRT,2021.1.2,MacIntel,60.0024001,,,,,,,,,,,,,,,,,,,,,,
,0,g,1,0.6332,0,3,3,1,1,g.PNG,g,61140d2c5d85c524932a2c59,2021-09-09_09h55.01.042,forced_choiceRT,2021.1.2,MacIntel,60.0024001,,,,,,,,,,,,,,,,,,,,,,
,0,h,1,0.4995,1,0,4,2,1,h.PNG,h,61140d2c5d85c524932a2c59,2021-09-09_09h55.01.042,forced_choiceRT,2021.1.2,MacIntel,60.0024001,,,,,,,,,,,,,,,,,,,,,,
,0,j,1,0.5664,1,1,5,3,1,j.PNG,j,61140d2c5d85c524932a2c59,2021-09-09_09h55.01.042,forced_choiceRT,2021.1.2,MacIntel,60.0024001,,,,,,,,,,,,,,,,,,,,,,
,0,h,1,0.6537,1,2,6,2,1,h.PNG,h,61140d2c5d85c524932a2c59,2021-09-09_09h55.01.042,forced_choiceRT,2021.1.2,MacIntel,60.0024001,,,,,,,,,,,,,,,,,,,,,,
,0,g,1,0.5981,1,3,7,1,1,g.PNG,g,61140d2c5d85c524932a2c59,2021-09-09_09h55.01.042,forced_choiceRT,2021.1.2,MacIntel,60.0024001,,,,,,,,,,,,,,,,,,,,,,
,0,f,1,0.4834,2,0,8,0,1,f.PNG,f,61140d2c5d85c524932a2c59,2021-09-09_09h55.01.042,forced_choiceRT,2021.1.2,MacIntel,60.0024001,,,,,,,,,,,,,,,,,,,,,,
,0,f,1,0.6183,2,1,9,0,1,f.PNG,f,61140d2c5d85c524932a2c59,2021-09-09_09h55.01.042,forced_choiceRT,2021.1.2,MacIntel,60.0024001,,,,,,,,,,,,,,,,,,,,,,
,0,j,1,0.8871,2,2,10,3,1,j.PNG,j,61140d2c5d85c524932a2c59,2021-09-09_09h55.01.042,forced_choiceRT,2021.1.2,MacIntel,60.0024001,,,,,,,,,,,,,,,,,,,,,,
,0,h,1,0.7731,2,3,11,2,1,h.PNG,h,61140d2c5d85c524932a2c59,2021-09-09_09h55.01.042,forced_choiceRT,2021.1.2,MacIntel,60.0024001,,,,,,,,,,,,,,,,,,,,,,
,0,h,1,0.6156,3,0,12,2,1,h.PNG,h,61140d2c5d85c524932a2c59,2021-09-09_09h55.01.042,forced_choiceRT,2021.1.2,MacIntel,60.0024001,,,,,,,,,,,,,,,,,,,,,,
,0,g,1,0.6569,3,1,13,1,1,g.PNG,g,61140d2c5d85c524932a2c59,2021-09-09_09h55.01.042,forced_choiceRT,2021.1.2,MacIntel,60.0024001,,,,,,,,,,,,,,,,,,,,,,
,0,g,1,0.6506,3,2,14,1,1,g.PNG,g,61140d2c5d85c524932a2c59,2021-09-09_09h55.01.042,forced_choiceRT,2021.1.2,MacIntel,60.0024001,,,,,,,,,,,,,,,,,,,,,,
,0,f,1,0.6333,3,3,15,0,1,f.PNG,f,61140d2c5d85c524932a2c59,2021-09-09_09h55.01.042,forced_choiceRT,2021.1.2,MacIntel,60.0024001,,,,,,,,,,,,,,,,,,,,,,
,0,h,1,1.202,4,0,16,2,1,h.PNG,h,61140d2c5d85c524932a2c59,2021-09-09_09h55.01.042,forced_choiceRT,2021.1.2,MacIntel,60.0024001,,,,,,,,,,,,,,,,,,,,,,
,0,g,1,0.8364,4,1,17,1,1,g.PNG,g,61140d2c5d85c524932a2c59,2021-09-09_09h55.01.042,forced_choiceRT,2021.1.2,MacIntel,60.0024001,,,,,,,,,,,,,,,,,,,,,,
,0,j,1,1.4687,4,2,18,3,1,j.PNG,j,61140d2c5d85c524932a2c59,2021-09-09_09h55.01.042,forced_choiceRT,2021.1.2,MacIntel,60.0024001,,,,,,,,,,,,,,,,,,,,,,
,0,g,1,1.4204,4,3,19,1,1,g.PNG,g,61140d2c5d85c524932a2c59,2021-09-09_09h55.01.042,forced_choiceRT,2021.1.2,MacIntel,60.0024001,,,,,,,,,,,,,,,,,,,,,,
,0,g,1,0.668,5,0,20,1,1,g.PNG,g,61140d2c5d85c524932a2c59,2021-09-09_09h55.01.042,forced_choiceRT,2021.1.2,MacIntel,60.0024001,,,,,,,,,,,,,,,,,,,,,,
,0,h,1,0.8311,5,1,21,2,1,h.PNG,h,61140d2c5d85c524932a2c59,2021-09-09_09h55.01.042,forced_choiceRT,2021.1.2,MacIntel,60.0024001,,,,,,,,,,,,,,,,,,,,,,
,0,j,1,0.6214,5,2,22,3,1,j.PNG,j,61140d2c5d85c524932a2c59,2021-09-09_09h55.01.042,forced_choiceRT,2021.1.2,MacIntel,60.0024001,,,,,,,,,,,,,,,,,,,,,,
,0,h,1,0.6998,5,3,23,2,1,h.PNG,h,61140d2c5d85c524932a2c59,2021-09-09_09h55.01.042,forced_choiceRT,2021.1.2,MacIntel,60.0024001,,,,,,,,,,,,,,,,,,,,,,
,0,f,1,0.603,6,0,24,0,1,f.PNG,f,61140d2c5d85c524932a2c59,2021-09-09_09h55.01.042,forced_choiceRT,2021.1.2,MacIntel,60.0024001,,,,,,,,,,,,,,,,,,,,,,
,0,g,1,0.7841,6,1,25,1,1,g.PNG,g,61140d2c5d85c524932a2c59,2021-09-09_09h55.01.042,forced_choiceRT,2021.1.2,MacIntel,60.0024001,,,,,,,,,,,,,,,,,,,,,,
,0,h,1,0.7353,6,2,26,2,1,h.PNG,h,61140d2c5d85c524932a2c59,2021-09-09_09h55.01.042,forced_choiceRT,2021.1.2,MacIntel,60.0024001,,,,,,,,,,,,,,,,,,,,,,
,0,h,1,0.6513,6,3,27,2,1,h.PNG,h,61140d2c5d85c524932a2c59,2021-09-09_09h55.01.042,forced_choiceRT,2021.1.2,MacIntel,60.0024001,,,,,,,,,,,,,,,,,,,,,,
,0,j,1,0.6349,7,0,28,3,1,j.PNG,j,61140d2c5d85c524932a2c59,2021-09-09_09h55.01.042,forced_choiceRT,2021.1.2,MacIntel,60.0024001,,,,,,,,,,,,,,,,,,,,,,
,0,f,1,0.6585,7,1,29,0,1,f.PNG,f,61140d2c5d85c524932a2c59,2021-09-09_09h55.01.042,forced_choiceRT,2021.1.2,MacIntel,60.0024001,,,,,,,,,,,,,,,,,,,,,,
,0,j,1,0.9864,7,2,30,3,1,j.PNG,j,61140d2c5d85c524932a2c59,2021-09-09_09h55.01.042,forced_choiceRT,2021.1.2,MacIntel,60.0024001,,,,,,,,,,,,,,,,,,,,,,
,0,j,1,129.3031,7,3,31,3,1,j.PNG,j,61140d2c5d85c524932a2c59,2021-09-09_09h55.01.042,forced_choiceRT,2021.1.2,MacIntel,60.0024001,,,,,,,,,,,,,,,,,,,,,,
,0,h,1,0.8,8,0,32,2,1,h.PNG,h,61140d2c5d85c524932a2c59,2021-09-09_09h55.01.042,forced_choiceRT,2021.1.2,MacIntel,60.0024001,,,,,,,,,,,,,,,,,,,,,,
,0,h,1,0.6014,8,1,33,2,1,h.PNG,h,61140d2c5d85c524932a2c59,2021-09-09_09h55.01.042,forced_choiceRT,2021.1.2,MacIntel,60.0024001,,,,,,,,,,,,,,,,,,,,,,
,0,j,1,0.6671,8,2,34,3,1,j.PNG,j,61140d2c5d85c524932a2c59,2021-09-09_09h55.01.042,forced_choiceRT,2021.1.2,MacIntel,60.0024001,,,,,,,,,,,,,,,,,,,,,,
,0,f,0,0.7185,8,3,35,1,1,g.PNG,g,61140d2c5d85c524932a2c59,2021-09-09_09h55.01.042,forced_choiceRT,2021.1.2,MacIntel,60.0024001,,,,,,,,,,,,,,,,,,,,,,
,0,g,1,1.7503,9,0,36,1,1,g.PNG,g,61140d2c5d85c524932a2c59,2021-09-09_09h55.01.042,forced_choiceRT,2021.1.2,MacIntel,60.0024001,,,,,,,,,,,,,,,,,,,,,,
,0,j,1,0.6006,9,1,37,3,1,j.PNG,j,61140d2c5d85c524932a2c59,2021-09-09_09h55.01.042,forced_choiceRT,2021.1.2,MacIntel,60.0024001,,,,,,,,,,,,,,,,,,,,,,
,0,f,1,0.6154,9,2,38,0,1,f.PNG,f,61140d2c5d85c524932a2c59,2021-09-09_09h55.01.042,forced_choiceRT,2021.1.2,MacIntel,60.0024001,,,,,,,,,,,,,,,,,,,,,,
,0,h,1,0.603,9,3,39,2,1,h.PNG,h,61140d2c5d85c524932a2c59,2021-09-09_09h55.01.042,forced_choiceRT,2021.1.2,MacIntel,60.0024001,,,,,,,,,,,,,,,,,,,,,,
,0,j,1,0.6007,10,0,40,3,1,j.PNG,j,61140d2c5d85c524932a2c59,2021-09-09_09h55.01.042,forced_choiceRT,2021.1.2,MacIntel,60.0024001,,,,,,,,,,,,,,,,,,,,,,
,0,f,1,0.6015,10,1,41,0,1,f.PNG,f,61140d2c5d85c524932a2c59,2021-09-09_09h55.01.042,forced_choiceRT,2021.1.2,MacIntel,60.0024001,,,,,,,,,,,,,,,,,,,,,,
,0,f,1,0.5337,10,2,42,0,1,f.PNG,f,61140d2c5d85c524932a2c59,2021-09-09_09h55.01.042,forced_choiceRT,2021.1.2,MacIntel,60.0024001,,,,,,,,,,,,,,,,,,,,,,
,0,j,1,0.6549,10,3,43,3,1,j.PNG,j,61140d2c5d85c524932a2c59,2021-09-09_09h55.01.042,forced_choiceRT,2021.1.2,MacIntel,60.0024001,,,,,,,,,,,,,,,,,,,,,,
,0,f,1,0.6995,11,0,44,0,1,f.PNG,f,61140d2c5d85c524932a2c59,2021-09-09_09h55.01.042,forced_choiceRT,2021.1.2,MacIntel,60.0024001,,,,,,,,,,,,,,,,,,,,,,
,0,j,1,0.6212,11,1,45,3,1,j.PNG,j,61140d2c5d85c524932a2c59,2021-09-09_09h55.01.042,forced_choiceRT,2021.1.2,MacIntel,60.0024001,,,,,,,,,,,,,,,,,,,,,,
,0,h,1,0.667,11,2,46,2,1,h.PNG,h,61140d2c5d85c524932a2c59,2021-09-09_09h55.01.042,forced_choiceRT,2021.1.2,MacIntel,60.0024001,,,,,,,,,,,,,,,,,,,,,,
,0,g,1,0.6188,11,3,47,1,1,g.PNG,g,61140d2c5d85c524932a2c59,2021-09-09_09h55.01.042,forced_choiceRT,2021.1.2,MacIntel,60.0024001,,,,,,,,,,,,,,,,,,,,,,
,0,f,1,0.583,12,0,48,0,1,f.PNG,f,61140d2c5d85c524932a2c59,2021-09-09_09h55.01.042,forced_choiceRT,2021.1.2,MacIntel,60.0024001,,,,,,,,,,,,,,,,,,,,,,
,0,f,1,0.648,12,1,49,0,1,f.PNG,f,61140d2c5d85c524932a2c59,2021-09-09_09h55.01.042,forced_choiceRT,2021.1.2,MacIntel,60.0024001,,,,,,,,,,,,,,,,,,,,,,
,0,g,1,0.6658,12,2,50,1,1,g.PNG,g,61140d2c5d85c524932a2c59,2021-09-09_09h55.01.042,forced_choiceRT,2021.1.2,MacIntel,60.0024001,,,,,,,,,,,,,,,,,,,,,,
,0,h,1,0.6766,12,3,51,2,1,h.PNG,h,61140d2c5d85c524932a2c59,2021-09-09_09h55.01.042,forced_choiceRT,2021.1.2,MacIntel,60.0024001,,,,,,,,,,,,,,,,,,,,,,
,0,j,1,0.6017,13,0,52,3,1,j.PNG,j,61140d2c5d85c524932a2c59,2021-09-09_09h55.01.042,forced_choiceRT,2021.1.2,MacIntel,60.0024001,,,,,,,,,,,,,,,,,,,,,,
,0,f,1,0.5503,13,1,53,0,1,f.PNG,f,61140d2c5d85c524932a2c59,2021-09-09_09h55.01.042,forced_choiceRT,2021.1.2,MacIntel,60.0024001,,,,,,,,,,,,,,,,,,,,,,
,0,h,1,0.6983,13,2,54,2,1,h.PNG,h,61140d2c5d85c524932a2c59,2021-09-09_09h55.01.042,forced_choiceRT,2021.1.2,MacIntel,60.0024001,,,,,,,,,,,,,,,,,,,,,,
,0,f,1,0.5762,13,3,55,0,1,f.PNG,f,61140d2c5d85c524932a2c59,2021-09-09_09h55.01.042,forced_choiceRT,2021.1.2,MacIntel,60.0024001,,,,,,,,,,,,,,,,,,,,,,
,0,j,1,0.5844,14,0,56,3,1,j.PNG,j,61140d2c5d85c524932a2c59,2021-09-09_09h55.01.042,forced_choiceRT,2021.1.2,MacIntel,60.0024001,,,,,,,,,,,,,,,,,,,,,,
,0,g,1,0.8159,14,1,57,1,1,g.PNG,g,61140d2c5d85c524932a2c59,2021-09-09_09h55.01.042,forced_choiceRT,2021.1.2,MacIntel,60.0024001,,,,,,,,,,,,,,,,,,,,,,
,0,g,1,0.4848,14,2,58,1,1,g.PNG,g,61140d2c5d85c524932a2c59,2021-09-09_09h55.01.042,forced_choiceRT,2021.1.2,MacIntel,60.0024001,,,,,,,,,,,,,,,,,,,,,,
,0,g,1,0.5841,14,3,59,1,1,g.PNG,g,61140d2c5d85c524932a2c59,2021-09-09_09h55.01.042,forced_choiceRT,2021.1.2,MacIntel,60.0024001,,,,,,,,,,,,,,,,,,,,,,
,,,,,,,,,,,,61140d2c5d85c524932a2c59,2021-09-09_09h55.01.042,forced_choiceRT,2021.1.2,MacIntel,60.0024001,h,1.947,0,0,0,0,1,,,,,,,,,,,,,,,
,,,,,,,,,,,,61140d2c5d85c524932a2c59,2021-09-09_09h55.01.042,forced_choiceRT,2021.1.2,MacIntel,60.0024001,h,2.0908,1,0,1,0,1,,,,,,,,,,,,,,,
,,,,,,,,,,,,61140d2c5d85c524932a2c59,2021-09-09_09h55.01.042,forced_choiceRT,2021.1.2,MacIntel,60.0024001,h,2.0934,2,0,2,0,1,,,,,,,,,,,,,,,
,,,,,,,,,,,,61140d2c5d85c524932a2c59,2021-09-09_09h55.01.042,forced_choiceRT,2021.1.2,MacIntel,60.0024001,h,2.0754,3,0,3,0,1,,,,,,,,,,,,,,,
,,,,,,,,,,,,61140d2c5d85c524932a2c59,2021-09-09_09h55.01.042,forced_choiceRT,2021.1.2,MacIntel,60.0024001,h,2.0997,4,0,4,0,1,,,,,,,,,,,,,,,
,,,,,,,,,,,,61140d2c5d85c524932a2c59,2021-09-09_09h55.01.042,forced_choiceRT,2021.1.2,MacIntel,60.0024001,h,2.0519,5,0,5,0,1,,,,,,,,,,,,,,,
,,,,,,,,,,,,61140d2c5d85c524932a2c59,2021-09-09_09h55.01.042,forced_choiceRT,2021.1.2,MacIntel,60.0024001,f,2.1664,6,0,6,0,1,,,,,,,,,,,,,,,
,,,,,,,,,,,,61140d2c5d85c524932a2c59,2021-09-09_09h55.01.042,forced_choiceRT,2021.1.2,MacIntel,60.0024001,f,2.075,7,0,7,0,1,,,,,,,,,,,,,,,
,,,,,,,,,,,,61140d2c5d85c524932a2c59,2021-09-09_09h55.01.042,forced_choiceRT,2021.1.2,MacIntel,60.0024001,f,2.0407,8,0,8,0,1,,,,,,,,,,,,,,,
,,,,,,,,,,,,61140d2c5d85c524932a2c59,2021-09-09_09h55.01.042,forced_choiceRT,2021.1.2,MacIntel,60.0024001,f,2.057,9,0,9,0,1,,,,,,,,,,,,,,,
,,,,,,,,,,,,61140d2c5d85c524932a2c59,2021-09-09_09h55.01.042,forced_choiceRT,2021.1.2,MacIntel,60.0024001,f,2.2505,10,0,10,0,1,,,,,,,,,,,,,,,
,,,,,,,,,,,,61140d2c5d85c524932a2c59,2021-09-09_09h55.01.042,forced_choiceRT,2021.1.2,MacIntel,60.0024001,f,1.9855,11,0,11,0,1,,,,,,,,,,,,,,,
,,,,,,,,,,,,61140d2c5d85c524932a2c59,2021-09-09_09h55.01.042,forced_choiceRT,2021.1.2,MacIntel,60.0024001,f,1.9693,12,0,12,0,1,,,,,,,,,,,,,,,
,,,,,,,,,,,,61140d2c5d85c524932a2c59,2021-09-09_09h55.01.042,forced_choiceRT,2021.1.2,MacIntel,60.0024001,f,2.0321,13,0,13,0,1,,,,,,,,,,,,,,,
,,,,,,,,,,,,61140d2c5d85c524932a2c59,2021-09-09_09h55.01.042,forced_choiceRT,2021.1.2,MacIntel,60.0024001,g,2.0326,14,0,14,0,1,,,,,,,,,,,,,,,
,,,,,,,,,,,,61140d2c5d85c524932a2c59,2021-09-09_09h55.01.042,forced_choiceRT,2021.1.2,MacIntel,60.0024001,h,2.0383,15,0,15,0,1,,,,,,,,,,,,,,,
,,,,,,,,,,,,61140d2c5d85c524932a2c59,2021-09-09_09h55.01.042,forced_choiceRT,2021.1.2,MacIntel,60.0024001,h,2.0741,16,0,16,0,1,,,,,,,,,,,,,,,
,,,,,,,,,,,,61140d2c5d85c524932a2c59,2021-09-09_09h55.01.042,forced_choiceRT,2021.1.2,MacIntel,60.0024001,h,2.132,17,0,17,0,1,,,,,,,,,,,,,,,
,,,,,,,,,,,,61140d2c5d85c524932a2c59,2021-09-09_09h55.01.042,forced_choiceRT,2021.1.2,MacIntel,60.0024001,h,2.1183,18,0,18,0,1,,,,,,,,,,,,,,,
,,,,,,,,,,,,61140d2c5d85c524932a2c59,2021-09-09_09h55.01.042,forced_choiceRT,2021.1.2,MacIntel,60.0024001,h,2.1253,19,0,19,0,1,,,,,,,,,,,,,,,
,0.35,,,,,,,,,f.PNG,f,61140d2c5d85c524932a2c59,2021-09-09_09h55.01.042,forced_choiceRT,2021.1.2,MacIntel,60.0024001,,,,,,,,1,Ontime,f,1,2.0051,0,0,0,0,1,,,,,
,1.04,,,,,,,,,h.PNG,h,61140d2c5d85c524932a2c59,2021-09-09_09h55.01.042,forced_choiceRT,2021.1.2,MacIntel,60.0024001,,,,,,,,1,Slow,h,1,2.1034,0,1,1,2,1,,,,,
,1.49,,,,,,,,,h.PNG,h,61140d2c5d85c524932a2c59,2021-09-09_09h55.01.042,forced_choiceRT,2021.1.2,MacIntel,60.0024001,,,,,,,,1,Slow,h,1,2.1843,0,2,2,2,1,,,,,
,0.74,,,,,,,,,g.PNG,g,61140d2c5d85c524932a2c59,2021-09-09_09h55.01.042,forced_choiceRT,2021.1.2,MacIntel,60.0024001,,,,,,,,1,Ontime,j,0,2.0308,0,3,3,1,1,,,,,
,0.11,,,,,,,,,h.PNG,h,61140d2c5d85c524932a2c59,2021-09-09_09h55.01.042,forced_choiceRT,2021.1.2,MacIntel,60.0024001,,,,,,,,1,Ontime,h,1,1.9744,1,0,4,2,1,,,,,
,1.16,,,,,,,,,j.PNG,j,61140d2c5d85c524932a2c59,2021-09-09_09h55.01.042,forced_choiceRT,2021.1.2,MacIntel,60.0024001,,,,,,,,1,Ontime,j,1,2.057,1,1,5,3,1,,,,,
,0.23,,,,,,,,,g.PNG,g,61140d2c5d85c524932a2c59,2021-09-09_09h55.01.042,forced_choiceRT,2021.1.2,MacIntel,60.0024001,,,,,,,,1,Ontime,g,1,1.9876,1,2,6,1,1,,,,,
,0.87,,,,,,,,,h.PNG,h,61140d2c5d85c524932a2c59,2021-09-09_09h55.01.042,forced_choiceRT,2021.1.2,MacIntel,60.0024001,,,,,,,,1,Ontime,h,1,1.9271,1,3,7,2,1,,,,,
,1.95,,,,,,,,,g.PNG,g,61140d2c5d85c524932a2c59,2021-09-09_09h55.01.042,forced_choiceRT,2021.1.2,MacIntel,60.0024001,,,,,,,,1,Slow,j,0,2.108,2,0,8,1,1,,,,,
,0.98,,,,,,,,,h.PNG,h,61140d2c5d85c524932a2c59,2021-09-09_09h55.01.042,forced_choiceRT,2021.1.2,MacIntel,60.0024001,,,,,,,,1,Ontime,h,1,2.0503,2,1,9,2,1,,,,,
,0.71,,,,,,,,,f.PNG,f,61140d2c5d85c524932a2c59,2021-09-09_09h55.01.042,forced_choiceRT,2021.1.2,MacIntel,60.0024001,,,,,,,,1,Ontime,f,1,2.0359,2,2,10,0,1,,,,,
,1.99,,,,,,,,,f.PNG,f,61140d2c5d85c524932a2c59,2021-09-09_09h55.01.042,forced_choiceRT,2021.1.2,MacIntel,60.0024001,,,,,,,,1,Ontime,g,0,2.0773,2,3,11,0,1,,,,,
,0.19,,,,,,,,,j.PNG,j,61140d2c5d85c524932a2c59,2021-09-09_09h55.01.042,forced_choiceRT,2021.1.2,MacIntel,60.0024001,,,,,,,,1,Ontime,j,1,1.9855,3,0,12,3,1,,,,,
,1.3,,,,,,,,,j.PNG,j,61140d2c5d85c524932a2c59,2021-09-09_09h55.01.042,forced_choiceRT,2021.1.2,MacIntel,60.0024001,,,,,,,,1,Ontime,j,1,2.0657,3,1,13,3,1,,,,,
,1.76,,,,,,,,,j.PNG,j,61140d2c5d85c524932a2c59,2021-09-09_09h55.01.042,forced_choiceRT,2021.1.2,MacIntel,60.0024001,,,,,,,,1,Ontime,j,1,2.0222,3,2,14,3,1,,,,,
,1.41,,,,,,,,,g.PNG,g,61140d2c5d85c524932a2c59,2021-09-09_09h55.01.042,forced_choiceRT,2021.1.2,MacIntel,60.0024001,,,,,,,,1,Ontime,g,1,2.0747,3,3,15,1,1,,,,,
,1.5,,,,,,,,,g.PNG,g,61140d2c5d85c524932a2c59,2021-09-09_09h55.01.042,forced_choiceRT,2021.1.2,MacIntel,60.0024001,,,,,,,,1,Ontime,g,1,2.0046,4,0,16,1,1,,,,,
,0.71,,,,,,,,,f.PNG,f,61140d2c5d85c524932a2c59,2021-09-09_09h55.01.042,forced_choiceRT,2021.1.2,MacIntel,60.0024001,,,,,,,,1,Ontime,f,1,2.0354,4,1,17,0,1,,,,,
,1.85,,,,,,,,,h.PNG,h,61140d2c5d85c524932a2c59,2021-09-09_09h55.01.042,forced_choiceRT,2021.1.2,MacIntel,60.0024001,,,,,,,,1,Ontime,g,0,2.0057,4,2,18,2,1,,,,,
,0.28,,,,,,,,,g.PNG,g,61140d2c5d85c524932a2c59,2021-09-09_09h55.01.042,forced_choiceRT,2021.1.2,MacIntel,60.0024001,,,,,,,,1,Ontime,g,1,1.9504,4,3,19,1,1,,,,,
,0.41,,,,,,,,,f.PNG,f,61140d2c5d85c524932a2c59,2021-09-09_09h55.01.042,forced_choiceRT,2021.1.2,MacIntel,60.0024001,,,,,,,,1,Ontime,f,1,1.933,5,0,20,0,1,,,,,
,1.42,,,,,,,,,f.PNG,f,61140d2c5d85c524932a2c59,2021-09-09_09h55.01.042,forced_choiceRT,2021.1.2,MacIntel,60.0024001,,,,,,,,1,Ontime,f,1,1.9995,5,1,21,0,1,,,,,
,0.99,,,,,,,,,f.PNG,f,61140d2c5d85c524932a2c59,2021-09-09_09h55.01.042,forced_choiceRT,2021.1.2,MacIntel,60.0024001,,,,,,,,1,Ontime,f,1,2.0162,5,2,22,0,1,,,,,
,0.41,,,,,,,,,f.PNG,f,61140d2c5d85c524932a2c59,2021-09-09_09h55.01.042,forced_choiceRT,2021.1.2,MacIntel,60.0024001,,,,,,,,1,Ontime,f,1,1.986,5,3,23,0,1,,,,,
,0.16,,,,,,,,,h.PNG,h,61140d2c5d85c524932a2c59,2021-09-09_09h55.01.042,forced_choiceRT,2021.1.2,MacIntel,60.0024001,,,,,,,,1,Ontime,h,1,1.9661,6,0,24,2,1,,,,,
,1.6,,,,,,,,,j.PNG,j,61140d2c5d85c524932a2c59,2021-09-09_09h55.01.042,forced_choiceRT,2021.1.2,MacIntel,60.0024001,,,,,,,,1,Slow,j,1,2.1911,6,1,25,3,1,,,,,
,1.45,,,,,,,,,g.PNG,g,61140d2c5d85c524932a2c59,2021-09-09_09h55.01.042,forced_choiceRT,2021.1.2,MacIntel,60.0024001,,,,,,,,1,Ontime,j,0,1.9834,6,2,26,1,1,,,,,
,1.13,,,,,,,,,f.PNG,f,61140d2c5d85c524932a2c59,2021-09-09_09h55.01.042,forced_choiceRT,2021.1.2,MacIntel,60.0024001,,,,,,,,1,Slow,f,1,2.1536,6,3,27,0,1,,,,,
,1.94,,,,,,,,,f.PNG,f,61140d2c5d85c524932a2c59,2021-09-09_09h55.01.042,forced_choiceRT,2021.1.2,MacIntel,60.0024001,,,,,,,,1,Fast,f,1,1.8891,7,0,28,0,1,,,,,
,0.16,,,,,,,,,j.PNG,j,61140d2c5d85c524932a2c59,2021-09-09_09h55.01.042,forced_choiceRT,2021.1.2,MacIntel,60.0024001,,,,,,,,1,Ontime,j,1,2.0025,7,1,29,3,1,,,,,
,0.13,,,,,,,,,j.PNG,j,61140d2c5d85c524932a2c59,2021-09-09_09h55.01.042,forced_choiceRT,2021.1.2,MacIntel,60.0024001,,,,,,,,1,Ontime,j,1,1.917,7,2,30,3,1,,,,,
,0.51,,,,,,,,,j.PNG,j,61140d2c5d85c524932a2c59,2021-09-09_09h55.01.042,forced_choiceRT,2021.1.2,MacIntel,60.0024001,,,,,,,,1,Ontime,j,1,1.9504,7,3,31,3,1,,,,,
,0.46,,,,,,,,,g.PNG,g,61140d2c5d85c524932a2c59,2021-09-09_09h55.01.042,forced_choiceRT,2021.1.2,MacIntel,60.0024001,,,,,,,,1,Ontime,g,1,1.9839,8,0,32,1,1,,,,,
,1.27,,,,,,,,,h.PNG,h,61140d2c5d85c524932a2c59,2021-09-09_09h55.01.042,forced_choiceRT,2021.1.2,MacIntel,60.0024001,,,,,,,,1,Ontime,h,1,1.9506,8,1,33,2,1,,,,,
,1.49,,,,,,,,,j.PNG,j,61140d2c5d85c524932a2c59,2021-09-09_09h55.01.042,forced_choiceRT,2021.1.2,MacIntel,60.0024001,,,,,,,,1,Ontime,j,1,1.951,8,2,34,3,1,,,,,
,0.47,,,,,,,,,j.PNG,j,61140d2c5d85c524932a2c59,2021-09-09_09h55.01.042,forced_choiceRT,2021.1.2,MacIntel,60.0024001,,,,,,,,1,Ontime,j,1,1.9842,8,3,35,3,1,,,,,
,1.77,,,,,,,,,g.PNG,g,61140d2c5d85c524932a2c59,2021-09-09_09h55.01.042,forced_choiceRT,2021.1.2,MacIntel,60.0024001,,,,,,,,1,Ontime,j,0,2.0159,9,0,36,1,1,,,,,
,1.5,,,,,,,,,h.PNG,h,61140d2c5d85c524932a2c59,2021-09-09_09h55.01.042,forced_choiceRT,2021.1.2,MacIntel,60.0024001,,,,,,,,1,Slow,h,1,2.1677,9,1,37,2,1,,,,,
,0.44,,,,,,,,,g.PNG,g,61140d2c5d85c524932a2c59,2021-09-09_09h55.01.042,forced_choiceRT,2021.1.2,MacIntel,60.0024001,,,,,,,,1,Ontime,g,1,1.9889,9,2,38,1,1,,,,,
,1.59,,,,,,,,,h.PNG,h,61140d2c5d85c524932a2c59,2021-09-09_09h55.01.042,forced_choiceRT,2021.1.2,MacIntel,60.0024001,,,,,,,,1,Ontime,g,0,2.0746,9,3,39,2,1,,,,,
,,,,,,,,,,,,61140d2c5d85c524932a2c59,2021-09-09_09h55.01.042,forced_choiceRT,2021.1.2,MacIntel,60.0024001,,,,,,,,,,,,,,,,,,0,0,0,0,1
,0.4,,,,,,,,,h.PNG,h,61140d2c5d85c524932a2c59,2021-09-09_09h55.01.042,forced_choiceRT,2021.1.2,MacIntel,60.0024001,,,,,,,,2,Ontime,h,1,2.0111,0,0,0,2,1,,,,,
,0.53,,,,,,,,,h.PNG,h,61140d2c5d85c524932a2c59,2021-09-09_09h55.01.042,forced_choiceRT,2021.1.2,MacIntel,60.0024001,,,,,,,,2,Ontime,h,1,2.0505,0,1,1,2,1,,,,,
,1.63,,,,,,,,,j.PNG,j,61140d2c5d85c524932a2c59,2021-09-09_09h55.01.042,forced_choiceRT,2021.1.2,MacIntel,60.0024001,,,,,,,,2,Ontime,h,0,2.0684,0,2,2,3,1,,,,,
,1.82,,,,,,,,,h.PNG,h,61140d2c5d85c524932a2c59,2021-09-09_09h55.01.042,forced_choiceRT,2021.1.2,MacIntel,60.0024001,,,,,,,,2,Ontime,g,0,2.0828,0,3,3,2,1,,,,,
,0.96,,,,,,,,,f.PNG,f,61140d2c5d85c524932a2c59,2021-09-09_09h55.01.042,forced_choiceRT,2021.1.2,MacIntel,60.0024001,,,,,,,,2,Ontime,f,1,2.0173,1,0,4,0,1,,,,,
,0.65,,,,,,,,,j.PNG,j,61140d2c5d85c524932a2c59,2021-09-09_09h55.01.042,forced_choiceRT,2021.1.2,MacIntel,60.0024001,,,,,,,,2,Ontime,j,1,1.9827,1,1,5,3,1,,,,,
,0.27,,,,,,,,,h.PNG,h,61140d2c5d85c524932a2c59,2021-09-09_09h55.01.042,forced_choiceRT,2021.1.2,MacIntel,60.0024001,,,,,,,,2,Ontime,h,1,2.0053,1,2,6,2,1,,,,,
,1.7,,,,,,,,,f.PNG,f,61140d2c5d85c524932a2c59,2021-09-09_09h55.01.042,forced_choiceRT,2021.1.2,MacIntel,60.0024001,,,,,,,,2,Ontime,j,0,2.0702,1,3,7,0,1,,,,,
,1.39,,,,,,,,,j.PNG,j,61140d2c5d85c524932a2c59,2021-09-09_09h55.01.042,forced_choiceRT,2021.1.2,MacIntel,60.0024001,,,,,,,,2,Ontime,j,1,2.0849,2,0,8,3,1,,,,,
,1.73,,,,,,,,,f.PNG,f,61140d2c5d85c524932a2c59,2021-09-09_09h55.01.042,forced_choiceRT,2021.1.2,MacIntel,60.0024001,,,,,,,,2,Slow,f,1,2.2763,2,1,9,0,1,,,,,
,1.96,,,,,,,,,f.PNG,f,61140d2c5d85c524932a2c59,2021-09-09_09h55.01.042,forced_choiceRT,2021.1.2,MacIntel,60.0024001,,,,,,,,2,Slow,f,1,2.2236,2,2,10,0,1,,,,,
,0.05,,,,,,,,,g.PNG,g,61140d2c5d85c524932a2c59,2021-09-09_09h55.01.042,forced_choiceRT,2021.1.2,MacIntel,60.0024001,,,,,,,,2,Ontime,g,1,1.975,2,3,11,1,1,,,,,
,0.67,,,,,,,,,f.PNG,f,61140d2c5d85c524932a2c59,2021-09-09_09h55.01.042,forced_choiceRT,2021.1.2,MacIntel,60.0024001,,,,,,,,2,Ontime,f,1,1.9778,3,0,12,0,1,,,,,
,1.51,,,,,,,,,f.PNG,f,61140d2c5d85c524932a2c59,2021-09-09_09h55.01.042,forced_choiceRT,2021.1.2,MacIntel,60.0024001,,,,,,,,2,Slow,f,1,2.1826,3,1,13,0,1,,,,,
,0.03,,,,,,,,,h.PNG,h,61140d2c5d85c524932a2c59,2021-09-09_09h55.01.042,forced_choiceRT,2021.1.2,MacIntel,60.0024001,,,,,,,,2,Ontime,h,1,2.0038,3,2,14,2,1,,,,,
,1.84,,,,,,,,,g.PNG,g,61140d2c5d85c524932a2c59,2021-09-09_09h55.01.042,forced_choiceRT,2021.1.2,MacIntel,60.0024001,,,,,,,,2,Ontime,j,0,1.9595,3,3,15,1,1,,,,,
,0.38,,,,,,,,,h.PNG,h,61140d2c5d85c524932a2c59,2021-09-09_09h55.01.042,forced_choiceRT,2021.1.2,MacIntel,60.0024001,,,,,,,,2,Ontime,h,1,1.983,4,0,16,2,1,,,,,
,1.35,,,,,,,,,g.PNG,g,61140d2c5d85c524932a2c59,2021-09-09_09h55.01.042,forced_choiceRT,2021.1.2,MacIntel,60.0024001,,,,,,,,2,Ontime,g,1,1.982,4,1,17,1,1,,,,,
,0.23,,,,,,,,,j.PNG,j,61140d2c5d85c524932a2c59,2021-09-09_09h55.01.042,forced_choiceRT,2021.1.2,MacIntel,60.0024001,,,,,,,,2,Ontime,j,1,2.0058,4,2,18,3,1,,,,,
,0.69,,,,,,,,,f.PNG,f,61140d2c5d85c524932a2c59,2021-09-09_09h55.01.042,forced_choiceRT,2021.1.2,MacIntel,60.0024001,,,,,,,,2,Ontime,f,1,1.9649,4,3,19,0,1,,,,,
,0.71,,,,,,,,,g.PNG,g,61140d2c5d85c524932a2c59,2021-09-09_09h55.01.042,forced_choiceRT,2021.1.2,MacIntel,60.0024001,,,,,,,,2,Ontime,g,1,2.0007,5,0,20,1,1,,,,,
,1.39,,,,,,,,,j.PNG,j,61140d2c5d85c524932a2c59,2021-09-09_09h55.01.042,forced_choiceRT,2021.1.2,MacIntel,60.0024001,,,,,,,,2,Slow,j,1,2.1086,5,1,21,3,1,,,,,
,0.02,,,,,,,,,g.PNG,g,61140d2c5d85c524932a2c59,2021-09-09_09h55.01.042,forced_choiceRT,2021.1.2,MacIntel,60.0024001,,,,,,,,2,Ontime,g,1,2.0344,5,2,22,1,1,,,,,
,1.09,,,,,,,,,h.PNG,h,61140d2c5d85c524932a2c59,2021-09-09_09h55.01.042,forced_choiceRT,2021.1.2,MacIntel,60.0024001,,,,,,,,2,Ontime,h,1,2.0685,5,3,23,2,1,,,,,
,0.98,,,,,,,,,f.PNG,f,61140d2c5d85c524932a2c59,2021-09-09_09h55.01.042,forced_choiceRT,2021.1.2,MacIntel,60.0024001,,,,,,,,2,Ontime,f,1,2.0171,6,0,24,0,1,,,,,
,0.19,,,,,,,,,h.PNG,h,61140d2c5d85c524932a2c59,2021-09-09_09h55.01.042,forced_choiceRT,2021.1.2,MacIntel,60.0024001,,,,,,,,2,Ontime,h,1,1.9429,6,1,25,2,1,,,,,
,0.71,,,,,,,,,g.PNG,g,61140d2c5d85c524932a2c59,2021-09-09_09h55.01.042,forced_choiceRT,2021.1.2,MacIntel,60.0024001,,,,,,,,2,Ontime,g,1,2.0568,6,2,26,1,1,,,,,
,1.47,,,,,,,,,j.PNG,j,61140d2c5d85c524932a2c59,2021-09-09_09h55.01.042,forced_choiceRT,2021.1.2,MacIntel,60.0024001,,,,,,,,2,Ontime,j,1,2.0018,6,3,27,3,1,,,,,
,0.08,,,,,,,,,j.PNG,j,61140d2c5d85c524932a2c59,2021-09-09_09h55.01.042,forced_choiceRT,2021.1.2,MacIntel,60.0024001,,,,,,,,2,Ontime,j,1,2.0333,7,0,28,3,1,,,,,
,0.82,,,,,,,,,g.PNG,g,61140d2c5d85c524932a2c59,2021-09-09_09h55.01.042,forced_choiceRT,2021.1.2,MacIntel,60.0024001,,,,,,,,2,Fast,j,0,1.8059,7,1,29,1,1,,,,,
,0.89,,,,,,,,,f.PNG,f,61140d2c5d85c524932a2c59,2021-09-09_09h55.01.042,forced_choiceRT,2021.1.2,MacIntel,60.0024001,,,,,,,,2,Ontime,f,1,2.0515,7,2,30,0,1,,,,,
,1.59,,,,,,,,,j.PNG,j,61140d2c5d85c524932a2c59,2021-09-09_09h55.01.042,forced_choiceRT,2021.1.2,MacIntel,60.0024001,,,,,,,,2,Slow,j,1,2.166,7,3,31,3,1,,,,,
,1.07,,,,,,,,,j.PNG,j,61140d2c5d85c524932a2c59,2021-09-09_09h55.01.042,forced_choiceRT,2021.1.2,MacIntel,60.0024001,,,,,,,,2,Ontime,j,1,2.0241,8,0,32,3,1,,,,,
,1.15,,,,,,,,,f.PNG,f,61140d2c5d85c524932a2c59,2021-09-09_09h55.01.042,forced_choiceRT,2021.1.2,MacIntel,60.0024001,,,,,,,,2,Slow,f,1,2.1013,8,1,33,0,1,,,,,
,1.02,,,,,,,,,j.PNG,j,61140d2c5d85c524932a2c59,2021-09-09_09h55.01.042,forced_choiceRT,2021.1.2,MacIntel,60.0024001,,,,,,,,2,Ontime,j,1,2.0745,8,2,34,3,1,,,,,
,1.38,,,,,,,,,g.PNG,g,61140d2c5d85c524932a2c59,2021-09-09_09h55.01.042,forced_choiceRT,2021.1.2,MacIntel,60.0024001,,,,,,,,2,Ontime,g,1,2.0403,8,3,35,1,1,,,,,
,0.55,,,,,,,,,h.PNG,h,61140d2c5d85c524932a2c59,2021-09-09_09h55.01.042,forced_choiceRT,2021.1.2,MacIntel,60.0024001,,,,,,,,2,Ontime,h,1,2.051,9,0,36,2,1,,,,,
,0.74,,,,,,,,,g.PNG,g,61140d2c5d85c524932a2c59,2021-09-09_09h55.01.042,forced_choiceRT,2021.1.2,MacIntel,60.0024001,,,,,,,,2,Ontime,g,1,2.0001,9,1,37,1,1,,,,,
,1.51,,,,,,,,,h.PNG,h,61140d2c5d85c524932a2c59,2021-09-09_09h55.01.042,forced_choiceRT,2021.1.2,MacIntel,60.0024001,,,,,,,,2,Ontime,g,0,2.0672,9,2,38,2,1,,,,,
,0.13,,,,,,,,,g.PNG,g,61140d2c5d85c524932a2c59,2021-09-09_09h55.01.042,forced_choiceRT,2021.1.2,MacIntel,60.0024001,,,,,,,,2,Ontime,g,1,2.0499,9,3,39,1,1,,,,,
,,,,,,,,,,,,61140d2c5d85c524932a2c59,2021-09-09_09h55.01.042,forced_choiceRT,2021.1.2,MacIntel,60.0024001,,,,,,,,,,,,,,,,,,1,0,1,0,1
,0.82,,,,,,,,,j.PNG,j,61140d2c5d85c524932a2c59,2021-09-09_09h55.01.042,forced_choiceRT,2021.1.2,MacIntel,60.0024001,,,,,,,,3,Ontime,j,1,2.0446,0,0,0,3,1,,,,,
,1.28,,,,,,,,,f.PNG,f,61140d2c5d85c524932a2c59,2021-09-09_09h55.01.042,forced_choiceRT,2021.1.2,MacIntel,60.0024001,,,,,,,,3,Slow,f,1,2.1378,0,1,1,0,1,,,,,
,0.09,,,,,,,,,h.PNG,h,61140d2c5d85c524932a2c59,2021-09-09_09h55.01.042,forced_choiceRT,2021.1.2,MacIntel,60.0024001,,,,,,,,3,Slow,h,1,2.1024,0,2,2,2,1,,,,,
,0.72,,,,,,,,,f.PNG,f,61140d2c5d85c524932a2c59,2021-09-09_09h55.01.042,forced_choiceRT,2021.1.2,MacIntel,60.0024001,,,,,,,,3,Ontime,f,1,2.081,0,3,3,0,1,,,,,
,1.94,,,,,,,,,h.PNG,h,61140d2c5d85c524932a2c59,2021-09-09_09h55.01.042,forced_choiceRT,2021.1.2,MacIntel,60.0024001,,,,,,,,3,Slow,j,0,2.2895,1,0,4,2,1,,,,,
,1.64,,,,,,,,,h.PNG,h,61140d2c5d85c524932a2c59,2021-09-09_09h55.01.042,forced_choiceRT,2021.1.2,MacIntel,60.0024001,,,,,,,,3,Slow,h,1,2.1244,1,1,5,2,1,,,,,
,1.74,,,,,,,,,g.PNG,g,61140d2c5d85c524932a2c59,2021-09-09_09h55.01.042,forced_choiceRT,2021.1.2,MacIntel,60.0024001,,,,,,,,3,Ontime,h,0,1.9653,1,2,6,1,1,,,,,
,0.14,,,,,,,,,h.PNG,h,61140d2c5d85c524932a2c59,2021-09-09_09h55.01.042,forced_choiceRT,2021.1.2,MacIntel,60.0024001,,,,,,,,3,Ontime,h,1,2.0491,1,3,7,2,1,,,,,
,0.62,,,,,,,,,f.PNG,f,61140d2c5d85c524932a2c59,2021-09-09_09h55.01.042,forced_choiceRT,2021.1.2,MacIntel,60.0024001,,,,,,,,3,Ontime,f,1,2.0236,2,0,8,0,1,,,,,
,1.55,,,,,,,,,h.PNG,h,61140d2c5d85c524932a2c59,2021-09-09_09h55.01.042,forced_choiceRT,2021.1.2,MacIntel,60.0024001,,,,,,,,3,Ontime,g,0,2.0518,2,1,9,2,1,,,,,
,0.67,,,,,,,,,g.PNG,g,61140d2c5d85c524932a2c59,2021-09-09_09h55.01.042,forced_choiceRT,2021.1.2,MacIntel,60.0024001,,,,,,,,3,Slow,g,1,2.101,2,2,10,1,1,,,,,
,0.16,,,,,,,,,g.PNG,g,61140d2c5d85c524932a2c59,2021-09-09_09h55.01.042,forced_choiceRT,2021.1.2,MacIntel,60.0024001,,,,,,,,3,Ontime,g,1,2.0348,2,3,11,1,1,,,,,
,1.95,,,,,,,,,j.PNG,j,61140d2c5d85c524932a2c59,2021-09-09_09h55.01.042,forced_choiceRT,2021.1.2,MacIntel,60.0024001,,,,,,,,3,Ontime,h,0,2.0044,3,0,12,3,1,,,,,
,1.02,,,,,,,,,f.PNG,f,61140d2c5d85c524932a2c59,2021-09-09_09h55.01.042,forced_choiceRT,2021.1.2,MacIntel,60.0024001,,,,,,,,3,Ontime,f,1,1.987,3,1,13,0,1,,,,,
,0.83,,,,,,,,,g.PNG,g,61140d2c5d85c524932a2c59,2021-09-09_09h55.01.042,forced_choiceRT,2021.1.2,MacIntel,60.0024001,,,,,,,,3,Ontime,g,1,2.069,3,2,14,1,1,,,,,
,1.13,,,,,,,,,j.PNG,j,61140d2c5d85c524932a2c59,2021-09-09_09h55.01.042,forced_choiceRT,2021.1.2,MacIntel,60.0024001,,,,,,,,3,Ontime,j,1,2.0342,3,3,15,3,1,,,,,
,1.93,,,,,,,,,j.PNG,j,61140d2c5d85c524932a2c59,2021-09-09_09h55.01.042,forced_choiceRT,2021.1.2,MacIntel,60.0024001,,,,,,,,3,Ontime,f,0,2.0495,4,0,16,3,1,,,,,
,1.16,,,,,,,,,g.PNG,g,61140d2c5d85c524932a2c59,2021-09-09_09h55.01.042,forced_choiceRT,2021.1.2,MacIntel,60.0024001,,,,,,,,3,Slow,g,1,2.2832,4,1,17,1,1,,,,,
,1.56,,,,,,,,,h.PNG,h,61140d2c5d85c524932a2c59,2021-09-09_09h55.01.042,forced_choiceRT,2021.1.2,MacIntel,60.0024001,,,,,,,,3,Ontime,g,0,1.9954,4,2,18,2,1,,,,,
,1.32,,,,,,,,,h.PNG,h,61140d2c5d85c524932a2c59,2021-09-09_09h55.01.042,forced_choiceRT,2021.1.2,MacIntel,60.0024001,,,,,,,,3,Ontime,g,0,2.0007,4,3,19,2,1,,,,,
,1.52,,,,,,,,,f.PNG,f,61140d2c5d85c524932a2c59,2021-09-09_09h55.01.042,forced_choiceRT,2021.1.2,MacIntel,60.0024001,,,,,,,,3,Ontime,h,0,1.9832,5,0,20,0,1,,,,,
,0.31,,,,,,,,,g.PNG,g,61140d2c5d85c524932a2c59,2021-09-09_09h55.01.042,forced_choiceRT,2021.1.2,MacIntel,60.0024001,,,,,,,,3,Ontime,g,1,2.0073,5,1,21,1,1,,,,,
,0.59,,,,,,,,,j.PNG,j,61140d2c5d85c524932a2c59,2021-09-09_09h55.01.042,forced_choiceRT,2021.1.2,MacIntel,60.0024001,,,,,,,,3,Slow,j,1,2.1007,5,2,22,3,1,,,,,
,0.6,,,,,,,,,j.PNG,j,61140d2c5d85c524932a2c59,2021-09-09_09h55.01.042,forced_choiceRT,2021.1.2,MacIntel,60.0024001,,,,,,,,3,Slow,j,1,2.121,5,3,23,3,1,,,,,
,1.88,,,,,,,,,g.PNG,g,61140d2c5d85c524932a2c59,2021-09-09_09h55.01.042,forced_choiceRT,2021.1.2,MacIntel,60.0024001,,,,,,,,3,Slow,j,0,2.1018,6,0,24,1,1,,,,,
,1.13,,,,,,,,,g.PNG,g,61140d2c5d85c524932a2c59,2021-09-09_09h55.01.042,forced_choiceRT,2021.1.2,MacIntel,60.0024001,,,,,,,,3,Ontime,g,1,2.0522,6,1,25,1,1,,,,,
,0.59,,,,,,,,,h.PNG,h,61140d2c5d85c524932a2c59,2021-09-09_09h55.01.042,forced_choiceRT,2021.1.2,MacIntel,60.0024001,,,,,,,,3,Slow,h,1,2.1182,6,2,26,2,1,,,,,
,0.43,,,,,,,,,j.PNG,j,61140d2c5d85c524932a2c59,2021-09-09_09h55.01.042,forced_choiceRT,2021.1.2,MacIntel,60.0024001,,,,,,,,3,Ontime,j,1,2.0354,6,3,27,3,1,,,,,
,1.96,,,,,,,,,f.PNG,f,61140d2c5d85c524932a2c59,2021-09-09_09h55.01.042,forced_choiceRT,2021.1.2,MacIntel,60.0024001,,,,,,,,3,Ontime,j,0,2.0349,7,0,28,0,1,,,,,
,0.26,,,,,,,,,g.PNG,g,61140d2c5d85c524932a2c59,2021-09-09_09h55.01.042,forced_choiceRT,2021.1.2,MacIntel,60.0024001,,,,,,,,3,Ontime,g,1,2.0174,7,1,29,1,1,,,,,
,0.17,,,,,,,,,h.PNG,h,61140d2c5d85c524932a2c59,2021-09-09_09h55.01.042,forced_choiceRT,2021.1.2,MacIntel,60.0024001,,,,,,,,3,Slow,h,1,2.1023,7,2,30,2,1,,,,,
,1.76,,,,,,,,,f.PNG,f,61140d2c5d85c524932a2c59,2021-09-09_09h55.01.042,forced_choiceRT,2021.1.2,MacIntel,60.0024001,,,,,,,,3,Ontime,h,0,2.0024,7,3,31,0,1,,,,,
,0.58,,,,,,,,,g.PNG,g,61140d2c5d85c524932a2c59,2021-09-09_09h55.01.042,forced_choiceRT,2021.1.2,MacIntel,60.0024001,,,,,,,,3,Ontime,j,0,2.0842,8,0,32,1,1,,,,,
,0.45,,,,,,,,,f.PNG,f,61140d2c5d85c524932a2c59,2021-09-09_09h55.01.042,forced_choiceRT,2021.1.2,MacIntel,60.0024001,,,,,,,,3,Ontime,f,1,2.0677,8,1,33,0,1,,,,,
,0.13,,,,,,,,,h.PNG,h,61140d2c5d85c524932a2c59,2021-09-09_09h55.01.042,forced_choiceRT,2021.1.2,MacIntel,60.0024001,,,,,,,,3,Ontime,h,1,2.084,8,2,34,2,1,,,,,
,0.7,,,,,,,,,j.PNG,j,61140d2c5d85c524932a2c59,2021-09-09_09h55.01.042,forced_choiceRT,2021.1.2,MacIntel,60.0024001,,,,,,,,3,Slow,j,1,2.2215,8,3,35,3,1,,,,,
,1,,,,,,,,,f.PNG,f,61140d2c5d85c524932a2c59,2021-09-09_09h55.01.042,forced_choiceRT,2021.1.2,MacIntel,60.0024001,,,,,,,,3,Ontime,f,1,2.0848,9,0,36,0,1,,,,,
,0.45,,,,,,,,,j.PNG,j,61140d2c5d85c524932a2c59,2021-09-09_09h55.01.042,forced_choiceRT,2021.1.2,MacIntel,60.0024001,,,,,,,,3,Ontime,j,1,2.0227,9,1,37,3,1,,,,,
,1.82,,,,,,,,,j.PNG,j,61140d2c5d85c524932a2c59,2021-09-09_09h55.01.042,forced_choiceRT,2021.1.2,MacIntel,60.0024001,,,,,,,,3,Ontime,j,1,2.0683,9,2,38,3,1,,,,,
,1.02,,,,,,,,,f.PNG,f,61140d2c5d85c524932a2c59,2021-09-09_09h55.01.042,forced_choiceRT,2021.1.2,MacIntel,60.0024001,,,,,,,,3,Ontime,f,1,2.0232,9,3,39,0,1,,,,,
,,,,,,,,,,,,61140d2c5d85c524932a2c59,2021-09-09_09h55.01.042,forced_choiceRT,2021.1.2,MacIntel,60.0024001,,,,,,,,,,,,,,,,,,2,0,2,0,1
,1.63,,,,,,,,,j.PNG,j,61140d2c5d85c524932a2c59,2021-09-09_09h55.01.042,forced_choiceRT,2021.1.2,MacIntel,60.0024001,,,,,,,,4,Ontime,f,0,1.9261,0,0,0,3,1,,,,,
,0.93,,,,,,,,,g.PNG,g,61140d2c5d85c524932a2c59,2021-09-09_09h55.01.042,forced_choiceRT,2021.1.2,MacIntel,60.0024001,,,,,,,,4,Ontime,j,0,1.9839,0,1,1,1,1,,,,,
,1.77,,,,,,,,,g.PNG,g,61140d2c5d85c524932a2c59,2021-09-09_09h55.01.042,forced_choiceRT,2021.1.2,MacIntel,60.0024001,,,,,,,,4,Ontime,f,0,2.0522,0,2,2,1,1,,,,,
,1.41,,,,,,,,,h.PNG,h,61140d2c5d85c524932a2c59,2021-09-09_09h55.01.042,forced_choiceRT,2021.1.2,MacIntel,60.0024001,,,,,,,,4,Slow,h,1,2.1323,0,3,3,2,1,,,,,
,1.7,,,,,,,,,h.PNG,h,61140d2c5d85c524932a2c59,2021-09-09_09h55.01.042,forced_choiceRT,2021.1.2,MacIntel,60.0024001,,,,,,,,4,Ontime,j,0,2.0833,1,0,4,2,1,,,,,
,1.99,,,,,,,,,h.PNG,h,61140d2c5d85c524932a2c59,2021-09-09_09h55.01.042,forced_choiceRT,2021.1.2,MacIntel,60.0024001,,,,,,,,4,Ontime,j,0,2.0666,1,1,5,2,1,,,,,
,1.55,,,,,,,,,g.PNG,g,61140d2c5d85c524932a2c59,2021-09-09_09h55.01.042,forced_choiceRT,2021.1.2,MacIntel,60.0024001,,,,,,,,4,Slow,h,0,2.1842,1,2,6,1,1,,,,,
,0.8,,,,,,,,,f.PNG,f,61140d2c5d85c524932a2c59,2021-09-09_09h55.01.042,forced_choiceRT,2021.1.2,MacIntel,60.0024001,,,,,,,,4,Ontime,f,1,2.0531,1,3,7,0,1,,,,,
,1.69,,,,,,,,,g.PNG,g,61140d2c5d85c524932a2c59,2021-09-09_09h55.01.042,forced_choiceRT,2021.1.2,MacIntel,60.0024001,,,,,,,,4,Slow,g,1,2.1524,2,0,8,1,1,,,,,
,1.8,,,,,,,,,f.PNG,f,61140d2c5d85c524932a2c59,2021-09-09_09h55.01.042,forced_choiceRT,2021.1.2,MacIntel,60.0024001,,,,,,,,4,Ontime,g,0,2.0517,2,1,9,0,1,,,,,
,1.89,,,,,,,,,g.PNG,g,61140d2c5d85c524932a2c59,2021-09-09_09h55.01.042,forced_choiceRT,2021.1.2,MacIntel,60.0024001,,,,,,,,4,Ontime,f,0,2.0317,2,2,10,1,1,,,,,
,1.75,,,,,,,,,h.PNG,h,61140d2c5d85c524932a2c59,2021-09-09_09h55.01.042,forced_choiceRT,2021.1.2,MacIntel,60.0024001,,,,,,,,4,Ontime,f,0,2.0164,2,3,11,2,1,,,,,
,0.47,,,,,,,,,j.PNG,j,61140d2c5d85c524932a2c59,2021-09-09_09h55.01.042,forced_choiceRT,2021.1.2,MacIntel,60.0024001,,,,,,,,4,Ontime,j,1,1.9844,3,0,12,3,1,,,,,
,1.97,,,,,,,,,h.PNG,h,61140d2c5d85c524932a2c59,2021-09-09_09h55.01.042,forced_choiceRT,2021.1.2,MacIntel,60.0024001,,,,,,,,4,Ontime,h,1,2.0404,3,1,13,2,1,,,,,
,0.67,,,,,,,,,f.PNG,f,61140d2c5d85c524932a2c59,2021-09-09_09h55.01.042,forced_choiceRT,2021.1.2,MacIntel,60.0024001,,,,,,,,4,Ontime,f,1,2.02,3,2,14,0,1,,,,,
,0.68,,,,,,,,,j.PNG,j,61140d2c5d85c524932a2c59,2021-09-09_09h55.01.042,forced_choiceRT,2021.1.2,MacIntel,60.0024001,,,,,,,,4,Ontime,j,1,2.0189,3,3,15,3,1,,,,,
,1.68,,,,,,,,,h.PNG,h,61140d2c5d85c524932a2c59,2021-09-09_09h55.01.042,forced_choiceRT,2021.1.2,MacIntel,60.0024001,,,,,,,,4,Ontime,h,1,2.0417,4,0,16,2,1,,,,,
,0.17,,,,,,,,,j.PNG,j,61140d2c5d85c524932a2c59,2021-09-09_09h55.01.042,forced_choiceRT,2021.1.2,MacIntel,60.0024001,,,,,,,,4,Ontime,j,1,1.9547,4,1,17,3,1,,,,,
,0.25,,,,,,,,,g.PNG,g,61140d2c5d85c524932a2c59,2021-09-09_09h55.01.042,forced_choiceRT,2021.1.2,MacIntel,60.0024001,,,,,,,,4,Ontime,g,1,2.0898,4,2,18,1,1,,,,,
,1.48,,,,,,,,,j.PNG,j,61140d2c5d85c524932a2c59,2021-09-09_09h55.01.042,forced_choiceRT,2021.1.2,MacIntel,60.0024001,,,,,,,,4,Slow,j,1,2.1922,4,3,19,3,1,,,,,
,0.18,,,,,,,,,f.PNG,f,61140d2c5d85c524932a2c59,2021-09-09_09h55.01.042,forced_choiceRT,2021.1.2,MacIntel,60.0024001,,,,,,,,4,Ontime,f,1,1.9544,5,0,20,0,1,,,,,
,0.64,,,,,,,,,h.PNG,h,61140d2c5d85c524932a2c59,2021-09-09_09h55.01.042,forced_choiceRT,2021.1.2,MacIntel,60.0024001,,,,,,,,4,Slow,h,1,2.106,5,1,21,2,1,,,,,
,0.57,,,,,,,,,j.PNG,j,61140d2c5d85c524932a2c59,2021-09-09_09h55.01.042,forced_choiceRT,2021.1.2,MacIntel,60.0024001,,,,,,,,4,Ontime,j,1,1.9694,5,2,22,3,1,,,,,
,0,,,,,,,,,j.PNG,j,61140d2c5d85c524932a2c59,2021-09-09_09h55.01.042,forced_choiceRT,2021.1.2,MacIntel,60.0024001,,,,,,,,4,Ontime,j,1,1.9556,5,3,23,3,1,,,,,
,0.16,,,,,,,,,f.PNG,f,61140d2c5d85c524932a2c59,2021-09-09_09h55.01.042,forced_choiceRT,2021.1.2,MacIntel,60.0024001,,,,,,,,4,Ontime,f,1,1.9573,6,0,24,0,1,,,,,
,0.45,,,,,,,,,h.PNG,h,61140d2c5d85c524932a2c59,2021-09-09_09h55.01.042,forced_choiceRT,2021.1.2,MacIntel,60.0024001,,,,,,,,4,Ontime,h,1,2.0013,6,1,25,2,1,,,,,
,0.7,,,,,,,,,j.PNG,j,61140d2c5d85c524932a2c59,2021-09-09_09h55.01.042,forced_choiceRT,2021.1.2,MacIntel,60.0024001,,,,,,,,4,Ontime,j,1,1.9314,6,2,26,3,1,,,,,
,0.01,,,,,,,,,g.PNG,g,61140d2c5d85c524932a2c59,2021-09-09_09h55.01.042,forced_choiceRT,2021.1.2,MacIntel,60.0024001,,,,,,,,4,Ontime,g,1,1.9168,6,3,27,1,1,,,,,
,0.43,,,,,,,,,g.PNG,g,61140d2c5d85c524932a2c59,2021-09-09_09h55.01.042,forced_choiceRT,2021.1.2,MacIntel,60.0024001,,,,,,,,4,Ontime,g,1,2.0008,7,0,28,1,1,,,,,
,1.33,,,,,,,,,f.PNG,f,61140d2c5d85c524932a2c59,2021-09-09_09h55.01.042,forced_choiceRT,2021.1.2,MacIntel,60.0024001,,,,,,,,4,Ontime,f,1,1.9067,7,1,29,0,1,,,,,
,1.21,,,,,,,,,j.PNG,j,61140d2c5d85c524932a2c59,2021-09-09_09h55.01.042,forced_choiceRT,2021.1.2,MacIntel,60.0024001,,,,,,,,4,Ontime,j,1,2.0329,7,2,30,3,1,,,,,
,0.78,,,,,,,,,f.PNG,f,61140d2c5d85c524932a2c59,2021-09-09_09h55.01.042,forced_choiceRT,2021.1.2,MacIntel,60.0024001,,,,,,,,4,Ontime,f,1,2.0543,7,3,31,0,1,,,,,
,0.9,,,,,,,,,g.PNG,g,61140d2c5d85c524932a2c59,2021-09-09_09h55.01.042,forced_choiceRT,2021.1.2,MacIntel,60.0024001,,,,,,,,4,Ontime,g,1,1.9681,8,0,32,1,1,,,,,
,0.85,,,,,,,,,f.PNG,f,61140d2c5d85c524932a2c59,2021-09-09_09h55.01.042,forced_choiceRT,2021.1.2,MacIntel,60.0024001,,,,,,,,4,Ontime,f,1,2.0325,8,1,33,0,1,,,,,
,1.66,,,,,,,,,h.PNG,h,61140d2c5d85c524932a2c59,2021-09-09_09h55.01.042,forced_choiceRT,2021.1.2,MacIntel,60.0024001,,,,,,,,4,Ontime,f,0,1.9859,8,2,34,2,1,,,,,
,1.24,,,,,,,,,j.PNG,j,61140d2c5d85c524932a2c59,2021-09-09_09h55.01.042,forced_choiceRT,2021.1.2,MacIntel,60.0024001,,,,,,,,4,Ontime,j,1,1.9326,8,3,35,3,1,,,,,
,0.86,,,,,,,,,f.PNG,f,61140d2c5d85c524932a2c59,2021-09-09_09h55.01.042,forced_choiceRT,2021.1.2,MacIntel,60.0024001,,,,,,,,4,Ontime,f,1,2.089,9,0,36,0,1,,,,,
,1.81,,,,,,,,,h.PNG,h,61140d2c5d85c524932a2c59,2021-09-09_09h55.01.042,forced_choiceRT,2021.1.2,MacIntel,60.0024001,,,,,,,,4,Ontime,g,0,2.0666,9,1,37,2,1,,,,,
,0.45,,,,,,,,,f.PNG,f,61140d2c5d85c524932a2c59,2021-09-09_09h55.01.042,forced_choiceRT,2021.1.2,MacIntel,60.0024001,,,,,,,,4,Ontime,f,1,2.003,9,2,38,0,1,,,,,
,0.95,,,,,,,,,g.PNG,g,61140d2c5d85c524932a2c59,2021-09-09_09h55.01.042,forced_choiceRT,2021.1.2,MacIntel,60.0024001,,,,,,,,4,Ontime,g,1,1.9152,9,3,39,1,1,,,,,
,,,,,,,,,,,,61140d2c5d85c524932a2c59,2021-09-09_09h55.01.042,forced_choiceRT,2021.1.2,MacIntel,60.0024001,,,,,,,,,,,,,,,,,,3,0,3,0,1
,0.85,,,,,,,,,j.PNG,j,61140d2c5d85c524932a2c59,2021-09-09_09h55.01.042,forced_choiceRT,2021.1.2,MacIntel,60.0024001,,,,,,,,5,Ontime,j,1,1.9924,0,0,0,3,1,,,,,
,0.26,,,,,,,,,g.PNG,g,61140d2c5d85c524932a2c59,2021-09-09_09h55.01.042,forced_choiceRT,2021.1.2,MacIntel,60.0024001,,,,,,,,5,Slow,g,1,2.1067,0,1,1,1,1,,,,,
,0.4,,,,,,,,,h.PNG,h,61140d2c5d85c524932a2c59,2021-09-09_09h55.01.042,forced_choiceRT,2021.1.2,MacIntel,60.0024001,,,,,,,,5,Ontime,h,1,2.0491,0,2,2,2,1,,,,,
,0.21,,,,,,,,,g.PNG,g,61140d2c5d85c524932a2c59,2021-09-09_09h55.01.042,forced_choiceRT,2021.1.2,MacIntel,60.0024001,,,,,,,,5,Ontime,g,1,2.0497,0,3,3,1,1,,,,,
,1.05,,,,,,,,,h.PNG,h,61140d2c5d85c524932a2c59,2021-09-09_09h55.01.042,forced_choiceRT,2021.1.2,MacIntel,60.0024001,,,,,,,,5,Ontime,h,1,2.0652,1,0,4,2,1,,,,,
,1.24,,,,,,,,,g.PNG,g,61140d2c5d85c524932a2c59,2021-09-09_09h55.01.042,forced_choiceRT,2021.1.2,MacIntel,60.0024001,,,,,,,,5,Ontime,g,1,2.0658,1,1,5,1,1,,,,,
,0.29,,,,,,,,,h.PNG,h,61140d2c5d85c524932a2c59,2021-09-09_09h55.01.042,forced_choiceRT,2021.1.2,MacIntel,60.0024001,,,,,,,,5,Ontime,h,1,1.9802,1,2,6,2,1,,,,,
,0.77,,,,,,,,,j.PNG,j,61140d2c5d85c524932a2c59,2021-09-09_09h55.01.042,forced_choiceRT,2021.1.2,MacIntel,60.0024001,,,,,,,,5,Slow,j,1,2.1223,1,3,7,3,1,,,,,
,1.87,,,,,,,,,f.PNG,f,61140d2c5d85c524932a2c59,2021-09-09_09h55.01.042,forced_choiceRT,2021.1.2,MacIntel,60.0024001,,,,,,,,5,Ontime,j,0,2.0018,2,0,8,0,1,,,,,
,1.62,,,,,,,,,f.PNG,f,61140d2c5d85c524932a2c59,2021-09-09_09h55.01.042,forced_choiceRT,2021.1.2,MacIntel,60.0024001,,,,,,,,5,Ontime,f,1,2.0532,2,1,9,0,1,,,,,
,1.24,,,,,,,,,h.PNG,h,61140d2c5d85c524932a2c59,2021-09-09_09h55.01.042,forced_choiceRT,2021.1.2,MacIntel,60.0024001,,,,,,,,5,Ontime,g,0,1.9991,2,2,10,2,1,,,,,
,0.94,,,,,,,,,j.PNG,j,61140d2c5d85c524932a2c59,2021-09-09_09h55.01.042,forced_choiceRT,2021.1.2,MacIntel,60.0024001,,,,,,,,5,Ontime,j,1,1.9682,2,3,11,3,1,,,,,
,0.8,,,,,,,,,j.PNG,j,61140d2c5d85c524932a2c59,2021-09-09_09h55.01.042,forced_choiceRT,2021.1.2,MacIntel,60.0024001,,,,,,,,5,Slow,j,1,2.1343,3,0,12,3,1,,,,,
,0.39,,,,,,,,,g.PNG,g,61140d2c5d85c524932a2c59,2021-09-09_09h55.01.042,forced_choiceRT,2021.1.2,MacIntel,60.0024001,,,,,,,,5,Ontime,g,1,2.0171,3,1,13,1,1,,,,,
,1.89,,,,,,,,,f.PNG,f,61140d2c5d85c524932a2c59,2021-09-09_09h55.01.042,forced_choiceRT,2021.1.2,MacIntel,60.0024001,,,,,,,,5,Slow,h,0,2.1105,3,2,14,0,1,,,,,
,1.24,,,,,,,,,h.PNG,h,61140d2c5d85c524932a2c59,2021-09-09_09h55.01.042,forced_choiceRT,2021.1.2,MacIntel,60.0024001,,,,,,,,5,Ontime,h,1,2.0491,3,3,15,2,1,,,,,
,1.98,,,,,,,,,h.PNG,h,61140d2c5d85c524932a2c59,2021-09-09_09h55.01.042,forced_choiceRT,2021.1.2,MacIntel,60.0024001,,,,,,,,5,Ontime,j,0,2.0827,4,0,16,2,1,,,,,
,1.55,,,,,,,,,h.PNG,h,61140d2c5d85c524932a2c59,2021-09-09_09h55.01.042,forced_choiceRT,2021.1.2,MacIntel,60.0024001,,,,,,,,5,Ontime,g,0,2.0843,4,1,17,2,1,,,,,
,0.07,,,,,,,,,f.PNG,f,61140d2c5d85c524932a2c59,2021-09-09_09h55.01.042,forced_choiceRT,2021.1.2,MacIntel,60.0024001,,,,,,,,5,Ontime,f,1,2.0508,4,2,18,0,1,,,,,
,0.79,,,,,,,,,f.PNG,f,61140d2c5d85c524932a2c59,2021-09-09_09h55.01.042,forced_choiceRT,2021.1.2,MacIntel,60.0024001,,,,,,,,5,Fast,f,1,1.8742,4,3,19,0,1,,,,,
,0.03,,,,,,,,,g.PNG,g,61140d2c5d85c524932a2c59,2021-09-09_09h55.01.042,forced_choiceRT,2021.1.2,MacIntel,60.0024001,,,,,,,,5,Ontime,g,1,1.9871,5,0,20,1,1,,,,,
,0.5,,,,,,,,,f.PNG,f,61140d2c5d85c524932a2c59,2021-09-09_09h55.01.042,forced_choiceRT,2021.1.2,MacIntel,60.0024001,,,,,,,,5,Ontime,f,1,2.0169,5,1,21,0,1,,,,,
,0.82,,,,,,,,,g.PNG,g,61140d2c5d85c524932a2c59,2021-09-09_09h55.01.042,forced_choiceRT,2021.1.2,MacIntel,60.0024001,,,,,,,,5,Ontime,g,1,1.9838,5,2,22,1,1,,,,,
,0.53,,,,,,,,,j.PNG,j,61140d2c5d85c524932a2c59,2021-09-09_09h55.01.042,forced_choiceRT,2021.1.2,MacIntel,60.0024001,,,,,,,,5,Ontime,j,1,1.9656,5,3,23,3,1,,,,,
,0.13,,,,,,,,,h.PNG,h,61140d2c5d85c524932a2c59,2021-09-09_09h55.01.042,forced_choiceRT,2021.1.2,MacIntel,60.0024001,,,,,,,,5,Slow,h,1,2.1737,6,0,24,2,1,,,,,
,1.86,,,,,,,,,g.PNG,g,61140d2c5d85c524932a2c59,2021-09-09_09h55.01.042,forced_choiceRT,2021.1.2,MacIntel,60.0024001,,,,,,,,5,Ontime,f,0,2.0377,6,1,25,1,1,,,,,
,1.7,,,,,,,,,j.PNG,j,61140d2c5d85c524932a2c59,2021-09-09_09h55.01.042,forced_choiceRT,2021.1.2,MacIntel,60.0024001,,,,,,,,5,Ontime,h,0,2.0065,6,2,26,3,1,,,,,
,0.3,,,,,,,,,f.PNG,f,61140d2c5d85c524932a2c59,2021-09-09_09h55.01.042,forced_choiceRT,2021.1.2,MacIntel,60.0024001,,,,,,,,5,Ontime,f,1,2.0159,6,3,27,0,1,,,,,
,1.45,,,,,,,,,j.PNG,j,61140d2c5d85c524932a2c59,2021-09-09_09h55.01.042,forced_choiceRT,2021.1.2,MacIntel,60.0024001,,,,,,,,5,Ontime,j,1,2.0915,7,0,28,3,1,,,,,
,0.26,,,,,,,,,j.PNG,j,61140d2c5d85c524932a2c59,2021-09-09_09h55.01.042,forced_choiceRT,2021.1.2,MacIntel,60.0024001,,,,,,,,5,Ontime,j,1,2.0354,7,1,29,3,1,,,,,
,1.65,,,,,,,,,j.PNG,j,61140d2c5d85c524932a2c59,2021-09-09_09h55.01.042,forced_choiceRT,2021.1.2,MacIntel,60.0024001,,,,,,,,5,Slow,h,0,2.1101,7,2,30,3,1,,,,,
,0.01,,,,,,,,,f.PNG,f,61140d2c5d85c524932a2c59,2021-09-09_09h55.01.042,forced_choiceRT,2021.1.2,MacIntel,60.0024001,,,,,,,,5,Ontime,f,1,2.0684,7,3,31,0,1,,,,,
,1.37,,,,,,,,,f.PNG,f,61140d2c5d85c524932a2c59,2021-09-09_09h55.01.042,forced_choiceRT,2021.1.2,MacIntel,60.0024001,,,,,,,,5,Ontime,f,1,2.056,8,0,32,0,1,,,,,
,0.07,,,,,,,,,g.PNG,g,61140d2c5d85c524932a2c59,2021-09-09_09h55.01.042,forced_choiceRT,2021.1.2,MacIntel,60.0024001,,,,,,,,5,Ontime,g,1,2.017,8,1,33,1,1,,,,,
,1.31,,,,,,,,,j.PNG,j,61140d2c5d85c524932a2c59,2021-09-09_09h55.01.042,forced_choiceRT,2021.1.2,MacIntel,60.0024001,,,,,,,,5,Ontime,j,1,2.033,8,2,34,3,1,,,,,
,0.56,,,,,,,,,f.PNG,f,61140d2c5d85c524932a2c59,2021-09-09_09h55.01.042,forced_choiceRT,2021.1.2,MacIntel,60.0024001,,,,,,,,5,Ontime,f,1,2.0565,8,3,35,0,1,,,,,
,1.26,,,,,,,,,g.PNG,g,61140d2c5d85c524932a2c59,2021-09-09_09h55.01.042,forced_choiceRT,2021.1.2,MacIntel,60.0024001,,,,,,,,5,Slow,g,1,2.1047,9,0,36,1,1,,,,,
,1.29,,,,,,,,,h.PNG,h,61140d2c5d85c524932a2c59,2021-09-09_09h55.01.042,forced_choiceRT,2021.1.2,MacIntel,60.0024001,,,,,,,,5,Slow,h,1,2.1557,9,1,37,2,1,,,,,
,0.26,,,,,,,,,h.PNG,h,61140d2c5d85c524932a2c59,2021-09-09_09h55.01.042,forced_choiceRT,2021.1.2,MacIntel,60.0024001,,,,,,,,5,Fast,h,1,1.8355,9,2,38,2,1,,,,,
,0.16,,,,,,,,,g.PNG,g,61140d2c5d85c524932a2c59,2021-09-09_09h55.01.042,forced_choiceRT,2021.1.2,MacIntel,60.0024001,,,,,,,,5,Ontime,g,1,2.0184,9,3,39,1,1,,,,,
,,,,,,,,,,,,61140d2c5d85c524932a2c59,2021-09-09_09h55.01.042,forced_choiceRT,2021.1.2,MacIntel,60.0024001,,,,,,,,,,,,,,,,,,4,0,4,0,1
,0.46,,,,,,,,,g.PNG,g,61140d2c5d85c524932a2c59,2021-09-09_09h55.01.042,forced_choiceRT,2021.1.2,MacIntel,60.0024001,,,,,,,,6,Ontime,g,1,1.9939,0,0,0,1,1,,,,,
,0.29,,,,,,,,,g.PNG,g,61140d2c5d85c524932a2c59,2021-09-09_09h55.01.042,forced_choiceRT,2021.1.2,MacIntel,60.0024001,,,,,,,,6,Ontime,g,1,2.0512,0,1,1,1,1,,,,,
,1.55,,,,,,,,,h.PNG,h,61140d2c5d85c524932a2c59,2021-09-09_09h55.01.042,forced_choiceRT,2021.1.2,MacIntel,60.0024001,,,,,,,,6,Ontime,h,1,2.0042,0,2,2,2,1,,,,,
,0.57,,,,,,,,,j.PNG,j,61140d2c5d85c524932a2c59,2021-09-09_09h55.01.042,forced_choiceRT,2021.1.2,MacIntel,60.0024001,,,,,,,,6,Ontime,j,1,2.05,0,3,3,3,1,,,,,
,1.44,,,,,,,,,g.PNG,g,61140d2c5d85c524932a2c59,2021-09-09_09h55.01.042,forced_choiceRT,2021.1.2,MacIntel,60.0024001,,,,,,,,6,Ontime,h,0,2.0837,1,0,4,1,1,,,,,
,0.65,,,,,,,,,h.PNG,h,61140d2c5d85c524932a2c59,2021-09-09_09h55.01.042,forced_choiceRT,2021.1.2,MacIntel,60.0024001,,,,,,,,6,Ontime,h,1,2.0665,1,1,5,2,1,,,,,
,1.34,,,,,,,,,f.PNG,f,61140d2c5d85c524932a2c59,2021-09-09_09h55.01.042,forced_choiceRT,2021.1.2,MacIntel,60.0024001,,,,,,,,6,Ontime,f,1,2.0575,1,2,6,0,1,,,,,
,0.99,,,,,,,,,h.PNG,h,61140d2c5d85c524932a2c59,2021-09-09_09h55.01.042,forced_choiceRT,2021.1.2,MacIntel,60.0024001,,,,,,,,6,Ontime,h,1,2.0853,1,3,7,2,1,,,,,
,0.57,,,,,,,,,j.PNG,j,61140d2c5d85c524932a2c59,2021-09-09_09h55.01.042,forced_choiceRT,2021.1.2,MacIntel,60.0024001,,,,,,,,6,Ontime,j,1,2.0172,2,0,8,3,1,,,,,
,1.74,,,,,,,,,j.PNG,j,61140d2c5d85c524932a2c59,2021-09-09_09h55.01.042,forced_choiceRT,2021.1.2,MacIntel,60.0024001,,,,,,,,6,Slow,j,1,2.1334,2,1,9,3,1,,,,,
,1.5,,,,,,,,,f.PNG,f,61140d2c5d85c524932a2c59,2021-09-09_09h55.01.042,forced_choiceRT,2021.1.2,MacIntel,60.0024001,,,,,,,,6,Slow,h,0,2.1153,2,2,10,0,1,,,,,
,0.72,,,,,,,,,h.PNG,h,61140d2c5d85c524932a2c59,2021-09-09_09h55.01.042,forced_choiceRT,2021.1.2,MacIntel,60.0024001,,,,,,,,6,Ontime,h,1,2.0164,2,3,11,2,1,,,,,
,0.43,,,,,,,,,j.PNG,j,61140d2c5d85c524932a2c59,2021-09-09_09h55.01.042,forced_choiceRT,2021.1.2,MacIntel,60.0024001,,,,,,,,6,Ontime,j,1,1.9931,3,0,12,3,1,,,,,
,1.32,,,,,,,,,g.PNG,g,61140d2c5d85c524932a2c59,2021-09-09_09h55.01.042,forced_choiceRT,2021.1.2,MacIntel,60.0024001,,,,,,,,6,Ontime,g,1,2.0168,3,1,13,1,1,,,,,
,1.54,,,,,,,,,f.PNG,f,61140d2c5d85c524932a2c59,2021-09-09_09h55.01.042,forced_choiceRT,2021.1.2,MacIntel,60.0024001,,,,,,,,6,Ontime,f,1,2.0886,3,2,14,0,1,,,,,
,1.01,,,,,,,,,f.PNG,f,61140d2c5d85c524932a2c59,2021-09-09_09h55.01.042,forced_choiceRT,2021.1.2,MacIntel,60.0024001,,,,,,,,6,Ontime,f,1,1.9833,3,3,15,0,1,,,,,
,1.49,,,,,,,,,g.PNG,g,61140d2c5d85c524932a2c59,2021-09-09_09h55.01.042,forced_choiceRT,2021.1.2,MacIntel,60.0024001,,,,,,,,6,Ontime,g,1,2.0658,4,0,16,1,1,,,,,
,0.28,,,,,,,,,h.PNG,h,61140d2c5d85c524932a2c59,2021-09-09_09h55.01.042,forced_choiceRT,2021.1.2,MacIntel,60.0024001,,,,,,,,6,Ontime,h,1,2.0349,4,1,17,2,1,,,,,
,1.28,,,,,,,,,f.PNG,f,61140d2c5d85c524932a2c59,2021-09-09_09h55.01.042,forced_choiceRT,2021.1.2,MacIntel,60.0024001,,,,,,,,6,Ontime,f,1,2.0587,4,2,18,0,1,,,,,
,1.47,,,,,,,,,f.PNG,f,61140d2c5d85c524932a2c59,2021-09-09_09h55.01.042,forced_choiceRT,2021.1.2,MacIntel,60.0024001,,,,,,,,6,Ontime,f,1,2.1,4,3,19,0,1,,,,,
,0.46,,,,,,,,,j.PNG,j,61140d2c5d85c524932a2c59,2021-09-09_09h55.01.042,forced_choiceRT,2021.1.2,MacIntel,60.0024001,,,,,,,,6,Ontime,j,1,2.0351,5,0,20,3,1,,,,,
,1.93,,,,,,,,,h.PNG,h,61140d2c5d85c524932a2c59,2021-09-09_09h55.01.042,forced_choiceRT,2021.1.2,MacIntel,60.0024001,,,,,,,,6,Ontime,h,1,1.9738,5,1,21,2,1,,,,,
,0.77,,,,,,,,,g.PNG,g,61140d2c5d85c524932a2c59,2021-09-09_09h55.01.042,forced_choiceRT,2021.1.2,MacIntel,60.0024001,,,,,,,,6,Ontime,g,1,2.017,5,2,22,1,1,,,,,
,0.36,,,,,,,,,f.PNG,f,61140d2c5d85c524932a2c59,2021-09-09_09h55.01.042,forced_choiceRT,2021.1.2,MacIntel,60.0024001,,,,,,,,6,Ontime,f,1,2.0328,5,3,23,0,1,,,,,
,0.43,,,,,,,,,g.PNG,g,61140d2c5d85c524932a2c59,2021-09-09_09h55.01.042,forced_choiceRT,2021.1.2,MacIntel,60.0024001,,,,,,,,6,Ontime,g,1,2.0357,6,0,24,1,1,,,,,
,1.6,,,,,,,,,j.PNG,j,61140d2c5d85c524932a2c59,2021-09-09_09h55.01.042,forced_choiceRT,2021.1.2,MacIntel,60.0024001,,,,,,,,6,Ontime,h,0,1.9516,6,1,25,3,1,,,,,
,1.4,,,,,,,,,j.PNG,j,61140d2c5d85c524932a2c59,2021-09-09_09h55.01.042,forced_choiceRT,2021.1.2,MacIntel,60.0024001,,,,,,,,6,Ontime,j,1,2.0766,6,2,26,3,1,,,,,
,1.77,,,,,,,,,h.PNG,h,61140d2c5d85c524932a2c59,2021-09-09_09h55.01.042,forced_choiceRT,2021.1.2,MacIntel,60.0024001,,,,,,,,6,Ontime,h,1,2.0703,6,3,27,2,1,,,,,
,0.07,,,,,,,,,g.PNG,g,61140d2c5d85c524932a2c59,2021-09-09_09h55.01.042,forced_choiceRT,2021.1.2,MacIntel,60.0024001,,,,,,,,6,Ontime,g,1,2.0328,7,0,28,1,1,,,,,
,0.68,,,,,,,,,h.PNG,h,61140d2c5d85c524932a2c59,2021-09-09_09h55.01.042,forced_choiceRT,2021.1.2,MacIntel,60.0024001,,,,,,,,6,Ontime,h,1,2.0516,7,1,29,2,1,,,,,
,0.84,,,,,,,,,g.PNG,g,61140d2c5d85c524932a2c59,2021-09-09_09h55.01.042,forced_choiceRT,2021.1.2,MacIntel,60.0024001,,,,,,,,6,Ontime,g,1,2.0323,7,2,30,1,1,,,,,
,1.85,,,,,,,,,j.PNG,j,61140d2c5d85c524932a2c59,2021-09-09_09h55.01.042,forced_choiceRT,2021.1.2,MacIntel,60.0024001,,,,,,,,6,Ontime,h,0,2.0343,7,3,31,3,1,,,,,
,1.63,,,,,,,,,f.PNG,f,61140d2c5d85c524932a2c59,2021-09-09_09h55.01.042,forced_choiceRT,2021.1.2,MacIntel,60.0024001,,,,,,,,6,Slow,h,0,2.1313,8,0,32,0,1,,,,,
,0.29,,,,,,,,,j.PNG,j,61140d2c5d85c524932a2c59,2021-09-09_09h55.01.042,forced_choiceRT,2021.1.2,MacIntel,60.0024001,,,,,,,,6,Ontime,j,1,2.0159,8,1,33,3,1,,,,,
,1.66,,,,,,,,,j.PNG,j,61140d2c5d85c524932a2c59,2021-09-09_09h55.01.042,forced_choiceRT,2021.1.2,MacIntel,60.0024001,,,,,,,,6,Slow,j,1,2.1911,8,2,34,3,1,,,,,
,0.08,,,,,,,,,g.PNG,g,61140d2c5d85c524932a2c59,2021-09-09_09h55.01.042,forced_choiceRT,2021.1.2,MacIntel,60.0024001,,,,,,,,6,Ontime,g,1,1.99,8,3,35,1,1,,,,,
,1.49,,,,,,,,,f.PNG,f,61140d2c5d85c524932a2c59,2021-09-09_09h55.01.042,forced_choiceRT,2021.1.2,MacIntel,60.0024001,,,,,,,,6,Ontime,h,0,2.0189,9,0,36,0,1,,,,,
,1.67,,,,,,,,,h.PNG,h,61140d2c5d85c524932a2c59,2021-09-09_09h55.01.042,forced_choiceRT,2021.1.2,MacIntel,60.0024001,,,,,,,,6,Slow,g,0,2.262,9,1,37,2,1,,,,,
,1.47,,,,,,,,,h.PNG,h,61140d2c5d85c524932a2c59,2021-09-09_09h55.01.042,forced_choiceRT,2021.1.2,MacIntel,60.0024001,,,,,,,,6,Ontime,g,0,1.9324,9,2,38,2,1,,,,,
,1.12,,,,,,,,,f.PNG,f,61140d2c5d85c524932a2c59,2021-09-09_09h55.01.042,forced_choiceRT,2021.1.2,MacIntel,60.0024001,,,,,,,,6,Slow,f,1,2.123,9,3,39,0,1,,,,,
,,,,,,,,,,,,61140d2c5d85c524932a2c59,2021-09-09_09h55.01.042,forced_choiceRT,2021.1.2,MacIntel,60.0024001,,,,,,,,,,,,,,,,,,5,0,5,0,1
,0.66,,,,,,,,,j.PNG,j,61140d2c5d85c524932a2c59,2021-09-09_09h55.01.042,forced_choiceRT,2021.1.2,MacIntel,60.0024001,,,,,,,,7,Ontime,j,1,2.0282,0,0,0,3,1,,,,,
,1.59,,,,,,,,,h.PNG,h,61140d2c5d85c524932a2c59,2021-09-09_09h55.01.042,forced_choiceRT,2021.1.2,MacIntel,60.0024001,,,,,,,,7,Ontime,j,0,1.9033,0,1,1,2,1,,,,,
,0.86,,,,,,,,,f.PNG,f,61140d2c5d85c524932a2c59,2021-09-09_09h55.01.042,forced_choiceRT,2021.1.2,MacIntel,60.0024001,,,,,,,,7,Ontime,f,1,1.9651,0,2,2,0,1,,,,,
,1.86,,,,,,,,,f.PNG,f,61140d2c5d85c524932a2c59,2021-09-09_09h55.01.042,forced_choiceRT,2021.1.2,MacIntel,60.0024001,,,,,,,,7,Ontime,f,1,2.0513,0,3,3,0,1,,,,,
,0.43,,,,,,,,,f.PNG,f,61140d2c5d85c524932a2c59,2021-09-09_09h55.01.042,forced_choiceRT,2021.1.2,MacIntel,60.0024001,,,,,,,,7,Ontime,f,1,1.9539,1,0,4,0,1,,,,,
,0.61,,,,,,,,,j.PNG,j,61140d2c5d85c524932a2c59,2021-09-09_09h55.01.042,forced_choiceRT,2021.1.2,MacIntel,60.0024001,,,,,,,,7,Ontime,j,1,2.0587,1,1,5,3,1,,,,,
,1.52,,,,,,,,,h.PNG,h,61140d2c5d85c524932a2c59,2021-09-09_09h55.01.042,forced_choiceRT,2021.1.2,MacIntel,60.0024001,,,,,,,,7,Ontime,h,1,2.049,1,2,6,2,1,,,,,
,1.35,,,,,,,,,j.PNG,j,61140d2c5d85c524932a2c59,2021-09-09_09h55.01.042,forced_choiceRT,2021.1.2,MacIntel,60.0024001,,,,,,,,7,Slow,j,1,2.1365,1,3,7,3,1,,,,,
,0.64,,,,,,,,,j.PNG,j,61140d2c5d85c524932a2c59,2021-09-09_09h55.01.042,forced_choiceRT,2021.1.2,MacIntel,60.0024001,,,,,,,,7,Ontime,j,1,2.0423,2,0,8,3,1,,,,,
,1.1,,,,,,,,,j.PNG,j,61140d2c5d85c524932a2c59,2021-09-09_09h55.01.042,forced_choiceRT,2021.1.2,MacIntel,60.0024001,,,,,,,,7,Ontime,j,1,2.0347,2,1,9,3,1,,,,,
,1.37,,,,,,,,,f.PNG,f,61140d2c5d85c524932a2c59,2021-09-09_09h55.01.042,forced_choiceRT,2021.1.2,MacIntel,60.0024001,,,,,,,,7,Ontime,f,1,2.0393,2,2,10,0,1,,,,,
,1.89,,,,,,,,,j.PNG,j,61140d2c5d85c524932a2c59,2021-09-09_09h55.01.042,forced_choiceRT,2021.1.2,MacIntel,60.0024001,,,,,,,,7,Ontime,g,0,2.026,2,3,11,3,1,,,,,
,0.57,,,,,,,,,g.PNG,g,61140d2c5d85c524932a2c59,2021-09-09_09h55.01.042,forced_choiceRT,2021.1.2,MacIntel,60.0024001,,,,,,,,7,Ontime,g,1,2.0213,3,0,12,1,1,,,,,
,0.66,,,,,,,,,f.PNG,f,61140d2c5d85c524932a2c59,2021-09-09_09h55.01.042,forced_choiceRT,2021.1.2,MacIntel,60.0024001,,,,,,,,7,Ontime,f,1,1.984,3,1,13,0,1,,,,,
,1.73,,,,,,,,,h.PNG,h,61140d2c5d85c524932a2c59,2021-09-09_09h55.01.042,forced_choiceRT,2021.1.2,MacIntel,60.0024001,,,,,,,,7,Ontime,g,0,1.9866,3,2,14,2,1,,,,,
,1.19,,,,,,,,,g.PNG,g,61140d2c5d85c524932a2c59,2021-09-09_09h55.01.042,forced_choiceRT,2021.1.2,MacIntel,60.0024001,,,,,,,,7,Ontime,g,1,2.0268,3,3,15,1,1,,,,,
,0.25,,,,,,,,,h.PNG,h,61140d2c5d85c524932a2c59,2021-09-09_09h55.01.042,forced_choiceRT,2021.1.2,MacIntel,60.0024001,,,,,,,,7,Ontime,h,1,2.0064,4,0,16,2,1,,,,,
,0.06,,,,,,,,,f.PNG,f,61140d2c5d85c524932a2c59,2021-09-09_09h55.01.042,forced_choiceRT,2021.1.2,MacIntel,60.0024001,,,,,,,,7,Ontime,f,1,1.9574,4,1,17,0,1,,,,,
,1.64,,,,,,,,,g.PNG,g,61140d2c5d85c524932a2c59,2021-09-09_09h55.01.042,forced_choiceRT,2021.1.2,MacIntel,60.0024001,,,,,,,,7,Slow,h,0,2.1006,4,2,18,1,1,,,,,
,1.52,,,,,,,,,g.PNG,g,61140d2c5d85c524932a2c59,2021-09-09_09h55.01.042,forced_choiceRT,2021.1.2,MacIntel,60.0024001,,,,,,,,7,Ontime,h,0,2.0253,4,3,19,1,1,,,,,
,1.92,,,,,,,,,g.PNG,g,61140d2c5d85c524932a2c59,2021-09-09_09h55.01.042,forced_choiceRT,2021.1.2,MacIntel,60.0024001,,,,,,,,7,Slow,g,1,2.1167,5,0,20,1,1,,,,,
,1.14,,,,,,,,,f.PNG,f,61140d2c5d85c524932a2c59,2021-09-09_09h55.01.042,forced_choiceRT,2021.1.2,MacIntel,60.0024001,,,,,,,,7,Ontime,f,1,2.049,5,1,21,0,1,,,,,
,0.99,,,,,,,,,g.PNG,g,61140d2c5d85c524932a2c59,2021-09-09_09h55.01.042,forced_choiceRT,2021.1.2,MacIntel,60.0024001,,,,,,,,7,Ontime,g,1,2.0079,5,2,22,1,1,,,,,
,0.8,,,,,,,,,f.PNG,f,61140d2c5d85c524932a2c59,2021-09-09_09h55.01.042,forced_choiceRT,2021.1.2,MacIntel,60.0024001,,,,,,,,7,Ontime,f,1,2.0174,5,3,23,0,1,,,,,
,0.66,,,,,,,,,j.PNG,j,61140d2c5d85c524932a2c59,2021-09-09_09h55.01.042,forced_choiceRT,2021.1.2,MacIntel,60.0024001,,,,,,,,7,Ontime,j,1,2.0978,6,0,24,3,1,,,,,
,0.58,,,,,,,,,h.PNG,h,61140d2c5d85c524932a2c59,2021-09-09_09h55.01.042,forced_choiceRT,2021.1.2,MacIntel,60.0024001,,,,,,,,7,Ontime,h,1,2.0519,6,1,25,2,1,,,,,
,1.92,,,,,,,,,h.PNG,h,61140d2c5d85c524932a2c59,2021-09-09_09h55.01.042,forced_choiceRT,2021.1.2,MacIntel,60.0024001,,,,,,,,7,Ontime,g,0,2.0242,6,2,26,2,1,,,,,
,0.39,,,,,,,,,f.PNG,f,61140d2c5d85c524932a2c59,2021-09-09_09h55.01.042,forced_choiceRT,2021.1.2,MacIntel,60.0024001,,,,,,,,7,Ontime,f,1,1.9676,6,3,27,0,1,,,,,
,1.83,,,,,,,,,j.PNG,j,61140d2c5d85c524932a2c59,2021-09-09_09h55.01.042,forced_choiceRT,2021.1.2,MacIntel,60.0024001,,,,,,,,7,Ontime,f,0,2.0023,7,0,28,3,1,,,,,
,1.69,,,,,,,,,h.PNG,h,61140d2c5d85c524932a2c59,2021-09-09_09h55.01.042,forced_choiceRT,2021.1.2,MacIntel,60.0024001,,,,,,,,7,Ontime,g,0,2.0994,7,1,29,2,1,,,,,
,0.26,,,,,,,,,h.PNG,h,61140d2c5d85c524932a2c59,2021-09-09_09h55.01.042,forced_choiceRT,2021.1.2,MacIntel,60.0024001,,,,,,,,7,Ontime,h,1,2.0186,7,2,30,2,1,,,,,
,1.94,,,,,,,,,g.PNG,g,61140d2c5d85c524932a2c59,2021-09-09_09h55.01.042,forced_choiceRT,2021.1.2,MacIntel,60.0024001,,,,,,,,7,Ontime,h,0,2.0732,7,3,31,1,1,,,,,
,1.81,,,,,,,,,g.PNG,g,61140d2c5d85c524932a2c59,2021-09-09_09h55.01.042,forced_choiceRT,2021.1.2,MacIntel,60.0024001,,,,,,,,7,Ontime,h,0,1.9579,8,0,32,1,1,,,,,
,0,,,,,,,,,h.PNG,h,61140d2c5d85c524932a2c59,2021-09-09_09h55.01.042,forced_choiceRT,2021.1.2,MacIntel,60.0024001,,,,,,,,7,Ontime,h,1,2.0328,8,1,33,2,1,,,,,
,0.48,,,,,,,,,g.PNG,g,61140d2c5d85c524932a2c59,2021-09-09_09h55.01.042,forced_choiceRT,2021.1.2,MacIntel,60.0024001,,,,,,,,7,Ontime,g,1,2.025,8,2,34,1,1,,,,,
,1.79,,,,,,,,,g.PNG,g,61140d2c5d85c524932a2c59,2021-09-09_09h55.01.042,forced_choiceRT,2021.1.2,MacIntel,60.0024001,,,,,,,,7,Ontime,g,1,2.0176,8,3,35,1,1,,,,,
,1.05,,,,,,,,,j.PNG,j,61140d2c5d85c524932a2c59,2021-09-09_09h55.01.042,forced_choiceRT,2021.1.2,MacIntel,60.0024001,,,,,,,,7,Ontime,j,1,2.0533,9,0,36,3,1,,,,,
,1.57,,,,,,,,,j.PNG,j,61140d2c5d85c524932a2c59,2021-09-09_09h55.01.042,forced_choiceRT,2021.1.2,MacIntel,60.0024001,,,,,,,,7,Ontime,h,0,2.0853,9,1,37,3,1,,,,,
,1,,,,,,,,,f.PNG,f,61140d2c5d85c524932a2c59,2021-09-09_09h55.01.042,forced_choiceRT,2021.1.2,MacIntel,60.0024001,,,,,,,,7,Slow,f,1,2.1011,9,2,38,0,1,,,,,
,0.75,,,,,,,,,h.PNG,h,61140d2c5d85c524932a2c59,2021-09-09_09h55.01.042,forced_choiceRT,2021.1.2,MacIntel,60.0024001,,,,,,,,7,Ontime,h,1,2.0031,9,3,39,2,1,,,,,
,,,,,,,,,,,,61140d2c5d85c524932a2c59,2021-09-09_09h55.01.042,forced_choiceRT,2021.1.2,MacIntel,60.0024001,,,,,,,,,,,,,,,,,,6,0,6,0,1
,1.63,,,,,,,,,g.PNG,g,61140d2c5d85c524932a2c59,2021-09-09_09h55.01.042,forced_choiceRT,2021.1.2,MacIntel,60.0024001,,,,,,,,8,Fast,j,0,1.892,0,0,0,1,1,,,,,
,1.15,,,,,,,,,g.PNG,g,61140d2c5d85c524932a2c59,2021-09-09_09h55.01.042,forced_choiceRT,2021.1.2,MacIntel,60.0024001,,,,,,,,8,Fast,g,1,1.7692,0,1,1,1,1,,,,,
,0.3,,,,,,,,,h.PNG,h,61140d2c5d85c524932a2c59,2021-09-09_09h55.01.042,forced_choiceRT,2021.1.2,MacIntel,60.0024001,,,,,,,,8,Ontime,h,1,1.9405,0,2,2,2,1,,,,,
,0.54,,,,,,,,,f.PNG,f,61140d2c5d85c524932a2c59,2021-09-09_09h55.01.042,forced_choiceRT,2021.1.2,MacIntel,60.0024001,,,,,,,,8,Ontime,f,1,2.0015,0,3,3,0,1,,,,,
,1.3,,,,,,,,,g.PNG,g,61140d2c5d85c524932a2c59,2021-09-09_09h55.01.042,forced_choiceRT,2021.1.2,MacIntel,60.0024001,,,,,,,,8,Ontime,g,1,2.0373,1,0,4,1,1,,,,,
,0.22,,,,,,,,,h.PNG,h,61140d2c5d85c524932a2c59,2021-09-09_09h55.01.042,forced_choiceRT,2021.1.2,MacIntel,60.0024001,,,,,,,,8,Ontime,h,1,1.9654,1,1,5,2,1,,,,,
,0.78,,,,,,,,,j.PNG,j,61140d2c5d85c524932a2c59,2021-09-09_09h55.01.042,forced_choiceRT,2021.1.2,MacIntel,60.0024001,,,,,,,,8,Slow,j,1,2.2834,1,2,6,3,1,,,,,
,0.21,,,,,,,,,j.PNG,j,61140d2c5d85c524932a2c59,2021-09-09_09h55.01.042,forced_choiceRT,2021.1.2,MacIntel,60.0024001,,,,,,,,8,Ontime,j,1,2.0389,1,3,7,3,1,,,,,
,0.77,,,,,,,,,g.PNG,g,61140d2c5d85c524932a2c59,2021-09-09_09h55.01.042,forced_choiceRT,2021.1.2,MacIntel,60.0024001,,,,,,,,8,Ontime,g,1,1.9756,2,0,8,1,1,,,,,
,0.43,,,,,,,,,f.PNG,f,61140d2c5d85c524932a2c59,2021-09-09_09h55.01.042,forced_choiceRT,2021.1.2,MacIntel,60.0024001,,,,,,,,8,Ontime,f,1,2.0095,2,1,9,0,1,,,,,
,1.06,,,,,,,,,f.PNG,f,61140d2c5d85c524932a2c59,2021-09-09_09h55.01.042,forced_choiceRT,2021.1.2,MacIntel,60.0024001,,,,,,,,8,Ontime,f,1,1.9589,2,2,10,0,1,,,,,
,0.76,,,,,,,,,g.PNG,g,61140d2c5d85c524932a2c59,2021-09-09_09h55.01.042,forced_choiceRT,2021.1.2,MacIntel,60.0024001,,,,,,,,8,Ontime,g,1,1.9557,2,3,11,1,1,,,,,
,0.13,,,,,,,,,h.PNG,h,61140d2c5d85c524932a2c59,2021-09-09_09h55.01.042,forced_choiceRT,2021.1.2,MacIntel,60.0024001,,,,,,,,8,Ontime,h,1,1.9004,3,0,12,2,1,,,,,
,0.39,,,,,,,,,h.PNG,h,61140d2c5d85c524932a2c59,2021-09-09_09h55.01.042,forced_choiceRT,2021.1.2,MacIntel,60.0024001,,,,,,,,8,Fast,h,1,1.8502,3,1,13,2,1,,,,,
,0.92,,,,,,,,,g.PNG,g,61140d2c5d85c524932a2c59,2021-09-09_09h55.01.042,forced_choiceRT,2021.1.2,MacIntel,60.0024001,,,,,,,,8,Ontime,g,1,1.9496,3,2,14,1,1,,,,,
,0.71,,,,,,,,,h.PNG,h,61140d2c5d85c524932a2c59,2021-09-09_09h55.01.042,forced_choiceRT,2021.1.2,MacIntel,60.0024001,,,,,,,,8,Fast,h,1,1.5722,3,3,15,2,1,,,,,
,0.96,,,,,,,,,f.PNG,f,61140d2c5d85c524932a2c59,2021-09-09_09h55.01.042,forced_choiceRT,2021.1.2,MacIntel,60.0024001,,,,,,,,8,Fast,f,1,1.6853,4,0,16,0,1,,,,,
,0.6,,,,,,,,,j.PNG,j,61140d2c5d85c524932a2c59,2021-09-09_09h55.01.042,forced_choiceRT,2021.1.2,MacIntel,60.0024001,,,,,,,,8,Ontime,j,1,1.9409,4,1,17,3,1,,,,,
,1.66,,,,,,,,,j.PNG,j,61140d2c5d85c524932a2c59,2021-09-09_09h55.01.042,forced_choiceRT,2021.1.2,MacIntel,60.0024001,,,,,,,,8,Ontime,h,0,1.9672,4,2,18,3,1,,,,,
,0.52,,,,,,,,,j.PNG,j,61140d2c5d85c524932a2c59,2021-09-09_09h55.01.042,forced_choiceRT,2021.1.2,MacIntel,60.0024001,,,,,,,,8,Fast,h,0,1.6682,4,3,19,3,1,,,,,
,0.34,,,,,,,,,j.PNG,j,61140d2c5d85c524932a2c59,2021-09-09_09h55.01.042,forced_choiceRT,2021.1.2,MacIntel,60.0024001,,,,,,,,8,Fast,j,1,1.8039,5,0,20,3,1,,,,,
,1.16,,,,,,,,,g.PNG,g,61140d2c5d85c524932a2c59,2021-09-09_09h55.01.042,forced_choiceRT,2021.1.2,MacIntel,60.0024001,,,,,,,,8,Fast,h,0,1.833,5,1,21,1,1,,,,,
,1.91,,,,,,,,,f.PNG,f,61140d2c5d85c524932a2c59,2021-09-09_09h55.01.042,forced_choiceRT,2021.1.2,MacIntel,60.0024001,,,,,,,,8,Ontime,g,0,2.0058,5,2,22,0,1,,,,,
,0.59,,,,,,,,,j.PNG,j,61140d2c5d85c524932a2c59,2021-09-09_09h55.01.042,forced_choiceRT,2021.1.2,MacIntel,60.0024001,,,,,,,,8,Ontime,j,1,2.0799,5,3,23,3,1,,,,,
,0.97,,,,,,,,,h.PNG,h,61140d2c5d85c524932a2c59,2021-09-09_09h55.01.042,forced_choiceRT,2021.1.2,MacIntel,60.0024001,,,,,,,,8,Ontime,h,1,1.9832,6,0,24,2,1,,,,,
,1.45,,,,,,,,,g.PNG,g,61140d2c5d85c524932a2c59,2021-09-09_09h55.01.042,forced_choiceRT,2021.1.2,MacIntel,60.0024001,,,,,,,,8,Ontime,g,1,2.0545,6,1,25,1,1,,,,,
,0.16,,,,,,,,,h.PNG,h,61140d2c5d85c524932a2c59,2021-09-09_09h55.01.042,forced_choiceRT,2021.1.2,MacIntel,60.0024001,,,,,,,,8,Ontime,h,1,2.0324,6,2,26,2,1,,,,,
,0.2,,,,,,,,,f.PNG,f,61140d2c5d85c524932a2c59,2021-09-09_09h55.01.042,forced_choiceRT,2021.1.2,MacIntel,60.0024001,,,,,,,,8,Ontime,f,1,2.0331,6,3,27,0,1,,,,,
,0.06,,,,,,,,,f.PNG,f,61140d2c5d85c524932a2c59,2021-09-09_09h55.01.042,forced_choiceRT,2021.1.2,MacIntel,60.0024001,,,,,,,,8,Ontime,f,1,2.0515,7,0,28,0,1,,,,,
,0.94,,,,,,,,,j.PNG,j,61140d2c5d85c524932a2c59,2021-09-09_09h55.01.042,forced_choiceRT,2021.1.2,MacIntel,60.0024001,,,,,,,,8,Ontime,j,1,2.0689,7,1,29,3,1,,,,,
,1.19,,,,,,,,,h.PNG,h,61140d2c5d85c524932a2c59,2021-09-09_09h55.01.042,forced_choiceRT,2021.1.2,MacIntel,60.0024001,,,,,,,,8,Slow,h,1,2.1059,7,2,30,2,1,,,,,
,1.49,,,,,,,,,f.PNG,f,61140d2c5d85c524932a2c59,2021-09-09_09h55.01.042,forced_choiceRT,2021.1.2,MacIntel,60.0024001,,,,,,,,8,Slow,f,1,2.1512,7,3,31,0,1,,,,,
,0.13,,,,,,,,,h.PNG,h,61140d2c5d85c524932a2c59,2021-09-09_09h55.01.042,forced_choiceRT,2021.1.2,MacIntel,60.0024001,,,,,,,,8,Ontime,h,1,2.0409,8,0,32,2,1,,,,,
,0.46,,,,,,,,,g.PNG,g,61140d2c5d85c524932a2c59,2021-09-09_09h55.01.042,forced_choiceRT,2021.1.2,MacIntel,60.0024001,,,,,,,,8,Fast,h,0,0.3498,8,1,33,1,1,,,,,
,0.09,,,,,,,,,j.PNG,j,61140d2c5d85c524932a2c59,2021-09-09_09h55.01.042,forced_choiceRT,2021.1.2,MacIntel,60.0024001,,,,,,,,8,Ontime,j,1,2.0355,8,2,34,3,1,,,,,
,1.3,,,,,,,,,f.PNG,f,61140d2c5d85c524932a2c59,2021-09-09_09h55.01.042,forced_choiceRT,2021.1.2,MacIntel,60.0024001,,,,,,,,8,Ontime,f,1,2.0432,8,3,35,0,1,,,,,
,1.78,,,,,,,,,g.PNG,g,61140d2c5d85c524932a2c59,2021-09-09_09h55.01.042,forced_choiceRT,2021.1.2,MacIntel,60.0024001,,,,,,,,8,Ontime,g,1,2.06,9,0,36,1,1,,,,,
,0.9,,,,,,,,,f.PNG,f,61140d2c5d85c524932a2c59,2021-09-09_09h55.01.042,forced_choiceRT,2021.1.2,MacIntel,60.0024001,,,,,,,,8,Ontime,f,1,2.0673,9,1,37,0,1,,,,,
,0.7,,,,,,,,,h.PNG,h,61140d2c5d85c524932a2c59,2021-09-09_09h55.01.042,forced_choiceRT,2021.1.2,MacIntel,60.0024001,,,,,,,,8,Ontime,h,1,2.0187,9,2,38,2,1,,,,,
,0.74,,,,,,,,,j.PNG,j,61140d2c5d85c524932a2c59,2021-09-09_09h55.01.042,forced_choiceRT,2021.1.2,MacIntel,60.0024001,,,,,,,,8,Ontime,j,1,2.0845,9,3,39,3,1,,,,,
,,,,,,,,,,,,61140d2c5d85c524932a2c59,2021-09-09_09h55.01.042,forced_choiceRT,2021.1.2,MacIntel,60.0024001,,,,,,,,,,,,,,,,,,7,0,7,0,1
,0.64,,,,,,,,,g.PNG,g,61140d2c5d85c524932a2c59,2021-09-09_09h55.01.042,forced_choiceRT,2021.1.2,MacIntel,60.0024001,,,,,,,,9,Ontime,g,1,1.9434,0,0,0,1,1,,,,,
,1.95,,,,,,,,,f.PNG,f,61140d2c5d85c524932a2c59,2021-09-09_09h55.01.042,forced_choiceRT,2021.1.2,MacIntel,60.0024001,,,,,,,,9,Ontime,h,0,2.0079,0,1,1,0,1,,,,,
,1.53,,,,,,,,,g.PNG,g,61140d2c5d85c524932a2c59,2021-09-09_09h55.01.042,forced_choiceRT,2021.1.2,MacIntel,60.0024001,,,,,,,,9,Slow,g,1,2.1065,0,2,2,1,1,,,,,
,0.74,,,,,,,,,j.PNG,j,61140d2c5d85c524932a2c59,2021-09-09_09h55.01.042,forced_choiceRT,2021.1.2,MacIntel,60.0024001,,,,,,,,9,Ontime,j,1,1.9903,0,3,3,3,1,,,,,
,0.43,,,,,,,,,f.PNG,f,61140d2c5d85c524932a2c59,2021-09-09_09h55.01.042,forced_choiceRT,2021.1.2,MacIntel,60.0024001,,,,,,,,9,Ontime,f,1,1.9376,1,0,4,0,1,,,,,
,1.09,,,,,,,,,j.PNG,j,61140d2c5d85c524932a2c59,2021-09-09_09h55.01.042,forced_choiceRT,2021.1.2,MacIntel,60.0024001,,,,,,,,9,Ontime,j,1,2.0158,1,1,5,3,1,,,,,
,1.39,,,,,,,,,f.PNG,f,61140d2c5d85c524932a2c59,2021-09-09_09h55.01.042,forced_choiceRT,2021.1.2,MacIntel,60.0024001,,,,,,,,9,Ontime,f,1,1.9898,1,2,6,0,1,,,,,
,0.59,,,,,,,,,j.PNG,j,61140d2c5d85c524932a2c59,2021-09-09_09h55.01.042,forced_choiceRT,2021.1.2,MacIntel,60.0024001,,,,,,,,9,Ontime,j,1,2.0506,1,3,7,3,1,,,,,
,1.26,,,,,,,,,h.PNG,h,61140d2c5d85c524932a2c59,2021-09-09_09h55.01.042,forced_choiceRT,2021.1.2,MacIntel,60.0024001,,,,,,,,9,Ontime,h,1,2.0421,2,0,8,2,1,,,,,
,1.09,,,,,,,,,h.PNG,h,61140d2c5d85c524932a2c59,2021-09-09_09h55.01.042,forced_choiceRT,2021.1.2,MacIntel,60.0024001,,,,,,,,9,Ontime,h,1,2.0547,2,1,9,2,1,,,,,
,1.74,,,,,,,,,g.PNG,g,61140d2c5d85c524932a2c59,2021-09-09_09h55.01.042,forced_choiceRT,2021.1.2,MacIntel,60.0024001,,,,,,,,9,Ontime,g,1,2.0549,2,2,10,1,1,,,,,
,0.2,,,,,,,,,f.PNG,f,61140d2c5d85c524932a2c59,2021-09-09_09h55.01.042,forced_choiceRT,2021.1.2,MacIntel,60.0024001,,,,,,,,9,Ontime,f,1,1.9525,2,3,11,0,1,,,,,
,0.29,,,,,,,,,j.PNG,j,61140d2c5d85c524932a2c59,2021-09-09_09h55.01.042,forced_choiceRT,2021.1.2,MacIntel,60.0024001,,,,,,,,9,Ontime,j,1,1.9764,3,0,12,3,1,,,,,
,0.26,,,,,,,,,f.PNG,f,61140d2c5d85c524932a2c59,2021-09-09_09h55.01.042,forced_choiceRT,2021.1.2,MacIntel,60.0024001,,,,,,,,9,Ontime,f,1,1.9674,3,1,13,0,1,,,,,
,1.97,,,,,,,,,f.PNG,f,61140d2c5d85c524932a2c59,2021-09-09_09h55.01.042,forced_choiceRT,2021.1.2,MacIntel,60.0024001,,,,,,,,9,Ontime,h,0,2.0401,3,2,14,0,1,,,,,
,0.48,,,,,,,,,j.PNG,j,61140d2c5d85c524932a2c59,2021-09-09_09h55.01.042,forced_choiceRT,2021.1.2,MacIntel,60.0024001,,,,,,,,9,Ontime,j,1,1.9737,3,3,15,3,1,,,,,
,0.56,,,,,,,,,f.PNG,f,61140d2c5d85c524932a2c59,2021-09-09_09h55.01.042,forced_choiceRT,2021.1.2,MacIntel,60.0024001,,,,,,,,9,Ontime,f,1,1.9418,4,0,16,0,1,,,,,
,1.37,,,,,,,,,j.PNG,j,61140d2c5d85c524932a2c59,2021-09-09_09h55.01.042,forced_choiceRT,2021.1.2,MacIntel,60.0024001,,,,,,,,9,Ontime,j,1,2.0327,4,1,17,3,1,,,,,
,0.35,,,,,,,,,j.PNG,j,61140d2c5d85c524932a2c59,2021-09-09_09h55.01.042,forced_choiceRT,2021.1.2,MacIntel,60.0024001,,,,,,,,9,Ontime,j,1,2.0326,4,2,18,3,1,,,,,
,0.19,,,,,,,,,g.PNG,g,61140d2c5d85c524932a2c59,2021-09-09_09h55.01.042,forced_choiceRT,2021.1.2,MacIntel,60.0024001,,,,,,,,9,Ontime,g,1,2.003,4,3,19,1,1,,,,,
,1.84,,,,,,,,,h.PNG,h,61140d2c5d85c524932a2c59,2021-09-09_09h55.01.042,forced_choiceRT,2021.1.2,MacIntel,60.0024001,,,,,,,,9,Ontime,g,0,2.0846,5,0,20,2,1,,,,,
,0.51,,,,,,,,,h.PNG,h,61140d2c5d85c524932a2c59,2021-09-09_09h55.01.042,forced_choiceRT,2021.1.2,MacIntel,60.0024001,,,,,,,,9,Ontime,h,1,1.9524,5,1,21,2,1,,,,,
,1.95,,,,,,,,,h.PNG,h,61140d2c5d85c524932a2c59,2021-09-09_09h55.01.042,forced_choiceRT,2021.1.2,MacIntel,60.0024001,,,,,,,,9,Ontime,j,0,1.9889,5,2,22,2,1,,,,,
,0.17,,,,,,,,,h.PNG,h,61140d2c5d85c524932a2c59,2021-09-09_09h55.01.042,forced_choiceRT,2021.1.2,MacIntel,60.0024001,,,,,,,,9,Ontime,h,1,1.9666,5,3,23,2,1,,,,,
,1.09,,,,,,,,,g.PNG,g,61140d2c5d85c524932a2c59,2021-09-09_09h55.01.042,forced_choiceRT,2021.1.2,MacIntel,60.0024001,,,,,,,,9,Ontime,g,1,2.0503,6,0,24,1,1,,,,,
,0.44,,,,,,,,,g.PNG,g,61140d2c5d85c524932a2c59,2021-09-09_09h55.01.042,forced_choiceRT,2021.1.2,MacIntel,60.0024001,,,,,,,,9,Ontime,g,1,1.9696,6,1,25,1,1,,,,,
,1.44,,,,,,,,,j.PNG,j,61140d2c5d85c524932a2c59,2021-09-09_09h55.01.042,forced_choiceRT,2021.1.2,MacIntel,60.0024001,,,,,,,,9,Ontime,j,1,2.0683,6,2,26,3,1,,,,,
,0.33,,,,,,,,,g.PNG,g,61140d2c5d85c524932a2c59,2021-09-09_09h55.01.042,forced_choiceRT,2021.1.2,MacIntel,60.0024001,,,,,,,,9,Ontime,g,1,2,6,3,27,1,1,,,,,
,0.48,,,,,,,,,h.PNG,h,61140d2c5d85c524932a2c59,2021-09-09_09h55.01.042,forced_choiceRT,2021.1.2,MacIntel,60.0024001,,,,,,,,9,Ontime,h,1,2.0681,7,0,28,2,1,,,,,
,1.99,,,,,,,,,f.PNG,f,61140d2c5d85c524932a2c59,2021-09-09_09h55.01.042,forced_choiceRT,2021.1.2,MacIntel,60.0024001,,,,,,,,9,Ontime,j,0,2.0823,7,1,29,0,1,,,,,
,0.11,,,,,,,,,g.PNG,g,61140d2c5d85c524932a2c59,2021-09-09_09h55.01.042,forced_choiceRT,2021.1.2,MacIntel,60.0024001,,,,,,,,9,Fast,g,1,1.9,7,2,30,1,1,,,,,
,1.06,,,,,,,,,f.PNG,f,61140d2c5d85c524932a2c59,2021-09-09_09h55.01.042,forced_choiceRT,2021.1.2,MacIntel,60.0024001,,,,,,,,9,Fast,f,1,1.7681,7,3,31,0,1,,,,,
,0.63,,,,,,,,,j.PNG,j,61140d2c5d85c524932a2c59,2021-09-09_09h55.01.042,forced_choiceRT,2021.1.2,MacIntel,60.0024001,,,,,,,,9,Ontime,j,1,1.9906,8,0,32,3,1,,,,,
,0.79,,,,,,,,,h.PNG,h,61140d2c5d85c524932a2c59,2021-09-09_09h55.01.042,forced_choiceRT,2021.1.2,MacIntel,60.0024001,,,,,,,,9,Ontime,h,1,2.0526,8,1,33,2,1,,,,,
,0.45,,,,,,,,,g.PNG,g,61140d2c5d85c524932a2c59,2021-09-09_09h55.01.042,forced_choiceRT,2021.1.2,MacIntel,60.0024001,,,,,,,,9,Ontime,g,1,2.0669,8,2,34,1,1,,,,,
,0.06,,,,,,,,,j.PNG,j,61140d2c5d85c524932a2c59,2021-09-09_09h55.01.042,forced_choiceRT,2021.1.2,MacIntel,60.0024001,,,,,,,,9,Ontime,j,1,1.997,8,3,35,3,1,,,,,
,0.88,,,,,,,,,g.PNG,g,61140d2c5d85c524932a2c59,2021-09-09_09h55.01.042,forced_choiceRT,2021.1.2,MacIntel,60.0024001,,,,,,,,9,Ontime,g,1,2.0095,9,0,36,1,1,,,,,
,1.2,,,,,,,,,f.PNG,f,61140d2c5d85c524932a2c59,2021-09-09_09h55.01.042,forced_choiceRT,2021.1.2,MacIntel,60.0024001,,,,,,,,9,Ontime,f,1,2.0158,9,1,37,0,1,,,,,
,0.6,,,,,,,,,h.PNG,h,61140d2c5d85c524932a2c59,2021-09-09_09h55.01.042,forced_choiceRT,2021.1.2,MacIntel,60.0024001,,,,,,,,9,Ontime,h,1,2.0008,9,2,38,2,1,,,,,
,1.05,,,,,,,,,h.PNG,h,61140d2c5d85c524932a2c59,2021-09-09_09h55.01.042,forced_choiceRT,2021.1.2,MacIntel,60.0024001,,,,,,,,9,Ontime,h,1,1.9337,9,3,39,2,1,,,,,
,,,,,,,,,,,,61140d2c5d85c524932a2c59,2021-09-09_09h55.01.042,forced_choiceRT,2021.1.2,MacIntel,60.0024001,,,,,,,,,,,,,,,,,,8,0,8,0,1
,0.44,,,,,,,,,f.PNG,f,61140d2c5d85c524932a2c59,2021-09-09_09h55.01.042,forced_choiceRT,2021.1.2,MacIntel,60.0024001,,,,,,,,10,Ontime,f,1,1.9092,0,0,0,0,1,,,,,
,0.79,,,,,,,,,f.PNG,f,61140d2c5d85c524932a2c59,2021-09-09_09h55.01.042,forced_choiceRT,2021.1.2,MacIntel,60.0024001,,,,,,,,10,Ontime,f,1,1.9826,0,1,1,0,1,,,,,
,0.88,,,,,,,,,f.PNG,f,61140d2c5d85c524932a2c59,2021-09-09_09h55.01.042,forced_choiceRT,2021.1.2,MacIntel,60.0024001,,,,,,,,10,Ontime,f,1,2.0148,0,2,2,0,1,,,,,
,1.62,,,,,,,,,f.PNG,f,61140d2c5d85c524932a2c59,2021-09-09_09h55.01.042,forced_choiceRT,2021.1.2,MacIntel,60.0024001,,,,,,,,10,Ontime,g,0,2.0831,0,3,3,0,1,,,,,
,1.7,,,,,,,,,h.PNG,h,61140d2c5d85c524932a2c59,2021-09-09_09h55.01.042,forced_choiceRT,2021.1.2,MacIntel,60.0024001,,,,,,,,10,Slow,g,0,2.1844,1,0,4,2,1,,,,,
,1.04,,,,,,,,,j.PNG,j,61140d2c5d85c524932a2c59,2021-09-09_09h55.01.042,forced_choiceRT,2021.1.2,MacIntel,60.0024001,,,,,,,,10,Ontime,j,1,2.0383,1,1,5,3,1,,,,,
,0.24,,,,,,,,,h.PNG,h,61140d2c5d85c524932a2c59,2021-09-09_09h55.01.042,forced_choiceRT,2021.1.2,MacIntel,60.0024001,,,,,,,,10,Ontime,h,1,1.968,1,2,6,2,1,,,,,
,1.75,,,,,,,,,h.PNG,h,61140d2c5d85c524932a2c59,2021-09-09_09h55.01.042,forced_choiceRT,2021.1.2,MacIntel,60.0024001,,,,,,,,10,Ontime,h,1,2.0161,1,3,7,2,1,,,,,
,1.87,,,,,,,,,g.PNG,g,61140d2c5d85c524932a2c59,2021-09-09_09h55.01.042,forced_choiceRT,2021.1.2,MacIntel,60.0024001,,,,,,,,10,Ontime,g,1,2.0672,2,0,8,1,1,,,,,
,0,,,,,,,,,j.PNG,j,61140d2c5d85c524932a2c59,2021-09-09_09h55.01.042,forced_choiceRT,2021.1.2,MacIntel,60.0024001,,,,,,,,10,Ontime,j,1,2.064,2,1,9,3,1,,,,,
,1.39,,,,,,,,,j.PNG,j,61140d2c5d85c524932a2c59,2021-09-09_09h55.01.042,forced_choiceRT,2021.1.2,MacIntel,60.0024001,,,,,,,,10,Ontime,j,1,2.0519,2,2,10,3,1,,,,,
,1.49,,,,,,,,,j.PNG,j,61140d2c5d85c524932a2c59,2021-09-09_09h55.01.042,forced_choiceRT,2021.1.2,MacIntel,60.0024001,,,,,,,,10,Ontime,j,1,2.0339,2,3,11,3,1,,,,,
,1.07,,,,,,,,,g.PNG,g,61140d2c5d85c524932a2c59,2021-09-09_09h55.01.042,forced_choiceRT,2021.1.2,MacIntel,60.0024001,,,,,,,,10,Ontime,g,1,2.0045,3,0,12,1,1,,,,,
,0.73,,,,,,,,,g.PNG,g,61140d2c5d85c524932a2c59,2021-09-09_09h55.01.042,forced_choiceRT,2021.1.2,MacIntel,60.0024001,,,,,,,,10,Ontime,g,1,2.0368,3,1,13,1,1,,,,,
,0.44,,,,,,,,,f.PNG,f,61140d2c5d85c524932a2c59,2021-09-09_09h55.01.042,forced_choiceRT,2021.1.2,MacIntel,60.0024001,,,,,,,,10,Ontime,f,1,2.0325,3,2,14,0,1,,,,,
,0.65,,,,,,,,,j.PNG,j,61140d2c5d85c524932a2c59,2021-09-09_09h55.01.042,forced_choiceRT,2021.1.2,MacIntel,60.0024001,,,,,,,,10,Ontime,j,1,2.039,3,3,15,3,1,,,,,
,1.61,,,,,,,,,h.PNG,h,61140d2c5d85c524932a2c59,2021-09-09_09h55.01.042,forced_choiceRT,2021.1.2,MacIntel,60.0024001,,,,,,,,10,Slow,j,0,2.1407,4,0,16,2,1,,,,,
,1.39,,,,,,,,,g.PNG,g,61140d2c5d85c524932a2c59,2021-09-09_09h55.01.042,forced_choiceRT,2021.1.2,MacIntel,60.0024001,,,,,,,,10,Ontime,g,1,2.0404,4,1,17,1,1,,,,,
,0.58,,,,,,,,,g.PNG,g,61140d2c5d85c524932a2c59,2021-09-09_09h55.01.042,forced_choiceRT,2021.1.2,MacIntel,60.0024001,,,,,,,,10,Ontime,g,1,1.9892,4,2,18,1,1,,,,,
,0.34,,,,,,,,,g.PNG,g,61140d2c5d85c524932a2c59,2021-09-09_09h55.01.042,forced_choiceRT,2021.1.2,MacIntel,60.0024001,,,,,,,,10,Ontime,g,1,1.9584,4,3,19,1,1,,,,,
,1.92,,,,,,,,,j.PNG,j,61140d2c5d85c524932a2c59,2021-09-09_09h55.01.042,forced_choiceRT,2021.1.2,MacIntel,60.0024001,,,,,,,,10,Ontime,g,0,1.9389,5,0,20,3,1,,,,,
,0.15,,,,,,,,,g.PNG,g,61140d2c5d85c524932a2c59,2021-09-09_09h55.01.042,forced_choiceRT,2021.1.2,MacIntel,60.0024001,,,,,,,,10,Ontime,g,1,1.9952,5,1,21,1,1,,,,,
,0.9,,,,,,,,,j.PNG,j,61140d2c5d85c524932a2c59,2021-09-09_09h55.01.042,forced_choiceRT,2021.1.2,MacIntel,60.0024001,,,,,,,,10,Ontime,j,1,1.9513,5,2,22,3,1,,,,,
,0.88,,,,,,,,,g.PNG,g,61140d2c5d85c524932a2c59,2021-09-09_09h55.01.042,forced_choiceRT,2021.1.2,MacIntel,60.0024001,,,,,,,,10,Ontime,g,1,1.9213,5,3,23,1,1,,,,,
,1.18,,,,,,,,,h.PNG,h,61140d2c5d85c524932a2c59,2021-09-09_09h55.01.042,forced_choiceRT,2021.1.2,MacIntel,60.0024001,,,,,,,,10,Ontime,h,1,1.9912,6,0,24,2,1,,,,,
,1.87,,,,,,,,,f.PNG,f,61140d2c5d85c524932a2c59,2021-09-09_09h55.01.042,forced_choiceRT,2021.1.2,MacIntel,60.0024001,,,,,,,,10,Ontime,h,0,2.0181,6,1,25,0,1,,,,,
,1.84,,,,,,,,,f.PNG,f,61140d2c5d85c524932a2c59,2021-09-09_09h55.01.042,forced_choiceRT,2021.1.2,MacIntel,60.0024001,,,,,,,,10,Ontime,f,1,2.0729,6,2,26,0,1,,,,,
,0.17,,,,,,,,,g.PNG,g,61140d2c5d85c524932a2c59,2021-09-09_09h55.01.042,forced_choiceRT,2021.1.2,MacIntel,60.0024001,,,,,,,,10,Ontime,g,1,1.9006,6,3,27,1,1,,,,,
,0.78,,,,,,,,,j.PNG,j,61140d2c5d85c524932a2c59,2021-09-09_09h55.01.042,forced_choiceRT,2021.1.2,MacIntel,60.0024001,,,,,,,,10,Ontime,j,1,1.9666,7,0,28,3,1,,,,,
,0.78,,,,,,,,,h.PNG,h,61140d2c5d85c524932a2c59,2021-09-09_09h55.01.042,forced_choiceRT,2021.1.2,MacIntel,60.0024001,,,,,,,,10,Ontime,h,1,1.9499,7,1,29,2,1,,,,,
,0.49,,,,,,,,,f.PNG,f,61140d2c5d85c524932a2c59,2021-09-09_09h55.01.042,forced_choiceRT,2021.1.2,MacIntel,60.0024001,,,,,,,,10,Ontime,f,1,1.9304,7,2,30,0,1,,,,,
,0.35,,,,,,,,,f.PNG,f,61140d2c5d85c524932a2c59,2021-09-09_09h55.01.042,forced_choiceRT,2021.1.2,MacIntel,60.0024001,,,,,,,,10,Ontime,f,1,2.0593,7,3,31,0,1,,,,,
,1.76,,,,,,,,,h.PNG,h,61140d2c5d85c524932a2c59,2021-09-09_09h55.01.042,forced_choiceRT,2021.1.2,MacIntel,60.0024001,,,,,,,,10,Ontime,h,1,1.9665,8,0,32,2,1,,,,,
,0.78,,,,,,,,,h.PNG,h,61140d2c5d85c524932a2c59,2021-09-09_09h55.01.042,forced_choiceRT,2021.1.2,MacIntel,60.0024001,,,,,,,,10,Ontime,h,1,1.9356,8,1,33,2,1,,,,,
,1.02,,,,,,,,,h.PNG,h,61140d2c5d85c524932a2c59,2021-09-09_09h55.01.042,forced_choiceRT,2021.1.2,MacIntel,60.0024001,,,,,,,,10,Ontime,h,1,1.9343,8,2,34,2,1,,,,,
,1.34,,,,,,,,,j.PNG,j,61140d2c5d85c524932a2c59,2021-09-09_09h55.01.042,forced_choiceRT,2021.1.2,MacIntel,60.0024001,,,,,,,,10,Fast,h,0,1.8333,8,3,35,3,1,,,,,
,0.26,,,,,,,,,f.PNG,f,61140d2c5d85c524932a2c59,2021-09-09_09h55.01.042,forced_choiceRT,2021.1.2,MacIntel,60.0024001,,,,,,,,10,Fast,f,1,1.8587,9,0,36,0,1,,,,,
,0.24,,,,,,,,,j.PNG,j,61140d2c5d85c524932a2c59,2021-09-09_09h55.01.042,forced_choiceRT,2021.1.2,MacIntel,60.0024001,,,,,,,,10,Ontime,j,1,1.984,9,1,37,3,1,,,,,
,1.53,,,,,,,,,g.PNG,g,61140d2c5d85c524932a2c59,2021-09-09_09h55.01.042,forced_choiceRT,2021.1.2,MacIntel,60.0024001,,,,,,,,10,Ontime,h,0,2.0004,9,2,38,1,1,,,,,
,1.59,,,,,,,,,h.PNG,h,61140d2c5d85c524932a2c59,2021-09-09_09h55.01.042,forced_choiceRT,2021.1.2,MacIntel,60.0024001,,,,,,,,10,Ontime,h,1,2.0481,9,3,39,2,1,,,,,
,,,,,,,,,,,,61140d2c5d85c524932a2c59,2021-09-09_09h55.01.042,forced_choiceRT,2021.1.2,MacIntel,60.0024001,,,,,,,,,,,,,,,,,,9,0,9,0,1
