IP_Addresss,target_onset,trial_resp_sp.keys,trial_resp_sp.corr,trial_resp_sp.rt,trials_train_loop.thisRepN,trials_train_loop.thisTrialN,trials_train_loop.thisN,trials_train_loop.thisIndex,trials_train_loop.ran,pic,correct_key,participant,date,expName,psychopyVersion,OS,frameRate,trial_resp_timing.keys,trial_resp_timing.rt,trials_train_timing.thisRepN,trials_train_timing.thisTrialN,trials_train_timing.thisN,trials_train_timing.thisIndex,trials_train_timing.ran,block_id,ontime,forcedRT_resp.keys,forcedRT_resp.corr,forcedRT_resp.rt,trials.thisRepN,trials.thisTrialN,trials.thisN,trials.thisIndex,trials.ran,blocks.thisRepN,blocks.thisTrialN,blocks.thisN,blocks.thisIndex,blocks.ran
70.120.6.217,0,g,1,2.5494,0,0,0,1,1,g.PNG,g,611431b8dfc10c8bb1393e8c,2021-09-08_20h03.57.403,forced_choiceRT,2021.1.2,MacIntel,59.97361161,,,,,,,,,,,,,,,,,,,,,,
,0,h,1,1.1004,0,1,1,2,1,h.PNG,h,611431b8dfc10c8bb1393e8c,2021-09-08_20h03.57.403,forced_choiceRT,2021.1.2,MacIntel,59.97361161,,,,,,,,,,,,,,,,,,,,,,
,0,f,1,0.7514,0,2,2,0,1,f.PNG,f,611431b8dfc10c8bb1393e8c,2021-09-08_20h03.57.403,forced_choiceRT,2021.1.2,MacIntel,59.97361161,,,,,,,,,,,,,,,,,,,,,,
,0,j,1,1.0882,0,3,3,3,1,j.PNG,j,611431b8dfc10c8bb1393e8c,2021-09-08_20h03.57.403,forced_choiceRT,2021.1.2,MacIntel,59.97361161,,,,,,,,,,,,,,,,,,,,,,
,0,g,1,0.901,1,0,4,1,1,g.PNG,g,611431b8dfc10c8bb1393e8c,2021-09-08_20h03.57.403,forced_choiceRT,2021.1.2,MacIntel,59.97361161,,,,,,,,,,,,,,,,,,,,,,
,0,h,1,0.7353,1,1,5,2,1,h.PNG,h,611431b8dfc10c8bb1393e8c,2021-09-08_20h03.57.403,forced_choiceRT,2021.1.2,MacIntel,59.97361161,,,,,,,,,,,,,,,,,,,,,,
,0,j,0,1.2339,1,2,6,1,1,g.PNG,g,611431b8dfc10c8bb1393e8c,2021-09-08_20h03.57.403,forced_choiceRT,2021.1.2,MacIntel,59.97361161,,,,,,,,,,,,,,,,,,,,,,
,0,h,1,2.1542,1,3,7,2,1,h.PNG,h,611431b8dfc10c8bb1393e8c,2021-09-08_20h03.57.403,forced_choiceRT,2021.1.2,MacIntel,59.97361161,,,,,,,,,,,,,,,,,,,,,,
,0,h,1,0.8674,2,0,8,2,1,h.PNG,h,611431b8dfc10c8bb1393e8c,2021-09-08_20h03.57.403,forced_choiceRT,2021.1.2,MacIntel,59.97361161,,,,,,,,,,,,,,,,,,,,,,
,0,h,1,0.6512,2,1,9,2,1,h.PNG,h,611431b8dfc10c8bb1393e8c,2021-09-08_20h03.57.403,forced_choiceRT,2021.1.2,MacIntel,59.97361161,,,,,,,,,,,,,,,,,,,,,,
,0,f,1,0.8855,2,2,10,0,1,f.PNG,f,611431b8dfc10c8bb1393e8c,2021-09-08_20h03.57.403,forced_choiceRT,2021.1.2,MacIntel,59.97361161,,,,,,,,,,,,,,,,,,,,,,
,0,f,1,0.8012,2,3,11,0,1,f.PNG,f,611431b8dfc10c8bb1393e8c,2021-09-08_20h03.57.403,forced_choiceRT,2021.1.2,MacIntel,59.97361161,,,,,,,,,,,,,,,,,,,,,,
,0,g,1,0.8517,3,0,12,1,1,g.PNG,g,611431b8dfc10c8bb1393e8c,2021-09-08_20h03.57.403,forced_choiceRT,2021.1.2,MacIntel,59.97361161,,,,,,,,,,,,,,,,,,,,,,
,0,j,1,0.8704,3,1,13,3,1,j.PNG,j,611431b8dfc10c8bb1393e8c,2021-09-08_20h03.57.403,forced_choiceRT,2021.1.2,MacIntel,59.97361161,,,,,,,,,,,,,,,,,,,,,,
,0,h,1,0.8695,3,2,14,2,1,h.PNG,h,611431b8dfc10c8bb1393e8c,2021-09-08_20h03.57.403,forced_choiceRT,2021.1.2,MacIntel,59.97361161,,,,,,,,,,,,,,,,,,,,,,
,0,j,1,1.5528,3,3,15,3,1,j.PNG,j,611431b8dfc10c8bb1393e8c,2021-09-08_20h03.57.403,forced_choiceRT,2021.1.2,MacIntel,59.97361161,,,,,,,,,,,,,,,,,,,,,,
,0,h,1,0.8983,4,0,16,2,1,h.PNG,h,611431b8dfc10c8bb1393e8c,2021-09-08_20h03.57.403,forced_choiceRT,2021.1.2,MacIntel,59.97361161,,,,,,,,,,,,,,,,,,,,,,
,0,j,1,0.8,4,1,17,3,1,j.PNG,j,611431b8dfc10c8bb1393e8c,2021-09-08_20h03.57.403,forced_choiceRT,2021.1.2,MacIntel,59.97361161,,,,,,,,,,,,,,,,,,,,,,
,0,j,1,1.0169,4,2,18,3,1,j.PNG,j,611431b8dfc10c8bb1393e8c,2021-09-08_20h03.57.403,forced_choiceRT,2021.1.2,MacIntel,59.97361161,,,,,,,,,,,,,,,,,,,,,,
,0,g,1,0.9001,4,3,19,1,1,g.PNG,g,611431b8dfc10c8bb1393e8c,2021-09-08_20h03.57.403,forced_choiceRT,2021.1.2,MacIntel,59.97361161,,,,,,,,,,,,,,,,,,,,,,
,0,h,1,1.2216,5,0,20,2,1,h.PNG,h,611431b8dfc10c8bb1393e8c,2021-09-08_20h03.57.403,forced_choiceRT,2021.1.2,MacIntel,59.97361161,,,,,,,,,,,,,,,,,,,,,,
,0,j,1,1.0181,5,1,21,3,1,j.PNG,j,611431b8dfc10c8bb1393e8c,2021-09-08_20h03.57.403,forced_choiceRT,2021.1.2,MacIntel,59.97361161,,,,,,,,,,,,,,,,,,,,,,
,0,f,1,0.8183,5,2,22,0,1,f.PNG,f,611431b8dfc10c8bb1393e8c,2021-09-08_20h03.57.403,forced_choiceRT,2021.1.2,MacIntel,59.97361161,,,,,,,,,,,,,,,,,,,,,,
,0,j,1,1.005,5,3,23,3,1,j.PNG,j,611431b8dfc10c8bb1393e8c,2021-09-08_20h03.57.403,forced_choiceRT,2021.1.2,MacIntel,59.97361161,,,,,,,,,,,,,,,,,,,,,,
,0,j,1,1.0169,6,0,24,3,1,j.PNG,j,611431b8dfc10c8bb1393e8c,2021-09-08_20h03.57.403,forced_choiceRT,2021.1.2,MacIntel,59.97361161,,,,,,,,,,,,,,,,,,,,,,
,0,g,1,0.7508,6,1,25,1,1,g.PNG,g,611431b8dfc10c8bb1393e8c,2021-09-08_20h03.57.403,forced_choiceRT,2021.1.2,MacIntel,59.97361161,,,,,,,,,,,,,,,,,,,,,,
,0,j,1,0.75,6,2,26,3,1,j.PNG,j,611431b8dfc10c8bb1393e8c,2021-09-08_20h03.57.403,forced_choiceRT,2021.1.2,MacIntel,59.97361161,,,,,,,,,,,,,,,,,,,,,,
,0,g,1,1.0013,6,3,27,1,1,g.PNG,g,611431b8dfc10c8bb1393e8c,2021-09-08_20h03.57.403,forced_choiceRT,2021.1.2,MacIntel,59.97361161,,,,,,,,,,,,,,,,,,,,,,
,0,g,1,0.6212,7,0,28,1,1,g.PNG,g,611431b8dfc10c8bb1393e8c,2021-09-08_20h03.57.403,forced_choiceRT,2021.1.2,MacIntel,59.97361161,,,,,,,,,,,,,,,,,,,,,,
,0,g,1,0.5719,7,1,29,1,1,g.PNG,g,611431b8dfc10c8bb1393e8c,2021-09-08_20h03.57.403,forced_choiceRT,2021.1.2,MacIntel,59.97361161,,,,,,,,,,,,,,,,,,,,,,
,0,f,1,0.6865,7,2,30,0,1,f.PNG,f,611431b8dfc10c8bb1393e8c,2021-09-08_20h03.57.403,forced_choiceRT,2021.1.2,MacIntel,59.97361161,,,,,,,,,,,,,,,,,,,,,,
,0,h,1,0.8466,7,3,31,2,1,h.PNG,h,611431b8dfc10c8bb1393e8c,2021-09-08_20h03.57.403,forced_choiceRT,2021.1.2,MacIntel,59.97361161,,,,,,,,,,,,,,,,,,,,,,
,0,f,1,0.7502,8,0,32,0,1,f.PNG,f,611431b8dfc10c8bb1393e8c,2021-09-08_20h03.57.403,forced_choiceRT,2021.1.2,MacIntel,59.97361161,,,,,,,,,,,,,,,,,,,,,,
,0,j,1,1.0309,8,1,33,3,1,j.PNG,j,611431b8dfc10c8bb1393e8c,2021-09-08_20h03.57.403,forced_choiceRT,2021.1.2,MacIntel,59.97361161,,,,,,,,,,,,,,,,,,,,,,
,0,h,1,0.8195,8,2,34,2,1,h.PNG,h,611431b8dfc10c8bb1393e8c,2021-09-08_20h03.57.403,forced_choiceRT,2021.1.2,MacIntel,59.97361161,,,,,,,,,,,,,,,,,,,,,,
,0,g,1,0.634,8,3,35,1,1,g.PNG,g,611431b8dfc10c8bb1393e8c,2021-09-08_20h03.57.403,forced_choiceRT,2021.1.2,MacIntel,59.97361161,,,,,,,,,,,,,,,,,,,,,,
,0,h,1,1.0351,9,0,36,2,1,h.PNG,h,611431b8dfc10c8bb1393e8c,2021-09-08_20h03.57.403,forced_choiceRT,2021.1.2,MacIntel,59.97361161,,,,,,,,,,,,,,,,,,,,,,
,0,j,1,0.6511,9,1,37,3,1,j.PNG,j,611431b8dfc10c8bb1393e8c,2021-09-08_20h03.57.403,forced_choiceRT,2021.1.2,MacIntel,59.97361161,,,,,,,,,,,,,,,,,,,,,,
,0,h,1,0.5638,9,2,38,2,1,h.PNG,h,611431b8dfc10c8bb1393e8c,2021-09-08_20h03.57.403,forced_choiceRT,2021.1.2,MacIntel,59.97361161,,,,,,,,,,,,,,,,,,,,,,
,0,j,1,0.6342,9,3,39,3,1,j.PNG,j,611431b8dfc10c8bb1393e8c,2021-09-08_20h03.57.403,forced_choiceRT,2021.1.2,MacIntel,59.97361161,,,,,,,,,,,,,,,,,,,,,,
,0,f,1,0.6709,10,0,40,0,1,f.PNG,f,611431b8dfc10c8bb1393e8c,2021-09-08_20h03.57.403,forced_choiceRT,2021.1.2,MacIntel,59.97361161,,,,,,,,,,,,,,,,,,,,,,
,0,j,1,0.9222,10,1,41,3,1,j.PNG,j,611431b8dfc10c8bb1393e8c,2021-09-08_20h03.57.403,forced_choiceRT,2021.1.2,MacIntel,59.97361161,,,,,,,,,,,,,,,,,,,,,,
,0,g,1,0.6134,10,2,42,1,1,g.PNG,g,611431b8dfc10c8bb1393e8c,2021-09-08_20h03.57.403,forced_choiceRT,2021.1.2,MacIntel,59.97361161,,,,,,,,,,,,,,,,,,,,,,
,0,g,1,0.6053,10,3,43,1,1,g.PNG,g,611431b8dfc10c8bb1393e8c,2021-09-08_20h03.57.403,forced_choiceRT,2021.1.2,MacIntel,59.97361161,,,,,,,,,,,,,,,,,,,,,,
,0,g,1,0.5845,11,0,44,1,1,g.PNG,g,611431b8dfc10c8bb1393e8c,2021-09-08_20h03.57.403,forced_choiceRT,2021.1.2,MacIntel,59.97361161,,,,,,,,,,,,,,,,,,,,,,
,0,f,1,0.6183,11,1,45,0,1,f.PNG,f,611431b8dfc10c8bb1393e8c,2021-09-08_20h03.57.403,forced_choiceRT,2021.1.2,MacIntel,59.97361161,,,,,,,,,,,,,,,,,,,,,,
,0,j,1,0.734,11,2,46,3,1,j.PNG,j,611431b8dfc10c8bb1393e8c,2021-09-08_20h03.57.403,forced_choiceRT,2021.1.2,MacIntel,59.97361161,,,,,,,,,,,,,,,,,,,,,,
,0,g,1,0.7317,11,3,47,1,1,g.PNG,g,611431b8dfc10c8bb1393e8c,2021-09-08_20h03.57.403,forced_choiceRT,2021.1.2,MacIntel,59.97361161,,,,,,,,,,,,,,,,,,,,,,
,0,f,1,0.7673,12,0,48,0,1,f.PNG,f,611431b8dfc10c8bb1393e8c,2021-09-08_20h03.57.403,forced_choiceRT,2021.1.2,MacIntel,59.97361161,,,,,,,,,,,,,,,,,,,,,,
,0,f,1,0.6345,12,1,49,0,1,f.PNG,f,611431b8dfc10c8bb1393e8c,2021-09-08_20h03.57.403,forced_choiceRT,2021.1.2,MacIntel,59.97361161,,,,,,,,,,,,,,,,,,,,,,
,0,h,1,0.7344,12,2,50,2,1,h.PNG,h,611431b8dfc10c8bb1393e8c,2021-09-08_20h03.57.403,forced_choiceRT,2021.1.2,MacIntel,59.97361161,,,,,,,,,,,,,,,,,,,,,,
,0,h,1,0.5998,12,3,51,2,1,h.PNG,h,611431b8dfc10c8bb1393e8c,2021-09-08_20h03.57.403,forced_choiceRT,2021.1.2,MacIntel,59.97361161,,,,,,,,,,,,,,,,,,,,,,
,0,h,1,0.5653,13,0,52,2,1,h.PNG,h,611431b8dfc10c8bb1393e8c,2021-09-08_20h03.57.403,forced_choiceRT,2021.1.2,MacIntel,59.97361161,,,,,,,,,,,,,,,,,,,,,,
,0,f,1,0.7833,13,1,53,0,1,f.PNG,f,611431b8dfc10c8bb1393e8c,2021-09-08_20h03.57.403,forced_choiceRT,2021.1.2,MacIntel,59.97361161,,,,,,,,,,,,,,,,,,,,,,
,0,j,1,0.7506,13,2,54,3,1,j.PNG,j,611431b8dfc10c8bb1393e8c,2021-09-08_20h03.57.403,forced_choiceRT,2021.1.2,MacIntel,59.97361161,,,,,,,,,,,,,,,,,,,,,,
,0,f,1,0.7176,13,3,55,0,1,f.PNG,f,611431b8dfc10c8bb1393e8c,2021-09-08_20h03.57.403,forced_choiceRT,2021.1.2,MacIntel,59.97361161,,,,,,,,,,,,,,,,,,,,,,
,0,f,1,0.531,14,0,56,0,1,f.PNG,f,611431b8dfc10c8bb1393e8c,2021-09-08_20h03.57.403,forced_choiceRT,2021.1.2,MacIntel,59.97361161,,,,,,,,,,,,,,,,,,,,,,
,0,g,1,0.6149,14,1,57,1,1,g.PNG,g,611431b8dfc10c8bb1393e8c,2021-09-08_20h03.57.403,forced_choiceRT,2021.1.2,MacIntel,59.97361161,,,,,,,,,,,,,,,,,,,,,,
,0,f,1,0.8494,14,2,58,0,1,f.PNG,f,611431b8dfc10c8bb1393e8c,2021-09-08_20h03.57.403,forced_choiceRT,2021.1.2,MacIntel,59.97361161,,,,,,,,,,,,,,,,,,,,,,
,0,f,1,0.6316,14,3,59,0,1,f.PNG,f,611431b8dfc10c8bb1393e8c,2021-09-08_20h03.57.403,forced_choiceRT,2021.1.2,MacIntel,59.97361161,,,,,,,,,,,,,,,,,,,,,,
,,,,,,,,,,,,611431b8dfc10c8bb1393e8c,2021-09-08_20h03.57.403,forced_choiceRT,2021.1.2,MacIntel,59.97361161,h,2.2574,0,0,0,0,1,,,,,,,,,,,,,,,
,,,,,,,,,,,,611431b8dfc10c8bb1393e8c,2021-09-08_20h03.57.403,forced_choiceRT,2021.1.2,MacIntel,59.97361161,j,2.0517,1,0,1,0,1,,,,,,,,,,,,,,,
,,,,,,,,,,,,611431b8dfc10c8bb1393e8c,2021-09-08_20h03.57.403,forced_choiceRT,2021.1.2,MacIntel,59.97361161,j,2.0882,2,0,2,0,1,,,,,,,,,,,,,,,
,,,,,,,,,,,,611431b8dfc10c8bb1393e8c,2021-09-08_20h03.57.403,forced_choiceRT,2021.1.2,MacIntel,59.97361161,f,2.0523,3,0,3,0,1,,,,,,,,,,,,,,,
,,,,,,,,,,,,611431b8dfc10c8bb1393e8c,2021-09-08_20h03.57.403,forced_choiceRT,2021.1.2,MacIntel,59.97361161,j,2.1354,4,0,4,0,1,,,,,,,,,,,,,,,
,,,,,,,,,,,,611431b8dfc10c8bb1393e8c,2021-09-08_20h03.57.403,forced_choiceRT,2021.1.2,MacIntel,59.97361161,f,2.1539,5,0,5,0,1,,,,,,,,,,,,,,,
,,,,,,,,,,,,611431b8dfc10c8bb1393e8c,2021-09-08_20h03.57.403,forced_choiceRT,2021.1.2,MacIntel,59.97361161,j,2.0687,6,0,6,0,1,,,,,,,,,,,,,,,
,,,,,,,,,,,,611431b8dfc10c8bb1393e8c,2021-09-08_20h03.57.403,forced_choiceRT,2021.1.2,MacIntel,59.97361161,f,2.0679,7,0,7,0,1,,,,,,,,,,,,,,,
,,,,,,,,,,,,611431b8dfc10c8bb1393e8c,2021-09-08_20h03.57.403,forced_choiceRT,2021.1.2,MacIntel,59.97361161,j,2.072,8,0,8,0,1,,,,,,,,,,,,,,,
,,,,,,,,,,,,611431b8dfc10c8bb1393e8c,2021-09-08_20h03.57.403,forced_choiceRT,2021.1.2,MacIntel,59.97361161,f,2.0546,9,0,9,0,1,,,,,,,,,,,,,,,
,,,,,,,,,,,,611431b8dfc10c8bb1393e8c,2021-09-08_20h03.57.403,forced_choiceRT,2021.1.2,MacIntel,59.97361161,j,2.1569,10,0,10,0,1,,,,,,,,,,,,,,,
,,,,,,,,,,,,611431b8dfc10c8bb1393e8c,2021-09-08_20h03.57.403,forced_choiceRT,2021.1.2,MacIntel,59.97361161,f,2.022,11,0,11,0,1,,,,,,,,,,,,,,,
,,,,,,,,,,,,611431b8dfc10c8bb1393e8c,2021-09-08_20h03.57.403,forced_choiceRT,2021.1.2,MacIntel,59.97361161,j,1.9868,12,0,12,0,1,,,,,,,,,,,,,,,
,,,,,,,,,,,,611431b8dfc10c8bb1393e8c,2021-09-08_20h03.57.403,forced_choiceRT,2021.1.2,MacIntel,59.97361161,f,1.9869,13,0,13,0,1,,,,,,,,,,,,,,,
,,,,,,,,,,,,611431b8dfc10c8bb1393e8c,2021-09-08_20h03.57.403,forced_choiceRT,2021.1.2,MacIntel,59.97361161,j,1.9697,14,0,14,0,1,,,,,,,,,,,,,,,
,,,,,,,,,,,,611431b8dfc10c8bb1393e8c,2021-09-08_20h03.57.403,forced_choiceRT,2021.1.2,MacIntel,59.97361161,f,2.0349,15,0,15,0,1,,,,,,,,,,,,,,,
,,,,,,,,,,,,611431b8dfc10c8bb1393e8c,2021-09-08_20h03.57.403,forced_choiceRT,2021.1.2,MacIntel,59.97361161,j,2.0031,16,0,16,0,1,,,,,,,,,,,,,,,
,,,,,,,,,,,,611431b8dfc10c8bb1393e8c,2021-09-08_20h03.57.403,forced_choiceRT,2021.1.2,MacIntel,59.97361161,f,2.0186,17,0,17,0,1,,,,,,,,,,,,,,,
,,,,,,,,,,,,611431b8dfc10c8bb1393e8c,2021-09-08_20h03.57.403,forced_choiceRT,2021.1.2,MacIntel,59.97361161,j,2.0528,18,0,18,0,1,,,,,,,,,,,,,,,
,,,,,,,,,,,,611431b8dfc10c8bb1393e8c,2021-09-08_20h03.57.403,forced_choiceRT,2021.1.2,MacIntel,59.97361161,f,2.0187,19,0,19,0,1,,,,,,,,,,,,,,,
,1.01,,,,,,,,,j.PNG,j,611431b8dfc10c8bb1393e8c,2021-09-08_20h03.57.403,forced_choiceRT,2021.1.2,MacIntel,59.97361161,,,,,,,,1,Ontime,h,0,2.0659,0,0,0,3,1,,,,,
,0.58,,,,,,,,,h.PNG,h,611431b8dfc10c8bb1393e8c,2021-09-08_20h03.57.403,forced_choiceRT,2021.1.2,MacIntel,59.97361161,,,,,,,,1,Fast,h,1,1.7168,0,1,1,2,1,,,,,
,0.92,,,,,,,,,f.PNG,f,611431b8dfc10c8bb1393e8c,2021-09-08_20h03.57.403,forced_choiceRT,2021.1.2,MacIntel,59.97361161,,,,,,,,1,Slow,h,0,15.1753,0,2,2,0,1,,,,,
,1.82,,,,,,,,,g.PNG,g,611431b8dfc10c8bb1393e8c,2021-09-08_20h03.57.403,forced_choiceRT,2021.1.2,MacIntel,59.97361161,,,,,,,,1,Slow,f,0,2.4023,0,3,3,1,1,,,,,
,0.98,,,,,,,,,h.PNG,h,611431b8dfc10c8bb1393e8c,2021-09-08_20h03.57.403,forced_choiceRT,2021.1.2,MacIntel,59.97361161,,,,,,,,1,Ontime,h,1,2.0019,1,0,4,2,1,,,,,
,1.64,,,,,,,,,h.PNG,h,611431b8dfc10c8bb1393e8c,2021-09-08_20h03.57.403,forced_choiceRT,2021.1.2,MacIntel,59.97361161,,,,,,,,1,Slow,h,1,2.1683,1,1,5,2,1,,,,,
,0.42,,,,,,,,,g.PNG,g,611431b8dfc10c8bb1393e8c,2021-09-08_20h03.57.403,forced_choiceRT,2021.1.2,MacIntel,59.97361161,,,,,,,,1,Ontime,f,0,1.9839,1,2,6,1,1,,,,,
,1.13,,,,,,,,,j.PNG,j,611431b8dfc10c8bb1393e8c,2021-09-08_20h03.57.403,forced_choiceRT,2021.1.2,MacIntel,59.97361161,,,,,,,,1,Ontime,j,1,2.0018,1,3,7,3,1,,,,,
,0,,,,,,,,,j.PNG,j,611431b8dfc10c8bb1393e8c,2021-09-08_20h03.57.403,forced_choiceRT,2021.1.2,MacIntel,59.97361161,,,,,,,,1,Ontime,j,1,2.0529,2,0,8,3,1,,,,,
,1.16,,,,,,,,,j.PNG,j,611431b8dfc10c8bb1393e8c,2021-09-08_20h03.57.403,forced_choiceRT,2021.1.2,MacIntel,59.97361161,,,,,,,,1,Ontime,j,1,2.0508,2,1,9,3,1,,,,,
,0.65,,,,,,,,,f.PNG,f,611431b8dfc10c8bb1393e8c,2021-09-08_20h03.57.403,forced_choiceRT,2021.1.2,MacIntel,59.97361161,,,,,,,,1,Slow,f,1,17.7128,2,2,10,0,1,,,,,
,1.6,,,,,,,,,j.PNG,j,611431b8dfc10c8bb1393e8c,2021-09-08_20h03.57.403,forced_choiceRT,2021.1.2,MacIntel,59.97361161,,,,,,,,1,Slow,h,0,2.1371,2,3,11,3,1,,,,,
,0.88,,,,,,,,,g.PNG,g,611431b8dfc10c8bb1393e8c,2021-09-08_20h03.57.403,forced_choiceRT,2021.1.2,MacIntel,59.97361161,,,,,,,,1,Ontime,f,0,1.9694,3,0,12,1,1,,,,,
,0.56,,,,,,,,,g.PNG,g,611431b8dfc10c8bb1393e8c,2021-09-08_20h03.57.403,forced_choiceRT,2021.1.2,MacIntel,59.97361161,,,,,,,,1,Ontime,f,0,2.0196,3,1,13,1,1,,,,,
,1.67,,,,,,,,,h.PNG,h,611431b8dfc10c8bb1393e8c,2021-09-08_20h03.57.403,forced_choiceRT,2021.1.2,MacIntel,59.97361161,,,,,,,,1,Slow,h,1,3.7999,3,2,14,2,1,,,,,
,0.56,,,,,,,,,j.PNG,j,611431b8dfc10c8bb1393e8c,2021-09-08_20h03.57.403,forced_choiceRT,2021.1.2,MacIntel,59.97361161,,,,,,,,1,Ontime,j,1,2.0355,3,3,15,3,1,,,,,
,1.02,,,,,,,,,h.PNG,h,611431b8dfc10c8bb1393e8c,2021-09-08_20h03.57.403,forced_choiceRT,2021.1.2,MacIntel,59.97361161,,,,,,,,1,Ontime,h,1,2.017,4,0,16,2,1,,,,,
,1.63,,,,,,,,,g.PNG,g,611431b8dfc10c8bb1393e8c,2021-09-08_20h03.57.403,forced_choiceRT,2021.1.2,MacIntel,59.97361161,,,,,,,,1,Ontime,f,0,2.0354,4,1,17,1,1,,,,,
,0.39,,,,,,,,,h.PNG,h,611431b8dfc10c8bb1393e8c,2021-09-08_20h03.57.403,forced_choiceRT,2021.1.2,MacIntel,59.97361161,,,,,,,,1,Ontime,h,1,1.972,4,2,18,2,1,,,,,
,1.05,,,,,,,,,g.PNG,g,611431b8dfc10c8bb1393e8c,2021-09-08_20h03.57.403,forced_choiceRT,2021.1.2,MacIntel,59.97361161,,,,,,,,1,Ontime,f,0,1.9388,4,3,19,1,1,,,,,
,1.38,,,,,,,,,f.PNG,f,611431b8dfc10c8bb1393e8c,2021-09-08_20h03.57.403,forced_choiceRT,2021.1.2,MacIntel,59.97361161,,,,,,,,1,Slow,f,1,5.4515,5,0,20,0,1,,,,,
,1.11,,,,,,,,,f.PNG,f,611431b8dfc10c8bb1393e8c,2021-09-08_20h03.57.403,forced_choiceRT,2021.1.2,MacIntel,59.97361161,,,,,,,,1,Slow,f,1,6.4533,5,1,21,0,1,,,,,
,0.62,,,,,,,,,h.PNG,h,611431b8dfc10c8bb1393e8c,2021-09-08_20h03.57.403,forced_choiceRT,2021.1.2,MacIntel,59.97361161,,,,,,,,1,Ontime,h,1,1.9517,5,2,22,2,1,,,,,
,1.76,,,,,,,,,f.PNG,f,611431b8dfc10c8bb1393e8c,2021-09-08_20h03.57.403,forced_choiceRT,2021.1.2,MacIntel,59.97361161,,,,,,,,1,Ontime,h,0,2.0521,5,3,23,0,1,,,,,
,1.53,,,,,,,,,j.PNG,j,611431b8dfc10c8bb1393e8c,2021-09-08_20h03.57.403,forced_choiceRT,2021.1.2,MacIntel,59.97361161,,,,,,,,1,Ontime,j,1,2.0679,6,0,24,3,1,,,,,
,0.84,,,,,,,,,f.PNG,f,611431b8dfc10c8bb1393e8c,2021-09-08_20h03.57.403,forced_choiceRT,2021.1.2,MacIntel,59.97361161,,,,,,,,1,Ontime,f,1,1.9207,6,1,25,0,1,,,,,
,0.66,,,,,,,,,f.PNG,f,611431b8dfc10c8bb1393e8c,2021-09-08_20h03.57.403,forced_choiceRT,2021.1.2,MacIntel,59.97361161,,,,,,,,1,Ontime,f,1,2.0514,6,2,26,0,1,,,,,
,0.7,,,,,,,,,h.PNG,h,611431b8dfc10c8bb1393e8c,2021-09-08_20h03.57.403,forced_choiceRT,2021.1.2,MacIntel,59.97361161,,,,,,,,1,Ontime,h,1,2.0347,6,3,27,2,1,,,,,
,0.88,,,,,,,,,f.PNG,f,611431b8dfc10c8bb1393e8c,2021-09-08_20h03.57.403,forced_choiceRT,2021.1.2,MacIntel,59.97361161,,,,,,,,1,Ontime,f,1,2.0704,7,0,28,0,1,,,,,
,1.02,,,,,,,,,j.PNG,j,611431b8dfc10c8bb1393e8c,2021-09-08_20h03.57.403,forced_choiceRT,2021.1.2,MacIntel,59.97361161,,,,,,,,1,Ontime,h,0,2.0836,7,1,29,3,1,,,,,
,0.3,,,,,,,,,j.PNG,j,611431b8dfc10c8bb1393e8c,2021-09-08_20h03.57.403,forced_choiceRT,2021.1.2,MacIntel,59.97361161,,,,,,,,1,Slow,j,1,2.1342,7,2,30,3,1,,,,,
,0.88,,,,,,,,,g.PNG,g,611431b8dfc10c8bb1393e8c,2021-09-08_20h03.57.403,forced_choiceRT,2021.1.2,MacIntel,59.97361161,,,,,,,,1,Ontime,g,1,1.9532,7,3,31,1,1,,,,,
,0.02,,,,,,,,,h.PNG,h,611431b8dfc10c8bb1393e8c,2021-09-08_20h03.57.403,forced_choiceRT,2021.1.2,MacIntel,59.97361161,,,,,,,,1,Slow,h,1,2.135,8,0,32,2,1,,,,,
,1.3,,,,,,,,,g.PNG,g,611431b8dfc10c8bb1393e8c,2021-09-08_20h03.57.403,forced_choiceRT,2021.1.2,MacIntel,59.97361161,,,,,,,,1,Ontime,g,1,2.086,8,1,33,1,1,,,,,
,0.89,,,,,,,,,f.PNG,f,611431b8dfc10c8bb1393e8c,2021-09-08_20h03.57.403,forced_choiceRT,2021.1.2,MacIntel,59.97361161,,,,,,,,1,Ontime,f,1,1.905,8,2,34,0,1,,,,,
,0.69,,,,,,,,,f.PNG,f,611431b8dfc10c8bb1393e8c,2021-09-08_20h03.57.403,forced_choiceRT,2021.1.2,MacIntel,59.97361161,,,,,,,,1,Slow,f,1,2.119,8,3,35,0,1,,,,,
,1.5,,,,,,,,,g.PNG,g,611431b8dfc10c8bb1393e8c,2021-09-08_20h03.57.403,forced_choiceRT,2021.1.2,MacIntel,59.97361161,,,,,,,,1,Slow,g,1,2.1181,9,0,36,1,1,,,,,
,1.71,,,,,,,,,h.PNG,h,611431b8dfc10c8bb1393e8c,2021-09-08_20h03.57.403,forced_choiceRT,2021.1.2,MacIntel,59.97361161,,,,,,,,1,Ontime,h,1,2.018,9,1,37,2,1,,,,,
,1,,,,,,,,,j.PNG,j,611431b8dfc10c8bb1393e8c,2021-09-08_20h03.57.403,forced_choiceRT,2021.1.2,MacIntel,59.97361161,,,,,,,,1,Ontime,j,1,2.051,9,2,38,3,1,,,,,
,0.36,,,,,,,,,g.PNG,g,611431b8dfc10c8bb1393e8c,2021-09-08_20h03.57.403,forced_choiceRT,2021.1.2,MacIntel,59.97361161,,,,,,,,1,Ontime,g,1,1.9686,9,3,39,1,1,,,,,
,,,,,,,,,,,,611431b8dfc10c8bb1393e8c,2021-09-08_20h03.57.403,forced_choiceRT,2021.1.2,MacIntel,59.97361161,,,,,,,,,,,,,,,,,,0,0,0,0,1
,1.61,,,,,,,,,h.PNG,h,611431b8dfc10c8bb1393e8c,2021-09-08_20h03.57.403,forced_choiceRT,2021.1.2,MacIntel,59.97361161,,,,,,,,2,Slow,h,1,2.1277,0,0,0,2,1,,,,,
,1.97,,,,,,,,,j.PNG,j,611431b8dfc10c8bb1393e8c,2021-09-08_20h03.57.403,forced_choiceRT,2021.1.2,MacIntel,59.97361161,,,,,,,,2,Slow,g,0,2.1691,0,1,1,3,1,,,,,
,1.57,,,,,,,,,j.PNG,j,611431b8dfc10c8bb1393e8c,2021-09-08_20h03.57.403,forced_choiceRT,2021.1.2,MacIntel,59.97361161,,,,,,,,2,Ontime,h,0,2.0028,0,2,2,3,1,,,,,
,1.55,,,,,,,,,h.PNG,h,611431b8dfc10c8bb1393e8c,2021-09-08_20h03.57.403,forced_choiceRT,2021.1.2,MacIntel,59.97361161,,,,,,,,2,Ontime,h,1,2.0695,0,3,3,2,1,,,,,
,0.68,,,,,,,,,f.PNG,f,611431b8dfc10c8bb1393e8c,2021-09-08_20h03.57.403,forced_choiceRT,2021.1.2,MacIntel,59.97361161,,,,,,,,2,Ontime,f,1,2.0379,1,0,4,0,1,,,,,
,1.03,,,,,,,,,g.PNG,g,611431b8dfc10c8bb1393e8c,2021-09-08_20h03.57.403,forced_choiceRT,2021.1.2,MacIntel,59.97361161,,,,,,,,2,Ontime,g,1,2.0165,1,1,5,1,1,,,,,
,1.61,,,,,,,,,h.PNG,h,611431b8dfc10c8bb1393e8c,2021-09-08_20h03.57.403,forced_choiceRT,2021.1.2,MacIntel,59.97361161,,,,,,,,2,Slow,j,0,2.1013,1,2,6,2,1,,,,,
,0.45,,,,,,,,,g.PNG,g,611431b8dfc10c8bb1393e8c,2021-09-08_20h03.57.403,forced_choiceRT,2021.1.2,MacIntel,59.97361161,,,,,,,,2,Ontime,g,1,2.0171,1,3,7,1,1,,,,,
,0.65,,,,,,,,,h.PNG,h,611431b8dfc10c8bb1393e8c,2021-09-08_20h03.57.403,forced_choiceRT,2021.1.2,MacIntel,59.97361161,,,,,,,,2,Ontime,h,1,1.9011,2,0,8,2,1,,,,,
,0.09,,,,,,,,,h.PNG,h,611431b8dfc10c8bb1393e8c,2021-09-08_20h03.57.403,forced_choiceRT,2021.1.2,MacIntel,59.97361161,,,,,,,,2,Ontime,h,1,1.9021,2,1,9,2,1,,,,,
,1.86,,,,,,,,,j.PNG,j,611431b8dfc10c8bb1393e8c,2021-09-08_20h03.57.403,forced_choiceRT,2021.1.2,MacIntel,59.97361161,,,,,,,,2,Ontime,j,1,2.0862,2,2,10,3,1,,,,,
,0.6,,,,,,,,,j.PNG,j,611431b8dfc10c8bb1393e8c,2021-09-08_20h03.57.403,forced_choiceRT,2021.1.2,MacIntel,59.97361161,,,,,,,,2,Ontime,j,1,2.0023,2,3,11,3,1,,,,,
,0.7,,,,,,,,,f.PNG,f,611431b8dfc10c8bb1393e8c,2021-09-08_20h03.57.403,forced_choiceRT,2021.1.2,MacIntel,59.97361161,,,,,,,,2,Ontime,f,1,2.0993,3,0,12,0,1,,,,,
,0.93,,,,,,,,,f.PNG,f,611431b8dfc10c8bb1393e8c,2021-09-08_20h03.57.403,forced_choiceRT,2021.1.2,MacIntel,59.97361161,,,,,,,,2,Ontime,f,1,2.0689,3,1,13,0,1,,,,,
,0.1,,,,,,,,,f.PNG,f,611431b8dfc10c8bb1393e8c,2021-09-08_20h03.57.403,forced_choiceRT,2021.1.2,MacIntel,59.97361161,,,,,,,,2,Ontime,f,1,2.0729,3,2,14,0,1,,,,,
,0.45,,,,,,,,,g.PNG,g,611431b8dfc10c8bb1393e8c,2021-09-08_20h03.57.403,forced_choiceRT,2021.1.2,MacIntel,59.97361161,,,,,,,,2,Ontime,g,1,2.0014,3,3,15,1,1,,,,,
,1.68,,,,,,,,,f.PNG,f,611431b8dfc10c8bb1393e8c,2021-09-08_20h03.57.403,forced_choiceRT,2021.1.2,MacIntel,59.97361161,,,,,,,,2,Ontime,h,0,2.0348,4,0,16,0,1,,,,,
,0.99,,,,,,,,,j.PNG,j,611431b8dfc10c8bb1393e8c,2021-09-08_20h03.57.403,forced_choiceRT,2021.1.2,MacIntel,59.97361161,,,,,,,,2,Ontime,j,1,1.9692,4,1,17,3,1,,,,,
,1.16,,,,,,,,,g.PNG,g,611431b8dfc10c8bb1393e8c,2021-09-08_20h03.57.403,forced_choiceRT,2021.1.2,MacIntel,59.97361161,,,,,,,,2,Ontime,g,1,1.9715,4,2,18,1,1,,,,,
,0.04,,,,,,,,,h.PNG,h,611431b8dfc10c8bb1393e8c,2021-09-08_20h03.57.403,forced_choiceRT,2021.1.2,MacIntel,59.97361161,,,,,,,,2,Ontime,h,1,1.9376,4,3,19,2,1,,,,,
,1.19,,,,,,,,,j.PNG,j,611431b8dfc10c8bb1393e8c,2021-09-08_20h03.57.403,forced_choiceRT,2021.1.2,MacIntel,59.97361161,,,,,,,,2,Ontime,j,1,2.0021,5,0,20,3,1,,,,,
,0.75,,,,,,,,,g.PNG,g,611431b8dfc10c8bb1393e8c,2021-09-08_20h03.57.403,forced_choiceRT,2021.1.2,MacIntel,59.97361161,,,,,,,,2,Fast,g,1,1.5184,5,1,21,1,1,,,,,
,0.94,,,,,,,,,f.PNG,f,611431b8dfc10c8bb1393e8c,2021-09-08_20h03.57.403,forced_choiceRT,2021.1.2,MacIntel,59.97361161,,,,,,,,2,Ontime,f,1,2.0718,5,2,22,0,1,,,,,
,1.71,,,,,,,,,g.PNG,g,611431b8dfc10c8bb1393e8c,2021-09-08_20h03.57.403,forced_choiceRT,2021.1.2,MacIntel,59.97361161,,,,,,,,2,Ontime,h,0,2.0704,5,3,23,1,1,,,,,
,1.7,,,,,,,,,f.PNG,f,611431b8dfc10c8bb1393e8c,2021-09-08_20h03.57.403,forced_choiceRT,2021.1.2,MacIntel,59.97361161,,,,,,,,2,Slow,f,1,2.3017,6,0,24,0,1,,,,,
,1.65,,,,,,,,,h.PNG,h,611431b8dfc10c8bb1393e8c,2021-09-08_20h03.57.403,forced_choiceRT,2021.1.2,MacIntel,59.97361161,,,,,,,,2,Ontime,h,1,2.0682,6,1,25,2,1,,,,,
,1.64,,,,,,,,,j.PNG,j,611431b8dfc10c8bb1393e8c,2021-09-08_20h03.57.403,forced_choiceRT,2021.1.2,MacIntel,59.97361161,,,,,,,,2,Slow,j,1,2.2038,6,2,26,3,1,,,,,
,0.94,,,,,,,,,f.PNG,f,611431b8dfc10c8bb1393e8c,2021-09-08_20h03.57.403,forced_choiceRT,2021.1.2,MacIntel,59.97361161,,,,,,,,2,Ontime,f,1,2.0704,6,3,27,0,1,,,,,
,0.61,,,,,,,,,j.PNG,j,611431b8dfc10c8bb1393e8c,2021-09-08_20h03.57.403,forced_choiceRT,2021.1.2,MacIntel,59.97361161,,,,,,,,2,Ontime,j,1,2.0348,7,0,28,3,1,,,,,
,0.96,,,,,,,,,f.PNG,f,611431b8dfc10c8bb1393e8c,2021-09-08_20h03.57.403,forced_choiceRT,2021.1.2,MacIntel,59.97361161,,,,,,,,2,Ontime,f,1,2.0176,7,1,29,0,1,,,,,
,1.94,,,,,,,,,g.PNG,g,611431b8dfc10c8bb1393e8c,2021-09-08_20h03.57.403,forced_choiceRT,2021.1.2,MacIntel,59.97361161,,,,,,,,2,Ontime,g,1,1.9553,7,2,30,1,1,,,,,
,0.55,,,,,,,,,h.PNG,h,611431b8dfc10c8bb1393e8c,2021-09-08_20h03.57.403,forced_choiceRT,2021.1.2,MacIntel,59.97361161,,,,,,,,2,Ontime,h,1,1.9645,7,3,31,2,1,,,,,
,0.15,,,,,,,,,g.PNG,g,611431b8dfc10c8bb1393e8c,2021-09-08_20h03.57.403,forced_choiceRT,2021.1.2,MacIntel,59.97361161,,,,,,,,2,Ontime,g,1,2.0514,8,0,32,1,1,,,,,
,1.59,,,,,,,,,j.PNG,j,611431b8dfc10c8bb1393e8c,2021-09-08_20h03.57.403,forced_choiceRT,2021.1.2,MacIntel,59.97361161,,,,,,,,2,Slow,h,0,2.1898,8,1,33,3,1,,,,,
,0.77,,,,,,,,,j.PNG,j,611431b8dfc10c8bb1393e8c,2021-09-08_20h03.57.403,forced_choiceRT,2021.1.2,MacIntel,59.97361161,,,,,,,,2,Ontime,j,1,1.9381,8,2,34,3,1,,,,,
,1.58,,,,,,,,,h.PNG,h,611431b8dfc10c8bb1393e8c,2021-09-08_20h03.57.403,forced_choiceRT,2021.1.2,MacIntel,59.97361161,,,,,,,,2,Ontime,h,1,2.0839,8,3,35,2,1,,,,,
,1.73,,,,,,,,,f.PNG,f,611431b8dfc10c8bb1393e8c,2021-09-08_20h03.57.403,forced_choiceRT,2021.1.2,MacIntel,59.97361161,,,,,,,,2,Ontime,h,0,2.0514,9,0,36,0,1,,,,,
,1.87,,,,,,,,,h.PNG,h,611431b8dfc10c8bb1393e8c,2021-09-08_20h03.57.403,forced_choiceRT,2021.1.2,MacIntel,59.97361161,,,,,,,,2,Slow,h,1,2.1021,9,1,37,2,1,,,,,
,1.18,,,,,,,,,g.PNG,g,611431b8dfc10c8bb1393e8c,2021-09-08_20h03.57.403,forced_choiceRT,2021.1.2,MacIntel,59.97361161,,,,,,,,2,Ontime,g,1,2.0313,9,2,38,1,1,,,,,
,1.38,,,,,,,,,g.PNG,g,611431b8dfc10c8bb1393e8c,2021-09-08_20h03.57.403,forced_choiceRT,2021.1.2,MacIntel,59.97361161,,,,,,,,2,Ontime,g,1,1.9381,9,3,39,1,1,,,,,
,,,,,,,,,,,,611431b8dfc10c8bb1393e8c,2021-09-08_20h03.57.403,forced_choiceRT,2021.1.2,MacIntel,59.97361161,,,,,,,,,,,,,,,,,,1,0,1,0,1
,0.99,,,,,,,,,g.PNG,g,611431b8dfc10c8bb1393e8c,2021-09-08_20h03.57.403,forced_choiceRT,2021.1.2,MacIntel,59.97361161,,,,,,,,3,Ontime,g,1,1.9091,0,0,0,1,1,,,,,
,0.39,,,,,,,,,j.PNG,j,611431b8dfc10c8bb1393e8c,2021-09-08_20h03.57.403,forced_choiceRT,2021.1.2,MacIntel,59.97361161,,,,,,,,3,Ontime,j,1,2.0516,0,1,1,3,1,,,,,
,1.86,,,,,,,,,f.PNG,f,611431b8dfc10c8bb1393e8c,2021-09-08_20h03.57.403,forced_choiceRT,2021.1.2,MacIntel,59.97361161,,,,,,,,3,Ontime,h,0,2.0848,0,2,2,0,1,,,,,
,0.18,,,,,,,,,f.PNG,f,611431b8dfc10c8bb1393e8c,2021-09-08_20h03.57.403,forced_choiceRT,2021.1.2,MacIntel,59.97361161,,,,,,,,3,Ontime,f,1,2.0538,0,3,3,0,1,,,,,
,1.39,,,,,,,,,j.PNG,j,611431b8dfc10c8bb1393e8c,2021-09-08_20h03.57.403,forced_choiceRT,2021.1.2,MacIntel,59.97361161,,,,,,,,3,Slow,j,1,2.1361,1,0,4,3,1,,,,,
,1.76,,,,,,,,,f.PNG,f,611431b8dfc10c8bb1393e8c,2021-09-08_20h03.57.403,forced_choiceRT,2021.1.2,MacIntel,59.97361161,,,,,,,,3,Ontime,h,0,2.0185,1,1,5,0,1,,,,,
,1.74,,,,,,,,,g.PNG,g,611431b8dfc10c8bb1393e8c,2021-09-08_20h03.57.403,forced_choiceRT,2021.1.2,MacIntel,59.97361161,,,,,,,,3,Slow,h,0,2.2361,1,2,6,1,1,,,,,
,1.34,,,,,,,,,h.PNG,h,611431b8dfc10c8bb1393e8c,2021-09-08_20h03.57.403,forced_choiceRT,2021.1.2,MacIntel,59.97361161,,,,,,,,3,Ontime,h,1,2.0706,1,3,7,2,1,,,,,
,0.14,,,,,,,,,j.PNG,j,611431b8dfc10c8bb1393e8c,2021-09-08_20h03.57.403,forced_choiceRT,2021.1.2,MacIntel,59.97361161,,,,,,,,3,Ontime,j,1,2.0179,2,0,8,3,1,,,,,
,0.01,,,,,,,,,g.PNG,g,611431b8dfc10c8bb1393e8c,2021-09-08_20h03.57.403,forced_choiceRT,2021.1.2,MacIntel,59.97361161,,,,,,,,3,Ontime,g,1,2.0515,2,1,9,1,1,,,,,
,1.08,,,,,,,,,f.PNG,f,611431b8dfc10c8bb1393e8c,2021-09-08_20h03.57.403,forced_choiceRT,2021.1.2,MacIntel,59.97361161,,,,,,,,3,Ontime,f,1,2.0691,2,2,10,0,1,,,,,
,0.79,,,,,,,,,g.PNG,g,611431b8dfc10c8bb1393e8c,2021-09-08_20h03.57.403,forced_choiceRT,2021.1.2,MacIntel,59.97361161,,,,,,,,3,Slow,g,1,2.1314,2,3,11,1,1,,,,,
,1.94,,,,,,,,,f.PNG,f,611431b8dfc10c8bb1393e8c,2021-09-08_20h03.57.403,forced_choiceRT,2021.1.2,MacIntel,59.97361161,,,,,,,,3,Ontime,h,0,2.0671,3,0,12,0,1,,,,,
,0.13,,,,,,,,,h.PNG,h,611431b8dfc10c8bb1393e8c,2021-09-08_20h03.57.403,forced_choiceRT,2021.1.2,MacIntel,59.97361161,,,,,,,,3,Ontime,h,1,1.9702,3,1,13,2,1,,,,,
,0.03,,,,,,,,,h.PNG,h,611431b8dfc10c8bb1393e8c,2021-09-08_20h03.57.403,forced_choiceRT,2021.1.2,MacIntel,59.97361161,,,,,,,,3,Ontime,h,1,2.0233,3,2,14,2,1,,,,,
,0.25,,,,,,,,,g.PNG,g,611431b8dfc10c8bb1393e8c,2021-09-08_20h03.57.403,forced_choiceRT,2021.1.2,MacIntel,59.97361161,,,,,,,,3,Ontime,g,1,2.001,3,3,15,1,1,,,,,
,0.05,,,,,,,,,g.PNG,g,611431b8dfc10c8bb1393e8c,2021-09-08_20h03.57.403,forced_choiceRT,2021.1.2,MacIntel,59.97361161,,,,,,,,3,Slow,g,1,2.1186,4,0,16,1,1,,,,,
,1.56,,,,,,,,,f.PNG,f,611431b8dfc10c8bb1393e8c,2021-09-08_20h03.57.403,forced_choiceRT,2021.1.2,MacIntel,59.97361161,,,,,,,,3,Ontime,j,0,1.9335,4,1,17,0,1,,,,,
,0.03,,,,,,,,,f.PNG,f,611431b8dfc10c8bb1393e8c,2021-09-08_20h03.57.403,forced_choiceRT,2021.1.2,MacIntel,59.97361161,,,,,,,,3,Ontime,f,1,2.0032,4,2,18,0,1,,,,,
,0.12,,,,,,,,,h.PNG,h,611431b8dfc10c8bb1393e8c,2021-09-08_20h03.57.403,forced_choiceRT,2021.1.2,MacIntel,59.97361161,,,,,,,,3,Ontime,h,1,2.0683,4,3,19,2,1,,,,,
,0.63,,,,,,,,,j.PNG,j,611431b8dfc10c8bb1393e8c,2021-09-08_20h03.57.403,forced_choiceRT,2021.1.2,MacIntel,59.97361161,,,,,,,,3,Ontime,j,1,2.0022,5,0,20,3,1,,,,,
,0.25,,,,,,,,,f.PNG,f,611431b8dfc10c8bb1393e8c,2021-09-08_20h03.57.403,forced_choiceRT,2021.1.2,MacIntel,59.97361161,,,,,,,,3,Slow,f,1,2.1023,5,1,21,0,1,,,,,
,0.5,,,,,,,,,j.PNG,j,611431b8dfc10c8bb1393e8c,2021-09-08_20h03.57.403,forced_choiceRT,2021.1.2,MacIntel,59.97361161,,,,,,,,3,Ontime,j,1,2.0196,5,2,22,3,1,,,,,
,0.9,,,,,,,,,g.PNG,g,611431b8dfc10c8bb1393e8c,2021-09-08_20h03.57.403,forced_choiceRT,2021.1.2,MacIntel,59.97361161,,,,,,,,3,Ontime,g,1,2.0702,5,3,23,1,1,,,,,
,0.27,,,,,,,,,h.PNG,h,611431b8dfc10c8bb1393e8c,2021-09-08_20h03.57.403,forced_choiceRT,2021.1.2,MacIntel,59.97361161,,,,,,,,3,Ontime,h,1,2.0063,6,0,24,2,1,,,,,
,1.8,,,,,,,,,g.PNG,g,611431b8dfc10c8bb1393e8c,2021-09-08_20h03.57.403,forced_choiceRT,2021.1.2,MacIntel,59.97361161,,,,,,,,3,Slow,g,1,2.2853,6,1,25,1,1,,,,,
,0.95,,,,,,,,,h.PNG,h,611431b8dfc10c8bb1393e8c,2021-09-08_20h03.57.403,forced_choiceRT,2021.1.2,MacIntel,59.97361161,,,,,,,,3,Ontime,h,1,2.0192,6,2,26,2,1,,,,,
,1.43,,,,,,,,,j.PNG,j,611431b8dfc10c8bb1393e8c,2021-09-08_20h03.57.403,forced_choiceRT,2021.1.2,MacIntel,59.97361161,,,,,,,,3,Ontime,j,1,2.0379,6,3,27,3,1,,,,,
,1.32,,,,,,,,,h.PNG,h,611431b8dfc10c8bb1393e8c,2021-09-08_20h03.57.403,forced_choiceRT,2021.1.2,MacIntel,59.97361161,,,,,,,,3,Slow,h,1,2.1844,7,0,28,2,1,,,,,
,0.51,,,,,,,,,j.PNG,j,611431b8dfc10c8bb1393e8c,2021-09-08_20h03.57.403,forced_choiceRT,2021.1.2,MacIntel,59.97361161,,,,,,,,3,Slow,j,1,2.1196,7,1,29,3,1,,,,,
,1.5,,,,,,,,,f.PNG,f,611431b8dfc10c8bb1393e8c,2021-09-08_20h03.57.403,forced_choiceRT,2021.1.2,MacIntel,59.97361161,,,,,,,,3,Slow,f,1,2.117,7,2,30,0,1,,,,,
,1.46,,,,,,,,,h.PNG,h,611431b8dfc10c8bb1393e8c,2021-09-08_20h03.57.403,forced_choiceRT,2021.1.2,MacIntel,59.97361161,,,,,,,,3,Ontime,h,1,2.0178,7,3,31,2,1,,,,,
,1.06,,,,,,,,,j.PNG,j,611431b8dfc10c8bb1393e8c,2021-09-08_20h03.57.403,forced_choiceRT,2021.1.2,MacIntel,59.97361161,,,,,,,,3,Ontime,j,1,2.0853,8,0,32,3,1,,,,,
,0.83,,,,,,,,,j.PNG,j,611431b8dfc10c8bb1393e8c,2021-09-08_20h03.57.403,forced_choiceRT,2021.1.2,MacIntel,59.97361161,,,,,,,,3,Ontime,j,1,1.9032,8,1,33,3,1,,,,,
,0.84,,,,,,,,,j.PNG,j,611431b8dfc10c8bb1393e8c,2021-09-08_20h03.57.403,forced_choiceRT,2021.1.2,MacIntel,59.97361161,,,,,,,,3,Ontime,j,1,1.969,8,2,34,3,1,,,,,
,1.88,,,,,,,,,h.PNG,h,611431b8dfc10c8bb1393e8c,2021-09-08_20h03.57.403,forced_choiceRT,2021.1.2,MacIntel,59.97361161,,,,,,,,3,Ontime,f,0,2.0185,8,3,35,2,1,,,,,
,1.07,,,,,,,,,g.PNG,g,611431b8dfc10c8bb1393e8c,2021-09-08_20h03.57.403,forced_choiceRT,2021.1.2,MacIntel,59.97361161,,,,,,,,3,Ontime,g,1,1.9894,9,0,36,1,1,,,,,
,1.31,,,,,,,,,h.PNG,h,611431b8dfc10c8bb1393e8c,2021-09-08_20h03.57.403,forced_choiceRT,2021.1.2,MacIntel,59.97361161,,,,,,,,3,Ontime,h,1,1.9852,9,1,37,2,1,,,,,
,1.58,,,,,,,,,g.PNG,g,611431b8dfc10c8bb1393e8c,2021-09-08_20h03.57.403,forced_choiceRT,2021.1.2,MacIntel,59.97361161,,,,,,,,3,Slow,g,1,2.1017,9,2,38,1,1,,,,,
,1.9,,,,,,,,,f.PNG,f,611431b8dfc10c8bb1393e8c,2021-09-08_20h03.57.403,forced_choiceRT,2021.1.2,MacIntel,59.97361161,,,,,,,,3,Ontime,f,1,1.9545,9,3,39,0,1,,,,,
,,,,,,,,,,,,611431b8dfc10c8bb1393e8c,2021-09-08_20h03.57.403,forced_choiceRT,2021.1.2,MacIntel,59.97361161,,,,,,,,,,,,,,,,,,2,0,2,0,1
,1.01,,,,,,,,,j.PNG,j,611431b8dfc10c8bb1393e8c,2021-09-08_20h03.57.403,forced_choiceRT,2021.1.2,MacIntel,59.97361161,,,,,,,,4,Ontime,j,1,2.0125,0,0,0,3,1,,,,,
,0.97,,,,,,,,,j.PNG,j,611431b8dfc10c8bb1393e8c,2021-09-08_20h03.57.403,forced_choiceRT,2021.1.2,MacIntel,59.97361161,,,,,,,,4,Ontime,j,1,2.0674,0,1,1,3,1,,,,,
,1.88,,,,,,,,,g.PNG,g,611431b8dfc10c8bb1393e8c,2021-09-08_20h03.57.403,forced_choiceRT,2021.1.2,MacIntel,59.97361161,,,,,,,,4,Slow,h,0,2.101,0,2,2,1,1,,,,,
,1.88,,,,,,,,,g.PNG,g,611431b8dfc10c8bb1393e8c,2021-09-08_20h03.57.403,forced_choiceRT,2021.1.2,MacIntel,59.97361161,,,,,,,,4,Slow,g,1,2.2678,0,3,3,1,1,,,,,
,1.13,,,,,,,,,g.PNG,g,611431b8dfc10c8bb1393e8c,2021-09-08_20h03.57.403,forced_choiceRT,2021.1.2,MacIntel,59.97361161,,,,,,,,4,Ontime,g,1,2.005,1,0,4,1,1,,,,,
,1.84,,,,,,,,,g.PNG,g,611431b8dfc10c8bb1393e8c,2021-09-08_20h03.57.403,forced_choiceRT,2021.1.2,MacIntel,59.97361161,,,,,,,,4,Ontime,h,0,2.0846,1,1,5,1,1,,,,,
,0.32,,,,,,,,,f.PNG,f,611431b8dfc10c8bb1393e8c,2021-09-08_20h03.57.403,forced_choiceRT,2021.1.2,MacIntel,59.97361161,,,,,,,,4,Ontime,f,1,2.0553,1,2,6,0,1,,,,,
,0.06,,,,,,,,,f.PNG,f,611431b8dfc10c8bb1393e8c,2021-09-08_20h03.57.403,forced_choiceRT,2021.1.2,MacIntel,59.97361161,,,,,,,,4,Ontime,f,1,2.0875,1,3,7,0,1,,,,,
,0.54,,,,,,,,,h.PNG,h,611431b8dfc10c8bb1393e8c,2021-09-08_20h03.57.403,forced_choiceRT,2021.1.2,MacIntel,59.97361161,,,,,,,,4,Ontime,h,1,2.0324,2,0,8,2,1,,,,,
,0.89,,,,,,,,,j.PNG,j,611431b8dfc10c8bb1393e8c,2021-09-08_20h03.57.403,forced_choiceRT,2021.1.2,MacIntel,59.97361161,,,,,,,,4,Slow,j,1,2.1038,2,1,9,3,1,,,,,
,0.36,,,,,,,,,j.PNG,j,611431b8dfc10c8bb1393e8c,2021-09-08_20h03.57.403,forced_choiceRT,2021.1.2,MacIntel,59.97361161,,,,,,,,4,Slow,j,1,2.1174,2,2,10,3,1,,,,,
,1.89,,,,,,,,,g.PNG,g,611431b8dfc10c8bb1393e8c,2021-09-08_20h03.57.403,forced_choiceRT,2021.1.2,MacIntel,59.97361161,,,,,,,,4,Slow,g,1,2.2522,2,3,11,1,1,,,,,
,1.31,,,,,,,,,f.PNG,f,611431b8dfc10c8bb1393e8c,2021-09-08_20h03.57.403,forced_choiceRT,2021.1.2,MacIntel,59.97361161,,,,,,,,4,Ontime,f,1,2.0357,3,0,12,0,1,,,,,
,0.47,,,,,,,,,h.PNG,h,611431b8dfc10c8bb1393e8c,2021-09-08_20h03.57.403,forced_choiceRT,2021.1.2,MacIntel,59.97361161,,,,,,,,4,Slow,h,1,2.1353,3,1,13,2,1,,,,,
,1.84,,,,,,,,,j.PNG,j,611431b8dfc10c8bb1393e8c,2021-09-08_20h03.57.403,forced_choiceRT,2021.1.2,MacIntel,59.97361161,,,,,,,,4,Slow,h,0,2.2525,3,2,14,3,1,,,,,
,1.63,,,,,,,,,g.PNG,g,611431b8dfc10c8bb1393e8c,2021-09-08_20h03.57.403,forced_choiceRT,2021.1.2,MacIntel,59.97361161,,,,,,,,4,Slow,h,0,2.1354,3,3,15,1,1,,,,,
,0.55,,,,,,,,,f.PNG,f,611431b8dfc10c8bb1393e8c,2021-09-08_20h03.57.403,forced_choiceRT,2021.1.2,MacIntel,59.97361161,,,,,,,,4,Fast,f,1,1.8713,4,0,16,0,1,,,,,
,0.97,,,,,,,,,h.PNG,h,611431b8dfc10c8bb1393e8c,2021-09-08_20h03.57.403,forced_choiceRT,2021.1.2,MacIntel,59.97361161,,,,,,,,4,Ontime,h,1,1.9881,4,1,17,2,1,,,,,
,0.72,,,,,,,,,j.PNG,j,611431b8dfc10c8bb1393e8c,2021-09-08_20h03.57.403,forced_choiceRT,2021.1.2,MacIntel,59.97361161,,,,,,,,4,Ontime,j,1,2.0491,4,2,18,3,1,,,,,
,0.76,,,,,,,,,h.PNG,h,611431b8dfc10c8bb1393e8c,2021-09-08_20h03.57.403,forced_choiceRT,2021.1.2,MacIntel,59.97361161,,,,,,,,4,Ontime,h,1,1.9847,4,3,19,2,1,,,,,
,0.13,,,,,,,,,j.PNG,j,611431b8dfc10c8bb1393e8c,2021-09-08_20h03.57.403,forced_choiceRT,2021.1.2,MacIntel,59.97361161,,,,,,,,4,Ontime,j,1,1.9565,5,0,20,3,1,,,,,
,0.82,,,,,,,,,g.PNG,g,611431b8dfc10c8bb1393e8c,2021-09-08_20h03.57.403,forced_choiceRT,2021.1.2,MacIntel,59.97361161,,,,,,,,4,Ontime,g,1,1.9826,5,1,21,1,1,,,,,
,0.5,,,,,,,,,h.PNG,h,611431b8dfc10c8bb1393e8c,2021-09-08_20h03.57.403,forced_choiceRT,2021.1.2,MacIntel,59.97361161,,,,,,,,4,Ontime,h,1,2.0025,5,2,22,2,1,,,,,
,0.57,,,,,,,,,g.PNG,g,611431b8dfc10c8bb1393e8c,2021-09-08_20h03.57.403,forced_choiceRT,2021.1.2,MacIntel,59.97361161,,,,,,,,4,Ontime,g,1,1.953,5,3,23,1,1,,,,,
,0.27,,,,,,,,,f.PNG,f,611431b8dfc10c8bb1393e8c,2021-09-08_20h03.57.403,forced_choiceRT,2021.1.2,MacIntel,59.97361161,,,,,,,,4,Ontime,f,1,1.9983,6,0,24,0,1,,,,,
,0.63,,,,,,,,,j.PNG,j,611431b8dfc10c8bb1393e8c,2021-09-08_20h03.57.403,forced_choiceRT,2021.1.2,MacIntel,59.97361161,,,,,,,,4,Ontime,j,1,1.9701,6,1,25,3,1,,,,,
,1.49,,,,,,,,,h.PNG,h,611431b8dfc10c8bb1393e8c,2021-09-08_20h03.57.403,forced_choiceRT,2021.1.2,MacIntel,59.97361161,,,,,,,,4,Ontime,h,1,2.0696,6,2,26,2,1,,,,,
,0.26,,,,,,,,,h.PNG,h,611431b8dfc10c8bb1393e8c,2021-09-08_20h03.57.403,forced_choiceRT,2021.1.2,MacIntel,59.97361161,,,,,,,,4,Ontime,h,1,1.9699,6,3,27,2,1,,,,,
,1.52,,,,,,,,,f.PNG,f,611431b8dfc10c8bb1393e8c,2021-09-08_20h03.57.403,forced_choiceRT,2021.1.2,MacIntel,59.97361161,,,,,,,,4,Slow,g,0,2.119,7,0,28,0,1,,,,,
,1.86,,,,,,,,,f.PNG,f,611431b8dfc10c8bb1393e8c,2021-09-08_20h03.57.403,forced_choiceRT,2021.1.2,MacIntel,59.97361161,,,,,,,,4,Ontime,f,1,2.0327,7,1,29,0,1,,,,,
,0.04,,,,,,,,,j.PNG,j,611431b8dfc10c8bb1393e8c,2021-09-08_20h03.57.403,forced_choiceRT,2021.1.2,MacIntel,59.97361161,,,,,,,,4,Ontime,h,0,2.0019,7,2,30,3,1,,,,,
,0.29,,,,,,,,,f.PNG,f,611431b8dfc10c8bb1393e8c,2021-09-08_20h03.57.403,forced_choiceRT,2021.1.2,MacIntel,59.97361161,,,,,,,,4,Ontime,f,1,1.9194,7,3,31,0,1,,,,,
,0.65,,,,,,,,,f.PNG,f,611431b8dfc10c8bb1393e8c,2021-09-08_20h03.57.403,forced_choiceRT,2021.1.2,MacIntel,59.97361161,,,,,,,,4,Slow,f,1,2.1386,8,0,32,0,1,,,,,
,1.11,,,,,,,,,h.PNG,h,611431b8dfc10c8bb1393e8c,2021-09-08_20h03.57.403,forced_choiceRT,2021.1.2,MacIntel,59.97361161,,,,,,,,4,Slow,h,1,2.1667,8,1,33,2,1,,,,,
,1.3,,,,,,,,,h.PNG,h,611431b8dfc10c8bb1393e8c,2021-09-08_20h03.57.403,forced_choiceRT,2021.1.2,MacIntel,59.97361161,,,,,,,,4,Ontime,h,1,2.069,8,2,34,2,1,,,,,
,1.96,,,,,,,,,j.PNG,j,611431b8dfc10c8bb1393e8c,2021-09-08_20h03.57.403,forced_choiceRT,2021.1.2,MacIntel,59.97361161,,,,,,,,4,Ontime,h,0,2.0714,8,3,35,3,1,,,,,
,0.18,,,,,,,,,g.PNG,g,611431b8dfc10c8bb1393e8c,2021-09-08_20h03.57.403,forced_choiceRT,2021.1.2,MacIntel,59.97361161,,,,,,,,4,Ontime,g,1,1.9373,9,0,36,1,1,,,,,
,1.34,,,,,,,,,g.PNG,g,611431b8dfc10c8bb1393e8c,2021-09-08_20h03.57.403,forced_choiceRT,2021.1.2,MacIntel,59.97361161,,,,,,,,4,Ontime,g,1,2.0521,9,1,37,1,1,,,,,
,0.07,,,,,,,,,h.PNG,h,611431b8dfc10c8bb1393e8c,2021-09-08_20h03.57.403,forced_choiceRT,2021.1.2,MacIntel,59.97361161,,,,,,,,4,Ontime,h,1,1.9864,9,2,38,2,1,,,,,
,1.34,,,,,,,,,f.PNG,f,611431b8dfc10c8bb1393e8c,2021-09-08_20h03.57.403,forced_choiceRT,2021.1.2,MacIntel,59.97361161,,,,,,,,4,Slow,f,1,2.1515,9,3,39,0,1,,,,,
,,,,,,,,,,,,611431b8dfc10c8bb1393e8c,2021-09-08_20h03.57.403,forced_choiceRT,2021.1.2,MacIntel,59.97361161,,,,,,,,,,,,,,,,,,3,0,3,0,1
,1.7,,,,,,,,,g.PNG,g,611431b8dfc10c8bb1393e8c,2021-09-08_20h03.57.403,forced_choiceRT,2021.1.2,MacIntel,59.97361161,,,,,,,,5,Ontime,j,0,1.979,0,0,0,1,1,,,,,
,1.92,,,,,,,,,j.PNG,j,611431b8dfc10c8bb1393e8c,2021-09-08_20h03.57.403,forced_choiceRT,2021.1.2,MacIntel,59.97361161,,,,,,,,5,Ontime,g,0,1.9898,0,1,1,3,1,,,,,
,0.12,,,,,,,,,h.PNG,h,611431b8dfc10c8bb1393e8c,2021-09-08_20h03.57.403,forced_choiceRT,2021.1.2,MacIntel,59.97361161,,,,,,,,5,Ontime,h,1,1.9203,0,2,2,2,1,,,,,
,1.08,,,,,,,,,f.PNG,f,611431b8dfc10c8bb1393e8c,2021-09-08_20h03.57.403,forced_choiceRT,2021.1.2,MacIntel,59.97361161,,,,,,,,5,Ontime,f,1,2.0681,0,3,3,0,1,,,,,
,0.11,,,,,,,,,h.PNG,h,611431b8dfc10c8bb1393e8c,2021-09-08_20h03.57.403,forced_choiceRT,2021.1.2,MacIntel,59.97361161,,,,,,,,5,Ontime,h,1,1.9853,1,0,4,2,1,,,,,
,1.48,,,,,,,,,j.PNG,j,611431b8dfc10c8bb1393e8c,2021-09-08_20h03.57.403,forced_choiceRT,2021.1.2,MacIntel,59.97361161,,,,,,,,5,Ontime,j,1,2.0172,1,1,5,3,1,,,,,
,1.62,,,,,,,,,h.PNG,h,611431b8dfc10c8bb1393e8c,2021-09-08_20h03.57.403,forced_choiceRT,2021.1.2,MacIntel,59.97361161,,,,,,,,5,Slow,h,1,2.1024,1,2,6,2,1,,,,,
,0.02,,,,,,,,,g.PNG,g,611431b8dfc10c8bb1393e8c,2021-09-08_20h03.57.403,forced_choiceRT,2021.1.2,MacIntel,59.97361161,,,,,,,,5,Ontime,g,1,1.9339,1,3,7,1,1,,,,,
,1.84,,,,,,,,,f.PNG,f,611431b8dfc10c8bb1393e8c,2021-09-08_20h03.57.403,forced_choiceRT,2021.1.2,MacIntel,59.97361161,,,,,,,,5,Ontime,j,0,1.965,2,0,8,0,1,,,,,
,0.6,,,,,,,,,f.PNG,f,611431b8dfc10c8bb1393e8c,2021-09-08_20h03.57.403,forced_choiceRT,2021.1.2,MacIntel,59.97361161,,,,,,,,5,Ontime,f,1,1.9376,2,1,9,0,1,,,,,
,1.32,,,,,,,,,h.PNG,h,611431b8dfc10c8bb1393e8c,2021-09-08_20h03.57.403,forced_choiceRT,2021.1.2,MacIntel,59.97361161,,,,,,,,5,Ontime,h,1,1.9512,2,2,10,2,1,,,,,
,1.81,,,,,,,,,f.PNG,f,611431b8dfc10c8bb1393e8c,2021-09-08_20h03.57.403,forced_choiceRT,2021.1.2,MacIntel,59.97361161,,,,,,,,5,Ontime,j,0,2.0196,2,3,11,0,1,,,,,
,1.75,,,,,,,,,j.PNG,j,611431b8dfc10c8bb1393e8c,2021-09-08_20h03.57.403,forced_choiceRT,2021.1.2,MacIntel,59.97361161,,,,,,,,5,Ontime,f,0,1.9534,3,0,12,3,1,,,,,
,0.84,,,,,,,,,g.PNG,g,611431b8dfc10c8bb1393e8c,2021-09-08_20h03.57.403,forced_choiceRT,2021.1.2,MacIntel,59.97361161,,,,,,,,5,Ontime,g,1,2.0189,3,1,13,1,1,,,,,
,1.18,,,,,,,,,g.PNG,g,611431b8dfc10c8bb1393e8c,2021-09-08_20h03.57.403,forced_choiceRT,2021.1.2,MacIntel,59.97361161,,,,,,,,5,Ontime,g,1,1.9518,3,2,14,1,1,,,,,
,0.43,,,,,,,,,j.PNG,j,611431b8dfc10c8bb1393e8c,2021-09-08_20h03.57.403,forced_choiceRT,2021.1.2,MacIntel,59.97361161,,,,,,,,5,Ontime,j,1,1.9655,3,3,15,3,1,,,,,
,1.05,,,,,,,,,j.PNG,j,611431b8dfc10c8bb1393e8c,2021-09-08_20h03.57.403,forced_choiceRT,2021.1.2,MacIntel,59.97361161,,,,,,,,5,Ontime,j,1,1.9695,4,0,16,3,1,,,,,
,0.5,,,,,,,,,h.PNG,h,611431b8dfc10c8bb1393e8c,2021-09-08_20h03.57.403,forced_choiceRT,2021.1.2,MacIntel,59.97361161,,,,,,,,5,Ontime,h,1,1.9849,4,1,17,2,1,,,,,
,1.44,,,,,,,,,f.PNG,f,611431b8dfc10c8bb1393e8c,2021-09-08_20h03.57.403,forced_choiceRT,2021.1.2,MacIntel,59.97361161,,,,,,,,5,Ontime,g,0,2.0519,4,2,18,0,1,,,,,
,0.71,,,,,,,,,j.PNG,j,611431b8dfc10c8bb1393e8c,2021-09-08_20h03.57.403,forced_choiceRT,2021.1.2,MacIntel,59.97361161,,,,,,,,5,Ontime,j,1,1.9696,4,3,19,3,1,,,,,
,1.26,,,,,,,,,j.PNG,j,611431b8dfc10c8bb1393e8c,2021-09-08_20h03.57.403,forced_choiceRT,2021.1.2,MacIntel,59.97361161,,,,,,,,5,Fast,j,1,0.6833,5,0,20,3,1,,,,,
,1.15,,,,,,,,,g.PNG,g,611431b8dfc10c8bb1393e8c,2021-09-08_20h03.57.403,forced_choiceRT,2021.1.2,MacIntel,59.97361161,,,,,,,,5,Slow,h,0,2.169,5,1,21,1,1,,,,,
,1.59,,,,,,,,,j.PNG,j,611431b8dfc10c8bb1393e8c,2021-09-08_20h03.57.403,forced_choiceRT,2021.1.2,MacIntel,59.97361161,,,,,,,,5,Slow,j,1,2.1842,5,2,22,3,1,,,,,
,0.07,,,,,,,,,g.PNG,g,611431b8dfc10c8bb1393e8c,2021-09-08_20h03.57.403,forced_choiceRT,2021.1.2,MacIntel,59.97361161,,,,,,,,5,Ontime,g,1,1.9687,5,3,23,1,1,,,,,
,1.79,,,,,,,,,h.PNG,h,611431b8dfc10c8bb1393e8c,2021-09-08_20h03.57.403,forced_choiceRT,2021.1.2,MacIntel,59.97361161,,,,,,,,5,Ontime,j,0,1.9351,6,0,24,2,1,,,,,
,0.49,,,,,,,,,f.PNG,f,611431b8dfc10c8bb1393e8c,2021-09-08_20h03.57.403,forced_choiceRT,2021.1.2,MacIntel,59.97361161,,,,,,,,5,Ontime,f,1,2.0199,6,1,25,0,1,,,,,
,0.54,,,,,,,,,h.PNG,h,611431b8dfc10c8bb1393e8c,2021-09-08_20h03.57.403,forced_choiceRT,2021.1.2,MacIntel,59.97361161,,,,,,,,5,Ontime,h,1,2.0031,6,2,26,2,1,,,,,
,0.05,,,,,,,,,j.PNG,j,611431b8dfc10c8bb1393e8c,2021-09-08_20h03.57.403,forced_choiceRT,2021.1.2,MacIntel,59.97361161,,,,,,,,5,Ontime,j,1,1.9677,6,3,27,3,1,,,,,
,0.81,,,,,,,,,h.PNG,h,611431b8dfc10c8bb1393e8c,2021-09-08_20h03.57.403,forced_choiceRT,2021.1.2,MacIntel,59.97361161,,,,,,,,5,Ontime,h,1,1.9339,7,0,28,2,1,,,,,
,0.4,,,,,,,,,g.PNG,g,611431b8dfc10c8bb1393e8c,2021-09-08_20h03.57.403,forced_choiceRT,2021.1.2,MacIntel,59.97361161,,,,,,,,5,Ontime,g,1,2.0684,7,1,29,1,1,,,,,
,0.22,,,,,,,,,h.PNG,h,611431b8dfc10c8bb1393e8c,2021-09-08_20h03.57.403,forced_choiceRT,2021.1.2,MacIntel,59.97361161,,,,,,,,5,Ontime,h,1,2.0021,7,2,30,2,1,,,,,
,1.11,,,,,,,,,j.PNG,j,611431b8dfc10c8bb1393e8c,2021-09-08_20h03.57.403,forced_choiceRT,2021.1.2,MacIntel,59.97361161,,,,,,,,5,Ontime,j,1,2.0018,7,3,31,3,1,,,,,
,0.24,,,,,,,,,h.PNG,h,611431b8dfc10c8bb1393e8c,2021-09-08_20h03.57.403,forced_choiceRT,2021.1.2,MacIntel,59.97361161,,,,,,,,5,Ontime,h,1,2.0027,8,0,32,2,1,,,,,
,1.73,,,,,,,,,f.PNG,f,611431b8dfc10c8bb1393e8c,2021-09-08_20h03.57.403,forced_choiceRT,2021.1.2,MacIntel,59.97361161,,,,,,,,5,Ontime,j,0,2.0145,8,1,33,0,1,,,,,
,0.75,,,,,,,,,f.PNG,f,611431b8dfc10c8bb1393e8c,2021-09-08_20h03.57.403,forced_choiceRT,2021.1.2,MacIntel,59.97361161,,,,,,,,5,Ontime,f,1,2.0188,8,2,34,0,1,,,,,
,0.4,,,,,,,,,g.PNG,g,611431b8dfc10c8bb1393e8c,2021-09-08_20h03.57.403,forced_choiceRT,2021.1.2,MacIntel,59.97361161,,,,,,,,5,Ontime,g,1,2.0559,8,3,35,1,1,,,,,
,1.94,,,,,,,,,g.PNG,g,611431b8dfc10c8bb1393e8c,2021-09-08_20h03.57.403,forced_choiceRT,2021.1.2,MacIntel,59.97361161,,,,,,,,5,Ontime,h,0,1.936,9,0,36,1,1,,,,,
,0.36,,,,,,,,,f.PNG,f,611431b8dfc10c8bb1393e8c,2021-09-08_20h03.57.403,forced_choiceRT,2021.1.2,MacIntel,59.97361161,,,,,,,,5,Ontime,f,1,1.9717,9,1,37,0,1,,,,,
,1.42,,,,,,,,,g.PNG,g,611431b8dfc10c8bb1393e8c,2021-09-08_20h03.57.403,forced_choiceRT,2021.1.2,MacIntel,59.97361161,,,,,,,,5,Ontime,g,1,2.0375,9,2,38,1,1,,,,,
,1.88,,,,,,,,,f.PNG,f,611431b8dfc10c8bb1393e8c,2021-09-08_20h03.57.403,forced_choiceRT,2021.1.2,MacIntel,59.97361161,,,,,,,,5,Ontime,h,0,1.9842,9,3,39,0,1,,,,,
,,,,,,,,,,,,611431b8dfc10c8bb1393e8c,2021-09-08_20h03.57.403,forced_choiceRT,2021.1.2,MacIntel,59.97361161,,,,,,,,,,,,,,,,,,4,0,4,0,1
,1.4,,,,,,,,,f.PNG,f,611431b8dfc10c8bb1393e8c,2021-09-08_20h03.57.403,forced_choiceRT,2021.1.2,MacIntel,59.97361161,,,,,,,,6,Ontime,f,1,2.0608,0,0,0,0,1,,,,,
,1.17,,,,,,,,,j.PNG,j,611431b8dfc10c8bb1393e8c,2021-09-08_20h03.57.403,forced_choiceRT,2021.1.2,MacIntel,59.97361161,,,,,,,,6,Ontime,j,1,2.0518,0,1,1,3,1,,,,,
,0.49,,,,,,,,,h.PNG,h,611431b8dfc10c8bb1393e8c,2021-09-08_20h03.57.403,forced_choiceRT,2021.1.2,MacIntel,59.97361161,,,,,,,,6,Ontime,h,1,2.0021,0,2,2,2,1,,,,,
,0.75,,,,,,,,,g.PNG,g,611431b8dfc10c8bb1393e8c,2021-09-08_20h03.57.403,forced_choiceRT,2021.1.2,MacIntel,59.97361161,,,,,,,,6,Ontime,g,1,2.0038,0,3,3,1,1,,,,,
,1.15,,,,,,,,,j.PNG,j,611431b8dfc10c8bb1393e8c,2021-09-08_20h03.57.403,forced_choiceRT,2021.1.2,MacIntel,59.97361161,,,,,,,,6,Ontime,j,1,1.9336,1,0,4,3,1,,,,,
,0.58,,,,,,,,,g.PNG,g,611431b8dfc10c8bb1393e8c,2021-09-08_20h03.57.403,forced_choiceRT,2021.1.2,MacIntel,59.97361161,,,,,,,,6,Ontime,g,1,1.9369,1,1,5,1,1,,,,,
,0.92,,,,,,,,,j.PNG,j,611431b8dfc10c8bb1393e8c,2021-09-08_20h03.57.403,forced_choiceRT,2021.1.2,MacIntel,59.97361161,,,,,,,,6,Ontime,j,1,1.9345,1,2,6,3,1,,,,,
,1.52,,,,,,,,,f.PNG,f,611431b8dfc10c8bb1393e8c,2021-09-08_20h03.57.403,forced_choiceRT,2021.1.2,MacIntel,59.97361161,,,,,,,,6,Ontime,g,0,2.0346,1,3,7,0,1,,,,,
,1.32,,,,,,,,,g.PNG,g,611431b8dfc10c8bb1393e8c,2021-09-08_20h03.57.403,forced_choiceRT,2021.1.2,MacIntel,59.97361161,,,,,,,,6,Ontime,g,1,2.0179,2,0,8,1,1,,,,,
,0.68,,,,,,,,,j.PNG,j,611431b8dfc10c8bb1393e8c,2021-09-08_20h03.57.403,forced_choiceRT,2021.1.2,MacIntel,59.97361161,,,,,,,,6,Ontime,j,1,1.9517,2,1,9,3,1,,,,,
,1.55,,,,,,,,,g.PNG,g,611431b8dfc10c8bb1393e8c,2021-09-08_20h03.57.403,forced_choiceRT,2021.1.2,MacIntel,59.97361161,,,,,,,,6,Slow,g,1,2.1348,2,2,10,1,1,,,,,
,1.45,,,,,,,,,h.PNG,h,611431b8dfc10c8bb1393e8c,2021-09-08_20h03.57.403,forced_choiceRT,2021.1.2,MacIntel,59.97361161,,,,,,,,6,Ontime,h,1,2.0685,2,3,11,2,1,,,,,
,0.13,,,,,,,,,g.PNG,g,611431b8dfc10c8bb1393e8c,2021-09-08_20h03.57.403,forced_choiceRT,2021.1.2,MacIntel,59.97361161,,,,,,,,6,Ontime,g,1,1.9505,3,0,12,1,1,,,,,
,1.78,,,,,,,,,j.PNG,j,611431b8dfc10c8bb1393e8c,2021-09-08_20h03.57.403,forced_choiceRT,2021.1.2,MacIntel,59.97361161,,,,,,,,6,Slow,j,1,2.2537,3,1,13,3,1,,,,,
,0.6,,,,,,,,,j.PNG,j,611431b8dfc10c8bb1393e8c,2021-09-08_20h03.57.403,forced_choiceRT,2021.1.2,MacIntel,59.97361161,,,,,,,,6,Ontime,j,1,1.9679,3,2,14,3,1,,,,,
,1.88,,,,,,,,,h.PNG,h,611431b8dfc10c8bb1393e8c,2021-09-08_20h03.57.403,forced_choiceRT,2021.1.2,MacIntel,59.97361161,,,,,,,,6,Ontime,j,0,2.0361,3,3,15,2,1,,,,,
,1.53,,,,,,,,,g.PNG,g,611431b8dfc10c8bb1393e8c,2021-09-08_20h03.57.403,forced_choiceRT,2021.1.2,MacIntel,59.97361161,,,,,,,,6,Ontime,h,0,1.985,4,0,16,1,1,,,,,
,0.45,,,,,,,,,f.PNG,f,611431b8dfc10c8bb1393e8c,2021-09-08_20h03.57.403,forced_choiceRT,2021.1.2,MacIntel,59.97361161,,,,,,,,6,Ontime,f,1,1.9554,4,1,17,0,1,,,,,
,0.34,,,,,,,,,h.PNG,h,611431b8dfc10c8bb1393e8c,2021-09-08_20h03.57.403,forced_choiceRT,2021.1.2,MacIntel,59.97361161,,,,,,,,6,Ontime,h,1,2.0349,4,2,18,2,1,,,,,
,0.22,,,,,,,,,f.PNG,f,611431b8dfc10c8bb1393e8c,2021-09-08_20h03.57.403,forced_choiceRT,2021.1.2,MacIntel,59.97361161,,,,,,,,6,Slow,f,1,2.1196,4,3,19,0,1,,,,,
,1.83,,,,,,,,,h.PNG,h,611431b8dfc10c8bb1393e8c,2021-09-08_20h03.57.403,forced_choiceRT,2021.1.2,MacIntel,59.97361161,,,,,,,,6,Ontime,h,1,2.0171,5,0,20,2,1,,,,,
,0,,,,,,,,,j.PNG,j,611431b8dfc10c8bb1393e8c,2021-09-08_20h03.57.403,forced_choiceRT,2021.1.2,MacIntel,59.97361161,,,,,,,,6,Ontime,j,1,1.9514,5,1,21,3,1,,,,,
,1.51,,,,,,,,,g.PNG,g,611431b8dfc10c8bb1393e8c,2021-09-08_20h03.57.403,forced_choiceRT,2021.1.2,MacIntel,59.97361161,,,,,,,,6,Ontime,f,0,1.938,5,2,22,1,1,,,,,
,0.41,,,,,,,,,f.PNG,f,611431b8dfc10c8bb1393e8c,2021-09-08_20h03.57.403,forced_choiceRT,2021.1.2,MacIntel,59.97361161,,,,,,,,6,Ontime,f,1,2.0528,5,3,23,0,1,,,,,
,1.66,,,,,,,,,h.PNG,h,611431b8dfc10c8bb1393e8c,2021-09-08_20h03.57.403,forced_choiceRT,2021.1.2,MacIntel,59.97361161,,,,,,,,6,Ontime,h,1,1.9809,6,0,24,2,1,,,,,
,0.82,,,,,,,,,j.PNG,j,611431b8dfc10c8bb1393e8c,2021-09-08_20h03.57.403,forced_choiceRT,2021.1.2,MacIntel,59.97361161,,,,,,,,6,Slow,j,1,2.1035,6,1,25,3,1,,,,,
,1.33,,,,,,,,,f.PNG,f,611431b8dfc10c8bb1393e8c,2021-09-08_20h03.57.403,forced_choiceRT,2021.1.2,MacIntel,59.97361161,,,,,,,,6,Ontime,f,1,1.9353,6,2,26,0,1,,,,,
,0.49,,,,,,,,,g.PNG,g,611431b8dfc10c8bb1393e8c,2021-09-08_20h03.57.403,forced_choiceRT,2021.1.2,MacIntel,59.97361161,,,,,,,,6,Ontime,g,1,1.9524,6,3,27,1,1,,,,,
,0.44,,,,,,,,,f.PNG,f,611431b8dfc10c8bb1393e8c,2021-09-08_20h03.57.403,forced_choiceRT,2021.1.2,MacIntel,59.97361161,,,,,,,,6,Fast,f,1,1.8016,7,0,28,0,1,,,,,
,1.11,,,,,,,,,f.PNG,f,611431b8dfc10c8bb1393e8c,2021-09-08_20h03.57.403,forced_choiceRT,2021.1.2,MacIntel,59.97361161,,,,,,,,6,Ontime,f,1,1.9334,7,1,29,0,1,,,,,
,1.92,,,,,,,,,h.PNG,h,611431b8dfc10c8bb1393e8c,2021-09-08_20h03.57.403,forced_choiceRT,2021.1.2,MacIntel,59.97361161,,,,,,,,6,Ontime,h,1,2.0523,7,2,30,2,1,,,,,
,0.42,,,,,,,,,j.PNG,j,611431b8dfc10c8bb1393e8c,2021-09-08_20h03.57.403,forced_choiceRT,2021.1.2,MacIntel,59.97361161,,,,,,,,6,Ontime,j,1,2.0347,7,3,31,3,1,,,,,
,1.6,,,,,,,,,h.PNG,h,611431b8dfc10c8bb1393e8c,2021-09-08_20h03.57.403,forced_choiceRT,2021.1.2,MacIntel,59.97361161,,,,,,,,6,Ontime,h,1,1.9541,8,0,32,2,1,,,,,
,0.14,,,,,,,,,h.PNG,h,611431b8dfc10c8bb1393e8c,2021-09-08_20h03.57.403,forced_choiceRT,2021.1.2,MacIntel,59.97361161,,,,,,,,6,Ontime,h,1,1.9351,8,1,33,2,1,,,,,
,1.55,,,,,,,,,f.PNG,f,611431b8dfc10c8bb1393e8c,2021-09-08_20h03.57.403,forced_choiceRT,2021.1.2,MacIntel,59.97361161,,,,,,,,6,Ontime,f,1,2.0894,8,2,34,0,1,,,,,
,1.15,,,,,,,,,g.PNG,g,611431b8dfc10c8bb1393e8c,2021-09-08_20h03.57.403,forced_choiceRT,2021.1.2,MacIntel,59.97361161,,,,,,,,6,Slow,g,1,2.1192,8,3,35,1,1,,,,,
,0.3,,,,,,,,,h.PNG,h,611431b8dfc10c8bb1393e8c,2021-09-08_20h03.57.403,forced_choiceRT,2021.1.2,MacIntel,59.97361161,,,,,,,,6,Fast,h,1,1.8353,9,0,36,2,1,,,,,
,1.09,,,,,,,,,g.PNG,g,611431b8dfc10c8bb1393e8c,2021-09-08_20h03.57.403,forced_choiceRT,2021.1.2,MacIntel,59.97361161,,,,,,,,6,Ontime,g,1,1.9533,9,1,37,1,1,,,,,
,1.85,,,,,,,,,j.PNG,j,611431b8dfc10c8bb1393e8c,2021-09-08_20h03.57.403,forced_choiceRT,2021.1.2,MacIntel,59.97361161,,,,,,,,6,Ontime,j,1,2.0379,9,2,38,3,1,,,,,
,1.85,,,,,,,,,f.PNG,f,611431b8dfc10c8bb1393e8c,2021-09-08_20h03.57.403,forced_choiceRT,2021.1.2,MacIntel,59.97361161,,,,,,,,6,Ontime,h,0,2.0048,9,3,39,0,1,,,,,
,,,,,,,,,,,,611431b8dfc10c8bb1393e8c,2021-09-08_20h03.57.403,forced_choiceRT,2021.1.2,MacIntel,59.97361161,,,,,,,,,,,,,,,,,,5,0,5,0,1
,0.45,,,,,,,,,j.PNG,j,611431b8dfc10c8bb1393e8c,2021-09-08_20h03.57.403,forced_choiceRT,2021.1.2,MacIntel,59.97361161,,,,,,,,7,Ontime,j,1,1.963,0,0,0,3,1,,,,,
,1.56,,,,,,,,,f.PNG,f,611431b8dfc10c8bb1393e8c,2021-09-08_20h03.57.403,forced_choiceRT,2021.1.2,MacIntel,59.97361161,,,,,,,,7,Ontime,f,1,2.0174,0,1,1,0,1,,,,,
,1.03,,,,,,,,,j.PNG,j,611431b8dfc10c8bb1393e8c,2021-09-08_20h03.57.403,forced_choiceRT,2021.1.2,MacIntel,59.97361161,,,,,,,,7,Ontime,j,1,1.9522,0,2,2,3,1,,,,,
,0.81,,,,,,,,,g.PNG,g,611431b8dfc10c8bb1393e8c,2021-09-08_20h03.57.403,forced_choiceRT,2021.1.2,MacIntel,59.97361161,,,,,,,,7,Ontime,g,1,1.9181,0,3,3,1,1,,,,,
,1.37,,,,,,,,,g.PNG,g,611431b8dfc10c8bb1393e8c,2021-09-08_20h03.57.403,forced_choiceRT,2021.1.2,MacIntel,59.97361161,,,,,,,,7,Ontime,g,1,1.9899,1,0,4,1,1,,,,,
,0.34,,,,,,,,,f.PNG,f,611431b8dfc10c8bb1393e8c,2021-09-08_20h03.57.403,forced_choiceRT,2021.1.2,MacIntel,59.97361161,,,,,,,,7,Ontime,f,1,1.9684,1,1,5,0,1,,,,,
,0.78,,,,,,,,,j.PNG,j,611431b8dfc10c8bb1393e8c,2021-09-08_20h03.57.403,forced_choiceRT,2021.1.2,MacIntel,59.97361161,,,,,,,,7,Ontime,j,1,2.0014,1,2,6,3,1,,,,,
,1.23,,,,,,,,,g.PNG,g,611431b8dfc10c8bb1393e8c,2021-09-08_20h03.57.403,forced_choiceRT,2021.1.2,MacIntel,59.97361161,,,,,,,,7,Ontime,g,1,2.0502,1,3,7,1,1,,,,,
,1.87,,,,,,,,,j.PNG,j,611431b8dfc10c8bb1393e8c,2021-09-08_20h03.57.403,forced_choiceRT,2021.1.2,MacIntel,59.97361161,,,,,,,,7,Ontime,h,0,1.9894,2,0,8,3,1,,,,,
,1.72,,,,,,,,,h.PNG,h,611431b8dfc10c8bb1393e8c,2021-09-08_20h03.57.403,forced_choiceRT,2021.1.2,MacIntel,59.97361161,,,,,,,,7,Ontime,j,0,2.0525,2,1,9,2,1,,,,,
,0.08,,,,,,,,,j.PNG,j,611431b8dfc10c8bb1393e8c,2021-09-08_20h03.57.403,forced_choiceRT,2021.1.2,MacIntel,59.97361161,,,,,,,,7,Fast,j,1,1.7846,2,2,10,3,1,,,,,
,0.65,,,,,,,,,g.PNG,g,611431b8dfc10c8bb1393e8c,2021-09-08_20h03.57.403,forced_choiceRT,2021.1.2,MacIntel,59.97361161,,,,,,,,7,Ontime,g,1,1.9187,2,3,11,1,1,,,,,
,0.54,,,,,,,,,h.PNG,h,611431b8dfc10c8bb1393e8c,2021-09-08_20h03.57.403,forced_choiceRT,2021.1.2,MacIntel,59.97361161,,,,,,,,7,Ontime,h,1,1.9827,3,0,12,2,1,,,,,
,1.43,,,,,,,,,j.PNG,j,611431b8dfc10c8bb1393e8c,2021-09-08_20h03.57.403,forced_choiceRT,2021.1.2,MacIntel,59.97361161,,,,,,,,7,Ontime,j,1,2.0703,3,1,13,3,1,,,,,
,0.27,,,,,,,,,h.PNG,h,611431b8dfc10c8bb1393e8c,2021-09-08_20h03.57.403,forced_choiceRT,2021.1.2,MacIntel,59.97361161,,,,,,,,7,Ontime,h,1,1.9865,3,2,14,2,1,,,,,
,0.18,,,,,,,,,j.PNG,j,611431b8dfc10c8bb1393e8c,2021-09-08_20h03.57.403,forced_choiceRT,2021.1.2,MacIntel,59.97361161,,,,,,,,7,Ontime,j,1,1.9543,3,3,15,3,1,,,,,
,0.4,,,,,,,,,h.PNG,h,611431b8dfc10c8bb1393e8c,2021-09-08_20h03.57.403,forced_choiceRT,2021.1.2,MacIntel,59.97361161,,,,,,,,7,Ontime,h,1,2.0855,4,0,16,2,1,,,,,
,0.5,,,,,,,,,g.PNG,g,611431b8dfc10c8bb1393e8c,2021-09-08_20h03.57.403,forced_choiceRT,2021.1.2,MacIntel,59.97361161,,,,,,,,7,Ontime,g,1,1.9342,4,1,17,1,1,,,,,
,0.58,,,,,,,,,g.PNG,g,611431b8dfc10c8bb1393e8c,2021-09-08_20h03.57.403,forced_choiceRT,2021.1.2,MacIntel,59.97361161,,,,,,,,7,Ontime,g,1,2.0204,4,2,18,1,1,,,,,
,0.58,,,,,,,,,j.PNG,j,611431b8dfc10c8bb1393e8c,2021-09-08_20h03.57.403,forced_choiceRT,2021.1.2,MacIntel,59.97361161,,,,,,,,7,Ontime,j,1,1.9859,4,3,19,3,1,,,,,
,0.1,,,,,,,,,h.PNG,h,611431b8dfc10c8bb1393e8c,2021-09-08_20h03.57.403,forced_choiceRT,2021.1.2,MacIntel,59.97361161,,,,,,,,7,Ontime,h,1,1.9687,5,0,20,2,1,,,,,
,1.19,,,,,,,,,h.PNG,h,611431b8dfc10c8bb1393e8c,2021-09-08_20h03.57.403,forced_choiceRT,2021.1.2,MacIntel,59.97361161,,,,,,,,7,Slow,h,1,2.1349,5,1,21,2,1,,,,,
,0.83,,,,,,,,,f.PNG,f,611431b8dfc10c8bb1393e8c,2021-09-08_20h03.57.403,forced_choiceRT,2021.1.2,MacIntel,59.97361161,,,,,,,,7,Ontime,f,1,2.0027,5,2,22,0,1,,,,,
,1.22,,,,,,,,,f.PNG,f,611431b8dfc10c8bb1393e8c,2021-09-08_20h03.57.403,forced_choiceRT,2021.1.2,MacIntel,59.97361161,,,,,,,,7,Ontime,f,1,2.0675,5,3,23,0,1,,,,,
,0.85,,,,,,,,,h.PNG,h,611431b8dfc10c8bb1393e8c,2021-09-08_20h03.57.403,forced_choiceRT,2021.1.2,MacIntel,59.97361161,,,,,,,,7,Ontime,h,1,1.9197,6,0,24,2,1,,,,,
,1.59,,,,,,,,,g.PNG,g,611431b8dfc10c8bb1393e8c,2021-09-08_20h03.57.403,forced_choiceRT,2021.1.2,MacIntel,59.97361161,,,,,,,,7,Slow,g,1,2.1143,6,1,25,1,1,,,,,
,0.45,,,,,,,,,f.PNG,f,611431b8dfc10c8bb1393e8c,2021-09-08_20h03.57.403,forced_choiceRT,2021.1.2,MacIntel,59.97361161,,,,,,,,7,Slow,f,1,2.169,6,2,26,0,1,,,,,
,0.25,,,,,,,,,f.PNG,f,611431b8dfc10c8bb1393e8c,2021-09-08_20h03.57.403,forced_choiceRT,2021.1.2,MacIntel,59.97361161,,,,,,,,7,Ontime,f,1,2.0022,6,3,27,0,1,,,,,
,1.6,,,,,,,,,g.PNG,g,611431b8dfc10c8bb1393e8c,2021-09-08_20h03.57.403,forced_choiceRT,2021.1.2,MacIntel,59.97361161,,,,,,,,7,Slow,g,1,2.1197,7,0,28,1,1,,,,,
,1.91,,,,,,,,,g.PNG,g,611431b8dfc10c8bb1393e8c,2021-09-08_20h03.57.403,forced_choiceRT,2021.1.2,MacIntel,59.97361161,,,,,,,,7,Fast,h,0,1.8357,7,1,29,1,1,,,,,
,1.27,,,,,,,,,j.PNG,j,611431b8dfc10c8bb1393e8c,2021-09-08_20h03.57.403,forced_choiceRT,2021.1.2,MacIntel,59.97361161,,,,,,,,7,Fast,j,1,1.8853,7,2,30,3,1,,,,,
,1.78,,,,,,,,,h.PNG,h,611431b8dfc10c8bb1393e8c,2021-09-08_20h03.57.403,forced_choiceRT,2021.1.2,MacIntel,59.97361161,,,,,,,,7,Ontime,h,1,2.0858,7,3,31,2,1,,,,,
,1.88,,,,,,,,,j.PNG,j,611431b8dfc10c8bb1393e8c,2021-09-08_20h03.57.403,forced_choiceRT,2021.1.2,MacIntel,59.97361161,,,,,,,,7,Ontime,j,1,2.036,8,0,32,3,1,,,,,
,0.2,,,,,,,,,f.PNG,f,611431b8dfc10c8bb1393e8c,2021-09-08_20h03.57.403,forced_choiceRT,2021.1.2,MacIntel,59.97361161,,,,,,,,7,Ontime,f,1,2.0025,8,1,33,0,1,,,,,
,1.74,,,,,,,,,f.PNG,f,611431b8dfc10c8bb1393e8c,2021-09-08_20h03.57.403,forced_choiceRT,2021.1.2,MacIntel,59.97361161,,,,,,,,7,Ontime,g,0,2.038,8,2,34,0,1,,,,,
,0.51,,,,,,,,,g.PNG,g,611431b8dfc10c8bb1393e8c,2021-09-08_20h03.57.403,forced_choiceRT,2021.1.2,MacIntel,59.97361161,,,,,,,,7,Ontime,g,1,2.0058,8,3,35,1,1,,,,,
,1.26,,,,,,,,,h.PNG,h,611431b8dfc10c8bb1393e8c,2021-09-08_20h03.57.403,forced_choiceRT,2021.1.2,MacIntel,59.97361161,,,,,,,,7,Ontime,h,1,1.9686,9,0,36,2,1,,,,,
,0.89,,,,,,,,,f.PNG,f,611431b8dfc10c8bb1393e8c,2021-09-08_20h03.57.403,forced_choiceRT,2021.1.2,MacIntel,59.97361161,,,,,,,,7,Ontime,f,1,1.9386,9,1,37,0,1,,,,,
,1.19,,,,,,,,,h.PNG,h,611431b8dfc10c8bb1393e8c,2021-09-08_20h03.57.403,forced_choiceRT,2021.1.2,MacIntel,59.97361161,,,,,,,,7,Ontime,h,1,2.0195,9,2,38,2,1,,,,,
,1.82,,,,,,,,,f.PNG,f,611431b8dfc10c8bb1393e8c,2021-09-08_20h03.57.403,forced_choiceRT,2021.1.2,MacIntel,59.97361161,,,,,,,,7,Ontime,g,0,1.9853,9,3,39,0,1,,,,,
,,,,,,,,,,,,611431b8dfc10c8bb1393e8c,2021-09-08_20h03.57.403,forced_choiceRT,2021.1.2,MacIntel,59.97361161,,,,,,,,,,,,,,,,,,6,0,6,0,1
,0.77,,,,,,,,,j.PNG,j,611431b8dfc10c8bb1393e8c,2021-09-08_20h03.57.403,forced_choiceRT,2021.1.2,MacIntel,59.97361161,,,,,,,,8,Ontime,j,1,2.0248,0,0,0,3,1,,,,,
,0.51,,,,,,,,,g.PNG,g,611431b8dfc10c8bb1393e8c,2021-09-08_20h03.57.403,forced_choiceRT,2021.1.2,MacIntel,59.97361161,,,,,,,,8,Ontime,g,1,2.083,0,1,1,1,1,,,,,
,0.38,,,,,,,,,f.PNG,f,611431b8dfc10c8bb1393e8c,2021-09-08_20h03.57.403,forced_choiceRT,2021.1.2,MacIntel,59.97361161,,,,,,,,8,Fast,f,1,1.8988,0,2,2,0,1,,,,,
,0.19,,,,,,,,,f.PNG,f,611431b8dfc10c8bb1393e8c,2021-09-08_20h03.57.403,forced_choiceRT,2021.1.2,MacIntel,59.97361161,,,,,,,,8,Ontime,f,1,1.9703,0,3,3,0,1,,,,,
,1.33,,,,,,,,,j.PNG,j,611431b8dfc10c8bb1393e8c,2021-09-08_20h03.57.403,forced_choiceRT,2021.1.2,MacIntel,59.97361161,,,,,,,,8,Ontime,j,1,1.9846,1,0,4,3,1,,,,,
,0.16,,,,,,,,,f.PNG,f,611431b8dfc10c8bb1393e8c,2021-09-08_20h03.57.403,forced_choiceRT,2021.1.2,MacIntel,59.97361161,,,,,,,,8,Ontime,f,1,1.9522,1,1,5,0,1,,,,,
,1.05,,,,,,,,,g.PNG,g,611431b8dfc10c8bb1393e8c,2021-09-08_20h03.57.403,forced_choiceRT,2021.1.2,MacIntel,59.97361161,,,,,,,,8,Ontime,g,1,1.9538,1,2,6,1,1,,,,,
,1.3,,,,,,,,,h.PNG,h,611431b8dfc10c8bb1393e8c,2021-09-08_20h03.57.403,forced_choiceRT,2021.1.2,MacIntel,59.97361161,,,,,,,,8,Ontime,h,1,1.9202,1,3,7,2,1,,,,,
,0.81,,,,,,,,,h.PNG,h,611431b8dfc10c8bb1393e8c,2021-09-08_20h03.57.403,forced_choiceRT,2021.1.2,MacIntel,59.97361161,,,,,,,,8,Ontime,h,1,2.0014,2,0,8,2,1,,,,,
,1.1,,,,,,,,,f.PNG,f,611431b8dfc10c8bb1393e8c,2021-09-08_20h03.57.403,forced_choiceRT,2021.1.2,MacIntel,59.97361161,,,,,,,,8,Ontime,f,1,2.0536,2,1,9,0,1,,,,,
,1.66,,,,,,,,,j.PNG,j,611431b8dfc10c8bb1393e8c,2021-09-08_20h03.57.403,forced_choiceRT,2021.1.2,MacIntel,59.97361161,,,,,,,,8,Ontime,j,1,2.0019,2,2,10,3,1,,,,,
,0.32,,,,,,,,,j.PNG,j,611431b8dfc10c8bb1393e8c,2021-09-08_20h03.57.403,forced_choiceRT,2021.1.2,MacIntel,59.97361161,,,,,,,,8,Ontime,j,1,1.9687,2,3,11,3,1,,,,,
,0.12,,,,,,,,,h.PNG,h,611431b8dfc10c8bb1393e8c,2021-09-08_20h03.57.403,forced_choiceRT,2021.1.2,MacIntel,59.97361161,,,,,,,,8,Ontime,h,1,1.9528,3,0,12,2,1,,,,,
,1.11,,,,,,,,,g.PNG,g,611431b8dfc10c8bb1393e8c,2021-09-08_20h03.57.403,forced_choiceRT,2021.1.2,MacIntel,59.97361161,,,,,,,,8,Slow,g,1,2.1187,3,1,13,1,1,,,,,
,1,,,,,,,,,h.PNG,h,611431b8dfc10c8bb1393e8c,2021-09-08_20h03.57.403,forced_choiceRT,2021.1.2,MacIntel,59.97361161,,,,,,,,8,Ontime,h,1,1.9559,3,2,14,2,1,,,,,
,0.69,,,,,,,,,h.PNG,h,611431b8dfc10c8bb1393e8c,2021-09-08_20h03.57.403,forced_choiceRT,2021.1.2,MacIntel,59.97361161,,,,,,,,8,Slow,h,1,2.201,3,3,15,2,1,,,,,
,0.91,,,,,,,,,f.PNG,f,611431b8dfc10c8bb1393e8c,2021-09-08_20h03.57.403,forced_choiceRT,2021.1.2,MacIntel,59.97361161,,,,,,,,8,Ontime,f,1,1.9695,4,0,16,0,1,,,,,
,1.93,,,,,,,,,h.PNG,h,611431b8dfc10c8bb1393e8c,2021-09-08_20h03.57.403,forced_choiceRT,2021.1.2,MacIntel,59.97361161,,,,,,,,8,Ontime,j,0,2.0362,4,1,17,2,1,,,,,
,1.21,,,,,,,,,f.PNG,f,611431b8dfc10c8bb1393e8c,2021-09-08_20h03.57.403,forced_choiceRT,2021.1.2,MacIntel,59.97361161,,,,,,,,8,Ontime,f,1,1.9859,4,2,18,0,1,,,,,
,0.09,,,,,,,,,g.PNG,g,611431b8dfc10c8bb1393e8c,2021-09-08_20h03.57.403,forced_choiceRT,2021.1.2,MacIntel,59.97361161,,,,,,,,8,Ontime,g,1,1.9682,4,3,19,1,1,,,,,
,0.48,,,,,,,,,f.PNG,f,611431b8dfc10c8bb1393e8c,2021-09-08_20h03.57.403,forced_choiceRT,2021.1.2,MacIntel,59.97361161,,,,,,,,8,Slow,f,1,2.1517,5,0,20,0,1,,,,,
,1.13,,,,,,,,,g.PNG,g,611431b8dfc10c8bb1393e8c,2021-09-08_20h03.57.403,forced_choiceRT,2021.1.2,MacIntel,59.97361161,,,,,,,,8,Ontime,g,1,2.001,5,1,21,1,1,,,,,
,1.4,,,,,,,,,j.PNG,j,611431b8dfc10c8bb1393e8c,2021-09-08_20h03.57.403,forced_choiceRT,2021.1.2,MacIntel,59.97361161,,,,,,,,8,Ontime,j,1,1.9344,5,2,22,3,1,,,,,
,0.35,,,,,,,,,j.PNG,j,611431b8dfc10c8bb1393e8c,2021-09-08_20h03.57.403,forced_choiceRT,2021.1.2,MacIntel,59.97361161,,,,,,,,8,Ontime,j,1,1.9519,5,3,23,3,1,,,,,
,1.84,,,,,,,,,h.PNG,h,611431b8dfc10c8bb1393e8c,2021-09-08_20h03.57.403,forced_choiceRT,2021.1.2,MacIntel,59.97361161,,,,,,,,8,Ontime,h,1,2.0687,6,0,24,2,1,,,,,
,0.08,,,,,,,,,j.PNG,j,611431b8dfc10c8bb1393e8c,2021-09-08_20h03.57.403,forced_choiceRT,2021.1.2,MacIntel,59.97361161,,,,,,,,8,Ontime,j,1,2.0357,6,1,25,3,1,,,,,
,1.87,,,,,,,,,g.PNG,g,611431b8dfc10c8bb1393e8c,2021-09-08_20h03.57.403,forced_choiceRT,2021.1.2,MacIntel,59.97361161,,,,,,,,8,Ontime,h,0,2.0065,6,2,26,1,1,,,,,
,1.91,,,,,,,,,h.PNG,h,611431b8dfc10c8bb1393e8c,2021-09-08_20h03.57.403,forced_choiceRT,2021.1.2,MacIntel,59.97361161,,,,,,,,8,Ontime,g,0,1.9726,6,3,27,2,1,,,,,
,1.12,,,,,,,,,f.PNG,f,611431b8dfc10c8bb1393e8c,2021-09-08_20h03.57.403,forced_choiceRT,2021.1.2,MacIntel,59.97361161,,,,,,,,8,Ontime,f,1,1.9335,7,0,28,0,1,,,,,
,1.56,,,,,,,,,g.PNG,g,611431b8dfc10c8bb1393e8c,2021-09-08_20h03.57.403,forced_choiceRT,2021.1.2,MacIntel,59.97361161,,,,,,,,8,Slow,j,0,2.1194,7,1,29,1,1,,,,,
,0.61,,,,,,,,,g.PNG,g,611431b8dfc10c8bb1393e8c,2021-09-08_20h03.57.403,forced_choiceRT,2021.1.2,MacIntel,59.97361161,,,,,,,,8,Ontime,g,1,1.9678,7,2,30,1,1,,,,,
,1.57,,,,,,,,,f.PNG,f,611431b8dfc10c8bb1393e8c,2021-09-08_20h03.57.403,forced_choiceRT,2021.1.2,MacIntel,59.97361161,,,,,,,,8,Slow,g,0,2.119,7,3,31,0,1,,,,,
,1.34,,,,,,,,,j.PNG,j,611431b8dfc10c8bb1393e8c,2021-09-08_20h03.57.403,forced_choiceRT,2021.1.2,MacIntel,59.97361161,,,,,,,,8,Ontime,j,1,2.0518,8,0,32,3,1,,,,,
,1.83,,,,,,,,,j.PNG,j,611431b8dfc10c8bb1393e8c,2021-09-08_20h03.57.403,forced_choiceRT,2021.1.2,MacIntel,59.97361161,,,,,,,,8,Ontime,h,0,1.9841,8,1,33,3,1,,,,,
,1.36,,,,,,,,,h.PNG,h,611431b8dfc10c8bb1393e8c,2021-09-08_20h03.57.403,forced_choiceRT,2021.1.2,MacIntel,59.97361161,,,,,,,,8,Ontime,h,1,2.0152,8,2,34,2,1,,,,,
,0,,,,,,,,,j.PNG,j,611431b8dfc10c8bb1393e8c,2021-09-08_20h03.57.403,forced_choiceRT,2021.1.2,MacIntel,59.97361161,,,,,,,,8,Ontime,j,1,1.9685,8,3,35,3,1,,,,,
,0.18,,,,,,,,,g.PNG,g,611431b8dfc10c8bb1393e8c,2021-09-08_20h03.57.403,forced_choiceRT,2021.1.2,MacIntel,59.97361161,,,,,,,,8,Ontime,g,1,2.0014,9,0,36,1,1,,,,,
,1.18,,,,,,,,,f.PNG,f,611431b8dfc10c8bb1393e8c,2021-09-08_20h03.57.403,forced_choiceRT,2021.1.2,MacIntel,59.97361161,,,,,,,,8,Ontime,f,1,2.0685,9,1,37,0,1,,,,,
,0.51,,,,,,,,,h.PNG,h,611431b8dfc10c8bb1393e8c,2021-09-08_20h03.57.403,forced_choiceRT,2021.1.2,MacIntel,59.97361161,,,,,,,,8,Ontime,h,1,1.9523,9,2,38,2,1,,,,,
,1.01,,,,,,,,,g.PNG,g,611431b8dfc10c8bb1393e8c,2021-09-08_20h03.57.403,forced_choiceRT,2021.1.2,MacIntel,59.97361161,,,,,,,,8,Ontime,g,1,1.969,9,3,39,1,1,,,,,
,,,,,,,,,,,,611431b8dfc10c8bb1393e8c,2021-09-08_20h03.57.403,forced_choiceRT,2021.1.2,MacIntel,59.97361161,,,,,,,,,,,,,,,,,,7,0,7,0,1
,1.38,,,,,,,,,g.PNG,g,611431b8dfc10c8bb1393e8c,2021-09-08_20h03.57.403,forced_choiceRT,2021.1.2,MacIntel,59.97361161,,,,,,,,9,Ontime,g,1,1.9977,0,0,0,1,1,,,,,
,0.96,,,,,,,,,g.PNG,g,611431b8dfc10c8bb1393e8c,2021-09-08_20h03.57.403,forced_choiceRT,2021.1.2,MacIntel,59.97361161,,,,,,,,9,Ontime,g,1,2.034,0,1,1,1,1,,,,,
,1.39,,,,,,,,,f.PNG,f,611431b8dfc10c8bb1393e8c,2021-09-08_20h03.57.403,forced_choiceRT,2021.1.2,MacIntel,59.97361161,,,,,,,,9,Ontime,f,1,2.0707,0,2,2,0,1,,,,,
,1.62,,,,,,,,,f.PNG,f,611431b8dfc10c8bb1393e8c,2021-09-08_20h03.57.403,forced_choiceRT,2021.1.2,MacIntel,59.97361161,,,,,,,,9,Slow,f,1,2.2014,0,3,3,0,1,,,,,
,1.99,,,,,,,,,j.PNG,j,611431b8dfc10c8bb1393e8c,2021-09-08_20h03.57.403,forced_choiceRT,2021.1.2,MacIntel,59.97361161,,,,,,,,9,Ontime,j,1,1.9855,1,0,4,3,1,,,,,
,0.13,,,,,,,,,f.PNG,f,611431b8dfc10c8bb1393e8c,2021-09-08_20h03.57.403,forced_choiceRT,2021.1.2,MacIntel,59.97361161,,,,,,,,9,Ontime,f,1,1.9883,1,1,5,0,1,,,,,
,1.55,,,,,,,,,g.PNG,g,611431b8dfc10c8bb1393e8c,2021-09-08_20h03.57.403,forced_choiceRT,2021.1.2,MacIntel,59.97361161,,,,,,,,9,Ontime,g,1,2.069,1,2,6,1,1,,,,,
,0.39,,,,,,,,,g.PNG,g,611431b8dfc10c8bb1393e8c,2021-09-08_20h03.57.403,forced_choiceRT,2021.1.2,MacIntel,59.97361161,,,,,,,,9,Ontime,g,1,1.9682,1,3,7,1,1,,,,,
,0.61,,,,,,,,,g.PNG,g,611431b8dfc10c8bb1393e8c,2021-09-08_20h03.57.403,forced_choiceRT,2021.1.2,MacIntel,59.97361161,,,,,,,,9,Ontime,g,1,1.985,2,0,8,1,1,,,,,
,1.3,,,,,,,,,j.PNG,j,611431b8dfc10c8bb1393e8c,2021-09-08_20h03.57.403,forced_choiceRT,2021.1.2,MacIntel,59.97361161,,,,,,,,9,Fast,j,1,1.8193,2,1,9,3,1,,,,,
,1.59,,,,,,,,,h.PNG,h,611431b8dfc10c8bb1393e8c,2021-09-08_20h03.57.403,forced_choiceRT,2021.1.2,MacIntel,59.97361161,,,,,,,,9,Slow,h,1,2.1527,2,2,10,2,1,,,,,
,0.4,,,,,,,,,h.PNG,h,611431b8dfc10c8bb1393e8c,2021-09-08_20h03.57.403,forced_choiceRT,2021.1.2,MacIntel,59.97361161,,,,,,,,9,Ontime,h,1,1.9405,2,3,11,2,1,,,,,
,1.03,,,,,,,,,j.PNG,j,611431b8dfc10c8bb1393e8c,2021-09-08_20h03.57.403,forced_choiceRT,2021.1.2,MacIntel,59.97361161,,,,,,,,9,Ontime,j,1,2.0392,3,0,12,3,1,,,,,
,0.34,,,,,,,,,g.PNG,g,611431b8dfc10c8bb1393e8c,2021-09-08_20h03.57.403,forced_choiceRT,2021.1.2,MacIntel,59.97361161,,,,,,,,9,Ontime,g,1,2.0357,3,1,13,1,1,,,,,
,0.2,,,,,,,,,f.PNG,f,611431b8dfc10c8bb1393e8c,2021-09-08_20h03.57.403,forced_choiceRT,2021.1.2,MacIntel,59.97361161,,,,,,,,9,Ontime,f,1,1.9861,3,2,14,0,1,,,,,
,1.37,,,,,,,,,h.PNG,h,611431b8dfc10c8bb1393e8c,2021-09-08_20h03.57.403,forced_choiceRT,2021.1.2,MacIntel,59.97361161,,,,,,,,9,Slow,h,1,2.1725,3,3,15,2,1,,,,,
,0.63,,,,,,,,,h.PNG,h,611431b8dfc10c8bb1393e8c,2021-09-08_20h03.57.403,forced_choiceRT,2021.1.2,MacIntel,59.97361161,,,,,,,,9,Ontime,h,1,1.9377,4,0,16,2,1,,,,,
,1.84,,,,,,,,,g.PNG,g,611431b8dfc10c8bb1393e8c,2021-09-08_20h03.57.403,forced_choiceRT,2021.1.2,MacIntel,59.97361161,,,,,,,,9,Ontime,j,0,2.0511,4,1,17,1,1,,,,,
,1.27,,,,,,,,,g.PNG,g,611431b8dfc10c8bb1393e8c,2021-09-08_20h03.57.403,forced_choiceRT,2021.1.2,MacIntel,59.97361161,,,,,,,,9,Ontime,g,1,2.0007,4,2,18,1,1,,,,,
,1.89,,,,,,,,,f.PNG,f,611431b8dfc10c8bb1393e8c,2021-09-08_20h03.57.403,forced_choiceRT,2021.1.2,MacIntel,59.97361161,,,,,,,,9,Slow,h,0,2.173,4,3,19,0,1,,,,,
,1.21,,,,,,,,,g.PNG,g,611431b8dfc10c8bb1393e8c,2021-09-08_20h03.57.403,forced_choiceRT,2021.1.2,MacIntel,59.97361161,,,,,,,,9,Ontime,g,1,1.9318,5,0,20,1,1,,,,,
,1.23,,,,,,,,,j.PNG,j,611431b8dfc10c8bb1393e8c,2021-09-08_20h03.57.403,forced_choiceRT,2021.1.2,MacIntel,59.97361161,,,,,,,,9,Ontime,j,1,2.0351,5,1,21,3,1,,,,,
,1.1,,,,,,,,,h.PNG,h,611431b8dfc10c8bb1393e8c,2021-09-08_20h03.57.403,forced_choiceRT,2021.1.2,MacIntel,59.97361161,,,,,,,,9,Ontime,h,1,2.0039,5,2,22,2,1,,,,,
,0.77,,,,,,,,,h.PNG,h,611431b8dfc10c8bb1393e8c,2021-09-08_20h03.57.403,forced_choiceRT,2021.1.2,MacIntel,59.97361161,,,,,,,,9,Ontime,h,1,1.9681,5,3,23,2,1,,,,,
,0.71,,,,,,,,,f.PNG,f,611431b8dfc10c8bb1393e8c,2021-09-08_20h03.57.403,forced_choiceRT,2021.1.2,MacIntel,59.97361161,,,,,,,,9,Ontime,f,1,2.0503,6,0,24,0,1,,,,,
,0.35,,,,,,,,,h.PNG,h,611431b8dfc10c8bb1393e8c,2021-09-08_20h03.57.403,forced_choiceRT,2021.1.2,MacIntel,59.97361161,,,,,,,,9,Ontime,h,1,2.0169,6,1,25,2,1,,,,,
,0.75,,,,,,,,,j.PNG,j,611431b8dfc10c8bb1393e8c,2021-09-08_20h03.57.403,forced_choiceRT,2021.1.2,MacIntel,59.97361161,,,,,,,,9,Ontime,j,1,2.0838,6,2,26,3,1,,,,,
,0.71,,,,,,,,,j.PNG,j,611431b8dfc10c8bb1393e8c,2021-09-08_20h03.57.403,forced_choiceRT,2021.1.2,MacIntel,59.97361161,,,,,,,,9,Ontime,g,0,2.0703,6,3,27,3,1,,,,,
,1.63,,,,,,,,,f.PNG,f,611431b8dfc10c8bb1393e8c,2021-09-08_20h03.57.403,forced_choiceRT,2021.1.2,MacIntel,59.97361161,,,,,,,,9,Slow,h,0,2.1011,7,0,28,0,1,,,,,
,0.73,,,,,,,,,j.PNG,j,611431b8dfc10c8bb1393e8c,2021-09-08_20h03.57.403,forced_choiceRT,2021.1.2,MacIntel,59.97361161,,,,,,,,9,Ontime,j,1,2.0187,7,1,29,3,1,,,,,
,1.2,,,,,,,,,h.PNG,h,611431b8dfc10c8bb1393e8c,2021-09-08_20h03.57.403,forced_choiceRT,2021.1.2,MacIntel,59.97361161,,,,,,,,9,Ontime,h,1,2.0047,7,2,30,2,1,,,,,
,0.27,,,,,,,,,f.PNG,f,611431b8dfc10c8bb1393e8c,2021-09-08_20h03.57.403,forced_choiceRT,2021.1.2,MacIntel,59.97361161,,,,,,,,9,Ontime,f,1,2.002,7,3,31,0,1,,,,,
,0.35,,,,,,,,,h.PNG,h,611431b8dfc10c8bb1393e8c,2021-09-08_20h03.57.403,forced_choiceRT,2021.1.2,MacIntel,59.97361161,,,,,,,,9,Ontime,j,0,1.9724,8,0,32,2,1,,,,,
,0.77,,,,,,,,,j.PNG,j,611431b8dfc10c8bb1393e8c,2021-09-08_20h03.57.403,forced_choiceRT,2021.1.2,MacIntel,59.97361161,,,,,,,,9,Ontime,j,1,2.0172,8,1,33,3,1,,,,,
,0.8,,,,,,,,,j.PNG,j,611431b8dfc10c8bb1393e8c,2021-09-08_20h03.57.403,forced_choiceRT,2021.1.2,MacIntel,59.97361161,,,,,,,,9,Ontime,j,1,2.0856,8,2,34,3,1,,,,,
,1.81,,,,,,,,,g.PNG,g,611431b8dfc10c8bb1393e8c,2021-09-08_20h03.57.403,forced_choiceRT,2021.1.2,MacIntel,59.97361161,,,,,,,,9,Ontime,j,0,1.9883,8,3,35,1,1,,,,,
,1.93,,,,,,,,,f.PNG,f,611431b8dfc10c8bb1393e8c,2021-09-08_20h03.57.403,forced_choiceRT,2021.1.2,MacIntel,59.97361161,,,,,,,,9,Ontime,g,0,1.9692,9,0,36,0,1,,,,,
,0.91,,,,,,,,,h.PNG,h,611431b8dfc10c8bb1393e8c,2021-09-08_20h03.57.403,forced_choiceRT,2021.1.2,MacIntel,59.97361161,,,,,,,,9,Ontime,h,1,1.9514,9,1,37,2,1,,,,,
,1.69,,,,,,,,,j.PNG,j,611431b8dfc10c8bb1393e8c,2021-09-08_20h03.57.403,forced_choiceRT,2021.1.2,MacIntel,59.97361161,,,,,,,,9,Ontime,h,0,2.0711,9,2,38,3,1,,,,,
,1.86,,,,,,,,,f.PNG,f,611431b8dfc10c8bb1393e8c,2021-09-08_20h03.57.403,forced_choiceRT,2021.1.2,MacIntel,59.97361161,,,,,,,,9,Ontime,h,0,2.0693,9,3,39,0,1,,,,,
,,,,,,,,,,,,611431b8dfc10c8bb1393e8c,2021-09-08_20h03.57.403,forced_choiceRT,2021.1.2,MacIntel,59.97361161,,,,,,,,,,,,,,,,,,8,0,8,0,1
,1.35,,,,,,,,,f.PNG,f,611431b8dfc10c8bb1393e8c,2021-09-08_20h03.57.403,forced_choiceRT,2021.1.2,MacIntel,59.97361161,,,,,,,,10,Ontime,f,1,1.9779,0,0,0,0,1,,,,,
,1.44,,,,,,,,,j.PNG,j,611431b8dfc10c8bb1393e8c,2021-09-08_20h03.57.403,forced_choiceRT,2021.1.2,MacIntel,59.97361161,,,,,,,,10,Ontime,j,1,2.0683,0,1,1,3,1,,,,,
,1.22,,,,,,,,,h.PNG,h,611431b8dfc10c8bb1393e8c,2021-09-08_20h03.57.403,forced_choiceRT,2021.1.2,MacIntel,59.97361161,,,,,,,,10,Ontime,h,1,2.0177,0,2,2,2,1,,,,,
,0.99,,,,,,,,,g.PNG,g,611431b8dfc10c8bb1393e8c,2021-09-08_20h03.57.403,forced_choiceRT,2021.1.2,MacIntel,59.97361161,,,,,,,,10,Ontime,g,1,2.02,0,3,3,1,1,,,,,
,0.83,,,,,,,,,f.PNG,f,611431b8dfc10c8bb1393e8c,2021-09-08_20h03.57.403,forced_choiceRT,2021.1.2,MacIntel,59.97361161,,,,,,,,10,Slow,f,1,2.1349,1,0,4,0,1,,,,,
,1.03,,,,,,,,,g.PNG,g,611431b8dfc10c8bb1393e8c,2021-09-08_20h03.57.403,forced_choiceRT,2021.1.2,MacIntel,59.97361161,,,,,,,,10,Ontime,g,1,1.9527,1,1,5,1,1,,,,,
,1.27,,,,,,,,,g.PNG,g,611431b8dfc10c8bb1393e8c,2021-09-08_20h03.57.403,forced_choiceRT,2021.1.2,MacIntel,59.97361161,,,,,,,,10,Ontime,g,1,2.0055,1,2,6,1,1,,,,,
,0.67,,,,,,,,,g.PNG,g,611431b8dfc10c8bb1393e8c,2021-09-08_20h03.57.403,forced_choiceRT,2021.1.2,MacIntel,59.97361161,,,,,,,,10,Ontime,g,1,2.0188,1,3,7,1,1,,,,,
,0.66,,,,,,,,,j.PNG,j,611431b8dfc10c8bb1393e8c,2021-09-08_20h03.57.403,forced_choiceRT,2021.1.2,MacIntel,59.97361161,,,,,,,,10,Ontime,j,1,1.9693,2,0,8,3,1,,,,,
,1.08,,,,,,,,,h.PNG,h,611431b8dfc10c8bb1393e8c,2021-09-08_20h03.57.403,forced_choiceRT,2021.1.2,MacIntel,59.97361161,,,,,,,,10,Ontime,h,1,2.0171,2,1,9,2,1,,,,,
,0.07,,,,,,,,,j.PNG,j,611431b8dfc10c8bb1393e8c,2021-09-08_20h03.57.403,forced_choiceRT,2021.1.2,MacIntel,59.97361161,,,,,,,,10,Ontime,j,1,1.953,2,2,10,3,1,,,,,
,1.84,,,,,,,,,h.PNG,h,611431b8dfc10c8bb1393e8c,2021-09-08_20h03.57.403,forced_choiceRT,2021.1.2,MacIntel,59.97361161,,,,,,,,10,Ontime,h,1,2.0524,2,3,11,2,1,,,,,
,1.38,,,,,,,,,f.PNG,f,611431b8dfc10c8bb1393e8c,2021-09-08_20h03.57.403,forced_choiceRT,2021.1.2,MacIntel,59.97361161,,,,,,,,10,Ontime,f,1,2.0496,3,0,12,0,1,,,,,
,0.1,,,,,,,,,j.PNG,j,611431b8dfc10c8bb1393e8c,2021-09-08_20h03.57.403,forced_choiceRT,2021.1.2,MacIntel,59.97361161,,,,,,,,10,Ontime,j,1,1.9385,3,1,13,3,1,,,,,
,0.9,,,,,,,,,h.PNG,h,611431b8dfc10c8bb1393e8c,2021-09-08_20h03.57.403,forced_choiceRT,2021.1.2,MacIntel,59.97361161,,,,,,,,10,Ontime,h,1,2.0007,3,2,14,2,1,,,,,
,0.44,,,,,,,,,g.PNG,g,611431b8dfc10c8bb1393e8c,2021-09-08_20h03.57.403,forced_choiceRT,2021.1.2,MacIntel,59.97361161,,,,,,,,10,Ontime,g,1,2.0193,3,3,15,1,1,,,,,
,1.19,,,,,,,,,g.PNG,g,611431b8dfc10c8bb1393e8c,2021-09-08_20h03.57.403,forced_choiceRT,2021.1.2,MacIntel,59.97361161,,,,,,,,10,Ontime,g,1,2.001,4,0,16,1,1,,,,,
,1.51,,,,,,,,,j.PNG,j,611431b8dfc10c8bb1393e8c,2021-09-08_20h03.57.403,forced_choiceRT,2021.1.2,MacIntel,59.97361161,,,,,,,,10,Ontime,j,1,2.036,4,1,17,3,1,,,,,
,0.96,,,,,,,,,g.PNG,g,611431b8dfc10c8bb1393e8c,2021-09-08_20h03.57.403,forced_choiceRT,2021.1.2,MacIntel,59.97361161,,,,,,,,10,Ontime,g,1,2.0034,4,2,18,1,1,,,,,
,0.67,,,,,,,,,g.PNG,g,611431b8dfc10c8bb1393e8c,2021-09-08_20h03.57.403,forced_choiceRT,2021.1.2,MacIntel,59.97361161,,,,,,,,10,Ontime,g,1,2.0367,4,3,19,1,1,,,,,
,1.41,,,,,,,,,f.PNG,f,611431b8dfc10c8bb1393e8c,2021-09-08_20h03.57.403,forced_choiceRT,2021.1.2,MacIntel,59.97361161,,,,,,,,10,Ontime,f,1,2.052,5,0,20,0,1,,,,,
,0.5,,,,,,,,,j.PNG,j,611431b8dfc10c8bb1393e8c,2021-09-08_20h03.57.403,forced_choiceRT,2021.1.2,MacIntel,59.97361161,,,,,,,,10,Ontime,j,1,2.0019,5,1,21,3,1,,,,,
,1.48,,,,,,,,,g.PNG,g,611431b8dfc10c8bb1393e8c,2021-09-08_20h03.57.403,forced_choiceRT,2021.1.2,MacIntel,59.97361161,,,,,,,,10,Ontime,g,1,2.0987,5,2,22,1,1,,,,,
,1.9,,,,,,,,,h.PNG,h,611431b8dfc10c8bb1393e8c,2021-09-08_20h03.57.403,forced_choiceRT,2021.1.2,MacIntel,59.97361161,,,,,,,,10,Slow,h,1,2.1186,5,3,23,2,1,,,,,
,0.81,,,,,,,,,f.PNG,f,611431b8dfc10c8bb1393e8c,2021-09-08_20h03.57.403,forced_choiceRT,2021.1.2,MacIntel,59.97361161,,,,,,,,10,Ontime,f,1,2.0712,6,0,24,0,1,,,,,
,1.39,,,,,,,,,f.PNG,f,611431b8dfc10c8bb1393e8c,2021-09-08_20h03.57.403,forced_choiceRT,2021.1.2,MacIntel,59.97361161,,,,,,,,10,Ontime,f,1,1.9876,6,1,25,0,1,,,,,
,0.94,,,,,,,,,j.PNG,j,611431b8dfc10c8bb1393e8c,2021-09-08_20h03.57.403,forced_choiceRT,2021.1.2,MacIntel,59.97361161,,,,,,,,10,Ontime,j,1,2.0365,6,2,26,3,1,,,,,
,0.39,,,,,,,,,h.PNG,h,611431b8dfc10c8bb1393e8c,2021-09-08_20h03.57.403,forced_choiceRT,2021.1.2,MacIntel,59.97361161,,,,,,,,10,Ontime,h,1,2.0529,6,3,27,2,1,,,,,
,0.12,,,,,,,,,h.PNG,h,611431b8dfc10c8bb1393e8c,2021-09-08_20h03.57.403,forced_choiceRT,2021.1.2,MacIntel,59.97361161,,,,,,,,10,Ontime,h,1,2.0186,7,0,28,2,1,,,,,
,0.69,,,,,,,,,g.PNG,g,611431b8dfc10c8bb1393e8c,2021-09-08_20h03.57.403,forced_choiceRT,2021.1.2,MacIntel,59.97361161,,,,,,,,10,Ontime,g,1,2.054,7,1,29,1,1,,,,,
,0.52,,,,,,,,,h.PNG,h,611431b8dfc10c8bb1393e8c,2021-09-08_20h03.57.403,forced_choiceRT,2021.1.2,MacIntel,59.97361161,,,,,,,,10,Ontime,h,1,2.0177,7,2,30,2,1,,,,,
,0.54,,,,,,,,,h.PNG,h,611431b8dfc10c8bb1393e8c,2021-09-08_20h03.57.403,forced_choiceRT,2021.1.2,MacIntel,59.97361161,,,,,,,,10,Slow,h,1,2.1357,7,3,31,2,1,,,,,
,0.24,,,,,,,,,j.PNG,j,611431b8dfc10c8bb1393e8c,2021-09-08_20h03.57.403,forced_choiceRT,2021.1.2,MacIntel,59.97361161,,,,,,,,10,Ontime,j,1,2.0173,8,0,32,3,1,,,,,
,1.9,,,,,,,,,j.PNG,j,611431b8dfc10c8bb1393e8c,2021-09-08_20h03.57.403,forced_choiceRT,2021.1.2,MacIntel,59.97361161,,,,,,,,10,Slow,h,0,2.1018,8,1,33,3,1,,,,,
,1.53,,,,,,,,,f.PNG,f,611431b8dfc10c8bb1393e8c,2021-09-08_20h03.57.403,forced_choiceRT,2021.1.2,MacIntel,59.97361161,,,,,,,,10,Ontime,f,1,2.071,8,2,34,0,1,,,,,
,0.13,,,,,,,,,f.PNG,f,611431b8dfc10c8bb1393e8c,2021-09-08_20h03.57.403,forced_choiceRT,2021.1.2,MacIntel,59.97361161,,,,,,,,10,Ontime,f,1,1.9691,8,3,35,0,1,,,,,
,1.62,,,,,,,,,h.PNG,h,611431b8dfc10c8bb1393e8c,2021-09-08_20h03.57.403,forced_choiceRT,2021.1.2,MacIntel,59.97361161,,,,,,,,10,Slow,g,0,2.1563,9,0,36,2,1,,,,,
,1.33,,,,,,,,,f.PNG,f,611431b8dfc10c8bb1393e8c,2021-09-08_20h03.57.403,forced_choiceRT,2021.1.2,MacIntel,59.97361161,,,,,,,,10,Ontime,f,1,1.9851,9,1,37,0,1,,,,,
,0.93,,,,,,,,,f.PNG,f,611431b8dfc10c8bb1393e8c,2021-09-08_20h03.57.403,forced_choiceRT,2021.1.2,MacIntel,59.97361161,,,,,,,,10,Ontime,f,1,2.034,9,2,38,0,1,,,,,
,1.18,,,,,,,,,j.PNG,j,611431b8dfc10c8bb1393e8c,2021-09-08_20h03.57.403,forced_choiceRT,2021.1.2,MacIntel,59.97361161,,,,,,,,10,Ontime,j,1,1.9686,9,3,39,3,1,,,,,
,,,,,,,,,,,,611431b8dfc10c8bb1393e8c,2021-09-08_20h03.57.403,forced_choiceRT,2021.1.2,MacIntel,59.97361161,,,,,,,,,,,,,,,,,,9,0,9,0,1
