IP_Addresss,target_onset,trial_resp_sp.keys,trial_resp_sp.corr,trial_resp_sp.rt,trials_train_loop.thisRepN,trials_train_loop.thisTrialN,trials_train_loop.thisN,trials_train_loop.thisIndex,trials_train_loop.ran,pic,correct_key,participant,date,expName,psychopyVersion,OS,frameRate,trial_resp_timing.keys,trial_resp_timing.rt,trials_train_timing.thisRepN,trials_train_timing.thisTrialN,trials_train_timing.thisN,trials_train_timing.thisIndex,trials_train_timing.ran,block_id,ontime,forcedRT_resp.keys,forcedRT_resp.corr,forcedRT_resp.rt,trials.thisRepN,trials.thisTrialN,trials.thisN,trials.thisIndex,trials.ran,blocks.thisRepN,blocks.thisTrialN,blocks.thisN,blocks.thisIndex,blocks.ran
69.132.197.154,0,h,1,1.7649,0,0,0,2,1,h.PNG,h,61153541b67ed34ecf2557d8,2021-09-08_20h54.36.893,forced_choiceRT,2021.1.2,MacIntel,59.99880002,,,,,,,,,,,,,,,,,,,,,,
,0,f,1,0.7871,0,1,1,0,1,f.PNG,f,61153541b67ed34ecf2557d8,2021-09-08_20h54.36.893,forced_choiceRT,2021.1.2,MacIntel,59.99880002,,,,,,,,,,,,,,,,,,,,,,
,0,g,1,0.9553,0,2,2,1,1,g.PNG,g,61153541b67ed34ecf2557d8,2021-09-08_20h54.36.893,forced_choiceRT,2021.1.2,MacIntel,59.99880002,,,,,,,,,,,,,,,,,,,,,,
,0,j,1,0.8187,0,3,3,3,1,j.PNG,j,61153541b67ed34ecf2557d8,2021-09-08_20h54.36.893,forced_choiceRT,2021.1.2,MacIntel,59.99880002,,,,,,,,,,,,,,,,,,,,,,
,0,g,1,0.8996,1,0,4,1,1,g.PNG,g,61153541b67ed34ecf2557d8,2021-09-08_20h54.36.893,forced_choiceRT,2021.1.2,MacIntel,59.99880002,,,,,,,,,,,,,,,,,,,,,,
,0,g,1,0.6503,1,1,5,1,1,g.PNG,g,61153541b67ed34ecf2557d8,2021-09-08_20h54.36.893,forced_choiceRT,2021.1.2,MacIntel,59.99880002,,,,,,,,,,,,,,,,,,,,,,
,0,j,1,0.6001,1,2,6,3,1,j.PNG,j,61153541b67ed34ecf2557d8,2021-09-08_20h54.36.893,forced_choiceRT,2021.1.2,MacIntel,59.99880002,,,,,,,,,,,,,,,,,,,,,,
,0,j,1,0.6695,1,3,7,3,1,j.PNG,j,61153541b67ed34ecf2557d8,2021-09-08_20h54.36.893,forced_choiceRT,2021.1.2,MacIntel,59.99880002,,,,,,,,,,,,,,,,,,,,,,
,0,j,0,0.487,2,0,8,1,1,g.PNG,g,61153541b67ed34ecf2557d8,2021-09-08_20h54.36.893,forced_choiceRT,2021.1.2,MacIntel,59.99880002,,,,,,,,,,,,,,,,,,,,,,
,0,h,1,0.8182,2,1,9,2,1,h.PNG,h,61153541b67ed34ecf2557d8,2021-09-08_20h54.36.893,forced_choiceRT,2021.1.2,MacIntel,59.99880002,,,,,,,,,,,,,,,,,,,,,,
,0,f,1,0.6232,2,2,10,0,1,f.PNG,f,61153541b67ed34ecf2557d8,2021-09-08_20h54.36.893,forced_choiceRT,2021.1.2,MacIntel,59.99880002,,,,,,,,,,,,,,,,,,,,,,
,0,g,1,0.7059,2,3,11,1,1,g.PNG,g,61153541b67ed34ecf2557d8,2021-09-08_20h54.36.893,forced_choiceRT,2021.1.2,MacIntel,59.99880002,,,,,,,,,,,,,,,,,,,,,,
,0,g,0,0.7516,3,0,12,0,1,f.PNG,f,61153541b67ed34ecf2557d8,2021-09-08_20h54.36.893,forced_choiceRT,2021.1.2,MacIntel,59.99880002,,,,,,,,,,,,,,,,,,,,,,
,0,f,1,0.7218,3,1,13,0,1,f.PNG,f,61153541b67ed34ecf2557d8,2021-09-08_20h54.36.893,forced_choiceRT,2021.1.2,MacIntel,59.99880002,,,,,,,,,,,,,,,,,,,,,,
,0,g,0,0.665,3,2,14,2,1,h.PNG,h,61153541b67ed34ecf2557d8,2021-09-08_20h54.36.893,forced_choiceRT,2021.1.2,MacIntel,59.99880002,,,,,,,,,,,,,,,,,,,,,,
,0,f,1,0.773,3,3,15,0,1,f.PNG,f,61153541b67ed34ecf2557d8,2021-09-08_20h54.36.893,forced_choiceRT,2021.1.2,MacIntel,59.99880002,,,,,,,,,,,,,,,,,,,,,,
,0,f,1,0.801,4,0,16,0,1,f.PNG,f,61153541b67ed34ecf2557d8,2021-09-08_20h54.36.893,forced_choiceRT,2021.1.2,MacIntel,59.99880002,,,,,,,,,,,,,,,,,,,,,,
,0,h,1,0.801,4,1,17,2,1,h.PNG,h,61153541b67ed34ecf2557d8,2021-09-08_20h54.36.893,forced_choiceRT,2021.1.2,MacIntel,59.99880002,,,,,,,,,,,,,,,,,,,,,,
,0,g,0,0.8155,4,2,18,2,1,h.PNG,h,61153541b67ed34ecf2557d8,2021-09-08_20h54.36.893,forced_choiceRT,2021.1.2,MacIntel,59.99880002,,,,,,,,,,,,,,,,,,,,,,
,0,g,1,1.5838,4,3,19,1,1,g.PNG,g,61153541b67ed34ecf2557d8,2021-09-08_20h54.36.893,forced_choiceRT,2021.1.2,MacIntel,59.99880002,,,,,,,,,,,,,,,,,,,,,,
,0,f,1,0.6048,5,0,20,0,1,f.PNG,f,61153541b67ed34ecf2557d8,2021-09-08_20h54.36.893,forced_choiceRT,2021.1.2,MacIntel,59.99880002,,,,,,,,,,,,,,,,,,,,,,
,0,g,1,0.799,5,1,21,1,1,g.PNG,g,61153541b67ed34ecf2557d8,2021-09-08_20h54.36.893,forced_choiceRT,2021.1.2,MacIntel,59.99880002,,,,,,,,,,,,,,,,,,,,,,
,0,f,1,0.7736,5,2,22,0,1,f.PNG,f,61153541b67ed34ecf2557d8,2021-09-08_20h54.36.893,forced_choiceRT,2021.1.2,MacIntel,59.99880002,,,,,,,,,,,,,,,,,,,,,,
,0,h,0,0.8504,5,3,23,1,1,g.PNG,g,61153541b67ed34ecf2557d8,2021-09-08_20h54.36.893,forced_choiceRT,2021.1.2,MacIntel,59.99880002,,,,,,,,,,,,,,,,,,,,,,
,0,g,1,1.1697,6,0,24,1,1,g.PNG,g,61153541b67ed34ecf2557d8,2021-09-08_20h54.36.893,forced_choiceRT,2021.1.2,MacIntel,59.99880002,,,,,,,,,,,,,,,,,,,,,,
,0,h,1,0.8846,6,1,25,2,1,h.PNG,h,61153541b67ed34ecf2557d8,2021-09-08_20h54.36.893,forced_choiceRT,2021.1.2,MacIntel,59.99880002,,,,,,,,,,,,,,,,,,,,,,
,0,h,1,0.6309,6,2,26,2,1,h.PNG,h,61153541b67ed34ecf2557d8,2021-09-08_20h54.36.893,forced_choiceRT,2021.1.2,MacIntel,59.99880002,,,,,,,,,,,,,,,,,,,,,,
,0,f,1,0.6007,6,3,27,0,1,f.PNG,f,61153541b67ed34ecf2557d8,2021-09-08_20h54.36.893,forced_choiceRT,2021.1.2,MacIntel,59.99880002,,,,,,,,,,,,,,,,,,,,,,
,0,f,1,0.5228,7,0,28,0,1,f.PNG,f,61153541b67ed34ecf2557d8,2021-09-08_20h54.36.893,forced_choiceRT,2021.1.2,MacIntel,59.99880002,,,,,,,,,,,,,,,,,,,,,,
,0,j,1,0.6924,7,1,29,3,1,j.PNG,j,61153541b67ed34ecf2557d8,2021-09-08_20h54.36.893,forced_choiceRT,2021.1.2,MacIntel,59.99880002,,,,,,,,,,,,,,,,,,,,,,
,0,j,1,0.5001,7,2,30,3,1,j.PNG,j,61153541b67ed34ecf2557d8,2021-09-08_20h54.36.893,forced_choiceRT,2021.1.2,MacIntel,59.99880002,,,,,,,,,,,,,,,,,,,,,,
,0,f,1,0.6585,7,3,31,0,1,f.PNG,f,61153541b67ed34ecf2557d8,2021-09-08_20h54.36.893,forced_choiceRT,2021.1.2,MacIntel,59.99880002,,,,,,,,,,,,,,,,,,,,,,
,0,j,1,0.8877,8,0,32,3,1,j.PNG,j,61153541b67ed34ecf2557d8,2021-09-08_20h54.36.893,forced_choiceRT,2021.1.2,MacIntel,59.99880002,,,,,,,,,,,,,,,,,,,,,,
,0,j,1,0.6552,8,1,33,3,1,j.PNG,j,61153541b67ed34ecf2557d8,2021-09-08_20h54.36.893,forced_choiceRT,2021.1.2,MacIntel,59.99880002,,,,,,,,,,,,,,,,,,,,,,
,0,f,1,0.6344,8,2,34,0,1,f.PNG,f,61153541b67ed34ecf2557d8,2021-09-08_20h54.36.893,forced_choiceRT,2021.1.2,MacIntel,59.99880002,,,,,,,,,,,,,,,,,,,,,,
,0,g,1,0.9185,8,3,35,1,1,g.PNG,g,61153541b67ed34ecf2557d8,2021-09-08_20h54.36.893,forced_choiceRT,2021.1.2,MacIntel,59.99880002,,,,,,,,,,,,,,,,,,,,,,
,0,h,1,0.8684,9,0,36,2,1,h.PNG,h,61153541b67ed34ecf2557d8,2021-09-08_20h54.36.893,forced_choiceRT,2021.1.2,MacIntel,59.99880002,,,,,,,,,,,,,,,,,,,,,,
,0,j,1,0.641,9,1,37,3,1,j.PNG,j,61153541b67ed34ecf2557d8,2021-09-08_20h54.36.893,forced_choiceRT,2021.1.2,MacIntel,59.99880002,,,,,,,,,,,,,,,,,,,,,,
,0,h,1,1.2861,9,2,38,2,1,h.PNG,h,61153541b67ed34ecf2557d8,2021-09-08_20h54.36.893,forced_choiceRT,2021.1.2,MacIntel,59.99880002,,,,,,,,,,,,,,,,,,,,,,
,0,h,1,0.6175,9,3,39,2,1,h.PNG,h,61153541b67ed34ecf2557d8,2021-09-08_20h54.36.893,forced_choiceRT,2021.1.2,MacIntel,59.99880002,,,,,,,,,,,,,,,,,,,,,,
,0,h,1,0.4837,10,0,40,2,1,h.PNG,h,61153541b67ed34ecf2557d8,2021-09-08_20h54.36.893,forced_choiceRT,2021.1.2,MacIntel,59.99880002,,,,,,,,,,,,,,,,,,,,,,
,0,g,1,1.2835,10,1,41,1,1,g.PNG,g,61153541b67ed34ecf2557d8,2021-09-08_20h54.36.893,forced_choiceRT,2021.1.2,MacIntel,59.99880002,,,,,,,,,,,,,,,,,,,,,,
,0,f,1,0.6378,10,2,42,0,1,f.PNG,f,61153541b67ed34ecf2557d8,2021-09-08_20h54.36.893,forced_choiceRT,2021.1.2,MacIntel,59.99880002,,,,,,,,,,,,,,,,,,,,,,
,0,g,1,0.6736,10,3,43,1,1,g.PNG,g,61153541b67ed34ecf2557d8,2021-09-08_20h54.36.893,forced_choiceRT,2021.1.2,MacIntel,59.99880002,,,,,,,,,,,,,,,,,,,,,,
,0,h,1,1.1693,11,0,44,2,1,h.PNG,h,61153541b67ed34ecf2557d8,2021-09-08_20h54.36.893,forced_choiceRT,2021.1.2,MacIntel,59.99880002,,,,,,,,,,,,,,,,,,,,,,
,0,j,1,0.6046,11,1,45,3,1,j.PNG,j,61153541b67ed34ecf2557d8,2021-09-08_20h54.36.893,forced_choiceRT,2021.1.2,MacIntel,59.99880002,,,,,,,,,,,,,,,,,,,,,,
,0,j,1,0.6059,11,2,46,3,1,j.PNG,j,61153541b67ed34ecf2557d8,2021-09-08_20h54.36.893,forced_choiceRT,2021.1.2,MacIntel,59.99880002,,,,,,,,,,,,,,,,,,,,,,
,0,h,1,0.832,11,3,47,2,1,h.PNG,h,61153541b67ed34ecf2557d8,2021-09-08_20h54.36.893,forced_choiceRT,2021.1.2,MacIntel,59.99880002,,,,,,,,,,,,,,,,,,,,,,
,0,f,1,0.6156,12,0,48,0,1,f.PNG,f,61153541b67ed34ecf2557d8,2021-09-08_20h54.36.893,forced_choiceRT,2021.1.2,MacIntel,59.99880002,,,,,,,,,,,,,,,,,,,,,,
,0,j,1,0.6845,12,1,49,3,1,j.PNG,j,61153541b67ed34ecf2557d8,2021-09-08_20h54.36.893,forced_choiceRT,2021.1.2,MacIntel,59.99880002,,,,,,,,,,,,,,,,,,,,,,
,0,h,1,0.8699,12,2,50,2,1,h.PNG,h,61153541b67ed34ecf2557d8,2021-09-08_20h54.36.893,forced_choiceRT,2021.1.2,MacIntel,59.99880002,,,,,,,,,,,,,,,,,,,,,,
,0,j,1,0.7347,12,3,51,3,1,j.PNG,j,61153541b67ed34ecf2557d8,2021-09-08_20h54.36.893,forced_choiceRT,2021.1.2,MacIntel,59.99880002,,,,,,,,,,,,,,,,,,,,,,
,0,h,1,1.3267,13,0,52,2,1,h.PNG,h,61153541b67ed34ecf2557d8,2021-09-08_20h54.36.893,forced_choiceRT,2021.1.2,MacIntel,59.99880002,,,,,,,,,,,,,,,,,,,,,,
,0,j,1,0.768,13,1,53,3,1,j.PNG,j,61153541b67ed34ecf2557d8,2021-09-08_20h54.36.893,forced_choiceRT,2021.1.2,MacIntel,59.99880002,,,,,,,,,,,,,,,,,,,,,,
,0,g,1,0.7742,13,2,54,1,1,g.PNG,g,61153541b67ed34ecf2557d8,2021-09-08_20h54.36.893,forced_choiceRT,2021.1.2,MacIntel,59.99880002,,,,,,,,,,,,,,,,,,,,,,
,0,f,1,0.5357,13,3,55,0,1,f.PNG,f,61153541b67ed34ecf2557d8,2021-09-08_20h54.36.893,forced_choiceRT,2021.1.2,MacIntel,59.99880002,,,,,,,,,,,,,,,,,,,,,,
,0,j,1,0.7032,14,0,56,3,1,j.PNG,j,61153541b67ed34ecf2557d8,2021-09-08_20h54.36.893,forced_choiceRT,2021.1.2,MacIntel,59.99880002,,,,,,,,,,,,,,,,,,,,,,
,0,j,1,0.7577,14,1,57,3,1,j.PNG,j,61153541b67ed34ecf2557d8,2021-09-08_20h54.36.893,forced_choiceRT,2021.1.2,MacIntel,59.99880002,,,,,,,,,,,,,,,,,,,,,,
,0,g,1,0.7877,14,2,58,1,1,g.PNG,g,61153541b67ed34ecf2557d8,2021-09-08_20h54.36.893,forced_choiceRT,2021.1.2,MacIntel,59.99880002,,,,,,,,,,,,,,,,,,,,,,
,0,g,1,0.605,14,3,59,1,1,g.PNG,g,61153541b67ed34ecf2557d8,2021-09-08_20h54.36.893,forced_choiceRT,2021.1.2,MacIntel,59.99880002,,,,,,,,,,,,,,,,,,,,,,
,,,,,,,,,,,,61153541b67ed34ecf2557d8,2021-09-08_20h54.36.893,forced_choiceRT,2021.1.2,MacIntel,59.99880002,f,2.2151,0,0,0,0,1,,,,,,,,,,,,,,,
,,,,,,,,,,,,61153541b67ed34ecf2557d8,2021-09-08_20h54.36.893,forced_choiceRT,2021.1.2,MacIntel,59.99880002,g,1.8064,1,0,1,0,1,,,,,,,,,,,,,,,
,,,,,,,,,,,,61153541b67ed34ecf2557d8,2021-09-08_20h54.36.893,forced_choiceRT,2021.1.2,MacIntel,59.99880002,h,1.8189,2,0,2,0,1,,,,,,,,,,,,,,,
,,,,,,,,,,,,61153541b67ed34ecf2557d8,2021-09-08_20h54.36.893,forced_choiceRT,2021.1.2,MacIntel,59.99880002,j,2.147,3,0,3,0,1,,,,,,,,,,,,,,,
,,,,,,,,,,,,61153541b67ed34ecf2557d8,2021-09-08_20h54.36.893,forced_choiceRT,2021.1.2,MacIntel,59.99880002,h,1.9372,4,0,4,0,1,,,,,,,,,,,,,,,
,,,,,,,,,,,,61153541b67ed34ecf2557d8,2021-09-08_20h54.36.893,forced_choiceRT,2021.1.2,MacIntel,59.99880002,h,1.9037,5,0,5,0,1,,,,,,,,,,,,,,,
,,,,,,,,,,,,61153541b67ed34ecf2557d8,2021-09-08_20h54.36.893,forced_choiceRT,2021.1.2,MacIntel,59.99880002,j,1.9078,6,0,6,0,1,,,,,,,,,,,,,,,
,,,,,,,,,,,,61153541b67ed34ecf2557d8,2021-09-08_20h54.36.893,forced_choiceRT,2021.1.2,MacIntel,59.99880002,g,1.8563,7,0,7,0,1,,,,,,,,,,,,,,,
,,,,,,,,,,,,61153541b67ed34ecf2557d8,2021-09-08_20h54.36.893,forced_choiceRT,2021.1.2,MacIntel,59.99880002,g,1.8913,8,0,8,0,1,,,,,,,,,,,,,,,
,,,,,,,,,,,,61153541b67ed34ecf2557d8,2021-09-08_20h54.36.893,forced_choiceRT,2021.1.2,MacIntel,59.99880002,g,1.9019,9,0,9,0,1,,,,,,,,,,,,,,,
,,,,,,,,,,,,61153541b67ed34ecf2557d8,2021-09-08_20h54.36.893,forced_choiceRT,2021.1.2,MacIntel,59.99880002,g,1.8843,10,0,10,0,1,,,,,,,,,,,,,,,
,,,,,,,,,,,,61153541b67ed34ecf2557d8,2021-09-08_20h54.36.893,forced_choiceRT,2021.1.2,MacIntel,59.99880002,f,1.8496,11,0,11,0,1,,,,,,,,,,,,,,,
,,,,,,,,,,,,61153541b67ed34ecf2557d8,2021-09-08_20h54.36.893,forced_choiceRT,2021.1.2,MacIntel,59.99880002,g,1.8018,12,0,12,0,1,,,,,,,,,,,,,,,
,,,,,,,,,,,,61153541b67ed34ecf2557d8,2021-09-08_20h54.36.893,forced_choiceRT,2021.1.2,MacIntel,59.99880002,g,1.9557,13,0,13,0,1,,,,,,,,,,,,,,,
,,,,,,,,,,,,61153541b67ed34ecf2557d8,2021-09-08_20h54.36.893,forced_choiceRT,2021.1.2,MacIntel,59.99880002,g,2.0572,14,0,14,0,1,,,,,,,,,,,,,,,
,,,,,,,,,,,,61153541b67ed34ecf2557d8,2021-09-08_20h54.36.893,forced_choiceRT,2021.1.2,MacIntel,59.99880002,g,2.0537,15,0,15,0,1,,,,,,,,,,,,,,,
,,,,,,,,,,,,61153541b67ed34ecf2557d8,2021-09-08_20h54.36.893,forced_choiceRT,2021.1.2,MacIntel,59.99880002,f,2.0521,16,0,16,0,1,,,,,,,,,,,,,,,
,,,,,,,,,,,,61153541b67ed34ecf2557d8,2021-09-08_20h54.36.893,forced_choiceRT,2021.1.2,MacIntel,59.99880002,g,1.9182,17,0,17,0,1,,,,,,,,,,,,,,,
,,,,,,,,,,,,61153541b67ed34ecf2557d8,2021-09-08_20h54.36.893,forced_choiceRT,2021.1.2,MacIntel,59.99880002,f,2.1206,18,0,18,0,1,,,,,,,,,,,,,,,
,,,,,,,,,,,,61153541b67ed34ecf2557d8,2021-09-08_20h54.36.893,forced_choiceRT,2021.1.2,MacIntel,59.99880002,g,2.1043,19,0,19,0,1,,,,,,,,,,,,,,,
,0.11,,,,,,,,,f.PNG,f,61153541b67ed34ecf2557d8,2021-09-08_20h54.36.893,forced_choiceRT,2021.1.2,MacIntel,59.99880002,,,,,,,,1,Fast,f,1,1.7189,0,0,0,0,1,,,,,
,0.02,,,,,,,,,j.PNG,j,61153541b67ed34ecf2557d8,2021-09-08_20h54.36.893,forced_choiceRT,2021.1.2,MacIntel,59.99880002,,,,,,,,1,Fast,j,1,1.8914,0,1,1,3,1,,,,,
,1.11,,,,,,,,,h.PNG,h,61153541b67ed34ecf2557d8,2021-09-08_20h54.36.893,forced_choiceRT,2021.1.2,MacIntel,59.99880002,,,,,,,,1,Ontime,j,0,2.0161,0,2,2,2,1,,,,,
,0.82,,,,,,,,,h.PNG,h,61153541b67ed34ecf2557d8,2021-09-08_20h54.36.893,forced_choiceRT,2021.1.2,MacIntel,59.99880002,,,,,,,,1,Ontime,j,0,1.9404,0,3,3,2,1,,,,,
,0.77,,,,,,,,,f.PNG,f,61153541b67ed34ecf2557d8,2021-09-08_20h54.36.893,forced_choiceRT,2021.1.2,MacIntel,59.99880002,,,,,,,,1,Ontime,f,1,1.9497,1,0,4,0,1,,,,,
,1.2,,,,,,,,,h.PNG,h,61153541b67ed34ecf2557d8,2021-09-08_20h54.36.893,forced_choiceRT,2021.1.2,MacIntel,59.99880002,,,,,,,,1,Ontime,h,1,1.9722,1,1,5,2,1,,,,,
,1.4,,,,,,,,,j.PNG,j,61153541b67ed34ecf2557d8,2021-09-08_20h54.36.893,forced_choiceRT,2021.1.2,MacIntel,59.99880002,,,,,,,,1,Ontime,j,1,2.0688,1,2,6,3,1,,,,,
,1.56,,,,,,,,,g.PNG,g,61153541b67ed34ecf2557d8,2021-09-08_20h54.36.893,forced_choiceRT,2021.1.2,MacIntel,59.99880002,,,,,,,,1,Slow,g,1,2.3509,1,3,7,1,1,,,,,
,0.95,,,,,,,,,g.PNG,g,61153541b67ed34ecf2557d8,2021-09-08_20h54.36.893,forced_choiceRT,2021.1.2,MacIntel,59.99880002,,,,,,,,1,Ontime,g,1,1.9031,2,0,8,1,1,,,,,
,1.7,,,,,,,,,g.PNG,g,61153541b67ed34ecf2557d8,2021-09-08_20h54.36.893,forced_choiceRT,2021.1.2,MacIntel,59.99880002,,,,,,,,1,Ontime,j,0,2.0548,2,1,9,1,1,,,,,
,1.38,,,,,,,,,g.PNG,g,61153541b67ed34ecf2557d8,2021-09-08_20h54.36.893,forced_choiceRT,2021.1.2,MacIntel,59.99880002,,,,,,,,1,Ontime,h,0,1.9348,2,2,10,1,1,,,,,
,1.48,,,,,,,,,j.PNG,j,61153541b67ed34ecf2557d8,2021-09-08_20h54.36.893,forced_choiceRT,2021.1.2,MacIntel,59.99880002,,,,,,,,1,Ontime,h,0,1.9218,2,3,11,3,1,,,,,
,1.48,,,,,,,,,j.PNG,j,61153541b67ed34ecf2557d8,2021-09-08_20h54.36.893,forced_choiceRT,2021.1.2,MacIntel,59.99880002,,,,,,,,1,Ontime,j,1,1.9707,3,0,12,3,1,,,,,
,1.01,,,,,,,,,f.PNG,f,61153541b67ed34ecf2557d8,2021-09-08_20h54.36.893,forced_choiceRT,2021.1.2,MacIntel,59.99880002,,,,,,,,1,Ontime,f,1,1.9171,3,1,13,0,1,,,,,
,0.93,,,,,,,,,h.PNG,h,61153541b67ed34ecf2557d8,2021-09-08_20h54.36.893,forced_choiceRT,2021.1.2,MacIntel,59.99880002,,,,,,,,1,Ontime,j,0,1.9181,3,2,14,2,1,,,,,
,1.32,,,,,,,,,j.PNG,j,61153541b67ed34ecf2557d8,2021-09-08_20h54.36.893,forced_choiceRT,2021.1.2,MacIntel,59.99880002,,,,,,,,1,Ontime,j,1,1.9679,3,3,15,3,1,,,,,
,1.73,,,,,,,,,f.PNG,f,61153541b67ed34ecf2557d8,2021-09-08_20h54.36.893,forced_choiceRT,2021.1.2,MacIntel,59.99880002,,,,,,,,1,Slow,f,1,2.3162,4,0,16,0,1,,,,,
,1.31,,,,,,,,,h.PNG,h,61153541b67ed34ecf2557d8,2021-09-08_20h54.36.893,forced_choiceRT,2021.1.2,MacIntel,59.99880002,,,,,,,,1,Ontime,h,1,1.9356,4,1,17,2,1,,,,,
,0.28,,,,,,,,,f.PNG,f,61153541b67ed34ecf2557d8,2021-09-08_20h54.36.893,forced_choiceRT,2021.1.2,MacIntel,59.99880002,,,,,,,,1,Fast,f,1,1.8518,4,2,18,0,1,,,,,
,0.31,,,,,,,,,j.PNG,j,61153541b67ed34ecf2557d8,2021-09-08_20h54.36.893,forced_choiceRT,2021.1.2,MacIntel,59.99880002,,,,,,,,1,Ontime,j,1,1.9043,4,3,19,3,1,,,,,
,1.26,,,,,,,,,j.PNG,j,61153541b67ed34ecf2557d8,2021-09-08_20h54.36.893,forced_choiceRT,2021.1.2,MacIntel,59.99880002,,,,,,,,1,Fast,j,1,1.8528,5,0,20,3,1,,,,,
,1.8,,,,,,,,,h.PNG,h,61153541b67ed34ecf2557d8,2021-09-08_20h54.36.893,forced_choiceRT,2021.1.2,MacIntel,59.99880002,,,,,,,,1,Slow,f,0,2.183,5,1,21,2,1,,,,,
,0.9,,,,,,,,,g.PNG,g,61153541b67ed34ecf2557d8,2021-09-08_20h54.36.893,forced_choiceRT,2021.1.2,MacIntel,59.99880002,,,,,,,,1,Fast,g,1,1.7923,5,2,22,1,1,,,,,
,0.85,,,,,,,,,j.PNG,j,61153541b67ed34ecf2557d8,2021-09-08_20h54.36.893,forced_choiceRT,2021.1.2,MacIntel,59.99880002,,,,,,,,1,Ontime,j,1,1.985,5,3,23,3,1,,,,,
,1.74,,,,,,,,,g.PNG,g,61153541b67ed34ecf2557d8,2021-09-08_20h54.36.893,forced_choiceRT,2021.1.2,MacIntel,59.99880002,,,,,,,,1,Slow,j,0,2.1556,6,0,24,1,1,,,,,
,0.48,,,,,,,,,g.PNG,g,61153541b67ed34ecf2557d8,2021-09-08_20h54.36.893,forced_choiceRT,2021.1.2,MacIntel,59.99880002,,,,,,,,1,Fast,g,1,1.8987,6,1,25,1,1,,,,,
,0.19,,,,,,,,,f.PNG,f,61153541b67ed34ecf2557d8,2021-09-08_20h54.36.893,forced_choiceRT,2021.1.2,MacIntel,59.99880002,,,,,,,,1,Fast,f,1,1.8982,6,2,26,0,1,,,,,
,0.37,,,,,,,,,h.PNG,h,61153541b67ed34ecf2557d8,2021-09-08_20h54.36.893,forced_choiceRT,2021.1.2,MacIntel,59.99880002,,,,,,,,1,Slow,h,1,2.1051,6,3,27,2,1,,,,,
,1.34,,,,,,,,,g.PNG,g,61153541b67ed34ecf2557d8,2021-09-08_20h54.36.893,forced_choiceRT,2021.1.2,MacIntel,59.99880002,,,,,,,,1,Slow,f,0,2.2083,7,0,28,1,1,,,,,
,0.57,,,,,,,,,j.PNG,j,61153541b67ed34ecf2557d8,2021-09-08_20h54.36.893,forced_choiceRT,2021.1.2,MacIntel,59.99880002,,,,,,,,1,Ontime,j,1,1.9898,7,1,29,3,1,,,,,
,0.55,,,,,,,,,g.PNG,g,61153541b67ed34ecf2557d8,2021-09-08_20h54.36.893,forced_choiceRT,2021.1.2,MacIntel,59.99880002,,,,,,,,1,Ontime,h,0,1.9013,7,2,30,1,1,,,,,
,0.06,,,,,,,,,f.PNG,f,61153541b67ed34ecf2557d8,2021-09-08_20h54.36.893,forced_choiceRT,2021.1.2,MacIntel,59.99880002,,,,,,,,1,Ontime,f,1,2.0336,7,3,31,0,1,,,,,
,0.87,,,,,,,,,g.PNG,g,61153541b67ed34ecf2557d8,2021-09-08_20h54.36.893,forced_choiceRT,2021.1.2,MacIntel,59.99880002,,,,,,,,1,Ontime,g,1,1.9067,8,0,32,1,1,,,,,
,0.88,,,,,,,,,h.PNG,h,61153541b67ed34ecf2557d8,2021-09-08_20h54.36.893,forced_choiceRT,2021.1.2,MacIntel,59.99880002,,,,,,,,1,Fast,h,1,1.8855,8,1,33,2,1,,,,,
,1.58,,,,,,,,,f.PNG,f,61153541b67ed34ecf2557d8,2021-09-08_20h54.36.893,forced_choiceRT,2021.1.2,MacIntel,59.99880002,,,,,,,,1,Ontime,f,1,2.0844,8,2,34,0,1,,,,,
,0.18,,,,,,,,,j.PNG,j,61153541b67ed34ecf2557d8,2021-09-08_20h54.36.893,forced_choiceRT,2021.1.2,MacIntel,59.99880002,,,,,,,,1,Ontime,j,1,2.0157,8,3,35,3,1,,,,,
,0.62,,,,,,,,,h.PNG,h,61153541b67ed34ecf2557d8,2021-09-08_20h54.36.893,forced_choiceRT,2021.1.2,MacIntel,59.99880002,,,,,,,,1,Ontime,g,0,1.9019,9,0,36,2,1,,,,,
,0.6,,,,,,,,,f.PNG,f,61153541b67ed34ecf2557d8,2021-09-08_20h54.36.893,forced_choiceRT,2021.1.2,MacIntel,59.99880002,,,,,,,,1,Slow,f,1,2.1194,9,1,37,0,1,,,,,
,0.75,,,,,,,,,f.PNG,f,61153541b67ed34ecf2557d8,2021-09-08_20h54.36.893,forced_choiceRT,2021.1.2,MacIntel,59.99880002,,,,,,,,1,Ontime,f,1,2.0532,9,2,38,0,1,,,,,
,1.86,,,,,,,,,h.PNG,h,61153541b67ed34ecf2557d8,2021-09-08_20h54.36.893,forced_choiceRT,2021.1.2,MacIntel,59.99880002,,,,,,,,1,Slow,f,0,2.2561,9,3,39,2,1,,,,,
,,,,,,,,,,,,61153541b67ed34ecf2557d8,2021-09-08_20h54.36.893,forced_choiceRT,2021.1.2,MacIntel,59.99880002,,,,,,,,,,,,,,,,,,0,0,0,0,1
,0.92,,,,,,,,,h.PNG,h,61153541b67ed34ecf2557d8,2021-09-08_20h54.36.893,forced_choiceRT,2021.1.2,MacIntel,59.99880002,,,,,,,,2,Fast,h,1,1.8749,0,0,0,2,1,,,,,
,0.38,,,,,,,,,f.PNG,f,61153541b67ed34ecf2557d8,2021-09-08_20h54.36.893,forced_choiceRT,2021.1.2,MacIntel,59.99880002,,,,,,,,2,Ontime,f,1,1.9855,0,1,1,0,1,,,,,
,0.55,,,,,,,,,g.PNG,g,61153541b67ed34ecf2557d8,2021-09-08_20h54.36.893,forced_choiceRT,2021.1.2,MacIntel,59.99880002,,,,,,,,2,Ontime,h,0,1.9681,0,2,2,1,1,,,,,
,0.63,,,,,,,,,h.PNG,h,61153541b67ed34ecf2557d8,2021-09-08_20h54.36.893,forced_choiceRT,2021.1.2,MacIntel,59.99880002,,,,,,,,2,Ontime,h,1,1.9852,0,3,3,2,1,,,,,
,0.12,,,,,,,,,g.PNG,g,61153541b67ed34ecf2557d8,2021-09-08_20h54.36.893,forced_choiceRT,2021.1.2,MacIntel,59.99880002,,,,,,,,2,Ontime,g,1,2.0342,1,0,4,1,1,,,,,
,0.22,,,,,,,,,j.PNG,j,61153541b67ed34ecf2557d8,2021-09-08_20h54.36.893,forced_choiceRT,2021.1.2,MacIntel,59.99880002,,,,,,,,2,Ontime,j,1,2.0044,1,1,5,3,1,,,,,
,1.76,,,,,,,,,j.PNG,j,61153541b67ed34ecf2557d8,2021-09-08_20h54.36.893,forced_choiceRT,2021.1.2,MacIntel,59.99880002,,,,,,,,2,Slow,g,0,2.2192,1,2,6,3,1,,,,,
,1.19,,,,,,,,,f.PNG,f,61153541b67ed34ecf2557d8,2021-09-08_20h54.36.893,forced_choiceRT,2021.1.2,MacIntel,59.99880002,,,,,,,,2,Ontime,f,1,2.001,1,3,7,0,1,,,,,
,1.24,,,,,,,,,g.PNG,g,61153541b67ed34ecf2557d8,2021-09-08_20h54.36.893,forced_choiceRT,2021.1.2,MacIntel,59.99880002,,,,,,,,2,Ontime,j,0,1.9615,2,0,8,1,1,,,,,
,0.45,,,,,,,,,g.PNG,g,61153541b67ed34ecf2557d8,2021-09-08_20h54.36.893,forced_choiceRT,2021.1.2,MacIntel,59.99880002,,,,,,,,2,Ontime,g,1,1.9528,2,1,9,1,1,,,,,
,0.81,,,,,,,,,f.PNG,f,61153541b67ed34ecf2557d8,2021-09-08_20h54.36.893,forced_choiceRT,2021.1.2,MacIntel,59.99880002,,,,,,,,2,Fast,f,1,1.8849,2,2,10,0,1,,,,,
,0.23,,,,,,,,,j.PNG,j,61153541b67ed34ecf2557d8,2021-09-08_20h54.36.893,forced_choiceRT,2021.1.2,MacIntel,59.99880002,,,,,,,,2,Ontime,j,1,1.9839,2,3,11,3,1,,,,,
,1.12,,,,,,,,,h.PNG,h,61153541b67ed34ecf2557d8,2021-09-08_20h54.36.893,forced_choiceRT,2021.1.2,MacIntel,59.99880002,,,,,,,,2,Ontime,h,1,1.9681,3,0,12,2,1,,,,,
,0.73,,,,,,,,,h.PNG,h,61153541b67ed34ecf2557d8,2021-09-08_20h54.36.893,forced_choiceRT,2021.1.2,MacIntel,59.99880002,,,,,,,,2,Ontime,h,1,1.9835,3,1,13,2,1,,,,,
,1.74,,,,,,,,,j.PNG,j,61153541b67ed34ecf2557d8,2021-09-08_20h54.36.893,forced_choiceRT,2021.1.2,MacIntel,59.99880002,,,,,,,,2,Slow,h,0,2.1035,3,2,14,3,1,,,,,
,0.43,,,,,,,,,f.PNG,f,61153541b67ed34ecf2557d8,2021-09-08_20h54.36.893,forced_choiceRT,2021.1.2,MacIntel,59.99880002,,,,,,,,2,Slow,f,1,2.1178,3,3,15,0,1,,,,,
,0.14,,,,,,,,,g.PNG,g,61153541b67ed34ecf2557d8,2021-09-08_20h54.36.893,forced_choiceRT,2021.1.2,MacIntel,59.99880002,,,,,,,,2,Fast,g,1,1.8353,4,0,16,1,1,,,,,
,1.51,,,,,,,,,h.PNG,h,61153541b67ed34ecf2557d8,2021-09-08_20h54.36.893,forced_choiceRT,2021.1.2,MacIntel,59.99880002,,,,,,,,2,Ontime,h,1,2.0173,4,1,17,2,1,,,,,
,0.83,,,,,,,,,f.PNG,f,61153541b67ed34ecf2557d8,2021-09-08_20h54.36.893,forced_choiceRT,2021.1.2,MacIntel,59.99880002,,,,,,,,2,Ontime,f,1,1.9493,4,2,18,0,1,,,,,
,1.45,,,,,,,,,h.PNG,h,61153541b67ed34ecf2557d8,2021-09-08_20h54.36.893,forced_choiceRT,2021.1.2,MacIntel,59.99880002,,,,,,,,2,Ontime,h,1,2.0351,4,3,19,2,1,,,,,
,1.14,,,,,,,,,j.PNG,j,61153541b67ed34ecf2557d8,2021-09-08_20h54.36.893,forced_choiceRT,2021.1.2,MacIntel,59.99880002,,,,,,,,2,Ontime,j,1,1.9681,5,0,20,3,1,,,,,
,1.26,,,,,,,,,g.PNG,g,61153541b67ed34ecf2557d8,2021-09-08_20h54.36.893,forced_choiceRT,2021.1.2,MacIntel,59.99880002,,,,,,,,2,Ontime,g,1,1.9914,5,1,21,1,1,,,,,
,1.52,,,,,,,,,j.PNG,j,61153541b67ed34ecf2557d8,2021-09-08_20h54.36.893,forced_choiceRT,2021.1.2,MacIntel,59.99880002,,,,,,,,2,Slow,j,1,2.2335,5,2,22,3,1,,,,,
,0.03,,,,,,,,,f.PNG,f,61153541b67ed34ecf2557d8,2021-09-08_20h54.36.893,forced_choiceRT,2021.1.2,MacIntel,59.99880002,,,,,,,,2,Ontime,f,1,2.0222,5,3,23,0,1,,,,,
,1.34,,,,,,,,,f.PNG,f,61153541b67ed34ecf2557d8,2021-09-08_20h54.36.893,forced_choiceRT,2021.1.2,MacIntel,59.99880002,,,,,,,,2,Ontime,f,1,1.938,6,0,24,0,1,,,,,
,1.39,,,,,,,,,j.PNG,j,61153541b67ed34ecf2557d8,2021-09-08_20h54.36.893,forced_choiceRT,2021.1.2,MacIntel,59.99880002,,,,,,,,2,Fast,j,1,1.8664,6,1,25,3,1,,,,,
,1.03,,,,,,,,,f.PNG,f,61153541b67ed34ecf2557d8,2021-09-08_20h54.36.893,forced_choiceRT,2021.1.2,MacIntel,59.99880002,,,,,,,,2,Ontime,f,1,2.0344,6,2,26,0,1,,,,,
,1.25,,,,,,,,,j.PNG,j,61153541b67ed34ecf2557d8,2021-09-08_20h54.36.893,forced_choiceRT,2021.1.2,MacIntel,59.99880002,,,,,,,,2,Ontime,j,1,1.9055,6,3,27,3,1,,,,,
,1.27,,,,,,,,,h.PNG,h,61153541b67ed34ecf2557d8,2021-09-08_20h54.36.893,forced_choiceRT,2021.1.2,MacIntel,59.99880002,,,,,,,,2,Ontime,j,0,1.9199,7,0,28,2,1,,,,,
,1.51,,,,,,,,,g.PNG,g,61153541b67ed34ecf2557d8,2021-09-08_20h54.36.893,forced_choiceRT,2021.1.2,MacIntel,59.99880002,,,,,,,,2,Ontime,g,1,2.0521,7,1,29,1,1,,,,,
,1.17,,,,,,,,,f.PNG,f,61153541b67ed34ecf2557d8,2021-09-08_20h54.36.893,forced_choiceRT,2021.1.2,MacIntel,59.99880002,,,,,,,,2,Ontime,f,1,1.9189,7,2,30,0,1,,,,,
,1.32,,,,,,,,,g.PNG,g,61153541b67ed34ecf2557d8,2021-09-08_20h54.36.893,forced_choiceRT,2021.1.2,MacIntel,59.99880002,,,,,,,,2,Ontime,g,1,1.9254,7,3,31,1,1,,,,,
,1.51,,,,,,,,,f.PNG,f,61153541b67ed34ecf2557d8,2021-09-08_20h54.36.893,forced_choiceRT,2021.1.2,MacIntel,59.99880002,,,,,,,,2,Ontime,f,1,2.036,8,0,32,0,1,,,,,
,0.4,,,,,,,,,h.PNG,h,61153541b67ed34ecf2557d8,2021-09-08_20h54.36.893,forced_choiceRT,2021.1.2,MacIntel,59.99880002,,,,,,,,2,Ontime,h,1,1.9026,8,1,33,2,1,,,,,
,0.72,,,,,,,,,h.PNG,h,61153541b67ed34ecf2557d8,2021-09-08_20h54.36.893,forced_choiceRT,2021.1.2,MacIntel,59.99880002,,,,,,,,2,Ontime,h,1,1.9697,8,2,34,2,1,,,,,
,1.4,,,,,,,,,h.PNG,h,61153541b67ed34ecf2557d8,2021-09-08_20h54.36.893,forced_choiceRT,2021.1.2,MacIntel,59.99880002,,,,,,,,2,Ontime,h,1,2.0921,8,3,35,2,1,,,,,
,1.22,,,,,,,,,j.PNG,j,61153541b67ed34ecf2557d8,2021-09-08_20h54.36.893,forced_choiceRT,2021.1.2,MacIntel,59.99880002,,,,,,,,2,Ontime,j,1,1.9196,9,0,36,3,1,,,,,
,1.92,,,,,,,,,j.PNG,j,61153541b67ed34ecf2557d8,2021-09-08_20h54.36.893,forced_choiceRT,2021.1.2,MacIntel,59.99880002,,,,,,,,2,Slow,j,1,2.2823,9,1,37,3,1,,,,,
,1.72,,,,,,,,,g.PNG,g,61153541b67ed34ecf2557d8,2021-09-08_20h54.36.893,forced_choiceRT,2021.1.2,MacIntel,59.99880002,,,,,,,,2,Slow,g,1,2.417,9,2,38,1,1,,,,,
,0.33,,,,,,,,,g.PNG,g,61153541b67ed34ecf2557d8,2021-09-08_20h54.36.893,forced_choiceRT,2021.1.2,MacIntel,59.99880002,,,,,,,,2,Fast,g,1,1.7517,9,3,39,1,1,,,,,
,,,,,,,,,,,,61153541b67ed34ecf2557d8,2021-09-08_20h54.36.893,forced_choiceRT,2021.1.2,MacIntel,59.99880002,,,,,,,,,,,,,,,,,,1,0,1,0,1
,0.27,,,,,,,,,h.PNG,h,61153541b67ed34ecf2557d8,2021-09-08_20h54.36.893,forced_choiceRT,2021.1.2,MacIntel,59.99880002,,,,,,,,3,Fast,h,1,1.8755,0,0,0,2,1,,,,,
,0.76,,,,,,,,,f.PNG,f,61153541b67ed34ecf2557d8,2021-09-08_20h54.36.893,forced_choiceRT,2021.1.2,MacIntel,59.99880002,,,,,,,,3,Ontime,f,1,1.9849,0,1,1,0,1,,,,,
,0.79,,,,,,,,,g.PNG,g,61153541b67ed34ecf2557d8,2021-09-08_20h54.36.893,forced_choiceRT,2021.1.2,MacIntel,59.99880002,,,,,,,,3,Ontime,g,1,1.9673,0,2,2,1,1,,,,,
,1.74,,,,,,,,,j.PNG,j,61153541b67ed34ecf2557d8,2021-09-08_20h54.36.893,forced_choiceRT,2021.1.2,MacIntel,59.99880002,,,,,,,,3,Slow,j,1,2.2691,0,3,3,3,1,,,,,
,0.89,,,,,,,,,j.PNG,j,61153541b67ed34ecf2557d8,2021-09-08_20h54.36.893,forced_choiceRT,2021.1.2,MacIntel,59.99880002,,,,,,,,3,Fast,j,1,1.7521,1,0,4,3,1,,,,,
,0.04,,,,,,,,,h.PNG,h,61153541b67ed34ecf2557d8,2021-09-08_20h54.36.893,forced_choiceRT,2021.1.2,MacIntel,59.99880002,,,,,,,,3,Ontime,h,1,2.0703,1,1,5,2,1,,,,,
,0.81,,,,,,,,,j.PNG,j,61153541b67ed34ecf2557d8,2021-09-08_20h54.36.893,forced_choiceRT,2021.1.2,MacIntel,59.99880002,,,,,,,,3,Ontime,j,1,1.9244,1,2,6,3,1,,,,,
,1.72,,,,,,,,,h.PNG,h,61153541b67ed34ecf2557d8,2021-09-08_20h54.36.893,forced_choiceRT,2021.1.2,MacIntel,59.99880002,,,,,,,,3,Slow,j,0,2.2028,1,3,7,2,1,,,,,
,1.82,,,,,,,,,j.PNG,j,61153541b67ed34ecf2557d8,2021-09-08_20h54.36.893,forced_choiceRT,2021.1.2,MacIntel,59.99880002,,,,,,,,3,Slow,h,0,2.1664,2,0,8,3,1,,,,,
,1.36,,,,,,,,,g.PNG,g,61153541b67ed34ecf2557d8,2021-09-08_20h54.36.893,forced_choiceRT,2021.1.2,MacIntel,59.99880002,,,,,,,,3,Fast,g,1,1.8657,2,1,9,1,1,,,,,
,1.77,,,,,,,,,f.PNG,f,61153541b67ed34ecf2557d8,2021-09-08_20h54.36.893,forced_choiceRT,2021.1.2,MacIntel,59.99880002,,,,,,,,3,Slow,g,0,2.2645,2,2,10,0,1,,,,,
,1.38,,,,,,,,,f.PNG,f,61153541b67ed34ecf2557d8,2021-09-08_20h54.36.893,forced_choiceRT,2021.1.2,MacIntel,59.99880002,,,,,,,,3,Fast,f,1,1.8346,2,3,11,0,1,,,,,
,0.4,,,,,,,,,h.PNG,h,61153541b67ed34ecf2557d8,2021-09-08_20h54.36.893,forced_choiceRT,2021.1.2,MacIntel,59.99880002,,,,,,,,3,Ontime,j,0,2.07,3,0,12,2,1,,,,,
,1.77,,,,,,,,,h.PNG,h,61153541b67ed34ecf2557d8,2021-09-08_20h54.36.893,forced_choiceRT,2021.1.2,MacIntel,59.99880002,,,,,,,,3,Slow,j,0,2.1205,3,1,13,2,1,,,,,
,0.48,,,,,,,,,h.PNG,h,61153541b67ed34ecf2557d8,2021-09-08_20h54.36.893,forced_choiceRT,2021.1.2,MacIntel,59.99880002,,,,,,,,3,Fast,h,1,1.8903,3,2,14,2,1,,,,,
,0.48,,,,,,,,,h.PNG,h,61153541b67ed34ecf2557d8,2021-09-08_20h54.36.893,forced_choiceRT,2021.1.2,MacIntel,59.99880002,,,,,,,,3,Ontime,h,1,2.0164,3,3,15,2,1,,,,,
,1.94,,,,,,,,,f.PNG,f,61153541b67ed34ecf2557d8,2021-09-08_20h54.36.893,forced_choiceRT,2021.1.2,MacIntel,59.99880002,,,,,,,,3,Slow,j,0,2.1493,4,0,16,0,1,,,,,
,0.34,,,,,,,,,j.PNG,j,61153541b67ed34ecf2557d8,2021-09-08_20h54.36.893,forced_choiceRT,2021.1.2,MacIntel,59.99880002,,,,,,,,3,Ontime,j,1,2.0083,4,1,17,3,1,,,,,
,1.67,,,,,,,,,f.PNG,f,61153541b67ed34ecf2557d8,2021-09-08_20h54.36.893,forced_choiceRT,2021.1.2,MacIntel,59.99880002,,,,,,,,3,Slow,j,0,2.1007,4,2,18,0,1,,,,,
,1.68,,,,,,,,,f.PNG,f,61153541b67ed34ecf2557d8,2021-09-08_20h54.36.893,forced_choiceRT,2021.1.2,MacIntel,59.99880002,,,,,,,,3,Ontime,f,1,2.0519,4,3,19,0,1,,,,,
,1.38,,,,,,,,,h.PNG,h,61153541b67ed34ecf2557d8,2021-09-08_20h54.36.893,forced_choiceRT,2021.1.2,MacIntel,59.99880002,,,,,,,,3,Ontime,j,0,2.0419,5,0,20,2,1,,,,,
,1.39,,,,,,,,,j.PNG,j,61153541b67ed34ecf2557d8,2021-09-08_20h54.36.893,forced_choiceRT,2021.1.2,MacIntel,59.99880002,,,,,,,,3,Ontime,j,1,2.037,5,1,21,3,1,,,,,
,1.08,,,,,,,,,g.PNG,g,61153541b67ed34ecf2557d8,2021-09-08_20h54.36.893,forced_choiceRT,2021.1.2,MacIntel,59.99880002,,,,,,,,3,Slow,h,0,2.1179,5,2,22,1,1,,,,,
,0.29,,,,,,,,,j.PNG,j,61153541b67ed34ecf2557d8,2021-09-08_20h54.36.893,forced_choiceRT,2021.1.2,MacIntel,59.99880002,,,,,,,,3,Ontime,j,1,1.9005,5,3,23,3,1,,,,,
,1.09,,,,,,,,,j.PNG,j,61153541b67ed34ecf2557d8,2021-09-08_20h54.36.893,forced_choiceRT,2021.1.2,MacIntel,59.99880002,,,,,,,,3,Fast,j,1,1.8851,6,0,24,3,1,,,,,
,1.25,,,,,,,,,j.PNG,j,61153541b67ed34ecf2557d8,2021-09-08_20h54.36.893,forced_choiceRT,2021.1.2,MacIntel,59.99880002,,,,,,,,3,Slow,j,1,2.1185,6,1,25,3,1,,,,,
,0.43,,,,,,,,,h.PNG,h,61153541b67ed34ecf2557d8,2021-09-08_20h54.36.893,forced_choiceRT,2021.1.2,MacIntel,59.99880002,,,,,,,,3,Ontime,h,1,2.0181,6,2,26,2,1,,,,,
,1.86,,,,,,,,,j.PNG,j,61153541b67ed34ecf2557d8,2021-09-08_20h54.36.893,forced_choiceRT,2021.1.2,MacIntel,59.99880002,,,,,,,,3,Slow,h,0,2.2674,6,3,27,3,1,,,,,
,1.55,,,,,,,,,f.PNG,f,61153541b67ed34ecf2557d8,2021-09-08_20h54.36.893,forced_choiceRT,2021.1.2,MacIntel,59.99880002,,,,,,,,3,Ontime,j,0,2.0169,7,0,28,0,1,,,,,
,1.66,,,,,,,,,f.PNG,f,61153541b67ed34ecf2557d8,2021-09-08_20h54.36.893,forced_choiceRT,2021.1.2,MacIntel,59.99880002,,,,,,,,3,Slow,f,1,2.1835,7,1,29,0,1,,,,,
,1.91,,,,,,,,,g.PNG,g,61153541b67ed34ecf2557d8,2021-09-08_20h54.36.893,forced_choiceRT,2021.1.2,MacIntel,59.99880002,,,,,,,,3,Slow,f,0,2.2359,7,2,30,1,1,,,,,
,0.89,,,,,,,,,f.PNG,f,61153541b67ed34ecf2557d8,2021-09-08_20h54.36.893,forced_choiceRT,2021.1.2,MacIntel,59.99880002,,,,,,,,3,Fast,f,1,1.8687,7,3,31,0,1,,,,,
,1.3,,,,,,,,,g.PNG,g,61153541b67ed34ecf2557d8,2021-09-08_20h54.36.893,forced_choiceRT,2021.1.2,MacIntel,59.99880002,,,,,,,,3,Ontime,f,0,1.9558,8,0,32,1,1,,,,,
,0.63,,,,,,,,,g.PNG,g,61153541b67ed34ecf2557d8,2021-09-08_20h54.36.893,forced_choiceRT,2021.1.2,MacIntel,59.99880002,,,,,,,,3,Ontime,g,1,2.017,8,1,33,1,1,,,,,
,1.58,,,,,,,,,g.PNG,g,61153541b67ed34ecf2557d8,2021-09-08_20h54.36.893,forced_choiceRT,2021.1.2,MacIntel,59.99880002,,,,,,,,3,Ontime,g,1,1.9905,8,2,34,1,1,,,,,
,1.5,,,,,,,,,g.PNG,g,61153541b67ed34ecf2557d8,2021-09-08_20h54.36.893,forced_choiceRT,2021.1.2,MacIntel,59.99880002,,,,,,,,3,Ontime,g,1,1.9398,8,3,35,1,1,,,,,
,0.84,,,,,,,,,g.PNG,g,61153541b67ed34ecf2557d8,2021-09-08_20h54.36.893,forced_choiceRT,2021.1.2,MacIntel,59.99880002,,,,,,,,3,Ontime,g,1,1.9262,9,0,36,1,1,,,,,
,1.54,,,,,,,,,f.PNG,f,61153541b67ed34ecf2557d8,2021-09-08_20h54.36.893,forced_choiceRT,2021.1.2,MacIntel,59.99880002,,,,,,,,3,Slow,f,1,2.3023,9,1,37,0,1,,,,,
,0.48,,,,,,,,,g.PNG,g,61153541b67ed34ecf2557d8,2021-09-08_20h54.36.893,forced_choiceRT,2021.1.2,MacIntel,59.99880002,,,,,,,,3,Ontime,g,1,2.0574,9,2,38,1,1,,,,,
,0,,,,,,,,,h.PNG,h,61153541b67ed34ecf2557d8,2021-09-08_20h54.36.893,forced_choiceRT,2021.1.2,MacIntel,59.99880002,,,,,,,,3,Fast,h,1,1.8517,9,3,39,2,1,,,,,
,,,,,,,,,,,,61153541b67ed34ecf2557d8,2021-09-08_20h54.36.893,forced_choiceRT,2021.1.2,MacIntel,59.99880002,,,,,,,,,,,,,,,,,,2,0,2,0,1
,0.78,,,,,,,,,g.PNG,g,61153541b67ed34ecf2557d8,2021-09-08_20h54.36.893,forced_choiceRT,2021.1.2,MacIntel,59.99880002,,,,,,,,4,Ontime,g,1,1.9265,0,0,0,1,1,,,,,
,1.33,,,,,,,,,j.PNG,j,61153541b67ed34ecf2557d8,2021-09-08_20h54.36.893,forced_choiceRT,2021.1.2,MacIntel,59.99880002,,,,,,,,4,Ontime,j,1,1.9742,0,1,1,3,1,,,,,
,0.08,,,,,,,,,f.PNG,f,61153541b67ed34ecf2557d8,2021-09-08_20h54.36.893,forced_choiceRT,2021.1.2,MacIntel,59.99880002,,,,,,,,4,Fast,f,1,1.8165,0,2,2,0,1,,,,,
,0.29,,,,,,,,,h.PNG,h,61153541b67ed34ecf2557d8,2021-09-08_20h54.36.893,forced_choiceRT,2021.1.2,MacIntel,59.99880002,,,,,,,,4,Fast,h,1,1.8053,0,3,3,2,1,,,,,
,0.46,,,,,,,,,h.PNG,h,61153541b67ed34ecf2557d8,2021-09-08_20h54.36.893,forced_choiceRT,2021.1.2,MacIntel,59.99880002,,,,,,,,4,Ontime,h,1,1.9161,1,0,4,2,1,,,,,
,0.3,,,,,,,,,f.PNG,f,61153541b67ed34ecf2557d8,2021-09-08_20h54.36.893,forced_choiceRT,2021.1.2,MacIntel,59.99880002,,,,,,,,4,Ontime,f,1,2.0016,1,1,5,0,1,,,,,
,0.12,,,,,,,,,g.PNG,g,61153541b67ed34ecf2557d8,2021-09-08_20h54.36.893,forced_choiceRT,2021.1.2,MacIntel,59.99880002,,,,,,,,4,Fast,g,1,1.8741,1,2,6,1,1,,,,,
,1.8,,,,,,,,,j.PNG,j,61153541b67ed34ecf2557d8,2021-09-08_20h54.36.893,forced_choiceRT,2021.1.2,MacIntel,59.99880002,,,,,,,,4,Slow,j,1,2.1354,1,3,7,3,1,,,,,
,0.05,,,,,,,,,g.PNG,g,61153541b67ed34ecf2557d8,2021-09-08_20h54.36.893,forced_choiceRT,2021.1.2,MacIntel,59.99880002,,,,,,,,4,Fast,g,1,1.7377,2,0,8,1,1,,,,,
,1.02,,,,,,,,,g.PNG,g,61153541b67ed34ecf2557d8,2021-09-08_20h54.36.893,forced_choiceRT,2021.1.2,MacIntel,59.99880002,,,,,,,,4,Ontime,g,1,1.9517,2,1,9,1,1,,,,,
,1.48,,,,,,,,,h.PNG,h,61153541b67ed34ecf2557d8,2021-09-08_20h54.36.893,forced_choiceRT,2021.1.2,MacIntel,59.99880002,,,,,,,,4,Ontime,j,0,2.0658,2,2,10,2,1,,,,,
,1.5,,,,,,,,,h.PNG,h,61153541b67ed34ecf2557d8,2021-09-08_20h54.36.893,forced_choiceRT,2021.1.2,MacIntel,59.99880002,,,,,,,,4,Ontime,j,0,1.9779,2,3,11,2,1,,,,,
,0.03,,,,,,,,,h.PNG,h,61153541b67ed34ecf2557d8,2021-09-08_20h54.36.893,forced_choiceRT,2021.1.2,MacIntel,59.99880002,,,,,,,,4,Fast,h,1,1.8711,3,0,12,2,1,,,,,
,0.44,,,,,,,,,g.PNG,g,61153541b67ed34ecf2557d8,2021-09-08_20h54.36.893,forced_choiceRT,2021.1.2,MacIntel,59.99880002,,,,,,,,4,Ontime,g,1,1.9013,3,1,13,1,1,,,,,
,0.89,,,,,,,,,g.PNG,g,61153541b67ed34ecf2557d8,2021-09-08_20h54.36.893,forced_choiceRT,2021.1.2,MacIntel,59.99880002,,,,,,,,4,Ontime,g,1,2.0095,3,2,14,1,1,,,,,
,0.68,,,,,,,,,g.PNG,g,61153541b67ed34ecf2557d8,2021-09-08_20h54.36.893,forced_choiceRT,2021.1.2,MacIntel,59.99880002,,,,,,,,4,Slow,g,1,2.1738,3,3,15,1,1,,,,,
,1.41,,,,,,,,,g.PNG,g,61153541b67ed34ecf2557d8,2021-09-08_20h54.36.893,forced_choiceRT,2021.1.2,MacIntel,59.99880002,,,,,,,,4,Ontime,g,1,2.073,4,0,16,1,1,,,,,
,1.8,,,,,,,,,h.PNG,h,61153541b67ed34ecf2557d8,2021-09-08_20h54.36.893,forced_choiceRT,2021.1.2,MacIntel,59.99880002,,,,,,,,4,Slow,h,1,2.1012,4,1,17,2,1,,,,,
,0.27,,,,,,,,,j.PNG,j,61153541b67ed34ecf2557d8,2021-09-08_20h54.36.893,forced_choiceRT,2021.1.2,MacIntel,59.99880002,,,,,,,,4,Ontime,j,1,1.9263,4,2,18,3,1,,,,,
,0.72,,,,,,,,,j.PNG,j,61153541b67ed34ecf2557d8,2021-09-08_20h54.36.893,forced_choiceRT,2021.1.2,MacIntel,59.99880002,,,,,,,,4,Fast,j,1,1.8529,4,3,19,3,1,,,,,
,1.01,,,,,,,,,h.PNG,h,61153541b67ed34ecf2557d8,2021-09-08_20h54.36.893,forced_choiceRT,2021.1.2,MacIntel,59.99880002,,,,,,,,4,Ontime,h,1,2.0187,5,0,20,2,1,,,,,
,0.3,,,,,,,,,j.PNG,j,61153541b67ed34ecf2557d8,2021-09-08_20h54.36.893,forced_choiceRT,2021.1.2,MacIntel,59.99880002,,,,,,,,4,Ontime,j,1,1.9185,5,1,21,3,1,,,,,
,0.85,,,,,,,,,f.PNG,f,61153541b67ed34ecf2557d8,2021-09-08_20h54.36.893,forced_choiceRT,2021.1.2,MacIntel,59.99880002,,,,,,,,4,Ontime,f,1,1.9676,5,2,22,0,1,,,,,
,1.76,,,,,,,,,j.PNG,j,61153541b67ed34ecf2557d8,2021-09-08_20h54.36.893,forced_choiceRT,2021.1.2,MacIntel,59.99880002,,,,,,,,4,Slow,f,0,2.2928,5,3,23,3,1,,,,,
,0.94,,,,,,,,,f.PNG,f,61153541b67ed34ecf2557d8,2021-09-08_20h54.36.893,forced_choiceRT,2021.1.2,MacIntel,59.99880002,,,,,,,,4,Ontime,f,1,2.0022,6,0,24,0,1,,,,,
,0.61,,,,,,,,,f.PNG,f,61153541b67ed34ecf2557d8,2021-09-08_20h54.36.893,forced_choiceRT,2021.1.2,MacIntel,59.99880002,,,,,,,,4,Ontime,f,1,1.9693,6,1,25,0,1,,,,,
,0.95,,,,,,,,,f.PNG,f,61153541b67ed34ecf2557d8,2021-09-08_20h54.36.893,forced_choiceRT,2021.1.2,MacIntel,59.99880002,,,,,,,,4,Ontime,f,1,2.018,6,2,26,0,1,,,,,
,0.54,,,,,,,,,g.PNG,g,61153541b67ed34ecf2557d8,2021-09-08_20h54.36.893,forced_choiceRT,2021.1.2,MacIntel,59.99880002,,,,,,,,4,Ontime,g,1,1.9332,6,3,27,1,1,,,,,
,1.83,,,,,,,,,f.PNG,f,61153541b67ed34ecf2557d8,2021-09-08_20h54.36.893,forced_choiceRT,2021.1.2,MacIntel,59.99880002,,,,,,,,4,Slow,g,0,2.188,7,0,28,0,1,,,,,
,1.79,,,,,,,,,h.PNG,h,61153541b67ed34ecf2557d8,2021-09-08_20h54.36.893,forced_choiceRT,2021.1.2,MacIntel,59.99880002,,,,,,,,4,Slow,g,0,2.3016,7,1,29,2,1,,,,,
,1.6,,,,,,,,,h.PNG,h,61153541b67ed34ecf2557d8,2021-09-08_20h54.36.893,forced_choiceRT,2021.1.2,MacIntel,59.99880002,,,,,,,,4,Ontime,h,1,2.0195,7,2,30,2,1,,,,,
,1.45,,,,,,,,,j.PNG,j,61153541b67ed34ecf2557d8,2021-09-08_20h54.36.893,forced_choiceRT,2021.1.2,MacIntel,59.99880002,,,,,,,,4,Ontime,j,1,1.9824,7,3,31,3,1,,,,,
,0.2,,,,,,,,,g.PNG,g,61153541b67ed34ecf2557d8,2021-09-08_20h54.36.893,forced_choiceRT,2021.1.2,MacIntel,59.99880002,,,,,,,,4,Fast,g,1,1.822,8,0,32,1,1,,,,,
,0.09,,,,,,,,,j.PNG,j,61153541b67ed34ecf2557d8,2021-09-08_20h54.36.893,forced_choiceRT,2021.1.2,MacIntel,59.99880002,,,,,,,,4,Fast,j,1,1.8534,8,1,33,3,1,,,,,
,0.05,,,,,,,,,f.PNG,f,61153541b67ed34ecf2557d8,2021-09-08_20h54.36.893,forced_choiceRT,2021.1.2,MacIntel,59.99880002,,,,,,,,4,Fast,f,1,1.8836,8,2,34,0,1,,,,,
,1.5,,,,,,,,,j.PNG,j,61153541b67ed34ecf2557d8,2021-09-08_20h54.36.893,forced_choiceRT,2021.1.2,MacIntel,59.99880002,,,,,,,,4,Fast,g,0,1.8843,8,3,35,3,1,,,,,
,1.44,,,,,,,,,j.PNG,j,61153541b67ed34ecf2557d8,2021-09-08_20h54.36.893,forced_choiceRT,2021.1.2,MacIntel,59.99880002,,,,,,,,4,Ontime,j,1,1.9264,9,0,36,3,1,,,,,
,1.84,,,,,,,,,f.PNG,f,61153541b67ed34ecf2557d8,2021-09-08_20h54.36.893,forced_choiceRT,2021.1.2,MacIntel,59.99880002,,,,,,,,4,Ontime,f,1,2.023,9,1,37,0,1,,,,,
,0.98,,,,,,,,,f.PNG,f,61153541b67ed34ecf2557d8,2021-09-08_20h54.36.893,forced_choiceRT,2021.1.2,MacIntel,59.99880002,,,,,,,,4,Ontime,f,1,1.9329,9,2,38,0,1,,,,,
,0.19,,,,,,,,,h.PNG,h,61153541b67ed34ecf2557d8,2021-09-08_20h54.36.893,forced_choiceRT,2021.1.2,MacIntel,59.99880002,,,,,,,,4,Ontime,h,1,2.0843,9,3,39,2,1,,,,,
,,,,,,,,,,,,61153541b67ed34ecf2557d8,2021-09-08_20h54.36.893,forced_choiceRT,2021.1.2,MacIntel,59.99880002,,,,,,,,,,,,,,,,,,3,0,3,0,1
,0.22,,,,,,,,,g.PNG,g,61153541b67ed34ecf2557d8,2021-09-08_20h54.36.893,forced_choiceRT,2021.1.2,MacIntel,59.99880002,,,,,,,,5,Fast,g,1,1.8666,0,0,0,1,1,,,,,
,1.21,,,,,,,,,h.PNG,h,61153541b67ed34ecf2557d8,2021-09-08_20h54.36.893,forced_choiceRT,2021.1.2,MacIntel,59.99880002,,,,,,,,5,Ontime,h,1,1.9891,0,1,1,2,1,,,,,
,0.15,,,,,,,,,f.PNG,f,61153541b67ed34ecf2557d8,2021-09-08_20h54.36.893,forced_choiceRT,2021.1.2,MacIntel,59.99880002,,,,,,,,5,Ontime,f,1,2.0348,0,2,2,0,1,,,,,
,0.01,,,,,,,,,g.PNG,g,61153541b67ed34ecf2557d8,2021-09-08_20h54.36.893,forced_choiceRT,2021.1.2,MacIntel,59.99880002,,,,,,,,5,Ontime,g,1,1.9171,0,3,3,1,1,,,,,
,1.97,,,,,,,,,j.PNG,j,61153541b67ed34ecf2557d8,2021-09-08_20h54.36.893,forced_choiceRT,2021.1.2,MacIntel,59.99880002,,,,,,,,5,Slow,h,0,2.2733,1,0,4,3,1,,,,,
,1.94,,,,,,,,,f.PNG,f,61153541b67ed34ecf2557d8,2021-09-08_20h54.36.893,forced_choiceRT,2021.1.2,MacIntel,59.99880002,,,,,,,,5,Slow,j,0,2.2057,1,1,5,0,1,,,,,
,0.14,,,,,,,,,j.PNG,j,61153541b67ed34ecf2557d8,2021-09-08_20h54.36.893,forced_choiceRT,2021.1.2,MacIntel,59.99880002,,,,,,,,5,Fast,j,1,1.8197,1,2,6,3,1,,,,,
,1.66,,,,,,,,,f.PNG,f,61153541b67ed34ecf2557d8,2021-09-08_20h54.36.893,forced_choiceRT,2021.1.2,MacIntel,59.99880002,,,,,,,,5,Ontime,j,0,2.0198,1,3,7,0,1,,,,,
,1.27,,,,,,,,,j.PNG,j,61153541b67ed34ecf2557d8,2021-09-08_20h54.36.893,forced_choiceRT,2021.1.2,MacIntel,59.99880002,,,,,,,,5,Fast,j,1,1.7997,2,0,8,3,1,,,,,
,1.12,,,,,,,,,f.PNG,f,61153541b67ed34ecf2557d8,2021-09-08_20h54.36.893,forced_choiceRT,2021.1.2,MacIntel,59.99880002,,,,,,,,5,Ontime,f,1,1.9373,2,1,9,0,1,,,,,
,0.96,,,,,,,,,g.PNG,g,61153541b67ed34ecf2557d8,2021-09-08_20h54.36.893,forced_choiceRT,2021.1.2,MacIntel,59.99880002,,,,,,,,5,Ontime,g,1,1.9736,2,2,10,1,1,,,,,
,1.95,,,,,,,,,h.PNG,h,61153541b67ed34ecf2557d8,2021-09-08_20h54.36.893,forced_choiceRT,2021.1.2,MacIntel,59.99880002,,,,,,,,5,Slow,h,1,2.2506,2,3,11,2,1,,,,,
,0.6,,,,,,,,,j.PNG,j,61153541b67ed34ecf2557d8,2021-09-08_20h54.36.893,forced_choiceRT,2021.1.2,MacIntel,59.99880002,,,,,,,,5,Fast,j,1,1.737,3,0,12,3,1,,,,,
,0.49,,,,,,,,,g.PNG,g,61153541b67ed34ecf2557d8,2021-09-08_20h54.36.893,forced_choiceRT,2021.1.2,MacIntel,59.99880002,,,,,,,,5,Fast,g,1,1.8862,3,1,13,1,1,,,,,
,0.82,,,,,,,,,f.PNG,f,61153541b67ed34ecf2557d8,2021-09-08_20h54.36.893,forced_choiceRT,2021.1.2,MacIntel,59.99880002,,,,,,,,5,Fast,f,1,1.7337,3,2,14,0,1,,,,,
,1.11,,,,,,,,,j.PNG,j,61153541b67ed34ecf2557d8,2021-09-08_20h54.36.893,forced_choiceRT,2021.1.2,MacIntel,59.99880002,,,,,,,,5,Fast,j,1,1.7841,3,3,15,3,1,,,,,
,0.76,,,,,,,,,h.PNG,h,61153541b67ed34ecf2557d8,2021-09-08_20h54.36.893,forced_choiceRT,2021.1.2,MacIntel,59.99880002,,,,,,,,5,Fast,h,1,1.8186,4,0,16,2,1,,,,,
,0.54,,,,,,,,,g.PNG,g,61153541b67ed34ecf2557d8,2021-09-08_20h54.36.893,forced_choiceRT,2021.1.2,MacIntel,59.99880002,,,,,,,,5,Ontime,g,1,1.9676,4,1,17,1,1,,,,,
,1.48,,,,,,,,,g.PNG,g,61153541b67ed34ecf2557d8,2021-09-08_20h54.36.893,forced_choiceRT,2021.1.2,MacIntel,59.99880002,,,,,,,,5,Ontime,g,1,1.9765,4,2,18,1,1,,,,,
,1.96,,,,,,,,,f.PNG,f,61153541b67ed34ecf2557d8,2021-09-08_20h54.36.893,forced_choiceRT,2021.1.2,MacIntel,59.99880002,,,,,,,,5,Slow,g,0,2.2233,4,3,19,0,1,,,,,
,0.74,,,,,,,,,j.PNG,j,61153541b67ed34ecf2557d8,2021-09-08_20h54.36.893,forced_choiceRT,2021.1.2,MacIntel,59.99880002,,,,,,,,5,Ontime,j,1,1.9158,5,0,20,3,1,,,,,
,1.61,,,,,,,,,h.PNG,h,61153541b67ed34ecf2557d8,2021-09-08_20h54.36.893,forced_choiceRT,2021.1.2,MacIntel,59.99880002,,,,,,,,5,Fast,j,0,1.8996,5,1,21,2,1,,,,,
,1.41,,,,,,,,,f.PNG,f,61153541b67ed34ecf2557d8,2021-09-08_20h54.36.893,forced_choiceRT,2021.1.2,MacIntel,59.99880002,,,,,,,,5,Ontime,f,1,1.9687,5,2,22,0,1,,,,,
,1.32,,,,,,,,,j.PNG,j,61153541b67ed34ecf2557d8,2021-09-08_20h54.36.893,forced_choiceRT,2021.1.2,MacIntel,59.99880002,,,,,,,,5,Fast,j,1,1.8688,5,3,23,3,1,,,,,
,0.16,,,,,,,,,g.PNG,g,61153541b67ed34ecf2557d8,2021-09-08_20h54.36.893,forced_choiceRT,2021.1.2,MacIntel,59.99880002,,,,,,,,5,Ontime,g,1,1.9391,6,0,24,1,1,,,,,
,0.47,,,,,,,,,j.PNG,j,61153541b67ed34ecf2557d8,2021-09-08_20h54.36.893,forced_choiceRT,2021.1.2,MacIntel,59.99880002,,,,,,,,5,Ontime,j,1,1.9852,6,1,25,3,1,,,,,
,1.25,,,,,,,,,h.PNG,h,61153541b67ed34ecf2557d8,2021-09-08_20h54.36.893,forced_choiceRT,2021.1.2,MacIntel,59.99880002,,,,,,,,5,Ontime,j,0,1.9196,6,2,26,2,1,,,,,
,0.45,,,,,,,,,g.PNG,g,61153541b67ed34ecf2557d8,2021-09-08_20h54.36.893,forced_choiceRT,2021.1.2,MacIntel,59.99880002,,,,,,,,5,Ontime,g,1,2.0069,6,3,27,1,1,,,,,
,0.08,,,,,,,,,h.PNG,h,61153541b67ed34ecf2557d8,2021-09-08_20h54.36.893,forced_choiceRT,2021.1.2,MacIntel,59.99880002,,,,,,,,5,Fast,h,1,1.8522,7,0,28,2,1,,,,,
,0.9,,,,,,,,,h.PNG,h,61153541b67ed34ecf2557d8,2021-09-08_20h54.36.893,forced_choiceRT,2021.1.2,MacIntel,59.99880002,,,,,,,,5,Ontime,h,1,1.9486,7,1,29,2,1,,,,,
,0.05,,,,,,,,,h.PNG,h,61153541b67ed34ecf2557d8,2021-09-08_20h54.36.893,forced_choiceRT,2021.1.2,MacIntel,59.99880002,,,,,,,,5,Ontime,h,1,1.9412,7,2,30,2,1,,,,,
,0.75,,,,,,,,,f.PNG,f,61153541b67ed34ecf2557d8,2021-09-08_20h54.36.893,forced_choiceRT,2021.1.2,MacIntel,59.99880002,,,,,,,,5,Ontime,f,1,1.941,7,3,31,0,1,,,,,
,1.14,,,,,,,,,j.PNG,j,61153541b67ed34ecf2557d8,2021-09-08_20h54.36.893,forced_choiceRT,2021.1.2,MacIntel,59.99880002,,,,,,,,5,Ontime,j,1,1.9846,8,0,32,3,1,,,,,
,0.23,,,,,,,,,g.PNG,g,61153541b67ed34ecf2557d8,2021-09-08_20h54.36.893,forced_choiceRT,2021.1.2,MacIntel,59.99880002,,,,,,,,5,Ontime,g,1,2.0016,8,1,33,1,1,,,,,
,0.51,,,,,,,,,h.PNG,h,61153541b67ed34ecf2557d8,2021-09-08_20h54.36.893,forced_choiceRT,2021.1.2,MacIntel,59.99880002,,,,,,,,5,Fast,h,1,1.8687,8,2,34,2,1,,,,,
,0.25,,,,,,,,,g.PNG,g,61153541b67ed34ecf2557d8,2021-09-08_20h54.36.893,forced_choiceRT,2021.1.2,MacIntel,59.99880002,,,,,,,,5,Fast,g,1,1.8323,8,3,35,1,1,,,,,
,1.28,,,,,,,,,h.PNG,h,61153541b67ed34ecf2557d8,2021-09-08_20h54.36.893,forced_choiceRT,2021.1.2,MacIntel,59.99880002,,,,,,,,5,Slow,h,1,2.125,9,0,36,2,1,,,,,
,0,,,,,,,,,f.PNG,f,61153541b67ed34ecf2557d8,2021-09-08_20h54.36.893,forced_choiceRT,2021.1.2,MacIntel,59.99880002,,,,,,,,5,Fast,f,1,1.7505,9,1,37,0,1,,,,,
,1.47,,,,,,,,,f.PNG,f,61153541b67ed34ecf2557d8,2021-09-08_20h54.36.893,forced_choiceRT,2021.1.2,MacIntel,59.99880002,,,,,,,,5,Ontime,f,1,2.0349,9,2,38,0,1,,,,,
,1.61,,,,,,,,,j.PNG,j,61153541b67ed34ecf2557d8,2021-09-08_20h54.36.893,forced_choiceRT,2021.1.2,MacIntel,59.99880002,,,,,,,,5,Ontime,j,1,2.0846,9,3,39,3,1,,,,,
,,,,,,,,,,,,61153541b67ed34ecf2557d8,2021-09-08_20h54.36.893,forced_choiceRT,2021.1.2,MacIntel,59.99880002,,,,,,,,,,,,,,,,,,4,0,4,0,1
,1.96,,,,,,,,,g.PNG,g,61153541b67ed34ecf2557d8,2021-09-08_20h54.36.893,forced_choiceRT,2021.1.2,MacIntel,59.99880002,,,,,,,,6,Ontime,j,0,2.002,0,0,0,1,1,,,,,
,1.78,,,,,,,,,h.PNG,h,61153541b67ed34ecf2557d8,2021-09-08_20h54.36.893,forced_choiceRT,2021.1.2,MacIntel,59.99880002,,,,,,,,6,Fast,f,0,1.702,0,1,1,2,1,,,,,
,0.82,,,,,,,,,f.PNG,f,61153541b67ed34ecf2557d8,2021-09-08_20h54.36.893,forced_choiceRT,2021.1.2,MacIntel,59.99880002,,,,,,,,6,Fast,f,1,1.8537,0,2,2,0,1,,,,,
,1.68,,,,,,,,,g.PNG,g,61153541b67ed34ecf2557d8,2021-09-08_20h54.36.893,forced_choiceRT,2021.1.2,MacIntel,59.99880002,,,,,,,,6,Ontime,g,1,1.9931,0,3,3,1,1,,,,,
,0.96,,,,,,,,,g.PNG,g,61153541b67ed34ecf2557d8,2021-09-08_20h54.36.893,forced_choiceRT,2021.1.2,MacIntel,59.99880002,,,,,,,,6,Fast,g,1,1.8689,1,0,4,1,1,,,,,
,0.69,,,,,,,,,g.PNG,g,61153541b67ed34ecf2557d8,2021-09-08_20h54.36.893,forced_choiceRT,2021.1.2,MacIntel,59.99880002,,,,,,,,6,Slow,g,1,2.1013,1,1,5,1,1,,,,,
,0.05,,,,,,,,,g.PNG,g,61153541b67ed34ecf2557d8,2021-09-08_20h54.36.893,forced_choiceRT,2021.1.2,MacIntel,59.99880002,,,,,,,,6,Fast,g,1,1.8367,1,2,6,1,1,,,,,
,0.5,,,,,,,,,j.PNG,j,61153541b67ed34ecf2557d8,2021-09-08_20h54.36.893,forced_choiceRT,2021.1.2,MacIntel,59.99880002,,,,,,,,6,Ontime,j,1,2.0847,1,3,7,3,1,,,,,
,1.15,,,,,,,,,j.PNG,j,61153541b67ed34ecf2557d8,2021-09-08_20h54.36.893,forced_choiceRT,2021.1.2,MacIntel,59.99880002,,,,,,,,6,Slow,j,1,2.1327,2,0,8,3,1,,,,,
,0.51,,,,,,,,,f.PNG,f,61153541b67ed34ecf2557d8,2021-09-08_20h54.36.893,forced_choiceRT,2021.1.2,MacIntel,59.99880002,,,,,,,,6,Ontime,f,1,2.0716,2,1,9,0,1,,,,,
,1.98,,,,,,,,,h.PNG,h,61153541b67ed34ecf2557d8,2021-09-08_20h54.36.893,forced_choiceRT,2021.1.2,MacIntel,59.99880002,,,,,,,,6,Ontime,h,1,1.9998,2,2,10,2,1,,,,,
,0.34,,,,,,,,,g.PNG,g,61153541b67ed34ecf2557d8,2021-09-08_20h54.36.893,forced_choiceRT,2021.1.2,MacIntel,59.99880002,,,,,,,,6,Ontime,g,1,1.9343,2,3,11,1,1,,,,,
,1.44,,,,,,,,,h.PNG,h,61153541b67ed34ecf2557d8,2021-09-08_20h54.36.893,forced_choiceRT,2021.1.2,MacIntel,59.99880002,,,,,,,,6,Ontime,g,0,1.9189,3,0,12,2,1,,,,,
,0.05,,,,,,,,,f.PNG,f,61153541b67ed34ecf2557d8,2021-09-08_20h54.36.893,forced_choiceRT,2021.1.2,MacIntel,59.99880002,,,,,,,,6,Fast,f,1,1.8575,3,1,13,0,1,,,,,
,0.45,,,,,,,,,h.PNG,h,61153541b67ed34ecf2557d8,2021-09-08_20h54.36.893,forced_choiceRT,2021.1.2,MacIntel,59.99880002,,,,,,,,6,Ontime,h,1,1.9822,3,2,14,2,1,,,,,
,1.09,,,,,,,,,g.PNG,g,61153541b67ed34ecf2557d8,2021-09-08_20h54.36.893,forced_choiceRT,2021.1.2,MacIntel,59.99880002,,,,,,,,6,Slow,g,1,2.3557,3,3,15,1,1,,,,,
,0.67,,,,,,,,,j.PNG,j,61153541b67ed34ecf2557d8,2021-09-08_20h54.36.893,forced_choiceRT,2021.1.2,MacIntel,59.99880002,,,,,,,,6,Fast,j,1,1.8664,4,0,16,3,1,,,,,
,1.52,,,,,,,,,h.PNG,h,61153541b67ed34ecf2557d8,2021-09-08_20h54.36.893,forced_choiceRT,2021.1.2,MacIntel,59.99880002,,,,,,,,6,Ontime,j,0,2.0186,4,1,17,2,1,,,,,
,0.84,,,,,,,,,h.PNG,h,61153541b67ed34ecf2557d8,2021-09-08_20h54.36.893,forced_choiceRT,2021.1.2,MacIntel,59.99880002,,,,,,,,6,Ontime,h,1,1.9025,4,2,18,2,1,,,,,
,0.93,,,,,,,,,g.PNG,g,61153541b67ed34ecf2557d8,2021-09-08_20h54.36.893,forced_choiceRT,2021.1.2,MacIntel,59.99880002,,,,,,,,6,Ontime,g,1,1.9039,4,3,19,1,1,,,,,
,1.6,,,,,,,,,j.PNG,j,61153541b67ed34ecf2557d8,2021-09-08_20h54.36.893,forced_choiceRT,2021.1.2,MacIntel,59.99880002,,,,,,,,6,Ontime,g,0,1.9192,5,0,20,3,1,,,,,
,1,,,,,,,,,f.PNG,f,61153541b67ed34ecf2557d8,2021-09-08_20h54.36.893,forced_choiceRT,2021.1.2,MacIntel,59.99880002,,,,,,,,6,Ontime,f,1,1.9857,5,1,21,0,1,,,,,
,1.05,,,,,,,,,j.PNG,j,61153541b67ed34ecf2557d8,2021-09-08_20h54.36.893,forced_choiceRT,2021.1.2,MacIntel,59.99880002,,,,,,,,6,Ontime,j,1,1.9856,5,2,22,3,1,,,,,
,0,,,,,,,,,h.PNG,h,61153541b67ed34ecf2557d8,2021-09-08_20h54.36.893,forced_choiceRT,2021.1.2,MacIntel,59.99880002,,,,,,,,6,Ontime,h,1,1.9489,5,3,23,2,1,,,,,
,1.98,,,,,,,,,f.PNG,f,61153541b67ed34ecf2557d8,2021-09-08_20h54.36.893,forced_choiceRT,2021.1.2,MacIntel,59.99880002,,,,,,,,6,Ontime,g,0,2.0075,6,0,24,0,1,,,,,
,0.46,,,,,,,,,j.PNG,j,61153541b67ed34ecf2557d8,2021-09-08_20h54.36.893,forced_choiceRT,2021.1.2,MacIntel,59.99880002,,,,,,,,6,Ontime,j,1,1.9052,6,1,25,3,1,,,,,
,1.64,,,,,,,,,f.PNG,f,61153541b67ed34ecf2557d8,2021-09-08_20h54.36.893,forced_choiceRT,2021.1.2,MacIntel,59.99880002,,,,,,,,6,Slow,h,0,2.1034,6,2,26,0,1,,,,,
,0.53,,,,,,,,,f.PNG,f,61153541b67ed34ecf2557d8,2021-09-08_20h54.36.893,forced_choiceRT,2021.1.2,MacIntel,59.99880002,,,,,,,,6,Fast,f,1,1.8883,6,3,27,0,1,,,,,
,1.53,,,,,,,,,j.PNG,j,61153541b67ed34ecf2557d8,2021-09-08_20h54.36.893,forced_choiceRT,2021.1.2,MacIntel,59.99880002,,,,,,,,6,Ontime,j,1,2.0498,7,0,28,3,1,,,,,
,1.49,,,,,,,,,j.PNG,j,61153541b67ed34ecf2557d8,2021-09-08_20h54.36.893,forced_choiceRT,2021.1.2,MacIntel,59.99880002,,,,,,,,6,Fast,j,1,1.7677,7,1,29,3,1,,,,,
,1.51,,,,,,,,,h.PNG,h,61153541b67ed34ecf2557d8,2021-09-08_20h54.36.893,forced_choiceRT,2021.1.2,MacIntel,59.99880002,,,,,,,,6,Ontime,j,0,1.9833,7,2,30,2,1,,,,,
,1.91,,,,,,,,,g.PNG,g,61153541b67ed34ecf2557d8,2021-09-08_20h54.36.893,forced_choiceRT,2021.1.2,MacIntel,59.99880002,,,,,,,,6,Slow,h,0,2.172,7,3,31,1,1,,,,,
,0.69,,,,,,,,,h.PNG,h,61153541b67ed34ecf2557d8,2021-09-08_20h54.36.893,forced_choiceRT,2021.1.2,MacIntel,59.99880002,,,,,,,,6,Ontime,h,1,1.969,8,0,32,2,1,,,,,
,0,,,,,,,,,f.PNG,f,61153541b67ed34ecf2557d8,2021-09-08_20h54.36.893,forced_choiceRT,2021.1.2,MacIntel,59.99880002,,,,,,,,6,Fast,f,1,1.8897,8,1,33,0,1,,,,,
,1.72,,,,,,,,,f.PNG,f,61153541b67ed34ecf2557d8,2021-09-08_20h54.36.893,forced_choiceRT,2021.1.2,MacIntel,59.99880002,,,,,,,,6,Slow,f,1,2.1331,8,2,34,0,1,,,,,
,1.74,,,,,,,,,j.PNG,j,61153541b67ed34ecf2557d8,2021-09-08_20h54.36.893,forced_choiceRT,2021.1.2,MacIntel,59.99880002,,,,,,,,6,Ontime,f,0,2.0374,8,3,35,3,1,,,,,
,1.85,,,,,,,,,j.PNG,j,61153541b67ed34ecf2557d8,2021-09-08_20h54.36.893,forced_choiceRT,2021.1.2,MacIntel,59.99880002,,,,,,,,6,Ontime,j,1,1.969,9,0,36,3,1,,,,,
,0.15,,,,,,,,,f.PNG,f,61153541b67ed34ecf2557d8,2021-09-08_20h54.36.893,forced_choiceRT,2021.1.2,MacIntel,59.99880002,,,,,,,,6,Ontime,f,1,2.0237,9,1,37,0,1,,,,,
,0.17,,,,,,,,,h.PNG,h,61153541b67ed34ecf2557d8,2021-09-08_20h54.36.893,forced_choiceRT,2021.1.2,MacIntel,59.99880002,,,,,,,,6,Ontime,h,1,1.9008,9,2,38,2,1,,,,,
,1.15,,,,,,,,,g.PNG,g,61153541b67ed34ecf2557d8,2021-09-08_20h54.36.893,forced_choiceRT,2021.1.2,MacIntel,59.99880002,,,,,,,,6,Slow,g,1,2.118,9,3,39,1,1,,,,,
,,,,,,,,,,,,61153541b67ed34ecf2557d8,2021-09-08_20h54.36.893,forced_choiceRT,2021.1.2,MacIntel,59.99880002,,,,,,,,,,,,,,,,,,5,0,5,0,1
,0.25,,,,,,,,,h.PNG,h,61153541b67ed34ecf2557d8,2021-09-08_20h54.36.893,forced_choiceRT,2021.1.2,MacIntel,59.99880002,,,,,,,,7,Ontime,h,1,1.998,0,0,0,2,1,,,,,
,1.7,,,,,,,,,j.PNG,j,61153541b67ed34ecf2557d8,2021-09-08_20h54.36.893,forced_choiceRT,2021.1.2,MacIntel,59.99880002,,,,,,,,7,Ontime,h,0,1.9549,0,1,1,3,1,,,,,
,0.66,,,,,,,,,g.PNG,g,61153541b67ed34ecf2557d8,2021-09-08_20h54.36.893,forced_choiceRT,2021.1.2,MacIntel,59.99880002,,,,,,,,7,Ontime,g,1,1.9255,0,2,2,1,1,,,,,
,1.28,,,,,,,,,f.PNG,f,61153541b67ed34ecf2557d8,2021-09-08_20h54.36.893,forced_choiceRT,2021.1.2,MacIntel,59.99880002,,,,,,,,7,Ontime,f,1,1.9182,0,3,3,0,1,,,,,
,1.08,,,,,,,,,j.PNG,j,61153541b67ed34ecf2557d8,2021-09-08_20h54.36.893,forced_choiceRT,2021.1.2,MacIntel,59.99880002,,,,,,,,7,Ontime,j,1,2.0003,1,0,4,3,1,,,,,
,1.75,,,,,,,,,f.PNG,f,61153541b67ed34ecf2557d8,2021-09-08_20h54.36.893,forced_choiceRT,2021.1.2,MacIntel,59.99880002,,,,,,,,7,Ontime,j,0,2.0017,1,1,5,0,1,,,,,
,1.16,,,,,,,,,h.PNG,h,61153541b67ed34ecf2557d8,2021-09-08_20h54.36.893,forced_choiceRT,2021.1.2,MacIntel,59.99880002,,,,,,,,7,Ontime,h,1,1.9665,1,2,6,2,1,,,,,
,0.76,,,,,,,,,h.PNG,h,61153541b67ed34ecf2557d8,2021-09-08_20h54.36.893,forced_choiceRT,2021.1.2,MacIntel,59.99880002,,,,,,,,7,Fast,h,1,1.8688,1,3,7,2,1,,,,,
,1.03,,,,,,,,,j.PNG,j,61153541b67ed34ecf2557d8,2021-09-08_20h54.36.893,forced_choiceRT,2021.1.2,MacIntel,59.99880002,,,,,,,,7,Ontime,j,1,1.9551,2,0,8,3,1,,,,,
,0.24,,,,,,,,,g.PNG,g,61153541b67ed34ecf2557d8,2021-09-08_20h54.36.893,forced_choiceRT,2021.1.2,MacIntel,59.99880002,,,,,,,,7,Fast,g,1,1.8908,2,1,9,1,1,,,,,
,0.48,,,,,,,,,h.PNG,h,61153541b67ed34ecf2557d8,2021-09-08_20h54.36.893,forced_choiceRT,2021.1.2,MacIntel,59.99880002,,,,,,,,7,Ontime,h,1,1.9513,2,2,10,2,1,,,,,
,1.06,,,,,,,,,g.PNG,g,61153541b67ed34ecf2557d8,2021-09-08_20h54.36.893,forced_choiceRT,2021.1.2,MacIntel,59.99880002,,,,,,,,7,Ontime,g,1,1.9663,2,3,11,1,1,,,,,
,1.39,,,,,,,,,j.PNG,j,61153541b67ed34ecf2557d8,2021-09-08_20h54.36.893,forced_choiceRT,2021.1.2,MacIntel,59.99880002,,,,,,,,7,Ontime,j,1,2.0858,3,0,12,3,1,,,,,
,1.07,,,,,,,,,h.PNG,h,61153541b67ed34ecf2557d8,2021-09-08_20h54.36.893,forced_choiceRT,2021.1.2,MacIntel,59.99880002,,,,,,,,7,Ontime,h,1,1.917,3,1,13,2,1,,,,,
,1.57,,,,,,,,,j.PNG,j,61153541b67ed34ecf2557d8,2021-09-08_20h54.36.893,forced_choiceRT,2021.1.2,MacIntel,59.99880002,,,,,,,,7,Ontime,h,0,2.0833,3,2,14,3,1,,,,,
,0.28,,,,,,,,,j.PNG,j,61153541b67ed34ecf2557d8,2021-09-08_20h54.36.893,forced_choiceRT,2021.1.2,MacIntel,59.99880002,,,,,,,,7,Ontime,j,1,1.9569,3,3,15,3,1,,,,,
,1.09,,,,,,,,,h.PNG,h,61153541b67ed34ecf2557d8,2021-09-08_20h54.36.893,forced_choiceRT,2021.1.2,MacIntel,59.99880002,,,,,,,,7,Ontime,h,1,1.9591,4,0,16,2,1,,,,,
,0.26,,,,,,,,,f.PNG,f,61153541b67ed34ecf2557d8,2021-09-08_20h54.36.893,forced_choiceRT,2021.1.2,MacIntel,59.99880002,,,,,,,,7,Ontime,f,1,1.9881,4,1,17,0,1,,,,,
,1.86,,,,,,,,,f.PNG,f,61153541b67ed34ecf2557d8,2021-09-08_20h54.36.893,forced_choiceRT,2021.1.2,MacIntel,59.99880002,,,,,,,,7,Ontime,f,1,1.9259,4,2,18,0,1,,,,,
,1.34,,,,,,,,,g.PNG,g,61153541b67ed34ecf2557d8,2021-09-08_20h54.36.893,forced_choiceRT,2021.1.2,MacIntel,59.99880002,,,,,,,,7,Fast,h,0,1.7905,4,3,19,1,1,,,,,
,0.36,,,,,,,,,g.PNG,g,61153541b67ed34ecf2557d8,2021-09-08_20h54.36.893,forced_choiceRT,2021.1.2,MacIntel,59.99880002,,,,,,,,7,Fast,g,1,1.7512,5,0,20,1,1,,,,,
,0.74,,,,,,,,,f.PNG,f,61153541b67ed34ecf2557d8,2021-09-08_20h54.36.893,forced_choiceRT,2021.1.2,MacIntel,59.99880002,,,,,,,,7,Ontime,f,1,1.9191,5,1,21,0,1,,,,,
,0.41,,,,,,,,,g.PNG,g,61153541b67ed34ecf2557d8,2021-09-08_20h54.36.893,forced_choiceRT,2021.1.2,MacIntel,59.99880002,,,,,,,,7,Ontime,g,1,2.0194,5,2,22,1,1,,,,,
,1.69,,,,,,,,,g.PNG,g,61153541b67ed34ecf2557d8,2021-09-08_20h54.36.893,forced_choiceRT,2021.1.2,MacIntel,59.99880002,,,,,,,,7,Ontime,g,1,2.0183,5,3,23,1,1,,,,,
,1.58,,,,,,,,,f.PNG,f,61153541b67ed34ecf2557d8,2021-09-08_20h54.36.893,forced_choiceRT,2021.1.2,MacIntel,59.99880002,,,,,,,,7,Ontime,f,1,2.0894,6,0,24,0,1,,,,,
,1.62,,,,,,,,,g.PNG,g,61153541b67ed34ecf2557d8,2021-09-08_20h54.36.893,forced_choiceRT,2021.1.2,MacIntel,59.99880002,,,,,,,,7,Slow,g,1,2.2858,6,1,25,1,1,,,,,
,0.68,,,,,,,,,j.PNG,j,61153541b67ed34ecf2557d8,2021-09-08_20h54.36.893,forced_choiceRT,2021.1.2,MacIntel,59.99880002,,,,,,,,7,Fast,j,1,1.8057,6,2,26,3,1,,,,,
,0.51,,,,,,,,,f.PNG,f,61153541b67ed34ecf2557d8,2021-09-08_20h54.36.893,forced_choiceRT,2021.1.2,MacIntel,59.99880002,,,,,,,,7,Ontime,f,1,1.9501,6,3,27,0,1,,,,,
,1.04,,,,,,,,,h.PNG,h,61153541b67ed34ecf2557d8,2021-09-08_20h54.36.893,forced_choiceRT,2021.1.2,MacIntel,59.99880002,,,,,,,,7,Fast,h,1,1.6611,7,0,28,2,1,,,,,
,1.27,,,,,,,,,j.PNG,j,61153541b67ed34ecf2557d8,2021-09-08_20h54.36.893,forced_choiceRT,2021.1.2,MacIntel,59.99880002,,,,,,,,7,Ontime,j,1,1.9348,7,1,29,3,1,,,,,
,0.86,,,,,,,,,g.PNG,g,61153541b67ed34ecf2557d8,2021-09-08_20h54.36.893,forced_choiceRT,2021.1.2,MacIntel,59.99880002,,,,,,,,7,Fast,g,1,1.8695,7,2,30,1,1,,,,,
,0.67,,,,,,,,,f.PNG,f,61153541b67ed34ecf2557d8,2021-09-08_20h54.36.893,forced_choiceRT,2021.1.2,MacIntel,59.99880002,,,,,,,,7,Ontime,f,1,2.0545,7,3,31,0,1,,,,,
,1.95,,,,,,,,,h.PNG,h,61153541b67ed34ecf2557d8,2021-09-08_20h54.36.893,forced_choiceRT,2021.1.2,MacIntel,59.99880002,,,,,,,,7,Slow,j,0,2.2168,8,0,32,2,1,,,,,
,0.33,,,,,,,,,j.PNG,j,61153541b67ed34ecf2557d8,2021-09-08_20h54.36.893,forced_choiceRT,2021.1.2,MacIntel,59.99880002,,,,,,,,7,Ontime,j,1,1.9081,8,1,33,3,1,,,,,
,1.08,,,,,,,,,h.PNG,h,61153541b67ed34ecf2557d8,2021-09-08_20h54.36.893,forced_choiceRT,2021.1.2,MacIntel,59.99880002,,,,,,,,7,Ontime,h,1,1.9579,8,2,34,2,1,,,,,
,0.27,,,,,,,,,f.PNG,f,61153541b67ed34ecf2557d8,2021-09-08_20h54.36.893,forced_choiceRT,2021.1.2,MacIntel,59.99880002,,,,,,,,7,Ontime,f,1,1.943,8,3,35,0,1,,,,,
,1.29,,,,,,,,,g.PNG,g,61153541b67ed34ecf2557d8,2021-09-08_20h54.36.893,forced_choiceRT,2021.1.2,MacIntel,59.99880002,,,,,,,,7,Ontime,g,1,2.0503,9,0,36,1,1,,,,,
,0.85,,,,,,,,,j.PNG,j,61153541b67ed34ecf2557d8,2021-09-08_20h54.36.893,forced_choiceRT,2021.1.2,MacIntel,59.99880002,,,,,,,,7,Fast,j,1,1.8711,9,1,37,3,1,,,,,
,1.19,,,,,,,,,h.PNG,h,61153541b67ed34ecf2557d8,2021-09-08_20h54.36.893,forced_choiceRT,2021.1.2,MacIntel,59.99880002,,,,,,,,7,Ontime,h,1,1.9725,9,2,38,2,1,,,,,
,0.47,,,,,,,,,f.PNG,f,61153541b67ed34ecf2557d8,2021-09-08_20h54.36.893,forced_choiceRT,2021.1.2,MacIntel,59.99880002,,,,,,,,7,Ontime,f,1,2.0512,9,3,39,0,1,,,,,
,,,,,,,,,,,,61153541b67ed34ecf2557d8,2021-09-08_20h54.36.893,forced_choiceRT,2021.1.2,MacIntel,59.99880002,,,,,,,,,,,,,,,,,,6,0,6,0,1
,0.51,,,,,,,,,j.PNG,j,61153541b67ed34ecf2557d8,2021-09-08_20h54.36.893,forced_choiceRT,2021.1.2,MacIntel,59.99880002,,,,,,,,8,Ontime,j,1,1.9618,0,0,0,3,1,,,,,
,1.19,,,,,,,,,h.PNG,h,61153541b67ed34ecf2557d8,2021-09-08_20h54.36.893,forced_choiceRT,2021.1.2,MacIntel,59.99880002,,,,,,,,8,Ontime,h,1,1.9226,0,1,1,2,1,,,,,
,0.08,,,,,,,,,f.PNG,f,61153541b67ed34ecf2557d8,2021-09-08_20h54.36.893,forced_choiceRT,2021.1.2,MacIntel,59.99880002,,,,,,,,8,Fast,f,1,1.8162,0,2,2,0,1,,,,,
,1.45,,,,,,,,,g.PNG,g,61153541b67ed34ecf2557d8,2021-09-08_20h54.36.893,forced_choiceRT,2021.1.2,MacIntel,59.99880002,,,,,,,,8,Ontime,g,1,2.0199,0,3,3,1,1,,,,,
,0.59,,,,,,,,,f.PNG,f,61153541b67ed34ecf2557d8,2021-09-08_20h54.36.893,forced_choiceRT,2021.1.2,MacIntel,59.99880002,,,,,,,,8,Fast,f,1,1.8826,1,0,4,0,1,,,,,
,1.26,,,,,,,,,h.PNG,h,61153541b67ed34ecf2557d8,2021-09-08_20h54.36.893,forced_choiceRT,2021.1.2,MacIntel,59.99880002,,,,,,,,8,Ontime,j,0,1.9022,1,1,5,2,1,,,,,
,1.64,,,,,,,,,j.PNG,j,61153541b67ed34ecf2557d8,2021-09-08_20h54.36.893,forced_choiceRT,2021.1.2,MacIntel,59.99880002,,,,,,,,8,Ontime,h,0,2.0005,1,2,6,3,1,,,,,
,1.42,,,,,,,,,j.PNG,j,61153541b67ed34ecf2557d8,2021-09-08_20h54.36.893,forced_choiceRT,2021.1.2,MacIntel,59.99880002,,,,,,,,8,Ontime,j,1,2.0037,1,3,7,3,1,,,,,
,0.8,,,,,,,,,j.PNG,j,61153541b67ed34ecf2557d8,2021-09-08_20h54.36.893,forced_choiceRT,2021.1.2,MacIntel,59.99880002,,,,,,,,8,Ontime,j,1,1.9341,2,0,8,3,1,,,,,
,1.07,,,,,,,,,f.PNG,f,61153541b67ed34ecf2557d8,2021-09-08_20h54.36.893,forced_choiceRT,2021.1.2,MacIntel,59.99880002,,,,,,,,8,Ontime,f,1,1.971,2,1,9,0,1,,,,,
,1.55,,,,,,,,,g.PNG,g,61153541b67ed34ecf2557d8,2021-09-08_20h54.36.893,forced_choiceRT,2021.1.2,MacIntel,59.99880002,,,,,,,,8,Slow,g,1,2.1684,2,2,10,1,1,,,,,
,1.07,,,,,,,,,g.PNG,g,61153541b67ed34ecf2557d8,2021-09-08_20h54.36.893,forced_choiceRT,2021.1.2,MacIntel,59.99880002,,,,,,,,8,Fast,g,1,1.7829,2,3,11,1,1,,,,,
,0.97,,,,,,,,,h.PNG,h,61153541b67ed34ecf2557d8,2021-09-08_20h54.36.893,forced_choiceRT,2021.1.2,MacIntel,59.99880002,,,,,,,,8,Fast,h,1,1.8527,3,0,12,2,1,,,,,
,1.78,,,,,,,,,h.PNG,h,61153541b67ed34ecf2557d8,2021-09-08_20h54.36.893,forced_choiceRT,2021.1.2,MacIntel,59.99880002,,,,,,,,8,Ontime,g,0,2.025,3,1,13,2,1,,,,,
,0.82,,,,,,,,,f.PNG,f,61153541b67ed34ecf2557d8,2021-09-08_20h54.36.893,forced_choiceRT,2021.1.2,MacIntel,59.99880002,,,,,,,,8,Ontime,f,1,1.9431,3,2,14,0,1,,,,,
,0.42,,,,,,,,,h.PNG,h,61153541b67ed34ecf2557d8,2021-09-08_20h54.36.893,forced_choiceRT,2021.1.2,MacIntel,59.99880002,,,,,,,,8,Ontime,h,1,1.94,3,3,15,2,1,,,,,
,0.36,,,,,,,,,j.PNG,j,61153541b67ed34ecf2557d8,2021-09-08_20h54.36.893,forced_choiceRT,2021.1.2,MacIntel,59.99880002,,,,,,,,8,Fast,j,1,1.8019,4,0,16,3,1,,,,,
,0.02,,,,,,,,,g.PNG,g,61153541b67ed34ecf2557d8,2021-09-08_20h54.36.893,forced_choiceRT,2021.1.2,MacIntel,59.99880002,,,,,,,,8,Fast,g,1,1.884,4,1,17,1,1,,,,,
,1.79,,,,,,,,,g.PNG,g,61153541b67ed34ecf2557d8,2021-09-08_20h54.36.893,forced_choiceRT,2021.1.2,MacIntel,59.99880002,,,,,,,,8,Slow,h,0,2.1024,4,2,18,1,1,,,,,
,0.54,,,,,,,,,h.PNG,h,61153541b67ed34ecf2557d8,2021-09-08_20h54.36.893,forced_choiceRT,2021.1.2,MacIntel,59.99880002,,,,,,,,8,Fast,h,1,1.8199,4,3,19,2,1,,,,,
,1.23,,,,,,,,,f.PNG,f,61153541b67ed34ecf2557d8,2021-09-08_20h54.36.893,forced_choiceRT,2021.1.2,MacIntel,59.99880002,,,,,,,,8,Ontime,f,1,1.9518,5,0,20,0,1,,,,,
,1.87,,,,,,,,,f.PNG,f,61153541b67ed34ecf2557d8,2021-09-08_20h54.36.893,forced_choiceRT,2021.1.2,MacIntel,59.99880002,,,,,,,,8,Slow,g,0,2.218,5,1,21,0,1,,,,,
,1.96,,,,,,,,,h.PNG,h,61153541b67ed34ecf2557d8,2021-09-08_20h54.36.893,forced_choiceRT,2021.1.2,MacIntel,59.99880002,,,,,,,,8,Ontime,f,0,1.967,5,2,22,2,1,,,,,
,0.46,,,,,,,,,g.PNG,g,61153541b67ed34ecf2557d8,2021-09-08_20h54.36.893,forced_choiceRT,2021.1.2,MacIntel,59.99880002,,,,,,,,8,Ontime,g,1,1.9179,5,3,23,1,1,,,,,
,1.09,,,,,,,,,f.PNG,f,61153541b67ed34ecf2557d8,2021-09-08_20h54.36.893,forced_choiceRT,2021.1.2,MacIntel,59.99880002,,,,,,,,8,Ontime,f,1,1.9586,6,0,24,0,1,,,,,
,0.93,,,,,,,,,g.PNG,g,61153541b67ed34ecf2557d8,2021-09-08_20h54.36.893,forced_choiceRT,2021.1.2,MacIntel,59.99880002,,,,,,,,8,Ontime,g,1,1.9496,6,1,25,1,1,,,,,
,0.79,,,,,,,,,j.PNG,j,61153541b67ed34ecf2557d8,2021-09-08_20h54.36.893,forced_choiceRT,2021.1.2,MacIntel,59.99880002,,,,,,,,8,Fast,j,1,1.8015,6,2,26,3,1,,,,,
,0.54,,,,,,,,,h.PNG,h,61153541b67ed34ecf2557d8,2021-09-08_20h54.36.893,forced_choiceRT,2021.1.2,MacIntel,59.99880002,,,,,,,,8,Fast,h,1,1.8581,6,3,27,2,1,,,,,
,0.27,,,,,,,,,f.PNG,f,61153541b67ed34ecf2557d8,2021-09-08_20h54.36.893,forced_choiceRT,2021.1.2,MacIntel,59.99880002,,,,,,,,8,Fast,f,1,1.8519,7,0,28,0,1,,,,,
,0.27,,,,,,,,,h.PNG,h,61153541b67ed34ecf2557d8,2021-09-08_20h54.36.893,forced_choiceRT,2021.1.2,MacIntel,59.99880002,,,,,,,,8,Fast,h,1,1.7377,7,1,29,2,1,,,,,
,1.8,,,,,,,,,f.PNG,f,61153541b67ed34ecf2557d8,2021-09-08_20h54.36.893,forced_choiceRT,2021.1.2,MacIntel,59.99880002,,,,,,,,8,Ontime,g,0,1.9196,7,2,30,0,1,,,,,
,0.68,,,,,,,,,j.PNG,j,61153541b67ed34ecf2557d8,2021-09-08_20h54.36.893,forced_choiceRT,2021.1.2,MacIntel,59.99880002,,,,,,,,8,Ontime,j,1,1.9025,7,3,31,3,1,,,,,
,1.39,,,,,,,,,g.PNG,g,61153541b67ed34ecf2557d8,2021-09-08_20h54.36.893,forced_choiceRT,2021.1.2,MacIntel,59.99880002,,,,,,,,8,Ontime,h,0,1.924,8,0,32,1,1,,,,,
,0.05,,,,,,,,,j.PNG,j,61153541b67ed34ecf2557d8,2021-09-08_20h54.36.893,forced_choiceRT,2021.1.2,MacIntel,59.99880002,,,,,,,,8,Ontime,j,1,1.9008,8,1,33,3,1,,,,,
,1.3,,,,,,,,,g.PNG,g,61153541b67ed34ecf2557d8,2021-09-08_20h54.36.893,forced_choiceRT,2021.1.2,MacIntel,59.99880002,,,,,,,,8,Ontime,f,0,1.9206,8,2,34,1,1,,,,,
,0.19,,,,,,,,,h.PNG,h,61153541b67ed34ecf2557d8,2021-09-08_20h54.36.893,forced_choiceRT,2021.1.2,MacIntel,59.99880002,,,,,,,,8,Fast,h,1,1.842,8,3,35,2,1,,,,,
,1.78,,,,,,,,,j.PNG,j,61153541b67ed34ecf2557d8,2021-09-08_20h54.36.893,forced_choiceRT,2021.1.2,MacIntel,59.99880002,,,,,,,,8,Ontime,g,0,2.0194,9,0,36,3,1,,,,,
,1.25,,,,,,,,,f.PNG,f,61153541b67ed34ecf2557d8,2021-09-08_20h54.36.893,forced_choiceRT,2021.1.2,MacIntel,59.99880002,,,,,,,,8,Ontime,f,1,2.0694,9,1,37,0,1,,,,,
,1.18,,,,,,,,,g.PNG,g,61153541b67ed34ecf2557d8,2021-09-08_20h54.36.893,forced_choiceRT,2021.1.2,MacIntel,59.99880002,,,,,,,,8,Ontime,g,1,1.9855,9,2,38,1,1,,,,,
,1.64,,,,,,,,,j.PNG,j,61153541b67ed34ecf2557d8,2021-09-08_20h54.36.893,forced_choiceRT,2021.1.2,MacIntel,59.99880002,,,,,,,,8,Ontime,g,0,1.9732,9,3,39,3,1,,,,,
,,,,,,,,,,,,61153541b67ed34ecf2557d8,2021-09-08_20h54.36.893,forced_choiceRT,2021.1.2,MacIntel,59.99880002,,,,,,,,,,,,,,,,,,7,0,7,0,1
,1.35,,,,,,,,,j.PNG,j,61153541b67ed34ecf2557d8,2021-09-08_20h54.36.893,forced_choiceRT,2021.1.2,MacIntel,59.99880002,,,,,,,,9,Fast,j,1,1.8993,0,0,0,3,1,,,,,
,1.1,,,,,,,,,h.PNG,h,61153541b67ed34ecf2557d8,2021-09-08_20h54.36.893,forced_choiceRT,2021.1.2,MacIntel,59.99880002,,,,,,,,9,Ontime,h,1,1.952,0,1,1,2,1,,,,,
,0.12,,,,,,,,,j.PNG,j,61153541b67ed34ecf2557d8,2021-09-08_20h54.36.893,forced_choiceRT,2021.1.2,MacIntel,59.99880002,,,,,,,,9,Ontime,j,1,1.9364,0,2,2,3,1,,,,,
,1.04,,,,,,,,,f.PNG,f,61153541b67ed34ecf2557d8,2021-09-08_20h54.36.893,forced_choiceRT,2021.1.2,MacIntel,59.99880002,,,,,,,,9,Ontime,f,1,1.985,0,3,3,0,1,,,,,
,1.08,,,,,,,,,j.PNG,j,61153541b67ed34ecf2557d8,2021-09-08_20h54.36.893,forced_choiceRT,2021.1.2,MacIntel,59.99880002,,,,,,,,9,Ontime,j,1,1.9385,1,0,4,3,1,,,,,
,0.02,,,,,,,,,g.PNG,g,61153541b67ed34ecf2557d8,2021-09-08_20h54.36.893,forced_choiceRT,2021.1.2,MacIntel,59.99880002,,,,,,,,9,Ontime,g,1,1.9501,1,1,5,1,1,,,,,
,1.23,,,,,,,,,g.PNG,g,61153541b67ed34ecf2557d8,2021-09-08_20h54.36.893,forced_choiceRT,2021.1.2,MacIntel,59.99880002,,,,,,,,9,Ontime,g,1,1.9387,1,2,6,1,1,,,,,
,1.3,,,,,,,,,j.PNG,j,61153541b67ed34ecf2557d8,2021-09-08_20h54.36.893,forced_choiceRT,2021.1.2,MacIntel,59.99880002,,,,,,,,9,Ontime,j,1,1.9537,1,3,7,3,1,,,,,
,1.28,,,,,,,,,h.PNG,h,61153541b67ed34ecf2557d8,2021-09-08_20h54.36.893,forced_choiceRT,2021.1.2,MacIntel,59.99880002,,,,,,,,9,Ontime,h,1,2.0227,2,0,8,2,1,,,,,
,0.69,,,,,,,,,j.PNG,j,61153541b67ed34ecf2557d8,2021-09-08_20h54.36.893,forced_choiceRT,2021.1.2,MacIntel,59.99880002,,,,,,,,9,Fast,j,1,1.8679,2,1,9,3,1,,,,,
,0.43,,,,,,,,,f.PNG,f,61153541b67ed34ecf2557d8,2021-09-08_20h54.36.893,forced_choiceRT,2021.1.2,MacIntel,59.99880002,,,,,,,,9,Ontime,f,1,1.9576,2,2,10,0,1,,,,,
,1.49,,,,,,,,,j.PNG,j,61153541b67ed34ecf2557d8,2021-09-08_20h54.36.893,forced_choiceRT,2021.1.2,MacIntel,59.99880002,,,,,,,,9,Ontime,j,1,1.9744,2,3,11,3,1,,,,,
,0.98,,,,,,,,,j.PNG,j,61153541b67ed34ecf2557d8,2021-09-08_20h54.36.893,forced_choiceRT,2021.1.2,MacIntel,59.99880002,,,,,,,,9,Ontime,j,1,2.0517,3,0,12,3,1,,,,,
,0.37,,,,,,,,,h.PNG,h,61153541b67ed34ecf2557d8,2021-09-08_20h54.36.893,forced_choiceRT,2021.1.2,MacIntel,59.99880002,,,,,,,,9,Slow,h,1,2.1815,3,1,13,2,1,,,,,
,0.08,,,,,,,,,f.PNG,f,61153541b67ed34ecf2557d8,2021-09-08_20h54.36.893,forced_choiceRT,2021.1.2,MacIntel,59.99880002,,,,,,,,9,Ontime,f,1,1.9841,3,2,14,0,1,,,,,
,1.37,,,,,,,,,h.PNG,h,61153541b67ed34ecf2557d8,2021-09-08_20h54.36.893,forced_choiceRT,2021.1.2,MacIntel,59.99880002,,,,,,,,9,Fast,j,0,1.6998,3,3,15,2,1,,,,,
,0.68,,,,,,,,,f.PNG,f,61153541b67ed34ecf2557d8,2021-09-08_20h54.36.893,forced_choiceRT,2021.1.2,MacIntel,59.99880002,,,,,,,,9,Ontime,f,1,2.0198,4,0,16,0,1,,,,,
,0.08,,,,,,,,,g.PNG,g,61153541b67ed34ecf2557d8,2021-09-08_20h54.36.893,forced_choiceRT,2021.1.2,MacIntel,59.99880002,,,,,,,,9,Ontime,g,1,2.0256,4,1,17,1,1,,,,,
,1.6,,,,,,,,,j.PNG,j,61153541b67ed34ecf2557d8,2021-09-08_20h54.36.893,forced_choiceRT,2021.1.2,MacIntel,59.99880002,,,,,,,,9,Ontime,h,0,2.0002,4,2,18,3,1,,,,,
,0.82,,,,,,,,,f.PNG,f,61153541b67ed34ecf2557d8,2021-09-08_20h54.36.893,forced_choiceRT,2021.1.2,MacIntel,59.99880002,,,,,,,,9,Ontime,f,1,1.9534,4,3,19,0,1,,,,,
,1.38,,,,,,,,,f.PNG,f,61153541b67ed34ecf2557d8,2021-09-08_20h54.36.893,forced_choiceRT,2021.1.2,MacIntel,59.99880002,,,,,,,,9,Ontime,f,1,2.04,5,0,20,0,1,,,,,
,1.4,,,,,,,,,j.PNG,j,61153541b67ed34ecf2557d8,2021-09-08_20h54.36.893,forced_choiceRT,2021.1.2,MacIntel,59.99880002,,,,,,,,9,Ontime,j,1,1.97,5,1,21,3,1,,,,,
,0.54,,,,,,,,,g.PNG,g,61153541b67ed34ecf2557d8,2021-09-08_20h54.36.893,forced_choiceRT,2021.1.2,MacIntel,59.99880002,,,,,,,,9,Ontime,g,1,1.9849,5,2,22,1,1,,,,,
,1.89,,,,,,,,,f.PNG,f,61153541b67ed34ecf2557d8,2021-09-08_20h54.36.893,forced_choiceRT,2021.1.2,MacIntel,59.99880002,,,,,,,,9,Slow,g,0,2.2237,5,3,23,0,1,,,,,
,0.11,,,,,,,,,h.PNG,h,61153541b67ed34ecf2557d8,2021-09-08_20h54.36.893,forced_choiceRT,2021.1.2,MacIntel,59.99880002,,,,,,,,9,Ontime,h,1,2.0726,6,0,24,2,1,,,,,
,0.9,,,,,,,,,g.PNG,g,61153541b67ed34ecf2557d8,2021-09-08_20h54.36.893,forced_choiceRT,2021.1.2,MacIntel,59.99880002,,,,,,,,9,Ontime,g,1,2.0234,6,1,25,1,1,,,,,
,0.37,,,,,,,,,h.PNG,h,61153541b67ed34ecf2557d8,2021-09-08_20h54.36.893,forced_choiceRT,2021.1.2,MacIntel,59.99880002,,,,,,,,9,Ontime,h,1,1.9507,6,2,26,2,1,,,,,
,0.39,,,,,,,,,j.PNG,j,61153541b67ed34ecf2557d8,2021-09-08_20h54.36.893,forced_choiceRT,2021.1.2,MacIntel,59.99880002,,,,,,,,9,Ontime,j,1,1.9012,6,3,27,3,1,,,,,
,1.08,,,,,,,,,h.PNG,h,61153541b67ed34ecf2557d8,2021-09-08_20h54.36.893,forced_choiceRT,2021.1.2,MacIntel,59.99880002,,,,,,,,9,Ontime,h,1,1.9899,7,0,28,2,1,,,,,
,0.86,,,,,,,,,g.PNG,g,61153541b67ed34ecf2557d8,2021-09-08_20h54.36.893,forced_choiceRT,2021.1.2,MacIntel,59.99880002,,,,,,,,9,Ontime,g,1,2.0018,7,1,29,1,1,,,,,
,1.55,,,,,,,,,g.PNG,g,61153541b67ed34ecf2557d8,2021-09-08_20h54.36.893,forced_choiceRT,2021.1.2,MacIntel,59.99880002,,,,,,,,9,Ontime,g,1,1.9814,7,2,30,1,1,,,,,
,1.24,,,,,,,,,g.PNG,g,61153541b67ed34ecf2557d8,2021-09-08_20h54.36.893,forced_choiceRT,2021.1.2,MacIntel,59.99880002,,,,,,,,9,Ontime,g,1,2.019,7,3,31,1,1,,,,,
,1.08,,,,,,,,,h.PNG,h,61153541b67ed34ecf2557d8,2021-09-08_20h54.36.893,forced_choiceRT,2021.1.2,MacIntel,59.99880002,,,,,,,,9,Fast,h,1,1.8197,8,0,32,2,1,,,,,
,0.96,,,,,,,,,h.PNG,h,61153541b67ed34ecf2557d8,2021-09-08_20h54.36.893,forced_choiceRT,2021.1.2,MacIntel,59.99880002,,,,,,,,9,Fast,h,1,1.8851,8,1,33,2,1,,,,,
,1.06,,,,,,,,,f.PNG,f,61153541b67ed34ecf2557d8,2021-09-08_20h54.36.893,forced_choiceRT,2021.1.2,MacIntel,59.99880002,,,,,,,,9,Ontime,f,1,2.0233,8,2,34,0,1,,,,,
,1.82,,,,,,,,,h.PNG,h,61153541b67ed34ecf2557d8,2021-09-08_20h54.36.893,forced_choiceRT,2021.1.2,MacIntel,59.99880002,,,,,,,,9,Ontime,h,1,2.039,8,3,35,2,1,,,,,
,1.36,,,,,,,,,f.PNG,f,61153541b67ed34ecf2557d8,2021-09-08_20h54.36.893,forced_choiceRT,2021.1.2,MacIntel,59.99880002,,,,,,,,9,Ontime,f,1,1.9748,9,0,36,0,1,,,,,
,0.14,,,,,,,,,g.PNG,g,61153541b67ed34ecf2557d8,2021-09-08_20h54.36.893,forced_choiceRT,2021.1.2,MacIntel,59.99880002,,,,,,,,9,Fast,g,1,1.8725,9,1,37,1,1,,,,,
,0.79,,,,,,,,,f.PNG,f,61153541b67ed34ecf2557d8,2021-09-08_20h54.36.893,forced_choiceRT,2021.1.2,MacIntel,59.99880002,,,,,,,,9,Fast,f,1,1.8848,9,2,38,0,1,,,,,
,1.27,,,,,,,,,g.PNG,g,61153541b67ed34ecf2557d8,2021-09-08_20h54.36.893,forced_choiceRT,2021.1.2,MacIntel,59.99880002,,,,,,,,9,Ontime,g,1,1.9344,9,3,39,1,1,,,,,
,,,,,,,,,,,,61153541b67ed34ecf2557d8,2021-09-08_20h54.36.893,forced_choiceRT,2021.1.2,MacIntel,59.99880002,,,,,,,,,,,,,,,,,,8,0,8,0,1
,1.29,,,,,,,,,f.PNG,f,61153541b67ed34ecf2557d8,2021-09-08_20h54.36.893,forced_choiceRT,2021.1.2,MacIntel,59.99880002,,,,,,,,10,Ontime,f,1,1.9639,0,0,0,0,1,,,,,
,0.23,,,,,,,,,h.PNG,h,61153541b67ed34ecf2557d8,2021-09-08_20h54.36.893,forced_choiceRT,2021.1.2,MacIntel,59.99880002,,,,,,,,10,Fast,h,1,1.7562,0,1,1,2,1,,,,,
,1.76,,,,,,,,,h.PNG,h,61153541b67ed34ecf2557d8,2021-09-08_20h54.36.893,forced_choiceRT,2021.1.2,MacIntel,59.99880002,,,,,,,,10,Ontime,j,0,1.9675,0,2,2,2,1,,,,,
,1.9,,,,,,,,,h.PNG,h,61153541b67ed34ecf2557d8,2021-09-08_20h54.36.893,forced_choiceRT,2021.1.2,MacIntel,59.99880002,,,,,,,,10,Ontime,g,0,2.0185,0,3,3,2,1,,,,,
,0.93,,,,,,,,,j.PNG,j,61153541b67ed34ecf2557d8,2021-09-08_20h54.36.893,forced_choiceRT,2021.1.2,MacIntel,59.99880002,,,,,,,,10,Fast,j,1,1.8691,1,0,4,3,1,,,,,
,0.89,,,,,,,,,f.PNG,f,61153541b67ed34ecf2557d8,2021-09-08_20h54.36.893,forced_choiceRT,2021.1.2,MacIntel,59.99880002,,,,,,,,10,Ontime,f,1,1.9183,1,1,5,0,1,,,,,
,0.78,,,,,,,,,g.PNG,g,61153541b67ed34ecf2557d8,2021-09-08_20h54.36.893,forced_choiceRT,2021.1.2,MacIntel,59.99880002,,,,,,,,10,Ontime,g,1,2.0193,1,2,6,1,1,,,,,
,1.45,,,,,,,,,j.PNG,j,61153541b67ed34ecf2557d8,2021-09-08_20h54.36.893,forced_choiceRT,2021.1.2,MacIntel,59.99880002,,,,,,,,10,Fast,h,0,1.8496,1,3,7,3,1,,,,,
,0.69,,,,,,,,,f.PNG,f,61153541b67ed34ecf2557d8,2021-09-08_20h54.36.893,forced_choiceRT,2021.1.2,MacIntel,59.99880002,,,,,,,,10,Fast,f,1,1.8843,2,0,8,0,1,,,,,
,1.59,,,,,,,,,g.PNG,g,61153541b67ed34ecf2557d8,2021-09-08_20h54.36.893,forced_choiceRT,2021.1.2,MacIntel,59.99880002,,,,,,,,10,Ontime,f,0,2.0062,2,1,9,1,1,,,,,
,0.69,,,,,,,,,j.PNG,j,61153541b67ed34ecf2557d8,2021-09-08_20h54.36.893,forced_choiceRT,2021.1.2,MacIntel,59.99880002,,,,,,,,10,Fast,j,1,1.8872,2,2,10,3,1,,,,,
,0.23,,,,,,,,,g.PNG,g,61153541b67ed34ecf2557d8,2021-09-08_20h54.36.893,forced_choiceRT,2021.1.2,MacIntel,59.99880002,,,,,,,,10,Fast,g,1,1.6404,2,3,11,1,1,,,,,
,1.48,,,,,,,,,g.PNG,g,61153541b67ed34ecf2557d8,2021-09-08_20h54.36.893,forced_choiceRT,2021.1.2,MacIntel,59.99880002,,,,,,,,10,Ontime,g,1,2.0895,3,0,12,1,1,,,,,
,0.37,,,,,,,,,h.PNG,h,61153541b67ed34ecf2557d8,2021-09-08_20h54.36.893,forced_choiceRT,2021.1.2,MacIntel,59.99880002,,,,,,,,10,Fast,h,1,1.8704,3,1,13,2,1,,,,,
,0.75,,,,,,,,,g.PNG,g,61153541b67ed34ecf2557d8,2021-09-08_20h54.36.893,forced_choiceRT,2021.1.2,MacIntel,59.99880002,,,,,,,,10,Fast,g,1,1.8724,3,2,14,1,1,,,,,
,1.02,,,,,,,,,h.PNG,h,61153541b67ed34ecf2557d8,2021-09-08_20h54.36.893,forced_choiceRT,2021.1.2,MacIntel,59.99880002,,,,,,,,10,Ontime,h,1,2.0007,3,3,15,2,1,,,,,
,1.2,,,,,,,,,j.PNG,j,61153541b67ed34ecf2557d8,2021-09-08_20h54.36.893,forced_choiceRT,2021.1.2,MacIntel,59.99880002,,,,,,,,10,Ontime,j,1,2.0348,4,0,16,3,1,,,,,
,0.45,,,,,,,,,f.PNG,f,61153541b67ed34ecf2557d8,2021-09-08_20h54.36.893,forced_choiceRT,2021.1.2,MacIntel,59.99880002,,,,,,,,10,Ontime,f,1,1.905,4,1,17,0,1,,,,,
,1.44,,,,,,,,,h.PNG,h,61153541b67ed34ecf2557d8,2021-09-08_20h54.36.893,forced_choiceRT,2021.1.2,MacIntel,59.99880002,,,,,,,,10,Slow,h,1,2.1559,4,2,18,2,1,,,,,
,0.55,,,,,,,,,f.PNG,f,61153541b67ed34ecf2557d8,2021-09-08_20h54.36.893,forced_choiceRT,2021.1.2,MacIntel,59.99880002,,,,,,,,10,Fast,f,1,1.7715,4,3,19,0,1,,,,,
,0.28,,,,,,,,,f.PNG,f,61153541b67ed34ecf2557d8,2021-09-08_20h54.36.893,forced_choiceRT,2021.1.2,MacIntel,59.99880002,,,,,,,,10,Ontime,f,1,1.9361,5,0,20,0,1,,,,,
,1.05,,,,,,,,,h.PNG,h,61153541b67ed34ecf2557d8,2021-09-08_20h54.36.893,forced_choiceRT,2021.1.2,MacIntel,59.99880002,,,,,,,,10,Fast,h,1,1.8865,5,1,21,2,1,,,,,
,1.93,,,,,,,,,h.PNG,h,61153541b67ed34ecf2557d8,2021-09-08_20h54.36.893,forced_choiceRT,2021.1.2,MacIntel,59.99880002,,,,,,,,10,Slow,g,0,2.1859,5,2,22,2,1,,,,,
,1.06,,,,,,,,,j.PNG,j,61153541b67ed34ecf2557d8,2021-09-08_20h54.36.893,forced_choiceRT,2021.1.2,MacIntel,59.99880002,,,,,,,,10,Ontime,j,1,1.9838,5,3,23,3,1,,,,,
,1.34,,,,,,,,,j.PNG,j,61153541b67ed34ecf2557d8,2021-09-08_20h54.36.893,forced_choiceRT,2021.1.2,MacIntel,59.99880002,,,,,,,,10,Ontime,j,1,2.0073,6,0,24,3,1,,,,,
,1.47,,,,,,,,,f.PNG,f,61153541b67ed34ecf2557d8,2021-09-08_20h54.36.893,forced_choiceRT,2021.1.2,MacIntel,59.99880002,,,,,,,,10,Fast,j,0,1.8515,6,1,25,0,1,,,,,
,1.15,,,,,,,,,j.PNG,j,61153541b67ed34ecf2557d8,2021-09-08_20h54.36.893,forced_choiceRT,2021.1.2,MacIntel,59.99880002,,,,,,,,10,Ontime,j,1,2.0857,6,2,26,3,1,,,,,
,0.91,,,,,,,,,f.PNG,f,61153541b67ed34ecf2557d8,2021-09-08_20h54.36.893,forced_choiceRT,2021.1.2,MacIntel,59.99880002,,,,,,,,10,Ontime,f,1,1.9672,6,3,27,0,1,,,,,
,0.26,,,,,,,,,j.PNG,j,61153541b67ed34ecf2557d8,2021-09-08_20h54.36.893,forced_choiceRT,2021.1.2,MacIntel,59.99880002,,,,,,,,10,Ontime,j,1,1.9726,7,0,28,3,1,,,,,
,0.53,,,,,,,,,g.PNG,g,61153541b67ed34ecf2557d8,2021-09-08_20h54.36.893,forced_choiceRT,2021.1.2,MacIntel,59.99880002,,,,,,,,10,Ontime,g,1,2.0026,7,1,29,1,1,,,,,
,0.46,,,,,,,,,j.PNG,j,61153541b67ed34ecf2557d8,2021-09-08_20h54.36.893,forced_choiceRT,2021.1.2,MacIntel,59.99880002,,,,,,,,10,Ontime,j,1,1.9177,7,2,30,3,1,,,,,
,0.95,,,,,,,,,g.PNG,g,61153541b67ed34ecf2557d8,2021-09-08_20h54.36.893,forced_choiceRT,2021.1.2,MacIntel,59.99880002,,,,,,,,10,Slow,g,1,2.1159,7,3,31,1,1,,,,,
,0.55,,,,,,,,,g.PNG,g,61153541b67ed34ecf2557d8,2021-09-08_20h54.36.893,forced_choiceRT,2021.1.2,MacIntel,59.99880002,,,,,,,,10,Fast,g,1,1.8729,8,0,32,1,1,,,,,
,1.07,,,,,,,,,g.PNG,g,61153541b67ed34ecf2557d8,2021-09-08_20h54.36.893,forced_choiceRT,2021.1.2,MacIntel,59.99880002,,,,,,,,10,Ontime,g,1,1.9223,8,1,33,1,1,,,,,
,0.25,,,,,,,,,h.PNG,h,61153541b67ed34ecf2557d8,2021-09-08_20h54.36.893,forced_choiceRT,2021.1.2,MacIntel,59.99880002,,,,,,,,10,Fast,h,1,1.8345,8,2,34,2,1,,,,,
,1.1,,,,,,,,,f.PNG,f,61153541b67ed34ecf2557d8,2021-09-08_20h54.36.893,forced_choiceRT,2021.1.2,MacIntel,59.99880002,,,,,,,,10,Ontime,f,1,2.001,8,3,35,0,1,,,,,
,1.79,,,,,,,,,f.PNG,f,61153541b67ed34ecf2557d8,2021-09-08_20h54.36.893,forced_choiceRT,2021.1.2,MacIntel,59.99880002,,,,,,,,10,Slow,g,0,2.1194,9,0,36,0,1,,,,,
,0.5,,,,,,,,,g.PNG,g,61153541b67ed34ecf2557d8,2021-09-08_20h54.36.893,forced_choiceRT,2021.1.2,MacIntel,59.99880002,,,,,,,,10,Fast,g,1,1.6018,9,1,37,1,1,,,,,
,1.35,,,,,,,,,j.PNG,j,61153541b67ed34ecf2557d8,2021-09-08_20h54.36.893,forced_choiceRT,2021.1.2,MacIntel,59.99880002,,,,,,,,10,Fast,g,0,1.8,9,2,38,3,1,,,,,
,1.33,,,,,,,,,h.PNG,h,61153541b67ed34ecf2557d8,2021-09-08_20h54.36.893,forced_choiceRT,2021.1.2,MacIntel,59.99880002,,,,,,,,10,Ontime,h,1,1.9438,9,3,39,2,1,,,,,
,,,,,,,,,,,,61153541b67ed34ecf2557d8,2021-09-08_20h54.36.893,forced_choiceRT,2021.1.2,MacIntel,59.99880002,,,,,,,,,,,,,,,,,,9,0,9,0,1
