IP_Addresss,target_onset,trial_resp_sp.keys,trial_resp_sp.corr,trial_resp_sp.rt,trials_train_loop.thisRepN,trials_train_loop.thisTrialN,trials_train_loop.thisN,trials_train_loop.thisIndex,trials_train_loop.ran,pic,correct_key,participant,date,expName,psychopyVersion,OS,frameRate,trial_resp_timing.keys,trial_resp_timing.rt,trials_train_timing.thisRepN,trials_train_timing.thisTrialN,trials_train_timing.thisN,trials_train_timing.thisIndex,trials_train_timing.ran,block_id,ontime,forcedRT_resp.keys,forcedRT_resp.corr,forcedRT_resp.rt,trials.thisRepN,trials.thisTrialN,trials.thisN,trials.thisIndex,trials.ran,blocks.thisRepN,blocks.thisTrialN,blocks.thisN,blocks.thisIndex,blocks.ran
75.108.82.40,0,j,1,2.512,0,0,0,3,1,j.PNG,j,6116defc42273649ab0d8dc8,2021-09-08_20h06.54.660,forced_choiceRT,2021.1.2,MacIntel,62.5,,,,,,,,,,,,,,,,,,,,,,
,0,g,1,1.329,0,1,1,1,1,g.PNG,g,6116defc42273649ab0d8dc8,2021-09-08_20h06.54.660,forced_choiceRT,2021.1.2,MacIntel,62.5,,,,,,,,,,,,,,,,,,,,,,
,0,j,1,1.49,0,2,2,3,1,j.PNG,j,6116defc42273649ab0d8dc8,2021-09-08_20h06.54.660,forced_choiceRT,2021.1.2,MacIntel,62.5,,,,,,,,,,,,,,,,,,,,,,
,0,h,1,2.498,0,3,3,2,1,h.PNG,h,6116defc42273649ab0d8dc8,2021-09-08_20h06.54.660,forced_choiceRT,2021.1.2,MacIntel,62.5,,,,,,,,,,,,,,,,,,,,,,
,0,f,1,1.114,1,0,4,0,1,f.PNG,f,6116defc42273649ab0d8dc8,2021-09-08_20h06.54.660,forced_choiceRT,2021.1.2,MacIntel,62.5,,,,,,,,,,,,,,,,,,,,,,
,0,h,1,4.123,1,1,5,2,1,h.PNG,h,6116defc42273649ab0d8dc8,2021-09-08_20h06.54.660,forced_choiceRT,2021.1.2,MacIntel,62.5,,,,,,,,,,,,,,,,,,,,,,
,0,h,1,1.814,1,2,6,2,1,h.PNG,h,6116defc42273649ab0d8dc8,2021-09-08_20h06.54.660,forced_choiceRT,2021.1.2,MacIntel,62.5,,,,,,,,,,,,,,,,,,,,,,
,0,h,1,0.789,1,3,7,2,1,h.PNG,h,6116defc42273649ab0d8dc8,2021-09-08_20h06.54.660,forced_choiceRT,2021.1.2,MacIntel,62.5,,,,,,,,,,,,,,,,,,,,,,
,0,j,1,0.934,2,0,8,3,1,j.PNG,j,6116defc42273649ab0d8dc8,2021-09-08_20h06.54.660,forced_choiceRT,2021.1.2,MacIntel,62.5,,,,,,,,,,,,,,,,,,,,,,
,0,j,1,0.853,2,1,9,3,1,j.PNG,j,6116defc42273649ab0d8dc8,2021-09-08_20h06.54.660,forced_choiceRT,2021.1.2,MacIntel,62.5,,,,,,,,,,,,,,,,,,,,,,
,0,g,1,1.591,2,2,10,1,1,g.PNG,g,6116defc42273649ab0d8dc8,2021-09-08_20h06.54.660,forced_choiceRT,2021.1.2,MacIntel,62.5,,,,,,,,,,,,,,,,,,,,,,
,0,g,1,0.734,2,3,11,1,1,g.PNG,g,6116defc42273649ab0d8dc8,2021-09-08_20h06.54.660,forced_choiceRT,2021.1.2,MacIntel,62.5,,,,,,,,,,,,,,,,,,,,,,
,0,f,1,0.736,3,0,12,0,1,f.PNG,f,6116defc42273649ab0d8dc8,2021-09-08_20h06.54.660,forced_choiceRT,2021.1.2,MacIntel,62.5,,,,,,,,,,,,,,,,,,,,,,
,0,g,1,1.401,3,1,13,1,1,g.PNG,g,6116defc42273649ab0d8dc8,2021-09-08_20h06.54.660,forced_choiceRT,2021.1.2,MacIntel,62.5,,,,,,,,,,,,,,,,,,,,,,
,0,j,1,1.115,3,2,14,3,1,j.PNG,j,6116defc42273649ab0d8dc8,2021-09-08_20h06.54.660,forced_choiceRT,2021.1.2,MacIntel,62.5,,,,,,,,,,,,,,,,,,,,,,
,0,h,1,2.155,3,3,15,2,1,h.PNG,h,6116defc42273649ab0d8dc8,2021-09-08_20h06.54.660,forced_choiceRT,2021.1.2,MacIntel,62.5,,,,,,,,,,,,,,,,,,,,,,
,0,j,1,0.9,4,0,16,3,1,j.PNG,j,6116defc42273649ab0d8dc8,2021-09-08_20h06.54.660,forced_choiceRT,2021.1.2,MacIntel,62.5,,,,,,,,,,,,,,,,,,,,,,
,0,f,1,0.815,4,1,17,0,1,f.PNG,f,6116defc42273649ab0d8dc8,2021-09-08_20h06.54.660,forced_choiceRT,2021.1.2,MacIntel,62.5,,,,,,,,,,,,,,,,,,,,,,
,0,j,1,1.067,4,2,18,3,1,j.PNG,j,6116defc42273649ab0d8dc8,2021-09-08_20h06.54.660,forced_choiceRT,2021.1.2,MacIntel,62.5,,,,,,,,,,,,,,,,,,,,,,
,0,f,1,0.937,4,3,19,0,1,f.PNG,f,6116defc42273649ab0d8dc8,2021-09-08_20h06.54.660,forced_choiceRT,2021.1.2,MacIntel,62.5,,,,,,,,,,,,,,,,,,,,,,
,0,h,1,2.289,5,0,20,2,1,h.PNG,h,6116defc42273649ab0d8dc8,2021-09-08_20h06.54.660,forced_choiceRT,2021.1.2,MacIntel,62.5,,,,,,,,,,,,,,,,,,,,,,
,0,h,1,0.801,5,1,21,2,1,h.PNG,h,6116defc42273649ab0d8dc8,2021-09-08_20h06.54.660,forced_choiceRT,2021.1.2,MacIntel,62.5,,,,,,,,,,,,,,,,,,,,,,
,0,h,1,0.579,5,2,22,2,1,h.PNG,h,6116defc42273649ab0d8dc8,2021-09-08_20h06.54.660,forced_choiceRT,2021.1.2,MacIntel,62.5,,,,,,,,,,,,,,,,,,,,,,
,0,h,1,0.501,5,3,23,2,1,h.PNG,h,6116defc42273649ab0d8dc8,2021-09-08_20h06.54.660,forced_choiceRT,2021.1.2,MacIntel,62.5,,,,,,,,,,,,,,,,,,,,,,
,0,j,1,0.849,6,0,24,3,1,j.PNG,j,6116defc42273649ab0d8dc8,2021-09-08_20h06.54.660,forced_choiceRT,2021.1.2,MacIntel,62.5,,,,,,,,,,,,,,,,,,,,,,
,0,g,1,1.79,6,1,25,1,1,g.PNG,g,6116defc42273649ab0d8dc8,2021-09-08_20h06.54.660,forced_choiceRT,2021.1.2,MacIntel,62.5,,,,,,,,,,,,,,,,,,,,,,
,0,j,1,1.034,6,2,26,3,1,j.PNG,j,6116defc42273649ab0d8dc8,2021-09-08_20h06.54.660,forced_choiceRT,2021.1.2,MacIntel,62.5,,,,,,,,,,,,,,,,,,,,,,
,0,g,1,1.335,6,3,27,1,1,g.PNG,g,6116defc42273649ab0d8dc8,2021-09-08_20h06.54.660,forced_choiceRT,2021.1.2,MacIntel,62.5,,,,,,,,,,,,,,,,,,,,,,
,0,f,1,0.95,7,0,28,0,1,f.PNG,f,6116defc42273649ab0d8dc8,2021-09-08_20h06.54.660,forced_choiceRT,2021.1.2,MacIntel,62.5,,,,,,,,,,,,,,,,,,,,,,
,0,j,1,1.015,7,1,29,3,1,j.PNG,j,6116defc42273649ab0d8dc8,2021-09-08_20h06.54.660,forced_choiceRT,2021.1.2,MacIntel,62.5,,,,,,,,,,,,,,,,,,,,,,
,0,g,1,1.539,7,2,30,1,1,g.PNG,g,6116defc42273649ab0d8dc8,2021-09-08_20h06.54.660,forced_choiceRT,2021.1.2,MacIntel,62.5,,,,,,,,,,,,,,,,,,,,,,
,0,h,1,1.081,7,3,31,2,1,h.PNG,h,6116defc42273649ab0d8dc8,2021-09-08_20h06.54.660,forced_choiceRT,2021.1.2,MacIntel,62.5,,,,,,,,,,,,,,,,,,,,,,
,0,h,1,1.401,8,0,32,2,1,h.PNG,h,6116defc42273649ab0d8dc8,2021-09-08_20h06.54.660,forced_choiceRT,2021.1.2,MacIntel,62.5,,,,,,,,,,,,,,,,,,,,,,
,0,h,1,0.603,8,1,33,2,1,h.PNG,h,6116defc42273649ab0d8dc8,2021-09-08_20h06.54.660,forced_choiceRT,2021.1.2,MacIntel,62.5,,,,,,,,,,,,,,,,,,,,,,
,0,f,1,0.976,8,2,34,0,1,f.PNG,f,6116defc42273649ab0d8dc8,2021-09-08_20h06.54.660,forced_choiceRT,2021.1.2,MacIntel,62.5,,,,,,,,,,,,,,,,,,,,,,
,0,j,1,0.738,8,3,35,3,1,j.PNG,j,6116defc42273649ab0d8dc8,2021-09-08_20h06.54.660,forced_choiceRT,2021.1.2,MacIntel,62.5,,,,,,,,,,,,,,,,,,,,,,
,0,f,1,0.956,9,0,36,0,1,f.PNG,f,6116defc42273649ab0d8dc8,2021-09-08_20h06.54.660,forced_choiceRT,2021.1.2,MacIntel,62.5,,,,,,,,,,,,,,,,,,,,,,
,0,f,1,0.648,9,1,37,0,1,f.PNG,f,6116defc42273649ab0d8dc8,2021-09-08_20h06.54.660,forced_choiceRT,2021.1.2,MacIntel,62.5,,,,,,,,,,,,,,,,,,,,,,
,0,h,1,1.756,9,2,38,2,1,h.PNG,h,6116defc42273649ab0d8dc8,2021-09-08_20h06.54.660,forced_choiceRT,2021.1.2,MacIntel,62.5,,,,,,,,,,,,,,,,,,,,,,
,0,g,1,0.985,9,3,39,1,1,g.PNG,g,6116defc42273649ab0d8dc8,2021-09-08_20h06.54.660,forced_choiceRT,2021.1.2,MacIntel,62.5,,,,,,,,,,,,,,,,,,,,,,
,0,f,1,0.814,10,0,40,0,1,f.PNG,f,6116defc42273649ab0d8dc8,2021-09-08_20h06.54.660,forced_choiceRT,2021.1.2,MacIntel,62.5,,,,,,,,,,,,,,,,,,,,,,
,0,j,1,0.836,10,1,41,3,1,j.PNG,j,6116defc42273649ab0d8dc8,2021-09-08_20h06.54.660,forced_choiceRT,2021.1.2,MacIntel,62.5,,,,,,,,,,,,,,,,,,,,,,
,0,f,1,1.37,10,2,42,0,1,f.PNG,f,6116defc42273649ab0d8dc8,2021-09-08_20h06.54.660,forced_choiceRT,2021.1.2,MacIntel,62.5,,,,,,,,,,,,,,,,,,,,,,
,0,f,1,0.948,10,3,43,0,1,f.PNG,f,6116defc42273649ab0d8dc8,2021-09-08_20h06.54.660,forced_choiceRT,2021.1.2,MacIntel,62.5,,,,,,,,,,,,,,,,,,,,,,
,0,h,1,1.002,11,0,44,2,1,h.PNG,h,6116defc42273649ab0d8dc8,2021-09-08_20h06.54.660,forced_choiceRT,2021.1.2,MacIntel,62.5,,,,,,,,,,,,,,,,,,,,,,
,0,g,1,0.924,11,1,45,1,1,g.PNG,g,6116defc42273649ab0d8dc8,2021-09-08_20h06.54.660,forced_choiceRT,2021.1.2,MacIntel,62.5,,,,,,,,,,,,,,,,,,,,,,
,0,f,1,0.849,11,2,46,0,1,f.PNG,f,6116defc42273649ab0d8dc8,2021-09-08_20h06.54.660,forced_choiceRT,2021.1.2,MacIntel,62.5,,,,,,,,,,,,,,,,,,,,,,
,0,f,1,0.721,11,3,47,0,1,f.PNG,f,6116defc42273649ab0d8dc8,2021-09-08_20h06.54.660,forced_choiceRT,2021.1.2,MacIntel,62.5,,,,,,,,,,,,,,,,,,,,,,
,0,f,1,1.948,12,0,48,0,1,f.PNG,f,6116defc42273649ab0d8dc8,2021-09-08_20h06.54.660,forced_choiceRT,2021.1.2,MacIntel,62.5,,,,,,,,,,,,,,,,,,,,,,
,0,g,1,0.921,12,1,49,1,1,g.PNG,g,6116defc42273649ab0d8dc8,2021-09-08_20h06.54.660,forced_choiceRT,2021.1.2,MacIntel,62.5,,,,,,,,,,,,,,,,,,,,,,
,0,h,1,0.702,12,2,50,2,1,h.PNG,h,6116defc42273649ab0d8dc8,2021-09-08_20h06.54.660,forced_choiceRT,2021.1.2,MacIntel,62.5,,,,,,,,,,,,,,,,,,,,,,
,0,j,1,0.735,12,3,51,3,1,j.PNG,j,6116defc42273649ab0d8dc8,2021-09-08_20h06.54.660,forced_choiceRT,2021.1.2,MacIntel,62.5,,,,,,,,,,,,,,,,,,,,,,
,0,f,1,1.016,13,0,52,0,1,f.PNG,f,6116defc42273649ab0d8dc8,2021-09-08_20h06.54.660,forced_choiceRT,2021.1.2,MacIntel,62.5,,,,,,,,,,,,,,,,,,,,,,
,0,g,1,0.89,13,1,53,1,1,g.PNG,g,6116defc42273649ab0d8dc8,2021-09-08_20h06.54.660,forced_choiceRT,2021.1.2,MacIntel,62.5,,,,,,,,,,,,,,,,,,,,,,
,0,g,1,0.801,13,2,54,1,1,g.PNG,g,6116defc42273649ab0d8dc8,2021-09-08_20h06.54.660,forced_choiceRT,2021.1.2,MacIntel,62.5,,,,,,,,,,,,,,,,,,,,,,
,0,j,1,0.748,13,3,55,3,1,j.PNG,j,6116defc42273649ab0d8dc8,2021-09-08_20h06.54.660,forced_choiceRT,2021.1.2,MacIntel,62.5,,,,,,,,,,,,,,,,,,,,,,
,0,g,1,0.802,14,0,56,1,1,g.PNG,g,6116defc42273649ab0d8dc8,2021-09-08_20h06.54.660,forced_choiceRT,2021.1.2,MacIntel,62.5,,,,,,,,,,,,,,,,,,,,,,
,0,g,1,1.223,14,1,57,1,1,g.PNG,g,6116defc42273649ab0d8dc8,2021-09-08_20h06.54.660,forced_choiceRT,2021.1.2,MacIntel,62.5,,,,,,,,,,,,,,,,,,,,,,
,0,g,1,0.589,14,2,58,1,1,g.PNG,g,6116defc42273649ab0d8dc8,2021-09-08_20h06.54.660,forced_choiceRT,2021.1.2,MacIntel,62.5,,,,,,,,,,,,,,,,,,,,,,
,0,j,1,0.982,14,3,59,3,1,j.PNG,j,6116defc42273649ab0d8dc8,2021-09-08_20h06.54.660,forced_choiceRT,2021.1.2,MacIntel,62.5,,,,,,,,,,,,,,,,,,,,,,
,,,,,,,,,,,,6116defc42273649ab0d8dc8,2021-09-08_20h06.54.660,forced_choiceRT,2021.1.2,MacIntel,62.5,h,2.188,0,0,0,0,1,,,,,,,,,,,,,,,
,,,,,,,,,,,,6116defc42273649ab0d8dc8,2021-09-08_20h06.54.660,forced_choiceRT,2021.1.2,MacIntel,62.5,h,1.656,1,0,1,0,1,,,,,,,,,,,,,,,
,,,,,,,,,,,,6116defc42273649ab0d8dc8,2021-09-08_20h06.54.660,forced_choiceRT,2021.1.2,MacIntel,62.5,h,1.521,2,0,2,0,1,,,,,,,,,,,,,,,
,,,,,,,,,,,,6116defc42273649ab0d8dc8,2021-09-08_20h06.54.660,forced_choiceRT,2021.1.2,MacIntel,62.5,h,1.719,3,0,3,0,1,,,,,,,,,,,,,,,
,,,,,,,,,,,,6116defc42273649ab0d8dc8,2021-09-08_20h06.54.660,forced_choiceRT,2021.1.2,MacIntel,62.5,h,1.815,4,0,4,0,1,,,,,,,,,,,,,,,
,,,,,,,,,,,,6116defc42273649ab0d8dc8,2021-09-08_20h06.54.660,forced_choiceRT,2021.1.2,MacIntel,62.5,h,2.047,5,0,5,0,1,,,,,,,,,,,,,,,
,,,,,,,,,,,,6116defc42273649ab0d8dc8,2021-09-08_20h06.54.660,forced_choiceRT,2021.1.2,MacIntel,62.5,h,1.758,6,0,6,0,1,,,,,,,,,,,,,,,
,,,,,,,,,,,,6116defc42273649ab0d8dc8,2021-09-08_20h06.54.660,forced_choiceRT,2021.1.2,MacIntel,62.5,h,2.005,7,0,7,0,1,,,,,,,,,,,,,,,
,,,,,,,,,,,,6116defc42273649ab0d8dc8,2021-09-08_20h06.54.660,forced_choiceRT,2021.1.2,MacIntel,62.5,h,2.069,8,0,8,0,1,,,,,,,,,,,,,,,
,,,,,,,,,,,,6116defc42273649ab0d8dc8,2021-09-08_20h06.54.660,forced_choiceRT,2021.1.2,MacIntel,62.5,j,1.79,9,0,9,0,1,,,,,,,,,,,,,,,
,,,,,,,,,,,,6116defc42273649ab0d8dc8,2021-09-08_20h06.54.660,forced_choiceRT,2021.1.2,MacIntel,62.5,f,2.081,10,0,10,0,1,,,,,,,,,,,,,,,
,,,,,,,,,,,,6116defc42273649ab0d8dc8,2021-09-08_20h06.54.660,forced_choiceRT,2021.1.2,MacIntel,62.5,g,2.09,11,0,11,0,1,,,,,,,,,,,,,,,
,,,,,,,,,,,,6116defc42273649ab0d8dc8,2021-09-08_20h06.54.660,forced_choiceRT,2021.1.2,MacIntel,62.5,j,2.091,12,0,12,0,1,,,,,,,,,,,,,,,
,,,,,,,,,,,,6116defc42273649ab0d8dc8,2021-09-08_20h06.54.660,forced_choiceRT,2021.1.2,MacIntel,62.5,h,2.09,13,0,13,0,1,,,,,,,,,,,,,,,
,,,,,,,,,,,,6116defc42273649ab0d8dc8,2021-09-08_20h06.54.660,forced_choiceRT,2021.1.2,MacIntel,62.5,g,2.104,14,0,14,0,1,,,,,,,,,,,,,,,
,,,,,,,,,,,,6116defc42273649ab0d8dc8,2021-09-08_20h06.54.660,forced_choiceRT,2021.1.2,MacIntel,62.5,f,1.968,15,0,15,0,1,,,,,,,,,,,,,,,
,,,,,,,,,,,,6116defc42273649ab0d8dc8,2021-09-08_20h06.54.660,forced_choiceRT,2021.1.2,MacIntel,62.5,g,1.97,16,0,16,0,1,,,,,,,,,,,,,,,
,,,,,,,,,,,,6116defc42273649ab0d8dc8,2021-09-08_20h06.54.660,forced_choiceRT,2021.1.2,MacIntel,62.5,h,2.058,17,0,17,0,1,,,,,,,,,,,,,,,
,,,,,,,,,,,,6116defc42273649ab0d8dc8,2021-09-08_20h06.54.660,forced_choiceRT,2021.1.2,MacIntel,62.5,j,1.957,18,0,18,0,1,,,,,,,,,,,,,,,
,,,,,,,,,,,,6116defc42273649ab0d8dc8,2021-09-08_20h06.54.660,forced_choiceRT,2021.1.2,MacIntel,62.5,f,1.992,19,0,19,0,1,,,,,,,,,,,,,,,
,1.31,,,,,,,,,g.PNG,g,6116defc42273649ab0d8dc8,2021-09-08_20h06.54.660,forced_choiceRT,2021.1.2,MacIntel,62.5,,,,,,,,1,Fast,j,0,1.672,0,0,0,1,1,,,,,
,1.22,,,,,,,,,j.PNG,j,6116defc42273649ab0d8dc8,2021-09-08_20h06.54.660,forced_choiceRT,2021.1.2,MacIntel,62.5,,,,,,,,1,Fast,j,1,1.891,0,1,1,3,1,,,,,
,1.18,,,,,,,,,f.PNG,f,6116defc42273649ab0d8dc8,2021-09-08_20h06.54.660,forced_choiceRT,2021.1.2,MacIntel,62.5,,,,,,,,1,Slow,f,1,2.202,0,2,2,0,1,,,,,
,1.62,,,,,,,,,h.PNG,h,6116defc42273649ab0d8dc8,2021-09-08_20h06.54.660,forced_choiceRT,2021.1.2,MacIntel,62.5,,,,,,,,1,Slow,h,1,2.367,0,3,3,2,1,,,,,
,0.47,,,,,,,,,f.PNG,f,6116defc42273649ab0d8dc8,2021-09-08_20h06.54.660,forced_choiceRT,2021.1.2,MacIntel,62.5,,,,,,,,1,Slow,f,1,2.157,1,0,4,0,1,,,,,
,1.88,,,,,,,,,g.PNG,g,6116defc42273649ab0d8dc8,2021-09-08_20h06.54.660,forced_choiceRT,2021.1.2,MacIntel,62.5,,,,,,,,1,Slow,j,0,2.307,1,1,5,1,1,,,,,
,1.48,,,,,,,,,g.PNG,g,6116defc42273649ab0d8dc8,2021-09-08_20h06.54.660,forced_choiceRT,2021.1.2,MacIntel,62.5,,,,,,,,1,Slow,g,1,2.168,1,2,6,1,1,,,,,
,1.79,,,,,,,,,f.PNG,f,6116defc42273649ab0d8dc8,2021-09-08_20h06.54.660,forced_choiceRT,2021.1.2,MacIntel,62.5,,,,,,,,1,Slow,f,1,2.355,1,3,7,0,1,,,,,
,0.2,,,,,,,,,h.PNG,h,6116defc42273649ab0d8dc8,2021-09-08_20h06.54.660,forced_choiceRT,2021.1.2,MacIntel,62.5,,,,,,,,1,Fast,h,1,1.791,2,0,8,2,1,,,,,
,0.08,,,,,,,,,f.PNG,f,6116defc42273649ab0d8dc8,2021-09-08_20h06.54.660,forced_choiceRT,2021.1.2,MacIntel,62.5,,,,,,,,1,Ontime,f,1,2.051,2,1,9,0,1,,,,,
,0.13,,,,,,,,,j.PNG,j,6116defc42273649ab0d8dc8,2021-09-08_20h06.54.660,forced_choiceRT,2021.1.2,MacIntel,62.5,,,,,,,,1,Ontime,j,1,1.957,2,2,10,3,1,,,,,
,0.9,,,,,,,,,j.PNG,j,6116defc42273649ab0d8dc8,2021-09-08_20h06.54.660,forced_choiceRT,2021.1.2,MacIntel,62.5,,,,,,,,1,Slow,j,1,2.191,2,3,11,3,1,,,,,
,0.64,,,,,,,,,g.PNG,g,6116defc42273649ab0d8dc8,2021-09-08_20h06.54.660,forced_choiceRT,2021.1.2,MacIntel,62.5,,,,,,,,1,Slow,h,0,2.103,3,0,12,1,1,,,,,
,0.75,,,,,,,,,h.PNG,h,6116defc42273649ab0d8dc8,2021-09-08_20h06.54.660,forced_choiceRT,2021.1.2,MacIntel,62.5,,,,,,,,1,Ontime,h,1,2.004,3,1,13,2,1,,,,,
,0.07,,,,,,,,,f.PNG,f,6116defc42273649ab0d8dc8,2021-09-08_20h06.54.660,forced_choiceRT,2021.1.2,MacIntel,62.5,,,,,,,,1,Ontime,f,1,1.958,3,2,14,0,1,,,,,
,1.16,,,,,,,,,j.PNG,j,6116defc42273649ab0d8dc8,2021-09-08_20h06.54.660,forced_choiceRT,2021.1.2,MacIntel,62.5,,,,,,,,1,Slow,j,1,2.257,3,3,15,3,1,,,,,
,0.91,,,,,,,,,h.PNG,h,6116defc42273649ab0d8dc8,2021-09-08_20h06.54.660,forced_choiceRT,2021.1.2,MacIntel,62.5,,,,,,,,1,Fast,h,1,1.882,4,0,16,2,1,,,,,
,1.01,,,,,,,,,f.PNG,f,6116defc42273649ab0d8dc8,2021-09-08_20h06.54.660,forced_choiceRT,2021.1.2,MacIntel,62.5,,,,,,,,1,Ontime,f,1,2.09,4,1,17,0,1,,,,,
,0.91,,,,,,,,,g.PNG,g,6116defc42273649ab0d8dc8,2021-09-08_20h06.54.660,forced_choiceRT,2021.1.2,MacIntel,62.5,,,,,,,,1,Slow,g,1,2.103,4,2,18,1,1,,,,,
,0.49,,,,,,,,,f.PNG,f,6116defc42273649ab0d8dc8,2021-09-08_20h06.54.660,forced_choiceRT,2021.1.2,MacIntel,62.5,,,,,,,,1,Ontime,f,1,2.003,4,3,19,0,1,,,,,
,1.25,,,,,,,,,f.PNG,f,6116defc42273649ab0d8dc8,2021-09-08_20h06.54.660,forced_choiceRT,2021.1.2,MacIntel,62.5,,,,,,,,1,Slow,f,1,2.144,5,0,20,0,1,,,,,
,0.23,,,,,,,,,g.PNG,g,6116defc42273649ab0d8dc8,2021-09-08_20h06.54.660,forced_choiceRT,2021.1.2,MacIntel,62.5,,,,,,,,1,Fast,g,1,1.749,5,1,21,1,1,,,,,
,0.03,,,,,,,,,j.PNG,j,6116defc42273649ab0d8dc8,2021-09-08_20h06.54.660,forced_choiceRT,2021.1.2,MacIntel,62.5,,,,,,,,1,Ontime,j,1,1.959,5,2,22,3,1,,,,,
,0.08,,,,,,,,,h.PNG,h,6116defc42273649ab0d8dc8,2021-09-08_20h06.54.660,forced_choiceRT,2021.1.2,MacIntel,62.5,,,,,,,,1,Ontime,h,1,2.085,5,3,23,2,1,,,,,
,0.84,,,,,,,,,j.PNG,j,6116defc42273649ab0d8dc8,2021-09-08_20h06.54.660,forced_choiceRT,2021.1.2,MacIntel,62.5,,,,,,,,1,Ontime,j,1,1.97,6,0,24,3,1,,,,,
,0.08,,,,,,,,,h.PNG,h,6116defc42273649ab0d8dc8,2021-09-08_20h06.54.660,forced_choiceRT,2021.1.2,MacIntel,62.5,,,,,,,,1,Slow,h,1,2.201,6,1,25,2,1,,,,,
,1.12,,,,,,,,,h.PNG,h,6116defc42273649ab0d8dc8,2021-09-08_20h06.54.660,forced_choiceRT,2021.1.2,MacIntel,62.5,,,,,,,,1,Slow,h,1,2.235,6,2,26,2,1,,,,,
,1.77,,,,,,,,,j.PNG,j,6116defc42273649ab0d8dc8,2021-09-08_20h06.54.660,forced_choiceRT,2021.1.2,MacIntel,62.5,,,,,,,,1,Slow,j,1,2.124,6,3,27,3,1,,,,,
,0.93,,,,,,,,,h.PNG,h,6116defc42273649ab0d8dc8,2021-09-08_20h06.54.660,forced_choiceRT,2021.1.2,MacIntel,62.5,,,,,,,,1,Fast,h,1,1.885,7,0,28,2,1,,,,,
,1.8,,,,,,,,,g.PNG,g,6116defc42273649ab0d8dc8,2021-09-08_20h06.54.660,forced_choiceRT,2021.1.2,MacIntel,62.5,,,,,,,,1,Slow,f,0,2.289,7,1,29,1,1,,,,,
,1.07,,,,,,,,,f.PNG,f,6116defc42273649ab0d8dc8,2021-09-08_20h06.54.660,forced_choiceRT,2021.1.2,MacIntel,62.5,,,,,,,,1,Ontime,f,1,2.081,7,2,30,0,1,,,,,
,1.03,,,,,,,,,g.PNG,g,6116defc42273649ab0d8dc8,2021-09-08_20h06.54.660,forced_choiceRT,2021.1.2,MacIntel,62.5,,,,,,,,1,Slow,f,0,2.203,7,3,31,1,1,,,,,
,0.86,,,,,,,,,g.PNG,g,6116defc42273649ab0d8dc8,2021-09-08_20h06.54.660,forced_choiceRT,2021.1.2,MacIntel,62.5,,,,,,,,1,Fast,g,1,1.838,8,0,32,1,1,,,,,
,1.89,,,,,,,,,j.PNG,j,6116defc42273649ab0d8dc8,2021-09-08_20h06.54.660,forced_choiceRT,2021.1.2,MacIntel,62.5,,,,,,,,1,Slow,g,0,2.269,8,1,33,3,1,,,,,
,0.38,,,,,,,,,h.PNG,h,6116defc42273649ab0d8dc8,2021-09-08_20h06.54.660,forced_choiceRT,2021.1.2,MacIntel,62.5,,,,,,,,1,Ontime,h,1,2.05,8,2,34,2,1,,,,,
,1.46,,,,,,,,,j.PNG,j,6116defc42273649ab0d8dc8,2021-09-08_20h06.54.660,forced_choiceRT,2021.1.2,MacIntel,62.5,,,,,,,,1,Slow,j,1,2.255,8,3,35,3,1,,,,,
,0.56,,,,,,,,,g.PNG,g,6116defc42273649ab0d8dc8,2021-09-08_20h06.54.660,forced_choiceRT,2021.1.2,MacIntel,62.5,,,,,,,,1,Fast,g,1,1.736,9,0,36,1,1,,,,,
,0.96,,,,,,,,,j.PNG,j,6116defc42273649ab0d8dc8,2021-09-08_20h06.54.660,forced_choiceRT,2021.1.2,MacIntel,62.5,,,,,,,,1,Slow,j,1,2.102,9,1,37,3,1,,,,,
,1.96,,,,,,,,,f.PNG,f,6116defc42273649ab0d8dc8,2021-09-08_20h06.54.660,forced_choiceRT,2021.1.2,MacIntel,62.5,,,,,,,,1,Slow,j,0,7.149,9,2,38,0,1,,,,,
,0.53,,,,,,,,,h.PNG,h,6116defc42273649ab0d8dc8,2021-09-08_20h06.54.660,forced_choiceRT,2021.1.2,MacIntel,62.5,,,,,,,,1,Ontime,f,0,1.967,9,3,39,2,1,,,,,
,,,,,,,,,,,,6116defc42273649ab0d8dc8,2021-09-08_20h06.54.660,forced_choiceRT,2021.1.2,MacIntel,62.5,,,,,,,,,,,,,,,,,,0,0,0,0,1
,0.95,,,,,,,,,f.PNG,f,6116defc42273649ab0d8dc8,2021-09-08_20h06.54.660,forced_choiceRT,2021.1.2,MacIntel,62.5,,,,,,,,2,Fast,j,0,0.011,0,0,0,0,1,,,,,
,1.63,,,,,,,,,h.PNG,h,6116defc42273649ab0d8dc8,2021-09-08_20h06.54.660,forced_choiceRT,2021.1.2,MacIntel,62.5,,,,,,,,2,Slow,h,1,2.255,0,1,1,2,1,,,,,
,0.01,,,,,,,,,h.PNG,h,6116defc42273649ab0d8dc8,2021-09-08_20h06.54.660,forced_choiceRT,2021.1.2,MacIntel,62.5,,,,,,,,2,Fast,h,1,1.737,0,2,2,2,1,,,,,
,0.43,,,,,,,,,f.PNG,f,6116defc42273649ab0d8dc8,2021-09-08_20h06.54.660,forced_choiceRT,2021.1.2,MacIntel,62.5,,,,,,,,2,Ontime,f,1,2.048,0,3,3,0,1,,,,,
,1.29,,,,,,,,,g.PNG,g,6116defc42273649ab0d8dc8,2021-09-08_20h06.54.660,forced_choiceRT,2021.1.2,MacIntel,62.5,,,,,,,,2,Slow,g,1,3.236,1,0,4,1,1,,,,,
,0.04,,,,,,,,,g.PNG,g,6116defc42273649ab0d8dc8,2021-09-08_20h06.54.660,forced_choiceRT,2021.1.2,MacIntel,62.5,,,,,,,,2,Ontime,g,1,1.924,1,1,5,1,1,,,,,
,0.26,,,,,,,,,h.PNG,h,6116defc42273649ab0d8dc8,2021-09-08_20h06.54.660,forced_choiceRT,2021.1.2,MacIntel,62.5,,,,,,,,2,Ontime,h,1,1.981,1,2,6,2,1,,,,,
,1.71,,,,,,,,,g.PNG,g,6116defc42273649ab0d8dc8,2021-09-08_20h06.54.660,forced_choiceRT,2021.1.2,MacIntel,62.5,,,,,,,,2,Slow,g,1,3.252,1,3,7,1,1,,,,,
,1.13,,,,,,,,,g.PNG,g,6116defc42273649ab0d8dc8,2021-09-08_20h06.54.660,forced_choiceRT,2021.1.2,MacIntel,62.5,,,,,,,,2,Slow,g,1,2.115,2,0,8,1,1,,,,,
,1.66,,,,,,,,,j.PNG,j,6116defc42273649ab0d8dc8,2021-09-08_20h06.54.660,forced_choiceRT,2021.1.2,MacIntel,62.5,,,,,,,,2,Slow,j,1,2.22,2,1,9,3,1,,,,,
,0.2,,,,,,,,,j.PNG,j,6116defc42273649ab0d8dc8,2021-09-08_20h06.54.660,forced_choiceRT,2021.1.2,MacIntel,62.5,,,,,,,,2,Fast,j,1,1.783,2,2,10,3,1,,,,,
,1.28,,,,,,,,,h.PNG,h,6116defc42273649ab0d8dc8,2021-09-08_20h06.54.660,forced_choiceRT,2021.1.2,MacIntel,62.5,,,,,,,,2,Slow,h,1,2.389,2,3,11,2,1,,,,,
,0.11,,,,,,,,,j.PNG,j,6116defc42273649ab0d8dc8,2021-09-08_20h06.54.660,forced_choiceRT,2021.1.2,MacIntel,62.5,,,,,,,,2,Ontime,j,1,1.924,3,0,12,3,1,,,,,
,0.58,,,,,,,,,f.PNG,f,6116defc42273649ab0d8dc8,2021-09-08_20h06.54.660,forced_choiceRT,2021.1.2,MacIntel,62.5,,,,,,,,2,Ontime,f,1,1.966,3,1,13,0,1,,,,,
,0.16,,,,,,,,,j.PNG,j,6116defc42273649ab0d8dc8,2021-09-08_20h06.54.660,forced_choiceRT,2021.1.2,MacIntel,62.5,,,,,,,,2,Ontime,j,1,2.002,3,2,14,3,1,,,,,
,1.96,,,,,,,,,g.PNG,g,6116defc42273649ab0d8dc8,2021-09-08_20h06.54.660,forced_choiceRT,2021.1.2,MacIntel,62.5,,,,,,,,2,Slow,h,0,2.336,3,3,15,1,1,,,,,
,0.74,,,,,,,,,h.PNG,h,6116defc42273649ab0d8dc8,2021-09-08_20h06.54.660,forced_choiceRT,2021.1.2,MacIntel,62.5,,,,,,,,2,Fast,h,1,1.889,4,0,16,2,1,,,,,
,1.01,,,,,,,,,f.PNG,f,6116defc42273649ab0d8dc8,2021-09-08_20h06.54.660,forced_choiceRT,2021.1.2,MacIntel,62.5,,,,,,,,2,Ontime,f,1,2.003,4,1,17,0,1,,,,,
,1,,,,,,,,,h.PNG,h,6116defc42273649ab0d8dc8,2021-09-08_20h06.54.660,forced_choiceRT,2021.1.2,MacIntel,62.5,,,,,,,,2,Ontime,h,1,2.071,4,2,18,2,1,,,,,
,1.82,,,,,,,,,j.PNG,j,6116defc42273649ab0d8dc8,2021-09-08_20h06.54.660,forced_choiceRT,2021.1.2,MacIntel,62.5,,,,,,,,2,Slow,j,1,2.356,4,3,19,3,1,,,,,
,0.58,,,,,,,,,f.PNG,f,6116defc42273649ab0d8dc8,2021-09-08_20h06.54.660,forced_choiceRT,2021.1.2,MacIntel,62.5,,,,,,,,2,Ontime,f,1,1.906,5,0,20,0,1,,,,,
,0.09,,,,,,,,,h.PNG,h,6116defc42273649ab0d8dc8,2021-09-08_20h06.54.660,forced_choiceRT,2021.1.2,MacIntel,62.5,,,,,,,,2,Ontime,h,1,1.92,5,1,21,2,1,,,,,
,0.1,,,,,,,,,f.PNG,f,6116defc42273649ab0d8dc8,2021-09-08_20h06.54.660,forced_choiceRT,2021.1.2,MacIntel,62.5,,,,,,,,2,Ontime,f,1,2.004,5,2,22,0,1,,,,,
,1.52,,,,,,,,,j.PNG,j,6116defc42273649ab0d8dc8,2021-09-08_20h06.54.660,forced_choiceRT,2021.1.2,MacIntel,62.5,,,,,,,,2,Slow,j,1,2.27,5,3,23,3,1,,,,,
,0.25,,,,,,,,,j.PNG,j,6116defc42273649ab0d8dc8,2021-09-08_20h06.54.660,forced_choiceRT,2021.1.2,MacIntel,62.5,,,,,,,,2,Ontime,j,1,2.023,6,0,24,3,1,,,,,
,0.18,,,,,,,,,g.PNG,g,6116defc42273649ab0d8dc8,2021-09-08_20h06.54.660,forced_choiceRT,2021.1.2,MacIntel,62.5,,,,,,,,2,Slow,g,1,2.171,6,1,25,1,1,,,,,
,0.21,,,,,,,,,g.PNG,g,6116defc42273649ab0d8dc8,2021-09-08_20h06.54.660,forced_choiceRT,2021.1.2,MacIntel,62.5,,,,,,,,2,Ontime,g,1,1.983,6,2,26,1,1,,,,,
,1.36,,,,,,,,,h.PNG,h,6116defc42273649ab0d8dc8,2021-09-08_20h06.54.660,forced_choiceRT,2021.1.2,MacIntel,62.5,,,,,,,,2,Ontime,h,1,2.091,6,3,27,2,1,,,,,
,1.69,,,,,,,,,j.PNG,j,6116defc42273649ab0d8dc8,2021-09-08_20h06.54.660,forced_choiceRT,2021.1.2,MacIntel,62.5,,,,,,,,2,Slow,j,1,2.237,7,0,28,3,1,,,,,
,0.56,,,,,,,,,g.PNG,g,6116defc42273649ab0d8dc8,2021-09-08_20h06.54.660,forced_choiceRT,2021.1.2,MacIntel,62.5,,,,,,,,2,Ontime,g,1,1.971,7,1,29,1,1,,,,,
,0.56,,,,,,,,,h.PNG,h,6116defc42273649ab0d8dc8,2021-09-08_20h06.54.660,forced_choiceRT,2021.1.2,MacIntel,62.5,,,,,,,,2,Ontime,h,1,1.97,7,2,30,2,1,,,,,
,0.22,,,,,,,,,g.PNG,g,6116defc42273649ab0d8dc8,2021-09-08_20h06.54.660,forced_choiceRT,2021.1.2,MacIntel,62.5,,,,,,,,2,Ontime,g,1,1.988,7,3,31,1,1,,,,,
,1.2,,,,,,,,,f.PNG,f,6116defc42273649ab0d8dc8,2021-09-08_20h06.54.660,forced_choiceRT,2021.1.2,MacIntel,62.5,,,,,,,,2,Fast,f,1,1.787,8,0,32,0,1,,,,,
,0.17,,,,,,,,,g.PNG,g,6116defc42273649ab0d8dc8,2021-09-08_20h06.54.660,forced_choiceRT,2021.1.2,MacIntel,62.5,,,,,,,,2,Fast,g,1,1.851,8,1,33,1,1,,,,,
,0.33,,,,,,,,,h.PNG,h,6116defc42273649ab0d8dc8,2021-09-08_20h06.54.660,forced_choiceRT,2021.1.2,MacIntel,62.5,,,,,,,,2,Ontime,h,1,1.935,8,2,34,2,1,,,,,
,0.82,,,,,,,,,f.PNG,f,6116defc42273649ab0d8dc8,2021-09-08_20h06.54.660,forced_choiceRT,2021.1.2,MacIntel,62.5,,,,,,,,2,Ontime,f,1,1.982,8,3,35,0,1,,,,,
,1.26,,,,,,,,,f.PNG,f,6116defc42273649ab0d8dc8,2021-09-08_20h06.54.660,forced_choiceRT,2021.1.2,MacIntel,62.5,,,,,,,,2,Slow,f,1,2.268,9,0,36,0,1,,,,,
,1.85,,,,,,,,,f.PNG,f,6116defc42273649ab0d8dc8,2021-09-08_20h06.54.660,forced_choiceRT,2021.1.2,MacIntel,62.5,,,,,,,,2,Slow,f,1,2.309,9,1,37,0,1,,,,,
,1.88,,,,,,,,,j.PNG,j,6116defc42273649ab0d8dc8,2021-09-08_20h06.54.660,forced_choiceRT,2021.1.2,MacIntel,62.5,,,,,,,,2,Slow,g,0,2.349,9,2,38,3,1,,,,,
,1.7,,,,,,,,,j.PNG,j,6116defc42273649ab0d8dc8,2021-09-08_20h06.54.660,forced_choiceRT,2021.1.2,MacIntel,62.5,,,,,,,,2,Slow,j,1,2.224,9,3,39,3,1,,,,,
,,,,,,,,,,,,6116defc42273649ab0d8dc8,2021-09-08_20h06.54.660,forced_choiceRT,2021.1.2,MacIntel,62.5,,,,,,,,,,,,,,,,,,1,0,1,0,1
,0.03,,,,,,,,,f.PNG,f,6116defc42273649ab0d8dc8,2021-09-08_20h06.54.660,forced_choiceRT,2021.1.2,MacIntel,62.5,,,,,,,,3,Fast,f,1,0.968,0,0,0,0,1,,,,,
,0.88,,,,,,,,,j.PNG,j,6116defc42273649ab0d8dc8,2021-09-08_20h06.54.660,forced_choiceRT,2021.1.2,MacIntel,62.5,,,,,,,,3,Ontime,j,1,2.055,0,1,1,3,1,,,,,
,0.54,,,,,,,,,f.PNG,f,6116defc42273649ab0d8dc8,2021-09-08_20h06.54.660,forced_choiceRT,2021.1.2,MacIntel,62.5,,,,,,,,3,Fast,f,1,1.891,0,2,2,0,1,,,,,
,0.38,,,,,,,,,f.PNG,f,6116defc42273649ab0d8dc8,2021-09-08_20h06.54.660,forced_choiceRT,2021.1.2,MacIntel,62.5,,,,,,,,3,Ontime,f,1,2.055,0,3,3,0,1,,,,,
,1.48,,,,,,,,,g.PNG,g,6116defc42273649ab0d8dc8,2021-09-08_20h06.54.660,forced_choiceRT,2021.1.2,MacIntel,62.5,,,,,,,,3,Ontime,j,0,2.071,1,0,4,1,1,,,,,
,0.26,,,,,,,,,j.PNG,j,6116defc42273649ab0d8dc8,2021-09-08_20h06.54.660,forced_choiceRT,2021.1.2,MacIntel,62.5,,,,,,,,3,Ontime,j,1,2.069,1,1,5,3,1,,,,,
,0.25,,,,,,,,,f.PNG,f,6116defc42273649ab0d8dc8,2021-09-08_20h06.54.660,forced_choiceRT,2021.1.2,MacIntel,62.5,,,,,,,,3,Ontime,f,1,2.058,1,2,6,0,1,,,,,
,1.89,,,,,,,,,j.PNG,j,6116defc42273649ab0d8dc8,2021-09-08_20h06.54.660,forced_choiceRT,2021.1.2,MacIntel,62.5,,,,,,,,3,Slow,j,1,2.424,1,3,7,3,1,,,,,
,1.43,,,,,,,,,g.PNG,g,6116defc42273649ab0d8dc8,2021-09-08_20h06.54.660,forced_choiceRT,2021.1.2,MacIntel,62.5,,,,,,,,3,Slow,g,1,2.126,2,0,8,1,1,,,,,
,0.9,,,,,,,,,h.PNG,h,6116defc42273649ab0d8dc8,2021-09-08_20h06.54.660,forced_choiceRT,2021.1.2,MacIntel,62.5,,,,,,,,3,Ontime,h,1,2.092,2,1,9,2,1,,,,,
,1.42,,,,,,,,,g.PNG,g,6116defc42273649ab0d8dc8,2021-09-08_20h06.54.660,forced_choiceRT,2021.1.2,MacIntel,62.5,,,,,,,,3,Ontime,h,0,1.948,2,2,10,1,1,,,,,
,0.32,,,,,,,,,f.PNG,f,6116defc42273649ab0d8dc8,2021-09-08_20h06.54.660,forced_choiceRT,2021.1.2,MacIntel,62.5,,,,,,,,3,Fast,f,1,1.781,2,3,11,0,1,,,,,
,0.23,,,,,,,,,h.PNG,h,6116defc42273649ab0d8dc8,2021-09-08_20h06.54.660,forced_choiceRT,2021.1.2,MacIntel,62.5,,,,,,,,3,Ontime,h,1,1.906,3,0,12,2,1,,,,,
,1.56,,,,,,,,,g.PNG,g,6116defc42273649ab0d8dc8,2021-09-08_20h06.54.660,forced_choiceRT,2021.1.2,MacIntel,62.5,,,,,,,,3,Ontime,h,0,2.023,3,1,13,1,1,,,,,
,0.55,,,,,,,,,j.PNG,j,6116defc42273649ab0d8dc8,2021-09-08_20h06.54.660,forced_choiceRT,2021.1.2,MacIntel,62.5,,,,,,,,3,Fast,j,1,1.85,3,2,14,3,1,,,,,
,1.69,,,,,,,,,h.PNG,h,6116defc42273649ab0d8dc8,2021-09-08_20h06.54.660,forced_choiceRT,2021.1.2,MacIntel,62.5,,,,,,,,3,Slow,h,1,2.324,3,3,15,2,1,,,,,
,0.13,,,,,,,,,f.PNG,f,6116defc42273649ab0d8dc8,2021-09-08_20h06.54.660,forced_choiceRT,2021.1.2,MacIntel,62.5,,,,,,,,3,Ontime,f,1,1.904,4,0,16,0,1,,,,,
,0.2,,,,,,,,,j.PNG,j,6116defc42273649ab0d8dc8,2021-09-08_20h06.54.660,forced_choiceRT,2021.1.2,MacIntel,62.5,,,,,,,,3,Ontime,j,1,2.037,4,1,17,3,1,,,,,
,1.6,,,,,,,,,f.PNG,f,6116defc42273649ab0d8dc8,2021-09-08_20h06.54.660,forced_choiceRT,2021.1.2,MacIntel,62.5,,,,,,,,3,Slow,f,1,2.169,4,2,18,0,1,,,,,
,0.71,,,,,,,,,j.PNG,j,6116defc42273649ab0d8dc8,2021-09-08_20h06.54.660,forced_choiceRT,2021.1.2,MacIntel,62.5,,,,,,,,3,Fast,j,1,1.838,4,3,19,3,1,,,,,
,1.42,,,,,,,,,h.PNG,h,6116defc42273649ab0d8dc8,2021-09-08_20h06.54.660,forced_choiceRT,2021.1.2,MacIntel,62.5,,,,,,,,3,Slow,h,1,2.136,5,0,20,2,1,,,,,
,1.37,,,,,,,,,h.PNG,h,6116defc42273649ab0d8dc8,2021-09-08_20h06.54.660,forced_choiceRT,2021.1.2,MacIntel,62.5,,,,,,,,3,Ontime,h,1,2.017,5,1,21,2,1,,,,,
,0.34,,,,,,,,,j.PNG,j,6116defc42273649ab0d8dc8,2021-09-08_20h06.54.660,forced_choiceRT,2021.1.2,MacIntel,62.5,,,,,,,,3,Ontime,j,1,1.99,5,2,22,3,1,,,,,
,1.3,,,,,,,,,h.PNG,h,6116defc42273649ab0d8dc8,2021-09-08_20h06.54.660,forced_choiceRT,2021.1.2,MacIntel,62.5,,,,,,,,3,Ontime,h,1,2.036,5,3,23,2,1,,,,,
,1.5,,,,,,,,,g.PNG,g,6116defc42273649ab0d8dc8,2021-09-08_20h06.54.660,forced_choiceRT,2021.1.2,MacIntel,62.5,,,,,,,,3,Slow,g,1,2.135,6,0,24,1,1,,,,,
,0.44,,,,,,,,,h.PNG,h,6116defc42273649ab0d8dc8,2021-09-08_20h06.54.660,forced_choiceRT,2021.1.2,MacIntel,62.5,,,,,,,,3,Fast,h,1,1.826,6,1,25,2,1,,,,,
,0.37,,,,,,,,,f.PNG,f,6116defc42273649ab0d8dc8,2021-09-08_20h06.54.660,forced_choiceRT,2021.1.2,MacIntel,62.5,,,,,,,,3,Ontime,f,1,2.036,6,2,26,0,1,,,,,
,1.93,,,,,,,,,g.PNG,g,6116defc42273649ab0d8dc8,2021-09-08_20h06.54.660,forced_choiceRT,2021.1.2,MacIntel,62.5,,,,,,,,3,Slow,h,0,2.47,6,3,27,1,1,,,,,
,1.01,,,,,,,,,g.PNG,g,6116defc42273649ab0d8dc8,2021-09-08_20h06.54.660,forced_choiceRT,2021.1.2,MacIntel,62.5,,,,,,,,3,Ontime,g,1,1.935,7,0,28,1,1,,,,,
,1.82,,,,,,,,,h.PNG,h,6116defc42273649ab0d8dc8,2021-09-08_20h06.54.660,forced_choiceRT,2021.1.2,MacIntel,62.5,,,,,,,,3,Slow,g,0,2.321,7,1,29,2,1,,,,,
,0.51,,,,,,,,,g.PNG,g,6116defc42273649ab0d8dc8,2021-09-08_20h06.54.660,forced_choiceRT,2021.1.2,MacIntel,62.5,,,,,,,,3,Fast,g,1,1.817,7,2,30,1,1,,,,,
,0.66,,,,,,,,,g.PNG,g,6116defc42273649ab0d8dc8,2021-09-08_20h06.54.660,forced_choiceRT,2021.1.2,MacIntel,62.5,,,,,,,,3,Ontime,g,1,2.058,7,3,31,1,1,,,,,
,0.27,,,,,,,,,h.PNG,h,6116defc42273649ab0d8dc8,2021-09-08_20h06.54.660,forced_choiceRT,2021.1.2,MacIntel,62.5,,,,,,,,3,Fast,h,1,1.704,8,0,32,2,1,,,,,
,1.82,,,,,,,,,j.PNG,j,6116defc42273649ab0d8dc8,2021-09-08_20h06.54.660,forced_choiceRT,2021.1.2,MacIntel,62.5,,,,,,,,3,Slow,j,1,2.468,8,1,33,3,1,,,,,
,1.75,,,,,,,,,g.PNG,g,6116defc42273649ab0d8dc8,2021-09-08_20h06.54.660,forced_choiceRT,2021.1.2,MacIntel,62.5,,,,,,,,3,Slow,g,1,2.672,8,2,34,1,1,,,,,
,0.05,,,,,,,,,h.PNG,h,6116defc42273649ab0d8dc8,2021-09-08_20h06.54.660,forced_choiceRT,2021.1.2,MacIntel,62.5,,,,,,,,3,Fast,h,1,1.804,8,3,35,2,1,,,,,
,0.7,,,,,,,,,j.PNG,j,6116defc42273649ab0d8dc8,2021-09-08_20h06.54.660,forced_choiceRT,2021.1.2,MacIntel,62.5,,,,,,,,3,Ontime,j,1,1.987,9,0,36,3,1,,,,,
,1.69,,,,,,,,,f.PNG,f,6116defc42273649ab0d8dc8,2021-09-08_20h06.54.660,forced_choiceRT,2021.1.2,MacIntel,62.5,,,,,,,,3,Slow,f,1,2.274,9,1,37,0,1,,,,,
,0.37,,,,,,,,,j.PNG,j,6116defc42273649ab0d8dc8,2021-09-08_20h06.54.660,forced_choiceRT,2021.1.2,MacIntel,62.5,,,,,,,,3,Ontime,j,1,2.001,9,2,38,3,1,,,,,
,1.45,,,,,,,,,f.PNG,f,6116defc42273649ab0d8dc8,2021-09-08_20h06.54.660,forced_choiceRT,2021.1.2,MacIntel,62.5,,,,,,,,3,Ontime,f,1,1.986,9,3,39,0,1,,,,,
,,,,,,,,,,,,6116defc42273649ab0d8dc8,2021-09-08_20h06.54.660,forced_choiceRT,2021.1.2,MacIntel,62.5,,,,,,,,,,,,,,,,,,2,0,2,0,1
,1.6,,,,,,,,,g.PNG,g,6116defc42273649ab0d8dc8,2021-09-08_20h06.54.660,forced_choiceRT,2021.1.2,MacIntel,62.5,,,,,,,,4,Slow,g,1,2.347,0,0,0,1,1,,,,,
,0.4,,,,,,,,,g.PNG,g,6116defc42273649ab0d8dc8,2021-09-08_20h06.54.660,forced_choiceRT,2021.1.2,MacIntel,62.5,,,,,,,,4,Fast,g,1,1.886,0,1,1,1,1,,,,,
,1.5,,,,,,,,,f.PNG,f,6116defc42273649ab0d8dc8,2021-09-08_20h06.54.660,forced_choiceRT,2021.1.2,MacIntel,62.5,,,,,,,,4,Slow,f,1,2.24,0,2,2,0,1,,,,,
,1.85,,,,,,,,,f.PNG,f,6116defc42273649ab0d8dc8,2021-09-08_20h06.54.660,forced_choiceRT,2021.1.2,MacIntel,62.5,,,,,,,,4,Slow,f,1,2.371,0,3,3,0,1,,,,,
,1.62,,,,,,,,,g.PNG,g,6116defc42273649ab0d8dc8,2021-09-08_20h06.54.660,forced_choiceRT,2021.1.2,MacIntel,62.5,,,,,,,,4,Slow,g,1,2.369,1,0,4,1,1,,,,,
,1.49,,,,,,,,,j.PNG,j,6116defc42273649ab0d8dc8,2021-09-08_20h06.54.660,forced_choiceRT,2021.1.2,MacIntel,62.5,,,,,,,,4,Slow,j,1,2.113,1,1,5,3,1,,,,,
,1.66,,,,,,,,,f.PNG,f,6116defc42273649ab0d8dc8,2021-09-08_20h06.54.660,forced_choiceRT,2021.1.2,MacIntel,62.5,,,,,,,,4,Slow,f,1,2.336,1,2,6,0,1,,,,,
,1.78,,,,,,,,,h.PNG,h,6116defc42273649ab0d8dc8,2021-09-08_20h06.54.660,forced_choiceRT,2021.1.2,MacIntel,62.5,,,,,,,,4,Slow,j,0,2.273,1,3,7,2,1,,,,,
,1.96,,,,,,,,,f.PNG,f,6116defc42273649ab0d8dc8,2021-09-08_20h06.54.660,forced_choiceRT,2021.1.2,MacIntel,62.5,,,,,,,,4,Slow,f,1,2.57,2,0,8,0,1,,,,,
,0.28,,,,,,,,,f.PNG,f,6116defc42273649ab0d8dc8,2021-09-08_20h06.54.660,forced_choiceRT,2021.1.2,MacIntel,62.5,,,,,,,,4,Fast,f,1,1.806,2,1,9,0,1,,,,,
,1.44,,,,,,,,,j.PNG,j,6116defc42273649ab0d8dc8,2021-09-08_20h06.54.660,forced_choiceRT,2021.1.2,MacIntel,62.5,,,,,,,,4,Slow,j,1,2.125,2,2,10,3,1,,,,,
,1.96,,,,,,,,,h.PNG,h,6116defc42273649ab0d8dc8,2021-09-08_20h06.54.660,forced_choiceRT,2021.1.2,MacIntel,62.5,,,,,,,,4,Slow,h,1,2.648,2,3,11,2,1,,,,,
,1.24,,,,,,,,,h.PNG,h,6116defc42273649ab0d8dc8,2021-09-08_20h06.54.660,forced_choiceRT,2021.1.2,MacIntel,62.5,,,,,,,,4,Slow,h,1,2.136,3,0,12,2,1,,,,,
,0.39,,,,,,,,,j.PNG,j,6116defc42273649ab0d8dc8,2021-09-08_20h06.54.660,forced_choiceRT,2021.1.2,MacIntel,62.5,,,,,,,,4,Fast,j,1,1.874,3,1,13,3,1,,,,,
,1.67,,,,,,,,,g.PNG,g,6116defc42273649ab0d8dc8,2021-09-08_20h06.54.660,forced_choiceRT,2021.1.2,MacIntel,62.5,,,,,,,,4,Slow,h,0,2.19,3,2,14,1,1,,,,,
,1.88,,,,,,,,,f.PNG,f,6116defc42273649ab0d8dc8,2021-09-08_20h06.54.660,forced_choiceRT,2021.1.2,MacIntel,62.5,,,,,,,,4,Slow,f,1,2.414,3,3,15,0,1,,,,,
,1.98,,,,,,,,,g.PNG,g,6116defc42273649ab0d8dc8,2021-09-08_20h06.54.660,forced_choiceRT,2021.1.2,MacIntel,62.5,,,,,,,,4,Slow,h,0,2.404,4,0,16,1,1,,,,,
,1.71,,,,,,,,,h.PNG,h,6116defc42273649ab0d8dc8,2021-09-08_20h06.54.660,forced_choiceRT,2021.1.2,MacIntel,62.5,,,,,,,,4,Slow,h,1,2.359,4,1,17,2,1,,,,,
,1.73,,,,,,,,,h.PNG,h,6116defc42273649ab0d8dc8,2021-09-08_20h06.54.660,forced_choiceRT,2021.1.2,MacIntel,62.5,,,,,,,,4,Slow,h,1,2.271,4,2,18,2,1,,,,,
,1.97,,,,,,,,,g.PNG,g,6116defc42273649ab0d8dc8,2021-09-08_20h06.54.660,forced_choiceRT,2021.1.2,MacIntel,62.5,,,,,,,,4,Slow,h,0,2.335,4,3,19,1,1,,,,,
,1.06,,,,,,,,,j.PNG,j,6116defc42273649ab0d8dc8,2021-09-08_20h06.54.660,forced_choiceRT,2021.1.2,MacIntel,62.5,,,,,,,,4,Slow,j,1,2.123,5,0,20,3,1,,,,,
,1.22,,,,,,,,,h.PNG,h,6116defc42273649ab0d8dc8,2021-09-08_20h06.54.660,forced_choiceRT,2021.1.2,MacIntel,62.5,,,,,,,,4,Fast,h,1,1.823,5,1,21,2,1,,,,,
,0.45,,,,,,,,,f.PNG,f,6116defc42273649ab0d8dc8,2021-09-08_20h06.54.660,forced_choiceRT,2021.1.2,MacIntel,62.5,,,,,,,,4,Ontime,f,1,2.051,5,2,22,0,1,,,,,
,0.82,,,,,,,,,g.PNG,g,6116defc42273649ab0d8dc8,2021-09-08_20h06.54.660,forced_choiceRT,2021.1.2,MacIntel,62.5,,,,,,,,4,Ontime,g,1,1.906,5,3,23,1,1,,,,,
,0.47,,,,,,,,,g.PNG,g,6116defc42273649ab0d8dc8,2021-09-08_20h06.54.660,forced_choiceRT,2021.1.2,MacIntel,62.5,,,,,,,,4,Ontime,g,1,1.916,6,0,24,1,1,,,,,
,0.56,,,,,,,,,h.PNG,h,6116defc42273649ab0d8dc8,2021-09-08_20h06.54.660,forced_choiceRT,2021.1.2,MacIntel,62.5,,,,,,,,4,Ontime,h,1,2.022,6,1,25,2,1,,,,,
,1.15,,,,,,,,,h.PNG,h,6116defc42273649ab0d8dc8,2021-09-08_20h06.54.660,forced_choiceRT,2021.1.2,MacIntel,62.5,,,,,,,,4,Ontime,h,1,2.091,6,2,26,2,1,,,,,
,1.95,,,,,,,,,j.PNG,j,6116defc42273649ab0d8dc8,2021-09-08_20h06.54.660,forced_choiceRT,2021.1.2,MacIntel,62.5,,,,,,,,4,Slow,h,0,2.522,6,3,27,3,1,,,,,
,1.28,,,,,,,,,j.PNG,j,6116defc42273649ab0d8dc8,2021-09-08_20h06.54.660,forced_choiceRT,2021.1.2,MacIntel,62.5,,,,,,,,4,Fast,j,1,1.836,7,0,28,3,1,,,,,
,1.72,,,,,,,,,h.PNG,h,6116defc42273649ab0d8dc8,2021-09-08_20h06.54.660,forced_choiceRT,2021.1.2,MacIntel,62.5,,,,,,,,4,Slow,h,1,2.416,7,1,29,2,1,,,,,
,1.55,,,,,,,,,f.PNG,f,6116defc42273649ab0d8dc8,2021-09-08_20h06.54.660,forced_choiceRT,2021.1.2,MacIntel,62.5,,,,,,,,4,Slow,f,1,2.202,7,2,30,0,1,,,,,
,1.32,,,,,,,,,j.PNG,j,6116defc42273649ab0d8dc8,2021-09-08_20h06.54.660,forced_choiceRT,2021.1.2,MacIntel,62.5,,,,,,,,4,Ontime,j,1,1.95,7,3,31,3,1,,,,,
,1.5,,,,,,,,,j.PNG,j,6116defc42273649ab0d8dc8,2021-09-08_20h06.54.660,forced_choiceRT,2021.1.2,MacIntel,62.5,,,,,,,,4,Ontime,j,1,2.036,8,0,32,3,1,,,,,
,0.74,,,,,,,,,g.PNG,g,6116defc42273649ab0d8dc8,2021-09-08_20h06.54.660,forced_choiceRT,2021.1.2,MacIntel,62.5,,,,,,,,4,Fast,g,1,1.854,8,1,33,1,1,,,,,
,0.15,,,,,,,,,h.PNG,h,6116defc42273649ab0d8dc8,2021-09-08_20h06.54.660,forced_choiceRT,2021.1.2,MacIntel,62.5,,,,,,,,4,Ontime,h,1,1.973,8,2,34,2,1,,,,,
,1.84,,,,,,,,,f.PNG,f,6116defc42273649ab0d8dc8,2021-09-08_20h06.54.660,forced_choiceRT,2021.1.2,MacIntel,62.5,,,,,,,,4,Slow,f,1,2.422,8,3,35,0,1,,,,,
,0.69,,,,,,,,,j.PNG,j,6116defc42273649ab0d8dc8,2021-09-08_20h06.54.660,forced_choiceRT,2021.1.2,MacIntel,62.5,,,,,,,,4,Ontime,j,1,1.967,9,0,36,3,1,,,,,
,1.12,,,,,,,,,f.PNG,f,6116defc42273649ab0d8dc8,2021-09-08_20h06.54.660,forced_choiceRT,2021.1.2,MacIntel,62.5,,,,,,,,4,Ontime,f,1,2.036,9,1,37,0,1,,,,,
,0.17,,,,,,,,,j.PNG,j,6116defc42273649ab0d8dc8,2021-09-08_20h06.54.660,forced_choiceRT,2021.1.2,MacIntel,62.5,,,,,,,,4,Ontime,j,1,2.005,9,2,38,3,1,,,,,
,1.24,,,,,,,,,g.PNG,g,6116defc42273649ab0d8dc8,2021-09-08_20h06.54.660,forced_choiceRT,2021.1.2,MacIntel,62.5,,,,,,,,4,Slow,g,1,2.256,9,3,39,1,1,,,,,
,,,,,,,,,,,,6116defc42273649ab0d8dc8,2021-09-08_20h06.54.660,forced_choiceRT,2021.1.2,MacIntel,62.5,,,,,,,,,,,,,,,,,,3,0,3,0,1
,1.85,,,,,,,,,g.PNG,g,6116defc42273649ab0d8dc8,2021-09-08_20h06.54.660,forced_choiceRT,2021.1.2,MacIntel,62.5,,,,,,,,5,Slow,g,1,2.394,0,0,0,1,1,,,,,
,0.73,,,,,,,,,g.PNG,g,6116defc42273649ab0d8dc8,2021-09-08_20h06.54.660,forced_choiceRT,2021.1.2,MacIntel,62.5,,,,,,,,5,Ontime,g,1,1.989,0,1,1,1,1,,,,,
,0.73,,,,,,,,,f.PNG,f,6116defc42273649ab0d8dc8,2021-09-08_20h06.54.660,forced_choiceRT,2021.1.2,MacIntel,62.5,,,,,,,,5,Ontime,f,1,1.92,0,2,2,0,1,,,,,
,0.39,,,,,,,,,g.PNG,g,6116defc42273649ab0d8dc8,2021-09-08_20h06.54.660,forced_choiceRT,2021.1.2,MacIntel,62.5,,,,,,,,5,Ontime,g,1,2.023,0,3,3,1,1,,,,,
,1.38,,,,,,,,,j.PNG,j,6116defc42273649ab0d8dc8,2021-09-08_20h06.54.660,forced_choiceRT,2021.1.2,MacIntel,62.5,,,,,,,,5,Slow,j,1,2.323,1,0,4,3,1,,,,,
,1.21,,,,,,,,,h.PNG,h,6116defc42273649ab0d8dc8,2021-09-08_20h06.54.660,forced_choiceRT,2021.1.2,MacIntel,62.5,,,,,,,,5,Slow,h,1,2.202,1,1,5,2,1,,,,,
,0.87,,,,,,,,,h.PNG,h,6116defc42273649ab0d8dc8,2021-09-08_20h06.54.660,forced_choiceRT,2021.1.2,MacIntel,62.5,,,,,,,,5,Fast,h,1,1.857,1,2,6,2,1,,,,,
,1.02,,,,,,,,,j.PNG,j,6116defc42273649ab0d8dc8,2021-09-08_20h06.54.660,forced_choiceRT,2021.1.2,MacIntel,62.5,,,,,,,,5,Slow,j,1,2.135,1,3,7,3,1,,,,,
,0.06,,,,,,,,,g.PNG,g,6116defc42273649ab0d8dc8,2021-09-08_20h06.54.660,forced_choiceRT,2021.1.2,MacIntel,62.5,,,,,,,,5,Ontime,g,1,1.969,2,0,8,1,1,,,,,
,0.85,,,,,,,,,f.PNG,f,6116defc42273649ab0d8dc8,2021-09-08_20h06.54.660,forced_choiceRT,2021.1.2,MacIntel,62.5,,,,,,,,5,Ontime,f,1,2.003,2,1,9,0,1,,,,,
,1.4,,,,,,,,,h.PNG,h,6116defc42273649ab0d8dc8,2021-09-08_20h06.54.660,forced_choiceRT,2021.1.2,MacIntel,62.5,,,,,,,,5,Slow,h,1,2.137,2,2,10,2,1,,,,,
,0.33,,,,,,,,,h.PNG,h,6116defc42273649ab0d8dc8,2021-09-08_20h06.54.660,forced_choiceRT,2021.1.2,MacIntel,62.5,,,,,,,,5,Ontime,h,1,1.938,2,3,11,2,1,,,,,
,0.57,,,,,,,,,j.PNG,j,6116defc42273649ab0d8dc8,2021-09-08_20h06.54.660,forced_choiceRT,2021.1.2,MacIntel,62.5,,,,,,,,5,Ontime,j,1,2.015,3,0,12,3,1,,,,,
,0.46,,,,,,,,,g.PNG,g,6116defc42273649ab0d8dc8,2021-09-08_20h06.54.660,forced_choiceRT,2021.1.2,MacIntel,62.5,,,,,,,,5,Slow,g,1,2.102,3,1,13,1,1,,,,,
,1.01,,,,,,,,,h.PNG,h,6116defc42273649ab0d8dc8,2021-09-08_20h06.54.660,forced_choiceRT,2021.1.2,MacIntel,62.5,,,,,,,,5,Ontime,h,1,1.901,3,2,14,2,1,,,,,
,1.34,,,,,,,,,j.PNG,j,6116defc42273649ab0d8dc8,2021-09-08_20h06.54.660,forced_choiceRT,2021.1.2,MacIntel,62.5,,,,,,,,5,Slow,j,1,2.289,3,3,15,3,1,,,,,
,1.49,,,,,,,,,f.PNG,f,6116defc42273649ab0d8dc8,2021-09-08_20h06.54.660,forced_choiceRT,2021.1.2,MacIntel,62.5,,,,,,,,5,Slow,f,1,2.115,4,0,16,0,1,,,,,
,1.33,,,,,,,,,h.PNG,h,6116defc42273649ab0d8dc8,2021-09-08_20h06.54.660,forced_choiceRT,2021.1.2,MacIntel,62.5,,,,,,,,5,Ontime,h,1,1.918,4,1,17,2,1,,,,,
,0.21,,,,,,,,,h.PNG,h,6116defc42273649ab0d8dc8,2021-09-08_20h06.54.660,forced_choiceRT,2021.1.2,MacIntel,62.5,,,,,,,,5,Ontime,h,1,2.022,4,2,18,2,1,,,,,
,1.22,,,,,,,,,j.PNG,j,6116defc42273649ab0d8dc8,2021-09-08_20h06.54.660,forced_choiceRT,2021.1.2,MacIntel,62.5,,,,,,,,5,Ontime,j,1,1.989,4,3,19,3,1,,,,,
,0.96,,,,,,,,,g.PNG,g,6116defc42273649ab0d8dc8,2021-09-08_20h06.54.660,forced_choiceRT,2021.1.2,MacIntel,62.5,,,,,,,,5,Ontime,g,1,2.037,5,0,20,1,1,,,,,
,1.4,,,,,,,,,h.PNG,h,6116defc42273649ab0d8dc8,2021-09-08_20h06.54.660,forced_choiceRT,2021.1.2,MacIntel,62.5,,,,,,,,5,Ontime,h,1,2.036,5,1,21,2,1,,,,,
,1.47,,,,,,,,,j.PNG,j,6116defc42273649ab0d8dc8,2021-09-08_20h06.54.660,forced_choiceRT,2021.1.2,MacIntel,62.5,,,,,,,,5,Slow,j,1,2.156,5,2,22,3,1,,,,,
,1.43,,,,,,,,,h.PNG,h,6116defc42273649ab0d8dc8,2021-09-08_20h06.54.660,forced_choiceRT,2021.1.2,MacIntel,62.5,,,,,,,,5,Slow,h,1,2.167,5,3,23,2,1,,,,,
,0.52,,,,,,,,,f.PNG,f,6116defc42273649ab0d8dc8,2021-09-08_20h06.54.660,forced_choiceRT,2021.1.2,MacIntel,62.5,,,,,,,,5,Fast,f,1,1.824,6,0,24,0,1,,,,,
,1.65,,,,,,,,,g.PNG,g,6116defc42273649ab0d8dc8,2021-09-08_20h06.54.660,forced_choiceRT,2021.1.2,MacIntel,62.5,,,,,,,,5,Slow,h,0,2.336,6,1,25,1,1,,,,,
,1.68,,,,,,,,,f.PNG,f,6116defc42273649ab0d8dc8,2021-09-08_20h06.54.660,forced_choiceRT,2021.1.2,MacIntel,62.5,,,,,,,,5,Slow,f,1,2.202,6,2,26,0,1,,,,,
,0.85,,,,,,,,,g.PNG,g,6116defc42273649ab0d8dc8,2021-09-08_20h06.54.660,forced_choiceRT,2021.1.2,MacIntel,62.5,,,,,,,,5,Ontime,g,1,1.989,6,3,27,1,1,,,,,
,1.99,,,,,,,,,j.PNG,j,6116defc42273649ab0d8dc8,2021-09-08_20h06.54.660,forced_choiceRT,2021.1.2,MacIntel,62.5,,,,,,,,5,Slow,h,0,2.502,7,0,28,3,1,,,,,
,0.56,,,,,,,,,g.PNG,g,6116defc42273649ab0d8dc8,2021-09-08_20h06.54.660,forced_choiceRT,2021.1.2,MacIntel,62.5,,,,,,,,5,Ontime,g,1,1.951,7,1,29,1,1,,,,,
,1.54,,,,,,,,,f.PNG,f,6116defc42273649ab0d8dc8,2021-09-08_20h06.54.660,forced_choiceRT,2021.1.2,MacIntel,62.5,,,,,,,,5,Slow,f,1,2.122,7,2,30,0,1,,,,,
,1.69,,,,,,,,,g.PNG,g,6116defc42273649ab0d8dc8,2021-09-08_20h06.54.660,forced_choiceRT,2021.1.2,MacIntel,62.5,,,,,,,,5,Slow,g,1,2.269,7,3,31,1,1,,,,,
,0.2,,,,,,,,,f.PNG,f,6116defc42273649ab0d8dc8,2021-09-08_20h06.54.660,forced_choiceRT,2021.1.2,MacIntel,62.5,,,,,,,,5,Fast,f,1,1.736,8,0,32,0,1,,,,,
,0.93,,,,,,,,,h.PNG,h,6116defc42273649ab0d8dc8,2021-09-08_20h06.54.660,forced_choiceRT,2021.1.2,MacIntel,62.5,,,,,,,,5,Slow,h,1,2.201,8,1,33,2,1,,,,,
,1.62,,,,,,,,,j.PNG,j,6116defc42273649ab0d8dc8,2021-09-08_20h06.54.660,forced_choiceRT,2021.1.2,MacIntel,62.5,,,,,,,,5,Ontime,g,0,2.071,8,2,34,3,1,,,,,
,0.03,,,,,,,,,j.PNG,j,6116defc42273649ab0d8dc8,2021-09-08_20h06.54.660,forced_choiceRT,2021.1.2,MacIntel,62.5,,,,,,,,5,Fast,j,1,1.784,8,3,35,3,1,,,,,
,0.74,,,,,,,,,f.PNG,f,6116defc42273649ab0d8dc8,2021-09-08_20h06.54.660,forced_choiceRT,2021.1.2,MacIntel,62.5,,,,,,,,5,Ontime,f,1,1.917,9,0,36,0,1,,,,,
,0.25,,,,,,,,,f.PNG,f,6116defc42273649ab0d8dc8,2021-09-08_20h06.54.660,forced_choiceRT,2021.1.2,MacIntel,62.5,,,,,,,,5,Slow,f,1,2.136,9,1,37,0,1,,,,,
,0.57,,,,,,,,,f.PNG,f,6116defc42273649ab0d8dc8,2021-09-08_20h06.54.660,forced_choiceRT,2021.1.2,MacIntel,62.5,,,,,,,,5,Slow,j,0,2.401,9,2,38,0,1,,,,,
,1.7,,,,,,,,,j.PNG,j,6116defc42273649ab0d8dc8,2021-09-08_20h06.54.660,forced_choiceRT,2021.1.2,MacIntel,62.5,,,,,,,,5,Slow,j,1,2.242,9,3,39,3,1,,,,,
,,,,,,,,,,,,6116defc42273649ab0d8dc8,2021-09-08_20h06.54.660,forced_choiceRT,2021.1.2,MacIntel,62.5,,,,,,,,,,,,,,,,,,4,0,4,0,1
,1.47,,,,,,,,,h.PNG,h,6116defc42273649ab0d8dc8,2021-09-08_20h06.54.660,forced_choiceRT,2021.1.2,MacIntel,62.5,,,,,,,,6,Slow,h,1,3.801,0,0,0,2,1,,,,,
,0.33,,,,,,,,,f.PNG,f,6116defc42273649ab0d8dc8,2021-09-08_20h06.54.660,forced_choiceRT,2021.1.2,MacIntel,62.5,,,,,,,,6,Ontime,f,1,1.903,0,1,1,0,1,,,,,
,0.8,,,,,,,,,f.PNG,f,6116defc42273649ab0d8dc8,2021-09-08_20h06.54.660,forced_choiceRT,2021.1.2,MacIntel,62.5,,,,,,,,6,Ontime,f,1,2.089,0,2,2,0,1,,,,,
,0.87,,,,,,,,,f.PNG,f,6116defc42273649ab0d8dc8,2021-09-08_20h06.54.660,forced_choiceRT,2021.1.2,MacIntel,62.5,,,,,,,,6,Slow,f,1,2.137,0,3,3,0,1,,,,,
,0.49,,,,,,,,,h.PNG,h,6116defc42273649ab0d8dc8,2021-09-08_20h06.54.660,forced_choiceRT,2021.1.2,MacIntel,62.5,,,,,,,,6,Slow,h,1,2.257,1,0,4,2,1,,,,,
,0.11,,,,,,,,,f.PNG,f,6116defc42273649ab0d8dc8,2021-09-08_20h06.54.660,forced_choiceRT,2021.1.2,MacIntel,62.5,,,,,,,,6,Ontime,f,1,2.086,1,1,5,0,1,,,,,
,0.17,,,,,,,,,h.PNG,h,6116defc42273649ab0d8dc8,2021-09-08_20h06.54.660,forced_choiceRT,2021.1.2,MacIntel,62.5,,,,,,,,6,Ontime,h,1,1.956,1,2,6,2,1,,,,,
,1.71,,,,,,,,,h.PNG,h,6116defc42273649ab0d8dc8,2021-09-08_20h06.54.660,forced_choiceRT,2021.1.2,MacIntel,62.5,,,,,,,,6,Slow,h,1,2.222,1,3,7,2,1,,,,,
,1.02,,,,,,,,,h.PNG,h,6116defc42273649ab0d8dc8,2021-09-08_20h06.54.660,forced_choiceRT,2021.1.2,MacIntel,62.5,,,,,,,,6,Ontime,h,1,1.918,2,0,8,2,1,,,,,
,0.12,,,,,,,,,g.PNG,g,6116defc42273649ab0d8dc8,2021-09-08_20h06.54.660,forced_choiceRT,2021.1.2,MacIntel,62.5,,,,,,,,6,Ontime,g,1,1.942,2,1,9,1,1,,,,,
,0.54,,,,,,,,,j.PNG,j,6116defc42273649ab0d8dc8,2021-09-08_20h06.54.660,forced_choiceRT,2021.1.2,MacIntel,62.5,,,,,,,,6,Fast,j,1,1.836,2,2,10,3,1,,,,,
,0.96,,,,,,,,,g.PNG,g,6116defc42273649ab0d8dc8,2021-09-08_20h06.54.660,forced_choiceRT,2021.1.2,MacIntel,62.5,,,,,,,,6,Slow,g,1,2.189,2,3,11,1,1,,,,,
,0.97,,,,,,,,,h.PNG,h,6116defc42273649ab0d8dc8,2021-09-08_20h06.54.660,forced_choiceRT,2021.1.2,MacIntel,62.5,,,,,,,,6,Ontime,h,1,2.087,3,0,12,2,1,,,,,
,0.58,,,,,,,,,j.PNG,j,6116defc42273649ab0d8dc8,2021-09-08_20h06.54.660,forced_choiceRT,2021.1.2,MacIntel,62.5,,,,,,,,6,Slow,j,1,2.122,3,1,13,3,1,,,,,
,1.23,,,,,,,,,j.PNG,j,6116defc42273649ab0d8dc8,2021-09-08_20h06.54.660,forced_choiceRT,2021.1.2,MacIntel,62.5,,,,,,,,6,Ontime,j,1,2.09,3,2,14,3,1,,,,,
,0.54,,,,,,,,,h.PNG,h,6116defc42273649ab0d8dc8,2021-09-08_20h06.54.660,forced_choiceRT,2021.1.2,MacIntel,62.5,,,,,,,,6,Fast,h,1,1.849,3,3,15,2,1,,,,,
,0.24,,,,,,,,,f.PNG,f,6116defc42273649ab0d8dc8,2021-09-08_20h06.54.660,forced_choiceRT,2021.1.2,MacIntel,62.5,,,,,,,,6,Slow,f,1,2.108,4,0,16,0,1,,,,,
,0.9,,,,,,,,,h.PNG,h,6116defc42273649ab0d8dc8,2021-09-08_20h06.54.660,forced_choiceRT,2021.1.2,MacIntel,62.5,,,,,,,,6,Fast,h,1,1.837,4,1,17,2,1,,,,,
,1.03,,,,,,,,,j.PNG,j,6116defc42273649ab0d8dc8,2021-09-08_20h06.54.660,forced_choiceRT,2021.1.2,MacIntel,62.5,,,,,,,,6,Ontime,j,1,1.934,4,2,18,3,1,,,,,
,0.95,,,,,,,,,f.PNG,f,6116defc42273649ab0d8dc8,2021-09-08_20h06.54.660,forced_choiceRT,2021.1.2,MacIntel,62.5,,,,,,,,6,Ontime,f,1,1.969,4,3,19,0,1,,,,,
,0.41,,,,,,,,,g.PNG,g,6116defc42273649ab0d8dc8,2021-09-08_20h06.54.660,forced_choiceRT,2021.1.2,MacIntel,62.5,,,,,,,,6,Fast,g,1,1.858,5,0,20,1,1,,,,,
,1.17,,,,,,,,,f.PNG,f,6116defc42273649ab0d8dc8,2021-09-08_20h06.54.660,forced_choiceRT,2021.1.2,MacIntel,62.5,,,,,,,,6,Ontime,f,1,1.98,5,1,21,0,1,,,,,
,0.28,,,,,,,,,h.PNG,h,6116defc42273649ab0d8dc8,2021-09-08_20h06.54.660,forced_choiceRT,2021.1.2,MacIntel,62.5,,,,,,,,6,Ontime,h,1,1.955,5,2,22,2,1,,,,,
,0.09,,,,,,,,,f.PNG,f,6116defc42273649ab0d8dc8,2021-09-08_20h06.54.660,forced_choiceRT,2021.1.2,MacIntel,62.5,,,,,,,,6,Ontime,f,1,1.936,5,3,23,0,1,,,,,
,0.85,,,,,,,,,j.PNG,j,6116defc42273649ab0d8dc8,2021-09-08_20h06.54.660,forced_choiceRT,2021.1.2,MacIntel,62.5,,,,,,,,6,Ontime,j,1,1.956,6,0,24,3,1,,,,,
,0.38,,,,,,,,,g.PNG,g,6116defc42273649ab0d8dc8,2021-09-08_20h06.54.660,forced_choiceRT,2021.1.2,MacIntel,62.5,,,,,,,,6,Ontime,g,1,2.003,6,1,25,1,1,,,,,
,0.07,,,,,,,,,j.PNG,j,6116defc42273649ab0d8dc8,2021-09-08_20h06.54.660,forced_choiceRT,2021.1.2,MacIntel,62.5,,,,,,,,6,Fast,j,1,1.856,6,2,26,3,1,,,,,
,0.97,,,,,,,,,g.PNG,g,6116defc42273649ab0d8dc8,2021-09-08_20h06.54.660,forced_choiceRT,2021.1.2,MacIntel,62.5,,,,,,,,6,Ontime,g,1,2.081,6,3,27,1,1,,,,,
,1.58,,,,,,,,,j.PNG,j,6116defc42273649ab0d8dc8,2021-09-08_20h06.54.660,forced_choiceRT,2021.1.2,MacIntel,62.5,,,,,,,,6,Slow,j,1,2.124,7,0,28,3,1,,,,,
,0.32,,,,,,,,,f.PNG,f,6116defc42273649ab0d8dc8,2021-09-08_20h06.54.660,forced_choiceRT,2021.1.2,MacIntel,62.5,,,,,,,,6,Fast,f,1,1.838,7,1,29,0,1,,,,,
,1.84,,,,,,,,,g.PNG,g,6116defc42273649ab0d8dc8,2021-09-08_20h06.54.660,forced_choiceRT,2021.1.2,MacIntel,62.5,,,,,,,,6,Slow,j,0,2.289,7,2,30,1,1,,,,,
,1.55,,,,,,,,,g.PNG,g,6116defc42273649ab0d8dc8,2021-09-08_20h06.54.660,forced_choiceRT,2021.1.2,MacIntel,62.5,,,,,,,,6,Ontime,g,1,2.017,7,3,31,1,1,,,,,
,1.01,,,,,,,,,j.PNG,j,6116defc42273649ab0d8dc8,2021-09-08_20h06.54.660,forced_choiceRT,2021.1.2,MacIntel,62.5,,,,,,,,6,Fast,j,1,1.805,8,0,32,3,1,,,,,
,0.69,,,,,,,,,f.PNG,f,6116defc42273649ab0d8dc8,2021-09-08_20h06.54.660,forced_choiceRT,2021.1.2,MacIntel,62.5,,,,,,,,6,Slow,f,1,2.157,8,1,33,0,1,,,,,
,1.89,,,,,,,,,j.PNG,j,6116defc42273649ab0d8dc8,2021-09-08_20h06.54.660,forced_choiceRT,2021.1.2,MacIntel,62.5,,,,,,,,6,Slow,j,1,2.545,8,2,34,3,1,,,,,
,1.77,,,,,,,,,h.PNG,h,6116defc42273649ab0d8dc8,2021-09-08_20h06.54.660,forced_choiceRT,2021.1.2,MacIntel,62.5,,,,,,,,6,Slow,f,0,2.167,8,3,35,2,1,,,,,
,0,,,,,,,,,g.PNG,g,6116defc42273649ab0d8dc8,2021-09-08_20h06.54.660,forced_choiceRT,2021.1.2,MacIntel,62.5,,,,,,,,6,Ontime,g,1,1.954,9,0,36,1,1,,,,,
,1.11,,,,,,,,,j.PNG,j,6116defc42273649ab0d8dc8,2021-09-08_20h06.54.660,forced_choiceRT,2021.1.2,MacIntel,62.5,,,,,,,,6,Ontime,j,1,2.035,9,1,37,3,1,,,,,
,1.21,,,,,,,,,g.PNG,g,6116defc42273649ab0d8dc8,2021-09-08_20h06.54.660,forced_choiceRT,2021.1.2,MacIntel,62.5,,,,,,,,6,Ontime,g,1,1.941,9,2,38,1,1,,,,,
,0.32,,,,,,,,,g.PNG,g,6116defc42273649ab0d8dc8,2021-09-08_20h06.54.660,forced_choiceRT,2021.1.2,MacIntel,62.5,,,,,,,,6,Fast,g,1,1.888,9,3,39,1,1,,,,,
,,,,,,,,,,,,6116defc42273649ab0d8dc8,2021-09-08_20h06.54.660,forced_choiceRT,2021.1.2,MacIntel,62.5,,,,,,,,,,,,,,,,,,5,0,5,0,1
,1.79,,,,,,,,,g.PNG,g,6116defc42273649ab0d8dc8,2021-09-08_20h06.54.660,forced_choiceRT,2021.1.2,MacIntel,62.5,,,,,,,,7,Slow,g,1,2.405,0,0,0,1,1,,,,,
,1.82,,,,,,,,,h.PNG,h,6116defc42273649ab0d8dc8,2021-09-08_20h06.54.660,forced_choiceRT,2021.1.2,MacIntel,62.5,,,,,,,,7,Slow,h,1,2.304,0,1,1,2,1,,,,,
,1.7,,,,,,,,,g.PNG,g,6116defc42273649ab0d8dc8,2021-09-08_20h06.54.660,forced_choiceRT,2021.1.2,MacIntel,62.5,,,,,,,,7,Ontime,h,0,2.055,0,2,2,1,1,,,,,
,0.52,,,,,,,,,j.PNG,j,6116defc42273649ab0d8dc8,2021-09-08_20h06.54.660,forced_choiceRT,2021.1.2,MacIntel,62.5,,,,,,,,7,Ontime,j,1,1.918,0,3,3,3,1,,,,,
,1.17,,,,,,,,,f.PNG,f,6116defc42273649ab0d8dc8,2021-09-08_20h06.54.660,forced_choiceRT,2021.1.2,MacIntel,62.5,,,,,,,,7,Ontime,f,1,1.934,1,0,4,0,1,,,,,
,1.94,,,,,,,,,j.PNG,j,6116defc42273649ab0d8dc8,2021-09-08_20h06.54.660,forced_choiceRT,2021.1.2,MacIntel,62.5,,,,,,,,7,Slow,j,1,2.322,1,1,5,3,1,,,,,
,0.02,,,,,,,,,f.PNG,f,6116defc42273649ab0d8dc8,2021-09-08_20h06.54.660,forced_choiceRT,2021.1.2,MacIntel,62.5,,,,,,,,7,Fast,f,1,1.819,1,2,6,0,1,,,,,
,0.05,,,,,,,,,g.PNG,g,6116defc42273649ab0d8dc8,2021-09-08_20h06.54.660,forced_choiceRT,2021.1.2,MacIntel,62.5,,,,,,,,7,Ontime,g,1,1.988,1,3,7,1,1,,,,,
,1.82,,,,,,,,,j.PNG,j,6116defc42273649ab0d8dc8,2021-09-08_20h06.54.660,forced_choiceRT,2021.1.2,MacIntel,62.5,,,,,,,,7,Slow,j,1,2.19,2,0,8,3,1,,,,,
,0.01,,,,,,,,,h.PNG,h,6116defc42273649ab0d8dc8,2021-09-08_20h06.54.660,forced_choiceRT,2021.1.2,MacIntel,62.5,,,,,,,,7,Fast,h,1,1.784,2,1,9,2,1,,,,,
,0.22,,,,,,,,,g.PNG,g,6116defc42273649ab0d8dc8,2021-09-08_20h06.54.660,forced_choiceRT,2021.1.2,MacIntel,62.5,,,,,,,,7,Slow,g,1,2.125,2,2,10,1,1,,,,,
,1.97,,,,,,,,,f.PNG,f,6116defc42273649ab0d8dc8,2021-09-08_20h06.54.660,forced_choiceRT,2021.1.2,MacIntel,62.5,,,,,,,,7,Slow,h,0,2.369,2,3,11,0,1,,,,,
,0.79,,,,,,,,,g.PNG,g,6116defc42273649ab0d8dc8,2021-09-08_20h06.54.660,forced_choiceRT,2021.1.2,MacIntel,62.5,,,,,,,,7,Ontime,g,1,2.057,3,0,12,1,1,,,,,
,1.37,,,,,,,,,h.PNG,h,6116defc42273649ab0d8dc8,2021-09-08_20h06.54.660,forced_choiceRT,2021.1.2,MacIntel,62.5,,,,,,,,7,Slow,h,1,2.102,3,1,13,2,1,,,,,
,0.54,,,,,,,,,f.PNG,f,6116defc42273649ab0d8dc8,2021-09-08_20h06.54.660,forced_choiceRT,2021.1.2,MacIntel,62.5,,,,,,,,7,Fast,f,1,1.836,3,2,14,0,1,,,,,
,1.31,,,,,,,,,j.PNG,j,6116defc42273649ab0d8dc8,2021-09-08_20h06.54.660,forced_choiceRT,2021.1.2,MacIntel,62.5,,,,,,,,7,Ontime,j,1,2.082,3,3,15,3,1,,,,,
,0.42,,,,,,,,,g.PNG,g,6116defc42273649ab0d8dc8,2021-09-08_20h06.54.660,forced_choiceRT,2021.1.2,MacIntel,62.5,,,,,,,,7,Fast,g,1,1.836,4,0,16,1,1,,,,,
,0.01,,,,,,,,,g.PNG,g,6116defc42273649ab0d8dc8,2021-09-08_20h06.54.660,forced_choiceRT,2021.1.2,MacIntel,62.5,,,,,,,,7,Slow,g,1,2.123,4,1,17,1,1,,,,,
,0.8,,,,,,,,,j.PNG,j,6116defc42273649ab0d8dc8,2021-09-08_20h06.54.660,forced_choiceRT,2021.1.2,MacIntel,62.5,,,,,,,,7,Slow,j,1,2.103,4,2,18,3,1,,,,,
,0.76,,,,,,,,,g.PNG,g,6116defc42273649ab0d8dc8,2021-09-08_20h06.54.660,forced_choiceRT,2021.1.2,MacIntel,62.5,,,,,,,,7,Ontime,g,1,1.989,4,3,19,1,1,,,,,
,0.19,,,,,,,,,h.PNG,h,6116defc42273649ab0d8dc8,2021-09-08_20h06.54.660,forced_choiceRT,2021.1.2,MacIntel,62.5,,,,,,,,7,Ontime,h,1,1.97,5,0,20,2,1,,,,,
,0.34,,,,,,,,,j.PNG,j,6116defc42273649ab0d8dc8,2021-09-08_20h06.54.660,forced_choiceRT,2021.1.2,MacIntel,62.5,,,,,,,,7,Ontime,j,1,1.958,5,1,21,3,1,,,,,
,1.51,,,,,,,,,h.PNG,h,6116defc42273649ab0d8dc8,2021-09-08_20h06.54.660,forced_choiceRT,2021.1.2,MacIntel,62.5,,,,,,,,7,Slow,h,1,2.289,5,2,22,2,1,,,,,
,0.02,,,,,,,,,j.PNG,j,6116defc42273649ab0d8dc8,2021-09-08_20h06.54.660,forced_choiceRT,2021.1.2,MacIntel,62.5,,,,,,,,7,Fast,j,1,1.855,5,3,23,3,1,,,,,
,0.71,,,,,,,,,f.PNG,f,6116defc42273649ab0d8dc8,2021-09-08_20h06.54.660,forced_choiceRT,2021.1.2,MacIntel,62.5,,,,,,,,7,Ontime,f,1,2.025,6,0,24,0,1,,,,,
,0.87,,,,,,,,,h.PNG,h,6116defc42273649ab0d8dc8,2021-09-08_20h06.54.660,forced_choiceRT,2021.1.2,MacIntel,62.5,,,,,,,,7,Fast,h,1,1.893,6,1,25,2,1,,,,,
,1.26,,,,,,,,,f.PNG,f,6116defc42273649ab0d8dc8,2021-09-08_20h06.54.660,forced_choiceRT,2021.1.2,MacIntel,62.5,,,,,,,,7,Ontime,f,1,2.001,6,2,26,0,1,,,,,
,0.23,,,,,,,,,f.PNG,f,6116defc42273649ab0d8dc8,2021-09-08_20h06.54.660,forced_choiceRT,2021.1.2,MacIntel,62.5,,,,,,,,7,Ontime,f,1,2.015,6,3,27,0,1,,,,,
,1.25,,,,,,,,,f.PNG,f,6116defc42273649ab0d8dc8,2021-09-08_20h06.54.660,forced_choiceRT,2021.1.2,MacIntel,62.5,,,,,,,,7,Fast,f,1,1.886,7,0,28,0,1,,,,,
,1.84,,,,,,,,,j.PNG,j,6116defc42273649ab0d8dc8,2021-09-08_20h06.54.660,forced_choiceRT,2021.1.2,MacIntel,62.5,,,,,,,,7,Ontime,f,0,1.97,7,1,29,3,1,,,,,
,1.7,,,,,,,,,f.PNG,f,6116defc42273649ab0d8dc8,2021-09-08_20h06.54.660,forced_choiceRT,2021.1.2,MacIntel,62.5,,,,,,,,7,Slow,f,1,2.124,7,2,30,0,1,,,,,
,0.63,,,,,,,,,h.PNG,h,6116defc42273649ab0d8dc8,2021-09-08_20h06.54.660,forced_choiceRT,2021.1.2,MacIntel,62.5,,,,,,,,7,Ontime,h,1,1.916,7,3,31,2,1,,,,,
,1.85,,,,,,,,,j.PNG,j,6116defc42273649ab0d8dc8,2021-09-08_20h06.54.660,forced_choiceRT,2021.1.2,MacIntel,62.5,,,,,,,,7,Slow,j,1,2.103,8,0,32,3,1,,,,,
,0.52,,,,,,,,,g.PNG,g,6116defc42273649ab0d8dc8,2021-09-08_20h06.54.660,forced_choiceRT,2021.1.2,MacIntel,62.5,,,,,,,,7,Fast,g,1,1.55,8,1,33,1,1,,,,,
,1.21,,,,,,,,,g.PNG,g,6116defc42273649ab0d8dc8,2021-09-08_20h06.54.660,forced_choiceRT,2021.1.2,MacIntel,62.5,,,,,,,,7,Ontime,g,1,2.022,8,2,34,1,1,,,,,
,1.03,,,,,,,,,h.PNG,h,6116defc42273649ab0d8dc8,2021-09-08_20h06.54.660,forced_choiceRT,2021.1.2,MacIntel,62.5,,,,,,,,7,Ontime,h,1,2.068,8,3,35,2,1,,,,,
,1.9,,,,,,,,,h.PNG,h,6116defc42273649ab0d8dc8,2021-09-08_20h06.54.660,forced_choiceRT,2021.1.2,MacIntel,62.5,,,,,,,,7,Slow,h,1,2.489,9,0,36,2,1,,,,,
,0.49,,,,,,,,,f.PNG,f,6116defc42273649ab0d8dc8,2021-09-08_20h06.54.660,forced_choiceRT,2021.1.2,MacIntel,62.5,,,,,,,,7,Slow,f,1,2.115,9,1,37,0,1,,,,,
,1.34,,,,,,,,,j.PNG,j,6116defc42273649ab0d8dc8,2021-09-08_20h06.54.660,forced_choiceRT,2021.1.2,MacIntel,62.5,,,,,,,,7,Ontime,j,1,2.014,9,2,38,3,1,,,,,
,1.94,,,,,,,,,h.PNG,h,6116defc42273649ab0d8dc8,2021-09-08_20h06.54.660,forced_choiceRT,2021.1.2,MacIntel,62.5,,,,,,,,7,Slow,h,1,2.173,9,3,39,2,1,,,,,
,,,,,,,,,,,,6116defc42273649ab0d8dc8,2021-09-08_20h06.54.660,forced_choiceRT,2021.1.2,MacIntel,62.5,,,,,,,,,,,,,,,,,,6,0,6,0,1
,1.69,,,,,,,,,f.PNG,f,6116defc42273649ab0d8dc8,2021-09-08_20h06.54.660,forced_choiceRT,2021.1.2,MacIntel,62.5,,,,,,,,8,Slow,f,1,2.167,0,0,0,0,1,,,,,
,1.9,,,,,,,,,f.PNG,f,6116defc42273649ab0d8dc8,2021-09-08_20h06.54.660,forced_choiceRT,2021.1.2,MacIntel,62.5,,,,,,,,8,Slow,g,0,2.337,0,1,1,0,1,,,,,
,0.44,,,,,,,,,j.PNG,j,6116defc42273649ab0d8dc8,2021-09-08_20h06.54.660,forced_choiceRT,2021.1.2,MacIntel,62.5,,,,,,,,8,Fast,j,1,1.835,0,2,2,3,1,,,,,
,1.63,,,,,,,,,f.PNG,f,6116defc42273649ab0d8dc8,2021-09-08_20h06.54.660,forced_choiceRT,2021.1.2,MacIntel,62.5,,,,,,,,8,Slow,f,1,2.181,0,3,3,0,1,,,,,
,0.94,,,,,,,,,h.PNG,h,6116defc42273649ab0d8dc8,2021-09-08_20h06.54.660,forced_choiceRT,2021.1.2,MacIntel,62.5,,,,,,,,8,Ontime,h,1,1.969,1,0,4,2,1,,,,,
,1.4,,,,,,,,,f.PNG,f,6116defc42273649ab0d8dc8,2021-09-08_20h06.54.660,forced_choiceRT,2021.1.2,MacIntel,62.5,,,,,,,,8,Ontime,f,1,2.067,1,1,5,0,1,,,,,
,0.39,,,,,,,,,h.PNG,h,6116defc42273649ab0d8dc8,2021-09-08_20h06.54.660,forced_choiceRT,2021.1.2,MacIntel,62.5,,,,,,,,8,Ontime,h,1,2.04,1,2,6,2,1,,,,,
,0.29,,,,,,,,,g.PNG,g,6116defc42273649ab0d8dc8,2021-09-08_20h06.54.660,forced_choiceRT,2021.1.2,MacIntel,62.5,,,,,,,,8,Ontime,g,1,2.07,1,3,7,1,1,,,,,
,0.49,,,,,,,,,j.PNG,j,6116defc42273649ab0d8dc8,2021-09-08_20h06.54.660,forced_choiceRT,2021.1.2,MacIntel,62.5,,,,,,,,8,Ontime,j,1,2.07,2,0,8,3,1,,,,,
,1.21,,,,,,,,,j.PNG,j,6116defc42273649ab0d8dc8,2021-09-08_20h06.54.660,forced_choiceRT,2021.1.2,MacIntel,62.5,,,,,,,,8,Slow,j,1,2.191,2,1,9,3,1,,,,,
,0.2,,,,,,,,,h.PNG,h,6116defc42273649ab0d8dc8,2021-09-08_20h06.54.660,forced_choiceRT,2021.1.2,MacIntel,62.5,,,,,,,,8,Ontime,h,1,2.085,2,2,10,2,1,,,,,
,0.16,,,,,,,,,f.PNG,f,6116defc42273649ab0d8dc8,2021-09-08_20h06.54.660,forced_choiceRT,2021.1.2,MacIntel,62.5,,,,,,,,8,Ontime,f,1,2.036,2,3,11,0,1,,,,,
,1.38,,,,,,,,,h.PNG,h,6116defc42273649ab0d8dc8,2021-09-08_20h06.54.660,forced_choiceRT,2021.1.2,MacIntel,62.5,,,,,,,,8,Slow,h,1,2.234,3,0,12,2,1,,,,,
,1.09,,,,,,,,,g.PNG,g,6116defc42273649ab0d8dc8,2021-09-08_20h06.54.660,forced_choiceRT,2021.1.2,MacIntel,62.5,,,,,,,,8,Slow,g,1,2.202,3,1,13,1,1,,,,,
,1.41,,,,,,,,,h.PNG,h,6116defc42273649ab0d8dc8,2021-09-08_20h06.54.660,forced_choiceRT,2021.1.2,MacIntel,62.5,,,,,,,,8,Ontime,h,1,2.07,3,2,14,2,1,,,,,
,0.58,,,,,,,,,j.PNG,j,6116defc42273649ab0d8dc8,2021-09-08_20h06.54.660,forced_choiceRT,2021.1.2,MacIntel,62.5,,,,,,,,8,Slow,j,1,2.137,3,3,15,3,1,,,,,
,1.27,,,,,,,,,j.PNG,j,6116defc42273649ab0d8dc8,2021-09-08_20h06.54.660,forced_choiceRT,2021.1.2,MacIntel,62.5,,,,,,,,8,Ontime,j,1,1.936,4,0,16,3,1,,,,,
,0.23,,,,,,,,,j.PNG,j,6116defc42273649ab0d8dc8,2021-09-08_20h06.54.660,forced_choiceRT,2021.1.2,MacIntel,62.5,,,,,,,,8,Fast,j,1,1.817,4,1,17,3,1,,,,,
,0.04,,,,,,,,,g.PNG,g,6116defc42273649ab0d8dc8,2021-09-08_20h06.54.660,forced_choiceRT,2021.1.2,MacIntel,62.5,,,,,,,,8,Slow,g,1,2.125,4,2,18,1,1,,,,,
,0.27,,,,,,,,,g.PNG,g,6116defc42273649ab0d8dc8,2021-09-08_20h06.54.660,forced_choiceRT,2021.1.2,MacIntel,62.5,,,,,,,,8,Slow,g,1,2.169,4,3,19,1,1,,,,,
,1.65,,,,,,,,,h.PNG,h,6116defc42273649ab0d8dc8,2021-09-08_20h06.54.660,forced_choiceRT,2021.1.2,MacIntel,62.5,,,,,,,,8,Slow,g,0,2.104,5,0,20,2,1,,,,,
,0.96,,,,,,,,,f.PNG,f,6116defc42273649ab0d8dc8,2021-09-08_20h06.54.660,forced_choiceRT,2021.1.2,MacIntel,62.5,,,,,,,,8,Ontime,f,1,1.936,5,1,21,0,1,,,,,
,0.67,,,,,,,,,h.PNG,h,6116defc42273649ab0d8dc8,2021-09-08_20h06.54.660,forced_choiceRT,2021.1.2,MacIntel,62.5,,,,,,,,8,Ontime,h,1,2.018,5,2,22,2,1,,,,,
,1.26,,,,,,,,,f.PNG,f,6116defc42273649ab0d8dc8,2021-09-08_20h06.54.660,forced_choiceRT,2021.1.2,MacIntel,62.5,,,,,,,,8,Fast,f,1,1.786,5,3,23,0,1,,,,,
,1.46,,,,,,,,,h.PNG,h,6116defc42273649ab0d8dc8,2021-09-08_20h06.54.660,forced_choiceRT,2021.1.2,MacIntel,62.5,,,,,,,,8,Ontime,h,1,1.938,6,0,24,2,1,,,,,
,0.59,,,,,,,,,j.PNG,j,6116defc42273649ab0d8dc8,2021-09-08_20h06.54.660,forced_choiceRT,2021.1.2,MacIntel,62.5,,,,,,,,8,Ontime,j,1,2.09,6,1,25,3,1,,,,,
,1.91,,,,,,,,,j.PNG,j,6116defc42273649ab0d8dc8,2021-09-08_20h06.54.660,forced_choiceRT,2021.1.2,MacIntel,62.5,,,,,,,,8,Slow,j,1,2.225,6,2,26,3,1,,,,,
,0.62,,,,,,,,,g.PNG,g,6116defc42273649ab0d8dc8,2021-09-08_20h06.54.660,forced_choiceRT,2021.1.2,MacIntel,62.5,,,,,,,,8,Ontime,g,1,2.058,6,3,27,1,1,,,,,
,1.41,,,,,,,,,f.PNG,f,6116defc42273649ab0d8dc8,2021-09-08_20h06.54.660,forced_choiceRT,2021.1.2,MacIntel,62.5,,,,,,,,8,Ontime,f,1,2.068,7,0,28,0,1,,,,,
,0.98,,,,,,,,,g.PNG,g,6116defc42273649ab0d8dc8,2021-09-08_20h06.54.660,forced_choiceRT,2021.1.2,MacIntel,62.5,,,,,,,,8,Fast,g,1,1.79,7,1,29,1,1,,,,,
,0.94,,,,,,,,,j.PNG,j,6116defc42273649ab0d8dc8,2021-09-08_20h06.54.660,forced_choiceRT,2021.1.2,MacIntel,62.5,,,,,,,,8,Ontime,j,1,2.07,7,2,30,3,1,,,,,
,1.61,,,,,,,,,g.PNG,g,6116defc42273649ab0d8dc8,2021-09-08_20h06.54.660,forced_choiceRT,2021.1.2,MacIntel,62.5,,,,,,,,8,Slow,g,1,2.148,7,3,31,1,1,,,,,
,0.96,,,,,,,,,f.PNG,f,6116defc42273649ab0d8dc8,2021-09-08_20h06.54.660,forced_choiceRT,2021.1.2,MacIntel,62.5,,,,,,,,8,Ontime,f,1,2.025,8,0,32,0,1,,,,,
,1.11,,,,,,,,,h.PNG,h,6116defc42273649ab0d8dc8,2021-09-08_20h06.54.660,forced_choiceRT,2021.1.2,MacIntel,62.5,,,,,,,,8,Ontime,h,1,2.083,8,1,33,2,1,,,,,
,0.68,,,,,,,,,j.PNG,j,6116defc42273649ab0d8dc8,2021-09-08_20h06.54.660,forced_choiceRT,2021.1.2,MacIntel,62.5,,,,,,,,8,Ontime,j,1,2.07,8,2,34,3,1,,,,,
,1.63,,,,,,,,,h.PNG,h,6116defc42273649ab0d8dc8,2021-09-08_20h06.54.660,forced_choiceRT,2021.1.2,MacIntel,62.5,,,,,,,,8,Ontime,f,0,2.023,8,3,35,2,1,,,,,
,1.7,,,,,,,,,f.PNG,f,6116defc42273649ab0d8dc8,2021-09-08_20h06.54.660,forced_choiceRT,2021.1.2,MacIntel,62.5,,,,,,,,8,Slow,f,1,2.257,9,0,36,0,1,,,,,
,1.79,,,,,,,,,g.PNG,g,6116defc42273649ab0d8dc8,2021-09-08_20h06.54.660,forced_choiceRT,2021.1.2,MacIntel,62.5,,,,,,,,8,Slow,f,0,2.182,9,1,37,1,1,,,,,
,0.9,,,,,,,,,g.PNG,g,6116defc42273649ab0d8dc8,2021-09-08_20h06.54.660,forced_choiceRT,2021.1.2,MacIntel,62.5,,,,,,,,8,Ontime,g,1,2.014,9,2,38,1,1,,,,,
,0.19,,,,,,,,,g.PNG,g,6116defc42273649ab0d8dc8,2021-09-08_20h06.54.660,forced_choiceRT,2021.1.2,MacIntel,62.5,,,,,,,,8,Slow,g,1,2.191,9,3,39,1,1,,,,,
,,,,,,,,,,,,6116defc42273649ab0d8dc8,2021-09-08_20h06.54.660,forced_choiceRT,2021.1.2,MacIntel,62.5,,,,,,,,,,,,,,,,,,7,0,7,0,1
,0.51,,,,,,,,,f.PNG,f,6116defc42273649ab0d8dc8,2021-09-08_20h06.54.660,forced_choiceRT,2021.1.2,MacIntel,62.5,,,,,,,,9,Fast,f,1,1.759,0,0,0,0,1,,,,,
,1.2,,,,,,,,,j.PNG,j,6116defc42273649ab0d8dc8,2021-09-08_20h06.54.660,forced_choiceRT,2021.1.2,MacIntel,62.5,,,,,,,,9,Ontime,j,1,1.983,0,1,1,3,1,,,,,
,0.63,,,,,,,,,h.PNG,h,6116defc42273649ab0d8dc8,2021-09-08_20h06.54.660,forced_choiceRT,2021.1.2,MacIntel,62.5,,,,,,,,9,Ontime,h,1,2.089,0,2,2,2,1,,,,,
,0.87,,,,,,,,,h.PNG,h,6116defc42273649ab0d8dc8,2021-09-08_20h06.54.660,forced_choiceRT,2021.1.2,MacIntel,62.5,,,,,,,,9,Fast,h,1,1.758,0,3,3,2,1,,,,,
,0.39,,,,,,,,,h.PNG,h,6116defc42273649ab0d8dc8,2021-09-08_20h06.54.660,forced_choiceRT,2021.1.2,MacIntel,62.5,,,,,,,,9,Slow,h,1,2.135,1,0,4,2,1,,,,,
,1.06,,,,,,,,,f.PNG,f,6116defc42273649ab0d8dc8,2021-09-08_20h06.54.660,forced_choiceRT,2021.1.2,MacIntel,62.5,,,,,,,,9,Ontime,f,1,2.002,1,1,5,0,1,,,,,
,1.25,,,,,,,,,f.PNG,f,6116defc42273649ab0d8dc8,2021-09-08_20h06.54.660,forced_choiceRT,2021.1.2,MacIntel,62.5,,,,,,,,9,Ontime,f,1,1.95,1,2,6,0,1,,,,,
,0.59,,,,,,,,,g.PNG,g,6116defc42273649ab0d8dc8,2021-09-08_20h06.54.660,forced_choiceRT,2021.1.2,MacIntel,62.5,,,,,,,,9,Fast,g,1,1.637,1,3,7,1,1,,,,,
,1.64,,,,,,,,,f.PNG,f,6116defc42273649ab0d8dc8,2021-09-08_20h06.54.660,forced_choiceRT,2021.1.2,MacIntel,62.5,,,,,,,,9,Ontime,j,0,2.017,2,0,8,0,1,,,,,
,0.17,,,,,,,,,f.PNG,f,6116defc42273649ab0d8dc8,2021-09-08_20h06.54.660,forced_choiceRT,2021.1.2,MacIntel,62.5,,,,,,,,9,Ontime,f,1,2.052,2,1,9,0,1,,,,,
,0.03,,,,,,,,,h.PNG,h,6116defc42273649ab0d8dc8,2021-09-08_20h06.54.660,forced_choiceRT,2021.1.2,MacIntel,62.5,,,,,,,,9,Ontime,h,1,1.984,2,2,10,2,1,,,,,
,0.31,,,,,,,,,g.PNG,g,6116defc42273649ab0d8dc8,2021-09-08_20h06.54.660,forced_choiceRT,2021.1.2,MacIntel,62.5,,,,,,,,9,Ontime,g,1,1.935,2,3,11,1,1,,,,,
,1.99,,,,,,,,,h.PNG,h,6116defc42273649ab0d8dc8,2021-09-08_20h06.54.660,forced_choiceRT,2021.1.2,MacIntel,62.5,,,,,,,,9,Slow,j,0,2.356,3,0,12,2,1,,,,,
,1.84,,,,,,,,,g.PNG,g,6116defc42273649ab0d8dc8,2021-09-08_20h06.54.660,forced_choiceRT,2021.1.2,MacIntel,62.5,,,,,,,,9,Slow,j,0,2.102,3,1,13,1,1,,,,,
,1.78,,,,,,,,,h.PNG,h,6116defc42273649ab0d8dc8,2021-09-08_20h06.54.660,forced_choiceRT,2021.1.2,MacIntel,62.5,,,,,,,,9,Ontime,g,0,2.09,3,2,14,2,1,,,,,
,1.16,,,,,,,,,j.PNG,j,6116defc42273649ab0d8dc8,2021-09-08_20h06.54.660,forced_choiceRT,2021.1.2,MacIntel,62.5,,,,,,,,9,Ontime,j,1,2.002,3,3,15,3,1,,,,,
,1.02,,,,,,,,,g.PNG,g,6116defc42273649ab0d8dc8,2021-09-08_20h06.54.660,forced_choiceRT,2021.1.2,MacIntel,62.5,,,,,,,,9,Ontime,g,1,2.038,4,0,16,1,1,,,,,
,0.87,,,,,,,,,g.PNG,g,6116defc42273649ab0d8dc8,2021-09-08_20h06.54.660,forced_choiceRT,2021.1.2,MacIntel,62.5,,,,,,,,9,Ontime,g,1,2.035,4,1,17,1,1,,,,,
,1.72,,,,,,,,,h.PNG,h,6116defc42273649ab0d8dc8,2021-09-08_20h06.54.660,forced_choiceRT,2021.1.2,MacIntel,62.5,,,,,,,,9,Ontime,j,0,1.955,4,2,18,2,1,,,,,
,1.51,,,,,,,,,g.PNG,g,6116defc42273649ab0d8dc8,2021-09-08_20h06.54.660,forced_choiceRT,2021.1.2,MacIntel,62.5,,,,,,,,9,Ontime,h,0,2.001,4,3,19,1,1,,,,,
,1.7,,,,,,,,,j.PNG,j,6116defc42273649ab0d8dc8,2021-09-08_20h06.54.660,forced_choiceRT,2021.1.2,MacIntel,62.5,,,,,,,,9,Ontime,g,0,2.055,5,0,20,3,1,,,,,
,0.88,,,,,,,,,g.PNG,g,6116defc42273649ab0d8dc8,2021-09-08_20h06.54.660,forced_choiceRT,2021.1.2,MacIntel,62.5,,,,,,,,9,Ontime,g,1,1.992,5,1,21,1,1,,,,,
,0.15,,,,,,,,,f.PNG,f,6116defc42273649ab0d8dc8,2021-09-08_20h06.54.660,forced_choiceRT,2021.1.2,MacIntel,62.5,,,,,,,,9,Ontime,f,1,1.936,5,2,22,0,1,,,,,
,1.04,,,,,,,,,h.PNG,h,6116defc42273649ab0d8dc8,2021-09-08_20h06.54.660,forced_choiceRT,2021.1.2,MacIntel,62.5,,,,,,,,9,Ontime,h,1,1.948,5,3,23,2,1,,,,,
,0.96,,,,,,,,,g.PNG,g,6116defc42273649ab0d8dc8,2021-09-08_20h06.54.660,forced_choiceRT,2021.1.2,MacIntel,62.5,,,,,,,,9,Ontime,g,1,2,6,0,24,1,1,,,,,
,1.77,,,,,,,,,j.PNG,j,6116defc42273649ab0d8dc8,2021-09-08_20h06.54.660,forced_choiceRT,2021.1.2,MacIntel,62.5,,,,,,,,9,Slow,h,0,2.304,6,1,25,3,1,,,,,
,1.41,,,,,,,,,j.PNG,j,6116defc42273649ab0d8dc8,2021-09-08_20h06.54.660,forced_choiceRT,2021.1.2,MacIntel,62.5,,,,,,,,9,Slow,j,1,2.138,6,2,26,3,1,,,,,
,0.32,,,,,,,,,j.PNG,j,6116defc42273649ab0d8dc8,2021-09-08_20h06.54.660,forced_choiceRT,2021.1.2,MacIntel,62.5,,,,,,,,9,Ontime,j,1,2.001,6,3,27,3,1,,,,,
,1.52,,,,,,,,,f.PNG,f,6116defc42273649ab0d8dc8,2021-09-08_20h06.54.660,forced_choiceRT,2021.1.2,MacIntel,62.5,,,,,,,,9,Slow,f,1,2.341,7,0,28,0,1,,,,,
,1.86,,,,,,,,,j.PNG,j,6116defc42273649ab0d8dc8,2021-09-08_20h06.54.660,forced_choiceRT,2021.1.2,MacIntel,62.5,,,,,,,,9,Slow,j,1,2.389,7,1,29,3,1,,,,,
,1.43,,,,,,,,,g.PNG,g,6116defc42273649ab0d8dc8,2021-09-08_20h06.54.660,forced_choiceRT,2021.1.2,MacIntel,62.5,,,,,,,,9,Ontime,g,1,2.09,7,2,30,1,1,,,,,
,1.1,,,,,,,,,h.PNG,h,6116defc42273649ab0d8dc8,2021-09-08_20h06.54.660,forced_choiceRT,2021.1.2,MacIntel,62.5,,,,,,,,9,Fast,h,1,1.802,7,3,31,2,1,,,,,
,0.81,,,,,,,,,f.PNG,f,6116defc42273649ab0d8dc8,2021-09-08_20h06.54.660,forced_choiceRT,2021.1.2,MacIntel,62.5,,,,,,,,9,Fast,f,1,1.868,8,0,32,0,1,,,,,
,1.03,,,,,,,,,g.PNG,g,6116defc42273649ab0d8dc8,2021-09-08_20h06.54.660,forced_choiceRT,2021.1.2,MacIntel,62.5,,,,,,,,9,Ontime,g,1,2.005,8,1,33,1,1,,,,,
,1.19,,,,,,,,,f.PNG,f,6116defc42273649ab0d8dc8,2021-09-08_20h06.54.660,forced_choiceRT,2021.1.2,MacIntel,62.5,,,,,,,,9,Ontime,f,1,2.055,8,2,34,0,1,,,,,
,0.19,,,,,,,,,f.PNG,f,6116defc42273649ab0d8dc8,2021-09-08_20h06.54.660,forced_choiceRT,2021.1.2,MacIntel,62.5,,,,,,,,9,Ontime,f,1,2.038,8,3,35,0,1,,,,,
,0.64,,,,,,,,,h.PNG,h,6116defc42273649ab0d8dc8,2021-09-08_20h06.54.660,forced_choiceRT,2021.1.2,MacIntel,62.5,,,,,,,,9,Ontime,h,1,1.904,9,0,36,2,1,,,,,
,1,,,,,,,,,j.PNG,j,6116defc42273649ab0d8dc8,2021-09-08_20h06.54.660,forced_choiceRT,2021.1.2,MacIntel,62.5,,,,,,,,9,Ontime,j,1,1.904,9,1,37,3,1,,,,,
,0.52,,,,,,,,,j.PNG,j,6116defc42273649ab0d8dc8,2021-09-08_20h06.54.660,forced_choiceRT,2021.1.2,MacIntel,62.5,,,,,,,,9,Ontime,j,1,2.091,9,2,38,3,1,,,,,
,0.19,,,,,,,,,j.PNG,j,6116defc42273649ab0d8dc8,2021-09-08_20h06.54.660,forced_choiceRT,2021.1.2,MacIntel,62.5,,,,,,,,9,Ontime,j,1,1.989,9,3,39,3,1,,,,,
,,,,,,,,,,,,6116defc42273649ab0d8dc8,2021-09-08_20h06.54.660,forced_choiceRT,2021.1.2,MacIntel,62.5,,,,,,,,,,,,,,,,,,8,0,8,0,1
,0.16,,,,,,,,,j.PNG,j,6116defc42273649ab0d8dc8,2021-09-08_20h06.54.660,forced_choiceRT,2021.1.2,MacIntel,62.5,,,,,,,,10,Fast,j,1,1.841,0,0,0,3,1,,,,,
,1.78,,,,,,,,,h.PNG,h,6116defc42273649ab0d8dc8,2021-09-08_20h06.54.660,forced_choiceRT,2021.1.2,MacIntel,62.5,,,,,,,,10,Slow,j,0,2.254,0,1,1,2,1,,,,,
,0.59,,,,,,,,,f.PNG,f,6116defc42273649ab0d8dc8,2021-09-08_20h06.54.660,forced_choiceRT,2021.1.2,MacIntel,62.5,,,,,,,,10,Ontime,f,1,2.057,0,2,2,0,1,,,,,
,1.12,,,,,,,,,g.PNG,g,6116defc42273649ab0d8dc8,2021-09-08_20h06.54.660,forced_choiceRT,2021.1.2,MacIntel,62.5,,,,,,,,10,Ontime,g,1,1.903,0,3,3,1,1,,,,,
,0.72,,,,,,,,,h.PNG,h,6116defc42273649ab0d8dc8,2021-09-08_20h06.54.660,forced_choiceRT,2021.1.2,MacIntel,62.5,,,,,,,,10,Ontime,h,1,1.969,1,0,4,2,1,,,,,
,1.59,,,,,,,,,g.PNG,g,6116defc42273649ab0d8dc8,2021-09-08_20h06.54.660,forced_choiceRT,2021.1.2,MacIntel,62.5,,,,,,,,10,Ontime,h,0,2,1,1,5,1,1,,,,,
,0.11,,,,,,,,,h.PNG,h,6116defc42273649ab0d8dc8,2021-09-08_20h06.54.660,forced_choiceRT,2021.1.2,MacIntel,62.5,,,,,,,,10,Fast,h,1,1.823,1,2,6,2,1,,,,,
,0.5,,,,,,,,,f.PNG,f,6116defc42273649ab0d8dc8,2021-09-08_20h06.54.660,forced_choiceRT,2021.1.2,MacIntel,62.5,,,,,,,,10,Ontime,f,1,1.936,1,3,7,0,1,,,,,
,0.38,,,,,,,,,h.PNG,h,6116defc42273649ab0d8dc8,2021-09-08_20h06.54.660,forced_choiceRT,2021.1.2,MacIntel,62.5,,,,,,,,10,Ontime,h,1,2.003,2,0,8,2,1,,,,,
,1.92,,,,,,,,,h.PNG,h,6116defc42273649ab0d8dc8,2021-09-08_20h06.54.660,forced_choiceRT,2021.1.2,MacIntel,62.5,,,,,,,,10,Slow,h,1,2.27,2,1,9,2,1,,,,,
,1.99,,,,,,,,,g.PNG,g,6116defc42273649ab0d8dc8,2021-09-08_20h06.54.660,forced_choiceRT,2021.1.2,MacIntel,62.5,,,,,,,,10,Ontime,h,0,2.089,2,2,10,1,1,,,,,
,1.9,,,,,,,,,j.PNG,j,6116defc42273649ab0d8dc8,2021-09-08_20h06.54.660,forced_choiceRT,2021.1.2,MacIntel,62.5,,,,,,,,10,Ontime,h,0,1.913,2,3,11,3,1,,,,,
,0.48,,,,,,,,,g.PNG,g,6116defc42273649ab0d8dc8,2021-09-08_20h06.54.660,forced_choiceRT,2021.1.2,MacIntel,62.5,,,,,,,,10,Fast,g,1,1.869,3,0,12,1,1,,,,,
,1.66,,,,,,,,,h.PNG,h,6116defc42273649ab0d8dc8,2021-09-08_20h06.54.660,forced_choiceRT,2021.1.2,MacIntel,62.5,,,,,,,,10,Slow,h,1,2.198,3,1,13,2,1,,,,,
,1.13,,,,,,,,,j.PNG,j,6116defc42273649ab0d8dc8,2021-09-08_20h06.54.660,forced_choiceRT,2021.1.2,MacIntel,62.5,,,,,,,,10,Ontime,j,1,1.99,3,2,14,3,1,,,,,
,1.7,,,,,,,,,j.PNG,j,6116defc42273649ab0d8dc8,2021-09-08_20h06.54.660,forced_choiceRT,2021.1.2,MacIntel,62.5,,,,,,,,10,Ontime,h,0,2.004,3,3,15,3,1,,,,,
,0.91,,,,,,,,,f.PNG,f,6116defc42273649ab0d8dc8,2021-09-08_20h06.54.660,forced_choiceRT,2021.1.2,MacIntel,62.5,,,,,,,,10,Fast,f,1,1.722,4,0,16,0,1,,,,,
,0.46,,,,,,,,,f.PNG,f,6116defc42273649ab0d8dc8,2021-09-08_20h06.54.660,forced_choiceRT,2021.1.2,MacIntel,62.5,,,,,,,,10,Ontime,f,1,2.069,4,1,17,0,1,,,,,
,0.31,,,,,,,,,h.PNG,h,6116defc42273649ab0d8dc8,2021-09-08_20h06.54.660,forced_choiceRT,2021.1.2,MacIntel,62.5,,,,,,,,10,Ontime,h,1,1.948,4,2,18,2,1,,,,,
,0.63,,,,,,,,,g.PNG,g,6116defc42273649ab0d8dc8,2021-09-08_20h06.54.660,forced_choiceRT,2021.1.2,MacIntel,62.5,,,,,,,,10,Ontime,g,1,1.901,4,3,19,1,1,,,,,
,0.67,,,,,,,,,j.PNG,j,6116defc42273649ab0d8dc8,2021-09-08_20h06.54.660,forced_choiceRT,2021.1.2,MacIntel,62.5,,,,,,,,10,Slow,j,1,2.103,5,0,20,3,1,,,,,
,0.69,,,,,,,,,g.PNG,g,6116defc42273649ab0d8dc8,2021-09-08_20h06.54.660,forced_choiceRT,2021.1.2,MacIntel,62.5,,,,,,,,10,Slow,g,1,2.171,5,1,21,1,1,,,,,
,1.66,,,,,,,,,j.PNG,j,6116defc42273649ab0d8dc8,2021-09-08_20h06.54.660,forced_choiceRT,2021.1.2,MacIntel,62.5,,,,,,,,10,Slow,h,0,2.257,5,2,22,3,1,,,,,
,0.32,,,,,,,,,h.PNG,h,6116defc42273649ab0d8dc8,2021-09-08_20h06.54.660,forced_choiceRT,2021.1.2,MacIntel,62.5,,,,,,,,10,Ontime,h,1,1.936,5,3,23,2,1,,,,,
,1.93,,,,,,,,,f.PNG,f,6116defc42273649ab0d8dc8,2021-09-08_20h06.54.660,forced_choiceRT,2021.1.2,MacIntel,62.5,,,,,,,,10,Slow,f,1,2.467,6,0,24,0,1,,,,,
,1.88,,,,,,,,,f.PNG,f,6116defc42273649ab0d8dc8,2021-09-08_20h06.54.660,forced_choiceRT,2021.1.2,MacIntel,62.5,,,,,,,,10,Slow,f,1,2.35,6,1,25,0,1,,,,,
,1.33,,,,,,,,,g.PNG,g,6116defc42273649ab0d8dc8,2021-09-08_20h06.54.660,forced_choiceRT,2021.1.2,MacIntel,62.5,,,,,,,,10,Ontime,g,1,1.966,6,2,26,1,1,,,,,
,1.05,,,,,,,,,h.PNG,h,6116defc42273649ab0d8dc8,2021-09-08_20h06.54.660,forced_choiceRT,2021.1.2,MacIntel,62.5,,,,,,,,10,Ontime,h,1,1.939,6,3,27,2,1,,,,,
,1.83,,,,,,,,,f.PNG,f,6116defc42273649ab0d8dc8,2021-09-08_20h06.54.660,forced_choiceRT,2021.1.2,MacIntel,62.5,,,,,,,,10,Slow,h,0,2.204,7,0,28,0,1,,,,,
,1.21,,,,,,,,,g.PNG,g,6116defc42273649ab0d8dc8,2021-09-08_20h06.54.660,forced_choiceRT,2021.1.2,MacIntel,62.5,,,,,,,,10,Slow,g,1,2.136,7,1,29,1,1,,,,,
,1.73,,,,,,,,,g.PNG,g,6116defc42273649ab0d8dc8,2021-09-08_20h06.54.660,forced_choiceRT,2021.1.2,MacIntel,62.5,,,,,,,,10,Slow,g,1,2.369,7,2,30,1,1,,,,,
,1.31,,,,,,,,,f.PNG,f,6116defc42273649ab0d8dc8,2021-09-08_20h06.54.660,forced_choiceRT,2021.1.2,MacIntel,62.5,,,,,,,,10,Ontime,f,1,1.901,7,3,31,0,1,,,,,
,1.29,,,,,,,,,j.PNG,j,6116defc42273649ab0d8dc8,2021-09-08_20h06.54.660,forced_choiceRT,2021.1.2,MacIntel,62.5,,,,,,,,10,Ontime,j,1,1.903,8,0,32,3,1,,,,,
,0.75,,,,,,,,,j.PNG,j,6116defc42273649ab0d8dc8,2021-09-08_20h06.54.660,forced_choiceRT,2021.1.2,MacIntel,62.5,,,,,,,,10,Ontime,j,1,2.057,8,1,33,3,1,,,,,
,1.48,,,,,,,,,f.PNG,f,6116defc42273649ab0d8dc8,2021-09-08_20h06.54.660,forced_choiceRT,2021.1.2,MacIntel,62.5,,,,,,,,10,Ontime,f,1,1.957,8,2,34,0,1,,,,,
,0.57,,,,,,,,,g.PNG,g,6116defc42273649ab0d8dc8,2021-09-08_20h06.54.660,forced_choiceRT,2021.1.2,MacIntel,62.5,,,,,,,,10,Ontime,g,1,1.936,8,3,35,1,1,,,,,
,0.15,,,,,,,,,j.PNG,j,6116defc42273649ab0d8dc8,2021-09-08_20h06.54.660,forced_choiceRT,2021.1.2,MacIntel,62.5,,,,,,,,10,Ontime,j,1,1.969,9,0,36,3,1,,,,,
,0.62,,,,,,,,,h.PNG,h,6116defc42273649ab0d8dc8,2021-09-08_20h06.54.660,forced_choiceRT,2021.1.2,MacIntel,62.5,,,,,,,,10,Fast,h,1,1.856,9,1,37,2,1,,,,,
,0.38,,,,,,,,,j.PNG,j,6116defc42273649ab0d8dc8,2021-09-08_20h06.54.660,forced_choiceRT,2021.1.2,MacIntel,62.5,,,,,,,,10,Fast,j,1,1.882,9,2,38,3,1,,,,,
,0.29,,,,,,,,,f.PNG,f,6116defc42273649ab0d8dc8,2021-09-08_20h06.54.660,forced_choiceRT,2021.1.2,MacIntel,62.5,,,,,,,,10,Ontime,f,1,1.922,9,3,39,0,1,,,,,
,,,,,,,,,,,,6116defc42273649ab0d8dc8,2021-09-08_20h06.54.660,forced_choiceRT,2021.1.2,MacIntel,62.5,,,,,,,,,,,,,,,,,,9,0,9,0,1
