IP_Addresss,target_onset,trial_resp_sp.keys,trial_resp_sp.corr,trial_resp_sp.rt,trials_train_loop.thisRepN,trials_train_loop.thisTrialN,trials_train_loop.thisN,trials_train_loop.thisIndex,trials_train_loop.ran,pic,correct_key,participant,date,expName,psychopyVersion,OS,frameRate,trial_resp_timing.keys,trial_resp_timing.rt,trials_train_timing.thisRepN,trials_train_timing.thisTrialN,trials_train_timing.thisN,trials_train_timing.thisIndex,trials_train_timing.ran,block_id,ontime,forcedRT_resp.keys,forcedRT_resp.corr,forcedRT_resp.rt,trials.thisRepN,trials.thisTrialN,trials.thisN,trials.thisIndex,trials.ran,blocks.thisRepN,blocks.thisTrialN,blocks.thisN,blocks.thisIndex,blocks.ran
65.131.167.51,0,f,1,2.5108,0,0,0,0,1,f.PNG,f,6122ca22ff936b11ab2aed6e,2021-09-08_19h54.36.243,forced_choiceRT,2021.1.2,MacIntel,60.14675809,,,,,,,,,,,,,,,,,,,,,,
,0,h,1,2.0193,0,1,1,2,1,h.PNG,h,6122ca22ff936b11ab2aed6e,2021-09-08_19h54.36.243,forced_choiceRT,2021.1.2,MacIntel,60.14675809,,,,,,,,,,,,,,,,,,,,,,
,0,h,1,1.265,0,2,2,2,1,h.PNG,h,6122ca22ff936b11ab2aed6e,2021-09-08_19h54.36.243,forced_choiceRT,2021.1.2,MacIntel,60.14675809,,,,,,,,,,,,,,,,,,,,,,
,0,f,1,1.3149,0,3,3,0,1,f.PNG,f,6122ca22ff936b11ab2aed6e,2021-09-08_19h54.36.243,forced_choiceRT,2021.1.2,MacIntel,60.14675809,,,,,,,,,,,,,,,,,,,,,,
,0,h,1,1.087,1,0,4,2,1,h.PNG,h,6122ca22ff936b11ab2aed6e,2021-09-08_19h54.36.243,forced_choiceRT,2021.1.2,MacIntel,60.14675809,,,,,,,,,,,,,,,,,,,,,,
,0,j,1,1.0322,1,1,5,3,1,j.PNG,j,6122ca22ff936b11ab2aed6e,2021-09-08_19h54.36.243,forced_choiceRT,2021.1.2,MacIntel,60.14675809,,,,,,,,,,,,,,,,,,,,,,
,0,f,1,0.8819,1,2,6,0,1,f.PNG,f,6122ca22ff936b11ab2aed6e,2021-09-08_19h54.36.243,forced_choiceRT,2021.1.2,MacIntel,60.14675809,,,,,,,,,,,,,,,,,,,,,,
,0,g,1,0.8145,1,3,7,1,1,g.PNG,g,6122ca22ff936b11ab2aed6e,2021-09-08_19h54.36.243,forced_choiceRT,2021.1.2,MacIntel,60.14675809,,,,,,,,,,,,,,,,,,,,,,
,0,f,1,0.8877,2,0,8,0,1,f.PNG,f,6122ca22ff936b11ab2aed6e,2021-09-08_19h54.36.243,forced_choiceRT,2021.1.2,MacIntel,60.14675809,,,,,,,,,,,,,,,,,,,,,,
,0,j,1,1.4476,2,1,9,3,1,j.PNG,j,6122ca22ff936b11ab2aed6e,2021-09-08_19h54.36.243,forced_choiceRT,2021.1.2,MacIntel,60.14675809,,,,,,,,,,,,,,,,,,,,,,
,0,h,1,1.4489,2,2,10,2,1,h.PNG,h,6122ca22ff936b11ab2aed6e,2021-09-08_19h54.36.243,forced_choiceRT,2021.1.2,MacIntel,60.14675809,,,,,,,,,,,,,,,,,,,,,,
,0,h,1,0.9543,2,3,11,2,1,h.PNG,h,6122ca22ff936b11ab2aed6e,2021-09-08_19h54.36.243,forced_choiceRT,2021.1.2,MacIntel,60.14675809,,,,,,,,,,,,,,,,,,,,,,
,0,f,1,0.6989,3,0,12,0,1,f.PNG,f,6122ca22ff936b11ab2aed6e,2021-09-08_19h54.36.243,forced_choiceRT,2021.1.2,MacIntel,60.14675809,,,,,,,,,,,,,,,,,,,,,,
,0,g,1,0.6826,3,1,13,1,1,g.PNG,g,6122ca22ff936b11ab2aed6e,2021-09-08_19h54.36.243,forced_choiceRT,2021.1.2,MacIntel,60.14675809,,,,,,,,,,,,,,,,,,,,,,
,0,h,1,0.8358,3,2,14,2,1,h.PNG,h,6122ca22ff936b11ab2aed6e,2021-09-08_19h54.36.243,forced_choiceRT,2021.1.2,MacIntel,60.14675809,,,,,,,,,,,,,,,,,,,,,,
,0,h,1,0.7164,3,3,15,2,1,h.PNG,h,6122ca22ff936b11ab2aed6e,2021-09-08_19h54.36.243,forced_choiceRT,2021.1.2,MacIntel,60.14675809,,,,,,,,,,,,,,,,,,,,,,
,0,f,1,0.6161,4,0,16,0,1,f.PNG,f,6122ca22ff936b11ab2aed6e,2021-09-08_19h54.36.243,forced_choiceRT,2021.1.2,MacIntel,60.14675809,,,,,,,,,,,,,,,,,,,,,,
,0,g,1,0.8993,4,1,17,1,1,g.PNG,g,6122ca22ff936b11ab2aed6e,2021-09-08_19h54.36.243,forced_choiceRT,2021.1.2,MacIntel,60.14675809,,,,,,,,,,,,,,,,,,,,,,
,0,j,1,0.778,4,2,18,3,1,j.PNG,j,6122ca22ff936b11ab2aed6e,2021-09-08_19h54.36.243,forced_choiceRT,2021.1.2,MacIntel,60.14675809,,,,,,,,,,,,,,,,,,,,,,
,0,h,1,0.7313,4,3,19,2,1,h.PNG,h,6122ca22ff936b11ab2aed6e,2021-09-08_19h54.36.243,forced_choiceRT,2021.1.2,MacIntel,60.14675809,,,,,,,,,,,,,,,,,,,,,,
,0,h,1,0.6475,5,0,20,2,1,h.PNG,h,6122ca22ff936b11ab2aed6e,2021-09-08_19h54.36.243,forced_choiceRT,2021.1.2,MacIntel,60.14675809,,,,,,,,,,,,,,,,,,,,,,
,0,j,1,0.848,5,1,21,3,1,j.PNG,j,6122ca22ff936b11ab2aed6e,2021-09-08_19h54.36.243,forced_choiceRT,2021.1.2,MacIntel,60.14675809,,,,,,,,,,,,,,,,,,,,,,
,0,g,1,0.9218,5,2,22,1,1,g.PNG,g,6122ca22ff936b11ab2aed6e,2021-09-08_19h54.36.243,forced_choiceRT,2021.1.2,MacIntel,60.14675809,,,,,,,,,,,,,,,,,,,,,,
,0,g,1,0.75,5,3,23,1,1,g.PNG,g,6122ca22ff936b11ab2aed6e,2021-09-08_19h54.36.243,forced_choiceRT,2021.1.2,MacIntel,60.14675809,,,,,,,,,,,,,,,,,,,,,,
,0,g,1,0.739,6,0,24,1,1,g.PNG,g,6122ca22ff936b11ab2aed6e,2021-09-08_19h54.36.243,forced_choiceRT,2021.1.2,MacIntel,60.14675809,,,,,,,,,,,,,,,,,,,,,,
,0,j,1,1.3196,6,1,25,3,1,j.PNG,j,6122ca22ff936b11ab2aed6e,2021-09-08_19h54.36.243,forced_choiceRT,2021.1.2,MacIntel,60.14675809,,,,,,,,,,,,,,,,,,,,,,
,0,g,1,0.7656,6,2,26,1,1,g.PNG,g,6122ca22ff936b11ab2aed6e,2021-09-08_19h54.36.243,forced_choiceRT,2021.1.2,MacIntel,60.14675809,,,,,,,,,,,,,,,,,,,,,,
,0,h,1,0.8654,6,3,27,2,1,h.PNG,h,6122ca22ff936b11ab2aed6e,2021-09-08_19h54.36.243,forced_choiceRT,2021.1.2,MacIntel,60.14675809,,,,,,,,,,,,,,,,,,,,,,
,0,j,1,0.7454,7,0,28,3,1,j.PNG,j,6122ca22ff936b11ab2aed6e,2021-09-08_19h54.36.243,forced_choiceRT,2021.1.2,MacIntel,60.14675809,,,,,,,,,,,,,,,,,,,,,,
,0,h,1,0.838,7,1,29,2,1,h.PNG,h,6122ca22ff936b11ab2aed6e,2021-09-08_19h54.36.243,forced_choiceRT,2021.1.2,MacIntel,60.14675809,,,,,,,,,,,,,,,,,,,,,,
,0,f,1,0.6708,7,2,30,0,1,f.PNG,f,6122ca22ff936b11ab2aed6e,2021-09-08_19h54.36.243,forced_choiceRT,2021.1.2,MacIntel,60.14675809,,,,,,,,,,,,,,,,,,,,,,
,0,g,1,1.3101,7,3,31,1,1,g.PNG,g,6122ca22ff936b11ab2aed6e,2021-09-08_19h54.36.243,forced_choiceRT,2021.1.2,MacIntel,60.14675809,,,,,,,,,,,,,,,,,,,,,,
,0,j,1,0.8981,8,0,32,3,1,j.PNG,j,6122ca22ff936b11ab2aed6e,2021-09-08_19h54.36.243,forced_choiceRT,2021.1.2,MacIntel,60.14675809,,,,,,,,,,,,,,,,,,,,,,
,0,g,1,0.8313,8,1,33,1,1,g.PNG,g,6122ca22ff936b11ab2aed6e,2021-09-08_19h54.36.243,forced_choiceRT,2021.1.2,MacIntel,60.14675809,,,,,,,,,,,,,,,,,,,,,,
,0,j,1,0.7815,8,2,34,3,1,j.PNG,j,6122ca22ff936b11ab2aed6e,2021-09-08_19h54.36.243,forced_choiceRT,2021.1.2,MacIntel,60.14675809,,,,,,,,,,,,,,,,,,,,,,
,0,f,1,0.6158,8,3,35,0,1,f.PNG,f,6122ca22ff936b11ab2aed6e,2021-09-08_19h54.36.243,forced_choiceRT,2021.1.2,MacIntel,60.14675809,,,,,,,,,,,,,,,,,,,,,,
,0,f,1,0.7186,9,0,36,0,1,f.PNG,f,6122ca22ff936b11ab2aed6e,2021-09-08_19h54.36.243,forced_choiceRT,2021.1.2,MacIntel,60.14675809,,,,,,,,,,,,,,,,,,,,,,
,0,j,1,0.7557,9,1,37,3,1,j.PNG,j,6122ca22ff936b11ab2aed6e,2021-09-08_19h54.36.243,forced_choiceRT,2021.1.2,MacIntel,60.14675809,,,,,,,,,,,,,,,,,,,,,,
,0,g,1,0.7477,9,2,38,1,1,g.PNG,g,6122ca22ff936b11ab2aed6e,2021-09-08_19h54.36.243,forced_choiceRT,2021.1.2,MacIntel,60.14675809,,,,,,,,,,,,,,,,,,,,,,
,0,g,1,0.6326,9,3,39,1,1,g.PNG,g,6122ca22ff936b11ab2aed6e,2021-09-08_19h54.36.243,forced_choiceRT,2021.1.2,MacIntel,60.14675809,,,,,,,,,,,,,,,,,,,,,,
,0,f,1,0.6369,10,0,40,0,1,f.PNG,f,6122ca22ff936b11ab2aed6e,2021-09-08_19h54.36.243,forced_choiceRT,2021.1.2,MacIntel,60.14675809,,,,,,,,,,,,,,,,,,,,,,
,0,f,1,0.7993,10,1,41,0,1,f.PNG,f,6122ca22ff936b11ab2aed6e,2021-09-08_19h54.36.243,forced_choiceRT,2021.1.2,MacIntel,60.14675809,,,,,,,,,,,,,,,,,,,,,,
,0,h,1,0.9819,10,2,42,2,1,h.PNG,h,6122ca22ff936b11ab2aed6e,2021-09-08_19h54.36.243,forced_choiceRT,2021.1.2,MacIntel,60.14675809,,,,,,,,,,,,,,,,,,,,,,
,0,f,1,0.6506,10,3,43,0,1,f.PNG,f,6122ca22ff936b11ab2aed6e,2021-09-08_19h54.36.243,forced_choiceRT,2021.1.2,MacIntel,60.14675809,,,,,,,,,,,,,,,,,,,,,,
,0,h,1,0.731,11,0,44,2,1,h.PNG,h,6122ca22ff936b11ab2aed6e,2021-09-08_19h54.36.243,forced_choiceRT,2021.1.2,MacIntel,60.14675809,,,,,,,,,,,,,,,,,,,,,,
,0,j,1,0.6822,11,1,45,3,1,j.PNG,j,6122ca22ff936b11ab2aed6e,2021-09-08_19h54.36.243,forced_choiceRT,2021.1.2,MacIntel,60.14675809,,,,,,,,,,,,,,,,,,,,,,
,0,j,1,0.6061,11,2,46,3,1,j.PNG,j,6122ca22ff936b11ab2aed6e,2021-09-08_19h54.36.243,forced_choiceRT,2021.1.2,MacIntel,60.14675809,,,,,,,,,,,,,,,,,,,,,,
,0,j,1,0.6554,11,3,47,3,1,j.PNG,j,6122ca22ff936b11ab2aed6e,2021-09-08_19h54.36.243,forced_choiceRT,2021.1.2,MacIntel,60.14675809,,,,,,,,,,,,,,,,,,,,,,
,0,j,1,0.6871,12,0,48,3,1,j.PNG,j,6122ca22ff936b11ab2aed6e,2021-09-08_19h54.36.243,forced_choiceRT,2021.1.2,MacIntel,60.14675809,,,,,,,,,,,,,,,,,,,,,,
,0,g,1,0.7653,12,1,49,1,1,g.PNG,g,6122ca22ff936b11ab2aed6e,2021-09-08_19h54.36.243,forced_choiceRT,2021.1.2,MacIntel,60.14675809,,,,,,,,,,,,,,,,,,,,,,
,0,g,1,0.5694,12,2,50,1,1,g.PNG,g,6122ca22ff936b11ab2aed6e,2021-09-08_19h54.36.243,forced_choiceRT,2021.1.2,MacIntel,60.14675809,,,,,,,,,,,,,,,,,,,,,,
,0,h,1,0.8982,12,3,51,2,1,h.PNG,h,6122ca22ff936b11ab2aed6e,2021-09-08_19h54.36.243,forced_choiceRT,2021.1.2,MacIntel,60.14675809,,,,,,,,,,,,,,,,,,,,,,
,0,f,1,0.5999,13,0,52,0,1,f.PNG,f,6122ca22ff936b11ab2aed6e,2021-09-08_19h54.36.243,forced_choiceRT,2021.1.2,MacIntel,60.14675809,,,,,,,,,,,,,,,,,,,,,,
,0,h,1,0.7566,13,1,53,2,1,h.PNG,h,6122ca22ff936b11ab2aed6e,2021-09-08_19h54.36.243,forced_choiceRT,2021.1.2,MacIntel,60.14675809,,,,,,,,,,,,,,,,,,,,,,
,0,f,1,0.6652,13,2,54,0,1,f.PNG,f,6122ca22ff936b11ab2aed6e,2021-09-08_19h54.36.243,forced_choiceRT,2021.1.2,MacIntel,60.14675809,,,,,,,,,,,,,,,,,,,,,,
,0,g,1,0.6115,13,3,55,1,1,g.PNG,g,6122ca22ff936b11ab2aed6e,2021-09-08_19h54.36.243,forced_choiceRT,2021.1.2,MacIntel,60.14675809,,,,,,,,,,,,,,,,,,,,,,
,0,g,1,0.7205,14,0,56,1,1,g.PNG,g,6122ca22ff936b11ab2aed6e,2021-09-08_19h54.36.243,forced_choiceRT,2021.1.2,MacIntel,60.14675809,,,,,,,,,,,,,,,,,,,,,,
,0,f,1,0.6997,14,1,57,0,1,f.PNG,f,6122ca22ff936b11ab2aed6e,2021-09-08_19h54.36.243,forced_choiceRT,2021.1.2,MacIntel,60.14675809,,,,,,,,,,,,,,,,,,,,,,
,0,j,1,0.6998,14,2,58,3,1,j.PNG,j,6122ca22ff936b11ab2aed6e,2021-09-08_19h54.36.243,forced_choiceRT,2021.1.2,MacIntel,60.14675809,,,,,,,,,,,,,,,,,,,,,,
,0,j,1,0.6613,14,3,59,3,1,j.PNG,j,6122ca22ff936b11ab2aed6e,2021-09-08_19h54.36.243,forced_choiceRT,2021.1.2,MacIntel,60.14675809,,,,,,,,,,,,,,,,,,,,,,
,,,,,,,,,,,,6122ca22ff936b11ab2aed6e,2021-09-08_19h54.36.243,forced_choiceRT,2021.1.2,MacIntel,60.14675809,j,2.2616,0,0,0,0,1,,,,,,,,,,,,,,,
,,,,,,,,,,,,6122ca22ff936b11ab2aed6e,2021-09-08_19h54.36.243,forced_choiceRT,2021.1.2,MacIntel,60.14675809,j,1.7801,1,0,1,0,1,,,,,,,,,,,,,,,
,,,,,,,,,,,,6122ca22ff936b11ab2aed6e,2021-09-08_19h54.36.243,forced_choiceRT,2021.1.2,MacIntel,60.14675809,f,1.9127,2,0,2,0,1,,,,,,,,,,,,,,,
,,,,,,,,,,,,6122ca22ff936b11ab2aed6e,2021-09-08_19h54.36.243,forced_choiceRT,2021.1.2,MacIntel,60.14675809,f,1.7634,3,0,3,0,1,,,,,,,,,,,,,,,
,,,,,,,,,,,,6122ca22ff936b11ab2aed6e,2021-09-08_19h54.36.243,forced_choiceRT,2021.1.2,MacIntel,60.14675809,f,1.7687,4,0,4,0,1,,,,,,,,,,,,,,,
,,,,,,,,,,,,6122ca22ff936b11ab2aed6e,2021-09-08_19h54.36.243,forced_choiceRT,2021.1.2,MacIntel,60.14675809,f,1.9845,5,0,5,0,1,,,,,,,,,,,,,,,
,,,,,,,,,,,,6122ca22ff936b11ab2aed6e,2021-09-08_19h54.36.243,forced_choiceRT,2021.1.2,MacIntel,60.14675809,g,2.0794,6,0,6,0,1,,,,,,,,,,,,,,,
,,,,,,,,,,,,6122ca22ff936b11ab2aed6e,2021-09-08_19h54.36.243,forced_choiceRT,2021.1.2,MacIntel,60.14675809,f,2.0676,7,0,7,0,1,,,,,,,,,,,,,,,
,,,,,,,,,,,,6122ca22ff936b11ab2aed6e,2021-09-08_19h54.36.243,forced_choiceRT,2021.1.2,MacIntel,60.14675809,j,2.1191,8,0,8,0,1,,,,,,,,,,,,,,,
,,,,,,,,,,,,6122ca22ff936b11ab2aed6e,2021-09-08_19h54.36.243,forced_choiceRT,2021.1.2,MacIntel,60.14675809,f,2.0291,9,0,9,0,1,,,,,,,,,,,,,,,
,,,,,,,,,,,,6122ca22ff936b11ab2aed6e,2021-09-08_19h54.36.243,forced_choiceRT,2021.1.2,MacIntel,60.14675809,f,2.0868,10,0,10,0,1,,,,,,,,,,,,,,,
,,,,,,,,,,,,6122ca22ff936b11ab2aed6e,2021-09-08_19h54.36.243,forced_choiceRT,2021.1.2,MacIntel,60.14675809,f,2.0284,11,0,11,0,1,,,,,,,,,,,,,,,
,,,,,,,,,,,,6122ca22ff936b11ab2aed6e,2021-09-08_19h54.36.243,forced_choiceRT,2021.1.2,MacIntel,60.14675809,f,2.0797,12,0,12,0,1,,,,,,,,,,,,,,,
,,,,,,,,,,,,6122ca22ff936b11ab2aed6e,2021-09-08_19h54.36.243,forced_choiceRT,2021.1.2,MacIntel,60.14675809,f,2.0294,13,0,13,0,1,,,,,,,,,,,,,,,
,,,,,,,,,,,,6122ca22ff936b11ab2aed6e,2021-09-08_19h54.36.243,forced_choiceRT,2021.1.2,MacIntel,60.14675809,f,2.0292,14,0,14,0,1,,,,,,,,,,,,,,,
,,,,,,,,,,,,6122ca22ff936b11ab2aed6e,2021-09-08_19h54.36.243,forced_choiceRT,2021.1.2,MacIntel,60.14675809,f,2.1954,15,0,15,0,1,,,,,,,,,,,,,,,
,,,,,,,,,,,,6122ca22ff936b11ab2aed6e,2021-09-08_19h54.36.243,forced_choiceRT,2021.1.2,MacIntel,60.14675809,f,2.0192,16,0,16,0,1,,,,,,,,,,,,,,,
,,,,,,,,,,,,6122ca22ff936b11ab2aed6e,2021-09-08_19h54.36.243,forced_choiceRT,2021.1.2,MacIntel,60.14675809,f,2.0115,17,0,17,0,1,,,,,,,,,,,,,,,
,,,,,,,,,,,,6122ca22ff936b11ab2aed6e,2021-09-08_19h54.36.243,forced_choiceRT,2021.1.2,MacIntel,60.14675809,f,2.0143,18,0,18,0,1,,,,,,,,,,,,,,,
,,,,,,,,,,,,6122ca22ff936b11ab2aed6e,2021-09-08_19h54.36.243,forced_choiceRT,2021.1.2,MacIntel,60.14675809,f,2.1483,19,0,19,0,1,,,,,,,,,,,,,,,
,0.12,,,,,,,,,f.PNG,f,6122ca22ff936b11ab2aed6e,2021-09-08_19h54.36.243,forced_choiceRT,2021.1.2,MacIntel,60.14675809,,,,,,,,1,Fast,f,1,1.8418,0,0,0,0,1,,,,,
,1.14,,,,,,,,,g.PNG,g,6122ca22ff936b11ab2aed6e,2021-09-08_19h54.36.243,forced_choiceRT,2021.1.2,MacIntel,60.14675809,,,,,,,,1,Slow,g,1,2.2128,0,1,1,1,1,,,,,
,0.77,,,,,,,,,f.PNG,f,6122ca22ff936b11ab2aed6e,2021-09-08_19h54.36.243,forced_choiceRT,2021.1.2,MacIntel,60.14675809,,,,,,,,1,Ontime,f,1,2.0132,0,2,2,0,1,,,,,
,1.86,,,,,,,,,g.PNG,g,6122ca22ff936b11ab2aed6e,2021-09-08_19h54.36.243,forced_choiceRT,2021.1.2,MacIntel,60.14675809,,,,,,,,1,Slow,g,1,2.3859,0,3,3,1,1,,,,,
,1.25,,,,,,,,,h.PNG,h,6122ca22ff936b11ab2aed6e,2021-09-08_19h54.36.243,forced_choiceRT,2021.1.2,MacIntel,60.14675809,,,,,,,,1,Fast,f,0,1.7168,1,0,4,2,1,,,,,
,1.8,,,,,,,,,g.PNG,g,6122ca22ff936b11ab2aed6e,2021-09-08_19h54.36.243,forced_choiceRT,2021.1.2,MacIntel,60.14675809,,,,,,,,1,Slow,g,1,8.6662,1,1,5,1,1,,,,,
,0.36,,,,,,,,,g.PNG,g,6122ca22ff936b11ab2aed6e,2021-09-08_19h54.36.243,forced_choiceRT,2021.1.2,MacIntel,60.14675809,,,,,,,,1,Fast,g,1,1.5856,1,2,6,1,1,,,,,
,1.1,,,,,,,,,h.PNG,h,6122ca22ff936b11ab2aed6e,2021-09-08_19h54.36.243,forced_choiceRT,2021.1.2,MacIntel,60.14675809,,,,,,,,1,Fast,h,1,1.796,1,3,7,2,1,,,,,
,0.54,,,,,,,,,j.PNG,j,6122ca22ff936b11ab2aed6e,2021-09-08_19h54.36.243,forced_choiceRT,2021.1.2,MacIntel,60.14675809,,,,,,,,1,Ontime,j,1,2.0823,2,0,8,3,1,,,,,
,1.52,,,,,,,,,j.PNG,j,6122ca22ff936b11ab2aed6e,2021-09-08_19h54.36.243,forced_choiceRT,2021.1.2,MacIntel,60.14675809,,,,,,,,1,Ontime,g,0,2.0477,2,1,9,3,1,,,,,
,1.34,,,,,,,,,f.PNG,f,6122ca22ff936b11ab2aed6e,2021-09-08_19h54.36.243,forced_choiceRT,2021.1.2,MacIntel,60.14675809,,,,,,,,1,Ontime,f,1,1.9428,2,2,10,0,1,,,,,
,1.93,,,,,,,,,g.PNG,g,6122ca22ff936b11ab2aed6e,2021-09-08_19h54.36.243,forced_choiceRT,2021.1.2,MacIntel,60.14675809,,,,,,,,1,Slow,j,0,5.5547,2,3,11,1,1,,,,,
,0.41,,,,,,,,,j.PNG,j,6122ca22ff936b11ab2aed6e,2021-09-08_19h54.36.243,forced_choiceRT,2021.1.2,MacIntel,60.14675809,,,,,,,,1,Fast,j,1,1.8723,3,0,12,3,1,,,,,
,0.89,,,,,,,,,j.PNG,j,6122ca22ff936b11ab2aed6e,2021-09-08_19h54.36.243,forced_choiceRT,2021.1.2,MacIntel,60.14675809,,,,,,,,1,Ontime,j,1,1.9861,3,1,13,3,1,,,,,
,0.39,,,,,,,,,h.PNG,h,6122ca22ff936b11ab2aed6e,2021-09-08_19h54.36.243,forced_choiceRT,2021.1.2,MacIntel,60.14675809,,,,,,,,1,Ontime,h,1,1.9624,3,2,14,2,1,,,,,
,0.93,,,,,,,,,j.PNG,j,6122ca22ff936b11ab2aed6e,2021-09-08_19h54.36.243,forced_choiceRT,2021.1.2,MacIntel,60.14675809,,,,,,,,1,Fast,j,1,1.8798,3,3,15,3,1,,,,,
,1.25,,,,,,,,,j.PNG,j,6122ca22ff936b11ab2aed6e,2021-09-08_19h54.36.243,forced_choiceRT,2021.1.2,MacIntel,60.14675809,,,,,,,,1,Ontime,j,1,2.0349,4,0,16,3,1,,,,,
,1.57,,,,,,,,,h.PNG,h,6122ca22ff936b11ab2aed6e,2021-09-08_19h54.36.243,forced_choiceRT,2021.1.2,MacIntel,60.14675809,,,,,,,,1,Slow,h,1,2.1144,4,1,17,2,1,,,,,
,0.56,,,,,,,,,h.PNG,h,6122ca22ff936b11ab2aed6e,2021-09-08_19h54.36.243,forced_choiceRT,2021.1.2,MacIntel,60.14675809,,,,,,,,1,Fast,h,1,1.8132,4,2,18,2,1,,,,,
,1.36,,,,,,,,,j.PNG,j,6122ca22ff936b11ab2aed6e,2021-09-08_19h54.36.243,forced_choiceRT,2021.1.2,MacIntel,60.14675809,,,,,,,,1,Ontime,j,1,1.9343,4,3,19,3,1,,,,,
,1.09,,,,,,,,,f.PNG,f,6122ca22ff936b11ab2aed6e,2021-09-08_19h54.36.243,forced_choiceRT,2021.1.2,MacIntel,60.14675809,,,,,,,,1,Slow,f,1,2.1582,5,0,20,0,1,,,,,
,0.42,,,,,,,,,f.PNG,f,6122ca22ff936b11ab2aed6e,2021-09-08_19h54.36.243,forced_choiceRT,2021.1.2,MacIntel,60.14675809,,,,,,,,1,Slow,f,1,2.1478,5,1,21,0,1,,,,,
,0.08,,,,,,,,,j.PNG,j,6122ca22ff936b11ab2aed6e,2021-09-08_19h54.36.243,forced_choiceRT,2021.1.2,MacIntel,60.14675809,,,,,,,,1,Ontime,j,1,1.9678,5,2,22,3,1,,,,,
,1.23,,,,,,,,,h.PNG,h,6122ca22ff936b11ab2aed6e,2021-09-08_19h54.36.243,forced_choiceRT,2021.1.2,MacIntel,60.14675809,,,,,,,,1,Slow,h,1,2.1953,5,3,23,2,1,,,,,
,1.88,,,,,,,,,h.PNG,h,6122ca22ff936b11ab2aed6e,2021-09-08_19h54.36.243,forced_choiceRT,2021.1.2,MacIntel,60.14675809,,,,,,,,1,Ontime,g,0,1.9462,6,0,24,2,1,,,,,
,0.74,,,,,,,,,f.PNG,f,6122ca22ff936b11ab2aed6e,2021-09-08_19h54.36.243,forced_choiceRT,2021.1.2,MacIntel,60.14675809,,,,,,,,1,Ontime,f,1,1.9337,6,1,25,0,1,,,,,
,0.85,,,,,,,,,f.PNG,f,6122ca22ff936b11ab2aed6e,2021-09-08_19h54.36.243,forced_choiceRT,2021.1.2,MacIntel,60.14675809,,,,,,,,1,Ontime,f,1,1.9613,6,2,26,0,1,,,,,
,1.85,,,,,,,,,g.PNG,g,6122ca22ff936b11ab2aed6e,2021-09-08_19h54.36.243,forced_choiceRT,2021.1.2,MacIntel,60.14675809,,,,,,,,1,Fast,h,0,1.8822,6,3,27,1,1,,,,,
,0.69,,,,,,,,,f.PNG,f,6122ca22ff936b11ab2aed6e,2021-09-08_19h54.36.243,forced_choiceRT,2021.1.2,MacIntel,60.14675809,,,,,,,,1,Ontime,f,1,1.9297,7,0,28,0,1,,,,,
,0.81,,,,,,,,,h.PNG,h,6122ca22ff936b11ab2aed6e,2021-09-08_19h54.36.243,forced_choiceRT,2021.1.2,MacIntel,60.14675809,,,,,,,,1,Fast,h,1,1.8194,7,1,29,2,1,,,,,
,1.72,,,,,,,,,g.PNG,g,6122ca22ff936b11ab2aed6e,2021-09-08_19h54.36.243,forced_choiceRT,2021.1.2,MacIntel,60.14675809,,,,,,,,1,Slow,h,0,2.1279,7,2,30,1,1,,,,,
,0.95,,,,,,,,,h.PNG,h,6122ca22ff936b11ab2aed6e,2021-09-08_19h54.36.243,forced_choiceRT,2021.1.2,MacIntel,60.14675809,,,,,,,,1,Ontime,h,1,1.9506,7,3,31,2,1,,,,,
,1.19,,,,,,,,,g.PNG,g,6122ca22ff936b11ab2aed6e,2021-09-08_19h54.36.243,forced_choiceRT,2021.1.2,MacIntel,60.14675809,,,,,,,,1,Fast,g,1,1.866,8,0,32,1,1,,,,,
,0.08,,,,,,,,,f.PNG,f,6122ca22ff936b11ab2aed6e,2021-09-08_19h54.36.243,forced_choiceRT,2021.1.2,MacIntel,60.14675809,,,,,,,,1,Fast,f,1,1.8132,8,1,33,0,1,,,,,
,0.14,,,,,,,,,j.PNG,j,6122ca22ff936b11ab2aed6e,2021-09-08_19h54.36.243,forced_choiceRT,2021.1.2,MacIntel,60.14675809,,,,,,,,1,Ontime,j,1,1.9965,8,2,34,3,1,,,,,
,0.6,,,,,,,,,g.PNG,g,6122ca22ff936b11ab2aed6e,2021-09-08_19h54.36.243,forced_choiceRT,2021.1.2,MacIntel,60.14675809,,,,,,,,1,Ontime,g,1,1.9496,8,3,35,1,1,,,,,
,1.29,,,,,,,,,h.PNG,h,6122ca22ff936b11ab2aed6e,2021-09-08_19h54.36.243,forced_choiceRT,2021.1.2,MacIntel,60.14675809,,,,,,,,1,Fast,h,1,1.7081,9,0,36,2,1,,,,,
,1.35,,,,,,,,,f.PNG,f,6122ca22ff936b11ab2aed6e,2021-09-08_19h54.36.243,forced_choiceRT,2021.1.2,MacIntel,60.14675809,,,,,,,,1,Fast,f,1,1.8848,9,1,37,0,1,,,,,
,0.83,,,,,,,,,j.PNG,j,6122ca22ff936b11ab2aed6e,2021-09-08_19h54.36.243,forced_choiceRT,2021.1.2,MacIntel,60.14675809,,,,,,,,1,Ontime,j,1,2.0505,9,2,38,3,1,,,,,
,1.75,,,,,,,,,g.PNG,g,6122ca22ff936b11ab2aed6e,2021-09-08_19h54.36.243,forced_choiceRT,2021.1.2,MacIntel,60.14675809,,,,,,,,1,Slow,g,1,2.1358,9,3,39,1,1,,,,,
,,,,,,,,,,,,6122ca22ff936b11ab2aed6e,2021-09-08_19h54.36.243,forced_choiceRT,2021.1.2,MacIntel,60.14675809,,,,,,,,,,,,,,,,,,0,0,0,0,1
,0.96,,,,,,,,,h.PNG,h,6122ca22ff936b11ab2aed6e,2021-09-08_19h54.36.243,forced_choiceRT,2021.1.2,MacIntel,60.14675809,,,,,,,,2,Ontime,h,1,2.0154,0,0,0,2,1,,,,,
,1.78,,,,,,,,,f.PNG,f,6122ca22ff936b11ab2aed6e,2021-09-08_19h54.36.243,forced_choiceRT,2021.1.2,MacIntel,60.14675809,,,,,,,,2,Ontime,j,0,1.9682,0,1,1,0,1,,,,,
,1.8,,,,,,,,,g.PNG,g,6122ca22ff936b11ab2aed6e,2021-09-08_19h54.36.243,forced_choiceRT,2021.1.2,MacIntel,60.14675809,,,,,,,,2,Fast,g,1,1.7799,0,2,2,1,1,,,,,
,1.16,,,,,,,,,j.PNG,j,6122ca22ff936b11ab2aed6e,2021-09-08_19h54.36.243,forced_choiceRT,2021.1.2,MacIntel,60.14675809,,,,,,,,2,Slow,j,1,2.1516,0,3,3,3,1,,,,,
,0.89,,,,,,,,,j.PNG,j,6122ca22ff936b11ab2aed6e,2021-09-08_19h54.36.243,forced_choiceRT,2021.1.2,MacIntel,60.14675809,,,,,,,,2,Ontime,j,1,1.9587,1,0,4,3,1,,,,,
,1.76,,,,,,,,,g.PNG,g,6122ca22ff936b11ab2aed6e,2021-09-08_19h54.36.243,forced_choiceRT,2021.1.2,MacIntel,60.14675809,,,,,,,,2,Ontime,f,0,1.9954,1,1,5,1,1,,,,,
,0.55,,,,,,,,,f.PNG,f,6122ca22ff936b11ab2aed6e,2021-09-08_19h54.36.243,forced_choiceRT,2021.1.2,MacIntel,60.14675809,,,,,,,,2,Ontime,f,1,1.9624,1,2,6,0,1,,,,,
,0.14,,,,,,,,,h.PNG,h,6122ca22ff936b11ab2aed6e,2021-09-08_19h54.36.243,forced_choiceRT,2021.1.2,MacIntel,60.14675809,,,,,,,,2,Ontime,h,1,1.9471,1,3,7,2,1,,,,,
,1.27,,,,,,,,,g.PNG,g,6122ca22ff936b11ab2aed6e,2021-09-08_19h54.36.243,forced_choiceRT,2021.1.2,MacIntel,60.14675809,,,,,,,,2,Ontime,g,1,1.9469,2,0,8,1,1,,,,,
,1.92,,,,,,,,,j.PNG,j,6122ca22ff936b11ab2aed6e,2021-09-08_19h54.36.243,forced_choiceRT,2021.1.2,MacIntel,60.14675809,,,,,,,,2,Slow,j,1,2.1677,2,1,9,3,1,,,,,
,0.54,,,,,,,,,f.PNG,f,6122ca22ff936b11ab2aed6e,2021-09-08_19h54.36.243,forced_choiceRT,2021.1.2,MacIntel,60.14675809,,,,,,,,2,Ontime,f,1,1.9301,2,2,10,0,1,,,,,
,0.99,,,,,,,,,h.PNG,h,6122ca22ff936b11ab2aed6e,2021-09-08_19h54.36.243,forced_choiceRT,2021.1.2,MacIntel,60.14675809,,,,,,,,2,Ontime,h,1,1.982,2,3,11,2,1,,,,,
,1.21,,,,,,,,,j.PNG,j,6122ca22ff936b11ab2aed6e,2021-09-08_19h54.36.243,forced_choiceRT,2021.1.2,MacIntel,60.14675809,,,,,,,,2,Ontime,j,1,1.9361,3,0,12,3,1,,,,,
,1.12,,,,,,,,,j.PNG,j,6122ca22ff936b11ab2aed6e,2021-09-08_19h54.36.243,forced_choiceRT,2021.1.2,MacIntel,60.14675809,,,,,,,,2,Ontime,j,1,2.0833,3,1,13,3,1,,,,,
,1.79,,,,,,,,,h.PNG,h,6122ca22ff936b11ab2aed6e,2021-09-08_19h54.36.243,forced_choiceRT,2021.1.2,MacIntel,60.14675809,,,,,,,,2,Fast,g,0,1.8962,3,2,14,2,1,,,,,
,0.01,,,,,,,,,g.PNG,g,6122ca22ff936b11ab2aed6e,2021-09-08_19h54.36.243,forced_choiceRT,2021.1.2,MacIntel,60.14675809,,,,,,,,2,Ontime,g,1,1.9488,3,3,15,1,1,,,,,
,1.67,,,,,,,,,f.PNG,f,6122ca22ff936b11ab2aed6e,2021-09-08_19h54.36.243,forced_choiceRT,2021.1.2,MacIntel,60.14675809,,,,,,,,2,Ontime,j,0,2.0297,4,0,16,0,1,,,,,
,0.33,,,,,,,,,h.PNG,h,6122ca22ff936b11ab2aed6e,2021-09-08_19h54.36.243,forced_choiceRT,2021.1.2,MacIntel,60.14675809,,,,,,,,2,Fast,h,1,1.8292,4,1,17,2,1,,,,,
,0.88,,,,,,,,,g.PNG,g,6122ca22ff936b11ab2aed6e,2021-09-08_19h54.36.243,forced_choiceRT,2021.1.2,MacIntel,60.14675809,,,,,,,,2,Ontime,g,1,2.0455,4,2,18,1,1,,,,,
,0.85,,,,,,,,,h.PNG,h,6122ca22ff936b11ab2aed6e,2021-09-08_19h54.36.243,forced_choiceRT,2021.1.2,MacIntel,60.14675809,,,,,,,,2,Ontime,h,1,2.0534,4,3,19,2,1,,,,,
,0.15,,,,,,,,,f.PNG,f,6122ca22ff936b11ab2aed6e,2021-09-08_19h54.36.243,forced_choiceRT,2021.1.2,MacIntel,60.14675809,,,,,,,,2,Fast,f,1,1.7797,5,0,20,0,1,,,,,
,1.43,,,,,,,,,f.PNG,f,6122ca22ff936b11ab2aed6e,2021-09-08_19h54.36.243,forced_choiceRT,2021.1.2,MacIntel,60.14675809,,,,,,,,2,Slow,f,1,2.2127,5,1,21,0,1,,,,,
,1.73,,,,,,,,,j.PNG,j,6122ca22ff936b11ab2aed6e,2021-09-08_19h54.36.243,forced_choiceRT,2021.1.2,MacIntel,60.14675809,,,,,,,,2,Ontime,h,0,1.963,5,2,22,3,1,,,,,
,1.25,,,,,,,,,j.PNG,j,6122ca22ff936b11ab2aed6e,2021-09-08_19h54.36.243,forced_choiceRT,2021.1.2,MacIntel,60.14675809,,,,,,,,2,Ontime,j,1,1.9994,5,3,23,3,1,,,,,
,1.72,,,,,,,,,g.PNG,g,6122ca22ff936b11ab2aed6e,2021-09-08_19h54.36.243,forced_choiceRT,2021.1.2,MacIntel,60.14675809,,,,,,,,2,Ontime,j,0,2.0135,6,0,24,1,1,,,,,
,1.64,,,,,,,,,h.PNG,h,6122ca22ff936b11ab2aed6e,2021-09-08_19h54.36.243,forced_choiceRT,2021.1.2,MacIntel,60.14675809,,,,,,,,2,Ontime,f,0,2.0482,6,1,25,2,1,,,,,
,1.36,,,,,,,,,h.PNG,h,6122ca22ff936b11ab2aed6e,2021-09-08_19h54.36.243,forced_choiceRT,2021.1.2,MacIntel,60.14675809,,,,,,,,2,Ontime,h,1,2.027,6,2,26,2,1,,,,,
,0.76,,,,,,,,,j.PNG,j,6122ca22ff936b11ab2aed6e,2021-09-08_19h54.36.243,forced_choiceRT,2021.1.2,MacIntel,60.14675809,,,,,,,,2,Ontime,j,1,1.9343,6,3,27,3,1,,,,,
,1.71,,,,,,,,,g.PNG,g,6122ca22ff936b11ab2aed6e,2021-09-08_19h54.36.243,forced_choiceRT,2021.1.2,MacIntel,60.14675809,,,,,,,,2,Ontime,f,0,1.9695,7,0,28,1,1,,,,,
,0.01,,,,,,,,,f.PNG,f,6122ca22ff936b11ab2aed6e,2021-09-08_19h54.36.243,forced_choiceRT,2021.1.2,MacIntel,60.14675809,,,,,,,,2,Ontime,f,1,1.9466,7,1,29,0,1,,,,,
,1.64,,,,,,,,,g.PNG,g,6122ca22ff936b11ab2aed6e,2021-09-08_19h54.36.243,forced_choiceRT,2021.1.2,MacIntel,60.14675809,,,,,,,,2,Ontime,j,0,1.9129,7,2,30,1,1,,,,,
,1.6,,,,,,,,,g.PNG,g,6122ca22ff936b11ab2aed6e,2021-09-08_19h54.36.243,forced_choiceRT,2021.1.2,MacIntel,60.14675809,,,,,,,,2,Ontime,g,1,2.0178,7,3,31,1,1,,,,,
,0.7,,,,,,,,,h.PNG,h,6122ca22ff936b11ab2aed6e,2021-09-08_19h54.36.243,forced_choiceRT,2021.1.2,MacIntel,60.14675809,,,,,,,,2,Ontime,h,1,1.9632,8,0,32,2,1,,,,,
,1.83,,,,,,,,,j.PNG,j,6122ca22ff936b11ab2aed6e,2021-09-08_19h54.36.243,forced_choiceRT,2021.1.2,MacIntel,60.14675809,,,,,,,,2,Ontime,g,0,2.0844,8,1,33,3,1,,,,,
,1.63,,,,,,,,,j.PNG,j,6122ca22ff936b11ab2aed6e,2021-09-08_19h54.36.243,forced_choiceRT,2021.1.2,MacIntel,60.14675809,,,,,,,,2,Ontime,j,1,2.0634,8,2,34,3,1,,,,,
,0.5,,,,,,,,,h.PNG,h,6122ca22ff936b11ab2aed6e,2021-09-08_19h54.36.243,forced_choiceRT,2021.1.2,MacIntel,60.14675809,,,,,,,,2,Fast,h,1,1.8317,8,3,35,2,1,,,,,
,1.35,,,,,,,,,g.PNG,g,6122ca22ff936b11ab2aed6e,2021-09-08_19h54.36.243,forced_choiceRT,2021.1.2,MacIntel,60.14675809,,,,,,,,2,Ontime,g,1,1.9628,9,0,36,1,1,,,,,
,0.13,,,,,,,,,f.PNG,f,6122ca22ff936b11ab2aed6e,2021-09-08_19h54.36.243,forced_choiceRT,2021.1.2,MacIntel,60.14675809,,,,,,,,2,Ontime,f,1,2.0001,9,1,37,0,1,,,,,
,1.83,,,,,,,,,f.PNG,f,6122ca22ff936b11ab2aed6e,2021-09-08_19h54.36.243,forced_choiceRT,2021.1.2,MacIntel,60.14675809,,,,,,,,2,Slow,h,0,2.1957,9,2,38,0,1,,,,,
,1.52,,,,,,,,,f.PNG,f,6122ca22ff936b11ab2aed6e,2021-09-08_19h54.36.243,forced_choiceRT,2021.1.2,MacIntel,60.14675809,,,,,,,,2,Ontime,f,1,1.9149,9,3,39,0,1,,,,,
,,,,,,,,,,,,6122ca22ff936b11ab2aed6e,2021-09-08_19h54.36.243,forced_choiceRT,2021.1.2,MacIntel,60.14675809,,,,,,,,,,,,,,,,,,1,0,1,0,1
,0.08,,,,,,,,,g.PNG,g,6122ca22ff936b11ab2aed6e,2021-09-08_19h54.36.243,forced_choiceRT,2021.1.2,MacIntel,60.14675809,,,,,,,,3,Ontime,g,1,2.0622,0,0,0,1,1,,,,,
,0.36,,,,,,,,,g.PNG,g,6122ca22ff936b11ab2aed6e,2021-09-08_19h54.36.243,forced_choiceRT,2021.1.2,MacIntel,60.14675809,,,,,,,,3,Ontime,g,1,2.0298,0,1,1,1,1,,,,,
,1.18,,,,,,,,,g.PNG,g,6122ca22ff936b11ab2aed6e,2021-09-08_19h54.36.243,forced_choiceRT,2021.1.2,MacIntel,60.14675809,,,,,,,,3,Ontime,g,1,1.9336,0,2,2,1,1,,,,,
,1.38,,,,,,,,,g.PNG,g,6122ca22ff936b11ab2aed6e,2021-09-08_19h54.36.243,forced_choiceRT,2021.1.2,MacIntel,60.14675809,,,,,,,,3,Ontime,g,1,1.9292,0,3,3,1,1,,,,,
,0.38,,,,,,,,,f.PNG,f,6122ca22ff936b11ab2aed6e,2021-09-08_19h54.36.243,forced_choiceRT,2021.1.2,MacIntel,60.14675809,,,,,,,,3,Ontime,f,1,1.9322,1,0,4,0,1,,,,,
,1.77,,,,,,,,,j.PNG,j,6122ca22ff936b11ab2aed6e,2021-09-08_19h54.36.243,forced_choiceRT,2021.1.2,MacIntel,60.14675809,,,,,,,,3,Ontime,j,1,2.0313,1,1,5,3,1,,,,,
,1.2,,,,,,,,,g.PNG,g,6122ca22ff936b11ab2aed6e,2021-09-08_19h54.36.243,forced_choiceRT,2021.1.2,MacIntel,60.14675809,,,,,,,,3,Ontime,g,1,2.0309,1,2,6,1,1,,,,,
,0.32,,,,,,,,,f.PNG,f,6122ca22ff936b11ab2aed6e,2021-09-08_19h54.36.243,forced_choiceRT,2021.1.2,MacIntel,60.14675809,,,,,,,,3,Ontime,f,1,1.9825,1,3,7,0,1,,,,,
,0.29,,,,,,,,,f.PNG,f,6122ca22ff936b11ab2aed6e,2021-09-08_19h54.36.243,forced_choiceRT,2021.1.2,MacIntel,60.14675809,,,,,,,,3,Ontime,f,1,2.0476,2,0,8,0,1,,,,,
,0.31,,,,,,,,,j.PNG,j,6122ca22ff936b11ab2aed6e,2021-09-08_19h54.36.243,forced_choiceRT,2021.1.2,MacIntel,60.14675809,,,,,,,,3,Ontime,j,1,2.0153,2,1,9,3,1,,,,,
,0.9,,,,,,,,,h.PNG,h,6122ca22ff936b11ab2aed6e,2021-09-08_19h54.36.243,forced_choiceRT,2021.1.2,MacIntel,60.14675809,,,,,,,,3,Slow,h,1,2.1341,2,2,10,2,1,,,,,
,1.55,,,,,,,,,f.PNG,f,6122ca22ff936b11ab2aed6e,2021-09-08_19h54.36.243,forced_choiceRT,2021.1.2,MacIntel,60.14675809,,,,,,,,3,Ontime,f,1,1.9872,2,3,11,0,1,,,,,
,1.4,,,,,,,,,h.PNG,h,6122ca22ff936b11ab2aed6e,2021-09-08_19h54.36.243,forced_choiceRT,2021.1.2,MacIntel,60.14675809,,,,,,,,3,Ontime,h,1,1.9648,3,0,12,2,1,,,,,
,0.33,,,,,,,,,j.PNG,j,6122ca22ff936b11ab2aed6e,2021-09-08_19h54.36.243,forced_choiceRT,2021.1.2,MacIntel,60.14675809,,,,,,,,3,Fast,j,1,1.8135,3,1,13,3,1,,,,,
,0.84,,,,,,,,,g.PNG,g,6122ca22ff936b11ab2aed6e,2021-09-08_19h54.36.243,forced_choiceRT,2021.1.2,MacIntel,60.14675809,,,,,,,,3,Ontime,g,1,1.9967,3,2,14,1,1,,,,,
,1.26,,,,,,,,,g.PNG,g,6122ca22ff936b11ab2aed6e,2021-09-08_19h54.36.243,forced_choiceRT,2021.1.2,MacIntel,60.14675809,,,,,,,,3,Ontime,g,1,2.0476,3,3,15,1,1,,,,,
,1.41,,,,,,,,,j.PNG,j,6122ca22ff936b11ab2aed6e,2021-09-08_19h54.36.243,forced_choiceRT,2021.1.2,MacIntel,60.14675809,,,,,,,,3,Slow,j,1,2.1338,4,0,16,3,1,,,,,
,1.7,,,,,,,,,j.PNG,j,6122ca22ff936b11ab2aed6e,2021-09-08_19h54.36.243,forced_choiceRT,2021.1.2,MacIntel,60.14675809,,,,,,,,3,Ontime,g,0,2.0168,4,1,17,3,1,,,,,
,0.31,,,,,,,,,f.PNG,f,6122ca22ff936b11ab2aed6e,2021-09-08_19h54.36.243,forced_choiceRT,2021.1.2,MacIntel,60.14675809,,,,,,,,3,Ontime,f,1,2.029,4,2,18,0,1,,,,,
,1.91,,,,,,,,,j.PNG,j,6122ca22ff936b11ab2aed6e,2021-09-08_19h54.36.243,forced_choiceRT,2021.1.2,MacIntel,60.14675809,,,,,,,,3,Ontime,j,1,2.0127,4,3,19,3,1,,,,,
,1.3,,,,,,,,,h.PNG,h,6122ca22ff936b11ab2aed6e,2021-09-08_19h54.36.243,forced_choiceRT,2021.1.2,MacIntel,60.14675809,,,,,,,,3,Slow,h,1,2.1125,5,0,20,2,1,,,,,
,0.16,,,,,,,,,f.PNG,f,6122ca22ff936b11ab2aed6e,2021-09-08_19h54.36.243,forced_choiceRT,2021.1.2,MacIntel,60.14675809,,,,,,,,3,Ontime,f,1,1.9128,5,1,21,0,1,,,,,
,1.06,,,,,,,,,j.PNG,j,6122ca22ff936b11ab2aed6e,2021-09-08_19h54.36.243,forced_choiceRT,2021.1.2,MacIntel,60.14675809,,,,,,,,3,Ontime,j,1,2.0655,5,2,22,3,1,,,,,
,0.91,,,,,,,,,j.PNG,j,6122ca22ff936b11ab2aed6e,2021-09-08_19h54.36.243,forced_choiceRT,2021.1.2,MacIntel,60.14675809,,,,,,,,3,Ontime,j,1,1.9751,5,3,23,3,1,,,,,
,0.3,,,,,,,,,g.PNG,g,6122ca22ff936b11ab2aed6e,2021-09-08_19h54.36.243,forced_choiceRT,2021.1.2,MacIntel,60.14675809,,,,,,,,3,Ontime,g,1,2.0296,6,0,24,1,1,,,,,
,1.98,,,,,,,,,h.PNG,h,6122ca22ff936b11ab2aed6e,2021-09-08_19h54.36.243,forced_choiceRT,2021.1.2,MacIntel,60.14675809,,,,,,,,3,Ontime,j,0,2.0477,6,1,25,2,1,,,,,
,1.87,,,,,,,,,g.PNG,g,6122ca22ff936b11ab2aed6e,2021-09-08_19h54.36.243,forced_choiceRT,2021.1.2,MacIntel,60.14675809,,,,,,,,3,Slow,j,0,2.1273,6,2,26,1,1,,,,,
,1.01,,,,,,,,,f.PNG,f,6122ca22ff936b11ab2aed6e,2021-09-08_19h54.36.243,forced_choiceRT,2021.1.2,MacIntel,60.14675809,,,,,,,,3,Ontime,f,1,2.0045,6,3,27,0,1,,,,,
,1.39,,,,,,,,,h.PNG,h,6122ca22ff936b11ab2aed6e,2021-09-08_19h54.36.243,forced_choiceRT,2021.1.2,MacIntel,60.14675809,,,,,,,,3,Slow,h,1,2.1155,7,0,28,2,1,,,,,
,0.73,,,,,,,,,h.PNG,h,6122ca22ff936b11ab2aed6e,2021-09-08_19h54.36.243,forced_choiceRT,2021.1.2,MacIntel,60.14675809,,,,,,,,3,Ontime,h,1,2.0003,7,1,29,2,1,,,,,
,0.38,,,,,,,,,f.PNG,f,6122ca22ff936b11ab2aed6e,2021-09-08_19h54.36.243,forced_choiceRT,2021.1.2,MacIntel,60.14675809,,,,,,,,3,Ontime,f,1,1.9135,7,2,30,0,1,,,,,
,1.44,,,,,,,,,f.PNG,f,6122ca22ff936b11ab2aed6e,2021-09-08_19h54.36.243,forced_choiceRT,2021.1.2,MacIntel,60.14675809,,,,,,,,3,Slow,f,1,2.1655,7,3,31,0,1,,,,,
,0.58,,,,,,,,,f.PNG,f,6122ca22ff936b11ab2aed6e,2021-09-08_19h54.36.243,forced_choiceRT,2021.1.2,MacIntel,60.14675809,,,,,,,,3,Ontime,f,1,1.9514,8,0,32,0,1,,,,,
,0.02,,,,,,,,,h.PNG,h,6122ca22ff936b11ab2aed6e,2021-09-08_19h54.36.243,forced_choiceRT,2021.1.2,MacIntel,60.14675809,,,,,,,,3,Ontime,h,1,1.9866,8,1,33,2,1,,,,,
,1.03,,,,,,,,,g.PNG,g,6122ca22ff936b11ab2aed6e,2021-09-08_19h54.36.243,forced_choiceRT,2021.1.2,MacIntel,60.14675809,,,,,,,,3,Ontime,g,1,2.0032,8,2,34,1,1,,,,,
,0.74,,,,,,,,,j.PNG,j,6122ca22ff936b11ab2aed6e,2021-09-08_19h54.36.243,forced_choiceRT,2021.1.2,MacIntel,60.14675809,,,,,,,,3,Fast,j,1,1.82,8,3,35,3,1,,,,,
,0.18,,,,,,,,,h.PNG,h,6122ca22ff936b11ab2aed6e,2021-09-08_19h54.36.243,forced_choiceRT,2021.1.2,MacIntel,60.14675809,,,,,,,,3,Ontime,h,1,1.9291,9,0,36,2,1,,,,,
,1.15,,,,,,,,,h.PNG,h,6122ca22ff936b11ab2aed6e,2021-09-08_19h54.36.243,forced_choiceRT,2021.1.2,MacIntel,60.14675809,,,,,,,,3,Slow,h,1,2.1033,9,1,37,2,1,,,,,
,1,,,,,,,,,j.PNG,j,6122ca22ff936b11ab2aed6e,2021-09-08_19h54.36.243,forced_choiceRT,2021.1.2,MacIntel,60.14675809,,,,,,,,3,Fast,j,1,1.7963,9,2,38,3,1,,,,,
,0.03,,,,,,,,,h.PNG,h,6122ca22ff936b11ab2aed6e,2021-09-08_19h54.36.243,forced_choiceRT,2021.1.2,MacIntel,60.14675809,,,,,,,,3,Ontime,h,1,2.0459,9,3,39,2,1,,,,,
,,,,,,,,,,,,6122ca22ff936b11ab2aed6e,2021-09-08_19h54.36.243,forced_choiceRT,2021.1.2,MacIntel,60.14675809,,,,,,,,,,,,,,,,,,2,0,2,0,1
,1.71,,,,,,,,,g.PNG,g,6122ca22ff936b11ab2aed6e,2021-09-08_19h54.36.243,forced_choiceRT,2021.1.2,MacIntel,60.14675809,,,,,,,,4,Ontime,j,0,2.0585,0,0,0,1,1,,,,,
,1.76,,,,,,,,,g.PNG,g,6122ca22ff936b11ab2aed6e,2021-09-08_19h54.36.243,forced_choiceRT,2021.1.2,MacIntel,60.14675809,,,,,,,,4,Ontime,j,0,2.0797,0,1,1,1,1,,,,,
,0.15,,,,,,,,,g.PNG,g,6122ca22ff936b11ab2aed6e,2021-09-08_19h54.36.243,forced_choiceRT,2021.1.2,MacIntel,60.14675809,,,,,,,,4,Ontime,g,1,2.0461,0,2,2,1,1,,,,,
,1.53,,,,,,,,,j.PNG,j,6122ca22ff936b11ab2aed6e,2021-09-08_19h54.36.243,forced_choiceRT,2021.1.2,MacIntel,60.14675809,,,,,,,,4,Slow,j,1,2.1125,0,3,3,3,1,,,,,
,0.4,,,,,,,,,f.PNG,f,6122ca22ff936b11ab2aed6e,2021-09-08_19h54.36.243,forced_choiceRT,2021.1.2,MacIntel,60.14675809,,,,,,,,4,Ontime,f,1,2.013,1,0,4,0,1,,,,,
,1.35,,,,,,,,,j.PNG,j,6122ca22ff936b11ab2aed6e,2021-09-08_19h54.36.243,forced_choiceRT,2021.1.2,MacIntel,60.14675809,,,,,,,,4,Slow,j,1,2.1624,1,1,5,3,1,,,,,
,1.13,,,,,,,,,f.PNG,f,6122ca22ff936b11ab2aed6e,2021-09-08_19h54.36.243,forced_choiceRT,2021.1.2,MacIntel,60.14675809,,,,,,,,4,Ontime,f,1,1.9966,1,2,6,0,1,,,,,
,0.28,,,,,,,,,f.PNG,f,6122ca22ff936b11ab2aed6e,2021-09-08_19h54.36.243,forced_choiceRT,2021.1.2,MacIntel,60.14675809,,,,,,,,4,Fast,f,1,1.8138,1,3,7,0,1,,,,,
,1.42,,,,,,,,,h.PNG,h,6122ca22ff936b11ab2aed6e,2021-09-08_19h54.36.243,forced_choiceRT,2021.1.2,MacIntel,60.14675809,,,,,,,,4,Ontime,h,1,2.0849,2,0,8,2,1,,,,,
,1.31,,,,,,,,,g.PNG,g,6122ca22ff936b11ab2aed6e,2021-09-08_19h54.36.243,forced_choiceRT,2021.1.2,MacIntel,60.14675809,,,,,,,,4,Slow,f,0,2.1078,2,1,9,1,1,,,,,
,0.67,,,,,,,,,f.PNG,f,6122ca22ff936b11ab2aed6e,2021-09-08_19h54.36.243,forced_choiceRT,2021.1.2,MacIntel,60.14675809,,,,,,,,4,Ontime,f,1,1.9793,2,2,10,0,1,,,,,
,1.35,,,,,,,,,f.PNG,f,6122ca22ff936b11ab2aed6e,2021-09-08_19h54.36.243,forced_choiceRT,2021.1.2,MacIntel,60.14675809,,,,,,,,4,Fast,j,0,1.8635,2,3,11,0,1,,,,,
,1.6,,,,,,,,,g.PNG,g,6122ca22ff936b11ab2aed6e,2021-09-08_19h54.36.243,forced_choiceRT,2021.1.2,MacIntel,60.14675809,,,,,,,,4,Ontime,f,0,2.0378,3,0,12,1,1,,,,,
,1.78,,,,,,,,,h.PNG,h,6122ca22ff936b11ab2aed6e,2021-09-08_19h54.36.243,forced_choiceRT,2021.1.2,MacIntel,60.14675809,,,,,,,,4,Ontime,g,0,2.0862,3,1,13,2,1,,,,,
,1.19,,,,,,,,,f.PNG,f,6122ca22ff936b11ab2aed6e,2021-09-08_19h54.36.243,forced_choiceRT,2021.1.2,MacIntel,60.14675809,,,,,,,,4,Slow,f,1,2.1583,3,2,14,0,1,,,,,
,1.63,,,,,,,,,g.PNG,g,6122ca22ff936b11ab2aed6e,2021-09-08_19h54.36.243,forced_choiceRT,2021.1.2,MacIntel,60.14675809,,,,,,,,4,Ontime,j,0,1.9976,3,3,15,1,1,,,,,
,0,,,,,,,,,f.PNG,f,6122ca22ff936b11ab2aed6e,2021-09-08_19h54.36.243,forced_choiceRT,2021.1.2,MacIntel,60.14675809,,,,,,,,4,Ontime,f,1,1.962,4,0,16,0,1,,,,,
,1.14,,,,,,,,,h.PNG,h,6122ca22ff936b11ab2aed6e,2021-09-08_19h54.36.243,forced_choiceRT,2021.1.2,MacIntel,60.14675809,,,,,,,,4,Slow,h,1,2.1516,4,1,17,2,1,,,,,
,0.5,,,,,,,,,f.PNG,f,6122ca22ff936b11ab2aed6e,2021-09-08_19h54.36.243,forced_choiceRT,2021.1.2,MacIntel,60.14675809,,,,,,,,4,Ontime,f,1,1.98,4,2,18,0,1,,,,,
,0.5,,,,,,,,,h.PNG,h,6122ca22ff936b11ab2aed6e,2021-09-08_19h54.36.243,forced_choiceRT,2021.1.2,MacIntel,60.14675809,,,,,,,,4,Ontime,h,1,2.0123,4,3,19,2,1,,,,,
,1.48,,,,,,,,,j.PNG,j,6122ca22ff936b11ab2aed6e,2021-09-08_19h54.36.243,forced_choiceRT,2021.1.2,MacIntel,60.14675809,,,,,,,,4,Slow,j,1,2.197,5,0,20,3,1,,,,,
,1.2,,,,,,,,,g.PNG,g,6122ca22ff936b11ab2aed6e,2021-09-08_19h54.36.243,forced_choiceRT,2021.1.2,MacIntel,60.14675809,,,,,,,,4,Fast,j,0,1.8941,5,1,21,1,1,,,,,
,1.52,,,,,,,,,h.PNG,h,6122ca22ff936b11ab2aed6e,2021-09-08_19h54.36.243,forced_choiceRT,2021.1.2,MacIntel,60.14675809,,,,,,,,4,Ontime,j,0,2.0295,5,2,22,2,1,,,,,
,0.37,,,,,,,,,f.PNG,f,6122ca22ff936b11ab2aed6e,2021-09-08_19h54.36.243,forced_choiceRT,2021.1.2,MacIntel,60.14675809,,,,,,,,4,Ontime,f,1,1.9634,5,3,23,0,1,,,,,
,0.95,,,,,,,,,j.PNG,j,6122ca22ff936b11ab2aed6e,2021-09-08_19h54.36.243,forced_choiceRT,2021.1.2,MacIntel,60.14675809,,,,,,,,4,Ontime,j,1,1.9479,6,0,24,3,1,,,,,
,1.46,,,,,,,,,j.PNG,j,6122ca22ff936b11ab2aed6e,2021-09-08_19h54.36.243,forced_choiceRT,2021.1.2,MacIntel,60.14675809,,,,,,,,4,Ontime,j,1,1.9793,6,1,25,3,1,,,,,
,0.53,,,,,,,,,g.PNG,g,6122ca22ff936b11ab2aed6e,2021-09-08_19h54.36.243,forced_choiceRT,2021.1.2,MacIntel,60.14675809,,,,,,,,4,Ontime,g,1,2.0125,6,2,26,1,1,,,,,
,1.81,,,,,,,,,j.PNG,j,6122ca22ff936b11ab2aed6e,2021-09-08_19h54.36.243,forced_choiceRT,2021.1.2,MacIntel,60.14675809,,,,,,,,4,Slow,j,1,2.1212,6,3,27,3,1,,,,,
,0.82,,,,,,,,,f.PNG,f,6122ca22ff936b11ab2aed6e,2021-09-08_19h54.36.243,forced_choiceRT,2021.1.2,MacIntel,60.14675809,,,,,,,,4,Fast,f,1,1.7963,7,0,28,0,1,,,,,
,0.98,,,,,,,,,h.PNG,h,6122ca22ff936b11ab2aed6e,2021-09-08_19h54.36.243,forced_choiceRT,2021.1.2,MacIntel,60.14675809,,,,,,,,4,Ontime,g,0,1.9293,7,1,29,2,1,,,,,
,1.36,,,,,,,,,g.PNG,g,6122ca22ff936b11ab2aed6e,2021-09-08_19h54.36.243,forced_choiceRT,2021.1.2,MacIntel,60.14675809,,,,,,,,4,Ontime,g,1,2.0326,7,2,30,1,1,,,,,
,0.16,,,,,,,,,h.PNG,h,6122ca22ff936b11ab2aed6e,2021-09-08_19h54.36.243,forced_choiceRT,2021.1.2,MacIntel,60.14675809,,,,,,,,4,Ontime,h,1,1.9623,7,3,31,2,1,,,,,
,0.05,,,,,,,,,h.PNG,h,6122ca22ff936b11ab2aed6e,2021-09-08_19h54.36.243,forced_choiceRT,2021.1.2,MacIntel,60.14675809,,,,,,,,4,Ontime,h,1,2.0957,8,0,32,2,1,,,,,
,0.58,,,,,,,,,h.PNG,h,6122ca22ff936b11ab2aed6e,2021-09-08_19h54.36.243,forced_choiceRT,2021.1.2,MacIntel,60.14675809,,,,,,,,4,Ontime,h,1,1.9516,8,1,33,2,1,,,,,
,1.6,,,,,,,,,j.PNG,j,6122ca22ff936b11ab2aed6e,2021-09-08_19h54.36.243,forced_choiceRT,2021.1.2,MacIntel,60.14675809,,,,,,,,4,Ontime,j,1,2.0621,8,2,34,3,1,,,,,
,0.49,,,,,,,,,h.PNG,h,6122ca22ff936b11ab2aed6e,2021-09-08_19h54.36.243,forced_choiceRT,2021.1.2,MacIntel,60.14675809,,,,,,,,4,Ontime,h,1,1.9294,8,3,35,2,1,,,,,
,0.2,,,,,,,,,j.PNG,j,6122ca22ff936b11ab2aed6e,2021-09-08_19h54.36.243,forced_choiceRT,2021.1.2,MacIntel,60.14675809,,,,,,,,4,Ontime,j,1,1.9642,9,0,36,3,1,,,,,
,0.48,,,,,,,,,j.PNG,j,6122ca22ff936b11ab2aed6e,2021-09-08_19h54.36.243,forced_choiceRT,2021.1.2,MacIntel,60.14675809,,,,,,,,4,Ontime,j,1,1.9595,9,1,37,3,1,,,,,
,0.46,,,,,,,,,g.PNG,g,6122ca22ff936b11ab2aed6e,2021-09-08_19h54.36.243,forced_choiceRT,2021.1.2,MacIntel,60.14675809,,,,,,,,4,Ontime,g,1,1.9797,9,2,38,1,1,,,,,
,0.19,,,,,,,,,j.PNG,j,6122ca22ff936b11ab2aed6e,2021-09-08_19h54.36.243,forced_choiceRT,2021.1.2,MacIntel,60.14675809,,,,,,,,4,Ontime,j,1,1.9363,9,3,39,3,1,,,,,
,,,,,,,,,,,,6122ca22ff936b11ab2aed6e,2021-09-08_19h54.36.243,forced_choiceRT,2021.1.2,MacIntel,60.14675809,,,,,,,,,,,,,,,,,,3,0,3,0,1
,1.99,,,,,,,,,g.PNG,g,6122ca22ff936b11ab2aed6e,2021-09-08_19h54.36.243,forced_choiceRT,2021.1.2,MacIntel,60.14675809,,,,,,,,5,Ontime,j,0,2.0927,0,0,0,1,1,,,,,
,1.4,,,,,,,,,f.PNG,f,6122ca22ff936b11ab2aed6e,2021-09-08_19h54.36.243,forced_choiceRT,2021.1.2,MacIntel,60.14675809,,,,,,,,5,Ontime,g,0,1.9922,0,1,1,0,1,,,,,
,1.64,,,,,,,,,g.PNG,g,6122ca22ff936b11ab2aed6e,2021-09-08_19h54.36.243,forced_choiceRT,2021.1.2,MacIntel,60.14675809,,,,,,,,5,Ontime,j,0,2.0613,0,2,2,1,1,,,,,
,0.19,,,,,,,,,g.PNG,g,6122ca22ff936b11ab2aed6e,2021-09-08_19h54.36.243,forced_choiceRT,2021.1.2,MacIntel,60.14675809,,,,,,,,5,Ontime,g,1,1.9965,0,3,3,1,1,,,,,
,0.54,,,,,,,,,h.PNG,h,6122ca22ff936b11ab2aed6e,2021-09-08_19h54.36.243,forced_choiceRT,2021.1.2,MacIntel,60.14675809,,,,,,,,5,Ontime,h,1,1.9645,1,0,4,2,1,,,,,
,1.09,,,,,,,,,f.PNG,f,6122ca22ff936b11ab2aed6e,2021-09-08_19h54.36.243,forced_choiceRT,2021.1.2,MacIntel,60.14675809,,,,,,,,5,Ontime,f,1,2.0479,1,1,5,0,1,,,,,
,1.18,,,,,,,,,j.PNG,j,6122ca22ff936b11ab2aed6e,2021-09-08_19h54.36.243,forced_choiceRT,2021.1.2,MacIntel,60.14675809,,,,,,,,5,Ontime,j,1,1.9961,1,2,6,3,1,,,,,
,0.7,,,,,,,,,f.PNG,f,6122ca22ff936b11ab2aed6e,2021-09-08_19h54.36.243,forced_choiceRT,2021.1.2,MacIntel,60.14675809,,,,,,,,5,Ontime,f,1,1.9673,1,3,7,0,1,,,,,
,0.81,,,,,,,,,f.PNG,f,6122ca22ff936b11ab2aed6e,2021-09-08_19h54.36.243,forced_choiceRT,2021.1.2,MacIntel,60.14675809,,,,,,,,5,Fast,f,1,1.8786,2,0,8,0,1,,,,,
,0.68,,,,,,,,,h.PNG,h,6122ca22ff936b11ab2aed6e,2021-09-08_19h54.36.243,forced_choiceRT,2021.1.2,MacIntel,60.14675809,,,,,,,,5,Fast,h,1,1.879,2,1,9,2,1,,,,,
,1.78,,,,,,,,,j.PNG,j,6122ca22ff936b11ab2aed6e,2021-09-08_19h54.36.243,forced_choiceRT,2021.1.2,MacIntel,60.14675809,,,,,,,,5,Ontime,h,0,1.9297,2,2,10,3,1,,,,,
,0.72,,,,,,,,,h.PNG,h,6122ca22ff936b11ab2aed6e,2021-09-08_19h54.36.243,forced_choiceRT,2021.1.2,MacIntel,60.14675809,,,,,,,,5,Ontime,h,1,1.9354,2,3,11,2,1,,,,,
,1.05,,,,,,,,,g.PNG,g,6122ca22ff936b11ab2aed6e,2021-09-08_19h54.36.243,forced_choiceRT,2021.1.2,MacIntel,60.14675809,,,,,,,,5,Ontime,g,1,1.9383,3,0,12,1,1,,,,,
,1.2,,,,,,,,,j.PNG,j,6122ca22ff936b11ab2aed6e,2021-09-08_19h54.36.243,forced_choiceRT,2021.1.2,MacIntel,60.14675809,,,,,,,,5,Ontime,j,1,1.9468,3,1,13,3,1,,,,,
,0.53,,,,,,,,,h.PNG,h,6122ca22ff936b11ab2aed6e,2021-09-08_19h54.36.243,forced_choiceRT,2021.1.2,MacIntel,60.14675809,,,,,,,,5,Fast,h,1,1.8782,3,2,14,2,1,,,,,
,1.9,,,,,,,,,j.PNG,j,6122ca22ff936b11ab2aed6e,2021-09-08_19h54.36.243,forced_choiceRT,2021.1.2,MacIntel,60.14675809,,,,,,,,5,Ontime,h,0,1.9984,3,3,15,3,1,,,,,
,0.95,,,,,,,,,j.PNG,j,6122ca22ff936b11ab2aed6e,2021-09-08_19h54.36.243,forced_choiceRT,2021.1.2,MacIntel,60.14675809,,,,,,,,5,Ontime,j,1,1.9814,4,0,16,3,1,,,,,
,0.1,,,,,,,,,j.PNG,j,6122ca22ff936b11ab2aed6e,2021-09-08_19h54.36.243,forced_choiceRT,2021.1.2,MacIntel,60.14675809,,,,,,,,5,Ontime,j,1,1.9032,4,1,17,3,1,,,,,
,0.22,,,,,,,,,f.PNG,f,6122ca22ff936b11ab2aed6e,2021-09-08_19h54.36.243,forced_choiceRT,2021.1.2,MacIntel,60.14675809,,,,,,,,5,Ontime,f,1,1.9155,4,2,18,0,1,,,,,
,0.34,,,,,,,,,f.PNG,f,6122ca22ff936b11ab2aed6e,2021-09-08_19h54.36.243,forced_choiceRT,2021.1.2,MacIntel,60.14675809,,,,,,,,5,Ontime,f,1,1.9192,4,3,19,0,1,,,,,
,1.09,,,,,,,,,g.PNG,g,6122ca22ff936b11ab2aed6e,2021-09-08_19h54.36.243,forced_choiceRT,2021.1.2,MacIntel,60.14675809,,,,,,,,5,Ontime,g,1,2.0121,5,0,20,1,1,,,,,
,0.11,,,,,,,,,h.PNG,h,6122ca22ff936b11ab2aed6e,2021-09-08_19h54.36.243,forced_choiceRT,2021.1.2,MacIntel,60.14675809,,,,,,,,5,Fast,h,1,1.843,5,1,21,2,1,,,,,
,1.28,,,,,,,,,g.PNG,g,6122ca22ff936b11ab2aed6e,2021-09-08_19h54.36.243,forced_choiceRT,2021.1.2,MacIntel,60.14675809,,,,,,,,5,Ontime,f,0,1.9963,5,2,22,1,1,,,,,
,1.62,,,,,,,,,g.PNG,g,6122ca22ff936b11ab2aed6e,2021-09-08_19h54.36.243,forced_choiceRT,2021.1.2,MacIntel,60.14675809,,,,,,,,5,Ontime,f,0,1.9718,5,3,23,1,1,,,,,
,0.63,,,,,,,,,j.PNG,j,6122ca22ff936b11ab2aed6e,2021-09-08_19h54.36.243,forced_choiceRT,2021.1.2,MacIntel,60.14675809,,,,,,,,5,Ontime,j,1,1.9959,6,0,24,3,1,,,,,
,1.43,,,,,,,,,h.PNG,h,6122ca22ff936b11ab2aed6e,2021-09-08_19h54.36.243,forced_choiceRT,2021.1.2,MacIntel,60.14675809,,,,,,,,5,Ontime,h,1,2.0377,6,1,25,2,1,,,,,
,0.13,,,,,,,,,h.PNG,h,6122ca22ff936b11ab2aed6e,2021-09-08_19h54.36.243,forced_choiceRT,2021.1.2,MacIntel,60.14675809,,,,,,,,5,Fast,h,1,1.7973,6,2,26,2,1,,,,,
,1.41,,,,,,,,,h.PNG,h,6122ca22ff936b11ab2aed6e,2021-09-08_19h54.36.243,forced_choiceRT,2021.1.2,MacIntel,60.14675809,,,,,,,,5,Ontime,h,1,2.0534,6,3,27,2,1,,,,,
,1.96,,,,,,,,,h.PNG,h,6122ca22ff936b11ab2aed6e,2021-09-08_19h54.36.243,forced_choiceRT,2021.1.2,MacIntel,60.14675809,,,,,,,,5,Slow,h,1,2.1958,7,0,28,2,1,,,,,
,0.76,,,,,,,,,h.PNG,h,6122ca22ff936b11ab2aed6e,2021-09-08_19h54.36.243,forced_choiceRT,2021.1.2,MacIntel,60.14675809,,,,,,,,5,Ontime,h,1,1.9026,7,1,29,2,1,,,,,
,1.76,,,,,,,,,g.PNG,g,6122ca22ff936b11ab2aed6e,2021-09-08_19h54.36.243,forced_choiceRT,2021.1.2,MacIntel,60.14675809,,,,,,,,5,Fast,j,0,1.8307,7,2,30,1,1,,,,,
,1.91,,,,,,,,,f.PNG,f,6122ca22ff936b11ab2aed6e,2021-09-08_19h54.36.243,forced_choiceRT,2021.1.2,MacIntel,60.14675809,,,,,,,,5,Ontime,j,0,1.9452,7,3,31,0,1,,,,,
,1.96,,,,,,,,,g.PNG,g,6122ca22ff936b11ab2aed6e,2021-09-08_19h54.36.243,forced_choiceRT,2021.1.2,MacIntel,60.14675809,,,,,,,,5,Ontime,j,0,2.0681,8,0,32,1,1,,,,,
,0.21,,,,,,,,,f.PNG,f,6122ca22ff936b11ab2aed6e,2021-09-08_19h54.36.243,forced_choiceRT,2021.1.2,MacIntel,60.14675809,,,,,,,,5,Ontime,f,1,1.9543,8,1,33,0,1,,,,,
,0.68,,,,,,,,,f.PNG,f,6122ca22ff936b11ab2aed6e,2021-09-08_19h54.36.243,forced_choiceRT,2021.1.2,MacIntel,60.14675809,,,,,,,,5,Ontime,f,1,1.9494,8,2,34,0,1,,,,,
,1.11,,,,,,,,,g.PNG,g,6122ca22ff936b11ab2aed6e,2021-09-08_19h54.36.243,forced_choiceRT,2021.1.2,MacIntel,60.14675809,,,,,,,,5,Ontime,g,1,2.0125,8,3,35,1,1,,,,,
,0.68,,,,,,,,,j.PNG,j,6122ca22ff936b11ab2aed6e,2021-09-08_19h54.36.243,forced_choiceRT,2021.1.2,MacIntel,60.14675809,,,,,,,,5,Ontime,j,1,1.9128,9,0,36,3,1,,,,,
,1.35,,,,,,,,,f.PNG,f,6122ca22ff936b11ab2aed6e,2021-09-08_19h54.36.243,forced_choiceRT,2021.1.2,MacIntel,60.14675809,,,,,,,,5,Ontime,g,0,1.9797,9,1,37,0,1,,,,,
,0.84,,,,,,,,,j.PNG,j,6122ca22ff936b11ab2aed6e,2021-09-08_19h54.36.243,forced_choiceRT,2021.1.2,MacIntel,60.14675809,,,,,,,,5,Ontime,j,1,2.0122,9,2,38,3,1,,,,,
,1.59,,,,,,,,,j.PNG,j,6122ca22ff936b11ab2aed6e,2021-09-08_19h54.36.243,forced_choiceRT,2021.1.2,MacIntel,60.14675809,,,,,,,,5,Ontime,j,1,1.9787,9,3,39,3,1,,,,,
,,,,,,,,,,,,6122ca22ff936b11ab2aed6e,2021-09-08_19h54.36.243,forced_choiceRT,2021.1.2,MacIntel,60.14675809,,,,,,,,,,,,,,,,,,4,0,4,0,1
,0.66,,,,,,,,,g.PNG,g,6122ca22ff936b11ab2aed6e,2021-09-08_19h54.36.243,forced_choiceRT,2021.1.2,MacIntel,60.14675809,,,,,,,,6,Ontime,g,1,1.9144,0,0,0,1,1,,,,,
,0.5,,,,,,,,,f.PNG,f,6122ca22ff936b11ab2aed6e,2021-09-08_19h54.36.243,forced_choiceRT,2021.1.2,MacIntel,60.14675809,,,,,,,,6,Ontime,f,1,2.016,0,1,1,0,1,,,,,
,1.29,,,,,,,,,f.PNG,f,6122ca22ff936b11ab2aed6e,2021-09-08_19h54.36.243,forced_choiceRT,2021.1.2,MacIntel,60.14675809,,,,,,,,6,Ontime,f,1,2.0006,0,2,2,0,1,,,,,
,0.34,,,,,,,,,f.PNG,f,6122ca22ff936b11ab2aed6e,2021-09-08_19h54.36.243,forced_choiceRT,2021.1.2,MacIntel,60.14675809,,,,,,,,6,Fast,f,1,1.8973,0,3,3,0,1,,,,,
,0.29,,,,,,,,,j.PNG,j,6122ca22ff936b11ab2aed6e,2021-09-08_19h54.36.243,forced_choiceRT,2021.1.2,MacIntel,60.14675809,,,,,,,,6,Ontime,j,1,1.9666,1,0,4,3,1,,,,,
,0.28,,,,,,,,,g.PNG,g,6122ca22ff936b11ab2aed6e,2021-09-08_19h54.36.243,forced_choiceRT,2021.1.2,MacIntel,60.14675809,,,,,,,,6,Ontime,g,1,2.0154,1,1,5,1,1,,,,,
,1.36,,,,,,,,,h.PNG,h,6122ca22ff936b11ab2aed6e,2021-09-08_19h54.36.243,forced_choiceRT,2021.1.2,MacIntel,60.14675809,,,,,,,,6,Ontime,h,1,2.0814,1,2,6,2,1,,,,,
,0.16,,,,,,,,,j.PNG,j,6122ca22ff936b11ab2aed6e,2021-09-08_19h54.36.243,forced_choiceRT,2021.1.2,MacIntel,60.14675809,,,,,,,,6,Ontime,j,1,1.9027,1,3,7,3,1,,,,,
,1.99,,,,,,,,,h.PNG,h,6122ca22ff936b11ab2aed6e,2021-09-08_19h54.36.243,forced_choiceRT,2021.1.2,MacIntel,60.14675809,,,,,,,,6,Ontime,j,0,2.035,2,0,8,2,1,,,,,
,0.45,,,,,,,,,j.PNG,j,6122ca22ff936b11ab2aed6e,2021-09-08_19h54.36.243,forced_choiceRT,2021.1.2,MacIntel,60.14675809,,,,,,,,6,Ontime,j,1,1.947,2,1,9,3,1,,,,,
,0.62,,,,,,,,,h.PNG,h,6122ca22ff936b11ab2aed6e,2021-09-08_19h54.36.243,forced_choiceRT,2021.1.2,MacIntel,60.14675809,,,,,,,,6,Ontime,h,1,2.0129,2,2,10,2,1,,,,,
,0.66,,,,,,,,,j.PNG,j,6122ca22ff936b11ab2aed6e,2021-09-08_19h54.36.243,forced_choiceRT,2021.1.2,MacIntel,60.14675809,,,,,,,,6,Ontime,j,1,1.963,2,3,11,3,1,,,,,
,0.05,,,,,,,,,f.PNG,f,6122ca22ff936b11ab2aed6e,2021-09-08_19h54.36.243,forced_choiceRT,2021.1.2,MacIntel,60.14675809,,,,,,,,6,Fast,f,1,1.8155,3,0,12,0,1,,,,,
,1.58,,,,,,,,,g.PNG,g,6122ca22ff936b11ab2aed6e,2021-09-08_19h54.36.243,forced_choiceRT,2021.1.2,MacIntel,60.14675809,,,,,,,,6,Ontime,j,0,1.9994,3,1,13,1,1,,,,,
,1.52,,,,,,,,,h.PNG,h,6122ca22ff936b11ab2aed6e,2021-09-08_19h54.36.243,forced_choiceRT,2021.1.2,MacIntel,60.14675809,,,,,,,,6,Ontime,j,0,1.9841,3,2,14,2,1,,,,,
,0.5,,,,,,,,,g.PNG,g,6122ca22ff936b11ab2aed6e,2021-09-08_19h54.36.243,forced_choiceRT,2021.1.2,MacIntel,60.14675809,,,,,,,,6,Fast,g,1,1.7528,3,3,15,1,1,,,,,
,0.28,,,,,,,,,g.PNG,g,6122ca22ff936b11ab2aed6e,2021-09-08_19h54.36.243,forced_choiceRT,2021.1.2,MacIntel,60.14675809,,,,,,,,6,Ontime,g,1,2.0354,4,0,16,1,1,,,,,
,1.22,,,,,,,,,f.PNG,f,6122ca22ff936b11ab2aed6e,2021-09-08_19h54.36.243,forced_choiceRT,2021.1.2,MacIntel,60.14675809,,,,,,,,6,Ontime,f,1,2.0501,4,1,17,0,1,,,,,
,1.9,,,,,,,,,h.PNG,h,6122ca22ff936b11ab2aed6e,2021-09-08_19h54.36.243,forced_choiceRT,2021.1.2,MacIntel,60.14675809,,,,,,,,6,Ontime,j,0,1.9699,4,2,18,2,1,,,,,
,1.77,,,,,,,,,g.PNG,g,6122ca22ff936b11ab2aed6e,2021-09-08_19h54.36.243,forced_choiceRT,2021.1.2,MacIntel,60.14675809,,,,,,,,6,Slow,j,0,2.1127,4,3,19,1,1,,,,,
,1.03,,,,,,,,,j.PNG,j,6122ca22ff936b11ab2aed6e,2021-09-08_19h54.36.243,forced_choiceRT,2021.1.2,MacIntel,60.14675809,,,,,,,,6,Ontime,j,1,1.9623,5,0,20,3,1,,,,,
,1.84,,,,,,,,,h.PNG,h,6122ca22ff936b11ab2aed6e,2021-09-08_19h54.36.243,forced_choiceRT,2021.1.2,MacIntel,60.14675809,,,,,,,,6,Slow,j,0,2.1783,5,1,21,2,1,,,,,
,1.15,,,,,,,,,j.PNG,j,6122ca22ff936b11ab2aed6e,2021-09-08_19h54.36.243,forced_choiceRT,2021.1.2,MacIntel,60.14675809,,,,,,,,6,Ontime,j,1,1.9637,5,2,22,3,1,,,,,
,1.8,,,,,,,,,f.PNG,f,6122ca22ff936b11ab2aed6e,2021-09-08_19h54.36.243,forced_choiceRT,2021.1.2,MacIntel,60.14675809,,,,,,,,6,Ontime,j,0,1.9663,5,3,23,0,1,,,,,
,0.64,,,,,,,,,h.PNG,h,6122ca22ff936b11ab2aed6e,2021-09-08_19h54.36.243,forced_choiceRT,2021.1.2,MacIntel,60.14675809,,,,,,,,6,Ontime,h,1,2.0461,6,0,24,2,1,,,,,
,1.72,,,,,,,,,g.PNG,g,6122ca22ff936b11ab2aed6e,2021-09-08_19h54.36.243,forced_choiceRT,2021.1.2,MacIntel,60.14675809,,,,,,,,6,Ontime,j,0,1.9515,6,1,25,1,1,,,,,
,1.56,,,,,,,,,j.PNG,j,6122ca22ff936b11ab2aed6e,2021-09-08_19h54.36.243,forced_choiceRT,2021.1.2,MacIntel,60.14675809,,,,,,,,6,Fast,f,0,1.8345,6,2,26,3,1,,,,,
,0.05,,,,,,,,,g.PNG,g,6122ca22ff936b11ab2aed6e,2021-09-08_19h54.36.243,forced_choiceRT,2021.1.2,MacIntel,60.14675809,,,,,,,,6,Ontime,g,1,2.0335,6,3,27,1,1,,,,,
,0.84,,,,,,,,,j.PNG,j,6122ca22ff936b11ab2aed6e,2021-09-08_19h54.36.243,forced_choiceRT,2021.1.2,MacIntel,60.14675809,,,,,,,,6,Ontime,j,1,2.0962,7,0,28,3,1,,,,,
,0.93,,,,,,,,,h.PNG,h,6122ca22ff936b11ab2aed6e,2021-09-08_19h54.36.243,forced_choiceRT,2021.1.2,MacIntel,60.14675809,,,,,,,,6,Ontime,h,1,1.995,7,1,29,2,1,,,,,
,0.27,,,,,,,,,g.PNG,g,6122ca22ff936b11ab2aed6e,2021-09-08_19h54.36.243,forced_choiceRT,2021.1.2,MacIntel,60.14675809,,,,,,,,6,Ontime,g,1,2.0466,7,2,30,1,1,,,,,
,1.85,,,,,,,,,g.PNG,g,6122ca22ff936b11ab2aed6e,2021-09-08_19h54.36.243,forced_choiceRT,2021.1.2,MacIntel,60.14675809,,,,,,,,6,Ontime,g,1,2.0848,7,3,31,1,1,,,,,
,0.84,,,,,,,,,j.PNG,j,6122ca22ff936b11ab2aed6e,2021-09-08_19h54.36.243,forced_choiceRT,2021.1.2,MacIntel,60.14675809,,,,,,,,6,Ontime,j,1,2.0618,8,0,32,3,1,,,,,
,1.75,,,,,,,,,f.PNG,f,6122ca22ff936b11ab2aed6e,2021-09-08_19h54.36.243,forced_choiceRT,2021.1.2,MacIntel,60.14675809,,,,,,,,6,Ontime,j,0,2.0538,8,1,33,0,1,,,,,
,1.72,,,,,,,,,f.PNG,f,6122ca22ff936b11ab2aed6e,2021-09-08_19h54.36.243,forced_choiceRT,2021.1.2,MacIntel,60.14675809,,,,,,,,6,Ontime,f,1,2.0209,8,2,34,0,1,,,,,
,0.02,,,,,,,,,f.PNG,f,6122ca22ff936b11ab2aed6e,2021-09-08_19h54.36.243,forced_choiceRT,2021.1.2,MacIntel,60.14675809,,,,,,,,6,Slow,f,1,2.1319,8,3,35,0,1,,,,,
,1.36,,,,,,,,,j.PNG,j,6122ca22ff936b11ab2aed6e,2021-09-08_19h54.36.243,forced_choiceRT,2021.1.2,MacIntel,60.14675809,,,,,,,,6,Slow,j,1,2.1451,9,0,36,3,1,,,,,
,0.22,,,,,,,,,f.PNG,f,6122ca22ff936b11ab2aed6e,2021-09-08_19h54.36.243,forced_choiceRT,2021.1.2,MacIntel,60.14675809,,,,,,,,6,Fast,f,1,1.8341,9,1,37,0,1,,,,,
,0.71,,,,,,,,,h.PNG,h,6122ca22ff936b11ab2aed6e,2021-09-08_19h54.36.243,forced_choiceRT,2021.1.2,MacIntel,60.14675809,,,,,,,,6,Ontime,h,1,2.0097,9,2,38,2,1,,,,,
,1.77,,,,,,,,,h.PNG,h,6122ca22ff936b11ab2aed6e,2021-09-08_19h54.36.243,forced_choiceRT,2021.1.2,MacIntel,60.14675809,,,,,,,,6,Ontime,j,0,1.9296,9,3,39,2,1,,,,,
,,,,,,,,,,,,6122ca22ff936b11ab2aed6e,2021-09-08_19h54.36.243,forced_choiceRT,2021.1.2,MacIntel,60.14675809,,,,,,,,,,,,,,,,,,5,0,5,0,1
,1.09,,,,,,,,,h.PNG,h,6122ca22ff936b11ab2aed6e,2021-09-08_19h54.36.243,forced_choiceRT,2021.1.2,MacIntel,60.14675809,,,,,,,,7,Slow,j,0,2.111,0,0,0,2,1,,,,,
,0.05,,,,,,,,,g.PNG,g,6122ca22ff936b11ab2aed6e,2021-09-08_19h54.36.243,forced_choiceRT,2021.1.2,MacIntel,60.14675809,,,,,,,,7,Fast,g,1,1.846,0,1,1,1,1,,,,,
,0.86,,,,,,,,,g.PNG,g,6122ca22ff936b11ab2aed6e,2021-09-08_19h54.36.243,forced_choiceRT,2021.1.2,MacIntel,60.14675809,,,,,,,,7,Ontime,g,1,1.9979,0,2,2,1,1,,,,,
,0.91,,,,,,,,,f.PNG,f,6122ca22ff936b11ab2aed6e,2021-09-08_19h54.36.243,forced_choiceRT,2021.1.2,MacIntel,60.14675809,,,,,,,,7,Ontime,f,1,1.9302,0,3,3,0,1,,,,,
,0.47,,,,,,,,,j.PNG,j,6122ca22ff936b11ab2aed6e,2021-09-08_19h54.36.243,forced_choiceRT,2021.1.2,MacIntel,60.14675809,,,,,,,,7,Fast,j,1,1.897,1,0,4,3,1,,,,,
,0.53,,,,,,,,,g.PNG,g,6122ca22ff936b11ab2aed6e,2021-09-08_19h54.36.243,forced_choiceRT,2021.1.2,MacIntel,60.14675809,,,,,,,,7,Ontime,g,1,1.9661,1,1,5,1,1,,,,,
,1.65,,,,,,,,,f.PNG,f,6122ca22ff936b11ab2aed6e,2021-09-08_19h54.36.243,forced_choiceRT,2021.1.2,MacIntel,60.14675809,,,,,,,,7,Ontime,j,0,2.0615,1,2,6,0,1,,,,,
,0.98,,,,,,,,,j.PNG,j,6122ca22ff936b11ab2aed6e,2021-09-08_19h54.36.243,forced_choiceRT,2021.1.2,MacIntel,60.14675809,,,,,,,,7,Ontime,j,1,1.9623,1,3,7,3,1,,,,,
,1.57,,,,,,,,,h.PNG,h,6122ca22ff936b11ab2aed6e,2021-09-08_19h54.36.243,forced_choiceRT,2021.1.2,MacIntel,60.14675809,,,,,,,,7,Fast,h,1,1.8305,2,0,8,2,1,,,,,
,1.77,,,,,,,,,g.PNG,g,6122ca22ff936b11ab2aed6e,2021-09-08_19h54.36.243,forced_choiceRT,2021.1.2,MacIntel,60.14675809,,,,,,,,7,Fast,j,0,1.8475,2,1,9,1,1,,,,,
,1.84,,,,,,,,,g.PNG,g,6122ca22ff936b11ab2aed6e,2021-09-08_19h54.36.243,forced_choiceRT,2021.1.2,MacIntel,60.14675809,,,,,,,,7,Ontime,j,0,1.9426,2,2,10,1,1,,,,,
,1.87,,,,,,,,,h.PNG,h,6122ca22ff936b11ab2aed6e,2021-09-08_19h54.36.243,forced_choiceRT,2021.1.2,MacIntel,60.14675809,,,,,,,,7,Ontime,j,0,2.0459,2,3,11,2,1,,,,,
,1.44,,,,,,,,,g.PNG,g,6122ca22ff936b11ab2aed6e,2021-09-08_19h54.36.243,forced_choiceRT,2021.1.2,MacIntel,60.14675809,,,,,,,,7,Slow,g,1,4.7224,3,0,12,1,1,,,,,
,0,,,,,,,,,j.PNG,j,6122ca22ff936b11ab2aed6e,2021-09-08_19h54.36.243,forced_choiceRT,2021.1.2,MacIntel,60.14675809,,,,,,,,7,Ontime,j,1,1.986,3,1,13,3,1,,,,,
,0.49,,,,,,,,,g.PNG,g,6122ca22ff936b11ab2aed6e,2021-09-08_19h54.36.243,forced_choiceRT,2021.1.2,MacIntel,60.14675809,,,,,,,,7,Ontime,g,1,1.9495,3,2,14,1,1,,,,,
,0.99,,,,,,,,,f.PNG,f,6122ca22ff936b11ab2aed6e,2021-09-08_19h54.36.243,forced_choiceRT,2021.1.2,MacIntel,60.14675809,,,,,,,,7,Ontime,f,1,1.9315,3,3,15,0,1,,,,,
,1.14,,,,,,,,,h.PNG,h,6122ca22ff936b11ab2aed6e,2021-09-08_19h54.36.243,forced_choiceRT,2021.1.2,MacIntel,60.14675809,,,,,,,,7,Ontime,g,0,1.9983,4,0,16,2,1,,,,,
,1.58,,,,,,,,,j.PNG,j,6122ca22ff936b11ab2aed6e,2021-09-08_19h54.36.243,forced_choiceRT,2021.1.2,MacIntel,60.14675809,,,,,,,,7,Ontime,j,1,1.9423,4,1,17,3,1,,,,,
,1.98,,,,,,,,,j.PNG,j,6122ca22ff936b11ab2aed6e,2021-09-08_19h54.36.243,forced_choiceRT,2021.1.2,MacIntel,60.14675809,,,,,,,,7,Ontime,j,1,2.0127,4,2,18,3,1,,,,,
,1.42,,,,,,,,,j.PNG,j,6122ca22ff936b11ab2aed6e,2021-09-08_19h54.36.243,forced_choiceRT,2021.1.2,MacIntel,60.14675809,,,,,,,,7,Slow,j,1,2.1121,4,3,19,3,1,,,,,
,0.16,,,,,,,,,j.PNG,j,6122ca22ff936b11ab2aed6e,2021-09-08_19h54.36.243,forced_choiceRT,2021.1.2,MacIntel,60.14675809,,,,,,,,7,Ontime,j,1,1.9959,5,0,20,3,1,,,,,
,1.79,,,,,,,,,h.PNG,h,6122ca22ff936b11ab2aed6e,2021-09-08_19h54.36.243,forced_choiceRT,2021.1.2,MacIntel,60.14675809,,,,,,,,7,Ontime,j,0,2.0455,5,1,21,2,1,,,,,
,1.04,,,,,,,,,j.PNG,j,6122ca22ff936b11ab2aed6e,2021-09-08_19h54.36.243,forced_choiceRT,2021.1.2,MacIntel,60.14675809,,,,,,,,7,Ontime,j,1,2.0446,5,2,22,3,1,,,,,
,0.96,,,,,,,,,g.PNG,g,6122ca22ff936b11ab2aed6e,2021-09-08_19h54.36.243,forced_choiceRT,2021.1.2,MacIntel,60.14675809,,,,,,,,7,Fast,g,1,1.863,5,3,23,1,1,,,,,
,0.94,,,,,,,,,f.PNG,f,6122ca22ff936b11ab2aed6e,2021-09-08_19h54.36.243,forced_choiceRT,2021.1.2,MacIntel,60.14675809,,,,,,,,7,Ontime,f,1,2.0851,6,0,24,0,1,,,,,
,0.36,,,,,,,,,f.PNG,f,6122ca22ff936b11ab2aed6e,2021-09-08_19h54.36.243,forced_choiceRT,2021.1.2,MacIntel,60.14675809,,,,,,,,7,Fast,f,1,1.8137,6,1,25,0,1,,,,,
,1.97,,,,,,,,,h.PNG,h,6122ca22ff936b11ab2aed6e,2021-09-08_19h54.36.243,forced_choiceRT,2021.1.2,MacIntel,60.14675809,,,,,,,,7,Ontime,j,0,2.0633,6,2,26,2,1,,,,,
,1.4,,,,,,,,,h.PNG,h,6122ca22ff936b11ab2aed6e,2021-09-08_19h54.36.243,forced_choiceRT,2021.1.2,MacIntel,60.14675809,,,,,,,,7,Ontime,h,1,1.9031,6,3,27,2,1,,,,,
,0.99,,,,,,,,,g.PNG,g,6122ca22ff936b11ab2aed6e,2021-09-08_19h54.36.243,forced_choiceRT,2021.1.2,MacIntel,60.14675809,,,,,,,,7,Ontime,g,1,1.9158,7,0,28,1,1,,,,,
,0.05,,,,,,,,,f.PNG,f,6122ca22ff936b11ab2aed6e,2021-09-08_19h54.36.243,forced_choiceRT,2021.1.2,MacIntel,60.14675809,,,,,,,,7,Fast,f,1,1.8634,7,1,29,0,1,,,,,
,0.13,,,,,,,,,j.PNG,j,6122ca22ff936b11ab2aed6e,2021-09-08_19h54.36.243,forced_choiceRT,2021.1.2,MacIntel,60.14675809,,,,,,,,7,Slow,j,1,2.128,7,2,30,3,1,,,,,
,0.31,,,,,,,,,h.PNG,h,6122ca22ff936b11ab2aed6e,2021-09-08_19h54.36.243,forced_choiceRT,2021.1.2,MacIntel,60.14675809,,,,,,,,7,Ontime,h,1,1.9199,7,3,31,2,1,,,,,
,0.28,,,,,,,,,h.PNG,h,6122ca22ff936b11ab2aed6e,2021-09-08_19h54.36.243,forced_choiceRT,2021.1.2,MacIntel,60.14675809,,,,,,,,7,Ontime,h,1,2.0114,8,0,32,2,1,,,,,
,0.39,,,,,,,,,h.PNG,h,6122ca22ff936b11ab2aed6e,2021-09-08_19h54.36.243,forced_choiceRT,2021.1.2,MacIntel,60.14675809,,,,,,,,7,Ontime,h,1,1.9867,8,1,33,2,1,,,,,
,1.46,,,,,,,,,f.PNG,f,6122ca22ff936b11ab2aed6e,2021-09-08_19h54.36.243,forced_choiceRT,2021.1.2,MacIntel,60.14675809,,,,,,,,7,Fast,f,1,1.8959,8,2,34,0,1,,,,,
,0.82,,,,,,,,,f.PNG,f,6122ca22ff936b11ab2aed6e,2021-09-08_19h54.36.243,forced_choiceRT,2021.1.2,MacIntel,60.14675809,,,,,,,,7,Ontime,f,1,1.9692,8,3,35,0,1,,,,,
,0.09,,,,,,,,,g.PNG,g,6122ca22ff936b11ab2aed6e,2021-09-08_19h54.36.243,forced_choiceRT,2021.1.2,MacIntel,60.14675809,,,,,,,,7,Fast,g,1,1.8195,9,0,36,1,1,,,,,
,1.94,,,,,,,,,f.PNG,f,6122ca22ff936b11ab2aed6e,2021-09-08_19h54.36.243,forced_choiceRT,2021.1.2,MacIntel,60.14675809,,,,,,,,7,Ontime,j,0,2.0036,9,1,37,0,1,,,,,
,1.77,,,,,,,,,j.PNG,j,6122ca22ff936b11ab2aed6e,2021-09-08_19h54.36.243,forced_choiceRT,2021.1.2,MacIntel,60.14675809,,,,,,,,7,Ontime,j,1,1.9,9,2,38,3,1,,,,,
,1.84,,,,,,,,,f.PNG,f,6122ca22ff936b11ab2aed6e,2021-09-08_19h54.36.243,forced_choiceRT,2021.1.2,MacIntel,60.14675809,,,,,,,,7,Ontime,j,0,1.9843,9,3,39,0,1,,,,,
,,,,,,,,,,,,6122ca22ff936b11ab2aed6e,2021-09-08_19h54.36.243,forced_choiceRT,2021.1.2,MacIntel,60.14675809,,,,,,,,,,,,,,,,,,6,0,6,0,1
,0.27,,,,,,,,,h.PNG,h,6122ca22ff936b11ab2aed6e,2021-09-08_19h54.36.243,forced_choiceRT,2021.1.2,MacIntel,60.14675809,,,,,,,,8,Fast,h,1,1.7313,0,0,0,2,1,,,,,
,1.47,,,,,,,,,j.PNG,j,6122ca22ff936b11ab2aed6e,2021-09-08_19h54.36.243,forced_choiceRT,2021.1.2,MacIntel,60.14675809,,,,,,,,8,Fast,j,1,1.896,0,1,1,3,1,,,,,
,1.29,,,,,,,,,h.PNG,h,6122ca22ff936b11ab2aed6e,2021-09-08_19h54.36.243,forced_choiceRT,2021.1.2,MacIntel,60.14675809,,,,,,,,8,Ontime,j,0,2.0461,0,2,2,2,1,,,,,
,1.55,,,,,,,,,j.PNG,j,6122ca22ff936b11ab2aed6e,2021-09-08_19h54.36.243,forced_choiceRT,2021.1.2,MacIntel,60.14675809,,,,,,,,8,Slow,f,0,2.1959,0,3,3,3,1,,,,,
,0.39,,,,,,,,,h.PNG,h,6122ca22ff936b11ab2aed6e,2021-09-08_19h54.36.243,forced_choiceRT,2021.1.2,MacIntel,60.14675809,,,,,,,,8,Ontime,j,0,1.901,1,0,4,2,1,,,,,
,0.82,,,,,,,,,h.PNG,h,6122ca22ff936b11ab2aed6e,2021-09-08_19h54.36.243,forced_choiceRT,2021.1.2,MacIntel,60.14675809,,,,,,,,8,Ontime,h,1,1.9291,1,1,5,2,1,,,,,
,1.11,,,,,,,,,g.PNG,g,6122ca22ff936b11ab2aed6e,2021-09-08_19h54.36.243,forced_choiceRT,2021.1.2,MacIntel,60.14675809,,,,,,,,8,Ontime,g,1,1.9816,1,2,6,1,1,,,,,
,1.45,,,,,,,,,g.PNG,g,6122ca22ff936b11ab2aed6e,2021-09-08_19h54.36.243,forced_choiceRT,2021.1.2,MacIntel,60.14675809,,,,,,,,8,Slow,g,1,2.1349,1,3,7,1,1,,,,,
,0.67,,,,,,,,,g.PNG,g,6122ca22ff936b11ab2aed6e,2021-09-08_19h54.36.243,forced_choiceRT,2021.1.2,MacIntel,60.14675809,,,,,,,,8,Ontime,g,1,2.0299,2,0,8,1,1,,,,,
,0.77,,,,,,,,,j.PNG,j,6122ca22ff936b11ab2aed6e,2021-09-08_19h54.36.243,forced_choiceRT,2021.1.2,MacIntel,60.14675809,,,,,,,,8,Ontime,j,1,1.9863,2,1,9,3,1,,,,,
,0.38,,,,,,,,,f.PNG,f,6122ca22ff936b11ab2aed6e,2021-09-08_19h54.36.243,forced_choiceRT,2021.1.2,MacIntel,60.14675809,,,,,,,,8,Fast,f,1,1.8835,2,2,10,0,1,,,,,
,0.23,,,,,,,,,g.PNG,g,6122ca22ff936b11ab2aed6e,2021-09-08_19h54.36.243,forced_choiceRT,2021.1.2,MacIntel,60.14675809,,,,,,,,8,Slow,g,1,2.1036,2,3,11,1,1,,,,,
,0.58,,,,,,,,,f.PNG,f,6122ca22ff936b11ab2aed6e,2021-09-08_19h54.36.243,forced_choiceRT,2021.1.2,MacIntel,60.14675809,,,,,,,,8,Ontime,f,1,1.95,3,0,12,0,1,,,,,
,1.82,,,,,,,,,j.PNG,j,6122ca22ff936b11ab2aed6e,2021-09-08_19h54.36.243,forced_choiceRT,2021.1.2,MacIntel,60.14675809,,,,,,,,8,Ontime,j,1,2.0794,3,1,13,3,1,,,,,
,1.03,,,,,,,,,f.PNG,f,6122ca22ff936b11ab2aed6e,2021-09-08_19h54.36.243,forced_choiceRT,2021.1.2,MacIntel,60.14675809,,,,,,,,8,Ontime,f,1,2.0297,3,2,14,0,1,,,,,
,0.87,,,,,,,,,f.PNG,f,6122ca22ff936b11ab2aed6e,2021-09-08_19h54.36.243,forced_choiceRT,2021.1.2,MacIntel,60.14675809,,,,,,,,8,Ontime,f,1,1.9978,3,3,15,0,1,,,,,
,0.92,,,,,,,,,j.PNG,j,6122ca22ff936b11ab2aed6e,2021-09-08_19h54.36.243,forced_choiceRT,2021.1.2,MacIntel,60.14675809,,,,,,,,8,Ontime,j,1,2.0459,4,0,16,3,1,,,,,
,1.19,,,,,,,,,f.PNG,f,6122ca22ff936b11ab2aed6e,2021-09-08_19h54.36.243,forced_choiceRT,2021.1.2,MacIntel,60.14675809,,,,,,,,8,Fast,f,1,1.8844,4,1,17,0,1,,,,,
,1.71,,,,,,,,,j.PNG,j,6122ca22ff936b11ab2aed6e,2021-09-08_19h54.36.243,forced_choiceRT,2021.1.2,MacIntel,60.14675809,,,,,,,,8,Ontime,f,0,1.9295,4,2,18,3,1,,,,,
,1.6,,,,,,,,,h.PNG,h,6122ca22ff936b11ab2aed6e,2021-09-08_19h54.36.243,forced_choiceRT,2021.1.2,MacIntel,60.14675809,,,,,,,,8,Ontime,j,0,2.0295,4,3,19,2,1,,,,,
,1.2,,,,,,,,,g.PNG,g,6122ca22ff936b11ab2aed6e,2021-09-08_19h54.36.243,forced_choiceRT,2021.1.2,MacIntel,60.14675809,,,,,,,,8,Slow,g,1,4.6231,5,0,20,1,1,,,,,
,0.94,,,,,,,,,f.PNG,f,6122ca22ff936b11ab2aed6e,2021-09-08_19h54.36.243,forced_choiceRT,2021.1.2,MacIntel,60.14675809,,,,,,,,8,Ontime,f,1,1.9965,5,1,21,0,1,,,,,
,0.98,,,,,,,,,j.PNG,j,6122ca22ff936b11ab2aed6e,2021-09-08_19h54.36.243,forced_choiceRT,2021.1.2,MacIntel,60.14675809,,,,,,,,8,Ontime,j,1,1.9154,5,2,22,3,1,,,,,
,0.65,,,,,,,,,g.PNG,g,6122ca22ff936b11ab2aed6e,2021-09-08_19h54.36.243,forced_choiceRT,2021.1.2,MacIntel,60.14675809,,,,,,,,8,Ontime,g,1,2.0016,5,3,23,1,1,,,,,
,0.83,,,,,,,,,f.PNG,f,6122ca22ff936b11ab2aed6e,2021-09-08_19h54.36.243,forced_choiceRT,2021.1.2,MacIntel,60.14675809,,,,,,,,8,Ontime,f,1,2.0301,6,0,24,0,1,,,,,
,0.78,,,,,,,,,h.PNG,h,6122ca22ff936b11ab2aed6e,2021-09-08_19h54.36.243,forced_choiceRT,2021.1.2,MacIntel,60.14675809,,,,,,,,8,Ontime,h,1,1.9787,6,1,25,2,1,,,,,
,0.01,,,,,,,,,g.PNG,g,6122ca22ff936b11ab2aed6e,2021-09-08_19h54.36.243,forced_choiceRT,2021.1.2,MacIntel,60.14675809,,,,,,,,8,Ontime,g,1,1.9797,6,2,26,1,1,,,,,
,0.25,,,,,,,,,h.PNG,h,6122ca22ff936b11ab2aed6e,2021-09-08_19h54.36.243,forced_choiceRT,2021.1.2,MacIntel,60.14675809,,,,,,,,8,Ontime,h,1,2.0303,6,3,27,2,1,,,,,
,0.18,,,,,,,,,f.PNG,f,6122ca22ff936b11ab2aed6e,2021-09-08_19h54.36.243,forced_choiceRT,2021.1.2,MacIntel,60.14675809,,,,,,,,8,Ontime,f,1,1.9961,7,0,28,0,1,,,,,
,1.27,,,,,,,,,f.PNG,f,6122ca22ff936b11ab2aed6e,2021-09-08_19h54.36.243,forced_choiceRT,2021.1.2,MacIntel,60.14675809,,,,,,,,8,Ontime,f,1,2.03,7,1,29,0,1,,,,,
,0.84,,,,,,,,,j.PNG,j,6122ca22ff936b11ab2aed6e,2021-09-08_19h54.36.243,forced_choiceRT,2021.1.2,MacIntel,60.14675809,,,,,,,,8,Ontime,j,1,2.0513,7,2,30,3,1,,,,,
,1.3,,,,,,,,,g.PNG,g,6122ca22ff936b11ab2aed6e,2021-09-08_19h54.36.243,forced_choiceRT,2021.1.2,MacIntel,60.14675809,,,,,,,,8,Ontime,g,1,2.0027,7,3,31,1,1,,,,,
,0.01,,,,,,,,,g.PNG,g,6122ca22ff936b11ab2aed6e,2021-09-08_19h54.36.243,forced_choiceRT,2021.1.2,MacIntel,60.14675809,,,,,,,,8,Ontime,g,1,1.9873,8,0,32,1,1,,,,,
,1.96,,,,,,,,,h.PNG,h,6122ca22ff936b11ab2aed6e,2021-09-08_19h54.36.243,forced_choiceRT,2021.1.2,MacIntel,60.14675809,,,,,,,,8,Ontime,j,0,1.9632,8,1,33,2,1,,,,,
,1.35,,,,,,,,,g.PNG,g,6122ca22ff936b11ab2aed6e,2021-09-08_19h54.36.243,forced_choiceRT,2021.1.2,MacIntel,60.14675809,,,,,,,,8,Ontime,g,1,1.9626,8,2,34,1,1,,,,,
,0.65,,,,,,,,,h.PNG,h,6122ca22ff936b11ab2aed6e,2021-09-08_19h54.36.243,forced_choiceRT,2021.1.2,MacIntel,60.14675809,,,,,,,,8,Ontime,h,1,2.0806,8,3,35,2,1,,,,,
,1.1,,,,,,,,,h.PNG,h,6122ca22ff936b11ab2aed6e,2021-09-08_19h54.36.243,forced_choiceRT,2021.1.2,MacIntel,60.14675809,,,,,,,,8,Ontime,h,1,1.9968,9,0,36,2,1,,,,,
,0.79,,,,,,,,,f.PNG,f,6122ca22ff936b11ab2aed6e,2021-09-08_19h54.36.243,forced_choiceRT,2021.1.2,MacIntel,60.14675809,,,,,,,,8,Fast,f,1,1.8469,9,1,37,0,1,,,,,
,1.51,,,,,,,,,j.PNG,j,6122ca22ff936b11ab2aed6e,2021-09-08_19h54.36.243,forced_choiceRT,2021.1.2,MacIntel,60.14675809,,,,,,,,8,Fast,j,1,1.8699,9,2,38,3,1,,,,,
,1.88,,,,,,,,,j.PNG,j,6122ca22ff936b11ab2aed6e,2021-09-08_19h54.36.243,forced_choiceRT,2021.1.2,MacIntel,60.14675809,,,,,,,,8,Ontime,j,1,1.9129,9,3,39,3,1,,,,,
,,,,,,,,,,,,6122ca22ff936b11ab2aed6e,2021-09-08_19h54.36.243,forced_choiceRT,2021.1.2,MacIntel,60.14675809,,,,,,,,,,,,,,,,,,7,0,7,0,1
,0.97,,,,,,,,,j.PNG,j,6122ca22ff936b11ab2aed6e,2021-09-08_19h54.36.243,forced_choiceRT,2021.1.2,MacIntel,60.14675809,,,,,,,,9,Ontime,j,1,1.9263,0,0,0,3,1,,,,,
,0.41,,,,,,,,,j.PNG,j,6122ca22ff936b11ab2aed6e,2021-09-08_19h54.36.243,forced_choiceRT,2021.1.2,MacIntel,60.14675809,,,,,,,,9,Ontime,j,1,1.979,0,1,1,3,1,,,,,
,0.19,,,,,,,,,h.PNG,h,6122ca22ff936b11ab2aed6e,2021-09-08_19h54.36.243,forced_choiceRT,2021.1.2,MacIntel,60.14675809,,,,,,,,9,Ontime,h,1,1.9484,0,2,2,2,1,,,,,
,1.71,,,,,,,,,g.PNG,g,6122ca22ff936b11ab2aed6e,2021-09-08_19h54.36.243,forced_choiceRT,2021.1.2,MacIntel,60.14675809,,,,,,,,9,Ontime,g,1,2.0475,0,3,3,1,1,,,,,
,0.4,,,,,,,,,h.PNG,h,6122ca22ff936b11ab2aed6e,2021-09-08_19h54.36.243,forced_choiceRT,2021.1.2,MacIntel,60.14675809,,,,,,,,9,Ontime,h,1,2.014,1,0,4,2,1,,,,,
,0.39,,,,,,,,,f.PNG,f,6122ca22ff936b11ab2aed6e,2021-09-08_19h54.36.243,forced_choiceRT,2021.1.2,MacIntel,60.14675809,,,,,,,,9,Ontime,f,1,1.9175,1,1,5,0,1,,,,,
,1.6,,,,,,,,,h.PNG,h,6122ca22ff936b11ab2aed6e,2021-09-08_19h54.36.243,forced_choiceRT,2021.1.2,MacIntel,60.14675809,,,,,,,,9,Ontime,j,0,1.9128,1,2,6,2,1,,,,,
,1.31,,,,,,,,,j.PNG,j,6122ca22ff936b11ab2aed6e,2021-09-08_19h54.36.243,forced_choiceRT,2021.1.2,MacIntel,60.14675809,,,,,,,,9,Ontime,h,0,1.9462,1,3,7,3,1,,,,,
,1.62,,,,,,,,,j.PNG,j,6122ca22ff936b11ab2aed6e,2021-09-08_19h54.36.243,forced_choiceRT,2021.1.2,MacIntel,60.14675809,,,,,,,,9,Ontime,j,1,1.9531,2,0,8,3,1,,,,,
,1.47,,,,,,,,,f.PNG,f,6122ca22ff936b11ab2aed6e,2021-09-08_19h54.36.243,forced_choiceRT,2021.1.2,MacIntel,60.14675809,,,,,,,,9,Ontime,g,0,2.0309,2,1,9,0,1,,,,,
,1.32,,,,,,,,,h.PNG,h,6122ca22ff936b11ab2aed6e,2021-09-08_19h54.36.243,forced_choiceRT,2021.1.2,MacIntel,60.14675809,,,,,,,,9,Ontime,h,1,2.0961,2,2,10,2,1,,,,,
,1.43,,,,,,,,,g.PNG,g,6122ca22ff936b11ab2aed6e,2021-09-08_19h54.36.243,forced_choiceRT,2021.1.2,MacIntel,60.14675809,,,,,,,,9,Fast,j,0,1.8509,2,3,11,1,1,,,,,
,0.58,,,,,,,,,h.PNG,h,6122ca22ff936b11ab2aed6e,2021-09-08_19h54.36.243,forced_choiceRT,2021.1.2,MacIntel,60.14675809,,,,,,,,9,Ontime,h,1,1.9885,3,0,12,2,1,,,,,
,1.99,,,,,,,,,f.PNG,f,6122ca22ff936b11ab2aed6e,2021-09-08_19h54.36.243,forced_choiceRT,2021.1.2,MacIntel,60.14675809,,,,,,,,9,Ontime,j,0,2.0023,3,1,13,0,1,,,,,
,1.89,,,,,,,,,g.PNG,g,6122ca22ff936b11ab2aed6e,2021-09-08_19h54.36.243,forced_choiceRT,2021.1.2,MacIntel,60.14675809,,,,,,,,9,Ontime,f,0,1.9583,3,2,14,1,1,,,,,
,0.65,,,,,,,,,f.PNG,f,6122ca22ff936b11ab2aed6e,2021-09-08_19h54.36.243,forced_choiceRT,2021.1.2,MacIntel,60.14675809,,,,,,,,9,Ontime,f,1,2.0421,3,3,15,0,1,,,,,
,0.44,,,,,,,,,h.PNG,h,6122ca22ff936b11ab2aed6e,2021-09-08_19h54.36.243,forced_choiceRT,2021.1.2,MacIntel,60.14675809,,,,,,,,9,Ontime,h,1,1.9753,4,0,16,2,1,,,,,
,0.29,,,,,,,,,f.PNG,f,6122ca22ff936b11ab2aed6e,2021-09-08_19h54.36.243,forced_choiceRT,2021.1.2,MacIntel,60.14675809,,,,,,,,9,Fast,f,1,1.8845,4,1,17,0,1,,,,,
,1.57,,,,,,,,,j.PNG,j,6122ca22ff936b11ab2aed6e,2021-09-08_19h54.36.243,forced_choiceRT,2021.1.2,MacIntel,60.14675809,,,,,,,,9,Ontime,j,1,2.0173,4,2,18,3,1,,,,,
,0.27,,,,,,,,,j.PNG,j,6122ca22ff936b11ab2aed6e,2021-09-08_19h54.36.243,forced_choiceRT,2021.1.2,MacIntel,60.14675809,,,,,,,,9,Ontime,j,1,1.9134,4,3,19,3,1,,,,,
,1.07,,,,,,,,,h.PNG,h,6122ca22ff936b11ab2aed6e,2021-09-08_19h54.36.243,forced_choiceRT,2021.1.2,MacIntel,60.14675809,,,,,,,,9,Ontime,h,1,1.9129,5,0,20,2,1,,,,,
,1.55,,,,,,,,,g.PNG,g,6122ca22ff936b11ab2aed6e,2021-09-08_19h54.36.243,forced_choiceRT,2021.1.2,MacIntel,60.14675809,,,,,,,,9,Ontime,j,0,1.9298,5,1,21,1,1,,,,,
,1.41,,,,,,,,,j.PNG,j,6122ca22ff936b11ab2aed6e,2021-09-08_19h54.36.243,forced_choiceRT,2021.1.2,MacIntel,60.14675809,,,,,,,,9,Ontime,g,0,1.9803,5,2,22,3,1,,,,,
,1.06,,,,,,,,,j.PNG,j,6122ca22ff936b11ab2aed6e,2021-09-08_19h54.36.243,forced_choiceRT,2021.1.2,MacIntel,60.14675809,,,,,,,,9,Ontime,j,1,1.9251,5,3,23,3,1,,,,,
,0.94,,,,,,,,,f.PNG,f,6122ca22ff936b11ab2aed6e,2021-09-08_19h54.36.243,forced_choiceRT,2021.1.2,MacIntel,60.14675809,,,,,,,,9,Ontime,f,1,2.0623,6,0,24,0,1,,,,,
,0.14,,,,,,,,,h.PNG,h,6122ca22ff936b11ab2aed6e,2021-09-08_19h54.36.243,forced_choiceRT,2021.1.2,MacIntel,60.14675809,,,,,,,,9,Fast,h,1,1.8793,6,1,25,2,1,,,,,
,1.29,,,,,,,,,f.PNG,f,6122ca22ff936b11ab2aed6e,2021-09-08_19h54.36.243,forced_choiceRT,2021.1.2,MacIntel,60.14675809,,,,,,,,9,Ontime,j,0,2.0292,6,2,26,0,1,,,,,
,1.05,,,,,,,,,g.PNG,g,6122ca22ff936b11ab2aed6e,2021-09-08_19h54.36.243,forced_choiceRT,2021.1.2,MacIntel,60.14675809,,,,,,,,9,Ontime,g,1,2.0318,6,3,27,1,1,,,,,
,1.63,,,,,,,,,f.PNG,f,6122ca22ff936b11ab2aed6e,2021-09-08_19h54.36.243,forced_choiceRT,2021.1.2,MacIntel,60.14675809,,,,,,,,9,Fast,f,1,1.8809,7,0,28,0,1,,,,,
,0.39,,,,,,,,,g.PNG,g,6122ca22ff936b11ab2aed6e,2021-09-08_19h54.36.243,forced_choiceRT,2021.1.2,MacIntel,60.14675809,,,,,,,,9,Ontime,g,1,1.9418,7,1,29,1,1,,,,,
,0.15,,,,,,,,,h.PNG,h,6122ca22ff936b11ab2aed6e,2021-09-08_19h54.36.243,forced_choiceRT,2021.1.2,MacIntel,60.14675809,,,,,,,,9,Ontime,h,1,2.0466,7,2,30,2,1,,,,,
,0.44,,,,,,,,,f.PNG,f,6122ca22ff936b11ab2aed6e,2021-09-08_19h54.36.243,forced_choiceRT,2021.1.2,MacIntel,60.14675809,,,,,,,,9,Ontime,f,1,1.9487,7,3,31,0,1,,,,,
,0.9,,,,,,,,,h.PNG,h,6122ca22ff936b11ab2aed6e,2021-09-08_19h54.36.243,forced_choiceRT,2021.1.2,MacIntel,60.14675809,,,,,,,,9,Ontime,h,1,1.9991,8,0,32,2,1,,,,,
,0.23,,,,,,,,,j.PNG,j,6122ca22ff936b11ab2aed6e,2021-09-08_19h54.36.243,forced_choiceRT,2021.1.2,MacIntel,60.14675809,,,,,,,,9,Ontime,j,1,1.9466,8,1,33,3,1,,,,,
,1.97,,,,,,,,,g.PNG,g,6122ca22ff936b11ab2aed6e,2021-09-08_19h54.36.243,forced_choiceRT,2021.1.2,MacIntel,60.14675809,,,,,,,,9,Ontime,h,0,1.9469,8,2,34,1,1,,,,,
,1.96,,,,,,,,,g.PNG,g,6122ca22ff936b11ab2aed6e,2021-09-08_19h54.36.243,forced_choiceRT,2021.1.2,MacIntel,60.14675809,,,,,,,,9,Ontime,j,0,1.9421,8,3,35,1,1,,,,,
,1.02,,,,,,,,,g.PNG,g,6122ca22ff936b11ab2aed6e,2021-09-08_19h54.36.243,forced_choiceRT,2021.1.2,MacIntel,60.14675809,,,,,,,,9,Fast,g,1,1.7964,9,0,36,1,1,,,,,
,0.93,,,,,,,,,j.PNG,j,6122ca22ff936b11ab2aed6e,2021-09-08_19h54.36.243,forced_choiceRT,2021.1.2,MacIntel,60.14675809,,,,,,,,9,Ontime,j,1,1.9203,9,1,37,3,1,,,,,
,0.42,,,,,,,,,f.PNG,f,6122ca22ff936b11ab2aed6e,2021-09-08_19h54.36.243,forced_choiceRT,2021.1.2,MacIntel,60.14675809,,,,,,,,9,Ontime,f,1,1.9297,9,2,38,0,1,,,,,
,1.75,,,,,,,,,g.PNG,g,6122ca22ff936b11ab2aed6e,2021-09-08_19h54.36.243,forced_choiceRT,2021.1.2,MacIntel,60.14675809,,,,,,,,9,Fast,j,0,1.8461,9,3,39,1,1,,,,,
,,,,,,,,,,,,6122ca22ff936b11ab2aed6e,2021-09-08_19h54.36.243,forced_choiceRT,2021.1.2,MacIntel,60.14675809,,,,,,,,,,,,,,,,,,8,0,8,0,1
,1.43,,,,,,,,,f.PNG,f,6122ca22ff936b11ab2aed6e,2021-09-08_19h54.36.243,forced_choiceRT,2021.1.2,MacIntel,60.14675809,,,,,,,,10,Fast,j,0,1.861,0,0,0,0,1,,,,,
,0.34,,,,,,,,,h.PNG,h,6122ca22ff936b11ab2aed6e,2021-09-08_19h54.36.243,forced_choiceRT,2021.1.2,MacIntel,60.14675809,,,,,,,,10,Ontime,h,1,1.9465,0,1,1,2,1,,,,,
,1.14,,,,,,,,,f.PNG,f,6122ca22ff936b11ab2aed6e,2021-09-08_19h54.36.243,forced_choiceRT,2021.1.2,MacIntel,60.14675809,,,,,,,,10,Ontime,f,1,1.9792,0,2,2,0,1,,,,,
,0.9,,,,,,,,,j.PNG,j,6122ca22ff936b11ab2aed6e,2021-09-08_19h54.36.243,forced_choiceRT,2021.1.2,MacIntel,60.14675809,,,,,,,,10,Fast,j,1,1.8979,0,3,3,3,1,,,,,
,1.41,,,,,,,,,j.PNG,j,6122ca22ff936b11ab2aed6e,2021-09-08_19h54.36.243,forced_choiceRT,2021.1.2,MacIntel,60.14675809,,,,,,,,10,Ontime,j,1,1.9795,1,0,4,3,1,,,,,
,1.49,,,,,,,,,g.PNG,g,6122ca22ff936b11ab2aed6e,2021-09-08_19h54.36.243,forced_choiceRT,2021.1.2,MacIntel,60.14675809,,,,,,,,10,Ontime,j,0,2.0167,1,1,5,1,1,,,,,
,1.1,,,,,,,,,f.PNG,f,6122ca22ff936b11ab2aed6e,2021-09-08_19h54.36.243,forced_choiceRT,2021.1.2,MacIntel,60.14675809,,,,,,,,10,Slow,f,1,2.1791,1,2,6,0,1,,,,,
,0.35,,,,,,,,,f.PNG,f,6122ca22ff936b11ab2aed6e,2021-09-08_19h54.36.243,forced_choiceRT,2021.1.2,MacIntel,60.14675809,,,,,,,,10,Fast,f,1,1.7971,1,3,7,0,1,,,,,
,0.5,,,,,,,,,g.PNG,g,6122ca22ff936b11ab2aed6e,2021-09-08_19h54.36.243,forced_choiceRT,2021.1.2,MacIntel,60.14675809,,,,,,,,10,Ontime,g,1,1.9865,2,0,8,1,1,,,,,
,1.88,,,,,,,,,h.PNG,h,6122ca22ff936b11ab2aed6e,2021-09-08_19h54.36.243,forced_choiceRT,2021.1.2,MacIntel,60.14675809,,,,,,,,10,Ontime,j,0,2.08,2,1,9,2,1,,,,,
,0.73,,,,,,,,,g.PNG,g,6122ca22ff936b11ab2aed6e,2021-09-08_19h54.36.243,forced_choiceRT,2021.1.2,MacIntel,60.14675809,,,,,,,,10,Fast,g,1,1.8299,2,2,10,1,1,,,,,
,0.85,,,,,,,,,h.PNG,h,6122ca22ff936b11ab2aed6e,2021-09-08_19h54.36.243,forced_choiceRT,2021.1.2,MacIntel,60.14675809,,,,,,,,10,Ontime,h,1,1.9294,2,3,11,2,1,,,,,
,1.97,,,,,,,,,h.PNG,h,6122ca22ff936b11ab2aed6e,2021-09-08_19h54.36.243,forced_choiceRT,2021.1.2,MacIntel,60.14675809,,,,,,,,10,Ontime,g,0,2.0187,3,0,12,2,1,,,,,
,0.68,,,,,,,,,j.PNG,j,6122ca22ff936b11ab2aed6e,2021-09-08_19h54.36.243,forced_choiceRT,2021.1.2,MacIntel,60.14675809,,,,,,,,10,Ontime,j,1,1.9463,3,1,13,3,1,,,,,
,1.05,,,,,,,,,j.PNG,j,6122ca22ff936b11ab2aed6e,2021-09-08_19h54.36.243,forced_choiceRT,2021.1.2,MacIntel,60.14675809,,,,,,,,10,Ontime,j,1,1.9801,3,2,14,3,1,,,,,
,1.03,,,,,,,,,f.PNG,f,6122ca22ff936b11ab2aed6e,2021-09-08_19h54.36.243,forced_choiceRT,2021.1.2,MacIntel,60.14675809,,,,,,,,10,Ontime,f,1,2.0411,3,3,15,0,1,,,,,
,1.36,,,,,,,,,f.PNG,f,6122ca22ff936b11ab2aed6e,2021-09-08_19h54.36.243,forced_choiceRT,2021.1.2,MacIntel,60.14675809,,,,,,,,10,Ontime,f,1,2.0313,4,0,16,0,1,,,,,
,0.07,,,,,,,,,g.PNG,g,6122ca22ff936b11ab2aed6e,2021-09-08_19h54.36.243,forced_choiceRT,2021.1.2,MacIntel,60.14675809,,,,,,,,10,Fast,g,1,1.8803,4,1,17,1,1,,,,,
,0.78,,,,,,,,,f.PNG,f,6122ca22ff936b11ab2aed6e,2021-09-08_19h54.36.243,forced_choiceRT,2021.1.2,MacIntel,60.14675809,,,,,,,,10,Ontime,f,1,1.9796,4,2,18,0,1,,,,,
,0.46,,,,,,,,,j.PNG,j,6122ca22ff936b11ab2aed6e,2021-09-08_19h54.36.243,forced_choiceRT,2021.1.2,MacIntel,60.14675809,,,,,,,,10,Ontime,j,1,1.901,4,3,19,3,1,,,,,
,1.3,,,,,,,,,g.PNG,g,6122ca22ff936b11ab2aed6e,2021-09-08_19h54.36.243,forced_choiceRT,2021.1.2,MacIntel,60.14675809,,,,,,,,10,Ontime,j,0,1.9127,5,0,20,1,1,,,,,
,1.34,,,,,,,,,j.PNG,j,6122ca22ff936b11ab2aed6e,2021-09-08_19h54.36.243,forced_choiceRT,2021.1.2,MacIntel,60.14675809,,,,,,,,10,Slow,j,1,2.1813,5,1,21,3,1,,,,,
,0.16,,,,,,,,,f.PNG,f,6122ca22ff936b11ab2aed6e,2021-09-08_19h54.36.243,forced_choiceRT,2021.1.2,MacIntel,60.14675809,,,,,,,,10,Fast,f,1,1.8155,5,2,22,0,1,,,,,
,1.15,,,,,,,,,g.PNG,g,6122ca22ff936b11ab2aed6e,2021-09-08_19h54.36.243,forced_choiceRT,2021.1.2,MacIntel,60.14675809,,,,,,,,10,Fast,g,1,1.8473,5,3,23,1,1,,,,,
,0.88,,,,,,,,,j.PNG,j,6122ca22ff936b11ab2aed6e,2021-09-08_19h54.36.243,forced_choiceRT,2021.1.2,MacIntel,60.14675809,,,,,,,,10,Ontime,j,1,2.0789,6,0,24,3,1,,,,,
,0.89,,,,,,,,,f.PNG,f,6122ca22ff936b11ab2aed6e,2021-09-08_19h54.36.243,forced_choiceRT,2021.1.2,MacIntel,60.14675809,,,,,,,,10,Ontime,f,1,1.9459,6,1,25,0,1,,,,,
,0.55,,,,,,,,,h.PNG,h,6122ca22ff936b11ab2aed6e,2021-09-08_19h54.36.243,forced_choiceRT,2021.1.2,MacIntel,60.14675809,,,,,,,,10,Ontime,h,1,1.9175,6,2,26,2,1,,,,,
,1.55,,,,,,,,,g.PNG,g,6122ca22ff936b11ab2aed6e,2021-09-08_19h54.36.243,forced_choiceRT,2021.1.2,MacIntel,60.14675809,,,,,,,,10,Ontime,j,0,1.9537,6,3,27,1,1,,,,,
,0.53,,,,,,,,,j.PNG,j,6122ca22ff936b11ab2aed6e,2021-09-08_19h54.36.243,forced_choiceRT,2021.1.2,MacIntel,60.14675809,,,,,,,,10,Ontime,j,1,1.9015,7,0,28,3,1,,,,,
,0.72,,,,,,,,,h.PNG,h,6122ca22ff936b11ab2aed6e,2021-09-08_19h54.36.243,forced_choiceRT,2021.1.2,MacIntel,60.14675809,,,,,,,,10,Fast,h,1,1.8635,7,1,29,2,1,,,,,
,0.81,,,,,,,,,h.PNG,h,6122ca22ff936b11ab2aed6e,2021-09-08_19h54.36.243,forced_choiceRT,2021.1.2,MacIntel,60.14675809,,,,,,,,10,Ontime,h,1,1.9512,7,2,30,2,1,,,,,
,0.48,,,,,,,,,h.PNG,h,6122ca22ff936b11ab2aed6e,2021-09-08_19h54.36.243,forced_choiceRT,2021.1.2,MacIntel,60.14675809,,,,,,,,10,Fast,h,1,1.8502,7,3,31,2,1,,,,,
,0.65,,,,,,,,,j.PNG,j,6122ca22ff936b11ab2aed6e,2021-09-08_19h54.36.243,forced_choiceRT,2021.1.2,MacIntel,60.14675809,,,,,,,,10,Ontime,j,1,2.0467,8,0,32,3,1,,,,,
,0.03,,,,,,,,,f.PNG,f,6122ca22ff936b11ab2aed6e,2021-09-08_19h54.36.243,forced_choiceRT,2021.1.2,MacIntel,60.14675809,,,,,,,,10,Ontime,f,1,2.0623,8,1,33,0,1,,,,,
,0.06,,,,,,,,,g.PNG,g,6122ca22ff936b11ab2aed6e,2021-09-08_19h54.36.243,forced_choiceRT,2021.1.2,MacIntel,60.14675809,,,,,,,,10,Ontime,g,1,1.9626,8,2,34,1,1,,,,,
,1.1,,,,,,,,,g.PNG,g,6122ca22ff936b11ab2aed6e,2021-09-08_19h54.36.243,forced_choiceRT,2021.1.2,MacIntel,60.14675809,,,,,,,,10,Ontime,g,1,1.9993,8,3,35,1,1,,,,,
,0.62,,,,,,,,,j.PNG,j,6122ca22ff936b11ab2aed6e,2021-09-08_19h54.36.243,forced_choiceRT,2021.1.2,MacIntel,60.14675809,,,,,,,,10,Ontime,j,1,1.968,9,0,36,3,1,,,,,
,1.96,,,,,,,,,h.PNG,h,6122ca22ff936b11ab2aed6e,2021-09-08_19h54.36.243,forced_choiceRT,2021.1.2,MacIntel,60.14675809,,,,,,,,10,Fast,j,0,1.8819,9,1,37,2,1,,,,,
,0.23,,,,,,,,,g.PNG,g,6122ca22ff936b11ab2aed6e,2021-09-08_19h54.36.243,forced_choiceRT,2021.1.2,MacIntel,60.14675809,,,,,,,,10,Ontime,g,1,2.0124,9,2,38,1,1,,,,,
,1.85,,,,,,,,,h.PNG,h,6122ca22ff936b11ab2aed6e,2021-09-08_19h54.36.243,forced_choiceRT,2021.1.2,MacIntel,60.14675809,,,,,,,,10,Ontime,j,0,1.9516,9,3,39,2,1,,,,,
,,,,,,,,,,,,6122ca22ff936b11ab2aed6e,2021-09-08_19h54.36.243,forced_choiceRT,2021.1.2,MacIntel,60.14675809,,,,,,,,,,,,,,,,,,9,0,9,0,1
