IP_Addresss,target_onset,trial_resp_sp.keys,trial_resp_sp.corr,trial_resp_sp.rt,trials_train_loop.thisRepN,trials_train_loop.thisTrialN,trials_train_loop.thisN,trials_train_loop.thisIndex,trials_train_loop.ran,pic,correct_key,participant,date,expName,psychopyVersion,OS,frameRate,trial_resp_timing.keys,trial_resp_timing.rt,trials_train_timing.thisRepN,trials_train_timing.thisTrialN,trials_train_timing.thisN,trials_train_timing.thisIndex,trials_train_timing.ran,block_id,ontime,forcedRT_resp.keys,forcedRT_resp.corr,forcedRT_resp.rt,trials.thisRepN,trials.thisTrialN,trials.thisN,trials.thisIndex,trials.ran,blocks.thisRepN,blocks.thisTrialN,blocks.thisN,blocks.thisIndex,blocks.ran
73.183.68.72,0,j,1,3.259,0,0,0,3,1,j.PNG,j,612d890c774262d7afe06380,2021-09-08_21h05.08.136,forced_choiceRT,2021.1.2,MacIntel,58.82352941,,,,,,,,,,,,,,,,,,,,,,
,0,j,1,2.109,0,1,1,3,1,j.PNG,j,612d890c774262d7afe06380,2021-09-08_21h05.08.136,forced_choiceRT,2021.1.2,MacIntel,58.82352941,,,,,,,,,,,,,,,,,,,,,,
,0,f,1,1.546,0,2,2,0,1,f.PNG,f,612d890c774262d7afe06380,2021-09-08_21h05.08.136,forced_choiceRT,2021.1.2,MacIntel,58.82352941,,,,,,,,,,,,,,,,,,,,,,
,0,g,1,1.019,0,3,3,1,1,g.PNG,g,612d890c774262d7afe06380,2021-09-08_21h05.08.136,forced_choiceRT,2021.1.2,MacIntel,58.82352941,,,,,,,,,,,,,,,,,,,,,,
,0,h,1,1.285,1,0,4,2,1,h.PNG,h,612d890c774262d7afe06380,2021-09-08_21h05.08.136,forced_choiceRT,2021.1.2,MacIntel,58.82352941,,,,,,,,,,,,,,,,,,,,,,
,0,f,1,1.02,1,1,5,0,1,f.PNG,f,612d890c774262d7afe06380,2021-09-08_21h05.08.136,forced_choiceRT,2021.1.2,MacIntel,58.82352941,,,,,,,,,,,,,,,,,,,,,,
,0,j,1,1.299,1,2,6,3,1,j.PNG,j,612d890c774262d7afe06380,2021-09-08_21h05.08.136,forced_choiceRT,2021.1.2,MacIntel,58.82352941,,,,,,,,,,,,,,,,,,,,,,
,0,h,1,1.825,1,3,7,2,1,h.PNG,h,612d890c774262d7afe06380,2021-09-08_21h05.08.136,forced_choiceRT,2021.1.2,MacIntel,58.82352941,,,,,,,,,,,,,,,,,,,,,,
,0,f,1,1.004,2,0,8,0,1,f.PNG,f,612d890c774262d7afe06380,2021-09-08_21h05.08.136,forced_choiceRT,2021.1.2,MacIntel,58.82352941,,,,,,,,,,,,,,,,,,,,,,
,0,f,1,1.432,2,1,9,0,1,f.PNG,f,612d890c774262d7afe06380,2021-09-08_21h05.08.136,forced_choiceRT,2021.1.2,MacIntel,58.82352941,,,,,,,,,,,,,,,,,,,,,,
,0,j,1,0.773,2,2,10,3,1,j.PNG,j,612d890c774262d7afe06380,2021-09-08_21h05.08.136,forced_choiceRT,2021.1.2,MacIntel,58.82352941,,,,,,,,,,,,,,,,,,,,,,
,0,f,1,0.889,2,3,11,0,1,f.PNG,f,612d890c774262d7afe06380,2021-09-08_21h05.08.136,forced_choiceRT,2021.1.2,MacIntel,58.82352941,,,,,,,,,,,,,,,,,,,,,,
,0,f,1,1.333,3,0,12,0,1,f.PNG,f,612d890c774262d7afe06380,2021-09-08_21h05.08.136,forced_choiceRT,2021.1.2,MacIntel,58.82352941,,,,,,,,,,,,,,,,,,,,,,
,0,j,1,0.84,3,1,13,3,1,j.PNG,j,612d890c774262d7afe06380,2021-09-08_21h05.08.136,forced_choiceRT,2021.1.2,MacIntel,58.82352941,,,,,,,,,,,,,,,,,,,,,,
,0,g,1,1.743,3,2,14,1,1,g.PNG,g,612d890c774262d7afe06380,2021-09-08_21h05.08.136,forced_choiceRT,2021.1.2,MacIntel,58.82352941,,,,,,,,,,,,,,,,,,,,,,
,0,h,1,1.924,3,3,15,2,1,h.PNG,h,612d890c774262d7afe06380,2021-09-08_21h05.08.136,forced_choiceRT,2021.1.2,MacIntel,58.82352941,,,,,,,,,,,,,,,,,,,,,,
,0,h,1,1.069,4,0,16,2,1,h.PNG,h,612d890c774262d7afe06380,2021-09-08_21h05.08.136,forced_choiceRT,2021.1.2,MacIntel,58.82352941,,,,,,,,,,,,,,,,,,,,,,
,0,f,1,0.806,4,1,17,0,1,f.PNG,f,612d890c774262d7afe06380,2021-09-08_21h05.08.136,forced_choiceRT,2021.1.2,MacIntel,58.82352941,,,,,,,,,,,,,,,,,,,,,,
,0,g,1,1.315,4,2,18,1,1,g.PNG,g,612d890c774262d7afe06380,2021-09-08_21h05.08.136,forced_choiceRT,2021.1.2,MacIntel,58.82352941,,,,,,,,,,,,,,,,,,,,,,
,0,f,1,0.954,4,3,19,0,1,f.PNG,f,612d890c774262d7afe06380,2021-09-08_21h05.08.136,forced_choiceRT,2021.1.2,MacIntel,58.82352941,,,,,,,,,,,,,,,,,,,,,,
,0,h,1,1.318,5,0,20,2,1,h.PNG,h,612d890c774262d7afe06380,2021-09-08_21h05.08.136,forced_choiceRT,2021.1.2,MacIntel,58.82352941,,,,,,,,,,,,,,,,,,,,,,
,0,h,1,1.04,5,1,21,2,1,h.PNG,h,612d890c774262d7afe06380,2021-09-08_21h05.08.136,forced_choiceRT,2021.1.2,MacIntel,58.82352941,,,,,,,,,,,,,,,,,,,,,,
,0,j,1,0.987,5,2,22,3,1,j.PNG,j,612d890c774262d7afe06380,2021-09-08_21h05.08.136,forced_choiceRT,2021.1.2,MacIntel,58.82352941,,,,,,,,,,,,,,,,,,,,,,
,0,h,1,2.039,5,3,23,2,1,h.PNG,h,612d890c774262d7afe06380,2021-09-08_21h05.08.136,forced_choiceRT,2021.1.2,MacIntel,58.82352941,,,,,,,,,,,,,,,,,,,,,,
,0,g,1,1.102,6,0,24,1,1,g.PNG,g,612d890c774262d7afe06380,2021-09-08_21h05.08.136,forced_choiceRT,2021.1.2,MacIntel,58.82352941,,,,,,,,,,,,,,,,,,,,,,
,0,j,1,0.839,6,1,25,3,1,j.PNG,j,612d890c774262d7afe06380,2021-09-08_21h05.08.136,forced_choiceRT,2021.1.2,MacIntel,58.82352941,,,,,,,,,,,,,,,,,,,,,,
,0,g,1,1.135,6,2,26,1,1,g.PNG,g,612d890c774262d7afe06380,2021-09-08_21h05.08.136,forced_choiceRT,2021.1.2,MacIntel,58.82352941,,,,,,,,,,,,,,,,,,,,,,
,0,f,1,0.741,6,3,27,0,1,f.PNG,f,612d890c774262d7afe06380,2021-09-08_21h05.08.136,forced_choiceRT,2021.1.2,MacIntel,58.82352941,,,,,,,,,,,,,,,,,,,,,,
,0,j,1,0.855,7,0,28,3,1,j.PNG,j,612d890c774262d7afe06380,2021-09-08_21h05.08.136,forced_choiceRT,2021.1.2,MacIntel,58.82352941,,,,,,,,,,,,,,,,,,,,,,
,0,h,1,0.66,7,1,29,2,1,h.PNG,h,612d890c774262d7afe06380,2021-09-08_21h05.08.136,forced_choiceRT,2021.1.2,MacIntel,58.82352941,,,,,,,,,,,,,,,,,,,,,,
,0,f,1,0.872,7,2,30,0,1,f.PNG,f,612d890c774262d7afe06380,2021-09-08_21h05.08.136,forced_choiceRT,2021.1.2,MacIntel,58.82352941,,,,,,,,,,,,,,,,,,,,,,
,0,h,1,1.3,7,3,31,2,1,h.PNG,h,612d890c774262d7afe06380,2021-09-08_21h05.08.136,forced_choiceRT,2021.1.2,MacIntel,58.82352941,,,,,,,,,,,,,,,,,,,,,,
,0,f,1,0.759,8,0,32,0,1,f.PNG,f,612d890c774262d7afe06380,2021-09-08_21h05.08.136,forced_choiceRT,2021.1.2,MacIntel,58.82352941,,,,,,,,,,,,,,,,,,,,,,
,0,j,1,0.625,8,1,33,3,1,j.PNG,j,612d890c774262d7afe06380,2021-09-08_21h05.08.136,forced_choiceRT,2021.1.2,MacIntel,58.82352941,,,,,,,,,,,,,,,,,,,,,,
,0,h,1,0.644,8,2,34,2,1,h.PNG,h,612d890c774262d7afe06380,2021-09-08_21h05.08.136,forced_choiceRT,2021.1.2,MacIntel,58.82352941,,,,,,,,,,,,,,,,,,,,,,
,0,j,1,1.135,8,3,35,3,1,j.PNG,j,612d890c774262d7afe06380,2021-09-08_21h05.08.136,forced_choiceRT,2021.1.2,MacIntel,58.82352941,,,,,,,,,,,,,,,,,,,,,,
,0,g,1,0.954,9,0,36,1,1,g.PNG,g,612d890c774262d7afe06380,2021-09-08_21h05.08.136,forced_choiceRT,2021.1.2,MacIntel,58.82352941,,,,,,,,,,,,,,,,,,,,,,
,0,j,1,1.316,9,1,37,3,1,j.PNG,j,612d890c774262d7afe06380,2021-09-08_21h05.08.136,forced_choiceRT,2021.1.2,MacIntel,58.82352941,,,,,,,,,,,,,,,,,,,,,,
,0,g,1,1.069,9,2,38,1,1,g.PNG,g,612d890c774262d7afe06380,2021-09-08_21h05.08.136,forced_choiceRT,2021.1.2,MacIntel,58.82352941,,,,,,,,,,,,,,,,,,,,,,
,0,h,1,0.674,9,3,39,2,1,h.PNG,h,612d890c774262d7afe06380,2021-09-08_21h05.08.136,forced_choiceRT,2021.1.2,MacIntel,58.82352941,,,,,,,,,,,,,,,,,,,,,,
,0,f,0,0.888,10,0,40,1,1,g.PNG,g,612d890c774262d7afe06380,2021-09-08_21h05.08.136,forced_choiceRT,2021.1.2,MacIntel,58.82352941,,,,,,,,,,,,,,,,,,,,,,
,0,g,1,1.381,10,1,41,1,1,g.PNG,g,612d890c774262d7afe06380,2021-09-08_21h05.08.136,forced_choiceRT,2021.1.2,MacIntel,58.82352941,,,,,,,,,,,,,,,,,,,,,,
,0,g,1,0.691,10,2,42,1,1,g.PNG,g,612d890c774262d7afe06380,2021-09-08_21h05.08.136,forced_choiceRT,2021.1.2,MacIntel,58.82352941,,,,,,,,,,,,,,,,,,,,,,
,0,f,1,0.822,10,3,43,0,1,f.PNG,f,612d890c774262d7afe06380,2021-09-08_21h05.08.136,forced_choiceRT,2021.1.2,MacIntel,58.82352941,,,,,,,,,,,,,,,,,,,,,,
,0,h,1,1.217,11,0,44,2,1,h.PNG,h,612d890c774262d7afe06380,2021-09-08_21h05.08.136,forced_choiceRT,2021.1.2,MacIntel,58.82352941,,,,,,,,,,,,,,,,,,,,,,
,0,g,1,0.988,11,1,45,1,1,g.PNG,g,612d890c774262d7afe06380,2021-09-08_21h05.08.136,forced_choiceRT,2021.1.2,MacIntel,58.82352941,,,,,,,,,,,,,,,,,,,,,,
,0,g,1,0.61,11,2,46,1,1,g.PNG,g,612d890c774262d7afe06380,2021-09-08_21h05.08.136,forced_choiceRT,2021.1.2,MacIntel,58.82352941,,,,,,,,,,,,,,,,,,,,,,
,0,h,1,0.742,11,3,47,2,1,h.PNG,h,612d890c774262d7afe06380,2021-09-08_21h05.08.136,forced_choiceRT,2021.1.2,MacIntel,58.82352941,,,,,,,,,,,,,,,,,,,,,,
,0,j,1,0.674,12,0,48,3,1,j.PNG,j,612d890c774262d7afe06380,2021-09-08_21h05.08.136,forced_choiceRT,2021.1.2,MacIntel,58.82352941,,,,,,,,,,,,,,,,,,,,,,
,0,h,1,1.611,12,1,49,2,1,h.PNG,h,612d890c774262d7afe06380,2021-09-08_21h05.08.136,forced_choiceRT,2021.1.2,MacIntel,58.82352941,,,,,,,,,,,,,,,,,,,,,,
,0,j,1,0.675,12,2,50,3,1,j.PNG,j,612d890c774262d7afe06380,2021-09-08_21h05.08.136,forced_choiceRT,2021.1.2,MacIntel,58.82352941,,,,,,,,,,,,,,,,,,,,,,
,0,j,1,0.823,12,3,51,3,1,j.PNG,j,612d890c774262d7afe06380,2021-09-08_21h05.08.136,forced_choiceRT,2021.1.2,MacIntel,58.82352941,,,,,,,,,,,,,,,,,,,,,,
,0,f,1,0.757,13,0,52,0,1,f.PNG,f,612d890c774262d7afe06380,2021-09-08_21h05.08.136,forced_choiceRT,2021.1.2,MacIntel,58.82352941,,,,,,,,,,,,,,,,,,,,,,
,0,f,1,0.84,13,1,53,0,1,f.PNG,f,612d890c774262d7afe06380,2021-09-08_21h05.08.136,forced_choiceRT,2021.1.2,MacIntel,58.82352941,,,,,,,,,,,,,,,,,,,,,,
,0,g,1,0.806,13,2,54,1,1,g.PNG,g,612d890c774262d7afe06380,2021-09-08_21h05.08.136,forced_choiceRT,2021.1.2,MacIntel,58.82352941,,,,,,,,,,,,,,,,,,,,,,
,0,f,1,1.053,13,3,55,0,1,f.PNG,f,612d890c774262d7afe06380,2021-09-08_21h05.08.136,forced_choiceRT,2021.1.2,MacIntel,58.82352941,,,,,,,,,,,,,,,,,,,,,,
,0,g,1,0.79,14,0,56,1,1,g.PNG,g,612d890c774262d7afe06380,2021-09-08_21h05.08.136,forced_choiceRT,2021.1.2,MacIntel,58.82352941,,,,,,,,,,,,,,,,,,,,,,
,0,h,1,1.398,14,1,57,2,1,h.PNG,h,612d890c774262d7afe06380,2021-09-08_21h05.08.136,forced_choiceRT,2021.1.2,MacIntel,58.82352941,,,,,,,,,,,,,,,,,,,,,,
,0,j,1,0.79,14,2,58,3,1,j.PNG,j,612d890c774262d7afe06380,2021-09-08_21h05.08.136,forced_choiceRT,2021.1.2,MacIntel,58.82352941,,,,,,,,,,,,,,,,,,,,,,
,0,g,1,1.069,14,3,59,1,1,g.PNG,g,612d890c774262d7afe06380,2021-09-08_21h05.08.136,forced_choiceRT,2021.1.2,MacIntel,58.82352941,,,,,,,,,,,,,,,,,,,,,,
,,,,,,,,,,,,612d890c774262d7afe06380,2021-09-08_21h05.08.136,forced_choiceRT,2021.1.2,MacIntel,58.82352941,h,2.315,0,0,0,0,1,,,,,,,,,,,,,,,
,,,,,,,,,,,,612d890c774262d7afe06380,2021-09-08_21h05.08.136,forced_choiceRT,2021.1.2,MacIntel,58.82352941,h,2.292,1,0,1,0,1,,,,,,,,,,,,,,,
,,,,,,,,,,,,612d890c774262d7afe06380,2021-09-08_21h05.08.136,forced_choiceRT,2021.1.2,MacIntel,58.82352941,j,2.138,2,0,2,0,1,,,,,,,,,,,,,,,
,,,,,,,,,,,,612d890c774262d7afe06380,2021-09-08_21h05.08.136,forced_choiceRT,2021.1.2,MacIntel,58.82352941,g,2.124,3,0,3,0,1,,,,,,,,,,,,,,,
,,,,,,,,,,,,612d890c774262d7afe06380,2021-09-08_21h05.08.136,forced_choiceRT,2021.1.2,MacIntel,58.82352941,f,2.007,4,0,4,0,1,,,,,,,,,,,,,,,
,,,,,,,,,,,,612d890c774262d7afe06380,2021-09-08_21h05.08.136,forced_choiceRT,2021.1.2,MacIntel,58.82352941,j,1.868,5,0,5,0,1,,,,,,,,,,,,,,,
,,,,,,,,,,,,612d890c774262d7afe06380,2021-09-08_21h05.08.136,forced_choiceRT,2021.1.2,MacIntel,58.82352941,j,2.303,6,0,6,0,1,,,,,,,,,,,,,,,
,,,,,,,,,,,,612d890c774262d7afe06380,2021-09-08_21h05.08.136,forced_choiceRT,2021.1.2,MacIntel,58.82352941,h,2.169,7,0,7,0,1,,,,,,,,,,,,,,,
,,,,,,,,,,,,612d890c774262d7afe06380,2021-09-08_21h05.08.136,forced_choiceRT,2021.1.2,MacIntel,58.82352941,g,2.032,8,0,8,0,1,,,,,,,,,,,,,,,
,,,,,,,,,,,,612d890c774262d7afe06380,2021-09-08_21h05.08.136,forced_choiceRT,2021.1.2,MacIntel,58.82352941,g,2.056,9,0,9,0,1,,,,,,,,,,,,,,,
,,,,,,,,,,,,612d890c774262d7afe06380,2021-09-08_21h05.08.136,forced_choiceRT,2021.1.2,MacIntel,58.82352941,f,2.132,10,0,10,0,1,,,,,,,,,,,,,,,
,,,,,,,,,,,,612d890c774262d7afe06380,2021-09-08_21h05.08.136,forced_choiceRT,2021.1.2,MacIntel,58.82352941,g,2.121,11,0,11,0,1,,,,,,,,,,,,,,,
,,,,,,,,,,,,612d890c774262d7afe06380,2021-09-08_21h05.08.136,forced_choiceRT,2021.1.2,MacIntel,58.82352941,h,2.108,12,0,12,0,1,,,,,,,,,,,,,,,
,,,,,,,,,,,,612d890c774262d7afe06380,2021-09-08_21h05.08.136,forced_choiceRT,2021.1.2,MacIntel,58.82352941,j,2.023,13,0,13,0,1,,,,,,,,,,,,,,,
,,,,,,,,,,,,612d890c774262d7afe06380,2021-09-08_21h05.08.136,forced_choiceRT,2021.1.2,MacIntel,58.82352941,j,2.055,14,0,14,0,1,,,,,,,,,,,,,,,
,,,,,,,,,,,,612d890c774262d7afe06380,2021-09-08_21h05.08.136,forced_choiceRT,2021.1.2,MacIntel,58.82352941,h,2.036,15,0,15,0,1,,,,,,,,,,,,,,,
,,,,,,,,,,,,612d890c774262d7afe06380,2021-09-08_21h05.08.136,forced_choiceRT,2021.1.2,MacIntel,58.82352941,f,1.776,16,0,16,0,1,,,,,,,,,,,,,,,
,,,,,,,,,,,,612d890c774262d7afe06380,2021-09-08_21h05.08.136,forced_choiceRT,2021.1.2,MacIntel,58.82352941,g,2.236,17,0,17,0,1,,,,,,,,,,,,,,,
,,,,,,,,,,,,612d890c774262d7afe06380,2021-09-08_21h05.08.136,forced_choiceRT,2021.1.2,MacIntel,58.82352941,h,1.645,18,0,18,0,1,,,,,,,,,,,,,,,
,,,,,,,,,,,,612d890c774262d7afe06380,2021-09-08_21h05.08.136,forced_choiceRT,2021.1.2,MacIntel,58.82352941,j,1.941,19,0,19,0,1,,,,,,,,,,,,,,,
,0.15,,,,,,,,,f.PNG,f,612d890c774262d7afe06380,2021-09-08_21h05.08.136,forced_choiceRT,2021.1.2,MacIntel,58.82352941,,,,,,,,1,Fast,f,1,1.843,0,0,0,0,1,,,,,
,1.04,,,,,,,,,j.PNG,j,612d890c774262d7afe06380,2021-09-08_21h05.08.136,forced_choiceRT,2021.1.2,MacIntel,58.82352941,,,,,,,,1,Ontime,j,1,1.998,0,1,1,3,1,,,,,
,0.95,,,,,,,,,j.PNG,j,612d890c774262d7afe06380,2021-09-08_21h05.08.136,forced_choiceRT,2021.1.2,MacIntel,58.82352941,,,,,,,,1,Ontime,j,1,1.94,0,2,2,3,1,,,,,
,0.8,,,,,,,,,j.PNG,j,612d890c774262d7afe06380,2021-09-08_21h05.08.136,forced_choiceRT,2021.1.2,MacIntel,58.82352941,,,,,,,,1,Ontime,j,1,1.951,0,3,3,3,1,,,,,
,1.01,,,,,,,,,j.PNG,j,612d890c774262d7afe06380,2021-09-08_21h05.08.136,forced_choiceRT,2021.1.2,MacIntel,58.82352941,,,,,,,,1,Ontime,j,1,1.963,1,0,4,3,1,,,,,
,1.07,,,,,,,,,f.PNG,f,612d890c774262d7afe06380,2021-09-08_21h05.08.136,forced_choiceRT,2021.1.2,MacIntel,58.82352941,,,,,,,,1,Ontime,f,1,1.908,1,1,5,0,1,,,,,
,1.62,,,,,,,,,g.PNG,g,612d890c774262d7afe06380,2021-09-08_21h05.08.136,forced_choiceRT,2021.1.2,MacIntel,58.82352941,,,,,,,,1,Slow,h,0,2.384,1,2,6,1,1,,,,,
,0.17,,,,,,,,,g.PNG,g,612d890c774262d7afe06380,2021-09-08_21h05.08.136,forced_choiceRT,2021.1.2,MacIntel,58.82352941,,,,,,,,1,Fast,g,1,1.812,1,3,7,1,1,,,,,
,1.69,,,,,,,,,g.PNG,g,612d890c774262d7afe06380,2021-09-08_21h05.08.136,forced_choiceRT,2021.1.2,MacIntel,58.82352941,,,,,,,,1,Slow,g,1,2.138,2,0,8,1,1,,,,,
,0.5,,,,,,,,,f.PNG,f,612d890c774262d7afe06380,2021-09-08_21h05.08.136,forced_choiceRT,2021.1.2,MacIntel,58.82352941,,,,,,,,1,Ontime,f,1,1.924,2,1,9,0,1,,,,,
,0.77,,,,,,,,,h.PNG,h,612d890c774262d7afe06380,2021-09-08_21h05.08.136,forced_choiceRT,2021.1.2,MacIntel,58.82352941,,,,,,,,1,Fast,h,1,1.876,2,2,10,2,1,,,,,
,0.6,,,,,,,,,j.PNG,j,612d890c774262d7afe06380,2021-09-08_21h05.08.136,forced_choiceRT,2021.1.2,MacIntel,58.82352941,,,,,,,,1,Slow,j,1,2.121,2,3,11,3,1,,,,,
,0.43,,,,,,,,,g.PNG,g,612d890c774262d7afe06380,2021-09-08_21h05.08.136,forced_choiceRT,2021.1.2,MacIntel,58.82352941,,,,,,,,1,Ontime,g,1,1.958,3,0,12,1,1,,,,,
,0.71,,,,,,,,,h.PNG,h,612d890c774262d7afe06380,2021-09-08_21h05.08.136,forced_choiceRT,2021.1.2,MacIntel,58.82352941,,,,,,,,1,Fast,h,1,1.809,3,1,13,2,1,,,,,
,0.77,,,,,,,,,h.PNG,h,612d890c774262d7afe06380,2021-09-08_21h05.08.136,forced_choiceRT,2021.1.2,MacIntel,58.82352941,,,,,,,,1,Slow,h,1,2.157,3,2,14,2,1,,,,,
,0.17,,,,,,,,,f.PNG,f,612d890c774262d7afe06380,2021-09-08_21h05.08.136,forced_choiceRT,2021.1.2,MacIntel,58.82352941,,,,,,,,1,Fast,j,0,0.099,3,3,15,0,1,,,,,
,1.83,,,,,,,,,h.PNG,h,612d890c774262d7afe06380,2021-09-08_21h05.08.136,forced_choiceRT,2021.1.2,MacIntel,58.82352941,,,,,,,,1,Slow,h,1,4.967,4,0,16,2,1,,,,,
,0.56,,,,,,,,,h.PNG,h,612d890c774262d7afe06380,2021-09-08_21h05.08.136,forced_choiceRT,2021.1.2,MacIntel,58.82352941,,,,,,,,1,Fast,h,1,1.809,4,1,17,2,1,,,,,
,1.26,,,,,,,,,g.PNG,g,612d890c774262d7afe06380,2021-09-08_21h05.08.136,forced_choiceRT,2021.1.2,MacIntel,58.82352941,,,,,,,,1,Ontime,g,1,2.026,4,2,18,1,1,,,,,
,0.2,,,,,,,,,g.PNG,g,612d890c774262d7afe06380,2021-09-08_21h05.08.136,forced_choiceRT,2021.1.2,MacIntel,58.82352941,,,,,,,,1,Slow,g,1,2.138,4,3,19,1,1,,,,,
,0.13,,,,,,,,,h.PNG,h,612d890c774262d7afe06380,2021-09-08_21h05.08.136,forced_choiceRT,2021.1.2,MacIntel,58.82352941,,,,,,,,1,Ontime,h,1,1.973,5,0,20,2,1,,,,,
,1.43,,,,,,,,,h.PNG,h,612d890c774262d7afe06380,2021-09-08_21h05.08.136,forced_choiceRT,2021.1.2,MacIntel,58.82352941,,,,,,,,1,Slow,h,1,2.155,5,1,21,2,1,,,,,
,1.33,,,,,,,,,h.PNG,h,612d890c774262d7afe06380,2021-09-08_21h05.08.136,forced_choiceRT,2021.1.2,MacIntel,58.82352941,,,,,,,,1,Ontime,h,1,1.957,5,2,22,2,1,,,,,
,0.38,,,,,,,,,f.PNG,f,612d890c774262d7afe06380,2021-09-08_21h05.08.136,forced_choiceRT,2021.1.2,MacIntel,58.82352941,,,,,,,,1,Ontime,f,1,1.941,5,3,23,0,1,,,,,
,1.89,,,,,,,,,h.PNG,h,612d890c774262d7afe06380,2021-09-08_21h05.08.136,forced_choiceRT,2021.1.2,MacIntel,58.82352941,,,,,,,,1,Slow,h,1,2.287,6,0,24,2,1,,,,,
,1.99,,,,,,,,,j.PNG,j,612d890c774262d7afe06380,2021-09-08_21h05.08.136,forced_choiceRT,2021.1.2,MacIntel,58.82352941,,,,,,,,1,Fast,f,0,0.725,6,1,25,3,1,,,,,
,1.27,,,,,,,,,f.PNG,f,612d890c774262d7afe06380,2021-09-08_21h05.08.136,forced_choiceRT,2021.1.2,MacIntel,58.82352941,,,,,,,,1,Ontime,g,0,1.957,6,2,26,0,1,,,,,
,0.21,,,,,,,,,j.PNG,j,612d890c774262d7afe06380,2021-09-08_21h05.08.136,forced_choiceRT,2021.1.2,MacIntel,58.82352941,,,,,,,,1,Fast,j,1,1.809,6,3,27,3,1,,,,,
,1.08,,,,,,,,,f.PNG,f,612d890c774262d7afe06380,2021-09-08_21h05.08.136,forced_choiceRT,2021.1.2,MacIntel,58.82352941,,,,,,,,1,Ontime,f,1,1.924,7,0,28,0,1,,,,,
,1,,,,,,,,,f.PNG,f,612d890c774262d7afe06380,2021-09-08_21h05.08.136,forced_choiceRT,2021.1.2,MacIntel,58.82352941,,,,,,,,1,Ontime,f,1,1.907,7,1,29,0,1,,,,,
,0.72,,,,,,,,,g.PNG,g,612d890c774262d7afe06380,2021-09-08_21h05.08.136,forced_choiceRT,2021.1.2,MacIntel,58.82352941,,,,,,,,1,Fast,g,1,1.811,7,2,30,1,1,,,,,
,0,,,,,,,,,j.PNG,j,612d890c774262d7afe06380,2021-09-08_21h05.08.136,forced_choiceRT,2021.1.2,MacIntel,58.82352941,,,,,,,,1,Ontime,j,1,2.006,7,3,31,3,1,,,,,
,1.67,,,,,,,,,g.PNG,g,612d890c774262d7afe06380,2021-09-08_21h05.08.136,forced_choiceRT,2021.1.2,MacIntel,58.82352941,,,,,,,,1,Slow,g,1,2.121,8,0,32,1,1,,,,,
,0.38,,,,,,,,,f.PNG,f,612d890c774262d7afe06380,2021-09-08_21h05.08.136,forced_choiceRT,2021.1.2,MacIntel,58.82352941,,,,,,,,1,Ontime,f,1,2.023,8,1,33,0,1,,,,,
,0.14,,,,,,,,,f.PNG,f,612d890c774262d7afe06380,2021-09-08_21h05.08.136,forced_choiceRT,2021.1.2,MacIntel,58.82352941,,,,,,,,1,Fast,f,1,1.893,8,2,34,0,1,,,,,
,0.34,,,,,,,,,h.PNG,h,612d890c774262d7afe06380,2021-09-08_21h05.08.136,forced_choiceRT,2021.1.2,MacIntel,58.82352941,,,,,,,,1,Slow,h,1,2.109,8,3,35,2,1,,,,,
,0.79,,,,,,,,,j.PNG,j,612d890c774262d7afe06380,2021-09-08_21h05.08.136,forced_choiceRT,2021.1.2,MacIntel,58.82352941,,,,,,,,1,Ontime,j,1,1.962,9,0,36,3,1,,,,,
,0.81,,,,,,,,,g.PNG,g,612d890c774262d7afe06380,2021-09-08_21h05.08.136,forced_choiceRT,2021.1.2,MacIntel,58.82352941,,,,,,,,1,Fast,g,1,1.875,9,1,37,1,1,,,,,
,1.69,,,,,,,,,g.PNG,g,612d890c774262d7afe06380,2021-09-08_21h05.08.136,forced_choiceRT,2021.1.2,MacIntel,58.82352941,,,,,,,,1,Fast,f,0,0.61,9,2,38,1,1,,,,,
,0.54,,,,,,,,,j.PNG,j,612d890c774262d7afe06380,2021-09-08_21h05.08.136,forced_choiceRT,2021.1.2,MacIntel,58.82352941,,,,,,,,1,Fast,j,1,1.858,9,3,39,3,1,,,,,
,,,,,,,,,,,,612d890c774262d7afe06380,2021-09-08_21h05.08.136,forced_choiceRT,2021.1.2,MacIntel,58.82352941,,,,,,,,,,,,,,,,,,0,0,0,0,1
,1.42,,,,,,,,,f.PNG,f,612d890c774262d7afe06380,2021-09-08_21h05.08.136,forced_choiceRT,2021.1.2,MacIntel,58.82352941,,,,,,,,2,Slow,f,1,2.121,0,0,0,0,1,,,,,
,1.73,,,,,,,,,j.PNG,j,612d890c774262d7afe06380,2021-09-08_21h05.08.136,forced_choiceRT,2021.1.2,MacIntel,58.82352941,,,,,,,,2,Slow,j,1,2.336,0,1,1,3,1,,,,,
,0.91,,,,,,,,,f.PNG,f,612d890c774262d7afe06380,2021-09-08_21h05.08.136,forced_choiceRT,2021.1.2,MacIntel,58.82352941,,,,,,,,2,Fast,f,1,1.846,0,2,2,0,1,,,,,
,0.94,,,,,,,,,f.PNG,f,612d890c774262d7afe06380,2021-09-08_21h05.08.136,forced_choiceRT,2021.1.2,MacIntel,58.82352941,,,,,,,,2,Ontime,f,1,1.941,0,3,3,0,1,,,,,
,1.72,,,,,,,,,j.PNG,j,612d890c774262d7afe06380,2021-09-08_21h05.08.136,forced_choiceRT,2021.1.2,MacIntel,58.82352941,,,,,,,,2,Ontime,g,0,2.04,1,0,4,3,1,,,,,
,0.95,,,,,,,,,g.PNG,g,612d890c774262d7afe06380,2021-09-08_21h05.08.136,forced_choiceRT,2021.1.2,MacIntel,58.82352941,,,,,,,,2,Fast,g,1,1.876,1,1,5,1,1,,,,,
,1.66,,,,,,,,,h.PNG,h,612d890c774262d7afe06380,2021-09-08_21h05.08.136,forced_choiceRT,2021.1.2,MacIntel,58.82352941,,,,,,,,2,Slow,g,0,2.272,1,2,6,2,1,,,,,
,0.97,,,,,,,,,h.PNG,h,612d890c774262d7afe06380,2021-09-08_21h05.08.136,forced_choiceRT,2021.1.2,MacIntel,58.82352941,,,,,,,,2,Ontime,h,1,1.99,1,3,7,2,1,,,,,
,1.34,,,,,,,,,g.PNG,g,612d890c774262d7afe06380,2021-09-08_21h05.08.136,forced_choiceRT,2021.1.2,MacIntel,58.82352941,,,,,,,,2,Ontime,f,0,2.009,2,0,8,1,1,,,,,
,1.59,,,,,,,,,g.PNG,g,612d890c774262d7afe06380,2021-09-08_21h05.08.136,forced_choiceRT,2021.1.2,MacIntel,58.82352941,,,,,,,,2,Ontime,g,1,2.057,2,1,9,1,1,,,,,
,1.8,,,,,,,,,j.PNG,j,612d890c774262d7afe06380,2021-09-08_21h05.08.136,forced_choiceRT,2021.1.2,MacIntel,58.82352941,,,,,,,,2,Slow,g,0,2.137,2,2,10,3,1,,,,,
,0.94,,,,,,,,,h.PNG,h,612d890c774262d7afe06380,2021-09-08_21h05.08.136,forced_choiceRT,2021.1.2,MacIntel,58.82352941,,,,,,,,2,Ontime,h,1,1.957,2,3,11,2,1,,,,,
,1.39,,,,,,,,,g.PNG,g,612d890c774262d7afe06380,2021-09-08_21h05.08.136,forced_choiceRT,2021.1.2,MacIntel,58.82352941,,,,,,,,2,Ontime,g,1,1.94,3,0,12,1,1,,,,,
,0.45,,,,,,,,,j.PNG,j,612d890c774262d7afe06380,2021-09-08_21h05.08.136,forced_choiceRT,2021.1.2,MacIntel,58.82352941,,,,,,,,2,Slow,j,1,2.26,3,1,13,3,1,,,,,
,1.8,,,,,,,,,g.PNG,g,612d890c774262d7afe06380,2021-09-08_21h05.08.136,forced_choiceRT,2021.1.2,MacIntel,58.82352941,,,,,,,,2,Slow,h,0,2.105,3,2,14,1,1,,,,,
,0.38,,,,,,,,,f.PNG,f,612d890c774262d7afe06380,2021-09-08_21h05.08.136,forced_choiceRT,2021.1.2,MacIntel,58.82352941,,,,,,,,2,Fast,f,1,1.777,3,3,15,0,1,,,,,
,0.64,,,,,,,,,h.PNG,h,612d890c774262d7afe06380,2021-09-08_21h05.08.136,forced_choiceRT,2021.1.2,MacIntel,58.82352941,,,,,,,,2,Slow,h,1,2.122,4,0,16,2,1,,,,,
,1.62,,,,,,,,,g.PNG,g,612d890c774262d7afe06380,2021-09-08_21h05.08.136,forced_choiceRT,2021.1.2,MacIntel,58.82352941,,,,,,,,2,Slow,g,1,2.188,4,1,17,1,1,,,,,
,0.2,,,,,,,,,f.PNG,f,612d890c774262d7afe06380,2021-09-08_21h05.08.136,forced_choiceRT,2021.1.2,MacIntel,58.82352941,,,,,,,,2,Ontime,f,1,2.057,4,2,18,0,1,,,,,
,1.35,,,,,,,,,g.PNG,g,612d890c774262d7afe06380,2021-09-08_21h05.08.136,forced_choiceRT,2021.1.2,MacIntel,58.82352941,,,,,,,,2,Ontime,g,1,1.976,4,3,19,1,1,,,,,
,0.35,,,,,,,,,h.PNG,h,612d890c774262d7afe06380,2021-09-08_21h05.08.136,forced_choiceRT,2021.1.2,MacIntel,58.82352941,,,,,,,,2,Fast,h,1,1.809,5,0,20,2,1,,,,,
,0.07,,,,,,,,,g.PNG,g,612d890c774262d7afe06380,2021-09-08_21h05.08.136,forced_choiceRT,2021.1.2,MacIntel,58.82352941,,,,,,,,2,Ontime,g,1,1.941,5,1,21,1,1,,,,,
,0.11,,,,,,,,,g.PNG,g,612d890c774262d7afe06380,2021-09-08_21h05.08.136,forced_choiceRT,2021.1.2,MacIntel,58.82352941,,,,,,,,2,Fast,g,1,1.793,5,2,22,1,1,,,,,
,0.69,,,,,,,,,f.PNG,f,612d890c774262d7afe06380,2021-09-08_21h05.08.136,forced_choiceRT,2021.1.2,MacIntel,58.82352941,,,,,,,,2,Ontime,f,1,2.025,5,3,23,0,1,,,,,
,1.68,,,,,,,,,j.PNG,j,612d890c774262d7afe06380,2021-09-08_21h05.08.136,forced_choiceRT,2021.1.2,MacIntel,58.82352941,,,,,,,,2,Slow,h,0,2.303,6,0,24,3,1,,,,,
,1.37,,,,,,,,,j.PNG,j,612d890c774262d7afe06380,2021-09-08_21h05.08.136,forced_choiceRT,2021.1.2,MacIntel,58.82352941,,,,,,,,2,Ontime,j,1,2.016,6,1,25,3,1,,,,,
,1.63,,,,,,,,,j.PNG,j,612d890c774262d7afe06380,2021-09-08_21h05.08.136,forced_choiceRT,2021.1.2,MacIntel,58.82352941,,,,,,,,2,Slow,j,1,2.137,6,2,26,3,1,,,,,
,0.19,,,,,,,,,h.PNG,h,612d890c774262d7afe06380,2021-09-08_21h05.08.136,forced_choiceRT,2021.1.2,MacIntel,58.82352941,,,,,,,,2,Ontime,h,1,2.03,6,3,27,2,1,,,,,
,0.94,,,,,,,,,j.PNG,j,612d890c774262d7afe06380,2021-09-08_21h05.08.136,forced_choiceRT,2021.1.2,MacIntel,58.82352941,,,,,,,,2,Slow,j,1,2.105,7,0,28,3,1,,,,,
,0.21,,,,,,,,,h.PNG,h,612d890c774262d7afe06380,2021-09-08_21h05.08.136,forced_choiceRT,2021.1.2,MacIntel,58.82352941,,,,,,,,2,Ontime,h,1,2.039,7,1,29,2,1,,,,,
,1.95,,,,,,,,,j.PNG,j,612d890c774262d7afe06380,2021-09-08_21h05.08.136,forced_choiceRT,2021.1.2,MacIntel,58.82352941,,,,,,,,2,Slow,h,0,2.121,7,2,30,3,1,,,,,
,0.61,,,,,,,,,h.PNG,h,612d890c774262d7afe06380,2021-09-08_21h05.08.136,forced_choiceRT,2021.1.2,MacIntel,58.82352941,,,,,,,,2,Ontime,h,1,2.039,7,3,31,2,1,,,,,
,0.42,,,,,,,,,h.PNG,h,612d890c774262d7afe06380,2021-09-08_21h05.08.136,forced_choiceRT,2021.1.2,MacIntel,58.82352941,,,,,,,,2,Ontime,h,1,1.974,8,0,32,2,1,,,,,
,1.35,,,,,,,,,f.PNG,f,612d890c774262d7afe06380,2021-09-08_21h05.08.136,forced_choiceRT,2021.1.2,MacIntel,58.82352941,,,,,,,,2,Ontime,f,1,1.958,8,1,33,0,1,,,,,
,1.45,,,,,,,,,f.PNG,f,612d890c774262d7afe06380,2021-09-08_21h05.08.136,forced_choiceRT,2021.1.2,MacIntel,58.82352941,,,,,,,,2,Ontime,h,0,1.924,8,2,34,0,1,,,,,
,0.18,,,,,,,,,f.PNG,f,612d890c774262d7afe06380,2021-09-08_21h05.08.136,forced_choiceRT,2021.1.2,MacIntel,58.82352941,,,,,,,,2,Fast,f,1,0.954,8,3,35,0,1,,,,,
,1.18,,,,,,,,,f.PNG,f,612d890c774262d7afe06380,2021-09-08_21h05.08.136,forced_choiceRT,2021.1.2,MacIntel,58.82352941,,,,,,,,2,Ontime,f,1,2.007,9,0,36,0,1,,,,,
,0.39,,,,,,,,,h.PNG,h,612d890c774262d7afe06380,2021-09-08_21h05.08.136,forced_choiceRT,2021.1.2,MacIntel,58.82352941,,,,,,,,2,Ontime,h,1,1.908,9,1,37,2,1,,,,,
,0.99,,,,,,,,,g.PNG,g,612d890c774262d7afe06380,2021-09-08_21h05.08.136,forced_choiceRT,2021.1.2,MacIntel,58.82352941,,,,,,,,2,Fast,g,1,1.831,9,2,38,1,1,,,,,
,0.56,,,,,,,,,j.PNG,j,612d890c774262d7afe06380,2021-09-08_21h05.08.136,forced_choiceRT,2021.1.2,MacIntel,58.82352941,,,,,,,,2,Ontime,j,1,2.006,9,3,39,3,1,,,,,
,,,,,,,,,,,,612d890c774262d7afe06380,2021-09-08_21h05.08.136,forced_choiceRT,2021.1.2,MacIntel,58.82352941,,,,,,,,,,,,,,,,,,1,0,1,0,1
,1.95,,,,,,,,,f.PNG,f,612d890c774262d7afe06380,2021-09-08_21h05.08.136,forced_choiceRT,2021.1.2,MacIntel,58.82352941,,,,,,,,3,Slow,h,0,2.285,0,0,0,0,1,,,,,
,0.88,,,,,,,,,j.PNG,j,612d890c774262d7afe06380,2021-09-08_21h05.08.136,forced_choiceRT,2021.1.2,MacIntel,58.82352941,,,,,,,,3,Ontime,j,1,1.941,0,1,1,3,1,,,,,
,1.98,,,,,,,,,g.PNG,g,612d890c774262d7afe06380,2021-09-08_21h05.08.136,forced_choiceRT,2021.1.2,MacIntel,58.82352941,,,,,,,,3,Ontime,j,0,1.941,0,2,2,1,1,,,,,
,1.31,,,,,,,,,g.PNG,g,612d890c774262d7afe06380,2021-09-08_21h05.08.136,forced_choiceRT,2021.1.2,MacIntel,58.82352941,,,,,,,,3,Fast,j,0,1.842,0,3,3,1,1,,,,,
,1.62,,,,,,,,,h.PNG,h,612d890c774262d7afe06380,2021-09-08_21h05.08.136,forced_choiceRT,2021.1.2,MacIntel,58.82352941,,,,,,,,3,Slow,j,0,2.171,1,0,4,2,1,,,,,
,1.74,,,,,,,,,h.PNG,h,612d890c774262d7afe06380,2021-09-08_21h05.08.136,forced_choiceRT,2021.1.2,MacIntel,58.82352941,,,,,,,,3,Ontime,h,1,2.092,1,1,5,2,1,,,,,
,0.5,,,,,,,,,j.PNG,j,612d890c774262d7afe06380,2021-09-08_21h05.08.136,forced_choiceRT,2021.1.2,MacIntel,58.82352941,,,,,,,,3,Fast,j,1,1.893,1,2,6,3,1,,,,,
,1.89,,,,,,,,,j.PNG,j,612d890c774262d7afe06380,2021-09-08_21h05.08.136,forced_choiceRT,2021.1.2,MacIntel,58.82352941,,,,,,,,3,Slow,h,0,2.286,1,3,7,3,1,,,,,
,0.37,,,,,,,,,h.PNG,h,612d890c774262d7afe06380,2021-09-08_21h05.08.136,forced_choiceRT,2021.1.2,MacIntel,58.82352941,,,,,,,,3,Ontime,h,1,1.941,2,0,8,2,1,,,,,
,1.24,,,,,,,,,f.PNG,f,612d890c774262d7afe06380,2021-09-08_21h05.08.136,forced_choiceRT,2021.1.2,MacIntel,58.82352941,,,,,,,,3,Fast,f,1,1.875,2,1,9,0,1,,,,,
,0.76,,,,,,,,,g.PNG,g,612d890c774262d7afe06380,2021-09-08_21h05.08.136,forced_choiceRT,2021.1.2,MacIntel,58.82352941,,,,,,,,3,Fast,g,1,1.76,2,2,10,1,1,,,,,
,1.91,,,,,,,,,j.PNG,j,612d890c774262d7afe06380,2021-09-08_21h05.08.136,forced_choiceRT,2021.1.2,MacIntel,58.82352941,,,,,,,,3,Ontime,g,0,2.023,2,3,11,3,1,,,,,
,1.69,,,,,,,,,h.PNG,h,612d890c774262d7afe06380,2021-09-08_21h05.08.136,forced_choiceRT,2021.1.2,MacIntel,58.82352941,,,,,,,,3,Ontime,g,0,2.072,3,0,12,2,1,,,,,
,0.68,,,,,,,,,h.PNG,h,612d890c774262d7afe06380,2021-09-08_21h05.08.136,forced_choiceRT,2021.1.2,MacIntel,58.82352941,,,,,,,,3,Ontime,h,1,2.073,3,1,13,2,1,,,,,
,1.07,,,,,,,,,f.PNG,f,612d890c774262d7afe06380,2021-09-08_21h05.08.136,forced_choiceRT,2021.1.2,MacIntel,58.82352941,,,,,,,,3,Ontime,f,1,1.961,3,2,14,0,1,,,,,
,0.82,,,,,,,,,j.PNG,j,612d890c774262d7afe06380,2021-09-08_21h05.08.136,forced_choiceRT,2021.1.2,MacIntel,58.82352941,,,,,,,,3,Fast,j,1,1.76,3,3,15,3,1,,,,,
,0.16,,,,,,,,,f.PNG,f,612d890c774262d7afe06380,2021-09-08_21h05.08.136,forced_choiceRT,2021.1.2,MacIntel,58.82352941,,,,,,,,3,Ontime,f,1,2.039,4,0,16,0,1,,,,,
,1.72,,,,,,,,,h.PNG,h,612d890c774262d7afe06380,2021-09-08_21h05.08.136,forced_choiceRT,2021.1.2,MacIntel,58.82352941,,,,,,,,3,Slow,h,1,3.733,4,1,17,2,1,,,,,
,1.08,,,,,,,,,h.PNG,h,612d890c774262d7afe06380,2021-09-08_21h05.08.136,forced_choiceRT,2021.1.2,MacIntel,58.82352941,,,,,,,,3,Ontime,h,1,1.977,4,2,18,2,1,,,,,
,0.35,,,,,,,,,j.PNG,j,612d890c774262d7afe06380,2021-09-08_21h05.08.136,forced_choiceRT,2021.1.2,MacIntel,58.82352941,,,,,,,,3,Ontime,j,1,2.007,4,3,19,3,1,,,,,
,1.68,,,,,,,,,f.PNG,f,612d890c774262d7afe06380,2021-09-08_21h05.08.136,forced_choiceRT,2021.1.2,MacIntel,58.82352941,,,,,,,,3,Slow,h,0,2.186,5,0,20,0,1,,,,,
,1.62,,,,,,,,,j.PNG,j,612d890c774262d7afe06380,2021-09-08_21h05.08.136,forced_choiceRT,2021.1.2,MacIntel,58.82352941,,,,,,,,3,Ontime,h,0,1.966,5,1,21,3,1,,,,,
,1.41,,,,,,,,,h.PNG,h,612d890c774262d7afe06380,2021-09-08_21h05.08.136,forced_choiceRT,2021.1.2,MacIntel,58.82352941,,,,,,,,3,Fast,h,1,1.878,5,2,22,2,1,,,,,
,1.94,,,,,,,,,f.PNG,f,612d890c774262d7afe06380,2021-09-08_21h05.08.136,forced_choiceRT,2021.1.2,MacIntel,58.82352941,,,,,,,,3,Slow,h,0,2.105,5,3,23,0,1,,,,,
,1.48,,,,,,,,,g.PNG,g,612d890c774262d7afe06380,2021-09-08_21h05.08.136,forced_choiceRT,2021.1.2,MacIntel,58.82352941,,,,,,,,3,Slow,g,1,2.106,6,0,24,1,1,,,,,
,1.37,,,,,,,,,g.PNG,g,612d890c774262d7afe06380,2021-09-08_21h05.08.136,forced_choiceRT,2021.1.2,MacIntel,58.82352941,,,,,,,,3,Fast,g,1,1.858,6,1,25,1,1,,,,,
,1.48,,,,,,,,,j.PNG,j,612d890c774262d7afe06380,2021-09-08_21h05.08.136,forced_choiceRT,2021.1.2,MacIntel,58.82352941,,,,,,,,3,Ontime,g,0,1.974,6,2,26,3,1,,,,,
,0.58,,,,,,,,,g.PNG,g,612d890c774262d7afe06380,2021-09-08_21h05.08.136,forced_choiceRT,2021.1.2,MacIntel,58.82352941,,,,,,,,3,Ontime,g,1,1.957,6,3,27,1,1,,,,,
,1.11,,,,,,,,,g.PNG,g,612d890c774262d7afe06380,2021-09-08_21h05.08.136,forced_choiceRT,2021.1.2,MacIntel,58.82352941,,,,,,,,3,Ontime,g,1,1.924,7,0,28,1,1,,,,,
,1.45,,,,,,,,,f.PNG,f,612d890c774262d7afe06380,2021-09-08_21h05.08.136,forced_choiceRT,2021.1.2,MacIntel,58.82352941,,,,,,,,3,Ontime,f,1,2.072,7,1,29,0,1,,,,,
,0.5,,,,,,,,,j.PNG,j,612d890c774262d7afe06380,2021-09-08_21h05.08.136,forced_choiceRT,2021.1.2,MacIntel,58.82352941,,,,,,,,3,Ontime,j,1,1.941,7,2,30,3,1,,,,,
,0.71,,,,,,,,,j.PNG,j,612d890c774262d7afe06380,2021-09-08_21h05.08.136,forced_choiceRT,2021.1.2,MacIntel,58.82352941,,,,,,,,3,Ontime,j,1,1.91,7,3,31,3,1,,,,,
,0.9,,,,,,,,,f.PNG,f,612d890c774262d7afe06380,2021-09-08_21h05.08.136,forced_choiceRT,2021.1.2,MacIntel,58.82352941,,,,,,,,3,Ontime,f,1,2.071,8,0,32,0,1,,,,,
,1.31,,,,,,,,,g.PNG,g,612d890c774262d7afe06380,2021-09-08_21h05.08.136,forced_choiceRT,2021.1.2,MacIntel,58.82352941,,,,,,,,3,Ontime,g,1,1.959,8,1,33,1,1,,,,,
,1.69,,,,,,,,,g.PNG,g,612d890c774262d7afe06380,2021-09-08_21h05.08.136,forced_choiceRT,2021.1.2,MacIntel,58.82352941,,,,,,,,3,Slow,g,1,2.121,8,2,34,1,1,,,,,
,0.64,,,,,,,,,h.PNG,h,612d890c774262d7afe06380,2021-09-08_21h05.08.136,forced_choiceRT,2021.1.2,MacIntel,58.82352941,,,,,,,,3,Ontime,h,1,1.925,8,3,35,2,1,,,,,
,1.02,,,,,,,,,f.PNG,f,612d890c774262d7afe06380,2021-09-08_21h05.08.136,forced_choiceRT,2021.1.2,MacIntel,58.82352941,,,,,,,,3,Fast,f,1,1.892,9,0,36,0,1,,,,,
,0.09,,,,,,,,,g.PNG,g,612d890c774262d7afe06380,2021-09-08_21h05.08.136,forced_choiceRT,2021.1.2,MacIntel,58.82352941,,,,,,,,3,Ontime,g,1,2.007,9,1,37,1,1,,,,,
,0.93,,,,,,,,,h.PNG,h,612d890c774262d7afe06380,2021-09-08_21h05.08.136,forced_choiceRT,2021.1.2,MacIntel,58.82352941,,,,,,,,3,Ontime,h,1,2.054,9,2,38,2,1,,,,,
,0.31,,,,,,,,,f.PNG,f,612d890c774262d7afe06380,2021-09-08_21h05.08.136,forced_choiceRT,2021.1.2,MacIntel,58.82352941,,,,,,,,3,Ontime,f,1,1.995,9,3,39,0,1,,,,,
,,,,,,,,,,,,612d890c774262d7afe06380,2021-09-08_21h05.08.136,forced_choiceRT,2021.1.2,MacIntel,58.82352941,,,,,,,,,,,,,,,,,,2,0,2,0,1
,0.26,,,,,,,,,h.PNG,h,612d890c774262d7afe06380,2021-09-08_21h05.08.136,forced_choiceRT,2021.1.2,MacIntel,58.82352941,,,,,,,,4,Fast,g,0,1.894,0,0,0,2,1,,,,,
,0.78,,,,,,,,,j.PNG,j,612d890c774262d7afe06380,2021-09-08_21h05.08.136,forced_choiceRT,2021.1.2,MacIntel,58.82352941,,,,,,,,4,Ontime,j,1,1.948,0,1,1,3,1,,,,,
,0.26,,,,,,,,,f.PNG,f,612d890c774262d7afe06380,2021-09-08_21h05.08.136,forced_choiceRT,2021.1.2,MacIntel,58.82352941,,,,,,,,4,Ontime,f,1,2.096,0,2,2,0,1,,,,,
,0.74,,,,,,,,,h.PNG,h,612d890c774262d7afe06380,2021-09-08_21h05.08.136,forced_choiceRT,2021.1.2,MacIntel,58.82352941,,,,,,,,4,Fast,h,1,1.893,0,3,3,2,1,,,,,
,0.62,,,,,,,,,j.PNG,j,612d890c774262d7afe06380,2021-09-08_21h05.08.136,forced_choiceRT,2021.1.2,MacIntel,58.82352941,,,,,,,,4,Slow,j,1,2.162,1,0,4,3,1,,,,,
,1.57,,,,,,,,,f.PNG,f,612d890c774262d7afe06380,2021-09-08_21h05.08.136,forced_choiceRT,2021.1.2,MacIntel,58.82352941,,,,,,,,4,Ontime,f,1,2.023,1,1,5,0,1,,,,,
,1.13,,,,,,,,,g.PNG,g,612d890c774262d7afe06380,2021-09-08_21h05.08.136,forced_choiceRT,2021.1.2,MacIntel,58.82352941,,,,,,,,4,Ontime,g,1,2.008,1,2,6,1,1,,,,,
,0.93,,,,,,,,,f.PNG,f,612d890c774262d7afe06380,2021-09-08_21h05.08.136,forced_choiceRT,2021.1.2,MacIntel,58.82352941,,,,,,,,4,Ontime,f,1,1.973,1,3,7,0,1,,,,,
,0.35,,,,,,,,,j.PNG,j,612d890c774262d7afe06380,2021-09-08_21h05.08.136,forced_choiceRT,2021.1.2,MacIntel,58.82352941,,,,,,,,4,Ontime,j,1,2.056,2,0,8,3,1,,,,,
,0.11,,,,,,,,,f.PNG,f,612d890c774262d7afe06380,2021-09-08_21h05.08.136,forced_choiceRT,2021.1.2,MacIntel,58.82352941,,,,,,,,4,Fast,f,1,1.779,2,1,9,0,1,,,,,
,1.15,,,,,,,,,j.PNG,j,612d890c774262d7afe06380,2021-09-08_21h05.08.136,forced_choiceRT,2021.1.2,MacIntel,58.82352941,,,,,,,,4,Ontime,j,1,1.973,2,2,10,3,1,,,,,
,0.44,,,,,,,,,j.PNG,j,612d890c774262d7afe06380,2021-09-08_21h05.08.136,forced_choiceRT,2021.1.2,MacIntel,58.82352941,,,,,,,,4,Ontime,j,1,1.99,2,3,11,3,1,,,,,
,1.05,,,,,,,,,g.PNG,g,612d890c774262d7afe06380,2021-09-08_21h05.08.136,forced_choiceRT,2021.1.2,MacIntel,58.82352941,,,,,,,,4,Fast,g,1,1.879,3,0,12,1,1,,,,,
,1.29,,,,,,,,,f.PNG,f,612d890c774262d7afe06380,2021-09-08_21h05.08.136,forced_choiceRT,2021.1.2,MacIntel,58.82352941,,,,,,,,4,Ontime,g,0,1.925,3,1,13,0,1,,,,,
,1.28,,,,,,,,,j.PNG,j,612d890c774262d7afe06380,2021-09-08_21h05.08.136,forced_choiceRT,2021.1.2,MacIntel,58.82352941,,,,,,,,4,Fast,f,0,1.316,3,2,14,3,1,,,,,
,1.31,,,,,,,,,g.PNG,g,612d890c774262d7afe06380,2021-09-08_21h05.08.136,forced_choiceRT,2021.1.2,MacIntel,58.82352941,,,,,,,,4,Ontime,g,1,1.941,3,3,15,1,1,,,,,
,1.65,,,,,,,,,h.PNG,h,612d890c774262d7afe06380,2021-09-08_21h05.08.136,forced_choiceRT,2021.1.2,MacIntel,58.82352941,,,,,,,,4,Slow,h,1,2.187,4,0,16,2,1,,,,,
,1.54,,,,,,,,,f.PNG,f,612d890c774262d7afe06380,2021-09-08_21h05.08.136,forced_choiceRT,2021.1.2,MacIntel,58.82352941,,,,,,,,4,Slow,f,1,2.186,4,1,17,0,1,,,,,
,1.99,,,,,,,,,g.PNG,g,612d890c774262d7afe06380,2021-09-08_21h05.08.136,forced_choiceRT,2021.1.2,MacIntel,58.82352941,,,,,,,,4,Ontime,j,0,2.073,4,2,18,1,1,,,,,
,1.01,,,,,,,,,g.PNG,g,612d890c774262d7afe06380,2021-09-08_21h05.08.136,forced_choiceRT,2021.1.2,MacIntel,58.82352941,,,,,,,,4,Ontime,j,0,1.941,4,3,19,1,1,,,,,
,0.18,,,,,,,,,j.PNG,j,612d890c774262d7afe06380,2021-09-08_21h05.08.136,forced_choiceRT,2021.1.2,MacIntel,58.82352941,,,,,,,,4,Fast,j,1,1.777,5,0,20,3,1,,,,,
,1.81,,,,,,,,,g.PNG,g,612d890c774262d7afe06380,2021-09-08_21h05.08.136,forced_choiceRT,2021.1.2,MacIntel,58.82352941,,,,,,,,4,Ontime,j,0,1.961,5,1,21,1,1,,,,,
,0.88,,,,,,,,,h.PNG,h,612d890c774262d7afe06380,2021-09-08_21h05.08.136,forced_choiceRT,2021.1.2,MacIntel,58.82352941,,,,,,,,4,Fast,f,0,0.99,5,2,22,2,1,,,,,
,0.76,,,,,,,,,g.PNG,g,612d890c774262d7afe06380,2021-09-08_21h05.08.136,forced_choiceRT,2021.1.2,MacIntel,58.82352941,,,,,,,,4,Slow,g,1,2.221,5,3,23,1,1,,,,,
,1.55,,,,,,,,,h.PNG,h,612d890c774262d7afe06380,2021-09-08_21h05.08.136,forced_choiceRT,2021.1.2,MacIntel,58.82352941,,,,,,,,4,Ontime,j,0,1.925,6,0,24,2,1,,,,,
,0.05,,,,,,,,,f.PNG,f,612d890c774262d7afe06380,2021-09-08_21h05.08.136,forced_choiceRT,2021.1.2,MacIntel,58.82352941,,,,,,,,4,Fast,f,1,1.777,6,1,25,0,1,,,,,
,0.42,,,,,,,,,j.PNG,j,612d890c774262d7afe06380,2021-09-08_21h05.08.136,forced_choiceRT,2021.1.2,MacIntel,58.82352941,,,,,,,,4,Ontime,j,1,2.023,6,2,26,3,1,,,,,
,0.64,,,,,,,,,f.PNG,f,612d890c774262d7afe06380,2021-09-08_21h05.08.136,forced_choiceRT,2021.1.2,MacIntel,58.82352941,,,,,,,,4,Ontime,f,1,1.908,6,3,27,0,1,,,,,
,0.86,,,,,,,,,f.PNG,f,612d890c774262d7afe06380,2021-09-08_21h05.08.136,forced_choiceRT,2021.1.2,MacIntel,58.82352941,,,,,,,,4,Fast,f,1,0.905,7,0,28,0,1,,,,,
,0.33,,,,,,,,,h.PNG,h,612d890c774262d7afe06380,2021-09-08_21h05.08.136,forced_choiceRT,2021.1.2,MacIntel,58.82352941,,,,,,,,4,Fast,h,1,1.3,7,1,29,2,1,,,,,
,0.3,,,,,,,,,h.PNG,h,612d890c774262d7afe06380,2021-09-08_21h05.08.136,forced_choiceRT,2021.1.2,MacIntel,58.82352941,,,,,,,,4,Ontime,h,1,2.024,7,2,30,2,1,,,,,
,1.68,,,,,,,,,j.PNG,j,612d890c774262d7afe06380,2021-09-08_21h05.08.136,forced_choiceRT,2021.1.2,MacIntel,58.82352941,,,,,,,,4,Slow,h,0,2.155,7,3,31,3,1,,,,,
,0.58,,,,,,,,,g.PNG,g,612d890c774262d7afe06380,2021-09-08_21h05.08.136,forced_choiceRT,2021.1.2,MacIntel,58.82352941,,,,,,,,4,Slow,g,1,2.107,8,0,32,1,1,,,,,
,1.04,,,,,,,,,h.PNG,h,612d890c774262d7afe06380,2021-09-08_21h05.08.136,forced_choiceRT,2021.1.2,MacIntel,58.82352941,,,,,,,,4,Fast,j,0,0.955,8,1,33,2,1,,,,,
,0.97,,,,,,,,,h.PNG,h,612d890c774262d7afe06380,2021-09-08_21h05.08.136,forced_choiceRT,2021.1.2,MacIntel,58.82352941,,,,,,,,4,Fast,h,1,1.892,8,2,34,2,1,,,,,
,0.86,,,,,,,,,g.PNG,g,612d890c774262d7afe06380,2021-09-08_21h05.08.136,forced_choiceRT,2021.1.2,MacIntel,58.82352941,,,,,,,,4,Ontime,g,1,1.99,8,3,35,1,1,,,,,
,1.65,,,,,,,,,h.PNG,h,612d890c774262d7afe06380,2021-09-08_21h05.08.136,forced_choiceRT,2021.1.2,MacIntel,58.82352941,,,,,,,,4,Slow,h,1,2.203,9,0,36,2,1,,,,,
,0.8,,,,,,,,,f.PNG,f,612d890c774262d7afe06380,2021-09-08_21h05.08.136,forced_choiceRT,2021.1.2,MacIntel,58.82352941,,,,,,,,4,Fast,f,1,1.842,9,1,37,0,1,,,,,
,0.39,,,,,,,,,j.PNG,j,612d890c774262d7afe06380,2021-09-08_21h05.08.136,forced_choiceRT,2021.1.2,MacIntel,58.82352941,,,,,,,,4,Fast,f,0,0.481,9,2,38,3,1,,,,,
,1.04,,,,,,,,,g.PNG,g,612d890c774262d7afe06380,2021-09-08_21h05.08.136,forced_choiceRT,2021.1.2,MacIntel,58.82352941,,,,,,,,4,Ontime,f,0,1.941,9,3,39,1,1,,,,,
,,,,,,,,,,,,612d890c774262d7afe06380,2021-09-08_21h05.08.136,forced_choiceRT,2021.1.2,MacIntel,58.82352941,,,,,,,,,,,,,,,,,,3,0,3,0,1
,0.86,,,,,,,,,j.PNG,j,612d890c774262d7afe06380,2021-09-08_21h05.08.136,forced_choiceRT,2021.1.2,MacIntel,58.82352941,,,,,,,,5,Fast,j,1,1.797,0,0,0,3,1,,,,,
,1.57,,,,,,,,,j.PNG,j,612d890c774262d7afe06380,2021-09-08_21h05.08.136,forced_choiceRT,2021.1.2,MacIntel,58.82352941,,,,,,,,5,Ontime,h,0,2.089,0,1,1,3,1,,,,,
,1.88,,,,,,,,,h.PNG,h,612d890c774262d7afe06380,2021-09-08_21h05.08.136,forced_choiceRT,2021.1.2,MacIntel,58.82352941,,,,,,,,5,Ontime,j,0,2.088,0,2,2,2,1,,,,,
,0.09,,,,,,,,,j.PNG,j,612d890c774262d7afe06380,2021-09-08_21h05.08.136,forced_choiceRT,2021.1.2,MacIntel,58.82352941,,,,,,,,5,Ontime,j,1,1.908,0,3,3,3,1,,,,,
,1.26,,,,,,,,,h.PNG,h,612d890c774262d7afe06380,2021-09-08_21h05.08.136,forced_choiceRT,2021.1.2,MacIntel,58.82352941,,,,,,,,5,Ontime,h,1,2.007,1,0,4,2,1,,,,,
,0.56,,,,,,,,,g.PNG,g,612d890c774262d7afe06380,2021-09-08_21h05.08.136,forced_choiceRT,2021.1.2,MacIntel,58.82352941,,,,,,,,5,Fast,g,1,1.81,1,1,5,1,1,,,,,
,0.8,,,,,,,,,g.PNG,g,612d890c774262d7afe06380,2021-09-08_21h05.08.136,forced_choiceRT,2021.1.2,MacIntel,58.82352941,,,,,,,,5,Ontime,g,1,1.99,1,2,6,1,1,,,,,
,0.71,,,,,,,,,g.PNG,g,612d890c774262d7afe06380,2021-09-08_21h05.08.136,forced_choiceRT,2021.1.2,MacIntel,58.82352941,,,,,,,,5,Ontime,g,1,1.941,1,3,7,1,1,,,,,
,1.33,,,,,,,,,j.PNG,j,612d890c774262d7afe06380,2021-09-08_21h05.08.136,forced_choiceRT,2021.1.2,MacIntel,58.82352941,,,,,,,,5,Ontime,j,1,2.076,2,0,8,3,1,,,,,
,1.17,,,,,,,,,g.PNG,g,612d890c774262d7afe06380,2021-09-08_21h05.08.136,forced_choiceRT,2021.1.2,MacIntel,58.82352941,,,,,,,,5,Ontime,g,1,1.924,2,1,9,1,1,,,,,
,0.84,,,,,,,,,h.PNG,h,612d890c774262d7afe06380,2021-09-08_21h05.08.136,forced_choiceRT,2021.1.2,MacIntel,58.82352941,,,,,,,,5,Ontime,h,1,1.909,2,2,10,2,1,,,,,
,0.75,,,,,,,,,f.PNG,f,612d890c774262d7afe06380,2021-09-08_21h05.08.136,forced_choiceRT,2021.1.2,MacIntel,58.82352941,,,,,,,,5,Fast,f,1,1.828,2,3,11,0,1,,,,,
,1.62,,,,,,,,,f.PNG,f,612d890c774262d7afe06380,2021-09-08_21h05.08.136,forced_choiceRT,2021.1.2,MacIntel,58.82352941,,,,,,,,5,Slow,f,1,2.253,3,0,12,0,1,,,,,
,0.27,,,,,,,,,f.PNG,f,612d890c774262d7afe06380,2021-09-08_21h05.08.136,forced_choiceRT,2021.1.2,MacIntel,58.82352941,,,,,,,,5,Fast,f,1,0.033,3,1,13,0,1,,,,,
,0.09,,,,,,,,,j.PNG,j,612d890c774262d7afe06380,2021-09-08_21h05.08.136,forced_choiceRT,2021.1.2,MacIntel,58.82352941,,,,,,,,5,Ontime,j,1,2.023,3,2,14,3,1,,,,,
,1.06,,,,,,,,,j.PNG,j,612d890c774262d7afe06380,2021-09-08_21h05.08.136,forced_choiceRT,2021.1.2,MacIntel,58.82352941,,,,,,,,5,Fast,j,1,1.711,3,3,15,3,1,,,,,
,0.65,,,,,,,,,g.PNG,g,612d890c774262d7afe06380,2021-09-08_21h05.08.136,forced_choiceRT,2021.1.2,MacIntel,58.82352941,,,,,,,,5,Ontime,g,1,2.005,4,0,16,1,1,,,,,
,0.43,,,,,,,,,g.PNG,g,612d890c774262d7afe06380,2021-09-08_21h05.08.136,forced_choiceRT,2021.1.2,MacIntel,58.82352941,,,,,,,,5,Slow,g,1,2.105,4,1,17,1,1,,,,,
,0.47,,,,,,,,,j.PNG,j,612d890c774262d7afe06380,2021-09-08_21h05.08.136,forced_choiceRT,2021.1.2,MacIntel,58.82352941,,,,,,,,5,Fast,h,0,1.76,4,2,18,3,1,,,,,
,1.42,,,,,,,,,h.PNG,h,612d890c774262d7afe06380,2021-09-08_21h05.08.136,forced_choiceRT,2021.1.2,MacIntel,58.82352941,,,,,,,,5,Ontime,h,1,2.023,4,3,19,2,1,,,,,
,0.01,,,,,,,,,h.PNG,h,612d890c774262d7afe06380,2021-09-08_21h05.08.136,forced_choiceRT,2021.1.2,MacIntel,58.82352941,,,,,,,,5,Fast,h,1,1.874,5,0,20,2,1,,,,,
,1.54,,,,,,,,,j.PNG,j,612d890c774262d7afe06380,2021-09-08_21h05.08.136,forced_choiceRT,2021.1.2,MacIntel,58.82352941,,,,,,,,5,Ontime,j,1,2.072,5,1,21,3,1,,,,,
,1.97,,,,,,,,,f.PNG,f,612d890c774262d7afe06380,2021-09-08_21h05.08.136,forced_choiceRT,2021.1.2,MacIntel,58.82352941,,,,,,,,5,Slow,j,0,2.238,5,2,22,0,1,,,,,
,1.79,,,,,,,,,j.PNG,j,612d890c774262d7afe06380,2021-09-08_21h05.08.136,forced_choiceRT,2021.1.2,MacIntel,58.82352941,,,,,,,,5,Ontime,j,1,2.007,5,3,23,3,1,,,,,
,1.96,,,,,,,,,g.PNG,g,612d890c774262d7afe06380,2021-09-08_21h05.08.136,forced_choiceRT,2021.1.2,MacIntel,58.82352941,,,,,,,,5,Ontime,j,0,2.007,6,0,24,1,1,,,,,
,0.8,,,,,,,,,f.PNG,f,612d890c774262d7afe06380,2021-09-08_21h05.08.136,forced_choiceRT,2021.1.2,MacIntel,58.82352941,,,,,,,,5,Ontime,f,1,1.956,6,1,25,0,1,,,,,
,1.01,,,,,,,,,g.PNG,g,612d890c774262d7afe06380,2021-09-08_21h05.08.136,forced_choiceRT,2021.1.2,MacIntel,58.82352941,,,,,,,,5,Fast,g,1,1.763,6,2,26,1,1,,,,,
,1.1,,,,,,,,,f.PNG,f,612d890c774262d7afe06380,2021-09-08_21h05.08.136,forced_choiceRT,2021.1.2,MacIntel,58.82352941,,,,,,,,5,Fast,f,1,1.007,6,3,27,0,1,,,,,
,0.1,,,,,,,,,f.PNG,f,612d890c774262d7afe06380,2021-09-08_21h05.08.136,forced_choiceRT,2021.1.2,MacIntel,58.82352941,,,,,,,,5,Fast,f,1,1.828,7,0,28,0,1,,,,,
,1.25,,,,,,,,,f.PNG,f,612d890c774262d7afe06380,2021-09-08_21h05.08.136,forced_choiceRT,2021.1.2,MacIntel,58.82352941,,,,,,,,5,Ontime,g,0,1.974,7,1,29,0,1,,,,,
,0.02,,,,,,,,,h.PNG,h,612d890c774262d7afe06380,2021-09-08_21h05.08.136,forced_choiceRT,2021.1.2,MacIntel,58.82352941,,,,,,,,5,Slow,h,1,2.154,7,2,30,2,1,,,,,
,0.71,,,,,,,,,g.PNG,g,612d890c774262d7afe06380,2021-09-08_21h05.08.136,forced_choiceRT,2021.1.2,MacIntel,58.82352941,,,,,,,,5,Ontime,g,1,1.911,7,3,31,1,1,,,,,
,1.68,,,,,,,,,h.PNG,h,612d890c774262d7afe06380,2021-09-08_21h05.08.136,forced_choiceRT,2021.1.2,MacIntel,58.82352941,,,,,,,,5,Ontime,g,0,2.04,8,0,32,2,1,,,,,
,1.64,,,,,,,,,g.PNG,g,612d890c774262d7afe06380,2021-09-08_21h05.08.136,forced_choiceRT,2021.1.2,MacIntel,58.82352941,,,,,,,,5,Ontime,g,1,1.976,8,1,33,1,1,,,,,
,0.66,,,,,,,,,h.PNG,h,612d890c774262d7afe06380,2021-09-08_21h05.08.136,forced_choiceRT,2021.1.2,MacIntel,58.82352941,,,,,,,,5,Slow,h,1,2.106,8,2,34,2,1,,,,,
,1.12,,,,,,,,,h.PNG,h,612d890c774262d7afe06380,2021-09-08_21h05.08.136,forced_choiceRT,2021.1.2,MacIntel,58.82352941,,,,,,,,5,Ontime,h,1,1.959,8,3,35,2,1,,,,,
,0.92,,,,,,,,,f.PNG,f,612d890c774262d7afe06380,2021-09-08_21h05.08.136,forced_choiceRT,2021.1.2,MacIntel,58.82352941,,,,,,,,5,Ontime,f,1,1.991,9,0,36,0,1,,,,,
,1.01,,,,,,,,,h.PNG,h,612d890c774262d7afe06380,2021-09-08_21h05.08.136,forced_choiceRT,2021.1.2,MacIntel,58.82352941,,,,,,,,5,Fast,h,1,1.891,9,1,37,2,1,,,,,
,0.63,,,,,,,,,f.PNG,f,612d890c774262d7afe06380,2021-09-08_21h05.08.136,forced_choiceRT,2021.1.2,MacIntel,58.82352941,,,,,,,,5,Ontime,f,1,1.96,9,2,38,0,1,,,,,
,1.27,,,,,,,,,j.PNG,j,612d890c774262d7afe06380,2021-09-08_21h05.08.136,forced_choiceRT,2021.1.2,MacIntel,58.82352941,,,,,,,,5,Ontime,j,1,2.023,9,3,39,3,1,,,,,
,,,,,,,,,,,,612d890c774262d7afe06380,2021-09-08_21h05.08.136,forced_choiceRT,2021.1.2,MacIntel,58.82352941,,,,,,,,,,,,,,,,,,4,0,4,0,1
,1.53,,,,,,,,,h.PNG,h,612d890c774262d7afe06380,2021-09-08_21h05.08.136,forced_choiceRT,2021.1.2,MacIntel,58.82352941,,,,,,,,6,Fast,j,0,1.89,0,0,0,2,1,,,,,
,0.12,,,,,,,,,f.PNG,f,612d890c774262d7afe06380,2021-09-08_21h05.08.136,forced_choiceRT,2021.1.2,MacIntel,58.82352941,,,,,,,,6,Ontime,f,1,1.973,0,1,1,0,1,,,,,
,0.02,,,,,,,,,j.PNG,j,612d890c774262d7afe06380,2021-09-08_21h05.08.136,forced_choiceRT,2021.1.2,MacIntel,58.82352941,,,,,,,,6,Ontime,j,1,1.991,0,2,2,3,1,,,,,
,1.94,,,,,,,,,f.PNG,f,612d890c774262d7afe06380,2021-09-08_21h05.08.136,forced_choiceRT,2021.1.2,MacIntel,58.82352941,,,,,,,,6,Ontime,j,0,1.991,0,3,3,0,1,,,,,
,0,,,,,,,,,g.PNG,g,612d890c774262d7afe06380,2021-09-08_21h05.08.136,forced_choiceRT,2021.1.2,MacIntel,58.82352941,,,,,,,,6,Ontime,g,1,1.924,1,0,4,1,1,,,,,
,0.06,,,,,,,,,g.PNG,g,612d890c774262d7afe06380,2021-09-08_21h05.08.136,forced_choiceRT,2021.1.2,MacIntel,58.82352941,,,,,,,,6,Ontime,g,1,1.962,1,1,5,1,1,,,,,
,0.42,,,,,,,,,g.PNG,g,612d890c774262d7afe06380,2021-09-08_21h05.08.136,forced_choiceRT,2021.1.2,MacIntel,58.82352941,,,,,,,,6,Fast,g,1,1.844,1,2,6,1,1,,,,,
,1.61,,,,,,,,,j.PNG,j,612d890c774262d7afe06380,2021-09-08_21h05.08.136,forced_choiceRT,2021.1.2,MacIntel,58.82352941,,,,,,,,6,Slow,j,1,2.128,1,3,7,3,1,,,,,
,1.62,,,,,,,,,h.PNG,h,612d890c774262d7afe06380,2021-09-08_21h05.08.136,forced_choiceRT,2021.1.2,MacIntel,58.82352941,,,,,,,,6,Ontime,j,0,1.989,2,0,8,2,1,,,,,
,0.09,,,,,,,,,g.PNG,g,612d890c774262d7afe06380,2021-09-08_21h05.08.136,forced_choiceRT,2021.1.2,MacIntel,58.82352941,,,,,,,,6,Ontime,g,1,1.94,2,1,9,1,1,,,,,
,0.95,,,,,,,,,j.PNG,j,612d890c774262d7afe06380,2021-09-08_21h05.08.136,forced_choiceRT,2021.1.2,MacIntel,58.82352941,,,,,,,,6,Ontime,j,1,2.039,2,2,10,3,1,,,,,
,1.85,,,,,,,,,g.PNG,g,612d890c774262d7afe06380,2021-09-08_21h05.08.136,forced_choiceRT,2021.1.2,MacIntel,58.82352941,,,,,,,,6,Fast,f,0,1.76,2,3,11,1,1,,,,,
,1.14,,,,,,,,,j.PNG,j,612d890c774262d7afe06380,2021-09-08_21h05.08.136,forced_choiceRT,2021.1.2,MacIntel,58.82352941,,,,,,,,6,Fast,j,1,1.833,3,0,12,3,1,,,,,
,0.38,,,,,,,,,h.PNG,h,612d890c774262d7afe06380,2021-09-08_21h05.08.136,forced_choiceRT,2021.1.2,MacIntel,58.82352941,,,,,,,,6,Ontime,g,0,1.989,3,1,13,2,1,,,,,
,0.33,,,,,,,,,j.PNG,j,612d890c774262d7afe06380,2021-09-08_21h05.08.136,forced_choiceRT,2021.1.2,MacIntel,58.82352941,,,,,,,,6,Ontime,j,1,2.016,3,2,14,3,1,,,,,
,0.03,,,,,,,,,g.PNG,g,612d890c774262d7afe06380,2021-09-08_21h05.08.136,forced_choiceRT,2021.1.2,MacIntel,58.82352941,,,,,,,,6,Ontime,g,1,2.029,3,3,15,1,1,,,,,
,0.83,,,,,,,,,h.PNG,h,612d890c774262d7afe06380,2021-09-08_21h05.08.136,forced_choiceRT,2021.1.2,MacIntel,58.82352941,,,,,,,,6,Fast,h,1,1.796,4,0,16,2,1,,,,,
,1.27,,,,,,,,,g.PNG,g,612d890c774262d7afe06380,2021-09-08_21h05.08.136,forced_choiceRT,2021.1.2,MacIntel,58.82352941,,,,,,,,6,Ontime,g,1,2.038,4,1,17,1,1,,,,,
,0.24,,,,,,,,,g.PNG,g,612d890c774262d7afe06380,2021-09-08_21h05.08.136,forced_choiceRT,2021.1.2,MacIntel,58.82352941,,,,,,,,6,Ontime,g,1,1.996,4,2,18,1,1,,,,,
,1.78,,,,,,,,,h.PNG,h,612d890c774262d7afe06380,2021-09-08_21h05.08.136,forced_choiceRT,2021.1.2,MacIntel,58.82352941,,,,,,,,6,Ontime,j,0,2.008,4,3,19,2,1,,,,,
,1.55,,,,,,,,,f.PNG,f,612d890c774262d7afe06380,2021-09-08_21h05.08.136,forced_choiceRT,2021.1.2,MacIntel,58.82352941,,,,,,,,6,Fast,h,0,1.855,5,0,20,0,1,,,,,
,1.44,,,,,,,,,f.PNG,f,612d890c774262d7afe06380,2021-09-08_21h05.08.136,forced_choiceRT,2021.1.2,MacIntel,58.82352941,,,,,,,,6,Ontime,f,1,1.915,5,1,21,0,1,,,,,
,0.56,,,,,,,,,h.PNG,h,612d890c774262d7afe06380,2021-09-08_21h05.08.136,forced_choiceRT,2021.1.2,MacIntel,58.82352941,,,,,,,,6,Ontime,h,1,1.991,5,2,22,2,1,,,,,
,0.65,,,,,,,,,g.PNG,g,612d890c774262d7afe06380,2021-09-08_21h05.08.136,forced_choiceRT,2021.1.2,MacIntel,58.82352941,,,,,,,,6,Ontime,g,1,1.957,5,3,23,1,1,,,,,
,0.32,,,,,,,,,h.PNG,h,612d890c774262d7afe06380,2021-09-08_21h05.08.136,forced_choiceRT,2021.1.2,MacIntel,58.82352941,,,,,,,,6,Ontime,h,1,2.007,6,0,24,2,1,,,,,
,0.3,,,,,,,,,f.PNG,f,612d890c774262d7afe06380,2021-09-08_21h05.08.136,forced_choiceRT,2021.1.2,MacIntel,58.82352941,,,,,,,,6,Fast,f,1,1.893,6,1,25,0,1,,,,,
,1.41,,,,,,,,,f.PNG,f,612d890c774262d7afe06380,2021-09-08_21h05.08.136,forced_choiceRT,2021.1.2,MacIntel,58.82352941,,,,,,,,6,Ontime,f,1,1.957,6,2,26,0,1,,,,,
,1.66,,,,,,,,,j.PNG,j,612d890c774262d7afe06380,2021-09-08_21h05.08.136,forced_choiceRT,2021.1.2,MacIntel,58.82352941,,,,,,,,6,Fast,f,0,0.562,6,3,27,3,1,,,,,
,0.33,,,,,,,,,j.PNG,j,612d890c774262d7afe06380,2021-09-08_21h05.08.136,forced_choiceRT,2021.1.2,MacIntel,58.82352941,,,,,,,,6,Ontime,j,1,1.908,7,0,28,3,1,,,,,
,0.6,,,,,,,,,j.PNG,j,612d890c774262d7afe06380,2021-09-08_21h05.08.136,forced_choiceRT,2021.1.2,MacIntel,58.82352941,,,,,,,,6,Ontime,j,1,1.94,7,1,29,3,1,,,,,
,0.14,,,,,,,,,j.PNG,j,612d890c774262d7afe06380,2021-09-08_21h05.08.136,forced_choiceRT,2021.1.2,MacIntel,58.82352941,,,,,,,,6,Ontime,j,1,1.958,7,2,30,3,1,,,,,
,0.28,,,,,,,,,h.PNG,h,612d890c774262d7afe06380,2021-09-08_21h05.08.136,forced_choiceRT,2021.1.2,MacIntel,58.82352941,,,,,,,,6,Ontime,h,1,1.941,7,3,31,2,1,,,,,
,1.84,,,,,,,,,f.PNG,f,612d890c774262d7afe06380,2021-09-08_21h05.08.136,forced_choiceRT,2021.1.2,MacIntel,58.82352941,,,,,,,,6,Slow,j,0,2.254,8,0,32,0,1,,,,,
,0.91,,,,,,,,,f.PNG,f,612d890c774262d7afe06380,2021-09-08_21h05.08.136,forced_choiceRT,2021.1.2,MacIntel,58.82352941,,,,,,,,6,Ontime,f,1,1.927,8,1,33,0,1,,,,,
,0.68,,,,,,,,,j.PNG,j,612d890c774262d7afe06380,2021-09-08_21h05.08.136,forced_choiceRT,2021.1.2,MacIntel,58.82352941,,,,,,,,6,Slow,j,1,2.181,8,2,34,3,1,,,,,
,0,,,,,,,,,f.PNG,f,612d890c774262d7afe06380,2021-09-08_21h05.08.136,forced_choiceRT,2021.1.2,MacIntel,58.82352941,,,,,,,,6,Fast,f,1,0.613,8,3,35,0,1,,,,,
,1.37,,,,,,,,,f.PNG,f,612d890c774262d7afe06380,2021-09-08_21h05.08.136,forced_choiceRT,2021.1.2,MacIntel,58.82352941,,,,,,,,6,Ontime,f,1,2.023,9,0,36,0,1,,,,,
,0.87,,,,,,,,,h.PNG,h,612d890c774262d7afe06380,2021-09-08_21h05.08.136,forced_choiceRT,2021.1.2,MacIntel,58.82352941,,,,,,,,6,Fast,h,1,1.843,9,1,37,2,1,,,,,
,0.83,,,,,,,,,g.PNG,g,612d890c774262d7afe06380,2021-09-08_21h05.08.136,forced_choiceRT,2021.1.2,MacIntel,58.82352941,,,,,,,,6,Slow,g,1,2.106,9,2,38,1,1,,,,,
,1.41,,,,,,,,,h.PNG,h,612d890c774262d7afe06380,2021-09-08_21h05.08.136,forced_choiceRT,2021.1.2,MacIntel,58.82352941,,,,,,,,6,Ontime,h,1,1.993,9,3,39,2,1,,,,,
,,,,,,,,,,,,612d890c774262d7afe06380,2021-09-08_21h05.08.136,forced_choiceRT,2021.1.2,MacIntel,58.82352941,,,,,,,,,,,,,,,,,,5,0,5,0,1
,1.05,,,,,,,,,h.PNG,h,612d890c774262d7afe06380,2021-09-08_21h05.08.136,forced_choiceRT,2021.1.2,MacIntel,58.82352941,,,,,,,,7,Fast,h,1,1.673,0,0,0,2,1,,,,,
,0.8,,,,,,,,,g.PNG,g,612d890c774262d7afe06380,2021-09-08_21h05.08.136,forced_choiceRT,2021.1.2,MacIntel,58.82352941,,,,,,,,7,Ontime,g,1,1.973,0,1,1,1,1,,,,,
,1.77,,,,,,,,,g.PNG,g,612d890c774262d7afe06380,2021-09-08_21h05.08.136,forced_choiceRT,2021.1.2,MacIntel,58.82352941,,,,,,,,7,Ontime,g,1,2.023,0,2,2,1,1,,,,,
,0.11,,,,,,,,,j.PNG,j,612d890c774262d7afe06380,2021-09-08_21h05.08.136,forced_choiceRT,2021.1.2,MacIntel,58.82352941,,,,,,,,7,Ontime,j,1,1.907,0,3,3,3,1,,,,,
,0.1,,,,,,,,,j.PNG,j,612d890c774262d7afe06380,2021-09-08_21h05.08.136,forced_choiceRT,2021.1.2,MacIntel,58.82352941,,,,,,,,7,Fast,j,1,1.826,1,0,4,3,1,,,,,
,1.41,,,,,,,,,j.PNG,j,612d890c774262d7afe06380,2021-09-08_21h05.08.136,forced_choiceRT,2021.1.2,MacIntel,58.82352941,,,,,,,,7,Ontime,h,0,2.057,1,1,5,3,1,,,,,
,0.8,,,,,,,,,j.PNG,j,612d890c774262d7afe06380,2021-09-08_21h05.08.136,forced_choiceRT,2021.1.2,MacIntel,58.82352941,,,,,,,,7,Ontime,j,1,2.072,1,2,6,3,1,,,,,
,0.23,,,,,,,,,g.PNG,g,612d890c774262d7afe06380,2021-09-08_21h05.08.136,forced_choiceRT,2021.1.2,MacIntel,58.82352941,,,,,,,,7,Ontime,g,1,2.023,1,3,7,1,1,,,,,
,1.23,,,,,,,,,h.PNG,h,612d890c774262d7afe06380,2021-09-08_21h05.08.136,forced_choiceRT,2021.1.2,MacIntel,58.82352941,,,,,,,,7,Ontime,h,1,1.924,2,0,8,2,1,,,,,
,1.82,,,,,,,,,j.PNG,j,612d890c774262d7afe06380,2021-09-08_21h05.08.136,forced_choiceRT,2021.1.2,MacIntel,58.82352941,,,,,,,,7,Ontime,j,1,2.006,2,1,9,3,1,,,,,
,1.63,,,,,,,,,j.PNG,j,612d890c774262d7afe06380,2021-09-08_21h05.08.136,forced_choiceRT,2021.1.2,MacIntel,58.82352941,,,,,,,,7,Slow,j,1,2.238,2,2,10,3,1,,,,,
,1.57,,,,,,,,,f.PNG,f,612d890c774262d7afe06380,2021-09-08_21h05.08.136,forced_choiceRT,2021.1.2,MacIntel,58.82352941,,,,,,,,7,Fast,j,0,1.875,2,3,11,0,1,,,,,
,0.37,,,,,,,,,f.PNG,f,612d890c774262d7afe06380,2021-09-08_21h05.08.136,forced_choiceRT,2021.1.2,MacIntel,58.82352941,,,,,,,,7,Fast,f,1,1.563,3,0,12,0,1,,,,,
,0.38,,,,,,,,,g.PNG,g,612d890c774262d7afe06380,2021-09-08_21h05.08.136,forced_choiceRT,2021.1.2,MacIntel,58.82352941,,,,,,,,7,Fast,g,1,1.842,3,1,13,1,1,,,,,
,0.32,,,,,,,,,h.PNG,h,612d890c774262d7afe06380,2021-09-08_21h05.08.136,forced_choiceRT,2021.1.2,MacIntel,58.82352941,,,,,,,,7,Ontime,h,1,1.991,3,2,14,2,1,,,,,
,0.94,,,,,,,,,g.PNG,g,612d890c774262d7afe06380,2021-09-08_21h05.08.136,forced_choiceRT,2021.1.2,MacIntel,58.82352941,,,,,,,,7,Ontime,g,1,2.017,3,3,15,1,1,,,,,
,1.84,,,,,,,,,f.PNG,f,612d890c774262d7afe06380,2021-09-08_21h05.08.136,forced_choiceRT,2021.1.2,MacIntel,58.82352941,,,,,,,,7,Slow,f,1,3.683,4,0,16,0,1,,,,,
,1.85,,,,,,,,,f.PNG,f,612d890c774262d7afe06380,2021-09-08_21h05.08.136,forced_choiceRT,2021.1.2,MacIntel,58.82352941,,,,,,,,7,Ontime,f,1,2.099,4,1,17,0,1,,,,,
,1.35,,,,,,,,,h.PNG,h,612d890c774262d7afe06380,2021-09-08_21h05.08.136,forced_choiceRT,2021.1.2,MacIntel,58.82352941,,,,,,,,7,Ontime,g,0,1.958,4,2,18,2,1,,,,,
,0.6,,,,,,,,,h.PNG,h,612d890c774262d7afe06380,2021-09-08_21h05.08.136,forced_choiceRT,2021.1.2,MacIntel,58.82352941,,,,,,,,7,Fast,h,1,1.891,4,3,19,2,1,,,,,
,1.59,,,,,,,,,f.PNG,f,612d890c774262d7afe06380,2021-09-08_21h05.08.136,forced_choiceRT,2021.1.2,MacIntel,58.82352941,,,,,,,,7,Fast,h,0,1.842,5,0,20,0,1,,,,,
,0.73,,,,,,,,,g.PNG,g,612d890c774262d7afe06380,2021-09-08_21h05.08.136,forced_choiceRT,2021.1.2,MacIntel,58.82352941,,,,,,,,7,Fast,g,1,1.812,5,1,21,1,1,,,,,
,0.36,,,,,,,,,h.PNG,h,612d890c774262d7afe06380,2021-09-08_21h05.08.136,forced_choiceRT,2021.1.2,MacIntel,58.82352941,,,,,,,,7,Fast,h,1,1.859,5,2,22,2,1,,,,,
,0.87,,,,,,,,,j.PNG,j,612d890c774262d7afe06380,2021-09-08_21h05.08.136,forced_choiceRT,2021.1.2,MacIntel,58.82352941,,,,,,,,7,Ontime,j,1,1.941,5,3,23,3,1,,,,,
,1.61,,,,,,,,,j.PNG,j,612d890c774262d7afe06380,2021-09-08_21h05.08.136,forced_choiceRT,2021.1.2,MacIntel,58.82352941,,,,,,,,7,Ontime,j,1,1.974,6,0,24,3,1,,,,,
,0.31,,,,,,,,,f.PNG,f,612d890c774262d7afe06380,2021-09-08_21h05.08.136,forced_choiceRT,2021.1.2,MacIntel,58.82352941,,,,,,,,7,Ontime,f,1,1.908,6,1,25,0,1,,,,,
,0.76,,,,,,,,,g.PNG,g,612d890c774262d7afe06380,2021-09-08_21h05.08.136,forced_choiceRT,2021.1.2,MacIntel,58.82352941,,,,,,,,7,Fast,g,1,1.877,6,2,26,1,1,,,,,
,1.48,,,,,,,,,j.PNG,j,612d890c774262d7afe06380,2021-09-08_21h05.08.136,forced_choiceRT,2021.1.2,MacIntel,58.82352941,,,,,,,,7,Ontime,j,1,1.961,6,3,27,3,1,,,,,
,0.99,,,,,,,,,j.PNG,j,612d890c774262d7afe06380,2021-09-08_21h05.08.136,forced_choiceRT,2021.1.2,MacIntel,58.82352941,,,,,,,,7,Fast,j,1,1.893,7,0,28,3,1,,,,,
,0.16,,,,,,,,,f.PNG,f,612d890c774262d7afe06380,2021-09-08_21h05.08.136,forced_choiceRT,2021.1.2,MacIntel,58.82352941,,,,,,,,7,Ontime,f,1,1.941,7,1,29,0,1,,,,,
,0.62,,,,,,,,,h.PNG,h,612d890c774262d7afe06380,2021-09-08_21h05.08.136,forced_choiceRT,2021.1.2,MacIntel,58.82352941,,,,,,,,7,Ontime,h,1,2.09,7,2,30,2,1,,,,,
,0.19,,,,,,,,,h.PNG,h,612d890c774262d7afe06380,2021-09-08_21h05.08.136,forced_choiceRT,2021.1.2,MacIntel,58.82352941,,,,,,,,7,Fast,h,1,1.792,7,3,31,2,1,,,,,
,0.75,,,,,,,,,h.PNG,h,612d890c774262d7afe06380,2021-09-08_21h05.08.136,forced_choiceRT,2021.1.2,MacIntel,58.82352941,,,,,,,,7,Fast,j,0,0.447,8,0,32,2,1,,,,,
,0.22,,,,,,,,,g.PNG,g,612d890c774262d7afe06380,2021-09-08_21h05.08.136,forced_choiceRT,2021.1.2,MacIntel,58.82352941,,,,,,,,7,Fast,h,0,1.892,8,1,33,1,1,,,,,
,1.1,,,,,,,,,f.PNG,f,612d890c774262d7afe06380,2021-09-08_21h05.08.136,forced_choiceRT,2021.1.2,MacIntel,58.82352941,,,,,,,,7,Slow,f,1,2.158,8,2,34,0,1,,,,,
,1.13,,,,,,,,,f.PNG,f,612d890c774262d7afe06380,2021-09-08_21h05.08.136,forced_choiceRT,2021.1.2,MacIntel,58.82352941,,,,,,,,7,Fast,f,1,1.891,8,3,35,0,1,,,,,
,1.09,,,,,,,,,h.PNG,h,612d890c774262d7afe06380,2021-09-08_21h05.08.136,forced_choiceRT,2021.1.2,MacIntel,58.82352941,,,,,,,,7,Ontime,h,1,2.039,9,0,36,2,1,,,,,
,0.57,,,,,,,,,f.PNG,f,612d890c774262d7afe06380,2021-09-08_21h05.08.136,forced_choiceRT,2021.1.2,MacIntel,58.82352941,,,,,,,,7,Ontime,f,1,1.924,9,1,37,0,1,,,,,
,1.18,,,,,,,,,g.PNG,g,612d890c774262d7afe06380,2021-09-08_21h05.08.136,forced_choiceRT,2021.1.2,MacIntel,58.82352941,,,,,,,,7,Ontime,g,1,1.99,9,2,38,1,1,,,,,
,1.28,,,,,,,,,g.PNG,g,612d890c774262d7afe06380,2021-09-08_21h05.08.136,forced_choiceRT,2021.1.2,MacIntel,58.82352941,,,,,,,,7,Ontime,h,0,2.007,9,3,39,1,1,,,,,
,,,,,,,,,,,,612d890c774262d7afe06380,2021-09-08_21h05.08.136,forced_choiceRT,2021.1.2,MacIntel,58.82352941,,,,,,,,,,,,,,,,,,6,0,6,0,1
,0.34,,,,,,,,,f.PNG,f,612d890c774262d7afe06380,2021-09-08_21h05.08.136,forced_choiceRT,2021.1.2,MacIntel,58.82352941,,,,,,,,8,Ontime,f,1,1.986,0,0,0,0,1,,,,,
,1.47,,,,,,,,,j.PNG,j,612d890c774262d7afe06380,2021-09-08_21h05.08.136,forced_choiceRT,2021.1.2,MacIntel,58.82352941,,,,,,,,8,Slow,j,1,2.137,0,1,1,3,1,,,,,
,0.94,,,,,,,,,f.PNG,f,612d890c774262d7afe06380,2021-09-08_21h05.08.136,forced_choiceRT,2021.1.2,MacIntel,58.82352941,,,,,,,,8,Fast,f,1,1.765,0,2,2,0,1,,,,,
,0.02,,,,,,,,,h.PNG,h,612d890c774262d7afe06380,2021-09-08_21h05.08.136,forced_choiceRT,2021.1.2,MacIntel,58.82352941,,,,,,,,8,Fast,h,1,1.767,0,3,3,2,1,,,,,
,1.76,,,,,,,,,h.PNG,h,612d890c774262d7afe06380,2021-09-08_21h05.08.136,forced_choiceRT,2021.1.2,MacIntel,58.82352941,,,,,,,,8,Ontime,h,1,1.992,1,0,4,2,1,,,,,
,0.11,,,,,,,,,h.PNG,h,612d890c774262d7afe06380,2021-09-08_21h05.08.136,forced_choiceRT,2021.1.2,MacIntel,58.82352941,,,,,,,,8,Fast,h,1,1.883,1,1,5,2,1,,,,,
,1.1,,,,,,,,,g.PNG,g,612d890c774262d7afe06380,2021-09-08_21h05.08.136,forced_choiceRT,2021.1.2,MacIntel,58.82352941,,,,,,,,8,Ontime,h,0,2.029,1,2,6,1,1,,,,,
,0.27,,,,,,,,,j.PNG,j,612d890c774262d7afe06380,2021-09-08_21h05.08.136,forced_choiceRT,2021.1.2,MacIntel,58.82352941,,,,,,,,8,Fast,j,1,1.894,1,3,7,3,1,,,,,
,1.59,,,,,,,,,j.PNG,j,612d890c774262d7afe06380,2021-09-08_21h05.08.136,forced_choiceRT,2021.1.2,MacIntel,58.82352941,,,,,,,,8,Ontime,h,0,1.907,2,0,8,3,1,,,,,
,1.56,,,,,,,,,j.PNG,j,612d890c774262d7afe06380,2021-09-08_21h05.08.136,forced_choiceRT,2021.1.2,MacIntel,58.82352941,,,,,,,,8,Ontime,j,1,1.991,2,1,9,3,1,,,,,
,1.96,,,,,,,,,h.PNG,h,612d890c774262d7afe06380,2021-09-08_21h05.08.136,forced_choiceRT,2021.1.2,MacIntel,58.82352941,,,,,,,,8,Slow,h,1,2.121,2,2,10,2,1,,,,,
,0.36,,,,,,,,,f.PNG,f,612d890c774262d7afe06380,2021-09-08_21h05.08.136,forced_choiceRT,2021.1.2,MacIntel,58.82352941,,,,,,,,8,Fast,f,1,1.809,2,3,11,0,1,,,,,
,1.08,,,,,,,,,g.PNG,g,612d890c774262d7afe06380,2021-09-08_21h05.08.136,forced_choiceRT,2021.1.2,MacIntel,58.82352941,,,,,,,,8,Ontime,g,1,2.007,3,0,12,1,1,,,,,
,0.46,,,,,,,,,j.PNG,j,612d890c774262d7afe06380,2021-09-08_21h05.08.136,forced_choiceRT,2021.1.2,MacIntel,58.82352941,,,,,,,,8,Ontime,j,1,1.908,3,1,13,3,1,,,,,
,1.28,,,,,,,,,j.PNG,j,612d890c774262d7afe06380,2021-09-08_21h05.08.136,forced_choiceRT,2021.1.2,MacIntel,58.82352941,,,,,,,,8,Ontime,j,1,1.908,3,2,14,3,1,,,,,
,1.23,,,,,,,,,h.PNG,h,612d890c774262d7afe06380,2021-09-08_21h05.08.136,forced_choiceRT,2021.1.2,MacIntel,58.82352941,,,,,,,,8,Fast,h,1,1.876,3,3,15,2,1,,,,,
,0.43,,,,,,,,,j.PNG,j,612d890c774262d7afe06380,2021-09-08_21h05.08.136,forced_choiceRT,2021.1.2,MacIntel,58.82352941,,,,,,,,8,Ontime,j,1,2.01,4,0,16,3,1,,,,,
,1.63,,,,,,,,,f.PNG,f,612d890c774262d7afe06380,2021-09-08_21h05.08.136,forced_choiceRT,2021.1.2,MacIntel,58.82352941,,,,,,,,8,Ontime,j,0,1.925,4,1,17,0,1,,,,,
,1.85,,,,,,,,,j.PNG,j,612d890c774262d7afe06380,2021-09-08_21h05.08.136,forced_choiceRT,2021.1.2,MacIntel,58.82352941,,,,,,,,8,Ontime,j,1,1.976,4,2,18,3,1,,,,,
,0.71,,,,,,,,,j.PNG,j,612d890c774262d7afe06380,2021-09-08_21h05.08.136,forced_choiceRT,2021.1.2,MacIntel,58.82352941,,,,,,,,8,Ontime,j,1,2.056,4,3,19,3,1,,,,,
,0.12,,,,,,,,,g.PNG,g,612d890c774262d7afe06380,2021-09-08_21h05.08.136,forced_choiceRT,2021.1.2,MacIntel,58.82352941,,,,,,,,8,Ontime,g,1,1.957,5,0,20,1,1,,,,,
,1.31,,,,,,,,,g.PNG,g,612d890c774262d7afe06380,2021-09-08_21h05.08.136,forced_choiceRT,2021.1.2,MacIntel,58.82352941,,,,,,,,8,Fast,g,1,1.892,5,1,21,1,1,,,,,
,0.74,,,,,,,,,f.PNG,f,612d890c774262d7afe06380,2021-09-08_21h05.08.136,forced_choiceRT,2021.1.2,MacIntel,58.82352941,,,,,,,,8,Ontime,f,1,1.94,5,2,22,0,1,,,,,
,0.46,,,,,,,,,g.PNG,g,612d890c774262d7afe06380,2021-09-08_21h05.08.136,forced_choiceRT,2021.1.2,MacIntel,58.82352941,,,,,,,,8,Slow,g,1,2.155,5,3,23,1,1,,,,,
,1.6,,,,,,,,,h.PNG,h,612d890c774262d7afe06380,2021-09-08_21h05.08.136,forced_choiceRT,2021.1.2,MacIntel,58.82352941,,,,,,,,8,Ontime,h,1,1.94,6,0,24,2,1,,,,,
,1.07,,,,,,,,,h.PNG,h,612d890c774262d7afe06380,2021-09-08_21h05.08.136,forced_choiceRT,2021.1.2,MacIntel,58.82352941,,,,,,,,8,Ontime,j,0,2.072,6,1,25,2,1,,,,,
,0.74,,,,,,,,,h.PNG,h,612d890c774262d7afe06380,2021-09-08_21h05.08.136,forced_choiceRT,2021.1.2,MacIntel,58.82352941,,,,,,,,8,Ontime,h,1,1.941,6,2,26,2,1,,,,,
,0.08,,,,,,,,,h.PNG,h,612d890c774262d7afe06380,2021-09-08_21h05.08.136,forced_choiceRT,2021.1.2,MacIntel,58.82352941,,,,,,,,8,Ontime,h,1,2.007,6,3,27,2,1,,,,,
,1.35,,,,,,,,,j.PNG,j,612d890c774262d7afe06380,2021-09-08_21h05.08.136,forced_choiceRT,2021.1.2,MacIntel,58.82352941,,,,,,,,8,Fast,h,0,1.843,7,0,28,3,1,,,,,
,0.66,,,,,,,,,g.PNG,g,612d890c774262d7afe06380,2021-09-08_21h05.08.136,forced_choiceRT,2021.1.2,MacIntel,58.82352941,,,,,,,,8,Fast,g,1,1.891,7,1,29,1,1,,,,,
,0.76,,,,,,,,,g.PNG,g,612d890c774262d7afe06380,2021-09-08_21h05.08.136,forced_choiceRT,2021.1.2,MacIntel,58.82352941,,,,,,,,8,Ontime,g,1,1.984,7,2,30,1,1,,,,,
,0.6,,,,,,,,,f.PNG,f,612d890c774262d7afe06380,2021-09-08_21h05.08.136,forced_choiceRT,2021.1.2,MacIntel,58.82352941,,,,,,,,8,Ontime,f,1,1.931,7,3,31,0,1,,,,,
,0.8,,,,,,,,,g.PNG,g,612d890c774262d7afe06380,2021-09-08_21h05.08.136,forced_choiceRT,2021.1.2,MacIntel,58.82352941,,,,,,,,8,Ontime,g,1,1.96,8,0,32,1,1,,,,,
,1.92,,,,,,,,,f.PNG,f,612d890c774262d7afe06380,2021-09-08_21h05.08.136,forced_choiceRT,2021.1.2,MacIntel,58.82352941,,,,,,,,8,Ontime,h,0,2.03,8,1,33,0,1,,,,,
,0.59,,,,,,,,,g.PNG,g,612d890c774262d7afe06380,2021-09-08_21h05.08.136,forced_choiceRT,2021.1.2,MacIntel,58.82352941,,,,,,,,8,Ontime,g,1,1.923,8,2,34,1,1,,,,,
,0.83,,,,,,,,,f.PNG,f,612d890c774262d7afe06380,2021-09-08_21h05.08.136,forced_choiceRT,2021.1.2,MacIntel,58.82352941,,,,,,,,8,Fast,f,1,1.832,8,3,35,0,1,,,,,
,0.18,,,,,,,,,h.PNG,h,612d890c774262d7afe06380,2021-09-08_21h05.08.136,forced_choiceRT,2021.1.2,MacIntel,58.82352941,,,,,,,,8,Ontime,h,1,2.023,9,0,36,2,1,,,,,
,1,,,,,,,,,f.PNG,f,612d890c774262d7afe06380,2021-09-08_21h05.08.136,forced_choiceRT,2021.1.2,MacIntel,58.82352941,,,,,,,,8,Ontime,f,1,1.9,9,1,37,0,1,,,,,
,0.13,,,,,,,,,g.PNG,g,612d890c774262d7afe06380,2021-09-08_21h05.08.136,forced_choiceRT,2021.1.2,MacIntel,58.82352941,,,,,,,,8,Fast,g,1,1.875,9,2,38,1,1,,,,,
,1.38,,,,,,,,,f.PNG,f,612d890c774262d7afe06380,2021-09-08_21h05.08.136,forced_choiceRT,2021.1.2,MacIntel,58.82352941,,,,,,,,8,Ontime,f,1,2.072,9,3,39,0,1,,,,,
,,,,,,,,,,,,612d890c774262d7afe06380,2021-09-08_21h05.08.136,forced_choiceRT,2021.1.2,MacIntel,58.82352941,,,,,,,,,,,,,,,,,,7,0,7,0,1
,1.72,,,,,,,,,j.PNG,j,612d890c774262d7afe06380,2021-09-08_21h05.08.136,forced_choiceRT,2021.1.2,MacIntel,58.82352941,,,,,,,,9,Ontime,g,0,1.973,0,0,0,3,1,,,,,
,1.83,,,,,,,,,f.PNG,f,612d890c774262d7afe06380,2021-09-08_21h05.08.136,forced_choiceRT,2021.1.2,MacIntel,58.82352941,,,,,,,,9,Ontime,j,0,1.917,0,1,1,0,1,,,,,
,0.47,,,,,,,,,j.PNG,j,612d890c774262d7afe06380,2021-09-08_21h05.08.136,forced_choiceRT,2021.1.2,MacIntel,58.82352941,,,,,,,,9,Ontime,j,1,1.995,0,2,2,3,1,,,,,
,1.22,,,,,,,,,f.PNG,f,612d890c774262d7afe06380,2021-09-08_21h05.08.136,forced_choiceRT,2021.1.2,MacIntel,58.82352941,,,,,,,,9,Fast,f,1,1.776,0,3,3,0,1,,,,,
,0.5,,,,,,,,,g.PNG,g,612d890c774262d7afe06380,2021-09-08_21h05.08.136,forced_choiceRT,2021.1.2,MacIntel,58.82352941,,,,,,,,9,Ontime,g,1,1.992,1,0,4,1,1,,,,,
,0.15,,,,,,,,,j.PNG,j,612d890c774262d7afe06380,2021-09-08_21h05.08.136,forced_choiceRT,2021.1.2,MacIntel,58.82352941,,,,,,,,9,Ontime,j,1,1.924,1,1,5,3,1,,,,,
,0.43,,,,,,,,,h.PNG,h,612d890c774262d7afe06380,2021-09-08_21h05.08.136,forced_choiceRT,2021.1.2,MacIntel,58.82352941,,,,,,,,9,Fast,h,1,1.827,1,2,6,2,1,,,,,
,1.16,,,,,,,,,h.PNG,h,612d890c774262d7afe06380,2021-09-08_21h05.08.136,forced_choiceRT,2021.1.2,MacIntel,58.82352941,,,,,,,,9,Ontime,h,1,1.973,1,3,7,2,1,,,,,
,0.36,,,,,,,,,j.PNG,j,612d890c774262d7afe06380,2021-09-08_21h05.08.136,forced_choiceRT,2021.1.2,MacIntel,58.82352941,,,,,,,,9,Fast,j,1,1.875,2,0,8,3,1,,,,,
,1.69,,,,,,,,,g.PNG,g,612d890c774262d7afe06380,2021-09-08_21h05.08.136,forced_choiceRT,2021.1.2,MacIntel,58.82352941,,,,,,,,9,Ontime,j,0,1.941,2,1,9,1,1,,,,,
,1.03,,,,,,,,,f.PNG,f,612d890c774262d7afe06380,2021-09-08_21h05.08.136,forced_choiceRT,2021.1.2,MacIntel,58.82352941,,,,,,,,9,Fast,f,1,1.878,2,2,10,0,1,,,,,
,0.94,,,,,,,,,f.PNG,f,612d890c774262d7afe06380,2021-09-08_21h05.08.136,forced_choiceRT,2021.1.2,MacIntel,58.82352941,,,,,,,,9,Ontime,f,1,1.958,2,3,11,0,1,,,,,
,0.74,,,,,,,,,f.PNG,f,612d890c774262d7afe06380,2021-09-08_21h05.08.136,forced_choiceRT,2021.1.2,MacIntel,58.82352941,,,,,,,,9,Ontime,f,1,2.063,3,0,12,0,1,,,,,
,1.2,,,,,,,,,h.PNG,h,612d890c774262d7afe06380,2021-09-08_21h05.08.136,forced_choiceRT,2021.1.2,MacIntel,58.82352941,,,,,,,,9,Ontime,h,1,1.918,3,1,13,2,1,,,,,
,0.61,,,,,,,,,h.PNG,h,612d890c774262d7afe06380,2021-09-08_21h05.08.136,forced_choiceRT,2021.1.2,MacIntel,58.82352941,,,,,,,,9,Ontime,h,1,2.029,3,2,14,2,1,,,,,
,0.76,,,,,,,,,h.PNG,h,612d890c774262d7afe06380,2021-09-08_21h05.08.136,forced_choiceRT,2021.1.2,MacIntel,58.82352941,,,,,,,,9,Fast,h,1,1.825,3,3,15,2,1,,,,,
,0.15,,,,,,,,,g.PNG,g,612d890c774262d7afe06380,2021-09-08_21h05.08.136,forced_choiceRT,2021.1.2,MacIntel,58.82352941,,,,,,,,9,Fast,g,1,1.76,4,0,16,1,1,,,,,
,1.92,,,,,,,,,j.PNG,j,612d890c774262d7afe06380,2021-09-08_21h05.08.136,forced_choiceRT,2021.1.2,MacIntel,58.82352941,,,,,,,,9,Ontime,h,0,2.006,4,1,17,3,1,,,,,
,0.44,,,,,,,,,g.PNG,g,612d890c774262d7afe06380,2021-09-08_21h05.08.136,forced_choiceRT,2021.1.2,MacIntel,58.82352941,,,,,,,,9,Ontime,g,1,1.941,4,2,18,1,1,,,,,
,1.25,,,,,,,,,j.PNG,j,612d890c774262d7afe06380,2021-09-08_21h05.08.136,forced_choiceRT,2021.1.2,MacIntel,58.82352941,,,,,,,,9,Ontime,j,1,1.99,4,3,19,3,1,,,,,
,0.52,,,,,,,,,g.PNG,g,612d890c774262d7afe06380,2021-09-08_21h05.08.136,forced_choiceRT,2021.1.2,MacIntel,58.82352941,,,,,,,,9,Ontime,g,1,2.006,5,0,20,1,1,,,,,
,0.6,,,,,,,,,g.PNG,g,612d890c774262d7afe06380,2021-09-08_21h05.08.136,forced_choiceRT,2021.1.2,MacIntel,58.82352941,,,,,,,,9,Ontime,g,1,1.99,5,1,21,1,1,,,,,
,1.52,,,,,,,,,j.PNG,j,612d890c774262d7afe06380,2021-09-08_21h05.08.136,forced_choiceRT,2021.1.2,MacIntel,58.82352941,,,,,,,,9,Ontime,h,0,1.941,5,2,22,3,1,,,,,
,1.47,,,,,,,,,h.PNG,h,612d890c774262d7afe06380,2021-09-08_21h05.08.136,forced_choiceRT,2021.1.2,MacIntel,58.82352941,,,,,,,,9,Slow,h,1,2.105,5,3,23,2,1,,,,,
,1.09,,,,,,,,,f.PNG,f,612d890c774262d7afe06380,2021-09-08_21h05.08.136,forced_choiceRT,2021.1.2,MacIntel,58.82352941,,,,,,,,9,Fast,f,1,1.678,6,0,24,0,1,,,,,
,1.13,,,,,,,,,f.PNG,f,612d890c774262d7afe06380,2021-09-08_21h05.08.136,forced_choiceRT,2021.1.2,MacIntel,58.82352941,,,,,,,,9,Fast,f,1,1.862,6,1,25,0,1,,,,,
,1.3,,,,,,,,,j.PNG,j,612d890c774262d7afe06380,2021-09-08_21h05.08.136,forced_choiceRT,2021.1.2,MacIntel,58.82352941,,,,,,,,9,Ontime,j,1,2.007,6,2,26,3,1,,,,,
,0.46,,,,,,,,,j.PNG,j,612d890c774262d7afe06380,2021-09-08_21h05.08.136,forced_choiceRT,2021.1.2,MacIntel,58.82352941,,,,,,,,9,Fast,j,1,1.894,6,3,27,3,1,,,,,
,1.44,,,,,,,,,j.PNG,j,612d890c774262d7afe06380,2021-09-08_21h05.08.136,forced_choiceRT,2021.1.2,MacIntel,58.82352941,,,,,,,,9,Fast,f,0,1.844,7,0,28,3,1,,,,,
,1.07,,,,,,,,,h.PNG,h,612d890c774262d7afe06380,2021-09-08_21h05.08.136,forced_choiceRT,2021.1.2,MacIntel,58.82352941,,,,,,,,9,Ontime,h,1,1.942,7,1,29,2,1,,,,,
,1.4,,,,,,,,,f.PNG,f,612d890c774262d7afe06380,2021-09-08_21h05.08.136,forced_choiceRT,2021.1.2,MacIntel,58.82352941,,,,,,,,9,Ontime,f,1,1.941,7,2,30,0,1,,,,,
,0.69,,,,,,,,,h.PNG,h,612d890c774262d7afe06380,2021-09-08_21h05.08.136,forced_choiceRT,2021.1.2,MacIntel,58.82352941,,,,,,,,9,Ontime,h,1,1.908,7,3,31,2,1,,,,,
,1.3,,,,,,,,,g.PNG,g,612d890c774262d7afe06380,2021-09-08_21h05.08.136,forced_choiceRT,2021.1.2,MacIntel,58.82352941,,,,,,,,9,Ontime,h,0,1.974,8,0,32,1,1,,,,,
,0.95,,,,,,,,,g.PNG,g,612d890c774262d7afe06380,2021-09-08_21h05.08.136,forced_choiceRT,2021.1.2,MacIntel,58.82352941,,,,,,,,9,Fast,g,1,1.858,8,1,33,1,1,,,,,
,1.25,,,,,,,,,g.PNG,g,612d890c774262d7afe06380,2021-09-08_21h05.08.136,forced_choiceRT,2021.1.2,MacIntel,58.82352941,,,,,,,,9,Slow,g,1,2.22,8,2,34,1,1,,,,,
,1.35,,,,,,,,,g.PNG,g,612d890c774262d7afe06380,2021-09-08_21h05.08.136,forced_choiceRT,2021.1.2,MacIntel,58.82352941,,,,,,,,9,Ontime,g,1,1.974,8,3,35,1,1,,,,,
,0.66,,,,,,,,,h.PNG,h,612d890c774262d7afe06380,2021-09-08_21h05.08.136,forced_choiceRT,2021.1.2,MacIntel,58.82352941,,,,,,,,9,Ontime,h,1,1.924,9,0,36,2,1,,,,,
,1.71,,,,,,,,,f.PNG,f,612d890c774262d7afe06380,2021-09-08_21h05.08.136,forced_choiceRT,2021.1.2,MacIntel,58.82352941,,,,,,,,9,Ontime,j,0,1.957,9,1,37,0,1,,,,,
,1.27,,,,,,,,,h.PNG,h,612d890c774262d7afe06380,2021-09-08_21h05.08.136,forced_choiceRT,2021.1.2,MacIntel,58.82352941,,,,,,,,9,Fast,h,1,1.859,9,2,38,2,1,,,,,
,1.87,,,,,,,,,f.PNG,f,612d890c774262d7afe06380,2021-09-08_21h05.08.136,forced_choiceRT,2021.1.2,MacIntel,58.82352941,,,,,,,,9,Ontime,h,0,2.024,9,3,39,0,1,,,,,
,,,,,,,,,,,,612d890c774262d7afe06380,2021-09-08_21h05.08.136,forced_choiceRT,2021.1.2,MacIntel,58.82352941,,,,,,,,,,,,,,,,,,8,0,8,0,1
,1.77,,,,,,,,,g.PNG,g,612d890c774262d7afe06380,2021-09-08_21h05.08.136,forced_choiceRT,2021.1.2,MacIntel,58.82352941,,,,,,,,10,Ontime,h,0,2.033,0,0,0,1,1,,,,,
,0.42,,,,,,,,,f.PNG,f,612d890c774262d7afe06380,2021-09-08_21h05.08.136,forced_choiceRT,2021.1.2,MacIntel,58.82352941,,,,,,,,10,Fast,f,1,1.841,0,1,1,0,1,,,,,
,1.59,,,,,,,,,j.PNG,j,612d890c774262d7afe06380,2021-09-08_21h05.08.136,forced_choiceRT,2021.1.2,MacIntel,58.82352941,,,,,,,,10,Slow,j,1,2.237,0,2,2,3,1,,,,,
,0.46,,,,,,,,,h.PNG,h,612d890c774262d7afe06380,2021-09-08_21h05.08.136,forced_choiceRT,2021.1.2,MacIntel,58.82352941,,,,,,,,10,Ontime,h,1,1.909,0,3,3,2,1,,,,,
,1.88,,,,,,,,,g.PNG,g,612d890c774262d7afe06380,2021-09-08_21h05.08.136,forced_choiceRT,2021.1.2,MacIntel,58.82352941,,,,,,,,10,Slow,g,1,2.878,1,0,4,1,1,,,,,
,0.03,,,,,,,,,j.PNG,j,612d890c774262d7afe06380,2021-09-08_21h05.08.136,forced_choiceRT,2021.1.2,MacIntel,58.82352941,,,,,,,,10,Fast,j,1,1.168,1,1,5,3,1,,,,,
,0.15,,,,,,,,,j.PNG,j,612d890c774262d7afe06380,2021-09-08_21h05.08.136,forced_choiceRT,2021.1.2,MacIntel,58.82352941,,,,,,,,10,Ontime,j,1,1.984,1,2,6,3,1,,,,,
,1.14,,,,,,,,,f.PNG,f,612d890c774262d7afe06380,2021-09-08_21h05.08.136,forced_choiceRT,2021.1.2,MacIntel,58.82352941,,,,,,,,10,Ontime,f,1,2.095,1,3,7,0,1,,,,,
,1.17,,,,,,,,,f.PNG,f,612d890c774262d7afe06380,2021-09-08_21h05.08.136,forced_choiceRT,2021.1.2,MacIntel,58.82352941,,,,,,,,10,Fast,f,1,1.792,2,0,8,0,1,,,,,
,0.04,,,,,,,,,h.PNG,h,612d890c774262d7afe06380,2021-09-08_21h05.08.136,forced_choiceRT,2021.1.2,MacIntel,58.82352941,,,,,,,,10,Ontime,h,1,2.021,2,1,9,2,1,,,,,
,1.19,,,,,,,,,g.PNG,g,612d890c774262d7afe06380,2021-09-08_21h05.08.136,forced_choiceRT,2021.1.2,MacIntel,58.82352941,,,,,,,,10,Ontime,g,1,2.006,2,2,10,1,1,,,,,
,0.44,,,,,,,,,g.PNG,g,612d890c774262d7afe06380,2021-09-08_21h05.08.136,forced_choiceRT,2021.1.2,MacIntel,58.82352941,,,,,,,,10,Fast,g,1,1.849,2,3,11,1,1,,,,,
,1.4,,,,,,,,,h.PNG,h,612d890c774262d7afe06380,2021-09-08_21h05.08.136,forced_choiceRT,2021.1.2,MacIntel,58.82352941,,,,,,,,10,Fast,g,0,1.864,3,0,12,2,1,,,,,
,1.85,,,,,,,,,g.PNG,g,612d890c774262d7afe06380,2021-09-08_21h05.08.136,forced_choiceRT,2021.1.2,MacIntel,58.82352941,,,,,,,,10,Ontime,g,1,2.091,3,1,13,1,1,,,,,
,0.84,,,,,,,,,h.PNG,h,612d890c774262d7afe06380,2021-09-08_21h05.08.136,forced_choiceRT,2021.1.2,MacIntel,58.82352941,,,,,,,,10,Fast,g,0,1.893,3,2,14,2,1,,,,,
,0.37,,,,,,,,,f.PNG,f,612d890c774262d7afe06380,2021-09-08_21h05.08.136,forced_choiceRT,2021.1.2,MacIntel,58.82352941,,,,,,,,10,Fast,f,1,1.415,3,3,15,0,1,,,,,
,0.92,,,,,,,,,h.PNG,h,612d890c774262d7afe06380,2021-09-08_21h05.08.136,forced_choiceRT,2021.1.2,MacIntel,58.82352941,,,,,,,,10,Slow,h,1,2.139,4,0,16,2,1,,,,,
,0.64,,,,,,,,,g.PNG,g,612d890c774262d7afe06380,2021-09-08_21h05.08.136,forced_choiceRT,2021.1.2,MacIntel,58.82352941,,,,,,,,10,Fast,g,1,1.661,4,1,17,1,1,,,,,
,0.09,,,,,,,,,j.PNG,j,612d890c774262d7afe06380,2021-09-08_21h05.08.136,forced_choiceRT,2021.1.2,MacIntel,58.82352941,,,,,,,,10,Ontime,j,1,1.928,4,2,18,3,1,,,,,
,0.8,,,,,,,,,h.PNG,h,612d890c774262d7afe06380,2021-09-08_21h05.08.136,forced_choiceRT,2021.1.2,MacIntel,58.82352941,,,,,,,,10,Fast,h,1,1.563,4,3,19,2,1,,,,,
,1.65,,,,,,,,,g.PNG,g,612d890c774262d7afe06380,2021-09-08_21h05.08.136,forced_choiceRT,2021.1.2,MacIntel,58.82352941,,,,,,,,10,Ontime,h,0,1.99,5,0,20,1,1,,,,,
,0.5,,,,,,,,,f.PNG,f,612d890c774262d7afe06380,2021-09-08_21h05.08.136,forced_choiceRT,2021.1.2,MacIntel,58.82352941,,,,,,,,10,Ontime,f,1,1.923,5,1,21,0,1,,,,,
,1.4,,,,,,,,,g.PNG,g,612d890c774262d7afe06380,2021-09-08_21h05.08.136,forced_choiceRT,2021.1.2,MacIntel,58.82352941,,,,,,,,10,Fast,f,0,1.719,5,2,22,1,1,,,,,
,1.16,,,,,,,,,h.PNG,h,612d890c774262d7afe06380,2021-09-08_21h05.08.136,forced_choiceRT,2021.1.2,MacIntel,58.82352941,,,,,,,,10,Fast,g,0,1.628,5,3,23,2,1,,,,,
,0.81,,,,,,,,,j.PNG,j,612d890c774262d7afe06380,2021-09-08_21h05.08.136,forced_choiceRT,2021.1.2,MacIntel,58.82352941,,,,,,,,10,Ontime,g,0,2.023,6,0,24,3,1,,,,,
,1.76,,,,,,,,,f.PNG,f,612d890c774262d7afe06380,2021-09-08_21h05.08.136,forced_choiceRT,2021.1.2,MacIntel,58.82352941,,,,,,,,10,Ontime,g,0,2.05,6,1,25,0,1,,,,,
,1.7,,,,,,,,,f.PNG,f,612d890c774262d7afe06380,2021-09-08_21h05.08.136,forced_choiceRT,2021.1.2,MacIntel,58.82352941,,,,,,,,10,Ontime,f,1,2.047,6,2,26,0,1,,,,,
,1.19,,,,,,,,,f.PNG,f,612d890c774262d7afe06380,2021-09-08_21h05.08.136,forced_choiceRT,2021.1.2,MacIntel,58.82352941,,,,,,,,10,Fast,f,1,1.863,6,3,27,0,1,,,,,
,0.82,,,,,,,,,j.PNG,j,612d890c774262d7afe06380,2021-09-08_21h05.08.136,forced_choiceRT,2021.1.2,MacIntel,58.82352941,,,,,,,,10,Slow,j,1,2.105,7,0,28,3,1,,,,,
,0.26,,,,,,,,,g.PNG,g,612d890c774262d7afe06380,2021-09-08_21h05.08.136,forced_choiceRT,2021.1.2,MacIntel,58.82352941,,,,,,,,10,Slow,g,1,2.124,7,1,29,1,1,,,,,
,0.18,,,,,,,,,f.PNG,f,612d890c774262d7afe06380,2021-09-08_21h05.08.136,forced_choiceRT,2021.1.2,MacIntel,58.82352941,,,,,,,,10,Ontime,f,1,2.062,7,2,30,0,1,,,,,
,0.89,,,,,,,,,j.PNG,j,612d890c774262d7afe06380,2021-09-08_21h05.08.136,forced_choiceRT,2021.1.2,MacIntel,58.82352941,,,,,,,,10,Ontime,j,1,2.057,7,3,31,3,1,,,,,
,1.2,,,,,,,,,j.PNG,j,612d890c774262d7afe06380,2021-09-08_21h05.08.136,forced_choiceRT,2021.1.2,MacIntel,58.82352941,,,,,,,,10,Ontime,j,1,1.958,8,0,32,3,1,,,,,
,0.42,,,,,,,,,g.PNG,g,612d890c774262d7afe06380,2021-09-08_21h05.08.136,forced_choiceRT,2021.1.2,MacIntel,58.82352941,,,,,,,,10,Ontime,g,1,1.959,8,1,33,1,1,,,,,
,1.67,,,,,,,,,h.PNG,h,612d890c774262d7afe06380,2021-09-08_21h05.08.136,forced_choiceRT,2021.1.2,MacIntel,58.82352941,,,,,,,,10,Ontime,g,0,2.007,8,2,34,2,1,,,,,
,1.65,,,,,,,,,j.PNG,j,612d890c774262d7afe06380,2021-09-08_21h05.08.136,forced_choiceRT,2021.1.2,MacIntel,58.82352941,,,,,,,,10,Ontime,h,0,1.925,8,3,35,3,1,,,,,
,1.79,,,,,,,,,j.PNG,j,612d890c774262d7afe06380,2021-09-08_21h05.08.136,forced_choiceRT,2021.1.2,MacIntel,58.82352941,,,,,,,,10,Ontime,j,1,2.058,9,0,36,3,1,,,,,
,1.06,,,,,,,,,h.PNG,h,612d890c774262d7afe06380,2021-09-08_21h05.08.136,forced_choiceRT,2021.1.2,MacIntel,58.82352941,,,,,,,,10,Ontime,h,1,1.941,9,1,37,2,1,,,,,
,0.64,,,,,,,,,h.PNG,h,612d890c774262d7afe06380,2021-09-08_21h05.08.136,forced_choiceRT,2021.1.2,MacIntel,58.82352941,,,,,,,,10,Fast,h,1,1.859,9,2,38,2,1,,,,,
,1.4,,,,,,,,,f.PNG,f,612d890c774262d7afe06380,2021-09-08_21h05.08.136,forced_choiceRT,2021.1.2,MacIntel,58.82352941,,,,,,,,10,Ontime,f,1,2.039,9,3,39,0,1,,,,,
,,,,,,,,,,,,612d890c774262d7afe06380,2021-09-08_21h05.08.136,forced_choiceRT,2021.1.2,MacIntel,58.82352941,,,,,,,,,,,,,,,,,,9,0,9,0,1
