IP_Addresss,target_onset,trial_resp_sp.keys,trial_resp_sp.corr,trial_resp_sp.rt,trials_train_loop.thisRepN,trials_train_loop.thisTrialN,trials_train_loop.thisN,trials_train_loop.thisIndex,trials_train_loop.ran,pic,correct_key,participant,date,expName,psychopyVersion,OS,frameRate,trial_resp_timing.keys,trial_resp_timing.rt,trials_train_timing.thisRepN,trials_train_timing.thisTrialN,trials_train_timing.thisN,trials_train_timing.thisIndex,trials_train_timing.ran,block_id,ontime,forcedRT_resp.keys,forcedRT_resp.corr,forcedRT_resp.rt,trials.thisRepN,trials.thisTrialN,trials.thisN,trials.thisIndex,trials.ran,blocks.thisRepN,blocks.thisTrialN,blocks.thisN,blocks.thisIndex,blocks.ran
100.1.114.173,0,j,1,3.3858,0,0,0,3,1,j.PNG,j,612fab1125ea0a912c3edc62,2021-09-08_20h52.59.386,forced_choiceRT,2021.1.2,MacIntel,59.97361161,,,,,,,,,,,,,,,,,,,,,,
,0,g,1,2.5707,0,1,1,1,1,g.PNG,g,612fab1125ea0a912c3edc62,2021-09-08_20h52.59.386,forced_choiceRT,2021.1.2,MacIntel,59.97361161,,,,,,,,,,,,,,,,,,,,,,
,0,f,1,1.2684,0,2,2,0,1,f.PNG,f,612fab1125ea0a912c3edc62,2021-09-08_20h52.59.386,forced_choiceRT,2021.1.2,MacIntel,59.97361161,,,,,,,,,,,,,,,,,,,,,,
,0,h,1,1.4701,0,3,3,2,1,h.PNG,h,612fab1125ea0a912c3edc62,2021-09-08_20h52.59.386,forced_choiceRT,2021.1.2,MacIntel,59.97361161,,,,,,,,,,,,,,,,,,,,,,
,0,g,1,2.0045,1,0,4,1,1,g.PNG,g,612fab1125ea0a912c3edc62,2021-09-08_20h52.59.386,forced_choiceRT,2021.1.2,MacIntel,59.97361161,,,,,,,,,,,,,,,,,,,,,,
,0,g,1,0.9675,1,1,5,1,1,g.PNG,g,612fab1125ea0a912c3edc62,2021-09-08_20h52.59.386,forced_choiceRT,2021.1.2,MacIntel,59.97361161,,,,,,,,,,,,,,,,,,,,,,
,0,j,1,1.4523,1,2,6,3,1,j.PNG,j,612fab1125ea0a912c3edc62,2021-09-08_20h52.59.386,forced_choiceRT,2021.1.2,MacIntel,59.97361161,,,,,,,,,,,,,,,,,,,,,,
,0,f,1,0.951,1,3,7,0,1,f.PNG,f,612fab1125ea0a912c3edc62,2021-09-08_20h52.59.386,forced_choiceRT,2021.1.2,MacIntel,59.97361161,,,,,,,,,,,,,,,,,,,,,,
,0,h,1,0.9836,2,0,8,2,1,h.PNG,h,612fab1125ea0a912c3edc62,2021-09-08_20h52.59.386,forced_choiceRT,2021.1.2,MacIntel,59.97361161,,,,,,,,,,,,,,,,,,,,,,
,0,h,1,0.6696,2,1,9,2,1,h.PNG,h,612fab1125ea0a912c3edc62,2021-09-08_20h52.59.386,forced_choiceRT,2021.1.2,MacIntel,59.97361161,,,,,,,,,,,,,,,,,,,,,,
,0,h,1,0.5508,2,2,10,2,1,h.PNG,h,612fab1125ea0a912c3edc62,2021-09-08_20h52.59.386,forced_choiceRT,2021.1.2,MacIntel,59.97361161,,,,,,,,,,,,,,,,,,,,,,
,0,h,1,0.5686,2,3,11,2,1,h.PNG,h,612fab1125ea0a912c3edc62,2021-09-08_20h52.59.386,forced_choiceRT,2021.1.2,MacIntel,59.97361161,,,,,,,,,,,,,,,,,,,,,,
,0,j,1,1.6198,3,0,12,3,1,j.PNG,j,612fab1125ea0a912c3edc62,2021-09-08_20h52.59.386,forced_choiceRT,2021.1.2,MacIntel,59.97361161,,,,,,,,,,,,,,,,,,,,,,
,0,j,1,1.5865,3,1,13,3,1,j.PNG,j,612fab1125ea0a912c3edc62,2021-09-08_20h52.59.386,forced_choiceRT,2021.1.2,MacIntel,59.97361161,,,,,,,,,,,,,,,,,,,,,,
,0,f,1,0.8508,3,2,14,0,1,f.PNG,f,612fab1125ea0a912c3edc62,2021-09-08_20h52.59.386,forced_choiceRT,2021.1.2,MacIntel,59.97361161,,,,,,,,,,,,,,,,,,,,,,
,0,f,1,0.8551,3,3,15,0,1,f.PNG,f,612fab1125ea0a912c3edc62,2021-09-08_20h52.59.386,forced_choiceRT,2021.1.2,MacIntel,59.97361161,,,,,,,,,,,,,,,,,,,,,,
,0,f,1,0.5032,4,0,16,0,1,f.PNG,f,612fab1125ea0a912c3edc62,2021-09-08_20h52.59.386,forced_choiceRT,2021.1.2,MacIntel,59.97361161,,,,,,,,,,,,,,,,,,,,,,
,0,j,1,1.2848,4,1,17,3,1,j.PNG,j,612fab1125ea0a912c3edc62,2021-09-08_20h52.59.386,forced_choiceRT,2021.1.2,MacIntel,59.97361161,,,,,,,,,,,,,,,,,,,,,,
,0,g,1,1.0529,4,2,18,1,1,g.PNG,g,612fab1125ea0a912c3edc62,2021-09-08_20h52.59.386,forced_choiceRT,2021.1.2,MacIntel,59.97361161,,,,,,,,,,,,,,,,,,,,,,
,0,g,1,0.7663,4,3,19,1,1,g.PNG,g,612fab1125ea0a912c3edc62,2021-09-08_20h52.59.386,forced_choiceRT,2021.1.2,MacIntel,59.97361161,,,,,,,,,,,,,,,,,,,,,,
,0,g,1,0.5175,5,0,20,1,1,g.PNG,g,612fab1125ea0a912c3edc62,2021-09-08_20h52.59.386,forced_choiceRT,2021.1.2,MacIntel,59.97361161,,,,,,,,,,,,,,,,,,,,,,
,0,f,1,0.7359,5,1,21,0,1,f.PNG,f,612fab1125ea0a912c3edc62,2021-09-08_20h52.59.386,forced_choiceRT,2021.1.2,MacIntel,59.97361161,,,,,,,,,,,,,,,,,,,,,,
,0,f,1,0.5365,5,2,22,0,1,f.PNG,f,612fab1125ea0a912c3edc62,2021-09-08_20h52.59.386,forced_choiceRT,2021.1.2,MacIntel,59.97361161,,,,,,,,,,,,,,,,,,,,,,
,0,g,1,0.7862,5,3,23,1,1,g.PNG,g,612fab1125ea0a912c3edc62,2021-09-08_20h52.59.386,forced_choiceRT,2021.1.2,MacIntel,59.97361161,,,,,,,,,,,,,,,,,,,,,,
,0,h,1,1.5695,6,0,24,2,1,h.PNG,h,612fab1125ea0a912c3edc62,2021-09-08_20h52.59.386,forced_choiceRT,2021.1.2,MacIntel,59.97361161,,,,,,,,,,,,,,,,,,,,,,
,0,g,1,1.3681,6,1,25,1,1,g.PNG,g,612fab1125ea0a912c3edc62,2021-09-08_20h52.59.386,forced_choiceRT,2021.1.2,MacIntel,59.97361161,,,,,,,,,,,,,,,,,,,,,,
,0,g,1,0.7342,6,2,26,1,1,g.PNG,g,612fab1125ea0a912c3edc62,2021-09-08_20h52.59.386,forced_choiceRT,2021.1.2,MacIntel,59.97361161,,,,,,,,,,,,,,,,,,,,,,
,0,g,1,0.5339,6,3,27,1,1,g.PNG,g,612fab1125ea0a912c3edc62,2021-09-08_20h52.59.386,forced_choiceRT,2021.1.2,MacIntel,59.97361161,,,,,,,,,,,,,,,,,,,,,,
,0,j,1,1.3508,7,0,28,3,1,j.PNG,j,612fab1125ea0a912c3edc62,2021-09-08_20h52.59.386,forced_choiceRT,2021.1.2,MacIntel,59.97361161,,,,,,,,,,,,,,,,,,,,,,
,0,g,1,1.8383,7,1,29,1,1,g.PNG,g,612fab1125ea0a912c3edc62,2021-09-08_20h52.59.386,forced_choiceRT,2021.1.2,MacIntel,59.97361161,,,,,,,,,,,,,,,,,,,,,,
,0,g,1,1.3504,7,2,30,1,1,g.PNG,g,612fab1125ea0a912c3edc62,2021-09-08_20h52.59.386,forced_choiceRT,2021.1.2,MacIntel,59.97361161,,,,,,,,,,,,,,,,,,,,,,
,0,g,1,0.6833,7,3,31,1,1,g.PNG,g,612fab1125ea0a912c3edc62,2021-09-08_20h52.59.386,forced_choiceRT,2021.1.2,MacIntel,59.97361161,,,,,,,,,,,,,,,,,,,,,,
,0,j,1,1.0348,8,0,32,3,1,j.PNG,j,612fab1125ea0a912c3edc62,2021-09-08_20h52.59.386,forced_choiceRT,2021.1.2,MacIntel,59.97361161,,,,,,,,,,,,,,,,,,,,,,
,0,h,1,1.1358,8,1,33,2,1,h.PNG,h,612fab1125ea0a912c3edc62,2021-09-08_20h52.59.386,forced_choiceRT,2021.1.2,MacIntel,59.97361161,,,,,,,,,,,,,,,,,,,,,,
,0,j,1,1.5014,8,2,34,3,1,j.PNG,j,612fab1125ea0a912c3edc62,2021-09-08_20h52.59.386,forced_choiceRT,2021.1.2,MacIntel,59.97361161,,,,,,,,,,,,,,,,,,,,,,
,0,h,1,0.9187,8,3,35,2,1,h.PNG,h,612fab1125ea0a912c3edc62,2021-09-08_20h52.59.386,forced_choiceRT,2021.1.2,MacIntel,59.97361161,,,,,,,,,,,,,,,,,,,,,,
,0,j,1,1.2926,9,0,36,3,1,j.PNG,j,612fab1125ea0a912c3edc62,2021-09-08_20h52.59.386,forced_choiceRT,2021.1.2,MacIntel,59.97361161,,,,,,,,,,,,,,,,,,,,,,
,0,f,1,0.7019,9,1,37,0,1,f.PNG,f,612fab1125ea0a912c3edc62,2021-09-08_20h52.59.386,forced_choiceRT,2021.1.2,MacIntel,59.97361161,,,,,,,,,,,,,,,,,,,,,,
,0,j,1,1.1843,9,2,38,3,1,j.PNG,j,612fab1125ea0a912c3edc62,2021-09-08_20h52.59.386,forced_choiceRT,2021.1.2,MacIntel,59.97361161,,,,,,,,,,,,,,,,,,,,,,
,0,h,1,0.8684,9,3,39,2,1,h.PNG,h,612fab1125ea0a912c3edc62,2021-09-08_20h52.59.386,forced_choiceRT,2021.1.2,MacIntel,59.97361161,,,,,,,,,,,,,,,,,,,,,,
,0,h,1,0.6024,10,0,40,2,1,h.PNG,h,612fab1125ea0a912c3edc62,2021-09-08_20h52.59.386,forced_choiceRT,2021.1.2,MacIntel,59.97361161,,,,,,,,,,,,,,,,,,,,,,
,0,j,1,0.9534,10,1,41,3,1,j.PNG,j,612fab1125ea0a912c3edc62,2021-09-08_20h52.59.386,forced_choiceRT,2021.1.2,MacIntel,59.97361161,,,,,,,,,,,,,,,,,,,,,,
,0,h,1,0.8203,10,2,42,2,1,h.PNG,h,612fab1125ea0a912c3edc62,2021-09-08_20h52.59.386,forced_choiceRT,2021.1.2,MacIntel,59.97361161,,,,,,,,,,,,,,,,,,,,,,
,0,g,1,0.8532,10,3,43,1,1,g.PNG,g,612fab1125ea0a912c3edc62,2021-09-08_20h52.59.386,forced_choiceRT,2021.1.2,MacIntel,59.97361161,,,,,,,,,,,,,,,,,,,,,,
,0,f,1,0.7512,11,0,44,0,1,f.PNG,f,612fab1125ea0a912c3edc62,2021-09-08_20h52.59.386,forced_choiceRT,2021.1.2,MacIntel,59.97361161,,,,,,,,,,,,,,,,,,,,,,
,0,f,1,0.7336,11,1,45,0,1,f.PNG,f,612fab1125ea0a912c3edc62,2021-09-08_20h52.59.386,forced_choiceRT,2021.1.2,MacIntel,59.97361161,,,,,,,,,,,,,,,,,,,,,,
,0,j,1,1.5706,11,2,46,3,1,j.PNG,j,612fab1125ea0a912c3edc62,2021-09-08_20h52.59.386,forced_choiceRT,2021.1.2,MacIntel,59.97361161,,,,,,,,,,,,,,,,,,,,,,
,0,j,1,0.7687,11,3,47,3,1,j.PNG,j,612fab1125ea0a912c3edc62,2021-09-08_20h52.59.386,forced_choiceRT,2021.1.2,MacIntel,59.97361161,,,,,,,,,,,,,,,,,,,,,,
,0,f,1,0.684,12,0,48,0,1,f.PNG,f,612fab1125ea0a912c3edc62,2021-09-08_20h52.59.386,forced_choiceRT,2021.1.2,MacIntel,59.97361161,,,,,,,,,,,,,,,,,,,,,,
,0,j,1,1.0366,12,1,49,3,1,j.PNG,j,612fab1125ea0a912c3edc62,2021-09-08_20h52.59.386,forced_choiceRT,2021.1.2,MacIntel,59.97361161,,,,,,,,,,,,,,,,,,,,,,
,0,j,1,0.5837,12,2,50,3,1,j.PNG,j,612fab1125ea0a912c3edc62,2021-09-08_20h52.59.386,forced_choiceRT,2021.1.2,MacIntel,59.97361161,,,,,,,,,,,,,,,,,,,,,,
,0,f,1,0.687,12,3,51,0,1,f.PNG,f,612fab1125ea0a912c3edc62,2021-09-08_20h52.59.386,forced_choiceRT,2021.1.2,MacIntel,59.97361161,,,,,,,,,,,,,,,,,,,,,,
,0,f,1,0.6122,13,0,52,0,1,f.PNG,f,612fab1125ea0a912c3edc62,2021-09-08_20h52.59.386,forced_choiceRT,2021.1.2,MacIntel,59.97361161,,,,,,,,,,,,,,,,,,,,,,
,0,f,1,0.4852,13,1,53,0,1,f.PNG,f,612fab1125ea0a912c3edc62,2021-09-08_20h52.59.386,forced_choiceRT,2021.1.2,MacIntel,59.97361161,,,,,,,,,,,,,,,,,,,,,,
,0,g,1,1.2019,13,2,54,1,1,g.PNG,g,612fab1125ea0a912c3edc62,2021-09-08_20h52.59.386,forced_choiceRT,2021.1.2,MacIntel,59.97361161,,,,,,,,,,,,,,,,,,,,,,
,0,f,1,0.62,13,3,55,0,1,f.PNG,f,612fab1125ea0a912c3edc62,2021-09-08_20h52.59.386,forced_choiceRT,2021.1.2,MacIntel,59.97361161,,,,,,,,,,,,,,,,,,,,,,
,0,h,1,1.1973,14,0,56,2,1,h.PNG,h,612fab1125ea0a912c3edc62,2021-09-08_20h52.59.386,forced_choiceRT,2021.1.2,MacIntel,59.97361161,,,,,,,,,,,,,,,,,,,,,,
,0,h,1,0.4846,14,1,57,2,1,h.PNG,h,612fab1125ea0a912c3edc62,2021-09-08_20h52.59.386,forced_choiceRT,2021.1.2,MacIntel,59.97361161,,,,,,,,,,,,,,,,,,,,,,
,0,h,1,0.5845,14,2,58,2,1,h.PNG,h,612fab1125ea0a912c3edc62,2021-09-08_20h52.59.386,forced_choiceRT,2021.1.2,MacIntel,59.97361161,,,,,,,,,,,,,,,,,,,,,,
,0,h,1,0.405,14,3,59,2,1,h.PNG,h,612fab1125ea0a912c3edc62,2021-09-08_20h52.59.386,forced_choiceRT,2021.1.2,MacIntel,59.97361161,,,,,,,,,,,,,,,,,,,,,,
,,,,,,,,,,,,612fab1125ea0a912c3edc62,2021-09-08_20h52.59.386,forced_choiceRT,2021.1.2,MacIntel,59.97361161,g,2.3537,0,0,0,0,1,,,,,,,,,,,,,,,
,,,,,,,,,,,,612fab1125ea0a912c3edc62,2021-09-08_20h52.59.386,forced_choiceRT,2021.1.2,MacIntel,59.97361161,f,2.0522,1,0,1,0,1,,,,,,,,,,,,,,,
,,,,,,,,,,,,612fab1125ea0a912c3edc62,2021-09-08_20h52.59.386,forced_choiceRT,2021.1.2,MacIntel,59.97361161,j,2.0855,2,0,2,0,1,,,,,,,,,,,,,,,
,,,,,,,,,,,,612fab1125ea0a912c3edc62,2021-09-08_20h52.59.386,forced_choiceRT,2021.1.2,MacIntel,59.97361161,g,2.222,3,0,3,0,1,,,,,,,,,,,,,,,
,,,,,,,,,,,,612fab1125ea0a912c3edc62,2021-09-08_20h52.59.386,forced_choiceRT,2021.1.2,MacIntel,59.97361161,j,2.203,4,0,4,0,1,,,,,,,,,,,,,,,
,,,,,,,,,,,,612fab1125ea0a912c3edc62,2021-09-08_20h52.59.386,forced_choiceRT,2021.1.2,MacIntel,59.97361161,f,2.0844,5,0,5,0,1,,,,,,,,,,,,,,,
,,,,,,,,,,,,612fab1125ea0a912c3edc62,2021-09-08_20h52.59.386,forced_choiceRT,2021.1.2,MacIntel,59.97361161,f,2.22,6,0,6,0,1,,,,,,,,,,,,,,,
,,,,,,,,,,,,612fab1125ea0a912c3edc62,2021-09-08_20h52.59.386,forced_choiceRT,2021.1.2,MacIntel,59.97361161,f,1.9691,7,0,7,0,1,,,,,,,,,,,,,,,
,,,,,,,,,,,,612fab1125ea0a912c3edc62,2021-09-08_20h52.59.386,forced_choiceRT,2021.1.2,MacIntel,59.97361161,f,1.6728,8,0,8,0,1,,,,,,,,,,,,,,,
,,,,,,,,,,,,612fab1125ea0a912c3edc62,2021-09-08_20h52.59.386,forced_choiceRT,2021.1.2,MacIntel,59.97361161,f,1.8699,9,0,9,0,1,,,,,,,,,,,,,,,
,,,,,,,,,,,,612fab1125ea0a912c3edc62,2021-09-08_20h52.59.386,forced_choiceRT,2021.1.2,MacIntel,59.97361161,f,2.2533,10,0,10,0,1,,,,,,,,,,,,,,,
,,,,,,,,,,,,612fab1125ea0a912c3edc62,2021-09-08_20h52.59.386,forced_choiceRT,2021.1.2,MacIntel,59.97361161,f,2.0679,11,0,11,0,1,,,,,,,,,,,,,,,
,,,,,,,,,,,,612fab1125ea0a912c3edc62,2021-09-08_20h52.59.386,forced_choiceRT,2021.1.2,MacIntel,59.97361161,f,2.1841,12,0,12,0,1,,,,,,,,,,,,,,,
,,,,,,,,,,,,612fab1125ea0a912c3edc62,2021-09-08_20h52.59.386,forced_choiceRT,2021.1.2,MacIntel,59.97361161,f,2.0346,13,0,13,0,1,,,,,,,,,,,,,,,
,,,,,,,,,,,,612fab1125ea0a912c3edc62,2021-09-08_20h52.59.386,forced_choiceRT,2021.1.2,MacIntel,59.97361161,f,1.8503,14,0,14,0,1,,,,,,,,,,,,,,,
,,,,,,,,,,,,612fab1125ea0a912c3edc62,2021-09-08_20h52.59.386,forced_choiceRT,2021.1.2,MacIntel,59.97361161,h,2.1682,15,0,15,0,1,,,,,,,,,,,,,,,
,,,,,,,,,,,,612fab1125ea0a912c3edc62,2021-09-08_20h52.59.386,forced_choiceRT,2021.1.2,MacIntel,59.97361161,h,1.9877,16,0,16,0,1,,,,,,,,,,,,,,,
,,,,,,,,,,,,612fab1125ea0a912c3edc62,2021-09-08_20h52.59.386,forced_choiceRT,2021.1.2,MacIntel,59.97361161,h,2.0527,17,0,17,0,1,,,,,,,,,,,,,,,
,,,,,,,,,,,,612fab1125ea0a912c3edc62,2021-09-08_20h52.59.386,forced_choiceRT,2021.1.2,MacIntel,59.97361161,h,2.1187,18,0,18,0,1,,,,,,,,,,,,,,,
,,,,,,,,,,,,612fab1125ea0a912c3edc62,2021-09-08_20h52.59.386,forced_choiceRT,2021.1.2,MacIntel,59.97361161,h,2.085,19,0,19,0,1,,,,,,,,,,,,,,,
,0.73,,,,,,,,,j.PNG,j,612fab1125ea0a912c3edc62,2021-09-08_20h52.59.386,forced_choiceRT,2021.1.2,MacIntel,59.97361161,,,,,,,,1,Slow,j,1,2.3037,0,0,0,3,1,,,,,
,0.41,,,,,,,,,f.PNG,f,612fab1125ea0a912c3edc62,2021-09-08_20h52.59.386,forced_choiceRT,2021.1.2,MacIntel,59.97361161,,,,,,,,1,Fast,f,1,1.7846,0,1,1,0,1,,,,,
,0.55,,,,,,,,,f.PNG,f,612fab1125ea0a912c3edc62,2021-09-08_20h52.59.386,forced_choiceRT,2021.1.2,MacIntel,59.97361161,,,,,,,,1,Ontime,f,1,2.0179,0,2,2,0,1,,,,,
,1.42,,,,,,,,,f.PNG,f,612fab1125ea0a912c3edc62,2021-09-08_20h52.59.386,forced_choiceRT,2021.1.2,MacIntel,59.97361161,,,,,,,,1,Slow,f,1,2.2237,0,3,3,0,1,,,,,
,0.72,,,,,,,,,f.PNG,f,612fab1125ea0a912c3edc62,2021-09-08_20h52.59.386,forced_choiceRT,2021.1.2,MacIntel,59.97361161,,,,,,,,1,Ontime,f,1,1.9046,1,0,4,0,1,,,,,
,1.42,,,,,,,,,j.PNG,j,612fab1125ea0a912c3edc62,2021-09-08_20h52.59.386,forced_choiceRT,2021.1.2,MacIntel,59.97361161,,,,,,,,1,Slow,j,1,2.1899,1,1,5,3,1,,,,,
,0.84,,,,,,,,,f.PNG,f,612fab1125ea0a912c3edc62,2021-09-08_20h52.59.386,forced_choiceRT,2021.1.2,MacIntel,59.97361161,,,,,,,,1,Slow,f,1,2.1855,1,2,6,0,1,,,,,
,1.71,,,,,,,,,j.PNG,j,612fab1125ea0a912c3edc62,2021-09-08_20h52.59.386,forced_choiceRT,2021.1.2,MacIntel,59.97361161,,,,,,,,1,Slow,h,0,2.2186,1,3,7,3,1,,,,,
,0.93,,,,,,,,,g.PNG,g,612fab1125ea0a912c3edc62,2021-09-08_20h52.59.386,forced_choiceRT,2021.1.2,MacIntel,59.97361161,,,,,,,,1,Ontime,h,0,1.9024,2,0,8,1,1,,,,,
,0.84,,,,,,,,,g.PNG,g,612fab1125ea0a912c3edc62,2021-09-08_20h52.59.386,forced_choiceRT,2021.1.2,MacIntel,59.97361161,,,,,,,,1,Fast,g,1,1.8187,2,1,9,1,1,,,,,
,0.99,,,,,,,,,h.PNG,h,612fab1125ea0a912c3edc62,2021-09-08_20h52.59.386,forced_choiceRT,2021.1.2,MacIntel,59.97361161,,,,,,,,1,Ontime,j,0,2.0349,2,2,10,2,1,,,,,
,0.74,,,,,,,,,h.PNG,h,612fab1125ea0a912c3edc62,2021-09-08_20h52.59.386,forced_choiceRT,2021.1.2,MacIntel,59.97361161,,,,,,,,1,Ontime,g,0,2.0183,2,3,11,2,1,,,,,
,1.47,,,,,,,,,g.PNG,g,612fab1125ea0a912c3edc62,2021-09-08_20h52.59.386,forced_choiceRT,2021.1.2,MacIntel,59.97361161,,,,,,,,1,Slow,j,0,2.1354,3,0,12,1,1,,,,,
,1.78,,,,,,,,,j.PNG,j,612fab1125ea0a912c3edc62,2021-09-08_20h52.59.386,forced_choiceRT,2021.1.2,MacIntel,59.97361161,,,,,,,,1,Slow,j,1,2.3684,3,1,13,3,1,,,,,
,1.15,,,,,,,,,j.PNG,j,612fab1125ea0a912c3edc62,2021-09-08_20h52.59.386,forced_choiceRT,2021.1.2,MacIntel,59.97361161,,,,,,,,1,Ontime,g,0,2.0347,3,2,14,3,1,,,,,
,0.59,,,,,,,,,j.PNG,j,612fab1125ea0a912c3edc62,2021-09-08_20h52.59.386,forced_choiceRT,2021.1.2,MacIntel,59.97361161,,,,,,,,1,Ontime,j,1,2.0679,3,3,15,3,1,,,,,
,1.09,,,,,,,,,g.PNG,g,612fab1125ea0a912c3edc62,2021-09-08_20h52.59.386,forced_choiceRT,2021.1.2,MacIntel,59.97361161,,,,,,,,1,Fast,j,0,1.8686,4,0,16,1,1,,,,,
,0.47,,,,,,,,,g.PNG,g,612fab1125ea0a912c3edc62,2021-09-08_20h52.59.386,forced_choiceRT,2021.1.2,MacIntel,59.97361161,,,,,,,,1,Ontime,g,1,1.9237,4,1,17,1,1,,,,,
,0.69,,,,,,,,,g.PNG,g,612fab1125ea0a912c3edc62,2021-09-08_20h52.59.386,forced_choiceRT,2021.1.2,MacIntel,59.97361161,,,,,,,,1,Ontime,g,1,1.9513,4,2,18,1,1,,,,,
,1.13,,,,,,,,,f.PNG,f,612fab1125ea0a912c3edc62,2021-09-08_20h52.59.386,forced_choiceRT,2021.1.2,MacIntel,59.97361161,,,,,,,,1,Ontime,f,1,1.9182,4,3,19,0,1,,,,,
,1.59,,,,,,,,,g.PNG,g,612fab1125ea0a912c3edc62,2021-09-08_20h52.59.386,forced_choiceRT,2021.1.2,MacIntel,59.97361161,,,,,,,,1,Slow,f,0,2.1842,5,0,20,1,1,,,,,
,0.24,,,,,,,,,f.PNG,f,612fab1125ea0a912c3edc62,2021-09-08_20h52.59.386,forced_choiceRT,2021.1.2,MacIntel,59.97361161,,,,,,,,1,Ontime,f,1,1.9188,5,1,21,0,1,,,,,
,1.47,,,,,,,,,f.PNG,f,612fab1125ea0a912c3edc62,2021-09-08_20h52.59.386,forced_choiceRT,2021.1.2,MacIntel,59.97361161,,,,,,,,1,Ontime,f,1,1.9348,5,2,22,0,1,,,,,
,1.77,,,,,,,,,j.PNG,j,612fab1125ea0a912c3edc62,2021-09-08_20h52.59.386,forced_choiceRT,2021.1.2,MacIntel,59.97361161,,,,,,,,1,Ontime,f,0,2.0346,5,3,23,3,1,,,,,
,1.59,,,,,,,,,g.PNG,g,612fab1125ea0a912c3edc62,2021-09-08_20h52.59.386,forced_choiceRT,2021.1.2,MacIntel,59.97361161,,,,,,,,1,Ontime,h,0,2.0848,6,0,24,1,1,,,,,
,0.77,,,,,,,,,h.PNG,h,612fab1125ea0a912c3edc62,2021-09-08_20h52.59.386,forced_choiceRT,2021.1.2,MacIntel,59.97361161,,,,,,,,1,Fast,g,0,1.8851,6,1,25,2,1,,,,,
,1.71,,,,,,,,,j.PNG,j,612fab1125ea0a912c3edc62,2021-09-08_20h52.59.386,forced_choiceRT,2021.1.2,MacIntel,59.97361161,,,,,,,,1,Slow,h,0,2.3027,6,2,26,3,1,,,,,
,0.72,,,,,,,,,h.PNG,h,612fab1125ea0a912c3edc62,2021-09-08_20h52.59.386,forced_choiceRT,2021.1.2,MacIntel,59.97361161,,,,,,,,1,Fast,h,1,1.8687,6,3,27,2,1,,,,,
,0.85,,,,,,,,,h.PNG,h,612fab1125ea0a912c3edc62,2021-09-08_20h52.59.386,forced_choiceRT,2021.1.2,MacIntel,59.97361161,,,,,,,,1,Ontime,j,0,1.9011,7,0,28,2,1,,,,,
,0.68,,,,,,,,,g.PNG,g,612fab1125ea0a912c3edc62,2021-09-08_20h52.59.386,forced_choiceRT,2021.1.2,MacIntel,59.97361161,,,,,,,,1,Ontime,g,1,1.9881,7,1,29,1,1,,,,,
,0.06,,,,,,,,,j.PNG,j,612fab1125ea0a912c3edc62,2021-09-08_20h52.59.386,forced_choiceRT,2021.1.2,MacIntel,59.97361161,,,,,,,,1,Fast,g,0,1.7718,7,2,30,3,1,,,,,
,1.92,,,,,,,,,j.PNG,j,612fab1125ea0a912c3edc62,2021-09-08_20h52.59.386,forced_choiceRT,2021.1.2,MacIntel,59.97361161,,,,,,,,1,Slow,h,0,2.2347,7,3,31,3,1,,,,,
,1.18,,,,,,,,,f.PNG,f,612fab1125ea0a912c3edc62,2021-09-08_20h52.59.386,forced_choiceRT,2021.1.2,MacIntel,59.97361161,,,,,,,,1,Fast,f,1,1.8845,8,0,32,0,1,,,,,
,1.1,,,,,,,,,h.PNG,h,612fab1125ea0a912c3edc62,2021-09-08_20h52.59.386,forced_choiceRT,2021.1.2,MacIntel,59.97361161,,,,,,,,1,Ontime,j,0,2.002,8,1,33,2,1,,,,,
,1.12,,,,,,,,,h.PNG,h,612fab1125ea0a912c3edc62,2021-09-08_20h52.59.386,forced_choiceRT,2021.1.2,MacIntel,59.97361161,,,,,,,,1,Fast,g,0,1.8055,8,2,34,2,1,,,,,
,1.05,,,,,,,,,h.PNG,h,612fab1125ea0a912c3edc62,2021-09-08_20h52.59.386,forced_choiceRT,2021.1.2,MacIntel,59.97361161,,,,,,,,1,Fast,g,0,1.8724,8,3,35,2,1,,,,,
,1.52,,,,,,,,,g.PNG,g,612fab1125ea0a912c3edc62,2021-09-08_20h52.59.386,forced_choiceRT,2021.1.2,MacIntel,59.97361161,,,,,,,,1,Ontime,g,1,1.9856,9,0,36,1,1,,,,,
,1.77,,,,,,,,,h.PNG,h,612fab1125ea0a912c3edc62,2021-09-08_20h52.59.386,forced_choiceRT,2021.1.2,MacIntel,59.97361161,,,,,,,,1,Slow,g,0,2.2025,9,1,37,2,1,,,,,
,1.66,,,,,,,,,h.PNG,h,612fab1125ea0a912c3edc62,2021-09-08_20h52.59.386,forced_choiceRT,2021.1.2,MacIntel,59.97361161,,,,,,,,1,Fast,g,0,1.8676,9,2,38,2,1,,,,,
,0.99,,,,,,,,,f.PNG,f,612fab1125ea0a912c3edc62,2021-09-08_20h52.59.386,forced_choiceRT,2021.1.2,MacIntel,59.97361161,,,,,,,,1,Fast,f,1,1.8683,9,3,39,0,1,,,,,
,,,,,,,,,,,,612fab1125ea0a912c3edc62,2021-09-08_20h52.59.386,forced_choiceRT,2021.1.2,MacIntel,59.97361161,,,,,,,,,,,,,,,,,,0,0,0,0,1
,0.96,,,,,,,,,j.PNG,j,612fab1125ea0a912c3edc62,2021-09-08_20h52.59.386,forced_choiceRT,2021.1.2,MacIntel,59.97361161,,,,,,,,2,Ontime,j,1,2.0508,0,0,0,3,1,,,,,
,1.52,,,,,,,,,f.PNG,f,612fab1125ea0a912c3edc62,2021-09-08_20h52.59.386,forced_choiceRT,2021.1.2,MacIntel,59.97361161,,,,,,,,2,Fast,j,0,1.808,0,1,1,0,1,,,,,
,0.97,,,,,,,,,j.PNG,j,612fab1125ea0a912c3edc62,2021-09-08_20h52.59.386,forced_choiceRT,2021.1.2,MacIntel,59.97361161,,,,,,,,2,Fast,j,1,1.7874,0,2,2,3,1,,,,,
,1.82,,,,,,,,,f.PNG,f,612fab1125ea0a912c3edc62,2021-09-08_20h52.59.386,forced_choiceRT,2021.1.2,MacIntel,59.97361161,,,,,,,,2,Ontime,j,0,2.0684,0,3,3,0,1,,,,,
,0.38,,,,,,,,,j.PNG,j,612fab1125ea0a912c3edc62,2021-09-08_20h52.59.386,forced_choiceRT,2021.1.2,MacIntel,59.97361161,,,,,,,,2,Ontime,j,1,1.9015,1,0,4,3,1,,,,,
,0.26,,,,,,,,,j.PNG,j,612fab1125ea0a912c3edc62,2021-09-08_20h52.59.386,forced_choiceRT,2021.1.2,MacIntel,59.97361161,,,,,,,,2,Ontime,h,0,2.0513,1,1,5,3,1,,,,,
,0.39,,,,,,,,,j.PNG,j,612fab1125ea0a912c3edc62,2021-09-08_20h52.59.386,forced_choiceRT,2021.1.2,MacIntel,59.97361161,,,,,,,,2,Fast,j,1,1.8516,1,2,6,3,1,,,,,
,0.27,,,,,,,,,g.PNG,g,612fab1125ea0a912c3edc62,2021-09-08_20h52.59.386,forced_choiceRT,2021.1.2,MacIntel,59.97361161,,,,,,,,2,Fast,j,0,1.8863,1,3,7,1,1,,,,,
,0.53,,,,,,,,,f.PNG,f,612fab1125ea0a912c3edc62,2021-09-08_20h52.59.386,forced_choiceRT,2021.1.2,MacIntel,59.97361161,,,,,,,,2,Ontime,f,1,2.0691,2,0,8,0,1,,,,,
,0.51,,,,,,,,,f.PNG,f,612fab1125ea0a912c3edc62,2021-09-08_20h52.59.386,forced_choiceRT,2021.1.2,MacIntel,59.97361161,,,,,,,,2,Ontime,f,1,2.085,2,1,9,0,1,,,,,
,0.65,,,,,,,,,g.PNG,g,612fab1125ea0a912c3edc62,2021-09-08_20h52.59.386,forced_choiceRT,2021.1.2,MacIntel,59.97361161,,,,,,,,2,Ontime,g,1,2.0029,2,2,10,1,1,,,,,
,0.95,,,,,,,,,g.PNG,g,612fab1125ea0a912c3edc62,2021-09-08_20h52.59.386,forced_choiceRT,2021.1.2,MacIntel,59.97361161,,,,,,,,2,Slow,g,1,2.151,2,3,11,1,1,,,,,
,0.22,,,,,,,,,f.PNG,f,612fab1125ea0a912c3edc62,2021-09-08_20h52.59.386,forced_choiceRT,2021.1.2,MacIntel,59.97361161,,,,,,,,2,Ontime,f,1,2.0362,3,0,12,0,1,,,,,
,0.48,,,,,,,,,h.PNG,h,612fab1125ea0a912c3edc62,2021-09-08_20h52.59.386,forced_choiceRT,2021.1.2,MacIntel,59.97361161,,,,,,,,2,Ontime,h,1,2.0181,3,1,13,2,1,,,,,
,1.19,,,,,,,,,j.PNG,j,612fab1125ea0a912c3edc62,2021-09-08_20h52.59.386,forced_choiceRT,2021.1.2,MacIntel,59.97361161,,,,,,,,2,Ontime,h,0,1.9369,3,2,14,3,1,,,,,
,0.45,,,,,,,,,j.PNG,j,612fab1125ea0a912c3edc62,2021-09-08_20h52.59.386,forced_choiceRT,2021.1.2,MacIntel,59.97361161,,,,,,,,2,Fast,h,0,1.8679,3,3,15,3,1,,,,,
,1.11,,,,,,,,,g.PNG,g,612fab1125ea0a912c3edc62,2021-09-08_20h52.59.386,forced_choiceRT,2021.1.2,MacIntel,59.97361161,,,,,,,,2,Ontime,j,0,1.9356,4,0,16,1,1,,,,,
,0.34,,,,,,,,,g.PNG,g,612fab1125ea0a912c3edc62,2021-09-08_20h52.59.386,forced_choiceRT,2021.1.2,MacIntel,59.97361161,,,,,,,,2,Ontime,g,1,2.0191,4,1,17,1,1,,,,,
,0.04,,,,,,,,,h.PNG,h,612fab1125ea0a912c3edc62,2021-09-08_20h52.59.386,forced_choiceRT,2021.1.2,MacIntel,59.97361161,,,,,,,,2,Slow,h,1,2.1016,4,2,18,2,1,,,,,
,1.86,,,,,,,,,h.PNG,h,612fab1125ea0a912c3edc62,2021-09-08_20h52.59.386,forced_choiceRT,2021.1.2,MacIntel,59.97361161,,,,,,,,2,Slow,h,1,2.1197,4,3,19,2,1,,,,,
,1.15,,,,,,,,,h.PNG,h,612fab1125ea0a912c3edc62,2021-09-08_20h52.59.386,forced_choiceRT,2021.1.2,MacIntel,59.97361161,,,,,,,,2,Ontime,h,1,1.9186,5,0,20,2,1,,,,,
,1.33,,,,,,,,,j.PNG,j,612fab1125ea0a912c3edc62,2021-09-08_20h52.59.386,forced_choiceRT,2021.1.2,MacIntel,59.97361161,,,,,,,,2,Fast,h,0,1.8712,5,1,21,3,1,,,,,
,0.91,,,,,,,,,f.PNG,f,612fab1125ea0a912c3edc62,2021-09-08_20h52.59.386,forced_choiceRT,2021.1.2,MacIntel,59.97361161,,,,,,,,2,Ontime,h,0,1.9853,5,2,22,0,1,,,,,
,0.98,,,,,,,,,f.PNG,f,612fab1125ea0a912c3edc62,2021-09-08_20h52.59.386,forced_choiceRT,2021.1.2,MacIntel,59.97361161,,,,,,,,2,Fast,h,0,1.8525,5,3,23,0,1,,,,,
,1.14,,,,,,,,,j.PNG,j,612fab1125ea0a912c3edc62,2021-09-08_20h52.59.386,forced_choiceRT,2021.1.2,MacIntel,59.97361161,,,,,,,,2,Fast,h,0,1.8516,6,0,24,3,1,,,,,
,1.09,,,,,,,,,j.PNG,j,612fab1125ea0a912c3edc62,2021-09-08_20h52.59.386,forced_choiceRT,2021.1.2,MacIntel,59.97361161,,,,,,,,2,Ontime,h,0,1.9891,6,1,25,3,1,,,,,
,1.71,,,,,,,,,f.PNG,f,612fab1125ea0a912c3edc62,2021-09-08_20h52.59.386,forced_choiceRT,2021.1.2,MacIntel,59.97361161,,,,,,,,2,Ontime,h,0,1.905,6,2,26,0,1,,,,,
,1.43,,,,,,,,,h.PNG,h,612fab1125ea0a912c3edc62,2021-09-08_20h52.59.386,forced_choiceRT,2021.1.2,MacIntel,59.97361161,,,,,,,,2,Fast,h,1,1.8031,6,3,27,2,1,,,,,
,0.72,,,,,,,,,f.PNG,f,612fab1125ea0a912c3edc62,2021-09-08_20h52.59.386,forced_choiceRT,2021.1.2,MacIntel,59.97361161,,,,,,,,2,Ontime,h,0,1.9004,7,0,28,0,1,,,,,
,0.03,,,,,,,,,g.PNG,g,612fab1125ea0a912c3edc62,2021-09-08_20h52.59.386,forced_choiceRT,2021.1.2,MacIntel,59.97361161,,,,,,,,2,Ontime,h,0,1.9197,7,1,29,1,1,,,,,
,1.27,,,,,,,,,f.PNG,f,612fab1125ea0a912c3edc62,2021-09-08_20h52.59.386,forced_choiceRT,2021.1.2,MacIntel,59.97361161,,,,,,,,2,Fast,h,0,1.8868,7,2,30,0,1,,,,,
,1.89,,,,,,,,,h.PNG,h,612fab1125ea0a912c3edc62,2021-09-08_20h52.59.386,forced_choiceRT,2021.1.2,MacIntel,59.97361161,,,,,,,,2,Ontime,h,1,2.0509,7,3,31,2,1,,,,,
,1.97,,,,,,,,,g.PNG,g,612fab1125ea0a912c3edc62,2021-09-08_20h52.59.386,forced_choiceRT,2021.1.2,MacIntel,59.97361161,,,,,,,,2,Slow,h,0,2.2187,8,0,32,1,1,,,,,
,0.05,,,,,,,,,g.PNG,g,612fab1125ea0a912c3edc62,2021-09-08_20h52.59.386,forced_choiceRT,2021.1.2,MacIntel,59.97361161,,,,,,,,2,Ontime,h,0,1.9219,8,1,33,1,1,,,,,
,1.51,,,,,,,,,g.PNG,g,612fab1125ea0a912c3edc62,2021-09-08_20h52.59.386,forced_choiceRT,2021.1.2,MacIntel,59.97361161,,,,,,,,2,Ontime,h,0,2.089,8,2,34,1,1,,,,,
,1.2,,,,,,,,,h.PNG,h,612fab1125ea0a912c3edc62,2021-09-08_20h52.59.386,forced_choiceRT,2021.1.2,MacIntel,59.97361161,,,,,,,,2,Fast,h,1,1.7692,8,3,35,2,1,,,,,
,0.29,,,,,,,,,h.PNG,h,612fab1125ea0a912c3edc62,2021-09-08_20h52.59.386,forced_choiceRT,2021.1.2,MacIntel,59.97361161,,,,,,,,2,Fast,h,1,1.7554,9,0,36,2,1,,,,,
,1.13,,,,,,,,,g.PNG,g,612fab1125ea0a912c3edc62,2021-09-08_20h52.59.386,forced_choiceRT,2021.1.2,MacIntel,59.97361161,,,,,,,,2,Ontime,h,0,1.9695,9,1,37,1,1,,,,,
,0.24,,,,,,,,,h.PNG,h,612fab1125ea0a912c3edc62,2021-09-08_20h52.59.386,forced_choiceRT,2021.1.2,MacIntel,59.97361161,,,,,,,,2,Ontime,h,1,2.034,9,2,38,2,1,,,,,
,0.92,,,,,,,,,h.PNG,h,612fab1125ea0a912c3edc62,2021-09-08_20h52.59.386,forced_choiceRT,2021.1.2,MacIntel,59.97361161,,,,,,,,2,Slow,h,1,2.1876,9,3,39,2,1,,,,,
,,,,,,,,,,,,612fab1125ea0a912c3edc62,2021-09-08_20h52.59.386,forced_choiceRT,2021.1.2,MacIntel,59.97361161,,,,,,,,,,,,,,,,,,1,0,1,0,1
,1.69,,,,,,,,,j.PNG,j,612fab1125ea0a912c3edc62,2021-09-08_20h52.59.386,forced_choiceRT,2021.1.2,MacIntel,59.97361161,,,,,,,,3,Ontime,h,0,1.9612,0,0,0,3,1,,,,,
,1.46,,,,,,,,,g.PNG,g,612fab1125ea0a912c3edc62,2021-09-08_20h52.59.386,forced_choiceRT,2021.1.2,MacIntel,59.97361161,,,,,,,,3,Ontime,h,0,1.9542,0,1,1,1,1,,,,,
,0.49,,,,,,,,,j.PNG,j,612fab1125ea0a912c3edc62,2021-09-08_20h52.59.386,forced_choiceRT,2021.1.2,MacIntel,59.97361161,,,,,,,,3,Ontime,h,0,2.037,0,2,2,3,1,,,,,
,1.99,,,,,,,,,g.PNG,g,612fab1125ea0a912c3edc62,2021-09-08_20h52.59.386,forced_choiceRT,2021.1.2,MacIntel,59.97361161,,,,,,,,3,Fast,h,0,1.8854,0,3,3,1,1,,,,,
,1.92,,,,,,,,,j.PNG,j,612fab1125ea0a912c3edc62,2021-09-08_20h52.59.386,forced_choiceRT,2021.1.2,MacIntel,59.97361161,,,,,,,,3,Slow,h,0,2.152,1,0,4,3,1,,,,,
,1.63,,,,,,,,,g.PNG,g,612fab1125ea0a912c3edc62,2021-09-08_20h52.59.386,forced_choiceRT,2021.1.2,MacIntel,59.97361161,,,,,,,,3,Fast,h,0,1.8887,1,1,5,1,1,,,,,
,1.3,,,,,,,,,f.PNG,f,612fab1125ea0a912c3edc62,2021-09-08_20h52.59.386,forced_choiceRT,2021.1.2,MacIntel,59.97361161,,,,,,,,3,Fast,h,0,1.868,1,2,6,0,1,,,,,
,0.37,,,,,,,,,h.PNG,h,612fab1125ea0a912c3edc62,2021-09-08_20h52.59.386,forced_choiceRT,2021.1.2,MacIntel,59.97361161,,,,,,,,3,Ontime,h,1,2.0011,1,3,7,2,1,,,,,
,0.96,,,,,,,,,j.PNG,j,612fab1125ea0a912c3edc62,2021-09-08_20h52.59.386,forced_choiceRT,2021.1.2,MacIntel,59.97361161,,,,,,,,3,Ontime,h,0,1.9191,2,0,8,3,1,,,,,
,1.1,,,,,,,,,j.PNG,j,612fab1125ea0a912c3edc62,2021-09-08_20h52.59.386,forced_choiceRT,2021.1.2,MacIntel,59.97361161,,,,,,,,3,Fast,h,0,1.8526,2,1,9,3,1,,,,,
,0.58,,,,,,,,,h.PNG,h,612fab1125ea0a912c3edc62,2021-09-08_20h52.59.386,forced_choiceRT,2021.1.2,MacIntel,59.97361161,,,,,,,,3,Ontime,h,1,1.9851,2,2,10,2,1,,,,,
,1.22,,,,,,,,,f.PNG,f,612fab1125ea0a912c3edc62,2021-09-08_20h52.59.386,forced_choiceRT,2021.1.2,MacIntel,59.97361161,,,,,,,,3,Ontime,h,0,1.902,2,3,11,0,1,,,,,
,1.42,,,,,,,,,j.PNG,j,612fab1125ea0a912c3edc62,2021-09-08_20h52.59.386,forced_choiceRT,2021.1.2,MacIntel,59.97361161,,,,,,,,3,Fast,h,0,1.8722,3,0,12,3,1,,,,,
,1.11,,,,,,,,,g.PNG,g,612fab1125ea0a912c3edc62,2021-09-08_20h52.59.386,forced_choiceRT,2021.1.2,MacIntel,59.97361161,,,,,,,,3,Fast,h,0,1.8225,3,1,13,1,1,,,,,
,0.32,,,,,,,,,h.PNG,h,612fab1125ea0a912c3edc62,2021-09-08_20h52.59.386,forced_choiceRT,2021.1.2,MacIntel,59.97361161,,,,,,,,3,Ontime,h,1,1.9182,3,2,14,2,1,,,,,
,0.1,,,,,,,,,h.PNG,h,612fab1125ea0a912c3edc62,2021-09-08_20h52.59.386,forced_choiceRT,2021.1.2,MacIntel,59.97361161,,,,,,,,3,Ontime,h,1,2.0704,3,3,15,2,1,,,,,
,1.12,,,,,,,,,j.PNG,j,612fab1125ea0a912c3edc62,2021-09-08_20h52.59.386,forced_choiceRT,2021.1.2,MacIntel,59.97361161,,,,,,,,3,Ontime,h,0,1.968,4,0,16,3,1,,,,,
,1.04,,,,,,,,,f.PNG,f,612fab1125ea0a912c3edc62,2021-09-08_20h52.59.386,forced_choiceRT,2021.1.2,MacIntel,59.97361161,,,,,,,,3,Ontime,h,0,2.0514,4,1,17,0,1,,,,,
,0.78,,,,,,,,,h.PNG,h,612fab1125ea0a912c3edc62,2021-09-08_20h52.59.386,forced_choiceRT,2021.1.2,MacIntel,59.97361161,,,,,,,,3,Ontime,h,1,2.0851,4,2,18,2,1,,,,,
,0.61,,,,,,,,,f.PNG,f,612fab1125ea0a912c3edc62,2021-09-08_20h52.59.386,forced_choiceRT,2021.1.2,MacIntel,59.97361161,,,,,,,,3,Ontime,h,0,1.9679,4,3,19,0,1,,,,,
,1.27,,,,,,,,,g.PNG,g,612fab1125ea0a912c3edc62,2021-09-08_20h52.59.386,forced_choiceRT,2021.1.2,MacIntel,59.97361161,,,,,,,,3,Fast,h,0,1.8512,5,0,20,1,1,,,,,
,0.09,,,,,,,,,h.PNG,h,612fab1125ea0a912c3edc62,2021-09-08_20h52.59.386,forced_choiceRT,2021.1.2,MacIntel,59.97361161,,,,,,,,3,Slow,j,0,2.1701,5,1,21,2,1,,,,,
,0.91,,,,,,,,,f.PNG,f,612fab1125ea0a912c3edc62,2021-09-08_20h52.59.386,forced_choiceRT,2021.1.2,MacIntel,59.97361161,,,,,,,,3,Slow,j,0,2.1214,5,2,22,0,1,,,,,
,1.91,,,,,,,,,g.PNG,g,612fab1125ea0a912c3edc62,2021-09-08_20h52.59.386,forced_choiceRT,2021.1.2,MacIntel,59.97361161,,,,,,,,3,Ontime,h,0,2.0844,5,3,23,1,1,,,,,
,0.23,,,,,,,,,f.PNG,f,612fab1125ea0a912c3edc62,2021-09-08_20h52.59.386,forced_choiceRT,2021.1.2,MacIntel,59.97361161,,,,,,,,3,Ontime,h,0,1.9518,6,0,24,0,1,,,,,
,1.55,,,,,,,,,h.PNG,h,612fab1125ea0a912c3edc62,2021-09-08_20h52.59.386,forced_choiceRT,2021.1.2,MacIntel,59.97361161,,,,,,,,3,Slow,h,1,2.1186,6,1,25,2,1,,,,,
,1.91,,,,,,,,,g.PNG,g,612fab1125ea0a912c3edc62,2021-09-08_20h52.59.386,forced_choiceRT,2021.1.2,MacIntel,59.97361161,,,,,,,,3,Fast,h,0,1.8681,6,2,26,1,1,,,,,
,0.06,,,,,,,,,j.PNG,j,612fab1125ea0a912c3edc62,2021-09-08_20h52.59.386,forced_choiceRT,2021.1.2,MacIntel,59.97361161,,,,,,,,3,Fast,h,0,1.8544,6,3,27,3,1,,,,,
,0.24,,,,,,,,,h.PNG,h,612fab1125ea0a912c3edc62,2021-09-08_20h52.59.386,forced_choiceRT,2021.1.2,MacIntel,59.97361161,,,,,,,,3,Ontime,h,1,2.039,7,0,28,2,1,,,,,
,1.19,,,,,,,,,f.PNG,f,612fab1125ea0a912c3edc62,2021-09-08_20h52.59.386,forced_choiceRT,2021.1.2,MacIntel,59.97361161,,,,,,,,3,Ontime,h,0,1.9686,7,1,29,0,1,,,,,
,0.95,,,,,,,,,g.PNG,g,612fab1125ea0a912c3edc62,2021-09-08_20h52.59.386,forced_choiceRT,2021.1.2,MacIntel,59.97361161,,,,,,,,3,Ontime,h,0,1.918,7,2,30,1,1,,,,,
,0.24,,,,,,,,,f.PNG,f,612fab1125ea0a912c3edc62,2021-09-08_20h52.59.386,forced_choiceRT,2021.1.2,MacIntel,59.97361161,,,,,,,,3,Fast,h,0,1.7877,7,3,31,0,1,,,,,
,1.04,,,,,,,,,f.PNG,f,612fab1125ea0a912c3edc62,2021-09-08_20h52.59.386,forced_choiceRT,2021.1.2,MacIntel,59.97361161,,,,,,,,3,Ontime,h,0,1.9187,8,0,32,0,1,,,,,
,0.34,,,,,,,,,h.PNG,h,612fab1125ea0a912c3edc62,2021-09-08_20h52.59.386,forced_choiceRT,2021.1.2,MacIntel,59.97361161,,,,,,,,3,Ontime,h,1,2.0212,8,1,33,2,1,,,,,
,1.02,,,,,,,,,h.PNG,h,612fab1125ea0a912c3edc62,2021-09-08_20h52.59.386,forced_choiceRT,2021.1.2,MacIntel,59.97361161,,,,,,,,3,Ontime,h,1,1.9367,8,2,34,2,1,,,,,
,0.78,,,,,,,,,g.PNG,g,612fab1125ea0a912c3edc62,2021-09-08_20h52.59.386,forced_choiceRT,2021.1.2,MacIntel,59.97361161,,,,,,,,3,Ontime,h,0,1.9688,8,3,35,1,1,,,,,
,0.96,,,,,,,,,f.PNG,f,612fab1125ea0a912c3edc62,2021-09-08_20h52.59.386,forced_choiceRT,2021.1.2,MacIntel,59.97361161,,,,,,,,3,Ontime,h,0,1.9054,9,0,36,0,1,,,,,
,1.53,,,,,,,,,g.PNG,g,612fab1125ea0a912c3edc62,2021-09-08_20h52.59.386,forced_choiceRT,2021.1.2,MacIntel,59.97361161,,,,,,,,3,Ontime,h,0,1.9552,9,1,37,1,1,,,,,
,1.2,,,,,,,,,j.PNG,j,612fab1125ea0a912c3edc62,2021-09-08_20h52.59.386,forced_choiceRT,2021.1.2,MacIntel,59.97361161,,,,,,,,3,Slow,h,0,2.1018,9,2,38,3,1,,,,,
,1.38,,,,,,,,,j.PNG,j,612fab1125ea0a912c3edc62,2021-09-08_20h52.59.386,forced_choiceRT,2021.1.2,MacIntel,59.97361161,,,,,,,,3,Ontime,h,0,2.0522,9,3,39,3,1,,,,,
,,,,,,,,,,,,612fab1125ea0a912c3edc62,2021-09-08_20h52.59.386,forced_choiceRT,2021.1.2,MacIntel,59.97361161,,,,,,,,,,,,,,,,,,2,0,2,0,1
,0.75,,,,,,,,,g.PNG,g,612fab1125ea0a912c3edc62,2021-09-08_20h52.59.386,forced_choiceRT,2021.1.2,MacIntel,59.97361161,,,,,,,,4,Ontime,h,0,1.967,0,0,0,1,1,,,,,
,0.27,,,,,,,,,h.PNG,h,612fab1125ea0a912c3edc62,2021-09-08_20h52.59.386,forced_choiceRT,2021.1.2,MacIntel,59.97361161,,,,,,,,4,Ontime,h,1,1.9849,0,1,1,2,1,,,,,
,0.48,,,,,,,,,j.PNG,j,612fab1125ea0a912c3edc62,2021-09-08_20h52.59.386,forced_choiceRT,2021.1.2,MacIntel,59.97361161,,,,,,,,4,Ontime,h,0,1.9341,0,2,2,3,1,,,,,
,0.63,,,,,,,,,j.PNG,j,612fab1125ea0a912c3edc62,2021-09-08_20h52.59.386,forced_choiceRT,2021.1.2,MacIntel,59.97361161,,,,,,,,4,Ontime,h,0,1.9218,0,3,3,3,1,,,,,
,1.02,,,,,,,,,f.PNG,f,612fab1125ea0a912c3edc62,2021-09-08_20h52.59.386,forced_choiceRT,2021.1.2,MacIntel,59.97361161,,,,,,,,4,Ontime,h,0,1.9685,1,0,4,0,1,,,,,
,0.62,,,,,,,,,h.PNG,h,612fab1125ea0a912c3edc62,2021-09-08_20h52.59.386,forced_choiceRT,2021.1.2,MacIntel,59.97361161,,,,,,,,4,Fast,h,1,1.6679,1,1,5,2,1,,,,,
,0.71,,,,,,,,,f.PNG,f,612fab1125ea0a912c3edc62,2021-09-08_20h52.59.386,forced_choiceRT,2021.1.2,MacIntel,59.97361161,,,,,,,,4,Fast,h,0,1.8529,1,2,6,0,1,,,,,
,1.32,,,,,,,,,f.PNG,f,612fab1125ea0a912c3edc62,2021-09-08_20h52.59.386,forced_choiceRT,2021.1.2,MacIntel,59.97361161,,,,,,,,4,Ontime,h,0,2.0356,1,3,7,0,1,,,,,
,1.38,,,,,,,,,h.PNG,h,612fab1125ea0a912c3edc62,2021-09-08_20h52.59.386,forced_choiceRT,2021.1.2,MacIntel,59.97361161,,,,,,,,4,Ontime,h,1,2.0198,2,0,8,2,1,,,,,
,1.36,,,,,,,,,g.PNG,g,612fab1125ea0a912c3edc62,2021-09-08_20h52.59.386,forced_choiceRT,2021.1.2,MacIntel,59.97361161,,,,,,,,4,Ontime,h,0,2.0513,2,1,9,1,1,,,,,
,1.1,,,,,,,,,j.PNG,j,612fab1125ea0a912c3edc62,2021-09-08_20h52.59.386,forced_choiceRT,2021.1.2,MacIntel,59.97361161,,,,,,,,4,Ontime,h,0,1.9216,2,2,10,3,1,,,,,
,1.18,,,,,,,,,j.PNG,j,612fab1125ea0a912c3edc62,2021-09-08_20h52.59.386,forced_choiceRT,2021.1.2,MacIntel,59.97361161,,,,,,,,4,Ontime,h,0,1.9372,2,3,11,3,1,,,,,
,0.49,,,,,,,,,j.PNG,j,612fab1125ea0a912c3edc62,2021-09-08_20h52.59.386,forced_choiceRT,2021.1.2,MacIntel,59.97361161,,,,,,,,4,Ontime,h,0,2.0039,3,0,12,3,1,,,,,
,1.69,,,,,,,,,j.PNG,j,612fab1125ea0a912c3edc62,2021-09-08_20h52.59.386,forced_choiceRT,2021.1.2,MacIntel,59.97361161,,,,,,,,4,Ontime,h,0,2.0354,3,1,13,3,1,,,,,
,1.06,,,,,,,,,g.PNG,g,612fab1125ea0a912c3edc62,2021-09-08_20h52.59.386,forced_choiceRT,2021.1.2,MacIntel,59.97361161,,,,,,,,4,Fast,h,0,1.8022,3,2,14,1,1,,,,,
,1.33,,,,,,,,,h.PNG,h,612fab1125ea0a912c3edc62,2021-09-08_20h52.59.386,forced_choiceRT,2021.1.2,MacIntel,59.97361161,,,,,,,,4,Fast,j,0,1.8354,3,3,15,2,1,,,,,
,0.02,,,,,,,,,f.PNG,f,612fab1125ea0a912c3edc62,2021-09-08_20h52.59.386,forced_choiceRT,2021.1.2,MacIntel,59.97361161,,,,,,,,4,Ontime,j,0,1.9191,4,0,16,0,1,,,,,
,0.6,,,,,,,,,f.PNG,f,612fab1125ea0a912c3edc62,2021-09-08_20h52.59.386,forced_choiceRT,2021.1.2,MacIntel,59.97361161,,,,,,,,4,Ontime,j,0,2.0514,4,1,17,0,1,,,,,
,1.5,,,,,,,,,j.PNG,j,612fab1125ea0a912c3edc62,2021-09-08_20h52.59.386,forced_choiceRT,2021.1.2,MacIntel,59.97361161,,,,,,,,4,Ontime,j,1,1.9346,4,2,18,3,1,,,,,
,1.28,,,,,,,,,j.PNG,j,612fab1125ea0a912c3edc62,2021-09-08_20h52.59.386,forced_choiceRT,2021.1.2,MacIntel,59.97361161,,,,,,,,4,Ontime,j,1,2.0376,4,3,19,3,1,,,,,
,0.8,,,,,,,,,g.PNG,g,612fab1125ea0a912c3edc62,2021-09-08_20h52.59.386,forced_choiceRT,2021.1.2,MacIntel,59.97361161,,,,,,,,4,Ontime,j,0,2.0018,5,0,20,1,1,,,,,
,1.39,,,,,,,,,g.PNG,g,612fab1125ea0a912c3edc62,2021-09-08_20h52.59.386,forced_choiceRT,2021.1.2,MacIntel,59.97361161,,,,,,,,4,Ontime,j,0,1.9704,5,1,21,1,1,,,,,
,1.58,,,,,,,,,h.PNG,h,612fab1125ea0a912c3edc62,2021-09-08_20h52.59.386,forced_choiceRT,2021.1.2,MacIntel,59.97361161,,,,,,,,4,Ontime,j,0,1.9531,5,2,22,2,1,,,,,
,1.45,,,,,,,,,h.PNG,h,612fab1125ea0a912c3edc62,2021-09-08_20h52.59.386,forced_choiceRT,2021.1.2,MacIntel,59.97361161,,,,,,,,4,Ontime,j,0,1.9024,5,3,23,2,1,,,,,
,1.74,,,,,,,,,g.PNG,g,612fab1125ea0a912c3edc62,2021-09-08_20h52.59.386,forced_choiceRT,2021.1.2,MacIntel,59.97361161,,,,,,,,4,Ontime,j,0,2.0519,6,0,24,1,1,,,,,
,0.59,,,,,,,,,g.PNG,g,612fab1125ea0a912c3edc62,2021-09-08_20h52.59.386,forced_choiceRT,2021.1.2,MacIntel,59.97361161,,,,,,,,4,Slow,j,0,2.2361,6,1,25,1,1,,,,,
,0.65,,,,,,,,,f.PNG,f,612fab1125ea0a912c3edc62,2021-09-08_20h52.59.386,forced_choiceRT,2021.1.2,MacIntel,59.97361161,,,,,,,,4,Ontime,j,0,1.9713,6,2,26,0,1,,,,,
,0.59,,,,,,,,,g.PNG,g,612fab1125ea0a912c3edc62,2021-09-08_20h52.59.386,forced_choiceRT,2021.1.2,MacIntel,59.97361161,,,,,,,,4,Fast,j,0,1.8693,6,3,27,1,1,,,,,
,1.99,,,,,,,,,h.PNG,h,612fab1125ea0a912c3edc62,2021-09-08_20h52.59.386,forced_choiceRT,2021.1.2,MacIntel,59.97361161,,,,,,,,4,Ontime,j,0,2.0552,7,0,28,2,1,,,,,
,1.58,,,,,,,,,f.PNG,f,612fab1125ea0a912c3edc62,2021-09-08_20h52.59.386,forced_choiceRT,2021.1.2,MacIntel,59.97361161,,,,,,,,4,Ontime,j,0,1.9343,7,1,29,0,1,,,,,
,0.47,,,,,,,,,h.PNG,h,612fab1125ea0a912c3edc62,2021-09-08_20h52.59.386,forced_choiceRT,2021.1.2,MacIntel,59.97361161,,,,,,,,4,Fast,j,0,1.8894,7,2,30,2,1,,,,,
,0.07,,,,,,,,,j.PNG,j,612fab1125ea0a912c3edc62,2021-09-08_20h52.59.386,forced_choiceRT,2021.1.2,MacIntel,59.97361161,,,,,,,,4,Fast,j,1,1.7872,7,3,31,3,1,,,,,
,1.76,,,,,,,,,f.PNG,f,612fab1125ea0a912c3edc62,2021-09-08_20h52.59.386,forced_choiceRT,2021.1.2,MacIntel,59.97361161,,,,,,,,4,Ontime,j,0,1.935,8,0,32,0,1,,,,,
,0.23,,,,,,,,,g.PNG,g,612fab1125ea0a912c3edc62,2021-09-08_20h52.59.386,forced_choiceRT,2021.1.2,MacIntel,59.97361161,,,,,,,,4,Fast,j,0,1.8532,8,1,33,1,1,,,,,
,0.1,,,,,,,,,j.PNG,j,612fab1125ea0a912c3edc62,2021-09-08_20h52.59.386,forced_choiceRT,2021.1.2,MacIntel,59.97361161,,,,,,,,4,Ontime,j,1,1.9396,8,2,34,3,1,,,,,
,1.87,,,,,,,,,g.PNG,g,612fab1125ea0a912c3edc62,2021-09-08_20h52.59.386,forced_choiceRT,2021.1.2,MacIntel,59.97361161,,,,,,,,4,Fast,j,0,1.8575,8,3,35,1,1,,,,,
,1.02,,,,,,,,,f.PNG,f,612fab1125ea0a912c3edc62,2021-09-08_20h52.59.386,forced_choiceRT,2021.1.2,MacIntel,59.97361161,,,,,,,,4,Fast,j,0,1.8511,9,0,36,0,1,,,,,
,0.71,,,,,,,,,f.PNG,f,612fab1125ea0a912c3edc62,2021-09-08_20h52.59.386,forced_choiceRT,2021.1.2,MacIntel,59.97361161,,,,,,,,4,Ontime,j,0,1.9182,9,1,37,0,1,,,,,
,1.22,,,,,,,,,h.PNG,h,612fab1125ea0a912c3edc62,2021-09-08_20h52.59.386,forced_choiceRT,2021.1.2,MacIntel,59.97361161,,,,,,,,4,Ontime,j,0,1.9688,9,2,38,2,1,,,,,
,1,,,,,,,,,h.PNG,h,612fab1125ea0a912c3edc62,2021-09-08_20h52.59.386,forced_choiceRT,2021.1.2,MacIntel,59.97361161,,,,,,,,4,Ontime,j,0,1.9213,9,3,39,2,1,,,,,
,,,,,,,,,,,,612fab1125ea0a912c3edc62,2021-09-08_20h52.59.386,forced_choiceRT,2021.1.2,MacIntel,59.97361161,,,,,,,,,,,,,,,,,,3,0,3,0,1
,1.02,,,,,,,,,g.PNG,g,612fab1125ea0a912c3edc62,2021-09-08_20h52.59.386,forced_choiceRT,2021.1.2,MacIntel,59.97361161,,,,,,,,5,Fast,j,0,1.8855,0,0,0,1,1,,,,,
,0.99,,,,,,,,,j.PNG,j,612fab1125ea0a912c3edc62,2021-09-08_20h52.59.386,forced_choiceRT,2021.1.2,MacIntel,59.97361161,,,,,,,,5,Ontime,j,1,1.9349,0,1,1,3,1,,,,,
,1.04,,,,,,,,,f.PNG,f,612fab1125ea0a912c3edc62,2021-09-08_20h52.59.386,forced_choiceRT,2021.1.2,MacIntel,59.97361161,,,,,,,,5,Ontime,j,0,1.9346,0,2,2,0,1,,,,,
,1.37,,,,,,,,,f.PNG,f,612fab1125ea0a912c3edc62,2021-09-08_20h52.59.386,forced_choiceRT,2021.1.2,MacIntel,59.97361161,,,,,,,,5,Fast,j,0,1.8563,0,3,3,0,1,,,,,
,1.07,,,,,,,,,j.PNG,j,612fab1125ea0a912c3edc62,2021-09-08_20h52.59.386,forced_choiceRT,2021.1.2,MacIntel,59.97361161,,,,,,,,5,Fast,j,1,1.8671,1,0,4,3,1,,,,,
,1.93,,,,,,,,,j.PNG,j,612fab1125ea0a912c3edc62,2021-09-08_20h52.59.386,forced_choiceRT,2021.1.2,MacIntel,59.97361161,,,,,,,,5,Ontime,j,1,1.9349,1,1,5,3,1,,,,,
,1.96,,,,,,,,,h.PNG,h,612fab1125ea0a912c3edc62,2021-09-08_20h52.59.386,forced_choiceRT,2021.1.2,MacIntel,59.97361161,,,,,,,,5,Fast,j,0,1.8846,1,2,6,2,1,,,,,
,1.07,,,,,,,,,j.PNG,j,612fab1125ea0a912c3edc62,2021-09-08_20h52.59.386,forced_choiceRT,2021.1.2,MacIntel,59.97361161,,,,,,,,5,Fast,j,1,1.8846,1,3,7,3,1,,,,,
,1.91,,,,,,,,,f.PNG,f,612fab1125ea0a912c3edc62,2021-09-08_20h52.59.386,forced_choiceRT,2021.1.2,MacIntel,59.97361161,,,,,,,,5,Fast,j,0,1.8182,2,0,8,0,1,,,,,
,1.03,,,,,,,,,g.PNG,g,612fab1125ea0a912c3edc62,2021-09-08_20h52.59.386,forced_choiceRT,2021.1.2,MacIntel,59.97361161,,,,,,,,5,Ontime,j,0,2.0344,2,1,9,1,1,,,,,
,1.05,,,,,,,,,h.PNG,h,612fab1125ea0a912c3edc62,2021-09-08_20h52.59.386,forced_choiceRT,2021.1.2,MacIntel,59.97361161,,,,,,,,5,Ontime,j,0,1.9507,2,2,10,2,1,,,,,
,0.53,,,,,,,,,g.PNG,g,612fab1125ea0a912c3edc62,2021-09-08_20h52.59.386,forced_choiceRT,2021.1.2,MacIntel,59.97361161,,,,,,,,5,Ontime,j,0,1.9206,2,3,11,1,1,,,,,
,1.32,,,,,,,,,f.PNG,f,612fab1125ea0a912c3edc62,2021-09-08_20h52.59.386,forced_choiceRT,2021.1.2,MacIntel,59.97361161,,,,,,,,5,Fast,j,0,1.8354,3,0,12,0,1,,,,,
,0.11,,,,,,,,,g.PNG,g,612fab1125ea0a912c3edc62,2021-09-08_20h52.59.386,forced_choiceRT,2021.1.2,MacIntel,59.97361161,,,,,,,,5,Fast,j,0,1.8857,3,1,13,1,1,,,,,
,0.01,,,,,,,,,f.PNG,f,612fab1125ea0a912c3edc62,2021-09-08_20h52.59.386,forced_choiceRT,2021.1.2,MacIntel,59.97361161,,,,,,,,5,Ontime,j,0,1.9182,3,2,14,0,1,,,,,
,1.53,,,,,,,,,g.PNG,g,612fab1125ea0a912c3edc62,2021-09-08_20h52.59.386,forced_choiceRT,2021.1.2,MacIntel,59.97361161,,,,,,,,5,Ontime,j,0,1.9028,3,3,15,1,1,,,,,
,1.55,,,,,,,,,j.PNG,j,612fab1125ea0a912c3edc62,2021-09-08_20h52.59.386,forced_choiceRT,2021.1.2,MacIntel,59.97361161,,,,,,,,5,Ontime,j,1,1.9713,4,0,16,3,1,,,,,
,1.33,,,,,,,,,j.PNG,j,612fab1125ea0a912c3edc62,2021-09-08_20h52.59.386,forced_choiceRT,2021.1.2,MacIntel,59.97361161,,,,,,,,5,Fast,j,1,1.8882,4,1,17,3,1,,,,,
,0.39,,,,,,,,,h.PNG,h,612fab1125ea0a912c3edc62,2021-09-08_20h52.59.386,forced_choiceRT,2021.1.2,MacIntel,59.97361161,,,,,,,,5,Fast,j,0,1.8508,4,2,18,2,1,,,,,
,0.61,,,,,,,,,f.PNG,f,612fab1125ea0a912c3edc62,2021-09-08_20h52.59.386,forced_choiceRT,2021.1.2,MacIntel,59.97361161,,,,,,,,5,Ontime,j,0,1.9038,4,3,19,0,1,,,,,
,0.59,,,,,,,,,f.PNG,f,612fab1125ea0a912c3edc62,2021-09-08_20h52.59.386,forced_choiceRT,2021.1.2,MacIntel,59.97361161,,,,,,,,5,Ontime,j,0,1.9181,5,0,20,0,1,,,,,
,1.86,,,,,,,,,h.PNG,h,612fab1125ea0a912c3edc62,2021-09-08_20h52.59.386,forced_choiceRT,2021.1.2,MacIntel,59.97361161,,,,,,,,5,Ontime,j,0,1.9373,5,1,21,2,1,,,,,
,1.25,,,,,,,,,g.PNG,g,612fab1125ea0a912c3edc62,2021-09-08_20h52.59.386,forced_choiceRT,2021.1.2,MacIntel,59.97361161,,,,,,,,5,Fast,j,0,1.8678,5,2,22,1,1,,,,,
,0.7,,,,,,,,,g.PNG,g,612fab1125ea0a912c3edc62,2021-09-08_20h52.59.386,forced_choiceRT,2021.1.2,MacIntel,59.97361161,,,,,,,,5,Ontime,j,0,1.9185,5,3,23,1,1,,,,,
,1.76,,,,,,,,,g.PNG,g,612fab1125ea0a912c3edc62,2021-09-08_20h52.59.386,forced_choiceRT,2021.1.2,MacIntel,59.97361161,,,,,,,,5,Ontime,j,0,1.9852,6,0,24,1,1,,,,,
,0.59,,,,,,,,,h.PNG,h,612fab1125ea0a912c3edc62,2021-09-08_20h52.59.386,forced_choiceRT,2021.1.2,MacIntel,59.97361161,,,,,,,,5,Ontime,j,0,2.0196,6,1,25,2,1,,,,,
,1.38,,,,,,,,,h.PNG,h,612fab1125ea0a912c3edc62,2021-09-08_20h52.59.386,forced_choiceRT,2021.1.2,MacIntel,59.97361161,,,,,,,,5,Fast,j,0,1.8859,6,2,26,2,1,,,,,
,0.51,,,,,,,,,j.PNG,j,612fab1125ea0a912c3edc62,2021-09-08_20h52.59.386,forced_choiceRT,2021.1.2,MacIntel,59.97361161,,,,,,,,5,Ontime,j,1,1.919,6,3,27,3,1,,,,,
,0.07,,,,,,,,,h.PNG,h,612fab1125ea0a912c3edc62,2021-09-08_20h52.59.386,forced_choiceRT,2021.1.2,MacIntel,59.97361161,,,,,,,,5,Fast,j,0,1.8678,7,0,28,2,1,,,,,
,1.21,,,,,,,,,j.PNG,j,612fab1125ea0a912c3edc62,2021-09-08_20h52.59.386,forced_choiceRT,2021.1.2,MacIntel,59.97361161,,,,,,,,5,Ontime,f,0,2.0213,7,1,29,3,1,,,,,
,0.59,,,,,,,,,f.PNG,f,612fab1125ea0a912c3edc62,2021-09-08_20h52.59.386,forced_choiceRT,2021.1.2,MacIntel,59.97361161,,,,,,,,5,Ontime,f,1,2.054,7,2,30,0,1,,,,,
,1.84,,,,,,,,,f.PNG,f,612fab1125ea0a912c3edc62,2021-09-08_20h52.59.386,forced_choiceRT,2021.1.2,MacIntel,59.97361161,,,,,,,,5,Ontime,f,1,2.0357,7,3,31,0,1,,,,,
,0.27,,,,,,,,,h.PNG,h,612fab1125ea0a912c3edc62,2021-09-08_20h52.59.386,forced_choiceRT,2021.1.2,MacIntel,59.97361161,,,,,,,,5,Ontime,f,0,2.0677,8,0,32,2,1,,,,,
,0.16,,,,,,,,,j.PNG,j,612fab1125ea0a912c3edc62,2021-09-08_20h52.59.386,forced_choiceRT,2021.1.2,MacIntel,59.97361161,,,,,,,,5,Ontime,f,0,2.0225,8,1,33,3,1,,,,,
,1.43,,,,,,,,,h.PNG,h,612fab1125ea0a912c3edc62,2021-09-08_20h52.59.386,forced_choiceRT,2021.1.2,MacIntel,59.97361161,,,,,,,,5,Slow,f,0,2.1064,8,2,34,2,1,,,,,
,0.17,,,,,,,,,g.PNG,g,612fab1125ea0a912c3edc62,2021-09-08_20h52.59.386,forced_choiceRT,2021.1.2,MacIntel,59.97361161,,,,,,,,5,Slow,f,0,2.1846,8,3,35,1,1,,,,,
,1.98,,,,,,,,,h.PNG,h,612fab1125ea0a912c3edc62,2021-09-08_20h52.59.386,forced_choiceRT,2021.1.2,MacIntel,59.97361161,,,,,,,,5,Ontime,f,0,1.9019,9,0,36,2,1,,,,,
,1.01,,,,,,,,,f.PNG,f,612fab1125ea0a912c3edc62,2021-09-08_20h52.59.386,forced_choiceRT,2021.1.2,MacIntel,59.97361161,,,,,,,,5,Fast,f,1,1.6527,9,1,37,0,1,,,,,
,0.65,,,,,,,,,g.PNG,g,612fab1125ea0a912c3edc62,2021-09-08_20h52.59.386,forced_choiceRT,2021.1.2,MacIntel,59.97361161,,,,,,,,5,Fast,f,0,1.7692,9,2,38,1,1,,,,,
,0.33,,,,,,,,,j.PNG,j,612fab1125ea0a912c3edc62,2021-09-08_20h52.59.386,forced_choiceRT,2021.1.2,MacIntel,59.97361161,,,,,,,,5,Fast,f,0,1.8046,9,3,39,3,1,,,,,
,,,,,,,,,,,,612fab1125ea0a912c3edc62,2021-09-08_20h52.59.386,forced_choiceRT,2021.1.2,MacIntel,59.97361161,,,,,,,,,,,,,,,,,,4,0,4,0,1
,0.49,,,,,,,,,g.PNG,g,612fab1125ea0a912c3edc62,2021-09-08_20h52.59.386,forced_choiceRT,2021.1.2,MacIntel,59.97361161,,,,,,,,6,Ontime,f,0,1.9336,0,0,0,1,1,,,,,
,0.31,,,,,,,,,g.PNG,g,612fab1125ea0a912c3edc62,2021-09-08_20h52.59.386,forced_choiceRT,2021.1.2,MacIntel,59.97361161,,,,,,,,6,Fast,f,0,1.852,0,1,1,1,1,,,,,
,0.87,,,,,,,,,f.PNG,f,612fab1125ea0a912c3edc62,2021-09-08_20h52.59.386,forced_choiceRT,2021.1.2,MacIntel,59.97361161,,,,,,,,6,Fast,f,1,1.7846,0,2,2,0,1,,,,,
,0.78,,,,,,,,,f.PNG,f,612fab1125ea0a912c3edc62,2021-09-08_20h52.59.386,forced_choiceRT,2021.1.2,MacIntel,59.97361161,,,,,,,,6,Fast,f,1,1.8857,0,3,3,0,1,,,,,
,1.01,,,,,,,,,j.PNG,j,612fab1125ea0a912c3edc62,2021-09-08_20h52.59.386,forced_choiceRT,2021.1.2,MacIntel,59.97361161,,,,,,,,6,Fast,f,0,1.8185,1,0,4,3,1,,,,,
,1.6,,,,,,,,,f.PNG,f,612fab1125ea0a912c3edc62,2021-09-08_20h52.59.386,forced_choiceRT,2021.1.2,MacIntel,59.97361161,,,,,,,,6,Ontime,f,1,1.939,1,1,5,0,1,,,,,
,1.38,,,,,,,,,g.PNG,g,612fab1125ea0a912c3edc62,2021-09-08_20h52.59.386,forced_choiceRT,2021.1.2,MacIntel,59.97361161,,,,,,,,6,Fast,f,0,1.8681,1,2,6,1,1,,,,,
,1.96,,,,,,,,,h.PNG,h,612fab1125ea0a912c3edc62,2021-09-08_20h52.59.386,forced_choiceRT,2021.1.2,MacIntel,59.97361161,,,,,,,,6,Ontime,j,0,1.9044,1,3,7,2,1,,,,,
,1.14,,,,,,,,,g.PNG,g,612fab1125ea0a912c3edc62,2021-09-08_20h52.59.386,forced_choiceRT,2021.1.2,MacIntel,59.97361161,,,,,,,,6,Ontime,j,0,1.9698,2,0,8,1,1,,,,,
,0.26,,,,,,,,,h.PNG,h,612fab1125ea0a912c3edc62,2021-09-08_20h52.59.386,forced_choiceRT,2021.1.2,MacIntel,59.97361161,,,,,,,,6,Ontime,j,0,2.0686,2,1,9,2,1,,,,,
,0.75,,,,,,,,,f.PNG,f,612fab1125ea0a912c3edc62,2021-09-08_20h52.59.386,forced_choiceRT,2021.1.2,MacIntel,59.97361161,,,,,,,,6,Fast,j,0,1.8879,2,2,10,0,1,,,,,
,1.71,,,,,,,,,j.PNG,j,612fab1125ea0a912c3edc62,2021-09-08_20h52.59.386,forced_choiceRT,2021.1.2,MacIntel,59.97361161,,,,,,,,6,Ontime,j,1,1.9533,2,3,11,3,1,,,,,
,1.9,,,,,,,,,h.PNG,h,612fab1125ea0a912c3edc62,2021-09-08_20h52.59.386,forced_choiceRT,2021.1.2,MacIntel,59.97361161,,,,,,,,6,Slow,j,0,2.1344,3,0,12,2,1,,,,,
,0.55,,,,,,,,,h.PNG,h,612fab1125ea0a912c3edc62,2021-09-08_20h52.59.386,forced_choiceRT,2021.1.2,MacIntel,59.97361161,,,,,,,,6,Slow,j,0,2.1193,3,1,13,2,1,,,,,
,1.38,,,,,,,,,h.PNG,h,612fab1125ea0a912c3edc62,2021-09-08_20h52.59.386,forced_choiceRT,2021.1.2,MacIntel,59.97361161,,,,,,,,6,Ontime,j,0,1.9525,3,2,14,2,1,,,,,
,0.78,,,,,,,,,f.PNG,f,612fab1125ea0a912c3edc62,2021-09-08_20h52.59.386,forced_choiceRT,2021.1.2,MacIntel,59.97361161,,,,,,,,6,Ontime,j,0,1.9202,3,3,15,0,1,,,,,
,1.97,,,,,,,,,h.PNG,h,612fab1125ea0a912c3edc62,2021-09-08_20h52.59.386,forced_choiceRT,2021.1.2,MacIntel,59.97361161,,,,,,,,6,Ontime,j,0,1.9177,4,0,16,2,1,,,,,
,1.44,,,,,,,,,j.PNG,j,612fab1125ea0a912c3edc62,2021-09-08_20h52.59.386,forced_choiceRT,2021.1.2,MacIntel,59.97361161,,,,,,,,6,Fast,j,1,1.8201,4,1,17,3,1,,,,,
,1.49,,,,,,,,,g.PNG,g,612fab1125ea0a912c3edc62,2021-09-08_20h52.59.386,forced_choiceRT,2021.1.2,MacIntel,59.97361161,,,,,,,,6,Ontime,j,0,1.9061,4,2,18,1,1,,,,,
,0.38,,,,,,,,,g.PNG,g,612fab1125ea0a912c3edc62,2021-09-08_20h52.59.386,forced_choiceRT,2021.1.2,MacIntel,59.97361161,,,,,,,,6,Slow,j,0,2.1199,4,3,19,1,1,,,,,
,1.53,,,,,,,,,g.PNG,g,612fab1125ea0a912c3edc62,2021-09-08_20h52.59.386,forced_choiceRT,2021.1.2,MacIntel,59.97361161,,,,,,,,6,Ontime,j,0,2.019,5,0,20,1,1,,,,,
,1.51,,,,,,,,,g.PNG,g,612fab1125ea0a912c3edc62,2021-09-08_20h52.59.386,forced_choiceRT,2021.1.2,MacIntel,59.97361161,,,,,,,,6,Ontime,h,0,1.9017,5,1,21,1,1,,,,,
,1.48,,,,,,,,,j.PNG,j,612fab1125ea0a912c3edc62,2021-09-08_20h52.59.386,forced_choiceRT,2021.1.2,MacIntel,59.97361161,,,,,,,,6,Ontime,h,0,2.0684,5,2,22,3,1,,,,,
,1.35,,,,,,,,,h.PNG,h,612fab1125ea0a912c3edc62,2021-09-08_20h52.59.386,forced_choiceRT,2021.1.2,MacIntel,59.97361161,,,,,,,,6,Ontime,j,0,1.954,5,3,23,2,1,,,,,
,0.76,,,,,,,,,h.PNG,h,612fab1125ea0a912c3edc62,2021-09-08_20h52.59.386,forced_choiceRT,2021.1.2,MacIntel,59.97361161,,,,,,,,6,Ontime,j,0,2.0026,6,0,24,2,1,,,,,
,1.14,,,,,,,,,g.PNG,g,612fab1125ea0a912c3edc62,2021-09-08_20h52.59.386,forced_choiceRT,2021.1.2,MacIntel,59.97361161,,,,,,,,6,Slow,j,0,2.3685,6,1,25,1,1,,,,,
,0.46,,,,,,,,,f.PNG,f,612fab1125ea0a912c3edc62,2021-09-08_20h52.59.386,forced_choiceRT,2021.1.2,MacIntel,59.97361161,,,,,,,,6,Ontime,j,0,1.9882,6,2,26,0,1,,,,,
,1.15,,,,,,,,,f.PNG,f,612fab1125ea0a912c3edc62,2021-09-08_20h52.59.386,forced_choiceRT,2021.1.2,MacIntel,59.97361161,,,,,,,,6,Slow,j,0,2.1682,6,3,27,0,1,,,,,
,0.54,,,,,,,,,j.PNG,j,612fab1125ea0a912c3edc62,2021-09-08_20h52.59.386,forced_choiceRT,2021.1.2,MacIntel,59.97361161,,,,,,,,6,Ontime,j,1,2.0179,7,0,28,3,1,,,,,
,1.51,,,,,,,,,g.PNG,g,612fab1125ea0a912c3edc62,2021-09-08_20h52.59.386,forced_choiceRT,2021.1.2,MacIntel,59.97361161,,,,,,,,6,Ontime,j,0,1.9201,7,1,29,1,1,,,,,
,1.57,,,,,,,,,j.PNG,j,612fab1125ea0a912c3edc62,2021-09-08_20h52.59.386,forced_choiceRT,2021.1.2,MacIntel,59.97361161,,,,,,,,6,Ontime,j,1,2.0848,7,2,30,3,1,,,,,
,0.48,,,,,,,,,j.PNG,j,612fab1125ea0a912c3edc62,2021-09-08_20h52.59.386,forced_choiceRT,2021.1.2,MacIntel,59.97361161,,,,,,,,6,Ontime,j,1,1.9191,7,3,31,3,1,,,,,
,0.69,,,,,,,,,h.PNG,h,612fab1125ea0a912c3edc62,2021-09-08_20h52.59.386,forced_choiceRT,2021.1.2,MacIntel,59.97361161,,,,,,,,6,Ontime,j,0,1.9684,8,0,32,2,1,,,,,
,0.49,,,,,,,,,f.PNG,f,612fab1125ea0a912c3edc62,2021-09-08_20h52.59.386,forced_choiceRT,2021.1.2,MacIntel,59.97361161,,,,,,,,6,Ontime,j,0,1.9891,8,1,33,0,1,,,,,
,0.9,,,,,,,,,h.PNG,h,612fab1125ea0a912c3edc62,2021-09-08_20h52.59.386,forced_choiceRT,2021.1.2,MacIntel,59.97361161,,,,,,,,6,Fast,j,0,0.2674,8,2,34,2,1,,,,,
,0.75,,,,,,,,,f.PNG,f,612fab1125ea0a912c3edc62,2021-09-08_20h52.59.386,forced_choiceRT,2021.1.2,MacIntel,59.97361161,,,,,,,,6,Ontime,j,0,2.0344,8,3,35,0,1,,,,,
,1.09,,,,,,,,,j.PNG,j,612fab1125ea0a912c3edc62,2021-09-08_20h52.59.386,forced_choiceRT,2021.1.2,MacIntel,59.97361161,,,,,,,,6,Ontime,j,1,2.0695,9,0,36,3,1,,,,,
,0.7,,,,,,,,,j.PNG,j,612fab1125ea0a912c3edc62,2021-09-08_20h52.59.386,forced_choiceRT,2021.1.2,MacIntel,59.97361161,,,,,,,,6,Slow,j,1,2.1354,9,1,37,3,1,,,,,
,1.81,,,,,,,,,f.PNG,f,612fab1125ea0a912c3edc62,2021-09-08_20h52.59.386,forced_choiceRT,2021.1.2,MacIntel,59.97361161,,,,,,,,6,Ontime,j,0,1.9861,9,2,38,0,1,,,,,
,0.29,,,,,,,,,j.PNG,j,612fab1125ea0a912c3edc62,2021-09-08_20h52.59.386,forced_choiceRT,2021.1.2,MacIntel,59.97361161,,,,,,,,6,Ontime,j,1,1.9677,9,3,39,3,1,,,,,
,,,,,,,,,,,,612fab1125ea0a912c3edc62,2021-09-08_20h52.59.386,forced_choiceRT,2021.1.2,MacIntel,59.97361161,,,,,,,,,,,,,,,,,,5,0,5,0,1
,0.74,,,,,,,,,h.PNG,h,612fab1125ea0a912c3edc62,2021-09-08_20h52.59.386,forced_choiceRT,2021.1.2,MacIntel,59.97361161,,,,,,,,7,Fast,j,0,1.8869,0,0,0,2,1,,,,,
,0.06,,,,,,,,,f.PNG,f,612fab1125ea0a912c3edc62,2021-09-08_20h52.59.386,forced_choiceRT,2021.1.2,MacIntel,59.97361161,,,,,,,,7,Ontime,j,0,1.9172,0,1,1,0,1,,,,,
,0.46,,,,,,,,,h.PNG,h,612fab1125ea0a912c3edc62,2021-09-08_20h52.59.386,forced_choiceRT,2021.1.2,MacIntel,59.97361161,,,,,,,,7,Ontime,j,0,1.9842,0,2,2,2,1,,,,,
,1.55,,,,,,,,,h.PNG,h,612fab1125ea0a912c3edc62,2021-09-08_20h52.59.386,forced_choiceRT,2021.1.2,MacIntel,59.97361161,,,,,,,,7,Fast,j,0,1.8221,0,3,3,2,1,,,,,
,0.93,,,,,,,,,f.PNG,f,612fab1125ea0a912c3edc62,2021-09-08_20h52.59.386,forced_choiceRT,2021.1.2,MacIntel,59.97361161,,,,,,,,7,Ontime,j,0,1.9347,1,0,4,0,1,,,,,
,1.5,,,,,,,,,f.PNG,f,612fab1125ea0a912c3edc62,2021-09-08_20h52.59.386,forced_choiceRT,2021.1.2,MacIntel,59.97361161,,,,,,,,7,Ontime,j,0,2.0022,1,1,5,0,1,,,,,
,1.89,,,,,,,,,h.PNG,h,612fab1125ea0a912c3edc62,2021-09-08_20h52.59.386,forced_choiceRT,2021.1.2,MacIntel,59.97361161,,,,,,,,7,Ontime,j,0,1.9849,1,2,6,2,1,,,,,
,0.88,,,,,,,,,g.PNG,g,612fab1125ea0a912c3edc62,2021-09-08_20h52.59.386,forced_choiceRT,2021.1.2,MacIntel,59.97361161,,,,,,,,7,Ontime,j,0,2.0017,1,3,7,1,1,,,,,
,1.31,,,,,,,,,j.PNG,j,612fab1125ea0a912c3edc62,2021-09-08_20h52.59.386,forced_choiceRT,2021.1.2,MacIntel,59.97361161,,,,,,,,7,Slow,j,1,2.1011,2,0,8,3,1,,,,,
,1.6,,,,,,,,,g.PNG,g,612fab1125ea0a912c3edc62,2021-09-08_20h52.59.386,forced_choiceRT,2021.1.2,MacIntel,59.97361161,,,,,,,,7,Ontime,j,0,1.9048,2,1,9,1,1,,,,,
,1.13,,,,,,,,,g.PNG,g,612fab1125ea0a912c3edc62,2021-09-08_20h52.59.386,forced_choiceRT,2021.1.2,MacIntel,59.97361161,,,,,,,,7,Fast,j,0,1.8903,2,2,10,1,1,,,,,
,0.87,,,,,,,,,j.PNG,j,612fab1125ea0a912c3edc62,2021-09-08_20h52.59.386,forced_choiceRT,2021.1.2,MacIntel,59.97361161,,,,,,,,7,Ontime,j,1,1.9019,2,3,11,3,1,,,,,
,1.18,,,,,,,,,g.PNG,g,612fab1125ea0a912c3edc62,2021-09-08_20h52.59.386,forced_choiceRT,2021.1.2,MacIntel,59.97361161,,,,,,,,7,Ontime,j,0,1.9179,3,0,12,1,1,,,,,
,0.05,,,,,,,,,f.PNG,f,612fab1125ea0a912c3edc62,2021-09-08_20h52.59.386,forced_choiceRT,2021.1.2,MacIntel,59.97361161,,,,,,,,7,Ontime,j,0,1.9379,3,1,13,0,1,,,,,
,0.76,,,,,,,,,j.PNG,j,612fab1125ea0a912c3edc62,2021-09-08_20h52.59.386,forced_choiceRT,2021.1.2,MacIntel,59.97361161,,,,,,,,7,Slow,j,1,2.1019,3,2,14,3,1,,,,,
,1.6,,,,,,,,,j.PNG,j,612fab1125ea0a912c3edc62,2021-09-08_20h52.59.386,forced_choiceRT,2021.1.2,MacIntel,59.97361161,,,,,,,,7,Fast,j,1,1.8862,3,3,15,3,1,,,,,
,0.19,,,,,,,,,g.PNG,g,612fab1125ea0a912c3edc62,2021-09-08_20h52.59.386,forced_choiceRT,2021.1.2,MacIntel,59.97361161,,,,,,,,7,Fast,j,0,1.8015,4,0,16,1,1,,,,,
,0.3,,,,,,,,,h.PNG,h,612fab1125ea0a912c3edc62,2021-09-08_20h52.59.386,forced_choiceRT,2021.1.2,MacIntel,59.97361161,,,,,,,,7,Ontime,j,0,2.018,4,1,17,2,1,,,,,
,1.01,,,,,,,,,f.PNG,f,612fab1125ea0a912c3edc62,2021-09-08_20h52.59.386,forced_choiceRT,2021.1.2,MacIntel,59.97361161,,,,,,,,7,Ontime,j,0,2.0193,4,2,18,0,1,,,,,
,1.49,,,,,,,,,g.PNG,g,612fab1125ea0a912c3edc62,2021-09-08_20h52.59.386,forced_choiceRT,2021.1.2,MacIntel,59.97361161,,,,,,,,7,Fast,j,0,1.852,4,3,19,1,1,,,,,
,1.81,,,,,,,,,g.PNG,g,612fab1125ea0a912c3edc62,2021-09-08_20h52.59.386,forced_choiceRT,2021.1.2,MacIntel,59.97361161,,,,,,,,7,Fast,j,0,1.8862,5,0,20,1,1,,,,,
,1.55,,,,,,,,,j.PNG,j,612fab1125ea0a912c3edc62,2021-09-08_20h52.59.386,forced_choiceRT,2021.1.2,MacIntel,59.97361161,,,,,,,,7,Ontime,j,1,1.92,5,1,21,3,1,,,,,
,0.09,,,,,,,,,h.PNG,h,612fab1125ea0a912c3edc62,2021-09-08_20h52.59.386,forced_choiceRT,2021.1.2,MacIntel,59.97361161,,,,,,,,7,Slow,j,0,5.4544,5,2,22,2,1,,,,,
,0.97,,,,,,,,,j.PNG,j,612fab1125ea0a912c3edc62,2021-09-08_20h52.59.386,forced_choiceRT,2021.1.2,MacIntel,59.97361161,,,,,,,,7,Slow,h,0,2.1068,5,3,23,3,1,,,,,
,0.84,,,,,,,,,j.PNG,j,612fab1125ea0a912c3edc62,2021-09-08_20h52.59.386,forced_choiceRT,2021.1.2,MacIntel,59.97361161,,,,,,,,7,Slow,h,0,2.1688,6,0,24,3,1,,,,,
,1.45,,,,,,,,,g.PNG,g,612fab1125ea0a912c3edc62,2021-09-08_20h52.59.386,forced_choiceRT,2021.1.2,MacIntel,59.97361161,,,,,,,,7,Fast,h,0,1.7869,6,1,25,1,1,,,,,
,0.14,,,,,,,,,g.PNG,g,612fab1125ea0a912c3edc62,2021-09-08_20h52.59.386,forced_choiceRT,2021.1.2,MacIntel,59.97361161,,,,,,,,7,Fast,h,0,1.8536,6,2,26,1,1,,,,,
,0.04,,,,,,,,,j.PNG,j,612fab1125ea0a912c3edc62,2021-09-08_20h52.59.386,forced_choiceRT,2021.1.2,MacIntel,59.97361161,,,,,,,,7,Fast,h,0,1.8561,6,3,27,3,1,,,,,
,1.78,,,,,,,,,f.PNG,f,612fab1125ea0a912c3edc62,2021-09-08_20h52.59.386,forced_choiceRT,2021.1.2,MacIntel,59.97361161,,,,,,,,7,Slow,h,0,2.1031,7,0,28,0,1,,,,,
,0.94,,,,,,,,,h.PNG,h,612fab1125ea0a912c3edc62,2021-09-08_20h52.59.386,forced_choiceRT,2021.1.2,MacIntel,59.97361161,,,,,,,,7,Slow,h,1,2.1055,7,1,29,2,1,,,,,
,0.57,,,,,,,,,f.PNG,f,612fab1125ea0a912c3edc62,2021-09-08_20h52.59.386,forced_choiceRT,2021.1.2,MacIntel,59.97361161,,,,,,,,7,Ontime,h,0,1.9527,7,2,30,0,1,,,,,
,1.44,,,,,,,,,h.PNG,h,612fab1125ea0a912c3edc62,2021-09-08_20h52.59.386,forced_choiceRT,2021.1.2,MacIntel,59.97361161,,,,,,,,7,Ontime,h,1,1.9192,7,3,31,2,1,,,,,
,0.3,,,,,,,,,h.PNG,h,612fab1125ea0a912c3edc62,2021-09-08_20h52.59.386,forced_choiceRT,2021.1.2,MacIntel,59.97361161,,,,,,,,7,Ontime,h,1,1.9548,8,0,32,2,1,,,,,
,1.52,,,,,,,,,f.PNG,f,612fab1125ea0a912c3edc62,2021-09-08_20h52.59.386,forced_choiceRT,2021.1.2,MacIntel,59.97361161,,,,,,,,7,Ontime,h,0,1.9859,8,1,33,0,1,,,,,
,0.17,,,,,,,,,h.PNG,h,612fab1125ea0a912c3edc62,2021-09-08_20h52.59.386,forced_choiceRT,2021.1.2,MacIntel,59.97361161,,,,,,,,7,Fast,h,1,1.8728,8,2,34,2,1,,,,,
,1.69,,,,,,,,,g.PNG,g,612fab1125ea0a912c3edc62,2021-09-08_20h52.59.386,forced_choiceRT,2021.1.2,MacIntel,59.97361161,,,,,,,,7,Ontime,h,0,2.0199,8,3,35,1,1,,,,,
,1.08,,,,,,,,,j.PNG,j,612fab1125ea0a912c3edc62,2021-09-08_20h52.59.386,forced_choiceRT,2021.1.2,MacIntel,59.97361161,,,,,,,,7,Ontime,h,0,1.9174,9,0,36,3,1,,,,,
,1.69,,,,,,,,,j.PNG,j,612fab1125ea0a912c3edc62,2021-09-08_20h52.59.386,forced_choiceRT,2021.1.2,MacIntel,59.97361161,,,,,,,,7,Ontime,h,0,2.034,9,1,37,3,1,,,,,
,1.51,,,,,,,,,f.PNG,f,612fab1125ea0a912c3edc62,2021-09-08_20h52.59.386,forced_choiceRT,2021.1.2,MacIntel,59.97361161,,,,,,,,7,Ontime,h,0,2.0861,9,2,38,0,1,,,,,
,1.25,,,,,,,,,f.PNG,f,612fab1125ea0a912c3edc62,2021-09-08_20h52.59.386,forced_choiceRT,2021.1.2,MacIntel,59.97361161,,,,,,,,7,Ontime,h,0,1.9178,9,3,39,0,1,,,,,
,,,,,,,,,,,,612fab1125ea0a912c3edc62,2021-09-08_20h52.59.386,forced_choiceRT,2021.1.2,MacIntel,59.97361161,,,,,,,,,,,,,,,,,,6,0,6,0,1
,1.93,,,,,,,,,j.PNG,j,612fab1125ea0a912c3edc62,2021-09-08_20h52.59.386,forced_choiceRT,2021.1.2,MacIntel,59.97361161,,,,,,,,8,Ontime,f,0,2.0626,0,0,0,3,1,,,,,
,0.2,,,,,,,,,j.PNG,j,612fab1125ea0a912c3edc62,2021-09-08_20h52.59.386,forced_choiceRT,2021.1.2,MacIntel,59.97361161,,,,,,,,8,Ontime,f,0,1.9226,0,1,1,3,1,,,,,
,1.21,,,,,,,,,g.PNG,g,612fab1125ea0a912c3edc62,2021-09-08_20h52.59.386,forced_choiceRT,2021.1.2,MacIntel,59.97361161,,,,,,,,8,Ontime,f,0,1.902,0,2,2,1,1,,,,,
,0.45,,,,,,,,,h.PNG,h,612fab1125ea0a912c3edc62,2021-09-08_20h52.59.386,forced_choiceRT,2021.1.2,MacIntel,59.97361161,,,,,,,,8,Fast,f,0,1.8691,0,3,3,2,1,,,,,
,1.14,,,,,,,,,h.PNG,h,612fab1125ea0a912c3edc62,2021-09-08_20h52.59.386,forced_choiceRT,2021.1.2,MacIntel,59.97361161,,,,,,,,8,Ontime,f,0,2.0855,1,0,4,2,1,,,,,
,1.1,,,,,,,,,h.PNG,h,612fab1125ea0a912c3edc62,2021-09-08_20h52.59.386,forced_choiceRT,2021.1.2,MacIntel,59.97361161,,,,,,,,8,Ontime,f,0,2.0514,1,1,5,2,1,,,,,
,1.14,,,,,,,,,g.PNG,g,612fab1125ea0a912c3edc62,2021-09-08_20h52.59.386,forced_choiceRT,2021.1.2,MacIntel,59.97361161,,,,,,,,8,Ontime,f,0,1.9184,1,2,6,1,1,,,,,
,0.68,,,,,,,,,g.PNG,g,612fab1125ea0a912c3edc62,2021-09-08_20h52.59.386,forced_choiceRT,2021.1.2,MacIntel,59.97361161,,,,,,,,8,Ontime,f,0,2.0187,1,3,7,1,1,,,,,
,1.61,,,,,,,,,f.PNG,f,612fab1125ea0a912c3edc62,2021-09-08_20h52.59.386,forced_choiceRT,2021.1.2,MacIntel,59.97361161,,,,,,,,8,Ontime,f,1,1.9028,2,0,8,0,1,,,,,
,0.13,,,,,,,,,f.PNG,f,612fab1125ea0a912c3edc62,2021-09-08_20h52.59.386,forced_choiceRT,2021.1.2,MacIntel,59.97361161,,,,,,,,8,Slow,f,1,2.1009,2,1,9,0,1,,,,,
,1.05,,,,,,,,,h.PNG,h,612fab1125ea0a912c3edc62,2021-09-08_20h52.59.386,forced_choiceRT,2021.1.2,MacIntel,59.97361161,,,,,,,,8,Fast,f,0,1.8356,2,2,10,2,1,,,,,
,1.3,,,,,,,,,j.PNG,j,612fab1125ea0a912c3edc62,2021-09-08_20h52.59.386,forced_choiceRT,2021.1.2,MacIntel,59.97361161,,,,,,,,8,Ontime,f,0,2.021,2,3,11,3,1,,,,,
,1.49,,,,,,,,,g.PNG,g,612fab1125ea0a912c3edc62,2021-09-08_20h52.59.386,forced_choiceRT,2021.1.2,MacIntel,59.97361161,,,,,,,,8,Ontime,f,0,1.952,3,0,12,1,1,,,,,
,0.61,,,,,,,,,g.PNG,g,612fab1125ea0a912c3edc62,2021-09-08_20h52.59.386,forced_choiceRT,2021.1.2,MacIntel,59.97361161,,,,,,,,8,Ontime,f,0,2.0382,3,1,13,1,1,,,,,
,0.56,,,,,,,,,j.PNG,j,612fab1125ea0a912c3edc62,2021-09-08_20h52.59.386,forced_choiceRT,2021.1.2,MacIntel,59.97361161,,,,,,,,8,Ontime,f,0,1.9369,3,2,14,3,1,,,,,
,0.76,,,,,,,,,j.PNG,j,612fab1125ea0a912c3edc62,2021-09-08_20h52.59.386,forced_choiceRT,2021.1.2,MacIntel,59.97361161,,,,,,,,8,Ontime,f,0,2.0346,3,3,15,3,1,,,,,
,0.33,,,,,,,,,j.PNG,j,612fab1125ea0a912c3edc62,2021-09-08_20h52.59.386,forced_choiceRT,2021.1.2,MacIntel,59.97361161,,,,,,,,8,Ontime,f,0,1.9862,4,0,16,3,1,,,,,
,1.66,,,,,,,,,j.PNG,j,612fab1125ea0a912c3edc62,2021-09-08_20h52.59.386,forced_choiceRT,2021.1.2,MacIntel,59.97361161,,,,,,,,8,Ontime,f,0,2.0248,4,1,17,3,1,,,,,
,0.1,,,,,,,,,f.PNG,f,612fab1125ea0a912c3edc62,2021-09-08_20h52.59.386,forced_choiceRT,2021.1.2,MacIntel,59.97361161,,,,,,,,8,Fast,f,1,1.8032,4,2,18,0,1,,,,,
,0.88,,,,,,,,,f.PNG,f,612fab1125ea0a912c3edc62,2021-09-08_20h52.59.386,forced_choiceRT,2021.1.2,MacIntel,59.97361161,,,,,,,,8,Ontime,f,1,1.9687,4,3,19,0,1,,,,,
,0.05,,,,,,,,,h.PNG,h,612fab1125ea0a912c3edc62,2021-09-08_20h52.59.386,forced_choiceRT,2021.1.2,MacIntel,59.97361161,,,,,,,,8,Slow,f,0,2.1189,5,0,20,2,1,,,,,
,0.23,,,,,,,,,f.PNG,f,612fab1125ea0a912c3edc62,2021-09-08_20h52.59.386,forced_choiceRT,2021.1.2,MacIntel,59.97361161,,,,,,,,8,Fast,f,1,1.8356,5,1,21,0,1,,,,,
,1.5,,,,,,,,,j.PNG,j,612fab1125ea0a912c3edc62,2021-09-08_20h52.59.386,forced_choiceRT,2021.1.2,MacIntel,59.97361161,,,,,,,,8,Fast,f,0,1.8517,5,2,22,3,1,,,,,
,1.43,,,,,,,,,f.PNG,f,612fab1125ea0a912c3edc62,2021-09-08_20h52.59.386,forced_choiceRT,2021.1.2,MacIntel,59.97361161,,,,,,,,8,Fast,f,1,1.7846,5,3,23,0,1,,,,,
,1.56,,,,,,,,,h.PNG,h,612fab1125ea0a912c3edc62,2021-09-08_20h52.59.386,forced_choiceRT,2021.1.2,MacIntel,59.97361161,,,,,,,,8,Ontime,f,0,2.0708,6,0,24,2,1,,,,,
,1.18,,,,,,,,,h.PNG,h,612fab1125ea0a912c3edc62,2021-09-08_20h52.59.386,forced_choiceRT,2021.1.2,MacIntel,59.97361161,,,,,,,,8,Slow,f,0,2.1035,6,1,25,2,1,,,,,
,0.43,,,,,,,,,j.PNG,j,612fab1125ea0a912c3edc62,2021-09-08_20h52.59.386,forced_choiceRT,2021.1.2,MacIntel,59.97361161,,,,,,,,8,Slow,f,0,2.1007,6,2,26,3,1,,,,,
,0.55,,,,,,,,,g.PNG,g,612fab1125ea0a912c3edc62,2021-09-08_20h52.59.386,forced_choiceRT,2021.1.2,MacIntel,59.97361161,,,,,,,,8,Slow,f,0,2.1845,6,3,27,1,1,,,,,
,0.38,,,,,,,,,j.PNG,j,612fab1125ea0a912c3edc62,2021-09-08_20h52.59.386,forced_choiceRT,2021.1.2,MacIntel,59.97361161,,,,,,,,8,Slow,f,0,2.1538,7,0,28,3,1,,,,,
,1.7,,,,,,,,,f.PNG,f,612fab1125ea0a912c3edc62,2021-09-08_20h52.59.386,forced_choiceRT,2021.1.2,MacIntel,59.97361161,,,,,,,,8,Slow,f,1,2.1707,7,1,29,0,1,,,,,
,1.75,,,,,,,,,g.PNG,g,612fab1125ea0a912c3edc62,2021-09-08_20h52.59.386,forced_choiceRT,2021.1.2,MacIntel,59.97361161,,,,,,,,8,Ontime,f,0,2.0702,7,2,30,1,1,,,,,
,1.34,,,,,,,,,g.PNG,g,612fab1125ea0a912c3edc62,2021-09-08_20h52.59.386,forced_choiceRT,2021.1.2,MacIntel,59.97361161,,,,,,,,8,Ontime,g,1,2.041,7,3,31,1,1,,,,,
,0.79,,,,,,,,,h.PNG,h,612fab1125ea0a912c3edc62,2021-09-08_20h52.59.386,forced_choiceRT,2021.1.2,MacIntel,59.97361161,,,,,,,,8,Ontime,g,0,2.0848,8,0,32,2,1,,,,,
,0.77,,,,,,,,,h.PNG,h,612fab1125ea0a912c3edc62,2021-09-08_20h52.59.386,forced_choiceRT,2021.1.2,MacIntel,59.97361161,,,,,,,,8,Fast,g,0,1.7708,8,1,33,2,1,,,,,
,1.23,,,,,,,,,g.PNG,g,612fab1125ea0a912c3edc62,2021-09-08_20h52.59.386,forced_choiceRT,2021.1.2,MacIntel,59.97361161,,,,,,,,8,Ontime,g,1,1.9681,8,2,34,1,1,,,,,
,0.21,,,,,,,,,g.PNG,g,612fab1125ea0a912c3edc62,2021-09-08_20h52.59.386,forced_choiceRT,2021.1.2,MacIntel,59.97361161,,,,,,,,8,Ontime,f,0,1.9848,8,3,35,1,1,,,,,
,1.53,,,,,,,,,f.PNG,f,612fab1125ea0a912c3edc62,2021-09-08_20h52.59.386,forced_choiceRT,2021.1.2,MacIntel,59.97361161,,,,,,,,8,Ontime,f,1,1.9356,9,0,36,0,1,,,,,
,1.59,,,,,,,,,h.PNG,h,612fab1125ea0a912c3edc62,2021-09-08_20h52.59.386,forced_choiceRT,2021.1.2,MacIntel,59.97361161,,,,,,,,8,Slow,f,0,2.1359,9,1,37,2,1,,,,,
,0.98,,,,,,,,,f.PNG,f,612fab1125ea0a912c3edc62,2021-09-08_20h52.59.386,forced_choiceRT,2021.1.2,MacIntel,59.97361161,,,,,,,,8,Ontime,f,1,1.9845,9,2,38,0,1,,,,,
,1.23,,,,,,,,,f.PNG,f,612fab1125ea0a912c3edc62,2021-09-08_20h52.59.386,forced_choiceRT,2021.1.2,MacIntel,59.97361161,,,,,,,,8,Ontime,f,1,2.0376,9,3,39,0,1,,,,,
,,,,,,,,,,,,612fab1125ea0a912c3edc62,2021-09-08_20h52.59.386,forced_choiceRT,2021.1.2,MacIntel,59.97361161,,,,,,,,,,,,,,,,,,7,0,7,0,1
,0.47,,,,,,,,,j.PNG,j,612fab1125ea0a912c3edc62,2021-09-08_20h52.59.386,forced_choiceRT,2021.1.2,MacIntel,59.97361161,,,,,,,,9,Ontime,f,0,1.9331,0,0,0,3,1,,,,,
,1.01,,,,,,,,,g.PNG,g,612fab1125ea0a912c3edc62,2021-09-08_20h52.59.386,forced_choiceRT,2021.1.2,MacIntel,59.97361161,,,,,,,,9,Ontime,f,0,1.9188,0,1,1,1,1,,,,,
,1.73,,,,,,,,,j.PNG,j,612fab1125ea0a912c3edc62,2021-09-08_20h52.59.386,forced_choiceRT,2021.1.2,MacIntel,59.97361161,,,,,,,,9,Fast,f,0,1.4704,0,2,2,3,1,,,,,
,1.41,,,,,,,,,g.PNG,g,612fab1125ea0a912c3edc62,2021-09-08_20h52.59.386,forced_choiceRT,2021.1.2,MacIntel,59.97361161,,,,,,,,9,Fast,f,0,1.7551,0,3,3,1,1,,,,,
,1.21,,,,,,,,,f.PNG,f,612fab1125ea0a912c3edc62,2021-09-08_20h52.59.386,forced_choiceRT,2021.1.2,MacIntel,59.97361161,,,,,,,,9,Fast,f,1,1.8685,1,0,4,0,1,,,,,
,0.61,,,,,,,,,h.PNG,h,612fab1125ea0a912c3edc62,2021-09-08_20h52.59.386,forced_choiceRT,2021.1.2,MacIntel,59.97361161,,,,,,,,9,Ontime,f,0,1.9737,1,1,5,2,1,,,,,
,0.38,,,,,,,,,j.PNG,j,612fab1125ea0a912c3edc62,2021-09-08_20h52.59.386,forced_choiceRT,2021.1.2,MacIntel,59.97361161,,,,,,,,9,Ontime,f,0,2.0016,1,2,6,3,1,,,,,
,1.06,,,,,,,,,j.PNG,j,612fab1125ea0a912c3edc62,2021-09-08_20h52.59.386,forced_choiceRT,2021.1.2,MacIntel,59.97361161,,,,,,,,9,Fast,f,0,1.885,1,3,7,3,1,,,,,
,1.22,,,,,,,,,h.PNG,h,612fab1125ea0a912c3edc62,2021-09-08_20h52.59.386,forced_choiceRT,2021.1.2,MacIntel,59.97361161,,,,,,,,9,Ontime,f,0,2.0035,2,0,8,2,1,,,,,
,0.94,,,,,,,,,f.PNG,f,612fab1125ea0a912c3edc62,2021-09-08_20h52.59.386,forced_choiceRT,2021.1.2,MacIntel,59.97361161,,,,,,,,9,Ontime,f,1,1.9009,2,1,9,0,1,,,,,
,0.16,,,,,,,,,g.PNG,g,612fab1125ea0a912c3edc62,2021-09-08_20h52.59.386,forced_choiceRT,2021.1.2,MacIntel,59.97361161,,,,,,,,9,Slow,f,0,2.2862,2,2,10,1,1,,,,,
,0.22,,,,,,,,,h.PNG,h,612fab1125ea0a912c3edc62,2021-09-08_20h52.59.386,forced_choiceRT,2021.1.2,MacIntel,59.97361161,,,,,,,,9,Ontime,f,0,2.0028,2,3,11,2,1,,,,,
,1.74,,,,,,,,,g.PNG,g,612fab1125ea0a912c3edc62,2021-09-08_20h52.59.386,forced_choiceRT,2021.1.2,MacIntel,59.97361161,,,,,,,,9,Fast,f,0,1.8365,3,0,12,1,1,,,,,
,0.7,,,,,,,,,j.PNG,j,612fab1125ea0a912c3edc62,2021-09-08_20h52.59.386,forced_choiceRT,2021.1.2,MacIntel,59.97361161,,,,,,,,9,Ontime,f,0,1.9747,3,1,13,3,1,,,,,
,1.48,,,,,,,,,j.PNG,j,612fab1125ea0a912c3edc62,2021-09-08_20h52.59.386,forced_choiceRT,2021.1.2,MacIntel,59.97361161,,,,,,,,9,Ontime,f,0,2.052,3,2,14,3,1,,,,,
,1.27,,,,,,,,,j.PNG,j,612fab1125ea0a912c3edc62,2021-09-08_20h52.59.386,forced_choiceRT,2021.1.2,MacIntel,59.97361161,,,,,,,,9,Slow,f,0,2.1361,3,3,15,3,1,,,,,
,1.42,,,,,,,,,g.PNG,g,612fab1125ea0a912c3edc62,2021-09-08_20h52.59.386,forced_choiceRT,2021.1.2,MacIntel,59.97361161,,,,,,,,9,Ontime,f,0,2.0875,4,0,16,1,1,,,,,
,1.49,,,,,,,,,g.PNG,g,612fab1125ea0a912c3edc62,2021-09-08_20h52.59.386,forced_choiceRT,2021.1.2,MacIntel,59.97361161,,,,,,,,9,Slow,f,0,2.1515,4,1,17,1,1,,,,,
,1.79,,,,,,,,,j.PNG,j,612fab1125ea0a912c3edc62,2021-09-08_20h52.59.386,forced_choiceRT,2021.1.2,MacIntel,59.97361161,,,,,,,,9,Ontime,f,0,1.9706,4,2,18,3,1,,,,,
,0.61,,,,,,,,,h.PNG,h,612fab1125ea0a912c3edc62,2021-09-08_20h52.59.386,forced_choiceRT,2021.1.2,MacIntel,59.97361161,,,,,,,,9,Ontime,f,0,2.035,4,3,19,2,1,,,,,
,0.27,,,,,,,,,f.PNG,f,612fab1125ea0a912c3edc62,2021-09-08_20h52.59.386,forced_choiceRT,2021.1.2,MacIntel,59.97361161,,,,,,,,9,Fast,f,1,1.8879,5,0,20,0,1,,,,,
,0.24,,,,,,,,,h.PNG,h,612fab1125ea0a912c3edc62,2021-09-08_20h52.59.386,forced_choiceRT,2021.1.2,MacIntel,59.97361161,,,,,,,,9,Ontime,f,0,1.986,5,1,21,2,1,,,,,
,1.58,,,,,,,,,f.PNG,f,612fab1125ea0a912c3edc62,2021-09-08_20h52.59.386,forced_choiceRT,2021.1.2,MacIntel,59.97361161,,,,,,,,9,Ontime,f,1,2.0186,5,2,22,0,1,,,,,
,1.96,,,,,,,,,h.PNG,h,612fab1125ea0a912c3edc62,2021-09-08_20h52.59.386,forced_choiceRT,2021.1.2,MacIntel,59.97361161,,,,,,,,9,Ontime,f,0,2.034,5,3,23,2,1,,,,,
,0.5,,,,,,,,,g.PNG,g,612fab1125ea0a912c3edc62,2021-09-08_20h52.59.386,forced_choiceRT,2021.1.2,MacIntel,59.97361161,,,,,,,,9,Ontime,f,0,2.0188,6,0,24,1,1,,,,,
,0.23,,,,,,,,,f.PNG,f,612fab1125ea0a912c3edc62,2021-09-08_20h52.59.386,forced_choiceRT,2021.1.2,MacIntel,59.97361161,,,,,,,,9,Fast,f,1,1.8516,6,1,25,0,1,,,,,
,0.53,,,,,,,,,f.PNG,f,612fab1125ea0a912c3edc62,2021-09-08_20h52.59.386,forced_choiceRT,2021.1.2,MacIntel,59.97361161,,,,,,,,9,Ontime,f,1,1.9379,6,2,26,0,1,,,,,
,1.31,,,,,,,,,f.PNG,f,612fab1125ea0a912c3edc62,2021-09-08_20h52.59.386,forced_choiceRT,2021.1.2,MacIntel,59.97361161,,,,,,,,9,Ontime,f,1,1.9016,6,3,27,0,1,,,,,
,1.95,,,,,,,,,g.PNG,g,612fab1125ea0a912c3edc62,2021-09-08_20h52.59.386,forced_choiceRT,2021.1.2,MacIntel,59.97361161,,,,,,,,9,Ontime,f,0,1.969,7,0,28,1,1,,,,,
,1.35,,,,,,,,,j.PNG,j,612fab1125ea0a912c3edc62,2021-09-08_20h52.59.386,forced_choiceRT,2021.1.2,MacIntel,59.97361161,,,,,,,,9,Ontime,f,0,2.0344,7,1,29,3,1,,,,,
,0.71,,,,,,,,,g.PNG,g,612fab1125ea0a912c3edc62,2021-09-08_20h52.59.386,forced_choiceRT,2021.1.2,MacIntel,59.97361161,,,,,,,,9,Fast,f,0,1.871,7,2,30,1,1,,,,,
,0.89,,,,,,,,,h.PNG,h,612fab1125ea0a912c3edc62,2021-09-08_20h52.59.386,forced_choiceRT,2021.1.2,MacIntel,59.97361161,,,,,,,,9,Ontime,f,0,1.9026,7,3,31,2,1,,,,,
,0.77,,,,,,,,,h.PNG,h,612fab1125ea0a912c3edc62,2021-09-08_20h52.59.386,forced_choiceRT,2021.1.2,MacIntel,59.97361161,,,,,,,,9,Fast,f,0,1.8715,8,0,32,2,1,,,,,
,0.51,,,,,,,,,j.PNG,j,612fab1125ea0a912c3edc62,2021-09-08_20h52.59.386,forced_choiceRT,2021.1.2,MacIntel,59.97361161,,,,,,,,9,Ontime,f,0,1.9681,8,1,33,3,1,,,,,
,1.82,,,,,,,,,h.PNG,h,612fab1125ea0a912c3edc62,2021-09-08_20h52.59.386,forced_choiceRT,2021.1.2,MacIntel,59.97361161,,,,,,,,9,Ontime,f,0,2.0698,8,2,34,2,1,,,,,
,0.52,,,,,,,,,h.PNG,h,612fab1125ea0a912c3edc62,2021-09-08_20h52.59.386,forced_choiceRT,2021.1.2,MacIntel,59.97361161,,,,,,,,9,Ontime,f,0,1.9863,8,3,35,2,1,,,,,
,1.1,,,,,,,,,f.PNG,f,612fab1125ea0a912c3edc62,2021-09-08_20h52.59.386,forced_choiceRT,2021.1.2,MacIntel,59.97361161,,,,,,,,9,Ontime,f,1,1.9516,9,0,36,0,1,,,,,
,1.29,,,,,,,,,f.PNG,f,612fab1125ea0a912c3edc62,2021-09-08_20h52.59.386,forced_choiceRT,2021.1.2,MacIntel,59.97361161,,,,,,,,9,Slow,f,1,2.3186,9,1,37,0,1,,,,,
,1.66,,,,,,,,,f.PNG,f,612fab1125ea0a912c3edc62,2021-09-08_20h52.59.386,forced_choiceRT,2021.1.2,MacIntel,59.97361161,,,,,,,,9,Ontime,f,1,1.9183,9,2,38,0,1,,,,,
,0.84,,,,,,,,,g.PNG,g,612fab1125ea0a912c3edc62,2021-09-08_20h52.59.386,forced_choiceRT,2021.1.2,MacIntel,59.97361161,,,,,,,,9,Ontime,f,0,2.0687,9,3,39,1,1,,,,,
,,,,,,,,,,,,612fab1125ea0a912c3edc62,2021-09-08_20h52.59.386,forced_choiceRT,2021.1.2,MacIntel,59.97361161,,,,,,,,,,,,,,,,,,8,0,8,0,1
,1.42,,,,,,,,,j.PNG,j,612fab1125ea0a912c3edc62,2021-09-08_20h52.59.386,forced_choiceRT,2021.1.2,MacIntel,59.97361161,,,,,,,,10,Ontime,f,0,2.0019,0,0,0,3,1,,,,,
,1.68,,,,,,,,,g.PNG,g,612fab1125ea0a912c3edc62,2021-09-08_20h52.59.386,forced_choiceRT,2021.1.2,MacIntel,59.97361161,,,,,,,,10,Ontime,f,0,2.0678,0,1,1,1,1,,,,,
,0.07,,,,,,,,,h.PNG,h,612fab1125ea0a912c3edc62,2021-09-08_20h52.59.386,forced_choiceRT,2021.1.2,MacIntel,59.97361161,,,,,,,,10,Ontime,f,0,2.0881,0,2,2,2,1,,,,,
,0.96,,,,,,,,,f.PNG,f,612fab1125ea0a912c3edc62,2021-09-08_20h52.59.386,forced_choiceRT,2021.1.2,MacIntel,59.97361161,,,,,,,,10,Ontime,f,1,1.9862,0,3,3,0,1,,,,,
,1.31,,,,,,,,,h.PNG,h,612fab1125ea0a912c3edc62,2021-09-08_20h52.59.386,forced_choiceRT,2021.1.2,MacIntel,59.97361161,,,,,,,,10,Fast,f,0,1.8358,1,0,4,2,1,,,,,
,0.39,,,,,,,,,j.PNG,j,612fab1125ea0a912c3edc62,2021-09-08_20h52.59.386,forced_choiceRT,2021.1.2,MacIntel,59.97361161,,,,,,,,10,Fast,f,0,1.8178,1,1,5,3,1,,,,,
,1.72,,,,,,,,,j.PNG,j,612fab1125ea0a912c3edc62,2021-09-08_20h52.59.386,forced_choiceRT,2021.1.2,MacIntel,59.97361161,,,,,,,,10,Ontime,f,0,1.9201,1,2,6,3,1,,,,,
,0.11,,,,,,,,,j.PNG,j,612fab1125ea0a912c3edc62,2021-09-08_20h52.59.386,forced_choiceRT,2021.1.2,MacIntel,59.97361161,,,,,,,,10,Fast,f,0,1.8675,1,3,7,3,1,,,,,
,1.34,,,,,,,,,g.PNG,g,612fab1125ea0a912c3edc62,2021-09-08_20h52.59.386,forced_choiceRT,2021.1.2,MacIntel,59.97361161,,,,,,,,10,Ontime,f,0,1.9672,2,0,8,1,1,,,,,
,0.51,,,,,,,,,j.PNG,j,612fab1125ea0a912c3edc62,2021-09-08_20h52.59.386,forced_choiceRT,2021.1.2,MacIntel,59.97361161,,,,,,,,10,Ontime,f,0,1.9846,2,1,9,3,1,,,,,
,1.93,,,,,,,,,h.PNG,h,612fab1125ea0a912c3edc62,2021-09-08_20h52.59.386,forced_choiceRT,2021.1.2,MacIntel,59.97361161,,,,,,,,10,Fast,f,0,1.7859,2,2,10,2,1,,,,,
,1.73,,,,,,,,,j.PNG,j,612fab1125ea0a912c3edc62,2021-09-08_20h52.59.386,forced_choiceRT,2021.1.2,MacIntel,59.97361161,,,,,,,,10,Ontime,f,0,1.9345,2,3,11,3,1,,,,,
,1.02,,,,,,,,,j.PNG,j,612fab1125ea0a912c3edc62,2021-09-08_20h52.59.386,forced_choiceRT,2021.1.2,MacIntel,59.97361161,,,,,,,,10,Fast,f,0,1.8344,3,0,12,3,1,,,,,
,1.51,,,,,,,,,g.PNG,g,612fab1125ea0a912c3edc62,2021-09-08_20h52.59.386,forced_choiceRT,2021.1.2,MacIntel,59.97361161,,,,,,,,10,Slow,f,0,2.3377,3,1,13,1,1,,,,,
,1.62,,,,,,,,,f.PNG,f,612fab1125ea0a912c3edc62,2021-09-08_20h52.59.386,forced_choiceRT,2021.1.2,MacIntel,59.97361161,,,,,,,,10,Fast,f,1,1.8015,3,2,14,0,1,,,,,
,1.96,,,,,,,,,h.PNG,h,612fab1125ea0a912c3edc62,2021-09-08_20h52.59.386,forced_choiceRT,2021.1.2,MacIntel,59.97361161,,,,,,,,10,Ontime,f,0,1.9016,3,3,15,2,1,,,,,
,0.37,,,,,,,,,f.PNG,f,612fab1125ea0a912c3edc62,2021-09-08_20h52.59.386,forced_choiceRT,2021.1.2,MacIntel,59.97361161,,,,,,,,10,Ontime,f,1,1.9847,4,0,16,0,1,,,,,
,1.28,,,,,,,,,g.PNG,g,612fab1125ea0a912c3edc62,2021-09-08_20h52.59.386,forced_choiceRT,2021.1.2,MacIntel,59.97361161,,,,,,,,10,Slow,f,0,2.3681,4,1,17,1,1,,,,,
,1.01,,,,,,,,,f.PNG,f,612fab1125ea0a912c3edc62,2021-09-08_20h52.59.386,forced_choiceRT,2021.1.2,MacIntel,59.97361161,,,,,,,,10,Ontime,f,1,2.0867,4,2,18,0,1,,,,,
,0.89,,,,,,,,,g.PNG,g,612fab1125ea0a912c3edc62,2021-09-08_20h52.59.386,forced_choiceRT,2021.1.2,MacIntel,59.97361161,,,,,,,,10,Ontime,f,0,1.9686,4,3,19,1,1,,,,,
,0.75,,,,,,,,,h.PNG,h,612fab1125ea0a912c3edc62,2021-09-08_20h52.59.386,forced_choiceRT,2021.1.2,MacIntel,59.97361161,,,,,,,,10,Ontime,f,0,1.952,5,0,20,2,1,,,,,
,0.8,,,,,,,,,j.PNG,j,612fab1125ea0a912c3edc62,2021-09-08_20h52.59.386,forced_choiceRT,2021.1.2,MacIntel,59.97361161,,,,,,,,10,Ontime,f,0,1.924,5,1,21,3,1,,,,,
,1.27,,,,,,,,,h.PNG,h,612fab1125ea0a912c3edc62,2021-09-08_20h52.59.386,forced_choiceRT,2021.1.2,MacIntel,59.97361161,,,,,,,,10,Fast,f,0,1.7034,5,2,22,2,1,,,,,
,1.96,,,,,,,,,g.PNG,g,612fab1125ea0a912c3edc62,2021-09-08_20h52.59.386,forced_choiceRT,2021.1.2,MacIntel,59.97361161,,,,,,,,10,Fast,f,0,1.8707,5,3,23,1,1,,,,,
,1.03,,,,,,,,,g.PNG,g,612fab1125ea0a912c3edc62,2021-09-08_20h52.59.386,forced_choiceRT,2021.1.2,MacIntel,59.97361161,,,,,,,,10,Ontime,f,0,1.9193,6,0,24,1,1,,,,,
,1.6,,,,,,,,,h.PNG,h,612fab1125ea0a912c3edc62,2021-09-08_20h52.59.386,forced_choiceRT,2021.1.2,MacIntel,59.97361161,,,,,,,,10,Slow,f,0,2.3351,6,1,25,2,1,,,,,
,1.9,,,,,,,,,f.PNG,f,612fab1125ea0a912c3edc62,2021-09-08_20h52.59.386,forced_choiceRT,2021.1.2,MacIntel,59.97361161,,,,,,,,10,Slow,f,1,2.5012,6,2,26,0,1,,,,,
,0.5,,,,,,,,,f.PNG,f,612fab1125ea0a912c3edc62,2021-09-08_20h52.59.386,forced_choiceRT,2021.1.2,MacIntel,59.97361161,,,,,,,,10,Ontime,f,1,2.0203,6,3,27,0,1,,,,,
,1.71,,,,,,,,,j.PNG,j,612fab1125ea0a912c3edc62,2021-09-08_20h52.59.386,forced_choiceRT,2021.1.2,MacIntel,59.97361161,,,,,,,,10,Ontime,f,0,2.057,7,0,28,3,1,,,,,
,0.22,,,,,,,,,g.PNG,g,612fab1125ea0a912c3edc62,2021-09-08_20h52.59.386,forced_choiceRT,2021.1.2,MacIntel,59.97361161,,,,,,,,10,Ontime,f,0,1.9513,7,1,29,1,1,,,,,
,0.27,,,,,,,,,g.PNG,g,612fab1125ea0a912c3edc62,2021-09-08_20h52.59.386,forced_choiceRT,2021.1.2,MacIntel,59.97361161,,,,,,,,10,Ontime,f,0,1.9847,7,2,30,1,1,,,,,
,0.21,,,,,,,,,h.PNG,h,612fab1125ea0a912c3edc62,2021-09-08_20h52.59.386,forced_choiceRT,2021.1.2,MacIntel,59.97361161,,,,,,,,10,Ontime,f,0,1.9855,7,3,31,2,1,,,,,
,1.29,,,,,,,,,h.PNG,h,612fab1125ea0a912c3edc62,2021-09-08_20h52.59.386,forced_choiceRT,2021.1.2,MacIntel,59.97361161,,,,,,,,10,Slow,f,0,2.8882,8,0,32,2,1,,,,,
,1.54,,,,,,,,,g.PNG,g,612fab1125ea0a912c3edc62,2021-09-08_20h52.59.386,forced_choiceRT,2021.1.2,MacIntel,59.97361161,,,,,,,,10,Ontime,f,0,1.9013,8,1,33,1,1,,,,,
,1.6,,,,,,,,,f.PNG,f,612fab1125ea0a912c3edc62,2021-09-08_20h52.59.386,forced_choiceRT,2021.1.2,MacIntel,59.97361161,,,,,,,,10,Ontime,f,1,1.9516,8,2,34,0,1,,,,,
,1.85,,,,,,,,,f.PNG,f,612fab1125ea0a912c3edc62,2021-09-08_20h52.59.386,forced_choiceRT,2021.1.2,MacIntel,59.97361161,,,,,,,,10,Ontime,f,1,2.0386,8,3,35,0,1,,,,,
,0.68,,,,,,,,,h.PNG,h,612fab1125ea0a912c3edc62,2021-09-08_20h52.59.386,forced_choiceRT,2021.1.2,MacIntel,59.97361161,,,,,,,,10,Slow,f,0,2.1046,9,0,36,2,1,,,,,
,0.57,,,,,,,,,f.PNG,f,612fab1125ea0a912c3edc62,2021-09-08_20h52.59.386,forced_choiceRT,2021.1.2,MacIntel,59.97361161,,,,,,,,10,Ontime,f,1,1.9534,9,1,37,0,1,,,,,
,1.42,,,,,,,,,f.PNG,f,612fab1125ea0a912c3edc62,2021-09-08_20h52.59.386,forced_choiceRT,2021.1.2,MacIntel,59.97361161,,,,,,,,10,Slow,f,1,2.502,9,2,38,0,1,,,,,
,0.77,,,,,,,,,j.PNG,j,612fab1125ea0a912c3edc62,2021-09-08_20h52.59.386,forced_choiceRT,2021.1.2,MacIntel,59.97361161,,,,,,,,10,Ontime,f,0,2.0525,9,3,39,3,1,,,,,
,,,,,,,,,,,,612fab1125ea0a912c3edc62,2021-09-08_20h52.59.386,forced_choiceRT,2021.1.2,MacIntel,59.97361161,,,,,,,,,,,,,,,,,,9,0,9,0,1
