IP_Addresss,target_onset,trial_resp_sp.keys,trial_resp_sp.corr,trial_resp_sp.rt,trials_train_loop.thisRepN,trials_train_loop.thisTrialN,trials_train_loop.thisN,trials_train_loop.thisIndex,trials_train_loop.ran,pic,correct_key,participant,date,expName,psychopyVersion,OS,frameRate,trial_resp_timing.keys,trial_resp_timing.rt,trials_train_timing.thisRepN,trials_train_timing.thisTrialN,trials_train_timing.thisN,trials_train_timing.thisIndex,trials_train_timing.ran,block_id,ontime,forcedRT_resp.keys,forcedRT_resp.corr,forcedRT_resp.rt,trials.thisRepN,trials.thisTrialN,trials.thisN,trials.thisIndex,trials.ran,blocks.thisRepN,blocks.thisTrialN,blocks.thisN,blocks.thisIndex,blocks.ran
74.66.216.184,0,f,1,3.3728,0,0,0,0,1,f.PNG,f,573dacc5b3a71f00146e7d88,2021-10-19_12h53.18.170,forced_choiceRT,2021.1.2,Linux x86_64,60.0348202,,,,,,,,,,,,,,,,,,,,,,
,0,h,1,2.7099,0,1,1,2,1,h.PNG,h,573dacc5b3a71f00146e7d88,2021-10-19_12h53.18.170,forced_choiceRT,2021.1.2,Linux x86_64,60.0348202,,,,,,,,,,,,,,,,,,,,,,
,0,j,1,1.0948,0,2,2,3,1,j.PNG,j,573dacc5b3a71f00146e7d88,2021-10-19_12h53.18.170,forced_choiceRT,2021.1.2,Linux x86_64,60.0348202,,,,,,,,,,,,,,,,,,,,,,
,0,h,1,1.0922,0,3,3,2,1,h.PNG,h,573dacc5b3a71f00146e7d88,2021-10-19_12h53.18.170,forced_choiceRT,2021.1.2,Linux x86_64,60.0348202,,,,,,,,,,,,,,,,,,,,,,
,0,g,1,1.2294,1,0,4,1,1,g.PNG,g,573dacc5b3a71f00146e7d88,2021-10-19_12h53.18.170,forced_choiceRT,2021.1.2,Linux x86_64,60.0348202,,,,,,,,,,,,,,,,,,,,,,
,0,f,1,0.7963,1,1,5,0,1,f.PNG,f,573dacc5b3a71f00146e7d88,2021-10-19_12h53.18.170,forced_choiceRT,2021.1.2,Linux x86_64,60.0348202,,,,,,,,,,,,,,,,,,,,,,
,0,f,1,1.3536,1,2,6,0,1,f.PNG,f,573dacc5b3a71f00146e7d88,2021-10-19_12h53.18.170,forced_choiceRT,2021.1.2,Linux x86_64,60.0348202,,,,,,,,,,,,,,,,,,,,,,
,0,j,1,1.1266,1,3,7,3,1,j.PNG,j,573dacc5b3a71f00146e7d88,2021-10-19_12h53.18.170,forced_choiceRT,2021.1.2,Linux x86_64,60.0348202,,,,,,,,,,,,,,,,,,,,,,
,0,g,1,1.249,2,0,8,1,1,g.PNG,g,573dacc5b3a71f00146e7d88,2021-10-19_12h53.18.170,forced_choiceRT,2021.1.2,Linux x86_64,60.0348202,,,,,,,,,,,,,,,,,,,,,,
,0,g,1,0.8561,2,1,9,1,1,g.PNG,g,573dacc5b3a71f00146e7d88,2021-10-19_12h53.18.170,forced_choiceRT,2021.1.2,Linux x86_64,60.0348202,,,,,,,,,,,,,,,,,,,,,,
,0,h,1,1.616,2,2,10,2,1,h.PNG,h,573dacc5b3a71f00146e7d88,2021-10-19_12h53.18.170,forced_choiceRT,2021.1.2,Linux x86_64,60.0348202,,,,,,,,,,,,,,,,,,,,,,
,0,h,1,0.5478,2,3,11,2,1,h.PNG,h,573dacc5b3a71f00146e7d88,2021-10-19_12h53.18.170,forced_choiceRT,2021.1.2,Linux x86_64,60.0348202,,,,,,,,,,,,,,,,,,,,,,
,0,j,1,0.7959,3,0,12,3,1,j.PNG,j,573dacc5b3a71f00146e7d88,2021-10-19_12h53.18.170,forced_choiceRT,2021.1.2,Linux x86_64,60.0348202,,,,,,,,,,,,,,,,,,,,,,
,0,h,1,0.9871,3,1,13,2,1,h.PNG,h,573dacc5b3a71f00146e7d88,2021-10-19_12h53.18.170,forced_choiceRT,2021.1.2,Linux x86_64,60.0348202,,,,,,,,,,,,,,,,,,,,,,
,0,f,1,0.8021,3,2,14,0,1,f.PNG,f,573dacc5b3a71f00146e7d88,2021-10-19_12h53.18.170,forced_choiceRT,2021.1.2,Linux x86_64,60.0348202,,,,,,,,,,,,,,,,,,,,,,
,0,g,1,0.9671,3,3,15,1,1,g.PNG,g,573dacc5b3a71f00146e7d88,2021-10-19_12h53.18.170,forced_choiceRT,2021.1.2,Linux x86_64,60.0348202,,,,,,,,,,,,,,,,,,,,,,
,0,g,1,0.6847,4,0,16,1,1,g.PNG,g,573dacc5b3a71f00146e7d88,2021-10-19_12h53.18.170,forced_choiceRT,2021.1.2,Linux x86_64,60.0348202,,,,,,,,,,,,,,,,,,,,,,
,0,j,1,0.9963,4,1,17,3,1,j.PNG,j,573dacc5b3a71f00146e7d88,2021-10-19_12h53.18.170,forced_choiceRT,2021.1.2,Linux x86_64,60.0348202,,,,,,,,,,,,,,,,,,,,,,
,0,j,1,0.6842,4,2,18,3,1,j.PNG,j,573dacc5b3a71f00146e7d88,2021-10-19_12h53.18.170,forced_choiceRT,2021.1.2,Linux x86_64,60.0348202,,,,,,,,,,,,,,,,,,,,,,
,0,g,1,1.612,4,3,19,1,1,g.PNG,g,573dacc5b3a71f00146e7d88,2021-10-19_12h53.18.170,forced_choiceRT,2021.1.2,Linux x86_64,60.0348202,,,,,,,,,,,,,,,,,,,,,,
,0,h,1,0.8796,5,0,20,2,1,h.PNG,h,573dacc5b3a71f00146e7d88,2021-10-19_12h53.18.170,forced_choiceRT,2021.1.2,Linux x86_64,60.0348202,,,,,,,,,,,,,,,,,,,,,,
,0,h,0,0.4517,5,1,21,3,1,j.PNG,j,573dacc5b3a71f00146e7d88,2021-10-19_12h53.18.170,forced_choiceRT,2021.1.2,Linux x86_64,60.0348202,,,,,,,,,,,,,,,,,,,,,,
,0,f,1,0.9676,5,2,22,0,1,f.PNG,f,573dacc5b3a71f00146e7d88,2021-10-19_12h53.18.170,forced_choiceRT,2021.1.2,Linux x86_64,60.0348202,,,,,,,,,,,,,,,,,,,,,,
,0,f,1,0.6346,5,3,23,0,1,f.PNG,f,573dacc5b3a71f00146e7d88,2021-10-19_12h53.18.170,forced_choiceRT,2021.1.2,Linux x86_64,60.0348202,,,,,,,,,,,,,,,,,,,,,,
,0,j,1,0.6166,6,0,24,3,1,j.PNG,j,573dacc5b3a71f00146e7d88,2021-10-19_12h53.18.170,forced_choiceRT,2021.1.2,Linux x86_64,60.0348202,,,,,,,,,,,,,,,,,,,,,,
,0,j,1,0.6354,6,1,25,3,1,j.PNG,j,573dacc5b3a71f00146e7d88,2021-10-19_12h53.18.170,forced_choiceRT,2021.1.2,Linux x86_64,60.0348202,,,,,,,,,,,,,,,,,,,,,,
,0,g,1,0.9316,6,2,26,1,1,g.PNG,g,573dacc5b3a71f00146e7d88,2021-10-19_12h53.18.170,forced_choiceRT,2021.1.2,Linux x86_64,60.0348202,,,,,,,,,,,,,,,,,,,,,,
,0,g,1,0.8681,6,3,27,1,1,g.PNG,g,573dacc5b3a71f00146e7d88,2021-10-19_12h53.18.170,forced_choiceRT,2021.1.2,Linux x86_64,60.0348202,,,,,,,,,,,,,,,,,,,,,,
,0,j,1,0.6727,7,0,28,3,1,j.PNG,j,573dacc5b3a71f00146e7d88,2021-10-19_12h53.18.170,forced_choiceRT,2021.1.2,Linux x86_64,60.0348202,,,,,,,,,,,,,,,,,,,,,,
,0,j,1,0.5513,7,1,29,3,1,j.PNG,j,573dacc5b3a71f00146e7d88,2021-10-19_12h53.18.170,forced_choiceRT,2021.1.2,Linux x86_64,60.0348202,,,,,,,,,,,,,,,,,,,,,,
,0,g,1,0.8289,7,2,30,1,1,g.PNG,g,573dacc5b3a71f00146e7d88,2021-10-19_12h53.18.170,forced_choiceRT,2021.1.2,Linux x86_64,60.0348202,,,,,,,,,,,,,,,,,,,,,,
,0,h,1,0.8697,7,3,31,2,1,h.PNG,h,573dacc5b3a71f00146e7d88,2021-10-19_12h53.18.170,forced_choiceRT,2021.1.2,Linux x86_64,60.0348202,,,,,,,,,,,,,,,,,,,,,,
,0,g,1,1.4497,8,0,32,1,1,g.PNG,g,573dacc5b3a71f00146e7d88,2021-10-19_12h53.18.170,forced_choiceRT,2021.1.2,Linux x86_64,60.0348202,,,,,,,,,,,,,,,,,,,,,,
,0,f,1,0.7283,8,1,33,0,1,f.PNG,f,573dacc5b3a71f00146e7d88,2021-10-19_12h53.18.170,forced_choiceRT,2021.1.2,Linux x86_64,60.0348202,,,,,,,,,,,,,,,,,,,,,,
,0,f,1,1.4459,8,2,34,0,1,f.PNG,f,573dacc5b3a71f00146e7d88,2021-10-19_12h53.18.170,forced_choiceRT,2021.1.2,Linux x86_64,60.0348202,,,,,,,,,,,,,,,,,,,,,,
,0,j,1,1.0016,8,3,35,3,1,j.PNG,j,573dacc5b3a71f00146e7d88,2021-10-19_12h53.18.170,forced_choiceRT,2021.1.2,Linux x86_64,60.0348202,,,,,,,,,,,,,,,,,,,,,,
,0,f,1,0.97,9,0,36,0,1,f.PNG,f,573dacc5b3a71f00146e7d88,2021-10-19_12h53.18.170,forced_choiceRT,2021.1.2,Linux x86_64,60.0348202,,,,,,,,,,,,,,,,,,,,,,
,0,j,1,0.9541,9,1,37,3,1,j.PNG,j,573dacc5b3a71f00146e7d88,2021-10-19_12h53.18.170,forced_choiceRT,2021.1.2,Linux x86_64,60.0348202,,,,,,,,,,,,,,,,,,,,,,
,0,h,1,0.881,9,2,38,2,1,h.PNG,h,573dacc5b3a71f00146e7d88,2021-10-19_12h53.18.170,forced_choiceRT,2021.1.2,Linux x86_64,60.0348202,,,,,,,,,,,,,,,,,,,,,,
,0,h,1,0.5337,9,3,39,2,1,h.PNG,h,573dacc5b3a71f00146e7d88,2021-10-19_12h53.18.170,forced_choiceRT,2021.1.2,Linux x86_64,60.0348202,,,,,,,,,,,,,,,,,,,,,,
,0,h,1,0.5171,10,0,40,2,1,h.PNG,h,573dacc5b3a71f00146e7d88,2021-10-19_12h53.18.170,forced_choiceRT,2021.1.2,Linux x86_64,60.0348202,,,,,,,,,,,,,,,,,,,,,,
,0,f,1,0.6193,10,1,41,0,1,f.PNG,f,573dacc5b3a71f00146e7d88,2021-10-19_12h53.18.170,forced_choiceRT,2021.1.2,Linux x86_64,60.0348202,,,,,,,,,,,,,,,,,,,,,,
,0,g,1,0.8036,10,2,42,1,1,g.PNG,g,573dacc5b3a71f00146e7d88,2021-10-19_12h53.18.170,forced_choiceRT,2021.1.2,Linux x86_64,60.0348202,,,,,,,,,,,,,,,,,,,,,,
,0,h,1,0.9004,10,3,43,2,1,h.PNG,h,573dacc5b3a71f00146e7d88,2021-10-19_12h53.18.170,forced_choiceRT,2021.1.2,Linux x86_64,60.0348202,,,,,,,,,,,,,,,,,,,,,,
,0,h,1,0.497,11,0,44,2,1,h.PNG,h,573dacc5b3a71f00146e7d88,2021-10-19_12h53.18.170,forced_choiceRT,2021.1.2,Linux x86_64,60.0348202,,,,,,,,,,,,,,,,,,,,,,
,0,g,1,0.9348,11,1,45,1,1,g.PNG,g,573dacc5b3a71f00146e7d88,2021-10-19_12h53.18.170,forced_choiceRT,2021.1.2,Linux x86_64,60.0348202,,,,,,,,,,,,,,,,,,,,,,
,0,h,1,0.6346,11,2,46,2,1,h.PNG,h,573dacc5b3a71f00146e7d88,2021-10-19_12h53.18.170,forced_choiceRT,2021.1.2,Linux x86_64,60.0348202,,,,,,,,,,,,,,,,,,,,,,
,0,f,1,0.7842,11,3,47,0,1,f.PNG,f,573dacc5b3a71f00146e7d88,2021-10-19_12h53.18.170,forced_choiceRT,2021.1.2,Linux x86_64,60.0348202,,,,,,,,,,,,,,,,,,,,,,
,0,g,1,0.7469,12,0,48,1,1,g.PNG,g,573dacc5b3a71f00146e7d88,2021-10-19_12h53.18.170,forced_choiceRT,2021.1.2,Linux x86_64,60.0348202,,,,,,,,,,,,,,,,,,,,,,
,0,f,1,0.7537,12,1,49,0,1,f.PNG,f,573dacc5b3a71f00146e7d88,2021-10-19_12h53.18.170,forced_choiceRT,2021.1.2,Linux x86_64,60.0348202,,,,,,,,,,,,,,,,,,,,,,
,0,g,1,0.9653,12,2,50,1,1,g.PNG,g,573dacc5b3a71f00146e7d88,2021-10-19_12h53.18.170,forced_choiceRT,2021.1.2,Linux x86_64,60.0348202,,,,,,,,,,,,,,,,,,,,,,
,0,h,1,0.5646,12,3,51,2,1,h.PNG,h,573dacc5b3a71f00146e7d88,2021-10-19_12h53.18.170,forced_choiceRT,2021.1.2,Linux x86_64,60.0348202,,,,,,,,,,,,,,,,,,,,,,
,0,h,1,0.5543,13,0,52,2,1,h.PNG,h,573dacc5b3a71f00146e7d88,2021-10-19_12h53.18.170,forced_choiceRT,2021.1.2,Linux x86_64,60.0348202,,,,,,,,,,,,,,,,,,,,,,
,0,f,1,0.7855,13,1,53,0,1,f.PNG,f,573dacc5b3a71f00146e7d88,2021-10-19_12h53.18.170,forced_choiceRT,2021.1.2,Linux x86_64,60.0348202,,,,,,,,,,,,,,,,,,,,,,
,0,f,1,0.9195,13,2,54,0,1,f.PNG,f,573dacc5b3a71f00146e7d88,2021-10-19_12h53.18.170,forced_choiceRT,2021.1.2,Linux x86_64,60.0348202,,,,,,,,,,,,,,,,,,,,,,
,0,f,1,0.5853,13,3,55,0,1,f.PNG,f,573dacc5b3a71f00146e7d88,2021-10-19_12h53.18.170,forced_choiceRT,2021.1.2,Linux x86_64,60.0348202,,,,,,,,,,,,,,,,,,,,,,
,0,j,1,1.0938,14,0,56,3,1,j.PNG,j,573dacc5b3a71f00146e7d88,2021-10-19_12h53.18.170,forced_choiceRT,2021.1.2,Linux x86_64,60.0348202,,,,,,,,,,,,,,,,,,,,,,
,0,g,1,0.8144,14,1,57,1,1,g.PNG,g,573dacc5b3a71f00146e7d88,2021-10-19_12h53.18.170,forced_choiceRT,2021.1.2,Linux x86_64,60.0348202,,,,,,,,,,,,,,,,,,,,,,
,0,j,1,1.2026,14,2,58,3,1,j.PNG,j,573dacc5b3a71f00146e7d88,2021-10-19_12h53.18.170,forced_choiceRT,2021.1.2,Linux x86_64,60.0348202,,,,,,,,,,,,,,,,,,,,,,
,0,j,1,0.7945,14,3,59,3,1,j.PNG,j,573dacc5b3a71f00146e7d88,2021-10-19_12h53.18.170,forced_choiceRT,2021.1.2,Linux x86_64,60.0348202,,,,,,,,,,,,,,,,,,,,,,
,,,,,,,,,,,,573dacc5b3a71f00146e7d88,2021-10-19_12h53.18.170,forced_choiceRT,2021.1.2,Linux x86_64,60.0348202,f,2.2397,0,0,0,0,1,,,,,,,,,,,,,,,
,,,,,,,,,,,,573dacc5b3a71f00146e7d88,2021-10-19_12h53.18.170,forced_choiceRT,2021.1.2,Linux x86_64,60.0348202,h,2.1013,1,0,1,0,1,,,,,,,,,,,,,,,
,,,,,,,,,,,,573dacc5b3a71f00146e7d88,2021-10-19_12h53.18.170,forced_choiceRT,2021.1.2,Linux x86_64,60.0348202,h,1.9338,2,0,2,0,1,,,,,,,,,,,,,,,
,,,,,,,,,,,,573dacc5b3a71f00146e7d88,2021-10-19_12h53.18.170,forced_choiceRT,2021.1.2,Linux x86_64,60.0348202,h,1.6536,3,0,3,0,1,,,,,,,,,,,,,,,
,,,,,,,,,,,,573dacc5b3a71f00146e7d88,2021-10-19_12h53.18.170,forced_choiceRT,2021.1.2,Linux x86_64,60.0348202,h,1.9341,4,0,4,0,1,,,,,,,,,,,,,,,
,,,,,,,,,,,,573dacc5b3a71f00146e7d88,2021-10-19_12h53.18.170,forced_choiceRT,2021.1.2,Linux x86_64,60.0348202,h,1.8005,5,0,5,0,1,,,,,,,,,,,,,,,
,,,,,,,,,,,,573dacc5b3a71f00146e7d88,2021-10-19_12h53.18.170,forced_choiceRT,2021.1.2,Linux x86_64,60.0348202,h,1.9021,6,0,6,0,1,,,,,,,,,,,,,,,
,,,,,,,,,,,,573dacc5b3a71f00146e7d88,2021-10-19_12h53.18.170,forced_choiceRT,2021.1.2,Linux x86_64,60.0348202,h,1.9178,7,0,7,0,1,,,,,,,,,,,,,,,
,,,,,,,,,,,,573dacc5b3a71f00146e7d88,2021-10-19_12h53.18.170,forced_choiceRT,2021.1.2,Linux x86_64,60.0348202,h,1.8637,8,0,8,0,1,,,,,,,,,,,,,,,
,,,,,,,,,,,,573dacc5b3a71f00146e7d88,2021-10-19_12h53.18.170,forced_choiceRT,2021.1.2,Linux x86_64,60.0348202,h,1.8167,9,0,9,0,1,,,,,,,,,,,,,,,
,,,,,,,,,,,,573dacc5b3a71f00146e7d88,2021-10-19_12h53.18.170,forced_choiceRT,2021.1.2,Linux x86_64,60.0348202,h,1.8336,10,0,10,0,1,,,,,,,,,,,,,,,
,,,,,,,,,,,,573dacc5b3a71f00146e7d88,2021-10-19_12h53.18.170,forced_choiceRT,2021.1.2,Linux x86_64,60.0348202,h,1.9839,11,0,11,0,1,,,,,,,,,,,,,,,
,,,,,,,,,,,,573dacc5b3a71f00146e7d88,2021-10-19_12h53.18.170,forced_choiceRT,2021.1.2,Linux x86_64,60.0348202,h,1.9141,12,0,12,0,1,,,,,,,,,,,,,,,
,,,,,,,,,,,,573dacc5b3a71f00146e7d88,2021-10-19_12h53.18.170,forced_choiceRT,2021.1.2,Linux x86_64,60.0348202,h,1.8667,13,0,13,0,1,,,,,,,,,,,,,,,
,,,,,,,,,,,,573dacc5b3a71f00146e7d88,2021-10-19_12h53.18.170,forced_choiceRT,2021.1.2,Linux x86_64,60.0348202,h,1.9672,14,0,14,0,1,,,,,,,,,,,,,,,
,,,,,,,,,,,,573dacc5b3a71f00146e7d88,2021-10-19_12h53.18.170,forced_choiceRT,2021.1.2,Linux x86_64,60.0348202,h,2.0655,15,0,15,0,1,,,,,,,,,,,,,,,
,,,,,,,,,,,,573dacc5b3a71f00146e7d88,2021-10-19_12h53.18.170,forced_choiceRT,2021.1.2,Linux x86_64,60.0348202,h,1.8789,16,0,16,0,1,,,,,,,,,,,,,,,
,,,,,,,,,,,,573dacc5b3a71f00146e7d88,2021-10-19_12h53.18.170,forced_choiceRT,2021.1.2,Linux x86_64,60.0348202,h,2.0345,17,0,17,0,1,,,,,,,,,,,,,,,
,,,,,,,,,,,,573dacc5b3a71f00146e7d88,2021-10-19_12h53.18.170,forced_choiceRT,2021.1.2,Linux x86_64,60.0348202,h,2.0121,18,0,18,0,1,,,,,,,,,,,,,,,
,,,,,,,,,,,,573dacc5b3a71f00146e7d88,2021-10-19_12h53.18.170,forced_choiceRT,2021.1.2,Linux x86_64,60.0348202,h,2.0498,19,0,19,0,1,,,,,,,,,,,,,,,
,1.75,,,,,,,,,g.PNG,g,573dacc5b3a71f00146e7d88,2021-10-19_12h53.18.170,forced_choiceRT,2021.1.2,Linux x86_64,60.0348202,,,,,,,,1,Ontime,h,0,1.9211,0,0,0,1,1,,,,,
,0.17,,,,,,,,,f.PNG,f,573dacc5b3a71f00146e7d88,2021-10-19_12h53.18.170,forced_choiceRT,2021.1.2,Linux x86_64,60.0348202,,,,,,,,1,Fast,f,1,1.7556,0,1,1,0,1,,,,,
,1.67,,,,,,,,,h.PNG,h,573dacc5b3a71f00146e7d88,2021-10-19_12h53.18.170,forced_choiceRT,2021.1.2,Linux x86_64,60.0348202,,,,,,,,1,Slow,f,0,2.183,0,2,2,2,1,,,,,
,1.45,,,,,,,,,j.PNG,j,573dacc5b3a71f00146e7d88,2021-10-19_12h53.18.170,forced_choiceRT,2021.1.2,Linux x86_64,60.0348202,,,,,,,,1,Ontime,j,1,2.0239,0,3,3,3,1,,,,,
,1.2,,,,,,,,,h.PNG,h,573dacc5b3a71f00146e7d88,2021-10-19_12h53.18.170,forced_choiceRT,2021.1.2,Linux x86_64,60.0348202,,,,,,,,1,Ontime,h,1,1.9779,1,0,4,2,1,,,,,
,1.18,,,,,,,,,j.PNG,j,573dacc5b3a71f00146e7d88,2021-10-19_12h53.18.170,forced_choiceRT,2021.1.2,Linux x86_64,60.0348202,,,,,,,,1,Ontime,j,1,1.9212,1,1,5,3,1,,,,,
,0.8,,,,,,,,,f.PNG,f,573dacc5b3a71f00146e7d88,2021-10-19_12h53.18.170,forced_choiceRT,2021.1.2,Linux x86_64,60.0348202,,,,,,,,1,Ontime,f,1,2.053,1,2,6,0,1,,,,,
,0.12,,,,,,,,,g.PNG,g,573dacc5b3a71f00146e7d88,2021-10-19_12h53.18.170,forced_choiceRT,2021.1.2,Linux x86_64,60.0348202,,,,,,,,1,Fast,g,1,1.8877,1,3,7,1,1,,,,,
,0.69,,,,,,,,,h.PNG,h,573dacc5b3a71f00146e7d88,2021-10-19_12h53.18.170,forced_choiceRT,2021.1.2,Linux x86_64,60.0348202,,,,,,,,1,Ontime,j,0,1.9312,2,0,8,2,1,,,,,
,0.8,,,,,,,,,g.PNG,g,573dacc5b3a71f00146e7d88,2021-10-19_12h53.18.170,forced_choiceRT,2021.1.2,Linux x86_64,60.0348202,,,,,,,,1,Fast,g,1,1.7186,2,1,9,1,1,,,,,
,0.09,,,,,,,,,h.PNG,h,573dacc5b3a71f00146e7d88,2021-10-19_12h53.18.170,forced_choiceRT,2021.1.2,Linux x86_64,60.0348202,,,,,,,,1,Fast,j,0,1.8359,2,2,10,2,1,,,,,
,1.77,,,,,,,,,f.PNG,f,573dacc5b3a71f00146e7d88,2021-10-19_12h53.18.170,forced_choiceRT,2021.1.2,Linux x86_64,60.0348202,,,,,,,,1,Slow,h,0,2.2814,2,3,11,0,1,,,,,
,0.57,,,,,,,,,h.PNG,h,573dacc5b3a71f00146e7d88,2021-10-19_12h53.18.170,forced_choiceRT,2021.1.2,Linux x86_64,60.0348202,,,,,,,,1,Ontime,h,1,2.0498,3,0,12,2,1,,,,,
,1.22,,,,,,,,,j.PNG,j,573dacc5b3a71f00146e7d88,2021-10-19_12h53.18.170,forced_choiceRT,2021.1.2,Linux x86_64,60.0348202,,,,,,,,1,Ontime,j,1,2.0329,3,1,13,3,1,,,,,
,1.54,,,,,,,,,j.PNG,j,573dacc5b3a71f00146e7d88,2021-10-19_12h53.18.170,forced_choiceRT,2021.1.2,Linux x86_64,60.0348202,,,,,,,,1,Slow,j,1,2.2985,3,2,14,3,1,,,,,
,1.11,,,,,,,,,f.PNG,f,573dacc5b3a71f00146e7d88,2021-10-19_12h53.18.170,forced_choiceRT,2021.1.2,Linux x86_64,60.0348202,,,,,,,,1,Ontime,f,1,1.9338,3,3,15,0,1,,,,,
,0.37,,,,,,,,,j.PNG,j,573dacc5b3a71f00146e7d88,2021-10-19_12h53.18.170,forced_choiceRT,2021.1.2,Linux x86_64,60.0348202,,,,,,,,1,Ontime,j,1,2.0332,4,0,16,3,1,,,,,
,0.82,,,,,,,,,h.PNG,h,573dacc5b3a71f00146e7d88,2021-10-19_12h53.18.170,forced_choiceRT,2021.1.2,Linux x86_64,60.0348202,,,,,,,,1,Ontime,h,1,1.9991,4,1,17,2,1,,,,,
,0.37,,,,,,,,,f.PNG,f,573dacc5b3a71f00146e7d88,2021-10-19_12h53.18.170,forced_choiceRT,2021.1.2,Linux x86_64,60.0348202,,,,,,,,1,Ontime,f,1,1.9639,4,2,18,0,1,,,,,
,1.79,,,,,,,,,j.PNG,j,573dacc5b3a71f00146e7d88,2021-10-19_12h53.18.170,forced_choiceRT,2021.1.2,Linux x86_64,60.0348202,,,,,,,,1,Slow,j,1,2.3328,4,3,19,3,1,,,,,
,1.16,,,,,,,,,g.PNG,g,573dacc5b3a71f00146e7d88,2021-10-19_12h53.18.170,forced_choiceRT,2021.1.2,Linux x86_64,60.0348202,,,,,,,,1,Ontime,g,1,2.0488,5,0,20,1,1,,,,,
,1.79,,,,,,,,,j.PNG,j,573dacc5b3a71f00146e7d88,2021-10-19_12h53.18.170,forced_choiceRT,2021.1.2,Linux x86_64,60.0348202,,,,,,,,1,Ontime,j,1,2.0068,5,1,21,3,1,,,,,
,1.72,,,,,,,,,f.PNG,f,573dacc5b3a71f00146e7d88,2021-10-19_12h53.18.170,forced_choiceRT,2021.1.2,Linux x86_64,60.0348202,,,,,,,,1,Slow,f,1,2.1987,5,2,22,0,1,,,,,
,1.87,,,,,,,,,h.PNG,h,573dacc5b3a71f00146e7d88,2021-10-19_12h53.18.170,forced_choiceRT,2021.1.2,Linux x86_64,60.0348202,,,,,,,,1,Ontime,j,0,2.016,5,3,23,2,1,,,,,
,1.73,,,,,,,,,h.PNG,h,573dacc5b3a71f00146e7d88,2021-10-19_12h53.18.170,forced_choiceRT,2021.1.2,Linux x86_64,60.0348202,,,,,,,,1,Ontime,j,0,1.9478,6,0,24,2,1,,,,,
,1.23,,,,,,,,,g.PNG,g,573dacc5b3a71f00146e7d88,2021-10-19_12h53.18.170,forced_choiceRT,2021.1.2,Linux x86_64,60.0348202,,,,,,,,1,Ontime,g,1,1.9313,6,1,25,1,1,,,,,
,0.25,,,,,,,,,f.PNG,f,573dacc5b3a71f00146e7d88,2021-10-19_12h53.18.170,forced_choiceRT,2021.1.2,Linux x86_64,60.0348202,,,,,,,,1,Fast,f,1,1.8837,6,2,26,0,1,,,,,
,0.66,,,,,,,,,j.PNG,j,573dacc5b3a71f00146e7d88,2021-10-19_12h53.18.170,forced_choiceRT,2021.1.2,Linux x86_64,60.0348202,,,,,,,,1,Ontime,j,1,2.0129,6,3,27,3,1,,,,,
,0.38,,,,,,,,,g.PNG,g,573dacc5b3a71f00146e7d88,2021-10-19_12h53.18.170,forced_choiceRT,2021.1.2,Linux x86_64,60.0348202,,,,,,,,1,Ontime,g,1,1.9966,7,0,28,1,1,,,,,
,1.15,,,,,,,,,g.PNG,g,573dacc5b3a71f00146e7d88,2021-10-19_12h53.18.170,forced_choiceRT,2021.1.2,Linux x86_64,60.0348202,,,,,,,,1,Ontime,g,1,1.984,7,1,29,1,1,,,,,
,1.43,,,,,,,,,g.PNG,g,573dacc5b3a71f00146e7d88,2021-10-19_12h53.18.170,forced_choiceRT,2021.1.2,Linux x86_64,60.0348202,,,,,,,,1,Ontime,g,1,2.0831,7,2,30,1,1,,,,,
,1.19,,,,,,,,,h.PNG,h,573dacc5b3a71f00146e7d88,2021-10-19_12h53.18.170,forced_choiceRT,2021.1.2,Linux x86_64,60.0348202,,,,,,,,1,Ontime,h,1,2.0229,7,3,31,2,1,,,,,
,0.99,,,,,,,,,f.PNG,f,573dacc5b3a71f00146e7d88,2021-10-19_12h53.18.170,forced_choiceRT,2021.1.2,Linux x86_64,60.0348202,,,,,,,,1,Fast,f,1,1.8694,8,0,32,0,1,,,,,
,0.6,,,,,,,,,h.PNG,h,573dacc5b3a71f00146e7d88,2021-10-19_12h53.18.170,forced_choiceRT,2021.1.2,Linux x86_64,60.0348202,,,,,,,,1,Ontime,h,1,2.0671,8,1,33,2,1,,,,,
,1.51,,,,,,,,,g.PNG,g,573dacc5b3a71f00146e7d88,2021-10-19_12h53.18.170,forced_choiceRT,2021.1.2,Linux x86_64,60.0348202,,,,,,,,1,Slow,g,1,2.2303,8,2,34,1,1,,,,,
,0.86,,,,,,,,,j.PNG,j,573dacc5b3a71f00146e7d88,2021-10-19_12h53.18.170,forced_choiceRT,2021.1.2,Linux x86_64,60.0348202,,,,,,,,1,Ontime,j,1,2.0487,8,3,35,3,1,,,,,
,0.2,,,,,,,,,g.PNG,g,573dacc5b3a71f00146e7d88,2021-10-19_12h53.18.170,forced_choiceRT,2021.1.2,Linux x86_64,60.0348202,,,,,,,,1,Ontime,g,1,2.0238,9,0,36,1,1,,,,,
,0.52,,,,,,,,,f.PNG,f,573dacc5b3a71f00146e7d88,2021-10-19_12h53.18.170,forced_choiceRT,2021.1.2,Linux x86_64,60.0348202,,,,,,,,1,Ontime,f,1,1.9808,9,1,37,0,1,,,,,
,0.83,,,,,,,,,j.PNG,j,573dacc5b3a71f00146e7d88,2021-10-19_12h53.18.170,forced_choiceRT,2021.1.2,Linux x86_64,60.0348202,,,,,,,,1,Ontime,j,1,2.0163,9,2,38,3,1,,,,,
,1.17,,,,,,,,,f.PNG,f,573dacc5b3a71f00146e7d88,2021-10-19_12h53.18.170,forced_choiceRT,2021.1.2,Linux x86_64,60.0348202,,,,,,,,1,Ontime,f,1,1.9209,9,3,39,0,1,,,,,
,,,,,,,,,,,,573dacc5b3a71f00146e7d88,2021-10-19_12h53.18.170,forced_choiceRT,2021.1.2,Linux x86_64,60.0348202,,,,,,,,,,,,,,,,,,0,0,0,0,1
,1.04,,,,,,,,,f.PNG,f,573dacc5b3a71f00146e7d88,2021-10-19_12h53.18.170,forced_choiceRT,2021.1.2,Linux x86_64,60.0348202,,,,,,,,2,Ontime,f,1,2.0285,0,0,0,0,1,,,,,
,0.03,,,,,,,,,g.PNG,g,573dacc5b3a71f00146e7d88,2021-10-19_12h53.18.170,forced_choiceRT,2021.1.2,Linux x86_64,60.0348202,,,,,,,,2,Ontime,g,1,1.9465,0,1,1,1,1,,,,,
,0.23,,,,,,,,,h.PNG,h,573dacc5b3a71f00146e7d88,2021-10-19_12h53.18.170,forced_choiceRT,2021.1.2,Linux x86_64,60.0348202,,,,,,,,2,Ontime,h,1,1.9618,0,2,2,2,1,,,,,
,1.41,,,,,,,,,h.PNG,h,573dacc5b3a71f00146e7d88,2021-10-19_12h53.18.170,forced_choiceRT,2021.1.2,Linux x86_64,60.0348202,,,,,,,,2,Ontime,h,1,1.9827,0,3,3,2,1,,,,,
,0.08,,,,,,,,,g.PNG,g,573dacc5b3a71f00146e7d88,2021-10-19_12h53.18.170,forced_choiceRT,2021.1.2,Linux x86_64,60.0348202,,,,,,,,2,Ontime,g,1,1.9031,1,0,4,1,1,,,,,
,0.37,,,,,,,,,j.PNG,j,573dacc5b3a71f00146e7d88,2021-10-19_12h53.18.170,forced_choiceRT,2021.1.2,Linux x86_64,60.0348202,,,,,,,,2,Ontime,j,1,1.922,1,1,5,3,1,,,,,
,1.19,,,,,,,,,g.PNG,g,573dacc5b3a71f00146e7d88,2021-10-19_12h53.18.170,forced_choiceRT,2021.1.2,Linux x86_64,60.0348202,,,,,,,,2,Ontime,g,1,2.0148,1,2,6,1,1,,,,,
,1.39,,,,,,,,,f.PNG,f,573dacc5b3a71f00146e7d88,2021-10-19_12h53.18.170,forced_choiceRT,2021.1.2,Linux x86_64,60.0348202,,,,,,,,2,Slow,f,1,2.1504,1,3,7,0,1,,,,,
,0.36,,,,,,,,,h.PNG,h,573dacc5b3a71f00146e7d88,2021-10-19_12h53.18.170,forced_choiceRT,2021.1.2,Linux x86_64,60.0348202,,,,,,,,2,Fast,h,1,1.7332,2,0,8,2,1,,,,,
,1.39,,,,,,,,,f.PNG,f,573dacc5b3a71f00146e7d88,2021-10-19_12h53.18.170,forced_choiceRT,2021.1.2,Linux x86_64,60.0348202,,,,,,,,2,Slow,f,1,2.1103,2,1,9,0,1,,,,,
,0.25,,,,,,,,,j.PNG,j,573dacc5b3a71f00146e7d88,2021-10-19_12h53.18.170,forced_choiceRT,2021.1.2,Linux x86_64,60.0348202,,,,,,,,2,Fast,j,1,1.8201,2,2,10,3,1,,,,,
,1.98,,,,,,,,,f.PNG,f,573dacc5b3a71f00146e7d88,2021-10-19_12h53.18.170,forced_choiceRT,2021.1.2,Linux x86_64,60.0348202,,,,,,,,2,Slow,h,0,2.1015,2,3,11,0,1,,,,,
,1.5,,,,,,,,,h.PNG,h,573dacc5b3a71f00146e7d88,2021-10-19_12h53.18.170,forced_choiceRT,2021.1.2,Linux x86_64,60.0348202,,,,,,,,2,Fast,h,1,1.7784,3,0,12,2,1,,,,,
,0.89,,,,,,,,,j.PNG,j,573dacc5b3a71f00146e7d88,2021-10-19_12h53.18.170,forced_choiceRT,2021.1.2,Linux x86_64,60.0348202,,,,,,,,2,Ontime,j,1,1.9131,3,1,13,3,1,,,,,
,0.74,,,,,,,,,h.PNG,h,573dacc5b3a71f00146e7d88,2021-10-19_12h53.18.170,forced_choiceRT,2021.1.2,Linux x86_64,60.0348202,,,,,,,,2,Fast,h,1,1.8835,3,2,14,2,1,,,,,
,1.01,,,,,,,,,g.PNG,g,573dacc5b3a71f00146e7d88,2021-10-19_12h53.18.170,forced_choiceRT,2021.1.2,Linux x86_64,60.0348202,,,,,,,,2,Ontime,g,1,1.9675,3,3,15,1,1,,,,,
,1.33,,,,,,,,,f.PNG,f,573dacc5b3a71f00146e7d88,2021-10-19_12h53.18.170,forced_choiceRT,2021.1.2,Linux x86_64,60.0348202,,,,,,,,2,Ontime,f,1,1.9765,4,0,16,0,1,,,,,
,1.32,,,,,,,,,h.PNG,h,573dacc5b3a71f00146e7d88,2021-10-19_12h53.18.170,forced_choiceRT,2021.1.2,Linux x86_64,60.0348202,,,,,,,,2,Ontime,h,1,2.0999,4,1,17,2,1,,,,,
,1.37,,,,,,,,,j.PNG,j,573dacc5b3a71f00146e7d88,2021-10-19_12h53.18.170,forced_choiceRT,2021.1.2,Linux x86_64,60.0348202,,,,,,,,2,Ontime,j,1,1.9947,4,2,18,3,1,,,,,
,0.02,,,,,,,,,f.PNG,f,573dacc5b3a71f00146e7d88,2021-10-19_12h53.18.170,forced_choiceRT,2021.1.2,Linux x86_64,60.0348202,,,,,,,,2,Ontime,f,1,1.9339,4,3,19,0,1,,,,,
,0.2,,,,,,,,,g.PNG,g,573dacc5b3a71f00146e7d88,2021-10-19_12h53.18.170,forced_choiceRT,2021.1.2,Linux x86_64,60.0348202,,,,,,,,2,Ontime,g,1,1.9337,5,0,20,1,1,,,,,
,1.8,,,,,,,,,g.PNG,g,573dacc5b3a71f00146e7d88,2021-10-19_12h53.18.170,forced_choiceRT,2021.1.2,Linux x86_64,60.0348202,,,,,,,,2,Ontime,h,0,2.0477,5,1,21,1,1,,,,,
,1.74,,,,,,,,,g.PNG,g,573dacc5b3a71f00146e7d88,2021-10-19_12h53.18.170,forced_choiceRT,2021.1.2,Linux x86_64,60.0348202,,,,,,,,2,Ontime,h,0,2.0144,5,2,22,1,1,,,,,
,0.72,,,,,,,,,j.PNG,j,573dacc5b3a71f00146e7d88,2021-10-19_12h53.18.170,forced_choiceRT,2021.1.2,Linux x86_64,60.0348202,,,,,,,,2,Ontime,j,1,2.0145,5,3,23,3,1,,,,,
,0.31,,,,,,,,,j.PNG,j,573dacc5b3a71f00146e7d88,2021-10-19_12h53.18.170,forced_choiceRT,2021.1.2,Linux x86_64,60.0348202,,,,,,,,2,Ontime,j,1,1.9624,6,0,24,3,1,,,,,
,0.34,,,,,,,,,h.PNG,h,573dacc5b3a71f00146e7d88,2021-10-19_12h53.18.170,forced_choiceRT,2021.1.2,Linux x86_64,60.0348202,,,,,,,,2,Fast,h,1,1.8016,6,1,25,2,1,,,,,
,0.98,,,,,,,,,h.PNG,h,573dacc5b3a71f00146e7d88,2021-10-19_12h53.18.170,forced_choiceRT,2021.1.2,Linux x86_64,60.0348202,,,,,,,,2,Ontime,h,1,2.0964,6,2,26,2,1,,,,,
,1.92,,,,,,,,,j.PNG,j,573dacc5b3a71f00146e7d88,2021-10-19_12h53.18.170,forced_choiceRT,2021.1.2,Linux x86_64,60.0348202,,,,,,,,2,Ontime,h,0,2.0045,6,3,27,3,1,,,,,
,1.92,,,,,,,,,f.PNG,f,573dacc5b3a71f00146e7d88,2021-10-19_12h53.18.170,forced_choiceRT,2021.1.2,Linux x86_64,60.0348202,,,,,,,,2,Ontime,h,0,2.0675,7,0,28,0,1,,,,,
,1.16,,,,,,,,,f.PNG,f,573dacc5b3a71f00146e7d88,2021-10-19_12h53.18.170,forced_choiceRT,2021.1.2,Linux x86_64,60.0348202,,,,,,,,2,Ontime,f,1,1.9168,7,1,29,0,1,,,,,
,0.91,,,,,,,,,g.PNG,g,573dacc5b3a71f00146e7d88,2021-10-19_12h53.18.170,forced_choiceRT,2021.1.2,Linux x86_64,60.0348202,,,,,,,,2,Ontime,g,1,1.9355,7,2,30,1,1,,,,,
,0.19,,,,,,,,,h.PNG,h,573dacc5b3a71f00146e7d88,2021-10-19_12h53.18.170,forced_choiceRT,2021.1.2,Linux x86_64,60.0348202,,,,,,,,2,Ontime,h,1,1.917,7,3,31,2,1,,,,,
,1.51,,,,,,,,,g.PNG,g,573dacc5b3a71f00146e7d88,2021-10-19_12h53.18.170,forced_choiceRT,2021.1.2,Linux x86_64,60.0348202,,,,,,,,2,Ontime,h,0,2.0821,8,0,32,1,1,,,,,
,0.45,,,,,,,,,j.PNG,j,573dacc5b3a71f00146e7d88,2021-10-19_12h53.18.170,forced_choiceRT,2021.1.2,Linux x86_64,60.0348202,,,,,,,,2,Fast,j,1,1.8941,8,1,33,3,1,,,,,
,0.16,,,,,,,,,f.PNG,f,573dacc5b3a71f00146e7d88,2021-10-19_12h53.18.170,forced_choiceRT,2021.1.2,Linux x86_64,60.0348202,,,,,,,,2,Ontime,f,1,1.9179,8,2,34,0,1,,,,,
,1.57,,,,,,,,,g.PNG,g,573dacc5b3a71f00146e7d88,2021-10-19_12h53.18.170,forced_choiceRT,2021.1.2,Linux x86_64,60.0348202,,,,,,,,2,Slow,h,0,2.1333,8,3,35,1,1,,,,,
,1.65,,,,,,,,,j.PNG,j,573dacc5b3a71f00146e7d88,2021-10-19_12h53.18.170,forced_choiceRT,2021.1.2,Linux x86_64,60.0348202,,,,,,,,2,Ontime,h,0,2.0297,9,0,36,3,1,,,,,
,1.43,,,,,,,,,j.PNG,j,573dacc5b3a71f00146e7d88,2021-10-19_12h53.18.170,forced_choiceRT,2021.1.2,Linux x86_64,60.0348202,,,,,,,,2,Ontime,h,0,1.9335,9,1,37,3,1,,,,,
,1.54,,,,,,,,,h.PNG,h,573dacc5b3a71f00146e7d88,2021-10-19_12h53.18.170,forced_choiceRT,2021.1.2,Linux x86_64,60.0348202,,,,,,,,2,Fast,h,1,1.8889,9,2,38,2,1,,,,,
,0.26,,,,,,,,,f.PNG,f,573dacc5b3a71f00146e7d88,2021-10-19_12h53.18.170,forced_choiceRT,2021.1.2,Linux x86_64,60.0348202,,,,,,,,2,Ontime,f,1,1.9458,9,3,39,0,1,,,,,
,,,,,,,,,,,,573dacc5b3a71f00146e7d88,2021-10-19_12h53.18.170,forced_choiceRT,2021.1.2,Linux x86_64,60.0348202,,,,,,,,,,,,,,,,,,1,0,1,0,1
,1.43,,,,,,,,,f.PNG,f,573dacc5b3a71f00146e7d88,2021-10-19_12h53.18.170,forced_choiceRT,2021.1.2,Linux x86_64,60.0348202,,,,,,,,3,Fast,h,0,1.7659,0,0,0,0,1,,,,,
,1.4,,,,,,,,,f.PNG,f,573dacc5b3a71f00146e7d88,2021-10-19_12h53.18.170,forced_choiceRT,2021.1.2,Linux x86_64,60.0348202,,,,,,,,3,Slow,f,1,2.1023,0,1,1,0,1,,,,,
,0.17,,,,,,,,,g.PNG,g,573dacc5b3a71f00146e7d88,2021-10-19_12h53.18.170,forced_choiceRT,2021.1.2,Linux x86_64,60.0348202,,,,,,,,3,Ontime,g,1,1.9215,0,2,2,1,1,,,,,
,1.37,,,,,,,,,g.PNG,g,573dacc5b3a71f00146e7d88,2021-10-19_12h53.18.170,forced_choiceRT,2021.1.2,Linux x86_64,60.0348202,,,,,,,,3,Ontime,g,1,2.0192,0,3,3,1,1,,,,,
,1.33,,,,,,,,,f.PNG,f,573dacc5b3a71f00146e7d88,2021-10-19_12h53.18.170,forced_choiceRT,2021.1.2,Linux x86_64,60.0348202,,,,,,,,3,Ontime,f,1,2.0866,1,0,4,0,1,,,,,
,1.69,,,,,,,,,g.PNG,g,573dacc5b3a71f00146e7d88,2021-10-19_12h53.18.170,forced_choiceRT,2021.1.2,Linux x86_64,60.0348202,,,,,,,,3,Ontime,h,0,2.0509,1,1,5,1,1,,,,,
,1,,,,,,,,,g.PNG,g,573dacc5b3a71f00146e7d88,2021-10-19_12h53.18.170,forced_choiceRT,2021.1.2,Linux x86_64,60.0348202,,,,,,,,3,Fast,g,1,1.884,1,2,6,1,1,,,,,
,0.07,,,,,,,,,g.PNG,g,573dacc5b3a71f00146e7d88,2021-10-19_12h53.18.170,forced_choiceRT,2021.1.2,Linux x86_64,60.0348202,,,,,,,,3,Ontime,g,1,2.0156,1,3,7,1,1,,,,,
,1.29,,,,,,,,,j.PNG,j,573dacc5b3a71f00146e7d88,2021-10-19_12h53.18.170,forced_choiceRT,2021.1.2,Linux x86_64,60.0348202,,,,,,,,3,Ontime,j,1,2.0381,2,0,8,3,1,,,,,
,0.09,,,,,,,,,h.PNG,h,573dacc5b3a71f00146e7d88,2021-10-19_12h53.18.170,forced_choiceRT,2021.1.2,Linux x86_64,60.0348202,,,,,,,,3,Fast,h,1,1.8791,2,1,9,2,1,,,,,
,0.76,,,,,,,,,j.PNG,j,573dacc5b3a71f00146e7d88,2021-10-19_12h53.18.170,forced_choiceRT,2021.1.2,Linux x86_64,60.0348202,,,,,,,,3,Ontime,j,1,2.0175,2,2,10,3,1,,,,,
,1.41,,,,,,,,,h.PNG,h,573dacc5b3a71f00146e7d88,2021-10-19_12h53.18.170,forced_choiceRT,2021.1.2,Linux x86_64,60.0348202,,,,,,,,3,Slow,h,1,2.129,2,3,11,2,1,,,,,
,0.48,,,,,,,,,h.PNG,h,573dacc5b3a71f00146e7d88,2021-10-19_12h53.18.170,forced_choiceRT,2021.1.2,Linux x86_64,60.0348202,,,,,,,,3,Fast,h,1,1.867,3,0,12,2,1,,,,,
,1.12,,,,,,,,,j.PNG,j,573dacc5b3a71f00146e7d88,2021-10-19_12h53.18.170,forced_choiceRT,2021.1.2,Linux x86_64,60.0348202,,,,,,,,3,Ontime,j,1,1.9629,3,1,13,3,1,,,,,
,0,,,,,,,,,h.PNG,h,573dacc5b3a71f00146e7d88,2021-10-19_12h53.18.170,forced_choiceRT,2021.1.2,Linux x86_64,60.0348202,,,,,,,,3,Ontime,h,1,1.935,3,2,14,2,1,,,,,
,1.16,,,,,,,,,h.PNG,h,573dacc5b3a71f00146e7d88,2021-10-19_12h53.18.170,forced_choiceRT,2021.1.2,Linux x86_64,60.0348202,,,,,,,,3,Fast,h,1,1.8619,3,3,15,2,1,,,,,
,0.61,,,,,,,,,f.PNG,f,573dacc5b3a71f00146e7d88,2021-10-19_12h53.18.170,forced_choiceRT,2021.1.2,Linux x86_64,60.0348202,,,,,,,,3,Ontime,f,1,1.9012,4,0,16,0,1,,,,,
,0.89,,,,,,,,,j.PNG,j,573dacc5b3a71f00146e7d88,2021-10-19_12h53.18.170,forced_choiceRT,2021.1.2,Linux x86_64,60.0348202,,,,,,,,3,Fast,j,1,1.877,4,1,17,3,1,,,,,
,0.98,,,,,,,,,f.PNG,f,573dacc5b3a71f00146e7d88,2021-10-19_12h53.18.170,forced_choiceRT,2021.1.2,Linux x86_64,60.0348202,,,,,,,,3,Fast,f,1,1.8669,4,2,18,0,1,,,,,
,1.58,,,,,,,,,j.PNG,j,573dacc5b3a71f00146e7d88,2021-10-19_12h53.18.170,forced_choiceRT,2021.1.2,Linux x86_64,60.0348202,,,,,,,,3,Slow,h,0,2.2021,4,3,19,3,1,,,,,
,1.37,,,,,,,,,h.PNG,h,573dacc5b3a71f00146e7d88,2021-10-19_12h53.18.170,forced_choiceRT,2021.1.2,Linux x86_64,60.0348202,,,,,,,,3,Ontime,h,1,1.9188,5,0,20,2,1,,,,,
,1.29,,,,,,,,,h.PNG,h,573dacc5b3a71f00146e7d88,2021-10-19_12h53.18.170,forced_choiceRT,2021.1.2,Linux x86_64,60.0348202,,,,,,,,3,Ontime,h,1,1.9196,5,1,21,2,1,,,,,
,0.04,,,,,,,,,f.PNG,f,573dacc5b3a71f00146e7d88,2021-10-19_12h53.18.170,forced_choiceRT,2021.1.2,Linux x86_64,60.0348202,,,,,,,,3,Ontime,f,1,2.0002,5,2,22,0,1,,,,,
,1.47,,,,,,,,,f.PNG,f,573dacc5b3a71f00146e7d88,2021-10-19_12h53.18.170,forced_choiceRT,2021.1.2,Linux x86_64,60.0348202,,,,,,,,3,Ontime,h,0,1.9205,5,3,23,0,1,,,,,
,0.79,,,,,,,,,g.PNG,g,573dacc5b3a71f00146e7d88,2021-10-19_12h53.18.170,forced_choiceRT,2021.1.2,Linux x86_64,60.0348202,,,,,,,,3,Ontime,g,1,1.9101,6,0,24,1,1,,,,,
,1.6,,,,,,,,,j.PNG,j,573dacc5b3a71f00146e7d88,2021-10-19_12h53.18.170,forced_choiceRT,2021.1.2,Linux x86_64,60.0348202,,,,,,,,3,Ontime,g,0,1.9667,6,1,25,3,1,,,,,
,0.87,,,,,,,,,g.PNG,g,573dacc5b3a71f00146e7d88,2021-10-19_12h53.18.170,forced_choiceRT,2021.1.2,Linux x86_64,60.0348202,,,,,,,,3,Fast,g,1,1.7957,6,2,26,1,1,,,,,
,1.73,,,,,,,,,f.PNG,f,573dacc5b3a71f00146e7d88,2021-10-19_12h53.18.170,forced_choiceRT,2021.1.2,Linux x86_64,60.0348202,,,,,,,,3,Slow,h,0,2.1,6,3,27,0,1,,,,,
,0.28,,,,,,,,,h.PNG,h,573dacc5b3a71f00146e7d88,2021-10-19_12h53.18.170,forced_choiceRT,2021.1.2,Linux x86_64,60.0348202,,,,,,,,3,Ontime,h,1,2.0337,7,0,28,2,1,,,,,
,0.22,,,,,,,,,g.PNG,g,573dacc5b3a71f00146e7d88,2021-10-19_12h53.18.170,forced_choiceRT,2021.1.2,Linux x86_64,60.0348202,,,,,,,,3,Ontime,g,1,2.0338,7,1,29,1,1,,,,,
,1.45,,,,,,,,,f.PNG,f,573dacc5b3a71f00146e7d88,2021-10-19_12h53.18.170,forced_choiceRT,2021.1.2,Linux x86_64,60.0348202,,,,,,,,3,Ontime,f,1,2.0616,7,2,30,0,1,,,,,
,1.16,,,,,,,,,f.PNG,f,573dacc5b3a71f00146e7d88,2021-10-19_12h53.18.170,forced_choiceRT,2021.1.2,Linux x86_64,60.0348202,,,,,,,,3,Fast,f,1,1.8372,7,3,31,0,1,,,,,
,0.63,,,,,,,,,j.PNG,j,573dacc5b3a71f00146e7d88,2021-10-19_12h53.18.170,forced_choiceRT,2021.1.2,Linux x86_64,60.0348202,,,,,,,,3,Ontime,j,1,1.9645,8,0,32,3,1,,,,,
,1.71,,,,,,,,,g.PNG,g,573dacc5b3a71f00146e7d88,2021-10-19_12h53.18.170,forced_choiceRT,2021.1.2,Linux x86_64,60.0348202,,,,,,,,3,Ontime,h,0,2.0172,8,1,33,1,1,,,,,
,1.1,,,,,,,,,j.PNG,j,573dacc5b3a71f00146e7d88,2021-10-19_12h53.18.170,forced_choiceRT,2021.1.2,Linux x86_64,60.0348202,,,,,,,,3,Fast,j,1,1.8494,8,2,34,3,1,,,,,
,1.88,,,,,,,,,h.PNG,h,573dacc5b3a71f00146e7d88,2021-10-19_12h53.18.170,forced_choiceRT,2021.1.2,Linux x86_64,60.0348202,,,,,,,,3,Ontime,j,0,2.067,8,3,35,2,1,,,,,
,1.12,,,,,,,,,h.PNG,h,573dacc5b3a71f00146e7d88,2021-10-19_12h53.18.170,forced_choiceRT,2021.1.2,Linux x86_64,60.0348202,,,,,,,,3,Fast,h,1,1.833,9,0,36,2,1,,,,,
,0.42,,,,,,,,,j.PNG,j,573dacc5b3a71f00146e7d88,2021-10-19_12h53.18.170,forced_choiceRT,2021.1.2,Linux x86_64,60.0348202,,,,,,,,3,Slow,j,1,2.1024,9,1,37,3,1,,,,,
,1.33,,,,,,,,,g.PNG,g,573dacc5b3a71f00146e7d88,2021-10-19_12h53.18.170,forced_choiceRT,2021.1.2,Linux x86_64,60.0348202,,,,,,,,3,Ontime,h,0,1.9492,9,2,38,1,1,,,,,
,0.55,,,,,,,,,j.PNG,j,573dacc5b3a71f00146e7d88,2021-10-19_12h53.18.170,forced_choiceRT,2021.1.2,Linux x86_64,60.0348202,,,,,,,,3,Fast,j,1,1.8676,9,3,39,3,1,,,,,
,,,,,,,,,,,,573dacc5b3a71f00146e7d88,2021-10-19_12h53.18.170,forced_choiceRT,2021.1.2,Linux x86_64,60.0348202,,,,,,,,,,,,,,,,,,2,0,2,0,1
,1.26,,,,,,,,,g.PNG,g,573dacc5b3a71f00146e7d88,2021-10-19_12h53.18.170,forced_choiceRT,2021.1.2,Linux x86_64,60.0348202,,,,,,,,4,Ontime,g,1,1.9983,0,0,0,1,1,,,,,
,0.93,,,,,,,,,h.PNG,h,573dacc5b3a71f00146e7d88,2021-10-19_12h53.18.170,forced_choiceRT,2021.1.2,Linux x86_64,60.0348202,,,,,,,,4,Fast,j,0,1.7983,0,1,1,2,1,,,,,
,1.49,,,,,,,,,j.PNG,j,573dacc5b3a71f00146e7d88,2021-10-19_12h53.18.170,forced_choiceRT,2021.1.2,Linux x86_64,60.0348202,,,,,,,,4,Ontime,h,0,2.0608,0,2,2,3,1,,,,,
,1.62,,,,,,,,,g.PNG,g,573dacc5b3a71f00146e7d88,2021-10-19_12h53.18.170,forced_choiceRT,2021.1.2,Linux x86_64,60.0348202,,,,,,,,4,Slow,h,0,2.1163,0,3,3,1,1,,,,,
,0.97,,,,,,,,,f.PNG,f,573dacc5b3a71f00146e7d88,2021-10-19_12h53.18.170,forced_choiceRT,2021.1.2,Linux x86_64,60.0348202,,,,,,,,4,Ontime,f,1,1.9856,1,0,4,0,1,,,,,
,0.69,,,,,,,,,j.PNG,j,573dacc5b3a71f00146e7d88,2021-10-19_12h53.18.170,forced_choiceRT,2021.1.2,Linux x86_64,60.0348202,,,,,,,,4,Ontime,j,1,1.947,1,1,5,3,1,,,,,
,0.25,,,,,,,,,j.PNG,j,573dacc5b3a71f00146e7d88,2021-10-19_12h53.18.170,forced_choiceRT,2021.1.2,Linux x86_64,60.0348202,,,,,,,,4,Ontime,j,1,1.902,1,2,6,3,1,,,,,
,1.01,,,,,,,,,h.PNG,h,573dacc5b3a71f00146e7d88,2021-10-19_12h53.18.170,forced_choiceRT,2021.1.2,Linux x86_64,60.0348202,,,,,,,,4,Ontime,h,1,1.9172,1,3,7,2,1,,,,,
,0.09,,,,,,,,,f.PNG,f,573dacc5b3a71f00146e7d88,2021-10-19_12h53.18.170,forced_choiceRT,2021.1.2,Linux x86_64,60.0348202,,,,,,,,4,Ontime,f,1,1.9295,2,0,8,0,1,,,,,
,1.1,,,,,,,,,f.PNG,f,573dacc5b3a71f00146e7d88,2021-10-19_12h53.18.170,forced_choiceRT,2021.1.2,Linux x86_64,60.0348202,,,,,,,,4,Ontime,f,1,2.0198,2,1,9,0,1,,,,,
,1.8,,,,,,,,,g.PNG,g,573dacc5b3a71f00146e7d88,2021-10-19_12h53.18.170,forced_choiceRT,2021.1.2,Linux x86_64,60.0348202,,,,,,,,4,Ontime,h,0,2.0669,2,2,10,1,1,,,,,
,0.05,,,,,,,,,g.PNG,g,573dacc5b3a71f00146e7d88,2021-10-19_12h53.18.170,forced_choiceRT,2021.1.2,Linux x86_64,60.0348202,,,,,,,,4,Fast,g,1,1.8165,2,3,11,1,1,,,,,
,1.7,,,,,,,,,h.PNG,h,573dacc5b3a71f00146e7d88,2021-10-19_12h53.18.170,forced_choiceRT,2021.1.2,Linux x86_64,60.0348202,,,,,,,,4,Ontime,h,1,2.0517,3,0,12,2,1,,,,,
,0.85,,,,,,,,,j.PNG,j,573dacc5b3a71f00146e7d88,2021-10-19_12h53.18.170,forced_choiceRT,2021.1.2,Linux x86_64,60.0348202,,,,,,,,4,Fast,j,1,1.8984,3,1,13,3,1,,,,,
,1.87,,,,,,,,,j.PNG,j,573dacc5b3a71f00146e7d88,2021-10-19_12h53.18.170,forced_choiceRT,2021.1.2,Linux x86_64,60.0348202,,,,,,,,4,Slow,h,0,2.1834,3,2,14,3,1,,,,,
,1.99,,,,,,,,,h.PNG,h,573dacc5b3a71f00146e7d88,2021-10-19_12h53.18.170,forced_choiceRT,2021.1.2,Linux x86_64,60.0348202,,,,,,,,4,Ontime,h,1,1.9451,3,3,15,2,1,,,,,
,1.76,,,,,,,,,j.PNG,j,573dacc5b3a71f00146e7d88,2021-10-19_12h53.18.170,forced_choiceRT,2021.1.2,Linux x86_64,60.0348202,,,,,,,,4,Ontime,h,0,1.9848,4,0,16,3,1,,,,,
,1.14,,,,,,,,,h.PNG,h,573dacc5b3a71f00146e7d88,2021-10-19_12h53.18.170,forced_choiceRT,2021.1.2,Linux x86_64,60.0348202,,,,,,,,4,Fast,h,1,1.8832,4,1,17,2,1,,,,,
,0.02,,,,,,,,,g.PNG,g,573dacc5b3a71f00146e7d88,2021-10-19_12h53.18.170,forced_choiceRT,2021.1.2,Linux x86_64,60.0348202,,,,,,,,4,Ontime,g,1,1.9928,4,2,18,1,1,,,,,
,1.86,,,,,,,,,h.PNG,h,573dacc5b3a71f00146e7d88,2021-10-19_12h53.18.170,forced_choiceRT,2021.1.2,Linux x86_64,60.0348202,,,,,,,,4,Ontime,h,1,2.0272,4,3,19,2,1,,,,,
,1.28,,,,,,,,,g.PNG,g,573dacc5b3a71f00146e7d88,2021-10-19_12h53.18.170,forced_choiceRT,2021.1.2,Linux x86_64,60.0348202,,,,,,,,4,Ontime,g,1,2.0842,5,0,20,1,1,,,,,
,0.11,,,,,,,,,f.PNG,f,573dacc5b3a71f00146e7d88,2021-10-19_12h53.18.170,forced_choiceRT,2021.1.2,Linux x86_64,60.0348202,,,,,,,,4,Fast,f,1,1.7278,5,1,21,0,1,,,,,
,1.31,,,,,,,,,g.PNG,g,573dacc5b3a71f00146e7d88,2021-10-19_12h53.18.170,forced_choiceRT,2021.1.2,Linux x86_64,60.0348202,,,,,,,,4,Ontime,g,1,2.0295,5,2,22,1,1,,,,,
,0.01,,,,,,,,,h.PNG,h,573dacc5b3a71f00146e7d88,2021-10-19_12h53.18.170,forced_choiceRT,2021.1.2,Linux x86_64,60.0348202,,,,,,,,4,Ontime,h,1,2.0942,5,3,23,2,1,,,,,
,0.8,,,,,,,,,j.PNG,j,573dacc5b3a71f00146e7d88,2021-10-19_12h53.18.170,forced_choiceRT,2021.1.2,Linux x86_64,60.0348202,,,,,,,,4,Ontime,j,1,2.0041,6,0,24,3,1,,,,,
,0.85,,,,,,,,,h.PNG,h,573dacc5b3a71f00146e7d88,2021-10-19_12h53.18.170,forced_choiceRT,2021.1.2,Linux x86_64,60.0348202,,,,,,,,4,Ontime,j,0,2.0113,6,1,25,2,1,,,,,
,0.5,,,,,,,,,f.PNG,f,573dacc5b3a71f00146e7d88,2021-10-19_12h53.18.170,forced_choiceRT,2021.1.2,Linux x86_64,60.0348202,,,,,,,,4,Ontime,f,1,1.958,6,2,26,0,1,,,,,
,0.93,,,,,,,,,h.PNG,h,573dacc5b3a71f00146e7d88,2021-10-19_12h53.18.170,forced_choiceRT,2021.1.2,Linux x86_64,60.0348202,,,,,,,,4,Ontime,h,1,2.0172,6,3,27,2,1,,,,,
,0.39,,,,,,,,,j.PNG,j,573dacc5b3a71f00146e7d88,2021-10-19_12h53.18.170,forced_choiceRT,2021.1.2,Linux x86_64,60.0348202,,,,,,,,4,Ontime,j,1,2.0005,7,0,28,3,1,,,,,
,0.92,,,,,,,,,f.PNG,f,573dacc5b3a71f00146e7d88,2021-10-19_12h53.18.170,forced_choiceRT,2021.1.2,Linux x86_64,60.0348202,,,,,,,,4,Ontime,f,1,2.0316,7,1,29,0,1,,,,,
,0.18,,,,,,,,,j.PNG,j,573dacc5b3a71f00146e7d88,2021-10-19_12h53.18.170,forced_choiceRT,2021.1.2,Linux x86_64,60.0348202,,,,,,,,4,Ontime,j,1,2.054,7,2,30,3,1,,,,,
,1.85,,,,,,,,,j.PNG,j,573dacc5b3a71f00146e7d88,2021-10-19_12h53.18.170,forced_choiceRT,2021.1.2,Linux x86_64,60.0348202,,,,,,,,4,Slow,h,0,2.1619,7,3,31,3,1,,,,,
,1.06,,,,,,,,,g.PNG,g,573dacc5b3a71f00146e7d88,2021-10-19_12h53.18.170,forced_choiceRT,2021.1.2,Linux x86_64,60.0348202,,,,,,,,4,Ontime,g,1,1.9959,8,0,32,1,1,,,,,
,1.78,,,,,,,,,f.PNG,f,573dacc5b3a71f00146e7d88,2021-10-19_12h53.18.170,forced_choiceRT,2021.1.2,Linux x86_64,60.0348202,,,,,,,,4,Ontime,j,0,2.0146,8,1,33,0,1,,,,,
,1.64,,,,,,,,,f.PNG,f,573dacc5b3a71f00146e7d88,2021-10-19_12h53.18.170,forced_choiceRT,2021.1.2,Linux x86_64,60.0348202,,,,,,,,4,Ontime,f,1,2.0993,8,2,34,0,1,,,,,
,0.05,,,,,,,,,f.PNG,f,573dacc5b3a71f00146e7d88,2021-10-19_12h53.18.170,forced_choiceRT,2021.1.2,Linux x86_64,60.0348202,,,,,,,,4,Ontime,f,1,2.0283,8,3,35,0,1,,,,,
,1.8,,,,,,,,,f.PNG,f,573dacc5b3a71f00146e7d88,2021-10-19_12h53.18.170,forced_choiceRT,2021.1.2,Linux x86_64,60.0348202,,,,,,,,4,Ontime,h,0,2.0164,9,0,36,0,1,,,,,
,0.18,,,,,,,,,g.PNG,g,573dacc5b3a71f00146e7d88,2021-10-19_12h53.18.170,forced_choiceRT,2021.1.2,Linux x86_64,60.0348202,,,,,,,,4,Ontime,g,1,2.0787,9,1,37,1,1,,,,,
,0.58,,,,,,,,,g.PNG,g,573dacc5b3a71f00146e7d88,2021-10-19_12h53.18.170,forced_choiceRT,2021.1.2,Linux x86_64,60.0348202,,,,,,,,4,Ontime,g,1,2.0512,9,2,38,1,1,,,,,
,0.46,,,,,,,,,h.PNG,h,573dacc5b3a71f00146e7d88,2021-10-19_12h53.18.170,forced_choiceRT,2021.1.2,Linux x86_64,60.0348202,,,,,,,,4,Ontime,h,1,2.028,9,3,39,2,1,,,,,
,,,,,,,,,,,,573dacc5b3a71f00146e7d88,2021-10-19_12h53.18.170,forced_choiceRT,2021.1.2,Linux x86_64,60.0348202,,,,,,,,,,,,,,,,,,3,0,3,0,1
,0.47,,,,,,,,,g.PNG,g,573dacc5b3a71f00146e7d88,2021-10-19_12h53.18.170,forced_choiceRT,2021.1.2,Linux x86_64,60.0348202,,,,,,,,5,Ontime,g,1,2.0023,0,0,0,1,1,,,,,
,1.17,,,,,,,,,g.PNG,g,573dacc5b3a71f00146e7d88,2021-10-19_12h53.18.170,forced_choiceRT,2021.1.2,Linux x86_64,60.0348202,,,,,,,,5,Ontime,g,1,2.0485,0,1,1,1,1,,,,,
,1.57,,,,,,,,,f.PNG,f,573dacc5b3a71f00146e7d88,2021-10-19_12h53.18.170,forced_choiceRT,2021.1.2,Linux x86_64,60.0348202,,,,,,,,5,Ontime,g,0,2.0992,0,2,2,0,1,,,,,
,1.63,,,,,,,,,f.PNG,f,573dacc5b3a71f00146e7d88,2021-10-19_12h53.18.170,forced_choiceRT,2021.1.2,Linux x86_64,60.0348202,,,,,,,,5,Slow,g,0,2.1457,0,3,3,0,1,,,,,
,1.51,,,,,,,,,h.PNG,h,573dacc5b3a71f00146e7d88,2021-10-19_12h53.18.170,forced_choiceRT,2021.1.2,Linux x86_64,60.0348202,,,,,,,,5,Slow,h,1,2.2649,1,0,4,2,1,,,,,
,1.62,,,,,,,,,j.PNG,j,573dacc5b3a71f00146e7d88,2021-10-19_12h53.18.170,forced_choiceRT,2021.1.2,Linux x86_64,60.0348202,,,,,,,,5,Ontime,h,0,1.9639,1,1,5,3,1,,,,,
,1.97,,,,,,,,,h.PNG,h,573dacc5b3a71f00146e7d88,2021-10-19_12h53.18.170,forced_choiceRT,2021.1.2,Linux x86_64,60.0348202,,,,,,,,5,Ontime,h,1,2.0858,1,2,6,2,1,,,,,
,0.86,,,,,,,,,f.PNG,f,573dacc5b3a71f00146e7d88,2021-10-19_12h53.18.170,forced_choiceRT,2021.1.2,Linux x86_64,60.0348202,,,,,,,,5,Ontime,f,1,1.9327,1,3,7,0,1,,,,,
,0.76,,,,,,,,,j.PNG,j,573dacc5b3a71f00146e7d88,2021-10-19_12h53.18.170,forced_choiceRT,2021.1.2,Linux x86_64,60.0348202,,,,,,,,5,Ontime,j,1,1.9541,2,0,8,3,1,,,,,
,0.8,,,,,,,,,j.PNG,j,573dacc5b3a71f00146e7d88,2021-10-19_12h53.18.170,forced_choiceRT,2021.1.2,Linux x86_64,60.0348202,,,,,,,,5,Ontime,j,1,2.0687,2,1,9,3,1,,,,,
,0.52,,,,,,,,,g.PNG,g,573dacc5b3a71f00146e7d88,2021-10-19_12h53.18.170,forced_choiceRT,2021.1.2,Linux x86_64,60.0348202,,,,,,,,5,Ontime,g,1,2.0011,2,2,10,1,1,,,,,
,0.89,,,,,,,,,j.PNG,j,573dacc5b3a71f00146e7d88,2021-10-19_12h53.18.170,forced_choiceRT,2021.1.2,Linux x86_64,60.0348202,,,,,,,,5,Ontime,j,1,2.0313,2,3,11,3,1,,,,,
,1.6,,,,,,,,,g.PNG,g,573dacc5b3a71f00146e7d88,2021-10-19_12h53.18.170,forced_choiceRT,2021.1.2,Linux x86_64,60.0348202,,,,,,,,5,Ontime,h,0,1.9154,3,0,12,1,1,,,,,
,1.22,,,,,,,,,h.PNG,h,573dacc5b3a71f00146e7d88,2021-10-19_12h53.18.170,forced_choiceRT,2021.1.2,Linux x86_64,60.0348202,,,,,,,,5,Ontime,h,1,1.9535,3,1,13,2,1,,,,,
,1.39,,,,,,,,,g.PNG,g,573dacc5b3a71f00146e7d88,2021-10-19_12h53.18.170,forced_choiceRT,2021.1.2,Linux x86_64,60.0348202,,,,,,,,5,Fast,j,0,1.8849,3,2,14,1,1,,,,,
,1.53,,,,,,,,,f.PNG,f,573dacc5b3a71f00146e7d88,2021-10-19_12h53.18.170,forced_choiceRT,2021.1.2,Linux x86_64,60.0348202,,,,,,,,5,Ontime,f,1,2.0995,3,3,15,0,1,,,,,
,1.83,,,,,,,,,h.PNG,h,573dacc5b3a71f00146e7d88,2021-10-19_12h53.18.170,forced_choiceRT,2021.1.2,Linux x86_64,60.0348202,,,,,,,,5,Ontime,h,1,1.9724,4,0,16,2,1,,,,,
,1.92,,,,,,,,,f.PNG,f,573dacc5b3a71f00146e7d88,2021-10-19_12h53.18.170,forced_choiceRT,2021.1.2,Linux x86_64,60.0348202,,,,,,,,5,Ontime,h,0,1.9894,4,1,17,0,1,,,,,
,1.77,,,,,,,,,h.PNG,h,573dacc5b3a71f00146e7d88,2021-10-19_12h53.18.170,forced_choiceRT,2021.1.2,Linux x86_64,60.0348202,,,,,,,,5,Ontime,h,1,2.0834,4,2,18,2,1,,,,,
,0.15,,,,,,,,,j.PNG,j,573dacc5b3a71f00146e7d88,2021-10-19_12h53.18.170,forced_choiceRT,2021.1.2,Linux x86_64,60.0348202,,,,,,,,5,Ontime,j,1,2.0142,4,3,19,3,1,,,,,
,1.72,,,,,,,,,h.PNG,h,573dacc5b3a71f00146e7d88,2021-10-19_12h53.18.170,forced_choiceRT,2021.1.2,Linux x86_64,60.0348202,,,,,,,,5,Ontime,j,0,2.0301,5,0,20,2,1,,,,,
,1.9,,,,,,,,,j.PNG,j,573dacc5b3a71f00146e7d88,2021-10-19_12h53.18.170,forced_choiceRT,2021.1.2,Linux x86_64,60.0348202,,,,,,,,5,Ontime,j,1,2.0503,5,1,21,3,1,,,,,
,1.85,,,,,,,,,j.PNG,j,573dacc5b3a71f00146e7d88,2021-10-19_12h53.18.170,forced_choiceRT,2021.1.2,Linux x86_64,60.0348202,,,,,,,,5,Slow,h,0,2.1856,5,2,22,3,1,,,,,
,0.64,,,,,,,,,f.PNG,f,573dacc5b3a71f00146e7d88,2021-10-19_12h53.18.170,forced_choiceRT,2021.1.2,Linux x86_64,60.0348202,,,,,,,,5,Ontime,f,1,1.9148,5,3,23,0,1,,,,,
,0.07,,,,,,,,,g.PNG,g,573dacc5b3a71f00146e7d88,2021-10-19_12h53.18.170,forced_choiceRT,2021.1.2,Linux x86_64,60.0348202,,,,,,,,5,Ontime,g,1,2.015,6,0,24,1,1,,,,,
,0.25,,,,,,,,,f.PNG,f,573dacc5b3a71f00146e7d88,2021-10-19_12h53.18.170,forced_choiceRT,2021.1.2,Linux x86_64,60.0348202,,,,,,,,5,Ontime,f,1,2.0489,6,1,25,0,1,,,,,
,1.96,,,,,,,,,j.PNG,j,573dacc5b3a71f00146e7d88,2021-10-19_12h53.18.170,forced_choiceRT,2021.1.2,Linux x86_64,60.0348202,,,,,,,,5,Slow,h,0,2.2486,6,2,26,3,1,,,,,
,1.36,,,,,,,,,g.PNG,g,573dacc5b3a71f00146e7d88,2021-10-19_12h53.18.170,forced_choiceRT,2021.1.2,Linux x86_64,60.0348202,,,,,,,,5,Ontime,g,1,2.0509,6,3,27,1,1,,,,,
,0.77,,,,,,,,,h.PNG,h,573dacc5b3a71f00146e7d88,2021-10-19_12h53.18.170,forced_choiceRT,2021.1.2,Linux x86_64,60.0348202,,,,,,,,5,Ontime,h,1,1.9668,7,0,28,2,1,,,,,
,0.35,,,,,,,,,g.PNG,g,573dacc5b3a71f00146e7d88,2021-10-19_12h53.18.170,forced_choiceRT,2021.1.2,Linux x86_64,60.0348202,,,,,,,,5,Ontime,g,1,2.0315,7,1,29,1,1,,,,,
,0.23,,,,,,,,,j.PNG,j,573dacc5b3a71f00146e7d88,2021-10-19_12h53.18.170,forced_choiceRT,2021.1.2,Linux x86_64,60.0348202,,,,,,,,5,Fast,f,0,0.4476,7,2,30,3,1,,,,,
,0.21,,,,,,,,,h.PNG,h,573dacc5b3a71f00146e7d88,2021-10-19_12h53.18.170,forced_choiceRT,2021.1.2,Linux x86_64,60.0348202,,,,,,,,5,Ontime,h,1,1.9506,7,3,31,2,1,,,,,
,1.07,,,,,,,,,f.PNG,f,573dacc5b3a71f00146e7d88,2021-10-19_12h53.18.170,forced_choiceRT,2021.1.2,Linux x86_64,60.0348202,,,,,,,,5,Ontime,f,1,1.9389,8,0,32,0,1,,,,,
,1.86,,,,,,,,,g.PNG,g,573dacc5b3a71f00146e7d88,2021-10-19_12h53.18.170,forced_choiceRT,2021.1.2,Linux x86_64,60.0348202,,,,,,,,5,Ontime,h,0,1.9875,8,1,33,1,1,,,,,
,1.76,,,,,,,,,j.PNG,j,573dacc5b3a71f00146e7d88,2021-10-19_12h53.18.170,forced_choiceRT,2021.1.2,Linux x86_64,60.0348202,,,,,,,,5,Ontime,h,0,2.0474,8,2,34,3,1,,,,,
,0.12,,,,,,,,,h.PNG,h,573dacc5b3a71f00146e7d88,2021-10-19_12h53.18.170,forced_choiceRT,2021.1.2,Linux x86_64,60.0348202,,,,,,,,5,Ontime,h,1,2.098,8,3,35,2,1,,,,,
,0.06,,,,,,,,,f.PNG,f,573dacc5b3a71f00146e7d88,2021-10-19_12h53.18.170,forced_choiceRT,2021.1.2,Linux x86_64,60.0348202,,,,,,,,5,Ontime,f,1,2.0217,9,0,36,0,1,,,,,
,0.69,,,,,,,,,g.PNG,g,573dacc5b3a71f00146e7d88,2021-10-19_12h53.18.170,forced_choiceRT,2021.1.2,Linux x86_64,60.0348202,,,,,,,,5,Ontime,g,1,1.9842,9,1,37,1,1,,,,,
,0.56,,,,,,,,,f.PNG,f,573dacc5b3a71f00146e7d88,2021-10-19_12h53.18.170,forced_choiceRT,2021.1.2,Linux x86_64,60.0348202,,,,,,,,5,Ontime,f,1,1.9339,9,2,38,0,1,,,,,
,1.08,,,,,,,,,h.PNG,h,573dacc5b3a71f00146e7d88,2021-10-19_12h53.18.170,forced_choiceRT,2021.1.2,Linux x86_64,60.0348202,,,,,,,,5,Ontime,h,1,2.0817,9,3,39,2,1,,,,,
,,,,,,,,,,,,573dacc5b3a71f00146e7d88,2021-10-19_12h53.18.170,forced_choiceRT,2021.1.2,Linux x86_64,60.0348202,,,,,,,,,,,,,,,,,,4,0,4,0,1
,1.18,,,,,,,,,f.PNG,f,573dacc5b3a71f00146e7d88,2021-10-19_12h53.18.170,forced_choiceRT,2021.1.2,Linux x86_64,60.0348202,,,,,,,,6,Ontime,f,1,1.9499,0,0,0,0,1,,,,,
,0.61,,,,,,,,,g.PNG,g,573dacc5b3a71f00146e7d88,2021-10-19_12h53.18.170,forced_choiceRT,2021.1.2,Linux x86_64,60.0348202,,,,,,,,6,Fast,g,1,1.5168,0,1,1,1,1,,,,,
,1.43,,,,,,,,,j.PNG,j,573dacc5b3a71f00146e7d88,2021-10-19_12h53.18.170,forced_choiceRT,2021.1.2,Linux x86_64,60.0348202,,,,,,,,6,Slow,j,1,2.2617,0,2,2,3,1,,,,,
,0.75,,,,,,,,,h.PNG,h,573dacc5b3a71f00146e7d88,2021-10-19_12h53.18.170,forced_choiceRT,2021.1.2,Linux x86_64,60.0348202,,,,,,,,6,Ontime,h,1,2.0479,0,3,3,2,1,,,,,
,0.63,,,,,,,,,f.PNG,f,573dacc5b3a71f00146e7d88,2021-10-19_12h53.18.170,forced_choiceRT,2021.1.2,Linux x86_64,60.0348202,,,,,,,,6,Fast,f,1,1.8665,1,0,4,0,1,,,,,
,0.49,,,,,,,,,j.PNG,j,573dacc5b3a71f00146e7d88,2021-10-19_12h53.18.170,forced_choiceRT,2021.1.2,Linux x86_64,60.0348202,,,,,,,,6,Ontime,j,1,2.0858,1,1,5,3,1,,,,,
,1.38,,,,,,,,,h.PNG,h,573dacc5b3a71f00146e7d88,2021-10-19_12h53.18.170,forced_choiceRT,2021.1.2,Linux x86_64,60.0348202,,,,,,,,6,Slow,j,0,2.1302,1,2,6,2,1,,,,,
,1.51,,,,,,,,,h.PNG,h,573dacc5b3a71f00146e7d88,2021-10-19_12h53.18.170,forced_choiceRT,2021.1.2,Linux x86_64,60.0348202,,,,,,,,6,Slow,h,1,2.1047,1,3,7,2,1,,,,,
,1.77,,,,,,,,,f.PNG,f,573dacc5b3a71f00146e7d88,2021-10-19_12h53.18.170,forced_choiceRT,2021.1.2,Linux x86_64,60.0348202,,,,,,,,6,Fast,h,0,1.7821,2,0,8,0,1,,,,,
,0.64,,,,,,,,,j.PNG,j,573dacc5b3a71f00146e7d88,2021-10-19_12h53.18.170,forced_choiceRT,2021.1.2,Linux x86_64,60.0348202,,,,,,,,6,Ontime,j,1,2.0527,2,1,9,3,1,,,,,
,0.05,,,,,,,,,j.PNG,j,573dacc5b3a71f00146e7d88,2021-10-19_12h53.18.170,forced_choiceRT,2021.1.2,Linux x86_64,60.0348202,,,,,,,,6,Ontime,j,1,2.0637,2,2,10,3,1,,,,,
,0.27,,,,,,,,,g.PNG,g,573dacc5b3a71f00146e7d88,2021-10-19_12h53.18.170,forced_choiceRT,2021.1.2,Linux x86_64,60.0348202,,,,,,,,6,Ontime,g,1,2.0648,2,3,11,1,1,,,,,
,0.27,,,,,,,,,g.PNG,g,573dacc5b3a71f00146e7d88,2021-10-19_12h53.18.170,forced_choiceRT,2021.1.2,Linux x86_64,60.0348202,,,,,,,,6,Ontime,g,1,2.0828,3,0,12,1,1,,,,,
,0.49,,,,,,,,,h.PNG,h,573dacc5b3a71f00146e7d88,2021-10-19_12h53.18.170,forced_choiceRT,2021.1.2,Linux x86_64,60.0348202,,,,,,,,6,Ontime,h,1,1.9999,3,1,13,2,1,,,,,
,0.38,,,,,,,,,g.PNG,g,573dacc5b3a71f00146e7d88,2021-10-19_12h53.18.170,forced_choiceRT,2021.1.2,Linux x86_64,60.0348202,,,,,,,,6,Ontime,g,1,1.9664,3,2,14,1,1,,,,,
,1.8,,,,,,,,,h.PNG,h,573dacc5b3a71f00146e7d88,2021-10-19_12h53.18.170,forced_choiceRT,2021.1.2,Linux x86_64,60.0348202,,,,,,,,6,Ontime,h,1,2.0853,3,3,15,2,1,,,,,
,1.15,,,,,,,,,f.PNG,f,573dacc5b3a71f00146e7d88,2021-10-19_12h53.18.170,forced_choiceRT,2021.1.2,Linux x86_64,60.0348202,,,,,,,,6,Slow,f,1,2.134,4,0,16,0,1,,,,,
,0.77,,,,,,,,,f.PNG,f,573dacc5b3a71f00146e7d88,2021-10-19_12h53.18.170,forced_choiceRT,2021.1.2,Linux x86_64,60.0348202,,,,,,,,6,Ontime,f,1,1.9223,4,1,17,0,1,,,,,
,0.53,,,,,,,,,g.PNG,g,573dacc5b3a71f00146e7d88,2021-10-19_12h53.18.170,forced_choiceRT,2021.1.2,Linux x86_64,60.0348202,,,,,,,,6,Fast,g,1,1.551,4,2,18,1,1,,,,,
,0.97,,,,,,,,,f.PNG,f,573dacc5b3a71f00146e7d88,2021-10-19_12h53.18.170,forced_choiceRT,2021.1.2,Linux x86_64,60.0348202,,,,,,,,6,Ontime,f,1,1.9695,4,3,19,0,1,,,,,
,0.86,,,,,,,,,h.PNG,h,573dacc5b3a71f00146e7d88,2021-10-19_12h53.18.170,forced_choiceRT,2021.1.2,Linux x86_64,60.0348202,,,,,,,,6,Ontime,h,1,2.0346,5,0,20,2,1,,,,,
,0.83,,,,,,,,,j.PNG,j,573dacc5b3a71f00146e7d88,2021-10-19_12h53.18.170,forced_choiceRT,2021.1.2,Linux x86_64,60.0348202,,,,,,,,6,Slow,j,1,2.103,5,1,21,3,1,,,,,
,1,,,,,,,,,j.PNG,j,573dacc5b3a71f00146e7d88,2021-10-19_12h53.18.170,forced_choiceRT,2021.1.2,Linux x86_64,60.0348202,,,,,,,,6,Ontime,j,1,1.9473,5,2,22,3,1,,,,,
,0.48,,,,,,,,,f.PNG,f,573dacc5b3a71f00146e7d88,2021-10-19_12h53.18.170,forced_choiceRT,2021.1.2,Linux x86_64,60.0348202,,,,,,,,6,Ontime,f,1,2.0013,5,3,23,0,1,,,,,
,1.37,,,,,,,,,f.PNG,f,573dacc5b3a71f00146e7d88,2021-10-19_12h53.18.170,forced_choiceRT,2021.1.2,Linux x86_64,60.0348202,,,,,,,,6,Ontime,f,1,2.002,6,0,24,0,1,,,,,
,1.69,,,,,,,,,f.PNG,f,573dacc5b3a71f00146e7d88,2021-10-19_12h53.18.170,forced_choiceRT,2021.1.2,Linux x86_64,60.0348202,,,,,,,,6,Slow,f,1,2.2133,6,1,25,0,1,,,,,
,1.34,,,,,,,,,h.PNG,h,573dacc5b3a71f00146e7d88,2021-10-19_12h53.18.170,forced_choiceRT,2021.1.2,Linux x86_64,60.0348202,,,,,,,,6,Ontime,f,0,2.0354,6,2,26,2,1,,,,,
,0.45,,,,,,,,,j.PNG,j,573dacc5b3a71f00146e7d88,2021-10-19_12h53.18.170,forced_choiceRT,2021.1.2,Linux x86_64,60.0348202,,,,,,,,6,Ontime,j,1,2.0686,6,3,27,3,1,,,,,
,0.86,,,,,,,,,h.PNG,h,573dacc5b3a71f00146e7d88,2021-10-19_12h53.18.170,forced_choiceRT,2021.1.2,Linux x86_64,60.0348202,,,,,,,,6,Ontime,h,1,1.9325,7,0,28,2,1,,,,,
,0.41,,,,,,,,,j.PNG,j,573dacc5b3a71f00146e7d88,2021-10-19_12h53.18.170,forced_choiceRT,2021.1.2,Linux x86_64,60.0348202,,,,,,,,6,Ontime,j,1,2.0985,7,1,29,3,1,,,,,
,0.58,,,,,,,,,g.PNG,g,573dacc5b3a71f00146e7d88,2021-10-19_12h53.18.170,forced_choiceRT,2021.1.2,Linux x86_64,60.0348202,,,,,,,,6,Fast,f,0,0.6655,7,2,30,1,1,,,,,
,0.54,,,,,,,,,g.PNG,g,573dacc5b3a71f00146e7d88,2021-10-19_12h53.18.170,forced_choiceRT,2021.1.2,Linux x86_64,60.0348202,,,,,,,,6,Ontime,g,1,2.0334,7,3,31,1,1,,,,,
,0.71,,,,,,,,,g.PNG,g,573dacc5b3a71f00146e7d88,2021-10-19_12h53.18.170,forced_choiceRT,2021.1.2,Linux x86_64,60.0348202,,,,,,,,6,Ontime,g,1,2.0719,8,0,32,1,1,,,,,
,0.15,,,,,,,,,g.PNG,g,573dacc5b3a71f00146e7d88,2021-10-19_12h53.18.170,forced_choiceRT,2021.1.2,Linux x86_64,60.0348202,,,,,,,,6,Ontime,g,1,2.0231,8,1,33,1,1,,,,,
,1.53,,,,,,,,,f.PNG,f,573dacc5b3a71f00146e7d88,2021-10-19_12h53.18.170,forced_choiceRT,2021.1.2,Linux x86_64,60.0348202,,,,,,,,6,Slow,f,1,2.1791,8,2,34,0,1,,,,,
,1.84,,,,,,,,,h.PNG,h,573dacc5b3a71f00146e7d88,2021-10-19_12h53.18.170,forced_choiceRT,2021.1.2,Linux x86_64,60.0348202,,,,,,,,6,Ontime,g,0,2.0478,8,3,35,2,1,,,,,
,0.67,,,,,,,,,h.PNG,h,573dacc5b3a71f00146e7d88,2021-10-19_12h53.18.170,forced_choiceRT,2021.1.2,Linux x86_64,60.0348202,,,,,,,,6,Ontime,h,1,2.0491,9,0,36,2,1,,,,,
,1.46,,,,,,,,,j.PNG,j,573dacc5b3a71f00146e7d88,2021-10-19_12h53.18.170,forced_choiceRT,2021.1.2,Linux x86_64,60.0348202,,,,,,,,6,Fast,h,0,1.7632,9,1,37,3,1,,,,,
,1.43,,,,,,,,,g.PNG,g,573dacc5b3a71f00146e7d88,2021-10-19_12h53.18.170,forced_choiceRT,2021.1.2,Linux x86_64,60.0348202,,,,,,,,6,Ontime,h,0,2.0833,9,2,38,1,1,,,,,
,0.37,,,,,,,,,j.PNG,j,573dacc5b3a71f00146e7d88,2021-10-19_12h53.18.170,forced_choiceRT,2021.1.2,Linux x86_64,60.0348202,,,,,,,,6,Ontime,j,1,2.082,9,3,39,3,1,,,,,
,,,,,,,,,,,,573dacc5b3a71f00146e7d88,2021-10-19_12h53.18.170,forced_choiceRT,2021.1.2,Linux x86_64,60.0348202,,,,,,,,,,,,,,,,,,5,0,5,0,1
,0.81,,,,,,,,,f.PNG,f,573dacc5b3a71f00146e7d88,2021-10-19_12h53.18.170,forced_choiceRT,2021.1.2,Linux x86_64,60.0348202,,,,,,,,7,Ontime,f,1,2.068,0,0,0,0,1,,,,,
,1.19,,,,,,,,,h.PNG,h,573dacc5b3a71f00146e7d88,2021-10-19_12h53.18.170,forced_choiceRT,2021.1.2,Linux x86_64,60.0348202,,,,,,,,7,Ontime,h,1,1.9042,0,1,1,2,1,,,,,
,0.38,,,,,,,,,g.PNG,g,573dacc5b3a71f00146e7d88,2021-10-19_12h53.18.170,forced_choiceRT,2021.1.2,Linux x86_64,60.0348202,,,,,,,,7,Ontime,g,1,2.0643,0,2,2,1,1,,,,,
,1.58,,,,,,,,,j.PNG,j,573dacc5b3a71f00146e7d88,2021-10-19_12h53.18.170,forced_choiceRT,2021.1.2,Linux x86_64,60.0348202,,,,,,,,7,Slow,h,0,2.2334,0,3,3,3,1,,,,,
,1.71,,,,,,,,,h.PNG,h,573dacc5b3a71f00146e7d88,2021-10-19_12h53.18.170,forced_choiceRT,2021.1.2,Linux x86_64,60.0348202,,,,,,,,7,Ontime,h,1,2.0702,1,0,4,2,1,,,,,
,1.65,,,,,,,,,f.PNG,f,573dacc5b3a71f00146e7d88,2021-10-19_12h53.18.170,forced_choiceRT,2021.1.2,Linux x86_64,60.0348202,,,,,,,,7,Ontime,h,0,2.0782,1,1,5,0,1,,,,,
,1.03,,,,,,,,,j.PNG,j,573dacc5b3a71f00146e7d88,2021-10-19_12h53.18.170,forced_choiceRT,2021.1.2,Linux x86_64,60.0348202,,,,,,,,7,Ontime,j,1,2.0153,1,2,6,3,1,,,,,
,0.07,,,,,,,,,h.PNG,h,573dacc5b3a71f00146e7d88,2021-10-19_12h53.18.170,forced_choiceRT,2021.1.2,Linux x86_64,60.0348202,,,,,,,,7,Ontime,h,1,2.0297,1,3,7,2,1,,,,,
,1.32,,,,,,,,,g.PNG,g,573dacc5b3a71f00146e7d88,2021-10-19_12h53.18.170,forced_choiceRT,2021.1.2,Linux x86_64,60.0348202,,,,,,,,7,Ontime,g,1,1.9994,2,0,8,1,1,,,,,
,0.88,,,,,,,,,j.PNG,j,573dacc5b3a71f00146e7d88,2021-10-19_12h53.18.170,forced_choiceRT,2021.1.2,Linux x86_64,60.0348202,,,,,,,,7,Slow,j,1,2.1673,2,1,9,3,1,,,,,
,0.58,,,,,,,,,g.PNG,g,573dacc5b3a71f00146e7d88,2021-10-19_12h53.18.170,forced_choiceRT,2021.1.2,Linux x86_64,60.0348202,,,,,,,,7,Ontime,g,1,2.0318,2,2,10,1,1,,,,,
,1.88,,,,,,,,,f.PNG,f,573dacc5b3a71f00146e7d88,2021-10-19_12h53.18.170,forced_choiceRT,2021.1.2,Linux x86_64,60.0348202,,,,,,,,7,Ontime,h,0,1.9998,2,3,11,0,1,,,,,
,1.45,,,,,,,,,j.PNG,j,573dacc5b3a71f00146e7d88,2021-10-19_12h53.18.170,forced_choiceRT,2021.1.2,Linux x86_64,60.0348202,,,,,,,,7,Ontime,h,0,1.9493,3,0,12,3,1,,,,,
,0.04,,,,,,,,,f.PNG,f,573dacc5b3a71f00146e7d88,2021-10-19_12h53.18.170,forced_choiceRT,2021.1.2,Linux x86_64,60.0348202,,,,,,,,7,Ontime,h,0,2.0623,3,1,13,0,1,,,,,
,1.52,,,,,,,,,f.PNG,f,573dacc5b3a71f00146e7d88,2021-10-19_12h53.18.170,forced_choiceRT,2021.1.2,Linux x86_64,60.0348202,,,,,,,,7,Ontime,g,0,2.0505,3,2,14,0,1,,,,,
,1.9,,,,,,,,,g.PNG,g,573dacc5b3a71f00146e7d88,2021-10-19_12h53.18.170,forced_choiceRT,2021.1.2,Linux x86_64,60.0348202,,,,,,,,7,Ontime,h,0,1.9329,3,3,15,1,1,,,,,
,1.29,,,,,,,,,j.PNG,j,573dacc5b3a71f00146e7d88,2021-10-19_12h53.18.170,forced_choiceRT,2021.1.2,Linux x86_64,60.0348202,,,,,,,,7,Fast,f,0,1.5028,4,0,16,3,1,,,,,
,1.02,,,,,,,,,h.PNG,h,573dacc5b3a71f00146e7d88,2021-10-19_12h53.18.170,forced_choiceRT,2021.1.2,Linux x86_64,60.0348202,,,,,,,,7,Ontime,h,1,1.9359,4,1,17,2,1,,,,,
,1.37,,,,,,,,,h.PNG,h,573dacc5b3a71f00146e7d88,2021-10-19_12h53.18.170,forced_choiceRT,2021.1.2,Linux x86_64,60.0348202,,,,,,,,7,Ontime,h,1,1.9943,4,2,18,2,1,,,,,
,0.87,,,,,,,,,f.PNG,f,573dacc5b3a71f00146e7d88,2021-10-19_12h53.18.170,forced_choiceRT,2021.1.2,Linux x86_64,60.0348202,,,,,,,,7,Ontime,f,1,2.0329,4,3,19,0,1,,,,,
,1.19,,,,,,,,,f.PNG,f,573dacc5b3a71f00146e7d88,2021-10-19_12h53.18.170,forced_choiceRT,2021.1.2,Linux x86_64,60.0348202,,,,,,,,7,Ontime,f,1,1.9641,5,0,20,0,1,,,,,
,1.7,,,,,,,,,g.PNG,g,573dacc5b3a71f00146e7d88,2021-10-19_12h53.18.170,forced_choiceRT,2021.1.2,Linux x86_64,60.0348202,,,,,,,,7,Slow,h,0,2.2323,5,1,21,1,1,,,,,
,0.94,,,,,,,,,j.PNG,j,573dacc5b3a71f00146e7d88,2021-10-19_12h53.18.170,forced_choiceRT,2021.1.2,Linux x86_64,60.0348202,,,,,,,,7,Ontime,j,1,1.916,5,2,22,3,1,,,,,
,0.04,,,,,,,,,j.PNG,j,573dacc5b3a71f00146e7d88,2021-10-19_12h53.18.170,forced_choiceRT,2021.1.2,Linux x86_64,60.0348202,,,,,,,,7,Ontime,j,1,1.9485,5,3,23,3,1,,,,,
,1.75,,,,,,,,,j.PNG,j,573dacc5b3a71f00146e7d88,2021-10-19_12h53.18.170,forced_choiceRT,2021.1.2,Linux x86_64,60.0348202,,,,,,,,7,Ontime,h,0,2.0177,6,0,24,3,1,,,,,
,1.44,,,,,,,,,g.PNG,g,573dacc5b3a71f00146e7d88,2021-10-19_12h53.18.170,forced_choiceRT,2021.1.2,Linux x86_64,60.0348202,,,,,,,,7,Ontime,h,0,1.9687,6,1,25,1,1,,,,,
,1.86,,,,,,,,,f.PNG,f,573dacc5b3a71f00146e7d88,2021-10-19_12h53.18.170,forced_choiceRT,2021.1.2,Linux x86_64,60.0348202,,,,,,,,7,Ontime,h,0,1.9607,6,2,26,0,1,,,,,
,0.12,,,,,,,,,h.PNG,h,573dacc5b3a71f00146e7d88,2021-10-19_12h53.18.170,forced_choiceRT,2021.1.2,Linux x86_64,60.0348202,,,,,,,,7,Ontime,h,1,2.0003,6,3,27,2,1,,,,,
,0.06,,,,,,,,,j.PNG,j,573dacc5b3a71f00146e7d88,2021-10-19_12h53.18.170,forced_choiceRT,2021.1.2,Linux x86_64,60.0348202,,,,,,,,7,Ontime,j,1,2.0497,7,0,28,3,1,,,,,
,0.54,,,,,,,,,h.PNG,h,573dacc5b3a71f00146e7d88,2021-10-19_12h53.18.170,forced_choiceRT,2021.1.2,Linux x86_64,60.0348202,,,,,,,,7,Ontime,h,1,2.0672,7,1,29,2,1,,,,,
,1.16,,,,,,,,,h.PNG,h,573dacc5b3a71f00146e7d88,2021-10-19_12h53.18.170,forced_choiceRT,2021.1.2,Linux x86_64,60.0348202,,,,,,,,7,Fast,h,1,1.8515,7,2,30,2,1,,,,,
,0.83,,,,,,,,,g.PNG,g,573dacc5b3a71f00146e7d88,2021-10-19_12h53.18.170,forced_choiceRT,2021.1.2,Linux x86_64,60.0348202,,,,,,,,7,Ontime,g,1,2.0162,7,3,31,1,1,,,,,
,1.45,,,,,,,,,h.PNG,h,573dacc5b3a71f00146e7d88,2021-10-19_12h53.18.170,forced_choiceRT,2021.1.2,Linux x86_64,60.0348202,,,,,,,,7,Ontime,h,1,1.9945,8,0,32,2,1,,,,,
,1.58,,,,,,,,,f.PNG,f,573dacc5b3a71f00146e7d88,2021-10-19_12h53.18.170,forced_choiceRT,2021.1.2,Linux x86_64,60.0348202,,,,,,,,7,Slow,f,1,2.2165,8,1,33,0,1,,,,,
,1.19,,,,,,,,,h.PNG,h,573dacc5b3a71f00146e7d88,2021-10-19_12h53.18.170,forced_choiceRT,2021.1.2,Linux x86_64,60.0348202,,,,,,,,7,Ontime,h,1,2.0166,8,2,34,2,1,,,,,
,0.15,,,,,,,,,g.PNG,g,573dacc5b3a71f00146e7d88,2021-10-19_12h53.18.170,forced_choiceRT,2021.1.2,Linux x86_64,60.0348202,,,,,,,,7,Slow,g,1,2.1011,8,3,35,1,1,,,,,
,1.58,,,,,,,,,g.PNG,g,573dacc5b3a71f00146e7d88,2021-10-19_12h53.18.170,forced_choiceRT,2021.1.2,Linux x86_64,60.0348202,,,,,,,,7,Ontime,g,1,1.9155,9,0,36,1,1,,,,,
,0.11,,,,,,,,,g.PNG,g,573dacc5b3a71f00146e7d88,2021-10-19_12h53.18.170,forced_choiceRT,2021.1.2,Linux x86_64,60.0348202,,,,,,,,7,Ontime,g,1,2.0774,9,1,37,1,1,,,,,
,1.62,,,,,,,,,j.PNG,j,573dacc5b3a71f00146e7d88,2021-10-19_12h53.18.170,forced_choiceRT,2021.1.2,Linux x86_64,60.0348202,,,,,,,,7,Slow,g,0,2.1501,9,2,38,3,1,,,,,
,1.86,,,,,,,,,f.PNG,f,573dacc5b3a71f00146e7d88,2021-10-19_12h53.18.170,forced_choiceRT,2021.1.2,Linux x86_64,60.0348202,,,,,,,,7,Slow,h,0,2.1974,9,3,39,0,1,,,,,
,,,,,,,,,,,,573dacc5b3a71f00146e7d88,2021-10-19_12h53.18.170,forced_choiceRT,2021.1.2,Linux x86_64,60.0348202,,,,,,,,,,,,,,,,,,6,0,6,0,1
,1.29,,,,,,,,,j.PNG,j,573dacc5b3a71f00146e7d88,2021-10-19_12h53.18.170,forced_choiceRT,2021.1.2,Linux x86_64,60.0348202,,,,,,,,8,Ontime,j,1,2.0336,0,0,0,3,1,,,,,
,0.09,,,,,,,,,g.PNG,g,573dacc5b3a71f00146e7d88,2021-10-19_12h53.18.170,forced_choiceRT,2021.1.2,Linux x86_64,60.0348202,,,,,,,,8,Ontime,g,1,2.0389,0,1,1,1,1,,,,,
,1.27,,,,,,,,,h.PNG,h,573dacc5b3a71f00146e7d88,2021-10-19_12h53.18.170,forced_choiceRT,2021.1.2,Linux x86_64,60.0348202,,,,,,,,8,Ontime,j,0,2.0955,0,2,2,2,1,,,,,
,1.14,,,,,,,,,h.PNG,h,573dacc5b3a71f00146e7d88,2021-10-19_12h53.18.170,forced_choiceRT,2021.1.2,Linux x86_64,60.0348202,,,,,,,,8,Ontime,h,1,1.9871,0,3,3,2,1,,,,,
,0.24,,,,,,,,,f.PNG,f,573dacc5b3a71f00146e7d88,2021-10-19_12h53.18.170,forced_choiceRT,2021.1.2,Linux x86_64,60.0348202,,,,,,,,8,Ontime,f,1,2.0519,1,0,4,0,1,,,,,
,1.61,,,,,,,,,h.PNG,h,573dacc5b3a71f00146e7d88,2021-10-19_12h53.18.170,forced_choiceRT,2021.1.2,Linux x86_64,60.0348202,,,,,,,,8,Slow,h,1,2.2821,1,1,5,2,1,,,,,
,0.41,,,,,,,,,j.PNG,j,573dacc5b3a71f00146e7d88,2021-10-19_12h53.18.170,forced_choiceRT,2021.1.2,Linux x86_64,60.0348202,,,,,,,,8,Ontime,j,1,1.9658,1,2,6,3,1,,,,,
,1.26,,,,,,,,,f.PNG,f,573dacc5b3a71f00146e7d88,2021-10-19_12h53.18.170,forced_choiceRT,2021.1.2,Linux x86_64,60.0348202,,,,,,,,8,Fast,f,1,1.8501,1,3,7,0,1,,,,,
,1.35,,,,,,,,,j.PNG,j,573dacc5b3a71f00146e7d88,2021-10-19_12h53.18.170,forced_choiceRT,2021.1.2,Linux x86_64,60.0348202,,,,,,,,8,Ontime,j,1,2.0202,2,0,8,3,1,,,,,
,1.02,,,,,,,,,f.PNG,f,573dacc5b3a71f00146e7d88,2021-10-19_12h53.18.170,forced_choiceRT,2021.1.2,Linux x86_64,60.0348202,,,,,,,,8,Ontime,f,1,1.9993,2,1,9,0,1,,,,,
,1.63,,,,,,,,,h.PNG,h,573dacc5b3a71f00146e7d88,2021-10-19_12h53.18.170,forced_choiceRT,2021.1.2,Linux x86_64,60.0348202,,,,,,,,8,Ontime,j,0,2.0334,2,2,10,2,1,,,,,
,0.49,,,,,,,,,j.PNG,j,573dacc5b3a71f00146e7d88,2021-10-19_12h53.18.170,forced_choiceRT,2021.1.2,Linux x86_64,60.0348202,,,,,,,,8,Ontime,j,1,1.9834,2,3,11,3,1,,,,,
,1.48,,,,,,,,,j.PNG,j,573dacc5b3a71f00146e7d88,2021-10-19_12h53.18.170,forced_choiceRT,2021.1.2,Linux x86_64,60.0348202,,,,,,,,8,Slow,j,1,2.1812,3,0,12,3,1,,,,,
,1.58,,,,,,,,,g.PNG,g,573dacc5b3a71f00146e7d88,2021-10-19_12h53.18.170,forced_choiceRT,2021.1.2,Linux x86_64,60.0348202,,,,,,,,8,Ontime,j,0,2.0492,3,1,13,1,1,,,,,
,0.79,,,,,,,,,g.PNG,g,573dacc5b3a71f00146e7d88,2021-10-19_12h53.18.170,forced_choiceRT,2021.1.2,Linux x86_64,60.0348202,,,,,,,,8,Slow,g,1,2.102,3,2,14,1,1,,,,,
,0.6,,,,,,,,,j.PNG,j,573dacc5b3a71f00146e7d88,2021-10-19_12h53.18.170,forced_choiceRT,2021.1.2,Linux x86_64,60.0348202,,,,,,,,8,Ontime,j,1,2.018,3,3,15,3,1,,,,,
,1.67,,,,,,,,,f.PNG,f,573dacc5b3a71f00146e7d88,2021-10-19_12h53.18.170,forced_choiceRT,2021.1.2,Linux x86_64,60.0348202,,,,,,,,8,Ontime,j,0,2.07,4,0,16,0,1,,,,,
,1.35,,,,,,,,,j.PNG,j,573dacc5b3a71f00146e7d88,2021-10-19_12h53.18.170,forced_choiceRT,2021.1.2,Linux x86_64,60.0348202,,,,,,,,8,Ontime,j,1,1.9488,4,1,17,3,1,,,,,
,0.49,,,,,,,,,g.PNG,g,573dacc5b3a71f00146e7d88,2021-10-19_12h53.18.170,forced_choiceRT,2021.1.2,Linux x86_64,60.0348202,,,,,,,,8,Ontime,g,1,1.9823,4,2,18,1,1,,,,,
,0.52,,,,,,,,,j.PNG,j,573dacc5b3a71f00146e7d88,2021-10-19_12h53.18.170,forced_choiceRT,2021.1.2,Linux x86_64,60.0348202,,,,,,,,8,Ontime,j,1,2.0331,4,3,19,3,1,,,,,
,0.38,,,,,,,,,h.PNG,h,573dacc5b3a71f00146e7d88,2021-10-19_12h53.18.170,forced_choiceRT,2021.1.2,Linux x86_64,60.0348202,,,,,,,,8,Ontime,h,1,2.0389,5,0,20,2,1,,,,,
,1.75,,,,,,,,,h.PNG,h,573dacc5b3a71f00146e7d88,2021-10-19_12h53.18.170,forced_choiceRT,2021.1.2,Linux x86_64,60.0348202,,,,,,,,8,Slow,h,1,2.1821,5,1,21,2,1,,,,,
,0.11,,,,,,,,,j.PNG,j,573dacc5b3a71f00146e7d88,2021-10-19_12h53.18.170,forced_choiceRT,2021.1.2,Linux x86_64,60.0348202,,,,,,,,8,Ontime,j,1,1.9491,5,2,22,3,1,,,,,
,1.39,,,,,,,,,f.PNG,f,573dacc5b3a71f00146e7d88,2021-10-19_12h53.18.170,forced_choiceRT,2021.1.2,Linux x86_64,60.0348202,,,,,,,,8,Ontime,f,1,2.0148,5,3,23,0,1,,,,,
,0.17,,,,,,,,,h.PNG,h,573dacc5b3a71f00146e7d88,2021-10-19_12h53.18.170,forced_choiceRT,2021.1.2,Linux x86_64,60.0348202,,,,,,,,8,Ontime,h,1,1.967,6,0,24,2,1,,,,,
,1.11,,,,,,,,,g.PNG,g,573dacc5b3a71f00146e7d88,2021-10-19_12h53.18.170,forced_choiceRT,2021.1.2,Linux x86_64,60.0348202,,,,,,,,8,Ontime,g,1,1.9544,6,1,25,1,1,,,,,
,0.15,,,,,,,,,f.PNG,f,573dacc5b3a71f00146e7d88,2021-10-19_12h53.18.170,forced_choiceRT,2021.1.2,Linux x86_64,60.0348202,,,,,,,,8,Fast,f,1,1.8031,6,2,26,0,1,,,,,
,1.14,,,,,,,,,h.PNG,h,573dacc5b3a71f00146e7d88,2021-10-19_12h53.18.170,forced_choiceRT,2021.1.2,Linux x86_64,60.0348202,,,,,,,,8,Ontime,j,0,2.0346,6,3,27,2,1,,,,,
,1.09,,,,,,,,,j.PNG,j,573dacc5b3a71f00146e7d88,2021-10-19_12h53.18.170,forced_choiceRT,2021.1.2,Linux x86_64,60.0348202,,,,,,,,8,Ontime,j,1,1.9641,7,0,28,3,1,,,,,
,0.51,,,,,,,,,g.PNG,g,573dacc5b3a71f00146e7d88,2021-10-19_12h53.18.170,forced_choiceRT,2021.1.2,Linux x86_64,60.0348202,,,,,,,,8,Ontime,g,1,2.0023,7,1,29,1,1,,,,,
,1.53,,,,,,,,,f.PNG,f,573dacc5b3a71f00146e7d88,2021-10-19_12h53.18.170,forced_choiceRT,2021.1.2,Linux x86_64,60.0348202,,,,,,,,8,Slow,f,1,2.1855,7,2,30,0,1,,,,,
,0.85,,,,,,,,,f.PNG,f,573dacc5b3a71f00146e7d88,2021-10-19_12h53.18.170,forced_choiceRT,2021.1.2,Linux x86_64,60.0348202,,,,,,,,8,Ontime,f,1,1.9826,7,3,31,0,1,,,,,
,1.18,,,,,,,,,h.PNG,h,573dacc5b3a71f00146e7d88,2021-10-19_12h53.18.170,forced_choiceRT,2021.1.2,Linux x86_64,60.0348202,,,,,,,,8,Fast,j,0,1.8316,8,0,32,2,1,,,,,
,1.69,,,,,,,,,f.PNG,f,573dacc5b3a71f00146e7d88,2021-10-19_12h53.18.170,forced_choiceRT,2021.1.2,Linux x86_64,60.0348202,,,,,,,,8,Ontime,h,0,2.0172,8,1,33,0,1,,,,,
,1.1,,,,,,,,,h.PNG,h,573dacc5b3a71f00146e7d88,2021-10-19_12h53.18.170,forced_choiceRT,2021.1.2,Linux x86_64,60.0348202,,,,,,,,8,Ontime,h,1,2.0208,8,2,34,2,1,,,,,
,1.6,,,,,,,,,g.PNG,g,573dacc5b3a71f00146e7d88,2021-10-19_12h53.18.170,forced_choiceRT,2021.1.2,Linux x86_64,60.0348202,,,,,,,,8,Ontime,j,0,1.9492,8,3,35,1,1,,,,,
,1.33,,,,,,,,,f.PNG,f,573dacc5b3a71f00146e7d88,2021-10-19_12h53.18.170,forced_choiceRT,2021.1.2,Linux x86_64,60.0348202,,,,,,,,8,Ontime,h,0,1.9826,9,0,36,0,1,,,,,
,1.93,,,,,,,,,g.PNG,g,573dacc5b3a71f00146e7d88,2021-10-19_12h53.18.170,forced_choiceRT,2021.1.2,Linux x86_64,60.0348202,,,,,,,,8,Slow,h,0,2.1,9,1,37,1,1,,,,,
,1.9,,,,,,,,,g.PNG,g,573dacc5b3a71f00146e7d88,2021-10-19_12h53.18.170,forced_choiceRT,2021.1.2,Linux x86_64,60.0348202,,,,,,,,8,Ontime,g,1,2.0793,9,2,38,1,1,,,,,
,0.2,,,,,,,,,g.PNG,g,573dacc5b3a71f00146e7d88,2021-10-19_12h53.18.170,forced_choiceRT,2021.1.2,Linux x86_64,60.0348202,,,,,,,,8,Ontime,g,1,1.9829,9,3,39,1,1,,,,,
,,,,,,,,,,,,573dacc5b3a71f00146e7d88,2021-10-19_12h53.18.170,forced_choiceRT,2021.1.2,Linux x86_64,60.0348202,,,,,,,,,,,,,,,,,,7,0,7,0,1
,1.74,,,,,,,,,f.PNG,f,573dacc5b3a71f00146e7d88,2021-10-19_12h53.18.170,forced_choiceRT,2021.1.2,Linux x86_64,60.0348202,,,,,,,,9,Ontime,h,0,2.03,0,0,0,0,1,,,,,
,1.27,,,,,,,,,f.PNG,f,573dacc5b3a71f00146e7d88,2021-10-19_12h53.18.170,forced_choiceRT,2021.1.2,Linux x86_64,60.0348202,,,,,,,,9,Ontime,f,1,1.9823,0,1,1,0,1,,,,,
,0.26,,,,,,,,,h.PNG,h,573dacc5b3a71f00146e7d88,2021-10-19_12h53.18.170,forced_choiceRT,2021.1.2,Linux x86_64,60.0348202,,,,,,,,9,Ontime,h,1,1.9492,0,2,2,2,1,,,,,
,1.31,,,,,,,,,f.PNG,f,573dacc5b3a71f00146e7d88,2021-10-19_12h53.18.170,forced_choiceRT,2021.1.2,Linux x86_64,60.0348202,,,,,,,,9,Fast,f,1,1.8653,0,3,3,0,1,,,,,
,0.92,,,,,,,,,f.PNG,f,573dacc5b3a71f00146e7d88,2021-10-19_12h53.18.170,forced_choiceRT,2021.1.2,Linux x86_64,60.0348202,,,,,,,,9,Ontime,f,1,1.9344,1,0,4,0,1,,,,,
,1.59,,,,,,,,,h.PNG,h,573dacc5b3a71f00146e7d88,2021-10-19_12h53.18.170,forced_choiceRT,2021.1.2,Linux x86_64,60.0348202,,,,,,,,9,Fast,h,1,1.7948,1,1,5,2,1,,,,,
,0.04,,,,,,,,,j.PNG,j,573dacc5b3a71f00146e7d88,2021-10-19_12h53.18.170,forced_choiceRT,2021.1.2,Linux x86_64,60.0348202,,,,,,,,9,Ontime,j,1,1.9319,1,2,6,3,1,,,,,
,0.69,,,,,,,,,h.PNG,h,573dacc5b3a71f00146e7d88,2021-10-19_12h53.18.170,forced_choiceRT,2021.1.2,Linux x86_64,60.0348202,,,,,,,,9,Ontime,h,1,2.0365,1,3,7,2,1,,,,,
,1.08,,,,,,,,,h.PNG,h,573dacc5b3a71f00146e7d88,2021-10-19_12h53.18.170,forced_choiceRT,2021.1.2,Linux x86_64,60.0348202,,,,,,,,9,Ontime,h,1,1.9356,2,0,8,2,1,,,,,
,0.41,,,,,,,,,g.PNG,g,573dacc5b3a71f00146e7d88,2021-10-19_12h53.18.170,forced_choiceRT,2021.1.2,Linux x86_64,60.0348202,,,,,,,,9,Ontime,g,1,1.97,2,1,9,1,1,,,,,
,0.12,,,,,,,,,g.PNG,g,573dacc5b3a71f00146e7d88,2021-10-19_12h53.18.170,forced_choiceRT,2021.1.2,Linux x86_64,60.0348202,,,,,,,,9,Ontime,g,1,1.9621,2,2,10,1,1,,,,,
,1.49,,,,,,,,,f.PNG,f,573dacc5b3a71f00146e7d88,2021-10-19_12h53.18.170,forced_choiceRT,2021.1.2,Linux x86_64,60.0348202,,,,,,,,9,Fast,h,0,1.7855,2,3,11,0,1,,,,,
,0.16,,,,,,,,,g.PNG,g,573dacc5b3a71f00146e7d88,2021-10-19_12h53.18.170,forced_choiceRT,2021.1.2,Linux x86_64,60.0348202,,,,,,,,9,Ontime,g,1,1.9445,3,0,12,1,1,,,,,
,1.13,,,,,,,,,j.PNG,j,573dacc5b3a71f00146e7d88,2021-10-19_12h53.18.170,forced_choiceRT,2021.1.2,Linux x86_64,60.0348202,,,,,,,,9,Ontime,j,1,2.0181,3,1,13,3,1,,,,,
,0.5,,,,,,,,,j.PNG,j,573dacc5b3a71f00146e7d88,2021-10-19_12h53.18.170,forced_choiceRT,2021.1.2,Linux x86_64,60.0348202,,,,,,,,9,Ontime,j,1,2.0747,3,2,14,3,1,,,,,
,1.42,,,,,,,,,j.PNG,j,573dacc5b3a71f00146e7d88,2021-10-19_12h53.18.170,forced_choiceRT,2021.1.2,Linux x86_64,60.0348202,,,,,,,,9,Ontime,j,1,2.0015,3,3,15,3,1,,,,,
,1.07,,,,,,,,,j.PNG,j,573dacc5b3a71f00146e7d88,2021-10-19_12h53.18.170,forced_choiceRT,2021.1.2,Linux x86_64,60.0348202,,,,,,,,9,Ontime,j,1,1.9655,4,0,16,3,1,,,,,
,0.35,,,,,,,,,j.PNG,j,573dacc5b3a71f00146e7d88,2021-10-19_12h53.18.170,forced_choiceRT,2021.1.2,Linux x86_64,60.0348202,,,,,,,,9,Ontime,j,1,1.9676,4,1,17,3,1,,,,,
,0.98,,,,,,,,,h.PNG,h,573dacc5b3a71f00146e7d88,2021-10-19_12h53.18.170,forced_choiceRT,2021.1.2,Linux x86_64,60.0348202,,,,,,,,9,Fast,h,1,1.8008,4,2,18,2,1,,,,,
,0.21,,,,,,,,,f.PNG,f,573dacc5b3a71f00146e7d88,2021-10-19_12h53.18.170,forced_choiceRT,2021.1.2,Linux x86_64,60.0348202,,,,,,,,9,Fast,f,1,1.8125,4,3,19,0,1,,,,,
,1.93,,,,,,,,,f.PNG,f,573dacc5b3a71f00146e7d88,2021-10-19_12h53.18.170,forced_choiceRT,2021.1.2,Linux x86_64,60.0348202,,,,,,,,9,Ontime,h,0,2.0826,5,0,20,0,1,,,,,
,0.77,,,,,,,,,j.PNG,j,573dacc5b3a71f00146e7d88,2021-10-19_12h53.18.170,forced_choiceRT,2021.1.2,Linux x86_64,60.0348202,,,,,,,,9,Ontime,j,1,2.0182,5,1,21,3,1,,,,,
,1.22,,,,,,,,,g.PNG,g,573dacc5b3a71f00146e7d88,2021-10-19_12h53.18.170,forced_choiceRT,2021.1.2,Linux x86_64,60.0348202,,,,,,,,9,Ontime,g,1,2.0693,5,2,22,1,1,,,,,
,0.13,,,,,,,,,h.PNG,h,573dacc5b3a71f00146e7d88,2021-10-19_12h53.18.170,forced_choiceRT,2021.1.2,Linux x86_64,60.0348202,,,,,,,,9,Ontime,h,1,1.9626,5,3,23,2,1,,,,,
,0.75,,,,,,,,,g.PNG,g,573dacc5b3a71f00146e7d88,2021-10-19_12h53.18.170,forced_choiceRT,2021.1.2,Linux x86_64,60.0348202,,,,,,,,9,Ontime,g,1,2.0356,6,0,24,1,1,,,,,
,1.97,,,,,,,,,g.PNG,g,573dacc5b3a71f00146e7d88,2021-10-19_12h53.18.170,forced_choiceRT,2021.1.2,Linux x86_64,60.0348202,,,,,,,,9,Ontime,h,0,2.0158,6,1,25,1,1,,,,,
,0.12,,,,,,,,,j.PNG,j,573dacc5b3a71f00146e7d88,2021-10-19_12h53.18.170,forced_choiceRT,2021.1.2,Linux x86_64,60.0348202,,,,,,,,9,Ontime,j,1,2.0019,6,2,26,3,1,,,,,
,1.77,,,,,,,,,h.PNG,h,573dacc5b3a71f00146e7d88,2021-10-19_12h53.18.170,forced_choiceRT,2021.1.2,Linux x86_64,60.0348202,,,,,,,,9,Ontime,h,1,2.0173,6,3,27,2,1,,,,,
,0.59,,,,,,,,,f.PNG,f,573dacc5b3a71f00146e7d88,2021-10-19_12h53.18.170,forced_choiceRT,2021.1.2,Linux x86_64,60.0348202,,,,,,,,9,Fast,f,1,1.8674,7,0,28,0,1,,,,,
,0.39,,,,,,,,,g.PNG,g,573dacc5b3a71f00146e7d88,2021-10-19_12h53.18.170,forced_choiceRT,2021.1.2,Linux x86_64,60.0348202,,,,,,,,9,Ontime,g,1,2.0488,7,1,29,1,1,,,,,
,0.35,,,,,,,,,g.PNG,g,573dacc5b3a71f00146e7d88,2021-10-19_12h53.18.170,forced_choiceRT,2021.1.2,Linux x86_64,60.0348202,,,,,,,,9,Slow,g,1,2.167,7,2,30,1,1,,,,,
,1.61,,,,,,,,,h.PNG,h,573dacc5b3a71f00146e7d88,2021-10-19_12h53.18.170,forced_choiceRT,2021.1.2,Linux x86_64,60.0348202,,,,,,,,9,Ontime,h,1,1.9948,7,3,31,2,1,,,,,
,1.71,,,,,,,,,f.PNG,f,573dacc5b3a71f00146e7d88,2021-10-19_12h53.18.170,forced_choiceRT,2021.1.2,Linux x86_64,60.0348202,,,,,,,,9,Ontime,h,0,1.9854,8,0,32,0,1,,,,,
,0.21,,,,,,,,,j.PNG,j,573dacc5b3a71f00146e7d88,2021-10-19_12h53.18.170,forced_choiceRT,2021.1.2,Linux x86_64,60.0348202,,,,,,,,9,Fast,j,1,1.8665,8,1,33,3,1,,,,,
,1.27,,,,,,,,,g.PNG,g,573dacc5b3a71f00146e7d88,2021-10-19_12h53.18.170,forced_choiceRT,2021.1.2,Linux x86_64,60.0348202,,,,,,,,9,Fast,h,0,1.8941,8,2,34,1,1,,,,,
,0.11,,,,,,,,,g.PNG,g,573dacc5b3a71f00146e7d88,2021-10-19_12h53.18.170,forced_choiceRT,2021.1.2,Linux x86_64,60.0348202,,,,,,,,9,Fast,f,0,1.8961,8,3,35,1,1,,,,,
,1.14,,,,,,,,,f.PNG,f,573dacc5b3a71f00146e7d88,2021-10-19_12h53.18.170,forced_choiceRT,2021.1.2,Linux x86_64,60.0348202,,,,,,,,9,Ontime,f,1,2.0127,9,0,36,0,1,,,,,
,1.21,,,,,,,,,h.PNG,h,573dacc5b3a71f00146e7d88,2021-10-19_12h53.18.170,forced_choiceRT,2021.1.2,Linux x86_64,60.0348202,,,,,,,,9,Ontime,h,1,2.0166,9,1,37,2,1,,,,,
,1.77,,,,,,,,,j.PNG,j,573dacc5b3a71f00146e7d88,2021-10-19_12h53.18.170,forced_choiceRT,2021.1.2,Linux x86_64,60.0348202,,,,,,,,9,Ontime,h,0,2.0016,9,2,38,3,1,,,,,
,1.24,,,,,,,,,h.PNG,h,573dacc5b3a71f00146e7d88,2021-10-19_12h53.18.170,forced_choiceRT,2021.1.2,Linux x86_64,60.0348202,,,,,,,,9,Ontime,h,1,1.984,9,3,39,2,1,,,,,
,,,,,,,,,,,,573dacc5b3a71f00146e7d88,2021-10-19_12h53.18.170,forced_choiceRT,2021.1.2,Linux x86_64,60.0348202,,,,,,,,,,,,,,,,,,8,0,8,0,1
,1.04,,,,,,,,,j.PNG,j,573dacc5b3a71f00146e7d88,2021-10-19_12h53.18.170,forced_choiceRT,2021.1.2,Linux x86_64,60.0348202,,,,,,,,10,Ontime,j,1,2.0162,0,0,0,3,1,,,,,
,0.77,,,,,,,,,j.PNG,j,573dacc5b3a71f00146e7d88,2021-10-19_12h53.18.170,forced_choiceRT,2021.1.2,Linux x86_64,60.0348202,,,,,,,,10,Ontime,j,1,2.0026,0,1,1,3,1,,,,,
,1.66,,,,,,,,,h.PNG,h,573dacc5b3a71f00146e7d88,2021-10-19_12h53.18.170,forced_choiceRT,2021.1.2,Linux x86_64,60.0348202,,,,,,,,10,Ontime,h,1,1.9651,0,2,2,2,1,,,,,
,0.05,,,,,,,,,g.PNG,g,573dacc5b3a71f00146e7d88,2021-10-19_12h53.18.170,forced_choiceRT,2021.1.2,Linux x86_64,60.0348202,,,,,,,,10,Ontime,g,1,2.0001,0,3,3,1,1,,,,,
,1.96,,,,,,,,,f.PNG,f,573dacc5b3a71f00146e7d88,2021-10-19_12h53.18.170,forced_choiceRT,2021.1.2,Linux x86_64,60.0348202,,,,,,,,10,Ontime,h,0,2.0058,1,0,4,0,1,,,,,
,0.2,,,,,,,,,g.PNG,g,573dacc5b3a71f00146e7d88,2021-10-19_12h53.18.170,forced_choiceRT,2021.1.2,Linux x86_64,60.0348202,,,,,,,,10,Ontime,g,1,2,1,1,5,1,1,,,,,
,1.28,,,,,,,,,g.PNG,g,573dacc5b3a71f00146e7d88,2021-10-19_12h53.18.170,forced_choiceRT,2021.1.2,Linux x86_64,60.0348202,,,,,,,,10,Ontime,g,1,1.9167,1,2,6,1,1,,,,,
,0.15,,,,,,,,,j.PNG,j,573dacc5b3a71f00146e7d88,2021-10-19_12h53.18.170,forced_choiceRT,2021.1.2,Linux x86_64,60.0348202,,,,,,,,10,Ontime,j,1,2.001,1,3,7,3,1,,,,,
,1.62,,,,,,,,,j.PNG,j,573dacc5b3a71f00146e7d88,2021-10-19_12h53.18.170,forced_choiceRT,2021.1.2,Linux x86_64,60.0348202,,,,,,,,10,Slow,h,0,2.1331,2,0,8,3,1,,,,,
,1.22,,,,,,,,,h.PNG,h,573dacc5b3a71f00146e7d88,2021-10-19_12h53.18.170,forced_choiceRT,2021.1.2,Linux x86_64,60.0348202,,,,,,,,10,Ontime,h,1,1.9068,2,1,9,2,1,,,,,
,1.46,,,,,,,,,f.PNG,f,573dacc5b3a71f00146e7d88,2021-10-19_12h53.18.170,forced_choiceRT,2021.1.2,Linux x86_64,60.0348202,,,,,,,,10,Ontime,h,0,1.9996,2,2,10,0,1,,,,,
,1.34,,,,,,,,,h.PNG,h,573dacc5b3a71f00146e7d88,2021-10-19_12h53.18.170,forced_choiceRT,2021.1.2,Linux x86_64,60.0348202,,,,,,,,10,Ontime,h,1,1.9196,2,3,11,2,1,,,,,
,0.6,,,,,,,,,f.PNG,f,573dacc5b3a71f00146e7d88,2021-10-19_12h53.18.170,forced_choiceRT,2021.1.2,Linux x86_64,60.0348202,,,,,,,,10,Fast,f,1,1.8895,3,0,12,0,1,,,,,
,0.06,,,,,,,,,j.PNG,j,573dacc5b3a71f00146e7d88,2021-10-19_12h53.18.170,forced_choiceRT,2021.1.2,Linux x86_64,60.0348202,,,,,,,,10,Ontime,j,1,2.0325,3,1,13,3,1,,,,,
,1,,,,,,,,,j.PNG,j,573dacc5b3a71f00146e7d88,2021-10-19_12h53.18.170,forced_choiceRT,2021.1.2,Linux x86_64,60.0348202,,,,,,,,10,Ontime,j,1,2.031,3,2,14,3,1,,,,,
,1.19,,,,,,,,,h.PNG,h,573dacc5b3a71f00146e7d88,2021-10-19_12h53.18.170,forced_choiceRT,2021.1.2,Linux x86_64,60.0348202,,,,,,,,10,Ontime,h,1,2.0987,3,3,15,2,1,,,,,
,0.58,,,,,,,,,h.PNG,h,573dacc5b3a71f00146e7d88,2021-10-19_12h53.18.170,forced_choiceRT,2021.1.2,Linux x86_64,60.0348202,,,,,,,,10,Ontime,h,1,1.9379,4,0,16,2,1,,,,,
,1.13,,,,,,,,,f.PNG,f,573dacc5b3a71f00146e7d88,2021-10-19_12h53.18.170,forced_choiceRT,2021.1.2,Linux x86_64,60.0348202,,,,,,,,10,Ontime,f,1,1.9216,4,1,17,0,1,,,,,
,0.77,,,,,,,,,g.PNG,g,573dacc5b3a71f00146e7d88,2021-10-19_12h53.18.170,forced_choiceRT,2021.1.2,Linux x86_64,60.0348202,,,,,,,,10,Ontime,g,1,2.0316,4,2,18,1,1,,,,,
,1.46,,,,,,,,,g.PNG,g,573dacc5b3a71f00146e7d88,2021-10-19_12h53.18.170,forced_choiceRT,2021.1.2,Linux x86_64,60.0348202,,,,,,,,10,Ontime,h,0,1.9392,4,3,19,1,1,,,,,
,1.48,,,,,,,,,h.PNG,h,573dacc5b3a71f00146e7d88,2021-10-19_12h53.18.170,forced_choiceRT,2021.1.2,Linux x86_64,60.0348202,,,,,,,,10,Ontime,h,1,2.0165,5,0,20,2,1,,,,,
,0.55,,,,,,,,,h.PNG,h,573dacc5b3a71f00146e7d88,2021-10-19_12h53.18.170,forced_choiceRT,2021.1.2,Linux x86_64,60.0348202,,,,,,,,10,Ontime,h,1,1.983,5,1,21,2,1,,,,,
,0.97,,,,,,,,,h.PNG,h,573dacc5b3a71f00146e7d88,2021-10-19_12h53.18.170,forced_choiceRT,2021.1.2,Linux x86_64,60.0348202,,,,,,,,10,Ontime,h,1,1.9992,5,2,22,2,1,,,,,
,0.11,,,,,,,,,g.PNG,g,573dacc5b3a71f00146e7d88,2021-10-19_12h53.18.170,forced_choiceRT,2021.1.2,Linux x86_64,60.0348202,,,,,,,,10,Ontime,g,1,1.988,5,3,23,1,1,,,,,
,1.66,,,,,,,,,g.PNG,g,573dacc5b3a71f00146e7d88,2021-10-19_12h53.18.170,forced_choiceRT,2021.1.2,Linux x86_64,60.0348202,,,,,,,,10,Ontime,h,0,1.9648,6,0,24,1,1,,,,,
,1.37,,,,,,,,,h.PNG,h,573dacc5b3a71f00146e7d88,2021-10-19_12h53.18.170,forced_choiceRT,2021.1.2,Linux x86_64,60.0348202,,,,,,,,10,Ontime,h,1,2.0043,6,1,25,2,1,,,,,
,0.37,,,,,,,,,f.PNG,f,573dacc5b3a71f00146e7d88,2021-10-19_12h53.18.170,forced_choiceRT,2021.1.2,Linux x86_64,60.0348202,,,,,,,,10,Fast,g,0,1.7982,6,2,26,0,1,,,,,
,0.17,,,,,,,,,f.PNG,f,573dacc5b3a71f00146e7d88,2021-10-19_12h53.18.170,forced_choiceRT,2021.1.2,Linux x86_64,60.0348202,,,,,,,,10,Ontime,f,1,2.0467,6,3,27,0,1,,,,,
,1.87,,,,,,,,,j.PNG,j,573dacc5b3a71f00146e7d88,2021-10-19_12h53.18.170,forced_choiceRT,2021.1.2,Linux x86_64,60.0348202,,,,,,,,10,Slow,h,0,2.3477,7,0,28,3,1,,,,,
,0.77,,,,,,,,,j.PNG,j,573dacc5b3a71f00146e7d88,2021-10-19_12h53.18.170,forced_choiceRT,2021.1.2,Linux x86_64,60.0348202,,,,,,,,10,Ontime,j,1,1.9977,7,1,29,3,1,,,,,
,1.16,,,,,,,,,g.PNG,g,573dacc5b3a71f00146e7d88,2021-10-19_12h53.18.170,forced_choiceRT,2021.1.2,Linux x86_64,60.0348202,,,,,,,,10,Fast,g,1,1.8689,7,2,30,1,1,,,,,
,1.96,,,,,,,,,f.PNG,f,573dacc5b3a71f00146e7d88,2021-10-19_12h53.18.170,forced_choiceRT,2021.1.2,Linux x86_64,60.0348202,,,,,,,,10,Ontime,h,0,2.0508,7,3,31,0,1,,,,,
,0.94,,,,,,,,,g.PNG,g,573dacc5b3a71f00146e7d88,2021-10-19_12h53.18.170,forced_choiceRT,2021.1.2,Linux x86_64,60.0348202,,,,,,,,10,Ontime,g,1,2.0168,8,0,32,1,1,,,,,
,0.36,,,,,,,,,h.PNG,h,573dacc5b3a71f00146e7d88,2021-10-19_12h53.18.170,forced_choiceRT,2021.1.2,Linux x86_64,60.0348202,,,,,,,,10,Ontime,h,1,1.9509,8,1,33,2,1,,,,,
,0.25,,,,,,,,,f.PNG,f,573dacc5b3a71f00146e7d88,2021-10-19_12h53.18.170,forced_choiceRT,2021.1.2,Linux x86_64,60.0348202,,,,,,,,10,Fast,f,1,1.8693,8,2,34,0,1,,,,,
,1.31,,,,,,,,,g.PNG,g,573dacc5b3a71f00146e7d88,2021-10-19_12h53.18.170,forced_choiceRT,2021.1.2,Linux x86_64,60.0348202,,,,,,,,10,Fast,h,0,1.8505,8,3,35,1,1,,,,,
,1.38,,,,,,,,,f.PNG,f,573dacc5b3a71f00146e7d88,2021-10-19_12h53.18.170,forced_choiceRT,2021.1.2,Linux x86_64,60.0348202,,,,,,,,10,Ontime,f,1,1.9872,9,0,36,0,1,,,,,
,1.22,,,,,,,,,f.PNG,f,573dacc5b3a71f00146e7d88,2021-10-19_12h53.18.170,forced_choiceRT,2021.1.2,Linux x86_64,60.0348202,,,,,,,,10,Ontime,f,1,1.9332,9,1,37,0,1,,,,,
,0.05,,,,,,,,,j.PNG,j,573dacc5b3a71f00146e7d88,2021-10-19_12h53.18.170,forced_choiceRT,2021.1.2,Linux x86_64,60.0348202,,,,,,,,10,Ontime,j,1,2.0494,9,2,38,3,1,,,,,
,0.51,,,,,,,,,j.PNG,j,573dacc5b3a71f00146e7d88,2021-10-19_12h53.18.170,forced_choiceRT,2021.1.2,Linux x86_64,60.0348202,,,,,,,,10,Fast,j,1,1.5507,9,3,39,3,1,,,,,
,,,,,,,,,,,,573dacc5b3a71f00146e7d88,2021-10-19_12h53.18.170,forced_choiceRT,2021.1.2,Linux x86_64,60.0348202,,,,,,,,,,,,,,,,,,9,0,9,0,1
