IP_Addresss,target_onset,trial_resp_sp.keys,trial_resp_sp.corr,trial_resp_sp.rt,trials_train_loop.thisRepN,trials_train_loop.thisTrialN,trials_train_loop.thisN,trials_train_loop.thisIndex,trials_train_loop.ran,pic,correct_key,participant,date,expName,psychopyVersion,OS,frameRate,trial_resp_timing.keys,trial_resp_timing.rt,trials_train_timing.thisRepN,trials_train_timing.thisTrialN,trials_train_timing.thisN,trials_train_timing.thisIndex,trials_train_timing.ran,block_id,ontime,forcedRT_resp.keys,forcedRT_resp.corr,forcedRT_resp.rt,trials.thisRepN,trials.thisTrialN,trials.thisN,trials.thisIndex,trials.ran,blocks.thisRepN,blocks.thisTrialN,blocks.thisN,blocks.thisIndex,blocks.ran
173.216.96.224,0,f,1,4.6951,0,0,0,0,1,f.PNG,f,5a8352feae9a0b0001a9da8f,2021-10-19_14h45.39.436,forced_choiceRT,2021.1.2,Win32,59.82292414,,,,,,,,,,,,,,,,,,,,,,
,0,j,1,2.228,0,1,1,3,1,j.PNG,j,5a8352feae9a0b0001a9da8f,2021-10-19_14h45.39.436,forced_choiceRT,2021.1.2,Win32,59.82292414,,,,,,,,,,,,,,,,,,,,,,
,0,h,1,2.8656,0,2,2,2,1,h.PNG,h,5a8352feae9a0b0001a9da8f,2021-10-19_14h45.39.436,forced_choiceRT,2021.1.2,Win32,59.82292414,,,,,,,,,,,,,,,,,,,,,,
,0,g,1,2.9149,0,3,3,1,1,g.PNG,g,5a8352feae9a0b0001a9da8f,2021-10-19_14h45.39.436,forced_choiceRT,2021.1.2,Win32,59.82292414,,,,,,,,,,,,,,,,,,,,,,
,0,j,1,2.4238,1,0,4,3,1,j.PNG,j,5a8352feae9a0b0001a9da8f,2021-10-19_14h45.39.436,forced_choiceRT,2021.1.2,Win32,59.82292414,,,,,,,,,,,,,,,,,,,,,,
,0,g,1,2.3895,1,1,5,1,1,g.PNG,g,5a8352feae9a0b0001a9da8f,2021-10-19_14h45.39.436,forced_choiceRT,2021.1.2,Win32,59.82292414,,,,,,,,,,,,,,,,,,,,,,
,0,j,1,1.6918,1,2,6,3,1,j.PNG,j,5a8352feae9a0b0001a9da8f,2021-10-19_14h45.39.436,forced_choiceRT,2021.1.2,Win32,59.82292414,,,,,,,,,,,,,,,,,,,,,,
,0,g,1,1.255,1,3,7,1,1,g.PNG,g,5a8352feae9a0b0001a9da8f,2021-10-19_14h45.39.436,forced_choiceRT,2021.1.2,Win32,59.82292414,,,,,,,,,,,,,,,,,,,,,,
,0,h,1,2.446,2,0,8,2,1,h.PNG,h,5a8352feae9a0b0001a9da8f,2021-10-19_14h45.39.436,forced_choiceRT,2021.1.2,Win32,59.82292414,,,,,,,,,,,,,,,,,,,,,,
,0,h,1,1.0823,2,1,9,2,1,h.PNG,h,5a8352feae9a0b0001a9da8f,2021-10-19_14h45.39.436,forced_choiceRT,2021.1.2,Win32,59.82292414,,,,,,,,,,,,,,,,,,,,,,
,0,j,1,1.6221,2,2,10,3,1,j.PNG,j,5a8352feae9a0b0001a9da8f,2021-10-19_14h45.39.436,forced_choiceRT,2021.1.2,Win32,59.82292414,,,,,,,,,,,,,,,,,,,,,,
,0,f,1,1.5562,2,3,11,0,1,f.PNG,f,5a8352feae9a0b0001a9da8f,2021-10-19_14h45.39.436,forced_choiceRT,2021.1.2,Win32,59.82292414,,,,,,,,,,,,,,,,,,,,,,
,0,j,1,1.6796,3,0,12,3,1,j.PNG,j,5a8352feae9a0b0001a9da8f,2021-10-19_14h45.39.436,forced_choiceRT,2021.1.2,Win32,59.82292414,,,,,,,,,,,,,,,,,,,,,,
,0,h,1,1.088,3,1,13,2,1,h.PNG,h,5a8352feae9a0b0001a9da8f,2021-10-19_14h45.39.436,forced_choiceRT,2021.1.2,Win32,59.82292414,,,,,,,,,,,,,,,,,,,,,,
,0,h,1,4.8398,3,2,14,2,1,h.PNG,h,5a8352feae9a0b0001a9da8f,2021-10-19_14h45.39.436,forced_choiceRT,2021.1.2,Win32,59.82292414,,,,,,,,,,,,,,,,,,,,,,
,0,h,1,1.9879,3,3,15,2,1,h.PNG,h,5a8352feae9a0b0001a9da8f,2021-10-19_14h45.39.436,forced_choiceRT,2021.1.2,Win32,59.82292414,,,,,,,,,,,,,,,,,,,,,,
,0,h,1,1.9591,4,0,16,2,1,h.PNG,h,5a8352feae9a0b0001a9da8f,2021-10-19_14h45.39.436,forced_choiceRT,2021.1.2,Win32,59.82292414,,,,,,,,,,,,,,,,,,,,,,
,0,g,1,1.5838,4,1,17,1,1,g.PNG,g,5a8352feae9a0b0001a9da8f,2021-10-19_14h45.39.436,forced_choiceRT,2021.1.2,Win32,59.82292414,,,,,,,,,,,,,,,,,,,,,,
,0,f,1,1.137,4,2,18,0,1,f.PNG,f,5a8352feae9a0b0001a9da8f,2021-10-19_14h45.39.436,forced_choiceRT,2021.1.2,Win32,59.82292414,,,,,,,,,,,,,,,,,,,,,,
,0,j,1,1.2543,4,3,19,3,1,j.PNG,j,5a8352feae9a0b0001a9da8f,2021-10-19_14h45.39.436,forced_choiceRT,2021.1.2,Win32,59.82292414,,,,,,,,,,,,,,,,,,,,,,
,0,f,1,1.064,5,0,20,0,1,f.PNG,f,5a8352feae9a0b0001a9da8f,2021-10-19_14h45.39.436,forced_choiceRT,2021.1.2,Win32,59.82292414,,,,,,,,,,,,,,,,,,,,,,
,0,h,1,1.9067,5,1,21,2,1,h.PNG,h,5a8352feae9a0b0001a9da8f,2021-10-19_14h45.39.436,forced_choiceRT,2021.1.2,Win32,59.82292414,,,,,,,,,,,,,,,,,,,,,,
,0,f,1,1.6797,5,2,22,0,1,f.PNG,f,5a8352feae9a0b0001a9da8f,2021-10-19_14h45.39.436,forced_choiceRT,2021.1.2,Win32,59.82292414,,,,,,,,,,,,,,,,,,,,,,
,0,j,1,1.2135,5,3,23,3,1,j.PNG,j,5a8352feae9a0b0001a9da8f,2021-10-19_14h45.39.436,forced_choiceRT,2021.1.2,Win32,59.82292414,,,,,,,,,,,,,,,,,,,,,,
,0,h,1,1.0797,6,0,24,2,1,h.PNG,h,5a8352feae9a0b0001a9da8f,2021-10-19_14h45.39.436,forced_choiceRT,2021.1.2,Win32,59.82292414,,,,,,,,,,,,,,,,,,,,,,
,0,h,1,1.0237,6,1,25,2,1,h.PNG,h,5a8352feae9a0b0001a9da8f,2021-10-19_14h45.39.436,forced_choiceRT,2021.1.2,Win32,59.82292414,,,,,,,,,,,,,,,,,,,,,,
,0,g,1,1.0604,6,2,26,1,1,g.PNG,g,5a8352feae9a0b0001a9da8f,2021-10-19_14h45.39.436,forced_choiceRT,2021.1.2,Win32,59.82292414,,,,,,,,,,,,,,,,,,,,,,
,0,j,1,1.226,6,3,27,3,1,j.PNG,j,5a8352feae9a0b0001a9da8f,2021-10-19_14h45.39.436,forced_choiceRT,2021.1.2,Win32,59.82292414,,,,,,,,,,,,,,,,,,,,,,
,0,h,1,1.0025,7,0,28,2,1,h.PNG,h,5a8352feae9a0b0001a9da8f,2021-10-19_14h45.39.436,forced_choiceRT,2021.1.2,Win32,59.82292414,,,,,,,,,,,,,,,,,,,,,,
,0,f,1,1.2112,7,1,29,0,1,f.PNG,f,5a8352feae9a0b0001a9da8f,2021-10-19_14h45.39.436,forced_choiceRT,2021.1.2,Win32,59.82292414,,,,,,,,,,,,,,,,,,,,,,
,0,j,1,1.2203,7,2,30,3,1,j.PNG,j,5a8352feae9a0b0001a9da8f,2021-10-19_14h45.39.436,forced_choiceRT,2021.1.2,Win32,59.82292414,,,,,,,,,,,,,,,,,,,,,,
,0,g,1,1.0752,7,3,31,1,1,g.PNG,g,5a8352feae9a0b0001a9da8f,2021-10-19_14h45.39.436,forced_choiceRT,2021.1.2,Win32,59.82292414,,,,,,,,,,,,,,,,,,,,,,
,0,g,1,1.1354,8,0,32,1,1,g.PNG,g,5a8352feae9a0b0001a9da8f,2021-10-19_14h45.39.436,forced_choiceRT,2021.1.2,Win32,59.82292414,,,,,,,,,,,,,,,,,,,,,,
,0,f,1,1.6473,8,1,33,0,1,f.PNG,f,5a8352feae9a0b0001a9da8f,2021-10-19_14h45.39.436,forced_choiceRT,2021.1.2,Win32,59.82292414,,,,,,,,,,,,,,,,,,,,,,
,0,h,1,2.2289,8,2,34,2,1,h.PNG,h,5a8352feae9a0b0001a9da8f,2021-10-19_14h45.39.436,forced_choiceRT,2021.1.2,Win32,59.82292414,,,,,,,,,,,,,,,,,,,,,,
,0,f,1,1.1392,8,3,35,0,1,f.PNG,f,5a8352feae9a0b0001a9da8f,2021-10-19_14h45.39.436,forced_choiceRT,2021.1.2,Win32,59.82292414,,,,,,,,,,,,,,,,,,,,,,
,0,g,1,1.0875,9,0,36,1,1,g.PNG,g,5a8352feae9a0b0001a9da8f,2021-10-19_14h45.39.436,forced_choiceRT,2021.1.2,Win32,59.82292414,,,,,,,,,,,,,,,,,,,,,,
,0,g,1,0.9901,9,1,37,1,1,g.PNG,g,5a8352feae9a0b0001a9da8f,2021-10-19_14h45.39.436,forced_choiceRT,2021.1.2,Win32,59.82292414,,,,,,,,,,,,,,,,,,,,,,
,0,j,1,1.273,9,2,38,3,1,j.PNG,j,5a8352feae9a0b0001a9da8f,2021-10-19_14h45.39.436,forced_choiceRT,2021.1.2,Win32,59.82292414,,,,,,,,,,,,,,,,,,,,,,
,0,g,1,1.1225,9,3,39,1,1,g.PNG,g,5a8352feae9a0b0001a9da8f,2021-10-19_14h45.39.436,forced_choiceRT,2021.1.2,Win32,59.82292414,,,,,,,,,,,,,,,,,,,,,,
,0,g,1,0.9713,10,0,40,1,1,g.PNG,g,5a8352feae9a0b0001a9da8f,2021-10-19_14h45.39.436,forced_choiceRT,2021.1.2,Win32,59.82292414,,,,,,,,,,,,,,,,,,,,,,
,0,f,1,1.0551,10,1,41,0,1,f.PNG,f,5a8352feae9a0b0001a9da8f,2021-10-19_14h45.39.436,forced_choiceRT,2021.1.2,Win32,59.82292414,,,,,,,,,,,,,,,,,,,,,,
,0,j,1,1.0894,10,2,42,3,1,j.PNG,j,5a8352feae9a0b0001a9da8f,2021-10-19_14h45.39.436,forced_choiceRT,2021.1.2,Win32,59.82292414,,,,,,,,,,,,,,,,,,,,,,
,0,j,1,1.0715,10,3,43,3,1,j.PNG,j,5a8352feae9a0b0001a9da8f,2021-10-19_14h45.39.436,forced_choiceRT,2021.1.2,Win32,59.82292414,,,,,,,,,,,,,,,,,,,,,,
,0,h,1,0.9385,11,0,44,2,1,h.PNG,h,5a8352feae9a0b0001a9da8f,2021-10-19_14h45.39.436,forced_choiceRT,2021.1.2,Win32,59.82292414,,,,,,,,,,,,,,,,,,,,,,
,0,g,1,1.0882,11,1,45,1,1,g.PNG,g,5a8352feae9a0b0001a9da8f,2021-10-19_14h45.39.436,forced_choiceRT,2021.1.2,Win32,59.82292414,,,,,,,,,,,,,,,,,,,,,,
,0,g,1,1.022,11,2,46,1,1,g.PNG,g,5a8352feae9a0b0001a9da8f,2021-10-19_14h45.39.436,forced_choiceRT,2021.1.2,Win32,59.82292414,,,,,,,,,,,,,,,,,,,,,,
,0,h,1,1.106,11,3,47,2,1,h.PNG,h,5a8352feae9a0b0001a9da8f,2021-10-19_14h45.39.436,forced_choiceRT,2021.1.2,Win32,59.82292414,,,,,,,,,,,,,,,,,,,,,,
,0,j,1,1.1385,12,0,48,3,1,j.PNG,j,5a8352feae9a0b0001a9da8f,2021-10-19_14h45.39.436,forced_choiceRT,2021.1.2,Win32,59.82292414,,,,,,,,,,,,,,,,,,,,,,
,0,j,1,1.1055,12,1,49,3,1,j.PNG,j,5a8352feae9a0b0001a9da8f,2021-10-19_14h45.39.436,forced_choiceRT,2021.1.2,Win32,59.82292414,,,,,,,,,,,,,,,,,,,,,,
,0,g,1,1.224,12,2,50,1,1,g.PNG,g,5a8352feae9a0b0001a9da8f,2021-10-19_14h45.39.436,forced_choiceRT,2021.1.2,Win32,59.82292414,,,,,,,,,,,,,,,,,,,,,,
,0,g,1,1.0221,12,3,51,1,1,g.PNG,g,5a8352feae9a0b0001a9da8f,2021-10-19_14h45.39.436,forced_choiceRT,2021.1.2,Win32,59.82292414,,,,,,,,,,,,,,,,,,,,,,
,0,f,1,1.038,13,0,52,0,1,f.PNG,f,5a8352feae9a0b0001a9da8f,2021-10-19_14h45.39.436,forced_choiceRT,2021.1.2,Win32,59.82292414,,,,,,,,,,,,,,,,,,,,,,
,0,f,1,1.0888,13,1,53,0,1,f.PNG,f,5a8352feae9a0b0001a9da8f,2021-10-19_14h45.39.436,forced_choiceRT,2021.1.2,Win32,59.82292414,,,,,,,,,,,,,,,,,,,,,,
,0,f,1,0.9881,13,2,54,0,1,f.PNG,f,5a8352feae9a0b0001a9da8f,2021-10-19_14h45.39.436,forced_choiceRT,2021.1.2,Win32,59.82292414,,,,,,,,,,,,,,,,,,,,,,
,0,f,1,1.0557,13,3,55,0,1,f.PNG,f,5a8352feae9a0b0001a9da8f,2021-10-19_14h45.39.436,forced_choiceRT,2021.1.2,Win32,59.82292414,,,,,,,,,,,,,,,,,,,,,,
,0,j,1,1.2221,14,0,56,3,1,j.PNG,j,5a8352feae9a0b0001a9da8f,2021-10-19_14h45.39.436,forced_choiceRT,2021.1.2,Win32,59.82292414,,,,,,,,,,,,,,,,,,,,,,
,0,f,1,1.7588,14,1,57,0,1,f.PNG,f,5a8352feae9a0b0001a9da8f,2021-10-19_14h45.39.436,forced_choiceRT,2021.1.2,Win32,59.82292414,,,,,,,,,,,,,,,,,,,,,,
,0,f,1,0.8036,14,2,58,0,1,f.PNG,f,5a8352feae9a0b0001a9da8f,2021-10-19_14h45.39.436,forced_choiceRT,2021.1.2,Win32,59.82292414,,,,,,,,,,,,,,,,,,,,,,
,0,h,1,1.5231,14,3,59,2,1,h.PNG,h,5a8352feae9a0b0001a9da8f,2021-10-19_14h45.39.436,forced_choiceRT,2021.1.2,Win32,59.82292414,,,,,,,,,,,,,,,,,,,,,,
,,,,,,,,,,,,5a8352feae9a0b0001a9da8f,2021-10-19_14h45.39.436,forced_choiceRT,2021.1.2,Win32,59.82292414,j,2.4265,0,0,0,0,1,,,,,,,,,,,,,,,
,,,,,,,,,,,,5a8352feae9a0b0001a9da8f,2021-10-19_14h45.39.436,forced_choiceRT,2021.1.2,Win32,59.82292414,j,2.3278,1,0,1,0,1,,,,,,,,,,,,,,,
,,,,,,,,,,,,5a8352feae9a0b0001a9da8f,2021-10-19_14h45.39.436,forced_choiceRT,2021.1.2,Win32,59.82292414,j,2.1139,2,0,2,0,1,,,,,,,,,,,,,,,
,,,,,,,,,,,,5a8352feae9a0b0001a9da8f,2021-10-19_14h45.39.436,forced_choiceRT,2021.1.2,Win32,59.82292414,j,1.8531,3,0,3,0,1,,,,,,,,,,,,,,,
,,,,,,,,,,,,5a8352feae9a0b0001a9da8f,2021-10-19_14h45.39.436,forced_choiceRT,2021.1.2,Win32,59.82292414,j,2.1504,4,0,4,0,1,,,,,,,,,,,,,,,
,,,,,,,,,,,,5a8352feae9a0b0001a9da8f,2021-10-19_14h45.39.436,forced_choiceRT,2021.1.2,Win32,59.82292414,j,1.9591,5,0,5,0,1,,,,,,,,,,,,,,,
,,,,,,,,,,,,5a8352feae9a0b0001a9da8f,2021-10-19_14h45.39.436,forced_choiceRT,2021.1.2,Win32,59.82292414,j,1.9277,6,0,6,0,1,,,,,,,,,,,,,,,
,,,,,,,,,,,,5a8352feae9a0b0001a9da8f,2021-10-19_14h45.39.436,forced_choiceRT,2021.1.2,Win32,59.82292414,j,2.0262,7,0,7,0,1,,,,,,,,,,,,,,,
,,,,,,,,,,,,5a8352feae9a0b0001a9da8f,2021-10-19_14h45.39.436,forced_choiceRT,2021.1.2,Win32,59.82292414,j,2.0628,8,0,8,0,1,,,,,,,,,,,,,,,
,,,,,,,,,,,,5a8352feae9a0b0001a9da8f,2021-10-19_14h45.39.436,forced_choiceRT,2021.1.2,Win32,59.82292414,j,1.8924,9,0,9,0,1,,,,,,,,,,,,,,,
,,,,,,,,,,,,5a8352feae9a0b0001a9da8f,2021-10-19_14h45.39.436,forced_choiceRT,2021.1.2,Win32,59.82292414,j,1.9575,10,0,10,0,1,,,,,,,,,,,,,,,
,,,,,,,,,,,,5a8352feae9a0b0001a9da8f,2021-10-19_14h45.39.436,forced_choiceRT,2021.1.2,Win32,59.82292414,j,1.9758,11,0,11,0,1,,,,,,,,,,,,,,,
,,,,,,,,,,,,5a8352feae9a0b0001a9da8f,2021-10-19_14h45.39.436,forced_choiceRT,2021.1.2,Win32,59.82292414,j,2.0664,12,0,12,0,1,,,,,,,,,,,,,,,
,,,,,,,,,,,,5a8352feae9a0b0001a9da8f,2021-10-19_14h45.39.436,forced_choiceRT,2021.1.2,Win32,59.82292414,j,2.06,13,0,13,0,1,,,,,,,,,,,,,,,
,,,,,,,,,,,,5a8352feae9a0b0001a9da8f,2021-10-19_14h45.39.436,forced_choiceRT,2021.1.2,Win32,59.82292414,j,2.009,14,0,14,0,1,,,,,,,,,,,,,,,
,,,,,,,,,,,,5a8352feae9a0b0001a9da8f,2021-10-19_14h45.39.436,forced_choiceRT,2021.1.2,Win32,59.82292414,j,2.3157,15,0,15,0,1,,,,,,,,,,,,,,,
,,,,,,,,,,,,5a8352feae9a0b0001a9da8f,2021-10-19_14h45.39.436,forced_choiceRT,2021.1.2,Win32,59.82292414,j,1.9091,16,0,16,0,1,,,,,,,,,,,,,,,
,,,,,,,,,,,,5a8352feae9a0b0001a9da8f,2021-10-19_14h45.39.436,forced_choiceRT,2021.1.2,Win32,59.82292414,j,1.9247,17,0,17,0,1,,,,,,,,,,,,,,,
,,,,,,,,,,,,5a8352feae9a0b0001a9da8f,2021-10-19_14h45.39.436,forced_choiceRT,2021.1.2,Win32,59.82292414,j,1.9371,18,0,18,0,1,,,,,,,,,,,,,,,
,,,,,,,,,,,,5a8352feae9a0b0001a9da8f,2021-10-19_14h45.39.436,forced_choiceRT,2021.1.2,Win32,59.82292414,j,2.0103,19,0,19,0,1,,,,,,,,,,,,,,,
,1.17,,,,,,,,,j.PNG,j,5a8352feae9a0b0001a9da8f,2021-10-19_14h45.39.436,forced_choiceRT,2021.1.2,Win32,59.82292414,,,,,,,,1,Fast,j,1,1.798,0,0,0,3,1,,,,,
,0.6,,,,,,,,,g.PNG,g,5a8352feae9a0b0001a9da8f,2021-10-19_14h45.39.436,forced_choiceRT,2021.1.2,Win32,59.82292414,,,,,,,,1,Slow,g,1,2.2643,0,1,1,1,1,,,,,
,0.02,,,,,,,,,f.PNG,f,5a8352feae9a0b0001a9da8f,2021-10-19_14h45.39.436,forced_choiceRT,2021.1.2,Win32,59.82292414,,,,,,,,1,Fast,f,1,1.8913,0,2,2,0,1,,,,,
,1.76,,,,,,,,,j.PNG,j,5a8352feae9a0b0001a9da8f,2021-10-19_14h45.39.436,forced_choiceRT,2021.1.2,Win32,59.82292414,,,,,,,,1,Slow,j,1,11.9238,0,3,3,3,1,,,,,
,0.11,,,,,,,,,g.PNG,g,5a8352feae9a0b0001a9da8f,2021-10-19_14h45.39.436,forced_choiceRT,2021.1.2,Win32,59.82292414,,,,,,,,1,Fast,g,1,1.5321,1,0,4,1,1,,,,,
,1.82,,,,,,,,,f.PNG,f,5a8352feae9a0b0001a9da8f,2021-10-19_14h45.39.436,forced_choiceRT,2021.1.2,Win32,59.82292414,,,,,,,,1,Ontime,g,0,2.0631,1,1,5,0,1,,,,,
,0.18,,,,,,,,,h.PNG,h,5a8352feae9a0b0001a9da8f,2021-10-19_14h45.39.436,forced_choiceRT,2021.1.2,Win32,59.82292414,,,,,,,,1,Fast,j,0,1.735,1,2,6,2,1,,,,,
,1.69,,,,,,,,,j.PNG,j,5a8352feae9a0b0001a9da8f,2021-10-19_14h45.39.436,forced_choiceRT,2021.1.2,Win32,59.82292414,,,,,,,,1,Ontime,j,1,2.0582,1,3,7,3,1,,,,,
,1.77,,,,,,,,,f.PNG,f,5a8352feae9a0b0001a9da8f,2021-10-19_14h45.39.436,forced_choiceRT,2021.1.2,Win32,59.82292414,,,,,,,,1,Ontime,j,0,2.014,2,0,8,0,1,,,,,
,0.74,,,,,,,,,g.PNG,g,5a8352feae9a0b0001a9da8f,2021-10-19_14h45.39.436,forced_choiceRT,2021.1.2,Win32,59.82292414,,,,,,,,1,Slow,g,1,2.4295,2,1,9,1,1,,,,,
,1.94,,,,,,,,,f.PNG,f,5a8352feae9a0b0001a9da8f,2021-10-19_14h45.39.436,forced_choiceRT,2021.1.2,Win32,59.82292414,,,,,,,,1,Slow,j,0,2.132,2,2,10,0,1,,,,,
,1.69,,,,,,,,,h.PNG,h,5a8352feae9a0b0001a9da8f,2021-10-19_14h45.39.436,forced_choiceRT,2021.1.2,Win32,59.82292414,,,,,,,,1,Ontime,g,0,1.9738,2,3,11,2,1,,,,,
,0.03,,,,,,,,,h.PNG,h,5a8352feae9a0b0001a9da8f,2021-10-19_14h45.39.436,forced_choiceRT,2021.1.2,Win32,59.82292414,,,,,,,,1,Fast,h,1,0.7104,3,0,12,2,1,,,,,
,1.95,,,,,,,,,h.PNG,h,5a8352feae9a0b0001a9da8f,2021-10-19_14h45.39.436,forced_choiceRT,2021.1.2,Win32,59.82292414,,,,,,,,1,Ontime,h,1,2.0198,3,1,13,2,1,,,,,
,1.87,,,,,,,,,j.PNG,j,5a8352feae9a0b0001a9da8f,2021-10-19_14h45.39.436,forced_choiceRT,2021.1.2,Win32,59.82292414,,,,,,,,1,Ontime,h,0,2.0243,3,2,14,3,1,,,,,
,0.89,,,,,,,,,j.PNG,j,5a8352feae9a0b0001a9da8f,2021-10-19_14h45.39.436,forced_choiceRT,2021.1.2,Win32,59.82292414,,,,,,,,1,Fast,j,1,1.3929,3,3,15,3,1,,,,,
,1.99,,,,,,,,,g.PNG,g,5a8352feae9a0b0001a9da8f,2021-10-19_14h45.39.436,forced_choiceRT,2021.1.2,Win32,59.82292414,,,,,,,,1,Ontime,j,0,2.0135,4,0,16,1,1,,,,,
,1.47,,,,,,,,,h.PNG,h,5a8352feae9a0b0001a9da8f,2021-10-19_14h45.39.436,forced_choiceRT,2021.1.2,Win32,59.82292414,,,,,,,,1,Fast,j,0,1.8415,4,1,17,2,1,,,,,
,1.85,,,,,,,,,f.PNG,f,5a8352feae9a0b0001a9da8f,2021-10-19_14h45.39.436,forced_choiceRT,2021.1.2,Win32,59.82292414,,,,,,,,1,Fast,j,0,1.5437,4,2,18,0,1,,,,,
,0.84,,,,,,,,,j.PNG,j,5a8352feae9a0b0001a9da8f,2021-10-19_14h45.39.436,forced_choiceRT,2021.1.2,Win32,59.82292414,,,,,,,,1,Ontime,j,1,2.0185,4,3,19,3,1,,,,,
,1.52,,,,,,,,,g.PNG,g,5a8352feae9a0b0001a9da8f,2021-10-19_14h45.39.436,forced_choiceRT,2021.1.2,Win32,59.82292414,,,,,,,,1,Fast,j,0,1.8422,5,0,20,1,1,,,,,
,1.95,,,,,,,,,h.PNG,h,5a8352feae9a0b0001a9da8f,2021-10-19_14h45.39.436,forced_choiceRT,2021.1.2,Win32,59.82292414,,,,,,,,1,Ontime,j,0,1.9251,5,1,21,2,1,,,,,
,0.99,,,,,,,,,f.PNG,f,5a8352feae9a0b0001a9da8f,2021-10-19_14h45.39.436,forced_choiceRT,2021.1.2,Win32,59.82292414,,,,,,,,1,Ontime,f,1,1.9517,5,2,22,0,1,,,,,
,0.92,,,,,,,,,f.PNG,f,5a8352feae9a0b0001a9da8f,2021-10-19_14h45.39.436,forced_choiceRT,2021.1.2,Win32,59.82292414,,,,,,,,1,Fast,f,1,1.6247,5,3,23,0,1,,,,,
,0.5,,,,,,,,,f.PNG,f,5a8352feae9a0b0001a9da8f,2021-10-19_14h45.39.436,forced_choiceRT,2021.1.2,Win32,59.82292414,,,,,,,,1,Fast,f,1,1.2224,6,0,24,0,1,,,,,
,0.4,,,,,,,,,h.PNG,h,5a8352feae9a0b0001a9da8f,2021-10-19_14h45.39.436,forced_choiceRT,2021.1.2,Win32,59.82292414,,,,,,,,1,Ontime,h,1,1.9832,6,1,25,2,1,,,,,
,1.76,,,,,,,,,g.PNG,g,5a8352feae9a0b0001a9da8f,2021-10-19_14h45.39.436,forced_choiceRT,2021.1.2,Win32,59.82292414,,,,,,,,1,Slow,h,0,2.1144,6,2,26,1,1,,,,,
,1.25,,,,,,,,,h.PNG,h,5a8352feae9a0b0001a9da8f,2021-10-19_14h45.39.436,forced_choiceRT,2021.1.2,Win32,59.82292414,,,,,,,,1,Ontime,h,1,1.9249,6,3,27,2,1,,,,,
,1.08,,,,,,,,,h.PNG,h,5a8352feae9a0b0001a9da8f,2021-10-19_14h45.39.436,forced_choiceRT,2021.1.2,Win32,59.82292414,,,,,,,,1,Ontime,h,1,1.9246,7,0,28,2,1,,,,,
,0.14,,,,,,,,,j.PNG,j,5a8352feae9a0b0001a9da8f,2021-10-19_14h45.39.436,forced_choiceRT,2021.1.2,Win32,59.82292414,,,,,,,,1,Fast,j,1,1.725,7,1,29,3,1,,,,,
,1.58,,,,,,,,,f.PNG,f,5a8352feae9a0b0001a9da8f,2021-10-19_14h45.39.436,forced_choiceRT,2021.1.2,Win32,59.82292414,,,,,,,,1,Fast,j,0,1.8749,7,2,30,0,1,,,,,
,0.64,,,,,,,,,g.PNG,g,5a8352feae9a0b0001a9da8f,2021-10-19_14h45.39.436,forced_choiceRT,2021.1.2,Win32,59.82292414,,,,,,,,1,Slow,g,1,3.4918,7,3,31,1,1,,,,,
,0.97,,,,,,,,,j.PNG,j,5a8352feae9a0b0001a9da8f,2021-10-19_14h45.39.436,forced_choiceRT,2021.1.2,Win32,59.82292414,,,,,,,,1,Fast,j,1,1.6889,8,0,32,3,1,,,,,
,0.4,,,,,,,,,g.PNG,g,5a8352feae9a0b0001a9da8f,2021-10-19_14h45.39.436,forced_choiceRT,2021.1.2,Win32,59.82292414,,,,,,,,1,Fast,g,1,1.8446,8,1,33,1,1,,,,,
,0.34,,,,,,,,,h.PNG,h,5a8352feae9a0b0001a9da8f,2021-10-19_14h45.39.436,forced_choiceRT,2021.1.2,Win32,59.82292414,,,,,,,,1,Ontime,h,1,2.0493,8,2,34,2,1,,,,,
,1.46,,,,,,,,,j.PNG,j,5a8352feae9a0b0001a9da8f,2021-10-19_14h45.39.436,forced_choiceRT,2021.1.2,Win32,59.82292414,,,,,,,,1,Slow,j,1,2.3106,8,3,35,3,1,,,,,
,1.16,,,,,,,,,g.PNG,g,5a8352feae9a0b0001a9da8f,2021-10-19_14h45.39.436,forced_choiceRT,2021.1.2,Win32,59.82292414,,,,,,,,1,Ontime,j,0,1.9839,9,0,36,1,1,,,,,
,0.41,,,,,,,,,j.PNG,j,5a8352feae9a0b0001a9da8f,2021-10-19_14h45.39.436,forced_choiceRT,2021.1.2,Win32,59.82292414,,,,,,,,1,Fast,j,1,1.2553,9,1,37,3,1,,,,,
,0.78,,,,,,,,,f.PNG,f,5a8352feae9a0b0001a9da8f,2021-10-19_14h45.39.436,forced_choiceRT,2021.1.2,Win32,59.82292414,,,,,,,,1,Ontime,f,1,1.9919,9,2,38,0,1,,,,,
,1.58,,,,,,,,,g.PNG,g,5a8352feae9a0b0001a9da8f,2021-10-19_14h45.39.436,forced_choiceRT,2021.1.2,Win32,59.82292414,,,,,,,,1,Slow,g,1,2.1681,9,3,39,1,1,,,,,
,,,,,,,,,,,,5a8352feae9a0b0001a9da8f,2021-10-19_14h45.39.436,forced_choiceRT,2021.1.2,Win32,59.82292414,,,,,,,,,,,,,,,,,,0,0,0,0,1
,1.45,,,,,,,,,j.PNG,j,5a8352feae9a0b0001a9da8f,2021-10-19_14h45.39.436,forced_choiceRT,2021.1.2,Win32,59.82292414,,,,,,,,2,Slow,j,1,2.4047,0,0,0,3,1,,,,,
,1.05,,,,,,,,,g.PNG,g,5a8352feae9a0b0001a9da8f,2021-10-19_14h45.39.436,forced_choiceRT,2021.1.2,Win32,59.82292414,,,,,,,,2,Ontime,f,0,1.9354,0,1,1,1,1,,,,,
,0.66,,,,,,,,,g.PNG,g,5a8352feae9a0b0001a9da8f,2021-10-19_14h45.39.436,forced_choiceRT,2021.1.2,Win32,59.82292414,,,,,,,,2,Fast,g,1,1.5063,0,2,2,1,1,,,,,
,0.65,,,,,,,,,f.PNG,f,5a8352feae9a0b0001a9da8f,2021-10-19_14h45.39.436,forced_choiceRT,2021.1.2,Win32,59.82292414,,,,,,,,2,Fast,f,1,1.5899,0,3,3,0,1,,,,,
,0.9,,,,,,,,,h.PNG,h,5a8352feae9a0b0001a9da8f,2021-10-19_14h45.39.436,forced_choiceRT,2021.1.2,Win32,59.82292414,,,,,,,,2,Fast,j,0,1.9,1,0,4,2,1,,,,,
,0.29,,,,,,,,,g.PNG,g,5a8352feae9a0b0001a9da8f,2021-10-19_14h45.39.436,forced_choiceRT,2021.1.2,Win32,59.82292414,,,,,,,,2,Ontime,g,1,1.9623,1,1,5,1,1,,,,,
,0.64,,,,,,,,,j.PNG,j,5a8352feae9a0b0001a9da8f,2021-10-19_14h45.39.436,forced_choiceRT,2021.1.2,Win32,59.82292414,,,,,,,,2,Slow,j,1,2.2087,1,2,6,3,1,,,,,
,1.53,,,,,,,,,f.PNG,f,5a8352feae9a0b0001a9da8f,2021-10-19_14h45.39.436,forced_choiceRT,2021.1.2,Win32,59.82292414,,,,,,,,2,Slow,f,1,2.3272,1,3,7,0,1,,,,,
,0.99,,,,,,,,,j.PNG,j,5a8352feae9a0b0001a9da8f,2021-10-19_14h45.39.436,forced_choiceRT,2021.1.2,Win32,59.82292414,,,,,,,,2,Fast,j,1,1.7585,2,0,8,3,1,,,,,
,0.35,,,,,,,,,g.PNG,g,5a8352feae9a0b0001a9da8f,2021-10-19_14h45.39.436,forced_choiceRT,2021.1.2,Win32,59.82292414,,,,,,,,2,Fast,g,1,1.8573,2,1,9,1,1,,,,,
,0.71,,,,,,,,,f.PNG,f,5a8352feae9a0b0001a9da8f,2021-10-19_14h45.39.436,forced_choiceRT,2021.1.2,Win32,59.82292414,,,,,,,,2,Slow,f,1,2.1591,2,2,10,0,1,,,,,
,1.46,,,,,,,,,j.PNG,j,5a8352feae9a0b0001a9da8f,2021-10-19_14h45.39.436,forced_choiceRT,2021.1.2,Win32,59.82292414,,,,,,,,2,Ontime,j,1,2.0639,2,3,11,3,1,,,,,
,1.78,,,,,,,,,f.PNG,f,5a8352feae9a0b0001a9da8f,2021-10-19_14h45.39.436,forced_choiceRT,2021.1.2,Win32,59.82292414,,,,,,,,2,Slow,g,0,2.354,3,0,12,0,1,,,,,
,1.49,,,,,,,,,h.PNG,h,5a8352feae9a0b0001a9da8f,2021-10-19_14h45.39.436,forced_choiceRT,2021.1.2,Win32,59.82292414,,,,,,,,2,Ontime,j,0,2.0831,3,1,13,2,1,,,,,
,1.22,,,,,,,,,j.PNG,j,5a8352feae9a0b0001a9da8f,2021-10-19_14h45.39.436,forced_choiceRT,2021.1.2,Win32,59.82292414,,,,,,,,2,Slow,j,1,2.1453,3,2,14,3,1,,,,,
,0.65,,,,,,,,,f.PNG,f,5a8352feae9a0b0001a9da8f,2021-10-19_14h45.39.436,forced_choiceRT,2021.1.2,Win32,59.82292414,,,,,,,,2,Fast,f,1,1.2606,3,3,15,0,1,,,,,
,0.57,,,,,,,,,h.PNG,h,5a8352feae9a0b0001a9da8f,2021-10-19_14h45.39.436,forced_choiceRT,2021.1.2,Win32,59.82292414,,,,,,,,2,Fast,j,0,1.6101,4,0,16,2,1,,,,,
,1.23,,,,,,,,,f.PNG,f,5a8352feae9a0b0001a9da8f,2021-10-19_14h45.39.436,forced_choiceRT,2021.1.2,Win32,59.82292414,,,,,,,,2,Ontime,f,1,2.0928,4,1,17,0,1,,,,,
,0.55,,,,,,,,,f.PNG,f,5a8352feae9a0b0001a9da8f,2021-10-19_14h45.39.436,forced_choiceRT,2021.1.2,Win32,59.82292414,,,,,,,,2,Fast,f,1,1.5398,4,2,18,0,1,,,,,
,1.01,,,,,,,,,g.PNG,g,5a8352feae9a0b0001a9da8f,2021-10-19_14h45.39.436,forced_choiceRT,2021.1.2,Win32,59.82292414,,,,,,,,2,Ontime,h,0,1.9909,4,3,19,1,1,,,,,
,0.65,,,,,,,,,g.PNG,g,5a8352feae9a0b0001a9da8f,2021-10-19_14h45.39.436,forced_choiceRT,2021.1.2,Win32,59.82292414,,,,,,,,2,Fast,g,1,1.2482,5,0,20,1,1,,,,,
,1.72,,,,,,,,,j.PNG,j,5a8352feae9a0b0001a9da8f,2021-10-19_14h45.39.436,forced_choiceRT,2021.1.2,Win32,59.82292414,,,,,,,,2,Slow,j,1,2.6822,5,1,21,3,1,,,,,
,1.9,,,,,,,,,g.PNG,g,5a8352feae9a0b0001a9da8f,2021-10-19_14h45.39.436,forced_choiceRT,2021.1.2,Win32,59.82292414,,,,,,,,2,Slow,j,0,3.5978,5,2,22,1,1,,,,,
,0.34,,,,,,,,,j.PNG,j,5a8352feae9a0b0001a9da8f,2021-10-19_14h45.39.436,forced_choiceRT,2021.1.2,Win32,59.82292414,,,,,,,,2,Fast,j,1,1.651,5,3,23,3,1,,,,,
,0.25,,,,,,,,,g.PNG,g,5a8352feae9a0b0001a9da8f,2021-10-19_14h45.39.436,forced_choiceRT,2021.1.2,Win32,59.82292414,,,,,,,,2,Ontime,h,0,1.9663,6,0,24,1,1,,,,,
,0.61,,,,,,,,,j.PNG,j,5a8352feae9a0b0001a9da8f,2021-10-19_14h45.39.436,forced_choiceRT,2021.1.2,Win32,59.82292414,,,,,,,,2,Fast,j,1,1.4897,6,1,25,3,1,,,,,
,0.46,,,,,,,,,f.PNG,f,5a8352feae9a0b0001a9da8f,2021-10-19_14h45.39.436,forced_choiceRT,2021.1.2,Win32,59.82292414,,,,,,,,2,Fast,f,1,1.407,6,2,26,0,1,,,,,
,0.57,,,,,,,,,j.PNG,j,5a8352feae9a0b0001a9da8f,2021-10-19_14h45.39.436,forced_choiceRT,2021.1.2,Win32,59.82292414,,,,,,,,2,Ontime,j,1,2.0088,6,3,27,3,1,,,,,
,0.1,,,,,,,,,j.PNG,j,5a8352feae9a0b0001a9da8f,2021-10-19_14h45.39.436,forced_choiceRT,2021.1.2,Win32,59.82292414,,,,,,,,2,Ontime,j,1,1.9121,7,0,28,3,1,,,,,
,0.5,,,,,,,,,h.PNG,h,5a8352feae9a0b0001a9da8f,2021-10-19_14h45.39.436,forced_choiceRT,2021.1.2,Win32,59.82292414,,,,,,,,2,Slow,h,1,2.1383,7,1,29,2,1,,,,,
,1.48,,,,,,,,,g.PNG,g,5a8352feae9a0b0001a9da8f,2021-10-19_14h45.39.436,forced_choiceRT,2021.1.2,Win32,59.82292414,,,,,,,,2,Slow,g,1,2.1273,7,2,30,1,1,,,,,
,0.19,,,,,,,,,h.PNG,h,5a8352feae9a0b0001a9da8f,2021-10-19_14h45.39.436,forced_choiceRT,2021.1.2,Win32,59.82292414,,,,,,,,2,Ontime,h,1,1.9758,7,3,31,2,1,,,,,
,1.44,,,,,,,,,h.PNG,h,5a8352feae9a0b0001a9da8f,2021-10-19_14h45.39.436,forced_choiceRT,2021.1.2,Win32,59.82292414,,,,,,,,2,Ontime,h,1,2.096,8,0,32,2,1,,,,,
,1.17,,,,,,,,,h.PNG,h,5a8352feae9a0b0001a9da8f,2021-10-19_14h45.39.436,forced_choiceRT,2021.1.2,Win32,59.82292414,,,,,,,,2,Ontime,h,1,2.0854,8,1,33,2,1,,,,,
,1.69,,,,,,,,,h.PNG,h,5a8352feae9a0b0001a9da8f,2021-10-19_14h45.39.436,forced_choiceRT,2021.1.2,Win32,59.82292414,,,,,,,,2,Slow,h,1,2.2078,8,2,34,2,1,,,,,
,0.13,,,,,,,,,h.PNG,h,5a8352feae9a0b0001a9da8f,2021-10-19_14h45.39.436,forced_choiceRT,2021.1.2,Win32,59.82292414,,,,,,,,2,Ontime,h,1,1.9574,8,3,35,2,1,,,,,
,1.8,,,,,,,,,h.PNG,h,5a8352feae9a0b0001a9da8f,2021-10-19_14h45.39.436,forced_choiceRT,2021.1.2,Win32,59.82292414,,,,,,,,2,Slow,h,1,2.16,9,0,36,2,1,,,,,
,1.93,,,,,,,,,f.PNG,f,5a8352feae9a0b0001a9da8f,2021-10-19_14h45.39.436,forced_choiceRT,2021.1.2,Win32,59.82292414,,,,,,,,2,Ontime,h,0,2.0004,9,1,37,0,1,,,,,
,0.12,,,,,,,,,f.PNG,f,5a8352feae9a0b0001a9da8f,2021-10-19_14h45.39.436,forced_choiceRT,2021.1.2,Win32,59.82292414,,,,,,,,2,Fast,f,1,1.758,9,2,38,0,1,,,,,
,0.98,,,,,,,,,g.PNG,g,5a8352feae9a0b0001a9da8f,2021-10-19_14h45.39.436,forced_choiceRT,2021.1.2,Win32,59.82292414,,,,,,,,2,Slow,h,0,2.3138,9,3,39,1,1,,,,,
,,,,,,,,,,,,5a8352feae9a0b0001a9da8f,2021-10-19_14h45.39.436,forced_choiceRT,2021.1.2,Win32,59.82292414,,,,,,,,,,,,,,,,,,1,0,1,0,1
,1.78,,,,,,,,,h.PNG,h,5a8352feae9a0b0001a9da8f,2021-10-19_14h45.39.436,forced_choiceRT,2021.1.2,Win32,59.82292414,,,,,,,,3,Ontime,h,1,2.0482,0,0,0,2,1,,,,,
,0.97,,,,,,,,,f.PNG,f,5a8352feae9a0b0001a9da8f,2021-10-19_14h45.39.436,forced_choiceRT,2021.1.2,Win32,59.82292414,,,,,,,,3,Slow,f,1,4.8465,0,1,1,0,1,,,,,
,1.02,,,,,,,,,g.PNG,g,5a8352feae9a0b0001a9da8f,2021-10-19_14h45.39.436,forced_choiceRT,2021.1.2,Win32,59.82292414,,,,,,,,3,Fast,g,1,1.7315,0,2,2,1,1,,,,,
,0.18,,,,,,,,,f.PNG,f,5a8352feae9a0b0001a9da8f,2021-10-19_14h45.39.436,forced_choiceRT,2021.1.2,Win32,59.82292414,,,,,,,,3,Fast,f,1,1.8299,0,3,3,0,1,,,,,
,1.19,,,,,,,,,h.PNG,h,5a8352feae9a0b0001a9da8f,2021-10-19_14h45.39.436,forced_choiceRT,2021.1.2,Win32,59.82292414,,,,,,,,3,Ontime,h,1,2.0254,1,0,4,2,1,,,,,
,1.26,,,,,,,,,h.PNG,h,5a8352feae9a0b0001a9da8f,2021-10-19_14h45.39.436,forced_choiceRT,2021.1.2,Win32,59.82292414,,,,,,,,3,Ontime,h,1,2.0297,1,1,5,2,1,,,,,
,0.56,,,,,,,,,j.PNG,j,5a8352feae9a0b0001a9da8f,2021-10-19_14h45.39.436,forced_choiceRT,2021.1.2,Win32,59.82292414,,,,,,,,3,Ontime,j,1,1.9985,1,2,6,3,1,,,,,
,0.5,,,,,,,,,f.PNG,f,5a8352feae9a0b0001a9da8f,2021-10-19_14h45.39.436,forced_choiceRT,2021.1.2,Win32,59.82292414,,,,,,,,3,Fast,f,1,1.8274,1,3,7,0,1,,,,,
,1.53,,,,,,,,,j.PNG,j,5a8352feae9a0b0001a9da8f,2021-10-19_14h45.39.436,forced_choiceRT,2021.1.2,Win32,59.82292414,,,,,,,,3,Slow,h,0,2.1584,2,0,8,3,1,,,,,
,0.44,,,,,,,,,h.PNG,h,5a8352feae9a0b0001a9da8f,2021-10-19_14h45.39.436,forced_choiceRT,2021.1.2,Win32,59.82292414,,,,,,,,3,Fast,h,1,1.5906,2,1,9,2,1,,,,,
,1.9,,,,,,,,,j.PNG,j,5a8352feae9a0b0001a9da8f,2021-10-19_14h45.39.436,forced_choiceRT,2021.1.2,Win32,59.82292414,,,,,,,,3,Slow,j,1,3.3859,2,2,10,3,1,,,,,
,0.82,,,,,,,,,g.PNG,g,5a8352feae9a0b0001a9da8f,2021-10-19_14h45.39.436,forced_choiceRT,2021.1.2,Win32,59.82292414,,,,,,,,3,Slow,g,1,2.1419,2,3,11,1,1,,,,,
,0.97,,,,,,,,,j.PNG,j,5a8352feae9a0b0001a9da8f,2021-10-19_14h45.39.436,forced_choiceRT,2021.1.2,Win32,59.82292414,,,,,,,,3,Fast,j,1,1.8068,3,0,12,3,1,,,,,
,1.16,,,,,,,,,j.PNG,j,5a8352feae9a0b0001a9da8f,2021-10-19_14h45.39.436,forced_choiceRT,2021.1.2,Win32,59.82292414,,,,,,,,3,Fast,j,1,1.7402,3,1,13,3,1,,,,,
,0.39,,,,,,,,,j.PNG,j,5a8352feae9a0b0001a9da8f,2021-10-19_14h45.39.436,forced_choiceRT,2021.1.2,Win32,59.82292414,,,,,,,,3,Ontime,j,1,1.9331,3,2,14,3,1,,,,,
,0.37,,,,,,,,,f.PNG,f,5a8352feae9a0b0001a9da8f,2021-10-19_14h45.39.436,forced_choiceRT,2021.1.2,Win32,59.82292414,,,,,,,,3,Fast,f,1,1.8578,3,3,15,0,1,,,,,
,1.97,,,,,,,,,h.PNG,h,5a8352feae9a0b0001a9da8f,2021-10-19_14h45.39.436,forced_choiceRT,2021.1.2,Win32,59.82292414,,,,,,,,3,Slow,j,0,2.295,4,0,16,2,1,,,,,
,1.26,,,,,,,,,g.PNG,g,5a8352feae9a0b0001a9da8f,2021-10-19_14h45.39.436,forced_choiceRT,2021.1.2,Win32,59.82292414,,,,,,,,3,Ontime,g,1,2.0117,4,1,17,1,1,,,,,
,1.76,,,,,,,,,f.PNG,f,5a8352feae9a0b0001a9da8f,2021-10-19_14h45.39.436,forced_choiceRT,2021.1.2,Win32,59.82292414,,,,,,,,3,Slow,g,0,2.1013,4,2,18,0,1,,,,,
,1.16,,,,,,,,,g.PNG,g,5a8352feae9a0b0001a9da8f,2021-10-19_14h45.39.436,forced_choiceRT,2021.1.2,Win32,59.82292414,,,,,,,,3,Fast,g,1,1.8951,4,3,19,1,1,,,,,
,0.54,,,,,,,,,g.PNG,g,5a8352feae9a0b0001a9da8f,2021-10-19_14h45.39.436,forced_choiceRT,2021.1.2,Win32,59.82292414,,,,,,,,3,Fast,g,1,1.8825,5,0,20,1,1,,,,,
,1.77,,,,,,,,,j.PNG,j,5a8352feae9a0b0001a9da8f,2021-10-19_14h45.39.436,forced_choiceRT,2021.1.2,Win32,59.82292414,,,,,,,,3,Slow,h,0,2.3431,5,1,21,3,1,,,,,
,0.16,,,,,,,,,h.PNG,h,5a8352feae9a0b0001a9da8f,2021-10-19_14h45.39.436,forced_choiceRT,2021.1.2,Win32,59.82292414,,,,,,,,3,Ontime,h,1,2.076,5,2,22,2,1,,,,,
,0.91,,,,,,,,,g.PNG,g,5a8352feae9a0b0001a9da8f,2021-10-19_14h45.39.436,forced_choiceRT,2021.1.2,Win32,59.82292414,,,,,,,,3,Ontime,h,0,2.0496,5,3,23,1,1,,,,,
,0.44,,,,,,,,,f.PNG,f,5a8352feae9a0b0001a9da8f,2021-10-19_14h45.39.436,forced_choiceRT,2021.1.2,Win32,59.82292414,,,,,,,,3,Ontime,f,1,2.0747,6,0,24,0,1,,,,,
,0.14,,,,,,,,,h.PNG,h,5a8352feae9a0b0001a9da8f,2021-10-19_14h45.39.436,forced_choiceRT,2021.1.2,Win32,59.82292414,,,,,,,,3,Ontime,h,1,1.9653,6,1,25,2,1,,,,,
,0.95,,,,,,,,,h.PNG,h,5a8352feae9a0b0001a9da8f,2021-10-19_14h45.39.436,forced_choiceRT,2021.1.2,Win32,59.82292414,,,,,,,,3,Fast,h,1,1.6944,6,2,26,2,1,,,,,
,1.84,,,,,,,,,g.PNG,g,5a8352feae9a0b0001a9da8f,2021-10-19_14h45.39.436,forced_choiceRT,2021.1.2,Win32,59.82292414,,,,,,,,3,Slow,h,0,2.449,6,3,27,1,1,,,,,
,1.3,,,,,,,,,f.PNG,f,5a8352feae9a0b0001a9da8f,2021-10-19_14h45.39.436,forced_choiceRT,2021.1.2,Win32,59.82292414,,,,,,,,3,Slow,f,1,2.1163,7,0,28,0,1,,,,,
,1.13,,,,,,,,,j.PNG,j,5a8352feae9a0b0001a9da8f,2021-10-19_14h45.39.436,forced_choiceRT,2021.1.2,Win32,59.82292414,,,,,,,,3,Fast,h,0,1.7653,7,1,29,3,1,,,,,
,0.38,,,,,,,,,j.PNG,j,5a8352feae9a0b0001a9da8f,2021-10-19_14h45.39.436,forced_choiceRT,2021.1.2,Win32,59.82292414,,,,,,,,3,Slow,j,1,7.7881,7,2,30,3,1,,,,,
,0.46,,,,,,,,,g.PNG,g,5a8352feae9a0b0001a9da8f,2021-10-19_14h45.39.436,forced_choiceRT,2021.1.2,Win32,59.82292414,,,,,,,,3,Fast,h,0,1.7732,7,3,31,1,1,,,,,
,0.95,,,,,,,,,h.PNG,h,5a8352feae9a0b0001a9da8f,2021-10-19_14h45.39.436,forced_choiceRT,2021.1.2,Win32,59.82292414,,,,,,,,3,Slow,h,1,2.2832,8,0,32,2,1,,,,,
,0.95,,,,,,,,,f.PNG,f,5a8352feae9a0b0001a9da8f,2021-10-19_14h45.39.436,forced_choiceRT,2021.1.2,Win32,59.82292414,,,,,,,,3,Fast,f,1,1.7566,8,1,33,0,1,,,,,
,0.1,,,,,,,,,g.PNG,g,5a8352feae9a0b0001a9da8f,2021-10-19_14h45.39.436,forced_choiceRT,2021.1.2,Win32,59.82292414,,,,,,,,3,Fast,h,0,1.5068,8,2,34,1,1,,,,,
,1.65,,,,,,,,,h.PNG,h,5a8352feae9a0b0001a9da8f,2021-10-19_14h45.39.436,forced_choiceRT,2021.1.2,Win32,59.82292414,,,,,,,,3,Ontime,j,0,1.9768,8,3,35,2,1,,,,,
,1.79,,,,,,,,,f.PNG,f,5a8352feae9a0b0001a9da8f,2021-10-19_14h45.39.436,forced_choiceRT,2021.1.2,Win32,59.82292414,,,,,,,,3,Ontime,h,0,2.08,9,0,36,0,1,,,,,
,1.16,,,,,,,,,g.PNG,g,5a8352feae9a0b0001a9da8f,2021-10-19_14h45.39.436,forced_choiceRT,2021.1.2,Win32,59.82292414,,,,,,,,3,Slow,g,1,2.1429,9,1,37,1,1,,,,,
,0.92,,,,,,,,,f.PNG,f,5a8352feae9a0b0001a9da8f,2021-10-19_14h45.39.436,forced_choiceRT,2021.1.2,Win32,59.82292414,,,,,,,,3,Fast,f,1,1.6245,9,2,38,0,1,,,,,
,0.99,,,,,,,,,j.PNG,j,5a8352feae9a0b0001a9da8f,2021-10-19_14h45.39.436,forced_choiceRT,2021.1.2,Win32,59.82292414,,,,,,,,3,Fast,j,1,1.6575,9,3,39,3,1,,,,,
,,,,,,,,,,,,5a8352feae9a0b0001a9da8f,2021-10-19_14h45.39.436,forced_choiceRT,2021.1.2,Win32,59.82292414,,,,,,,,,,,,,,,,,,2,0,2,0,1
,0.59,,,,,,,,,j.PNG,j,5a8352feae9a0b0001a9da8f,2021-10-19_14h45.39.436,forced_choiceRT,2021.1.2,Win32,59.82292414,,,,,,,,4,Fast,j,1,1.4338,0,0,0,3,1,,,,,
,0.65,,,,,,,,,g.PNG,g,5a8352feae9a0b0001a9da8f,2021-10-19_14h45.39.436,forced_choiceRT,2021.1.2,Win32,59.82292414,,,,,,,,4,Fast,h,0,1.7249,0,1,1,1,1,,,,,
,0.6,,,,,,,,,j.PNG,j,5a8352feae9a0b0001a9da8f,2021-10-19_14h45.39.436,forced_choiceRT,2021.1.2,Win32,59.82292414,,,,,,,,4,Ontime,j,1,2.0922,0,2,2,3,1,,,,,
,0.46,,,,,,,,,f.PNG,f,5a8352feae9a0b0001a9da8f,2021-10-19_14h45.39.436,forced_choiceRT,2021.1.2,Win32,59.82292414,,,,,,,,4,Ontime,f,1,2.0763,0,3,3,0,1,,,,,
,0.89,,,,,,,,,f.PNG,f,5a8352feae9a0b0001a9da8f,2021-10-19_14h45.39.436,forced_choiceRT,2021.1.2,Win32,59.82292414,,,,,,,,4,Ontime,f,1,1.909,1,0,4,0,1,,,,,
,1.55,,,,,,,,,g.PNG,g,5a8352feae9a0b0001a9da8f,2021-10-19_14h45.39.436,forced_choiceRT,2021.1.2,Win32,59.82292414,,,,,,,,4,Slow,j,0,2.1264,1,1,5,1,1,,,,,
,0.14,,,,,,,,,h.PNG,h,5a8352feae9a0b0001a9da8f,2021-10-19_14h45.39.436,forced_choiceRT,2021.1.2,Win32,59.82292414,,,,,,,,4,Ontime,h,1,2.0257,1,2,6,2,1,,,,,
,0.41,,,,,,,,,f.PNG,f,5a8352feae9a0b0001a9da8f,2021-10-19_14h45.39.436,forced_choiceRT,2021.1.2,Win32,59.82292414,,,,,,,,4,Slow,f,1,2.1925,1,3,7,0,1,,,,,
,0.36,,,,,,,,,h.PNG,h,5a8352feae9a0b0001a9da8f,2021-10-19_14h45.39.436,forced_choiceRT,2021.1.2,Win32,59.82292414,,,,,,,,4,Fast,h,1,1.5406,2,0,8,2,1,,,,,
,0.05,,,,,,,,,j.PNG,j,5a8352feae9a0b0001a9da8f,2021-10-19_14h45.39.436,forced_choiceRT,2021.1.2,Win32,59.82292414,,,,,,,,4,Ontime,j,1,2.043,2,1,9,3,1,,,,,
,0.68,,,,,,,,,h.PNG,h,5a8352feae9a0b0001a9da8f,2021-10-19_14h45.39.436,forced_choiceRT,2021.1.2,Win32,59.82292414,,,,,,,,4,Ontime,h,1,2.093,2,2,10,2,1,,,,,
,0.63,,,,,,,,,h.PNG,h,5a8352feae9a0b0001a9da8f,2021-10-19_14h45.39.436,forced_choiceRT,2021.1.2,Win32,59.82292414,,,,,,,,4,Slow,h,1,2.178,2,3,11,2,1,,,,,
,0.84,,,,,,,,,f.PNG,f,5a8352feae9a0b0001a9da8f,2021-10-19_14h45.39.436,forced_choiceRT,2021.1.2,Win32,59.82292414,,,,,,,,4,Fast,f,1,1.8588,3,0,12,0,1,,,,,
,0.92,,,,,,,,,h.PNG,h,5a8352feae9a0b0001a9da8f,2021-10-19_14h45.39.436,forced_choiceRT,2021.1.2,Win32,59.82292414,,,,,,,,4,Fast,h,1,1.7749,3,1,13,2,1,,,,,
,1.72,,,,,,,,,g.PNG,g,5a8352feae9a0b0001a9da8f,2021-10-19_14h45.39.436,forced_choiceRT,2021.1.2,Win32,59.82292414,,,,,,,,4,Slow,g,1,2.3438,3,2,14,1,1,,,,,
,1.75,,,,,,,,,g.PNG,g,5a8352feae9a0b0001a9da8f,2021-10-19_14h45.39.436,forced_choiceRT,2021.1.2,Win32,59.82292414,,,,,,,,4,Slow,g,1,2.2785,3,3,15,1,1,,,,,
,1.26,,,,,,,,,j.PNG,j,5a8352feae9a0b0001a9da8f,2021-10-19_14h45.39.436,forced_choiceRT,2021.1.2,Win32,59.82292414,,,,,,,,4,Fast,g,0,1.6578,4,0,16,3,1,,,,,
,0.66,,,,,,,,,j.PNG,j,5a8352feae9a0b0001a9da8f,2021-10-19_14h45.39.436,forced_choiceRT,2021.1.2,Win32,59.82292414,,,,,,,,4,Fast,j,1,1.6413,4,1,17,3,1,,,,,
,0.36,,,,,,,,,f.PNG,f,5a8352feae9a0b0001a9da8f,2021-10-19_14h45.39.436,forced_choiceRT,2021.1.2,Win32,59.82292414,,,,,,,,4,Slow,f,1,2.1584,4,2,18,0,1,,,,,
,1.04,,,,,,,,,g.PNG,g,5a8352feae9a0b0001a9da8f,2021-10-19_14h45.39.436,forced_choiceRT,2021.1.2,Win32,59.82292414,,,,,,,,4,Slow,g,1,2.3236,4,3,19,1,1,,,,,
,1.33,,,,,,,,,g.PNG,g,5a8352feae9a0b0001a9da8f,2021-10-19_14h45.39.436,forced_choiceRT,2021.1.2,Win32,59.82292414,,,,,,,,4,Ontime,g,1,1.9311,5,0,20,1,1,,,,,
,0.01,,,,,,,,,h.PNG,h,5a8352feae9a0b0001a9da8f,2021-10-19_14h45.39.436,forced_choiceRT,2021.1.2,Win32,59.82292414,,,,,,,,4,Ontime,h,1,2.0585,5,1,21,2,1,,,,,
,0.6,,,,,,,,,f.PNG,f,5a8352feae9a0b0001a9da8f,2021-10-19_14h45.39.436,forced_choiceRT,2021.1.2,Win32,59.82292414,,,,,,,,4,Slow,f,1,2.1494,5,2,22,0,1,,,,,
,1.55,,,,,,,,,h.PNG,h,5a8352feae9a0b0001a9da8f,2021-10-19_14h45.39.436,forced_choiceRT,2021.1.2,Win32,59.82292414,,,,,,,,4,Slow,h,1,2.1107,5,3,23,2,1,,,,,
,0.13,,,,,,,,,g.PNG,g,5a8352feae9a0b0001a9da8f,2021-10-19_14h45.39.436,forced_choiceRT,2021.1.2,Win32,59.82292414,,,,,,,,4,Fast,g,1,1.866,6,0,24,1,1,,,,,
,1.44,,,,,,,,,h.PNG,h,5a8352feae9a0b0001a9da8f,2021-10-19_14h45.39.436,forced_choiceRT,2021.1.2,Win32,59.82292414,,,,,,,,4,Ontime,h,1,1.9269,6,1,25,2,1,,,,,
,1.14,,,,,,,,,f.PNG,f,5a8352feae9a0b0001a9da8f,2021-10-19_14h45.39.436,forced_choiceRT,2021.1.2,Win32,59.82292414,,,,,,,,4,Ontime,f,1,1.9753,6,2,26,0,1,,,,,
,1.39,,,,,,,,,j.PNG,j,5a8352feae9a0b0001a9da8f,2021-10-19_14h45.39.436,forced_choiceRT,2021.1.2,Win32,59.82292414,,,,,,,,4,Ontime,j,1,2.079,6,3,27,3,1,,,,,
,0.03,,,,,,,,,g.PNG,g,5a8352feae9a0b0001a9da8f,2021-10-19_14h45.39.436,forced_choiceRT,2021.1.2,Win32,59.82292414,,,,,,,,4,Fast,g,1,1.6059,7,0,28,1,1,,,,,
,1.13,,,,,,,,,g.PNG,g,5a8352feae9a0b0001a9da8f,2021-10-19_14h45.39.436,forced_choiceRT,2021.1.2,Win32,59.82292414,,,,,,,,4,Ontime,g,1,1.9503,7,1,29,1,1,,,,,
,0.57,,,,,,,,,f.PNG,f,5a8352feae9a0b0001a9da8f,2021-10-19_14h45.39.436,forced_choiceRT,2021.1.2,Win32,59.82292414,,,,,,,,4,Slow,f,1,2.126,7,2,30,0,1,,,,,
,0.99,,,,,,,,,h.PNG,h,5a8352feae9a0b0001a9da8f,2021-10-19_14h45.39.436,forced_choiceRT,2021.1.2,Win32,59.82292414,,,,,,,,4,Slow,h,1,2.311,7,3,31,2,1,,,,,
,1.17,,,,,,,,,j.PNG,j,5a8352feae9a0b0001a9da8f,2021-10-19_14h45.39.436,forced_choiceRT,2021.1.2,Win32,59.82292414,,,,,,,,4,Fast,j,1,1.5072,8,0,32,3,1,,,,,
,1.19,,,,,,,,,h.PNG,h,5a8352feae9a0b0001a9da8f,2021-10-19_14h45.39.436,forced_choiceRT,2021.1.2,Win32,59.82292414,,,,,,,,4,Fast,h,1,1.774,8,1,33,2,1,,,,,
,0.48,,,,,,,,,g.PNG,g,5a8352feae9a0b0001a9da8f,2021-10-19_14h45.39.436,forced_choiceRT,2021.1.2,Win32,59.82292414,,,,,,,,4,Fast,g,1,1.2046,8,2,34,1,1,,,,,
,1.96,,,,,,,,,j.PNG,j,5a8352feae9a0b0001a9da8f,2021-10-19_14h45.39.436,forced_choiceRT,2021.1.2,Win32,59.82292414,,,,,,,,4,Slow,h,0,2.3094,8,3,35,3,1,,,,,
,1.15,,,,,,,,,j.PNG,j,5a8352feae9a0b0001a9da8f,2021-10-19_14h45.39.436,forced_choiceRT,2021.1.2,Win32,59.82292414,,,,,,,,4,Fast,j,1,1.7643,9,0,36,3,1,,,,,
,1.69,,,,,,,,,f.PNG,f,5a8352feae9a0b0001a9da8f,2021-10-19_14h45.39.436,forced_choiceRT,2021.1.2,Win32,59.82292414,,,,,,,,4,Slow,g,0,2.2425,9,1,37,0,1,,,,,
,1.25,,,,,,,,,f.PNG,f,5a8352feae9a0b0001a9da8f,2021-10-19_14h45.39.436,forced_choiceRT,2021.1.2,Win32,59.82292414,,,,,,,,4,Ontime,f,1,1.9181,9,2,38,0,1,,,,,
,0.72,,,,,,,,,j.PNG,j,5a8352feae9a0b0001a9da8f,2021-10-19_14h45.39.436,forced_choiceRT,2021.1.2,Win32,59.82292414,,,,,,,,4,Fast,j,1,1.4237,9,3,39,3,1,,,,,
,,,,,,,,,,,,5a8352feae9a0b0001a9da8f,2021-10-19_14h45.39.436,forced_choiceRT,2021.1.2,Win32,59.82292414,,,,,,,,,,,,,,,,,,3,0,3,0,1
,0.68,,,,,,,,,j.PNG,j,5a8352feae9a0b0001a9da8f,2021-10-19_14h45.39.436,forced_choiceRT,2021.1.2,Win32,59.82292414,,,,,,,,5,Fast,j,1,1.5264,0,0,0,3,1,,,,,
,1.38,,,,,,,,,f.PNG,f,5a8352feae9a0b0001a9da8f,2021-10-19_14h45.39.436,forced_choiceRT,2021.1.2,Win32,59.82292414,,,,,,,,5,Ontime,f,1,2.0503,0,1,1,0,1,,,,,
,1.38,,,,,,,,,f.PNG,f,5a8352feae9a0b0001a9da8f,2021-10-19_14h45.39.436,forced_choiceRT,2021.1.2,Win32,59.82292414,,,,,,,,5,Ontime,f,1,2.0559,0,2,2,0,1,,,,,
,0.5,,,,,,,,,f.PNG,f,5a8352feae9a0b0001a9da8f,2021-10-19_14h45.39.436,forced_choiceRT,2021.1.2,Win32,59.82292414,,,,,,,,5,Fast,f,1,1.7523,0,3,3,0,1,,,,,
,1.88,,,,,,,,,h.PNG,h,5a8352feae9a0b0001a9da8f,2021-10-19_14h45.39.436,forced_choiceRT,2021.1.2,Win32,59.82292414,,,,,,,,5,Slow,h,1,2.4182,1,0,4,2,1,,,,,
,0.62,,,,,,,,,g.PNG,g,5a8352feae9a0b0001a9da8f,2021-10-19_14h45.39.436,forced_choiceRT,2021.1.2,Win32,59.82292414,,,,,,,,5,Ontime,g,1,1.9077,1,1,5,1,1,,,,,
,1.15,,,,,,,,,h.PNG,h,5a8352feae9a0b0001a9da8f,2021-10-19_14h45.39.436,forced_choiceRT,2021.1.2,Win32,59.82292414,,,,,,,,5,Ontime,h,1,1.958,1,2,6,2,1,,,,,
,0.64,,,,,,,,,f.PNG,f,5a8352feae9a0b0001a9da8f,2021-10-19_14h45.39.436,forced_choiceRT,2021.1.2,Win32,59.82292414,,,,,,,,5,Fast,f,1,1.3673,1,3,7,0,1,,,,,
,0.28,,,,,,,,,g.PNG,g,5a8352feae9a0b0001a9da8f,2021-10-19_14h45.39.436,forced_choiceRT,2021.1.2,Win32,59.82292414,,,,,,,,5,Fast,g,1,1.0713,2,0,8,1,1,,,,,
,0.78,,,,,,,,,h.PNG,h,5a8352feae9a0b0001a9da8f,2021-10-19_14h45.39.436,forced_choiceRT,2021.1.2,Win32,59.82292414,,,,,,,,5,Fast,h,1,1.7075,2,1,9,2,1,,,,,
,1.01,,,,,,,,,j.PNG,j,5a8352feae9a0b0001a9da8f,2021-10-19_14h45.39.436,forced_choiceRT,2021.1.2,Win32,59.82292414,,,,,,,,5,Fast,j,1,1.5797,2,2,10,3,1,,,,,
,1.65,,,,,,,,,j.PNG,j,5a8352feae9a0b0001a9da8f,2021-10-19_14h45.39.436,forced_choiceRT,2021.1.2,Win32,59.82292414,,,,,,,,5,Slow,j,1,4.0094,2,3,11,3,1,,,,,
,0.05,,,,,,,,,f.PNG,f,5a8352feae9a0b0001a9da8f,2021-10-19_14h45.39.436,forced_choiceRT,2021.1.2,Win32,59.82292414,,,,,,,,5,Fast,f,1,1.5304,3,0,12,0,1,,,,,
,1.01,,,,,,,,,j.PNG,j,5a8352feae9a0b0001a9da8f,2021-10-19_14h45.39.436,forced_choiceRT,2021.1.2,Win32,59.82292414,,,,,,,,5,Ontime,j,1,1.9783,3,1,13,3,1,,,,,
,1.21,,,,,,,,,j.PNG,j,5a8352feae9a0b0001a9da8f,2021-10-19_14h45.39.436,forced_choiceRT,2021.1.2,Win32,59.82292414,,,,,,,,5,Ontime,j,1,2.0983,3,2,14,3,1,,,,,
,0.47,,,,,,,,,g.PNG,g,5a8352feae9a0b0001a9da8f,2021-10-19_14h45.39.436,forced_choiceRT,2021.1.2,Win32,59.82292414,,,,,,,,5,Slow,g,1,2.1581,3,3,15,1,1,,,,,
,1.07,,,,,,,,,f.PNG,f,5a8352feae9a0b0001a9da8f,2021-10-19_14h45.39.436,forced_choiceRT,2021.1.2,Win32,59.82292414,,,,,,,,5,Fast,f,1,1.8809,4,0,16,0,1,,,,,
,1.1,,,,,,,,,g.PNG,g,5a8352feae9a0b0001a9da8f,2021-10-19_14h45.39.436,forced_choiceRT,2021.1.2,Win32,59.82292414,,,,,,,,5,Ontime,g,1,1.974,4,1,17,1,1,,,,,
,1.53,,,,,,,,,h.PNG,h,5a8352feae9a0b0001a9da8f,2021-10-19_14h45.39.436,forced_choiceRT,2021.1.2,Win32,59.82292414,,,,,,,,5,Ontime,h,1,2.0833,4,2,18,2,1,,,,,
,0,,,,,,,,,h.PNG,h,5a8352feae9a0b0001a9da8f,2021-10-19_14h45.39.436,forced_choiceRT,2021.1.2,Win32,59.82292414,,,,,,,,5,Ontime,h,1,1.9948,4,3,19,2,1,,,,,
,1.45,,,,,,,,,f.PNG,f,5a8352feae9a0b0001a9da8f,2021-10-19_14h45.39.436,forced_choiceRT,2021.1.2,Win32,59.82292414,,,,,,,,5,Ontime,f,1,2.0927,5,0,20,0,1,,,,,
,0.61,,,,,,,,,j.PNG,j,5a8352feae9a0b0001a9da8f,2021-10-19_14h45.39.436,forced_choiceRT,2021.1.2,Win32,59.82292414,,,,,,,,5,Ontime,j,1,2.0935,5,1,21,3,1,,,,,
,1.83,,,,,,,,,g.PNG,g,5a8352feae9a0b0001a9da8f,2021-10-19_14h45.39.436,forced_choiceRT,2021.1.2,Win32,59.82292414,,,,,,,,5,Slow,j,0,2.1434,5,2,22,1,1,,,,,
,1.62,,,,,,,,,j.PNG,j,5a8352feae9a0b0001a9da8f,2021-10-19_14h45.39.436,forced_choiceRT,2021.1.2,Win32,59.82292414,,,,,,,,5,Slow,h,0,2.1931,5,3,23,3,1,,,,,
,1.76,,,,,,,,,h.PNG,h,5a8352feae9a0b0001a9da8f,2021-10-19_14h45.39.436,forced_choiceRT,2021.1.2,Win32,59.82292414,,,,,,,,5,Slow,h,1,2.176,6,0,24,2,1,,,,,
,0.99,,,,,,,,,g.PNG,g,5a8352feae9a0b0001a9da8f,2021-10-19_14h45.39.436,forced_choiceRT,2021.1.2,Win32,59.82292414,,,,,,,,5,Fast,g,1,1.6908,6,1,25,1,1,,,,,
,1.62,,,,,,,,,h.PNG,h,5a8352feae9a0b0001a9da8f,2021-10-19_14h45.39.436,forced_choiceRT,2021.1.2,Win32,59.82292414,,,,,,,,5,Slow,h,1,2.2266,6,2,26,2,1,,,,,
,1.56,,,,,,,,,j.PNG,j,5a8352feae9a0b0001a9da8f,2021-10-19_14h45.39.436,forced_choiceRT,2021.1.2,Win32,59.82292414,,,,,,,,5,Ontime,h,0,2.0434,6,3,27,3,1,,,,,
,1.24,,,,,,,,,j.PNG,j,5a8352feae9a0b0001a9da8f,2021-10-19_14h45.39.436,forced_choiceRT,2021.1.2,Win32,59.82292414,,,,,,,,5,Fast,j,1,1.759,7,0,28,3,1,,,,,
,0.64,,,,,,,,,g.PNG,g,5a8352feae9a0b0001a9da8f,2021-10-19_14h45.39.436,forced_choiceRT,2021.1.2,Win32,59.82292414,,,,,,,,5,Fast,g,1,1.5751,7,1,29,1,1,,,,,
,1.4,,,,,,,,,g.PNG,g,5a8352feae9a0b0001a9da8f,2021-10-19_14h45.39.436,forced_choiceRT,2021.1.2,Win32,59.82292414,,,,,,,,5,Ontime,h,0,2.0928,7,2,30,1,1,,,,,
,1.47,,,,,,,,,h.PNG,h,5a8352feae9a0b0001a9da8f,2021-10-19_14h45.39.436,forced_choiceRT,2021.1.2,Win32,59.82292414,,,,,,,,5,Ontime,g,0,1.9758,7,3,31,2,1,,,,,
,0.93,,,,,,,,,h.PNG,h,5a8352feae9a0b0001a9da8f,2021-10-19_14h45.39.436,forced_choiceRT,2021.1.2,Win32,59.82292414,,,,,,,,5,Fast,h,1,1.4908,8,0,32,2,1,,,,,
,1.39,,,,,,,,,j.PNG,j,5a8352feae9a0b0001a9da8f,2021-10-19_14h45.39.436,forced_choiceRT,2021.1.2,Win32,59.82292414,,,,,,,,5,Slow,h,0,2.1608,8,1,33,3,1,,,,,
,0.02,,,,,,,,,f.PNG,f,5a8352feae9a0b0001a9da8f,2021-10-19_14h45.39.436,forced_choiceRT,2021.1.2,Win32,59.82292414,,,,,,,,5,Fast,f,1,1.6575,8,2,34,0,1,,,,,
,1.08,,,,,,,,,f.PNG,f,5a8352feae9a0b0001a9da8f,2021-10-19_14h45.39.436,forced_choiceRT,2021.1.2,Win32,59.82292414,,,,,,,,5,Fast,f,1,1.7923,8,3,35,0,1,,,,,
,0.48,,,,,,,,,h.PNG,h,5a8352feae9a0b0001a9da8f,2021-10-19_14h45.39.436,forced_choiceRT,2021.1.2,Win32,59.82292414,,,,,,,,5,Slow,h,1,2.1267,9,0,36,2,1,,,,,
,1.34,,,,,,,,,g.PNG,g,5a8352feae9a0b0001a9da8f,2021-10-19_14h45.39.436,forced_choiceRT,2021.1.2,Win32,59.82292414,,,,,,,,5,Ontime,g,1,2.0936,9,1,37,1,1,,,,,
,1.15,,,,,,,,,f.PNG,f,5a8352feae9a0b0001a9da8f,2021-10-19_14h45.39.436,forced_choiceRT,2021.1.2,Win32,59.82292414,,,,,,,,5,Fast,f,1,1.8094,9,2,38,0,1,,,,,
,1.92,,,,,,,,,g.PNG,g,5a8352feae9a0b0001a9da8f,2021-10-19_14h45.39.436,forced_choiceRT,2021.1.2,Win32,59.82292414,,,,,,,,5,Slow,g,1,2.4942,9,3,39,1,1,,,,,
,,,,,,,,,,,,5a8352feae9a0b0001a9da8f,2021-10-19_14h45.39.436,forced_choiceRT,2021.1.2,Win32,59.82292414,,,,,,,,,,,,,,,,,,4,0,4,0,1
,0.1,,,,,,,,,f.PNG,f,5a8352feae9a0b0001a9da8f,2021-10-19_14h45.39.436,forced_choiceRT,2021.1.2,Win32,59.82292414,,,,,,,,6,Slow,h,0,2.1723,0,0,0,0,1,,,,,
,1.1,,,,,,,,,j.PNG,j,5a8352feae9a0b0001a9da8f,2021-10-19_14h45.39.436,forced_choiceRT,2021.1.2,Win32,59.82292414,,,,,,,,6,Fast,j,1,1.8749,0,1,1,3,1,,,,,
,1.41,,,,,,,,,g.PNG,g,5a8352feae9a0b0001a9da8f,2021-10-19_14h45.39.436,forced_choiceRT,2021.1.2,Win32,59.82292414,,,,,,,,6,Ontime,g,1,1.9927,0,2,2,1,1,,,,,
,1.63,,,,,,,,,g.PNG,g,5a8352feae9a0b0001a9da8f,2021-10-19_14h45.39.436,forced_choiceRT,2021.1.2,Win32,59.82292414,,,,,,,,6,Slow,g,1,2.1259,0,3,3,1,1,,,,,
,1.3,,,,,,,,,f.PNG,f,5a8352feae9a0b0001a9da8f,2021-10-19_14h45.39.436,forced_choiceRT,2021.1.2,Win32,59.82292414,,,,,,,,6,Ontime,f,1,2.0433,1,0,4,0,1,,,,,
,1.14,,,,,,,,,f.PNG,f,5a8352feae9a0b0001a9da8f,2021-10-19_14h45.39.436,forced_choiceRT,2021.1.2,Win32,59.82292414,,,,,,,,6,Fast,f,1,1.7083,1,1,5,0,1,,,,,
,1.16,,,,,,,,,h.PNG,h,5a8352feae9a0b0001a9da8f,2021-10-19_14h45.39.436,forced_choiceRT,2021.1.2,Win32,59.82292414,,,,,,,,6,Fast,h,1,1.8581,1,2,6,2,1,,,,,
,0.04,,,,,,,,,h.PNG,h,5a8352feae9a0b0001a9da8f,2021-10-19_14h45.39.436,forced_choiceRT,2021.1.2,Win32,59.82292414,,,,,,,,6,Ontime,h,1,2.0258,1,3,7,2,1,,,,,
,1.06,,,,,,,,,j.PNG,j,5a8352feae9a0b0001a9da8f,2021-10-19_14h45.39.436,forced_choiceRT,2021.1.2,Win32,59.82292414,,,,,,,,6,Ontime,j,1,2.0756,2,0,8,3,1,,,,,
,0.96,,,,,,,,,j.PNG,j,5a8352feae9a0b0001a9da8f,2021-10-19_14h45.39.436,forced_choiceRT,2021.1.2,Win32,59.82292414,,,,,,,,6,Fast,j,1,1.5577,2,1,9,3,1,,,,,
,1.64,,,,,,,,,g.PNG,g,5a8352feae9a0b0001a9da8f,2021-10-19_14h45.39.436,forced_choiceRT,2021.1.2,Win32,59.82292414,,,,,,,,6,Slow,g,1,2.3281,2,2,10,1,1,,,,,
,0.19,,,,,,,,,g.PNG,g,5a8352feae9a0b0001a9da8f,2021-10-19_14h45.39.436,forced_choiceRT,2021.1.2,Win32,59.82292414,,,,,,,,6,Ontime,g,1,1.9589,2,3,11,1,1,,,,,
,1.7,,,,,,,,,g.PNG,g,5a8352feae9a0b0001a9da8f,2021-10-19_14h45.39.436,forced_choiceRT,2021.1.2,Win32,59.82292414,,,,,,,,6,Slow,g,1,2.3267,3,0,12,1,1,,,,,
,1.89,,,,,,,,,j.PNG,j,5a8352feae9a0b0001a9da8f,2021-10-19_14h45.39.436,forced_choiceRT,2021.1.2,Win32,59.82292414,,,,,,,,6,Slow,g,0,2.3777,3,1,13,3,1,,,,,
,0.69,,,,,,,,,f.PNG,f,5a8352feae9a0b0001a9da8f,2021-10-19_14h45.39.436,forced_choiceRT,2021.1.2,Win32,59.82292414,,,,,,,,6,Fast,f,1,1.607,3,2,14,0,1,,,,,
,1.2,,,,,,,,,h.PNG,h,5a8352feae9a0b0001a9da8f,2021-10-19_14h45.39.436,forced_choiceRT,2021.1.2,Win32,59.82292414,,,,,,,,6,Fast,j,0,1.825,3,3,15,2,1,,,,,
,0.63,,,,,,,,,j.PNG,j,5a8352feae9a0b0001a9da8f,2021-10-19_14h45.39.436,forced_choiceRT,2021.1.2,Win32,59.82292414,,,,,,,,6,Fast,j,1,1.3899,4,0,16,3,1,,,,,
,0.55,,,,,,,,,f.PNG,f,5a8352feae9a0b0001a9da8f,2021-10-19_14h45.39.436,forced_choiceRT,2021.1.2,Win32,59.82292414,,,,,,,,6,Ontime,f,1,2.0782,4,1,17,0,1,,,,,
,0.87,,,,,,,,,g.PNG,g,5a8352feae9a0b0001a9da8f,2021-10-19_14h45.39.436,forced_choiceRT,2021.1.2,Win32,59.82292414,,,,,,,,6,Slow,g,1,2.2108,4,2,18,1,1,,,,,
,1.8,,,,,,,,,g.PNG,g,5a8352feae9a0b0001a9da8f,2021-10-19_14h45.39.436,forced_choiceRT,2021.1.2,Win32,59.82292414,,,,,,,,6,Slow,g,1,2.3103,4,3,19,1,1,,,,,
,0.31,,,,,,,,,j.PNG,j,5a8352feae9a0b0001a9da8f,2021-10-19_14h45.39.436,forced_choiceRT,2021.1.2,Win32,59.82292414,,,,,,,,6,Fast,j,1,1.2723,5,0,20,3,1,,,,,
,0.18,,,,,,,,,h.PNG,h,5a8352feae9a0b0001a9da8f,2021-10-19_14h45.39.436,forced_choiceRT,2021.1.2,Win32,59.82292414,,,,,,,,6,Ontime,h,1,2.01,5,1,21,2,1,,,,,
,0.38,,,,,,,,,h.PNG,h,5a8352feae9a0b0001a9da8f,2021-10-19_14h45.39.436,forced_choiceRT,2021.1.2,Win32,59.82292414,,,,,,,,6,Slow,h,1,2.1264,5,2,22,2,1,,,,,
,1.25,,,,,,,,,f.PNG,f,5a8352feae9a0b0001a9da8f,2021-10-19_14h45.39.436,forced_choiceRT,2021.1.2,Win32,59.82292414,,,,,,,,6,Ontime,f,1,2.0589,5,3,23,0,1,,,,,
,1,,,,,,,,,g.PNG,g,5a8352feae9a0b0001a9da8f,2021-10-19_14h45.39.436,forced_choiceRT,2021.1.2,Win32,59.82292414,,,,,,,,6,Fast,g,1,1.8751,6,0,24,1,1,,,,,
,0.65,,,,,,,,,g.PNG,g,5a8352feae9a0b0001a9da8f,2021-10-19_14h45.39.436,forced_choiceRT,2021.1.2,Win32,59.82292414,,,,,,,,6,Ontime,g,1,2.0433,6,1,25,1,1,,,,,
,0.51,,,,,,,,,h.PNG,h,5a8352feae9a0b0001a9da8f,2021-10-19_14h45.39.436,forced_choiceRT,2021.1.2,Win32,59.82292414,,,,,,,,6,Ontime,h,1,2.0925,6,2,26,2,1,,,,,
,1.26,,,,,,,,,h.PNG,h,5a8352feae9a0b0001a9da8f,2021-10-19_14h45.39.436,forced_choiceRT,2021.1.2,Win32,59.82292414,,,,,,,,6,Slow,h,1,2.3105,6,3,27,2,1,,,,,
,0.42,,,,,,,,,j.PNG,j,5a8352feae9a0b0001a9da8f,2021-10-19_14h45.39.436,forced_choiceRT,2021.1.2,Win32,59.82292414,,,,,,,,6,Ontime,j,1,1.9931,7,0,28,3,1,,,,,
,0.7,,,,,,,,,j.PNG,j,5a8352feae9a0b0001a9da8f,2021-10-19_14h45.39.436,forced_choiceRT,2021.1.2,Win32,59.82292414,,,,,,,,6,Ontime,j,1,2.0256,7,1,29,3,1,,,,,
,0.77,,,,,,,,,f.PNG,f,5a8352feae9a0b0001a9da8f,2021-10-19_14h45.39.436,forced_choiceRT,2021.1.2,Win32,59.82292414,,,,,,,,6,Fast,f,1,1.7755,7,2,30,0,1,,,,,
,1.26,,,,,,,,,h.PNG,h,5a8352feae9a0b0001a9da8f,2021-10-19_14h45.39.436,forced_choiceRT,2021.1.2,Win32,59.82292414,,,,,,,,6,Slow,h,1,2.1758,7,3,31,2,1,,,,,
,1.18,,,,,,,,,h.PNG,h,5a8352feae9a0b0001a9da8f,2021-10-19_14h45.39.436,forced_choiceRT,2021.1.2,Win32,59.82292414,,,,,,,,6,Fast,h,1,1.7919,8,0,32,2,1,,,,,
,1.93,,,,,,,,,f.PNG,f,5a8352feae9a0b0001a9da8f,2021-10-19_14h45.39.436,forced_choiceRT,2021.1.2,Win32,59.82292414,,,,,,,,6,Slow,j,0,2.2269,8,1,33,0,1,,,,,
,0.15,,,,,,,,,j.PNG,j,5a8352feae9a0b0001a9da8f,2021-10-19_14h45.39.436,forced_choiceRT,2021.1.2,Win32,59.82292414,,,,,,,,6,Ontime,j,1,2.0927,8,2,34,3,1,,,,,
,1.76,,,,,,,,,j.PNG,j,5a8352feae9a0b0001a9da8f,2021-10-19_14h45.39.436,forced_choiceRT,2021.1.2,Win32,59.82292414,,,,,,,,6,Ontime,j,1,1.9435,8,3,35,3,1,,,,,
,0.87,,,,,,,,,h.PNG,h,5a8352feae9a0b0001a9da8f,2021-10-19_14h45.39.436,forced_choiceRT,2021.1.2,Win32,59.82292414,,,,,,,,6,Slow,h,1,2.1426,9,0,36,2,1,,,,,
,1.82,,,,,,,,,f.PNG,f,5a8352feae9a0b0001a9da8f,2021-10-19_14h45.39.436,forced_choiceRT,2021.1.2,Win32,59.82292414,,,,,,,,6,Slow,f,1,2.1428,9,1,37,0,1,,,,,
,1.93,,,,,,,,,g.PNG,g,5a8352feae9a0b0001a9da8f,2021-10-19_14h45.39.436,forced_choiceRT,2021.1.2,Win32,59.82292414,,,,,,,,6,Slow,f,0,2.1264,9,2,38,1,1,,,,,
,0.89,,,,,,,,,f.PNG,f,5a8352feae9a0b0001a9da8f,2021-10-19_14h45.39.436,forced_choiceRT,2021.1.2,Win32,59.82292414,,,,,,,,6,Fast,h,0,1.5234,9,3,39,0,1,,,,,
,,,,,,,,,,,,5a8352feae9a0b0001a9da8f,2021-10-19_14h45.39.436,forced_choiceRT,2021.1.2,Win32,59.82292414,,,,,,,,,,,,,,,,,,5,0,5,0,1
,1.43,,,,,,,,,f.PNG,f,5a8352feae9a0b0001a9da8f,2021-10-19_14h45.39.436,forced_choiceRT,2021.1.2,Win32,59.82292414,,,,,,,,7,Fast,j,0,1.5192,0,0,0,0,1,,,,,
,0.35,,,,,,,,,g.PNG,g,5a8352feae9a0b0001a9da8f,2021-10-19_14h45.39.436,forced_choiceRT,2021.1.2,Win32,59.82292414,,,,,,,,7,Fast,g,1,1.2225,0,1,1,1,1,,,,,
,1.4,,,,,,,,,h.PNG,h,5a8352feae9a0b0001a9da8f,2021-10-19_14h45.39.436,forced_choiceRT,2021.1.2,Win32,59.82292414,,,,,,,,7,Ontime,h,1,1.9256,0,2,2,2,1,,,,,
,0.03,,,,,,,,,h.PNG,h,5a8352feae9a0b0001a9da8f,2021-10-19_14h45.39.436,forced_choiceRT,2021.1.2,Win32,59.82292414,,,,,,,,7,Ontime,h,1,2.0097,0,3,3,2,1,,,,,
,0.22,,,,,,,,,g.PNG,g,5a8352feae9a0b0001a9da8f,2021-10-19_14h45.39.436,forced_choiceRT,2021.1.2,Win32,59.82292414,,,,,,,,7,Ontime,g,1,1.9419,1,0,4,1,1,,,,,
,1.73,,,,,,,,,h.PNG,h,5a8352feae9a0b0001a9da8f,2021-10-19_14h45.39.436,forced_choiceRT,2021.1.2,Win32,59.82292414,,,,,,,,7,Ontime,h,1,2.0596,1,1,5,2,1,,,,,
,0.88,,,,,,,,,j.PNG,j,5a8352feae9a0b0001a9da8f,2021-10-19_14h45.39.436,forced_choiceRT,2021.1.2,Win32,59.82292414,,,,,,,,7,Fast,j,1,1.6238,1,2,6,3,1,,,,,
,0.16,,,,,,,,,j.PNG,j,5a8352feae9a0b0001a9da8f,2021-10-19_14h45.39.436,forced_choiceRT,2021.1.2,Win32,59.82292414,,,,,,,,7,Ontime,j,1,1.9929,1,3,7,3,1,,,,,
,1.64,,,,,,,,,g.PNG,g,5a8352feae9a0b0001a9da8f,2021-10-19_14h45.39.436,forced_choiceRT,2021.1.2,Win32,59.82292414,,,,,,,,7,Ontime,j,0,1.9266,2,0,8,1,1,,,,,
,1.66,,,,,,,,,j.PNG,j,5a8352feae9a0b0001a9da8f,2021-10-19_14h45.39.436,forced_choiceRT,2021.1.2,Win32,59.82292414,,,,,,,,7,Ontime,g,0,2.0099,2,1,9,3,1,,,,,
,0.89,,,,,,,,,g.PNG,g,5a8352feae9a0b0001a9da8f,2021-10-19_14h45.39.436,forced_choiceRT,2021.1.2,Win32,59.82292414,,,,,,,,7,Ontime,g,1,1.9425,2,2,10,1,1,,,,,
,1.37,,,,,,,,,j.PNG,j,5a8352feae9a0b0001a9da8f,2021-10-19_14h45.39.436,forced_choiceRT,2021.1.2,Win32,59.82292414,,,,,,,,7,Fast,h,0,1.8465,2,3,11,3,1,,,,,
,0.78,,,,,,,,,f.PNG,f,5a8352feae9a0b0001a9da8f,2021-10-19_14h45.39.436,forced_choiceRT,2021.1.2,Win32,59.82292414,,,,,,,,7,Fast,f,1,1.7432,3,0,12,0,1,,,,,
,0.41,,,,,,,,,j.PNG,j,5a8352feae9a0b0001a9da8f,2021-10-19_14h45.39.436,forced_choiceRT,2021.1.2,Win32,59.82292414,,,,,,,,7,Fast,j,1,1.5245,3,1,13,3,1,,,,,
,1.07,,,,,,,,,j.PNG,j,5a8352feae9a0b0001a9da8f,2021-10-19_14h45.39.436,forced_choiceRT,2021.1.2,Win32,59.82292414,,,,,,,,7,Ontime,j,1,1.9421,3,2,14,3,1,,,,,
,1.55,,,,,,,,,f.PNG,f,5a8352feae9a0b0001a9da8f,2021-10-19_14h45.39.436,forced_choiceRT,2021.1.2,Win32,59.82292414,,,,,,,,7,Fast,j,0,1.8758,3,3,15,0,1,,,,,
,0.37,,,,,,,,,j.PNG,j,5a8352feae9a0b0001a9da8f,2021-10-19_14h45.39.436,forced_choiceRT,2021.1.2,Win32,59.82292414,,,,,,,,7,Ontime,j,1,2.047,4,0,16,3,1,,,,,
,0.57,,,,,,,,,f.PNG,f,5a8352feae9a0b0001a9da8f,2021-10-19_14h45.39.436,forced_choiceRT,2021.1.2,Win32,59.82292414,,,,,,,,7,Slow,f,1,2.2607,4,1,17,0,1,,,,,
,1,,,,,,,,,g.PNG,g,5a8352feae9a0b0001a9da8f,2021-10-19_14h45.39.436,forced_choiceRT,2021.1.2,Win32,59.82292414,,,,,,,,7,Fast,g,1,1.8669,4,2,18,1,1,,,,,
,1.84,,,,,,,,,f.PNG,f,5a8352feae9a0b0001a9da8f,2021-10-19_14h45.39.436,forced_choiceRT,2021.1.2,Win32,59.82292414,,,,,,,,7,Fast,h,0,1.6734,4,3,19,0,1,,,,,
,1.8,,,,,,,,,h.PNG,h,5a8352feae9a0b0001a9da8f,2021-10-19_14h45.39.436,forced_choiceRT,2021.1.2,Win32,59.82292414,,,,,,,,7,Ontime,j,0,2.0426,5,0,20,2,1,,,,,
,0.09,,,,,,,,,j.PNG,j,5a8352feae9a0b0001a9da8f,2021-10-19_14h45.39.436,forced_choiceRT,2021.1.2,Win32,59.82292414,,,,,,,,7,Ontime,j,1,1.9746,5,1,21,3,1,,,,,
,0.92,,,,,,,,,g.PNG,g,5a8352feae9a0b0001a9da8f,2021-10-19_14h45.39.436,forced_choiceRT,2021.1.2,Win32,59.82292414,,,,,,,,7,Fast,h,0,1.8249,5,2,22,1,1,,,,,
,0.36,,,,,,,,,f.PNG,f,5a8352feae9a0b0001a9da8f,2021-10-19_14h45.39.436,forced_choiceRT,2021.1.2,Win32,59.82292414,,,,,,,,7,Ontime,f,1,1.9363,5,3,23,0,1,,,,,
,1.16,,,,,,,,,j.PNG,j,5a8352feae9a0b0001a9da8f,2021-10-19_14h45.39.436,forced_choiceRT,2021.1.2,Win32,59.82292414,,,,,,,,7,Fast,j,1,1.8559,6,0,24,3,1,,,,,
,1.67,,,,,,,,,h.PNG,h,5a8352feae9a0b0001a9da8f,2021-10-19_14h45.39.436,forced_choiceRT,2021.1.2,Win32,59.82292414,,,,,,,,7,Slow,h,1,2.192,6,1,25,2,1,,,,,
,0.82,,,,,,,,,g.PNG,g,5a8352feae9a0b0001a9da8f,2021-10-19_14h45.39.436,forced_choiceRT,2021.1.2,Win32,59.82292414,,,,,,,,7,Fast,g,1,1.8019,6,2,26,1,1,,,,,
,0.44,,,,,,,,,g.PNG,g,5a8352feae9a0b0001a9da8f,2021-10-19_14h45.39.436,forced_choiceRT,2021.1.2,Win32,59.82292414,,,,,,,,7,Ontime,g,1,1.9947,6,3,27,1,1,,,,,
,0.05,,,,,,,,,f.PNG,f,5a8352feae9a0b0001a9da8f,2021-10-19_14h45.39.436,forced_choiceRT,2021.1.2,Win32,59.82292414,,,,,,,,7,Ontime,f,1,1.9913,7,0,28,0,1,,,,,
,1.95,,,,,,,,,g.PNG,g,5a8352feae9a0b0001a9da8f,2021-10-19_14h45.39.436,forced_choiceRT,2021.1.2,Win32,59.82292414,,,,,,,,7,Ontime,g,1,2.0309,7,1,29,1,1,,,,,
,0.74,,,,,,,,,h.PNG,h,5a8352feae9a0b0001a9da8f,2021-10-19_14h45.39.436,forced_choiceRT,2021.1.2,Win32,59.82292414,,,,,,,,7,Fast,h,1,1.4711,7,2,30,2,1,,,,,
,0.08,,,,,,,,,h.PNG,h,5a8352feae9a0b0001a9da8f,2021-10-19_14h45.39.436,forced_choiceRT,2021.1.2,Win32,59.82292414,,,,,,,,7,Ontime,h,1,2.0191,7,3,31,2,1,,,,,
,1.11,,,,,,,,,h.PNG,h,5a8352feae9a0b0001a9da8f,2021-10-19_14h45.39.436,forced_choiceRT,2021.1.2,Win32,59.82292414,,,,,,,,7,Slow,h,1,2.1151,8,0,32,2,1,,,,,
,0.62,,,,,,,,,g.PNG,g,5a8352feae9a0b0001a9da8f,2021-10-19_14h45.39.436,forced_choiceRT,2021.1.2,Win32,59.82292414,,,,,,,,7,Fast,g,1,1.8022,8,1,33,1,1,,,,,
,1.31,,,,,,,,,f.PNG,f,5a8352feae9a0b0001a9da8f,2021-10-19_14h45.39.436,forced_choiceRT,2021.1.2,Win32,59.82292414,,,,,,,,7,Ontime,f,1,2.0318,8,2,34,0,1,,,,,
,1.26,,,,,,,,,h.PNG,h,5a8352feae9a0b0001a9da8f,2021-10-19_14h45.39.436,forced_choiceRT,2021.1.2,Win32,59.82292414,,,,,,,,7,Ontime,h,1,2.081,8,3,35,2,1,,,,,
,0.88,,,,,,,,,j.PNG,j,5a8352feae9a0b0001a9da8f,2021-10-19_14h45.39.436,forced_choiceRT,2021.1.2,Win32,59.82292414,,,,,,,,7,Fast,j,1,1.6819,9,0,36,3,1,,,,,
,1.06,,,,,,,,,f.PNG,f,5a8352feae9a0b0001a9da8f,2021-10-19_14h45.39.436,forced_choiceRT,2021.1.2,Win32,59.82292414,,,,,,,,7,Fast,f,1,1.7752,9,1,37,0,1,,,,,
,1.39,,,,,,,,,h.PNG,h,5a8352feae9a0b0001a9da8f,2021-10-19_14h45.39.436,forced_choiceRT,2021.1.2,Win32,59.82292414,,,,,,,,7,Ontime,h,1,1.9617,9,2,38,2,1,,,,,
,0.05,,,,,,,,,f.PNG,f,5a8352feae9a0b0001a9da8f,2021-10-19_14h45.39.436,forced_choiceRT,2021.1.2,Win32,59.82292414,,,,,,,,7,Ontime,f,1,2.0913,9,3,39,0,1,,,,,
,,,,,,,,,,,,5a8352feae9a0b0001a9da8f,2021-10-19_14h45.39.436,forced_choiceRT,2021.1.2,Win32,59.82292414,,,,,,,,,,,,,,,,,,6,0,6,0,1
,0.39,,,,,,,,,g.PNG,g,5a8352feae9a0b0001a9da8f,2021-10-19_14h45.39.436,forced_choiceRT,2021.1.2,Win32,59.82292414,,,,,,,,8,Fast,g,1,1.7169,0,0,0,1,1,,,,,
,1.18,,,,,,,,,g.PNG,g,5a8352feae9a0b0001a9da8f,2021-10-19_14h45.39.436,forced_choiceRT,2021.1.2,Win32,59.82292414,,,,,,,,8,Ontime,g,1,1.9663,0,1,1,1,1,,,,,
,0.09,,,,,,,,,j.PNG,j,5a8352feae9a0b0001a9da8f,2021-10-19_14h45.39.436,forced_choiceRT,2021.1.2,Win32,59.82292414,,,,,,,,8,Ontime,j,1,2.0696,0,2,2,3,1,,,,,
,0.57,,,,,,,,,f.PNG,f,5a8352feae9a0b0001a9da8f,2021-10-19_14h45.39.436,forced_choiceRT,2021.1.2,Win32,59.82292414,,,,,,,,8,Ontime,f,1,2.0326,0,3,3,0,1,,,,,
,1.7,,,,,,,,,g.PNG,g,5a8352feae9a0b0001a9da8f,2021-10-19_14h45.39.436,forced_choiceRT,2021.1.2,Win32,59.82292414,,,,,,,,8,Slow,h,0,2.3097,1,0,4,1,1,,,,,
,0.12,,,,,,,,,h.PNG,h,5a8352feae9a0b0001a9da8f,2021-10-19_14h45.39.436,forced_choiceRT,2021.1.2,Win32,59.82292414,,,,,,,,8,Ontime,h,1,1.9408,1,1,5,2,1,,,,,
,0.26,,,,,,,,,h.PNG,h,5a8352feae9a0b0001a9da8f,2021-10-19_14h45.39.436,forced_choiceRT,2021.1.2,Win32,59.82292414,,,,,,,,8,Ontime,h,1,2.0833,1,2,6,2,1,,,,,
,0.33,,,,,,,,,h.PNG,h,5a8352feae9a0b0001a9da8f,2021-10-19_14h45.39.436,forced_choiceRT,2021.1.2,Win32,59.82292414,,,,,,,,8,Slow,h,1,2.2262,1,3,7,2,1,,,,,
,1.94,,,,,,,,,g.PNG,g,5a8352feae9a0b0001a9da8f,2021-10-19_14h45.39.436,forced_choiceRT,2021.1.2,Win32,59.82292414,,,,,,,,8,Fast,h,0,1.8962,2,0,8,1,1,,,,,
,0,,,,,,,,,g.PNG,g,5a8352feae9a0b0001a9da8f,2021-10-19_14h45.39.436,forced_choiceRT,2021.1.2,Win32,59.82292414,,,,,,,,8,Ontime,g,1,1.9774,2,1,9,1,1,,,,,
,1.73,,,,,,,,,h.PNG,h,5a8352feae9a0b0001a9da8f,2021-10-19_14h45.39.436,forced_choiceRT,2021.1.2,Win32,59.82292414,,,,,,,,8,Ontime,h,1,2.0026,2,2,10,2,1,,,,,
,1.92,,,,,,,,,j.PNG,j,5a8352feae9a0b0001a9da8f,2021-10-19_14h45.39.436,forced_choiceRT,2021.1.2,Win32,59.82292414,,,,,,,,8,Fast,j,1,1.786,2,3,11,3,1,,,,,
,1.92,,,,,,,,,f.PNG,f,5a8352feae9a0b0001a9da8f,2021-10-19_14h45.39.436,forced_choiceRT,2021.1.2,Win32,59.82292414,,,,,,,,8,Slow,f,1,2.1679,3,0,12,0,1,,,,,
,1.57,,,,,,,,,j.PNG,j,5a8352feae9a0b0001a9da8f,2021-10-19_14h45.39.436,forced_choiceRT,2021.1.2,Win32,59.82292414,,,,,,,,8,Ontime,j,1,1.9751,3,1,13,3,1,,,,,
,0.37,,,,,,,,,h.PNG,h,5a8352feae9a0b0001a9da8f,2021-10-19_14h45.39.436,forced_choiceRT,2021.1.2,Win32,59.82292414,,,,,,,,8,Fast,h,1,1.7066,3,2,14,2,1,,,,,
,1.72,,,,,,,,,g.PNG,g,5a8352feae9a0b0001a9da8f,2021-10-19_14h45.39.436,forced_choiceRT,2021.1.2,Win32,59.82292414,,,,,,,,8,Ontime,h,0,2.0425,3,3,15,1,1,,,,,
,1.89,,,,,,,,,f.PNG,f,5a8352feae9a0b0001a9da8f,2021-10-19_14h45.39.436,forced_choiceRT,2021.1.2,Win32,59.82292414,,,,,,,,8,Slow,g,0,2.1552,4,0,16,0,1,,,,,
,0.77,,,,,,,,,j.PNG,j,5a8352feae9a0b0001a9da8f,2021-10-19_14h45.39.436,forced_choiceRT,2021.1.2,Win32,59.82292414,,,,,,,,8,Fast,j,1,1.7229,4,1,17,3,1,,,,,
,0.99,,,,,,,,,f.PNG,f,5a8352feae9a0b0001a9da8f,2021-10-19_14h45.39.436,forced_choiceRT,2021.1.2,Win32,59.82292414,,,,,,,,8,Fast,f,1,1.8412,4,2,18,0,1,,,,,
,0.17,,,,,,,,,j.PNG,j,5a8352feae9a0b0001a9da8f,2021-10-19_14h45.39.436,forced_choiceRT,2021.1.2,Win32,59.82292414,,,,,,,,8,Ontime,j,1,1.9405,4,3,19,3,1,,,,,
,1.51,,,,,,,,,f.PNG,f,5a8352feae9a0b0001a9da8f,2021-10-19_14h45.39.436,forced_choiceRT,2021.1.2,Win32,59.82292414,,,,,,,,8,Fast,j,0,1.8686,5,0,20,0,1,,,,,
,0.66,,,,,,,,,j.PNG,j,5a8352feae9a0b0001a9da8f,2021-10-19_14h45.39.436,forced_choiceRT,2021.1.2,Win32,59.82292414,,,,,,,,8,Fast,j,1,1.5418,5,1,21,3,1,,,,,
,0.66,,,,,,,,,g.PNG,g,5a8352feae9a0b0001a9da8f,2021-10-19_14h45.39.436,forced_choiceRT,2021.1.2,Win32,59.82292414,,,,,,,,8,Ontime,g,1,2.0264,5,2,22,1,1,,,,,
,1.25,,,,,,,,,f.PNG,f,5a8352feae9a0b0001a9da8f,2021-10-19_14h45.39.436,forced_choiceRT,2021.1.2,Win32,59.82292414,,,,,,,,8,Ontime,f,1,1.928,5,3,23,0,1,,,,,
,0.21,,,,,,,,,f.PNG,f,5a8352feae9a0b0001a9da8f,2021-10-19_14h45.39.436,forced_choiceRT,2021.1.2,Win32,59.82292414,,,,,,,,8,Ontime,f,1,2.029,6,0,24,0,1,,,,,
,0.56,,,,,,,,,j.PNG,j,5a8352feae9a0b0001a9da8f,2021-10-19_14h45.39.436,forced_choiceRT,2021.1.2,Win32,59.82292414,,,,,,,,8,Ontime,j,1,2.0275,6,1,25,3,1,,,,,
,0.85,,,,,,,,,g.PNG,g,5a8352feae9a0b0001a9da8f,2021-10-19_14h45.39.436,forced_choiceRT,2021.1.2,Win32,59.82292414,,,,,,,,8,Fast,g,1,1.7488,6,2,26,1,1,,,,,
,0.86,,,,,,,,,j.PNG,j,5a8352feae9a0b0001a9da8f,2021-10-19_14h45.39.436,forced_choiceRT,2021.1.2,Win32,59.82292414,,,,,,,,8,Fast,j,1,1.7304,6,3,27,3,1,,,,,
,0.98,,,,,,,,,h.PNG,h,5a8352feae9a0b0001a9da8f,2021-10-19_14h45.39.436,forced_choiceRT,2021.1.2,Win32,59.82292414,,,,,,,,8,Slow,h,1,2.127,7,0,28,2,1,,,,,
,0.07,,,,,,,,,h.PNG,h,5a8352feae9a0b0001a9da8f,2021-10-19_14h45.39.436,forced_choiceRT,2021.1.2,Win32,59.82292414,,,,,,,,8,Ontime,h,1,2.009,7,1,29,2,1,,,,,
,1.82,,,,,,,,,j.PNG,j,5a8352feae9a0b0001a9da8f,2021-10-19_14h45.39.436,forced_choiceRT,2021.1.2,Win32,59.82292414,,,,,,,,8,Ontime,j,1,1.9935,7,2,30,3,1,,,,,
,1.18,,,,,,,,,j.PNG,j,5a8352feae9a0b0001a9da8f,2021-10-19_14h45.39.436,forced_choiceRT,2021.1.2,Win32,59.82292414,,,,,,,,8,Ontime,j,1,1.9247,7,3,31,3,1,,,,,
,1.87,,,,,,,,,h.PNG,h,5a8352feae9a0b0001a9da8f,2021-10-19_14h45.39.436,forced_choiceRT,2021.1.2,Win32,59.82292414,,,,,,,,8,Slow,j,0,2.1265,8,0,32,2,1,,,,,
,0.38,,,,,,,,,h.PNG,h,5a8352feae9a0b0001a9da8f,2021-10-19_14h45.39.436,forced_choiceRT,2021.1.2,Win32,59.82292414,,,,,,,,8,Fast,h,1,1.2745,8,1,33,2,1,,,,,
,1.6,,,,,,,,,f.PNG,f,5a8352feae9a0b0001a9da8f,2021-10-19_14h45.39.436,forced_choiceRT,2021.1.2,Win32,59.82292414,,,,,,,,8,Ontime,h,0,2.0429,8,2,34,0,1,,,,,
,1.13,,,,,,,,,f.PNG,f,5a8352feae9a0b0001a9da8f,2021-10-19_14h45.39.436,forced_choiceRT,2021.1.2,Win32,59.82292414,,,,,,,,8,Fast,f,1,1.8921,8,3,35,0,1,,,,,
,0.58,,,,,,,,,g.PNG,g,5a8352feae9a0b0001a9da8f,2021-10-19_14h45.39.436,forced_choiceRT,2021.1.2,Win32,59.82292414,,,,,,,,8,Ontime,g,1,2.0612,9,0,36,1,1,,,,,
,1.26,,,,,,,,,f.PNG,f,5a8352feae9a0b0001a9da8f,2021-10-19_14h45.39.436,forced_choiceRT,2021.1.2,Win32,59.82292414,,,,,,,,8,Slow,f,1,2.1598,9,1,37,0,1,,,,,
,0.97,,,,,,,,,h.PNG,h,5a8352feae9a0b0001a9da8f,2021-10-19_14h45.39.436,forced_choiceRT,2021.1.2,Win32,59.82292414,,,,,,,,8,Ontime,h,1,2.0928,9,2,38,2,1,,,,,
,0.16,,,,,,,,,g.PNG,g,5a8352feae9a0b0001a9da8f,2021-10-19_14h45.39.436,forced_choiceRT,2021.1.2,Win32,59.82292414,,,,,,,,8,Slow,g,1,2.1097,9,3,39,1,1,,,,,
,,,,,,,,,,,,5a8352feae9a0b0001a9da8f,2021-10-19_14h45.39.436,forced_choiceRT,2021.1.2,Win32,59.82292414,,,,,,,,,,,,,,,,,,7,0,7,0,1
,1.92,,,,,,,,,g.PNG,g,5a8352feae9a0b0001a9da8f,2021-10-19_14h45.39.436,forced_choiceRT,2021.1.2,Win32,59.82292414,,,,,,,,9,Ontime,h,0,2.011,0,0,0,1,1,,,,,
,0.9,,,,,,,,,g.PNG,g,5a8352feae9a0b0001a9da8f,2021-10-19_14h45.39.436,forced_choiceRT,2021.1.2,Win32,59.82292414,,,,,,,,9,Fast,g,1,1.6595,0,1,1,1,1,,,,,
,1.36,,,,,,,,,f.PNG,f,5a8352feae9a0b0001a9da8f,2021-10-19_14h45.39.436,forced_choiceRT,2021.1.2,Win32,59.82292414,,,,,,,,9,Ontime,f,1,2.025,0,2,2,0,1,,,,,
,0.43,,,,,,,,,h.PNG,h,5a8352feae9a0b0001a9da8f,2021-10-19_14h45.39.436,forced_choiceRT,2021.1.2,Win32,59.82292414,,,,,,,,9,Ontime,h,1,1.9488,0,3,3,2,1,,,,,
,0.75,,,,,,,,,g.PNG,g,5a8352feae9a0b0001a9da8f,2021-10-19_14h45.39.436,forced_choiceRT,2021.1.2,Win32,59.82292414,,,,,,,,9,Slow,g,1,2.1003,1,0,4,1,1,,,,,
,0.79,,,,,,,,,j.PNG,j,5a8352feae9a0b0001a9da8f,2021-10-19_14h45.39.436,forced_choiceRT,2021.1.2,Win32,59.82292414,,,,,,,,9,Slow,h,0,9.5399,1,1,5,3,1,,,,,
,1.67,,,,,,,,,h.PNG,h,5a8352feae9a0b0001a9da8f,2021-10-19_14h45.39.436,forced_choiceRT,2021.1.2,Win32,59.82292414,,,,,,,,9,Ontime,j,0,1.9754,1,2,6,2,1,,,,,
,0.64,,,,,,,,,h.PNG,h,5a8352feae9a0b0001a9da8f,2021-10-19_14h45.39.436,forced_choiceRT,2021.1.2,Win32,59.82292414,,,,,,,,9,Fast,h,1,1.6248,1,3,7,2,1,,,,,
,0.5,,,,,,,,,j.PNG,j,5a8352feae9a0b0001a9da8f,2021-10-19_14h45.39.436,forced_choiceRT,2021.1.2,Win32,59.82292414,,,,,,,,9,Fast,j,1,1.69,2,0,8,3,1,,,,,
,1.97,,,,,,,,,j.PNG,j,5a8352feae9a0b0001a9da8f,2021-10-19_14h45.39.436,forced_choiceRT,2021.1.2,Win32,59.82292414,,,,,,,,9,Slow,j,1,2.2596,2,1,9,3,1,,,,,
,1.69,,,,,,,,,h.PNG,h,5a8352feae9a0b0001a9da8f,2021-10-19_14h45.39.436,forced_choiceRT,2021.1.2,Win32,59.82292414,,,,,,,,9,Fast,j,0,1.5433,2,2,10,2,1,,,,,
,1.24,,,,,,,,,j.PNG,j,5a8352feae9a0b0001a9da8f,2021-10-19_14h45.39.436,forced_choiceRT,2021.1.2,Win32,59.82292414,,,,,,,,9,Ontime,j,1,1.9084,2,3,11,3,1,,,,,
,0.01,,,,,,,,,f.PNG,f,5a8352feae9a0b0001a9da8f,2021-10-19_14h45.39.436,forced_choiceRT,2021.1.2,Win32,59.82292414,,,,,,,,9,Ontime,f,1,1.9562,3,0,12,0,1,,,,,
,0.17,,,,,,,,,g.PNG,g,5a8352feae9a0b0001a9da8f,2021-10-19_14h45.39.436,forced_choiceRT,2021.1.2,Win32,59.82292414,,,,,,,,9,Ontime,g,1,2.0236,3,1,13,1,1,,,,,
,0.5,,,,,,,,,f.PNG,f,5a8352feae9a0b0001a9da8f,2021-10-19_14h45.39.436,forced_choiceRT,2021.1.2,Win32,59.82292414,,,,,,,,9,Slow,f,1,2.1272,3,2,14,0,1,,,,,
,0.68,,,,,,,,,h.PNG,h,5a8352feae9a0b0001a9da8f,2021-10-19_14h45.39.436,forced_choiceRT,2021.1.2,Win32,59.82292414,,,,,,,,9,Fast,h,1,1.8796,3,3,15,2,1,,,,,
,1.62,,,,,,,,,j.PNG,j,5a8352feae9a0b0001a9da8f,2021-10-19_14h45.39.436,forced_choiceRT,2021.1.2,Win32,59.82292414,,,,,,,,9,Slow,j,1,2.302,4,0,16,3,1,,,,,
,1.25,,,,,,,,,g.PNG,g,5a8352feae9a0b0001a9da8f,2021-10-19_14h45.39.436,forced_choiceRT,2021.1.2,Win32,59.82292414,,,,,,,,9,Fast,j,0,1.6477,4,1,17,1,1,,,,,
,0.21,,,,,,,,,h.PNG,h,5a8352feae9a0b0001a9da8f,2021-10-19_14h45.39.436,forced_choiceRT,2021.1.2,Win32,59.82292414,,,,,,,,9,Ontime,h,1,2.0496,4,2,18,2,1,,,,,
,0.22,,,,,,,,,h.PNG,h,5a8352feae9a0b0001a9da8f,2021-10-19_14h45.39.436,forced_choiceRT,2021.1.2,Win32,59.82292414,,,,,,,,9,Fast,h,1,1.8716,4,3,19,2,1,,,,,
,0,,,,,,,,,j.PNG,j,5a8352feae9a0b0001a9da8f,2021-10-19_14h45.39.436,forced_choiceRT,2021.1.2,Win32,59.82292414,,,,,,,,9,Ontime,j,1,1.9397,5,0,20,3,1,,,,,
,0.68,,,,,,,,,f.PNG,f,5a8352feae9a0b0001a9da8f,2021-10-19_14h45.39.436,forced_choiceRT,2021.1.2,Win32,59.82292414,,,,,,,,9,Ontime,f,1,2.0438,5,1,21,0,1,,,,,
,0.85,,,,,,,,,j.PNG,j,5a8352feae9a0b0001a9da8f,2021-10-19_14h45.39.436,forced_choiceRT,2021.1.2,Win32,59.82292414,,,,,,,,9,Ontime,j,1,2.0253,5,2,22,3,1,,,,,
,1.17,,,,,,,,,f.PNG,f,5a8352feae9a0b0001a9da8f,2021-10-19_14h45.39.436,forced_choiceRT,2021.1.2,Win32,59.82292414,,,,,,,,9,Ontime,f,1,1.9077,5,3,23,0,1,,,,,
,1.86,,,,,,,,,g.PNG,g,5a8352feae9a0b0001a9da8f,2021-10-19_14h45.39.436,forced_choiceRT,2021.1.2,Win32,59.82292414,,,,,,,,9,Ontime,j,0,2.0852,6,0,24,1,1,,,,,
,1.73,,,,,,,,,h.PNG,h,5a8352feae9a0b0001a9da8f,2021-10-19_14h45.39.436,forced_choiceRT,2021.1.2,Win32,59.82292414,,,,,,,,9,Fast,h,1,1.7852,6,1,25,2,1,,,,,
,1.39,,,,,,,,,h.PNG,h,5a8352feae9a0b0001a9da8f,2021-10-19_14h45.39.436,forced_choiceRT,2021.1.2,Win32,59.82292414,,,,,,,,9,Ontime,h,1,2.0427,6,2,26,2,1,,,,,
,1.96,,,,,,,,,f.PNG,f,5a8352feae9a0b0001a9da8f,2021-10-19_14h45.39.436,forced_choiceRT,2021.1.2,Win32,59.82292414,,,,,,,,9,Ontime,j,0,2.0199,6,3,27,0,1,,,,,
,1,,,,,,,,,f.PNG,f,5a8352feae9a0b0001a9da8f,2021-10-19_14h45.39.436,forced_choiceRT,2021.1.2,Win32,59.82292414,,,,,,,,9,Fast,f,1,1.6217,7,0,28,0,1,,,,,
,1.47,,,,,,,,,j.PNG,j,5a8352feae9a0b0001a9da8f,2021-10-19_14h45.39.436,forced_choiceRT,2021.1.2,Win32,59.82292414,,,,,,,,9,Fast,f,0,1.623,7,1,29,3,1,,,,,
,1.88,,,,,,,,,f.PNG,f,5a8352feae9a0b0001a9da8f,2021-10-19_14h45.39.436,forced_choiceRT,2021.1.2,Win32,59.82292414,,,,,,,,9,Ontime,j,0,1.933,7,2,30,0,1,,,,,
,1.6,,,,,,,,,f.PNG,f,5a8352feae9a0b0001a9da8f,2021-10-19_14h45.39.436,forced_choiceRT,2021.1.2,Win32,59.82292414,,,,,,,,9,Fast,f,1,1.7562,7,3,31,0,1,,,,,
,0.38,,,,,,,,,g.PNG,g,5a8352feae9a0b0001a9da8f,2021-10-19_14h45.39.436,forced_choiceRT,2021.1.2,Win32,59.82292414,,,,,,,,9,Fast,g,1,1.1617,8,0,32,1,1,,,,,
,1.21,,,,,,,,,g.PNG,g,5a8352feae9a0b0001a9da8f,2021-10-19_14h45.39.436,forced_choiceRT,2021.1.2,Win32,59.82292414,,,,,,,,9,Ontime,g,1,1.9274,8,1,33,1,1,,,,,
,1.56,,,,,,,,,h.PNG,h,5a8352feae9a0b0001a9da8f,2021-10-19_14h45.39.436,forced_choiceRT,2021.1.2,Win32,59.82292414,,,,,,,,9,Ontime,g,0,1.9608,8,2,34,2,1,,,,,
,1.65,,,,,,,,,j.PNG,j,5a8352feae9a0b0001a9da8f,2021-10-19_14h45.39.436,forced_choiceRT,2021.1.2,Win32,59.82292414,,,,,,,,9,Ontime,h,0,2.0296,8,3,35,3,1,,,,,
,0.54,,,,,,,,,f.PNG,f,5a8352feae9a0b0001a9da8f,2021-10-19_14h45.39.436,forced_choiceRT,2021.1.2,Win32,59.82292414,,,,,,,,9,Fast,f,1,1.8746,9,0,36,0,1,,,,,
,0.54,,,,,,,,,j.PNG,j,5a8352feae9a0b0001a9da8f,2021-10-19_14h45.39.436,forced_choiceRT,2021.1.2,Win32,59.82292414,,,,,,,,9,Ontime,j,1,1.999,9,1,37,3,1,,,,,
,1.71,,,,,,,,,g.PNG,g,5a8352feae9a0b0001a9da8f,2021-10-19_14h45.39.436,forced_choiceRT,2021.1.2,Win32,59.82292414,,,,,,,,9,Fast,j,0,1.8466,9,2,38,1,1,,,,,
,0.64,,,,,,,,,g.PNG,g,5a8352feae9a0b0001a9da8f,2021-10-19_14h45.39.436,forced_choiceRT,2021.1.2,Win32,59.82292414,,,,,,,,9,Ontime,g,1,2.0354,9,3,39,1,1,,,,,
,,,,,,,,,,,,5a8352feae9a0b0001a9da8f,2021-10-19_14h45.39.436,forced_choiceRT,2021.1.2,Win32,59.82292414,,,,,,,,,,,,,,,,,,8,0,8,0,1
,0.53,,,,,,,,,g.PNG,g,5a8352feae9a0b0001a9da8f,2021-10-19_14h45.39.436,forced_choiceRT,2021.1.2,Win32,59.82292414,,,,,,,,10,Fast,g,1,1.2213,0,0,0,1,1,,,,,
,1.27,,,,,,,,,j.PNG,j,5a8352feae9a0b0001a9da8f,2021-10-19_14h45.39.436,forced_choiceRT,2021.1.2,Win32,59.82292414,,,,,,,,10,Ontime,j,1,1.9783,0,1,1,3,1,,,,,
,1.18,,,,,,,,,h.PNG,h,5a8352feae9a0b0001a9da8f,2021-10-19_14h45.39.436,forced_choiceRT,2021.1.2,Win32,59.82292414,,,,,,,,10,Ontime,h,1,1.9416,0,2,2,2,1,,,,,
,0.23,,,,,,,,,h.PNG,h,5a8352feae9a0b0001a9da8f,2021-10-19_14h45.39.436,forced_choiceRT,2021.1.2,Win32,59.82292414,,,,,,,,10,Ontime,h,1,2.0411,0,3,3,2,1,,,,,
,1.59,,,,,,,,,h.PNG,h,5a8352feae9a0b0001a9da8f,2021-10-19_14h45.39.436,forced_choiceRT,2021.1.2,Win32,59.82292414,,,,,,,,10,Slow,h,1,2.2907,1,0,4,2,1,,,,,
,0.04,,,,,,,,,g.PNG,g,5a8352feae9a0b0001a9da8f,2021-10-19_14h45.39.436,forced_choiceRT,2021.1.2,Win32,59.82292414,,,,,,,,10,Ontime,g,1,1.9816,1,1,5,1,1,,,,,
,1.2,,,,,,,,,j.PNG,j,5a8352feae9a0b0001a9da8f,2021-10-19_14h45.39.436,forced_choiceRT,2021.1.2,Win32,59.82292414,,,,,,,,10,Ontime,j,1,1.9539,1,2,6,3,1,,,,,
,1.59,,,,,,,,,j.PNG,j,5a8352feae9a0b0001a9da8f,2021-10-19_14h45.39.436,forced_choiceRT,2021.1.2,Win32,59.82292414,,,,,,,,10,Slow,j,1,2.145,1,3,7,3,1,,,,,
,1.52,,,,,,,,,g.PNG,g,5a8352feae9a0b0001a9da8f,2021-10-19_14h45.39.436,forced_choiceRT,2021.1.2,Win32,59.82292414,,,,,,,,10,Fast,j,0,1.5595,2,0,8,1,1,,,,,
,1.06,,,,,,,,,f.PNG,f,5a8352feae9a0b0001a9da8f,2021-10-19_14h45.39.436,forced_choiceRT,2021.1.2,Win32,59.82292414,,,,,,,,10,Fast,f,1,1.7647,2,1,9,0,1,,,,,
,0.71,,,,,,,,,f.PNG,f,5a8352feae9a0b0001a9da8f,2021-10-19_14h45.39.436,forced_choiceRT,2021.1.2,Win32,59.82292414,,,,,,,,10,Ontime,f,1,2.0551,2,2,10,0,1,,,,,
,1.09,,,,,,,,,f.PNG,f,5a8352feae9a0b0001a9da8f,2021-10-19_14h45.39.436,forced_choiceRT,2021.1.2,Win32,59.82292414,,,,,,,,10,Ontime,f,1,1.9736,2,3,11,0,1,,,,,
,0.44,,,,,,,,,j.PNG,j,5a8352feae9a0b0001a9da8f,2021-10-19_14h45.39.436,forced_choiceRT,2021.1.2,Win32,59.82292414,,,,,,,,10,Fast,j,1,1.8606,3,0,12,3,1,,,,,
,0.44,,,,,,,,,h.PNG,h,5a8352feae9a0b0001a9da8f,2021-10-19_14h45.39.436,forced_choiceRT,2021.1.2,Win32,59.82292414,,,,,,,,10,Ontime,h,1,1.9692,3,1,13,2,1,,,,,
,0.77,,,,,,,,,g.PNG,g,5a8352feae9a0b0001a9da8f,2021-10-19_14h45.39.436,forced_choiceRT,2021.1.2,Win32,59.82292414,,,,,,,,10,Ontime,g,1,1.9912,3,2,14,1,1,,,,,
,0.51,,,,,,,,,g.PNG,g,5a8352feae9a0b0001a9da8f,2021-10-19_14h45.39.436,forced_choiceRT,2021.1.2,Win32,59.82292414,,,,,,,,10,Ontime,g,1,2.096,3,3,15,1,1,,,,,
,1.59,,,,,,,,,j.PNG,j,5a8352feae9a0b0001a9da8f,2021-10-19_14h45.39.436,forced_choiceRT,2021.1.2,Win32,59.82292414,,,,,,,,10,Slow,h,0,2.1167,4,0,16,3,1,,,,,
,1.36,,,,,,,,,g.PNG,g,5a8352feae9a0b0001a9da8f,2021-10-19_14h45.39.436,forced_choiceRT,2021.1.2,Win32,59.82292414,,,,,,,,10,Fast,j,0,1.7526,4,1,17,1,1,,,,,
,0.28,,,,,,,,,h.PNG,h,5a8352feae9a0b0001a9da8f,2021-10-19_14h45.39.436,forced_choiceRT,2021.1.2,Win32,59.82292414,,,,,,,,10,Ontime,h,1,1.9861,4,2,18,2,1,,,,,
,0.06,,,,,,,,,f.PNG,f,5a8352feae9a0b0001a9da8f,2021-10-19_14h45.39.436,forced_choiceRT,2021.1.2,Win32,59.82292414,,,,,,,,10,Ontime,f,1,1.9322,4,3,19,0,1,,,,,
,0.37,,,,,,,,,f.PNG,f,5a8352feae9a0b0001a9da8f,2021-10-19_14h45.39.436,forced_choiceRT,2021.1.2,Win32,59.82292414,,,,,,,,10,Ontime,f,1,2.0531,5,0,20,0,1,,,,,
,0.66,,,,,,,,,j.PNG,j,5a8352feae9a0b0001a9da8f,2021-10-19_14h45.39.436,forced_choiceRT,2021.1.2,Win32,59.82292414,,,,,,,,10,Ontime,j,1,1.9285,5,1,21,3,1,,,,,
,1.48,,,,,,,,,f.PNG,f,5a8352feae9a0b0001a9da8f,2021-10-19_14h45.39.436,forced_choiceRT,2021.1.2,Win32,59.82292414,,,,,,,,10,Ontime,g,0,2.0834,5,2,22,0,1,,,,,
,1.13,,,,,,,,,f.PNG,f,5a8352feae9a0b0001a9da8f,2021-10-19_14h45.39.436,forced_choiceRT,2021.1.2,Win32,59.82292414,,,,,,,,10,Fast,f,1,1.7747,5,3,23,0,1,,,,,
,1.3,,,,,,,,,h.PNG,h,5a8352feae9a0b0001a9da8f,2021-10-19_14h45.39.436,forced_choiceRT,2021.1.2,Win32,59.82292414,,,,,,,,10,Ontime,h,1,1.9988,6,0,24,2,1,,,,,
,0.34,,,,,,,,,f.PNG,f,5a8352feae9a0b0001a9da8f,2021-10-19_14h45.39.436,forced_choiceRT,2021.1.2,Win32,59.82292414,,,,,,,,10,Ontime,f,1,1.9974,6,1,25,0,1,,,,,
,0.28,,,,,,,,,g.PNG,g,5a8352feae9a0b0001a9da8f,2021-10-19_14h45.39.436,forced_choiceRT,2021.1.2,Win32,59.82292414,,,,,,,,10,Slow,g,1,2.2026,6,2,26,1,1,,,,,
,1.28,,,,,,,,,f.PNG,f,5a8352feae9a0b0001a9da8f,2021-10-19_14h45.39.436,forced_choiceRT,2021.1.2,Win32,59.82292414,,,,,,,,10,Ontime,f,1,2.0104,6,3,27,0,1,,,,,
,0.92,,,,,,,,,j.PNG,j,5a8352feae9a0b0001a9da8f,2021-10-19_14h45.39.436,forced_choiceRT,2021.1.2,Win32,59.82292414,,,,,,,,10,Fast,j,1,1.7103,7,0,28,3,1,,,,,
,1.12,,,,,,,,,g.PNG,g,5a8352feae9a0b0001a9da8f,2021-10-19_14h45.39.436,forced_choiceRT,2021.1.2,Win32,59.82292414,,,,,,,,10,Fast,h,0,1.7789,7,1,29,1,1,,,,,
,0.77,,,,,,,,,h.PNG,h,5a8352feae9a0b0001a9da8f,2021-10-19_14h45.39.436,forced_choiceRT,2021.1.2,Win32,59.82292414,,,,,,,,10,Fast,h,1,1.8472,7,2,30,2,1,,,,,
,1.28,,,,,,,,,h.PNG,h,5a8352feae9a0b0001a9da8f,2021-10-19_14h45.39.436,forced_choiceRT,2021.1.2,Win32,59.82292414,,,,,,,,10,Ontime,h,1,2.0134,7,3,31,2,1,,,,,
,0.98,,,,,,,,,g.PNG,g,5a8352feae9a0b0001a9da8f,2021-10-19_14h45.39.436,forced_choiceRT,2021.1.2,Win32,59.82292414,,,,,,,,10,Ontime,g,1,1.9942,8,0,32,1,1,,,,,
,1.85,,,,,,,,,h.PNG,h,5a8352feae9a0b0001a9da8f,2021-10-19_14h45.39.436,forced_choiceRT,2021.1.2,Win32,59.82292414,,,,,,,,10,Ontime,g,0,1.9536,8,1,33,2,1,,,,,
,0,,,,,,,,,g.PNG,g,5a8352feae9a0b0001a9da8f,2021-10-19_14h45.39.436,forced_choiceRT,2021.1.2,Win32,59.82292414,,,,,,,,10,Fast,g,1,1.5925,8,2,34,1,1,,,,,
,0.63,,,,,,,,,j.PNG,j,5a8352feae9a0b0001a9da8f,2021-10-19_14h45.39.436,forced_choiceRT,2021.1.2,Win32,59.82292414,,,,,,,,10,Ontime,j,1,1.9944,8,3,35,3,1,,,,,
,1.99,,,,,,,,,f.PNG,f,5a8352feae9a0b0001a9da8f,2021-10-19_14h45.39.436,forced_choiceRT,2021.1.2,Win32,59.82292414,,,,,,,,10,Ontime,j,0,2.0502,9,0,36,0,1,,,,,
,0.62,,,,,,,,,h.PNG,h,5a8352feae9a0b0001a9da8f,2021-10-19_14h45.39.436,forced_choiceRT,2021.1.2,Win32,59.82292414,,,,,,,,10,Ontime,h,1,1.9174,9,1,37,2,1,,,,,
,0.62,,,,,,,,,j.PNG,j,5a8352feae9a0b0001a9da8f,2021-10-19_14h45.39.436,forced_choiceRT,2021.1.2,Win32,59.82292414,,,,,,,,10,Ontime,j,1,2.042,9,2,38,3,1,,,,,
,1.89,,,,,,,,,j.PNG,j,5a8352feae9a0b0001a9da8f,2021-10-19_14h45.39.436,forced_choiceRT,2021.1.2,Win32,59.82292414,,,,,,,,10,Slow,f,0,2.162,9,3,39,3,1,,,,,
,,,,,,,,,,,,5a8352feae9a0b0001a9da8f,2021-10-19_14h45.39.436,forced_choiceRT,2021.1.2,Win32,59.82292414,,,,,,,,,,,,,,,,,,9,0,9,0,1
