IP_Addresss,target_onset,trial_resp_sp.keys,trial_resp_sp.corr,trial_resp_sp.rt,trials_train_loop.thisRepN,trials_train_loop.thisTrialN,trials_train_loop.thisN,trials_train_loop.thisIndex,trials_train_loop.ran,pic,correct_key,participant,date,expName,psychopyVersion,OS,frameRate,trial_resp_timing.keys,trial_resp_timing.rt,trials_train_timing.thisRepN,trials_train_timing.thisTrialN,trials_train_timing.thisN,trials_train_timing.thisIndex,trials_train_timing.ran,block_id,ontime,forcedRT_resp.keys,forcedRT_resp.corr,forcedRT_resp.rt,trials.thisRepN,trials.thisTrialN,trials.thisN,trials.thisIndex,trials.ran,blocks.thisRepN,blocks.thisTrialN,blocks.thisN,blocks.thisIndex,blocks.ran
99.19.77.38,0,j,1,2.273,0,0,0,3,1,j.PNG,j,5a9262251eda410001360b2c,2021-10-19_14h45.45.432,forced_choiceRT,2021.1.2,Win32,19.96366613,,,,,,,,,,,,,,,,,,,,,,
,0,f,1,1.573,0,1,1,0,1,f.PNG,f,5a9262251eda410001360b2c,2021-10-19_14h45.45.432,forced_choiceRT,2021.1.2,Win32,19.96366613,,,,,,,,,,,,,,,,,,,,,,
,0,g,1,0.926,0,2,2,1,1,g.PNG,g,5a9262251eda410001360b2c,2021-10-19_14h45.45.432,forced_choiceRT,2021.1.2,Win32,19.96366613,,,,,,,,,,,,,,,,,,,,,,
,0,j,0,1.061,0,3,3,2,1,h.PNG,h,5a9262251eda410001360b2c,2021-10-19_14h45.45.432,forced_choiceRT,2021.1.2,Win32,19.96366613,,,,,,,,,,,,,,,,,,,,,,
,0,g,1,1.758,1,0,4,1,1,g.PNG,g,5a9262251eda410001360b2c,2021-10-19_14h45.45.432,forced_choiceRT,2021.1.2,Win32,19.96366613,,,,,,,,,,,,,,,,,,,,,,
,0,h,1,1.694,1,1,5,2,1,h.PNG,h,5a9262251eda410001360b2c,2021-10-19_14h45.45.432,forced_choiceRT,2021.1.2,Win32,19.96366613,,,,,,,,,,,,,,,,,,,,,,
,0,h,1,0.831,1,2,6,2,1,h.PNG,h,5a9262251eda410001360b2c,2021-10-19_14h45.45.432,forced_choiceRT,2021.1.2,Win32,19.96366613,,,,,,,,,,,,,,,,,,,,,,
,0,j,1,1.197,1,3,7,3,1,j.PNG,j,5a9262251eda410001360b2c,2021-10-19_14h45.45.432,forced_choiceRT,2021.1.2,Win32,19.96366613,,,,,,,,,,,,,,,,,,,,,,
,0,f,1,1.023,2,0,8,0,1,f.PNG,f,5a9262251eda410001360b2c,2021-10-19_14h45.45.432,forced_choiceRT,2021.1.2,Win32,19.96366613,,,,,,,,,,,,,,,,,,,,,,
,0,j,1,2.172,2,1,9,3,1,j.PNG,j,5a9262251eda410001360b2c,2021-10-19_14h45.45.432,forced_choiceRT,2021.1.2,Win32,19.96366613,,,,,,,,,,,,,,,,,,,,,,
,0,f,1,1.183,2,2,10,0,1,f.PNG,f,5a9262251eda410001360b2c,2021-10-19_14h45.45.432,forced_choiceRT,2021.1.2,Win32,19.96366613,,,,,,,,,,,,,,,,,,,,,,
,0,g,1,0.894,2,3,11,1,1,g.PNG,g,5a9262251eda410001360b2c,2021-10-19_14h45.45.432,forced_choiceRT,2021.1.2,Win32,19.96366613,,,,,,,,,,,,,,,,,,,,,,
,0,h,1,1.1,3,0,12,2,1,h.PNG,h,5a9262251eda410001360b2c,2021-10-19_14h45.45.432,forced_choiceRT,2021.1.2,Win32,19.96366613,,,,,,,,,,,,,,,,,,,,,,
,0,j,1,0.694,3,1,13,3,1,j.PNG,j,5a9262251eda410001360b2c,2021-10-19_14h45.45.432,forced_choiceRT,2021.1.2,Win32,19.96366613,,,,,,,,,,,,,,,,,,,,,,
,0,h,1,2.025,3,2,14,2,1,h.PNG,h,5a9262251eda410001360b2c,2021-10-19_14h45.45.432,forced_choiceRT,2021.1.2,Win32,19.96366613,,,,,,,,,,,,,,,,,,,,,,
,0,h,1,0.678,3,3,15,2,1,h.PNG,h,5a9262251eda410001360b2c,2021-10-19_14h45.45.432,forced_choiceRT,2021.1.2,Win32,19.96366613,,,,,,,,,,,,,,,,,,,,,,
,0,h,1,0.614,4,0,16,2,1,h.PNG,h,5a9262251eda410001360b2c,2021-10-19_14h45.45.432,forced_choiceRT,2021.1.2,Win32,19.96366613,,,,,,,,,,,,,,,,,,,,,,
,0,j,1,0.807,4,1,17,3,1,j.PNG,j,5a9262251eda410001360b2c,2021-10-19_14h45.45.432,forced_choiceRT,2021.1.2,Win32,19.96366613,,,,,,,,,,,,,,,,,,,,,,
,0,f,1,0.78,4,2,18,0,1,f.PNG,f,5a9262251eda410001360b2c,2021-10-19_14h45.45.432,forced_choiceRT,2021.1.2,Win32,19.96366613,,,,,,,,,,,,,,,,,,,,,,
,0,g,1,0.582,4,3,19,1,1,g.PNG,g,5a9262251eda410001360b2c,2021-10-19_14h45.45.432,forced_choiceRT,2021.1.2,Win32,19.96366613,,,,,,,,,,,,,,,,,,,,,,
,0,h,1,1.23,5,0,20,2,1,h.PNG,h,5a9262251eda410001360b2c,2021-10-19_14h45.45.432,forced_choiceRT,2021.1.2,Win32,19.96366613,,,,,,,,,,,,,,,,,,,,,,
,0,j,1,0.772,5,1,21,3,1,j.PNG,j,5a9262251eda410001360b2c,2021-10-19_14h45.45.432,forced_choiceRT,2021.1.2,Win32,19.96366613,,,,,,,,,,,,,,,,,,,,,,
,0,f,1,0.847,5,2,22,0,1,f.PNG,f,5a9262251eda410001360b2c,2021-10-19_14h45.45.432,forced_choiceRT,2021.1.2,Win32,19.96366613,,,,,,,,,,,,,,,,,,,,,,
,0,g,1,1.055,5,3,23,1,1,g.PNG,g,5a9262251eda410001360b2c,2021-10-19_14h45.45.432,forced_choiceRT,2021.1.2,Win32,19.96366613,,,,,,,,,,,,,,,,,,,,,,
,0,j,1,1.149,6,0,24,3,1,j.PNG,j,5a9262251eda410001360b2c,2021-10-19_14h45.45.432,forced_choiceRT,2021.1.2,Win32,19.96366613,,,,,,,,,,,,,,,,,,,,,,
,0,h,1,0.72,6,1,25,2,1,h.PNG,h,5a9262251eda410001360b2c,2021-10-19_14h45.45.432,forced_choiceRT,2021.1.2,Win32,19.96366613,,,,,,,,,,,,,,,,,,,,,,
,0,j,1,0.798,6,2,26,3,1,j.PNG,j,5a9262251eda410001360b2c,2021-10-19_14h45.45.432,forced_choiceRT,2021.1.2,Win32,19.96366613,,,,,,,,,,,,,,,,,,,,,,
,0,j,1,0.744,6,3,27,3,1,j.PNG,j,5a9262251eda410001360b2c,2021-10-19_14h45.45.432,forced_choiceRT,2021.1.2,Win32,19.96366613,,,,,,,,,,,,,,,,,,,,,,
,0,g,1,1.002,7,0,28,1,1,g.PNG,g,5a9262251eda410001360b2c,2021-10-19_14h45.45.432,forced_choiceRT,2021.1.2,Win32,19.96366613,,,,,,,,,,,,,,,,,,,,,,
,0,h,1,1.11,7,1,29,2,1,h.PNG,h,5a9262251eda410001360b2c,2021-10-19_14h45.45.432,forced_choiceRT,2021.1.2,Win32,19.96366613,,,,,,,,,,,,,,,,,,,,,,
,0,g,1,0.927,7,2,30,1,1,g.PNG,g,5a9262251eda410001360b2c,2021-10-19_14h45.45.432,forced_choiceRT,2021.1.2,Win32,19.96366613,,,,,,,,,,,,,,,,,,,,,,
,0,f,1,0.737,7,3,31,0,1,f.PNG,f,5a9262251eda410001360b2c,2021-10-19_14h45.45.432,forced_choiceRT,2021.1.2,Win32,19.96366613,,,,,,,,,,,,,,,,,,,,,,
,0,j,1,0.814,8,0,32,3,1,j.PNG,j,5a9262251eda410001360b2c,2021-10-19_14h45.45.432,forced_choiceRT,2021.1.2,Win32,19.96366613,,,,,,,,,,,,,,,,,,,,,,
,0,f,1,0.806,8,1,33,0,1,f.PNG,f,5a9262251eda410001360b2c,2021-10-19_14h45.45.432,forced_choiceRT,2021.1.2,Win32,19.96366613,,,,,,,,,,,,,,,,,,,,,,
,0,h,1,1.275,8,2,34,2,1,h.PNG,h,5a9262251eda410001360b2c,2021-10-19_14h45.45.432,forced_choiceRT,2021.1.2,Win32,19.96366613,,,,,,,,,,,,,,,,,,,,,,
,0,f,1,0.704,8,3,35,0,1,f.PNG,f,5a9262251eda410001360b2c,2021-10-19_14h45.45.432,forced_choiceRT,2021.1.2,Win32,19.96366613,,,,,,,,,,,,,,,,,,,,,,
,0,f,1,0.732,9,0,36,0,1,f.PNG,f,5a9262251eda410001360b2c,2021-10-19_14h45.45.432,forced_choiceRT,2021.1.2,Win32,19.96366613,,,,,,,,,,,,,,,,,,,,,,
,0,j,1,0.807,9,1,37,3,1,j.PNG,j,5a9262251eda410001360b2c,2021-10-19_14h45.45.432,forced_choiceRT,2021.1.2,Win32,19.96366613,,,,,,,,,,,,,,,,,,,,,,
,0,h,1,1.085,9,2,38,2,1,h.PNG,h,5a9262251eda410001360b2c,2021-10-19_14h45.45.432,forced_choiceRT,2021.1.2,Win32,19.96366613,,,,,,,,,,,,,,,,,,,,,,
,0,f,1,0.846,9,3,39,0,1,f.PNG,f,5a9262251eda410001360b2c,2021-10-19_14h45.45.432,forced_choiceRT,2021.1.2,Win32,19.96366613,,,,,,,,,,,,,,,,,,,,,,
,0,h,1,1.207,10,0,40,2,1,h.PNG,h,5a9262251eda410001360b2c,2021-10-19_14h45.45.432,forced_choiceRT,2021.1.2,Win32,19.96366613,,,,,,,,,,,,,,,,,,,,,,
,0,g,1,1.376,10,1,41,1,1,g.PNG,g,5a9262251eda410001360b2c,2021-10-19_14h45.45.432,forced_choiceRT,2021.1.2,Win32,19.96366613,,,,,,,,,,,,,,,,,,,,,,
,0,g,1,0.581,10,2,42,1,1,g.PNG,g,5a9262251eda410001360b2c,2021-10-19_14h45.45.432,forced_choiceRT,2021.1.2,Win32,19.96366613,,,,,,,,,,,,,,,,,,,,,,
,0,j,1,0.707,10,3,43,3,1,j.PNG,j,5a9262251eda410001360b2c,2021-10-19_14h45.45.432,forced_choiceRT,2021.1.2,Win32,19.96366613,,,,,,,,,,,,,,,,,,,,,,
,0,g,1,1.2,11,0,44,1,1,g.PNG,g,5a9262251eda410001360b2c,2021-10-19_14h45.45.432,forced_choiceRT,2021.1.2,Win32,19.96366613,,,,,,,,,,,,,,,,,,,,,,
,0,g,1,0.977,11,1,45,1,1,g.PNG,g,5a9262251eda410001360b2c,2021-10-19_14h45.45.432,forced_choiceRT,2021.1.2,Win32,19.96366613,,,,,,,,,,,,,,,,,,,,,,
,0,f,1,0.844,11,2,46,0,1,f.PNG,f,5a9262251eda410001360b2c,2021-10-19_14h45.45.432,forced_choiceRT,2021.1.2,Win32,19.96366613,,,,,,,,,,,,,,,,,,,,,,
,0,f,0,0.538,11,3,47,1,1,g.PNG,g,5a9262251eda410001360b2c,2021-10-19_14h45.45.432,forced_choiceRT,2021.1.2,Win32,19.96366613,,,,,,,,,,,,,,,,,,,,,,
,0,j,1,0.867,12,0,48,3,1,j.PNG,j,5a9262251eda410001360b2c,2021-10-19_14h45.45.432,forced_choiceRT,2021.1.2,Win32,19.96366613,,,,,,,,,,,,,,,,,,,,,,
,0,f,1,0.696,12,1,49,0,1,f.PNG,f,5a9262251eda410001360b2c,2021-10-19_14h45.45.432,forced_choiceRT,2021.1.2,Win32,19.96366613,,,,,,,,,,,,,,,,,,,,,,
,0,g,1,0.69,12,2,50,1,1,g.PNG,g,5a9262251eda410001360b2c,2021-10-19_14h45.45.432,forced_choiceRT,2021.1.2,Win32,19.96366613,,,,,,,,,,,,,,,,,,,,,,
,0,j,1,0.954,12,3,51,3,1,j.PNG,j,5a9262251eda410001360b2c,2021-10-19_14h45.45.432,forced_choiceRT,2021.1.2,Win32,19.96366613,,,,,,,,,,,,,,,,,,,,,,
,0,f,1,0.771,13,0,52,0,1,f.PNG,f,5a9262251eda410001360b2c,2021-10-19_14h45.45.432,forced_choiceRT,2021.1.2,Win32,19.96366613,,,,,,,,,,,,,,,,,,,,,,
,0,h,1,0.907,13,1,53,2,1,h.PNG,h,5a9262251eda410001360b2c,2021-10-19_14h45.45.432,forced_choiceRT,2021.1.2,Win32,19.96366613,,,,,,,,,,,,,,,,,,,,,,
,0,f,1,0.818,13,2,54,0,1,f.PNG,f,5a9262251eda410001360b2c,2021-10-19_14h45.45.432,forced_choiceRT,2021.1.2,Win32,19.96366613,,,,,,,,,,,,,,,,,,,,,,
,0,j,1,0.649,13,3,55,3,1,j.PNG,j,5a9262251eda410001360b2c,2021-10-19_14h45.45.432,forced_choiceRT,2021.1.2,Win32,19.96366613,,,,,,,,,,,,,,,,,,,,,,
,0,g,1,0.831,14,0,56,1,1,g.PNG,g,5a9262251eda410001360b2c,2021-10-19_14h45.45.432,forced_choiceRT,2021.1.2,Win32,19.96366613,,,,,,,,,,,,,,,,,,,,,,
,0,h,0,0.48,14,1,57,1,1,g.PNG,g,5a9262251eda410001360b2c,2021-10-19_14h45.45.432,forced_choiceRT,2021.1.2,Win32,19.96366613,,,,,,,,,,,,,,,,,,,,,,
,0,f,1,0.927,14,2,58,0,1,f.PNG,f,5a9262251eda410001360b2c,2021-10-19_14h45.45.432,forced_choiceRT,2021.1.2,Win32,19.96366613,,,,,,,,,,,,,,,,,,,,,,
,0,h,1,0.801,14,3,59,2,1,h.PNG,h,5a9262251eda410001360b2c,2021-10-19_14h45.45.432,forced_choiceRT,2021.1.2,Win32,19.96366613,,,,,,,,,,,,,,,,,,,,,,
,,,,,,,,,,,,5a9262251eda410001360b2c,2021-10-19_14h45.45.432,forced_choiceRT,2021.1.2,Win32,19.96366613,f,2.252,0,0,0,0,1,,,,,,,,,,,,,,,
,,,,,,,,,,,,5a9262251eda410001360b2c,2021-10-19_14h45.45.432,forced_choiceRT,2021.1.2,Win32,19.96366613,g,1.829,1,0,1,0,1,,,,,,,,,,,,,,,
,,,,,,,,,,,,5a9262251eda410001360b2c,2021-10-19_14h45.45.432,forced_choiceRT,2021.1.2,Win32,19.96366613,g,2.283,2,0,2,0,1,,,,,,,,,,,,,,,
,,,,,,,,,,,,5a9262251eda410001360b2c,2021-10-19_14h45.45.432,forced_choiceRT,2021.1.2,Win32,19.96366613,g,1.799,3,0,3,0,1,,,,,,,,,,,,,,,
,,,,,,,,,,,,5a9262251eda410001360b2c,2021-10-19_14h45.45.432,forced_choiceRT,2021.1.2,Win32,19.96366613,g,2.119,4,0,4,0,1,,,,,,,,,,,,,,,
,,,,,,,,,,,,5a9262251eda410001360b2c,2021-10-19_14h45.45.432,forced_choiceRT,2021.1.2,Win32,19.96366613,g,1.849,5,0,5,0,1,,,,,,,,,,,,,,,
,,,,,,,,,,,,5a9262251eda410001360b2c,2021-10-19_14h45.45.432,forced_choiceRT,2021.1.2,Win32,19.96366613,g,1.919,6,0,6,0,1,,,,,,,,,,,,,,,
,,,,,,,,,,,,5a9262251eda410001360b2c,2021-10-19_14h45.45.432,forced_choiceRT,2021.1.2,Win32,19.96366613,g,2.064,7,0,7,0,1,,,,,,,,,,,,,,,
,,,,,,,,,,,,5a9262251eda410001360b2c,2021-10-19_14h45.45.432,forced_choiceRT,2021.1.2,Win32,19.96366613,g,1.946,8,0,8,0,1,,,,,,,,,,,,,,,
,,,,,,,,,,,,5a9262251eda410001360b2c,2021-10-19_14h45.45.432,forced_choiceRT,2021.1.2,Win32,19.96366613,g,2,9,0,9,0,1,,,,,,,,,,,,,,,
,,,,,,,,,,,,5a9262251eda410001360b2c,2021-10-19_14h45.45.432,forced_choiceRT,2021.1.2,Win32,19.96366613,g,1.924,10,0,10,0,1,,,,,,,,,,,,,,,
,,,,,,,,,,,,5a9262251eda410001360b2c,2021-10-19_14h45.45.432,forced_choiceRT,2021.1.2,Win32,19.96366613,g,1.807,11,0,11,0,1,,,,,,,,,,,,,,,
,,,,,,,,,,,,5a9262251eda410001360b2c,2021-10-19_14h45.45.432,forced_choiceRT,2021.1.2,Win32,19.96366613,g,2.008,12,0,12,0,1,,,,,,,,,,,,,,,
,,,,,,,,,,,,5a9262251eda410001360b2c,2021-10-19_14h45.45.432,forced_choiceRT,2021.1.2,Win32,19.96366613,g,1.871,13,0,13,0,1,,,,,,,,,,,,,,,
,,,,,,,,,,,,5a9262251eda410001360b2c,2021-10-19_14h45.45.432,forced_choiceRT,2021.1.2,Win32,19.96366613,g,2.045,14,0,14,0,1,,,,,,,,,,,,,,,
,,,,,,,,,,,,5a9262251eda410001360b2c,2021-10-19_14h45.45.432,forced_choiceRT,2021.1.2,Win32,19.96366613,g,1.942,15,0,15,0,1,,,,,,,,,,,,,,,
,,,,,,,,,,,,5a9262251eda410001360b2c,2021-10-19_14h45.45.432,forced_choiceRT,2021.1.2,Win32,19.96366613,g,1.934,16,0,16,0,1,,,,,,,,,,,,,,,
,,,,,,,,,,,,5a9262251eda410001360b2c,2021-10-19_14h45.45.432,forced_choiceRT,2021.1.2,Win32,19.96366613,g,2.028,17,0,17,0,1,,,,,,,,,,,,,,,
,,,,,,,,,,,,5a9262251eda410001360b2c,2021-10-19_14h45.45.432,forced_choiceRT,2021.1.2,Win32,19.96366613,g,1.967,18,0,18,0,1,,,,,,,,,,,,,,,
,,,,,,,,,,,,5a9262251eda410001360b2c,2021-10-19_14h45.45.432,forced_choiceRT,2021.1.2,Win32,19.96366613,g,1.928,19,0,19,0,1,,,,,,,,,,,,,,,
,1.78,,,,,,,,,g.PNG,g,5a9262251eda410001360b2c,2021-10-19_14h45.45.432,forced_choiceRT,2021.1.2,Win32,19.96366613,,,,,,,,1,Fast,h,0,1.817,0,0,0,1,1,,,,,
,1.76,,,,,,,,,f.PNG,f,5a9262251eda410001360b2c,2021-10-19_14h45.45.432,forced_choiceRT,2021.1.2,Win32,19.96366613,,,,,,,,1,Ontime,g,0,1.926,0,1,1,0,1,,,,,
,0.75,,,,,,,,,g.PNG,g,5a9262251eda410001360b2c,2021-10-19_14h45.45.432,forced_choiceRT,2021.1.2,Win32,19.96366613,,,,,,,,1,Fast,g,1,1.542,0,2,2,1,1,,,,,
,1.24,,,,,,,,,f.PNG,f,5a9262251eda410001360b2c,2021-10-19_14h45.45.432,forced_choiceRT,2021.1.2,Win32,19.96366613,,,,,,,,1,Fast,g,0,1.737,0,3,3,0,1,,,,,
,1.95,,,,,,,,,h.PNG,h,5a9262251eda410001360b2c,2021-10-19_14h45.45.432,forced_choiceRT,2021.1.2,Win32,19.96366613,,,,,,,,1,Ontime,f,0,2.013,1,0,4,2,1,,,,,
,0.01,,,,,,,,,j.PNG,j,5a9262251eda410001360b2c,2021-10-19_14h45.45.432,forced_choiceRT,2021.1.2,Win32,19.96366613,,,,,,,,1,Fast,j,1,1.797,1,1,5,3,1,,,,,
,1.13,,,,,,,,,h.PNG,h,5a9262251eda410001360b2c,2021-10-19_14h45.45.432,forced_choiceRT,2021.1.2,Win32,19.96366613,,,,,,,,1,Slow,h,1,2.197,1,2,6,2,1,,,,,
,0.42,,,,,,,,,h.PNG,h,5a9262251eda410001360b2c,2021-10-19_14h45.45.432,forced_choiceRT,2021.1.2,Win32,19.96366613,,,,,,,,1,Fast,j,0,1.883,1,3,7,2,1,,,,,
,1.13,,,,,,,,,f.PNG,f,5a9262251eda410001360b2c,2021-10-19_14h45.45.432,forced_choiceRT,2021.1.2,Win32,19.96366613,,,,,,,,1,Fast,f,1,1.782,2,0,8,0,1,,,,,
,0.78,,,,,,,,,j.PNG,j,5a9262251eda410001360b2c,2021-10-19_14h45.45.432,forced_choiceRT,2021.1.2,Win32,19.96366613,,,,,,,,1,Fast,j,1,1.895,2,1,9,3,1,,,,,
,1.82,,,,,,,,,j.PNG,j,5a9262251eda410001360b2c,2021-10-19_14h45.45.432,forced_choiceRT,2021.1.2,Win32,19.96366613,,,,,,,,1,Slow,j,1,2.438,2,2,10,3,1,,,,,
,1.12,,,,,,,,,g.PNG,g,5a9262251eda410001360b2c,2021-10-19_14h45.45.432,forced_choiceRT,2021.1.2,Win32,19.96366613,,,,,,,,1,Ontime,g,1,2.082,2,3,11,1,1,,,,,
,1.45,,,,,,,,,h.PNG,h,5a9262251eda410001360b2c,2021-10-19_14h45.45.432,forced_choiceRT,2021.1.2,Win32,19.96366613,,,,,,,,1,Slow,h,1,2.292,3,0,12,2,1,,,,,
,1.2,,,,,,,,,h.PNG,h,5a9262251eda410001360b2c,2021-10-19_14h45.45.432,forced_choiceRT,2021.1.2,Win32,19.96366613,,,,,,,,1,Ontime,h,1,2.003,3,1,13,2,1,,,,,
,1.01,,,,,,,,,j.PNG,j,5a9262251eda410001360b2c,2021-10-19_14h45.45.432,forced_choiceRT,2021.1.2,Win32,19.96366613,,,,,,,,1,Fast,j,1,1.874,3,2,14,3,1,,,,,
,1.52,,,,,,,,,f.PNG,f,5a9262251eda410001360b2c,2021-10-19_14h45.45.432,forced_choiceRT,2021.1.2,Win32,19.96366613,,,,,,,,1,Slow,f,1,2.105,3,3,15,0,1,,,,,
,0.76,,,,,,,,,g.PNG,g,5a9262251eda410001360b2c,2021-10-19_14h45.45.432,forced_choiceRT,2021.1.2,Win32,19.96366613,,,,,,,,1,Ontime,g,1,1.966,4,0,16,1,1,,,,,
,0.3,,,,,,,,,h.PNG,h,5a9262251eda410001360b2c,2021-10-19_14h45.45.432,forced_choiceRT,2021.1.2,Win32,19.96366613,,,,,,,,1,Fast,h,1,1.88,4,1,17,2,1,,,,,
,1.15,,,,,,,,,g.PNG,g,5a9262251eda410001360b2c,2021-10-19_14h45.45.432,forced_choiceRT,2021.1.2,Win32,19.96366613,,,,,,,,1,Ontime,g,1,1.977,4,2,18,1,1,,,,,
,1.35,,,,,,,,,j.PNG,j,5a9262251eda410001360b2c,2021-10-19_14h45.45.432,forced_choiceRT,2021.1.2,Win32,19.96366613,,,,,,,,1,Slow,j,1,2.288,4,3,19,3,1,,,,,
,0.23,,,,,,,,,j.PNG,j,5a9262251eda410001360b2c,2021-10-19_14h45.45.432,forced_choiceRT,2021.1.2,Win32,19.96366613,,,,,,,,1,Ontime,j,1,1.968,5,0,20,3,1,,,,,
,1.4,,,,,,,,,f.PNG,f,5a9262251eda410001360b2c,2021-10-19_14h45.45.432,forced_choiceRT,2021.1.2,Win32,19.96366613,,,,,,,,1,Slow,f,1,2.316,5,1,21,0,1,,,,,
,0.18,,,,,,,,,g.PNG,g,5a9262251eda410001360b2c,2021-10-19_14h45.45.432,forced_choiceRT,2021.1.2,Win32,19.96366613,,,,,,,,1,Fast,g,1,1.827,5,2,22,1,1,,,,,
,1.96,,,,,,,,,g.PNG,g,5a9262251eda410001360b2c,2021-10-19_14h45.45.432,forced_choiceRT,2021.1.2,Win32,19.96366613,,,,,,,,1,Slow,h,0,2.366,5,3,23,1,1,,,,,
,1.04,,,,,,,,,f.PNG,f,5a9262251eda410001360b2c,2021-10-19_14h45.45.432,forced_choiceRT,2021.1.2,Win32,19.96366613,,,,,,,,1,Fast,f,1,1.839,6,0,24,0,1,,,,,
,1.24,,,,,,,,,g.PNG,g,5a9262251eda410001360b2c,2021-10-19_14h45.45.432,forced_choiceRT,2021.1.2,Win32,19.96366613,,,,,,,,1,Ontime,g,1,1.945,6,1,25,1,1,,,,,
,1.07,,,,,,,,,j.PNG,j,5a9262251eda410001360b2c,2021-10-19_14h45.45.432,forced_choiceRT,2021.1.2,Win32,19.96366613,,,,,,,,1,Fast,j,1,1.865,6,2,26,3,1,,,,,
,0.78,,,,,,,,,h.PNG,h,5a9262251eda410001360b2c,2021-10-19_14h45.45.432,forced_choiceRT,2021.1.2,Win32,19.96366613,,,,,,,,1,Ontime,h,1,1.928,6,3,27,2,1,,,,,
,1.53,,,,,,,,,f.PNG,f,5a9262251eda410001360b2c,2021-10-19_14h45.45.432,forced_choiceRT,2021.1.2,Win32,19.96366613,,,,,,,,1,Ontime,f,1,2.07,7,0,28,0,1,,,,,
,0.45,,,,,,,,,h.PNG,h,5a9262251eda410001360b2c,2021-10-19_14h45.45.432,forced_choiceRT,2021.1.2,Win32,19.96366613,,,,,,,,1,Ontime,h,1,1.94,7,1,29,2,1,,,,,
,0.67,,,,,,,,,h.PNG,h,5a9262251eda410001360b2c,2021-10-19_14h45.45.432,forced_choiceRT,2021.1.2,Win32,19.96366613,,,,,,,,1,Fast,h,1,1.884,7,2,30,2,1,,,,,
,1.97,,,,,,,,,j.PNG,j,5a9262251eda410001360b2c,2021-10-19_14h45.45.432,forced_choiceRT,2021.1.2,Win32,19.96366613,,,,,,,,1,Slow,j,1,2.825,7,3,31,3,1,,,,,
,1.83,,,,,,,,,j.PNG,j,5a9262251eda410001360b2c,2021-10-19_14h45.45.432,forced_choiceRT,2021.1.2,Win32,19.96366613,,,,,,,,1,Slow,j,1,2.27,8,0,32,3,1,,,,,
,0.67,,,,,,,,,j.PNG,j,5a9262251eda410001360b2c,2021-10-19_14h45.45.432,forced_choiceRT,2021.1.2,Win32,19.96366613,,,,,,,,1,Fast,j,1,1.873,8,1,33,3,1,,,,,
,1.84,,,,,,,,,f.PNG,f,5a9262251eda410001360b2c,2021-10-19_14h45.45.432,forced_choiceRT,2021.1.2,Win32,19.96366613,,,,,,,,1,Slow,f,1,2.165,8,2,34,0,1,,,,,
,0.38,,,,,,,,,g.PNG,g,5a9262251eda410001360b2c,2021-10-19_14h45.45.432,forced_choiceRT,2021.1.2,Win32,19.96366613,,,,,,,,1,Ontime,g,1,1.942,8,3,35,1,1,,,,,
,0.53,,,,,,,,,f.PNG,f,5a9262251eda410001360b2c,2021-10-19_14h45.45.432,forced_choiceRT,2021.1.2,Win32,19.96366613,,,,,,,,1,Fast,f,1,1.887,9,0,36,0,1,,,,,
,1.93,,,,,,,,,f.PNG,f,5a9262251eda410001360b2c,2021-10-19_14h45.45.432,forced_choiceRT,2021.1.2,Win32,19.96366613,,,,,,,,1,Slow,j,0,2.355,9,1,37,0,1,,,,,
,0.58,,,,,,,,,h.PNG,h,5a9262251eda410001360b2c,2021-10-19_14h45.45.432,forced_choiceRT,2021.1.2,Win32,19.96366613,,,,,,,,1,Fast,h,1,1.869,9,2,38,2,1,,,,,
,0.68,,,,,,,,,g.PNG,g,5a9262251eda410001360b2c,2021-10-19_14h45.45.432,forced_choiceRT,2021.1.2,Win32,19.96366613,,,,,,,,1,Slow,g,1,2.103,9,3,39,1,1,,,,,
,,,,,,,,,,,,5a9262251eda410001360b2c,2021-10-19_14h45.45.432,forced_choiceRT,2021.1.2,Win32,19.96366613,,,,,,,,,,,,,,,,,,0,0,0,0,1
,1.39,,,,,,,,,j.PNG,j,5a9262251eda410001360b2c,2021-10-19_14h45.45.432,forced_choiceRT,2021.1.2,Win32,19.96366613,,,,,,,,2,Slow,h,0,2.16,0,0,0,3,1,,,,,
,1.05,,,,,,,,,g.PNG,g,5a9262251eda410001360b2c,2021-10-19_14h45.45.432,forced_choiceRT,2021.1.2,Win32,19.96366613,,,,,,,,2,Ontime,g,1,1.992,0,1,1,1,1,,,,,
,1.15,,,,,,,,,f.PNG,f,5a9262251eda410001360b2c,2021-10-19_14h45.45.432,forced_choiceRT,2021.1.2,Win32,19.96366613,,,,,,,,2,Fast,f,1,1.818,0,2,2,0,1,,,,,
,0.26,,,,,,,,,h.PNG,h,5a9262251eda410001360b2c,2021-10-19_14h45.45.432,forced_choiceRT,2021.1.2,Win32,19.96366613,,,,,,,,2,Fast,h,1,1.861,0,3,3,2,1,,,,,
,0.48,,,,,,,,,j.PNG,j,5a9262251eda410001360b2c,2021-10-19_14h45.45.432,forced_choiceRT,2021.1.2,Win32,19.96366613,,,,,,,,2,Ontime,j,1,1.998,1,0,4,3,1,,,,,
,0.9,,,,,,,,,j.PNG,j,5a9262251eda410001360b2c,2021-10-19_14h45.45.432,forced_choiceRT,2021.1.2,Win32,19.96366613,,,,,,,,2,Fast,j,1,1.896,1,1,5,3,1,,,,,
,1.73,,,,,,,,,j.PNG,j,5a9262251eda410001360b2c,2021-10-19_14h45.45.432,forced_choiceRT,2021.1.2,Win32,19.96366613,,,,,,,,2,Slow,j,1,2.359,1,2,6,3,1,,,,,
,1.82,,,,,,,,,f.PNG,f,5a9262251eda410001360b2c,2021-10-19_14h45.45.432,forced_choiceRT,2021.1.2,Win32,19.96366613,,,,,,,,2,Slow,f,1,2.406,1,3,7,0,1,,,,,
,1.2,,,,,,,,,g.PNG,g,5a9262251eda410001360b2c,2021-10-19_14h45.45.432,forced_choiceRT,2021.1.2,Win32,19.96366613,,,,,,,,2,Fast,g,1,1.882,2,0,8,1,1,,,,,
,1.75,,,,,,,,,h.PNG,h,5a9262251eda410001360b2c,2021-10-19_14h45.45.432,forced_choiceRT,2021.1.2,Win32,19.96366613,,,,,,,,2,Slow,h,1,2.383,2,1,9,2,1,,,,,
,0.54,,,,,,,,,f.PNG,f,5a9262251eda410001360b2c,2021-10-19_14h45.45.432,forced_choiceRT,2021.1.2,Win32,19.96366613,,,,,,,,2,Ontime,f,1,1.96,2,2,10,0,1,,,,,
,0.15,,,,,,,,,f.PNG,f,5a9262251eda410001360b2c,2021-10-19_14h45.45.432,forced_choiceRT,2021.1.2,Win32,19.96366613,,,,,,,,2,Ontime,f,1,1.982,2,3,11,0,1,,,,,
,0.5,,,,,,,,,g.PNG,g,5a9262251eda410001360b2c,2021-10-19_14h45.45.432,forced_choiceRT,2021.1.2,Win32,19.96366613,,,,,,,,2,Slow,g,1,2.159,3,0,12,1,1,,,,,
,0.07,,,,,,,,,h.PNG,h,5a9262251eda410001360b2c,2021-10-19_14h45.45.432,forced_choiceRT,2021.1.2,Win32,19.96366613,,,,,,,,2,Ontime,h,1,1.911,3,1,13,2,1,,,,,
,0.16,,,,,,,,,j.PNG,j,5a9262251eda410001360b2c,2021-10-19_14h45.45.432,forced_choiceRT,2021.1.2,Win32,19.96366613,,,,,,,,2,Ontime,j,1,1.91,3,2,14,3,1,,,,,
,1.24,,,,,,,,,f.PNG,f,5a9262251eda410001360b2c,2021-10-19_14h45.45.432,forced_choiceRT,2021.1.2,Win32,19.96366613,,,,,,,,2,Ontime,f,1,2.045,3,3,15,0,1,,,,,
,1.35,,,,,,,,,g.PNG,g,5a9262251eda410001360b2c,2021-10-19_14h45.45.432,forced_choiceRT,2021.1.2,Win32,19.96366613,,,,,,,,2,Slow,g,1,2.244,4,0,16,1,1,,,,,
,0.26,,,,,,,,,h.PNG,h,5a9262251eda410001360b2c,2021-10-19_14h45.45.432,forced_choiceRT,2021.1.2,Win32,19.96366613,,,,,,,,2,Ontime,h,1,1.966,4,1,17,2,1,,,,,
,1.38,,,,,,,,,f.PNG,f,5a9262251eda410001360b2c,2021-10-19_14h45.45.432,forced_choiceRT,2021.1.2,Win32,19.96366613,,,,,,,,2,Ontime,f,1,2.058,4,2,18,0,1,,,,,
,0.9,,,,,,,,,g.PNG,g,5a9262251eda410001360b2c,2021-10-19_14h45.45.432,forced_choiceRT,2021.1.2,Win32,19.96366613,,,,,,,,2,Ontime,g,1,1.922,4,3,19,1,1,,,,,
,0.33,,,,,,,,,j.PNG,j,5a9262251eda410001360b2c,2021-10-19_14h45.45.432,forced_choiceRT,2021.1.2,Win32,19.96366613,,,,,,,,2,Ontime,j,1,1.982,5,0,20,3,1,,,,,
,1.67,,,,,,,,,f.PNG,f,5a9262251eda410001360b2c,2021-10-19_14h45.45.432,forced_choiceRT,2021.1.2,Win32,19.96366613,,,,,,,,2,Slow,f,1,2.224,5,1,21,0,1,,,,,
,0.96,,,,,,,,,h.PNG,h,5a9262251eda410001360b2c,2021-10-19_14h45.45.432,forced_choiceRT,2021.1.2,Win32,19.96366613,,,,,,,,2,Ontime,h,1,1.914,5,2,22,2,1,,,,,
,1.12,,,,,,,,,f.PNG,f,5a9262251eda410001360b2c,2021-10-19_14h45.45.432,forced_choiceRT,2021.1.2,Win32,19.96366613,,,,,,,,2,Fast,f,1,1.697,5,3,23,0,1,,,,,
,0.39,,,,,,,,,g.PNG,g,5a9262251eda410001360b2c,2021-10-19_14h45.45.432,forced_choiceRT,2021.1.2,Win32,19.96366613,,,,,,,,2,Slow,g,1,2.115,6,0,24,1,1,,,,,
,1.29,,,,,,,,,f.PNG,f,5a9262251eda410001360b2c,2021-10-19_14h45.45.432,forced_choiceRT,2021.1.2,Win32,19.96366613,,,,,,,,2,Slow,f,1,2.123,6,1,25,0,1,,,,,
,1.73,,,,,,,,,h.PNG,h,5a9262251eda410001360b2c,2021-10-19_14h45.45.432,forced_choiceRT,2021.1.2,Win32,19.96366613,,,,,,,,2,Slow,j,0,2.335,6,2,26,2,1,,,,,
,0.33,,,,,,,,,j.PNG,j,5a9262251eda410001360b2c,2021-10-19_14h45.45.432,forced_choiceRT,2021.1.2,Win32,19.96366613,,,,,,,,2,Fast,j,1,1.834,6,3,27,3,1,,,,,
,1.17,,,,,,,,,g.PNG,g,5a9262251eda410001360b2c,2021-10-19_14h45.45.432,forced_choiceRT,2021.1.2,Win32,19.96366613,,,,,,,,2,Ontime,g,1,2.008,7,0,28,1,1,,,,,
,1.86,,,,,,,,,g.PNG,g,5a9262251eda410001360b2c,2021-10-19_14h45.45.432,forced_choiceRT,2021.1.2,Win32,19.96366613,,,,,,,,2,Slow,g,1,2.409,7,1,29,1,1,,,,,
,1.88,,,,,,,,,g.PNG,g,5a9262251eda410001360b2c,2021-10-19_14h45.45.432,forced_choiceRT,2021.1.2,Win32,19.96366613,,,,,,,,2,Slow,g,1,2.375,7,2,30,1,1,,,,,
,0.52,,,,,,,,,f.PNG,f,5a9262251eda410001360b2c,2021-10-19_14h45.45.432,forced_choiceRT,2021.1.2,Win32,19.96366613,,,,,,,,2,Ontime,f,1,1.942,7,3,31,0,1,,,,,
,0.28,,,,,,,,,h.PNG,h,5a9262251eda410001360b2c,2021-10-19_14h45.45.432,forced_choiceRT,2021.1.2,Win32,19.96366613,,,,,,,,2,Fast,h,1,1.83,8,0,32,2,1,,,,,
,1.52,,,,,,,,,g.PNG,g,5a9262251eda410001360b2c,2021-10-19_14h45.45.432,forced_choiceRT,2021.1.2,Win32,19.96366613,,,,,,,,2,Slow,g,1,2.132,8,1,33,1,1,,,,,
,0.3,,,,,,,,,h.PNG,h,5a9262251eda410001360b2c,2021-10-19_14h45.45.432,forced_choiceRT,2021.1.2,Win32,19.96366613,,,,,,,,2,Fast,h,1,1.814,8,2,34,2,1,,,,,
,1.55,,,,,,,,,j.PNG,j,5a9262251eda410001360b2c,2021-10-19_14h45.45.432,forced_choiceRT,2021.1.2,Win32,19.96366613,,,,,,,,2,Slow,j,1,2.248,8,3,35,3,1,,,,,
,0.29,,,,,,,,,h.PNG,h,5a9262251eda410001360b2c,2021-10-19_14h45.45.432,forced_choiceRT,2021.1.2,Win32,19.96366613,,,,,,,,2,Fast,h,1,1.593,9,0,36,2,1,,,,,
,1.98,,,,,,,,,h.PNG,h,5a9262251eda410001360b2c,2021-10-19_14h45.45.432,forced_choiceRT,2021.1.2,Win32,19.96366613,,,,,,,,2,Slow,f,0,2.409,9,1,37,2,1,,,,,
,1.29,,,,,,,,,j.PNG,j,5a9262251eda410001360b2c,2021-10-19_14h45.45.432,forced_choiceRT,2021.1.2,Win32,19.96366613,,,,,,,,2,Ontime,h,0,1.946,9,2,38,3,1,,,,,
,1.17,,,,,,,,,j.PNG,j,5a9262251eda410001360b2c,2021-10-19_14h45.45.432,forced_choiceRT,2021.1.2,Win32,19.96366613,,,,,,,,2,Fast,j,1,1.787,9,3,39,3,1,,,,,
,,,,,,,,,,,,5a9262251eda410001360b2c,2021-10-19_14h45.45.432,forced_choiceRT,2021.1.2,Win32,19.96366613,,,,,,,,,,,,,,,,,,1,0,1,0,1
,0.63,,,,,,,,,g.PNG,g,5a9262251eda410001360b2c,2021-10-19_14h45.45.432,forced_choiceRT,2021.1.2,Win32,19.96366613,,,,,,,,3,Fast,g,1,1.716,0,0,0,1,1,,,,,
,1.24,,,,,,,,,h.PNG,h,5a9262251eda410001360b2c,2021-10-19_14h45.45.432,forced_choiceRT,2021.1.2,Win32,19.96366613,,,,,,,,3,Ontime,h,1,2.094,0,1,1,2,1,,,,,
,0.29,,,,,,,,,j.PNG,j,5a9262251eda410001360b2c,2021-10-19_14h45.45.432,forced_choiceRT,2021.1.2,Win32,19.96366613,,,,,,,,3,Ontime,j,1,1.926,0,2,2,3,1,,,,,
,0.66,,,,,,,,,h.PNG,h,5a9262251eda410001360b2c,2021-10-19_14h45.45.432,forced_choiceRT,2021.1.2,Win32,19.96366613,,,,,,,,3,Fast,h,1,1.822,0,3,3,2,1,,,,,
,0.4,,,,,,,,,f.PNG,f,5a9262251eda410001360b2c,2021-10-19_14h45.45.432,forced_choiceRT,2021.1.2,Win32,19.96366613,,,,,,,,3,Ontime,f,1,1.903,1,0,4,0,1,,,,,
,1.85,,,,,,,,,j.PNG,j,5a9262251eda410001360b2c,2021-10-19_14h45.45.432,forced_choiceRT,2021.1.2,Win32,19.96366613,,,,,,,,3,Slow,j,1,2.432,1,1,5,3,1,,,,,
,0.08,,,,,,,,,g.PNG,g,5a9262251eda410001360b2c,2021-10-19_14h45.45.432,forced_choiceRT,2021.1.2,Win32,19.96366613,,,,,,,,3,Ontime,g,1,1.902,1,2,6,1,1,,,,,
,0.38,,,,,,,,,g.PNG,g,5a9262251eda410001360b2c,2021-10-19_14h45.45.432,forced_choiceRT,2021.1.2,Win32,19.96366613,,,,,,,,3,Fast,g,1,1.878,1,3,7,1,1,,,,,
,0.43,,,,,,,,,f.PNG,f,5a9262251eda410001360b2c,2021-10-19_14h45.45.432,forced_choiceRT,2021.1.2,Win32,19.96366613,,,,,,,,3,Fast,f,1,1.803,2,0,8,0,1,,,,,
,0.81,,,,,,,,,f.PNG,f,5a9262251eda410001360b2c,2021-10-19_14h45.45.432,forced_choiceRT,2021.1.2,Win32,19.96366613,,,,,,,,3,Ontime,f,1,2.055,2,1,9,0,1,,,,,
,1.68,,,,,,,,,f.PNG,f,5a9262251eda410001360b2c,2021-10-19_14h45.45.432,forced_choiceRT,2021.1.2,Win32,19.96366613,,,,,,,,3,Slow,f,1,2.257,2,2,10,0,1,,,,,
,0.33,,,,,,,,,g.PNG,g,5a9262251eda410001360b2c,2021-10-19_14h45.45.432,forced_choiceRT,2021.1.2,Win32,19.96366613,,,,,,,,3,Ontime,g,1,2.067,2,3,11,1,1,,,,,
,1.16,,,,,,,,,h.PNG,h,5a9262251eda410001360b2c,2021-10-19_14h45.45.432,forced_choiceRT,2021.1.2,Win32,19.96366613,,,,,,,,3,Ontime,h,1,2.055,3,0,12,2,1,,,,,
,0.45,,,,,,,,,f.PNG,f,5a9262251eda410001360b2c,2021-10-19_14h45.45.432,forced_choiceRT,2021.1.2,Win32,19.96366613,,,,,,,,3,Fast,f,1,1.852,3,1,13,0,1,,,,,
,1.88,,,,,,,,,j.PNG,j,5a9262251eda410001360b2c,2021-10-19_14h45.45.432,forced_choiceRT,2021.1.2,Win32,19.96366613,,,,,,,,3,Slow,j,1,2.297,3,2,14,3,1,,,,,
,1.07,,,,,,,,,f.PNG,f,5a9262251eda410001360b2c,2021-10-19_14h45.45.432,forced_choiceRT,2021.1.2,Win32,19.96366613,,,,,,,,3,Ontime,f,1,2.042,3,3,15,0,1,,,,,
,1.62,,,,,,,,,g.PNG,g,5a9262251eda410001360b2c,2021-10-19_14h45.45.432,forced_choiceRT,2021.1.2,Win32,19.96366613,,,,,,,,3,Slow,g,1,2.266,4,0,16,1,1,,,,,
,0.69,,,,,,,,,f.PNG,f,5a9262251eda410001360b2c,2021-10-19_14h45.45.432,forced_choiceRT,2021.1.2,Win32,19.96366613,,,,,,,,3,Ontime,f,1,1.914,4,1,17,0,1,,,,,
,0.08,,,,,,,,,g.PNG,g,5a9262251eda410001360b2c,2021-10-19_14h45.45.432,forced_choiceRT,2021.1.2,Win32,19.96366613,,,,,,,,3,Ontime,g,1,1.933,4,2,18,1,1,,,,,
,0.92,,,,,,,,,g.PNG,g,5a9262251eda410001360b2c,2021-10-19_14h45.45.432,forced_choiceRT,2021.1.2,Win32,19.96366613,,,,,,,,3,Ontime,g,1,2.064,4,3,19,1,1,,,,,
,0.08,,,,,,,,,g.PNG,g,5a9262251eda410001360b2c,2021-10-19_14h45.45.432,forced_choiceRT,2021.1.2,Win32,19.96366613,,,,,,,,3,Ontime,g,1,2.061,5,0,20,1,1,,,,,
,0.67,,,,,,,,,f.PNG,f,5a9262251eda410001360b2c,2021-10-19_14h45.45.432,forced_choiceRT,2021.1.2,Win32,19.96366613,,,,,,,,3,Slow,f,1,2.196,5,1,21,0,1,,,,,
,1.93,,,,,,,,,j.PNG,j,5a9262251eda410001360b2c,2021-10-19_14h45.45.432,forced_choiceRT,2021.1.2,Win32,19.96366613,,,,,,,,3,Ontime,f,0,2.048,5,2,22,3,1,,,,,
,1.84,,,,,,,,,j.PNG,j,5a9262251eda410001360b2c,2021-10-19_14h45.45.432,forced_choiceRT,2021.1.2,Win32,19.96366613,,,,,,,,3,Slow,h,0,2.161,5,3,23,3,1,,,,,
,0.12,,,,,,,,,h.PNG,h,5a9262251eda410001360b2c,2021-10-19_14h45.45.432,forced_choiceRT,2021.1.2,Win32,19.96366613,,,,,,,,3,Fast,h,1,1.831,6,0,24,2,1,,,,,
,0.86,,,,,,,,,f.PNG,f,5a9262251eda410001360b2c,2021-10-19_14h45.45.432,forced_choiceRT,2021.1.2,Win32,19.96366613,,,,,,,,3,Ontime,f,1,1.961,6,1,25,0,1,,,,,
,1.52,,,,,,,,,j.PNG,j,5a9262251eda410001360b2c,2021-10-19_14h45.45.432,forced_choiceRT,2021.1.2,Win32,19.96366613,,,,,,,,3,Slow,j,1,2.143,6,2,26,3,1,,,,,
,0.77,,,,,,,,,j.PNG,j,5a9262251eda410001360b2c,2021-10-19_14h45.45.432,forced_choiceRT,2021.1.2,Win32,19.96366613,,,,,,,,3,Fast,j,1,1.758,6,3,27,3,1,,,,,
,0.24,,,,,,,,,h.PNG,h,5a9262251eda410001360b2c,2021-10-19_14h45.45.432,forced_choiceRT,2021.1.2,Win32,19.96366613,,,,,,,,3,Fast,h,1,1.882,7,0,28,2,1,,,,,
,0.76,,,,,,,,,j.PNG,j,5a9262251eda410001360b2c,2021-10-19_14h45.45.432,forced_choiceRT,2021.1.2,Win32,19.96366613,,,,,,,,3,Ontime,j,1,1.94,7,1,29,3,1,,,,,
,0.78,,,,,,,,,h.PNG,h,5a9262251eda410001360b2c,2021-10-19_14h45.45.432,forced_choiceRT,2021.1.2,Win32,19.96366613,,,,,,,,3,Ontime,h,1,2.029,7,2,30,2,1,,,,,
,0.83,,,,,,,,,j.PNG,j,5a9262251eda410001360b2c,2021-10-19_14h45.45.432,forced_choiceRT,2021.1.2,Win32,19.96366613,,,,,,,,3,Fast,j,1,1.85,7,3,31,3,1,,,,,
,1.63,,,,,,,,,f.PNG,f,5a9262251eda410001360b2c,2021-10-19_14h45.45.432,forced_choiceRT,2021.1.2,Win32,19.96366613,,,,,,,,3,Slow,f,1,2.28,8,0,32,0,1,,,,,
,0.98,,,,,,,,,g.PNG,g,5a9262251eda410001360b2c,2021-10-19_14h45.45.432,forced_choiceRT,2021.1.2,Win32,19.96366613,,,,,,,,3,Ontime,f,0,1.948,8,1,33,1,1,,,,,
,1.32,,,,,,,,,g.PNG,g,5a9262251eda410001360b2c,2021-10-19_14h45.45.432,forced_choiceRT,2021.1.2,Win32,19.96366613,,,,,,,,3,Fast,g,1,1.843,8,2,34,1,1,,,,,
,1.9,,,,,,,,,h.PNG,h,5a9262251eda410001360b2c,2021-10-19_14h45.45.432,forced_choiceRT,2021.1.2,Win32,19.96366613,,,,,,,,3,Slow,j,0,2.186,8,3,35,2,1,,,,,
,0.75,,,,,,,,,h.PNG,h,5a9262251eda410001360b2c,2021-10-19_14h45.45.432,forced_choiceRT,2021.1.2,Win32,19.96366613,,,,,,,,3,Ontime,h,1,1.944,9,0,36,2,1,,,,,
,1.48,,,,,,,,,j.PNG,j,5a9262251eda410001360b2c,2021-10-19_14h45.45.432,forced_choiceRT,2021.1.2,Win32,19.96366613,,,,,,,,3,Slow,j,1,2.137,9,1,37,3,1,,,,,
,0.34,,,,,,,,,h.PNG,h,5a9262251eda410001360b2c,2021-10-19_14h45.45.432,forced_choiceRT,2021.1.2,Win32,19.96366613,,,,,,,,3,Fast,h,1,1.827,9,2,38,2,1,,,,,
,1.62,,,,,,,,,h.PNG,h,5a9262251eda410001360b2c,2021-10-19_14h45.45.432,forced_choiceRT,2021.1.2,Win32,19.96366613,,,,,,,,3,Ontime,j,0,1.925,9,3,39,2,1,,,,,
,,,,,,,,,,,,5a9262251eda410001360b2c,2021-10-19_14h45.45.432,forced_choiceRT,2021.1.2,Win32,19.96366613,,,,,,,,,,,,,,,,,,2,0,2,0,1
,1.26,,,,,,,,,j.PNG,j,5a9262251eda410001360b2c,2021-10-19_14h45.45.432,forced_choiceRT,2021.1.2,Win32,19.96366613,,,,,,,,4,Ontime,j,1,1.99,0,0,0,3,1,,,,,
,0.77,,,,,,,,,h.PNG,h,5a9262251eda410001360b2c,2021-10-19_14h45.45.432,forced_choiceRT,2021.1.2,Win32,19.96366613,,,,,,,,4,Ontime,h,1,1.97,0,1,1,2,1,,,,,
,1.32,,,,,,,,,j.PNG,j,5a9262251eda410001360b2c,2021-10-19_14h45.45.432,forced_choiceRT,2021.1.2,Win32,19.96366613,,,,,,,,4,Slow,j,1,2.141,0,2,2,3,1,,,,,
,1.41,,,,,,,,,f.PNG,f,5a9262251eda410001360b2c,2021-10-19_14h45.45.432,forced_choiceRT,2021.1.2,Win32,19.96366613,,,,,,,,4,Ontime,f,1,1.944,0,3,3,0,1,,,,,
,0.79,,,,,,,,,f.PNG,f,5a9262251eda410001360b2c,2021-10-19_14h45.45.432,forced_choiceRT,2021.1.2,Win32,19.96366613,,,,,,,,4,Fast,f,1,1.893,1,0,4,0,1,,,,,
,1.92,,,,,,,,,f.PNG,f,5a9262251eda410001360b2c,2021-10-19_14h45.45.432,forced_choiceRT,2021.1.2,Win32,19.96366613,,,,,,,,4,Slow,f,1,2.306,1,1,5,0,1,,,,,
,1.98,,,,,,,,,j.PNG,j,5a9262251eda410001360b2c,2021-10-19_14h45.45.432,forced_choiceRT,2021.1.2,Win32,19.96366613,,,,,,,,4,Slow,f,0,2.178,1,2,6,3,1,,,,,
,1.06,,,,,,,,,f.PNG,f,5a9262251eda410001360b2c,2021-10-19_14h45.45.432,forced_choiceRT,2021.1.2,Win32,19.96366613,,,,,,,,4,Fast,f,1,1.813,1,3,7,0,1,,,,,
,1.77,,,,,,,,,h.PNG,h,5a9262251eda410001360b2c,2021-10-19_14h45.45.432,forced_choiceRT,2021.1.2,Win32,19.96366613,,,,,,,,4,Ontime,f,0,2.003,2,0,8,2,1,,,,,
,1.67,,,,,,,,,j.PNG,j,5a9262251eda410001360b2c,2021-10-19_14h45.45.432,forced_choiceRT,2021.1.2,Win32,19.96366613,,,,,,,,4,Slow,j,1,2.264,2,1,9,3,1,,,,,
,0.42,,,,,,,,,j.PNG,j,5a9262251eda410001360b2c,2021-10-19_14h45.45.432,forced_choiceRT,2021.1.2,Win32,19.96366613,,,,,,,,4,Fast,j,1,1.827,2,2,10,3,1,,,,,
,1.34,,,,,,,,,f.PNG,f,5a9262251eda410001360b2c,2021-10-19_14h45.45.432,forced_choiceRT,2021.1.2,Win32,19.96366613,,,,,,,,4,Slow,f,1,2.286,2,3,11,0,1,,,,,
,0.18,,,,,,,,,j.PNG,j,5a9262251eda410001360b2c,2021-10-19_14h45.45.432,forced_choiceRT,2021.1.2,Win32,19.96366613,,,,,,,,4,Fast,j,1,1.736,3,0,12,3,1,,,,,
,1.18,,,,,,,,,h.PNG,h,5a9262251eda410001360b2c,2021-10-19_14h45.45.432,forced_choiceRT,2021.1.2,Win32,19.96366613,,,,,,,,4,Slow,h,1,2.218,3,1,13,2,1,,,,,
,1.87,,,,,,,,,h.PNG,h,5a9262251eda410001360b2c,2021-10-19_14h45.45.432,forced_choiceRT,2021.1.2,Win32,19.96366613,,,,,,,,4,Slow,h,1,2.339,3,2,14,2,1,,,,,
,1.37,,,,,,,,,g.PNG,g,5a9262251eda410001360b2c,2021-10-19_14h45.45.432,forced_choiceRT,2021.1.2,Win32,19.96366613,,,,,,,,4,Fast,g,1,1.817,3,3,15,1,1,,,,,
,1.05,,,,,,,,,g.PNG,g,5a9262251eda410001360b2c,2021-10-19_14h45.45.432,forced_choiceRT,2021.1.2,Win32,19.96366613,,,,,,,,4,Ontime,g,1,1.971,4,0,16,1,1,,,,,
,1.23,,,,,,,,,g.PNG,g,5a9262251eda410001360b2c,2021-10-19_14h45.45.432,forced_choiceRT,2021.1.2,Win32,19.96366613,,,,,,,,4,Fast,g,1,1.875,4,1,17,1,1,,,,,
,1.46,,,,,,,,,h.PNG,h,5a9262251eda410001360b2c,2021-10-19_14h45.45.432,forced_choiceRT,2021.1.2,Win32,19.96366613,,,,,,,,4,Slow,h,1,2.241,4,2,18,2,1,,,,,
,0.18,,,,,,,,,f.PNG,f,5a9262251eda410001360b2c,2021-10-19_14h45.45.432,forced_choiceRT,2021.1.2,Win32,19.96366613,,,,,,,,4,Fast,f,1,1.821,4,3,19,0,1,,,,,
,0.74,,,,,,,,,h.PNG,h,5a9262251eda410001360b2c,2021-10-19_14h45.45.432,forced_choiceRT,2021.1.2,Win32,19.96366613,,,,,,,,4,Slow,h,1,2.177,5,0,20,2,1,,,,,
,0,,,,,,,,,g.PNG,g,5a9262251eda410001360b2c,2021-10-19_14h45.45.432,forced_choiceRT,2021.1.2,Win32,19.96366613,,,,,,,,4,Fast,g,1,1.876,5,1,21,1,1,,,,,
,0.81,,,,,,,,,g.PNG,g,5a9262251eda410001360b2c,2021-10-19_14h45.45.432,forced_choiceRT,2021.1.2,Win32,19.96366613,,,,,,,,4,Slow,g,1,2.178,5,2,22,1,1,,,,,
,0.74,,,,,,,,,g.PNG,g,5a9262251eda410001360b2c,2021-10-19_14h45.45.432,forced_choiceRT,2021.1.2,Win32,19.96366613,,,,,,,,4,Fast,g,1,1.845,5,3,23,1,1,,,,,
,1.41,,,,,,,,,f.PNG,f,5a9262251eda410001360b2c,2021-10-19_14h45.45.432,forced_choiceRT,2021.1.2,Win32,19.96366613,,,,,,,,4,Ontime,f,1,2.091,6,0,24,0,1,,,,,
,0.49,,,,,,,,,h.PNG,h,5a9262251eda410001360b2c,2021-10-19_14h45.45.432,forced_choiceRT,2021.1.2,Win32,19.96366613,,,,,,,,4,Fast,h,1,1.78,6,1,25,2,1,,,,,
,1.19,,,,,,,,,f.PNG,f,5a9262251eda410001360b2c,2021-10-19_14h45.45.432,forced_choiceRT,2021.1.2,Win32,19.96366613,,,,,,,,4,Ontime,f,1,2.065,6,2,26,0,1,,,,,
,1.85,,,,,,,,,f.PNG,f,5a9262251eda410001360b2c,2021-10-19_14h45.45.432,forced_choiceRT,2021.1.2,Win32,19.96366613,,,,,,,,4,Slow,f,1,2.456,6,3,27,0,1,,,,,
,0.96,,,,,,,,,j.PNG,j,5a9262251eda410001360b2c,2021-10-19_14h45.45.432,forced_choiceRT,2021.1.2,Win32,19.96366613,,,,,,,,4,Ontime,j,1,1.99,7,0,28,3,1,,,,,
,0.88,,,,,,,,,g.PNG,g,5a9262251eda410001360b2c,2021-10-19_14h45.45.432,forced_choiceRT,2021.1.2,Win32,19.96366613,,,,,,,,4,Ontime,g,1,1.981,7,1,29,1,1,,,,,
,0.34,,,,,,,,,g.PNG,g,5a9262251eda410001360b2c,2021-10-19_14h45.45.432,forced_choiceRT,2021.1.2,Win32,19.96366613,,,,,,,,4,Ontime,g,1,1.992,7,2,30,1,1,,,,,
,0.41,,,,,,,,,j.PNG,j,5a9262251eda410001360b2c,2021-10-19_14h45.45.432,forced_choiceRT,2021.1.2,Win32,19.96366613,,,,,,,,4,Ontime,j,1,2.064,7,3,31,3,1,,,,,
,0.17,,,,,,,,,j.PNG,j,5a9262251eda410001360b2c,2021-10-19_14h45.45.432,forced_choiceRT,2021.1.2,Win32,19.96366613,,,,,,,,4,Ontime,j,1,1.903,8,0,32,3,1,,,,,
,1.95,,,,,,,,,j.PNG,j,5a9262251eda410001360b2c,2021-10-19_14h45.45.432,forced_choiceRT,2021.1.2,Win32,19.96366613,,,,,,,,4,Slow,j,1,2.286,8,1,33,3,1,,,,,
,0.44,,,,,,,,,h.PNG,h,5a9262251eda410001360b2c,2021-10-19_14h45.45.432,forced_choiceRT,2021.1.2,Win32,19.96366613,,,,,,,,4,Fast,h,1,1.865,8,2,34,2,1,,,,,
,0.69,,,,,,,,,h.PNG,h,5a9262251eda410001360b2c,2021-10-19_14h45.45.432,forced_choiceRT,2021.1.2,Win32,19.96366613,,,,,,,,4,Ontime,h,1,1.961,8,3,35,2,1,,,,,
,0.36,,,,,,,,,g.PNG,g,5a9262251eda410001360b2c,2021-10-19_14h45.45.432,forced_choiceRT,2021.1.2,Win32,19.96366613,,,,,,,,4,Ontime,g,1,1.926,9,0,36,1,1,,,,,
,0.84,,,,,,,,,f.PNG,f,5a9262251eda410001360b2c,2021-10-19_14h45.45.432,forced_choiceRT,2021.1.2,Win32,19.96366613,,,,,,,,4,Slow,f,1,2.308,9,1,37,0,1,,,,,
,1.8,,,,,,,,,g.PNG,g,5a9262251eda410001360b2c,2021-10-19_14h45.45.432,forced_choiceRT,2021.1.2,Win32,19.96366613,,,,,,,,4,Ontime,f,0,1.949,9,2,38,1,1,,,,,
,1.92,,,,,,,,,h.PNG,h,5a9262251eda410001360b2c,2021-10-19_14h45.45.432,forced_choiceRT,2021.1.2,Win32,19.96366613,,,,,,,,4,Ontime,g,0,1.985,9,3,39,2,1,,,,,
,,,,,,,,,,,,5a9262251eda410001360b2c,2021-10-19_14h45.45.432,forced_choiceRT,2021.1.2,Win32,19.96366613,,,,,,,,,,,,,,,,,,3,0,3,0,1
,0.82,,,,,,,,,f.PNG,f,5a9262251eda410001360b2c,2021-10-19_14h45.45.432,forced_choiceRT,2021.1.2,Win32,19.96366613,,,,,,,,5,Fast,f,1,1.821,0,0,0,0,1,,,,,
,1.34,,,,,,,,,j.PNG,j,5a9262251eda410001360b2c,2021-10-19_14h45.45.432,forced_choiceRT,2021.1.2,Win32,19.96366613,,,,,,,,5,Ontime,j,1,1.995,0,1,1,3,1,,,,,
,1.57,,,,,,,,,h.PNG,h,5a9262251eda410001360b2c,2021-10-19_14h45.45.432,forced_choiceRT,2021.1.2,Win32,19.96366613,,,,,,,,5,Ontime,h,1,2.011,0,2,2,2,1,,,,,
,0.58,,,,,,,,,h.PNG,h,5a9262251eda410001360b2c,2021-10-19_14h45.45.432,forced_choiceRT,2021.1.2,Win32,19.96366613,,,,,,,,5,Ontime,h,1,1.959,0,3,3,2,1,,,,,
,1.33,,,,,,,,,g.PNG,g,5a9262251eda410001360b2c,2021-10-19_14h45.45.432,forced_choiceRT,2021.1.2,Win32,19.96366613,,,,,,,,5,Ontime,g,1,1.992,1,0,4,1,1,,,,,
,1.53,,,,,,,,,j.PNG,j,5a9262251eda410001360b2c,2021-10-19_14h45.45.432,forced_choiceRT,2021.1.2,Win32,19.96366613,,,,,,,,5,Slow,j,1,2.194,1,1,5,3,1,,,,,
,1.92,,,,,,,,,f.PNG,f,5a9262251eda410001360b2c,2021-10-19_14h45.45.432,forced_choiceRT,2021.1.2,Win32,19.96366613,,,,,,,,5,Ontime,j,0,1.996,1,2,6,0,1,,,,,
,0.64,,,,,,,,,j.PNG,j,5a9262251eda410001360b2c,2021-10-19_14h45.45.432,forced_choiceRT,2021.1.2,Win32,19.96366613,,,,,,,,5,Ontime,j,1,1.925,1,3,7,3,1,,,,,
,0.57,,,,,,,,,j.PNG,j,5a9262251eda410001360b2c,2021-10-19_14h45.45.432,forced_choiceRT,2021.1.2,Win32,19.96366613,,,,,,,,5,Ontime,j,1,1.907,2,0,8,3,1,,,,,
,0.92,,,,,,,,,g.PNG,g,5a9262251eda410001360b2c,2021-10-19_14h45.45.432,forced_choiceRT,2021.1.2,Win32,19.96366613,,,,,,,,5,Ontime,g,1,1.968,2,1,9,1,1,,,,,
,1.13,,,,,,,,,g.PNG,g,5a9262251eda410001360b2c,2021-10-19_14h45.45.432,forced_choiceRT,2021.1.2,Win32,19.96366613,,,,,,,,5,Ontime,g,1,1.992,2,2,10,1,1,,,,,
,0.12,,,,,,,,,h.PNG,h,5a9262251eda410001360b2c,2021-10-19_14h45.45.432,forced_choiceRT,2021.1.2,Win32,19.96366613,,,,,,,,5,Ontime,h,1,1.96,2,3,11,2,1,,,,,
,0.63,,,,,,,,,h.PNG,h,5a9262251eda410001360b2c,2021-10-19_14h45.45.432,forced_choiceRT,2021.1.2,Win32,19.96366613,,,,,,,,5,Ontime,h,1,2.042,3,0,12,2,1,,,,,
,1.8,,,,,,,,,g.PNG,g,5a9262251eda410001360b2c,2021-10-19_14h45.45.432,forced_choiceRT,2021.1.2,Win32,19.96366613,,,,,,,,5,Slow,g,1,2.299,3,1,13,1,1,,,,,
,0.71,,,,,,,,,h.PNG,h,5a9262251eda410001360b2c,2021-10-19_14h45.45.432,forced_choiceRT,2021.1.2,Win32,19.96366613,,,,,,,,5,Ontime,h,1,2.002,3,2,14,2,1,,,,,
,0.94,,,,,,,,,h.PNG,h,5a9262251eda410001360b2c,2021-10-19_14h45.45.432,forced_choiceRT,2021.1.2,Win32,19.96366613,,,,,,,,5,Ontime,h,1,1.949,3,3,15,2,1,,,,,
,1.33,,,,,,,,,h.PNG,h,5a9262251eda410001360b2c,2021-10-19_14h45.45.432,forced_choiceRT,2021.1.2,Win32,19.96366613,,,,,,,,5,Fast,h,1,1.877,4,0,16,2,1,,,,,
,1.53,,,,,,,,,f.PNG,f,5a9262251eda410001360b2c,2021-10-19_14h45.45.432,forced_choiceRT,2021.1.2,Win32,19.96366613,,,,,,,,5,Ontime,h,0,1.938,4,1,17,0,1,,,,,
,0.91,,,,,,,,,g.PNG,g,5a9262251eda410001360b2c,2021-10-19_14h45.45.432,forced_choiceRT,2021.1.2,Win32,19.96366613,,,,,,,,5,Ontime,g,1,1.945,4,2,18,1,1,,,,,
,0.24,,,,,,,,,f.PNG,f,5a9262251eda410001360b2c,2021-10-19_14h45.45.432,forced_choiceRT,2021.1.2,Win32,19.96366613,,,,,,,,5,Slow,f,1,2.145,4,3,19,0,1,,,,,
,0.22,,,,,,,,,g.PNG,g,5a9262251eda410001360b2c,2021-10-19_14h45.45.432,forced_choiceRT,2021.1.2,Win32,19.96366613,,,,,,,,5,Ontime,g,1,1.933,5,0,20,1,1,,,,,
,1.7,,,,,,,,,h.PNG,h,5a9262251eda410001360b2c,2021-10-19_14h45.45.432,forced_choiceRT,2021.1.2,Win32,19.96366613,,,,,,,,5,Ontime,f,0,1.997,5,1,21,2,1,,,,,
,1.61,,,,,,,,,j.PNG,j,5a9262251eda410001360b2c,2021-10-19_14h45.45.432,forced_choiceRT,2021.1.2,Win32,19.96366613,,,,,,,,5,Ontime,f,0,1.914,5,2,22,3,1,,,,,
,1.02,,,,,,,,,j.PNG,j,5a9262251eda410001360b2c,2021-10-19_14h45.45.432,forced_choiceRT,2021.1.2,Win32,19.96366613,,,,,,,,5,Ontime,j,1,1.925,5,3,23,3,1,,,,,
,0.93,,,,,,,,,f.PNG,f,5a9262251eda410001360b2c,2021-10-19_14h45.45.432,forced_choiceRT,2021.1.2,Win32,19.96366613,,,,,,,,5,Fast,f,1,1.866,6,0,24,0,1,,,,,
,0.48,,,,,,,,,h.PNG,h,5a9262251eda410001360b2c,2021-10-19_14h45.45.432,forced_choiceRT,2021.1.2,Win32,19.96366613,,,,,,,,5,Ontime,h,1,1.977,6,1,25,2,1,,,,,
,0.79,,,,,,,,,j.PNG,j,5a9262251eda410001360b2c,2021-10-19_14h45.45.432,forced_choiceRT,2021.1.2,Win32,19.96366613,,,,,,,,5,Ontime,j,1,2.012,6,2,26,3,1,,,,,
,0.16,,,,,,,,,f.PNG,f,5a9262251eda410001360b2c,2021-10-19_14h45.45.432,forced_choiceRT,2021.1.2,Win32,19.96366613,,,,,,,,5,Ontime,f,1,2.017,6,3,27,0,1,,,,,
,0.2,,,,,,,,,g.PNG,g,5a9262251eda410001360b2c,2021-10-19_14h45.45.432,forced_choiceRT,2021.1.2,Win32,19.96366613,,,,,,,,5,Ontime,g,1,2.066,7,0,28,1,1,,,,,
,0.35,,,,,,,,,j.PNG,j,5a9262251eda410001360b2c,2021-10-19_14h45.45.432,forced_choiceRT,2021.1.2,Win32,19.96366613,,,,,,,,5,Slow,j,1,2.135,7,1,29,3,1,,,,,
,0.06,,,,,,,,,f.PNG,f,5a9262251eda410001360b2c,2021-10-19_14h45.45.432,forced_choiceRT,2021.1.2,Win32,19.96366613,,,,,,,,5,Fast,f,1,1.893,7,2,30,0,1,,,,,
,1.43,,,,,,,,,f.PNG,f,5a9262251eda410001360b2c,2021-10-19_14h45.45.432,forced_choiceRT,2021.1.2,Win32,19.96366613,,,,,,,,5,Slow,f,1,2.125,7,3,31,0,1,,,,,
,1.97,,,,,,,,,g.PNG,g,5a9262251eda410001360b2c,2021-10-19_14h45.45.432,forced_choiceRT,2021.1.2,Win32,19.96366613,,,,,,,,5,Ontime,f,0,2.002,8,0,32,1,1,,,,,
,1.21,,,,,,,,,f.PNG,f,5a9262251eda410001360b2c,2021-10-19_14h45.45.432,forced_choiceRT,2021.1.2,Win32,19.96366613,,,,,,,,5,Ontime,f,1,2.037,8,1,33,0,1,,,,,
,1.79,,,,,,,,,f.PNG,f,5a9262251eda410001360b2c,2021-10-19_14h45.45.432,forced_choiceRT,2021.1.2,Win32,19.96366613,,,,,,,,5,Slow,f,1,2.268,8,2,34,0,1,,,,,
,1.11,,,,,,,,,h.PNG,h,5a9262251eda410001360b2c,2021-10-19_14h45.45.432,forced_choiceRT,2021.1.2,Win32,19.96366613,,,,,,,,5,Fast,f,0,1.607,8,3,35,2,1,,,,,
,0.1,,,,,,,,,g.PNG,g,5a9262251eda410001360b2c,2021-10-19_14h45.45.432,forced_choiceRT,2021.1.2,Win32,19.96366613,,,,,,,,5,Fast,g,1,1.892,9,0,36,1,1,,,,,
,1.28,,,,,,,,,j.PNG,j,5a9262251eda410001360b2c,2021-10-19_14h45.45.432,forced_choiceRT,2021.1.2,Win32,19.96366613,,,,,,,,5,Ontime,j,1,2.091,9,1,37,3,1,,,,,
,0.93,,,,,,,,,j.PNG,j,5a9262251eda410001360b2c,2021-10-19_14h45.45.432,forced_choiceRT,2021.1.2,Win32,19.96366613,,,,,,,,5,Ontime,j,1,2.07,9,2,38,3,1,,,,,
,1.21,,,,,,,,,g.PNG,g,5a9262251eda410001360b2c,2021-10-19_14h45.45.432,forced_choiceRT,2021.1.2,Win32,19.96366613,,,,,,,,5,Slow,g,1,2.159,9,3,39,1,1,,,,,
,,,,,,,,,,,,5a9262251eda410001360b2c,2021-10-19_14h45.45.432,forced_choiceRT,2021.1.2,Win32,19.96366613,,,,,,,,,,,,,,,,,,4,0,4,0,1
,1.47,,,,,,,,,g.PNG,g,5a9262251eda410001360b2c,2021-10-19_14h45.45.432,forced_choiceRT,2021.1.2,Win32,19.96366613,,,,,,,,6,Ontime,h,0,2.097,0,0,0,1,1,,,,,
,0.02,,,,,,,,,g.PNG,g,5a9262251eda410001360b2c,2021-10-19_14h45.45.432,forced_choiceRT,2021.1.2,Win32,19.96366613,,,,,,,,6,Fast,g,1,1.885,0,1,1,1,1,,,,,
,1.81,,,,,,,,,f.PNG,f,5a9262251eda410001360b2c,2021-10-19_14h45.45.432,forced_choiceRT,2021.1.2,Win32,19.96366613,,,,,,,,6,Slow,f,1,2.308,0,2,2,0,1,,,,,
,1.42,,,,,,,,,f.PNG,f,5a9262251eda410001360b2c,2021-10-19_14h45.45.432,forced_choiceRT,2021.1.2,Win32,19.96366613,,,,,,,,6,Ontime,f,1,2.09,0,3,3,0,1,,,,,
,1.36,,,,,,,,,g.PNG,g,5a9262251eda410001360b2c,2021-10-19_14h45.45.432,forced_choiceRT,2021.1.2,Win32,19.96366613,,,,,,,,6,Fast,f,0,1.861,1,0,4,1,1,,,,,
,0.54,,,,,,,,,j.PNG,j,5a9262251eda410001360b2c,2021-10-19_14h45.45.432,forced_choiceRT,2021.1.2,Win32,19.96366613,,,,,,,,6,Ontime,j,1,2.031,1,1,5,3,1,,,,,
,0.2,,,,,,,,,f.PNG,f,5a9262251eda410001360b2c,2021-10-19_14h45.45.432,forced_choiceRT,2021.1.2,Win32,19.96366613,,,,,,,,6,Fast,f,1,1.881,1,2,6,0,1,,,,,
,1.56,,,,,,,,,f.PNG,f,5a9262251eda410001360b2c,2021-10-19_14h45.45.432,forced_choiceRT,2021.1.2,Win32,19.96366613,,,,,,,,6,Ontime,f,1,1.964,1,3,7,0,1,,,,,
,0.2,,,,,,,,,h.PNG,h,5a9262251eda410001360b2c,2021-10-19_14h45.45.432,forced_choiceRT,2021.1.2,Win32,19.96366613,,,,,,,,6,Slow,h,1,2.11,2,0,8,2,1,,,,,
,0.07,,,,,,,,,g.PNG,g,5a9262251eda410001360b2c,2021-10-19_14h45.45.432,forced_choiceRT,2021.1.2,Win32,19.96366613,,,,,,,,6,Fast,g,1,1.828,2,1,9,1,1,,,,,
,0.3,,,,,,,,,g.PNG,g,5a9262251eda410001360b2c,2021-10-19_14h45.45.432,forced_choiceRT,2021.1.2,Win32,19.96366613,,,,,,,,6,Ontime,g,1,2.028,2,2,10,1,1,,,,,
,1.26,,,,,,,,,h.PNG,h,5a9262251eda410001360b2c,2021-10-19_14h45.45.432,forced_choiceRT,2021.1.2,Win32,19.96366613,,,,,,,,6,Slow,h,1,2.223,2,3,11,2,1,,,,,
,0.68,,,,,,,,,f.PNG,f,5a9262251eda410001360b2c,2021-10-19_14h45.45.432,forced_choiceRT,2021.1.2,Win32,19.96366613,,,,,,,,6,Fast,f,1,1.785,3,0,12,0,1,,,,,
,0.45,,,,,,,,,f.PNG,f,5a9262251eda410001360b2c,2021-10-19_14h45.45.432,forced_choiceRT,2021.1.2,Win32,19.96366613,,,,,,,,6,Ontime,f,1,1.907,3,1,13,0,1,,,,,
,1.35,,,,,,,,,g.PNG,g,5a9262251eda410001360b2c,2021-10-19_14h45.45.432,forced_choiceRT,2021.1.2,Win32,19.96366613,,,,,,,,6,Ontime,g,1,2.08,3,2,14,1,1,,,,,
,0.82,,,,,,,,,h.PNG,h,5a9262251eda410001360b2c,2021-10-19_14h45.45.432,forced_choiceRT,2021.1.2,Win32,19.96366613,,,,,,,,6,Fast,h,1,1.893,3,3,15,2,1,,,,,
,1.8,,,,,,,,,h.PNG,h,5a9262251eda410001360b2c,2021-10-19_14h45.45.432,forced_choiceRT,2021.1.2,Win32,19.96366613,,,,,,,,6,Slow,f,0,2.112,4,0,16,2,1,,,,,
,0.66,,,,,,,,,g.PNG,g,5a9262251eda410001360b2c,2021-10-19_14h45.45.432,forced_choiceRT,2021.1.2,Win32,19.96366613,,,,,,,,6,Ontime,g,1,1.936,4,1,17,1,1,,,,,
,0.47,,,,,,,,,j.PNG,j,5a9262251eda410001360b2c,2021-10-19_14h45.45.432,forced_choiceRT,2021.1.2,Win32,19.96366613,,,,,,,,6,Fast,j,1,1.878,4,2,18,3,1,,,,,
,1.27,,,,,,,,,j.PNG,j,5a9262251eda410001360b2c,2021-10-19_14h45.45.432,forced_choiceRT,2021.1.2,Win32,19.96366613,,,,,,,,6,Slow,j,1,2.199,4,3,19,3,1,,,,,
,1.42,,,,,,,,,j.PNG,j,5a9262251eda410001360b2c,2021-10-19_14h45.45.432,forced_choiceRT,2021.1.2,Win32,19.96366613,,,,,,,,6,Ontime,j,1,2.036,5,0,20,3,1,,,,,
,0.87,,,,,,,,,f.PNG,f,5a9262251eda410001360b2c,2021-10-19_14h45.45.432,forced_choiceRT,2021.1.2,Win32,19.96366613,,,,,,,,6,Ontime,f,1,2.08,5,1,21,0,1,,,,,
,0.63,,,,,,,,,g.PNG,g,5a9262251eda410001360b2c,2021-10-19_14h45.45.432,forced_choiceRT,2021.1.2,Win32,19.96366613,,,,,,,,6,Ontime,g,1,1.961,5,2,22,1,1,,,,,
,0.17,,,,,,,,,h.PNG,h,5a9262251eda410001360b2c,2021-10-19_14h45.45.432,forced_choiceRT,2021.1.2,Win32,19.96366613,,,,,,,,6,Fast,h,1,1.888,5,3,23,2,1,,,,,
,0.98,,,,,,,,,h.PNG,h,5a9262251eda410001360b2c,2021-10-19_14h45.45.432,forced_choiceRT,2021.1.2,Win32,19.96366613,,,,,,,,6,Ontime,h,1,2.087,6,0,24,2,1,,,,,
,1.63,,,,,,,,,h.PNG,h,5a9262251eda410001360b2c,2021-10-19_14h45.45.432,forced_choiceRT,2021.1.2,Win32,19.96366613,,,,,,,,6,Ontime,h,1,2.037,6,1,25,2,1,,,,,
,0.37,,,,,,,,,h.PNG,h,5a9262251eda410001360b2c,2021-10-19_14h45.45.432,forced_choiceRT,2021.1.2,Win32,19.96366613,,,,,,,,6,Fast,h,1,1.843,6,2,26,2,1,,,,,
,1.27,,,,,,,,,j.PNG,j,5a9262251eda410001360b2c,2021-10-19_14h45.45.432,forced_choiceRT,2021.1.2,Win32,19.96366613,,,,,,,,6,Slow,j,1,2.102,6,3,27,3,1,,,,,
,1.93,,,,,,,,,f.PNG,f,5a9262251eda410001360b2c,2021-10-19_14h45.45.432,forced_choiceRT,2021.1.2,Win32,19.96366613,,,,,,,,6,Slow,j,0,2.156,7,0,28,0,1,,,,,
,1.01,,,,,,,,,g.PNG,g,5a9262251eda410001360b2c,2021-10-19_14h45.45.432,forced_choiceRT,2021.1.2,Win32,19.96366613,,,,,,,,6,Ontime,g,1,1.989,7,1,29,1,1,,,,,
,1.53,,,,,,,,,f.PNG,f,5a9262251eda410001360b2c,2021-10-19_14h45.45.432,forced_choiceRT,2021.1.2,Win32,19.96366613,,,,,,,,6,Ontime,f,1,2.063,7,2,30,0,1,,,,,
,1.69,,,,,,,,,h.PNG,h,5a9262251eda410001360b2c,2021-10-19_14h45.45.432,forced_choiceRT,2021.1.2,Win32,19.96366613,,,,,,,,6,Ontime,f,0,2.064,7,3,31,2,1,,,,,
,1.23,,,,,,,,,f.PNG,f,5a9262251eda410001360b2c,2021-10-19_14h45.45.432,forced_choiceRT,2021.1.2,Win32,19.96366613,,,,,,,,6,Fast,f,1,1.89,8,0,32,0,1,,,,,
,1.73,,,,,,,,,j.PNG,j,5a9262251eda410001360b2c,2021-10-19_14h45.45.432,forced_choiceRT,2021.1.2,Win32,19.96366613,,,,,,,,6,Slow,j,1,2.25,8,1,33,3,1,,,,,
,0.81,,,,,,,,,j.PNG,j,5a9262251eda410001360b2c,2021-10-19_14h45.45.432,forced_choiceRT,2021.1.2,Win32,19.96366613,,,,,,,,6,Ontime,j,1,1.994,8,2,34,3,1,,,,,
,1.25,,,,,,,,,j.PNG,j,5a9262251eda410001360b2c,2021-10-19_14h45.45.432,forced_choiceRT,2021.1.2,Win32,19.96366613,,,,,,,,6,Ontime,j,1,2.073,8,3,35,3,1,,,,,
,0.19,,,,,,,,,j.PNG,j,5a9262251eda410001360b2c,2021-10-19_14h45.45.432,forced_choiceRT,2021.1.2,Win32,19.96366613,,,,,,,,6,Fast,j,1,1.862,9,0,36,3,1,,,,,
,1.01,,,,,,,,,h.PNG,h,5a9262251eda410001360b2c,2021-10-19_14h45.45.432,forced_choiceRT,2021.1.2,Win32,19.96366613,,,,,,,,6,Ontime,h,1,1.941,9,1,37,2,1,,,,,
,1.53,,,,,,,,,j.PNG,j,5a9262251eda410001360b2c,2021-10-19_14h45.45.432,forced_choiceRT,2021.1.2,Win32,19.96366613,,,,,,,,6,Slow,j,1,2.206,9,2,38,3,1,,,,,
,0.71,,,,,,,,,g.PNG,g,5a9262251eda410001360b2c,2021-10-19_14h45.45.432,forced_choiceRT,2021.1.2,Win32,19.96366613,,,,,,,,6,Ontime,g,1,1.996,9,3,39,1,1,,,,,
,,,,,,,,,,,,5a9262251eda410001360b2c,2021-10-19_14h45.45.432,forced_choiceRT,2021.1.2,Win32,19.96366613,,,,,,,,,,,,,,,,,,5,0,5,0,1
,1.55,,,,,,,,,j.PNG,j,5a9262251eda410001360b2c,2021-10-19_14h45.45.432,forced_choiceRT,2021.1.2,Win32,19.96366613,,,,,,,,7,Slow,j,1,2.183,0,0,0,3,1,,,,,
,0.8,,,,,,,,,f.PNG,f,5a9262251eda410001360b2c,2021-10-19_14h45.45.432,forced_choiceRT,2021.1.2,Win32,19.96366613,,,,,,,,7,Fast,f,1,1.896,0,1,1,0,1,,,,,
,0.85,,,,,,,,,h.PNG,h,5a9262251eda410001360b2c,2021-10-19_14h45.45.432,forced_choiceRT,2021.1.2,Win32,19.96366613,,,,,,,,7,Fast,h,1,1.853,0,2,2,2,1,,,,,
,1.99,,,,,,,,,g.PNG,g,5a9262251eda410001360b2c,2021-10-19_14h45.45.432,forced_choiceRT,2021.1.2,Win32,19.96366613,,,,,,,,7,Fast,j,0,1.798,0,3,3,1,1,,,,,
,1.97,,,,,,,,,f.PNG,f,5a9262251eda410001360b2c,2021-10-19_14h45.45.432,forced_choiceRT,2021.1.2,Win32,19.96366613,,,,,,,,7,Ontime,j,0,2.084,1,0,4,0,1,,,,,
,1.42,,,,,,,,,j.PNG,j,5a9262251eda410001360b2c,2021-10-19_14h45.45.432,forced_choiceRT,2021.1.2,Win32,19.96366613,,,,,,,,7,Fast,j,1,1.743,1,1,5,3,1,,,,,
,0.75,,,,,,,,,g.PNG,g,5a9262251eda410001360b2c,2021-10-19_14h45.45.432,forced_choiceRT,2021.1.2,Win32,19.96366613,,,,,,,,7,Ontime,g,1,2.008,1,2,6,1,1,,,,,
,1.51,,,,,,,,,h.PNG,h,5a9262251eda410001360b2c,2021-10-19_14h45.45.432,forced_choiceRT,2021.1.2,Win32,19.96366613,,,,,,,,7,Slow,f,0,2.112,1,3,7,2,1,,,,,
,1.85,,,,,,,,,h.PNG,h,5a9262251eda410001360b2c,2021-10-19_14h45.45.432,forced_choiceRT,2021.1.2,Win32,19.96366613,,,,,,,,7,Slow,f,0,2.108,2,0,8,2,1,,,,,
,1.6,,,,,,,,,f.PNG,f,5a9262251eda410001360b2c,2021-10-19_14h45.45.432,forced_choiceRT,2021.1.2,Win32,19.96366613,,,,,,,,7,Ontime,j,0,2.04,2,1,9,0,1,,,,,
,0.82,,,,,,,,,f.PNG,f,5a9262251eda410001360b2c,2021-10-19_14h45.45.432,forced_choiceRT,2021.1.2,Win32,19.96366613,,,,,,,,7,Fast,f,1,1.88,2,2,10,0,1,,,,,
,1.04,,,,,,,,,h.PNG,h,5a9262251eda410001360b2c,2021-10-19_14h45.45.432,forced_choiceRT,2021.1.2,Win32,19.96366613,,,,,,,,7,Fast,h,1,1.787,2,3,11,2,1,,,,,
,0.94,,,,,,,,,g.PNG,g,5a9262251eda410001360b2c,2021-10-19_14h45.45.432,forced_choiceRT,2021.1.2,Win32,19.96366613,,,,,,,,7,Fast,g,1,1.724,3,0,12,1,1,,,,,
,1.34,,,,,,,,,f.PNG,f,5a9262251eda410001360b2c,2021-10-19_14h45.45.432,forced_choiceRT,2021.1.2,Win32,19.96366613,,,,,,,,7,Slow,f,1,2.144,3,1,13,0,1,,,,,
,1.25,,,,,,,,,j.PNG,j,5a9262251eda410001360b2c,2021-10-19_14h45.45.432,forced_choiceRT,2021.1.2,Win32,19.96366613,,,,,,,,7,Ontime,j,1,2.045,3,2,14,3,1,,,,,
,0.46,,,,,,,,,f.PNG,f,5a9262251eda410001360b2c,2021-10-19_14h45.45.432,forced_choiceRT,2021.1.2,Win32,19.96366613,,,,,,,,7,Ontime,f,1,2.002,3,3,15,0,1,,,,,
,1.84,,,,,,,,,h.PNG,h,5a9262251eda410001360b2c,2021-10-19_14h45.45.432,forced_choiceRT,2021.1.2,Win32,19.96366613,,,,,,,,7,Slow,f,0,2.151,4,0,16,2,1,,,,,
,0.92,,,,,,,,,g.PNG,g,5a9262251eda410001360b2c,2021-10-19_14h45.45.432,forced_choiceRT,2021.1.2,Win32,19.96366613,,,,,,,,7,Ontime,g,1,1.98,4,1,17,1,1,,,,,
,1.15,,,,,,,,,h.PNG,h,5a9262251eda410001360b2c,2021-10-19_14h45.45.432,forced_choiceRT,2021.1.2,Win32,19.96366613,,,,,,,,7,Ontime,h,1,2.008,4,2,18,2,1,,,,,
,1.43,,,,,,,,,h.PNG,h,5a9262251eda410001360b2c,2021-10-19_14h45.45.432,forced_choiceRT,2021.1.2,Win32,19.96366613,,,,,,,,7,Ontime,h,1,2.042,4,3,19,2,1,,,,,
,0.73,,,,,,,,,j.PNG,j,5a9262251eda410001360b2c,2021-10-19_14h45.45.432,forced_choiceRT,2021.1.2,Win32,19.96366613,,,,,,,,7,Ontime,j,1,1.966,5,0,20,3,1,,,,,
,0.08,,,,,,,,,j.PNG,j,5a9262251eda410001360b2c,2021-10-19_14h45.45.432,forced_choiceRT,2021.1.2,Win32,19.96366613,,,,,,,,7,Ontime,j,1,1.903,5,1,21,3,1,,,,,
,0.97,,,,,,,,,g.PNG,g,5a9262251eda410001360b2c,2021-10-19_14h45.45.432,forced_choiceRT,2021.1.2,Win32,19.96366613,,,,,,,,7,Ontime,g,1,2.011,5,2,22,1,1,,,,,
,0.47,,,,,,,,,j.PNG,j,5a9262251eda410001360b2c,2021-10-19_14h45.45.432,forced_choiceRT,2021.1.2,Win32,19.96366613,,,,,,,,7,Ontime,j,1,1.955,5,3,23,3,1,,,,,
,0.24,,,,,,,,,g.PNG,g,5a9262251eda410001360b2c,2021-10-19_14h45.45.432,forced_choiceRT,2021.1.2,Win32,19.96366613,,,,,,,,7,Ontime,g,1,2.099,6,0,24,1,1,,,,,
,0.04,,,,,,,,,g.PNG,g,5a9262251eda410001360b2c,2021-10-19_14h45.45.432,forced_choiceRT,2021.1.2,Win32,19.96366613,,,,,,,,7,Ontime,g,1,2.053,6,1,25,1,1,,,,,
,0.75,,,,,,,,,j.PNG,j,5a9262251eda410001360b2c,2021-10-19_14h45.45.432,forced_choiceRT,2021.1.2,Win32,19.96366613,,,,,,,,7,Ontime,j,1,1.955,6,2,26,3,1,,,,,
,1.2,,,,,,,,,h.PNG,h,5a9262251eda410001360b2c,2021-10-19_14h45.45.432,forced_choiceRT,2021.1.2,Win32,19.96366613,,,,,,,,7,Ontime,h,1,2.048,6,3,27,2,1,,,,,
,0.67,,,,,,,,,f.PNG,f,5a9262251eda410001360b2c,2021-10-19_14h45.45.432,forced_choiceRT,2021.1.2,Win32,19.96366613,,,,,,,,7,Ontime,f,1,1.971,7,0,28,0,1,,,,,
,1.69,,,,,,,,,f.PNG,f,5a9262251eda410001360b2c,2021-10-19_14h45.45.432,forced_choiceRT,2021.1.2,Win32,19.96366613,,,,,,,,7,Slow,f,1,2.258,7,1,29,0,1,,,,,
,1.05,,,,,,,,,h.PNG,h,5a9262251eda410001360b2c,2021-10-19_14h45.45.432,forced_choiceRT,2021.1.2,Win32,19.96366613,,,,,,,,7,Ontime,h,1,1.908,7,2,30,2,1,,,,,
,1.05,,,,,,,,,j.PNG,j,5a9262251eda410001360b2c,2021-10-19_14h45.45.432,forced_choiceRT,2021.1.2,Win32,19.96366613,,,,,,,,7,Fast,j,1,1.746,7,3,31,3,1,,,,,
,1.51,,,,,,,,,f.PNG,f,5a9262251eda410001360b2c,2021-10-19_14h45.45.432,forced_choiceRT,2021.1.2,Win32,19.96366613,,,,,,,,7,Ontime,f,1,2.088,8,0,32,0,1,,,,,
,1.9,,,,,,,,,g.PNG,g,5a9262251eda410001360b2c,2021-10-19_14h45.45.432,forced_choiceRT,2021.1.2,Win32,19.96366613,,,,,,,,7,Slow,f,0,2.23,8,1,33,1,1,,,,,
,0.88,,,,,,,,,g.PNG,g,5a9262251eda410001360b2c,2021-10-19_14h45.45.432,forced_choiceRT,2021.1.2,Win32,19.96366613,,,,,,,,7,Fast,g,1,1.806,8,2,34,1,1,,,,,
,0.9,,,,,,,,,f.PNG,f,5a9262251eda410001360b2c,2021-10-19_14h45.45.432,forced_choiceRT,2021.1.2,Win32,19.96366613,,,,,,,,7,Fast,f,1,1.798,8,3,35,0,1,,,,,
,0.01,,,,,,,,,g.PNG,g,5a9262251eda410001360b2c,2021-10-19_14h45.45.432,forced_choiceRT,2021.1.2,Win32,19.96366613,,,,,,,,7,Ontime,g,1,1.949,9,0,36,1,1,,,,,
,0.08,,,,,,,,,j.PNG,j,5a9262251eda410001360b2c,2021-10-19_14h45.45.432,forced_choiceRT,2021.1.2,Win32,19.96366613,,,,,,,,7,Ontime,j,1,1.961,9,1,37,3,1,,,,,
,0.39,,,,,,,,,h.PNG,h,5a9262251eda410001360b2c,2021-10-19_14h45.45.432,forced_choiceRT,2021.1.2,Win32,19.96366613,,,,,,,,7,Ontime,h,1,2.05,9,2,38,2,1,,,,,
,1.56,,,,,,,,,j.PNG,j,5a9262251eda410001360b2c,2021-10-19_14h45.45.432,forced_choiceRT,2021.1.2,Win32,19.96366613,,,,,,,,7,Slow,j,1,2.341,9,3,39,3,1,,,,,
,,,,,,,,,,,,5a9262251eda410001360b2c,2021-10-19_14h45.45.432,forced_choiceRT,2021.1.2,Win32,19.96366613,,,,,,,,,,,,,,,,,,6,0,6,0,1
,0.01,,,,,,,,,h.PNG,h,5a9262251eda410001360b2c,2021-10-19_14h45.45.432,forced_choiceRT,2021.1.2,Win32,19.96366613,,,,,,,,8,Fast,h,1,1.302,0,0,0,2,1,,,,,
,0.96,,,,,,,,,f.PNG,f,5a9262251eda410001360b2c,2021-10-19_14h45.45.432,forced_choiceRT,2021.1.2,Win32,19.96366613,,,,,,,,8,Ontime,f,1,1.913,0,1,1,0,1,,,,,
,0.57,,,,,,,,,j.PNG,j,5a9262251eda410001360b2c,2021-10-19_14h45.45.432,forced_choiceRT,2021.1.2,Win32,19.96366613,,,,,,,,8,Ontime,j,1,1.964,0,2,2,3,1,,,,,
,0.85,,,,,,,,,f.PNG,f,5a9262251eda410001360b2c,2021-10-19_14h45.45.432,forced_choiceRT,2021.1.2,Win32,19.96366613,,,,,,,,8,Ontime,f,1,1.976,0,3,3,0,1,,,,,
,0.02,,,,,,,,,h.PNG,h,5a9262251eda410001360b2c,2021-10-19_14h45.45.432,forced_choiceRT,2021.1.2,Win32,19.96366613,,,,,,,,8,Fast,h,1,1.778,1,0,4,2,1,,,,,
,1.24,,,,,,,,,f.PNG,f,5a9262251eda410001360b2c,2021-10-19_14h45.45.432,forced_choiceRT,2021.1.2,Win32,19.96366613,,,,,,,,8,Slow,f,1,2.104,1,1,5,0,1,,,,,
,1.63,,,,,,,,,f.PNG,f,5a9262251eda410001360b2c,2021-10-19_14h45.45.432,forced_choiceRT,2021.1.2,Win32,19.96366613,,,,,,,,8,Ontime,f,1,1.948,1,2,6,0,1,,,,,
,0.68,,,,,,,,,g.PNG,g,5a9262251eda410001360b2c,2021-10-19_14h45.45.432,forced_choiceRT,2021.1.2,Win32,19.96366613,,,,,,,,8,Fast,g,1,1.861,1,3,7,1,1,,,,,
,0.31,,,,,,,,,g.PNG,g,5a9262251eda410001360b2c,2021-10-19_14h45.45.432,forced_choiceRT,2021.1.2,Win32,19.96366613,,,,,,,,8,Fast,g,1,1.841,2,0,8,1,1,,,,,
,0.99,,,,,,,,,g.PNG,g,5a9262251eda410001360b2c,2021-10-19_14h45.45.432,forced_choiceRT,2021.1.2,Win32,19.96366613,,,,,,,,8,Ontime,g,1,2.007,2,1,9,1,1,,,,,
,1.48,,,,,,,,,j.PNG,j,5a9262251eda410001360b2c,2021-10-19_14h45.45.432,forced_choiceRT,2021.1.2,Win32,19.96366613,,,,,,,,8,Ontime,g,0,1.937,2,2,10,3,1,,,,,
,0.14,,,,,,,,,h.PNG,h,5a9262251eda410001360b2c,2021-10-19_14h45.45.432,forced_choiceRT,2021.1.2,Win32,19.96366613,,,,,,,,8,Ontime,h,1,2.024,2,3,11,2,1,,,,,
,1.71,,,,,,,,,h.PNG,h,5a9262251eda410001360b2c,2021-10-19_14h45.45.432,forced_choiceRT,2021.1.2,Win32,19.96366613,,,,,,,,8,Ontime,j,0,2.047,3,0,12,2,1,,,,,
,0.47,,,,,,,,,g.PNG,g,5a9262251eda410001360b2c,2021-10-19_14h45.45.432,forced_choiceRT,2021.1.2,Win32,19.96366613,,,,,,,,8,Ontime,g,1,2.07,3,1,13,1,1,,,,,
,0.63,,,,,,,,,h.PNG,h,5a9262251eda410001360b2c,2021-10-19_14h45.45.432,forced_choiceRT,2021.1.2,Win32,19.96366613,,,,,,,,8,Slow,h,1,2.156,3,2,14,2,1,,,,,
,0.18,,,,,,,,,g.PNG,g,5a9262251eda410001360b2c,2021-10-19_14h45.45.432,forced_choiceRT,2021.1.2,Win32,19.96366613,,,,,,,,8,Ontime,g,1,1.945,3,3,15,1,1,,,,,
,0.71,,,,,,,,,j.PNG,j,5a9262251eda410001360b2c,2021-10-19_14h45.45.432,forced_choiceRT,2021.1.2,Win32,19.96366613,,,,,,,,8,Ontime,j,1,1.933,4,0,16,3,1,,,,,
,1.63,,,,,,,,,f.PNG,f,5a9262251eda410001360b2c,2021-10-19_14h45.45.432,forced_choiceRT,2021.1.2,Win32,19.96366613,,,,,,,,8,Fast,j,0,1.804,4,1,17,0,1,,,,,
,0.41,,,,,,,,,f.PNG,f,5a9262251eda410001360b2c,2021-10-19_14h45.45.432,forced_choiceRT,2021.1.2,Win32,19.96366613,,,,,,,,8,Ontime,f,1,1.992,4,2,18,0,1,,,,,
,1.47,,,,,,,,,j.PNG,j,5a9262251eda410001360b2c,2021-10-19_14h45.45.432,forced_choiceRT,2021.1.2,Win32,19.96366613,,,,,,,,8,Ontime,j,1,2.079,4,3,19,3,1,,,,,
,1.49,,,,,,,,,h.PNG,h,5a9262251eda410001360b2c,2021-10-19_14h45.45.432,forced_choiceRT,2021.1.2,Win32,19.96366613,,,,,,,,8,Slow,h,1,2.134,5,0,20,2,1,,,,,
,1.92,,,,,,,,,j.PNG,j,5a9262251eda410001360b2c,2021-10-19_14h45.45.432,forced_choiceRT,2021.1.2,Win32,19.96366613,,,,,,,,8,Slow,h,0,2.243,5,1,21,3,1,,,,,
,0.64,,,,,,,,,g.PNG,g,5a9262251eda410001360b2c,2021-10-19_14h45.45.432,forced_choiceRT,2021.1.2,Win32,19.96366613,,,,,,,,8,Fast,g,1,1.801,5,2,22,1,1,,,,,
,0.33,,,,,,,,,h.PNG,h,5a9262251eda410001360b2c,2021-10-19_14h45.45.432,forced_choiceRT,2021.1.2,Win32,19.96366613,,,,,,,,8,Fast,h,1,1.838,5,3,23,2,1,,,,,
,0.01,,,,,,,,,f.PNG,f,5a9262251eda410001360b2c,2021-10-19_14h45.45.432,forced_choiceRT,2021.1.2,Win32,19.96366613,,,,,,,,8,Fast,f,1,1.884,6,0,24,0,1,,,,,
,0.4,,,,,,,,,h.PNG,h,5a9262251eda410001360b2c,2021-10-19_14h45.45.432,forced_choiceRT,2021.1.2,Win32,19.96366613,,,,,,,,8,Ontime,h,1,2.001,6,1,25,2,1,,,,,
,1.86,,,,,,,,,g.PNG,g,5a9262251eda410001360b2c,2021-10-19_14h45.45.432,forced_choiceRT,2021.1.2,Win32,19.96366613,,,,,,,,8,Ontime,h,0,2.041,6,2,26,1,1,,,,,
,1.74,,,,,,,,,j.PNG,j,5a9262251eda410001360b2c,2021-10-19_14h45.45.432,forced_choiceRT,2021.1.2,Win32,19.96366613,,,,,,,,8,Ontime,g,0,2.023,6,3,27,3,1,,,,,
,0.64,,,,,,,,,f.PNG,f,5a9262251eda410001360b2c,2021-10-19_14h45.45.432,forced_choiceRT,2021.1.2,Win32,19.96366613,,,,,,,,8,Slow,f,1,2.118,7,0,28,0,1,,,,,
,1.34,,,,,,,,,j.PNG,j,5a9262251eda410001360b2c,2021-10-19_14h45.45.432,forced_choiceRT,2021.1.2,Win32,19.96366613,,,,,,,,8,Ontime,j,1,2.06,7,1,29,3,1,,,,,
,1.89,,,,,,,,,j.PNG,j,5a9262251eda410001360b2c,2021-10-19_14h45.45.432,forced_choiceRT,2021.1.2,Win32,19.96366613,,,,,,,,8,Fast,j,1,1.859,7,2,30,3,1,,,,,
,1.41,,,,,,,,,g.PNG,g,5a9262251eda410001360b2c,2021-10-19_14h45.45.432,forced_choiceRT,2021.1.2,Win32,19.96366613,,,,,,,,8,Fast,j,0,1.815,7,3,31,1,1,,,,,
,0.2,,,,,,,,,j.PNG,j,5a9262251eda410001360b2c,2021-10-19_14h45.45.432,forced_choiceRT,2021.1.2,Win32,19.96366613,,,,,,,,8,Ontime,j,1,2.015,8,0,32,3,1,,,,,
,0.27,,,,,,,,,h.PNG,h,5a9262251eda410001360b2c,2021-10-19_14h45.45.432,forced_choiceRT,2021.1.2,Win32,19.96366613,,,,,,,,8,Ontime,h,1,2.026,8,1,33,2,1,,,,,
,0.55,,,,,,,,,j.PNG,j,5a9262251eda410001360b2c,2021-10-19_14h45.45.432,forced_choiceRT,2021.1.2,Win32,19.96366613,,,,,,,,8,Ontime,j,1,2.023,8,2,34,3,1,,,,,
,0.47,,,,,,,,,g.PNG,g,5a9262251eda410001360b2c,2021-10-19_14h45.45.432,forced_choiceRT,2021.1.2,Win32,19.96366613,,,,,,,,8,Ontime,g,1,2.036,8,3,35,1,1,,,,,
,1.16,,,,,,,,,f.PNG,f,5a9262251eda410001360b2c,2021-10-19_14h45.45.432,forced_choiceRT,2021.1.2,Win32,19.96366613,,,,,,,,8,Ontime,f,1,2.096,9,0,36,0,1,,,,,
,0.25,,,,,,,,,f.PNG,f,5a9262251eda410001360b2c,2021-10-19_14h45.45.432,forced_choiceRT,2021.1.2,Win32,19.96366613,,,,,,,,8,Ontime,f,1,1.937,9,1,37,0,1,,,,,
,1.94,,,,,,,,,g.PNG,g,5a9262251eda410001360b2c,2021-10-19_14h45.45.432,forced_choiceRT,2021.1.2,Win32,19.96366613,,,,,,,,8,Ontime,h,0,1.99,9,2,38,1,1,,,,,
,1.23,,,,,,,,,h.PNG,h,5a9262251eda410001360b2c,2021-10-19_14h45.45.432,forced_choiceRT,2021.1.2,Win32,19.96366613,,,,,,,,8,Ontime,j,0,1.97,9,3,39,2,1,,,,,
,,,,,,,,,,,,5a9262251eda410001360b2c,2021-10-19_14h45.45.432,forced_choiceRT,2021.1.2,Win32,19.96366613,,,,,,,,,,,,,,,,,,7,0,7,0,1
,0.83,,,,,,,,,j.PNG,j,5a9262251eda410001360b2c,2021-10-19_14h45.45.432,forced_choiceRT,2021.1.2,Win32,19.96366613,,,,,,,,9,Ontime,j,1,1.94,0,0,0,3,1,,,,,
,1.82,,,,,,,,,g.PNG,g,5a9262251eda410001360b2c,2021-10-19_14h45.45.432,forced_choiceRT,2021.1.2,Win32,19.96366613,,,,,,,,9,Slow,j,0,2.148,0,1,1,1,1,,,,,
,0.87,,,,,,,,,h.PNG,h,5a9262251eda410001360b2c,2021-10-19_14h45.45.432,forced_choiceRT,2021.1.2,Win32,19.96366613,,,,,,,,9,Fast,h,1,1.833,0,2,2,2,1,,,,,
,1.93,,,,,,,,,h.PNG,h,5a9262251eda410001360b2c,2021-10-19_14h45.45.432,forced_choiceRT,2021.1.2,Win32,19.96366613,,,,,,,,9,Ontime,h,1,2.051,0,3,3,2,1,,,,,
,0.37,,,,,,,,,g.PNG,g,5a9262251eda410001360b2c,2021-10-19_14h45.45.432,forced_choiceRT,2021.1.2,Win32,19.96366613,,,,,,,,9,Ontime,g,1,1.94,1,0,4,1,1,,,,,
,0.14,,,,,,,,,f.PNG,f,5a9262251eda410001360b2c,2021-10-19_14h45.45.432,forced_choiceRT,2021.1.2,Win32,19.96366613,,,,,,,,9,Ontime,f,1,1.914,1,1,5,0,1,,,,,
,1.14,,,,,,,,,f.PNG,f,5a9262251eda410001360b2c,2021-10-19_14h45.45.432,forced_choiceRT,2021.1.2,Win32,19.96366613,,,,,,,,9,Ontime,f,1,2.08,1,2,6,0,1,,,,,
,0.77,,,,,,,,,g.PNG,g,5a9262251eda410001360b2c,2021-10-19_14h45.45.432,forced_choiceRT,2021.1.2,Win32,19.96366613,,,,,,,,9,Fast,g,1,1.829,1,3,7,1,1,,,,,
,1.25,,,,,,,,,h.PNG,h,5a9262251eda410001360b2c,2021-10-19_14h45.45.432,forced_choiceRT,2021.1.2,Win32,19.96366613,,,,,,,,9,Slow,h,1,2.143,2,0,8,2,1,,,,,
,0.58,,,,,,,,,f.PNG,f,5a9262251eda410001360b2c,2021-10-19_14h45.45.432,forced_choiceRT,2021.1.2,Win32,19.96366613,,,,,,,,9,Slow,f,1,2.137,2,1,9,0,1,,,,,
,1.75,,,,,,,,,h.PNG,h,5a9262251eda410001360b2c,2021-10-19_14h45.45.432,forced_choiceRT,2021.1.2,Win32,19.96366613,,,,,,,,9,Ontime,f,0,1.995,2,2,10,2,1,,,,,
,1.34,,,,,,,,,j.PNG,j,5a9262251eda410001360b2c,2021-10-19_14h45.45.432,forced_choiceRT,2021.1.2,Win32,19.96366613,,,,,,,,9,Ontime,h,0,2.025,2,3,11,3,1,,,,,
,0.5,,,,,,,,,h.PNG,h,5a9262251eda410001360b2c,2021-10-19_14h45.45.432,forced_choiceRT,2021.1.2,Win32,19.96366613,,,,,,,,9,Ontime,h,1,2.059,3,0,12,2,1,,,,,
,1.44,,,,,,,,,h.PNG,h,5a9262251eda410001360b2c,2021-10-19_14h45.45.432,forced_choiceRT,2021.1.2,Win32,19.96366613,,,,,,,,9,Ontime,h,1,2.075,3,1,13,2,1,,,,,
,1.74,,,,,,,,,j.PNG,j,5a9262251eda410001360b2c,2021-10-19_14h45.45.432,forced_choiceRT,2021.1.2,Win32,19.96366613,,,,,,,,9,Ontime,j,1,1.958,3,2,14,3,1,,,,,
,0.97,,,,,,,,,h.PNG,h,5a9262251eda410001360b2c,2021-10-19_14h45.45.432,forced_choiceRT,2021.1.2,Win32,19.96366613,,,,,,,,9,Fast,h,1,1.89,3,3,15,2,1,,,,,
,1.7,,,,,,,,,f.PNG,f,5a9262251eda410001360b2c,2021-10-19_14h45.45.432,forced_choiceRT,2021.1.2,Win32,19.96366613,,,,,,,,9,Slow,h,0,2.241,4,0,16,0,1,,,,,
,0.38,,,,,,,,,g.PNG,g,5a9262251eda410001360b2c,2021-10-19_14h45.45.432,forced_choiceRT,2021.1.2,Win32,19.96366613,,,,,,,,9,Ontime,g,1,1.991,4,1,17,1,1,,,,,
,1.07,,,,,,,,,j.PNG,j,5a9262251eda410001360b2c,2021-10-19_14h45.45.432,forced_choiceRT,2021.1.2,Win32,19.96366613,,,,,,,,9,Ontime,j,1,1.969,4,2,18,3,1,,,,,
,1.6,,,,,,,,,j.PNG,j,5a9262251eda410001360b2c,2021-10-19_14h45.45.432,forced_choiceRT,2021.1.2,Win32,19.96366613,,,,,,,,9,Ontime,j,1,1.984,4,3,19,3,1,,,,,
,0.99,,,,,,,,,g.PNG,g,5a9262251eda410001360b2c,2021-10-19_14h45.45.432,forced_choiceRT,2021.1.2,Win32,19.96366613,,,,,,,,9,Fast,g,1,1.862,5,0,20,1,1,,,,,
,0.4,,,,,,,,,j.PNG,j,5a9262251eda410001360b2c,2021-10-19_14h45.45.432,forced_choiceRT,2021.1.2,Win32,19.96366613,,,,,,,,9,Ontime,j,1,2.079,5,1,21,3,1,,,,,
,0.94,,,,,,,,,f.PNG,f,5a9262251eda410001360b2c,2021-10-19_14h45.45.432,forced_choiceRT,2021.1.2,Win32,19.96366613,,,,,,,,9,Ontime,f,1,1.99,5,2,22,0,1,,,,,
,1.9,,,,,,,,,h.PNG,h,5a9262251eda410001360b2c,2021-10-19_14h45.45.432,forced_choiceRT,2021.1.2,Win32,19.96366613,,,,,,,,9,Ontime,f,0,2.037,5,3,23,2,1,,,,,
,1.39,,,,,,,,,g.PNG,g,5a9262251eda410001360b2c,2021-10-19_14h45.45.432,forced_choiceRT,2021.1.2,Win32,19.96366613,,,,,,,,9,Ontime,h,0,2.087,6,0,24,1,1,,,,,
,0.54,,,,,,,,,f.PNG,f,5a9262251eda410001360b2c,2021-10-19_14h45.45.432,forced_choiceRT,2021.1.2,Win32,19.96366613,,,,,,,,9,Ontime,f,1,2.048,6,1,25,0,1,,,,,
,0.43,,,,,,,,,j.PNG,j,5a9262251eda410001360b2c,2021-10-19_14h45.45.432,forced_choiceRT,2021.1.2,Win32,19.96366613,,,,,,,,9,Ontime,j,1,2.058,6,2,26,3,1,,,,,
,1.5,,,,,,,,,h.PNG,h,5a9262251eda410001360b2c,2021-10-19_14h45.45.432,forced_choiceRT,2021.1.2,Win32,19.96366613,,,,,,,,9,Slow,h,1,2.19,6,3,27,2,1,,,,,
,1.81,,,,,,,,,f.PNG,f,5a9262251eda410001360b2c,2021-10-19_14h45.45.432,forced_choiceRT,2021.1.2,Win32,19.96366613,,,,,,,,9,Ontime,h,0,1.951,7,0,28,0,1,,,,,
,1.54,,,,,,,,,h.PNG,h,5a9262251eda410001360b2c,2021-10-19_14h45.45.432,forced_choiceRT,2021.1.2,Win32,19.96366613,,,,,,,,9,Ontime,f,0,1.941,7,1,29,2,1,,,,,
,0.13,,,,,,,,,f.PNG,f,5a9262251eda410001360b2c,2021-10-19_14h45.45.432,forced_choiceRT,2021.1.2,Win32,19.96366613,,,,,,,,9,Ontime,f,1,2.027,7,2,30,0,1,,,,,
,1.67,,,,,,,,,g.PNG,g,5a9262251eda410001360b2c,2021-10-19_14h45.45.432,forced_choiceRT,2021.1.2,Win32,19.96366613,,,,,,,,9,Ontime,f,0,2.059,7,3,31,1,1,,,,,
,1,,,,,,,,,j.PNG,j,5a9262251eda410001360b2c,2021-10-19_14h45.45.432,forced_choiceRT,2021.1.2,Win32,19.96366613,,,,,,,,9,Ontime,j,1,1.912,8,0,32,3,1,,,,,
,0.64,,,,,,,,,g.PNG,g,5a9262251eda410001360b2c,2021-10-19_14h45.45.432,forced_choiceRT,2021.1.2,Win32,19.96366613,,,,,,,,9,Ontime,g,1,1.909,8,1,33,1,1,,,,,
,0.96,,,,,,,,,g.PNG,g,5a9262251eda410001360b2c,2021-10-19_14h45.45.432,forced_choiceRT,2021.1.2,Win32,19.96366613,,,,,,,,9,Ontime,g,1,2.027,8,2,34,1,1,,,,,
,0.89,,,,,,,,,f.PNG,f,5a9262251eda410001360b2c,2021-10-19_14h45.45.432,forced_choiceRT,2021.1.2,Win32,19.96366613,,,,,,,,9,Fast,f,1,1.865,8,3,35,0,1,,,,,
,0.5,,,,,,,,,j.PNG,j,5a9262251eda410001360b2c,2021-10-19_14h45.45.432,forced_choiceRT,2021.1.2,Win32,19.96366613,,,,,,,,9,Ontime,j,1,2.095,9,0,36,3,1,,,,,
,0.87,,,,,,,,,g.PNG,g,5a9262251eda410001360b2c,2021-10-19_14h45.45.432,forced_choiceRT,2021.1.2,Win32,19.96366613,,,,,,,,9,Slow,g,1,2.108,9,1,37,1,1,,,,,
,1.83,,,,,,,,,j.PNG,j,5a9262251eda410001360b2c,2021-10-19_14h45.45.432,forced_choiceRT,2021.1.2,Win32,19.96366613,,,,,,,,9,Ontime,g,0,1.965,9,2,38,3,1,,,,,
,0.27,,,,,,,,,f.PNG,f,5a9262251eda410001360b2c,2021-10-19_14h45.45.432,forced_choiceRT,2021.1.2,Win32,19.96366613,,,,,,,,9,Ontime,f,1,1.992,9,3,39,0,1,,,,,
,,,,,,,,,,,,5a9262251eda410001360b2c,2021-10-19_14h45.45.432,forced_choiceRT,2021.1.2,Win32,19.96366613,,,,,,,,,,,,,,,,,,8,0,8,0,1
,1.98,,,,,,,,,f.PNG,f,5a9262251eda410001360b2c,2021-10-19_14h45.45.432,forced_choiceRT,2021.1.2,Win32,19.96366613,,,,,,,,10,Slow,g,0,2.598,0,0,0,0,1,,,,,
,1.55,,,,,,,,,h.PNG,h,5a9262251eda410001360b2c,2021-10-19_14h45.45.432,forced_choiceRT,2021.1.2,Win32,19.96366613,,,,,,,,10,Fast,f,0,1.884,0,1,1,2,1,,,,,
,0.71,,,,,,,,,g.PNG,g,5a9262251eda410001360b2c,2021-10-19_14h45.45.432,forced_choiceRT,2021.1.2,Win32,19.96366613,,,,,,,,10,Fast,g,1,1.657,0,2,2,1,1,,,,,
,0.83,,,,,,,,,f.PNG,f,5a9262251eda410001360b2c,2021-10-19_14h45.45.432,forced_choiceRT,2021.1.2,Win32,19.96366613,,,,,,,,10,Fast,f,1,1.893,0,3,3,0,1,,,,,
,0.63,,,,,,,,,f.PNG,f,5a9262251eda410001360b2c,2021-10-19_14h45.45.432,forced_choiceRT,2021.1.2,Win32,19.96366613,,,,,,,,10,Ontime,f,1,1.95,1,0,4,0,1,,,,,
,0.37,,,,,,,,,j.PNG,j,5a9262251eda410001360b2c,2021-10-19_14h45.45.432,forced_choiceRT,2021.1.2,Win32,19.96366613,,,,,,,,10,Ontime,j,1,1.958,1,1,5,3,1,,,,,
,0.65,,,,,,,,,j.PNG,j,5a9262251eda410001360b2c,2021-10-19_14h45.45.432,forced_choiceRT,2021.1.2,Win32,19.96366613,,,,,,,,10,Ontime,j,1,1.934,1,2,6,3,1,,,,,
,1.01,,,,,,,,,f.PNG,f,5a9262251eda410001360b2c,2021-10-19_14h45.45.432,forced_choiceRT,2021.1.2,Win32,19.96366613,,,,,,,,10,Fast,f,1,1.827,1,3,7,0,1,,,,,
,1.35,,,,,,,,,h.PNG,h,5a9262251eda410001360b2c,2021-10-19_14h45.45.432,forced_choiceRT,2021.1.2,Win32,19.96366613,,,,,,,,10,Fast,f,0,1.795,2,0,8,2,1,,,,,
,0.49,,,,,,,,,g.PNG,g,5a9262251eda410001360b2c,2021-10-19_14h45.45.432,forced_choiceRT,2021.1.2,Win32,19.96366613,,,,,,,,10,Ontime,g,1,1.941,2,1,9,1,1,,,,,
,0.55,,,,,,,,,g.PNG,g,5a9262251eda410001360b2c,2021-10-19_14h45.45.432,forced_choiceRT,2021.1.2,Win32,19.96366613,,,,,,,,10,Ontime,g,1,2.076,2,2,10,1,1,,,,,
,0.56,,,,,,,,,j.PNG,j,5a9262251eda410001360b2c,2021-10-19_14h45.45.432,forced_choiceRT,2021.1.2,Win32,19.96366613,,,,,,,,10,Ontime,j,1,2.039,2,3,11,3,1,,,,,
,0.18,,,,,,,,,j.PNG,j,5a9262251eda410001360b2c,2021-10-19_14h45.45.432,forced_choiceRT,2021.1.2,Win32,19.96366613,,,,,,,,10,Ontime,j,1,1.963,3,0,12,3,1,,,,,
,1.49,,,,,,,,,f.PNG,f,5a9262251eda410001360b2c,2021-10-19_14h45.45.432,forced_choiceRT,2021.1.2,Win32,19.96366613,,,,,,,,10,Slow,f,1,2.305,3,1,13,0,1,,,,,
,0.71,,,,,,,,,f.PNG,f,5a9262251eda410001360b2c,2021-10-19_14h45.45.432,forced_choiceRT,2021.1.2,Win32,19.96366613,,,,,,,,10,Ontime,f,1,1.91,3,2,14,0,1,,,,,
,1.01,,,,,,,,,j.PNG,j,5a9262251eda410001360b2c,2021-10-19_14h45.45.432,forced_choiceRT,2021.1.2,Win32,19.96366613,,,,,,,,10,Fast,j,1,1.878,3,3,15,3,1,,,,,
,1.2,,,,,,,,,g.PNG,g,5a9262251eda410001360b2c,2021-10-19_14h45.45.432,forced_choiceRT,2021.1.2,Win32,19.96366613,,,,,,,,10,Ontime,g,1,1.935,4,0,16,1,1,,,,,
,1.3,,,,,,,,,g.PNG,g,5a9262251eda410001360b2c,2021-10-19_14h45.45.432,forced_choiceRT,2021.1.2,Win32,19.96366613,,,,,,,,10,Ontime,g,1,1.912,4,1,17,1,1,,,,,
,1.79,,,,,,,,,f.PNG,f,5a9262251eda410001360b2c,2021-10-19_14h45.45.432,forced_choiceRT,2021.1.2,Win32,19.96366613,,,,,,,,10,Ontime,j,0,2.057,4,2,18,0,1,,,,,
,0.83,,,,,,,,,g.PNG,g,5a9262251eda410001360b2c,2021-10-19_14h45.45.432,forced_choiceRT,2021.1.2,Win32,19.96366613,,,,,,,,10,Fast,g,1,1.819,4,3,19,1,1,,,,,
,0.07,,,,,,,,,f.PNG,f,5a9262251eda410001360b2c,2021-10-19_14h45.45.432,forced_choiceRT,2021.1.2,Win32,19.96366613,,,,,,,,10,Ontime,f,1,2.017,5,0,20,0,1,,,,,
,1.34,,,,,,,,,f.PNG,f,5a9262251eda410001360b2c,2021-10-19_14h45.45.432,forced_choiceRT,2021.1.2,Win32,19.96366613,,,,,,,,10,Slow,f,1,2.101,5,1,21,0,1,,,,,
,1.21,,,,,,,,,h.PNG,h,5a9262251eda410001360b2c,2021-10-19_14h45.45.432,forced_choiceRT,2021.1.2,Win32,19.96366613,,,,,,,,10,Fast,h,1,1.9,5,2,22,2,1,,,,,
,1.49,,,,,,,,,h.PNG,h,5a9262251eda410001360b2c,2021-10-19_14h45.45.432,forced_choiceRT,2021.1.2,Win32,19.96366613,,,,,,,,10,Fast,j,0,1.839,5,3,23,2,1,,,,,
,1.91,,,,,,,,,j.PNG,j,5a9262251eda410001360b2c,2021-10-19_14h45.45.432,forced_choiceRT,2021.1.2,Win32,19.96366613,,,,,,,,10,Slow,h,0,2.254,6,0,24,3,1,,,,,
,0.52,,,,,,,,,j.PNG,j,5a9262251eda410001360b2c,2021-10-19_14h45.45.432,forced_choiceRT,2021.1.2,Win32,19.96366613,,,,,,,,10,Fast,j,1,1.743,6,1,25,3,1,,,,,
,1.65,,,,,,,,,g.PNG,g,5a9262251eda410001360b2c,2021-10-19_14h45.45.432,forced_choiceRT,2021.1.2,Win32,19.96366613,,,,,,,,10,Ontime,j,0,1.954,6,2,26,1,1,,,,,
,1.53,,,,,,,,,h.PNG,h,5a9262251eda410001360b2c,2021-10-19_14h45.45.432,forced_choiceRT,2021.1.2,Win32,19.96366613,,,,,,,,10,Ontime,g,0,2.024,6,3,27,2,1,,,,,
,0.9,,,,,,,,,g.PNG,g,5a9262251eda410001360b2c,2021-10-19_14h45.45.432,forced_choiceRT,2021.1.2,Win32,19.96366613,,,,,,,,10,Fast,g,1,1.735,7,0,28,1,1,,,,,
,0.19,,,,,,,,,j.PNG,j,5a9262251eda410001360b2c,2021-10-19_14h45.45.432,forced_choiceRT,2021.1.2,Win32,19.96366613,,,,,,,,10,Fast,j,1,1.791,7,1,29,3,1,,,,,
,1.05,,,,,,,,,h.PNG,h,5a9262251eda410001360b2c,2021-10-19_14h45.45.432,forced_choiceRT,2021.1.2,Win32,19.96366613,,,,,,,,10,Ontime,h,1,1.981,7,2,30,2,1,,,,,
,1.97,,,,,,,,,h.PNG,h,5a9262251eda410001360b2c,2021-10-19_14h45.45.432,forced_choiceRT,2021.1.2,Win32,19.96366613,,,,,,,,10,Slow,h,1,2.163,7,3,31,2,1,,,,,
,0.12,,,,,,,,,h.PNG,h,5a9262251eda410001360b2c,2021-10-19_14h45.45.432,forced_choiceRT,2021.1.2,Win32,19.96366613,,,,,,,,10,Fast,h,1,1.81,8,0,32,2,1,,,,,
,0.43,,,,,,,,,j.PNG,j,5a9262251eda410001360b2c,2021-10-19_14h45.45.432,forced_choiceRT,2021.1.2,Win32,19.96366613,,,,,,,,10,Ontime,j,1,1.953,8,1,33,3,1,,,,,
,1.36,,,,,,,,,h.PNG,h,5a9262251eda410001360b2c,2021-10-19_14h45.45.432,forced_choiceRT,2021.1.2,Win32,19.96366613,,,,,,,,10,Ontime,h,1,2.047,8,2,34,2,1,,,,,
,1.12,,,,,,,,,f.PNG,f,5a9262251eda410001360b2c,2021-10-19_14h45.45.432,forced_choiceRT,2021.1.2,Win32,19.96366613,,,,,,,,10,Ontime,f,1,1.948,8,3,35,0,1,,,,,
,0.47,,,,,,,,,h.PNG,h,5a9262251eda410001360b2c,2021-10-19_14h45.45.432,forced_choiceRT,2021.1.2,Win32,19.96366613,,,,,,,,10,Ontime,h,1,2.054,9,0,36,2,1,,,,,
,1.52,,,,,,,,,g.PNG,g,5a9262251eda410001360b2c,2021-10-19_14h45.45.432,forced_choiceRT,2021.1.2,Win32,19.96366613,,,,,,,,10,Fast,j,0,1.802,9,1,37,1,1,,,,,
,0.26,,,,,,,,,j.PNG,j,5a9262251eda410001360b2c,2021-10-19_14h45.45.432,forced_choiceRT,2021.1.2,Win32,19.96366613,,,,,,,,10,Ontime,j,1,1.984,9,2,38,3,1,,,,,
,0.31,,,,,,,,,g.PNG,g,5a9262251eda410001360b2c,2021-10-19_14h45.45.432,forced_choiceRT,2021.1.2,Win32,19.96366613,,,,,,,,10,Ontime,g,1,1.944,9,3,39,1,1,,,,,
,,,,,,,,,,,,5a9262251eda410001360b2c,2021-10-19_14h45.45.432,forced_choiceRT,2021.1.2,Win32,19.96366613,,,,,,,,,,,,,,,,,,9,0,9,0,1
