IP_Addresss,target_onset,trial_resp_sp.keys,trial_resp_sp.corr,trial_resp_sp.rt,trials_train_loop.thisRepN,trials_train_loop.thisTrialN,trials_train_loop.thisN,trials_train_loop.thisIndex,trials_train_loop.ran,pic,correct_key,participant,date,expName,psychopyVersion,OS,frameRate,trial_resp_timing.keys,trial_resp_timing.rt,trials_train_timing.thisRepN,trials_train_timing.thisTrialN,trials_train_timing.thisN,trials_train_timing.thisIndex,trials_train_timing.ran,block_id,ontime,forcedRT_resp.keys,forcedRT_resp.corr,forcedRT_resp.rt,trials.thisRepN,trials.thisTrialN,trials.thisN,trials.thisIndex,trials.ran,blocks.thisRepN,blocks.thisTrialN,blocks.thisN,blocks.thisIndex,blocks.ran
68.189.33.227,0,j,1,1.618,0,0,0,3,1,j.PNG,j,5b05e0d131cebe000177c38e,2021-10-19_13h00.26.647,forced_choiceRT,2021.1.2,Win32,60.0240096,,,,,,,,,,,,,,,,,,,,,,
,0,h,1,2.275,0,1,1,2,1,h.PNG,h,5b05e0d131cebe000177c38e,2021-10-19_13h00.26.647,forced_choiceRT,2021.1.2,Win32,60.0240096,,,,,,,,,,,,,,,,,,,,,,
,0,j,1,1.304,0,2,2,3,1,j.PNG,j,5b05e0d131cebe000177c38e,2021-10-19_13h00.26.647,forced_choiceRT,2021.1.2,Win32,60.0240096,,,,,,,,,,,,,,,,,,,,,,
,0,f,1,1.121,0,3,3,0,1,f.PNG,f,5b05e0d131cebe000177c38e,2021-10-19_13h00.26.647,forced_choiceRT,2021.1.2,Win32,60.0240096,,,,,,,,,,,,,,,,,,,,,,
,0,g,1,1.123,1,0,4,1,1,g.PNG,g,5b05e0d131cebe000177c38e,2021-10-19_13h00.26.647,forced_choiceRT,2021.1.2,Win32,60.0240096,,,,,,,,,,,,,,,,,,,,,,
,0,f,1,1.385,1,1,5,0,1,f.PNG,f,5b05e0d131cebe000177c38e,2021-10-19_13h00.26.647,forced_choiceRT,2021.1.2,Win32,60.0240096,,,,,,,,,,,,,,,,,,,,,,
,0,h,1,1.422,1,2,6,2,1,h.PNG,h,5b05e0d131cebe000177c38e,2021-10-19_13h00.26.647,forced_choiceRT,2021.1.2,Win32,60.0240096,,,,,,,,,,,,,,,,,,,,,,
,0,g,1,1.057,1,3,7,1,1,g.PNG,g,5b05e0d131cebe000177c38e,2021-10-19_13h00.26.647,forced_choiceRT,2021.1.2,Win32,60.0240096,,,,,,,,,,,,,,,,,,,,,,
,0,g,1,0.774,2,0,8,1,1,g.PNG,g,5b05e0d131cebe000177c38e,2021-10-19_13h00.26.647,forced_choiceRT,2021.1.2,Win32,60.0240096,,,,,,,,,,,,,,,,,,,,,,
,0,g,1,0.583,2,1,9,1,1,g.PNG,g,5b05e0d131cebe000177c38e,2021-10-19_13h00.26.647,forced_choiceRT,2021.1.2,Win32,60.0240096,,,,,,,,,,,,,,,,,,,,,,
,0,f,1,1.152,2,2,10,0,1,f.PNG,f,5b05e0d131cebe000177c38e,2021-10-19_13h00.26.647,forced_choiceRT,2021.1.2,Win32,60.0240096,,,,,,,,,,,,,,,,,,,,,,
,0,f,1,0.905,2,3,11,0,1,f.PNG,f,5b05e0d131cebe000177c38e,2021-10-19_13h00.26.647,forced_choiceRT,2021.1.2,Win32,60.0240096,,,,,,,,,,,,,,,,,,,,,,
,0,j,1,1.918,3,0,12,3,1,j.PNG,j,5b05e0d131cebe000177c38e,2021-10-19_13h00.26.647,forced_choiceRT,2021.1.2,Win32,60.0240096,,,,,,,,,,,,,,,,,,,,,,
,0,h,1,1.155,3,1,13,2,1,h.PNG,h,5b05e0d131cebe000177c38e,2021-10-19_13h00.26.647,forced_choiceRT,2021.1.2,Win32,60.0240096,,,,,,,,,,,,,,,,,,,,,,
,0,f,1,1.624,3,2,14,0,1,f.PNG,f,5b05e0d131cebe000177c38e,2021-10-19_13h00.26.647,forced_choiceRT,2021.1.2,Win32,60.0240096,,,,,,,,,,,,,,,,,,,,,,
,0,j,1,1.52,3,3,15,3,1,j.PNG,j,5b05e0d131cebe000177c38e,2021-10-19_13h00.26.647,forced_choiceRT,2021.1.2,Win32,60.0240096,,,,,,,,,,,,,,,,,,,,,,
,0,f,1,1.089,4,0,16,0,1,f.PNG,f,5b05e0d131cebe000177c38e,2021-10-19_13h00.26.647,forced_choiceRT,2021.1.2,Win32,60.0240096,,,,,,,,,,,,,,,,,,,,,,
,0,f,1,0.653,4,1,17,0,1,f.PNG,f,5b05e0d131cebe000177c38e,2021-10-19_13h00.26.647,forced_choiceRT,2021.1.2,Win32,60.0240096,,,,,,,,,,,,,,,,,,,,,,
,0,f,1,0.639,4,2,18,0,1,f.PNG,f,5b05e0d131cebe000177c38e,2021-10-19_13h00.26.647,forced_choiceRT,2021.1.2,Win32,60.0240096,,,,,,,,,,,,,,,,,,,,,,
,0,g,1,1.767,4,3,19,1,1,g.PNG,g,5b05e0d131cebe000177c38e,2021-10-19_13h00.26.647,forced_choiceRT,2021.1.2,Win32,60.0240096,,,,,,,,,,,,,,,,,,,,,,
,0,h,1,1.134,5,0,20,2,1,h.PNG,h,5b05e0d131cebe000177c38e,2021-10-19_13h00.26.647,forced_choiceRT,2021.1.2,Win32,60.0240096,,,,,,,,,,,,,,,,,,,,,,
,0,j,1,0.984,5,1,21,3,1,j.PNG,j,5b05e0d131cebe000177c38e,2021-10-19_13h00.26.647,forced_choiceRT,2021.1.2,Win32,60.0240096,,,,,,,,,,,,,,,,,,,,,,
,0,f,1,1.422,5,2,22,0,1,f.PNG,f,5b05e0d131cebe000177c38e,2021-10-19_13h00.26.647,forced_choiceRT,2021.1.2,Win32,60.0240096,,,,,,,,,,,,,,,,,,,,,,
,0,h,1,2.259,5,3,23,2,1,h.PNG,h,5b05e0d131cebe000177c38e,2021-10-19_13h00.26.647,forced_choiceRT,2021.1.2,Win32,60.0240096,,,,,,,,,,,,,,,,,,,,,,
,0,h,1,1.62,6,0,24,2,1,h.PNG,h,5b05e0d131cebe000177c38e,2021-10-19_13h00.26.647,forced_choiceRT,2021.1.2,Win32,60.0240096,,,,,,,,,,,,,,,,,,,,,,
,0,j,1,1.074,6,1,25,3,1,j.PNG,j,5b05e0d131cebe000177c38e,2021-10-19_13h00.26.647,forced_choiceRT,2021.1.2,Win32,60.0240096,,,,,,,,,,,,,,,,,,,,,,
,0,h,1,0.903,6,2,26,2,1,h.PNG,h,5b05e0d131cebe000177c38e,2021-10-19_13h00.26.647,forced_choiceRT,2021.1.2,Win32,60.0240096,,,,,,,,,,,,,,,,,,,,,,
,0,g,1,1.068,6,3,27,1,1,g.PNG,g,5b05e0d131cebe000177c38e,2021-10-19_13h00.26.647,forced_choiceRT,2021.1.2,Win32,60.0240096,,,,,,,,,,,,,,,,,,,,,,
,0,h,1,1.357,7,0,28,2,1,h.PNG,h,5b05e0d131cebe000177c38e,2021-10-19_13h00.26.647,forced_choiceRT,2021.1.2,Win32,60.0240096,,,,,,,,,,,,,,,,,,,,,,
,0,g,1,1.217,7,1,29,1,1,g.PNG,g,5b05e0d131cebe000177c38e,2021-10-19_13h00.26.647,forced_choiceRT,2021.1.2,Win32,60.0240096,,,,,,,,,,,,,,,,,,,,,,
,0,j,1,1.072,7,2,30,3,1,j.PNG,j,5b05e0d131cebe000177c38e,2021-10-19_13h00.26.647,forced_choiceRT,2021.1.2,Win32,60.0240096,,,,,,,,,,,,,,,,,,,,,,
,0,f,1,0.856,7,3,31,0,1,f.PNG,f,5b05e0d131cebe000177c38e,2021-10-19_13h00.26.647,forced_choiceRT,2021.1.2,Win32,60.0240096,,,,,,,,,,,,,,,,,,,,,,
,0,f,1,0.705,8,0,32,0,1,f.PNG,f,5b05e0d131cebe000177c38e,2021-10-19_13h00.26.647,forced_choiceRT,2021.1.2,Win32,60.0240096,,,,,,,,,,,,,,,,,,,,,,
,0,f,1,0.588,8,1,33,0,1,f.PNG,f,5b05e0d131cebe000177c38e,2021-10-19_13h00.26.647,forced_choiceRT,2021.1.2,Win32,60.0240096,,,,,,,,,,,,,,,,,,,,,,
,0,j,1,1.065,8,2,34,3,1,j.PNG,j,5b05e0d131cebe000177c38e,2021-10-19_13h00.26.647,forced_choiceRT,2021.1.2,Win32,60.0240096,,,,,,,,,,,,,,,,,,,,,,
,0,h,1,0.901,8,3,35,2,1,h.PNG,h,5b05e0d131cebe000177c38e,2021-10-19_13h00.26.647,forced_choiceRT,2021.1.2,Win32,60.0240096,,,,,,,,,,,,,,,,,,,,,,
,0,j,1,0.818,9,0,36,3,1,j.PNG,j,5b05e0d131cebe000177c38e,2021-10-19_13h00.26.647,forced_choiceRT,2021.1.2,Win32,60.0240096,,,,,,,,,,,,,,,,,,,,,,
,0,j,1,0.784,9,1,37,3,1,j.PNG,j,5b05e0d131cebe000177c38e,2021-10-19_13h00.26.647,forced_choiceRT,2021.1.2,Win32,60.0240096,,,,,,,,,,,,,,,,,,,,,,
,0,h,1,1.152,9,2,38,2,1,h.PNG,h,5b05e0d131cebe000177c38e,2021-10-19_13h00.26.647,forced_choiceRT,2021.1.2,Win32,60.0240096,,,,,,,,,,,,,,,,,,,,,,
,0,f,1,1.025,9,3,39,0,1,f.PNG,f,5b05e0d131cebe000177c38e,2021-10-19_13h00.26.647,forced_choiceRT,2021.1.2,Win32,60.0240096,,,,,,,,,,,,,,,,,,,,,,
,0,h,1,1.968,10,0,40,2,1,h.PNG,h,5b05e0d131cebe000177c38e,2021-10-19_13h00.26.647,forced_choiceRT,2021.1.2,Win32,60.0240096,,,,,,,,,,,,,,,,,,,,,,
,0,g,1,1.004,10,1,41,1,1,g.PNG,g,5b05e0d131cebe000177c38e,2021-10-19_13h00.26.647,forced_choiceRT,2021.1.2,Win32,60.0240096,,,,,,,,,,,,,,,,,,,,,,
,0,j,1,1.304,10,2,42,3,1,j.PNG,j,5b05e0d131cebe000177c38e,2021-10-19_13h00.26.647,forced_choiceRT,2021.1.2,Win32,60.0240096,,,,,,,,,,,,,,,,,,,,,,
,0,g,1,1.102,10,3,43,1,1,g.PNG,g,5b05e0d131cebe000177c38e,2021-10-19_13h00.26.647,forced_choiceRT,2021.1.2,Win32,60.0240096,,,,,,,,,,,,,,,,,,,,,,
,0,g,1,0.916,11,0,44,1,1,g.PNG,g,5b05e0d131cebe000177c38e,2021-10-19_13h00.26.647,forced_choiceRT,2021.1.2,Win32,60.0240096,,,,,,,,,,,,,,,,,,,,,,
,0,g,1,0.601,11,1,45,1,1,g.PNG,g,5b05e0d131cebe000177c38e,2021-10-19_13h00.26.647,forced_choiceRT,2021.1.2,Win32,60.0240096,,,,,,,,,,,,,,,,,,,,,,
,0,g,1,0.534,11,2,46,1,1,g.PNG,g,5b05e0d131cebe000177c38e,2021-10-19_13h00.26.647,forced_choiceRT,2021.1.2,Win32,60.0240096,,,,,,,,,,,,,,,,,,,,,,
,0,j,1,1.438,11,3,47,3,1,j.PNG,j,5b05e0d131cebe000177c38e,2021-10-19_13h00.26.647,forced_choiceRT,2021.1.2,Win32,60.0240096,,,,,,,,,,,,,,,,,,,,,,
,0,h,1,0.941,12,0,48,2,1,h.PNG,h,5b05e0d131cebe000177c38e,2021-10-19_13h00.26.647,forced_choiceRT,2021.1.2,Win32,60.0240096,,,,,,,,,,,,,,,,,,,,,,
,0,f,1,1.323,12,1,49,0,1,f.PNG,f,5b05e0d131cebe000177c38e,2021-10-19_13h00.26.647,forced_choiceRT,2021.1.2,Win32,60.0240096,,,,,,,,,,,,,,,,,,,,,,
,0,j,1,1.253,12,2,50,3,1,j.PNG,j,5b05e0d131cebe000177c38e,2021-10-19_13h00.26.647,forced_choiceRT,2021.1.2,Win32,60.0240096,,,,,,,,,,,,,,,,,,,,,,
,0,j,1,1.157,12,3,51,3,1,j.PNG,j,5b05e0d131cebe000177c38e,2021-10-19_13h00.26.647,forced_choiceRT,2021.1.2,Win32,60.0240096,,,,,,,,,,,,,,,,,,,,,,
,0,g,1,2.441,13,0,52,1,1,g.PNG,g,5b05e0d131cebe000177c38e,2021-10-19_13h00.26.647,forced_choiceRT,2021.1.2,Win32,60.0240096,,,,,,,,,,,,,,,,,,,,,,
,0,f,1,0.842,13,1,53,0,1,f.PNG,f,5b05e0d131cebe000177c38e,2021-10-19_13h00.26.647,forced_choiceRT,2021.1.2,Win32,60.0240096,,,,,,,,,,,,,,,,,,,,,,
,0,h,1,0.892,13,2,54,2,1,h.PNG,h,5b05e0d131cebe000177c38e,2021-10-19_13h00.26.647,forced_choiceRT,2021.1.2,Win32,60.0240096,,,,,,,,,,,,,,,,,,,,,,
,0,g,1,0.9,13,3,55,1,1,g.PNG,g,5b05e0d131cebe000177c38e,2021-10-19_13h00.26.647,forced_choiceRT,2021.1.2,Win32,60.0240096,,,,,,,,,,,,,,,,,,,,,,
,0,h,1,1.35,14,0,56,2,1,h.PNG,h,5b05e0d131cebe000177c38e,2021-10-19_13h00.26.647,forced_choiceRT,2021.1.2,Win32,60.0240096,,,,,,,,,,,,,,,,,,,,,,
,0,g,1,0.994,14,1,57,1,1,g.PNG,g,5b05e0d131cebe000177c38e,2021-10-19_13h00.26.647,forced_choiceRT,2021.1.2,Win32,60.0240096,,,,,,,,,,,,,,,,,,,,,,
,0,j,1,0.918,14,2,58,3,1,j.PNG,j,5b05e0d131cebe000177c38e,2021-10-19_13h00.26.647,forced_choiceRT,2021.1.2,Win32,60.0240096,,,,,,,,,,,,,,,,,,,,,,
,0,h,1,1.004,14,3,59,2,1,h.PNG,h,5b05e0d131cebe000177c38e,2021-10-19_13h00.26.647,forced_choiceRT,2021.1.2,Win32,60.0240096,,,,,,,,,,,,,,,,,,,,,,
,,,,,,,,,,,,5b05e0d131cebe000177c38e,2021-10-19_13h00.26.647,forced_choiceRT,2021.1.2,Win32,60.0240096,h,2.194,0,0,0,0,1,,,,,,,,,,,,,,,
,,,,,,,,,,,,5b05e0d131cebe000177c38e,2021-10-19_13h00.26.647,forced_choiceRT,2021.1.2,Win32,60.0240096,h,1.841,1,0,1,0,1,,,,,,,,,,,,,,,
,,,,,,,,,,,,5b05e0d131cebe000177c38e,2021-10-19_13h00.26.647,forced_choiceRT,2021.1.2,Win32,60.0240096,h,2.027,2,0,2,0,1,,,,,,,,,,,,,,,
,,,,,,,,,,,,5b05e0d131cebe000177c38e,2021-10-19_13h00.26.647,forced_choiceRT,2021.1.2,Win32,60.0240096,j,1.884,3,0,3,0,1,,,,,,,,,,,,,,,
,,,,,,,,,,,,5b05e0d131cebe000177c38e,2021-10-19_13h00.26.647,forced_choiceRT,2021.1.2,Win32,60.0240096,j,2.084,4,0,4,0,1,,,,,,,,,,,,,,,
,,,,,,,,,,,,5b05e0d131cebe000177c38e,2021-10-19_13h00.26.647,forced_choiceRT,2021.1.2,Win32,60.0240096,f,2.117,5,0,5,0,1,,,,,,,,,,,,,,,
,,,,,,,,,,,,5b05e0d131cebe000177c38e,2021-10-19_13h00.26.647,forced_choiceRT,2021.1.2,Win32,60.0240096,f,2.074,6,0,6,0,1,,,,,,,,,,,,,,,
,,,,,,,,,,,,5b05e0d131cebe000177c38e,2021-10-19_13h00.26.647,forced_choiceRT,2021.1.2,Win32,60.0240096,f,2.118,7,0,7,0,1,,,,,,,,,,,,,,,
,,,,,,,,,,,,5b05e0d131cebe000177c38e,2021-10-19_13h00.26.647,forced_choiceRT,2021.1.2,Win32,60.0240096,h,2.134,8,0,8,0,1,,,,,,,,,,,,,,,
,,,,,,,,,,,,5b05e0d131cebe000177c38e,2021-10-19_13h00.26.647,forced_choiceRT,2021.1.2,Win32,60.0240096,h,2.091,9,0,9,0,1,,,,,,,,,,,,,,,
,,,,,,,,,,,,5b05e0d131cebe000177c38e,2021-10-19_13h00.26.647,forced_choiceRT,2021.1.2,Win32,60.0240096,h,2.086,10,0,10,0,1,,,,,,,,,,,,,,,
,,,,,,,,,,,,5b05e0d131cebe000177c38e,2021-10-19_13h00.26.647,forced_choiceRT,2021.1.2,Win32,60.0240096,j,2.116,11,0,11,0,1,,,,,,,,,,,,,,,
,,,,,,,,,,,,5b05e0d131cebe000177c38e,2021-10-19_13h00.26.647,forced_choiceRT,2021.1.2,Win32,60.0240096,g,2.121,12,0,12,0,1,,,,,,,,,,,,,,,
,,,,,,,,,,,,5b05e0d131cebe000177c38e,2021-10-19_13h00.26.647,forced_choiceRT,2021.1.2,Win32,60.0240096,j,2.021,13,0,13,0,1,,,,,,,,,,,,,,,
,,,,,,,,,,,,5b05e0d131cebe000177c38e,2021-10-19_13h00.26.647,forced_choiceRT,2021.1.2,Win32,60.0240096,j,2.118,14,0,14,0,1,,,,,,,,,,,,,,,
,,,,,,,,,,,,5b05e0d131cebe000177c38e,2021-10-19_13h00.26.647,forced_choiceRT,2021.1.2,Win32,60.0240096,j,2.106,15,0,15,0,1,,,,,,,,,,,,,,,
,,,,,,,,,,,,5b05e0d131cebe000177c38e,2021-10-19_13h00.26.647,forced_choiceRT,2021.1.2,Win32,60.0240096,g,2.018,16,0,16,0,1,,,,,,,,,,,,,,,
,,,,,,,,,,,,5b05e0d131cebe000177c38e,2021-10-19_13h00.26.647,forced_choiceRT,2021.1.2,Win32,60.0240096,g,2.041,17,0,17,0,1,,,,,,,,,,,,,,,
,,,,,,,,,,,,5b05e0d131cebe000177c38e,2021-10-19_13h00.26.647,forced_choiceRT,2021.1.2,Win32,60.0240096,g,1.952,18,0,18,0,1,,,,,,,,,,,,,,,
,,,,,,,,,,,,5b05e0d131cebe000177c38e,2021-10-19_13h00.26.647,forced_choiceRT,2021.1.2,Win32,60.0240096,g,1.902,19,0,19,0,1,,,,,,,,,,,,,,,
,0.9,,,,,,,,,f.PNG,f,5b05e0d131cebe000177c38e,2021-10-19_13h00.26.647,forced_choiceRT,2021.1.2,Win32,60.0240096,,,,,,,,1,Slow,f,1,2.193,0,0,0,0,1,,,,,
,1.19,,,,,,,,,g.PNG,g,5b05e0d131cebe000177c38e,2021-10-19_13h00.26.647,forced_choiceRT,2021.1.2,Win32,60.0240096,,,,,,,,1,Slow,h,0,2.21,0,1,1,1,1,,,,,
,0.8,,,,,,,,,g.PNG,g,5b05e0d131cebe000177c38e,2021-10-19_13h00.26.647,forced_choiceRT,2021.1.2,Win32,60.0240096,,,,,,,,1,Slow,h,0,2.255,0,2,2,1,1,,,,,
,1.59,,,,,,,,,g.PNG,g,5b05e0d131cebe000177c38e,2021-10-19_13h00.26.647,forced_choiceRT,2021.1.2,Win32,60.0240096,,,,,,,,1,Ontime,f,0,1.99,0,3,3,1,1,,,,,
,1.24,,,,,,,,,h.PNG,h,5b05e0d131cebe000177c38e,2021-10-19_13h00.26.647,forced_choiceRT,2021.1.2,Win32,60.0240096,,,,,,,,1,Slow,j,0,2.119,1,0,4,2,1,,,,,
,1.72,,,,,,,,,g.PNG,g,5b05e0d131cebe000177c38e,2021-10-19_13h00.26.647,forced_choiceRT,2021.1.2,Win32,60.0240096,,,,,,,,1,Slow,h,0,2.182,1,1,5,1,1,,,,,
,1.87,,,,,,,,,j.PNG,j,5b05e0d131cebe000177c38e,2021-10-19_13h00.26.647,forced_choiceRT,2021.1.2,Win32,60.0240096,,,,,,,,1,Ontime,f,0,2.068,1,2,6,3,1,,,,,
,1.83,,,,,,,,,h.PNG,h,5b05e0d131cebe000177c38e,2021-10-19_13h00.26.647,forced_choiceRT,2021.1.2,Win32,60.0240096,,,,,,,,1,Slow,h,1,2.342,1,3,7,2,1,,,,,
,1.11,,,,,,,,,j.PNG,j,5b05e0d131cebe000177c38e,2021-10-19_13h00.26.647,forced_choiceRT,2021.1.2,Win32,60.0240096,,,,,,,,1,Ontime,j,1,1.956,2,0,8,3,1,,,,,
,0.92,,,,,,,,,g.PNG,g,5b05e0d131cebe000177c38e,2021-10-19_13h00.26.647,forced_choiceRT,2021.1.2,Win32,60.0240096,,,,,,,,1,Ontime,g,1,1.904,2,1,9,1,1,,,,,
,1.61,,,,,,,,,j.PNG,j,5b05e0d131cebe000177c38e,2021-10-19_13h00.26.647,forced_choiceRT,2021.1.2,Win32,60.0240096,,,,,,,,1,Slow,f,0,2.136,2,2,10,3,1,,,,,
,1.23,,,,,,,,,h.PNG,h,5b05e0d131cebe000177c38e,2021-10-19_13h00.26.647,forced_choiceRT,2021.1.2,Win32,60.0240096,,,,,,,,1,Ontime,h,1,2.085,2,3,11,2,1,,,,,
,0.11,,,,,,,,,h.PNG,h,5b05e0d131cebe000177c38e,2021-10-19_13h00.26.647,forced_choiceRT,2021.1.2,Win32,60.0240096,,,,,,,,1,Ontime,h,1,1.918,3,0,12,2,1,,,,,
,0.77,,,,,,,,,g.PNG,g,5b05e0d131cebe000177c38e,2021-10-19_13h00.26.647,forced_choiceRT,2021.1.2,Win32,60.0240096,,,,,,,,1,Slow,g,1,2.119,3,1,13,1,1,,,,,
,0.94,,,,,,,,,h.PNG,h,5b05e0d131cebe000177c38e,2021-10-19_13h00.26.647,forced_choiceRT,2021.1.2,Win32,60.0240096,,,,,,,,1,Slow,h,1,2.286,3,2,14,2,1,,,,,
,0.62,,,,,,,,,j.PNG,j,5b05e0d131cebe000177c38e,2021-10-19_13h00.26.647,forced_choiceRT,2021.1.2,Win32,60.0240096,,,,,,,,1,Ontime,j,1,2.022,3,3,15,3,1,,,,,
,1.59,,,,,,,,,g.PNG,g,5b05e0d131cebe000177c38e,2021-10-19_13h00.26.647,forced_choiceRT,2021.1.2,Win32,60.0240096,,,,,,,,1,Slow,h,0,2.152,4,0,16,1,1,,,,,
,0.1,,,,,,,,,f.PNG,f,5b05e0d131cebe000177c38e,2021-10-19_13h00.26.647,forced_choiceRT,2021.1.2,Win32,60.0240096,,,,,,,,1,Ontime,f,1,1.989,4,1,17,0,1,,,,,
,1.07,,,,,,,,,h.PNG,h,5b05e0d131cebe000177c38e,2021-10-19_13h00.26.647,forced_choiceRT,2021.1.2,Win32,60.0240096,,,,,,,,1,Ontime,h,1,1.967,4,2,18,2,1,,,,,
,1.95,,,,,,,,,j.PNG,j,5b05e0d131cebe000177c38e,2021-10-19_13h00.26.647,forced_choiceRT,2021.1.2,Win32,60.0240096,,,,,,,,1,Slow,j,1,2.259,4,3,19,3,1,,,,,
,1.52,,,,,,,,,j.PNG,j,5b05e0d131cebe000177c38e,2021-10-19_13h00.26.647,forced_choiceRT,2021.1.2,Win32,60.0240096,,,,,,,,1,Ontime,j,1,2.089,5,0,20,3,1,,,,,
,0.48,,,,,,,,,h.PNG,h,5b05e0d131cebe000177c38e,2021-10-19_13h00.26.647,forced_choiceRT,2021.1.2,Win32,60.0240096,,,,,,,,1,Fast,h,1,1.752,5,1,21,2,1,,,,,
,1.65,,,,,,,,,f.PNG,f,5b05e0d131cebe000177c38e,2021-10-19_13h00.26.647,forced_choiceRT,2021.1.2,Win32,60.0240096,,,,,,,,1,Slow,g,0,2.254,5,2,22,0,1,,,,,
,1.15,,,,,,,,,f.PNG,f,5b05e0d131cebe000177c38e,2021-10-19_13h00.26.647,forced_choiceRT,2021.1.2,Win32,60.0240096,,,,,,,,1,Ontime,f,1,2.033,5,3,23,0,1,,,,,
,1.92,,,,,,,,,f.PNG,f,5b05e0d131cebe000177c38e,2021-10-19_13h00.26.647,forced_choiceRT,2021.1.2,Win32,60.0240096,,,,,,,,1,Slow,f,1,6.704,6,0,24,0,1,,,,,
,1.06,,,,,,,,,j.PNG,j,5b05e0d131cebe000177c38e,2021-10-19_13h00.26.647,forced_choiceRT,2021.1.2,Win32,60.0240096,,,,,,,,1,Ontime,j,1,2.067,6,1,25,3,1,,,,,
,0.67,,,,,,,,,j.PNG,j,5b05e0d131cebe000177c38e,2021-10-19_13h00.26.647,forced_choiceRT,2021.1.2,Win32,60.0240096,,,,,,,,1,Ontime,j,1,2.006,6,2,26,3,1,,,,,
,1.89,,,,,,,,,h.PNG,h,5b05e0d131cebe000177c38e,2021-10-19_13h00.26.647,forced_choiceRT,2021.1.2,Win32,60.0240096,,,,,,,,1,Slow,h,1,2.768,6,3,27,2,1,,,,,
,1.59,,,,,,,,,j.PNG,j,5b05e0d131cebe000177c38e,2021-10-19_13h00.26.647,forced_choiceRT,2021.1.2,Win32,60.0240096,,,,,,,,1,Slow,j,1,2.219,7,0,28,3,1,,,,,
,0.1,,,,,,,,,f.PNG,f,5b05e0d131cebe000177c38e,2021-10-19_13h00.26.647,forced_choiceRT,2021.1.2,Win32,60.0240096,,,,,,,,1,Ontime,f,1,2.051,7,1,29,0,1,,,,,
,0.97,,,,,,,,,g.PNG,g,5b05e0d131cebe000177c38e,2021-10-19_13h00.26.647,forced_choiceRT,2021.1.2,Win32,60.0240096,,,,,,,,1,Fast,g,1,1.819,7,2,30,1,1,,,,,
,1.18,,,,,,,,,f.PNG,f,5b05e0d131cebe000177c38e,2021-10-19_13h00.26.647,forced_choiceRT,2021.1.2,Win32,60.0240096,,,,,,,,1,Ontime,f,1,2.052,7,3,31,0,1,,,,,
,1.5,,,,,,,,,g.PNG,g,5b05e0d131cebe000177c38e,2021-10-19_13h00.26.647,forced_choiceRT,2021.1.2,Win32,60.0240096,,,,,,,,1,Slow,h,0,2.206,8,0,32,1,1,,,,,
,0.52,,,,,,,,,h.PNG,h,5b05e0d131cebe000177c38e,2021-10-19_13h00.26.647,forced_choiceRT,2021.1.2,Win32,60.0240096,,,,,,,,1,Ontime,h,1,1.973,8,1,33,2,1,,,,,
,1.75,,,,,,,,,f.PNG,f,5b05e0d131cebe000177c38e,2021-10-19_13h00.26.647,forced_choiceRT,2021.1.2,Win32,60.0240096,,,,,,,,1,Slow,f,1,2.284,8,2,34,0,1,,,,,
,0.17,,,,,,,,,j.PNG,j,5b05e0d131cebe000177c38e,2021-10-19_13h00.26.647,forced_choiceRT,2021.1.2,Win32,60.0240096,,,,,,,,1,Fast,j,1,1.758,8,3,35,3,1,,,,,
,0.4,,,,,,,,,f.PNG,f,5b05e0d131cebe000177c38e,2021-10-19_13h00.26.647,forced_choiceRT,2021.1.2,Win32,60.0240096,,,,,,,,1,Ontime,f,1,2.035,9,0,36,0,1,,,,,
,1.23,,,,,,,,,g.PNG,g,5b05e0d131cebe000177c38e,2021-10-19_13h00.26.647,forced_choiceRT,2021.1.2,Win32,60.0240096,,,,,,,,1,Ontime,h,0,1.971,9,1,37,1,1,,,,,
,0.82,,,,,,,,,f.PNG,f,5b05e0d131cebe000177c38e,2021-10-19_13h00.26.647,forced_choiceRT,2021.1.2,Win32,60.0240096,,,,,,,,1,Ontime,f,1,2.055,9,2,38,0,1,,,,,
,1.16,,,,,,,,,h.PNG,h,5b05e0d131cebe000177c38e,2021-10-19_13h00.26.647,forced_choiceRT,2021.1.2,Win32,60.0240096,,,,,,,,1,Ontime,g,0,2.067,9,3,39,2,1,,,,,
,,,,,,,,,,,,5b05e0d131cebe000177c38e,2021-10-19_13h00.26.647,forced_choiceRT,2021.1.2,Win32,60.0240096,,,,,,,,,,,,,,,,,,0,0,0,0,1
,1.75,,,,,,,,,g.PNG,g,5b05e0d131cebe000177c38e,2021-10-19_13h00.26.647,forced_choiceRT,2021.1.2,Win32,60.0240096,,,,,,,,2,Slow,h,0,2.339,0,0,0,1,1,,,,,
,0.46,,,,,,,,,g.PNG,g,5b05e0d131cebe000177c38e,2021-10-19_13h00.26.647,forced_choiceRT,2021.1.2,Win32,60.0240096,,,,,,,,2,Slow,g,1,2.12,0,1,1,1,1,,,,,
,0.51,,,,,,,,,j.PNG,j,5b05e0d131cebe000177c38e,2021-10-19_13h00.26.647,forced_choiceRT,2021.1.2,Win32,60.0240096,,,,,,,,2,Ontime,j,1,2.087,0,2,2,3,1,,,,,
,0.79,,,,,,,,,f.PNG,f,5b05e0d131cebe000177c38e,2021-10-19_13h00.26.647,forced_choiceRT,2021.1.2,Win32,60.0240096,,,,,,,,2,Slow,f,1,2.152,0,3,3,0,1,,,,,
,0.01,,,,,,,,,h.PNG,h,5b05e0d131cebe000177c38e,2021-10-19_13h00.26.647,forced_choiceRT,2021.1.2,Win32,60.0240096,,,,,,,,2,Fast,h,1,1.9,1,0,4,2,1,,,,,
,1.45,,,,,,,,,j.PNG,j,5b05e0d131cebe000177c38e,2021-10-19_13h00.26.647,forced_choiceRT,2021.1.2,Win32,60.0240096,,,,,,,,2,Slow,j,1,2.153,1,1,5,3,1,,,,,
,1.89,,,,,,,,,j.PNG,j,5b05e0d131cebe000177c38e,2021-10-19_13h00.26.647,forced_choiceRT,2021.1.2,Win32,60.0240096,,,,,,,,2,Slow,f,0,2.34,1,2,6,3,1,,,,,
,0.7,,,,,,,,,g.PNG,g,5b05e0d131cebe000177c38e,2021-10-19_13h00.26.647,forced_choiceRT,2021.1.2,Win32,60.0240096,,,,,,,,2,Fast,g,1,1.744,1,3,7,1,1,,,,,
,0.36,,,,,,,,,h.PNG,h,5b05e0d131cebe000177c38e,2021-10-19_13h00.26.647,forced_choiceRT,2021.1.2,Win32,60.0240096,,,,,,,,2,Fast,g,0,1.724,2,0,8,2,1,,,,,
,0.65,,,,,,,,,g.PNG,g,5b05e0d131cebe000177c38e,2021-10-19_13h00.26.647,forced_choiceRT,2021.1.2,Win32,60.0240096,,,,,,,,2,Ontime,g,1,1.938,2,1,9,1,1,,,,,
,1.26,,,,,,,,,f.PNG,f,5b05e0d131cebe000177c38e,2021-10-19_13h00.26.647,forced_choiceRT,2021.1.2,Win32,60.0240096,,,,,,,,2,Ontime,f,1,2.005,2,2,10,0,1,,,,,
,0.12,,,,,,,,,g.PNG,g,5b05e0d131cebe000177c38e,2021-10-19_13h00.26.647,forced_choiceRT,2021.1.2,Win32,60.0240096,,,,,,,,2,Ontime,g,1,2.039,2,3,11,1,1,,,,,
,1.32,,,,,,,,,f.PNG,f,5b05e0d131cebe000177c38e,2021-10-19_13h00.26.647,forced_choiceRT,2021.1.2,Win32,60.0240096,,,,,,,,2,Slow,f,1,2.117,3,0,12,0,1,,,,,
,1.93,,,,,,,,,j.PNG,j,5b05e0d131cebe000177c38e,2021-10-19_13h00.26.647,forced_choiceRT,2021.1.2,Win32,60.0240096,,,,,,,,2,Slow,j,1,2.887,3,1,13,3,1,,,,,
,0.4,,,,,,,,,h.PNG,h,5b05e0d131cebe000177c38e,2021-10-19_13h00.26.647,forced_choiceRT,2021.1.2,Win32,60.0240096,,,,,,,,2,Ontime,g,0,1.951,3,2,14,2,1,,,,,
,0.54,,,,,,,,,g.PNG,g,5b05e0d131cebe000177c38e,2021-10-19_13h00.26.647,forced_choiceRT,2021.1.2,Win32,60.0240096,,,,,,,,2,Fast,g,1,1.891,3,3,15,1,1,,,,,
,1.18,,,,,,,,,f.PNG,f,5b05e0d131cebe000177c38e,2021-10-19_13h00.26.647,forced_choiceRT,2021.1.2,Win32,60.0240096,,,,,,,,2,Slow,f,1,2.149,4,0,16,0,1,,,,,
,0.4,,,,,,,,,f.PNG,f,5b05e0d131cebe000177c38e,2021-10-19_13h00.26.647,forced_choiceRT,2021.1.2,Win32,60.0240096,,,,,,,,2,Fast,f,1,1.826,4,1,17,0,1,,,,,
,0.05,,,,,,,,,j.PNG,j,5b05e0d131cebe000177c38e,2021-10-19_13h00.26.647,forced_choiceRT,2021.1.2,Win32,60.0240096,,,,,,,,2,Ontime,j,1,1.99,4,2,18,3,1,,,,,
,0.38,,,,,,,,,j.PNG,j,5b05e0d131cebe000177c38e,2021-10-19_13h00.26.647,forced_choiceRT,2021.1.2,Win32,60.0240096,,,,,,,,2,Ontime,j,1,1.99,4,3,19,3,1,,,,,
,0.96,,,,,,,,,f.PNG,f,5b05e0d131cebe000177c38e,2021-10-19_13h00.26.647,forced_choiceRT,2021.1.2,Win32,60.0240096,,,,,,,,2,Slow,f,1,2.152,5,0,20,0,1,,,,,
,1.72,,,,,,,,,j.PNG,j,5b05e0d131cebe000177c38e,2021-10-19_13h00.26.647,forced_choiceRT,2021.1.2,Win32,60.0240096,,,,,,,,2,Slow,j,1,2.336,5,1,21,3,1,,,,,
,0.21,,,,,,,,,g.PNG,g,5b05e0d131cebe000177c38e,2021-10-19_13h00.26.647,forced_choiceRT,2021.1.2,Win32,60.0240096,,,,,,,,2,Fast,g,1,1.852,5,2,22,1,1,,,,,
,0.67,,,,,,,,,j.PNG,j,5b05e0d131cebe000177c38e,2021-10-19_13h00.26.647,forced_choiceRT,2021.1.2,Win32,60.0240096,,,,,,,,2,Ontime,j,1,2.039,5,3,23,3,1,,,,,
,1.9,,,,,,,,,f.PNG,f,5b05e0d131cebe000177c38e,2021-10-19_13h00.26.647,forced_choiceRT,2021.1.2,Win32,60.0240096,,,,,,,,2,Slow,f,1,2.27,6,0,24,0,1,,,,,
,0.67,,,,,,,,,g.PNG,g,5b05e0d131cebe000177c38e,2021-10-19_13h00.26.647,forced_choiceRT,2021.1.2,Win32,60.0240096,,,,,,,,2,Ontime,g,1,1.985,6,1,25,1,1,,,,,
,0.35,,,,,,,,,h.PNG,h,5b05e0d131cebe000177c38e,2021-10-19_13h00.26.647,forced_choiceRT,2021.1.2,Win32,60.0240096,,,,,,,,2,Ontime,h,1,1.97,6,2,26,2,1,,,,,
,0.27,,,,,,,,,g.PNG,g,5b05e0d131cebe000177c38e,2021-10-19_13h00.26.647,forced_choiceRT,2021.1.2,Win32,60.0240096,,,,,,,,2,Ontime,g,1,2.001,6,3,27,1,1,,,,,
,1.64,,,,,,,,,h.PNG,h,5b05e0d131cebe000177c38e,2021-10-19_13h00.26.647,forced_choiceRT,2021.1.2,Win32,60.0240096,,,,,,,,2,Slow,g,0,2.154,7,0,28,2,1,,,,,
,0.14,,,,,,,,,f.PNG,f,5b05e0d131cebe000177c38e,2021-10-19_13h00.26.647,forced_choiceRT,2021.1.2,Win32,60.0240096,,,,,,,,2,Ontime,f,1,1.992,7,1,29,0,1,,,,,
,0.28,,,,,,,,,h.PNG,h,5b05e0d131cebe000177c38e,2021-10-19_13h00.26.647,forced_choiceRT,2021.1.2,Win32,60.0240096,,,,,,,,2,Ontime,h,1,1.918,7,2,30,2,1,,,,,
,0.92,,,,,,,,,j.PNG,j,5b05e0d131cebe000177c38e,2021-10-19_13h00.26.647,forced_choiceRT,2021.1.2,Win32,60.0240096,,,,,,,,2,Ontime,j,1,2.001,7,3,31,3,1,,,,,
,0.65,,,,,,,,,f.PNG,f,5b05e0d131cebe000177c38e,2021-10-19_13h00.26.647,forced_choiceRT,2021.1.2,Win32,60.0240096,,,,,,,,2,Ontime,f,1,2.017,8,0,32,0,1,,,,,
,0.2,,,,,,,,,h.PNG,h,5b05e0d131cebe000177c38e,2021-10-19_13h00.26.647,forced_choiceRT,2021.1.2,Win32,60.0240096,,,,,,,,2,Fast,h,1,1.835,8,1,33,2,1,,,,,
,0.16,,,,,,,,,g.PNG,g,5b05e0d131cebe000177c38e,2021-10-19_13h00.26.647,forced_choiceRT,2021.1.2,Win32,60.0240096,,,,,,,,2,Ontime,g,1,2.004,8,2,34,1,1,,,,,
,1.61,,,,,,,,,f.PNG,f,5b05e0d131cebe000177c38e,2021-10-19_13h00.26.647,forced_choiceRT,2021.1.2,Win32,60.0240096,,,,,,,,2,Ontime,f,1,2.035,8,3,35,0,1,,,,,
,0.69,,,,,,,,,h.PNG,h,5b05e0d131cebe000177c38e,2021-10-19_13h00.26.647,forced_choiceRT,2021.1.2,Win32,60.0240096,,,,,,,,2,Ontime,h,1,1.934,9,0,36,2,1,,,,,
,0.16,,,,,,,,,h.PNG,h,5b05e0d131cebe000177c38e,2021-10-19_13h00.26.647,forced_choiceRT,2021.1.2,Win32,60.0240096,,,,,,,,2,Ontime,h,1,2.034,9,1,37,2,1,,,,,
,1.96,,,,,,,,,j.PNG,j,5b05e0d131cebe000177c38e,2021-10-19_13h00.26.647,forced_choiceRT,2021.1.2,Win32,60.0240096,,,,,,,,2,Ontime,j,1,2.084,9,2,38,3,1,,,,,
,1.78,,,,,,,,,h.PNG,h,5b05e0d131cebe000177c38e,2021-10-19_13h00.26.647,forced_choiceRT,2021.1.2,Win32,60.0240096,,,,,,,,2,Slow,h,1,2.266,9,3,39,2,1,,,,,
,,,,,,,,,,,,5b05e0d131cebe000177c38e,2021-10-19_13h00.26.647,forced_choiceRT,2021.1.2,Win32,60.0240096,,,,,,,,,,,,,,,,,,1,0,1,0,1
,0.8,,,,,,,,,f.PNG,f,5b05e0d131cebe000177c38e,2021-10-19_13h00.26.647,forced_choiceRT,2021.1.2,Win32,60.0240096,,,,,,,,3,Ontime,f,1,1.985,0,0,0,0,1,,,,,
,1.3,,,,,,,,,f.PNG,f,5b05e0d131cebe000177c38e,2021-10-19_13h00.26.647,forced_choiceRT,2021.1.2,Win32,60.0240096,,,,,,,,3,Slow,f,1,2.118,0,1,1,0,1,,,,,
,1.73,,,,,,,,,j.PNG,j,5b05e0d131cebe000177c38e,2021-10-19_13h00.26.647,forced_choiceRT,2021.1.2,Win32,60.0240096,,,,,,,,3,Slow,j,1,2.172,0,2,2,3,1,,,,,
,1.69,,,,,,,,,f.PNG,f,5b05e0d131cebe000177c38e,2021-10-19_13h00.26.647,forced_choiceRT,2021.1.2,Win32,60.0240096,,,,,,,,3,Slow,j,0,2.2,0,3,3,0,1,,,,,
,0.48,,,,,,,,,j.PNG,j,5b05e0d131cebe000177c38e,2021-10-19_13h00.26.647,forced_choiceRT,2021.1.2,Win32,60.0240096,,,,,,,,3,Ontime,j,1,2.005,1,0,4,3,1,,,,,
,1.36,,,,,,,,,j.PNG,j,5b05e0d131cebe000177c38e,2021-10-19_13h00.26.647,forced_choiceRT,2021.1.2,Win32,60.0240096,,,,,,,,3,Ontime,j,1,2.004,1,1,5,3,1,,,,,
,1.43,,,,,,,,,h.PNG,h,5b05e0d131cebe000177c38e,2021-10-19_13h00.26.647,forced_choiceRT,2021.1.2,Win32,60.0240096,,,,,,,,3,Slow,g,0,2.154,1,2,6,2,1,,,,,
,0.07,,,,,,,,,h.PNG,h,5b05e0d131cebe000177c38e,2021-10-19_13h00.26.647,forced_choiceRT,2021.1.2,Win32,60.0240096,,,,,,,,3,Ontime,h,1,2.02,1,3,7,2,1,,,,,
,1.13,,,,,,,,,g.PNG,g,5b05e0d131cebe000177c38e,2021-10-19_13h00.26.647,forced_choiceRT,2021.1.2,Win32,60.0240096,,,,,,,,3,Ontime,g,1,1.967,2,0,8,1,1,,,,,
,0.32,,,,,,,,,g.PNG,g,5b05e0d131cebe000177c38e,2021-10-19_13h00.26.647,forced_choiceRT,2021.1.2,Win32,60.0240096,,,,,,,,3,Ontime,g,1,1.992,2,1,9,1,1,,,,,
,0.98,,,,,,,,,j.PNG,j,5b05e0d131cebe000177c38e,2021-10-19_13h00.26.647,forced_choiceRT,2021.1.2,Win32,60.0240096,,,,,,,,3,Fast,j,1,1.855,2,2,10,3,1,,,,,
,1.6,,,,,,,,,h.PNG,h,5b05e0d131cebe000177c38e,2021-10-19_13h00.26.647,forced_choiceRT,2021.1.2,Win32,60.0240096,,,,,,,,3,Slow,j,0,2.186,2,3,11,2,1,,,,,
,1.51,,,,,,,,,j.PNG,j,5b05e0d131cebe000177c38e,2021-10-19_13h00.26.647,forced_choiceRT,2021.1.2,Win32,60.0240096,,,,,,,,3,Ontime,j,1,2.084,3,0,12,3,1,,,,,
,1.16,,,,,,,,,g.PNG,g,5b05e0d131cebe000177c38e,2021-10-19_13h00.26.647,forced_choiceRT,2021.1.2,Win32,60.0240096,,,,,,,,3,Slow,g,1,2.131,3,1,13,1,1,,,,,
,1.08,,,,,,,,,f.PNG,f,5b05e0d131cebe000177c38e,2021-10-19_13h00.26.647,forced_choiceRT,2021.1.2,Win32,60.0240096,,,,,,,,3,Ontime,f,1,2.084,3,2,14,0,1,,,,,
,1.51,,,,,,,,,g.PNG,g,5b05e0d131cebe000177c38e,2021-10-19_13h00.26.647,forced_choiceRT,2021.1.2,Win32,60.0240096,,,,,,,,3,Slow,h,0,2.153,3,3,15,1,1,,,,,
,1.11,,,,,,,,,j.PNG,j,5b05e0d131cebe000177c38e,2021-10-19_13h00.26.647,forced_choiceRT,2021.1.2,Win32,60.0240096,,,,,,,,3,Ontime,j,1,2.075,4,0,16,3,1,,,,,
,1.7,,,,,,,,,j.PNG,j,5b05e0d131cebe000177c38e,2021-10-19_13h00.26.647,forced_choiceRT,2021.1.2,Win32,60.0240096,,,,,,,,3,Slow,j,1,2.207,4,1,17,3,1,,,,,
,1.27,,,,,,,,,g.PNG,g,5b05e0d131cebe000177c38e,2021-10-19_13h00.26.647,forced_choiceRT,2021.1.2,Win32,60.0240096,,,,,,,,3,Ontime,g,1,2.032,4,2,18,1,1,,,,,
,0.01,,,,,,,,,j.PNG,j,5b05e0d131cebe000177c38e,2021-10-19_13h00.26.647,forced_choiceRT,2021.1.2,Win32,60.0240096,,,,,,,,3,Ontime,j,1,2.035,4,3,19,3,1,,,,,
,0.21,,,,,,,,,h.PNG,h,5b05e0d131cebe000177c38e,2021-10-19_13h00.26.647,forced_choiceRT,2021.1.2,Win32,60.0240096,,,,,,,,3,Fast,h,1,1.867,5,0,20,2,1,,,,,
,0.34,,,,,,,,,g.PNG,g,5b05e0d131cebe000177c38e,2021-10-19_13h00.26.647,forced_choiceRT,2021.1.2,Win32,60.0240096,,,,,,,,3,Ontime,g,1,1.992,5,1,21,1,1,,,,,
,0.25,,,,,,,,,g.PNG,g,5b05e0d131cebe000177c38e,2021-10-19_13h00.26.647,forced_choiceRT,2021.1.2,Win32,60.0240096,,,,,,,,3,Ontime,g,1,2.093,5,2,22,1,1,,,,,
,1.18,,,,,,,,,h.PNG,h,5b05e0d131cebe000177c38e,2021-10-19_13h00.26.647,forced_choiceRT,2021.1.2,Win32,60.0240096,,,,,,,,3,Ontime,h,1,2.024,5,3,23,2,1,,,,,
,1.15,,,,,,,,,f.PNG,f,5b05e0d131cebe000177c38e,2021-10-19_13h00.26.647,forced_choiceRT,2021.1.2,Win32,60.0240096,,,,,,,,3,Fast,f,1,1.891,6,0,24,0,1,,,,,
,0.43,,,,,,,,,g.PNG,g,5b05e0d131cebe000177c38e,2021-10-19_13h00.26.647,forced_choiceRT,2021.1.2,Win32,60.0240096,,,,,,,,3,Ontime,g,1,2.042,6,1,25,1,1,,,,,
,0.14,,,,,,,,,h.PNG,h,5b05e0d131cebe000177c38e,2021-10-19_13h00.26.647,forced_choiceRT,2021.1.2,Win32,60.0240096,,,,,,,,3,Ontime,g,0,1.925,6,2,26,2,1,,,,,
,1.14,,,,,,,,,h.PNG,h,5b05e0d131cebe000177c38e,2021-10-19_13h00.26.647,forced_choiceRT,2021.1.2,Win32,60.0240096,,,,,,,,3,Ontime,h,1,1.968,6,3,27,2,1,,,,,
,1.86,,,,,,,,,j.PNG,j,5b05e0d131cebe000177c38e,2021-10-19_13h00.26.647,forced_choiceRT,2021.1.2,Win32,60.0240096,,,,,,,,3,Ontime,j,1,1.989,7,0,28,3,1,,,,,
,0.13,,,,,,,,,h.PNG,h,5b05e0d131cebe000177c38e,2021-10-19_13h00.26.647,forced_choiceRT,2021.1.2,Win32,60.0240096,,,,,,,,3,Fast,h,1,1.893,7,1,29,2,1,,,,,
,1.6,,,,,,,,,h.PNG,h,5b05e0d131cebe000177c38e,2021-10-19_13h00.26.647,forced_choiceRT,2021.1.2,Win32,60.0240096,,,,,,,,3,Slow,h,1,2.191,7,2,30,2,1,,,,,
,0.24,,,,,,,,,h.PNG,h,5b05e0d131cebe000177c38e,2021-10-19_13h00.26.647,forced_choiceRT,2021.1.2,Win32,60.0240096,,,,,,,,3,Ontime,h,1,2.033,7,3,31,2,1,,,,,
,0.67,,,,,,,,,f.PNG,f,5b05e0d131cebe000177c38e,2021-10-19_13h00.26.647,forced_choiceRT,2021.1.2,Win32,60.0240096,,,,,,,,3,Slow,f,1,2.17,8,0,32,0,1,,,,,
,1.33,,,,,,,,,f.PNG,f,5b05e0d131cebe000177c38e,2021-10-19_13h00.26.647,forced_choiceRT,2021.1.2,Win32,60.0240096,,,,,,,,3,Ontime,f,1,2.018,8,1,33,0,1,,,,,
,1.56,,,,,,,,,f.PNG,f,5b05e0d131cebe000177c38e,2021-10-19_13h00.26.647,forced_choiceRT,2021.1.2,Win32,60.0240096,,,,,,,,3,Slow,f,1,2.1,8,2,34,0,1,,,,,
,1.04,,,,,,,,,f.PNG,f,5b05e0d131cebe000177c38e,2021-10-19_13h00.26.647,forced_choiceRT,2021.1.2,Win32,60.0240096,,,,,,,,3,Ontime,f,1,1.969,8,3,35,0,1,,,,,
,0.55,,,,,,,,,j.PNG,j,5b05e0d131cebe000177c38e,2021-10-19_13h00.26.647,forced_choiceRT,2021.1.2,Win32,60.0240096,,,,,,,,3,Ontime,j,1,2.017,9,0,36,3,1,,,,,
,0.94,,,,,,,,,g.PNG,g,5b05e0d131cebe000177c38e,2021-10-19_13h00.26.647,forced_choiceRT,2021.1.2,Win32,60.0240096,,,,,,,,3,Ontime,h,0,2.075,9,1,37,1,1,,,,,
,0.52,,,,,,,,,g.PNG,g,5b05e0d131cebe000177c38e,2021-10-19_13h00.26.647,forced_choiceRT,2021.1.2,Win32,60.0240096,,,,,,,,3,Ontime,g,1,2.004,9,2,38,1,1,,,,,
,1.68,,,,,,,,,f.PNG,f,5b05e0d131cebe000177c38e,2021-10-19_13h00.26.647,forced_choiceRT,2021.1.2,Win32,60.0240096,,,,,,,,3,Ontime,j,0,1.989,9,3,39,0,1,,,,,
,,,,,,,,,,,,5b05e0d131cebe000177c38e,2021-10-19_13h00.26.647,forced_choiceRT,2021.1.2,Win32,60.0240096,,,,,,,,,,,,,,,,,,2,0,2,0,1
,1.46,,,,,,,,,f.PNG,f,5b05e0d131cebe000177c38e,2021-10-19_13h00.26.647,forced_choiceRT,2021.1.2,Win32,60.0240096,,,,,,,,4,Slow,f,1,2.134,0,0,0,0,1,,,,,
,1.19,,,,,,,,,f.PNG,f,5b05e0d131cebe000177c38e,2021-10-19_13h00.26.647,forced_choiceRT,2021.1.2,Win32,60.0240096,,,,,,,,4,Ontime,f,1,2.002,0,1,1,0,1,,,,,
,1.58,,,,,,,,,g.PNG,g,5b05e0d131cebe000177c38e,2021-10-19_13h00.26.647,forced_choiceRT,2021.1.2,Win32,60.0240096,,,,,,,,4,Slow,h,0,2.133,0,2,2,1,1,,,,,
,0.22,,,,,,,,,g.PNG,g,5b05e0d131cebe000177c38e,2021-10-19_13h00.26.647,forced_choiceRT,2021.1.2,Win32,60.0240096,,,,,,,,4,Ontime,g,1,2.017,0,3,3,1,1,,,,,
,1.44,,,,,,,,,g.PNG,g,5b05e0d131cebe000177c38e,2021-10-19_13h00.26.647,forced_choiceRT,2021.1.2,Win32,60.0240096,,,,,,,,4,Slow,g,1,2.117,1,0,4,1,1,,,,,
,0.95,,,,,,,,,h.PNG,h,5b05e0d131cebe000177c38e,2021-10-19_13h00.26.647,forced_choiceRT,2021.1.2,Win32,60.0240096,,,,,,,,4,Ontime,h,1,2.018,1,1,5,2,1,,,,,
,1.62,,,,,,,,,f.PNG,f,5b05e0d131cebe000177c38e,2021-10-19_13h00.26.647,forced_choiceRT,2021.1.2,Win32,60.0240096,,,,,,,,4,Ontime,j,0,2.071,1,2,6,0,1,,,,,
,0.68,,,,,,,,,g.PNG,g,5b05e0d131cebe000177c38e,2021-10-19_13h00.26.647,forced_choiceRT,2021.1.2,Win32,60.0240096,,,,,,,,4,Ontime,g,1,2.038,1,3,7,1,1,,,,,
,0.68,,,,,,,,,g.PNG,g,5b05e0d131cebe000177c38e,2021-10-19_13h00.26.647,forced_choiceRT,2021.1.2,Win32,60.0240096,,,,,,,,4,Ontime,g,1,1.973,2,0,8,1,1,,,,,
,1.53,,,,,,,,,h.PNG,h,5b05e0d131cebe000177c38e,2021-10-19_13h00.26.647,forced_choiceRT,2021.1.2,Win32,60.0240096,,,,,,,,4,Slow,h,1,2.166,2,1,9,2,1,,,,,
,0.58,,,,,,,,,f.PNG,f,5b05e0d131cebe000177c38e,2021-10-19_13h00.26.647,forced_choiceRT,2021.1.2,Win32,60.0240096,,,,,,,,4,Ontime,f,1,2.086,2,2,10,0,1,,,,,
,0.09,,,,,,,,,g.PNG,g,5b05e0d131cebe000177c38e,2021-10-19_13h00.26.647,forced_choiceRT,2021.1.2,Win32,60.0240096,,,,,,,,4,Fast,g,1,1.874,2,3,11,1,1,,,,,
,0.61,,,,,,,,,f.PNG,f,5b05e0d131cebe000177c38e,2021-10-19_13h00.26.647,forced_choiceRT,2021.1.2,Win32,60.0240096,,,,,,,,4,Ontime,f,1,2.034,3,0,12,0,1,,,,,
,0.22,,,,,,,,,g.PNG,g,5b05e0d131cebe000177c38e,2021-10-19_13h00.26.647,forced_choiceRT,2021.1.2,Win32,60.0240096,,,,,,,,4,Ontime,g,1,2.024,3,1,13,1,1,,,,,
,0.14,,,,,,,,,h.PNG,h,5b05e0d131cebe000177c38e,2021-10-19_13h00.26.647,forced_choiceRT,2021.1.2,Win32,60.0240096,,,,,,,,4,Ontime,h,1,2.05,3,2,14,2,1,,,,,
,1.53,,,,,,,,,h.PNG,h,5b05e0d131cebe000177c38e,2021-10-19_13h00.26.647,forced_choiceRT,2021.1.2,Win32,60.0240096,,,,,,,,4,Ontime,h,1,2.084,3,3,15,2,1,,,,,
,0.15,,,,,,,,,f.PNG,f,5b05e0d131cebe000177c38e,2021-10-19_13h00.26.647,forced_choiceRT,2021.1.2,Win32,60.0240096,,,,,,,,4,Ontime,f,1,2.056,4,0,16,0,1,,,,,
,1.14,,,,,,,,,h.PNG,h,5b05e0d131cebe000177c38e,2021-10-19_13h00.26.647,forced_choiceRT,2021.1.2,Win32,60.0240096,,,,,,,,4,Slow,h,1,2.157,4,1,17,2,1,,,,,
,1.39,,,,,,,,,j.PNG,j,5b05e0d131cebe000177c38e,2021-10-19_13h00.26.647,forced_choiceRT,2021.1.2,Win32,60.0240096,,,,,,,,4,Ontime,h,0,1.952,4,2,18,3,1,,,,,
,1.07,,,,,,,,,h.PNG,h,5b05e0d131cebe000177c38e,2021-10-19_13h00.26.647,forced_choiceRT,2021.1.2,Win32,60.0240096,,,,,,,,4,Ontime,h,1,1.967,4,3,19,2,1,,,,,
,1.23,,,,,,,,,f.PNG,f,5b05e0d131cebe000177c38e,2021-10-19_13h00.26.647,forced_choiceRT,2021.1.2,Win32,60.0240096,,,,,,,,4,Fast,f,1,1.883,5,0,20,0,1,,,,,
,0.79,,,,,,,,,h.PNG,h,5b05e0d131cebe000177c38e,2021-10-19_13h00.26.647,forced_choiceRT,2021.1.2,Win32,60.0240096,,,,,,,,4,Slow,h,1,2.102,5,1,21,2,1,,,,,
,1.71,,,,,,,,,f.PNG,f,5b05e0d131cebe000177c38e,2021-10-19_13h00.26.647,forced_choiceRT,2021.1.2,Win32,60.0240096,,,,,,,,4,Slow,f,1,2.151,5,2,22,0,1,,,,,
,0.27,,,,,,,,,j.PNG,j,5b05e0d131cebe000177c38e,2021-10-19_13h00.26.647,forced_choiceRT,2021.1.2,Win32,60.0240096,,,,,,,,4,Ontime,j,1,2.017,5,3,23,3,1,,,,,
,1.37,,,,,,,,,j.PNG,j,5b05e0d131cebe000177c38e,2021-10-19_13h00.26.647,forced_choiceRT,2021.1.2,Win32,60.0240096,,,,,,,,4,Ontime,j,1,2.07,6,0,24,3,1,,,,,
,1.68,,,,,,,,,h.PNG,h,5b05e0d131cebe000177c38e,2021-10-19_13h00.26.647,forced_choiceRT,2021.1.2,Win32,60.0240096,,,,,,,,4,Slow,f,0,2.14,6,1,25,2,1,,,,,
,0.76,,,,,,,,,g.PNG,g,5b05e0d131cebe000177c38e,2021-10-19_13h00.26.647,forced_choiceRT,2021.1.2,Win32,60.0240096,,,,,,,,4,Ontime,g,1,1.988,6,2,26,1,1,,,,,
,1.68,,,,,,,,,j.PNG,j,5b05e0d131cebe000177c38e,2021-10-19_13h00.26.647,forced_choiceRT,2021.1.2,Win32,60.0240096,,,,,,,,4,Slow,g,0,2.218,6,3,27,3,1,,,,,
,1.65,,,,,,,,,j.PNG,j,5b05e0d131cebe000177c38e,2021-10-19_13h00.26.647,forced_choiceRT,2021.1.2,Win32,60.0240096,,,,,,,,4,Slow,j,1,2.139,7,0,28,3,1,,,,,
,1.37,,,,,,,,,j.PNG,j,5b05e0d131cebe000177c38e,2021-10-19_13h00.26.647,forced_choiceRT,2021.1.2,Win32,60.0240096,,,,,,,,4,Slow,j,1,2.17,7,1,29,3,1,,,,,
,0.34,,,,,,,,,f.PNG,f,5b05e0d131cebe000177c38e,2021-10-19_13h00.26.647,forced_choiceRT,2021.1.2,Win32,60.0240096,,,,,,,,4,Ontime,f,1,1.987,7,2,30,0,1,,,,,
,1.48,,,,,,,,,f.PNG,f,5b05e0d131cebe000177c38e,2021-10-19_13h00.26.647,forced_choiceRT,2021.1.2,Win32,60.0240096,,,,,,,,4,Ontime,f,1,2.091,7,3,31,0,1,,,,,
,0.76,,,,,,,,,h.PNG,h,5b05e0d131cebe000177c38e,2021-10-19_13h00.26.647,forced_choiceRT,2021.1.2,Win32,60.0240096,,,,,,,,4,Slow,h,1,2.101,8,0,32,2,1,,,,,
,0.01,,,,,,,,,j.PNG,j,5b05e0d131cebe000177c38e,2021-10-19_13h00.26.647,forced_choiceRT,2021.1.2,Win32,60.0240096,,,,,,,,4,Ontime,j,1,2.003,8,1,33,3,1,,,,,
,1.01,,,,,,,,,j.PNG,j,5b05e0d131cebe000177c38e,2021-10-19_13h00.26.647,forced_choiceRT,2021.1.2,Win32,60.0240096,,,,,,,,4,Fast,j,1,1.853,8,2,34,3,1,,,,,
,1.08,,,,,,,,,j.PNG,j,5b05e0d131cebe000177c38e,2021-10-19_13h00.26.647,forced_choiceRT,2021.1.2,Win32,60.0240096,,,,,,,,4,Slow,j,1,2.116,8,3,35,3,1,,,,,
,1.76,,,,,,,,,h.PNG,h,5b05e0d131cebe000177c38e,2021-10-19_13h00.26.647,forced_choiceRT,2021.1.2,Win32,60.0240096,,,,,,,,4,Slow,j,0,2.167,9,0,36,2,1,,,,,
,1.67,,,,,,,,,g.PNG,g,5b05e0d131cebe000177c38e,2021-10-19_13h00.26.647,forced_choiceRT,2021.1.2,Win32,60.0240096,,,,,,,,4,Slow,g,1,2.14,9,1,37,1,1,,,,,
,0.29,,,,,,,,,j.PNG,j,5b05e0d131cebe000177c38e,2021-10-19_13h00.26.647,forced_choiceRT,2021.1.2,Win32,60.0240096,,,,,,,,4,Ontime,j,1,2.034,9,2,38,3,1,,,,,
,1.91,,,,,,,,,g.PNG,g,5b05e0d131cebe000177c38e,2021-10-19_13h00.26.647,forced_choiceRT,2021.1.2,Win32,60.0240096,,,,,,,,4,Slow,j,0,2.233,9,3,39,1,1,,,,,
,,,,,,,,,,,,5b05e0d131cebe000177c38e,2021-10-19_13h00.26.647,forced_choiceRT,2021.1.2,Win32,60.0240096,,,,,,,,,,,,,,,,,,3,0,3,0,1
,0.5,,,,,,,,,h.PNG,h,5b05e0d131cebe000177c38e,2021-10-19_13h00.26.647,forced_choiceRT,2021.1.2,Win32,60.0240096,,,,,,,,5,Fast,g,0,1.844,0,0,0,2,1,,,,,
,1.44,,,,,,,,,j.PNG,j,5b05e0d131cebe000177c38e,2021-10-19_13h00.26.647,forced_choiceRT,2021.1.2,Win32,60.0240096,,,,,,,,5,Slow,j,1,2.107,0,1,1,3,1,,,,,
,0.78,,,,,,,,,g.PNG,g,5b05e0d131cebe000177c38e,2021-10-19_13h00.26.647,forced_choiceRT,2021.1.2,Win32,60.0240096,,,,,,,,5,Ontime,h,0,2.051,0,2,2,1,1,,,,,
,1.67,,,,,,,,,j.PNG,j,5b05e0d131cebe000177c38e,2021-10-19_13h00.26.647,forced_choiceRT,2021.1.2,Win32,60.0240096,,,,,,,,5,Ontime,j,1,2.051,0,3,3,3,1,,,,,
,0.92,,,,,,,,,g.PNG,g,5b05e0d131cebe000177c38e,2021-10-19_13h00.26.647,forced_choiceRT,2021.1.2,Win32,60.0240096,,,,,,,,5,Ontime,g,1,2.019,1,0,4,1,1,,,,,
,0.72,,,,,,,,,f.PNG,f,5b05e0d131cebe000177c38e,2021-10-19_13h00.26.647,forced_choiceRT,2021.1.2,Win32,60.0240096,,,,,,,,5,Ontime,f,1,2.051,1,1,5,0,1,,,,,
,1.64,,,,,,,,,g.PNG,g,5b05e0d131cebe000177c38e,2021-10-19_13h00.26.647,forced_choiceRT,2021.1.2,Win32,60.0240096,,,,,,,,5,Ontime,h,0,2.019,1,2,6,1,1,,,,,
,0.51,,,,,,,,,h.PNG,h,5b05e0d131cebe000177c38e,2021-10-19_13h00.26.647,forced_choiceRT,2021.1.2,Win32,60.0240096,,,,,,,,5,Ontime,h,1,1.985,1,3,7,2,1,,,,,
,0.32,,,,,,,,,g.PNG,g,5b05e0d131cebe000177c38e,2021-10-19_13h00.26.647,forced_choiceRT,2021.1.2,Win32,60.0240096,,,,,,,,5,Ontime,g,1,2.068,2,0,8,1,1,,,,,
,0.17,,,,,,,,,g.PNG,g,5b05e0d131cebe000177c38e,2021-10-19_13h00.26.647,forced_choiceRT,2021.1.2,Win32,60.0240096,,,,,,,,5,Ontime,g,1,1.951,2,1,9,1,1,,,,,
,1.71,,,,,,,,,j.PNG,j,5b05e0d131cebe000177c38e,2021-10-19_13h00.26.647,forced_choiceRT,2021.1.2,Win32,60.0240096,,,,,,,,5,Slow,f,0,2.15,2,2,10,3,1,,,,,
,1.54,,,,,,,,,h.PNG,h,5b05e0d131cebe000177c38e,2021-10-19_13h00.26.647,forced_choiceRT,2021.1.2,Win32,60.0240096,,,,,,,,5,Slow,h,1,2.159,2,3,11,2,1,,,,,
,0.92,,,,,,,,,g.PNG,g,5b05e0d131cebe000177c38e,2021-10-19_13h00.26.647,forced_choiceRT,2021.1.2,Win32,60.0240096,,,,,,,,5,Ontime,g,1,2.069,3,0,12,1,1,,,,,
,1.12,,,,,,,,,f.PNG,f,5b05e0d131cebe000177c38e,2021-10-19_13h00.26.647,forced_choiceRT,2021.1.2,Win32,60.0240096,,,,,,,,5,Slow,f,1,2.19,3,1,13,0,1,,,,,
,0.73,,,,,,,,,f.PNG,f,5b05e0d131cebe000177c38e,2021-10-19_13h00.26.647,forced_choiceRT,2021.1.2,Win32,60.0240096,,,,,,,,5,Ontime,f,1,1.986,3,2,14,0,1,,,,,
,1.73,,,,,,,,,g.PNG,g,5b05e0d131cebe000177c38e,2021-10-19_13h00.26.647,forced_choiceRT,2021.1.2,Win32,60.0240096,,,,,,,,5,Ontime,j,0,2.056,3,3,15,1,1,,,,,
,0.01,,,,,,,,,g.PNG,g,5b05e0d131cebe000177c38e,2021-10-19_13h00.26.647,forced_choiceRT,2021.1.2,Win32,60.0240096,,,,,,,,5,Fast,g,1,1.876,4,0,16,1,1,,,,,
,1.3,,,,,,,,,j.PNG,j,5b05e0d131cebe000177c38e,2021-10-19_13h00.26.647,forced_choiceRT,2021.1.2,Win32,60.0240096,,,,,,,,5,Ontime,j,1,2.076,4,1,17,3,1,,,,,
,1.57,,,,,,,,,f.PNG,f,5b05e0d131cebe000177c38e,2021-10-19_13h00.26.647,forced_choiceRT,2021.1.2,Win32,60.0240096,,,,,,,,5,Slow,f,1,2.117,4,2,18,0,1,,,,,
,1.98,,,,,,,,,j.PNG,j,5b05e0d131cebe000177c38e,2021-10-19_13h00.26.647,forced_choiceRT,2021.1.2,Win32,60.0240096,,,,,,,,5,Slow,j,1,2.567,4,3,19,3,1,,,,,
,1.13,,,,,,,,,f.PNG,f,5b05e0d131cebe000177c38e,2021-10-19_13h00.26.647,forced_choiceRT,2021.1.2,Win32,60.0240096,,,,,,,,5,Ontime,f,1,1.967,5,0,20,0,1,,,,,
,1.18,,,,,,,,,h.PNG,h,5b05e0d131cebe000177c38e,2021-10-19_13h00.26.647,forced_choiceRT,2021.1.2,Win32,60.0240096,,,,,,,,5,Ontime,h,1,2,5,1,21,2,1,,,,,
,0.58,,,,,,,,,j.PNG,j,5b05e0d131cebe000177c38e,2021-10-19_13h00.26.647,forced_choiceRT,2021.1.2,Win32,60.0240096,,,,,,,,5,Ontime,j,1,1.937,5,2,22,3,1,,,,,
,1.06,,,,,,,,,h.PNG,h,5b05e0d131cebe000177c38e,2021-10-19_13h00.26.647,forced_choiceRT,2021.1.2,Win32,60.0240096,,,,,,,,5,Ontime,g,0,1.917,5,3,23,2,1,,,,,
,1.76,,,,,,,,,j.PNG,j,5b05e0d131cebe000177c38e,2021-10-19_13h00.26.647,forced_choiceRT,2021.1.2,Win32,60.0240096,,,,,,,,5,Slow,j,1,2.248,6,0,24,3,1,,,,,
,0.02,,,,,,,,,h.PNG,h,5b05e0d131cebe000177c38e,2021-10-19_13h00.26.647,forced_choiceRT,2021.1.2,Win32,60.0240096,,,,,,,,5,Ontime,h,1,1.952,6,1,25,2,1,,,,,
,0.89,,,,,,,,,f.PNG,f,5b05e0d131cebe000177c38e,2021-10-19_13h00.26.647,forced_choiceRT,2021.1.2,Win32,60.0240096,,,,,,,,5,Ontime,f,1,1.972,6,2,26,0,1,,,,,
,0.21,,,,,,,,,h.PNG,h,5b05e0d131cebe000177c38e,2021-10-19_13h00.26.647,forced_choiceRT,2021.1.2,Win32,60.0240096,,,,,,,,5,Fast,h,1,1.884,6,3,27,2,1,,,,,
,0.26,,,,,,,,,f.PNG,f,5b05e0d131cebe000177c38e,2021-10-19_13h00.26.647,forced_choiceRT,2021.1.2,Win32,60.0240096,,,,,,,,5,Ontime,f,1,2,7,0,28,0,1,,,,,
,0.86,,,,,,,,,j.PNG,j,5b05e0d131cebe000177c38e,2021-10-19_13h00.26.647,forced_choiceRT,2021.1.2,Win32,60.0240096,,,,,,,,5,Ontime,j,1,1.984,7,1,29,3,1,,,,,
,0.05,,,,,,,,,g.PNG,g,5b05e0d131cebe000177c38e,2021-10-19_13h00.26.647,forced_choiceRT,2021.1.2,Win32,60.0240096,,,,,,,,5,Ontime,g,1,1.984,7,2,30,1,1,,,,,
,0.4,,,,,,,,,f.PNG,f,5b05e0d131cebe000177c38e,2021-10-19_13h00.26.647,forced_choiceRT,2021.1.2,Win32,60.0240096,,,,,,,,5,Ontime,f,1,1.985,7,3,31,0,1,,,,,
,1.59,,,,,,,,,j.PNG,j,5b05e0d131cebe000177c38e,2021-10-19_13h00.26.647,forced_choiceRT,2021.1.2,Win32,60.0240096,,,,,,,,5,Slow,j,1,2.105,8,0,32,3,1,,,,,
,0.28,,,,,,,,,f.PNG,f,5b05e0d131cebe000177c38e,2021-10-19_13h00.26.647,forced_choiceRT,2021.1.2,Win32,60.0240096,,,,,,,,5,Ontime,f,1,2.001,8,1,33,0,1,,,,,
,1.35,,,,,,,,,g.PNG,g,5b05e0d131cebe000177c38e,2021-10-19_13h00.26.647,forced_choiceRT,2021.1.2,Win32,60.0240096,,,,,,,,5,Ontime,g,1,2.035,8,2,34,1,1,,,,,
,0.13,,,,,,,,,f.PNG,f,5b05e0d131cebe000177c38e,2021-10-19_13h00.26.647,forced_choiceRT,2021.1.2,Win32,60.0240096,,,,,,,,5,Fast,f,1,1.855,8,3,35,0,1,,,,,
,0.18,,,,,,,,,h.PNG,h,5b05e0d131cebe000177c38e,2021-10-19_13h00.26.647,forced_choiceRT,2021.1.2,Win32,60.0240096,,,,,,,,5,Ontime,h,1,2.034,9,0,36,2,1,,,,,
,1.47,,,,,,,,,h.PNG,h,5b05e0d131cebe000177c38e,2021-10-19_13h00.26.647,forced_choiceRT,2021.1.2,Win32,60.0240096,,,,,,,,5,Slow,h,1,2.185,9,1,37,2,1,,,,,
,1.29,,,,,,,,,j.PNG,j,5b05e0d131cebe000177c38e,2021-10-19_13h00.26.647,forced_choiceRT,2021.1.2,Win32,60.0240096,,,,,,,,5,Ontime,j,1,2.038,9,2,38,3,1,,,,,
,0.88,,,,,,,,,h.PNG,h,5b05e0d131cebe000177c38e,2021-10-19_13h00.26.647,forced_choiceRT,2021.1.2,Win32,60.0240096,,,,,,,,5,Ontime,h,1,2.068,9,3,39,2,1,,,,,
,,,,,,,,,,,,5b05e0d131cebe000177c38e,2021-10-19_13h00.26.647,forced_choiceRT,2021.1.2,Win32,60.0240096,,,,,,,,,,,,,,,,,,4,0,4,0,1
,0.73,,,,,,,,,j.PNG,j,5b05e0d131cebe000177c38e,2021-10-19_13h00.26.647,forced_choiceRT,2021.1.2,Win32,60.0240096,,,,,,,,6,Ontime,j,1,1.951,0,0,0,3,1,,,,,
,0.33,,,,,,,,,f.PNG,f,5b05e0d131cebe000177c38e,2021-10-19_13h00.26.647,forced_choiceRT,2021.1.2,Win32,60.0240096,,,,,,,,6,Ontime,f,1,1.918,0,1,1,0,1,,,,,
,0.29,,,,,,,,,j.PNG,j,5b05e0d131cebe000177c38e,2021-10-19_13h00.26.647,forced_choiceRT,2021.1.2,Win32,60.0240096,,,,,,,,6,Ontime,j,1,1.933,0,2,2,3,1,,,,,
,0.84,,,,,,,,,f.PNG,f,5b05e0d131cebe000177c38e,2021-10-19_13h00.26.647,forced_choiceRT,2021.1.2,Win32,60.0240096,,,,,,,,6,Ontime,f,1,2.017,0,3,3,0,1,,,,,
,0.71,,,,,,,,,f.PNG,f,5b05e0d131cebe000177c38e,2021-10-19_13h00.26.647,forced_choiceRT,2021.1.2,Win32,60.0240096,,,,,,,,6,Ontime,f,1,1.953,1,0,4,0,1,,,,,
,0.43,,,,,,,,,f.PNG,f,5b05e0d131cebe000177c38e,2021-10-19_13h00.26.647,forced_choiceRT,2021.1.2,Win32,60.0240096,,,,,,,,6,Ontime,f,1,1.942,1,1,5,0,1,,,,,
,1.99,,,,,,,,,f.PNG,f,5b05e0d131cebe000177c38e,2021-10-19_13h00.26.647,forced_choiceRT,2021.1.2,Win32,60.0240096,,,,,,,,6,Ontime,h,0,2.019,1,2,6,0,1,,,,,
,1.4,,,,,,,,,h.PNG,h,5b05e0d131cebe000177c38e,2021-10-19_13h00.26.647,forced_choiceRT,2021.1.2,Win32,60.0240096,,,,,,,,6,Slow,h,1,2.151,1,3,7,2,1,,,,,
,0.6,,,,,,,,,g.PNG,g,5b05e0d131cebe000177c38e,2021-10-19_13h00.26.647,forced_choiceRT,2021.1.2,Win32,60.0240096,,,,,,,,6,Ontime,g,1,1.95,2,0,8,1,1,,,,,
,1.58,,,,,,,,,f.PNG,f,5b05e0d131cebe000177c38e,2021-10-19_13h00.26.647,forced_choiceRT,2021.1.2,Win32,60.0240096,,,,,,,,6,Slow,f,1,2.101,2,1,9,0,1,,,,,
,0.02,,,,,,,,,h.PNG,h,5b05e0d131cebe000177c38e,2021-10-19_13h00.26.647,forced_choiceRT,2021.1.2,Win32,60.0240096,,,,,,,,6,Ontime,h,1,2.025,2,2,10,2,1,,,,,
,1.95,,,,,,,,,g.PNG,g,5b05e0d131cebe000177c38e,2021-10-19_13h00.26.647,forced_choiceRT,2021.1.2,Win32,60.0240096,,,,,,,,6,Ontime,j,0,2.001,2,3,11,1,1,,,,,
,1.45,,,,,,,,,h.PNG,h,5b05e0d131cebe000177c38e,2021-10-19_13h00.26.647,forced_choiceRT,2021.1.2,Win32,60.0240096,,,,,,,,6,Slow,h,1,3.019,3,0,12,2,1,,,,,
,1.56,,,,,,,,,j.PNG,j,5b05e0d131cebe000177c38e,2021-10-19_13h00.26.647,forced_choiceRT,2021.1.2,Win32,60.0240096,,,,,,,,6,Ontime,j,1,2.086,3,1,13,3,1,,,,,
,1.24,,,,,,,,,g.PNG,g,5b05e0d131cebe000177c38e,2021-10-19_13h00.26.647,forced_choiceRT,2021.1.2,Win32,60.0240096,,,,,,,,6,Ontime,g,1,2.085,3,2,14,1,1,,,,,
,1.06,,,,,,,,,g.PNG,g,5b05e0d131cebe000177c38e,2021-10-19_13h00.26.647,forced_choiceRT,2021.1.2,Win32,60.0240096,,,,,,,,6,Ontime,g,1,2.069,3,3,15,1,1,,,,,
,0.73,,,,,,,,,g.PNG,g,5b05e0d131cebe000177c38e,2021-10-19_13h00.26.647,forced_choiceRT,2021.1.2,Win32,60.0240096,,,,,,,,6,Ontime,g,1,2.035,4,0,16,1,1,,,,,
,1.23,,,,,,,,,g.PNG,g,5b05e0d131cebe000177c38e,2021-10-19_13h00.26.647,forced_choiceRT,2021.1.2,Win32,60.0240096,,,,,,,,6,Ontime,g,1,1.919,4,1,17,1,1,,,,,
,1.06,,,,,,,,,f.PNG,f,5b05e0d131cebe000177c38e,2021-10-19_13h00.26.647,forced_choiceRT,2021.1.2,Win32,60.0240096,,,,,,,,6,Ontime,f,1,1.973,4,2,18,0,1,,,,,
,0.46,,,,,,,,,h.PNG,h,5b05e0d131cebe000177c38e,2021-10-19_13h00.26.647,forced_choiceRT,2021.1.2,Win32,60.0240096,,,,,,,,6,Ontime,h,1,1.953,4,3,19,2,1,,,,,
,0.79,,,,,,,,,j.PNG,j,5b05e0d131cebe000177c38e,2021-10-19_13h00.26.647,forced_choiceRT,2021.1.2,Win32,60.0240096,,,,,,,,6,Ontime,j,1,1.917,5,0,20,3,1,,,,,
,1.68,,,,,,,,,g.PNG,g,5b05e0d131cebe000177c38e,2021-10-19_13h00.26.647,forced_choiceRT,2021.1.2,Win32,60.0240096,,,,,,,,6,Slow,f,0,2.125,5,1,21,1,1,,,,,
,1.17,,,,,,,,,f.PNG,f,5b05e0d131cebe000177c38e,2021-10-19_13h00.26.647,forced_choiceRT,2021.1.2,Win32,60.0240096,,,,,,,,6,Ontime,f,1,2.001,5,2,22,0,1,,,,,
,1.99,,,,,,,,,h.PNG,h,5b05e0d131cebe000177c38e,2021-10-19_13h00.26.647,forced_choiceRT,2021.1.2,Win32,60.0240096,,,,,,,,6,Slow,j,0,2.271,5,3,23,2,1,,,,,
,0.69,,,,,,,,,h.PNG,h,5b05e0d131cebe000177c38e,2021-10-19_13h00.26.647,forced_choiceRT,2021.1.2,Win32,60.0240096,,,,,,,,6,Ontime,h,1,1.973,6,0,24,2,1,,,,,
,0.33,,,,,,,,,h.PNG,h,5b05e0d131cebe000177c38e,2021-10-19_13h00.26.647,forced_choiceRT,2021.1.2,Win32,60.0240096,,,,,,,,6,Ontime,h,1,2.037,6,1,25,2,1,,,,,
,1.83,,,,,,,,,g.PNG,g,5b05e0d131cebe000177c38e,2021-10-19_13h00.26.647,forced_choiceRT,2021.1.2,Win32,60.0240096,,,,,,,,6,Slow,f,0,2.298,6,2,26,1,1,,,,,
,0.71,,,,,,,,,j.PNG,j,5b05e0d131cebe000177c38e,2021-10-19_13h00.26.647,forced_choiceRT,2021.1.2,Win32,60.0240096,,,,,,,,6,Ontime,j,1,1.967,6,3,27,3,1,,,,,
,0.93,,,,,,,,,f.PNG,f,5b05e0d131cebe000177c38e,2021-10-19_13h00.26.647,forced_choiceRT,2021.1.2,Win32,60.0240096,,,,,,,,6,Ontime,f,1,2.019,7,0,28,0,1,,,,,
,1.38,,,,,,,,,g.PNG,g,5b05e0d131cebe000177c38e,2021-10-19_13h00.26.647,forced_choiceRT,2021.1.2,Win32,60.0240096,,,,,,,,6,Ontime,g,1,1.974,7,1,29,1,1,,,,,
,1.02,,,,,,,,,h.PNG,h,5b05e0d131cebe000177c38e,2021-10-19_13h00.26.647,forced_choiceRT,2021.1.2,Win32,60.0240096,,,,,,,,6,Ontime,h,1,1.991,7,2,30,2,1,,,,,
,0.56,,,,,,,,,j.PNG,j,5b05e0d131cebe000177c38e,2021-10-19_13h00.26.647,forced_choiceRT,2021.1.2,Win32,60.0240096,,,,,,,,6,Ontime,j,1,2.02,7,3,31,3,1,,,,,
,0.48,,,,,,,,,j.PNG,j,5b05e0d131cebe000177c38e,2021-10-19_13h00.26.647,forced_choiceRT,2021.1.2,Win32,60.0240096,,,,,,,,6,Ontime,j,1,1.968,8,0,32,3,1,,,,,
,1.75,,,,,,,,,h.PNG,h,5b05e0d131cebe000177c38e,2021-10-19_13h00.26.647,forced_choiceRT,2021.1.2,Win32,60.0240096,,,,,,,,6,Slow,g,0,2.201,8,1,33,2,1,,,,,
,0.87,,,,,,,,,j.PNG,j,5b05e0d131cebe000177c38e,2021-10-19_13h00.26.647,forced_choiceRT,2021.1.2,Win32,60.0240096,,,,,,,,6,Ontime,j,1,2.083,8,2,34,3,1,,,,,
,0.06,,,,,,,,,f.PNG,f,5b05e0d131cebe000177c38e,2021-10-19_13h00.26.647,forced_choiceRT,2021.1.2,Win32,60.0240096,,,,,,,,6,Ontime,f,1,1.971,8,3,35,0,1,,,,,
,0.79,,,,,,,,,j.PNG,j,5b05e0d131cebe000177c38e,2021-10-19_13h00.26.647,forced_choiceRT,2021.1.2,Win32,60.0240096,,,,,,,,6,Ontime,j,1,1.984,9,0,36,3,1,,,,,
,0.09,,,,,,,,,j.PNG,j,5b05e0d131cebe000177c38e,2021-10-19_13h00.26.647,forced_choiceRT,2021.1.2,Win32,60.0240096,,,,,,,,6,Ontime,j,1,1.987,9,1,37,3,1,,,,,
,1.81,,,,,,,,,g.PNG,g,5b05e0d131cebe000177c38e,2021-10-19_13h00.26.647,forced_choiceRT,2021.1.2,Win32,60.0240096,,,,,,,,6,Slow,f,0,2.201,9,2,38,1,1,,,,,
,0.03,,,,,,,,,h.PNG,h,5b05e0d131cebe000177c38e,2021-10-19_13h00.26.647,forced_choiceRT,2021.1.2,Win32,60.0240096,,,,,,,,6,Ontime,h,1,1.917,9,3,39,2,1,,,,,
,,,,,,,,,,,,5b05e0d131cebe000177c38e,2021-10-19_13h00.26.647,forced_choiceRT,2021.1.2,Win32,60.0240096,,,,,,,,,,,,,,,,,,5,0,5,0,1
,0.43,,,,,,,,,j.PNG,j,5b05e0d131cebe000177c38e,2021-10-19_13h00.26.647,forced_choiceRT,2021.1.2,Win32,60.0240096,,,,,,,,7,Ontime,j,1,1.969,0,0,0,3,1,,,,,
,1.55,,,,,,,,,g.PNG,g,5b05e0d131cebe000177c38e,2021-10-19_13h00.26.647,forced_choiceRT,2021.1.2,Win32,60.0240096,,,,,,,,7,Slow,h,0,2.137,0,1,1,1,1,,,,,
,0.07,,,,,,,,,g.PNG,g,5b05e0d131cebe000177c38e,2021-10-19_13h00.26.647,forced_choiceRT,2021.1.2,Win32,60.0240096,,,,,,,,7,Ontime,g,1,2.008,0,2,2,1,1,,,,,
,0.81,,,,,,,,,f.PNG,f,5b05e0d131cebe000177c38e,2021-10-19_13h00.26.647,forced_choiceRT,2021.1.2,Win32,60.0240096,,,,,,,,7,Ontime,f,1,1.958,0,3,3,0,1,,,,,
,0.76,,,,,,,,,f.PNG,f,5b05e0d131cebe000177c38e,2021-10-19_13h00.26.647,forced_choiceRT,2021.1.2,Win32,60.0240096,,,,,,,,7,Ontime,f,1,1.949,1,0,4,0,1,,,,,
,0.13,,,,,,,,,f.PNG,f,5b05e0d131cebe000177c38e,2021-10-19_13h00.26.647,forced_choiceRT,2021.1.2,Win32,60.0240096,,,,,,,,7,Fast,f,1,1.819,1,1,5,0,1,,,,,
,0.09,,,,,,,,,h.PNG,h,5b05e0d131cebe000177c38e,2021-10-19_13h00.26.647,forced_choiceRT,2021.1.2,Win32,60.0240096,,,,,,,,7,Fast,h,1,1.876,1,2,6,2,1,,,,,
,1.72,,,,,,,,,h.PNG,h,5b05e0d131cebe000177c38e,2021-10-19_13h00.26.647,forced_choiceRT,2021.1.2,Win32,60.0240096,,,,,,,,7,Slow,h,1,2.301,1,3,7,2,1,,,,,
,0.84,,,,,,,,,h.PNG,h,5b05e0d131cebe000177c38e,2021-10-19_13h00.26.647,forced_choiceRT,2021.1.2,Win32,60.0240096,,,,,,,,7,Ontime,h,1,1.967,2,0,8,2,1,,,,,
,0.29,,,,,,,,,f.PNG,f,5b05e0d131cebe000177c38e,2021-10-19_13h00.26.647,forced_choiceRT,2021.1.2,Win32,60.0240096,,,,,,,,7,Ontime,f,1,2.005,2,1,9,0,1,,,,,
,1.06,,,,,,,,,h.PNG,h,5b05e0d131cebe000177c38e,2021-10-19_13h00.26.647,forced_choiceRT,2021.1.2,Win32,60.0240096,,,,,,,,7,Ontime,h,1,2.089,2,2,10,2,1,,,,,
,0.4,,,,,,,,,g.PNG,g,5b05e0d131cebe000177c38e,2021-10-19_13h00.26.647,forced_choiceRT,2021.1.2,Win32,60.0240096,,,,,,,,7,Ontime,g,1,2.034,2,3,11,1,1,,,,,
,1.4,,,,,,,,,g.PNG,g,5b05e0d131cebe000177c38e,2021-10-19_13h00.26.647,forced_choiceRT,2021.1.2,Win32,60.0240096,,,,,,,,7,Slow,h,0,2.119,3,0,12,1,1,,,,,
,1.4,,,,,,,,,j.PNG,j,5b05e0d131cebe000177c38e,2021-10-19_13h00.26.647,forced_choiceRT,2021.1.2,Win32,60.0240096,,,,,,,,7,Slow,j,1,2.12,3,1,13,3,1,,,,,
,0.05,,,,,,,,,h.PNG,h,5b05e0d131cebe000177c38e,2021-10-19_13h00.26.647,forced_choiceRT,2021.1.2,Win32,60.0240096,,,,,,,,7,Ontime,h,1,1.951,3,2,14,2,1,,,,,
,1.75,,,,,,,,,g.PNG,g,5b05e0d131cebe000177c38e,2021-10-19_13h00.26.647,forced_choiceRT,2021.1.2,Win32,60.0240096,,,,,,,,7,Slow,h,0,2.954,3,3,15,1,1,,,,,
,1.43,,,,,,,,,j.PNG,j,5b05e0d131cebe000177c38e,2021-10-19_13h00.26.647,forced_choiceRT,2021.1.2,Win32,60.0240096,,,,,,,,7,Ontime,j,1,2.037,4,0,16,3,1,,,,,
,0.16,,,,,,,,,f.PNG,f,5b05e0d131cebe000177c38e,2021-10-19_13h00.26.647,forced_choiceRT,2021.1.2,Win32,60.0240096,,,,,,,,7,Ontime,f,1,1.985,4,1,17,0,1,,,,,
,0.1,,,,,,,,,f.PNG,f,5b05e0d131cebe000177c38e,2021-10-19_13h00.26.647,forced_choiceRT,2021.1.2,Win32,60.0240096,,,,,,,,7,Ontime,f,1,2.022,4,2,18,0,1,,,,,
,0.31,,,,,,,,,g.PNG,g,5b05e0d131cebe000177c38e,2021-10-19_13h00.26.647,forced_choiceRT,2021.1.2,Win32,60.0240096,,,,,,,,7,Ontime,h,0,2.005,4,3,19,1,1,,,,,
,1.45,,,,,,,,,f.PNG,f,5b05e0d131cebe000177c38e,2021-10-19_13h00.26.647,forced_choiceRT,2021.1.2,Win32,60.0240096,,,,,,,,7,Ontime,g,0,2.04,5,0,20,0,1,,,,,
,0.54,,,,,,,,,g.PNG,g,5b05e0d131cebe000177c38e,2021-10-19_13h00.26.647,forced_choiceRT,2021.1.2,Win32,60.0240096,,,,,,,,7,Ontime,h,0,2.034,5,1,21,1,1,,,,,
,0.42,,,,,,,,,f.PNG,f,5b05e0d131cebe000177c38e,2021-10-19_13h00.26.647,forced_choiceRT,2021.1.2,Win32,60.0240096,,,,,,,,7,Ontime,f,1,2.009,5,2,22,0,1,,,,,
,0.79,,,,,,,,,h.PNG,h,5b05e0d131cebe000177c38e,2021-10-19_13h00.26.647,forced_choiceRT,2021.1.2,Win32,60.0240096,,,,,,,,7,Ontime,h,1,1.956,5,3,23,2,1,,,,,
,1,,,,,,,,,h.PNG,h,5b05e0d131cebe000177c38e,2021-10-19_13h00.26.647,forced_choiceRT,2021.1.2,Win32,60.0240096,,,,,,,,7,Ontime,h,1,2.052,6,0,24,2,1,,,,,
,0.43,,,,,,,,,j.PNG,j,5b05e0d131cebe000177c38e,2021-10-19_13h00.26.647,forced_choiceRT,2021.1.2,Win32,60.0240096,,,,,,,,7,Fast,j,1,1.886,6,1,25,3,1,,,,,
,1.59,,,,,,,,,g.PNG,g,5b05e0d131cebe000177c38e,2021-10-19_13h00.26.647,forced_choiceRT,2021.1.2,Win32,60.0240096,,,,,,,,7,Slow,h,0,2.249,6,2,26,1,1,,,,,
,1.32,,,,,,,,,j.PNG,j,5b05e0d131cebe000177c38e,2021-10-19_13h00.26.647,forced_choiceRT,2021.1.2,Win32,60.0240096,,,,,,,,7,Ontime,j,1,1.967,6,3,27,3,1,,,,,
,1.56,,,,,,,,,j.PNG,j,5b05e0d131cebe000177c38e,2021-10-19_13h00.26.647,forced_choiceRT,2021.1.2,Win32,60.0240096,,,,,,,,7,Slow,j,1,2.185,7,0,28,3,1,,,,,
,0.2,,,,,,,,,h.PNG,h,5b05e0d131cebe000177c38e,2021-10-19_13h00.26.647,forced_choiceRT,2021.1.2,Win32,60.0240096,,,,,,,,7,Ontime,h,1,2.001,7,1,29,2,1,,,,,
,0.6,,,,,,,,,j.PNG,j,5b05e0d131cebe000177c38e,2021-10-19_13h00.26.647,forced_choiceRT,2021.1.2,Win32,60.0240096,,,,,,,,7,Ontime,j,1,1.942,7,2,30,3,1,,,,,
,0.34,,,,,,,,,h.PNG,h,5b05e0d131cebe000177c38e,2021-10-19_13h00.26.647,forced_choiceRT,2021.1.2,Win32,60.0240096,,,,,,,,7,Ontime,h,1,1.973,7,3,31,2,1,,,,,
,1.67,,,,,,,,,f.PNG,f,5b05e0d131cebe000177c38e,2021-10-19_13h00.26.647,forced_choiceRT,2021.1.2,Win32,60.0240096,,,,,,,,7,Slow,j,0,2.12,8,0,32,0,1,,,,,
,0.6,,,,,,,,,j.PNG,j,5b05e0d131cebe000177c38e,2021-10-19_13h00.26.647,forced_choiceRT,2021.1.2,Win32,60.0240096,,,,,,,,7,Ontime,j,1,1.943,8,1,33,3,1,,,,,
,1.47,,,,,,,,,g.PNG,g,5b05e0d131cebe000177c38e,2021-10-19_13h00.26.647,forced_choiceRT,2021.1.2,Win32,60.0240096,,,,,,,,7,Slow,g,1,2.367,8,2,34,1,1,,,,,
,0.35,,,,,,,,,f.PNG,f,5b05e0d131cebe000177c38e,2021-10-19_13h00.26.647,forced_choiceRT,2021.1.2,Win32,60.0240096,,,,,,,,7,Ontime,f,1,1.958,8,3,35,0,1,,,,,
,1.83,,,,,,,,,h.PNG,h,5b05e0d131cebe000177c38e,2021-10-19_13h00.26.647,forced_choiceRT,2021.1.2,Win32,60.0240096,,,,,,,,7,Slow,h,1,2.618,9,0,36,2,1,,,,,
,0.76,,,,,,,,,j.PNG,j,5b05e0d131cebe000177c38e,2021-10-19_13h00.26.647,forced_choiceRT,2021.1.2,Win32,60.0240096,,,,,,,,7,Fast,j,1,1.884,9,1,37,3,1,,,,,
,1.27,,,,,,,,,g.PNG,g,5b05e0d131cebe000177c38e,2021-10-19_13h00.26.647,forced_choiceRT,2021.1.2,Win32,60.0240096,,,,,,,,7,Slow,g,1,2.251,9,2,38,1,1,,,,,
,0.84,,,,,,,,,j.PNG,j,5b05e0d131cebe000177c38e,2021-10-19_13h00.26.647,forced_choiceRT,2021.1.2,Win32,60.0240096,,,,,,,,7,Ontime,j,1,1.983,9,3,39,3,1,,,,,
,,,,,,,,,,,,5b05e0d131cebe000177c38e,2021-10-19_13h00.26.647,forced_choiceRT,2021.1.2,Win32,60.0240096,,,,,,,,,,,,,,,,,,6,0,6,0,1
,1.76,,,,,,,,,g.PNG,g,5b05e0d131cebe000177c38e,2021-10-19_13h00.26.647,forced_choiceRT,2021.1.2,Win32,60.0240096,,,,,,,,8,Slow,j,0,2.353,0,0,0,1,1,,,,,
,1.91,,,,,,,,,g.PNG,g,5b05e0d131cebe000177c38e,2021-10-19_13h00.26.647,forced_choiceRT,2021.1.2,Win32,60.0240096,,,,,,,,8,Slow,g,1,2.6,0,1,1,1,1,,,,,
,1.06,,,,,,,,,h.PNG,h,5b05e0d131cebe000177c38e,2021-10-19_13h00.26.647,forced_choiceRT,2021.1.2,Win32,60.0240096,,,,,,,,8,Fast,h,1,1.785,0,2,2,2,1,,,,,
,1.3,,,,,,,,,f.PNG,f,5b05e0d131cebe000177c38e,2021-10-19_13h00.26.647,forced_choiceRT,2021.1.2,Win32,60.0240096,,,,,,,,8,Ontime,f,1,1.933,0,3,3,0,1,,,,,
,0.82,,,,,,,,,h.PNG,h,5b05e0d131cebe000177c38e,2021-10-19_13h00.26.647,forced_choiceRT,2021.1.2,Win32,60.0240096,,,,,,,,8,Ontime,h,1,2.017,1,0,4,2,1,,,,,
,0.61,,,,,,,,,f.PNG,f,5b05e0d131cebe000177c38e,2021-10-19_13h00.26.647,forced_choiceRT,2021.1.2,Win32,60.0240096,,,,,,,,8,Ontime,f,1,1.934,1,1,5,0,1,,,,,
,0.03,,,,,,,,,h.PNG,h,5b05e0d131cebe000177c38e,2021-10-19_13h00.26.647,forced_choiceRT,2021.1.2,Win32,60.0240096,,,,,,,,8,Fast,h,1,1.868,1,2,6,2,1,,,,,
,1.8,,,,,,,,,h.PNG,h,5b05e0d131cebe000177c38e,2021-10-19_13h00.26.647,forced_choiceRT,2021.1.2,Win32,60.0240096,,,,,,,,8,Slow,h,1,2.617,1,3,7,2,1,,,,,
,1.62,,,,,,,,,j.PNG,j,5b05e0d131cebe000177c38e,2021-10-19_13h00.26.647,forced_choiceRT,2021.1.2,Win32,60.0240096,,,,,,,,8,Slow,h,0,2.161,2,0,8,3,1,,,,,
,0.88,,,,,,,,,g.PNG,g,5b05e0d131cebe000177c38e,2021-10-19_13h00.26.647,forced_choiceRT,2021.1.2,Win32,60.0240096,,,,,,,,8,Ontime,g,1,2.018,2,1,9,1,1,,,,,
,0.2,,,,,,,,,g.PNG,g,5b05e0d131cebe000177c38e,2021-10-19_13h00.26.647,forced_choiceRT,2021.1.2,Win32,60.0240096,,,,,,,,8,Ontime,g,1,2.085,2,2,10,1,1,,,,,
,0.29,,,,,,,,,j.PNG,j,5b05e0d131cebe000177c38e,2021-10-19_13h00.26.647,forced_choiceRT,2021.1.2,Win32,60.0240096,,,,,,,,8,Ontime,j,1,2.016,2,3,11,3,1,,,,,
,0.7,,,,,,,,,g.PNG,g,5b05e0d131cebe000177c38e,2021-10-19_13h00.26.647,forced_choiceRT,2021.1.2,Win32,60.0240096,,,,,,,,8,Ontime,g,1,2.002,3,0,12,1,1,,,,,
,0.98,,,,,,,,,j.PNG,j,5b05e0d131cebe000177c38e,2021-10-19_13h00.26.647,forced_choiceRT,2021.1.2,Win32,60.0240096,,,,,,,,8,Ontime,j,1,1.987,3,1,13,3,1,,,,,
,0.75,,,,,,,,,g.PNG,g,5b05e0d131cebe000177c38e,2021-10-19_13h00.26.647,forced_choiceRT,2021.1.2,Win32,60.0240096,,,,,,,,8,Ontime,g,1,1.997,3,2,14,1,1,,,,,
,0.28,,,,,,,,,j.PNG,j,5b05e0d131cebe000177c38e,2021-10-19_13h00.26.647,forced_choiceRT,2021.1.2,Win32,60.0240096,,,,,,,,8,Ontime,j,1,1.968,3,3,15,3,1,,,,,
,0.03,,,,,,,,,g.PNG,g,5b05e0d131cebe000177c38e,2021-10-19_13h00.26.647,forced_choiceRT,2021.1.2,Win32,60.0240096,,,,,,,,8,Ontime,g,1,1.926,4,0,16,1,1,,,,,
,0.53,,,,,,,,,j.PNG,j,5b05e0d131cebe000177c38e,2021-10-19_13h00.26.647,forced_choiceRT,2021.1.2,Win32,60.0240096,,,,,,,,8,Ontime,j,1,1.957,4,1,17,3,1,,,,,
,1.22,,,,,,,,,f.PNG,f,5b05e0d131cebe000177c38e,2021-10-19_13h00.26.647,forced_choiceRT,2021.1.2,Win32,60.0240096,,,,,,,,8,Ontime,f,1,1.99,4,2,18,0,1,,,,,
,0.63,,,,,,,,,f.PNG,f,5b05e0d131cebe000177c38e,2021-10-19_13h00.26.647,forced_choiceRT,2021.1.2,Win32,60.0240096,,,,,,,,8,Ontime,f,1,1.902,4,3,19,0,1,,,,,
,0.45,,,,,,,,,h.PNG,h,5b05e0d131cebe000177c38e,2021-10-19_13h00.26.647,forced_choiceRT,2021.1.2,Win32,60.0240096,,,,,,,,8,Fast,j,0,1.767,5,0,20,2,1,,,,,
,0.66,,,,,,,,,j.PNG,j,5b05e0d131cebe000177c38e,2021-10-19_13h00.26.647,forced_choiceRT,2021.1.2,Win32,60.0240096,,,,,,,,8,Ontime,j,1,2.006,5,1,21,3,1,,,,,
,0.47,,,,,,,,,g.PNG,g,5b05e0d131cebe000177c38e,2021-10-19_13h00.26.647,forced_choiceRT,2021.1.2,Win32,60.0240096,,,,,,,,8,Fast,g,1,1.886,5,2,22,1,1,,,,,
,1.73,,,,,,,,,g.PNG,g,5b05e0d131cebe000177c38e,2021-10-19_13h00.26.647,forced_choiceRT,2021.1.2,Win32,60.0240096,,,,,,,,8,Ontime,j,0,2.07,5,3,23,1,1,,,,,
,1.54,,,,,,,,,h.PNG,h,5b05e0d131cebe000177c38e,2021-10-19_13h00.26.647,forced_choiceRT,2021.1.2,Win32,60.0240096,,,,,,,,8,Slow,g,0,2.17,6,0,24,2,1,,,,,
,0.96,,,,,,,,,h.PNG,h,5b05e0d131cebe000177c38e,2021-10-19_13h00.26.647,forced_choiceRT,2021.1.2,Win32,60.0240096,,,,,,,,8,Ontime,h,1,2.018,6,1,25,2,1,,,,,
,0.11,,,,,,,,,f.PNG,f,5b05e0d131cebe000177c38e,2021-10-19_13h00.26.647,forced_choiceRT,2021.1.2,Win32,60.0240096,,,,,,,,8,Fast,f,1,1.892,6,2,26,0,1,,,,,
,1.37,,,,,,,,,h.PNG,h,5b05e0d131cebe000177c38e,2021-10-19_13h00.26.647,forced_choiceRT,2021.1.2,Win32,60.0240096,,,,,,,,8,Slow,h,1,2.187,6,3,27,2,1,,,,,
,0.52,,,,,,,,,j.PNG,j,5b05e0d131cebe000177c38e,2021-10-19_13h00.26.647,forced_choiceRT,2021.1.2,Win32,60.0240096,,,,,,,,8,Ontime,j,1,1.974,7,0,28,3,1,,,,,
,0.31,,,,,,,,,g.PNG,g,5b05e0d131cebe000177c38e,2021-10-19_13h00.26.647,forced_choiceRT,2021.1.2,Win32,60.0240096,,,,,,,,8,Ontime,g,1,1.919,7,1,29,1,1,,,,,
,0.56,,,,,,,,,f.PNG,f,5b05e0d131cebe000177c38e,2021-10-19_13h00.26.647,forced_choiceRT,2021.1.2,Win32,60.0240096,,,,,,,,8,Ontime,f,1,2.003,7,2,30,0,1,,,,,
,0.12,,,,,,,,,j.PNG,j,5b05e0d131cebe000177c38e,2021-10-19_13h00.26.647,forced_choiceRT,2021.1.2,Win32,60.0240096,,,,,,,,8,Ontime,j,1,1.933,7,3,31,3,1,,,,,
,0.85,,,,,,,,,h.PNG,h,5b05e0d131cebe000177c38e,2021-10-19_13h00.26.647,forced_choiceRT,2021.1.2,Win32,60.0240096,,,,,,,,8,Ontime,h,1,2.02,8,0,32,2,1,,,,,
,1.3,,,,,,,,,f.PNG,f,5b05e0d131cebe000177c38e,2021-10-19_13h00.26.647,forced_choiceRT,2021.1.2,Win32,60.0240096,,,,,,,,8,Ontime,f,1,1.956,8,1,33,0,1,,,,,
,0.12,,,,,,,,,f.PNG,f,5b05e0d131cebe000177c38e,2021-10-19_13h00.26.647,forced_choiceRT,2021.1.2,Win32,60.0240096,,,,,,,,8,Ontime,f,1,1.968,8,2,34,0,1,,,,,
,1.25,,,,,,,,,j.PNG,j,5b05e0d131cebe000177c38e,2021-10-19_13h00.26.647,forced_choiceRT,2021.1.2,Win32,60.0240096,,,,,,,,8,Ontime,j,1,2.089,8,3,35,3,1,,,,,
,0.57,,,,,,,,,h.PNG,h,5b05e0d131cebe000177c38e,2021-10-19_13h00.26.647,forced_choiceRT,2021.1.2,Win32,60.0240096,,,,,,,,8,Ontime,h,1,2.034,9,0,36,2,1,,,,,
,0.35,,,,,,,,,f.PNG,f,5b05e0d131cebe000177c38e,2021-10-19_13h00.26.647,forced_choiceRT,2021.1.2,Win32,60.0240096,,,,,,,,8,Ontime,f,1,2,9,1,37,0,1,,,,,
,1.47,,,,,,,,,j.PNG,j,5b05e0d131cebe000177c38e,2021-10-19_13h00.26.647,forced_choiceRT,2021.1.2,Win32,60.0240096,,,,,,,,8,Slow,j,1,2.102,9,2,38,3,1,,,,,
,0.22,,,,,,,,,f.PNG,f,5b05e0d131cebe000177c38e,2021-10-19_13h00.26.647,forced_choiceRT,2021.1.2,Win32,60.0240096,,,,,,,,8,Ontime,f,1,2.002,9,3,39,0,1,,,,,
,,,,,,,,,,,,5b05e0d131cebe000177c38e,2021-10-19_13h00.26.647,forced_choiceRT,2021.1.2,Win32,60.0240096,,,,,,,,,,,,,,,,,,7,0,7,0,1
,1.68,,,,,,,,,f.PNG,f,5b05e0d131cebe000177c38e,2021-10-19_13h00.26.647,forced_choiceRT,2021.1.2,Win32,60.0240096,,,,,,,,9,Slow,j,0,2.198,0,0,0,0,1,,,,,
,0.61,,,,,,,,,g.PNG,g,5b05e0d131cebe000177c38e,2021-10-19_13h00.26.647,forced_choiceRT,2021.1.2,Win32,60.0240096,,,,,,,,9,Ontime,g,1,2.019,0,1,1,1,1,,,,,
,0.08,,,,,,,,,j.PNG,j,5b05e0d131cebe000177c38e,2021-10-19_13h00.26.647,forced_choiceRT,2021.1.2,Win32,60.0240096,,,,,,,,9,Fast,j,1,1.885,0,2,2,3,1,,,,,
,0.5,,,,,,,,,g.PNG,g,5b05e0d131cebe000177c38e,2021-10-19_13h00.26.647,forced_choiceRT,2021.1.2,Win32,60.0240096,,,,,,,,9,Ontime,g,1,2.088,0,3,3,1,1,,,,,
,0.11,,,,,,,,,h.PNG,h,5b05e0d131cebe000177c38e,2021-10-19_13h00.26.647,forced_choiceRT,2021.1.2,Win32,60.0240096,,,,,,,,9,Ontime,h,1,1.952,1,0,4,2,1,,,,,
,0.49,,,,,,,,,j.PNG,j,5b05e0d131cebe000177c38e,2021-10-19_13h00.26.647,forced_choiceRT,2021.1.2,Win32,60.0240096,,,,,,,,9,Ontime,j,1,1.993,1,1,5,3,1,,,,,
,0.44,,,,,,,,,g.PNG,g,5b05e0d131cebe000177c38e,2021-10-19_13h00.26.647,forced_choiceRT,2021.1.2,Win32,60.0240096,,,,,,,,9,Slow,g,1,2.101,1,2,6,1,1,,,,,
,1.26,,,,,,,,,g.PNG,g,5b05e0d131cebe000177c38e,2021-10-19_13h00.26.647,forced_choiceRT,2021.1.2,Win32,60.0240096,,,,,,,,9,Slow,g,1,2.134,1,3,7,1,1,,,,,
,0.29,,,,,,,,,f.PNG,f,5b05e0d131cebe000177c38e,2021-10-19_13h00.26.647,forced_choiceRT,2021.1.2,Win32,60.0240096,,,,,,,,9,Ontime,f,1,2.034,2,0,8,0,1,,,,,
,1.03,,,,,,,,,g.PNG,g,5b05e0d131cebe000177c38e,2021-10-19_13h00.26.647,forced_choiceRT,2021.1.2,Win32,60.0240096,,,,,,,,9,Slow,g,1,2.139,2,1,9,1,1,,,,,
,1.31,,,,,,,,,f.PNG,f,5b05e0d131cebe000177c38e,2021-10-19_13h00.26.647,forced_choiceRT,2021.1.2,Win32,60.0240096,,,,,,,,9,Ontime,f,1,1.938,2,2,10,0,1,,,,,
,0.3,,,,,,,,,h.PNG,h,5b05e0d131cebe000177c38e,2021-10-19_13h00.26.647,forced_choiceRT,2021.1.2,Win32,60.0240096,,,,,,,,9,Ontime,h,1,2.059,2,3,11,2,1,,,,,
,0.36,,,,,,,,,g.PNG,g,5b05e0d131cebe000177c38e,2021-10-19_13h00.26.647,forced_choiceRT,2021.1.2,Win32,60.0240096,,,,,,,,9,Ontime,g,1,1.99,3,0,12,1,1,,,,,
,1.63,,,,,,,,,g.PNG,g,5b05e0d131cebe000177c38e,2021-10-19_13h00.26.647,forced_choiceRT,2021.1.2,Win32,60.0240096,,,,,,,,9,Slow,g,1,2.224,3,1,13,1,1,,,,,
,1.41,,,,,,,,,f.PNG,f,5b05e0d131cebe000177c38e,2021-10-19_13h00.26.647,forced_choiceRT,2021.1.2,Win32,60.0240096,,,,,,,,9,Ontime,j,0,1.905,3,2,14,0,1,,,,,
,0.73,,,,,,,,,j.PNG,j,5b05e0d131cebe000177c38e,2021-10-19_13h00.26.647,forced_choiceRT,2021.1.2,Win32,60.0240096,,,,,,,,9,Ontime,j,1,1.958,3,3,15,3,1,,,,,
,1.61,,,,,,,,,h.PNG,h,5b05e0d131cebe000177c38e,2021-10-19_13h00.26.647,forced_choiceRT,2021.1.2,Win32,60.0240096,,,,,,,,9,Slow,g,0,2.32,4,0,16,2,1,,,,,
,1.84,,,,,,,,,j.PNG,j,5b05e0d131cebe000177c38e,2021-10-19_13h00.26.647,forced_choiceRT,2021.1.2,Win32,60.0240096,,,,,,,,9,Slow,j,1,2.618,4,1,17,3,1,,,,,
,1.02,,,,,,,,,h.PNG,h,5b05e0d131cebe000177c38e,2021-10-19_13h00.26.647,forced_choiceRT,2021.1.2,Win32,60.0240096,,,,,,,,9,Ontime,h,1,2.002,4,2,18,2,1,,,,,
,1.32,,,,,,,,,g.PNG,g,5b05e0d131cebe000177c38e,2021-10-19_13h00.26.647,forced_choiceRT,2021.1.2,Win32,60.0240096,,,,,,,,9,Ontime,g,1,2.034,4,3,19,1,1,,,,,
,0.81,,,,,,,,,f.PNG,f,5b05e0d131cebe000177c38e,2021-10-19_13h00.26.647,forced_choiceRT,2021.1.2,Win32,60.0240096,,,,,,,,9,Ontime,f,1,2.053,5,0,20,0,1,,,,,
,1.82,,,,,,,,,f.PNG,f,5b05e0d131cebe000177c38e,2021-10-19_13h00.26.647,forced_choiceRT,2021.1.2,Win32,60.0240096,,,,,,,,9,Slow,j,0,2.26,5,1,21,0,1,,,,,
,0.65,,,,,,,,,f.PNG,f,5b05e0d131cebe000177c38e,2021-10-19_13h00.26.647,forced_choiceRT,2021.1.2,Win32,60.0240096,,,,,,,,9,Ontime,f,1,1.901,5,2,22,0,1,,,,,
,0.22,,,,,,,,,h.PNG,h,5b05e0d131cebe000177c38e,2021-10-19_13h00.26.647,forced_choiceRT,2021.1.2,Win32,60.0240096,,,,,,,,9,Fast,h,1,1.884,5,3,23,2,1,,,,,
,0.72,,,,,,,,,j.PNG,j,5b05e0d131cebe000177c38e,2021-10-19_13h00.26.647,forced_choiceRT,2021.1.2,Win32,60.0240096,,,,,,,,9,Ontime,j,1,1.983,6,0,24,3,1,,,,,
,1.31,,,,,,,,,f.PNG,f,5b05e0d131cebe000177c38e,2021-10-19_13h00.26.647,forced_choiceRT,2021.1.2,Win32,60.0240096,,,,,,,,9,Slow,f,1,2.136,6,1,25,0,1,,,,,
,0.91,,,,,,,,,h.PNG,h,5b05e0d131cebe000177c38e,2021-10-19_13h00.26.647,forced_choiceRT,2021.1.2,Win32,60.0240096,,,,,,,,9,Ontime,h,1,1.936,6,2,26,2,1,,,,,
,1.35,,,,,,,,,f.PNG,f,5b05e0d131cebe000177c38e,2021-10-19_13h00.26.647,forced_choiceRT,2021.1.2,Win32,60.0240096,,,,,,,,9,Ontime,f,1,1.952,6,3,27,0,1,,,,,
,0.19,,,,,,,,,g.PNG,g,5b05e0d131cebe000177c38e,2021-10-19_13h00.26.647,forced_choiceRT,2021.1.2,Win32,60.0240096,,,,,,,,9,Fast,h,0,1.885,7,0,28,1,1,,,,,
,1.48,,,,,,,,,j.PNG,j,5b05e0d131cebe000177c38e,2021-10-19_13h00.26.647,forced_choiceRT,2021.1.2,Win32,60.0240096,,,,,,,,9,Ontime,f,0,2.04,7,1,29,3,1,,,,,
,0.19,,,,,,,,,h.PNG,h,5b05e0d131cebe000177c38e,2021-10-19_13h00.26.647,forced_choiceRT,2021.1.2,Win32,60.0240096,,,,,,,,9,Ontime,h,1,1.924,7,2,30,2,1,,,,,
,1.39,,,,,,,,,j.PNG,j,5b05e0d131cebe000177c38e,2021-10-19_13h00.26.647,forced_choiceRT,2021.1.2,Win32,60.0240096,,,,,,,,9,Ontime,j,1,2.084,7,3,31,3,1,,,,,
,0.14,,,,,,,,,j.PNG,j,5b05e0d131cebe000177c38e,2021-10-19_13h00.26.647,forced_choiceRT,2021.1.2,Win32,60.0240096,,,,,,,,9,Ontime,j,1,1.919,8,0,32,3,1,,,,,
,1.7,,,,,,,,,h.PNG,h,5b05e0d131cebe000177c38e,2021-10-19_13h00.26.647,forced_choiceRT,2021.1.2,Win32,60.0240096,,,,,,,,9,Slow,f,0,2.238,8,1,33,2,1,,,,,
,0.75,,,,,,,,,j.PNG,j,5b05e0d131cebe000177c38e,2021-10-19_13h00.26.647,forced_choiceRT,2021.1.2,Win32,60.0240096,,,,,,,,9,Ontime,j,1,1.969,8,2,34,3,1,,,,,
,0.6,,,,,,,,,h.PNG,h,5b05e0d131cebe000177c38e,2021-10-19_13h00.26.647,forced_choiceRT,2021.1.2,Win32,60.0240096,,,,,,,,9,Ontime,h,1,2.053,8,3,35,2,1,,,,,
,1.25,,,,,,,,,f.PNG,f,5b05e0d131cebe000177c38e,2021-10-19_13h00.26.647,forced_choiceRT,2021.1.2,Win32,60.0240096,,,,,,,,9,Ontime,f,1,2.018,9,0,36,0,1,,,,,
,1.88,,,,,,,,,j.PNG,j,5b05e0d131cebe000177c38e,2021-10-19_13h00.26.647,forced_choiceRT,2021.1.2,Win32,60.0240096,,,,,,,,9,Slow,j,1,2.474,9,1,37,3,1,,,,,
,1.88,,,,,,,,,g.PNG,g,5b05e0d131cebe000177c38e,2021-10-19_13h00.26.647,forced_choiceRT,2021.1.2,Win32,60.0240096,,,,,,,,9,Slow,g,1,2.772,9,2,38,1,1,,,,,
,1.33,,,,,,,,,h.PNG,h,5b05e0d131cebe000177c38e,2021-10-19_13h00.26.647,forced_choiceRT,2021.1.2,Win32,60.0240096,,,,,,,,9,Slow,h,1,2.103,9,3,39,2,1,,,,,
,,,,,,,,,,,,5b05e0d131cebe000177c38e,2021-10-19_13h00.26.647,forced_choiceRT,2021.1.2,Win32,60.0240096,,,,,,,,,,,,,,,,,,8,0,8,0,1
,1.92,,,,,,,,,f.PNG,f,5b05e0d131cebe000177c38e,2021-10-19_13h00.26.647,forced_choiceRT,2021.1.2,Win32,60.0240096,,,,,,,,10,Slow,f,1,2.411,0,0,0,0,1,,,,,
,0.64,,,,,,,,,g.PNG,g,5b05e0d131cebe000177c38e,2021-10-19_13h00.26.647,forced_choiceRT,2021.1.2,Win32,60.0240096,,,,,,,,10,Ontime,g,1,1.985,0,1,1,1,1,,,,,
,0.24,,,,,,,,,f.PNG,f,5b05e0d131cebe000177c38e,2021-10-19_13h00.26.647,forced_choiceRT,2021.1.2,Win32,60.0240096,,,,,,,,10,Ontime,f,1,1.983,0,2,2,0,1,,,,,
,0.76,,,,,,,,,j.PNG,j,5b05e0d131cebe000177c38e,2021-10-19_13h00.26.647,forced_choiceRT,2021.1.2,Win32,60.0240096,,,,,,,,10,Ontime,j,1,1.907,0,3,3,3,1,,,,,
,0,,,,,,,,,h.PNG,h,5b05e0d131cebe000177c38e,2021-10-19_13h00.26.647,forced_choiceRT,2021.1.2,Win32,60.0240096,,,,,,,,10,Ontime,h,1,1.905,1,0,4,2,1,,,,,
,0.31,,,,,,,,,j.PNG,j,5b05e0d131cebe000177c38e,2021-10-19_13h00.26.647,forced_choiceRT,2021.1.2,Win32,60.0240096,,,,,,,,10,Ontime,j,1,1.906,1,1,5,3,1,,,,,
,1.09,,,,,,,,,h.PNG,h,5b05e0d131cebe000177c38e,2021-10-19_13h00.26.647,forced_choiceRT,2021.1.2,Win32,60.0240096,,,,,,,,10,Fast,h,1,1.869,1,2,6,2,1,,,,,
,1.32,,,,,,,,,f.PNG,f,5b05e0d131cebe000177c38e,2021-10-19_13h00.26.647,forced_choiceRT,2021.1.2,Win32,60.0240096,,,,,,,,10,Ontime,f,1,2.001,1,3,7,0,1,,,,,
,0.68,,,,,,,,,h.PNG,h,5b05e0d131cebe000177c38e,2021-10-19_13h00.26.647,forced_choiceRT,2021.1.2,Win32,60.0240096,,,,,,,,10,Fast,h,1,1.768,2,0,8,2,1,,,,,
,0.55,,,,,,,,,j.PNG,j,5b05e0d131cebe000177c38e,2021-10-19_13h00.26.647,forced_choiceRT,2021.1.2,Win32,60.0240096,,,,,,,,10,Ontime,j,1,1.985,2,1,9,3,1,,,,,
,1.17,,,,,,,,,j.PNG,j,5b05e0d131cebe000177c38e,2021-10-19_13h00.26.647,forced_choiceRT,2021.1.2,Win32,60.0240096,,,,,,,,10,Ontime,j,1,2.018,2,2,10,3,1,,,,,
,1.09,,,,,,,,,g.PNG,g,5b05e0d131cebe000177c38e,2021-10-19_13h00.26.647,forced_choiceRT,2021.1.2,Win32,60.0240096,,,,,,,,10,Ontime,h,0,2.001,2,3,11,1,1,,,,,
,0.28,,,,,,,,,h.PNG,h,5b05e0d131cebe000177c38e,2021-10-19_13h00.26.647,forced_choiceRT,2021.1.2,Win32,60.0240096,,,,,,,,10,Ontime,h,1,1.984,3,0,12,2,1,,,,,
,0.62,,,,,,,,,g.PNG,g,5b05e0d131cebe000177c38e,2021-10-19_13h00.26.647,forced_choiceRT,2021.1.2,Win32,60.0240096,,,,,,,,10,Ontime,g,1,2.057,3,1,13,1,1,,,,,
,1.81,,,,,,,,,j.PNG,j,5b05e0d131cebe000177c38e,2021-10-19_13h00.26.647,forced_choiceRT,2021.1.2,Win32,60.0240096,,,,,,,,10,Slow,j,1,2.305,3,2,14,3,1,,,,,
,1.7,,,,,,,,,h.PNG,h,5b05e0d131cebe000177c38e,2021-10-19_13h00.26.647,forced_choiceRT,2021.1.2,Win32,60.0240096,,,,,,,,10,Slow,g,0,2.301,3,3,15,2,1,,,,,
,0.27,,,,,,,,,j.PNG,j,5b05e0d131cebe000177c38e,2021-10-19_13h00.26.647,forced_choiceRT,2021.1.2,Win32,60.0240096,,,,,,,,10,Fast,j,1,1.826,4,0,16,3,1,,,,,
,1.78,,,,,,,,,g.PNG,g,5b05e0d131cebe000177c38e,2021-10-19_13h00.26.647,forced_choiceRT,2021.1.2,Win32,60.0240096,,,,,,,,10,Slow,g,1,2.52,4,1,17,1,1,,,,,
,1.8,,,,,,,,,f.PNG,f,5b05e0d131cebe000177c38e,2021-10-19_13h00.26.647,forced_choiceRT,2021.1.2,Win32,60.0240096,,,,,,,,10,Slow,f,1,2.416,4,2,18,0,1,,,,,
,1.05,,,,,,,,,f.PNG,f,5b05e0d131cebe000177c38e,2021-10-19_13h00.26.647,forced_choiceRT,2021.1.2,Win32,60.0240096,,,,,,,,10,Ontime,f,1,1.989,4,3,19,0,1,,,,,
,0.91,,,,,,,,,h.PNG,h,5b05e0d131cebe000177c38e,2021-10-19_13h00.26.647,forced_choiceRT,2021.1.2,Win32,60.0240096,,,,,,,,10,Ontime,h,1,1.904,5,0,20,2,1,,,,,
,1.25,,,,,,,,,h.PNG,h,5b05e0d131cebe000177c38e,2021-10-19_13h00.26.647,forced_choiceRT,2021.1.2,Win32,60.0240096,,,,,,,,10,Ontime,h,1,1.902,5,1,21,2,1,,,,,
,1.27,,,,,,,,,f.PNG,f,5b05e0d131cebe000177c38e,2021-10-19_13h00.26.647,forced_choiceRT,2021.1.2,Win32,60.0240096,,,,,,,,10,Fast,f,1,1.893,5,2,22,0,1,,,,,
,0.43,,,,,,,,,g.PNG,g,5b05e0d131cebe000177c38e,2021-10-19_13h00.26.647,forced_choiceRT,2021.1.2,Win32,60.0240096,,,,,,,,10,Ontime,g,1,2.024,5,3,23,1,1,,,,,
,1.16,,,,,,,,,g.PNG,g,5b05e0d131cebe000177c38e,2021-10-19_13h00.26.647,forced_choiceRT,2021.1.2,Win32,60.0240096,,,,,,,,10,Ontime,g,1,1.984,6,0,24,1,1,,,,,
,1.76,,,,,,,,,f.PNG,f,5b05e0d131cebe000177c38e,2021-10-19_13h00.26.647,forced_choiceRT,2021.1.2,Win32,60.0240096,,,,,,,,10,Slow,f,1,2.25,6,1,25,0,1,,,,,
,0.27,,,,,,,,,g.PNG,g,5b05e0d131cebe000177c38e,2021-10-19_13h00.26.647,forced_choiceRT,2021.1.2,Win32,60.0240096,,,,,,,,10,Ontime,g,1,1.917,6,2,26,1,1,,,,,
,1.5,,,,,,,,,h.PNG,h,5b05e0d131cebe000177c38e,2021-10-19_13h00.26.647,forced_choiceRT,2021.1.2,Win32,60.0240096,,,,,,,,10,Slow,h,1,2.267,6,3,27,2,1,,,,,
,1.03,,,,,,,,,j.PNG,j,5b05e0d131cebe000177c38e,2021-10-19_13h00.26.647,forced_choiceRT,2021.1.2,Win32,60.0240096,,,,,,,,10,Ontime,j,1,2.04,7,0,28,3,1,,,,,
,1.39,,,,,,,,,f.PNG,f,5b05e0d131cebe000177c38e,2021-10-19_13h00.26.647,forced_choiceRT,2021.1.2,Win32,60.0240096,,,,,,,,10,Slow,f,1,2.102,7,1,29,0,1,,,,,
,1.88,,,,,,,,,j.PNG,j,5b05e0d131cebe000177c38e,2021-10-19_13h00.26.647,forced_choiceRT,2021.1.2,Win32,60.0240096,,,,,,,,10,Slow,j,1,2.569,7,2,30,3,1,,,,,
,0.14,,,,,,,,,f.PNG,f,5b05e0d131cebe000177c38e,2021-10-19_13h00.26.647,forced_choiceRT,2021.1.2,Win32,60.0240096,,,,,,,,10,Fast,f,1,1.768,7,3,31,0,1,,,,,
,0.83,,,,,,,,,g.PNG,g,5b05e0d131cebe000177c38e,2021-10-19_13h00.26.647,forced_choiceRT,2021.1.2,Win32,60.0240096,,,,,,,,10,Ontime,g,1,1.935,8,0,32,1,1,,,,,
,1.45,,,,,,,,,f.PNG,f,5b05e0d131cebe000177c38e,2021-10-19_13h00.26.647,forced_choiceRT,2021.1.2,Win32,60.0240096,,,,,,,,10,Ontime,f,1,2.015,8,1,33,0,1,,,,,
,1.32,,,,,,,,,g.PNG,g,5b05e0d131cebe000177c38e,2021-10-19_13h00.26.647,forced_choiceRT,2021.1.2,Win32,60.0240096,,,,,,,,10,Ontime,g,1,1.988,8,2,34,1,1,,,,,
,0.8,,,,,,,,,h.PNG,h,5b05e0d131cebe000177c38e,2021-10-19_13h00.26.647,forced_choiceRT,2021.1.2,Win32,60.0240096,,,,,,,,10,Fast,h,1,1.735,8,3,35,2,1,,,,,
,1.22,,,,,,,,,h.PNG,h,5b05e0d131cebe000177c38e,2021-10-19_13h00.26.647,forced_choiceRT,2021.1.2,Win32,60.0240096,,,,,,,,10,Fast,h,1,1.854,9,0,36,2,1,,,,,
,1.26,,,,,,,,,j.PNG,j,5b05e0d131cebe000177c38e,2021-10-19_13h00.26.647,forced_choiceRT,2021.1.2,Win32,60.0240096,,,,,,,,10,Ontime,j,1,2.001,9,1,37,3,1,,,,,
,0.52,,,,,,,,,g.PNG,g,5b05e0d131cebe000177c38e,2021-10-19_13h00.26.647,forced_choiceRT,2021.1.2,Win32,60.0240096,,,,,,,,10,Fast,g,1,1.89,9,2,38,1,1,,,,,
,1.01,,,,,,,,,j.PNG,j,5b05e0d131cebe000177c38e,2021-10-19_13h00.26.647,forced_choiceRT,2021.1.2,Win32,60.0240096,,,,,,,,10,Ontime,j,1,1.987,9,3,39,3,1,,,,,
,,,,,,,,,,,,5b05e0d131cebe000177c38e,2021-10-19_13h00.26.647,forced_choiceRT,2021.1.2,Win32,60.0240096,,,,,,,,,,,,,,,,,,9,0,9,0,1
