IP_Addresss,target_onset,trial_resp_sp.keys,trial_resp_sp.corr,trial_resp_sp.rt,trials_train_loop.thisRepN,trials_train_loop.thisTrialN,trials_train_loop.thisN,trials_train_loop.thisIndex,trials_train_loop.ran,pic,correct_key,participant,date,expName,psychopyVersion,OS,frameRate,trial_resp_timing.keys,trial_resp_timing.rt,trials_train_timing.thisRepN,trials_train_timing.thisTrialN,trials_train_timing.thisN,trials_train_timing.thisIndex,trials_train_timing.ran,block_id,ontime,forcedRT_resp.keys,forcedRT_resp.corr,forcedRT_resp.rt,trials.thisRepN,trials.thisTrialN,trials.thisN,trials.thisIndex,trials.ran,blocks.thisRepN,blocks.thisTrialN,blocks.thisN,blocks.thisIndex,blocks.ran
96.240.141.15,0,f,1,2.3516,0,0,0,0,1,f.PNG,f,5b25d4db0ec82d0001d1fdde,2021-10-19_15h46.09.406,forced_choiceRT,2021.1.2,Win32,60.06727535,,,,,,,,,,,,,,,,,,,,,,
,0,f,1,2.15,0,1,1,0,1,f.PNG,f,5b25d4db0ec82d0001d1fdde,2021-10-19_15h46.09.406,forced_choiceRT,2021.1.2,Win32,60.06727535,,,,,,,,,,,,,,,,,,,,,,
,0,g,1,1.3313,0,2,2,1,1,g.PNG,g,5b25d4db0ec82d0001d1fdde,2021-10-19_15h46.09.406,forced_choiceRT,2021.1.2,Win32,60.06727535,,,,,,,,,,,,,,,,,,,,,,
,0,f,1,1.5668,0,3,3,0,1,f.PNG,f,5b25d4db0ec82d0001d1fdde,2021-10-19_15h46.09.406,forced_choiceRT,2021.1.2,Win32,60.06727535,,,,,,,,,,,,,,,,,,,,,,
,0,h,1,2.3587,1,0,4,2,1,h.PNG,h,5b25d4db0ec82d0001d1fdde,2021-10-19_15h46.09.406,forced_choiceRT,2021.1.2,Win32,60.06727535,,,,,,,,,,,,,,,,,,,,,,
,0,g,1,1.405,1,1,5,1,1,g.PNG,g,5b25d4db0ec82d0001d1fdde,2021-10-19_15h46.09.406,forced_choiceRT,2021.1.2,Win32,60.06727535,,,,,,,,,,,,,,,,,,,,,,
,0,j,1,2.0092,1,2,6,3,1,j.PNG,j,5b25d4db0ec82d0001d1fdde,2021-10-19_15h46.09.406,forced_choiceRT,2021.1.2,Win32,60.06727535,,,,,,,,,,,,,,,,,,,,,,
,0,j,1,1.7664,1,3,7,3,1,j.PNG,j,5b25d4db0ec82d0001d1fdde,2021-10-19_15h46.09.406,forced_choiceRT,2021.1.2,Win32,60.06727535,,,,,,,,,,,,,,,,,,,,,,
,0,g,1,1.267,2,0,8,1,1,g.PNG,g,5b25d4db0ec82d0001d1fdde,2021-10-19_15h46.09.406,forced_choiceRT,2021.1.2,Win32,60.06727535,,,,,,,,,,,,,,,,,,,,,,
,0,g,1,0.8178,2,1,9,1,1,g.PNG,g,5b25d4db0ec82d0001d1fdde,2021-10-19_15h46.09.406,forced_choiceRT,2021.1.2,Win32,60.06727535,,,,,,,,,,,,,,,,,,,,,,
,0,g,1,0.7175,2,2,10,1,1,g.PNG,g,5b25d4db0ec82d0001d1fdde,2021-10-19_15h46.09.406,forced_choiceRT,2021.1.2,Win32,60.06727535,,,,,,,,,,,,,,,,,,,,,,
,0,f,1,1.2087,2,3,11,0,1,f.PNG,f,5b25d4db0ec82d0001d1fdde,2021-10-19_15h46.09.406,forced_choiceRT,2021.1.2,Win32,60.06727535,,,,,,,,,,,,,,,,,,,,,,
,0,h,1,2.1604,3,0,12,2,1,h.PNG,h,5b25d4db0ec82d0001d1fdde,2021-10-19_15h46.09.406,forced_choiceRT,2021.1.2,Win32,60.06727535,,,,,,,,,,,,,,,,,,,,,,
,0,f,1,1.2677,3,1,13,0,1,f.PNG,f,5b25d4db0ec82d0001d1fdde,2021-10-19_15h46.09.406,forced_choiceRT,2021.1.2,Win32,60.06727535,,,,,,,,,,,,,,,,,,,,,,
,0,h,1,1.9838,3,2,14,2,1,h.PNG,h,5b25d4db0ec82d0001d1fdde,2021-10-19_15h46.09.406,forced_choiceRT,2021.1.2,Win32,60.06727535,,,,,,,,,,,,,,,,,,,,,,
,0,h,1,2.3172,3,3,15,2,1,h.PNG,h,5b25d4db0ec82d0001d1fdde,2021-10-19_15h46.09.406,forced_choiceRT,2021.1.2,Win32,60.06727535,,,,,,,,,,,,,,,,,,,,,,
,0,g,1,1.0505,4,0,16,1,1,g.PNG,g,5b25d4db0ec82d0001d1fdde,2021-10-19_15h46.09.406,forced_choiceRT,2021.1.2,Win32,60.06727535,,,,,,,,,,,,,,,,,,,,,,
,0,f,1,0.8174,4,1,17,0,1,f.PNG,f,5b25d4db0ec82d0001d1fdde,2021-10-19_15h46.09.406,forced_choiceRT,2021.1.2,Win32,60.06727535,,,,,,,,,,,,,,,,,,,,,,
,0,f,1,0.9306,4,2,18,0,1,f.PNG,f,5b25d4db0ec82d0001d1fdde,2021-10-19_15h46.09.406,forced_choiceRT,2021.1.2,Win32,60.06727535,,,,,,,,,,,,,,,,,,,,,,
,0,h,1,1.8139,4,3,19,2,1,h.PNG,h,5b25d4db0ec82d0001d1fdde,2021-10-19_15h46.09.406,forced_choiceRT,2021.1.2,Win32,60.06727535,,,,,,,,,,,,,,,,,,,,,,
,0,g,1,1.3333,5,0,20,1,1,g.PNG,g,5b25d4db0ec82d0001d1fdde,2021-10-19_15h46.09.406,forced_choiceRT,2021.1.2,Win32,60.06727535,,,,,,,,,,,,,,,,,,,,,,
,0,f,1,1.1757,5,1,21,0,1,f.PNG,f,5b25d4db0ec82d0001d1fdde,2021-10-19_15h46.09.406,forced_choiceRT,2021.1.2,Win32,60.06727535,,,,,,,,,,,,,,,,,,,,,,
,0,g,1,0.9369,5,2,22,1,1,g.PNG,g,5b25d4db0ec82d0001d1fdde,2021-10-19_15h46.09.406,forced_choiceRT,2021.1.2,Win32,60.06727535,,,,,,,,,,,,,,,,,,,,,,
,0,j,1,1.8553,5,3,23,3,1,j.PNG,j,5b25d4db0ec82d0001d1fdde,2021-10-19_15h46.09.406,forced_choiceRT,2021.1.2,Win32,60.06727535,,,,,,,,,,,,,,,,,,,,,,
,0,j,1,1.3727,6,0,24,3,1,j.PNG,j,5b25d4db0ec82d0001d1fdde,2021-10-19_15h46.09.406,forced_choiceRT,2021.1.2,Win32,60.06727535,,,,,,,,,,,,,,,,,,,,,,
,0,g,1,1.1533,6,1,25,1,1,g.PNG,g,5b25d4db0ec82d0001d1fdde,2021-10-19_15h46.09.406,forced_choiceRT,2021.1.2,Win32,60.06727535,,,,,,,,,,,,,,,,,,,,,,
,0,f,1,1.2206,6,2,26,0,1,f.PNG,f,5b25d4db0ec82d0001d1fdde,2021-10-19_15h46.09.406,forced_choiceRT,2021.1.2,Win32,60.06727535,,,,,,,,,,,,,,,,,,,,,,
,0,h,1,2.3381,6,3,27,2,1,h.PNG,h,5b25d4db0ec82d0001d1fdde,2021-10-19_15h46.09.406,forced_choiceRT,2021.1.2,Win32,60.06727535,,,,,,,,,,,,,,,,,,,,,,
,0,g,1,1.1491,7,0,28,1,1,g.PNG,g,5b25d4db0ec82d0001d1fdde,2021-10-19_15h46.09.406,forced_choiceRT,2021.1.2,Win32,60.06727535,,,,,,,,,,,,,,,,,,,,,,
,0,g,1,0.8012,7,1,29,1,1,g.PNG,g,5b25d4db0ec82d0001d1fdde,2021-10-19_15h46.09.406,forced_choiceRT,2021.1.2,Win32,60.06727535,,,,,,,,,,,,,,,,,,,,,,
,0,j,1,1.2872,7,2,30,3,1,j.PNG,j,5b25d4db0ec82d0001d1fdde,2021-10-19_15h46.09.406,forced_choiceRT,2021.1.2,Win32,60.06727535,,,,,,,,,,,,,,,,,,,,,,
,0,f,1,1.1591,7,3,31,0,1,f.PNG,f,5b25d4db0ec82d0001d1fdde,2021-10-19_15h46.09.406,forced_choiceRT,2021.1.2,Win32,60.06727535,,,,,,,,,,,,,,,,,,,,,,
,0,j,1,1.8973,8,0,32,3,1,j.PNG,j,5b25d4db0ec82d0001d1fdde,2021-10-19_15h46.09.406,forced_choiceRT,2021.1.2,Win32,60.06727535,,,,,,,,,,,,,,,,,,,,,,
,0,g,1,1.7467,8,1,33,1,1,g.PNG,g,5b25d4db0ec82d0001d1fdde,2021-10-19_15h46.09.406,forced_choiceRT,2021.1.2,Win32,60.06727535,,,,,,,,,,,,,,,,,,,,,,
,0,j,1,1.59,8,2,34,3,1,j.PNG,j,5b25d4db0ec82d0001d1fdde,2021-10-19_15h46.09.406,forced_choiceRT,2021.1.2,Win32,60.06727535,,,,,,,,,,,,,,,,,,,,,,
,0,f,1,0.7137,8,3,35,0,1,f.PNG,f,5b25d4db0ec82d0001d1fdde,2021-10-19_15h46.09.406,forced_choiceRT,2021.1.2,Win32,60.06727535,,,,,,,,,,,,,,,,,,,,,,
,0,f,1,0.7335,9,0,36,0,1,f.PNG,f,5b25d4db0ec82d0001d1fdde,2021-10-19_15h46.09.406,forced_choiceRT,2021.1.2,Win32,60.06727535,,,,,,,,,,,,,,,,,,,,,,
,0,g,1,0.7728,9,1,37,1,1,g.PNG,g,5b25d4db0ec82d0001d1fdde,2021-10-19_15h46.09.406,forced_choiceRT,2021.1.2,Win32,60.06727535,,,,,,,,,,,,,,,,,,,,,,
,0,j,1,1.3863,9,2,38,3,1,j.PNG,j,5b25d4db0ec82d0001d1fdde,2021-10-19_15h46.09.406,forced_choiceRT,2021.1.2,Win32,60.06727535,,,,,,,,,,,,,,,,,,,,,,
,0,j,1,1.3509,9,3,39,3,1,j.PNG,j,5b25d4db0ec82d0001d1fdde,2021-10-19_15h46.09.406,forced_choiceRT,2021.1.2,Win32,60.06727535,,,,,,,,,,,,,,,,,,,,,,
,0,h,1,1.171,10,0,40,2,1,h.PNG,h,5b25d4db0ec82d0001d1fdde,2021-10-19_15h46.09.406,forced_choiceRT,2021.1.2,Win32,60.06727535,,,,,,,,,,,,,,,,,,,,,,
,0,h,1,1.2511,10,1,41,2,1,h.PNG,h,5b25d4db0ec82d0001d1fdde,2021-10-19_15h46.09.406,forced_choiceRT,2021.1.2,Win32,60.06727535,,,,,,,,,,,,,,,,,,,,,,
,0,j,1,1.4001,10,2,42,3,1,j.PNG,j,5b25d4db0ec82d0001d1fdde,2021-10-19_15h46.09.406,forced_choiceRT,2021.1.2,Win32,60.06727535,,,,,,,,,,,,,,,,,,,,,,
,0,j,1,1.1574,10,3,43,3,1,j.PNG,j,5b25d4db0ec82d0001d1fdde,2021-10-19_15h46.09.406,forced_choiceRT,2021.1.2,Win32,60.06727535,,,,,,,,,,,,,,,,,,,,,,
,0,g,1,0.9102,11,0,44,1,1,g.PNG,g,5b25d4db0ec82d0001d1fdde,2021-10-19_15h46.09.406,forced_choiceRT,2021.1.2,Win32,60.06727535,,,,,,,,,,,,,,,,,,,,,,
,0,f,1,0.8005,11,1,45,0,1,f.PNG,f,5b25d4db0ec82d0001d1fdde,2021-10-19_15h46.09.406,forced_choiceRT,2021.1.2,Win32,60.06727535,,,,,,,,,,,,,,,,,,,,,,
,0,j,1,1.1208,11,2,46,3,1,j.PNG,j,5b25d4db0ec82d0001d1fdde,2021-10-19_15h46.09.406,forced_choiceRT,2021.1.2,Win32,60.06727535,,,,,,,,,,,,,,,,,,,,,,
,0,h,1,1.6867,11,3,47,2,1,h.PNG,h,5b25d4db0ec82d0001d1fdde,2021-10-19_15h46.09.406,forced_choiceRT,2021.1.2,Win32,60.06727535,,,,,,,,,,,,,,,,,,,,,,
,0,f,1,1.402,12,0,48,0,1,f.PNG,f,5b25d4db0ec82d0001d1fdde,2021-10-19_15h46.09.406,forced_choiceRT,2021.1.2,Win32,60.06727535,,,,,,,,,,,,,,,,,,,,,,
,0,h,1,2.3502,12,1,49,2,1,h.PNG,h,5b25d4db0ec82d0001d1fdde,2021-10-19_15h46.09.406,forced_choiceRT,2021.1.2,Win32,60.06727535,,,,,,,,,,,,,,,,,,,,,,
,0,g,1,1.9098,12,2,50,1,1,g.PNG,g,5b25d4db0ec82d0001d1fdde,2021-10-19_15h46.09.406,forced_choiceRT,2021.1.2,Win32,60.06727535,,,,,,,,,,,,,,,,,,,,,,
,0,h,1,1.6538,12,3,51,2,1,h.PNG,h,5b25d4db0ec82d0001d1fdde,2021-10-19_15h46.09.406,forced_choiceRT,2021.1.2,Win32,60.06727535,,,,,,,,,,,,,,,,,,,,,,
,0,f,1,1.1255,13,0,52,0,1,f.PNG,f,5b25d4db0ec82d0001d1fdde,2021-10-19_15h46.09.406,forced_choiceRT,2021.1.2,Win32,60.06727535,,,,,,,,,,,,,,,,,,,,,,
,0,j,1,1.6205,13,1,53,3,1,j.PNG,j,5b25d4db0ec82d0001d1fdde,2021-10-19_15h46.09.406,forced_choiceRT,2021.1.2,Win32,60.06727535,,,,,,,,,,,,,,,,,,,,,,
,0,j,1,1.348,13,2,54,3,1,j.PNG,j,5b25d4db0ec82d0001d1fdde,2021-10-19_15h46.09.406,forced_choiceRT,2021.1.2,Win32,60.06727535,,,,,,,,,,,,,,,,,,,,,,
,0,h,1,2.3314,13,3,55,2,1,h.PNG,h,5b25d4db0ec82d0001d1fdde,2021-10-19_15h46.09.406,forced_choiceRT,2021.1.2,Win32,60.06727535,,,,,,,,,,,,,,,,,,,,,,
,0,h,1,1.1063,14,0,56,2,1,h.PNG,h,5b25d4db0ec82d0001d1fdde,2021-10-19_15h46.09.406,forced_choiceRT,2021.1.2,Win32,60.06727535,,,,,,,,,,,,,,,,,,,,,,
,0,h,1,0.7078,14,1,57,2,1,h.PNG,h,5b25d4db0ec82d0001d1fdde,2021-10-19_15h46.09.406,forced_choiceRT,2021.1.2,Win32,60.06727535,,,,,,,,,,,,,,,,,,,,,,
,0,h,1,0.4011,14,2,58,2,1,h.PNG,h,5b25d4db0ec82d0001d1fdde,2021-10-19_15h46.09.406,forced_choiceRT,2021.1.2,Win32,60.06727535,,,,,,,,,,,,,,,,,,,,,,
,0,j,1,0.8952,14,3,59,3,1,j.PNG,j,5b25d4db0ec82d0001d1fdde,2021-10-19_15h46.09.406,forced_choiceRT,2021.1.2,Win32,60.06727535,,,,,,,,,,,,,,,,,,,,,,
,,,,,,,,,,,,5b25d4db0ec82d0001d1fdde,2021-10-19_15h46.09.406,forced_choiceRT,2021.1.2,Win32,60.06727535,h,3.7403,0,0,0,0,1,,,,,,,,,,,,,,,
,,,,,,,,,,,,5b25d4db0ec82d0001d1fdde,2021-10-19_15h46.09.406,forced_choiceRT,2021.1.2,Win32,60.06727535,h,0.9203,1,0,1,0,1,,,,,,,,,,,,,,,
,,,,,,,,,,,,5b25d4db0ec82d0001d1fdde,2021-10-19_15h46.09.406,forced_choiceRT,2021.1.2,Win32,60.06727535,j,1.3972,2,0,2,0,1,,,,,,,,,,,,,,,
,,,,,,,,,,,,5b25d4db0ec82d0001d1fdde,2021-10-19_15h46.09.406,forced_choiceRT,2021.1.2,Win32,60.06727535,h,2.2308,3,0,3,0,1,,,,,,,,,,,,,,,
,,,,,,,,,,,,5b25d4db0ec82d0001d1fdde,2021-10-19_15h46.09.406,forced_choiceRT,2021.1.2,Win32,60.06727535,f,1.8672,4,0,4,0,1,,,,,,,,,,,,,,,
,,,,,,,,,,,,5b25d4db0ec82d0001d1fdde,2021-10-19_15h46.09.406,forced_choiceRT,2021.1.2,Win32,60.06727535,h,2.2499,5,0,5,0,1,,,,,,,,,,,,,,,
,,,,,,,,,,,,5b25d4db0ec82d0001d1fdde,2021-10-19_15h46.09.406,forced_choiceRT,2021.1.2,Win32,60.06727535,f,1.8014,6,0,6,0,1,,,,,,,,,,,,,,,
,,,,,,,,,,,,5b25d4db0ec82d0001d1fdde,2021-10-19_15h46.09.406,forced_choiceRT,2021.1.2,Win32,60.06727535,h,2.0008,7,0,7,0,1,,,,,,,,,,,,,,,
,,,,,,,,,,,,5b25d4db0ec82d0001d1fdde,2021-10-19_15h46.09.406,forced_choiceRT,2021.1.2,Win32,60.06727535,h,2.1171,8,0,8,0,1,,,,,,,,,,,,,,,
,,,,,,,,,,,,5b25d4db0ec82d0001d1fdde,2021-10-19_15h46.09.406,forced_choiceRT,2021.1.2,Win32,60.06727535,h,1.8054,9,0,9,0,1,,,,,,,,,,,,,,,
,,,,,,,,,,,,5b25d4db0ec82d0001d1fdde,2021-10-19_15h46.09.406,forced_choiceRT,2021.1.2,Win32,60.06727535,h,2.167,10,0,10,0,1,,,,,,,,,,,,,,,
,,,,,,,,,,,,5b25d4db0ec82d0001d1fdde,2021-10-19_15h46.09.406,forced_choiceRT,2021.1.2,Win32,60.06727535,h,2.1296,11,0,11,0,1,,,,,,,,,,,,,,,
,,,,,,,,,,,,5b25d4db0ec82d0001d1fdde,2021-10-19_15h46.09.406,forced_choiceRT,2021.1.2,Win32,60.06727535,j,2.0974,12,0,12,0,1,,,,,,,,,,,,,,,
,,,,,,,,,,,,5b25d4db0ec82d0001d1fdde,2021-10-19_15h46.09.406,forced_choiceRT,2021.1.2,Win32,60.06727535,j,2.1003,13,0,13,0,1,,,,,,,,,,,,,,,
,,,,,,,,,,,,5b25d4db0ec82d0001d1fdde,2021-10-19_15h46.09.406,forced_choiceRT,2021.1.2,Win32,60.06727535,j,2.1056,14,0,14,0,1,,,,,,,,,,,,,,,
,,,,,,,,,,,,5b25d4db0ec82d0001d1fdde,2021-10-19_15h46.09.406,forced_choiceRT,2021.1.2,Win32,60.06727535,h,2.0396,15,0,15,0,1,,,,,,,,,,,,,,,
,,,,,,,,,,,,5b25d4db0ec82d0001d1fdde,2021-10-19_15h46.09.406,forced_choiceRT,2021.1.2,Win32,60.06727535,h,2.0874,16,0,16,0,1,,,,,,,,,,,,,,,
,,,,,,,,,,,,5b25d4db0ec82d0001d1fdde,2021-10-19_15h46.09.406,forced_choiceRT,2021.1.2,Win32,60.06727535,h,2.0531,17,0,17,0,1,,,,,,,,,,,,,,,
,,,,,,,,,,,,5b25d4db0ec82d0001d1fdde,2021-10-19_15h46.09.406,forced_choiceRT,2021.1.2,Win32,60.06727535,h,2.0506,18,0,18,0,1,,,,,,,,,,,,,,,
,,,,,,,,,,,,5b25d4db0ec82d0001d1fdde,2021-10-19_15h46.09.406,forced_choiceRT,2021.1.2,Win32,60.06727535,h,2.0028,19,0,19,0,1,,,,,,,,,,,,,,,
,0.95,,,,,,,,,h.PNG,h,5b25d4db0ec82d0001d1fdde,2021-10-19_15h46.09.406,forced_choiceRT,2021.1.2,Win32,60.06727535,,,,,,,,1,Ontime,g,0,1.9625,0,0,0,2,1,,,,,
,0.17,,,,,,,,,j.PNG,j,5b25d4db0ec82d0001d1fdde,2021-10-19_15h46.09.406,forced_choiceRT,2021.1.2,Win32,60.06727535,,,,,,,,1,Fast,j,1,1.7507,0,1,1,3,1,,,,,
,0.7,,,,,,,,,h.PNG,h,5b25d4db0ec82d0001d1fdde,2021-10-19_15h46.09.406,forced_choiceRT,2021.1.2,Win32,60.06727535,,,,,,,,1,Ontime,h,1,1.9181,0,2,2,2,1,,,,,
,1.58,,,,,,,,,h.PNG,h,5b25d4db0ec82d0001d1fdde,2021-10-19_15h46.09.406,forced_choiceRT,2021.1.2,Win32,60.06727535,,,,,,,,1,Slow,h,1,2.3193,0,3,3,2,1,,,,,
,0.46,,,,,,,,,j.PNG,j,5b25d4db0ec82d0001d1fdde,2021-10-19_15h46.09.406,forced_choiceRT,2021.1.2,Win32,60.06727535,,,,,,,,1,Ontime,j,1,2.0265,1,0,4,3,1,,,,,
,0.19,,,,,,,,,h.PNG,h,5b25d4db0ec82d0001d1fdde,2021-10-19_15h46.09.406,forced_choiceRT,2021.1.2,Win32,60.06727535,,,,,,,,1,Fast,h,1,1.7445,1,1,5,2,1,,,,,
,0.27,,,,,,,,,f.PNG,f,5b25d4db0ec82d0001d1fdde,2021-10-19_15h46.09.406,forced_choiceRT,2021.1.2,Win32,60.06727535,,,,,,,,1,Ontime,f,1,2.0711,1,2,6,0,1,,,,,
,1.84,,,,,,,,,h.PNG,h,5b25d4db0ec82d0001d1fdde,2021-10-19_15h46.09.406,forced_choiceRT,2021.1.2,Win32,60.06727535,,,,,,,,1,Slow,h,1,4.2944,1,3,7,2,1,,,,,
,0.02,,,,,,,,,g.PNG,g,5b25d4db0ec82d0001d1fdde,2021-10-19_15h46.09.406,forced_choiceRT,2021.1.2,Win32,60.06727535,,,,,,,,1,Ontime,g,1,1.9668,2,0,8,1,1,,,,,
,0.13,,,,,,,,,h.PNG,h,5b25d4db0ec82d0001d1fdde,2021-10-19_15h46.09.406,forced_choiceRT,2021.1.2,Win32,60.06727535,,,,,,,,1,Ontime,h,1,2.0339,2,1,9,2,1,,,,,
,1.14,,,,,,,,,j.PNG,j,5b25d4db0ec82d0001d1fdde,2021-10-19_15h46.09.406,forced_choiceRT,2021.1.2,Win32,60.06727535,,,,,,,,1,Ontime,j,1,1.9975,2,2,10,3,1,,,,,
,1.59,,,,,,,,,g.PNG,g,5b25d4db0ec82d0001d1fdde,2021-10-19_15h46.09.406,forced_choiceRT,2021.1.2,Win32,60.06727535,,,,,,,,1,Slow,h,0,2.3507,2,3,11,1,1,,,,,
,0.65,,,,,,,,,j.PNG,j,5b25d4db0ec82d0001d1fdde,2021-10-19_15h46.09.406,forced_choiceRT,2021.1.2,Win32,60.06727535,,,,,,,,1,Ontime,j,1,2.0172,3,0,12,3,1,,,,,
,1.02,,,,,,,,,f.PNG,f,5b25d4db0ec82d0001d1fdde,2021-10-19_15h46.09.406,forced_choiceRT,2021.1.2,Win32,60.06727535,,,,,,,,1,Ontime,f,1,2.0169,3,1,13,0,1,,,,,
,1.33,,,,,,,,,h.PNG,h,5b25d4db0ec82d0001d1fdde,2021-10-19_15h46.09.406,forced_choiceRT,2021.1.2,Win32,60.06727535,,,,,,,,1,Slow,h,1,2.101,3,2,14,2,1,,,,,
,0.26,,,,,,,,,g.PNG,g,5b25d4db0ec82d0001d1fdde,2021-10-19_15h46.09.406,forced_choiceRT,2021.1.2,Win32,60.06727535,,,,,,,,1,Ontime,g,1,1.9086,3,3,15,1,1,,,,,
,0.51,,,,,,,,,g.PNG,g,5b25d4db0ec82d0001d1fdde,2021-10-19_15h46.09.406,forced_choiceRT,2021.1.2,Win32,60.06727535,,,,,,,,1,Fast,g,1,1.7826,4,0,16,1,1,,,,,
,0.34,,,,,,,,,g.PNG,g,5b25d4db0ec82d0001d1fdde,2021-10-19_15h46.09.406,forced_choiceRT,2021.1.2,Win32,60.06727535,,,,,,,,1,Slow,g,1,2.1621,4,1,17,1,1,,,,,
,1.99,,,,,,,,,f.PNG,f,5b25d4db0ec82d0001d1fdde,2021-10-19_15h46.09.406,forced_choiceRT,2021.1.2,Win32,60.06727535,,,,,,,,1,Slow,f,1,2.9621,4,2,18,0,1,,,,,
,1.68,,,,,,,,,f.PNG,f,5b25d4db0ec82d0001d1fdde,2021-10-19_15h46.09.406,forced_choiceRT,2021.1.2,Win32,60.06727535,,,,,,,,1,Slow,f,1,2.1649,4,3,19,0,1,,,,,
,1.41,,,,,,,,,j.PNG,j,5b25d4db0ec82d0001d1fdde,2021-10-19_15h46.09.406,forced_choiceRT,2021.1.2,Win32,60.06727535,,,,,,,,1,Ontime,j,1,1.9553,5,0,20,3,1,,,,,
,0.9,,,,,,,,,f.PNG,f,5b25d4db0ec82d0001d1fdde,2021-10-19_15h46.09.406,forced_choiceRT,2021.1.2,Win32,60.06727535,,,,,,,,1,Fast,f,1,1.4004,5,1,21,0,1,,,,,
,0.61,,,,,,,,,g.PNG,g,5b25d4db0ec82d0001d1fdde,2021-10-19_15h46.09.406,forced_choiceRT,2021.1.2,Win32,60.06727535,,,,,,,,1,Fast,g,1,1.8087,5,2,22,1,1,,,,,
,1.78,,,,,,,,,j.PNG,j,5b25d4db0ec82d0001d1fdde,2021-10-19_15h46.09.406,forced_choiceRT,2021.1.2,Win32,60.06727535,,,,,,,,1,Slow,g,0,2.3183,5,3,23,3,1,,,,,
,1.6,,,,,,,,,g.PNG,g,5b25d4db0ec82d0001d1fdde,2021-10-19_15h46.09.406,forced_choiceRT,2021.1.2,Win32,60.06727535,,,,,,,,1,Slow,h,0,2.1702,6,0,24,1,1,,,,,
,0.03,,,,,,,,,j.PNG,j,5b25d4db0ec82d0001d1fdde,2021-10-19_15h46.09.406,forced_choiceRT,2021.1.2,Win32,60.06727535,,,,,,,,1,Fast,h,0,1.7902,6,1,25,3,1,,,,,
,1.72,,,,,,,,,g.PNG,g,5b25d4db0ec82d0001d1fdde,2021-10-19_15h46.09.406,forced_choiceRT,2021.1.2,Win32,60.06727535,,,,,,,,1,Slow,h,0,2.2901,6,2,26,1,1,,,,,
,0.62,,,,,,,,,h.PNG,h,5b25d4db0ec82d0001d1fdde,2021-10-19_15h46.09.406,forced_choiceRT,2021.1.2,Win32,60.06727535,,,,,,,,1,Fast,f,0,1.6884,6,3,27,2,1,,,,,
,0.86,,,,,,,,,f.PNG,f,5b25d4db0ec82d0001d1fdde,2021-10-19_15h46.09.406,forced_choiceRT,2021.1.2,Win32,60.06727535,,,,,,,,1,Fast,f,1,1.4572,7,0,28,0,1,,,,,
,0.42,,,,,,,,,f.PNG,f,5b25d4db0ec82d0001d1fdde,2021-10-19_15h46.09.406,forced_choiceRT,2021.1.2,Win32,60.06727535,,,,,,,,1,Ontime,f,1,2.0062,7,1,29,0,1,,,,,
,0.59,,,,,,,,,f.PNG,f,5b25d4db0ec82d0001d1fdde,2021-10-19_15h46.09.406,forced_choiceRT,2021.1.2,Win32,60.06727535,,,,,,,,1,Ontime,f,1,2.0644,7,2,30,0,1,,,,,
,1.4,,,,,,,,,f.PNG,f,5b25d4db0ec82d0001d1fdde,2021-10-19_15h46.09.406,forced_choiceRT,2021.1.2,Win32,60.06727535,,,,,,,,1,Slow,f,1,2.2339,7,3,31,0,1,,,,,
,0.99,,,,,,,,,j.PNG,j,5b25d4db0ec82d0001d1fdde,2021-10-19_15h46.09.406,forced_choiceRT,2021.1.2,Win32,60.06727535,,,,,,,,1,Ontime,j,1,1.9506,8,0,32,3,1,,,,,
,0.01,,,,,,,,,h.PNG,h,5b25d4db0ec82d0001d1fdde,2021-10-19_15h46.09.406,forced_choiceRT,2021.1.2,Win32,60.06727535,,,,,,,,1,Ontime,h,1,1.9959,8,1,33,2,1,,,,,
,1.7,,,,,,,,,h.PNG,h,5b25d4db0ec82d0001d1fdde,2021-10-19_15h46.09.406,forced_choiceRT,2021.1.2,Win32,60.06727535,,,,,,,,1,Slow,g,0,2.3039,8,2,34,2,1,,,,,
,1.59,,,,,,,,,g.PNG,g,5b25d4db0ec82d0001d1fdde,2021-10-19_15h46.09.406,forced_choiceRT,2021.1.2,Win32,60.06727535,,,,,,,,1,Slow,g,1,2.1674,8,3,35,1,1,,,,,
,1.48,,,,,,,,,g.PNG,g,5b25d4db0ec82d0001d1fdde,2021-10-19_15h46.09.406,forced_choiceRT,2021.1.2,Win32,60.06727535,,,,,,,,1,Ontime,f,0,1.9834,9,0,36,1,1,,,,,
,0.32,,,,,,,,,f.PNG,f,5b25d4db0ec82d0001d1fdde,2021-10-19_15h46.09.406,forced_choiceRT,2021.1.2,Win32,60.06727535,,,,,,,,1,Ontime,f,1,1.9141,9,1,37,0,1,,,,,
,1.13,,,,,,,,,j.PNG,j,5b25d4db0ec82d0001d1fdde,2021-10-19_15h46.09.406,forced_choiceRT,2021.1.2,Win32,60.06727535,,,,,,,,1,Ontime,j,1,2.0156,9,2,38,3,1,,,,,
,0.04,,,,,,,,,j.PNG,j,5b25d4db0ec82d0001d1fdde,2021-10-19_15h46.09.406,forced_choiceRT,2021.1.2,Win32,60.06727535,,,,,,,,1,Ontime,h,0,2.035,9,3,39,3,1,,,,,
,,,,,,,,,,,,5b25d4db0ec82d0001d1fdde,2021-10-19_15h46.09.406,forced_choiceRT,2021.1.2,Win32,60.06727535,,,,,,,,,,,,,,,,,,0,0,0,0,1
,0.42,,,,,,,,,g.PNG,g,5b25d4db0ec82d0001d1fdde,2021-10-19_15h46.09.406,forced_choiceRT,2021.1.2,Win32,60.06727535,,,,,,,,2,Fast,f,0,1.8255,0,0,0,1,1,,,,,
,0.25,,,,,,,,,h.PNG,h,5b25d4db0ec82d0001d1fdde,2021-10-19_15h46.09.406,forced_choiceRT,2021.1.2,Win32,60.06727535,,,,,,,,2,Fast,h,1,1.6605,0,1,1,2,1,,,,,
,0.39,,,,,,,,,g.PNG,g,5b25d4db0ec82d0001d1fdde,2021-10-19_15h46.09.406,forced_choiceRT,2021.1.2,Win32,60.06727535,,,,,,,,2,Fast,g,1,1.7862,0,2,2,1,1,,,,,
,0.04,,,,,,,,,j.PNG,j,5b25d4db0ec82d0001d1fdde,2021-10-19_15h46.09.406,forced_choiceRT,2021.1.2,Win32,60.06727535,,,,,,,,2,Ontime,h,0,1.9865,0,3,3,3,1,,,,,
,1.66,,,,,,,,,h.PNG,h,5b25d4db0ec82d0001d1fdde,2021-10-19_15h46.09.406,forced_choiceRT,2021.1.2,Win32,60.06727535,,,,,,,,2,Slow,h,1,2.3054,1,0,4,2,1,,,,,
,0.49,,,,,,,,,g.PNG,g,5b25d4db0ec82d0001d1fdde,2021-10-19_15h46.09.406,forced_choiceRT,2021.1.2,Win32,60.06727535,,,,,,,,2,Fast,g,1,1.8133,1,1,5,1,1,,,,,
,0.59,,,,,,,,,j.PNG,j,5b25d4db0ec82d0001d1fdde,2021-10-19_15h46.09.406,forced_choiceRT,2021.1.2,Win32,60.06727535,,,,,,,,2,Fast,j,1,1.8522,1,2,6,3,1,,,,,
,0.29,,,,,,,,,f.PNG,f,5b25d4db0ec82d0001d1fdde,2021-10-19_15h46.09.406,forced_choiceRT,2021.1.2,Win32,60.06727535,,,,,,,,2,Fast,f,1,1.8352,1,3,7,0,1,,,,,
,0.89,,,,,,,,,j.PNG,j,5b25d4db0ec82d0001d1fdde,2021-10-19_15h46.09.406,forced_choiceRT,2021.1.2,Win32,60.06727535,,,,,,,,2,Ontime,j,1,1.9899,2,0,8,3,1,,,,,
,1.68,,,,,,,,,g.PNG,g,5b25d4db0ec82d0001d1fdde,2021-10-19_15h46.09.406,forced_choiceRT,2021.1.2,Win32,60.06727535,,,,,,,,2,Slow,g,1,2.1007,2,1,9,1,1,,,,,
,0.55,,,,,,,,,f.PNG,f,5b25d4db0ec82d0001d1fdde,2021-10-19_15h46.09.406,forced_choiceRT,2021.1.2,Win32,60.06727535,,,,,,,,2,Ontime,f,1,2.0401,2,2,10,0,1,,,,,
,0.75,,,,,,,,,g.PNG,g,5b25d4db0ec82d0001d1fdde,2021-10-19_15h46.09.406,forced_choiceRT,2021.1.2,Win32,60.06727535,,,,,,,,2,Ontime,g,1,1.9427,2,3,11,1,1,,,,,
,0.4,,,,,,,,,g.PNG,g,5b25d4db0ec82d0001d1fdde,2021-10-19_15h46.09.406,forced_choiceRT,2021.1.2,Win32,60.06727535,,,,,,,,2,Ontime,g,1,1.9825,3,0,12,1,1,,,,,
,0.01,,,,,,,,,h.PNG,h,5b25d4db0ec82d0001d1fdde,2021-10-19_15h46.09.406,forced_choiceRT,2021.1.2,Win32,60.06727535,,,,,,,,2,Ontime,h,1,1.9344,3,1,13,2,1,,,,,
,1.57,,,,,,,,,f.PNG,f,5b25d4db0ec82d0001d1fdde,2021-10-19_15h46.09.406,forced_choiceRT,2021.1.2,Win32,60.06727535,,,,,,,,2,Slow,f,1,2.2728,3,2,14,0,1,,,,,
,0.49,,,,,,,,,j.PNG,j,5b25d4db0ec82d0001d1fdde,2021-10-19_15h46.09.406,forced_choiceRT,2021.1.2,Win32,60.06727535,,,,,,,,2,Ontime,j,1,1.9514,3,3,15,3,1,,,,,
,0.91,,,,,,,,,h.PNG,h,5b25d4db0ec82d0001d1fdde,2021-10-19_15h46.09.406,forced_choiceRT,2021.1.2,Win32,60.06727535,,,,,,,,2,Fast,h,1,1.8665,4,0,16,2,1,,,,,
,0.67,,,,,,,,,f.PNG,f,5b25d4db0ec82d0001d1fdde,2021-10-19_15h46.09.406,forced_choiceRT,2021.1.2,Win32,60.06727535,,,,,,,,2,Ontime,f,1,2.0825,4,1,17,0,1,,,,,
,0.98,,,,,,,,,f.PNG,f,5b25d4db0ec82d0001d1fdde,2021-10-19_15h46.09.406,forced_choiceRT,2021.1.2,Win32,60.06727535,,,,,,,,2,Ontime,f,1,1.9539,4,2,18,0,1,,,,,
,1.88,,,,,,,,,h.PNG,h,5b25d4db0ec82d0001d1fdde,2021-10-19_15h46.09.406,forced_choiceRT,2021.1.2,Win32,60.06727535,,,,,,,,2,Slow,f,0,2.2589,4,3,19,2,1,,,,,
,0.72,,,,,,,,,f.PNG,f,5b25d4db0ec82d0001d1fdde,2021-10-19_15h46.09.406,forced_choiceRT,2021.1.2,Win32,60.06727535,,,,,,,,2,Fast,f,1,1.3748,5,0,20,0,1,,,,,
,0.2,,,,,,,,,g.PNG,g,5b25d4db0ec82d0001d1fdde,2021-10-19_15h46.09.406,forced_choiceRT,2021.1.2,Win32,60.06727535,,,,,,,,2,Ontime,g,1,2.0149,5,1,21,1,1,,,,,
,1.09,,,,,,,,,g.PNG,g,5b25d4db0ec82d0001d1fdde,2021-10-19_15h46.09.406,forced_choiceRT,2021.1.2,Win32,60.06727535,,,,,,,,2,Ontime,g,1,1.9313,5,2,22,1,1,,,,,
,0.65,,,,,,,,,h.PNG,h,5b25d4db0ec82d0001d1fdde,2021-10-19_15h46.09.406,forced_choiceRT,2021.1.2,Win32,60.06727535,,,,,,,,2,Fast,h,1,1.7834,5,3,23,2,1,,,,,
,1.37,,,,,,,,,h.PNG,h,5b25d4db0ec82d0001d1fdde,2021-10-19_15h46.09.406,forced_choiceRT,2021.1.2,Win32,60.06727535,,,,,,,,2,Ontime,h,1,1.9012,6,0,24,2,1,,,,,
,0.02,,,,,,,,,h.PNG,h,5b25d4db0ec82d0001d1fdde,2021-10-19_15h46.09.406,forced_choiceRT,2021.1.2,Win32,60.06727535,,,,,,,,2,Fast,h,1,1.5223,6,1,25,2,1,,,,,
,0.23,,,,,,,,,j.PNG,j,5b25d4db0ec82d0001d1fdde,2021-10-19_15h46.09.406,forced_choiceRT,2021.1.2,Win32,60.06727535,,,,,,,,2,Fast,j,1,1.8686,6,2,26,3,1,,,,,
,0.72,,,,,,,,,f.PNG,f,5b25d4db0ec82d0001d1fdde,2021-10-19_15h46.09.406,forced_choiceRT,2021.1.2,Win32,60.06727535,,,,,,,,2,Ontime,f,1,2.0392,6,3,27,0,1,,,,,
,1.86,,,,,,,,,j.PNG,j,5b25d4db0ec82d0001d1fdde,2021-10-19_15h46.09.406,forced_choiceRT,2021.1.2,Win32,60.06727535,,,,,,,,2,Slow,j,1,2.6384,7,0,28,3,1,,,,,
,0.7,,,,,,,,,h.PNG,h,5b25d4db0ec82d0001d1fdde,2021-10-19_15h46.09.406,forced_choiceRT,2021.1.2,Win32,60.06727535,,,,,,,,2,Ontime,h,1,1.9237,7,1,29,2,1,,,,,
,0.62,,,,,,,,,j.PNG,j,5b25d4db0ec82d0001d1fdde,2021-10-19_15h46.09.406,forced_choiceRT,2021.1.2,Win32,60.06727535,,,,,,,,2,Ontime,j,1,1.9431,7,2,30,3,1,,,,,
,0.77,,,,,,,,,f.PNG,f,5b25d4db0ec82d0001d1fdde,2021-10-19_15h46.09.406,forced_choiceRT,2021.1.2,Win32,60.06727535,,,,,,,,2,Ontime,j,0,2.0552,7,3,31,0,1,,,,,
,1.52,,,,,,,,,g.PNG,g,5b25d4db0ec82d0001d1fdde,2021-10-19_15h46.09.406,forced_choiceRT,2021.1.2,Win32,60.06727535,,,,,,,,2,Fast,h,0,0.3175,8,0,32,1,1,,,,,
,0.66,,,,,,,,,g.PNG,g,5b25d4db0ec82d0001d1fdde,2021-10-19_15h46.09.406,forced_choiceRT,2021.1.2,Win32,60.06727535,,,,,,,,2,Fast,j,0,0.241,8,1,33,1,1,,,,,
,0.89,,,,,,,,,f.PNG,f,5b25d4db0ec82d0001d1fdde,2021-10-19_15h46.09.406,forced_choiceRT,2021.1.2,Win32,60.06727535,,,,,,,,2,Fast,f,1,0.5426,8,2,34,0,1,,,,,
,0.67,,,,,,,,,f.PNG,f,5b25d4db0ec82d0001d1fdde,2021-10-19_15h46.09.406,forced_choiceRT,2021.1.2,Win32,60.06727535,,,,,,,,2,Fast,h,0,0.4885,8,3,35,0,1,,,,,
,0.51,,,,,,,,,j.PNG,j,5b25d4db0ec82d0001d1fdde,2021-10-19_15h46.09.406,forced_choiceRT,2021.1.2,Win32,60.06727535,,,,,,,,2,Fast,f,0,0.2519,9,0,36,3,1,,,,,
,1.66,,,,,,,,,j.PNG,j,5b25d4db0ec82d0001d1fdde,2021-10-19_15h46.09.406,forced_choiceRT,2021.1.2,Win32,60.06727535,,,,,,,,2,Fast,j,1,1.0856,9,1,37,3,1,,,,,
,0.36,,,,,,,,,h.PNG,h,5b25d4db0ec82d0001d1fdde,2021-10-19_15h46.09.406,forced_choiceRT,2021.1.2,Win32,60.06727535,,,,,,,,2,Fast,h,1,0.4855,9,2,38,2,1,,,,,
,0.9,,,,,,,,,j.PNG,j,5b25d4db0ec82d0001d1fdde,2021-10-19_15h46.09.406,forced_choiceRT,2021.1.2,Win32,60.06727535,,,,,,,,2,Fast,f,0,0.2223,9,3,39,3,1,,,,,
,,,,,,,,,,,,5b25d4db0ec82d0001d1fdde,2021-10-19_15h46.09.406,forced_choiceRT,2021.1.2,Win32,60.06727535,,,,,,,,,,,,,,,,,,1,0,1,0,1
,1.01,,,,,,,,,f.PNG,f,5b25d4db0ec82d0001d1fdde,2021-10-19_15h46.09.406,forced_choiceRT,2021.1.2,Win32,60.06727535,,,,,,,,3,Slow,f,1,3.3243,0,0,0,0,1,,,,,
,1.72,,,,,,,,,j.PNG,j,5b25d4db0ec82d0001d1fdde,2021-10-19_15h46.09.406,forced_choiceRT,2021.1.2,Win32,60.06727535,,,,,,,,3,Slow,j,1,2.2205,0,1,1,3,1,,,,,
,0.75,,,,,,,,,f.PNG,f,5b25d4db0ec82d0001d1fdde,2021-10-19_15h46.09.406,forced_choiceRT,2021.1.2,Win32,60.06727535,,,,,,,,3,Ontime,f,1,2.0316,0,2,2,0,1,,,,,
,1.78,,,,,,,,,g.PNG,g,5b25d4db0ec82d0001d1fdde,2021-10-19_15h46.09.406,forced_choiceRT,2021.1.2,Win32,60.06727535,,,,,,,,3,Slow,h,0,2.3045,0,3,3,1,1,,,,,
,0.8,,,,,,,,,j.PNG,j,5b25d4db0ec82d0001d1fdde,2021-10-19_15h46.09.406,forced_choiceRT,2021.1.2,Win32,60.06727535,,,,,,,,3,Ontime,j,1,1.9889,1,0,4,3,1,,,,,
,1.42,,,,,,,,,g.PNG,g,5b25d4db0ec82d0001d1fdde,2021-10-19_15h46.09.406,forced_choiceRT,2021.1.2,Win32,60.06727535,,,,,,,,3,Ontime,g,1,2.0183,1,1,5,1,1,,,,,
,0.17,,,,,,,,,g.PNG,g,5b25d4db0ec82d0001d1fdde,2021-10-19_15h46.09.406,forced_choiceRT,2021.1.2,Win32,60.06727535,,,,,,,,3,Ontime,g,1,1.9017,1,2,6,1,1,,,,,
,0.48,,,,,,,,,f.PNG,f,5b25d4db0ec82d0001d1fdde,2021-10-19_15h46.09.406,forced_choiceRT,2021.1.2,Win32,60.06727535,,,,,,,,3,Ontime,f,1,1.9188,1,3,7,0,1,,,,,
,0.7,,,,,,,,,g.PNG,g,5b25d4db0ec82d0001d1fdde,2021-10-19_15h46.09.406,forced_choiceRT,2021.1.2,Win32,60.06727535,,,,,,,,3,Ontime,g,1,2.0089,2,0,8,1,1,,,,,
,0.96,,,,,,,,,f.PNG,f,5b25d4db0ec82d0001d1fdde,2021-10-19_15h46.09.406,forced_choiceRT,2021.1.2,Win32,60.06727535,,,,,,,,3,Ontime,f,1,2.0298,2,1,9,0,1,,,,,
,0.59,,,,,,,,,j.PNG,j,5b25d4db0ec82d0001d1fdde,2021-10-19_15h46.09.406,forced_choiceRT,2021.1.2,Win32,60.06727535,,,,,,,,3,Slow,j,1,2.1266,2,2,10,3,1,,,,,
,1.56,,,,,,,,,f.PNG,f,5b25d4db0ec82d0001d1fdde,2021-10-19_15h46.09.406,forced_choiceRT,2021.1.2,Win32,60.06727535,,,,,,,,3,Fast,j,0,0.8242,2,3,11,0,1,,,,,
,0.49,,,,,,,,,j.PNG,j,5b25d4db0ec82d0001d1fdde,2021-10-19_15h46.09.406,forced_choiceRT,2021.1.2,Win32,60.06727535,,,,,,,,3,Fast,h,0,0.3249,3,0,12,3,1,,,,,
,1.19,,,,,,,,,j.PNG,j,5b25d4db0ec82d0001d1fdde,2021-10-19_15h46.09.406,forced_choiceRT,2021.1.2,Win32,60.06727535,,,,,,,,3,Fast,f,0,0.3356,3,1,13,3,1,,,,,
,1.92,,,,,,,,,h.PNG,h,5b25d4db0ec82d0001d1fdde,2021-10-19_15h46.09.406,forced_choiceRT,2021.1.2,Win32,60.06727535,,,,,,,,3,Fast,h,1,0.2898,3,2,14,2,1,,,,,
,1.86,,,,,,,,,g.PNG,g,5b25d4db0ec82d0001d1fdde,2021-10-19_15h46.09.406,forced_choiceRT,2021.1.2,Win32,60.06727535,,,,,,,,3,Fast,j,0,0.0482,3,3,15,1,1,,,,,
,0.89,,,,,,,,,h.PNG,h,5b25d4db0ec82d0001d1fdde,2021-10-19_15h46.09.406,forced_choiceRT,2021.1.2,Win32,60.06727535,,,,,,,,3,Fast,g,0,0.1241,4,0,16,2,1,,,,,
,1.66,,,,,,,,,j.PNG,j,5b25d4db0ec82d0001d1fdde,2021-10-19_15h46.09.406,forced_choiceRT,2021.1.2,Win32,60.06727535,,,,,,,,3,Fast,j,1,0.2661,4,1,17,3,1,,,,,
,1.63,,,,,,,,,j.PNG,j,5b25d4db0ec82d0001d1fdde,2021-10-19_15h46.09.406,forced_choiceRT,2021.1.2,Win32,60.06727535,,,,,,,,3,Slow,j,1,2.1788,4,2,18,3,1,,,,,
,1.24,,,,,,,,,f.PNG,f,5b25d4db0ec82d0001d1fdde,2021-10-19_15h46.09.406,forced_choiceRT,2021.1.2,Win32,60.06727535,,,,,,,,3,Fast,j,0,1.7483,4,3,19,0,1,,,,,
,1.91,,,,,,,,,j.PNG,j,5b25d4db0ec82d0001d1fdde,2021-10-19_15h46.09.406,forced_choiceRT,2021.1.2,Win32,60.06727535,,,,,,,,3,Slow,f,0,2.2842,5,0,20,3,1,,,,,
,0.54,,,,,,,,,g.PNG,g,5b25d4db0ec82d0001d1fdde,2021-10-19_15h46.09.406,forced_choiceRT,2021.1.2,Win32,60.06727535,,,,,,,,3,Fast,j,0,0.2881,5,1,21,1,1,,,,,
,1.78,,,,,,,,,f.PNG,f,5b25d4db0ec82d0001d1fdde,2021-10-19_15h46.09.406,forced_choiceRT,2021.1.2,Win32,60.06727535,,,,,,,,3,Fast,h,0,0.2919,5,2,22,0,1,,,,,
,0.87,,,,,,,,,h.PNG,h,5b25d4db0ec82d0001d1fdde,2021-10-19_15h46.09.406,forced_choiceRT,2021.1.2,Win32,60.06727535,,,,,,,,3,Fast,h,1,0.3204,5,3,23,2,1,,,,,
,1.98,,,,,,,,,g.PNG,g,5b25d4db0ec82d0001d1fdde,2021-10-19_15h46.09.406,forced_choiceRT,2021.1.2,Win32,60.06727535,,,,,,,,3,Fast,g,1,0.3197,6,0,24,1,1,,,,,
,1.55,,,,,,,,,f.PNG,f,5b25d4db0ec82d0001d1fdde,2021-10-19_15h46.09.406,forced_choiceRT,2021.1.2,Win32,60.06727535,,,,,,,,3,Ontime,f,1,2.052,6,1,25,0,1,,,,,
,0.35,,,,,,,,,h.PNG,h,5b25d4db0ec82d0001d1fdde,2021-10-19_15h46.09.406,forced_choiceRT,2021.1.2,Win32,60.06727535,,,,,,,,3,Fast,g,0,0.6161,6,2,26,2,1,,,,,
,0.94,,,,,,,,,h.PNG,h,5b25d4db0ec82d0001d1fdde,2021-10-19_15h46.09.406,forced_choiceRT,2021.1.2,Win32,60.06727535,,,,,,,,3,Fast,j,0,0.263,6,3,27,2,1,,,,,
,0.19,,,,,,,,,g.PNG,g,5b25d4db0ec82d0001d1fdde,2021-10-19_15h46.09.406,forced_choiceRT,2021.1.2,Win32,60.06727535,,,,,,,,3,Fast,h,0,0.3672,7,0,28,1,1,,,,,
,1.16,,,,,,,,,j.PNG,j,5b25d4db0ec82d0001d1fdde,2021-10-19_15h46.09.406,forced_choiceRT,2021.1.2,Win32,60.06727535,,,,,,,,3,Fast,h,0,0.2276,7,1,29,3,1,,,,,
,1.7,,,,,,,,,h.PNG,h,5b25d4db0ec82d0001d1fdde,2021-10-19_15h46.09.406,forced_choiceRT,2021.1.2,Win32,60.06727535,,,,,,,,3,Fast,h,1,0.4686,7,2,30,2,1,,,,,
,0.51,,,,,,,,,h.PNG,h,5b25d4db0ec82d0001d1fdde,2021-10-19_15h46.09.406,forced_choiceRT,2021.1.2,Win32,60.06727535,,,,,,,,3,Fast,h,1,0.3019,7,3,31,2,1,,,,,
,0.33,,,,,,,,,h.PNG,h,5b25d4db0ec82d0001d1fdde,2021-10-19_15h46.09.406,forced_choiceRT,2021.1.2,Win32,60.06727535,,,,,,,,3,Fast,h,1,0.3535,8,0,32,2,1,,,,,
,1.76,,,,,,,,,h.PNG,h,5b25d4db0ec82d0001d1fdde,2021-10-19_15h46.09.406,forced_choiceRT,2021.1.2,Win32,60.06727535,,,,,,,,3,Fast,f,0,0.2507,8,1,33,2,1,,,,,
,0.32,,,,,,,,,g.PNG,g,5b25d4db0ec82d0001d1fdde,2021-10-19_15h46.09.406,forced_choiceRT,2021.1.2,Win32,60.06727535,,,,,,,,3,Fast,g,1,1.3278,8,2,34,1,1,,,,,
,0.83,,,,,,,,,g.PNG,g,5b25d4db0ec82d0001d1fdde,2021-10-19_15h46.09.406,forced_choiceRT,2021.1.2,Win32,60.06727535,,,,,,,,3,Fast,g,1,0.4517,8,3,35,1,1,,,,,
,0.8,,,,,,,,,f.PNG,f,5b25d4db0ec82d0001d1fdde,2021-10-19_15h46.09.406,forced_choiceRT,2021.1.2,Win32,60.06727535,,,,,,,,3,Fast,j,0,0.9219,9,0,36,0,1,,,,,
,0.24,,,,,,,,,h.PNG,h,5b25d4db0ec82d0001d1fdde,2021-10-19_15h46.09.406,forced_choiceRT,2021.1.2,Win32,60.06727535,,,,,,,,3,Fast,f,0,0.1624,9,1,37,2,1,,,,,
,1.36,,,,,,,,,j.PNG,j,5b25d4db0ec82d0001d1fdde,2021-10-19_15h46.09.406,forced_choiceRT,2021.1.2,Win32,60.06727535,,,,,,,,3,Fast,h,0,0.0341,9,2,38,3,1,,,,,
,1.43,,,,,,,,,f.PNG,f,5b25d4db0ec82d0001d1fdde,2021-10-19_15h46.09.406,forced_choiceRT,2021.1.2,Win32,60.06727535,,,,,,,,3,Fast,j,0,0.2859,9,3,39,0,1,,,,,
,,,,,,,,,,,,5b25d4db0ec82d0001d1fdde,2021-10-19_15h46.09.406,forced_choiceRT,2021.1.2,Win32,60.06727535,,,,,,,,,,,,,,,,,,2,0,2,0,1
,0.86,,,,,,,,,j.PNG,j,5b25d4db0ec82d0001d1fdde,2021-10-19_15h46.09.406,forced_choiceRT,2021.1.2,Win32,60.06727535,,,,,,,,4,Ontime,j,1,1.9003,0,0,0,3,1,,,,,
,0.44,,,,,,,,,h.PNG,h,5b25d4db0ec82d0001d1fdde,2021-10-19_15h46.09.406,forced_choiceRT,2021.1.2,Win32,60.06727535,,,,,,,,4,Fast,j,0,0.3854,0,1,1,2,1,,,,,
,0.08,,,,,,,,,f.PNG,f,5b25d4db0ec82d0001d1fdde,2021-10-19_15h46.09.406,forced_choiceRT,2021.1.2,Win32,60.06727535,,,,,,,,4,Fast,f,1,1.736,0,2,2,0,1,,,,,
,0.05,,,,,,,,,g.PNG,g,5b25d4db0ec82d0001d1fdde,2021-10-19_15h46.09.406,forced_choiceRT,2021.1.2,Win32,60.06727535,,,,,,,,4,Fast,g,1,0.4436,0,3,3,1,1,,,,,
,1.95,,,,,,,,,g.PNG,g,5b25d4db0ec82d0001d1fdde,2021-10-19_15h46.09.406,forced_choiceRT,2021.1.2,Win32,60.06727535,,,,,,,,4,Fast,f,0,0.2695,1,0,4,1,1,,,,,
,0.12,,,,,,,,,j.PNG,j,5b25d4db0ec82d0001d1fdde,2021-10-19_15h46.09.406,forced_choiceRT,2021.1.2,Win32,60.06727535,,,,,,,,4,Fast,h,0,1.4018,1,1,5,3,1,,,,,
,1.21,,,,,,,,,f.PNG,f,5b25d4db0ec82d0001d1fdde,2021-10-19_15h46.09.406,forced_choiceRT,2021.1.2,Win32,60.06727535,,,,,,,,4,Fast,f,1,1.8837,1,2,6,0,1,,,,,
,0.86,,,,,,,,,f.PNG,f,5b25d4db0ec82d0001d1fdde,2021-10-19_15h46.09.406,forced_choiceRT,2021.1.2,Win32,60.06727535,,,,,,,,4,Ontime,f,1,2.069,1,3,7,0,1,,,,,
,0.35,,,,,,,,,g.PNG,g,5b25d4db0ec82d0001d1fdde,2021-10-19_15h46.09.406,forced_choiceRT,2021.1.2,Win32,60.06727535,,,,,,,,4,Ontime,g,1,2.0149,2,0,8,1,1,,,,,
,1.85,,,,,,,,,j.PNG,j,5b25d4db0ec82d0001d1fdde,2021-10-19_15h46.09.406,forced_choiceRT,2021.1.2,Win32,60.06727535,,,,,,,,4,Slow,g,0,2.2672,2,1,9,3,1,,,,,
,1.03,,,,,,,,,g.PNG,g,5b25d4db0ec82d0001d1fdde,2021-10-19_15h46.09.406,forced_choiceRT,2021.1.2,Win32,60.06727535,,,,,,,,4,Fast,j,0,0.2328,2,2,10,1,1,,,,,
,1.4,,,,,,,,,h.PNG,h,5b25d4db0ec82d0001d1fdde,2021-10-19_15h46.09.406,forced_choiceRT,2021.1.2,Win32,60.06727535,,,,,,,,4,Fast,j,0,0.5898,2,3,11,2,1,,,,,
,1.04,,,,,,,,,h.PNG,h,5b25d4db0ec82d0001d1fdde,2021-10-19_15h46.09.406,forced_choiceRT,2021.1.2,Win32,60.06727535,,,,,,,,4,Fast,h,1,0.59,3,0,12,2,1,,,,,
,1.97,,,,,,,,,h.PNG,h,5b25d4db0ec82d0001d1fdde,2021-10-19_15h46.09.406,forced_choiceRT,2021.1.2,Win32,60.06727535,,,,,,,,4,Fast,f,0,0.2786,3,1,13,2,1,,,,,
,0.44,,,,,,,,,j.PNG,j,5b25d4db0ec82d0001d1fdde,2021-10-19_15h46.09.406,forced_choiceRT,2021.1.2,Win32,60.06727535,,,,,,,,4,Fast,g,0,0.0167,3,2,14,3,1,,,,,
,0.2,,,,,,,,,h.PNG,h,5b25d4db0ec82d0001d1fdde,2021-10-19_15h46.09.406,forced_choiceRT,2021.1.2,Win32,60.06727535,,,,,,,,4,Fast,h,1,0.3172,3,3,15,2,1,,,,,
,1.34,,,,,,,,,h.PNG,h,5b25d4db0ec82d0001d1fdde,2021-10-19_15h46.09.406,forced_choiceRT,2021.1.2,Win32,60.06727535,,,,,,,,4,Fast,j,0,0.5922,4,0,16,2,1,,,,,
,0.24,,,,,,,,,h.PNG,h,5b25d4db0ec82d0001d1fdde,2021-10-19_15h46.09.406,forced_choiceRT,2021.1.2,Win32,60.06727535,,,,,,,,4,Fast,h,1,0.2213,4,1,17,2,1,,,,,
,0.23,,,,,,,,,g.PNG,g,5b25d4db0ec82d0001d1fdde,2021-10-19_15h46.09.406,forced_choiceRT,2021.1.2,Win32,60.06727535,,,,,,,,4,Fast,j,0,0.5141,4,2,18,1,1,,,,,
,0.24,,,,,,,,,j.PNG,j,5b25d4db0ec82d0001d1fdde,2021-10-19_15h46.09.406,forced_choiceRT,2021.1.2,Win32,60.06727535,,,,,,,,4,Fast,h,0,0.3205,4,3,19,3,1,,,,,
,1.64,,,,,,,,,f.PNG,f,5b25d4db0ec82d0001d1fdde,2021-10-19_15h46.09.406,forced_choiceRT,2021.1.2,Win32,60.06727535,,,,,,,,4,Fast,h,0,0.8621,5,0,20,0,1,,,,,
,1.45,,,,,,,,,f.PNG,f,5b25d4db0ec82d0001d1fdde,2021-10-19_15h46.09.406,forced_choiceRT,2021.1.2,Win32,60.06727535,,,,,,,,4,Fast,h,0,0.4758,5,1,21,0,1,,,,,
,1.44,,,,,,,,,g.PNG,g,5b25d4db0ec82d0001d1fdde,2021-10-19_15h46.09.406,forced_choiceRT,2021.1.2,Win32,60.06727535,,,,,,,,4,Fast,j,0,1.7883,5,2,22,1,1,,,,,
,0.15,,,,,,,,,h.PNG,h,5b25d4db0ec82d0001d1fdde,2021-10-19_15h46.09.406,forced_choiceRT,2021.1.2,Win32,60.06727535,,,,,,,,4,Fast,h,1,1.585,5,3,23,2,1,,,,,
,0.66,,,,,,,,,f.PNG,f,5b25d4db0ec82d0001d1fdde,2021-10-19_15h46.09.406,forced_choiceRT,2021.1.2,Win32,60.06727535,,,,,,,,4,Fast,h,0,1.801,6,0,24,0,1,,,,,
,1.33,,,,,,,,,g.PNG,g,5b25d4db0ec82d0001d1fdde,2021-10-19_15h46.09.406,forced_choiceRT,2021.1.2,Win32,60.06727535,,,,,,,,4,Ontime,h,0,1.9332,6,1,25,1,1,,,,,
,1.86,,,,,,,,,h.PNG,h,5b25d4db0ec82d0001d1fdde,2021-10-19_15h46.09.406,forced_choiceRT,2021.1.2,Win32,60.06727535,,,,,,,,4,Fast,f,0,0.0008,6,2,26,2,1,,,,,
,0.28,,,,,,,,,g.PNG,g,5b25d4db0ec82d0001d1fdde,2021-10-19_15h46.09.406,forced_choiceRT,2021.1.2,Win32,60.06727535,,,,,,,,4,Fast,g,1,1.784,6,3,27,1,1,,,,,
,0.37,,,,,,,,,f.PNG,f,5b25d4db0ec82d0001d1fdde,2021-10-19_15h46.09.406,forced_choiceRT,2021.1.2,Win32,60.06727535,,,,,,,,4,Fast,h,0,0.2972,7,0,28,0,1,,,,,
,1.85,,,,,,,,,h.PNG,h,5b25d4db0ec82d0001d1fdde,2021-10-19_15h46.09.406,forced_choiceRT,2021.1.2,Win32,60.06727535,,,,,,,,4,Fast,h,1,0.3137,7,1,29,2,1,,,,,
,0.84,,,,,,,,,j.PNG,j,5b25d4db0ec82d0001d1fdde,2021-10-19_15h46.09.406,forced_choiceRT,2021.1.2,Win32,60.06727535,,,,,,,,4,Fast,g,0,0.4103,7,2,30,3,1,,,,,
,1.03,,,,,,,,,g.PNG,g,5b25d4db0ec82d0001d1fdde,2021-10-19_15h46.09.406,forced_choiceRT,2021.1.2,Win32,60.06727535,,,,,,,,4,Fast,j,0,0.2646,7,3,31,1,1,,,,,
,0.67,,,,,,,,,j.PNG,j,5b25d4db0ec82d0001d1fdde,2021-10-19_15h46.09.406,forced_choiceRT,2021.1.2,Win32,60.06727535,,,,,,,,4,Fast,h,0,0.3602,8,0,32,3,1,,,,,
,0.65,,,,,,,,,j.PNG,j,5b25d4db0ec82d0001d1fdde,2021-10-19_15h46.09.406,forced_choiceRT,2021.1.2,Win32,60.06727535,,,,,,,,4,Fast,j,1,0.0707,8,1,33,3,1,,,,,
,0.98,,,,,,,,,f.PNG,f,5b25d4db0ec82d0001d1fdde,2021-10-19_15h46.09.406,forced_choiceRT,2021.1.2,Win32,60.06727535,,,,,,,,4,Fast,j,0,0.1335,8,2,34,0,1,,,,,
,0.1,,,,,,,,,f.PNG,f,5b25d4db0ec82d0001d1fdde,2021-10-19_15h46.09.406,forced_choiceRT,2021.1.2,Win32,60.06727535,,,,,,,,4,Fast,h,0,0.26,8,3,35,0,1,,,,,
,1.7,,,,,,,,,f.PNG,f,5b25d4db0ec82d0001d1fdde,2021-10-19_15h46.09.406,forced_choiceRT,2021.1.2,Win32,60.06727535,,,,,,,,4,Fast,j,0,0.4607,9,0,36,0,1,,,,,
,0.8,,,,,,,,,g.PNG,g,5b25d4db0ec82d0001d1fdde,2021-10-19_15h46.09.406,forced_choiceRT,2021.1.2,Win32,60.06727535,,,,,,,,4,Fast,f,0,1.6877,9,1,37,1,1,,,,,
,0.7,,,,,,,,,j.PNG,j,5b25d4db0ec82d0001d1fdde,2021-10-19_15h46.09.406,forced_choiceRT,2021.1.2,Win32,60.06727535,,,,,,,,4,Ontime,j,1,1.9203,9,2,38,3,1,,,,,
,0.59,,,,,,,,,j.PNG,j,5b25d4db0ec82d0001d1fdde,2021-10-19_15h46.09.406,forced_choiceRT,2021.1.2,Win32,60.06727535,,,,,,,,4,Fast,h,0,0.23,9,3,39,3,1,,,,,
,,,,,,,,,,,,5b25d4db0ec82d0001d1fdde,2021-10-19_15h46.09.406,forced_choiceRT,2021.1.2,Win32,60.06727535,,,,,,,,,,,,,,,,,,3,0,3,0,1
,0.47,,,,,,,,,j.PNG,j,5b25d4db0ec82d0001d1fdde,2021-10-19_15h46.09.406,forced_choiceRT,2021.1.2,Win32,60.06727535,,,,,,,,5,Fast,h,0,0.7328,0,0,0,3,1,,,,,
,1.91,,,,,,,,,j.PNG,j,5b25d4db0ec82d0001d1fdde,2021-10-19_15h46.09.406,forced_choiceRT,2021.1.2,Win32,60.06727535,,,,,,,,5,Fast,j,1,0.034,0,1,1,3,1,,,,,
,1.77,,,,,,,,,h.PNG,h,5b25d4db0ec82d0001d1fdde,2021-10-19_15h46.09.406,forced_choiceRT,2021.1.2,Win32,60.06727535,,,,,,,,5,Slow,f,0,2.1844,0,2,2,2,1,,,,,
,0,,,,,,,,,h.PNG,h,5b25d4db0ec82d0001d1fdde,2021-10-19_15h46.09.406,forced_choiceRT,2021.1.2,Win32,60.06727535,,,,,,,,5,Fast,h,1,1.4528,0,3,3,2,1,,,,,
,0.84,,,,,,,,,g.PNG,g,5b25d4db0ec82d0001d1fdde,2021-10-19_15h46.09.406,forced_choiceRT,2021.1.2,Win32,60.06727535,,,,,,,,5,Fast,g,1,1.4523,1,0,4,1,1,,,,,
,0.01,,,,,,,,,f.PNG,f,5b25d4db0ec82d0001d1fdde,2021-10-19_15h46.09.406,forced_choiceRT,2021.1.2,Win32,60.06727535,,,,,,,,5,Fast,h,0,0.4299,1,1,5,0,1,,,,,
,0.86,,,,,,,,,j.PNG,j,5b25d4db0ec82d0001d1fdde,2021-10-19_15h46.09.406,forced_choiceRT,2021.1.2,Win32,60.06727535,,,,,,,,5,Fast,j,1,0.2187,1,2,6,3,1,,,,,
,0.94,,,,,,,,,j.PNG,j,5b25d4db0ec82d0001d1fdde,2021-10-19_15h46.09.406,forced_choiceRT,2021.1.2,Win32,60.06727535,,,,,,,,5,Fast,j,1,0.6208,1,3,7,3,1,,,,,
,1.05,,,,,,,,,h.PNG,h,5b25d4db0ec82d0001d1fdde,2021-10-19_15h46.09.406,forced_choiceRT,2021.1.2,Win32,60.06727535,,,,,,,,5,Fast,j,0,0.5046,2,0,8,2,1,,,,,
,0.69,,,,,,,,,g.PNG,g,5b25d4db0ec82d0001d1fdde,2021-10-19_15h46.09.406,forced_choiceRT,2021.1.2,Win32,60.06727535,,,,,,,,5,Fast,h,0,0.6555,2,1,9,1,1,,,,,
,0.53,,,,,,,,,f.PNG,f,5b25d4db0ec82d0001d1fdde,2021-10-19_15h46.09.406,forced_choiceRT,2021.1.2,Win32,60.06727535,,,,,,,,5,Fast,j,0,0.8013,2,2,10,0,1,,,,,
,0.31,,,,,,,,,h.PNG,h,5b25d4db0ec82d0001d1fdde,2021-10-19_15h46.09.406,forced_choiceRT,2021.1.2,Win32,60.06727535,,,,,,,,5,Fast,h,1,0.3463,2,3,11,2,1,,,,,
,1.39,,,,,,,,,f.PNG,f,5b25d4db0ec82d0001d1fdde,2021-10-19_15h46.09.406,forced_choiceRT,2021.1.2,Win32,60.06727535,,,,,,,,5,Fast,h,0,0.8337,3,0,12,0,1,,,,,
,0.23,,,,,,,,,j.PNG,j,5b25d4db0ec82d0001d1fdde,2021-10-19_15h46.09.406,forced_choiceRT,2021.1.2,Win32,60.06727535,,,,,,,,5,Fast,h,0,0.4641,3,1,13,3,1,,,,,
,0.14,,,,,,,,,g.PNG,g,5b25d4db0ec82d0001d1fdde,2021-10-19_15h46.09.406,forced_choiceRT,2021.1.2,Win32,60.06727535,,,,,,,,5,Slow,j,0,4.5703,3,2,14,1,1,,,,,
,0.82,,,,,,,,,j.PNG,j,5b25d4db0ec82d0001d1fdde,2021-10-19_15h46.09.406,forced_choiceRT,2021.1.2,Win32,60.06727535,,,,,,,,5,Fast,h,0,0.6377,3,3,15,3,1,,,,,
,0.69,,,,,,,,,g.PNG,g,5b25d4db0ec82d0001d1fdde,2021-10-19_15h46.09.406,forced_choiceRT,2021.1.2,Win32,60.06727535,,,,,,,,5,Fast,g,1,0.1993,4,0,16,1,1,,,,,
,1.19,,,,,,,,,f.PNG,f,5b25d4db0ec82d0001d1fdde,2021-10-19_15h46.09.406,forced_choiceRT,2021.1.2,Win32,60.06727535,,,,,,,,5,Fast,h,0,0.1224,4,1,17,0,1,,,,,
,1.71,,,,,,,,,g.PNG,g,5b25d4db0ec82d0001d1fdde,2021-10-19_15h46.09.406,forced_choiceRT,2021.1.2,Win32,60.06727535,,,,,,,,5,Fast,j,0,0.197,4,2,18,1,1,,,,,
,1.43,,,,,,,,,g.PNG,g,5b25d4db0ec82d0001d1fdde,2021-10-19_15h46.09.406,forced_choiceRT,2021.1.2,Win32,60.06727535,,,,,,,,5,Fast,h,0,0.3171,4,3,19,1,1,,,,,
,1.37,,,,,,,,,f.PNG,f,5b25d4db0ec82d0001d1fdde,2021-10-19_15h46.09.406,forced_choiceRT,2021.1.2,Win32,60.06727535,,,,,,,,5,Fast,j,0,0.2832,5,0,20,0,1,,,,,
,1.42,,,,,,,,,h.PNG,h,5b25d4db0ec82d0001d1fdde,2021-10-19_15h46.09.406,forced_choiceRT,2021.1.2,Win32,60.06727535,,,,,,,,5,Fast,h,1,0.2889,5,1,21,2,1,,,,,
,1.36,,,,,,,,,h.PNG,h,5b25d4db0ec82d0001d1fdde,2021-10-19_15h46.09.406,forced_choiceRT,2021.1.2,Win32,60.06727535,,,,,,,,5,Fast,h,1,0.6337,5,2,22,2,1,,,,,
,1.36,,,,,,,,,h.PNG,h,5b25d4db0ec82d0001d1fdde,2021-10-19_15h46.09.406,forced_choiceRT,2021.1.2,Win32,60.06727535,,,,,,,,5,Fast,h,1,0.6353,5,3,23,2,1,,,,,
,0.57,,,,,,,,,j.PNG,j,5b25d4db0ec82d0001d1fdde,2021-10-19_15h46.09.406,forced_choiceRT,2021.1.2,Win32,60.06727535,,,,,,,,5,Ontime,j,1,2.0536,6,0,24,3,1,,,,,
,0.67,,,,,,,,,j.PNG,j,5b25d4db0ec82d0001d1fdde,2021-10-19_15h46.09.406,forced_choiceRT,2021.1.2,Win32,60.06727535,,,,,,,,5,Fast,h,0,1.734,6,1,25,3,1,,,,,
,1.18,,,,,,,,,h.PNG,h,5b25d4db0ec82d0001d1fdde,2021-10-19_15h46.09.406,forced_choiceRT,2021.1.2,Win32,60.06727535,,,,,,,,5,Ontime,h,1,1.9172,6,2,26,2,1,,,,,
,0.59,,,,,,,,,f.PNG,f,5b25d4db0ec82d0001d1fdde,2021-10-19_15h46.09.406,forced_choiceRT,2021.1.2,Win32,60.06727535,,,,,,,,5,Fast,g,0,0.6495,6,3,27,0,1,,,,,
,0.05,,,,,,,,,g.PNG,g,5b25d4db0ec82d0001d1fdde,2021-10-19_15h46.09.406,forced_choiceRT,2021.1.2,Win32,60.06727535,,,,,,,,5,Fast,h,0,0.1672,7,0,28,1,1,,,,,
,1.3,,,,,,,,,g.PNG,g,5b25d4db0ec82d0001d1fdde,2021-10-19_15h46.09.406,forced_choiceRT,2021.1.2,Win32,60.06727535,,,,,,,,5,Fast,j,0,0.2696,7,1,29,1,1,,,,,
,0.03,,,,,,,,,g.PNG,g,5b25d4db0ec82d0001d1fdde,2021-10-19_15h46.09.406,forced_choiceRT,2021.1.2,Win32,60.06727535,,,,,,,,5,Fast,h,0,0.0501,7,2,30,1,1,,,,,
,0.47,,,,,,,,,h.PNG,h,5b25d4db0ec82d0001d1fdde,2021-10-19_15h46.09.406,forced_choiceRT,2021.1.2,Win32,60.06727535,,,,,,,,5,Fast,j,0,0.9531,7,3,31,2,1,,,,,
,1.02,,,,,,,,,f.PNG,f,5b25d4db0ec82d0001d1fdde,2021-10-19_15h46.09.406,forced_choiceRT,2021.1.2,Win32,60.06727535,,,,,,,,5,Fast,g,0,0.4511,8,0,32,0,1,,,,,
,0.12,,,,,,,,,j.PNG,j,5b25d4db0ec82d0001d1fdde,2021-10-19_15h46.09.406,forced_choiceRT,2021.1.2,Win32,60.06727535,,,,,,,,5,Fast,j,1,0.3508,8,1,33,3,1,,,,,
,0.23,,,,,,,,,f.PNG,f,5b25d4db0ec82d0001d1fdde,2021-10-19_15h46.09.406,forced_choiceRT,2021.1.2,Win32,60.06727535,,,,,,,,5,Fast,h,0,0.0003,8,2,34,0,1,,,,,
,1.2,,,,,,,,,f.PNG,f,5b25d4db0ec82d0001d1fdde,2021-10-19_15h46.09.406,forced_choiceRT,2021.1.2,Win32,60.06727535,,,,,,,,5,Fast,j,0,0.5851,8,3,35,0,1,,,,,
,1.66,,,,,,,,,g.PNG,g,5b25d4db0ec82d0001d1fdde,2021-10-19_15h46.09.406,forced_choiceRT,2021.1.2,Win32,60.06727535,,,,,,,,5,Fast,j,0,0.1887,9,0,36,1,1,,,,,
,0.09,,,,,,,,,j.PNG,j,5b25d4db0ec82d0001d1fdde,2021-10-19_15h46.09.406,forced_choiceRT,2021.1.2,Win32,60.06727535,,,,,,,,5,Fast,h,0,0.5256,9,1,37,3,1,,,,,
,1.02,,,,,,,,,f.PNG,f,5b25d4db0ec82d0001d1fdde,2021-10-19_15h46.09.406,forced_choiceRT,2021.1.2,Win32,60.06727535,,,,,,,,5,Fast,h,0,0.619,9,2,38,0,1,,,,,
,0.99,,,,,,,,,h.PNG,h,5b25d4db0ec82d0001d1fdde,2021-10-19_15h46.09.406,forced_choiceRT,2021.1.2,Win32,60.06727535,,,,,,,,5,Fast,h,1,1.8518,9,3,39,2,1,,,,,
,,,,,,,,,,,,5b25d4db0ec82d0001d1fdde,2021-10-19_15h46.09.406,forced_choiceRT,2021.1.2,Win32,60.06727535,,,,,,,,,,,,,,,,,,4,0,4,0,1
,0.55,,,,,,,,,h.PNG,h,5b25d4db0ec82d0001d1fdde,2021-10-19_15h46.09.406,forced_choiceRT,2021.1.2,Win32,60.06727535,,,,,,,,6,Ontime,j,0,1.9509,0,0,0,2,1,,,,,
,1.54,,,,,,,,,j.PNG,j,5b25d4db0ec82d0001d1fdde,2021-10-19_15h46.09.406,forced_choiceRT,2021.1.2,Win32,60.06727535,,,,,,,,6,Slow,j,1,2.1943,0,1,1,3,1,,,,,
,1.16,,,,,,,,,g.PNG,g,5b25d4db0ec82d0001d1fdde,2021-10-19_15h46.09.406,forced_choiceRT,2021.1.2,Win32,60.06727535,,,,,,,,6,Fast,h,0,1.8581,0,2,2,1,1,,,,,
,0.52,,,,,,,,,h.PNG,h,5b25d4db0ec82d0001d1fdde,2021-10-19_15h46.09.406,forced_choiceRT,2021.1.2,Win32,60.06727535,,,,,,,,6,Fast,h,1,0.4853,0,3,3,2,1,,,,,
,1.44,,,,,,,,,h.PNG,h,5b25d4db0ec82d0001d1fdde,2021-10-19_15h46.09.406,forced_choiceRT,2021.1.2,Win32,60.06727535,,,,,,,,6,Fast,j,0,0.3004,1,0,4,2,1,,,,,
,1.7,,,,,,,,,f.PNG,f,5b25d4db0ec82d0001d1fdde,2021-10-19_15h46.09.406,forced_choiceRT,2021.1.2,Win32,60.06727535,,,,,,,,6,Fast,h,0,0.4377,1,1,5,0,1,,,,,
,0.65,,,,,,,,,h.PNG,h,5b25d4db0ec82d0001d1fdde,2021-10-19_15h46.09.406,forced_choiceRT,2021.1.2,Win32,60.06727535,,,,,,,,6,Fast,g,0,0.2644,1,2,6,2,1,,,,,
,0.26,,,,,,,,,j.PNG,j,5b25d4db0ec82d0001d1fdde,2021-10-19_15h46.09.406,forced_choiceRT,2021.1.2,Win32,60.06727535,,,,,,,,6,Fast,j,1,0.0339,1,3,7,3,1,,,,,
,0.79,,,,,,,,,f.PNG,f,5b25d4db0ec82d0001d1fdde,2021-10-19_15h46.09.406,forced_choiceRT,2021.1.2,Win32,60.06727535,,,,,,,,6,Fast,h,0,0.0677,2,0,8,0,1,,,,,
,0.79,,,,,,,,,g.PNG,g,5b25d4db0ec82d0001d1fdde,2021-10-19_15h46.09.406,forced_choiceRT,2021.1.2,Win32,60.06727535,,,,,,,,6,Fast,j,0,0.3201,2,1,9,1,1,,,,,
,0.21,,,,,,,,,g.PNG,g,5b25d4db0ec82d0001d1fdde,2021-10-19_15h46.09.406,forced_choiceRT,2021.1.2,Win32,60.06727535,,,,,,,,6,Fast,h,0,0.2734,2,2,10,1,1,,,,,
,0.05,,,,,,,,,j.PNG,j,5b25d4db0ec82d0001d1fdde,2021-10-19_15h46.09.406,forced_choiceRT,2021.1.2,Win32,60.06727535,,,,,,,,6,Fast,h,0,0.4337,2,3,11,3,1,,,,,
,0.61,,,,,,,,,j.PNG,j,5b25d4db0ec82d0001d1fdde,2021-10-19_15h46.09.406,forced_choiceRT,2021.1.2,Win32,60.06727535,,,,,,,,6,Ontime,j,1,2,3,0,12,3,1,,,,,
,0.43,,,,,,,,,j.PNG,j,5b25d4db0ec82d0001d1fdde,2021-10-19_15h46.09.406,forced_choiceRT,2021.1.2,Win32,60.06727535,,,,,,,,6,Ontime,j,1,1.9377,3,1,13,3,1,,,,,
,0.22,,,,,,,,,f.PNG,f,5b25d4db0ec82d0001d1fdde,2021-10-19_15h46.09.406,forced_choiceRT,2021.1.2,Win32,60.06727535,,,,,,,,6,Ontime,f,1,2.0351,3,2,14,0,1,,,,,
,1.23,,,,,,,,,f.PNG,f,5b25d4db0ec82d0001d1fdde,2021-10-19_15h46.09.406,forced_choiceRT,2021.1.2,Win32,60.06727535,,,,,,,,6,Ontime,f,1,1.9262,3,3,15,0,1,,,,,
,0.7,,,,,,,,,f.PNG,f,5b25d4db0ec82d0001d1fdde,2021-10-19_15h46.09.406,forced_choiceRT,2021.1.2,Win32,60.06727535,,,,,,,,6,Fast,j,0,0.2206,4,0,16,0,1,,,,,
,1.97,,,,,,,,,g.PNG,g,5b25d4db0ec82d0001d1fdde,2021-10-19_15h46.09.406,forced_choiceRT,2021.1.2,Win32,60.06727535,,,,,,,,6,Fast,h,0,0.2309,4,1,17,1,1,,,,,
,1.25,,,,,,,,,g.PNG,g,5b25d4db0ec82d0001d1fdde,2021-10-19_15h46.09.406,forced_choiceRT,2021.1.2,Win32,60.06727535,,,,,,,,6,Fast,h,0,0.0023,4,2,18,1,1,,,,,
,1.89,,,,,,,,,g.PNG,g,5b25d4db0ec82d0001d1fdde,2021-10-19_15h46.09.406,forced_choiceRT,2021.1.2,Win32,60.06727535,,,,,,,,6,Fast,j,0,0.0669,4,3,19,1,1,,,,,
,1.9,,,,,,,,,g.PNG,g,5b25d4db0ec82d0001d1fdde,2021-10-19_15h46.09.406,forced_choiceRT,2021.1.2,Win32,60.06727535,,,,,,,,6,Fast,g,1,0.2004,5,0,20,1,1,,,,,
,1.73,,,,,,,,,j.PNG,j,5b25d4db0ec82d0001d1fdde,2021-10-19_15h46.09.406,forced_choiceRT,2021.1.2,Win32,60.06727535,,,,,,,,6,Fast,j,1,1.1321,5,1,21,3,1,,,,,
,1.69,,,,,,,,,h.PNG,h,5b25d4db0ec82d0001d1fdde,2021-10-19_15h46.09.406,forced_choiceRT,2021.1.2,Win32,60.06727535,,,,,,,,6,Fast,h,1,0.4169,5,2,22,2,1,,,,,
,1.05,,,,,,,,,h.PNG,h,5b25d4db0ec82d0001d1fdde,2021-10-19_15h46.09.406,forced_choiceRT,2021.1.2,Win32,60.06727535,,,,,,,,6,Fast,h,1,0.6612,5,3,23,2,1,,,,,
,0.26,,,,,,,,,f.PNG,f,5b25d4db0ec82d0001d1fdde,2021-10-19_15h46.09.406,forced_choiceRT,2021.1.2,Win32,60.06727535,,,,,,,,6,Fast,h,0,0.6343,6,0,24,0,1,,,,,
,0.15,,,,,,,,,j.PNG,j,5b25d4db0ec82d0001d1fdde,2021-10-19_15h46.09.406,forced_choiceRT,2021.1.2,Win32,60.06727535,,,,,,,,6,Ontime,j,1,1.9948,6,1,25,3,1,,,,,
,1.16,,,,,,,,,g.PNG,g,5b25d4db0ec82d0001d1fdde,2021-10-19_15h46.09.406,forced_choiceRT,2021.1.2,Win32,60.06727535,,,,,,,,6,Fast,g,1,0.0837,6,2,26,1,1,,,,,
,1.96,,,,,,,,,j.PNG,j,5b25d4db0ec82d0001d1fdde,2021-10-19_15h46.09.406,forced_choiceRT,2021.1.2,Win32,60.06727535,,,,,,,,6,Fast,h,0,0.2918,6,3,27,3,1,,,,,
,0.45,,,,,,,,,f.PNG,f,5b25d4db0ec82d0001d1fdde,2021-10-19_15h46.09.406,forced_choiceRT,2021.1.2,Win32,60.06727535,,,,,,,,6,Fast,h,0,0.2334,7,0,28,0,1,,,,,
,0.06,,,,,,,,,h.PNG,h,5b25d4db0ec82d0001d1fdde,2021-10-19_15h46.09.406,forced_choiceRT,2021.1.2,Win32,60.06727535,,,,,,,,6,Fast,j,0,0.6533,7,1,29,2,1,,,,,
,1,,,,,,,,,g.PNG,g,5b25d4db0ec82d0001d1fdde,2021-10-19_15h46.09.406,forced_choiceRT,2021.1.2,Win32,60.06727535,,,,,,,,6,Fast,j,0,0.4003,7,2,30,1,1,,,,,
,1.48,,,,,,,,,h.PNG,h,5b25d4db0ec82d0001d1fdde,2021-10-19_15h46.09.406,forced_choiceRT,2021.1.2,Win32,60.06727535,,,,,,,,6,Fast,h,1,1.8516,7,3,31,2,1,,,,,
,0.41,,,,,,,,,h.PNG,h,5b25d4db0ec82d0001d1fdde,2021-10-19_15h46.09.406,forced_choiceRT,2021.1.2,Win32,60.06727535,,,,,,,,6,Fast,h,1,0.4577,8,0,32,2,1,,,,,
,0.91,,,,,,,,,j.PNG,j,5b25d4db0ec82d0001d1fdde,2021-10-19_15h46.09.406,forced_choiceRT,2021.1.2,Win32,60.06727535,,,,,,,,6,Fast,h,0,1.0676,8,1,33,3,1,,,,,
,1.2,,,,,,,,,f.PNG,f,5b25d4db0ec82d0001d1fdde,2021-10-19_15h46.09.406,forced_choiceRT,2021.1.2,Win32,60.06727535,,,,,,,,6,Ontime,f,1,2.056,8,2,34,0,1,,,,,
,1.42,,,,,,,,,h.PNG,h,5b25d4db0ec82d0001d1fdde,2021-10-19_15h46.09.406,forced_choiceRT,2021.1.2,Win32,60.06727535,,,,,,,,6,Ontime,h,1,2.0929,8,3,35,2,1,,,,,
,1.08,,,,,,,,,g.PNG,g,5b25d4db0ec82d0001d1fdde,2021-10-19_15h46.09.406,forced_choiceRT,2021.1.2,Win32,60.06727535,,,,,,,,6,Fast,h,0,1.7838,9,0,36,1,1,,,,,
,0.68,,,,,,,,,f.PNG,f,5b25d4db0ec82d0001d1fdde,2021-10-19_15h46.09.406,forced_choiceRT,2021.1.2,Win32,60.06727535,,,,,,,,6,Ontime,f,1,2.0341,9,1,37,0,1,,,,,
,0.94,,,,,,,,,j.PNG,j,5b25d4db0ec82d0001d1fdde,2021-10-19_15h46.09.406,forced_choiceRT,2021.1.2,Win32,60.06727535,,,,,,,,6,Fast,j,1,1.6658,9,2,38,3,1,,,,,
,1.48,,,,,,,,,f.PNG,f,5b25d4db0ec82d0001d1fdde,2021-10-19_15h46.09.406,forced_choiceRT,2021.1.2,Win32,60.06727535,,,,,,,,6,Fast,h,0,1.8201,9,3,39,0,1,,,,,
,,,,,,,,,,,,5b25d4db0ec82d0001d1fdde,2021-10-19_15h46.09.406,forced_choiceRT,2021.1.2,Win32,60.06727535,,,,,,,,,,,,,,,,,,5,0,5,0,1
,0.89,,,,,,,,,g.PNG,g,5b25d4db0ec82d0001d1fdde,2021-10-19_15h46.09.406,forced_choiceRT,2021.1.2,Win32,60.06727535,,,,,,,,7,Fast,j,0,1.7848,0,0,0,1,1,,,,,
,0.84,,,,,,,,,g.PNG,g,5b25d4db0ec82d0001d1fdde,2021-10-19_15h46.09.406,forced_choiceRT,2021.1.2,Win32,60.06727535,,,,,,,,7,Fast,h,0,0.5,0,1,1,1,1,,,,,
,1.92,,,,,,,,,j.PNG,j,5b25d4db0ec82d0001d1fdde,2021-10-19_15h46.09.406,forced_choiceRT,2021.1.2,Win32,60.06727535,,,,,,,,7,Fast,h,0,0.0202,0,2,2,3,1,,,,,
,0.69,,,,,,,,,h.PNG,h,5b25d4db0ec82d0001d1fdde,2021-10-19_15h46.09.406,forced_choiceRT,2021.1.2,Win32,60.06727535,,,,,,,,7,Fast,g,0,0.3926,0,3,3,2,1,,,,,
,1.24,,,,,,,,,f.PNG,f,5b25d4db0ec82d0001d1fdde,2021-10-19_15h46.09.406,forced_choiceRT,2021.1.2,Win32,60.06727535,,,,,,,,7,Fast,h,0,0.4502,1,0,4,0,1,,,,,
,0.14,,,,,,,,,g.PNG,g,5b25d4db0ec82d0001d1fdde,2021-10-19_15h46.09.406,forced_choiceRT,2021.1.2,Win32,60.06727535,,,,,,,,7,Fast,g,1,0.4218,1,1,5,1,1,,,,,
,0.82,,,,,,,,,g.PNG,g,5b25d4db0ec82d0001d1fdde,2021-10-19_15h46.09.406,forced_choiceRT,2021.1.2,Win32,60.06727535,,,,,,,,7,Fast,h,0,0.0516,1,2,6,1,1,,,,,
,1.25,,,,,,,,,j.PNG,j,5b25d4db0ec82d0001d1fdde,2021-10-19_15h46.09.406,forced_choiceRT,2021.1.2,Win32,60.06727535,,,,,,,,7,Fast,j,1,0.1179,1,3,7,3,1,,,,,
,0.36,,,,,,,,,j.PNG,j,5b25d4db0ec82d0001d1fdde,2021-10-19_15h46.09.406,forced_choiceRT,2021.1.2,Win32,60.06727535,,,,,,,,7,Fast,j,1,0.332,2,0,8,3,1,,,,,
,0.13,,,,,,,,,g.PNG,g,5b25d4db0ec82d0001d1fdde,2021-10-19_15h46.09.406,forced_choiceRT,2021.1.2,Win32,60.06727535,,,,,,,,7,Fast,j,0,0.9539,2,1,9,1,1,,,,,
,0.8,,,,,,,,,g.PNG,g,5b25d4db0ec82d0001d1fdde,2021-10-19_15h46.09.406,forced_choiceRT,2021.1.2,Win32,60.06727535,,,,,,,,7,Fast,h,0,0.0172,2,2,10,1,1,,,,,
,1.42,,,,,,,,,f.PNG,f,5b25d4db0ec82d0001d1fdde,2021-10-19_15h46.09.406,forced_choiceRT,2021.1.2,Win32,60.06727535,,,,,,,,7,Fast,j,0,0.5679,2,3,11,0,1,,,,,
,0.75,,,,,,,,,j.PNG,j,5b25d4db0ec82d0001d1fdde,2021-10-19_15h46.09.406,forced_choiceRT,2021.1.2,Win32,60.06727535,,,,,,,,7,Fast,h,0,0.3579,3,0,12,3,1,,,,,
,1.39,,,,,,,,,h.PNG,h,5b25d4db0ec82d0001d1fdde,2021-10-19_15h46.09.406,forced_choiceRT,2021.1.2,Win32,60.06727535,,,,,,,,7,Fast,j,0,0.3004,3,1,13,2,1,,,,,
,0.06,,,,,,,,,g.PNG,g,5b25d4db0ec82d0001d1fdde,2021-10-19_15h46.09.406,forced_choiceRT,2021.1.2,Win32,60.06727535,,,,,,,,7,Fast,h,0,0.4839,3,2,14,1,1,,,,,
,0.41,,,,,,,,,j.PNG,j,5b25d4db0ec82d0001d1fdde,2021-10-19_15h46.09.406,forced_choiceRT,2021.1.2,Win32,60.06727535,,,,,,,,7,Fast,g,0,0.3013,3,3,15,3,1,,,,,
,0.95,,,,,,,,,j.PNG,j,5b25d4db0ec82d0001d1fdde,2021-10-19_15h46.09.406,forced_choiceRT,2021.1.2,Win32,60.06727535,,,,,,,,7,Fast,j,1,0.252,4,0,16,3,1,,,,,
,1.66,,,,,,,,,j.PNG,j,5b25d4db0ec82d0001d1fdde,2021-10-19_15h46.09.406,forced_choiceRT,2021.1.2,Win32,60.06727535,,,,,,,,7,Slow,j,1,2.1003,4,1,17,3,1,,,,,
,1.99,,,,,,,,,h.PNG,h,5b25d4db0ec82d0001d1fdde,2021-10-19_15h46.09.406,forced_choiceRT,2021.1.2,Win32,60.06727535,,,,,,,,7,Fast,h,1,0.3636,4,2,18,2,1,,,,,
,0.23,,,,,,,,,f.PNG,f,5b25d4db0ec82d0001d1fdde,2021-10-19_15h46.09.406,forced_choiceRT,2021.1.2,Win32,60.06727535,,,,,,,,7,Fast,j,0,0.4225,4,3,19,0,1,,,,,
,1.42,,,,,,,,,h.PNG,h,5b25d4db0ec82d0001d1fdde,2021-10-19_15h46.09.406,forced_choiceRT,2021.1.2,Win32,60.06727535,,,,,,,,7,Fast,h,1,0.8372,5,0,20,2,1,,,,,
,1.21,,,,,,,,,f.PNG,f,5b25d4db0ec82d0001d1fdde,2021-10-19_15h46.09.406,forced_choiceRT,2021.1.2,Win32,60.06727535,,,,,,,,7,Fast,j,0,0.4844,5,1,21,0,1,,,,,
,0.25,,,,,,,,,h.PNG,h,5b25d4db0ec82d0001d1fdde,2021-10-19_15h46.09.406,forced_choiceRT,2021.1.2,Win32,60.06727535,,,,,,,,7,Fast,h,1,0.5005,5,2,22,2,1,,,,,
,1.23,,,,,,,,,g.PNG,g,5b25d4db0ec82d0001d1fdde,2021-10-19_15h46.09.406,forced_choiceRT,2021.1.2,Win32,60.06727535,,,,,,,,7,Fast,j,0,0.5665,5,3,23,1,1,,,,,
,0.92,,,,,,,,,g.PNG,g,5b25d4db0ec82d0001d1fdde,2021-10-19_15h46.09.406,forced_choiceRT,2021.1.2,Win32,60.06727535,,,,,,,,7,Fast,j,0,0.6505,6,0,24,1,1,,,,,
,1.79,,,,,,,,,f.PNG,f,5b25d4db0ec82d0001d1fdde,2021-10-19_15h46.09.406,forced_choiceRT,2021.1.2,Win32,60.06727535,,,,,,,,7,Fast,j,0,0.7878,6,1,25,0,1,,,,,
,0.1,,,,,,,,,j.PNG,j,5b25d4db0ec82d0001d1fdde,2021-10-19_15h46.09.406,forced_choiceRT,2021.1.2,Win32,60.06727535,,,,,,,,7,Fast,h,0,1.2653,6,2,26,3,1,,,,,
,1.98,,,,,,,,,g.PNG,g,5b25d4db0ec82d0001d1fdde,2021-10-19_15h46.09.406,forced_choiceRT,2021.1.2,Win32,60.06727535,,,,,,,,7,Fast,h,0,0.8478,6,3,27,1,1,,,,,
,1.21,,,,,,,,,f.PNG,f,5b25d4db0ec82d0001d1fdde,2021-10-19_15h46.09.406,forced_choiceRT,2021.1.2,Win32,60.06727535,,,,,,,,7,Slow,h,0,2.2203,7,0,28,0,1,,,,,
,1.31,,,,,,,,,f.PNG,f,5b25d4db0ec82d0001d1fdde,2021-10-19_15h46.09.406,forced_choiceRT,2021.1.2,Win32,60.06727535,,,,,,,,7,Fast,h,0,0.2204,7,1,29,0,1,,,,,
,1.44,,,,,,,,,h.PNG,h,5b25d4db0ec82d0001d1fdde,2021-10-19_15h46.09.406,forced_choiceRT,2021.1.2,Win32,60.06727535,,,,,,,,7,Fast,h,1,1.6204,7,2,30,2,1,,,,,
,0.9,,,,,,,,,h.PNG,h,5b25d4db0ec82d0001d1fdde,2021-10-19_15h46.09.406,forced_choiceRT,2021.1.2,Win32,60.06727535,,,,,,,,7,Fast,j,0,0.325,7,3,31,2,1,,,,,
,1.51,,,,,,,,,j.PNG,j,5b25d4db0ec82d0001d1fdde,2021-10-19_15h46.09.406,forced_choiceRT,2021.1.2,Win32,60.06727535,,,,,,,,7,Fast,h,0,0.5501,8,0,32,3,1,,,,,
,0.74,,,,,,,,,f.PNG,f,5b25d4db0ec82d0001d1fdde,2021-10-19_15h46.09.406,forced_choiceRT,2021.1.2,Win32,60.06727535,,,,,,,,7,Fast,g,0,0.254,8,1,33,0,1,,,,,
,0.63,,,,,,,,,j.PNG,j,5b25d4db0ec82d0001d1fdde,2021-10-19_15h46.09.406,forced_choiceRT,2021.1.2,Win32,60.06727535,,,,,,,,7,Fast,h,0,0.3641,8,2,34,3,1,,,,,
,0.52,,,,,,,,,f.PNG,f,5b25d4db0ec82d0001d1fdde,2021-10-19_15h46.09.406,forced_choiceRT,2021.1.2,Win32,60.06727535,,,,,,,,7,Fast,h,0,0.354,8,3,35,0,1,,,,,
,1.45,,,,,,,,,h.PNG,h,5b25d4db0ec82d0001d1fdde,2021-10-19_15h46.09.406,forced_choiceRT,2021.1.2,Win32,60.06727535,,,,,,,,7,Fast,h,1,0.3271,9,0,36,2,1,,,,,
,0.02,,,,,,,,,h.PNG,h,5b25d4db0ec82d0001d1fdde,2021-10-19_15h46.09.406,forced_choiceRT,2021.1.2,Win32,60.06727535,,,,,,,,7,Fast,h,1,0.3673,9,1,37,2,1,,,,,
,1.43,,,,,,,,,f.PNG,f,5b25d4db0ec82d0001d1fdde,2021-10-19_15h46.09.406,forced_choiceRT,2021.1.2,Win32,60.06727535,,,,,,,,7,Fast,g,0,0.4668,9,2,38,0,1,,,,,
,1.51,,,,,,,,,h.PNG,h,5b25d4db0ec82d0001d1fdde,2021-10-19_15h46.09.406,forced_choiceRT,2021.1.2,Win32,60.06727535,,,,,,,,7,Fast,j,0,0.4692,9,3,39,2,1,,,,,
,,,,,,,,,,,,5b25d4db0ec82d0001d1fdde,2021-10-19_15h46.09.406,forced_choiceRT,2021.1.2,Win32,60.06727535,,,,,,,,,,,,,,,,,,6,0,6,0,1
,1.27,,,,,,,,,g.PNG,g,5b25d4db0ec82d0001d1fdde,2021-10-19_15h46.09.406,forced_choiceRT,2021.1.2,Win32,60.06727535,,,,,,,,8,Slow,g,1,2.4019,0,0,0,1,1,,,,,
,1.18,,,,,,,,,j.PNG,j,5b25d4db0ec82d0001d1fdde,2021-10-19_15h46.09.406,forced_choiceRT,2021.1.2,Win32,60.06727535,,,,,,,,8,Fast,j,1,1.7332,0,1,1,3,1,,,,,
,0.18,,,,,,,,,j.PNG,j,5b25d4db0ec82d0001d1fdde,2021-10-19_15h46.09.406,forced_choiceRT,2021.1.2,Win32,60.06727535,,,,,,,,8,Fast,j,1,1.7892,0,2,2,3,1,,,,,
,0.24,,,,,,,,,h.PNG,h,5b25d4db0ec82d0001d1fdde,2021-10-19_15h46.09.406,forced_choiceRT,2021.1.2,Win32,60.06727535,,,,,,,,8,Fast,h,1,1.6544,0,3,3,2,1,,,,,
,0.05,,,,,,,,,h.PNG,h,5b25d4db0ec82d0001d1fdde,2021-10-19_15h46.09.406,forced_choiceRT,2021.1.2,Win32,60.06727535,,,,,,,,8,Fast,g,0,0.3675,1,0,4,2,1,,,,,
,1.74,,,,,,,,,g.PNG,g,5b25d4db0ec82d0001d1fdde,2021-10-19_15h46.09.406,forced_choiceRT,2021.1.2,Win32,60.06727535,,,,,,,,8,Fast,h,0,0.4046,1,1,5,1,1,,,,,
,1.34,,,,,,,,,f.PNG,f,5b25d4db0ec82d0001d1fdde,2021-10-19_15h46.09.406,forced_choiceRT,2021.1.2,Win32,60.06727535,,,,,,,,8,Fast,h,0,0.4174,1,2,6,0,1,,,,,
,1.07,,,,,,,,,h.PNG,h,5b25d4db0ec82d0001d1fdde,2021-10-19_15h46.09.406,forced_choiceRT,2021.1.2,Win32,60.06727535,,,,,,,,8,Fast,h,1,0.0006,1,3,7,2,1,,,,,
,0.66,,,,,,,,,h.PNG,h,5b25d4db0ec82d0001d1fdde,2021-10-19_15h46.09.406,forced_choiceRT,2021.1.2,Win32,60.06727535,,,,,,,,8,Fast,g,0,1.8353,2,0,8,2,1,,,,,
,0.85,,,,,,,,,g.PNG,g,5b25d4db0ec82d0001d1fdde,2021-10-19_15h46.09.406,forced_choiceRT,2021.1.2,Win32,60.06727535,,,,,,,,8,Fast,h,0,1.7184,2,1,9,1,1,,,,,
,1.31,,,,,,,,,g.PNG,g,5b25d4db0ec82d0001d1fdde,2021-10-19_15h46.09.406,forced_choiceRT,2021.1.2,Win32,60.06727535,,,,,,,,8,Fast,h,0,1.8761,2,2,10,1,1,,,,,
,1.18,,,,,,,,,f.PNG,f,5b25d4db0ec82d0001d1fdde,2021-10-19_15h46.09.406,forced_choiceRT,2021.1.2,Win32,60.06727535,,,,,,,,8,Fast,h,0,1.8205,2,3,11,0,1,,,,,
,1.04,,,,,,,,,f.PNG,f,5b25d4db0ec82d0001d1fdde,2021-10-19_15h46.09.406,forced_choiceRT,2021.1.2,Win32,60.06727535,,,,,,,,8,Fast,h,0,1.6871,3,0,12,0,1,,,,,
,1.23,,,,,,,,,f.PNG,f,5b25d4db0ec82d0001d1fdde,2021-10-19_15h46.09.406,forced_choiceRT,2021.1.2,Win32,60.06727535,,,,,,,,8,Fast,f,1,1.7893,3,1,13,0,1,,,,,
,0.32,,,,,,,,,f.PNG,f,5b25d4db0ec82d0001d1fdde,2021-10-19_15h46.09.406,forced_choiceRT,2021.1.2,Win32,60.06727535,,,,,,,,8,Slow,f,1,2.1669,3,2,14,0,1,,,,,
,0.18,,,,,,,,,f.PNG,f,5b25d4db0ec82d0001d1fdde,2021-10-19_15h46.09.406,forced_choiceRT,2021.1.2,Win32,60.06727535,,,,,,,,8,Fast,h,0,0.2168,3,3,15,0,1,,,,,
,0.35,,,,,,,,,h.PNG,h,5b25d4db0ec82d0001d1fdde,2021-10-19_15h46.09.406,forced_choiceRT,2021.1.2,Win32,60.06727535,,,,,,,,8,Fast,h,1,0.7611,4,0,16,2,1,,,,,
,0.72,,,,,,,,,g.PNG,g,5b25d4db0ec82d0001d1fdde,2021-10-19_15h46.09.406,forced_choiceRT,2021.1.2,Win32,60.06727535,,,,,,,,8,Fast,h,0,1.7346,4,1,17,1,1,,,,,
,0.44,,,,,,,,,j.PNG,j,5b25d4db0ec82d0001d1fdde,2021-10-19_15h46.09.406,forced_choiceRT,2021.1.2,Win32,60.06727535,,,,,,,,8,Fast,j,1,0.7914,4,2,18,3,1,,,,,
,0.24,,,,,,,,,g.PNG,g,5b25d4db0ec82d0001d1fdde,2021-10-19_15h46.09.406,forced_choiceRT,2021.1.2,Win32,60.06727535,,,,,,,,8,Fast,j,0,1.0881,4,3,19,1,1,,,,,
,0.28,,,,,,,,,g.PNG,g,5b25d4db0ec82d0001d1fdde,2021-10-19_15h46.09.406,forced_choiceRT,2021.1.2,Win32,60.06727535,,,,,,,,8,Fast,h,0,0.4203,5,0,20,1,1,,,,,
,1.97,,,,,,,,,h.PNG,h,5b25d4db0ec82d0001d1fdde,2021-10-19_15h46.09.406,forced_choiceRT,2021.1.2,Win32,60.06727535,,,,,,,,8,Fast,j,0,0.2308,5,1,21,2,1,,,,,
,1.91,,,,,,,,,h.PNG,h,5b25d4db0ec82d0001d1fdde,2021-10-19_15h46.09.406,forced_choiceRT,2021.1.2,Win32,60.06727535,,,,,,,,8,Fast,h,1,0.4703,5,2,22,2,1,,,,,
,1,,,,,,,,,h.PNG,h,5b25d4db0ec82d0001d1fdde,2021-10-19_15h46.09.406,forced_choiceRT,2021.1.2,Win32,60.06727535,,,,,,,,8,Fast,h,1,0.4669,5,3,23,2,1,,,,,
,0.82,,,,,,,,,h.PNG,h,5b25d4db0ec82d0001d1fdde,2021-10-19_15h46.09.406,forced_choiceRT,2021.1.2,Win32,60.06727535,,,,,,,,8,Fast,j,0,0.0202,6,0,24,2,1,,,,,
,1.46,,,,,,,,,j.PNG,j,5b25d4db0ec82d0001d1fdde,2021-10-19_15h46.09.406,forced_choiceRT,2021.1.2,Win32,60.06727535,,,,,,,,8,Fast,h,0,0.2534,6,1,25,3,1,,,,,
,1.5,,,,,,,,,g.PNG,g,5b25d4db0ec82d0001d1fdde,2021-10-19_15h46.09.406,forced_choiceRT,2021.1.2,Win32,60.06727535,,,,,,,,8,Fast,j,0,0.6539,6,2,26,1,1,,,,,
,1.45,,,,,,,,,h.PNG,h,5b25d4db0ec82d0001d1fdde,2021-10-19_15h46.09.406,forced_choiceRT,2021.1.2,Win32,60.06727535,,,,,,,,8,Fast,h,1,0.4381,6,3,27,2,1,,,,,
,0.99,,,,,,,,,g.PNG,g,5b25d4db0ec82d0001d1fdde,2021-10-19_15h46.09.406,forced_choiceRT,2021.1.2,Win32,60.06727535,,,,,,,,8,Fast,h,0,0.4008,7,0,28,1,1,,,,,
,0.11,,,,,,,,,j.PNG,j,5b25d4db0ec82d0001d1fdde,2021-10-19_15h46.09.406,forced_choiceRT,2021.1.2,Win32,60.06727535,,,,,,,,8,Ontime,j,1,1.902,7,1,29,3,1,,,,,
,0.65,,,,,,,,,f.PNG,f,5b25d4db0ec82d0001d1fdde,2021-10-19_15h46.09.406,forced_choiceRT,2021.1.2,Win32,60.06727535,,,,,,,,8,Ontime,f,1,1.9503,7,2,30,0,1,,,,,
,1.86,,,,,,,,,f.PNG,f,5b25d4db0ec82d0001d1fdde,2021-10-19_15h46.09.406,forced_choiceRT,2021.1.2,Win32,60.06727535,,,,,,,,8,Fast,h,0,0.0506,7,3,31,0,1,,,,,
,0.65,,,,,,,,,g.PNG,g,5b25d4db0ec82d0001d1fdde,2021-10-19_15h46.09.406,forced_choiceRT,2021.1.2,Win32,60.06727535,,,,,,,,8,Fast,j,0,0.4371,8,0,32,1,1,,,,,
,1.94,,,,,,,,,j.PNG,j,5b25d4db0ec82d0001d1fdde,2021-10-19_15h46.09.406,forced_choiceRT,2021.1.2,Win32,60.06727535,,,,,,,,8,Fast,h,0,0.3348,8,1,33,3,1,,,,,
,0.53,,,,,,,,,j.PNG,j,5b25d4db0ec82d0001d1fdde,2021-10-19_15h46.09.406,forced_choiceRT,2021.1.2,Win32,60.06727535,,,,,,,,8,Fast,j,1,0.0793,8,2,34,3,1,,,,,
,0.92,,,,,,,,,f.PNG,f,5b25d4db0ec82d0001d1fdde,2021-10-19_15h46.09.406,forced_choiceRT,2021.1.2,Win32,60.06727535,,,,,,,,8,Fast,j,0,0.5237,8,3,35,0,1,,,,,
,0.67,,,,,,,,,j.PNG,j,5b25d4db0ec82d0001d1fdde,2021-10-19_15h46.09.406,forced_choiceRT,2021.1.2,Win32,60.06727535,,,,,,,,8,Fast,h,0,0.2805,9,0,36,3,1,,,,,
,0.32,,,,,,,,,f.PNG,f,5b25d4db0ec82d0001d1fdde,2021-10-19_15h46.09.406,forced_choiceRT,2021.1.2,Win32,60.06727535,,,,,,,,8,Fast,g,0,0.2979,9,1,37,0,1,,,,,
,1.75,,,,,,,,,j.PNG,j,5b25d4db0ec82d0001d1fdde,2021-10-19_15h46.09.406,forced_choiceRT,2021.1.2,Win32,60.06727535,,,,,,,,8,Fast,h,0,0.218,9,2,38,3,1,,,,,
,1.51,,,,,,,,,j.PNG,j,5b25d4db0ec82d0001d1fdde,2021-10-19_15h46.09.406,forced_choiceRT,2021.1.2,Win32,60.06727535,,,,,,,,8,Fast,h,0,0.7969,9,3,39,3,1,,,,,
,,,,,,,,,,,,5b25d4db0ec82d0001d1fdde,2021-10-19_15h46.09.406,forced_choiceRT,2021.1.2,Win32,60.06727535,,,,,,,,,,,,,,,,,,7,0,7,0,1
,0.22,,,,,,,,,g.PNG,g,5b25d4db0ec82d0001d1fdde,2021-10-19_15h46.09.406,forced_choiceRT,2021.1.2,Win32,60.06727535,,,,,,,,9,Fast,g,1,1.5357,0,0,0,1,1,,,,,
,0.11,,,,,,,,,g.PNG,g,5b25d4db0ec82d0001d1fdde,2021-10-19_15h46.09.406,forced_choiceRT,2021.1.2,Win32,60.06727535,,,,,,,,9,Fast,j,0,0.2325,0,1,1,1,1,,,,,
,0,,,,,,,,,f.PNG,f,5b25d4db0ec82d0001d1fdde,2021-10-19_15h46.09.406,forced_choiceRT,2021.1.2,Win32,60.06727535,,,,,,,,9,Fast,j,0,0.253,0,2,2,0,1,,,,,
,0.79,,,,,,,,,g.PNG,g,5b25d4db0ec82d0001d1fdde,2021-10-19_15h46.09.406,forced_choiceRT,2021.1.2,Win32,60.06727535,,,,,,,,9,Fast,h,0,0.3165,0,3,3,1,1,,,,,
,0.58,,,,,,,,,j.PNG,j,5b25d4db0ec82d0001d1fdde,2021-10-19_15h46.09.406,forced_choiceRT,2021.1.2,Win32,60.06727535,,,,,,,,9,Fast,j,1,0.4878,1,0,4,3,1,,,,,
,0.06,,,,,,,,,g.PNG,g,5b25d4db0ec82d0001d1fdde,2021-10-19_15h46.09.406,forced_choiceRT,2021.1.2,Win32,60.06727535,,,,,,,,9,Fast,h,0,1.7539,1,1,5,1,1,,,,,
,1.79,,,,,,,,,j.PNG,j,5b25d4db0ec82d0001d1fdde,2021-10-19_15h46.09.406,forced_choiceRT,2021.1.2,Win32,60.06727535,,,,,,,,9,Ontime,h,0,2.0205,1,2,6,3,1,,,,,
,1.74,,,,,,,,,h.PNG,h,5b25d4db0ec82d0001d1fdde,2021-10-19_15h46.09.406,forced_choiceRT,2021.1.2,Win32,60.06727535,,,,,,,,9,Fast,j,0,0.4682,1,3,7,2,1,,,,,
,1.95,,,,,,,,,j.PNG,j,5b25d4db0ec82d0001d1fdde,2021-10-19_15h46.09.406,forced_choiceRT,2021.1.2,Win32,60.06727535,,,,,,,,9,Fast,g,0,0.1002,2,0,8,3,1,,,,,
,1.67,,,,,,,,,f.PNG,f,5b25d4db0ec82d0001d1fdde,2021-10-19_15h46.09.406,forced_choiceRT,2021.1.2,Win32,60.06727535,,,,,,,,9,Fast,g,0,0.5148,2,1,9,0,1,,,,,
,1.89,,,,,,,,,g.PNG,g,5b25d4db0ec82d0001d1fdde,2021-10-19_15h46.09.406,forced_choiceRT,2021.1.2,Win32,60.06727535,,,,,,,,9,Fast,g,1,0.5746,2,2,10,1,1,,,,,
,0.9,,,,,,,,,f.PNG,f,5b25d4db0ec82d0001d1fdde,2021-10-19_15h46.09.406,forced_choiceRT,2021.1.2,Win32,60.06727535,,,,,,,,9,Fast,h,0,0.9872,2,3,11,0,1,,,,,
,1.01,,,,,,,,,g.PNG,g,5b25d4db0ec82d0001d1fdde,2021-10-19_15h46.09.406,forced_choiceRT,2021.1.2,Win32,60.06727535,,,,,,,,9,Fast,h,0,1.4367,3,0,12,1,1,,,,,
,0.95,,,,,,,,,g.PNG,g,5b25d4db0ec82d0001d1fdde,2021-10-19_15h46.09.406,forced_choiceRT,2021.1.2,Win32,60.06727535,,,,,,,,9,Fast,h,0,1.4138,3,1,13,1,1,,,,,
,0.29,,,,,,,,,f.PNG,f,5b25d4db0ec82d0001d1fdde,2021-10-19_15h46.09.406,forced_choiceRT,2021.1.2,Win32,60.06727535,,,,,,,,9,Fast,f,1,1.2868,3,2,14,0,1,,,,,
,0.79,,,,,,,,,h.PNG,h,5b25d4db0ec82d0001d1fdde,2021-10-19_15h46.09.406,forced_choiceRT,2021.1.2,Win32,60.06727535,,,,,,,,9,Fast,h,1,1.7638,3,3,15,2,1,,,,,
,1.09,,,,,,,,,j.PNG,j,5b25d4db0ec82d0001d1fdde,2021-10-19_15h46.09.406,forced_choiceRT,2021.1.2,Win32,60.06727535,,,,,,,,9,Fast,j,1,1.7338,4,0,16,3,1,,,,,
,0.14,,,,,,,,,g.PNG,g,5b25d4db0ec82d0001d1fdde,2021-10-19_15h46.09.406,forced_choiceRT,2021.1.2,Win32,60.06727535,,,,,,,,9,Fast,h,0,1.4007,4,1,17,1,1,,,,,
,1.04,,,,,,,,,h.PNG,h,5b25d4db0ec82d0001d1fdde,2021-10-19_15h46.09.406,forced_choiceRT,2021.1.2,Win32,60.06727535,,,,,,,,9,Fast,h,1,1.133,4,2,18,2,1,,,,,
,1.32,,,,,,,,,f.PNG,f,5b25d4db0ec82d0001d1fdde,2021-10-19_15h46.09.406,forced_choiceRT,2021.1.2,Win32,60.06727535,,,,,,,,9,Fast,j,0,0.5997,4,3,19,0,1,,,,,
,0.47,,,,,,,,,f.PNG,f,5b25d4db0ec82d0001d1fdde,2021-10-19_15h46.09.406,forced_choiceRT,2021.1.2,Win32,60.06727535,,,,,,,,9,Fast,h,0,0.4593,5,0,20,0,1,,,,,
,0.64,,,,,,,,,j.PNG,j,5b25d4db0ec82d0001d1fdde,2021-10-19_15h46.09.406,forced_choiceRT,2021.1.2,Win32,60.06727535,,,,,,,,9,Fast,g,0,0.4549,5,1,21,3,1,,,,,
,0.87,,,,,,,,,j.PNG,j,5b25d4db0ec82d0001d1fdde,2021-10-19_15h46.09.406,forced_choiceRT,2021.1.2,Win32,60.06727535,,,,,,,,9,Fast,h,0,0.4981,5,2,22,3,1,,,,,
,0.27,,,,,,,,,j.PNG,j,5b25d4db0ec82d0001d1fdde,2021-10-19_15h46.09.406,forced_choiceRT,2021.1.2,Win32,60.06727535,,,,,,,,9,Fast,j,1,0.1677,5,3,23,3,1,,,,,
,0.9,,,,,,,,,f.PNG,f,5b25d4db0ec82d0001d1fdde,2021-10-19_15h46.09.406,forced_choiceRT,2021.1.2,Win32,60.06727535,,,,,,,,9,Fast,h,0,0.3007,6,0,24,0,1,,,,,
,1.33,,,,,,,,,h.PNG,h,5b25d4db0ec82d0001d1fdde,2021-10-19_15h46.09.406,forced_choiceRT,2021.1.2,Win32,60.06727535,,,,,,,,9,Fast,j,0,0.4003,6,1,25,2,1,,,,,
,0.15,,,,,,,,,g.PNG,g,5b25d4db0ec82d0001d1fdde,2021-10-19_15h46.09.406,forced_choiceRT,2021.1.2,Win32,60.06727535,,,,,,,,9,Fast,h,0,0.635,6,2,26,1,1,,,,,
,0.29,,,,,,,,,g.PNG,g,5b25d4db0ec82d0001d1fdde,2021-10-19_15h46.09.406,forced_choiceRT,2021.1.2,Win32,60.06727535,,,,,,,,9,Fast,h,0,0.4008,6,3,27,1,1,,,,,
,1.26,,,,,,,,,f.PNG,f,5b25d4db0ec82d0001d1fdde,2021-10-19_15h46.09.406,forced_choiceRT,2021.1.2,Win32,60.06727535,,,,,,,,9,Fast,h,0,0.599,7,0,28,0,1,,,,,
,0.03,,,,,,,,,h.PNG,h,5b25d4db0ec82d0001d1fdde,2021-10-19_15h46.09.406,forced_choiceRT,2021.1.2,Win32,60.06727535,,,,,,,,9,Fast,h,1,0.6208,7,1,29,2,1,,,,,
,0.22,,,,,,,,,h.PNG,h,5b25d4db0ec82d0001d1fdde,2021-10-19_15h46.09.406,forced_choiceRT,2021.1.2,Win32,60.06727535,,,,,,,,9,Fast,j,0,0.7549,7,2,30,2,1,,,,,
,0.23,,,,,,,,,h.PNG,h,5b25d4db0ec82d0001d1fdde,2021-10-19_15h46.09.406,forced_choiceRT,2021.1.2,Win32,60.06727535,,,,,,,,9,Fast,h,1,1.0427,7,3,31,2,1,,,,,
,1.37,,,,,,,,,j.PNG,j,5b25d4db0ec82d0001d1fdde,2021-10-19_15h46.09.406,forced_choiceRT,2021.1.2,Win32,60.06727535,,,,,,,,9,Ontime,j,1,1.937,8,0,32,3,1,,,,,
,0.23,,,,,,,,,h.PNG,h,5b25d4db0ec82d0001d1fdde,2021-10-19_15h46.09.406,forced_choiceRT,2021.1.2,Win32,60.06727535,,,,,,,,9,Ontime,h,1,1.9348,8,1,33,2,1,,,,,
,0.35,,,,,,,,,j.PNG,j,5b25d4db0ec82d0001d1fdde,2021-10-19_15h46.09.406,forced_choiceRT,2021.1.2,Win32,60.06727535,,,,,,,,9,Ontime,j,1,1.9504,8,2,34,3,1,,,,,
,0.82,,,,,,,,,f.PNG,f,5b25d4db0ec82d0001d1fdde,2021-10-19_15h46.09.406,forced_choiceRT,2021.1.2,Win32,60.06727535,,,,,,,,9,Ontime,f,1,2.0675,8,3,35,0,1,,,,,
,1.8,,,,,,,,,j.PNG,j,5b25d4db0ec82d0001d1fdde,2021-10-19_15h46.09.406,forced_choiceRT,2021.1.2,Win32,60.06727535,,,,,,,,9,Fast,h,0,1.4995,9,0,36,3,1,,,,,
,1.47,,,,,,,,,h.PNG,h,5b25d4db0ec82d0001d1fdde,2021-10-19_15h46.09.406,forced_choiceRT,2021.1.2,Win32,60.06727535,,,,,,,,9,Fast,j,0,1.8966,9,1,37,2,1,,,,,
,1.56,,,,,,,,,h.PNG,h,5b25d4db0ec82d0001d1fdde,2021-10-19_15h46.09.406,forced_choiceRT,2021.1.2,Win32,60.06727535,,,,,,,,9,Fast,j,0,1.8185,9,2,38,2,1,,,,,
,1.18,,,,,,,,,f.PNG,f,5b25d4db0ec82d0001d1fdde,2021-10-19_15h46.09.406,forced_choiceRT,2021.1.2,Win32,60.06727535,,,,,,,,9,Fast,h,0,0.3914,9,3,39,0,1,,,,,
,,,,,,,,,,,,5b25d4db0ec82d0001d1fdde,2021-10-19_15h46.09.406,forced_choiceRT,2021.1.2,Win32,60.06727535,,,,,,,,,,,,,,,,,,8,0,8,0,1
,0.58,,,,,,,,,g.PNG,g,5b25d4db0ec82d0001d1fdde,2021-10-19_15h46.09.406,forced_choiceRT,2021.1.2,Win32,60.06727535,,,,,,,,10,Ontime,g,1,1.9646,0,0,0,1,1,,,,,
,0.31,,,,,,,,,h.PNG,h,5b25d4db0ec82d0001d1fdde,2021-10-19_15h46.09.406,forced_choiceRT,2021.1.2,Win32,60.06727535,,,,,,,,10,Fast,h,1,1.384,0,1,1,2,1,,,,,
,1.77,,,,,,,,,j.PNG,j,5b25d4db0ec82d0001d1fdde,2021-10-19_15h46.09.406,forced_choiceRT,2021.1.2,Win32,60.06727535,,,,,,,,10,Slow,h,0,2.2673,0,2,2,3,1,,,,,
,0.47,,,,,,,,,h.PNG,h,5b25d4db0ec82d0001d1fdde,2021-10-19_15h46.09.406,forced_choiceRT,2021.1.2,Win32,60.06727535,,,,,,,,10,Fast,j,0,0.301,0,3,3,2,1,,,,,
,0.65,,,,,,,,,j.PNG,j,5b25d4db0ec82d0001d1fdde,2021-10-19_15h46.09.406,forced_choiceRT,2021.1.2,Win32,60.06727535,,,,,,,,10,Fast,h,0,0.3518,1,0,4,3,1,,,,,
,1.22,,,,,,,,,j.PNG,j,5b25d4db0ec82d0001d1fdde,2021-10-19_15h46.09.406,forced_choiceRT,2021.1.2,Win32,60.06727535,,,,,,,,10,Fast,j,1,1.8537,1,1,5,3,1,,,,,
,0.27,,,,,,,,,h.PNG,h,5b25d4db0ec82d0001d1fdde,2021-10-19_15h46.09.406,forced_choiceRT,2021.1.2,Win32,60.06727535,,,,,,,,10,Fast,h,1,1.8908,1,2,6,2,1,,,,,
,1.28,,,,,,,,,f.PNG,f,5b25d4db0ec82d0001d1fdde,2021-10-19_15h46.09.406,forced_choiceRT,2021.1.2,Win32,60.06727535,,,,,,,,10,Fast,h,0,1.8509,1,3,7,0,1,,,,,
,1.76,,,,,,,,,j.PNG,j,5b25d4db0ec82d0001d1fdde,2021-10-19_15h46.09.406,forced_choiceRT,2021.1.2,Win32,60.06727535,,,,,,,,10,Ontime,j,1,1.9536,2,0,8,3,1,,,,,
,1.96,,,,,,,,,f.PNG,f,5b25d4db0ec82d0001d1fdde,2021-10-19_15h46.09.406,forced_choiceRT,2021.1.2,Win32,60.06727535,,,,,,,,10,Slow,j,0,2.1374,2,1,9,0,1,,,,,
,1.46,,,,,,,,,j.PNG,j,5b25d4db0ec82d0001d1fdde,2021-10-19_15h46.09.406,forced_choiceRT,2021.1.2,Win32,60.06727535,,,,,,,,10,Fast,h,0,1.7174,2,2,10,3,1,,,,,
,1.4,,,,,,,,,g.PNG,g,5b25d4db0ec82d0001d1fdde,2021-10-19_15h46.09.406,forced_choiceRT,2021.1.2,Win32,60.06727535,,,,,,,,10,Fast,j,0,1.7313,2,3,11,1,1,,,,,
,0.83,,,,,,,,,f.PNG,f,5b25d4db0ec82d0001d1fdde,2021-10-19_15h46.09.406,forced_choiceRT,2021.1.2,Win32,60.06727535,,,,,,,,10,Fast,f,1,1.6891,3,0,12,0,1,,,,,
,1.16,,,,,,,,,h.PNG,h,5b25d4db0ec82d0001d1fdde,2021-10-19_15h46.09.406,forced_choiceRT,2021.1.2,Win32,60.06727535,,,,,,,,10,Fast,j,0,1.7511,3,1,13,2,1,,,,,
,1.52,,,,,,,,,h.PNG,h,5b25d4db0ec82d0001d1fdde,2021-10-19_15h46.09.406,forced_choiceRT,2021.1.2,Win32,60.06727535,,,,,,,,10,Fast,j,0,1.7853,3,2,14,2,1,,,,,
,0.49,,,,,,,,,j.PNG,j,5b25d4db0ec82d0001d1fdde,2021-10-19_15h46.09.406,forced_choiceRT,2021.1.2,Win32,60.06727535,,,,,,,,10,Fast,h,0,1.0682,3,3,15,3,1,,,,,
,1.36,,,,,,,,,g.PNG,g,5b25d4db0ec82d0001d1fdde,2021-10-19_15h46.09.406,forced_choiceRT,2021.1.2,Win32,60.06727535,,,,,,,,10,Fast,h,0,1.5843,4,0,16,1,1,,,,,
,0.5,,,,,,,,,f.PNG,f,5b25d4db0ec82d0001d1fdde,2021-10-19_15h46.09.406,forced_choiceRT,2021.1.2,Win32,60.06727535,,,,,,,,10,Fast,h,0,1.1535,4,1,17,0,1,,,,,
,1.49,,,,,,,,,f.PNG,f,5b25d4db0ec82d0001d1fdde,2021-10-19_15h46.09.406,forced_choiceRT,2021.1.2,Win32,60.06727535,,,,,,,,10,Ontime,h,0,2.0374,4,2,18,0,1,,,,,
,1.5,,,,,,,,,j.PNG,j,5b25d4db0ec82d0001d1fdde,2021-10-19_15h46.09.406,forced_choiceRT,2021.1.2,Win32,60.06727535,,,,,,,,10,Ontime,f,0,1.9001,4,3,19,3,1,,,,,
,0.99,,,,,,,,,j.PNG,j,5b25d4db0ec82d0001d1fdde,2021-10-19_15h46.09.406,forced_choiceRT,2021.1.2,Win32,60.06727535,,,,,,,,10,Ontime,j,1,1.9687,5,0,20,3,1,,,,,
,1.57,,,,,,,,,g.PNG,g,5b25d4db0ec82d0001d1fdde,2021-10-19_15h46.09.406,forced_choiceRT,2021.1.2,Win32,60.06727535,,,,,,,,10,Ontime,h,0,2.0221,5,1,21,1,1,,,,,
,0.95,,,,,,,,,f.PNG,f,5b25d4db0ec82d0001d1fdde,2021-10-19_15h46.09.406,forced_choiceRT,2021.1.2,Win32,60.06727535,,,,,,,,10,Ontime,f,1,1.9995,5,2,22,0,1,,,,,
,0.68,,,,,,,,,g.PNG,g,5b25d4db0ec82d0001d1fdde,2021-10-19_15h46.09.406,forced_choiceRT,2021.1.2,Win32,60.06727535,,,,,,,,10,Fast,h,0,0.7333,5,3,23,1,1,,,,,
,1.49,,,,,,,,,h.PNG,h,5b25d4db0ec82d0001d1fdde,2021-10-19_15h46.09.406,forced_choiceRT,2021.1.2,Win32,60.06727535,,,,,,,,10,Fast,j,0,0.6531,6,0,24,2,1,,,,,
,1.57,,,,,,,,,h.PNG,h,5b25d4db0ec82d0001d1fdde,2021-10-19_15h46.09.406,forced_choiceRT,2021.1.2,Win32,60.06727535,,,,,,,,10,Fast,g,0,0.4849,6,1,25,2,1,,,,,
,1.88,,,,,,,,,h.PNG,h,5b25d4db0ec82d0001d1fdde,2021-10-19_15h46.09.406,forced_choiceRT,2021.1.2,Win32,60.06727535,,,,,,,,10,Slow,j,0,2.1592,6,2,26,2,1,,,,,
,1.88,,,,,,,,,f.PNG,f,5b25d4db0ec82d0001d1fdde,2021-10-19_15h46.09.406,forced_choiceRT,2021.1.2,Win32,60.06727535,,,,,,,,10,Slow,h,0,2.2497,6,3,27,0,1,,,,,
,0.94,,,,,,,,,g.PNG,g,5b25d4db0ec82d0001d1fdde,2021-10-19_15h46.09.406,forced_choiceRT,2021.1.2,Win32,60.06727535,,,,,,,,10,Fast,h,0,0.5536,7,0,28,1,1,,,,,
,0.8,,,,,,,,,g.PNG,g,5b25d4db0ec82d0001d1fdde,2021-10-19_15h46.09.406,forced_choiceRT,2021.1.2,Win32,60.06727535,,,,,,,,10,Fast,h,0,1.7975,7,1,29,1,1,,,,,
,1.36,,,,,,,,,h.PNG,h,5b25d4db0ec82d0001d1fdde,2021-10-19_15h46.09.406,forced_choiceRT,2021.1.2,Win32,60.06727535,,,,,,,,10,Fast,h,1,1.8176,7,2,30,2,1,,,,,
,0.58,,,,,,,,,j.PNG,j,5b25d4db0ec82d0001d1fdde,2021-10-19_15h46.09.406,forced_choiceRT,2021.1.2,Win32,60.06727535,,,,,,,,10,Fast,h,0,1.6869,7,3,31,3,1,,,,,
,1.93,,,,,,,,,g.PNG,g,5b25d4db0ec82d0001d1fdde,2021-10-19_15h46.09.406,forced_choiceRT,2021.1.2,Win32,60.06727535,,,,,,,,10,Ontime,j,0,2.0839,8,0,32,1,1,,,,,
,0.99,,,,,,,,,h.PNG,h,5b25d4db0ec82d0001d1fdde,2021-10-19_15h46.09.406,forced_choiceRT,2021.1.2,Win32,60.06727535,,,,,,,,10,Fast,h,1,1.5741,8,1,33,2,1,,,,,
,0.41,,,,,,,,,j.PNG,j,5b25d4db0ec82d0001d1fdde,2021-10-19_15h46.09.406,forced_choiceRT,2021.1.2,Win32,60.06727535,,,,,,,,10,Fast,h,0,1.4346,8,2,34,3,1,,,,,
,0.61,,,,,,,,,f.PNG,f,5b25d4db0ec82d0001d1fdde,2021-10-19_15h46.09.406,forced_choiceRT,2021.1.2,Win32,60.06727535,,,,,,,,10,Fast,h,0,1.2339,8,3,35,0,1,,,,,
,0.03,,,,,,,,,g.PNG,g,5b25d4db0ec82d0001d1fdde,2021-10-19_15h46.09.406,forced_choiceRT,2021.1.2,Win32,60.06727535,,,,,,,,10,Fast,h,0,1.2641,9,0,36,1,1,,,,,
,1.06,,,,,,,,,f.PNG,f,5b25d4db0ec82d0001d1fdde,2021-10-19_15h46.09.406,forced_choiceRT,2021.1.2,Win32,60.06727535,,,,,,,,10,Fast,j,0,1.4136,9,1,37,0,1,,,,,
,1.8,,,,,,,,,f.PNG,f,5b25d4db0ec82d0001d1fdde,2021-10-19_15h46.09.406,forced_choiceRT,2021.1.2,Win32,60.06727535,,,,,,,,10,Fast,j,0,1.506,9,2,38,0,1,,,,,
,1.52,,,,,,,,,g.PNG,g,5b25d4db0ec82d0001d1fdde,2021-10-19_15h46.09.406,forced_choiceRT,2021.1.2,Win32,60.06727535,,,,,,,,10,Slow,j,0,2.288,9,3,39,1,1,,,,,
,,,,,,,,,,,,5b25d4db0ec82d0001d1fdde,2021-10-19_15h46.09.406,forced_choiceRT,2021.1.2,Win32,60.06727535,,,,,,,,,,,,,,,,,,9,0,9,0,1
