target_onset,trial_resp_sp.keys,trial_resp_sp.corr,trial_resp_sp.rt,trials_train_loop.thisRepN,trials_train_loop.thisTrialN,trials_train_loop.thisN,trials_train_loop.thisIndex,trials_train_loop.ran,pic,correct_key,participant,date,expName,psychopyVersion,OS,frameRate,trial_resp_timing.keys,trial_resp_timing.rt,trials_train_timing.thisRepN,trials_train_timing.thisTrialN,trials_train_timing.thisN,trials_train_timing.thisIndex,trials_train_timing.ran,block_id,ontime,forcedRT_resp.keys,forcedRT_resp.corr,forcedRT_resp.rt,trials.thisRepN,trials.thisTrialN,trials.thisN,trials.thisIndex,trials.ran,blocks.thisRepN,blocks.thisTrialN,blocks.thisN,blocks.thisIndex,blocks.ran
0,j,1,2.556800001,0,0,0,3,1,j.PNG,j,5b98d9362cca9c0001de161f,2021-10-19_12h47.31.130,forced_choiceRT,2021.1.2,Win32,59.89099838,,,,,,,,,,,,,,,,,,,,,,
0,f,1,2.4134,0,1,1,0,1,f.PNG,f,5b98d9362cca9c0001de161f,2021-10-19_12h47.31.130,forced_choiceRT,2021.1.2,Win32,59.89099838,,,,,,,,,,,,,,,,,,,,,,
0,g,0,1.8516,0,2,2,2,1,h.PNG,h,5b98d9362cca9c0001de161f,2021-10-19_12h47.31.130,forced_choiceRT,2021.1.2,Win32,59.89099838,,,,,,,,,,,,,,,,,,,,,,
0,j,1,3.7044,0,3,3,3,1,j.PNG,j,5b98d9362cca9c0001de161f,2021-10-19_12h47.31.130,forced_choiceRT,2021.1.2,Win32,59.89099838,,,,,,,,,,,,,,,,,,,,,,
0,h,1,2.854299999,1,0,4,2,1,h.PNG,h,5b98d9362cca9c0001de161f,2021-10-19_12h47.31.130,forced_choiceRT,2021.1.2,Win32,59.89099838,,,,,,,,,,,,,,,,,,,,,,
0,g,1,1.747,1,1,5,1,1,g.PNG,g,5b98d9362cca9c0001de161f,2021-10-19_12h47.31.130,forced_choiceRT,2021.1.2,Win32,59.89099838,,,,,,,,,,,,,,,,,,,,,,
0,j,1,2.8839,1,2,6,3,1,j.PNG,j,5b98d9362cca9c0001de161f,2021-10-19_12h47.31.130,forced_choiceRT,2021.1.2,Win32,59.89099838,,,,,,,,,,,,,,,,,,,,,,
0,f,1,1.7599,1,3,7,0,1,f.PNG,f,5b98d9362cca9c0001de161f,2021-10-19_12h47.31.130,forced_choiceRT,2021.1.2,Win32,59.89099838,,,,,,,,,,,,,,,,,,,,,,
0,h,1,2.1455,2,0,8,2,1,h.PNG,h,5b98d9362cca9c0001de161f,2021-10-19_12h47.31.130,forced_choiceRT,2021.1.2,Win32,59.89099838,,,,,,,,,,,,,,,,,,,,,,
0,g,1,1.548299999,2,1,9,1,1,g.PNG,g,5b98d9362cca9c0001de161f,2021-10-19_12h47.31.130,forced_choiceRT,2021.1.2,Win32,59.89099838,,,,,,,,,,,,,,,,,,,,,,
0,j,1,5.549,2,2,10,3,1,j.PNG,j,5b98d9362cca9c0001de161f,2021-10-19_12h47.31.130,forced_choiceRT,2021.1.2,Win32,59.89099838,,,,,,,,,,,,,,,,,,,,,,
0,h,1,1.414200001,2,3,11,2,1,h.PNG,h,5b98d9362cca9c0001de161f,2021-10-19_12h47.31.130,forced_choiceRT,2021.1.2,Win32,59.89099838,,,,,,,,,,,,,,,,,,,,,,
0,f,1,1.3569,3,0,12,0,1,f.PNG,f,5b98d9362cca9c0001de161f,2021-10-19_12h47.31.130,forced_choiceRT,2021.1.2,Win32,59.89099838,,,,,,,,,,,,,,,,,,,,,,
0,j,1,1.2859,3,1,13,3,1,j.PNG,j,5b98d9362cca9c0001de161f,2021-10-19_12h47.31.130,forced_choiceRT,2021.1.2,Win32,59.89099838,,,,,,,,,,,,,,,,,,,,,,
0,j,1,1.475700001,3,2,14,3,1,j.PNG,j,5b98d9362cca9c0001de161f,2021-10-19_12h47.31.130,forced_choiceRT,2021.1.2,Win32,59.89099838,,,,,,,,,,,,,,,,,,,,,,
0,j,1,1.190400002,3,3,15,3,1,j.PNG,j,5b98d9362cca9c0001de161f,2021-10-19_12h47.31.130,forced_choiceRT,2021.1.2,Win32,59.89099838,,,,,,,,,,,,,,,,,,,,,,
0,h,1,1.5681,4,0,16,2,1,h.PNG,h,5b98d9362cca9c0001de161f,2021-10-19_12h47.31.130,forced_choiceRT,2021.1.2,Win32,59.89099838,,,,,,,,,,,,,,,,,,,,,,
0,g,1,0.9594,4,1,17,1,1,g.PNG,g,5b98d9362cca9c0001de161f,2021-10-19_12h47.31.130,forced_choiceRT,2021.1.2,Win32,59.89099838,,,,,,,,,,,,,,,,,,,,,,
0,g,1,1.368199999,4,2,18,1,1,g.PNG,g,5b98d9362cca9c0001de161f,2021-10-19_12h47.31.130,forced_choiceRT,2021.1.2,Win32,59.89099838,,,,,,,,,,,,,,,,,,,,,,
0,h,1,1.6255,4,3,19,2,1,h.PNG,h,5b98d9362cca9c0001de161f,2021-10-19_12h47.31.130,forced_choiceRT,2021.1.2,Win32,59.89099838,,,,,,,,,,,,,,,,,,,,,,
0,f,1,0.9601,5,0,20,0,1,f.PNG,f,5b98d9362cca9c0001de161f,2021-10-19_12h47.31.130,forced_choiceRT,2021.1.2,Win32,59.89099838,,,,,,,,,,,,,,,,,,,,,,
0,j,1,0.9785,5,1,21,3,1,j.PNG,j,5b98d9362cca9c0001de161f,2021-10-19_12h47.31.130,forced_choiceRT,2021.1.2,Win32,59.89099838,,,,,,,,,,,,,,,,,,,,,,
0,j,1,1.114699999,5,2,22,3,1,j.PNG,j,5b98d9362cca9c0001de161f,2021-10-19_12h47.31.130,forced_choiceRT,2021.1.2,Win32,59.89099838,,,,,,,,,,,,,,,,,,,,,,
0,g,1,1.038,5,3,23,1,1,g.PNG,g,5b98d9362cca9c0001de161f,2021-10-19_12h47.31.130,forced_choiceRT,2021.1.2,Win32,59.89099838,,,,,,,,,,,,,,,,,,,,,,
0,h,1,1.3234,6,0,24,2,1,h.PNG,h,5b98d9362cca9c0001de161f,2021-10-19_12h47.31.130,forced_choiceRT,2021.1.2,Win32,59.89099838,,,,,,,,,,,,,,,,,,,,,,
0,h,1,1.7735,6,1,25,2,1,h.PNG,h,5b98d9362cca9c0001de161f,2021-10-19_12h47.31.130,forced_choiceRT,2021.1.2,Win32,59.89099838,,,,,,,,,,,,,,,,,,,,,,
0,j,1,1.2556,6,2,26,3,1,j.PNG,j,5b98d9362cca9c0001de161f,2021-10-19_12h47.31.130,forced_choiceRT,2021.1.2,Win32,59.89099838,,,,,,,,,,,,,,,,,,,,,,
0,h,1,1.5855,6,3,27,2,1,h.PNG,h,5b98d9362cca9c0001de161f,2021-10-19_12h47.31.130,forced_choiceRT,2021.1.2,Win32,59.89099838,,,,,,,,,,,,,,,,,,,,,,
0,f,1,1.059,7,0,28,0,1,f.PNG,f,5b98d9362cca9c0001de161f,2021-10-19_12h47.31.130,forced_choiceRT,2021.1.2,Win32,59.89099838,,,,,,,,,,,,,,,,,,,,,,
0,g,1,1.026200001,7,1,29,1,1,g.PNG,g,5b98d9362cca9c0001de161f,2021-10-19_12h47.31.130,forced_choiceRT,2021.1.2,Win32,59.89099838,,,,,,,,,,,,,,,,,,,,,,
0,f,1,1.1026,7,2,30,0,1,f.PNG,f,5b98d9362cca9c0001de161f,2021-10-19_12h47.31.130,forced_choiceRT,2021.1.2,Win32,59.89099838,,,,,,,,,,,,,,,,,,,,,,
0,g,1,1.034699999,7,3,31,1,1,g.PNG,g,5b98d9362cca9c0001de161f,2021-10-19_12h47.31.130,forced_choiceRT,2021.1.2,Win32,59.89099838,,,,,,,,,,,,,,,,,,,,,,
0,j,1,1.208900002,8,0,32,3,1,j.PNG,j,5b98d9362cca9c0001de161f,2021-10-19_12h47.31.130,forced_choiceRT,2021.1.2,Win32,59.89099838,,,,,,,,,,,,,,,,,,,,,,
0,f,1,1.025,8,1,33,0,1,f.PNG,f,5b98d9362cca9c0001de161f,2021-10-19_12h47.31.130,forced_choiceRT,2021.1.2,Win32,59.89099838,,,,,,,,,,,,,,,,,,,,,,
0,f,1,0.982599998,8,2,34,0,1,f.PNG,f,5b98d9362cca9c0001de161f,2021-10-19_12h47.31.130,forced_choiceRT,2021.1.2,Win32,59.89099838,,,,,,,,,,,,,,,,,,,,,,
0,j,1,1.0634,8,3,35,3,1,j.PNG,j,5b98d9362cca9c0001de161f,2021-10-19_12h47.31.130,forced_choiceRT,2021.1.2,Win32,59.89099838,,,,,,,,,,,,,,,,,,,,,,
0,h,1,1.308700001,9,0,36,2,1,h.PNG,h,5b98d9362cca9c0001de161f,2021-10-19_12h47.31.130,forced_choiceRT,2021.1.2,Win32,59.89099838,,,,,,,,,,,,,,,,,,,,,,
0,f,1,1.198799999,9,1,37,0,1,f.PNG,f,5b98d9362cca9c0001de161f,2021-10-19_12h47.31.130,forced_choiceRT,2021.1.2,Win32,59.89099838,,,,,,,,,,,,,,,,,,,,,,
0,g,1,1.143800001,9,2,38,1,1,g.PNG,g,5b98d9362cca9c0001de161f,2021-10-19_12h47.31.130,forced_choiceRT,2021.1.2,Win32,59.89099838,,,,,,,,,,,,,,,,,,,,,,
0,f,1,1.024300001,9,3,39,0,1,f.PNG,f,5b98d9362cca9c0001de161f,2021-10-19_12h47.31.130,forced_choiceRT,2021.1.2,Win32,59.89099838,,,,,,,,,,,,,,,,,,,,,,
0,f,1,1.0396,10,0,40,0,1,f.PNG,f,5b98d9362cca9c0001de161f,2021-10-19_12h47.31.130,forced_choiceRT,2021.1.2,Win32,59.89099838,,,,,,,,,,,,,,,,,,,,,,
0,f,1,0.901199999,10,1,41,0,1,f.PNG,f,5b98d9362cca9c0001de161f,2021-10-19_12h47.31.130,forced_choiceRT,2021.1.2,Win32,59.89099838,,,,,,,,,,,,,,,,,,,,,,
0,g,1,1.040700001,10,2,42,1,1,g.PNG,g,5b98d9362cca9c0001de161f,2021-10-19_12h47.31.130,forced_choiceRT,2021.1.2,Win32,59.89099838,,,,,,,,,,,,,,,,,,,,,,
0,f,1,0.8894,10,3,43,0,1,f.PNG,f,5b98d9362cca9c0001de161f,2021-10-19_12h47.31.130,forced_choiceRT,2021.1.2,Win32,59.89099838,,,,,,,,,,,,,,,,,,,,,,
0,g,1,0.986299999,11,0,44,1,1,g.PNG,g,5b98d9362cca9c0001de161f,2021-10-19_12h47.31.130,forced_choiceRT,2021.1.2,Win32,59.89099838,,,,,,,,,,,,,,,,,,,,,,
0,g,1,1.1224,11,1,45,1,1,g.PNG,g,5b98d9362cca9c0001de161f,2021-10-19_12h47.31.130,forced_choiceRT,2021.1.2,Win32,59.89099838,,,,,,,,,,,,,,,,,,,,,,
0,j,1,1.0606,11,2,46,3,1,j.PNG,j,5b98d9362cca9c0001de161f,2021-10-19_12h47.31.130,forced_choiceRT,2021.1.2,Win32,59.89099838,,,,,,,,,,,,,,,,,,,,,,
0,h,1,1.193299999,11,3,47,2,1,h.PNG,h,5b98d9362cca9c0001de161f,2021-10-19_12h47.31.130,forced_choiceRT,2021.1.2,Win32,59.89099838,,,,,,,,,,,,,,,,,,,,,,
0,g,1,0.8424,12,0,48,1,1,g.PNG,g,5b98d9362cca9c0001de161f,2021-10-19_12h47.31.130,forced_choiceRT,2021.1.2,Win32,59.89099838,,,,,,,,,,,,,,,,,,,,,,
0,j,1,1.096299999,12,1,49,3,1,j.PNG,j,5b98d9362cca9c0001de161f,2021-10-19_12h47.31.130,forced_choiceRT,2021.1.2,Win32,59.89099838,,,,,,,,,,,,,,,,,,,,,,
0,j,1,0.919,12,2,50,3,1,j.PNG,j,5b98d9362cca9c0001de161f,2021-10-19_12h47.31.130,forced_choiceRT,2021.1.2,Win32,59.89099838,,,,,,,,,,,,,,,,,,,,,,
0,h,1,1.5345,12,3,51,2,1,h.PNG,h,5b98d9362cca9c0001de161f,2021-10-19_12h47.31.130,forced_choiceRT,2021.1.2,Win32,59.89099838,,,,,,,,,,,,,,,,,,,,,,
0,f,1,1.041,13,0,52,0,1,f.PNG,f,5b98d9362cca9c0001de161f,2021-10-19_12h47.31.130,forced_choiceRT,2021.1.2,Win32,59.89099838,,,,,,,,,,,,,,,,,,,,,,
0,g,1,0.9505,13,1,53,1,1,g.PNG,g,5b98d9362cca9c0001de161f,2021-10-19_12h47.31.130,forced_choiceRT,2021.1.2,Win32,59.89099838,,,,,,,,,,,,,,,,,,,,,,
0,g,1,1.103700001,13,2,54,1,1,g.PNG,g,5b98d9362cca9c0001de161f,2021-10-19_12h47.31.130,forced_choiceRT,2021.1.2,Win32,59.89099838,,,,,,,,,,,,,,,,,,,,,,
0,f,1,0.843,13,3,55,0,1,f.PNG,f,5b98d9362cca9c0001de161f,2021-10-19_12h47.31.130,forced_choiceRT,2021.1.2,Win32,59.89099838,,,,,,,,,,,,,,,,,,,,,,
0,h,1,1.201299999,14,0,56,2,1,h.PNG,h,5b98d9362cca9c0001de161f,2021-10-19_12h47.31.130,forced_choiceRT,2021.1.2,Win32,59.89099838,,,,,,,,,,,,,,,,,,,,,,
0,h,1,0.8101,14,1,57,2,1,h.PNG,h,5b98d9362cca9c0001de161f,2021-10-19_12h47.31.130,forced_choiceRT,2021.1.2,Win32,59.89099838,,,,,,,,,,,,,,,,,,,,,,
0,g,1,0.792199999,14,2,58,1,1,g.PNG,g,5b98d9362cca9c0001de161f,2021-10-19_12h47.31.130,forced_choiceRT,2021.1.2,Win32,59.89099838,,,,,,,,,,,,,,,,,,,,,,
0,h,1,1.128,14,3,59,2,1,h.PNG,h,5b98d9362cca9c0001de161f,2021-10-19_12h47.31.130,forced_choiceRT,2021.1.2,Win32,59.89099838,,,,,,,,,,,,,,,,,,,,,,
,,,,,,,,,,,5b98d9362cca9c0001de161f,2021-10-19_12h47.31.130,forced_choiceRT,2021.1.2,Win32,59.89099838,f,2.253699999,0,0,0,0,1,,,,,,,,,,,,,,,
,,,,,,,,,,,5b98d9362cca9c0001de161f,2021-10-19_12h47.31.130,forced_choiceRT,2021.1.2,Win32,59.89099838,f,1.778200001,1,0,1,0,1,,,,,,,,,,,,,,,
,,,,,,,,,,,5b98d9362cca9c0001de161f,2021-10-19_12h47.31.130,forced_choiceRT,2021.1.2,Win32,59.89099838,f,2.2394,2,0,2,0,1,,,,,,,,,,,,,,,
,,,,,,,,,,,5b98d9362cca9c0001de161f,2021-10-19_12h47.31.130,forced_choiceRT,2021.1.2,Win32,59.89099838,f,2.1545,3,0,3,0,1,,,,,,,,,,,,,,,
,,,,,,,,,,,5b98d9362cca9c0001de161f,2021-10-19_12h47.31.130,forced_choiceRT,2021.1.2,Win32,59.89099838,f,2.057200001,4,0,4,0,1,,,,,,,,,,,,,,,
,,,,,,,,,,,5b98d9362cca9c0001de161f,2021-10-19_12h47.31.130,forced_choiceRT,2021.1.2,Win32,59.89099838,f,2.182699999,5,0,5,0,1,,,,,,,,,,,,,,,
,,,,,,,,,,,5b98d9362cca9c0001de161f,2021-10-19_12h47.31.130,forced_choiceRT,2021.1.2,Win32,59.89099838,f,2.1134,6,0,6,0,1,,,,,,,,,,,,,,,
,,,,,,,,,,,5b98d9362cca9c0001de161f,2021-10-19_12h47.31.130,forced_choiceRT,2021.1.2,Win32,59.89099838,f,2.058200001,7,0,7,0,1,,,,,,,,,,,,,,,
,,,,,,,,,,,5b98d9362cca9c0001de161f,2021-10-19_12h47.31.130,forced_choiceRT,2021.1.2,Win32,59.89099838,f,2.0635,8,0,8,0,1,,,,,,,,,,,,,,,
,,,,,,,,,,,5b98d9362cca9c0001de161f,2021-10-19_12h47.31.130,forced_choiceRT,2021.1.2,Win32,59.89099838,f,2.1505,9,0,9,0,1,,,,,,,,,,,,,,,
,,,,,,,,,,,5b98d9362cca9c0001de161f,2021-10-19_12h47.31.130,forced_choiceRT,2021.1.2,Win32,59.89099838,f,2.058300001,10,0,10,0,1,,,,,,,,,,,,,,,
,,,,,,,,,,,5b98d9362cca9c0001de161f,2021-10-19_12h47.31.130,forced_choiceRT,2021.1.2,Win32,59.89099838,f,2.124799999,11,0,11,0,1,,,,,,,,,,,,,,,
,,,,,,,,,,,5b98d9362cca9c0001de161f,2021-10-19_12h47.31.130,forced_choiceRT,2021.1.2,Win32,59.89099838,f,2.0539,12,0,12,0,1,,,,,,,,,,,,,,,
,,,,,,,,,,,5b98d9362cca9c0001de161f,2021-10-19_12h47.31.130,forced_choiceRT,2021.1.2,Win32,59.89099838,f,2.0266,13,0,13,0,1,,,,,,,,,,,,,,,
,,,,,,,,,,,5b98d9362cca9c0001de161f,2021-10-19_12h47.31.130,forced_choiceRT,2021.1.2,Win32,59.89099838,f,2.042300001,14,0,14,0,1,,,,,,,,,,,,,,,
,,,,,,,,,,,5b98d9362cca9c0001de161f,2021-10-19_12h47.31.130,forced_choiceRT,2021.1.2,Win32,59.89099838,f,1.984800001,15,0,15,0,1,,,,,,,,,,,,,,,
,,,,,,,,,,,5b98d9362cca9c0001de161f,2021-10-19_12h47.31.130,forced_choiceRT,2021.1.2,Win32,59.89099838,f,2.0976,16,0,16,0,1,,,,,,,,,,,,,,,
,,,,,,,,,,,5b98d9362cca9c0001de161f,2021-10-19_12h47.31.130,forced_choiceRT,2021.1.2,Win32,59.89099838,f,2.0594,17,0,17,0,1,,,,,,,,,,,,,,,
,,,,,,,,,,,5b98d9362cca9c0001de161f,2021-10-19_12h47.31.130,forced_choiceRT,2021.1.2,Win32,59.89099838,f,2.121099998,18,0,18,0,1,,,,,,,,,,,,,,,
,,,,,,,,,,,5b98d9362cca9c0001de161f,2021-10-19_12h47.31.130,forced_choiceRT,2021.1.2,Win32,59.89099838,f,2.107700001,19,0,19,0,1,,,,,,,,,,,,,,,
1.45,,,,,,,,,h.PNG,h,5b98d9362cca9c0001de161f,2021-10-19_12h47.31.130,forced_choiceRT,2021.1.2,Win32,59.89099838,,,,,,,,1,Ontime,f,0,1.914699999,0,0,0,2,1,,,,,
0.34,,,,,,,,,j.PNG,j,5b98d9362cca9c0001de161f,2021-10-19_12h47.31.130,forced_choiceRT,2021.1.2,Win32,59.89099838,,,,,,,,1,Slow,j,1,2.1039,0,1,1,3,1,,,,,
1.02,,,,,,,,,h.PNG,h,5b98d9362cca9c0001de161f,2021-10-19_12h47.31.130,forced_choiceRT,2021.1.2,Win32,59.89099838,,,,,,,,1,Slow,h,1,2.2121,0,2,2,2,1,,,,,
0.78,,,,,,,,,h.PNG,h,5b98d9362cca9c0001de161f,2021-10-19_12h47.31.130,forced_choiceRT,2021.1.2,Win32,59.89099838,,,,,,,,1,Fast,h,1,1.899799999,0,3,3,2,1,,,,,
0.45,,,,,,,,,j.PNG,j,5b98d9362cca9c0001de161f,2021-10-19_12h47.31.130,forced_choiceRT,2021.1.2,Win32,59.89099838,,,,,,,,1,Slow,j,1,2.221200001,1,0,4,3,1,,,,,
0.99,,,,,,,,,f.PNG,f,5b98d9362cca9c0001de161f,2021-10-19_12h47.31.130,forced_choiceRT,2021.1.2,Win32,59.89099838,,,,,,,,1,Slow,f,1,2.171699999,1,1,5,0,1,,,,,
1.53,,,,,,,,,g.PNG,g,5b98d9362cca9c0001de161f,2021-10-19_12h47.31.130,forced_choiceRT,2021.1.2,Win32,59.89099838,,,,,,,,1,Ontime,f,0,2.091699999,1,2,6,1,1,,,,,
0.61,,,,,,,,,h.PNG,h,5b98d9362cca9c0001de161f,2021-10-19_12h47.31.130,forced_choiceRT,2021.1.2,Win32,59.89099838,,,,,,,,1,Ontime,h,1,1.927699999,1,3,7,2,1,,,,,
0.64,,,,,,,,,h.PNG,h,5b98d9362cca9c0001de161f,2021-10-19_12h47.31.130,forced_choiceRT,2021.1.2,Win32,59.89099838,,,,,,,,1,Ontime,j,0,1.9841,2,0,8,2,1,,,,,
0.03,,,,,,,,,g.PNG,g,5b98d9362cca9c0001de161f,2021-10-19_12h47.31.130,forced_choiceRT,2021.1.2,Win32,59.89099838,,,,,,,,1,Fast,g,1,1.818700001,2,1,9,1,1,,,,,
1.97,,,,,,,,,j.PNG,j,5b98d9362cca9c0001de161f,2021-10-19_12h47.31.130,forced_choiceRT,2021.1.2,Win32,59.89099838,,,,,,,,1,Ontime,g,0,2.071700001,2,2,10,3,1,,,,,
1.65,,,,,,,,,f.PNG,f,5b98d9362cca9c0001de161f,2021-10-19_12h47.31.130,forced_choiceRT,2021.1.2,Win32,59.89099838,,,,,,,,1,Ontime,h,0,2.0874,2,3,11,0,1,,,,,
0.61,,,,,,,,,h.PNG,h,5b98d9362cca9c0001de161f,2021-10-19_12h47.31.130,forced_choiceRT,2021.1.2,Win32,59.89099838,,,,,,,,1,Ontime,h,1,2.0675,3,0,12,2,1,,,,,
0.97,,,,,,,,,h.PNG,h,5b98d9362cca9c0001de161f,2021-10-19_12h47.31.130,forced_choiceRT,2021.1.2,Win32,59.89099838,,,,,,,,1,Slow,h,1,2.166400002,3,1,13,2,1,,,,,
0.05,,,,,,,,,g.PNG,g,5b98d9362cca9c0001de161f,2021-10-19_12h47.31.130,forced_choiceRT,2021.1.2,Win32,59.89099838,,,,,,,,1,Fast,g,1,1.831799999,3,2,14,1,1,,,,,
0.25,,,,,,,,,j.PNG,j,5b98d9362cca9c0001de161f,2021-10-19_12h47.31.130,forced_choiceRT,2021.1.2,Win32,59.89099838,,,,,,,,1,Ontime,j,1,1.973299999,3,3,15,3,1,,,,,
1.58,,,,,,,,,g.PNG,g,5b98d9362cca9c0001de161f,2021-10-19_12h47.31.130,forced_choiceRT,2021.1.2,Win32,59.89099838,,,,,,,,1,Ontime,j,0,1.9736,4,0,16,1,1,,,,,
0.63,,,,,,,,,f.PNG,f,5b98d9362cca9c0001de161f,2021-10-19_12h47.31.130,forced_choiceRT,2021.1.2,Win32,59.89099838,,,,,,,,1,Ontime,f,1,2.048300001,4,1,17,0,1,,,,,
0.03,,,,,,,,,f.PNG,f,5b98d9362cca9c0001de161f,2021-10-19_12h47.31.130,forced_choiceRT,2021.1.2,Win32,59.89099838,,,,,,,,1,Fast,f,1,1.782699999,4,2,18,0,1,,,,,
0.55,,,,,,,,,f.PNG,f,5b98d9362cca9c0001de161f,2021-10-19_12h47.31.130,forced_choiceRT,2021.1.2,Win32,59.89099838,,,,,,,,1,Ontime,f,1,1.983300001,4,3,19,0,1,,,,,
0.31,,,,,,,,,g.PNG,g,5b98d9362cca9c0001de161f,2021-10-19_12h47.31.130,forced_choiceRT,2021.1.2,Win32,59.89099838,,,,,,,,1,Fast,g,1,1.774700001,5,0,20,1,1,,,,,
0.09,,,,,,,,,f.PNG,f,5b98d9362cca9c0001de161f,2021-10-19_12h47.31.130,forced_choiceRT,2021.1.2,Win32,59.89099838,,,,,,,,1,Ontime,f,1,2.045,5,1,21,0,1,,,,,
0.42,,,,,,,,,g.PNG,g,5b98d9362cca9c0001de161f,2021-10-19_12h47.31.130,forced_choiceRT,2021.1.2,Win32,59.89099838,,,,,,,,1,Ontime,g,1,1.9626,5,2,22,1,1,,,,,
1.29,,,,,,,,,f.PNG,f,5b98d9362cca9c0001de161f,2021-10-19_12h47.31.130,forced_choiceRT,2021.1.2,Win32,59.89099838,,,,,,,,1,Slow,f,1,2.101,5,3,23,0,1,,,,,
0.36,,,,,,,,,j.PNG,j,5b98d9362cca9c0001de161f,2021-10-19_12h47.31.130,forced_choiceRT,2021.1.2,Win32,59.89099838,,,,,,,,1,Slow,j,1,2.150700001,6,0,24,3,1,,,,,
0.04,,,,,,,,,j.PNG,j,5b98d9362cca9c0001de161f,2021-10-19_12h47.31.130,forced_choiceRT,2021.1.2,Win32,59.89099838,,,,,,,,1,Ontime,j,1,2.015800001,6,1,25,3,1,,,,,
1.05,,,,,,,,,j.PNG,j,5b98d9362cca9c0001de161f,2021-10-19_12h47.31.130,forced_choiceRT,2021.1.2,Win32,59.89099838,,,,,,,,1,Slow,j,1,2.191799999,6,2,26,3,1,,,,,
1.3,,,,,,,,,h.PNG,h,5b98d9362cca9c0001de161f,2021-10-19_12h47.31.130,forced_choiceRT,2021.1.2,Win32,59.89099838,,,,,,,,1,Slow,j,0,2.237900002,6,3,27,2,1,,,,,
1.78,,,,,,,,,g.PNG,g,5b98d9362cca9c0001de161f,2021-10-19_12h47.31.130,forced_choiceRT,2021.1.2,Win32,59.89099838,,,,,,,,1,Ontime,j,0,1.9396,7,0,28,1,1,,,,,
0.86,,,,,,,,,j.PNG,j,5b98d9362cca9c0001de161f,2021-10-19_12h47.31.130,forced_choiceRT,2021.1.2,Win32,59.89099838,,,,,,,,1,Ontime,j,1,2.032800001,7,1,29,3,1,,,,,
1.58,,,,,,,,,g.PNG,g,5b98d9362cca9c0001de161f,2021-10-19_12h47.31.130,forced_choiceRT,2021.1.2,Win32,59.89099838,,,,,,,,1,Slow,g,1,2.195900002,7,2,30,1,1,,,,,
0.34,,,,,,,,,g.PNG,g,5b98d9362cca9c0001de161f,2021-10-19_12h47.31.130,forced_choiceRT,2021.1.2,Win32,59.89099838,,,,,,,,1,Fast,g,1,1.811800001,7,3,31,1,1,,,,,
0.55,,,,,,,,,j.PNG,j,5b98d9362cca9c0001de161f,2021-10-19_12h47.31.130,forced_choiceRT,2021.1.2,Win32,59.89099838,,,,,,,,1,Ontime,h,0,1.966,8,0,32,3,1,,,,,
0.26,,,,,,,,,g.PNG,g,5b98d9362cca9c0001de161f,2021-10-19_12h47.31.130,forced_choiceRT,2021.1.2,Win32,59.89099838,,,,,,,,1,Fast,g,1,1.803299999,8,1,33,1,1,,,,,
1.43,,,,,,,,,h.PNG,h,5b98d9362cca9c0001de161f,2021-10-19_12h47.31.130,forced_choiceRT,2021.1.2,Win32,59.89099838,,,,,,,,1,Slow,j,0,2.1629,8,2,34,2,1,,,,,
1.69,,,,,,,,,f.PNG,f,5b98d9362cca9c0001de161f,2021-10-19_12h47.31.130,forced_choiceRT,2021.1.2,Win32,59.89099838,,,,,,,,1,Slow,g,0,2.3414,8,3,35,0,1,,,,,
0.69,,,,,,,,,f.PNG,f,5b98d9362cca9c0001de161f,2021-10-19_12h47.31.130,forced_choiceRT,2021.1.2,Win32,59.89099838,,,,,,,,1,Ontime,f,1,1.9579,9,0,36,0,1,,,,,
0.04,,,,,,,,,h.PNG,h,5b98d9362cca9c0001de161f,2021-10-19_12h47.31.130,forced_choiceRT,2021.1.2,Win32,59.89099838,,,,,,,,1,Fast,h,1,1.886799999,9,1,37,2,1,,,,,
1.01,,,,,,,,,j.PNG,j,5b98d9362cca9c0001de161f,2021-10-19_12h47.31.130,forced_choiceRT,2021.1.2,Win32,59.89099838,,,,,,,,1,Ontime,j,1,1.972700001,9,2,38,3,1,,,,,
0.94,,,,,,,,,f.PNG,f,5b98d9362cca9c0001de161f,2021-10-19_12h47.31.130,forced_choiceRT,2021.1.2,Win32,59.89099838,,,,,,,,1,Fast,f,1,1.883200001,9,3,39,0,1,,,,,
,,,,,,,,,,,5b98d9362cca9c0001de161f,2021-10-19_12h47.31.130,forced_choiceRT,2021.1.2,Win32,59.89099838,,,,,,,,,,,,,,,,,,0,0,0,0,1
0.45,,,,,,,,,g.PNG,g,5b98d9362cca9c0001de161f,2021-10-19_12h47.31.130,forced_choiceRT,2021.1.2,Win32,59.89099838,,,,,,,,2,Fast,g,1,1.723299999,0,0,0,1,1,,,,,
0.03,,,,,,,,,g.PNG,g,5b98d9362cca9c0001de161f,2021-10-19_12h47.31.130,forced_choiceRT,2021.1.2,Win32,59.89099838,,,,,,,,2,Ontime,g,1,1.9714,0,1,1,1,1,,,,,
1.23,,,,,,,,,j.PNG,j,5b98d9362cca9c0001de161f,2021-10-19_12h47.31.130,forced_choiceRT,2021.1.2,Win32,59.89099838,,,,,,,,2,Slow,j,1,2.277099998,0,2,2,3,1,,,,,
0.89,,,,,,,,,j.PNG,j,5b98d9362cca9c0001de161f,2021-10-19_12h47.31.130,forced_choiceRT,2021.1.2,Win32,59.89099838,,,,,,,,2,Ontime,j,1,2.066,0,3,3,3,1,,,,,
1.29,,,,,,,,,g.PNG,g,5b98d9362cca9c0001de161f,2021-10-19_12h47.31.130,forced_choiceRT,2021.1.2,Win32,59.89099838,,,,,,,,2,Slow,g,1,2.100299999,1,0,4,1,1,,,,,
0.61,,,,,,,,,h.PNG,h,5b98d9362cca9c0001de161f,2021-10-19_12h47.31.130,forced_choiceRT,2021.1.2,Win32,59.89099838,,,,,,,,2,Ontime,h,1,1.968299999,1,1,5,2,1,,,,,
1.28,,,,,,,,,h.PNG,h,5b98d9362cca9c0001de161f,2021-10-19_12h47.31.130,forced_choiceRT,2021.1.2,Win32,59.89099838,,,,,,,,2,Ontime,h,1,2.0219,1,2,6,2,1,,,,,
0.02,,,,,,,,,g.PNG,g,5b98d9362cca9c0001de161f,2021-10-19_12h47.31.130,forced_choiceRT,2021.1.2,Win32,59.89099838,,,,,,,,2,Ontime,g,1,1.943199999,1,3,7,1,1,,,,,
0.06,,,,,,,,,j.PNG,j,5b98d9362cca9c0001de161f,2021-10-19_12h47.31.130,forced_choiceRT,2021.1.2,Win32,59.89099838,,,,,,,,2,Fast,j,1,1.8025,2,0,8,3,1,,,,,
1.74,,,,,,,,,f.PNG,f,5b98d9362cca9c0001de161f,2021-10-19_12h47.31.130,forced_choiceRT,2021.1.2,Win32,59.89099838,,,,,,,,2,Slow,g,0,2.336,2,1,9,0,1,,,,,
0.84,,,,,,,,,h.PNG,h,5b98d9362cca9c0001de161f,2021-10-19_12h47.31.130,forced_choiceRT,2021.1.2,Win32,59.89099838,,,,,,,,2,Ontime,h,1,1.970700001,2,2,10,2,1,,,,,
0.02,,,,,,,,,f.PNG,f,5b98d9362cca9c0001de161f,2021-10-19_12h47.31.130,forced_choiceRT,2021.1.2,Win32,59.89099838,,,,,,,,2,Slow,f,1,2.124099998,2,3,11,0,1,,,,,
1.57,,,,,,,,,g.PNG,g,5b98d9362cca9c0001de161f,2021-10-19_12h47.31.130,forced_choiceRT,2021.1.2,Win32,59.89099838,,,,,,,,2,Slow,g,1,2.2849,3,0,12,1,1,,,,,
1.65,,,,,,,,,j.PNG,j,5b98d9362cca9c0001de161f,2021-10-19_12h47.31.130,forced_choiceRT,2021.1.2,Win32,59.89099838,,,,,,,,2,Slow,f,0,2.2171,3,1,13,3,1,,,,,
1.12,,,,,,,,,j.PNG,j,5b98d9362cca9c0001de161f,2021-10-19_12h47.31.130,forced_choiceRT,2021.1.2,Win32,59.89099838,,,,,,,,2,Ontime,j,1,2.0095,3,2,14,3,1,,,,,
1.44,,,,,,,,,j.PNG,j,5b98d9362cca9c0001de161f,2021-10-19_12h47.31.130,forced_choiceRT,2021.1.2,Win32,59.89099838,,,,,,,,2,Slow,j,1,2.1355,3,3,15,3,1,,,,,
0.99,,,,,,,,,h.PNG,h,5b98d9362cca9c0001de161f,2021-10-19_12h47.31.130,forced_choiceRT,2021.1.2,Win32,59.89099838,,,,,,,,2,Fast,h,1,1.873200001,4,0,16,2,1,,,,,
1.84,,,,,,,,,h.PNG,h,5b98d9362cca9c0001de161f,2021-10-19_12h47.31.130,forced_choiceRT,2021.1.2,Win32,59.89099838,,,,,,,,2,Slow,h,1,3.879200001,4,1,17,2,1,,,,,
0.5,,,,,,,,,h.PNG,h,5b98d9362cca9c0001de161f,2021-10-19_12h47.31.130,forced_choiceRT,2021.1.2,Win32,59.89099838,,,,,,,,2,Fast,h,1,1.8739,4,2,18,2,1,,,,,
1.05,,,,,,,,,j.PNG,j,5b98d9362cca9c0001de161f,2021-10-19_12h47.31.130,forced_choiceRT,2021.1.2,Win32,59.89099838,,,,,,,,2,Slow,j,1,2.359799999,4,3,19,3,1,,,,,
0.09,,,,,,,,,f.PNG,f,5b98d9362cca9c0001de161f,2021-10-19_12h47.31.130,forced_choiceRT,2021.1.2,Win32,59.89099838,,,,,,,,2,Ontime,f,1,2.0256,5,0,20,0,1,,,,,
1.84,,,,,,,,,f.PNG,f,5b98d9362cca9c0001de161f,2021-10-19_12h47.31.130,forced_choiceRT,2021.1.2,Win32,59.89099838,,,,,,,,2,Slow,f,1,2.3821,5,1,21,0,1,,,,,
1.91,,,,,,,,,g.PNG,g,5b98d9362cca9c0001de161f,2021-10-19_12h47.31.130,forced_choiceRT,2021.1.2,Win32,59.89099838,,,,,,,,2,Slow,g,1,3.0876,5,2,22,1,1,,,,,
1.84,,,,,,,,,g.PNG,g,5b98d9362cca9c0001de161f,2021-10-19_12h47.31.130,forced_choiceRT,2021.1.2,Win32,59.89099838,,,,,,,,2,Slow,g,1,2.3954,5,3,23,1,1,,,,,
0.09,,,,,,,,,j.PNG,j,5b98d9362cca9c0001de161f,2021-10-19_12h47.31.130,forced_choiceRT,2021.1.2,Win32,59.89099838,,,,,,,,2,Fast,j,1,1.8995,6,0,24,3,1,,,,,
1.7,,,,,,,,,f.PNG,f,5b98d9362cca9c0001de161f,2021-10-19_12h47.31.130,forced_choiceRT,2021.1.2,Win32,59.89099838,,,,,,,,2,Slow,g,0,2.3169,6,1,25,0,1,,,,,
1.64,,,,,,,,,f.PNG,f,5b98d9362cca9c0001de161f,2021-10-19_12h47.31.130,forced_choiceRT,2021.1.2,Win32,59.89099838,,,,,,,,2,Slow,f,1,2.137800001,6,2,26,0,1,,,,,
0.97,,,,,,,,,h.PNG,h,5b98d9362cca9c0001de161f,2021-10-19_12h47.31.130,forced_choiceRT,2021.1.2,Win32,59.89099838,,,,,,,,2,Ontime,h,1,1.9619,6,3,27,2,1,,,,,
0.09,,,,,,,,,h.PNG,h,5b98d9362cca9c0001de161f,2021-10-19_12h47.31.130,forced_choiceRT,2021.1.2,Win32,59.89099838,,,,,,,,2,Ontime,h,1,1.955,7,0,28,2,1,,,,,
1.53,,,,,,,,,f.PNG,f,5b98d9362cca9c0001de161f,2021-10-19_12h47.31.130,forced_choiceRT,2021.1.2,Win32,59.89099838,,,,,,,,2,Slow,f,1,2.159299999,7,1,29,0,1,,,,,
0.87,,,,,,,,,j.PNG,j,5b98d9362cca9c0001de161f,2021-10-19_12h47.31.130,forced_choiceRT,2021.1.2,Win32,59.89099838,,,,,,,,2,Fast,j,1,1.788400002,7,2,30,3,1,,,,,
1.51,,,,,,,,,g.PNG,g,5b98d9362cca9c0001de161f,2021-10-19_12h47.31.130,forced_choiceRT,2021.1.2,Win32,59.89099838,,,,,,,,2,Slow,g,1,2.2009,7,3,31,1,1,,,,,
1.58,,,,,,,,,f.PNG,f,5b98d9362cca9c0001de161f,2021-10-19_12h47.31.130,forced_choiceRT,2021.1.2,Win32,59.89099838,,,,,,,,2,Slow,f,1,2.190300001,8,0,32,0,1,,,,,
1.22,,,,,,,,,f.PNG,f,5b98d9362cca9c0001de161f,2021-10-19_12h47.31.130,forced_choiceRT,2021.1.2,Win32,59.89099838,,,,,,,,2,Fast,f,1,1.828200001,8,1,33,0,1,,,,,
1.85,,,,,,,,,f.PNG,f,5b98d9362cca9c0001de161f,2021-10-19_12h47.31.130,forced_choiceRT,2021.1.2,Win32,59.89099838,,,,,,,,2,Slow,f,1,2.2591,8,2,34,0,1,,,,,
1.05,,,,,,,,,j.PNG,j,5b98d9362cca9c0001de161f,2021-10-19_12h47.31.130,forced_choiceRT,2021.1.2,Win32,59.89099838,,,,,,,,2,Ontime,j,1,2.0015,8,3,35,3,1,,,,,
1.27,,,,,,,,,h.PNG,h,5b98d9362cca9c0001de161f,2021-10-19_12h47.31.130,forced_choiceRT,2021.1.2,Win32,59.89099838,,,,,,,,2,Slow,h,1,2.1034,9,0,36,2,1,,,,,
0.95,,,,,,,,,g.PNG,g,5b98d9362cca9c0001de161f,2021-10-19_12h47.31.130,forced_choiceRT,2021.1.2,Win32,59.89099838,,,,,,,,2,Fast,g,1,1.8185,9,1,37,1,1,,,,,
1.36,,,,,,,,,h.PNG,h,5b98d9362cca9c0001de161f,2021-10-19_12h47.31.130,forced_choiceRT,2021.1.2,Win32,59.89099838,,,,,,,,2,Slow,g,0,2.364700001,9,2,38,2,1,,,,,
1.2,,,,,,,,,g.PNG,g,5b98d9362cca9c0001de161f,2021-10-19_12h47.31.130,forced_choiceRT,2021.1.2,Win32,59.89099838,,,,,,,,2,Ontime,g,1,2.001799999,9,3,39,1,1,,,,,
,,,,,,,,,,,5b98d9362cca9c0001de161f,2021-10-19_12h47.31.130,forced_choiceRT,2021.1.2,Win32,59.89099838,,,,,,,,,,,,,,,,,,1,0,1,0,1
0.97,,,,,,,,,j.PNG,j,5b98d9362cca9c0001de161f,2021-10-19_12h47.31.130,forced_choiceRT,2021.1.2,Win32,59.89099838,,,,,,,,3,Ontime,j,1,1.989200001,0,0,0,3,1,,,,,
1.33,,,,,,,,,j.PNG,j,5b98d9362cca9c0001de161f,2021-10-19_12h47.31.130,forced_choiceRT,2021.1.2,Win32,59.89099838,,,,,,,,3,Slow,j,1,2.1745,0,1,1,3,1,,,,,
0.49,,,,,,,,,h.PNG,h,5b98d9362cca9c0001de161f,2021-10-19_12h47.31.130,forced_choiceRT,2021.1.2,Win32,59.89099838,,,,,,,,3,Fast,h,1,1.870400002,0,2,2,2,1,,,,,
0.68,,,,,,,,,g.PNG,g,5b98d9362cca9c0001de161f,2021-10-19_12h47.31.130,forced_choiceRT,2021.1.2,Win32,59.89099838,,,,,,,,3,Ontime,g,1,2.0655,0,3,3,1,1,,,,,
0.32,,,,,,,,,f.PNG,f,5b98d9362cca9c0001de161f,2021-10-19_12h47.31.130,forced_choiceRT,2021.1.2,Win32,59.89099838,,,,,,,,3,Fast,f,1,1.79,1,0,4,0,1,,,,,
0.75,,,,,,,,,f.PNG,f,5b98d9362cca9c0001de161f,2021-10-19_12h47.31.130,forced_choiceRT,2021.1.2,Win32,59.89099838,,,,,,,,3,Ontime,f,1,2.024699999,1,1,5,0,1,,,,,
1.13,,,,,,,,,g.PNG,g,5b98d9362cca9c0001de161f,2021-10-19_12h47.31.130,forced_choiceRT,2021.1.2,Win32,59.89099838,,,,,,,,3,Ontime,g,1,2.035199999,1,2,6,1,1,,,,,
1.98,,,,,,,,,g.PNG,g,5b98d9362cca9c0001de161f,2021-10-19_12h47.31.130,forced_choiceRT,2021.1.2,Win32,59.89099838,,,,,,,,3,Slow,h,0,2.418299999,1,3,7,1,1,,,,,
0.33,,,,,,,,,f.PNG,f,5b98d9362cca9c0001de161f,2021-10-19_12h47.31.130,forced_choiceRT,2021.1.2,Win32,59.89099838,,,,,,,,3,Ontime,f,1,2.017200001,2,0,8,0,1,,,,,
1.68,,,,,,,,,h.PNG,h,5b98d9362cca9c0001de161f,2021-10-19_12h47.31.130,forced_choiceRT,2021.1.2,Win32,59.89099838,,,,,,,,3,Slow,h,1,2.215299999,2,1,9,2,1,,,,,
1.36,,,,,,,,,h.PNG,h,5b98d9362cca9c0001de161f,2021-10-19_12h47.31.130,forced_choiceRT,2021.1.2,Win32,59.89099838,,,,,,,,3,Ontime,h,1,2.0381,2,2,10,2,1,,,,,
1.17,,,,,,,,,f.PNG,f,5b98d9362cca9c0001de161f,2021-10-19_12h47.31.130,forced_choiceRT,2021.1.2,Win32,59.89099838,,,,,,,,3,Ontime,f,1,1.901900002,2,3,11,0,1,,,,,
0.47,,,,,,,,,g.PNG,g,5b98d9362cca9c0001de161f,2021-10-19_12h47.31.130,forced_choiceRT,2021.1.2,Win32,59.89099838,,,,,,,,3,Ontime,g,1,1.951099998,3,0,12,1,1,,,,,
1.43,,,,,,,,,h.PNG,h,5b98d9362cca9c0001de161f,2021-10-19_12h47.31.130,forced_choiceRT,2021.1.2,Win32,59.89099838,,,,,,,,3,Ontime,h,1,2.0829,3,1,13,2,1,,,,,
0.28,,,,,,,,,h.PNG,h,5b98d9362cca9c0001de161f,2021-10-19_12h47.31.130,forced_choiceRT,2021.1.2,Win32,59.89099838,,,,,,,,3,Ontime,h,1,1.9984,3,2,14,2,1,,,,,
1.3,,,,,,,,,g.PNG,g,5b98d9362cca9c0001de161f,2021-10-19_12h47.31.130,forced_choiceRT,2021.1.2,Win32,59.89099838,,,,,,,,3,Ontime,g,1,1.987699999,3,3,15,1,1,,,,,
0.64,,,,,,,,,j.PNG,j,5b98d9362cca9c0001de161f,2021-10-19_12h47.31.130,forced_choiceRT,2021.1.2,Win32,59.89099838,,,,,,,,3,Ontime,j,1,2.0916,4,0,16,3,1,,,,,
1.3,,,,,,,,,f.PNG,f,5b98d9362cca9c0001de161f,2021-10-19_12h47.31.130,forced_choiceRT,2021.1.2,Win32,59.89099838,,,,,,,,3,Ontime,f,1,2.049200001,4,1,17,0,1,,,,,
1.43,,,,,,,,,j.PNG,j,5b98d9362cca9c0001de161f,2021-10-19_12h47.31.130,forced_choiceRT,2021.1.2,Win32,59.89099838,,,,,,,,3,Slow,j,1,2.1879,4,2,18,3,1,,,,,
1.06,,,,,,,,,f.PNG,f,5b98d9362cca9c0001de161f,2021-10-19_12h47.31.130,forced_choiceRT,2021.1.2,Win32,59.89099838,,,,,,,,3,Fast,f,1,1.9,4,3,19,0,1,,,,,
1.01,,,,,,,,,f.PNG,f,5b98d9362cca9c0001de161f,2021-10-19_12h47.31.130,forced_choiceRT,2021.1.2,Win32,59.89099838,,,,,,,,3,Ontime,f,1,2.031799999,5,0,20,0,1,,,,,
1.59,,,,,,,,,f.PNG,f,5b98d9362cca9c0001de161f,2021-10-19_12h47.31.130,forced_choiceRT,2021.1.2,Win32,59.89099838,,,,,,,,3,Slow,f,1,2.182799999,5,1,21,0,1,,,,,
0.3,,,,,,,,,f.PNG,f,5b98d9362cca9c0001de161f,2021-10-19_12h47.31.130,forced_choiceRT,2021.1.2,Win32,59.89099838,,,,,,,,3,Ontime,f,1,1.989799999,5,2,22,0,1,,,,,
1.88,,,,,,,,,g.PNG,g,5b98d9362cca9c0001de161f,2021-10-19_12h47.31.130,forced_choiceRT,2021.1.2,Win32,59.89099838,,,,,,,,3,Slow,g,1,2.159199999,5,3,23,1,1,,,,,
1.35,,,,,,,,,j.PNG,j,5b98d9362cca9c0001de161f,2021-10-19_12h47.31.130,forced_choiceRT,2021.1.2,Win32,59.89099838,,,,,,,,3,Ontime,j,1,2.063,6,0,24,3,1,,,,,
1.06,,,,,,,,,j.PNG,j,5b98d9362cca9c0001de161f,2021-10-19_12h47.31.130,forced_choiceRT,2021.1.2,Win32,59.89099838,,,,,,,,3,Fast,j,1,1.8356,6,1,25,3,1,,,,,
0.95,,,,,,,,,h.PNG,h,5b98d9362cca9c0001de161f,2021-10-19_12h47.31.130,forced_choiceRT,2021.1.2,Win32,59.89099838,,,,,,,,3,Ontime,h,1,2.0915,6,2,26,2,1,,,,,
1.42,,,,,,,,,g.PNG,g,5b98d9362cca9c0001de161f,2021-10-19_12h47.31.130,forced_choiceRT,2021.1.2,Win32,59.89099838,,,,,,,,3,Slow,f,0,2.1095,6,3,27,1,1,,,,,
1.01,,,,,,,,,j.PNG,j,5b98d9362cca9c0001de161f,2021-10-19_12h47.31.130,forced_choiceRT,2021.1.2,Win32,59.89099838,,,,,,,,3,Ontime,j,1,2.073,7,0,28,3,1,,,,,
0.86,,,,,,,,,h.PNG,h,5b98d9362cca9c0001de161f,2021-10-19_12h47.31.130,forced_choiceRT,2021.1.2,Win32,59.89099838,,,,,,,,3,Ontime,h,1,1.9435,7,1,29,2,1,,,,,
0.27,,,,,,,,,h.PNG,h,5b98d9362cca9c0001de161f,2021-10-19_12h47.31.130,forced_choiceRT,2021.1.2,Win32,59.89099838,,,,,,,,3,Ontime,h,1,2.0566,7,2,30,2,1,,,,,
0.94,,,,,,,,,g.PNG,g,5b98d9362cca9c0001de161f,2021-10-19_12h47.31.130,forced_choiceRT,2021.1.2,Win32,59.89099838,,,,,,,,3,Fast,g,1,1.892800001,7,3,31,1,1,,,,,
1.41,,,,,,,,,f.PNG,f,5b98d9362cca9c0001de161f,2021-10-19_12h47.31.130,forced_choiceRT,2021.1.2,Win32,59.89099838,,,,,,,,3,Slow,f,1,2.2255,8,0,32,0,1,,,,,
0.78,,,,,,,,,g.PNG,g,5b98d9362cca9c0001de161f,2021-10-19_12h47.31.130,forced_choiceRT,2021.1.2,Win32,59.89099838,,,,,,,,3,Fast,g,1,1.759200001,8,1,33,1,1,,,,,
1.72,,,,,,,,,j.PNG,j,5b98d9362cca9c0001de161f,2021-10-19_12h47.31.130,forced_choiceRT,2021.1.2,Win32,59.89099838,,,,,,,,3,Slow,j,1,2.4319,8,2,34,3,1,,,,,
0.18,,,,,,,,,g.PNG,g,5b98d9362cca9c0001de161f,2021-10-19_12h47.31.130,forced_choiceRT,2021.1.2,Win32,59.89099838,,,,,,,,3,Ontime,g,1,1.9026,8,3,35,1,1,,,,,
0.99,,,,,,,,,h.PNG,h,5b98d9362cca9c0001de161f,2021-10-19_12h47.31.130,forced_choiceRT,2021.1.2,Win32,59.89099838,,,,,,,,3,Ontime,h,1,2.0495,9,0,36,2,1,,,,,
0.13,,,,,,,,,h.PNG,h,5b98d9362cca9c0001de161f,2021-10-19_12h47.31.130,forced_choiceRT,2021.1.2,Win32,59.89099838,,,,,,,,3,Ontime,h,1,2.007800001,9,1,37,2,1,,,,,
1.73,,,,,,,,,j.PNG,j,5b98d9362cca9c0001de161f,2021-10-19_12h47.31.130,forced_choiceRT,2021.1.2,Win32,59.89099838,,,,,,,,3,Slow,h,0,2.367599998,9,2,38,3,1,,,,,
0.74,,,,,,,,,j.PNG,j,5b98d9362cca9c0001de161f,2021-10-19_12h47.31.130,forced_choiceRT,2021.1.2,Win32,59.89099838,,,,,,,,3,Slow,j,1,2.1825,9,3,39,3,1,,,,,
,,,,,,,,,,,5b98d9362cca9c0001de161f,2021-10-19_12h47.31.130,forced_choiceRT,2021.1.2,Win32,59.89099838,,,,,,,,,,,,,,,,,,2,0,2,0,1
1.42,,,,,,,,,j.PNG,j,5b98d9362cca9c0001de161f,2021-10-19_12h47.31.130,forced_choiceRT,2021.1.2,Win32,59.89099838,,,,,,,,4,Slow,j,1,2.2394,0,0,0,3,1,,,,,
0.37,,,,,,,,,j.PNG,j,5b98d9362cca9c0001de161f,2021-10-19_12h47.31.130,forced_choiceRT,2021.1.2,Win32,59.89099838,,,,,,,,4,Fast,j,1,1.8595,0,1,1,3,1,,,,,
0.48,,,,,,,,,f.PNG,f,5b98d9362cca9c0001de161f,2021-10-19_12h47.31.130,forced_choiceRT,2021.1.2,Win32,59.89099838,,,,,,,,4,Ontime,f,1,2.0991,0,2,2,0,1,,,,,
0.98,,,,,,,,,f.PNG,f,5b98d9362cca9c0001de161f,2021-10-19_12h47.31.130,forced_choiceRT,2021.1.2,Win32,59.89099838,,,,,,,,4,Ontime,f,1,2.016199999,0,3,3,0,1,,,,,
1.9,,,,,,,,,f.PNG,f,5b98d9362cca9c0001de161f,2021-10-19_12h47.31.130,forced_choiceRT,2021.1.2,Win32,59.89099838,,,,,,,,4,Slow,f,1,2.497699999,1,0,4,0,1,,,,,
1.56,,,,,,,,,g.PNG,g,5b98d9362cca9c0001de161f,2021-10-19_12h47.31.130,forced_choiceRT,2021.1.2,Win32,59.89099838,,,,,,,,4,Ontime,f,0,2.055200001,1,1,5,1,1,,,,,
0.65,,,,,,,,,g.PNG,g,5b98d9362cca9c0001de161f,2021-10-19_12h47.31.130,forced_choiceRT,2021.1.2,Win32,59.89099838,,,,,,,,4,Ontime,g,1,1.9724,1,2,6,1,1,,,,,
0.96,,,,,,,,,g.PNG,g,5b98d9362cca9c0001de161f,2021-10-19_12h47.31.130,forced_choiceRT,2021.1.2,Win32,59.89099838,,,,,,,,4,Ontime,g,1,1.9235,1,3,7,1,1,,,,,
0.92,,,,,,,,,j.PNG,j,5b98d9362cca9c0001de161f,2021-10-19_12h47.31.130,forced_choiceRT,2021.1.2,Win32,59.89099838,,,,,,,,4,Ontime,j,1,1.9279,2,0,8,3,1,,,,,
0.78,,,,,,,,,g.PNG,g,5b98d9362cca9c0001de161f,2021-10-19_12h47.31.130,forced_choiceRT,2021.1.2,Win32,59.89099838,,,,,,,,4,Fast,g,1,1.897400002,2,1,9,1,1,,,,,
1.99,,,,,,,,,f.PNG,f,5b98d9362cca9c0001de161f,2021-10-19_12h47.31.130,forced_choiceRT,2021.1.2,Win32,59.89099838,,,,,,,,4,Slow,f,1,2.7881,2,2,10,0,1,,,,,
0.56,,,,,,,,,f.PNG,f,5b98d9362cca9c0001de161f,2021-10-19_12h47.31.130,forced_choiceRT,2021.1.2,Win32,59.89099838,,,,,,,,4,Ontime,f,1,2.028200001,2,3,11,0,1,,,,,
1.72,,,,,,,,,h.PNG,h,5b98d9362cca9c0001de161f,2021-10-19_12h47.31.130,forced_choiceRT,2021.1.2,Win32,59.89099838,,,,,,,,4,Slow,f,0,2.132799999,3,0,12,2,1,,,,,
0.45,,,,,,,,,f.PNG,f,5b98d9362cca9c0001de161f,2021-10-19_12h47.31.130,forced_choiceRT,2021.1.2,Win32,59.89099838,,,,,,,,4,Fast,f,1,1.7966,3,1,13,0,1,,,,,
0.5,,,,,,,,,j.PNG,j,5b98d9362cca9c0001de161f,2021-10-19_12h47.31.130,forced_choiceRT,2021.1.2,Win32,59.89099838,,,,,,,,4,Ontime,j,1,2.099800001,3,2,14,3,1,,,,,
1.91,,,,,,,,,j.PNG,j,5b98d9362cca9c0001de161f,2021-10-19_12h47.31.130,forced_choiceRT,2021.1.2,Win32,59.89099838,,,,,,,,4,Slow,j,1,2.5846,3,3,15,3,1,,,,,
0.4,,,,,,,,,g.PNG,g,5b98d9362cca9c0001de161f,2021-10-19_12h47.31.130,forced_choiceRT,2021.1.2,Win32,59.89099838,,,,,,,,4,Ontime,g,1,2.0325,4,0,16,1,1,,,,,
1.05,,,,,,,,,g.PNG,g,5b98d9362cca9c0001de161f,2021-10-19_12h47.31.130,forced_choiceRT,2021.1.2,Win32,59.89099838,,,,,,,,4,Ontime,g,1,1.957200001,4,1,17,1,1,,,,,
0.69,,,,,,,,,h.PNG,h,5b98d9362cca9c0001de161f,2021-10-19_12h47.31.130,forced_choiceRT,2021.1.2,Win32,59.89099838,,,,,,,,4,Ontime,h,1,1.992200001,4,2,18,2,1,,,,,
1.36,,,,,,,,,h.PNG,h,5b98d9362cca9c0001de161f,2021-10-19_12h47.31.130,forced_choiceRT,2021.1.2,Win32,59.89099838,,,,,,,,4,Ontime,j,0,2.0624,4,3,19,2,1,,,,,
0.42,,,,,,,,,g.PNG,g,5b98d9362cca9c0001de161f,2021-10-19_12h47.31.130,forced_choiceRT,2021.1.2,Win32,59.89099838,,,,,,,,4,Ontime,g,1,2.075299999,5,0,20,1,1,,,,,
1.19,,,,,,,,,f.PNG,f,5b98d9362cca9c0001de161f,2021-10-19_12h47.31.130,forced_choiceRT,2021.1.2,Win32,59.89099838,,,,,,,,4,Slow,f,1,2.1855,5,1,21,0,1,,,,,
0.7,,,,,,,,,h.PNG,h,5b98d9362cca9c0001de161f,2021-10-19_12h47.31.130,forced_choiceRT,2021.1.2,Win32,59.89099838,,,,,,,,4,Fast,h,1,1.896200001,5,2,22,2,1,,,,,
1.31,,,,,,,,,f.PNG,f,5b98d9362cca9c0001de161f,2021-10-19_12h47.31.130,forced_choiceRT,2021.1.2,Win32,59.89099838,,,,,,,,4,Ontime,f,1,2.060199999,5,3,23,0,1,,,,,
1.84,,,,,,,,,f.PNG,f,5b98d9362cca9c0001de161f,2021-10-19_12h47.31.130,forced_choiceRT,2021.1.2,Win32,59.89099838,,,,,,,,4,Slow,f,1,2.252,6,0,24,0,1,,,,,
1.32,,,,,,,,,h.PNG,h,5b98d9362cca9c0001de161f,2021-10-19_12h47.31.130,forced_choiceRT,2021.1.2,Win32,59.89099838,,,,,,,,4,Ontime,g,0,2.0941,6,1,25,2,1,,,,,
0.03,,,,,,,,,g.PNG,g,5b98d9362cca9c0001de161f,2021-10-19_12h47.31.130,forced_choiceRT,2021.1.2,Win32,59.89099838,,,,,,,,4,Ontime,g,1,1.9075,6,2,26,1,1,,,,,
0.51,,,,,,,,,j.PNG,j,5b98d9362cca9c0001de161f,2021-10-19_12h47.31.130,forced_choiceRT,2021.1.2,Win32,59.89099838,,,,,,,,4,Ontime,j,1,1.952799999,6,3,27,3,1,,,,,
0.99,,,,,,,,,h.PNG,h,5b98d9362cca9c0001de161f,2021-10-19_12h47.31.130,forced_choiceRT,2021.1.2,Win32,59.89099838,,,,,,,,4,Fast,h,1,1.8859,7,0,28,2,1,,,,,
1.01,,,,,,,,,g.PNG,g,5b98d9362cca9c0001de161f,2021-10-19_12h47.31.130,forced_choiceRT,2021.1.2,Win32,59.89099838,,,,,,,,4,Ontime,g,1,1.994699999,7,1,29,1,1,,,,,
1.4,,,,,,,,,g.PNG,g,5b98d9362cca9c0001de161f,2021-10-19_12h47.31.130,forced_choiceRT,2021.1.2,Win32,59.89099838,,,,,,,,4,Slow,g,1,2.155,7,2,30,1,1,,,,,
0.75,,,,,,,,,j.PNG,j,5b98d9362cca9c0001de161f,2021-10-19_12h47.31.130,forced_choiceRT,2021.1.2,Win32,59.89099838,,,,,,,,4,Ontime,j,1,2.053199999,7,3,31,3,1,,,,,
0.13,,,,,,,,,f.PNG,f,5b98d9362cca9c0001de161f,2021-10-19_12h47.31.130,forced_choiceRT,2021.1.2,Win32,59.89099838,,,,,,,,4,Ontime,f,1,2.0889,8,0,32,0,1,,,,,
0.47,,,,,,,,,h.PNG,h,5b98d9362cca9c0001de161f,2021-10-19_12h47.31.130,forced_choiceRT,2021.1.2,Win32,59.89099838,,,,,,,,4,Ontime,h,1,2.062699999,8,1,33,2,1,,,,,
1.49,,,,,,,,,j.PNG,j,5b98d9362cca9c0001de161f,2021-10-19_12h47.31.130,forced_choiceRT,2021.1.2,Win32,59.89099838,,,,,,,,4,Slow,h,0,2.202300001,8,2,34,3,1,,,,,
0.09,,,,,,,,,j.PNG,j,5b98d9362cca9c0001de161f,2021-10-19_12h47.31.130,forced_choiceRT,2021.1.2,Win32,59.89099838,,,,,,,,4,Slow,j,1,2.106200001,8,3,35,3,1,,,,,
0.05,,,,,,,,,h.PNG,h,5b98d9362cca9c0001de161f,2021-10-19_12h47.31.130,forced_choiceRT,2021.1.2,Win32,59.89099838,,,,,,,,4,Ontime,h,1,2.0381,9,0,36,2,1,,,,,
0.61,,,,,,,,,j.PNG,j,5b98d9362cca9c0001de161f,2021-10-19_12h47.31.130,forced_choiceRT,2021.1.2,Win32,59.89099838,,,,,,,,4,Ontime,j,1,2.0746,9,1,37,3,1,,,,,
1.37,,,,,,,,,h.PNG,h,5b98d9362cca9c0001de161f,2021-10-19_12h47.31.130,forced_choiceRT,2021.1.2,Win32,59.89099838,,,,,,,,4,Slow,h,1,2.103200001,9,2,38,2,1,,,,,
0.1,,,,,,,,,h.PNG,h,5b98d9362cca9c0001de161f,2021-10-19_12h47.31.130,forced_choiceRT,2021.1.2,Win32,59.89099838,,,,,,,,4,Ontime,h,1,2.035599998,9,3,39,2,1,,,,,
,,,,,,,,,,,5b98d9362cca9c0001de161f,2021-10-19_12h47.31.130,forced_choiceRT,2021.1.2,Win32,59.89099838,,,,,,,,,,,,,,,,,,3,0,3,0,1
1.07,,,,,,,,,f.PNG,f,5b98d9362cca9c0001de161f,2021-10-19_12h47.31.130,forced_choiceRT,2021.1.2,Win32,59.89099838,,,,,,,,5,Ontime,f,1,1.9246,0,0,0,0,1,,,,,
1.59,,,,,,,,,j.PNG,j,5b98d9362cca9c0001de161f,2021-10-19_12h47.31.130,forced_choiceRT,2021.1.2,Win32,59.89099838,,,,,,,,5,Fast,g,0,1.774199999,0,1,1,3,1,,,,,
1.44,,,,,,,,,h.PNG,h,5b98d9362cca9c0001de161f,2021-10-19_12h47.31.130,forced_choiceRT,2021.1.2,Win32,59.89099838,,,,,,,,5,Ontime,h,1,2.0965,0,2,2,2,1,,,,,
1.97,,,,,,,,,g.PNG,g,5b98d9362cca9c0001de161f,2021-10-19_12h47.31.130,forced_choiceRT,2021.1.2,Win32,59.89099838,,,,,,,,5,Slow,j,0,2.298300001,0,3,3,1,1,,,,,
1.53,,,,,,,,,f.PNG,f,5b98d9362cca9c0001de161f,2021-10-19_12h47.31.130,forced_choiceRT,2021.1.2,Win32,59.89099838,,,,,,,,5,Slow,f,1,2.189799999,1,0,4,0,1,,,,,
0.54,,,,,,,,,f.PNG,f,5b98d9362cca9c0001de161f,2021-10-19_12h47.31.130,forced_choiceRT,2021.1.2,Win32,59.89099838,,,,,,,,5,Ontime,f,1,1.996299999,1,1,5,0,1,,,,,
1.66,,,,,,,,,h.PNG,h,5b98d9362cca9c0001de161f,2021-10-19_12h47.31.130,forced_choiceRT,2021.1.2,Win32,59.89099838,,,,,,,,5,Slow,f,0,2.246200001,1,2,6,2,1,,,,,
1.93,,,,,,,,,j.PNG,j,5b98d9362cca9c0001de161f,2021-10-19_12h47.31.130,forced_choiceRT,2021.1.2,Win32,59.89099838,,,,,,,,5,Slow,h,0,2.2906,1,3,7,3,1,,,,,
0.98,,,,,,,,,h.PNG,h,5b98d9362cca9c0001de161f,2021-10-19_12h47.31.130,forced_choiceRT,2021.1.2,Win32,59.89099838,,,,,,,,5,Fast,h,1,1.8,2,0,8,2,1,,,,,
0.49,,,,,,,,,g.PNG,g,5b98d9362cca9c0001de161f,2021-10-19_12h47.31.130,forced_choiceRT,2021.1.2,Win32,59.89099838,,,,,,,,5,Slow,g,1,2.1194,2,1,9,1,1,,,,,
1.11,,,,,,,,,f.PNG,f,5b98d9362cca9c0001de161f,2021-10-19_12h47.31.130,forced_choiceRT,2021.1.2,Win32,59.89099838,,,,,,,,5,Ontime,f,1,1.951700001,2,2,10,0,1,,,,,
1.36,,,,,,,,,j.PNG,j,5b98d9362cca9c0001de161f,2021-10-19_12h47.31.130,forced_choiceRT,2021.1.2,Win32,59.89099838,,,,,,,,5,Ontime,j,1,2.0996,2,3,11,3,1,,,,,
1.2,,,,,,,,,f.PNG,f,5b98d9362cca9c0001de161f,2021-10-19_12h47.31.130,forced_choiceRT,2021.1.2,Win32,59.89099838,,,,,,,,5,Ontime,f,1,2.020700001,3,0,12,0,1,,,,,
1.97,,,,,,,,,g.PNG,g,5b98d9362cca9c0001de161f,2021-10-19_12h47.31.130,forced_choiceRT,2021.1.2,Win32,59.89099838,,,,,,,,5,Slow,f,0,2.3716,3,1,13,1,1,,,,,
1.58,,,,,,,,,f.PNG,f,5b98d9362cca9c0001de161f,2021-10-19_12h47.31.130,forced_choiceRT,2021.1.2,Win32,59.89099838,,,,,,,,5,Slow,f,1,2.2359,3,2,14,0,1,,,,,
1.82,,,,,,,,,j.PNG,j,5b98d9362cca9c0001de161f,2021-10-19_12h47.31.130,forced_choiceRT,2021.1.2,Win32,59.89099838,,,,,,,,5,Slow,f,0,2.265700001,3,3,15,3,1,,,,,
1.46,,,,,,,,,j.PNG,j,5b98d9362cca9c0001de161f,2021-10-19_12h47.31.130,forced_choiceRT,2021.1.2,Win32,59.89099838,,,,,,,,5,Slow,j,1,2.118299999,4,0,16,3,1,,,,,
1.63,,,,,,,,,g.PNG,g,5b98d9362cca9c0001de161f,2021-10-19_12h47.31.130,forced_choiceRT,2021.1.2,Win32,59.89099838,,,,,,,,5,Slow,g,1,2.297699999,4,1,17,1,1,,,,,
1.29,,,,,,,,,h.PNG,h,5b98d9362cca9c0001de161f,2021-10-19_12h47.31.130,forced_choiceRT,2021.1.2,Win32,59.89099838,,,,,,,,5,Ontime,j,0,1.9954,4,2,18,2,1,,,,,
0.7,,,,,,,,,j.PNG,j,5b98d9362cca9c0001de161f,2021-10-19_12h47.31.130,forced_choiceRT,2021.1.2,Win32,59.89099838,,,,,,,,5,Ontime,j,1,1.924199999,4,3,19,3,1,,,,,
0.65,,,,,,,,,h.PNG,h,5b98d9362cca9c0001de161f,2021-10-19_12h47.31.130,forced_choiceRT,2021.1.2,Win32,59.89099838,,,,,,,,5,Ontime,h,1,1.983900002,5,0,20,2,1,,,,,
0.47,,,,,,,,,f.PNG,f,5b98d9362cca9c0001de161f,2021-10-19_12h47.31.130,forced_choiceRT,2021.1.2,Win32,59.89099838,,,,,,,,5,Fast,f,1,1.8486,5,1,21,0,1,,,,,
0.6,,,,,,,,,h.PNG,h,5b98d9362cca9c0001de161f,2021-10-19_12h47.31.130,forced_choiceRT,2021.1.2,Win32,59.89099838,,,,,,,,5,Ontime,h,1,2.099299999,5,2,22,2,1,,,,,
1.79,,,,,,,,,g.PNG,g,5b98d9362cca9c0001de161f,2021-10-19_12h47.31.130,forced_choiceRT,2021.1.2,Win32,59.89099838,,,,,,,,5,Slow,g,1,2.399199999,5,3,23,1,1,,,,,
0.27,,,,,,,,,g.PNG,g,5b98d9362cca9c0001de161f,2021-10-19_12h47.31.130,forced_choiceRT,2021.1.2,Win32,59.89099838,,,,,,,,5,Ontime,g,1,1.958300001,6,0,24,1,1,,,,,
0.87,,,,,,,,,g.PNG,g,5b98d9362cca9c0001de161f,2021-10-19_12h47.31.130,forced_choiceRT,2021.1.2,Win32,59.89099838,,,,,,,,5,Ontime,g,1,2.071699999,6,1,25,1,1,,,,,
1.07,,,,,,,,,g.PNG,g,5b98d9362cca9c0001de161f,2021-10-19_12h47.31.130,forced_choiceRT,2021.1.2,Win32,59.89099838,,,,,,,,5,Ontime,g,1,1.9819,6,2,26,1,1,,,,,
1.05,,,,,,,,,h.PNG,h,5b98d9362cca9c0001de161f,2021-10-19_12h47.31.130,forced_choiceRT,2021.1.2,Win32,59.89099838,,,,,,,,5,Ontime,h,1,1.94,6,3,27,2,1,,,,,
1.98,,,,,,,,,f.PNG,f,5b98d9362cca9c0001de161f,2021-10-19_12h47.31.130,forced_choiceRT,2021.1.2,Win32,59.89099838,,,,,,,,5,Slow,g,0,2.1995,7,0,28,0,1,,,,,
0.14,,,,,,,,,j.PNG,j,5b98d9362cca9c0001de161f,2021-10-19_12h47.31.130,forced_choiceRT,2021.1.2,Win32,59.89099838,,,,,,,,5,Ontime,j,1,2.0485,7,1,29,3,1,,,,,
1.43,,,,,,,,,h.PNG,h,5b98d9362cca9c0001de161f,2021-10-19_12h47.31.130,forced_choiceRT,2021.1.2,Win32,59.89099838,,,,,,,,5,Slow,h,1,2.123700001,7,2,30,2,1,,,,,
1.48,,,,,,,,,h.PNG,h,5b98d9362cca9c0001de161f,2021-10-19_12h47.31.130,forced_choiceRT,2021.1.2,Win32,59.89099838,,,,,,,,5,Slow,h,1,2.109,7,3,31,2,1,,,,,
1.3,,,,,,,,,g.PNG,g,5b98d9362cca9c0001de161f,2021-10-19_12h47.31.130,forced_choiceRT,2021.1.2,Win32,59.89099838,,,,,,,,5,Ontime,g,1,1.921700001,8,0,32,1,1,,,,,
1.02,,,,,,,,,j.PNG,j,5b98d9362cca9c0001de161f,2021-10-19_12h47.31.130,forced_choiceRT,2021.1.2,Win32,59.89099838,,,,,,,,5,Ontime,j,1,1.9225,8,1,33,3,1,,,,,
0.69,,,,,,,,,f.PNG,f,5b98d9362cca9c0001de161f,2021-10-19_12h47.31.130,forced_choiceRT,2021.1.2,Win32,59.89099838,,,,,,,,5,Ontime,f,1,1.9331,8,2,34,0,1,,,,,
0.08,,,,,,,,,f.PNG,f,5b98d9362cca9c0001de161f,2021-10-19_12h47.31.130,forced_choiceRT,2021.1.2,Win32,59.89099838,,,,,,,,5,Ontime,f,1,1.945,8,3,35,0,1,,,,,
0.96,,,,,,,,,h.PNG,h,5b98d9362cca9c0001de161f,2021-10-19_12h47.31.130,forced_choiceRT,2021.1.2,Win32,59.89099838,,,,,,,,5,Fast,h,1,1.801200001,9,0,36,2,1,,,,,
1.91,,,,,,,,,j.PNG,j,5b98d9362cca9c0001de161f,2021-10-19_12h47.31.130,forced_choiceRT,2021.1.2,Win32,59.89099838,,,,,,,,5,Slow,j,1,2.3299,9,1,37,3,1,,,,,
0.98,,,,,,,,,g.PNG,g,5b98d9362cca9c0001de161f,2021-10-19_12h47.31.130,forced_choiceRT,2021.1.2,Win32,59.89099838,,,,,,,,5,Fast,g,1,1.860700001,9,2,38,1,1,,,,,
1.73,,,,,,,,,j.PNG,j,5b98d9362cca9c0001de161f,2021-10-19_12h47.31.130,forced_choiceRT,2021.1.2,Win32,59.89099838,,,,,,,,5,Slow,g,0,2.208,9,3,39,3,1,,,,,
,,,,,,,,,,,5b98d9362cca9c0001de161f,2021-10-19_12h47.31.130,forced_choiceRT,2021.1.2,Win32,59.89099838,,,,,,,,,,,,,,,,,,4,0,4,0,1
1.26,,,,,,,,,j.PNG,j,5b98d9362cca9c0001de161f,2021-10-19_12h47.31.130,forced_choiceRT,2021.1.2,Win32,59.89099838,,,,,,,,6,Ontime,j,1,2.0111,0,0,0,3,1,,,,,
1.24,,,,,,,,,g.PNG,g,5b98d9362cca9c0001de161f,2021-10-19_12h47.31.130,forced_choiceRT,2021.1.2,Win32,59.89099838,,,,,,,,6,Ontime,g,1,2.043900002,0,1,1,1,1,,,,,
0.11,,,,,,,,,g.PNG,g,5b98d9362cca9c0001de161f,2021-10-19_12h47.31.130,forced_choiceRT,2021.1.2,Win32,59.89099838,,,,,,,,6,Fast,g,1,1.8489,0,2,2,1,1,,,,,
1.94,,,,,,,,,j.PNG,j,5b98d9362cca9c0001de161f,2021-10-19_12h47.31.130,forced_choiceRT,2021.1.2,Win32,59.89099838,,,,,,,,6,Slow,g,0,2.157799999,0,3,3,3,1,,,,,
0.17,,,,,,,,,j.PNG,j,5b98d9362cca9c0001de161f,2021-10-19_12h47.31.130,forced_choiceRT,2021.1.2,Win32,59.89099838,,,,,,,,6,Slow,j,1,2.1205,1,0,4,3,1,,,,,
0.84,,,,,,,,,h.PNG,h,5b98d9362cca9c0001de161f,2021-10-19_12h47.31.130,forced_choiceRT,2021.1.2,Win32,59.89099838,,,,,,,,6,Fast,h,1,1.889699999,1,1,5,2,1,,,,,
0.11,,,,,,,,,f.PNG,f,5b98d9362cca9c0001de161f,2021-10-19_12h47.31.130,forced_choiceRT,2021.1.2,Win32,59.89099838,,,,,,,,6,Ontime,f,1,2.016200001,1,2,6,0,1,,,,,
1.33,,,,,,,,,j.PNG,j,5b98d9362cca9c0001de161f,2021-10-19_12h47.31.130,forced_choiceRT,2021.1.2,Win32,59.89099838,,,,,,,,6,Ontime,j,1,2.0939,1,3,7,3,1,,,,,
1.72,,,,,,,,,j.PNG,j,5b98d9362cca9c0001de161f,2021-10-19_12h47.31.130,forced_choiceRT,2021.1.2,Win32,59.89099838,,,,,,,,6,Slow,j,1,2.208099998,2,0,8,3,1,,,,,
0.93,,,,,,,,,h.PNG,h,5b98d9362cca9c0001de161f,2021-10-19_12h47.31.130,forced_choiceRT,2021.1.2,Win32,59.89099838,,,,,,,,6,Ontime,h,1,2.0234,2,1,9,2,1,,,,,
0.83,,,,,,,,,f.PNG,f,5b98d9362cca9c0001de161f,2021-10-19_12h47.31.130,forced_choiceRT,2021.1.2,Win32,59.89099838,,,,,,,,6,Ontime,f,1,2.0391,2,2,10,0,1,,,,,
0.18,,,,,,,,,g.PNG,g,5b98d9362cca9c0001de161f,2021-10-19_12h47.31.130,forced_choiceRT,2021.1.2,Win32,59.89099838,,,,,,,,6,Ontime,g,1,2.027,2,3,11,1,1,,,,,
1.96,,,,,,,,,h.PNG,h,5b98d9362cca9c0001de161f,2021-10-19_12h47.31.130,forced_choiceRT,2021.1.2,Win32,59.89099838,,,,,,,,6,Ontime,h,1,2.0586,3,0,12,2,1,,,,,
0.99,,,,,,,,,g.PNG,g,5b98d9362cca9c0001de161f,2021-10-19_12h47.31.130,forced_choiceRT,2021.1.2,Win32,59.89099838,,,,,,,,6,Ontime,g,1,1.912799999,3,1,13,1,1,,,,,
0.27,,,,,,,,,g.PNG,g,5b98d9362cca9c0001de161f,2021-10-19_12h47.31.130,forced_choiceRT,2021.1.2,Win32,59.89099838,,,,,,,,6,Ontime,g,1,2.083299999,3,2,14,1,1,,,,,
1.85,,,,,,,,,h.PNG,h,5b98d9362cca9c0001de161f,2021-10-19_12h47.31.130,forced_choiceRT,2021.1.2,Win32,59.89099838,,,,,,,,6,Slow,g,0,2.311299999,3,3,15,2,1,,,,,
0.9,,,,,,,,,h.PNG,h,5b98d9362cca9c0001de161f,2021-10-19_12h47.31.130,forced_choiceRT,2021.1.2,Win32,59.89099838,,,,,,,,6,Ontime,h,1,1.939,4,0,16,2,1,,,,,
1.62,,,,,,,,,g.PNG,g,5b98d9362cca9c0001de161f,2021-10-19_12h47.31.130,forced_choiceRT,2021.1.2,Win32,59.89099838,,,,,,,,6,Ontime,h,0,2.0771,4,1,17,1,1,,,,,
1.16,,,,,,,,,g.PNG,g,5b98d9362cca9c0001de161f,2021-10-19_12h47.31.130,forced_choiceRT,2021.1.2,Win32,59.89099838,,,,,,,,6,Ontime,g,1,1.952199999,4,2,18,1,1,,,,,
0.48,,,,,,,,,g.PNG,g,5b98d9362cca9c0001de161f,2021-10-19_12h47.31.130,forced_choiceRT,2021.1.2,Win32,59.89099838,,,,,,,,6,Ontime,g,1,2.0829,4,3,19,1,1,,,,,
0.23,,,,,,,,,j.PNG,j,5b98d9362cca9c0001de161f,2021-10-19_12h47.31.130,forced_choiceRT,2021.1.2,Win32,59.89099838,,,,,,,,6,Ontime,j,1,1.9589,5,0,20,3,1,,,,,
1.55,,,,,,,,,f.PNG,f,5b98d9362cca9c0001de161f,2021-10-19_12h47.31.130,forced_choiceRT,2021.1.2,Win32,59.89099838,,,,,,,,6,Slow,g,0,2.1266,5,1,21,0,1,,,,,
0.59,,,,,,,,,f.PNG,f,5b98d9362cca9c0001de161f,2021-10-19_12h47.31.130,forced_choiceRT,2021.1.2,Win32,59.89099838,,,,,,,,6,Ontime,f,1,2.083,5,2,22,0,1,,,,,
1.93,,,,,,,,,f.PNG,f,5b98d9362cca9c0001de161f,2021-10-19_12h47.31.130,forced_choiceRT,2021.1.2,Win32,59.89099838,,,,,,,,6,Slow,f,1,2.182700001,5,3,23,0,1,,,,,
1.33,,,,,,,,,j.PNG,j,5b98d9362cca9c0001de161f,2021-10-19_12h47.31.130,forced_choiceRT,2021.1.2,Win32,59.89099838,,,,,,,,6,Ontime,j,1,1.988,6,0,24,3,1,,,,,
0.91,,,,,,,,,h.PNG,h,5b98d9362cca9c0001de161f,2021-10-19_12h47.31.130,forced_choiceRT,2021.1.2,Win32,59.89099838,,,,,,,,6,Ontime,h,1,1.9265,6,1,25,2,1,,,,,
1.18,,,,,,,,,h.PNG,h,5b98d9362cca9c0001de161f,2021-10-19_12h47.31.130,forced_choiceRT,2021.1.2,Win32,59.89099838,,,,,,,,6,Ontime,h,1,1.9346,6,2,26,2,1,,,,,
0.42,,,,,,,,,f.PNG,f,5b98d9362cca9c0001de161f,2021-10-19_12h47.31.130,forced_choiceRT,2021.1.2,Win32,59.89099838,,,,,,,,6,Ontime,f,1,2.025200001,6,3,27,0,1,,,,,
0.7,,,,,,,,,g.PNG,g,5b98d9362cca9c0001de161f,2021-10-19_12h47.31.130,forced_choiceRT,2021.1.2,Win32,59.89099838,,,,,,,,6,Ontime,g,1,2.0091,7,0,28,1,1,,,,,
1.81,,,,,,,,,j.PNG,j,5b98d9362cca9c0001de161f,2021-10-19_12h47.31.130,forced_choiceRT,2021.1.2,Win32,59.89099838,,,,,,,,6,Slow,f,0,2.327199999,7,1,29,3,1,,,,,
0.34,,,,,,,,,f.PNG,f,5b98d9362cca9c0001de161f,2021-10-19_12h47.31.130,forced_choiceRT,2021.1.2,Win32,59.89099838,,,,,,,,6,Ontime,f,1,2.0894,7,2,30,0,1,,,,,
1.62,,,,,,,,,f.PNG,f,5b98d9362cca9c0001de161f,2021-10-19_12h47.31.130,forced_choiceRT,2021.1.2,Win32,59.89099838,,,,,,,,6,Slow,f,1,2.3685,7,3,31,0,1,,,,,
1.4,,,,,,,,,j.PNG,j,5b98d9362cca9c0001de161f,2021-10-19_12h47.31.130,forced_choiceRT,2021.1.2,Win32,59.89099838,,,,,,,,6,Ontime,j,1,2.0625,8,0,32,3,1,,,,,
1.64,,,,,,,,,f.PNG,f,5b98d9362cca9c0001de161f,2021-10-19_12h47.31.130,forced_choiceRT,2021.1.2,Win32,59.89099838,,,,,,,,6,Slow,j,0,2.1715,8,1,33,0,1,,,,,
0.25,,,,,,,,,h.PNG,h,5b98d9362cca9c0001de161f,2021-10-19_12h47.31.130,forced_choiceRT,2021.1.2,Win32,59.89099838,,,,,,,,6,Ontime,h,1,1.9731,8,2,34,2,1,,,,,
1.06,,,,,,,,,j.PNG,j,5b98d9362cca9c0001de161f,2021-10-19_12h47.31.130,forced_choiceRT,2021.1.2,Win32,59.89099838,,,,,,,,6,Fast,j,1,1.868200001,8,3,35,3,1,,,,,
1.48,,,,,,,,,h.PNG,h,5b98d9362cca9c0001de161f,2021-10-19_12h47.31.130,forced_choiceRT,2021.1.2,Win32,59.89099838,,,,,,,,6,Slow,h,1,2.256800001,9,0,36,2,1,,,,,
0.86,,,,,,,,,f.PNG,f,5b98d9362cca9c0001de161f,2021-10-19_12h47.31.130,forced_choiceRT,2021.1.2,Win32,59.89099838,,,,,,,,6,Ontime,f,1,1.926700001,9,1,37,0,1,,,,,
1.35,,,,,,,,,g.PNG,g,5b98d9362cca9c0001de161f,2021-10-19_12h47.31.130,forced_choiceRT,2021.1.2,Win32,59.89099838,,,,,,,,6,Slow,g,1,2.104800001,9,2,38,1,1,,,,,
1.4,,,,,,,,,h.PNG,h,5b98d9362cca9c0001de161f,2021-10-19_12h47.31.130,forced_choiceRT,2021.1.2,Win32,59.89099838,,,,,,,,6,Slow,h,1,2.2214,9,3,39,2,1,,,,,
,,,,,,,,,,,5b98d9362cca9c0001de161f,2021-10-19_12h47.31.130,forced_choiceRT,2021.1.2,Win32,59.89099838,,,,,,,,,,,,,,,,,,5,0,5,0,1
0.75,,,,,,,,,g.PNG,g,5b98d9362cca9c0001de161f,2021-10-19_12h47.31.130,forced_choiceRT,2021.1.2,Win32,59.89099838,,,,,,,,7,Ontime,g,1,2.0004,0,0,0,1,1,,,,,
1.3,,,,,,,,,j.PNG,j,5b98d9362cca9c0001de161f,2021-10-19_12h47.31.130,forced_choiceRT,2021.1.2,Win32,59.89099838,,,,,,,,7,Slow,j,1,2.112300001,0,1,1,3,1,,,,,
1.66,,,,,,,,,f.PNG,f,5b98d9362cca9c0001de161f,2021-10-19_12h47.31.130,forced_choiceRT,2021.1.2,Win32,59.89099838,,,,,,,,7,Slow,f,1,2.228199999,0,2,2,0,1,,,,,
1.95,,,,,,,,,g.PNG,g,5b98d9362cca9c0001de161f,2021-10-19_12h47.31.130,forced_choiceRT,2021.1.2,Win32,59.89099838,,,,,,,,7,Slow,h,0,2.1076,0,3,3,1,1,,,,,
0.03,,,,,,,,,h.PNG,h,5b98d9362cca9c0001de161f,2021-10-19_12h47.31.130,forced_choiceRT,2021.1.2,Win32,59.89099838,,,,,,,,7,Fast,h,1,1.885,1,0,4,2,1,,,,,
1.18,,,,,,,,,h.PNG,h,5b98d9362cca9c0001de161f,2021-10-19_12h47.31.130,forced_choiceRT,2021.1.2,Win32,59.89099838,,,,,,,,7,Ontime,h,1,2.012,1,1,5,2,1,,,,,
0.34,,,,,,,,,h.PNG,h,5b98d9362cca9c0001de161f,2021-10-19_12h47.31.130,forced_choiceRT,2021.1.2,Win32,59.89099838,,,,,,,,7,Ontime,h,1,1.961700001,1,2,6,2,1,,,,,
0.07,,,,,,,,,j.PNG,j,5b98d9362cca9c0001de161f,2021-10-19_12h47.31.130,forced_choiceRT,2021.1.2,Win32,59.89099838,,,,,,,,7,Ontime,j,1,2.091200001,1,3,7,3,1,,,,,
0.94,,,,,,,,,j.PNG,j,5b98d9362cca9c0001de161f,2021-10-19_12h47.31.130,forced_choiceRT,2021.1.2,Win32,59.89099838,,,,,,,,7,Ontime,j,1,2.071299999,2,0,8,3,1,,,,,
0.68,,,,,,,,,j.PNG,j,5b98d9362cca9c0001de161f,2021-10-19_12h47.31.130,forced_choiceRT,2021.1.2,Win32,59.89099838,,,,,,,,7,Slow,j,1,2.1625,2,1,9,3,1,,,,,
1.92,,,,,,,,,j.PNG,j,5b98d9362cca9c0001de161f,2021-10-19_12h47.31.130,forced_choiceRT,2021.1.2,Win32,59.89099838,,,,,,,,7,Slow,g,0,2.107300001,2,2,10,3,1,,,,,
1.64,,,,,,,,,f.PNG,f,5b98d9362cca9c0001de161f,2021-10-19_12h47.31.130,forced_choiceRT,2021.1.2,Win32,59.89099838,,,,,,,,7,Ontime,j,0,1.9924,2,3,11,0,1,,,,,
1.95,,,,,,,,,j.PNG,j,5b98d9362cca9c0001de161f,2021-10-19_12h47.31.130,forced_choiceRT,2021.1.2,Win32,59.89099838,,,,,,,,7,Slow,f,0,2.182300001,3,0,12,3,1,,,,,
0.16,,,,,,,,,h.PNG,h,5b98d9362cca9c0001de161f,2021-10-19_12h47.31.130,forced_choiceRT,2021.1.2,Win32,59.89099838,,,,,,,,7,Fast,h,1,1.870300001,3,1,13,2,1,,,,,
0.39,,,,,,,,,j.PNG,j,5b98d9362cca9c0001de161f,2021-10-19_12h47.31.130,forced_choiceRT,2021.1.2,Win32,59.89099838,,,,,,,,7,Ontime,j,1,2.068300001,3,2,14,3,1,,,,,
0,,,,,,,,,f.PNG,f,5b98d9362cca9c0001de161f,2021-10-19_12h47.31.130,forced_choiceRT,2021.1.2,Win32,59.89099838,,,,,,,,7,Fast,f,1,1.806599998,3,3,15,0,1,,,,,
1.95,,,,,,,,,h.PNG,h,5b98d9362cca9c0001de161f,2021-10-19_12h47.31.130,forced_choiceRT,2021.1.2,Win32,59.89099838,,,,,,,,7,Slow,j,0,2.1821,4,0,16,2,1,,,,,
1.7,,,,,,,,,h.PNG,h,5b98d9362cca9c0001de161f,2021-10-19_12h47.31.130,forced_choiceRT,2021.1.2,Win32,59.89099838,,,,,,,,7,Slow,h,1,2.151700001,4,1,17,2,1,,,,,
0.03,,,,,,,,,g.PNG,g,5b98d9362cca9c0001de161f,2021-10-19_12h47.31.130,forced_choiceRT,2021.1.2,Win32,59.89099838,,,,,,,,7,Ontime,g,1,2.0399,4,2,18,1,1,,,,,
0.1,,,,,,,,,f.PNG,f,5b98d9362cca9c0001de161f,2021-10-19_12h47.31.130,forced_choiceRT,2021.1.2,Win32,59.89099838,,,,,,,,7,Ontime,f,1,2.066299999,4,3,19,0,1,,,,,
0.57,,,,,,,,,g.PNG,g,5b98d9362cca9c0001de161f,2021-10-19_12h47.31.130,forced_choiceRT,2021.1.2,Win32,59.89099838,,,,,,,,7,Ontime,g,1,1.981199999,5,0,20,1,1,,,,,
1.56,,,,,,,,,g.PNG,g,5b98d9362cca9c0001de161f,2021-10-19_12h47.31.130,forced_choiceRT,2021.1.2,Win32,59.89099838,,,,,,,,7,Ontime,h,0,1.979799999,5,1,21,1,1,,,,,
1.84,,,,,,,,,g.PNG,g,5b98d9362cca9c0001de161f,2021-10-19_12h47.31.130,forced_choiceRT,2021.1.2,Win32,59.89099838,,,,,,,,7,Ontime,g,1,2.0024,5,2,22,1,1,,,,,
0.28,,,,,,,,,g.PNG,g,5b98d9362cca9c0001de161f,2021-10-19_12h47.31.130,forced_choiceRT,2021.1.2,Win32,59.89099838,,,,,,,,7,Fast,g,1,1.836699999,5,3,23,1,1,,,,,
1.42,,,,,,,,,f.PNG,f,5b98d9362cca9c0001de161f,2021-10-19_12h47.31.130,forced_choiceRT,2021.1.2,Win32,59.89099838,,,,,,,,7,Ontime,f,1,2.0881,6,0,24,0,1,,,,,
1.1,,,,,,,,,j.PNG,j,5b98d9362cca9c0001de161f,2021-10-19_12h47.31.130,forced_choiceRT,2021.1.2,Win32,59.89099838,,,,,,,,7,Ontime,j,1,1.9475,6,1,25,3,1,,,,,
1.43,,,,,,,,,f.PNG,f,5b98d9362cca9c0001de161f,2021-10-19_12h47.31.130,forced_choiceRT,2021.1.2,Win32,59.89099838,,,,,,,,7,Ontime,f,1,2.015400002,6,2,26,0,1,,,,,
1.45,,,,,,,,,g.PNG,g,5b98d9362cca9c0001de161f,2021-10-19_12h47.31.130,forced_choiceRT,2021.1.2,Win32,59.89099838,,,,,,,,7,Slow,g,1,2.114800001,6,3,27,1,1,,,,,
1.77,,,,,,,,,j.PNG,j,5b98d9362cca9c0001de161f,2021-10-19_12h47.31.130,forced_choiceRT,2021.1.2,Win32,59.89099838,,,,,,,,7,Ontime,g,0,2.079200001,7,0,28,3,1,,,,,
0.4,,,,,,,,,h.PNG,h,5b98d9362cca9c0001de161f,2021-10-19_12h47.31.130,forced_choiceRT,2021.1.2,Win32,59.89099838,,,,,,,,7,Fast,h,1,1.899,7,1,29,2,1,,,,,
0.17,,,,,,,,,h.PNG,h,5b98d9362cca9c0001de161f,2021-10-19_12h47.31.130,forced_choiceRT,2021.1.2,Win32,59.89099838,,,,,,,,7,Ontime,h,1,1.9995,7,2,30,2,1,,,,,
0.87,,,,,,,,,f.PNG,f,5b98d9362cca9c0001de161f,2021-10-19_12h47.31.130,forced_choiceRT,2021.1.2,Win32,59.89099838,,,,,,,,7,Ontime,f,1,2.0689,7,3,31,0,1,,,,,
1.24,,,,,,,,,h.PNG,h,5b98d9362cca9c0001de161f,2021-10-19_12h47.31.130,forced_choiceRT,2021.1.2,Win32,59.89099838,,,,,,,,7,Slow,h,1,2.100800001,8,0,32,2,1,,,,,
1.49,,,,,,,,,f.PNG,f,5b98d9362cca9c0001de161f,2021-10-19_12h47.31.130,forced_choiceRT,2021.1.2,Win32,59.89099838,,,,,,,,7,Slow,f,1,2.108900002,8,1,33,0,1,,,,,
1.76,,,,,,,,,g.PNG,g,5b98d9362cca9c0001de161f,2021-10-19_12h47.31.130,forced_choiceRT,2021.1.2,Win32,59.89099838,,,,,,,,7,Slow,h,0,2.272400002,8,2,34,1,1,,,,,
0.98,,,,,,,,,f.PNG,f,5b98d9362cca9c0001de161f,2021-10-19_12h47.31.130,forced_choiceRT,2021.1.2,Win32,59.89099838,,,,,,,,7,Fast,f,1,1.831900002,8,3,35,0,1,,,,,
1.55,,,,,,,,,f.PNG,f,5b98d9362cca9c0001de161f,2021-10-19_12h47.31.130,forced_choiceRT,2021.1.2,Win32,59.89099838,,,,,,,,7,Ontime,f,1,2.0589,9,0,36,0,1,,,,,
1.16,,,,,,,,,j.PNG,j,5b98d9362cca9c0001de161f,2021-10-19_12h47.31.130,forced_choiceRT,2021.1.2,Win32,59.89099838,,,,,,,,7,Slow,j,1,2.1039,9,1,37,3,1,,,,,
1.4,,,,,,,,,h.PNG,h,5b98d9362cca9c0001de161f,2021-10-19_12h47.31.130,forced_choiceRT,2021.1.2,Win32,59.89099838,,,,,,,,7,Slow,g,0,2.124799999,9,2,38,2,1,,,,,
0.76,,,,,,,,,g.PNG,g,5b98d9362cca9c0001de161f,2021-10-19_12h47.31.130,forced_choiceRT,2021.1.2,Win32,59.89099838,,,,,,,,7,Fast,g,1,1.869700001,9,3,39,1,1,,,,,
,,,,,,,,,,,5b98d9362cca9c0001de161f,2021-10-19_12h47.31.130,forced_choiceRT,2021.1.2,Win32,59.89099838,,,,,,,,,,,,,,,,,,6,0,6,0,1
1.11,,,,,,,,,j.PNG,j,5b98d9362cca9c0001de161f,2021-10-19_12h47.31.130,forced_choiceRT,2021.1.2,Win32,59.89099838,,,,,,,,8,Fast,j,1,1.8305,0,0,0,3,1,,,,,
1.08,,,,,,,,,h.PNG,h,5b98d9362cca9c0001de161f,2021-10-19_12h47.31.130,forced_choiceRT,2021.1.2,Win32,59.89099838,,,,,,,,8,Ontime,h,1,1.933300001,0,1,1,2,1,,,,,
1.87,,,,,,,,,f.PNG,f,5b98d9362cca9c0001de161f,2021-10-19_12h47.31.130,forced_choiceRT,2021.1.2,Win32,59.89099838,,,,,,,,8,Ontime,g,0,2.013400002,0,2,2,0,1,,,,,
1.99,,,,,,,,,h.PNG,h,5b98d9362cca9c0001de161f,2021-10-19_12h47.31.130,forced_choiceRT,2021.1.2,Win32,59.89099838,,,,,,,,8,Slow,f,0,2.157799999,0,3,3,2,1,,,,,
0.01,,,,,,,,,h.PNG,h,5b98d9362cca9c0001de161f,2021-10-19_12h47.31.130,forced_choiceRT,2021.1.2,Win32,59.89099838,,,,,,,,8,Ontime,h,1,2.005199999,1,0,4,2,1,,,,,
1.93,,,,,,,,,j.PNG,j,5b98d9362cca9c0001de161f,2021-10-19_12h47.31.130,forced_choiceRT,2021.1.2,Win32,59.89099838,,,,,,,,8,Fast,g,0,1.8845,1,1,5,3,1,,,,,
0.81,,,,,,,,,j.PNG,j,5b98d9362cca9c0001de161f,2021-10-19_12h47.31.130,forced_choiceRT,2021.1.2,Win32,59.89099838,,,,,,,,8,Ontime,j,1,1.920599998,1,2,6,3,1,,,,,
0.08,,,,,,,,,g.PNG,g,5b98d9362cca9c0001de161f,2021-10-19_12h47.31.130,forced_choiceRT,2021.1.2,Win32,59.89099838,,,,,,,,8,Ontime,g,1,1.990300001,1,3,7,1,1,,,,,
1.59,,,,,,,,,f.PNG,f,5b98d9362cca9c0001de161f,2021-10-19_12h47.31.130,forced_choiceRT,2021.1.2,Win32,59.89099838,,,,,,,,8,Slow,f,1,2.243,2,0,8,0,1,,,,,
1.48,,,,,,,,,h.PNG,h,5b98d9362cca9c0001de161f,2021-10-19_12h47.31.130,forced_choiceRT,2021.1.2,Win32,59.89099838,,,,,,,,8,Slow,g,0,2.2564,2,1,9,2,1,,,,,
1.9,,,,,,,,,g.PNG,g,5b98d9362cca9c0001de161f,2021-10-19_12h47.31.130,forced_choiceRT,2021.1.2,Win32,59.89099838,,,,,,,,8,Slow,h,0,2.382199999,2,2,10,1,1,,,,,
1.35,,,,,,,,,g.PNG,g,5b98d9362cca9c0001de161f,2021-10-19_12h47.31.130,forced_choiceRT,2021.1.2,Win32,59.89099838,,,,,,,,8,Ontime,g,1,1.9621,2,3,11,1,1,,,,,
1.03,,,,,,,,,h.PNG,h,5b98d9362cca9c0001de161f,2021-10-19_12h47.31.130,forced_choiceRT,2021.1.2,Win32,59.89099838,,,,,,,,8,Ontime,h,1,1.9864,3,0,12,2,1,,,,,
0.78,,,,,,,,,h.PNG,h,5b98d9362cca9c0001de161f,2021-10-19_12h47.31.130,forced_choiceRT,2021.1.2,Win32,59.89099838,,,,,,,,8,Ontime,h,1,2.074,3,1,13,2,1,,,,,
1.7,,,,,,,,,j.PNG,j,5b98d9362cca9c0001de161f,2021-10-19_12h47.31.130,forced_choiceRT,2021.1.2,Win32,59.89099838,,,,,,,,8,Slow,j,1,2.316800001,3,2,14,3,1,,,,,
1.46,,,,,,,,,g.PNG,g,5b98d9362cca9c0001de161f,2021-10-19_12h47.31.130,forced_choiceRT,2021.1.2,Win32,59.89099838,,,,,,,,8,Slow,g,1,2.174,3,3,15,1,1,,,,,
1.92,,,,,,,,,j.PNG,j,5b98d9362cca9c0001de161f,2021-10-19_12h47.31.130,forced_choiceRT,2021.1.2,Win32,59.89099838,,,,,,,,8,Ontime,g,0,2.0244,4,0,16,3,1,,,,,
1.55,,,,,,,,,f.PNG,f,5b98d9362cca9c0001de161f,2021-10-19_12h47.31.130,forced_choiceRT,2021.1.2,Win32,59.89099838,,,,,,,,8,Ontime,j,0,1.982199999,4,1,17,0,1,,,,,
0.57,,,,,,,,,j.PNG,j,5b98d9362cca9c0001de161f,2021-10-19_12h47.31.130,forced_choiceRT,2021.1.2,Win32,59.89099838,,,,,,,,8,Ontime,j,1,1.963200001,4,2,18,3,1,,,,,
0.56,,,,,,,,,g.PNG,g,5b98d9362cca9c0001de161f,2021-10-19_12h47.31.130,forced_choiceRT,2021.1.2,Win32,59.89099838,,,,,,,,8,Slow,g,1,2.111,4,3,19,1,1,,,,,
0.99,,,,,,,,,f.PNG,f,5b98d9362cca9c0001de161f,2021-10-19_12h47.31.130,forced_choiceRT,2021.1.2,Win32,59.89099838,,,,,,,,8,Ontime,f,1,1.984799999,5,0,20,0,1,,,,,
1.7,,,,,,,,,g.PNG,g,5b98d9362cca9c0001de161f,2021-10-19_12h47.31.130,forced_choiceRT,2021.1.2,Win32,59.89099838,,,,,,,,8,Fast,f,0,1.8166,5,1,21,1,1,,,,,
1.73,,,,,,,,,j.PNG,j,5b98d9362cca9c0001de161f,2021-10-19_12h47.31.130,forced_choiceRT,2021.1.2,Win32,59.89099838,,,,,,,,8,Ontime,g,0,2.009299999,5,2,22,3,1,,,,,
1.57,,,,,,,,,h.PNG,h,5b98d9362cca9c0001de161f,2021-10-19_12h47.31.130,forced_choiceRT,2021.1.2,Win32,59.89099838,,,,,,,,8,Fast,f,0,1.762400002,5,3,23,2,1,,,,,
0.24,,,,,,,,,j.PNG,j,5b98d9362cca9c0001de161f,2021-10-19_12h47.31.130,forced_choiceRT,2021.1.2,Win32,59.89099838,,,,,,,,8,Ontime,j,1,2.0391,6,0,24,3,1,,,,,
1.71,,,,,,,,,h.PNG,h,5b98d9362cca9c0001de161f,2021-10-19_12h47.31.130,forced_choiceRT,2021.1.2,Win32,59.89099838,,,,,,,,8,Ontime,h,1,1.9989,6,1,25,2,1,,,,,
0.4,,,,,,,,,g.PNG,g,5b98d9362cca9c0001de161f,2021-10-19_12h47.31.130,forced_choiceRT,2021.1.2,Win32,59.89099838,,,,,,,,8,Ontime,g,1,2.0275,6,2,26,1,1,,,,,
0.76,,,,,,,,,h.PNG,h,5b98d9362cca9c0001de161f,2021-10-19_12h47.31.130,forced_choiceRT,2021.1.2,Win32,59.89099838,,,,,,,,8,Ontime,h,1,1.949099998,6,3,27,2,1,,,,,
0.85,,,,,,,,,g.PNG,g,5b98d9362cca9c0001de161f,2021-10-19_12h47.31.130,forced_choiceRT,2021.1.2,Win32,59.89099838,,,,,,,,8,Fast,h,0,1.7419,7,0,28,1,1,,,,,
0.01,,,,,,,,,f.PNG,f,5b98d9362cca9c0001de161f,2021-10-19_12h47.31.130,forced_choiceRT,2021.1.2,Win32,59.89099838,,,,,,,,8,Fast,f,1,1.831599998,7,1,29,0,1,,,,,
0.97,,,,,,,,,g.PNG,g,5b98d9362cca9c0001de161f,2021-10-19_12h47.31.130,forced_choiceRT,2021.1.2,Win32,59.89099838,,,,,,,,8,Slow,g,1,2.182700001,7,2,30,1,1,,,,,
0.02,,,,,,,,,h.PNG,h,5b98d9362cca9c0001de161f,2021-10-19_12h47.31.130,forced_choiceRT,2021.1.2,Win32,59.89099838,,,,,,,,8,Fast,h,1,1.806,7,3,31,2,1,,,,,
0.08,,,,,,,,,f.PNG,f,5b98d9362cca9c0001de161f,2021-10-19_12h47.31.130,forced_choiceRT,2021.1.2,Win32,59.89099838,,,,,,,,8,Fast,f,1,1.797199999,8,0,32,0,1,,,,,
1.39,,,,,,,,,j.PNG,j,5b98d9362cca9c0001de161f,2021-10-19_12h47.31.130,forced_choiceRT,2021.1.2,Win32,59.89099838,,,,,,,,8,Fast,f,0,1.8355,8,1,33,3,1,,,,,
1.69,,,,,,,,,j.PNG,j,5b98d9362cca9c0001de161f,2021-10-19_12h47.31.130,forced_choiceRT,2021.1.2,Win32,59.89099838,,,,,,,,8,Ontime,h,0,1.993699999,8,2,34,3,1,,,,,
0.78,,,,,,,,,f.PNG,f,5b98d9362cca9c0001de161f,2021-10-19_12h47.31.130,forced_choiceRT,2021.1.2,Win32,59.89099838,,,,,,,,8,Ontime,f,1,2.065700001,8,3,35,0,1,,,,,
1.61,,,,,,,,,f.PNG,f,5b98d9362cca9c0001de161f,2021-10-19_12h47.31.130,forced_choiceRT,2021.1.2,Win32,59.89099838,,,,,,,,8,Fast,f,1,1.8945,9,0,36,0,1,,,,,
1.95,,,,,,,,,f.PNG,f,5b98d9362cca9c0001de161f,2021-10-19_12h47.31.130,forced_choiceRT,2021.1.2,Win32,59.89099838,,,,,,,,8,Ontime,f,1,2.0586,9,1,37,0,1,,,,,
1.44,,,,,,,,,f.PNG,f,5b98d9362cca9c0001de161f,2021-10-19_12h47.31.130,forced_choiceRT,2021.1.2,Win32,59.89099838,,,,,,,,8,Slow,f,1,2.271200001,9,2,38,0,1,,,,,
1.69,,,,,,,,,g.PNG,g,5b98d9362cca9c0001de161f,2021-10-19_12h47.31.130,forced_choiceRT,2021.1.2,Win32,59.89099838,,,,,,,,8,Ontime,g,1,2.0041,9,3,39,1,1,,,,,
,,,,,,,,,,,5b98d9362cca9c0001de161f,2021-10-19_12h47.31.130,forced_choiceRT,2021.1.2,Win32,59.89099838,,,,,,,,,,,,,,,,,,7,0,7,0,1
1.79,,,,,,,,,h.PNG,h,5b98d9362cca9c0001de161f,2021-10-19_12h47.31.130,forced_choiceRT,2021.1.2,Win32,59.89099838,,,,,,,,9,Ontime,g,0,2.015300001,0,0,0,2,1,,,,,
0.35,,,,,,,,,f.PNG,f,5b98d9362cca9c0001de161f,2021-10-19_12h47.31.130,forced_choiceRT,2021.1.2,Win32,59.89099838,,,,,,,,9,Ontime,f,1,2.047099998,0,1,1,0,1,,,,,
1.15,,,,,,,,,j.PNG,j,5b98d9362cca9c0001de161f,2021-10-19_12h47.31.130,forced_choiceRT,2021.1.2,Win32,59.89099838,,,,,,,,9,Ontime,f,0,1.998900002,0,2,2,3,1,,,,,
0.41,,,,,,,,,j.PNG,j,5b98d9362cca9c0001de161f,2021-10-19_12h47.31.130,forced_choiceRT,2021.1.2,Win32,59.89099838,,,,,,,,9,Ontime,j,1,1.924700001,0,3,3,3,1,,,,,
1.36,,,,,,,,,j.PNG,j,5b98d9362cca9c0001de161f,2021-10-19_12h47.31.130,forced_choiceRT,2021.1.2,Win32,59.89099838,,,,,,,,9,Ontime,f,0,2.015700001,1,0,4,3,1,,,,,
1.32,,,,,,,,,f.PNG,f,5b98d9362cca9c0001de161f,2021-10-19_12h47.31.130,forced_choiceRT,2021.1.2,Win32,59.89099838,,,,,,,,9,Ontime,f,1,2.0481,1,1,5,0,1,,,,,
0.39,,,,,,,,,g.PNG,g,5b98d9362cca9c0001de161f,2021-10-19_12h47.31.130,forced_choiceRT,2021.1.2,Win32,59.89099838,,,,,,,,9,Ontime,g,1,2.0751,1,2,6,1,1,,,,,
0.54,,,,,,,,,h.PNG,h,5b98d9362cca9c0001de161f,2021-10-19_12h47.31.130,forced_choiceRT,2021.1.2,Win32,59.89099838,,,,,,,,9,Ontime,h,1,2.0655,1,3,7,2,1,,,,,
1.85,,,,,,,,,j.PNG,j,5b98d9362cca9c0001de161f,2021-10-19_12h47.31.130,forced_choiceRT,2021.1.2,Win32,59.89099838,,,,,,,,9,Fast,h,0,1.8615,2,0,8,3,1,,,,,
1.8,,,,,,,,,g.PNG,g,5b98d9362cca9c0001de161f,2021-10-19_12h47.31.130,forced_choiceRT,2021.1.2,Win32,59.89099838,,,,,,,,9,Ontime,h,0,2.099900002,2,1,9,1,1,,,,,
1.11,,,,,,,,,g.PNG,g,5b98d9362cca9c0001de161f,2021-10-19_12h47.31.130,forced_choiceRT,2021.1.2,Win32,59.89099838,,,,,,,,9,Ontime,g,1,2.076,2,2,10,1,1,,,,,
1.82,,,,,,,,,j.PNG,j,5b98d9362cca9c0001de161f,2021-10-19_12h47.31.130,forced_choiceRT,2021.1.2,Win32,59.89099838,,,,,,,,9,Ontime,g,0,1.995,2,3,11,3,1,,,,,
1.01,,,,,,,,,h.PNG,h,5b98d9362cca9c0001de161f,2021-10-19_12h47.31.130,forced_choiceRT,2021.1.2,Win32,59.89099838,,,,,,,,9,Ontime,h,1,1.969,3,0,12,2,1,,,,,
1.39,,,,,,,,,g.PNG,g,5b98d9362cca9c0001de161f,2021-10-19_12h47.31.130,forced_choiceRT,2021.1.2,Win32,59.89099838,,,,,,,,9,Fast,h,0,1.882300001,3,1,13,1,1,,,,,
0.4,,,,,,,,,h.PNG,h,5b98d9362cca9c0001de161f,2021-10-19_12h47.31.130,forced_choiceRT,2021.1.2,Win32,59.89099838,,,,,,,,9,Ontime,h,1,2.095299999,3,2,14,2,1,,,,,
0.9,,,,,,,,,f.PNG,f,5b98d9362cca9c0001de161f,2021-10-19_12h47.31.130,forced_choiceRT,2021.1.2,Win32,59.89099838,,,,,,,,9,Ontime,h,0,2.0994,3,3,15,0,1,,,,,
1.62,,,,,,,,,j.PNG,j,5b98d9362cca9c0001de161f,2021-10-19_12h47.31.130,forced_choiceRT,2021.1.2,Win32,59.89099838,,,,,,,,9,Ontime,h,0,1.9325,4,0,16,3,1,,,,,
1.96,,,,,,,,,f.PNG,f,5b98d9362cca9c0001de161f,2021-10-19_12h47.31.130,forced_choiceRT,2021.1.2,Win32,59.89099838,,,,,,,,9,Ontime,h,0,2.015699999,4,1,17,0,1,,,,,
1.6,,,,,,,,,g.PNG,g,5b98d9362cca9c0001de161f,2021-10-19_12h47.31.130,forced_choiceRT,2021.1.2,Win32,59.89099838,,,,,,,,9,Ontime,g,1,2.021,4,2,18,1,1,,,,,
1.58,,,,,,,,,j.PNG,j,5b98d9362cca9c0001de161f,2021-10-19_12h47.31.130,forced_choiceRT,2021.1.2,Win32,59.89099838,,,,,,,,9,Ontime,h,0,2.083700001,4,3,19,3,1,,,,,
1.5,,,,,,,,,g.PNG,g,5b98d9362cca9c0001de161f,2021-10-19_12h47.31.130,forced_choiceRT,2021.1.2,Win32,59.89099838,,,,,,,,9,Ontime,j,0,1.984700001,5,0,20,1,1,,,,,
1.09,,,,,,,,,h.PNG,h,5b98d9362cca9c0001de161f,2021-10-19_12h47.31.130,forced_choiceRT,2021.1.2,Win32,59.89099838,,,,,,,,9,Ontime,j,0,2.007200001,5,1,21,2,1,,,,,
0.44,,,,,,,,,f.PNG,f,5b98d9362cca9c0001de161f,2021-10-19_12h47.31.130,forced_choiceRT,2021.1.2,Win32,59.89099838,,,,,,,,9,Ontime,f,1,1.959099998,5,2,22,0,1,,,,,
0.72,,,,,,,,,f.PNG,f,5b98d9362cca9c0001de161f,2021-10-19_12h47.31.130,forced_choiceRT,2021.1.2,Win32,59.89099838,,,,,,,,9,Slow,f,1,2.137299999,5,3,23,0,1,,,,,
0.73,,,,,,,,,h.PNG,h,5b98d9362cca9c0001de161f,2021-10-19_12h47.31.130,forced_choiceRT,2021.1.2,Win32,59.89099838,,,,,,,,9,Ontime,h,1,2.017900002,6,0,24,2,1,,,,,
1.18,,,,,,,,,g.PNG,g,5b98d9362cca9c0001de161f,2021-10-19_12h47.31.130,forced_choiceRT,2021.1.2,Win32,59.89099838,,,,,,,,9,Fast,g,1,1.842200001,6,1,25,1,1,,,,,
1.74,,,,,,,,,f.PNG,f,5b98d9362cca9c0001de161f,2021-10-19_12h47.31.130,forced_choiceRT,2021.1.2,Win32,59.89099838,,,,,,,,9,Ontime,g,0,2.0239,6,2,26,0,1,,,,,
1.21,,,,,,,,,g.PNG,g,5b98d9362cca9c0001de161f,2021-10-19_12h47.31.130,forced_choiceRT,2021.1.2,Win32,59.89099838,,,,,,,,9,Slow,g,1,2.140199999,6,3,27,1,1,,,,,
0.81,,,,,,,,,f.PNG,f,5b98d9362cca9c0001de161f,2021-10-19_12h47.31.130,forced_choiceRT,2021.1.2,Win32,59.89099838,,,,,,,,9,Fast,f,1,1.880200001,7,0,28,0,1,,,,,
1.16,,,,,,,,,f.PNG,f,5b98d9362cca9c0001de161f,2021-10-19_12h47.31.130,forced_choiceRT,2021.1.2,Win32,59.89099838,,,,,,,,9,Ontime,f,1,2.046200001,7,1,29,0,1,,,,,
1.1,,,,,,,,,h.PNG,h,5b98d9362cca9c0001de161f,2021-10-19_12h47.31.130,forced_choiceRT,2021.1.2,Win32,59.89099838,,,,,,,,9,Slow,h,1,2.1684,7,2,30,2,1,,,,,
1.14,,,,,,,,,j.PNG,j,5b98d9362cca9c0001de161f,2021-10-19_12h47.31.130,forced_choiceRT,2021.1.2,Win32,59.89099838,,,,,,,,9,Slow,j,1,2.1376,7,3,31,3,1,,,,,
1.94,,,,,,,,,g.PNG,g,5b98d9362cca9c0001de161f,2021-10-19_12h47.31.130,forced_choiceRT,2021.1.2,Win32,59.89099838,,,,,,,,9,Slow,j,0,2.126699999,8,0,32,1,1,,,,,
0.89,,,,,,,,,f.PNG,f,5b98d9362cca9c0001de161f,2021-10-19_12h47.31.130,forced_choiceRT,2021.1.2,Win32,59.89099838,,,,,,,,9,Ontime,f,1,2.054199999,8,1,33,0,1,,,,,
1,,,,,,,,,h.PNG,h,5b98d9362cca9c0001de161f,2021-10-19_12h47.31.130,forced_choiceRT,2021.1.2,Win32,59.89099838,,,,,,,,9,Ontime,h,1,2.019599998,8,2,34,2,1,,,,,
1.48,,,,,,,,,g.PNG,g,5b98d9362cca9c0001de161f,2021-10-19_12h47.31.130,forced_choiceRT,2021.1.2,Win32,59.89099838,,,,,,,,9,Slow,g,1,2.107799999,8,3,35,1,1,,,,,
1.45,,,,,,,,,j.PNG,j,5b98d9362cca9c0001de161f,2021-10-19_12h47.31.130,forced_choiceRT,2021.1.2,Win32,59.89099838,,,,,,,,9,Slow,j,1,2.1824,9,0,36,3,1,,,,,
0.6,,,,,,,,,j.PNG,j,5b98d9362cca9c0001de161f,2021-10-19_12h47.31.130,forced_choiceRT,2021.1.2,Win32,59.89099838,,,,,,,,9,Ontime,j,1,2.0454,9,1,37,3,1,,,,,
0.66,,,,,,,,,h.PNG,h,5b98d9362cca9c0001de161f,2021-10-19_12h47.31.130,forced_choiceRT,2021.1.2,Win32,59.89099838,,,,,,,,9,Ontime,h,1,2.028599998,9,2,38,2,1,,,,,
1.58,,,,,,,,,h.PNG,h,5b98d9362cca9c0001de161f,2021-10-19_12h47.31.130,forced_choiceRT,2021.1.2,Win32,59.89099838,,,,,,,,9,Slow,j,0,2.201800001,9,3,39,2,1,,,,,
,,,,,,,,,,,5b98d9362cca9c0001de161f,2021-10-19_12h47.31.130,forced_choiceRT,2021.1.2,Win32,59.89099838,,,,,,,,,,,,,,,,,,8,0,8,0,1
1.42,,,,,,,,,j.PNG,j,5b98d9362cca9c0001de161f,2021-10-19_12h47.31.130,forced_choiceRT,2021.1.2,Win32,59.89099838,,,,,,,,10,Ontime,j,1,2.096200001,0,0,0,3,1,,,,,
1.75,,,,,,,,,h.PNG,h,5b98d9362cca9c0001de161f,2021-10-19_12h47.31.130,forced_choiceRT,2021.1.2,Win32,59.89099838,,,,,,,,10,Ontime,g,0,2.0811,0,1,1,2,1,,,,,
1.72,,,,,,,,,g.PNG,g,5b98d9362cca9c0001de161f,2021-10-19_12h47.31.130,forced_choiceRT,2021.1.2,Win32,59.89099838,,,,,,,,10,Slow,g,1,2.452,0,2,2,1,1,,,,,
0.62,,,,,,,,,h.PNG,h,5b98d9362cca9c0001de161f,2021-10-19_12h47.31.130,forced_choiceRT,2021.1.2,Win32,59.89099838,,,,,,,,10,Ontime,h,1,1.9225,0,3,3,2,1,,,,,
0.01,,,,,,,,,f.PNG,f,5b98d9362cca9c0001de161f,2021-10-19_12h47.31.130,forced_choiceRT,2021.1.2,Win32,59.89099838,,,,,,,,10,Ontime,f,1,2.0115,1,0,4,0,1,,,,,
0.42,,,,,,,,,g.PNG,g,5b98d9362cca9c0001de161f,2021-10-19_12h47.31.130,forced_choiceRT,2021.1.2,Win32,59.89099838,,,,,,,,10,Ontime,g,1,2.0666,1,1,5,1,1,,,,,
1.01,,,,,,,,,h.PNG,h,5b98d9362cca9c0001de161f,2021-10-19_12h47.31.130,forced_choiceRT,2021.1.2,Win32,59.89099838,,,,,,,,10,Ontime,h,1,2.0329,1,2,6,2,1,,,,,
0.13,,,,,,,,,f.PNG,f,5b98d9362cca9c0001de161f,2021-10-19_12h47.31.130,forced_choiceRT,2021.1.2,Win32,59.89099838,,,,,,,,10,Slow,f,1,2.117299999,1,3,7,0,1,,,,,
1.35,,,,,,,,,j.PNG,j,5b98d9362cca9c0001de161f,2021-10-19_12h47.31.130,forced_choiceRT,2021.1.2,Win32,59.89099838,,,,,,,,10,Slow,j,1,2.1595,2,0,8,3,1,,,,,
0.34,,,,,,,,,g.PNG,g,5b98d9362cca9c0001de161f,2021-10-19_12h47.31.130,forced_choiceRT,2021.1.2,Win32,59.89099838,,,,,,,,10,Ontime,g,1,2.010800001,2,1,9,1,1,,,,,
1.88,,,,,,,,,j.PNG,j,5b98d9362cca9c0001de161f,2021-10-19_12h47.31.130,forced_choiceRT,2021.1.2,Win32,59.89099838,,,,,,,,10,Ontime,g,0,2.0725,2,2,10,3,1,,,,,
1.58,,,,,,,,,g.PNG,g,5b98d9362cca9c0001de161f,2021-10-19_12h47.31.130,forced_choiceRT,2021.1.2,Win32,59.89099838,,,,,,,,10,Ontime,j,0,1.9009,2,3,11,1,1,,,,,
1.59,,,,,,,,,j.PNG,j,5b98d9362cca9c0001de161f,2021-10-19_12h47.31.130,forced_choiceRT,2021.1.2,Win32,59.89099838,,,,,,,,10,Slow,j,1,2.297800001,3,0,12,3,1,,,,,
1.63,,,,,,,,,g.PNG,g,5b98d9362cca9c0001de161f,2021-10-19_12h47.31.130,forced_choiceRT,2021.1.2,Win32,59.89099838,,,,,,,,10,Ontime,g,1,1.9955,3,1,13,1,1,,,,,
1.07,,,,,,,,,h.PNG,h,5b98d9362cca9c0001de161f,2021-10-19_12h47.31.130,forced_choiceRT,2021.1.2,Win32,59.89099838,,,,,,,,10,Ontime,h,1,2.003300001,3,2,14,2,1,,,,,
1.35,,,,,,,,,h.PNG,h,5b98d9362cca9c0001de161f,2021-10-19_12h47.31.130,forced_choiceRT,2021.1.2,Win32,59.89099838,,,,,,,,10,Ontime,h,1,1.988199999,3,3,15,2,1,,,,,
0.61,,,,,,,,,f.PNG,f,5b98d9362cca9c0001de161f,2021-10-19_12h47.31.130,forced_choiceRT,2021.1.2,Win32,59.89099838,,,,,,,,10,Ontime,f,1,2.066200001,4,0,16,0,1,,,,,
1.03,,,,,,,,,h.PNG,h,5b98d9362cca9c0001de161f,2021-10-19_12h47.31.130,forced_choiceRT,2021.1.2,Win32,59.89099838,,,,,,,,10,Slow,h,1,2.127199999,4,1,17,2,1,,,,,
1.23,,,,,,,,,h.PNG,h,5b98d9362cca9c0001de161f,2021-10-19_12h47.31.130,forced_choiceRT,2021.1.2,Win32,59.89099838,,,,,,,,10,Ontime,h,1,1.9064,4,2,18,2,1,,,,,
0.11,,,,,,,,,h.PNG,h,5b98d9362cca9c0001de161f,2021-10-19_12h47.31.130,forced_choiceRT,2021.1.2,Win32,59.89099838,,,,,,,,10,Ontime,h,1,1.9326,4,3,19,2,1,,,,,
1.75,,,,,,,,,f.PNG,f,5b98d9362cca9c0001de161f,2021-10-19_12h47.31.130,forced_choiceRT,2021.1.2,Win32,59.89099838,,,,,,,,10,Ontime,g,0,2.094800001,5,0,20,0,1,,,,,
0.77,,,,,,,,,h.PNG,h,5b98d9362cca9c0001de161f,2021-10-19_12h47.31.130,forced_choiceRT,2021.1.2,Win32,59.89099838,,,,,,,,10,Ontime,h,1,2.0679,5,1,21,2,1,,,,,
1.44,,,,,,,,,f.PNG,f,5b98d9362cca9c0001de161f,2021-10-19_12h47.31.130,forced_choiceRT,2021.1.2,Win32,59.89099838,,,,,,,,10,Slow,f,1,2.191200001,5,2,22,0,1,,,,,
1.88,,,,,,,,,j.PNG,j,5b98d9362cca9c0001de161f,2021-10-19_12h47.31.130,forced_choiceRT,2021.1.2,Win32,59.89099838,,,,,,,,10,Slow,f,0,2.1671,5,3,23,3,1,,,,,
1.5,,,,,,,,,j.PNG,j,5b98d9362cca9c0001de161f,2021-10-19_12h47.31.130,forced_choiceRT,2021.1.2,Win32,59.89099838,,,,,,,,10,Slow,h,0,2.2335,6,0,24,3,1,,,,,
1.85,,,,,,,,,j.PNG,j,5b98d9362cca9c0001de161f,2021-10-19_12h47.31.130,forced_choiceRT,2021.1.2,Win32,59.89099838,,,,,,,,10,Slow,j,1,2.103299999,6,1,25,3,1,,,,,
1.16,,,,,,,,,g.PNG,g,5b98d9362cca9c0001de161f,2021-10-19_12h47.31.130,forced_choiceRT,2021.1.2,Win32,59.89099838,,,,,,,,10,Ontime,g,1,2.009299999,6,2,26,1,1,,,,,
0.95,,,,,,,,,j.PNG,j,5b98d9362cca9c0001de161f,2021-10-19_12h47.31.130,forced_choiceRT,2021.1.2,Win32,59.89099838,,,,,,,,10,Ontime,j,1,1.929,6,3,27,3,1,,,,,
1.59,,,,,,,,,f.PNG,f,5b98d9362cca9c0001de161f,2021-10-19_12h47.31.130,forced_choiceRT,2021.1.2,Win32,59.89099838,,,,,,,,10,Ontime,g,0,1.963299999,7,0,28,0,1,,,,,
1.26,,,,,,,,,f.PNG,f,5b98d9362cca9c0001de161f,2021-10-19_12h47.31.130,forced_choiceRT,2021.1.2,Win32,59.89099838,,,,,,,,10,Ontime,f,1,2.029700001,7,1,29,0,1,,,,,
1.05,,,,,,,,,g.PNG,g,5b98d9362cca9c0001de161f,2021-10-19_12h47.31.130,forced_choiceRT,2021.1.2,Win32,59.89099838,,,,,,,,10,Slow,g,1,2.1964,7,2,30,1,1,,,,,
1.45,,,,,,,,,j.PNG,j,5b98d9362cca9c0001de161f,2021-10-19_12h47.31.130,forced_choiceRT,2021.1.2,Win32,59.89099838,,,,,,,,10,Slow,j,1,2.1706,7,3,31,3,1,,,,,
1.52,,,,,,,,,h.PNG,h,5b98d9362cca9c0001de161f,2021-10-19_12h47.31.130,forced_choiceRT,2021.1.2,Win32,59.89099838,,,,,,,,10,Fast,g,0,1.8989,8,0,32,2,1,,,,,
1.89,,,,,,,,,f.PNG,f,5b98d9362cca9c0001de161f,2021-10-19_12h47.31.130,forced_choiceRT,2021.1.2,Win32,59.89099838,,,,,,,,10,Slow,h,0,2.159800001,8,1,33,0,1,,,,,
0.4,,,,,,,,,g.PNG,g,5b98d9362cca9c0001de161f,2021-10-19_12h47.31.130,forced_choiceRT,2021.1.2,Win32,59.89099838,,,,,,,,10,Ontime,g,1,1.991700001,8,2,34,1,1,,,,,
0.85,,,,,,,,,g.PNG,g,5b98d9362cca9c0001de161f,2021-10-19_12h47.31.130,forced_choiceRT,2021.1.2,Win32,59.89099838,,,,,,,,10,Ontime,g,1,1.911300001,8,3,35,1,1,,,,,
1.59,,,,,,,,,g.PNG,g,5b98d9362cca9c0001de161f,2021-10-19_12h47.31.130,forced_choiceRT,2021.1.2,Win32,59.89099838,,,,,,,,10,Ontime,g,1,2.067900002,9,0,36,1,1,,,,,
1.56,,,,,,,,,j.PNG,j,5b98d9362cca9c0001de161f,2021-10-19_12h47.31.130,forced_choiceRT,2021.1.2,Win32,59.89099838,,,,,,,,10,Slow,j,1,2.263199999,9,1,37,3,1,,,,,
1.17,,,,,,,,,f.PNG,f,5b98d9362cca9c0001de161f,2021-10-19_12h47.31.130,forced_choiceRT,2021.1.2,Win32,59.89099838,,,,,,,,10,Ontime,f,1,2.0765,9,2,38,0,1,,,,,
0.78,,,,,,,,,f.PNG,f,5b98d9362cca9c0001de161f,2021-10-19_12h47.31.130,forced_choiceRT,2021.1.2,Win32,59.89099838,,,,,,,,10,Ontime,f,1,2.0985,9,3,39,0,1,,,,,
,,,,,,,,,,,5b98d9362cca9c0001de161f,2021-10-19_12h47.31.130,forced_choiceRT,2021.1.2,Win32,59.89099838,,,,,,,,,,,,,,,,,,9,0,9,0,1
