target_onset,trial_resp_sp.keys,trial_resp_sp.corr,trial_resp_sp.rt,trials_train_loop.thisRepN,trials_train_loop.thisTrialN,trials_train_loop.thisN,trials_train_loop.thisIndex,trials_train_loop.ran,pic,correct_key,participant,date,expName,psychopyVersion,OS,frameRate,trial_resp_timing.keys,trial_resp_timing.rt,trials_train_timing.thisRepN,trials_train_timing.thisTrialN,trials_train_timing.thisN,trials_train_timing.thisIndex,trials_train_timing.ran,block_id,ontime,forcedRT_resp.keys,forcedRT_resp.corr,forcedRT_resp.rt,trials.thisRepN,trials.thisTrialN,trials.thisN,trials.thisIndex,trials.ran,blocks.thisRepN,blocks.thisTrialN,blocks.thisN,blocks.thisIndex,blocks.ran
0,f,1,1.2729,0,0,0,0,1,f.PNG,f,5c46540c4b9ebe00012eef7f,2021-10-20_10h50.19.685,forced_choiceRT,2021.1.2,Win32,59.74429442,,,,,,,,,,,,,,,,,,,,,,
0,g,1,0.9224,0,1,1,1,1,g.PNG,g,5c46540c4b9ebe00012eef7f,2021-10-20_10h50.19.685,forced_choiceRT,2021.1.2,Win32,59.74429442,,,,,,,,,,,,,,,,,,,,,,
0,g,1,0.8463,0,2,2,1,1,g.PNG,g,5c46540c4b9ebe00012eef7f,2021-10-20_10h50.19.685,forced_choiceRT,2021.1.2,Win32,59.74429442,,,,,,,,,,,,,,,,,,,,,,
0,j,0,0.6036,0,3,3,2,1,h.PNG,h,5c46540c4b9ebe00012eef7f,2021-10-20_10h50.19.685,forced_choiceRT,2021.1.2,Win32,59.74429442,,,,,,,,,,,,,,,,,,,,,,
0,j,1,1.0706,1,0,4,3,1,j.PNG,j,5c46540c4b9ebe00012eef7f,2021-10-20_10h50.19.685,forced_choiceRT,2021.1.2,Win32,59.74429442,,,,,,,,,,,,,,,,,,,,,,
0,j,1,0.7582,1,1,5,3,1,j.PNG,j,5c46540c4b9ebe00012eef7f,2021-10-20_10h50.19.685,forced_choiceRT,2021.1.2,Win32,59.74429442,,,,,,,,,,,,,,,,,,,,,,
0,g,1,1.2219,1,2,6,1,1,g.PNG,g,5c46540c4b9ebe00012eef7f,2021-10-20_10h50.19.685,forced_choiceRT,2021.1.2,Win32,59.74429442,,,,,,,,,,,,,,,,,,,,,,
0,h,1,1.042,1,3,7,2,1,h.PNG,h,5c46540c4b9ebe00012eef7f,2021-10-20_10h50.19.685,forced_choiceRT,2021.1.2,Win32,59.74429442,,,,,,,,,,,,,,,,,,,,,,
0,j,1,0.8726,2,0,8,3,1,j.PNG,j,5c46540c4b9ebe00012eef7f,2021-10-20_10h50.19.685,forced_choiceRT,2021.1.2,Win32,59.74429442,,,,,,,,,,,,,,,,,,,,,,
0,g,1,1.1925,2,1,9,1,1,g.PNG,g,5c46540c4b9ebe00012eef7f,2021-10-20_10h50.19.685,forced_choiceRT,2021.1.2,Win32,59.74429442,,,,,,,,,,,,,,,,,,,,,,
0,f,1,0.7398,2,2,10,0,1,f.PNG,f,5c46540c4b9ebe00012eef7f,2021-10-20_10h50.19.685,forced_choiceRT,2021.1.2,Win32,59.74429442,,,,,,,,,,,,,,,,,,,,,,
0,g,1,1.7384,2,3,11,1,1,g.PNG,g,5c46540c4b9ebe00012eef7f,2021-10-20_10h50.19.685,forced_choiceRT,2021.1.2,Win32,59.74429442,,,,,,,,,,,,,,,,,,,,,,
0,g,1,0.7284,3,0,12,1,1,g.PNG,g,5c46540c4b9ebe00012eef7f,2021-10-20_10h50.19.685,forced_choiceRT,2021.1.2,Win32,59.74429442,,,,,,,,,,,,,,,,,,,,,,
0,j,1,0.6898,3,1,13,3,1,j.PNG,j,5c46540c4b9ebe00012eef7f,2021-10-20_10h50.19.685,forced_choiceRT,2021.1.2,Win32,59.74429442,,,,,,,,,,,,,,,,,,,,,,
0,j,1,0.6557,3,2,14,3,1,j.PNG,j,5c46540c4b9ebe00012eef7f,2021-10-20_10h50.19.685,forced_choiceRT,2021.1.2,Win32,59.74429442,,,,,,,,,,,,,,,,,,,,,,
0,f,1,0.6391,3,3,15,0,1,f.PNG,f,5c46540c4b9ebe00012eef7f,2021-10-20_10h50.19.685,forced_choiceRT,2021.1.2,Win32,59.74429442,,,,,,,,,,,,,,,,,,,,,,
0,g,1,0.7459,4,0,16,1,1,g.PNG,g,5c46540c4b9ebe00012eef7f,2021-10-20_10h50.19.685,forced_choiceRT,2021.1.2,Win32,59.74429442,,,,,,,,,,,,,,,,,,,,,,
0,g,1,0.6054,4,1,17,1,1,g.PNG,g,5c46540c4b9ebe00012eef7f,2021-10-20_10h50.19.685,forced_choiceRT,2021.1.2,Win32,59.74429442,,,,,,,,,,,,,,,,,,,,,,
0,f,1,0.6306,4,2,18,0,1,f.PNG,f,5c46540c4b9ebe00012eef7f,2021-10-20_10h50.19.685,forced_choiceRT,2021.1.2,Win32,59.74429442,,,,,,,,,,,,,,,,,,,,,,
0,g,1,0.7423,4,3,19,1,1,g.PNG,g,5c46540c4b9ebe00012eef7f,2021-10-20_10h50.19.685,forced_choiceRT,2021.1.2,Win32,59.74429442,,,,,,,,,,,,,,,,,,,,,,
0,j,1,0.6711,5,0,20,3,1,j.PNG,j,5c46540c4b9ebe00012eef7f,2021-10-20_10h50.19.685,forced_choiceRT,2021.1.2,Win32,59.74429442,,,,,,,,,,,,,,,,,,,,,,
0,h,1,0.5548,5,1,21,2,1,h.PNG,h,5c46540c4b9ebe00012eef7f,2021-10-20_10h50.19.685,forced_choiceRT,2021.1.2,Win32,59.74429442,,,,,,,,,,,,,,,,,,,,,,
0,j,1,0.6055,5,2,22,3,1,j.PNG,j,5c46540c4b9ebe00012eef7f,2021-10-20_10h50.19.685,forced_choiceRT,2021.1.2,Win32,59.74429442,,,,,,,,,,,,,,,,,,,,,,
0,f,1,0.6546,5,3,23,0,1,f.PNG,f,5c46540c4b9ebe00012eef7f,2021-10-20_10h50.19.685,forced_choiceRT,2021.1.2,Win32,59.74429442,,,,,,,,,,,,,,,,,,,,,,
0,h,1,0.6229,6,0,24,2,1,h.PNG,h,5c46540c4b9ebe00012eef7f,2021-10-20_10h50.19.685,forced_choiceRT,2021.1.2,Win32,59.74429442,,,,,,,,,,,,,,,,,,,,,,
0,h,1,0.659,6,1,25,2,1,h.PNG,h,5c46540c4b9ebe00012eef7f,2021-10-20_10h50.19.685,forced_choiceRT,2021.1.2,Win32,59.74429442,,,,,,,,,,,,,,,,,,,,,,
0,g,1,0.5766,6,2,26,1,1,g.PNG,g,5c46540c4b9ebe00012eef7f,2021-10-20_10h50.19.685,forced_choiceRT,2021.1.2,Win32,59.74429442,,,,,,,,,,,,,,,,,,,,,,
0,f,1,0.6088,6,3,27,0,1,f.PNG,f,5c46540c4b9ebe00012eef7f,2021-10-20_10h50.19.685,forced_choiceRT,2021.1.2,Win32,59.74429442,,,,,,,,,,,,,,,,,,,,,,
0,f,1,0.589,7,0,28,0,1,f.PNG,f,5c46540c4b9ebe00012eef7f,2021-10-20_10h50.19.685,forced_choiceRT,2021.1.2,Win32,59.74429442,,,,,,,,,,,,,,,,,,,,,,
0,h,1,0.8071,7,1,29,2,1,h.PNG,h,5c46540c4b9ebe00012eef7f,2021-10-20_10h50.19.685,forced_choiceRT,2021.1.2,Win32,59.74429442,,,,,,,,,,,,,,,,,,,,,,
0,h,1,0.8106,7,2,30,2,1,h.PNG,h,5c46540c4b9ebe00012eef7f,2021-10-20_10h50.19.685,forced_choiceRT,2021.1.2,Win32,59.74429442,,,,,,,,,,,,,,,,,,,,,,
0,f,1,0.6412,7,3,31,0,1,f.PNG,f,5c46540c4b9ebe00012eef7f,2021-10-20_10h50.19.685,forced_choiceRT,2021.1.2,Win32,59.74429442,,,,,,,,,,,,,,,,,,,,,,
0,j,1,0.6218,8,0,32,3,1,j.PNG,j,5c46540c4b9ebe00012eef7f,2021-10-20_10h50.19.685,forced_choiceRT,2021.1.2,Win32,59.74429442,,,,,,,,,,,,,,,,,,,,,,
0,h,1,0.5891,8,1,33,2,1,h.PNG,h,5c46540c4b9ebe00012eef7f,2021-10-20_10h50.19.685,forced_choiceRT,2021.1.2,Win32,59.74429442,,,,,,,,,,,,,,,,,,,,,,
0,g,1,1.1577,8,2,34,1,1,g.PNG,g,5c46540c4b9ebe00012eef7f,2021-10-20_10h50.19.685,forced_choiceRT,2021.1.2,Win32,59.74429442,,,,,,,,,,,,,,,,,,,,,,
0,h,1,0.6725,8,3,35,2,1,h.PNG,h,5c46540c4b9ebe00012eef7f,2021-10-20_10h50.19.685,forced_choiceRT,2021.1.2,Win32,59.74429442,,,,,,,,,,,,,,,,,,,,,,
0,h,1,0.5878,9,0,36,2,1,h.PNG,h,5c46540c4b9ebe00012eef7f,2021-10-20_10h50.19.685,forced_choiceRT,2021.1.2,Win32,59.74429442,,,,,,,,,,,,,,,,,,,,,,
0,h,1,0.51,9,1,37,2,1,h.PNG,h,5c46540c4b9ebe00012eef7f,2021-10-20_10h50.19.685,forced_choiceRT,2021.1.2,Win32,59.74429442,,,,,,,,,,,,,,,,,,,,,,
0,f,1,0.5745,9,2,38,0,1,f.PNG,f,5c46540c4b9ebe00012eef7f,2021-10-20_10h50.19.685,forced_choiceRT,2021.1.2,Win32,59.74429442,,,,,,,,,,,,,,,,,,,,,,
0,g,1,0.5891,9,3,39,1,1,g.PNG,g,5c46540c4b9ebe00012eef7f,2021-10-20_10h50.19.685,forced_choiceRT,2021.1.2,Win32,59.74429442,,,,,,,,,,,,,,,,,,,,,,
0,j,1,0.6557,10,0,40,3,1,j.PNG,j,5c46540c4b9ebe00012eef7f,2021-10-20_10h50.19.685,forced_choiceRT,2021.1.2,Win32,59.74429442,,,,,,,,,,,,,,,,,,,,,,
0,h,1,0.5565,10,1,41,2,1,h.PNG,h,5c46540c4b9ebe00012eef7f,2021-10-20_10h50.19.685,forced_choiceRT,2021.1.2,Win32,59.74429442,,,,,,,,,,,,,,,,,,,,,,
0,f,1,0.5411,10,2,42,0,1,f.PNG,f,5c46540c4b9ebe00012eef7f,2021-10-20_10h50.19.685,forced_choiceRT,2021.1.2,Win32,59.74429442,,,,,,,,,,,,,,,,,,,,,,
0,j,1,0.7132,10,3,43,3,1,j.PNG,j,5c46540c4b9ebe00012eef7f,2021-10-20_10h50.19.685,forced_choiceRT,2021.1.2,Win32,59.74429442,,,,,,,,,,,,,,,,,,,,,,
0,j,1,0.4884,11,0,44,3,1,j.PNG,j,5c46540c4b9ebe00012eef7f,2021-10-20_10h50.19.685,forced_choiceRT,2021.1.2,Win32,59.74429442,,,,,,,,,,,,,,,,,,,,,,
0,h,1,0.5382,11,1,45,2,1,h.PNG,h,5c46540c4b9ebe00012eef7f,2021-10-20_10h50.19.685,forced_choiceRT,2021.1.2,Win32,59.74429442,,,,,,,,,,,,,,,,,,,,,,
0,h,1,0.459,11,2,46,2,1,h.PNG,h,5c46540c4b9ebe00012eef7f,2021-10-20_10h50.19.685,forced_choiceRT,2021.1.2,Win32,59.74429442,,,,,,,,,,,,,,,,,,,,,,
0,j,1,0.5567,11,3,47,3,1,j.PNG,j,5c46540c4b9ebe00012eef7f,2021-10-20_10h50.19.685,forced_choiceRT,2021.1.2,Win32,59.74429442,,,,,,,,,,,,,,,,,,,,,,
0,g,1,0.5389,12,0,48,1,1,g.PNG,g,5c46540c4b9ebe00012eef7f,2021-10-20_10h50.19.685,forced_choiceRT,2021.1.2,Win32,59.74429442,,,,,,,,,,,,,,,,,,,,,,
0,j,1,0.6564,12,1,49,3,1,j.PNG,j,5c46540c4b9ebe00012eef7f,2021-10-20_10h50.19.685,forced_choiceRT,2021.1.2,Win32,59.74429442,,,,,,,,,,,,,,,,,,,,,,
0,j,1,0.5081,12,2,50,3,1,j.PNG,j,5c46540c4b9ebe00012eef7f,2021-10-20_10h50.19.685,forced_choiceRT,2021.1.2,Win32,59.74429442,,,,,,,,,,,,,,,,,,,,,,
0,f,1,0.5217,12,3,51,0,1,f.PNG,f,5c46540c4b9ebe00012eef7f,2021-10-20_10h50.19.685,forced_choiceRT,2021.1.2,Win32,59.74429442,,,,,,,,,,,,,,,,,,,,,,
0,g,1,0.623,13,0,52,1,1,g.PNG,g,5c46540c4b9ebe00012eef7f,2021-10-20_10h50.19.685,forced_choiceRT,2021.1.2,Win32,59.74429442,,,,,,,,,,,,,,,,,,,,,,
0,f,1,0.522,13,1,53,0,1,f.PNG,f,5c46540c4b9ebe00012eef7f,2021-10-20_10h50.19.685,forced_choiceRT,2021.1.2,Win32,59.74429442,,,,,,,,,,,,,,,,,,,,,,
0,g,1,0.4715,13,2,54,1,1,g.PNG,g,5c46540c4b9ebe00012eef7f,2021-10-20_10h50.19.685,forced_choiceRT,2021.1.2,Win32,59.74429442,,,,,,,,,,,,,,,,,,,,,,
0,h,1,0.6212,13,3,55,2,1,h.PNG,h,5c46540c4b9ebe00012eef7f,2021-10-20_10h50.19.685,forced_choiceRT,2021.1.2,Win32,59.74429442,,,,,,,,,,,,,,,,,,,,,,
0,j,1,0.639,14,0,56,3,1,j.PNG,j,5c46540c4b9ebe00012eef7f,2021-10-20_10h50.19.685,forced_choiceRT,2021.1.2,Win32,59.74429442,,,,,,,,,,,,,,,,,,,,,,
0,f,1,0.5726,14,1,57,0,1,f.PNG,f,5c46540c4b9ebe00012eef7f,2021-10-20_10h50.19.685,forced_choiceRT,2021.1.2,Win32,59.74429442,,,,,,,,,,,,,,,,,,,,,,
0,g,0,0.5429,14,2,58,0,1,f.PNG,f,5c46540c4b9ebe00012eef7f,2021-10-20_10h50.19.685,forced_choiceRT,2021.1.2,Win32,59.74429442,,,,,,,,,,,,,,,,,,,,,,
0,f,1,0.5104,14,3,59,0,1,f.PNG,f,5c46540c4b9ebe00012eef7f,2021-10-20_10h50.19.685,forced_choiceRT,2021.1.2,Win32,59.74429442,,,,,,,,,,,,,,,,,,,,,,
,,,,,,,,,,,5c46540c4b9ebe00012eef7f,2021-10-20_10h50.19.685,forced_choiceRT,2021.1.2,Win32,59.74429442,h,2.1282,0,0,0,0,1,,,,,,,,,,,,,,,
,,,,,,,,,,,5c46540c4b9ebe00012eef7f,2021-10-20_10h50.19.685,forced_choiceRT,2021.1.2,Win32,59.74429442,h,0.8226,1,0,1,0,1,,,,,,,,,,,,,,,
,,,,,,,,,,,5c46540c4b9ebe00012eef7f,2021-10-20_10h50.19.685,forced_choiceRT,2021.1.2,Win32,59.74429442,h,1.2275,2,0,2,0,1,,,,,,,,,,,,,,,
,,,,,,,,,,,5c46540c4b9ebe00012eef7f,2021-10-20_10h50.19.685,forced_choiceRT,2021.1.2,Win32,59.74429442,h,1.7467,3,0,3,0,1,,,,,,,,,,,,,,,
,,,,,,,,,,,5c46540c4b9ebe00012eef7f,2021-10-20_10h50.19.685,forced_choiceRT,2021.1.2,Win32,59.74429442,h,2.0094,4,0,4,0,1,,,,,,,,,,,,,,,
,,,,,,,,,,,5c46540c4b9ebe00012eef7f,2021-10-20_10h50.19.685,forced_choiceRT,2021.1.2,Win32,59.74429442,h,2.0563,5,0,5,0,1,,,,,,,,,,,,,,,
,,,,,,,,,,,5c46540c4b9ebe00012eef7f,2021-10-20_10h50.19.685,forced_choiceRT,2021.1.2,Win32,59.74429442,h,2.0616,6,0,6,0,1,,,,,,,,,,,,,,,
,,,,,,,,,,,5c46540c4b9ebe00012eef7f,2021-10-20_10h50.19.685,forced_choiceRT,2021.1.2,Win32,59.74429442,h,2.0398,7,0,7,0,1,,,,,,,,,,,,,,,
,,,,,,,,,,,5c46540c4b9ebe00012eef7f,2021-10-20_10h50.19.685,forced_choiceRT,2021.1.2,Win32,59.74429442,h,2.074,8,0,8,0,1,,,,,,,,,,,,,,,
,,,,,,,,,,,5c46540c4b9ebe00012eef7f,2021-10-20_10h50.19.685,forced_choiceRT,2021.1.2,Win32,59.74429442,g,2.1059,9,0,9,0,1,,,,,,,,,,,,,,,
,,,,,,,,,,,5c46540c4b9ebe00012eef7f,2021-10-20_10h50.19.685,forced_choiceRT,2021.1.2,Win32,59.74429442,h,1.9558,10,0,10,0,1,,,,,,,,,,,,,,,
,,,,,,,,,,,5c46540c4b9ebe00012eef7f,2021-10-20_10h50.19.685,forced_choiceRT,2021.1.2,Win32,59.74429442,h,2.0139,11,0,11,0,1,,,,,,,,,,,,,,,
,,,,,,,,,,,5c46540c4b9ebe00012eef7f,2021-10-20_10h50.19.685,forced_choiceRT,2021.1.2,Win32,59.74429442,h,2.0915,12,0,12,0,1,,,,,,,,,,,,,,,
,,,,,,,,,,,5c46540c4b9ebe00012eef7f,2021-10-20_10h50.19.685,forced_choiceRT,2021.1.2,Win32,59.74429442,h,2.1457,13,0,13,0,1,,,,,,,,,,,,,,,
,,,,,,,,,,,5c46540c4b9ebe00012eef7f,2021-10-20_10h50.19.685,forced_choiceRT,2021.1.2,Win32,59.74429442,j,2.0726,14,0,14,0,1,,,,,,,,,,,,,,,
,,,,,,,,,,,5c46540c4b9ebe00012eef7f,2021-10-20_10h50.19.685,forced_choiceRT,2021.1.2,Win32,59.74429442,j,2.0586,15,0,15,0,1,,,,,,,,,,,,,,,
,,,,,,,,,,,5c46540c4b9ebe00012eef7f,2021-10-20_10h50.19.685,forced_choiceRT,2021.1.2,Win32,59.74429442,j,2.0922,16,0,16,0,1,,,,,,,,,,,,,,,
,,,,,,,,,,,5c46540c4b9ebe00012eef7f,2021-10-20_10h50.19.685,forced_choiceRT,2021.1.2,Win32,59.74429442,j,2.0614,17,0,17,0,1,,,,,,,,,,,,,,,
,,,,,,,,,,,5c46540c4b9ebe00012eef7f,2021-10-20_10h50.19.685,forced_choiceRT,2021.1.2,Win32,59.74429442,j,2.0555,18,0,18,0,1,,,,,,,,,,,,,,,
,,,,,,,,,,,5c46540c4b9ebe00012eef7f,2021-10-20_10h50.19.685,forced_choiceRT,2021.1.2,Win32,59.74429442,j,2.006,19,0,19,0,1,,,,,,,,,,,,,,,
0,,,,,,,,,h.PNG,h,5c46540c4b9ebe00012eef7f,2021-10-20_10h50.19.685,forced_choiceRT,2021.1.2,Win32,59.74429442,,,,,,,,1,Slow,j,0,2.1115,0,0,0,2,1,,,,,
1.73,,,,,,,,,f.PNG,f,5c46540c4b9ebe00012eef7f,2021-10-20_10h50.19.685,forced_choiceRT,2021.1.2,Win32,59.74429442,,,,,,,,1,Slow,f,1,2.2379,0,1,1,0,1,,,,,
0.69,,,,,,,,,j.PNG,j,5c46540c4b9ebe00012eef7f,2021-10-20_10h50.19.685,forced_choiceRT,2021.1.2,Win32,59.74429442,,,,,,,,1,Ontime,j,1,2.0239,0,2,2,3,1,,,,,
0.96,,,,,,,,,h.PNG,h,5c46540c4b9ebe00012eef7f,2021-10-20_10h50.19.685,forced_choiceRT,2021.1.2,Win32,59.74429442,,,,,,,,1,Ontime,g,0,2.0409,0,3,3,2,1,,,,,
0.57,,,,,,,,,g.PNG,g,5c46540c4b9ebe00012eef7f,2021-10-20_10h50.19.685,forced_choiceRT,2021.1.2,Win32,59.74429442,,,,,,,,1,Ontime,g,1,1.9942,1,0,4,1,1,,,,,
0.51,,,,,,,,,h.PNG,h,5c46540c4b9ebe00012eef7f,2021-10-20_10h50.19.685,forced_choiceRT,2021.1.2,Win32,59.74429442,,,,,,,,1,Ontime,h,1,2.0401,1,1,5,2,1,,,,,
0.51,,,,,,,,,h.PNG,h,5c46540c4b9ebe00012eef7f,2021-10-20_10h50.19.685,forced_choiceRT,2021.1.2,Win32,59.74429442,,,,,,,,1,Ontime,h,1,2.0243,1,2,6,2,1,,,,,
0.79,,,,,,,,,j.PNG,j,5c46540c4b9ebe00012eef7f,2021-10-20_10h50.19.685,forced_choiceRT,2021.1.2,Win32,59.74429442,,,,,,,,1,Ontime,j,1,1.9945,1,3,7,3,1,,,,,
1.03,,,,,,,,,g.PNG,g,5c46540c4b9ebe00012eef7f,2021-10-20_10h50.19.685,forced_choiceRT,2021.1.2,Win32,59.74429442,,,,,,,,1,Ontime,f,0,2.0736,2,0,8,1,1,,,,,
0.04,,,,,,,,,f.PNG,f,5c46540c4b9ebe00012eef7f,2021-10-20_10h50.19.685,forced_choiceRT,2021.1.2,Win32,59.74429442,,,,,,,,1,Ontime,f,1,1.9748,2,1,9,0,1,,,,,
1.04,,,,,,,,,j.PNG,j,5c46540c4b9ebe00012eef7f,2021-10-20_10h50.19.685,forced_choiceRT,2021.1.2,Win32,59.74429442,,,,,,,,1,Ontime,j,1,2.0731,2,2,10,3,1,,,,,
0.53,,,,,,,,,g.PNG,g,5c46540c4b9ebe00012eef7f,2021-10-20_10h50.19.685,forced_choiceRT,2021.1.2,Win32,59.74429442,,,,,,,,1,Ontime,g,1,2.0124,2,3,11,1,1,,,,,
1.18,,,,,,,,,g.PNG,g,5c46540c4b9ebe00012eef7f,2021-10-20_10h50.19.685,forced_choiceRT,2021.1.2,Win32,59.74429442,,,,,,,,1,Ontime,g,1,2.0406,3,0,12,1,1,,,,,
0.74,,,,,,,,,j.PNG,j,5c46540c4b9ebe00012eef7f,2021-10-20_10h50.19.685,forced_choiceRT,2021.1.2,Win32,59.74429442,,,,,,,,1,Ontime,j,1,2.0069,3,1,13,3,1,,,,,
0.77,,,,,,,,,g.PNG,g,5c46540c4b9ebe00012eef7f,2021-10-20_10h50.19.685,forced_choiceRT,2021.1.2,Win32,59.74429442,,,,,,,,1,Ontime,g,1,2.0063,3,2,14,1,1,,,,,
0.07,,,,,,,,,f.PNG,f,5c46540c4b9ebe00012eef7f,2021-10-20_10h50.19.685,forced_choiceRT,2021.1.2,Win32,59.74429442,,,,,,,,1,Ontime,f,1,1.9916,3,3,15,0,1,,,,,
0.05,,,,,,,,,f.PNG,f,5c46540c4b9ebe00012eef7f,2021-10-20_10h50.19.685,forced_choiceRT,2021.1.2,Win32,59.74429442,,,,,,,,1,Ontime,f,1,2.0393,4,0,16,0,1,,,,,
0.67,,,,,,,,,j.PNG,j,5c46540c4b9ebe00012eef7f,2021-10-20_10h50.19.685,forced_choiceRT,2021.1.2,Win32,59.74429442,,,,,,,,1,Ontime,j,1,2.0222,4,1,17,3,1,,,,,
1.99,,,,,,,,,f.PNG,f,5c46540c4b9ebe00012eef7f,2021-10-20_10h50.19.685,forced_choiceRT,2021.1.2,Win32,59.74429442,,,,,,,,1,Slow,g,0,2.3261,4,2,18,0,1,,,,,
1.54,,,,,,,,,g.PNG,g,5c46540c4b9ebe00012eef7f,2021-10-20_10h50.19.685,forced_choiceRT,2021.1.2,Win32,59.74429442,,,,,,,,1,Ontime,g,1,2.0099,4,3,19,1,1,,,,,
1.93,,,,,,,,,g.PNG,g,5c46540c4b9ebe00012eef7f,2021-10-20_10h50.19.685,forced_choiceRT,2021.1.2,Win32,59.74429442,,,,,,,,1,Slow,h,0,2.2378,5,0,20,1,1,,,,,
1.01,,,,,,,,,h.PNG,h,5c46540c4b9ebe00012eef7f,2021-10-20_10h50.19.685,forced_choiceRT,2021.1.2,Win32,59.74429442,,,,,,,,1,Ontime,h,1,2.0068,5,1,21,2,1,,,,,
0.38,,,,,,,,,f.PNG,f,5c46540c4b9ebe00012eef7f,2021-10-20_10h50.19.685,forced_choiceRT,2021.1.2,Win32,59.74429442,,,,,,,,1,Ontime,f,1,2.0236,5,2,22,0,1,,,,,
1.3,,,,,,,,,h.PNG,h,5c46540c4b9ebe00012eef7f,2021-10-20_10h50.19.685,forced_choiceRT,2021.1.2,Win32,59.74429442,,,,,,,,1,Ontime,h,1,1.9248,5,3,23,2,1,,,,,
0.54,,,,,,,,,j.PNG,j,5c46540c4b9ebe00012eef7f,2021-10-20_10h50.19.685,forced_choiceRT,2021.1.2,Win32,59.74429442,,,,,,,,1,Ontime,j,1,2.0407,6,0,24,3,1,,,,,
1.71,,,,,,,,,j.PNG,j,5c46540c4b9ebe00012eef7f,2021-10-20_10h50.19.685,forced_choiceRT,2021.1.2,Win32,59.74429442,,,,,,,,1,Ontime,h,0,2.0721,6,1,25,3,1,,,,,
0.3,,,,,,,,,g.PNG,g,5c46540c4b9ebe00012eef7f,2021-10-20_10h50.19.685,forced_choiceRT,2021.1.2,Win32,59.74429442,,,,,,,,1,Ontime,g,1,1.9908,6,2,26,1,1,,,,,
1.79,,,,,,,,,f.PNG,f,5c46540c4b9ebe00012eef7f,2021-10-20_10h50.19.685,forced_choiceRT,2021.1.2,Win32,59.74429442,,,,,,,,1,Ontime,h,0,2.0081,6,3,27,0,1,,,,,
1.26,,,,,,,,,h.PNG,h,5c46540c4b9ebe00012eef7f,2021-10-20_10h50.19.685,forced_choiceRT,2021.1.2,Win32,59.74429442,,,,,,,,1,Ontime,h,1,2.0563,7,0,28,2,1,,,,,
0.17,,,,,,,,,f.PNG,f,5c46540c4b9ebe00012eef7f,2021-10-20_10h50.19.685,forced_choiceRT,2021.1.2,Win32,59.74429442,,,,,,,,1,Ontime,f,1,2.0409,7,1,29,0,1,,,,,
1.63,,,,,,,,,h.PNG,h,5c46540c4b9ebe00012eef7f,2021-10-20_10h50.19.685,forced_choiceRT,2021.1.2,Win32,59.74429442,,,,,,,,1,Slow,h,1,2.1221,7,2,30,2,1,,,,,
0.48,,,,,,,,,g.PNG,g,5c46540c4b9ebe00012eef7f,2021-10-20_10h50.19.685,forced_choiceRT,2021.1.2,Win32,59.74429442,,,,,,,,1,Ontime,g,1,2.0302,7,3,31,1,1,,,,,
1.74,,,,,,,,,h.PNG,h,5c46540c4b9ebe00012eef7f,2021-10-20_10h50.19.685,forced_choiceRT,2021.1.2,Win32,59.74429442,,,,,,,,1,Ontime,f,0,1.9774,8,0,32,2,1,,,,,
1.89,,,,,,,,,j.PNG,j,5c46540c4b9ebe00012eef7f,2021-10-20_10h50.19.685,forced_choiceRT,2021.1.2,Win32,59.74429442,,,,,,,,1,Slow,h,0,2.105,8,1,33,3,1,,,,,
0.63,,,,,,,,,h.PNG,h,5c46540c4b9ebe00012eef7f,2021-10-20_10h50.19.685,forced_choiceRT,2021.1.2,Win32,59.74429442,,,,,,,,1,Ontime,h,1,2.0228,8,2,34,2,1,,,,,
1.79,,,,,,,,,f.PNG,f,5c46540c4b9ebe00012eef7f,2021-10-20_10h50.19.685,forced_choiceRT,2021.1.2,Win32,59.74429442,,,,,,,,1,Ontime,j,0,2.0403,8,3,35,0,1,,,,,
1.17,,,,,,,,,f.PNG,f,5c46540c4b9ebe00012eef7f,2021-10-20_10h50.19.685,forced_choiceRT,2021.1.2,Win32,59.74429442,,,,,,,,1,Ontime,f,1,1.991,9,0,36,0,1,,,,,
1.87,,,,,,,,,j.PNG,j,5c46540c4b9ebe00012eef7f,2021-10-20_10h50.19.685,forced_choiceRT,2021.1.2,Win32,59.74429442,,,,,,,,1,Ontime,h,0,2.0283,9,1,37,3,1,,,,,
0.59,,,,,,,,,j.PNG,j,5c46540c4b9ebe00012eef7f,2021-10-20_10h50.19.685,forced_choiceRT,2021.1.2,Win32,59.74429442,,,,,,,,1,Ontime,j,1,2.074,9,2,38,3,1,,,,,
1.25,,,,,,,,,g.PNG,g,5c46540c4b9ebe00012eef7f,2021-10-20_10h50.19.685,forced_choiceRT,2021.1.2,Win32,59.74429442,,,,,,,,1,Ontime,g,1,2.0564,9,3,39,1,1,,,,,
,,,,,,,,,,,5c46540c4b9ebe00012eef7f,2021-10-20_10h50.19.685,forced_choiceRT,2021.1.2,Win32,59.74429442,,,,,,,,,,,,,,,,,,0,0,0,0,1
0.01,,,,,,,,,g.PNG,g,5c46540c4b9ebe00012eef7f,2021-10-20_10h50.19.685,forced_choiceRT,2021.1.2,Win32,59.74429442,,,,,,,,2,Ontime,g,1,2.0884,0,0,0,1,1,,,,,
0.11,,,,,,,,,h.PNG,h,5c46540c4b9ebe00012eef7f,2021-10-20_10h50.19.685,forced_choiceRT,2021.1.2,Win32,59.74429442,,,,,,,,2,Ontime,h,1,2.0415,0,1,1,2,1,,,,,
1.15,,,,,,,,,g.PNG,g,5c46540c4b9ebe00012eef7f,2021-10-20_10h50.19.685,forced_choiceRT,2021.1.2,Win32,59.74429442,,,,,,,,2,Ontime,g,1,2.0731,0,2,2,1,1,,,,,
1.18,,,,,,,,,h.PNG,h,5c46540c4b9ebe00012eef7f,2021-10-20_10h50.19.685,forced_choiceRT,2021.1.2,Win32,59.74429442,,,,,,,,2,Ontime,h,1,2.0731,0,3,3,2,1,,,,,
1.47,,,,,,,,,g.PNG,g,5c46540c4b9ebe00012eef7f,2021-10-20_10h50.19.685,forced_choiceRT,2021.1.2,Win32,59.74429442,,,,,,,,2,Ontime,g,1,1.9762,1,0,4,1,1,,,,,
0.09,,,,,,,,,j.PNG,j,5c46540c4b9ebe00012eef7f,2021-10-20_10h50.19.685,forced_choiceRT,2021.1.2,Win32,59.74429442,,,,,,,,2,Ontime,j,1,2.0248,1,1,5,3,1,,,,,
1.24,,,,,,,,,j.PNG,j,5c46540c4b9ebe00012eef7f,2021-10-20_10h50.19.685,forced_choiceRT,2021.1.2,Win32,59.74429442,,,,,,,,2,Ontime,j,1,2.0387,1,2,6,3,1,,,,,
0.06,,,,,,,,,f.PNG,f,5c46540c4b9ebe00012eef7f,2021-10-20_10h50.19.685,forced_choiceRT,2021.1.2,Win32,59.74429442,,,,,,,,2,Ontime,f,1,2.0594,1,3,7,0,1,,,,,
1.15,,,,,,,,,f.PNG,f,5c46540c4b9ebe00012eef7f,2021-10-20_10h50.19.685,forced_choiceRT,2021.1.2,Win32,59.74429442,,,,,,,,2,Ontime,f,1,2.0743,2,0,8,0,1,,,,,
0.99,,,,,,,,,g.PNG,g,5c46540c4b9ebe00012eef7f,2021-10-20_10h50.19.685,forced_choiceRT,2021.1.2,Win32,59.74429442,,,,,,,,2,Ontime,g,1,2.047,2,1,9,1,1,,,,,
1.42,,,,,,,,,h.PNG,h,5c46540c4b9ebe00012eef7f,2021-10-20_10h50.19.685,forced_choiceRT,2021.1.2,Win32,59.74429442,,,,,,,,2,Slow,j,0,2.1059,2,2,10,2,1,,,,,
1.32,,,,,,,,,f.PNG,f,5c46540c4b9ebe00012eef7f,2021-10-20_10h50.19.685,forced_choiceRT,2021.1.2,Win32,59.74429442,,,,,,,,2,Ontime,f,1,2.0931,2,3,11,0,1,,,,,
1.15,,,,,,,,,j.PNG,j,5c46540c4b9ebe00012eef7f,2021-10-20_10h50.19.685,forced_choiceRT,2021.1.2,Win32,59.74429442,,,,,,,,2,Ontime,j,1,1.9594,3,0,12,3,1,,,,,
1.06,,,,,,,,,h.PNG,h,5c46540c4b9ebe00012eef7f,2021-10-20_10h50.19.685,forced_choiceRT,2021.1.2,Win32,59.74429442,,,,,,,,2,Ontime,h,1,2.0565,3,1,13,2,1,,,,,
0.94,,,,,,,,,h.PNG,h,5c46540c4b9ebe00012eef7f,2021-10-20_10h50.19.685,forced_choiceRT,2021.1.2,Win32,59.74429442,,,,,,,,2,Ontime,j,0,2.0242,3,2,14,2,1,,,,,
1.73,,,,,,,,,g.PNG,g,5c46540c4b9ebe00012eef7f,2021-10-20_10h50.19.685,forced_choiceRT,2021.1.2,Win32,59.74429442,,,,,,,,2,Slow,g,1,2.2128,3,3,15,1,1,,,,,
1.66,,,,,,,,,j.PNG,j,5c46540c4b9ebe00012eef7f,2021-10-20_10h50.19.685,forced_choiceRT,2021.1.2,Win32,59.74429442,,,,,,,,2,Ontime,j,1,2.0062,4,0,16,3,1,,,,,
1.77,,,,,,,,,j.PNG,j,5c46540c4b9ebe00012eef7f,2021-10-20_10h50.19.685,forced_choiceRT,2021.1.2,Win32,59.74429442,,,,,,,,2,Ontime,g,0,2.09,4,1,17,3,1,,,,,
0.02,,,,,,,,,h.PNG,h,5c46540c4b9ebe00012eef7f,2021-10-20_10h50.19.685,forced_choiceRT,2021.1.2,Win32,59.74429442,,,,,,,,2,Ontime,h,1,2.0132,4,2,18,2,1,,,,,
0.67,,,,,,,,,g.PNG,g,5c46540c4b9ebe00012eef7f,2021-10-20_10h50.19.685,forced_choiceRT,2021.1.2,Win32,59.74429442,,,,,,,,2,Ontime,g,1,1.9945,4,3,19,1,1,,,,,
0.65,,,,,,,,,f.PNG,f,5c46540c4b9ebe00012eef7f,2021-10-20_10h50.19.685,forced_choiceRT,2021.1.2,Win32,59.74429442,,,,,,,,2,Ontime,f,1,1.94,5,0,20,0,1,,,,,
0.25,,,,,,,,,f.PNG,f,5c46540c4b9ebe00012eef7f,2021-10-20_10h50.19.685,forced_choiceRT,2021.1.2,Win32,59.74429442,,,,,,,,2,Ontime,f,1,2.0397,5,1,21,0,1,,,,,
1.75,,,,,,,,,j.PNG,j,5c46540c4b9ebe00012eef7f,2021-10-20_10h50.19.685,forced_choiceRT,2021.1.2,Win32,59.74429442,,,,,,,,2,Slow,h,0,2.1884,5,2,22,3,1,,,,,
0.9,,,,,,,,,j.PNG,j,5c46540c4b9ebe00012eef7f,2021-10-20_10h50.19.685,forced_choiceRT,2021.1.2,Win32,59.74429442,,,,,,,,2,Fast,j,1,1.7295,5,3,23,3,1,,,,,
1.79,,,,,,,,,j.PNG,j,5c46540c4b9ebe00012eef7f,2021-10-20_10h50.19.685,forced_choiceRT,2021.1.2,Win32,59.74429442,,,,,,,,2,Slow,h,0,2.2958,6,0,24,3,1,,,,,
1.87,,,,,,,,,g.PNG,g,5c46540c4b9ebe00012eef7f,2021-10-20_10h50.19.685,forced_choiceRT,2021.1.2,Win32,59.74429442,,,,,,,,2,Slow,h,0,2.1563,6,1,25,1,1,,,,,
1.74,,,,,,,,,h.PNG,h,5c46540c4b9ebe00012eef7f,2021-10-20_10h50.19.685,forced_choiceRT,2021.1.2,Win32,59.74429442,,,,,,,,2,Ontime,j,0,2.0423,6,2,26,2,1,,,,,
1.88,,,,,,,,,h.PNG,h,5c46540c4b9ebe00012eef7f,2021-10-20_10h50.19.685,forced_choiceRT,2021.1.2,Win32,59.74429442,,,,,,,,2,Slow,g,0,2.1697,6,3,27,2,1,,,,,
1.75,,,,,,,,,f.PNG,f,5c46540c4b9ebe00012eef7f,2021-10-20_10h50.19.685,forced_choiceRT,2021.1.2,Win32,59.74429442,,,,,,,,2,Ontime,g,0,2.0445,7,0,28,0,1,,,,,
0.35,,,,,,,,,g.PNG,g,5c46540c4b9ebe00012eef7f,2021-10-20_10h50.19.685,forced_choiceRT,2021.1.2,Win32,59.74429442,,,,,,,,2,Ontime,g,1,1.9895,7,1,29,1,1,,,,,
1.3,,,,,,,,,h.PNG,h,5c46540c4b9ebe00012eef7f,2021-10-20_10h50.19.685,forced_choiceRT,2021.1.2,Win32,59.74429442,,,,,,,,2,Ontime,j,0,1.9564,7,2,30,2,1,,,,,
1.58,,,,,,,,,f.PNG,f,5c46540c4b9ebe00012eef7f,2021-10-20_10h50.19.685,forced_choiceRT,2021.1.2,Win32,59.74429442,,,,,,,,2,Slow,f,1,2.1219,7,3,31,0,1,,,,,
0.72,,,,,,,,,h.PNG,h,5c46540c4b9ebe00012eef7f,2021-10-20_10h50.19.685,forced_choiceRT,2021.1.2,Win32,59.74429442,,,,,,,,2,Fast,h,1,1.7251,8,0,32,2,1,,,,,
0.45,,,,,,,,,f.PNG,f,5c46540c4b9ebe00012eef7f,2021-10-20_10h50.19.685,forced_choiceRT,2021.1.2,Win32,59.74429442,,,,,,,,2,Ontime,f,1,1.9892,8,1,33,0,1,,,,,
0.47,,,,,,,,,j.PNG,j,5c46540c4b9ebe00012eef7f,2021-10-20_10h50.19.685,forced_choiceRT,2021.1.2,Win32,59.74429442,,,,,,,,2,Ontime,j,1,1.9894,8,2,34,3,1,,,,,
1.77,,,,,,,,,g.PNG,g,5c46540c4b9ebe00012eef7f,2021-10-20_10h50.19.685,forced_choiceRT,2021.1.2,Win32,59.74429442,,,,,,,,2,Fast,h,0,1.7289,8,3,35,1,1,,,,,
0.72,,,,,,,,,j.PNG,j,5c46540c4b9ebe00012eef7f,2021-10-20_10h50.19.685,forced_choiceRT,2021.1.2,Win32,59.74429442,,,,,,,,2,Ontime,j,1,2.0565,9,0,36,3,1,,,,,
0.96,,,,,,,,,f.PNG,f,5c46540c4b9ebe00012eef7f,2021-10-20_10h50.19.685,forced_choiceRT,2021.1.2,Win32,59.74429442,,,,,,,,2,Ontime,f,1,2.0572,9,1,37,0,1,,,,,
0.85,,,,,,,,,g.PNG,g,5c46540c4b9ebe00012eef7f,2021-10-20_10h50.19.685,forced_choiceRT,2021.1.2,Win32,59.74429442,,,,,,,,2,Ontime,h,0,1.9894,9,2,38,1,1,,,,,
0.67,,,,,,,,,f.PNG,f,5c46540c4b9ebe00012eef7f,2021-10-20_10h50.19.685,forced_choiceRT,2021.1.2,Win32,59.74429442,,,,,,,,2,Ontime,f,1,2.0558,9,3,39,0,1,,,,,
,,,,,,,,,,,5c46540c4b9ebe00012eef7f,2021-10-20_10h50.19.685,forced_choiceRT,2021.1.2,Win32,59.74429442,,,,,,,,,,,,,,,,,,1,0,1,0,1
1.73,,,,,,,,,j.PNG,j,5c46540c4b9ebe00012eef7f,2021-10-20_10h50.19.685,forced_choiceRT,2021.1.2,Win32,59.74429442,,,,,,,,3,Slow,g,0,2.2234,0,0,0,3,1,,,,,
0.54,,,,,,,,,j.PNG,j,5c46540c4b9ebe00012eef7f,2021-10-20_10h50.19.685,forced_choiceRT,2021.1.2,Win32,59.74429442,,,,,,,,3,Ontime,j,1,2.0299,0,1,1,3,1,,,,,
0.26,,,,,,,,,j.PNG,j,5c46540c4b9ebe00012eef7f,2021-10-20_10h50.19.685,forced_choiceRT,2021.1.2,Win32,59.74429442,,,,,,,,3,Ontime,j,1,2.041,0,2,2,3,1,,,,,
1.21,,,,,,,,,f.PNG,f,5c46540c4b9ebe00012eef7f,2021-10-20_10h50.19.685,forced_choiceRT,2021.1.2,Win32,59.74429442,,,,,,,,3,Ontime,f,1,2.0418,0,3,3,0,1,,,,,
1.61,,,,,,,,,g.PNG,g,5c46540c4b9ebe00012eef7f,2021-10-20_10h50.19.685,forced_choiceRT,2021.1.2,Win32,59.74429442,,,,,,,,3,Slow,j,0,2.1584,1,0,4,1,1,,,,,
1.92,,,,,,,,,g.PNG,g,5c46540c4b9ebe00012eef7f,2021-10-20_10h50.19.685,forced_choiceRT,2021.1.2,Win32,59.74429442,,,,,,,,3,Slow,j,0,2.2872,1,1,5,1,1,,,,,
0.52,,,,,,,,,h.PNG,h,5c46540c4b9ebe00012eef7f,2021-10-20_10h50.19.685,forced_choiceRT,2021.1.2,Win32,59.74429442,,,,,,,,3,Ontime,h,1,2.0128,1,2,6,2,1,,,,,
1,,,,,,,,,j.PNG,j,5c46540c4b9ebe00012eef7f,2021-10-20_10h50.19.685,forced_choiceRT,2021.1.2,Win32,59.74429442,,,,,,,,3,Ontime,j,1,1.9381,1,3,7,3,1,,,,,
0.07,,,,,,,,,h.PNG,h,5c46540c4b9ebe00012eef7f,2021-10-20_10h50.19.685,forced_choiceRT,2021.1.2,Win32,59.74429442,,,,,,,,3,Ontime,h,1,2.0227,2,0,8,2,1,,,,,
1.19,,,,,,,,,j.PNG,j,5c46540c4b9ebe00012eef7f,2021-10-20_10h50.19.685,forced_choiceRT,2021.1.2,Win32,59.74429442,,,,,,,,3,Ontime,j,1,1.9781,2,1,9,3,1,,,,,
0.03,,,,,,,,,g.PNG,g,5c46540c4b9ebe00012eef7f,2021-10-20_10h50.19.685,forced_choiceRT,2021.1.2,Win32,59.74429442,,,,,,,,3,Fast,g,1,1.8407,2,2,10,1,1,,,,,
0.46,,,,,,,,,g.PNG,g,5c46540c4b9ebe00012eef7f,2021-10-20_10h50.19.685,forced_choiceRT,2021.1.2,Win32,59.74429442,,,,,,,,3,Slow,g,1,2.1055,2,3,11,1,1,,,,,
0.5,,,,,,,,,h.PNG,h,5c46540c4b9ebe00012eef7f,2021-10-20_10h50.19.685,forced_choiceRT,2021.1.2,Win32,59.74429442,,,,,,,,3,Ontime,h,1,2.0726,3,0,12,2,1,,,,,
1.08,,,,,,,,,g.PNG,g,5c46540c4b9ebe00012eef7f,2021-10-20_10h50.19.685,forced_choiceRT,2021.1.2,Win32,59.74429442,,,,,,,,3,Ontime,g,1,2.09,3,1,13,1,1,,,,,
1.4,,,,,,,,,g.PNG,g,5c46540c4b9ebe00012eef7f,2021-10-20_10h50.19.685,forced_choiceRT,2021.1.2,Win32,59.74429442,,,,,,,,3,Ontime,g,1,2.0928,3,2,14,1,1,,,,,
1.64,,,,,,,,,h.PNG,h,5c46540c4b9ebe00012eef7f,2021-10-20_10h50.19.685,forced_choiceRT,2021.1.2,Win32,59.74429442,,,,,,,,3,Slow,h,1,2.2201,3,3,15,2,1,,,,,
1.3,,,,,,,,,f.PNG,f,5c46540c4b9ebe00012eef7f,2021-10-20_10h50.19.685,forced_choiceRT,2021.1.2,Win32,59.74429442,,,,,,,,3,Ontime,f,1,2.0951,4,0,16,0,1,,,,,
0.11,,,,,,,,,f.PNG,f,5c46540c4b9ebe00012eef7f,2021-10-20_10h50.19.685,forced_choiceRT,2021.1.2,Win32,59.74429442,,,,,,,,3,Ontime,g,0,2.0221,4,1,17,0,1,,,,,
1.87,,,,,,,,,j.PNG,j,5c46540c4b9ebe00012eef7f,2021-10-20_10h50.19.685,forced_choiceRT,2021.1.2,Win32,59.74429442,,,,,,,,3,Slow,j,1,2.1045,4,2,18,3,1,,,,,
0.37,,,,,,,,,f.PNG,f,5c46540c4b9ebe00012eef7f,2021-10-20_10h50.19.685,forced_choiceRT,2021.1.2,Win32,59.74429442,,,,,,,,3,Ontime,f,1,2.0084,4,3,19,0,1,,,,,
0.03,,,,,,,,,f.PNG,f,5c46540c4b9ebe00012eef7f,2021-10-20_10h50.19.685,forced_choiceRT,2021.1.2,Win32,59.74429442,,,,,,,,3,Ontime,f,1,1.9895,5,0,20,0,1,,,,,
0.89,,,,,,,,,j.PNG,j,5c46540c4b9ebe00012eef7f,2021-10-20_10h50.19.685,forced_choiceRT,2021.1.2,Win32,59.74429442,,,,,,,,3,Ontime,j,1,2.0392,5,1,21,3,1,,,,,
1.6,,,,,,,,,g.PNG,g,5c46540c4b9ebe00012eef7f,2021-10-20_10h50.19.685,forced_choiceRT,2021.1.2,Win32,59.74429442,,,,,,,,3,Slow,g,1,2.3037,5,2,22,1,1,,,,,
1.46,,,,,,,,,f.PNG,f,5c46540c4b9ebe00012eef7f,2021-10-20_10h50.19.685,forced_choiceRT,2021.1.2,Win32,59.74429442,,,,,,,,3,Ontime,f,1,1.9895,5,3,23,0,1,,,,,
1.67,,,,,,,,,h.PNG,h,5c46540c4b9ebe00012eef7f,2021-10-20_10h50.19.685,forced_choiceRT,2021.1.2,Win32,59.74429442,,,,,,,,3,Slow,h,1,2.2371,6,0,24,2,1,,,,,
0.08,,,,,,,,,h.PNG,h,5c46540c4b9ebe00012eef7f,2021-10-20_10h50.19.685,forced_choiceRT,2021.1.2,Win32,59.74429442,,,,,,,,3,Fast,j,0,1.8467,6,1,25,2,1,,,,,
0.61,,,,,,,,,g.PNG,g,5c46540c4b9ebe00012eef7f,2021-10-20_10h50.19.685,forced_choiceRT,2021.1.2,Win32,59.74429442,,,,,,,,3,Fast,g,1,1.7713,6,2,26,1,1,,,,,
1.87,,,,,,,,,g.PNG,g,5c46540c4b9ebe00012eef7f,2021-10-20_10h50.19.685,forced_choiceRT,2021.1.2,Win32,59.74429442,,,,,,,,3,Slow,h,0,2.3283,6,3,27,1,1,,,,,
1.95,,,,,,,,,j.PNG,j,5c46540c4b9ebe00012eef7f,2021-10-20_10h50.19.685,forced_choiceRT,2021.1.2,Win32,59.74429442,,,,,,,,3,Slow,j,1,2.1376,7,0,28,3,1,,,,,
0.35,,,,,,,,,f.PNG,f,5c46540c4b9ebe00012eef7f,2021-10-20_10h50.19.685,forced_choiceRT,2021.1.2,Win32,59.74429442,,,,,,,,3,Ontime,f,1,2.0246,7,1,29,0,1,,,,,
0.29,,,,,,,,,f.PNG,f,5c46540c4b9ebe00012eef7f,2021-10-20_10h50.19.685,forced_choiceRT,2021.1.2,Win32,59.74429442,,,,,,,,3,Slow,f,1,2.1631,7,2,30,0,1,,,,,
1.91,,,,,,,,,h.PNG,h,5c46540c4b9ebe00012eef7f,2021-10-20_10h50.19.685,forced_choiceRT,2021.1.2,Win32,59.74429442,,,,,,,,3,Slow,g,0,2.105,7,3,31,2,1,,,,,
1.36,,,,,,,,,h.PNG,h,5c46540c4b9ebe00012eef7f,2021-10-20_10h50.19.685,forced_choiceRT,2021.1.2,Win32,59.74429442,,,,,,,,3,Slow,h,1,2.1413,8,0,32,2,1,,,,,
0.01,,,,,,,,,g.PNG,g,5c46540c4b9ebe00012eef7f,2021-10-20_10h50.19.685,forced_choiceRT,2021.1.2,Win32,59.74429442,,,,,,,,3,Ontime,g,1,1.9894,8,1,33,1,1,,,,,
0.78,,,,,,,,,h.PNG,h,5c46540c4b9ebe00012eef7f,2021-10-20_10h50.19.685,forced_choiceRT,2021.1.2,Win32,59.74429442,,,,,,,,3,Ontime,h,1,1.972,8,2,34,2,1,,,,,
1.08,,,,,,,,,h.PNG,h,5c46540c4b9ebe00012eef7f,2021-10-20_10h50.19.685,forced_choiceRT,2021.1.2,Win32,59.74429442,,,,,,,,3,Ontime,h,1,2.0384,8,3,35,2,1,,,,,
1.33,,,,,,,,,f.PNG,f,5c46540c4b9ebe00012eef7f,2021-10-20_10h50.19.685,forced_choiceRT,2021.1.2,Win32,59.74429442,,,,,,,,3,Ontime,f,1,2.0053,9,0,36,0,1,,,,,
1.65,,,,,,,,,j.PNG,j,5c46540c4b9ebe00012eef7f,2021-10-20_10h50.19.685,forced_choiceRT,2021.1.2,Win32,59.74429442,,,,,,,,3,Slow,j,1,2.1608,9,1,37,3,1,,,,,
1.52,,,,,,,,,j.PNG,j,5c46540c4b9ebe00012eef7f,2021-10-20_10h50.19.685,forced_choiceRT,2021.1.2,Win32,59.74429442,,,,,,,,3,Ontime,h,0,1.9885,9,2,38,3,1,,,,,
1.68,,,,,,,,,f.PNG,f,5c46540c4b9ebe00012eef7f,2021-10-20_10h50.19.685,forced_choiceRT,2021.1.2,Win32,59.74429442,,,,,,,,3,Ontime,g,0,2.0459,9,3,39,0,1,,,,,
,,,,,,,,,,,5c46540c4b9ebe00012eef7f,2021-10-20_10h50.19.685,forced_choiceRT,2021.1.2,Win32,59.74429442,,,,,,,,,,,,,,,,,,2,0,2,0,1
1.43,,,,,,,,,f.PNG,f,5c46540c4b9ebe00012eef7f,2021-10-20_10h50.19.685,forced_choiceRT,2021.1.2,Win32,59.74429442,,,,,,,,4,Ontime,f,1,1.9375,0,0,0,0,1,,,,,
0.07,,,,,,,,,j.PNG,j,5c46540c4b9ebe00012eef7f,2021-10-20_10h50.19.685,forced_choiceRT,2021.1.2,Win32,59.74429442,,,,,,,,4,Ontime,j,1,1.9722,0,1,1,3,1,,,,,
0.24,,,,,,,,,f.PNG,f,5c46540c4b9ebe00012eef7f,2021-10-20_10h50.19.685,forced_choiceRT,2021.1.2,Win32,59.74429442,,,,,,,,4,Ontime,f,1,1.9883,0,2,2,0,1,,,,,
1.54,,,,,,,,,j.PNG,j,5c46540c4b9ebe00012eef7f,2021-10-20_10h50.19.685,forced_choiceRT,2021.1.2,Win32,59.74429442,,,,,,,,4,Ontime,j,1,2.0895,0,3,3,3,1,,,,,
1.24,,,,,,,,,g.PNG,g,5c46540c4b9ebe00012eef7f,2021-10-20_10h50.19.685,forced_choiceRT,2021.1.2,Win32,59.74429442,,,,,,,,4,Ontime,g,1,2.0053,1,0,4,1,1,,,,,
1.68,,,,,,,,,h.PNG,h,5c46540c4b9ebe00012eef7f,2021-10-20_10h50.19.685,forced_choiceRT,2021.1.2,Win32,59.74429442,,,,,,,,4,Slow,h,1,2.1634,1,1,5,2,1,,,,,
1.38,,,,,,,,,h.PNG,h,5c46540c4b9ebe00012eef7f,2021-10-20_10h50.19.685,forced_choiceRT,2021.1.2,Win32,59.74429442,,,,,,,,4,Ontime,h,1,2.0067,1,2,6,2,1,,,,,
1.67,,,,,,,,,f.PNG,f,5c46540c4b9ebe00012eef7f,2021-10-20_10h50.19.685,forced_choiceRT,2021.1.2,Win32,59.74429442,,,,,,,,4,Ontime,g,0,2.0896,1,3,7,0,1,,,,,
0.16,,,,,,,,,h.PNG,h,5c46540c4b9ebe00012eef7f,2021-10-20_10h50.19.685,forced_choiceRT,2021.1.2,Win32,59.74429442,,,,,,,,4,Ontime,h,1,2.0109,2,0,8,2,1,,,,,
0.7,,,,,,,,,g.PNG,g,5c46540c4b9ebe00012eef7f,2021-10-20_10h50.19.685,forced_choiceRT,2021.1.2,Win32,59.74429442,,,,,,,,4,Ontime,g,1,1.944,2,1,9,1,1,,,,,
1.29,,,,,,,,,g.PNG,g,5c46540c4b9ebe00012eef7f,2021-10-20_10h50.19.685,forced_choiceRT,2021.1.2,Win32,59.74429442,,,,,,,,4,Ontime,g,1,2.0737,2,2,10,1,1,,,,,
1.83,,,,,,,,,j.PNG,j,5c46540c4b9ebe00012eef7f,2021-10-20_10h50.19.685,forced_choiceRT,2021.1.2,Win32,59.74429442,,,,,,,,4,Ontime,j,1,2.0559,2,3,11,3,1,,,,,
0.74,,,,,,,,,g.PNG,g,5c46540c4b9ebe00012eef7f,2021-10-20_10h50.19.685,forced_choiceRT,2021.1.2,Win32,59.74429442,,,,,,,,4,Ontime,g,1,1.9881,3,0,12,1,1,,,,,
0.9,,,,,,,,,f.PNG,f,5c46540c4b9ebe00012eef7f,2021-10-20_10h50.19.685,forced_choiceRT,2021.1.2,Win32,59.74429442,,,,,,,,4,Ontime,f,1,1.9723,3,1,13,0,1,,,,,
0.66,,,,,,,,,g.PNG,g,5c46540c4b9ebe00012eef7f,2021-10-20_10h50.19.685,forced_choiceRT,2021.1.2,Win32,59.74429442,,,,,,,,4,Ontime,g,1,1.9222,3,2,14,1,1,,,,,
0.88,,,,,,,,,g.PNG,g,5c46540c4b9ebe00012eef7f,2021-10-20_10h50.19.685,forced_choiceRT,2021.1.2,Win32,59.74429442,,,,,,,,4,Fast,g,1,1.7718,3,3,15,1,1,,,,,
1.89,,,,,,,,,j.PNG,j,5c46540c4b9ebe00012eef7f,2021-10-20_10h50.19.685,forced_choiceRT,2021.1.2,Win32,59.74429442,,,,,,,,4,Slow,h,0,2.1402,4,0,16,3,1,,,,,
1.8,,,,,,,,,h.PNG,h,5c46540c4b9ebe00012eef7f,2021-10-20_10h50.19.685,forced_choiceRT,2021.1.2,Win32,59.74429442,,,,,,,,4,Ontime,j,0,2.0894,4,1,17,2,1,,,,,
0.9,,,,,,,,,f.PNG,f,5c46540c4b9ebe00012eef7f,2021-10-20_10h50.19.685,forced_choiceRT,2021.1.2,Win32,59.74429442,,,,,,,,4,Ontime,f,1,2.0079,4,2,18,0,1,,,,,
0.52,,,,,,,,,f.PNG,f,5c46540c4b9ebe00012eef7f,2021-10-20_10h50.19.685,forced_choiceRT,2021.1.2,Win32,59.74429442,,,,,,,,4,Ontime,f,1,2.0062,4,3,19,0,1,,,,,
0.82,,,,,,,,,j.PNG,j,5c46540c4b9ebe00012eef7f,2021-10-20_10h50.19.685,forced_choiceRT,2021.1.2,Win32,59.74429442,,,,,,,,4,Ontime,j,1,2.047,5,0,20,3,1,,,,,
0.48,,,,,,,,,f.PNG,f,5c46540c4b9ebe00012eef7f,2021-10-20_10h50.19.685,forced_choiceRT,2021.1.2,Win32,59.74429442,,,,,,,,4,Ontime,f,1,2.0391,5,1,21,0,1,,,,,
0.18,,,,,,,,,h.PNG,h,5c46540c4b9ebe00012eef7f,2021-10-20_10h50.19.685,forced_choiceRT,2021.1.2,Win32,59.74429442,,,,,,,,4,Ontime,h,1,2.0557,5,2,22,2,1,,,,,
0.94,,,,,,,,,g.PNG,g,5c46540c4b9ebe00012eef7f,2021-10-20_10h50.19.685,forced_choiceRT,2021.1.2,Win32,59.74429442,,,,,,,,4,Ontime,g,1,1.9795,5,3,23,1,1,,,,,
0.93,,,,,,,,,h.PNG,h,5c46540c4b9ebe00012eef7f,2021-10-20_10h50.19.685,forced_choiceRT,2021.1.2,Win32,59.74429442,,,,,,,,4,Ontime,j,0,1.9951,6,0,24,2,1,,,,,
0.19,,,,,,,,,f.PNG,f,5c46540c4b9ebe00012eef7f,2021-10-20_10h50.19.685,forced_choiceRT,2021.1.2,Win32,59.74429442,,,,,,,,4,Ontime,f,1,2.0384,6,1,25,0,1,,,,,
0.36,,,,,,,,,j.PNG,j,5c46540c4b9ebe00012eef7f,2021-10-20_10h50.19.685,forced_choiceRT,2021.1.2,Win32,59.74429442,,,,,,,,4,Ontime,j,1,2.0249,6,2,26,3,1,,,,,
1.39,,,,,,,,,h.PNG,h,5c46540c4b9ebe00012eef7f,2021-10-20_10h50.19.685,forced_choiceRT,2021.1.2,Win32,59.74429442,,,,,,,,4,Ontime,h,1,2.0396,6,3,27,2,1,,,,,
0.57,,,,,,,,,f.PNG,f,5c46540c4b9ebe00012eef7f,2021-10-20_10h50.19.685,forced_choiceRT,2021.1.2,Win32,59.74429442,,,,,,,,4,Ontime,f,1,2.0054,7,0,28,0,1,,,,,
1.88,,,,,,,,,j.PNG,j,5c46540c4b9ebe00012eef7f,2021-10-20_10h50.19.685,forced_choiceRT,2021.1.2,Win32,59.74429442,,,,,,,,4,Slow,j,1,2.2292,7,1,29,3,1,,,,,
1.42,,,,,,,,,h.PNG,h,5c46540c4b9ebe00012eef7f,2021-10-20_10h50.19.685,forced_choiceRT,2021.1.2,Win32,59.74429442,,,,,,,,4,Slow,g,0,2.2704,7,2,30,2,1,,,,,
0.62,,,,,,,,,g.PNG,g,5c46540c4b9ebe00012eef7f,2021-10-20_10h50.19.685,forced_choiceRT,2021.1.2,Win32,59.74429442,,,,,,,,4,Slow,g,1,2.138,7,3,31,1,1,,,,,
1.33,,,,,,,,,j.PNG,j,5c46540c4b9ebe00012eef7f,2021-10-20_10h50.19.685,forced_choiceRT,2021.1.2,Win32,59.74429442,,,,,,,,4,Slow,j,1,2.1524,8,0,32,3,1,,,,,
0.22,,,,,,,,,h.PNG,h,5c46540c4b9ebe00012eef7f,2021-10-20_10h50.19.685,forced_choiceRT,2021.1.2,Win32,59.74429442,,,,,,,,4,Fast,h,1,1.7557,8,1,33,2,1,,,,,
0.43,,,,,,,,,j.PNG,j,5c46540c4b9ebe00012eef7f,2021-10-20_10h50.19.685,forced_choiceRT,2021.1.2,Win32,59.74429442,,,,,,,,4,Ontime,j,1,2.0233,8,2,34,3,1,,,,,
1.43,,,,,,,,,f.PNG,f,5c46540c4b9ebe00012eef7f,2021-10-20_10h50.19.685,forced_choiceRT,2021.1.2,Win32,59.74429442,,,,,,,,4,Slow,f,1,2.1772,8,3,35,0,1,,,,,
0.97,,,,,,,,,h.PNG,h,5c46540c4b9ebe00012eef7f,2021-10-20_10h50.19.685,forced_choiceRT,2021.1.2,Win32,59.74429442,,,,,,,,4,Fast,h,1,1.7778,9,0,36,2,1,,,,,
0.06,,,,,,,,,g.PNG,g,5c46540c4b9ebe00012eef7f,2021-10-20_10h50.19.685,forced_choiceRT,2021.1.2,Win32,59.74429442,,,,,,,,4,Ontime,g,1,2.0072,9,1,37,1,1,,,,,
1.73,,,,,,,,,g.PNG,g,5c46540c4b9ebe00012eef7f,2021-10-20_10h50.19.685,forced_choiceRT,2021.1.2,Win32,59.74429442,,,,,,,,4,Slow,f,0,2.1472,9,2,38,1,1,,,,,
0.33,,,,,,,,,j.PNG,j,5c46540c4b9ebe00012eef7f,2021-10-20_10h50.19.685,forced_choiceRT,2021.1.2,Win32,59.74429442,,,,,,,,4,Ontime,j,1,2.0563,9,3,39,3,1,,,,,
,,,,,,,,,,,5c46540c4b9ebe00012eef7f,2021-10-20_10h50.19.685,forced_choiceRT,2021.1.2,Win32,59.74429442,,,,,,,,,,,,,,,,,,3,0,3,0,1
1.54,,,,,,,,,h.PNG,h,5c46540c4b9ebe00012eef7f,2021-10-20_10h50.19.685,forced_choiceRT,2021.1.2,Win32,59.74429442,,,,,,,,5,Ontime,j,0,2.0232,0,0,0,2,1,,,,,
1.26,,,,,,,,,j.PNG,j,5c46540c4b9ebe00012eef7f,2021-10-20_10h50.19.685,forced_choiceRT,2021.1.2,Win32,59.74429442,,,,,,,,5,Ontime,j,1,2.005,0,1,1,3,1,,,,,
1.32,,,,,,,,,g.PNG,g,5c46540c4b9ebe00012eef7f,2021-10-20_10h50.19.685,forced_choiceRT,2021.1.2,Win32,59.74429442,,,,,,,,5,Ontime,g,1,1.9227,0,2,2,1,1,,,,,
1.23,,,,,,,,,g.PNG,g,5c46540c4b9ebe00012eef7f,2021-10-20_10h50.19.685,forced_choiceRT,2021.1.2,Win32,59.74429442,,,,,,,,5,Ontime,g,1,1.9885,0,3,3,1,1,,,,,
1.83,,,,,,,,,f.PNG,f,5c46540c4b9ebe00012eef7f,2021-10-20_10h50.19.685,forced_choiceRT,2021.1.2,Win32,59.74429442,,,,,,,,5,Slow,j,0,2.2913,1,0,4,0,1,,,,,
1.48,,,,,,,,,g.PNG,g,5c46540c4b9ebe00012eef7f,2021-10-20_10h50.19.685,forced_choiceRT,2021.1.2,Win32,59.74429442,,,,,,,,5,Ontime,g,1,2.0548,1,1,5,1,1,,,,,
1.05,,,,,,,,,h.PNG,h,5c46540c4b9ebe00012eef7f,2021-10-20_10h50.19.685,forced_choiceRT,2021.1.2,Win32,59.74429442,,,,,,,,5,Ontime,h,1,2.0788,1,2,6,2,1,,,,,
1.41,,,,,,,,,h.PNG,h,5c46540c4b9ebe00012eef7f,2021-10-20_10h50.19.685,forced_choiceRT,2021.1.2,Win32,59.74429442,,,,,,,,5,Ontime,h,1,2.0721,1,3,7,2,1,,,,,
0.69,,,,,,,,,j.PNG,j,5c46540c4b9ebe00012eef7f,2021-10-20_10h50.19.685,forced_choiceRT,2021.1.2,Win32,59.74429442,,,,,,,,5,Ontime,j,1,2.0057,2,0,8,3,1,,,,,
0.48,,,,,,,,,f.PNG,f,5c46540c4b9ebe00012eef7f,2021-10-20_10h50.19.685,forced_choiceRT,2021.1.2,Win32,59.74429442,,,,,,,,5,Slow,f,1,2.1094,2,1,9,0,1,,,,,
0.83,,,,,,,,,f.PNG,f,5c46540c4b9ebe00012eef7f,2021-10-20_10h50.19.685,forced_choiceRT,2021.1.2,Win32,59.74429442,,,,,,,,5,Ontime,f,1,1.9382,2,2,10,0,1,,,,,
1.89,,,,,,,,,f.PNG,f,5c46540c4b9ebe00012eef7f,2021-10-20_10h50.19.685,forced_choiceRT,2021.1.2,Win32,59.74429442,,,,,,,,5,Slow,g,0,2.3041,2,3,11,0,1,,,,,
0.95,,,,,,,,,h.PNG,h,5c46540c4b9ebe00012eef7f,2021-10-20_10h50.19.685,forced_choiceRT,2021.1.2,Win32,59.74429442,,,,,,,,5,Ontime,h,1,1.98,3,0,12,2,1,,,,,
0.12,,,,,,,,,g.PNG,g,5c46540c4b9ebe00012eef7f,2021-10-20_10h50.19.685,forced_choiceRT,2021.1.2,Win32,59.74429442,,,,,,,,5,Ontime,g,1,2.0099,3,1,13,1,1,,,,,
1.82,,,,,,,,,g.PNG,g,5c46540c4b9ebe00012eef7f,2021-10-20_10h50.19.685,forced_choiceRT,2021.1.2,Win32,59.74429442,,,,,,,,5,Ontime,f,0,2.0547,3,2,14,1,1,,,,,
1.2,,,,,,,,,j.PNG,j,5c46540c4b9ebe00012eef7f,2021-10-20_10h50.19.685,forced_choiceRT,2021.1.2,Win32,59.74429442,,,,,,,,5,Slow,j,1,2.1137,3,3,15,3,1,,,,,
1.29,,,,,,,,,h.PNG,h,5c46540c4b9ebe00012eef7f,2021-10-20_10h50.19.685,forced_choiceRT,2021.1.2,Win32,59.74429442,,,,,,,,5,Ontime,h,1,1.9889,4,0,16,2,1,,,,,
1.23,,,,,,,,,j.PNG,j,5c46540c4b9ebe00012eef7f,2021-10-20_10h50.19.685,forced_choiceRT,2021.1.2,Win32,59.74429442,,,,,,,,5,Ontime,j,1,2.0108,4,1,17,3,1,,,,,
1.63,,,,,,,,,g.PNG,g,5c46540c4b9ebe00012eef7f,2021-10-20_10h50.19.685,forced_choiceRT,2021.1.2,Win32,59.74429442,,,,,,,,5,Slow,f,0,2.1283,4,2,18,1,1,,,,,
0.91,,,,,,,,,h.PNG,h,5c46540c4b9ebe00012eef7f,2021-10-20_10h50.19.685,forced_choiceRT,2021.1.2,Win32,59.74429442,,,,,,,,5,Ontime,h,1,1.9142,4,3,19,2,1,,,,,
1.37,,,,,,,,,h.PNG,h,5c46540c4b9ebe00012eef7f,2021-10-20_10h50.19.685,forced_choiceRT,2021.1.2,Win32,59.74429442,,,,,,,,5,Ontime,h,1,2.0892,5,0,20,2,1,,,,,
0.93,,,,,,,,,h.PNG,h,5c46540c4b9ebe00012eef7f,2021-10-20_10h50.19.685,forced_choiceRT,2021.1.2,Win32,59.74429442,,,,,,,,5,Fast,h,1,1.7391,5,1,21,2,1,,,,,
0.18,,,,,,,,,j.PNG,j,5c46540c4b9ebe00012eef7f,2021-10-20_10h50.19.685,forced_choiceRT,2021.1.2,Win32,59.74429442,,,,,,,,5,Ontime,j,1,1.9624,5,2,22,3,1,,,,,
0.18,,,,,,,,,j.PNG,j,5c46540c4b9ebe00012eef7f,2021-10-20_10h50.19.685,forced_choiceRT,2021.1.2,Win32,59.74429442,,,,,,,,5,Ontime,j,1,2.0047,5,3,23,3,1,,,,,
1.37,,,,,,,,,f.PNG,f,5c46540c4b9ebe00012eef7f,2021-10-20_10h50.19.685,forced_choiceRT,2021.1.2,Win32,59.74429442,,,,,,,,5,Ontime,f,1,2.0469,6,0,24,0,1,,,,,
1.71,,,,,,,,,f.PNG,f,5c46540c4b9ebe00012eef7f,2021-10-20_10h50.19.685,forced_choiceRT,2021.1.2,Win32,59.74429442,,,,,,,,5,Slow,f,1,2.1748,6,1,25,0,1,,,,,
1.81,,,,,,,,,g.PNG,g,5c46540c4b9ebe00012eef7f,2021-10-20_10h50.19.685,forced_choiceRT,2021.1.2,Win32,59.74429442,,,,,,,,5,Ontime,f,0,2.0557,6,2,26,1,1,,,,,
0.86,,,,,,,,,j.PNG,j,5c46540c4b9ebe00012eef7f,2021-10-20_10h50.19.685,forced_choiceRT,2021.1.2,Win32,59.74429442,,,,,,,,5,Ontime,h,0,1.9591,6,3,27,3,1,,,,,
1.07,,,,,,,,,f.PNG,f,5c46540c4b9ebe00012eef7f,2021-10-20_10h50.19.685,forced_choiceRT,2021.1.2,Win32,59.74429442,,,,,,,,5,Ontime,f,1,2.0132,7,0,28,0,1,,,,,
0.32,,,,,,,,,g.PNG,g,5c46540c4b9ebe00012eef7f,2021-10-20_10h50.19.685,forced_choiceRT,2021.1.2,Win32,59.74429442,,,,,,,,5,Ontime,g,1,2.0461,7,1,29,1,1,,,,,
0.48,,,,,,,,,j.PNG,j,5c46540c4b9ebe00012eef7f,2021-10-20_10h50.19.685,forced_choiceRT,2021.1.2,Win32,59.74429442,,,,,,,,5,Ontime,j,1,2.0049,7,2,30,3,1,,,,,
1.89,,,,,,,,,g.PNG,g,5c46540c4b9ebe00012eef7f,2021-10-20_10h50.19.685,forced_choiceRT,2021.1.2,Win32,59.74429442,,,,,,,,5,Ontime,h,0,2.0088,7,3,31,1,1,,,,,
0.15,,,,,,,,,f.PNG,f,5c46540c4b9ebe00012eef7f,2021-10-20_10h50.19.685,forced_choiceRT,2021.1.2,Win32,59.74429442,,,,,,,,5,Ontime,f,1,1.9395,8,0,32,0,1,,,,,
1.79,,,,,,,,,f.PNG,f,5c46540c4b9ebe00012eef7f,2021-10-20_10h50.19.685,forced_choiceRT,2021.1.2,Win32,59.74429442,,,,,,,,5,Ontime,f,1,1.989,8,1,33,0,1,,,,,
0.87,,,,,,,,,f.PNG,f,5c46540c4b9ebe00012eef7f,2021-10-20_10h50.19.685,forced_choiceRT,2021.1.2,Win32,59.74429442,,,,,,,,5,Ontime,f,1,1.9906,8,2,34,0,1,,,,,
0.12,,,,,,,,,h.PNG,h,5c46540c4b9ebe00012eef7f,2021-10-20_10h50.19.685,forced_choiceRT,2021.1.2,Win32,59.74429442,,,,,,,,5,Ontime,h,1,1.9891,8,3,35,2,1,,,,,
0.14,,,,,,,,,j.PNG,j,5c46540c4b9ebe00012eef7f,2021-10-20_10h50.19.685,forced_choiceRT,2021.1.2,Win32,59.74429442,,,,,,,,5,Slow,j,1,2.1047,9,0,36,3,1,,,,,
1.25,,,,,,,,,j.PNG,j,5c46540c4b9ebe00012eef7f,2021-10-20_10h50.19.685,forced_choiceRT,2021.1.2,Win32,59.74429442,,,,,,,,5,Ontime,j,1,2.039,9,1,37,3,1,,,,,
1.49,,,,,,,,,g.PNG,g,5c46540c4b9ebe00012eef7f,2021-10-20_10h50.19.685,forced_choiceRT,2021.1.2,Win32,59.74429442,,,,,,,,5,Ontime,f,0,2.0729,9,2,38,1,1,,,,,
1.56,,,,,,,,,h.PNG,h,5c46540c4b9ebe00012eef7f,2021-10-20_10h50.19.685,forced_choiceRT,2021.1.2,Win32,59.74429442,,,,,,,,5,Slow,h,1,2.2434,9,3,39,2,1,,,,,
,,,,,,,,,,,5c46540c4b9ebe00012eef7f,2021-10-20_10h50.19.685,forced_choiceRT,2021.1.2,Win32,59.74429442,,,,,,,,,,,,,,,,,,4,0,4,0,1
0.37,,,,,,,,,f.PNG,f,5c46540c4b9ebe00012eef7f,2021-10-20_10h50.19.685,forced_choiceRT,2021.1.2,Win32,59.74429442,,,,,,,,6,Ontime,f,1,2.0081,0,0,0,0,1,,,,,
1.97,,,,,,,,,j.PNG,j,5c46540c4b9ebe00012eef7f,2021-10-20_10h50.19.685,forced_choiceRT,2021.1.2,Win32,59.74429442,,,,,,,,6,Slow,h,0,2.108,0,1,1,3,1,,,,,
0.16,,,,,,,,,j.PNG,j,5c46540c4b9ebe00012eef7f,2021-10-20_10h50.19.685,forced_choiceRT,2021.1.2,Win32,59.74429442,,,,,,,,6,Ontime,j,1,2.0053,0,2,2,3,1,,,,,
1.17,,,,,,,,,f.PNG,f,5c46540c4b9ebe00012eef7f,2021-10-20_10h50.19.685,forced_choiceRT,2021.1.2,Win32,59.74429442,,,,,,,,6,Ontime,f,1,1.9607,0,3,3,0,1,,,,,
1.47,,,,,,,,,j.PNG,j,5c46540c4b9ebe00012eef7f,2021-10-20_10h50.19.685,forced_choiceRT,2021.1.2,Win32,59.74429442,,,,,,,,6,Ontime,j,1,2.0229,1,0,4,3,1,,,,,
1.62,,,,,,,,,f.PNG,f,5c46540c4b9ebe00012eef7f,2021-10-20_10h50.19.685,forced_choiceRT,2021.1.2,Win32,59.74429442,,,,,,,,6,Slow,f,1,2.1059,1,1,5,0,1,,,,,
1.65,,,,,,,,,h.PNG,h,5c46540c4b9ebe00012eef7f,2021-10-20_10h50.19.685,forced_choiceRT,2021.1.2,Win32,59.74429442,,,,,,,,6,Slow,h,1,2.1237,1,2,6,2,1,,,,,
0.08,,,,,,,,,h.PNG,h,5c46540c4b9ebe00012eef7f,2021-10-20_10h50.19.685,forced_choiceRT,2021.1.2,Win32,59.74429442,,,,,,,,6,Fast,h,1,1.7713,1,3,7,2,1,,,,,
0.28,,,,,,,,,h.PNG,h,5c46540c4b9ebe00012eef7f,2021-10-20_10h50.19.685,forced_choiceRT,2021.1.2,Win32,59.74429442,,,,,,,,6,Ontime,h,1,2.0127,2,0,8,2,1,,,,,
1,,,,,,,,,j.PNG,j,5c46540c4b9ebe00012eef7f,2021-10-20_10h50.19.685,forced_choiceRT,2021.1.2,Win32,59.74429442,,,,,,,,6,Ontime,j,1,2.0228,2,1,9,3,1,,,,,
1.71,,,,,,,,,j.PNG,j,5c46540c4b9ebe00012eef7f,2021-10-20_10h50.19.685,forced_choiceRT,2021.1.2,Win32,59.74429442,,,,,,,,6,Ontime,g,0,2.0056,2,2,10,3,1,,,,,
1.11,,,,,,,,,g.PNG,g,5c46540c4b9ebe00012eef7f,2021-10-20_10h50.19.685,forced_choiceRT,2021.1.2,Win32,59.74429442,,,,,,,,6,Ontime,g,1,2.0951,2,3,11,1,1,,,,,
0.32,,,,,,,,,g.PNG,g,5c46540c4b9ebe00012eef7f,2021-10-20_10h50.19.685,forced_choiceRT,2021.1.2,Win32,59.74429442,,,,,,,,6,Ontime,g,1,2.0092,3,0,12,1,1,,,,,
0.28,,,,,,,,,g.PNG,g,5c46540c4b9ebe00012eef7f,2021-10-20_10h50.19.685,forced_choiceRT,2021.1.2,Win32,59.74429442,,,,,,,,6,Ontime,g,1,2.0057,3,1,13,1,1,,,,,
0.93,,,,,,,,,g.PNG,g,5c46540c4b9ebe00012eef7f,2021-10-20_10h50.19.685,forced_choiceRT,2021.1.2,Win32,59.74429442,,,,,,,,6,Ontime,g,1,2.0066,3,2,14,1,1,,,,,
1.86,,,,,,,,,h.PNG,h,5c46540c4b9ebe00012eef7f,2021-10-20_10h50.19.685,forced_choiceRT,2021.1.2,Win32,59.74429442,,,,,,,,6,Ontime,h,1,2.0446,3,3,15,2,1,,,,,
0.74,,,,,,,,,j.PNG,j,5c46540c4b9ebe00012eef7f,2021-10-20_10h50.19.685,forced_choiceRT,2021.1.2,Win32,59.74429442,,,,,,,,6,Ontime,j,1,1.9781,4,0,16,3,1,,,,,
1.17,,,,,,,,,h.PNG,h,5c46540c4b9ebe00012eef7f,2021-10-20_10h50.19.685,forced_choiceRT,2021.1.2,Win32,59.74429442,,,,,,,,6,Ontime,h,1,2.0392,4,1,17,2,1,,,,,
1.2,,,,,,,,,h.PNG,h,5c46540c4b9ebe00012eef7f,2021-10-20_10h50.19.685,forced_choiceRT,2021.1.2,Win32,59.74429442,,,,,,,,6,Ontime,h,1,2.0552,4,2,18,2,1,,,,,
1,,,,,,,,,h.PNG,h,5c46540c4b9ebe00012eef7f,2021-10-20_10h50.19.685,forced_choiceRT,2021.1.2,Win32,59.74429442,,,,,,,,6,Ontime,h,1,2.0717,4,3,19,2,1,,,,,
0.68,,,,,,,,,h.PNG,h,5c46540c4b9ebe00012eef7f,2021-10-20_10h50.19.685,forced_choiceRT,2021.1.2,Win32,59.74429442,,,,,,,,6,Ontime,h,1,2.0416,5,0,20,2,1,,,,,
0.5,,,,,,,,,g.PNG,g,5c46540c4b9ebe00012eef7f,2021-10-20_10h50.19.685,forced_choiceRT,2021.1.2,Win32,59.74429442,,,,,,,,6,Ontime,g,1,2.0565,5,1,21,1,1,,,,,
0.98,,,,,,,,,g.PNG,g,5c46540c4b9ebe00012eef7f,2021-10-20_10h50.19.685,forced_choiceRT,2021.1.2,Win32,59.74429442,,,,,,,,6,Ontime,g,1,1.9739,5,2,22,1,1,,,,,
0.77,,,,,,,,,j.PNG,j,5c46540c4b9ebe00012eef7f,2021-10-20_10h50.19.685,forced_choiceRT,2021.1.2,Win32,59.74429442,,,,,,,,6,Slow,j,1,2.1054,5,3,23,3,1,,,,,
1.14,,,,,,,,,f.PNG,f,5c46540c4b9ebe00012eef7f,2021-10-20_10h50.19.685,forced_choiceRT,2021.1.2,Win32,59.74429442,,,,,,,,6,Ontime,f,1,1.9738,6,0,24,0,1,,,,,
1.26,,,,,,,,,h.PNG,h,5c46540c4b9ebe00012eef7f,2021-10-20_10h50.19.685,forced_choiceRT,2021.1.2,Win32,59.74429442,,,,,,,,6,Slow,h,1,2.2047,6,1,25,2,1,,,,,
0.98,,,,,,,,,g.PNG,g,5c46540c4b9ebe00012eef7f,2021-10-20_10h50.19.685,forced_choiceRT,2021.1.2,Win32,59.74429442,,,,,,,,6,Fast,g,1,1.805,6,2,26,1,1,,,,,
0,,,,,,,,,j.PNG,j,5c46540c4b9ebe00012eef7f,2021-10-20_10h50.19.685,forced_choiceRT,2021.1.2,Win32,59.74429442,,,,,,,,6,Ontime,j,1,2.0732,6,3,27,3,1,,,,,
0.91,,,,,,,,,j.PNG,j,5c46540c4b9ebe00012eef7f,2021-10-20_10h50.19.685,forced_choiceRT,2021.1.2,Win32,59.74429442,,,,,,,,6,Ontime,j,1,2.0114,7,0,28,3,1,,,,,
1.65,,,,,,,,,g.PNG,g,5c46540c4b9ebe00012eef7f,2021-10-20_10h50.19.685,forced_choiceRT,2021.1.2,Win32,59.74429442,,,,,,,,6,Slow,h,0,2.2032,7,1,29,1,1,,,,,
1.74,,,,,,,,,j.PNG,j,5c46540c4b9ebe00012eef7f,2021-10-20_10h50.19.685,forced_choiceRT,2021.1.2,Win32,59.74429442,,,,,,,,6,Slow,j,1,2.2403,7,2,30,3,1,,,,,
0.77,,,,,,,,,f.PNG,f,5c46540c4b9ebe00012eef7f,2021-10-20_10h50.19.685,forced_choiceRT,2021.1.2,Win32,59.74429442,,,,,,,,6,Ontime,f,1,2.0561,7,3,31,0,1,,,,,
1.57,,,,,,,,,f.PNG,f,5c46540c4b9ebe00012eef7f,2021-10-20_10h50.19.685,forced_choiceRT,2021.1.2,Win32,59.74429442,,,,,,,,6,Slow,f,1,2.2782,8,0,32,0,1,,,,,
0.66,,,,,,,,,g.PNG,g,5c46540c4b9ebe00012eef7f,2021-10-20_10h50.19.685,forced_choiceRT,2021.1.2,Win32,59.74429442,,,,,,,,6,Ontime,g,1,1.9967,8,1,33,1,1,,,,,
0.45,,,,,,,,,h.PNG,h,5c46540c4b9ebe00012eef7f,2021-10-20_10h50.19.685,forced_choiceRT,2021.1.2,Win32,59.74429442,,,,,,,,6,Ontime,h,1,2.0271,8,2,34,2,1,,,,,
0.89,,,,,,,,,f.PNG,f,5c46540c4b9ebe00012eef7f,2021-10-20_10h50.19.685,forced_choiceRT,2021.1.2,Win32,59.74429442,,,,,,,,6,Ontime,f,1,2.0717,8,3,35,0,1,,,,,
1.77,,,,,,,,,f.PNG,f,5c46540c4b9ebe00012eef7f,2021-10-20_10h50.19.685,forced_choiceRT,2021.1.2,Win32,59.74429442,,,,,,,,6,Slow,j,0,2.12,9,0,36,0,1,,,,,
1.15,,,,,,,,,f.PNG,f,5c46540c4b9ebe00012eef7f,2021-10-20_10h50.19.685,forced_choiceRT,2021.1.2,Win32,59.74429442,,,,,,,,6,Ontime,f,1,2.0427,9,1,37,0,1,,,,,
1.65,,,,,,,,,f.PNG,f,5c46540c4b9ebe00012eef7f,2021-10-20_10h50.19.685,forced_choiceRT,2021.1.2,Win32,59.74429442,,,,,,,,6,Slow,f,1,2.1287,9,2,38,0,1,,,,,
1.19,,,,,,,,,g.PNG,g,5c46540c4b9ebe00012eef7f,2021-10-20_10h50.19.685,forced_choiceRT,2021.1.2,Win32,59.74429442,,,,,,,,6,Ontime,g,1,2.0795,9,3,39,1,1,,,,,
,,,,,,,,,,,5c46540c4b9ebe00012eef7f,2021-10-20_10h50.19.685,forced_choiceRT,2021.1.2,Win32,59.74429442,,,,,,,,,,,,,,,,,,5,0,5,0,1
1.7,,,,,,,,,f.PNG,f,5c46540c4b9ebe00012eef7f,2021-10-20_10h50.19.685,forced_choiceRT,2021.1.2,Win32,59.74429442,,,,,,,,7,Slow,f,1,2.1557,0,0,0,0,1,,,,,
0.11,,,,,,,,,j.PNG,j,5c46540c4b9ebe00012eef7f,2021-10-20_10h50.19.685,forced_choiceRT,2021.1.2,Win32,59.74429442,,,,,,,,7,Ontime,j,1,1.9287,0,1,1,3,1,,,,,
1.76,,,,,,,,,j.PNG,j,5c46540c4b9ebe00012eef7f,2021-10-20_10h50.19.685,forced_choiceRT,2021.1.2,Win32,59.74429442,,,,,,,,7,Slow,f,0,2.1971,0,2,2,3,1,,,,,
0.1,,,,,,,,,j.PNG,j,5c46540c4b9ebe00012eef7f,2021-10-20_10h50.19.685,forced_choiceRT,2021.1.2,Win32,59.74429442,,,,,,,,7,Ontime,j,1,1.9605,0,3,3,3,1,,,,,
0.34,,,,,,,,,g.PNG,g,5c46540c4b9ebe00012eef7f,2021-10-20_10h50.19.685,forced_choiceRT,2021.1.2,Win32,59.74429442,,,,,,,,7,Ontime,g,1,2.0231,1,0,4,1,1,,,,,
0.96,,,,,,,,,f.PNG,f,5c46540c4b9ebe00012eef7f,2021-10-20_10h50.19.685,forced_choiceRT,2021.1.2,Win32,59.74429442,,,,,,,,7,Ontime,f,1,2.0049,1,1,5,0,1,,,,,
1.69,,,,,,,,,f.PNG,f,5c46540c4b9ebe00012eef7f,2021-10-20_10h50.19.685,forced_choiceRT,2021.1.2,Win32,59.74429442,,,,,,,,7,Ontime,g,0,2.0717,1,2,6,0,1,,,,,
1.4,,,,,,,,,j.PNG,j,5c46540c4b9ebe00012eef7f,2021-10-20_10h50.19.685,forced_choiceRT,2021.1.2,Win32,59.74429442,,,,,,,,7,Ontime,j,1,1.9727,1,3,7,3,1,,,,,
0.84,,,,,,,,,g.PNG,g,5c46540c4b9ebe00012eef7f,2021-10-20_10h50.19.685,forced_choiceRT,2021.1.2,Win32,59.74429442,,,,,,,,7,Fast,g,1,1.7885,2,0,8,1,1,,,,,
1.02,,,,,,,,,f.PNG,f,5c46540c4b9ebe00012eef7f,2021-10-20_10h50.19.685,forced_choiceRT,2021.1.2,Win32,59.74429442,,,,,,,,7,Ontime,f,1,2.0957,2,1,9,0,1,,,,,
0.66,,,,,,,,,j.PNG,j,5c46540c4b9ebe00012eef7f,2021-10-20_10h50.19.685,forced_choiceRT,2021.1.2,Win32,59.74429442,,,,,,,,7,Ontime,j,1,2.039,2,2,10,3,1,,,,,
1.51,,,,,,,,,h.PNG,h,5c46540c4b9ebe00012eef7f,2021-10-20_10h50.19.685,forced_choiceRT,2021.1.2,Win32,59.74429442,,,,,,,,7,Ontime,h,1,1.9713,2,3,11,2,1,,,,,
0.5,,,,,,,,,g.PNG,g,5c46540c4b9ebe00012eef7f,2021-10-20_10h50.19.685,forced_choiceRT,2021.1.2,Win32,59.74429442,,,,,,,,7,Ontime,g,1,1.9632,3,0,12,1,1,,,,,
0.41,,,,,,,,,j.PNG,j,5c46540c4b9ebe00012eef7f,2021-10-20_10h50.19.685,forced_choiceRT,2021.1.2,Win32,59.74429442,,,,,,,,7,Ontime,j,1,1.9422,3,1,13,3,1,,,,,
0.89,,,,,,,,,h.PNG,h,5c46540c4b9ebe00012eef7f,2021-10-20_10h50.19.685,forced_choiceRT,2021.1.2,Win32,59.74429442,,,,,,,,7,Ontime,h,1,1.9714,3,2,14,2,1,,,,,
1.32,,,,,,,,,h.PNG,h,5c46540c4b9ebe00012eef7f,2021-10-20_10h50.19.685,forced_choiceRT,2021.1.2,Win32,59.74429442,,,,,,,,7,Slow,h,1,2.1118,3,3,15,2,1,,,,,
1.68,,,,,,,,,j.PNG,j,5c46540c4b9ebe00012eef7f,2021-10-20_10h50.19.685,forced_choiceRT,2021.1.2,Win32,59.74429442,,,,,,,,7,Ontime,g,0,2.0637,4,0,16,3,1,,,,,
1.64,,,,,,,,,h.PNG,h,5c46540c4b9ebe00012eef7f,2021-10-20_10h50.19.685,forced_choiceRT,2021.1.2,Win32,59.74429442,,,,,,,,7,Slow,h,1,2.1396,4,1,17,2,1,,,,,
0.41,,,,,,,,,h.PNG,h,5c46540c4b9ebe00012eef7f,2021-10-20_10h50.19.685,forced_choiceRT,2021.1.2,Win32,59.74429442,,,,,,,,7,Ontime,h,1,2.0719,4,2,18,2,1,,,,,
1.47,,,,,,,,,f.PNG,f,5c46540c4b9ebe00012eef7f,2021-10-20_10h50.19.685,forced_choiceRT,2021.1.2,Win32,59.74429442,,,,,,,,7,Ontime,f,1,2.005,4,3,19,0,1,,,,,
0.43,,,,,,,,,h.PNG,h,5c46540c4b9ebe00012eef7f,2021-10-20_10h50.19.685,forced_choiceRT,2021.1.2,Win32,59.74429442,,,,,,,,7,Ontime,h,1,2.0222,5,0,20,2,1,,,,,
0.1,,,,,,,,,f.PNG,f,5c46540c4b9ebe00012eef7f,2021-10-20_10h50.19.685,forced_choiceRT,2021.1.2,Win32,59.74429442,,,,,,,,7,Ontime,f,1,2.0967,5,1,21,0,1,,,,,
0.85,,,,,,,,,h.PNG,h,5c46540c4b9ebe00012eef7f,2021-10-20_10h50.19.685,forced_choiceRT,2021.1.2,Win32,59.74429442,,,,,,,,7,Ontime,h,1,2.006,5,2,22,2,1,,,,,
1.15,,,,,,,,,g.PNG,g,5c46540c4b9ebe00012eef7f,2021-10-20_10h50.19.685,forced_choiceRT,2021.1.2,Win32,59.74429442,,,,,,,,7,Ontime,g,1,2.0918,5,3,23,1,1,,,,,
0.22,,,,,,,,,f.PNG,f,5c46540c4b9ebe00012eef7f,2021-10-20_10h50.19.685,forced_choiceRT,2021.1.2,Win32,59.74429442,,,,,,,,7,Ontime,f,1,1.9632,6,0,24,0,1,,,,,
0.82,,,,,,,,,f.PNG,f,5c46540c4b9ebe00012eef7f,2021-10-20_10h50.19.685,forced_choiceRT,2021.1.2,Win32,59.74429442,,,,,,,,7,Ontime,f,1,1.9901,6,1,25,0,1,,,,,
0.61,,,,,,,,,f.PNG,f,5c46540c4b9ebe00012eef7f,2021-10-20_10h50.19.685,forced_choiceRT,2021.1.2,Win32,59.74429442,,,,,,,,7,Ontime,f,1,1.9432,6,2,26,0,1,,,,,
1.46,,,,,,,,,h.PNG,h,5c46540c4b9ebe00012eef7f,2021-10-20_10h50.19.685,forced_choiceRT,2021.1.2,Win32,59.74429442,,,,,,,,7,Ontime,h,1,2.0727,6,3,27,2,1,,,,,
0.28,,,,,,,,,f.PNG,f,5c46540c4b9ebe00012eef7f,2021-10-20_10h50.19.685,forced_choiceRT,2021.1.2,Win32,59.74429442,,,,,,,,7,Ontime,f,1,2.0612,7,0,28,0,1,,,,,
0.26,,,,,,,,,h.PNG,h,5c46540c4b9ebe00012eef7f,2021-10-20_10h50.19.685,forced_choiceRT,2021.1.2,Win32,59.74429442,,,,,,,,7,Ontime,h,1,2.0271,7,1,29,2,1,,,,,
0.4,,,,,,,,,g.PNG,g,5c46540c4b9ebe00012eef7f,2021-10-20_10h50.19.685,forced_choiceRT,2021.1.2,Win32,59.74429442,,,,,,,,7,Ontime,g,1,1.9561,7,2,30,1,1,,,,,
1.56,,,,,,,,,j.PNG,j,5c46540c4b9ebe00012eef7f,2021-10-20_10h50.19.685,forced_choiceRT,2021.1.2,Win32,59.74429442,,,,,,,,7,Slow,h,0,2.3425,7,3,31,3,1,,,,,
1.7,,,,,,,,,g.PNG,g,5c46540c4b9ebe00012eef7f,2021-10-20_10h50.19.685,forced_choiceRT,2021.1.2,Win32,59.74429442,,,,,,,,7,Ontime,f,0,2.0736,8,0,32,1,1,,,,,
0.87,,,,,,,,,j.PNG,j,5c46540c4b9ebe00012eef7f,2021-10-20_10h50.19.685,forced_choiceRT,2021.1.2,Win32,59.74429442,,,,,,,,7,Ontime,j,1,2.0276,8,1,33,3,1,,,,,
1.43,,,,,,,,,g.PNG,g,5c46540c4b9ebe00012eef7f,2021-10-20_10h50.19.685,forced_choiceRT,2021.1.2,Win32,59.74429442,,,,,,,,7,Ontime,g,1,1.9775,8,2,34,1,1,,,,,
1.97,,,,,,,,,h.PNG,h,5c46540c4b9ebe00012eef7f,2021-10-20_10h50.19.685,forced_choiceRT,2021.1.2,Win32,59.74429442,,,,,,,,7,Ontime,f,0,2.0474,8,3,35,2,1,,,,,
1.67,,,,,,,,,g.PNG,g,5c46540c4b9ebe00012eef7f,2021-10-20_10h50.19.685,forced_choiceRT,2021.1.2,Win32,59.74429442,,,,,,,,7,Slow,g,1,2.1075,9,0,36,1,1,,,,,
0.62,,,,,,,,,g.PNG,g,5c46540c4b9ebe00012eef7f,2021-10-20_10h50.19.685,forced_choiceRT,2021.1.2,Win32,59.74429442,,,,,,,,7,Ontime,g,1,2.0265,9,1,37,1,1,,,,,
0.7,,,,,,,,,g.PNG,g,5c46540c4b9ebe00012eef7f,2021-10-20_10h50.19.685,forced_choiceRT,2021.1.2,Win32,59.74429442,,,,,,,,7,Ontime,g,1,1.9554,9,2,38,1,1,,,,,
0.16,,,,,,,,,j.PNG,j,5c46540c4b9ebe00012eef7f,2021-10-20_10h50.19.685,forced_choiceRT,2021.1.2,Win32,59.74429442,,,,,,,,7,Fast,j,1,1.8961,9,3,39,3,1,,,,,
,,,,,,,,,,,5c46540c4b9ebe00012eef7f,2021-10-20_10h50.19.685,forced_choiceRT,2021.1.2,Win32,59.74429442,,,,,,,,,,,,,,,,,,6,0,6,0,1
1.01,,,,,,,,,f.PNG,f,5c46540c4b9ebe00012eef7f,2021-10-20_10h50.19.685,forced_choiceRT,2021.1.2,Win32,59.74429442,,,,,,,,8,Slow,g,0,2.2843,0,0,0,0,1,,,,,
1.15,,,,,,,,,j.PNG,j,5c46540c4b9ebe00012eef7f,2021-10-20_10h50.19.685,forced_choiceRT,2021.1.2,Win32,59.74429442,,,,,,,,8,Ontime,j,1,2.0387,0,1,1,3,1,,,,,
0.04,,,,,,,,,h.PNG,h,5c46540c4b9ebe00012eef7f,2021-10-20_10h50.19.685,forced_choiceRT,2021.1.2,Win32,59.74429442,,,,,,,,8,Ontime,h,1,2.0576,0,2,2,2,1,,,,,
1.07,,,,,,,,,f.PNG,f,5c46540c4b9ebe00012eef7f,2021-10-20_10h50.19.685,forced_choiceRT,2021.1.2,Win32,59.74429442,,,,,,,,8,Ontime,f,1,1.9893,0,3,3,0,1,,,,,
0.03,,,,,,,,,h.PNG,h,5c46540c4b9ebe00012eef7f,2021-10-20_10h50.19.685,forced_choiceRT,2021.1.2,Win32,59.74429442,,,,,,,,8,Ontime,h,1,1.9921,1,0,4,2,1,,,,,
1.49,,,,,,,,,h.PNG,h,5c46540c4b9ebe00012eef7f,2021-10-20_10h50.19.685,forced_choiceRT,2021.1.2,Win32,59.74429442,,,,,,,,8,Ontime,g,0,1.9382,1,1,5,2,1,,,,,
0.84,,,,,,,,,g.PNG,g,5c46540c4b9ebe00012eef7f,2021-10-20_10h50.19.685,forced_choiceRT,2021.1.2,Win32,59.74429442,,,,,,,,8,Fast,g,1,1.7728,1,2,6,1,1,,,,,
1.64,,,,,,,,,f.PNG,f,5c46540c4b9ebe00012eef7f,2021-10-20_10h50.19.685,forced_choiceRT,2021.1.2,Win32,59.74429442,,,,,,,,8,Slow,f,1,2.1577,1,3,7,0,1,,,,,
0.98,,,,,,,,,g.PNG,g,5c46540c4b9ebe00012eef7f,2021-10-20_10h50.19.685,forced_choiceRT,2021.1.2,Win32,59.74429442,,,,,,,,8,Ontime,g,1,1.9223,2,0,8,1,1,,,,,
0.5,,,,,,,,,g.PNG,g,5c46540c4b9ebe00012eef7f,2021-10-20_10h50.19.685,forced_choiceRT,2021.1.2,Win32,59.74429442,,,,,,,,8,Ontime,g,1,2.0289,2,1,9,1,1,,,,,
1.85,,,,,,,,,g.PNG,g,5c46540c4b9ebe00012eef7f,2021-10-20_10h50.19.685,forced_choiceRT,2021.1.2,Win32,59.74429442,,,,,,,,8,Ontime,j,0,2.0899,2,2,10,1,1,,,,,
1.17,,,,,,,,,h.PNG,h,5c46540c4b9ebe00012eef7f,2021-10-20_10h50.19.685,forced_choiceRT,2021.1.2,Win32,59.74429442,,,,,,,,8,Fast,h,1,1.7556,2,3,11,2,1,,,,,
0.21,,,,,,,,,g.PNG,g,5c46540c4b9ebe00012eef7f,2021-10-20_10h50.19.685,forced_choiceRT,2021.1.2,Win32,59.74429442,,,,,,,,8,Ontime,g,1,1.9759,3,0,12,1,1,,,,,
1.39,,,,,,,,,j.PNG,j,5c46540c4b9ebe00012eef7f,2021-10-20_10h50.19.685,forced_choiceRT,2021.1.2,Win32,59.74429442,,,,,,,,8,Slow,j,1,2.125,3,1,13,3,1,,,,,
0.08,,,,,,,,,f.PNG,f,5c46540c4b9ebe00012eef7f,2021-10-20_10h50.19.685,forced_choiceRT,2021.1.2,Win32,59.74429442,,,,,,,,8,Ontime,f,1,1.9911,3,2,14,0,1,,,,,
0.18,,,,,,,,,g.PNG,g,5c46540c4b9ebe00012eef7f,2021-10-20_10h50.19.685,forced_choiceRT,2021.1.2,Win32,59.74429442,,,,,,,,8,Ontime,g,1,1.9552,3,3,15,1,1,,,,,
1.42,,,,,,,,,h.PNG,h,5c46540c4b9ebe00012eef7f,2021-10-20_10h50.19.685,forced_choiceRT,2021.1.2,Win32,59.74429442,,,,,,,,8,Slow,h,1,2.1245,4,0,16,2,1,,,,,
1.74,,,,,,,,,f.PNG,f,5c46540c4b9ebe00012eef7f,2021-10-20_10h50.19.685,forced_choiceRT,2021.1.2,Win32,59.74429442,,,,,,,,8,Slow,f,1,2.2869,4,1,17,0,1,,,,,
0.15,,,,,,,,,j.PNG,j,5c46540c4b9ebe00012eef7f,2021-10-20_10h50.19.685,forced_choiceRT,2021.1.2,Win32,59.74429442,,,,,,,,8,Ontime,j,1,1.9725,4,2,18,3,1,,,,,
1.48,,,,,,,,,f.PNG,f,5c46540c4b9ebe00012eef7f,2021-10-20_10h50.19.685,forced_choiceRT,2021.1.2,Win32,59.74429442,,,,,,,,8,Ontime,f,1,2.0084,4,3,19,0,1,,,,,
0.99,,,,,,,,,h.PNG,h,5c46540c4b9ebe00012eef7f,2021-10-20_10h50.19.685,forced_choiceRT,2021.1.2,Win32,59.74429442,,,,,,,,8,Ontime,h,1,2.0414,5,0,20,2,1,,,,,
1.03,,,,,,,,,h.PNG,h,5c46540c4b9ebe00012eef7f,2021-10-20_10h50.19.685,forced_choiceRT,2021.1.2,Win32,59.74429442,,,,,,,,8,Ontime,h,1,1.939,5,1,21,2,1,,,,,
0.08,,,,,,,,,f.PNG,f,5c46540c4b9ebe00012eef7f,2021-10-20_10h50.19.685,forced_choiceRT,2021.1.2,Win32,59.74429442,,,,,,,,8,Ontime,f,1,1.98,5,2,22,0,1,,,,,
0.7,,,,,,,,,j.PNG,j,5c46540c4b9ebe00012eef7f,2021-10-20_10h50.19.685,forced_choiceRT,2021.1.2,Win32,59.74429442,,,,,,,,8,Ontime,j,1,1.9897,5,3,23,3,1,,,,,
0.57,,,,,,,,,h.PNG,h,5c46540c4b9ebe00012eef7f,2021-10-20_10h50.19.685,forced_choiceRT,2021.1.2,Win32,59.74429442,,,,,,,,8,Ontime,h,1,2.0063,6,0,24,2,1,,,,,
0.04,,,,,,,,,h.PNG,h,5c46540c4b9ebe00012eef7f,2021-10-20_10h50.19.685,forced_choiceRT,2021.1.2,Win32,59.74429442,,,,,,,,8,Ontime,h,1,1.9886,6,1,25,2,1,,,,,
0.31,,,,,,,,,g.PNG,g,5c46540c4b9ebe00012eef7f,2021-10-20_10h50.19.685,forced_choiceRT,2021.1.2,Win32,59.74429442,,,,,,,,8,Ontime,g,1,1.9887,6,2,26,1,1,,,,,
0.92,,,,,,,,,f.PNG,f,5c46540c4b9ebe00012eef7f,2021-10-20_10h50.19.685,forced_choiceRT,2021.1.2,Win32,59.74429442,,,,,,,,8,Slow,f,1,2.1055,6,3,27,0,1,,,,,
0.1,,,,,,,,,j.PNG,j,5c46540c4b9ebe00012eef7f,2021-10-20_10h50.19.685,forced_choiceRT,2021.1.2,Win32,59.74429442,,,,,,,,8,Ontime,j,1,2.039,7,0,28,3,1,,,,,
1.48,,,,,,,,,f.PNG,f,5c46540c4b9ebe00012eef7f,2021-10-20_10h50.19.685,forced_choiceRT,2021.1.2,Win32,59.74429442,,,,,,,,8,Ontime,f,1,2.0439,7,1,29,0,1,,,,,
1.06,,,,,,,,,h.PNG,h,5c46540c4b9ebe00012eef7f,2021-10-20_10h50.19.685,forced_choiceRT,2021.1.2,Win32,59.74429442,,,,,,,,8,Ontime,h,1,2.0899,7,2,30,2,1,,,,,
1.02,,,,,,,,,f.PNG,f,5c46540c4b9ebe00012eef7f,2021-10-20_10h50.19.685,forced_choiceRT,2021.1.2,Win32,59.74429442,,,,,,,,8,Ontime,f,1,2.0564,7,3,31,0,1,,,,,
0.92,,,,,,,,,j.PNG,j,5c46540c4b9ebe00012eef7f,2021-10-20_10h50.19.685,forced_choiceRT,2021.1.2,Win32,59.74429442,,,,,,,,8,Ontime,j,1,2.0054,8,0,32,3,1,,,,,
1.59,,,,,,,,,j.PNG,j,5c46540c4b9ebe00012eef7f,2021-10-20_10h50.19.685,forced_choiceRT,2021.1.2,Win32,59.74429442,,,,,,,,8,Slow,j,1,2.3058,8,1,33,3,1,,,,,
0.33,,,,,,,,,j.PNG,j,5c46540c4b9ebe00012eef7f,2021-10-20_10h50.19.685,forced_choiceRT,2021.1.2,Win32,59.74429442,,,,,,,,8,Ontime,j,1,1.9894,8,2,34,3,1,,,,,
0.02,,,,,,,,,j.PNG,j,5c46540c4b9ebe00012eef7f,2021-10-20_10h50.19.685,forced_choiceRT,2021.1.2,Win32,59.74429442,,,,,,,,8,Ontime,j,1,1.9892,8,3,35,3,1,,,,,
0.38,,,,,,,,,g.PNG,g,5c46540c4b9ebe00012eef7f,2021-10-20_10h50.19.685,forced_choiceRT,2021.1.2,Win32,59.74429442,,,,,,,,8,Ontime,g,1,2.0291,9,0,36,1,1,,,,,
1.68,,,,,,,,,g.PNG,g,5c46540c4b9ebe00012eef7f,2021-10-20_10h50.19.685,forced_choiceRT,2021.1.2,Win32,59.74429442,,,,,,,,8,Slow,f,0,2.1887,9,1,37,1,1,,,,,
1.26,,,,,,,,,j.PNG,j,5c46540c4b9ebe00012eef7f,2021-10-20_10h50.19.685,forced_choiceRT,2021.1.2,Win32,59.74429442,,,,,,,,8,Ontime,j,1,2.0283,9,2,38,3,1,,,,,
1.15,,,,,,,,,g.PNG,g,5c46540c4b9ebe00012eef7f,2021-10-20_10h50.19.685,forced_choiceRT,2021.1.2,Win32,59.74429442,,,,,,,,8,Ontime,g,1,2.028,9,3,39,1,1,,,,,
,,,,,,,,,,,5c46540c4b9ebe00012eef7f,2021-10-20_10h50.19.685,forced_choiceRT,2021.1.2,Win32,59.74429442,,,,,,,,,,,,,,,,,,7,0,7,0,1
1.41,,,,,,,,,h.PNG,h,5c46540c4b9ebe00012eef7f,2021-10-20_10h50.19.685,forced_choiceRT,2021.1.2,Win32,59.74429442,,,,,,,,9,Slow,g,0,2.1835,0,0,0,2,1,,,,,
1.11,,,,,,,,,j.PNG,j,5c46540c4b9ebe00012eef7f,2021-10-20_10h50.19.685,forced_choiceRT,2021.1.2,Win32,59.74429442,,,,,,,,9,Ontime,j,1,1.9222,0,1,1,3,1,,,,,
1.71,,,,,,,,,j.PNG,j,5c46540c4b9ebe00012eef7f,2021-10-20_10h50.19.685,forced_choiceRT,2021.1.2,Win32,59.74429442,,,,,,,,9,Slow,j,1,2.196,0,2,2,3,1,,,,,
0.98,,,,,,,,,j.PNG,j,5c46540c4b9ebe00012eef7f,2021-10-20_10h50.19.685,forced_choiceRT,2021.1.2,Win32,59.74429442,,,,,,,,9,Ontime,j,1,1.9724,0,3,3,3,1,,,,,
0.72,,,,,,,,,h.PNG,h,5c46540c4b9ebe00012eef7f,2021-10-20_10h50.19.685,forced_choiceRT,2021.1.2,Win32,59.74429442,,,,,,,,9,Ontime,h,1,1.9736,1,0,4,2,1,,,,,
0.52,,,,,,,,,h.PNG,h,5c46540c4b9ebe00012eef7f,2021-10-20_10h50.19.685,forced_choiceRT,2021.1.2,Win32,59.74429442,,,,,,,,9,Ontime,h,1,1.9625,1,1,5,2,1,,,,,
0.97,,,,,,,,,g.PNG,g,5c46540c4b9ebe00012eef7f,2021-10-20_10h50.19.685,forced_choiceRT,2021.1.2,Win32,59.74429442,,,,,,,,9,Ontime,g,1,2.007,1,2,6,1,1,,,,,
1.11,,,,,,,,,f.PNG,f,5c46540c4b9ebe00012eef7f,2021-10-20_10h50.19.685,forced_choiceRT,2021.1.2,Win32,59.74429442,,,,,,,,9,Ontime,f,1,2.0743,1,3,7,0,1,,,,,
1.27,,,,,,,,,h.PNG,h,5c46540c4b9ebe00012eef7f,2021-10-20_10h50.19.685,forced_choiceRT,2021.1.2,Win32,59.74429442,,,,,,,,9,Ontime,h,1,1.9558,2,0,8,2,1,,,,,
0.45,,,,,,,,,g.PNG,g,5c46540c4b9ebe00012eef7f,2021-10-20_10h50.19.685,forced_choiceRT,2021.1.2,Win32,59.74429442,,,,,,,,9,Ontime,g,1,1.9724,2,1,9,1,1,,,,,
0.42,,,,,,,,,f.PNG,f,5c46540c4b9ebe00012eef7f,2021-10-20_10h50.19.685,forced_choiceRT,2021.1.2,Win32,59.74429442,,,,,,,,9,Ontime,f,1,2.0279,2,2,10,0,1,,,,,
0.44,,,,,,,,,g.PNG,g,5c46540c4b9ebe00012eef7f,2021-10-20_10h50.19.685,forced_choiceRT,2021.1.2,Win32,59.74429442,,,,,,,,9,Ontime,g,1,1.9607,2,3,11,1,1,,,,,
0.64,,,,,,,,,h.PNG,h,5c46540c4b9ebe00012eef7f,2021-10-20_10h50.19.685,forced_choiceRT,2021.1.2,Win32,59.74429442,,,,,,,,9,Ontime,h,1,2.011,3,0,12,2,1,,,,,
0.93,,,,,,,,,j.PNG,j,5c46540c4b9ebe00012eef7f,2021-10-20_10h50.19.685,forced_choiceRT,2021.1.2,Win32,59.74429442,,,,,,,,9,Ontime,j,1,2.0058,3,1,13,3,1,,,,,
0.22,,,,,,,,,g.PNG,g,5c46540c4b9ebe00012eef7f,2021-10-20_10h50.19.685,forced_choiceRT,2021.1.2,Win32,59.74429442,,,,,,,,9,Ontime,g,1,1.9235,3,2,14,1,1,,,,,
1.88,,,,,,,,,h.PNG,h,5c46540c4b9ebe00012eef7f,2021-10-20_10h50.19.685,forced_choiceRT,2021.1.2,Win32,59.74429442,,,,,,,,9,Slow,f,0,2.1941,3,3,15,2,1,,,,,
1.05,,,,,,,,,j.PNG,j,5c46540c4b9ebe00012eef7f,2021-10-20_10h50.19.685,forced_choiceRT,2021.1.2,Win32,59.74429442,,,,,,,,9,Ontime,j,1,2.0897,4,0,16,3,1,,,,,
0.93,,,,,,,,,g.PNG,g,5c46540c4b9ebe00012eef7f,2021-10-20_10h50.19.685,forced_choiceRT,2021.1.2,Win32,59.74429442,,,,,,,,9,Ontime,g,1,2.0242,4,1,17,1,1,,,,,
0.46,,,,,,,,,h.PNG,h,5c46540c4b9ebe00012eef7f,2021-10-20_10h50.19.685,forced_choiceRT,2021.1.2,Win32,59.74429442,,,,,,,,9,Ontime,h,1,1.9893,4,2,18,2,1,,,,,
1.43,,,,,,,,,f.PNG,f,5c46540c4b9ebe00012eef7f,2021-10-20_10h50.19.685,forced_choiceRT,2021.1.2,Win32,59.74429442,,,,,,,,9,Ontime,f,1,1.9446,4,3,19,0,1,,,,,
1.5,,,,,,,,,f.PNG,f,5c46540c4b9ebe00012eef7f,2021-10-20_10h50.19.685,forced_choiceRT,2021.1.2,Win32,59.74429442,,,,,,,,9,Ontime,f,1,2.022,5,0,20,0,1,,,,,
1.03,,,,,,,,,g.PNG,g,5c46540c4b9ebe00012eef7f,2021-10-20_10h50.19.685,forced_choiceRT,2021.1.2,Win32,59.74429442,,,,,,,,9,Fast,g,1,1.7726,5,1,21,1,1,,,,,
0.39,,,,,,,,,f.PNG,f,5c46540c4b9ebe00012eef7f,2021-10-20_10h50.19.685,forced_choiceRT,2021.1.2,Win32,59.74429442,,,,,,,,9,Ontime,f,1,1.9741,5,2,22,0,1,,,,,
1.94,,,,,,,,,h.PNG,h,5c46540c4b9ebe00012eef7f,2021-10-20_10h50.19.685,forced_choiceRT,2021.1.2,Win32,59.74429442,,,,,,,,9,Slow,f,0,2.1224,5,3,23,2,1,,,,,
0.37,,,,,,,,,j.PNG,j,5c46540c4b9ebe00012eef7f,2021-10-20_10h50.19.685,forced_choiceRT,2021.1.2,Win32,59.74429442,,,,,,,,9,Ontime,j,1,2.005,6,0,24,3,1,,,,,
0.64,,,,,,,,,f.PNG,f,5c46540c4b9ebe00012eef7f,2021-10-20_10h50.19.685,forced_choiceRT,2021.1.2,Win32,59.74429442,,,,,,,,9,Ontime,f,1,2.0553,6,1,25,0,1,,,,,
0.54,,,,,,,,,j.PNG,j,5c46540c4b9ebe00012eef7f,2021-10-20_10h50.19.685,forced_choiceRT,2021.1.2,Win32,59.74429442,,,,,,,,9,Ontime,j,1,2.0581,6,2,26,3,1,,,,,
1.64,,,,,,,,,g.PNG,g,5c46540c4b9ebe00012eef7f,2021-10-20_10h50.19.685,forced_choiceRT,2021.1.2,Win32,59.74429442,,,,,,,,9,Slow,g,1,2.1056,6,3,27,1,1,,,,,
0.46,,,,,,,,,h.PNG,h,5c46540c4b9ebe00012eef7f,2021-10-20_10h50.19.685,forced_choiceRT,2021.1.2,Win32,59.74429442,,,,,,,,9,Ontime,h,1,2.0791,7,0,28,2,1,,,,,
0.46,,,,,,,,,g.PNG,g,5c46540c4b9ebe00012eef7f,2021-10-20_10h50.19.685,forced_choiceRT,2021.1.2,Win32,59.74429442,,,,,,,,9,Ontime,g,1,2.0566,7,1,29,1,1,,,,,
0.57,,,,,,,,,g.PNG,g,5c46540c4b9ebe00012eef7f,2021-10-20_10h50.19.685,forced_choiceRT,2021.1.2,Win32,59.74429442,,,,,,,,9,Ontime,g,1,2.0637,7,2,30,1,1,,,,,
1.4,,,,,,,,,j.PNG,j,5c46540c4b9ebe00012eef7f,2021-10-20_10h50.19.685,forced_choiceRT,2021.1.2,Win32,59.74429442,,,,,,,,9,Ontime,j,1,2.0228,7,3,31,3,1,,,,,
0.14,,,,,,,,,g.PNG,g,5c46540c4b9ebe00012eef7f,2021-10-20_10h50.19.685,forced_choiceRT,2021.1.2,Win32,59.74429442,,,,,,,,9,Ontime,g,1,1.9311,8,0,32,1,1,,,,,
0.42,,,,,,,,,j.PNG,j,5c46540c4b9ebe00012eef7f,2021-10-20_10h50.19.685,forced_choiceRT,2021.1.2,Win32,59.74429442,,,,,,,,9,Ontime,j,1,2.0387,8,1,33,3,1,,,,,
0,,,,,,,,,f.PNG,f,5c46540c4b9ebe00012eef7f,2021-10-20_10h50.19.685,forced_choiceRT,2021.1.2,Win32,59.74429442,,,,,,,,9,Ontime,f,1,2.042,8,2,34,0,1,,,,,
0.48,,,,,,,,,f.PNG,f,5c46540c4b9ebe00012eef7f,2021-10-20_10h50.19.685,forced_choiceRT,2021.1.2,Win32,59.74429442,,,,,,,,9,Ontime,f,1,1.922,8,3,35,0,1,,,,,
0.02,,,,,,,,,j.PNG,j,5c46540c4b9ebe00012eef7f,2021-10-20_10h50.19.685,forced_choiceRT,2021.1.2,Win32,59.74429442,,,,,,,,9,Ontime,j,1,1.9723,9,0,36,3,1,,,,,
0.78,,,,,,,,,h.PNG,h,5c46540c4b9ebe00012eef7f,2021-10-20_10h50.19.685,forced_choiceRT,2021.1.2,Win32,59.74429442,,,,,,,,9,Ontime,h,1,2.0062,9,1,37,2,1,,,,,
0.77,,,,,,,,,f.PNG,f,5c46540c4b9ebe00012eef7f,2021-10-20_10h50.19.685,forced_choiceRT,2021.1.2,Win32,59.74429442,,,,,,,,9,Ontime,f,1,1.9729,9,2,38,0,1,,,,,
1.35,,,,,,,,,f.PNG,f,5c46540c4b9ebe00012eef7f,2021-10-20_10h50.19.685,forced_choiceRT,2021.1.2,Win32,59.74429442,,,,,,,,9,Ontime,f,1,2.0389,9,3,39,0,1,,,,,
,,,,,,,,,,,5c46540c4b9ebe00012eef7f,2021-10-20_10h50.19.685,forced_choiceRT,2021.1.2,Win32,59.74429442,,,,,,,,,,,,,,,,,,8,0,8,0,1
1.67,,,,,,,,,f.PNG,f,5c46540c4b9ebe00012eef7f,2021-10-20_10h50.19.685,forced_choiceRT,2021.1.2,Win32,59.74429442,,,,,,,,10,Slow,f,1,2.2177,0,0,0,0,1,,,,,
1.89,,,,,,,,,j.PNG,j,5c46540c4b9ebe00012eef7f,2021-10-20_10h50.19.685,forced_choiceRT,2021.1.2,Win32,59.74429442,,,,,,,,10,Slow,g,0,2.1062,0,1,1,3,1,,,,,
1.42,,,,,,,,,j.PNG,j,5c46540c4b9ebe00012eef7f,2021-10-20_10h50.19.685,forced_choiceRT,2021.1.2,Win32,59.74429442,,,,,,,,10,Ontime,j,1,1.979,0,2,2,3,1,,,,,
0.84,,,,,,,,,h.PNG,h,5c46540c4b9ebe00012eef7f,2021-10-20_10h50.19.685,forced_choiceRT,2021.1.2,Win32,59.74429442,,,,,,,,10,Ontime,h,1,2.0228,0,3,3,2,1,,,,,
1.12,,,,,,,,,f.PNG,f,5c46540c4b9ebe00012eef7f,2021-10-20_10h50.19.685,forced_choiceRT,2021.1.2,Win32,59.74429442,,,,,,,,10,Ontime,f,1,2.0432,1,0,4,0,1,,,,,
1.17,,,,,,,,,g.PNG,g,5c46540c4b9ebe00012eef7f,2021-10-20_10h50.19.685,forced_choiceRT,2021.1.2,Win32,59.74429442,,,,,,,,10,Ontime,g,1,1.9895,1,1,5,1,1,,,,,
1.62,,,,,,,,,j.PNG,j,5c46540c4b9ebe00012eef7f,2021-10-20_10h50.19.685,forced_choiceRT,2021.1.2,Win32,59.74429442,,,,,,,,10,Slow,j,1,2.1195,1,2,6,3,1,,,,,
0.52,,,,,,,,,g.PNG,g,5c46540c4b9ebe00012eef7f,2021-10-20_10h50.19.685,forced_choiceRT,2021.1.2,Win32,59.74429442,,,,,,,,10,Ontime,g,1,1.9885,1,3,7,1,1,,,,,
0.83,,,,,,,,,h.PNG,h,5c46540c4b9ebe00012eef7f,2021-10-20_10h50.19.685,forced_choiceRT,2021.1.2,Win32,59.74429442,,,,,,,,10,Ontime,h,1,2.0381,2,0,8,2,1,,,,,
1.94,,,,,,,,,g.PNG,g,5c46540c4b9ebe00012eef7f,2021-10-20_10h50.19.685,forced_choiceRT,2021.1.2,Win32,59.74429442,,,,,,,,10,Slow,g,1,2.2707,2,1,9,1,1,,,,,
0.23,,,,,,,,,j.PNG,j,5c46540c4b9ebe00012eef7f,2021-10-20_10h50.19.685,forced_choiceRT,2021.1.2,Win32,59.74429442,,,,,,,,10,Ontime,j,1,2.023,2,2,10,3,1,,,,,
1.77,,,,,,,,,f.PNG,f,5c46540c4b9ebe00012eef7f,2021-10-20_10h50.19.685,forced_choiceRT,2021.1.2,Win32,59.74429442,,,,,,,,10,Ontime,g,0,2.0589,2,3,11,0,1,,,,,
1.41,,,,,,,,,f.PNG,f,5c46540c4b9ebe00012eef7f,2021-10-20_10h50.19.685,forced_choiceRT,2021.1.2,Win32,59.74429442,,,,,,,,10,Ontime,f,1,1.9534,3,0,12,0,1,,,,,
0.97,,,,,,,,,f.PNG,f,5c46540c4b9ebe00012eef7f,2021-10-20_10h50.19.685,forced_choiceRT,2021.1.2,Win32,59.74429442,,,,,,,,10,Ontime,f,1,2.006,3,1,13,0,1,,,,,
0.04,,,,,,,,,f.PNG,f,5c46540c4b9ebe00012eef7f,2021-10-20_10h50.19.685,forced_choiceRT,2021.1.2,Win32,59.74429442,,,,,,,,10,Ontime,f,1,1.9886,3,2,14,0,1,,,,,
0.09,,,,,,,,,h.PNG,h,5c46540c4b9ebe00012eef7f,2021-10-20_10h50.19.685,forced_choiceRT,2021.1.2,Win32,59.74429442,,,,,,,,10,Ontime,h,1,1.927,3,3,15,2,1,,,,,
1.89,,,,,,,,,g.PNG,g,5c46540c4b9ebe00012eef7f,2021-10-20_10h50.19.685,forced_choiceRT,2021.1.2,Win32,59.74429442,,,,,,,,10,Ontime,h,0,2.0391,4,0,16,1,1,,,,,
0.37,,,,,,,,,h.PNG,h,5c46540c4b9ebe00012eef7f,2021-10-20_10h50.19.685,forced_choiceRT,2021.1.2,Win32,59.74429442,,,,,,,,10,Ontime,h,1,1.9275,4,1,17,2,1,,,,,
0.06,,,,,,,,,g.PNG,g,5c46540c4b9ebe00012eef7f,2021-10-20_10h50.19.685,forced_choiceRT,2021.1.2,Win32,59.74429442,,,,,,,,10,Ontime,g,1,1.9551,4,2,18,1,1,,,,,
0.06,,,,,,,,,j.PNG,j,5c46540c4b9ebe00012eef7f,2021-10-20_10h50.19.685,forced_choiceRT,2021.1.2,Win32,59.74429442,,,,,,,,10,Ontime,j,1,1.9443,4,3,19,3,1,,,,,
1.33,,,,,,,,,h.PNG,h,5c46540c4b9ebe00012eef7f,2021-10-20_10h50.19.685,forced_choiceRT,2021.1.2,Win32,59.74429442,,,,,,,,10,Ontime,h,1,2.0386,5,0,20,2,1,,,,,
1.88,,,,,,,,,h.PNG,h,5c46540c4b9ebe00012eef7f,2021-10-20_10h50.19.685,forced_choiceRT,2021.1.2,Win32,59.74429442,,,,,,,,10,Slow,g,0,2.107,5,1,21,2,1,,,,,
1.12,,,,,,,,,g.PNG,g,5c46540c4b9ebe00012eef7f,2021-10-20_10h50.19.685,forced_choiceRT,2021.1.2,Win32,59.74429442,,,,,,,,10,Ontime,g,1,2.073,5,2,22,1,1,,,,,
0.48,,,,,,,,,g.PNG,g,5c46540c4b9ebe00012eef7f,2021-10-20_10h50.19.685,forced_choiceRT,2021.1.2,Win32,59.74429442,,,,,,,,10,Ontime,g,1,1.9885,5,3,23,1,1,,,,,
1.1,,,,,,,,,h.PNG,h,5c46540c4b9ebe00012eef7f,2021-10-20_10h50.19.685,forced_choiceRT,2021.1.2,Win32,59.74429442,,,,,,,,10,Ontime,h,1,2.0062,6,0,24,2,1,,,,,
0.08,,,,,,,,,j.PNG,j,5c46540c4b9ebe00012eef7f,2021-10-20_10h50.19.685,forced_choiceRT,2021.1.2,Win32,59.74429442,,,,,,,,10,Ontime,j,1,2.0066,6,1,25,3,1,,,,,
0.71,,,,,,,,,j.PNG,j,5c46540c4b9ebe00012eef7f,2021-10-20_10h50.19.685,forced_choiceRT,2021.1.2,Win32,59.74429442,,,,,,,,10,Ontime,j,1,2.0727,6,2,26,3,1,,,,,
1.17,,,,,,,,,f.PNG,f,5c46540c4b9ebe00012eef7f,2021-10-20_10h50.19.685,forced_choiceRT,2021.1.2,Win32,59.74429442,,,,,,,,10,Ontime,f,1,2.0754,6,3,27,0,1,,,,,
0.27,,,,,,,,,h.PNG,h,5c46540c4b9ebe00012eef7f,2021-10-20_10h50.19.685,forced_choiceRT,2021.1.2,Win32,59.74429442,,,,,,,,10,Ontime,h,1,1.9431,7,0,28,2,1,,,,,
0.33,,,,,,,,,h.PNG,h,5c46540c4b9ebe00012eef7f,2021-10-20_10h50.19.685,forced_choiceRT,2021.1.2,Win32,59.74429442,,,,,,,,10,Ontime,h,1,1.9714,7,1,29,2,1,,,,,
0.83,,,,,,,,,j.PNG,j,5c46540c4b9ebe00012eef7f,2021-10-20_10h50.19.685,forced_choiceRT,2021.1.2,Win32,59.74429442,,,,,,,,10,Ontime,j,1,2.056,7,2,30,3,1,,,,,
0.77,,,,,,,,,g.PNG,g,5c46540c4b9ebe00012eef7f,2021-10-20_10h50.19.685,forced_choiceRT,2021.1.2,Win32,59.74429442,,,,,,,,10,Fast,g,1,1.8722,7,3,31,1,1,,,,,
0.42,,,,,,,,,g.PNG,g,5c46540c4b9ebe00012eef7f,2021-10-20_10h50.19.685,forced_choiceRT,2021.1.2,Win32,59.74429442,,,,,,,,10,Ontime,g,1,2.0221,8,0,32,1,1,,,,,
0.64,,,,,,,,,h.PNG,h,5c46540c4b9ebe00012eef7f,2021-10-20_10h50.19.685,forced_choiceRT,2021.1.2,Win32,59.74429442,,,,,,,,10,Ontime,h,1,1.9211,8,1,33,2,1,,,,,
1.5,,,,,,,,,j.PNG,j,5c46540c4b9ebe00012eef7f,2021-10-20_10h50.19.685,forced_choiceRT,2021.1.2,Win32,59.74429442,,,,,,,,10,Slow,h,0,2.1534,8,2,34,3,1,,,,,
1.35,,,,,,,,,j.PNG,j,5c46540c4b9ebe00012eef7f,2021-10-20_10h50.19.685,forced_choiceRT,2021.1.2,Win32,59.74429442,,,,,,,,10,Ontime,j,1,2.0901,8,3,35,3,1,,,,,
0.25,,,,,,,,,f.PNG,f,5c46540c4b9ebe00012eef7f,2021-10-20_10h50.19.685,forced_choiceRT,2021.1.2,Win32,59.74429442,,,,,,,,10,Ontime,f,1,2.0888,9,0,36,0,1,,,,,
1.59,,,,,,,,,f.PNG,f,5c46540c4b9ebe00012eef7f,2021-10-20_10h50.19.685,forced_choiceRT,2021.1.2,Win32,59.74429442,,,,,,,,10,Slow,f,1,2.12,9,1,37,0,1,,,,,
1.82,,,,,,,,,f.PNG,f,5c46540c4b9ebe00012eef7f,2021-10-20_10h50.19.685,forced_choiceRT,2021.1.2,Win32,59.74429442,,,,,,,,10,Slow,h,0,2.1407,9,2,38,0,1,,,,,
1.7,,,,,,,,,g.PNG,g,5c46540c4b9ebe00012eef7f,2021-10-20_10h50.19.685,forced_choiceRT,2021.1.2,Win32,59.74429442,,,,,,,,10,Ontime,f,0,2.027,9,3,39,1,1,,,,,
,,,,,,,,,,,5c46540c4b9ebe00012eef7f,2021-10-20_10h50.19.685,forced_choiceRT,2021.1.2,Win32,59.74429442,,,,,,,,,,,,,,,,,,9,0,9,0,1
