IP_Addresss,target_onset,trial_resp_sp.keys,trial_resp_sp.corr,trial_resp_sp.rt,trials_train_loop.thisRepN,trials_train_loop.thisTrialN,trials_train_loop.thisN,trials_train_loop.thisIndex,trials_train_loop.ran,pic,correct_key,participant,date,expName,psychopyVersion,OS,frameRate,trial_resp_timing.keys,trial_resp_timing.rt,trials_train_timing.thisRepN,trials_train_timing.thisTrialN,trials_train_timing.thisN,trials_train_timing.thisIndex,trials_train_timing.ran,block_id,ontime,forcedRT_resp.keys,forcedRT_resp.corr,forcedRT_resp.rt,trials.thisRepN,trials.thisTrialN,trials.thisN,trials.thisIndex,trials.ran,blocks.thisRepN,blocks.thisTrialN,blocks.thisN,blocks.thisIndex,blocks.ran
98.39.155.33,0,h,1,2.9457,0,0,0,2,1,h.PNG,h,5d829da97f572900184a7cb1,2021-10-19_14h58.18.324,forced_choiceRT,2021.1.2,Win32,59.99880002,,,,,,,,,,,,,,,,,,,,,,
,0,j,1,1.9352,0,1,1,3,1,j.PNG,j,5d829da97f572900184a7cb1,2021-10-19_14h58.18.324,forced_choiceRT,2021.1.2,Win32,59.99880002,,,,,,,,,,,,,,,,,,,,,,
,0,h,1,2.0444,0,2,2,2,1,h.PNG,h,5d829da97f572900184a7cb1,2021-10-19_14h58.18.324,forced_choiceRT,2021.1.2,Win32,59.99880002,,,,,,,,,,,,,,,,,,,,,,
,0,g,1,1.5125,0,3,3,1,1,g.PNG,g,5d829da97f572900184a7cb1,2021-10-19_14h58.18.324,forced_choiceRT,2021.1.2,Win32,59.99880002,,,,,,,,,,,,,,,,,,,,,,
,0,g,1,1.446,1,0,4,1,1,g.PNG,g,5d829da97f572900184a7cb1,2021-10-19_14h58.18.324,forced_choiceRT,2021.1.2,Win32,59.99880002,,,,,,,,,,,,,,,,,,,,,,
,0,g,1,1.0498,1,1,5,1,1,g.PNG,g,5d829da97f572900184a7cb1,2021-10-19_14h58.18.324,forced_choiceRT,2021.1.2,Win32,59.99880002,,,,,,,,,,,,,,,,,,,,,,
,0,h,1,1.3778,1,2,6,2,1,h.PNG,h,5d829da97f572900184a7cb1,2021-10-19_14h58.18.324,forced_choiceRT,2021.1.2,Win32,59.99880002,,,,,,,,,,,,,,,,,,,,,,
,0,h,1,1.0323,1,3,7,2,1,h.PNG,h,5d829da97f572900184a7cb1,2021-10-19_14h58.18.324,forced_choiceRT,2021.1.2,Win32,59.99880002,,,,,,,,,,,,,,,,,,,,,,
,0,f,1,1.5023,2,0,8,0,1,f.PNG,f,5d829da97f572900184a7cb1,2021-10-19_14h58.18.324,forced_choiceRT,2021.1.2,Win32,59.99880002,,,,,,,,,,,,,,,,,,,,,,
,0,h,1,1.3342,2,1,9,2,1,h.PNG,h,5d829da97f572900184a7cb1,2021-10-19_14h58.18.324,forced_choiceRT,2021.1.2,Win32,59.99880002,,,,,,,,,,,,,,,,,,,,,,
,0,j,1,1.3996,2,2,10,3,1,j.PNG,j,5d829da97f572900184a7cb1,2021-10-19_14h58.18.324,forced_choiceRT,2021.1.2,Win32,59.99880002,,,,,,,,,,,,,,,,,,,,,,
,0,j,1,0.8838,2,3,11,3,1,j.PNG,j,5d829da97f572900184a7cb1,2021-10-19_14h58.18.324,forced_choiceRT,2021.1.2,Win32,59.99880002,,,,,,,,,,,,,,,,,,,,,,
,0,j,1,0.5999,3,0,12,3,1,j.PNG,j,5d829da97f572900184a7cb1,2021-10-19_14h58.18.324,forced_choiceRT,2021.1.2,Win32,59.99880002,,,,,,,,,,,,,,,,,,,,,,
,0,f,1,1.2721,3,1,13,0,1,f.PNG,f,5d829da97f572900184a7cb1,2021-10-19_14h58.18.324,forced_choiceRT,2021.1.2,Win32,59.99880002,,,,,,,,,,,,,,,,,,,,,,
,0,g,1,1.0673,3,2,14,1,1,g.PNG,g,5d829da97f572900184a7cb1,2021-10-19_14h58.18.324,forced_choiceRT,2021.1.2,Win32,59.99880002,,,,,,,,,,,,,,,,,,,,,,
,0,j,1,1.1715,3,3,15,3,1,j.PNG,j,5d829da97f572900184a7cb1,2021-10-19_14h58.18.324,forced_choiceRT,2021.1.2,Win32,59.99880002,,,,,,,,,,,,,,,,,,,,,,
,0,f,1,1.0626,4,0,16,0,1,f.PNG,f,5d829da97f572900184a7cb1,2021-10-19_14h58.18.324,forced_choiceRT,2021.1.2,Win32,59.99880002,,,,,,,,,,,,,,,,,,,,,,
,0,j,1,1.0532,4,1,17,3,1,j.PNG,j,5d829da97f572900184a7cb1,2021-10-19_14h58.18.324,forced_choiceRT,2021.1.2,Win32,59.99880002,,,,,,,,,,,,,,,,,,,,,,
,0,h,1,1.165,4,2,18,2,1,h.PNG,h,5d829da97f572900184a7cb1,2021-10-19_14h58.18.324,forced_choiceRT,2021.1.2,Win32,59.99880002,,,,,,,,,,,,,,,,,,,,,,
,0,g,1,1.0637,4,3,19,1,1,g.PNG,g,5d829da97f572900184a7cb1,2021-10-19_14h58.18.324,forced_choiceRT,2021.1.2,Win32,59.99880002,,,,,,,,,,,,,,,,,,,,,,
,0,g,1,1.1121,5,0,20,1,1,g.PNG,g,5d829da97f572900184a7cb1,2021-10-19_14h58.18.324,forced_choiceRT,2021.1.2,Win32,59.99880002,,,,,,,,,,,,,,,,,,,,,,
,0,j,1,1.0005,5,1,21,3,1,j.PNG,j,5d829da97f572900184a7cb1,2021-10-19_14h58.18.324,forced_choiceRT,2021.1.2,Win32,59.99880002,,,,,,,,,,,,,,,,,,,,,,
,0,j,1,0.7064,5,2,22,3,1,j.PNG,j,5d829da97f572900184a7cb1,2021-10-19_14h58.18.324,forced_choiceRT,2021.1.2,Win32,59.99880002,,,,,,,,,,,,,,,,,,,,,,
,0,f,1,1.0669,5,3,23,0,1,f.PNG,f,5d829da97f572900184a7cb1,2021-10-19_14h58.18.324,forced_choiceRT,2021.1.2,Win32,59.99880002,,,,,,,,,,,,,,,,,,,,,,
,0,g,1,0.8323,6,0,24,1,1,g.PNG,g,5d829da97f572900184a7cb1,2021-10-19_14h58.18.324,forced_choiceRT,2021.1.2,Win32,59.99880002,,,,,,,,,,,,,,,,,,,,,,
,0,g,1,0.7013,6,1,25,1,1,g.PNG,g,5d829da97f572900184a7cb1,2021-10-19_14h58.18.324,forced_choiceRT,2021.1.2,Win32,59.99880002,,,,,,,,,,,,,,,,,,,,,,
,0,j,1,0.8573,6,2,26,3,1,j.PNG,j,5d829da97f572900184a7cb1,2021-10-19_14h58.18.324,forced_choiceRT,2021.1.2,Win32,59.99880002,,,,,,,,,,,,,,,,,,,,,,
,0,j,1,0.702,6,3,27,3,1,j.PNG,j,5d829da97f572900184a7cb1,2021-10-19_14h58.18.324,forced_choiceRT,2021.1.2,Win32,59.99880002,,,,,,,,,,,,,,,,,,,,,,
,0,f,1,1.0495,7,0,28,0,1,f.PNG,f,5d829da97f572900184a7cb1,2021-10-19_14h58.18.324,forced_choiceRT,2021.1.2,Win32,59.99880002,,,,,,,,,,,,,,,,,,,,,,
,0,g,1,0.8004,7,1,29,1,1,g.PNG,g,5d829da97f572900184a7cb1,2021-10-19_14h58.18.324,forced_choiceRT,2021.1.2,Win32,59.99880002,,,,,,,,,,,,,,,,,,,,,,
,0,j,1,0.8001,7,2,30,3,1,j.PNG,j,5d829da97f572900184a7cb1,2021-10-19_14h58.18.324,forced_choiceRT,2021.1.2,Win32,59.99880002,,,,,,,,,,,,,,,,,,,,,,
,0,h,1,0.7377,7,3,31,2,1,h.PNG,h,5d829da97f572900184a7cb1,2021-10-19_14h58.18.324,forced_choiceRT,2021.1.2,Win32,59.99880002,,,,,,,,,,,,,,,,,,,,,,
,0,f,1,0.9569,8,0,32,0,1,f.PNG,f,5d829da97f572900184a7cb1,2021-10-19_14h58.18.324,forced_choiceRT,2021.1.2,Win32,59.99880002,,,,,,,,,,,,,,,,,,,,,,
,0,f,1,0.8041,8,1,33,0,1,f.PNG,f,5d829da97f572900184a7cb1,2021-10-19_14h58.18.324,forced_choiceRT,2021.1.2,Win32,59.99880002,,,,,,,,,,,,,,,,,,,,,,
,0,f,1,0.6505,8,2,34,0,1,f.PNG,f,5d829da97f572900184a7cb1,2021-10-19_14h58.18.324,forced_choiceRT,2021.1.2,Win32,59.99880002,,,,,,,,,,,,,,,,,,,,,,
,0,j,1,0.8521,8,3,35,3,1,j.PNG,j,5d829da97f572900184a7cb1,2021-10-19_14h58.18.324,forced_choiceRT,2021.1.2,Win32,59.99880002,,,,,,,,,,,,,,,,,,,,,,
,0,f,1,0.8201,9,0,36,0,1,f.PNG,f,5d829da97f572900184a7cb1,2021-10-19_14h58.18.324,forced_choiceRT,2021.1.2,Win32,59.99880002,,,,,,,,,,,,,,,,,,,,,,
,0,j,1,0.8829,9,1,37,3,1,j.PNG,j,5d829da97f572900184a7cb1,2021-10-19_14h58.18.324,forced_choiceRT,2021.1.2,Win32,59.99880002,,,,,,,,,,,,,,,,,,,,,,
,0,h,1,1.6005,9,2,38,2,1,h.PNG,h,5d829da97f572900184a7cb1,2021-10-19_14h58.18.324,forced_choiceRT,2021.1.2,Win32,59.99880002,,,,,,,,,,,,,,,,,,,,,,
,0,g,1,1.0204,9,3,39,1,1,g.PNG,g,5d829da97f572900184a7cb1,2021-10-19_14h58.18.324,forced_choiceRT,2021.1.2,Win32,59.99880002,,,,,,,,,,,,,,,,,,,,,,
,0,g,1,0.7003,10,0,40,1,1,g.PNG,g,5d829da97f572900184a7cb1,2021-10-19_14h58.18.324,forced_choiceRT,2021.1.2,Win32,59.99880002,,,,,,,,,,,,,,,,,,,,,,
,0,h,1,0.7838,10,1,41,2,1,h.PNG,h,5d829da97f572900184a7cb1,2021-10-19_14h58.18.324,forced_choiceRT,2021.1.2,Win32,59.99880002,,,,,,,,,,,,,,,,,,,,,,
,0,h,1,0.6015,10,2,42,2,1,h.PNG,h,5d829da97f572900184a7cb1,2021-10-19_14h58.18.324,forced_choiceRT,2021.1.2,Win32,59.99880002,,,,,,,,,,,,,,,,,,,,,,
,0,h,1,0.6345,10,3,43,2,1,h.PNG,h,5d829da97f572900184a7cb1,2021-10-19_14h58.18.324,forced_choiceRT,2021.1.2,Win32,59.99880002,,,,,,,,,,,,,,,,,,,,,,
,0,f,1,0.8856,11,0,44,0,1,f.PNG,f,5d829da97f572900184a7cb1,2021-10-19_14h58.18.324,forced_choiceRT,2021.1.2,Win32,59.99880002,,,,,,,,,,,,,,,,,,,,,,
,0,h,1,0.8169,11,1,45,2,1,h.PNG,h,5d829da97f572900184a7cb1,2021-10-19_14h58.18.324,forced_choiceRT,2021.1.2,Win32,59.99880002,,,,,,,,,,,,,,,,,,,,,,
,0,g,1,0.9193,11,2,46,1,1,g.PNG,g,5d829da97f572900184a7cb1,2021-10-19_14h58.18.324,forced_choiceRT,2021.1.2,Win32,59.99880002,,,,,,,,,,,,,,,,,,,,,,
,0,f,1,0.8389,11,3,47,0,1,f.PNG,f,5d829da97f572900184a7cb1,2021-10-19_14h58.18.324,forced_choiceRT,2021.1.2,Win32,59.99880002,,,,,,,,,,,,,,,,,,,,,,
,0,g,1,0.6487,12,0,48,1,1,g.PNG,g,5d829da97f572900184a7cb1,2021-10-19_14h58.18.324,forced_choiceRT,2021.1.2,Win32,59.99880002,,,,,,,,,,,,,,,,,,,,,,
,0,h,1,0.9766,12,1,49,2,1,h.PNG,h,5d829da97f572900184a7cb1,2021-10-19_14h58.18.324,forced_choiceRT,2021.1.2,Win32,59.99880002,,,,,,,,,,,,,,,,,,,,,,
,0,f,1,0.8982,12,2,50,0,1,f.PNG,f,5d829da97f572900184a7cb1,2021-10-19_14h58.18.324,forced_choiceRT,2021.1.2,Win32,59.99880002,,,,,,,,,,,,,,,,,,,,,,
,0,j,1,0.8505,12,3,51,3,1,j.PNG,j,5d829da97f572900184a7cb1,2021-10-19_14h58.18.324,forced_choiceRT,2021.1.2,Win32,59.99880002,,,,,,,,,,,,,,,,,,,,,,
,0,g,1,1.0049,13,0,52,1,1,g.PNG,g,5d829da97f572900184a7cb1,2021-10-19_14h58.18.324,forced_choiceRT,2021.1.2,Win32,59.99880002,,,,,,,,,,,,,,,,,,,,,,
,0,j,0,0.9163,13,1,53,2,1,h.PNG,h,5d829da97f572900184a7cb1,2021-10-19_14h58.18.324,forced_choiceRT,2021.1.2,Win32,59.99880002,,,,,,,,,,,,,,,,,,,,,,
,0,h,1,0.9061,13,2,54,2,1,h.PNG,h,5d829da97f572900184a7cb1,2021-10-19_14h58.18.324,forced_choiceRT,2021.1.2,Win32,59.99880002,,,,,,,,,,,,,,,,,,,,,,
,0,j,1,0.7506,13,3,55,3,1,j.PNG,j,5d829da97f572900184a7cb1,2021-10-19_14h58.18.324,forced_choiceRT,2021.1.2,Win32,59.99880002,,,,,,,,,,,,,,,,,,,,,,
,0,f,1,1.1735,14,0,56,0,1,f.PNG,f,5d829da97f572900184a7cb1,2021-10-19_14h58.18.324,forced_choiceRT,2021.1.2,Win32,59.99880002,,,,,,,,,,,,,,,,,,,,,,
,0,f,1,0.7501,14,1,57,0,1,f.PNG,f,5d829da97f572900184a7cb1,2021-10-19_14h58.18.324,forced_choiceRT,2021.1.2,Win32,59.99880002,,,,,,,,,,,,,,,,,,,,,,
,0,g,1,1.2006,14,2,58,1,1,g.PNG,g,5d829da97f572900184a7cb1,2021-10-19_14h58.18.324,forced_choiceRT,2021.1.2,Win32,59.99880002,,,,,,,,,,,,,,,,,,,,,,
,0,f,1,0.8205,14,3,59,0,1,f.PNG,f,5d829da97f572900184a7cb1,2021-10-19_14h58.18.324,forced_choiceRT,2021.1.2,Win32,59.99880002,,,,,,,,,,,,,,,,,,,,,,
,,,,,,,,,,,,5d829da97f572900184a7cb1,2021-10-19_14h58.18.324,forced_choiceRT,2021.1.2,Win32,59.99880002,g,22.6996,0,0,0,0,1,,,,,,,,,,,,,,,
,,,,,,,,,,,,5d829da97f572900184a7cb1,2021-10-19_14h58.18.324,forced_choiceRT,2021.1.2,Win32,59.99880002,g,2.2696,1,0,1,0,1,,,,,,,,,,,,,,,
,,,,,,,,,,,,5d829da97f572900184a7cb1,2021-10-19_14h58.18.324,forced_choiceRT,2021.1.2,Win32,59.99880002,f,0.5359,2,0,2,0,1,,,,,,,,,,,,,,,
,,,,,,,,,,,,5d829da97f572900184a7cb1,2021-10-19_14h58.18.324,forced_choiceRT,2021.1.2,Win32,59.99880002,h,0.9012,3,0,3,0,1,,,,,,,,,,,,,,,
,,,,,,,,,,,,5d829da97f572900184a7cb1,2021-10-19_14h58.18.324,forced_choiceRT,2021.1.2,Win32,59.99880002,g,1.3323,4,0,4,0,1,,,,,,,,,,,,,,,
,,,,,,,,,,,,5d829da97f572900184a7cb1,2021-10-19_14h58.18.324,forced_choiceRT,2021.1.2,Win32,59.99880002,f,2.3173,5,0,5,0,1,,,,,,,,,,,,,,,
,,,,,,,,,,,,5d829da97f572900184a7cb1,2021-10-19_14h58.18.324,forced_choiceRT,2021.1.2,Win32,59.99880002,f,2.206,6,0,6,0,1,,,,,,,,,,,,,,,
,,,,,,,,,,,,5d829da97f572900184a7cb1,2021-10-19_14h58.18.324,forced_choiceRT,2021.1.2,Win32,59.99880002,h,0.5497,7,0,7,0,1,,,,,,,,,,,,,,,
,,,,,,,,,,,,5d829da97f572900184a7cb1,2021-10-19_14h58.18.324,forced_choiceRT,2021.1.2,Win32,59.99880002,h,1.9672,8,0,8,0,1,,,,,,,,,,,,,,,
,,,,,,,,,,,,5d829da97f572900184a7cb1,2021-10-19_14h58.18.324,forced_choiceRT,2021.1.2,Win32,59.99880002,h,1.7842,9,0,9,0,1,,,,,,,,,,,,,,,
,,,,,,,,,,,,5d829da97f572900184a7cb1,2021-10-19_14h58.18.324,forced_choiceRT,2021.1.2,Win32,59.99880002,h,2.2175,10,0,10,0,1,,,,,,,,,,,,,,,
,,,,,,,,,,,,5d829da97f572900184a7cb1,2021-10-19_14h58.18.324,forced_choiceRT,2021.1.2,Win32,59.99880002,g,2.0006,11,0,11,0,1,,,,,,,,,,,,,,,
,,,,,,,,,,,,5d829da97f572900184a7cb1,2021-10-19_14h58.18.324,forced_choiceRT,2021.1.2,Win32,59.99880002,g,1.8496,12,0,12,0,1,,,,,,,,,,,,,,,
,,,,,,,,,,,,5d829da97f572900184a7cb1,2021-10-19_14h58.18.324,forced_choiceRT,2021.1.2,Win32,59.99880002,f,1.8057,13,0,13,0,1,,,,,,,,,,,,,,,
,,,,,,,,,,,,5d829da97f572900184a7cb1,2021-10-19_14h58.18.324,forced_choiceRT,2021.1.2,Win32,59.99880002,f,2.212,14,0,14,0,1,,,,,,,,,,,,,,,
,,,,,,,,,,,,5d829da97f572900184a7cb1,2021-10-19_14h58.18.324,forced_choiceRT,2021.1.2,Win32,59.99880002,h,2.0819,15,0,15,0,1,,,,,,,,,,,,,,,
,,,,,,,,,,,,5d829da97f572900184a7cb1,2021-10-19_14h58.18.324,forced_choiceRT,2021.1.2,Win32,59.99880002,h,2.1347,16,0,16,0,1,,,,,,,,,,,,,,,
,,,,,,,,,,,,5d829da97f572900184a7cb1,2021-10-19_14h58.18.324,forced_choiceRT,2021.1.2,Win32,59.99880002,h,1.9854,17,0,17,0,1,,,,,,,,,,,,,,,
,,,,,,,,,,,,5d829da97f572900184a7cb1,2021-10-19_14h58.18.324,forced_choiceRT,2021.1.2,Win32,59.99880002,h,2.067,18,0,18,0,1,,,,,,,,,,,,,,,
,,,,,,,,,,,,5d829da97f572900184a7cb1,2021-10-19_14h58.18.324,forced_choiceRT,2021.1.2,Win32,59.99880002,h,1.9895,19,0,19,0,1,,,,,,,,,,,,,,,
,0.44,,,,,,,,,j.PNG,j,5d829da97f572900184a7cb1,2021-10-19_14h58.18.324,forced_choiceRT,2021.1.2,Win32,59.99880002,,,,,,,,1,Ontime,g,0,1.9417,0,0,0,3,1,,,,,
,0.31,,,,,,,,,g.PNG,g,5d829da97f572900184a7cb1,2021-10-19_14h58.18.324,forced_choiceRT,2021.1.2,Win32,59.99880002,,,,,,,,1,Fast,g,1,1.8632,0,1,1,1,1,,,,,
,1.23,,,,,,,,,h.PNG,h,5d829da97f572900184a7cb1,2021-10-19_14h58.18.324,forced_choiceRT,2021.1.2,Win32,59.99880002,,,,,,,,1,Slow,h,1,2.1209,0,2,2,2,1,,,,,
,1.88,,,,,,,,,g.PNG,g,5d829da97f572900184a7cb1,2021-10-19_14h58.18.324,forced_choiceRT,2021.1.2,Win32,59.99880002,,,,,,,,1,Ontime,g,1,1.9625,0,3,3,1,1,,,,,
,1.53,,,,,,,,,j.PNG,j,5d829da97f572900184a7cb1,2021-10-19_14h58.18.324,forced_choiceRT,2021.1.2,Win32,59.99880002,,,,,,,,1,Ontime,g,0,2.0183,1,0,4,3,1,,,,,
,0.65,,,,,,,,,j.PNG,j,5d829da97f572900184a7cb1,2021-10-19_14h58.18.324,forced_choiceRT,2021.1.2,Win32,59.99880002,,,,,,,,1,Ontime,g,0,1.9996,1,1,5,3,1,,,,,
,1.08,,,,,,,,,h.PNG,h,5d829da97f572900184a7cb1,2021-10-19_14h58.18.324,forced_choiceRT,2021.1.2,Win32,59.99880002,,,,,,,,1,Ontime,g,0,1.9725,1,2,6,2,1,,,,,
,1.68,,,,,,,,,j.PNG,j,5d829da97f572900184a7cb1,2021-10-19_14h58.18.324,forced_choiceRT,2021.1.2,Win32,59.99880002,,,,,,,,1,Ontime,g,0,1.9836,1,3,7,3,1,,,,,
,0.32,,,,,,,,,g.PNG,g,5d829da97f572900184a7cb1,2021-10-19_14h58.18.324,forced_choiceRT,2021.1.2,Win32,59.99880002,,,,,,,,1,Ontime,g,1,2.0166,2,0,8,1,1,,,,,
,0.21,,,,,,,,,j.PNG,j,5d829da97f572900184a7cb1,2021-10-19_14h58.18.324,forced_choiceRT,2021.1.2,Win32,59.99880002,,,,,,,,1,Ontime,g,0,2.0367,2,1,9,3,1,,,,,
,1.6,,,,,,,,,g.PNG,g,5d829da97f572900184a7cb1,2021-10-19_14h58.18.324,forced_choiceRT,2021.1.2,Win32,59.99880002,,,,,,,,1,Fast,g,1,1.8058,2,2,10,1,1,,,,,
,0.41,,,,,,,,,f.PNG,f,5d829da97f572900184a7cb1,2021-10-19_14h58.18.324,forced_choiceRT,2021.1.2,Win32,59.99880002,,,,,,,,1,Fast,g,0,1.8515,2,3,11,0,1,,,,,
,0.95,,,,,,,,,f.PNG,f,5d829da97f572900184a7cb1,2021-10-19_14h58.18.324,forced_choiceRT,2021.1.2,Win32,59.99880002,,,,,,,,1,Ontime,h,0,1.9682,3,0,12,0,1,,,,,
,1.93,,,,,,,,,f.PNG,f,5d829da97f572900184a7cb1,2021-10-19_14h58.18.324,forced_choiceRT,2021.1.2,Win32,59.99880002,,,,,,,,1,Ontime,g,0,2.0667,3,1,13,0,1,,,,,
,1.95,,,,,,,,,h.PNG,h,5d829da97f572900184a7cb1,2021-10-19_14h58.18.324,forced_choiceRT,2021.1.2,Win32,59.99880002,,,,,,,,1,Ontime,g,0,1.9682,3,2,14,2,1,,,,,
,1.02,,,,,,,,,j.PNG,j,5d829da97f572900184a7cb1,2021-10-19_14h58.18.324,forced_choiceRT,2021.1.2,Win32,59.99880002,,,,,,,,1,Ontime,h,0,1.9821,3,3,15,3,1,,,,,
,1.68,,,,,,,,,f.PNG,f,5d829da97f572900184a7cb1,2021-10-19_14h58.18.324,forced_choiceRT,2021.1.2,Win32,59.99880002,,,,,,,,1,Fast,g,0,1.6852,4,0,16,0,1,,,,,
,0.92,,,,,,,,,h.PNG,h,5d829da97f572900184a7cb1,2021-10-19_14h58.18.324,forced_choiceRT,2021.1.2,Win32,59.99880002,,,,,,,,1,Ontime,g,0,2.0311,4,1,17,2,1,,,,,
,0.33,,,,,,,,,g.PNG,g,5d829da97f572900184a7cb1,2021-10-19_14h58.18.324,forced_choiceRT,2021.1.2,Win32,59.99880002,,,,,,,,1,Fast,f,0,1.8669,4,2,18,1,1,,,,,
,0.48,,,,,,,,,j.PNG,j,5d829da97f572900184a7cb1,2021-10-19_14h58.18.324,forced_choiceRT,2021.1.2,Win32,59.99880002,,,,,,,,1,Ontime,h,0,2.0201,4,3,19,3,1,,,,,
,1.66,,,,,,,,,h.PNG,h,5d829da97f572900184a7cb1,2021-10-19_14h58.18.324,forced_choiceRT,2021.1.2,Win32,59.99880002,,,,,,,,1,Fast,h,1,1.8892,5,0,20,2,1,,,,,
,1.18,,,,,,,,,f.PNG,f,5d829da97f572900184a7cb1,2021-10-19_14h58.18.324,forced_choiceRT,2021.1.2,Win32,59.99880002,,,,,,,,1,Ontime,f,1,1.9494,5,1,21,0,1,,,,,
,0.02,,,,,,,,,j.PNG,j,5d829da97f572900184a7cb1,2021-10-19_14h58.18.324,forced_choiceRT,2021.1.2,Win32,59.99880002,,,,,,,,1,Fast,j,1,1.7538,5,2,22,3,1,,,,,
,0.67,,,,,,,,,f.PNG,f,5d829da97f572900184a7cb1,2021-10-19_14h58.18.324,forced_choiceRT,2021.1.2,Win32,59.99880002,,,,,,,,1,Ontime,f,1,1.9686,5,3,23,0,1,,,,,
,0.93,,,,,,,,,h.PNG,h,5d829da97f572900184a7cb1,2021-10-19_14h58.18.324,forced_choiceRT,2021.1.2,Win32,59.99880002,,,,,,,,1,Slow,h,1,2.1275,6,0,24,2,1,,,,,
,0.92,,,,,,,,,f.PNG,f,5d829da97f572900184a7cb1,2021-10-19_14h58.18.324,forced_choiceRT,2021.1.2,Win32,59.99880002,,,,,,,,1,Ontime,f,1,1.915,6,1,25,0,1,,,,,
,0.93,,,,,,,,,f.PNG,f,5d829da97f572900184a7cb1,2021-10-19_14h58.18.324,forced_choiceRT,2021.1.2,Win32,59.99880002,,,,,,,,1,Fast,f,1,1.8457,6,2,26,0,1,,,,,
,0.11,,,,,,,,,h.PNG,h,5d829da97f572900184a7cb1,2021-10-19_14h58.18.324,forced_choiceRT,2021.1.2,Win32,59.99880002,,,,,,,,1,Fast,h,1,1.5781,6,3,27,2,1,,,,,
,1.24,,,,,,,,,j.PNG,j,5d829da97f572900184a7cb1,2021-10-19_14h58.18.324,forced_choiceRT,2021.1.2,Win32,59.99880002,,,,,,,,1,Ontime,h,0,1.9866,7,0,28,3,1,,,,,
,0.89,,,,,,,,,g.PNG,g,5d829da97f572900184a7cb1,2021-10-19_14h58.18.324,forced_choiceRT,2021.1.2,Win32,59.99880002,,,,,,,,1,Ontime,g,1,1.9659,7,1,29,1,1,,,,,
,0.16,,,,,,,,,h.PNG,h,5d829da97f572900184a7cb1,2021-10-19_14h58.18.324,forced_choiceRT,2021.1.2,Win32,59.99880002,,,,,,,,1,Ontime,h,1,1.9668,7,2,30,2,1,,,,,
,1.11,,,,,,,,,h.PNG,h,5d829da97f572900184a7cb1,2021-10-19_14h58.18.324,forced_choiceRT,2021.1.2,Win32,59.99880002,,,,,,,,1,Ontime,h,1,2.052,7,3,31,2,1,,,,,
,1,,,,,,,,,g.PNG,g,5d829da97f572900184a7cb1,2021-10-19_14h58.18.324,forced_choiceRT,2021.1.2,Win32,59.99880002,,,,,,,,1,Slow,g,1,2.1367,8,0,32,1,1,,,,,
,1.93,,,,,,,,,j.PNG,j,5d829da97f572900184a7cb1,2021-10-19_14h58.18.324,forced_choiceRT,2021.1.2,Win32,59.99880002,,,,,,,,1,Slow,g,0,2.1697,8,1,33,3,1,,,,,
,1.7,,,,,,,,,h.PNG,h,5d829da97f572900184a7cb1,2021-10-19_14h58.18.324,forced_choiceRT,2021.1.2,Win32,59.99880002,,,,,,,,1,Slow,g,0,2.1231,8,2,34,2,1,,,,,
,1.34,,,,,,,,,g.PNG,g,5d829da97f572900184a7cb1,2021-10-19_14h58.18.324,forced_choiceRT,2021.1.2,Win32,59.99880002,,,,,,,,1,Ontime,g,1,2.0672,8,3,35,1,1,,,,,
,0.63,,,,,,,,,f.PNG,f,5d829da97f572900184a7cb1,2021-10-19_14h58.18.324,forced_choiceRT,2021.1.2,Win32,59.99880002,,,,,,,,1,Ontime,f,1,1.9677,9,0,36,0,1,,,,,
,1.08,,,,,,,,,f.PNG,f,5d829da97f572900184a7cb1,2021-10-19_14h58.18.324,forced_choiceRT,2021.1.2,Win32,59.99880002,,,,,,,,1,Ontime,f,1,2.0371,9,1,37,0,1,,,,,
,0.19,,,,,,,,,g.PNG,g,5d829da97f572900184a7cb1,2021-10-19_14h58.18.324,forced_choiceRT,2021.1.2,Win32,59.99880002,,,,,,,,1,Fast,g,1,1.7501,9,2,38,1,1,,,,,
,0.43,,,,,,,,,g.PNG,g,5d829da97f572900184a7cb1,2021-10-19_14h58.18.324,forced_choiceRT,2021.1.2,Win32,59.99880002,,,,,,,,1,Fast,g,1,1.8556,9,3,39,1,1,,,,,
,,,,,,,,,,,,5d829da97f572900184a7cb1,2021-10-19_14h58.18.324,forced_choiceRT,2021.1.2,Win32,59.99880002,,,,,,,,,,,,,,,,,,0,0,0,0,1
,1.23,,,,,,,,,g.PNG,g,5d829da97f572900184a7cb1,2021-10-19_14h58.18.324,forced_choiceRT,2021.1.2,Win32,59.99880002,,,,,,,,2,Slow,h,0,2.4015,0,0,0,1,1,,,,,
,0.72,,,,,,,,,h.PNG,h,5d829da97f572900184a7cb1,2021-10-19_14h58.18.324,forced_choiceRT,2021.1.2,Win32,59.99880002,,,,,,,,2,Fast,h,1,1.6021,0,1,1,2,1,,,,,
,0.38,,,,,,,,,f.PNG,f,5d829da97f572900184a7cb1,2021-10-19_14h58.18.324,forced_choiceRT,2021.1.2,Win32,59.99880002,,,,,,,,2,Slow,f,1,2.2713,0,2,2,0,1,,,,,
,1.34,,,,,,,,,j.PNG,j,5d829da97f572900184a7cb1,2021-10-19_14h58.18.324,forced_choiceRT,2021.1.2,Win32,59.99880002,,,,,,,,2,Ontime,j,1,1.9688,0,3,3,3,1,,,,,
,1,,,,,,,,,g.PNG,g,5d829da97f572900184a7cb1,2021-10-19_14h58.18.324,forced_choiceRT,2021.1.2,Win32,59.99880002,,,,,,,,2,Ontime,g,1,1.9072,1,0,4,1,1,,,,,
,1.05,,,,,,,,,f.PNG,f,5d829da97f572900184a7cb1,2021-10-19_14h58.18.324,forced_choiceRT,2021.1.2,Win32,59.99880002,,,,,,,,2,Ontime,f,1,2.0862,1,1,5,0,1,,,,,
,0.4,,,,,,,,,h.PNG,h,5d829da97f572900184a7cb1,2021-10-19_14h58.18.324,forced_choiceRT,2021.1.2,Win32,59.99880002,,,,,,,,2,Fast,h,1,1.7836,1,2,6,2,1,,,,,
,1.17,,,,,,,,,h.PNG,h,5d829da97f572900184a7cb1,2021-10-19_14h58.18.324,forced_choiceRT,2021.1.2,Win32,59.99880002,,,,,,,,2,Ontime,h,1,1.9846,1,3,7,2,1,,,,,
,0.85,,,,,,,,,j.PNG,j,5d829da97f572900184a7cb1,2021-10-19_14h58.18.324,forced_choiceRT,2021.1.2,Win32,59.99880002,,,,,,,,2,Ontime,j,1,2.0156,2,0,8,3,1,,,,,
,0.21,,,,,,,,,g.PNG,g,5d829da97f572900184a7cb1,2021-10-19_14h58.18.324,forced_choiceRT,2021.1.2,Win32,59.99880002,,,,,,,,2,Ontime,g,1,1.9342,2,1,9,1,1,,,,,
,1.18,,,,,,,,,g.PNG,g,5d829da97f572900184a7cb1,2021-10-19_14h58.18.324,forced_choiceRT,2021.1.2,Win32,59.99880002,,,,,,,,2,Ontime,g,1,1.9382,2,2,10,1,1,,,,,
,0.63,,,,,,,,,f.PNG,f,5d829da97f572900184a7cb1,2021-10-19_14h58.18.324,forced_choiceRT,2021.1.2,Win32,59.99880002,,,,,,,,2,Ontime,f,1,2.0168,2,3,11,0,1,,,,,
,0.23,,,,,,,,,f.PNG,f,5d829da97f572900184a7cb1,2021-10-19_14h58.18.324,forced_choiceRT,2021.1.2,Win32,59.99880002,,,,,,,,2,Fast,f,1,1.7742,3,0,12,0,1,,,,,
,0.31,,,,,,,,,f.PNG,f,5d829da97f572900184a7cb1,2021-10-19_14h58.18.324,forced_choiceRT,2021.1.2,Win32,59.99880002,,,,,,,,2,Ontime,f,1,2.0393,3,1,13,0,1,,,,,
,0.67,,,,,,,,,j.PNG,j,5d829da97f572900184a7cb1,2021-10-19_14h58.18.324,forced_choiceRT,2021.1.2,Win32,59.99880002,,,,,,,,2,Fast,h,0,1.8231,3,2,14,3,1,,,,,
,0.66,,,,,,,,,h.PNG,h,5d829da97f572900184a7cb1,2021-10-19_14h58.18.324,forced_choiceRT,2021.1.2,Win32,59.99880002,,,,,,,,2,Fast,h,1,1.8175,3,3,15,2,1,,,,,
,1.39,,,,,,,,,g.PNG,g,5d829da97f572900184a7cb1,2021-10-19_14h58.18.324,forced_choiceRT,2021.1.2,Win32,59.99880002,,,,,,,,2,Slow,g,1,2.1536,4,0,16,1,1,,,,,
,0.67,,,,,,,,,g.PNG,g,5d829da97f572900184a7cb1,2021-10-19_14h58.18.324,forced_choiceRT,2021.1.2,Win32,59.99880002,,,,,,,,2,Fast,g,1,1.8835,4,1,17,1,1,,,,,
,1.1,,,,,,,,,f.PNG,f,5d829da97f572900184a7cb1,2021-10-19_14h58.18.324,forced_choiceRT,2021.1.2,Win32,59.99880002,,,,,,,,2,Ontime,f,1,2.0165,4,2,18,0,1,,,,,
,0.28,,,,,,,,,f.PNG,f,5d829da97f572900184a7cb1,2021-10-19_14h58.18.324,forced_choiceRT,2021.1.2,Win32,59.99880002,,,,,,,,2,Ontime,f,1,2.0563,4,3,19,0,1,,,,,
,0.45,,,,,,,,,j.PNG,j,5d829da97f572900184a7cb1,2021-10-19_14h58.18.324,forced_choiceRT,2021.1.2,Win32,59.99880002,,,,,,,,2,Fast,j,1,1.7838,5,0,20,3,1,,,,,
,1.16,,,,,,,,,j.PNG,j,5d829da97f572900184a7cb1,2021-10-19_14h58.18.324,forced_choiceRT,2021.1.2,Win32,59.99880002,,,,,,,,2,Ontime,j,1,1.9003,5,1,21,3,1,,,,,
,0.42,,,,,,,,,h.PNG,h,5d829da97f572900184a7cb1,2021-10-19_14h58.18.324,forced_choiceRT,2021.1.2,Win32,59.99880002,,,,,,,,2,Ontime,h,1,2.0172,5,2,22,2,1,,,,,
,0.72,,,,,,,,,j.PNG,j,5d829da97f572900184a7cb1,2021-10-19_14h58.18.324,forced_choiceRT,2021.1.2,Win32,59.99880002,,,,,,,,2,Ontime,j,1,2.0001,5,3,23,3,1,,,,,
,0.04,,,,,,,,,j.PNG,j,5d829da97f572900184a7cb1,2021-10-19_14h58.18.324,forced_choiceRT,2021.1.2,Win32,59.99880002,,,,,,,,2,Ontime,j,1,2.0487,6,0,24,3,1,,,,,
,0.42,,,,,,,,,f.PNG,f,5d829da97f572900184a7cb1,2021-10-19_14h58.18.324,forced_choiceRT,2021.1.2,Win32,59.99880002,,,,,,,,2,Ontime,f,1,2.0716,6,1,25,0,1,,,,,
,0.1,,,,,,,,,h.PNG,h,5d829da97f572900184a7cb1,2021-10-19_14h58.18.324,forced_choiceRT,2021.1.2,Win32,59.99880002,,,,,,,,2,Fast,h,1,1.8027,6,2,26,2,1,,,,,
,1.2,,,,,,,,,j.PNG,j,5d829da97f572900184a7cb1,2021-10-19_14h58.18.324,forced_choiceRT,2021.1.2,Win32,59.99880002,,,,,,,,2,Slow,j,1,2.2175,6,3,27,3,1,,,,,
,1.88,,,,,,,,,g.PNG,g,5d829da97f572900184a7cb1,2021-10-19_14h58.18.324,forced_choiceRT,2021.1.2,Win32,59.99880002,,,,,,,,2,Slow,h,0,2.4337,7,0,28,1,1,,,,,
,0.51,,,,,,,,,h.PNG,h,5d829da97f572900184a7cb1,2021-10-19_14h58.18.324,forced_choiceRT,2021.1.2,Win32,59.99880002,,,,,,,,2,Ontime,h,1,1.9333,7,1,29,2,1,,,,,
,1.45,,,,,,,,,j.PNG,j,5d829da97f572900184a7cb1,2021-10-19_14h58.18.324,forced_choiceRT,2021.1.2,Win32,59.99880002,,,,,,,,2,Slow,j,1,2.1677,7,2,30,3,1,,,,,
,1.13,,,,,,,,,g.PNG,g,5d829da97f572900184a7cb1,2021-10-19_14h58.18.324,forced_choiceRT,2021.1.2,Win32,59.99880002,,,,,,,,2,Ontime,g,1,1.9508,7,3,31,1,1,,,,,
,1.85,,,,,,,,,g.PNG,g,5d829da97f572900184a7cb1,2021-10-19_14h58.18.324,forced_choiceRT,2021.1.2,Win32,59.99880002,,,,,,,,2,Slow,j,0,2.1374,8,0,32,1,1,,,,,
,0.75,,,,,,,,,h.PNG,h,5d829da97f572900184a7cb1,2021-10-19_14h58.18.324,forced_choiceRT,2021.1.2,Win32,59.99880002,,,,,,,,2,Ontime,h,1,1.9152,8,1,33,2,1,,,,,
,0.33,,,,,,,,,h.PNG,h,5d829da97f572900184a7cb1,2021-10-19_14h58.18.324,forced_choiceRT,2021.1.2,Win32,59.99880002,,,,,,,,2,Ontime,h,1,2.0395,8,2,34,2,1,,,,,
,0.8,,,,,,,,,j.PNG,j,5d829da97f572900184a7cb1,2021-10-19_14h58.18.324,forced_choiceRT,2021.1.2,Win32,59.99880002,,,,,,,,2,Fast,j,1,1.8175,8,3,35,3,1,,,,,
,1.07,,,,,,,,,f.PNG,f,5d829da97f572900184a7cb1,2021-10-19_14h58.18.324,forced_choiceRT,2021.1.2,Win32,59.99880002,,,,,,,,2,Fast,f,1,1.7393,9,0,36,0,1,,,,,
,1.35,,,,,,,,,h.PNG,h,5d829da97f572900184a7cb1,2021-10-19_14h58.18.324,forced_choiceRT,2021.1.2,Win32,59.99880002,,,,,,,,2,Ontime,g,0,2.0679,9,1,37,2,1,,,,,
,1.4,,,,,,,,,g.PNG,g,5d829da97f572900184a7cb1,2021-10-19_14h58.18.324,forced_choiceRT,2021.1.2,Win32,59.99880002,,,,,,,,2,Ontime,g,1,2.0853,9,2,38,1,1,,,,,
,0.18,,,,,,,,,f.PNG,f,5d829da97f572900184a7cb1,2021-10-19_14h58.18.324,forced_choiceRT,2021.1.2,Win32,59.99880002,,,,,,,,2,Ontime,f,1,2.0339,9,3,39,0,1,,,,,
,,,,,,,,,,,,5d829da97f572900184a7cb1,2021-10-19_14h58.18.324,forced_choiceRT,2021.1.2,Win32,59.99880002,,,,,,,,,,,,,,,,,,1,0,1,0,1
,0.19,,,,,,,,,h.PNG,h,5d829da97f572900184a7cb1,2021-10-19_14h58.18.324,forced_choiceRT,2021.1.2,Win32,59.99880002,,,,,,,,3,Slow,h,1,2.2832,0,0,0,2,1,,,,,
,1.6,,,,,,,,,g.PNG,g,5d829da97f572900184a7cb1,2021-10-19_14h58.18.324,forced_choiceRT,2021.1.2,Win32,59.99880002,,,,,,,,3,Ontime,h,0,2.0539,0,1,1,1,1,,,,,
,0.77,,,,,,,,,h.PNG,h,5d829da97f572900184a7cb1,2021-10-19_14h58.18.324,forced_choiceRT,2021.1.2,Win32,59.99880002,,,,,,,,3,Fast,g,0,1.7214,0,2,2,2,1,,,,,
,1.48,,,,,,,,,h.PNG,h,5d829da97f572900184a7cb1,2021-10-19_14h58.18.324,forced_choiceRT,2021.1.2,Win32,59.99880002,,,,,,,,3,Slow,h,1,2.3502,0,3,3,2,1,,,,,
,0.34,,,,,,,,,j.PNG,j,5d829da97f572900184a7cb1,2021-10-19_14h58.18.324,forced_choiceRT,2021.1.2,Win32,59.99880002,,,,,,,,3,Fast,j,1,1.2353,1,0,4,3,1,,,,,
,0.05,,,,,,,,,f.PNG,f,5d829da97f572900184a7cb1,2021-10-19_14h58.18.324,forced_choiceRT,2021.1.2,Win32,59.99880002,,,,,,,,3,Fast,f,1,1.7887,1,1,5,0,1,,,,,
,1.09,,,,,,,,,j.PNG,j,5d829da97f572900184a7cb1,2021-10-19_14h58.18.324,forced_choiceRT,2021.1.2,Win32,59.99880002,,,,,,,,3,Ontime,j,1,1.9002,1,2,6,3,1,,,,,
,1.58,,,,,,,,,j.PNG,j,5d829da97f572900184a7cb1,2021-10-19_14h58.18.324,forced_choiceRT,2021.1.2,Win32,59.99880002,,,,,,,,3,Slow,j,1,2.1911,1,3,7,3,1,,,,,
,0.66,,,,,,,,,f.PNG,f,5d829da97f572900184a7cb1,2021-10-19_14h58.18.324,forced_choiceRT,2021.1.2,Win32,59.99880002,,,,,,,,3,Ontime,f,1,1.9705,2,0,8,0,1,,,,,
,0.82,,,,,,,,,j.PNG,j,5d829da97f572900184a7cb1,2021-10-19_14h58.18.324,forced_choiceRT,2021.1.2,Win32,59.99880002,,,,,,,,3,Ontime,j,1,2.0326,2,1,9,3,1,,,,,
,1.45,,,,,,,,,f.PNG,f,5d829da97f572900184a7cb1,2021-10-19_14h58.18.324,forced_choiceRT,2021.1.2,Win32,59.99880002,,,,,,,,3,Ontime,f,1,2.0495,2,2,10,0,1,,,,,
,0.99,,,,,,,,,f.PNG,f,5d829da97f572900184a7cb1,2021-10-19_14h58.18.324,forced_choiceRT,2021.1.2,Win32,59.99880002,,,,,,,,3,Slow,f,1,2.1077,2,3,11,0,1,,,,,
,1.2,,,,,,,,,f.PNG,f,5d829da97f572900184a7cb1,2021-10-19_14h58.18.324,forced_choiceRT,2021.1.2,Win32,59.99880002,,,,,,,,3,Ontime,f,1,1.9572,3,0,12,0,1,,,,,
,0.8,,,,,,,,,f.PNG,f,5d829da97f572900184a7cb1,2021-10-19_14h58.18.324,forced_choiceRT,2021.1.2,Win32,59.99880002,,,,,,,,3,Ontime,f,1,2.0407,3,1,13,0,1,,,,,
,0.32,,,,,,,,,g.PNG,g,5d829da97f572900184a7cb1,2021-10-19_14h58.18.324,forced_choiceRT,2021.1.2,Win32,59.99880002,,,,,,,,3,Slow,g,1,2.132,3,2,14,1,1,,,,,
,0,,,,,,,,,h.PNG,h,5d829da97f572900184a7cb1,2021-10-19_14h58.18.324,forced_choiceRT,2021.1.2,Win32,59.99880002,,,,,,,,3,Fast,h,1,1.7913,3,3,15,2,1,,,,,
,1.34,,,,,,,,,g.PNG,g,5d829da97f572900184a7cb1,2021-10-19_14h58.18.324,forced_choiceRT,2021.1.2,Win32,59.99880002,,,,,,,,3,Slow,g,1,2.2501,4,0,16,1,1,,,,,
,1.45,,,,,,,,,h.PNG,h,5d829da97f572900184a7cb1,2021-10-19_14h58.18.324,forced_choiceRT,2021.1.2,Win32,59.99880002,,,,,,,,3,Slow,h,1,2.2001,4,1,17,2,1,,,,,
,1.91,,,,,,,,,h.PNG,h,5d829da97f572900184a7cb1,2021-10-19_14h58.18.324,forced_choiceRT,2021.1.2,Win32,59.99880002,,,,,,,,3,Slow,g,0,2.1338,4,2,18,2,1,,,,,
,0.11,,,,,,,,,j.PNG,j,5d829da97f572900184a7cb1,2021-10-19_14h58.18.324,forced_choiceRT,2021.1.2,Win32,59.99880002,,,,,,,,3,Fast,j,1,1.818,4,3,19,3,1,,,,,
,0.76,,,,,,,,,j.PNG,j,5d829da97f572900184a7cb1,2021-10-19_14h58.18.324,forced_choiceRT,2021.1.2,Win32,59.99880002,,,,,,,,3,Fast,j,1,1.8825,5,0,20,3,1,,,,,
,1.01,,,,,,,,,g.PNG,g,5d829da97f572900184a7cb1,2021-10-19_14h58.18.324,forced_choiceRT,2021.1.2,Win32,59.99880002,,,,,,,,3,Ontime,h,0,1.903,5,1,21,1,1,,,,,
,1.96,,,,,,,,,j.PNG,j,5d829da97f572900184a7cb1,2021-10-19_14h58.18.324,forced_choiceRT,2021.1.2,Win32,59.99880002,,,,,,,,3,Slow,g,0,2.1307,5,2,22,3,1,,,,,
,0.85,,,,,,,,,g.PNG,g,5d829da97f572900184a7cb1,2021-10-19_14h58.18.324,forced_choiceRT,2021.1.2,Win32,59.99880002,,,,,,,,3,Slow,g,1,2.1121,5,3,23,1,1,,,,,
,1.78,,,,,,,,,g.PNG,g,5d829da97f572900184a7cb1,2021-10-19_14h58.18.324,forced_choiceRT,2021.1.2,Win32,59.99880002,,,,,,,,3,Slow,g,1,2.167,6,0,24,1,1,,,,,
,1.17,,,,,,,,,g.PNG,g,5d829da97f572900184a7cb1,2021-10-19_14h58.18.324,forced_choiceRT,2021.1.2,Win32,59.99880002,,,,,,,,3,Fast,g,1,1.8682,6,1,25,1,1,,,,,
,1.69,,,,,,,,,f.PNG,f,5d829da97f572900184a7cb1,2021-10-19_14h58.18.324,forced_choiceRT,2021.1.2,Win32,59.99880002,,,,,,,,3,Slow,f,1,2.2486,6,2,26,0,1,,,,,
,0.51,,,,,,,,,g.PNG,g,5d829da97f572900184a7cb1,2021-10-19_14h58.18.324,forced_choiceRT,2021.1.2,Win32,59.99880002,,,,,,,,3,Ontime,g,1,2.0457,6,3,27,1,1,,,,,
,0.14,,,,,,,,,f.PNG,f,5d829da97f572900184a7cb1,2021-10-19_14h58.18.324,forced_choiceRT,2021.1.2,Win32,59.99880002,,,,,,,,3,Fast,f,1,1.7984,7,0,28,0,1,,,,,
,1.42,,,,,,,,,h.PNG,h,5d829da97f572900184a7cb1,2021-10-19_14h58.18.324,forced_choiceRT,2021.1.2,Win32,59.99880002,,,,,,,,3,Slow,h,1,2.1445,7,1,29,2,1,,,,,
,0.24,,,,,,,,,j.PNG,j,5d829da97f572900184a7cb1,2021-10-19_14h58.18.324,forced_choiceRT,2021.1.2,Win32,59.99880002,,,,,,,,3,Ontime,h,0,2.0838,7,2,30,3,1,,,,,
,1.33,,,,,,,,,g.PNG,g,5d829da97f572900184a7cb1,2021-10-19_14h58.18.324,forced_choiceRT,2021.1.2,Win32,59.99880002,,,,,,,,3,Slow,g,1,2.1835,7,3,31,1,1,,,,,
,1.29,,,,,,,,,h.PNG,h,5d829da97f572900184a7cb1,2021-10-19_14h58.18.324,forced_choiceRT,2021.1.2,Win32,59.99880002,,,,,,,,3,Ontime,h,1,2.0006,8,0,32,2,1,,,,,
,1.81,,,,,,,,,g.PNG,g,5d829da97f572900184a7cb1,2021-10-19_14h58.18.324,forced_choiceRT,2021.1.2,Win32,59.99880002,,,,,,,,3,Slow,g,1,2.3838,8,1,33,1,1,,,,,
,1.27,,,,,,,,,f.PNG,f,5d829da97f572900184a7cb1,2021-10-19_14h58.18.324,forced_choiceRT,2021.1.2,Win32,59.99880002,,,,,,,,3,Ontime,f,1,1.9881,8,2,34,0,1,,,,,
,1.96,,,,,,,,,h.PNG,h,5d829da97f572900184a7cb1,2021-10-19_14h58.18.324,forced_choiceRT,2021.1.2,Win32,59.99880002,,,,,,,,3,Slow,h,1,2.7986,8,3,35,2,1,,,,,
,1.63,,,,,,,,,j.PNG,j,5d829da97f572900184a7cb1,2021-10-19_14h58.18.324,forced_choiceRT,2021.1.2,Win32,59.99880002,,,,,,,,3,Slow,j,1,2.2993,9,0,36,3,1,,,,,
,1.66,,,,,,,,,f.PNG,f,5d829da97f572900184a7cb1,2021-10-19_14h58.18.324,forced_choiceRT,2021.1.2,Win32,59.99880002,,,,,,,,3,Ontime,j,0,1.9842,9,1,37,0,1,,,,,
,1.25,,,,,,,,,j.PNG,j,5d829da97f572900184a7cb1,2021-10-19_14h58.18.324,forced_choiceRT,2021.1.2,Win32,59.99880002,,,,,,,,3,Ontime,j,1,1.9175,9,2,38,3,1,,,,,
,1.2,,,,,,,,,h.PNG,h,5d829da97f572900184a7cb1,2021-10-19_14h58.18.324,forced_choiceRT,2021.1.2,Win32,59.99880002,,,,,,,,3,Ontime,h,1,1.9844,9,3,39,2,1,,,,,
,,,,,,,,,,,,5d829da97f572900184a7cb1,2021-10-19_14h58.18.324,forced_choiceRT,2021.1.2,Win32,59.99880002,,,,,,,,,,,,,,,,,,2,0,2,0,1
,1.37,,,,,,,,,j.PNG,j,5d829da97f572900184a7cb1,2021-10-19_14h58.18.324,forced_choiceRT,2021.1.2,Win32,59.99880002,,,,,,,,4,Slow,j,1,2.5499,0,0,0,3,1,,,,,
,1.51,,,,,,,,,f.PNG,f,5d829da97f572900184a7cb1,2021-10-19_14h58.18.324,forced_choiceRT,2021.1.2,Win32,59.99880002,,,,,,,,4,Ontime,f,1,2.0866,0,1,1,0,1,,,,,
,1.46,,,,,,,,,j.PNG,j,5d829da97f572900184a7cb1,2021-10-19_14h58.18.324,forced_choiceRT,2021.1.2,Win32,59.99880002,,,,,,,,4,Slow,j,1,2.233,0,2,2,3,1,,,,,
,0.21,,,,,,,,,h.PNG,h,5d829da97f572900184a7cb1,2021-10-19_14h58.18.324,forced_choiceRT,2021.1.2,Win32,59.99880002,,,,,,,,4,Fast,h,1,1.0857,0,3,3,2,1,,,,,
,1.02,,,,,,,,,f.PNG,f,5d829da97f572900184a7cb1,2021-10-19_14h58.18.324,forced_choiceRT,2021.1.2,Win32,59.99880002,,,,,,,,4,Ontime,f,1,2.0832,1,0,4,0,1,,,,,
,1.96,,,,,,,,,h.PNG,h,5d829da97f572900184a7cb1,2021-10-19_14h58.18.324,forced_choiceRT,2021.1.2,Win32,59.99880002,,,,,,,,4,Slow,g,0,2.3483,1,1,5,2,1,,,,,
,1.32,,,,,,,,,f.PNG,f,5d829da97f572900184a7cb1,2021-10-19_14h58.18.324,forced_choiceRT,2021.1.2,Win32,59.99880002,,,,,,,,4,Ontime,f,1,2.0507,1,2,6,0,1,,,,,
,1.61,,,,,,,,,g.PNG,g,5d829da97f572900184a7cb1,2021-10-19_14h58.18.324,forced_choiceRT,2021.1.2,Win32,59.99880002,,,,,,,,4,Slow,g,1,2.3001,1,3,7,1,1,,,,,
,0.78,,,,,,,,,g.PNG,g,5d829da97f572900184a7cb1,2021-10-19_14h58.18.324,forced_choiceRT,2021.1.2,Win32,59.99880002,,,,,,,,4,Fast,g,1,1.8667,2,0,8,1,1,,,,,
,0.88,,,,,,,,,f.PNG,f,5d829da97f572900184a7cb1,2021-10-19_14h58.18.324,forced_choiceRT,2021.1.2,Win32,59.99880002,,,,,,,,4,Fast,f,1,1.7022,2,1,9,0,1,,,,,
,0.23,,,,,,,,,f.PNG,f,5d829da97f572900184a7cb1,2021-10-19_14h58.18.324,forced_choiceRT,2021.1.2,Win32,59.99880002,,,,,,,,4,Fast,f,1,1.8341,2,2,10,0,1,,,,,
,0.47,,,,,,,,,g.PNG,g,5d829da97f572900184a7cb1,2021-10-19_14h58.18.324,forced_choiceRT,2021.1.2,Win32,59.99880002,,,,,,,,4,Fast,g,1,1.7658,2,3,11,1,1,,,,,
,0.82,,,,,,,,,j.PNG,j,5d829da97f572900184a7cb1,2021-10-19_14h58.18.324,forced_choiceRT,2021.1.2,Win32,59.99880002,,,,,,,,4,Ontime,h,0,1.9273,3,0,12,3,1,,,,,
,1.01,,,,,,,,,j.PNG,j,5d829da97f572900184a7cb1,2021-10-19_14h58.18.324,forced_choiceRT,2021.1.2,Win32,59.99880002,,,,,,,,4,Ontime,j,1,2.0037,3,1,13,3,1,,,,,
,0.45,,,,,,,,,h.PNG,h,5d829da97f572900184a7cb1,2021-10-19_14h58.18.324,forced_choiceRT,2021.1.2,Win32,59.99880002,,,,,,,,4,Ontime,h,1,1.9622,3,2,14,2,1,,,,,
,0.44,,,,,,,,,j.PNG,j,5d829da97f572900184a7cb1,2021-10-19_14h58.18.324,forced_choiceRT,2021.1.2,Win32,59.99880002,,,,,,,,4,Fast,j,1,1.7781,3,3,15,3,1,,,,,
,1.34,,,,,,,,,j.PNG,j,5d829da97f572900184a7cb1,2021-10-19_14h58.18.324,forced_choiceRT,2021.1.2,Win32,59.99880002,,,,,,,,4,Slow,j,1,2.2343,4,0,16,3,1,,,,,
,1.62,,,,,,,,,h.PNG,h,5d829da97f572900184a7cb1,2021-10-19_14h58.18.324,forced_choiceRT,2021.1.2,Win32,59.99880002,,,,,,,,4,Ontime,j,0,2.0036,4,1,17,2,1,,,,,
,1.89,,,,,,,,,h.PNG,h,5d829da97f572900184a7cb1,2021-10-19_14h58.18.324,forced_choiceRT,2021.1.2,Win32,59.99880002,,,,,,,,4,Slow,h,1,2.2847,4,2,18,2,1,,,,,
,0.44,,,,,,,,,j.PNG,j,5d829da97f572900184a7cb1,2021-10-19_14h58.18.324,forced_choiceRT,2021.1.2,Win32,59.99880002,,,,,,,,4,Ontime,j,1,1.9687,4,3,19,3,1,,,,,
,0.53,,,,,,,,,f.PNG,f,5d829da97f572900184a7cb1,2021-10-19_14h58.18.324,forced_choiceRT,2021.1.2,Win32,59.99880002,,,,,,,,4,Fast,f,1,1.8068,5,0,20,0,1,,,,,
,1.31,,,,,,,,,j.PNG,j,5d829da97f572900184a7cb1,2021-10-19_14h58.18.324,forced_choiceRT,2021.1.2,Win32,59.99880002,,,,,,,,4,Slow,j,1,2.2209,5,1,21,3,1,,,,,
,0.49,,,,,,,,,h.PNG,h,5d829da97f572900184a7cb1,2021-10-19_14h58.18.324,forced_choiceRT,2021.1.2,Win32,59.99880002,,,,,,,,4,Ontime,h,1,1.9171,5,2,22,2,1,,,,,
,0.18,,,,,,,,,g.PNG,g,5d829da97f572900184a7cb1,2021-10-19_14h58.18.324,forced_choiceRT,2021.1.2,Win32,59.99880002,,,,,,,,4,Ontime,g,1,2.0235,5,3,23,1,1,,,,,
,0.25,,,,,,,,,j.PNG,j,5d829da97f572900184a7cb1,2021-10-19_14h58.18.324,forced_choiceRT,2021.1.2,Win32,59.99880002,,,,,,,,4,Slow,j,1,2.1549,6,0,24,3,1,,,,,
,1.62,,,,,,,,,h.PNG,h,5d829da97f572900184a7cb1,2021-10-19_14h58.18.324,forced_choiceRT,2021.1.2,Win32,59.99880002,,,,,,,,4,Slow,h,1,2.3859,6,1,25,2,1,,,,,
,0.76,,,,,,,,,g.PNG,g,5d829da97f572900184a7cb1,2021-10-19_14h58.18.324,forced_choiceRT,2021.1.2,Win32,59.99880002,,,,,,,,4,Fast,g,1,1.8542,6,2,26,1,1,,,,,
,1.06,,,,,,,,,f.PNG,f,5d829da97f572900184a7cb1,2021-10-19_14h58.18.324,forced_choiceRT,2021.1.2,Win32,59.99880002,,,,,,,,4,Fast,f,1,1.8033,6,3,27,0,1,,,,,
,0.27,,,,,,,,,g.PNG,g,5d829da97f572900184a7cb1,2021-10-19_14h58.18.324,forced_choiceRT,2021.1.2,Win32,59.99880002,,,,,,,,4,Slow,g,1,2.118,7,0,28,1,1,,,,,
,1.45,,,,,,,,,f.PNG,f,5d829da97f572900184a7cb1,2021-10-19_14h58.18.324,forced_choiceRT,2021.1.2,Win32,59.99880002,,,,,,,,4,Ontime,f,1,2.0799,7,1,29,0,1,,,,,
,0.45,,,,,,,,,h.PNG,h,5d829da97f572900184a7cb1,2021-10-19_14h58.18.324,forced_choiceRT,2021.1.2,Win32,59.99880002,,,,,,,,4,Fast,h,1,1.8196,7,2,30,2,1,,,,,
,1.84,,,,,,,,,g.PNG,g,5d829da97f572900184a7cb1,2021-10-19_14h58.18.324,forced_choiceRT,2021.1.2,Win32,59.99880002,,,,,,,,4,Slow,f,0,2.3327,7,3,31,1,1,,,,,
,0.57,,,,,,,,,g.PNG,g,5d829da97f572900184a7cb1,2021-10-19_14h58.18.324,forced_choiceRT,2021.1.2,Win32,59.99880002,,,,,,,,4,Fast,g,1,1.6166,8,0,32,1,1,,,,,
,0.7,,,,,,,,,g.PNG,g,5d829da97f572900184a7cb1,2021-10-19_14h58.18.324,forced_choiceRT,2021.1.2,Win32,59.99880002,,,,,,,,4,Fast,g,1,1.2563,8,1,33,1,1,,,,,
,0.68,,,,,,,,,f.PNG,f,5d829da97f572900184a7cb1,2021-10-19_14h58.18.324,forced_choiceRT,2021.1.2,Win32,59.99880002,,,,,,,,4,Ontime,f,1,1.957,8,2,34,0,1,,,,,
,1.01,,,,,,,,,f.PNG,f,5d829da97f572900184a7cb1,2021-10-19_14h58.18.324,forced_choiceRT,2021.1.2,Win32,59.99880002,,,,,,,,4,Fast,f,1,1.6224,8,3,35,0,1,,,,,
,0.9,,,,,,,,,j.PNG,j,5d829da97f572900184a7cb1,2021-10-19_14h58.18.324,forced_choiceRT,2021.1.2,Win32,59.99880002,,,,,,,,4,Fast,j,1,1.7496,9,0,36,3,1,,,,,
,1.13,,,,,,,,,h.PNG,h,5d829da97f572900184a7cb1,2021-10-19_14h58.18.324,forced_choiceRT,2021.1.2,Win32,59.99880002,,,,,,,,4,Ontime,h,1,1.9854,9,1,37,2,1,,,,,
,0.44,,,,,,,,,h.PNG,h,5d829da97f572900184a7cb1,2021-10-19_14h58.18.324,forced_choiceRT,2021.1.2,Win32,59.99880002,,,,,,,,4,Slow,j,0,2.1349,9,2,38,2,1,,,,,
,0.18,,,,,,,,,g.PNG,g,5d829da97f572900184a7cb1,2021-10-19_14h58.18.324,forced_choiceRT,2021.1.2,Win32,59.99880002,,,,,,,,4,Fast,j,0,1.5484,9,3,39,1,1,,,,,
,,,,,,,,,,,,5d829da97f572900184a7cb1,2021-10-19_14h58.18.324,forced_choiceRT,2021.1.2,Win32,59.99880002,,,,,,,,,,,,,,,,,,3,0,3,0,1
,0.42,,,,,,,,,g.PNG,g,5d829da97f572900184a7cb1,2021-10-19_14h58.18.324,forced_choiceRT,2021.1.2,Win32,59.99880002,,,,,,,,5,Slow,g,1,2.2219,0,0,0,1,1,,,,,
,0.94,,,,,,,,,f.PNG,f,5d829da97f572900184a7cb1,2021-10-19_14h58.18.324,forced_choiceRT,2021.1.2,Win32,59.99880002,,,,,,,,5,Ontime,f,1,1.9573,0,1,1,0,1,,,,,
,0.66,,,,,,,,,j.PNG,j,5d829da97f572900184a7cb1,2021-10-19_14h58.18.324,forced_choiceRT,2021.1.2,Win32,59.99880002,,,,,,,,5,Fast,j,1,1.5693,0,2,2,3,1,,,,,
,0.55,,,,,,,,,f.PNG,f,5d829da97f572900184a7cb1,2021-10-19_14h58.18.324,forced_choiceRT,2021.1.2,Win32,59.99880002,,,,,,,,5,Fast,f,1,1.6855,0,3,3,0,1,,,,,
,0.75,,,,,,,,,h.PNG,h,5d829da97f572900184a7cb1,2021-10-19_14h58.18.324,forced_choiceRT,2021.1.2,Win32,59.99880002,,,,,,,,5,Fast,h,1,1.6523,1,0,4,2,1,,,,,
,0.51,,,,,,,,,g.PNG,g,5d829da97f572900184a7cb1,2021-10-19_14h58.18.324,forced_choiceRT,2021.1.2,Win32,59.99880002,,,,,,,,5,Ontime,g,1,1.9354,1,1,5,1,1,,,,,
,0.44,,,,,,,,,f.PNG,f,5d829da97f572900184a7cb1,2021-10-19_14h58.18.324,forced_choiceRT,2021.1.2,Win32,59.99880002,,,,,,,,5,Ontime,f,1,2.0849,1,2,6,0,1,,,,,
,1.59,,,,,,,,,g.PNG,g,5d829da97f572900184a7cb1,2021-10-19_14h58.18.324,forced_choiceRT,2021.1.2,Win32,59.99880002,,,,,,,,5,Slow,g,1,2.267,1,3,7,1,1,,,,,
,0.9,,,,,,,,,g.PNG,g,5d829da97f572900184a7cb1,2021-10-19_14h58.18.324,forced_choiceRT,2021.1.2,Win32,59.99880002,,,,,,,,5,Ontime,g,1,2.0852,2,0,8,1,1,,,,,
,1.16,,,,,,,,,h.PNG,h,5d829da97f572900184a7cb1,2021-10-19_14h58.18.324,forced_choiceRT,2021.1.2,Win32,59.99880002,,,,,,,,5,Ontime,h,1,2.0176,2,1,9,2,1,,,,,
,0.67,,,,,,,,,f.PNG,f,5d829da97f572900184a7cb1,2021-10-19_14h58.18.324,forced_choiceRT,2021.1.2,Win32,59.99880002,,,,,,,,5,Ontime,f,1,2.0388,2,2,10,0,1,,,,,
,0.73,,,,,,,,,h.PNG,h,5d829da97f572900184a7cb1,2021-10-19_14h58.18.324,forced_choiceRT,2021.1.2,Win32,59.99880002,,,,,,,,5,Fast,h,1,1.7021,2,3,11,2,1,,,,,
,1.92,,,,,,,,,h.PNG,h,5d829da97f572900184a7cb1,2021-10-19_14h58.18.324,forced_choiceRT,2021.1.2,Win32,59.99880002,,,,,,,,5,Slow,g,0,2.4016,3,0,12,2,1,,,,,
,1.67,,,,,,,,,h.PNG,h,5d829da97f572900184a7cb1,2021-10-19_14h58.18.324,forced_choiceRT,2021.1.2,Win32,59.99880002,,,,,,,,5,Ontime,g,0,2.0856,3,1,13,2,1,,,,,
,1,,,,,,,,,g.PNG,g,5d829da97f572900184a7cb1,2021-10-19_14h58.18.324,forced_choiceRT,2021.1.2,Win32,59.99880002,,,,,,,,5,Fast,g,1,1.8508,3,2,14,1,1,,,,,
,0.93,,,,,,,,,j.PNG,j,5d829da97f572900184a7cb1,2021-10-19_14h58.18.324,forced_choiceRT,2021.1.2,Win32,59.99880002,,,,,,,,5,Slow,h,0,2.1599,3,3,15,3,1,,,,,
,0.44,,,,,,,,,f.PNG,f,5d829da97f572900184a7cb1,2021-10-19_14h58.18.324,forced_choiceRT,2021.1.2,Win32,59.99880002,,,,,,,,5,Ontime,f,1,2.0131,4,0,16,0,1,,,,,
,1.02,,,,,,,,,f.PNG,f,5d829da97f572900184a7cb1,2021-10-19_14h58.18.324,forced_choiceRT,2021.1.2,Win32,59.99880002,,,,,,,,5,Ontime,f,1,1.9947,4,1,17,0,1,,,,,
,1.32,,,,,,,,,j.PNG,j,5d829da97f572900184a7cb1,2021-10-19_14h58.18.324,forced_choiceRT,2021.1.2,Win32,59.99880002,,,,,,,,5,Ontime,j,1,2.0816,4,2,18,3,1,,,,,
,0.94,,,,,,,,,h.PNG,h,5d829da97f572900184a7cb1,2021-10-19_14h58.18.324,forced_choiceRT,2021.1.2,Win32,59.99880002,,,,,,,,5,Ontime,h,1,1.9321,4,3,19,2,1,,,,,
,1.07,,,,,,,,,h.PNG,h,5d829da97f572900184a7cb1,2021-10-19_14h58.18.324,forced_choiceRT,2021.1.2,Win32,59.99880002,,,,,,,,5,Fast,h,1,1.7428,5,0,20,2,1,,,,,
,1.11,,,,,,,,,j.PNG,j,5d829da97f572900184a7cb1,2021-10-19_14h58.18.324,forced_choiceRT,2021.1.2,Win32,59.99880002,,,,,,,,5,Fast,j,1,1.7853,5,1,21,3,1,,,,,
,1.55,,,,,,,,,j.PNG,j,5d829da97f572900184a7cb1,2021-10-19_14h58.18.324,forced_choiceRT,2021.1.2,Win32,59.99880002,,,,,,,,5,Ontime,h,0,2.0963,5,2,22,3,1,,,,,
,0.88,,,,,,,,,g.PNG,g,5d829da97f572900184a7cb1,2021-10-19_14h58.18.324,forced_choiceRT,2021.1.2,Win32,59.99880002,,,,,,,,5,Ontime,g,1,2.0461,5,3,23,1,1,,,,,
,0.62,,,,,,,,,j.PNG,j,5d829da97f572900184a7cb1,2021-10-19_14h58.18.324,forced_choiceRT,2021.1.2,Win32,59.99880002,,,,,,,,5,Ontime,j,1,2.0999,6,0,24,3,1,,,,,
,0.16,,,,,,,,,f.PNG,f,5d829da97f572900184a7cb1,2021-10-19_14h58.18.324,forced_choiceRT,2021.1.2,Win32,59.99880002,,,,,,,,5,Ontime,f,1,1.9651,6,1,25,0,1,,,,,
,0.55,,,,,,,,,f.PNG,f,5d829da97f572900184a7cb1,2021-10-19_14h58.18.324,forced_choiceRT,2021.1.2,Win32,59.99880002,,,,,,,,5,Ontime,f,1,2.0176,6,2,26,0,1,,,,,
,0.1,,,,,,,,,g.PNG,g,5d829da97f572900184a7cb1,2021-10-19_14h58.18.324,forced_choiceRT,2021.1.2,Win32,59.99880002,,,,,,,,5,Ontime,g,1,2.0002,6,3,27,1,1,,,,,
,0.04,,,,,,,,,j.PNG,j,5d829da97f572900184a7cb1,2021-10-19_14h58.18.324,forced_choiceRT,2021.1.2,Win32,59.99880002,,,,,,,,5,Fast,j,1,1.8009,7,0,28,3,1,,,,,
,0.68,,,,,,,,,g.PNG,g,5d829da97f572900184a7cb1,2021-10-19_14h58.18.324,forced_choiceRT,2021.1.2,Win32,59.99880002,,,,,,,,5,Ontime,g,1,1.9185,7,1,29,1,1,,,,,
,1.42,,,,,,,,,h.PNG,h,5d829da97f572900184a7cb1,2021-10-19_14h58.18.324,forced_choiceRT,2021.1.2,Win32,59.99880002,,,,,,,,5,Slow,h,1,2.2237,7,2,30,2,1,,,,,
,1.74,,,,,,,,,g.PNG,g,5d829da97f572900184a7cb1,2021-10-19_14h58.18.324,forced_choiceRT,2021.1.2,Win32,59.99880002,,,,,,,,5,Slow,g,1,2.3404,7,3,31,1,1,,,,,
,0.15,,,,,,,,,h.PNG,h,5d829da97f572900184a7cb1,2021-10-19_14h58.18.324,forced_choiceRT,2021.1.2,Win32,59.99880002,,,,,,,,5,Ontime,h,1,1.9816,8,0,32,2,1,,,,,
,0.25,,,,,,,,,j.PNG,j,5d829da97f572900184a7cb1,2021-10-19_14h58.18.324,forced_choiceRT,2021.1.2,Win32,59.99880002,,,,,,,,5,Slow,j,1,2.1683,8,1,33,3,1,,,,,
,1.78,,,,,,,,,g.PNG,g,5d829da97f572900184a7cb1,2021-10-19_14h58.18.324,forced_choiceRT,2021.1.2,Win32,59.99880002,,,,,,,,5,Slow,j,0,2.2678,8,2,34,1,1,,,,,
,1.71,,,,,,,,,f.PNG,f,5d829da97f572900184a7cb1,2021-10-19_14h58.18.324,forced_choiceRT,2021.1.2,Win32,59.99880002,,,,,,,,5,Slow,f,1,3.3651,8,3,35,0,1,,,,,
,0.57,,,,,,,,,f.PNG,f,5d829da97f572900184a7cb1,2021-10-19_14h58.18.324,forced_choiceRT,2021.1.2,Win32,59.99880002,,,,,,,,5,Ontime,f,1,1.9881,9,0,36,0,1,,,,,
,0.87,,,,,,,,,j.PNG,j,5d829da97f572900184a7cb1,2021-10-19_14h58.18.324,forced_choiceRT,2021.1.2,Win32,59.99880002,,,,,,,,5,Fast,j,1,1.8343,9,1,37,3,1,,,,,
,1.77,,,,,,,,,j.PNG,j,5d829da97f572900184a7cb1,2021-10-19_14h58.18.324,forced_choiceRT,2021.1.2,Win32,59.99880002,,,,,,,,5,Slow,h,0,2.1501,9,2,38,3,1,,,,,
,1.67,,,,,,,,,h.PNG,h,5d829da97f572900184a7cb1,2021-10-19_14h58.18.324,forced_choiceRT,2021.1.2,Win32,59.99880002,,,,,,,,5,Slow,h,1,2.302,9,3,39,2,1,,,,,
,,,,,,,,,,,,5d829da97f572900184a7cb1,2021-10-19_14h58.18.324,forced_choiceRT,2021.1.2,Win32,59.99880002,,,,,,,,,,,,,,,,,,4,0,4,0,1
,0.97,,,,,,,,,j.PNG,j,5d829da97f572900184a7cb1,2021-10-19_14h58.18.324,forced_choiceRT,2021.1.2,Win32,59.99880002,,,,,,,,6,Slow,j,1,2.1033,0,0,0,3,1,,,,,
,0.97,,,,,,,,,h.PNG,h,5d829da97f572900184a7cb1,2021-10-19_14h58.18.324,forced_choiceRT,2021.1.2,Win32,59.99880002,,,,,,,,6,Fast,h,1,1.7487,0,1,1,2,1,,,,,
,1.93,,,,,,,,,g.PNG,g,5d829da97f572900184a7cb1,2021-10-19_14h58.18.324,forced_choiceRT,2021.1.2,Win32,59.99880002,,,,,,,,6,Slow,g,1,2.8349,0,2,2,1,1,,,,,
,1.19,,,,,,,,,f.PNG,f,5d829da97f572900184a7cb1,2021-10-19_14h58.18.324,forced_choiceRT,2021.1.2,Win32,59.99880002,,,,,,,,6,Ontime,f,1,1.9839,0,3,3,0,1,,,,,
,1.62,,,,,,,,,g.PNG,g,5d829da97f572900184a7cb1,2021-10-19_14h58.18.324,forced_choiceRT,2021.1.2,Win32,59.99880002,,,,,,,,6,Slow,h,0,2.1399,1,0,4,1,1,,,,,
,1.67,,,,,,,,,j.PNG,j,5d829da97f572900184a7cb1,2021-10-19_14h58.18.324,forced_choiceRT,2021.1.2,Win32,59.99880002,,,,,,,,6,Ontime,h,0,2.0386,1,1,5,3,1,,,,,
,0.14,,,,,,,,,j.PNG,j,5d829da97f572900184a7cb1,2021-10-19_14h58.18.324,forced_choiceRT,2021.1.2,Win32,59.99880002,,,,,,,,6,Fast,j,1,0.707,1,2,6,3,1,,,,,
,0.16,,,,,,,,,g.PNG,g,5d829da97f572900184a7cb1,2021-10-19_14h58.18.324,forced_choiceRT,2021.1.2,Win32,59.99880002,,,,,,,,6,Ontime,g,1,1.9189,1,3,7,1,1,,,,,
,0.81,,,,,,,,,f.PNG,f,5d829da97f572900184a7cb1,2021-10-19_14h58.18.324,forced_choiceRT,2021.1.2,Win32,59.99880002,,,,,,,,6,Fast,f,1,1.7179,2,0,8,0,1,,,,,
,0.6,,,,,,,,,g.PNG,g,5d829da97f572900184a7cb1,2021-10-19_14h58.18.324,forced_choiceRT,2021.1.2,Win32,59.99880002,,,,,,,,6,Fast,g,1,1.8579,2,1,9,1,1,,,,,
,1.82,,,,,,,,,h.PNG,h,5d829da97f572900184a7cb1,2021-10-19_14h58.18.324,forced_choiceRT,2021.1.2,Win32,59.99880002,,,,,,,,6,Slow,h,1,2.7368,2,2,10,2,1,,,,,
,1.92,,,,,,,,,h.PNG,h,5d829da97f572900184a7cb1,2021-10-19_14h58.18.324,forced_choiceRT,2021.1.2,Win32,59.99880002,,,,,,,,6,Slow,h,1,2.6001,2,3,11,2,1,,,,,
,0.07,,,,,,,,,j.PNG,j,5d829da97f572900184a7cb1,2021-10-19_14h58.18.324,forced_choiceRT,2021.1.2,Win32,59.99880002,,,,,,,,6,Fast,j,1,0.7514,3,0,12,3,1,,,,,
,1.89,,,,,,,,,j.PNG,j,5d829da97f572900184a7cb1,2021-10-19_14h58.18.324,forced_choiceRT,2021.1.2,Win32,59.99880002,,,,,,,,6,Slow,j,1,2.5352,3,1,13,3,1,,,,,
,1.45,,,,,,,,,j.PNG,j,5d829da97f572900184a7cb1,2021-10-19_14h58.18.324,forced_choiceRT,2021.1.2,Win32,59.99880002,,,,,,,,6,Slow,j,1,2.1702,3,2,14,3,1,,,,,
,0.02,,,,,,,,,f.PNG,f,5d829da97f572900184a7cb1,2021-10-19_14h58.18.324,forced_choiceRT,2021.1.2,Win32,59.99880002,,,,,,,,6,Fast,f,1,1.8323,3,3,15,0,1,,,,,
,1.64,,,,,,,,,g.PNG,g,5d829da97f572900184a7cb1,2021-10-19_14h58.18.324,forced_choiceRT,2021.1.2,Win32,59.99880002,,,,,,,,6,Slow,g,1,2.3978,4,0,16,1,1,,,,,
,0.11,,,,,,,,,j.PNG,j,5d829da97f572900184a7cb1,2021-10-19_14h58.18.324,forced_choiceRT,2021.1.2,Win32,59.99880002,,,,,,,,6,Fast,j,1,1.7811,4,1,17,3,1,,,,,
,1.28,,,,,,,,,h.PNG,h,5d829da97f572900184a7cb1,2021-10-19_14h58.18.324,forced_choiceRT,2021.1.2,Win32,59.99880002,,,,,,,,6,Ontime,h,1,1.9674,4,2,18,2,1,,,,,
,0.58,,,,,,,,,j.PNG,j,5d829da97f572900184a7cb1,2021-10-19_14h58.18.324,forced_choiceRT,2021.1.2,Win32,59.99880002,,,,,,,,6,Fast,j,1,1.5225,4,3,19,3,1,,,,,
,0.62,,,,,,,,,h.PNG,h,5d829da97f572900184a7cb1,2021-10-19_14h58.18.324,forced_choiceRT,2021.1.2,Win32,59.99880002,,,,,,,,6,Ontime,h,1,1.9171,5,0,20,2,1,,,,,
,1.82,,,,,,,,,f.PNG,f,5d829da97f572900184a7cb1,2021-10-19_14h58.18.324,forced_choiceRT,2021.1.2,Win32,59.99880002,,,,,,,,6,Slow,f,1,2.6653,5,1,21,0,1,,,,,
,1.67,,,,,,,,,f.PNG,f,5d829da97f572900184a7cb1,2021-10-19_14h58.18.324,forced_choiceRT,2021.1.2,Win32,59.99880002,,,,,,,,6,Slow,f,1,2.366,5,2,22,0,1,,,,,
,0.11,,,,,,,,,h.PNG,h,5d829da97f572900184a7cb1,2021-10-19_14h58.18.324,forced_choiceRT,2021.1.2,Win32,59.99880002,,,,,,,,6,Fast,h,1,1.6221,5,3,23,2,1,,,,,
,0.23,,,,,,,,,f.PNG,f,5d829da97f572900184a7cb1,2021-10-19_14h58.18.324,forced_choiceRT,2021.1.2,Win32,59.99880002,,,,,,,,6,Ontime,f,1,1.9992,6,0,24,0,1,,,,,
,1.41,,,,,,,,,h.PNG,h,5d829da97f572900184a7cb1,2021-10-19_14h58.18.324,forced_choiceRT,2021.1.2,Win32,59.99880002,,,,,,,,6,Ontime,h,1,2.0325,6,1,25,2,1,,,,,
,1.69,,,,,,,,,f.PNG,f,5d829da97f572900184a7cb1,2021-10-19_14h58.18.324,forced_choiceRT,2021.1.2,Win32,59.99880002,,,,,,,,6,Ontime,h,0,2.0858,6,2,26,0,1,,,,,
,0.55,,,,,,,,,g.PNG,g,5d829da97f572900184a7cb1,2021-10-19_14h58.18.324,forced_choiceRT,2021.1.2,Win32,59.99880002,,,,,,,,6,Ontime,g,1,2.0342,6,3,27,1,1,,,,,
,1.26,,,,,,,,,g.PNG,g,5d829da97f572900184a7cb1,2021-10-19_14h58.18.324,forced_choiceRT,2021.1.2,Win32,59.99880002,,,,,,,,6,Ontime,g,1,1.9856,7,0,28,1,1,,,,,
,1.48,,,,,,,,,h.PNG,h,5d829da97f572900184a7cb1,2021-10-19_14h58.18.324,forced_choiceRT,2021.1.2,Win32,59.99880002,,,,,,,,6,Ontime,h,1,2.052,7,1,29,2,1,,,,,
,1.26,,,,,,,,,h.PNG,h,5d829da97f572900184a7cb1,2021-10-19_14h58.18.324,forced_choiceRT,2021.1.2,Win32,59.99880002,,,,,,,,6,Ontime,h,1,1.9508,7,2,30,2,1,,,,,
,0.93,,,,,,,,,j.PNG,j,5d829da97f572900184a7cb1,2021-10-19_14h58.18.324,forced_choiceRT,2021.1.2,Win32,59.99880002,,,,,,,,6,Ontime,j,1,1.9673,7,3,31,3,1,,,,,
,0,,,,,,,,,g.PNG,g,5d829da97f572900184a7cb1,2021-10-19_14h58.18.324,forced_choiceRT,2021.1.2,Win32,59.99880002,,,,,,,,6,Ontime,g,1,2.0685,8,0,32,1,1,,,,,
,1.36,,,,,,,,,f.PNG,f,5d829da97f572900184a7cb1,2021-10-19_14h58.18.324,forced_choiceRT,2021.1.2,Win32,59.99880002,,,,,,,,6,Ontime,f,1,2.087,8,1,33,0,1,,,,,
,0.09,,,,,,,,,f.PNG,f,5d829da97f572900184a7cb1,2021-10-19_14h58.18.324,forced_choiceRT,2021.1.2,Win32,59.99880002,,,,,,,,6,Fast,f,1,1.8622,8,2,34,0,1,,,,,
,1.02,,,,,,,,,j.PNG,j,5d829da97f572900184a7cb1,2021-10-19_14h58.18.324,forced_choiceRT,2021.1.2,Win32,59.99880002,,,,,,,,6,Ontime,j,1,1.9493,8,3,35,3,1,,,,,
,0.22,,,,,,,,,f.PNG,f,5d829da97f572900184a7cb1,2021-10-19_14h58.18.324,forced_choiceRT,2021.1.2,Win32,59.99880002,,,,,,,,6,Fast,f,1,1.8516,9,0,36,0,1,,,,,
,1.27,,,,,,,,,g.PNG,g,5d829da97f572900184a7cb1,2021-10-19_14h58.18.324,forced_choiceRT,2021.1.2,Win32,59.99880002,,,,,,,,6,Ontime,g,1,1.9667,9,1,37,1,1,,,,,
,0.78,,,,,,,,,h.PNG,h,5d829da97f572900184a7cb1,2021-10-19_14h58.18.324,forced_choiceRT,2021.1.2,Win32,59.99880002,,,,,,,,6,Slow,h,1,2.1848,9,2,38,2,1,,,,,
,1.77,,,,,,,,,g.PNG,g,5d829da97f572900184a7cb1,2021-10-19_14h58.18.324,forced_choiceRT,2021.1.2,Win32,59.99880002,,,,,,,,6,Slow,h,0,2.121,9,3,39,1,1,,,,,
,,,,,,,,,,,,5d829da97f572900184a7cb1,2021-10-19_14h58.18.324,forced_choiceRT,2021.1.2,Win32,59.99880002,,,,,,,,,,,,,,,,,,5,0,5,0,1
,1.53,,,,,,,,,h.PNG,h,5d829da97f572900184a7cb1,2021-10-19_14h58.18.324,forced_choiceRT,2021.1.2,Win32,59.99880002,,,,,,,,7,Slow,h,1,2.2283,0,0,0,2,1,,,,,
,0.04,,,,,,,,,g.PNG,g,5d829da97f572900184a7cb1,2021-10-19_14h58.18.324,forced_choiceRT,2021.1.2,Win32,59.99880002,,,,,,,,7,Fast,g,1,1.6753,0,1,1,1,1,,,,,
,1.68,,,,,,,,,g.PNG,g,5d829da97f572900184a7cb1,2021-10-19_14h58.18.324,forced_choiceRT,2021.1.2,Win32,59.99880002,,,,,,,,7,Slow,g,1,2.368,0,2,2,1,1,,,,,
,0.08,,,,,,,,,j.PNG,j,5d829da97f572900184a7cb1,2021-10-19_14h58.18.324,forced_choiceRT,2021.1.2,Win32,59.99880002,,,,,,,,7,Fast,j,1,1.864,0,3,3,3,1,,,,,
,1.78,,,,,,,,,h.PNG,h,5d829da97f572900184a7cb1,2021-10-19_14h58.18.324,forced_choiceRT,2021.1.2,Win32,59.99880002,,,,,,,,7,Slow,j,0,2.118,1,0,4,2,1,,,,,
,1.19,,,,,,,,,h.PNG,h,5d829da97f572900184a7cb1,2021-10-19_14h58.18.324,forced_choiceRT,2021.1.2,Win32,59.99880002,,,,,,,,7,Ontime,h,1,2.0054,1,1,5,2,1,,,,,
,0.76,,,,,,,,,g.PNG,g,5d829da97f572900184a7cb1,2021-10-19_14h58.18.324,forced_choiceRT,2021.1.2,Win32,59.99880002,,,,,,,,7,Ontime,g,1,1.9324,1,2,6,1,1,,,,,
,0.55,,,,,,,,,h.PNG,h,5d829da97f572900184a7cb1,2021-10-19_14h58.18.324,forced_choiceRT,2021.1.2,Win32,59.99880002,,,,,,,,7,Ontime,h,1,2.019,1,3,7,2,1,,,,,
,0.12,,,,,,,,,f.PNG,f,5d829da97f572900184a7cb1,2021-10-19_14h58.18.324,forced_choiceRT,2021.1.2,Win32,59.99880002,,,,,,,,7,Fast,f,1,1.8836,2,0,8,0,1,,,,,
,0.58,,,,,,,,,h.PNG,h,5d829da97f572900184a7cb1,2021-10-19_14h58.18.324,forced_choiceRT,2021.1.2,Win32,59.99880002,,,,,,,,7,Ontime,h,1,2.0159,2,1,9,2,1,,,,,
,0.85,,,,,,,,,j.PNG,j,5d829da97f572900184a7cb1,2021-10-19_14h58.18.324,forced_choiceRT,2021.1.2,Win32,59.99880002,,,,,,,,7,Slow,j,1,2.1531,2,2,10,3,1,,,,,
,0.79,,,,,,,,,f.PNG,f,5d829da97f572900184a7cb1,2021-10-19_14h58.18.324,forced_choiceRT,2021.1.2,Win32,59.99880002,,,,,,,,7,Ontime,f,1,1.984,2,3,11,0,1,,,,,
,1.2,,,,,,,,,f.PNG,f,5d829da97f572900184a7cb1,2021-10-19_14h58.18.324,forced_choiceRT,2021.1.2,Win32,59.99880002,,,,,,,,7,Slow,f,1,2.1361,3,0,12,0,1,,,,,
,0.91,,,,,,,,,g.PNG,g,5d829da97f572900184a7cb1,2021-10-19_14h58.18.324,forced_choiceRT,2021.1.2,Win32,59.99880002,,,,,,,,7,Slow,g,1,2.1003,3,1,13,1,1,,,,,
,0.25,,,,,,,,,f.PNG,f,5d829da97f572900184a7cb1,2021-10-19_14h58.18.324,forced_choiceRT,2021.1.2,Win32,59.99880002,,,,,,,,7,Ontime,f,1,1.9737,3,2,14,0,1,,,,,
,1.03,,,,,,,,,f.PNG,f,5d829da97f572900184a7cb1,2021-10-19_14h58.18.324,forced_choiceRT,2021.1.2,Win32,59.99880002,,,,,,,,7,Ontime,f,1,2.0023,3,3,15,0,1,,,,,
,0.12,,,,,,,,,h.PNG,h,5d829da97f572900184a7cb1,2021-10-19_14h58.18.324,forced_choiceRT,2021.1.2,Win32,59.99880002,,,,,,,,7,Ontime,h,1,1.9732,4,0,16,2,1,,,,,
,1.56,,,,,,,,,j.PNG,j,5d829da97f572900184a7cb1,2021-10-19_14h58.18.324,forced_choiceRT,2021.1.2,Win32,59.99880002,,,,,,,,7,Slow,j,1,2.2378,4,1,17,3,1,,,,,
,0.25,,,,,,,,,j.PNG,j,5d829da97f572900184a7cb1,2021-10-19_14h58.18.324,forced_choiceRT,2021.1.2,Win32,59.99880002,,,,,,,,7,Ontime,j,1,2.0849,4,2,18,3,1,,,,,
,1.12,,,,,,,,,h.PNG,h,5d829da97f572900184a7cb1,2021-10-19_14h58.18.324,forced_choiceRT,2021.1.2,Win32,59.99880002,,,,,,,,7,Ontime,h,1,2.0189,4,3,19,2,1,,,,,
,0.94,,,,,,,,,h.PNG,h,5d829da97f572900184a7cb1,2021-10-19_14h58.18.324,forced_choiceRT,2021.1.2,Win32,59.99880002,,,,,,,,7,Slow,h,1,2.1171,5,0,20,2,1,,,,,
,1.99,,,,,,,,,j.PNG,j,5d829da97f572900184a7cb1,2021-10-19_14h58.18.324,forced_choiceRT,2021.1.2,Win32,59.99880002,,,,,,,,7,Slow,h,0,2.3266,5,1,21,3,1,,,,,
,1.08,,,,,,,,,j.PNG,j,5d829da97f572900184a7cb1,2021-10-19_14h58.18.324,forced_choiceRT,2021.1.2,Win32,59.99880002,,,,,,,,7,Slow,j,1,2.1832,5,2,22,3,1,,,,,
,0.05,,,,,,,,,f.PNG,f,5d829da97f572900184a7cb1,2021-10-19_14h58.18.324,forced_choiceRT,2021.1.2,Win32,59.99880002,,,,,,,,7,Fast,f,1,1.8499,5,3,23,0,1,,,,,
,1.76,,,,,,,,,g.PNG,g,5d829da97f572900184a7cb1,2021-10-19_14h58.18.324,forced_choiceRT,2021.1.2,Win32,59.99880002,,,,,,,,7,Slow,g,1,2.2861,6,0,24,1,1,,,,,
,0.24,,,,,,,,,g.PNG,g,5d829da97f572900184a7cb1,2021-10-19_14h58.18.324,forced_choiceRT,2021.1.2,Win32,59.99880002,,,,,,,,7,Ontime,g,1,1.9955,6,1,25,1,1,,,,,
,0.77,,,,,,,,,j.PNG,j,5d829da97f572900184a7cb1,2021-10-19_14h58.18.324,forced_choiceRT,2021.1.2,Win32,59.99880002,,,,,,,,7,Ontime,j,1,1.9017,6,2,26,3,1,,,,,
,1.86,,,,,,,,,g.PNG,g,5d829da97f572900184a7cb1,2021-10-19_14h58.18.324,forced_choiceRT,2021.1.2,Win32,59.99880002,,,,,,,,7,Slow,j,0,2.2005,6,3,27,1,1,,,,,
,1.23,,,,,,,,,j.PNG,j,5d829da97f572900184a7cb1,2021-10-19_14h58.18.324,forced_choiceRT,2021.1.2,Win32,59.99880002,,,,,,,,7,Fast,h,0,1.7884,7,0,28,3,1,,,,,
,1.57,,,,,,,,,f.PNG,f,5d829da97f572900184a7cb1,2021-10-19_14h58.18.324,forced_choiceRT,2021.1.2,Win32,59.99880002,,,,,,,,7,Slow,f,1,2.3375,7,1,29,0,1,,,,,
,0.97,,,,,,,,,f.PNG,f,5d829da97f572900184a7cb1,2021-10-19_14h58.18.324,forced_choiceRT,2021.1.2,Win32,59.99880002,,,,,,,,7,Fast,f,1,1.8003,7,2,30,0,1,,,,,
,1.71,,,,,,,,,h.PNG,h,5d829da97f572900184a7cb1,2021-10-19_14h58.18.324,forced_choiceRT,2021.1.2,Win32,59.99880002,,,,,,,,7,Ontime,h,1,2.0839,7,3,31,2,1,,,,,
,1.66,,,,,,,,,g.PNG,g,5d829da97f572900184a7cb1,2021-10-19_14h58.18.324,forced_choiceRT,2021.1.2,Win32,59.99880002,,,,,,,,7,Slow,h,0,2.2,8,0,32,1,1,,,,,
,1.6,,,,,,,,,f.PNG,f,5d829da97f572900184a7cb1,2021-10-19_14h58.18.324,forced_choiceRT,2021.1.2,Win32,59.99880002,,,,,,,,7,Slow,f,1,2.2883,8,1,33,0,1,,,,,
,1.33,,,,,,,,,h.PNG,h,5d829da97f572900184a7cb1,2021-10-19_14h58.18.324,forced_choiceRT,2021.1.2,Win32,59.99880002,,,,,,,,7,Ontime,h,1,1.9173,8,2,34,2,1,,,,,
,0.15,,,,,,,,,j.PNG,j,5d829da97f572900184a7cb1,2021-10-19_14h58.18.324,forced_choiceRT,2021.1.2,Win32,59.99880002,,,,,,,,7,Fast,j,1,1.7998,8,3,35,3,1,,,,,
,0.97,,,,,,,,,g.PNG,g,5d829da97f572900184a7cb1,2021-10-19_14h58.18.324,forced_choiceRT,2021.1.2,Win32,59.99880002,,,,,,,,7,Fast,g,1,1.8364,9,0,36,1,1,,,,,
,1.85,,,,,,,,,g.PNG,g,5d829da97f572900184a7cb1,2021-10-19_14h58.18.324,forced_choiceRT,2021.1.2,Win32,59.99880002,,,,,,,,7,Slow,g,1,2.5904,9,1,37,1,1,,,,,
,1.37,,,,,,,,,j.PNG,j,5d829da97f572900184a7cb1,2021-10-19_14h58.18.324,forced_choiceRT,2021.1.2,Win32,59.99880002,,,,,,,,7,Ontime,j,1,1.9961,9,2,38,3,1,,,,,
,1.52,,,,,,,,,f.PNG,f,5d829da97f572900184a7cb1,2021-10-19_14h58.18.324,forced_choiceRT,2021.1.2,Win32,59.99880002,,,,,,,,7,Fast,h,0,1.8954,9,3,39,0,1,,,,,
,,,,,,,,,,,,5d829da97f572900184a7cb1,2021-10-19_14h58.18.324,forced_choiceRT,2021.1.2,Win32,59.99880002,,,,,,,,,,,,,,,,,,6,0,6,0,1
,0.53,,,,,,,,,j.PNG,j,5d829da97f572900184a7cb1,2021-10-19_14h58.18.324,forced_choiceRT,2021.1.2,Win32,59.99880002,,,,,,,,8,Fast,j,1,1.8551,0,0,0,3,1,,,,,
,0.99,,,,,,,,,f.PNG,f,5d829da97f572900184a7cb1,2021-10-19_14h58.18.324,forced_choiceRT,2021.1.2,Win32,59.99880002,,,,,,,,8,Fast,f,1,1.7509,0,1,1,0,1,,,,,
,0.41,,,,,,,,,f.PNG,f,5d829da97f572900184a7cb1,2021-10-19_14h58.18.324,forced_choiceRT,2021.1.2,Win32,59.99880002,,,,,,,,8,Fast,f,1,1.8341,0,2,2,0,1,,,,,
,1.59,,,,,,,,,h.PNG,h,5d829da97f572900184a7cb1,2021-10-19_14h58.18.324,forced_choiceRT,2021.1.2,Win32,59.99880002,,,,,,,,8,Slow,h,1,2.2697,0,3,3,2,1,,,,,
,0.9,,,,,,,,,g.PNG,g,5d829da97f572900184a7cb1,2021-10-19_14h58.18.324,forced_choiceRT,2021.1.2,Win32,59.99880002,,,,,,,,8,Fast,g,1,1.8172,1,0,4,1,1,,,,,
,1.43,,,,,,,,,g.PNG,g,5d829da97f572900184a7cb1,2021-10-19_14h58.18.324,forced_choiceRT,2021.1.2,Win32,59.99880002,,,,,,,,8,Ontime,j,0,2.0498,1,1,5,1,1,,,,,
,1.65,,,,,,,,,j.PNG,j,5d829da97f572900184a7cb1,2021-10-19_14h58.18.324,forced_choiceRT,2021.1.2,Win32,59.99880002,,,,,,,,8,Slow,j,1,2.2664,1,2,6,3,1,,,,,
,1.02,,,,,,,,,j.PNG,j,5d829da97f572900184a7cb1,2021-10-19_14h58.18.324,forced_choiceRT,2021.1.2,Win32,59.99880002,,,,,,,,8,Fast,j,1,1.6295,1,3,7,3,1,,,,,
,0.09,,,,,,,,,g.PNG,g,5d829da97f572900184a7cb1,2021-10-19_14h58.18.324,forced_choiceRT,2021.1.2,Win32,59.99880002,,,,,,,,8,Ontime,g,1,2.0189,2,0,8,1,1,,,,,
,0.63,,,,,,,,,j.PNG,j,5d829da97f572900184a7cb1,2021-10-19_14h58.18.324,forced_choiceRT,2021.1.2,Win32,59.99880002,,,,,,,,8,Ontime,j,1,1.9003,2,1,9,3,1,,,,,
,0.48,,,,,,,,,f.PNG,f,5d829da97f572900184a7cb1,2021-10-19_14h58.18.324,forced_choiceRT,2021.1.2,Win32,59.99880002,,,,,,,,8,Fast,f,1,1.7996,2,2,10,0,1,,,,,
,1.6,,,,,,,,,h.PNG,h,5d829da97f572900184a7cb1,2021-10-19_14h58.18.324,forced_choiceRT,2021.1.2,Win32,59.99880002,,,,,,,,8,Slow,h,1,2.1651,2,3,11,2,1,,,,,
,1.05,,,,,,,,,f.PNG,f,5d829da97f572900184a7cb1,2021-10-19_14h58.18.324,forced_choiceRT,2021.1.2,Win32,59.99880002,,,,,,,,8,Fast,f,1,1.7354,3,0,12,0,1,,,,,
,0.08,,,,,,,,,j.PNG,j,5d829da97f572900184a7cb1,2021-10-19_14h58.18.324,forced_choiceRT,2021.1.2,Win32,59.99880002,,,,,,,,8,Fast,j,1,1.4348,3,1,13,3,1,,,,,
,0.79,,,,,,,,,f.PNG,f,5d829da97f572900184a7cb1,2021-10-19_14h58.18.324,forced_choiceRT,2021.1.2,Win32,59.99880002,,,,,,,,8,Fast,f,1,1.8783,3,2,14,0,1,,,,,
,0.8,,,,,,,,,h.PNG,h,5d829da97f572900184a7cb1,2021-10-19_14h58.18.324,forced_choiceRT,2021.1.2,Win32,59.99880002,,,,,,,,8,Ontime,h,1,2.0009,3,3,15,2,1,,,,,
,1.07,,,,,,,,,h.PNG,h,5d829da97f572900184a7cb1,2021-10-19_14h58.18.324,forced_choiceRT,2021.1.2,Win32,59.99880002,,,,,,,,8,Ontime,h,1,1.9397,4,0,16,2,1,,,,,
,1.88,,,,,,,,,h.PNG,h,5d829da97f572900184a7cb1,2021-10-19_14h58.18.324,forced_choiceRT,2021.1.2,Win32,59.99880002,,,,,,,,8,Slow,h,1,2.4191,4,1,17,2,1,,,,,
,0.58,,,,,,,,,g.PNG,g,5d829da97f572900184a7cb1,2021-10-19_14h58.18.324,forced_choiceRT,2021.1.2,Win32,59.99880002,,,,,,,,8,Ontime,g,1,2.0228,4,2,18,1,1,,,,,
,1.76,,,,,,,,,j.PNG,j,5d829da97f572900184a7cb1,2021-10-19_14h58.18.324,forced_choiceRT,2021.1.2,Win32,59.99880002,,,,,,,,8,Ontime,h,0,2.0543,4,3,19,3,1,,,,,
,0.82,,,,,,,,,j.PNG,j,5d829da97f572900184a7cb1,2021-10-19_14h58.18.324,forced_choiceRT,2021.1.2,Win32,59.99880002,,,,,,,,8,Fast,j,1,1.7727,5,0,20,3,1,,,,,
,0.83,,,,,,,,,h.PNG,h,5d829da97f572900184a7cb1,2021-10-19_14h58.18.324,forced_choiceRT,2021.1.2,Win32,59.99880002,,,,,,,,8,Fast,h,1,1.8831,5,1,21,2,1,,,,,
,1.89,,,,,,,,,g.PNG,g,5d829da97f572900184a7cb1,2021-10-19_14h58.18.324,forced_choiceRT,2021.1.2,Win32,59.99880002,,,,,,,,8,Slow,g,1,2.5208,5,2,22,1,1,,,,,
,0.04,,,,,,,,,f.PNG,f,5d829da97f572900184a7cb1,2021-10-19_14h58.18.324,forced_choiceRT,2021.1.2,Win32,59.99880002,,,,,,,,8,Ontime,f,1,2.0184,5,3,23,0,1,,,,,
,0.99,,,,,,,,,f.PNG,f,5d829da97f572900184a7cb1,2021-10-19_14h58.18.324,forced_choiceRT,2021.1.2,Win32,59.99880002,,,,,,,,8,Fast,f,1,1.7375,6,0,24,0,1,,,,,
,1.21,,,,,,,,,h.PNG,h,5d829da97f572900184a7cb1,2021-10-19_14h58.18.324,forced_choiceRT,2021.1.2,Win32,59.99880002,,,,,,,,8,Fast,h,1,1.8481,6,1,25,2,1,,,,,
,0.85,,,,,,,,,g.PNG,g,5d829da97f572900184a7cb1,2021-10-19_14h58.18.324,forced_choiceRT,2021.1.2,Win32,59.99880002,,,,,,,,8,Fast,g,1,1.7008,6,2,26,1,1,,,,,
,0.55,,,,,,,,,f.PNG,f,5d829da97f572900184a7cb1,2021-10-19_14h58.18.324,forced_choiceRT,2021.1.2,Win32,59.99880002,,,,,,,,8,Slow,f,1,2.2158,6,3,27,0,1,,,,,
,1.89,,,,,,,,,j.PNG,j,5d829da97f572900184a7cb1,2021-10-19_14h58.18.324,forced_choiceRT,2021.1.2,Win32,59.99880002,,,,,,,,8,Slow,j,1,2.5341,7,0,28,3,1,,,,,
,0.81,,,,,,,,,h.PNG,h,5d829da97f572900184a7cb1,2021-10-19_14h58.18.324,forced_choiceRT,2021.1.2,Win32,59.99880002,,,,,,,,8,Fast,h,1,1.5372,7,1,29,2,1,,,,,
,1.58,,,,,,,,,g.PNG,g,5d829da97f572900184a7cb1,2021-10-19_14h58.18.324,forced_choiceRT,2021.1.2,Win32,59.99880002,,,,,,,,8,Slow,g,1,2.2202,7,2,30,1,1,,,,,
,1.34,,,,,,,,,f.PNG,f,5d829da97f572900184a7cb1,2021-10-19_14h58.18.324,forced_choiceRT,2021.1.2,Win32,59.99880002,,,,,,,,8,Slow,g,0,2.1014,7,3,31,0,1,,,,,
,0.31,,,,,,,,,h.PNG,h,5d829da97f572900184a7cb1,2021-10-19_14h58.18.324,forced_choiceRT,2021.1.2,Win32,59.99880002,,,,,,,,8,Ontime,h,1,1.9204,8,0,32,2,1,,,,,
,0.73,,,,,,,,,j.PNG,j,5d829da97f572900184a7cb1,2021-10-19_14h58.18.324,forced_choiceRT,2021.1.2,Win32,59.99880002,,,,,,,,8,Fast,j,1,1.5537,8,1,33,3,1,,,,,
,0.57,,,,,,,,,j.PNG,j,5d829da97f572900184a7cb1,2021-10-19_14h58.18.324,forced_choiceRT,2021.1.2,Win32,59.99880002,,,,,,,,8,Fast,j,1,1.8724,8,2,34,3,1,,,,,
,0.25,,,,,,,,,h.PNG,h,5d829da97f572900184a7cb1,2021-10-19_14h58.18.324,forced_choiceRT,2021.1.2,Win32,59.99880002,,,,,,,,8,Ontime,h,1,2.0171,8,3,35,2,1,,,,,
,0.88,,,,,,,,,f.PNG,f,5d829da97f572900184a7cb1,2021-10-19_14h58.18.324,forced_choiceRT,2021.1.2,Win32,59.99880002,,,,,,,,8,Slow,f,1,2.1172,9,0,36,0,1,,,,,
,0.39,,,,,,,,,g.PNG,g,5d829da97f572900184a7cb1,2021-10-19_14h58.18.324,forced_choiceRT,2021.1.2,Win32,59.99880002,,,,,,,,8,Ontime,g,1,1.9997,9,1,37,1,1,,,,,
,0.45,,,,,,,,,g.PNG,g,5d829da97f572900184a7cb1,2021-10-19_14h58.18.324,forced_choiceRT,2021.1.2,Win32,59.99880002,,,,,,,,8,Slow,g,1,2.2532,9,2,38,1,1,,,,,
,1.99,,,,,,,,,g.PNG,g,5d829da97f572900184a7cb1,2021-10-19_14h58.18.324,forced_choiceRT,2021.1.2,Win32,59.99880002,,,,,,,,8,Slow,g,1,2.6527,9,3,39,1,1,,,,,
,,,,,,,,,,,,5d829da97f572900184a7cb1,2021-10-19_14h58.18.324,forced_choiceRT,2021.1.2,Win32,59.99880002,,,,,,,,,,,,,,,,,,7,0,7,0,1
,0.4,,,,,,,,,g.PNG,g,5d829da97f572900184a7cb1,2021-10-19_14h58.18.324,forced_choiceRT,2021.1.2,Win32,59.99880002,,,,,,,,9,Slow,h,0,2.2178,0,0,0,1,1,,,,,
,1.75,,,,,,,,,g.PNG,g,5d829da97f572900184a7cb1,2021-10-19_14h58.18.324,forced_choiceRT,2021.1.2,Win32,59.99880002,,,,,,,,9,Slow,h,0,2.2021,0,1,1,1,1,,,,,
,0.56,,,,,,,,,h.PNG,h,5d829da97f572900184a7cb1,2021-10-19_14h58.18.324,forced_choiceRT,2021.1.2,Win32,59.99880002,,,,,,,,9,Fast,h,1,1.304,0,2,2,2,1,,,,,
,1.07,,,,,,,,,j.PNG,j,5d829da97f572900184a7cb1,2021-10-19_14h58.18.324,forced_choiceRT,2021.1.2,Win32,59.99880002,,,,,,,,9,Fast,j,1,1.7597,0,3,3,3,1,,,,,
,1.91,,,,,,,,,h.PNG,h,5d829da97f572900184a7cb1,2021-10-19_14h58.18.324,forced_choiceRT,2021.1.2,Win32,59.99880002,,,,,,,,9,Slow,j,0,2.1179,1,0,4,2,1,,,,,
,0.96,,,,,,,,,h.PNG,h,5d829da97f572900184a7cb1,2021-10-19_14h58.18.324,forced_choiceRT,2021.1.2,Win32,59.99880002,,,,,,,,9,Fast,h,1,1.6841,1,1,5,2,1,,,,,
,0.64,,,,,,,,,f.PNG,f,5d829da97f572900184a7cb1,2021-10-19_14h58.18.324,forced_choiceRT,2021.1.2,Win32,59.99880002,,,,,,,,9,Fast,f,1,1.7905,1,2,6,0,1,,,,,
,0.96,,,,,,,,,f.PNG,f,5d829da97f572900184a7cb1,2021-10-19_14h58.18.324,forced_choiceRT,2021.1.2,Win32,59.99880002,,,,,,,,9,Fast,f,1,1.5886,1,3,7,0,1,,,,,
,1.36,,,,,,,,,j.PNG,j,5d829da97f572900184a7cb1,2021-10-19_14h58.18.324,forced_choiceRT,2021.1.2,Win32,59.99880002,,,,,,,,9,Ontime,j,1,1.9881,2,0,8,3,1,,,,,
,0.78,,,,,,,,,j.PNG,j,5d829da97f572900184a7cb1,2021-10-19_14h58.18.324,forced_choiceRT,2021.1.2,Win32,59.99880002,,,,,,,,9,Fast,j,1,1.466,2,1,9,3,1,,,,,
,1.81,,,,,,,,,j.PNG,j,5d829da97f572900184a7cb1,2021-10-19_14h58.18.324,forced_choiceRT,2021.1.2,Win32,59.99880002,,,,,,,,9,Slow,j,1,2.1705,2,2,10,3,1,,,,,
,0.98,,,,,,,,,g.PNG,g,5d829da97f572900184a7cb1,2021-10-19_14h58.18.324,forced_choiceRT,2021.1.2,Win32,59.99880002,,,,,,,,9,Fast,g,1,1.7526,2,3,11,1,1,,,,,
,0.45,,,,,,,,,j.PNG,j,5d829da97f572900184a7cb1,2021-10-19_14h58.18.324,forced_choiceRT,2021.1.2,Win32,59.99880002,,,,,,,,9,Fast,j,1,1.1681,3,0,12,3,1,,,,,
,1.86,,,,,,,,,h.PNG,h,5d829da97f572900184a7cb1,2021-10-19_14h58.18.324,forced_choiceRT,2021.1.2,Win32,59.99880002,,,,,,,,9,Slow,h,1,2.7982,3,1,13,2,1,,,,,
,0.47,,,,,,,,,h.PNG,h,5d829da97f572900184a7cb1,2021-10-19_14h58.18.324,forced_choiceRT,2021.1.2,Win32,59.99880002,,,,,,,,9,Ontime,h,1,1.9538,3,2,14,2,1,,,,,
,1.97,,,,,,,,,f.PNG,f,5d829da97f572900184a7cb1,2021-10-19_14h58.18.324,forced_choiceRT,2021.1.2,Win32,59.99880002,,,,,,,,9,Slow,g,0,2.5821,3,3,15,0,1,,,,,
,1.43,,,,,,,,,j.PNG,j,5d829da97f572900184a7cb1,2021-10-19_14h58.18.324,forced_choiceRT,2021.1.2,Win32,59.99880002,,,,,,,,9,Ontime,j,1,2.0818,4,0,16,3,1,,,,,
,1.13,,,,,,,,,h.PNG,h,5d829da97f572900184a7cb1,2021-10-19_14h58.18.324,forced_choiceRT,2021.1.2,Win32,59.99880002,,,,,,,,9,Ontime,h,1,1.9688,4,1,17,2,1,,,,,
,0.43,,,,,,,,,j.PNG,j,5d829da97f572900184a7cb1,2021-10-19_14h58.18.324,forced_choiceRT,2021.1.2,Win32,59.99880002,,,,,,,,9,Fast,j,1,1.2342,4,2,18,3,1,,,,,
,0.24,,,,,,,,,j.PNG,j,5d829da97f572900184a7cb1,2021-10-19_14h58.18.324,forced_choiceRT,2021.1.2,Win32,59.99880002,,,,,,,,9,Fast,j,1,0.9334,4,3,19,3,1,,,,,
,1.1,,,,,,,,,f.PNG,f,5d829da97f572900184a7cb1,2021-10-19_14h58.18.324,forced_choiceRT,2021.1.2,Win32,59.99880002,,,,,,,,9,Slow,f,1,2.2333,5,0,20,0,1,,,,,
,1.46,,,,,,,,,g.PNG,g,5d829da97f572900184a7cb1,2021-10-19_14h58.18.324,forced_choiceRT,2021.1.2,Win32,59.99880002,,,,,,,,9,Slow,g,1,2.1542,5,1,21,1,1,,,,,
,1.86,,,,,,,,,g.PNG,g,5d829da97f572900184a7cb1,2021-10-19_14h58.18.324,forced_choiceRT,2021.1.2,Win32,59.99880002,,,,,,,,9,Slow,g,1,2.2349,5,2,22,1,1,,,,,
,0.65,,,,,,,,,j.PNG,j,5d829da97f572900184a7cb1,2021-10-19_14h58.18.324,forced_choiceRT,2021.1.2,Win32,59.99880002,,,,,,,,9,Fast,j,1,1.3382,5,3,23,3,1,,,,,
,0.34,,,,,,,,,j.PNG,j,5d829da97f572900184a7cb1,2021-10-19_14h58.18.324,forced_choiceRT,2021.1.2,Win32,59.99880002,,,,,,,,9,Fast,j,1,1.8785,6,0,24,3,1,,,,,
,1.04,,,,,,,,,f.PNG,f,5d829da97f572900184a7cb1,2021-10-19_14h58.18.324,forced_choiceRT,2021.1.2,Win32,59.99880002,,,,,,,,9,Slow,f,1,2.1523,6,1,25,0,1,,,,,
,1.49,,,,,,,,,g.PNG,g,5d829da97f572900184a7cb1,2021-10-19_14h58.18.324,forced_choiceRT,2021.1.2,Win32,59.99880002,,,,,,,,9,Slow,g,1,2.5166,6,2,26,1,1,,,,,
,1.79,,,,,,,,,f.PNG,f,5d829da97f572900184a7cb1,2021-10-19_14h58.18.324,forced_choiceRT,2021.1.2,Win32,59.99880002,,,,,,,,9,Slow,g,0,2.6072,6,3,27,0,1,,,,,
,1.24,,,,,,,,,f.PNG,f,5d829da97f572900184a7cb1,2021-10-19_14h58.18.324,forced_choiceRT,2021.1.2,Win32,59.99880002,,,,,,,,9,Ontime,f,1,1.9218,7,0,28,0,1,,,,,
,1.1,,,,,,,,,g.PNG,g,5d829da97f572900184a7cb1,2021-10-19_14h58.18.324,forced_choiceRT,2021.1.2,Win32,59.99880002,,,,,,,,9,Fast,g,1,1.7956,7,1,29,1,1,,,,,
,0.24,,,,,,,,,f.PNG,f,5d829da97f572900184a7cb1,2021-10-19_14h58.18.324,forced_choiceRT,2021.1.2,Win32,59.99880002,,,,,,,,9,Fast,f,1,1.0694,7,2,30,0,1,,,,,
,1.96,,,,,,,,,g.PNG,g,5d829da97f572900184a7cb1,2021-10-19_14h58.18.324,forced_choiceRT,2021.1.2,Win32,59.99880002,,,,,,,,9,Slow,g,1,2.2164,7,3,31,1,1,,,,,
,1.19,,,,,,,,,h.PNG,h,5d829da97f572900184a7cb1,2021-10-19_14h58.18.324,forced_choiceRT,2021.1.2,Win32,59.99880002,,,,,,,,9,Fast,h,1,1.886,8,0,32,2,1,,,,,
,0.05,,,,,,,,,h.PNG,h,5d829da97f572900184a7cb1,2021-10-19_14h58.18.324,forced_choiceRT,2021.1.2,Win32,59.99880002,,,,,,,,9,Ontime,h,1,2.0539,8,1,33,2,1,,,,,
,0.14,,,,,,,,,f.PNG,f,5d829da97f572900184a7cb1,2021-10-19_14h58.18.324,forced_choiceRT,2021.1.2,Win32,59.99880002,,,,,,,,9,Fast,f,1,1.6215,8,2,34,0,1,,,,,
,0.76,,,,,,,,,f.PNG,f,5d829da97f572900184a7cb1,2021-10-19_14h58.18.324,forced_choiceRT,2021.1.2,Win32,59.99880002,,,,,,,,9,Fast,f,1,1.4185,8,3,35,0,1,,,,,
,0.23,,,,,,,,,h.PNG,h,5d829da97f572900184a7cb1,2021-10-19_14h58.18.324,forced_choiceRT,2021.1.2,Win32,59.99880002,,,,,,,,9,Fast,h,1,1.6495,9,0,36,2,1,,,,,
,1.2,,,,,,,,,g.PNG,g,5d829da97f572900184a7cb1,2021-10-19_14h58.18.324,forced_choiceRT,2021.1.2,Win32,59.99880002,,,,,,,,9,Ontime,g,1,1.9014,9,1,37,1,1,,,,,
,0.3,,,,,,,,,g.PNG,g,5d829da97f572900184a7cb1,2021-10-19_14h58.18.324,forced_choiceRT,2021.1.2,Win32,59.99880002,,,,,,,,9,Slow,g,1,2.3825,9,2,38,1,1,,,,,
,1.97,,,,,,,,,h.PNG,h,5d829da97f572900184a7cb1,2021-10-19_14h58.18.324,forced_choiceRT,2021.1.2,Win32,59.99880002,,,,,,,,9,Slow,h,1,2.5713,9,3,39,2,1,,,,,
,,,,,,,,,,,,5d829da97f572900184a7cb1,2021-10-19_14h58.18.324,forced_choiceRT,2021.1.2,Win32,59.99880002,,,,,,,,,,,,,,,,,,8,0,8,0,1
,1.26,,,,,,,,,g.PNG,g,5d829da97f572900184a7cb1,2021-10-19_14h58.18.324,forced_choiceRT,2021.1.2,Win32,59.99880002,,,,,,,,10,Slow,h,0,3.5623,0,0,0,1,1,,,,,
,0.32,,,,,,,,,j.PNG,j,5d829da97f572900184a7cb1,2021-10-19_14h58.18.324,forced_choiceRT,2021.1.2,Win32,59.99880002,,,,,,,,10,Fast,j,1,1.0014,0,1,1,3,1,,,,,
,1.03,,,,,,,,,j.PNG,j,5d829da97f572900184a7cb1,2021-10-19_14h58.18.324,forced_choiceRT,2021.1.2,Win32,59.99880002,,,,,,,,10,Fast,j,1,1.7385,0,2,2,3,1,,,,,
,1.2,,,,,,,,,f.PNG,f,5d829da97f572900184a7cb1,2021-10-19_14h58.18.324,forced_choiceRT,2021.1.2,Win32,59.99880002,,,,,,,,10,Ontime,f,1,2.0686,0,3,3,0,1,,,,,
,1.2,,,,,,,,,f.PNG,f,5d829da97f572900184a7cb1,2021-10-19_14h58.18.324,forced_choiceRT,2021.1.2,Win32,59.99880002,,,,,,,,10,Slow,f,1,2.2,1,0,4,0,1,,,,,
,1.47,,,,,,,,,j.PNG,j,5d829da97f572900184a7cb1,2021-10-19_14h58.18.324,forced_choiceRT,2021.1.2,Win32,59.99880002,,,,,,,,10,Ontime,j,1,2.049,1,1,5,3,1,,,,,
,0.15,,,,,,,,,g.PNG,g,5d829da97f572900184a7cb1,2021-10-19_14h58.18.324,forced_choiceRT,2021.1.2,Win32,59.99880002,,,,,,,,10,Fast,g,1,1.7508,1,2,6,1,1,,,,,
,1.55,,,,,,,,,f.PNG,f,5d829da97f572900184a7cb1,2021-10-19_14h58.18.324,forced_choiceRT,2021.1.2,Win32,59.99880002,,,,,,,,10,Slow,f,1,2.2016,1,3,7,0,1,,,,,
,1.27,,,,,,,,,j.PNG,j,5d829da97f572900184a7cb1,2021-10-19_14h58.18.324,forced_choiceRT,2021.1.2,Win32,59.99880002,,,,,,,,10,Fast,j,1,1.8815,2,0,8,3,1,,,,,
,0.98,,,,,,,,,f.PNG,f,5d829da97f572900184a7cb1,2021-10-19_14h58.18.324,forced_choiceRT,2021.1.2,Win32,59.99880002,,,,,,,,10,Fast,f,1,1.7394,2,1,9,0,1,,,,,
,0.69,,,,,,,,,f.PNG,f,5d829da97f572900184a7cb1,2021-10-19_14h58.18.324,forced_choiceRT,2021.1.2,Win32,59.99880002,,,,,,,,10,Fast,f,1,1.5911,2,2,10,0,1,,,,,
,0.15,,,,,,,,,h.PNG,h,5d829da97f572900184a7cb1,2021-10-19_14h58.18.324,forced_choiceRT,2021.1.2,Win32,59.99880002,,,,,,,,10,Ontime,h,1,1.9011,2,3,11,2,1,,,,,
,1.77,,,,,,,,,f.PNG,f,5d829da97f572900184a7cb1,2021-10-19_14h58.18.324,forced_choiceRT,2021.1.2,Win32,59.99880002,,,,,,,,10,Slow,h,0,2.2163,3,0,12,0,1,,,,,
,0.26,,,,,,,,,g.PNG,g,5d829da97f572900184a7cb1,2021-10-19_14h58.18.324,forced_choiceRT,2021.1.2,Win32,59.99880002,,,,,,,,10,Fast,g,1,1.7501,3,1,13,1,1,,,,,
,1.13,,,,,,,,,f.PNG,f,5d829da97f572900184a7cb1,2021-10-19_14h58.18.324,forced_choiceRT,2021.1.2,Win32,59.99880002,,,,,,,,10,Fast,f,1,1.8657,3,2,14,0,1,,,,,
,1.23,,,,,,,,,g.PNG,g,5d829da97f572900184a7cb1,2021-10-19_14h58.18.324,forced_choiceRT,2021.1.2,Win32,59.99880002,,,,,,,,10,Ontime,g,1,2.0162,3,3,15,1,1,,,,,
,0.65,,,,,,,,,j.PNG,j,5d829da97f572900184a7cb1,2021-10-19_14h58.18.324,forced_choiceRT,2021.1.2,Win32,59.99880002,,,,,,,,10,Fast,j,1,1.8661,4,0,16,3,1,,,,,
,1.35,,,,,,,,,h.PNG,h,5d829da97f572900184a7cb1,2021-10-19_14h58.18.324,forced_choiceRT,2021.1.2,Win32,59.99880002,,,,,,,,10,Ontime,h,1,2.0176,4,1,17,2,1,,,,,
,0.93,,,,,,,,,j.PNG,j,5d829da97f572900184a7cb1,2021-10-19_14h58.18.324,forced_choiceRT,2021.1.2,Win32,59.99880002,,,,,,,,10,Ontime,j,1,2.0011,4,2,18,3,1,,,,,
,0.94,,,,,,,,,h.PNG,h,5d829da97f572900184a7cb1,2021-10-19_14h58.18.324,forced_choiceRT,2021.1.2,Win32,59.99880002,,,,,,,,10,Fast,h,1,1.7693,4,3,19,2,1,,,,,
,0.19,,,,,,,,,f.PNG,f,5d829da97f572900184a7cb1,2021-10-19_14h58.18.324,forced_choiceRT,2021.1.2,Win32,59.99880002,,,,,,,,10,Fast,f,1,1.5522,5,0,20,0,1,,,,,
,1.63,,,,,,,,,h.PNG,h,5d829da97f572900184a7cb1,2021-10-19_14h58.18.324,forced_choiceRT,2021.1.2,Win32,59.99880002,,,,,,,,10,Slow,h,1,2.2664,5,1,21,2,1,,,,,
,1.88,,,,,,,,,h.PNG,h,5d829da97f572900184a7cb1,2021-10-19_14h58.18.324,forced_choiceRT,2021.1.2,Win32,59.99880002,,,,,,,,10,Slow,g,0,2.4333,5,2,22,2,1,,,,,
,0.59,,,,,,,,,g.PNG,g,5d829da97f572900184a7cb1,2021-10-19_14h58.18.324,forced_choiceRT,2021.1.2,Win32,59.99880002,,,,,,,,10,Fast,g,1,1.7814,5,3,23,1,1,,,,,
,0.67,,,,,,,,,h.PNG,h,5d829da97f572900184a7cb1,2021-10-19_14h58.18.324,forced_choiceRT,2021.1.2,Win32,59.99880002,,,,,,,,10,Fast,h,1,1.3326,6,0,24,2,1,,,,,
,1.29,,,,,,,,,g.PNG,g,5d829da97f572900184a7cb1,2021-10-19_14h58.18.324,forced_choiceRT,2021.1.2,Win32,59.99880002,,,,,,,,10,Ontime,g,1,1.939,6,1,25,1,1,,,,,
,0.07,,,,,,,,,f.PNG,f,5d829da97f572900184a7cb1,2021-10-19_14h58.18.324,forced_choiceRT,2021.1.2,Win32,59.99880002,,,,,,,,10,Fast,f,1,0.9361,6,2,26,0,1,,,,,
,0.25,,,,,,,,,j.PNG,j,5d829da97f572900184a7cb1,2021-10-19_14h58.18.324,forced_choiceRT,2021.1.2,Win32,59.99880002,,,,,,,,10,Fast,j,1,1.3713,6,3,27,3,1,,,,,
,0.51,,,,,,,,,f.PNG,f,5d829da97f572900184a7cb1,2021-10-19_14h58.18.324,forced_choiceRT,2021.1.2,Win32,59.99880002,,,,,,,,10,Fast,f,1,1.3833,7,0,28,0,1,,,,,
,1.08,,,,,,,,,j.PNG,j,5d829da97f572900184a7cb1,2021-10-19_14h58.18.324,forced_choiceRT,2021.1.2,Win32,59.99880002,,,,,,,,10,Slow,j,1,2.1334,7,1,29,3,1,,,,,
,0.36,,,,,,,,,g.PNG,g,5d829da97f572900184a7cb1,2021-10-19_14h58.18.324,forced_choiceRT,2021.1.2,Win32,59.99880002,,,,,,,,10,Fast,g,1,1.7355,7,2,30,1,1,,,,,
,1.39,,,,,,,,,g.PNG,g,5d829da97f572900184a7cb1,2021-10-19_14h58.18.324,forced_choiceRT,2021.1.2,Win32,59.99880002,,,,,,,,10,Ontime,g,1,2.0102,7,3,31,1,1,,,,,
,0.34,,,,,,,,,j.PNG,j,5d829da97f572900184a7cb1,2021-10-19_14h58.18.324,forced_choiceRT,2021.1.2,Win32,59.99880002,,,,,,,,10,Slow,j,1,2.1198,8,0,32,3,1,,,,,
,1.97,,,,,,,,,h.PNG,h,5d829da97f572900184a7cb1,2021-10-19_14h58.18.324,forced_choiceRT,2021.1.2,Win32,59.99880002,,,,,,,,10,Slow,h,1,2.1144,8,1,33,2,1,,,,,
,0.81,,,,,,,,,h.PNG,h,5d829da97f572900184a7cb1,2021-10-19_14h58.18.324,forced_choiceRT,2021.1.2,Win32,59.99880002,,,,,,,,10,Fast,h,1,1.8835,8,2,34,2,1,,,,,
,0.59,,,,,,,,,h.PNG,h,5d829da97f572900184a7cb1,2021-10-19_14h58.18.324,forced_choiceRT,2021.1.2,Win32,59.99880002,,,,,,,,10,Ontime,h,1,2.0202,8,3,35,2,1,,,,,
,1.29,,,,,,,,,j.PNG,j,5d829da97f572900184a7cb1,2021-10-19_14h58.18.324,forced_choiceRT,2021.1.2,Win32,59.99880002,,,,,,,,10,Ontime,j,1,2.0383,9,0,36,3,1,,,,,
,0.36,,,,,,,,,h.PNG,h,5d829da97f572900184a7cb1,2021-10-19_14h58.18.324,forced_choiceRT,2021.1.2,Win32,59.99880002,,,,,,,,10,Ontime,h,1,1.9731,9,1,37,2,1,,,,,
,1.55,,,,,,,,,g.PNG,g,5d829da97f572900184a7cb1,2021-10-19_14h58.18.324,forced_choiceRT,2021.1.2,Win32,59.99880002,,,,,,,,10,Ontime,j,0,2.0506,9,2,38,1,1,,,,,
,0.14,,,,,,,,,g.PNG,g,5d829da97f572900184a7cb1,2021-10-19_14h58.18.324,forced_choiceRT,2021.1.2,Win32,59.99880002,,,,,,,,10,Fast,g,1,1.8237,9,3,39,1,1,,,,,
,,,,,,,,,,,,5d829da97f572900184a7cb1,2021-10-19_14h58.18.324,forced_choiceRT,2021.1.2,Win32,59.99880002,,,,,,,,,,,,,,,,,,9,0,9,0,1
