IP_Addresss,target_onset,trial_resp_sp.keys,trial_resp_sp.corr,trial_resp_sp.rt,trials_train_loop.thisRepN,trials_train_loop.thisTrialN,trials_train_loop.thisN,trials_train_loop.thisIndex,trials_train_loop.ran,pic,correct_key,participant,date,expName,psychopyVersion,OS,frameRate,trial_resp_timing.keys,trial_resp_timing.rt,trials_train_timing.thisRepN,trials_train_timing.thisTrialN,trials_train_timing.thisN,trials_train_timing.thisIndex,trials_train_timing.ran,block_id,ontime,forcedRT_resp.keys,forcedRT_resp.corr,forcedRT_resp.rt,trials.thisRepN,trials.thisTrialN,trials.thisN,trials.thisIndex,trials.ran,blocks.thisRepN,blocks.thisTrialN,blocks.thisN,blocks.thisIndex,blocks.ran
172.220.244.5,0,g,1,1.8121,0,0,0,1,1,g.PNG,g,5d88f010859c9e0001810e88,2021-10-19_15h58.57.000,forced_choiceRT,2021.1.2,Win32,60.04202942,,,,,,,,,,,,,,,,,,,,,,
,0,h,1,0.9157,0,1,1,2,1,h.PNG,h,5d88f010859c9e0001810e88,2021-10-19_15h58.57.000,forced_choiceRT,2021.1.2,Win32,60.04202942,,,,,,,,,,,,,,,,,,,,,,
,0,g,1,1.8162,0,2,2,1,1,g.PNG,g,5d88f010859c9e0001810e88,2021-10-19_15h58.57.000,forced_choiceRT,2021.1.2,Win32,60.04202942,,,,,,,,,,,,,,,,,,,,,,
,0,h,1,0.8929,0,3,3,2,1,h.PNG,h,5d88f010859c9e0001810e88,2021-10-19_15h58.57.000,forced_choiceRT,2021.1.2,Win32,60.04202942,,,,,,,,,,,,,,,,,,,,,,
,0,g,1,1.1564,1,0,4,1,1,g.PNG,g,5d88f010859c9e0001810e88,2021-10-19_15h58.57.000,forced_choiceRT,2021.1.2,Win32,60.04202942,,,,,,,,,,,,,,,,,,,,,,
,0,f,1,0.6065,1,1,5,0,1,f.PNG,f,5d88f010859c9e0001810e88,2021-10-19_15h58.57.000,forced_choiceRT,2021.1.2,Win32,60.04202942,,,,,,,,,,,,,,,,,,,,,,
,0,f,1,0.6316,1,2,6,0,1,f.PNG,f,5d88f010859c9e0001810e88,2021-10-19_15h58.57.000,forced_choiceRT,2021.1.2,Win32,60.04202942,,,,,,,,,,,,,,,,,,,,,,
,0,h,1,0.8528,1,3,7,2,1,h.PNG,h,5d88f010859c9e0001810e88,2021-10-19_15h58.57.000,forced_choiceRT,2021.1.2,Win32,60.04202942,,,,,,,,,,,,,,,,,,,,,,
,0,j,1,0.6756,2,0,8,3,1,j.PNG,j,5d88f010859c9e0001810e88,2021-10-19_15h58.57.000,forced_choiceRT,2021.1.2,Win32,60.04202942,,,,,,,,,,,,,,,,,,,,,,
,0,h,1,0.6519,2,1,9,2,1,h.PNG,h,5d88f010859c9e0001810e88,2021-10-19_15h58.57.000,forced_choiceRT,2021.1.2,Win32,60.04202942,,,,,,,,,,,,,,,,,,,,,,
,0,j,1,1.1849,2,2,10,3,1,j.PNG,j,5d88f010859c9e0001810e88,2021-10-19_15h58.57.000,forced_choiceRT,2021.1.2,Win32,60.04202942,,,,,,,,,,,,,,,,,,,,,,
,0,h,1,0.6776,2,3,11,2,1,h.PNG,h,5d88f010859c9e0001810e88,2021-10-19_15h58.57.000,forced_choiceRT,2021.1.2,Win32,60.04202942,,,,,,,,,,,,,,,,,,,,,,
,0,f,1,0.5649,3,0,12,0,1,f.PNG,f,5d88f010859c9e0001810e88,2021-10-19_15h58.57.000,forced_choiceRT,2021.1.2,Win32,60.04202942,,,,,,,,,,,,,,,,,,,,,,
,0,j,1,0.6974,3,1,13,3,1,j.PNG,j,5d88f010859c9e0001810e88,2021-10-19_15h58.57.000,forced_choiceRT,2021.1.2,Win32,60.04202942,,,,,,,,,,,,,,,,,,,,,,
,0,f,1,0.7162,3,2,14,0,1,f.PNG,f,5d88f010859c9e0001810e88,2021-10-19_15h58.57.000,forced_choiceRT,2021.1.2,Win32,60.04202942,,,,,,,,,,,,,,,,,,,,,,
,0,g,1,1.0669,3,3,15,1,1,g.PNG,g,5d88f010859c9e0001810e88,2021-10-19_15h58.57.000,forced_choiceRT,2021.1.2,Win32,60.04202942,,,,,,,,,,,,,,,,,,,,,,
,0,g,1,1.0718,4,0,16,1,1,g.PNG,g,5d88f010859c9e0001810e88,2021-10-19_15h58.57.000,forced_choiceRT,2021.1.2,Win32,60.04202942,,,,,,,,,,,,,,,,,,,,,,
,0,h,1,0.6149,4,1,17,2,1,h.PNG,h,5d88f010859c9e0001810e88,2021-10-19_15h58.57.000,forced_choiceRT,2021.1.2,Win32,60.04202942,,,,,,,,,,,,,,,,,,,,,,
,0,h,1,0.66,4,2,18,2,1,h.PNG,h,5d88f010859c9e0001810e88,2021-10-19_15h58.57.000,forced_choiceRT,2021.1.2,Win32,60.04202942,,,,,,,,,,,,,,,,,,,,,,
,0,f,1,0.615,4,3,19,0,1,f.PNG,f,5d88f010859c9e0001810e88,2021-10-19_15h58.57.000,forced_choiceRT,2021.1.2,Win32,60.04202942,,,,,,,,,,,,,,,,,,,,,,
,0,f,1,0.6418,5,0,20,0,1,f.PNG,f,5d88f010859c9e0001810e88,2021-10-19_15h58.57.000,forced_choiceRT,2021.1.2,Win32,60.04202942,,,,,,,,,,,,,,,,,,,,,,
,0,j,1,0.7176,5,1,21,3,1,j.PNG,j,5d88f010859c9e0001810e88,2021-10-19_15h58.57.000,forced_choiceRT,2021.1.2,Win32,60.04202942,,,,,,,,,,,,,,,,,,,,,,
,0,f,1,1.5006,5,2,22,0,1,f.PNG,f,5d88f010859c9e0001810e88,2021-10-19_15h58.57.000,forced_choiceRT,2021.1.2,Win32,60.04202942,,,,,,,,,,,,,,,,,,,,,,
,0,g,0,0.8847,5,3,23,2,1,h.PNG,h,5d88f010859c9e0001810e88,2021-10-19_15h58.57.000,forced_choiceRT,2021.1.2,Win32,60.04202942,,,,,,,,,,,,,,,,,,,,,,
,0,h,1,0.7201,6,0,24,2,1,h.PNG,h,5d88f010859c9e0001810e88,2021-10-19_15h58.57.000,forced_choiceRT,2021.1.2,Win32,60.04202942,,,,,,,,,,,,,,,,,,,,,,
,0,j,1,0.7037,6,1,25,3,1,j.PNG,j,5d88f010859c9e0001810e88,2021-10-19_15h58.57.000,forced_choiceRT,2021.1.2,Win32,60.04202942,,,,,,,,,,,,,,,,,,,,,,
,0,j,1,0.6276,6,2,26,3,1,j.PNG,j,5d88f010859c9e0001810e88,2021-10-19_15h58.57.000,forced_choiceRT,2021.1.2,Win32,60.04202942,,,,,,,,,,,,,,,,,,,,,,
,0,g,1,0.9811,6,3,27,1,1,g.PNG,g,5d88f010859c9e0001810e88,2021-10-19_15h58.57.000,forced_choiceRT,2021.1.2,Win32,60.04202942,,,,,,,,,,,,,,,,,,,,,,
,0,g,1,1.5319,7,0,28,1,1,g.PNG,g,5d88f010859c9e0001810e88,2021-10-19_15h58.57.000,forced_choiceRT,2021.1.2,Win32,60.04202942,,,,,,,,,,,,,,,,,,,,,,
,0,h,1,0.7241,7,1,29,2,1,h.PNG,h,5d88f010859c9e0001810e88,2021-10-19_15h58.57.000,forced_choiceRT,2021.1.2,Win32,60.04202942,,,,,,,,,,,,,,,,,,,,,,
,0,j,1,0.6496,7,2,30,3,1,j.PNG,j,5d88f010859c9e0001810e88,2021-10-19_15h58.57.000,forced_choiceRT,2021.1.2,Win32,60.04202942,,,,,,,,,,,,,,,,,,,,,,
,0,h,1,0.684,7,3,31,2,1,h.PNG,h,5d88f010859c9e0001810e88,2021-10-19_15h58.57.000,forced_choiceRT,2021.1.2,Win32,60.04202942,,,,,,,,,,,,,,,,,,,,,,
,0,f,1,0.5601,8,0,32,0,1,f.PNG,f,5d88f010859c9e0001810e88,2021-10-19_15h58.57.000,forced_choiceRT,2021.1.2,Win32,60.04202942,,,,,,,,,,,,,,,,,,,,,,
,0,g,1,1.0233,8,1,33,1,1,g.PNG,g,5d88f010859c9e0001810e88,2021-10-19_15h58.57.000,forced_choiceRT,2021.1.2,Win32,60.04202942,,,,,,,,,,,,,,,,,,,,,,
,0,g,1,0.6568,8,2,34,1,1,g.PNG,g,5d88f010859c9e0001810e88,2021-10-19_15h58.57.000,forced_choiceRT,2021.1.2,Win32,60.04202942,,,,,,,,,,,,,,,,,,,,,,
,0,f,1,0.6346,8,3,35,0,1,f.PNG,f,5d88f010859c9e0001810e88,2021-10-19_15h58.57.000,forced_choiceRT,2021.1.2,Win32,60.04202942,,,,,,,,,,,,,,,,,,,,,,
,0,f,1,0.531,9,0,36,0,1,f.PNG,f,5d88f010859c9e0001810e88,2021-10-19_15h58.57.000,forced_choiceRT,2021.1.2,Win32,60.04202942,,,,,,,,,,,,,,,,,,,,,,
,0,g,1,1.2156,9,1,37,1,1,g.PNG,g,5d88f010859c9e0001810e88,2021-10-19_15h58.57.000,forced_choiceRT,2021.1.2,Win32,60.04202942,,,,,,,,,,,,,,,,,,,,,,
,0,g,1,0.6027,9,2,38,1,1,g.PNG,g,5d88f010859c9e0001810e88,2021-10-19_15h58.57.000,forced_choiceRT,2021.1.2,Win32,60.04202942,,,,,,,,,,,,,,,,,,,,,,
,0,f,1,0.6061,9,3,39,0,1,f.PNG,f,5d88f010859c9e0001810e88,2021-10-19_15h58.57.000,forced_choiceRT,2021.1.2,Win32,60.04202942,,,,,,,,,,,,,,,,,,,,,,
,0,h,1,0.7598,10,0,40,2,1,h.PNG,h,5d88f010859c9e0001810e88,2021-10-19_15h58.57.000,forced_choiceRT,2021.1.2,Win32,60.04202942,,,,,,,,,,,,,,,,,,,,,,
,0,j,1,0.3899,10,1,41,3,1,j.PNG,j,5d88f010859c9e0001810e88,2021-10-19_15h58.57.000,forced_choiceRT,2021.1.2,Win32,60.04202942,,,,,,,,,,,,,,,,,,,,,,
,0,f,1,0.5503,10,2,42,0,1,f.PNG,f,5d88f010859c9e0001810e88,2021-10-19_15h58.57.000,forced_choiceRT,2021.1.2,Win32,60.04202942,,,,,,,,,,,,,,,,,,,,,,
,0,f,1,0.7701,10,3,43,0,1,f.PNG,f,5d88f010859c9e0001810e88,2021-10-19_15h58.57.000,forced_choiceRT,2021.1.2,Win32,60.04202942,,,,,,,,,,,,,,,,,,,,,,
,0,g,1,0.4549,11,0,44,1,1,g.PNG,g,5d88f010859c9e0001810e88,2021-10-19_15h58.57.000,forced_choiceRT,2021.1.2,Win32,60.04202942,,,,,,,,,,,,,,,,,,,,,,
,0,j,1,0.6614,11,1,45,3,1,j.PNG,j,5d88f010859c9e0001810e88,2021-10-19_15h58.57.000,forced_choiceRT,2021.1.2,Win32,60.04202942,,,,,,,,,,,,,,,,,,,,,,
,0,j,1,0.5294,11,2,46,3,1,j.PNG,j,5d88f010859c9e0001810e88,2021-10-19_15h58.57.000,forced_choiceRT,2021.1.2,Win32,60.04202942,,,,,,,,,,,,,,,,,,,,,,
,0,j,1,0.6593,11,3,47,3,1,j.PNG,j,5d88f010859c9e0001810e88,2021-10-19_15h58.57.000,forced_choiceRT,2021.1.2,Win32,60.04202942,,,,,,,,,,,,,,,,,,,,,,
,0,j,1,0.5428,12,0,48,3,1,j.PNG,j,5d88f010859c9e0001810e88,2021-10-19_15h58.57.000,forced_choiceRT,2021.1.2,Win32,60.04202942,,,,,,,,,,,,,,,,,,,,,,
,0,h,1,1.6071,12,1,49,2,1,h.PNG,h,5d88f010859c9e0001810e88,2021-10-19_15h58.57.000,forced_choiceRT,2021.1.2,Win32,60.04202942,,,,,,,,,,,,,,,,,,,,,,
,0,j,1,0.5483,12,2,50,3,1,j.PNG,j,5d88f010859c9e0001810e88,2021-10-19_15h58.57.000,forced_choiceRT,2021.1.2,Win32,60.04202942,,,,,,,,,,,,,,,,,,,,,,
,0,h,1,0.6049,12,3,51,2,1,h.PNG,h,5d88f010859c9e0001810e88,2021-10-19_15h58.57.000,forced_choiceRT,2021.1.2,Win32,60.04202942,,,,,,,,,,,,,,,,,,,,,,
,0,j,1,0.4319,13,0,52,3,1,j.PNG,j,5d88f010859c9e0001810e88,2021-10-19_15h58.57.000,forced_choiceRT,2021.1.2,Win32,60.04202942,,,,,,,,,,,,,,,,,,,,,,
,0,g,1,1.0492,13,1,53,1,1,g.PNG,g,5d88f010859c9e0001810e88,2021-10-19_15h58.57.000,forced_choiceRT,2021.1.2,Win32,60.04202942,,,,,,,,,,,,,,,,,,,,,,
,0,g,1,0.5582,13,2,54,1,1,g.PNG,g,5d88f010859c9e0001810e88,2021-10-19_15h58.57.000,forced_choiceRT,2021.1.2,Win32,60.04202942,,,,,,,,,,,,,,,,,,,,,,
,0,f,1,0.4,13,3,55,0,1,f.PNG,f,5d88f010859c9e0001810e88,2021-10-19_15h58.57.000,forced_choiceRT,2021.1.2,Win32,60.04202942,,,,,,,,,,,,,,,,,,,,,,
,0,h,1,0.7417,14,0,56,2,1,h.PNG,h,5d88f010859c9e0001810e88,2021-10-19_15h58.57.000,forced_choiceRT,2021.1.2,Win32,60.04202942,,,,,,,,,,,,,,,,,,,,,,
,0,f,1,0.6394,14,1,57,0,1,f.PNG,f,5d88f010859c9e0001810e88,2021-10-19_15h58.57.000,forced_choiceRT,2021.1.2,Win32,60.04202942,,,,,,,,,,,,,,,,,,,,,,
,0,g,1,0.7532,14,2,58,1,1,g.PNG,g,5d88f010859c9e0001810e88,2021-10-19_15h58.57.000,forced_choiceRT,2021.1.2,Win32,60.04202942,,,,,,,,,,,,,,,,,,,,,,
,0,j,1,0.7022,14,3,59,3,1,j.PNG,j,5d88f010859c9e0001810e88,2021-10-19_15h58.57.000,forced_choiceRT,2021.1.2,Win32,60.04202942,,,,,,,,,,,,,,,,,,,,,,
,,,,,,,,,,,,5d88f010859c9e0001810e88,2021-10-19_15h58.57.000,forced_choiceRT,2021.1.2,Win32,60.04202942,h,2.2469,0,0,0,0,1,,,,,,,,,,,,,,,
,,,,,,,,,,,,5d88f010859c9e0001810e88,2021-10-19_15h58.57.000,forced_choiceRT,2021.1.2,Win32,60.04202942,f,1.7184,1,0,1,0,1,,,,,,,,,,,,,,,
,,,,,,,,,,,,5d88f010859c9e0001810e88,2021-10-19_15h58.57.000,forced_choiceRT,2021.1.2,Win32,60.04202942,f,1.7361,2,0,2,0,1,,,,,,,,,,,,,,,
,,,,,,,,,,,,5d88f010859c9e0001810e88,2021-10-19_15h58.57.000,forced_choiceRT,2021.1.2,Win32,60.04202942,g,1.7532,3,0,3,0,1,,,,,,,,,,,,,,,
,,,,,,,,,,,,5d88f010859c9e0001810e88,2021-10-19_15h58.57.000,forced_choiceRT,2021.1.2,Win32,60.04202942,h,2.2718,4,0,4,0,1,,,,,,,,,,,,,,,
,,,,,,,,,,,,5d88f010859c9e0001810e88,2021-10-19_15h58.57.000,forced_choiceRT,2021.1.2,Win32,60.04202942,h,2.2343,5,0,5,0,1,,,,,,,,,,,,,,,
,,,,,,,,,,,,5d88f010859c9e0001810e88,2021-10-19_15h58.57.000,forced_choiceRT,2021.1.2,Win32,60.04202942,h,2.2173,6,0,6,0,1,,,,,,,,,,,,,,,
,,,,,,,,,,,,5d88f010859c9e0001810e88,2021-10-19_15h58.57.000,forced_choiceRT,2021.1.2,Win32,60.04202942,j,1.7261,7,0,7,0,1,,,,,,,,,,,,,,,
,,,,,,,,,,,,5d88f010859c9e0001810e88,2021-10-19_15h58.57.000,forced_choiceRT,2021.1.2,Win32,60.04202942,j,2.2342,8,0,8,0,1,,,,,,,,,,,,,,,
,,,,,,,,,,,,5d88f010859c9e0001810e88,2021-10-19_15h58.57.000,forced_choiceRT,2021.1.2,Win32,60.04202942,j,2.18,9,0,9,0,1,,,,,,,,,,,,,,,
,,,,,,,,,,,,5d88f010859c9e0001810e88,2021-10-19_15h58.57.000,forced_choiceRT,2021.1.2,Win32,60.04202942,f,2.1244,10,0,10,0,1,,,,,,,,,,,,,,,
,,,,,,,,,,,,5d88f010859c9e0001810e88,2021-10-19_15h58.57.000,forced_choiceRT,2021.1.2,Win32,60.04202942,h,2.1938,11,0,11,0,1,,,,,,,,,,,,,,,
,,,,,,,,,,,,5d88f010859c9e0001810e88,2021-10-19_15h58.57.000,forced_choiceRT,2021.1.2,Win32,60.04202942,h,2.183,12,0,12,0,1,,,,,,,,,,,,,,,
,,,,,,,,,,,,5d88f010859c9e0001810e88,2021-10-19_15h58.57.000,forced_choiceRT,2021.1.2,Win32,60.04202942,h,2.0165,13,0,13,0,1,,,,,,,,,,,,,,,
,,,,,,,,,,,,5d88f010859c9e0001810e88,2021-10-19_15h58.57.000,forced_choiceRT,2021.1.2,Win32,60.04202942,h,2.2151,14,0,14,0,1,,,,,,,,,,,,,,,
,,,,,,,,,,,,5d88f010859c9e0001810e88,2021-10-19_15h58.57.000,forced_choiceRT,2021.1.2,Win32,60.04202942,j,2.2327,15,0,15,0,1,,,,,,,,,,,,,,,
,,,,,,,,,,,,5d88f010859c9e0001810e88,2021-10-19_15h58.57.000,forced_choiceRT,2021.1.2,Win32,60.04202942,j,2.115,16,0,16,0,1,,,,,,,,,,,,,,,
,,,,,,,,,,,,5d88f010859c9e0001810e88,2021-10-19_15h58.57.000,forced_choiceRT,2021.1.2,Win32,60.04202942,f,1.9802,17,0,17,0,1,,,,,,,,,,,,,,,
,,,,,,,,,,,,5d88f010859c9e0001810e88,2021-10-19_15h58.57.000,forced_choiceRT,2021.1.2,Win32,60.04202942,f,1.7499,18,0,18,0,1,,,,,,,,,,,,,,,
,,,,,,,,,,,,5d88f010859c9e0001810e88,2021-10-19_15h58.57.000,forced_choiceRT,2021.1.2,Win32,60.04202942,f,2.2178,19,0,19,0,1,,,,,,,,,,,,,,,
,1.13,,,,,,,,,h.PNG,h,5d88f010859c9e0001810e88,2021-10-19_15h58.57.000,forced_choiceRT,2021.1.2,Win32,60.04202942,,,,,,,,1,Slow,g,0,2.2851,0,0,0,2,1,,,,,
,1.93,,,,,,,,,h.PNG,h,5d88f010859c9e0001810e88,2021-10-19_15h58.57.000,forced_choiceRT,2021.1.2,Win32,60.04202942,,,,,,,,1,Slow,h,1,2.5599,0,1,1,2,1,,,,,
,1.77,,,,,,,,,h.PNG,h,5d88f010859c9e0001810e88,2021-10-19_15h58.57.000,forced_choiceRT,2021.1.2,Win32,60.04202942,,,,,,,,1,Slow,h,1,2.3165,0,2,2,2,1,,,,,
,0.1,,,,,,,,,g.PNG,g,5d88f010859c9e0001810e88,2021-10-19_15h58.57.000,forced_choiceRT,2021.1.2,Win32,60.04202942,,,,,,,,1,Slow,g,1,2.2176,0,3,3,1,1,,,,,
,1.04,,,,,,,,,f.PNG,f,5d88f010859c9e0001810e88,2021-10-19_15h58.57.000,forced_choiceRT,2021.1.2,Win32,60.04202942,,,,,,,,1,Slow,f,1,2.2372,1,0,4,0,1,,,,,
,1.84,,,,,,,,,j.PNG,j,5d88f010859c9e0001810e88,2021-10-19_15h58.57.000,forced_choiceRT,2021.1.2,Win32,60.04202942,,,,,,,,1,Slow,j,1,2.3364,1,1,5,3,1,,,,,
,0.98,,,,,,,,,h.PNG,h,5d88f010859c9e0001810e88,2021-10-19_15h58.57.000,forced_choiceRT,2021.1.2,Win32,60.04202942,,,,,,,,1,Slow,h,1,2.1608,1,2,6,2,1,,,,,
,1.05,,,,,,,,,f.PNG,f,5d88f010859c9e0001810e88,2021-10-19_15h58.57.000,forced_choiceRT,2021.1.2,Win32,60.04202942,,,,,,,,1,Slow,f,1,2.1365,1,3,7,0,1,,,,,
,1.16,,,,,,,,,h.PNG,h,5d88f010859c9e0001810e88,2021-10-19_15h58.57.000,forced_choiceRT,2021.1.2,Win32,60.04202942,,,,,,,,1,Slow,h,1,2.2194,2,0,8,2,1,,,,,
,0.31,,,,,,,,,f.PNG,f,5d88f010859c9e0001810e88,2021-10-19_15h58.57.000,forced_choiceRT,2021.1.2,Win32,60.04202942,,,,,,,,1,Fast,f,1,1.7354,2,1,9,0,1,,,,,
,1.61,,,,,,,,,j.PNG,j,5d88f010859c9e0001810e88,2021-10-19_15h58.57.000,forced_choiceRT,2021.1.2,Win32,60.04202942,,,,,,,,1,Slow,j,1,2.252,2,2,10,3,1,,,,,
,1.54,,,,,,,,,g.PNG,g,5d88f010859c9e0001810e88,2021-10-19_15h58.57.000,forced_choiceRT,2021.1.2,Win32,60.04202942,,,,,,,,1,Slow,g,1,2.1692,2,3,11,1,1,,,,,
,0.66,,,,,,,,,h.PNG,h,5d88f010859c9e0001810e88,2021-10-19_15h58.57.000,forced_choiceRT,2021.1.2,Win32,60.04202942,,,,,,,,1,Slow,h,1,2.2189,3,0,12,2,1,,,,,
,0.62,,,,,,,,,f.PNG,f,5d88f010859c9e0001810e88,2021-10-19_15h58.57.000,forced_choiceRT,2021.1.2,Win32,60.04202942,,,,,,,,1,Ontime,f,1,1.9968,3,1,13,0,1,,,,,
,0,,,,,,,,,g.PNG,g,5d88f010859c9e0001810e88,2021-10-19_15h58.57.000,forced_choiceRT,2021.1.2,Win32,60.04202942,,,,,,,,1,Ontime,g,1,2.0112,3,2,14,1,1,,,,,
,1.1,,,,,,,,,h.PNG,h,5d88f010859c9e0001810e88,2021-10-19_15h58.57.000,forced_choiceRT,2021.1.2,Win32,60.04202942,,,,,,,,1,Ontime,h,1,1.9791,3,3,15,2,1,,,,,
,1.54,,,,,,,,,j.PNG,j,5d88f010859c9e0001810e88,2021-10-19_15h58.57.000,forced_choiceRT,2021.1.2,Win32,60.04202942,,,,,,,,1,Slow,j,1,2.14,4,0,16,3,1,,,,,
,0.4,,,,,,,,,j.PNG,j,5d88f010859c9e0001810e88,2021-10-19_15h58.57.000,forced_choiceRT,2021.1.2,Win32,60.04202942,,,,,,,,1,Fast,j,1,1.7404,4,1,17,3,1,,,,,
,1.41,,,,,,,,,g.PNG,g,5d88f010859c9e0001810e88,2021-10-19_15h58.57.000,forced_choiceRT,2021.1.2,Win32,60.04202942,,,,,,,,1,Slow,j,0,2.3254,4,2,18,1,1,,,,,
,0.08,,,,,,,,,j.PNG,j,5d88f010859c9e0001810e88,2021-10-19_15h58.57.000,forced_choiceRT,2021.1.2,Win32,60.04202942,,,,,,,,1,Fast,j,1,1.6987,4,3,19,3,1,,,,,
,1.7,,,,,,,,,h.PNG,h,5d88f010859c9e0001810e88,2021-10-19_15h58.57.000,forced_choiceRT,2021.1.2,Win32,60.04202942,,,,,,,,1,Slow,j,0,2.2837,5,0,20,2,1,,,,,
,1.73,,,,,,,,,f.PNG,f,5d88f010859c9e0001810e88,2021-10-19_15h58.57.000,forced_choiceRT,2021.1.2,Win32,60.04202942,,,,,,,,1,Slow,g,0,2.2215,5,1,21,0,1,,,,,
,0.04,,,,,,,,,g.PNG,g,5d88f010859c9e0001810e88,2021-10-19_15h58.57.000,forced_choiceRT,2021.1.2,Win32,60.04202942,,,,,,,,1,Ontime,g,1,1.9677,5,2,22,1,1,,,,,
,0.83,,,,,,,,,j.PNG,j,5d88f010859c9e0001810e88,2021-10-19_15h58.57.000,forced_choiceRT,2021.1.2,Win32,60.04202942,,,,,,,,1,Ontime,j,1,1.9129,5,3,23,3,1,,,,,
,1.3,,,,,,,,,j.PNG,j,5d88f010859c9e0001810e88,2021-10-19_15h58.57.000,forced_choiceRT,2021.1.2,Win32,60.04202942,,,,,,,,1,Ontime,j,1,1.9164,6,0,24,3,1,,,,,
,1.64,,,,,,,,,g.PNG,g,5d88f010859c9e0001810e88,2021-10-19_15h58.57.000,forced_choiceRT,2021.1.2,Win32,60.04202942,,,,,,,,1,Slow,g,1,2.1178,6,1,25,1,1,,,,,
,1.21,,,,,,,,,h.PNG,h,5d88f010859c9e0001810e88,2021-10-19_15h58.57.000,forced_choiceRT,2021.1.2,Win32,60.04202942,,,,,,,,1,Fast,h,1,1.8901,6,2,26,2,1,,,,,
,1.61,,,,,,,,,f.PNG,f,5d88f010859c9e0001810e88,2021-10-19_15h58.57.000,forced_choiceRT,2021.1.2,Win32,60.04202942,,,,,,,,1,Slow,f,1,2.1059,6,3,27,0,1,,,,,
,1.35,,,,,,,,,g.PNG,g,5d88f010859c9e0001810e88,2021-10-19_15h58.57.000,forced_choiceRT,2021.1.2,Win32,60.04202942,,,,,,,,1,Slow,h,0,2.1105,7,0,28,1,1,,,,,
,1.4,,,,,,,,,g.PNG,g,5d88f010859c9e0001810e88,2021-10-19_15h58.57.000,forced_choiceRT,2021.1.2,Win32,60.04202942,,,,,,,,1,Slow,h,0,2.1115,7,1,29,1,1,,,,,
,0.66,,,,,,,,,f.PNG,f,5d88f010859c9e0001810e88,2021-10-19_15h58.57.000,forced_choiceRT,2021.1.2,Win32,60.04202942,,,,,,,,1,Fast,f,1,1.7667,7,2,30,0,1,,,,,
,1.65,,,,,,,,,g.PNG,g,5d88f010859c9e0001810e88,2021-10-19_15h58.57.000,forced_choiceRT,2021.1.2,Win32,60.04202942,,,,,,,,1,Slow,g,1,2.1077,7,3,31,1,1,,,,,
,1.17,,,,,,,,,g.PNG,g,5d88f010859c9e0001810e88,2021-10-19_15h58.57.000,forced_choiceRT,2021.1.2,Win32,60.04202942,,,,,,,,1,Ontime,h,0,1.9331,8,0,32,1,1,,,,,
,1.08,,,,,,,,,j.PNG,j,5d88f010859c9e0001810e88,2021-10-19_15h58.57.000,forced_choiceRT,2021.1.2,Win32,60.04202942,,,,,,,,1,Fast,h,0,1.8696,8,1,33,3,1,,,,,
,1.33,,,,,,,,,f.PNG,f,5d88f010859c9e0001810e88,2021-10-19_15h58.57.000,forced_choiceRT,2021.1.2,Win32,60.04202942,,,,,,,,1,Ontime,f,1,2.0283,8,2,34,0,1,,,,,
,0.18,,,,,,,,,j.PNG,j,5d88f010859c9e0001810e88,2021-10-19_15h58.57.000,forced_choiceRT,2021.1.2,Win32,60.04202942,,,,,,,,1,Fast,j,1,1.8501,8,3,35,3,1,,,,,
,1.14,,,,,,,,,j.PNG,j,5d88f010859c9e0001810e88,2021-10-19_15h58.57.000,forced_choiceRT,2021.1.2,Win32,60.04202942,,,,,,,,1,Ontime,j,1,2.0025,9,0,36,3,1,,,,,
,0.72,,,,,,,,,h.PNG,h,5d88f010859c9e0001810e88,2021-10-19_15h58.57.000,forced_choiceRT,2021.1.2,Win32,60.04202942,,,,,,,,1,Ontime,h,1,1.9644,9,1,37,2,1,,,,,
,0.18,,,,,,,,,f.PNG,f,5d88f010859c9e0001810e88,2021-10-19_15h58.57.000,forced_choiceRT,2021.1.2,Win32,60.04202942,,,,,,,,1,Ontime,f,1,1.9831,9,2,38,0,1,,,,,
,0.99,,,,,,,,,f.PNG,f,5d88f010859c9e0001810e88,2021-10-19_15h58.57.000,forced_choiceRT,2021.1.2,Win32,60.04202942,,,,,,,,1,Ontime,f,1,2.025,9,3,39,0,1,,,,,
,,,,,,,,,,,,5d88f010859c9e0001810e88,2021-10-19_15h58.57.000,forced_choiceRT,2021.1.2,Win32,60.04202942,,,,,,,,,,,,,,,,,,0,0,0,0,1
,0.1,,,,,,,,,g.PNG,g,5d88f010859c9e0001810e88,2021-10-19_15h58.57.000,forced_choiceRT,2021.1.2,Win32,60.04202942,,,,,,,,2,Ontime,g,1,2.0266,0,0,0,1,1,,,,,
,1.33,,,,,,,,,f.PNG,f,5d88f010859c9e0001810e88,2021-10-19_15h58.57.000,forced_choiceRT,2021.1.2,Win32,60.04202942,,,,,,,,2,Slow,f,1,2.1164,0,1,1,0,1,,,,,
,0.19,,,,,,,,,h.PNG,h,5d88f010859c9e0001810e88,2021-10-19_15h58.57.000,forced_choiceRT,2021.1.2,Win32,60.04202942,,,,,,,,2,Fast,g,0,1.7893,0,2,2,2,1,,,,,
,0.64,,,,,,,,,f.PNG,f,5d88f010859c9e0001810e88,2021-10-19_15h58.57.000,forced_choiceRT,2021.1.2,Win32,60.04202942,,,,,,,,2,Ontime,f,1,1.9841,0,3,3,0,1,,,,,
,0.47,,,,,,,,,g.PNG,g,5d88f010859c9e0001810e88,2021-10-19_15h58.57.000,forced_choiceRT,2021.1.2,Win32,60.04202942,,,,,,,,2,Ontime,g,1,2.0482,1,0,4,1,1,,,,,
,0.34,,,,,,,,,j.PNG,j,5d88f010859c9e0001810e88,2021-10-19_15h58.57.000,forced_choiceRT,2021.1.2,Win32,60.04202942,,,,,,,,2,Ontime,j,1,1.9051,1,1,5,3,1,,,,,
,0.77,,,,,,,,,g.PNG,g,5d88f010859c9e0001810e88,2021-10-19_15h58.57.000,forced_choiceRT,2021.1.2,Win32,60.04202942,,,,,,,,2,Ontime,h,0,2.033,1,2,6,1,1,,,,,
,1.76,,,,,,,,,h.PNG,h,5d88f010859c9e0001810e88,2021-10-19_15h58.57.000,forced_choiceRT,2021.1.2,Win32,60.04202942,,,,,,,,2,Slow,h,1,2.2233,1,3,7,2,1,,,,,
,0.13,,,,,,,,,g.PNG,g,5d88f010859c9e0001810e88,2021-10-19_15h58.57.000,forced_choiceRT,2021.1.2,Win32,60.04202942,,,,,,,,2,Ontime,g,1,1.9332,2,0,8,1,1,,,,,
,0.78,,,,,,,,,f.PNG,f,5d88f010859c9e0001810e88,2021-10-19_15h58.57.000,forced_choiceRT,2021.1.2,Win32,60.04202942,,,,,,,,2,Ontime,f,1,1.9591,2,1,9,0,1,,,,,
,0.5,,,,,,,,,f.PNG,f,5d88f010859c9e0001810e88,2021-10-19_15h58.57.000,forced_choiceRT,2021.1.2,Win32,60.04202942,,,,,,,,2,Ontime,f,1,2.0039,2,2,10,0,1,,,,,
,1.44,,,,,,,,,f.PNG,f,5d88f010859c9e0001810e88,2021-10-19_15h58.57.000,forced_choiceRT,2021.1.2,Win32,60.04202942,,,,,,,,2,Ontime,f,1,2.0354,2,3,11,0,1,,,,,
,0.83,,,,,,,,,f.PNG,f,5d88f010859c9e0001810e88,2021-10-19_15h58.57.000,forced_choiceRT,2021.1.2,Win32,60.04202942,,,,,,,,2,Ontime,f,1,1.9432,3,0,12,0,1,,,,,
,0.35,,,,,,,,,g.PNG,g,5d88f010859c9e0001810e88,2021-10-19_15h58.57.000,forced_choiceRT,2021.1.2,Win32,60.04202942,,,,,,,,2,Ontime,g,1,1.9946,3,1,13,1,1,,,,,
,0.98,,,,,,,,,j.PNG,j,5d88f010859c9e0001810e88,2021-10-19_15h58.57.000,forced_choiceRT,2021.1.2,Win32,60.04202942,,,,,,,,2,Ontime,j,1,2.0229,3,2,14,3,1,,,,,
,1.19,,,,,,,,,j.PNG,j,5d88f010859c9e0001810e88,2021-10-19_15h58.57.000,forced_choiceRT,2021.1.2,Win32,60.04202942,,,,,,,,2,Ontime,j,1,2.0602,3,3,15,3,1,,,,,
,0.47,,,,,,,,,h.PNG,h,5d88f010859c9e0001810e88,2021-10-19_15h58.57.000,forced_choiceRT,2021.1.2,Win32,60.04202942,,,,,,,,2,Ontime,h,1,1.9678,4,0,16,2,1,,,,,
,1.04,,,,,,,,,h.PNG,h,5d88f010859c9e0001810e88,2021-10-19_15h58.57.000,forced_choiceRT,2021.1.2,Win32,60.04202942,,,,,,,,2,Ontime,h,1,2.0562,4,1,17,2,1,,,,,
,1.66,,,,,,,,,f.PNG,f,5d88f010859c9e0001810e88,2021-10-19_15h58.57.000,forced_choiceRT,2021.1.2,Win32,60.04202942,,,,,,,,2,Slow,g,0,2.1694,4,2,18,0,1,,,,,
,0.8,,,,,,,,,j.PNG,j,5d88f010859c9e0001810e88,2021-10-19_15h58.57.000,forced_choiceRT,2021.1.2,Win32,60.04202942,,,,,,,,2,Fast,j,1,1.8441,4,3,19,3,1,,,,,
,1.37,,,,,,,,,h.PNG,h,5d88f010859c9e0001810e88,2021-10-19_15h58.57.000,forced_choiceRT,2021.1.2,Win32,60.04202942,,,,,,,,2,Ontime,h,1,2.0677,5,0,20,2,1,,,,,
,1.98,,,,,,,,,g.PNG,g,5d88f010859c9e0001810e88,2021-10-19_15h58.57.000,forced_choiceRT,2021.1.2,Win32,60.04202942,,,,,,,,2,Slow,j,0,2.294,5,1,21,1,1,,,,,
,1.5,,,,,,,,,f.PNG,f,5d88f010859c9e0001810e88,2021-10-19_15h58.57.000,forced_choiceRT,2021.1.2,Win32,60.04202942,,,,,,,,2,Ontime,h,0,1.9089,5,2,22,0,1,,,,,
,1.94,,,,,,,,,h.PNG,h,5d88f010859c9e0001810e88,2021-10-19_15h58.57.000,forced_choiceRT,2021.1.2,Win32,60.04202942,,,,,,,,2,Slow,f,0,2.2175,5,3,23,2,1,,,,,
,0.85,,,,,,,,,h.PNG,h,5d88f010859c9e0001810e88,2021-10-19_15h58.57.000,forced_choiceRT,2021.1.2,Win32,60.04202942,,,,,,,,2,Ontime,h,1,2.0061,6,0,24,2,1,,,,,
,1.29,,,,,,,,,g.PNG,g,5d88f010859c9e0001810e88,2021-10-19_15h58.57.000,forced_choiceRT,2021.1.2,Win32,60.04202942,,,,,,,,2,Ontime,g,1,2.018,6,1,25,1,1,,,,,
,0.18,,,,,,,,,f.PNG,f,5d88f010859c9e0001810e88,2021-10-19_15h58.57.000,forced_choiceRT,2021.1.2,Win32,60.04202942,,,,,,,,2,Ontime,f,1,1.9281,6,2,26,0,1,,,,,
,0.74,,,,,,,,,j.PNG,j,5d88f010859c9e0001810e88,2021-10-19_15h58.57.000,forced_choiceRT,2021.1.2,Win32,60.04202942,,,,,,,,2,Ontime,j,1,1.9217,6,3,27,3,1,,,,,
,1.14,,,,,,,,,f.PNG,f,5d88f010859c9e0001810e88,2021-10-19_15h58.57.000,forced_choiceRT,2021.1.2,Win32,60.04202942,,,,,,,,2,Ontime,f,1,1.9946,7,0,28,0,1,,,,,
,1.09,,,,,,,,,g.PNG,g,5d88f010859c9e0001810e88,2021-10-19_15h58.57.000,forced_choiceRT,2021.1.2,Win32,60.04202942,,,,,,,,2,Ontime,h,0,1.9742,7,1,29,1,1,,,,,
,1.23,,,,,,,,,j.PNG,j,5d88f010859c9e0001810e88,2021-10-19_15h58.57.000,forced_choiceRT,2021.1.2,Win32,60.04202942,,,,,,,,2,Ontime,j,1,1.9657,7,2,30,3,1,,,,,
,0.68,,,,,,,,,h.PNG,h,5d88f010859c9e0001810e88,2021-10-19_15h58.57.000,forced_choiceRT,2021.1.2,Win32,60.04202942,,,,,,,,2,Ontime,h,1,2.0166,7,3,31,2,1,,,,,
,0.67,,,,,,,,,h.PNG,h,5d88f010859c9e0001810e88,2021-10-19_15h58.57.000,forced_choiceRT,2021.1.2,Win32,60.04202942,,,,,,,,2,Ontime,h,1,1.9604,8,0,32,2,1,,,,,
,0.79,,,,,,,,,h.PNG,h,5d88f010859c9e0001810e88,2021-10-19_15h58.57.000,forced_choiceRT,2021.1.2,Win32,60.04202942,,,,,,,,2,Ontime,h,1,2,8,1,33,2,1,,,,,
,0.22,,,,,,,,,g.PNG,g,5d88f010859c9e0001810e88,2021-10-19_15h58.57.000,forced_choiceRT,2021.1.2,Win32,60.04202942,,,,,,,,2,Ontime,g,1,1.9373,8,2,34,1,1,,,,,
,1.22,,,,,,,,,j.PNG,j,5d88f010859c9e0001810e88,2021-10-19_15h58.57.000,forced_choiceRT,2021.1.2,Win32,60.04202942,,,,,,,,2,Ontime,j,1,2.0236,8,3,35,3,1,,,,,
,1.32,,,,,,,,,j.PNG,j,5d88f010859c9e0001810e88,2021-10-19_15h58.57.000,forced_choiceRT,2021.1.2,Win32,60.04202942,,,,,,,,2,Ontime,j,1,2.0342,9,0,36,3,1,,,,,
,0.73,,,,,,,,,g.PNG,g,5d88f010859c9e0001810e88,2021-10-19_15h58.57.000,forced_choiceRT,2021.1.2,Win32,60.04202942,,,,,,,,2,Ontime,h,0,1.9671,9,1,37,1,1,,,,,
,1.95,,,,,,,,,j.PNG,j,5d88f010859c9e0001810e88,2021-10-19_15h58.57.000,forced_choiceRT,2021.1.2,Win32,60.04202942,,,,,,,,2,Slow,h,0,2.3421,9,2,38,3,1,,,,,
,1.26,,,,,,,,,j.PNG,j,5d88f010859c9e0001810e88,2021-10-19_15h58.57.000,forced_choiceRT,2021.1.2,Win32,60.04202942,,,,,,,,2,Fast,j,1,1.8875,9,3,39,3,1,,,,,
,,,,,,,,,,,,5d88f010859c9e0001810e88,2021-10-19_15h58.57.000,forced_choiceRT,2021.1.2,Win32,60.04202942,,,,,,,,,,,,,,,,,,1,0,1,0,1
,0.42,,,,,,,,,j.PNG,j,5d88f010859c9e0001810e88,2021-10-19_15h58.57.000,forced_choiceRT,2021.1.2,Win32,60.04202942,,,,,,,,3,Fast,j,1,1.8545,0,0,0,3,1,,,,,
,0.72,,,,,,,,,j.PNG,j,5d88f010859c9e0001810e88,2021-10-19_15h58.57.000,forced_choiceRT,2021.1.2,Win32,60.04202942,,,,,,,,3,Fast,j,1,1.6071,0,1,1,3,1,,,,,
,0.7,,,,,,,,,g.PNG,g,5d88f010859c9e0001810e88,2021-10-19_15h58.57.000,forced_choiceRT,2021.1.2,Win32,60.04202942,,,,,,,,3,Ontime,g,1,1.9009,0,2,2,1,1,,,,,
,1.8,,,,,,,,,g.PNG,g,5d88f010859c9e0001810e88,2021-10-19_15h58.57.000,forced_choiceRT,2021.1.2,Win32,60.04202942,,,,,,,,3,Slow,g,1,2.1311,0,3,3,1,1,,,,,
,0.73,,,,,,,,,j.PNG,j,5d88f010859c9e0001810e88,2021-10-19_15h58.57.000,forced_choiceRT,2021.1.2,Win32,60.04202942,,,,,,,,3,Ontime,j,1,1.947,1,0,4,3,1,,,,,
,1.52,,,,,,,,,h.PNG,h,5d88f010859c9e0001810e88,2021-10-19_15h58.57.000,forced_choiceRT,2021.1.2,Win32,60.04202942,,,,,,,,3,Ontime,j,0,2.0134,1,1,5,2,1,,,,,
,0.02,,,,,,,,,g.PNG,g,5d88f010859c9e0001810e88,2021-10-19_15h58.57.000,forced_choiceRT,2021.1.2,Win32,60.04202942,,,,,,,,3,Ontime,g,1,1.9711,1,2,6,1,1,,,,,
,1.86,,,,,,,,,f.PNG,f,5d88f010859c9e0001810e88,2021-10-19_15h58.57.000,forced_choiceRT,2021.1.2,Win32,60.04202942,,,,,,,,3,Slow,g,0,2.1216,1,3,7,0,1,,,,,
,0.25,,,,,,,,,f.PNG,f,5d88f010859c9e0001810e88,2021-10-19_15h58.57.000,forced_choiceRT,2021.1.2,Win32,60.04202942,,,,,,,,3,Ontime,f,1,1.9505,2,0,8,0,1,,,,,
,0.43,,,,,,,,,f.PNG,f,5d88f010859c9e0001810e88,2021-10-19_15h58.57.000,forced_choiceRT,2021.1.2,Win32,60.04202942,,,,,,,,3,Ontime,f,1,1.9555,2,1,9,0,1,,,,,
,0.46,,,,,,,,,h.PNG,h,5d88f010859c9e0001810e88,2021-10-19_15h58.57.000,forced_choiceRT,2021.1.2,Win32,60.04202942,,,,,,,,3,Ontime,h,1,2.0115,2,2,10,2,1,,,,,
,0.95,,,,,,,,,j.PNG,j,5d88f010859c9e0001810e88,2021-10-19_15h58.57.000,forced_choiceRT,2021.1.2,Win32,60.04202942,,,,,,,,3,Ontime,j,1,2.0001,2,3,11,3,1,,,,,
,1.7,,,,,,,,,h.PNG,h,5d88f010859c9e0001810e88,2021-10-19_15h58.57.000,forced_choiceRT,2021.1.2,Win32,60.04202942,,,,,,,,3,Slow,j,0,2.2244,3,0,12,2,1,,,,,
,0.6,,,,,,,,,g.PNG,g,5d88f010859c9e0001810e88,2021-10-19_15h58.57.000,forced_choiceRT,2021.1.2,Win32,60.04202942,,,,,,,,3,Ontime,g,1,1.9172,3,1,13,1,1,,,,,
,0.09,,,,,,,,,h.PNG,h,5d88f010859c9e0001810e88,2021-10-19_15h58.57.000,forced_choiceRT,2021.1.2,Win32,60.04202942,,,,,,,,3,Ontime,h,1,2.0211,3,2,14,2,1,,,,,
,1.21,,,,,,,,,g.PNG,g,5d88f010859c9e0001810e88,2021-10-19_15h58.57.000,forced_choiceRT,2021.1.2,Win32,60.04202942,,,,,,,,3,Ontime,g,1,2.0155,3,3,15,1,1,,,,,
,0.67,,,,,,,,,j.PNG,j,5d88f010859c9e0001810e88,2021-10-19_15h58.57.000,forced_choiceRT,2021.1.2,Win32,60.04202942,,,,,,,,3,Ontime,j,1,1.9649,4,0,16,3,1,,,,,
,0.09,,,,,,,,,h.PNG,h,5d88f010859c9e0001810e88,2021-10-19_15h58.57.000,forced_choiceRT,2021.1.2,Win32,60.04202942,,,,,,,,3,Ontime,h,1,1.922,4,1,17,2,1,,,,,
,0.59,,,,,,,,,j.PNG,j,5d88f010859c9e0001810e88,2021-10-19_15h58.57.000,forced_choiceRT,2021.1.2,Win32,60.04202942,,,,,,,,3,Ontime,j,1,1.9342,4,2,18,3,1,,,,,
,0.95,,,,,,,,,f.PNG,f,5d88f010859c9e0001810e88,2021-10-19_15h58.57.000,forced_choiceRT,2021.1.2,Win32,60.04202942,,,,,,,,3,Ontime,f,1,1.9898,4,3,19,0,1,,,,,
,1.63,,,,,,,,,h.PNG,h,5d88f010859c9e0001810e88,2021-10-19_15h58.57.000,forced_choiceRT,2021.1.2,Win32,60.04202942,,,,,,,,3,Slow,j,0,2.1177,5,0,20,2,1,,,,,
,1.17,,,,,,,,,g.PNG,g,5d88f010859c9e0001810e88,2021-10-19_15h58.57.000,forced_choiceRT,2021.1.2,Win32,60.04202942,,,,,,,,3,Ontime,h,0,1.9678,5,1,21,1,1,,,,,
,0.49,,,,,,,,,j.PNG,j,5d88f010859c9e0001810e88,2021-10-19_15h58.57.000,forced_choiceRT,2021.1.2,Win32,60.04202942,,,,,,,,3,Ontime,j,1,1.9256,5,2,22,3,1,,,,,
,0.63,,,,,,,,,h.PNG,h,5d88f010859c9e0001810e88,2021-10-19_15h58.57.000,forced_choiceRT,2021.1.2,Win32,60.04202942,,,,,,,,3,Ontime,h,1,1.9488,5,3,23,2,1,,,,,
,0.79,,,,,,,,,g.PNG,g,5d88f010859c9e0001810e88,2021-10-19_15h58.57.000,forced_choiceRT,2021.1.2,Win32,60.04202942,,,,,,,,3,Ontime,h,0,1.9262,6,0,24,1,1,,,,,
,1.83,,,,,,,,,g.PNG,g,5d88f010859c9e0001810e88,2021-10-19_15h58.57.000,forced_choiceRT,2021.1.2,Win32,60.04202942,,,,,,,,3,Ontime,h,0,2.0947,6,1,25,1,1,,,,,
,1.14,,,,,,,,,f.PNG,f,5d88f010859c9e0001810e88,2021-10-19_15h58.57.000,forced_choiceRT,2021.1.2,Win32,60.04202942,,,,,,,,3,Ontime,f,1,1.9179,6,2,26,0,1,,,,,
,1.9,,,,,,,,,f.PNG,f,5d88f010859c9e0001810e88,2021-10-19_15h58.57.000,forced_choiceRT,2021.1.2,Win32,60.04202942,,,,,,,,3,Ontime,h,0,2.0913,6,3,27,0,1,,,,,
,1.86,,,,,,,,,f.PNG,f,5d88f010859c9e0001810e88,2021-10-19_15h58.57.000,forced_choiceRT,2021.1.2,Win32,60.04202942,,,,,,,,3,Slow,f,1,2.1719,7,0,28,0,1,,,,,
,0.52,,,,,,,,,j.PNG,j,5d88f010859c9e0001810e88,2021-10-19_15h58.57.000,forced_choiceRT,2021.1.2,Win32,60.04202942,,,,,,,,3,Ontime,j,1,1.9423,7,1,29,3,1,,,,,
,1.64,,,,,,,,,g.PNG,g,5d88f010859c9e0001810e88,2021-10-19_15h58.57.000,forced_choiceRT,2021.1.2,Win32,60.04202942,,,,,,,,3,Slow,h,0,2.1836,7,2,30,1,1,,,,,
,0.82,,,,,,,,,j.PNG,j,5d88f010859c9e0001810e88,2021-10-19_15h58.57.000,forced_choiceRT,2021.1.2,Win32,60.04202942,,,,,,,,3,Fast,j,1,1.8937,7,3,31,3,1,,,,,
,0.65,,,,,,,,,f.PNG,f,5d88f010859c9e0001810e88,2021-10-19_15h58.57.000,forced_choiceRT,2021.1.2,Win32,60.04202942,,,,,,,,3,Fast,f,1,1.89,8,0,32,0,1,,,,,
,1.12,,,,,,,,,h.PNG,h,5d88f010859c9e0001810e88,2021-10-19_15h58.57.000,forced_choiceRT,2021.1.2,Win32,60.04202942,,,,,,,,3,Ontime,h,1,2.0298,8,1,33,2,1,,,,,
,1.85,,,,,,,,,h.PNG,h,5d88f010859c9e0001810e88,2021-10-19_15h58.57.000,forced_choiceRT,2021.1.2,Win32,60.04202942,,,,,,,,3,Slow,f,0,2.1488,8,2,34,2,1,,,,,
,0.63,,,,,,,,,g.PNG,g,5d88f010859c9e0001810e88,2021-10-19_15h58.57.000,forced_choiceRT,2021.1.2,Win32,60.04202942,,,,,,,,3,Ontime,g,1,1.9781,8,3,35,1,1,,,,,
,0.69,,,,,,,,,f.PNG,f,5d88f010859c9e0001810e88,2021-10-19_15h58.57.000,forced_choiceRT,2021.1.2,Win32,60.04202942,,,,,,,,3,Ontime,f,1,1.9209,9,0,36,0,1,,,,,
,0.93,,,,,,,,,h.PNG,h,5d88f010859c9e0001810e88,2021-10-19_15h58.57.000,forced_choiceRT,2021.1.2,Win32,60.04202942,,,,,,,,3,Ontime,h,1,1.9342,9,1,37,2,1,,,,,
,1.47,,,,,,,,,j.PNG,j,5d88f010859c9e0001810e88,2021-10-19_15h58.57.000,forced_choiceRT,2021.1.2,Win32,60.04202942,,,,,,,,3,Ontime,j,1,2.0269,9,2,38,3,1,,,,,
,0.85,,,,,,,,,f.PNG,f,5d88f010859c9e0001810e88,2021-10-19_15h58.57.000,forced_choiceRT,2021.1.2,Win32,60.04202942,,,,,,,,3,Fast,f,1,1.8935,9,3,39,0,1,,,,,
,,,,,,,,,,,,5d88f010859c9e0001810e88,2021-10-19_15h58.57.000,forced_choiceRT,2021.1.2,Win32,60.04202942,,,,,,,,,,,,,,,,,,2,0,2,0,1
,1.98,,,,,,,,,h.PNG,h,5d88f010859c9e0001810e88,2021-10-19_15h58.57.000,forced_choiceRT,2021.1.2,Win32,60.04202942,,,,,,,,4,Slow,h,1,5.2927,0,0,0,2,1,,,,,
,0.04,,,,,,,,,h.PNG,h,5d88f010859c9e0001810e88,2021-10-19_15h58.57.000,forced_choiceRT,2021.1.2,Win32,60.04202942,,,,,,,,4,Fast,h,1,1.8847,0,1,1,2,1,,,,,
,0.84,,,,,,,,,j.PNG,j,5d88f010859c9e0001810e88,2021-10-19_15h58.57.000,forced_choiceRT,2021.1.2,Win32,60.04202942,,,,,,,,4,Ontime,j,1,1.9694,0,2,2,3,1,,,,,
,1.74,,,,,,,,,f.PNG,f,5d88f010859c9e0001810e88,2021-10-19_15h58.57.000,forced_choiceRT,2021.1.2,Win32,60.04202942,,,,,,,,4,Slow,f,1,2.2105,0,3,3,0,1,,,,,
,0.45,,,,,,,,,j.PNG,j,5d88f010859c9e0001810e88,2021-10-19_15h58.57.000,forced_choiceRT,2021.1.2,Win32,60.04202942,,,,,,,,4,Ontime,j,1,1.9357,1,0,4,3,1,,,,,
,1.58,,,,,,,,,h.PNG,h,5d88f010859c9e0001810e88,2021-10-19_15h58.57.000,forced_choiceRT,2021.1.2,Win32,60.04202942,,,,,,,,4,Ontime,j,0,2.079,1,1,5,2,1,,,,,
,1.82,,,,,,,,,j.PNG,j,5d88f010859c9e0001810e88,2021-10-19_15h58.57.000,forced_choiceRT,2021.1.2,Win32,60.04202942,,,,,,,,4,Slow,h,0,2.1007,1,2,6,3,1,,,,,
,1.01,,,,,,,,,f.PNG,f,5d88f010859c9e0001810e88,2021-10-19_15h58.57.000,forced_choiceRT,2021.1.2,Win32,60.04202942,,,,,,,,4,Fast,f,1,1.8894,1,3,7,0,1,,,,,
,1.56,,,,,,,,,j.PNG,j,5d88f010859c9e0001810e88,2021-10-19_15h58.57.000,forced_choiceRT,2021.1.2,Win32,60.04202942,,,,,,,,4,Ontime,j,1,2.054,2,0,8,3,1,,,,,
,1.88,,,,,,,,,g.PNG,g,5d88f010859c9e0001810e88,2021-10-19_15h58.57.000,forced_choiceRT,2021.1.2,Win32,60.04202942,,,,,,,,4,Slow,h,0,2.142,2,1,9,1,1,,,,,
,1.76,,,,,,,,,h.PNG,h,5d88f010859c9e0001810e88,2021-10-19_15h58.57.000,forced_choiceRT,2021.1.2,Win32,60.04202942,,,,,,,,4,Slow,j,0,2.202,2,2,10,2,1,,,,,
,1.85,,,,,,,,,f.PNG,f,5d88f010859c9e0001810e88,2021-10-19_15h58.57.000,forced_choiceRT,2021.1.2,Win32,60.04202942,,,,,,,,4,Slow,h,0,2.17,2,3,11,0,1,,,,,
,1.12,,,,,,,,,j.PNG,j,5d88f010859c9e0001810e88,2021-10-19_15h58.57.000,forced_choiceRT,2021.1.2,Win32,60.04202942,,,,,,,,4,Fast,j,1,1.749,3,0,12,3,1,,,,,
,1.63,,,,,,,,,j.PNG,j,5d88f010859c9e0001810e88,2021-10-19_15h58.57.000,forced_choiceRT,2021.1.2,Win32,60.04202942,,,,,,,,4,Ontime,h,0,2.0223,3,1,13,3,1,,,,,
,0.75,,,,,,,,,g.PNG,g,5d88f010859c9e0001810e88,2021-10-19_15h58.57.000,forced_choiceRT,2021.1.2,Win32,60.04202942,,,,,,,,4,Fast,g,1,1.7872,3,2,14,1,1,,,,,
,0.96,,,,,,,,,h.PNG,h,5d88f010859c9e0001810e88,2021-10-19_15h58.57.000,forced_choiceRT,2021.1.2,Win32,60.04202942,,,,,,,,4,Fast,h,1,1.8504,3,3,15,2,1,,,,,
,1.18,,,,,,,,,f.PNG,f,5d88f010859c9e0001810e88,2021-10-19_15h58.57.000,forced_choiceRT,2021.1.2,Win32,60.04202942,,,,,,,,4,Ontime,f,1,1.9688,4,0,16,0,1,,,,,
,0.55,,,,,,,,,f.PNG,f,5d88f010859c9e0001810e88,2021-10-19_15h58.57.000,forced_choiceRT,2021.1.2,Win32,60.04202942,,,,,,,,4,Ontime,f,1,1.9161,4,1,17,0,1,,,,,
,0.17,,,,,,,,,f.PNG,f,5d88f010859c9e0001810e88,2021-10-19_15h58.57.000,forced_choiceRT,2021.1.2,Win32,60.04202942,,,,,,,,4,Ontime,f,1,1.9596,4,2,18,0,1,,,,,
,1.14,,,,,,,,,j.PNG,j,5d88f010859c9e0001810e88,2021-10-19_15h58.57.000,forced_choiceRT,2021.1.2,Win32,60.04202942,,,,,,,,4,Ontime,j,1,2.0649,4,3,19,3,1,,,,,
,0.61,,,,,,,,,j.PNG,j,5d88f010859c9e0001810e88,2021-10-19_15h58.57.000,forced_choiceRT,2021.1.2,Win32,60.04202942,,,,,,,,4,Ontime,j,1,1.9408,5,0,20,3,1,,,,,
,0.21,,,,,,,,,h.PNG,h,5d88f010859c9e0001810e88,2021-10-19_15h58.57.000,forced_choiceRT,2021.1.2,Win32,60.04202942,,,,,,,,4,Ontime,h,1,2.0302,5,1,21,2,1,,,,,
,1.18,,,,,,,,,h.PNG,h,5d88f010859c9e0001810e88,2021-10-19_15h58.57.000,forced_choiceRT,2021.1.2,Win32,60.04202942,,,,,,,,4,Ontime,h,1,1.9926,5,2,22,2,1,,,,,
,1.73,,,,,,,,,f.PNG,f,5d88f010859c9e0001810e88,2021-10-19_15h58.57.000,forced_choiceRT,2021.1.2,Win32,60.04202942,,,,,,,,4,Slow,g,0,2.169,5,3,23,0,1,,,,,
,1.58,,,,,,,,,f.PNG,f,5d88f010859c9e0001810e88,2021-10-19_15h58.57.000,forced_choiceRT,2021.1.2,Win32,60.04202942,,,,,,,,4,Slow,f,1,2.1654,6,0,24,0,1,,,,,
,0.2,,,,,,,,,j.PNG,j,5d88f010859c9e0001810e88,2021-10-19_15h58.57.000,forced_choiceRT,2021.1.2,Win32,60.04202942,,,,,,,,4,Ontime,j,1,1.9274,6,1,25,3,1,,,,,
,0.16,,,,,,,,,g.PNG,g,5d88f010859c9e0001810e88,2021-10-19_15h58.57.000,forced_choiceRT,2021.1.2,Win32,60.04202942,,,,,,,,4,Ontime,g,1,1.9834,6,2,26,1,1,,,,,
,1.05,,,,,,,,,g.PNG,g,5d88f010859c9e0001810e88,2021-10-19_15h58.57.000,forced_choiceRT,2021.1.2,Win32,60.04202942,,,,,,,,4,Ontime,g,1,1.9305,6,3,27,1,1,,,,,
,0.81,,,,,,,,,j.PNG,j,5d88f010859c9e0001810e88,2021-10-19_15h58.57.000,forced_choiceRT,2021.1.2,Win32,60.04202942,,,,,,,,4,Ontime,j,1,2.0341,7,0,28,3,1,,,,,
,1.24,,,,,,,,,g.PNG,g,5d88f010859c9e0001810e88,2021-10-19_15h58.57.000,forced_choiceRT,2021.1.2,Win32,60.04202942,,,,,,,,4,Ontime,g,1,2.0179,7,1,29,1,1,,,,,
,0.61,,,,,,,,,g.PNG,g,5d88f010859c9e0001810e88,2021-10-19_15h58.57.000,forced_choiceRT,2021.1.2,Win32,60.04202942,,,,,,,,4,Ontime,g,1,1.9106,7,2,30,1,1,,,,,
,1.74,,,,,,,,,g.PNG,g,5d88f010859c9e0001810e88,2021-10-19_15h58.57.000,forced_choiceRT,2021.1.2,Win32,60.04202942,,,,,,,,4,Slow,g,1,2.126,7,3,31,1,1,,,,,
,1.91,,,,,,,,,g.PNG,g,5d88f010859c9e0001810e88,2021-10-19_15h58.57.000,forced_choiceRT,2021.1.2,Win32,60.04202942,,,,,,,,4,Slow,g,1,2.1837,8,0,32,1,1,,,,,
,0.12,,,,,,,,,g.PNG,g,5d88f010859c9e0001810e88,2021-10-19_15h58.57.000,forced_choiceRT,2021.1.2,Win32,60.04202942,,,,,,,,4,Fast,g,1,1.8402,8,1,33,1,1,,,,,
,1.24,,,,,,,,,h.PNG,h,5d88f010859c9e0001810e88,2021-10-19_15h58.57.000,forced_choiceRT,2021.1.2,Win32,60.04202942,,,,,,,,4,Slow,h,1,2.1671,8,2,34,2,1,,,,,
,0.33,,,,,,,,,f.PNG,f,5d88f010859c9e0001810e88,2021-10-19_15h58.57.000,forced_choiceRT,2021.1.2,Win32,60.04202942,,,,,,,,4,Ontime,f,1,1.9727,8,3,35,0,1,,,,,
,1.82,,,,,,,,,g.PNG,g,5d88f010859c9e0001810e88,2021-10-19_15h58.57.000,forced_choiceRT,2021.1.2,Win32,60.04202942,,,,,,,,4,Ontime,g,1,2.0303,9,0,36,1,1,,,,,
,1.82,,,,,,,,,h.PNG,h,5d88f010859c9e0001810e88,2021-10-19_15h58.57.000,forced_choiceRT,2021.1.2,Win32,60.04202942,,,,,,,,4,Ontime,h,1,2.0919,9,1,37,2,1,,,,,
,1.8,,,,,,,,,f.PNG,f,5d88f010859c9e0001810e88,2021-10-19_15h58.57.000,forced_choiceRT,2021.1.2,Win32,60.04202942,,,,,,,,4,Ontime,h,0,2.0344,9,2,38,0,1,,,,,
,1.81,,,,,,,,,h.PNG,h,5d88f010859c9e0001810e88,2021-10-19_15h58.57.000,forced_choiceRT,2021.1.2,Win32,60.04202942,,,,,,,,4,Ontime,h,1,2.0029,9,3,39,2,1,,,,,
,,,,,,,,,,,,5d88f010859c9e0001810e88,2021-10-19_15h58.57.000,forced_choiceRT,2021.1.2,Win32,60.04202942,,,,,,,,,,,,,,,,,,3,0,3,0,1
,1.3,,,,,,,,,g.PNG,g,5d88f010859c9e0001810e88,2021-10-19_15h58.57.000,forced_choiceRT,2021.1.2,Win32,60.04202942,,,,,,,,5,Slow,g,1,2.197,0,0,0,1,1,,,,,
,0.84,,,,,,,,,j.PNG,j,5d88f010859c9e0001810e88,2021-10-19_15h58.57.000,forced_choiceRT,2021.1.2,Win32,60.04202942,,,,,,,,5,Ontime,j,1,1.9521,0,1,1,3,1,,,,,
,1.21,,,,,,,,,g.PNG,g,5d88f010859c9e0001810e88,2021-10-19_15h58.57.000,forced_choiceRT,2021.1.2,Win32,60.04202942,,,,,,,,5,Ontime,h,0,1.9665,0,2,2,1,1,,,,,
,0.53,,,,,,,,,j.PNG,j,5d88f010859c9e0001810e88,2021-10-19_15h58.57.000,forced_choiceRT,2021.1.2,Win32,60.04202942,,,,,,,,5,Ontime,j,1,2.0155,0,3,3,3,1,,,,,
,0.12,,,,,,,,,h.PNG,h,5d88f010859c9e0001810e88,2021-10-19_15h58.57.000,forced_choiceRT,2021.1.2,Win32,60.04202942,,,,,,,,5,Ontime,h,1,2.038,1,0,4,2,1,,,,,
,1.88,,,,,,,,,g.PNG,g,5d88f010859c9e0001810e88,2021-10-19_15h58.57.000,forced_choiceRT,2021.1.2,Win32,60.04202942,,,,,,,,5,Slow,g,1,2.1487,1,1,5,1,1,,,,,
,0.94,,,,,,,,,g.PNG,g,5d88f010859c9e0001810e88,2021-10-19_15h58.57.000,forced_choiceRT,2021.1.2,Win32,60.04202942,,,,,,,,5,Ontime,g,1,2.0788,1,2,6,1,1,,,,,
,0.47,,,,,,,,,h.PNG,h,5d88f010859c9e0001810e88,2021-10-19_15h58.57.000,forced_choiceRT,2021.1.2,Win32,60.04202942,,,,,,,,5,Ontime,h,1,2.0438,1,3,7,2,1,,,,,
,0.48,,,,,,,,,f.PNG,f,5d88f010859c9e0001810e88,2021-10-19_15h58.57.000,forced_choiceRT,2021.1.2,Win32,60.04202942,,,,,,,,5,Ontime,f,1,1.9605,2,0,8,0,1,,,,,
,0.59,,,,,,,,,j.PNG,j,5d88f010859c9e0001810e88,2021-10-19_15h58.57.000,forced_choiceRT,2021.1.2,Win32,60.04202942,,,,,,,,5,Ontime,j,1,2.0163,2,1,9,3,1,,,,,
,0.32,,,,,,,,,f.PNG,f,5d88f010859c9e0001810e88,2021-10-19_15h58.57.000,forced_choiceRT,2021.1.2,Win32,60.04202942,,,,,,,,5,Ontime,f,1,2.0243,2,2,10,0,1,,,,,
,1.68,,,,,,,,,h.PNG,h,5d88f010859c9e0001810e88,2021-10-19_15h58.57.000,forced_choiceRT,2021.1.2,Win32,60.04202942,,,,,,,,5,Slow,f,0,2.1026,2,3,11,2,1,,,,,
,1.29,,,,,,,,,f.PNG,f,5d88f010859c9e0001810e88,2021-10-19_15h58.57.000,forced_choiceRT,2021.1.2,Win32,60.04202942,,,,,,,,5,Ontime,f,1,2.0827,3,0,12,0,1,,,,,
,0.12,,,,,,,,,g.PNG,g,5d88f010859c9e0001810e88,2021-10-19_15h58.57.000,forced_choiceRT,2021.1.2,Win32,60.04202942,,,,,,,,5,Ontime,g,1,1.9207,3,1,13,1,1,,,,,
,0.81,,,,,,,,,f.PNG,f,5d88f010859c9e0001810e88,2021-10-19_15h58.57.000,forced_choiceRT,2021.1.2,Win32,60.04202942,,,,,,,,5,Ontime,f,1,2.0386,3,2,14,0,1,,,,,
,0.12,,,,,,,,,f.PNG,f,5d88f010859c9e0001810e88,2021-10-19_15h58.57.000,forced_choiceRT,2021.1.2,Win32,60.04202942,,,,,,,,5,Ontime,f,1,1.9994,3,3,15,0,1,,,,,
,1.54,,,,,,,,,h.PNG,h,5d88f010859c9e0001810e88,2021-10-19_15h58.57.000,forced_choiceRT,2021.1.2,Win32,60.04202942,,,,,,,,5,Slow,h,1,2.127,4,0,16,2,1,,,,,
,1.14,,,,,,,,,h.PNG,h,5d88f010859c9e0001810e88,2021-10-19_15h58.57.000,forced_choiceRT,2021.1.2,Win32,60.04202942,,,,,,,,5,Slow,h,1,2.1602,4,1,17,2,1,,,,,
,1.75,,,,,,,,,g.PNG,g,5d88f010859c9e0001810e88,2021-10-19_15h58.57.000,forced_choiceRT,2021.1.2,Win32,60.04202942,,,,,,,,5,Ontime,h,0,2.0375,4,2,18,1,1,,,,,
,1.97,,,,,,,,,h.PNG,h,5d88f010859c9e0001810e88,2021-10-19_15h58.57.000,forced_choiceRT,2021.1.2,Win32,60.04202942,,,,,,,,5,Ontime,h,1,2.0119,4,3,19,2,1,,,,,
,1.84,,,,,,,,,j.PNG,j,5d88f010859c9e0001810e88,2021-10-19_15h58.57.000,forced_choiceRT,2021.1.2,Win32,60.04202942,,,,,,,,5,Ontime,h,0,2.0341,5,0,20,3,1,,,,,
,1.43,,,,,,,,,f.PNG,f,5d88f010859c9e0001810e88,2021-10-19_15h58.57.000,forced_choiceRT,2021.1.2,Win32,60.04202942,,,,,,,,5,Ontime,g,0,1.9508,5,1,21,0,1,,,,,
,0,,,,,,,,,j.PNG,j,5d88f010859c9e0001810e88,2021-10-19_15h58.57.000,forced_choiceRT,2021.1.2,Win32,60.04202942,,,,,,,,5,Fast,j,1,1.8802,5,2,22,3,1,,,,,
,1.39,,,,,,,,,f.PNG,f,5d88f010859c9e0001810e88,2021-10-19_15h58.57.000,forced_choiceRT,2021.1.2,Win32,60.04202942,,,,,,,,5,Ontime,f,1,1.975,5,3,23,0,1,,,,,
,0.79,,,,,,,,,f.PNG,f,5d88f010859c9e0001810e88,2021-10-19_15h58.57.000,forced_choiceRT,2021.1.2,Win32,60.04202942,,,,,,,,5,Fast,f,1,1.7844,6,0,24,0,1,,,,,
,0.38,,,,,,,,,f.PNG,f,5d88f010859c9e0001810e88,2021-10-19_15h58.57.000,forced_choiceRT,2021.1.2,Win32,60.04202942,,,,,,,,5,Ontime,f,1,2.0328,6,1,25,0,1,,,,,
,1.17,,,,,,,,,j.PNG,j,5d88f010859c9e0001810e88,2021-10-19_15h58.57.000,forced_choiceRT,2021.1.2,Win32,60.04202942,,,,,,,,5,Ontime,j,1,2.0421,6,2,26,3,1,,,,,
,0.1,,,,,,,,,j.PNG,j,5d88f010859c9e0001810e88,2021-10-19_15h58.57.000,forced_choiceRT,2021.1.2,Win32,60.04202942,,,,,,,,5,Ontime,j,1,1.9724,6,3,27,3,1,,,,,
,0.93,,,,,,,,,f.PNG,f,5d88f010859c9e0001810e88,2021-10-19_15h58.57.000,forced_choiceRT,2021.1.2,Win32,60.04202942,,,,,,,,5,Ontime,f,1,2.0332,7,0,28,0,1,,,,,
,1.82,,,,,,,,,h.PNG,h,5d88f010859c9e0001810e88,2021-10-19_15h58.57.000,forced_choiceRT,2021.1.2,Win32,60.04202942,,,,,,,,5,Slow,j,0,2.2033,7,1,29,2,1,,,,,
,0.1,,,,,,,,,g.PNG,g,5d88f010859c9e0001810e88,2021-10-19_15h58.57.000,forced_choiceRT,2021.1.2,Win32,60.04202942,,,,,,,,5,Ontime,g,1,1.9502,7,2,30,1,1,,,,,
,1.49,,,,,,,,,g.PNG,g,5d88f010859c9e0001810e88,2021-10-19_15h58.57.000,forced_choiceRT,2021.1.2,Win32,60.04202942,,,,,,,,5,Slow,h,0,2.1199,7,3,31,1,1,,,,,
,1.67,,,,,,,,,g.PNG,g,5d88f010859c9e0001810e88,2021-10-19_15h58.57.000,forced_choiceRT,2021.1.2,Win32,60.04202942,,,,,,,,5,Slow,g,1,2.2649,8,0,32,1,1,,,,,
,0.26,,,,,,,,,j.PNG,j,5d88f010859c9e0001810e88,2021-10-19_15h58.57.000,forced_choiceRT,2021.1.2,Win32,60.04202942,,,,,,,,5,Ontime,j,1,1.9115,8,1,33,3,1,,,,,
,1.65,,,,,,,,,j.PNG,j,5d88f010859c9e0001810e88,2021-10-19_15h58.57.000,forced_choiceRT,2021.1.2,Win32,60.04202942,,,,,,,,5,Slow,h,0,2.1602,8,2,34,3,1,,,,,
,1.02,,,,,,,,,h.PNG,h,5d88f010859c9e0001810e88,2021-10-19_15h58.57.000,forced_choiceRT,2021.1.2,Win32,60.04202942,,,,,,,,5,Fast,h,1,1.8746,8,3,35,2,1,,,,,
,1.82,,,,,,,,,g.PNG,g,5d88f010859c9e0001810e88,2021-10-19_15h58.57.000,forced_choiceRT,2021.1.2,Win32,60.04202942,,,,,,,,5,Ontime,h,0,2.0674,9,0,36,1,1,,,,,
,0.94,,,,,,,,,h.PNG,h,5d88f010859c9e0001810e88,2021-10-19_15h58.57.000,forced_choiceRT,2021.1.2,Win32,60.04202942,,,,,,,,5,Ontime,h,1,1.9699,9,1,37,2,1,,,,,
,1,,,,,,,,,h.PNG,h,5d88f010859c9e0001810e88,2021-10-19_15h58.57.000,forced_choiceRT,2021.1.2,Win32,60.04202942,,,,,,,,5,Ontime,h,1,1.9061,9,2,38,2,1,,,,,
,0.35,,,,,,,,,j.PNG,j,5d88f010859c9e0001810e88,2021-10-19_15h58.57.000,forced_choiceRT,2021.1.2,Win32,60.04202942,,,,,,,,5,Ontime,j,1,1.9237,9,3,39,3,1,,,,,
,,,,,,,,,,,,5d88f010859c9e0001810e88,2021-10-19_15h58.57.000,forced_choiceRT,2021.1.2,Win32,60.04202942,,,,,,,,,,,,,,,,,,4,0,4,0,1
,1.28,,,,,,,,,f.PNG,f,5d88f010859c9e0001810e88,2021-10-19_15h58.57.000,forced_choiceRT,2021.1.2,Win32,60.04202942,,,,,,,,6,Ontime,g,0,2.0007,0,0,0,0,1,,,,,
,0.56,,,,,,,,,h.PNG,h,5d88f010859c9e0001810e88,2021-10-19_15h58.57.000,forced_choiceRT,2021.1.2,Win32,60.04202942,,,,,,,,6,Ontime,h,1,1.9772,0,1,1,2,1,,,,,
,0.59,,,,,,,,,j.PNG,j,5d88f010859c9e0001810e88,2021-10-19_15h58.57.000,forced_choiceRT,2021.1.2,Win32,60.04202942,,,,,,,,6,Ontime,j,1,1.9931,0,2,2,3,1,,,,,
,0.97,,,,,,,,,f.PNG,f,5d88f010859c9e0001810e88,2021-10-19_15h58.57.000,forced_choiceRT,2021.1.2,Win32,60.04202942,,,,,,,,6,Ontime,g,0,2.0248,0,3,3,0,1,,,,,
,0.11,,,,,,,,,g.PNG,g,5d88f010859c9e0001810e88,2021-10-19_15h58.57.000,forced_choiceRT,2021.1.2,Win32,60.04202942,,,,,,,,6,Ontime,g,1,1.967,1,0,4,1,1,,,,,
,0.74,,,,,,,,,j.PNG,j,5d88f010859c9e0001810e88,2021-10-19_15h58.57.000,forced_choiceRT,2021.1.2,Win32,60.04202942,,,,,,,,6,Ontime,j,1,1.9801,1,1,5,3,1,,,,,
,1.48,,,,,,,,,f.PNG,f,5d88f010859c9e0001810e88,2021-10-19_15h58.57.000,forced_choiceRT,2021.1.2,Win32,60.04202942,,,,,,,,6,Ontime,f,1,2.0869,1,2,6,0,1,,,,,
,0.59,,,,,,,,,g.PNG,g,5d88f010859c9e0001810e88,2021-10-19_15h58.57.000,forced_choiceRT,2021.1.2,Win32,60.04202942,,,,,,,,6,Ontime,g,1,2.0794,1,3,7,1,1,,,,,
,0.08,,,,,,,,,g.PNG,g,5d88f010859c9e0001810e88,2021-10-19_15h58.57.000,forced_choiceRT,2021.1.2,Win32,60.04202942,,,,,,,,6,Ontime,g,1,1.9399,2,0,8,1,1,,,,,
,0.31,,,,,,,,,j.PNG,j,5d88f010859c9e0001810e88,2021-10-19_15h58.57.000,forced_choiceRT,2021.1.2,Win32,60.04202942,,,,,,,,6,Ontime,j,1,1.9061,2,1,9,3,1,,,,,
,0.73,,,,,,,,,g.PNG,g,5d88f010859c9e0001810e88,2021-10-19_15h58.57.000,forced_choiceRT,2021.1.2,Win32,60.04202942,,,,,,,,6,Ontime,g,1,2.0244,2,2,10,1,1,,,,,
,1.78,,,,,,,,,j.PNG,j,5d88f010859c9e0001810e88,2021-10-19_15h58.57.000,forced_choiceRT,2021.1.2,Win32,60.04202942,,,,,,,,6,Slow,g,0,2.2089,2,3,11,3,1,,,,,
,0.95,,,,,,,,,h.PNG,h,5d88f010859c9e0001810e88,2021-10-19_15h58.57.000,forced_choiceRT,2021.1.2,Win32,60.04202942,,,,,,,,6,Ontime,h,1,1.9604,3,0,12,2,1,,,,,
,0.28,,,,,,,,,f.PNG,f,5d88f010859c9e0001810e88,2021-10-19_15h58.57.000,forced_choiceRT,2021.1.2,Win32,60.04202942,,,,,,,,6,Ontime,f,1,1.933,3,1,13,0,1,,,,,
,1.84,,,,,,,,,h.PNG,h,5d88f010859c9e0001810e88,2021-10-19_15h58.57.000,forced_choiceRT,2021.1.2,Win32,60.04202942,,,,,,,,6,Slow,h,1,2.3161,3,2,14,2,1,,,,,
,0.28,,,,,,,,,f.PNG,f,5d88f010859c9e0001810e88,2021-10-19_15h58.57.000,forced_choiceRT,2021.1.2,Win32,60.04202942,,,,,,,,6,Fast,f,1,1.5499,3,3,15,0,1,,,,,
,0.65,,,,,,,,,h.PNG,h,5d88f010859c9e0001810e88,2021-10-19_15h58.57.000,forced_choiceRT,2021.1.2,Win32,60.04202942,,,,,,,,6,Fast,h,1,1.8719,4,0,16,2,1,,,,,
,0.38,,,,,,,,,j.PNG,j,5d88f010859c9e0001810e88,2021-10-19_15h58.57.000,forced_choiceRT,2021.1.2,Win32,60.04202942,,,,,,,,6,Ontime,j,1,2.0153,4,1,17,3,1,,,,,
,0.57,,,,,,,,,f.PNG,f,5d88f010859c9e0001810e88,2021-10-19_15h58.57.000,forced_choiceRT,2021.1.2,Win32,60.04202942,,,,,,,,6,Ontime,f,1,2.0049,4,2,18,0,1,,,,,
,1.62,,,,,,,,,h.PNG,h,5d88f010859c9e0001810e88,2021-10-19_15h58.57.000,forced_choiceRT,2021.1.2,Win32,60.04202942,,,,,,,,6,Ontime,j,0,1.9662,4,3,19,2,1,,,,,
,1.21,,,,,,,,,g.PNG,g,5d88f010859c9e0001810e88,2021-10-19_15h58.57.000,forced_choiceRT,2021.1.2,Win32,60.04202942,,,,,,,,6,Ontime,g,1,2.0983,5,0,20,1,1,,,,,
,1.34,,,,,,,,,j.PNG,j,5d88f010859c9e0001810e88,2021-10-19_15h58.57.000,forced_choiceRT,2021.1.2,Win32,60.04202942,,,,,,,,6,Ontime,j,1,2.0351,5,1,21,3,1,,,,,
,0.09,,,,,,,,,g.PNG,g,5d88f010859c9e0001810e88,2021-10-19_15h58.57.000,forced_choiceRT,2021.1.2,Win32,60.04202942,,,,,,,,6,Ontime,g,1,1.9096,5,2,22,1,1,,,,,
,0.3,,,,,,,,,f.PNG,f,5d88f010859c9e0001810e88,2021-10-19_15h58.57.000,forced_choiceRT,2021.1.2,Win32,60.04202942,,,,,,,,6,Fast,f,1,1.856,5,3,23,0,1,,,,,
,1.33,,,,,,,,,h.PNG,h,5d88f010859c9e0001810e88,2021-10-19_15h58.57.000,forced_choiceRT,2021.1.2,Win32,60.04202942,,,,,,,,6,Ontime,h,1,2.0225,6,0,24,2,1,,,,,
,0.64,,,,,,,,,g.PNG,g,5d88f010859c9e0001810e88,2021-10-19_15h58.57.000,forced_choiceRT,2021.1.2,Win32,60.04202942,,,,,,,,6,Ontime,g,1,2.0324,6,1,25,1,1,,,,,
,0.06,,,,,,,,,g.PNG,g,5d88f010859c9e0001810e88,2021-10-19_15h58.57.000,forced_choiceRT,2021.1.2,Win32,60.04202942,,,,,,,,6,Ontime,g,1,2.0167,6,2,26,1,1,,,,,
,1.08,,,,,,,,,f.PNG,f,5d88f010859c9e0001810e88,2021-10-19_15h58.57.000,forced_choiceRT,2021.1.2,Win32,60.04202942,,,,,,,,6,Ontime,f,1,2.0757,6,3,27,0,1,,,,,
,1.95,,,,,,,,,j.PNG,j,5d88f010859c9e0001810e88,2021-10-19_15h58.57.000,forced_choiceRT,2021.1.2,Win32,60.04202942,,,,,,,,6,Slow,g,0,2.3418,7,0,28,3,1,,,,,
,1.99,,,,,,,,,j.PNG,j,5d88f010859c9e0001810e88,2021-10-19_15h58.57.000,forced_choiceRT,2021.1.2,Win32,60.04202942,,,,,,,,6,Ontime,h,0,2.0924,7,1,29,3,1,,,,,
,1.92,,,,,,,,,f.PNG,f,5d88f010859c9e0001810e88,2021-10-19_15h58.57.000,forced_choiceRT,2021.1.2,Win32,60.04202942,,,,,,,,6,Slow,g,0,2.4383,7,2,30,0,1,,,,,
,0.49,,,,,,,,,h.PNG,h,5d88f010859c9e0001810e88,2021-10-19_15h58.57.000,forced_choiceRT,2021.1.2,Win32,60.04202942,,,,,,,,6,Fast,h,1,1.8574,7,3,31,2,1,,,,,
,0.16,,,,,,,,,h.PNG,h,5d88f010859c9e0001810e88,2021-10-19_15h58.57.000,forced_choiceRT,2021.1.2,Win32,60.04202942,,,,,,,,6,Fast,h,1,1.8194,8,0,32,2,1,,,,,
,1.62,,,,,,,,,j.PNG,j,5d88f010859c9e0001810e88,2021-10-19_15h58.57.000,forced_choiceRT,2021.1.2,Win32,60.04202942,,,,,,,,6,Ontime,h,0,2.0131,8,1,33,3,1,,,,,
,0.54,,,,,,,,,h.PNG,h,5d88f010859c9e0001810e88,2021-10-19_15h58.57.000,forced_choiceRT,2021.1.2,Win32,60.04202942,,,,,,,,6,Ontime,h,1,1.9829,8,2,34,2,1,,,,,
,0.09,,,,,,,,,g.PNG,g,5d88f010859c9e0001810e88,2021-10-19_15h58.57.000,forced_choiceRT,2021.1.2,Win32,60.04202942,,,,,,,,6,Ontime,g,1,1.9707,8,3,35,1,1,,,,,
,1.97,,,,,,,,,g.PNG,g,5d88f010859c9e0001810e88,2021-10-19_15h58.57.000,forced_choiceRT,2021.1.2,Win32,60.04202942,,,,,,,,6,Slow,h,0,2.1114,9,0,36,1,1,,,,,
,0.41,,,,,,,,,j.PNG,j,5d88f010859c9e0001810e88,2021-10-19_15h58.57.000,forced_choiceRT,2021.1.2,Win32,60.04202942,,,,,,,,6,Ontime,j,1,1.9108,9,1,37,3,1,,,,,
,0.4,,,,,,,,,h.PNG,h,5d88f010859c9e0001810e88,2021-10-19_15h58.57.000,forced_choiceRT,2021.1.2,Win32,60.04202942,,,,,,,,6,Fast,h,1,1.8523,9,2,38,2,1,,,,,
,0.84,,,,,,,,,f.PNG,f,5d88f010859c9e0001810e88,2021-10-19_15h58.57.000,forced_choiceRT,2021.1.2,Win32,60.04202942,,,,,,,,6,Ontime,f,1,2.0415,9,3,39,0,1,,,,,
,,,,,,,,,,,,5d88f010859c9e0001810e88,2021-10-19_15h58.57.000,forced_choiceRT,2021.1.2,Win32,60.04202942,,,,,,,,,,,,,,,,,,5,0,5,0,1
,0.32,,,,,,,,,f.PNG,f,5d88f010859c9e0001810e88,2021-10-19_15h58.57.000,forced_choiceRT,2021.1.2,Win32,60.04202942,,,,,,,,7,Ontime,f,1,1.9915,0,0,0,0,1,,,,,
,1.78,,,,,,,,,h.PNG,h,5d88f010859c9e0001810e88,2021-10-19_15h58.57.000,forced_choiceRT,2021.1.2,Win32,60.04202942,,,,,,,,7,Slow,h,1,2.2472,0,1,1,2,1,,,,,
,0.15,,,,,,,,,j.PNG,j,5d88f010859c9e0001810e88,2021-10-19_15h58.57.000,forced_choiceRT,2021.1.2,Win32,60.04202942,,,,,,,,7,Ontime,j,1,1.9559,0,2,2,3,1,,,,,
,0.69,,,,,,,,,g.PNG,g,5d88f010859c9e0001810e88,2021-10-19_15h58.57.000,forced_choiceRT,2021.1.2,Win32,60.04202942,,,,,,,,7,Fast,f,0,1.8006,0,3,3,1,1,,,,,
,0.31,,,,,,,,,g.PNG,g,5d88f010859c9e0001810e88,2021-10-19_15h58.57.000,forced_choiceRT,2021.1.2,Win32,60.04202942,,,,,,,,7,Ontime,f,0,2.066,1,0,4,1,1,,,,,
,1.06,,,,,,,,,g.PNG,g,5d88f010859c9e0001810e88,2021-10-19_15h58.57.000,forced_choiceRT,2021.1.2,Win32,60.04202942,,,,,,,,7,Fast,f,0,1.8185,1,1,5,1,1,,,,,
,1.49,,,,,,,,,f.PNG,f,5d88f010859c9e0001810e88,2021-10-19_15h58.57.000,forced_choiceRT,2021.1.2,Win32,60.04202942,,,,,,,,7,Ontime,f,1,2.0712,1,2,6,0,1,,,,,
,1.42,,,,,,,,,f.PNG,f,5d88f010859c9e0001810e88,2021-10-19_15h58.57.000,forced_choiceRT,2021.1.2,Win32,60.04202942,,,,,,,,7,Ontime,f,1,1.9823,1,3,7,0,1,,,,,
,1.04,,,,,,,,,h.PNG,h,5d88f010859c9e0001810e88,2021-10-19_15h58.57.000,forced_choiceRT,2021.1.2,Win32,60.04202942,,,,,,,,7,Ontime,h,1,1.9959,2,0,8,2,1,,,,,
,0.62,,,,,,,,,j.PNG,j,5d88f010859c9e0001810e88,2021-10-19_15h58.57.000,forced_choiceRT,2021.1.2,Win32,60.04202942,,,,,,,,7,Ontime,j,1,2.0171,2,1,9,3,1,,,,,
,0.79,,,,,,,,,g.PNG,g,5d88f010859c9e0001810e88,2021-10-19_15h58.57.000,forced_choiceRT,2021.1.2,Win32,60.04202942,,,,,,,,7,Ontime,g,1,1.9216,2,2,10,1,1,,,,,
,1.81,,,,,,,,,j.PNG,j,5d88f010859c9e0001810e88,2021-10-19_15h58.57.000,forced_choiceRT,2021.1.2,Win32,60.04202942,,,,,,,,7,Slow,h,0,2.1839,2,3,11,3,1,,,,,
,0.36,,,,,,,,,h.PNG,h,5d88f010859c9e0001810e88,2021-10-19_15h58.57.000,forced_choiceRT,2021.1.2,Win32,60.04202942,,,,,,,,7,Ontime,h,1,2.0247,3,0,12,2,1,,,,,
,1.58,,,,,,,,,h.PNG,h,5d88f010859c9e0001810e88,2021-10-19_15h58.57.000,forced_choiceRT,2021.1.2,Win32,60.04202942,,,,,,,,7,Slow,h,1,2.1028,3,1,13,2,1,,,,,
,0.17,,,,,,,,,h.PNG,h,5d88f010859c9e0001810e88,2021-10-19_15h58.57.000,forced_choiceRT,2021.1.2,Win32,60.04202942,,,,,,,,7,Ontime,h,1,2.0302,3,2,14,2,1,,,,,
,1.42,,,,,,,,,j.PNG,j,5d88f010859c9e0001810e88,2021-10-19_15h58.57.000,forced_choiceRT,2021.1.2,Win32,60.04202942,,,,,,,,7,Slow,j,1,2.1376,3,3,15,3,1,,,,,
,0.49,,,,,,,,,f.PNG,f,5d88f010859c9e0001810e88,2021-10-19_15h58.57.000,forced_choiceRT,2021.1.2,Win32,60.04202942,,,,,,,,7,Ontime,f,1,1.9851,4,0,16,0,1,,,,,
,1.66,,,,,,,,,g.PNG,g,5d88f010859c9e0001810e88,2021-10-19_15h58.57.000,forced_choiceRT,2021.1.2,Win32,60.04202942,,,,,,,,7,Ontime,j,0,1.9844,4,1,17,1,1,,,,,
,0.53,,,,,,,,,g.PNG,g,5d88f010859c9e0001810e88,2021-10-19_15h58.57.000,forced_choiceRT,2021.1.2,Win32,60.04202942,,,,,,,,7,Ontime,f,0,1.997,4,2,18,1,1,,,,,
,0.25,,,,,,,,,j.PNG,j,5d88f010859c9e0001810e88,2021-10-19_15h58.57.000,forced_choiceRT,2021.1.2,Win32,60.04202942,,,,,,,,7,Ontime,j,1,2.0153,4,3,19,3,1,,,,,
,1.91,,,,,,,,,g.PNG,g,5d88f010859c9e0001810e88,2021-10-19_15h58.57.000,forced_choiceRT,2021.1.2,Win32,60.04202942,,,,,,,,7,Slow,g,1,2.2478,5,0,20,1,1,,,,,
,1.48,,,,,,,,,g.PNG,g,5d88f010859c9e0001810e88,2021-10-19_15h58.57.000,forced_choiceRT,2021.1.2,Win32,60.04202942,,,,,,,,7,Slow,g,1,2.3512,5,1,21,1,1,,,,,
,0.37,,,,,,,,,g.PNG,g,5d88f010859c9e0001810e88,2021-10-19_15h58.57.000,forced_choiceRT,2021.1.2,Win32,60.04202942,,,,,,,,7,Ontime,g,1,1.9534,5,2,22,1,1,,,,,
,0.87,,,,,,,,,h.PNG,h,5d88f010859c9e0001810e88,2021-10-19_15h58.57.000,forced_choiceRT,2021.1.2,Win32,60.04202942,,,,,,,,7,Ontime,h,1,2.0499,5,3,23,2,1,,,,,
,0.55,,,,,,,,,j.PNG,j,5d88f010859c9e0001810e88,2021-10-19_15h58.57.000,forced_choiceRT,2021.1.2,Win32,60.04202942,,,,,,,,7,Ontime,j,1,2.0399,6,0,24,3,1,,,,,
,1.31,,,,,,,,,h.PNG,h,5d88f010859c9e0001810e88,2021-10-19_15h58.57.000,forced_choiceRT,2021.1.2,Win32,60.04202942,,,,,,,,7,Ontime,h,1,2.0033,6,1,25,2,1,,,,,
,1.01,,,,,,,,,h.PNG,h,5d88f010859c9e0001810e88,2021-10-19_15h58.57.000,forced_choiceRT,2021.1.2,Win32,60.04202942,,,,,,,,7,Slow,h,1,2.1501,6,2,26,2,1,,,,,
,0.01,,,,,,,,,j.PNG,j,5d88f010859c9e0001810e88,2021-10-19_15h58.57.000,forced_choiceRT,2021.1.2,Win32,60.04202942,,,,,,,,7,Fast,j,1,1.878,6,3,27,3,1,,,,,
,1.29,,,,,,,,,f.PNG,f,5d88f010859c9e0001810e88,2021-10-19_15h58.57.000,forced_choiceRT,2021.1.2,Win32,60.04202942,,,,,,,,7,Ontime,f,1,2.005,7,0,28,0,1,,,,,
,1.51,,,,,,,,,f.PNG,f,5d88f010859c9e0001810e88,2021-10-19_15h58.57.000,forced_choiceRT,2021.1.2,Win32,60.04202942,,,,,,,,7,Ontime,g,0,1.9843,7,1,29,0,1,,,,,
,0.57,,,,,,,,,g.PNG,g,5d88f010859c9e0001810e88,2021-10-19_15h58.57.000,forced_choiceRT,2021.1.2,Win32,60.04202942,,,,,,,,7,Ontime,g,1,2.0388,7,2,30,1,1,,,,,
,0.29,,,,,,,,,f.PNG,f,5d88f010859c9e0001810e88,2021-10-19_15h58.57.000,forced_choiceRT,2021.1.2,Win32,60.04202942,,,,,,,,7,Fast,f,1,1.8079,7,3,31,0,1,,,,,
,0.23,,,,,,,,,f.PNG,f,5d88f010859c9e0001810e88,2021-10-19_15h58.57.000,forced_choiceRT,2021.1.2,Win32,60.04202942,,,,,,,,7,Ontime,f,1,1.9835,8,0,32,0,1,,,,,
,1.11,,,,,,,,,j.PNG,j,5d88f010859c9e0001810e88,2021-10-19_15h58.57.000,forced_choiceRT,2021.1.2,Win32,60.04202942,,,,,,,,7,Ontime,j,1,2.0853,8,1,33,3,1,,,,,
,1.04,,,,,,,,,j.PNG,j,5d88f010859c9e0001810e88,2021-10-19_15h58.57.000,forced_choiceRT,2021.1.2,Win32,60.04202942,,,,,,,,7,Slow,j,1,9.019,8,2,34,3,1,,,,,
,1.63,,,,,,,,,h.PNG,h,5d88f010859c9e0001810e88,2021-10-19_15h58.57.000,forced_choiceRT,2021.1.2,Win32,60.04202942,,,,,,,,7,Slow,j,0,2.1207,8,3,35,2,1,,,,,
,1.34,,,,,,,,,f.PNG,f,5d88f010859c9e0001810e88,2021-10-19_15h58.57.000,forced_choiceRT,2021.1.2,Win32,60.04202942,,,,,,,,7,Slow,f,1,2.106,9,0,36,0,1,,,,,
,0.24,,,,,,,,,f.PNG,f,5d88f010859c9e0001810e88,2021-10-19_15h58.57.000,forced_choiceRT,2021.1.2,Win32,60.04202942,,,,,,,,7,Ontime,f,1,1.935,9,1,37,0,1,,,,,
,0.99,,,,,,,,,j.PNG,j,5d88f010859c9e0001810e88,2021-10-19_15h58.57.000,forced_choiceRT,2021.1.2,Win32,60.04202942,,,,,,,,7,Ontime,j,1,1.9831,9,2,38,3,1,,,,,
,1.83,,,,,,,,,h.PNG,h,5d88f010859c9e0001810e88,2021-10-19_15h58.57.000,forced_choiceRT,2021.1.2,Win32,60.04202942,,,,,,,,7,Slow,j,0,2.2001,9,3,39,2,1,,,,,
,,,,,,,,,,,,5d88f010859c9e0001810e88,2021-10-19_15h58.57.000,forced_choiceRT,2021.1.2,Win32,60.04202942,,,,,,,,,,,,,,,,,,6,0,6,0,1
,0.36,,,,,,,,,f.PNG,f,5d88f010859c9e0001810e88,2021-10-19_15h58.57.000,forced_choiceRT,2021.1.2,Win32,60.04202942,,,,,,,,8,Ontime,f,1,1.9147,0,0,0,0,1,,,,,
,1.57,,,,,,,,,g.PNG,g,5d88f010859c9e0001810e88,2021-10-19_15h58.57.000,forced_choiceRT,2021.1.2,Win32,60.04202942,,,,,,,,8,Slow,j,0,4.9685,0,1,1,1,1,,,,,
,1.83,,,,,,,,,h.PNG,h,5d88f010859c9e0001810e88,2021-10-19_15h58.57.000,forced_choiceRT,2021.1.2,Win32,60.04202942,,,,,,,,8,Ontime,h,1,2.0287,0,2,2,2,1,,,,,
,0.36,,,,,,,,,j.PNG,j,5d88f010859c9e0001810e88,2021-10-19_15h58.57.000,forced_choiceRT,2021.1.2,Win32,60.04202942,,,,,,,,8,Ontime,j,1,1.9428,0,3,3,3,1,,,,,
,0.77,,,,,,,,,f.PNG,f,5d88f010859c9e0001810e88,2021-10-19_15h58.57.000,forced_choiceRT,2021.1.2,Win32,60.04202942,,,,,,,,8,Fast,f,1,1.8643,1,0,4,0,1,,,,,
,1.83,,,,,,,,,h.PNG,h,5d88f010859c9e0001810e88,2021-10-19_15h58.57.000,forced_choiceRT,2021.1.2,Win32,60.04202942,,,,,,,,8,Slow,j,0,2.3321,1,1,5,2,1,,,,,
,1.08,,,,,,,,,j.PNG,j,5d88f010859c9e0001810e88,2021-10-19_15h58.57.000,forced_choiceRT,2021.1.2,Win32,60.04202942,,,,,,,,8,Ontime,j,1,2.0009,1,2,6,3,1,,,,,
,0.32,,,,,,,,,f.PNG,f,5d88f010859c9e0001810e88,2021-10-19_15h58.57.000,forced_choiceRT,2021.1.2,Win32,60.04202942,,,,,,,,8,Ontime,f,1,2.0118,1,3,7,0,1,,,,,
,1.92,,,,,,,,,h.PNG,h,5d88f010859c9e0001810e88,2021-10-19_15h58.57.000,forced_choiceRT,2021.1.2,Win32,60.04202942,,,,,,,,8,Slow,f,0,2.2751,2,0,8,2,1,,,,,
,0.18,,,,,,,,,f.PNG,f,5d88f010859c9e0001810e88,2021-10-19_15h58.57.000,forced_choiceRT,2021.1.2,Win32,60.04202942,,,,,,,,8,Fast,f,1,1.8523,2,1,9,0,1,,,,,
,1.43,,,,,,,,,g.PNG,g,5d88f010859c9e0001810e88,2021-10-19_15h58.57.000,forced_choiceRT,2021.1.2,Win32,60.04202942,,,,,,,,8,Ontime,g,1,2.0966,2,2,10,1,1,,,,,
,0.63,,,,,,,,,h.PNG,h,5d88f010859c9e0001810e88,2021-10-19_15h58.57.000,forced_choiceRT,2021.1.2,Win32,60.04202942,,,,,,,,8,Ontime,h,1,2.0175,2,3,11,2,1,,,,,
,1.7,,,,,,,,,g.PNG,g,5d88f010859c9e0001810e88,2021-10-19_15h58.57.000,forced_choiceRT,2021.1.2,Win32,60.04202942,,,,,,,,8,Slow,h,0,2.233,3,0,12,1,1,,,,,
,1.67,,,,,,,,,f.PNG,f,5d88f010859c9e0001810e88,2021-10-19_15h58.57.000,forced_choiceRT,2021.1.2,Win32,60.04202942,,,,,,,,8,Ontime,h,0,2.0595,3,1,13,0,1,,,,,
,1.29,,,,,,,,,h.PNG,h,5d88f010859c9e0001810e88,2021-10-19_15h58.57.000,forced_choiceRT,2021.1.2,Win32,60.04202942,,,,,,,,8,Fast,h,1,1.8949,3,2,14,2,1,,,,,
,0.05,,,,,,,,,h.PNG,h,5d88f010859c9e0001810e88,2021-10-19_15h58.57.000,forced_choiceRT,2021.1.2,Win32,60.04202942,,,,,,,,8,Fast,h,1,1.8832,3,3,15,2,1,,,,,
,0.58,,,,,,,,,f.PNG,f,5d88f010859c9e0001810e88,2021-10-19_15h58.57.000,forced_choiceRT,2021.1.2,Win32,60.04202942,,,,,,,,8,Fast,f,1,1.8379,4,0,16,0,1,,,,,
,0.43,,,,,,,,,f.PNG,f,5d88f010859c9e0001810e88,2021-10-19_15h58.57.000,forced_choiceRT,2021.1.2,Win32,60.04202942,,,,,,,,8,Ontime,f,1,2.0391,4,1,17,0,1,,,,,
,1.02,,,,,,,,,j.PNG,j,5d88f010859c9e0001810e88,2021-10-19_15h58.57.000,forced_choiceRT,2021.1.2,Win32,60.04202942,,,,,,,,8,Ontime,j,1,1.9778,4,2,18,3,1,,,,,
,1.01,,,,,,,,,g.PNG,g,5d88f010859c9e0001810e88,2021-10-19_15h58.57.000,forced_choiceRT,2021.1.2,Win32,60.04202942,,,,,,,,8,Ontime,g,1,2.019,4,3,19,1,1,,,,,
,0.57,,,,,,,,,h.PNG,h,5d88f010859c9e0001810e88,2021-10-19_15h58.57.000,forced_choiceRT,2021.1.2,Win32,60.04202942,,,,,,,,8,Slow,h,1,2.1121,5,0,20,2,1,,,,,
,1.42,,,,,,,,,j.PNG,j,5d88f010859c9e0001810e88,2021-10-19_15h58.57.000,forced_choiceRT,2021.1.2,Win32,60.04202942,,,,,,,,8,Ontime,j,1,2.0262,5,1,21,3,1,,,,,
,1.77,,,,,,,,,g.PNG,g,5d88f010859c9e0001810e88,2021-10-19_15h58.57.000,forced_choiceRT,2021.1.2,Win32,60.04202942,,,,,,,,8,Slow,h,0,2.2728,5,2,22,1,1,,,,,
,0.18,,,,,,,,,j.PNG,j,5d88f010859c9e0001810e88,2021-10-19_15h58.57.000,forced_choiceRT,2021.1.2,Win32,60.04202942,,,,,,,,8,Fast,j,1,1.77,5,3,23,3,1,,,,,
,0.56,,,,,,,,,f.PNG,f,5d88f010859c9e0001810e88,2021-10-19_15h58.57.000,forced_choiceRT,2021.1.2,Win32,60.04202942,,,,,,,,8,Ontime,f,1,2.0526,6,0,24,0,1,,,,,
,1.44,,,,,,,,,j.PNG,j,5d88f010859c9e0001810e88,2021-10-19_15h58.57.000,forced_choiceRT,2021.1.2,Win32,60.04202942,,,,,,,,8,Ontime,h,0,1.9221,6,1,25,3,1,,,,,
,0.52,,,,,,,,,j.PNG,j,5d88f010859c9e0001810e88,2021-10-19_15h58.57.000,forced_choiceRT,2021.1.2,Win32,60.04202942,,,,,,,,8,Ontime,j,1,1.9881,6,2,26,3,1,,,,,
,0.37,,,,,,,,,h.PNG,h,5d88f010859c9e0001810e88,2021-10-19_15h58.57.000,forced_choiceRT,2021.1.2,Win32,60.04202942,,,,,,,,8,Ontime,h,1,1.9911,6,3,27,2,1,,,,,
,1.62,,,,,,,,,j.PNG,j,5d88f010859c9e0001810e88,2021-10-19_15h58.57.000,forced_choiceRT,2021.1.2,Win32,60.04202942,,,,,,,,8,Slow,h,0,2.1261,7,0,28,3,1,,,,,
,0.03,,,,,,,,,g.PNG,g,5d88f010859c9e0001810e88,2021-10-19_15h58.57.000,forced_choiceRT,2021.1.2,Win32,60.04202942,,,,,,,,8,Ontime,g,1,2.0741,7,1,29,1,1,,,,,
,0.35,,,,,,,,,g.PNG,g,5d88f010859c9e0001810e88,2021-10-19_15h58.57.000,forced_choiceRT,2021.1.2,Win32,60.04202942,,,,,,,,8,Ontime,g,1,2.0576,7,2,30,1,1,,,,,
,1.59,,,,,,,,,j.PNG,j,5d88f010859c9e0001810e88,2021-10-19_15h58.57.000,forced_choiceRT,2021.1.2,Win32,60.04202942,,,,,,,,8,Ontime,h,0,2.0129,7,3,31,3,1,,,,,
,0.97,,,,,,,,,g.PNG,g,5d88f010859c9e0001810e88,2021-10-19_15h58.57.000,forced_choiceRT,2021.1.2,Win32,60.04202942,,,,,,,,8,Ontime,g,1,2.0657,8,0,32,1,1,,,,,
,0.41,,,,,,,,,g.PNG,g,5d88f010859c9e0001810e88,2021-10-19_15h58.57.000,forced_choiceRT,2021.1.2,Win32,60.04202942,,,,,,,,8,Ontime,g,1,1.9182,8,1,33,1,1,,,,,
,1.42,,,,,,,,,g.PNG,g,5d88f010859c9e0001810e88,2021-10-19_15h58.57.000,forced_choiceRT,2021.1.2,Win32,60.04202942,,,,,,,,8,Ontime,g,1,2.032,8,2,34,1,1,,,,,
,1.61,,,,,,,,,h.PNG,h,5d88f010859c9e0001810e88,2021-10-19_15h58.57.000,forced_choiceRT,2021.1.2,Win32,60.04202942,,,,,,,,8,Slow,g,0,2.1013,8,3,35,2,1,,,,,
,1.17,,,,,,,,,j.PNG,j,5d88f010859c9e0001810e88,2021-10-19_15h58.57.000,forced_choiceRT,2021.1.2,Win32,60.04202942,,,,,,,,8,Fast,h,0,1.8159,9,0,36,3,1,,,,,
,1.12,,,,,,,,,f.PNG,f,5d88f010859c9e0001810e88,2021-10-19_15h58.57.000,forced_choiceRT,2021.1.2,Win32,60.04202942,,,,,,,,8,Fast,g,0,1.7598,9,1,37,0,1,,,,,
,0.95,,,,,,,,,f.PNG,f,5d88f010859c9e0001810e88,2021-10-19_15h58.57.000,forced_choiceRT,2021.1.2,Win32,60.04202942,,,,,,,,8,Fast,f,1,1.8872,9,2,38,0,1,,,,,
,0.03,,,,,,,,,h.PNG,h,5d88f010859c9e0001810e88,2021-10-19_15h58.57.000,forced_choiceRT,2021.1.2,Win32,60.04202942,,,,,,,,8,Slow,h,1,2.2199,9,3,39,2,1,,,,,
,,,,,,,,,,,,5d88f010859c9e0001810e88,2021-10-19_15h58.57.000,forced_choiceRT,2021.1.2,Win32,60.04202942,,,,,,,,,,,,,,,,,,7,0,7,0,1
,1.54,,,,,,,,,f.PNG,f,5d88f010859c9e0001810e88,2021-10-19_15h58.57.000,forced_choiceRT,2021.1.2,Win32,60.04202942,,,,,,,,9,Slow,f,1,2.1963,0,0,0,0,1,,,,,
,0.87,,,,,,,,,h.PNG,h,5d88f010859c9e0001810e88,2021-10-19_15h58.57.000,forced_choiceRT,2021.1.2,Win32,60.04202942,,,,,,,,9,Ontime,h,1,2.0493,0,1,1,2,1,,,,,
,1.9,,,,,,,,,g.PNG,g,5d88f010859c9e0001810e88,2021-10-19_15h58.57.000,forced_choiceRT,2021.1.2,Win32,60.04202942,,,,,,,,9,Slow,j,0,2.2063,0,2,2,1,1,,,,,
,1.41,,,,,,,,,h.PNG,h,5d88f010859c9e0001810e88,2021-10-19_15h58.57.000,forced_choiceRT,2021.1.2,Win32,60.04202942,,,,,,,,9,Ontime,j,0,1.9791,0,3,3,2,1,,,,,
,1.64,,,,,,,,,f.PNG,f,5d88f010859c9e0001810e88,2021-10-19_15h58.57.000,forced_choiceRT,2021.1.2,Win32,60.04202942,,,,,,,,9,Ontime,h,0,2.0187,1,0,4,0,1,,,,,
,0.53,,,,,,,,,g.PNG,g,5d88f010859c9e0001810e88,2021-10-19_15h58.57.000,forced_choiceRT,2021.1.2,Win32,60.04202942,,,,,,,,9,Ontime,h,0,1.9492,1,1,5,1,1,,,,,
,1.75,,,,,,,,,g.PNG,g,5d88f010859c9e0001810e88,2021-10-19_15h58.57.000,forced_choiceRT,2021.1.2,Win32,60.04202942,,,,,,,,9,Ontime,j,0,2.032,1,2,6,1,1,,,,,
,1.92,,,,,,,,,f.PNG,f,5d88f010859c9e0001810e88,2021-10-19_15h58.57.000,forced_choiceRT,2021.1.2,Win32,60.04202942,,,,,,,,9,Slow,g,0,2.4578,1,3,7,0,1,,,,,
,0.1,,,,,,,,,h.PNG,h,5d88f010859c9e0001810e88,2021-10-19_15h58.57.000,forced_choiceRT,2021.1.2,Win32,60.04202942,,,,,,,,9,Ontime,h,1,1.9659,2,0,8,2,1,,,,,
,1.51,,,,,,,,,g.PNG,g,5d88f010859c9e0001810e88,2021-10-19_15h58.57.000,forced_choiceRT,2021.1.2,Win32,60.04202942,,,,,,,,9,Fast,h,0,1.8676,2,1,9,1,1,,,,,
,1.43,,,,,,,,,g.PNG,g,5d88f010859c9e0001810e88,2021-10-19_15h58.57.000,forced_choiceRT,2021.1.2,Win32,60.04202942,,,,,,,,9,Fast,h,0,1.819,2,2,10,1,1,,,,,
,0.94,,,,,,,,,f.PNG,f,5d88f010859c9e0001810e88,2021-10-19_15h58.57.000,forced_choiceRT,2021.1.2,Win32,60.04202942,,,,,,,,9,Ontime,f,1,1.9507,2,3,11,0,1,,,,,
,1.28,,,,,,,,,f.PNG,f,5d88f010859c9e0001810e88,2021-10-19_15h58.57.000,forced_choiceRT,2021.1.2,Win32,60.04202942,,,,,,,,9,Ontime,f,1,1.933,3,0,12,0,1,,,,,
,1.19,,,,,,,,,g.PNG,g,5d88f010859c9e0001810e88,2021-10-19_15h58.57.000,forced_choiceRT,2021.1.2,Win32,60.04202942,,,,,,,,9,Ontime,g,1,1.9824,3,1,13,1,1,,,,,
,1.85,,,,,,,,,j.PNG,j,5d88f010859c9e0001810e88,2021-10-19_15h58.57.000,forced_choiceRT,2021.1.2,Win32,60.04202942,,,,,,,,9,Slow,f,0,2.299,3,2,14,3,1,,,,,
,0.28,,,,,,,,,j.PNG,j,5d88f010859c9e0001810e88,2021-10-19_15h58.57.000,forced_choiceRT,2021.1.2,Win32,60.04202942,,,,,,,,9,Fast,j,1,1.8324,3,3,15,3,1,,,,,
,0.92,,,,,,,,,h.PNG,h,5d88f010859c9e0001810e88,2021-10-19_15h58.57.000,forced_choiceRT,2021.1.2,Win32,60.04202942,,,,,,,,9,Fast,h,1,1.8394,4,0,16,2,1,,,,,
,1.26,,,,,,,,,g.PNG,g,5d88f010859c9e0001810e88,2021-10-19_15h58.57.000,forced_choiceRT,2021.1.2,Win32,60.04202942,,,,,,,,9,Ontime,h,0,2.0682,4,1,17,1,1,,,,,
,0.96,,,,,,,,,j.PNG,j,5d88f010859c9e0001810e88,2021-10-19_15h58.57.000,forced_choiceRT,2021.1.2,Win32,60.04202942,,,,,,,,9,Fast,j,1,1.791,4,2,18,3,1,,,,,
,0.36,,,,,,,,,j.PNG,j,5d88f010859c9e0001810e88,2021-10-19_15h58.57.000,forced_choiceRT,2021.1.2,Win32,60.04202942,,,,,,,,9,Ontime,j,1,1.9807,4,3,19,3,1,,,,,
,0.36,,,,,,,,,j.PNG,j,5d88f010859c9e0001810e88,2021-10-19_15h58.57.000,forced_choiceRT,2021.1.2,Win32,60.04202942,,,,,,,,9,Ontime,j,1,2.045,5,0,20,3,1,,,,,
,1.73,,,,,,,,,h.PNG,h,5d88f010859c9e0001810e88,2021-10-19_15h58.57.000,forced_choiceRT,2021.1.2,Win32,60.04202942,,,,,,,,9,Slow,h,1,2.4174,5,1,21,2,1,,,,,
,1.54,,,,,,,,,j.PNG,j,5d88f010859c9e0001810e88,2021-10-19_15h58.57.000,forced_choiceRT,2021.1.2,Win32,60.04202942,,,,,,,,9,Slow,j,1,2.1508,5,2,22,3,1,,,,,
,1.21,,,,,,,,,h.PNG,h,5d88f010859c9e0001810e88,2021-10-19_15h58.57.000,forced_choiceRT,2021.1.2,Win32,60.04202942,,,,,,,,9,Ontime,h,1,2.0346,5,3,23,2,1,,,,,
,1.66,,,,,,,,,g.PNG,g,5d88f010859c9e0001810e88,2021-10-19_15h58.57.000,forced_choiceRT,2021.1.2,Win32,60.04202942,,,,,,,,9,Ontime,h,0,2.0513,6,0,24,1,1,,,,,
,1.81,,,,,,,,,h.PNG,h,5d88f010859c9e0001810e88,2021-10-19_15h58.57.000,forced_choiceRT,2021.1.2,Win32,60.04202942,,,,,,,,9,Slow,h,1,2.1339,6,1,25,2,1,,,,,
,1.39,,,,,,,,,h.PNG,h,5d88f010859c9e0001810e88,2021-10-19_15h58.57.000,forced_choiceRT,2021.1.2,Win32,60.04202942,,,,,,,,9,Ontime,h,1,1.9154,6,2,26,2,1,,,,,
,1.9,,,,,,,,,f.PNG,f,5d88f010859c9e0001810e88,2021-10-19_15h58.57.000,forced_choiceRT,2021.1.2,Win32,60.04202942,,,,,,,,9,Slow,h,0,2.3492,6,3,27,0,1,,,,,
,1.35,,,,,,,,,j.PNG,j,5d88f010859c9e0001810e88,2021-10-19_15h58.57.000,forced_choiceRT,2021.1.2,Win32,60.04202942,,,,,,,,9,Ontime,j,1,1.9034,7,0,28,3,1,,,,,
,0.61,,,,,,,,,g.PNG,g,5d88f010859c9e0001810e88,2021-10-19_15h58.57.000,forced_choiceRT,2021.1.2,Win32,60.04202942,,,,,,,,9,Ontime,g,1,1.9354,7,1,29,1,1,,,,,
,0.73,,,,,,,,,f.PNG,f,5d88f010859c9e0001810e88,2021-10-19_15h58.57.000,forced_choiceRT,2021.1.2,Win32,60.04202942,,,,,,,,9,Ontime,f,1,2.0995,7,2,30,0,1,,,,,
,0.38,,,,,,,,,j.PNG,j,5d88f010859c9e0001810e88,2021-10-19_15h58.57.000,forced_choiceRT,2021.1.2,Win32,60.04202942,,,,,,,,9,Slow,j,1,2.2045,7,3,31,3,1,,,,,
,1.03,,,,,,,,,h.PNG,h,5d88f010859c9e0001810e88,2021-10-19_15h58.57.000,forced_choiceRT,2021.1.2,Win32,60.04202942,,,,,,,,9,Ontime,h,1,1.9178,8,0,32,2,1,,,,,
,0.05,,,,,,,,,j.PNG,j,5d88f010859c9e0001810e88,2021-10-19_15h58.57.000,forced_choiceRT,2021.1.2,Win32,60.04202942,,,,,,,,9,Fast,j,1,1.7271,8,1,33,3,1,,,,,
,0.06,,,,,,,,,g.PNG,g,5d88f010859c9e0001810e88,2021-10-19_15h58.57.000,forced_choiceRT,2021.1.2,Win32,60.04202942,,,,,,,,9,Fast,g,1,1.7245,8,2,34,1,1,,,,,
,1.14,,,,,,,,,f.PNG,f,5d88f010859c9e0001810e88,2021-10-19_15h58.57.000,forced_choiceRT,2021.1.2,Win32,60.04202942,,,,,,,,9,Fast,f,1,1.8575,8,3,35,0,1,,,,,
,1.22,,,,,,,,,h.PNG,h,5d88f010859c9e0001810e88,2021-10-19_15h58.57.000,forced_choiceRT,2021.1.2,Win32,60.04202942,,,,,,,,9,Fast,h,1,1.8311,9,0,36,2,1,,,,,
,0.62,,,,,,,,,f.PNG,f,5d88f010859c9e0001810e88,2021-10-19_15h58.57.000,forced_choiceRT,2021.1.2,Win32,60.04202942,,,,,,,,9,Fast,f,1,1.8593,9,1,37,0,1,,,,,
,1.22,,,,,,,,,f.PNG,f,5d88f010859c9e0001810e88,2021-10-19_15h58.57.000,forced_choiceRT,2021.1.2,Win32,60.04202942,,,,,,,,9,Fast,f,1,1.7793,9,2,38,0,1,,,,,
,1.56,,,,,,,,,j.PNG,j,5d88f010859c9e0001810e88,2021-10-19_15h58.57.000,forced_choiceRT,2021.1.2,Win32,60.04202942,,,,,,,,9,Ontime,f,0,1.963,9,3,39,3,1,,,,,
,,,,,,,,,,,,5d88f010859c9e0001810e88,2021-10-19_15h58.57.000,forced_choiceRT,2021.1.2,Win32,60.04202942,,,,,,,,,,,,,,,,,,8,0,8,0,1
,1.58,,,,,,,,,g.PNG,g,5d88f010859c9e0001810e88,2021-10-19_15h58.57.000,forced_choiceRT,2021.1.2,Win32,60.04202942,,,,,,,,10,Slow,h,0,2.2175,0,0,0,1,1,,,,,
,0.18,,,,,,,,,f.PNG,f,5d88f010859c9e0001810e88,2021-10-19_15h58.57.000,forced_choiceRT,2021.1.2,Win32,60.04202942,,,,,,,,10,Fast,f,1,1.7539,0,1,1,0,1,,,,,
,1.4,,,,,,,,,j.PNG,j,5d88f010859c9e0001810e88,2021-10-19_15h58.57.000,forced_choiceRT,2021.1.2,Win32,60.04202942,,,,,,,,10,Ontime,j,1,2.0443,0,2,2,3,1,,,,,
,1.46,,,,,,,,,h.PNG,h,5d88f010859c9e0001810e88,2021-10-19_15h58.57.000,forced_choiceRT,2021.1.2,Win32,60.04202942,,,,,,,,10,Ontime,h,1,2.0451,0,3,3,2,1,,,,,
,0.27,,,,,,,,,g.PNG,g,5d88f010859c9e0001810e88,2021-10-19_15h58.57.000,forced_choiceRT,2021.1.2,Win32,60.04202942,,,,,,,,10,Ontime,g,1,1.9969,1,0,4,1,1,,,,,
,0.01,,,,,,,,,h.PNG,h,5d88f010859c9e0001810e88,2021-10-19_15h58.57.000,forced_choiceRT,2021.1.2,Win32,60.04202942,,,,,,,,10,Ontime,h,1,1.9175,1,1,5,2,1,,,,,
,0.98,,,,,,,,,h.PNG,h,5d88f010859c9e0001810e88,2021-10-19_15h58.57.000,forced_choiceRT,2021.1.2,Win32,60.04202942,,,,,,,,10,Fast,h,1,1.8469,1,2,6,2,1,,,,,
,1.66,,,,,,,,,j.PNG,j,5d88f010859c9e0001810e88,2021-10-19_15h58.57.000,forced_choiceRT,2021.1.2,Win32,60.04202942,,,,,,,,10,Slow,g,0,2.1327,1,3,7,3,1,,,,,
,0.21,,,,,,,,,j.PNG,j,5d88f010859c9e0001810e88,2021-10-19_15h58.57.000,forced_choiceRT,2021.1.2,Win32,60.04202942,,,,,,,,10,Ontime,j,1,2.0025,2,0,8,3,1,,,,,
,1.32,,,,,,,,,g.PNG,g,5d88f010859c9e0001810e88,2021-10-19_15h58.57.000,forced_choiceRT,2021.1.2,Win32,60.04202942,,,,,,,,10,Slow,j,0,2.1471,2,1,9,1,1,,,,,
,1.19,,,,,,,,,h.PNG,h,5d88f010859c9e0001810e88,2021-10-19_15h58.57.000,forced_choiceRT,2021.1.2,Win32,60.04202942,,,,,,,,10,Ontime,h,1,1.9678,2,2,10,2,1,,,,,
,1.82,,,,,,,,,f.PNG,f,5d88f010859c9e0001810e88,2021-10-19_15h58.57.000,forced_choiceRT,2021.1.2,Win32,60.04202942,,,,,,,,10,Slow,h,0,2.3225,2,3,11,0,1,,,,,
,0.84,,,,,,,,,g.PNG,g,5d88f010859c9e0001810e88,2021-10-19_15h58.57.000,forced_choiceRT,2021.1.2,Win32,60.04202942,,,,,,,,10,Ontime,g,1,1.9496,3,0,12,1,1,,,,,
,0.93,,,,,,,,,h.PNG,h,5d88f010859c9e0001810e88,2021-10-19_15h58.57.000,forced_choiceRT,2021.1.2,Win32,60.04202942,,,,,,,,10,Slow,h,1,2.104,3,1,13,2,1,,,,,
,0.8,,,,,,,,,h.PNG,h,5d88f010859c9e0001810e88,2021-10-19_15h58.57.000,forced_choiceRT,2021.1.2,Win32,60.04202942,,,,,,,,10,Ontime,h,1,1.9558,3,2,14,2,1,,,,,
,1.41,,,,,,,,,f.PNG,f,5d88f010859c9e0001810e88,2021-10-19_15h58.57.000,forced_choiceRT,2021.1.2,Win32,60.04202942,,,,,,,,10,Ontime,g,0,2.084,3,3,15,0,1,,,,,
,1.66,,,,,,,,,g.PNG,g,5d88f010859c9e0001810e88,2021-10-19_15h58.57.000,forced_choiceRT,2021.1.2,Win32,60.04202942,,,,,,,,10,Slow,g,1,2.2374,4,0,16,1,1,,,,,
,1.52,,,,,,,,,h.PNG,h,5d88f010859c9e0001810e88,2021-10-19_15h58.57.000,forced_choiceRT,2021.1.2,Win32,60.04202942,,,,,,,,10,Ontime,g,0,2.0188,4,1,17,2,1,,,,,
,0.15,,,,,,,,,f.PNG,f,5d88f010859c9e0001810e88,2021-10-19_15h58.57.000,forced_choiceRT,2021.1.2,Win32,60.04202942,,,,,,,,10,Fast,f,1,1.7851,4,2,18,0,1,,,,,
,0.3,,,,,,,,,j.PNG,j,5d88f010859c9e0001810e88,2021-10-19_15h58.57.000,forced_choiceRT,2021.1.2,Win32,60.04202942,,,,,,,,10,Ontime,j,1,2.0455,4,3,19,3,1,,,,,
,0.39,,,,,,,,,f.PNG,f,5d88f010859c9e0001810e88,2021-10-19_15h58.57.000,forced_choiceRT,2021.1.2,Win32,60.04202942,,,,,,,,10,Ontime,f,1,2.0414,5,0,20,0,1,,,,,
,0.2,,,,,,,,,f.PNG,f,5d88f010859c9e0001810e88,2021-10-19_15h58.57.000,forced_choiceRT,2021.1.2,Win32,60.04202942,,,,,,,,10,Ontime,f,1,1.9514,5,1,21,0,1,,,,,
,0.02,,,,,,,,,j.PNG,j,5d88f010859c9e0001810e88,2021-10-19_15h58.57.000,forced_choiceRT,2021.1.2,Win32,60.04202942,,,,,,,,10,Ontime,j,1,2.097,5,2,22,3,1,,,,,
,1.12,,,,,,,,,h.PNG,h,5d88f010859c9e0001810e88,2021-10-19_15h58.57.000,forced_choiceRT,2021.1.2,Win32,60.04202942,,,,,,,,10,Ontime,h,1,2.0008,5,3,23,2,1,,,,,
,0.63,,,,,,,,,j.PNG,j,5d88f010859c9e0001810e88,2021-10-19_15h58.57.000,forced_choiceRT,2021.1.2,Win32,60.04202942,,,,,,,,10,Ontime,j,1,1.9619,6,0,24,3,1,,,,,
,0.26,,,,,,,,,g.PNG,g,5d88f010859c9e0001810e88,2021-10-19_15h58.57.000,forced_choiceRT,2021.1.2,Win32,60.04202942,,,,,,,,10,Slow,g,1,2.1555,6,1,25,1,1,,,,,
,1.94,,,,,,,,,h.PNG,h,5d88f010859c9e0001810e88,2021-10-19_15h58.57.000,forced_choiceRT,2021.1.2,Win32,60.04202942,,,,,,,,10,Slow,h,1,2.1161,6,2,26,2,1,,,,,
,0.91,,,,,,,,,f.PNG,f,5d88f010859c9e0001810e88,2021-10-19_15h58.57.000,forced_choiceRT,2021.1.2,Win32,60.04202942,,,,,,,,10,Ontime,f,1,1.9058,6,3,27,0,1,,,,,
,0.95,,,,,,,,,g.PNG,g,5d88f010859c9e0001810e88,2021-10-19_15h58.57.000,forced_choiceRT,2021.1.2,Win32,60.04202942,,,,,,,,10,Fast,g,1,1.8736,7,0,28,1,1,,,,,
,1.89,,,,,,,,,j.PNG,j,5d88f010859c9e0001810e88,2021-10-19_15h58.57.000,forced_choiceRT,2021.1.2,Win32,60.04202942,,,,,,,,10,Slow,g,0,2.1484,7,1,29,3,1,,,,,
,0.52,,,,,,,,,g.PNG,g,5d88f010859c9e0001810e88,2021-10-19_15h58.57.000,forced_choiceRT,2021.1.2,Win32,60.04202942,,,,,,,,10,Ontime,g,1,2.018,7,2,30,1,1,,,,,
,0.05,,,,,,,,,f.PNG,f,5d88f010859c9e0001810e88,2021-10-19_15h58.57.000,forced_choiceRT,2021.1.2,Win32,60.04202942,,,,,,,,10,Fast,f,1,1.8683,7,3,31,0,1,,,,,
,1.13,,,,,,,,,h.PNG,h,5d88f010859c9e0001810e88,2021-10-19_15h58.57.000,forced_choiceRT,2021.1.2,Win32,60.04202942,,,,,,,,10,Ontime,h,1,1.9954,8,0,32,2,1,,,,,
,1.64,,,,,,,,,g.PNG,g,5d88f010859c9e0001810e88,2021-10-19_15h58.57.000,forced_choiceRT,2021.1.2,Win32,60.04202942,,,,,,,,10,Ontime,h,0,1.9731,8,1,33,1,1,,,,,
,1.4,,,,,,,,,f.PNG,f,5d88f010859c9e0001810e88,2021-10-19_15h58.57.000,forced_choiceRT,2021.1.2,Win32,60.04202942,,,,,,,,10,Fast,g,0,1.8424,8,2,34,0,1,,,,,
,1.44,,,,,,,,,j.PNG,j,5d88f010859c9e0001810e88,2021-10-19_15h58.57.000,forced_choiceRT,2021.1.2,Win32,60.04202942,,,,,,,,10,Fast,h,0,1.7314,8,3,35,3,1,,,,,
,1.48,,,,,,,,,j.PNG,j,5d88f010859c9e0001810e88,2021-10-19_15h58.57.000,forced_choiceRT,2021.1.2,Win32,60.04202942,,,,,,,,10,Ontime,j,1,2.0771,9,0,36,3,1,,,,,
,0.82,,,,,,,,,g.PNG,g,5d88f010859c9e0001810e88,2021-10-19_15h58.57.000,forced_choiceRT,2021.1.2,Win32,60.04202942,,,,,,,,10,Slow,g,1,2.2394,9,1,37,1,1,,,,,
,1.57,,,,,,,,,j.PNG,j,5d88f010859c9e0001810e88,2021-10-19_15h58.57.000,forced_choiceRT,2021.1.2,Win32,60.04202942,,,,,,,,10,Slow,j,1,2.1138,9,2,38,3,1,,,,,
,1.99,,,,,,,,,f.PNG,f,5d88f010859c9e0001810e88,2021-10-19_15h58.57.000,forced_choiceRT,2021.1.2,Win32,60.04202942,,,,,,,,10,Slow,h,0,2.1712,9,3,39,0,1,,,,,
,,,,,,,,,,,,5d88f010859c9e0001810e88,2021-10-19_15h58.57.000,forced_choiceRT,2021.1.2,Win32,60.04202942,,,,,,,,,,,,,,,,,,9,0,9,0,1
