IP_Addresss,target_onset,trial_resp_sp.keys,trial_resp_sp.corr,trial_resp_sp.rt,trials_train_loop.thisRepN,trials_train_loop.thisTrialN,trials_train_loop.thisN,trials_train_loop.thisIndex,trials_train_loop.ran,pic,correct_key,participant,date,expName,psychopyVersion,OS,frameRate,trial_resp_timing.keys,trial_resp_timing.rt,trials_train_timing.thisRepN,trials_train_timing.thisTrialN,trials_train_timing.thisN,trials_train_timing.thisIndex,trials_train_timing.ran,block_id,ontime,forcedRT_resp.keys,forcedRT_resp.corr,forcedRT_resp.rt,trials.thisRepN,trials.thisTrialN,trials.thisN,trials.thisIndex,trials.ran,blocks.thisRepN,blocks.thisTrialN,blocks.thisN,blocks.thisIndex,blocks.ran
192.181.67.39,0,g,1,3.204,0,0,0,1,1,g.PNG,g,5dc3a77d84799a2a402e531e,2021-10-19_21h14.53.465,forced_choiceRT,2021.1.2,Win32,59.07372401,,,,,,,,,,,,,,,,,,,,,,
,0,f,1,1.1164,0,1,1,0,1,f.PNG,f,5dc3a77d84799a2a402e531e,2021-10-19_21h14.53.465,forced_choiceRT,2021.1.2,Win32,59.07372401,,,,,,,,,,,,,,,,,,,,,,
,0,j,1,1.3465,0,2,2,3,1,j.PNG,j,5dc3a77d84799a2a402e531e,2021-10-19_21h14.53.465,forced_choiceRT,2021.1.2,Win32,59.07372401,,,,,,,,,,,,,,,,,,,,,,
,0,f,1,1.047,0,3,3,0,1,f.PNG,f,5dc3a77d84799a2a402e531e,2021-10-19_21h14.53.465,forced_choiceRT,2021.1.2,Win32,59.07372401,,,,,,,,,,,,,,,,,,,,,,
,0,h,1,1.5828,1,0,4,2,1,h.PNG,h,5dc3a77d84799a2a402e531e,2021-10-19_21h14.53.465,forced_choiceRT,2021.1.2,Win32,59.07372401,,,,,,,,,,,,,,,,,,,,,,
,0,h,1,2.3763,1,1,5,2,1,h.PNG,h,5dc3a77d84799a2a402e531e,2021-10-19_21h14.53.465,forced_choiceRT,2021.1.2,Win32,59.07372401,,,,,,,,,,,,,,,,,,,,,,
,0,g,1,1.4138,1,2,6,1,1,g.PNG,g,5dc3a77d84799a2a402e531e,2021-10-19_21h14.53.465,forced_choiceRT,2021.1.2,Win32,59.07372401,,,,,,,,,,,,,,,,,,,,,,
,0,j,1,1.1364,1,3,7,3,1,j.PNG,j,5dc3a77d84799a2a402e531e,2021-10-19_21h14.53.465,forced_choiceRT,2021.1.2,Win32,59.07372401,,,,,,,,,,,,,,,,,,,,,,
,0,h,1,1.6142,2,0,8,2,1,h.PNG,h,5dc3a77d84799a2a402e531e,2021-10-19_21h14.53.465,forced_choiceRT,2021.1.2,Win32,59.07372401,,,,,,,,,,,,,,,,,,,,,,
,0,j,1,1.0642,2,1,9,3,1,j.PNG,j,5dc3a77d84799a2a402e531e,2021-10-19_21h14.53.465,forced_choiceRT,2021.1.2,Win32,59.07372401,,,,,,,,,,,,,,,,,,,,,,
,0,g,1,1.4727,2,2,10,1,1,g.PNG,g,5dc3a77d84799a2a402e531e,2021-10-19_21h14.53.465,forced_choiceRT,2021.1.2,Win32,59.07372401,,,,,,,,,,,,,,,,,,,,,,
,0,h,1,1.3817,2,3,11,2,1,h.PNG,h,5dc3a77d84799a2a402e531e,2021-10-19_21h14.53.465,forced_choiceRT,2021.1.2,Win32,59.07372401,,,,,,,,,,,,,,,,,,,,,,
,0,g,1,1.3211,3,0,12,1,1,g.PNG,g,5dc3a77d84799a2a402e531e,2021-10-19_21h14.53.465,forced_choiceRT,2021.1.2,Win32,59.07372401,,,,,,,,,,,,,,,,,,,,,,
,0,h,1,1.1802,3,1,13,2,1,h.PNG,h,5dc3a77d84799a2a402e531e,2021-10-19_21h14.53.465,forced_choiceRT,2021.1.2,Win32,59.07372401,,,,,,,,,,,,,,,,,,,,,,
,0,g,1,4.0856,3,2,14,1,1,g.PNG,g,5dc3a77d84799a2a402e531e,2021-10-19_21h14.53.465,forced_choiceRT,2021.1.2,Win32,59.07372401,,,,,,,,,,,,,,,,,,,,,,
,0,f,1,1.1482,3,3,15,0,1,f.PNG,f,5dc3a77d84799a2a402e531e,2021-10-19_21h14.53.465,forced_choiceRT,2021.1.2,Win32,59.07372401,,,,,,,,,,,,,,,,,,,,,,
,0,h,1,1.5066,4,0,16,2,1,h.PNG,h,5dc3a77d84799a2a402e531e,2021-10-19_21h14.53.465,forced_choiceRT,2021.1.2,Win32,59.07372401,,,,,,,,,,,,,,,,,,,,,,
,0,g,1,1.1291,4,1,17,1,1,g.PNG,g,5dc3a77d84799a2a402e531e,2021-10-19_21h14.53.465,forced_choiceRT,2021.1.2,Win32,59.07372401,,,,,,,,,,,,,,,,,,,,,,
,0,h,1,1.1543,4,2,18,2,1,h.PNG,h,5dc3a77d84799a2a402e531e,2021-10-19_21h14.53.465,forced_choiceRT,2021.1.2,Win32,59.07372401,,,,,,,,,,,,,,,,,,,,,,
,0,f,1,0.8564,4,3,19,0,1,f.PNG,f,5dc3a77d84799a2a402e531e,2021-10-19_21h14.53.465,forced_choiceRT,2021.1.2,Win32,59.07372401,,,,,,,,,,,,,,,,,,,,,,
,0,h,1,1.1998,5,0,20,2,1,h.PNG,h,5dc3a77d84799a2a402e531e,2021-10-19_21h14.53.465,forced_choiceRT,2021.1.2,Win32,59.07372401,,,,,,,,,,,,,,,,,,,,,,
,0,j,1,0.9313,5,1,21,3,1,j.PNG,j,5dc3a77d84799a2a402e531e,2021-10-19_21h14.53.465,forced_choiceRT,2021.1.2,Win32,59.07372401,,,,,,,,,,,,,,,,,,,,,,
,0,f,1,0.948,5,2,22,0,1,f.PNG,f,5dc3a77d84799a2a402e531e,2021-10-19_21h14.53.465,forced_choiceRT,2021.1.2,Win32,59.07372401,,,,,,,,,,,,,,,,,,,,,,
,0,f,1,1.0458,5,3,23,0,1,f.PNG,f,5dc3a77d84799a2a402e531e,2021-10-19_21h14.53.465,forced_choiceRT,2021.1.2,Win32,59.07372401,,,,,,,,,,,,,,,,,,,,,,
,0,f,1,0.6656,6,0,24,0,1,f.PNG,f,5dc3a77d84799a2a402e531e,2021-10-19_21h14.53.465,forced_choiceRT,2021.1.2,Win32,59.07372401,,,,,,,,,,,,,,,,,,,,,,
,0,h,1,1.001,6,1,25,2,1,h.PNG,h,5dc3a77d84799a2a402e531e,2021-10-19_21h14.53.465,forced_choiceRT,2021.1.2,Win32,59.07372401,,,,,,,,,,,,,,,,,,,,,,
,0,j,1,0.8339,6,2,26,3,1,j.PNG,j,5dc3a77d84799a2a402e531e,2021-10-19_21h14.53.465,forced_choiceRT,2021.1.2,Win32,59.07372401,,,,,,,,,,,,,,,,,,,,,,
,0,h,1,0.9133,6,3,27,2,1,h.PNG,h,5dc3a77d84799a2a402e531e,2021-10-19_21h14.53.465,forced_choiceRT,2021.1.2,Win32,59.07372401,,,,,,,,,,,,,,,,,,,,,,
,0,f,1,0.7887,7,0,28,0,1,f.PNG,f,5dc3a77d84799a2a402e531e,2021-10-19_21h14.53.465,forced_choiceRT,2021.1.2,Win32,59.07372401,,,,,,,,,,,,,,,,,,,,,,
,0,f,1,1.0877,7,1,29,0,1,f.PNG,f,5dc3a77d84799a2a402e531e,2021-10-19_21h14.53.465,forced_choiceRT,2021.1.2,Win32,59.07372401,,,,,,,,,,,,,,,,,,,,,,
,0,j,1,0.8458,7,2,30,3,1,j.PNG,j,5dc3a77d84799a2a402e531e,2021-10-19_21h14.53.465,forced_choiceRT,2021.1.2,Win32,59.07372401,,,,,,,,,,,,,,,,,,,,,,
,0,g,1,1.2129,7,3,31,1,1,g.PNG,g,5dc3a77d84799a2a402e531e,2021-10-19_21h14.53.465,forced_choiceRT,2021.1.2,Win32,59.07372401,,,,,,,,,,,,,,,,,,,,,,
,0,g,1,1.1852,8,0,32,1,1,g.PNG,g,5dc3a77d84799a2a402e531e,2021-10-19_21h14.53.465,forced_choiceRT,2021.1.2,Win32,59.07372401,,,,,,,,,,,,,,,,,,,,,,
,0,f,1,0.6737,8,1,33,0,1,f.PNG,f,5dc3a77d84799a2a402e531e,2021-10-19_21h14.53.465,forced_choiceRT,2021.1.2,Win32,59.07372401,,,,,,,,,,,,,,,,,,,,,,
,0,h,1,1.0494,8,2,34,2,1,h.PNG,h,5dc3a77d84799a2a402e531e,2021-10-19_21h14.53.465,forced_choiceRT,2021.1.2,Win32,59.07372401,,,,,,,,,,,,,,,,,,,,,,
,0,j,1,0.6815,8,3,35,3,1,j.PNG,j,5dc3a77d84799a2a402e531e,2021-10-19_21h14.53.465,forced_choiceRT,2021.1.2,Win32,59.07372401,,,,,,,,,,,,,,,,,,,,,,
,0,j,1,0.8141,9,0,36,3,1,j.PNG,j,5dc3a77d84799a2a402e531e,2021-10-19_21h14.53.465,forced_choiceRT,2021.1.2,Win32,59.07372401,,,,,,,,,,,,,,,,,,,,,,
,0,j,1,0.817,9,1,37,3,1,j.PNG,j,5dc3a77d84799a2a402e531e,2021-10-19_21h14.53.465,forced_choiceRT,2021.1.2,Win32,59.07372401,,,,,,,,,,,,,,,,,,,,,,
,0,h,1,1.4296,9,2,38,2,1,h.PNG,h,5dc3a77d84799a2a402e531e,2021-10-19_21h14.53.465,forced_choiceRT,2021.1.2,Win32,59.07372401,,,,,,,,,,,,,,,,,,,,,,
,0,h,1,0.6713,9,3,39,2,1,h.PNG,h,5dc3a77d84799a2a402e531e,2021-10-19_21h14.53.465,forced_choiceRT,2021.1.2,Win32,59.07372401,,,,,,,,,,,,,,,,,,,,,,
,0,f,1,0.7312,10,0,40,0,1,f.PNG,f,5dc3a77d84799a2a402e531e,2021-10-19_21h14.53.465,forced_choiceRT,2021.1.2,Win32,59.07372401,,,,,,,,,,,,,,,,,,,,,,
,0,j,1,0.7569,10,1,41,3,1,j.PNG,j,5dc3a77d84799a2a402e531e,2021-10-19_21h14.53.465,forced_choiceRT,2021.1.2,Win32,59.07372401,,,,,,,,,,,,,,,,,,,,,,
,0,j,1,0.7199,10,2,42,3,1,j.PNG,j,5dc3a77d84799a2a402e531e,2021-10-19_21h14.53.465,forced_choiceRT,2021.1.2,Win32,59.07372401,,,,,,,,,,,,,,,,,,,,,,
,0,f,1,0.7356,10,3,43,0,1,f.PNG,f,5dc3a77d84799a2a402e531e,2021-10-19_21h14.53.465,forced_choiceRT,2021.1.2,Win32,59.07372401,,,,,,,,,,,,,,,,,,,,,,
,0,g,1,1.2147,11,0,44,1,1,g.PNG,g,5dc3a77d84799a2a402e531e,2021-10-19_21h14.53.465,forced_choiceRT,2021.1.2,Win32,59.07372401,,,,,,,,,,,,,,,,,,,,,,
,0,f,1,0.84,11,1,45,0,1,f.PNG,f,5dc3a77d84799a2a402e531e,2021-10-19_21h14.53.465,forced_choiceRT,2021.1.2,Win32,59.07372401,,,,,,,,,,,,,,,,,,,,,,
,0,g,1,1.2913,11,2,46,1,1,g.PNG,g,5dc3a77d84799a2a402e531e,2021-10-19_21h14.53.465,forced_choiceRT,2021.1.2,Win32,59.07372401,,,,,,,,,,,,,,,,,,,,,,
,0,g,1,0.983,11,3,47,1,1,g.PNG,g,5dc3a77d84799a2a402e531e,2021-10-19_21h14.53.465,forced_choiceRT,2021.1.2,Win32,59.07372401,,,,,,,,,,,,,,,,,,,,,,
,0,g,1,0.7672,12,0,48,1,1,g.PNG,g,5dc3a77d84799a2a402e531e,2021-10-19_21h14.53.465,forced_choiceRT,2021.1.2,Win32,59.07372401,,,,,,,,,,,,,,,,,,,,,,
,0,f,1,0.8135,12,1,49,0,1,f.PNG,f,5dc3a77d84799a2a402e531e,2021-10-19_21h14.53.465,forced_choiceRT,2021.1.2,Win32,59.07372401,,,,,,,,,,,,,,,,,,,,,,
,0,g,1,0.9082,12,2,50,1,1,g.PNG,g,5dc3a77d84799a2a402e531e,2021-10-19_21h14.53.465,forced_choiceRT,2021.1.2,Win32,59.07372401,,,,,,,,,,,,,,,,,,,,,,
,0,g,1,0.6417,12,3,51,1,1,g.PNG,g,5dc3a77d84799a2a402e531e,2021-10-19_21h14.53.465,forced_choiceRT,2021.1.2,Win32,59.07372401,,,,,,,,,,,,,,,,,,,,,,
,0,j,1,0.7809,13,0,52,3,1,j.PNG,j,5dc3a77d84799a2a402e531e,2021-10-19_21h14.53.465,forced_choiceRT,2021.1.2,Win32,59.07372401,,,,,,,,,,,,,,,,,,,,,,
,0,f,1,0.7629,13,1,53,0,1,f.PNG,f,5dc3a77d84799a2a402e531e,2021-10-19_21h14.53.465,forced_choiceRT,2021.1.2,Win32,59.07372401,,,,,,,,,,,,,,,,,,,,,,
,0,h,1,1.0157,13,2,54,2,1,h.PNG,h,5dc3a77d84799a2a402e531e,2021-10-19_21h14.53.465,forced_choiceRT,2021.1.2,Win32,59.07372401,,,,,,,,,,,,,,,,,,,,,,
,0,g,1,0.8365,13,3,55,1,1,g.PNG,g,5dc3a77d84799a2a402e531e,2021-10-19_21h14.53.465,forced_choiceRT,2021.1.2,Win32,59.07372401,,,,,,,,,,,,,,,,,,,,,,
,0,j,1,0.7203,14,0,56,3,1,j.PNG,j,5dc3a77d84799a2a402e531e,2021-10-19_21h14.53.465,forced_choiceRT,2021.1.2,Win32,59.07372401,,,,,,,,,,,,,,,,,,,,,,
,0,j,1,0.6563,14,1,57,3,1,j.PNG,j,5dc3a77d84799a2a402e531e,2021-10-19_21h14.53.465,forced_choiceRT,2021.1.2,Win32,59.07372401,,,,,,,,,,,,,,,,,,,,,,
,0,h,1,2.1591,14,2,58,2,1,h.PNG,h,5dc3a77d84799a2a402e531e,2021-10-19_21h14.53.465,forced_choiceRT,2021.1.2,Win32,59.07372401,,,,,,,,,,,,,,,,,,,,,,
,0,j,1,0.8008,14,3,59,3,1,j.PNG,j,5dc3a77d84799a2a402e531e,2021-10-19_21h14.53.465,forced_choiceRT,2021.1.2,Win32,59.07372401,,,,,,,,,,,,,,,,,,,,,,
,,,,,,,,,,,,5dc3a77d84799a2a402e531e,2021-10-19_21h14.53.465,forced_choiceRT,2021.1.2,Win32,59.07372401,f,2.301,0,0,0,0,1,,,,,,,,,,,,,,,
,,,,,,,,,,,,5dc3a77d84799a2a402e531e,2021-10-19_21h14.53.465,forced_choiceRT,2021.1.2,Win32,59.07372401,f,2.0612,1,0,1,0,1,,,,,,,,,,,,,,,
,,,,,,,,,,,,5dc3a77d84799a2a402e531e,2021-10-19_21h14.53.465,forced_choiceRT,2021.1.2,Win32,59.07372401,f,2.1254,2,0,2,0,1,,,,,,,,,,,,,,,
,,,,,,,,,,,,5dc3a77d84799a2a402e531e,2021-10-19_21h14.53.465,forced_choiceRT,2021.1.2,Win32,59.07372401,f,1.7519,3,0,3,0,1,,,,,,,,,,,,,,,
,,,,,,,,,,,,5dc3a77d84799a2a402e531e,2021-10-19_21h14.53.465,forced_choiceRT,2021.1.2,Win32,59.07372401,f,2.1583,4,0,4,0,1,,,,,,,,,,,,,,,
,,,,,,,,,,,,5dc3a77d84799a2a402e531e,2021-10-19_21h14.53.465,forced_choiceRT,2021.1.2,Win32,59.07372401,j,2.0921,5,0,5,0,1,,,,,,,,,,,,,,,
,,,,,,,,,,,,5dc3a77d84799a2a402e531e,2021-10-19_21h14.53.465,forced_choiceRT,2021.1.2,Win32,59.07372401,j,2.0746,6,0,6,0,1,,,,,,,,,,,,,,,
,,,,,,,,,,,,5dc3a77d84799a2a402e531e,2021-10-19_21h14.53.465,forced_choiceRT,2021.1.2,Win32,59.07372401,j,2.1185,7,0,7,0,1,,,,,,,,,,,,,,,
,,,,,,,,,,,,5dc3a77d84799a2a402e531e,2021-10-19_21h14.53.465,forced_choiceRT,2021.1.2,Win32,59.07372401,j,2.1388,8,0,8,0,1,,,,,,,,,,,,,,,
,,,,,,,,,,,,5dc3a77d84799a2a402e531e,2021-10-19_21h14.53.465,forced_choiceRT,2021.1.2,Win32,59.07372401,j,2.0714,9,0,9,0,1,,,,,,,,,,,,,,,
,,,,,,,,,,,,5dc3a77d84799a2a402e531e,2021-10-19_21h14.53.465,forced_choiceRT,2021.1.2,Win32,59.07372401,j,2.0791,10,0,10,0,1,,,,,,,,,,,,,,,
,,,,,,,,,,,,5dc3a77d84799a2a402e531e,2021-10-19_21h14.53.465,forced_choiceRT,2021.1.2,Win32,59.07372401,j,2.0683,11,0,11,0,1,,,,,,,,,,,,,,,
,,,,,,,,,,,,5dc3a77d84799a2a402e531e,2021-10-19_21h14.53.465,forced_choiceRT,2021.1.2,Win32,59.07372401,j,2.0242,12,0,12,0,1,,,,,,,,,,,,,,,
,,,,,,,,,,,,5dc3a77d84799a2a402e531e,2021-10-19_21h14.53.465,forced_choiceRT,2021.1.2,Win32,59.07372401,j,2.0716,13,0,13,0,1,,,,,,,,,,,,,,,
,,,,,,,,,,,,5dc3a77d84799a2a402e531e,2021-10-19_21h14.53.465,forced_choiceRT,2021.1.2,Win32,59.07372401,j,2.0396,14,0,14,0,1,,,,,,,,,,,,,,,
,,,,,,,,,,,,5dc3a77d84799a2a402e531e,2021-10-19_21h14.53.465,forced_choiceRT,2021.1.2,Win32,59.07372401,j,2.0519,15,0,15,0,1,,,,,,,,,,,,,,,
,,,,,,,,,,,,5dc3a77d84799a2a402e531e,2021-10-19_21h14.53.465,forced_choiceRT,2021.1.2,Win32,59.07372401,j,2.1228,16,0,16,0,1,,,,,,,,,,,,,,,
,,,,,,,,,,,,5dc3a77d84799a2a402e531e,2021-10-19_21h14.53.465,forced_choiceRT,2021.1.2,Win32,59.07372401,j,2.1021,17,0,17,0,1,,,,,,,,,,,,,,,
,,,,,,,,,,,,5dc3a77d84799a2a402e531e,2021-10-19_21h14.53.465,forced_choiceRT,2021.1.2,Win32,59.07372401,j,2.0681,18,0,18,0,1,,,,,,,,,,,,,,,
,,,,,,,,,,,,5dc3a77d84799a2a402e531e,2021-10-19_21h14.53.465,forced_choiceRT,2021.1.2,Win32,59.07372401,j,2.0879,19,0,19,0,1,,,,,,,,,,,,,,,
,0.81,,,,,,,,,h.PNG,h,5dc3a77d84799a2a402e531e,2021-10-19_21h14.53.465,forced_choiceRT,2021.1.2,Win32,59.07372401,,,,,,,,1,Ontime,j,0,2.07,0,0,0,2,1,,,,,
,0.61,,,,,,,,,f.PNG,f,5dc3a77d84799a2a402e531e,2021-10-19_21h14.53.465,forced_choiceRT,2021.1.2,Win32,59.07372401,,,,,,,,1,Ontime,f,1,2.0478,0,1,1,0,1,,,,,
,1.05,,,,,,,,,f.PNG,f,5dc3a77d84799a2a402e531e,2021-10-19_21h14.53.465,forced_choiceRT,2021.1.2,Win32,59.07372401,,,,,,,,1,Fast,g,0,1.7521,0,2,2,0,1,,,,,
,0.76,,,,,,,,,f.PNG,f,5dc3a77d84799a2a402e531e,2021-10-19_21h14.53.465,forced_choiceRT,2021.1.2,Win32,59.07372401,,,,,,,,1,Ontime,f,1,2.0422,0,3,3,0,1,,,,,
,1.92,,,,,,,,,g.PNG,g,5dc3a77d84799a2a402e531e,2021-10-19_21h14.53.465,forced_choiceRT,2021.1.2,Win32,59.07372401,,,,,,,,1,Slow,j,0,2.2469,1,0,4,1,1,,,,,
,1.25,,,,,,,,,g.PNG,g,5dc3a77d84799a2a402e531e,2021-10-19_21h14.53.465,forced_choiceRT,2021.1.2,Win32,59.07372401,,,,,,,,1,Ontime,g,1,2.0211,1,1,5,1,1,,,,,
,1.6,,,,,,,,,g.PNG,g,5dc3a77d84799a2a402e531e,2021-10-19_21h14.53.465,forced_choiceRT,2021.1.2,Win32,59.07372401,,,,,,,,1,Ontime,f,0,1.9653,1,2,6,1,1,,,,,
,0.29,,,,,,,,,j.PNG,j,5dc3a77d84799a2a402e531e,2021-10-19_21h14.53.465,forced_choiceRT,2021.1.2,Win32,59.07372401,,,,,,,,1,Slow,j,1,2.1153,1,3,7,3,1,,,,,
,0.36,,,,,,,,,f.PNG,f,5dc3a77d84799a2a402e531e,2021-10-19_21h14.53.465,forced_choiceRT,2021.1.2,Win32,59.07372401,,,,,,,,1,Ontime,f,1,2.015,2,0,8,0,1,,,,,
,0.09,,,,,,,,,h.PNG,h,5dc3a77d84799a2a402e531e,2021-10-19_21h14.53.465,forced_choiceRT,2021.1.2,Win32,59.07372401,,,,,,,,1,Ontime,g,0,2.0756,2,1,9,2,1,,,,,
,0.06,,,,,,,,,f.PNG,f,5dc3a77d84799a2a402e531e,2021-10-19_21h14.53.465,forced_choiceRT,2021.1.2,Win32,59.07372401,,,,,,,,1,Ontime,f,1,2.0756,2,2,10,0,1,,,,,
,1.59,,,,,,,,,h.PNG,h,5dc3a77d84799a2a402e531e,2021-10-19_21h14.53.465,forced_choiceRT,2021.1.2,Win32,59.07372401,,,,,,,,1,Slow,j,0,2.2534,2,3,11,2,1,,,,,
,0.35,,,,,,,,,h.PNG,h,5dc3a77d84799a2a402e531e,2021-10-19_21h14.53.465,forced_choiceRT,2021.1.2,Win32,59.07372401,,,,,,,,1,Ontime,g,0,2.0345,3,0,12,2,1,,,,,
,1.68,,,,,,,,,f.PNG,f,5dc3a77d84799a2a402e531e,2021-10-19_21h14.53.465,forced_choiceRT,2021.1.2,Win32,59.07372401,,,,,,,,1,Slow,j,0,2.2476,3,1,13,0,1,,,,,
,0.39,,,,,,,,,h.PNG,h,5dc3a77d84799a2a402e531e,2021-10-19_21h14.53.465,forced_choiceRT,2021.1.2,Win32,59.07372401,,,,,,,,1,Fast,g,0,1.792,3,2,14,2,1,,,,,
,1.44,,,,,,,,,f.PNG,f,5dc3a77d84799a2a402e531e,2021-10-19_21h14.53.465,forced_choiceRT,2021.1.2,Win32,59.07372401,,,,,,,,1,Ontime,g,0,2.0319,3,3,15,0,1,,,,,
,0.19,,,,,,,,,h.PNG,h,5dc3a77d84799a2a402e531e,2021-10-19_21h14.53.465,forced_choiceRT,2021.1.2,Win32,59.07372401,,,,,,,,1,Ontime,g,0,2.042,4,0,16,2,1,,,,,
,1.17,,,,,,,,,j.PNG,j,5dc3a77d84799a2a402e531e,2021-10-19_21h14.53.465,forced_choiceRT,2021.1.2,Win32,59.07372401,,,,,,,,1,Ontime,j,1,1.9736,4,1,17,3,1,,,,,
,0.74,,,,,,,,,j.PNG,j,5dc3a77d84799a2a402e531e,2021-10-19_21h14.53.465,forced_choiceRT,2021.1.2,Win32,59.07372401,,,,,,,,1,Ontime,j,1,2.0481,4,2,18,3,1,,,,,
,1.75,,,,,,,,,g.PNG,g,5dc3a77d84799a2a402e531e,2021-10-19_21h14.53.465,forced_choiceRT,2021.1.2,Win32,59.07372401,,,,,,,,1,Slow,f,0,2.1935,4,3,19,1,1,,,,,
,0.71,,,,,,,,,j.PNG,j,5dc3a77d84799a2a402e531e,2021-10-19_21h14.53.465,forced_choiceRT,2021.1.2,Win32,59.07372401,,,,,,,,1,Ontime,j,1,2.0347,5,0,20,3,1,,,,,
,0.89,,,,,,,,,j.PNG,j,5dc3a77d84799a2a402e531e,2021-10-19_21h14.53.465,forced_choiceRT,2021.1.2,Win32,59.07372401,,,,,,,,1,Ontime,j,1,2.022,5,1,21,3,1,,,,,
,0.01,,,,,,,,,j.PNG,j,5dc3a77d84799a2a402e531e,2021-10-19_21h14.53.465,forced_choiceRT,2021.1.2,Win32,59.07372401,,,,,,,,1,Ontime,j,1,1.9816,5,2,22,3,1,,,,,
,0.77,,,,,,,,,f.PNG,f,5dc3a77d84799a2a402e531e,2021-10-19_21h14.53.465,forced_choiceRT,2021.1.2,Win32,59.07372401,,,,,,,,1,Ontime,f,1,1.9976,5,3,23,0,1,,,,,
,0.09,,,,,,,,,j.PNG,j,5dc3a77d84799a2a402e531e,2021-10-19_21h14.53.465,forced_choiceRT,2021.1.2,Win32,59.07372401,,,,,,,,1,Ontime,j,1,2.022,6,0,24,3,1,,,,,
,1.16,,,,,,,,,g.PNG,g,5dc3a77d84799a2a402e531e,2021-10-19_21h14.53.465,forced_choiceRT,2021.1.2,Win32,59.07372401,,,,,,,,1,Ontime,g,1,2.0473,6,1,25,1,1,,,,,
,1.96,,,,,,,,,h.PNG,h,5dc3a77d84799a2a402e531e,2021-10-19_21h14.53.465,forced_choiceRT,2021.1.2,Win32,59.07372401,,,,,,,,1,Ontime,j,0,2.0565,6,2,26,2,1,,,,,
,0,,,,,,,,,g.PNG,g,5dc3a77d84799a2a402e531e,2021-10-19_21h14.53.465,forced_choiceRT,2021.1.2,Win32,59.07372401,,,,,,,,1,Ontime,h,0,2.0483,6,3,27,1,1,,,,,
,1.54,,,,,,,,,g.PNG,g,5dc3a77d84799a2a402e531e,2021-10-19_21h14.53.465,forced_choiceRT,2021.1.2,Win32,59.07372401,,,,,,,,1,Slow,h,0,2.1845,7,0,28,1,1,,,,,
,1.42,,,,,,,,,f.PNG,f,5dc3a77d84799a2a402e531e,2021-10-19_21h14.53.465,forced_choiceRT,2021.1.2,Win32,59.07372401,,,,,,,,1,Fast,f,1,1.8986,7,1,29,0,1,,,,,
,0.04,,,,,,,,,h.PNG,h,5dc3a77d84799a2a402e531e,2021-10-19_21h14.53.465,forced_choiceRT,2021.1.2,Win32,59.07372401,,,,,,,,1,Ontime,g,0,2.032,7,2,30,2,1,,,,,
,1.23,,,,,,,,,j.PNG,j,5dc3a77d84799a2a402e531e,2021-10-19_21h14.53.465,forced_choiceRT,2021.1.2,Win32,59.07372401,,,,,,,,1,Ontime,j,1,1.9005,7,3,31,3,1,,,,,
,1.43,,,,,,,,,f.PNG,f,5dc3a77d84799a2a402e531e,2021-10-19_21h14.53.465,forced_choiceRT,2021.1.2,Win32,59.07372401,,,,,,,,1,Ontime,g,0,1.9482,8,0,32,0,1,,,,,
,1.47,,,,,,,,,j.PNG,j,5dc3a77d84799a2a402e531e,2021-10-19_21h14.53.465,forced_choiceRT,2021.1.2,Win32,59.07372401,,,,,,,,1,Slow,j,1,2.1365,8,1,33,3,1,,,,,
,1.79,,,,,,,,,h.PNG,h,5dc3a77d84799a2a402e531e,2021-10-19_21h14.53.465,forced_choiceRT,2021.1.2,Win32,59.07372401,,,,,,,,1,Slow,f,0,2.1206,8,2,34,2,1,,,,,
,1.47,,,,,,,,,j.PNG,j,5dc3a77d84799a2a402e531e,2021-10-19_21h14.53.465,forced_choiceRT,2021.1.2,Win32,59.07372401,,,,,,,,1,Ontime,j,1,1.9872,8,3,35,3,1,,,,,
,1.89,,,,,,,,,g.PNG,g,5dc3a77d84799a2a402e531e,2021-10-19_21h14.53.465,forced_choiceRT,2021.1.2,Win32,59.07372401,,,,,,,,1,Slow,f,0,2.115,9,0,36,1,1,,,,,
,0.88,,,,,,,,,g.PNG,g,5dc3a77d84799a2a402e531e,2021-10-19_21h14.53.465,forced_choiceRT,2021.1.2,Win32,59.07372401,,,,,,,,1,Fast,h,0,1.8157,9,1,37,1,1,,,,,
,0.53,,,,,,,,,g.PNG,g,5dc3a77d84799a2a402e531e,2021-10-19_21h14.53.465,forced_choiceRT,2021.1.2,Win32,59.07372401,,,,,,,,1,Ontime,h,0,2.0331,9,2,38,1,1,,,,,
,0.57,,,,,,,,,h.PNG,h,5dc3a77d84799a2a402e531e,2021-10-19_21h14.53.465,forced_choiceRT,2021.1.2,Win32,59.07372401,,,,,,,,1,Fast,g,0,1.8139,9,3,39,2,1,,,,,
,,,,,,,,,,,,5dc3a77d84799a2a402e531e,2021-10-19_21h14.53.465,forced_choiceRT,2021.1.2,Win32,59.07372401,,,,,,,,,,,,,,,,,,0,0,0,0,1
,1.43,,,,,,,,,f.PNG,f,5dc3a77d84799a2a402e531e,2021-10-19_21h14.53.465,forced_choiceRT,2021.1.2,Win32,59.07372401,,,,,,,,2,Ontime,f,1,2.0822,0,0,0,0,1,,,,,
,1.58,,,,,,,,,f.PNG,f,5dc3a77d84799a2a402e531e,2021-10-19_21h14.53.465,forced_choiceRT,2021.1.2,Win32,59.07372401,,,,,,,,2,Slow,g,0,2.2091,0,1,1,0,1,,,,,
,1.36,,,,,,,,,h.PNG,h,5dc3a77d84799a2a402e531e,2021-10-19_21h14.53.465,forced_choiceRT,2021.1.2,Win32,59.07372401,,,,,,,,2,Ontime,g,0,1.9586,0,2,2,2,1,,,,,
,0.81,,,,,,,,,j.PNG,j,5dc3a77d84799a2a402e531e,2021-10-19_21h14.53.465,forced_choiceRT,2021.1.2,Win32,59.07372401,,,,,,,,2,Ontime,j,1,2.0517,0,3,3,3,1,,,,,
,0.83,,,,,,,,,j.PNG,j,5dc3a77d84799a2a402e531e,2021-10-19_21h14.53.465,forced_choiceRT,2021.1.2,Win32,59.07372401,,,,,,,,2,Ontime,j,1,2.0895,1,0,4,3,1,,,,,
,0.25,,,,,,,,,g.PNG,g,5dc3a77d84799a2a402e531e,2021-10-19_21h14.53.465,forced_choiceRT,2021.1.2,Win32,59.07372401,,,,,,,,2,Ontime,h,0,2.0258,1,1,5,1,1,,,,,
,0.58,,,,,,,,,g.PNG,g,5dc3a77d84799a2a402e531e,2021-10-19_21h14.53.465,forced_choiceRT,2021.1.2,Win32,59.07372401,,,,,,,,2,Ontime,g,1,2.052,1,2,6,1,1,,,,,
,0,,,,,,,,,h.PNG,h,5dc3a77d84799a2a402e531e,2021-10-19_21h14.53.465,forced_choiceRT,2021.1.2,Win32,59.07372401,,,,,,,,2,Ontime,h,1,2.0529,1,3,7,2,1,,,,,
,1.07,,,,,,,,,h.PNG,h,5dc3a77d84799a2a402e531e,2021-10-19_21h14.53.465,forced_choiceRT,2021.1.2,Win32,59.07372401,,,,,,,,2,Ontime,g,0,1.9351,2,0,8,2,1,,,,,
,0.66,,,,,,,,,h.PNG,h,5dc3a77d84799a2a402e531e,2021-10-19_21h14.53.465,forced_choiceRT,2021.1.2,Win32,59.07372401,,,,,,,,2,Ontime,g,0,1.9255,2,1,9,2,1,,,,,
,1.32,,,,,,,,,g.PNG,g,5dc3a77d84799a2a402e531e,2021-10-19_21h14.53.465,forced_choiceRT,2021.1.2,Win32,59.07372401,,,,,,,,2,Fast,j,0,1.8854,2,2,10,1,1,,,,,
,0.79,,,,,,,,,f.PNG,f,5dc3a77d84799a2a402e531e,2021-10-19_21h14.53.465,forced_choiceRT,2021.1.2,Win32,59.07372401,,,,,,,,2,Ontime,f,1,2.0104,2,3,11,0,1,,,,,
,1.23,,,,,,,,,g.PNG,g,5dc3a77d84799a2a402e531e,2021-10-19_21h14.53.465,forced_choiceRT,2021.1.2,Win32,59.07372401,,,,,,,,2,Ontime,h,0,2.0378,3,0,12,1,1,,,,,
,0.98,,,,,,,,,g.PNG,g,5dc3a77d84799a2a402e531e,2021-10-19_21h14.53.465,forced_choiceRT,2021.1.2,Win32,59.07372401,,,,,,,,2,Ontime,g,1,1.9277,3,1,13,1,1,,,,,
,1.33,,,,,,,,,j.PNG,j,5dc3a77d84799a2a402e531e,2021-10-19_21h14.53.465,forced_choiceRT,2021.1.2,Win32,59.07372401,,,,,,,,2,Slow,j,1,2.1229,3,2,14,3,1,,,,,
,1.26,,,,,,,,,g.PNG,g,5dc3a77d84799a2a402e531e,2021-10-19_21h14.53.465,forced_choiceRT,2021.1.2,Win32,59.07372401,,,,,,,,2,Slow,h,0,2.1226,3,3,15,1,1,,,,,
,0.79,,,,,,,,,j.PNG,j,5dc3a77d84799a2a402e531e,2021-10-19_21h14.53.465,forced_choiceRT,2021.1.2,Win32,59.07372401,,,,,,,,2,Ontime,j,1,2.0685,4,0,16,3,1,,,,,
,0.59,,,,,,,,,j.PNG,j,5dc3a77d84799a2a402e531e,2021-10-19_21h14.53.465,forced_choiceRT,2021.1.2,Win32,59.07372401,,,,,,,,2,Ontime,j,1,2.0232,4,1,17,3,1,,,,,
,1.24,,,,,,,,,h.PNG,h,5dc3a77d84799a2a402e531e,2021-10-19_21h14.53.465,forced_choiceRT,2021.1.2,Win32,59.07372401,,,,,,,,2,Ontime,h,1,2.0681,4,2,18,2,1,,,,,
,1.43,,,,,,,,,f.PNG,f,5dc3a77d84799a2a402e531e,2021-10-19_21h14.53.465,forced_choiceRT,2021.1.2,Win32,59.07372401,,,,,,,,2,Ontime,f,1,1.9913,4,3,19,0,1,,,,,
,1.04,,,,,,,,,j.PNG,j,5dc3a77d84799a2a402e531e,2021-10-19_21h14.53.465,forced_choiceRT,2021.1.2,Win32,59.07372401,,,,,,,,2,Ontime,j,1,2.0517,5,0,20,3,1,,,,,
,1.89,,,,,,,,,g.PNG,g,5dc3a77d84799a2a402e531e,2021-10-19_21h14.53.465,forced_choiceRT,2021.1.2,Win32,59.07372401,,,,,,,,2,Slow,f,0,2.1512,5,1,21,1,1,,,,,
,0.85,,,,,,,,,h.PNG,h,5dc3a77d84799a2a402e531e,2021-10-19_21h14.53.465,forced_choiceRT,2021.1.2,Win32,59.07372401,,,,,,,,2,Fast,h,1,1.7699,5,2,22,2,1,,,,,
,1.73,,,,,,,,,h.PNG,h,5dc3a77d84799a2a402e531e,2021-10-19_21h14.53.465,forced_choiceRT,2021.1.2,Win32,59.07372401,,,,,,,,2,Ontime,f,0,2.0231,5,3,23,2,1,,,,,
,1.54,,,,,,,,,j.PNG,j,5dc3a77d84799a2a402e531e,2021-10-19_21h14.53.465,forced_choiceRT,2021.1.2,Win32,59.07372401,,,,,,,,2,Ontime,j,1,2.0233,6,0,24,3,1,,,,,
,0.48,,,,,,,,,j.PNG,j,5dc3a77d84799a2a402e531e,2021-10-19_21h14.53.465,forced_choiceRT,2021.1.2,Win32,59.07372401,,,,,,,,2,Ontime,j,1,1.992,6,1,25,3,1,,,,,
,1.97,,,,,,,,,g.PNG,g,5dc3a77d84799a2a402e531e,2021-10-19_21h14.53.465,forced_choiceRT,2021.1.2,Win32,59.07372401,,,,,,,,2,Ontime,g,1,2.078,6,2,26,1,1,,,,,
,1.17,,,,,,,,,g.PNG,g,5dc3a77d84799a2a402e531e,2021-10-19_21h14.53.465,forced_choiceRT,2021.1.2,Win32,59.07372401,,,,,,,,2,Ontime,g,1,1.9384,6,3,27,1,1,,,,,
,1.12,,,,,,,,,g.PNG,g,5dc3a77d84799a2a402e531e,2021-10-19_21h14.53.465,forced_choiceRT,2021.1.2,Win32,59.07372401,,,,,,,,2,Ontime,g,1,2.0026,7,0,28,1,1,,,,,
,1.44,,,,,,,,,h.PNG,h,5dc3a77d84799a2a402e531e,2021-10-19_21h14.53.465,forced_choiceRT,2021.1.2,Win32,59.07372401,,,,,,,,2,Slow,h,1,2.2086,7,1,29,2,1,,,,,
,0.2,,,,,,,,,f.PNG,f,5dc3a77d84799a2a402e531e,2021-10-19_21h14.53.465,forced_choiceRT,2021.1.2,Win32,59.07372401,,,,,,,,2,Fast,f,1,1.8865,7,2,30,0,1,,,,,
,1.13,,,,,,,,,f.PNG,f,5dc3a77d84799a2a402e531e,2021-10-19_21h14.53.465,forced_choiceRT,2021.1.2,Win32,59.07372401,,,,,,,,2,Ontime,f,1,1.9285,7,3,31,0,1,,,,,
,0.11,,,,,,,,,f.PNG,f,5dc3a77d84799a2a402e531e,2021-10-19_21h14.53.465,forced_choiceRT,2021.1.2,Win32,59.07372401,,,,,,,,2,Ontime,f,1,2.0237,8,0,32,0,1,,,,,
,0.86,,,,,,,,,f.PNG,f,5dc3a77d84799a2a402e531e,2021-10-19_21h14.53.465,forced_choiceRT,2021.1.2,Win32,59.07372401,,,,,,,,2,Ontime,f,1,2.0039,8,1,33,0,1,,,,,
,0.59,,,,,,,,,h.PNG,h,5dc3a77d84799a2a402e531e,2021-10-19_21h14.53.465,forced_choiceRT,2021.1.2,Win32,59.07372401,,,,,,,,2,Slow,h,1,2.1263,8,2,34,2,1,,,,,
,1.29,,,,,,,,,j.PNG,j,5dc3a77d84799a2a402e531e,2021-10-19_21h14.53.465,forced_choiceRT,2021.1.2,Win32,59.07372401,,,,,,,,2,Ontime,j,1,1.9849,8,3,35,3,1,,,,,
,1.29,,,,,,,,,j.PNG,j,5dc3a77d84799a2a402e531e,2021-10-19_21h14.53.465,forced_choiceRT,2021.1.2,Win32,59.07372401,,,,,,,,2,Slow,j,1,2.1246,9,0,36,3,1,,,,,
,0.11,,,,,,,,,f.PNG,f,5dc3a77d84799a2a402e531e,2021-10-19_21h14.53.465,forced_choiceRT,2021.1.2,Win32,59.07372401,,,,,,,,2,Ontime,f,1,2.0608,9,1,37,0,1,,,,,
,0.27,,,,,,,,,f.PNG,f,5dc3a77d84799a2a402e531e,2021-10-19_21h14.53.465,forced_choiceRT,2021.1.2,Win32,59.07372401,,,,,,,,2,Ontime,f,1,1.9909,9,2,38,0,1,,,,,
,1.71,,,,,,,,,h.PNG,h,5dc3a77d84799a2a402e531e,2021-10-19_21h14.53.465,forced_choiceRT,2021.1.2,Win32,59.07372401,,,,,,,,2,Slow,h,1,2.1552,9,3,39,2,1,,,,,
,,,,,,,,,,,,5dc3a77d84799a2a402e531e,2021-10-19_21h14.53.465,forced_choiceRT,2021.1.2,Win32,59.07372401,,,,,,,,,,,,,,,,,,1,0,1,0,1
,0.47,,,,,,,,,h.PNG,h,5dc3a77d84799a2a402e531e,2021-10-19_21h14.53.465,forced_choiceRT,2021.1.2,Win32,59.07372401,,,,,,,,3,Ontime,j,0,2.0474,0,0,0,2,1,,,,,
,1.4,,,,,,,,,j.PNG,j,5dc3a77d84799a2a402e531e,2021-10-19_21h14.53.465,forced_choiceRT,2021.1.2,Win32,59.07372401,,,,,,,,3,Ontime,j,1,1.9184,0,1,1,3,1,,,,,
,1.88,,,,,,,,,j.PNG,j,5dc3a77d84799a2a402e531e,2021-10-19_21h14.53.465,forced_choiceRT,2021.1.2,Win32,59.07372401,,,,,,,,3,Slow,g,0,2.2853,0,2,2,3,1,,,,,
,0.43,,,,,,,,,f.PNG,f,5dc3a77d84799a2a402e531e,2021-10-19_21h14.53.465,forced_choiceRT,2021.1.2,Win32,59.07372401,,,,,,,,3,Ontime,f,1,2.0209,0,3,3,0,1,,,,,
,1.82,,,,,,,,,f.PNG,f,5dc3a77d84799a2a402e531e,2021-10-19_21h14.53.465,forced_choiceRT,2021.1.2,Win32,59.07372401,,,,,,,,3,Ontime,h,0,2.0578,1,0,4,0,1,,,,,
,0.57,,,,,,,,,g.PNG,g,5dc3a77d84799a2a402e531e,2021-10-19_21h14.53.465,forced_choiceRT,2021.1.2,Win32,59.07372401,,,,,,,,3,Ontime,h,0,1.9897,1,1,5,1,1,,,,,
,1.96,,,,,,,,,h.PNG,h,5dc3a77d84799a2a402e531e,2021-10-19_21h14.53.465,forced_choiceRT,2021.1.2,Win32,59.07372401,,,,,,,,3,Ontime,g,0,2.019,1,2,6,2,1,,,,,
,1.98,,,,,,,,,f.PNG,f,5dc3a77d84799a2a402e531e,2021-10-19_21h14.53.465,forced_choiceRT,2021.1.2,Win32,59.07372401,,,,,,,,3,Slow,h,0,2.2348,1,3,7,0,1,,,,,
,0.19,,,,,,,,,g.PNG,g,5dc3a77d84799a2a402e531e,2021-10-19_21h14.53.465,forced_choiceRT,2021.1.2,Win32,59.07372401,,,,,,,,3,Fast,h,0,1.6753,2,0,8,1,1,,,,,
,0.14,,,,,,,,,h.PNG,h,5dc3a77d84799a2a402e531e,2021-10-19_21h14.53.465,forced_choiceRT,2021.1.2,Win32,59.07372401,,,,,,,,3,Fast,h,1,1.8069,2,1,9,2,1,,,,,
,0.51,,,,,,,,,h.PNG,h,5dc3a77d84799a2a402e531e,2021-10-19_21h14.53.465,forced_choiceRT,2021.1.2,Win32,59.07372401,,,,,,,,3,Ontime,h,1,2.0708,2,2,10,2,1,,,,,
,0.54,,,,,,,,,h.PNG,h,5dc3a77d84799a2a402e531e,2021-10-19_21h14.53.465,forced_choiceRT,2021.1.2,Win32,59.07372401,,,,,,,,3,Slow,h,1,2.1183,2,3,11,2,1,,,,,
,0.16,,,,,,,,,f.PNG,f,5dc3a77d84799a2a402e531e,2021-10-19_21h14.53.465,forced_choiceRT,2021.1.2,Win32,59.07372401,,,,,,,,3,Ontime,f,1,2.0864,3,0,12,0,1,,,,,
,0.48,,,,,,,,,g.PNG,g,5dc3a77d84799a2a402e531e,2021-10-19_21h14.53.465,forced_choiceRT,2021.1.2,Win32,59.07372401,,,,,,,,3,Ontime,h,0,2.0364,3,1,13,1,1,,,,,
,0.72,,,,,,,,,h.PNG,h,5dc3a77d84799a2a402e531e,2021-10-19_21h14.53.465,forced_choiceRT,2021.1.2,Win32,59.07372401,,,,,,,,3,Fast,h,1,1.8351,3,2,14,2,1,,,,,
,0.24,,,,,,,,,h.PNG,h,5dc3a77d84799a2a402e531e,2021-10-19_21h14.53.465,forced_choiceRT,2021.1.2,Win32,59.07372401,,,,,,,,3,Ontime,h,1,2.0276,3,3,15,2,1,,,,,
,1.03,,,,,,,,,j.PNG,j,5dc3a77d84799a2a402e531e,2021-10-19_21h14.53.465,forced_choiceRT,2021.1.2,Win32,59.07372401,,,,,,,,3,Ontime,j,1,2.0745,4,0,16,3,1,,,,,
,0.5,,,,,,,,,f.PNG,f,5dc3a77d84799a2a402e531e,2021-10-19_21h14.53.465,forced_choiceRT,2021.1.2,Win32,59.07372401,,,,,,,,3,Ontime,f,1,2.0091,4,1,17,0,1,,,,,
,0.56,,,,,,,,,g.PNG,g,5dc3a77d84799a2a402e531e,2021-10-19_21h14.53.465,forced_choiceRT,2021.1.2,Win32,59.07372401,,,,,,,,3,Slow,g,1,2.1011,4,2,18,1,1,,,,,
,1.97,,,,,,,,,j.PNG,j,5dc3a77d84799a2a402e531e,2021-10-19_21h14.53.465,forced_choiceRT,2021.1.2,Win32,59.07372401,,,,,,,,3,Ontime,f,0,1.9183,4,3,19,3,1,,,,,
,1.64,,,,,,,,,g.PNG,g,5dc3a77d84799a2a402e531e,2021-10-19_21h14.53.465,forced_choiceRT,2021.1.2,Win32,59.07372401,,,,,,,,3,Slow,h,0,2.2952,5,0,20,1,1,,,,,
,0.17,,,,,,,,,g.PNG,g,5dc3a77d84799a2a402e531e,2021-10-19_21h14.53.465,forced_choiceRT,2021.1.2,Win32,59.07372401,,,,,,,,3,Fast,g,1,1.7186,5,1,21,1,1,,,,,
,1.93,,,,,,,,,j.PNG,j,5dc3a77d84799a2a402e531e,2021-10-19_21h14.53.465,forced_choiceRT,2021.1.2,Win32,59.07372401,,,,,,,,3,Ontime,f,0,2.0949,5,2,22,3,1,,,,,
,1.39,,,,,,,,,g.PNG,g,5dc3a77d84799a2a402e531e,2021-10-19_21h14.53.465,forced_choiceRT,2021.1.2,Win32,59.07372401,,,,,,,,3,Ontime,h,0,2.085,5,3,23,1,1,,,,,
,0.28,,,,,,,,,f.PNG,f,5dc3a77d84799a2a402e531e,2021-10-19_21h14.53.465,forced_choiceRT,2021.1.2,Win32,59.07372401,,,,,,,,3,Ontime,f,1,2.0517,6,0,24,0,1,,,,,
,1.78,,,,,,,,,f.PNG,f,5dc3a77d84799a2a402e531e,2021-10-19_21h14.53.465,forced_choiceRT,2021.1.2,Win32,59.07372401,,,,,,,,3,Ontime,j,0,2.0397,6,1,25,0,1,,,,,
,0.42,,,,,,,,,h.PNG,h,5dc3a77d84799a2a402e531e,2021-10-19_21h14.53.465,forced_choiceRT,2021.1.2,Win32,59.07372401,,,,,,,,3,Ontime,g,0,2.0681,6,2,26,2,1,,,,,
,0.5,,,,,,,,,f.PNG,f,5dc3a77d84799a2a402e531e,2021-10-19_21h14.53.465,forced_choiceRT,2021.1.2,Win32,59.07372401,,,,,,,,3,Ontime,f,1,2.0775,6,3,27,0,1,,,,,
,0.57,,,,,,,,,f.PNG,f,5dc3a77d84799a2a402e531e,2021-10-19_21h14.53.465,forced_choiceRT,2021.1.2,Win32,59.07372401,,,,,,,,3,Ontime,f,1,2.0746,7,0,28,0,1,,,,,
,0.67,,,,,,,,,g.PNG,g,5dc3a77d84799a2a402e531e,2021-10-19_21h14.53.465,forced_choiceRT,2021.1.2,Win32,59.07372401,,,,,,,,3,Ontime,g,1,1.9686,7,1,29,1,1,,,,,
,0,,,,,,,,,j.PNG,j,5dc3a77d84799a2a402e531e,2021-10-19_21h14.53.465,forced_choiceRT,2021.1.2,Win32,59.07372401,,,,,,,,3,Ontime,j,1,2.0843,7,2,30,3,1,,,,,
,1.41,,,,,,,,,j.PNG,j,5dc3a77d84799a2a402e531e,2021-10-19_21h14.53.465,forced_choiceRT,2021.1.2,Win32,59.07372401,,,,,,,,3,Slow,j,1,2.2681,7,3,31,3,1,,,,,
,1.94,,,,,,,,,h.PNG,h,5dc3a77d84799a2a402e531e,2021-10-19_21h14.53.465,forced_choiceRT,2021.1.2,Win32,59.07372401,,,,,,,,3,Slow,j,0,2.2089,8,0,32,2,1,,,,,
,0.72,,,,,,,,,h.PNG,h,5dc3a77d84799a2a402e531e,2021-10-19_21h14.53.465,forced_choiceRT,2021.1.2,Win32,59.07372401,,,,,,,,3,Ontime,h,1,2.0367,8,1,33,2,1,,,,,
,1.54,,,,,,,,,j.PNG,j,5dc3a77d84799a2a402e531e,2021-10-19_21h14.53.465,forced_choiceRT,2021.1.2,Win32,59.07372401,,,,,,,,3,Ontime,j,1,2.002,8,2,34,3,1,,,,,
,1.84,,,,,,,,,j.PNG,j,5dc3a77d84799a2a402e531e,2021-10-19_21h14.53.465,forced_choiceRT,2021.1.2,Win32,59.07372401,,,,,,,,3,Ontime,f,0,2.0516,8,3,35,3,1,,,,,
,1.04,,,,,,,,,g.PNG,g,5dc3a77d84799a2a402e531e,2021-10-19_21h14.53.465,forced_choiceRT,2021.1.2,Win32,59.07372401,,,,,,,,3,Ontime,g,1,2.0056,9,0,36,1,1,,,,,
,1.92,,,,,,,,,f.PNG,f,5dc3a77d84799a2a402e531e,2021-10-19_21h14.53.465,forced_choiceRT,2021.1.2,Win32,59.07372401,,,,,,,,3,Slow,j,0,2.1396,9,1,37,0,1,,,,,
,1.99,,,,,,,,,g.PNG,g,5dc3a77d84799a2a402e531e,2021-10-19_21h14.53.465,forced_choiceRT,2021.1.2,Win32,59.07372401,,,,,,,,3,Ontime,f,0,2.0859,9,2,38,1,1,,,,,
,0,,,,,,,,,j.PNG,j,5dc3a77d84799a2a402e531e,2021-10-19_21h14.53.465,forced_choiceRT,2021.1.2,Win32,59.07372401,,,,,,,,3,Ontime,j,1,2.0615,9,3,39,3,1,,,,,
,,,,,,,,,,,,5dc3a77d84799a2a402e531e,2021-10-19_21h14.53.465,forced_choiceRT,2021.1.2,Win32,59.07372401,,,,,,,,,,,,,,,,,,2,0,2,0,1
,0.65,,,,,,,,,f.PNG,f,5dc3a77d84799a2a402e531e,2021-10-19_21h14.53.465,forced_choiceRT,2021.1.2,Win32,59.07372401,,,,,,,,4,Ontime,f,1,2.0593,0,0,0,0,1,,,,,
,0.54,,,,,,,,,f.PNG,f,5dc3a77d84799a2a402e531e,2021-10-19_21h14.53.465,forced_choiceRT,2021.1.2,Win32,59.07372401,,,,,,,,4,Ontime,f,1,2.0524,0,1,1,0,1,,,,,
,0.06,,,,,,,,,h.PNG,h,5dc3a77d84799a2a402e531e,2021-10-19_21h14.53.465,forced_choiceRT,2021.1.2,Win32,59.07372401,,,,,,,,4,Ontime,h,1,2.0955,0,2,2,2,1,,,,,
,0.24,,,,,,,,,h.PNG,h,5dc3a77d84799a2a402e531e,2021-10-19_21h14.53.465,forced_choiceRT,2021.1.2,Win32,59.07372401,,,,,,,,4,Ontime,h,1,2.0419,0,3,3,2,1,,,,,
,0.51,,,,,,,,,h.PNG,h,5dc3a77d84799a2a402e531e,2021-10-19_21h14.53.465,forced_choiceRT,2021.1.2,Win32,59.07372401,,,,,,,,4,Ontime,h,1,2.0262,1,0,4,2,1,,,,,
,1.23,,,,,,,,,g.PNG,g,5dc3a77d84799a2a402e531e,2021-10-19_21h14.53.465,forced_choiceRT,2021.1.2,Win32,59.07372401,,,,,,,,4,Ontime,g,1,1.9856,1,1,5,1,1,,,,,
,0.45,,,,,,,,,j.PNG,j,5dc3a77d84799a2a402e531e,2021-10-19_21h14.53.465,forced_choiceRT,2021.1.2,Win32,59.07372401,,,,,,,,4,Ontime,j,1,2.0598,1,2,6,3,1,,,,,
,0.18,,,,,,,,,f.PNG,f,5dc3a77d84799a2a402e531e,2021-10-19_21h14.53.465,forced_choiceRT,2021.1.2,Win32,59.07372401,,,,,,,,4,Ontime,f,1,2.0024,1,3,7,0,1,,,,,
,1.33,,,,,,,,,h.PNG,h,5dc3a77d84799a2a402e531e,2021-10-19_21h14.53.465,forced_choiceRT,2021.1.2,Win32,59.07372401,,,,,,,,4,Ontime,g,0,2.0613,2,0,8,2,1,,,,,
,1.48,,,,,,,,,g.PNG,g,5dc3a77d84799a2a402e531e,2021-10-19_21h14.53.465,forced_choiceRT,2021.1.2,Win32,59.07372401,,,,,,,,4,Slow,j,0,2.1226,2,1,9,1,1,,,,,
,1.72,,,,,,,,,f.PNG,f,5dc3a77d84799a2a402e531e,2021-10-19_21h14.53.465,forced_choiceRT,2021.1.2,Win32,59.07372401,,,,,,,,4,Ontime,g,0,2.0528,2,2,10,0,1,,,,,
,1.63,,,,,,,,,j.PNG,j,5dc3a77d84799a2a402e531e,2021-10-19_21h14.53.465,forced_choiceRT,2021.1.2,Win32,59.07372401,,,,,,,,4,Ontime,f,0,1.9861,2,3,11,3,1,,,,,
,0.64,,,,,,,,,h.PNG,h,5dc3a77d84799a2a402e531e,2021-10-19_21h14.53.465,forced_choiceRT,2021.1.2,Win32,59.07372401,,,,,,,,4,Slow,h,1,2.1426,3,0,12,2,1,,,,,
,0.39,,,,,,,,,f.PNG,f,5dc3a77d84799a2a402e531e,2021-10-19_21h14.53.465,forced_choiceRT,2021.1.2,Win32,59.07372401,,,,,,,,4,Ontime,f,1,2.0069,3,1,13,0,1,,,,,
,1.48,,,,,,,,,f.PNG,f,5dc3a77d84799a2a402e531e,2021-10-19_21h14.53.465,forced_choiceRT,2021.1.2,Win32,59.07372401,,,,,,,,4,Slow,f,1,2.1414,3,2,14,0,1,,,,,
,0.54,,,,,,,,,g.PNG,g,5dc3a77d84799a2a402e531e,2021-10-19_21h14.53.465,forced_choiceRT,2021.1.2,Win32,59.07372401,,,,,,,,4,Fast,h,0,1.8262,3,3,15,1,1,,,,,
,1.35,,,,,,,,,f.PNG,f,5dc3a77d84799a2a402e531e,2021-10-19_21h14.53.465,forced_choiceRT,2021.1.2,Win32,59.07372401,,,,,,,,4,Ontime,f,1,1.9344,4,0,16,0,1,,,,,
,1.82,,,,,,,,,j.PNG,j,5dc3a77d84799a2a402e531e,2021-10-19_21h14.53.465,forced_choiceRT,2021.1.2,Win32,59.07372401,,,,,,,,4,Slow,f,0,2.1351,4,1,17,3,1,,,,,
,0.12,,,,,,,,,g.PNG,g,5dc3a77d84799a2a402e531e,2021-10-19_21h14.53.465,forced_choiceRT,2021.1.2,Win32,59.07372401,,,,,,,,4,Slow,g,1,2.1253,4,2,18,1,1,,,,,
,1.39,,,,,,,,,g.PNG,g,5dc3a77d84799a2a402e531e,2021-10-19_21h14.53.465,forced_choiceRT,2021.1.2,Win32,59.07372401,,,,,,,,4,Ontime,h,0,2.0689,4,3,19,1,1,,,,,
,1.55,,,,,,,,,g.PNG,g,5dc3a77d84799a2a402e531e,2021-10-19_21h14.53.465,forced_choiceRT,2021.1.2,Win32,59.07372401,,,,,,,,4,Ontime,g,1,2.0848,5,0,20,1,1,,,,,
,0.35,,,,,,,,,h.PNG,h,5dc3a77d84799a2a402e531e,2021-10-19_21h14.53.465,forced_choiceRT,2021.1.2,Win32,59.07372401,,,,,,,,4,Ontime,h,1,2.0349,5,1,21,2,1,,,,,
,1.16,,,,,,,,,j.PNG,j,5dc3a77d84799a2a402e531e,2021-10-19_21h14.53.465,forced_choiceRT,2021.1.2,Win32,59.07372401,,,,,,,,4,Ontime,j,1,1.9521,5,2,22,3,1,,,,,
,1.7,,,,,,,,,j.PNG,j,5dc3a77d84799a2a402e531e,2021-10-19_21h14.53.465,forced_choiceRT,2021.1.2,Win32,59.07372401,,,,,,,,4,Ontime,j,1,2.0021,5,3,23,3,1,,,,,
,1.78,,,,,,,,,h.PNG,h,5dc3a77d84799a2a402e531e,2021-10-19_21h14.53.465,forced_choiceRT,2021.1.2,Win32,59.07372401,,,,,,,,4,Slow,h,1,2.335,6,0,24,2,1,,,,,
,1.39,,,,,,,,,f.PNG,f,5dc3a77d84799a2a402e531e,2021-10-19_21h14.53.465,forced_choiceRT,2021.1.2,Win32,59.07372401,,,,,,,,4,Ontime,f,1,2.0394,6,1,25,0,1,,,,,
,1.53,,,,,,,,,h.PNG,h,5dc3a77d84799a2a402e531e,2021-10-19_21h14.53.465,forced_choiceRT,2021.1.2,Win32,59.07372401,,,,,,,,4,Ontime,j,0,2.0522,6,2,26,2,1,,,,,
,1.42,,,,,,,,,f.PNG,f,5dc3a77d84799a2a402e531e,2021-10-19_21h14.53.465,forced_choiceRT,2021.1.2,Win32,59.07372401,,,,,,,,4,Ontime,f,1,2.0731,6,3,27,0,1,,,,,
,1.28,,,,,,,,,h.PNG,h,5dc3a77d84799a2a402e531e,2021-10-19_21h14.53.465,forced_choiceRT,2021.1.2,Win32,59.07372401,,,,,,,,4,Ontime,h,1,1.9713,7,0,28,2,1,,,,,
,1.6,,,,,,,,,g.PNG,g,5dc3a77d84799a2a402e531e,2021-10-19_21h14.53.465,forced_choiceRT,2021.1.2,Win32,59.07372401,,,,,,,,4,Slow,h,0,2.1591,7,1,29,1,1,,,,,
,0.54,,,,,,,,,g.PNG,g,5dc3a77d84799a2a402e531e,2021-10-19_21h14.53.465,forced_choiceRT,2021.1.2,Win32,59.07372401,,,,,,,,4,Slow,g,1,2.1394,7,2,30,1,1,,,,,
,0.93,,,,,,,,,j.PNG,j,5dc3a77d84799a2a402e531e,2021-10-19_21h14.53.465,forced_choiceRT,2021.1.2,Win32,59.07372401,,,,,,,,4,Slow,j,1,2.1232,7,3,31,3,1,,,,,
,1.76,,,,,,,,,f.PNG,f,5dc3a77d84799a2a402e531e,2021-10-19_21h14.53.465,forced_choiceRT,2021.1.2,Win32,59.07372401,,,,,,,,4,Ontime,f,1,2.0698,8,0,32,0,1,,,,,
,1.86,,,,,,,,,j.PNG,j,5dc3a77d84799a2a402e531e,2021-10-19_21h14.53.465,forced_choiceRT,2021.1.2,Win32,59.07372401,,,,,,,,4,Slow,h,0,2.3347,8,1,33,3,1,,,,,
,1.55,,,,,,,,,j.PNG,j,5dc3a77d84799a2a402e531e,2021-10-19_21h14.53.465,forced_choiceRT,2021.1.2,Win32,59.07372401,,,,,,,,4,Ontime,j,1,2.0884,8,2,34,3,1,,,,,
,1.27,,,,,,,,,g.PNG,g,5dc3a77d84799a2a402e531e,2021-10-19_21h14.53.465,forced_choiceRT,2021.1.2,Win32,59.07372401,,,,,,,,4,Slow,h,0,2.1081,8,3,35,1,1,,,,,
,1.08,,,,,,,,,h.PNG,h,5dc3a77d84799a2a402e531e,2021-10-19_21h14.53.465,forced_choiceRT,2021.1.2,Win32,59.07372401,,,,,,,,4,Slow,h,1,2.1283,9,0,36,2,1,,,,,
,0.99,,,,,,,,,g.PNG,g,5dc3a77d84799a2a402e531e,2021-10-19_21h14.53.465,forced_choiceRT,2021.1.2,Win32,59.07372401,,,,,,,,4,Slow,g,1,2.1382,9,1,37,1,1,,,,,
,0.17,,,,,,,,,j.PNG,j,5dc3a77d84799a2a402e531e,2021-10-19_21h14.53.465,forced_choiceRT,2021.1.2,Win32,59.07372401,,,,,,,,4,Ontime,j,1,2.0393,9,2,38,3,1,,,,,
,0.85,,,,,,,,,j.PNG,j,5dc3a77d84799a2a402e531e,2021-10-19_21h14.53.465,forced_choiceRT,2021.1.2,Win32,59.07372401,,,,,,,,4,Ontime,j,1,2.0185,9,3,39,3,1,,,,,
,,,,,,,,,,,,5dc3a77d84799a2a402e531e,2021-10-19_21h14.53.465,forced_choiceRT,2021.1.2,Win32,59.07372401,,,,,,,,,,,,,,,,,,3,0,3,0,1
,0.43,,,,,,,,,g.PNG,g,5dc3a77d84799a2a402e531e,2021-10-19_21h14.53.465,forced_choiceRT,2021.1.2,Win32,59.07372401,,,,,,,,5,Ontime,h,0,2.0937,0,0,0,1,1,,,,,
,0.73,,,,,,,,,h.PNG,h,5dc3a77d84799a2a402e531e,2021-10-19_21h14.53.465,forced_choiceRT,2021.1.2,Win32,59.07372401,,,,,,,,5,Slow,g,0,2.102,0,1,1,2,1,,,,,
,1.64,,,,,,,,,h.PNG,h,5dc3a77d84799a2a402e531e,2021-10-19_21h14.53.465,forced_choiceRT,2021.1.2,Win32,59.07372401,,,,,,,,5,Slow,h,1,2.29,0,2,2,2,1,,,,,
,0.97,,,,,,,,,f.PNG,f,5dc3a77d84799a2a402e531e,2021-10-19_21h14.53.465,forced_choiceRT,2021.1.2,Win32,59.07372401,,,,,,,,5,Ontime,f,1,2.0256,0,3,3,0,1,,,,,
,1.46,,,,,,,,,j.PNG,j,5dc3a77d84799a2a402e531e,2021-10-19_21h14.53.465,forced_choiceRT,2021.1.2,Win32,59.07372401,,,,,,,,5,Ontime,j,1,2.0278,1,0,4,3,1,,,,,
,1.2,,,,,,,,,f.PNG,f,5dc3a77d84799a2a402e531e,2021-10-19_21h14.53.465,forced_choiceRT,2021.1.2,Win32,59.07372401,,,,,,,,5,Slow,f,1,2.1251,1,1,5,0,1,,,,,
,0.93,,,,,,,,,g.PNG,g,5dc3a77d84799a2a402e531e,2021-10-19_21h14.53.465,forced_choiceRT,2021.1.2,Win32,59.07372401,,,,,,,,5,Fast,g,1,1.8082,1,2,6,1,1,,,,,
,0.34,,,,,,,,,f.PNG,f,5dc3a77d84799a2a402e531e,2021-10-19_21h14.53.465,forced_choiceRT,2021.1.2,Win32,59.07372401,,,,,,,,5,Slow,f,1,2.1059,1,3,7,0,1,,,,,
,0.25,,,,,,,,,g.PNG,g,5dc3a77d84799a2a402e531e,2021-10-19_21h14.53.465,forced_choiceRT,2021.1.2,Win32,59.07372401,,,,,,,,5,Ontime,g,1,2.052,2,0,8,1,1,,,,,
,0.2,,,,,,,,,j.PNG,j,5dc3a77d84799a2a402e531e,2021-10-19_21h14.53.465,forced_choiceRT,2021.1.2,Win32,59.07372401,,,,,,,,5,Ontime,j,1,2.0219,2,1,9,3,1,,,,,
,0.63,,,,,,,,,g.PNG,g,5dc3a77d84799a2a402e531e,2021-10-19_21h14.53.465,forced_choiceRT,2021.1.2,Win32,59.07372401,,,,,,,,5,Ontime,h,0,2.0212,2,2,10,1,1,,,,,
,1.79,,,,,,,,,g.PNG,g,5dc3a77d84799a2a402e531e,2021-10-19_21h14.53.465,forced_choiceRT,2021.1.2,Win32,59.07372401,,,,,,,,5,Slow,f,0,2.1511,2,3,11,1,1,,,,,
,0.73,,,,,,,,,j.PNG,j,5dc3a77d84799a2a402e531e,2021-10-19_21h14.53.465,forced_choiceRT,2021.1.2,Win32,59.07372401,,,,,,,,5,Ontime,j,1,2.0085,3,0,12,3,1,,,,,
,0.82,,,,,,,,,h.PNG,h,5dc3a77d84799a2a402e531e,2021-10-19_21h14.53.465,forced_choiceRT,2021.1.2,Win32,59.07372401,,,,,,,,5,Fast,g,0,1.8762,3,1,13,2,1,,,,,
,1.44,,,,,,,,,j.PNG,j,5dc3a77d84799a2a402e531e,2021-10-19_21h14.53.465,forced_choiceRT,2021.1.2,Win32,59.07372401,,,,,,,,5,Ontime,j,1,2.0036,3,2,14,3,1,,,,,
,0.75,,,,,,,,,j.PNG,j,5dc3a77d84799a2a402e531e,2021-10-19_21h14.53.465,forced_choiceRT,2021.1.2,Win32,59.07372401,,,,,,,,5,Ontime,j,1,2.0905,3,3,15,3,1,,,,,
,0.28,,,,,,,,,f.PNG,f,5dc3a77d84799a2a402e531e,2021-10-19_21h14.53.465,forced_choiceRT,2021.1.2,Win32,59.07372401,,,,,,,,5,Ontime,f,1,1.9588,4,0,16,0,1,,,,,
,1.7,,,,,,,,,g.PNG,g,5dc3a77d84799a2a402e531e,2021-10-19_21h14.53.465,forced_choiceRT,2021.1.2,Win32,59.07372401,,,,,,,,5,Slow,g,1,2.2615,4,1,17,1,1,,,,,
,1.96,,,,,,,,,j.PNG,j,5dc3a77d84799a2a402e531e,2021-10-19_21h14.53.465,forced_choiceRT,2021.1.2,Win32,59.07372401,,,,,,,,5,Slow,h,0,2.1729,4,2,18,3,1,,,,,
,1.45,,,,,,,,,g.PNG,g,5dc3a77d84799a2a402e531e,2021-10-19_21h14.53.465,forced_choiceRT,2021.1.2,Win32,59.07372401,,,,,,,,5,Fast,f,0,1.8027,4,3,19,1,1,,,,,
,0.03,,,,,,,,,j.PNG,j,5dc3a77d84799a2a402e531e,2021-10-19_21h14.53.465,forced_choiceRT,2021.1.2,Win32,59.07372401,,,,,,,,5,Slow,j,1,2.1014,5,0,20,3,1,,,,,
,0.03,,,,,,,,,j.PNG,j,5dc3a77d84799a2a402e531e,2021-10-19_21h14.53.465,forced_choiceRT,2021.1.2,Win32,59.07372401,,,,,,,,5,Ontime,j,1,2.0956,5,1,21,3,1,,,,,
,0.5,,,,,,,,,j.PNG,j,5dc3a77d84799a2a402e531e,2021-10-19_21h14.53.465,forced_choiceRT,2021.1.2,Win32,59.07372401,,,,,,,,5,Ontime,j,1,2.0419,5,2,22,3,1,,,,,
,0.35,,,,,,,,,g.PNG,g,5dc3a77d84799a2a402e531e,2021-10-19_21h14.53.465,forced_choiceRT,2021.1.2,Win32,59.07372401,,,,,,,,5,Fast,g,1,1.8183,5,3,23,1,1,,,,,
,1.97,,,,,,,,,g.PNG,g,5dc3a77d84799a2a402e531e,2021-10-19_21h14.53.465,forced_choiceRT,2021.1.2,Win32,59.07372401,,,,,,,,5,Ontime,f,0,2.0758,6,0,24,1,1,,,,,
,0.87,,,,,,,,,h.PNG,h,5dc3a77d84799a2a402e531e,2021-10-19_21h14.53.465,forced_choiceRT,2021.1.2,Win32,59.07372401,,,,,,,,5,Slow,h,1,2.1066,6,1,25,2,1,,,,,
,0.78,,,,,,,,,h.PNG,h,5dc3a77d84799a2a402e531e,2021-10-19_21h14.53.465,forced_choiceRT,2021.1.2,Win32,59.07372401,,,,,,,,5,Slow,h,1,2.1346,6,2,26,2,1,,,,,
,0.15,,,,,,,,,h.PNG,h,5dc3a77d84799a2a402e531e,2021-10-19_21h14.53.465,forced_choiceRT,2021.1.2,Win32,59.07372401,,,,,,,,5,Fast,h,1,1.0576,6,3,27,2,1,,,,,
,0.75,,,,,,,,,j.PNG,j,5dc3a77d84799a2a402e531e,2021-10-19_21h14.53.465,forced_choiceRT,2021.1.2,Win32,59.07372401,,,,,,,,5,Ontime,j,1,2.053,7,0,28,3,1,,,,,
,1.83,,,,,,,,,h.PNG,h,5dc3a77d84799a2a402e531e,2021-10-19_21h14.53.465,forced_choiceRT,2021.1.2,Win32,59.07372401,,,,,,,,5,Ontime,j,0,2.0764,7,1,29,2,1,,,,,
,0.27,,,,,,,,,h.PNG,h,5dc3a77d84799a2a402e531e,2021-10-19_21h14.53.465,forced_choiceRT,2021.1.2,Win32,59.07372401,,,,,,,,5,Ontime,h,1,2.0091,7,2,30,2,1,,,,,
,1.05,,,,,,,,,f.PNG,f,5dc3a77d84799a2a402e531e,2021-10-19_21h14.53.465,forced_choiceRT,2021.1.2,Win32,59.07372401,,,,,,,,5,Slow,f,1,2.1185,7,3,31,0,1,,,,,
,0.86,,,,,,,,,f.PNG,f,5dc3a77d84799a2a402e531e,2021-10-19_21h14.53.465,forced_choiceRT,2021.1.2,Win32,59.07372401,,,,,,,,5,Ontime,f,1,2.0242,8,0,32,0,1,,,,,
,0.23,,,,,,,,,f.PNG,f,5dc3a77d84799a2a402e531e,2021-10-19_21h14.53.465,forced_choiceRT,2021.1.2,Win32,59.07372401,,,,,,,,5,Ontime,f,1,2.0193,8,1,33,0,1,,,,,
,1.98,,,,,,,,,f.PNG,f,5dc3a77d84799a2a402e531e,2021-10-19_21h14.53.465,forced_choiceRT,2021.1.2,Win32,59.07372401,,,,,,,,5,Slow,f,1,2.2346,8,2,34,0,1,,,,,
,0.21,,,,,,,,,f.PNG,f,5dc3a77d84799a2a402e531e,2021-10-19_21h14.53.465,forced_choiceRT,2021.1.2,Win32,59.07372401,,,,,,,,5,Ontime,f,1,1.9699,8,3,35,0,1,,,,,
,0.04,,,,,,,,,f.PNG,f,5dc3a77d84799a2a402e531e,2021-10-19_21h14.53.465,forced_choiceRT,2021.1.2,Win32,59.07372401,,,,,,,,5,Ontime,f,1,2.0352,9,0,36,0,1,,,,,
,0.43,,,,,,,,,g.PNG,g,5dc3a77d84799a2a402e531e,2021-10-19_21h14.53.465,forced_choiceRT,2021.1.2,Win32,59.07372401,,,,,,,,5,Ontime,h,0,2.0069,9,1,37,1,1,,,,,
,0.22,,,,,,,,,h.PNG,h,5dc3a77d84799a2a402e531e,2021-10-19_21h14.53.465,forced_choiceRT,2021.1.2,Win32,59.07372401,,,,,,,,5,Ontime,h,1,2.0355,9,2,38,2,1,,,,,
,1.12,,,,,,,,,h.PNG,h,5dc3a77d84799a2a402e531e,2021-10-19_21h14.53.465,forced_choiceRT,2021.1.2,Win32,59.07372401,,,,,,,,5,Fast,h,1,1.8682,9,3,39,2,1,,,,,
,,,,,,,,,,,,5dc3a77d84799a2a402e531e,2021-10-19_21h14.53.465,forced_choiceRT,2021.1.2,Win32,59.07372401,,,,,,,,,,,,,,,,,,4,0,4,0,1
,0.68,,,,,,,,,j.PNG,j,5dc3a77d84799a2a402e531e,2021-10-19_21h14.53.465,forced_choiceRT,2021.1.2,Win32,59.07372401,,,,,,,,6,Ontime,j,1,2.0433,0,0,0,3,1,,,,,
,1.11,,,,,,,,,h.PNG,h,5dc3a77d84799a2a402e531e,2021-10-19_21h14.53.465,forced_choiceRT,2021.1.2,Win32,59.07372401,,,,,,,,6,Ontime,h,1,2.0768,0,1,1,2,1,,,,,
,1.02,,,,,,,,,j.PNG,j,5dc3a77d84799a2a402e531e,2021-10-19_21h14.53.465,forced_choiceRT,2021.1.2,Win32,59.07372401,,,,,,,,6,Ontime,j,1,1.9904,0,2,2,3,1,,,,,
,1.57,,,,,,,,,f.PNG,f,5dc3a77d84799a2a402e531e,2021-10-19_21h14.53.465,forced_choiceRT,2021.1.2,Win32,59.07372401,,,,,,,,6,Ontime,g,0,2.0521,0,3,3,0,1,,,,,
,1.77,,,,,,,,,j.PNG,j,5dc3a77d84799a2a402e531e,2021-10-19_21h14.53.465,forced_choiceRT,2021.1.2,Win32,59.07372401,,,,,,,,6,Ontime,j,1,2.0112,1,0,4,3,1,,,,,
,1.67,,,,,,,,,g.PNG,g,5dc3a77d84799a2a402e531e,2021-10-19_21h14.53.465,forced_choiceRT,2021.1.2,Win32,59.07372401,,,,,,,,6,Ontime,j,0,2.0586,1,1,5,1,1,,,,,
,1,,,,,,,,,g.PNG,g,5dc3a77d84799a2a402e531e,2021-10-19_21h14.53.465,forced_choiceRT,2021.1.2,Win32,59.07372401,,,,,,,,6,Ontime,g,1,1.919,1,2,6,1,1,,,,,
,0.44,,,,,,,,,g.PNG,g,5dc3a77d84799a2a402e531e,2021-10-19_21h14.53.465,forced_choiceRT,2021.1.2,Win32,59.07372401,,,,,,,,6,Ontime,g,1,2.0577,1,3,7,1,1,,,,,
,1.47,,,,,,,,,g.PNG,g,5dc3a77d84799a2a402e531e,2021-10-19_21h14.53.465,forced_choiceRT,2021.1.2,Win32,59.07372401,,,,,,,,6,Ontime,h,0,2.0695,2,0,8,1,1,,,,,
,0.14,,,,,,,,,j.PNG,j,5dc3a77d84799a2a402e531e,2021-10-19_21h14.53.465,forced_choiceRT,2021.1.2,Win32,59.07372401,,,,,,,,6,Ontime,j,1,2.0113,2,1,9,3,1,,,,,
,1.82,,,,,,,,,g.PNG,g,5dc3a77d84799a2a402e531e,2021-10-19_21h14.53.465,forced_choiceRT,2021.1.2,Win32,59.07372401,,,,,,,,6,Ontime,h,0,2.0608,2,2,10,1,1,,,,,
,1.83,,,,,,,,,f.PNG,f,5dc3a77d84799a2a402e531e,2021-10-19_21h14.53.465,forced_choiceRT,2021.1.2,Win32,59.07372401,,,,,,,,6,Slow,g,0,2.1014,2,3,11,0,1,,,,,
,1.02,,,,,,,,,h.PNG,h,5dc3a77d84799a2a402e531e,2021-10-19_21h14.53.465,forced_choiceRT,2021.1.2,Win32,59.07372401,,,,,,,,6,Ontime,h,1,2.0526,3,0,12,2,1,,,,,
,1.28,,,,,,,,,g.PNG,g,5dc3a77d84799a2a402e531e,2021-10-19_21h14.53.465,forced_choiceRT,2021.1.2,Win32,59.07372401,,,,,,,,6,Ontime,h,0,1.9391,3,1,13,1,1,,,,,
,1.23,,,,,,,,,j.PNG,j,5dc3a77d84799a2a402e531e,2021-10-19_21h14.53.465,forced_choiceRT,2021.1.2,Win32,59.07372401,,,,,,,,6,Slow,j,1,2.1371,3,2,14,3,1,,,,,
,1.26,,,,,,,,,f.PNG,f,5dc3a77d84799a2a402e531e,2021-10-19_21h14.53.465,forced_choiceRT,2021.1.2,Win32,59.07372401,,,,,,,,6,Ontime,f,1,1.9376,3,3,15,0,1,,,,,
,0.08,,,,,,,,,f.PNG,f,5dc3a77d84799a2a402e531e,2021-10-19_21h14.53.465,forced_choiceRT,2021.1.2,Win32,59.07372401,,,,,,,,6,Ontime,f,1,1.9608,4,0,16,0,1,,,,,
,0.8,,,,,,,,,j.PNG,j,5dc3a77d84799a2a402e531e,2021-10-19_21h14.53.465,forced_choiceRT,2021.1.2,Win32,59.07372401,,,,,,,,6,Ontime,j,1,2.054,4,1,17,3,1,,,,,
,1.58,,,,,,,,,g.PNG,g,5dc3a77d84799a2a402e531e,2021-10-19_21h14.53.465,forced_choiceRT,2021.1.2,Win32,59.07372401,,,,,,,,6,Ontime,f,0,1.9765,4,2,18,1,1,,,,,
,0.56,,,,,,,,,h.PNG,h,5dc3a77d84799a2a402e531e,2021-10-19_21h14.53.465,forced_choiceRT,2021.1.2,Win32,59.07372401,,,,,,,,6,Fast,g,0,1.8592,4,3,19,2,1,,,,,
,1.47,,,,,,,,,f.PNG,f,5dc3a77d84799a2a402e531e,2021-10-19_21h14.53.465,forced_choiceRT,2021.1.2,Win32,59.07372401,,,,,,,,6,Ontime,g,0,2.0016,5,0,20,0,1,,,,,
,1.32,,,,,,,,,h.PNG,h,5dc3a77d84799a2a402e531e,2021-10-19_21h14.53.465,forced_choiceRT,2021.1.2,Win32,59.07372401,,,,,,,,6,Ontime,g,0,2.041,5,1,21,2,1,,,,,
,1.11,,,,,,,,,h.PNG,h,5dc3a77d84799a2a402e531e,2021-10-19_21h14.53.465,forced_choiceRT,2021.1.2,Win32,59.07372401,,,,,,,,6,Fast,g,0,1.8897,5,2,22,2,1,,,,,
,1.38,,,,,,,,,h.PNG,h,5dc3a77d84799a2a402e531e,2021-10-19_21h14.53.465,forced_choiceRT,2021.1.2,Win32,59.07372401,,,,,,,,6,Ontime,h,1,2.0355,5,3,23,2,1,,,,,
,1.48,,,,,,,,,g.PNG,g,5dc3a77d84799a2a402e531e,2021-10-19_21h14.53.465,forced_choiceRT,2021.1.2,Win32,59.07372401,,,,,,,,6,Ontime,j,0,2.093,6,0,24,1,1,,,,,
,1.81,,,,,,,,,f.PNG,f,5dc3a77d84799a2a402e531e,2021-10-19_21h14.53.465,forced_choiceRT,2021.1.2,Win32,59.07372401,,,,,,,,6,Slow,j,0,2.1516,6,1,25,0,1,,,,,
,0.07,,,,,,,,,j.PNG,j,5dc3a77d84799a2a402e531e,2021-10-19_21h14.53.465,forced_choiceRT,2021.1.2,Win32,59.07372401,,,,,,,,6,Ontime,j,1,2.0279,6,2,26,3,1,,,,,
,0.37,,,,,,,,,h.PNG,h,5dc3a77d84799a2a402e531e,2021-10-19_21h14.53.465,forced_choiceRT,2021.1.2,Win32,59.07372401,,,,,,,,6,Ontime,h,1,2.0183,6,3,27,2,1,,,,,
,0.43,,,,,,,,,h.PNG,h,5dc3a77d84799a2a402e531e,2021-10-19_21h14.53.465,forced_choiceRT,2021.1.2,Win32,59.07372401,,,,,,,,6,Ontime,h,1,2.0085,7,0,28,2,1,,,,,
,0.5,,,,,,,,,j.PNG,j,5dc3a77d84799a2a402e531e,2021-10-19_21h14.53.465,forced_choiceRT,2021.1.2,Win32,59.07372401,,,,,,,,6,Ontime,j,1,2.0022,7,1,29,3,1,,,,,
,0.91,,,,,,,,,h.PNG,h,5dc3a77d84799a2a402e531e,2021-10-19_21h14.53.465,forced_choiceRT,2021.1.2,Win32,59.07372401,,,,,,,,6,Ontime,h,1,2.0523,7,2,30,2,1,,,,,
,1.89,,,,,,,,,f.PNG,f,5dc3a77d84799a2a402e531e,2021-10-19_21h14.53.465,forced_choiceRT,2021.1.2,Win32,59.07372401,,,,,,,,6,Ontime,h,0,2.0592,7,3,31,0,1,,,,,
,0.55,,,,,,,,,j.PNG,j,5dc3a77d84799a2a402e531e,2021-10-19_21h14.53.465,forced_choiceRT,2021.1.2,Win32,59.07372401,,,,,,,,6,Ontime,j,1,2.0374,8,0,32,3,1,,,,,
,1.07,,,,,,,,,f.PNG,f,5dc3a77d84799a2a402e531e,2021-10-19_21h14.53.465,forced_choiceRT,2021.1.2,Win32,59.07372401,,,,,,,,6,Ontime,f,1,2.0787,8,1,33,0,1,,,,,
,0.84,,,,,,,,,h.PNG,h,5dc3a77d84799a2a402e531e,2021-10-19_21h14.53.465,forced_choiceRT,2021.1.2,Win32,59.07372401,,,,,,,,6,Ontime,h,1,1.9724,8,2,34,2,1,,,,,
,0.09,,,,,,,,,g.PNG,g,5dc3a77d84799a2a402e531e,2021-10-19_21h14.53.465,forced_choiceRT,2021.1.2,Win32,59.07372401,,,,,,,,6,Fast,g,1,1.8351,8,3,35,1,1,,,,,
,1.25,,,,,,,,,f.PNG,f,5dc3a77d84799a2a402e531e,2021-10-19_21h14.53.465,forced_choiceRT,2021.1.2,Win32,59.07372401,,,,,,,,6,Slow,f,1,2.1524,9,0,36,0,1,,,,,
,1.98,,,,,,,,,g.PNG,g,5dc3a77d84799a2a402e531e,2021-10-19_21h14.53.465,forced_choiceRT,2021.1.2,Win32,59.07372401,,,,,,,,6,Slow,g,1,2.1229,9,1,37,1,1,,,,,
,0.03,,,,,,,,,j.PNG,j,5dc3a77d84799a2a402e531e,2021-10-19_21h14.53.465,forced_choiceRT,2021.1.2,Win32,59.07372401,,,,,,,,6,Fast,j,1,1.7349,9,2,38,3,1,,,,,
,1.43,,,,,,,,,f.PNG,f,5dc3a77d84799a2a402e531e,2021-10-19_21h14.53.465,forced_choiceRT,2021.1.2,Win32,59.07372401,,,,,,,,6,Ontime,f,1,1.9451,9,3,39,0,1,,,,,
,,,,,,,,,,,,5dc3a77d84799a2a402e531e,2021-10-19_21h14.53.465,forced_choiceRT,2021.1.2,Win32,59.07372401,,,,,,,,,,,,,,,,,,5,0,5,0,1
,1.22,,,,,,,,,j.PNG,j,5dc3a77d84799a2a402e531e,2021-10-19_21h14.53.465,forced_choiceRT,2021.1.2,Win32,59.07372401,,,,,,,,7,Slow,j,1,2.153,0,0,0,3,1,,,,,
,0.24,,,,,,,,,f.PNG,f,5dc3a77d84799a2a402e531e,2021-10-19_21h14.53.465,forced_choiceRT,2021.1.2,Win32,59.07372401,,,,,,,,7,Ontime,f,1,2.0188,0,1,1,0,1,,,,,
,1.47,,,,,,,,,h.PNG,h,5dc3a77d84799a2a402e531e,2021-10-19_21h14.53.465,forced_choiceRT,2021.1.2,Win32,59.07372401,,,,,,,,7,Ontime,h,1,2.0585,0,2,2,2,1,,,,,
,0.72,,,,,,,,,j.PNG,j,5dc3a77d84799a2a402e531e,2021-10-19_21h14.53.465,forced_choiceRT,2021.1.2,Win32,59.07372401,,,,,,,,7,Ontime,j,1,1.9865,0,3,3,3,1,,,,,
,1.98,,,,,,,,,j.PNG,j,5dc3a77d84799a2a402e531e,2021-10-19_21h14.53.465,forced_choiceRT,2021.1.2,Win32,59.07372401,,,,,,,,7,Slow,j,1,2.1582,1,0,4,3,1,,,,,
,0.61,,,,,,,,,j.PNG,j,5dc3a77d84799a2a402e531e,2021-10-19_21h14.53.465,forced_choiceRT,2021.1.2,Win32,59.07372401,,,,,,,,7,Ontime,j,1,2.0184,1,1,5,3,1,,,,,
,1.93,,,,,,,,,f.PNG,f,5dc3a77d84799a2a402e531e,2021-10-19_21h14.53.465,forced_choiceRT,2021.1.2,Win32,59.07372401,,,,,,,,7,Slow,f,1,2.1093,1,2,6,0,1,,,,,
,1.13,,,,,,,,,f.PNG,f,5dc3a77d84799a2a402e531e,2021-10-19_21h14.53.465,forced_choiceRT,2021.1.2,Win32,59.07372401,,,,,,,,7,Ontime,f,1,2.0357,1,3,7,0,1,,,,,
,1.08,,,,,,,,,j.PNG,j,5dc3a77d84799a2a402e531e,2021-10-19_21h14.53.465,forced_choiceRT,2021.1.2,Win32,59.07372401,,,,,,,,7,Ontime,j,1,2.0361,2,0,8,3,1,,,,,
,0.23,,,,,,,,,h.PNG,h,5dc3a77d84799a2a402e531e,2021-10-19_21h14.53.465,forced_choiceRT,2021.1.2,Win32,59.07372401,,,,,,,,7,Fast,h,1,1.7728,2,1,9,2,1,,,,,
,0.14,,,,,,,,,g.PNG,g,5dc3a77d84799a2a402e531e,2021-10-19_21h14.53.465,forced_choiceRT,2021.1.2,Win32,59.07372401,,,,,,,,7,Ontime,g,1,2.0518,2,2,10,1,1,,,,,
,1.41,,,,,,,,,g.PNG,g,5dc3a77d84799a2a402e531e,2021-10-19_21h14.53.465,forced_choiceRT,2021.1.2,Win32,59.07372401,,,,,,,,7,Ontime,g,1,1.9606,2,3,11,1,1,,,,,
,1.24,,,,,,,,,h.PNG,h,5dc3a77d84799a2a402e531e,2021-10-19_21h14.53.465,forced_choiceRT,2021.1.2,Win32,59.07372401,,,,,,,,7,Slow,h,1,2.2087,3,0,12,2,1,,,,,
,1.43,,,,,,,,,g.PNG,g,5dc3a77d84799a2a402e531e,2021-10-19_21h14.53.465,forced_choiceRT,2021.1.2,Win32,59.07372401,,,,,,,,7,Ontime,h,0,2.0626,3,1,13,1,1,,,,,
,0.21,,,,,,,,,h.PNG,h,5dc3a77d84799a2a402e531e,2021-10-19_21h14.53.465,forced_choiceRT,2021.1.2,Win32,59.07372401,,,,,,,,7,Ontime,h,1,1.9919,3,2,14,2,1,,,,,
,1.1,,,,,,,,,h.PNG,h,5dc3a77d84799a2a402e531e,2021-10-19_21h14.53.465,forced_choiceRT,2021.1.2,Win32,59.07372401,,,,,,,,7,Slow,h,1,2.1066,3,3,15,2,1,,,,,
,1.81,,,,,,,,,g.PNG,g,5dc3a77d84799a2a402e531e,2021-10-19_21h14.53.465,forced_choiceRT,2021.1.2,Win32,59.07372401,,,,,,,,7,Ontime,g,1,2.0708,4,0,16,1,1,,,,,
,1.21,,,,,,,,,f.PNG,f,5dc3a77d84799a2a402e531e,2021-10-19_21h14.53.465,forced_choiceRT,2021.1.2,Win32,59.07372401,,,,,,,,7,Ontime,f,1,2.0054,4,1,17,0,1,,,,,
,1.58,,,,,,,,,f.PNG,f,5dc3a77d84799a2a402e531e,2021-10-19_21h14.53.465,forced_choiceRT,2021.1.2,Win32,59.07372401,,,,,,,,7,Slow,f,1,2.1024,4,2,18,0,1,,,,,
,0.22,,,,,,,,,j.PNG,j,5dc3a77d84799a2a402e531e,2021-10-19_21h14.53.465,forced_choiceRT,2021.1.2,Win32,59.07372401,,,,,,,,7,Ontime,j,1,2.0018,4,3,19,3,1,,,,,
,1.81,,,,,,,,,h.PNG,h,5dc3a77d84799a2a402e531e,2021-10-19_21h14.53.465,forced_choiceRT,2021.1.2,Win32,59.07372401,,,,,,,,7,Ontime,f,0,2.0607,5,0,20,2,1,,,,,
,1.67,,,,,,,,,j.PNG,j,5dc3a77d84799a2a402e531e,2021-10-19_21h14.53.465,forced_choiceRT,2021.1.2,Win32,59.07372401,,,,,,,,7,Slow,j,1,2.293,5,1,21,3,1,,,,,
,1.33,,,,,,,,,f.PNG,f,5dc3a77d84799a2a402e531e,2021-10-19_21h14.53.465,forced_choiceRT,2021.1.2,Win32,59.07372401,,,,,,,,7,Ontime,f,1,1.9187,5,2,22,0,1,,,,,
,0.89,,,,,,,,,j.PNG,j,5dc3a77d84799a2a402e531e,2021-10-19_21h14.53.465,forced_choiceRT,2021.1.2,Win32,59.07372401,,,,,,,,7,Ontime,j,1,2.0184,5,3,23,3,1,,,,,
,1.67,,,,,,,,,j.PNG,j,5dc3a77d84799a2a402e531e,2021-10-19_21h14.53.465,forced_choiceRT,2021.1.2,Win32,59.07372401,,,,,,,,7,Ontime,f,0,2.0583,6,0,24,3,1,,,,,
,0.91,,,,,,,,,f.PNG,f,5dc3a77d84799a2a402e531e,2021-10-19_21h14.53.465,forced_choiceRT,2021.1.2,Win32,59.07372401,,,,,,,,7,Ontime,f,1,2.0424,6,1,25,0,1,,,,,
,0.73,,,,,,,,,h.PNG,h,5dc3a77d84799a2a402e531e,2021-10-19_21h14.53.465,forced_choiceRT,2021.1.2,Win32,59.07372401,,,,,,,,7,Fast,g,0,1.8895,6,2,26,2,1,,,,,
,0.17,,,,,,,,,f.PNG,f,5dc3a77d84799a2a402e531e,2021-10-19_21h14.53.465,forced_choiceRT,2021.1.2,Win32,59.07372401,,,,,,,,7,Ontime,f,1,2.0356,6,3,27,0,1,,,,,
,0.88,,,,,,,,,f.PNG,f,5dc3a77d84799a2a402e531e,2021-10-19_21h14.53.465,forced_choiceRT,2021.1.2,Win32,59.07372401,,,,,,,,7,Ontime,f,1,2.0034,7,0,28,0,1,,,,,
,1.72,,,,,,,,,f.PNG,f,5dc3a77d84799a2a402e531e,2021-10-19_21h14.53.465,forced_choiceRT,2021.1.2,Win32,59.07372401,,,,,,,,7,Slow,g,0,2.2555,7,1,29,0,1,,,,,
,0.81,,,,,,,,,g.PNG,g,5dc3a77d84799a2a402e531e,2021-10-19_21h14.53.465,forced_choiceRT,2021.1.2,Win32,59.07372401,,,,,,,,7,Ontime,g,1,1.971,7,2,30,1,1,,,,,
,0.46,,,,,,,,,h.PNG,h,5dc3a77d84799a2a402e531e,2021-10-19_21h14.53.465,forced_choiceRT,2021.1.2,Win32,59.07372401,,,,,,,,7,Ontime,h,1,2.0023,7,3,31,2,1,,,,,
,0.48,,,,,,,,,h.PNG,h,5dc3a77d84799a2a402e531e,2021-10-19_21h14.53.465,forced_choiceRT,2021.1.2,Win32,59.07372401,,,,,,,,7,Ontime,h,1,1.975,8,0,32,2,1,,,,,
,1.47,,,,,,,,,g.PNG,g,5dc3a77d84799a2a402e531e,2021-10-19_21h14.53.465,forced_choiceRT,2021.1.2,Win32,59.07372401,,,,,,,,7,Ontime,g,1,1.9099,8,1,33,1,1,,,,,
,0.97,,,,,,,,,g.PNG,g,5dc3a77d84799a2a402e531e,2021-10-19_21h14.53.465,forced_choiceRT,2021.1.2,Win32,59.07372401,,,,,,,,7,Ontime,g,1,1.9233,8,2,34,1,1,,,,,
,1.73,,,,,,,,,h.PNG,h,5dc3a77d84799a2a402e531e,2021-10-19_21h14.53.465,forced_choiceRT,2021.1.2,Win32,59.07372401,,,,,,,,7,Slow,h,1,2.268,8,3,35,2,1,,,,,
,0.83,,,,,,,,,j.PNG,j,5dc3a77d84799a2a402e531e,2021-10-19_21h14.53.465,forced_choiceRT,2021.1.2,Win32,59.07372401,,,,,,,,7,Ontime,j,1,2.0286,9,0,36,3,1,,,,,
,0.14,,,,,,,,,g.PNG,g,5dc3a77d84799a2a402e531e,2021-10-19_21h14.53.465,forced_choiceRT,2021.1.2,Win32,59.07372401,,,,,,,,7,Ontime,g,1,2.0546,9,1,37,1,1,,,,,
,0.33,,,,,,,,,g.PNG,g,5dc3a77d84799a2a402e531e,2021-10-19_21h14.53.465,forced_choiceRT,2021.1.2,Win32,59.07372401,,,,,,,,7,Ontime,g,1,2.0359,9,2,38,1,1,,,,,
,1.24,,,,,,,,,g.PNG,g,5dc3a77d84799a2a402e531e,2021-10-19_21h14.53.465,forced_choiceRT,2021.1.2,Win32,59.07372401,,,,,,,,7,Ontime,g,1,2.0356,9,3,39,1,1,,,,,
,,,,,,,,,,,,5dc3a77d84799a2a402e531e,2021-10-19_21h14.53.465,forced_choiceRT,2021.1.2,Win32,59.07372401,,,,,,,,,,,,,,,,,,6,0,6,0,1
,1.78,,,,,,,,,f.PNG,f,5dc3a77d84799a2a402e531e,2021-10-19_21h14.53.465,forced_choiceRT,2021.1.2,Win32,59.07372401,,,,,,,,8,Slow,f,1,2.1181,0,0,0,0,1,,,,,
,1.34,,,,,,,,,j.PNG,j,5dc3a77d84799a2a402e531e,2021-10-19_21h14.53.465,forced_choiceRT,2021.1.2,Win32,59.07372401,,,,,,,,8,Ontime,j,1,2.0874,0,1,1,3,1,,,,,
,0.08,,,,,,,,,h.PNG,h,5dc3a77d84799a2a402e531e,2021-10-19_21h14.53.465,forced_choiceRT,2021.1.2,Win32,59.07372401,,,,,,,,8,Ontime,h,1,2.0694,0,2,2,2,1,,,,,
,0.09,,,,,,,,,g.PNG,g,5dc3a77d84799a2a402e531e,2021-10-19_21h14.53.465,forced_choiceRT,2021.1.2,Win32,59.07372401,,,,,,,,8,Ontime,g,1,2.0724,0,3,3,1,1,,,,,
,0.53,,,,,,,,,f.PNG,f,5dc3a77d84799a2a402e531e,2021-10-19_21h14.53.465,forced_choiceRT,2021.1.2,Win32,59.07372401,,,,,,,,8,Ontime,f,1,2.043,1,0,4,0,1,,,,,
,0.08,,,,,,,,,j.PNG,j,5dc3a77d84799a2a402e531e,2021-10-19_21h14.53.465,forced_choiceRT,2021.1.2,Win32,59.07372401,,,,,,,,8,Ontime,j,1,2.0686,1,1,5,3,1,,,,,
,1.26,,,,,,,,,h.PNG,h,5dc3a77d84799a2a402e531e,2021-10-19_21h14.53.465,forced_choiceRT,2021.1.2,Win32,59.07372401,,,,,,,,8,Ontime,h,1,2.0581,1,2,6,2,1,,,,,
,0.67,,,,,,,,,h.PNG,h,5dc3a77d84799a2a402e531e,2021-10-19_21h14.53.465,forced_choiceRT,2021.1.2,Win32,59.07372401,,,,,,,,8,Ontime,h,1,2.0737,1,3,7,2,1,,,,,
,1.11,,,,,,,,,h.PNG,h,5dc3a77d84799a2a402e531e,2021-10-19_21h14.53.465,forced_choiceRT,2021.1.2,Win32,59.07372401,,,,,,,,8,Ontime,h,1,1.9109,2,0,8,2,1,,,,,
,0.6,,,,,,,,,h.PNG,h,5dc3a77d84799a2a402e531e,2021-10-19_21h14.53.465,forced_choiceRT,2021.1.2,Win32,59.07372401,,,,,,,,8,Ontime,h,1,2.0526,2,1,9,2,1,,,,,
,0.83,,,,,,,,,f.PNG,f,5dc3a77d84799a2a402e531e,2021-10-19_21h14.53.465,forced_choiceRT,2021.1.2,Win32,59.07372401,,,,,,,,8,Ontime,f,1,2.0387,2,2,10,0,1,,,,,
,1.23,,,,,,,,,f.PNG,f,5dc3a77d84799a2a402e531e,2021-10-19_21h14.53.465,forced_choiceRT,2021.1.2,Win32,59.07372401,,,,,,,,8,Fast,f,1,1.8694,2,3,11,0,1,,,,,
,0.17,,,,,,,,,j.PNG,j,5dc3a77d84799a2a402e531e,2021-10-19_21h14.53.465,forced_choiceRT,2021.1.2,Win32,59.07372401,,,,,,,,8,Ontime,j,1,2.0566,3,0,12,3,1,,,,,
,1.26,,,,,,,,,g.PNG,g,5dc3a77d84799a2a402e531e,2021-10-19_21h14.53.465,forced_choiceRT,2021.1.2,Win32,59.07372401,,,,,,,,8,Ontime,h,0,2.0707,3,1,13,1,1,,,,,
,0.99,,,,,,,,,j.PNG,j,5dc3a77d84799a2a402e531e,2021-10-19_21h14.53.465,forced_choiceRT,2021.1.2,Win32,59.07372401,,,,,,,,8,Ontime,j,1,2.0373,3,2,14,3,1,,,,,
,0.35,,,,,,,,,f.PNG,f,5dc3a77d84799a2a402e531e,2021-10-19_21h14.53.465,forced_choiceRT,2021.1.2,Win32,59.07372401,,,,,,,,8,Slow,f,1,2.1357,3,3,15,0,1,,,,,
,1.68,,,,,,,,,g.PNG,g,5dc3a77d84799a2a402e531e,2021-10-19_21h14.53.465,forced_choiceRT,2021.1.2,Win32,59.07372401,,,,,,,,8,Slow,h,0,2.2291,4,0,16,1,1,,,,,
,0.45,,,,,,,,,f.PNG,f,5dc3a77d84799a2a402e531e,2021-10-19_21h14.53.465,forced_choiceRT,2021.1.2,Win32,59.07372401,,,,,,,,8,Ontime,f,1,2.0184,4,1,17,0,1,,,,,
,0.05,,,,,,,,,f.PNG,f,5dc3a77d84799a2a402e531e,2021-10-19_21h14.53.465,forced_choiceRT,2021.1.2,Win32,59.07372401,,,,,,,,8,Ontime,f,1,2.0517,4,2,18,0,1,,,,,
,1.88,,,,,,,,,f.PNG,f,5dc3a77d84799a2a402e531e,2021-10-19_21h14.53.465,forced_choiceRT,2021.1.2,Win32,59.07372401,,,,,,,,8,Slow,f,1,2.3073,4,3,19,0,1,,,,,
,0.16,,,,,,,,,j.PNG,j,5dc3a77d84799a2a402e531e,2021-10-19_21h14.53.465,forced_choiceRT,2021.1.2,Win32,59.07372401,,,,,,,,8,Ontime,j,1,2.0521,5,0,20,3,1,,,,,
,0.86,,,,,,,,,j.PNG,j,5dc3a77d84799a2a402e531e,2021-10-19_21h14.53.465,forced_choiceRT,2021.1.2,Win32,59.07372401,,,,,,,,8,Ontime,j,1,2.042,5,1,21,3,1,,,,,
,0.27,,,,,,,,,h.PNG,h,5dc3a77d84799a2a402e531e,2021-10-19_21h14.53.465,forced_choiceRT,2021.1.2,Win32,59.07372401,,,,,,,,8,Ontime,g,0,2.0694,5,2,22,2,1,,,,,
,0.26,,,,,,,,,h.PNG,h,5dc3a77d84799a2a402e531e,2021-10-19_21h14.53.465,forced_choiceRT,2021.1.2,Win32,59.07372401,,,,,,,,8,Ontime,h,1,2.0186,5,3,23,2,1,,,,,
,1.85,,,,,,,,,h.PNG,h,5dc3a77d84799a2a402e531e,2021-10-19_21h14.53.465,forced_choiceRT,2021.1.2,Win32,59.07372401,,,,,,,,8,Ontime,h,1,2.0391,6,0,24,2,1,,,,,
,0.61,,,,,,,,,g.PNG,g,5dc3a77d84799a2a402e531e,2021-10-19_21h14.53.465,forced_choiceRT,2021.1.2,Win32,59.07372401,,,,,,,,8,Ontime,g,1,2.035,6,1,25,1,1,,,,,
,1.1,,,,,,,,,j.PNG,j,5dc3a77d84799a2a402e531e,2021-10-19_21h14.53.465,forced_choiceRT,2021.1.2,Win32,59.07372401,,,,,,,,8,Ontime,j,1,2.0919,6,2,26,3,1,,,,,
,0.94,,,,,,,,,g.PNG,g,5dc3a77d84799a2a402e531e,2021-10-19_21h14.53.465,forced_choiceRT,2021.1.2,Win32,59.07372401,,,,,,,,8,Ontime,h,0,1.9851,6,3,27,1,1,,,,,
,1.93,,,,,,,,,g.PNG,g,5dc3a77d84799a2a402e531e,2021-10-19_21h14.53.465,forced_choiceRT,2021.1.2,Win32,59.07372401,,,,,,,,8,Slow,g,1,2.1033,7,0,28,1,1,,,,,
,1.13,,,,,,,,,g.PNG,g,5dc3a77d84799a2a402e531e,2021-10-19_21h14.53.465,forced_choiceRT,2021.1.2,Win32,59.07372401,,,,,,,,8,Ontime,g,1,2.0185,7,1,29,1,1,,,,,
,0.31,,,,,,,,,h.PNG,h,5dc3a77d84799a2a402e531e,2021-10-19_21h14.53.465,forced_choiceRT,2021.1.2,Win32,59.07372401,,,,,,,,8,Ontime,h,1,2.052,7,2,30,2,1,,,,,
,0.96,,,,,,,,,g.PNG,g,5dc3a77d84799a2a402e531e,2021-10-19_21h14.53.465,forced_choiceRT,2021.1.2,Win32,59.07372401,,,,,,,,8,Ontime,h,0,2.0574,7,3,31,1,1,,,,,
,0.85,,,,,,,,,j.PNG,j,5dc3a77d84799a2a402e531e,2021-10-19_21h14.53.465,forced_choiceRT,2021.1.2,Win32,59.07372401,,,,,,,,8,Ontime,j,1,2.0415,8,0,32,3,1,,,,,
,0.19,,,,,,,,,g.PNG,g,5dc3a77d84799a2a402e531e,2021-10-19_21h14.53.465,forced_choiceRT,2021.1.2,Win32,59.07372401,,,,,,,,8,Ontime,g,1,2.0267,8,1,33,1,1,,,,,
,0.03,,,,,,,,,g.PNG,g,5dc3a77d84799a2a402e531e,2021-10-19_21h14.53.465,forced_choiceRT,2021.1.2,Win32,59.07372401,,,,,,,,8,Ontime,g,1,2.0702,8,2,34,1,1,,,,,
,1.64,,,,,,,,,j.PNG,j,5dc3a77d84799a2a402e531e,2021-10-19_21h14.53.465,forced_choiceRT,2021.1.2,Win32,59.07372401,,,,,,,,8,Slow,j,1,2.2765,8,3,35,3,1,,,,,
,0.78,,,,,,,,,f.PNG,f,5dc3a77d84799a2a402e531e,2021-10-19_21h14.53.465,forced_choiceRT,2021.1.2,Win32,59.07372401,,,,,,,,8,Ontime,f,1,2.0886,9,0,36,0,1,,,,,
,0.16,,,,,,,,,j.PNG,j,5dc3a77d84799a2a402e531e,2021-10-19_21h14.53.465,forced_choiceRT,2021.1.2,Win32,59.07372401,,,,,,,,8,Ontime,j,1,1.9686,9,1,37,3,1,,,,,
,1.7,,,,,,,,,h.PNG,h,5dc3a77d84799a2a402e531e,2021-10-19_21h14.53.465,forced_choiceRT,2021.1.2,Win32,59.07372401,,,,,,,,8,Slow,j,0,2.2913,9,2,38,2,1,,,,,
,0.16,,,,,,,,,f.PNG,f,5dc3a77d84799a2a402e531e,2021-10-19_21h14.53.465,forced_choiceRT,2021.1.2,Win32,59.07372401,,,,,,,,8,Fast,f,1,0.9576,9,3,39,0,1,,,,,
,,,,,,,,,,,,5dc3a77d84799a2a402e531e,2021-10-19_21h14.53.465,forced_choiceRT,2021.1.2,Win32,59.07372401,,,,,,,,,,,,,,,,,,7,0,7,0,1
,0.02,,,,,,,,,h.PNG,h,5dc3a77d84799a2a402e531e,2021-10-19_21h14.53.465,forced_choiceRT,2021.1.2,Win32,59.07372401,,,,,,,,9,Ontime,h,1,1.9947,0,0,0,2,1,,,,,
,0.5,,,,,,,,,j.PNG,j,5dc3a77d84799a2a402e531e,2021-10-19_21h14.53.465,forced_choiceRT,2021.1.2,Win32,59.07372401,,,,,,,,9,Ontime,j,1,2.0857,0,1,1,3,1,,,,,
,0.39,,,,,,,,,j.PNG,j,5dc3a77d84799a2a402e531e,2021-10-19_21h14.53.465,forced_choiceRT,2021.1.2,Win32,59.07372401,,,,,,,,9,Ontime,j,1,2.091,0,2,2,3,1,,,,,
,0.43,,,,,,,,,h.PNG,h,5dc3a77d84799a2a402e531e,2021-10-19_21h14.53.465,forced_choiceRT,2021.1.2,Win32,59.07372401,,,,,,,,9,Slow,h,1,2.146,0,3,3,2,1,,,,,
,1.02,,,,,,,,,j.PNG,j,5dc3a77d84799a2a402e531e,2021-10-19_21h14.53.465,forced_choiceRT,2021.1.2,Win32,59.07372401,,,,,,,,9,Ontime,j,1,2.0362,1,0,4,3,1,,,,,
,1.94,,,,,,,,,h.PNG,h,5dc3a77d84799a2a402e531e,2021-10-19_21h14.53.465,forced_choiceRT,2021.1.2,Win32,59.07372401,,,,,,,,9,Slow,f,0,2.1232,1,1,5,2,1,,,,,
,0.59,,,,,,,,,j.PNG,j,5dc3a77d84799a2a402e531e,2021-10-19_21h14.53.465,forced_choiceRT,2021.1.2,Win32,59.07372401,,,,,,,,9,Ontime,j,1,2.093,1,2,6,3,1,,,,,
,1.68,,,,,,,,,j.PNG,j,5dc3a77d84799a2a402e531e,2021-10-19_21h14.53.465,forced_choiceRT,2021.1.2,Win32,59.07372401,,,,,,,,9,Ontime,f,0,2.0032,1,3,7,3,1,,,,,
,1.01,,,,,,,,,f.PNG,f,5dc3a77d84799a2a402e531e,2021-10-19_21h14.53.465,forced_choiceRT,2021.1.2,Win32,59.07372401,,,,,,,,9,Slow,f,1,2.1242,2,0,8,0,1,,,,,
,1.1,,,,,,,,,f.PNG,f,5dc3a77d84799a2a402e531e,2021-10-19_21h14.53.465,forced_choiceRT,2021.1.2,Win32,59.07372401,,,,,,,,9,Ontime,f,1,2.0693,2,1,9,0,1,,,,,
,1.91,,,,,,,,,g.PNG,g,5dc3a77d84799a2a402e531e,2021-10-19_21h14.53.465,forced_choiceRT,2021.1.2,Win32,59.07372401,,,,,,,,9,Slow,j,0,2.1215,2,2,10,1,1,,,,,
,1.73,,,,,,,,,g.PNG,g,5dc3a77d84799a2a402e531e,2021-10-19_21h14.53.465,forced_choiceRT,2021.1.2,Win32,59.07372401,,,,,,,,9,Slow,h,0,2.2371,2,3,11,1,1,,,,,
,0.48,,,,,,,,,j.PNG,j,5dc3a77d84799a2a402e531e,2021-10-19_21h14.53.465,forced_choiceRT,2021.1.2,Win32,59.07372401,,,,,,,,9,Ontime,j,1,2.0203,3,0,12,3,1,,,,,
,0.5,,,,,,,,,h.PNG,h,5dc3a77d84799a2a402e531e,2021-10-19_21h14.53.465,forced_choiceRT,2021.1.2,Win32,59.07372401,,,,,,,,9,Ontime,g,0,1.9871,3,1,13,2,1,,,,,
,1.47,,,,,,,,,f.PNG,f,5dc3a77d84799a2a402e531e,2021-10-19_21h14.53.465,forced_choiceRT,2021.1.2,Win32,59.07372401,,,,,,,,9,Ontime,f,1,2.0739,3,2,14,0,1,,,,,
,1.61,,,,,,,,,j.PNG,j,5dc3a77d84799a2a402e531e,2021-10-19_21h14.53.465,forced_choiceRT,2021.1.2,Win32,59.07372401,,,,,,,,9,Slow,j,1,2.1446,3,3,15,3,1,,,,,
,0.43,,,,,,,,,g.PNG,g,5dc3a77d84799a2a402e531e,2021-10-19_21h14.53.465,forced_choiceRT,2021.1.2,Win32,59.07372401,,,,,,,,9,Ontime,g,1,2.0753,4,0,16,1,1,,,,,
,1.42,,,,,,,,,h.PNG,h,5dc3a77d84799a2a402e531e,2021-10-19_21h14.53.465,forced_choiceRT,2021.1.2,Win32,59.07372401,,,,,,,,9,Ontime,h,1,2.0199,4,1,17,2,1,,,,,
,0.21,,,,,,,,,j.PNG,j,5dc3a77d84799a2a402e531e,2021-10-19_21h14.53.465,forced_choiceRT,2021.1.2,Win32,59.07372401,,,,,,,,9,Ontime,j,1,2.0094,4,2,18,3,1,,,,,
,1.87,,,,,,,,,f.PNG,f,5dc3a77d84799a2a402e531e,2021-10-19_21h14.53.465,forced_choiceRT,2021.1.2,Win32,59.07372401,,,,,,,,9,Slow,g,0,2.1185,4,3,19,0,1,,,,,
,0.12,,,,,,,,,h.PNG,h,5dc3a77d84799a2a402e531e,2021-10-19_21h14.53.465,forced_choiceRT,2021.1.2,Win32,59.07372401,,,,,,,,9,Ontime,g,0,1.985,5,0,20,2,1,,,,,
,0.43,,,,,,,,,g.PNG,g,5dc3a77d84799a2a402e531e,2021-10-19_21h14.53.465,forced_choiceRT,2021.1.2,Win32,59.07372401,,,,,,,,9,Ontime,g,1,2.0354,5,1,21,1,1,,,,,
,1.55,,,,,,,,,j.PNG,j,5dc3a77d84799a2a402e531e,2021-10-19_21h14.53.465,forced_choiceRT,2021.1.2,Win32,59.07372401,,,,,,,,9,Ontime,g,0,2.062,5,2,22,3,1,,,,,
,0.66,,,,,,,,,f.PNG,f,5dc3a77d84799a2a402e531e,2021-10-19_21h14.53.465,forced_choiceRT,2021.1.2,Win32,59.07372401,,,,,,,,9,Ontime,f,1,2.0888,5,3,23,0,1,,,,,
,1.25,,,,,,,,,g.PNG,g,5dc3a77d84799a2a402e531e,2021-10-19_21h14.53.465,forced_choiceRT,2021.1.2,Win32,59.07372401,,,,,,,,9,Fast,g,1,1.8516,6,0,24,1,1,,,,,
,1.16,,,,,,,,,f.PNG,f,5dc3a77d84799a2a402e531e,2021-10-19_21h14.53.465,forced_choiceRT,2021.1.2,Win32,59.07372401,,,,,,,,9,Slow,f,1,2.1104,6,1,25,0,1,,,,,
,1.5,,,,,,,,,h.PNG,h,5dc3a77d84799a2a402e531e,2021-10-19_21h14.53.465,forced_choiceRT,2021.1.2,Win32,59.07372401,,,,,,,,9,Ontime,h,1,2.0222,6,2,26,2,1,,,,,
,1.25,,,,,,,,,f.PNG,f,5dc3a77d84799a2a402e531e,2021-10-19_21h14.53.465,forced_choiceRT,2021.1.2,Win32,59.07372401,,,,,,,,9,Slow,f,1,2.1214,6,3,27,0,1,,,,,
,1.59,,,,,,,,,f.PNG,f,5dc3a77d84799a2a402e531e,2021-10-19_21h14.53.465,forced_choiceRT,2021.1.2,Win32,59.07372401,,,,,,,,9,Slow,f,1,2.1279,7,0,28,0,1,,,,,
,0.17,,,,,,,,,h.PNG,h,5dc3a77d84799a2a402e531e,2021-10-19_21h14.53.465,forced_choiceRT,2021.1.2,Win32,59.07372401,,,,,,,,9,Ontime,h,1,2.0352,7,1,29,2,1,,,,,
,0.01,,,,,,,,,f.PNG,f,5dc3a77d84799a2a402e531e,2021-10-19_21h14.53.465,forced_choiceRT,2021.1.2,Win32,59.07372401,,,,,,,,9,Ontime,f,1,1.987,7,2,30,0,1,,,,,
,0.57,,,,,,,,,g.PNG,g,5dc3a77d84799a2a402e531e,2021-10-19_21h14.53.465,forced_choiceRT,2021.1.2,Win32,59.07372401,,,,,,,,9,Ontime,g,1,2.0686,7,3,31,1,1,,,,,
,1.68,,,,,,,,,g.PNG,g,5dc3a77d84799a2a402e531e,2021-10-19_21h14.53.465,forced_choiceRT,2021.1.2,Win32,59.07372401,,,,,,,,9,Slow,h,0,2.3183,8,0,32,1,1,,,,,
,0.94,,,,,,,,,g.PNG,g,5dc3a77d84799a2a402e531e,2021-10-19_21h14.53.465,forced_choiceRT,2021.1.2,Win32,59.07372401,,,,,,,,9,Ontime,g,1,2.0704,8,1,33,1,1,,,,,
,1.07,,,,,,,,,g.PNG,g,5dc3a77d84799a2a402e531e,2021-10-19_21h14.53.465,forced_choiceRT,2021.1.2,Win32,59.07372401,,,,,,,,9,Ontime,g,1,2.0689,8,2,34,1,1,,,,,
,1.38,,,,,,,,,h.PNG,h,5dc3a77d84799a2a402e531e,2021-10-19_21h14.53.465,forced_choiceRT,2021.1.2,Win32,59.07372401,,,,,,,,9,Ontime,h,1,2.0727,8,3,35,2,1,,,,,
,1.07,,,,,,,,,f.PNG,f,5dc3a77d84799a2a402e531e,2021-10-19_21h14.53.465,forced_choiceRT,2021.1.2,Win32,59.07372401,,,,,,,,9,Ontime,f,1,2.0925,9,0,36,0,1,,,,,
,1.75,,,,,,,,,j.PNG,j,5dc3a77d84799a2a402e531e,2021-10-19_21h14.53.465,forced_choiceRT,2021.1.2,Win32,59.07372401,,,,,,,,9,Ontime,j,1,1.9926,9,1,37,3,1,,,,,
,0.67,,,,,,,,,g.PNG,g,5dc3a77d84799a2a402e531e,2021-10-19_21h14.53.465,forced_choiceRT,2021.1.2,Win32,59.07372401,,,,,,,,9,Ontime,g,1,2.0758,9,2,38,1,1,,,,,
,1.57,,,,,,,,,h.PNG,h,5dc3a77d84799a2a402e531e,2021-10-19_21h14.53.465,forced_choiceRT,2021.1.2,Win32,59.07372401,,,,,,,,9,Ontime,f,0,2.0525,9,3,39,2,1,,,,,
,,,,,,,,,,,,5dc3a77d84799a2a402e531e,2021-10-19_21h14.53.465,forced_choiceRT,2021.1.2,Win32,59.07372401,,,,,,,,,,,,,,,,,,8,0,8,0,1
,1.41,,,,,,,,,h.PNG,h,5dc3a77d84799a2a402e531e,2021-10-19_21h14.53.465,forced_choiceRT,2021.1.2,Win32,59.07372401,,,,,,,,10,Ontime,h,1,2.0865,0,0,0,2,1,,,,,
,0.1,,,,,,,,,g.PNG,g,5dc3a77d84799a2a402e531e,2021-10-19_21h14.53.465,forced_choiceRT,2021.1.2,Win32,59.07372401,,,,,,,,10,Ontime,g,1,2.0115,0,1,1,1,1,,,,,
,1,,,,,,,,,f.PNG,f,5dc3a77d84799a2a402e531e,2021-10-19_21h14.53.465,forced_choiceRT,2021.1.2,Win32,59.07372401,,,,,,,,10,Ontime,f,1,2.0719,0,2,2,0,1,,,,,
,1.22,,,,,,,,,j.PNG,j,5dc3a77d84799a2a402e531e,2021-10-19_21h14.53.465,forced_choiceRT,2021.1.2,Win32,59.07372401,,,,,,,,10,Ontime,j,1,1.9855,0,3,3,3,1,,,,,
,0.08,,,,,,,,,g.PNG,g,5dc3a77d84799a2a402e531e,2021-10-19_21h14.53.465,forced_choiceRT,2021.1.2,Win32,59.07372401,,,,,,,,10,Ontime,g,1,2.0184,1,0,4,1,1,,,,,
,1.52,,,,,,,,,h.PNG,h,5dc3a77d84799a2a402e531e,2021-10-19_21h14.53.465,forced_choiceRT,2021.1.2,Win32,59.07372401,,,,,,,,10,Ontime,h,1,1.9018,1,1,5,2,1,,,,,
,1.59,,,,,,,,,h.PNG,h,5dc3a77d84799a2a402e531e,2021-10-19_21h14.53.465,forced_choiceRT,2021.1.2,Win32,59.07372401,,,,,,,,10,Ontime,h,1,2.0518,1,2,6,2,1,,,,,
,0.11,,,,,,,,,g.PNG,g,5dc3a77d84799a2a402e531e,2021-10-19_21h14.53.465,forced_choiceRT,2021.1.2,Win32,59.07372401,,,,,,,,10,Ontime,g,1,1.9729,1,3,7,1,1,,,,,
,1.09,,,,,,,,,h.PNG,h,5dc3a77d84799a2a402e531e,2021-10-19_21h14.53.465,forced_choiceRT,2021.1.2,Win32,59.07372401,,,,,,,,10,Slow,h,1,2.1525,2,0,8,2,1,,,,,
,1.04,,,,,,,,,j.PNG,j,5dc3a77d84799a2a402e531e,2021-10-19_21h14.53.465,forced_choiceRT,2021.1.2,Win32,59.07372401,,,,,,,,10,Ontime,j,1,2.069,2,1,9,3,1,,,,,
,0.28,,,,,,,,,j.PNG,j,5dc3a77d84799a2a402e531e,2021-10-19_21h14.53.465,forced_choiceRT,2021.1.2,Win32,59.07372401,,,,,,,,10,Ontime,j,1,2.052,2,2,10,3,1,,,,,
,0.67,,,,,,,,,j.PNG,j,5dc3a77d84799a2a402e531e,2021-10-19_21h14.53.465,forced_choiceRT,2021.1.2,Win32,59.07372401,,,,,,,,10,Ontime,j,1,2.0025,2,3,11,3,1,,,,,
,1.06,,,,,,,,,h.PNG,h,5dc3a77d84799a2a402e531e,2021-10-19_21h14.53.465,forced_choiceRT,2021.1.2,Win32,59.07372401,,,,,,,,10,Ontime,h,1,2.0411,3,0,12,2,1,,,,,
,1.11,,,,,,,,,h.PNG,h,5dc3a77d84799a2a402e531e,2021-10-19_21h14.53.465,forced_choiceRT,2021.1.2,Win32,59.07372401,,,,,,,,10,Ontime,h,1,2.019,3,1,13,2,1,,,,,
,1.28,,,,,,,,,h.PNG,h,5dc3a77d84799a2a402e531e,2021-10-19_21h14.53.465,forced_choiceRT,2021.1.2,Win32,59.07372401,,,,,,,,10,Ontime,h,1,2.022,3,2,14,2,1,,,,,
,0.11,,,,,,,,,f.PNG,f,5dc3a77d84799a2a402e531e,2021-10-19_21h14.53.465,forced_choiceRT,2021.1.2,Win32,59.07372401,,,,,,,,10,Ontime,f,1,2.0062,3,3,15,0,1,,,,,
,1.04,,,,,,,,,g.PNG,g,5dc3a77d84799a2a402e531e,2021-10-19_21h14.53.465,forced_choiceRT,2021.1.2,Win32,59.07372401,,,,,,,,10,Ontime,g,1,2.0076,4,0,16,1,1,,,,,
,0.02,,,,,,,,,h.PNG,h,5dc3a77d84799a2a402e531e,2021-10-19_21h14.53.465,forced_choiceRT,2021.1.2,Win32,59.07372401,,,,,,,,10,Ontime,h,1,2.0231,4,1,17,2,1,,,,,
,0.68,,,,,,,,,j.PNG,j,5dc3a77d84799a2a402e531e,2021-10-19_21h14.53.465,forced_choiceRT,2021.1.2,Win32,59.07372401,,,,,,,,10,Ontime,j,1,2.0405,4,2,18,3,1,,,,,
,0.46,,,,,,,,,g.PNG,g,5dc3a77d84799a2a402e531e,2021-10-19_21h14.53.465,forced_choiceRT,2021.1.2,Win32,59.07372401,,,,,,,,10,Ontime,g,1,2.0394,4,3,19,1,1,,,,,
,0.02,,,,,,,,,f.PNG,f,5dc3a77d84799a2a402e531e,2021-10-19_21h14.53.465,forced_choiceRT,2021.1.2,Win32,59.07372401,,,,,,,,10,Ontime,f,1,2.0415,5,0,20,0,1,,,,,
,0.18,,,,,,,,,j.PNG,j,5dc3a77d84799a2a402e531e,2021-10-19_21h14.53.465,forced_choiceRT,2021.1.2,Win32,59.07372401,,,,,,,,10,Ontime,j,1,1.9854,5,1,21,3,1,,,,,
,1.73,,,,,,,,,f.PNG,f,5dc3a77d84799a2a402e531e,2021-10-19_21h14.53.465,forced_choiceRT,2021.1.2,Win32,59.07372401,,,,,,,,10,Slow,f,1,2.2395,5,2,22,0,1,,,,,
,0.86,,,,,,,,,f.PNG,f,5dc3a77d84799a2a402e531e,2021-10-19_21h14.53.465,forced_choiceRT,2021.1.2,Win32,59.07372401,,,,,,,,10,Ontime,f,1,1.9852,5,3,23,0,1,,,,,
,0.4,,,,,,,,,f.PNG,f,5dc3a77d84799a2a402e531e,2021-10-19_21h14.53.465,forced_choiceRT,2021.1.2,Win32,59.07372401,,,,,,,,10,Ontime,f,1,1.9692,6,0,24,0,1,,,,,
,1.79,,,,,,,,,g.PNG,g,5dc3a77d84799a2a402e531e,2021-10-19_21h14.53.465,forced_choiceRT,2021.1.2,Win32,59.07372401,,,,,,,,10,Ontime,h,0,1.9763,6,1,25,1,1,,,,,
,0.14,,,,,,,,,f.PNG,f,5dc3a77d84799a2a402e531e,2021-10-19_21h14.53.465,forced_choiceRT,2021.1.2,Win32,59.07372401,,,,,,,,10,Ontime,f,1,2.0197,6,2,26,0,1,,,,,
,1.7,,,,,,,,,j.PNG,j,5dc3a77d84799a2a402e531e,2021-10-19_21h14.53.465,forced_choiceRT,2021.1.2,Win32,59.07372401,,,,,,,,10,Ontime,h,0,2.0017,6,3,27,3,1,,,,,
,1.49,,,,,,,,,j.PNG,j,5dc3a77d84799a2a402e531e,2021-10-19_21h14.53.465,forced_choiceRT,2021.1.2,Win32,59.07372401,,,,,,,,10,Ontime,j,1,2.0368,7,0,28,3,1,,,,,
,1.64,,,,,,,,,g.PNG,g,5dc3a77d84799a2a402e531e,2021-10-19_21h14.53.465,forced_choiceRT,2021.1.2,Win32,59.07372401,,,,,,,,10,Slow,h,0,2.152,7,1,29,1,1,,,,,
,0.22,,,,,,,,,j.PNG,j,5dc3a77d84799a2a402e531e,2021-10-19_21h14.53.465,forced_choiceRT,2021.1.2,Win32,59.07372401,,,,,,,,10,Ontime,j,1,1.9687,7,2,30,3,1,,,,,
,0.51,,,,,,,,,j.PNG,j,5dc3a77d84799a2a402e531e,2021-10-19_21h14.53.465,forced_choiceRT,2021.1.2,Win32,59.07372401,,,,,,,,10,Ontime,j,1,2.0517,7,3,31,3,1,,,,,
,1.64,,,,,,,,,f.PNG,f,5dc3a77d84799a2a402e531e,2021-10-19_21h14.53.465,forced_choiceRT,2021.1.2,Win32,59.07372401,,,,,,,,10,Ontime,f,1,2.0364,8,0,32,0,1,,,,,
,0.49,,,,,,,,,h.PNG,h,5dc3a77d84799a2a402e531e,2021-10-19_21h14.53.465,forced_choiceRT,2021.1.2,Win32,59.07372401,,,,,,,,10,Ontime,h,1,2.0057,8,1,33,2,1,,,,,
,0.38,,,,,,,,,f.PNG,f,5dc3a77d84799a2a402e531e,2021-10-19_21h14.53.465,forced_choiceRT,2021.1.2,Win32,59.07372401,,,,,,,,10,Ontime,f,1,2.0754,8,2,34,0,1,,,,,
,0.18,,,,,,,,,f.PNG,f,5dc3a77d84799a2a402e531e,2021-10-19_21h14.53.465,forced_choiceRT,2021.1.2,Win32,59.07372401,,,,,,,,10,Ontime,f,1,2.0867,8,3,35,0,1,,,,,
,1.4,,,,,,,,,g.PNG,g,5dc3a77d84799a2a402e531e,2021-10-19_21h14.53.465,forced_choiceRT,2021.1.2,Win32,59.07372401,,,,,,,,10,Ontime,f,0,2.0371,9,0,36,1,1,,,,,
,0.12,,,,,,,,,h.PNG,h,5dc3a77d84799a2a402e531e,2021-10-19_21h14.53.465,forced_choiceRT,2021.1.2,Win32,59.07372401,,,,,,,,10,Ontime,h,1,2.0525,9,1,37,2,1,,,,,
,0.39,,,,,,,,,g.PNG,g,5dc3a77d84799a2a402e531e,2021-10-19_21h14.53.465,forced_choiceRT,2021.1.2,Win32,59.07372401,,,,,,,,10,Ontime,g,1,2.058,9,2,38,1,1,,,,,
,1.29,,,,,,,,,g.PNG,g,5dc3a77d84799a2a402e531e,2021-10-19_21h14.53.465,forced_choiceRT,2021.1.2,Win32,59.07372401,,,,,,,,10,Ontime,h,0,2.0719,9,3,39,1,1,,,,,
,,,,,,,,,,,,5dc3a77d84799a2a402e531e,2021-10-19_21h14.53.465,forced_choiceRT,2021.1.2,Win32,59.07372401,,,,,,,,,,,,,,,,,,9,0,9,0,1
