IP_Addresss,target_onset,trial_resp_sp.keys,trial_resp_sp.corr,trial_resp_sp.rt,trials_train_loop.thisRepN,trials_train_loop.thisTrialN,trials_train_loop.thisN,trials_train_loop.thisIndex,trials_train_loop.ran,pic,correct_key,participant,date,expName,psychopyVersion,OS,frameRate,trial_resp_timing.keys,trial_resp_timing.rt,trials_train_timing.thisRepN,trials_train_timing.thisTrialN,trials_train_timing.thisN,trials_train_timing.thisIndex,trials_train_timing.ran,block_id,ontime,forcedRT_resp.keys,forcedRT_resp.corr,forcedRT_resp.rt,trials.thisRepN,trials.thisTrialN,trials.thisN,trials.thisIndex,trials.ran,blocks.thisRepN,blocks.thisTrialN,blocks.thisN,blocks.thisIndex,blocks.ran
199.195.210.38,0,h,1,3.8565,0,0,0,2,1,h.PNG,h,5f1b2a0146ce431186055813,2021-10-19_20h15.32.022,forced_choiceRT,2021.1.2,Win32,59.89458553,,,,,,,,,,,,,,,,,,,,,,
,0,h,1,2.0627,0,1,1,2,1,h.PNG,h,5f1b2a0146ce431186055813,2021-10-19_20h15.32.022,forced_choiceRT,2021.1.2,Win32,59.89458553,,,,,,,,,,,,,,,,,,,,,,
,0,f,1,1.4067,0,2,2,0,1,f.PNG,f,5f1b2a0146ce431186055813,2021-10-19_20h15.32.022,forced_choiceRT,2021.1.2,Win32,59.89458553,,,,,,,,,,,,,,,,,,,,,,
,0,j,1,1.138,0,3,3,3,1,j.PNG,j,5f1b2a0146ce431186055813,2021-10-19_20h15.32.022,forced_choiceRT,2021.1.2,Win32,59.89458553,,,,,,,,,,,,,,,,,,,,,,
,0,f,1,1.9121,1,0,4,0,1,f.PNG,f,5f1b2a0146ce431186055813,2021-10-19_20h15.32.022,forced_choiceRT,2021.1.2,Win32,59.89458553,,,,,,,,,,,,,,,,,,,,,,
,0,g,1,1.9425,1,1,5,1,1,g.PNG,g,5f1b2a0146ce431186055813,2021-10-19_20h15.32.022,forced_choiceRT,2021.1.2,Win32,59.89458553,,,,,,,,,,,,,,,,,,,,,,
,0,f,1,1.3232,1,2,6,0,1,f.PNG,f,5f1b2a0146ce431186055813,2021-10-19_20h15.32.022,forced_choiceRT,2021.1.2,Win32,59.89458553,,,,,,,,,,,,,,,,,,,,,,
,0,j,1,1.2338,1,3,7,3,1,j.PNG,j,5f1b2a0146ce431186055813,2021-10-19_20h15.32.022,forced_choiceRT,2021.1.2,Win32,59.89458553,,,,,,,,,,,,,,,,,,,,,,
,0,g,1,1.9966,2,0,8,1,1,g.PNG,g,5f1b2a0146ce431186055813,2021-10-19_20h15.32.022,forced_choiceRT,2021.1.2,Win32,59.89458553,,,,,,,,,,,,,,,,,,,,,,
,0,f,1,1.2473,2,1,9,0,1,f.PNG,f,5f1b2a0146ce431186055813,2021-10-19_20h15.32.022,forced_choiceRT,2021.1.2,Win32,59.89458553,,,,,,,,,,,,,,,,,,,,,,
,0,h,1,1.9454,2,2,10,2,1,h.PNG,h,5f1b2a0146ce431186055813,2021-10-19_20h15.32.022,forced_choiceRT,2021.1.2,Win32,59.89458553,,,,,,,,,,,,,,,,,,,,,,
,0,h,1,1.3824,2,3,11,2,1,h.PNG,h,5f1b2a0146ce431186055813,2021-10-19_20h15.32.022,forced_choiceRT,2021.1.2,Win32,59.89458553,,,,,,,,,,,,,,,,,,,,,,
,0,f,1,1.0984,3,0,12,0,1,f.PNG,f,5f1b2a0146ce431186055813,2021-10-19_20h15.32.022,forced_choiceRT,2021.1.2,Win32,59.89458553,,,,,,,,,,,,,,,,,,,,,,
,0,g,1,1.0672,3,1,13,1,1,g.PNG,g,5f1b2a0146ce431186055813,2021-10-19_20h15.32.022,forced_choiceRT,2021.1.2,Win32,59.89458553,,,,,,,,,,,,,,,,,,,,,,
,0,j,1,0.845,3,2,14,3,1,j.PNG,j,5f1b2a0146ce431186055813,2021-10-19_20h15.32.022,forced_choiceRT,2021.1.2,Win32,59.89458553,,,,,,,,,,,,,,,,,,,,,,
,0,g,1,1.0719,3,3,15,1,1,g.PNG,g,5f1b2a0146ce431186055813,2021-10-19_20h15.32.022,forced_choiceRT,2021.1.2,Win32,59.89458553,,,,,,,,,,,,,,,,,,,,,,
,0,h,1,1.8889,4,0,16,2,1,h.PNG,h,5f1b2a0146ce431186055813,2021-10-19_20h15.32.022,forced_choiceRT,2021.1.2,Win32,59.89458553,,,,,,,,,,,,,,,,,,,,,,
,0,j,1,0.7039,4,1,17,3,1,j.PNG,j,5f1b2a0146ce431186055813,2021-10-19_20h15.32.022,forced_choiceRT,2021.1.2,Win32,59.89458553,,,,,,,,,,,,,,,,,,,,,,
,0,h,1,2.0644,4,2,18,2,1,h.PNG,h,5f1b2a0146ce431186055813,2021-10-19_20h15.32.022,forced_choiceRT,2021.1.2,Win32,59.89458553,,,,,,,,,,,,,,,,,,,,,,
,0,h,1,0.8639,4,3,19,2,1,h.PNG,h,5f1b2a0146ce431186055813,2021-10-19_20h15.32.022,forced_choiceRT,2021.1.2,Win32,59.89458553,,,,,,,,,,,,,,,,,,,,,,
,0,j,1,0.7626,5,0,20,3,1,j.PNG,j,5f1b2a0146ce431186055813,2021-10-19_20h15.32.022,forced_choiceRT,2021.1.2,Win32,59.89458553,,,,,,,,,,,,,,,,,,,,,,
,0,f,1,0.8808,5,1,21,0,1,f.PNG,f,5f1b2a0146ce431186055813,2021-10-19_20h15.32.022,forced_choiceRT,2021.1.2,Win32,59.89458553,,,,,,,,,,,,,,,,,,,,,,
,0,j,1,0.9864,5,2,22,3,1,j.PNG,j,5f1b2a0146ce431186055813,2021-10-19_20h15.32.022,forced_choiceRT,2021.1.2,Win32,59.89458553,,,,,,,,,,,,,,,,,,,,,,
,0,f,1,1.0872,5,3,23,0,1,f.PNG,f,5f1b2a0146ce431186055813,2021-10-19_20h15.32.022,forced_choiceRT,2021.1.2,Win32,59.89458553,,,,,,,,,,,,,,,,,,,,,,
,0,g,1,0.7835,6,0,24,1,1,g.PNG,g,5f1b2a0146ce431186055813,2021-10-19_20h15.32.022,forced_choiceRT,2021.1.2,Win32,59.89458553,,,,,,,,,,,,,,,,,,,,,,
,0,j,1,0.821,6,1,25,3,1,j.PNG,j,5f1b2a0146ce431186055813,2021-10-19_20h15.32.022,forced_choiceRT,2021.1.2,Win32,59.89458553,,,,,,,,,,,,,,,,,,,,,,
,0,j,1,0.7528,6,2,26,3,1,j.PNG,j,5f1b2a0146ce431186055813,2021-10-19_20h15.32.022,forced_choiceRT,2021.1.2,Win32,59.89458553,,,,,,,,,,,,,,,,,,,,,,
,0,g,1,2.719,6,3,27,1,1,g.PNG,g,5f1b2a0146ce431186055813,2021-10-19_20h15.32.022,forced_choiceRT,2021.1.2,Win32,59.89458553,,,,,,,,,,,,,,,,,,,,,,
,0,f,1,0.8196,7,0,28,0,1,f.PNG,f,5f1b2a0146ce431186055813,2021-10-19_20h15.32.022,forced_choiceRT,2021.1.2,Win32,59.89458553,,,,,,,,,,,,,,,,,,,,,,
,0,j,1,0.9519,7,1,29,3,1,j.PNG,j,5f1b2a0146ce431186055813,2021-10-19_20h15.32.022,forced_choiceRT,2021.1.2,Win32,59.89458553,,,,,,,,,,,,,,,,,,,,,,
,0,f,1,0.9021,7,2,30,0,1,f.PNG,f,5f1b2a0146ce431186055813,2021-10-19_20h15.32.022,forced_choiceRT,2021.1.2,Win32,59.89458553,,,,,,,,,,,,,,,,,,,,,,
,0,j,1,0.7576,7,3,31,3,1,j.PNG,j,5f1b2a0146ce431186055813,2021-10-19_20h15.32.022,forced_choiceRT,2021.1.2,Win32,59.89458553,,,,,,,,,,,,,,,,,,,,,,
,0,h,1,0.7562,8,0,32,2,1,h.PNG,h,5f1b2a0146ce431186055813,2021-10-19_20h15.32.022,forced_choiceRT,2021.1.2,Win32,59.89458553,,,,,,,,,,,,,,,,,,,,,,
,0,j,1,1.1865,8,1,33,3,1,j.PNG,j,5f1b2a0146ce431186055813,2021-10-19_20h15.32.022,forced_choiceRT,2021.1.2,Win32,59.89458553,,,,,,,,,,,,,,,,,,,,,,
,0,h,1,1.1021,8,2,34,2,1,h.PNG,h,5f1b2a0146ce431186055813,2021-10-19_20h15.32.022,forced_choiceRT,2021.1.2,Win32,59.89458553,,,,,,,,,,,,,,,,,,,,,,
,0,f,1,0.711,8,3,35,0,1,f.PNG,f,5f1b2a0146ce431186055813,2021-10-19_20h15.32.022,forced_choiceRT,2021.1.2,Win32,59.89458553,,,,,,,,,,,,,,,,,,,,,,
,0,j,1,0.7277,9,0,36,3,1,j.PNG,j,5f1b2a0146ce431186055813,2021-10-19_20h15.32.022,forced_choiceRT,2021.1.2,Win32,59.89458553,,,,,,,,,,,,,,,,,,,,,,
,0,g,1,0.8792,9,1,37,1,1,g.PNG,g,5f1b2a0146ce431186055813,2021-10-19_20h15.32.022,forced_choiceRT,2021.1.2,Win32,59.89458553,,,,,,,,,,,,,,,,,,,,,,
,0,g,1,1.3208,9,2,38,1,1,g.PNG,g,5f1b2a0146ce431186055813,2021-10-19_20h15.32.022,forced_choiceRT,2021.1.2,Win32,59.89458553,,,,,,,,,,,,,,,,,,,,,,
,0,h,1,1.3674,9,3,39,2,1,h.PNG,h,5f1b2a0146ce431186055813,2021-10-19_20h15.32.022,forced_choiceRT,2021.1.2,Win32,59.89458553,,,,,,,,,,,,,,,,,,,,,,
,0,f,1,0.5489,10,0,40,0,1,f.PNG,f,5f1b2a0146ce431186055813,2021-10-19_20h15.32.022,forced_choiceRT,2021.1.2,Win32,59.89458553,,,,,,,,,,,,,,,,,,,,,,
,0,h,1,1.1721,10,1,41,2,1,h.PNG,h,5f1b2a0146ce431186055813,2021-10-19_20h15.32.022,forced_choiceRT,2021.1.2,Win32,59.89458553,,,,,,,,,,,,,,,,,,,,,,
,0,h,1,1.457,10,2,42,2,1,h.PNG,h,5f1b2a0146ce431186055813,2021-10-19_20h15.32.022,forced_choiceRT,2021.1.2,Win32,59.89458553,,,,,,,,,,,,,,,,,,,,,,
,0,j,1,0.6513,10,3,43,3,1,j.PNG,j,5f1b2a0146ce431186055813,2021-10-19_20h15.32.022,forced_choiceRT,2021.1.2,Win32,59.89458553,,,,,,,,,,,,,,,,,,,,,,
,0,f,1,0.8853,11,0,44,0,1,f.PNG,f,5f1b2a0146ce431186055813,2021-10-19_20h15.32.022,forced_choiceRT,2021.1.2,Win32,59.89458553,,,,,,,,,,,,,,,,,,,,,,
,0,j,1,0.6465,11,1,45,3,1,j.PNG,j,5f1b2a0146ce431186055813,2021-10-19_20h15.32.022,forced_choiceRT,2021.1.2,Win32,59.89458553,,,,,,,,,,,,,,,,,,,,,,
,0,g,1,0.9294,11,2,46,1,1,g.PNG,g,5f1b2a0146ce431186055813,2021-10-19_20h15.32.022,forced_choiceRT,2021.1.2,Win32,59.89458553,,,,,,,,,,,,,,,,,,,,,,
,0,g,1,1.0488,11,3,47,1,1,g.PNG,g,5f1b2a0146ce431186055813,2021-10-19_20h15.32.022,forced_choiceRT,2021.1.2,Win32,59.89458553,,,,,,,,,,,,,,,,,,,,,,
,0,g,1,0.7954,12,0,48,1,1,g.PNG,g,5f1b2a0146ce431186055813,2021-10-19_20h15.32.022,forced_choiceRT,2021.1.2,Win32,59.89458553,,,,,,,,,,,,,,,,,,,,,,
,0,h,1,0.9365,12,1,49,2,1,h.PNG,h,5f1b2a0146ce431186055813,2021-10-19_20h15.32.022,forced_choiceRT,2021.1.2,Win32,59.89458553,,,,,,,,,,,,,,,,,,,,,,
,0,f,1,0.7269,12,2,50,0,1,f.PNG,f,5f1b2a0146ce431186055813,2021-10-19_20h15.32.022,forced_choiceRT,2021.1.2,Win32,59.89458553,,,,,,,,,,,,,,,,,,,,,,
,0,j,1,0.6067,12,3,51,3,1,j.PNG,j,5f1b2a0146ce431186055813,2021-10-19_20h15.32.022,forced_choiceRT,2021.1.2,Win32,59.89458553,,,,,,,,,,,,,,,,,,,,,,
,0,g,1,0.8355,13,0,52,1,1,g.PNG,g,5f1b2a0146ce431186055813,2021-10-19_20h15.32.022,forced_choiceRT,2021.1.2,Win32,59.89458553,,,,,,,,,,,,,,,,,,,,,,
,0,h,1,1.0622,13,1,53,2,1,h.PNG,h,5f1b2a0146ce431186055813,2021-10-19_20h15.32.022,forced_choiceRT,2021.1.2,Win32,59.89458553,,,,,,,,,,,,,,,,,,,,,,
,0,f,0,0.912,13,2,54,1,1,g.PNG,g,5f1b2a0146ce431186055813,2021-10-19_20h15.32.022,forced_choiceRT,2021.1.2,Win32,59.89458553,,,,,,,,,,,,,,,,,,,,,,
,0,h,1,2.1364,13,3,55,2,1,h.PNG,h,5f1b2a0146ce431186055813,2021-10-19_20h15.32.022,forced_choiceRT,2021.1.2,Win32,59.89458553,,,,,,,,,,,,,,,,,,,,,,
,0,g,1,1.0137,14,0,56,1,1,g.PNG,g,5f1b2a0146ce431186055813,2021-10-19_20h15.32.022,forced_choiceRT,2021.1.2,Win32,59.89458553,,,,,,,,,,,,,,,,,,,,,,
,0,g,1,0.7294,14,1,57,1,1,g.PNG,g,5f1b2a0146ce431186055813,2021-10-19_20h15.32.022,forced_choiceRT,2021.1.2,Win32,59.89458553,,,,,,,,,,,,,,,,,,,,,,
,0,f,1,0.7772,14,2,58,0,1,f.PNG,f,5f1b2a0146ce431186055813,2021-10-19_20h15.32.022,forced_choiceRT,2021.1.2,Win32,59.89458553,,,,,,,,,,,,,,,,,,,,,,
,0,f,1,0.623,14,3,59,0,1,f.PNG,f,5f1b2a0146ce431186055813,2021-10-19_20h15.32.022,forced_choiceRT,2021.1.2,Win32,59.89458553,,,,,,,,,,,,,,,,,,,,,,
,,,,,,,,,,,,5f1b2a0146ce431186055813,2021-10-19_20h15.32.022,forced_choiceRT,2021.1.2,Win32,59.89458553,j,5.0972,0,0,0,0,1,,,,,,,,,,,,,,,
,,,,,,,,,,,,5f1b2a0146ce431186055813,2021-10-19_20h15.32.022,forced_choiceRT,2021.1.2,Win32,59.89458553,h,2.209,1,0,1,0,1,,,,,,,,,,,,,,,
,,,,,,,,,,,,5f1b2a0146ce431186055813,2021-10-19_20h15.32.022,forced_choiceRT,2021.1.2,Win32,59.89458553,j,0.6979,2,0,2,0,1,,,,,,,,,,,,,,,
,,,,,,,,,,,,5f1b2a0146ce431186055813,2021-10-19_20h15.32.022,forced_choiceRT,2021.1.2,Win32,59.89458553,j,0.7685,3,0,3,0,1,,,,,,,,,,,,,,,
,,,,,,,,,,,,5f1b2a0146ce431186055813,2021-10-19_20h15.32.022,forced_choiceRT,2021.1.2,Win32,59.89458553,j,2.1109,4,0,4,0,1,,,,,,,,,,,,,,,
,,,,,,,,,,,,5f1b2a0146ce431186055813,2021-10-19_20h15.32.022,forced_choiceRT,2021.1.2,Win32,59.89458553,j,1.4533,5,0,5,0,1,,,,,,,,,,,,,,,
,,,,,,,,,,,,5f1b2a0146ce431186055813,2021-10-19_20h15.32.022,forced_choiceRT,2021.1.2,Win32,59.89458553,j,2.1044,6,0,6,0,1,,,,,,,,,,,,,,,
,,,,,,,,,,,,5f1b2a0146ce431186055813,2021-10-19_20h15.32.022,forced_choiceRT,2021.1.2,Win32,59.89458553,j,2.0042,7,0,7,0,1,,,,,,,,,,,,,,,
,,,,,,,,,,,,5f1b2a0146ce431186055813,2021-10-19_20h15.32.022,forced_choiceRT,2021.1.2,Win32,59.89458553,j,1.979,8,0,8,0,1,,,,,,,,,,,,,,,
,,,,,,,,,,,,5f1b2a0146ce431186055813,2021-10-19_20h15.32.022,forced_choiceRT,2021.1.2,Win32,59.89458553,f,1.2051,9,0,9,0,1,,,,,,,,,,,,,,,
,,,,,,,,,,,,5f1b2a0146ce431186055813,2021-10-19_20h15.32.022,forced_choiceRT,2021.1.2,Win32,59.89458553,j,1.0397,10,0,10,0,1,,,,,,,,,,,,,,,
,,,,,,,,,,,,5f1b2a0146ce431186055813,2021-10-19_20h15.32.022,forced_choiceRT,2021.1.2,Win32,59.89458553,j,2.0246,11,0,11,0,1,,,,,,,,,,,,,,,
,,,,,,,,,,,,5f1b2a0146ce431186055813,2021-10-19_20h15.32.022,forced_choiceRT,2021.1.2,Win32,59.89458553,f,1.9708,12,0,12,0,1,,,,,,,,,,,,,,,
,,,,,,,,,,,,5f1b2a0146ce431186055813,2021-10-19_20h15.32.022,forced_choiceRT,2021.1.2,Win32,59.89458553,j,2.0118,13,0,13,0,1,,,,,,,,,,,,,,,
,,,,,,,,,,,,5f1b2a0146ce431186055813,2021-10-19_20h15.32.022,forced_choiceRT,2021.1.2,Win32,59.89458553,j,6.3807,14,0,14,0,1,,,,,,,,,,,,,,,
,,,,,,,,,,,,5f1b2a0146ce431186055813,2021-10-19_20h15.32.022,forced_choiceRT,2021.1.2,Win32,59.89458553,j,1.7348,15,0,15,0,1,,,,,,,,,,,,,,,
,,,,,,,,,,,,5f1b2a0146ce431186055813,2021-10-19_20h15.32.022,forced_choiceRT,2021.1.2,Win32,59.89458553,j,2.0596,16,0,16,0,1,,,,,,,,,,,,,,,
,,,,,,,,,,,,5f1b2a0146ce431186055813,2021-10-19_20h15.32.022,forced_choiceRT,2021.1.2,Win32,59.89458553,j,1.5938,17,0,17,0,1,,,,,,,,,,,,,,,
,,,,,,,,,,,,5f1b2a0146ce431186055813,2021-10-19_20h15.32.022,forced_choiceRT,2021.1.2,Win32,59.89458553,j,1.9884,18,0,18,0,1,,,,,,,,,,,,,,,
,,,,,,,,,,,,5f1b2a0146ce431186055813,2021-10-19_20h15.32.022,forced_choiceRT,2021.1.2,Win32,59.89458553,j,2.014,19,0,19,0,1,,,,,,,,,,,,,,,
,0.52,,,,,,,,,h.PNG,h,5f1b2a0146ce431186055813,2021-10-19_20h15.32.022,forced_choiceRT,2021.1.2,Win32,59.89458553,,,,,,,,1,Slow,j,0,2.112,0,0,0,2,1,,,,,
,1.72,,,,,,,,,h.PNG,h,5f1b2a0146ce431186055813,2021-10-19_20h15.32.022,forced_choiceRT,2021.1.2,Win32,59.89458553,,,,,,,,1,Ontime,j,0,2.043,0,1,1,2,1,,,,,
,0.38,,,,,,,,,j.PNG,j,5f1b2a0146ce431186055813,2021-10-19_20h15.32.022,forced_choiceRT,2021.1.2,Win32,59.89458553,,,,,,,,1,Ontime,j,1,2.0166,0,2,2,3,1,,,,,
,0.33,,,,,,,,,j.PNG,j,5f1b2a0146ce431186055813,2021-10-19_20h15.32.022,forced_choiceRT,2021.1.2,Win32,59.89458553,,,,,,,,1,Ontime,j,1,2.0551,0,3,3,3,1,,,,,
,1.62,,,,,,,,,f.PNG,f,5f1b2a0146ce431186055813,2021-10-19_20h15.32.022,forced_choiceRT,2021.1.2,Win32,59.89458553,,,,,,,,1,Slow,f,1,2.2049,1,0,4,0,1,,,,,
,0.45,,,,,,,,,j.PNG,j,5f1b2a0146ce431186055813,2021-10-19_20h15.32.022,forced_choiceRT,2021.1.2,Win32,59.89458553,,,,,,,,1,Ontime,j,1,2.0679,1,1,5,3,1,,,,,
,1.92,,,,,,,,,j.PNG,j,5f1b2a0146ce431186055813,2021-10-19_20h15.32.022,forced_choiceRT,2021.1.2,Win32,59.89458553,,,,,,,,1,Slow,f,0,2.2814,1,2,6,3,1,,,,,
,1.72,,,,,,,,,f.PNG,f,5f1b2a0146ce431186055813,2021-10-19_20h15.32.022,forced_choiceRT,2021.1.2,Win32,59.89458553,,,,,,,,1,Slow,f,1,2.2848,1,3,7,0,1,,,,,
,1.41,,,,,,,,,g.PNG,g,5f1b2a0146ce431186055813,2021-10-19_20h15.32.022,forced_choiceRT,2021.1.2,Win32,59.89458553,,,,,,,,1,Ontime,f,0,1.9927,2,0,8,1,1,,,,,
,0.94,,,,,,,,,f.PNG,f,5f1b2a0146ce431186055813,2021-10-19_20h15.32.022,forced_choiceRT,2021.1.2,Win32,59.89458553,,,,,,,,1,Ontime,f,1,2.0479,2,1,9,0,1,,,,,
,1.04,,,,,,,,,g.PNG,g,5f1b2a0146ce431186055813,2021-10-19_20h15.32.022,forced_choiceRT,2021.1.2,Win32,59.89458553,,,,,,,,1,Slow,g,1,2.3096,2,2,10,1,1,,,,,
,0.75,,,,,,,,,j.PNG,j,5f1b2a0146ce431186055813,2021-10-19_20h15.32.022,forced_choiceRT,2021.1.2,Win32,59.89458553,,,,,,,,1,Ontime,j,1,2.064,2,3,11,3,1,,,,,
,0.52,,,,,,,,,g.PNG,g,5f1b2a0146ce431186055813,2021-10-19_20h15.32.022,forced_choiceRT,2021.1.2,Win32,59.89458553,,,,,,,,1,Ontime,g,1,1.9888,3,0,12,1,1,,,,,
,1.68,,,,,,,,,h.PNG,h,5f1b2a0146ce431186055813,2021-10-19_20h15.32.022,forced_choiceRT,2021.1.2,Win32,59.89458553,,,,,,,,1,Slow,g,0,2.2524,3,1,13,2,1,,,,,
,1.44,,,,,,,,,j.PNG,j,5f1b2a0146ce431186055813,2021-10-19_20h15.32.022,forced_choiceRT,2021.1.2,Win32,59.89458553,,,,,,,,1,Ontime,j,1,2.0981,3,2,14,3,1,,,,,
,1.69,,,,,,,,,f.PNG,f,5f1b2a0146ce431186055813,2021-10-19_20h15.32.022,forced_choiceRT,2021.1.2,Win32,59.89458553,,,,,,,,1,Slow,g,0,2.2698,3,3,15,0,1,,,,,
,0.99,,,,,,,,,j.PNG,j,5f1b2a0146ce431186055813,2021-10-19_20h15.32.022,forced_choiceRT,2021.1.2,Win32,59.89458553,,,,,,,,1,Ontime,j,1,1.971,4,0,16,3,1,,,,,
,1.27,,,,,,,,,g.PNG,g,5f1b2a0146ce431186055813,2021-10-19_20h15.32.022,forced_choiceRT,2021.1.2,Win32,59.89458553,,,,,,,,1,Ontime,g,1,2.0752,4,1,17,1,1,,,,,
,1.6,,,,,,,,,f.PNG,f,5f1b2a0146ce431186055813,2021-10-19_20h15.32.022,forced_choiceRT,2021.1.2,Win32,59.89458553,,,,,,,,1,Slow,g,0,2.3275,4,2,18,0,1,,,,,
,0.98,,,,,,,,,f.PNG,f,5f1b2a0146ce431186055813,2021-10-19_20h15.32.022,forced_choiceRT,2021.1.2,Win32,59.89458553,,,,,,,,1,Ontime,f,1,2.009,4,3,19,0,1,,,,,
,0.02,,,,,,,,,j.PNG,j,5f1b2a0146ce431186055813,2021-10-19_20h15.32.022,forced_choiceRT,2021.1.2,Win32,59.89458553,,,,,,,,1,Ontime,j,1,1.954,5,0,20,3,1,,,,,
,1.33,,,,,,,,,h.PNG,h,5f1b2a0146ce431186055813,2021-10-19_20h15.32.022,forced_choiceRT,2021.1.2,Win32,59.89458553,,,,,,,,1,Ontime,g,0,2.0256,5,1,21,2,1,,,,,
,1.18,,,,,,,,,f.PNG,f,5f1b2a0146ce431186055813,2021-10-19_20h15.32.022,forced_choiceRT,2021.1.2,Win32,59.89458553,,,,,,,,1,Slow,f,1,2.1119,5,2,22,0,1,,,,,
,1.63,,,,,,,,,f.PNG,f,5f1b2a0146ce431186055813,2021-10-19_20h15.32.022,forced_choiceRT,2021.1.2,Win32,59.89458553,,,,,,,,1,Slow,f,1,2.1547,5,3,23,0,1,,,,,
,0.29,,,,,,,,,f.PNG,f,5f1b2a0146ce431186055813,2021-10-19_20h15.32.022,forced_choiceRT,2021.1.2,Win32,59.89458553,,,,,,,,1,Ontime,f,1,1.996,6,0,24,0,1,,,,,
,0.16,,,,,,,,,h.PNG,h,5f1b2a0146ce431186055813,2021-10-19_20h15.32.022,forced_choiceRT,2021.1.2,Win32,59.89458553,,,,,,,,1,Ontime,h,1,1.9877,6,1,25,2,1,,,,,
,0.2,,,,,,,,,g.PNG,g,5f1b2a0146ce431186055813,2021-10-19_20h15.32.022,forced_choiceRT,2021.1.2,Win32,59.89458553,,,,,,,,1,Ontime,g,1,1.9792,6,2,26,1,1,,,,,
,1.95,,,,,,,,,g.PNG,g,5f1b2a0146ce431186055813,2021-10-19_20h15.32.022,forced_choiceRT,2021.1.2,Win32,59.89458553,,,,,,,,1,Slow,j,0,2.2045,6,3,27,1,1,,,,,
,0.48,,,,,,,,,h.PNG,h,5f1b2a0146ce431186055813,2021-10-19_20h15.32.022,forced_choiceRT,2021.1.2,Win32,59.89458553,,,,,,,,1,Ontime,h,1,2.0026,7,0,28,2,1,,,,,
,1,,,,,,,,,h.PNG,h,5f1b2a0146ce431186055813,2021-10-19_20h15.32.022,forced_choiceRT,2021.1.2,Win32,59.89458553,,,,,,,,1,Ontime,h,1,2.0822,7,1,29,2,1,,,,,
,0.44,,,,,,,,,h.PNG,h,5f1b2a0146ce431186055813,2021-10-19_20h15.32.022,forced_choiceRT,2021.1.2,Win32,59.89458553,,,,,,,,1,Ontime,h,1,1.9827,7,2,30,2,1,,,,,
,0.03,,,,,,,,,g.PNG,g,5f1b2a0146ce431186055813,2021-10-19_20h15.32.022,forced_choiceRT,2021.1.2,Win32,59.89458553,,,,,,,,1,Ontime,g,1,1.9709,7,3,31,1,1,,,,,
,0.08,,,,,,,,,h.PNG,h,5f1b2a0146ce431186055813,2021-10-19_20h15.32.022,forced_choiceRT,2021.1.2,Win32,59.89458553,,,,,,,,1,Ontime,h,1,2.016,8,0,32,2,1,,,,,
,1.98,,,,,,,,,j.PNG,j,5f1b2a0146ce431186055813,2021-10-19_20h15.32.022,forced_choiceRT,2021.1.2,Win32,59.89458553,,,,,,,,1,Slow,j,1,2.1747,8,1,33,3,1,,,,,
,1.25,,,,,,,,,j.PNG,j,5f1b2a0146ce431186055813,2021-10-19_20h15.32.022,forced_choiceRT,2021.1.2,Win32,59.89458553,,,,,,,,1,Slow,j,1,2.1042,8,2,34,3,1,,,,,
,1.89,,,,,,,,,g.PNG,g,5f1b2a0146ce431186055813,2021-10-19_20h15.32.022,forced_choiceRT,2021.1.2,Win32,59.89458553,,,,,,,,1,Slow,j,0,2.2105,8,3,35,1,1,,,,,
,1.34,,,,,,,,,g.PNG,g,5f1b2a0146ce431186055813,2021-10-19_20h15.32.022,forced_choiceRT,2021.1.2,Win32,59.89458553,,,,,,,,1,Ontime,g,1,2.0326,9,0,36,1,1,,,,,
,1.35,,,,,,,,,g.PNG,g,5f1b2a0146ce431186055813,2021-10-19_20h15.32.022,forced_choiceRT,2021.1.2,Win32,59.89458553,,,,,,,,1,Ontime,g,1,2.0067,9,1,37,1,1,,,,,
,0.79,,,,,,,,,f.PNG,f,5f1b2a0146ce431186055813,2021-10-19_20h15.32.022,forced_choiceRT,2021.1.2,Win32,59.89458553,,,,,,,,1,Ontime,f,1,2.0043,9,2,38,0,1,,,,,
,1.24,,,,,,,,,h.PNG,h,5f1b2a0146ce431186055813,2021-10-19_20h15.32.022,forced_choiceRT,2021.1.2,Win32,59.89458553,,,,,,,,1,Ontime,j,0,2.0611,9,3,39,2,1,,,,,
,,,,,,,,,,,,5f1b2a0146ce431186055813,2021-10-19_20h15.32.022,forced_choiceRT,2021.1.2,Win32,59.89458553,,,,,,,,,,,,,,,,,,0,0,0,0,1
,1.89,,,,,,,,,g.PNG,g,5f1b2a0146ce431186055813,2021-10-19_20h15.32.022,forced_choiceRT,2021.1.2,Win32,59.89458553,,,,,,,,2,Slow,f,0,2.3541,0,0,0,1,1,,,,,
,0.05,,,,,,,,,j.PNG,j,5f1b2a0146ce431186055813,2021-10-19_20h15.32.022,forced_choiceRT,2021.1.2,Win32,59.89458553,,,,,,,,2,Ontime,j,1,2.0413,0,1,1,3,1,,,,,
,0.71,,,,,,,,,h.PNG,h,5f1b2a0146ce431186055813,2021-10-19_20h15.32.022,forced_choiceRT,2021.1.2,Win32,59.89458553,,,,,,,,2,Slow,h,1,2.135,0,2,2,2,1,,,,,
,0.19,,,,,,,,,j.PNG,j,5f1b2a0146ce431186055813,2021-10-19_20h15.32.022,forced_choiceRT,2021.1.2,Win32,59.89458553,,,,,,,,2,Ontime,j,1,2.0097,0,3,3,3,1,,,,,
,0.8,,,,,,,,,f.PNG,f,5f1b2a0146ce431186055813,2021-10-19_20h15.32.022,forced_choiceRT,2021.1.2,Win32,59.89458553,,,,,,,,2,Ontime,f,1,1.93,1,0,4,0,1,,,,,
,0.29,,,,,,,,,g.PNG,g,5f1b2a0146ce431186055813,2021-10-19_20h15.32.022,forced_choiceRT,2021.1.2,Win32,59.89458553,,,,,,,,2,Ontime,g,1,2.0288,1,1,5,1,1,,,,,
,0.95,,,,,,,,,f.PNG,f,5f1b2a0146ce431186055813,2021-10-19_20h15.32.022,forced_choiceRT,2021.1.2,Win32,59.89458553,,,,,,,,2,Ontime,f,1,1.9399,1,2,6,0,1,,,,,
,0.81,,,,,,,,,f.PNG,f,5f1b2a0146ce431186055813,2021-10-19_20h15.32.022,forced_choiceRT,2021.1.2,Win32,59.89458553,,,,,,,,2,Ontime,f,1,1.9338,1,3,7,0,1,,,,,
,1.49,,,,,,,,,h.PNG,h,5f1b2a0146ce431186055813,2021-10-19_20h15.32.022,forced_choiceRT,2021.1.2,Win32,59.89458553,,,,,,,,2,Slow,j,0,2.2173,2,0,8,2,1,,,,,
,1.26,,,,,,,,,g.PNG,g,5f1b2a0146ce431186055813,2021-10-19_20h15.32.022,forced_choiceRT,2021.1.2,Win32,59.89458553,,,,,,,,2,Ontime,g,1,2.0327,2,1,9,1,1,,,,,
,0.71,,,,,,,,,g.PNG,g,5f1b2a0146ce431186055813,2021-10-19_20h15.32.022,forced_choiceRT,2021.1.2,Win32,59.89458553,,,,,,,,2,Ontime,g,1,2.0073,2,2,10,1,1,,,,,
,0.2,,,,,,,,,f.PNG,f,5f1b2a0146ce431186055813,2021-10-19_20h15.32.022,forced_choiceRT,2021.1.2,Win32,59.89458553,,,,,,,,2,Ontime,f,1,1.9673,2,3,11,0,1,,,,,
,1.13,,,,,,,,,h.PNG,h,5f1b2a0146ce431186055813,2021-10-19_20h15.32.022,forced_choiceRT,2021.1.2,Win32,59.89458553,,,,,,,,2,Ontime,h,1,2.0007,3,0,12,2,1,,,,,
,0.04,,,,,,,,,g.PNG,g,5f1b2a0146ce431186055813,2021-10-19_20h15.32.022,forced_choiceRT,2021.1.2,Win32,59.89458553,,,,,,,,2,Ontime,g,1,1.9436,3,1,13,1,1,,,,,
,1.25,,,,,,,,,f.PNG,f,5f1b2a0146ce431186055813,2021-10-19_20h15.32.022,forced_choiceRT,2021.1.2,Win32,59.89458553,,,,,,,,2,Slow,f,1,2.1158,3,2,14,0,1,,,,,
,0.67,,,,,,,,,g.PNG,g,5f1b2a0146ce431186055813,2021-10-19_20h15.32.022,forced_choiceRT,2021.1.2,Win32,59.89458553,,,,,,,,2,Ontime,g,1,1.9747,3,3,15,1,1,,,,,
,1.23,,,,,,,,,g.PNG,g,5f1b2a0146ce431186055813,2021-10-19_20h15.32.022,forced_choiceRT,2021.1.2,Win32,59.89458553,,,,,,,,2,Ontime,g,1,1.9036,4,0,16,1,1,,,,,
,0.03,,,,,,,,,j.PNG,j,5f1b2a0146ce431186055813,2021-10-19_20h15.32.022,forced_choiceRT,2021.1.2,Win32,59.89458553,,,,,,,,2,Ontime,j,1,2.0437,4,1,17,3,1,,,,,
,0.29,,,,,,,,,j.PNG,j,5f1b2a0146ce431186055813,2021-10-19_20h15.32.022,forced_choiceRT,2021.1.2,Win32,59.89458553,,,,,,,,2,Ontime,j,1,1.9619,4,2,18,3,1,,,,,
,0.44,,,,,,,,,j.PNG,j,5f1b2a0146ce431186055813,2021-10-19_20h15.32.022,forced_choiceRT,2021.1.2,Win32,59.89458553,,,,,,,,2,Ontime,j,1,1.9074,4,3,19,3,1,,,,,
,1.42,,,,,,,,,f.PNG,f,5f1b2a0146ce431186055813,2021-10-19_20h15.32.022,forced_choiceRT,2021.1.2,Win32,59.89458553,,,,,,,,2,Ontime,g,0,1.9353,5,0,20,0,1,,,,,
,1.19,,,,,,,,,h.PNG,h,5f1b2a0146ce431186055813,2021-10-19_20h15.32.022,forced_choiceRT,2021.1.2,Win32,59.89458553,,,,,,,,2,Ontime,h,1,1.9383,5,1,21,2,1,,,,,
,0.99,,,,,,,,,f.PNG,f,5f1b2a0146ce431186055813,2021-10-19_20h15.32.022,forced_choiceRT,2021.1.2,Win32,59.89458553,,,,,,,,2,Ontime,f,1,1.9578,5,2,22,0,1,,,,,
,1.3,,,,,,,,,j.PNG,j,5f1b2a0146ce431186055813,2021-10-19_20h15.32.022,forced_choiceRT,2021.1.2,Win32,59.89458553,,,,,,,,2,Ontime,j,1,1.9509,5,3,23,3,1,,,,,
,0.16,,,,,,,,,j.PNG,j,5f1b2a0146ce431186055813,2021-10-19_20h15.32.022,forced_choiceRT,2021.1.2,Win32,59.89458553,,,,,,,,2,Ontime,j,1,1.9127,6,0,24,3,1,,,,,
,1.85,,,,,,,,,j.PNG,j,5f1b2a0146ce431186055813,2021-10-19_20h15.32.022,forced_choiceRT,2021.1.2,Win32,59.89458553,,,,,,,,2,Slow,j,1,2.205,6,1,25,3,1,,,,,
,0.66,,,,,,,,,h.PNG,h,5f1b2a0146ce431186055813,2021-10-19_20h15.32.022,forced_choiceRT,2021.1.2,Win32,59.89458553,,,,,,,,2,Ontime,h,1,2.0285,6,2,26,2,1,,,,,
,1.1,,,,,,,,,f.PNG,f,5f1b2a0146ce431186055813,2021-10-19_20h15.32.022,forced_choiceRT,2021.1.2,Win32,59.89458553,,,,,,,,2,Ontime,f,1,1.9869,6,3,27,0,1,,,,,
,1.98,,,,,,,,,j.PNG,j,5f1b2a0146ce431186055813,2021-10-19_20h15.32.022,forced_choiceRT,2021.1.2,Win32,59.89458553,,,,,,,,2,Ontime,j,1,2.0912,7,0,28,3,1,,,,,
,0.53,,,,,,,,,f.PNG,f,5f1b2a0146ce431186055813,2021-10-19_20h15.32.022,forced_choiceRT,2021.1.2,Win32,59.89458553,,,,,,,,2,Ontime,f,1,1.9835,7,1,29,0,1,,,,,
,0.32,,,,,,,,,h.PNG,h,5f1b2a0146ce431186055813,2021-10-19_20h15.32.022,forced_choiceRT,2021.1.2,Win32,59.89458553,,,,,,,,2,Ontime,h,1,1.9365,7,2,30,2,1,,,,,
,1.68,,,,,,,,,g.PNG,g,5f1b2a0146ce431186055813,2021-10-19_20h15.32.022,forced_choiceRT,2021.1.2,Win32,59.89458553,,,,,,,,2,Slow,f,0,3.0507,7,3,31,1,1,,,,,
,1.23,,,,,,,,,h.PNG,h,5f1b2a0146ce431186055813,2021-10-19_20h15.32.022,forced_choiceRT,2021.1.2,Win32,59.89458553,,,,,,,,2,Ontime,h,1,1.9275,8,0,32,2,1,,,,,
,0.33,,,,,,,,,f.PNG,f,5f1b2a0146ce431186055813,2021-10-19_20h15.32.022,forced_choiceRT,2021.1.2,Win32,59.89458553,,,,,,,,2,Fast,f,1,1.8667,8,1,33,0,1,,,,,
,0.12,,,,,,,,,j.PNG,j,5f1b2a0146ce431186055813,2021-10-19_20h15.32.022,forced_choiceRT,2021.1.2,Win32,59.89458553,,,,,,,,2,Ontime,j,1,2.0085,8,2,34,3,1,,,,,
,1.93,,,,,,,,,g.PNG,g,5f1b2a0146ce431186055813,2021-10-19_20h15.32.022,forced_choiceRT,2021.1.2,Win32,59.89458553,,,,,,,,2,Slow,j,0,2.3205,8,3,35,1,1,,,,,
,1.64,,,,,,,,,g.PNG,g,5f1b2a0146ce431186055813,2021-10-19_20h15.32.022,forced_choiceRT,2021.1.2,Win32,59.89458553,,,,,,,,2,Fast,j,0,1.8581,9,0,36,1,1,,,,,
,0.91,,,,,,,,,h.PNG,h,5f1b2a0146ce431186055813,2021-10-19_20h15.32.022,forced_choiceRT,2021.1.2,Win32,59.89458553,,,,,,,,2,Ontime,h,1,1.9844,9,1,37,2,1,,,,,
,0.21,,,,,,,,,h.PNG,h,5f1b2a0146ce431186055813,2021-10-19_20h15.32.022,forced_choiceRT,2021.1.2,Win32,59.89458553,,,,,,,,2,Ontime,h,1,1.9617,9,2,38,2,1,,,,,
,1.61,,,,,,,,,h.PNG,h,5f1b2a0146ce431186055813,2021-10-19_20h15.32.022,forced_choiceRT,2021.1.2,Win32,59.89458553,,,,,,,,2,Slow,g,0,2.2037,9,3,39,2,1,,,,,
,,,,,,,,,,,,5f1b2a0146ce431186055813,2021-10-19_20h15.32.022,forced_choiceRT,2021.1.2,Win32,59.89458553,,,,,,,,,,,,,,,,,,1,0,1,0,1
,1.6,,,,,,,,,f.PNG,f,5f1b2a0146ce431186055813,2021-10-19_20h15.32.022,forced_choiceRT,2021.1.2,Win32,59.89458553,,,,,,,,3,Ontime,f,1,2.0649,0,0,0,0,1,,,,,
,0.77,,,,,,,,,g.PNG,g,5f1b2a0146ce431186055813,2021-10-19_20h15.32.022,forced_choiceRT,2021.1.2,Win32,59.89458553,,,,,,,,3,Ontime,f,0,1.9485,0,1,1,1,1,,,,,
,1.7,,,,,,,,,f.PNG,f,5f1b2a0146ce431186055813,2021-10-19_20h15.32.022,forced_choiceRT,2021.1.2,Win32,59.89458553,,,,,,,,3,Ontime,j,0,1.9989,0,2,2,0,1,,,,,
,0.1,,,,,,,,,j.PNG,j,5f1b2a0146ce431186055813,2021-10-19_20h15.32.022,forced_choiceRT,2021.1.2,Win32,59.89458553,,,,,,,,3,Ontime,j,1,1.9026,0,3,3,3,1,,,,,
,0.68,,,,,,,,,j.PNG,j,5f1b2a0146ce431186055813,2021-10-19_20h15.32.022,forced_choiceRT,2021.1.2,Win32,59.89458553,,,,,,,,3,Ontime,j,1,2.0109,1,0,4,3,1,,,,,
,0,,,,,,,,,h.PNG,h,5f1b2a0146ce431186055813,2021-10-19_20h15.32.022,forced_choiceRT,2021.1.2,Win32,59.89458553,,,,,,,,3,Ontime,h,1,1.9776,1,1,5,2,1,,,,,
,0.94,,,,,,,,,j.PNG,j,5f1b2a0146ce431186055813,2021-10-19_20h15.32.022,forced_choiceRT,2021.1.2,Win32,59.89458553,,,,,,,,3,Ontime,j,1,1.9553,1,2,6,3,1,,,,,
,0.35,,,,,,,,,h.PNG,h,5f1b2a0146ce431186055813,2021-10-19_20h15.32.022,forced_choiceRT,2021.1.2,Win32,59.89458553,,,,,,,,3,Ontime,h,1,1.9574,1,3,7,2,1,,,,,
,0.57,,,,,,,,,h.PNG,h,5f1b2a0146ce431186055813,2021-10-19_20h15.32.022,forced_choiceRT,2021.1.2,Win32,59.89458553,,,,,,,,3,Ontime,h,1,2.0152,2,0,8,2,1,,,,,
,0.98,,,,,,,,,g.PNG,g,5f1b2a0146ce431186055813,2021-10-19_20h15.32.022,forced_choiceRT,2021.1.2,Win32,59.89458553,,,,,,,,3,Ontime,g,1,1.9268,2,1,9,1,1,,,,,
,0.93,,,,,,,,,g.PNG,g,5f1b2a0146ce431186055813,2021-10-19_20h15.32.022,forced_choiceRT,2021.1.2,Win32,59.89458553,,,,,,,,3,Ontime,g,1,2.0021,2,2,10,1,1,,,,,
,0,,,,,,,,,h.PNG,h,5f1b2a0146ce431186055813,2021-10-19_20h15.32.022,forced_choiceRT,2021.1.2,Win32,59.89458553,,,,,,,,3,Fast,h,1,1.8809,2,3,11,2,1,,,,,
,1.68,,,,,,,,,f.PNG,f,5f1b2a0146ce431186055813,2021-10-19_20h15.32.022,forced_choiceRT,2021.1.2,Win32,59.89458553,,,,,,,,3,Ontime,j,0,1.9118,3,0,12,0,1,,,,,
,0.24,,,,,,,,,g.PNG,g,5f1b2a0146ce431186055813,2021-10-19_20h15.32.022,forced_choiceRT,2021.1.2,Win32,59.89458553,,,,,,,,3,Fast,g,1,1.8366,3,1,13,1,1,,,,,
,0.75,,,,,,,,,j.PNG,j,5f1b2a0146ce431186055813,2021-10-19_20h15.32.022,forced_choiceRT,2021.1.2,Win32,59.89458553,,,,,,,,3,Ontime,j,1,2.0262,3,2,14,3,1,,,,,
,1.05,,,,,,,,,h.PNG,h,5f1b2a0146ce431186055813,2021-10-19_20h15.32.022,forced_choiceRT,2021.1.2,Win32,59.89458553,,,,,,,,3,Ontime,h,1,2.0485,3,3,15,2,1,,,,,
,1.4,,,,,,,,,h.PNG,h,5f1b2a0146ce431186055813,2021-10-19_20h15.32.022,forced_choiceRT,2021.1.2,Win32,59.89458553,,,,,,,,3,Ontime,h,1,2.0716,4,0,16,2,1,,,,,
,1.49,,,,,,,,,f.PNG,f,5f1b2a0146ce431186055813,2021-10-19_20h15.32.022,forced_choiceRT,2021.1.2,Win32,59.89458553,,,,,,,,3,Slow,f,1,2.7075,4,1,17,0,1,,,,,
,1.84,,,,,,,,,j.PNG,j,5f1b2a0146ce431186055813,2021-10-19_20h15.32.022,forced_choiceRT,2021.1.2,Win32,59.89458553,,,,,,,,3,Ontime,f,0,2.0381,4,2,18,3,1,,,,,
,1.96,,,,,,,,,j.PNG,j,5f1b2a0146ce431186055813,2021-10-19_20h15.32.022,forced_choiceRT,2021.1.2,Win32,59.89458553,,,,,,,,3,Slow,j,1,2.2124,4,3,19,3,1,,,,,
,0.43,,,,,,,,,g.PNG,g,5f1b2a0146ce431186055813,2021-10-19_20h15.32.022,forced_choiceRT,2021.1.2,Win32,59.89458553,,,,,,,,3,Ontime,g,1,2.0754,5,0,20,1,1,,,,,
,1.35,,,,,,,,,h.PNG,h,5f1b2a0146ce431186055813,2021-10-19_20h15.32.022,forced_choiceRT,2021.1.2,Win32,59.89458553,,,,,,,,3,Ontime,h,1,2.0325,5,1,21,2,1,,,,,
,0,,,,,,,,,f.PNG,f,5f1b2a0146ce431186055813,2021-10-19_20h15.32.022,forced_choiceRT,2021.1.2,Win32,59.89458553,,,,,,,,3,Ontime,f,1,2.0218,5,2,22,0,1,,,,,
,0.42,,,,,,,,,f.PNG,f,5f1b2a0146ce431186055813,2021-10-19_20h15.32.022,forced_choiceRT,2021.1.2,Win32,59.89458553,,,,,,,,3,Ontime,f,1,2.0054,5,3,23,0,1,,,,,
,0.93,,,,,,,,,g.PNG,g,5f1b2a0146ce431186055813,2021-10-19_20h15.32.022,forced_choiceRT,2021.1.2,Win32,59.89458553,,,,,,,,3,Ontime,g,1,2.0608,6,0,24,1,1,,,,,
,1.15,,,,,,,,,g.PNG,g,5f1b2a0146ce431186055813,2021-10-19_20h15.32.022,forced_choiceRT,2021.1.2,Win32,59.89458553,,,,,,,,3,Ontime,g,1,2.0994,6,1,25,1,1,,,,,
,0.27,,,,,,,,,f.PNG,f,5f1b2a0146ce431186055813,2021-10-19_20h15.32.022,forced_choiceRT,2021.1.2,Win32,59.89458553,,,,,,,,3,Fast,f,1,1.8952,6,2,26,0,1,,,,,
,1.56,,,,,,,,,g.PNG,g,5f1b2a0146ce431186055813,2021-10-19_20h15.32.022,forced_choiceRT,2021.1.2,Win32,59.89458553,,,,,,,,3,Ontime,f,0,2.0041,6,3,27,1,1,,,,,
,1.53,,,,,,,,,j.PNG,j,5f1b2a0146ce431186055813,2021-10-19_20h15.32.022,forced_choiceRT,2021.1.2,Win32,59.89458553,,,,,,,,3,Ontime,j,1,1.9797,7,0,28,3,1,,,,,
,0.19,,,,,,,,,j.PNG,j,5f1b2a0146ce431186055813,2021-10-19_20h15.32.022,forced_choiceRT,2021.1.2,Win32,59.89458553,,,,,,,,3,Ontime,j,1,1.9554,7,1,29,3,1,,,,,
,1.1,,,,,,,,,h.PNG,h,5f1b2a0146ce431186055813,2021-10-19_20h15.32.022,forced_choiceRT,2021.1.2,Win32,59.89458553,,,,,,,,3,Ontime,h,1,2.029,7,2,30,2,1,,,,,
,1.85,,,,,,,,,f.PNG,f,5f1b2a0146ce431186055813,2021-10-19_20h15.32.022,forced_choiceRT,2021.1.2,Win32,59.89458553,,,,,,,,3,Ontime,j,0,1.949,7,3,31,0,1,,,,,
,1.27,,,,,,,,,f.PNG,f,5f1b2a0146ce431186055813,2021-10-19_20h15.32.022,forced_choiceRT,2021.1.2,Win32,59.89458553,,,,,,,,3,Ontime,f,1,2.0241,8,0,32,0,1,,,,,
,0.26,,,,,,,,,j.PNG,j,5f1b2a0146ce431186055813,2021-10-19_20h15.32.022,forced_choiceRT,2021.1.2,Win32,59.89458553,,,,,,,,3,Ontime,j,1,2.0146,8,1,33,3,1,,,,,
,0.35,,,,,,,,,f.PNG,f,5f1b2a0146ce431186055813,2021-10-19_20h15.32.022,forced_choiceRT,2021.1.2,Win32,59.89458553,,,,,,,,3,Ontime,g,0,1.9743,8,2,34,0,1,,,,,
,0.89,,,,,,,,,g.PNG,g,5f1b2a0146ce431186055813,2021-10-19_20h15.32.022,forced_choiceRT,2021.1.2,Win32,59.89458553,,,,,,,,3,Ontime,g,1,2.0553,8,3,35,1,1,,,,,
,0.58,,,,,,,,,h.PNG,h,5f1b2a0146ce431186055813,2021-10-19_20h15.32.022,forced_choiceRT,2021.1.2,Win32,59.89458553,,,,,,,,3,Ontime,h,1,2.0674,9,0,36,2,1,,,,,
,0.37,,,,,,,,,h.PNG,h,5f1b2a0146ce431186055813,2021-10-19_20h15.32.022,forced_choiceRT,2021.1.2,Win32,59.89458553,,,,,,,,3,Ontime,h,1,2.0591,9,1,37,2,1,,,,,
,0.87,,,,,,,,,j.PNG,j,5f1b2a0146ce431186055813,2021-10-19_20h15.32.022,forced_choiceRT,2021.1.2,Win32,59.89458553,,,,,,,,3,Ontime,j,1,1.9595,9,2,38,3,1,,,,,
,1.7,,,,,,,,,g.PNG,g,5f1b2a0146ce431186055813,2021-10-19_20h15.32.022,forced_choiceRT,2021.1.2,Win32,59.89458553,,,,,,,,3,Ontime,j,0,1.9608,9,3,39,1,1,,,,,
,,,,,,,,,,,,5f1b2a0146ce431186055813,2021-10-19_20h15.32.022,forced_choiceRT,2021.1.2,Win32,59.89458553,,,,,,,,,,,,,,,,,,2,0,2,0,1
,1.86,,,,,,,,,h.PNG,h,5f1b2a0146ce431186055813,2021-10-19_20h15.32.022,forced_choiceRT,2021.1.2,Win32,59.89458553,,,,,,,,4,Slow,j,0,2.1242,0,0,0,2,1,,,,,
,1.24,,,,,,,,,j.PNG,j,5f1b2a0146ce431186055813,2021-10-19_20h15.32.022,forced_choiceRT,2021.1.2,Win32,59.89458553,,,,,,,,4,Ontime,j,1,2.0356,0,1,1,3,1,,,,,
,0.57,,,,,,,,,h.PNG,h,5f1b2a0146ce431186055813,2021-10-19_20h15.32.022,forced_choiceRT,2021.1.2,Win32,59.89458553,,,,,,,,4,Fast,h,1,1.7943,0,2,2,2,1,,,,,
,0.16,,,,,,,,,h.PNG,h,5f1b2a0146ce431186055813,2021-10-19_20h15.32.022,forced_choiceRT,2021.1.2,Win32,59.89458553,,,,,,,,4,Ontime,h,1,2.0281,0,3,3,2,1,,,,,
,0.93,,,,,,,,,j.PNG,j,5f1b2a0146ce431186055813,2021-10-19_20h15.32.022,forced_choiceRT,2021.1.2,Win32,59.89458553,,,,,,,,4,Ontime,j,1,2.0819,1,0,4,3,1,,,,,
,1.21,,,,,,,,,j.PNG,j,5f1b2a0146ce431186055813,2021-10-19_20h15.32.022,forced_choiceRT,2021.1.2,Win32,59.89458553,,,,,,,,4,Ontime,j,1,2.095,1,1,5,3,1,,,,,
,1.6,,,,,,,,,f.PNG,f,5f1b2a0146ce431186055813,2021-10-19_20h15.32.022,forced_choiceRT,2021.1.2,Win32,59.89458553,,,,,,,,4,Slow,f,1,2.1385,1,2,6,0,1,,,,,
,1.62,,,,,,,,,g.PNG,g,5f1b2a0146ce431186055813,2021-10-19_20h15.32.022,forced_choiceRT,2021.1.2,Win32,59.89458553,,,,,,,,4,Ontime,f,0,2.076,1,3,7,1,1,,,,,
,1.94,,,,,,,,,f.PNG,f,5f1b2a0146ce431186055813,2021-10-19_20h15.32.022,forced_choiceRT,2021.1.2,Win32,59.89458553,,,,,,,,4,Ontime,g,0,2.0417,2,0,8,0,1,,,,,
,0.69,,,,,,,,,h.PNG,h,5f1b2a0146ce431186055813,2021-10-19_20h15.32.022,forced_choiceRT,2021.1.2,Win32,59.89458553,,,,,,,,4,Ontime,h,1,1.9844,2,1,9,2,1,,,,,
,0.56,,,,,,,,,f.PNG,f,5f1b2a0146ce431186055813,2021-10-19_20h15.32.022,forced_choiceRT,2021.1.2,Win32,59.89458553,,,,,,,,4,Ontime,f,1,2.0171,2,2,10,0,1,,,,,
,1.6,,,,,,,,,f.PNG,f,5f1b2a0146ce431186055813,2021-10-19_20h15.32.022,forced_choiceRT,2021.1.2,Win32,59.89458553,,,,,,,,4,Slow,f,1,2.2245,2,3,11,0,1,,,,,
,0.46,,,,,,,,,j.PNG,j,5f1b2a0146ce431186055813,2021-10-19_20h15.32.022,forced_choiceRT,2021.1.2,Win32,59.89458553,,,,,,,,4,Ontime,j,1,2.0084,3,0,12,3,1,,,,,
,0.11,,,,,,,,,g.PNG,g,5f1b2a0146ce431186055813,2021-10-19_20h15.32.022,forced_choiceRT,2021.1.2,Win32,59.89458553,,,,,,,,4,Ontime,h,0,2.0154,3,1,13,1,1,,,,,
,1.42,,,,,,,,,g.PNG,g,5f1b2a0146ce431186055813,2021-10-19_20h15.32.022,forced_choiceRT,2021.1.2,Win32,59.89458553,,,,,,,,4,Ontime,g,1,2.0151,3,2,14,1,1,,,,,
,0.03,,,,,,,,,f.PNG,f,5f1b2a0146ce431186055813,2021-10-19_20h15.32.022,forced_choiceRT,2021.1.2,Win32,59.89458553,,,,,,,,4,Ontime,f,1,2.0467,3,3,15,0,1,,,,,
,0.39,,,,,,,,,h.PNG,h,5f1b2a0146ce431186055813,2021-10-19_20h15.32.022,forced_choiceRT,2021.1.2,Win32,59.89458553,,,,,,,,4,Ontime,h,1,1.9487,4,0,16,2,1,,,,,
,1.03,,,,,,,,,j.PNG,j,5f1b2a0146ce431186055813,2021-10-19_20h15.32.022,forced_choiceRT,2021.1.2,Win32,59.89458553,,,,,,,,4,Ontime,j,1,1.9748,4,1,17,3,1,,,,,
,1.13,,,,,,,,,j.PNG,j,5f1b2a0146ce431186055813,2021-10-19_20h15.32.022,forced_choiceRT,2021.1.2,Win32,59.89458553,,,,,,,,4,Ontime,j,1,2.0322,4,2,18,3,1,,,,,
,0.74,,,,,,,,,f.PNG,f,5f1b2a0146ce431186055813,2021-10-19_20h15.32.022,forced_choiceRT,2021.1.2,Win32,59.89458553,,,,,,,,4,Ontime,f,1,2.0146,4,3,19,0,1,,,,,
,0.91,,,,,,,,,h.PNG,h,5f1b2a0146ce431186055813,2021-10-19_20h15.32.022,forced_choiceRT,2021.1.2,Win32,59.89458553,,,,,,,,4,Slow,h,1,2.1342,5,0,20,2,1,,,,,
,0.58,,,,,,,,,j.PNG,j,5f1b2a0146ce431186055813,2021-10-19_20h15.32.022,forced_choiceRT,2021.1.2,Win32,59.89458553,,,,,,,,4,Ontime,j,1,1.9852,5,1,21,3,1,,,,,
,0.97,,,,,,,,,h.PNG,h,5f1b2a0146ce431186055813,2021-10-19_20h15.32.022,forced_choiceRT,2021.1.2,Win32,59.89458553,,,,,,,,4,Ontime,h,1,2.0343,5,2,22,2,1,,,,,
,0.19,,,,,,,,,g.PNG,g,5f1b2a0146ce431186055813,2021-10-19_20h15.32.022,forced_choiceRT,2021.1.2,Win32,59.89458553,,,,,,,,4,Ontime,g,1,1.9613,5,3,23,1,1,,,,,
,0.08,,,,,,,,,j.PNG,j,5f1b2a0146ce431186055813,2021-10-19_20h15.32.022,forced_choiceRT,2021.1.2,Win32,59.89458553,,,,,,,,4,Ontime,j,1,1.9549,6,0,24,3,1,,,,,
,1.99,,,,,,,,,f.PNG,f,5f1b2a0146ce431186055813,2021-10-19_20h15.32.022,forced_choiceRT,2021.1.2,Win32,59.89458553,,,,,,,,4,Slow,f,1,2.2924,6,1,25,0,1,,,,,
,0.05,,,,,,,,,g.PNG,g,5f1b2a0146ce431186055813,2021-10-19_20h15.32.022,forced_choiceRT,2021.1.2,Win32,59.89458553,,,,,,,,4,Ontime,g,1,2.0479,6,2,26,1,1,,,,,
,1.09,,,,,,,,,g.PNG,g,5f1b2a0146ce431186055813,2021-10-19_20h15.32.022,forced_choiceRT,2021.1.2,Win32,59.89458553,,,,,,,,4,Ontime,g,1,1.9825,6,3,27,1,1,,,,,
,1.79,,,,,,,,,j.PNG,j,5f1b2a0146ce431186055813,2021-10-19_20h15.32.022,forced_choiceRT,2021.1.2,Win32,59.89458553,,,,,,,,4,Slow,j,1,2.2878,7,0,28,3,1,,,,,
,1.73,,,,,,,,,g.PNG,g,5f1b2a0146ce431186055813,2021-10-19_20h15.32.022,forced_choiceRT,2021.1.2,Win32,59.89458553,,,,,,,,4,Slow,j,0,2.2268,7,1,29,1,1,,,,,
,1.88,,,,,,,,,h.PNG,h,5f1b2a0146ce431186055813,2021-10-19_20h15.32.022,forced_choiceRT,2021.1.2,Win32,59.89458553,,,,,,,,4,Slow,j,0,2.1541,7,2,30,2,1,,,,,
,1.05,,,,,,,,,f.PNG,f,5f1b2a0146ce431186055813,2021-10-19_20h15.32.022,forced_choiceRT,2021.1.2,Win32,59.89458553,,,,,,,,4,Ontime,f,1,1.9629,7,3,31,0,1,,,,,
,1.12,,,,,,,,,h.PNG,h,5f1b2a0146ce431186055813,2021-10-19_20h15.32.022,forced_choiceRT,2021.1.2,Win32,59.89458553,,,,,,,,4,Ontime,h,1,1.989,8,0,32,2,1,,,,,
,1.88,,,,,,,,,f.PNG,f,5f1b2a0146ce431186055813,2021-10-19_20h15.32.022,forced_choiceRT,2021.1.2,Win32,59.89458553,,,,,,,,4,Slow,j,0,2.1335,8,1,33,0,1,,,,,
,1.22,,,,,,,,,g.PNG,g,5f1b2a0146ce431186055813,2021-10-19_20h15.32.022,forced_choiceRT,2021.1.2,Win32,59.89458553,,,,,,,,4,Ontime,g,1,2.048,8,2,34,1,1,,,,,
,1.16,,,,,,,,,g.PNG,g,5f1b2a0146ce431186055813,2021-10-19_20h15.32.022,forced_choiceRT,2021.1.2,Win32,59.89458553,,,,,,,,4,Ontime,g,1,1.9979,8,3,35,1,1,,,,,
,0.14,,,,,,,,,j.PNG,j,5f1b2a0146ce431186055813,2021-10-19_20h15.32.022,forced_choiceRT,2021.1.2,Win32,59.89458553,,,,,,,,4,Ontime,j,1,1.9347,9,0,36,3,1,,,,,
,1.65,,,,,,,,,g.PNG,g,5f1b2a0146ce431186055813,2021-10-19_20h15.32.022,forced_choiceRT,2021.1.2,Win32,59.89458553,,,,,,,,4,Slow,g,1,2.2256,9,1,37,1,1,,,,,
,0.51,,,,,,,,,h.PNG,h,5f1b2a0146ce431186055813,2021-10-19_20h15.32.022,forced_choiceRT,2021.1.2,Win32,59.89458553,,,,,,,,4,Ontime,h,1,2.0244,9,2,38,2,1,,,,,
,0.03,,,,,,,,,f.PNG,f,5f1b2a0146ce431186055813,2021-10-19_20h15.32.022,forced_choiceRT,2021.1.2,Win32,59.89458553,,,,,,,,4,Ontime,f,1,1.9598,9,3,39,0,1,,,,,
,,,,,,,,,,,,5f1b2a0146ce431186055813,2021-10-19_20h15.32.022,forced_choiceRT,2021.1.2,Win32,59.89458553,,,,,,,,,,,,,,,,,,3,0,3,0,1
,1.23,,,,,,,,,h.PNG,h,5f1b2a0146ce431186055813,2021-10-19_20h15.32.022,forced_choiceRT,2021.1.2,Win32,59.89458553,,,,,,,,5,Ontime,h,1,2.0245,0,0,0,2,1,,,,,
,0.14,,,,,,,,,j.PNG,j,5f1b2a0146ce431186055813,2021-10-19_20h15.32.022,forced_choiceRT,2021.1.2,Win32,59.89458553,,,,,,,,5,Ontime,j,1,1.9382,0,1,1,3,1,,,,,
,0.81,,,,,,,,,f.PNG,f,5f1b2a0146ce431186055813,2021-10-19_20h15.32.022,forced_choiceRT,2021.1.2,Win32,59.89458553,,,,,,,,5,Ontime,f,1,2.0377,0,2,2,0,1,,,,,
,0.12,,,,,,,,,f.PNG,f,5f1b2a0146ce431186055813,2021-10-19_20h15.32.022,forced_choiceRT,2021.1.2,Win32,59.89458553,,,,,,,,5,Ontime,f,1,2.0197,0,3,3,0,1,,,,,
,1.27,,,,,,,,,j.PNG,j,5f1b2a0146ce431186055813,2021-10-19_20h15.32.022,forced_choiceRT,2021.1.2,Win32,59.89458553,,,,,,,,5,Slow,j,1,2.106,1,0,4,3,1,,,,,
,0.65,,,,,,,,,h.PNG,h,5f1b2a0146ce431186055813,2021-10-19_20h15.32.022,forced_choiceRT,2021.1.2,Win32,59.89458553,,,,,,,,5,Ontime,h,1,2.0216,1,1,5,2,1,,,,,
,0.78,,,,,,,,,g.PNG,g,5f1b2a0146ce431186055813,2021-10-19_20h15.32.022,forced_choiceRT,2021.1.2,Win32,59.89458553,,,,,,,,5,Ontime,g,1,2.0283,1,2,6,1,1,,,,,
,1.99,,,,,,,,,f.PNG,f,5f1b2a0146ce431186055813,2021-10-19_20h15.32.022,forced_choiceRT,2021.1.2,Win32,59.89458553,,,,,,,,5,Ontime,j,0,1.9952,1,3,7,0,1,,,,,
,0.85,,,,,,,,,j.PNG,j,5f1b2a0146ce431186055813,2021-10-19_20h15.32.022,forced_choiceRT,2021.1.2,Win32,59.89458553,,,,,,,,5,Ontime,j,1,1.9957,2,0,8,3,1,,,,,
,0.23,,,,,,,,,g.PNG,g,5f1b2a0146ce431186055813,2021-10-19_20h15.32.022,forced_choiceRT,2021.1.2,Win32,59.89458553,,,,,,,,5,Ontime,g,1,2.02,2,1,9,1,1,,,,,
,1.88,,,,,,,,,h.PNG,h,5f1b2a0146ce431186055813,2021-10-19_20h15.32.022,forced_choiceRT,2021.1.2,Win32,59.89458553,,,,,,,,5,Ontime,j,0,1.9303,2,2,10,2,1,,,,,
,1.98,,,,,,,,,h.PNG,h,5f1b2a0146ce431186055813,2021-10-19_20h15.32.022,forced_choiceRT,2021.1.2,Win32,59.89458553,,,,,,,,5,Slow,j,0,2.1034,2,3,11,2,1,,,,,
,0.74,,,,,,,,,g.PNG,g,5f1b2a0146ce431186055813,2021-10-19_20h15.32.022,forced_choiceRT,2021.1.2,Win32,59.89458553,,,,,,,,5,Ontime,g,1,1.9223,3,0,12,1,1,,,,,
,1.24,,,,,,,,,j.PNG,j,5f1b2a0146ce431186055813,2021-10-19_20h15.32.022,forced_choiceRT,2021.1.2,Win32,59.89458553,,,,,,,,5,Ontime,j,1,1.9653,3,1,13,3,1,,,,,
,0.44,,,,,,,,,j.PNG,j,5f1b2a0146ce431186055813,2021-10-19_20h15.32.022,forced_choiceRT,2021.1.2,Win32,59.89458553,,,,,,,,5,Ontime,j,1,1.9433,3,2,14,3,1,,,,,
,1.09,,,,,,,,,f.PNG,f,5f1b2a0146ce431186055813,2021-10-19_20h15.32.022,forced_choiceRT,2021.1.2,Win32,59.89458553,,,,,,,,5,Ontime,f,1,2.0095,3,3,15,0,1,,,,,
,1.96,,,,,,,,,f.PNG,f,5f1b2a0146ce431186055813,2021-10-19_20h15.32.022,forced_choiceRT,2021.1.2,Win32,59.89458553,,,,,,,,5,Ontime,j,0,1.9712,4,0,16,0,1,,,,,
,0.83,,,,,,,,,g.PNG,g,5f1b2a0146ce431186055813,2021-10-19_20h15.32.022,forced_choiceRT,2021.1.2,Win32,59.89458553,,,,,,,,5,Ontime,g,1,2.0261,4,1,17,1,1,,,,,
,1.96,,,,,,,,,f.PNG,f,5f1b2a0146ce431186055813,2021-10-19_20h15.32.022,forced_choiceRT,2021.1.2,Win32,59.89458553,,,,,,,,5,Ontime,j,0,1.9608,4,2,18,0,1,,,,,
,0.89,,,,,,,,,g.PNG,g,5f1b2a0146ce431186055813,2021-10-19_20h15.32.022,forced_choiceRT,2021.1.2,Win32,59.89458553,,,,,,,,5,Ontime,g,1,2.0589,4,3,19,1,1,,,,,
,1.76,,,,,,,,,g.PNG,g,5f1b2a0146ce431186055813,2021-10-19_20h15.32.022,forced_choiceRT,2021.1.2,Win32,59.89458553,,,,,,,,5,Ontime,j,0,2.0241,5,0,20,1,1,,,,,
,0.2,,,,,,,,,h.PNG,h,5f1b2a0146ce431186055813,2021-10-19_20h15.32.022,forced_choiceRT,2021.1.2,Win32,59.89458553,,,,,,,,5,Ontime,h,1,2.0554,5,1,21,2,1,,,,,
,0.16,,,,,,,,,f.PNG,f,5f1b2a0146ce431186055813,2021-10-19_20h15.32.022,forced_choiceRT,2021.1.2,Win32,59.89458553,,,,,,,,5,Ontime,f,1,1.9726,5,2,22,0,1,,,,,
,0.01,,,,,,,,,j.PNG,j,5f1b2a0146ce431186055813,2021-10-19_20h15.32.022,forced_choiceRT,2021.1.2,Win32,59.89458553,,,,,,,,5,Ontime,j,1,2.0055,5,3,23,3,1,,,,,
,1.54,,,,,,,,,f.PNG,f,5f1b2a0146ce431186055813,2021-10-19_20h15.32.022,forced_choiceRT,2021.1.2,Win32,59.89458553,,,,,,,,5,Ontime,f,1,2.0533,6,0,24,0,1,,,,,
,1.6,,,,,,,,,j.PNG,j,5f1b2a0146ce431186055813,2021-10-19_20h15.32.022,forced_choiceRT,2021.1.2,Win32,59.89458553,,,,,,,,5,Ontime,j,1,2.0653,6,1,25,3,1,,,,,
,1.83,,,,,,,,,h.PNG,h,5f1b2a0146ce431186055813,2021-10-19_20h15.32.022,forced_choiceRT,2021.1.2,Win32,59.89458553,,,,,,,,5,Slow,f,0,2.1527,6,2,26,2,1,,,,,
,1.18,,,,,,,,,f.PNG,f,5f1b2a0146ce431186055813,2021-10-19_20h15.32.022,forced_choiceRT,2021.1.2,Win32,59.89458553,,,,,,,,5,Ontime,f,1,2.0341,6,3,27,0,1,,,,,
,1.55,,,,,,,,,g.PNG,g,5f1b2a0146ce431186055813,2021-10-19_20h15.32.022,forced_choiceRT,2021.1.2,Win32,59.89458553,,,,,,,,5,Ontime,g,1,2.0094,7,0,28,1,1,,,,,
,0.52,,,,,,,,,g.PNG,g,5f1b2a0146ce431186055813,2021-10-19_20h15.32.022,forced_choiceRT,2021.1.2,Win32,59.89458553,,,,,,,,5,Ontime,g,1,2.041,7,1,29,1,1,,,,,
,0.07,,,,,,,,,h.PNG,h,5f1b2a0146ce431186055813,2021-10-19_20h15.32.022,forced_choiceRT,2021.1.2,Win32,59.89458553,,,,,,,,5,Ontime,h,1,2.0858,7,2,30,2,1,,,,,
,1.59,,,,,,,,,j.PNG,j,5f1b2a0146ce431186055813,2021-10-19_20h15.32.022,forced_choiceRT,2021.1.2,Win32,59.89458553,,,,,,,,5,Fast,j,1,1.8431,7,3,31,3,1,,,,,
,0.27,,,,,,,,,f.PNG,f,5f1b2a0146ce431186055813,2021-10-19_20h15.32.022,forced_choiceRT,2021.1.2,Win32,59.89458553,,,,,,,,5,Ontime,f,1,1.994,8,0,32,0,1,,,,,
,1.89,,,,,,,,,g.PNG,g,5f1b2a0146ce431186055813,2021-10-19_20h15.32.022,forced_choiceRT,2021.1.2,Win32,59.89458553,,,,,,,,5,Ontime,j,0,2.0338,8,1,33,1,1,,,,,
,0.73,,,,,,,,,h.PNG,h,5f1b2a0146ce431186055813,2021-10-19_20h15.32.022,forced_choiceRT,2021.1.2,Win32,59.89458553,,,,,,,,5,Ontime,h,1,2.0573,8,2,34,2,1,,,,,
,0.63,,,,,,,,,h.PNG,h,5f1b2a0146ce431186055813,2021-10-19_20h15.32.022,forced_choiceRT,2021.1.2,Win32,59.89458553,,,,,,,,5,Ontime,h,1,2.0947,8,3,35,2,1,,,,,
,1.68,,,,,,,,,j.PNG,j,5f1b2a0146ce431186055813,2021-10-19_20h15.32.022,forced_choiceRT,2021.1.2,Win32,59.89458553,,,,,,,,5,Ontime,j,1,2.0507,9,0,36,3,1,,,,,
,0.45,,,,,,,,,h.PNG,h,5f1b2a0146ce431186055813,2021-10-19_20h15.32.022,forced_choiceRT,2021.1.2,Win32,59.89458553,,,,,,,,5,Ontime,h,1,2.0089,9,1,37,2,1,,,,,
,0.76,,,,,,,,,j.PNG,j,5f1b2a0146ce431186055813,2021-10-19_20h15.32.022,forced_choiceRT,2021.1.2,Win32,59.89458553,,,,,,,,5,Ontime,j,1,2.0074,9,2,38,3,1,,,,,
,1.28,,,,,,,,,g.PNG,g,5f1b2a0146ce431186055813,2021-10-19_20h15.32.022,forced_choiceRT,2021.1.2,Win32,59.89458553,,,,,,,,5,Ontime,g,1,1.9921,9,3,39,1,1,,,,,
,,,,,,,,,,,,5f1b2a0146ce431186055813,2021-10-19_20h15.32.022,forced_choiceRT,2021.1.2,Win32,59.89458553,,,,,,,,,,,,,,,,,,4,0,4,0,1
,0.73,,,,,,,,,g.PNG,g,5f1b2a0146ce431186055813,2021-10-19_20h15.32.022,forced_choiceRT,2021.1.2,Win32,59.89458553,,,,,,,,6,Ontime,g,1,2.078,0,0,0,1,1,,,,,
,0.59,,,,,,,,,h.PNG,h,5f1b2a0146ce431186055813,2021-10-19_20h15.32.022,forced_choiceRT,2021.1.2,Win32,59.89458553,,,,,,,,6,Ontime,h,1,1.982,0,1,1,2,1,,,,,
,1.5,,,,,,,,,f.PNG,f,5f1b2a0146ce431186055813,2021-10-19_20h15.32.022,forced_choiceRT,2021.1.2,Win32,59.89458553,,,,,,,,6,Ontime,f,1,2.0237,0,2,2,0,1,,,,,
,1.18,,,,,,,,,h.PNG,h,5f1b2a0146ce431186055813,2021-10-19_20h15.32.022,forced_choiceRT,2021.1.2,Win32,59.89458553,,,,,,,,6,Ontime,h,1,2.0461,0,3,3,2,1,,,,,
,1.51,,,,,,,,,g.PNG,g,5f1b2a0146ce431186055813,2021-10-19_20h15.32.022,forced_choiceRT,2021.1.2,Win32,59.89458553,,,,,,,,6,Ontime,j,0,1.9314,1,0,4,1,1,,,,,
,0.03,,,,,,,,,h.PNG,h,5f1b2a0146ce431186055813,2021-10-19_20h15.32.022,forced_choiceRT,2021.1.2,Win32,59.89458553,,,,,,,,6,Ontime,h,1,2.0639,1,1,5,2,1,,,,,
,0.15,,,,,,,,,g.PNG,g,5f1b2a0146ce431186055813,2021-10-19_20h15.32.022,forced_choiceRT,2021.1.2,Win32,59.89458553,,,,,,,,6,Fast,g,1,1.7247,1,2,6,1,1,,,,,
,1.36,,,,,,,,,h.PNG,h,5f1b2a0146ce431186055813,2021-10-19_20h15.32.022,forced_choiceRT,2021.1.2,Win32,59.89458553,,,,,,,,6,Slow,h,1,2.1931,1,3,7,2,1,,,,,
,0.89,,,,,,,,,g.PNG,g,5f1b2a0146ce431186055813,2021-10-19_20h15.32.022,forced_choiceRT,2021.1.2,Win32,59.89458553,,,,,,,,6,Ontime,g,1,2.0646,2,0,8,1,1,,,,,
,1.38,,,,,,,,,j.PNG,j,5f1b2a0146ce431186055813,2021-10-19_20h15.32.022,forced_choiceRT,2021.1.2,Win32,59.89458553,,,,,,,,6,Slow,j,1,2.1342,2,1,9,3,1,,,,,
,1.44,,,,,,,,,j.PNG,j,5f1b2a0146ce431186055813,2021-10-19_20h15.32.022,forced_choiceRT,2021.1.2,Win32,59.89458553,,,,,,,,6,Ontime,j,1,2.0245,2,2,10,3,1,,,,,
,0.51,,,,,,,,,j.PNG,j,5f1b2a0146ce431186055813,2021-10-19_20h15.32.022,forced_choiceRT,2021.1.2,Win32,59.89458553,,,,,,,,6,Ontime,j,1,2.0559,2,3,11,3,1,,,,,
,1.33,,,,,,,,,h.PNG,h,5f1b2a0146ce431186055813,2021-10-19_20h15.32.022,forced_choiceRT,2021.1.2,Win32,59.89458553,,,,,,,,6,Slow,h,1,2.117,3,0,12,2,1,,,,,
,1.75,,,,,,,,,j.PNG,j,5f1b2a0146ce431186055813,2021-10-19_20h15.32.022,forced_choiceRT,2021.1.2,Win32,59.89458553,,,,,,,,6,Slow,j,1,2.1368,3,1,13,3,1,,,,,
,0.12,,,,,,,,,j.PNG,j,5f1b2a0146ce431186055813,2021-10-19_20h15.32.022,forced_choiceRT,2021.1.2,Win32,59.89458553,,,,,,,,6,Ontime,j,1,1.9624,3,2,14,3,1,,,,,
,0.55,,,,,,,,,h.PNG,h,5f1b2a0146ce431186055813,2021-10-19_20h15.32.022,forced_choiceRT,2021.1.2,Win32,59.89458553,,,,,,,,6,Ontime,h,1,2.0681,3,3,15,2,1,,,,,
,0.62,,,,,,,,,j.PNG,j,5f1b2a0146ce431186055813,2021-10-19_20h15.32.022,forced_choiceRT,2021.1.2,Win32,59.89458553,,,,,,,,6,Ontime,j,1,2.0023,4,0,16,3,1,,,,,
,0.59,,,,,,,,,h.PNG,h,5f1b2a0146ce431186055813,2021-10-19_20h15.32.022,forced_choiceRT,2021.1.2,Win32,59.89458553,,,,,,,,6,Ontime,h,1,2.0425,4,1,17,2,1,,,,,
,0.26,,,,,,,,,f.PNG,f,5f1b2a0146ce431186055813,2021-10-19_20h15.32.022,forced_choiceRT,2021.1.2,Win32,59.89458553,,,,,,,,6,Ontime,f,1,2.0086,4,2,18,0,1,,,,,
,1.98,,,,,,,,,h.PNG,h,5f1b2a0146ce431186055813,2021-10-19_20h15.32.022,forced_choiceRT,2021.1.2,Win32,59.89458553,,,,,,,,6,Ontime,j,0,2.0963,4,3,19,2,1,,,,,
,0.66,,,,,,,,,j.PNG,j,5f1b2a0146ce431186055813,2021-10-19_20h15.32.022,forced_choiceRT,2021.1.2,Win32,59.89458553,,,,,,,,6,Ontime,j,1,2.0288,5,0,20,3,1,,,,,
,0.34,,,,,,,,,f.PNG,f,5f1b2a0146ce431186055813,2021-10-19_20h15.32.022,forced_choiceRT,2021.1.2,Win32,59.89458553,,,,,,,,6,Ontime,f,1,2.0192,5,1,21,0,1,,,,,
,1.14,,,,,,,,,g.PNG,g,5f1b2a0146ce431186055813,2021-10-19_20h15.32.022,forced_choiceRT,2021.1.2,Win32,59.89458553,,,,,,,,6,Ontime,g,1,2.0754,5,2,22,1,1,,,,,
,1.81,,,,,,,,,f.PNG,f,5f1b2a0146ce431186055813,2021-10-19_20h15.32.022,forced_choiceRT,2021.1.2,Win32,59.89458553,,,,,,,,6,Ontime,j,0,2.0949,5,3,23,0,1,,,,,
,1.42,,,,,,,,,g.PNG,g,5f1b2a0146ce431186055813,2021-10-19_20h15.32.022,forced_choiceRT,2021.1.2,Win32,59.89458553,,,,,,,,6,Ontime,f,0,2.0507,6,0,24,1,1,,,,,
,1.56,,,,,,,,,g.PNG,g,5f1b2a0146ce431186055813,2021-10-19_20h15.32.022,forced_choiceRT,2021.1.2,Win32,59.89458553,,,,,,,,6,Slow,g,1,2.1058,6,1,25,1,1,,,,,
,0.58,,,,,,,,,f.PNG,f,5f1b2a0146ce431186055813,2021-10-19_20h15.32.022,forced_choiceRT,2021.1.2,Win32,59.89458553,,,,,,,,6,Ontime,f,1,1.9658,6,2,26,0,1,,,,,
,0.75,,,,,,,,,g.PNG,g,5f1b2a0146ce431186055813,2021-10-19_20h15.32.022,forced_choiceRT,2021.1.2,Win32,59.89458553,,,,,,,,6,Ontime,g,1,2.006,6,3,27,1,1,,,,,
,1.65,,,,,,,,,h.PNG,h,5f1b2a0146ce431186055813,2021-10-19_20h15.32.022,forced_choiceRT,2021.1.2,Win32,59.89458553,,,,,,,,6,Slow,h,1,2.3988,7,0,28,2,1,,,,,
,0.11,,,,,,,,,g.PNG,g,5f1b2a0146ce431186055813,2021-10-19_20h15.32.022,forced_choiceRT,2021.1.2,Win32,59.89458553,,,,,,,,6,Ontime,g,1,2.0941,7,1,29,1,1,,,,,
,1.06,,,,,,,,,f.PNG,f,5f1b2a0146ce431186055813,2021-10-19_20h15.32.022,forced_choiceRT,2021.1.2,Win32,59.89458553,,,,,,,,6,Ontime,f,1,2.0186,7,2,30,0,1,,,,,
,0.31,,,,,,,,,f.PNG,f,5f1b2a0146ce431186055813,2021-10-19_20h15.32.022,forced_choiceRT,2021.1.2,Win32,59.89458553,,,,,,,,6,Ontime,f,1,1.994,7,3,31,0,1,,,,,
,0.88,,,,,,,,,f.PNG,f,5f1b2a0146ce431186055813,2021-10-19_20h15.32.022,forced_choiceRT,2021.1.2,Win32,59.89458553,,,,,,,,6,Ontime,f,1,2.0341,8,0,32,0,1,,,,,
,0.77,,,,,,,,,f.PNG,f,5f1b2a0146ce431186055813,2021-10-19_20h15.32.022,forced_choiceRT,2021.1.2,Win32,59.89458553,,,,,,,,6,Ontime,f,1,1.961,8,1,33,0,1,,,,,
,0.13,,,,,,,,,h.PNG,h,5f1b2a0146ce431186055813,2021-10-19_20h15.32.022,forced_choiceRT,2021.1.2,Win32,59.89458553,,,,,,,,6,Ontime,h,1,2.0113,8,2,34,2,1,,,,,
,0.84,,,,,,,,,g.PNG,g,5f1b2a0146ce431186055813,2021-10-19_20h15.32.022,forced_choiceRT,2021.1.2,Win32,59.89458553,,,,,,,,6,Ontime,g,1,2.0908,8,3,35,1,1,,,,,
,1.42,,,,,,,,,j.PNG,j,5f1b2a0146ce431186055813,2021-10-19_20h15.32.022,forced_choiceRT,2021.1.2,Win32,59.89458553,,,,,,,,6,Ontime,j,1,2.0229,9,0,36,3,1,,,,,
,1.09,,,,,,,,,f.PNG,f,5f1b2a0146ce431186055813,2021-10-19_20h15.32.022,forced_choiceRT,2021.1.2,Win32,59.89458553,,,,,,,,6,Ontime,f,1,1.9734,9,1,37,0,1,,,,,
,1.22,,,,,,,,,j.PNG,j,5f1b2a0146ce431186055813,2021-10-19_20h15.32.022,forced_choiceRT,2021.1.2,Win32,59.89458553,,,,,,,,6,Fast,j,1,1.8947,9,2,38,3,1,,,,,
,0.32,,,,,,,,,j.PNG,j,5f1b2a0146ce431186055813,2021-10-19_20h15.32.022,forced_choiceRT,2021.1.2,Win32,59.89458553,,,,,,,,6,Ontime,j,1,1.9873,9,3,39,3,1,,,,,
,,,,,,,,,,,,5f1b2a0146ce431186055813,2021-10-19_20h15.32.022,forced_choiceRT,2021.1.2,Win32,59.89458553,,,,,,,,,,,,,,,,,,5,0,5,0,1
,0.68,,,,,,,,,g.PNG,g,5f1b2a0146ce431186055813,2021-10-19_20h15.32.022,forced_choiceRT,2021.1.2,Win32,59.89458553,,,,,,,,7,Ontime,g,1,2.018,0,0,0,1,1,,,,,
,0.09,,,,,,,,,j.PNG,j,5f1b2a0146ce431186055813,2021-10-19_20h15.32.022,forced_choiceRT,2021.1.2,Win32,59.89458553,,,,,,,,7,Ontime,j,1,2.092,0,1,1,3,1,,,,,
,0.45,,,,,,,,,f.PNG,f,5f1b2a0146ce431186055813,2021-10-19_20h15.32.022,forced_choiceRT,2021.1.2,Win32,59.89458553,,,,,,,,7,Ontime,f,1,2.065,0,2,2,0,1,,,,,
,1.9,,,,,,,,,j.PNG,j,5f1b2a0146ce431186055813,2021-10-19_20h15.32.022,forced_choiceRT,2021.1.2,Win32,59.89458553,,,,,,,,7,Slow,j,1,2.2224,0,3,3,3,1,,,,,
,0.55,,,,,,,,,j.PNG,j,5f1b2a0146ce431186055813,2021-10-19_20h15.32.022,forced_choiceRT,2021.1.2,Win32,59.89458553,,,,,,,,7,Ontime,j,1,2.0209,1,0,4,3,1,,,,,
,0.98,,,,,,,,,j.PNG,j,5f1b2a0146ce431186055813,2021-10-19_20h15.32.022,forced_choiceRT,2021.1.2,Win32,59.89458553,,,,,,,,7,Ontime,j,1,2.076,1,1,5,3,1,,,,,
,1.44,,,,,,,,,h.PNG,h,5f1b2a0146ce431186055813,2021-10-19_20h15.32.022,forced_choiceRT,2021.1.2,Win32,59.89458553,,,,,,,,7,Slow,h,1,2.1926,1,2,6,2,1,,,,,
,1.86,,,,,,,,,f.PNG,f,5f1b2a0146ce431186055813,2021-10-19_20h15.32.022,forced_choiceRT,2021.1.2,Win32,59.89458553,,,,,,,,7,Ontime,j,0,2.0573,1,3,7,0,1,,,,,
,0.69,,,,,,,,,g.PNG,g,5f1b2a0146ce431186055813,2021-10-19_20h15.32.022,forced_choiceRT,2021.1.2,Win32,59.89458553,,,,,,,,7,Ontime,g,1,2.0383,2,0,8,1,1,,,,,
,1.02,,,,,,,,,f.PNG,f,5f1b2a0146ce431186055813,2021-10-19_20h15.32.022,forced_choiceRT,2021.1.2,Win32,59.89458553,,,,,,,,7,Ontime,f,1,2.0445,2,1,9,0,1,,,,,
,0.94,,,,,,,,,g.PNG,g,5f1b2a0146ce431186055813,2021-10-19_20h15.32.022,forced_choiceRT,2021.1.2,Win32,59.89458553,,,,,,,,7,Ontime,g,1,2.0111,2,2,10,1,1,,,,,
,1.63,,,,,,,,,g.PNG,g,5f1b2a0146ce431186055813,2021-10-19_20h15.32.022,forced_choiceRT,2021.1.2,Win32,59.89458553,,,,,,,,7,Slow,f,0,2.1705,2,3,11,1,1,,,,,
,0.99,,,,,,,,,f.PNG,f,5f1b2a0146ce431186055813,2021-10-19_20h15.32.022,forced_choiceRT,2021.1.2,Win32,59.89458553,,,,,,,,7,Ontime,f,1,1.9872,3,0,12,0,1,,,,,
,0.07,,,,,,,,,j.PNG,j,5f1b2a0146ce431186055813,2021-10-19_20h15.32.022,forced_choiceRT,2021.1.2,Win32,59.89458553,,,,,,,,7,Ontime,j,1,2.0196,3,1,13,3,1,,,,,
,0.25,,,,,,,,,h.PNG,h,5f1b2a0146ce431186055813,2021-10-19_20h15.32.022,forced_choiceRT,2021.1.2,Win32,59.89458553,,,,,,,,7,Ontime,h,1,2.0508,3,2,14,2,1,,,,,
,1.49,,,,,,,,,f.PNG,f,5f1b2a0146ce431186055813,2021-10-19_20h15.32.022,forced_choiceRT,2021.1.2,Win32,59.89458553,,,,,,,,7,Ontime,j,0,1.959,3,3,15,0,1,,,,,
,0.67,,,,,,,,,j.PNG,j,5f1b2a0146ce431186055813,2021-10-19_20h15.32.022,forced_choiceRT,2021.1.2,Win32,59.89458553,,,,,,,,7,Ontime,j,1,1.97,4,0,16,3,1,,,,,
,1.32,,,,,,,,,f.PNG,f,5f1b2a0146ce431186055813,2021-10-19_20h15.32.022,forced_choiceRT,2021.1.2,Win32,59.89458553,,,,,,,,7,Ontime,f,1,2.0034,4,1,17,0,1,,,,,
,1.87,,,,,,,,,h.PNG,h,5f1b2a0146ce431186055813,2021-10-19_20h15.32.022,forced_choiceRT,2021.1.2,Win32,59.89458553,,,,,,,,7,Slow,j,0,2.1225,4,2,18,2,1,,,,,
,0.62,,,,,,,,,h.PNG,h,5f1b2a0146ce431186055813,2021-10-19_20h15.32.022,forced_choiceRT,2021.1.2,Win32,59.89458553,,,,,,,,7,Ontime,h,1,2.0135,4,3,19,2,1,,,,,
,1,,,,,,,,,g.PNG,g,5f1b2a0146ce431186055813,2021-10-19_20h15.32.022,forced_choiceRT,2021.1.2,Win32,59.89458553,,,,,,,,7,Ontime,g,1,2.0435,5,0,20,1,1,,,,,
,1.96,,,,,,,,,g.PNG,g,5f1b2a0146ce431186055813,2021-10-19_20h15.32.022,forced_choiceRT,2021.1.2,Win32,59.89458553,,,,,,,,7,Ontime,j,0,2.0111,5,1,21,1,1,,,,,
,1.49,,,,,,,,,j.PNG,j,5f1b2a0146ce431186055813,2021-10-19_20h15.32.022,forced_choiceRT,2021.1.2,Win32,59.89458553,,,,,,,,7,Ontime,j,1,2.011,5,2,22,3,1,,,,,
,0.94,,,,,,,,,h.PNG,h,5f1b2a0146ce431186055813,2021-10-19_20h15.32.022,forced_choiceRT,2021.1.2,Win32,59.89458553,,,,,,,,7,Ontime,h,1,2.0427,5,3,23,2,1,,,,,
,0.17,,,,,,,,,f.PNG,f,5f1b2a0146ce431186055813,2021-10-19_20h15.32.022,forced_choiceRT,2021.1.2,Win32,59.89458553,,,,,,,,7,Ontime,f,1,1.9922,6,0,24,0,1,,,,,
,0.36,,,,,,,,,j.PNG,j,5f1b2a0146ce431186055813,2021-10-19_20h15.32.022,forced_choiceRT,2021.1.2,Win32,59.89458553,,,,,,,,7,Ontime,j,1,2.0243,6,1,25,3,1,,,,,
,0.58,,,,,,,,,f.PNG,f,5f1b2a0146ce431186055813,2021-10-19_20h15.32.022,forced_choiceRT,2021.1.2,Win32,59.89458553,,,,,,,,7,Ontime,f,1,2.0474,6,2,26,0,1,,,,,
,0.51,,,,,,,,,j.PNG,j,5f1b2a0146ce431186055813,2021-10-19_20h15.32.022,forced_choiceRT,2021.1.2,Win32,59.89458553,,,,,,,,7,Ontime,j,1,1.9748,6,3,27,3,1,,,,,
,1.35,,,,,,,,,h.PNG,h,5f1b2a0146ce431186055813,2021-10-19_20h15.32.022,forced_choiceRT,2021.1.2,Win32,59.89458553,,,,,,,,7,Ontime,h,1,2.0959,7,0,28,2,1,,,,,
,1.65,,,,,,,,,g.PNG,g,5f1b2a0146ce431186055813,2021-10-19_20h15.32.022,forced_choiceRT,2021.1.2,Win32,59.89458553,,,,,,,,7,Ontime,j,0,2.0581,7,1,29,1,1,,,,,
,0.62,,,,,,,,,h.PNG,h,5f1b2a0146ce431186055813,2021-10-19_20h15.32.022,forced_choiceRT,2021.1.2,Win32,59.89458553,,,,,,,,7,Ontime,h,1,1.9929,7,2,30,2,1,,,,,
,1.79,,,,,,,,,f.PNG,f,5f1b2a0146ce431186055813,2021-10-19_20h15.32.022,forced_choiceRT,2021.1.2,Win32,59.89458553,,,,,,,,7,Ontime,j,0,2.0262,7,3,31,0,1,,,,,
,0.06,,,,,,,,,g.PNG,g,5f1b2a0146ce431186055813,2021-10-19_20h15.32.022,forced_choiceRT,2021.1.2,Win32,59.89458553,,,,,,,,7,Slow,g,1,2.1124,8,0,32,1,1,,,,,
,0.62,,,,,,,,,j.PNG,j,5f1b2a0146ce431186055813,2021-10-19_20h15.32.022,forced_choiceRT,2021.1.2,Win32,59.89458553,,,,,,,,7,Fast,j,1,1.5874,8,1,33,3,1,,,,,
,0.47,,,,,,,,,g.PNG,g,5f1b2a0146ce431186055813,2021-10-19_20h15.32.022,forced_choiceRT,2021.1.2,Win32,59.89458553,,,,,,,,7,Ontime,g,1,2.0523,8,2,34,1,1,,,,,
,0.6,,,,,,,,,g.PNG,g,5f1b2a0146ce431186055813,2021-10-19_20h15.32.022,forced_choiceRT,2021.1.2,Win32,59.89458553,,,,,,,,7,Ontime,g,1,2.0665,8,3,35,1,1,,,,,
,1.7,,,,,,,,,h.PNG,h,5f1b2a0146ce431186055813,2021-10-19_20h15.32.022,forced_choiceRT,2021.1.2,Win32,59.89458553,,,,,,,,7,Ontime,j,0,2.0167,9,0,36,2,1,,,,,
,1.68,,,,,,,,,h.PNG,h,5f1b2a0146ce431186055813,2021-10-19_20h15.32.022,forced_choiceRT,2021.1.2,Win32,59.89458553,,,,,,,,7,Ontime,j,0,1.9283,9,1,37,2,1,,,,,
,1.32,,,,,,,,,f.PNG,f,5f1b2a0146ce431186055813,2021-10-19_20h15.32.022,forced_choiceRT,2021.1.2,Win32,59.89458553,,,,,,,,7,Ontime,g,0,2.0033,9,2,38,0,1,,,,,
,0.32,,,,,,,,,h.PNG,h,5f1b2a0146ce431186055813,2021-10-19_20h15.32.022,forced_choiceRT,2021.1.2,Win32,59.89458553,,,,,,,,7,Ontime,h,1,1.9948,9,3,39,2,1,,,,,
,,,,,,,,,,,,5f1b2a0146ce431186055813,2021-10-19_20h15.32.022,forced_choiceRT,2021.1.2,Win32,59.89458553,,,,,,,,,,,,,,,,,,6,0,6,0,1
,1.84,,,,,,,,,h.PNG,h,5f1b2a0146ce431186055813,2021-10-19_20h15.32.022,forced_choiceRT,2021.1.2,Win32,59.89458553,,,,,,,,8,Ontime,j,0,1.9449,0,0,0,2,1,,,,,
,0.76,,,,,,,,,g.PNG,g,5f1b2a0146ce431186055813,2021-10-19_20h15.32.022,forced_choiceRT,2021.1.2,Win32,59.89458553,,,,,,,,8,Ontime,g,1,2.0478,0,1,1,1,1,,,,,
,1.15,,,,,,,,,g.PNG,g,5f1b2a0146ce431186055813,2021-10-19_20h15.32.022,forced_choiceRT,2021.1.2,Win32,59.89458553,,,,,,,,8,Slow,g,1,2.135,0,2,2,1,1,,,,,
,0.46,,,,,,,,,j.PNG,j,5f1b2a0146ce431186055813,2021-10-19_20h15.32.022,forced_choiceRT,2021.1.2,Win32,59.89458553,,,,,,,,8,Ontime,j,1,2.0014,0,3,3,3,1,,,,,
,0.86,,,,,,,,,f.PNG,f,5f1b2a0146ce431186055813,2021-10-19_20h15.32.022,forced_choiceRT,2021.1.2,Win32,59.89458553,,,,,,,,8,Ontime,f,1,1.9935,1,0,4,0,1,,,,,
,0.71,,,,,,,,,f.PNG,f,5f1b2a0146ce431186055813,2021-10-19_20h15.32.022,forced_choiceRT,2021.1.2,Win32,59.89458553,,,,,,,,8,Ontime,f,1,2.0821,1,1,5,0,1,,,,,
,0.11,,,,,,,,,g.PNG,g,5f1b2a0146ce431186055813,2021-10-19_20h15.32.022,forced_choiceRT,2021.1.2,Win32,59.89458553,,,,,,,,8,Ontime,g,1,1.9988,1,2,6,1,1,,,,,
,0.69,,,,,,,,,h.PNG,h,5f1b2a0146ce431186055813,2021-10-19_20h15.32.022,forced_choiceRT,2021.1.2,Win32,59.89458553,,,,,,,,8,Ontime,h,1,2.0777,1,3,7,2,1,,,,,
,0.09,,,,,,,,,g.PNG,g,5f1b2a0146ce431186055813,2021-10-19_20h15.32.022,forced_choiceRT,2021.1.2,Win32,59.89458553,,,,,,,,8,Ontime,g,1,2.0285,2,0,8,1,1,,,,,
,1.09,,,,,,,,,f.PNG,f,5f1b2a0146ce431186055813,2021-10-19_20h15.32.022,forced_choiceRT,2021.1.2,Win32,59.89458553,,,,,,,,8,Ontime,f,1,2.0031,2,1,9,0,1,,,,,
,1.91,,,,,,,,,f.PNG,f,5f1b2a0146ce431186055813,2021-10-19_20h15.32.022,forced_choiceRT,2021.1.2,Win32,59.89458553,,,,,,,,8,Ontime,j,0,1.9622,2,2,10,0,1,,,,,
,0.16,,,,,,,,,j.PNG,j,5f1b2a0146ce431186055813,2021-10-19_20h15.32.022,forced_choiceRT,2021.1.2,Win32,59.89458553,,,,,,,,8,Ontime,j,1,1.9643,2,3,11,3,1,,,,,
,1.99,,,,,,,,,j.PNG,j,5f1b2a0146ce431186055813,2021-10-19_20h15.32.022,forced_choiceRT,2021.1.2,Win32,59.89458553,,,,,,,,8,Ontime,f,0,2.03,3,0,12,3,1,,,,,
,1.77,,,,,,,,,j.PNG,j,5f1b2a0146ce431186055813,2021-10-19_20h15.32.022,forced_choiceRT,2021.1.2,Win32,59.89458553,,,,,,,,8,Ontime,j,1,2.029,3,1,13,3,1,,,,,
,0,,,,,,,,,j.PNG,j,5f1b2a0146ce431186055813,2021-10-19_20h15.32.022,forced_choiceRT,2021.1.2,Win32,59.89458553,,,,,,,,8,Ontime,j,1,1.9693,3,2,14,3,1,,,,,
,1.07,,,,,,,,,f.PNG,f,5f1b2a0146ce431186055813,2021-10-19_20h15.32.022,forced_choiceRT,2021.1.2,Win32,59.89458553,,,,,,,,8,Ontime,f,1,2.0767,3,3,15,0,1,,,,,
,1.68,,,,,,,,,j.PNG,j,5f1b2a0146ce431186055813,2021-10-19_20h15.32.022,forced_choiceRT,2021.1.2,Win32,59.89458553,,,,,,,,8,Ontime,f,0,1.9709,4,0,16,3,1,,,,,
,0.75,,,,,,,,,f.PNG,f,5f1b2a0146ce431186055813,2021-10-19_20h15.32.022,forced_choiceRT,2021.1.2,Win32,59.89458553,,,,,,,,8,Ontime,f,1,2.0509,4,1,17,0,1,,,,,
,1.31,,,,,,,,,f.PNG,f,5f1b2a0146ce431186055813,2021-10-19_20h15.32.022,forced_choiceRT,2021.1.2,Win32,59.89458553,,,,,,,,8,Ontime,f,1,2.0969,4,2,18,0,1,,,,,
,0.36,,,,,,,,,j.PNG,j,5f1b2a0146ce431186055813,2021-10-19_20h15.32.022,forced_choiceRT,2021.1.2,Win32,59.89458553,,,,,,,,8,Ontime,j,1,2.0609,4,3,19,3,1,,,,,
,0.72,,,,,,,,,g.PNG,g,5f1b2a0146ce431186055813,2021-10-19_20h15.32.022,forced_choiceRT,2021.1.2,Win32,59.89458553,,,,,,,,8,Ontime,g,1,2.0345,5,0,20,1,1,,,,,
,1.78,,,,,,,,,g.PNG,g,5f1b2a0146ce431186055813,2021-10-19_20h15.32.022,forced_choiceRT,2021.1.2,Win32,59.89458553,,,,,,,,8,Ontime,h,0,2.0731,5,1,21,1,1,,,,,
,1.69,,,,,,,,,j.PNG,j,5f1b2a0146ce431186055813,2021-10-19_20h15.32.022,forced_choiceRT,2021.1.2,Win32,59.89458553,,,,,,,,8,Slow,j,1,2.1901,5,2,22,3,1,,,,,
,0.2,,,,,,,,,g.PNG,g,5f1b2a0146ce431186055813,2021-10-19_20h15.32.022,forced_choiceRT,2021.1.2,Win32,59.89458553,,,,,,,,8,Ontime,g,1,2.0538,5,3,23,1,1,,,,,
,1.54,,,,,,,,,h.PNG,h,5f1b2a0146ce431186055813,2021-10-19_20h15.32.022,forced_choiceRT,2021.1.2,Win32,59.89458553,,,,,,,,8,Ontime,j,0,2.0115,6,0,24,2,1,,,,,
,1.82,,,,,,,,,j.PNG,j,5f1b2a0146ce431186055813,2021-10-19_20h15.32.022,forced_choiceRT,2021.1.2,Win32,59.89458553,,,,,,,,8,Ontime,j,1,1.9871,6,1,25,3,1,,,,,
,0.92,,,,,,,,,h.PNG,h,5f1b2a0146ce431186055813,2021-10-19_20h15.32.022,forced_choiceRT,2021.1.2,Win32,59.89458553,,,,,,,,8,Ontime,h,1,1.9715,6,2,26,2,1,,,,,
,0.42,,,,,,,,,f.PNG,f,5f1b2a0146ce431186055813,2021-10-19_20h15.32.022,forced_choiceRT,2021.1.2,Win32,59.89458553,,,,,,,,8,Ontime,f,1,2.0127,6,3,27,0,1,,,,,
,0.77,,,,,,,,,g.PNG,g,5f1b2a0146ce431186055813,2021-10-19_20h15.32.022,forced_choiceRT,2021.1.2,Win32,59.89458553,,,,,,,,8,Ontime,g,1,1.9877,7,0,28,1,1,,,,,
,0.42,,,,,,,,,h.PNG,h,5f1b2a0146ce431186055813,2021-10-19_20h15.32.022,forced_choiceRT,2021.1.2,Win32,59.89458553,,,,,,,,8,Ontime,h,1,1.9809,7,1,29,2,1,,,,,
,1.34,,,,,,,,,h.PNG,h,5f1b2a0146ce431186055813,2021-10-19_20h15.32.022,forced_choiceRT,2021.1.2,Win32,59.89458553,,,,,,,,8,Slow,h,1,2.1177,7,2,30,2,1,,,,,
,0.11,,,,,,,,,f.PNG,f,5f1b2a0146ce431186055813,2021-10-19_20h15.32.022,forced_choiceRT,2021.1.2,Win32,59.89458553,,,,,,,,8,Ontime,f,1,1.9698,7,3,31,0,1,,,,,
,1.13,,,,,,,,,h.PNG,h,5f1b2a0146ce431186055813,2021-10-19_20h15.32.022,forced_choiceRT,2021.1.2,Win32,59.89458553,,,,,,,,8,Ontime,h,1,2.0043,8,0,32,2,1,,,,,
,0.68,,,,,,,,,h.PNG,h,5f1b2a0146ce431186055813,2021-10-19_20h15.32.022,forced_choiceRT,2021.1.2,Win32,59.89458553,,,,,,,,8,Ontime,h,1,1.9363,8,1,33,2,1,,,,,
,0.47,,,,,,,,,g.PNG,g,5f1b2a0146ce431186055813,2021-10-19_20h15.32.022,forced_choiceRT,2021.1.2,Win32,59.89458553,,,,,,,,8,Ontime,g,1,2.0522,8,2,34,1,1,,,,,
,1.52,,,,,,,,,j.PNG,j,5f1b2a0146ce431186055813,2021-10-19_20h15.32.022,forced_choiceRT,2021.1.2,Win32,59.89458553,,,,,,,,8,Slow,j,1,2.1788,8,3,35,3,1,,,,,
,1.4,,,,,,,,,g.PNG,g,5f1b2a0146ce431186055813,2021-10-19_20h15.32.022,forced_choiceRT,2021.1.2,Win32,59.89458553,,,,,,,,8,Slow,g,1,2.1791,9,0,36,1,1,,,,,
,1.74,,,,,,,,,h.PNG,h,5f1b2a0146ce431186055813,2021-10-19_20h15.32.022,forced_choiceRT,2021.1.2,Win32,59.89458553,,,,,,,,8,Slow,j,0,2.2202,9,1,37,2,1,,,,,
,1.03,,,,,,,,,f.PNG,f,5f1b2a0146ce431186055813,2021-10-19_20h15.32.022,forced_choiceRT,2021.1.2,Win32,59.89458553,,,,,,,,8,Ontime,f,1,2.0338,9,2,38,0,1,,,,,
,0.53,,,,,,,,,h.PNG,h,5f1b2a0146ce431186055813,2021-10-19_20h15.32.022,forced_choiceRT,2021.1.2,Win32,59.89458553,,,,,,,,8,Ontime,h,1,2.0008,9,3,39,2,1,,,,,
,,,,,,,,,,,,5f1b2a0146ce431186055813,2021-10-19_20h15.32.022,forced_choiceRT,2021.1.2,Win32,59.89458553,,,,,,,,,,,,,,,,,,7,0,7,0,1
,0.23,,,,,,,,,j.PNG,j,5f1b2a0146ce431186055813,2021-10-19_20h15.32.022,forced_choiceRT,2021.1.2,Win32,59.89458553,,,,,,,,9,Ontime,j,1,1.9625,0,0,0,3,1,,,,,
,1.2,,,,,,,,,h.PNG,h,5f1b2a0146ce431186055813,2021-10-19_20h15.32.022,forced_choiceRT,2021.1.2,Win32,59.89458553,,,,,,,,9,Ontime,h,1,1.9464,0,1,1,2,1,,,,,
,0.07,,,,,,,,,j.PNG,j,5f1b2a0146ce431186055813,2021-10-19_20h15.32.022,forced_choiceRT,2021.1.2,Win32,59.89458553,,,,,,,,9,Ontime,j,1,1.9726,0,2,2,3,1,,,,,
,0.24,,,,,,,,,h.PNG,h,5f1b2a0146ce431186055813,2021-10-19_20h15.32.022,forced_choiceRT,2021.1.2,Win32,59.89458553,,,,,,,,9,Ontime,h,1,1.9897,0,3,3,2,1,,,,,
,1.22,,,,,,,,,h.PNG,h,5f1b2a0146ce431186055813,2021-10-19_20h15.32.022,forced_choiceRT,2021.1.2,Win32,59.89458553,,,,,,,,9,Ontime,j,0,2.0699,1,0,4,2,1,,,,,
,0.03,,,,,,,,,f.PNG,f,5f1b2a0146ce431186055813,2021-10-19_20h15.32.022,forced_choiceRT,2021.1.2,Win32,59.89458553,,,,,,,,9,Ontime,f,1,2.0271,1,1,5,0,1,,,,,
,0.43,,,,,,,,,f.PNG,f,5f1b2a0146ce431186055813,2021-10-19_20h15.32.022,forced_choiceRT,2021.1.2,Win32,59.89458553,,,,,,,,9,Ontime,f,1,1.9933,1,2,6,0,1,,,,,
,0.59,,,,,,,,,g.PNG,g,5f1b2a0146ce431186055813,2021-10-19_20h15.32.022,forced_choiceRT,2021.1.2,Win32,59.89458553,,,,,,,,9,Slow,g,1,2.2659,1,3,7,1,1,,,,,
,1.29,,,,,,,,,h.PNG,h,5f1b2a0146ce431186055813,2021-10-19_20h15.32.022,forced_choiceRT,2021.1.2,Win32,59.89458553,,,,,,,,9,Slow,h,1,2.2631,2,0,8,2,1,,,,,
,1.09,,,,,,,,,f.PNG,f,5f1b2a0146ce431186055813,2021-10-19_20h15.32.022,forced_choiceRT,2021.1.2,Win32,59.89458553,,,,,,,,9,Ontime,f,1,2.004,2,1,9,0,1,,,,,
,1.27,,,,,,,,,g.PNG,g,5f1b2a0146ce431186055813,2021-10-19_20h15.32.022,forced_choiceRT,2021.1.2,Win32,59.89458553,,,,,,,,9,Fast,g,1,1.8756,2,2,10,1,1,,,,,
,0.69,,,,,,,,,f.PNG,f,5f1b2a0146ce431186055813,2021-10-19_20h15.32.022,forced_choiceRT,2021.1.2,Win32,59.89458553,,,,,,,,9,Ontime,f,1,1.9454,2,3,11,0,1,,,,,
,0.31,,,,,,,,,f.PNG,f,5f1b2a0146ce431186055813,2021-10-19_20h15.32.022,forced_choiceRT,2021.1.2,Win32,59.89458553,,,,,,,,9,Ontime,f,1,1.979,3,0,12,0,1,,,,,
,0.15,,,,,,,,,j.PNG,j,5f1b2a0146ce431186055813,2021-10-19_20h15.32.022,forced_choiceRT,2021.1.2,Win32,59.89458553,,,,,,,,9,Ontime,j,1,2.0689,3,1,13,3,1,,,,,
,0.32,,,,,,,,,j.PNG,j,5f1b2a0146ce431186055813,2021-10-19_20h15.32.022,forced_choiceRT,2021.1.2,Win32,59.89458553,,,,,,,,9,Ontime,j,1,1.9866,3,2,14,3,1,,,,,
,0.79,,,,,,,,,h.PNG,h,5f1b2a0146ce431186055813,2021-10-19_20h15.32.022,forced_choiceRT,2021.1.2,Win32,59.89458553,,,,,,,,9,Ontime,h,1,2.0345,3,3,15,2,1,,,,,
,0.97,,,,,,,,,g.PNG,g,5f1b2a0146ce431186055813,2021-10-19_20h15.32.022,forced_choiceRT,2021.1.2,Win32,59.89458553,,,,,,,,9,Ontime,g,1,2.0414,4,0,16,1,1,,,,,
,0.2,,,,,,,,,j.PNG,j,5f1b2a0146ce431186055813,2021-10-19_20h15.32.022,forced_choiceRT,2021.1.2,Win32,59.89458553,,,,,,,,9,Ontime,j,1,1.9365,4,1,17,3,1,,,,,
,1.44,,,,,,,,,f.PNG,f,5f1b2a0146ce431186055813,2021-10-19_20h15.32.022,forced_choiceRT,2021.1.2,Win32,59.89458553,,,,,,,,9,Ontime,f,1,2.066,4,2,18,0,1,,,,,
,1.79,,,,,,,,,h.PNG,h,5f1b2a0146ce431186055813,2021-10-19_20h15.32.022,forced_choiceRT,2021.1.2,Win32,59.89458553,,,,,,,,9,Slow,j,0,2.1035,4,3,19,2,1,,,,,
,0.71,,,,,,,,,g.PNG,g,5f1b2a0146ce431186055813,2021-10-19_20h15.32.022,forced_choiceRT,2021.1.2,Win32,59.89458553,,,,,,,,9,Ontime,h,0,2.0198,5,0,20,1,1,,,,,
,1.8,,,,,,,,,h.PNG,h,5f1b2a0146ce431186055813,2021-10-19_20h15.32.022,forced_choiceRT,2021.1.2,Win32,59.89458553,,,,,,,,9,Ontime,j,0,2.0018,5,1,21,2,1,,,,,
,0.2,,,,,,,,,f.PNG,f,5f1b2a0146ce431186055813,2021-10-19_20h15.32.022,forced_choiceRT,2021.1.2,Win32,59.89458553,,,,,,,,9,Ontime,f,1,1.9222,5,2,22,0,1,,,,,
,0.39,,,,,,,,,f.PNG,f,5f1b2a0146ce431186055813,2021-10-19_20h15.32.022,forced_choiceRT,2021.1.2,Win32,59.89458553,,,,,,,,9,Ontime,f,1,1.981,5,3,23,0,1,,,,,
,0.88,,,,,,,,,j.PNG,j,5f1b2a0146ce431186055813,2021-10-19_20h15.32.022,forced_choiceRT,2021.1.2,Win32,59.89458553,,,,,,,,9,Ontime,j,1,2.0703,6,0,24,3,1,,,,,
,1.58,,,,,,,,,g.PNG,g,5f1b2a0146ce431186055813,2021-10-19_20h15.32.022,forced_choiceRT,2021.1.2,Win32,59.89458553,,,,,,,,9,Slow,f,0,2.1951,6,1,25,1,1,,,,,
,0.09,,,,,,,,,h.PNG,h,5f1b2a0146ce431186055813,2021-10-19_20h15.32.022,forced_choiceRT,2021.1.2,Win32,59.89458553,,,,,,,,9,Ontime,h,1,1.9233,6,2,26,2,1,,,,,
,1.56,,,,,,,,,g.PNG,g,5f1b2a0146ce431186055813,2021-10-19_20h15.32.022,forced_choiceRT,2021.1.2,Win32,59.89458553,,,,,,,,9,Fast,j,0,1.8622,6,3,27,1,1,,,,,
,1.52,,,,,,,,,j.PNG,j,5f1b2a0146ce431186055813,2021-10-19_20h15.32.022,forced_choiceRT,2021.1.2,Win32,59.89458553,,,,,,,,9,Ontime,j,1,2.0598,7,0,28,3,1,,,,,
,0.61,,,,,,,,,g.PNG,g,5f1b2a0146ce431186055813,2021-10-19_20h15.32.022,forced_choiceRT,2021.1.2,Win32,59.89458553,,,,,,,,9,Ontime,g,1,2.0813,7,1,29,1,1,,,,,
,1.8,,,,,,,,,g.PNG,g,5f1b2a0146ce431186055813,2021-10-19_20h15.32.022,forced_choiceRT,2021.1.2,Win32,59.89458553,,,,,,,,9,Ontime,j,0,1.9666,7,2,30,1,1,,,,,
,1.55,,,,,,,,,j.PNG,j,5f1b2a0146ce431186055813,2021-10-19_20h15.32.022,forced_choiceRT,2021.1.2,Win32,59.89458553,,,,,,,,9,Ontime,j,1,1.9987,7,3,31,3,1,,,,,
,0.28,,,,,,,,,g.PNG,g,5f1b2a0146ce431186055813,2021-10-19_20h15.32.022,forced_choiceRT,2021.1.2,Win32,59.89458553,,,,,,,,9,Ontime,g,1,2.0328,8,0,32,1,1,,,,,
,0.17,,,,,,,,,j.PNG,j,5f1b2a0146ce431186055813,2021-10-19_20h15.32.022,forced_choiceRT,2021.1.2,Win32,59.89458553,,,,,,,,9,Ontime,j,1,1.9996,8,1,33,3,1,,,,,
,1,,,,,,,,,h.PNG,h,5f1b2a0146ce431186055813,2021-10-19_20h15.32.022,forced_choiceRT,2021.1.2,Win32,59.89458553,,,,,,,,9,Ontime,h,1,2.0637,8,2,34,2,1,,,,,
,0.49,,,,,,,,,f.PNG,f,5f1b2a0146ce431186055813,2021-10-19_20h15.32.022,forced_choiceRT,2021.1.2,Win32,59.89458553,,,,,,,,9,Ontime,f,1,2.0137,8,3,35,0,1,,,,,
,0.37,,,,,,,,,h.PNG,h,5f1b2a0146ce431186055813,2021-10-19_20h15.32.022,forced_choiceRT,2021.1.2,Win32,59.89458553,,,,,,,,9,Ontime,h,1,2.0127,9,0,36,2,1,,,,,
,0.99,,,,,,,,,j.PNG,j,5f1b2a0146ce431186055813,2021-10-19_20h15.32.022,forced_choiceRT,2021.1.2,Win32,59.89458553,,,,,,,,9,Ontime,j,1,2.0763,9,1,37,3,1,,,,,
,0.84,,,,,,,,,g.PNG,g,5f1b2a0146ce431186055813,2021-10-19_20h15.32.022,forced_choiceRT,2021.1.2,Win32,59.89458553,,,,,,,,9,Ontime,g,1,2.0096,9,2,38,1,1,,,,,
,0.8,,,,,,,,,f.PNG,f,5f1b2a0146ce431186055813,2021-10-19_20h15.32.022,forced_choiceRT,2021.1.2,Win32,59.89458553,,,,,,,,9,Ontime,f,1,1.9368,9,3,39,0,1,,,,,
,,,,,,,,,,,,5f1b2a0146ce431186055813,2021-10-19_20h15.32.022,forced_choiceRT,2021.1.2,Win32,59.89458553,,,,,,,,,,,,,,,,,,8,0,8,0,1
,1.26,,,,,,,,,f.PNG,f,5f1b2a0146ce431186055813,2021-10-19_20h15.32.022,forced_choiceRT,2021.1.2,Win32,59.89458553,,,,,,,,10,Ontime,f,1,1.9889,0,0,0,0,1,,,,,
,1.31,,,,,,,,,g.PNG,g,5f1b2a0146ce431186055813,2021-10-19_20h15.32.022,forced_choiceRT,2021.1.2,Win32,59.89458553,,,,,,,,10,Ontime,f,0,1.9787,0,1,1,1,1,,,,,
,0.08,,,,,,,,,j.PNG,j,5f1b2a0146ce431186055813,2021-10-19_20h15.32.022,forced_choiceRT,2021.1.2,Win32,59.89458553,,,,,,,,10,Ontime,j,1,1.9401,0,2,2,3,1,,,,,
,1.21,,,,,,,,,g.PNG,g,5f1b2a0146ce431186055813,2021-10-19_20h15.32.022,forced_choiceRT,2021.1.2,Win32,59.89458553,,,,,,,,10,Ontime,g,1,2.0623,0,3,3,1,1,,,,,
,1.81,,,,,,,,,f.PNG,f,5f1b2a0146ce431186055813,2021-10-19_20h15.32.022,forced_choiceRT,2021.1.2,Win32,59.89458553,,,,,,,,10,Ontime,j,0,2.02,1,0,4,0,1,,,,,
,1.08,,,,,,,,,f.PNG,f,5f1b2a0146ce431186055813,2021-10-19_20h15.32.022,forced_choiceRT,2021.1.2,Win32,59.89458553,,,,,,,,10,Ontime,f,1,1.9622,1,1,5,0,1,,,,,
,1.26,,,,,,,,,f.PNG,f,5f1b2a0146ce431186055813,2021-10-19_20h15.32.022,forced_choiceRT,2021.1.2,Win32,59.89458553,,,,,,,,10,Ontime,f,1,2.0111,1,2,6,0,1,,,,,
,1.63,,,,,,,,,j.PNG,j,5f1b2a0146ce431186055813,2021-10-19_20h15.32.022,forced_choiceRT,2021.1.2,Win32,59.89458553,,,,,,,,10,Ontime,j,1,2.076,1,3,7,3,1,,,,,
,0.33,,,,,,,,,f.PNG,f,5f1b2a0146ce431186055813,2021-10-19_20h15.32.022,forced_choiceRT,2021.1.2,Win32,59.89458553,,,,,,,,10,Ontime,f,1,1.9684,2,0,8,0,1,,,,,
,0.41,,,,,,,,,g.PNG,g,5f1b2a0146ce431186055813,2021-10-19_20h15.32.022,forced_choiceRT,2021.1.2,Win32,59.89458553,,,,,,,,10,Ontime,g,1,2.0264,2,1,9,1,1,,,,,
,0.11,,,,,,,,,h.PNG,h,5f1b2a0146ce431186055813,2021-10-19_20h15.32.022,forced_choiceRT,2021.1.2,Win32,59.89458553,,,,,,,,10,Ontime,h,1,1.9707,2,2,10,2,1,,,,,
,0.73,,,,,,,,,h.PNG,h,5f1b2a0146ce431186055813,2021-10-19_20h15.32.022,forced_choiceRT,2021.1.2,Win32,59.89458553,,,,,,,,10,Fast,h,1,1.6261,2,3,11,2,1,,,,,
,0.41,,,,,,,,,h.PNG,h,5f1b2a0146ce431186055813,2021-10-19_20h15.32.022,forced_choiceRT,2021.1.2,Win32,59.89458553,,,,,,,,10,Ontime,h,1,2.0417,3,0,12,2,1,,,,,
,1.44,,,,,,,,,h.PNG,h,5f1b2a0146ce431186055813,2021-10-19_20h15.32.022,forced_choiceRT,2021.1.2,Win32,59.89458553,,,,,,,,10,Ontime,h,1,2.0798,3,1,13,2,1,,,,,
,1.79,,,,,,,,,j.PNG,j,5f1b2a0146ce431186055813,2021-10-19_20h15.32.022,forced_choiceRT,2021.1.2,Win32,59.89458553,,,,,,,,10,Ontime,j,1,2.029,3,2,14,3,1,,,,,
,1.33,,,,,,,,,g.PNG,g,5f1b2a0146ce431186055813,2021-10-19_20h15.32.022,forced_choiceRT,2021.1.2,Win32,59.89458553,,,,,,,,10,Slow,g,1,2.2116,3,3,15,1,1,,,,,
,0.41,,,,,,,,,g.PNG,g,5f1b2a0146ce431186055813,2021-10-19_20h15.32.022,forced_choiceRT,2021.1.2,Win32,59.89458553,,,,,,,,10,Ontime,g,1,1.9791,4,0,16,1,1,,,,,
,1.34,,,,,,,,,f.PNG,f,5f1b2a0146ce431186055813,2021-10-19_20h15.32.022,forced_choiceRT,2021.1.2,Win32,59.89458553,,,,,,,,10,Slow,f,1,2.2364,4,1,17,0,1,,,,,
,0.23,,,,,,,,,g.PNG,g,5f1b2a0146ce431186055813,2021-10-19_20h15.32.022,forced_choiceRT,2021.1.2,Win32,59.89458553,,,,,,,,10,Ontime,g,1,1.9951,4,2,18,1,1,,,,,
,1.95,,,,,,,,,j.PNG,j,5f1b2a0146ce431186055813,2021-10-19_20h15.32.022,forced_choiceRT,2021.1.2,Win32,59.89458553,,,,,,,,10,Ontime,j,1,2.0669,4,3,19,3,1,,,,,
,1.6,,,,,,,,,g.PNG,g,5f1b2a0146ce431186055813,2021-10-19_20h15.32.022,forced_choiceRT,2021.1.2,Win32,59.89458553,,,,,,,,10,Slow,f,0,2.1528,5,0,20,1,1,,,,,
,1.41,,,,,,,,,j.PNG,j,5f1b2a0146ce431186055813,2021-10-19_20h15.32.022,forced_choiceRT,2021.1.2,Win32,59.89458553,,,,,,,,10,Ontime,j,1,2.0036,5,1,21,3,1,,,,,
,0.15,,,,,,,,,j.PNG,j,5f1b2a0146ce431186055813,2021-10-19_20h15.32.022,forced_choiceRT,2021.1.2,Win32,59.89458553,,,,,,,,10,Ontime,j,1,1.9214,5,2,22,3,1,,,,,
,0.82,,,,,,,,,j.PNG,j,5f1b2a0146ce431186055813,2021-10-19_20h15.32.022,forced_choiceRT,2021.1.2,Win32,59.89458553,,,,,,,,10,Ontime,j,1,2.0215,5,3,23,3,1,,,,,
,1.9,,,,,,,,,j.PNG,j,5f1b2a0146ce431186055813,2021-10-19_20h15.32.022,forced_choiceRT,2021.1.2,Win32,59.89458553,,,,,,,,10,Ontime,j,1,2.0764,6,0,24,3,1,,,,,
,0.63,,,,,,,,,g.PNG,g,5f1b2a0146ce431186055813,2021-10-19_20h15.32.022,forced_choiceRT,2021.1.2,Win32,59.89458553,,,,,,,,10,Slow,g,1,2.1049,6,1,25,1,1,,,,,
,1.02,,,,,,,,,j.PNG,j,5f1b2a0146ce431186055813,2021-10-19_20h15.32.022,forced_choiceRT,2021.1.2,Win32,59.89458553,,,,,,,,10,Ontime,j,1,1.9571,6,2,26,3,1,,,,,
,0.23,,,,,,,,,f.PNG,f,5f1b2a0146ce431186055813,2021-10-19_20h15.32.022,forced_choiceRT,2021.1.2,Win32,59.89458553,,,,,,,,10,Ontime,f,1,1.9904,6,3,27,0,1,,,,,
,0.56,,,,,,,,,f.PNG,f,5f1b2a0146ce431186055813,2021-10-19_20h15.32.022,forced_choiceRT,2021.1.2,Win32,59.89458553,,,,,,,,10,Ontime,f,1,1.9664,7,0,28,0,1,,,,,
,1.47,,,,,,,,,g.PNG,g,5f1b2a0146ce431186055813,2021-10-19_20h15.32.022,forced_choiceRT,2021.1.2,Win32,59.89458553,,,,,,,,10,Ontime,f,0,2.0884,7,1,29,1,1,,,,,
,0.89,,,,,,,,,h.PNG,h,5f1b2a0146ce431186055813,2021-10-19_20h15.32.022,forced_choiceRT,2021.1.2,Win32,59.89458553,,,,,,,,10,Ontime,h,1,2.0836,7,2,30,2,1,,,,,
,1.84,,,,,,,,,h.PNG,h,5f1b2a0146ce431186055813,2021-10-19_20h15.32.022,forced_choiceRT,2021.1.2,Win32,59.89458553,,,,,,,,10,Ontime,j,0,2.0173,7,3,31,2,1,,,,,
,1.53,,,,,,,,,h.PNG,h,5f1b2a0146ce431186055813,2021-10-19_20h15.32.022,forced_choiceRT,2021.1.2,Win32,59.89458553,,,,,,,,10,Ontime,j,0,2.0165,8,0,32,2,1,,,,,
,1.31,,,,,,,,,h.PNG,h,5f1b2a0146ce431186055813,2021-10-19_20h15.32.022,forced_choiceRT,2021.1.2,Win32,59.89458553,,,,,,,,10,Ontime,h,1,2.081,8,1,33,2,1,,,,,
,1.38,,,,,,,,,f.PNG,f,5f1b2a0146ce431186055813,2021-10-19_20h15.32.022,forced_choiceRT,2021.1.2,Win32,59.89458553,,,,,,,,10,Slow,f,1,2.1493,8,2,34,0,1,,,,,
,0.03,,,,,,,,,h.PNG,h,5f1b2a0146ce431186055813,2021-10-19_20h15.32.022,forced_choiceRT,2021.1.2,Win32,59.89458553,,,,,,,,10,Ontime,h,1,1.9895,8,3,35,2,1,,,,,
,0.7,,,,,,,,,j.PNG,j,5f1b2a0146ce431186055813,2021-10-19_20h15.32.022,forced_choiceRT,2021.1.2,Win32,59.89458553,,,,,,,,10,Ontime,j,1,2.0076,9,0,36,3,1,,,,,
,1.85,,,,,,,,,f.PNG,f,5f1b2a0146ce431186055813,2021-10-19_20h15.32.022,forced_choiceRT,2021.1.2,Win32,59.89458553,,,,,,,,10,Ontime,j,0,2.0072,9,1,37,0,1,,,,,
,1.43,,,,,,,,,h.PNG,h,5f1b2a0146ce431186055813,2021-10-19_20h15.32.022,forced_choiceRT,2021.1.2,Win32,59.89458553,,,,,,,,10,Slow,h,1,2.399,9,2,38,2,1,,,,,
,0.64,,,,,,,,,g.PNG,g,5f1b2a0146ce431186055813,2021-10-19_20h15.32.022,forced_choiceRT,2021.1.2,Win32,59.89458553,,,,,,,,10,Ontime,g,1,2.0301,9,3,39,1,1,,,,,
,,,,,,,,,,,,5f1b2a0146ce431186055813,2021-10-19_20h15.32.022,forced_choiceRT,2021.1.2,Win32,59.89458553,,,,,,,,,,,,,,,,,,9,0,9,0,1
