IP_Addresss,target_onset,trial_resp_sp.keys,trial_resp_sp.corr,trial_resp_sp.rt,trials_train_loop.thisRepN,trials_train_loop.thisTrialN,trials_train_loop.thisN,trials_train_loop.thisIndex,trials_train_loop.ran,pic,correct_key,participant,date,expName,psychopyVersion,OS,frameRate,trial_resp_timing.keys,trial_resp_timing.rt,trials_train_timing.thisRepN,trials_train_timing.thisTrialN,trials_train_timing.thisN,trials_train_timing.thisIndex,trials_train_timing.ran,block_id,ontime,forcedRT_resp.keys,forcedRT_resp.corr,forcedRT_resp.rt,trials.thisRepN,trials.thisTrialN,trials.thisN,trials.thisIndex,trials.ran,blocks.thisRepN,blocks.thisTrialN,blocks.thisN,blocks.thisIndex,blocks.ran
45.46.209.101,0,f,1,1.0495,0,0,0,0,1,f.PNG,f,5f1f31b2a78ed40ea1d5e843,2021-10-19_21h16.56.679,forced_choiceRT,2021.1.2,Win32,60.0132029,,,,,,,,,,,,,,,,,,,,,,
,0,g,0,1.4552,0,1,1,2,1,h.PNG,h,5f1f31b2a78ed40ea1d5e843,2021-10-19_21h16.56.679,forced_choiceRT,2021.1.2,Win32,60.0132029,,,,,,,,,,,,,,,,,,,,,,
,0,f,1,3.1726,0,2,2,0,1,f.PNG,f,5f1f31b2a78ed40ea1d5e843,2021-10-19_21h16.56.679,forced_choiceRT,2021.1.2,Win32,60.0132029,,,,,,,,,,,,,,,,,,,,,,
,0,f,1,0.8594,0,3,3,0,1,f.PNG,f,5f1f31b2a78ed40ea1d5e843,2021-10-19_21h16.56.679,forced_choiceRT,2021.1.2,Win32,60.0132029,,,,,,,,,,,,,,,,,,,,,,
,0,g,1,1.6248,1,0,4,1,1,g.PNG,g,5f1f31b2a78ed40ea1d5e843,2021-10-19_21h16.56.679,forced_choiceRT,2021.1.2,Win32,60.0132029,,,,,,,,,,,,,,,,,,,,,,
,0,j,1,0.9901,1,1,5,3,1,j.PNG,j,5f1f31b2a78ed40ea1d5e843,2021-10-19_21h16.56.679,forced_choiceRT,2021.1.2,Win32,60.0132029,,,,,,,,,,,,,,,,,,,,,,
,0,g,1,0.9722,1,2,6,1,1,g.PNG,g,5f1f31b2a78ed40ea1d5e843,2021-10-19_21h16.56.679,forced_choiceRT,2021.1.2,Win32,60.0132029,,,,,,,,,,,,,,,,,,,,,,
,0,j,1,0.857,1,3,7,3,1,j.PNG,j,5f1f31b2a78ed40ea1d5e843,2021-10-19_21h16.56.679,forced_choiceRT,2021.1.2,Win32,60.0132029,,,,,,,,,,,,,,,,,,,,,,
,0,f,1,0.7435,2,0,8,0,1,f.PNG,f,5f1f31b2a78ed40ea1d5e843,2021-10-19_21h16.56.679,forced_choiceRT,2021.1.2,Win32,60.0132029,,,,,,,,,,,,,,,,,,,,,,
,0,g,1,0.9786,2,1,9,1,1,g.PNG,g,5f1f31b2a78ed40ea1d5e843,2021-10-19_21h16.56.679,forced_choiceRT,2021.1.2,Win32,60.0132029,,,,,,,,,,,,,,,,,,,,,,
,0,j,1,0.7555,2,2,10,3,1,j.PNG,j,5f1f31b2a78ed40ea1d5e843,2021-10-19_21h16.56.679,forced_choiceRT,2021.1.2,Win32,60.0132029,,,,,,,,,,,,,,,,,,,,,,
,0,j,1,0.8589,2,3,11,3,1,j.PNG,j,5f1f31b2a78ed40ea1d5e843,2021-10-19_21h16.56.679,forced_choiceRT,2021.1.2,Win32,60.0132029,,,,,,,,,,,,,,,,,,,,,,
,0,h,1,1.0411,3,0,12,2,1,h.PNG,h,5f1f31b2a78ed40ea1d5e843,2021-10-19_21h16.56.679,forced_choiceRT,2021.1.2,Win32,60.0132029,,,,,,,,,,,,,,,,,,,,,,
,0,j,1,0.7888,3,1,13,3,1,j.PNG,j,5f1f31b2a78ed40ea1d5e843,2021-10-19_21h16.56.679,forced_choiceRT,2021.1.2,Win32,60.0132029,,,,,,,,,,,,,,,,,,,,,,
,0,f,1,0.8906,3,2,14,0,1,f.PNG,f,5f1f31b2a78ed40ea1d5e843,2021-10-19_21h16.56.679,forced_choiceRT,2021.1.2,Win32,60.0132029,,,,,,,,,,,,,,,,,,,,,,
,0,h,1,1.122,3,3,15,2,1,h.PNG,h,5f1f31b2a78ed40ea1d5e843,2021-10-19_21h16.56.679,forced_choiceRT,2021.1.2,Win32,60.0132029,,,,,,,,,,,,,,,,,,,,,,
,0,f,1,0.7246,4,0,16,0,1,f.PNG,f,5f1f31b2a78ed40ea1d5e843,2021-10-19_21h16.56.679,forced_choiceRT,2021.1.2,Win32,60.0132029,,,,,,,,,,,,,,,,,,,,,,
,0,j,1,0.7217,4,1,17,3,1,j.PNG,j,5f1f31b2a78ed40ea1d5e843,2021-10-19_21h16.56.679,forced_choiceRT,2021.1.2,Win32,60.0132029,,,,,,,,,,,,,,,,,,,,,,
,0,j,1,0.5906,4,2,18,3,1,j.PNG,j,5f1f31b2a78ed40ea1d5e843,2021-10-19_21h16.56.679,forced_choiceRT,2021.1.2,Win32,60.0132029,,,,,,,,,,,,,,,,,,,,,,
,0,g,1,0.7767,4,3,19,1,1,g.PNG,g,5f1f31b2a78ed40ea1d5e843,2021-10-19_21h16.56.679,forced_choiceRT,2021.1.2,Win32,60.0132029,,,,,,,,,,,,,,,,,,,,,,
,0,h,1,0.9398,5,0,20,2,1,h.PNG,h,5f1f31b2a78ed40ea1d5e843,2021-10-19_21h16.56.679,forced_choiceRT,2021.1.2,Win32,60.0132029,,,,,,,,,,,,,,,,,,,,,,
,0,f,1,0.64,5,1,21,0,1,f.PNG,f,5f1f31b2a78ed40ea1d5e843,2021-10-19_21h16.56.679,forced_choiceRT,2021.1.2,Win32,60.0132029,,,,,,,,,,,,,,,,,,,,,,
,0,g,1,0.9405,5,2,22,1,1,g.PNG,g,5f1f31b2a78ed40ea1d5e843,2021-10-19_21h16.56.679,forced_choiceRT,2021.1.2,Win32,60.0132029,,,,,,,,,,,,,,,,,,,,,,
,0,h,1,0.7237,5,3,23,2,1,h.PNG,h,5f1f31b2a78ed40ea1d5e843,2021-10-19_21h16.56.679,forced_choiceRT,2021.1.2,Win32,60.0132029,,,,,,,,,,,,,,,,,,,,,,
,0,h,1,0.6437,6,0,24,2,1,h.PNG,h,5f1f31b2a78ed40ea1d5e843,2021-10-19_21h16.56.679,forced_choiceRT,2021.1.2,Win32,60.0132029,,,,,,,,,,,,,,,,,,,,,,
,0,j,1,0.7249,6,1,25,3,1,j.PNG,j,5f1f31b2a78ed40ea1d5e843,2021-10-19_21h16.56.679,forced_choiceRT,2021.1.2,Win32,60.0132029,,,,,,,,,,,,,,,,,,,,,,
,0,g,1,0.8564,6,2,26,1,1,g.PNG,g,5f1f31b2a78ed40ea1d5e843,2021-10-19_21h16.56.679,forced_choiceRT,2021.1.2,Win32,60.0132029,,,,,,,,,,,,,,,,,,,,,,
,0,f,1,0.6065,6,3,27,0,1,f.PNG,f,5f1f31b2a78ed40ea1d5e843,2021-10-19_21h16.56.679,forced_choiceRT,2021.1.2,Win32,60.0132029,,,,,,,,,,,,,,,,,,,,,,
,0,j,1,0.5725,7,0,28,3,1,j.PNG,j,5f1f31b2a78ed40ea1d5e843,2021-10-19_21h16.56.679,forced_choiceRT,2021.1.2,Win32,60.0132029,,,,,,,,,,,,,,,,,,,,,,
,0,f,1,0.6776,7,1,29,0,1,f.PNG,f,5f1f31b2a78ed40ea1d5e843,2021-10-19_21h16.56.679,forced_choiceRT,2021.1.2,Win32,60.0132029,,,,,,,,,,,,,,,,,,,,,,
,0,f,1,0.7115,7,2,30,0,1,f.PNG,f,5f1f31b2a78ed40ea1d5e843,2021-10-19_21h16.56.679,forced_choiceRT,2021.1.2,Win32,60.0132029,,,,,,,,,,,,,,,,,,,,,,
,0,f,1,0.5742,7,3,31,0,1,f.PNG,f,5f1f31b2a78ed40ea1d5e843,2021-10-19_21h16.56.679,forced_choiceRT,2021.1.2,Win32,60.0132029,,,,,,,,,,,,,,,,,,,,,,
,0,h,1,0.8728,8,0,32,2,1,h.PNG,h,5f1f31b2a78ed40ea1d5e843,2021-10-19_21h16.56.679,forced_choiceRT,2021.1.2,Win32,60.0132029,,,,,,,,,,,,,,,,,,,,,,
,0,f,1,0.6894,8,1,33,0,1,f.PNG,f,5f1f31b2a78ed40ea1d5e843,2021-10-19_21h16.56.679,forced_choiceRT,2021.1.2,Win32,60.0132029,,,,,,,,,,,,,,,,,,,,,,
,0,h,1,0.6741,8,2,34,2,1,h.PNG,h,5f1f31b2a78ed40ea1d5e843,2021-10-19_21h16.56.679,forced_choiceRT,2021.1.2,Win32,60.0132029,,,,,,,,,,,,,,,,,,,,,,
,0,h,1,0.5116,8,3,35,2,1,h.PNG,h,5f1f31b2a78ed40ea1d5e843,2021-10-19_21h16.56.679,forced_choiceRT,2021.1.2,Win32,60.0132029,,,,,,,,,,,,,,,,,,,,,,
,0,f,1,0.527,9,0,36,0,1,f.PNG,f,5f1f31b2a78ed40ea1d5e843,2021-10-19_21h16.56.679,forced_choiceRT,2021.1.2,Win32,60.0132029,,,,,,,,,,,,,,,,,,,,,,
,0,j,1,0.6253,9,1,37,3,1,j.PNG,j,5f1f31b2a78ed40ea1d5e843,2021-10-19_21h16.56.679,forced_choiceRT,2021.1.2,Win32,60.0132029,,,,,,,,,,,,,,,,,,,,,,
,0,g,1,0.7761,9,2,38,1,1,g.PNG,g,5f1f31b2a78ed40ea1d5e843,2021-10-19_21h16.56.679,forced_choiceRT,2021.1.2,Win32,60.0132029,,,,,,,,,,,,,,,,,,,,,,
,0,h,1,0.6083,9,3,39,2,1,h.PNG,h,5f1f31b2a78ed40ea1d5e843,2021-10-19_21h16.56.679,forced_choiceRT,2021.1.2,Win32,60.0132029,,,,,,,,,,,,,,,,,,,,,,
,0,g,1,0.6565,10,0,40,1,1,g.PNG,g,5f1f31b2a78ed40ea1d5e843,2021-10-19_21h16.56.679,forced_choiceRT,2021.1.2,Win32,60.0132029,,,,,,,,,,,,,,,,,,,,,,
,0,h,0,0.6057,10,1,41,3,1,j.PNG,j,5f1f31b2a78ed40ea1d5e843,2021-10-19_21h16.56.679,forced_choiceRT,2021.1.2,Win32,60.0132029,,,,,,,,,,,,,,,,,,,,,,
,0,h,1,1.493,10,2,42,2,1,h.PNG,h,5f1f31b2a78ed40ea1d5e843,2021-10-19_21h16.56.679,forced_choiceRT,2021.1.2,Win32,60.0132029,,,,,,,,,,,,,,,,,,,,,,
,0,g,1,0.8921,10,3,43,1,1,g.PNG,g,5f1f31b2a78ed40ea1d5e843,2021-10-19_21h16.56.679,forced_choiceRT,2021.1.2,Win32,60.0132029,,,,,,,,,,,,,,,,,,,,,,
,0,j,1,0.5884,11,0,44,3,1,j.PNG,j,5f1f31b2a78ed40ea1d5e843,2021-10-19_21h16.56.679,forced_choiceRT,2021.1.2,Win32,60.0132029,,,,,,,,,,,,,,,,,,,,,,
,0,g,1,0.8401,11,1,45,1,1,g.PNG,g,5f1f31b2a78ed40ea1d5e843,2021-10-19_21h16.56.679,forced_choiceRT,2021.1.2,Win32,60.0132029,,,,,,,,,,,,,,,,,,,,,,
,0,f,1,0.605,11,2,46,0,1,f.PNG,f,5f1f31b2a78ed40ea1d5e843,2021-10-19_21h16.56.679,forced_choiceRT,2021.1.2,Win32,60.0132029,,,,,,,,,,,,,,,,,,,,,,
,0,h,1,0.7724,11,3,47,2,1,h.PNG,h,5f1f31b2a78ed40ea1d5e843,2021-10-19_21h16.56.679,forced_choiceRT,2021.1.2,Win32,60.0132029,,,,,,,,,,,,,,,,,,,,,,
,0,g,1,0.7903,12,0,48,1,1,g.PNG,g,5f1f31b2a78ed40ea1d5e843,2021-10-19_21h16.56.679,forced_choiceRT,2021.1.2,Win32,60.0132029,,,,,,,,,,,,,,,,,,,,,,
,0,j,1,0.6913,12,1,49,3,1,j.PNG,j,5f1f31b2a78ed40ea1d5e843,2021-10-19_21h16.56.679,forced_choiceRT,2021.1.2,Win32,60.0132029,,,,,,,,,,,,,,,,,,,,,,
,0,g,1,0.708,12,2,50,1,1,g.PNG,g,5f1f31b2a78ed40ea1d5e843,2021-10-19_21h16.56.679,forced_choiceRT,2021.1.2,Win32,60.0132029,,,,,,,,,,,,,,,,,,,,,,
,0,h,1,0.7887,12,3,51,2,1,h.PNG,h,5f1f31b2a78ed40ea1d5e843,2021-10-19_21h16.56.679,forced_choiceRT,2021.1.2,Win32,60.0132029,,,,,,,,,,,,,,,,,,,,,,
,0,j,1,0.6565,13,0,52,3,1,j.PNG,j,5f1f31b2a78ed40ea1d5e843,2021-10-19_21h16.56.679,forced_choiceRT,2021.1.2,Win32,60.0132029,,,,,,,,,,,,,,,,,,,,,,
,0,g,1,0.6104,13,1,53,1,1,g.PNG,g,5f1f31b2a78ed40ea1d5e843,2021-10-19_21h16.56.679,forced_choiceRT,2021.1.2,Win32,60.0132029,,,,,,,,,,,,,,,,,,,,,,
,0,g,1,0.5571,13,2,54,1,1,g.PNG,g,5f1f31b2a78ed40ea1d5e843,2021-10-19_21h16.56.679,forced_choiceRT,2021.1.2,Win32,60.0132029,,,,,,,,,,,,,,,,,,,,,,
,0,f,1,0.6383,13,3,55,0,1,f.PNG,f,5f1f31b2a78ed40ea1d5e843,2021-10-19_21h16.56.679,forced_choiceRT,2021.1.2,Win32,60.0132029,,,,,,,,,,,,,,,,,,,,,,
,0,h,1,0.7731,14,0,56,2,1,h.PNG,h,5f1f31b2a78ed40ea1d5e843,2021-10-19_21h16.56.679,forced_choiceRT,2021.1.2,Win32,60.0132029,,,,,,,,,,,,,,,,,,,,,,
,0,j,1,0.6755,14,1,57,3,1,j.PNG,j,5f1f31b2a78ed40ea1d5e843,2021-10-19_21h16.56.679,forced_choiceRT,2021.1.2,Win32,60.0132029,,,,,,,,,,,,,,,,,,,,,,
,0,g,1,0.5739,14,2,58,1,1,g.PNG,g,5f1f31b2a78ed40ea1d5e843,2021-10-19_21h16.56.679,forced_choiceRT,2021.1.2,Win32,60.0132029,,,,,,,,,,,,,,,,,,,,,,
,0,h,1,0.6769,14,3,59,2,1,h.PNG,h,5f1f31b2a78ed40ea1d5e843,2021-10-19_21h16.56.679,forced_choiceRT,2021.1.2,Win32,60.0132029,,,,,,,,,,,,,,,,,,,,,,
,,,,,,,,,,,,5f1f31b2a78ed40ea1d5e843,2021-10-19_21h16.56.679,forced_choiceRT,2021.1.2,Win32,60.0132029,f,0.9445,0,0,0,0,1,,,,,,,,,,,,,,,
,,,,,,,,,,,,5f1f31b2a78ed40ea1d5e843,2021-10-19_21h16.56.679,forced_choiceRT,2021.1.2,Win32,60.0132029,f,2.2557,1,0,1,0,1,,,,,,,,,,,,,,,
,,,,,,,,,,,,5f1f31b2a78ed40ea1d5e843,2021-10-19_21h16.56.679,forced_choiceRT,2021.1.2,Win32,60.0132029,f,1.9072,2,0,2,0,1,,,,,,,,,,,,,,,
,,,,,,,,,,,,5f1f31b2a78ed40ea1d5e843,2021-10-19_21h16.56.679,forced_choiceRT,2021.1.2,Win32,60.0132029,f,1.9425,3,0,3,0,1,,,,,,,,,,,,,,,
,,,,,,,,,,,,5f1f31b2a78ed40ea1d5e843,2021-10-19_21h16.56.679,forced_choiceRT,2021.1.2,Win32,60.0132029,g,1.9248,4,0,4,0,1,,,,,,,,,,,,,,,
,,,,,,,,,,,,5f1f31b2a78ed40ea1d5e843,2021-10-19_21h16.56.679,forced_choiceRT,2021.1.2,Win32,60.0132029,g,1.8739,5,0,5,0,1,,,,,,,,,,,,,,,
,,,,,,,,,,,,5f1f31b2a78ed40ea1d5e843,2021-10-19_21h16.56.679,forced_choiceRT,2021.1.2,Win32,60.0132029,h,1.9428,6,0,6,0,1,,,,,,,,,,,,,,,
,,,,,,,,,,,,5f1f31b2a78ed40ea1d5e843,2021-10-19_21h16.56.679,forced_choiceRT,2021.1.2,Win32,60.0132029,j,1.975,7,0,7,0,1,,,,,,,,,,,,,,,
,,,,,,,,,,,,5f1f31b2a78ed40ea1d5e843,2021-10-19_21h16.56.679,forced_choiceRT,2021.1.2,Win32,60.0132029,f,2.0254,8,0,8,0,1,,,,,,,,,,,,,,,
,,,,,,,,,,,,5f1f31b2a78ed40ea1d5e843,2021-10-19_21h16.56.679,forced_choiceRT,2021.1.2,Win32,60.0132029,g,1.9621,9,0,9,0,1,,,,,,,,,,,,,,,
,,,,,,,,,,,,5f1f31b2a78ed40ea1d5e843,2021-10-19_21h16.56.679,forced_choiceRT,2021.1.2,Win32,60.0132029,h,1.9732,10,0,10,0,1,,,,,,,,,,,,,,,
,,,,,,,,,,,,5f1f31b2a78ed40ea1d5e843,2021-10-19_21h16.56.679,forced_choiceRT,2021.1.2,Win32,60.0132029,h,1.9585,11,0,11,0,1,,,,,,,,,,,,,,,
,,,,,,,,,,,,5f1f31b2a78ed40ea1d5e843,2021-10-19_21h16.56.679,forced_choiceRT,2021.1.2,Win32,60.0132029,h,1.9416,12,0,12,0,1,,,,,,,,,,,,,,,
,,,,,,,,,,,,5f1f31b2a78ed40ea1d5e843,2021-10-19_21h16.56.679,forced_choiceRT,2021.1.2,Win32,60.0132029,j,1.8934,13,0,13,0,1,,,,,,,,,,,,,,,
,,,,,,,,,,,,5f1f31b2a78ed40ea1d5e843,2021-10-19_21h16.56.679,forced_choiceRT,2021.1.2,Win32,60.0132029,j,2.0618,14,0,14,0,1,,,,,,,,,,,,,,,
,,,,,,,,,,,,5f1f31b2a78ed40ea1d5e843,2021-10-19_21h16.56.679,forced_choiceRT,2021.1.2,Win32,60.0132029,j,1.9425,15,0,15,0,1,,,,,,,,,,,,,,,
,,,,,,,,,,,,5f1f31b2a78ed40ea1d5e843,2021-10-19_21h16.56.679,forced_choiceRT,2021.1.2,Win32,60.0132029,j,1.9595,16,0,16,0,1,,,,,,,,,,,,,,,
,,,,,,,,,,,,5f1f31b2a78ed40ea1d5e843,2021-10-19_21h16.56.679,forced_choiceRT,2021.1.2,Win32,60.0132029,g,1.9782,17,0,17,0,1,,,,,,,,,,,,,,,
,,,,,,,,,,,,5f1f31b2a78ed40ea1d5e843,2021-10-19_21h16.56.679,forced_choiceRT,2021.1.2,Win32,60.0132029,h,1.926,18,0,18,0,1,,,,,,,,,,,,,,,
,,,,,,,,,,,,5f1f31b2a78ed40ea1d5e843,2021-10-19_21h16.56.679,forced_choiceRT,2021.1.2,Win32,60.0132029,j,1.9451,19,0,19,0,1,,,,,,,,,,,,,,,
,0.57,,,,,,,,,h.PNG,h,5f1f31b2a78ed40ea1d5e843,2021-10-19_21h16.56.679,forced_choiceRT,2021.1.2,Win32,60.0132029,,,,,,,,1,Ontime,h,1,1.9969,0,0,0,2,1,,,,,
,1.72,,,,,,,,,f.PNG,f,5f1f31b2a78ed40ea1d5e843,2021-10-19_21h16.56.679,forced_choiceRT,2021.1.2,Win32,60.0132029,,,,,,,,1,Slow,f,1,2.2705,0,1,1,0,1,,,,,
,1.03,,,,,,,,,h.PNG,h,5f1f31b2a78ed40ea1d5e843,2021-10-19_21h16.56.679,forced_choiceRT,2021.1.2,Win32,60.0132029,,,,,,,,1,Fast,h,1,1.8742,0,2,2,2,1,,,,,
,1.8,,,,,,,,,g.PNG,g,5f1f31b2a78ed40ea1d5e843,2021-10-19_21h16.56.679,forced_choiceRT,2021.1.2,Win32,60.0132029,,,,,,,,1,Slow,g,1,2.274,0,3,3,1,1,,,,,
,1.93,,,,,,,,,h.PNG,h,5f1f31b2a78ed40ea1d5e843,2021-10-19_21h16.56.679,forced_choiceRT,2021.1.2,Win32,60.0132029,,,,,,,,1,Slow,f,0,2.2615,1,0,4,2,1,,,,,
,1.02,,,,,,,,,h.PNG,h,5f1f31b2a78ed40ea1d5e843,2021-10-19_21h16.56.679,forced_choiceRT,2021.1.2,Win32,60.0132029,,,,,,,,1,Ontime,h,1,1.9583,1,1,5,2,1,,,,,
,1.6,,,,,,,,,f.PNG,f,5f1f31b2a78ed40ea1d5e843,2021-10-19_21h16.56.679,forced_choiceRT,2021.1.2,Win32,60.0132029,,,,,,,,1,Ontime,g,0,2.0915,1,2,6,0,1,,,,,
,1.94,,,,,,,,,g.PNG,g,5f1f31b2a78ed40ea1d5e843,2021-10-19_21h16.56.679,forced_choiceRT,2021.1.2,Win32,60.0132029,,,,,,,,1,Ontime,f,0,2.0918,1,3,7,1,1,,,,,
,0.09,,,,,,,,,f.PNG,f,5f1f31b2a78ed40ea1d5e843,2021-10-19_21h16.56.679,forced_choiceRT,2021.1.2,Win32,60.0132029,,,,,,,,1,Ontime,f,1,2.01,2,0,8,0,1,,,,,
,0.71,,,,,,,,,j.PNG,j,5f1f31b2a78ed40ea1d5e843,2021-10-19_21h16.56.679,forced_choiceRT,2021.1.2,Win32,60.0132029,,,,,,,,1,Ontime,j,1,1.9746,2,1,9,3,1,,,,,
,0.13,,,,,,,,,f.PNG,f,5f1f31b2a78ed40ea1d5e843,2021-10-19_21h16.56.679,forced_choiceRT,2021.1.2,Win32,60.0132029,,,,,,,,1,Ontime,f,1,1.974,2,2,10,0,1,,,,,
,1.72,,,,,,,,,g.PNG,g,5f1f31b2a78ed40ea1d5e843,2021-10-19_21h16.56.679,forced_choiceRT,2021.1.2,Win32,60.0132029,,,,,,,,1,Slow,h,0,2.121,2,3,11,1,1,,,,,
,0.73,,,,,,,,,j.PNG,j,5f1f31b2a78ed40ea1d5e843,2021-10-19_21h16.56.679,forced_choiceRT,2021.1.2,Win32,60.0132029,,,,,,,,1,Ontime,j,1,1.958,3,0,12,3,1,,,,,
,0.71,,,,,,,,,f.PNG,f,5f1f31b2a78ed40ea1d5e843,2021-10-19_21h16.56.679,forced_choiceRT,2021.1.2,Win32,60.0132029,,,,,,,,1,Ontime,f,1,1.9273,3,1,13,0,1,,,,,
,0.37,,,,,,,,,g.PNG,g,5f1f31b2a78ed40ea1d5e843,2021-10-19_21h16.56.679,forced_choiceRT,2021.1.2,Win32,60.0132029,,,,,,,,1,Ontime,g,1,1.911,3,2,14,1,1,,,,,
,1.44,,,,,,,,,j.PNG,j,5f1f31b2a78ed40ea1d5e843,2021-10-19_21h16.56.679,forced_choiceRT,2021.1.2,Win32,60.0132029,,,,,,,,1,Ontime,j,1,2.0251,3,3,15,3,1,,,,,
,1.84,,,,,,,,,j.PNG,j,5f1f31b2a78ed40ea1d5e843,2021-10-19_21h16.56.679,forced_choiceRT,2021.1.2,Win32,60.0132029,,,,,,,,1,Slow,j,1,6.9056,4,0,16,3,1,,,,,
,1.58,,,,,,,,,f.PNG,f,5f1f31b2a78ed40ea1d5e843,2021-10-19_21h16.56.679,forced_choiceRT,2021.1.2,Win32,60.0132029,,,,,,,,1,Ontime,f,1,2.0446,4,1,17,0,1,,,,,
,1,,,,,,,,,j.PNG,j,5f1f31b2a78ed40ea1d5e843,2021-10-19_21h16.56.679,forced_choiceRT,2021.1.2,Win32,60.0132029,,,,,,,,1,Ontime,j,1,1.9294,4,2,18,3,1,,,,,
,1.98,,,,,,,,,j.PNG,j,5f1f31b2a78ed40ea1d5e843,2021-10-19_21h16.56.679,forced_choiceRT,2021.1.2,Win32,60.0132029,,,,,,,,1,Slow,f,0,2.4071,4,3,19,3,1,,,,,
,0.52,,,,,,,,,f.PNG,f,5f1f31b2a78ed40ea1d5e843,2021-10-19_21h16.56.679,forced_choiceRT,2021.1.2,Win32,60.0132029,,,,,,,,1,Ontime,f,1,1.9753,5,0,20,0,1,,,,,
,0.73,,,,,,,,,f.PNG,f,5f1f31b2a78ed40ea1d5e843,2021-10-19_21h16.56.679,forced_choiceRT,2021.1.2,Win32,60.0132029,,,,,,,,1,Ontime,f,1,1.959,5,1,21,0,1,,,,,
,0.54,,,,,,,,,h.PNG,h,5f1f31b2a78ed40ea1d5e843,2021-10-19_21h16.56.679,forced_choiceRT,2021.1.2,Win32,60.0132029,,,,,,,,1,Ontime,h,1,1.9451,5,2,22,2,1,,,,,
,1.17,,,,,,,,,g.PNG,g,5f1f31b2a78ed40ea1d5e843,2021-10-19_21h16.56.679,forced_choiceRT,2021.1.2,Win32,60.0132029,,,,,,,,1,Ontime,g,1,1.9079,5,3,23,1,1,,,,,
,0.48,,,,,,,,,g.PNG,g,5f1f31b2a78ed40ea1d5e843,2021-10-19_21h16.56.679,forced_choiceRT,2021.1.2,Win32,60.0132029,,,,,,,,1,Ontime,g,1,1.9915,6,0,24,1,1,,,,,
,0.25,,,,,,,,,h.PNG,h,5f1f31b2a78ed40ea1d5e843,2021-10-19_21h16.56.679,forced_choiceRT,2021.1.2,Win32,60.0132029,,,,,,,,1,Ontime,h,1,1.9583,6,1,25,2,1,,,,,
,1.06,,,,,,,,,g.PNG,g,5f1f31b2a78ed40ea1d5e843,2021-10-19_21h16.56.679,forced_choiceRT,2021.1.2,Win32,60.0132029,,,,,,,,1,Ontime,g,1,2.009,6,2,26,1,1,,,,,
,0.23,,,,,,,,,j.PNG,j,5f1f31b2a78ed40ea1d5e843,2021-10-19_21h16.56.679,forced_choiceRT,2021.1.2,Win32,60.0132029,,,,,,,,1,Ontime,j,1,1.9914,6,3,27,3,1,,,,,
,0.66,,,,,,,,,g.PNG,g,5f1f31b2a78ed40ea1d5e843,2021-10-19_21h16.56.679,forced_choiceRT,2021.1.2,Win32,60.0132029,,,,,,,,1,Ontime,g,1,1.9076,7,0,28,1,1,,,,,
,0.66,,,,,,,,,h.PNG,h,5f1f31b2a78ed40ea1d5e843,2021-10-19_21h16.56.679,forced_choiceRT,2021.1.2,Win32,60.0132029,,,,,,,,1,Ontime,h,1,1.9589,7,1,29,2,1,,,,,
,1.38,,,,,,,,,j.PNG,j,5f1f31b2a78ed40ea1d5e843,2021-10-19_21h16.56.679,forced_choiceRT,2021.1.2,Win32,60.0132029,,,,,,,,1,Ontime,j,1,2.0098,7,2,30,3,1,,,,,
,1.15,,,,,,,,,f.PNG,f,5f1f31b2a78ed40ea1d5e843,2021-10-19_21h16.56.679,forced_choiceRT,2021.1.2,Win32,60.0132029,,,,,,,,1,Ontime,f,1,1.994,7,3,31,0,1,,,,,
,0.74,,,,,,,,,j.PNG,j,5f1f31b2a78ed40ea1d5e843,2021-10-19_21h16.56.679,forced_choiceRT,2021.1.2,Win32,60.0132029,,,,,,,,1,Ontime,j,1,1.9409,8,0,32,3,1,,,,,
,1.6,,,,,,,,,h.PNG,h,5f1f31b2a78ed40ea1d5e843,2021-10-19_21h16.56.679,forced_choiceRT,2021.1.2,Win32,60.0132029,,,,,,,,1,Ontime,h,1,1.9742,8,1,33,2,1,,,,,
,1.91,,,,,,,,,j.PNG,j,5f1f31b2a78ed40ea1d5e843,2021-10-19_21h16.56.679,forced_choiceRT,2021.1.2,Win32,60.0132029,,,,,,,,1,Slow,f,0,2.1884,8,2,34,3,1,,,,,
,1.55,,,,,,,,,f.PNG,f,5f1f31b2a78ed40ea1d5e843,2021-10-19_21h16.56.679,forced_choiceRT,2021.1.2,Win32,60.0132029,,,,,,,,1,Ontime,g,0,1.9754,8,3,35,0,1,,,,,
,0.2,,,,,,,,,h.PNG,h,5f1f31b2a78ed40ea1d5e843,2021-10-19_21h16.56.679,forced_choiceRT,2021.1.2,Win32,60.0132029,,,,,,,,1,Ontime,h,1,1.9081,9,0,36,2,1,,,,,
,0.71,,,,,,,,,g.PNG,g,5f1f31b2a78ed40ea1d5e843,2021-10-19_21h16.56.679,forced_choiceRT,2021.1.2,Win32,60.0132029,,,,,,,,1,Ontime,g,1,1.958,9,1,37,1,1,,,,,
,0.96,,,,,,,,,g.PNG,g,5f1f31b2a78ed40ea1d5e843,2021-10-19_21h16.56.679,forced_choiceRT,2021.1.2,Win32,60.0132029,,,,,,,,1,Ontime,g,1,2.0448,9,2,38,1,1,,,,,
,1.36,,,,,,,,,h.PNG,h,5f1f31b2a78ed40ea1d5e843,2021-10-19_21h16.56.679,forced_choiceRT,2021.1.2,Win32,60.0132029,,,,,,,,1,Ontime,h,1,1.9625,9,3,39,2,1,,,,,
,,,,,,,,,,,,5f1f31b2a78ed40ea1d5e843,2021-10-19_21h16.56.679,forced_choiceRT,2021.1.2,Win32,60.0132029,,,,,,,,,,,,,,,,,,0,0,0,0,1
,0.3,,,,,,,,,j.PNG,j,5f1f31b2a78ed40ea1d5e843,2021-10-19_21h16.56.679,forced_choiceRT,2021.1.2,Win32,60.0132029,,,,,,,,2,Fast,j,1,1.8709,0,0,0,3,1,,,,,
,1.76,,,,,,,,,j.PNG,j,5f1f31b2a78ed40ea1d5e843,2021-10-19_21h16.56.679,forced_choiceRT,2021.1.2,Win32,60.0132029,,,,,,,,2,Slow,j,1,2.2226,0,1,1,3,1,,,,,
,1.08,,,,,,,,,j.PNG,j,5f1f31b2a78ed40ea1d5e843,2021-10-19_21h16.56.679,forced_choiceRT,2021.1.2,Win32,60.0132029,,,,,,,,2,Ontime,j,1,1.9246,0,2,2,3,1,,,,,
,0.23,,,,,,,,,h.PNG,h,5f1f31b2a78ed40ea1d5e843,2021-10-19_21h16.56.679,forced_choiceRT,2021.1.2,Win32,60.0132029,,,,,,,,2,Ontime,h,1,1.9745,0,3,3,2,1,,,,,
,0.08,,,,,,,,,j.PNG,j,5f1f31b2a78ed40ea1d5e843,2021-10-19_21h16.56.679,forced_choiceRT,2021.1.2,Win32,60.0132029,,,,,,,,2,Ontime,j,1,1.9265,1,0,4,3,1,,,,,
,0.89,,,,,,,,,f.PNG,f,5f1f31b2a78ed40ea1d5e843,2021-10-19_21h16.56.679,forced_choiceRT,2021.1.2,Win32,60.0132029,,,,,,,,2,Ontime,f,1,1.9413,1,1,5,0,1,,,,,
,0.81,,,,,,,,,h.PNG,h,5f1f31b2a78ed40ea1d5e843,2021-10-19_21h16.56.679,forced_choiceRT,2021.1.2,Win32,60.0132029,,,,,,,,2,Ontime,h,1,1.9577,1,2,6,2,1,,,,,
,0.04,,,,,,,,,f.PNG,f,5f1f31b2a78ed40ea1d5e843,2021-10-19_21h16.56.679,forced_choiceRT,2021.1.2,Win32,60.0132029,,,,,,,,2,Fast,f,1,1.863,1,3,7,0,1,,,,,
,0.33,,,,,,,,,g.PNG,g,5f1f31b2a78ed40ea1d5e843,2021-10-19_21h16.56.679,forced_choiceRT,2021.1.2,Win32,60.0132029,,,,,,,,2,Ontime,g,1,2.0247,2,0,8,1,1,,,,,
,0.56,,,,,,,,,h.PNG,h,5f1f31b2a78ed40ea1d5e843,2021-10-19_21h16.56.679,forced_choiceRT,2021.1.2,Win32,60.0132029,,,,,,,,2,Ontime,h,1,1.9914,2,1,9,2,1,,,,,
,1.37,,,,,,,,,g.PNG,g,5f1f31b2a78ed40ea1d5e843,2021-10-19_21h16.56.679,forced_choiceRT,2021.1.2,Win32,60.0132029,,,,,,,,2,Ontime,g,1,1.9907,2,2,10,1,1,,,,,
,0.2,,,,,,,,,f.PNG,f,5f1f31b2a78ed40ea1d5e843,2021-10-19_21h16.56.679,forced_choiceRT,2021.1.2,Win32,60.0132029,,,,,,,,2,Ontime,f,1,1.9258,2,3,11,0,1,,,,,
,1.58,,,,,,,,,f.PNG,f,5f1f31b2a78ed40ea1d5e843,2021-10-19_21h16.56.679,forced_choiceRT,2021.1.2,Win32,60.0132029,,,,,,,,2,Ontime,h,0,2.0259,3,0,12,0,1,,,,,
,1.22,,,,,,,,,h.PNG,h,5f1f31b2a78ed40ea1d5e843,2021-10-19_21h16.56.679,forced_choiceRT,2021.1.2,Win32,60.0132029,,,,,,,,2,Ontime,h,1,1.9959,3,1,13,2,1,,,,,
,0.36,,,,,,,,,g.PNG,g,5f1f31b2a78ed40ea1d5e843,2021-10-19_21h16.56.679,forced_choiceRT,2021.1.2,Win32,60.0132029,,,,,,,,2,Ontime,g,1,1.9421,3,2,14,1,1,,,,,
,0.31,,,,,,,,,g.PNG,g,5f1f31b2a78ed40ea1d5e843,2021-10-19_21h16.56.679,forced_choiceRT,2021.1.2,Win32,60.0132029,,,,,,,,2,Ontime,g,1,1.9914,3,3,15,1,1,,,,,
,0.33,,,,,,,,,j.PNG,j,5f1f31b2a78ed40ea1d5e843,2021-10-19_21h16.56.679,forced_choiceRT,2021.1.2,Win32,60.0132029,,,,,,,,2,Ontime,j,1,1.9246,4,0,16,3,1,,,,,
,0.17,,,,,,,,,h.PNG,h,5f1f31b2a78ed40ea1d5e843,2021-10-19_21h16.56.679,forced_choiceRT,2021.1.2,Win32,60.0132029,,,,,,,,2,Ontime,h,1,1.941,4,1,17,2,1,,,,,
,1.38,,,,,,,,,h.PNG,h,5f1f31b2a78ed40ea1d5e843,2021-10-19_21h16.56.679,forced_choiceRT,2021.1.2,Win32,60.0132029,,,,,,,,2,Ontime,h,1,1.9739,4,2,18,2,1,,,,,
,0.92,,,,,,,,,f.PNG,f,5f1f31b2a78ed40ea1d5e843,2021-10-19_21h16.56.679,forced_choiceRT,2021.1.2,Win32,60.0132029,,,,,,,,2,Ontime,f,1,2.0418,4,3,19,0,1,,,,,
,0.1,,,,,,,,,f.PNG,f,5f1f31b2a78ed40ea1d5e843,2021-10-19_21h16.56.679,forced_choiceRT,2021.1.2,Win32,60.0132029,,,,,,,,2,Ontime,f,1,1.9419,5,0,20,0,1,,,,,
,0.4,,,,,,,,,h.PNG,h,5f1f31b2a78ed40ea1d5e843,2021-10-19_21h16.56.679,forced_choiceRT,2021.1.2,Win32,60.0132029,,,,,,,,2,Ontime,h,1,1.9101,5,1,21,2,1,,,,,
,1.54,,,,,,,,,h.PNG,h,5f1f31b2a78ed40ea1d5e843,2021-10-19_21h16.56.679,forced_choiceRT,2021.1.2,Win32,60.0132029,,,,,,,,2,Ontime,h,1,2.026,5,2,22,2,1,,,,,
,0.75,,,,,,,,,g.PNG,g,5f1f31b2a78ed40ea1d5e843,2021-10-19_21h16.56.679,forced_choiceRT,2021.1.2,Win32,60.0132029,,,,,,,,2,Ontime,g,1,1.962,5,3,23,1,1,,,,,
,1.67,,,,,,,,,f.PNG,f,5f1f31b2a78ed40ea1d5e843,2021-10-19_21h16.56.679,forced_choiceRT,2021.1.2,Win32,60.0132029,,,,,,,,2,Slow,g,0,2.1549,6,0,24,0,1,,,,,
,0.4,,,,,,,,,g.PNG,g,5f1f31b2a78ed40ea1d5e843,2021-10-19_21h16.56.679,forced_choiceRT,2021.1.2,Win32,60.0132029,,,,,,,,2,Ontime,g,1,1.9411,6,1,25,1,1,,,,,
,0.83,,,,,,,,,j.PNG,j,5f1f31b2a78ed40ea1d5e843,2021-10-19_21h16.56.679,forced_choiceRT,2021.1.2,Win32,60.0132029,,,,,,,,2,Fast,j,1,1.8751,6,2,26,3,1,,,,,
,0.07,,,,,,,,,j.PNG,j,5f1f31b2a78ed40ea1d5e843,2021-10-19_21h16.56.679,forced_choiceRT,2021.1.2,Win32,60.0132029,,,,,,,,2,Ontime,j,1,1.96,6,3,27,3,1,,,,,
,0.89,,,,,,,,,f.PNG,f,5f1f31b2a78ed40ea1d5e843,2021-10-19_21h16.56.679,forced_choiceRT,2021.1.2,Win32,60.0132029,,,,,,,,2,Ontime,f,1,1.9286,7,0,28,0,1,,,,,
,1.4,,,,,,,,,f.PNG,f,5f1f31b2a78ed40ea1d5e843,2021-10-19_21h16.56.679,forced_choiceRT,2021.1.2,Win32,60.0132029,,,,,,,,2,Ontime,f,1,1.9623,7,1,29,0,1,,,,,
,0.71,,,,,,,,,h.PNG,h,5f1f31b2a78ed40ea1d5e843,2021-10-19_21h16.56.679,forced_choiceRT,2021.1.2,Win32,60.0132029,,,,,,,,2,Ontime,h,1,2.0427,7,2,30,2,1,,,,,
,0.73,,,,,,,,,h.PNG,h,5f1f31b2a78ed40ea1d5e843,2021-10-19_21h16.56.679,forced_choiceRT,2021.1.2,Win32,60.0132029,,,,,,,,2,Ontime,h,1,1.995,7,3,31,2,1,,,,,
,1.39,,,,,,,,,g.PNG,g,5f1f31b2a78ed40ea1d5e843,2021-10-19_21h16.56.679,forced_choiceRT,2021.1.2,Win32,60.0132029,,,,,,,,2,Slow,f,0,2.1219,8,0,32,1,1,,,,,
,1.7,,,,,,,,,f.PNG,f,5f1f31b2a78ed40ea1d5e843,2021-10-19_21h16.56.679,forced_choiceRT,2021.1.2,Win32,60.0132029,,,,,,,,2,Slow,f,1,2.1877,8,1,33,0,1,,,,,
,1.75,,,,,,,,,j.PNG,j,5f1f31b2a78ed40ea1d5e843,2021-10-19_21h16.56.679,forced_choiceRT,2021.1.2,Win32,60.0132029,,,,,,,,2,Slow,f,0,2.2064,8,2,34,3,1,,,,,
,1.63,,,,,,,,,j.PNG,j,5f1f31b2a78ed40ea1d5e843,2021-10-19_21h16.56.679,forced_choiceRT,2021.1.2,Win32,60.0132029,,,,,,,,2,Ontime,j,1,2.0925,8,3,35,3,1,,,,,
,1.34,,,,,,,,,j.PNG,j,5f1f31b2a78ed40ea1d5e843,2021-10-19_21h16.56.679,forced_choiceRT,2021.1.2,Win32,60.0132029,,,,,,,,2,Fast,j,1,1.8266,9,0,36,3,1,,,,,
,1.21,,,,,,,,,g.PNG,g,5f1f31b2a78ed40ea1d5e843,2021-10-19_21h16.56.679,forced_choiceRT,2021.1.2,Win32,60.0132029,,,,,,,,2,Ontime,g,1,1.9618,9,1,37,1,1,,,,,
,1.65,,,,,,,,,g.PNG,g,5f1f31b2a78ed40ea1d5e843,2021-10-19_21h16.56.679,forced_choiceRT,2021.1.2,Win32,60.0132029,,,,,,,,2,Ontime,g,1,2.0969,9,2,38,1,1,,,,,
,0.34,,,,,,,,,g.PNG,g,5f1f31b2a78ed40ea1d5e843,2021-10-19_21h16.56.679,forced_choiceRT,2021.1.2,Win32,60.0132029,,,,,,,,2,Ontime,g,1,1.924,9,3,39,1,1,,,,,
,,,,,,,,,,,,5f1f31b2a78ed40ea1d5e843,2021-10-19_21h16.56.679,forced_choiceRT,2021.1.2,Win32,60.0132029,,,,,,,,,,,,,,,,,,1,0,1,0,1
,1.44,,,,,,,,,h.PNG,h,5f1f31b2a78ed40ea1d5e843,2021-10-19_21h16.56.679,forced_choiceRT,2021.1.2,Win32,60.0132029,,,,,,,,3,Slow,g,0,6.3674,0,0,0,2,1,,,,,
,1.84,,,,,,,,,h.PNG,h,5f1f31b2a78ed40ea1d5e843,2021-10-19_21h16.56.679,forced_choiceRT,2021.1.2,Win32,60.0132029,,,,,,,,3,Slow,h,1,2.3546,0,1,1,2,1,,,,,
,1.87,,,,,,,,,h.PNG,h,5f1f31b2a78ed40ea1d5e843,2021-10-19_21h16.56.679,forced_choiceRT,2021.1.2,Win32,60.0132029,,,,,,,,3,Slow,h,1,2.3387,0,2,2,2,1,,,,,
,0.77,,,,,,,,,g.PNG,g,5f1f31b2a78ed40ea1d5e843,2021-10-19_21h16.56.679,forced_choiceRT,2021.1.2,Win32,60.0132029,,,,,,,,3,Ontime,g,1,1.9406,0,3,3,1,1,,,,,
,0.84,,,,,,,,,h.PNG,h,5f1f31b2a78ed40ea1d5e843,2021-10-19_21h16.56.679,forced_choiceRT,2021.1.2,Win32,60.0132029,,,,,,,,3,Ontime,h,1,1.9757,1,0,4,2,1,,,,,
,1.23,,,,,,,,,j.PNG,j,5f1f31b2a78ed40ea1d5e843,2021-10-19_21h16.56.679,forced_choiceRT,2021.1.2,Win32,60.0132029,,,,,,,,3,Ontime,j,1,1.924,1,1,5,3,1,,,,,
,0.43,,,,,,,,,g.PNG,g,5f1f31b2a78ed40ea1d5e843,2021-10-19_21h16.56.679,forced_choiceRT,2021.1.2,Win32,60.0132029,,,,,,,,3,Ontime,g,1,1.9904,1,2,6,1,1,,,,,
,1.94,,,,,,,,,f.PNG,f,5f1f31b2a78ed40ea1d5e843,2021-10-19_21h16.56.679,forced_choiceRT,2021.1.2,Win32,60.0132029,,,,,,,,3,Slow,f,1,2.4041,1,3,7,0,1,,,,,
,1.57,,,,,,,,,f.PNG,f,5f1f31b2a78ed40ea1d5e843,2021-10-19_21h16.56.679,forced_choiceRT,2021.1.2,Win32,60.0132029,,,,,,,,3,Ontime,f,1,2.0426,2,0,8,0,1,,,,,
,1.19,,,,,,,,,j.PNG,j,5f1f31b2a78ed40ea1d5e843,2021-10-19_21h16.56.679,forced_choiceRT,2021.1.2,Win32,60.0132029,,,,,,,,3,Ontime,j,1,2.0773,2,1,9,3,1,,,,,
,0.27,,,,,,,,,g.PNG,g,5f1f31b2a78ed40ea1d5e843,2021-10-19_21h16.56.679,forced_choiceRT,2021.1.2,Win32,60.0132029,,,,,,,,3,Ontime,g,1,1.9415,2,2,10,1,1,,,,,
,1.76,,,,,,,,,j.PNG,j,5f1f31b2a78ed40ea1d5e843,2021-10-19_21h16.56.679,forced_choiceRT,2021.1.2,Win32,60.0132029,,,,,,,,3,Slow,g,0,2.193,2,3,11,3,1,,,,,
,1.03,,,,,,,,,h.PNG,h,5f1f31b2a78ed40ea1d5e843,2021-10-19_21h16.56.679,forced_choiceRT,2021.1.2,Win32,60.0132029,,,,,,,,3,Ontime,h,1,1.9412,3,0,12,2,1,,,,,
,0.26,,,,,,,,,h.PNG,h,5f1f31b2a78ed40ea1d5e843,2021-10-19_21h16.56.679,forced_choiceRT,2021.1.2,Win32,60.0132029,,,,,,,,3,Ontime,h,1,1.994,3,1,13,2,1,,,,,
,1.78,,,,,,,,,j.PNG,j,5f1f31b2a78ed40ea1d5e843,2021-10-19_21h16.56.679,forced_choiceRT,2021.1.2,Win32,60.0132029,,,,,,,,3,Slow,g,0,2.1873,3,2,14,3,1,,,,,
,1.71,,,,,,,,,g.PNG,g,5f1f31b2a78ed40ea1d5e843,2021-10-19_21h16.56.679,forced_choiceRT,2021.1.2,Win32,60.0132029,,,,,,,,3,Slow,f,0,2.1297,3,3,15,1,1,,,,,
,0.89,,,,,,,,,j.PNG,j,5f1f31b2a78ed40ea1d5e843,2021-10-19_21h16.56.679,forced_choiceRT,2021.1.2,Win32,60.0132029,,,,,,,,3,Slow,j,1,2.1219,4,0,16,3,1,,,,,
,0.6,,,,,,,,,g.PNG,g,5f1f31b2a78ed40ea1d5e843,2021-10-19_21h16.56.679,forced_choiceRT,2021.1.2,Win32,60.0132029,,,,,,,,3,Fast,g,1,1.8953,4,1,17,1,1,,,,,
,1.19,,,,,,,,,g.PNG,g,5f1f31b2a78ed40ea1d5e843,2021-10-19_21h16.56.679,forced_choiceRT,2021.1.2,Win32,60.0132029,,,,,,,,3,Ontime,g,1,1.9921,4,2,18,1,1,,,,,
,1.41,,,,,,,,,h.PNG,h,5f1f31b2a78ed40ea1d5e843,2021-10-19_21h16.56.679,forced_choiceRT,2021.1.2,Win32,60.0132029,,,,,,,,3,Ontime,h,1,2.0257,4,3,19,2,1,,,,,
,1.22,,,,,,,,,g.PNG,g,5f1f31b2a78ed40ea1d5e843,2021-10-19_21h16.56.679,forced_choiceRT,2021.1.2,Win32,60.0132029,,,,,,,,3,Ontime,g,1,1.9929,5,0,20,1,1,,,,,
,1.79,,,,,,,,,j.PNG,j,5f1f31b2a78ed40ea1d5e843,2021-10-19_21h16.56.679,forced_choiceRT,2021.1.2,Win32,60.0132029,,,,,,,,3,Slow,h,0,2.2043,5,1,21,3,1,,,,,
,1.91,,,,,,,,,f.PNG,f,5f1f31b2a78ed40ea1d5e843,2021-10-19_21h16.56.679,forced_choiceRT,2021.1.2,Win32,60.0132029,,,,,,,,3,Ontime,j,0,1.9748,5,2,22,0,1,,,,,
,0.41,,,,,,,,,h.PNG,h,5f1f31b2a78ed40ea1d5e843,2021-10-19_21h16.56.679,forced_choiceRT,2021.1.2,Win32,60.0132029,,,,,,,,3,Ontime,h,1,1.909,5,3,23,2,1,,,,,
,0.79,,,,,,,,,g.PNG,g,5f1f31b2a78ed40ea1d5e843,2021-10-19_21h16.56.679,forced_choiceRT,2021.1.2,Win32,60.0132029,,,,,,,,3,Ontime,g,1,1.9085,6,0,24,1,1,,,,,
,0.37,,,,,,,,,g.PNG,g,5f1f31b2a78ed40ea1d5e843,2021-10-19_21h16.56.679,forced_choiceRT,2021.1.2,Win32,60.0132029,,,,,,,,3,Ontime,g,1,1.9279,6,1,25,1,1,,,,,
,1.14,,,,,,,,,f.PNG,f,5f1f31b2a78ed40ea1d5e843,2021-10-19_21h16.56.679,forced_choiceRT,2021.1.2,Win32,60.0132029,,,,,,,,3,Fast,f,1,1.8955,6,2,26,0,1,,,,,
,1.72,,,,,,,,,f.PNG,f,5f1f31b2a78ed40ea1d5e843,2021-10-19_21h16.56.679,forced_choiceRT,2021.1.2,Win32,60.0132029,,,,,,,,3,Ontime,f,1,2.0566,6,3,27,0,1,,,,,
,1.92,,,,,,,,,j.PNG,j,5f1f31b2a78ed40ea1d5e843,2021-10-19_21h16.56.679,forced_choiceRT,2021.1.2,Win32,60.0132029,,,,,,,,3,Slow,f,0,2.2544,7,0,28,3,1,,,,,
,0.41,,,,,,,,,h.PNG,h,5f1f31b2a78ed40ea1d5e843,2021-10-19_21h16.56.679,forced_choiceRT,2021.1.2,Win32,60.0132029,,,,,,,,3,Fast,h,1,1.8753,7,1,29,2,1,,,,,
,0.92,,,,,,,,,f.PNG,f,5f1f31b2a78ed40ea1d5e843,2021-10-19_21h16.56.679,forced_choiceRT,2021.1.2,Win32,60.0132029,,,,,,,,3,Ontime,f,1,2.0254,7,2,30,0,1,,,,,
,1.26,,,,,,,,,f.PNG,f,5f1f31b2a78ed40ea1d5e843,2021-10-19_21h16.56.679,forced_choiceRT,2021.1.2,Win32,60.0132029,,,,,,,,3,Ontime,f,1,1.9586,7,3,31,0,1,,,,,
,0.42,,,,,,,,,j.PNG,j,5f1f31b2a78ed40ea1d5e843,2021-10-19_21h16.56.679,forced_choiceRT,2021.1.2,Win32,60.0132029,,,,,,,,3,Ontime,j,1,1.9923,8,0,32,3,1,,,,,
,0.64,,,,,,,,,h.PNG,h,5f1f31b2a78ed40ea1d5e843,2021-10-19_21h16.56.679,forced_choiceRT,2021.1.2,Win32,60.0132029,,,,,,,,3,Ontime,h,1,2.0076,8,1,33,2,1,,,,,
,0.48,,,,,,,,,j.PNG,j,5f1f31b2a78ed40ea1d5e843,2021-10-19_21h16.56.679,forced_choiceRT,2021.1.2,Win32,60.0132029,,,,,,,,3,Ontime,j,1,1.9084,8,2,34,3,1,,,,,
,0.62,,,,,,,,,j.PNG,j,5f1f31b2a78ed40ea1d5e843,2021-10-19_21h16.56.679,forced_choiceRT,2021.1.2,Win32,60.0132029,,,,,,,,3,Ontime,j,1,1.9236,8,3,35,3,1,,,,,
,0.1,,,,,,,,,g.PNG,g,5f1f31b2a78ed40ea1d5e843,2021-10-19_21h16.56.679,forced_choiceRT,2021.1.2,Win32,60.0132029,,,,,,,,3,Ontime,g,1,1.9421,9,0,36,1,1,,,,,
,1.16,,,,,,,,,f.PNG,f,5f1f31b2a78ed40ea1d5e843,2021-10-19_21h16.56.679,forced_choiceRT,2021.1.2,Win32,60.0132029,,,,,,,,3,Ontime,f,1,1.9595,9,1,37,0,1,,,,,
,0.6,,,,,,,,,f.PNG,f,5f1f31b2a78ed40ea1d5e843,2021-10-19_21h16.56.679,forced_choiceRT,2021.1.2,Win32,60.0132029,,,,,,,,3,Fast,f,1,1.8913,9,2,38,0,1,,,,,
,0.95,,,,,,,,,f.PNG,f,5f1f31b2a78ed40ea1d5e843,2021-10-19_21h16.56.679,forced_choiceRT,2021.1.2,Win32,60.0132029,,,,,,,,3,Fast,f,1,1.8573,9,3,39,0,1,,,,,
,,,,,,,,,,,,5f1f31b2a78ed40ea1d5e843,2021-10-19_21h16.56.679,forced_choiceRT,2021.1.2,Win32,60.0132029,,,,,,,,,,,,,,,,,,2,0,2,0,1
,0.05,,,,,,,,,g.PNG,g,5f1f31b2a78ed40ea1d5e843,2021-10-19_21h16.56.679,forced_choiceRT,2021.1.2,Win32,60.0132029,,,,,,,,4,Ontime,g,1,2.021,0,0,0,1,1,,,,,
,0.41,,,,,,,,,g.PNG,g,5f1f31b2a78ed40ea1d5e843,2021-10-19_21h16.56.679,forced_choiceRT,2021.1.2,Win32,60.0132029,,,,,,,,4,Ontime,g,1,1.9741,0,1,1,1,1,,,,,
,1.86,,,,,,,,,j.PNG,j,5f1f31b2a78ed40ea1d5e843,2021-10-19_21h16.56.679,forced_choiceRT,2021.1.2,Win32,60.0132029,,,,,,,,4,Slow,f,0,2.2576,0,2,2,3,1,,,,,
,0.01,,,,,,,,,j.PNG,j,5f1f31b2a78ed40ea1d5e843,2021-10-19_21h16.56.679,forced_choiceRT,2021.1.2,Win32,60.0132029,,,,,,,,4,Ontime,j,1,1.9745,0,3,3,3,1,,,,,
,0.47,,,,,,,,,g.PNG,g,5f1f31b2a78ed40ea1d5e843,2021-10-19_21h16.56.679,forced_choiceRT,2021.1.2,Win32,60.0132029,,,,,,,,4,Ontime,g,1,1.9923,1,0,4,1,1,,,,,
,1.11,,,,,,,,,j.PNG,j,5f1f31b2a78ed40ea1d5e843,2021-10-19_21h16.56.679,forced_choiceRT,2021.1.2,Win32,60.0132029,,,,,,,,4,Ontime,j,1,1.962,1,1,5,3,1,,,,,
,1.51,,,,,,,,,f.PNG,f,5f1f31b2a78ed40ea1d5e843,2021-10-19_21h16.56.679,forced_choiceRT,2021.1.2,Win32,60.0132029,,,,,,,,4,Ontime,g,0,1.9786,1,2,6,0,1,,,,,
,0.52,,,,,,,,,j.PNG,j,5f1f31b2a78ed40ea1d5e843,2021-10-19_21h16.56.679,forced_choiceRT,2021.1.2,Win32,60.0132029,,,,,,,,4,Ontime,j,1,1.9271,1,3,7,3,1,,,,,
,1.41,,,,,,,,,f.PNG,f,5f1f31b2a78ed40ea1d5e843,2021-10-19_21h16.56.679,forced_choiceRT,2021.1.2,Win32,60.0132029,,,,,,,,4,Ontime,f,1,1.9413,2,0,8,0,1,,,,,
,1.69,,,,,,,,,j.PNG,j,5f1f31b2a78ed40ea1d5e843,2021-10-19_21h16.56.679,forced_choiceRT,2021.1.2,Win32,60.0132029,,,,,,,,4,Ontime,f,0,1.941,2,1,9,3,1,,,,,
,1.33,,,,,,,,,g.PNG,g,5f1f31b2a78ed40ea1d5e843,2021-10-19_21h16.56.679,forced_choiceRT,2021.1.2,Win32,60.0132029,,,,,,,,4,Fast,g,1,1.8793,2,2,10,1,1,,,,,
,0.49,,,,,,,,,j.PNG,j,5f1f31b2a78ed40ea1d5e843,2021-10-19_21h16.56.679,forced_choiceRT,2021.1.2,Win32,60.0132029,,,,,,,,4,Ontime,j,1,1.9738,2,3,11,3,1,,,,,
,1.27,,,,,,,,,f.PNG,f,5f1f31b2a78ed40ea1d5e843,2021-10-19_21h16.56.679,forced_choiceRT,2021.1.2,Win32,60.0132029,,,,,,,,4,Ontime,f,1,1.9246,3,0,12,0,1,,,,,
,0.03,,,,,,,,,h.PNG,h,5f1f31b2a78ed40ea1d5e843,2021-10-19_21h16.56.679,forced_choiceRT,2021.1.2,Win32,60.0132029,,,,,,,,4,Ontime,h,1,1.9261,3,1,13,2,1,,,,,
,1.33,,,,,,,,,f.PNG,f,5f1f31b2a78ed40ea1d5e843,2021-10-19_21h16.56.679,forced_choiceRT,2021.1.2,Win32,60.0132029,,,,,,,,4,Ontime,f,1,1.9635,3,2,14,0,1,,,,,
,0.45,,,,,,,,,g.PNG,g,5f1f31b2a78ed40ea1d5e843,2021-10-19_21h16.56.679,forced_choiceRT,2021.1.2,Win32,60.0132029,,,,,,,,4,Fast,g,1,1.8907,3,3,15,1,1,,,,,
,1.05,,,,,,,,,j.PNG,j,5f1f31b2a78ed40ea1d5e843,2021-10-19_21h16.56.679,forced_choiceRT,2021.1.2,Win32,60.0132029,,,,,,,,4,Ontime,j,1,1.9244,4,0,16,3,1,,,,,
,0.47,,,,,,,,,f.PNG,f,5f1f31b2a78ed40ea1d5e843,2021-10-19_21h16.56.679,forced_choiceRT,2021.1.2,Win32,60.0132029,,,,,,,,4,Ontime,f,1,1.9754,4,1,17,0,1,,,,,
,1.76,,,,,,,,,g.PNG,g,5f1f31b2a78ed40ea1d5e843,2021-10-19_21h16.56.679,forced_choiceRT,2021.1.2,Win32,60.0132029,,,,,,,,4,Slow,f,0,2.1702,4,2,18,1,1,,,,,
,0.64,,,,,,,,,h.PNG,h,5f1f31b2a78ed40ea1d5e843,2021-10-19_21h16.56.679,forced_choiceRT,2021.1.2,Win32,60.0132029,,,,,,,,4,Ontime,h,1,1.9439,4,3,19,2,1,,,,,
,0.7,,,,,,,,,f.PNG,f,5f1f31b2a78ed40ea1d5e843,2021-10-19_21h16.56.679,forced_choiceRT,2021.1.2,Win32,60.0132029,,,,,,,,4,Ontime,f,1,1.9799,5,0,20,0,1,,,,,
,1.89,,,,,,,,,g.PNG,g,5f1f31b2a78ed40ea1d5e843,2021-10-19_21h16.56.679,forced_choiceRT,2021.1.2,Win32,60.0132029,,,,,,,,4,Slow,f,0,2.2895,5,1,21,1,1,,,,,
,1.72,,,,,,,,,f.PNG,f,5f1f31b2a78ed40ea1d5e843,2021-10-19_21h16.56.679,forced_choiceRT,2021.1.2,Win32,60.0132029,,,,,,,,4,Ontime,h,0,2.0779,5,2,22,0,1,,,,,
,0.2,,,,,,,,,h.PNG,h,5f1f31b2a78ed40ea1d5e843,2021-10-19_21h16.56.679,forced_choiceRT,2021.1.2,Win32,60.0132029,,,,,,,,4,Fast,h,1,1.8566,5,3,23,2,1,,,,,
,1.09,,,,,,,,,h.PNG,h,5f1f31b2a78ed40ea1d5e843,2021-10-19_21h16.56.679,forced_choiceRT,2021.1.2,Win32,60.0132029,,,,,,,,4,Ontime,h,1,2.0098,6,0,24,2,1,,,,,
,1.05,,,,,,,,,h.PNG,h,5f1f31b2a78ed40ea1d5e843,2021-10-19_21h16.56.679,forced_choiceRT,2021.1.2,Win32,60.0132029,,,,,,,,4,Ontime,h,1,1.9921,6,1,25,2,1,,,,,
,1.88,,,,,,,,,h.PNG,h,5f1f31b2a78ed40ea1d5e843,2021-10-19_21h16.56.679,forced_choiceRT,2021.1.2,Win32,60.0132029,,,,,,,,4,Slow,h,1,2.1251,6,2,26,2,1,,,,,
,0.36,,,,,,,,,f.PNG,f,5f1f31b2a78ed40ea1d5e843,2021-10-19_21h16.56.679,forced_choiceRT,2021.1.2,Win32,60.0132029,,,,,,,,4,Ontime,f,1,1.9619,6,3,27,0,1,,,,,
,0.16,,,,,,,,,h.PNG,h,5f1f31b2a78ed40ea1d5e843,2021-10-19_21h16.56.679,forced_choiceRT,2021.1.2,Win32,60.0132029,,,,,,,,4,Slow,h,1,2.1372,7,0,28,2,1,,,,,
,0.39,,,,,,,,,j.PNG,j,5f1f31b2a78ed40ea1d5e843,2021-10-19_21h16.56.679,forced_choiceRT,2021.1.2,Win32,60.0132029,,,,,,,,4,Ontime,j,1,1.957,7,1,29,3,1,,,,,
,0.53,,,,,,,,,h.PNG,h,5f1f31b2a78ed40ea1d5e843,2021-10-19_21h16.56.679,forced_choiceRT,2021.1.2,Win32,60.0132029,,,,,,,,4,Ontime,h,1,1.9259,7,2,30,2,1,,,,,
,0.67,,,,,,,,,j.PNG,j,5f1f31b2a78ed40ea1d5e843,2021-10-19_21h16.56.679,forced_choiceRT,2021.1.2,Win32,60.0132029,,,,,,,,4,Ontime,j,1,1.9471,7,3,31,3,1,,,,,
,0.71,,,,,,,,,h.PNG,h,5f1f31b2a78ed40ea1d5e843,2021-10-19_21h16.56.679,forced_choiceRT,2021.1.2,Win32,60.0132029,,,,,,,,4,Ontime,h,1,1.9773,8,0,32,2,1,,,,,
,1.2,,,,,,,,,f.PNG,f,5f1f31b2a78ed40ea1d5e843,2021-10-19_21h16.56.679,forced_choiceRT,2021.1.2,Win32,60.0132029,,,,,,,,4,Ontime,f,1,2.0443,8,1,33,0,1,,,,,
,0.57,,,,,,,,,g.PNG,g,5f1f31b2a78ed40ea1d5e843,2021-10-19_21h16.56.679,forced_choiceRT,2021.1.2,Win32,60.0132029,,,,,,,,4,Ontime,g,1,2.011,8,2,34,1,1,,,,,
,1.05,,,,,,,,,g.PNG,g,5f1f31b2a78ed40ea1d5e843,2021-10-19_21h16.56.679,forced_choiceRT,2021.1.2,Win32,60.0132029,,,,,,,,4,Ontime,g,1,2.0761,8,3,35,1,1,,,,,
,1.73,,,,,,,,,j.PNG,j,5f1f31b2a78ed40ea1d5e843,2021-10-19_21h16.56.679,forced_choiceRT,2021.1.2,Win32,60.0132029,,,,,,,,4,Fast,g,0,1.875,9,0,36,3,1,,,,,
,1.89,,,,,,,,,f.PNG,f,5f1f31b2a78ed40ea1d5e843,2021-10-19_21h16.56.679,forced_choiceRT,2021.1.2,Win32,60.0132029,,,,,,,,4,Slow,j,0,2.1543,9,1,37,0,1,,,,,
,0.44,,,,,,,,,h.PNG,h,5f1f31b2a78ed40ea1d5e843,2021-10-19_21h16.56.679,forced_choiceRT,2021.1.2,Win32,60.0132029,,,,,,,,4,Fast,h,1,1.8906,9,2,38,2,1,,,,,
,1.89,,,,,,,,,g.PNG,g,5f1f31b2a78ed40ea1d5e843,2021-10-19_21h16.56.679,forced_choiceRT,2021.1.2,Win32,60.0132029,,,,,,,,4,Ontime,f,0,2.0756,9,3,39,1,1,,,,,
,,,,,,,,,,,,5f1f31b2a78ed40ea1d5e843,2021-10-19_21h16.56.679,forced_choiceRT,2021.1.2,Win32,60.0132029,,,,,,,,,,,,,,,,,,3,0,3,0,1
,0.5,,,,,,,,,g.PNG,g,5f1f31b2a78ed40ea1d5e843,2021-10-19_21h16.56.679,forced_choiceRT,2021.1.2,Win32,60.0132029,,,,,,,,5,Ontime,g,1,2.0065,0,0,0,1,1,,,,,
,1.04,,,,,,,,,j.PNG,j,5f1f31b2a78ed40ea1d5e843,2021-10-19_21h16.56.679,forced_choiceRT,2021.1.2,Win32,60.0132029,,,,,,,,5,Ontime,j,1,2.0928,0,1,1,3,1,,,,,
,0.65,,,,,,,,,h.PNG,h,5f1f31b2a78ed40ea1d5e843,2021-10-19_21h16.56.679,forced_choiceRT,2021.1.2,Win32,60.0132029,,,,,,,,5,Ontime,h,1,1.9234,0,2,2,2,1,,,,,
,0.41,,,,,,,,,f.PNG,f,5f1f31b2a78ed40ea1d5e843,2021-10-19_21h16.56.679,forced_choiceRT,2021.1.2,Win32,60.0132029,,,,,,,,5,Ontime,f,1,1.9577,0,3,3,0,1,,,,,
,1.39,,,,,,,,,j.PNG,j,5f1f31b2a78ed40ea1d5e843,2021-10-19_21h16.56.679,forced_choiceRT,2021.1.2,Win32,60.0132029,,,,,,,,5,Ontime,j,1,1.9745,1,0,4,3,1,,,,,
,1.29,,,,,,,,,f.PNG,f,5f1f31b2a78ed40ea1d5e843,2021-10-19_21h16.56.679,forced_choiceRT,2021.1.2,Win32,60.0132029,,,,,,,,5,Ontime,f,1,2.0075,1,1,5,0,1,,,,,
,0.49,,,,,,,,,h.PNG,h,5f1f31b2a78ed40ea1d5e843,2021-10-19_21h16.56.679,forced_choiceRT,2021.1.2,Win32,60.0132029,,,,,,,,5,Ontime,h,1,1.9237,1,2,6,2,1,,,,,
,1.78,,,,,,,,,f.PNG,f,5f1f31b2a78ed40ea1d5e843,2021-10-19_21h16.56.679,forced_choiceRT,2021.1.2,Win32,60.0132029,,,,,,,,5,Ontime,j,0,2.0567,1,3,7,0,1,,,,,
,0.29,,,,,,,,,g.PNG,g,5f1f31b2a78ed40ea1d5e843,2021-10-19_21h16.56.679,forced_choiceRT,2021.1.2,Win32,60.0132029,,,,,,,,5,Ontime,g,1,2.0084,2,0,8,1,1,,,,,
,1.76,,,,,,,,,f.PNG,f,5f1f31b2a78ed40ea1d5e843,2021-10-19_21h16.56.679,forced_choiceRT,2021.1.2,Win32,60.0132029,,,,,,,,5,Slow,j,0,2.1865,2,1,9,0,1,,,,,
,0.02,,,,,,,,,h.PNG,h,5f1f31b2a78ed40ea1d5e843,2021-10-19_21h16.56.679,forced_choiceRT,2021.1.2,Win32,60.0132029,,,,,,,,5,Ontime,h,1,1.9741,2,2,10,2,1,,,,,
,1.86,,,,,,,,,g.PNG,g,5f1f31b2a78ed40ea1d5e843,2021-10-19_21h16.56.679,forced_choiceRT,2021.1.2,Win32,60.0132029,,,,,,,,5,Ontime,h,0,2.0128,2,3,11,1,1,,,,,
,1.18,,,,,,,,,f.PNG,f,5f1f31b2a78ed40ea1d5e843,2021-10-19_21h16.56.679,forced_choiceRT,2021.1.2,Win32,60.0132029,,,,,,,,5,Ontime,f,1,1.9906,3,0,12,0,1,,,,,
,1.6,,,,,,,,,j.PNG,j,5f1f31b2a78ed40ea1d5e843,2021-10-19_21h16.56.679,forced_choiceRT,2021.1.2,Win32,60.0132029,,,,,,,,5,Ontime,j,1,2.0579,3,1,13,3,1,,,,,
,0.05,,,,,,,,,h.PNG,h,5f1f31b2a78ed40ea1d5e843,2021-10-19_21h16.56.679,forced_choiceRT,2021.1.2,Win32,60.0132029,,,,,,,,5,Fast,h,1,1.8732,3,2,14,2,1,,,,,
,1.51,,,,,,,,,h.PNG,h,5f1f31b2a78ed40ea1d5e843,2021-10-19_21h16.56.679,forced_choiceRT,2021.1.2,Win32,60.0132029,,,,,,,,5,Ontime,h,1,1.9245,3,3,15,2,1,,,,,
,1.73,,,,,,,,,j.PNG,j,5f1f31b2a78ed40ea1d5e843,2021-10-19_21h16.56.679,forced_choiceRT,2021.1.2,Win32,60.0132029,,,,,,,,5,Slow,h,0,2.154,4,0,16,3,1,,,,,
,1.82,,,,,,,,,h.PNG,h,5f1f31b2a78ed40ea1d5e843,2021-10-19_21h16.56.679,forced_choiceRT,2021.1.2,Win32,60.0132029,,,,,,,,5,Ontime,j,0,2.005,4,1,17,2,1,,,,,
,0.85,,,,,,,,,j.PNG,j,5f1f31b2a78ed40ea1d5e843,2021-10-19_21h16.56.679,forced_choiceRT,2021.1.2,Win32,60.0132029,,,,,,,,5,Ontime,j,1,2.01,4,2,18,3,1,,,,,
,0.68,,,,,,,,,f.PNG,f,5f1f31b2a78ed40ea1d5e843,2021-10-19_21h16.56.679,forced_choiceRT,2021.1.2,Win32,60.0132029,,,,,,,,5,Ontime,f,1,1.9411,4,3,19,0,1,,,,,
,0.9,,,,,,,,,g.PNG,g,5f1f31b2a78ed40ea1d5e843,2021-10-19_21h16.56.679,forced_choiceRT,2021.1.2,Win32,60.0132029,,,,,,,,5,Ontime,g,1,2.0415,5,0,20,1,1,,,,,
,0.03,,,,,,,,,g.PNG,g,5f1f31b2a78ed40ea1d5e843,2021-10-19_21h16.56.679,forced_choiceRT,2021.1.2,Win32,60.0132029,,,,,,,,5,Ontime,g,1,2.0238,5,1,21,1,1,,,,,
,1.89,,,,,,,,,h.PNG,h,5f1f31b2a78ed40ea1d5e843,2021-10-19_21h16.56.679,forced_choiceRT,2021.1.2,Win32,60.0132029,,,,,,,,5,Slow,g,0,2.3399,5,2,22,2,1,,,,,
,0.73,,,,,,,,,h.PNG,h,5f1f31b2a78ed40ea1d5e843,2021-10-19_21h16.56.679,forced_choiceRT,2021.1.2,Win32,60.0132029,,,,,,,,5,Ontime,h,1,2.0569,5,3,23,2,1,,,,,
,0.06,,,,,,,,,g.PNG,g,5f1f31b2a78ed40ea1d5e843,2021-10-19_21h16.56.679,forced_choiceRT,2021.1.2,Win32,60.0132029,,,,,,,,5,Ontime,g,1,2.0099,6,0,24,1,1,,,,,
,0.69,,,,,,,,,h.PNG,h,5f1f31b2a78ed40ea1d5e843,2021-10-19_21h16.56.679,forced_choiceRT,2021.1.2,Win32,60.0132029,,,,,,,,5,Ontime,h,1,2.062,6,1,25,2,1,,,,,
,0.46,,,,,,,,,g.PNG,g,5f1f31b2a78ed40ea1d5e843,2021-10-19_21h16.56.679,forced_choiceRT,2021.1.2,Win32,60.0132029,,,,,,,,5,Ontime,g,1,1.9748,6,2,26,1,1,,,,,
,1.43,,,,,,,,,g.PNG,g,5f1f31b2a78ed40ea1d5e843,2021-10-19_21h16.56.679,forced_choiceRT,2021.1.2,Win32,60.0132029,,,,,,,,5,Ontime,g,1,1.9562,6,3,27,1,1,,,,,
,0.66,,,,,,,,,g.PNG,g,5f1f31b2a78ed40ea1d5e843,2021-10-19_21h16.56.679,forced_choiceRT,2021.1.2,Win32,60.0132029,,,,,,,,5,Ontime,g,1,1.9764,7,0,28,1,1,,,,,
,1.84,,,,,,,,,j.PNG,j,5f1f31b2a78ed40ea1d5e843,2021-10-19_21h16.56.679,forced_choiceRT,2021.1.2,Win32,60.0132029,,,,,,,,5,Ontime,j,1,2.026,7,1,29,3,1,,,,,
,1.72,,,,,,,,,g.PNG,g,5f1f31b2a78ed40ea1d5e843,2021-10-19_21h16.56.679,forced_choiceRT,2021.1.2,Win32,60.0132029,,,,,,,,5,Slow,g,1,2.1231,7,2,30,1,1,,,,,
,0.94,,,,,,,,,h.PNG,h,5f1f31b2a78ed40ea1d5e843,2021-10-19_21h16.56.679,forced_choiceRT,2021.1.2,Win32,60.0132029,,,,,,,,5,Ontime,h,1,2.0409,7,3,31,2,1,,,,,
,1.32,,,,,,,,,f.PNG,f,5f1f31b2a78ed40ea1d5e843,2021-10-19_21h16.56.679,forced_choiceRT,2021.1.2,Win32,60.0132029,,,,,,,,5,Ontime,f,1,1.9925,8,0,32,0,1,,,,,
,0.71,,,,,,,,,f.PNG,f,5f1f31b2a78ed40ea1d5e843,2021-10-19_21h16.56.679,forced_choiceRT,2021.1.2,Win32,60.0132029,,,,,,,,5,Ontime,f,1,1.9569,8,1,33,0,1,,,,,
,0.81,,,,,,,,,j.PNG,j,5f1f31b2a78ed40ea1d5e843,2021-10-19_21h16.56.679,forced_choiceRT,2021.1.2,Win32,60.0132029,,,,,,,,5,Ontime,j,1,1.9075,8,2,34,3,1,,,,,
,0,,,,,,,,,j.PNG,j,5f1f31b2a78ed40ea1d5e843,2021-10-19_21h16.56.679,forced_choiceRT,2021.1.2,Win32,60.0132029,,,,,,,,5,Ontime,j,1,2.0079,8,3,35,3,1,,,,,
,0.32,,,,,,,,,f.PNG,f,5f1f31b2a78ed40ea1d5e843,2021-10-19_21h16.56.679,forced_choiceRT,2021.1.2,Win32,60.0132029,,,,,,,,5,Ontime,f,1,1.959,9,0,36,0,1,,,,,
,0.72,,,,,,,,,f.PNG,f,5f1f31b2a78ed40ea1d5e843,2021-10-19_21h16.56.679,forced_choiceRT,2021.1.2,Win32,60.0132029,,,,,,,,5,Ontime,f,1,2.0578,9,1,37,0,1,,,,,
,0.81,,,,,,,,,j.PNG,j,5f1f31b2a78ed40ea1d5e843,2021-10-19_21h16.56.679,forced_choiceRT,2021.1.2,Win32,60.0132029,,,,,,,,5,Ontime,j,1,2.0069,9,2,38,3,1,,,,,
,1.48,,,,,,,,,j.PNG,j,5f1f31b2a78ed40ea1d5e843,2021-10-19_21h16.56.679,forced_choiceRT,2021.1.2,Win32,60.0132029,,,,,,,,5,Slow,j,1,2.1391,9,3,39,3,1,,,,,
,,,,,,,,,,,,5f1f31b2a78ed40ea1d5e843,2021-10-19_21h16.56.679,forced_choiceRT,2021.1.2,Win32,60.0132029,,,,,,,,,,,,,,,,,,4,0,4,0,1
,0.81,,,,,,,,,h.PNG,h,5f1f31b2a78ed40ea1d5e843,2021-10-19_21h16.56.679,forced_choiceRT,2021.1.2,Win32,60.0132029,,,,,,,,6,Ontime,h,1,1.9926,0,0,0,2,1,,,,,
,1.79,,,,,,,,,f.PNG,f,5f1f31b2a78ed40ea1d5e843,2021-10-19_21h16.56.679,forced_choiceRT,2021.1.2,Win32,60.0132029,,,,,,,,6,Ontime,j,0,2.0108,0,1,1,0,1,,,,,
,1.37,,,,,,,,,f.PNG,f,5f1f31b2a78ed40ea1d5e843,2021-10-19_21h16.56.679,forced_choiceRT,2021.1.2,Win32,60.0132029,,,,,,,,6,Fast,f,1,1.8938,0,2,2,0,1,,,,,
,0.02,,,,,,,,,g.PNG,g,5f1f31b2a78ed40ea1d5e843,2021-10-19_21h16.56.679,forced_choiceRT,2021.1.2,Win32,60.0132029,,,,,,,,6,Ontime,g,1,2.0413,0,3,3,1,1,,,,,
,1.16,,,,,,,,,f.PNG,f,5f1f31b2a78ed40ea1d5e843,2021-10-19_21h16.56.679,forced_choiceRT,2021.1.2,Win32,60.0132029,,,,,,,,6,Slow,f,1,2.2202,1,0,4,0,1,,,,,
,0.59,,,,,,,,,g.PNG,g,5f1f31b2a78ed40ea1d5e843,2021-10-19_21h16.56.679,forced_choiceRT,2021.1.2,Win32,60.0132029,,,,,,,,6,Ontime,g,1,2.0239,1,1,5,1,1,,,,,
,0.41,,,,,,,,,g.PNG,g,5f1f31b2a78ed40ea1d5e843,2021-10-19_21h16.56.679,forced_choiceRT,2021.1.2,Win32,60.0132029,,,,,,,,6,Ontime,g,1,1.9895,1,2,6,1,1,,,,,
,0.6,,,,,,,,,g.PNG,g,5f1f31b2a78ed40ea1d5e843,2021-10-19_21h16.56.679,forced_choiceRT,2021.1.2,Win32,60.0132029,,,,,,,,6,Ontime,g,1,2.0573,1,3,7,1,1,,,,,
,0.64,,,,,,,,,f.PNG,f,5f1f31b2a78ed40ea1d5e843,2021-10-19_21h16.56.679,forced_choiceRT,2021.1.2,Win32,60.0132029,,,,,,,,6,Slow,f,1,2.1368,2,0,8,0,1,,,,,
,0.55,,,,,,,,,f.PNG,f,5f1f31b2a78ed40ea1d5e843,2021-10-19_21h16.56.679,forced_choiceRT,2021.1.2,Win32,60.0132029,,,,,,,,6,Ontime,f,1,1.9269,2,1,9,0,1,,,,,
,1.55,,,,,,,,,g.PNG,g,5f1f31b2a78ed40ea1d5e843,2021-10-19_21h16.56.679,forced_choiceRT,2021.1.2,Win32,60.0132029,,,,,,,,6,Ontime,f,0,2.0763,2,2,10,1,1,,,,,
,1.7,,,,,,,,,h.PNG,h,5f1f31b2a78ed40ea1d5e843,2021-10-19_21h16.56.679,forced_choiceRT,2021.1.2,Win32,60.0132029,,,,,,,,6,Ontime,j,0,2.0906,2,3,11,2,1,,,,,
,1.88,,,,,,,,,f.PNG,f,5f1f31b2a78ed40ea1d5e843,2021-10-19_21h16.56.679,forced_choiceRT,2021.1.2,Win32,60.0132029,,,,,,,,6,Ontime,g,0,2.0068,3,0,12,0,1,,,,,
,1.34,,,,,,,,,g.PNG,g,5f1f31b2a78ed40ea1d5e843,2021-10-19_21h16.56.679,forced_choiceRT,2021.1.2,Win32,60.0132029,,,,,,,,6,Slow,g,1,2.1368,3,1,13,1,1,,,,,
,0.18,,,,,,,,,g.PNG,g,5f1f31b2a78ed40ea1d5e843,2021-10-19_21h16.56.679,forced_choiceRT,2021.1.2,Win32,60.0132029,,,,,,,,6,Ontime,g,1,1.9234,3,2,14,1,1,,,,,
,0.72,,,,,,,,,j.PNG,j,5f1f31b2a78ed40ea1d5e843,2021-10-19_21h16.56.679,forced_choiceRT,2021.1.2,Win32,60.0132029,,,,,,,,6,Ontime,j,1,1.9576,3,3,15,3,1,,,,,
,0.48,,,,,,,,,j.PNG,j,5f1f31b2a78ed40ea1d5e843,2021-10-19_21h16.56.679,forced_choiceRT,2021.1.2,Win32,60.0132029,,,,,,,,6,Ontime,j,1,2.0067,4,0,16,3,1,,,,,
,1.41,,,,,,,,,f.PNG,f,5f1f31b2a78ed40ea1d5e843,2021-10-19_21h16.56.679,forced_choiceRT,2021.1.2,Win32,60.0132029,,,,,,,,6,Ontime,f,1,2.078,4,1,17,0,1,,,,,
,0.9,,,,,,,,,j.PNG,j,5f1f31b2a78ed40ea1d5e843,2021-10-19_21h16.56.679,forced_choiceRT,2021.1.2,Win32,60.0132029,,,,,,,,6,Slow,j,1,2.1541,4,2,18,3,1,,,,,
,1.07,,,,,,,,,g.PNG,g,5f1f31b2a78ed40ea1d5e843,2021-10-19_21h16.56.679,forced_choiceRT,2021.1.2,Win32,60.0132029,,,,,,,,6,Ontime,g,1,1.9228,4,3,19,1,1,,,,,
,1.14,,,,,,,,,h.PNG,h,5f1f31b2a78ed40ea1d5e843,2021-10-19_21h16.56.679,forced_choiceRT,2021.1.2,Win32,60.0132029,,,,,,,,6,Ontime,h,1,2.062,5,0,20,2,1,,,,,
,1.77,,,,,,,,,h.PNG,h,5f1f31b2a78ed40ea1d5e843,2021-10-19_21h16.56.679,forced_choiceRT,2021.1.2,Win32,60.0132029,,,,,,,,6,Slow,h,1,2.2104,5,1,21,2,1,,,,,
,1.29,,,,,,,,,j.PNG,j,5f1f31b2a78ed40ea1d5e843,2021-10-19_21h16.56.679,forced_choiceRT,2021.1.2,Win32,60.0132029,,,,,,,,6,Ontime,j,1,1.9063,5,2,22,3,1,,,,,
,0.56,,,,,,,,,h.PNG,h,5f1f31b2a78ed40ea1d5e843,2021-10-19_21h16.56.679,forced_choiceRT,2021.1.2,Win32,60.0132029,,,,,,,,6,Ontime,h,1,1.9908,5,3,23,2,1,,,,,
,1.03,,,,,,,,,h.PNG,h,5f1f31b2a78ed40ea1d5e843,2021-10-19_21h16.56.679,forced_choiceRT,2021.1.2,Win32,60.0132029,,,,,,,,6,Ontime,h,1,2.0404,6,0,24,2,1,,,,,
,0.51,,,,,,,,,f.PNG,f,5f1f31b2a78ed40ea1d5e843,2021-10-19_21h16.56.679,forced_choiceRT,2021.1.2,Win32,60.0132029,,,,,,,,6,Ontime,f,1,2.007,6,1,25,0,1,,,,,
,0.89,,,,,,,,,j.PNG,j,5f1f31b2a78ed40ea1d5e843,2021-10-19_21h16.56.679,forced_choiceRT,2021.1.2,Win32,60.0132029,,,,,,,,6,Ontime,j,1,2.0292,6,2,26,3,1,,,,,
,0.47,,,,,,,,,h.PNG,h,5f1f31b2a78ed40ea1d5e843,2021-10-19_21h16.56.679,forced_choiceRT,2021.1.2,Win32,60.0132029,,,,,,,,6,Ontime,h,1,1.9454,6,3,27,2,1,,,,,
,1.64,,,,,,,,,j.PNG,j,5f1f31b2a78ed40ea1d5e843,2021-10-19_21h16.56.679,forced_choiceRT,2021.1.2,Win32,60.0132029,,,,,,,,6,Slow,j,1,2.1543,7,0,28,3,1,,,,,
,0.54,,,,,,,,,h.PNG,h,5f1f31b2a78ed40ea1d5e843,2021-10-19_21h16.56.679,forced_choiceRT,2021.1.2,Win32,60.0132029,,,,,,,,6,Ontime,h,1,2.062,7,1,29,2,1,,,,,
,0.4,,,,,,,,,f.PNG,f,5f1f31b2a78ed40ea1d5e843,2021-10-19_21h16.56.679,forced_choiceRT,2021.1.2,Win32,60.0132029,,,,,,,,6,Ontime,f,1,1.9278,7,2,30,0,1,,,,,
,1.2,,,,,,,,,g.PNG,g,5f1f31b2a78ed40ea1d5e843,2021-10-19_21h16.56.679,forced_choiceRT,2021.1.2,Win32,60.0132029,,,,,,,,6,Slow,g,1,2.1199,7,3,31,1,1,,,,,
,1.47,,,,,,,,,h.PNG,h,5f1f31b2a78ed40ea1d5e843,2021-10-19_21h16.56.679,forced_choiceRT,2021.1.2,Win32,60.0132029,,,,,,,,6,Slow,h,1,2.2431,8,0,32,2,1,,,,,
,1.11,,,,,,,,,g.PNG,g,5f1f31b2a78ed40ea1d5e843,2021-10-19_21h16.56.679,forced_choiceRT,2021.1.2,Win32,60.0132029,,,,,,,,6,Slow,g,1,2.1266,8,1,33,1,1,,,,,
,1.43,,,,,,,,,j.PNG,j,5f1f31b2a78ed40ea1d5e843,2021-10-19_21h16.56.679,forced_choiceRT,2021.1.2,Win32,60.0132029,,,,,,,,6,Slow,j,1,2.2106,8,2,34,3,1,,,,,
,1.96,,,,,,,,,f.PNG,f,5f1f31b2a78ed40ea1d5e843,2021-10-19_21h16.56.679,forced_choiceRT,2021.1.2,Win32,60.0132029,,,,,,,,6,Slow,j,0,2.174,8,3,35,0,1,,,,,
,0.87,,,,,,,,,h.PNG,h,5f1f31b2a78ed40ea1d5e843,2021-10-19_21h16.56.679,forced_choiceRT,2021.1.2,Win32,60.0132029,,,,,,,,6,Ontime,h,1,1.9286,9,0,36,2,1,,,,,
,1.68,,,,,,,,,j.PNG,j,5f1f31b2a78ed40ea1d5e843,2021-10-19_21h16.56.679,forced_choiceRT,2021.1.2,Win32,60.0132029,,,,,,,,6,Slow,j,1,2.1055,9,1,37,3,1,,,,,
,1.07,,,,,,,,,j.PNG,j,5f1f31b2a78ed40ea1d5e843,2021-10-19_21h16.56.679,forced_choiceRT,2021.1.2,Win32,60.0132029,,,,,,,,6,Fast,j,1,1.8432,9,2,38,3,1,,,,,
,1.08,,,,,,,,,j.PNG,j,5f1f31b2a78ed40ea1d5e843,2021-10-19_21h16.56.679,forced_choiceRT,2021.1.2,Win32,60.0132029,,,,,,,,6,Ontime,j,1,2.0242,9,3,39,3,1,,,,,
,,,,,,,,,,,,5f1f31b2a78ed40ea1d5e843,2021-10-19_21h16.56.679,forced_choiceRT,2021.1.2,Win32,60.0132029,,,,,,,,,,,,,,,,,,5,0,5,0,1
,0.07,,,,,,,,,f.PNG,f,5f1f31b2a78ed40ea1d5e843,2021-10-19_21h16.56.679,forced_choiceRT,2021.1.2,Win32,60.0132029,,,,,,,,7,Ontime,f,1,1.9687,0,0,0,0,1,,,,,
,0.31,,,,,,,,,f.PNG,f,5f1f31b2a78ed40ea1d5e843,2021-10-19_21h16.56.679,forced_choiceRT,2021.1.2,Win32,60.0132029,,,,,,,,7,Ontime,f,1,1.9586,0,1,1,0,1,,,,,
,1.68,,,,,,,,,h.PNG,h,5f1f31b2a78ed40ea1d5e843,2021-10-19_21h16.56.679,forced_choiceRT,2021.1.2,Win32,60.0132029,,,,,,,,7,Ontime,f,0,2.0739,0,2,2,2,1,,,,,
,1.21,,,,,,,,,g.PNG,g,5f1f31b2a78ed40ea1d5e843,2021-10-19_21h16.56.679,forced_choiceRT,2021.1.2,Win32,60.0132029,,,,,,,,7,Ontime,h,0,1.99,0,3,3,1,1,,,,,
,0.31,,,,,,,,,f.PNG,f,5f1f31b2a78ed40ea1d5e843,2021-10-19_21h16.56.679,forced_choiceRT,2021.1.2,Win32,60.0132029,,,,,,,,7,Ontime,f,1,1.945,1,0,4,0,1,,,,,
,0.31,,,,,,,,,h.PNG,h,5f1f31b2a78ed40ea1d5e843,2021-10-19_21h16.56.679,forced_choiceRT,2021.1.2,Win32,60.0132029,,,,,,,,7,Ontime,h,1,1.9614,1,1,5,2,1,,,,,
,0.74,,,,,,,,,g.PNG,g,5f1f31b2a78ed40ea1d5e843,2021-10-19_21h16.56.679,forced_choiceRT,2021.1.2,Win32,60.0132029,,,,,,,,7,Ontime,g,1,1.9233,1,2,6,1,1,,,,,
,1.99,,,,,,,,,h.PNG,h,5f1f31b2a78ed40ea1d5e843,2021-10-19_21h16.56.679,forced_choiceRT,2021.1.2,Win32,60.0132029,,,,,,,,7,Ontime,g,0,2.0574,1,3,7,2,1,,,,,
,1.32,,,,,,,,,f.PNG,f,5f1f31b2a78ed40ea1d5e843,2021-10-19_21h16.56.679,forced_choiceRT,2021.1.2,Win32,60.0132029,,,,,,,,7,Ontime,f,1,1.9737,2,0,8,0,1,,,,,
,1.85,,,,,,,,,g.PNG,g,5f1f31b2a78ed40ea1d5e843,2021-10-19_21h16.56.679,forced_choiceRT,2021.1.2,Win32,60.0132029,,,,,,,,7,Slow,h,0,2.2213,2,1,9,1,1,,,,,
,0.87,,,,,,,,,f.PNG,f,5f1f31b2a78ed40ea1d5e843,2021-10-19_21h16.56.679,forced_choiceRT,2021.1.2,Win32,60.0132029,,,,,,,,7,Ontime,f,1,2.0069,2,2,10,0,1,,,,,
,1.71,,,,,,,,,g.PNG,g,5f1f31b2a78ed40ea1d5e843,2021-10-19_21h16.56.679,forced_choiceRT,2021.1.2,Win32,60.0132029,,,,,,,,7,Slow,g,1,2.1882,2,3,11,1,1,,,,,
,1.85,,,,,,,,,g.PNG,g,5f1f31b2a78ed40ea1d5e843,2021-10-19_21h16.56.679,forced_choiceRT,2021.1.2,Win32,60.0132029,,,,,,,,7,Slow,j,0,2.1192,3,0,12,1,1,,,,,
,0,,,,,,,,,f.PNG,f,5f1f31b2a78ed40ea1d5e843,2021-10-19_21h16.56.679,forced_choiceRT,2021.1.2,Win32,60.0132029,,,,,,,,7,Ontime,f,1,2.0952,3,1,13,0,1,,,,,
,0.07,,,,,,,,,j.PNG,j,5f1f31b2a78ed40ea1d5e843,2021-10-19_21h16.56.679,forced_choiceRT,2021.1.2,Win32,60.0132029,,,,,,,,7,Fast,j,1,1.8913,3,2,14,3,1,,,,,
,1.64,,,,,,,,,h.PNG,h,5f1f31b2a78ed40ea1d5e843,2021-10-19_21h16.56.679,forced_choiceRT,2021.1.2,Win32,60.0132029,,,,,,,,7,Ontime,j,0,1.9908,3,3,15,2,1,,,,,
,1.06,,,,,,,,,h.PNG,h,5f1f31b2a78ed40ea1d5e843,2021-10-19_21h16.56.679,forced_choiceRT,2021.1.2,Win32,60.0132029,,,,,,,,7,Ontime,h,1,1.9922,4,0,16,2,1,,,,,
,0.26,,,,,,,,,f.PNG,f,5f1f31b2a78ed40ea1d5e843,2021-10-19_21h16.56.679,forced_choiceRT,2021.1.2,Win32,60.0132029,,,,,,,,7,Fast,f,1,1.8739,4,1,17,0,1,,,,,
,0.09,,,,,,,,,j.PNG,j,5f1f31b2a78ed40ea1d5e843,2021-10-19_21h16.56.679,forced_choiceRT,2021.1.2,Win32,60.0132029,,,,,,,,7,Fast,j,1,1.8906,4,2,18,3,1,,,,,
,1.67,,,,,,,,,j.PNG,j,5f1f31b2a78ed40ea1d5e843,2021-10-19_21h16.56.679,forced_choiceRT,2021.1.2,Win32,60.0132029,,,,,,,,7,Slow,g,0,2.13,4,3,19,3,1,,,,,
,1.12,,,,,,,,,g.PNG,g,5f1f31b2a78ed40ea1d5e843,2021-10-19_21h16.56.679,forced_choiceRT,2021.1.2,Win32,60.0132029,,,,,,,,7,Ontime,h,0,1.94,5,0,20,1,1,,,,,
,0.37,,,,,,,,,h.PNG,h,5f1f31b2a78ed40ea1d5e843,2021-10-19_21h16.56.679,forced_choiceRT,2021.1.2,Win32,60.0132029,,,,,,,,7,Ontime,j,0,1.9751,5,1,21,2,1,,,,,
,1.99,,,,,,,,,j.PNG,j,5f1f31b2a78ed40ea1d5e843,2021-10-19_21h16.56.679,forced_choiceRT,2021.1.2,Win32,60.0132029,,,,,,,,7,Ontime,h,0,2.0939,5,2,22,3,1,,,,,
,0.25,,,,,,,,,f.PNG,f,5f1f31b2a78ed40ea1d5e843,2021-10-19_21h16.56.679,forced_choiceRT,2021.1.2,Win32,60.0132029,,,,,,,,7,Ontime,f,1,1.9239,5,3,23,0,1,,,,,
,1.32,,,,,,,,,j.PNG,j,5f1f31b2a78ed40ea1d5e843,2021-10-19_21h16.56.679,forced_choiceRT,2021.1.2,Win32,60.0132029,,,,,,,,7,Slow,j,1,2.1045,6,0,24,3,1,,,,,
,0.4,,,,,,,,,h.PNG,h,5f1f31b2a78ed40ea1d5e843,2021-10-19_21h16.56.679,forced_choiceRT,2021.1.2,Win32,60.0132029,,,,,,,,7,Ontime,h,1,1.9568,6,1,25,2,1,,,,,
,0.18,,,,,,,,,g.PNG,g,5f1f31b2a78ed40ea1d5e843,2021-10-19_21h16.56.679,forced_choiceRT,2021.1.2,Win32,60.0132029,,,,,,,,7,Ontime,g,1,1.9228,6,2,26,1,1,,,,,
,0.15,,,,,,,,,g.PNG,g,5f1f31b2a78ed40ea1d5e843,2021-10-19_21h16.56.679,forced_choiceRT,2021.1.2,Win32,60.0132029,,,,,,,,7,Ontime,g,1,2.0574,6,3,27,1,1,,,,,
,1.76,,,,,,,,,g.PNG,g,5f1f31b2a78ed40ea1d5e843,2021-10-19_21h16.56.679,forced_choiceRT,2021.1.2,Win32,60.0132029,,,,,,,,7,Ontime,j,0,2.0587,7,0,28,1,1,,,,,
,1.45,,,,,,,,,f.PNG,f,5f1f31b2a78ed40ea1d5e843,2021-10-19_21h16.56.679,forced_choiceRT,2021.1.2,Win32,60.0132029,,,,,,,,7,Ontime,g,0,1.9125,7,1,29,0,1,,,,,
,1.6,,,,,,,,,j.PNG,j,5f1f31b2a78ed40ea1d5e843,2021-10-19_21h16.56.679,forced_choiceRT,2021.1.2,Win32,60.0132029,,,,,,,,7,Slow,g,0,2.1127,7,2,30,3,1,,,,,
,0.3,,,,,,,,,j.PNG,j,5f1f31b2a78ed40ea1d5e843,2021-10-19_21h16.56.679,forced_choiceRT,2021.1.2,Win32,60.0132029,,,,,,,,7,Ontime,j,1,1.9232,7,3,31,3,1,,,,,
,1.24,,,,,,,,,f.PNG,f,5f1f31b2a78ed40ea1d5e843,2021-10-19_21h16.56.679,forced_choiceRT,2021.1.2,Win32,60.0132029,,,,,,,,7,Ontime,f,1,1.9409,8,0,32,0,1,,,,,
,0.52,,,,,,,,,h.PNG,h,5f1f31b2a78ed40ea1d5e843,2021-10-19_21h16.56.679,forced_choiceRT,2021.1.2,Win32,60.0132029,,,,,,,,7,Ontime,h,1,2.0245,8,1,33,2,1,,,,,
,0,,,,,,,,,h.PNG,h,5f1f31b2a78ed40ea1d5e843,2021-10-19_21h16.56.679,forced_choiceRT,2021.1.2,Win32,60.0132029,,,,,,,,7,Ontime,h,1,2.0048,8,2,34,2,1,,,,,
,1.84,,,,,,,,,g.PNG,g,5f1f31b2a78ed40ea1d5e843,2021-10-19_21h16.56.679,forced_choiceRT,2021.1.2,Win32,60.0132029,,,,,,,,7,Slow,h,0,2.1752,8,3,35,1,1,,,,,
,0.37,,,,,,,,,j.PNG,j,5f1f31b2a78ed40ea1d5e843,2021-10-19_21h16.56.679,forced_choiceRT,2021.1.2,Win32,60.0132029,,,,,,,,7,Slow,j,1,2.1043,9,0,36,3,1,,,,,
,0.5,,,,,,,,,j.PNG,j,5f1f31b2a78ed40ea1d5e843,2021-10-19_21h16.56.679,forced_choiceRT,2021.1.2,Win32,60.0132029,,,,,,,,7,Fast,j,1,1.8905,9,1,37,3,1,,,,,
,1.68,,,,,,,,,j.PNG,j,5f1f31b2a78ed40ea1d5e843,2021-10-19_21h16.56.679,forced_choiceRT,2021.1.2,Win32,60.0132029,,,,,,,,7,Ontime,j,1,2.0742,9,2,38,3,1,,,,,
,0.87,,,,,,,,,h.PNG,h,5f1f31b2a78ed40ea1d5e843,2021-10-19_21h16.56.679,forced_choiceRT,2021.1.2,Win32,60.0132029,,,,,,,,7,Ontime,h,1,1.9401,9,3,39,2,1,,,,,
,,,,,,,,,,,,5f1f31b2a78ed40ea1d5e843,2021-10-19_21h16.56.679,forced_choiceRT,2021.1.2,Win32,60.0132029,,,,,,,,,,,,,,,,,,6,0,6,0,1
,1.16,,,,,,,,,g.PNG,g,5f1f31b2a78ed40ea1d5e843,2021-10-19_21h16.56.679,forced_choiceRT,2021.1.2,Win32,60.0132029,,,,,,,,8,Slow,g,1,2.2223,0,0,0,1,1,,,,,
,0.09,,,,,,,,,j.PNG,j,5f1f31b2a78ed40ea1d5e843,2021-10-19_21h16.56.679,forced_choiceRT,2021.1.2,Win32,60.0132029,,,,,,,,8,Fast,j,1,1.829,0,1,1,3,1,,,,,
,0.24,,,,,,,,,j.PNG,j,5f1f31b2a78ed40ea1d5e843,2021-10-19_21h16.56.679,forced_choiceRT,2021.1.2,Win32,60.0132029,,,,,,,,8,Ontime,j,1,1.9905,0,2,2,3,1,,,,,
,0.11,,,,,,,,,h.PNG,h,5f1f31b2a78ed40ea1d5e843,2021-10-19_21h16.56.679,forced_choiceRT,2021.1.2,Win32,60.0132029,,,,,,,,8,Ontime,h,1,2.0072,0,3,3,2,1,,,,,
,1.58,,,,,,,,,f.PNG,f,5f1f31b2a78ed40ea1d5e843,2021-10-19_21h16.56.679,forced_choiceRT,2021.1.2,Win32,60.0132029,,,,,,,,8,Ontime,g,0,1.9411,1,0,4,0,1,,,,,
,0.05,,,,,,,,,g.PNG,g,5f1f31b2a78ed40ea1d5e843,2021-10-19_21h16.56.679,forced_choiceRT,2021.1.2,Win32,60.0132029,,,,,,,,8,Ontime,g,1,1.9933,1,1,5,1,1,,,,,
,0.25,,,,,,,,,j.PNG,j,5f1f31b2a78ed40ea1d5e843,2021-10-19_21h16.56.679,forced_choiceRT,2021.1.2,Win32,60.0132029,,,,,,,,8,Ontime,j,1,2.0449,1,2,6,3,1,,,,,
,0.45,,,,,,,,,j.PNG,j,5f1f31b2a78ed40ea1d5e843,2021-10-19_21h16.56.679,forced_choiceRT,2021.1.2,Win32,60.0132029,,,,,,,,8,Ontime,j,1,1.9252,1,3,7,3,1,,,,,
,1.72,,,,,,,,,g.PNG,g,5f1f31b2a78ed40ea1d5e843,2021-10-19_21h16.56.679,forced_choiceRT,2021.1.2,Win32,60.0132029,,,,,,,,8,Slow,g,1,2.205,2,0,8,1,1,,,,,
,0.87,,,,,,,,,g.PNG,g,5f1f31b2a78ed40ea1d5e843,2021-10-19_21h16.56.679,forced_choiceRT,2021.1.2,Win32,60.0132029,,,,,,,,8,Ontime,g,1,1.9565,2,1,9,1,1,,,,,
,1.16,,,,,,,,,h.PNG,h,5f1f31b2a78ed40ea1d5e843,2021-10-19_21h16.56.679,forced_choiceRT,2021.1.2,Win32,60.0132029,,,,,,,,8,Ontime,h,1,1.9929,2,2,10,2,1,,,,,
,0.42,,,,,,,,,h.PNG,h,5f1f31b2a78ed40ea1d5e843,2021-10-19_21h16.56.679,forced_choiceRT,2021.1.2,Win32,60.0132029,,,,,,,,8,Ontime,h,1,2.0067,2,3,11,2,1,,,,,
,0.94,,,,,,,,,h.PNG,h,5f1f31b2a78ed40ea1d5e843,2021-10-19_21h16.56.679,forced_choiceRT,2021.1.2,Win32,60.0132029,,,,,,,,8,Ontime,h,1,2.0084,3,0,12,2,1,,,,,
,0.32,,,,,,,,,g.PNG,g,5f1f31b2a78ed40ea1d5e843,2021-10-19_21h16.56.679,forced_choiceRT,2021.1.2,Win32,60.0132029,,,,,,,,8,Ontime,g,1,1.9074,3,1,13,1,1,,,,,
,1.86,,,,,,,,,g.PNG,g,5f1f31b2a78ed40ea1d5e843,2021-10-19_21h16.56.679,forced_choiceRT,2021.1.2,Win32,60.0132029,,,,,,,,8,Slow,g,1,2.1239,3,2,14,1,1,,,,,
,0.4,,,,,,,,,j.PNG,j,5f1f31b2a78ed40ea1d5e843,2021-10-19_21h16.56.679,forced_choiceRT,2021.1.2,Win32,60.0132029,,,,,,,,8,Ontime,j,1,1.9758,3,3,15,3,1,,,,,
,0.52,,,,,,,,,f.PNG,f,5f1f31b2a78ed40ea1d5e843,2021-10-19_21h16.56.679,forced_choiceRT,2021.1.2,Win32,60.0132029,,,,,,,,8,Fast,f,1,1.8733,4,0,16,0,1,,,,,
,0.49,,,,,,,,,f.PNG,f,5f1f31b2a78ed40ea1d5e843,2021-10-19_21h16.56.679,forced_choiceRT,2021.1.2,Win32,60.0132029,,,,,,,,8,Fast,f,1,1.8252,4,1,17,0,1,,,,,
,0.25,,,,,,,,,f.PNG,f,5f1f31b2a78ed40ea1d5e843,2021-10-19_21h16.56.679,forced_choiceRT,2021.1.2,Win32,60.0132029,,,,,,,,8,Ontime,f,1,1.962,4,2,18,0,1,,,,,
,1.36,,,,,,,,,j.PNG,j,5f1f31b2a78ed40ea1d5e843,2021-10-19_21h16.56.679,forced_choiceRT,2021.1.2,Win32,60.0132029,,,,,,,,8,Slow,j,1,2.2237,4,3,19,3,1,,,,,
,1.98,,,,,,,,,f.PNG,f,5f1f31b2a78ed40ea1d5e843,2021-10-19_21h16.56.679,forced_choiceRT,2021.1.2,Win32,60.0132029,,,,,,,,8,Ontime,j,0,2.0746,5,0,20,0,1,,,,,
,0.01,,,,,,,,,f.PNG,f,5f1f31b2a78ed40ea1d5e843,2021-10-19_21h16.56.679,forced_choiceRT,2021.1.2,Win32,60.0132029,,,,,,,,8,Slow,f,1,2.1544,5,1,21,0,1,,,,,
,0.27,,,,,,,,,j.PNG,j,5f1f31b2a78ed40ea1d5e843,2021-10-19_21h16.56.679,forced_choiceRT,2021.1.2,Win32,60.0132029,,,,,,,,8,Ontime,j,1,1.9932,5,2,22,3,1,,,,,
,0.58,,,,,,,,,j.PNG,j,5f1f31b2a78ed40ea1d5e843,2021-10-19_21h16.56.679,forced_choiceRT,2021.1.2,Win32,60.0132029,,,,,,,,8,Ontime,j,1,1.9072,5,3,23,3,1,,,,,
,0.33,,,,,,,,,h.PNG,h,5f1f31b2a78ed40ea1d5e843,2021-10-19_21h16.56.679,forced_choiceRT,2021.1.2,Win32,60.0132029,,,,,,,,8,Fast,h,1,1.8905,6,0,24,2,1,,,,,
,1.66,,,,,,,,,h.PNG,h,5f1f31b2a78ed40ea1d5e843,2021-10-19_21h16.56.679,forced_choiceRT,2021.1.2,Win32,60.0132029,,,,,,,,8,Ontime,h,1,2.0742,6,1,25,2,1,,,,,
,1.73,,,,,,,,,g.PNG,g,5f1f31b2a78ed40ea1d5e843,2021-10-19_21h16.56.679,forced_choiceRT,2021.1.2,Win32,60.0132029,,,,,,,,8,Ontime,h,0,2.0071,6,2,26,1,1,,,,,
,0.38,,,,,,,,,f.PNG,f,5f1f31b2a78ed40ea1d5e843,2021-10-19_21h16.56.679,forced_choiceRT,2021.1.2,Win32,60.0132029,,,,,,,,8,Ontime,f,1,2.0915,6,3,27,0,1,,,,,
,0.23,,,,,,,,,h.PNG,h,5f1f31b2a78ed40ea1d5e843,2021-10-19_21h16.56.679,forced_choiceRT,2021.1.2,Win32,60.0132029,,,,,,,,8,Ontime,h,1,1.9135,7,0,28,2,1,,,,,
,1.01,,,,,,,,,j.PNG,j,5f1f31b2a78ed40ea1d5e843,2021-10-19_21h16.56.679,forced_choiceRT,2021.1.2,Win32,60.0132029,,,,,,,,8,Fast,j,1,1.8173,7,1,29,3,1,,,,,
,1.53,,,,,,,,,h.PNG,h,5f1f31b2a78ed40ea1d5e843,2021-10-19_21h16.56.679,forced_choiceRT,2021.1.2,Win32,60.0132029,,,,,,,,8,Slow,h,1,2.1278,7,2,30,2,1,,,,,
,1.16,,,,,,,,,f.PNG,f,5f1f31b2a78ed40ea1d5e843,2021-10-19_21h16.56.679,forced_choiceRT,2021.1.2,Win32,60.0132029,,,,,,,,8,Fast,f,1,1.8415,7,3,31,0,1,,,,,
,1.43,,,,,,,,,g.PNG,g,5f1f31b2a78ed40ea1d5e843,2021-10-19_21h16.56.679,forced_choiceRT,2021.1.2,Win32,60.0132029,,,,,,,,8,Slow,g,1,2.2199,8,0,32,1,1,,,,,
,1.8,,,,,,,,,h.PNG,h,5f1f31b2a78ed40ea1d5e843,2021-10-19_21h16.56.679,forced_choiceRT,2021.1.2,Win32,60.0132029,,,,,,,,8,Ontime,f,0,2.031,8,1,33,2,1,,,,,
,1.9,,,,,,,,,h.PNG,h,5f1f31b2a78ed40ea1d5e843,2021-10-19_21h16.56.679,forced_choiceRT,2021.1.2,Win32,60.0132029,,,,,,,,8,Slow,h,1,2.1057,8,2,34,2,1,,,,,
,0.49,,,,,,,,,f.PNG,f,5f1f31b2a78ed40ea1d5e843,2021-10-19_21h16.56.679,forced_choiceRT,2021.1.2,Win32,60.0132029,,,,,,,,8,Ontime,f,1,2.0086,8,3,35,0,1,,,,,
,0.38,,,,,,,,,j.PNG,j,5f1f31b2a78ed40ea1d5e843,2021-10-19_21h16.56.679,forced_choiceRT,2021.1.2,Win32,60.0132029,,,,,,,,8,Ontime,j,1,1.9579,9,0,36,3,1,,,,,
,1.9,,,,,,,,,g.PNG,g,5f1f31b2a78ed40ea1d5e843,2021-10-19_21h16.56.679,forced_choiceRT,2021.1.2,Win32,60.0132029,,,,,,,,8,Ontime,j,0,1.9415,9,1,37,1,1,,,,,
,0.49,,,,,,,,,g.PNG,g,5f1f31b2a78ed40ea1d5e843,2021-10-19_21h16.56.679,forced_choiceRT,2021.1.2,Win32,60.0132029,,,,,,,,8,Ontime,g,1,2.0074,9,2,38,1,1,,,,,
,1.19,,,,,,,,,f.PNG,f,5f1f31b2a78ed40ea1d5e843,2021-10-19_21h16.56.679,forced_choiceRT,2021.1.2,Win32,60.0132029,,,,,,,,8,Ontime,f,1,1.9942,9,3,39,0,1,,,,,
,,,,,,,,,,,,5f1f31b2a78ed40ea1d5e843,2021-10-19_21h16.56.679,forced_choiceRT,2021.1.2,Win32,60.0132029,,,,,,,,,,,,,,,,,,7,0,7,0,1
,1.4,,,,,,,,,j.PNG,j,5f1f31b2a78ed40ea1d5e843,2021-10-19_21h16.56.679,forced_choiceRT,2021.1.2,Win32,60.0132029,,,,,,,,9,Ontime,j,1,1.9846,0,0,0,3,1,,,,,
,0.91,,,,,,,,,f.PNG,f,5f1f31b2a78ed40ea1d5e843,2021-10-19_21h16.56.679,forced_choiceRT,2021.1.2,Win32,60.0132029,,,,,,,,9,Ontime,f,1,2.0966,0,1,1,0,1,,,,,
,0.52,,,,,,,,,f.PNG,f,5f1f31b2a78ed40ea1d5e843,2021-10-19_21h16.56.679,forced_choiceRT,2021.1.2,Win32,60.0132029,,,,,,,,9,Ontime,f,1,1.9904,0,2,2,0,1,,,,,
,0,,,,,,,,,g.PNG,g,5f1f31b2a78ed40ea1d5e843,2021-10-19_21h16.56.679,forced_choiceRT,2021.1.2,Win32,60.0132029,,,,,,,,9,Ontime,g,1,1.9555,0,3,3,1,1,,,,,
,1.24,,,,,,,,,h.PNG,h,5f1f31b2a78ed40ea1d5e843,2021-10-19_21h16.56.679,forced_choiceRT,2021.1.2,Win32,60.0132029,,,,,,,,9,Ontime,h,1,2.0616,1,0,4,2,1,,,,,
,0.06,,,,,,,,,h.PNG,h,5f1f31b2a78ed40ea1d5e843,2021-10-19_21h16.56.679,forced_choiceRT,2021.1.2,Win32,60.0132029,,,,,,,,9,Ontime,h,1,1.9739,1,1,5,2,1,,,,,
,1.9,,,,,,,,,f.PNG,f,5f1f31b2a78ed40ea1d5e843,2021-10-19_21h16.56.679,forced_choiceRT,2021.1.2,Win32,60.0132029,,,,,,,,9,Ontime,j,0,2.0902,1,2,6,0,1,,,,,
,1.66,,,,,,,,,g.PNG,g,5f1f31b2a78ed40ea1d5e843,2021-10-19_21h16.56.679,forced_choiceRT,2021.1.2,Win32,60.0132029,,,,,,,,9,Ontime,h,0,1.973,1,3,7,1,1,,,,,
,0.72,,,,,,,,,f.PNG,f,5f1f31b2a78ed40ea1d5e843,2021-10-19_21h16.56.679,forced_choiceRT,2021.1.2,Win32,60.0132029,,,,,,,,9,Fast,f,1,1.7731,2,0,8,0,1,,,,,
,1.71,,,,,,,,,f.PNG,f,5f1f31b2a78ed40ea1d5e843,2021-10-19_21h16.56.679,forced_choiceRT,2021.1.2,Win32,60.0132029,,,,,,,,9,Ontime,h,0,1.9735,2,1,9,0,1,,,,,
,0.99,,,,,,,,,j.PNG,j,5f1f31b2a78ed40ea1d5e843,2021-10-19_21h16.56.679,forced_choiceRT,2021.1.2,Win32,60.0132029,,,,,,,,9,Fast,j,1,1.8623,2,2,10,3,1,,,,,
,1.01,,,,,,,,,j.PNG,j,5f1f31b2a78ed40ea1d5e843,2021-10-19_21h16.56.679,forced_choiceRT,2021.1.2,Win32,60.0132029,,,,,,,,9,Ontime,j,1,2.057,2,3,11,3,1,,,,,
,1.19,,,,,,,,,h.PNG,h,5f1f31b2a78ed40ea1d5e843,2021-10-19_21h16.56.679,forced_choiceRT,2021.1.2,Win32,60.0132029,,,,,,,,9,Ontime,h,1,2.0067,3,0,12,2,1,,,,,
,1.28,,,,,,,,,f.PNG,f,5f1f31b2a78ed40ea1d5e843,2021-10-19_21h16.56.679,forced_choiceRT,2021.1.2,Win32,60.0132029,,,,,,,,9,Ontime,f,1,2.0242,3,1,13,0,1,,,,,
,0.85,,,,,,,,,g.PNG,g,5f1f31b2a78ed40ea1d5e843,2021-10-19_21h16.56.679,forced_choiceRT,2021.1.2,Win32,60.0132029,,,,,,,,9,Fast,g,1,1.674,3,2,14,1,1,,,,,
,0.92,,,,,,,,,f.PNG,f,5f1f31b2a78ed40ea1d5e843,2021-10-19_21h16.56.679,forced_choiceRT,2021.1.2,Win32,60.0132029,,,,,,,,9,Ontime,f,1,1.9457,3,3,15,0,1,,,,,
,1.01,,,,,,,,,f.PNG,f,5f1f31b2a78ed40ea1d5e843,2021-10-19_21h16.56.679,forced_choiceRT,2021.1.2,Win32,60.0132029,,,,,,,,9,Ontime,f,1,2.0068,4,0,16,0,1,,,,,
,0.18,,,,,,,,,g.PNG,g,5f1f31b2a78ed40ea1d5e843,2021-10-19_21h16.56.679,forced_choiceRT,2021.1.2,Win32,60.0132029,,,,,,,,9,Fast,g,1,1.841,4,1,17,1,1,,,,,
,1.15,,,,,,,,,g.PNG,g,5f1f31b2a78ed40ea1d5e843,2021-10-19_21h16.56.679,forced_choiceRT,2021.1.2,Win32,60.0132029,,,,,,,,9,Ontime,g,1,1.9723,4,2,18,1,1,,,,,
,1.24,,,,,,,,,f.PNG,f,5f1f31b2a78ed40ea1d5e843,2021-10-19_21h16.56.679,forced_choiceRT,2021.1.2,Win32,60.0132029,,,,,,,,9,Ontime,f,1,2.0084,4,3,19,0,1,,,,,
,1.69,,,,,,,,,j.PNG,j,5f1f31b2a78ed40ea1d5e843,2021-10-19_21h16.56.679,forced_choiceRT,2021.1.2,Win32,60.0132029,,,,,,,,9,Slow,h,0,2.3036,5,0,20,3,1,,,,,
,1.7,,,,,,,,,g.PNG,g,5f1f31b2a78ed40ea1d5e843,2021-10-19_21h16.56.679,forced_choiceRT,2021.1.2,Win32,60.0132029,,,,,,,,9,Slow,g,1,2.2391,5,1,21,1,1,,,,,
,1.15,,,,,,,,,h.PNG,h,5f1f31b2a78ed40ea1d5e843,2021-10-19_21h16.56.679,forced_choiceRT,2021.1.2,Win32,60.0132029,,,,,,,,9,Slow,h,1,2.1399,5,2,22,2,1,,,,,
,1.46,,,,,,,,,f.PNG,f,5f1f31b2a78ed40ea1d5e843,2021-10-19_21h16.56.679,forced_choiceRT,2021.1.2,Win32,60.0132029,,,,,,,,9,Ontime,j,0,2.0073,5,3,23,0,1,,,,,
,1.08,,,,,,,,,g.PNG,g,5f1f31b2a78ed40ea1d5e843,2021-10-19_21h16.56.679,forced_choiceRT,2021.1.2,Win32,60.0132029,,,,,,,,9,Ontime,g,1,2.0412,6,0,24,1,1,,,,,
,1.35,,,,,,,,,h.PNG,h,5f1f31b2a78ed40ea1d5e843,2021-10-19_21h16.56.679,forced_choiceRT,2021.1.2,Win32,60.0132029,,,,,,,,9,Ontime,j,0,1.9581,6,1,25,2,1,,,,,
,0.94,,,,,,,,,j.PNG,j,5f1f31b2a78ed40ea1d5e843,2021-10-19_21h16.56.679,forced_choiceRT,2021.1.2,Win32,60.0132029,,,,,,,,9,Ontime,j,1,1.9733,6,2,26,3,1,,,,,
,1.92,,,,,,,,,j.PNG,j,5f1f31b2a78ed40ea1d5e843,2021-10-19_21h16.56.679,forced_choiceRT,2021.1.2,Win32,60.0132029,,,,,,,,9,Slow,j,1,2.313,6,3,27,3,1,,,,,
,0.48,,,,,,,,,j.PNG,j,5f1f31b2a78ed40ea1d5e843,2021-10-19_21h16.56.679,forced_choiceRT,2021.1.2,Win32,60.0132029,,,,,,,,9,Fast,j,1,1.8774,7,0,28,3,1,,,,,
,0.08,,,,,,,,,h.PNG,h,5f1f31b2a78ed40ea1d5e843,2021-10-19_21h16.56.679,forced_choiceRT,2021.1.2,Win32,60.0132029,,,,,,,,9,Slow,h,1,2.1298,7,1,29,2,1,,,,,
,0.42,,,,,,,,,j.PNG,j,5f1f31b2a78ed40ea1d5e843,2021-10-19_21h16.56.679,forced_choiceRT,2021.1.2,Win32,60.0132029,,,,,,,,9,Ontime,j,1,2.0075,7,2,30,3,1,,,,,
,1.29,,,,,,,,,h.PNG,h,5f1f31b2a78ed40ea1d5e843,2021-10-19_21h16.56.679,forced_choiceRT,2021.1.2,Win32,60.0132029,,,,,,,,9,Slow,h,1,2.1053,7,3,31,2,1,,,,,
,1.45,,,,,,,,,h.PNG,h,5f1f31b2a78ed40ea1d5e843,2021-10-19_21h16.56.679,forced_choiceRT,2021.1.2,Win32,60.0132029,,,,,,,,9,Slow,h,1,2.1465,8,0,32,2,1,,,,,
,0.18,,,,,,,,,g.PNG,g,5f1f31b2a78ed40ea1d5e843,2021-10-19_21h16.56.679,forced_choiceRT,2021.1.2,Win32,60.0132029,,,,,,,,9,Fast,g,1,1.7242,8,1,33,1,1,,,,,
,0.53,,,,,,,,,g.PNG,g,5f1f31b2a78ed40ea1d5e843,2021-10-19_21h16.56.679,forced_choiceRT,2021.1.2,Win32,60.0132029,,,,,,,,9,Ontime,g,1,1.9923,8,2,34,1,1,,,,,
,1.9,,,,,,,,,g.PNG,g,5f1f31b2a78ed40ea1d5e843,2021-10-19_21h16.56.679,forced_choiceRT,2021.1.2,Win32,60.0132029,,,,,,,,9,Slow,j,0,2.135,8,3,35,1,1,,,,,
,1.05,,,,,,,,,j.PNG,j,5f1f31b2a78ed40ea1d5e843,2021-10-19_21h16.56.679,forced_choiceRT,2021.1.2,Win32,60.0132029,,,,,,,,9,Ontime,j,1,2.0928,9,0,36,3,1,,,,,
,1.09,,,,,,,,,j.PNG,j,5f1f31b2a78ed40ea1d5e843,2021-10-19_21h16.56.679,forced_choiceRT,2021.1.2,Win32,60.0132029,,,,,,,,9,Ontime,j,1,1.9557,9,1,37,3,1,,,,,
,0.92,,,,,,,,,h.PNG,h,5f1f31b2a78ed40ea1d5e843,2021-10-19_21h16.56.679,forced_choiceRT,2021.1.2,Win32,60.0132029,,,,,,,,9,Fast,h,1,1.6285,9,2,38,2,1,,,,,
,0.44,,,,,,,,,h.PNG,h,5f1f31b2a78ed40ea1d5e843,2021-10-19_21h16.56.679,forced_choiceRT,2021.1.2,Win32,60.0132029,,,,,,,,9,Ontime,h,1,1.9284,9,3,39,2,1,,,,,
,,,,,,,,,,,,5f1f31b2a78ed40ea1d5e843,2021-10-19_21h16.56.679,forced_choiceRT,2021.1.2,Win32,60.0132029,,,,,,,,,,,,,,,,,,8,0,8,0,1
,1.32,,,,,,,,,j.PNG,j,5f1f31b2a78ed40ea1d5e843,2021-10-19_21h16.56.679,forced_choiceRT,2021.1.2,Win32,60.0132029,,,,,,,,10,Ontime,j,1,1.921,0,0,0,3,1,,,,,
,1.59,,,,,,,,,g.PNG,g,5f1f31b2a78ed40ea1d5e843,2021-10-19_21h16.56.679,forced_choiceRT,2021.1.2,Win32,60.0132029,,,,,,,,10,Slow,g,1,2.2263,0,1,1,1,1,,,,,
,1.92,,,,,,,,,h.PNG,h,5f1f31b2a78ed40ea1d5e843,2021-10-19_21h16.56.679,forced_choiceRT,2021.1.2,Win32,60.0132029,,,,,,,,10,Slow,h,1,2.1056,0,2,2,2,1,,,,,
,0.73,,,,,,,,,h.PNG,h,5f1f31b2a78ed40ea1d5e843,2021-10-19_21h16.56.679,forced_choiceRT,2021.1.2,Win32,60.0132029,,,,,,,,10,Ontime,h,1,1.9908,0,3,3,2,1,,,,,
,0.64,,,,,,,,,h.PNG,h,5f1f31b2a78ed40ea1d5e843,2021-10-19_21h16.56.679,forced_choiceRT,2021.1.2,Win32,60.0132029,,,,,,,,10,Fast,h,1,1.8444,1,0,4,2,1,,,,,
,0.94,,,,,,,,,g.PNG,g,5f1f31b2a78ed40ea1d5e843,2021-10-19_21h16.56.679,forced_choiceRT,2021.1.2,Win32,60.0132029,,,,,,,,10,Ontime,g,1,1.9081,1,1,5,1,1,,,,,
,0.96,,,,,,,,,j.PNG,j,5f1f31b2a78ed40ea1d5e843,2021-10-19_21h16.56.679,forced_choiceRT,2021.1.2,Win32,60.0132029,,,,,,,,10,Ontime,j,1,2.0115,1,2,6,3,1,,,,,
,1.24,,,,,,,,,f.PNG,f,5f1f31b2a78ed40ea1d5e843,2021-10-19_21h16.56.679,forced_choiceRT,2021.1.2,Win32,60.0132029,,,,,,,,10,Ontime,f,1,2.0908,1,3,7,0,1,,,,,
,1.45,,,,,,,,,g.PNG,g,5f1f31b2a78ed40ea1d5e843,2021-10-19_21h16.56.679,forced_choiceRT,2021.1.2,Win32,60.0132029,,,,,,,,10,Ontime,g,1,2.0769,2,0,8,1,1,,,,,
,1.37,,,,,,,,,g.PNG,g,5f1f31b2a78ed40ea1d5e843,2021-10-19_21h16.56.679,forced_choiceRT,2021.1.2,Win32,60.0132029,,,,,,,,10,Ontime,g,1,2.0606,2,1,9,1,1,,,,,
,1.33,,,,,,,,,f.PNG,f,5f1f31b2a78ed40ea1d5e843,2021-10-19_21h16.56.679,forced_choiceRT,2021.1.2,Win32,60.0132029,,,,,,,,10,Ontime,f,1,2.0095,2,2,10,0,1,,,,,
,1.48,,,,,,,,,j.PNG,j,5f1f31b2a78ed40ea1d5e843,2021-10-19_21h16.56.679,forced_choiceRT,2021.1.2,Win32,60.0132029,,,,,,,,10,Ontime,h,0,1.9918,2,3,11,3,1,,,,,
,1.04,,,,,,,,,g.PNG,g,5f1f31b2a78ed40ea1d5e843,2021-10-19_21h16.56.679,forced_choiceRT,2021.1.2,Win32,60.0132029,,,,,,,,10,Ontime,g,1,2.0266,3,0,12,1,1,,,,,
,1.31,,,,,,,,,h.PNG,h,5f1f31b2a78ed40ea1d5e843,2021-10-19_21h16.56.679,forced_choiceRT,2021.1.2,Win32,60.0132029,,,,,,,,10,Ontime,j,0,1.9422,3,1,13,2,1,,,,,
,0.18,,,,,,,,,f.PNG,f,5f1f31b2a78ed40ea1d5e843,2021-10-19_21h16.56.679,forced_choiceRT,2021.1.2,Win32,60.0132029,,,,,,,,10,Ontime,f,1,1.9398,3,2,14,0,1,,,,,
,1.71,,,,,,,,,h.PNG,h,5f1f31b2a78ed40ea1d5e843,2021-10-19_21h16.56.679,forced_choiceRT,2021.1.2,Win32,60.0132029,,,,,,,,10,Ontime,j,0,1.9913,3,3,15,2,1,,,,,
,0.45,,,,,,,,,j.PNG,j,5f1f31b2a78ed40ea1d5e843,2021-10-19_21h16.56.679,forced_choiceRT,2021.1.2,Win32,60.0132029,,,,,,,,10,Ontime,j,1,1.974,4,0,16,3,1,,,,,
,1.51,,,,,,,,,g.PNG,g,5f1f31b2a78ed40ea1d5e843,2021-10-19_21h16.56.679,forced_choiceRT,2021.1.2,Win32,60.0132029,,,,,,,,10,Ontime,h,0,1.959,4,1,17,1,1,,,,,
,0.91,,,,,,,,,h.PNG,h,5f1f31b2a78ed40ea1d5e843,2021-10-19_21h16.56.679,forced_choiceRT,2021.1.2,Win32,60.0132029,,,,,,,,10,Ontime,h,1,2.007,4,2,18,2,1,,,,,
,0.97,,,,,,,,,f.PNG,f,5f1f31b2a78ed40ea1d5e843,2021-10-19_21h16.56.679,forced_choiceRT,2021.1.2,Win32,60.0132029,,,,,,,,10,Ontime,f,1,2.0244,4,3,19,0,1,,,,,
,1.63,,,,,,,,,f.PNG,f,5f1f31b2a78ed40ea1d5e843,2021-10-19_21h16.56.679,forced_choiceRT,2021.1.2,Win32,60.0132029,,,,,,,,10,Slow,f,1,2.3407,5,0,20,0,1,,,,,
,1.29,,,,,,,,,h.PNG,h,5f1f31b2a78ed40ea1d5e843,2021-10-19_21h16.56.679,forced_choiceRT,2021.1.2,Win32,60.0132029,,,,,,,,10,Ontime,h,1,1.9113,5,1,21,2,1,,,,,
,1.34,,,,,,,,,f.PNG,f,5f1f31b2a78ed40ea1d5e843,2021-10-19_21h16.56.679,forced_choiceRT,2021.1.2,Win32,60.0132029,,,,,,,,10,Ontime,f,1,1.9724,5,2,22,0,1,,,,,
,0.67,,,,,,,,,f.PNG,f,5f1f31b2a78ed40ea1d5e843,2021-10-19_21h16.56.679,forced_choiceRT,2021.1.2,Win32,60.0132029,,,,,,,,10,Ontime,f,1,1.9396,5,3,23,0,1,,,,,
,1.34,,,,,,,,,j.PNG,j,5f1f31b2a78ed40ea1d5e843,2021-10-19_21h16.56.679,forced_choiceRT,2021.1.2,Win32,60.0132029,,,,,,,,10,Ontime,j,1,1.907,6,0,24,3,1,,,,,
,1.76,,,,,,,,,j.PNG,j,5f1f31b2a78ed40ea1d5e843,2021-10-19_21h16.56.679,forced_choiceRT,2021.1.2,Win32,60.0132029,,,,,,,,10,Ontime,f,0,2.0425,6,1,25,3,1,,,,,
,0.57,,,,,,,,,j.PNG,j,5f1f31b2a78ed40ea1d5e843,2021-10-19_21h16.56.679,forced_choiceRT,2021.1.2,Win32,60.0132029,,,,,,,,10,Ontime,j,1,2.0584,6,2,26,3,1,,,,,
,1.3,,,,,,,,,f.PNG,f,5f1f31b2a78ed40ea1d5e843,2021-10-19_21h16.56.679,forced_choiceRT,2021.1.2,Win32,60.0132029,,,,,,,,10,Ontime,f,1,1.9104,6,3,27,0,1,,,,,
,0.12,,,,,,,,,g.PNG,g,5f1f31b2a78ed40ea1d5e843,2021-10-19_21h16.56.679,forced_choiceRT,2021.1.2,Win32,60.0132029,,,,,,,,10,Ontime,g,1,1.9233,7,0,28,1,1,,,,,
,0.26,,,,,,,,,j.PNG,j,5f1f31b2a78ed40ea1d5e843,2021-10-19_21h16.56.679,forced_choiceRT,2021.1.2,Win32,60.0132029,,,,,,,,10,Ontime,j,1,1.9415,7,1,29,3,1,,,,,
,0.92,,,,,,,,,f.PNG,f,5f1f31b2a78ed40ea1d5e843,2021-10-19_21h16.56.679,forced_choiceRT,2021.1.2,Win32,60.0132029,,,,,,,,10,Ontime,f,1,1.9413,7,2,30,0,1,,,,,
,0.26,,,,,,,,,g.PNG,g,5f1f31b2a78ed40ea1d5e843,2021-10-19_21h16.56.679,forced_choiceRT,2021.1.2,Win32,60.0132029,,,,,,,,10,Ontime,g,1,1.9574,7,3,31,1,1,,,,,
,0.67,,,,,,,,,g.PNG,g,5f1f31b2a78ed40ea1d5e843,2021-10-19_21h16.56.679,forced_choiceRT,2021.1.2,Win32,60.0132029,,,,,,,,10,Ontime,g,1,1.9475,8,0,32,1,1,,,,,
,1.43,,,,,,,,,f.PNG,f,5f1f31b2a78ed40ea1d5e843,2021-10-19_21h16.56.679,forced_choiceRT,2021.1.2,Win32,60.0132029,,,,,,,,10,Ontime,f,1,1.9571,8,1,33,0,1,,,,,
,0.36,,,,,,,,,g.PNG,g,5f1f31b2a78ed40ea1d5e843,2021-10-19_21h16.56.679,forced_choiceRT,2021.1.2,Win32,60.0132029,,,,,,,,10,Ontime,g,1,1.9425,8,2,34,1,1,,,,,
,0.53,,,,,,,,,h.PNG,h,5f1f31b2a78ed40ea1d5e843,2021-10-19_21h16.56.679,forced_choiceRT,2021.1.2,Win32,60.0132029,,,,,,,,10,Fast,h,1,1.8903,8,3,35,2,1,,,,,
,1.91,,,,,,,,,h.PNG,h,5f1f31b2a78ed40ea1d5e843,2021-10-19_21h16.56.679,forced_choiceRT,2021.1.2,Win32,60.0132029,,,,,,,,10,Ontime,f,0,2.0789,9,0,36,2,1,,,,,
,1.86,,,,,,,,,j.PNG,j,5f1f31b2a78ed40ea1d5e843,2021-10-19_21h16.56.679,forced_choiceRT,2021.1.2,Win32,60.0132029,,,,,,,,10,Ontime,j,1,1.9904,9,1,37,3,1,,,,,
,0.58,,,,,,,,,h.PNG,h,5f1f31b2a78ed40ea1d5e843,2021-10-19_21h16.56.679,forced_choiceRT,2021.1.2,Win32,60.0132029,,,,,,,,10,Ontime,h,1,1.9243,9,2,38,2,1,,,,,
,0.76,,,,,,,,,j.PNG,j,5f1f31b2a78ed40ea1d5e843,2021-10-19_21h16.56.679,forced_choiceRT,2021.1.2,Win32,60.0132029,,,,,,,,10,Ontime,j,1,1.9387,9,3,39,3,1,,,,,
,,,,,,,,,,,,5f1f31b2a78ed40ea1d5e843,2021-10-19_21h16.56.679,forced_choiceRT,2021.1.2,Win32,60.0132029,,,,,,,,,,,,,,,,,,9,0,9,0,1
