IP_Addresss,target_onset,trial_resp_sp.keys,trial_resp_sp.corr,trial_resp_sp.rt,trials_train_loop.thisRepN,trials_train_loop.thisTrialN,trials_train_loop.thisN,trials_train_loop.thisIndex,trials_train_loop.ran,pic,correct_key,participant,date,expName,psychopyVersion,OS,frameRate,trial_resp_timing.keys,trial_resp_timing.rt,trials_train_timing.thisRepN,trials_train_timing.thisTrialN,trials_train_timing.thisN,trials_train_timing.thisIndex,trials_train_timing.ran,block_id,ontime,forcedRT_resp.keys,forcedRT_resp.corr,forcedRT_resp.rt,trials.thisRepN,trials.thisTrialN,trials.thisN,trials.thisIndex,trials.ran,blocks.thisRepN,blocks.thisTrialN,blocks.thisN,blocks.thisIndex,blocks.ran
107.77.200.201,0,f,1,2.375,0,0,0,0,1,f.PNG,f,5f53d4f0d3e03471e4eb4847,2021-10-19_14h46.20.343,forced_choiceRT,2021.1.2,Win32,60.24096386,,,,,,,,,,,,,,,,,,,,,,
,0,h,1,2.887,0,1,1,2,1,h.PNG,h,5f53d4f0d3e03471e4eb4847,2021-10-19_14h46.20.343,forced_choiceRT,2021.1.2,Win32,60.24096386,,,,,,,,,,,,,,,,,,,,,,
,0,f,1,2.422,0,2,2,0,1,f.PNG,f,5f53d4f0d3e03471e4eb4847,2021-10-19_14h46.20.343,forced_choiceRT,2021.1.2,Win32,60.24096386,,,,,,,,,,,,,,,,,,,,,,
,0,j,1,1.979,0,3,3,3,1,j.PNG,j,5f53d4f0d3e03471e4eb4847,2021-10-19_14h46.20.343,forced_choiceRT,2021.1.2,Win32,60.24096386,,,,,,,,,,,,,,,,,,,,,,
,0,g,1,2.122,1,0,4,1,1,g.PNG,g,5f53d4f0d3e03471e4eb4847,2021-10-19_14h46.20.343,forced_choiceRT,2021.1.2,Win32,60.24096386,,,,,,,,,,,,,,,,,,,,,,
,0,j,1,1.543,1,1,5,3,1,j.PNG,j,5f53d4f0d3e03471e4eb4847,2021-10-19_14h46.20.343,forced_choiceRT,2021.1.2,Win32,60.24096386,,,,,,,,,,,,,,,,,,,,,,
,0,j,1,1.345,1,2,6,3,1,j.PNG,j,5f53d4f0d3e03471e4eb4847,2021-10-19_14h46.20.343,forced_choiceRT,2021.1.2,Win32,60.24096386,,,,,,,,,,,,,,,,,,,,,,
,0,g,1,1.427,1,3,7,1,1,g.PNG,g,5f53d4f0d3e03471e4eb4847,2021-10-19_14h46.20.343,forced_choiceRT,2021.1.2,Win32,60.24096386,,,,,,,,,,,,,,,,,,,,,,
,0,f,1,0.901,2,0,8,0,1,f.PNG,f,5f53d4f0d3e03471e4eb4847,2021-10-19_14h46.20.343,forced_choiceRT,2021.1.2,Win32,60.24096386,,,,,,,,,,,,,,,,,,,,,,
,0,g,1,0.996,2,1,9,1,1,g.PNG,g,5f53d4f0d3e03471e4eb4847,2021-10-19_14h46.20.343,forced_choiceRT,2021.1.2,Win32,60.24096386,,,,,,,,,,,,,,,,,,,,,,
,0,h,1,0.979,2,2,10,2,1,h.PNG,h,5f53d4f0d3e03471e4eb4847,2021-10-19_14h46.20.343,forced_choiceRT,2021.1.2,Win32,60.24096386,,,,,,,,,,,,,,,,,,,,,,
,0,g,1,1.477,2,3,11,1,1,g.PNG,g,5f53d4f0d3e03471e4eb4847,2021-10-19_14h46.20.343,forced_choiceRT,2021.1.2,Win32,60.24096386,,,,,,,,,,,,,,,,,,,,,,
,0,f,1,0.814,3,0,12,0,1,f.PNG,f,5f53d4f0d3e03471e4eb4847,2021-10-19_14h46.20.343,forced_choiceRT,2021.1.2,Win32,60.24096386,,,,,,,,,,,,,,,,,,,,,,
,0,j,1,0.93,3,1,13,3,1,j.PNG,j,5f53d4f0d3e03471e4eb4847,2021-10-19_14h46.20.343,forced_choiceRT,2021.1.2,Win32,60.24096386,,,,,,,,,,,,,,,,,,,,,,
,0,g,1,1.476,3,2,14,1,1,g.PNG,g,5f53d4f0d3e03471e4eb4847,2021-10-19_14h46.20.343,forced_choiceRT,2021.1.2,Win32,60.24096386,,,,,,,,,,,,,,,,,,,,,,
,0,h,1,1.079,3,3,15,2,1,h.PNG,h,5f53d4f0d3e03471e4eb4847,2021-10-19_14h46.20.343,forced_choiceRT,2021.1.2,Win32,60.24096386,,,,,,,,,,,,,,,,,,,,,,
,0,f,1,0.896,4,0,16,0,1,f.PNG,f,5f53d4f0d3e03471e4eb4847,2021-10-19_14h46.20.343,forced_choiceRT,2021.1.2,Win32,60.24096386,,,,,,,,,,,,,,,,,,,,,,
,0,h,1,2.53,4,1,17,2,1,h.PNG,h,5f53d4f0d3e03471e4eb4847,2021-10-19_14h46.20.343,forced_choiceRT,2021.1.2,Win32,60.24096386,,,,,,,,,,,,,,,,,,,,,,
,0,h,1,1.659,4,2,18,2,1,h.PNG,h,5f53d4f0d3e03471e4eb4847,2021-10-19_14h46.20.343,forced_choiceRT,2021.1.2,Win32,60.24096386,,,,,,,,,,,,,,,,,,,,,,
,0,h,1,0.732,4,3,19,2,1,h.PNG,h,5f53d4f0d3e03471e4eb4847,2021-10-19_14h46.20.343,forced_choiceRT,2021.1.2,Win32,60.24096386,,,,,,,,,,,,,,,,,,,,,,
,0,j,1,0.796,5,0,20,3,1,j.PNG,j,5f53d4f0d3e03471e4eb4847,2021-10-19_14h46.20.343,forced_choiceRT,2021.1.2,Win32,60.24096386,,,,,,,,,,,,,,,,,,,,,,
,0,h,1,0.796,5,1,21,2,1,h.PNG,h,5f53d4f0d3e03471e4eb4847,2021-10-19_14h46.20.343,forced_choiceRT,2021.1.2,Win32,60.24096386,,,,,,,,,,,,,,,,,,,,,,
,0,f,1,0.847,5,2,22,0,1,f.PNG,f,5f53d4f0d3e03471e4eb4847,2021-10-19_14h46.20.343,forced_choiceRT,2021.1.2,Win32,60.24096386,,,,,,,,,,,,,,,,,,,,,,
,0,g,1,0.68,5,3,23,1,1,g.PNG,g,5f53d4f0d3e03471e4eb4847,2021-10-19_14h46.20.343,forced_choiceRT,2021.1.2,Win32,60.24096386,,,,,,,,,,,,,,,,,,,,,,
,0,h,1,1.177,6,0,24,2,1,h.PNG,h,5f53d4f0d3e03471e4eb4847,2021-10-19_14h46.20.343,forced_choiceRT,2021.1.2,Win32,60.24096386,,,,,,,,,,,,,,,,,,,,,,
,0,h,1,0.781,6,1,25,2,1,h.PNG,h,5f53d4f0d3e03471e4eb4847,2021-10-19_14h46.20.343,forced_choiceRT,2021.1.2,Win32,60.24096386,,,,,,,,,,,,,,,,,,,,,,
,0,f,1,1.029,6,2,26,0,1,f.PNG,f,5f53d4f0d3e03471e4eb4847,2021-10-19_14h46.20.343,forced_choiceRT,2021.1.2,Win32,60.24096386,,,,,,,,,,,,,,,,,,,,,,
,0,f,1,0.78,6,3,27,0,1,f.PNG,f,5f53d4f0d3e03471e4eb4847,2021-10-19_14h46.20.343,forced_choiceRT,2021.1.2,Win32,60.24096386,,,,,,,,,,,,,,,,,,,,,,
,0,j,1,1.294,7,0,28,3,1,j.PNG,j,5f53d4f0d3e03471e4eb4847,2021-10-19_14h46.20.343,forced_choiceRT,2021.1.2,Win32,60.24096386,,,,,,,,,,,,,,,,,,,,,,
,0,f,1,1.31,7,1,29,0,1,f.PNG,f,5f53d4f0d3e03471e4eb4847,2021-10-19_14h46.20.343,forced_choiceRT,2021.1.2,Win32,60.24096386,,,,,,,,,,,,,,,,,,,,,,
,0,g,1,0.82,7,2,30,1,1,g.PNG,g,5f53d4f0d3e03471e4eb4847,2021-10-19_14h46.20.343,forced_choiceRT,2021.1.2,Win32,60.24096386,,,,,,,,,,,,,,,,,,,,,,
,0,g,1,0.865,7,3,31,1,1,g.PNG,g,5f53d4f0d3e03471e4eb4847,2021-10-19_14h46.20.343,forced_choiceRT,2021.1.2,Win32,60.24096386,,,,,,,,,,,,,,,,,,,,,,
,0,f,1,0.779,8,0,32,0,1,f.PNG,f,5f53d4f0d3e03471e4eb4847,2021-10-19_14h46.20.343,forced_choiceRT,2021.1.2,Win32,60.24096386,,,,,,,,,,,,,,,,,,,,,,
,0,j,1,1.66,8,1,33,3,1,j.PNG,j,5f53d4f0d3e03471e4eb4847,2021-10-19_14h46.20.343,forced_choiceRT,2021.1.2,Win32,60.24096386,,,,,,,,,,,,,,,,,,,,,,
,0,g,1,1.181,8,2,34,1,1,g.PNG,g,5f53d4f0d3e03471e4eb4847,2021-10-19_14h46.20.343,forced_choiceRT,2021.1.2,Win32,60.24096386,,,,,,,,,,,,,,,,,,,,,,
,0,h,1,0.995,8,3,35,2,1,h.PNG,h,5f53d4f0d3e03471e4eb4847,2021-10-19_14h46.20.343,forced_choiceRT,2021.1.2,Win32,60.24096386,,,,,,,,,,,,,,,,,,,,,,
,0,g,1,0.897,9,0,36,1,1,g.PNG,g,5f53d4f0d3e03471e4eb4847,2021-10-19_14h46.20.343,forced_choiceRT,2021.1.2,Win32,60.24096386,,,,,,,,,,,,,,,,,,,,,,
,0,j,1,1.046,9,1,37,3,1,j.PNG,j,5f53d4f0d3e03471e4eb4847,2021-10-19_14h46.20.343,forced_choiceRT,2021.1.2,Win32,60.24096386,,,,,,,,,,,,,,,,,,,,,,
,0,f,1,0.796,9,2,38,0,1,f.PNG,f,5f53d4f0d3e03471e4eb4847,2021-10-19_14h46.20.343,forced_choiceRT,2021.1.2,Win32,60.24096386,,,,,,,,,,,,,,,,,,,,,,
,0,j,1,1.052,9,3,39,3,1,j.PNG,j,5f53d4f0d3e03471e4eb4847,2021-10-19_14h46.20.343,forced_choiceRT,2021.1.2,Win32,60.24096386,,,,,,,,,,,,,,,,,,,,,,
,0,g,1,1.446,10,0,40,1,1,g.PNG,g,5f53d4f0d3e03471e4eb4847,2021-10-19_14h46.20.343,forced_choiceRT,2021.1.2,Win32,60.24096386,,,,,,,,,,,,,,,,,,,,,,
,0,g,1,0.813,10,1,41,1,1,g.PNG,g,5f53d4f0d3e03471e4eb4847,2021-10-19_14h46.20.343,forced_choiceRT,2021.1.2,Win32,60.24096386,,,,,,,,,,,,,,,,,,,,,,
,0,f,1,0.797,10,2,42,0,1,f.PNG,f,5f53d4f0d3e03471e4eb4847,2021-10-19_14h46.20.343,forced_choiceRT,2021.1.2,Win32,60.24096386,,,,,,,,,,,,,,,,,,,,,,
,0,h,1,1.211,10,3,43,2,1,h.PNG,h,5f53d4f0d3e03471e4eb4847,2021-10-19_14h46.20.343,forced_choiceRT,2021.1.2,Win32,60.24096386,,,,,,,,,,,,,,,,,,,,,,
,0,h,1,0.961,11,0,44,2,1,h.PNG,h,5f53d4f0d3e03471e4eb4847,2021-10-19_14h46.20.343,forced_choiceRT,2021.1.2,Win32,60.24096386,,,,,,,,,,,,,,,,,,,,,,
,0,h,1,0.634,11,1,45,2,1,h.PNG,h,5f53d4f0d3e03471e4eb4847,2021-10-19_14h46.20.343,forced_choiceRT,2021.1.2,Win32,60.24096386,,,,,,,,,,,,,,,,,,,,,,
,0,g,1,1.068,11,2,46,1,1,g.PNG,g,5f53d4f0d3e03471e4eb4847,2021-10-19_14h46.20.343,forced_choiceRT,2021.1.2,Win32,60.24096386,,,,,,,,,,,,,,,,,,,,,,
,0,g,1,0.704,11,3,47,1,1,g.PNG,g,5f53d4f0d3e03471e4eb4847,2021-10-19_14h46.20.343,forced_choiceRT,2021.1.2,Win32,60.24096386,,,,,,,,,,,,,,,,,,,,,,
,0,g,1,0.599,12,0,48,1,1,g.PNG,g,5f53d4f0d3e03471e4eb4847,2021-10-19_14h46.20.343,forced_choiceRT,2021.1.2,Win32,60.24096386,,,,,,,,,,,,,,,,,,,,,,
,0,f,1,0.747,12,1,49,0,1,f.PNG,f,5f53d4f0d3e03471e4eb4847,2021-10-19_14h46.20.343,forced_choiceRT,2021.1.2,Win32,60.24096386,,,,,,,,,,,,,,,,,,,,,,
,0,f,1,0.618,12,2,50,0,1,f.PNG,f,5f53d4f0d3e03471e4eb4847,2021-10-19_14h46.20.343,forced_choiceRT,2021.1.2,Win32,60.24096386,,,,,,,,,,,,,,,,,,,,,,
,0,h,1,1.18,12,3,51,2,1,h.PNG,h,5f53d4f0d3e03471e4eb4847,2021-10-19_14h46.20.343,forced_choiceRT,2021.1.2,Win32,60.24096386,,,,,,,,,,,,,,,,,,,,,,
,0,j,1,0.83,13,0,52,3,1,j.PNG,j,5f53d4f0d3e03471e4eb4847,2021-10-19_14h46.20.343,forced_choiceRT,2021.1.2,Win32,60.24096386,,,,,,,,,,,,,,,,,,,,,,
,0,j,1,0.697,13,1,53,3,1,j.PNG,j,5f53d4f0d3e03471e4eb4847,2021-10-19_14h46.20.343,forced_choiceRT,2021.1.2,Win32,60.24096386,,,,,,,,,,,,,,,,,,,,,,
,0,h,1,1.327,13,2,54,2,1,h.PNG,h,5f53d4f0d3e03471e4eb4847,2021-10-19_14h46.20.343,forced_choiceRT,2021.1.2,Win32,60.24096386,,,,,,,,,,,,,,,,,,,,,,
,0,j,1,1.427,13,3,55,3,1,j.PNG,j,5f53d4f0d3e03471e4eb4847,2021-10-19_14h46.20.343,forced_choiceRT,2021.1.2,Win32,60.24096386,,,,,,,,,,,,,,,,,,,,,,
,0,j,1,0.583,14,0,56,3,1,j.PNG,j,5f53d4f0d3e03471e4eb4847,2021-10-19_14h46.20.343,forced_choiceRT,2021.1.2,Win32,60.24096386,,,,,,,,,,,,,,,,,,,,,,
,0,f,1,0.786,14,1,57,0,1,f.PNG,f,5f53d4f0d3e03471e4eb4847,2021-10-19_14h46.20.343,forced_choiceRT,2021.1.2,Win32,60.24096386,,,,,,,,,,,,,,,,,,,,,,
,0,j,1,1.709,14,2,58,3,1,j.PNG,j,5f53d4f0d3e03471e4eb4847,2021-10-19_14h46.20.343,forced_choiceRT,2021.1.2,Win32,60.24096386,,,,,,,,,,,,,,,,,,,,,,
,0,j,1,0.804,14,3,59,3,1,j.PNG,j,5f53d4f0d3e03471e4eb4847,2021-10-19_14h46.20.343,forced_choiceRT,2021.1.2,Win32,60.24096386,,,,,,,,,,,,,,,,,,,,,,
,,,,,,,,,,,,5f53d4f0d3e03471e4eb4847,2021-10-19_14h46.20.343,forced_choiceRT,2021.1.2,Win32,60.24096386,f,5.314,0,0,0,0,1,,,,,,,,,,,,,,,
,,,,,,,,,,,,5f53d4f0d3e03471e4eb4847,2021-10-19_14h46.20.343,forced_choiceRT,2021.1.2,Win32,60.24096386,f,1.562,1,0,1,0,1,,,,,,,,,,,,,,,
,,,,,,,,,,,,5f53d4f0d3e03471e4eb4847,2021-10-19_14h46.20.343,forced_choiceRT,2021.1.2,Win32,60.24096386,j,1.651,2,0,2,0,1,,,,,,,,,,,,,,,
,,,,,,,,,,,,5f53d4f0d3e03471e4eb4847,2021-10-19_14h46.20.343,forced_choiceRT,2021.1.2,Win32,60.24096386,f,2.274,3,0,3,0,1,,,,,,,,,,,,,,,
,,,,,,,,,,,,5f53d4f0d3e03471e4eb4847,2021-10-19_14h46.20.343,forced_choiceRT,2021.1.2,Win32,60.24096386,f,1.679,4,0,4,0,1,,,,,,,,,,,,,,,
,,,,,,,,,,,,5f53d4f0d3e03471e4eb4847,2021-10-19_14h46.20.343,forced_choiceRT,2021.1.2,Win32,60.24096386,g,1.644,5,0,5,0,1,,,,,,,,,,,,,,,
,,,,,,,,,,,,5f53d4f0d3e03471e4eb4847,2021-10-19_14h46.20.343,forced_choiceRT,2021.1.2,Win32,60.24096386,g,1.744,6,0,6,0,1,,,,,,,,,,,,,,,
,,,,,,,,,,,,5f53d4f0d3e03471e4eb4847,2021-10-19_14h46.20.343,forced_choiceRT,2021.1.2,Win32,60.24096386,g,2.149,7,0,7,0,1,,,,,,,,,,,,,,,
,,,,,,,,,,,,5f53d4f0d3e03471e4eb4847,2021-10-19_14h46.20.343,forced_choiceRT,2021.1.2,Win32,60.24096386,h,1.899,8,0,8,0,1,,,,,,,,,,,,,,,
,,,,,,,,,,,,5f53d4f0d3e03471e4eb4847,2021-10-19_14h46.20.343,forced_choiceRT,2021.1.2,Win32,60.24096386,j,1.812,9,0,9,0,1,,,,,,,,,,,,,,,
,,,,,,,,,,,,5f53d4f0d3e03471e4eb4847,2021-10-19_14h46.20.343,forced_choiceRT,2021.1.2,Win32,60.24096386,f,2.175,10,0,10,0,1,,,,,,,,,,,,,,,
,,,,,,,,,,,,5f53d4f0d3e03471e4eb4847,2021-10-19_14h46.20.343,forced_choiceRT,2021.1.2,Win32,60.24096386,j,1.828,11,0,11,0,1,,,,,,,,,,,,,,,
,,,,,,,,,,,,5f53d4f0d3e03471e4eb4847,2021-10-19_14h46.20.343,forced_choiceRT,2021.1.2,Win32,60.24096386,f,2.009,12,0,12,0,1,,,,,,,,,,,,,,,
,,,,,,,,,,,,5f53d4f0d3e03471e4eb4847,2021-10-19_14h46.20.343,forced_choiceRT,2021.1.2,Win32,60.24096386,f,2.009,13,0,13,0,1,,,,,,,,,,,,,,,
,,,,,,,,,,,,5f53d4f0d3e03471e4eb4847,2021-10-19_14h46.20.343,forced_choiceRT,2021.1.2,Win32,60.24096386,f,2.059,14,0,14,0,1,,,,,,,,,,,,,,,
,,,,,,,,,,,,5f53d4f0d3e03471e4eb4847,2021-10-19_14h46.20.343,forced_choiceRT,2021.1.2,Win32,60.24096386,f,2.048,15,0,15,0,1,,,,,,,,,,,,,,,
,,,,,,,,,,,,5f53d4f0d3e03471e4eb4847,2021-10-19_14h46.20.343,forced_choiceRT,2021.1.2,Win32,60.24096386,f,2.06,16,0,16,0,1,,,,,,,,,,,,,,,
,,,,,,,,,,,,5f53d4f0d3e03471e4eb4847,2021-10-19_14h46.20.343,forced_choiceRT,2021.1.2,Win32,60.24096386,f,2.077,17,0,17,0,1,,,,,,,,,,,,,,,
,,,,,,,,,,,,5f53d4f0d3e03471e4eb4847,2021-10-19_14h46.20.343,forced_choiceRT,2021.1.2,Win32,60.24096386,j,1.893,18,0,18,0,1,,,,,,,,,,,,,,,
,,,,,,,,,,,,5f53d4f0d3e03471e4eb4847,2021-10-19_14h46.20.343,forced_choiceRT,2021.1.2,Win32,60.24096386,f,2.124,19,0,19,0,1,,,,,,,,,,,,,,,
,1.45,,,,,,,,,j.PNG,j,5f53d4f0d3e03471e4eb4847,2021-10-19_14h46.20.343,forced_choiceRT,2021.1.2,Win32,60.24096386,,,,,,,,1,Slow,h,0,2.442,0,0,0,3,1,,,,,
,1.84,,,,,,,,,h.PNG,h,5f53d4f0d3e03471e4eb4847,2021-10-19_14h46.20.343,forced_choiceRT,2021.1.2,Win32,60.24096386,,,,,,,,1,Slow,h,1,2.591,0,1,1,2,1,,,,,
,1.16,,,,,,,,,f.PNG,f,5f53d4f0d3e03471e4eb4847,2021-10-19_14h46.20.343,forced_choiceRT,2021.1.2,Win32,60.24096386,,,,,,,,1,Fast,f,1,1.842,0,2,2,0,1,,,,,
,1.99,,,,,,,,,f.PNG,f,5f53d4f0d3e03471e4eb4847,2021-10-19_14h46.20.343,forced_choiceRT,2021.1.2,Win32,60.24096386,,,,,,,,1,Slow,f,1,2.391,0,3,3,0,1,,,,,
,0.87,,,,,,,,,j.PNG,j,5f53d4f0d3e03471e4eb4847,2021-10-19_14h46.20.343,forced_choiceRT,2021.1.2,Win32,60.24096386,,,,,,,,1,Ontime,h,0,1.909,1,0,4,3,1,,,,,
,0.09,,,,,,,,,f.PNG,f,5f53d4f0d3e03471e4eb4847,2021-10-19_14h46.20.343,forced_choiceRT,2021.1.2,Win32,60.24096386,,,,,,,,1,Fast,f,1,0.966,1,1,5,0,1,,,,,
,0.8,,,,,,,,,j.PNG,j,5f53d4f0d3e03471e4eb4847,2021-10-19_14h46.20.343,forced_choiceRT,2021.1.2,Win32,60.24096386,,,,,,,,1,Slow,h,0,2.126,1,2,6,3,1,,,,,
,1.74,,,,,,,,,g.PNG,g,5f53d4f0d3e03471e4eb4847,2021-10-19_14h46.20.343,forced_choiceRT,2021.1.2,Win32,60.24096386,,,,,,,,1,Slow,j,0,2.275,1,3,7,1,1,,,,,
,0.27,,,,,,,,,g.PNG,g,5f53d4f0d3e03471e4eb4847,2021-10-19_14h46.20.343,forced_choiceRT,2021.1.2,Win32,60.24096386,,,,,,,,1,Ontime,g,1,1.993,2,0,8,1,1,,,,,
,1.77,,,,,,,,,h.PNG,h,5f53d4f0d3e03471e4eb4847,2021-10-19_14h46.20.343,forced_choiceRT,2021.1.2,Win32,60.24096386,,,,,,,,1,Slow,h,1,2.424,2,1,9,2,1,,,,,
,1.49,,,,,,,,,f.PNG,f,5f53d4f0d3e03471e4eb4847,2021-10-19_14h46.20.343,forced_choiceRT,2021.1.2,Win32,60.24096386,,,,,,,,1,Slow,f,1,2.113,2,2,10,0,1,,,,,
,0.37,,,,,,,,,f.PNG,f,5f53d4f0d3e03471e4eb4847,2021-10-19_14h46.20.343,forced_choiceRT,2021.1.2,Win32,60.24096386,,,,,,,,1,Ontime,f,1,1.991,2,3,11,0,1,,,,,
,1.26,,,,,,,,,h.PNG,h,5f53d4f0d3e03471e4eb4847,2021-10-19_14h46.20.343,forced_choiceRT,2021.1.2,Win32,60.24096386,,,,,,,,1,Slow,h,1,2.174,3,0,12,2,1,,,,,
,0.5,,,,,,,,,h.PNG,h,5f53d4f0d3e03471e4eb4847,2021-10-19_14h46.20.343,forced_choiceRT,2021.1.2,Win32,60.24096386,,,,,,,,1,Ontime,h,1,2.041,3,1,13,2,1,,,,,
,1.52,,,,,,,,,j.PNG,j,5f53d4f0d3e03471e4eb4847,2021-10-19_14h46.20.343,forced_choiceRT,2021.1.2,Win32,60.24096386,,,,,,,,1,Slow,j,1,2.307,3,2,14,3,1,,,,,
,1.46,,,,,,,,,j.PNG,j,5f53d4f0d3e03471e4eb4847,2021-10-19_14h46.20.343,forced_choiceRT,2021.1.2,Win32,60.24096386,,,,,,,,1,Slow,h,0,2.176,3,3,15,3,1,,,,,
,1.06,,,,,,,,,f.PNG,f,5f53d4f0d3e03471e4eb4847,2021-10-19_14h46.20.343,forced_choiceRT,2021.1.2,Win32,60.24096386,,,,,,,,1,Ontime,f,1,1.976,4,0,16,0,1,,,,,
,0.36,,,,,,,,,h.PNG,h,5f53d4f0d3e03471e4eb4847,2021-10-19_14h46.20.343,forced_choiceRT,2021.1.2,Win32,60.24096386,,,,,,,,1,Fast,h,1,1.676,4,1,17,2,1,,,,,
,1.74,,,,,,,,,f.PNG,f,5f53d4f0d3e03471e4eb4847,2021-10-19_14h46.20.343,forced_choiceRT,2021.1.2,Win32,60.24096386,,,,,,,,1,Slow,f,1,2.243,4,2,18,0,1,,,,,
,0.67,,,,,,,,,j.PNG,j,5f53d4f0d3e03471e4eb4847,2021-10-19_14h46.20.343,forced_choiceRT,2021.1.2,Win32,60.24096386,,,,,,,,1,Ontime,j,1,1.96,4,3,19,3,1,,,,,
,0.21,,,,,,,,,h.PNG,h,5f53d4f0d3e03471e4eb4847,2021-10-19_14h46.20.343,forced_choiceRT,2021.1.2,Win32,60.24096386,,,,,,,,1,Slow,h,1,2.111,5,0,20,2,1,,,,,
,0.69,,,,,,,,,h.PNG,h,5f53d4f0d3e03471e4eb4847,2021-10-19_14h46.20.343,forced_choiceRT,2021.1.2,Win32,60.24096386,,,,,,,,1,Ontime,h,1,2.092,5,1,21,2,1,,,,,
,1.63,,,,,,,,,f.PNG,f,5f53d4f0d3e03471e4eb4847,2021-10-19_14h46.20.343,forced_choiceRT,2021.1.2,Win32,60.24096386,,,,,,,,1,Slow,f,1,2.344,5,2,22,0,1,,,,,
,0.93,,,,,,,,,g.PNG,g,5f53d4f0d3e03471e4eb4847,2021-10-19_14h46.20.343,forced_choiceRT,2021.1.2,Win32,60.24096386,,,,,,,,1,Slow,g,1,2.163,5,3,23,1,1,,,,,
,0.74,,,,,,,,,j.PNG,j,5f53d4f0d3e03471e4eb4847,2021-10-19_14h46.20.343,forced_choiceRT,2021.1.2,Win32,60.24096386,,,,,,,,1,Slow,j,1,2.176,6,0,24,3,1,,,,,
,1.5,,,,,,,,,f.PNG,f,5f53d4f0d3e03471e4eb4847,2021-10-19_14h46.20.343,forced_choiceRT,2021.1.2,Win32,60.24096386,,,,,,,,1,Slow,f,1,2.358,6,1,25,0,1,,,,,
,1.77,,,,,,,,,h.PNG,h,5f53d4f0d3e03471e4eb4847,2021-10-19_14h46.20.343,forced_choiceRT,2021.1.2,Win32,60.24096386,,,,,,,,1,Slow,h,1,2.164,6,2,26,2,1,,,,,
,1.5,,,,,,,,,g.PNG,g,5f53d4f0d3e03471e4eb4847,2021-10-19_14h46.20.343,forced_choiceRT,2021.1.2,Win32,60.24096386,,,,,,,,1,Slow,g,1,2.273,6,3,27,1,1,,,,,
,1.77,,,,,,,,,j.PNG,j,5f53d4f0d3e03471e4eb4847,2021-10-19_14h46.20.343,forced_choiceRT,2021.1.2,Win32,60.24096386,,,,,,,,1,Slow,g,0,2.29,7,0,28,3,1,,,,,
,0.51,,,,,,,,,h.PNG,h,5f53d4f0d3e03471e4eb4847,2021-10-19_14h46.20.343,forced_choiceRT,2021.1.2,Win32,60.24096386,,,,,,,,1,Fast,h,1,1.849,7,1,29,2,1,,,,,
,1.94,,,,,,,,,g.PNG,g,5f53d4f0d3e03471e4eb4847,2021-10-19_14h46.20.343,forced_choiceRT,2021.1.2,Win32,60.24096386,,,,,,,,1,Slow,h,0,2.324,7,2,30,1,1,,,,,
,0.85,,,,,,,,,j.PNG,j,5f53d4f0d3e03471e4eb4847,2021-10-19_14h46.20.343,forced_choiceRT,2021.1.2,Win32,60.24096386,,,,,,,,1,Ontime,j,1,1.942,7,3,31,3,1,,,,,
,0.01,,,,,,,,,f.PNG,f,5f53d4f0d3e03471e4eb4847,2021-10-19_14h46.20.343,forced_choiceRT,2021.1.2,Win32,60.24096386,,,,,,,,1,Fast,f,1,1.86,8,0,32,0,1,,,,,
,0.94,,,,,,,,,j.PNG,j,5f53d4f0d3e03471e4eb4847,2021-10-19_14h46.20.343,forced_choiceRT,2021.1.2,Win32,60.24096386,,,,,,,,1,Ontime,h,0,2.096,8,1,33,3,1,,,,,
,1.72,,,,,,,,,g.PNG,g,5f53d4f0d3e03471e4eb4847,2021-10-19_14h46.20.343,forced_choiceRT,2021.1.2,Win32,60.24096386,,,,,,,,1,Slow,g,1,2.324,8,2,34,1,1,,,,,
,1.96,,,,,,,,,g.PNG,g,5f53d4f0d3e03471e4eb4847,2021-10-19_14h46.20.343,forced_choiceRT,2021.1.2,Win32,60.24096386,,,,,,,,1,Slow,g,1,2.323,8,3,35,1,1,,,,,
,1,,,,,,,,,h.PNG,h,5f53d4f0d3e03471e4eb4847,2021-10-19_14h46.20.343,forced_choiceRT,2021.1.2,Win32,60.24096386,,,,,,,,1,Ontime,h,1,2.075,9,0,36,2,1,,,,,
,1.86,,,,,,,,,g.PNG,g,5f53d4f0d3e03471e4eb4847,2021-10-19_14h46.20.343,forced_choiceRT,2021.1.2,Win32,60.24096386,,,,,,,,1,Slow,g,1,2.372,9,1,37,1,1,,,,,
,1.41,,,,,,,,,g.PNG,g,5f53d4f0d3e03471e4eb4847,2021-10-19_14h46.20.343,forced_choiceRT,2021.1.2,Win32,60.24096386,,,,,,,,1,Slow,g,1,2.208,9,2,38,1,1,,,,,
,1.96,,,,,,,,,g.PNG,g,5f53d4f0d3e03471e4eb4847,2021-10-19_14h46.20.343,forced_choiceRT,2021.1.2,Win32,60.24096386,,,,,,,,1,Slow,g,1,2.529,9,3,39,1,1,,,,,
,,,,,,,,,,,,5f53d4f0d3e03471e4eb4847,2021-10-19_14h46.20.343,forced_choiceRT,2021.1.2,Win32,60.24096386,,,,,,,,,,,,,,,,,,0,0,0,0,1
,0.13,,,,,,,,,g.PNG,g,5f53d4f0d3e03471e4eb4847,2021-10-19_14h46.20.343,forced_choiceRT,2021.1.2,Win32,60.24096386,,,,,,,,2,Ontime,g,1,2.044,0,0,0,1,1,,,,,
,1.11,,,,,,,,,j.PNG,j,5f53d4f0d3e03471e4eb4847,2021-10-19_14h46.20.343,forced_choiceRT,2021.1.2,Win32,60.24096386,,,,,,,,2,Ontime,j,1,2.043,0,1,1,3,1,,,,,
,1.39,,,,,,,,,f.PNG,f,5f53d4f0d3e03471e4eb4847,2021-10-19_14h46.20.343,forced_choiceRT,2021.1.2,Win32,60.24096386,,,,,,,,2,Slow,f,1,2.144,0,2,2,0,1,,,,,
,0.11,,,,,,,,,g.PNG,g,5f53d4f0d3e03471e4eb4847,2021-10-19_14h46.20.343,forced_choiceRT,2021.1.2,Win32,60.24096386,,,,,,,,2,Slow,g,1,2.108,0,3,3,1,1,,,,,
,0.06,,,,,,,,,f.PNG,f,5f53d4f0d3e03471e4eb4847,2021-10-19_14h46.20.343,forced_choiceRT,2021.1.2,Win32,60.24096386,,,,,,,,2,Ontime,f,1,2.059,1,0,4,0,1,,,,,
,1.02,,,,,,,,,f.PNG,f,5f53d4f0d3e03471e4eb4847,2021-10-19_14h46.20.343,forced_choiceRT,2021.1.2,Win32,60.24096386,,,,,,,,2,Slow,f,1,2.159,1,1,5,0,1,,,,,
,1.13,,,,,,,,,g.PNG,g,5f53d4f0d3e03471e4eb4847,2021-10-19_14h46.20.343,forced_choiceRT,2021.1.2,Win32,60.24096386,,,,,,,,2,Ontime,f,0,2.058,1,2,6,1,1,,,,,
,1.03,,,,,,,,,h.PNG,h,5f53d4f0d3e03471e4eb4847,2021-10-19_14h46.20.343,forced_choiceRT,2021.1.2,Win32,60.24096386,,,,,,,,2,Ontime,h,1,2.048,1,3,7,2,1,,,,,
,1.77,,,,,,,,,f.PNG,f,5f53d4f0d3e03471e4eb4847,2021-10-19_14h46.20.343,forced_choiceRT,2021.1.2,Win32,60.24096386,,,,,,,,2,Slow,h,0,2.278,2,0,8,0,1,,,,,
,0.33,,,,,,,,,h.PNG,h,5f53d4f0d3e03471e4eb4847,2021-10-19_14h46.20.343,forced_choiceRT,2021.1.2,Win32,60.24096386,,,,,,,,2,Fast,j,0,1.813,2,1,9,2,1,,,,,
,0.38,,,,,,,,,j.PNG,j,5f53d4f0d3e03471e4eb4847,2021-10-19_14h46.20.343,forced_choiceRT,2021.1.2,Win32,60.24096386,,,,,,,,2,Ontime,j,1,2.028,2,2,10,3,1,,,,,
,0.81,,,,,,,,,h.PNG,h,5f53d4f0d3e03471e4eb4847,2021-10-19_14h46.20.343,forced_choiceRT,2021.1.2,Win32,60.24096386,,,,,,,,2,Ontime,h,1,2.077,2,3,11,2,1,,,,,
,1.33,,,,,,,,,g.PNG,g,5f53d4f0d3e03471e4eb4847,2021-10-19_14h46.20.343,forced_choiceRT,2021.1.2,Win32,60.24096386,,,,,,,,2,Ontime,g,1,2.027,3,0,12,1,1,,,,,
,0.54,,,,,,,,,h.PNG,h,5f53d4f0d3e03471e4eb4847,2021-10-19_14h46.20.343,forced_choiceRT,2021.1.2,Win32,60.24096386,,,,,,,,2,Ontime,h,1,1.994,3,1,13,2,1,,,,,
,0.38,,,,,,,,,h.PNG,h,5f53d4f0d3e03471e4eb4847,2021-10-19_14h46.20.343,forced_choiceRT,2021.1.2,Win32,60.24096386,,,,,,,,2,Ontime,h,1,1.908,3,2,14,2,1,,,,,
,0.15,,,,,,,,,f.PNG,f,5f53d4f0d3e03471e4eb4847,2021-10-19_14h46.20.343,forced_choiceRT,2021.1.2,Win32,60.24096386,,,,,,,,2,Ontime,f,1,1.978,3,3,15,0,1,,,,,
,1.53,,,,,,,,,f.PNG,f,5f53d4f0d3e03471e4eb4847,2021-10-19_14h46.20.343,forced_choiceRT,2021.1.2,Win32,60.24096386,,,,,,,,2,Slow,f,1,2.208,4,0,16,0,1,,,,,
,0.53,,,,,,,,,f.PNG,f,5f53d4f0d3e03471e4eb4847,2021-10-19_14h46.20.343,forced_choiceRT,2021.1.2,Win32,60.24096386,,,,,,,,2,Ontime,f,1,1.976,4,1,17,0,1,,,,,
,1.27,,,,,,,,,h.PNG,h,5f53d4f0d3e03471e4eb4847,2021-10-19_14h46.20.343,forced_choiceRT,2021.1.2,Win32,60.24096386,,,,,,,,2,Fast,h,1,1.898,4,2,18,2,1,,,,,
,1.05,,,,,,,,,f.PNG,f,5f53d4f0d3e03471e4eb4847,2021-10-19_14h46.20.343,forced_choiceRT,2021.1.2,Win32,60.24096386,,,,,,,,2,Ontime,f,1,2.042,4,3,19,0,1,,,,,
,0.56,,,,,,,,,j.PNG,j,5f53d4f0d3e03471e4eb4847,2021-10-19_14h46.20.343,forced_choiceRT,2021.1.2,Win32,60.24096386,,,,,,,,2,Ontime,j,1,2.043,5,0,20,3,1,,,,,
,1.67,,,,,,,,,j.PNG,j,5f53d4f0d3e03471e4eb4847,2021-10-19_14h46.20.343,forced_choiceRT,2021.1.2,Win32,60.24096386,,,,,,,,2,Slow,h,0,2.342,5,1,21,3,1,,,,,
,0.88,,,,,,,,,g.PNG,g,5f53d4f0d3e03471e4eb4847,2021-10-19_14h46.20.343,forced_choiceRT,2021.1.2,Win32,60.24096386,,,,,,,,2,Ontime,g,1,2.041,5,2,22,1,1,,,,,
,1.95,,,,,,,,,g.PNG,g,5f53d4f0d3e03471e4eb4847,2021-10-19_14h46.20.343,forced_choiceRT,2021.1.2,Win32,60.24096386,,,,,,,,2,Slow,g,1,2.341,5,3,23,1,1,,,,,
,1.34,,,,,,,,,g.PNG,g,5f53d4f0d3e03471e4eb4847,2021-10-19_14h46.20.343,forced_choiceRT,2021.1.2,Win32,60.24096386,,,,,,,,2,Ontime,g,1,1.958,6,0,24,1,1,,,,,
,1.71,,,,,,,,,h.PNG,h,5f53d4f0d3e03471e4eb4847,2021-10-19_14h46.20.343,forced_choiceRT,2021.1.2,Win32,60.24096386,,,,,,,,2,Ontime,g,0,2.045,6,1,25,2,1,,,,,
,0.53,,,,,,,,,h.PNG,h,5f53d4f0d3e03471e4eb4847,2021-10-19_14h46.20.343,forced_choiceRT,2021.1.2,Win32,60.24096386,,,,,,,,2,Fast,h,1,1.81,6,2,26,2,1,,,,,
,0.3,,,,,,,,,h.PNG,h,5f53d4f0d3e03471e4eb4847,2021-10-19_14h46.20.343,forced_choiceRT,2021.1.2,Win32,60.24096386,,,,,,,,2,Slow,h,1,2.159,6,3,27,2,1,,,,,
,0.79,,,,,,,,,g.PNG,g,5f53d4f0d3e03471e4eb4847,2021-10-19_14h46.20.343,forced_choiceRT,2021.1.2,Win32,60.24096386,,,,,,,,2,Fast,g,1,1.879,7,0,28,1,1,,,,,
,1.26,,,,,,,,,h.PNG,h,5f53d4f0d3e03471e4eb4847,2021-10-19_14h46.20.343,forced_choiceRT,2021.1.2,Win32,60.24096386,,,,,,,,2,Slow,h,1,2.116,7,1,29,2,1,,,,,
,1.73,,,,,,,,,f.PNG,f,5f53d4f0d3e03471e4eb4847,2021-10-19_14h46.20.343,forced_choiceRT,2021.1.2,Win32,60.24096386,,,,,,,,2,Slow,g,0,2.249,7,2,30,0,1,,,,,
,1.09,,,,,,,,,j.PNG,j,5f53d4f0d3e03471e4eb4847,2021-10-19_14h46.20.343,forced_choiceRT,2021.1.2,Win32,60.24096386,,,,,,,,2,Ontime,j,1,2.093,7,3,31,3,1,,,,,
,0.57,,,,,,,,,j.PNG,j,5f53d4f0d3e03471e4eb4847,2021-10-19_14h46.20.343,forced_choiceRT,2021.1.2,Win32,60.24096386,,,,,,,,2,Ontime,j,1,2.074,8,0,32,3,1,,,,,
,0.23,,,,,,,,,g.PNG,g,5f53d4f0d3e03471e4eb4847,2021-10-19_14h46.20.343,forced_choiceRT,2021.1.2,Win32,60.24096386,,,,,,,,2,Ontime,g,1,2.092,8,1,33,1,1,,,,,
,1.74,,,,,,,,,j.PNG,j,5f53d4f0d3e03471e4eb4847,2021-10-19_14h46.20.343,forced_choiceRT,2021.1.2,Win32,60.24096386,,,,,,,,2,Slow,j,1,2.374,8,2,34,3,1,,,,,
,1.7,,,,,,,,,j.PNG,j,5f53d4f0d3e03471e4eb4847,2021-10-19_14h46.20.343,forced_choiceRT,2021.1.2,Win32,60.24096386,,,,,,,,2,Slow,j,1,2.227,8,3,35,3,1,,,,,
,1.8,,,,,,,,,f.PNG,f,5f53d4f0d3e03471e4eb4847,2021-10-19_14h46.20.343,forced_choiceRT,2021.1.2,Win32,60.24096386,,,,,,,,2,Slow,j,0,2.125,9,0,36,0,1,,,,,
,1.29,,,,,,,,,j.PNG,j,5f53d4f0d3e03471e4eb4847,2021-10-19_14h46.20.343,forced_choiceRT,2021.1.2,Win32,60.24096386,,,,,,,,2,Ontime,j,1,1.959,9,1,37,3,1,,,,,
,0.69,,,,,,,,,g.PNG,g,5f53d4f0d3e03471e4eb4847,2021-10-19_14h46.20.343,forced_choiceRT,2021.1.2,Win32,60.24096386,,,,,,,,2,Fast,g,1,1.843,9,2,38,1,1,,,,,
,0.94,,,,,,,,,j.PNG,j,5f53d4f0d3e03471e4eb4847,2021-10-19_14h46.20.343,forced_choiceRT,2021.1.2,Win32,60.24096386,,,,,,,,2,Ontime,j,1,1.959,9,3,39,3,1,,,,,
,,,,,,,,,,,,5f53d4f0d3e03471e4eb4847,2021-10-19_14h46.20.343,forced_choiceRT,2021.1.2,Win32,60.24096386,,,,,,,,,,,,,,,,,,1,0,1,0,1
,1.51,,,,,,,,,f.PNG,f,5f53d4f0d3e03471e4eb4847,2021-10-19_14h46.20.343,forced_choiceRT,2021.1.2,Win32,60.24096386,,,,,,,,3,Slow,f,1,2.178,0,0,0,0,1,,,,,
,1.24,,,,,,,,,h.PNG,h,5f53d4f0d3e03471e4eb4847,2021-10-19_14h46.20.343,forced_choiceRT,2021.1.2,Win32,60.24096386,,,,,,,,3,Ontime,j,0,1.925,0,1,1,2,1,,,,,
,0.75,,,,,,,,,h.PNG,h,5f53d4f0d3e03471e4eb4847,2021-10-19_14h46.20.343,forced_choiceRT,2021.1.2,Win32,60.24096386,,,,,,,,3,Fast,h,1,1.748,0,2,2,2,1,,,,,
,0.17,,,,,,,,,g.PNG,g,5f53d4f0d3e03471e4eb4847,2021-10-19_14h46.20.343,forced_choiceRT,2021.1.2,Win32,60.24096386,,,,,,,,3,Ontime,g,1,1.95,0,3,3,1,1,,,,,
,1.76,,,,,,,,,f.PNG,f,5f53d4f0d3e03471e4eb4847,2021-10-19_14h46.20.343,forced_choiceRT,2021.1.2,Win32,60.24096386,,,,,,,,3,Ontime,h,0,2.079,1,0,4,0,1,,,,,
,0.74,,,,,,,,,j.PNG,j,5f53d4f0d3e03471e4eb4847,2021-10-19_14h46.20.343,forced_choiceRT,2021.1.2,Win32,60.24096386,,,,,,,,3,Ontime,j,1,2.013,1,1,5,3,1,,,,,
,0.61,,,,,,,,,h.PNG,h,5f53d4f0d3e03471e4eb4847,2021-10-19_14h46.20.343,forced_choiceRT,2021.1.2,Win32,60.24096386,,,,,,,,3,Ontime,h,1,2.075,1,2,6,2,1,,,,,
,1.28,,,,,,,,,g.PNG,g,5f53d4f0d3e03471e4eb4847,2021-10-19_14h46.20.343,forced_choiceRT,2021.1.2,Win32,60.24096386,,,,,,,,3,Ontime,g,1,2.075,1,3,7,1,1,,,,,
,0.82,,,,,,,,,f.PNG,f,5f53d4f0d3e03471e4eb4847,2021-10-19_14h46.20.343,forced_choiceRT,2021.1.2,Win32,60.24096386,,,,,,,,3,Ontime,f,1,2.027,2,0,8,0,1,,,,,
,0.71,,,,,,,,,h.PNG,h,5f53d4f0d3e03471e4eb4847,2021-10-19_14h46.20.343,forced_choiceRT,2021.1.2,Win32,60.24096386,,,,,,,,3,Ontime,h,1,1.993,2,1,9,2,1,,,,,
,1.21,,,,,,,,,j.PNG,j,5f53d4f0d3e03471e4eb4847,2021-10-19_14h46.20.343,forced_choiceRT,2021.1.2,Win32,60.24096386,,,,,,,,3,Ontime,j,1,2.06,2,2,10,3,1,,,,,
,1.29,,,,,,,,,j.PNG,j,5f53d4f0d3e03471e4eb4847,2021-10-19_14h46.20.343,forced_choiceRT,2021.1.2,Win32,60.24096386,,,,,,,,3,Slow,j,1,2.158,2,3,11,3,1,,,,,
,1.34,,,,,,,,,g.PNG,g,5f53d4f0d3e03471e4eb4847,2021-10-19_14h46.20.343,forced_choiceRT,2021.1.2,Win32,60.24096386,,,,,,,,3,Ontime,g,1,2.077,3,0,12,1,1,,,,,
,1.2,,,,,,,,,h.PNG,h,5f53d4f0d3e03471e4eb4847,2021-10-19_14h46.20.343,forced_choiceRT,2021.1.2,Win32,60.24096386,,,,,,,,3,Slow,h,1,2.112,3,1,13,2,1,,,,,
,0.66,,,,,,,,,g.PNG,g,5f53d4f0d3e03471e4eb4847,2021-10-19_14h46.20.343,forced_choiceRT,2021.1.2,Win32,60.24096386,,,,,,,,3,Fast,g,1,1.843,3,2,14,1,1,,,,,
,0.18,,,,,,,,,f.PNG,f,5f53d4f0d3e03471e4eb4847,2021-10-19_14h46.20.343,forced_choiceRT,2021.1.2,Win32,60.24096386,,,,,,,,3,Ontime,f,1,2.059,3,3,15,0,1,,,,,
,1.19,,,,,,,,,f.PNG,f,5f53d4f0d3e03471e4eb4847,2021-10-19_14h46.20.343,forced_choiceRT,2021.1.2,Win32,60.24096386,,,,,,,,3,Ontime,f,1,2.01,4,0,16,0,1,,,,,
,1.52,,,,,,,,,f.PNG,f,5f53d4f0d3e03471e4eb4847,2021-10-19_14h46.20.343,forced_choiceRT,2021.1.2,Win32,60.24096386,,,,,,,,3,Ontime,f,1,2.027,4,1,17,0,1,,,,,
,1.19,,,,,,,,,g.PNG,g,5f53d4f0d3e03471e4eb4847,2021-10-19_14h46.20.343,forced_choiceRT,2021.1.2,Win32,60.24096386,,,,,,,,3,Ontime,g,1,2.059,4,2,18,1,1,,,,,
,0.28,,,,,,,,,g.PNG,g,5f53d4f0d3e03471e4eb4847,2021-10-19_14h46.20.343,forced_choiceRT,2021.1.2,Win32,60.24096386,,,,,,,,3,Slow,g,1,2.141,4,3,19,1,1,,,,,
,0.9,,,,,,,,,h.PNG,h,5f53d4f0d3e03471e4eb4847,2021-10-19_14h46.20.343,forced_choiceRT,2021.1.2,Win32,60.24096386,,,,,,,,3,Ontime,h,1,2.092,5,0,20,2,1,,,,,
,0.8,,,,,,,,,j.PNG,j,5f53d4f0d3e03471e4eb4847,2021-10-19_14h46.20.343,forced_choiceRT,2021.1.2,Win32,60.24096386,,,,,,,,3,Ontime,j,1,1.975,5,1,21,3,1,,,,,
,1.16,,,,,,,,,f.PNG,f,5f53d4f0d3e03471e4eb4847,2021-10-19_14h46.20.343,forced_choiceRT,2021.1.2,Win32,60.24096386,,,,,,,,3,Fast,f,1,1.876,5,2,22,0,1,,,,,
,1.84,,,,,,,,,g.PNG,g,5f53d4f0d3e03471e4eb4847,2021-10-19_14h46.20.343,forced_choiceRT,2021.1.2,Win32,60.24096386,,,,,,,,3,Slow,h,0,2.291,5,3,23,1,1,,,,,
,0.69,,,,,,,,,j.PNG,j,5f53d4f0d3e03471e4eb4847,2021-10-19_14h46.20.343,forced_choiceRT,2021.1.2,Win32,60.24096386,,,,,,,,3,Fast,j,1,1.781,6,0,24,3,1,,,,,
,1.92,,,,,,,,,f.PNG,f,5f53d4f0d3e03471e4eb4847,2021-10-19_14h46.20.343,forced_choiceRT,2021.1.2,Win32,60.24096386,,,,,,,,3,Slow,g,0,2.224,6,1,25,0,1,,,,,
,1.36,,,,,,,,,f.PNG,f,5f53d4f0d3e03471e4eb4847,2021-10-19_14h46.20.343,forced_choiceRT,2021.1.2,Win32,60.24096386,,,,,,,,3,Ontime,f,1,1.945,6,2,26,0,1,,,,,
,1.43,,,,,,,,,g.PNG,g,5f53d4f0d3e03471e4eb4847,2021-10-19_14h46.20.343,forced_choiceRT,2021.1.2,Win32,60.24096386,,,,,,,,3,Ontime,g,1,2.049,6,3,27,1,1,,,,,
,0.99,,,,,,,,,j.PNG,j,5f53d4f0d3e03471e4eb4847,2021-10-19_14h46.20.343,forced_choiceRT,2021.1.2,Win32,60.24096386,,,,,,,,3,Ontime,j,1,1.976,7,0,28,3,1,,,,,
,0.28,,,,,,,,,h.PNG,h,5f53d4f0d3e03471e4eb4847,2021-10-19_14h46.20.343,forced_choiceRT,2021.1.2,Win32,60.24096386,,,,,,,,3,Slow,h,1,2.113,7,1,29,2,1,,,,,
,1.71,,,,,,,,,f.PNG,f,5f53d4f0d3e03471e4eb4847,2021-10-19_14h46.20.343,forced_choiceRT,2021.1.2,Win32,60.24096386,,,,,,,,3,Ontime,h,0,2.014,7,2,30,0,1,,,,,
,0.33,,,,,,,,,j.PNG,j,5f53d4f0d3e03471e4eb4847,2021-10-19_14h46.20.343,forced_choiceRT,2021.1.2,Win32,60.24096386,,,,,,,,3,Fast,j,1,1.765,7,3,31,3,1,,,,,
,0.69,,,,,,,,,h.PNG,h,5f53d4f0d3e03471e4eb4847,2021-10-19_14h46.20.343,forced_choiceRT,2021.1.2,Win32,60.24096386,,,,,,,,3,Ontime,h,1,2.032,8,0,32,2,1,,,,,
,1.29,,,,,,,,,j.PNG,j,5f53d4f0d3e03471e4eb4847,2021-10-19_14h46.20.343,forced_choiceRT,2021.1.2,Win32,60.24096386,,,,,,,,3,Ontime,j,1,1.998,8,1,33,3,1,,,,,
,1.75,,,,,,,,,g.PNG,g,5f53d4f0d3e03471e4eb4847,2021-10-19_14h46.20.343,forced_choiceRT,2021.1.2,Win32,60.24096386,,,,,,,,3,Ontime,j,0,2.093,8,2,34,1,1,,,,,
,0.18,,,,,,,,,h.PNG,h,5f53d4f0d3e03471e4eb4847,2021-10-19_14h46.20.343,forced_choiceRT,2021.1.2,Win32,60.24096386,,,,,,,,3,Ontime,h,1,1.926,8,3,35,2,1,,,,,
,1.62,,,,,,,,,g.PNG,g,5f53d4f0d3e03471e4eb4847,2021-10-19_14h46.20.343,forced_choiceRT,2021.1.2,Win32,60.24096386,,,,,,,,3,Slow,g,1,2.16,9,0,36,1,1,,,,,
,1.73,,,,,,,,,h.PNG,h,5f53d4f0d3e03471e4eb4847,2021-10-19_14h46.20.343,forced_choiceRT,2021.1.2,Win32,60.24096386,,,,,,,,3,Ontime,f,0,2.026,9,1,37,2,1,,,,,
,0.87,,,,,,,,,j.PNG,j,5f53d4f0d3e03471e4eb4847,2021-10-19_14h46.20.343,forced_choiceRT,2021.1.2,Win32,60.24096386,,,,,,,,3,Ontime,j,1,2.026,9,2,38,3,1,,,,,
,0.36,,,,,,,,,j.PNG,j,5f53d4f0d3e03471e4eb4847,2021-10-19_14h46.20.343,forced_choiceRT,2021.1.2,Win32,60.24096386,,,,,,,,3,Ontime,j,1,2.026,9,3,39,3,1,,,,,
,,,,,,,,,,,,5f53d4f0d3e03471e4eb4847,2021-10-19_14h46.20.343,forced_choiceRT,2021.1.2,Win32,60.24096386,,,,,,,,,,,,,,,,,,2,0,2,0,1
,1.89,,,,,,,,,g.PNG,g,5f53d4f0d3e03471e4eb4847,2021-10-19_14h46.20.343,forced_choiceRT,2021.1.2,Win32,60.24096386,,,,,,,,4,Slow,g,1,2.389,0,0,0,1,1,,,,,
,1.71,,,,,,,,,j.PNG,j,5f53d4f0d3e03471e4eb4847,2021-10-19_14h46.20.343,forced_choiceRT,2021.1.2,Win32,60.24096386,,,,,,,,4,Slow,h,0,2.208,0,1,1,3,1,,,,,
,1.69,,,,,,,,,f.PNG,f,5f53d4f0d3e03471e4eb4847,2021-10-19_14h46.20.343,forced_choiceRT,2021.1.2,Win32,60.24096386,,,,,,,,4,Ontime,j,0,2.046,0,2,2,0,1,,,,,
,0.88,,,,,,,,,g.PNG,g,5f53d4f0d3e03471e4eb4847,2021-10-19_14h46.20.343,forced_choiceRT,2021.1.2,Win32,60.24096386,,,,,,,,4,Ontime,g,1,2.046,0,3,3,1,1,,,,,
,1.31,,,,,,,,,h.PNG,h,5f53d4f0d3e03471e4eb4847,2021-10-19_14h46.20.343,forced_choiceRT,2021.1.2,Win32,60.24096386,,,,,,,,4,Ontime,j,0,1.992,1,0,4,2,1,,,,,
,1.59,,,,,,,,,g.PNG,g,5f53d4f0d3e03471e4eb4847,2021-10-19_14h46.20.343,forced_choiceRT,2021.1.2,Win32,60.24096386,,,,,,,,4,Slow,g,1,2.126,1,1,5,1,1,,,,,
,0.14,,,,,,,,,g.PNG,g,5f53d4f0d3e03471e4eb4847,2021-10-19_14h46.20.343,forced_choiceRT,2021.1.2,Win32,60.24096386,,,,,,,,4,Ontime,g,1,1.959,1,2,6,1,1,,,,,
,1.84,,,,,,,,,j.PNG,j,5f53d4f0d3e03471e4eb4847,2021-10-19_14h46.20.343,forced_choiceRT,2021.1.2,Win32,60.24096386,,,,,,,,4,Ontime,j,1,2.092,1,3,7,3,1,,,,,
,0.53,,,,,,,,,j.PNG,j,5f53d4f0d3e03471e4eb4847,2021-10-19_14h46.20.343,forced_choiceRT,2021.1.2,Win32,60.24096386,,,,,,,,4,Fast,j,1,1.876,2,0,8,3,1,,,,,
,0.46,,,,,,,,,f.PNG,f,5f53d4f0d3e03471e4eb4847,2021-10-19_14h46.20.343,forced_choiceRT,2021.1.2,Win32,60.24096386,,,,,,,,4,Slow,f,1,2.11,2,1,9,0,1,,,,,
,1.83,,,,,,,,,f.PNG,f,5f53d4f0d3e03471e4eb4847,2021-10-19_14h46.20.343,forced_choiceRT,2021.1.2,Win32,60.24096386,,,,,,,,4,Ontime,f,1,2.081,2,2,10,0,1,,,,,
,0.75,,,,,,,,,j.PNG,j,5f53d4f0d3e03471e4eb4847,2021-10-19_14h46.20.343,forced_choiceRT,2021.1.2,Win32,60.24096386,,,,,,,,4,Ontime,j,1,2.01,2,3,11,3,1,,,,,
,1.09,,,,,,,,,h.PNG,h,5f53d4f0d3e03471e4eb4847,2021-10-19_14h46.20.343,forced_choiceRT,2021.1.2,Win32,60.24096386,,,,,,,,4,Ontime,h,1,2.041,3,0,12,2,1,,,,,
,1.03,,,,,,,,,h.PNG,h,5f53d4f0d3e03471e4eb4847,2021-10-19_14h46.20.343,forced_choiceRT,2021.1.2,Win32,60.24096386,,,,,,,,4,Ontime,h,1,2.058,3,1,13,2,1,,,,,
,1.85,,,,,,,,,f.PNG,f,5f53d4f0d3e03471e4eb4847,2021-10-19_14h46.20.343,forced_choiceRT,2021.1.2,Win32,60.24096386,,,,,,,,4,Ontime,h,0,2.06,3,2,14,0,1,,,,,
,0.13,,,,,,,,,f.PNG,f,5f53d4f0d3e03471e4eb4847,2021-10-19_14h46.20.343,forced_choiceRT,2021.1.2,Win32,60.24096386,,,,,,,,4,Ontime,f,1,1.915,3,3,15,0,1,,,,,
,0.01,,,,,,,,,h.PNG,h,5f53d4f0d3e03471e4eb4847,2021-10-19_14h46.20.343,forced_choiceRT,2021.1.2,Win32,60.24096386,,,,,,,,4,Ontime,h,1,1.991,4,0,16,2,1,,,,,
,0.3,,,,,,,,,h.PNG,h,5f53d4f0d3e03471e4eb4847,2021-10-19_14h46.20.343,forced_choiceRT,2021.1.2,Win32,60.24096386,,,,,,,,4,Ontime,h,1,2.008,4,1,17,2,1,,,,,
,1.57,,,,,,,,,f.PNG,f,5f53d4f0d3e03471e4eb4847,2021-10-19_14h46.20.343,forced_choiceRT,2021.1.2,Win32,60.24096386,,,,,,,,4,Slow,f,1,2.241,4,2,18,0,1,,,,,
,1.51,,,,,,,,,j.PNG,j,5f53d4f0d3e03471e4eb4847,2021-10-19_14h46.20.343,forced_choiceRT,2021.1.2,Win32,60.24096386,,,,,,,,4,Ontime,h,0,1.927,4,3,19,3,1,,,,,
,0.4,,,,,,,,,f.PNG,f,5f53d4f0d3e03471e4eb4847,2021-10-19_14h46.20.343,forced_choiceRT,2021.1.2,Win32,60.24096386,,,,,,,,4,Ontime,f,1,1.941,5,0,20,0,1,,,,,
,1.27,,,,,,,,,j.PNG,j,5f53d4f0d3e03471e4eb4847,2021-10-19_14h46.20.343,forced_choiceRT,2021.1.2,Win32,60.24096386,,,,,,,,4,Slow,j,1,2.14,5,1,21,3,1,,,,,
,0,,,,,,,,,g.PNG,g,5f53d4f0d3e03471e4eb4847,2021-10-19_14h46.20.343,forced_choiceRT,2021.1.2,Win32,60.24096386,,,,,,,,4,Ontime,g,1,2.046,5,2,22,1,1,,,,,
,0.48,,,,,,,,,f.PNG,f,5f53d4f0d3e03471e4eb4847,2021-10-19_14h46.20.343,forced_choiceRT,2021.1.2,Win32,60.24096386,,,,,,,,4,Ontime,f,1,1.992,5,3,23,0,1,,,,,
,0.38,,,,,,,,,g.PNG,g,5f53d4f0d3e03471e4eb4847,2021-10-19_14h46.20.343,forced_choiceRT,2021.1.2,Win32,60.24096386,,,,,,,,4,Fast,g,1,1.832,6,0,24,1,1,,,,,
,0.14,,,,,,,,,j.PNG,j,5f53d4f0d3e03471e4eb4847,2021-10-19_14h46.20.343,forced_choiceRT,2021.1.2,Win32,60.24096386,,,,,,,,4,Ontime,j,1,2.015,6,1,25,3,1,,,,,
,0.96,,,,,,,,,h.PNG,h,5f53d4f0d3e03471e4eb4847,2021-10-19_14h46.20.343,forced_choiceRT,2021.1.2,Win32,60.24096386,,,,,,,,4,Slow,h,1,2.259,6,2,26,2,1,,,,,
,1.82,,,,,,,,,g.PNG,g,5f53d4f0d3e03471e4eb4847,2021-10-19_14h46.20.343,forced_choiceRT,2021.1.2,Win32,60.24096386,,,,,,,,4,Slow,g,1,2.11,6,3,27,1,1,,,,,
,0.64,,,,,,,,,h.PNG,h,5f53d4f0d3e03471e4eb4847,2021-10-19_14h46.20.343,forced_choiceRT,2021.1.2,Win32,60.24096386,,,,,,,,4,Ontime,h,1,1.932,7,0,28,2,1,,,,,
,1.72,,,,,,,,,h.PNG,h,5f53d4f0d3e03471e4eb4847,2021-10-19_14h46.20.343,forced_choiceRT,2021.1.2,Win32,60.24096386,,,,,,,,4,Ontime,h,1,2.015,7,1,29,2,1,,,,,
,0.07,,,,,,,,,f.PNG,f,5f53d4f0d3e03471e4eb4847,2021-10-19_14h46.20.343,forced_choiceRT,2021.1.2,Win32,60.24096386,,,,,,,,4,Fast,f,1,1.827,7,2,30,0,1,,,,,
,0.66,,,,,,,,,h.PNG,h,5f53d4f0d3e03471e4eb4847,2021-10-19_14h46.20.343,forced_choiceRT,2021.1.2,Win32,60.24096386,,,,,,,,4,Ontime,h,1,2.058,7,3,31,2,1,,,,,
,0.87,,,,,,,,,g.PNG,g,5f53d4f0d3e03471e4eb4847,2021-10-19_14h46.20.343,forced_choiceRT,2021.1.2,Win32,60.24096386,,,,,,,,4,Ontime,g,1,1.974,8,0,32,1,1,,,,,
,0.42,,,,,,,,,h.PNG,h,5f53d4f0d3e03471e4eb4847,2021-10-19_14h46.20.343,forced_choiceRT,2021.1.2,Win32,60.24096386,,,,,,,,4,Ontime,h,1,2.026,8,1,33,2,1,,,,,
,1.96,,,,,,,,,f.PNG,f,5f53d4f0d3e03471e4eb4847,2021-10-19_14h46.20.343,forced_choiceRT,2021.1.2,Win32,60.24096386,,,,,,,,4,Ontime,h,0,1.995,8,2,34,0,1,,,,,
,0.57,,,,,,,,,j.PNG,j,5f53d4f0d3e03471e4eb4847,2021-10-19_14h46.20.343,forced_choiceRT,2021.1.2,Win32,60.24096386,,,,,,,,4,Ontime,j,1,2.025,8,3,35,3,1,,,,,
,1.59,,,,,,,,,j.PNG,j,5f53d4f0d3e03471e4eb4847,2021-10-19_14h46.20.343,forced_choiceRT,2021.1.2,Win32,60.24096386,,,,,,,,4,Ontime,j,1,2.077,9,0,36,3,1,,,,,
,1.72,,,,,,,,,g.PNG,g,5f53d4f0d3e03471e4eb4847,2021-10-19_14h46.20.343,forced_choiceRT,2021.1.2,Win32,60.24096386,,,,,,,,4,Slow,g,1,2.241,9,1,37,1,1,,,,,
,0.44,,,,,,,,,g.PNG,g,5f53d4f0d3e03471e4eb4847,2021-10-19_14h46.20.343,forced_choiceRT,2021.1.2,Win32,60.24096386,,,,,,,,4,Fast,g,1,1.882,9,2,38,1,1,,,,,
,1.05,,,,,,,,,j.PNG,j,5f53d4f0d3e03471e4eb4847,2021-10-19_14h46.20.343,forced_choiceRT,2021.1.2,Win32,60.24096386,,,,,,,,4,Ontime,j,1,1.992,9,3,39,3,1,,,,,
,,,,,,,,,,,,5f53d4f0d3e03471e4eb4847,2021-10-19_14h46.20.343,forced_choiceRT,2021.1.2,Win32,60.24096386,,,,,,,,,,,,,,,,,,3,0,3,0,1
,0.27,,,,,,,,,j.PNG,j,5f53d4f0d3e03471e4eb4847,2021-10-19_14h46.20.343,forced_choiceRT,2021.1.2,Win32,60.24096386,,,,,,,,5,Ontime,j,1,2.045,0,0,0,3,1,,,,,
,0.08,,,,,,,,,j.PNG,j,5f53d4f0d3e03471e4eb4847,2021-10-19_14h46.20.343,forced_choiceRT,2021.1.2,Win32,60.24096386,,,,,,,,5,Fast,j,1,1.796,0,1,1,3,1,,,,,
,0.77,,,,,,,,,f.PNG,f,5f53d4f0d3e03471e4eb4847,2021-10-19_14h46.20.343,forced_choiceRT,2021.1.2,Win32,60.24096386,,,,,,,,5,Ontime,f,1,1.975,0,2,2,0,1,,,,,
,0.57,,,,,,,,,g.PNG,g,5f53d4f0d3e03471e4eb4847,2021-10-19_14h46.20.343,forced_choiceRT,2021.1.2,Win32,60.24096386,,,,,,,,5,Ontime,g,1,1.948,0,3,3,1,1,,,,,
,0.31,,,,,,,,,g.PNG,g,5f53d4f0d3e03471e4eb4847,2021-10-19_14h46.20.343,forced_choiceRT,2021.1.2,Win32,60.24096386,,,,,,,,5,Fast,g,1,1.874,1,0,4,1,1,,,,,
,0.59,,,,,,,,,j.PNG,j,5f53d4f0d3e03471e4eb4847,2021-10-19_14h46.20.343,forced_choiceRT,2021.1.2,Win32,60.24096386,,,,,,,,5,Slow,j,1,2.174,1,1,5,3,1,,,,,
,1.78,,,,,,,,,g.PNG,g,5f53d4f0d3e03471e4eb4847,2021-10-19_14h46.20.343,forced_choiceRT,2021.1.2,Win32,60.24096386,,,,,,,,5,Ontime,h,0,2.046,1,2,6,1,1,,,,,
,0.48,,,,,,,,,h.PNG,h,5f53d4f0d3e03471e4eb4847,2021-10-19_14h46.20.343,forced_choiceRT,2021.1.2,Win32,60.24096386,,,,,,,,5,Ontime,h,1,2.058,1,3,7,2,1,,,,,
,0.88,,,,,,,,,j.PNG,j,5f53d4f0d3e03471e4eb4847,2021-10-19_14h46.20.343,forced_choiceRT,2021.1.2,Win32,60.24096386,,,,,,,,5,Ontime,j,1,2.045,2,0,8,3,1,,,,,
,1.72,,,,,,,,,f.PNG,f,5f53d4f0d3e03471e4eb4847,2021-10-19_14h46.20.343,forced_choiceRT,2021.1.2,Win32,60.24096386,,,,,,,,5,Ontime,j,0,2.008,2,1,9,0,1,,,,,
,0.79,,,,,,,,,g.PNG,g,5f53d4f0d3e03471e4eb4847,2021-10-19_14h46.20.343,forced_choiceRT,2021.1.2,Win32,60.24096386,,,,,,,,5,Fast,g,1,1.779,2,2,10,1,1,,,,,
,1.23,,,,,,,,,j.PNG,j,5f53d4f0d3e03471e4eb4847,2021-10-19_14h46.20.343,forced_choiceRT,2021.1.2,Win32,60.24096386,,,,,,,,5,Slow,j,1,2.142,2,3,11,3,1,,,,,
,0.61,,,,,,,,,f.PNG,f,5f53d4f0d3e03471e4eb4847,2021-10-19_14h46.20.343,forced_choiceRT,2021.1.2,Win32,60.24096386,,,,,,,,5,Ontime,f,1,1.991,3,0,12,0,1,,,,,
,1.38,,,,,,,,,h.PNG,h,5f53d4f0d3e03471e4eb4847,2021-10-19_14h46.20.343,forced_choiceRT,2021.1.2,Win32,60.24096386,,,,,,,,5,Fast,j,0,1.742,3,1,13,2,1,,,,,
,1.73,,,,,,,,,g.PNG,g,5f53d4f0d3e03471e4eb4847,2021-10-19_14h46.20.343,forced_choiceRT,2021.1.2,Win32,60.24096386,,,,,,,,5,Ontime,h,0,2.08,3,2,14,1,1,,,,,
,1.22,,,,,,,,,h.PNG,h,5f53d4f0d3e03471e4eb4847,2021-10-19_14h46.20.343,forced_choiceRT,2021.1.2,Win32,60.24096386,,,,,,,,5,Ontime,h,1,1.981,3,3,15,2,1,,,,,
,0.65,,,,,,,,,f.PNG,f,5f53d4f0d3e03471e4eb4847,2021-10-19_14h46.20.343,forced_choiceRT,2021.1.2,Win32,60.24096386,,,,,,,,5,Ontime,f,1,2.076,4,0,16,0,1,,,,,
,0.45,,,,,,,,,j.PNG,j,5f53d4f0d3e03471e4eb4847,2021-10-19_14h46.20.343,forced_choiceRT,2021.1.2,Win32,60.24096386,,,,,,,,5,Ontime,j,1,1.981,4,1,17,3,1,,,,,
,1.68,,,,,,,,,h.PNG,h,5f53d4f0d3e03471e4eb4847,2021-10-19_14h46.20.343,forced_choiceRT,2021.1.2,Win32,60.24096386,,,,,,,,5,Slow,h,1,2.175,4,2,18,2,1,,,,,
,1.55,,,,,,,,,h.PNG,h,5f53d4f0d3e03471e4eb4847,2021-10-19_14h46.20.343,forced_choiceRT,2021.1.2,Win32,60.24096386,,,,,,,,5,Slow,h,1,2.242,4,3,19,2,1,,,,,
,1.29,,,,,,,,,f.PNG,f,5f53d4f0d3e03471e4eb4847,2021-10-19_14h46.20.343,forced_choiceRT,2021.1.2,Win32,60.24096386,,,,,,,,5,Ontime,f,1,2.009,5,0,20,0,1,,,,,
,0.31,,,,,,,,,f.PNG,f,5f53d4f0d3e03471e4eb4847,2021-10-19_14h46.20.343,forced_choiceRT,2021.1.2,Win32,60.24096386,,,,,,,,5,Fast,f,1,1.897,5,1,21,0,1,,,,,
,1.64,,,,,,,,,h.PNG,h,5f53d4f0d3e03471e4eb4847,2021-10-19_14h46.20.343,forced_choiceRT,2021.1.2,Win32,60.24096386,,,,,,,,5,Ontime,h,1,1.975,5,2,22,2,1,,,,,
,0.98,,,,,,,,,h.PNG,h,5f53d4f0d3e03471e4eb4847,2021-10-19_14h46.20.343,forced_choiceRT,2021.1.2,Win32,60.24096386,,,,,,,,5,Slow,h,1,2.143,5,3,23,2,1,,,,,
,0.38,,,,,,,,,j.PNG,j,5f53d4f0d3e03471e4eb4847,2021-10-19_14h46.20.343,forced_choiceRT,2021.1.2,Win32,60.24096386,,,,,,,,5,Ontime,j,1,2.042,6,0,24,3,1,,,,,
,0.2,,,,,,,,,j.PNG,j,5f53d4f0d3e03471e4eb4847,2021-10-19_14h46.20.343,forced_choiceRT,2021.1.2,Win32,60.24096386,,,,,,,,5,Ontime,j,1,1.909,6,1,25,3,1,,,,,
,1.53,,,,,,,,,g.PNG,g,5f53d4f0d3e03471e4eb4847,2021-10-19_14h46.20.343,forced_choiceRT,2021.1.2,Win32,60.24096386,,,,,,,,5,Ontime,g,1,2.057,6,2,26,1,1,,,,,
,0.57,,,,,,,,,g.PNG,g,5f53d4f0d3e03471e4eb4847,2021-10-19_14h46.20.343,forced_choiceRT,2021.1.2,Win32,60.24096386,,,,,,,,5,Ontime,g,1,2.059,6,3,27,1,1,,,,,
,1.81,,,,,,,,,h.PNG,h,5f53d4f0d3e03471e4eb4847,2021-10-19_14h46.20.343,forced_choiceRT,2021.1.2,Win32,60.24096386,,,,,,,,5,Ontime,g,0,2.042,7,0,28,2,1,,,,,
,1.96,,,,,,,,,h.PNG,h,5f53d4f0d3e03471e4eb4847,2021-10-19_14h46.20.343,forced_choiceRT,2021.1.2,Win32,60.24096386,,,,,,,,5,Ontime,g,0,2.08,7,1,29,2,1,,,,,
,0.32,,,,,,,,,j.PNG,j,5f53d4f0d3e03471e4eb4847,2021-10-19_14h46.20.343,forced_choiceRT,2021.1.2,Win32,60.24096386,,,,,,,,5,Fast,j,1,1.792,7,2,30,3,1,,,,,
,0.42,,,,,,,,,g.PNG,g,5f53d4f0d3e03471e4eb4847,2021-10-19_14h46.20.343,forced_choiceRT,2021.1.2,Win32,60.24096386,,,,,,,,5,Ontime,g,1,1.975,7,3,31,1,1,,,,,
,0.79,,,,,,,,,g.PNG,g,5f53d4f0d3e03471e4eb4847,2021-10-19_14h46.20.343,forced_choiceRT,2021.1.2,Win32,60.24096386,,,,,,,,5,Ontime,g,1,2.031,8,0,32,1,1,,,,,
,0.52,,,,,,,,,f.PNG,f,5f53d4f0d3e03471e4eb4847,2021-10-19_14h46.20.343,forced_choiceRT,2021.1.2,Win32,60.24096386,,,,,,,,5,Fast,f,1,1.814,8,1,33,0,1,,,,,
,1.11,,,,,,,,,f.PNG,f,5f53d4f0d3e03471e4eb4847,2021-10-19_14h46.20.343,forced_choiceRT,2021.1.2,Win32,60.24096386,,,,,,,,5,Ontime,f,1,2.095,8,2,34,0,1,,,,,
,0.39,,,,,,,,,h.PNG,h,5f53d4f0d3e03471e4eb4847,2021-10-19_14h46.20.343,forced_choiceRT,2021.1.2,Win32,60.24096386,,,,,,,,5,Ontime,h,1,2.062,8,3,35,2,1,,,,,
,1.37,,,,,,,,,f.PNG,f,5f53d4f0d3e03471e4eb4847,2021-10-19_14h46.20.343,forced_choiceRT,2021.1.2,Win32,60.24096386,,,,,,,,5,Slow,g,0,2.109,9,0,36,0,1,,,,,
,1.53,,,,,,,,,f.PNG,f,5f53d4f0d3e03471e4eb4847,2021-10-19_14h46.20.343,forced_choiceRT,2021.1.2,Win32,60.24096386,,,,,,,,5,Slow,f,1,2.143,9,1,37,0,1,,,,,
,1.25,,,,,,,,,g.PNG,g,5f53d4f0d3e03471e4eb4847,2021-10-19_14h46.20.343,forced_choiceRT,2021.1.2,Win32,60.24096386,,,,,,,,5,Ontime,g,1,2.082,9,2,38,1,1,,,,,
,1.16,,,,,,,,,j.PNG,j,5f53d4f0d3e03471e4eb4847,2021-10-19_14h46.20.343,forced_choiceRT,2021.1.2,Win32,60.24096386,,,,,,,,5,Ontime,j,1,1.993,9,3,39,3,1,,,,,
,,,,,,,,,,,,5f53d4f0d3e03471e4eb4847,2021-10-19_14h46.20.343,forced_choiceRT,2021.1.2,Win32,60.24096386,,,,,,,,,,,,,,,,,,4,0,4,0,1
,0.07,,,,,,,,,h.PNG,h,5f53d4f0d3e03471e4eb4847,2021-10-19_14h46.20.343,forced_choiceRT,2021.1.2,Win32,60.24096386,,,,,,,,6,Ontime,h,1,1.992,0,0,0,2,1,,,,,
,1.73,,,,,,,,,g.PNG,g,5f53d4f0d3e03471e4eb4847,2021-10-19_14h46.20.343,forced_choiceRT,2021.1.2,Win32,60.24096386,,,,,,,,6,Ontime,j,0,2.059,0,1,1,1,1,,,,,
,1.68,,,,,,,,,f.PNG,f,5f53d4f0d3e03471e4eb4847,2021-10-19_14h46.20.343,forced_choiceRT,2021.1.2,Win32,60.24096386,,,,,,,,6,Ontime,g,0,2.025,0,2,2,0,1,,,,,
,0.36,,,,,,,,,f.PNG,f,5f53d4f0d3e03471e4eb4847,2021-10-19_14h46.20.343,forced_choiceRT,2021.1.2,Win32,60.24096386,,,,,,,,6,Ontime,f,1,1.931,0,3,3,0,1,,,,,
,0.41,,,,,,,,,g.PNG,g,5f53d4f0d3e03471e4eb4847,2021-10-19_14h46.20.343,forced_choiceRT,2021.1.2,Win32,60.24096386,,,,,,,,6,Ontime,g,1,2.009,1,0,4,1,1,,,,,
,1.67,,,,,,,,,g.PNG,g,5f53d4f0d3e03471e4eb4847,2021-10-19_14h46.20.343,forced_choiceRT,2021.1.2,Win32,60.24096386,,,,,,,,6,Ontime,g,1,1.991,1,1,5,1,1,,,,,
,1.15,,,,,,,,,h.PNG,h,5f53d4f0d3e03471e4eb4847,2021-10-19_14h46.20.343,forced_choiceRT,2021.1.2,Win32,60.24096386,,,,,,,,6,Ontime,h,1,2.013,1,2,6,2,1,,,,,
,1.09,,,,,,,,,j.PNG,j,5f53d4f0d3e03471e4eb4847,2021-10-19_14h46.20.343,forced_choiceRT,2021.1.2,Win32,60.24096386,,,,,,,,6,Slow,j,1,2.113,1,3,7,3,1,,,,,
,0.69,,,,,,,,,j.PNG,j,5f53d4f0d3e03471e4eb4847,2021-10-19_14h46.20.343,forced_choiceRT,2021.1.2,Win32,60.24096386,,,,,,,,6,Ontime,j,1,2.008,2,0,8,3,1,,,,,
,0.06,,,,,,,,,g.PNG,g,5f53d4f0d3e03471e4eb4847,2021-10-19_14h46.20.343,forced_choiceRT,2021.1.2,Win32,60.24096386,,,,,,,,6,Ontime,j,0,1.91,2,1,9,1,1,,,,,
,1.18,,,,,,,,,h.PNG,h,5f53d4f0d3e03471e4eb4847,2021-10-19_14h46.20.343,forced_choiceRT,2021.1.2,Win32,60.24096386,,,,,,,,6,Ontime,h,1,2.092,2,2,10,2,1,,,,,
,0.02,,,,,,,,,f.PNG,f,5f53d4f0d3e03471e4eb4847,2021-10-19_14h46.20.343,forced_choiceRT,2021.1.2,Win32,60.24096386,,,,,,,,6,Ontime,f,1,1.964,2,3,11,0,1,,,,,
,0.01,,,,,,,,,f.PNG,f,5f53d4f0d3e03471e4eb4847,2021-10-19_14h46.20.343,forced_choiceRT,2021.1.2,Win32,60.24096386,,,,,,,,6,Ontime,f,1,2.093,3,0,12,0,1,,,,,
,1.74,,,,,,,,,f.PNG,f,5f53d4f0d3e03471e4eb4847,2021-10-19_14h46.20.343,forced_choiceRT,2021.1.2,Win32,60.24096386,,,,,,,,6,Ontime,f,1,2.092,3,1,13,0,1,,,,,
,1.95,,,,,,,,,f.PNG,f,5f53d4f0d3e03471e4eb4847,2021-10-19_14h46.20.343,forced_choiceRT,2021.1.2,Win32,60.24096386,,,,,,,,6,Slow,h,0,2.225,3,2,14,0,1,,,,,
,0.99,,,,,,,,,j.PNG,j,5f53d4f0d3e03471e4eb4847,2021-10-19_14h46.20.343,forced_choiceRT,2021.1.2,Win32,60.24096386,,,,,,,,6,Ontime,j,1,1.929,3,3,15,3,1,,,,,
,0.27,,,,,,,,,h.PNG,h,5f53d4f0d3e03471e4eb4847,2021-10-19_14h46.20.343,forced_choiceRT,2021.1.2,Win32,60.24096386,,,,,,,,6,Ontime,h,1,1.947,4,0,16,2,1,,,,,
,0.9,,,,,,,,,j.PNG,j,5f53d4f0d3e03471e4eb4847,2021-10-19_14h46.20.343,forced_choiceRT,2021.1.2,Win32,60.24096386,,,,,,,,6,Ontime,j,1,2.092,4,1,17,3,1,,,,,
,1.46,,,,,,,,,f.PNG,f,5f53d4f0d3e03471e4eb4847,2021-10-19_14h46.20.343,forced_choiceRT,2021.1.2,Win32,60.24096386,,,,,,,,6,Slow,f,1,2.212,4,2,18,0,1,,,,,
,0.6,,,,,,,,,g.PNG,g,5f53d4f0d3e03471e4eb4847,2021-10-19_14h46.20.343,forced_choiceRT,2021.1.2,Win32,60.24096386,,,,,,,,6,Ontime,g,1,1.927,4,3,19,1,1,,,,,
,0.37,,,,,,,,,f.PNG,f,5f53d4f0d3e03471e4eb4847,2021-10-19_14h46.20.343,forced_choiceRT,2021.1.2,Win32,60.24096386,,,,,,,,6,Ontime,f,1,2.015,5,0,20,0,1,,,,,
,1.86,,,,,,,,,g.PNG,g,5f53d4f0d3e03471e4eb4847,2021-10-19_14h46.20.343,forced_choiceRT,2021.1.2,Win32,60.24096386,,,,,,,,6,Ontime,f,0,2.093,5,1,21,1,1,,,,,
,1.25,,,,,,,,,h.PNG,h,5f53d4f0d3e03471e4eb4847,2021-10-19_14h46.20.343,forced_choiceRT,2021.1.2,Win32,60.24096386,,,,,,,,6,Slow,h,1,2.197,5,2,22,2,1,,,,,
,0.27,,,,,,,,,g.PNG,g,5f53d4f0d3e03471e4eb4847,2021-10-19_14h46.20.343,forced_choiceRT,2021.1.2,Win32,60.24096386,,,,,,,,6,Ontime,g,1,1.91,5,3,23,1,1,,,,,
,0.38,,,,,,,,,j.PNG,j,5f53d4f0d3e03471e4eb4847,2021-10-19_14h46.20.343,forced_choiceRT,2021.1.2,Win32,60.24096386,,,,,,,,6,Ontime,j,1,1.947,6,0,24,3,1,,,,,
,1.26,,,,,,,,,f.PNG,f,5f53d4f0d3e03471e4eb4847,2021-10-19_14h46.20.343,forced_choiceRT,2021.1.2,Win32,60.24096386,,,,,,,,6,Ontime,f,1,2.028,6,1,25,0,1,,,,,
,0.47,,,,,,,,,h.PNG,h,5f53d4f0d3e03471e4eb4847,2021-10-19_14h46.20.343,forced_choiceRT,2021.1.2,Win32,60.24096386,,,,,,,,6,Ontime,h,1,1.949,6,2,26,2,1,,,,,
,0.68,,,,,,,,,h.PNG,h,5f53d4f0d3e03471e4eb4847,2021-10-19_14h46.20.343,forced_choiceRT,2021.1.2,Win32,60.24096386,,,,,,,,6,Ontime,h,1,1.991,6,3,27,2,1,,,,,
,0.86,,,,,,,,,j.PNG,j,5f53d4f0d3e03471e4eb4847,2021-10-19_14h46.20.343,forced_choiceRT,2021.1.2,Win32,60.24096386,,,,,,,,6,Ontime,j,1,1.991,7,0,28,3,1,,,,,
,1.89,,,,,,,,,g.PNG,g,5f53d4f0d3e03471e4eb4847,2021-10-19_14h46.20.343,forced_choiceRT,2021.1.2,Win32,60.24096386,,,,,,,,6,Ontime,h,0,2.075,7,1,29,1,1,,,,,
,0.76,,,,,,,,,f.PNG,f,5f53d4f0d3e03471e4eb4847,2021-10-19_14h46.20.343,forced_choiceRT,2021.1.2,Win32,60.24096386,,,,,,,,6,Ontime,f,1,1.942,7,2,30,0,1,,,,,
,0.6,,,,,,,,,j.PNG,j,5f53d4f0d3e03471e4eb4847,2021-10-19_14h46.20.343,forced_choiceRT,2021.1.2,Win32,60.24096386,,,,,,,,6,Fast,j,1,1.825,7,3,31,3,1,,,,,
,1.3,,,,,,,,,g.PNG,g,5f53d4f0d3e03471e4eb4847,2021-10-19_14h46.20.343,forced_choiceRT,2021.1.2,Win32,60.24096386,,,,,,,,6,Slow,h,0,2.11,8,0,32,1,1,,,,,
,1.44,,,,,,,,,g.PNG,g,5f53d4f0d3e03471e4eb4847,2021-10-19_14h46.20.343,forced_choiceRT,2021.1.2,Win32,60.24096386,,,,,,,,6,Ontime,g,1,1.961,8,1,33,1,1,,,,,
,0.68,,,,,,,,,j.PNG,j,5f53d4f0d3e03471e4eb4847,2021-10-19_14h46.20.343,forced_choiceRT,2021.1.2,Win32,60.24096386,,,,,,,,6,Slow,j,1,2.142,8,2,34,3,1,,,,,
,0.26,,,,,,,,,h.PNG,h,5f53d4f0d3e03471e4eb4847,2021-10-19_14h46.20.343,forced_choiceRT,2021.1.2,Win32,60.24096386,,,,,,,,6,Ontime,h,1,2.024,8,3,35,2,1,,,,,
,0.81,,,,,,,,,h.PNG,h,5f53d4f0d3e03471e4eb4847,2021-10-19_14h46.20.343,forced_choiceRT,2021.1.2,Win32,60.24096386,,,,,,,,6,Ontime,h,1,2.076,9,0,36,2,1,,,,,
,1.42,,,,,,,,,j.PNG,j,5f53d4f0d3e03471e4eb4847,2021-10-19_14h46.20.343,forced_choiceRT,2021.1.2,Win32,60.24096386,,,,,,,,6,Slow,g,0,2.324,9,1,37,3,1,,,,,
,0.38,,,,,,,,,h.PNG,h,5f53d4f0d3e03471e4eb4847,2021-10-19_14h46.20.343,forced_choiceRT,2021.1.2,Win32,60.24096386,,,,,,,,6,Ontime,h,1,2.011,9,2,38,2,1,,,,,
,1.94,,,,,,,,,j.PNG,j,5f53d4f0d3e03471e4eb4847,2021-10-19_14h46.20.343,forced_choiceRT,2021.1.2,Win32,60.24096386,,,,,,,,6,Ontime,f,0,2.028,9,3,39,3,1,,,,,
,,,,,,,,,,,,5f53d4f0d3e03471e4eb4847,2021-10-19_14h46.20.343,forced_choiceRT,2021.1.2,Win32,60.24096386,,,,,,,,,,,,,,,,,,5,0,5,0,1
,1.7,,,,,,,,,f.PNG,f,5f53d4f0d3e03471e4eb4847,2021-10-19_14h46.20.343,forced_choiceRT,2021.1.2,Win32,60.24096386,,,,,,,,7,Slow,f,1,2.291,0,0,0,0,1,,,,,
,0.49,,,,,,,,,j.PNG,j,5f53d4f0d3e03471e4eb4847,2021-10-19_14h46.20.343,forced_choiceRT,2021.1.2,Win32,60.24096386,,,,,,,,7,Fast,j,1,1.76,0,1,1,3,1,,,,,
,0.34,,,,,,,,,h.PNG,h,5f53d4f0d3e03471e4eb4847,2021-10-19_14h46.20.343,forced_choiceRT,2021.1.2,Win32,60.24096386,,,,,,,,7,Ontime,h,1,1.932,0,2,2,2,1,,,,,
,1.32,,,,,,,,,f.PNG,f,5f53d4f0d3e03471e4eb4847,2021-10-19_14h46.20.343,forced_choiceRT,2021.1.2,Win32,60.24096386,,,,,,,,7,Ontime,f,1,2.074,0,3,3,0,1,,,,,
,1.21,,,,,,,,,j.PNG,j,5f53d4f0d3e03471e4eb4847,2021-10-19_14h46.20.343,forced_choiceRT,2021.1.2,Win32,60.24096386,,,,,,,,7,Ontime,j,1,1.997,1,0,4,3,1,,,,,
,1.98,,,,,,,,,h.PNG,h,5f53d4f0d3e03471e4eb4847,2021-10-19_14h46.20.343,forced_choiceRT,2021.1.2,Win32,60.24096386,,,,,,,,7,Slow,j,0,2.126,1,1,5,2,1,,,,,
,0.67,,,,,,,,,f.PNG,f,5f53d4f0d3e03471e4eb4847,2021-10-19_14h46.20.343,forced_choiceRT,2021.1.2,Win32,60.24096386,,,,,,,,7,Slow,f,1,2.108,1,2,6,0,1,,,,,
,0.95,,,,,,,,,h.PNG,h,5f53d4f0d3e03471e4eb4847,2021-10-19_14h46.20.343,forced_choiceRT,2021.1.2,Win32,60.24096386,,,,,,,,7,Ontime,h,1,2.045,1,3,7,2,1,,,,,
,1.47,,,,,,,,,h.PNG,h,5f53d4f0d3e03471e4eb4847,2021-10-19_14h46.20.343,forced_choiceRT,2021.1.2,Win32,60.24096386,,,,,,,,7,Ontime,h,1,1.975,2,0,8,2,1,,,,,
,0.91,,,,,,,,,h.PNG,h,5f53d4f0d3e03471e4eb4847,2021-10-19_14h46.20.343,forced_choiceRT,2021.1.2,Win32,60.24096386,,,,,,,,7,Ontime,h,1,1.998,2,1,9,2,1,,,,,
,0.87,,,,,,,,,g.PNG,g,5f53d4f0d3e03471e4eb4847,2021-10-19_14h46.20.343,forced_choiceRT,2021.1.2,Win32,60.24096386,,,,,,,,7,Slow,g,1,2.142,2,2,10,1,1,,,,,
,1.01,,,,,,,,,g.PNG,g,5f53d4f0d3e03471e4eb4847,2021-10-19_14h46.20.343,forced_choiceRT,2021.1.2,Win32,60.24096386,,,,,,,,7,Ontime,g,1,2.074,2,3,11,1,1,,,,,
,1.33,,,,,,,,,f.PNG,f,5f53d4f0d3e03471e4eb4847,2021-10-19_14h46.20.343,forced_choiceRT,2021.1.2,Win32,60.24096386,,,,,,,,7,Slow,f,1,2.192,3,0,12,0,1,,,,,
,0.12,,,,,,,,,j.PNG,j,5f53d4f0d3e03471e4eb4847,2021-10-19_14h46.20.343,forced_choiceRT,2021.1.2,Win32,60.24096386,,,,,,,,7,Ontime,j,1,2.01,3,1,13,3,1,,,,,
,0.99,,,,,,,,,g.PNG,g,5f53d4f0d3e03471e4eb4847,2021-10-19_14h46.20.343,forced_choiceRT,2021.1.2,Win32,60.24096386,,,,,,,,7,Ontime,g,1,2.011,3,2,14,1,1,,,,,
,1.04,,,,,,,,,f.PNG,f,5f53d4f0d3e03471e4eb4847,2021-10-19_14h46.20.343,forced_choiceRT,2021.1.2,Win32,60.24096386,,,,,,,,7,Slow,f,1,2.141,3,3,15,0,1,,,,,
,0.9,,,,,,,,,h.PNG,h,5f53d4f0d3e03471e4eb4847,2021-10-19_14h46.20.343,forced_choiceRT,2021.1.2,Win32,60.24096386,,,,,,,,7,Ontime,h,1,2.093,4,0,16,2,1,,,,,
,0.75,,,,,,,,,g.PNG,g,5f53d4f0d3e03471e4eb4847,2021-10-19_14h46.20.343,forced_choiceRT,2021.1.2,Win32,60.24096386,,,,,,,,7,Ontime,g,1,2.091,4,1,17,1,1,,,,,
,0.19,,,,,,,,,g.PNG,g,5f53d4f0d3e03471e4eb4847,2021-10-19_14h46.20.343,forced_choiceRT,2021.1.2,Win32,60.24096386,,,,,,,,7,Ontime,g,1,2.026,4,2,18,1,1,,,,,
,1.57,,,,,,,,,f.PNG,f,5f53d4f0d3e03471e4eb4847,2021-10-19_14h46.20.343,forced_choiceRT,2021.1.2,Win32,60.24096386,,,,,,,,7,Slow,f,1,2.291,4,3,19,0,1,,,,,
,1.93,,,,,,,,,h.PNG,h,5f53d4f0d3e03471e4eb4847,2021-10-19_14h46.20.343,forced_choiceRT,2021.1.2,Win32,60.24096386,,,,,,,,7,Ontime,g,0,2.014,5,0,20,2,1,,,,,
,1.69,,,,,,,,,g.PNG,g,5f53d4f0d3e03471e4eb4847,2021-10-19_14h46.20.343,forced_choiceRT,2021.1.2,Win32,60.24096386,,,,,,,,7,Slow,g,1,2.314,5,1,21,1,1,,,,,
,1.49,,,,,,,,,g.PNG,g,5f53d4f0d3e03471e4eb4847,2021-10-19_14h46.20.343,forced_choiceRT,2021.1.2,Win32,60.24096386,,,,,,,,7,Slow,g,1,2.126,5,2,22,1,1,,,,,
,1.6,,,,,,,,,j.PNG,j,5f53d4f0d3e03471e4eb4847,2021-10-19_14h46.20.343,forced_choiceRT,2021.1.2,Win32,60.24096386,,,,,,,,7,Ontime,g,0,1.945,5,3,23,3,1,,,,,
,0.63,,,,,,,,,j.PNG,j,5f53d4f0d3e03471e4eb4847,2021-10-19_14h46.20.343,forced_choiceRT,2021.1.2,Win32,60.24096386,,,,,,,,7,Ontime,j,1,2.058,6,0,24,3,1,,,,,
,0.33,,,,,,,,,f.PNG,f,5f53d4f0d3e03471e4eb4847,2021-10-19_14h46.20.343,forced_choiceRT,2021.1.2,Win32,60.24096386,,,,,,,,7,Ontime,h,0,2.057,6,1,25,0,1,,,,,
,1.9,,,,,,,,,j.PNG,j,5f53d4f0d3e03471e4eb4847,2021-10-19_14h46.20.343,forced_choiceRT,2021.1.2,Win32,60.24096386,,,,,,,,7,Ontime,f,0,1.943,6,2,26,3,1,,,,,
,0.84,,,,,,,,,g.PNG,g,5f53d4f0d3e03471e4eb4847,2021-10-19_14h46.20.343,forced_choiceRT,2021.1.2,Win32,60.24096386,,,,,,,,7,Ontime,g,1,2.064,6,3,27,1,1,,,,,
,0.57,,,,,,,,,g.PNG,g,5f53d4f0d3e03471e4eb4847,2021-10-19_14h46.20.343,forced_choiceRT,2021.1.2,Win32,60.24096386,,,,,,,,7,Ontime,g,1,2.076,7,0,28,1,1,,,,,
,1.12,,,,,,,,,j.PNG,j,5f53d4f0d3e03471e4eb4847,2021-10-19_14h46.20.343,forced_choiceRT,2021.1.2,Win32,60.24096386,,,,,,,,7,Slow,j,1,2.176,7,1,29,3,1,,,,,
,0.38,,,,,,,,,j.PNG,j,5f53d4f0d3e03471e4eb4847,2021-10-19_14h46.20.343,forced_choiceRT,2021.1.2,Win32,60.24096386,,,,,,,,7,Ontime,j,1,2.075,7,2,30,3,1,,,,,
,1.95,,,,,,,,,f.PNG,f,5f53d4f0d3e03471e4eb4847,2021-10-19_14h46.20.343,forced_choiceRT,2021.1.2,Win32,60.24096386,,,,,,,,7,Ontime,j,0,2.008,7,3,31,0,1,,,,,
,0.63,,,,,,,,,h.PNG,h,5f53d4f0d3e03471e4eb4847,2021-10-19_14h46.20.343,forced_choiceRT,2021.1.2,Win32,60.24096386,,,,,,,,7,Slow,h,1,2.109,8,0,32,2,1,,,,,
,1.36,,,,,,,,,h.PNG,h,5f53d4f0d3e03471e4eb4847,2021-10-19_14h46.20.343,forced_choiceRT,2021.1.2,Win32,60.24096386,,,,,,,,7,Slow,h,1,2.161,8,1,33,2,1,,,,,
,1.34,,,,,,,,,h.PNG,h,5f53d4f0d3e03471e4eb4847,2021-10-19_14h46.20.343,forced_choiceRT,2021.1.2,Win32,60.24096386,,,,,,,,7,Ontime,h,1,2.044,8,2,34,2,1,,,,,
,1.09,,,,,,,,,j.PNG,j,5f53d4f0d3e03471e4eb4847,2021-10-19_14h46.20.343,forced_choiceRT,2021.1.2,Win32,60.24096386,,,,,,,,7,Ontime,j,1,2.009,8,3,35,3,1,,,,,
,1.21,,,,,,,,,f.PNG,f,5f53d4f0d3e03471e4eb4847,2021-10-19_14h46.20.343,forced_choiceRT,2021.1.2,Win32,60.24096386,,,,,,,,7,Ontime,f,1,2.092,9,0,36,0,1,,,,,
,0.77,,,,,,,,,j.PNG,j,5f53d4f0d3e03471e4eb4847,2021-10-19_14h46.20.343,forced_choiceRT,2021.1.2,Win32,60.24096386,,,,,,,,7,Slow,j,1,2.129,9,1,37,3,1,,,,,
,0.96,,,,,,,,,f.PNG,f,5f53d4f0d3e03471e4eb4847,2021-10-19_14h46.20.343,forced_choiceRT,2021.1.2,Win32,60.24096386,,,,,,,,7,Ontime,f,1,2.076,9,2,38,0,1,,,,,
,0.62,,,,,,,,,g.PNG,g,5f53d4f0d3e03471e4eb4847,2021-10-19_14h46.20.343,forced_choiceRT,2021.1.2,Win32,60.24096386,,,,,,,,7,Ontime,g,1,2.043,9,3,39,1,1,,,,,
,,,,,,,,,,,,5f53d4f0d3e03471e4eb4847,2021-10-19_14h46.20.343,forced_choiceRT,2021.1.2,Win32,60.24096386,,,,,,,,,,,,,,,,,,6,0,6,0,1
,1.07,,,,,,,,,h.PNG,h,5f53d4f0d3e03471e4eb4847,2021-10-19_14h46.20.343,forced_choiceRT,2021.1.2,Win32,60.24096386,,,,,,,,8,Ontime,h,1,2.091,0,0,0,2,1,,,,,
,1.93,,,,,,,,,h.PNG,h,5f53d4f0d3e03471e4eb4847,2021-10-19_14h46.20.343,forced_choiceRT,2021.1.2,Win32,60.24096386,,,,,,,,8,Ontime,g,0,2.024,0,1,1,2,1,,,,,
,0.98,,,,,,,,,f.PNG,f,5f53d4f0d3e03471e4eb4847,2021-10-19_14h46.20.343,forced_choiceRT,2021.1.2,Win32,60.24096386,,,,,,,,8,Ontime,f,1,2.026,0,2,2,0,1,,,,,
,0.1,,,,,,,,,h.PNG,h,5f53d4f0d3e03471e4eb4847,2021-10-19_14h46.20.343,forced_choiceRT,2021.1.2,Win32,60.24096386,,,,,,,,8,Fast,h,1,1.865,0,3,3,2,1,,,,,
,1.88,,,,,,,,,g.PNG,g,5f53d4f0d3e03471e4eb4847,2021-10-19_14h46.20.343,forced_choiceRT,2021.1.2,Win32,60.24096386,,,,,,,,8,Slow,g,1,2.126,1,0,4,1,1,,,,,
,0.35,,,,,,,,,j.PNG,j,5f53d4f0d3e03471e4eb4847,2021-10-19_14h46.20.343,forced_choiceRT,2021.1.2,Win32,60.24096386,,,,,,,,8,Ontime,j,1,2.042,1,1,5,3,1,,,,,
,0.58,,,,,,,,,g.PNG,g,5f53d4f0d3e03471e4eb4847,2021-10-19_14h46.20.343,forced_choiceRT,2021.1.2,Win32,60.24096386,,,,,,,,8,Ontime,g,1,2.008,1,2,6,1,1,,,,,
,0.8,,,,,,,,,j.PNG,j,5f53d4f0d3e03471e4eb4847,2021-10-19_14h46.20.343,forced_choiceRT,2021.1.2,Win32,60.24096386,,,,,,,,8,Ontime,j,1,2.026,1,3,7,3,1,,,,,
,1.18,,,,,,,,,j.PNG,j,5f53d4f0d3e03471e4eb4847,2021-10-19_14h46.20.343,forced_choiceRT,2021.1.2,Win32,60.24096386,,,,,,,,8,Ontime,j,1,2.033,2,0,8,3,1,,,,,
,0.98,,,,,,,,,g.PNG,g,5f53d4f0d3e03471e4eb4847,2021-10-19_14h46.20.343,forced_choiceRT,2021.1.2,Win32,60.24096386,,,,,,,,8,Ontime,g,1,1.992,2,1,9,1,1,,,,,
,0.94,,,,,,,,,g.PNG,g,5f53d4f0d3e03471e4eb4847,2021-10-19_14h46.20.343,forced_choiceRT,2021.1.2,Win32,60.24096386,,,,,,,,8,Ontime,g,1,2.075,2,2,10,1,1,,,,,
,1.69,,,,,,,,,g.PNG,g,5f53d4f0d3e03471e4eb4847,2021-10-19_14h46.20.343,forced_choiceRT,2021.1.2,Win32,60.24096386,,,,,,,,8,Slow,h,0,2.215,2,3,11,1,1,,,,,
,1.53,,,,,,,,,j.PNG,j,5f53d4f0d3e03471e4eb4847,2021-10-19_14h46.20.343,forced_choiceRT,2021.1.2,Win32,60.24096386,,,,,,,,8,Slow,j,1,2.231,3,0,12,3,1,,,,,
,1.56,,,,,,,,,f.PNG,f,5f53d4f0d3e03471e4eb4847,2021-10-19_14h46.20.343,forced_choiceRT,2021.1.2,Win32,60.24096386,,,,,,,,8,Slow,f,1,2.28,3,1,13,0,1,,,,,
,0.01,,,,,,,,,j.PNG,j,5f53d4f0d3e03471e4eb4847,2021-10-19_14h46.20.343,forced_choiceRT,2021.1.2,Win32,60.24096386,,,,,,,,8,Fast,j,1,1.827,3,2,14,3,1,,,,,
,0.56,,,,,,,,,g.PNG,g,5f53d4f0d3e03471e4eb4847,2021-10-19_14h46.20.343,forced_choiceRT,2021.1.2,Win32,60.24096386,,,,,,,,8,Ontime,g,1,2.044,3,3,15,1,1,,,,,
,0.08,,,,,,,,,h.PNG,h,5f53d4f0d3e03471e4eb4847,2021-10-19_14h46.20.343,forced_choiceRT,2021.1.2,Win32,60.24096386,,,,,,,,8,Ontime,h,1,1.98,4,0,16,2,1,,,,,
,1.08,,,,,,,,,f.PNG,f,5f53d4f0d3e03471e4eb4847,2021-10-19_14h46.20.343,forced_choiceRT,2021.1.2,Win32,60.24096386,,,,,,,,8,Slow,f,1,2.143,4,1,17,0,1,,,,,
,1.74,,,,,,,,,f.PNG,f,5f53d4f0d3e03471e4eb4847,2021-10-19_14h46.20.343,forced_choiceRT,2021.1.2,Win32,60.24096386,,,,,,,,8,Ontime,h,0,2.065,4,2,18,0,1,,,,,
,0.67,,,,,,,,,g.PNG,g,5f53d4f0d3e03471e4eb4847,2021-10-19_14h46.20.343,forced_choiceRT,2021.1.2,Win32,60.24096386,,,,,,,,8,Ontime,g,1,2.062,4,3,19,1,1,,,,,
,0.02,,,,,,,,,h.PNG,h,5f53d4f0d3e03471e4eb4847,2021-10-19_14h46.20.343,forced_choiceRT,2021.1.2,Win32,60.24096386,,,,,,,,8,Slow,h,1,2.142,5,0,20,2,1,,,,,
,1.22,,,,,,,,,j.PNG,j,5f53d4f0d3e03471e4eb4847,2021-10-19_14h46.20.343,forced_choiceRT,2021.1.2,Win32,60.24096386,,,,,,,,8,Ontime,j,1,2.042,5,1,21,3,1,,,,,
,0.97,,,,,,,,,f.PNG,f,5f53d4f0d3e03471e4eb4847,2021-10-19_14h46.20.343,forced_choiceRT,2021.1.2,Win32,60.24096386,,,,,,,,8,Ontime,f,1,2.017,5,2,22,0,1,,,,,
,0.78,,,,,,,,,j.PNG,j,5f53d4f0d3e03471e4eb4847,2021-10-19_14h46.20.343,forced_choiceRT,2021.1.2,Win32,60.24096386,,,,,,,,8,Ontime,j,1,2.031,5,3,23,3,1,,,,,
,1.22,,,,,,,,,h.PNG,h,5f53d4f0d3e03471e4eb4847,2021-10-19_14h46.20.343,forced_choiceRT,2021.1.2,Win32,60.24096386,,,,,,,,8,Ontime,h,1,2.095,6,0,24,2,1,,,,,
,0.3,,,,,,,,,f.PNG,f,5f53d4f0d3e03471e4eb4847,2021-10-19_14h46.20.343,forced_choiceRT,2021.1.2,Win32,60.24096386,,,,,,,,8,Fast,f,1,1.777,6,1,25,0,1,,,,,
,0.95,,,,,,,,,h.PNG,h,5f53d4f0d3e03471e4eb4847,2021-10-19_14h46.20.343,forced_choiceRT,2021.1.2,Win32,60.24096386,,,,,,,,8,Ontime,h,1,2.058,6,2,26,2,1,,,,,
,1.64,,,,,,,,,j.PNG,j,5f53d4f0d3e03471e4eb4847,2021-10-19_14h46.20.343,forced_choiceRT,2021.1.2,Win32,60.24096386,,,,,,,,8,Ontime,h,0,1.98,6,3,27,3,1,,,,,
,1.55,,,,,,,,,h.PNG,h,5f53d4f0d3e03471e4eb4847,2021-10-19_14h46.20.343,forced_choiceRT,2021.1.2,Win32,60.24096386,,,,,,,,8,Slow,h,1,2.224,7,0,28,2,1,,,,,
,1.46,,,,,,,,,h.PNG,h,5f53d4f0d3e03471e4eb4847,2021-10-19_14h46.20.343,forced_choiceRT,2021.1.2,Win32,60.24096386,,,,,,,,8,Slow,h,1,2.241,7,1,29,2,1,,,,,
,0.97,,,,,,,,,g.PNG,g,5f53d4f0d3e03471e4eb4847,2021-10-19_14h46.20.343,forced_choiceRT,2021.1.2,Win32,60.24096386,,,,,,,,8,Fast,g,1,1.676,7,2,30,1,1,,,,,
,1.07,,,,,,,,,g.PNG,g,5f53d4f0d3e03471e4eb4847,2021-10-19_14h46.20.343,forced_choiceRT,2021.1.2,Win32,60.24096386,,,,,,,,8,Ontime,g,1,1.994,7,3,31,1,1,,,,,
,0.72,,,,,,,,,j.PNG,j,5f53d4f0d3e03471e4eb4847,2021-10-19_14h46.20.343,forced_choiceRT,2021.1.2,Win32,60.24096386,,,,,,,,8,Fast,j,1,1.727,8,0,32,3,1,,,,,
,0.56,,,,,,,,,f.PNG,f,5f53d4f0d3e03471e4eb4847,2021-10-19_14h46.20.343,forced_choiceRT,2021.1.2,Win32,60.24096386,,,,,,,,8,Ontime,f,1,2.024,8,1,33,0,1,,,,,
,0.54,,,,,,,,,h.PNG,h,5f53d4f0d3e03471e4eb4847,2021-10-19_14h46.20.343,forced_choiceRT,2021.1.2,Win32,60.24096386,,,,,,,,8,Fast,j,0,0.564,8,2,34,2,1,,,,,
,1.12,,,,,,,,,f.PNG,f,5f53d4f0d3e03471e4eb4847,2021-10-19_14h46.20.343,forced_choiceRT,2021.1.2,Win32,60.24096386,,,,,,,,8,Ontime,f,1,2.025,8,3,35,0,1,,,,,
,1.03,,,,,,,,,f.PNG,f,5f53d4f0d3e03471e4eb4847,2021-10-19_14h46.20.343,forced_choiceRT,2021.1.2,Win32,60.24096386,,,,,,,,8,Ontime,f,1,2.096,9,0,36,0,1,,,,,
,0.12,,,,,,,,,j.PNG,j,5f53d4f0d3e03471e4eb4847,2021-10-19_14h46.20.343,forced_choiceRT,2021.1.2,Win32,60.24096386,,,,,,,,8,Ontime,j,1,1.965,9,1,37,3,1,,,,,
,1.23,,,,,,,,,g.PNG,g,5f53d4f0d3e03471e4eb4847,2021-10-19_14h46.20.343,forced_choiceRT,2021.1.2,Win32,60.24096386,,,,,,,,8,Ontime,g,1,2.062,9,2,38,1,1,,,,,
,0.64,,,,,,,,,f.PNG,f,5f53d4f0d3e03471e4eb4847,2021-10-19_14h46.20.343,forced_choiceRT,2021.1.2,Win32,60.24096386,,,,,,,,8,Ontime,f,1,2.076,9,3,39,0,1,,,,,
,,,,,,,,,,,,5f53d4f0d3e03471e4eb4847,2021-10-19_14h46.20.343,forced_choiceRT,2021.1.2,Win32,60.24096386,,,,,,,,,,,,,,,,,,7,0,7,0,1
,0.3,,,,,,,,,f.PNG,f,5f53d4f0d3e03471e4eb4847,2021-10-19_14h46.20.343,forced_choiceRT,2021.1.2,Win32,60.24096386,,,,,,,,9,Ontime,f,1,2.041,0,0,0,0,1,,,,,
,0.22,,,,,,,,,g.PNG,g,5f53d4f0d3e03471e4eb4847,2021-10-19_14h46.20.343,forced_choiceRT,2021.1.2,Win32,60.24096386,,,,,,,,9,Ontime,g,1,1.943,0,1,1,1,1,,,,,
,0.97,,,,,,,,,g.PNG,g,5f53d4f0d3e03471e4eb4847,2021-10-19_14h46.20.343,forced_choiceRT,2021.1.2,Win32,60.24096386,,,,,,,,9,Ontime,g,1,1.943,0,2,2,1,1,,,,,
,1.53,,,,,,,,,h.PNG,h,5f53d4f0d3e03471e4eb4847,2021-10-19_14h46.20.343,forced_choiceRT,2021.1.2,Win32,60.24096386,,,,,,,,9,Ontime,j,0,2.01,0,3,3,2,1,,,,,
,1.78,,,,,,,,,g.PNG,g,5f53d4f0d3e03471e4eb4847,2021-10-19_14h46.20.343,forced_choiceRT,2021.1.2,Win32,60.24096386,,,,,,,,9,Ontime,g,1,2.043,1,0,4,1,1,,,,,
,1.76,,,,,,,,,h.PNG,h,5f53d4f0d3e03471e4eb4847,2021-10-19_14h46.20.343,forced_choiceRT,2021.1.2,Win32,60.24096386,,,,,,,,9,Ontime,j,0,2.049,1,1,5,2,1,,,,,
,0.18,,,,,,,,,g.PNG,g,5f53d4f0d3e03471e4eb4847,2021-10-19_14h46.20.343,forced_choiceRT,2021.1.2,Win32,60.24096386,,,,,,,,9,Slow,g,1,2.141,1,2,6,1,1,,,,,
,0,,,,,,,,,f.PNG,f,5f53d4f0d3e03471e4eb4847,2021-10-19_14h46.20.343,forced_choiceRT,2021.1.2,Win32,60.24096386,,,,,,,,9,Ontime,f,1,2.09,1,3,7,0,1,,,,,
,1.97,,,,,,,,,h.PNG,h,5f53d4f0d3e03471e4eb4847,2021-10-19_14h46.20.343,forced_choiceRT,2021.1.2,Win32,60.24096386,,,,,,,,9,Ontime,f,0,2.032,2,0,8,2,1,,,,,
,0.8,,,,,,,,,f.PNG,f,5f53d4f0d3e03471e4eb4847,2021-10-19_14h46.20.343,forced_choiceRT,2021.1.2,Win32,60.24096386,,,,,,,,9,Slow,f,1,2.143,2,1,9,0,1,,,,,
,1.63,,,,,,,,,f.PNG,f,5f53d4f0d3e03471e4eb4847,2021-10-19_14h46.20.343,forced_choiceRT,2021.1.2,Win32,60.24096386,,,,,,,,9,Ontime,j,0,1.963,2,2,10,0,1,,,,,
,1.65,,,,,,,,,h.PNG,h,5f53d4f0d3e03471e4eb4847,2021-10-19_14h46.20.343,forced_choiceRT,2021.1.2,Win32,60.24096386,,,,,,,,9,Slow,h,1,2.324,2,3,11,2,1,,,,,
,0.46,,,,,,,,,j.PNG,j,5f53d4f0d3e03471e4eb4847,2021-10-19_14h46.20.343,forced_choiceRT,2021.1.2,Win32,60.24096386,,,,,,,,9,Slow,j,1,2.113,3,0,12,3,1,,,,,
,1.03,,,,,,,,,g.PNG,g,5f53d4f0d3e03471e4eb4847,2021-10-19_14h46.20.343,forced_choiceRT,2021.1.2,Win32,60.24096386,,,,,,,,9,Ontime,g,1,1.982,3,1,13,1,1,,,,,
,1.4,,,,,,,,,h.PNG,h,5f53d4f0d3e03471e4eb4847,2021-10-19_14h46.20.343,forced_choiceRT,2021.1.2,Win32,60.24096386,,,,,,,,9,Ontime,h,1,2.041,3,2,14,2,1,,,,,
,0.52,,,,,,,,,h.PNG,h,5f53d4f0d3e03471e4eb4847,2021-10-19_14h46.20.343,forced_choiceRT,2021.1.2,Win32,60.24096386,,,,,,,,9,Ontime,h,1,1.993,3,3,15,2,1,,,,,
,0.69,,,,,,,,,h.PNG,h,5f53d4f0d3e03471e4eb4847,2021-10-19_14h46.20.343,forced_choiceRT,2021.1.2,Win32,60.24096386,,,,,,,,9,Fast,h,1,1.879,4,0,16,2,1,,,,,
,0.89,,,,,,,,,g.PNG,g,5f53d4f0d3e03471e4eb4847,2021-10-19_14h46.20.343,forced_choiceRT,2021.1.2,Win32,60.24096386,,,,,,,,9,Ontime,h,0,2.091,4,1,17,1,1,,,,,
,1.48,,,,,,,,,g.PNG,g,5f53d4f0d3e03471e4eb4847,2021-10-19_14h46.20.343,forced_choiceRT,2021.1.2,Win32,60.24096386,,,,,,,,9,Ontime,g,1,2.082,4,2,18,1,1,,,,,
,1.2,,,,,,,,,h.PNG,h,5f53d4f0d3e03471e4eb4847,2021-10-19_14h46.20.343,forced_choiceRT,2021.1.2,Win32,60.24096386,,,,,,,,9,Slow,h,1,2.142,4,3,19,2,1,,,,,
,0.33,,,,,,,,,f.PNG,f,5f53d4f0d3e03471e4eb4847,2021-10-19_14h46.20.343,forced_choiceRT,2021.1.2,Win32,60.24096386,,,,,,,,9,Fast,f,1,1.777,5,0,20,0,1,,,,,
,0.32,,,,,,,,,f.PNG,f,5f53d4f0d3e03471e4eb4847,2021-10-19_14h46.20.343,forced_choiceRT,2021.1.2,Win32,60.24096386,,,,,,,,9,Ontime,f,1,2.075,5,1,21,0,1,,,,,
,0.8,,,,,,,,,j.PNG,j,5f53d4f0d3e03471e4eb4847,2021-10-19_14h46.20.343,forced_choiceRT,2021.1.2,Win32,60.24096386,,,,,,,,9,Slow,j,1,2.108,5,2,22,3,1,,,,,
,0.26,,,,,,,,,j.PNG,j,5f53d4f0d3e03471e4eb4847,2021-10-19_14h46.20.343,forced_choiceRT,2021.1.2,Win32,60.24096386,,,,,,,,9,Ontime,j,1,1.949,5,3,23,3,1,,,,,
,1.11,,,,,,,,,j.PNG,j,5f53d4f0d3e03471e4eb4847,2021-10-19_14h46.20.343,forced_choiceRT,2021.1.2,Win32,60.24096386,,,,,,,,9,Ontime,j,1,2.031,6,0,24,3,1,,,,,
,0.39,,,,,,,,,f.PNG,f,5f53d4f0d3e03471e4eb4847,2021-10-19_14h46.20.343,forced_choiceRT,2021.1.2,Win32,60.24096386,,,,,,,,9,Ontime,f,1,1.926,6,1,25,0,1,,,,,
,0.26,,,,,,,,,j.PNG,j,5f53d4f0d3e03471e4eb4847,2021-10-19_14h46.20.343,forced_choiceRT,2021.1.2,Win32,60.24096386,,,,,,,,9,Ontime,j,1,2.04,6,2,26,3,1,,,,,
,1.46,,,,,,,,,f.PNG,f,5f53d4f0d3e03471e4eb4847,2021-10-19_14h46.20.343,forced_choiceRT,2021.1.2,Win32,60.24096386,,,,,,,,9,Slow,f,1,2.258,6,3,27,0,1,,,,,
,0.6,,,,,,,,,j.PNG,j,5f53d4f0d3e03471e4eb4847,2021-10-19_14h46.20.343,forced_choiceRT,2021.1.2,Win32,60.24096386,,,,,,,,9,Ontime,j,1,1.96,7,0,28,3,1,,,,,
,0.46,,,,,,,,,j.PNG,j,5f53d4f0d3e03471e4eb4847,2021-10-19_14h46.20.343,forced_choiceRT,2021.1.2,Win32,60.24096386,,,,,,,,9,Ontime,j,1,2.059,7,1,29,3,1,,,,,
,0.14,,,,,,,,,f.PNG,f,5f53d4f0d3e03471e4eb4847,2021-10-19_14h46.20.343,forced_choiceRT,2021.1.2,Win32,60.24096386,,,,,,,,9,Ontime,f,1,2.01,7,2,30,0,1,,,,,
,1.18,,,,,,,,,h.PNG,h,5f53d4f0d3e03471e4eb4847,2021-10-19_14h46.20.343,forced_choiceRT,2021.1.2,Win32,60.24096386,,,,,,,,9,Ontime,h,1,2.06,7,3,31,2,1,,,,,
,1.34,,,,,,,,,h.PNG,h,5f53d4f0d3e03471e4eb4847,2021-10-19_14h46.20.343,forced_choiceRT,2021.1.2,Win32,60.24096386,,,,,,,,9,Slow,h,1,2.16,8,0,32,2,1,,,,,
,1.76,,,,,,,,,g.PNG,g,5f53d4f0d3e03471e4eb4847,2021-10-19_14h46.20.343,forced_choiceRT,2021.1.2,Win32,60.24096386,,,,,,,,9,Ontime,h,0,2.075,8,1,33,1,1,,,,,
,0.89,,,,,,,,,j.PNG,j,5f53d4f0d3e03471e4eb4847,2021-10-19_14h46.20.343,forced_choiceRT,2021.1.2,Win32,60.24096386,,,,,,,,9,Fast,j,1,1.814,8,2,34,3,1,,,,,
,1.89,,,,,,,,,j.PNG,j,5f53d4f0d3e03471e4eb4847,2021-10-19_14h46.20.343,forced_choiceRT,2021.1.2,Win32,60.24096386,,,,,,,,9,Ontime,h,0,2.031,8,3,35,3,1,,,,,
,1.24,,,,,,,,,g.PNG,g,5f53d4f0d3e03471e4eb4847,2021-10-19_14h46.20.343,forced_choiceRT,2021.1.2,Win32,60.24096386,,,,,,,,9,Slow,j,0,2.36,9,0,36,1,1,,,,,
,1.41,,,,,,,,,f.PNG,f,5f53d4f0d3e03471e4eb4847,2021-10-19_14h46.20.343,forced_choiceRT,2021.1.2,Win32,60.24096386,,,,,,,,9,Fast,g,0,1.882,9,1,37,0,1,,,,,
,0.12,,,,,,,,,j.PNG,j,5f53d4f0d3e03471e4eb4847,2021-10-19_14h46.20.343,forced_choiceRT,2021.1.2,Win32,60.24096386,,,,,,,,9,Ontime,j,1,1.909,9,2,38,3,1,,,,,
,1.97,,,,,,,,,g.PNG,g,5f53d4f0d3e03471e4eb4847,2021-10-19_14h46.20.343,forced_choiceRT,2021.1.2,Win32,60.24096386,,,,,,,,9,Ontime,h,0,2.042,9,3,39,1,1,,,,,
,,,,,,,,,,,,5f53d4f0d3e03471e4eb4847,2021-10-19_14h46.20.343,forced_choiceRT,2021.1.2,Win32,60.24096386,,,,,,,,,,,,,,,,,,8,0,8,0,1
,1.47,,,,,,,,,g.PNG,g,5f53d4f0d3e03471e4eb4847,2021-10-19_14h46.20.343,forced_choiceRT,2021.1.2,Win32,60.24096386,,,,,,,,10,Ontime,g,1,2.076,0,0,0,1,1,,,,,
,1.01,,,,,,,,,j.PNG,j,5f53d4f0d3e03471e4eb4847,2021-10-19_14h46.20.343,forced_choiceRT,2021.1.2,Win32,60.24096386,,,,,,,,10,Ontime,j,1,2.007,0,1,1,3,1,,,,,
,0.73,,,,,,,,,j.PNG,j,5f53d4f0d3e03471e4eb4847,2021-10-19_14h46.20.343,forced_choiceRT,2021.1.2,Win32,60.24096386,,,,,,,,10,Ontime,j,1,2.026,0,2,2,3,1,,,,,
,1.37,,,,,,,,,f.PNG,f,5f53d4f0d3e03471e4eb4847,2021-10-19_14h46.20.343,forced_choiceRT,2021.1.2,Win32,60.24096386,,,,,,,,10,Ontime,f,1,1.98,0,3,3,0,1,,,,,
,1.82,,,,,,,,,f.PNG,f,5f53d4f0d3e03471e4eb4847,2021-10-19_14h46.20.343,forced_choiceRT,2021.1.2,Win32,60.24096386,,,,,,,,10,Slow,h,0,2.142,1,0,4,0,1,,,,,
,0.85,,,,,,,,,g.PNG,g,5f53d4f0d3e03471e4eb4847,2021-10-19_14h46.20.343,forced_choiceRT,2021.1.2,Win32,60.24096386,,,,,,,,10,Ontime,g,1,2.009,1,1,5,1,1,,,,,
,1.37,,,,,,,,,h.PNG,h,5f53d4f0d3e03471e4eb4847,2021-10-19_14h46.20.343,forced_choiceRT,2021.1.2,Win32,60.24096386,,,,,,,,10,Ontime,h,1,2.073,1,2,6,2,1,,,,,
,1.65,,,,,,,,,f.PNG,f,5f53d4f0d3e03471e4eb4847,2021-10-19_14h46.20.343,forced_choiceRT,2021.1.2,Win32,60.24096386,,,,,,,,10,Ontime,j,0,1.991,1,3,7,0,1,,,,,
,1.6,,,,,,,,,g.PNG,g,5f53d4f0d3e03471e4eb4847,2021-10-19_14h46.20.343,forced_choiceRT,2021.1.2,Win32,60.24096386,,,,,,,,10,Ontime,f,0,1.943,2,0,8,1,1,,,,,
,1.84,,,,,,,,,j.PNG,j,5f53d4f0d3e03471e4eb4847,2021-10-19_14h46.20.343,forced_choiceRT,2021.1.2,Win32,60.24096386,,,,,,,,10,Ontime,g,0,2.092,2,1,9,3,1,,,,,
,1.68,,,,,,,,,j.PNG,j,5f53d4f0d3e03471e4eb4847,2021-10-19_14h46.20.343,forced_choiceRT,2021.1.2,Win32,60.24096386,,,,,,,,10,Slow,h,0,2.162,2,2,10,3,1,,,,,
,1.28,,,,,,,,,g.PNG,g,5f53d4f0d3e03471e4eb4847,2021-10-19_14h46.20.343,forced_choiceRT,2021.1.2,Win32,60.24096386,,,,,,,,10,Ontime,g,1,1.993,2,3,11,1,1,,,,,
,0.82,,,,,,,,,g.PNG,g,5f53d4f0d3e03471e4eb4847,2021-10-19_14h46.20.343,forced_choiceRT,2021.1.2,Win32,60.24096386,,,,,,,,10,Ontime,g,1,2.058,3,0,12,1,1,,,,,
,1.47,,,,,,,,,j.PNG,j,5f53d4f0d3e03471e4eb4847,2021-10-19_14h46.20.343,forced_choiceRT,2021.1.2,Win32,60.24096386,,,,,,,,10,Slow,j,1,2.175,3,1,13,3,1,,,,,
,0.05,,,,,,,,,h.PNG,h,5f53d4f0d3e03471e4eb4847,2021-10-19_14h46.20.343,forced_choiceRT,2021.1.2,Win32,60.24096386,,,,,,,,10,Ontime,h,1,1.925,3,2,14,2,1,,,,,
,1.38,,,,,,,,,g.PNG,g,5f53d4f0d3e03471e4eb4847,2021-10-19_14h46.20.343,forced_choiceRT,2021.1.2,Win32,60.24096386,,,,,,,,10,Ontime,g,1,2.062,3,3,15,1,1,,,,,
,0.87,,,,,,,,,g.PNG,g,5f53d4f0d3e03471e4eb4847,2021-10-19_14h46.20.343,forced_choiceRT,2021.1.2,Win32,60.24096386,,,,,,,,10,Ontime,g,1,2.077,4,0,16,1,1,,,,,
,1.86,,,,,,,,,h.PNG,h,5f53d4f0d3e03471e4eb4847,2021-10-19_14h46.20.343,forced_choiceRT,2021.1.2,Win32,60.24096386,,,,,,,,10,Ontime,g,0,2.075,4,1,17,2,1,,,,,
,0.68,,,,,,,,,f.PNG,f,5f53d4f0d3e03471e4eb4847,2021-10-19_14h46.20.343,forced_choiceRT,2021.1.2,Win32,60.24096386,,,,,,,,10,Ontime,f,1,2.08,4,2,18,0,1,,,,,
,0.73,,,,,,,,,h.PNG,h,5f53d4f0d3e03471e4eb4847,2021-10-19_14h46.20.343,forced_choiceRT,2021.1.2,Win32,60.24096386,,,,,,,,10,Fast,h,1,1.89,4,3,19,2,1,,,,,
,0.24,,,,,,,,,f.PNG,f,5f53d4f0d3e03471e4eb4847,2021-10-19_14h46.20.343,forced_choiceRT,2021.1.2,Win32,60.24096386,,,,,,,,10,Ontime,f,1,1.995,5,0,20,0,1,,,,,
,0.15,,,,,,,,,j.PNG,j,5f53d4f0d3e03471e4eb4847,2021-10-19_14h46.20.343,forced_choiceRT,2021.1.2,Win32,60.24096386,,,,,,,,10,Fast,j,1,1.842,5,1,21,3,1,,,,,
,1.19,,,,,,,,,f.PNG,f,5f53d4f0d3e03471e4eb4847,2021-10-19_14h46.20.343,forced_choiceRT,2021.1.2,Win32,60.24096386,,,,,,,,10,Ontime,f,1,2.097,5,2,22,0,1,,,,,
,0.98,,,,,,,,,g.PNG,g,5f53d4f0d3e03471e4eb4847,2021-10-19_14h46.20.343,forced_choiceRT,2021.1.2,Win32,60.24096386,,,,,,,,10,Slow,g,1,2.159,5,3,23,1,1,,,,,
,0.36,,,,,,,,,j.PNG,j,5f53d4f0d3e03471e4eb4847,2021-10-19_14h46.20.343,forced_choiceRT,2021.1.2,Win32,60.24096386,,,,,,,,10,Ontime,j,1,2.058,6,0,24,3,1,,,,,
,1.67,,,,,,,,,j.PNG,j,5f53d4f0d3e03471e4eb4847,2021-10-19_14h46.20.343,forced_choiceRT,2021.1.2,Win32,60.24096386,,,,,,,,10,Ontime,h,0,2.025,6,1,25,3,1,,,,,
,0.13,,,,,,,,,h.PNG,h,5f53d4f0d3e03471e4eb4847,2021-10-19_14h46.20.343,forced_choiceRT,2021.1.2,Win32,60.24096386,,,,,,,,10,Ontime,h,1,2.079,6,2,26,2,1,,,,,
,1.86,,,,,,,,,f.PNG,f,5f53d4f0d3e03471e4eb4847,2021-10-19_14h46.20.343,forced_choiceRT,2021.1.2,Win32,60.24096386,,,,,,,,10,Ontime,h,0,1.997,6,3,27,0,1,,,,,
,1.35,,,,,,,,,f.PNG,f,5f53d4f0d3e03471e4eb4847,2021-10-19_14h46.20.343,forced_choiceRT,2021.1.2,Win32,60.24096386,,,,,,,,10,Ontime,f,1,2.008,7,0,28,0,1,,,,,
,0.09,,,,,,,,,f.PNG,f,5f53d4f0d3e03471e4eb4847,2021-10-19_14h46.20.343,forced_choiceRT,2021.1.2,Win32,60.24096386,,,,,,,,10,Ontime,f,1,1.91,7,1,29,0,1,,,,,
,1.78,,,,,,,,,j.PNG,j,5f53d4f0d3e03471e4eb4847,2021-10-19_14h46.20.343,forced_choiceRT,2021.1.2,Win32,60.24096386,,,,,,,,10,Ontime,h,0,1.976,7,2,30,3,1,,,,,
,0.09,,,,,,,,,g.PNG,g,5f53d4f0d3e03471e4eb4847,2021-10-19_14h46.20.343,forced_choiceRT,2021.1.2,Win32,60.24096386,,,,,,,,10,Ontime,g,1,2.025,7,3,31,1,1,,,,,
,1.58,,,,,,,,,h.PNG,h,5f53d4f0d3e03471e4eb4847,2021-10-19_14h46.20.343,forced_choiceRT,2021.1.2,Win32,60.24096386,,,,,,,,10,Ontime,h,1,2.026,8,0,32,2,1,,,,,
,1.58,,,,,,,,,j.PNG,j,5f53d4f0d3e03471e4eb4847,2021-10-19_14h46.20.343,forced_choiceRT,2021.1.2,Win32,60.24096386,,,,,,,,10,Slow,h,0,2.225,8,1,33,3,1,,,,,
,0.7,,,,,,,,,h.PNG,h,5f53d4f0d3e03471e4eb4847,2021-10-19_14h46.20.343,forced_choiceRT,2021.1.2,Win32,60.24096386,,,,,,,,10,Ontime,h,1,2.065,8,2,34,2,1,,,,,
,0.89,,,,,,,,,h.PNG,h,5f53d4f0d3e03471e4eb4847,2021-10-19_14h46.20.343,forced_choiceRT,2021.1.2,Win32,60.24096386,,,,,,,,10,Ontime,h,1,2.041,8,3,35,2,1,,,,,
,1.83,,,,,,,,,g.PNG,g,5f53d4f0d3e03471e4eb4847,2021-10-19_14h46.20.343,forced_choiceRT,2021.1.2,Win32,60.24096386,,,,,,,,10,Ontime,h,0,2.063,9,0,36,1,1,,,,,
,0.68,,,,,,,,,h.PNG,h,5f53d4f0d3e03471e4eb4847,2021-10-19_14h46.20.343,forced_choiceRT,2021.1.2,Win32,60.24096386,,,,,,,,10,Ontime,h,1,2.076,9,1,37,2,1,,,,,
,1.08,,,,,,,,,f.PNG,f,5f53d4f0d3e03471e4eb4847,2021-10-19_14h46.20.343,forced_choiceRT,2021.1.2,Win32,60.24096386,,,,,,,,10,Ontime,f,1,2.042,9,2,38,0,1,,,,,
,0.93,,,,,,,,,h.PNG,h,5f53d4f0d3e03471e4eb4847,2021-10-19_14h46.20.343,forced_choiceRT,2021.1.2,Win32,60.24096386,,,,,,,,10,Ontime,h,1,2.067,9,3,39,2,1,,,,,
,,,,,,,,,,,,5f53d4f0d3e03471e4eb4847,2021-10-19_14h46.20.343,forced_choiceRT,2021.1.2,Win32,60.24096386,,,,,,,,,,,,,,,,,,9,0,9,0,1
