IP_Addresss,target_onset,trial_resp_sp.keys,trial_resp_sp.corr,trial_resp_sp.rt,trials_train_loop.thisRepN,trials_train_loop.thisTrialN,trials_train_loop.thisN,trials_train_loop.thisIndex,trials_train_loop.ran,pic,correct_key,participant,date,expName,psychopyVersion,OS,frameRate,trial_resp_timing.keys,trial_resp_timing.rt,trials_train_timing.thisRepN,trials_train_timing.thisTrialN,trials_train_timing.thisN,trials_train_timing.thisIndex,trials_train_timing.ran,block_id,ontime,forcedRT_resp.keys,forcedRT_resp.corr,forcedRT_resp.rt,trials.thisRepN,trials.thisTrialN,trials.thisN,trials.thisIndex,trials.ran,blocks.thisRepN,blocks.thisTrialN,blocks.thisN,blocks.thisIndex,blocks.ran
98.212.204.205,0,j,1,4.5958,0,0,0,3,1,j.PNG,j,5f5b0f1be585c32184a4cf35,2021-10-19_11h53.43.118,forced_choiceRT,2021.1.2,MacIntel,60.22282445,,,,,,,,,,,,,,,,,,,,,,
,0,h,1,1.537,0,1,1,2,1,h.PNG,h,5f5b0f1be585c32184a4cf35,2021-10-19_11h53.43.118,forced_choiceRT,2021.1.2,MacIntel,60.22282445,,,,,,,,,,,,,,,,,,,,,,
,0,f,1,1.7288,0,2,2,0,1,f.PNG,f,5f5b0f1be585c32184a4cf35,2021-10-19_11h53.43.118,forced_choiceRT,2021.1.2,MacIntel,60.22282445,,,,,,,,,,,,,,,,,,,,,,
,0,f,1,2.2301,0,3,3,0,1,f.PNG,f,5f5b0f1be585c32184a4cf35,2021-10-19_11h53.43.118,forced_choiceRT,2021.1.2,MacIntel,60.22282445,,,,,,,,,,,,,,,,,,,,,,
,0,f,1,1.4427,1,0,4,0,1,f.PNG,f,5f5b0f1be585c32184a4cf35,2021-10-19_11h53.43.118,forced_choiceRT,2021.1.2,MacIntel,60.22282445,,,,,,,,,,,,,,,,,,,,,,
,0,h,1,1.8902,1,1,5,2,1,h.PNG,h,5f5b0f1be585c32184a4cf35,2021-10-19_11h53.43.118,forced_choiceRT,2021.1.2,MacIntel,60.22282445,,,,,,,,,,,,,,,,,,,,,,
,0,j,1,1.3367,1,2,6,3,1,j.PNG,j,5f5b0f1be585c32184a4cf35,2021-10-19_11h53.43.118,forced_choiceRT,2021.1.2,MacIntel,60.22282445,,,,,,,,,,,,,,,,,,,,,,
,0,g,1,1.2994,1,3,7,1,1,g.PNG,g,5f5b0f1be585c32184a4cf35,2021-10-19_11h53.43.118,forced_choiceRT,2021.1.2,MacIntel,60.22282445,,,,,,,,,,,,,,,,,,,,,,
,0,f,1,0.9461,2,0,8,0,1,f.PNG,f,5f5b0f1be585c32184a4cf35,2021-10-19_11h53.43.118,forced_choiceRT,2021.1.2,MacIntel,60.22282445,,,,,,,,,,,,,,,,,,,,,,
,0,h,1,1.2735,2,1,9,2,1,h.PNG,h,5f5b0f1be585c32184a4cf35,2021-10-19_11h53.43.118,forced_choiceRT,2021.1.2,MacIntel,60.22282445,,,,,,,,,,,,,,,,,,,,,,
,0,g,1,0.9293,2,2,10,1,1,g.PNG,g,5f5b0f1be585c32184a4cf35,2021-10-19_11h53.43.118,forced_choiceRT,2021.1.2,MacIntel,60.22282445,,,,,,,,,,,,,,,,,,,,,,
,0,g,1,0.8628,2,3,11,1,1,g.PNG,g,5f5b0f1be585c32184a4cf35,2021-10-19_11h53.43.118,forced_choiceRT,2021.1.2,MacIntel,60.22282445,,,,,,,,,,,,,,,,,,,,,,
,0,h,1,1.2345,3,0,12,2,1,h.PNG,h,5f5b0f1be585c32184a4cf35,2021-10-19_11h53.43.118,forced_choiceRT,2021.1.2,MacIntel,60.22282445,,,,,,,,,,,,,,,,,,,,,,
,0,f,1,0.7935,3,1,13,0,1,f.PNG,f,5f5b0f1be585c32184a4cf35,2021-10-19_11h53.43.118,forced_choiceRT,2021.1.2,MacIntel,60.22282445,,,,,,,,,,,,,,,,,,,,,,
,0,h,1,1.2886,3,2,14,2,1,h.PNG,h,5f5b0f1be585c32184a4cf35,2021-10-19_11h53.43.118,forced_choiceRT,2021.1.2,MacIntel,60.22282445,,,,,,,,,,,,,,,,,,,,,,
,0,g,1,0.9886,3,3,15,1,1,g.PNG,g,5f5b0f1be585c32184a4cf35,2021-10-19_11h53.43.118,forced_choiceRT,2021.1.2,MacIntel,60.22282445,,,,,,,,,,,,,,,,,,,,,,
,0,f,1,0.8737,4,0,16,0,1,f.PNG,f,5f5b0f1be585c32184a4cf35,2021-10-19_11h53.43.118,forced_choiceRT,2021.1.2,MacIntel,60.22282445,,,,,,,,,,,,,,,,,,,,,,
,0,g,1,1.4622,4,1,17,1,1,g.PNG,g,5f5b0f1be585c32184a4cf35,2021-10-19_11h53.43.118,forced_choiceRT,2021.1.2,MacIntel,60.22282445,,,,,,,,,,,,,,,,,,,,,,
,0,j,1,0.9828,4,2,18,3,1,j.PNG,j,5f5b0f1be585c32184a4cf35,2021-10-19_11h53.43.118,forced_choiceRT,2021.1.2,MacIntel,60.22282445,,,,,,,,,,,,,,,,,,,,,,
,0,h,1,0.8098,4,3,19,2,1,h.PNG,h,5f5b0f1be585c32184a4cf35,2021-10-19_11h53.43.118,forced_choiceRT,2021.1.2,MacIntel,60.22282445,,,,,,,,,,,,,,,,,,,,,,
,0,f,0,1.0137,5,0,20,1,1,g.PNG,g,5f5b0f1be585c32184a4cf35,2021-10-19_11h53.43.118,forced_choiceRT,2021.1.2,MacIntel,60.22282445,,,,,,,,,,,,,,,,,,,,,,
,0,g,1,1.8935,5,1,21,1,1,g.PNG,g,5f5b0f1be585c32184a4cf35,2021-10-19_11h53.43.118,forced_choiceRT,2021.1.2,MacIntel,60.22282445,,,,,,,,,,,,,,,,,,,,,,
,0,f,1,1.8587,5,2,22,0,1,f.PNG,f,5f5b0f1be585c32184a4cf35,2021-10-19_11h53.43.118,forced_choiceRT,2021.1.2,MacIntel,60.22282445,,,,,,,,,,,,,,,,,,,,,,
,0,j,1,1.1957,5,3,23,3,1,j.PNG,j,5f5b0f1be585c32184a4cf35,2021-10-19_11h53.43.118,forced_choiceRT,2021.1.2,MacIntel,60.22282445,,,,,,,,,,,,,,,,,,,,,,
,0,g,1,1.0489,6,0,24,1,1,g.PNG,g,5f5b0f1be585c32184a4cf35,2021-10-19_11h53.43.118,forced_choiceRT,2021.1.2,MacIntel,60.22282445,,,,,,,,,,,,,,,,,,,,,,
,0,g,1,1.3479,6,1,25,1,1,g.PNG,g,5f5b0f1be585c32184a4cf35,2021-10-19_11h53.43.118,forced_choiceRT,2021.1.2,MacIntel,60.22282445,,,,,,,,,,,,,,,,,,,,,,
,0,f,1,0.9592,6,2,26,0,1,f.PNG,f,5f5b0f1be585c32184a4cf35,2021-10-19_11h53.43.118,forced_choiceRT,2021.1.2,MacIntel,60.22282445,,,,,,,,,,,,,,,,,,,,,,
,0,j,1,0.8361,6,3,27,3,1,j.PNG,j,5f5b0f1be585c32184a4cf35,2021-10-19_11h53.43.118,forced_choiceRT,2021.1.2,MacIntel,60.22282445,,,,,,,,,,,,,,,,,,,,,,
,0,g,1,2.7572,7,0,28,1,1,g.PNG,g,5f5b0f1be585c32184a4cf35,2021-10-19_11h53.43.118,forced_choiceRT,2021.1.2,MacIntel,60.22282445,,,,,,,,,,,,,,,,,,,,,,
,0,h,1,1.4435,7,1,29,2,1,h.PNG,h,5f5b0f1be585c32184a4cf35,2021-10-19_11h53.43.118,forced_choiceRT,2021.1.2,MacIntel,60.22282445,,,,,,,,,,,,,,,,,,,,,,
,0,h,1,0.8712,7,2,30,2,1,h.PNG,h,5f5b0f1be585c32184a4cf35,2021-10-19_11h53.43.118,forced_choiceRT,2021.1.2,MacIntel,60.22282445,,,,,,,,,,,,,,,,,,,,,,
,0,f,1,0.8368,7,3,31,0,1,f.PNG,f,5f5b0f1be585c32184a4cf35,2021-10-19_11h53.43.118,forced_choiceRT,2021.1.2,MacIntel,60.22282445,,,,,,,,,,,,,,,,,,,,,,
,0,f,1,0.5458,8,0,32,0,1,f.PNG,f,5f5b0f1be585c32184a4cf35,2021-10-19_11h53.43.118,forced_choiceRT,2021.1.2,MacIntel,60.22282445,,,,,,,,,,,,,,,,,,,,,,
,0,f,1,0.5575,8,1,33,0,1,f.PNG,f,5f5b0f1be585c32184a4cf35,2021-10-19_11h53.43.118,forced_choiceRT,2021.1.2,MacIntel,60.22282445,,,,,,,,,,,,,,,,,,,,,,
,0,j,1,0.9014,8,2,34,3,1,j.PNG,j,5f5b0f1be585c32184a4cf35,2021-10-19_11h53.43.118,forced_choiceRT,2021.1.2,MacIntel,60.22282445,,,,,,,,,,,,,,,,,,,,,,
,0,h,1,1.2549,8,3,35,2,1,h.PNG,h,5f5b0f1be585c32184a4cf35,2021-10-19_11h53.43.118,forced_choiceRT,2021.1.2,MacIntel,60.22282445,,,,,,,,,,,,,,,,,,,,,,
,0,g,1,1.197,9,0,36,1,1,g.PNG,g,5f5b0f1be585c32184a4cf35,2021-10-19_11h53.43.118,forced_choiceRT,2021.1.2,MacIntel,60.22282445,,,,,,,,,,,,,,,,,,,,,,
,0,j,1,1.1443,9,1,37,3,1,j.PNG,j,5f5b0f1be585c32184a4cf35,2021-10-19_11h53.43.118,forced_choiceRT,2021.1.2,MacIntel,60.22282445,,,,,,,,,,,,,,,,,,,,,,
,0,j,1,1.5562,9,2,38,3,1,j.PNG,j,5f5b0f1be585c32184a4cf35,2021-10-19_11h53.43.118,forced_choiceRT,2021.1.2,MacIntel,60.22282445,,,,,,,,,,,,,,,,,,,,,,
,0,h,1,1.2382,9,3,39,2,1,h.PNG,h,5f5b0f1be585c32184a4cf35,2021-10-19_11h53.43.118,forced_choiceRT,2021.1.2,MacIntel,60.22282445,,,,,,,,,,,,,,,,,,,,,,
,0,j,1,0.8365,10,0,40,3,1,j.PNG,j,5f5b0f1be585c32184a4cf35,2021-10-19_11h53.43.118,forced_choiceRT,2021.1.2,MacIntel,60.22282445,,,,,,,,,,,,,,,,,,,,,,
,0,j,1,1.5225,10,1,41,3,1,j.PNG,j,5f5b0f1be585c32184a4cf35,2021-10-19_11h53.43.118,forced_choiceRT,2021.1.2,MacIntel,60.22282445,,,,,,,,,,,,,,,,,,,,,,
,0,h,1,0.9051,10,2,42,2,1,h.PNG,h,5f5b0f1be585c32184a4cf35,2021-10-19_11h53.43.118,forced_choiceRT,2021.1.2,MacIntel,60.22282445,,,,,,,,,,,,,,,,,,,,,,
,0,f,1,0.7086,10,3,43,0,1,f.PNG,f,5f5b0f1be585c32184a4cf35,2021-10-19_11h53.43.118,forced_choiceRT,2021.1.2,MacIntel,60.22282445,,,,,,,,,,,,,,,,,,,,,,
,0,h,1,0.979,11,0,44,2,1,h.PNG,h,5f5b0f1be585c32184a4cf35,2021-10-19_11h53.43.118,forced_choiceRT,2021.1.2,MacIntel,60.22282445,,,,,,,,,,,,,,,,,,,,,,
,0,g,1,1.523,11,1,45,1,1,g.PNG,g,5f5b0f1be585c32184a4cf35,2021-10-19_11h53.43.118,forced_choiceRT,2021.1.2,MacIntel,60.22282445,,,,,,,,,,,,,,,,,,,,,,
,0,j,1,1.1718,11,2,46,3,1,j.PNG,j,5f5b0f1be585c32184a4cf35,2021-10-19_11h53.43.118,forced_choiceRT,2021.1.2,MacIntel,60.22282445,,,,,,,,,,,,,,,,,,,,,,
,0,j,1,0.6254,11,3,47,3,1,j.PNG,j,5f5b0f1be585c32184a4cf35,2021-10-19_11h53.43.118,forced_choiceRT,2021.1.2,MacIntel,60.22282445,,,,,,,,,,,,,,,,,,,,,,
,0,j,1,0.6678,12,0,48,3,1,j.PNG,j,5f5b0f1be585c32184a4cf35,2021-10-19_11h53.43.118,forced_choiceRT,2021.1.2,MacIntel,60.22282445,,,,,,,,,,,,,,,,,,,,,,
,0,h,1,1.0221,12,1,49,2,1,h.PNG,h,5f5b0f1be585c32184a4cf35,2021-10-19_11h53.43.118,forced_choiceRT,2021.1.2,MacIntel,60.22282445,,,,,,,,,,,,,,,,,,,,,,
,0,f,1,0.7861,12,2,50,0,1,f.PNG,f,5f5b0f1be585c32184a4cf35,2021-10-19_11h53.43.118,forced_choiceRT,2021.1.2,MacIntel,60.22282445,,,,,,,,,,,,,,,,,,,,,,
,0,h,1,0.6786,12,3,51,2,1,h.PNG,h,5f5b0f1be585c32184a4cf35,2021-10-19_11h53.43.118,forced_choiceRT,2021.1.2,MacIntel,60.22282445,,,,,,,,,,,,,,,,,,,,,,
,0,g,0,0.7899,13,0,52,0,1,f.PNG,f,5f5b0f1be585c32184a4cf35,2021-10-19_11h53.43.118,forced_choiceRT,2021.1.2,MacIntel,60.22282445,,,,,,,,,,,,,,,,,,,,,,
,0,g,1,1.1543,13,1,53,1,1,g.PNG,g,5f5b0f1be585c32184a4cf35,2021-10-19_11h53.43.118,forced_choiceRT,2021.1.2,MacIntel,60.22282445,,,,,,,,,,,,,,,,,,,,,,
,0,j,1,1.2147,13,2,54,3,1,j.PNG,j,5f5b0f1be585c32184a4cf35,2021-10-19_11h53.43.118,forced_choiceRT,2021.1.2,MacIntel,60.22282445,,,,,,,,,,,,,,,,,,,,,,
,0,g,1,1.1352,13,3,55,1,1,g.PNG,g,5f5b0f1be585c32184a4cf35,2021-10-19_11h53.43.118,forced_choiceRT,2021.1.2,MacIntel,60.22282445,,,,,,,,,,,,,,,,,,,,,,
,0,j,1,1.0665,14,0,56,3,1,j.PNG,j,5f5b0f1be585c32184a4cf35,2021-10-19_11h53.43.118,forced_choiceRT,2021.1.2,MacIntel,60.22282445,,,,,,,,,,,,,,,,,,,,,,
,0,g,1,0.9633,14,1,57,1,1,g.PNG,g,5f5b0f1be585c32184a4cf35,2021-10-19_11h53.43.118,forced_choiceRT,2021.1.2,MacIntel,60.22282445,,,,,,,,,,,,,,,,,,,,,,
,0,h,1,0.9297,14,2,58,2,1,h.PNG,h,5f5b0f1be585c32184a4cf35,2021-10-19_11h53.43.118,forced_choiceRT,2021.1.2,MacIntel,60.22282445,,,,,,,,,,,,,,,,,,,,,,
,0,f,1,0.852,14,3,59,0,1,f.PNG,f,5f5b0f1be585c32184a4cf35,2021-10-19_11h53.43.118,forced_choiceRT,2021.1.2,MacIntel,60.22282445,,,,,,,,,,,,,,,,,,,,,,
,,,,,,,,,,,,5f5b0f1be585c32184a4cf35,2021-10-19_11h53.43.118,forced_choiceRT,2021.1.2,MacIntel,60.22282445,h,2.2794,0,0,0,0,1,,,,,,,,,,,,,,,
,,,,,,,,,,,,5f5b0f1be585c32184a4cf35,2021-10-19_11h53.43.118,forced_choiceRT,2021.1.2,MacIntel,60.22282445,g,2.0046,1,0,1,0,1,,,,,,,,,,,,,,,
,,,,,,,,,,,,5f5b0f1be585c32184a4cf35,2021-10-19_11h53.43.118,forced_choiceRT,2021.1.2,MacIntel,60.22282445,h,1.9596,2,0,2,0,1,,,,,,,,,,,,,,,
,,,,,,,,,,,,5f5b0f1be585c32184a4cf35,2021-10-19_11h53.43.118,forced_choiceRT,2021.1.2,MacIntel,60.22282445,f,1.9498,3,0,3,0,1,,,,,,,,,,,,,,,
,,,,,,,,,,,,5f5b0f1be585c32184a4cf35,2021-10-19_11h53.43.118,forced_choiceRT,2021.1.2,MacIntel,60.22282445,j,1.7698,4,0,4,0,1,,,,,,,,,,,,,,,
,,,,,,,,,,,,5f5b0f1be585c32184a4cf35,2021-10-19_11h53.43.118,forced_choiceRT,2021.1.2,MacIntel,60.22282445,g,2.0399,5,0,5,0,1,,,,,,,,,,,,,,,
,,,,,,,,,,,,5f5b0f1be585c32184a4cf35,2021-10-19_11h53.43.118,forced_choiceRT,2021.1.2,MacIntel,60.22282445,j,1.9782,6,0,6,0,1,,,,,,,,,,,,,,,
,,,,,,,,,,,,5f5b0f1be585c32184a4cf35,2021-10-19_11h53.43.118,forced_choiceRT,2021.1.2,MacIntel,60.22282445,h,2.0268,7,0,7,0,1,,,,,,,,,,,,,,,
,,,,,,,,,,,,5f5b0f1be585c32184a4cf35,2021-10-19_11h53.43.118,forced_choiceRT,2021.1.2,MacIntel,60.22282445,g,1.995,8,0,8,0,1,,,,,,,,,,,,,,,
,,,,,,,,,,,,5f5b0f1be585c32184a4cf35,2021-10-19_11h53.43.118,forced_choiceRT,2021.1.2,MacIntel,60.22282445,f,2.0408,9,0,9,0,1,,,,,,,,,,,,,,,
,,,,,,,,,,,,5f5b0f1be585c32184a4cf35,2021-10-19_11h53.43.118,forced_choiceRT,2021.1.2,MacIntel,60.22282445,g,1.9607,10,0,10,0,1,,,,,,,,,,,,,,,
,,,,,,,,,,,,5f5b0f1be585c32184a4cf35,2021-10-19_11h53.43.118,forced_choiceRT,2021.1.2,MacIntel,60.22282445,h,1.6998,11,0,11,0,1,,,,,,,,,,,,,,,
,,,,,,,,,,,,5f5b0f1be585c32184a4cf35,2021-10-19_11h53.43.118,forced_choiceRT,2021.1.2,MacIntel,60.22282445,j,2.0427,12,0,12,0,1,,,,,,,,,,,,,,,
,,,,,,,,,,,,5f5b0f1be585c32184a4cf35,2021-10-19_11h53.43.118,forced_choiceRT,2021.1.2,MacIntel,60.22282445,h,1.9906,13,0,13,0,1,,,,,,,,,,,,,,,
,,,,,,,,,,,,5f5b0f1be585c32184a4cf35,2021-10-19_11h53.43.118,forced_choiceRT,2021.1.2,MacIntel,60.22282445,h,2.0761,14,0,14,0,1,,,,,,,,,,,,,,,
,,,,,,,,,,,,5f5b0f1be585c32184a4cf35,2021-10-19_11h53.43.118,forced_choiceRT,2021.1.2,MacIntel,60.22282445,g,2.0909,15,0,15,0,1,,,,,,,,,,,,,,,
,,,,,,,,,,,,5f5b0f1be585c32184a4cf35,2021-10-19_11h53.43.118,forced_choiceRT,2021.1.2,MacIntel,60.22282445,f,2.0027,16,0,16,0,1,,,,,,,,,,,,,,,
,,,,,,,,,,,,5f5b0f1be585c32184a4cf35,2021-10-19_11h53.43.118,forced_choiceRT,2021.1.2,MacIntel,60.22282445,j,2.0443,17,0,17,0,1,,,,,,,,,,,,,,,
,,,,,,,,,,,,5f5b0f1be585c32184a4cf35,2021-10-19_11h53.43.118,forced_choiceRT,2021.1.2,MacIntel,60.22282445,h,1.8594,18,0,18,0,1,,,,,,,,,,,,,,,
,,,,,,,,,,,,5f5b0f1be585c32184a4cf35,2021-10-19_11h53.43.118,forced_choiceRT,2021.1.2,MacIntel,60.22282445,j,2.0842,19,0,19,0,1,,,,,,,,,,,,,,,
,1.6,,,,,,,,,f.PNG,f,5f5b0f1be585c32184a4cf35,2021-10-19_11h53.43.118,forced_choiceRT,2021.1.2,MacIntel,60.22282445,,,,,,,,1,Ontime,f,1,1.9721,0,0,0,0,1,,,,,
,1.93,,,,,,,,,f.PNG,f,5f5b0f1be585c32184a4cf35,2021-10-19_11h53.43.118,forced_choiceRT,2021.1.2,MacIntel,60.22282445,,,,,,,,1,Slow,h,0,2.3947,0,1,1,0,1,,,,,
,1.46,,,,,,,,,f.PNG,f,5f5b0f1be585c32184a4cf35,2021-10-19_11h53.43.118,forced_choiceRT,2021.1.2,MacIntel,60.22282445,,,,,,,,1,Ontime,g,0,2.0643,0,2,2,0,1,,,,,
,1.87,,,,,,,,,f.PNG,f,5f5b0f1be585c32184a4cf35,2021-10-19_11h53.43.118,forced_choiceRT,2021.1.2,MacIntel,60.22282445,,,,,,,,1,Fast,f,1,1.7902,0,3,3,0,1,,,,,
,0.94,,,,,,,,,j.PNG,j,5f5b0f1be585c32184a4cf35,2021-10-19_11h53.43.118,forced_choiceRT,2021.1.2,MacIntel,60.22282445,,,,,,,,1,Fast,h,0,1.5405,1,0,4,3,1,,,,,
,0.79,,,,,,,,,g.PNG,g,5f5b0f1be585c32184a4cf35,2021-10-19_11h53.43.118,forced_choiceRT,2021.1.2,MacIntel,60.22282445,,,,,,,,1,Fast,f,0,1.7188,1,1,5,1,1,,,,,
,1.73,,,,,,,,,g.PNG,g,5f5b0f1be585c32184a4cf35,2021-10-19_11h53.43.118,forced_choiceRT,2021.1.2,MacIntel,60.22282445,,,,,,,,1,Ontime,g,1,2.0668,1,2,6,1,1,,,,,
,0.56,,,,,,,,,g.PNG,g,5f5b0f1be585c32184a4cf35,2021-10-19_11h53.43.118,forced_choiceRT,2021.1.2,MacIntel,60.22282445,,,,,,,,1,Fast,g,1,1.548,1,3,7,1,1,,,,,
,0,,,,,,,,,f.PNG,f,5f5b0f1be585c32184a4cf35,2021-10-19_11h53.43.118,forced_choiceRT,2021.1.2,MacIntel,60.22282445,,,,,,,,1,Fast,f,1,1.8515,2,0,8,0,1,,,,,
,1.93,,,,,,,,,h.PNG,h,5f5b0f1be585c32184a4cf35,2021-10-19_11h53.43.118,forced_choiceRT,2021.1.2,MacIntel,60.22282445,,,,,,,,1,Slow,f,0,2.4,2,1,9,2,1,,,,,
,1.62,,,,,,,,,h.PNG,h,5f5b0f1be585c32184a4cf35,2021-10-19_11h53.43.118,forced_choiceRT,2021.1.2,MacIntel,60.22282445,,,,,,,,1,Ontime,h,1,2.0505,2,2,10,2,1,,,,,
,0.22,,,,,,,,,j.PNG,j,5f5b0f1be585c32184a4cf35,2021-10-19_11h53.43.118,forced_choiceRT,2021.1.2,MacIntel,60.22282445,,,,,,,,1,Fast,j,1,1.7782,2,3,11,3,1,,,,,
,0.59,,,,,,,,,j.PNG,j,5f5b0f1be585c32184a4cf35,2021-10-19_11h53.43.118,forced_choiceRT,2021.1.2,MacIntel,60.22282445,,,,,,,,1,Ontime,j,1,1.9278,3,0,12,3,1,,,,,
,1.68,,,,,,,,,g.PNG,g,5f5b0f1be585c32184a4cf35,2021-10-19_11h53.43.118,forced_choiceRT,2021.1.2,MacIntel,60.22282445,,,,,,,,1,Slow,f,0,2.1457,3,1,13,1,1,,,,,
,1.15,,,,,,,,,h.PNG,h,5f5b0f1be585c32184a4cf35,2021-10-19_11h53.43.118,forced_choiceRT,2021.1.2,MacIntel,60.22282445,,,,,,,,1,Ontime,h,1,1.9409,3,2,14,2,1,,,,,
,1.5,,,,,,,,,h.PNG,h,5f5b0f1be585c32184a4cf35,2021-10-19_11h53.43.118,forced_choiceRT,2021.1.2,MacIntel,60.22282445,,,,,,,,1,Fast,f,0,1.8519,3,3,15,2,1,,,,,
,1.44,,,,,,,,,j.PNG,j,5f5b0f1be585c32184a4cf35,2021-10-19_11h53.43.118,forced_choiceRT,2021.1.2,MacIntel,60.22282445,,,,,,,,1,Ontime,j,1,2.0372,4,0,16,3,1,,,,,
,1.35,,,,,,,,,j.PNG,j,5f5b0f1be585c32184a4cf35,2021-10-19_11h53.43.118,forced_choiceRT,2021.1.2,MacIntel,60.22282445,,,,,,,,1,Ontime,h,0,2.0224,4,1,17,3,1,,,,,
,1.34,,,,,,,,,j.PNG,j,5f5b0f1be585c32184a4cf35,2021-10-19_11h53.43.118,forced_choiceRT,2021.1.2,MacIntel,60.22282445,,,,,,,,1,Ontime,j,1,2.0864,4,2,18,3,1,,,,,
,0.49,,,,,,,,,f.PNG,f,5f5b0f1be585c32184a4cf35,2021-10-19_11h53.43.118,forced_choiceRT,2021.1.2,MacIntel,60.22282445,,,,,,,,1,Fast,f,1,1.7223,4,3,19,0,1,,,,,
,1.29,,,,,,,,,h.PNG,h,5f5b0f1be585c32184a4cf35,2021-10-19_11h53.43.118,forced_choiceRT,2021.1.2,MacIntel,60.22282445,,,,,,,,1,Ontime,h,1,1.9973,5,0,20,2,1,,,,,
,1.88,,,,,,,,,h.PNG,h,5f5b0f1be585c32184a4cf35,2021-10-19_11h53.43.118,forced_choiceRT,2021.1.2,MacIntel,60.22282445,,,,,,,,1,Slow,g,0,2.2676,5,1,21,2,1,,,,,
,1.26,,,,,,,,,h.PNG,h,5f5b0f1be585c32184a4cf35,2021-10-19_11h53.43.118,forced_choiceRT,2021.1.2,MacIntel,60.22282445,,,,,,,,1,Ontime,h,1,1.9588,5,2,22,2,1,,,,,
,0.67,,,,,,,,,g.PNG,g,5f5b0f1be585c32184a4cf35,2021-10-19_11h53.43.118,forced_choiceRT,2021.1.2,MacIntel,60.22282445,,,,,,,,1,Fast,g,1,1.8459,5,3,23,1,1,,,,,
,1.33,,,,,,,,,f.PNG,f,5f5b0f1be585c32184a4cf35,2021-10-19_11h53.43.118,forced_choiceRT,2021.1.2,MacIntel,60.22282445,,,,,,,,1,Ontime,f,1,2.0249,6,0,24,0,1,,,,,
,0.53,,,,,,,,,h.PNG,h,5f5b0f1be585c32184a4cf35,2021-10-19_11h53.43.118,forced_choiceRT,2021.1.2,MacIntel,60.22282445,,,,,,,,1,Fast,h,1,1.8862,6,1,25,2,1,,,,,
,0.97,,,,,,,,,g.PNG,g,5f5b0f1be585c32184a4cf35,2021-10-19_11h53.43.118,forced_choiceRT,2021.1.2,MacIntel,60.22282445,,,,,,,,1,Ontime,g,1,1.9312,6,2,26,1,1,,,,,
,1.96,,,,,,,,,j.PNG,j,5f5b0f1be585c32184a4cf35,2021-10-19_11h53.43.118,forced_choiceRT,2021.1.2,MacIntel,60.22282445,,,,,,,,1,Slow,h,0,2.19,6,3,27,3,1,,,,,
,0.9,,,,,,,,,j.PNG,j,5f5b0f1be585c32184a4cf35,2021-10-19_11h53.43.118,forced_choiceRT,2021.1.2,MacIntel,60.22282445,,,,,,,,1,Ontime,j,1,1.9635,7,0,28,3,1,,,,,
,0.45,,,,,,,,,j.PNG,j,5f5b0f1be585c32184a4cf35,2021-10-19_11h53.43.118,forced_choiceRT,2021.1.2,MacIntel,60.22282445,,,,,,,,1,Fast,j,1,1.775,7,1,29,3,1,,,,,
,0.69,,,,,,,,,f.PNG,f,5f5b0f1be585c32184a4cf35,2021-10-19_11h53.43.118,forced_choiceRT,2021.1.2,MacIntel,60.22282445,,,,,,,,1,Fast,f,1,1.8625,7,2,30,0,1,,,,,
,0.83,,,,,,,,,j.PNG,j,5f5b0f1be585c32184a4cf35,2021-10-19_11h53.43.118,forced_choiceRT,2021.1.2,MacIntel,60.22282445,,,,,,,,1,Ontime,j,1,1.9852,7,3,31,3,1,,,,,
,0.41,,,,,,,,,g.PNG,g,5f5b0f1be585c32184a4cf35,2021-10-19_11h53.43.118,forced_choiceRT,2021.1.2,MacIntel,60.22282445,,,,,,,,1,Fast,g,1,1.8179,8,0,32,1,1,,,,,
,1.36,,,,,,,,,f.PNG,f,5f5b0f1be585c32184a4cf35,2021-10-19_11h53.43.118,forced_choiceRT,2021.1.2,MacIntel,60.22282445,,,,,,,,1,Ontime,f,1,2.0989,8,1,33,0,1,,,,,
,1.07,,,,,,,,,h.PNG,h,5f5b0f1be585c32184a4cf35,2021-10-19_11h53.43.118,forced_choiceRT,2021.1.2,MacIntel,60.22282445,,,,,,,,1,Ontime,j,0,1.9395,8,2,34,2,1,,,,,
,1.95,,,,,,,,,f.PNG,f,5f5b0f1be585c32184a4cf35,2021-10-19_11h53.43.118,forced_choiceRT,2021.1.2,MacIntel,60.22282445,,,,,,,,1,Slow,h,0,2.2888,8,3,35,0,1,,,,,
,1.97,,,,,,,,,g.PNG,g,5f5b0f1be585c32184a4cf35,2021-10-19_11h53.43.118,forced_choiceRT,2021.1.2,MacIntel,60.22282445,,,,,,,,1,Slow,f,0,2.1658,9,0,36,1,1,,,,,
,1.65,,,,,,,,,g.PNG,g,5f5b0f1be585c32184a4cf35,2021-10-19_11h53.43.118,forced_choiceRT,2021.1.2,MacIntel,60.22282445,,,,,,,,1,Ontime,f,0,2.0193,9,1,37,1,1,,,,,
,1.24,,,,,,,,,g.PNG,g,5f5b0f1be585c32184a4cf35,2021-10-19_11h53.43.118,forced_choiceRT,2021.1.2,MacIntel,60.22282445,,,,,,,,1,Ontime,g,1,1.9807,9,2,38,1,1,,,,,
,1.28,,,,,,,,,h.PNG,h,5f5b0f1be585c32184a4cf35,2021-10-19_11h53.43.118,forced_choiceRT,2021.1.2,MacIntel,60.22282445,,,,,,,,1,Fast,h,1,1.8605,9,3,39,2,1,,,,,
,,,,,,,,,,,,5f5b0f1be585c32184a4cf35,2021-10-19_11h53.43.118,forced_choiceRT,2021.1.2,MacIntel,60.22282445,,,,,,,,,,,,,,,,,,0,0,0,0,1
,0.83,,,,,,,,,g.PNG,g,5f5b0f1be585c32184a4cf35,2021-10-19_11h53.43.118,forced_choiceRT,2021.1.2,MacIntel,60.22282445,,,,,,,,2,Ontime,g,1,1.9618,0,0,0,1,1,,,,,
,1.83,,,,,,,,,h.PNG,h,5f5b0f1be585c32184a4cf35,2021-10-19_11h53.43.118,forced_choiceRT,2021.1.2,MacIntel,60.22282445,,,,,,,,2,Fast,f,0,1.8422,0,1,1,2,1,,,,,
,0.17,,,,,,,,,f.PNG,f,5f5b0f1be585c32184a4cf35,2021-10-19_11h53.43.118,forced_choiceRT,2021.1.2,MacIntel,60.22282445,,,,,,,,2,Ontime,f,1,2.0266,0,2,2,0,1,,,,,
,1.9,,,,,,,,,g.PNG,g,5f5b0f1be585c32184a4cf35,2021-10-19_11h53.43.118,forced_choiceRT,2021.1.2,MacIntel,60.22282445,,,,,,,,2,Slow,h,0,2.1258,0,3,3,1,1,,,,,
,1.33,,,,,,,,,f.PNG,f,5f5b0f1be585c32184a4cf35,2021-10-19_11h53.43.118,forced_choiceRT,2021.1.2,MacIntel,60.22282445,,,,,,,,2,Fast,g,0,1.761,1,0,4,0,1,,,,,
,1.4,,,,,,,,,j.PNG,j,5f5b0f1be585c32184a4cf35,2021-10-19_11h53.43.118,forced_choiceRT,2021.1.2,MacIntel,60.22282445,,,,,,,,2,Slow,h,0,2.1409,1,1,5,3,1,,,,,
,0.12,,,,,,,,,f.PNG,f,5f5b0f1be585c32184a4cf35,2021-10-19_11h53.43.118,forced_choiceRT,2021.1.2,MacIntel,60.22282445,,,,,,,,2,Ontime,f,1,2.0917,1,2,6,0,1,,,,,
,0.75,,,,,,,,,j.PNG,j,5f5b0f1be585c32184a4cf35,2021-10-19_11h53.43.118,forced_choiceRT,2021.1.2,MacIntel,60.22282445,,,,,,,,2,Slow,j,1,2.211,1,3,7,3,1,,,,,
,0.06,,,,,,,,,j.PNG,j,5f5b0f1be585c32184a4cf35,2021-10-19_11h53.43.118,forced_choiceRT,2021.1.2,MacIntel,60.22282445,,,,,,,,2,Ontime,j,1,1.9906,2,0,8,3,1,,,,,
,1.4,,,,,,,,,h.PNG,h,5f5b0f1be585c32184a4cf35,2021-10-19_11h53.43.118,forced_choiceRT,2021.1.2,MacIntel,60.22282445,,,,,,,,2,Ontime,h,1,2.0477,2,1,9,2,1,,,,,
,1.42,,,,,,,,,j.PNG,j,5f5b0f1be585c32184a4cf35,2021-10-19_11h53.43.118,forced_choiceRT,2021.1.2,MacIntel,60.22282445,,,,,,,,2,Slow,h,0,2.1029,2,2,10,3,1,,,,,
,1.34,,,,,,,,,f.PNG,f,5f5b0f1be585c32184a4cf35,2021-10-19_11h53.43.118,forced_choiceRT,2021.1.2,MacIntel,60.22282445,,,,,,,,2,Ontime,f,1,1.9826,2,3,11,0,1,,,,,
,1.01,,,,,,,,,f.PNG,f,5f5b0f1be585c32184a4cf35,2021-10-19_11h53.43.118,forced_choiceRT,2021.1.2,MacIntel,60.22282445,,,,,,,,2,Fast,f,1,1.8153,3,0,12,0,1,,,,,
,1.11,,,,,,,,,f.PNG,f,5f5b0f1be585c32184a4cf35,2021-10-19_11h53.43.118,forced_choiceRT,2021.1.2,MacIntel,60.22282445,,,,,,,,2,Fast,f,1,1.8195,3,1,13,0,1,,,,,
,1.21,,,,,,,,,j.PNG,j,5f5b0f1be585c32184a4cf35,2021-10-19_11h53.43.118,forced_choiceRT,2021.1.2,MacIntel,60.22282445,,,,,,,,2,Ontime,j,1,2.0053,3,2,14,3,1,,,,,
,1.36,,,,,,,,,g.PNG,g,5f5b0f1be585c32184a4cf35,2021-10-19_11h53.43.118,forced_choiceRT,2021.1.2,MacIntel,60.22282445,,,,,,,,2,Ontime,g,1,1.9891,3,3,15,1,1,,,,,
,0.83,,,,,,,,,f.PNG,f,5f5b0f1be585c32184a4cf35,2021-10-19_11h53.43.118,forced_choiceRT,2021.1.2,MacIntel,60.22282445,,,,,,,,2,Fast,f,1,1.7016,4,0,16,0,1,,,,,
,0,,,,,,,,,h.PNG,h,5f5b0f1be585c32184a4cf35,2021-10-19_11h53.43.118,forced_choiceRT,2021.1.2,MacIntel,60.22282445,,,,,,,,2,Fast,h,1,1.0097,4,1,17,2,1,,,,,
,1.71,,,,,,,,,g.PNG,g,5f5b0f1be585c32184a4cf35,2021-10-19_11h53.43.118,forced_choiceRT,2021.1.2,MacIntel,60.22282445,,,,,,,,2,Slow,j,0,2.1077,4,2,18,1,1,,,,,
,0.79,,,,,,,,,g.PNG,g,5f5b0f1be585c32184a4cf35,2021-10-19_11h53.43.118,forced_choiceRT,2021.1.2,MacIntel,60.22282445,,,,,,,,2,Fast,f,0,1.7993,4,3,19,1,1,,,,,
,1.31,,,,,,,,,h.PNG,h,5f5b0f1be585c32184a4cf35,2021-10-19_11h53.43.118,forced_choiceRT,2021.1.2,MacIntel,60.22282445,,,,,,,,2,Ontime,h,1,2.0816,5,0,20,2,1,,,,,
,1.23,,,,,,,,,f.PNG,f,5f5b0f1be585c32184a4cf35,2021-10-19_11h53.43.118,forced_choiceRT,2021.1.2,MacIntel,60.22282445,,,,,,,,2,Ontime,f,1,1.9814,5,1,21,0,1,,,,,
,0.76,,,,,,,,,h.PNG,h,5f5b0f1be585c32184a4cf35,2021-10-19_11h53.43.118,forced_choiceRT,2021.1.2,MacIntel,60.22282445,,,,,,,,2,Fast,h,1,1.6095,5,2,22,2,1,,,,,
,1.91,,,,,,,,,g.PNG,g,5f5b0f1be585c32184a4cf35,2021-10-19_11h53.43.118,forced_choiceRT,2021.1.2,MacIntel,60.22282445,,,,,,,,2,Slow,h,0,7.9621,5,3,23,1,1,,,,,
,1.12,,,,,,,,,g.PNG,g,5f5b0f1be585c32184a4cf35,2021-10-19_11h53.43.118,forced_choiceRT,2021.1.2,MacIntel,60.22282445,,,,,,,,2,Ontime,g,1,2.0583,6,0,24,1,1,,,,,
,1.32,,,,,,,,,j.PNG,j,5f5b0f1be585c32184a4cf35,2021-10-19_11h53.43.118,forced_choiceRT,2021.1.2,MacIntel,60.22282445,,,,,,,,2,Slow,h,0,2.1101,6,1,25,3,1,,,,,
,1.57,,,,,,,,,j.PNG,j,5f5b0f1be585c32184a4cf35,2021-10-19_11h53.43.118,forced_choiceRT,2021.1.2,MacIntel,60.22282445,,,,,,,,2,Ontime,j,1,2.0084,6,2,26,3,1,,,,,
,1,,,,,,,,,g.PNG,g,5f5b0f1be585c32184a4cf35,2021-10-19_11h53.43.118,forced_choiceRT,2021.1.2,MacIntel,60.22282445,,,,,,,,2,Fast,f,0,1.8529,6,3,27,1,1,,,,,
,0.24,,,,,,,,,g.PNG,g,5f5b0f1be585c32184a4cf35,2021-10-19_11h53.43.118,forced_choiceRT,2021.1.2,MacIntel,60.22282445,,,,,,,,2,Fast,g,1,1.8577,7,0,28,1,1,,,,,
,1.98,,,,,,,,,h.PNG,h,5f5b0f1be585c32184a4cf35,2021-10-19_11h53.43.118,forced_choiceRT,2021.1.2,MacIntel,60.22282445,,,,,,,,2,Ontime,g,0,2.0551,7,1,29,2,1,,,,,
,1.47,,,,,,,,,j.PNG,j,5f5b0f1be585c32184a4cf35,2021-10-19_11h53.43.118,forced_choiceRT,2021.1.2,MacIntel,60.22282445,,,,,,,,2,Ontime,h,0,1.9065,7,2,30,3,1,,,,,
,0.03,,,,,,,,,h.PNG,h,5f5b0f1be585c32184a4cf35,2021-10-19_11h53.43.118,forced_choiceRT,2021.1.2,MacIntel,60.22282445,,,,,,,,2,Fast,h,1,1.6823,7,3,31,2,1,,,,,
,0,,,,,,,,,g.PNG,g,5f5b0f1be585c32184a4cf35,2021-10-19_11h53.43.118,forced_choiceRT,2021.1.2,MacIntel,60.22282445,,,,,,,,2,Fast,g,1,1.8551,8,0,32,1,1,,,,,
,0.88,,,,,,,,,h.PNG,h,5f5b0f1be585c32184a4cf35,2021-10-19_11h53.43.118,forced_choiceRT,2021.1.2,MacIntel,60.22282445,,,,,,,,2,Ontime,h,1,1.9246,8,1,33,2,1,,,,,
,0.16,,,,,,,,,f.PNG,f,5f5b0f1be585c32184a4cf35,2021-10-19_11h53.43.118,forced_choiceRT,2021.1.2,MacIntel,60.22282445,,,,,,,,2,Ontime,f,1,1.9716,8,2,34,0,1,,,,,
,0.92,,,,,,,,,j.PNG,j,5f5b0f1be585c32184a4cf35,2021-10-19_11h53.43.118,forced_choiceRT,2021.1.2,MacIntel,60.22282445,,,,,,,,2,Ontime,j,1,1.9582,8,3,35,3,1,,,,,
,1.31,,,,,,,,,f.PNG,f,5f5b0f1be585c32184a4cf35,2021-10-19_11h53.43.118,forced_choiceRT,2021.1.2,MacIntel,60.22282445,,,,,,,,2,Ontime,f,1,1.9963,9,0,36,0,1,,,,,
,0.64,,,,,,,,,h.PNG,h,5f5b0f1be585c32184a4cf35,2021-10-19_11h53.43.118,forced_choiceRT,2021.1.2,MacIntel,60.22282445,,,,,,,,2,Ontime,h,1,1.9778,9,1,37,2,1,,,,,
,1.72,,,,,,,,,j.PNG,j,5f5b0f1be585c32184a4cf35,2021-10-19_11h53.43.118,forced_choiceRT,2021.1.2,MacIntel,60.22282445,,,,,,,,2,Ontime,h,0,2.0461,9,2,38,3,1,,,,,
,0.1,,,,,,,,,h.PNG,h,5f5b0f1be585c32184a4cf35,2021-10-19_11h53.43.118,forced_choiceRT,2021.1.2,MacIntel,60.22282445,,,,,,,,2,Ontime,h,1,1.9318,9,3,39,2,1,,,,,
,,,,,,,,,,,,5f5b0f1be585c32184a4cf35,2021-10-19_11h53.43.118,forced_choiceRT,2021.1.2,MacIntel,60.22282445,,,,,,,,,,,,,,,,,,1,0,1,0,1
,1.16,,,,,,,,,h.PNG,h,5f5b0f1be585c32184a4cf35,2021-10-19_11h53.43.118,forced_choiceRT,2021.1.2,MacIntel,60.22282445,,,,,,,,3,Ontime,h,1,2.0827,0,0,0,2,1,,,,,
,1.51,,,,,,,,,f.PNG,f,5f5b0f1be585c32184a4cf35,2021-10-19_11h53.43.118,forced_choiceRT,2021.1.2,MacIntel,60.22282445,,,,,,,,3,Ontime,j,0,1.9853,0,1,1,0,1,,,,,
,0.14,,,,,,,,,j.PNG,j,5f5b0f1be585c32184a4cf35,2021-10-19_11h53.43.118,forced_choiceRT,2021.1.2,MacIntel,60.22282445,,,,,,,,3,Fast,j,1,1.7637,0,2,2,3,1,,,,,
,0.06,,,,,,,,,g.PNG,g,5f5b0f1be585c32184a4cf35,2021-10-19_11h53.43.118,forced_choiceRT,2021.1.2,MacIntel,60.22282445,,,,,,,,3,Fast,g,1,1.7017,0,3,3,1,1,,,,,
,0.57,,,,,,,,,h.PNG,h,5f5b0f1be585c32184a4cf35,2021-10-19_11h53.43.118,forced_choiceRT,2021.1.2,MacIntel,60.22282445,,,,,,,,3,Ontime,j,0,1.9475,1,0,4,2,1,,,,,
,1.8,,,,,,,,,g.PNG,g,5f5b0f1be585c32184a4cf35,2021-10-19_11h53.43.118,forced_choiceRT,2021.1.2,MacIntel,60.22282445,,,,,,,,3,Slow,g,1,2.1122,1,1,5,1,1,,,,,
,0.94,,,,,,,,,f.PNG,f,5f5b0f1be585c32184a4cf35,2021-10-19_11h53.43.118,forced_choiceRT,2021.1.2,MacIntel,60.22282445,,,,,,,,3,Ontime,f,1,1.9348,1,2,6,0,1,,,,,
,1.06,,,,,,,,,g.PNG,g,5f5b0f1be585c32184a4cf35,2021-10-19_11h53.43.118,forced_choiceRT,2021.1.2,MacIntel,60.22282445,,,,,,,,3,Fast,f,0,1.8358,1,3,7,1,1,,,,,
,0.38,,,,,,,,,g.PNG,g,5f5b0f1be585c32184a4cf35,2021-10-19_11h53.43.118,forced_choiceRT,2021.1.2,MacIntel,60.22282445,,,,,,,,3,Fast,g,1,1.7538,2,0,8,1,1,,,,,
,0.86,,,,,,,,,g.PNG,g,5f5b0f1be585c32184a4cf35,2021-10-19_11h53.43.118,forced_choiceRT,2021.1.2,MacIntel,60.22282445,,,,,,,,3,Fast,g,1,1.8755,2,1,9,1,1,,,,,
,1.07,,,,,,,,,f.PNG,f,5f5b0f1be585c32184a4cf35,2021-10-19_11h53.43.118,forced_choiceRT,2021.1.2,MacIntel,60.22282445,,,,,,,,3,Ontime,f,1,1.93,2,2,10,0,1,,,,,
,1.08,,,,,,,,,h.PNG,h,5f5b0f1be585c32184a4cf35,2021-10-19_11h53.43.118,forced_choiceRT,2021.1.2,MacIntel,60.22282445,,,,,,,,3,Ontime,h,1,1.9929,2,3,11,2,1,,,,,
,0.27,,,,,,,,,f.PNG,f,5f5b0f1be585c32184a4cf35,2021-10-19_11h53.43.118,forced_choiceRT,2021.1.2,MacIntel,60.22282445,,,,,,,,3,Fast,f,1,1.8388,3,0,12,0,1,,,,,
,0.8,,,,,,,,,g.PNG,g,5f5b0f1be585c32184a4cf35,2021-10-19_11h53.43.118,forced_choiceRT,2021.1.2,MacIntel,60.22282445,,,,,,,,3,Ontime,g,1,2.0811,3,1,13,1,1,,,,,
,0.37,,,,,,,,,j.PNG,j,5f5b0f1be585c32184a4cf35,2021-10-19_11h53.43.118,forced_choiceRT,2021.1.2,MacIntel,60.22282445,,,,,,,,3,Ontime,j,1,1.9175,3,2,14,3,1,,,,,
,0.92,,,,,,,,,j.PNG,j,5f5b0f1be585c32184a4cf35,2021-10-19_11h53.43.118,forced_choiceRT,2021.1.2,MacIntel,60.22282445,,,,,,,,3,Ontime,j,1,1.9162,3,3,15,3,1,,,,,
,1.07,,,,,,,,,h.PNG,h,5f5b0f1be585c32184a4cf35,2021-10-19_11h53.43.118,forced_choiceRT,2021.1.2,MacIntel,60.22282445,,,,,,,,3,Ontime,h,1,1.9133,4,0,16,2,1,,,,,
,0.14,,,,,,,,,f.PNG,f,5f5b0f1be585c32184a4cf35,2021-10-19_11h53.43.118,forced_choiceRT,2021.1.2,MacIntel,60.22282445,,,,,,,,3,Fast,f,1,1.6385,4,1,17,0,1,,,,,
,1.09,,,,,,,,,g.PNG,g,5f5b0f1be585c32184a4cf35,2021-10-19_11h53.43.118,forced_choiceRT,2021.1.2,MacIntel,60.22282445,,,,,,,,3,Ontime,j,0,2.0458,4,2,18,1,1,,,,,
,0.87,,,,,,,,,f.PNG,f,5f5b0f1be585c32184a4cf35,2021-10-19_11h53.43.118,forced_choiceRT,2021.1.2,MacIntel,60.22282445,,,,,,,,3,Fast,f,1,1.859,4,3,19,0,1,,,,,
,0.67,,,,,,,,,f.PNG,f,5f5b0f1be585c32184a4cf35,2021-10-19_11h53.43.118,forced_choiceRT,2021.1.2,MacIntel,60.22282445,,,,,,,,3,Ontime,f,1,1.9082,5,0,20,0,1,,,,,
,1.97,,,,,,,,,j.PNG,j,5f5b0f1be585c32184a4cf35,2021-10-19_11h53.43.118,forced_choiceRT,2021.1.2,MacIntel,60.22282445,,,,,,,,3,Ontime,f,0,2.0878,5,1,21,3,1,,,,,
,1.63,,,,,,,,,h.PNG,h,5f5b0f1be585c32184a4cf35,2021-10-19_11h53.43.118,forced_choiceRT,2021.1.2,MacIntel,60.22282445,,,,,,,,3,Slow,h,1,2.3171,5,2,22,2,1,,,,,
,1.7,,,,,,,,,j.PNG,j,5f5b0f1be585c32184a4cf35,2021-10-19_11h53.43.118,forced_choiceRT,2021.1.2,MacIntel,60.22282445,,,,,,,,3,Slow,h,0,2.1595,5,3,23,3,1,,,,,
,0.7,,,,,,,,,f.PNG,f,5f5b0f1be585c32184a4cf35,2021-10-19_11h53.43.118,forced_choiceRT,2021.1.2,MacIntel,60.22282445,,,,,,,,3,Fast,f,1,1.8685,6,0,24,0,1,,,,,
,1.6,,,,,,,,,j.PNG,j,5f5b0f1be585c32184a4cf35,2021-10-19_11h53.43.118,forced_choiceRT,2021.1.2,MacIntel,60.22282445,,,,,,,,3,Ontime,f,0,1.9667,6,1,25,3,1,,,,,
,1.73,,,,,,,,,g.PNG,g,5f5b0f1be585c32184a4cf35,2021-10-19_11h53.43.118,forced_choiceRT,2021.1.2,MacIntel,60.22282445,,,,,,,,3,Ontime,j,0,2.0967,6,2,26,1,1,,,,,
,1.28,,,,,,,,,g.PNG,g,5f5b0f1be585c32184a4cf35,2021-10-19_11h53.43.118,forced_choiceRT,2021.1.2,MacIntel,60.22282445,,,,,,,,3,Ontime,g,1,1.9684,6,3,27,1,1,,,,,
,0.43,,,,,,,,,h.PNG,h,5f5b0f1be585c32184a4cf35,2021-10-19_11h53.43.118,forced_choiceRT,2021.1.2,MacIntel,60.22282445,,,,,,,,3,Ontime,h,1,1.9564,7,0,28,2,1,,,,,
,0.01,,,,,,,,,j.PNG,j,5f5b0f1be585c32184a4cf35,2021-10-19_11h53.43.118,forced_choiceRT,2021.1.2,MacIntel,60.22282445,,,,,,,,3,Ontime,j,1,1.9285,7,1,29,3,1,,,,,
,0.23,,,,,,,,,h.PNG,h,5f5b0f1be585c32184a4cf35,2021-10-19_11h53.43.118,forced_choiceRT,2021.1.2,MacIntel,60.22282445,,,,,,,,3,Ontime,h,1,2.0648,7,2,30,2,1,,,,,
,1.37,,,,,,,,,j.PNG,j,5f5b0f1be585c32184a4cf35,2021-10-19_11h53.43.118,forced_choiceRT,2021.1.2,MacIntel,60.22282445,,,,,,,,3,Ontime,j,1,2.0856,7,3,31,3,1,,,,,
,1.16,,,,,,,,,f.PNG,f,5f5b0f1be585c32184a4cf35,2021-10-19_11h53.43.118,forced_choiceRT,2021.1.2,MacIntel,60.22282445,,,,,,,,3,Ontime,f,1,2.0296,8,0,32,0,1,,,,,
,0.58,,,,,,,,,f.PNG,f,5f5b0f1be585c32184a4cf35,2021-10-19_11h53.43.118,forced_choiceRT,2021.1.2,MacIntel,60.22282445,,,,,,,,3,Ontime,f,1,1.9883,8,1,33,0,1,,,,,
,1.36,,,,,,,,,g.PNG,g,5f5b0f1be585c32184a4cf35,2021-10-19_11h53.43.118,forced_choiceRT,2021.1.2,MacIntel,60.22282445,,,,,,,,3,Ontime,g,1,2.0704,8,2,34,1,1,,,,,
,0.58,,,,,,,,,h.PNG,h,5f5b0f1be585c32184a4cf35,2021-10-19_11h53.43.118,forced_choiceRT,2021.1.2,MacIntel,60.22282445,,,,,,,,3,Ontime,h,1,2.0125,8,3,35,2,1,,,,,
,0.12,,,,,,,,,h.PNG,h,5f5b0f1be585c32184a4cf35,2021-10-19_11h53.43.118,forced_choiceRT,2021.1.2,MacIntel,60.22282445,,,,,,,,3,Ontime,h,1,1.9424,9,0,36,2,1,,,,,
,1.38,,,,,,,,,j.PNG,j,5f5b0f1be585c32184a4cf35,2021-10-19_11h53.43.118,forced_choiceRT,2021.1.2,MacIntel,60.22282445,,,,,,,,3,Ontime,j,1,2.0414,9,1,37,3,1,,,,,
,1.17,,,,,,,,,h.PNG,h,5f5b0f1be585c32184a4cf35,2021-10-19_11h53.43.118,forced_choiceRT,2021.1.2,MacIntel,60.22282445,,,,,,,,3,Ontime,h,1,2.0172,9,2,38,2,1,,,,,
,0.18,,,,,,,,,j.PNG,j,5f5b0f1be585c32184a4cf35,2021-10-19_11h53.43.118,forced_choiceRT,2021.1.2,MacIntel,60.22282445,,,,,,,,3,Fast,j,1,1.8931,9,3,39,3,1,,,,,
,,,,,,,,,,,,5f5b0f1be585c32184a4cf35,2021-10-19_11h53.43.118,forced_choiceRT,2021.1.2,MacIntel,60.22282445,,,,,,,,,,,,,,,,,,2,0,2,0,1
,1.17,,,,,,,,,f.PNG,f,5f5b0f1be585c32184a4cf35,2021-10-19_11h53.43.118,forced_choiceRT,2021.1.2,MacIntel,60.22282445,,,,,,,,4,Slow,f,1,2.2846,0,0,0,0,1,,,,,
,1.67,,,,,,,,,j.PNG,j,5f5b0f1be585c32184a4cf35,2021-10-19_11h53.43.118,forced_choiceRT,2021.1.2,MacIntel,60.22282445,,,,,,,,4,Ontime,g,0,2.0763,0,1,1,3,1,,,,,
,0.48,,,,,,,,,f.PNG,f,5f5b0f1be585c32184a4cf35,2021-10-19_11h53.43.118,forced_choiceRT,2021.1.2,MacIntel,60.22282445,,,,,,,,4,Ontime,f,1,1.9365,0,2,2,0,1,,,,,
,1.35,,,,,,,,,g.PNG,g,5f5b0f1be585c32184a4cf35,2021-10-19_11h53.43.118,forced_choiceRT,2021.1.2,MacIntel,60.22282445,,,,,,,,4,Ontime,h,0,1.9246,0,3,3,1,1,,,,,
,0.95,,,,,,,,,g.PNG,g,5f5b0f1be585c32184a4cf35,2021-10-19_11h53.43.118,forced_choiceRT,2021.1.2,MacIntel,60.22282445,,,,,,,,4,Ontime,g,1,1.9206,1,0,4,1,1,,,,,
,1.12,,,,,,,,,j.PNG,j,5f5b0f1be585c32184a4cf35,2021-10-19_11h53.43.118,forced_choiceRT,2021.1.2,MacIntel,60.22282445,,,,,,,,4,Ontime,j,1,1.9683,1,1,5,3,1,,,,,
,0.95,,,,,,,,,h.PNG,h,5f5b0f1be585c32184a4cf35,2021-10-19_11h53.43.118,forced_choiceRT,2021.1.2,MacIntel,60.22282445,,,,,,,,4,Fast,h,1,1.7916,1,2,6,2,1,,,,,
,0.84,,,,,,,,,j.PNG,j,5f5b0f1be585c32184a4cf35,2021-10-19_11h53.43.118,forced_choiceRT,2021.1.2,MacIntel,60.22282445,,,,,,,,4,Fast,j,1,1.7725,1,3,7,3,1,,,,,
,0.5,,,,,,,,,h.PNG,h,5f5b0f1be585c32184a4cf35,2021-10-19_11h53.43.118,forced_choiceRT,2021.1.2,MacIntel,60.22282445,,,,,,,,4,Ontime,h,1,2.0221,2,0,8,2,1,,,,,
,0.72,,,,,,,,,j.PNG,j,5f5b0f1be585c32184a4cf35,2021-10-19_11h53.43.118,forced_choiceRT,2021.1.2,MacIntel,60.22282445,,,,,,,,4,Ontime,j,1,1.9916,2,1,9,3,1,,,,,
,1.96,,,,,,,,,f.PNG,f,5f5b0f1be585c32184a4cf35,2021-10-19_11h53.43.118,forced_choiceRT,2021.1.2,MacIntel,60.22282445,,,,,,,,4,Slow,g,0,2.2667,2,2,10,0,1,,,,,
,1.05,,,,,,,,,j.PNG,j,5f5b0f1be585c32184a4cf35,2021-10-19_11h53.43.118,forced_choiceRT,2021.1.2,MacIntel,60.22282445,,,,,,,,4,Fast,j,1,1.8893,2,3,11,3,1,,,,,
,0.75,,,,,,,,,h.PNG,h,5f5b0f1be585c32184a4cf35,2021-10-19_11h53.43.118,forced_choiceRT,2021.1.2,MacIntel,60.22282445,,,,,,,,4,Ontime,h,1,2.0418,3,0,12,2,1,,,,,
,1.52,,,,,,,,,g.PNG,g,5f5b0f1be585c32184a4cf35,2021-10-19_11h53.43.118,forced_choiceRT,2021.1.2,MacIntel,60.22282445,,,,,,,,4,Ontime,f,0,1.9464,3,1,13,1,1,,,,,
,0.13,,,,,,,,,g.PNG,g,5f5b0f1be585c32184a4cf35,2021-10-19_11h53.43.118,forced_choiceRT,2021.1.2,MacIntel,60.22282445,,,,,,,,4,Ontime,g,1,1.9283,3,2,14,1,1,,,,,
,1.25,,,,,,,,,f.PNG,f,5f5b0f1be585c32184a4cf35,2021-10-19_11h53.43.118,forced_choiceRT,2021.1.2,MacIntel,60.22282445,,,,,,,,4,Ontime,f,1,2.0183,3,3,15,0,1,,,,,
,0.1,,,,,,,,,f.PNG,f,5f5b0f1be585c32184a4cf35,2021-10-19_11h53.43.118,forced_choiceRT,2021.1.2,MacIntel,60.22282445,,,,,,,,4,Ontime,f,1,2.0176,4,0,16,0,1,,,,,
,0.54,,,,,,,,,h.PNG,h,5f5b0f1be585c32184a4cf35,2021-10-19_11h53.43.118,forced_choiceRT,2021.1.2,MacIntel,60.22282445,,,,,,,,4,Fast,h,1,1.7305,4,1,17,2,1,,,,,
,1.85,,,,,,,,,h.PNG,h,5f5b0f1be585c32184a4cf35,2021-10-19_11h53.43.118,forced_choiceRT,2021.1.2,MacIntel,60.22282445,,,,,,,,4,Ontime,g,0,2.0763,4,2,18,2,1,,,,,
,0.01,,,,,,,,,g.PNG,g,5f5b0f1be585c32184a4cf35,2021-10-19_11h53.43.118,forced_choiceRT,2021.1.2,MacIntel,60.22282445,,,,,,,,4,Ontime,g,1,1.9121,4,3,19,1,1,,,,,
,0.93,,,,,,,,,j.PNG,j,5f5b0f1be585c32184a4cf35,2021-10-19_11h53.43.118,forced_choiceRT,2021.1.2,MacIntel,60.22282445,,,,,,,,4,Fast,j,1,1.8199,5,0,20,3,1,,,,,
,1.02,,,,,,,,,h.PNG,h,5f5b0f1be585c32184a4cf35,2021-10-19_11h53.43.118,forced_choiceRT,2021.1.2,MacIntel,60.22282445,,,,,,,,4,Ontime,h,1,1.9753,5,1,21,2,1,,,,,
,0.47,,,,,,,,,g.PNG,g,5f5b0f1be585c32184a4cf35,2021-10-19_11h53.43.118,forced_choiceRT,2021.1.2,MacIntel,60.22282445,,,,,,,,4,Fast,g,1,1.7809,5,2,22,1,1,,,,,
,1.68,,,,,,,,,j.PNG,j,5f5b0f1be585c32184a4cf35,2021-10-19_11h53.43.118,forced_choiceRT,2021.1.2,MacIntel,60.22282445,,,,,,,,4,Ontime,j,1,2.0572,5,3,23,3,1,,,,,
,1.65,,,,,,,,,f.PNG,f,5f5b0f1be585c32184a4cf35,2021-10-19_11h53.43.118,forced_choiceRT,2021.1.2,MacIntel,60.22282445,,,,,,,,4,Ontime,h,0,2.0787,6,0,24,0,1,,,,,
,1.69,,,,,,,,,j.PNG,j,5f5b0f1be585c32184a4cf35,2021-10-19_11h53.43.118,forced_choiceRT,2021.1.2,MacIntel,60.22282445,,,,,,,,4,Slow,j,1,2.2923,6,1,25,3,1,,,,,
,1.2,,,,,,,,,f.PNG,f,5f5b0f1be585c32184a4cf35,2021-10-19_11h53.43.118,forced_choiceRT,2021.1.2,MacIntel,60.22282445,,,,,,,,4,Slow,f,1,2.1396,6,2,26,0,1,,,,,
,1.04,,,,,,,,,g.PNG,g,5f5b0f1be585c32184a4cf35,2021-10-19_11h53.43.118,forced_choiceRT,2021.1.2,MacIntel,60.22282445,,,,,,,,4,Fast,g,1,1.7769,6,3,27,1,1,,,,,
,1.74,,,,,,,,,h.PNG,h,5f5b0f1be585c32184a4cf35,2021-10-19_11h53.43.118,forced_choiceRT,2021.1.2,MacIntel,60.22282445,,,,,,,,4,Slow,g,0,2.2107,7,0,28,2,1,,,,,
,0.62,,,,,,,,,f.PNG,f,5f5b0f1be585c32184a4cf35,2021-10-19_11h53.43.118,forced_choiceRT,2021.1.2,MacIntel,60.22282445,,,,,,,,4,Ontime,f,1,2.0648,7,1,29,0,1,,,,,
,0.12,,,,,,,,,h.PNG,h,5f5b0f1be585c32184a4cf35,2021-10-19_11h53.43.118,forced_choiceRT,2021.1.2,MacIntel,60.22282445,,,,,,,,4,Fast,h,1,1.7706,7,2,30,2,1,,,,,
,0.85,,,,,,,,,g.PNG,g,5f5b0f1be585c32184a4cf35,2021-10-19_11h53.43.118,forced_choiceRT,2021.1.2,MacIntel,60.22282445,,,,,,,,4,Ontime,g,1,1.9297,7,3,31,1,1,,,,,
,0.82,,,,,,,,,h.PNG,h,5f5b0f1be585c32184a4cf35,2021-10-19_11h53.43.118,forced_choiceRT,2021.1.2,MacIntel,60.22282445,,,,,,,,4,Ontime,h,1,1.954,8,0,32,2,1,,,,,
,1.46,,,,,,,,,g.PNG,g,5f5b0f1be585c32184a4cf35,2021-10-19_11h53.43.118,forced_choiceRT,2021.1.2,MacIntel,60.22282445,,,,,,,,4,Slow,g,1,2.1182,8,1,33,1,1,,,,,
,1.4,,,,,,,,,g.PNG,g,5f5b0f1be585c32184a4cf35,2021-10-19_11h53.43.118,forced_choiceRT,2021.1.2,MacIntel,60.22282445,,,,,,,,4,Fast,g,1,1.8141,8,2,34,1,1,,,,,
,1.42,,,,,,,,,j.PNG,j,5f5b0f1be585c32184a4cf35,2021-10-19_11h53.43.118,forced_choiceRT,2021.1.2,MacIntel,60.22282445,,,,,,,,4,Ontime,h,0,2.0507,8,3,35,3,1,,,,,
,0.84,,,,,,,,,h.PNG,h,5f5b0f1be585c32184a4cf35,2021-10-19_11h53.43.118,forced_choiceRT,2021.1.2,MacIntel,60.22282445,,,,,,,,4,Fast,h,1,1.6344,9,0,36,2,1,,,,,
,1.22,,,,,,,,,f.PNG,f,5f5b0f1be585c32184a4cf35,2021-10-19_11h53.43.118,forced_choiceRT,2021.1.2,MacIntel,60.22282445,,,,,,,,4,Fast,f,1,1.873,9,1,37,0,1,,,,,
,0.81,,,,,,,,,j.PNG,j,5f5b0f1be585c32184a4cf35,2021-10-19_11h53.43.118,forced_choiceRT,2021.1.2,MacIntel,60.22282445,,,,,,,,4,Fast,j,1,1.7297,9,2,38,3,1,,,,,
,0.77,,,,,,,,,f.PNG,f,5f5b0f1be585c32184a4cf35,2021-10-19_11h53.43.118,forced_choiceRT,2021.1.2,MacIntel,60.22282445,,,,,,,,4,Slow,f,1,2.1586,9,3,39,0,1,,,,,
,,,,,,,,,,,,5f5b0f1be585c32184a4cf35,2021-10-19_11h53.43.118,forced_choiceRT,2021.1.2,MacIntel,60.22282445,,,,,,,,,,,,,,,,,,3,0,3,0,1
,1.32,,,,,,,,,j.PNG,j,5f5b0f1be585c32184a4cf35,2021-10-19_11h53.43.118,forced_choiceRT,2021.1.2,MacIntel,60.22282445,,,,,,,,5,Slow,j,1,2.1164,0,0,0,3,1,,,,,
,1.36,,,,,,,,,h.PNG,h,5f5b0f1be585c32184a4cf35,2021-10-19_11h53.43.118,forced_choiceRT,2021.1.2,MacIntel,60.22282445,,,,,,,,5,Ontime,h,1,2.026,0,1,1,2,1,,,,,
,1.6,,,,,,,,,j.PNG,j,5f5b0f1be585c32184a4cf35,2021-10-19_11h53.43.118,forced_choiceRT,2021.1.2,MacIntel,60.22282445,,,,,,,,5,Slow,j,1,2.2017,0,2,2,3,1,,,,,
,0.79,,,,,,,,,h.PNG,h,5f5b0f1be585c32184a4cf35,2021-10-19_11h53.43.118,forced_choiceRT,2021.1.2,MacIntel,60.22282445,,,,,,,,5,Ontime,h,1,1.9512,0,3,3,2,1,,,,,
,1.73,,,,,,,,,h.PNG,h,5f5b0f1be585c32184a4cf35,2021-10-19_11h53.43.118,forced_choiceRT,2021.1.2,MacIntel,60.22282445,,,,,,,,5,Ontime,g,0,2.0834,1,0,4,2,1,,,,,
,0.93,,,,,,,,,f.PNG,f,5f5b0f1be585c32184a4cf35,2021-10-19_11h53.43.118,forced_choiceRT,2021.1.2,MacIntel,60.22282445,,,,,,,,5,Fast,f,1,1.6625,1,1,5,0,1,,,,,
,0.16,,,,,,,,,j.PNG,j,5f5b0f1be585c32184a4cf35,2021-10-19_11h53.43.118,forced_choiceRT,2021.1.2,MacIntel,60.22282445,,,,,,,,5,Fast,j,1,0.8288,1,2,6,3,1,,,,,
,1.71,,,,,,,,,j.PNG,j,5f5b0f1be585c32184a4cf35,2021-10-19_11h53.43.118,forced_choiceRT,2021.1.2,MacIntel,60.22282445,,,,,,,,5,Slow,j,1,2.4198,1,3,7,3,1,,,,,
,1.12,,,,,,,,,g.PNG,g,5f5b0f1be585c32184a4cf35,2021-10-19_11h53.43.118,forced_choiceRT,2021.1.2,MacIntel,60.22282445,,,,,,,,5,Ontime,g,1,2.0296,2,0,8,1,1,,,,,
,0.33,,,,,,,,,f.PNG,f,5f5b0f1be585c32184a4cf35,2021-10-19_11h53.43.118,forced_choiceRT,2021.1.2,MacIntel,60.22282445,,,,,,,,5,Ontime,f,1,2.0151,2,1,9,0,1,,,,,
,0.58,,,,,,,,,j.PNG,j,5f5b0f1be585c32184a4cf35,2021-10-19_11h53.43.118,forced_choiceRT,2021.1.2,MacIntel,60.22282445,,,,,,,,5,Ontime,j,1,1.9525,2,2,10,3,1,,,,,
,1.47,,,,,,,,,h.PNG,h,5f5b0f1be585c32184a4cf35,2021-10-19_11h53.43.118,forced_choiceRT,2021.1.2,MacIntel,60.22282445,,,,,,,,5,Slow,h,1,2.1293,2,3,11,2,1,,,,,
,0.42,,,,,,,,,g.PNG,g,5f5b0f1be585c32184a4cf35,2021-10-19_11h53.43.118,forced_choiceRT,2021.1.2,MacIntel,60.22282445,,,,,,,,5,Fast,g,1,1.8138,3,0,12,1,1,,,,,
,0.25,,,,,,,,,g.PNG,g,5f5b0f1be585c32184a4cf35,2021-10-19_11h53.43.118,forced_choiceRT,2021.1.2,MacIntel,60.22282445,,,,,,,,5,Ontime,g,1,1.9258,3,1,13,1,1,,,,,
,1.94,,,,,,,,,f.PNG,f,5f5b0f1be585c32184a4cf35,2021-10-19_11h53.43.118,forced_choiceRT,2021.1.2,MacIntel,60.22282445,,,,,,,,5,Slow,h,0,2.4521,3,2,14,0,1,,,,,
,0.88,,,,,,,,,j.PNG,j,5f5b0f1be585c32184a4cf35,2021-10-19_11h53.43.118,forced_choiceRT,2021.1.2,MacIntel,60.22282445,,,,,,,,5,Slow,j,1,2.334,3,3,15,3,1,,,,,
,1.94,,,,,,,,,h.PNG,h,5f5b0f1be585c32184a4cf35,2021-10-19_11h53.43.118,forced_choiceRT,2021.1.2,MacIntel,60.22282445,,,,,,,,5,Slow,j,0,2.1643,4,0,16,2,1,,,,,
,0.73,,,,,,,,,h.PNG,h,5f5b0f1be585c32184a4cf35,2021-10-19_11h53.43.118,forced_choiceRT,2021.1.2,MacIntel,60.22282445,,,,,,,,5,Fast,h,1,1.8417,4,1,17,2,1,,,,,
,0.12,,,,,,,,,f.PNG,f,5f5b0f1be585c32184a4cf35,2021-10-19_11h53.43.118,forced_choiceRT,2021.1.2,MacIntel,60.22282445,,,,,,,,5,Ontime,f,1,1.9727,4,2,18,0,1,,,,,
,0.47,,,,,,,,,j.PNG,j,5f5b0f1be585c32184a4cf35,2021-10-19_11h53.43.118,forced_choiceRT,2021.1.2,MacIntel,60.22282445,,,,,,,,5,Ontime,j,1,1.971,4,3,19,3,1,,,,,
,1.19,,,,,,,,,f.PNG,f,5f5b0f1be585c32184a4cf35,2021-10-19_11h53.43.118,forced_choiceRT,2021.1.2,MacIntel,60.22282445,,,,,,,,5,Ontime,f,1,1.9077,5,0,20,0,1,,,,,
,0.99,,,,,,,,,g.PNG,g,5f5b0f1be585c32184a4cf35,2021-10-19_11h53.43.118,forced_choiceRT,2021.1.2,MacIntel,60.22282445,,,,,,,,5,Fast,g,1,1.8672,5,1,21,1,1,,,,,
,1.97,,,,,,,,,h.PNG,h,5f5b0f1be585c32184a4cf35,2021-10-19_11h53.43.118,forced_choiceRT,2021.1.2,MacIntel,60.22282445,,,,,,,,5,Slow,h,1,3.0174,5,2,22,2,1,,,,,
,0.43,,,,,,,,,g.PNG,g,5f5b0f1be585c32184a4cf35,2021-10-19_11h53.43.118,forced_choiceRT,2021.1.2,MacIntel,60.22282445,,,,,,,,5,Ontime,g,1,1.9227,5,3,23,1,1,,,,,
,0.02,,,,,,,,,g.PNG,g,5f5b0f1be585c32184a4cf35,2021-10-19_11h53.43.118,forced_choiceRT,2021.1.2,MacIntel,60.22282445,,,,,,,,5,Ontime,g,1,2.0086,6,0,24,1,1,,,,,
,1.84,,,,,,,,,g.PNG,g,5f5b0f1be585c32184a4cf35,2021-10-19_11h53.43.118,forced_choiceRT,2021.1.2,MacIntel,60.22282445,,,,,,,,5,Slow,g,1,2.3642,6,1,25,1,1,,,,,
,0,,,,,,,,,j.PNG,j,5f5b0f1be585c32184a4cf35,2021-10-19_11h53.43.118,forced_choiceRT,2021.1.2,MacIntel,60.22282445,,,,,,,,5,Ontime,j,1,1.9761,6,2,26,3,1,,,,,
,1.86,,,,,,,,,h.PNG,h,5f5b0f1be585c32184a4cf35,2021-10-19_11h53.43.118,forced_choiceRT,2021.1.2,MacIntel,60.22282445,,,,,,,,5,Ontime,g,0,2.0226,6,3,27,2,1,,,,,
,1.85,,,,,,,,,h.PNG,h,5f5b0f1be585c32184a4cf35,2021-10-19_11h53.43.118,forced_choiceRT,2021.1.2,MacIntel,60.22282445,,,,,,,,5,Slow,h,1,2.277,7,0,28,2,1,,,,,
,0.75,,,,,,,,,j.PNG,j,5f5b0f1be585c32184a4cf35,2021-10-19_11h53.43.118,forced_choiceRT,2021.1.2,MacIntel,60.22282445,,,,,,,,5,Ontime,j,1,2.0337,7,1,29,3,1,,,,,
,0.23,,,,,,,,,f.PNG,f,5f5b0f1be585c32184a4cf35,2021-10-19_11h53.43.118,forced_choiceRT,2021.1.2,MacIntel,60.22282445,,,,,,,,5,Ontime,f,1,1.9298,7,2,30,0,1,,,,,
,1.51,,,,,,,,,g.PNG,g,5f5b0f1be585c32184a4cf35,2021-10-19_11h53.43.118,forced_choiceRT,2021.1.2,MacIntel,60.22282445,,,,,,,,5,Ontime,j,0,1.9859,7,3,31,1,1,,,,,
,0.92,,,,,,,,,f.PNG,f,5f5b0f1be585c32184a4cf35,2021-10-19_11h53.43.118,forced_choiceRT,2021.1.2,MacIntel,60.22282445,,,,,,,,5,Ontime,f,1,1.9212,8,0,32,0,1,,,,,
,1.11,,,,,,,,,f.PNG,f,5f5b0f1be585c32184a4cf35,2021-10-19_11h53.43.118,forced_choiceRT,2021.1.2,MacIntel,60.22282445,,,,,,,,5,Ontime,f,1,1.9799,8,1,33,0,1,,,,,
,0.65,,,,,,,,,g.PNG,g,5f5b0f1be585c32184a4cf35,2021-10-19_11h53.43.118,forced_choiceRT,2021.1.2,MacIntel,60.22282445,,,,,,,,5,Fast,g,1,1.8947,8,2,34,1,1,,,,,
,0.17,,,,,,,,,h.PNG,h,5f5b0f1be585c32184a4cf35,2021-10-19_11h53.43.118,forced_choiceRT,2021.1.2,MacIntel,60.22282445,,,,,,,,5,Fast,h,1,1.8371,8,3,35,2,1,,,,,
,0.62,,,,,,,,,f.PNG,f,5f5b0f1be585c32184a4cf35,2021-10-19_11h53.43.118,forced_choiceRT,2021.1.2,MacIntel,60.22282445,,,,,,,,5,Ontime,f,1,2.0278,9,0,36,0,1,,,,,
,1.6,,,,,,,,,f.PNG,f,5f5b0f1be585c32184a4cf35,2021-10-19_11h53.43.118,forced_choiceRT,2021.1.2,MacIntel,60.22282445,,,,,,,,5,Fast,f,1,1.6381,9,1,37,0,1,,,,,
,1.41,,,,,,,,,j.PNG,j,5f5b0f1be585c32184a4cf35,2021-10-19_11h53.43.118,forced_choiceRT,2021.1.2,MacIntel,60.22282445,,,,,,,,5,Ontime,j,1,1.9959,9,2,38,3,1,,,,,
,0.16,,,,,,,,,g.PNG,g,5f5b0f1be585c32184a4cf35,2021-10-19_11h53.43.118,forced_choiceRT,2021.1.2,MacIntel,60.22282445,,,,,,,,5,Ontime,g,1,1.9853,9,3,39,1,1,,,,,
,,,,,,,,,,,,5f5b0f1be585c32184a4cf35,2021-10-19_11h53.43.118,forced_choiceRT,2021.1.2,MacIntel,60.22282445,,,,,,,,,,,,,,,,,,4,0,4,0,1
,0.24,,,,,,,,,g.PNG,g,5f5b0f1be585c32184a4cf35,2021-10-19_11h53.43.118,forced_choiceRT,2021.1.2,MacIntel,60.22282445,,,,,,,,6,Fast,g,1,1.7703,0,0,0,1,1,,,,,
,0.49,,,,,,,,,f.PNG,f,5f5b0f1be585c32184a4cf35,2021-10-19_11h53.43.118,forced_choiceRT,2021.1.2,MacIntel,60.22282445,,,,,,,,6,Fast,f,1,1.1766,0,1,1,0,1,,,,,
,1.17,,,,,,,,,g.PNG,g,5f5b0f1be585c32184a4cf35,2021-10-19_11h53.43.118,forced_choiceRT,2021.1.2,MacIntel,60.22282445,,,,,,,,6,Fast,g,1,1.8981,0,2,2,1,1,,,,,
,0.1,,,,,,,,,f.PNG,f,5f5b0f1be585c32184a4cf35,2021-10-19_11h53.43.118,forced_choiceRT,2021.1.2,MacIntel,60.22282445,,,,,,,,6,Fast,f,1,1.7916,0,3,3,0,1,,,,,
,0.47,,,,,,,,,j.PNG,j,5f5b0f1be585c32184a4cf35,2021-10-19_11h53.43.118,forced_choiceRT,2021.1.2,MacIntel,60.22282445,,,,,,,,6,Ontime,j,1,2.0137,1,0,4,3,1,,,,,
,0.83,,,,,,,,,g.PNG,g,5f5b0f1be585c32184a4cf35,2021-10-19_11h53.43.118,forced_choiceRT,2021.1.2,MacIntel,60.22282445,,,,,,,,6,Ontime,g,1,2.0391,1,1,5,1,1,,,,,
,0.25,,,,,,,,,g.PNG,g,5f5b0f1be585c32184a4cf35,2021-10-19_11h53.43.118,forced_choiceRT,2021.1.2,MacIntel,60.22282445,,,,,,,,6,Ontime,g,1,1.9312,1,2,6,1,1,,,,,
,1.71,,,,,,,,,f.PNG,f,5f5b0f1be585c32184a4cf35,2021-10-19_11h53.43.118,forced_choiceRT,2021.1.2,MacIntel,60.22282445,,,,,,,,6,Ontime,g,0,2.0092,1,3,7,0,1,,,,,
,1.13,,,,,,,,,f.PNG,f,5f5b0f1be585c32184a4cf35,2021-10-19_11h53.43.118,forced_choiceRT,2021.1.2,MacIntel,60.22282445,,,,,,,,6,Ontime,f,1,2.0322,2,0,8,0,1,,,,,
,1.35,,,,,,,,,f.PNG,f,5f5b0f1be585c32184a4cf35,2021-10-19_11h53.43.118,forced_choiceRT,2021.1.2,MacIntel,60.22282445,,,,,,,,6,Ontime,f,1,1.9578,2,1,9,0,1,,,,,
,0.79,,,,,,,,,f.PNG,f,5f5b0f1be585c32184a4cf35,2021-10-19_11h53.43.118,forced_choiceRT,2021.1.2,MacIntel,60.22282445,,,,,,,,6,Ontime,f,1,2.0066,2,2,10,0,1,,,,,
,1.03,,,,,,,,,h.PNG,h,5f5b0f1be585c32184a4cf35,2021-10-19_11h53.43.118,forced_choiceRT,2021.1.2,MacIntel,60.22282445,,,,,,,,6,Fast,j,0,1.867,2,3,11,2,1,,,,,
,0.21,,,,,,,,,j.PNG,j,5f5b0f1be585c32184a4cf35,2021-10-19_11h53.43.118,forced_choiceRT,2021.1.2,MacIntel,60.22282445,,,,,,,,6,Fast,j,1,1.7844,3,0,12,3,1,,,,,
,1.98,,,,,,,,,h.PNG,h,5f5b0f1be585c32184a4cf35,2021-10-19_11h53.43.118,forced_choiceRT,2021.1.2,MacIntel,60.22282445,,,,,,,,6,Slow,h,1,2.1125,3,1,13,2,1,,,,,
,0.21,,,,,,,,,h.PNG,h,5f5b0f1be585c32184a4cf35,2021-10-19_11h53.43.118,forced_choiceRT,2021.1.2,MacIntel,60.22282445,,,,,,,,6,Ontime,h,1,1.9407,3,2,14,2,1,,,,,
,1.21,,,,,,,,,j.PNG,j,5f5b0f1be585c32184a4cf35,2021-10-19_11h53.43.118,forced_choiceRT,2021.1.2,MacIntel,60.22282445,,,,,,,,6,Ontime,h,0,2.0998,3,3,15,3,1,,,,,
,0.35,,,,,,,,,g.PNG,g,5f5b0f1be585c32184a4cf35,2021-10-19_11h53.43.118,forced_choiceRT,2021.1.2,MacIntel,60.22282445,,,,,,,,6,Fast,g,1,1.8717,4,0,16,1,1,,,,,
,1.46,,,,,,,,,g.PNG,g,5f5b0f1be585c32184a4cf35,2021-10-19_11h53.43.118,forced_choiceRT,2021.1.2,MacIntel,60.22282445,,,,,,,,6,Ontime,g,1,1.9839,4,1,17,1,1,,,,,
,1.29,,,,,,,,,j.PNG,j,5f5b0f1be585c32184a4cf35,2021-10-19_11h53.43.118,forced_choiceRT,2021.1.2,MacIntel,60.22282445,,,,,,,,6,Fast,g,0,1.8038,4,2,18,3,1,,,,,
,1.56,,,,,,,,,j.PNG,j,5f5b0f1be585c32184a4cf35,2021-10-19_11h53.43.118,forced_choiceRT,2021.1.2,MacIntel,60.22282445,,,,,,,,6,Ontime,h,0,2.0316,4,3,19,3,1,,,,,
,1.88,,,,,,,,,j.PNG,j,5f5b0f1be585c32184a4cf35,2021-10-19_11h53.43.118,forced_choiceRT,2021.1.2,MacIntel,60.22282445,,,,,,,,6,Slow,f,0,2.1151,5,0,20,3,1,,,,,
,0.92,,,,,,,,,f.PNG,f,5f5b0f1be585c32184a4cf35,2021-10-19_11h53.43.118,forced_choiceRT,2021.1.2,MacIntel,60.22282445,,,,,,,,6,Slow,f,1,2.117,5,1,21,0,1,,,,,
,0.81,,,,,,,,,g.PNG,g,5f5b0f1be585c32184a4cf35,2021-10-19_11h53.43.118,forced_choiceRT,2021.1.2,MacIntel,60.22282445,,,,,,,,6,Fast,g,1,1.6699,5,2,22,1,1,,,,,
,0.86,,,,,,,,,h.PNG,h,5f5b0f1be585c32184a4cf35,2021-10-19_11h53.43.118,forced_choiceRT,2021.1.2,MacIntel,60.22282445,,,,,,,,6,Ontime,h,1,2.0759,5,3,23,2,1,,,,,
,0.37,,,,,,,,,h.PNG,h,5f5b0f1be585c32184a4cf35,2021-10-19_11h53.43.118,forced_choiceRT,2021.1.2,MacIntel,60.22282445,,,,,,,,6,Fast,h,1,1.8822,6,0,24,2,1,,,,,
,0.24,,,,,,,,,h.PNG,h,5f5b0f1be585c32184a4cf35,2021-10-19_11h53.43.118,forced_choiceRT,2021.1.2,MacIntel,60.22282445,,,,,,,,6,Ontime,h,1,2.0554,6,1,25,2,1,,,,,
,1.36,,,,,,,,,g.PNG,g,5f5b0f1be585c32184a4cf35,2021-10-19_11h53.43.118,forced_choiceRT,2021.1.2,MacIntel,60.22282445,,,,,,,,6,Ontime,g,1,2.0081,6,2,26,1,1,,,,,
,0.56,,,,,,,,,j.PNG,j,5f5b0f1be585c32184a4cf35,2021-10-19_11h53.43.118,forced_choiceRT,2021.1.2,MacIntel,60.22282445,,,,,,,,6,Ontime,j,1,1.9674,6,3,27,3,1,,,,,
,0.3,,,,,,,,,j.PNG,j,5f5b0f1be585c32184a4cf35,2021-10-19_11h53.43.118,forced_choiceRT,2021.1.2,MacIntel,60.22282445,,,,,,,,6,Ontime,j,1,2.0715,7,0,28,3,1,,,,,
,1.06,,,,,,,,,h.PNG,h,5f5b0f1be585c32184a4cf35,2021-10-19_11h53.43.118,forced_choiceRT,2021.1.2,MacIntel,60.22282445,,,,,,,,6,Slow,h,1,2.2105,7,1,29,2,1,,,,,
,0.18,,,,,,,,,f.PNG,f,5f5b0f1be585c32184a4cf35,2021-10-19_11h53.43.118,forced_choiceRT,2021.1.2,MacIntel,60.22282445,,,,,,,,6,Fast,f,1,1.6089,7,2,30,0,1,,,,,
,1.68,,,,,,,,,f.PNG,f,5f5b0f1be585c32184a4cf35,2021-10-19_11h53.43.118,forced_choiceRT,2021.1.2,MacIntel,60.22282445,,,,,,,,6,Ontime,f,1,2.0173,7,3,31,0,1,,,,,
,0.33,,,,,,,,,h.PNG,h,5f5b0f1be585c32184a4cf35,2021-10-19_11h53.43.118,forced_choiceRT,2021.1.2,MacIntel,60.22282445,,,,,,,,6,Fast,h,1,1.7955,8,0,32,2,1,,,,,
,0.6,,,,,,,,,g.PNG,g,5f5b0f1be585c32184a4cf35,2021-10-19_11h53.43.118,forced_choiceRT,2021.1.2,MacIntel,60.22282445,,,,,,,,6,Ontime,g,1,1.9486,8,1,33,1,1,,,,,
,0.17,,,,,,,,,j.PNG,j,5f5b0f1be585c32184a4cf35,2021-10-19_11h53.43.118,forced_choiceRT,2021.1.2,MacIntel,60.22282445,,,,,,,,6,Fast,j,1,1.7704,8,2,34,3,1,,,,,
,1.55,,,,,,,,,j.PNG,j,5f5b0f1be585c32184a4cf35,2021-10-19_11h53.43.118,forced_choiceRT,2021.1.2,MacIntel,60.22282445,,,,,,,,6,Ontime,h,0,2.0561,8,3,35,3,1,,,,,
,1.07,,,,,,,,,f.PNG,f,5f5b0f1be585c32184a4cf35,2021-10-19_11h53.43.118,forced_choiceRT,2021.1.2,MacIntel,60.22282445,,,,,,,,6,Ontime,f,1,2.0698,9,0,36,0,1,,,,,
,1.18,,,,,,,,,h.PNG,h,5f5b0f1be585c32184a4cf35,2021-10-19_11h53.43.118,forced_choiceRT,2021.1.2,MacIntel,60.22282445,,,,,,,,6,Ontime,h,1,2.0885,9,1,37,2,1,,,,,
,0.11,,,,,,,,,g.PNG,g,5f5b0f1be585c32184a4cf35,2021-10-19_11h53.43.118,forced_choiceRT,2021.1.2,MacIntel,60.22282445,,,,,,,,6,Fast,g,1,1.5389,9,2,38,1,1,,,,,
,1.39,,,,,,,,,h.PNG,h,5f5b0f1be585c32184a4cf35,2021-10-19_11h53.43.118,forced_choiceRT,2021.1.2,MacIntel,60.22282445,,,,,,,,6,Slow,h,1,2.2175,9,3,39,2,1,,,,,
,,,,,,,,,,,,5f5b0f1be585c32184a4cf35,2021-10-19_11h53.43.118,forced_choiceRT,2021.1.2,MacIntel,60.22282445,,,,,,,,,,,,,,,,,,5,0,5,0,1
,1.61,,,,,,,,,j.PNG,j,5f5b0f1be585c32184a4cf35,2021-10-19_11h53.43.118,forced_choiceRT,2021.1.2,MacIntel,60.22282445,,,,,,,,7,Slow,h,0,2.2069,0,0,0,3,1,,,,,
,1.2,,,,,,,,,g.PNG,g,5f5b0f1be585c32184a4cf35,2021-10-19_11h53.43.118,forced_choiceRT,2021.1.2,MacIntel,60.22282445,,,,,,,,7,Ontime,g,1,2.0176,0,1,1,1,1,,,,,
,1.29,,,,,,,,,h.PNG,h,5f5b0f1be585c32184a4cf35,2021-10-19_11h53.43.118,forced_choiceRT,2021.1.2,MacIntel,60.22282445,,,,,,,,7,Ontime,h,1,2.0367,0,2,2,2,1,,,,,
,1.01,,,,,,,,,g.PNG,g,5f5b0f1be585c32184a4cf35,2021-10-19_11h53.43.118,forced_choiceRT,2021.1.2,MacIntel,60.22282445,,,,,,,,7,Fast,g,1,1.6975,0,3,3,1,1,,,,,
,0.81,,,,,,,,,h.PNG,h,5f5b0f1be585c32184a4cf35,2021-10-19_11h53.43.118,forced_choiceRT,2021.1.2,MacIntel,60.22282445,,,,,,,,7,Ontime,h,1,1.9047,1,0,4,2,1,,,,,
,1.82,,,,,,,,,j.PNG,j,5f5b0f1be585c32184a4cf35,2021-10-19_11h53.43.118,forced_choiceRT,2021.1.2,MacIntel,60.22282445,,,,,,,,7,Slow,g,0,2.1418,1,1,5,3,1,,,,,
,0.57,,,,,,,,,f.PNG,f,5f5b0f1be585c32184a4cf35,2021-10-19_11h53.43.118,forced_choiceRT,2021.1.2,MacIntel,60.22282445,,,,,,,,7,Ontime,f,1,1.9964,1,2,6,0,1,,,,,
,0.52,,,,,,,,,g.PNG,g,5f5b0f1be585c32184a4cf35,2021-10-19_11h53.43.118,forced_choiceRT,2021.1.2,MacIntel,60.22282445,,,,,,,,7,Ontime,g,1,2.0419,1,3,7,1,1,,,,,
,1.83,,,,,,,,,f.PNG,f,5f5b0f1be585c32184a4cf35,2021-10-19_11h53.43.118,forced_choiceRT,2021.1.2,MacIntel,60.22282445,,,,,,,,7,Ontime,h,0,2.0962,2,0,8,0,1,,,,,
,0.98,,,,,,,,,h.PNG,h,5f5b0f1be585c32184a4cf35,2021-10-19_11h53.43.118,forced_choiceRT,2021.1.2,MacIntel,60.22282445,,,,,,,,7,Ontime,h,1,2.0326,2,1,9,2,1,,,,,
,0.56,,,,,,,,,j.PNG,j,5f5b0f1be585c32184a4cf35,2021-10-19_11h53.43.118,forced_choiceRT,2021.1.2,MacIntel,60.22282445,,,,,,,,7,Ontime,j,1,1.9217,2,2,10,3,1,,,,,
,0.79,,,,,,,,,g.PNG,g,5f5b0f1be585c32184a4cf35,2021-10-19_11h53.43.118,forced_choiceRT,2021.1.2,MacIntel,60.22282445,,,,,,,,7,Slow,g,1,2.1328,2,3,11,1,1,,,,,
,1.58,,,,,,,,,f.PNG,f,5f5b0f1be585c32184a4cf35,2021-10-19_11h53.43.118,forced_choiceRT,2021.1.2,MacIntel,60.22282445,,,,,,,,7,Ontime,g,0,1.9828,3,0,12,0,1,,,,,
,1.08,,,,,,,,,h.PNG,h,5f5b0f1be585c32184a4cf35,2021-10-19_11h53.43.118,forced_choiceRT,2021.1.2,MacIntel,60.22282445,,,,,,,,7,Ontime,h,1,2.055,3,1,13,2,1,,,,,
,1.29,,,,,,,,,g.PNG,g,5f5b0f1be585c32184a4cf35,2021-10-19_11h53.43.118,forced_choiceRT,2021.1.2,MacIntel,60.22282445,,,,,,,,7,Ontime,g,1,2.0697,3,2,14,1,1,,,,,
,0.27,,,,,,,,,g.PNG,g,5f5b0f1be585c32184a4cf35,2021-10-19_11h53.43.118,forced_choiceRT,2021.1.2,MacIntel,60.22282445,,,,,,,,7,Ontime,g,1,2.0243,3,3,15,1,1,,,,,
,0.2,,,,,,,,,f.PNG,f,5f5b0f1be585c32184a4cf35,2021-10-19_11h53.43.118,forced_choiceRT,2021.1.2,MacIntel,60.22282445,,,,,,,,7,Ontime,f,1,1.9373,4,0,16,0,1,,,,,
,1.07,,,,,,,,,f.PNG,f,5f5b0f1be585c32184a4cf35,2021-10-19_11h53.43.118,forced_choiceRT,2021.1.2,MacIntel,60.22282445,,,,,,,,7,Ontime,f,1,2.0036,4,1,17,0,1,,,,,
,1.16,,,,,,,,,h.PNG,h,5f5b0f1be585c32184a4cf35,2021-10-19_11h53.43.118,forced_choiceRT,2021.1.2,MacIntel,60.22282445,,,,,,,,7,Ontime,h,1,2.0383,4,2,18,2,1,,,,,
,1.36,,,,,,,,,j.PNG,j,5f5b0f1be585c32184a4cf35,2021-10-19_11h53.43.118,forced_choiceRT,2021.1.2,MacIntel,60.22282445,,,,,,,,7,Ontime,j,1,2.0774,4,3,19,3,1,,,,,
,1.6,,,,,,,,,f.PNG,f,5f5b0f1be585c32184a4cf35,2021-10-19_11h53.43.118,forced_choiceRT,2021.1.2,MacIntel,60.22282445,,,,,,,,7,Slow,f,1,2.194,5,0,20,0,1,,,,,
,0.32,,,,,,,,,g.PNG,g,5f5b0f1be585c32184a4cf35,2021-10-19_11h53.43.118,forced_choiceRT,2021.1.2,MacIntel,60.22282445,,,,,,,,7,Fast,g,1,1.31,5,1,21,1,1,,,,,
,1.21,,,,,,,,,g.PNG,g,5f5b0f1be585c32184a4cf35,2021-10-19_11h53.43.118,forced_choiceRT,2021.1.2,MacIntel,60.22282445,,,,,,,,7,Ontime,g,1,1.9401,5,2,22,1,1,,,,,
,0,,,,,,,,,h.PNG,h,5f5b0f1be585c32184a4cf35,2021-10-19_11h53.43.118,forced_choiceRT,2021.1.2,MacIntel,60.22282445,,,,,,,,7,Ontime,h,1,2.0409,5,3,23,2,1,,,,,
,0.52,,,,,,,,,f.PNG,f,5f5b0f1be585c32184a4cf35,2021-10-19_11h53.43.118,forced_choiceRT,2021.1.2,MacIntel,60.22282445,,,,,,,,7,Ontime,f,1,1.9778,6,0,24,0,1,,,,,
,0.84,,,,,,,,,h.PNG,h,5f5b0f1be585c32184a4cf35,2021-10-19_11h53.43.118,forced_choiceRT,2021.1.2,MacIntel,60.22282445,,,,,,,,7,Ontime,h,1,1.9498,6,1,25,2,1,,,,,
,0.96,,,,,,,,,j.PNG,j,5f5b0f1be585c32184a4cf35,2021-10-19_11h53.43.118,forced_choiceRT,2021.1.2,MacIntel,60.22282445,,,,,,,,7,Fast,j,1,1.8969,6,2,26,3,1,,,,,
,1.65,,,,,,,,,h.PNG,h,5f5b0f1be585c32184a4cf35,2021-10-19_11h53.43.118,forced_choiceRT,2021.1.2,MacIntel,60.22282445,,,,,,,,7,Slow,f,0,2.1364,6,3,27,2,1,,,,,
,1.53,,,,,,,,,j.PNG,j,5f5b0f1be585c32184a4cf35,2021-10-19_11h53.43.118,forced_choiceRT,2021.1.2,MacIntel,60.22282445,,,,,,,,7,Slow,j,1,2.1978,7,0,28,3,1,,,,,
,1.2,,,,,,,,,j.PNG,j,5f5b0f1be585c32184a4cf35,2021-10-19_11h53.43.118,forced_choiceRT,2021.1.2,MacIntel,60.22282445,,,,,,,,7,Ontime,j,1,1.9362,7,1,29,3,1,,,,,
,0.47,,,,,,,,,h.PNG,h,5f5b0f1be585c32184a4cf35,2021-10-19_11h53.43.118,forced_choiceRT,2021.1.2,MacIntel,60.22282445,,,,,,,,7,Ontime,h,1,1.9723,7,2,30,2,1,,,,,
,0.76,,,,,,,,,f.PNG,f,5f5b0f1be585c32184a4cf35,2021-10-19_11h53.43.118,forced_choiceRT,2021.1.2,MacIntel,60.22282445,,,,,,,,7,Ontime,f,1,2.0738,7,3,31,0,1,,,,,
,0.35,,,,,,,,,f.PNG,f,5f5b0f1be585c32184a4cf35,2021-10-19_11h53.43.118,forced_choiceRT,2021.1.2,MacIntel,60.22282445,,,,,,,,7,Fast,f,1,1.8999,8,0,32,0,1,,,,,
,1.31,,,,,,,,,g.PNG,g,5f5b0f1be585c32184a4cf35,2021-10-19_11h53.43.118,forced_choiceRT,2021.1.2,MacIntel,60.22282445,,,,,,,,7,Ontime,g,1,2.0033,8,1,33,1,1,,,,,
,1.86,,,,,,,,,j.PNG,j,5f5b0f1be585c32184a4cf35,2021-10-19_11h53.43.118,forced_choiceRT,2021.1.2,MacIntel,60.22282445,,,,,,,,7,Slow,h,0,2.1987,8,2,34,3,1,,,,,
,1.97,,,,,,,,,f.PNG,f,5f5b0f1be585c32184a4cf35,2021-10-19_11h53.43.118,forced_choiceRT,2021.1.2,MacIntel,60.22282445,,,,,,,,7,Ontime,j,0,2.0611,8,3,35,0,1,,,,,
,0.15,,,,,,,,,h.PNG,h,5f5b0f1be585c32184a4cf35,2021-10-19_11h53.43.118,forced_choiceRT,2021.1.2,MacIntel,60.22282445,,,,,,,,7,Ontime,h,1,2.0281,9,0,36,2,1,,,,,
,1.72,,,,,,,,,g.PNG,g,5f5b0f1be585c32184a4cf35,2021-10-19_11h53.43.118,forced_choiceRT,2021.1.2,MacIntel,60.22282445,,,,,,,,7,Ontime,j,0,2.0723,9,1,37,1,1,,,,,
,0.65,,,,,,,,,j.PNG,j,5f5b0f1be585c32184a4cf35,2021-10-19_11h53.43.118,forced_choiceRT,2021.1.2,MacIntel,60.22282445,,,,,,,,7,Ontime,j,1,2.0149,9,2,38,3,1,,,,,
,1.23,,,,,,,,,j.PNG,j,5f5b0f1be585c32184a4cf35,2021-10-19_11h53.43.118,forced_choiceRT,2021.1.2,MacIntel,60.22282445,,,,,,,,7,Ontime,j,1,2.087,9,3,39,3,1,,,,,
,,,,,,,,,,,,5f5b0f1be585c32184a4cf35,2021-10-19_11h53.43.118,forced_choiceRT,2021.1.2,MacIntel,60.22282445,,,,,,,,,,,,,,,,,,6,0,6,0,1
,0.9,,,,,,,,,j.PNG,j,5f5b0f1be585c32184a4cf35,2021-10-19_11h53.43.118,forced_choiceRT,2021.1.2,MacIntel,60.22282445,,,,,,,,8,Ontime,j,1,2.0278,0,0,0,3,1,,,,,
,1.25,,,,,,,,,j.PNG,j,5f5b0f1be585c32184a4cf35,2021-10-19_11h53.43.118,forced_choiceRT,2021.1.2,MacIntel,60.22282445,,,,,,,,8,Ontime,j,1,1.9906,0,1,1,3,1,,,,,
,0.97,,,,,,,,,g.PNG,g,5f5b0f1be585c32184a4cf35,2021-10-19_11h53.43.118,forced_choiceRT,2021.1.2,MacIntel,60.22282445,,,,,,,,8,Fast,g,1,1.7883,0,2,2,1,1,,,,,
,1.97,,,,,,,,,f.PNG,f,5f5b0f1be585c32184a4cf35,2021-10-19_11h53.43.118,forced_choiceRT,2021.1.2,MacIntel,60.22282445,,,,,,,,8,Ontime,j,0,1.9378,0,3,3,0,1,,,,,
,0.28,,,,,,,,,g.PNG,g,5f5b0f1be585c32184a4cf35,2021-10-19_11h53.43.118,forced_choiceRT,2021.1.2,MacIntel,60.22282445,,,,,,,,8,Ontime,g,1,1.9457,1,0,4,1,1,,,,,
,1.24,,,,,,,,,h.PNG,h,5f5b0f1be585c32184a4cf35,2021-10-19_11h53.43.118,forced_choiceRT,2021.1.2,MacIntel,60.22282445,,,,,,,,8,Ontime,h,1,1.9556,1,1,5,2,1,,,,,
,0.29,,,,,,,,,j.PNG,j,5f5b0f1be585c32184a4cf35,2021-10-19_11h53.43.118,forced_choiceRT,2021.1.2,MacIntel,60.22282445,,,,,,,,8,Ontime,j,1,1.9844,1,2,6,3,1,,,,,
,1.13,,,,,,,,,h.PNG,h,5f5b0f1be585c32184a4cf35,2021-10-19_11h53.43.118,forced_choiceRT,2021.1.2,MacIntel,60.22282445,,,,,,,,8,Ontime,h,1,1.9853,1,3,7,2,1,,,,,
,1.09,,,,,,,,,f.PNG,f,5f5b0f1be585c32184a4cf35,2021-10-19_11h53.43.118,forced_choiceRT,2021.1.2,MacIntel,60.22282445,,,,,,,,8,Ontime,f,1,1.9983,2,0,8,0,1,,,,,
,1.11,,,,,,,,,g.PNG,g,5f5b0f1be585c32184a4cf35,2021-10-19_11h53.43.118,forced_choiceRT,2021.1.2,MacIntel,60.22282445,,,,,,,,8,Ontime,g,1,1.9809,2,1,9,1,1,,,,,
,0.38,,,,,,,,,f.PNG,f,5f5b0f1be585c32184a4cf35,2021-10-19_11h53.43.118,forced_choiceRT,2021.1.2,MacIntel,60.22282445,,,,,,,,8,Ontime,f,1,2.0444,2,2,10,0,1,,,,,
,0.85,,,,,,,,,g.PNG,g,5f5b0f1be585c32184a4cf35,2021-10-19_11h53.43.118,forced_choiceRT,2021.1.2,MacIntel,60.22282445,,,,,,,,8,Slow,g,1,2.2175,2,3,11,1,1,,,,,
,0.69,,,,,,,,,g.PNG,g,5f5b0f1be585c32184a4cf35,2021-10-19_11h53.43.118,forced_choiceRT,2021.1.2,MacIntel,60.22282445,,,,,,,,8,Ontime,g,1,1.9291,3,0,12,1,1,,,,,
,0.01,,,,,,,,,h.PNG,h,5f5b0f1be585c32184a4cf35,2021-10-19_11h53.43.118,forced_choiceRT,2021.1.2,MacIntel,60.22282445,,,,,,,,8,Ontime,h,1,1.9563,3,1,13,2,1,,,,,
,0.63,,,,,,,,,f.PNG,f,5f5b0f1be585c32184a4cf35,2021-10-19_11h53.43.118,forced_choiceRT,2021.1.2,MacIntel,60.22282445,,,,,,,,8,Ontime,f,1,2.0407,3,2,14,0,1,,,,,
,0.39,,,,,,,,,j.PNG,j,5f5b0f1be585c32184a4cf35,2021-10-19_11h53.43.118,forced_choiceRT,2021.1.2,MacIntel,60.22282445,,,,,,,,8,Ontime,j,1,2.0222,3,3,15,3,1,,,,,
,0.15,,,,,,,,,h.PNG,h,5f5b0f1be585c32184a4cf35,2021-10-19_11h53.43.118,forced_choiceRT,2021.1.2,MacIntel,60.22282445,,,,,,,,8,Ontime,h,1,1.9746,4,0,16,2,1,,,,,
,1.13,,,,,,,,,j.PNG,j,5f5b0f1be585c32184a4cf35,2021-10-19_11h53.43.118,forced_choiceRT,2021.1.2,MacIntel,60.22282445,,,,,,,,8,Ontime,j,1,1.9699,4,1,17,3,1,,,,,
,1.48,,,,,,,,,f.PNG,f,5f5b0f1be585c32184a4cf35,2021-10-19_11h53.43.118,forced_choiceRT,2021.1.2,MacIntel,60.22282445,,,,,,,,8,Slow,f,1,2.1033,4,2,18,0,1,,,,,
,1.42,,,,,,,,,j.PNG,j,5f5b0f1be585c32184a4cf35,2021-10-19_11h53.43.118,forced_choiceRT,2021.1.2,MacIntel,60.22282445,,,,,,,,8,Fast,j,1,1.8408,4,3,19,3,1,,,,,
,0.36,,,,,,,,,f.PNG,f,5f5b0f1be585c32184a4cf35,2021-10-19_11h53.43.118,forced_choiceRT,2021.1.2,MacIntel,60.22282445,,,,,,,,8,Ontime,f,1,1.9515,5,0,20,0,1,,,,,
,0.11,,,,,,,,,g.PNG,g,5f5b0f1be585c32184a4cf35,2021-10-19_11h53.43.118,forced_choiceRT,2021.1.2,MacIntel,60.22282445,,,,,,,,8,Ontime,g,1,1.9826,5,1,21,1,1,,,,,
,0.86,,,,,,,,,h.PNG,h,5f5b0f1be585c32184a4cf35,2021-10-19_11h53.43.118,forced_choiceRT,2021.1.2,MacIntel,60.22282445,,,,,,,,8,Ontime,h,1,1.9466,5,2,22,2,1,,,,,
,1.98,,,,,,,,,j.PNG,j,5f5b0f1be585c32184a4cf35,2021-10-19_11h53.43.118,forced_choiceRT,2021.1.2,MacIntel,60.22282445,,,,,,,,8,Ontime,h,0,2.0483,5,3,23,3,1,,,,,
,1.78,,,,,,,,,j.PNG,j,5f5b0f1be585c32184a4cf35,2021-10-19_11h53.43.118,forced_choiceRT,2021.1.2,MacIntel,60.22282445,,,,,,,,8,Slow,g,0,2.1398,6,0,24,3,1,,,,,
,0.77,,,,,,,,,f.PNG,f,5f5b0f1be585c32184a4cf35,2021-10-19_11h53.43.118,forced_choiceRT,2021.1.2,MacIntel,60.22282445,,,,,,,,8,Ontime,f,1,1.9631,6,1,25,0,1,,,,,
,1.27,,,,,,,,,h.PNG,h,5f5b0f1be585c32184a4cf35,2021-10-19_11h53.43.118,forced_choiceRT,2021.1.2,MacIntel,60.22282445,,,,,,,,8,Ontime,h,1,2.0854,6,2,26,2,1,,,,,
,0.84,,,,,,,,,f.PNG,f,5f5b0f1be585c32184a4cf35,2021-10-19_11h53.43.118,forced_choiceRT,2021.1.2,MacIntel,60.22282445,,,,,,,,8,Ontime,f,1,2.0418,6,3,27,0,1,,,,,
,0.74,,,,,,,,,h.PNG,h,5f5b0f1be585c32184a4cf35,2021-10-19_11h53.43.118,forced_choiceRT,2021.1.2,MacIntel,60.22282445,,,,,,,,8,Ontime,h,1,2.0278,7,0,28,2,1,,,,,
,0.56,,,,,,,,,g.PNG,g,5f5b0f1be585c32184a4cf35,2021-10-19_11h53.43.118,forced_choiceRT,2021.1.2,MacIntel,60.22282445,,,,,,,,8,Ontime,g,1,1.9663,7,1,29,1,1,,,,,
,1.06,,,,,,,,,f.PNG,f,5f5b0f1be585c32184a4cf35,2021-10-19_11h53.43.118,forced_choiceRT,2021.1.2,MacIntel,60.22282445,,,,,,,,8,Ontime,f,1,2.0313,7,2,30,0,1,,,,,
,1.12,,,,,,,,,g.PNG,g,5f5b0f1be585c32184a4cf35,2021-10-19_11h53.43.118,forced_choiceRT,2021.1.2,MacIntel,60.22282445,,,,,,,,8,Ontime,g,1,1.9847,7,3,31,1,1,,,,,
,0.64,,,,,,,,,g.PNG,g,5f5b0f1be585c32184a4cf35,2021-10-19_11h53.43.118,forced_choiceRT,2021.1.2,MacIntel,60.22282445,,,,,,,,8,Ontime,g,1,1.9317,8,0,32,1,1,,,,,
,1.94,,,,,,,,,h.PNG,h,5f5b0f1be585c32184a4cf35,2021-10-19_11h53.43.118,forced_choiceRT,2021.1.2,MacIntel,60.22282445,,,,,,,,8,Ontime,h,1,1.9283,8,1,33,2,1,,,,,
,1.51,,,,,,,,,h.PNG,h,5f5b0f1be585c32184a4cf35,2021-10-19_11h53.43.118,forced_choiceRT,2021.1.2,MacIntel,60.22282445,,,,,,,,8,Ontime,h,1,2.0275,8,2,34,2,1,,,,,
,0.1,,,,,,,,,g.PNG,g,5f5b0f1be585c32184a4cf35,2021-10-19_11h53.43.118,forced_choiceRT,2021.1.2,MacIntel,60.22282445,,,,,,,,8,Slow,g,1,2.1091,8,3,35,1,1,,,,,
,0.43,,,,,,,,,j.PNG,j,5f5b0f1be585c32184a4cf35,2021-10-19_11h53.43.118,forced_choiceRT,2021.1.2,MacIntel,60.22282445,,,,,,,,8,Ontime,j,1,2.0258,9,0,36,3,1,,,,,
,1.12,,,,,,,,,h.PNG,h,5f5b0f1be585c32184a4cf35,2021-10-19_11h53.43.118,forced_choiceRT,2021.1.2,MacIntel,60.22282445,,,,,,,,8,Ontime,h,1,2.0216,9,1,37,2,1,,,,,
,0.55,,,,,,,,,j.PNG,j,5f5b0f1be585c32184a4cf35,2021-10-19_11h53.43.118,forced_choiceRT,2021.1.2,MacIntel,60.22282445,,,,,,,,8,Ontime,j,1,1.9711,9,2,38,3,1,,,,,
,1.11,,,,,,,,,f.PNG,f,5f5b0f1be585c32184a4cf35,2021-10-19_11h53.43.118,forced_choiceRT,2021.1.2,MacIntel,60.22282445,,,,,,,,8,Fast,f,1,1.882,9,3,39,0,1,,,,,
,,,,,,,,,,,,5f5b0f1be585c32184a4cf35,2021-10-19_11h53.43.118,forced_choiceRT,2021.1.2,MacIntel,60.22282445,,,,,,,,,,,,,,,,,,7,0,7,0,1
,0.61,,,,,,,,,h.PNG,h,5f5b0f1be585c32184a4cf35,2021-10-19_11h53.43.118,forced_choiceRT,2021.1.2,MacIntel,60.22282445,,,,,,,,9,Slow,j,0,2.2659,0,0,0,2,1,,,,,
,0.11,,,,,,,,,h.PNG,h,5f5b0f1be585c32184a4cf35,2021-10-19_11h53.43.118,forced_choiceRT,2021.1.2,MacIntel,60.22282445,,,,,,,,9,Ontime,h,1,1.9182,0,1,1,2,1,,,,,
,0.77,,,,,,,,,j.PNG,j,5f5b0f1be585c32184a4cf35,2021-10-19_11h53.43.118,forced_choiceRT,2021.1.2,MacIntel,60.22282445,,,,,,,,9,Fast,h,0,1.3654,0,2,2,3,1,,,,,
,1.99,,,,,,,,,j.PNG,j,5f5b0f1be585c32184a4cf35,2021-10-19_11h53.43.118,forced_choiceRT,2021.1.2,MacIntel,60.22282445,,,,,,,,9,Slow,j,1,2.3094,0,3,3,3,1,,,,,
,0.21,,,,,,,,,g.PNG,g,5f5b0f1be585c32184a4cf35,2021-10-19_11h53.43.118,forced_choiceRT,2021.1.2,MacIntel,60.22282445,,,,,,,,9,Ontime,g,1,2.0448,1,0,4,1,1,,,,,
,0.48,,,,,,,,,h.PNG,h,5f5b0f1be585c32184a4cf35,2021-10-19_11h53.43.118,forced_choiceRT,2021.1.2,MacIntel,60.22282445,,,,,,,,9,Ontime,h,1,2.0167,1,1,5,2,1,,,,,
,0.38,,,,,,,,,f.PNG,f,5f5b0f1be585c32184a4cf35,2021-10-19_11h53.43.118,forced_choiceRT,2021.1.2,MacIntel,60.22282445,,,,,,,,9,Ontime,f,1,1.9364,1,2,6,0,1,,,,,
,0.15,,,,,,,,,h.PNG,h,5f5b0f1be585c32184a4cf35,2021-10-19_11h53.43.118,forced_choiceRT,2021.1.2,MacIntel,60.22282445,,,,,,,,9,Ontime,h,1,1.94,1,3,7,2,1,,,,,
,1.18,,,,,,,,,f.PNG,f,5f5b0f1be585c32184a4cf35,2021-10-19_11h53.43.118,forced_choiceRT,2021.1.2,MacIntel,60.22282445,,,,,,,,9,Slow,f,1,2.17,2,0,8,0,1,,,,,
,0.11,,,,,,,,,g.PNG,g,5f5b0f1be585c32184a4cf35,2021-10-19_11h53.43.118,forced_choiceRT,2021.1.2,MacIntel,60.22282445,,,,,,,,9,Ontime,g,1,1.9502,2,1,9,1,1,,,,,
,1.21,,,,,,,,,g.PNG,g,5f5b0f1be585c32184a4cf35,2021-10-19_11h53.43.118,forced_choiceRT,2021.1.2,MacIntel,60.22282445,,,,,,,,9,Ontime,f,0,2.0978,2,2,10,1,1,,,,,
,1.01,,,,,,,,,j.PNG,j,5f5b0f1be585c32184a4cf35,2021-10-19_11h53.43.118,forced_choiceRT,2021.1.2,MacIntel,60.22282445,,,,,,,,9,Slow,j,1,2.22,2,3,11,3,1,,,,,
,0.75,,,,,,,,,j.PNG,j,5f5b0f1be585c32184a4cf35,2021-10-19_11h53.43.118,forced_choiceRT,2021.1.2,MacIntel,60.22282445,,,,,,,,9,Ontime,j,1,2.076,3,0,12,3,1,,,,,
,0.94,,,,,,,,,g.PNG,g,5f5b0f1be585c32184a4cf35,2021-10-19_11h53.43.118,forced_choiceRT,2021.1.2,MacIntel,60.22282445,,,,,,,,9,Fast,f,0,1.836,3,1,13,1,1,,,,,
,1.52,,,,,,,,,f.PNG,f,5f5b0f1be585c32184a4cf35,2021-10-19_11h53.43.118,forced_choiceRT,2021.1.2,MacIntel,60.22282445,,,,,,,,9,Ontime,g,0,1.9782,3,2,14,0,1,,,,,
,0.19,,,,,,,,,j.PNG,j,5f5b0f1be585c32184a4cf35,2021-10-19_11h53.43.118,forced_choiceRT,2021.1.2,MacIntel,60.22282445,,,,,,,,9,Fast,j,1,1.7689,3,3,15,3,1,,,,,
,1.11,,,,,,,,,j.PNG,j,5f5b0f1be585c32184a4cf35,2021-10-19_11h53.43.118,forced_choiceRT,2021.1.2,MacIntel,60.22282445,,,,,,,,9,Ontime,j,1,2.079,4,0,16,3,1,,,,,
,0.55,,,,,,,,,h.PNG,h,5f5b0f1be585c32184a4cf35,2021-10-19_11h53.43.118,forced_choiceRT,2021.1.2,MacIntel,60.22282445,,,,,,,,9,Fast,h,1,1.8856,4,1,17,2,1,,,,,
,1.71,,,,,,,,,g.PNG,g,5f5b0f1be585c32184a4cf35,2021-10-19_11h53.43.118,forced_choiceRT,2021.1.2,MacIntel,60.22282445,,,,,,,,9,Ontime,h,0,2.0705,4,2,18,1,1,,,,,
,1.81,,,,,,,,,h.PNG,h,5f5b0f1be585c32184a4cf35,2021-10-19_11h53.43.118,forced_choiceRT,2021.1.2,MacIntel,60.22282445,,,,,,,,9,Slow,h,1,2.2233,4,3,19,2,1,,,,,
,1.16,,,,,,,,,f.PNG,f,5f5b0f1be585c32184a4cf35,2021-10-19_11h53.43.118,forced_choiceRT,2021.1.2,MacIntel,60.22282445,,,,,,,,9,Ontime,f,1,1.9569,5,0,20,0,1,,,,,
,1.82,,,,,,,,,f.PNG,f,5f5b0f1be585c32184a4cf35,2021-10-19_11h53.43.118,forced_choiceRT,2021.1.2,MacIntel,60.22282445,,,,,,,,9,Ontime,h,0,2.0247,5,1,21,0,1,,,,,
,0.43,,,,,,,,,f.PNG,f,5f5b0f1be585c32184a4cf35,2021-10-19_11h53.43.118,forced_choiceRT,2021.1.2,MacIntel,60.22282445,,,,,,,,9,Ontime,f,1,1.9841,5,2,22,0,1,,,,,
,0.06,,,,,,,,,g.PNG,g,5f5b0f1be585c32184a4cf35,2021-10-19_11h53.43.118,forced_choiceRT,2021.1.2,MacIntel,60.22282445,,,,,,,,9,Ontime,g,1,1.951,5,3,23,1,1,,,,,
,0.48,,,,,,,,,j.PNG,j,5f5b0f1be585c32184a4cf35,2021-10-19_11h53.43.118,forced_choiceRT,2021.1.2,MacIntel,60.22282445,,,,,,,,9,Ontime,j,1,2.0328,6,0,24,3,1,,,,,
,1.82,,,,,,,,,f.PNG,f,5f5b0f1be585c32184a4cf35,2021-10-19_11h53.43.118,forced_choiceRT,2021.1.2,MacIntel,60.22282445,,,,,,,,9,Slow,j,0,2.1048,6,1,25,0,1,,,,,
,0.49,,,,,,,,,g.PNG,g,5f5b0f1be585c32184a4cf35,2021-10-19_11h53.43.118,forced_choiceRT,2021.1.2,MacIntel,60.22282445,,,,,,,,9,Fast,g,1,1.8183,6,2,26,1,1,,,,,
,1.9,,,,,,,,,h.PNG,h,5f5b0f1be585c32184a4cf35,2021-10-19_11h53.43.118,forced_choiceRT,2021.1.2,MacIntel,60.22282445,,,,,,,,9,Ontime,g,0,2.0333,6,3,27,2,1,,,,,
,0.23,,,,,,,,,f.PNG,f,5f5b0f1be585c32184a4cf35,2021-10-19_11h53.43.118,forced_choiceRT,2021.1.2,MacIntel,60.22282445,,,,,,,,9,Ontime,f,1,2.0599,7,0,28,0,1,,,,,
,1.94,,,,,,,,,g.PNG,g,5f5b0f1be585c32184a4cf35,2021-10-19_11h53.43.118,forced_choiceRT,2021.1.2,MacIntel,60.22282445,,,,,,,,9,Slow,f,0,2.1718,7,1,29,1,1,,,,,
,1.94,,,,,,,,,h.PNG,h,5f5b0f1be585c32184a4cf35,2021-10-19_11h53.43.118,forced_choiceRT,2021.1.2,MacIntel,60.22282445,,,,,,,,9,Fast,f,0,1.724,7,2,30,2,1,,,,,
,1.47,,,,,,,,,j.PNG,j,5f5b0f1be585c32184a4cf35,2021-10-19_11h53.43.118,forced_choiceRT,2021.1.2,MacIntel,60.22282445,,,,,,,,9,Fast,g,0,1.6929,7,3,31,3,1,,,,,
,1.28,,,,,,,,,h.PNG,h,5f5b0f1be585c32184a4cf35,2021-10-19_11h53.43.118,forced_choiceRT,2021.1.2,MacIntel,60.22282445,,,,,,,,9,Ontime,h,1,2.0088,8,0,32,2,1,,,,,
,0.36,,,,,,,,,j.PNG,j,5f5b0f1be585c32184a4cf35,2021-10-19_11h53.43.118,forced_choiceRT,2021.1.2,MacIntel,60.22282445,,,,,,,,9,Ontime,j,1,2.0144,8,1,33,3,1,,,,,
,1.17,,,,,,,,,g.PNG,g,5f5b0f1be585c32184a4cf35,2021-10-19_11h53.43.118,forced_choiceRT,2021.1.2,MacIntel,60.22282445,,,,,,,,9,Slow,g,1,2.1556,8,2,34,1,1,,,,,
,1.14,,,,,,,,,f.PNG,f,5f5b0f1be585c32184a4cf35,2021-10-19_11h53.43.118,forced_choiceRT,2021.1.2,MacIntel,60.22282445,,,,,,,,9,Ontime,f,1,1.9967,8,3,35,0,1,,,,,
,0.49,,,,,,,,,f.PNG,f,5f5b0f1be585c32184a4cf35,2021-10-19_11h53.43.118,forced_choiceRT,2021.1.2,MacIntel,60.22282445,,,,,,,,9,Ontime,f,1,2.0467,9,0,36,0,1,,,,,
,1.28,,,,,,,,,j.PNG,j,5f5b0f1be585c32184a4cf35,2021-10-19_11h53.43.118,forced_choiceRT,2021.1.2,MacIntel,60.22282445,,,,,,,,9,Ontime,j,1,1.9272,9,1,37,3,1,,,,,
,1.24,,,,,,,,,g.PNG,g,5f5b0f1be585c32184a4cf35,2021-10-19_11h53.43.118,forced_choiceRT,2021.1.2,MacIntel,60.22282445,,,,,,,,9,Ontime,g,1,2.084,9,2,38,1,1,,,,,
,0.03,,,,,,,,,h.PNG,h,5f5b0f1be585c32184a4cf35,2021-10-19_11h53.43.118,forced_choiceRT,2021.1.2,MacIntel,60.22282445,,,,,,,,9,Ontime,h,1,2.0287,9,3,39,2,1,,,,,
,,,,,,,,,,,,5f5b0f1be585c32184a4cf35,2021-10-19_11h53.43.118,forced_choiceRT,2021.1.2,MacIntel,60.22282445,,,,,,,,,,,,,,,,,,8,0,8,0,1
,1.92,,,,,,,,,j.PNG,j,5f5b0f1be585c32184a4cf35,2021-10-19_11h53.43.118,forced_choiceRT,2021.1.2,MacIntel,60.22282445,,,,,,,,10,Ontime,h,0,2.0827,0,0,0,3,1,,,,,
,0.9,,,,,,,,,g.PNG,g,5f5b0f1be585c32184a4cf35,2021-10-19_11h53.43.118,forced_choiceRT,2021.1.2,MacIntel,60.22282445,,,,,,,,10,Ontime,g,1,1.9681,0,1,1,1,1,,,,,
,1.66,,,,,,,,,g.PNG,g,5f5b0f1be585c32184a4cf35,2021-10-19_11h53.43.118,forced_choiceRT,2021.1.2,MacIntel,60.22282445,,,,,,,,10,Ontime,h,0,2.0656,0,2,2,1,1,,,,,
,1.92,,,,,,,,,f.PNG,f,5f5b0f1be585c32184a4cf35,2021-10-19_11h53.43.118,forced_choiceRT,2021.1.2,MacIntel,60.22282445,,,,,,,,10,Ontime,g,0,2.086,0,3,3,0,1,,,,,
,0.43,,,,,,,,,h.PNG,h,5f5b0f1be585c32184a4cf35,2021-10-19_11h53.43.118,forced_choiceRT,2021.1.2,MacIntel,60.22282445,,,,,,,,10,Ontime,h,1,2.0258,1,0,4,2,1,,,,,
,1.45,,,,,,,,,f.PNG,f,5f5b0f1be585c32184a4cf35,2021-10-19_11h53.43.118,forced_choiceRT,2021.1.2,MacIntel,60.22282445,,,,,,,,10,Ontime,f,1,2.0491,1,1,5,0,1,,,,,
,0.49,,,,,,,,,h.PNG,h,5f5b0f1be585c32184a4cf35,2021-10-19_11h53.43.118,forced_choiceRT,2021.1.2,MacIntel,60.22282445,,,,,,,,10,Ontime,h,1,2.0346,1,2,6,2,1,,,,,
,0.66,,,,,,,,,g.PNG,g,5f5b0f1be585c32184a4cf35,2021-10-19_11h53.43.118,forced_choiceRT,2021.1.2,MacIntel,60.22282445,,,,,,,,10,Ontime,g,1,2.098,1,3,7,1,1,,,,,
,0.9,,,,,,,,,g.PNG,g,5f5b0f1be585c32184a4cf35,2021-10-19_11h53.43.118,forced_choiceRT,2021.1.2,MacIntel,60.22282445,,,,,,,,10,Slow,g,1,2.1605,2,0,8,1,1,,,,,
,1.73,,,,,,,,,j.PNG,j,5f5b0f1be585c32184a4cf35,2021-10-19_11h53.43.118,forced_choiceRT,2021.1.2,MacIntel,60.22282445,,,,,,,,10,Slow,g,0,2.1332,2,1,9,3,1,,,,,
,0.33,,,,,,,,,h.PNG,h,5f5b0f1be585c32184a4cf35,2021-10-19_11h53.43.118,forced_choiceRT,2021.1.2,MacIntel,60.22282445,,,,,,,,10,Ontime,h,1,1.945,2,2,10,2,1,,,,,
,0.79,,,,,,,,,h.PNG,h,5f5b0f1be585c32184a4cf35,2021-10-19_11h53.43.118,forced_choiceRT,2021.1.2,MacIntel,60.22282445,,,,,,,,10,Ontime,h,1,2.0388,2,3,11,2,1,,,,,
,0.12,,,,,,,,,g.PNG,g,5f5b0f1be585c32184a4cf35,2021-10-19_11h53.43.118,forced_choiceRT,2021.1.2,MacIntel,60.22282445,,,,,,,,10,Ontime,g,1,2.0295,3,0,12,1,1,,,,,
,0.24,,,,,,,,,h.PNG,h,5f5b0f1be585c32184a4cf35,2021-10-19_11h53.43.118,forced_choiceRT,2021.1.2,MacIntel,60.22282445,,,,,,,,10,Ontime,h,1,1.9674,3,1,13,2,1,,,,,
,0.54,,,,,,,,,j.PNG,j,5f5b0f1be585c32184a4cf35,2021-10-19_11h53.43.118,forced_choiceRT,2021.1.2,MacIntel,60.22282445,,,,,,,,10,Ontime,j,1,2.0309,3,2,14,3,1,,,,,
,0.46,,,,,,,,,f.PNG,f,5f5b0f1be585c32184a4cf35,2021-10-19_11h53.43.118,forced_choiceRT,2021.1.2,MacIntel,60.22282445,,,,,,,,10,Ontime,f,1,2.0101,3,3,15,0,1,,,,,
,1.75,,,,,,,,,f.PNG,f,5f5b0f1be585c32184a4cf35,2021-10-19_11h53.43.118,forced_choiceRT,2021.1.2,MacIntel,60.22282445,,,,,,,,10,Ontime,h,0,2.0173,4,0,16,0,1,,,,,
,0.17,,,,,,,,,h.PNG,h,5f5b0f1be585c32184a4cf35,2021-10-19_11h53.43.118,forced_choiceRT,2021.1.2,MacIntel,60.22282445,,,,,,,,10,Fast,h,1,1.8928,4,1,17,2,1,,,,,
,1.33,,,,,,,,,h.PNG,h,5f5b0f1be585c32184a4cf35,2021-10-19_11h53.43.118,forced_choiceRT,2021.1.2,MacIntel,60.22282445,,,,,,,,10,Slow,h,1,2.2483,4,2,18,2,1,,,,,
,0.43,,,,,,,,,j.PNG,j,5f5b0f1be585c32184a4cf35,2021-10-19_11h53.43.118,forced_choiceRT,2021.1.2,MacIntel,60.22282445,,,,,,,,10,Ontime,j,1,1.9897,4,3,19,3,1,,,,,
,1.66,,,,,,,,,g.PNG,g,5f5b0f1be585c32184a4cf35,2021-10-19_11h53.43.118,forced_choiceRT,2021.1.2,MacIntel,60.22282445,,,,,,,,10,Ontime,h,0,2.0361,5,0,20,1,1,,,,,
,0.86,,,,,,,,,f.PNG,f,5f5b0f1be585c32184a4cf35,2021-10-19_11h53.43.118,forced_choiceRT,2021.1.2,MacIntel,60.22282445,,,,,,,,10,Fast,f,1,1.7642,5,1,21,0,1,,,,,
,1.44,,,,,,,,,j.PNG,j,5f5b0f1be585c32184a4cf35,2021-10-19_11h53.43.118,forced_choiceRT,2021.1.2,MacIntel,60.22282445,,,,,,,,10,Slow,j,1,2.1034,5,2,22,3,1,,,,,
,1.1,,,,,,,,,j.PNG,j,5f5b0f1be585c32184a4cf35,2021-10-19_11h53.43.118,forced_choiceRT,2021.1.2,MacIntel,60.22282445,,,,,,,,10,Fast,j,1,1.8224,5,3,23,3,1,,,,,
,1.39,,,,,,,,,j.PNG,j,5f5b0f1be585c32184a4cf35,2021-10-19_11h53.43.118,forced_choiceRT,2021.1.2,MacIntel,60.22282445,,,,,,,,10,Ontime,j,1,1.9894,6,0,24,3,1,,,,,
,0.05,,,,,,,,,g.PNG,g,5f5b0f1be585c32184a4cf35,2021-10-19_11h53.43.118,forced_choiceRT,2021.1.2,MacIntel,60.22282445,,,,,,,,10,Fast,g,1,1.7951,6,1,25,1,1,,,,,
,1.32,,,,,,,,,j.PNG,j,5f5b0f1be585c32184a4cf35,2021-10-19_11h53.43.118,forced_choiceRT,2021.1.2,MacIntel,60.22282445,,,,,,,,10,Slow,j,1,2.102,6,2,26,3,1,,,,,
,1.69,,,,,,,,,g.PNG,g,5f5b0f1be585c32184a4cf35,2021-10-19_11h53.43.118,forced_choiceRT,2021.1.2,MacIntel,60.22282445,,,,,,,,10,Ontime,h,0,2.0633,6,3,27,1,1,,,,,
,0.56,,,,,,,,,j.PNG,j,5f5b0f1be585c32184a4cf35,2021-10-19_11h53.43.118,forced_choiceRT,2021.1.2,MacIntel,60.22282445,,,,,,,,10,Ontime,j,1,2.0691,7,0,28,3,1,,,,,
,1.19,,,,,,,,,h.PNG,h,5f5b0f1be585c32184a4cf35,2021-10-19_11h53.43.118,forced_choiceRT,2021.1.2,MacIntel,60.22282445,,,,,,,,10,Slow,h,1,2.1229,7,1,29,2,1,,,,,
,1.24,,,,,,,,,j.PNG,j,5f5b0f1be585c32184a4cf35,2021-10-19_11h53.43.118,forced_choiceRT,2021.1.2,MacIntel,60.22282445,,,,,,,,10,Slow,j,1,2.1257,7,2,30,3,1,,,,,
,0.94,,,,,,,,,g.PNG,g,5f5b0f1be585c32184a4cf35,2021-10-19_11h53.43.118,forced_choiceRT,2021.1.2,MacIntel,60.22282445,,,,,,,,10,Fast,g,1,1.7117,7,3,31,1,1,,,,,
,1.47,,,,,,,,,g.PNG,g,5f5b0f1be585c32184a4cf35,2021-10-19_11h53.43.118,forced_choiceRT,2021.1.2,MacIntel,60.22282445,,,,,,,,10,Ontime,g,1,2.0838,8,0,32,1,1,,,,,
,0.79,,,,,,,,,h.PNG,h,5f5b0f1be585c32184a4cf35,2021-10-19_11h53.43.118,forced_choiceRT,2021.1.2,MacIntel,60.22282445,,,,,,,,10,Fast,h,1,1.8499,8,1,33,2,1,,,,,
,1.61,,,,,,,,,f.PNG,f,5f5b0f1be585c32184a4cf35,2021-10-19_11h53.43.118,forced_choiceRT,2021.1.2,MacIntel,60.22282445,,,,,,,,10,Ontime,h,0,1.9767,8,2,34,0,1,,,,,
,1.32,,,,,,,,,f.PNG,f,5f5b0f1be585c32184a4cf35,2021-10-19_11h53.43.118,forced_choiceRT,2021.1.2,MacIntel,60.22282445,,,,,,,,10,Ontime,f,1,1.9837,8,3,35,0,1,,,,,
,1.87,,,,,,,,,f.PNG,f,5f5b0f1be585c32184a4cf35,2021-10-19_11h53.43.118,forced_choiceRT,2021.1.2,MacIntel,60.22282445,,,,,,,,10,Slow,h,0,2.1642,9,0,36,0,1,,,,,
,1.12,,,,,,,,,f.PNG,f,5f5b0f1be585c32184a4cf35,2021-10-19_11h53.43.118,forced_choiceRT,2021.1.2,MacIntel,60.22282445,,,,,,,,10,Slow,f,1,2.1948,9,1,37,0,1,,,,,
,0.94,,,,,,,,,f.PNG,f,5f5b0f1be585c32184a4cf35,2021-10-19_11h53.43.118,forced_choiceRT,2021.1.2,MacIntel,60.22282445,,,,,,,,10,Fast,f,1,1.6714,9,2,38,0,1,,,,,
,0.19,,,,,,,,,h.PNG,h,5f5b0f1be585c32184a4cf35,2021-10-19_11h53.43.118,forced_choiceRT,2021.1.2,MacIntel,60.22282445,,,,,,,,10,Fast,h,1,1.849,9,3,39,2,1,,,,,
,,,,,,,,,,,,5f5b0f1be585c32184a4cf35,2021-10-19_11h53.43.118,forced_choiceRT,2021.1.2,MacIntel,60.22282445,,,,,,,,,,,,,,,,,,9,0,9,0,1
