IP_Addresss,target_onset,trial_resp_sp.keys,trial_resp_sp.corr,trial_resp_sp.rt,trials_train_loop.thisRepN,trials_train_loop.thisTrialN,trials_train_loop.thisN,trials_train_loop.thisIndex,trials_train_loop.ran,pic,correct_key,participant,date,expName,psychopyVersion,OS,frameRate,trial_resp_timing.keys,trial_resp_timing.rt,trials_train_timing.thisRepN,trials_train_timing.thisTrialN,trials_train_timing.thisN,trials_train_timing.thisIndex,trials_train_timing.ran,block_id,ontime,forcedRT_resp.keys,forcedRT_resp.corr,forcedRT_resp.rt,trials.thisRepN,trials.thisTrialN,trials.thisN,trials.thisIndex,trials.ran,blocks.thisRepN,blocks.thisTrialN,blocks.thisN,blocks.thisIndex,blocks.ran
73.87.102.248,0,j,1,5.2977,0,0,0,3,1,j.PNG,j,5fa4c21a04bc5912180291bc,2021-10-19_21h21.30.659,forced_choiceRT,2021.1.2,Win32,60.07088364,,,,,,,,,,,,,,,,,,,,,,
,0,f,1,2.2464,0,1,1,0,1,f.PNG,f,5fa4c21a04bc5912180291bc,2021-10-19_21h21.30.659,forced_choiceRT,2021.1.2,Win32,60.07088364,,,,,,,,,,,,,,,,,,,,,,
,0,j,1,1.9058,0,2,2,3,1,j.PNG,j,5fa4c21a04bc5912180291bc,2021-10-19_21h21.30.659,forced_choiceRT,2021.1.2,Win32,60.07088364,,,,,,,,,,,,,,,,,,,,,,
,0,g,1,2.0246,0,3,3,1,1,g.PNG,g,5fa4c21a04bc5912180291bc,2021-10-19_21h21.30.659,forced_choiceRT,2021.1.2,Win32,60.07088364,,,,,,,,,,,,,,,,,,,,,,
,0,f,1,1.3565,1,0,4,0,1,f.PNG,f,5fa4c21a04bc5912180291bc,2021-10-19_21h21.30.659,forced_choiceRT,2021.1.2,Win32,60.07088364,,,,,,,,,,,,,,,,,,,,,,
,0,f,1,0.8291,1,1,5,0,1,f.PNG,f,5fa4c21a04bc5912180291bc,2021-10-19_21h21.30.659,forced_choiceRT,2021.1.2,Win32,60.07088364,,,,,,,,,,,,,,,,,,,,,,
,0,h,1,1.83,1,2,6,2,1,h.PNG,h,5fa4c21a04bc5912180291bc,2021-10-19_21h21.30.659,forced_choiceRT,2021.1.2,Win32,60.07088364,,,,,,,,,,,,,,,,,,,,,,
,0,g,1,1.9498,1,3,7,1,1,g.PNG,g,5fa4c21a04bc5912180291bc,2021-10-19_21h21.30.659,forced_choiceRT,2021.1.2,Win32,60.07088364,,,,,,,,,,,,,,,,,,,,,,
,0,j,1,2.4821,2,0,8,3,1,j.PNG,j,5fa4c21a04bc5912180291bc,2021-10-19_21h21.30.659,forced_choiceRT,2021.1.2,Win32,60.07088364,,,,,,,,,,,,,,,,,,,,,,
,0,g,1,1.5912,2,1,9,1,1,g.PNG,g,5fa4c21a04bc5912180291bc,2021-10-19_21h21.30.659,forced_choiceRT,2021.1.2,Win32,60.07088364,,,,,,,,,,,,,,,,,,,,,,
,0,j,1,0.9988,2,2,10,3,1,j.PNG,j,5fa4c21a04bc5912180291bc,2021-10-19_21h21.30.659,forced_choiceRT,2021.1.2,Win32,60.07088364,,,,,,,,,,,,,,,,,,,,,,
,0,j,1,1.0016,2,3,11,3,1,j.PNG,j,5fa4c21a04bc5912180291bc,2021-10-19_21h21.30.659,forced_choiceRT,2021.1.2,Win32,60.07088364,,,,,,,,,,,,,,,,,,,,,,
,0,f,1,1.2798,3,0,12,0,1,f.PNG,f,5fa4c21a04bc5912180291bc,2021-10-19_21h21.30.659,forced_choiceRT,2021.1.2,Win32,60.07088364,,,,,,,,,,,,,,,,,,,,,,
,0,g,1,2.189,3,1,13,1,1,g.PNG,g,5fa4c21a04bc5912180291bc,2021-10-19_21h21.30.659,forced_choiceRT,2021.1.2,Win32,60.07088364,,,,,,,,,,,,,,,,,,,,,,
,0,g,1,1.1729,3,2,14,1,1,g.PNG,g,5fa4c21a04bc5912180291bc,2021-10-19_21h21.30.659,forced_choiceRT,2021.1.2,Win32,60.07088364,,,,,,,,,,,,,,,,,,,,,,
,0,f,1,1.2466,3,3,15,0,1,f.PNG,f,5fa4c21a04bc5912180291bc,2021-10-19_21h21.30.659,forced_choiceRT,2021.1.2,Win32,60.07088364,,,,,,,,,,,,,,,,,,,,,,
,0,h,1,2.389,4,0,16,2,1,h.PNG,h,5fa4c21a04bc5912180291bc,2021-10-19_21h21.30.659,forced_choiceRT,2021.1.2,Win32,60.07088364,,,,,,,,,,,,,,,,,,,,,,
,0,f,1,1.2211,4,1,17,0,1,f.PNG,f,5fa4c21a04bc5912180291bc,2021-10-19_21h21.30.659,forced_choiceRT,2021.1.2,Win32,60.07088364,,,,,,,,,,,,,,,,,,,,,,
,0,f,1,1.0146,4,2,18,0,1,f.PNG,f,5fa4c21a04bc5912180291bc,2021-10-19_21h21.30.659,forced_choiceRT,2021.1.2,Win32,60.07088364,,,,,,,,,,,,,,,,,,,,,,
,0,f,0,2.19,4,3,19,1,1,g.PNG,g,5fa4c21a04bc5912180291bc,2021-10-19_21h21.30.659,forced_choiceRT,2021.1.2,Win32,60.07088364,,,,,,,,,,,,,,,,,,,,,,
,0,g,1,2.0751,5,0,20,1,1,g.PNG,g,5fa4c21a04bc5912180291bc,2021-10-19_21h21.30.659,forced_choiceRT,2021.1.2,Win32,60.07088364,,,,,,,,,,,,,,,,,,,,,,
,0,f,1,0.7859,5,1,21,0,1,f.PNG,f,5fa4c21a04bc5912180291bc,2021-10-19_21h21.30.659,forced_choiceRT,2021.1.2,Win32,60.07088364,,,,,,,,,,,,,,,,,,,,,,
,0,h,1,1.3355,5,2,22,2,1,h.PNG,h,5fa4c21a04bc5912180291bc,2021-10-19_21h21.30.659,forced_choiceRT,2021.1.2,Win32,60.07088364,,,,,,,,,,,,,,,,,,,,,,
,0,g,1,1.8719,5,3,23,1,1,g.PNG,g,5fa4c21a04bc5912180291bc,2021-10-19_21h21.30.659,forced_choiceRT,2021.1.2,Win32,60.07088364,,,,,,,,,,,,,,,,,,,,,,
,0,f,1,0.8149,6,0,24,0,1,f.PNG,f,5fa4c21a04bc5912180291bc,2021-10-19_21h21.30.659,forced_choiceRT,2021.1.2,Win32,60.07088364,,,,,,,,,,,,,,,,,,,,,,
,0,h,1,2.4136,6,1,25,2,1,h.PNG,h,5fa4c21a04bc5912180291bc,2021-10-19_21h21.30.659,forced_choiceRT,2021.1.2,Win32,60.07088364,,,,,,,,,,,,,,,,,,,,,,
,0,g,1,1.5909,6,2,26,1,1,g.PNG,g,5fa4c21a04bc5912180291bc,2021-10-19_21h21.30.659,forced_choiceRT,2021.1.2,Win32,60.07088364,,,,,,,,,,,,,,,,,,,,,,
,0,j,1,0.9909,6,3,27,3,1,j.PNG,j,5fa4c21a04bc5912180291bc,2021-10-19_21h21.30.659,forced_choiceRT,2021.1.2,Win32,60.07088364,,,,,,,,,,,,,,,,,,,,,,
,0,h,1,3.1672,7,0,28,2,1,h.PNG,h,5fa4c21a04bc5912180291bc,2021-10-19_21h21.30.659,forced_choiceRT,2021.1.2,Win32,60.07088364,,,,,,,,,,,,,,,,,,,,,,
,0,j,1,1.1185,7,1,29,3,1,j.PNG,j,5fa4c21a04bc5912180291bc,2021-10-19_21h21.30.659,forced_choiceRT,2021.1.2,Win32,60.07088364,,,,,,,,,,,,,,,,,,,,,,
,0,h,1,1.654,7,2,30,2,1,h.PNG,h,5fa4c21a04bc5912180291bc,2021-10-19_21h21.30.659,forced_choiceRT,2021.1.2,Win32,60.07088364,,,,,,,,,,,,,,,,,,,,,,
,0,h,1,1.0543,7,3,31,2,1,h.PNG,h,5fa4c21a04bc5912180291bc,2021-10-19_21h21.30.659,forced_choiceRT,2021.1.2,Win32,60.07088364,,,,,,,,,,,,,,,,,,,,,,
,0,j,1,0.7712,8,0,32,3,1,j.PNG,j,5fa4c21a04bc5912180291bc,2021-10-19_21h21.30.659,forced_choiceRT,2021.1.2,Win32,60.07088364,,,,,,,,,,,,,,,,,,,,,,
,0,j,1,1.2028,8,1,33,3,1,j.PNG,j,5fa4c21a04bc5912180291bc,2021-10-19_21h21.30.659,forced_choiceRT,2021.1.2,Win32,60.07088364,,,,,,,,,,,,,,,,,,,,,,
,0,h,1,1.3052,8,2,34,2,1,h.PNG,h,5fa4c21a04bc5912180291bc,2021-10-19_21h21.30.659,forced_choiceRT,2021.1.2,Win32,60.07088364,,,,,,,,,,,,,,,,,,,,,,
,0,g,1,1.0343,8,3,35,1,1,g.PNG,g,5fa4c21a04bc5912180291bc,2021-10-19_21h21.30.659,forced_choiceRT,2021.1.2,Win32,60.07088364,,,,,,,,,,,,,,,,,,,,,,
,0,g,1,0.9655,9,0,36,1,1,g.PNG,g,5fa4c21a04bc5912180291bc,2021-10-19_21h21.30.659,forced_choiceRT,2021.1.2,Win32,60.07088364,,,,,,,,,,,,,,,,,,,,,,
,0,f,1,0.7701,9,1,37,0,1,f.PNG,f,5fa4c21a04bc5912180291bc,2021-10-19_21h21.30.659,forced_choiceRT,2021.1.2,Win32,60.07088364,,,,,,,,,,,,,,,,,,,,,,
,0,h,1,1.7044,9,2,38,2,1,h.PNG,h,5fa4c21a04bc5912180291bc,2021-10-19_21h21.30.659,forced_choiceRT,2021.1.2,Win32,60.07088364,,,,,,,,,,,,,,,,,,,,,,
,0,h,1,0.7806,9,3,39,2,1,h.PNG,h,5fa4c21a04bc5912180291bc,2021-10-19_21h21.30.659,forced_choiceRT,2021.1.2,Win32,60.07088364,,,,,,,,,,,,,,,,,,,,,,
,0,j,1,0.7219,10,0,40,3,1,j.PNG,j,5fa4c21a04bc5912180291bc,2021-10-19_21h21.30.659,forced_choiceRT,2021.1.2,Win32,60.07088364,,,,,,,,,,,,,,,,,,,,,,
,0,h,1,0.652,10,1,41,2,1,h.PNG,h,5fa4c21a04bc5912180291bc,2021-10-19_21h21.30.659,forced_choiceRT,2021.1.2,Win32,60.07088364,,,,,,,,,,,,,,,,,,,,,,
,0,j,1,0.7967,10,2,42,3,1,j.PNG,j,5fa4c21a04bc5912180291bc,2021-10-19_21h21.30.659,forced_choiceRT,2021.1.2,Win32,60.07088364,,,,,,,,,,,,,,,,,,,,,,
,0,g,1,1.4912,10,3,43,1,1,g.PNG,g,5fa4c21a04bc5912180291bc,2021-10-19_21h21.30.659,forced_choiceRT,2021.1.2,Win32,60.07088364,,,,,,,,,,,,,,,,,,,,,,
,0,g,1,1.019,11,0,44,1,1,g.PNG,g,5fa4c21a04bc5912180291bc,2021-10-19_21h21.30.659,forced_choiceRT,2021.1.2,Win32,60.07088364,,,,,,,,,,,,,,,,,,,,,,
,0,j,1,0.8569,11,1,45,3,1,j.PNG,j,5fa4c21a04bc5912180291bc,2021-10-19_21h21.30.659,forced_choiceRT,2021.1.2,Win32,60.07088364,,,,,,,,,,,,,,,,,,,,,,
,0,f,1,0.868,11,2,46,0,1,f.PNG,f,5fa4c21a04bc5912180291bc,2021-10-19_21h21.30.659,forced_choiceRT,2021.1.2,Win32,60.07088364,,,,,,,,,,,,,,,,,,,,,,
,0,f,1,0.7356,11,3,47,0,1,f.PNG,f,5fa4c21a04bc5912180291bc,2021-10-19_21h21.30.659,forced_choiceRT,2021.1.2,Win32,60.07088364,,,,,,,,,,,,,,,,,,,,,,
,0,j,1,0.7059,12,0,48,3,1,j.PNG,j,5fa4c21a04bc5912180291bc,2021-10-19_21h21.30.659,forced_choiceRT,2021.1.2,Win32,60.07088364,,,,,,,,,,,,,,,,,,,,,,
,0,j,1,0.6668,12,1,49,3,1,j.PNG,j,5fa4c21a04bc5912180291bc,2021-10-19_21h21.30.659,forced_choiceRT,2021.1.2,Win32,60.07088364,,,,,,,,,,,,,,,,,,,,,,
,0,j,1,0.5834,12,2,50,3,1,j.PNG,j,5fa4c21a04bc5912180291bc,2021-10-19_21h21.30.659,forced_choiceRT,2021.1.2,Win32,60.07088364,,,,,,,,,,,,,,,,,,,,,,
,0,f,1,0.6895,12,3,51,0,1,f.PNG,f,5fa4c21a04bc5912180291bc,2021-10-19_21h21.30.659,forced_choiceRT,2021.1.2,Win32,60.07088364,,,,,,,,,,,,,,,,,,,,,,
,0,f,1,0.6843,13,0,52,0,1,f.PNG,f,5fa4c21a04bc5912180291bc,2021-10-19_21h21.30.659,forced_choiceRT,2021.1.2,Win32,60.07088364,,,,,,,,,,,,,,,,,,,,,,
,0,g,1,0.8417,13,1,53,1,1,g.PNG,g,5fa4c21a04bc5912180291bc,2021-10-19_21h21.30.659,forced_choiceRT,2021.1.2,Win32,60.07088364,,,,,,,,,,,,,,,,,,,,,,
,0,h,1,0.9547,13,2,54,2,1,h.PNG,h,5fa4c21a04bc5912180291bc,2021-10-19_21h21.30.659,forced_choiceRT,2021.1.2,Win32,60.07088364,,,,,,,,,,,,,,,,,,,,,,
,0,h,1,0.5792,13,3,55,2,1,h.PNG,h,5fa4c21a04bc5912180291bc,2021-10-19_21h21.30.659,forced_choiceRT,2021.1.2,Win32,60.07088364,,,,,,,,,,,,,,,,,,,,,,
,0,h,1,0.5731,14,0,56,2,1,h.PNG,h,5fa4c21a04bc5912180291bc,2021-10-19_21h21.30.659,forced_choiceRT,2021.1.2,Win32,60.07088364,,,,,,,,,,,,,,,,,,,,,,
,0,g,1,1.787,14,1,57,1,1,g.PNG,g,5fa4c21a04bc5912180291bc,2021-10-19_21h21.30.659,forced_choiceRT,2021.1.2,Win32,60.07088364,,,,,,,,,,,,,,,,,,,,,,
,0,h,1,1.5578,14,2,58,2,1,h.PNG,h,5fa4c21a04bc5912180291bc,2021-10-19_21h21.30.659,forced_choiceRT,2021.1.2,Win32,60.07088364,,,,,,,,,,,,,,,,,,,,,,
,0,f,1,0.9391,14,3,59,0,1,f.PNG,f,5fa4c21a04bc5912180291bc,2021-10-19_21h21.30.659,forced_choiceRT,2021.1.2,Win32,60.07088364,,,,,,,,,,,,,,,,,,,,,,
,,,,,,,,,,,,5fa4c21a04bc5912180291bc,2021-10-19_21h21.30.659,forced_choiceRT,2021.1.2,Win32,60.07088364,g,13.3735,0,0,0,0,1,,,,,,,,,,,,,,,
,,,,,,,,,,,,5fa4c21a04bc5912180291bc,2021-10-19_21h21.30.659,forced_choiceRT,2021.1.2,Win32,60.07088364,f,2.7962,1,0,1,0,1,,,,,,,,,,,,,,,
,,,,,,,,,,,,5fa4c21a04bc5912180291bc,2021-10-19_21h21.30.659,forced_choiceRT,2021.1.2,Win32,60.07088364,h,2.0489,2,0,2,0,1,,,,,,,,,,,,,,,
,,,,,,,,,,,,5fa4c21a04bc5912180291bc,2021-10-19_21h21.30.659,forced_choiceRT,2021.1.2,Win32,60.07088364,h,0.8375,3,0,3,0,1,,,,,,,,,,,,,,,
,,,,,,,,,,,,5fa4c21a04bc5912180291bc,2021-10-19_21h21.30.659,forced_choiceRT,2021.1.2,Win32,60.07088364,h,1.2525,4,0,4,0,1,,,,,,,,,,,,,,,
,,,,,,,,,,,,5fa4c21a04bc5912180291bc,2021-10-19_21h21.30.659,forced_choiceRT,2021.1.2,Win32,60.07088364,h,1.6593,5,0,5,0,1,,,,,,,,,,,,,,,
,,,,,,,,,,,,5fa4c21a04bc5912180291bc,2021-10-19_21h21.30.659,forced_choiceRT,2021.1.2,Win32,60.07088364,h,2.1007,6,0,6,0,1,,,,,,,,,,,,,,,
,,,,,,,,,,,,5fa4c21a04bc5912180291bc,2021-10-19_21h21.30.659,forced_choiceRT,2021.1.2,Win32,60.07088364,h,1.9703,7,0,7,0,1,,,,,,,,,,,,,,,
,,,,,,,,,,,,5fa4c21a04bc5912180291bc,2021-10-19_21h21.30.659,forced_choiceRT,2021.1.2,Win32,60.07088364,h,1.9557,8,0,8,0,1,,,,,,,,,,,,,,,
,,,,,,,,,,,,5fa4c21a04bc5912180291bc,2021-10-19_21h21.30.659,forced_choiceRT,2021.1.2,Win32,60.07088364,h,1.9905,9,0,9,0,1,,,,,,,,,,,,,,,
,,,,,,,,,,,,5fa4c21a04bc5912180291bc,2021-10-19_21h21.30.659,forced_choiceRT,2021.1.2,Win32,60.07088364,h,1.8881,10,0,10,0,1,,,,,,,,,,,,,,,
,,,,,,,,,,,,5fa4c21a04bc5912180291bc,2021-10-19_21h21.30.659,forced_choiceRT,2021.1.2,Win32,60.07088364,h,2.1624,11,0,11,0,1,,,,,,,,,,,,,,,
,,,,,,,,,,,,5fa4c21a04bc5912180291bc,2021-10-19_21h21.30.659,forced_choiceRT,2021.1.2,Win32,60.07088364,h,1.9887,12,0,12,0,1,,,,,,,,,,,,,,,
,,,,,,,,,,,,5fa4c21a04bc5912180291bc,2021-10-19_21h21.30.659,forced_choiceRT,2021.1.2,Win32,60.07088364,h,1.8912,13,0,13,0,1,,,,,,,,,,,,,,,
,,,,,,,,,,,,5fa4c21a04bc5912180291bc,2021-10-19_21h21.30.659,forced_choiceRT,2021.1.2,Win32,60.07088364,h,1.8359,14,0,14,0,1,,,,,,,,,,,,,,,
,,,,,,,,,,,,5fa4c21a04bc5912180291bc,2021-10-19_21h21.30.659,forced_choiceRT,2021.1.2,Win32,60.07088364,h,1.9135,15,0,15,0,1,,,,,,,,,,,,,,,
,,,,,,,,,,,,5fa4c21a04bc5912180291bc,2021-10-19_21h21.30.659,forced_choiceRT,2021.1.2,Win32,60.07088364,h,1.8898,16,0,16,0,1,,,,,,,,,,,,,,,
,,,,,,,,,,,,5fa4c21a04bc5912180291bc,2021-10-19_21h21.30.659,forced_choiceRT,2021.1.2,Win32,60.07088364,j,1.9496,17,0,17,0,1,,,,,,,,,,,,,,,
,,,,,,,,,,,,5fa4c21a04bc5912180291bc,2021-10-19_21h21.30.659,forced_choiceRT,2021.1.2,Win32,60.07088364,j,2.0013,18,0,18,0,1,,,,,,,,,,,,,,,
,,,,,,,,,,,,5fa4c21a04bc5912180291bc,2021-10-19_21h21.30.659,forced_choiceRT,2021.1.2,Win32,60.07088364,j,1.9972,19,0,19,0,1,,,,,,,,,,,,,,,
,0.71,,,,,,,,,j.PNG,j,5fa4c21a04bc5912180291bc,2021-10-19_21h21.30.659,forced_choiceRT,2021.1.2,Win32,60.07088364,,,,,,,,1,Ontime,j,1,2.013,0,0,0,3,1,,,,,
,0.57,,,,,,,,,j.PNG,j,5fa4c21a04bc5912180291bc,2021-10-19_21h21.30.659,forced_choiceRT,2021.1.2,Win32,60.07088364,,,,,,,,1,Fast,j,1,1.385,0,1,1,3,1,,,,,
,0.63,,,,,,,,,h.PNG,h,5fa4c21a04bc5912180291bc,2021-10-19_21h21.30.659,forced_choiceRT,2021.1.2,Win32,60.07088364,,,,,,,,1,Slow,h,1,2.3536,0,2,2,2,1,,,,,
,0.3,,,,,,,,,f.PNG,f,5fa4c21a04bc5912180291bc,2021-10-19_21h21.30.659,forced_choiceRT,2021.1.2,Win32,60.07088364,,,,,,,,1,Fast,f,1,1.7492,0,3,3,0,1,,,,,
,0.43,,,,,,,,,g.PNG,g,5fa4c21a04bc5912180291bc,2021-10-19_21h21.30.659,forced_choiceRT,2021.1.2,Win32,60.07088364,,,,,,,,1,Ontime,g,1,1.9657,1,0,4,1,1,,,,,
,1.73,,,,,,,,,h.PNG,h,5fa4c21a04bc5912180291bc,2021-10-19_21h21.30.659,forced_choiceRT,2021.1.2,Win32,60.07088364,,,,,,,,1,Slow,h,1,2.651,1,1,5,2,1,,,,,
,1.96,,,,,,,,,j.PNG,j,5fa4c21a04bc5912180291bc,2021-10-19_21h21.30.659,forced_choiceRT,2021.1.2,Win32,60.07088364,,,,,,,,1,Slow,j,1,2.2314,1,2,6,3,1,,,,,
,1.19,,,,,,,,,g.PNG,g,5fa4c21a04bc5912180291bc,2021-10-19_21h21.30.659,forced_choiceRT,2021.1.2,Win32,60.07088364,,,,,,,,1,Ontime,g,1,2.0186,1,3,7,1,1,,,,,
,0.86,,,,,,,,,j.PNG,j,5fa4c21a04bc5912180291bc,2021-10-19_21h21.30.659,forced_choiceRT,2021.1.2,Win32,60.07088364,,,,,,,,1,Fast,j,1,1.8565,2,0,8,3,1,,,,,
,1.15,,,,,,,,,g.PNG,g,5fa4c21a04bc5912180291bc,2021-10-19_21h21.30.659,forced_choiceRT,2021.1.2,Win32,60.07088364,,,,,,,,1,Ontime,g,1,2.0924,2,1,9,1,1,,,,,
,0.09,,,,,,,,,j.PNG,j,5fa4c21a04bc5912180291bc,2021-10-19_21h21.30.659,forced_choiceRT,2021.1.2,Win32,60.07088364,,,,,,,,1,Ontime,j,1,1.97,2,2,10,3,1,,,,,
,1.98,,,,,,,,,j.PNG,j,5fa4c21a04bc5912180291bc,2021-10-19_21h21.30.659,forced_choiceRT,2021.1.2,Win32,60.07088364,,,,,,,,1,Slow,j,1,2.2349,2,3,11,3,1,,,,,
,1.24,,,,,,,,,g.PNG,g,5fa4c21a04bc5912180291bc,2021-10-19_21h21.30.659,forced_choiceRT,2021.1.2,Win32,60.07088364,,,,,,,,1,Ontime,g,1,2.0002,3,0,12,1,1,,,,,
,0.13,,,,,,,,,h.PNG,h,5fa4c21a04bc5912180291bc,2021-10-19_21h21.30.659,forced_choiceRT,2021.1.2,Win32,60.07088364,,,,,,,,1,Fast,h,1,1.8132,3,1,13,2,1,,,,,
,1.95,,,,,,,,,h.PNG,h,5fa4c21a04bc5912180291bc,2021-10-19_21h21.30.659,forced_choiceRT,2021.1.2,Win32,60.07088364,,,,,,,,1,Ontime,j,0,2.0301,3,2,14,2,1,,,,,
,0.89,,,,,,,,,g.PNG,g,5fa4c21a04bc5912180291bc,2021-10-19_21h21.30.659,forced_choiceRT,2021.1.2,Win32,60.07088364,,,,,,,,1,Fast,g,1,1.7892,3,3,15,1,1,,,,,
,0.43,,,,,,,,,f.PNG,f,5fa4c21a04bc5912180291bc,2021-10-19_21h21.30.659,forced_choiceRT,2021.1.2,Win32,60.07088364,,,,,,,,1,Ontime,f,1,1.901,4,0,16,0,1,,,,,
,0.46,,,,,,,,,j.PNG,j,5fa4c21a04bc5912180291bc,2021-10-19_21h21.30.659,forced_choiceRT,2021.1.2,Win32,60.07088364,,,,,,,,1,Ontime,j,1,1.9008,4,1,17,3,1,,,,,
,1.08,,,,,,,,,g.PNG,g,5fa4c21a04bc5912180291bc,2021-10-19_21h21.30.659,forced_choiceRT,2021.1.2,Win32,60.07088364,,,,,,,,1,Ontime,g,1,2.0257,4,2,18,1,1,,,,,
,0.46,,,,,,,,,f.PNG,f,5fa4c21a04bc5912180291bc,2021-10-19_21h21.30.659,forced_choiceRT,2021.1.2,Win32,60.07088364,,,,,,,,1,Ontime,f,1,1.9706,4,3,19,0,1,,,,,
,1.63,,,,,,,,,f.PNG,f,5fa4c21a04bc5912180291bc,2021-10-19_21h21.30.659,forced_choiceRT,2021.1.2,Win32,60.07088364,,,,,,,,1,Ontime,j,0,2.0074,5,0,20,0,1,,,,,
,1.95,,,,,,,,,j.PNG,j,5fa4c21a04bc5912180291bc,2021-10-19_21h21.30.659,forced_choiceRT,2021.1.2,Win32,60.07088364,,,,,,,,1,Ontime,g,0,2.0618,5,1,21,3,1,,,,,
,0.79,,,,,,,,,f.PNG,f,5fa4c21a04bc5912180291bc,2021-10-19_21h21.30.659,forced_choiceRT,2021.1.2,Win32,60.07088364,,,,,,,,1,Ontime,f,1,1.9356,5,2,22,0,1,,,,,
,1.1,,,,,,,,,f.PNG,f,5fa4c21a04bc5912180291bc,2021-10-19_21h21.30.659,forced_choiceRT,2021.1.2,Win32,60.07088364,,,,,,,,1,Ontime,f,1,2.0482,5,3,23,0,1,,,,,
,1.35,,,,,,,,,h.PNG,h,5fa4c21a04bc5912180291bc,2021-10-19_21h21.30.659,forced_choiceRT,2021.1.2,Win32,60.07088364,,,,,,,,1,Slow,h,1,2.1577,6,0,24,2,1,,,,,
,1.69,,,,,,,,,h.PNG,h,5fa4c21a04bc5912180291bc,2021-10-19_21h21.30.659,forced_choiceRT,2021.1.2,Win32,60.07088364,,,,,,,,1,Ontime,j,0,1.9729,6,1,25,2,1,,,,,
,0.4,,,,,,,,,h.PNG,h,5fa4c21a04bc5912180291bc,2021-10-19_21h21.30.659,forced_choiceRT,2021.1.2,Win32,60.07088364,,,,,,,,1,Ontime,j,0,1.9014,6,2,26,2,1,,,,,
,1.51,,,,,,,,,j.PNG,j,5fa4c21a04bc5912180291bc,2021-10-19_21h21.30.659,forced_choiceRT,2021.1.2,Win32,60.07088364,,,,,,,,1,Slow,h,0,2.168,6,3,27,3,1,,,,,
,1.88,,,,,,,,,f.PNG,f,5fa4c21a04bc5912180291bc,2021-10-19_21h21.30.659,forced_choiceRT,2021.1.2,Win32,60.07088364,,,,,,,,1,Ontime,j,0,2.0489,7,0,28,0,1,,,,,
,1.48,,,,,,,,,h.PNG,h,5fa4c21a04bc5912180291bc,2021-10-19_21h21.30.659,forced_choiceRT,2021.1.2,Win32,60.07088364,,,,,,,,1,Fast,j,0,1.8599,7,1,29,2,1,,,,,
,0.48,,,,,,,,,h.PNG,h,5fa4c21a04bc5912180291bc,2021-10-19_21h21.30.659,forced_choiceRT,2021.1.2,Win32,60.07088364,,,,,,,,1,Fast,h,1,1.8881,7,2,30,2,1,,,,,
,1.77,,,,,,,,,g.PNG,g,5fa4c21a04bc5912180291bc,2021-10-19_21h21.30.659,forced_choiceRT,2021.1.2,Win32,60.07088364,,,,,,,,1,Ontime,j,0,2.032,7,3,31,1,1,,,,,
,1.33,,,,,,,,,g.PNG,g,5fa4c21a04bc5912180291bc,2021-10-19_21h21.30.659,forced_choiceRT,2021.1.2,Win32,60.07088364,,,,,,,,1,Slow,h,0,2.2288,8,0,32,1,1,,,,,
,1.72,,,,,,,,,g.PNG,g,5fa4c21a04bc5912180291bc,2021-10-19_21h21.30.659,forced_choiceRT,2021.1.2,Win32,60.07088364,,,,,,,,1,Ontime,h,0,1.9991,8,1,33,1,1,,,,,
,0.29,,,,,,,,,h.PNG,h,5fa4c21a04bc5912180291bc,2021-10-19_21h21.30.659,forced_choiceRT,2021.1.2,Win32,60.07088364,,,,,,,,1,Fast,h,1,1.7842,8,2,34,2,1,,,,,
,0.46,,,,,,,,,j.PNG,j,5fa4c21a04bc5912180291bc,2021-10-19_21h21.30.659,forced_choiceRT,2021.1.2,Win32,60.07088364,,,,,,,,1,Fast,h,0,1.8599,8,3,35,3,1,,,,,
,1.94,,,,,,,,,f.PNG,f,5fa4c21a04bc5912180291bc,2021-10-19_21h21.30.659,forced_choiceRT,2021.1.2,Win32,60.07088364,,,,,,,,1,Ontime,h,0,2.0631,9,0,36,0,1,,,,,
,1.29,,,,,,,,,f.PNG,f,5fa4c21a04bc5912180291bc,2021-10-19_21h21.30.659,forced_choiceRT,2021.1.2,Win32,60.07088364,,,,,,,,1,Ontime,h,0,1.9714,9,1,37,0,1,,,,,
,1.05,,,,,,,,,f.PNG,f,5fa4c21a04bc5912180291bc,2021-10-19_21h21.30.659,forced_choiceRT,2021.1.2,Win32,60.07088364,,,,,,,,1,Ontime,f,1,2.0854,9,2,38,0,1,,,,,
,1.07,,,,,,,,,g.PNG,g,5fa4c21a04bc5912180291bc,2021-10-19_21h21.30.659,forced_choiceRT,2021.1.2,Win32,60.07088364,,,,,,,,1,Ontime,g,1,2.0065,9,3,39,1,1,,,,,
,,,,,,,,,,,,5fa4c21a04bc5912180291bc,2021-10-19_21h21.30.659,forced_choiceRT,2021.1.2,Win32,60.07088364,,,,,,,,,,,,,,,,,,0,0,0,0,1
,0.22,,,,,,,,,j.PNG,j,5fa4c21a04bc5912180291bc,2021-10-19_21h21.30.659,forced_choiceRT,2021.1.2,Win32,60.07088364,,,,,,,,2,Ontime,j,1,1.9653,0,0,0,3,1,,,,,
,1.15,,,,,,,,,g.PNG,g,5fa4c21a04bc5912180291bc,2021-10-19_21h21.30.659,forced_choiceRT,2021.1.2,Win32,60.07088364,,,,,,,,2,Ontime,g,1,2.0182,0,1,1,1,1,,,,,
,0.91,,,,,,,,,f.PNG,f,5fa4c21a04bc5912180291bc,2021-10-19_21h21.30.659,forced_choiceRT,2021.1.2,Win32,60.07088364,,,,,,,,2,Ontime,f,1,1.9133,0,2,2,0,1,,,,,
,0.48,,,,,,,,,g.PNG,g,5fa4c21a04bc5912180291bc,2021-10-19_21h21.30.659,forced_choiceRT,2021.1.2,Win32,60.07088364,,,,,,,,2,Ontime,g,1,1.9793,0,3,3,1,1,,,,,
,1.89,,,,,,,,,h.PNG,h,5fa4c21a04bc5912180291bc,2021-10-19_21h21.30.659,forced_choiceRT,2021.1.2,Win32,60.07088364,,,,,,,,2,Slow,j,0,2.1496,1,0,4,2,1,,,,,
,0.21,,,,,,,,,j.PNG,j,5fa4c21a04bc5912180291bc,2021-10-19_21h21.30.659,forced_choiceRT,2021.1.2,Win32,60.07088364,,,,,,,,2,Ontime,j,1,1.9158,1,1,5,3,1,,,,,
,1.39,,,,,,,,,f.PNG,f,5fa4c21a04bc5912180291bc,2021-10-19_21h21.30.659,forced_choiceRT,2021.1.2,Win32,60.07088364,,,,,,,,2,Ontime,f,1,2.0523,1,2,6,0,1,,,,,
,1.53,,,,,,,,,j.PNG,j,5fa4c21a04bc5912180291bc,2021-10-19_21h21.30.659,forced_choiceRT,2021.1.2,Win32,60.07088364,,,,,,,,2,Slow,j,1,2.1945,1,3,7,3,1,,,,,
,1,,,,,,,,,f.PNG,f,5fa4c21a04bc5912180291bc,2021-10-19_21h21.30.659,forced_choiceRT,2021.1.2,Win32,60.07088364,,,,,,,,2,Fast,f,1,1.8473,2,0,8,0,1,,,,,
,1.16,,,,,,,,,f.PNG,f,5fa4c21a04bc5912180291bc,2021-10-19_21h21.30.659,forced_choiceRT,2021.1.2,Win32,60.07088364,,,,,,,,2,Ontime,f,1,2.0188,2,1,9,0,1,,,,,
,1.99,,,,,,,,,g.PNG,g,5fa4c21a04bc5912180291bc,2021-10-19_21h21.30.659,forced_choiceRT,2021.1.2,Win32,60.07088364,,,,,,,,2,Ontime,f,0,1.969,2,2,10,1,1,,,,,
,0.3,,,,,,,,,f.PNG,f,5fa4c21a04bc5912180291bc,2021-10-19_21h21.30.659,forced_choiceRT,2021.1.2,Win32,60.07088364,,,,,,,,2,Ontime,f,1,1.9192,2,3,11,0,1,,,,,
,0.71,,,,,,,,,f.PNG,f,5fa4c21a04bc5912180291bc,2021-10-19_21h21.30.659,forced_choiceRT,2021.1.2,Win32,60.07088364,,,,,,,,2,Fast,f,1,1.8682,3,0,12,0,1,,,,,
,0.34,,,,,,,,,f.PNG,f,5fa4c21a04bc5912180291bc,2021-10-19_21h21.30.659,forced_choiceRT,2021.1.2,Win32,60.07088364,,,,,,,,2,Ontime,f,1,1.9357,3,1,13,0,1,,,,,
,1.24,,,,,,,,,j.PNG,j,5fa4c21a04bc5912180291bc,2021-10-19_21h21.30.659,forced_choiceRT,2021.1.2,Win32,60.07088364,,,,,,,,2,Ontime,j,1,2.0828,3,2,14,3,1,,,,,
,0.65,,,,,,,,,f.PNG,f,5fa4c21a04bc5912180291bc,2021-10-19_21h21.30.659,forced_choiceRT,2021.1.2,Win32,60.07088364,,,,,,,,2,Ontime,f,1,2.0005,3,3,15,0,1,,,,,
,1.78,,,,,,,,,f.PNG,f,5fa4c21a04bc5912180291bc,2021-10-19_21h21.30.659,forced_choiceRT,2021.1.2,Win32,60.07088364,,,,,,,,2,Slow,f,1,2.2328,4,0,16,0,1,,,,,
,1.83,,,,,,,,,h.PNG,h,5fa4c21a04bc5912180291bc,2021-10-19_21h21.30.659,forced_choiceRT,2021.1.2,Win32,60.07088364,,,,,,,,2,Ontime,f,0,2.0392,4,1,17,2,1,,,,,
,1.8,,,,,,,,,g.PNG,g,5fa4c21a04bc5912180291bc,2021-10-19_21h21.30.659,forced_choiceRT,2021.1.2,Win32,60.07088364,,,,,,,,2,Ontime,f,0,2.0242,4,2,18,1,1,,,,,
,1.44,,,,,,,,,j.PNG,j,5fa4c21a04bc5912180291bc,2021-10-19_21h21.30.659,forced_choiceRT,2021.1.2,Win32,60.07088364,,,,,,,,2,Slow,h,0,2.1392,4,3,19,3,1,,,,,
,1.37,,,,,,,,,h.PNG,h,5fa4c21a04bc5912180291bc,2021-10-19_21h21.30.659,forced_choiceRT,2021.1.2,Win32,60.07088364,,,,,,,,2,Ontime,h,1,1.9863,5,0,20,2,1,,,,,
,0.51,,,,,,,,,f.PNG,f,5fa4c21a04bc5912180291bc,2021-10-19_21h21.30.659,forced_choiceRT,2021.1.2,Win32,60.07088364,,,,,,,,2,Fast,f,1,1.7987,5,1,21,0,1,,,,,
,0.18,,,,,,,,,g.PNG,g,5fa4c21a04bc5912180291bc,2021-10-19_21h21.30.659,forced_choiceRT,2021.1.2,Win32,60.07088364,,,,,,,,2,Ontime,g,1,1.9409,5,2,22,1,1,,,,,
,0.11,,,,,,,,,g.PNG,g,5fa4c21a04bc5912180291bc,2021-10-19_21h21.30.659,forced_choiceRT,2021.1.2,Win32,60.07088364,,,,,,,,2,Ontime,g,1,2.0167,5,3,23,1,1,,,,,
,1.37,,,,,,,,,h.PNG,h,5fa4c21a04bc5912180291bc,2021-10-19_21h21.30.659,forced_choiceRT,2021.1.2,Win32,60.07088364,,,,,,,,2,Ontime,h,1,2.0233,6,0,24,2,1,,,,,
,1.33,,,,,,,,,j.PNG,j,5fa4c21a04bc5912180291bc,2021-10-19_21h21.30.659,forced_choiceRT,2021.1.2,Win32,60.07088364,,,,,,,,2,Ontime,j,1,1.9904,6,1,25,3,1,,,,,
,0.7,,,,,,,,,j.PNG,j,5fa4c21a04bc5912180291bc,2021-10-19_21h21.30.659,forced_choiceRT,2021.1.2,Win32,60.07088364,,,,,,,,2,Fast,j,1,1.8855,6,2,26,3,1,,,,,
,0.52,,,,,,,,,h.PNG,h,5fa4c21a04bc5912180291bc,2021-10-19_21h21.30.659,forced_choiceRT,2021.1.2,Win32,60.07088364,,,,,,,,2,Ontime,h,1,1.9833,6,3,27,2,1,,,,,
,0.4,,,,,,,,,g.PNG,g,5fa4c21a04bc5912180291bc,2021-10-19_21h21.30.659,forced_choiceRT,2021.1.2,Win32,60.07088364,,,,,,,,2,Ontime,g,1,1.9963,7,0,28,1,1,,,,,
,0.55,,,,,,,,,g.PNG,g,5fa4c21a04bc5912180291bc,2021-10-19_21h21.30.659,forced_choiceRT,2021.1.2,Win32,60.07088364,,,,,,,,2,Ontime,g,1,1.9688,7,1,29,1,1,,,,,
,0.47,,,,,,,,,g.PNG,g,5fa4c21a04bc5912180291bc,2021-10-19_21h21.30.659,forced_choiceRT,2021.1.2,Win32,60.07088364,,,,,,,,2,Fast,g,1,1.8977,7,2,30,1,1,,,,,
,0.84,,,,,,,,,j.PNG,j,5fa4c21a04bc5912180291bc,2021-10-19_21h21.30.659,forced_choiceRT,2021.1.2,Win32,60.07088364,,,,,,,,2,Ontime,j,1,1.9364,7,3,31,3,1,,,,,
,1.79,,,,,,,,,j.PNG,j,5fa4c21a04bc5912180291bc,2021-10-19_21h21.30.659,forced_choiceRT,2021.1.2,Win32,60.07088364,,,,,,,,2,Ontime,h,0,2.0333,8,0,32,3,1,,,,,
,0.88,,,,,,,,,j.PNG,j,5fa4c21a04bc5912180291bc,2021-10-19_21h21.30.659,forced_choiceRT,2021.1.2,Win32,60.07088364,,,,,,,,2,Ontime,j,1,2.0377,8,1,33,3,1,,,,,
,0.57,,,,,,,,,h.PNG,h,5fa4c21a04bc5912180291bc,2021-10-19_21h21.30.659,forced_choiceRT,2021.1.2,Win32,60.07088364,,,,,,,,2,Ontime,h,1,2.0355,8,2,34,2,1,,,,,
,1.58,,,,,,,,,h.PNG,h,5fa4c21a04bc5912180291bc,2021-10-19_21h21.30.659,forced_choiceRT,2021.1.2,Win32,60.07088364,,,,,,,,2,Ontime,j,0,2.0018,8,3,35,2,1,,,,,
,1.83,,,,,,,,,h.PNG,h,5fa4c21a04bc5912180291bc,2021-10-19_21h21.30.659,forced_choiceRT,2021.1.2,Win32,60.07088364,,,,,,,,2,Ontime,j,0,2.0153,9,0,36,2,1,,,,,
,0.39,,,,,,,,,g.PNG,g,5fa4c21a04bc5912180291bc,2021-10-19_21h21.30.659,forced_choiceRT,2021.1.2,Win32,60.07088364,,,,,,,,2,Ontime,g,1,1.9686,9,1,37,1,1,,,,,
,0.91,,,,,,,,,h.PNG,h,5fa4c21a04bc5912180291bc,2021-10-19_21h21.30.659,forced_choiceRT,2021.1.2,Win32,60.07088364,,,,,,,,2,Fast,h,1,1.883,9,2,38,2,1,,,,,
,1.25,,,,,,,,,h.PNG,h,5fa4c21a04bc5912180291bc,2021-10-19_21h21.30.659,forced_choiceRT,2021.1.2,Win32,60.07088364,,,,,,,,2,Ontime,h,1,2.0059,9,3,39,2,1,,,,,
,,,,,,,,,,,,5fa4c21a04bc5912180291bc,2021-10-19_21h21.30.659,forced_choiceRT,2021.1.2,Win32,60.07088364,,,,,,,,,,,,,,,,,,1,0,1,0,1
,0.84,,,,,,,,,f.PNG,f,5fa4c21a04bc5912180291bc,2021-10-19_21h21.30.659,forced_choiceRT,2021.1.2,Win32,60.07088364,,,,,,,,3,Ontime,f,1,1.9638,0,0,0,0,1,,,,,
,0.35,,,,,,,,,f.PNG,f,5fa4c21a04bc5912180291bc,2021-10-19_21h21.30.659,forced_choiceRT,2021.1.2,Win32,60.07088364,,,,,,,,3,Ontime,f,1,1.9517,0,1,1,0,1,,,,,
,1.82,,,,,,,,,g.PNG,g,5fa4c21a04bc5912180291bc,2021-10-19_21h21.30.659,forced_choiceRT,2021.1.2,Win32,60.07088364,,,,,,,,3,Slow,f,0,2.3184,0,2,2,1,1,,,,,
,1.25,,,,,,,,,h.PNG,h,5fa4c21a04bc5912180291bc,2021-10-19_21h21.30.659,forced_choiceRT,2021.1.2,Win32,60.07088364,,,,,,,,3,Ontime,h,1,2.0191,0,3,3,2,1,,,,,
,1.9,,,,,,,,,f.PNG,f,5fa4c21a04bc5912180291bc,2021-10-19_21h21.30.659,forced_choiceRT,2021.1.2,Win32,60.07088364,,,,,,,,3,Ontime,h,0,2.0193,1,0,4,0,1,,,,,
,0.4,,,,,,,,,h.PNG,h,5fa4c21a04bc5912180291bc,2021-10-19_21h21.30.659,forced_choiceRT,2021.1.2,Win32,60.07088364,,,,,,,,3,Ontime,j,0,1.9501,1,1,5,2,1,,,,,
,0.29,,,,,,,,,j.PNG,j,5fa4c21a04bc5912180291bc,2021-10-19_21h21.30.659,forced_choiceRT,2021.1.2,Win32,60.07088364,,,,,,,,3,Ontime,j,1,1.9857,1,2,6,3,1,,,,,
,1.27,,,,,,,,,j.PNG,j,5fa4c21a04bc5912180291bc,2021-10-19_21h21.30.659,forced_choiceRT,2021.1.2,Win32,60.07088364,,,,,,,,3,Ontime,j,1,1.9955,1,3,7,3,1,,,,,
,1.1,,,,,,,,,j.PNG,j,5fa4c21a04bc5912180291bc,2021-10-19_21h21.30.659,forced_choiceRT,2021.1.2,Win32,60.07088364,,,,,,,,3,Ontime,j,1,1.957,2,0,8,3,1,,,,,
,1.47,,,,,,,,,g.PNG,g,5fa4c21a04bc5912180291bc,2021-10-19_21h21.30.659,forced_choiceRT,2021.1.2,Win32,60.07088364,,,,,,,,3,Ontime,h,0,1.9688,2,1,9,1,1,,,,,
,1.46,,,,,,,,,g.PNG,g,5fa4c21a04bc5912180291bc,2021-10-19_21h21.30.659,forced_choiceRT,2021.1.2,Win32,60.07088364,,,,,,,,3,Ontime,f,0,1.9039,2,2,10,1,1,,,,,
,0.07,,,,,,,,,f.PNG,f,5fa4c21a04bc5912180291bc,2021-10-19_21h21.30.659,forced_choiceRT,2021.1.2,Win32,60.07088364,,,,,,,,3,Ontime,f,1,2.0514,2,3,11,0,1,,,,,
,0.41,,,,,,,,,f.PNG,f,5fa4c21a04bc5912180291bc,2021-10-19_21h21.30.659,forced_choiceRT,2021.1.2,Win32,60.07088364,,,,,,,,3,Ontime,f,1,1.983,3,0,12,0,1,,,,,
,0.22,,,,,,,,,f.PNG,f,5fa4c21a04bc5912180291bc,2021-10-19_21h21.30.659,forced_choiceRT,2021.1.2,Win32,60.07088364,,,,,,,,3,Ontime,f,1,2.0329,3,1,13,0,1,,,,,
,0.5,,,,,,,,,g.PNG,g,5fa4c21a04bc5912180291bc,2021-10-19_21h21.30.659,forced_choiceRT,2021.1.2,Win32,60.07088364,,,,,,,,3,Ontime,g,1,2.0139,3,2,14,1,1,,,,,
,0.91,,,,,,,,,f.PNG,f,5fa4c21a04bc5912180291bc,2021-10-19_21h21.30.659,forced_choiceRT,2021.1.2,Win32,60.07088364,,,,,,,,3,Ontime,f,1,2.0211,3,3,15,0,1,,,,,
,1.09,,,,,,,,,f.PNG,f,5fa4c21a04bc5912180291bc,2021-10-19_21h21.30.659,forced_choiceRT,2021.1.2,Win32,60.07088364,,,,,,,,3,Ontime,f,1,2.0219,4,0,16,0,1,,,,,
,0.89,,,,,,,,,h.PNG,h,5fa4c21a04bc5912180291bc,2021-10-19_21h21.30.659,forced_choiceRT,2021.1.2,Win32,60.07088364,,,,,,,,3,Ontime,g,0,1.9306,4,1,17,2,1,,,,,
,0.56,,,,,,,,,g.PNG,g,5fa4c21a04bc5912180291bc,2021-10-19_21h21.30.659,forced_choiceRT,2021.1.2,Win32,60.07088364,,,,,,,,3,Ontime,g,1,1.9513,4,2,18,1,1,,,,,
,1.18,,,,,,,,,j.PNG,j,5fa4c21a04bc5912180291bc,2021-10-19_21h21.30.659,forced_choiceRT,2021.1.2,Win32,60.07088364,,,,,,,,3,Ontime,j,1,2.0584,4,3,19,3,1,,,,,
,1.11,,,,,,,,,h.PNG,h,5fa4c21a04bc5912180291bc,2021-10-19_21h21.30.659,forced_choiceRT,2021.1.2,Win32,60.07088364,,,,,,,,3,Ontime,g,0,2.0848,5,0,20,2,1,,,,,
,1.84,,,,,,,,,g.PNG,g,5fa4c21a04bc5912180291bc,2021-10-19_21h21.30.659,forced_choiceRT,2021.1.2,Win32,60.07088364,,,,,,,,3,Ontime,j,0,1.9891,5,1,21,1,1,,,,,
,0.69,,,,,,,,,f.PNG,f,5fa4c21a04bc5912180291bc,2021-10-19_21h21.30.659,forced_choiceRT,2021.1.2,Win32,60.07088364,,,,,,,,3,Ontime,f,1,1.9384,5,2,22,0,1,,,,,
,1.11,,,,,,,,,j.PNG,j,5fa4c21a04bc5912180291bc,2021-10-19_21h21.30.659,forced_choiceRT,2021.1.2,Win32,60.07088364,,,,,,,,3,Ontime,j,1,1.989,5,3,23,3,1,,,,,
,0.89,,,,,,,,,g.PNG,g,5fa4c21a04bc5912180291bc,2021-10-19_21h21.30.659,forced_choiceRT,2021.1.2,Win32,60.07088364,,,,,,,,3,Ontime,g,1,2.0294,6,0,24,1,1,,,,,
,1.97,,,,,,,,,g.PNG,g,5fa4c21a04bc5912180291bc,2021-10-19_21h21.30.659,forced_choiceRT,2021.1.2,Win32,60.07088364,,,,,,,,3,Ontime,g,1,1.9676,6,1,25,1,1,,,,,
,0.32,,,,,,,,,j.PNG,j,5fa4c21a04bc5912180291bc,2021-10-19_21h21.30.659,forced_choiceRT,2021.1.2,Win32,60.07088364,,,,,,,,3,Ontime,j,1,2.0712,6,2,26,3,1,,,,,
,0.11,,,,,,,,,j.PNG,j,5fa4c21a04bc5912180291bc,2021-10-19_21h21.30.659,forced_choiceRT,2021.1.2,Win32,60.07088364,,,,,,,,3,Ontime,j,1,1.9785,6,3,27,3,1,,,,,
,0.26,,,,,,,,,f.PNG,f,5fa4c21a04bc5912180291bc,2021-10-19_21h21.30.659,forced_choiceRT,2021.1.2,Win32,60.07088364,,,,,,,,3,Ontime,f,1,2.0201,7,0,28,0,1,,,,,
,1.82,,,,,,,,,h.PNG,h,5fa4c21a04bc5912180291bc,2021-10-19_21h21.30.659,forced_choiceRT,2021.1.2,Win32,60.07088364,,,,,,,,3,Ontime,j,0,2.0112,7,1,29,2,1,,,,,
,1.72,,,,,,,,,h.PNG,h,5fa4c21a04bc5912180291bc,2021-10-19_21h21.30.659,forced_choiceRT,2021.1.2,Win32,60.07088364,,,,,,,,3,Ontime,j,0,2.0206,7,2,30,2,1,,,,,
,0.77,,,,,,,,,j.PNG,j,5fa4c21a04bc5912180291bc,2021-10-19_21h21.30.659,forced_choiceRT,2021.1.2,Win32,60.07088364,,,,,,,,3,Ontime,j,1,2.0028,7,3,31,3,1,,,,,
,1.72,,,,,,,,,h.PNG,h,5fa4c21a04bc5912180291bc,2021-10-19_21h21.30.659,forced_choiceRT,2021.1.2,Win32,60.07088364,,,,,,,,3,Ontime,g,0,1.9538,8,0,32,2,1,,,,,
,1.63,,,,,,,,,h.PNG,h,5fa4c21a04bc5912180291bc,2021-10-19_21h21.30.659,forced_choiceRT,2021.1.2,Win32,60.07088364,,,,,,,,3,Ontime,h,1,1.9969,8,1,33,2,1,,,,,
,0.65,,,,,,,,,h.PNG,h,5fa4c21a04bc5912180291bc,2021-10-19_21h21.30.659,forced_choiceRT,2021.1.2,Win32,60.07088364,,,,,,,,3,Ontime,h,1,2.0338,8,2,34,2,1,,,,,
,1.32,,,,,,,,,j.PNG,j,5fa4c21a04bc5912180291bc,2021-10-19_21h21.30.659,forced_choiceRT,2021.1.2,Win32,60.07088364,,,,,,,,3,Ontime,j,1,1.9675,8,3,35,3,1,,,,,
,0.33,,,,,,,,,j.PNG,j,5fa4c21a04bc5912180291bc,2021-10-19_21h21.30.659,forced_choiceRT,2021.1.2,Win32,60.07088364,,,,,,,,3,Ontime,j,1,1.9896,9,0,36,3,1,,,,,
,1.53,,,,,,,,,h.PNG,h,5fa4c21a04bc5912180291bc,2021-10-19_21h21.30.659,forced_choiceRT,2021.1.2,Win32,60.07088364,,,,,,,,3,Ontime,h,1,2.042,9,1,37,2,1,,,,,
,1.28,,,,,,,,,g.PNG,g,5fa4c21a04bc5912180291bc,2021-10-19_21h21.30.659,forced_choiceRT,2021.1.2,Win32,60.07088364,,,,,,,,3,Ontime,g,1,2.0005,9,2,38,1,1,,,,,
,0.08,,,,,,,,,g.PNG,g,5fa4c21a04bc5912180291bc,2021-10-19_21h21.30.659,forced_choiceRT,2021.1.2,Win32,60.07088364,,,,,,,,3,Ontime,g,1,1.9547,9,3,39,1,1,,,,,
,,,,,,,,,,,,5fa4c21a04bc5912180291bc,2021-10-19_21h21.30.659,forced_choiceRT,2021.1.2,Win32,60.07088364,,,,,,,,,,,,,,,,,,2,0,2,0,1
,1.54,,,,,,,,,g.PNG,g,5fa4c21a04bc5912180291bc,2021-10-19_21h21.30.659,forced_choiceRT,2021.1.2,Win32,60.07088364,,,,,,,,4,Ontime,j,0,1.9948,0,0,0,1,1,,,,,
,1.95,,,,,,,,,j.PNG,j,5fa4c21a04bc5912180291bc,2021-10-19_21h21.30.659,forced_choiceRT,2021.1.2,Win32,60.07088364,,,,,,,,4,Ontime,g,0,1.9916,0,1,1,3,1,,,,,
,0.51,,,,,,,,,g.PNG,g,5fa4c21a04bc5912180291bc,2021-10-19_21h21.30.659,forced_choiceRT,2021.1.2,Win32,60.07088364,,,,,,,,4,Ontime,g,1,2.032,0,2,2,1,1,,,,,
,0.41,,,,,,,,,h.PNG,h,5fa4c21a04bc5912180291bc,2021-10-19_21h21.30.659,forced_choiceRT,2021.1.2,Win32,60.07088364,,,,,,,,4,Ontime,h,1,2.0343,0,3,3,2,1,,,,,
,1.83,,,,,,,,,g.PNG,g,5fa4c21a04bc5912180291bc,2021-10-19_21h21.30.659,forced_choiceRT,2021.1.2,Win32,60.07088364,,,,,,,,4,Ontime,j,0,2.0322,1,0,4,1,1,,,,,
,0.2,,,,,,,,,f.PNG,f,5fa4c21a04bc5912180291bc,2021-10-19_21h21.30.659,forced_choiceRT,2021.1.2,Win32,60.07088364,,,,,,,,4,Ontime,f,1,2.0168,1,1,5,0,1,,,,,
,1.39,,,,,,,,,h.PNG,h,5fa4c21a04bc5912180291bc,2021-10-19_21h21.30.659,forced_choiceRT,2021.1.2,Win32,60.07088364,,,,,,,,4,Ontime,h,1,2.0242,1,2,6,2,1,,,,,
,1.71,,,,,,,,,f.PNG,f,5fa4c21a04bc5912180291bc,2021-10-19_21h21.30.659,forced_choiceRT,2021.1.2,Win32,60.07088364,,,,,,,,4,Ontime,j,0,1.9711,1,3,7,0,1,,,,,
,0.17,,,,,,,,,h.PNG,h,5fa4c21a04bc5912180291bc,2021-10-19_21h21.30.659,forced_choiceRT,2021.1.2,Win32,60.07088364,,,,,,,,4,Ontime,h,1,1.9214,2,0,8,2,1,,,,,
,1.98,,,,,,,,,j.PNG,j,5fa4c21a04bc5912180291bc,2021-10-19_21h21.30.659,forced_choiceRT,2021.1.2,Win32,60.07088364,,,,,,,,4,Ontime,f,0,2.0172,2,1,9,3,1,,,,,
,1.56,,,,,,,,,j.PNG,j,5fa4c21a04bc5912180291bc,2021-10-19_21h21.30.659,forced_choiceRT,2021.1.2,Win32,60.07088364,,,,,,,,4,Ontime,h,0,1.9553,2,2,10,3,1,,,,,
,1.65,,,,,,,,,j.PNG,j,5fa4c21a04bc5912180291bc,2021-10-19_21h21.30.659,forced_choiceRT,2021.1.2,Win32,60.07088364,,,,,,,,4,Ontime,j,1,2.0196,2,3,11,3,1,,,,,
,1.07,,,,,,,,,h.PNG,h,5fa4c21a04bc5912180291bc,2021-10-19_21h21.30.659,forced_choiceRT,2021.1.2,Win32,60.07088364,,,,,,,,4,Ontime,h,1,1.9895,3,0,12,2,1,,,,,
,1.01,,,,,,,,,h.PNG,h,5fa4c21a04bc5912180291bc,2021-10-19_21h21.30.659,forced_choiceRT,2021.1.2,Win32,60.07088364,,,,,,,,4,Fast,h,1,1.818,3,1,13,2,1,,,,,
,0.49,,,,,,,,,h.PNG,h,5fa4c21a04bc5912180291bc,2021-10-19_21h21.30.659,forced_choiceRT,2021.1.2,Win32,60.07088364,,,,,,,,4,Ontime,h,1,2.0576,3,2,14,2,1,,,,,
,1.81,,,,,,,,,f.PNG,f,5fa4c21a04bc5912180291bc,2021-10-19_21h21.30.659,forced_choiceRT,2021.1.2,Win32,60.07088364,,,,,,,,4,Ontime,j,0,1.9827,3,3,15,0,1,,,,,
,0.31,,,,,,,,,g.PNG,g,5fa4c21a04bc5912180291bc,2021-10-19_21h21.30.659,forced_choiceRT,2021.1.2,Win32,60.07088364,,,,,,,,4,Slow,g,1,2.1039,4,0,16,1,1,,,,,
,1.86,,,,,,,,,j.PNG,j,5fa4c21a04bc5912180291bc,2021-10-19_21h21.30.659,forced_choiceRT,2021.1.2,Win32,60.07088364,,,,,,,,4,Ontime,g,0,1.9866,4,1,17,3,1,,,,,
,1.09,,,,,,,,,j.PNG,j,5fa4c21a04bc5912180291bc,2021-10-19_21h21.30.659,forced_choiceRT,2021.1.2,Win32,60.07088364,,,,,,,,4,Ontime,j,1,1.9748,4,2,18,3,1,,,,,
,1.79,,,,,,,,,h.PNG,h,5fa4c21a04bc5912180291bc,2021-10-19_21h21.30.659,forced_choiceRT,2021.1.2,Win32,60.07088364,,,,,,,,4,Slow,h,1,2.4318,4,3,19,2,1,,,,,
,0.97,,,,,,,,,f.PNG,f,5fa4c21a04bc5912180291bc,2021-10-19_21h21.30.659,forced_choiceRT,2021.1.2,Win32,60.07088364,,,,,,,,4,Ontime,f,1,1.9485,5,0,20,0,1,,,,,
,1.84,,,,,,,,,h.PNG,h,5fa4c21a04bc5912180291bc,2021-10-19_21h21.30.659,forced_choiceRT,2021.1.2,Win32,60.07088364,,,,,,,,4,Ontime,g,0,1.944,5,1,21,2,1,,,,,
,0.44,,,,,,,,,g.PNG,g,5fa4c21a04bc5912180291bc,2021-10-19_21h21.30.659,forced_choiceRT,2021.1.2,Win32,60.07088364,,,,,,,,4,Ontime,g,1,1.9974,5,2,22,1,1,,,,,
,0.23,,,,,,,,,g.PNG,g,5fa4c21a04bc5912180291bc,2021-10-19_21h21.30.659,forced_choiceRT,2021.1.2,Win32,60.07088364,,,,,,,,4,Ontime,g,1,2.0204,5,3,23,1,1,,,,,
,0.12,,,,,,,,,f.PNG,f,5fa4c21a04bc5912180291bc,2021-10-19_21h21.30.659,forced_choiceRT,2021.1.2,Win32,60.07088364,,,,,,,,4,Ontime,f,1,1.9544,6,0,24,0,1,,,,,
,0.71,,,,,,,,,g.PNG,g,5fa4c21a04bc5912180291bc,2021-10-19_21h21.30.659,forced_choiceRT,2021.1.2,Win32,60.07088364,,,,,,,,4,Ontime,g,1,1.9662,6,1,25,1,1,,,,,
,0.63,,,,,,,,,g.PNG,g,5fa4c21a04bc5912180291bc,2021-10-19_21h21.30.659,forced_choiceRT,2021.1.2,Win32,60.07088364,,,,,,,,4,Ontime,g,1,1.9736,6,2,26,1,1,,,,,
,0.5,,,,,,,,,g.PNG,g,5fa4c21a04bc5912180291bc,2021-10-19_21h21.30.659,forced_choiceRT,2021.1.2,Win32,60.07088364,,,,,,,,4,Ontime,g,1,2.0025,6,3,27,1,1,,,,,
,1.32,,,,,,,,,f.PNG,f,5fa4c21a04bc5912180291bc,2021-10-19_21h21.30.659,forced_choiceRT,2021.1.2,Win32,60.07088364,,,,,,,,4,Ontime,f,1,2.0036,7,0,28,0,1,,,,,
,0.5,,,,,,,,,f.PNG,f,5fa4c21a04bc5912180291bc,2021-10-19_21h21.30.659,forced_choiceRT,2021.1.2,Win32,60.07088364,,,,,,,,4,Ontime,f,1,1.9632,7,1,29,0,1,,,,,
,0.07,,,,,,,,,f.PNG,f,5fa4c21a04bc5912180291bc,2021-10-19_21h21.30.659,forced_choiceRT,2021.1.2,Win32,60.07088364,,,,,,,,4,Ontime,f,1,2.0347,7,2,30,0,1,,,,,
,0.79,,,,,,,,,g.PNG,g,5fa4c21a04bc5912180291bc,2021-10-19_21h21.30.659,forced_choiceRT,2021.1.2,Win32,60.07088364,,,,,,,,4,Ontime,g,1,1.9977,7,3,31,1,1,,,,,
,1.32,,,,,,,,,j.PNG,j,5fa4c21a04bc5912180291bc,2021-10-19_21h21.30.659,forced_choiceRT,2021.1.2,Win32,60.07088364,,,,,,,,4,Ontime,j,1,2.0332,8,0,32,3,1,,,,,
,1.02,,,,,,,,,j.PNG,j,5fa4c21a04bc5912180291bc,2021-10-19_21h21.30.659,forced_choiceRT,2021.1.2,Win32,60.07088364,,,,,,,,4,Ontime,j,1,1.9173,8,1,33,3,1,,,,,
,1.13,,,,,,,,,j.PNG,j,5fa4c21a04bc5912180291bc,2021-10-19_21h21.30.659,forced_choiceRT,2021.1.2,Win32,60.07088364,,,,,,,,4,Ontime,j,1,1.9967,8,2,34,3,1,,,,,
,0.06,,,,,,,,,h.PNG,h,5fa4c21a04bc5912180291bc,2021-10-19_21h21.30.659,forced_choiceRT,2021.1.2,Win32,60.07088364,,,,,,,,4,Ontime,h,1,2.0019,8,3,35,2,1,,,,,
,0.84,,,,,,,,,h.PNG,h,5fa4c21a04bc5912180291bc,2021-10-19_21h21.30.659,forced_choiceRT,2021.1.2,Win32,60.07088364,,,,,,,,4,Ontime,h,1,1.9501,9,0,36,2,1,,,,,
,0.13,,,,,,,,,j.PNG,j,5fa4c21a04bc5912180291bc,2021-10-19_21h21.30.659,forced_choiceRT,2021.1.2,Win32,60.07088364,,,,,,,,4,Ontime,j,1,1.9075,9,1,37,3,1,,,,,
,0.53,,,,,,,,,f.PNG,f,5fa4c21a04bc5912180291bc,2021-10-19_21h21.30.659,forced_choiceRT,2021.1.2,Win32,60.07088364,,,,,,,,4,Ontime,f,1,1.9522,9,2,38,0,1,,,,,
,0.08,,,,,,,,,f.PNG,f,5fa4c21a04bc5912180291bc,2021-10-19_21h21.30.659,forced_choiceRT,2021.1.2,Win32,60.07088364,,,,,,,,4,Ontime,f,1,1.9554,9,3,39,0,1,,,,,
,,,,,,,,,,,,5fa4c21a04bc5912180291bc,2021-10-19_21h21.30.659,forced_choiceRT,2021.1.2,Win32,60.07088364,,,,,,,,,,,,,,,,,,3,0,3,0,1
,0.29,,,,,,,,,j.PNG,j,5fa4c21a04bc5912180291bc,2021-10-19_21h21.30.659,forced_choiceRT,2021.1.2,Win32,60.07088364,,,,,,,,5,Ontime,j,1,2.0177,0,0,0,3,1,,,,,
,1.46,,,,,,,,,j.PNG,j,5fa4c21a04bc5912180291bc,2021-10-19_21h21.30.659,forced_choiceRT,2021.1.2,Win32,60.07088364,,,,,,,,5,Ontime,j,1,2.0566,0,1,1,3,1,,,,,
,0.17,,,,,,,,,g.PNG,g,5fa4c21a04bc5912180291bc,2021-10-19_21h21.30.659,forced_choiceRT,2021.1.2,Win32,60.07088364,,,,,,,,5,Ontime,g,1,1.9806,0,2,2,1,1,,,,,
,0.68,,,,,,,,,g.PNG,g,5fa4c21a04bc5912180291bc,2021-10-19_21h21.30.659,forced_choiceRT,2021.1.2,Win32,60.07088364,,,,,,,,5,Ontime,g,1,2.0034,0,3,3,1,1,,,,,
,0.06,,,,,,,,,g.PNG,g,5fa4c21a04bc5912180291bc,2021-10-19_21h21.30.659,forced_choiceRT,2021.1.2,Win32,60.07088364,,,,,,,,5,Ontime,g,1,1.968,1,0,4,1,1,,,,,
,0.1,,,,,,,,,h.PNG,h,5fa4c21a04bc5912180291bc,2021-10-19_21h21.30.659,forced_choiceRT,2021.1.2,Win32,60.07088364,,,,,,,,5,Ontime,h,1,1.9827,1,1,5,2,1,,,,,
,0.54,,,,,,,,,g.PNG,g,5fa4c21a04bc5912180291bc,2021-10-19_21h21.30.659,forced_choiceRT,2021.1.2,Win32,60.07088364,,,,,,,,5,Ontime,g,1,1.9481,1,2,6,1,1,,,,,
,1.21,,,,,,,,,h.PNG,h,5fa4c21a04bc5912180291bc,2021-10-19_21h21.30.659,forced_choiceRT,2021.1.2,Win32,60.07088364,,,,,,,,5,Ontime,h,1,2.0159,1,3,7,2,1,,,,,
,1.45,,,,,,,,,h.PNG,h,5fa4c21a04bc5912180291bc,2021-10-19_21h21.30.659,forced_choiceRT,2021.1.2,Win32,60.07088364,,,,,,,,5,Ontime,h,1,2.0062,2,0,8,2,1,,,,,
,1.38,,,,,,,,,f.PNG,f,5fa4c21a04bc5912180291bc,2021-10-19_21h21.30.659,forced_choiceRT,2021.1.2,Win32,60.07088364,,,,,,,,5,Ontime,f,1,2.0195,2,1,9,0,1,,,,,
,1.94,,,,,,,,,j.PNG,j,5fa4c21a04bc5912180291bc,2021-10-19_21h21.30.659,forced_choiceRT,2021.1.2,Win32,60.07088364,,,,,,,,5,Ontime,f,0,1.9731,2,2,10,3,1,,,,,
,1.87,,,,,,,,,j.PNG,j,5fa4c21a04bc5912180291bc,2021-10-19_21h21.30.659,forced_choiceRT,2021.1.2,Win32,60.07088364,,,,,,,,5,Ontime,h,0,1.9737,2,3,11,3,1,,,,,
,1.63,,,,,,,,,h.PNG,h,5fa4c21a04bc5912180291bc,2021-10-19_21h21.30.659,forced_choiceRT,2021.1.2,Win32,60.07088364,,,,,,,,5,Ontime,j,0,2.0308,3,0,12,2,1,,,,,
,1.9,,,,,,,,,j.PNG,j,5fa4c21a04bc5912180291bc,2021-10-19_21h21.30.659,forced_choiceRT,2021.1.2,Win32,60.07088364,,,,,,,,5,Ontime,j,1,2.0054,3,1,13,3,1,,,,,
,1.07,,,,,,,,,h.PNG,h,5fa4c21a04bc5912180291bc,2021-10-19_21h21.30.659,forced_choiceRT,2021.1.2,Win32,60.07088364,,,,,,,,5,Ontime,h,1,2.0571,3,2,14,2,1,,,,,
,1.42,,,,,,,,,j.PNG,j,5fa4c21a04bc5912180291bc,2021-10-19_21h21.30.659,forced_choiceRT,2021.1.2,Win32,60.07088364,,,,,,,,5,Ontime,j,1,2.0553,3,3,15,3,1,,,,,
,0.8,,,,,,,,,f.PNG,f,5fa4c21a04bc5912180291bc,2021-10-19_21h21.30.659,forced_choiceRT,2021.1.2,Win32,60.07088364,,,,,,,,5,Ontime,f,1,2.041,4,0,16,0,1,,,,,
,1.62,,,,,,,,,f.PNG,f,5fa4c21a04bc5912180291bc,2021-10-19_21h21.30.659,forced_choiceRT,2021.1.2,Win32,60.07088364,,,,,,,,5,Ontime,f,1,1.9827,4,1,17,0,1,,,,,
,1.69,,,,,,,,,g.PNG,g,5fa4c21a04bc5912180291bc,2021-10-19_21h21.30.659,forced_choiceRT,2021.1.2,Win32,60.07088364,,,,,,,,5,Ontime,f,0,2.0493,4,2,18,1,1,,,,,
,0.07,,,,,,,,,j.PNG,j,5fa4c21a04bc5912180291bc,2021-10-19_21h21.30.659,forced_choiceRT,2021.1.2,Win32,60.07088364,,,,,,,,5,Ontime,j,1,2.0035,4,3,19,3,1,,,,,
,1.44,,,,,,,,,f.PNG,f,5fa4c21a04bc5912180291bc,2021-10-19_21h21.30.659,forced_choiceRT,2021.1.2,Win32,60.07088364,,,,,,,,5,Ontime,f,1,2.038,5,0,20,0,1,,,,,
,1.11,,,,,,,,,f.PNG,f,5fa4c21a04bc5912180291bc,2021-10-19_21h21.30.659,forced_choiceRT,2021.1.2,Win32,60.07088364,,,,,,,,5,Ontime,f,1,2.0125,5,1,21,0,1,,,,,
,0.33,,,,,,,,,f.PNG,f,5fa4c21a04bc5912180291bc,2021-10-19_21h21.30.659,forced_choiceRT,2021.1.2,Win32,60.07088364,,,,,,,,5,Ontime,f,1,1.9869,5,2,22,0,1,,,,,
,1.34,,,,,,,,,f.PNG,f,5fa4c21a04bc5912180291bc,2021-10-19_21h21.30.659,forced_choiceRT,2021.1.2,Win32,60.07088364,,,,,,,,5,Ontime,f,1,2.0501,5,3,23,0,1,,,,,
,0.11,,,,,,,,,g.PNG,g,5fa4c21a04bc5912180291bc,2021-10-19_21h21.30.659,forced_choiceRT,2021.1.2,Win32,60.07088364,,,,,,,,5,Ontime,g,1,1.9698,6,0,24,1,1,,,,,
,0.02,,,,,,,,,g.PNG,g,5fa4c21a04bc5912180291bc,2021-10-19_21h21.30.659,forced_choiceRT,2021.1.2,Win32,60.07088364,,,,,,,,5,Ontime,g,1,1.9583,6,1,25,1,1,,,,,
,0.94,,,,,,,,,h.PNG,h,5fa4c21a04bc5912180291bc,2021-10-19_21h21.30.659,forced_choiceRT,2021.1.2,Win32,60.07088364,,,,,,,,5,Ontime,h,1,2.0513,6,2,26,2,1,,,,,
,1.77,,,,,,,,,g.PNG,g,5fa4c21a04bc5912180291bc,2021-10-19_21h21.30.659,forced_choiceRT,2021.1.2,Win32,60.07088364,,,,,,,,5,Ontime,j,0,1.9809,6,3,27,1,1,,,,,
,1.76,,,,,,,,,j.PNG,j,5fa4c21a04bc5912180291bc,2021-10-19_21h21.30.659,forced_choiceRT,2021.1.2,Win32,60.07088364,,,,,,,,5,Ontime,g,0,1.9845,7,0,28,3,1,,,,,
,0.51,,,,,,,,,g.PNG,g,5fa4c21a04bc5912180291bc,2021-10-19_21h21.30.659,forced_choiceRT,2021.1.2,Win32,60.07088364,,,,,,,,5,Ontime,g,1,1.9663,7,1,29,1,1,,,,,
,0.74,,,,,,,,,h.PNG,h,5fa4c21a04bc5912180291bc,2021-10-19_21h21.30.659,forced_choiceRT,2021.1.2,Win32,60.07088364,,,,,,,,5,Ontime,h,1,1.936,7,2,30,2,1,,,,,
,0.95,,,,,,,,,h.PNG,h,5fa4c21a04bc5912180291bc,2021-10-19_21h21.30.659,forced_choiceRT,2021.1.2,Win32,60.07088364,,,,,,,,5,Ontime,h,1,1.9726,7,3,31,2,1,,,,,
,0.2,,,,,,,,,h.PNG,h,5fa4c21a04bc5912180291bc,2021-10-19_21h21.30.659,forced_choiceRT,2021.1.2,Win32,60.07088364,,,,,,,,5,Ontime,h,1,1.9245,8,0,32,2,1,,,,,
,1.12,,,,,,,,,j.PNG,j,5fa4c21a04bc5912180291bc,2021-10-19_21h21.30.659,forced_choiceRT,2021.1.2,Win32,60.07088364,,,,,,,,5,Ontime,j,1,2.0153,8,1,33,3,1,,,,,
,0.75,,,,,,,,,j.PNG,j,5fa4c21a04bc5912180291bc,2021-10-19_21h21.30.659,forced_choiceRT,2021.1.2,Win32,60.07088364,,,,,,,,5,Ontime,j,1,2.0018,8,2,34,3,1,,,,,
,1.22,,,,,,,,,g.PNG,g,5fa4c21a04bc5912180291bc,2021-10-19_21h21.30.659,forced_choiceRT,2021.1.2,Win32,60.07088364,,,,,,,,5,Ontime,f,0,2.0736,8,3,35,1,1,,,,,
,0.21,,,,,,,,,f.PNG,f,5fa4c21a04bc5912180291bc,2021-10-19_21h21.30.659,forced_choiceRT,2021.1.2,Win32,60.07088364,,,,,,,,5,Ontime,f,1,1.9513,9,0,36,0,1,,,,,
,1.28,,,,,,,,,h.PNG,h,5fa4c21a04bc5912180291bc,2021-10-19_21h21.30.659,forced_choiceRT,2021.1.2,Win32,60.07088364,,,,,,,,5,Ontime,h,1,2.0874,9,1,37,2,1,,,,,
,0.92,,,,,,,,,f.PNG,f,5fa4c21a04bc5912180291bc,2021-10-19_21h21.30.659,forced_choiceRT,2021.1.2,Win32,60.07088364,,,,,,,,5,Ontime,f,1,1.9714,9,2,38,0,1,,,,,
,1.75,,,,,,,,,f.PNG,f,5fa4c21a04bc5912180291bc,2021-10-19_21h21.30.659,forced_choiceRT,2021.1.2,Win32,60.07088364,,,,,,,,5,Ontime,j,0,1.9724,9,3,39,0,1,,,,,
,,,,,,,,,,,,5fa4c21a04bc5912180291bc,2021-10-19_21h21.30.659,forced_choiceRT,2021.1.2,Win32,60.07088364,,,,,,,,,,,,,,,,,,4,0,4,0,1
,0.01,,,,,,,,,h.PNG,h,5fa4c21a04bc5912180291bc,2021-10-19_21h21.30.659,forced_choiceRT,2021.1.2,Win32,60.07088364,,,,,,,,6,Ontime,h,1,1.9438,0,0,0,2,1,,,,,
,1.33,,,,,,,,,j.PNG,j,5fa4c21a04bc5912180291bc,2021-10-19_21h21.30.659,forced_choiceRT,2021.1.2,Win32,60.07088364,,,,,,,,6,Ontime,j,1,2.0785,0,1,1,3,1,,,,,
,0.91,,,,,,,,,h.PNG,h,5fa4c21a04bc5912180291bc,2021-10-19_21h21.30.659,forced_choiceRT,2021.1.2,Win32,60.07088364,,,,,,,,6,Ontime,h,1,2.0219,0,2,2,2,1,,,,,
,0.52,,,,,,,,,h.PNG,h,5fa4c21a04bc5912180291bc,2021-10-19_21h21.30.659,forced_choiceRT,2021.1.2,Win32,60.07088364,,,,,,,,6,Ontime,h,1,1.9293,0,3,3,2,1,,,,,
,0.42,,,,,,,,,h.PNG,h,5fa4c21a04bc5912180291bc,2021-10-19_21h21.30.659,forced_choiceRT,2021.1.2,Win32,60.07088364,,,,,,,,6,Ontime,h,1,2.0306,1,0,4,2,1,,,,,
,0.55,,,,,,,,,f.PNG,f,5fa4c21a04bc5912180291bc,2021-10-19_21h21.30.659,forced_choiceRT,2021.1.2,Win32,60.07088364,,,,,,,,6,Ontime,f,1,2.0031,1,1,5,0,1,,,,,
,1.14,,,,,,,,,f.PNG,f,5fa4c21a04bc5912180291bc,2021-10-19_21h21.30.659,forced_choiceRT,2021.1.2,Win32,60.07088364,,,,,,,,6,Slow,f,1,2.1038,1,2,6,0,1,,,,,
,0.38,,,,,,,,,g.PNG,g,5fa4c21a04bc5912180291bc,2021-10-19_21h21.30.659,forced_choiceRT,2021.1.2,Win32,60.07088364,,,,,,,,6,Fast,g,1,1.8952,1,3,7,1,1,,,,,
,0.79,,,,,,,,,j.PNG,j,5fa4c21a04bc5912180291bc,2021-10-19_21h21.30.659,forced_choiceRT,2021.1.2,Win32,60.07088364,,,,,,,,6,Ontime,j,1,2.0579,2,0,8,3,1,,,,,
,1.47,,,,,,,,,f.PNG,f,5fa4c21a04bc5912180291bc,2021-10-19_21h21.30.659,forced_choiceRT,2021.1.2,Win32,60.07088364,,,,,,,,6,Ontime,f,1,2.0521,2,1,9,0,1,,,,,
,1.65,,,,,,,,,h.PNG,h,5fa4c21a04bc5912180291bc,2021-10-19_21h21.30.659,forced_choiceRT,2021.1.2,Win32,60.07088364,,,,,,,,6,Slow,h,1,2.2835,2,2,10,2,1,,,,,
,0.33,,,,,,,,,h.PNG,h,5fa4c21a04bc5912180291bc,2021-10-19_21h21.30.659,forced_choiceRT,2021.1.2,Win32,60.07088364,,,,,,,,6,Ontime,h,1,2.0039,2,3,11,2,1,,,,,
,0.08,,,,,,,,,f.PNG,f,5fa4c21a04bc5912180291bc,2021-10-19_21h21.30.659,forced_choiceRT,2021.1.2,Win32,60.07088364,,,,,,,,6,Ontime,f,1,2.0484,3,0,12,0,1,,,,,
,1.14,,,,,,,,,f.PNG,f,5fa4c21a04bc5912180291bc,2021-10-19_21h21.30.659,forced_choiceRT,2021.1.2,Win32,60.07088364,,,,,,,,6,Ontime,f,1,2.0183,3,1,13,0,1,,,,,
,1.99,,,,,,,,,f.PNG,f,5fa4c21a04bc5912180291bc,2021-10-19_21h21.30.659,forced_choiceRT,2021.1.2,Win32,60.07088364,,,,,,,,6,Ontime,j,0,1.9727,3,2,14,0,1,,,,,
,0.52,,,,,,,,,j.PNG,j,5fa4c21a04bc5912180291bc,2021-10-19_21h21.30.659,forced_choiceRT,2021.1.2,Win32,60.07088364,,,,,,,,6,Ontime,j,1,2.0693,3,3,15,3,1,,,,,
,0.34,,,,,,,,,j.PNG,j,5fa4c21a04bc5912180291bc,2021-10-19_21h21.30.659,forced_choiceRT,2021.1.2,Win32,60.07088364,,,,,,,,6,Ontime,j,1,2.0649,4,0,16,3,1,,,,,
,0.92,,,,,,,,,g.PNG,g,5fa4c21a04bc5912180291bc,2021-10-19_21h21.30.659,forced_choiceRT,2021.1.2,Win32,60.07088364,,,,,,,,6,Ontime,g,1,2.0861,4,1,17,1,1,,,,,
,1.64,,,,,,,,,h.PNG,h,5fa4c21a04bc5912180291bc,2021-10-19_21h21.30.659,forced_choiceRT,2021.1.2,Win32,60.07088364,,,,,,,,6,Ontime,j,0,1.9823,4,2,18,2,1,,,,,
,0.37,,,,,,,,,j.PNG,j,5fa4c21a04bc5912180291bc,2021-10-19_21h21.30.659,forced_choiceRT,2021.1.2,Win32,60.07088364,,,,,,,,6,Ontime,j,1,2.053,4,3,19,3,1,,,,,
,1.56,,,,,,,,,j.PNG,j,5fa4c21a04bc5912180291bc,2021-10-19_21h21.30.659,forced_choiceRT,2021.1.2,Win32,60.07088364,,,,,,,,6,Ontime,g,0,2.0736,5,0,20,3,1,,,,,
,0.21,,,,,,,,,j.PNG,j,5fa4c21a04bc5912180291bc,2021-10-19_21h21.30.659,forced_choiceRT,2021.1.2,Win32,60.07088364,,,,,,,,6,Ontime,j,1,2.0563,5,1,21,3,1,,,,,
,1.14,,,,,,,,,f.PNG,f,5fa4c21a04bc5912180291bc,2021-10-19_21h21.30.659,forced_choiceRT,2021.1.2,Win32,60.07088364,,,,,,,,6,Ontime,f,1,2.0563,5,2,22,0,1,,,,,
,0.67,,,,,,,,,j.PNG,j,5fa4c21a04bc5912180291bc,2021-10-19_21h21.30.659,forced_choiceRT,2021.1.2,Win32,60.07088364,,,,,,,,6,Ontime,j,1,1.9997,5,3,23,3,1,,,,,
,1.23,,,,,,,,,g.PNG,g,5fa4c21a04bc5912180291bc,2021-10-19_21h21.30.659,forced_choiceRT,2021.1.2,Win32,60.07088364,,,,,,,,6,Ontime,g,1,1.9705,6,0,24,1,1,,,,,
,0.4,,,,,,,,,j.PNG,j,5fa4c21a04bc5912180291bc,2021-10-19_21h21.30.659,forced_choiceRT,2021.1.2,Win32,60.07088364,,,,,,,,6,Ontime,j,1,2.049,6,1,25,3,1,,,,,
,0.22,,,,,,,,,h.PNG,h,5fa4c21a04bc5912180291bc,2021-10-19_21h21.30.659,forced_choiceRT,2021.1.2,Win32,60.07088364,,,,,,,,6,Ontime,h,1,2.0541,6,2,26,2,1,,,,,
,0.6,,,,,,,,,h.PNG,h,5fa4c21a04bc5912180291bc,2021-10-19_21h21.30.659,forced_choiceRT,2021.1.2,Win32,60.07088364,,,,,,,,6,Ontime,h,1,2.037,6,3,27,2,1,,,,,
,1.11,,,,,,,,,j.PNG,j,5fa4c21a04bc5912180291bc,2021-10-19_21h21.30.659,forced_choiceRT,2021.1.2,Win32,60.07088364,,,,,,,,6,Ontime,j,1,2.0708,7,0,28,3,1,,,,,
,0.13,,,,,,,,,g.PNG,g,5fa4c21a04bc5912180291bc,2021-10-19_21h21.30.659,forced_choiceRT,2021.1.2,Win32,60.07088364,,,,,,,,6,Ontime,g,1,2.0032,7,1,29,1,1,,,,,
,0.09,,,,,,,,,f.PNG,f,5fa4c21a04bc5912180291bc,2021-10-19_21h21.30.659,forced_choiceRT,2021.1.2,Win32,60.07088364,,,,,,,,6,Ontime,f,1,2.0038,7,2,30,0,1,,,,,
,1.24,,,,,,,,,h.PNG,h,5fa4c21a04bc5912180291bc,2021-10-19_21h21.30.659,forced_choiceRT,2021.1.2,Win32,60.07088364,,,,,,,,6,Ontime,h,1,2.0529,7,3,31,2,1,,,,,
,0.29,,,,,,,,,g.PNG,g,5fa4c21a04bc5912180291bc,2021-10-19_21h21.30.659,forced_choiceRT,2021.1.2,Win32,60.07088364,,,,,,,,6,Ontime,g,1,2.0525,8,0,32,1,1,,,,,
,1.56,,,,,,,,,g.PNG,g,5fa4c21a04bc5912180291bc,2021-10-19_21h21.30.659,forced_choiceRT,2021.1.2,Win32,60.07088364,,,,,,,,6,Slow,f,0,2.1512,8,1,33,1,1,,,,,
,1.41,,,,,,,,,f.PNG,f,5fa4c21a04bc5912180291bc,2021-10-19_21h21.30.659,forced_choiceRT,2021.1.2,Win32,60.07088364,,,,,,,,6,Ontime,f,1,1.9849,8,2,34,0,1,,,,,
,0.57,,,,,,,,,g.PNG,g,5fa4c21a04bc5912180291bc,2021-10-19_21h21.30.659,forced_choiceRT,2021.1.2,Win32,60.07088364,,,,,,,,6,Ontime,g,1,1.999,8,3,35,1,1,,,,,
,1.28,,,,,,,,,g.PNG,g,5fa4c21a04bc5912180291bc,2021-10-19_21h21.30.659,forced_choiceRT,2021.1.2,Win32,60.07088364,,,,,,,,6,Ontime,g,1,1.937,9,0,36,1,1,,,,,
,0.96,,,,,,,,,g.PNG,g,5fa4c21a04bc5912180291bc,2021-10-19_21h21.30.659,forced_choiceRT,2021.1.2,Win32,60.07088364,,,,,,,,6,Ontime,g,1,1.9954,9,1,37,1,1,,,,,
,0.4,,,,,,,,,g.PNG,g,5fa4c21a04bc5912180291bc,2021-10-19_21h21.30.659,forced_choiceRT,2021.1.2,Win32,60.07088364,,,,,,,,6,Ontime,g,1,1.9667,9,2,38,1,1,,,,,
,1.81,,,,,,,,,f.PNG,f,5fa4c21a04bc5912180291bc,2021-10-19_21h21.30.659,forced_choiceRT,2021.1.2,Win32,60.07088364,,,,,,,,6,Ontime,j,0,1.9839,9,3,39,0,1,,,,,
,,,,,,,,,,,,5fa4c21a04bc5912180291bc,2021-10-19_21h21.30.659,forced_choiceRT,2021.1.2,Win32,60.07088364,,,,,,,,,,,,,,,,,,5,0,5,0,1
,0.18,,,,,,,,,j.PNG,j,5fa4c21a04bc5912180291bc,2021-10-19_21h21.30.659,forced_choiceRT,2021.1.2,Win32,60.07088364,,,,,,,,7,Ontime,j,1,2.0165,0,0,0,3,1,,,,,
,0.21,,,,,,,,,h.PNG,h,5fa4c21a04bc5912180291bc,2021-10-19_21h21.30.659,forced_choiceRT,2021.1.2,Win32,60.07088364,,,,,,,,7,Ontime,h,1,1.9671,0,1,1,2,1,,,,,
,0.73,,,,,,,,,h.PNG,h,5fa4c21a04bc5912180291bc,2021-10-19_21h21.30.659,forced_choiceRT,2021.1.2,Win32,60.07088364,,,,,,,,7,Ontime,h,1,2.0029,0,2,2,2,1,,,,,
,0.53,,,,,,,,,h.PNG,h,5fa4c21a04bc5912180291bc,2021-10-19_21h21.30.659,forced_choiceRT,2021.1.2,Win32,60.07088364,,,,,,,,7,Ontime,h,1,1.9833,0,3,3,2,1,,,,,
,1.65,,,,,,,,,j.PNG,j,5fa4c21a04bc5912180291bc,2021-10-19_21h21.30.659,forced_choiceRT,2021.1.2,Win32,60.07088364,,,,,,,,7,Ontime,j,1,1.9825,1,0,4,3,1,,,,,
,0.12,,,,,,,,,h.PNG,h,5fa4c21a04bc5912180291bc,2021-10-19_21h21.30.659,forced_choiceRT,2021.1.2,Win32,60.07088364,,,,,,,,7,Ontime,h,1,2.0184,1,1,5,2,1,,,,,
,1.08,,,,,,,,,f.PNG,f,5fa4c21a04bc5912180291bc,2021-10-19_21h21.30.659,forced_choiceRT,2021.1.2,Win32,60.07088364,,,,,,,,7,Ontime,f,1,1.9678,1,2,6,0,1,,,,,
,1.79,,,,,,,,,f.PNG,f,5fa4c21a04bc5912180291bc,2021-10-19_21h21.30.659,forced_choiceRT,2021.1.2,Win32,60.07088364,,,,,,,,7,Ontime,j,0,2.02,1,3,7,0,1,,,,,
,0.59,,,,,,,,,h.PNG,h,5fa4c21a04bc5912180291bc,2021-10-19_21h21.30.659,forced_choiceRT,2021.1.2,Win32,60.07088364,,,,,,,,7,Ontime,h,1,1.9856,2,0,8,2,1,,,,,
,0.27,,,,,,,,,j.PNG,j,5fa4c21a04bc5912180291bc,2021-10-19_21h21.30.659,forced_choiceRT,2021.1.2,Win32,60.07088364,,,,,,,,7,Ontime,j,1,1.9394,2,1,9,3,1,,,,,
,0.99,,,,,,,,,g.PNG,g,5fa4c21a04bc5912180291bc,2021-10-19_21h21.30.659,forced_choiceRT,2021.1.2,Win32,60.07088364,,,,,,,,7,Ontime,g,1,1.9967,2,2,10,1,1,,,,,
,1.68,,,,,,,,,g.PNG,g,5fa4c21a04bc5912180291bc,2021-10-19_21h21.30.659,forced_choiceRT,2021.1.2,Win32,60.07088364,,,,,,,,7,Ontime,g,1,2.0456,2,3,11,1,1,,,,,
,0.94,,,,,,,,,f.PNG,f,5fa4c21a04bc5912180291bc,2021-10-19_21h21.30.659,forced_choiceRT,2021.1.2,Win32,60.07088364,,,,,,,,7,Ontime,f,1,1.9807,3,0,12,0,1,,,,,
,1.59,,,,,,,,,j.PNG,j,5fa4c21a04bc5912180291bc,2021-10-19_21h21.30.659,forced_choiceRT,2021.1.2,Win32,60.07088364,,,,,,,,7,Ontime,j,1,1.9673,3,1,13,3,1,,,,,
,0.49,,,,,,,,,h.PNG,h,5fa4c21a04bc5912180291bc,2021-10-19_21h21.30.659,forced_choiceRT,2021.1.2,Win32,60.07088364,,,,,,,,7,Ontime,h,1,1.9899,3,2,14,2,1,,,,,
,1.42,,,,,,,,,f.PNG,f,5fa4c21a04bc5912180291bc,2021-10-19_21h21.30.659,forced_choiceRT,2021.1.2,Win32,60.07088364,,,,,,,,7,Ontime,f,1,1.9791,3,3,15,0,1,,,,,
,1.47,,,,,,,,,g.PNG,g,5fa4c21a04bc5912180291bc,2021-10-19_21h21.30.659,forced_choiceRT,2021.1.2,Win32,60.07088364,,,,,,,,7,Ontime,f,0,2.0074,4,0,16,1,1,,,,,
,0,,,,,,,,,j.PNG,j,5fa4c21a04bc5912180291bc,2021-10-19_21h21.30.659,forced_choiceRT,2021.1.2,Win32,60.07088364,,,,,,,,7,Ontime,j,1,2.0505,4,1,17,3,1,,,,,
,0.13,,,,,,,,,f.PNG,f,5fa4c21a04bc5912180291bc,2021-10-19_21h21.30.659,forced_choiceRT,2021.1.2,Win32,60.07088364,,,,,,,,7,Ontime,f,1,2.0749,4,2,18,0,1,,,,,
,1.28,,,,,,,,,f.PNG,f,5fa4c21a04bc5912180291bc,2021-10-19_21h21.30.659,forced_choiceRT,2021.1.2,Win32,60.07088364,,,,,,,,7,Ontime,f,1,2.0579,4,3,19,0,1,,,,,
,0.5,,,,,,,,,g.PNG,g,5fa4c21a04bc5912180291bc,2021-10-19_21h21.30.659,forced_choiceRT,2021.1.2,Win32,60.07088364,,,,,,,,7,Ontime,g,1,2.0453,5,0,20,1,1,,,,,
,1.92,,,,,,,,,j.PNG,j,5fa4c21a04bc5912180291bc,2021-10-19_21h21.30.659,forced_choiceRT,2021.1.2,Win32,60.07088364,,,,,,,,7,Ontime,g,0,1.9907,5,1,21,3,1,,,,,
,0.93,,,,,,,,,g.PNG,g,5fa4c21a04bc5912180291bc,2021-10-19_21h21.30.659,forced_choiceRT,2021.1.2,Win32,60.07088364,,,,,,,,7,Ontime,g,1,2.0183,5,2,22,1,1,,,,,
,1.42,,,,,,,,,g.PNG,g,5fa4c21a04bc5912180291bc,2021-10-19_21h21.30.659,forced_choiceRT,2021.1.2,Win32,60.07088364,,,,,,,,7,Ontime,g,1,1.9495,5,3,23,1,1,,,,,
,0.88,,,,,,,,,h.PNG,h,5fa4c21a04bc5912180291bc,2021-10-19_21h21.30.659,forced_choiceRT,2021.1.2,Win32,60.07088364,,,,,,,,7,Ontime,h,1,2.0464,6,0,24,2,1,,,,,
,1.06,,,,,,,,,j.PNG,j,5fa4c21a04bc5912180291bc,2021-10-19_21h21.30.659,forced_choiceRT,2021.1.2,Win32,60.07088364,,,,,,,,7,Ontime,j,1,2.0879,6,1,25,3,1,,,,,
,0.67,,,,,,,,,h.PNG,h,5fa4c21a04bc5912180291bc,2021-10-19_21h21.30.659,forced_choiceRT,2021.1.2,Win32,60.07088364,,,,,,,,7,Slow,h,1,2.1012,6,2,26,2,1,,,,,
,0.67,,,,,,,,,g.PNG,g,5fa4c21a04bc5912180291bc,2021-10-19_21h21.30.659,forced_choiceRT,2021.1.2,Win32,60.07088364,,,,,,,,7,Ontime,g,1,2.0209,6,3,27,1,1,,,,,
,1.83,,,,,,,,,f.PNG,f,5fa4c21a04bc5912180291bc,2021-10-19_21h21.30.659,forced_choiceRT,2021.1.2,Win32,60.07088364,,,,,,,,7,Ontime,f,1,2.0224,7,0,28,0,1,,,,,
,0.22,,,,,,,,,g.PNG,g,5fa4c21a04bc5912180291bc,2021-10-19_21h21.30.659,forced_choiceRT,2021.1.2,Win32,60.07088364,,,,,,,,7,Ontime,g,1,2.0355,7,1,29,1,1,,,,,
,0.82,,,,,,,,,g.PNG,g,5fa4c21a04bc5912180291bc,2021-10-19_21h21.30.659,forced_choiceRT,2021.1.2,Win32,60.07088364,,,,,,,,7,Ontime,g,1,2.0541,7,2,30,1,1,,,,,
,0.9,,,,,,,,,h.PNG,h,5fa4c21a04bc5912180291bc,2021-10-19_21h21.30.659,forced_choiceRT,2021.1.2,Win32,60.07088364,,,,,,,,7,Ontime,h,1,2.0293,7,3,31,2,1,,,,,
,1.63,,,,,,,,,f.PNG,f,5fa4c21a04bc5912180291bc,2021-10-19_21h21.30.659,forced_choiceRT,2021.1.2,Win32,60.07088364,,,,,,,,7,Slow,f,1,2.1658,8,0,32,0,1,,,,,
,1.63,,,,,,,,,j.PNG,j,5fa4c21a04bc5912180291bc,2021-10-19_21h21.30.659,forced_choiceRT,2021.1.2,Win32,60.07088364,,,,,,,,7,Ontime,g,0,1.9184,8,1,33,3,1,,,,,
,0.23,,,,,,,,,f.PNG,f,5fa4c21a04bc5912180291bc,2021-10-19_21h21.30.659,forced_choiceRT,2021.1.2,Win32,60.07088364,,,,,,,,7,Ontime,f,1,1.9712,8,2,34,0,1,,,,,
,0.45,,,,,,,,,j.PNG,j,5fa4c21a04bc5912180291bc,2021-10-19_21h21.30.659,forced_choiceRT,2021.1.2,Win32,60.07088364,,,,,,,,7,Ontime,j,1,2.0237,8,3,35,3,1,,,,,
,0.76,,,,,,,,,j.PNG,j,5fa4c21a04bc5912180291bc,2021-10-19_21h21.30.659,forced_choiceRT,2021.1.2,Win32,60.07088364,,,,,,,,7,Ontime,j,1,2.0169,9,0,36,3,1,,,,,
,1.8,,,,,,,,,f.PNG,f,5fa4c21a04bc5912180291bc,2021-10-19_21h21.30.659,forced_choiceRT,2021.1.2,Win32,60.07088364,,,,,,,,7,Slow,j,0,2.1151,9,1,37,0,1,,,,,
,0.14,,,,,,,,,g.PNG,g,5fa4c21a04bc5912180291bc,2021-10-19_21h21.30.659,forced_choiceRT,2021.1.2,Win32,60.07088364,,,,,,,,7,Ontime,g,1,1.9847,9,2,38,1,1,,,,,
,1.93,,,,,,,,,h.PNG,h,5fa4c21a04bc5912180291bc,2021-10-19_21h21.30.659,forced_choiceRT,2021.1.2,Win32,60.07088364,,,,,,,,7,Slow,g,0,2.1044,9,3,39,2,1,,,,,
,,,,,,,,,,,,5fa4c21a04bc5912180291bc,2021-10-19_21h21.30.659,forced_choiceRT,2021.1.2,Win32,60.07088364,,,,,,,,,,,,,,,,,,6,0,6,0,1
,1.6,,,,,,,,,g.PNG,g,5fa4c21a04bc5912180291bc,2021-10-19_21h21.30.659,forced_choiceRT,2021.1.2,Win32,60.07088364,,,,,,,,8,Ontime,g,1,2.0831,0,0,0,1,1,,,,,
,0.14,,,,,,,,,f.PNG,f,5fa4c21a04bc5912180291bc,2021-10-19_21h21.30.659,forced_choiceRT,2021.1.2,Win32,60.07088364,,,,,,,,8,Ontime,f,1,1.9754,0,1,1,0,1,,,,,
,1.92,,,,,,,,,f.PNG,f,5fa4c21a04bc5912180291bc,2021-10-19_21h21.30.659,forced_choiceRT,2021.1.2,Win32,60.07088364,,,,,,,,8,Ontime,f,1,1.9244,0,2,2,0,1,,,,,
,0.36,,,,,,,,,g.PNG,g,5fa4c21a04bc5912180291bc,2021-10-19_21h21.30.659,forced_choiceRT,2021.1.2,Win32,60.07088364,,,,,,,,8,Ontime,g,1,2.0006,0,3,3,1,1,,,,,
,0.44,,,,,,,,,h.PNG,h,5fa4c21a04bc5912180291bc,2021-10-19_21h21.30.659,forced_choiceRT,2021.1.2,Win32,60.07088364,,,,,,,,8,Ontime,h,1,1.9211,1,0,4,2,1,,,,,
,0.81,,,,,,,,,g.PNG,g,5fa4c21a04bc5912180291bc,2021-10-19_21h21.30.659,forced_choiceRT,2021.1.2,Win32,60.07088364,,,,,,,,8,Ontime,g,1,1.9551,1,1,5,1,1,,,,,
,1.87,,,,,,,,,j.PNG,j,5fa4c21a04bc5912180291bc,2021-10-19_21h21.30.659,forced_choiceRT,2021.1.2,Win32,60.07088364,,,,,,,,8,Ontime,j,1,1.9282,1,2,6,3,1,,,,,
,1.57,,,,,,,,,j.PNG,j,5fa4c21a04bc5912180291bc,2021-10-19_21h21.30.659,forced_choiceRT,2021.1.2,Win32,60.07088364,,,,,,,,8,Ontime,j,1,1.9835,1,3,7,3,1,,,,,
,1.02,,,,,,,,,h.PNG,h,5fa4c21a04bc5912180291bc,2021-10-19_21h21.30.659,forced_choiceRT,2021.1.2,Win32,60.07088364,,,,,,,,8,Ontime,h,1,1.9721,2,0,8,2,1,,,,,
,0.21,,,,,,,,,h.PNG,h,5fa4c21a04bc5912180291bc,2021-10-19_21h21.30.659,forced_choiceRT,2021.1.2,Win32,60.07088364,,,,,,,,8,Ontime,h,1,2.0044,2,1,9,2,1,,,,,
,1.27,,,,,,,,,f.PNG,f,5fa4c21a04bc5912180291bc,2021-10-19_21h21.30.659,forced_choiceRT,2021.1.2,Win32,60.07088364,,,,,,,,8,Ontime,f,1,1.9389,2,2,10,0,1,,,,,
,0.32,,,,,,,,,j.PNG,j,5fa4c21a04bc5912180291bc,2021-10-19_21h21.30.659,forced_choiceRT,2021.1.2,Win32,60.07088364,,,,,,,,8,Ontime,j,1,1.997,2,3,11,3,1,,,,,
,1.71,,,,,,,,,h.PNG,h,5fa4c21a04bc5912180291bc,2021-10-19_21h21.30.659,forced_choiceRT,2021.1.2,Win32,60.07088364,,,,,,,,8,Ontime,f,0,1.985,3,0,12,2,1,,,,,
,0.51,,,,,,,,,f.PNG,f,5fa4c21a04bc5912180291bc,2021-10-19_21h21.30.659,forced_choiceRT,2021.1.2,Win32,60.07088364,,,,,,,,8,Ontime,f,1,2.051,3,1,13,0,1,,,,,
,0.45,,,,,,,,,g.PNG,g,5fa4c21a04bc5912180291bc,2021-10-19_21h21.30.659,forced_choiceRT,2021.1.2,Win32,60.07088364,,,,,,,,8,Ontime,g,1,2.0342,3,2,14,1,1,,,,,
,0.12,,,,,,,,,j.PNG,j,5fa4c21a04bc5912180291bc,2021-10-19_21h21.30.659,forced_choiceRT,2021.1.2,Win32,60.07088364,,,,,,,,8,Ontime,j,1,2.0088,3,3,15,3,1,,,,,
,0.49,,,,,,,,,j.PNG,j,5fa4c21a04bc5912180291bc,2021-10-19_21h21.30.659,forced_choiceRT,2021.1.2,Win32,60.07088364,,,,,,,,8,Ontime,j,1,1.9994,4,0,16,3,1,,,,,
,0.22,,,,,,,,,h.PNG,h,5fa4c21a04bc5912180291bc,2021-10-19_21h21.30.659,forced_choiceRT,2021.1.2,Win32,60.07088364,,,,,,,,8,Ontime,h,1,1.9837,4,1,17,2,1,,,,,
,1.27,,,,,,,,,f.PNG,f,5fa4c21a04bc5912180291bc,2021-10-19_21h21.30.659,forced_choiceRT,2021.1.2,Win32,60.07088364,,,,,,,,8,Ontime,f,1,1.9736,4,2,18,0,1,,,,,
,1.89,,,,,,,,,f.PNG,f,5fa4c21a04bc5912180291bc,2021-10-19_21h21.30.659,forced_choiceRT,2021.1.2,Win32,60.07088364,,,,,,,,8,Ontime,f,1,1.9727,4,3,19,0,1,,,,,
,0.94,,,,,,,,,g.PNG,g,5fa4c21a04bc5912180291bc,2021-10-19_21h21.30.659,forced_choiceRT,2021.1.2,Win32,60.07088364,,,,,,,,8,Ontime,g,1,2.005,5,0,20,1,1,,,,,
,0.6,,,,,,,,,g.PNG,g,5fa4c21a04bc5912180291bc,2021-10-19_21h21.30.659,forced_choiceRT,2021.1.2,Win32,60.07088364,,,,,,,,8,Ontime,g,1,1.9614,5,1,21,1,1,,,,,
,1.87,,,,,,,,,f.PNG,f,5fa4c21a04bc5912180291bc,2021-10-19_21h21.30.659,forced_choiceRT,2021.1.2,Win32,60.07088364,,,,,,,,8,Ontime,j,0,1.9743,5,2,22,0,1,,,,,
,1.27,,,,,,,,,h.PNG,h,5fa4c21a04bc5912180291bc,2021-10-19_21h21.30.659,forced_choiceRT,2021.1.2,Win32,60.07088364,,,,,,,,8,Ontime,h,1,2.0349,5,3,23,2,1,,,,,
,1.91,,,,,,,,,g.PNG,g,5fa4c21a04bc5912180291bc,2021-10-19_21h21.30.659,forced_choiceRT,2021.1.2,Win32,60.07088364,,,,,,,,8,Ontime,f,0,2.002,6,0,24,1,1,,,,,
,1.54,,,,,,,,,h.PNG,h,5fa4c21a04bc5912180291bc,2021-10-19_21h21.30.659,forced_choiceRT,2021.1.2,Win32,60.07088364,,,,,,,,8,Ontime,g,0,1.9472,6,1,25,2,1,,,,,
,0.78,,,,,,,,,g.PNG,g,5fa4c21a04bc5912180291bc,2021-10-19_21h21.30.659,forced_choiceRT,2021.1.2,Win32,60.07088364,,,,,,,,8,Ontime,g,1,2.0291,6,2,26,1,1,,,,,
,1.07,,,,,,,,,f.PNG,f,5fa4c21a04bc5912180291bc,2021-10-19_21h21.30.659,forced_choiceRT,2021.1.2,Win32,60.07088364,,,,,,,,8,Ontime,f,1,2.0556,6,3,27,0,1,,,,,
,1.83,,,,,,,,,j.PNG,j,5fa4c21a04bc5912180291bc,2021-10-19_21h21.30.659,forced_choiceRT,2021.1.2,Win32,60.07088364,,,,,,,,8,Ontime,f,0,1.9898,7,0,28,3,1,,,,,
,1.24,,,,,,,,,f.PNG,f,5fa4c21a04bc5912180291bc,2021-10-19_21h21.30.659,forced_choiceRT,2021.1.2,Win32,60.07088364,,,,,,,,8,Ontime,f,1,1.9835,7,1,29,0,1,,,,,
,1.77,,,,,,,,,g.PNG,g,5fa4c21a04bc5912180291bc,2021-10-19_21h21.30.659,forced_choiceRT,2021.1.2,Win32,60.07088364,,,,,,,,8,Ontime,j,0,1.9302,7,2,30,1,1,,,,,
,1.87,,,,,,,,,h.PNG,h,5fa4c21a04bc5912180291bc,2021-10-19_21h21.30.659,forced_choiceRT,2021.1.2,Win32,60.07088364,,,,,,,,8,Ontime,g,0,1.9979,7,3,31,2,1,,,,,
,1.57,,,,,,,,,j.PNG,j,5fa4c21a04bc5912180291bc,2021-10-19_21h21.30.659,forced_choiceRT,2021.1.2,Win32,60.07088364,,,,,,,,8,Ontime,j,1,2.0383,8,0,32,3,1,,,,,
,1.67,,,,,,,,,f.PNG,f,5fa4c21a04bc5912180291bc,2021-10-19_21h21.30.659,forced_choiceRT,2021.1.2,Win32,60.07088364,,,,,,,,8,Ontime,j,0,1.9353,8,1,33,0,1,,,,,
,1.44,,,,,,,,,h.PNG,h,5fa4c21a04bc5912180291bc,2021-10-19_21h21.30.659,forced_choiceRT,2021.1.2,Win32,60.07088364,,,,,,,,8,Ontime,g,0,1.9999,8,2,34,2,1,,,,,
,1.82,,,,,,,,,j.PNG,j,5fa4c21a04bc5912180291bc,2021-10-19_21h21.30.659,forced_choiceRT,2021.1.2,Win32,60.07088364,,,,,,,,8,Ontime,j,1,1.969,8,3,35,3,1,,,,,
,1.17,,,,,,,,,g.PNG,g,5fa4c21a04bc5912180291bc,2021-10-19_21h21.30.659,forced_choiceRT,2021.1.2,Win32,60.07088364,,,,,,,,8,Ontime,g,1,2.0182,9,0,36,1,1,,,,,
,0.18,,,,,,,,,j.PNG,j,5fa4c21a04bc5912180291bc,2021-10-19_21h21.30.659,forced_choiceRT,2021.1.2,Win32,60.07088364,,,,,,,,8,Ontime,j,1,2.0899,9,1,37,3,1,,,,,
,1.83,,,,,,,,,h.PNG,h,5fa4c21a04bc5912180291bc,2021-10-19_21h21.30.659,forced_choiceRT,2021.1.2,Win32,60.07088364,,,,,,,,8,Ontime,f,0,2.0056,9,2,38,2,1,,,,,
,1.66,,,,,,,,,j.PNG,j,5fa4c21a04bc5912180291bc,2021-10-19_21h21.30.659,forced_choiceRT,2021.1.2,Win32,60.07088364,,,,,,,,8,Ontime,j,1,1.9507,9,3,39,3,1,,,,,
,,,,,,,,,,,,5fa4c21a04bc5912180291bc,2021-10-19_21h21.30.659,forced_choiceRT,2021.1.2,Win32,60.07088364,,,,,,,,,,,,,,,,,,7,0,7,0,1
,1.19,,,,,,,,,g.PNG,g,5fa4c21a04bc5912180291bc,2021-10-19_21h21.30.659,forced_choiceRT,2021.1.2,Win32,60.07088364,,,,,,,,9,Ontime,g,1,1.9855,0,0,0,1,1,,,,,
,1.69,,,,,,,,,g.PNG,g,5fa4c21a04bc5912180291bc,2021-10-19_21h21.30.659,forced_choiceRT,2021.1.2,Win32,60.07088364,,,,,,,,9,Ontime,g,1,1.952,0,1,1,1,1,,,,,
,0.89,,,,,,,,,j.PNG,j,5fa4c21a04bc5912180291bc,2021-10-19_21h21.30.659,forced_choiceRT,2021.1.2,Win32,60.07088364,,,,,,,,9,Ontime,j,1,2.024,0,2,2,3,1,,,,,
,1.73,,,,,,,,,j.PNG,j,5fa4c21a04bc5912180291bc,2021-10-19_21h21.30.659,forced_choiceRT,2021.1.2,Win32,60.07088364,,,,,,,,9,Ontime,h,0,2.0314,0,3,3,3,1,,,,,
,0.95,,,,,,,,,h.PNG,h,5fa4c21a04bc5912180291bc,2021-10-19_21h21.30.659,forced_choiceRT,2021.1.2,Win32,60.07088364,,,,,,,,9,Ontime,h,1,1.9913,1,0,4,2,1,,,,,
,0.04,,,,,,,,,j.PNG,j,5fa4c21a04bc5912180291bc,2021-10-19_21h21.30.659,forced_choiceRT,2021.1.2,Win32,60.07088364,,,,,,,,9,Ontime,j,1,1.969,1,1,5,3,1,,,,,
,1.72,,,,,,,,,g.PNG,g,5fa4c21a04bc5912180291bc,2021-10-19_21h21.30.659,forced_choiceRT,2021.1.2,Win32,60.07088364,,,,,,,,9,Ontime,j,0,1.9617,1,2,6,1,1,,,,,
,1.91,,,,,,,,,j.PNG,j,5fa4c21a04bc5912180291bc,2021-10-19_21h21.30.659,forced_choiceRT,2021.1.2,Win32,60.07088364,,,,,,,,9,Ontime,g,0,1.9071,1,3,7,3,1,,,,,
,0.88,,,,,,,,,g.PNG,g,5fa4c21a04bc5912180291bc,2021-10-19_21h21.30.659,forced_choiceRT,2021.1.2,Win32,60.07088364,,,,,,,,9,Ontime,g,1,2.0184,2,0,8,1,1,,,,,
,1.17,,,,,,,,,h.PNG,h,5fa4c21a04bc5912180291bc,2021-10-19_21h21.30.659,forced_choiceRT,2021.1.2,Win32,60.07088364,,,,,,,,9,Ontime,h,1,1.9743,2,1,9,2,1,,,,,
,1.99,,,,,,,,,j.PNG,j,5fa4c21a04bc5912180291bc,2021-10-19_21h21.30.659,forced_choiceRT,2021.1.2,Win32,60.07088364,,,,,,,,9,Fast,j,1,1.8998,2,2,10,3,1,,,,,
,0.39,,,,,,,,,h.PNG,h,5fa4c21a04bc5912180291bc,2021-10-19_21h21.30.659,forced_choiceRT,2021.1.2,Win32,60.07088364,,,,,,,,9,Ontime,h,1,2.0696,2,3,11,2,1,,,,,
,0.03,,,,,,,,,f.PNG,f,5fa4c21a04bc5912180291bc,2021-10-19_21h21.30.659,forced_choiceRT,2021.1.2,Win32,60.07088364,,,,,,,,9,Ontime,f,1,1.9875,3,0,12,0,1,,,,,
,1.86,,,,,,,,,h.PNG,h,5fa4c21a04bc5912180291bc,2021-10-19_21h21.30.659,forced_choiceRT,2021.1.2,Win32,60.07088364,,,,,,,,9,Ontime,f,0,1.9468,3,1,13,2,1,,,,,
,0.3,,,,,,,,,g.PNG,g,5fa4c21a04bc5912180291bc,2021-10-19_21h21.30.659,forced_choiceRT,2021.1.2,Win32,60.07088364,,,,,,,,9,Ontime,g,1,1.986,3,2,14,1,1,,,,,
,0.59,,,,,,,,,g.PNG,g,5fa4c21a04bc5912180291bc,2021-10-19_21h21.30.659,forced_choiceRT,2021.1.2,Win32,60.07088364,,,,,,,,9,Ontime,g,1,1.9516,3,3,15,1,1,,,,,
,0.39,,,,,,,,,f.PNG,f,5fa4c21a04bc5912180291bc,2021-10-19_21h21.30.659,forced_choiceRT,2021.1.2,Win32,60.07088364,,,,,,,,9,Ontime,f,1,2.0008,4,0,16,0,1,,,,,
,0.91,,,,,,,,,h.PNG,h,5fa4c21a04bc5912180291bc,2021-10-19_21h21.30.659,forced_choiceRT,2021.1.2,Win32,60.07088364,,,,,,,,9,Ontime,h,1,1.9909,4,1,17,2,1,,,,,
,1.92,,,,,,,,,h.PNG,h,5fa4c21a04bc5912180291bc,2021-10-19_21h21.30.659,forced_choiceRT,2021.1.2,Win32,60.07088364,,,,,,,,9,Ontime,j,0,1.9335,4,2,18,2,1,,,,,
,0.58,,,,,,,,,h.PNG,h,5fa4c21a04bc5912180291bc,2021-10-19_21h21.30.659,forced_choiceRT,2021.1.2,Win32,60.07088364,,,,,,,,9,Ontime,h,1,2.0168,4,3,19,2,1,,,,,
,1.05,,,,,,,,,f.PNG,f,5fa4c21a04bc5912180291bc,2021-10-19_21h21.30.659,forced_choiceRT,2021.1.2,Win32,60.07088364,,,,,,,,9,Ontime,f,1,1.966,5,0,20,0,1,,,,,
,1.29,,,,,,,,,j.PNG,j,5fa4c21a04bc5912180291bc,2021-10-19_21h21.30.659,forced_choiceRT,2021.1.2,Win32,60.07088364,,,,,,,,9,Ontime,j,1,1.9712,5,1,21,3,1,,,,,
,0.97,,,,,,,,,j.PNG,j,5fa4c21a04bc5912180291bc,2021-10-19_21h21.30.659,forced_choiceRT,2021.1.2,Win32,60.07088364,,,,,,,,9,Ontime,j,1,1.9899,5,2,22,3,1,,,,,
,0,,,,,,,,,j.PNG,j,5fa4c21a04bc5912180291bc,2021-10-19_21h21.30.659,forced_choiceRT,2021.1.2,Win32,60.07088364,,,,,,,,9,Ontime,j,1,1.9504,5,3,23,3,1,,,,,
,1.98,,,,,,,,,f.PNG,f,5fa4c21a04bc5912180291bc,2021-10-19_21h21.30.659,forced_choiceRT,2021.1.2,Win32,60.07088364,,,,,,,,9,Ontime,g,0,1.9863,6,0,24,0,1,,,,,
,1.02,,,,,,,,,f.PNG,f,5fa4c21a04bc5912180291bc,2021-10-19_21h21.30.659,forced_choiceRT,2021.1.2,Win32,60.07088364,,,,,,,,9,Ontime,f,1,1.9509,6,1,25,0,1,,,,,
,0.73,,,,,,,,,j.PNG,j,5fa4c21a04bc5912180291bc,2021-10-19_21h21.30.659,forced_choiceRT,2021.1.2,Win32,60.07088364,,,,,,,,9,Ontime,j,1,2.0338,6,2,26,3,1,,,,,
,1.86,,,,,,,,,j.PNG,j,5fa4c21a04bc5912180291bc,2021-10-19_21h21.30.659,forced_choiceRT,2021.1.2,Win32,60.07088364,,,,,,,,9,Ontime,j,1,1.9494,6,3,27,3,1,,,,,
,1.5,,,,,,,,,f.PNG,f,5fa4c21a04bc5912180291bc,2021-10-19_21h21.30.659,forced_choiceRT,2021.1.2,Win32,60.07088364,,,,,,,,9,Ontime,g,0,1.901,7,0,28,0,1,,,,,
,1.29,,,,,,,,,h.PNG,h,5fa4c21a04bc5912180291bc,2021-10-19_21h21.30.659,forced_choiceRT,2021.1.2,Win32,60.07088364,,,,,,,,9,Ontime,g,0,1.9399,7,1,29,2,1,,,,,
,0.01,,,,,,,,,g.PNG,g,5fa4c21a04bc5912180291bc,2021-10-19_21h21.30.659,forced_choiceRT,2021.1.2,Win32,60.07088364,,,,,,,,9,Ontime,g,1,1.9662,7,2,30,1,1,,,,,
,1.12,,,,,,,,,g.PNG,g,5fa4c21a04bc5912180291bc,2021-10-19_21h21.30.659,forced_choiceRT,2021.1.2,Win32,60.07088364,,,,,,,,9,Ontime,g,1,1.9837,7,3,31,1,1,,,,,
,0.17,,,,,,,,,g.PNG,g,5fa4c21a04bc5912180291bc,2021-10-19_21h21.30.659,forced_choiceRT,2021.1.2,Win32,60.07088364,,,,,,,,9,Ontime,g,1,1.9404,8,0,32,1,1,,,,,
,0.98,,,,,,,,,f.PNG,f,5fa4c21a04bc5912180291bc,2021-10-19_21h21.30.659,forced_choiceRT,2021.1.2,Win32,60.07088364,,,,,,,,9,Ontime,f,1,1.9821,8,1,33,0,1,,,,,
,0.23,,,,,,,,,f.PNG,f,5fa4c21a04bc5912180291bc,2021-10-19_21h21.30.659,forced_choiceRT,2021.1.2,Win32,60.07088364,,,,,,,,9,Ontime,f,1,1.9495,8,2,34,0,1,,,,,
,0.17,,,,,,,,,h.PNG,h,5fa4c21a04bc5912180291bc,2021-10-19_21h21.30.659,forced_choiceRT,2021.1.2,Win32,60.07088364,,,,,,,,9,Ontime,h,1,2.0062,8,3,35,2,1,,,,,
,1.07,,,,,,,,,g.PNG,g,5fa4c21a04bc5912180291bc,2021-10-19_21h21.30.659,forced_choiceRT,2021.1.2,Win32,60.07088364,,,,,,,,9,Ontime,g,1,2.0961,9,0,36,1,1,,,,,
,1.34,,,,,,,,,f.PNG,f,5fa4c21a04bc5912180291bc,2021-10-19_21h21.30.659,forced_choiceRT,2021.1.2,Win32,60.07088364,,,,,,,,9,Ontime,f,1,2.051,9,1,37,0,1,,,,,
,1.78,,,,,,,,,h.PNG,h,5fa4c21a04bc5912180291bc,2021-10-19_21h21.30.659,forced_choiceRT,2021.1.2,Win32,60.07088364,,,,,,,,9,Ontime,j,0,1.9714,9,2,38,2,1,,,,,
,0.09,,,,,,,,,f.PNG,f,5fa4c21a04bc5912180291bc,2021-10-19_21h21.30.659,forced_choiceRT,2021.1.2,Win32,60.07088364,,,,,,,,9,Ontime,f,1,2.0577,9,3,39,0,1,,,,,
,,,,,,,,,,,,5fa4c21a04bc5912180291bc,2021-10-19_21h21.30.659,forced_choiceRT,2021.1.2,Win32,60.07088364,,,,,,,,,,,,,,,,,,8,0,8,0,1
,0.89,,,,,,,,,h.PNG,h,5fa4c21a04bc5912180291bc,2021-10-19_21h21.30.659,forced_choiceRT,2021.1.2,Win32,60.07088364,,,,,,,,10,Ontime,h,1,1.9989,0,0,0,2,1,,,,,
,0.26,,,,,,,,,h.PNG,h,5fa4c21a04bc5912180291bc,2021-10-19_21h21.30.659,forced_choiceRT,2021.1.2,Win32,60.07088364,,,,,,,,10,Ontime,h,1,1.9252,0,1,1,2,1,,,,,
,0.05,,,,,,,,,g.PNG,g,5fa4c21a04bc5912180291bc,2021-10-19_21h21.30.659,forced_choiceRT,2021.1.2,Win32,60.07088364,,,,,,,,10,Ontime,g,1,1.9066,0,2,2,1,1,,,,,
,0.18,,,,,,,,,h.PNG,h,5fa4c21a04bc5912180291bc,2021-10-19_21h21.30.659,forced_choiceRT,2021.1.2,Win32,60.07088364,,,,,,,,10,Ontime,h,1,1.9823,0,3,3,2,1,,,,,
,0.42,,,,,,,,,g.PNG,g,5fa4c21a04bc5912180291bc,2021-10-19_21h21.30.659,forced_choiceRT,2021.1.2,Win32,60.07088364,,,,,,,,10,Ontime,g,1,1.958,1,0,4,1,1,,,,,
,1.19,,,,,,,,,g.PNG,g,5fa4c21a04bc5912180291bc,2021-10-19_21h21.30.659,forced_choiceRT,2021.1.2,Win32,60.07088364,,,,,,,,10,Ontime,g,1,2.0525,1,1,5,1,1,,,,,
,1.51,,,,,,,,,j.PNG,j,5fa4c21a04bc5912180291bc,2021-10-19_21h21.30.659,forced_choiceRT,2021.1.2,Win32,60.07088364,,,,,,,,10,Ontime,j,1,2.0233,1,2,6,3,1,,,,,
,0.56,,,,,,,,,j.PNG,j,5fa4c21a04bc5912180291bc,2021-10-19_21h21.30.659,forced_choiceRT,2021.1.2,Win32,60.07088364,,,,,,,,10,Ontime,j,1,1.9502,1,3,7,3,1,,,,,
,0.57,,,,,,,,,g.PNG,g,5fa4c21a04bc5912180291bc,2021-10-19_21h21.30.659,forced_choiceRT,2021.1.2,Win32,60.07088364,,,,,,,,10,Ontime,g,1,1.9399,2,0,8,1,1,,,,,
,1.08,,,,,,,,,j.PNG,j,5fa4c21a04bc5912180291bc,2021-10-19_21h21.30.659,forced_choiceRT,2021.1.2,Win32,60.07088364,,,,,,,,10,Ontime,j,1,2.0002,2,1,9,3,1,,,,,
,1.39,,,,,,,,,j.PNG,j,5fa4c21a04bc5912180291bc,2021-10-19_21h21.30.659,forced_choiceRT,2021.1.2,Win32,60.07088364,,,,,,,,10,Ontime,j,1,1.9794,2,2,10,3,1,,,,,
,0.07,,,,,,,,,f.PNG,f,5fa4c21a04bc5912180291bc,2021-10-19_21h21.30.659,forced_choiceRT,2021.1.2,Win32,60.07088364,,,,,,,,10,Ontime,f,1,1.9142,2,3,11,0,1,,,,,
,0.69,,,,,,,,,j.PNG,j,5fa4c21a04bc5912180291bc,2021-10-19_21h21.30.659,forced_choiceRT,2021.1.2,Win32,60.07088364,,,,,,,,10,Ontime,j,1,1.9087,3,0,12,3,1,,,,,
,0.64,,,,,,,,,f.PNG,f,5fa4c21a04bc5912180291bc,2021-10-19_21h21.30.659,forced_choiceRT,2021.1.2,Win32,60.07088364,,,,,,,,10,Ontime,f,1,2.0255,3,1,13,0,1,,,,,
,0.46,,,,,,,,,h.PNG,h,5fa4c21a04bc5912180291bc,2021-10-19_21h21.30.659,forced_choiceRT,2021.1.2,Win32,60.07088364,,,,,,,,10,Ontime,h,1,1.9516,3,2,14,2,1,,,,,
,0.26,,,,,,,,,f.PNG,f,5fa4c21a04bc5912180291bc,2021-10-19_21h21.30.659,forced_choiceRT,2021.1.2,Win32,60.07088364,,,,,,,,10,Ontime,f,1,1.9569,3,3,15,0,1,,,,,
,1.73,,,,,,,,,f.PNG,f,5fa4c21a04bc5912180291bc,2021-10-19_21h21.30.659,forced_choiceRT,2021.1.2,Win32,60.07088364,,,,,,,,10,Ontime,j,0,1.9746,4,0,16,0,1,,,,,
,1.64,,,,,,,,,h.PNG,h,5fa4c21a04bc5912180291bc,2021-10-19_21h21.30.659,forced_choiceRT,2021.1.2,Win32,60.07088364,,,,,,,,10,Fast,f,0,1.8996,4,1,17,2,1,,,,,
,1.46,,,,,,,,,g.PNG,g,5fa4c21a04bc5912180291bc,2021-10-19_21h21.30.659,forced_choiceRT,2021.1.2,Win32,60.07088364,,,,,,,,10,Ontime,g,1,2.0136,4,2,18,1,1,,,,,
,1.81,,,,,,,,,h.PNG,h,5fa4c21a04bc5912180291bc,2021-10-19_21h21.30.659,forced_choiceRT,2021.1.2,Win32,60.07088364,,,,,,,,10,Ontime,h,1,1.9723,4,3,19,2,1,,,,,
,0.87,,,,,,,,,g.PNG,g,5fa4c21a04bc5912180291bc,2021-10-19_21h21.30.659,forced_choiceRT,2021.1.2,Win32,60.07088364,,,,,,,,10,Ontime,g,1,1.9452,5,0,20,1,1,,,,,
,1.91,,,,,,,,,j.PNG,j,5fa4c21a04bc5912180291bc,2021-10-19_21h21.30.659,forced_choiceRT,2021.1.2,Win32,60.07088364,,,,,,,,10,Ontime,j,1,1.9513,5,1,21,3,1,,,,,
,1.18,,,,,,,,,f.PNG,f,5fa4c21a04bc5912180291bc,2021-10-19_21h21.30.659,forced_choiceRT,2021.1.2,Win32,60.07088364,,,,,,,,10,Ontime,f,1,1.9553,5,2,22,0,1,,,,,
,1.44,,,,,,,,,h.PNG,h,5fa4c21a04bc5912180291bc,2021-10-19_21h21.30.659,forced_choiceRT,2021.1.2,Win32,60.07088364,,,,,,,,10,Ontime,h,1,1.9998,5,3,23,2,1,,,,,
,1.93,,,,,,,,,g.PNG,g,5fa4c21a04bc5912180291bc,2021-10-19_21h21.30.659,forced_choiceRT,2021.1.2,Win32,60.07088364,,,,,,,,10,Ontime,j,0,1.9538,6,0,24,1,1,,,,,
,1.67,,,,,,,,,f.PNG,f,5fa4c21a04bc5912180291bc,2021-10-19_21h21.30.659,forced_choiceRT,2021.1.2,Win32,60.07088364,,,,,,,,10,Ontime,g,0,1.9248,6,1,25,0,1,,,,,
,1.66,,,,,,,,,j.PNG,j,5fa4c21a04bc5912180291bc,2021-10-19_21h21.30.659,forced_choiceRT,2021.1.2,Win32,60.07088364,,,,,,,,10,Fast,f,0,1.884,6,2,26,3,1,,,,,
,1.61,,,,,,,,,h.PNG,h,5fa4c21a04bc5912180291bc,2021-10-19_21h21.30.659,forced_choiceRT,2021.1.2,Win32,60.07088364,,,,,,,,10,Fast,j,0,1.8698,6,3,27,2,1,,,,,
,1.33,,,,,,,,,f.PNG,f,5fa4c21a04bc5912180291bc,2021-10-19_21h21.30.659,forced_choiceRT,2021.1.2,Win32,60.07088364,,,,,,,,10,Ontime,f,1,1.9281,7,0,28,0,1,,,,,
,0.37,,,,,,,,,h.PNG,h,5fa4c21a04bc5912180291bc,2021-10-19_21h21.30.659,forced_choiceRT,2021.1.2,Win32,60.07088364,,,,,,,,10,Ontime,h,1,2.0002,7,1,29,2,1,,,,,
,0.73,,,,,,,,,h.PNG,h,5fa4c21a04bc5912180291bc,2021-10-19_21h21.30.659,forced_choiceRT,2021.1.2,Win32,60.07088364,,,,,,,,10,Ontime,h,1,2.0163,7,2,30,2,1,,,,,
,0.44,,,,,,,,,g.PNG,g,5fa4c21a04bc5912180291bc,2021-10-19_21h21.30.659,forced_choiceRT,2021.1.2,Win32,60.07088364,,,,,,,,10,Ontime,g,1,2.013,7,3,31,1,1,,,,,
,0.47,,,,,,,,,j.PNG,j,5fa4c21a04bc5912180291bc,2021-10-19_21h21.30.659,forced_choiceRT,2021.1.2,Win32,60.07088364,,,,,,,,10,Ontime,j,1,1.9922,8,0,32,3,1,,,,,
,0.59,,,,,,,,,f.PNG,f,5fa4c21a04bc5912180291bc,2021-10-19_21h21.30.659,forced_choiceRT,2021.1.2,Win32,60.07088364,,,,,,,,10,Ontime,f,1,2.0006,8,1,33,0,1,,,,,
,1.26,,,,,,,,,g.PNG,g,5fa4c21a04bc5912180291bc,2021-10-19_21h21.30.659,forced_choiceRT,2021.1.2,Win32,60.07088364,,,,,,,,10,Ontime,g,1,2.052,8,2,34,1,1,,,,,
,1.15,,,,,,,,,f.PNG,f,5fa4c21a04bc5912180291bc,2021-10-19_21h21.30.659,forced_choiceRT,2021.1.2,Win32,60.07088364,,,,,,,,10,Ontime,f,1,2.0315,8,3,35,0,1,,,,,
,0.14,,,,,,,,,f.PNG,f,5fa4c21a04bc5912180291bc,2021-10-19_21h21.30.659,forced_choiceRT,2021.1.2,Win32,60.07088364,,,,,,,,10,Ontime,f,1,1.9629,9,0,36,0,1,,,,,
,1,,,,,,,,,j.PNG,j,5fa4c21a04bc5912180291bc,2021-10-19_21h21.30.659,forced_choiceRT,2021.1.2,Win32,60.07088364,,,,,,,,10,Ontime,j,1,2.0208,9,1,37,3,1,,,,,
,0.73,,,,,,,,,j.PNG,j,5fa4c21a04bc5912180291bc,2021-10-19_21h21.30.659,forced_choiceRT,2021.1.2,Win32,60.07088364,,,,,,,,10,Ontime,j,1,2.0219,9,2,38,3,1,,,,,
,0.64,,,,,,,,,g.PNG,g,5fa4c21a04bc5912180291bc,2021-10-19_21h21.30.659,forced_choiceRT,2021.1.2,Win32,60.07088364,,,,,,,,10,Ontime,g,1,2.0317,9,3,39,1,1,,,,,
,,,,,,,,,,,,5fa4c21a04bc5912180291bc,2021-10-19_21h21.30.659,forced_choiceRT,2021.1.2,Win32,60.07088364,,,,,,,,,,,,,,,,,,9,0,9,0,1
