IP_Addresss,target_onset,trial_resp_sp.keys,trial_resp_sp.corr,trial_resp_sp.rt,trials_train_loop.thisRepN,trials_train_loop.thisTrialN,trials_train_loop.thisN,trials_train_loop.thisIndex,trials_train_loop.ran,pic,correct_key,participant,date,expName,psychopyVersion,OS,frameRate,trial_resp_timing.keys,trial_resp_timing.rt,trials_train_timing.thisRepN,trials_train_timing.thisTrialN,trials_train_timing.thisN,trials_train_timing.thisIndex,trials_train_timing.ran,block_id,ontime,forcedRT_resp.keys,forcedRT_resp.corr,forcedRT_resp.rt,trials.thisRepN,trials.thisTrialN,trials.thisN,trials.thisIndex,trials.ran,blocks.thisRepN,blocks.thisTrialN,blocks.thisN,blocks.thisIndex,blocks.ran
96.239.160.131,0,h,1,2.2601,0,0,0,2,1,h.PNG,h,6078b4ad9006e4f6572dde97,2021-10-19_12h44.00.574,forced_choiceRT,2021.1.2,Win32,60.18295619,,,,,,,,,,,,,,,,,,,,,,
,0,j,1,0.7723,0,1,1,3,1,j.PNG,j,6078b4ad9006e4f6572dde97,2021-10-19_12h44.00.574,forced_choiceRT,2021.1.2,Win32,60.18295619,,,,,,,,,,,,,,,,,,,,,,
,0,h,1,0.8182,0,2,2,2,1,h.PNG,h,6078b4ad9006e4f6572dde97,2021-10-19_12h44.00.574,forced_choiceRT,2021.1.2,Win32,60.18295619,,,,,,,,,,,,,,,,,,,,,,
,0,f,1,0.8489,0,3,3,0,1,f.PNG,f,6078b4ad9006e4f6572dde97,2021-10-19_12h44.00.574,forced_choiceRT,2021.1.2,Win32,60.18295619,,,,,,,,,,,,,,,,,,,,,,
,0,g,1,1.198,1,0,4,1,1,g.PNG,g,6078b4ad9006e4f6572dde97,2021-10-19_12h44.00.574,forced_choiceRT,2021.1.2,Win32,60.18295619,,,,,,,,,,,,,,,,,,,,,,
,0,g,1,2.6648,1,1,5,1,1,g.PNG,g,6078b4ad9006e4f6572dde97,2021-10-19_12h44.00.574,forced_choiceRT,2021.1.2,Win32,60.18295619,,,,,,,,,,,,,,,,,,,,,,
,0,f,1,0.78,1,2,6,0,1,f.PNG,f,6078b4ad9006e4f6572dde97,2021-10-19_12h44.00.574,forced_choiceRT,2021.1.2,Win32,60.18295619,,,,,,,,,,,,,,,,,,,,,,
,0,h,1,1.1987,1,3,7,2,1,h.PNG,h,6078b4ad9006e4f6572dde97,2021-10-19_12h44.00.574,forced_choiceRT,2021.1.2,Win32,60.18295619,,,,,,,,,,,,,,,,,,,,,,
,0,h,1,0.5919,2,0,8,2,1,h.PNG,h,6078b4ad9006e4f6572dde97,2021-10-19_12h44.00.574,forced_choiceRT,2021.1.2,Win32,60.18295619,,,,,,,,,,,,,,,,,,,,,,
,0,j,1,0.5378,2,1,9,3,1,j.PNG,j,6078b4ad9006e4f6572dde97,2021-10-19_12h44.00.574,forced_choiceRT,2021.1.2,Win32,60.18295619,,,,,,,,,,,,,,,,,,,,,,
,0,j,1,0.6825,2,2,10,3,1,j.PNG,j,6078b4ad9006e4f6572dde97,2021-10-19_12h44.00.574,forced_choiceRT,2021.1.2,Win32,60.18295619,,,,,,,,,,,,,,,,,,,,,,
,0,f,1,0.8161,2,3,11,0,1,f.PNG,f,6078b4ad9006e4f6572dde97,2021-10-19_12h44.00.574,forced_choiceRT,2021.1.2,Win32,60.18295619,,,,,,,,,,,,,,,,,,,,,,
,0,h,1,3.5012,3,0,12,2,1,h.PNG,h,6078b4ad9006e4f6572dde97,2021-10-19_12h44.00.574,forced_choiceRT,2021.1.2,Win32,60.18295619,,,,,,,,,,,,,,,,,,,,,,
,0,f,1,0.7534,3,1,13,0,1,f.PNG,f,6078b4ad9006e4f6572dde97,2021-10-19_12h44.00.574,forced_choiceRT,2021.1.2,Win32,60.18295619,,,,,,,,,,,,,,,,,,,,,,
,0,g,1,1.5356,3,2,14,1,1,g.PNG,g,6078b4ad9006e4f6572dde97,2021-10-19_12h44.00.574,forced_choiceRT,2021.1.2,Win32,60.18295619,,,,,,,,,,,,,,,,,,,,,,
,0,h,1,0.8076,3,3,15,2,1,h.PNG,h,6078b4ad9006e4f6572dde97,2021-10-19_12h44.00.574,forced_choiceRT,2021.1.2,Win32,60.18295619,,,,,,,,,,,,,,,,,,,,,,
,0,j,1,1.0397,4,0,16,3,1,j.PNG,j,6078b4ad9006e4f6572dde97,2021-10-19_12h44.00.574,forced_choiceRT,2021.1.2,Win32,60.18295619,,,,,,,,,,,,,,,,,,,,,,
,0,g,1,0.8659,4,1,17,1,1,g.PNG,g,6078b4ad9006e4f6572dde97,2021-10-19_12h44.00.574,forced_choiceRT,2021.1.2,Win32,60.18295619,,,,,,,,,,,,,,,,,,,,,,
,0,j,1,1,4,2,18,3,1,j.PNG,j,6078b4ad9006e4f6572dde97,2021-10-19_12h44.00.574,forced_choiceRT,2021.1.2,Win32,60.18295619,,,,,,,,,,,,,,,,,,,,,,
,0,f,1,0.7272,4,3,19,0,1,f.PNG,f,6078b4ad9006e4f6572dde97,2021-10-19_12h44.00.574,forced_choiceRT,2021.1.2,Win32,60.18295619,,,,,,,,,,,,,,,,,,,,,,
,0,g,1,2.4485,5,0,20,1,1,g.PNG,g,6078b4ad9006e4f6572dde97,2021-10-19_12h44.00.574,forced_choiceRT,2021.1.2,Win32,60.18295619,,,,,,,,,,,,,,,,,,,,,,
,0,h,1,2.2646,5,1,21,2,1,h.PNG,h,6078b4ad9006e4f6572dde97,2021-10-19_12h44.00.574,forced_choiceRT,2021.1.2,Win32,60.18295619,,,,,,,,,,,,,,,,,,,,,,
,0,h,1,0.7413,5,2,22,2,1,h.PNG,h,6078b4ad9006e4f6572dde97,2021-10-19_12h44.00.574,forced_choiceRT,2021.1.2,Win32,60.18295619,,,,,,,,,,,,,,,,,,,,,,
,0,j,1,0.6859,5,3,23,3,1,j.PNG,j,6078b4ad9006e4f6572dde97,2021-10-19_12h44.00.574,forced_choiceRT,2021.1.2,Win32,60.18295619,,,,,,,,,,,,,,,,,,,,,,
,0,h,1,0.7537,6,0,24,2,1,h.PNG,h,6078b4ad9006e4f6572dde97,2021-10-19_12h44.00.574,forced_choiceRT,2021.1.2,Win32,60.18295619,,,,,,,,,,,,,,,,,,,,,,
,0,g,1,0.55,6,1,25,1,1,g.PNG,g,6078b4ad9006e4f6572dde97,2021-10-19_12h44.00.574,forced_choiceRT,2021.1.2,Win32,60.18295619,,,,,,,,,,,,,,,,,,,,,,
,0,f,1,0.5678,6,2,26,0,1,f.PNG,f,6078b4ad9006e4f6572dde97,2021-10-19_12h44.00.574,forced_choiceRT,2021.1.2,Win32,60.18295619,,,,,,,,,,,,,,,,,,,,,,
,0,j,1,1.9499,6,3,27,3,1,j.PNG,j,6078b4ad9006e4f6572dde97,2021-10-19_12h44.00.574,forced_choiceRT,2021.1.2,Win32,60.18295619,,,,,,,,,,,,,,,,,,,,,,
,0,h,1,0.766,7,0,28,2,1,h.PNG,h,6078b4ad9006e4f6572dde97,2021-10-19_12h44.00.574,forced_choiceRT,2021.1.2,Win32,60.18295619,,,,,,,,,,,,,,,,,,,,,,
,0,g,1,0.8067,7,1,29,1,1,g.PNG,g,6078b4ad9006e4f6572dde97,2021-10-19_12h44.00.574,forced_choiceRT,2021.1.2,Win32,60.18295619,,,,,,,,,,,,,,,,,,,,,,
,0,h,1,0.8013,7,2,30,2,1,h.PNG,h,6078b4ad9006e4f6572dde97,2021-10-19_12h44.00.574,forced_choiceRT,2021.1.2,Win32,60.18295619,,,,,,,,,,,,,,,,,,,,,,
,0,h,1,0.8199,7,3,31,2,1,h.PNG,h,6078b4ad9006e4f6572dde97,2021-10-19_12h44.00.574,forced_choiceRT,2021.1.2,Win32,60.18295619,,,,,,,,,,,,,,,,,,,,,,
,0,f,1,1.0173,8,0,32,0,1,f.PNG,f,6078b4ad9006e4f6572dde97,2021-10-19_12h44.00.574,forced_choiceRT,2021.1.2,Win32,60.18295619,,,,,,,,,,,,,,,,,,,,,,
,0,j,1,0.7656,8,1,33,3,1,j.PNG,j,6078b4ad9006e4f6572dde97,2021-10-19_12h44.00.574,forced_choiceRT,2021.1.2,Win32,60.18295619,,,,,,,,,,,,,,,,,,,,,,
,0,g,1,1.2498,8,2,34,1,1,g.PNG,g,6078b4ad9006e4f6572dde97,2021-10-19_12h44.00.574,forced_choiceRT,2021.1.2,Win32,60.18295619,,,,,,,,,,,,,,,,,,,,,,
,0,f,1,0.6653,8,3,35,0,1,f.PNG,f,6078b4ad9006e4f6572dde97,2021-10-19_12h44.00.574,forced_choiceRT,2021.1.2,Win32,60.18295619,,,,,,,,,,,,,,,,,,,,,,
,0,j,1,0.7835,9,0,36,3,1,j.PNG,j,6078b4ad9006e4f6572dde97,2021-10-19_12h44.00.574,forced_choiceRT,2021.1.2,Win32,60.18295619,,,,,,,,,,,,,,,,,,,,,,
,0,h,1,0.636,9,1,37,2,1,h.PNG,h,6078b4ad9006e4f6572dde97,2021-10-19_12h44.00.574,forced_choiceRT,2021.1.2,Win32,60.18295619,,,,,,,,,,,,,,,,,,,,,,
,0,g,1,0.9906,9,2,38,1,1,g.PNG,g,6078b4ad9006e4f6572dde97,2021-10-19_12h44.00.574,forced_choiceRT,2021.1.2,Win32,60.18295619,,,,,,,,,,,,,,,,,,,,,,
,0,f,1,0.6193,9,3,39,0,1,f.PNG,f,6078b4ad9006e4f6572dde97,2021-10-19_12h44.00.574,forced_choiceRT,2021.1.2,Win32,60.18295619,,,,,,,,,,,,,,,,,,,,,,
,0,f,1,0.5989,10,0,40,0,1,f.PNG,f,6078b4ad9006e4f6572dde97,2021-10-19_12h44.00.574,forced_choiceRT,2021.1.2,Win32,60.18295619,,,,,,,,,,,,,,,,,,,,,,
,0,f,1,0.4914,10,1,41,0,1,f.PNG,f,6078b4ad9006e4f6572dde97,2021-10-19_12h44.00.574,forced_choiceRT,2021.1.2,Win32,60.18295619,,,,,,,,,,,,,,,,,,,,,,
,0,h,1,0.7868,10,2,42,2,1,h.PNG,h,6078b4ad9006e4f6572dde97,2021-10-19_12h44.00.574,forced_choiceRT,2021.1.2,Win32,60.18295619,,,,,,,,,,,,,,,,,,,,,,
,0,g,1,1.7362,10,3,43,1,1,g.PNG,g,6078b4ad9006e4f6572dde97,2021-10-19_12h44.00.574,forced_choiceRT,2021.1.2,Win32,60.18295619,,,,,,,,,,,,,,,,,,,,,,
,0,h,1,0.7998,11,0,44,2,1,h.PNG,h,6078b4ad9006e4f6572dde97,2021-10-19_12h44.00.574,forced_choiceRT,2021.1.2,Win32,60.18295619,,,,,,,,,,,,,,,,,,,,,,
,0,f,1,0.6665,11,1,45,0,1,f.PNG,f,6078b4ad9006e4f6572dde97,2021-10-19_12h44.00.574,forced_choiceRT,2021.1.2,Win32,60.18295619,,,,,,,,,,,,,,,,,,,,,,
,0,g,1,0.7489,11,2,46,1,1,g.PNG,g,6078b4ad9006e4f6572dde97,2021-10-19_12h44.00.574,forced_choiceRT,2021.1.2,Win32,60.18295619,,,,,,,,,,,,,,,,,,,,,,
,0,g,1,0.5038,11,3,47,1,1,g.PNG,g,6078b4ad9006e4f6572dde97,2021-10-19_12h44.00.574,forced_choiceRT,2021.1.2,Win32,60.18295619,,,,,,,,,,,,,,,,,,,,,,
,0,f,1,0.7495,12,0,48,0,1,f.PNG,f,6078b4ad9006e4f6572dde97,2021-10-19_12h44.00.574,forced_choiceRT,2021.1.2,Win32,60.18295619,,,,,,,,,,,,,,,,,,,,,,
,0,g,1,0.704,12,1,49,1,1,g.PNG,g,6078b4ad9006e4f6572dde97,2021-10-19_12h44.00.574,forced_choiceRT,2021.1.2,Win32,60.18295619,,,,,,,,,,,,,,,,,,,,,,
,0,j,1,0.7178,12,2,50,3,1,j.PNG,j,6078b4ad9006e4f6572dde97,2021-10-19_12h44.00.574,forced_choiceRT,2021.1.2,Win32,60.18295619,,,,,,,,,,,,,,,,,,,,,,
,0,j,1,0.7335,12,3,51,3,1,j.PNG,j,6078b4ad9006e4f6572dde97,2021-10-19_12h44.00.574,forced_choiceRT,2021.1.2,Win32,60.18295619,,,,,,,,,,,,,,,,,,,,,,
,0,g,1,1.4719,13,0,52,1,1,g.PNG,g,6078b4ad9006e4f6572dde97,2021-10-19_12h44.00.574,forced_choiceRT,2021.1.2,Win32,60.18295619,,,,,,,,,,,,,,,,,,,,,,
,0,j,1,0.6326,13,1,53,3,1,j.PNG,j,6078b4ad9006e4f6572dde97,2021-10-19_12h44.00.574,forced_choiceRT,2021.1.2,Win32,60.18295619,,,,,,,,,,,,,,,,,,,,,,
,0,j,1,1.464,13,2,54,3,1,j.PNG,j,6078b4ad9006e4f6572dde97,2021-10-19_12h44.00.574,forced_choiceRT,2021.1.2,Win32,60.18295619,,,,,,,,,,,,,,,,,,,,,,
,0,f,1,0.766,13,3,55,0,1,f.PNG,f,6078b4ad9006e4f6572dde97,2021-10-19_12h44.00.574,forced_choiceRT,2021.1.2,Win32,60.18295619,,,,,,,,,,,,,,,,,,,,,,
,0,j,1,0.6824,14,0,56,3,1,j.PNG,j,6078b4ad9006e4f6572dde97,2021-10-19_12h44.00.574,forced_choiceRT,2021.1.2,Win32,60.18295619,,,,,,,,,,,,,,,,,,,,,,
,0,j,1,0.6017,14,1,57,3,1,j.PNG,j,6078b4ad9006e4f6572dde97,2021-10-19_12h44.00.574,forced_choiceRT,2021.1.2,Win32,60.18295619,,,,,,,,,,,,,,,,,,,,,,
,0,f,1,0.7864,14,2,58,0,1,f.PNG,f,6078b4ad9006e4f6572dde97,2021-10-19_12h44.00.574,forced_choiceRT,2021.1.2,Win32,60.18295619,,,,,,,,,,,,,,,,,,,,,,
,0,f,0,0.5376,14,3,59,1,1,g.PNG,g,6078b4ad9006e4f6572dde97,2021-10-19_12h44.00.574,forced_choiceRT,2021.1.2,Win32,60.18295619,,,,,,,,,,,,,,,,,,,,,,
,,,,,,,,,,,,6078b4ad9006e4f6572dde97,2021-10-19_12h44.00.574,forced_choiceRT,2021.1.2,Win32,60.18295619,h,2.167,0,0,0,0,1,,,,,,,,,,,,,,,
,,,,,,,,,,,,6078b4ad9006e4f6572dde97,2021-10-19_12h44.00.574,forced_choiceRT,2021.1.2,Win32,60.18295619,j,1.9232,1,0,1,0,1,,,,,,,,,,,,,,,
,,,,,,,,,,,,6078b4ad9006e4f6572dde97,2021-10-19_12h44.00.574,forced_choiceRT,2021.1.2,Win32,60.18295619,j,1.9502,2,0,2,0,1,,,,,,,,,,,,,,,
,,,,,,,,,,,,6078b4ad9006e4f6572dde97,2021-10-19_12h44.00.574,forced_choiceRT,2021.1.2,Win32,60.18295619,j,1.9332,3,0,3,0,1,,,,,,,,,,,,,,,
,,,,,,,,,,,,6078b4ad9006e4f6572dde97,2021-10-19_12h44.00.574,forced_choiceRT,2021.1.2,Win32,60.18295619,f,1.7165,4,0,4,0,1,,,,,,,,,,,,,,,
,,,,,,,,,,,,6078b4ad9006e4f6572dde97,2021-10-19_12h44.00.574,forced_choiceRT,2021.1.2,Win32,60.18295619,f,1.9836,5,0,5,0,1,,,,,,,,,,,,,,,
,,,,,,,,,,,,6078b4ad9006e4f6572dde97,2021-10-19_12h44.00.574,forced_choiceRT,2021.1.2,Win32,60.18295619,g,1.9424,6,0,6,0,1,,,,,,,,,,,,,,,
,,,,,,,,,,,,6078b4ad9006e4f6572dde97,2021-10-19_12h44.00.574,forced_choiceRT,2021.1.2,Win32,60.18295619,h,1.9254,7,0,7,0,1,,,,,,,,,,,,,,,
,,,,,,,,,,,,6078b4ad9006e4f6572dde97,2021-10-19_12h44.00.574,forced_choiceRT,2021.1.2,Win32,60.18295619,h,2.0503,8,0,8,0,1,,,,,,,,,,,,,,,
,,,,,,,,,,,,6078b4ad9006e4f6572dde97,2021-10-19_12h44.00.574,forced_choiceRT,2021.1.2,Win32,60.18295619,h,1.7196,9,0,9,0,1,,,,,,,,,,,,,,,
,,,,,,,,,,,,6078b4ad9006e4f6572dde97,2021-10-19_12h44.00.574,forced_choiceRT,2021.1.2,Win32,60.18295619,h,2.0021,10,0,10,0,1,,,,,,,,,,,,,,,
,,,,,,,,,,,,6078b4ad9006e4f6572dde97,2021-10-19_12h44.00.574,forced_choiceRT,2021.1.2,Win32,60.18295619,h,1.9844,11,0,11,0,1,,,,,,,,,,,,,,,
,,,,,,,,,,,,6078b4ad9006e4f6572dde97,2021-10-19_12h44.00.574,forced_choiceRT,2021.1.2,Win32,60.18295619,h,1.9374,12,0,12,0,1,,,,,,,,,,,,,,,
,,,,,,,,,,,,6078b4ad9006e4f6572dde97,2021-10-19_12h44.00.574,forced_choiceRT,2021.1.2,Win32,60.18295619,h,1.9557,13,0,13,0,1,,,,,,,,,,,,,,,
,,,,,,,,,,,,6078b4ad9006e4f6572dde97,2021-10-19_12h44.00.574,forced_choiceRT,2021.1.2,Win32,60.18295619,h,1.937,14,0,14,0,1,,,,,,,,,,,,,,,
,,,,,,,,,,,,6078b4ad9006e4f6572dde97,2021-10-19_12h44.00.574,forced_choiceRT,2021.1.2,Win32,60.18295619,h,1.9192,15,0,15,0,1,,,,,,,,,,,,,,,
,,,,,,,,,,,,6078b4ad9006e4f6572dde97,2021-10-19_12h44.00.574,forced_choiceRT,2021.1.2,Win32,60.18295619,j,1.9364,16,0,16,0,1,,,,,,,,,,,,,,,
,,,,,,,,,,,,6078b4ad9006e4f6572dde97,2021-10-19_12h44.00.574,forced_choiceRT,2021.1.2,Win32,60.18295619,g,1.983,17,0,17,0,1,,,,,,,,,,,,,,,
,,,,,,,,,,,,6078b4ad9006e4f6572dde97,2021-10-19_12h44.00.574,forced_choiceRT,2021.1.2,Win32,60.18295619,g,1.7547,18,0,18,0,1,,,,,,,,,,,,,,,
,,,,,,,,,,,,6078b4ad9006e4f6572dde97,2021-10-19_12h44.00.574,forced_choiceRT,2021.1.2,Win32,60.18295619,g,2.0007,19,0,19,0,1,,,,,,,,,,,,,,,
,0.76,,,,,,,,,h.PNG,h,6078b4ad9006e4f6572dde97,2021-10-19_12h44.00.574,forced_choiceRT,2021.1.2,Win32,60.18295619,,,,,,,,1,Ontime,h,1,2.0134,0,0,0,2,1,,,,,
,0.21,,,,,,,,,h.PNG,h,6078b4ad9006e4f6572dde97,2021-10-19_12h44.00.574,forced_choiceRT,2021.1.2,Win32,60.18295619,,,,,,,,1,Ontime,h,1,2.0321,0,1,1,2,1,,,,,
,1.85,,,,,,,,,f.PNG,f,6078b4ad9006e4f6572dde97,2021-10-19_12h44.00.574,forced_choiceRT,2021.1.2,Win32,60.18295619,,,,,,,,1,Slow,j,0,2.2823,0,2,2,0,1,,,,,
,1.05,,,,,,,,,g.PNG,g,6078b4ad9006e4f6572dde97,2021-10-19_12h44.00.574,forced_choiceRT,2021.1.2,Win32,60.18295619,,,,,,,,1,Ontime,g,1,1.9421,0,3,3,1,1,,,,,
,0.02,,,,,,,,,g.PNG,g,6078b4ad9006e4f6572dde97,2021-10-19_12h44.00.574,forced_choiceRT,2021.1.2,Win32,60.18295619,,,,,,,,1,Fast,g,1,1.8774,1,0,4,1,1,,,,,
,0.55,,,,,,,,,f.PNG,f,6078b4ad9006e4f6572dde97,2021-10-19_12h44.00.574,forced_choiceRT,2021.1.2,Win32,60.18295619,,,,,,,,1,Slow,f,1,2.1718,1,1,5,0,1,,,,,
,0.02,,,,,,,,,f.PNG,f,6078b4ad9006e4f6572dde97,2021-10-19_12h44.00.574,forced_choiceRT,2021.1.2,Win32,60.18295619,,,,,,,,1,Ontime,f,1,2.099,1,2,6,0,1,,,,,
,1,,,,,,,,,j.PNG,j,6078b4ad9006e4f6572dde97,2021-10-19_12h44.00.574,forced_choiceRT,2021.1.2,Win32,60.18295619,,,,,,,,1,Ontime,j,1,2.0489,1,3,7,3,1,,,,,
,1.03,,,,,,,,,h.PNG,h,6078b4ad9006e4f6572dde97,2021-10-19_12h44.00.574,forced_choiceRT,2021.1.2,Win32,60.18295619,,,,,,,,1,Ontime,h,1,1.9858,2,0,8,2,1,,,,,
,0.43,,,,,,,,,j.PNG,j,6078b4ad9006e4f6572dde97,2021-10-19_12h44.00.574,forced_choiceRT,2021.1.2,Win32,60.18295619,,,,,,,,1,Ontime,j,1,2.0667,2,1,9,3,1,,,,,
,0.63,,,,,,,,,h.PNG,h,6078b4ad9006e4f6572dde97,2021-10-19_12h44.00.574,forced_choiceRT,2021.1.2,Win32,60.18295619,,,,,,,,1,Ontime,h,1,2.0189,2,2,10,2,1,,,,,
,1.64,,,,,,,,,h.PNG,h,6078b4ad9006e4f6572dde97,2021-10-19_12h44.00.574,forced_choiceRT,2021.1.2,Win32,60.18295619,,,,,,,,1,Slow,g,0,2.1336,2,3,11,2,1,,,,,
,0.12,,,,,,,,,g.PNG,g,6078b4ad9006e4f6572dde97,2021-10-19_12h44.00.574,forced_choiceRT,2021.1.2,Win32,60.18295619,,,,,,,,1,Ontime,g,1,1.9177,3,0,12,1,1,,,,,
,1.38,,,,,,,,,h.PNG,h,6078b4ad9006e4f6572dde97,2021-10-19_12h44.00.574,forced_choiceRT,2021.1.2,Win32,60.18295619,,,,,,,,1,Ontime,h,1,2.092,3,1,13,2,1,,,,,
,1.84,,,,,,,,,j.PNG,j,6078b4ad9006e4f6572dde97,2021-10-19_12h44.00.574,forced_choiceRT,2021.1.2,Win32,60.18295619,,,,,,,,1,Slow,h,0,2.25,3,2,14,3,1,,,,,
,1.64,,,,,,,,,f.PNG,f,6078b4ad9006e4f6572dde97,2021-10-19_12h44.00.574,forced_choiceRT,2021.1.2,Win32,60.18295619,,,,,,,,1,Ontime,h,0,2.083,3,3,15,0,1,,,,,
,1.72,,,,,,,,,h.PNG,h,6078b4ad9006e4f6572dde97,2021-10-19_12h44.00.574,forced_choiceRT,2021.1.2,Win32,60.18295619,,,,,,,,1,Ontime,h,1,1.9905,4,0,16,2,1,,,,,
,0.93,,,,,,,,,g.PNG,g,6078b4ad9006e4f6572dde97,2021-10-19_12h44.00.574,forced_choiceRT,2021.1.2,Win32,60.18295619,,,,,,,,1,Fast,g,1,1.7678,4,1,17,1,1,,,,,
,0.67,,,,,,,,,f.PNG,f,6078b4ad9006e4f6572dde97,2021-10-19_12h44.00.574,forced_choiceRT,2021.1.2,Win32,60.18295619,,,,,,,,1,Ontime,f,1,1.9859,4,2,18,0,1,,,,,
,1.04,,,,,,,,,h.PNG,h,6078b4ad9006e4f6572dde97,2021-10-19_12h44.00.574,forced_choiceRT,2021.1.2,Win32,60.18295619,,,,,,,,1,Fast,h,1,1.8502,4,3,19,2,1,,,,,
,1.93,,,,,,,,,f.PNG,f,6078b4ad9006e4f6572dde97,2021-10-19_12h44.00.574,forced_choiceRT,2021.1.2,Win32,60.18295619,,,,,,,,1,Slow,j,0,2.1426,5,0,20,0,1,,,,,
,0.53,,,,,,,,,f.PNG,f,6078b4ad9006e4f6572dde97,2021-10-19_12h44.00.574,forced_choiceRT,2021.1.2,Win32,60.18295619,,,,,,,,1,Ontime,f,1,1.9998,5,1,21,0,1,,,,,
,0.81,,,,,,,,,g.PNG,g,6078b4ad9006e4f6572dde97,2021-10-19_12h44.00.574,forced_choiceRT,2021.1.2,Win32,60.18295619,,,,,,,,1,Ontime,g,1,1.9831,5,2,22,1,1,,,,,
,1.86,,,,,,,,,g.PNG,g,6078b4ad9006e4f6572dde97,2021-10-19_12h44.00.574,forced_choiceRT,2021.1.2,Win32,60.18295619,,,,,,,,1,Slow,j,0,2.2663,5,3,23,1,1,,,,,
,0.3,,,,,,,,,j.PNG,j,6078b4ad9006e4f6572dde97,2021-10-19_12h44.00.574,forced_choiceRT,2021.1.2,Win32,60.18295619,,,,,,,,1,Ontime,j,1,1.9406,6,0,24,3,1,,,,,
,1.92,,,,,,,,,g.PNG,g,6078b4ad9006e4f6572dde97,2021-10-19_12h44.00.574,forced_choiceRT,2021.1.2,Win32,60.18295619,,,,,,,,1,Slow,f,0,2.3037,6,1,25,1,1,,,,,
,0.11,,,,,,,,,g.PNG,g,6078b4ad9006e4f6572dde97,2021-10-19_12h44.00.574,forced_choiceRT,2021.1.2,Win32,60.18295619,,,,,,,,1,Ontime,g,1,2.0663,6,2,26,1,1,,,,,
,1.99,,,,,,,,,j.PNG,j,6078b4ad9006e4f6572dde97,2021-10-19_12h44.00.574,forced_choiceRT,2021.1.2,Win32,60.18295619,,,,,,,,1,Slow,g,0,2.2398,6,3,27,3,1,,,,,
,0.96,,,,,,,,,f.PNG,f,6078b4ad9006e4f6572dde97,2021-10-19_12h44.00.574,forced_choiceRT,2021.1.2,Win32,60.18295619,,,,,,,,1,Ontime,f,1,1.9835,7,0,28,0,1,,,,,
,1.92,,,,,,,,,g.PNG,g,6078b4ad9006e4f6572dde97,2021-10-19_12h44.00.574,forced_choiceRT,2021.1.2,Win32,60.18295619,,,,,,,,1,Ontime,f,0,2.0404,7,1,29,1,1,,,,,
,1.68,,,,,,,,,h.PNG,h,6078b4ad9006e4f6572dde97,2021-10-19_12h44.00.574,forced_choiceRT,2021.1.2,Win32,60.18295619,,,,,,,,1,Ontime,g,0,1.9494,7,2,30,2,1,,,,,
,0.75,,,,,,,,,j.PNG,j,6078b4ad9006e4f6572dde97,2021-10-19_12h44.00.574,forced_choiceRT,2021.1.2,Win32,60.18295619,,,,,,,,1,Fast,j,1,1.8069,7,3,31,3,1,,,,,
,1.19,,,,,,,,,g.PNG,g,6078b4ad9006e4f6572dde97,2021-10-19_12h44.00.574,forced_choiceRT,2021.1.2,Win32,60.18295619,,,,,,,,1,Slow,h,0,2.1064,8,0,32,1,1,,,,,
,1.22,,,,,,,,,f.PNG,f,6078b4ad9006e4f6572dde97,2021-10-19_12h44.00.574,forced_choiceRT,2021.1.2,Win32,60.18295619,,,,,,,,1,Ontime,f,1,2.0326,8,1,33,0,1,,,,,
,1.61,,,,,,,,,j.PNG,j,6078b4ad9006e4f6572dde97,2021-10-19_12h44.00.574,forced_choiceRT,2021.1.2,Win32,60.18295619,,,,,,,,1,Slow,j,1,2.2231,8,2,34,3,1,,,,,
,0.29,,,,,,,,,f.PNG,f,6078b4ad9006e4f6572dde97,2021-10-19_12h44.00.574,forced_choiceRT,2021.1.2,Win32,60.18295619,,,,,,,,1,Ontime,f,1,1.9839,8,3,35,0,1,,,,,
,1.4,,,,,,,,,j.PNG,j,6078b4ad9006e4f6572dde97,2021-10-19_12h44.00.574,forced_choiceRT,2021.1.2,Win32,60.18295619,,,,,,,,1,Ontime,j,1,2.0162,9,0,36,3,1,,,,,
,1.39,,,,,,,,,j.PNG,j,6078b4ad9006e4f6572dde97,2021-10-19_12h44.00.574,forced_choiceRT,2021.1.2,Win32,60.18295619,,,,,,,,1,Ontime,j,1,2.0991,9,1,37,3,1,,,,,
,0.31,,,,,,,,,h.PNG,h,6078b4ad9006e4f6572dde97,2021-10-19_12h44.00.574,forced_choiceRT,2021.1.2,Win32,60.18295619,,,,,,,,1,Ontime,h,1,2.0352,9,2,38,2,1,,,,,
,1.84,,,,,,,,,j.PNG,j,6078b4ad9006e4f6572dde97,2021-10-19_12h44.00.574,forced_choiceRT,2021.1.2,Win32,60.18295619,,,,,,,,1,Slow,j,1,2.4088,9,3,39,3,1,,,,,
,,,,,,,,,,,,6078b4ad9006e4f6572dde97,2021-10-19_12h44.00.574,forced_choiceRT,2021.1.2,Win32,60.18295619,,,,,,,,,,,,,,,,,,0,0,0,0,1
,0.47,,,,,,,,,f.PNG,f,6078b4ad9006e4f6572dde97,2021-10-19_12h44.00.574,forced_choiceRT,2021.1.2,Win32,60.18295619,,,,,,,,2,Ontime,f,1,1.9904,0,0,0,0,1,,,,,
,0.02,,,,,,,,,j.PNG,j,6078b4ad9006e4f6572dde97,2021-10-19_12h44.00.574,forced_choiceRT,2021.1.2,Win32,60.18295619,,,,,,,,2,Ontime,j,1,2.0397,0,1,1,3,1,,,,,
,0.36,,,,,,,,,j.PNG,j,6078b4ad9006e4f6572dde97,2021-10-19_12h44.00.574,forced_choiceRT,2021.1.2,Win32,60.18295619,,,,,,,,2,Ontime,j,1,1.9656,0,2,2,3,1,,,,,
,0.02,,,,,,,,,h.PNG,h,6078b4ad9006e4f6572dde97,2021-10-19_12h44.00.574,forced_choiceRT,2021.1.2,Win32,60.18295619,,,,,,,,2,Ontime,h,1,1.9671,0,3,3,2,1,,,,,
,0.11,,,,,,,,,f.PNG,f,6078b4ad9006e4f6572dde97,2021-10-19_12h44.00.574,forced_choiceRT,2021.1.2,Win32,60.18295619,,,,,,,,2,Ontime,f,1,1.9843,1,0,4,0,1,,,,,
,0.29,,,,,,,,,g.PNG,g,6078b4ad9006e4f6572dde97,2021-10-19_12h44.00.574,forced_choiceRT,2021.1.2,Win32,60.18295619,,,,,,,,2,Ontime,g,1,2.0955,1,1,5,1,1,,,,,
,1.57,,,,,,,,,f.PNG,f,6078b4ad9006e4f6572dde97,2021-10-19_12h44.00.574,forced_choiceRT,2021.1.2,Win32,60.18295619,,,,,,,,2,Slow,f,1,2.2395,1,2,6,0,1,,,,,
,0.65,,,,,,,,,f.PNG,f,6078b4ad9006e4f6572dde97,2021-10-19_12h44.00.574,forced_choiceRT,2021.1.2,Win32,60.18295619,,,,,,,,2,Ontime,f,1,2.0352,1,3,7,0,1,,,,,
,0.09,,,,,,,,,f.PNG,f,6078b4ad9006e4f6572dde97,2021-10-19_12h44.00.574,forced_choiceRT,2021.1.2,Win32,60.18295619,,,,,,,,2,Ontime,f,1,1.9853,2,0,8,0,1,,,,,
,0.62,,,,,,,,,g.PNG,g,6078b4ad9006e4f6572dde97,2021-10-19_12h44.00.574,forced_choiceRT,2021.1.2,Win32,60.18295619,,,,,,,,2,Ontime,g,1,2.0498,2,1,9,1,1,,,,,
,1.39,,,,,,,,,j.PNG,j,6078b4ad9006e4f6572dde97,2021-10-19_12h44.00.574,forced_choiceRT,2021.1.2,Win32,60.18295619,,,,,,,,2,Ontime,j,1,2.0389,2,2,10,3,1,,,,,
,1.31,,,,,,,,,j.PNG,j,6078b4ad9006e4f6572dde97,2021-10-19_12h44.00.574,forced_choiceRT,2021.1.2,Win32,60.18295619,,,,,,,,2,Ontime,j,1,2.0001,2,3,11,3,1,,,,,
,1.72,,,,,,,,,f.PNG,f,6078b4ad9006e4f6572dde97,2021-10-19_12h44.00.574,forced_choiceRT,2021.1.2,Win32,60.18295619,,,,,,,,2,Slow,f,1,2.2688,3,0,12,0,1,,,,,
,1.87,,,,,,,,,h.PNG,h,6078b4ad9006e4f6572dde97,2021-10-19_12h44.00.574,forced_choiceRT,2021.1.2,Win32,60.18295619,,,,,,,,2,Slow,j,0,2.3312,3,1,13,2,1,,,,,
,0.37,,,,,,,,,f.PNG,f,6078b4ad9006e4f6572dde97,2021-10-19_12h44.00.574,forced_choiceRT,2021.1.2,Win32,60.18295619,,,,,,,,2,Ontime,f,1,2.0659,3,2,14,0,1,,,,,
,0.01,,,,,,,,,g.PNG,g,6078b4ad9006e4f6572dde97,2021-10-19_12h44.00.574,forced_choiceRT,2021.1.2,Win32,60.18295619,,,,,,,,2,Ontime,g,1,2.049,3,3,15,1,1,,,,,
,1.13,,,,,,,,,j.PNG,j,6078b4ad9006e4f6572dde97,2021-10-19_12h44.00.574,forced_choiceRT,2021.1.2,Win32,60.18295619,,,,,,,,2,Ontime,j,1,1.933,4,0,16,3,1,,,,,
,0.71,,,,,,,,,g.PNG,g,6078b4ad9006e4f6572dde97,2021-10-19_12h44.00.574,forced_choiceRT,2021.1.2,Win32,60.18295619,,,,,,,,2,Ontime,g,1,1.9515,4,1,17,1,1,,,,,
,1.14,,,,,,,,,g.PNG,g,6078b4ad9006e4f6572dde97,2021-10-19_12h44.00.574,forced_choiceRT,2021.1.2,Win32,60.18295619,,,,,,,,2,Ontime,g,1,1.9493,4,2,18,1,1,,,,,
,1.17,,,,,,,,,h.PNG,h,6078b4ad9006e4f6572dde97,2021-10-19_12h44.00.574,forced_choiceRT,2021.1.2,Win32,60.18295619,,,,,,,,2,Fast,h,1,1.8076,4,3,19,2,1,,,,,
,1.8,,,,,,,,,h.PNG,h,6078b4ad9006e4f6572dde97,2021-10-19_12h44.00.574,forced_choiceRT,2021.1.2,Win32,60.18295619,,,,,,,,2,Slow,h,1,2.253,5,0,20,2,1,,,,,
,1.8,,,,,,,,,g.PNG,g,6078b4ad9006e4f6572dde97,2021-10-19_12h44.00.574,forced_choiceRT,2021.1.2,Win32,60.18295619,,,,,,,,2,Slow,j,0,2.2825,5,1,21,1,1,,,,,
,0.64,,,,,,,,,g.PNG,g,6078b4ad9006e4f6572dde97,2021-10-19_12h44.00.574,forced_choiceRT,2021.1.2,Win32,60.18295619,,,,,,,,2,Ontime,g,1,2.0243,5,2,22,1,1,,,,,
,0.51,,,,,,,,,h.PNG,h,6078b4ad9006e4f6572dde97,2021-10-19_12h44.00.574,forced_choiceRT,2021.1.2,Win32,60.18295619,,,,,,,,2,Ontime,h,1,2.0332,5,3,23,2,1,,,,,
,1.03,,,,,,,,,f.PNG,f,6078b4ad9006e4f6572dde97,2021-10-19_12h44.00.574,forced_choiceRT,2021.1.2,Win32,60.18295619,,,,,,,,2,Ontime,f,1,1.9616,6,0,24,0,1,,,,,
,0.36,,,,,,,,,g.PNG,g,6078b4ad9006e4f6572dde97,2021-10-19_12h44.00.574,forced_choiceRT,2021.1.2,Win32,60.18295619,,,,,,,,2,Slow,g,1,2.1003,6,1,25,1,1,,,,,
,0.57,,,,,,,,,j.PNG,j,6078b4ad9006e4f6572dde97,2021-10-19_12h44.00.574,forced_choiceRT,2021.1.2,Win32,60.18295619,,,,,,,,2,Ontime,j,1,1.9531,6,2,26,3,1,,,,,
,0.25,,,,,,,,,j.PNG,j,6078b4ad9006e4f6572dde97,2021-10-19_12h44.00.574,forced_choiceRT,2021.1.2,Win32,60.18295619,,,,,,,,2,Ontime,j,1,1.9104,6,3,27,3,1,,,,,
,1.4,,,,,,,,,f.PNG,f,6078b4ad9006e4f6572dde97,2021-10-19_12h44.00.574,forced_choiceRT,2021.1.2,Win32,60.18295619,,,,,,,,2,Ontime,g,0,2.0371,7,0,28,0,1,,,,,
,0.17,,,,,,,,,g.PNG,g,6078b4ad9006e4f6572dde97,2021-10-19_12h44.00.574,forced_choiceRT,2021.1.2,Win32,60.18295619,,,,,,,,2,Ontime,g,1,1.9831,7,1,29,1,1,,,,,
,0.34,,,,,,,,,h.PNG,h,6078b4ad9006e4f6572dde97,2021-10-19_12h44.00.574,forced_choiceRT,2021.1.2,Win32,60.18295619,,,,,,,,2,Ontime,h,1,2.0503,7,2,30,2,1,,,,,
,0.55,,,,,,,,,f.PNG,f,6078b4ad9006e4f6572dde97,2021-10-19_12h44.00.574,forced_choiceRT,2021.1.2,Win32,60.18295619,,,,,,,,2,Ontime,f,1,1.9561,7,3,31,0,1,,,,,
,1.54,,,,,,,,,j.PNG,j,6078b4ad9006e4f6572dde97,2021-10-19_12h44.00.574,forced_choiceRT,2021.1.2,Win32,60.18295619,,,,,,,,2,Slow,j,1,2.2,8,0,32,3,1,,,,,
,0.99,,,,,,,,,h.PNG,h,6078b4ad9006e4f6572dde97,2021-10-19_12h44.00.574,forced_choiceRT,2021.1.2,Win32,60.18295619,,,,,,,,2,Ontime,h,1,1.9494,8,1,33,2,1,,,,,
,0.61,,,,,,,,,j.PNG,j,6078b4ad9006e4f6572dde97,2021-10-19_12h44.00.574,forced_choiceRT,2021.1.2,Win32,60.18295619,,,,,,,,2,Ontime,j,1,1.9998,8,2,34,3,1,,,,,
,0.31,,,,,,,,,h.PNG,h,6078b4ad9006e4f6572dde97,2021-10-19_12h44.00.574,forced_choiceRT,2021.1.2,Win32,60.18295619,,,,,,,,2,Ontime,h,1,1.9006,8,3,35,2,1,,,,,
,1.24,,,,,,,,,h.PNG,h,6078b4ad9006e4f6572dde97,2021-10-19_12h44.00.574,forced_choiceRT,2021.1.2,Win32,60.18295619,,,,,,,,2,Ontime,h,1,1.9663,9,0,36,2,1,,,,,
,0.58,,,,,,,,,j.PNG,j,6078b4ad9006e4f6572dde97,2021-10-19_12h44.00.574,forced_choiceRT,2021.1.2,Win32,60.18295619,,,,,,,,2,Fast,j,1,1.8841,9,1,37,3,1,,,,,
,0.55,,,,,,,,,g.PNG,g,6078b4ad9006e4f6572dde97,2021-10-19_12h44.00.574,forced_choiceRT,2021.1.2,Win32,60.18295619,,,,,,,,2,Fast,g,1,1.8706,9,2,38,1,1,,,,,
,0.98,,,,,,,,,h.PNG,h,6078b4ad9006e4f6572dde97,2021-10-19_12h44.00.574,forced_choiceRT,2021.1.2,Win32,60.18295619,,,,,,,,2,Ontime,h,1,1.9106,9,3,39,2,1,,,,,
,,,,,,,,,,,,6078b4ad9006e4f6572dde97,2021-10-19_12h44.00.574,forced_choiceRT,2021.1.2,Win32,60.18295619,,,,,,,,,,,,,,,,,,1,0,1,0,1
,0.96,,,,,,,,,j.PNG,j,6078b4ad9006e4f6572dde97,2021-10-19_12h44.00.574,forced_choiceRT,2021.1.2,Win32,60.18295619,,,,,,,,3,Fast,j,1,1.6082,0,0,0,3,1,,,,,
,0.66,,,,,,,,,f.PNG,f,6078b4ad9006e4f6572dde97,2021-10-19_12h44.00.574,forced_choiceRT,2021.1.2,Win32,60.18295619,,,,,,,,3,Fast,f,1,1.7725,0,1,1,0,1,,,,,
,0.46,,,,,,,,,f.PNG,f,6078b4ad9006e4f6572dde97,2021-10-19_12h44.00.574,forced_choiceRT,2021.1.2,Win32,60.18295619,,,,,,,,3,Ontime,f,1,1.988,0,2,2,0,1,,,,,
,0.34,,,,,,,,,j.PNG,j,6078b4ad9006e4f6572dde97,2021-10-19_12h44.00.574,forced_choiceRT,2021.1.2,Win32,60.18295619,,,,,,,,3,Ontime,j,1,1.9836,0,3,3,3,1,,,,,
,0.4,,,,,,,,,g.PNG,g,6078b4ad9006e4f6572dde97,2021-10-19_12h44.00.574,forced_choiceRT,2021.1.2,Win32,60.18295619,,,,,,,,3,Ontime,g,1,1.9216,1,0,4,1,1,,,,,
,1.9,,,,,,,,,f.PNG,f,6078b4ad9006e4f6572dde97,2021-10-19_12h44.00.574,forced_choiceRT,2021.1.2,Win32,60.18295619,,,,,,,,3,Ontime,h,0,2.0691,1,1,5,0,1,,,,,
,1.99,,,,,,,,,f.PNG,f,6078b4ad9006e4f6572dde97,2021-10-19_12h44.00.574,forced_choiceRT,2021.1.2,Win32,60.18295619,,,,,,,,3,Ontime,j,0,2.0206,1,2,6,0,1,,,,,
,0.57,,,,,,,,,j.PNG,j,6078b4ad9006e4f6572dde97,2021-10-19_12h44.00.574,forced_choiceRT,2021.1.2,Win32,60.18295619,,,,,,,,3,Ontime,j,1,1.9161,1,3,7,3,1,,,,,
,1.89,,,,,,,,,g.PNG,g,6078b4ad9006e4f6572dde97,2021-10-19_12h44.00.574,forced_choiceRT,2021.1.2,Win32,60.18295619,,,,,,,,3,Ontime,f,0,1.9502,2,0,8,1,1,,,,,
,0.91,,,,,,,,,j.PNG,j,6078b4ad9006e4f6572dde97,2021-10-19_12h44.00.574,forced_choiceRT,2021.1.2,Win32,60.18295619,,,,,,,,3,Ontime,j,1,2.0199,2,1,9,3,1,,,,,
,0.31,,,,,,,,,f.PNG,f,6078b4ad9006e4f6572dde97,2021-10-19_12h44.00.574,forced_choiceRT,2021.1.2,Win32,60.18295619,,,,,,,,3,Ontime,f,1,1.9277,2,2,10,0,1,,,,,
,0.1,,,,,,,,,j.PNG,j,6078b4ad9006e4f6572dde97,2021-10-19_12h44.00.574,forced_choiceRT,2021.1.2,Win32,60.18295619,,,,,,,,3,Fast,j,1,1.8667,2,3,11,3,1,,,,,
,0.02,,,,,,,,,g.PNG,g,6078b4ad9006e4f6572dde97,2021-10-19_12h44.00.574,forced_choiceRT,2021.1.2,Win32,60.18295619,,,,,,,,3,Fast,g,1,1.8663,3,0,12,1,1,,,,,
,0.78,,,,,,,,,h.PNG,h,6078b4ad9006e4f6572dde97,2021-10-19_12h44.00.574,forced_choiceRT,2021.1.2,Win32,60.18295619,,,,,,,,3,Ontime,h,1,1.9782,3,1,13,2,1,,,,,
,0.99,,,,,,,,,j.PNG,j,6078b4ad9006e4f6572dde97,2021-10-19_12h44.00.574,forced_choiceRT,2021.1.2,Win32,60.18295619,,,,,,,,3,Ontime,j,1,2.0384,3,2,14,3,1,,,,,
,1.83,,,,,,,,,h.PNG,h,6078b4ad9006e4f6572dde97,2021-10-19_12h44.00.574,forced_choiceRT,2021.1.2,Win32,60.18295619,,,,,,,,3,Ontime,g,0,2.0672,3,3,15,2,1,,,,,
,0.63,,,,,,,,,h.PNG,h,6078b4ad9006e4f6572dde97,2021-10-19_12h44.00.574,forced_choiceRT,2021.1.2,Win32,60.18295619,,,,,,,,3,Ontime,h,1,1.9663,4,0,16,2,1,,,,,
,1.74,,,,,,,,,j.PNG,j,6078b4ad9006e4f6572dde97,2021-10-19_12h44.00.574,forced_choiceRT,2021.1.2,Win32,60.18295619,,,,,,,,3,Slow,j,1,2.1535,4,1,17,3,1,,,,,
,1.25,,,,,,,,,g.PNG,g,6078b4ad9006e4f6572dde97,2021-10-19_12h44.00.574,forced_choiceRT,2021.1.2,Win32,60.18295619,,,,,,,,3,Fast,h,0,1.7994,4,2,18,1,1,,,,,
,0.03,,,,,,,,,f.PNG,f,6078b4ad9006e4f6572dde97,2021-10-19_12h44.00.574,forced_choiceRT,2021.1.2,Win32,60.18295619,,,,,,,,3,Ontime,f,1,1.9901,4,3,19,0,1,,,,,
,1.18,,,,,,,,,g.PNG,g,6078b4ad9006e4f6572dde97,2021-10-19_12h44.00.574,forced_choiceRT,2021.1.2,Win32,60.18295619,,,,,,,,3,Ontime,g,1,2.0829,5,0,20,1,1,,,,,
,0.2,,,,,,,,,g.PNG,g,6078b4ad9006e4f6572dde97,2021-10-19_12h44.00.574,forced_choiceRT,2021.1.2,Win32,60.18295619,,,,,,,,3,Fast,g,1,1.8663,5,1,21,1,1,,,,,
,1.13,,,,,,,,,h.PNG,h,6078b4ad9006e4f6572dde97,2021-10-19_12h44.00.574,forced_choiceRT,2021.1.2,Win32,60.18295619,,,,,,,,3,Ontime,h,1,2.0333,5,2,22,2,1,,,,,
,1.38,,,,,,,,,j.PNG,j,6078b4ad9006e4f6572dde97,2021-10-19_12h44.00.574,forced_choiceRT,2021.1.2,Win32,60.18295619,,,,,,,,3,Ontime,j,1,1.9661,5,3,23,3,1,,,,,
,1.39,,,,,,,,,h.PNG,h,6078b4ad9006e4f6572dde97,2021-10-19_12h44.00.574,forced_choiceRT,2021.1.2,Win32,60.18295619,,,,,,,,3,Ontime,h,1,2.0076,6,0,24,2,1,,,,,
,1.37,,,,,,,,,j.PNG,j,6078b4ad9006e4f6572dde97,2021-10-19_12h44.00.574,forced_choiceRT,2021.1.2,Win32,60.18295619,,,,,,,,3,Ontime,j,1,1.9941,6,1,25,3,1,,,,,
,0.44,,,,,,,,,h.PNG,h,6078b4ad9006e4f6572dde97,2021-10-19_12h44.00.574,forced_choiceRT,2021.1.2,Win32,60.18295619,,,,,,,,3,Slow,h,1,2.1236,6,2,26,2,1,,,,,
,0.26,,,,,,,,,g.PNG,g,6078b4ad9006e4f6572dde97,2021-10-19_12h44.00.574,forced_choiceRT,2021.1.2,Win32,60.18295619,,,,,,,,3,Ontime,g,1,1.9916,6,3,27,1,1,,,,,
,1.67,,,,,,,,,j.PNG,j,6078b4ad9006e4f6572dde97,2021-10-19_12h44.00.574,forced_choiceRT,2021.1.2,Win32,60.18295619,,,,,,,,3,Slow,g,0,2.1273,7,0,28,3,1,,,,,
,1.08,,,,,,,,,g.PNG,g,6078b4ad9006e4f6572dde97,2021-10-19_12h44.00.574,forced_choiceRT,2021.1.2,Win32,60.18295619,,,,,,,,3,Ontime,g,1,1.9992,7,1,29,1,1,,,,,
,1.18,,,,,,,,,f.PNG,f,6078b4ad9006e4f6572dde97,2021-10-19_12h44.00.574,forced_choiceRT,2021.1.2,Win32,60.18295619,,,,,,,,3,Ontime,f,1,1.9075,7,2,30,0,1,,,,,
,0.4,,,,,,,,,g.PNG,g,6078b4ad9006e4f6572dde97,2021-10-19_12h44.00.574,forced_choiceRT,2021.1.2,Win32,60.18295619,,,,,,,,3,Ontime,g,1,1.9833,7,3,31,1,1,,,,,
,0.31,,,,,,,,,g.PNG,g,6078b4ad9006e4f6572dde97,2021-10-19_12h44.00.574,forced_choiceRT,2021.1.2,Win32,60.18295619,,,,,,,,3,Ontime,g,1,1.9009,8,0,32,1,1,,,,,
,1.55,,,,,,,,,h.PNG,h,6078b4ad9006e4f6572dde97,2021-10-19_12h44.00.574,forced_choiceRT,2021.1.2,Win32,60.18295619,,,,,,,,3,Ontime,h,1,2.0779,8,1,33,2,1,,,,,
,0.45,,,,,,,,,f.PNG,f,6078b4ad9006e4f6572dde97,2021-10-19_12h44.00.574,forced_choiceRT,2021.1.2,Win32,60.18295619,,,,,,,,3,Ontime,f,1,2.0496,8,2,34,0,1,,,,,
,1.11,,,,,,,,,h.PNG,h,6078b4ad9006e4f6572dde97,2021-10-19_12h44.00.574,forced_choiceRT,2021.1.2,Win32,60.18295619,,,,,,,,3,Ontime,h,1,2.0273,8,3,35,2,1,,,,,
,0.99,,,,,,,,,h.PNG,h,6078b4ad9006e4f6572dde97,2021-10-19_12h44.00.574,forced_choiceRT,2021.1.2,Win32,60.18295619,,,,,,,,3,Fast,h,1,1.8822,9,0,36,2,1,,,,,
,0.71,,,,,,,,,f.PNG,f,6078b4ad9006e4f6572dde97,2021-10-19_12h44.00.574,forced_choiceRT,2021.1.2,Win32,60.18295619,,,,,,,,3,Ontime,f,1,2.0248,9,1,37,0,1,,,,,
,0.94,,,,,,,,,h.PNG,h,6078b4ad9006e4f6572dde97,2021-10-19_12h44.00.574,forced_choiceRT,2021.1.2,Win32,60.18295619,,,,,,,,3,Ontime,h,1,2.0832,9,2,38,2,1,,,,,
,0.07,,,,,,,,,f.PNG,f,6078b4ad9006e4f6572dde97,2021-10-19_12h44.00.574,forced_choiceRT,2021.1.2,Win32,60.18295619,,,,,,,,3,Fast,f,1,1.6494,9,3,39,0,1,,,,,
,,,,,,,,,,,,6078b4ad9006e4f6572dde97,2021-10-19_12h44.00.574,forced_choiceRT,2021.1.2,Win32,60.18295619,,,,,,,,,,,,,,,,,,2,0,2,0,1
,1.05,,,,,,,,,f.PNG,f,6078b4ad9006e4f6572dde97,2021-10-19_12h44.00.574,forced_choiceRT,2021.1.2,Win32,60.18295619,,,,,,,,4,Ontime,f,1,1.9428,0,0,0,0,1,,,,,
,1.81,,,,,,,,,g.PNG,g,6078b4ad9006e4f6572dde97,2021-10-19_12h44.00.574,forced_choiceRT,2021.1.2,Win32,60.18295619,,,,,,,,4,Slow,g,1,2.2492,0,1,1,1,1,,,,,
,1.97,,,,,,,,,h.PNG,h,6078b4ad9006e4f6572dde97,2021-10-19_12h44.00.574,forced_choiceRT,2021.1.2,Win32,60.18295619,,,,,,,,4,Ontime,f,0,1.9988,0,2,2,2,1,,,,,
,0.79,,,,,,,,,h.PNG,h,6078b4ad9006e4f6572dde97,2021-10-19_12h44.00.574,forced_choiceRT,2021.1.2,Win32,60.18295619,,,,,,,,4,Fast,h,1,1.8163,0,3,3,2,1,,,,,
,0.8,,,,,,,,,h.PNG,h,6078b4ad9006e4f6572dde97,2021-10-19_12h44.00.574,forced_choiceRT,2021.1.2,Win32,60.18295619,,,,,,,,4,Slow,h,1,2.1205,1,0,4,2,1,,,,,
,1.06,,,,,,,,,g.PNG,g,6078b4ad9006e4f6572dde97,2021-10-19_12h44.00.574,forced_choiceRT,2021.1.2,Win32,60.18295619,,,,,,,,4,Ontime,g,1,1.9415,1,1,5,1,1,,,,,
,0.02,,,,,,,,,g.PNG,g,6078b4ad9006e4f6572dde97,2021-10-19_12h44.00.574,forced_choiceRT,2021.1.2,Win32,60.18295619,,,,,,,,4,Ontime,g,1,1.9914,1,2,6,1,1,,,,,
,1.82,,,,,,,,,f.PNG,f,6078b4ad9006e4f6572dde97,2021-10-19_12h44.00.574,forced_choiceRT,2021.1.2,Win32,60.18295619,,,,,,,,4,Slow,j,0,2.1826,1,3,7,0,1,,,,,
,0.18,,,,,,,,,j.PNG,j,6078b4ad9006e4f6572dde97,2021-10-19_12h44.00.574,forced_choiceRT,2021.1.2,Win32,60.18295619,,,,,,,,4,Ontime,j,1,2.0057,2,0,8,3,1,,,,,
,0.5,,,,,,,,,f.PNG,f,6078b4ad9006e4f6572dde97,2021-10-19_12h44.00.574,forced_choiceRT,2021.1.2,Win32,60.18295619,,,,,,,,4,Ontime,f,1,2.0828,2,1,9,0,1,,,,,
,1.16,,,,,,,,,f.PNG,f,6078b4ad9006e4f6572dde97,2021-10-19_12h44.00.574,forced_choiceRT,2021.1.2,Win32,60.18295619,,,,,,,,4,Ontime,f,1,2.001,2,2,10,0,1,,,,,
,1.68,,,,,,,,,f.PNG,f,6078b4ad9006e4f6572dde97,2021-10-19_12h44.00.574,forced_choiceRT,2021.1.2,Win32,60.18295619,,,,,,,,4,Slow,g,0,2.1725,2,3,11,0,1,,,,,
,1.01,,,,,,,,,j.PNG,j,6078b4ad9006e4f6572dde97,2021-10-19_12h44.00.574,forced_choiceRT,2021.1.2,Win32,60.18295619,,,,,,,,4,Fast,h,0,1.8556,3,0,12,3,1,,,,,
,0.39,,,,,,,,,j.PNG,j,6078b4ad9006e4f6572dde97,2021-10-19_12h44.00.574,forced_choiceRT,2021.1.2,Win32,60.18295619,,,,,,,,4,Ontime,j,1,2.05,3,1,13,3,1,,,,,
,1.55,,,,,,,,,g.PNG,g,6078b4ad9006e4f6572dde97,2021-10-19_12h44.00.574,forced_choiceRT,2021.1.2,Win32,60.18295619,,,,,,,,4,Ontime,j,0,1.9402,3,2,14,1,1,,,,,
,0.64,,,,,,,,,h.PNG,h,6078b4ad9006e4f6572dde97,2021-10-19_12h44.00.574,forced_choiceRT,2021.1.2,Win32,60.18295619,,,,,,,,4,Ontime,h,1,1.9439,3,3,15,2,1,,,,,
,1.77,,,,,,,,,j.PNG,j,6078b4ad9006e4f6572dde97,2021-10-19_12h44.00.574,forced_choiceRT,2021.1.2,Win32,60.18295619,,,,,,,,4,Ontime,f,0,1.9498,4,0,16,3,1,,,,,
,0.54,,,,,,,,,j.PNG,j,6078b4ad9006e4f6572dde97,2021-10-19_12h44.00.574,forced_choiceRT,2021.1.2,Win32,60.18295619,,,,,,,,4,Ontime,j,1,1.9547,4,1,17,3,1,,,,,
,1.62,,,,,,,,,j.PNG,j,6078b4ad9006e4f6572dde97,2021-10-19_12h44.00.574,forced_choiceRT,2021.1.2,Win32,60.18295619,,,,,,,,4,Ontime,f,0,2.0364,4,2,18,3,1,,,,,
,1.76,,,,,,,,,g.PNG,g,6078b4ad9006e4f6572dde97,2021-10-19_12h44.00.574,forced_choiceRT,2021.1.2,Win32,60.18295619,,,,,,,,4,Ontime,j,0,1.9328,4,3,19,1,1,,,,,
,0.97,,,,,,,,,g.PNG,g,6078b4ad9006e4f6572dde97,2021-10-19_12h44.00.574,forced_choiceRT,2021.1.2,Win32,60.18295619,,,,,,,,4,Ontime,g,1,2.0374,5,0,20,1,1,,,,,
,0.13,,,,,,,,,h.PNG,h,6078b4ad9006e4f6572dde97,2021-10-19_12h44.00.574,forced_choiceRT,2021.1.2,Win32,60.18295619,,,,,,,,4,Fast,h,1,1.7493,5,1,21,2,1,,,,,
,0.13,,,,,,,,,h.PNG,h,6078b4ad9006e4f6572dde97,2021-10-19_12h44.00.574,forced_choiceRT,2021.1.2,Win32,60.18295619,,,,,,,,4,Ontime,h,1,1.9828,5,2,22,2,1,,,,,
,0.98,,,,,,,,,j.PNG,j,6078b4ad9006e4f6572dde97,2021-10-19_12h44.00.574,forced_choiceRT,2021.1.2,Win32,60.18295619,,,,,,,,4,Ontime,j,1,1.9532,5,3,23,3,1,,,,,
,1.03,,,,,,,,,j.PNG,j,6078b4ad9006e4f6572dde97,2021-10-19_12h44.00.574,forced_choiceRT,2021.1.2,Win32,60.18295619,,,,,,,,4,Ontime,j,1,1.9672,6,0,24,3,1,,,,,
,1.35,,,,,,,,,j.PNG,j,6078b4ad9006e4f6572dde97,2021-10-19_12h44.00.574,forced_choiceRT,2021.1.2,Win32,60.18295619,,,,,,,,4,Fast,j,1,1.7825,6,1,25,3,1,,,,,
,1.37,,,,,,,,,f.PNG,f,6078b4ad9006e4f6572dde97,2021-10-19_12h44.00.574,forced_choiceRT,2021.1.2,Win32,60.18295619,,,,,,,,4,Fast,f,1,1.8996,6,2,26,0,1,,,,,
,0.59,,,,,,,,,f.PNG,f,6078b4ad9006e4f6572dde97,2021-10-19_12h44.00.574,forced_choiceRT,2021.1.2,Win32,60.18295619,,,,,,,,4,Ontime,f,1,1.9882,6,3,27,0,1,,,,,
,1.18,,,,,,,,,g.PNG,g,6078b4ad9006e4f6572dde97,2021-10-19_12h44.00.574,forced_choiceRT,2021.1.2,Win32,60.18295619,,,,,,,,4,Ontime,g,1,2.0401,7,0,28,1,1,,,,,
,1.08,,,,,,,,,f.PNG,f,6078b4ad9006e4f6572dde97,2021-10-19_12h44.00.574,forced_choiceRT,2021.1.2,Win32,60.18295619,,,,,,,,4,Ontime,f,1,1.9993,7,1,29,0,1,,,,,
,1.74,,,,,,,,,h.PNG,h,6078b4ad9006e4f6572dde97,2021-10-19_12h44.00.574,forced_choiceRT,2021.1.2,Win32,60.18295619,,,,,,,,4,Ontime,f,0,2.0687,7,2,30,2,1,,,,,
,1.77,,,,,,,,,f.PNG,f,6078b4ad9006e4f6572dde97,2021-10-19_12h44.00.574,forced_choiceRT,2021.1.2,Win32,60.18295619,,,,,,,,4,Ontime,h,0,1.9042,7,3,31,0,1,,,,,
,0.15,,,,,,,,,g.PNG,g,6078b4ad9006e4f6572dde97,2021-10-19_12h44.00.574,forced_choiceRT,2021.1.2,Win32,60.18295619,,,,,,,,4,Fast,g,1,1.7667,8,0,32,1,1,,,,,
,0.02,,,,,,,,,g.PNG,g,6078b4ad9006e4f6572dde97,2021-10-19_12h44.00.574,forced_choiceRT,2021.1.2,Win32,60.18295619,,,,,,,,4,Ontime,g,1,2.0497,8,1,33,1,1,,,,,
,0.49,,,,,,,,,h.PNG,h,6078b4ad9006e4f6572dde97,2021-10-19_12h44.00.574,forced_choiceRT,2021.1.2,Win32,60.18295619,,,,,,,,4,Ontime,h,1,2.0203,8,2,34,2,1,,,,,
,1.17,,,,,,,,,h.PNG,h,6078b4ad9006e4f6572dde97,2021-10-19_12h44.00.574,forced_choiceRT,2021.1.2,Win32,60.18295619,,,,,,,,4,Ontime,h,1,1.9329,8,3,35,2,1,,,,,
,1.84,,,,,,,,,h.PNG,h,6078b4ad9006e4f6572dde97,2021-10-19_12h44.00.574,forced_choiceRT,2021.1.2,Win32,60.18295619,,,,,,,,4,Ontime,g,0,2.0193,9,0,36,2,1,,,,,
,0.55,,,,,,,,,f.PNG,f,6078b4ad9006e4f6572dde97,2021-10-19_12h44.00.574,forced_choiceRT,2021.1.2,Win32,60.18295619,,,,,,,,4,Fast,f,1,1.6331,9,1,37,0,1,,,,,
,0.98,,,,,,,,,j.PNG,j,6078b4ad9006e4f6572dde97,2021-10-19_12h44.00.574,forced_choiceRT,2021.1.2,Win32,60.18295619,,,,,,,,4,Ontime,j,1,2.0087,9,2,38,3,1,,,,,
,1.29,,,,,,,,,g.PNG,g,6078b4ad9006e4f6572dde97,2021-10-19_12h44.00.574,forced_choiceRT,2021.1.2,Win32,60.18295619,,,,,,,,4,Ontime,g,1,2.0262,9,3,39,1,1,,,,,
,,,,,,,,,,,,6078b4ad9006e4f6572dde97,2021-10-19_12h44.00.574,forced_choiceRT,2021.1.2,Win32,60.18295619,,,,,,,,,,,,,,,,,,3,0,3,0,1
,1.03,,,,,,,,,j.PNG,j,6078b4ad9006e4f6572dde97,2021-10-19_12h44.00.574,forced_choiceRT,2021.1.2,Win32,60.18295619,,,,,,,,5,Slow,j,1,4.9286,0,0,0,3,1,,,,,
,0.86,,,,,,,,,j.PNG,j,6078b4ad9006e4f6572dde97,2021-10-19_12h44.00.574,forced_choiceRT,2021.1.2,Win32,60.18295619,,,,,,,,5,Ontime,j,1,2.0741,0,1,1,3,1,,,,,
,0.58,,,,,,,,,j.PNG,j,6078b4ad9006e4f6572dde97,2021-10-19_12h44.00.574,forced_choiceRT,2021.1.2,Win32,60.18295619,,,,,,,,5,Ontime,j,1,2.0817,0,2,2,3,1,,,,,
,0.2,,,,,,,,,h.PNG,h,6078b4ad9006e4f6572dde97,2021-10-19_12h44.00.574,forced_choiceRT,2021.1.2,Win32,60.18295619,,,,,,,,5,Fast,h,1,1.7336,0,3,3,2,1,,,,,
,1.83,,,,,,,,,h.PNG,h,6078b4ad9006e4f6572dde97,2021-10-19_12h44.00.574,forced_choiceRT,2021.1.2,Win32,60.18295619,,,,,,,,5,Ontime,g,0,2.0157,1,0,4,2,1,,,,,
,1.48,,,,,,,,,f.PNG,f,6078b4ad9006e4f6572dde97,2021-10-19_12h44.00.574,forced_choiceRT,2021.1.2,Win32,60.18295619,,,,,,,,5,Slow,f,1,2.1168,1,1,5,0,1,,,,,
,1.44,,,,,,,,,h.PNG,h,6078b4ad9006e4f6572dde97,2021-10-19_12h44.00.574,forced_choiceRT,2021.1.2,Win32,60.18295619,,,,,,,,5,Ontime,g,0,1.9704,1,2,6,2,1,,,,,
,1.52,,,,,,,,,f.PNG,f,6078b4ad9006e4f6572dde97,2021-10-19_12h44.00.574,forced_choiceRT,2021.1.2,Win32,60.18295619,,,,,,,,5,Ontime,g,0,1.9847,1,3,7,0,1,,,,,
,0.74,,,,,,,,,h.PNG,h,6078b4ad9006e4f6572dde97,2021-10-19_12h44.00.574,forced_choiceRT,2021.1.2,Win32,60.18295619,,,,,,,,5,Fast,h,1,1.7726,2,0,8,2,1,,,,,
,0.46,,,,,,,,,h.PNG,h,6078b4ad9006e4f6572dde97,2021-10-19_12h44.00.574,forced_choiceRT,2021.1.2,Win32,60.18295619,,,,,,,,5,Ontime,h,1,2.0329,2,1,9,2,1,,,,,
,0.4,,,,,,,,,j.PNG,j,6078b4ad9006e4f6572dde97,2021-10-19_12h44.00.574,forced_choiceRT,2021.1.2,Win32,60.18295619,,,,,,,,5,Ontime,j,1,1.9883,2,2,10,3,1,,,,,
,0.35,,,,,,,,,h.PNG,h,6078b4ad9006e4f6572dde97,2021-10-19_12h44.00.574,forced_choiceRT,2021.1.2,Win32,60.18295619,,,,,,,,5,Ontime,h,1,1.9999,2,3,11,2,1,,,,,
,0.02,,,,,,,,,j.PNG,j,6078b4ad9006e4f6572dde97,2021-10-19_12h44.00.574,forced_choiceRT,2021.1.2,Win32,60.18295619,,,,,,,,5,Fast,j,1,1.8826,3,0,12,3,1,,,,,
,1.4,,,,,,,,,f.PNG,f,6078b4ad9006e4f6572dde97,2021-10-19_12h44.00.574,forced_choiceRT,2021.1.2,Win32,60.18295619,,,,,,,,5,Slow,f,1,2.119,3,1,13,0,1,,,,,
,1.01,,,,,,,,,j.PNG,j,6078b4ad9006e4f6572dde97,2021-10-19_12h44.00.574,forced_choiceRT,2021.1.2,Win32,60.18295619,,,,,,,,5,Ontime,j,1,1.912,3,2,14,3,1,,,,,
,0.2,,,,,,,,,h.PNG,h,6078b4ad9006e4f6572dde97,2021-10-19_12h44.00.574,forced_choiceRT,2021.1.2,Win32,60.18295619,,,,,,,,5,Ontime,h,1,2.033,3,3,15,2,1,,,,,
,1.46,,,,,,,,,g.PNG,g,6078b4ad9006e4f6572dde97,2021-10-19_12h44.00.574,forced_choiceRT,2021.1.2,Win32,60.18295619,,,,,,,,5,Ontime,g,1,2.0328,4,0,16,1,1,,,,,
,1.79,,,,,,,,,f.PNG,f,6078b4ad9006e4f6572dde97,2021-10-19_12h44.00.574,forced_choiceRT,2021.1.2,Win32,60.18295619,,,,,,,,5,Ontime,j,0,2.0165,4,1,17,0,1,,,,,
,1.27,,,,,,,,,j.PNG,j,6078b4ad9006e4f6572dde97,2021-10-19_12h44.00.574,forced_choiceRT,2021.1.2,Win32,60.18295619,,,,,,,,5,Ontime,j,1,1.9962,4,2,18,3,1,,,,,
,1.49,,,,,,,,,g.PNG,g,6078b4ad9006e4f6572dde97,2021-10-19_12h44.00.574,forced_choiceRT,2021.1.2,Win32,60.18295619,,,,,,,,5,Slow,h,0,34.5226,4,3,19,1,1,,,,,
,0.01,,,,,,,,,f.PNG,f,6078b4ad9006e4f6572dde97,2021-10-19_12h44.00.574,forced_choiceRT,2021.1.2,Win32,60.18295619,,,,,,,,5,Ontime,f,1,2.0118,5,0,20,0,1,,,,,
,1.76,,,,,,,,,g.PNG,g,6078b4ad9006e4f6572dde97,2021-10-19_12h44.00.574,forced_choiceRT,2021.1.2,Win32,60.18295619,,,,,,,,5,Ontime,f,0,2.0162,5,1,21,1,1,,,,,
,1.43,,,,,,,,,f.PNG,f,6078b4ad9006e4f6572dde97,2021-10-19_12h44.00.574,forced_choiceRT,2021.1.2,Win32,60.18295619,,,,,,,,5,Ontime,f,1,2.0083,5,2,22,0,1,,,,,
,0.74,,,,,,,,,h.PNG,h,6078b4ad9006e4f6572dde97,2021-10-19_12h44.00.574,forced_choiceRT,2021.1.2,Win32,60.18295619,,,,,,,,5,Ontime,h,1,1.9725,5,3,23,2,1,,,,,
,1.21,,,,,,,,,g.PNG,g,6078b4ad9006e4f6572dde97,2021-10-19_12h44.00.574,forced_choiceRT,2021.1.2,Win32,60.18295619,,,,,,,,5,Ontime,g,1,1.9005,6,0,24,1,1,,,,,
,1.9,,,,,,,,,g.PNG,g,6078b4ad9006e4f6572dde97,2021-10-19_12h44.00.574,forced_choiceRT,2021.1.2,Win32,60.18295619,,,,,,,,5,Ontime,g,1,1.9853,6,1,25,1,1,,,,,
,1.35,,,,,,,,,f.PNG,f,6078b4ad9006e4f6572dde97,2021-10-19_12h44.00.574,forced_choiceRT,2021.1.2,Win32,60.18295619,,,,,,,,5,Ontime,f,1,2.0227,6,2,26,0,1,,,,,
,1.19,,,,,,,,,f.PNG,f,6078b4ad9006e4f6572dde97,2021-10-19_12h44.00.574,forced_choiceRT,2021.1.2,Win32,60.18295619,,,,,,,,5,Ontime,f,1,1.9373,6,3,27,0,1,,,,,
,1.1,,,,,,,,,j.PNG,j,6078b4ad9006e4f6572dde97,2021-10-19_12h44.00.574,forced_choiceRT,2021.1.2,Win32,60.18295619,,,,,,,,5,Ontime,j,1,2.0022,7,0,28,3,1,,,,,
,0.61,,,,,,,,,h.PNG,h,6078b4ad9006e4f6572dde97,2021-10-19_12h44.00.574,forced_choiceRT,2021.1.2,Win32,60.18295619,,,,,,,,5,Ontime,h,1,1.9502,7,1,29,2,1,,,,,
,1.05,,,,,,,,,f.PNG,f,6078b4ad9006e4f6572dde97,2021-10-19_12h44.00.574,forced_choiceRT,2021.1.2,Win32,60.18295619,,,,,,,,5,Ontime,f,1,1.9604,7,2,30,0,1,,,,,
,1.14,,,,,,,,,g.PNG,g,6078b4ad9006e4f6572dde97,2021-10-19_12h44.00.574,forced_choiceRT,2021.1.2,Win32,60.18295619,,,,,,,,5,Ontime,g,1,2.0145,7,3,31,1,1,,,,,
,1.89,,,,,,,,,j.PNG,j,6078b4ad9006e4f6572dde97,2021-10-19_12h44.00.574,forced_choiceRT,2021.1.2,Win32,60.18295619,,,,,,,,5,Ontime,g,0,2.0659,8,0,32,3,1,,,,,
,1,,,,,,,,,g.PNG,g,6078b4ad9006e4f6572dde97,2021-10-19_12h44.00.574,forced_choiceRT,2021.1.2,Win32,60.18295619,,,,,,,,5,Ontime,g,1,1.985,8,1,33,1,1,,,,,
,0,,,,,,,,,g.PNG,g,6078b4ad9006e4f6572dde97,2021-10-19_12h44.00.574,forced_choiceRT,2021.1.2,Win32,60.18295619,,,,,,,,5,Ontime,g,1,1.9851,8,2,34,1,1,,,,,
,1.85,,,,,,,,,h.PNG,h,6078b4ad9006e4f6572dde97,2021-10-19_12h44.00.574,forced_choiceRT,2021.1.2,Win32,60.18295619,,,,,,,,5,Ontime,j,0,2.0663,8,3,35,2,1,,,,,
,1.38,,,,,,,,,g.PNG,g,6078b4ad9006e4f6572dde97,2021-10-19_12h44.00.574,forced_choiceRT,2021.1.2,Win32,60.18295619,,,,,,,,5,Slow,f,0,2.1501,9,0,36,1,1,,,,,
,0.51,,,,,,,,,j.PNG,j,6078b4ad9006e4f6572dde97,2021-10-19_12h44.00.574,forced_choiceRT,2021.1.2,Win32,60.18295619,,,,,,,,5,Ontime,j,1,1.9351,9,1,37,3,1,,,,,
,1.57,,,,,,,,,f.PNG,f,6078b4ad9006e4f6572dde97,2021-10-19_12h44.00.574,forced_choiceRT,2021.1.2,Win32,60.18295619,,,,,,,,5,Slow,g,0,2.1003,9,2,38,0,1,,,,,
,0.26,,,,,,,,,g.PNG,g,6078b4ad9006e4f6572dde97,2021-10-19_12h44.00.574,forced_choiceRT,2021.1.2,Win32,60.18295619,,,,,,,,5,Ontime,g,1,2.0082,9,3,39,1,1,,,,,
,,,,,,,,,,,,6078b4ad9006e4f6572dde97,2021-10-19_12h44.00.574,forced_choiceRT,2021.1.2,Win32,60.18295619,,,,,,,,,,,,,,,,,,4,0,4,0,1
,0.28,,,,,,,,,j.PNG,j,6078b4ad9006e4f6572dde97,2021-10-19_12h44.00.574,forced_choiceRT,2021.1.2,Win32,60.18295619,,,,,,,,6,Ontime,j,1,2.0315,0,0,0,3,1,,,,,
,0.71,,,,,,,,,g.PNG,g,6078b4ad9006e4f6572dde97,2021-10-19_12h44.00.574,forced_choiceRT,2021.1.2,Win32,60.18295619,,,,,,,,6,Ontime,g,1,1.9202,0,1,1,1,1,,,,,
,0.9,,,,,,,,,f.PNG,f,6078b4ad9006e4f6572dde97,2021-10-19_12h44.00.574,forced_choiceRT,2021.1.2,Win32,60.18295619,,,,,,,,6,Ontime,f,1,1.9839,0,2,2,0,1,,,,,
,1.92,,,,,,,,,f.PNG,f,6078b4ad9006e4f6572dde97,2021-10-19_12h44.00.574,forced_choiceRT,2021.1.2,Win32,60.18295619,,,,,,,,6,Slow,g,0,2.1871,0,3,3,0,1,,,,,
,0.88,,,,,,,,,h.PNG,h,6078b4ad9006e4f6572dde97,2021-10-19_12h44.00.574,forced_choiceRT,2021.1.2,Win32,60.18295619,,,,,,,,6,Fast,h,1,1.7425,1,0,4,2,1,,,,,
,0.93,,,,,,,,,f.PNG,f,6078b4ad9006e4f6572dde97,2021-10-19_12h44.00.574,forced_choiceRT,2021.1.2,Win32,60.18295619,,,,,,,,6,Ontime,f,1,1.9839,1,1,5,0,1,,,,,
,1.4,,,,,,,,,f.PNG,f,6078b4ad9006e4f6572dde97,2021-10-19_12h44.00.574,forced_choiceRT,2021.1.2,Win32,60.18295619,,,,,,,,6,Ontime,f,1,1.9488,1,2,6,0,1,,,,,
,1.97,,,,,,,,,j.PNG,j,6078b4ad9006e4f6572dde97,2021-10-19_12h44.00.574,forced_choiceRT,2021.1.2,Win32,60.18295619,,,,,,,,6,Ontime,f,0,2.0333,1,3,7,3,1,,,,,
,1.72,,,,,,,,,g.PNG,g,6078b4ad9006e4f6572dde97,2021-10-19_12h44.00.574,forced_choiceRT,2021.1.2,Win32,60.18295619,,,,,,,,6,Ontime,j,0,2.0709,2,0,8,1,1,,,,,
,0.27,,,,,,,,,j.PNG,j,6078b4ad9006e4f6572dde97,2021-10-19_12h44.00.574,forced_choiceRT,2021.1.2,Win32,60.18295619,,,,,,,,6,Ontime,j,1,1.9674,2,1,9,3,1,,,,,
,0.95,,,,,,,,,g.PNG,g,6078b4ad9006e4f6572dde97,2021-10-19_12h44.00.574,forced_choiceRT,2021.1.2,Win32,60.18295619,,,,,,,,6,Ontime,g,1,1.9828,2,2,10,1,1,,,,,
,0.9,,,,,,,,,f.PNG,f,6078b4ad9006e4f6572dde97,2021-10-19_12h44.00.574,forced_choiceRT,2021.1.2,Win32,60.18295619,,,,,,,,6,Fast,f,1,1.8335,2,3,11,0,1,,,,,
,0.61,,,,,,,,,h.PNG,h,6078b4ad9006e4f6572dde97,2021-10-19_12h44.00.574,forced_choiceRT,2021.1.2,Win32,60.18295619,,,,,,,,6,Ontime,h,1,2.0622,3,0,12,2,1,,,,,
,1.75,,,,,,,,,g.PNG,g,6078b4ad9006e4f6572dde97,2021-10-19_12h44.00.574,forced_choiceRT,2021.1.2,Win32,60.18295619,,,,,,,,6,Fast,j,0,1.8996,3,1,13,1,1,,,,,
,0.03,,,,,,,,,h.PNG,h,6078b4ad9006e4f6572dde97,2021-10-19_12h44.00.574,forced_choiceRT,2021.1.2,Win32,60.18295619,,,,,,,,6,Ontime,h,1,1.984,3,2,14,2,1,,,,,
,0.83,,,,,,,,,h.PNG,h,6078b4ad9006e4f6572dde97,2021-10-19_12h44.00.574,forced_choiceRT,2021.1.2,Win32,60.18295619,,,,,,,,6,Ontime,h,1,1.9273,3,3,15,2,1,,,,,
,0.65,,,,,,,,,f.PNG,f,6078b4ad9006e4f6572dde97,2021-10-19_12h44.00.574,forced_choiceRT,2021.1.2,Win32,60.18295619,,,,,,,,6,Ontime,f,1,1.9507,4,0,16,0,1,,,,,
,0.17,,,,,,,,,j.PNG,j,6078b4ad9006e4f6572dde97,2021-10-19_12h44.00.574,forced_choiceRT,2021.1.2,Win32,60.18295619,,,,,,,,6,Ontime,j,1,2.0067,4,1,17,3,1,,,,,
,0.77,,,,,,,,,g.PNG,g,6078b4ad9006e4f6572dde97,2021-10-19_12h44.00.574,forced_choiceRT,2021.1.2,Win32,60.18295619,,,,,,,,6,Ontime,g,1,2.0331,4,2,18,1,1,,,,,
,1.35,,,,,,,,,h.PNG,h,6078b4ad9006e4f6572dde97,2021-10-19_12h44.00.574,forced_choiceRT,2021.1.2,Win32,60.18295619,,,,,,,,6,Ontime,h,1,1.967,4,3,19,2,1,,,,,
,1.63,,,,,,,,,j.PNG,j,6078b4ad9006e4f6572dde97,2021-10-19_12h44.00.574,forced_choiceRT,2021.1.2,Win32,60.18295619,,,,,,,,6,Slow,g,0,2.1059,5,0,20,3,1,,,,,
,0.74,,,,,,,,,g.PNG,g,6078b4ad9006e4f6572dde97,2021-10-19_12h44.00.574,forced_choiceRT,2021.1.2,Win32,60.18295619,,,,,,,,6,Ontime,g,1,1.9272,5,1,21,1,1,,,,,
,0.53,,,,,,,,,f.PNG,f,6078b4ad9006e4f6572dde97,2021-10-19_12h44.00.574,forced_choiceRT,2021.1.2,Win32,60.18295619,,,,,,,,6,Ontime,f,1,1.9724,5,2,22,0,1,,,,,
,1.55,,,,,,,,,h.PNG,h,6078b4ad9006e4f6572dde97,2021-10-19_12h44.00.574,forced_choiceRT,2021.1.2,Win32,60.18295619,,,,,,,,6,Slow,h,1,2.1169,5,3,23,2,1,,,,,
,1.91,,,,,,,,,j.PNG,j,6078b4ad9006e4f6572dde97,2021-10-19_12h44.00.574,forced_choiceRT,2021.1.2,Win32,60.18295619,,,,,,,,6,Ontime,h,0,1.9991,6,0,24,3,1,,,,,
,1.69,,,,,,,,,j.PNG,j,6078b4ad9006e4f6572dde97,2021-10-19_12h44.00.574,forced_choiceRT,2021.1.2,Win32,60.18295619,,,,,,,,6,Ontime,j,1,1.9055,6,1,25,3,1,,,,,
,0.66,,,,,,,,,g.PNG,g,6078b4ad9006e4f6572dde97,2021-10-19_12h44.00.574,forced_choiceRT,2021.1.2,Win32,60.18295619,,,,,,,,6,Ontime,g,1,1.9582,6,2,26,1,1,,,,,
,1.39,,,,,,,,,j.PNG,j,6078b4ad9006e4f6572dde97,2021-10-19_12h44.00.574,forced_choiceRT,2021.1.2,Win32,60.18295619,,,,,,,,6,Ontime,j,1,1.978,6,3,27,3,1,,,,,
,0.31,,,,,,,,,f.PNG,f,6078b4ad9006e4f6572dde97,2021-10-19_12h44.00.574,forced_choiceRT,2021.1.2,Win32,60.18295619,,,,,,,,6,Fast,f,1,1.8661,7,0,28,0,1,,,,,
,1.04,,,,,,,,,h.PNG,h,6078b4ad9006e4f6572dde97,2021-10-19_12h44.00.574,forced_choiceRT,2021.1.2,Win32,60.18295619,,,,,,,,6,Ontime,h,1,2.033,7,1,29,2,1,,,,,
,1.35,,,,,,,,,j.PNG,j,6078b4ad9006e4f6572dde97,2021-10-19_12h44.00.574,forced_choiceRT,2021.1.2,Win32,60.18295619,,,,,,,,6,Ontime,j,1,1.949,7,2,30,3,1,,,,,
,0.6,,,,,,,,,h.PNG,h,6078b4ad9006e4f6572dde97,2021-10-19_12h44.00.574,forced_choiceRT,2021.1.2,Win32,60.18295619,,,,,,,,6,Ontime,h,1,1.9699,7,3,31,2,1,,,,,
,0.09,,,,,,,,,g.PNG,g,6078b4ad9006e4f6572dde97,2021-10-19_12h44.00.574,forced_choiceRT,2021.1.2,Win32,60.18295619,,,,,,,,6,Ontime,g,1,1.9205,8,0,32,1,1,,,,,
,1.96,,,,,,,,,f.PNG,f,6078b4ad9006e4f6572dde97,2021-10-19_12h44.00.574,forced_choiceRT,2021.1.2,Win32,60.18295619,,,,,,,,6,Ontime,g,0,2.0829,8,1,33,0,1,,,,,
,0.96,,,,,,,,,g.PNG,g,6078b4ad9006e4f6572dde97,2021-10-19_12h44.00.574,forced_choiceRT,2021.1.2,Win32,60.18295619,,,,,,,,6,Ontime,h,0,1.9229,8,2,34,1,1,,,,,
,1.77,,,,,,,,,f.PNG,f,6078b4ad9006e4f6572dde97,2021-10-19_12h44.00.574,forced_choiceRT,2021.1.2,Win32,60.18295619,,,,,,,,6,Slow,g,0,2.1909,8,3,35,0,1,,,,,
,1.61,,,,,,,,,h.PNG,h,6078b4ad9006e4f6572dde97,2021-10-19_12h44.00.574,forced_choiceRT,2021.1.2,Win32,60.18295619,,,,,,,,6,Ontime,g,0,1.9866,9,0,36,2,1,,,,,
,0.31,,,,,,,,,h.PNG,h,6078b4ad9006e4f6572dde97,2021-10-19_12h44.00.574,forced_choiceRT,2021.1.2,Win32,60.18295619,,,,,,,,6,Ontime,h,1,1.9377,9,1,37,2,1,,,,,
,0.68,,,,,,,,,g.PNG,g,6078b4ad9006e4f6572dde97,2021-10-19_12h44.00.574,forced_choiceRT,2021.1.2,Win32,60.18295619,,,,,,,,6,Ontime,g,1,2.0496,9,2,38,1,1,,,,,
,1.41,,,,,,,,,j.PNG,j,6078b4ad9006e4f6572dde97,2021-10-19_12h44.00.574,forced_choiceRT,2021.1.2,Win32,60.18295619,,,,,,,,6,Ontime,h,0,1.971,9,3,39,3,1,,,,,
,,,,,,,,,,,,6078b4ad9006e4f6572dde97,2021-10-19_12h44.00.574,forced_choiceRT,2021.1.2,Win32,60.18295619,,,,,,,,,,,,,,,,,,5,0,5,0,1
,0.4,,,,,,,,,f.PNG,f,6078b4ad9006e4f6572dde97,2021-10-19_12h44.00.574,forced_choiceRT,2021.1.2,Win32,60.18295619,,,,,,,,7,Ontime,f,1,1.9378,0,0,0,0,1,,,,,
,0.57,,,,,,,,,f.PNG,f,6078b4ad9006e4f6572dde97,2021-10-19_12h44.00.574,forced_choiceRT,2021.1.2,Win32,60.18295619,,,,,,,,7,Ontime,f,1,2.0168,0,1,1,0,1,,,,,
,1.78,,,,,,,,,f.PNG,f,6078b4ad9006e4f6572dde97,2021-10-19_12h44.00.574,forced_choiceRT,2021.1.2,Win32,60.18295619,,,,,,,,7,Ontime,j,0,1.9412,0,2,2,0,1,,,,,
,0.58,,,,,,,,,h.PNG,h,6078b4ad9006e4f6572dde97,2021-10-19_12h44.00.574,forced_choiceRT,2021.1.2,Win32,60.18295619,,,,,,,,7,Ontime,h,1,2.0236,0,3,3,2,1,,,,,
,1.11,,,,,,,,,g.PNG,g,6078b4ad9006e4f6572dde97,2021-10-19_12h44.00.574,forced_choiceRT,2021.1.2,Win32,60.18295619,,,,,,,,7,Ontime,g,1,2,1,0,4,1,1,,,,,
,0.92,,,,,,,,,h.PNG,h,6078b4ad9006e4f6572dde97,2021-10-19_12h44.00.574,forced_choiceRT,2021.1.2,Win32,60.18295619,,,,,,,,7,Ontime,h,1,1.9892,1,1,5,2,1,,,,,
,1.2,,,,,,,,,g.PNG,g,6078b4ad9006e4f6572dde97,2021-10-19_12h44.00.574,forced_choiceRT,2021.1.2,Win32,60.18295619,,,,,,,,7,Fast,g,1,1.8836,1,2,6,1,1,,,,,
,1.37,,,,,,,,,f.PNG,f,6078b4ad9006e4f6572dde97,2021-10-19_12h44.00.574,forced_choiceRT,2021.1.2,Win32,60.18295619,,,,,,,,7,Ontime,f,1,2.0324,1,3,7,0,1,,,,,
,1.97,,,,,,,,,g.PNG,g,6078b4ad9006e4f6572dde97,2021-10-19_12h44.00.574,forced_choiceRT,2021.1.2,Win32,60.18295619,,,,,,,,7,Ontime,f,0,2.0836,2,0,8,1,1,,,,,
,1.96,,,,,,,,,h.PNG,h,6078b4ad9006e4f6572dde97,2021-10-19_12h44.00.574,forced_choiceRT,2021.1.2,Win32,60.18295619,,,,,,,,7,Ontime,j,0,1.9856,2,1,9,2,1,,,,,
,0.78,,,,,,,,,f.PNG,f,6078b4ad9006e4f6572dde97,2021-10-19_12h44.00.574,forced_choiceRT,2021.1.2,Win32,60.18295619,,,,,,,,7,Ontime,f,1,2.0045,2,2,10,0,1,,,,,
,1.98,,,,,,,,,g.PNG,g,6078b4ad9006e4f6572dde97,2021-10-19_12h44.00.574,forced_choiceRT,2021.1.2,Win32,60.18295619,,,,,,,,7,Ontime,g,1,1.9843,2,3,11,1,1,,,,,
,1.71,,,,,,,,,g.PNG,g,6078b4ad9006e4f6572dde97,2021-10-19_12h44.00.574,forced_choiceRT,2021.1.2,Win32,60.18295619,,,,,,,,7,Fast,h,0,1.7327,3,0,12,1,1,,,,,
,1.9,,,,,,,,,h.PNG,h,6078b4ad9006e4f6572dde97,2021-10-19_12h44.00.574,forced_choiceRT,2021.1.2,Win32,60.18295619,,,,,,,,7,Fast,f,0,1.8747,3,1,13,2,1,,,,,
,0.15,,,,,,,,,j.PNG,j,6078b4ad9006e4f6572dde97,2021-10-19_12h44.00.574,forced_choiceRT,2021.1.2,Win32,60.18295619,,,,,,,,7,Ontime,j,1,1.9221,3,2,14,3,1,,,,,
,1.62,,,,,,,,,j.PNG,j,6078b4ad9006e4f6572dde97,2021-10-19_12h44.00.574,forced_choiceRT,2021.1.2,Win32,60.18295619,,,,,,,,7,Ontime,h,0,1.9499,3,3,15,3,1,,,,,
,0.67,,,,,,,,,g.PNG,g,6078b4ad9006e4f6572dde97,2021-10-19_12h44.00.574,forced_choiceRT,2021.1.2,Win32,60.18295619,,,,,,,,7,Ontime,g,1,1.9007,4,0,16,1,1,,,,,
,1.18,,,,,,,,,g.PNG,g,6078b4ad9006e4f6572dde97,2021-10-19_12h44.00.574,forced_choiceRT,2021.1.2,Win32,60.18295619,,,,,,,,7,Fast,g,1,1.8827,4,1,17,1,1,,,,,
,0.8,,,,,,,,,h.PNG,h,6078b4ad9006e4f6572dde97,2021-10-19_12h44.00.574,forced_choiceRT,2021.1.2,Win32,60.18295619,,,,,,,,7,Ontime,h,1,2.0583,4,2,18,2,1,,,,,
,0.98,,,,,,,,,h.PNG,h,6078b4ad9006e4f6572dde97,2021-10-19_12h44.00.574,forced_choiceRT,2021.1.2,Win32,60.18295619,,,,,,,,7,Ontime,h,1,1.959,4,3,19,2,1,,,,,
,1.19,,,,,,,,,j.PNG,j,6078b4ad9006e4f6572dde97,2021-10-19_12h44.00.574,forced_choiceRT,2021.1.2,Win32,60.18295619,,,,,,,,7,Ontime,j,1,1.9712,5,0,20,3,1,,,,,
,0.57,,,,,,,,,h.PNG,h,6078b4ad9006e4f6572dde97,2021-10-19_12h44.00.574,forced_choiceRT,2021.1.2,Win32,60.18295619,,,,,,,,7,Ontime,h,1,1.9337,5,1,21,2,1,,,,,
,0.36,,,,,,,,,g.PNG,g,6078b4ad9006e4f6572dde97,2021-10-19_12h44.00.574,forced_choiceRT,2021.1.2,Win32,60.18295619,,,,,,,,7,Ontime,g,1,1.9406,5,2,22,1,1,,,,,
,1.76,,,,,,,,,f.PNG,f,6078b4ad9006e4f6572dde97,2021-10-19_12h44.00.574,forced_choiceRT,2021.1.2,Win32,60.18295619,,,,,,,,7,Ontime,g,0,2.0219,5,3,23,0,1,,,,,
,0.82,,,,,,,,,j.PNG,j,6078b4ad9006e4f6572dde97,2021-10-19_12h44.00.574,forced_choiceRT,2021.1.2,Win32,60.18295619,,,,,,,,7,Ontime,j,1,1.9999,6,0,24,3,1,,,,,
,1.99,,,,,,,,,h.PNG,h,6078b4ad9006e4f6572dde97,2021-10-19_12h44.00.574,forced_choiceRT,2021.1.2,Win32,60.18295619,,,,,,,,7,Fast,f,0,1.7709,6,1,25,2,1,,,,,
,1.03,,,,,,,,,j.PNG,j,6078b4ad9006e4f6572dde97,2021-10-19_12h44.00.574,forced_choiceRT,2021.1.2,Win32,60.18295619,,,,,,,,7,Ontime,j,1,2.0328,6,2,26,3,1,,,,,
,1.94,,,,,,,,,g.PNG,g,6078b4ad9006e4f6572dde97,2021-10-19_12h44.00.574,forced_choiceRT,2021.1.2,Win32,60.18295619,,,,,,,,7,Ontime,j,0,1.9705,6,3,27,1,1,,,,,
,0.88,,,,,,,,,j.PNG,j,6078b4ad9006e4f6572dde97,2021-10-19_12h44.00.574,forced_choiceRT,2021.1.2,Win32,60.18295619,,,,,,,,7,Ontime,j,1,1.9331,7,0,28,3,1,,,,,
,1.96,,,,,,,,,f.PNG,f,6078b4ad9006e4f6572dde97,2021-10-19_12h44.00.574,forced_choiceRT,2021.1.2,Win32,60.18295619,,,,,,,,7,Ontime,g,0,2.0625,7,1,29,0,1,,,,,
,1.77,,,,,,,,,h.PNG,h,6078b4ad9006e4f6572dde97,2021-10-19_12h44.00.574,forced_choiceRT,2021.1.2,Win32,60.18295619,,,,,,,,7,Slow,h,1,2.1024,7,2,30,2,1,,,,,
,1.81,,,,,,,,,f.PNG,f,6078b4ad9006e4f6572dde97,2021-10-19_12h44.00.574,forced_choiceRT,2021.1.2,Win32,60.18295619,,,,,,,,7,Ontime,f,1,1.9912,7,3,31,0,1,,,,,
,1.36,,,,,,,,,f.PNG,f,6078b4ad9006e4f6572dde97,2021-10-19_12h44.00.574,forced_choiceRT,2021.1.2,Win32,60.18295619,,,,,,,,7,Ontime,f,1,1.9346,8,0,32,0,1,,,,,
,1.53,,,,,,,,,j.PNG,j,6078b4ad9006e4f6572dde97,2021-10-19_12h44.00.574,forced_choiceRT,2021.1.2,Win32,60.18295619,,,,,,,,7,Ontime,f,0,2.0447,8,1,33,3,1,,,,,
,0.03,,,,,,,,,j.PNG,j,6078b4ad9006e4f6572dde97,2021-10-19_12h44.00.574,forced_choiceRT,2021.1.2,Win32,60.18295619,,,,,,,,7,Fast,j,1,1.7559,8,2,34,3,1,,,,,
,1.19,,,,,,,,,j.PNG,j,6078b4ad9006e4f6572dde97,2021-10-19_12h44.00.574,forced_choiceRT,2021.1.2,Win32,60.18295619,,,,,,,,7,Ontime,j,1,2.0203,8,3,35,3,1,,,,,
,1.37,,,,,,,,,h.PNG,h,6078b4ad9006e4f6572dde97,2021-10-19_12h44.00.574,forced_choiceRT,2021.1.2,Win32,60.18295619,,,,,,,,7,Ontime,h,1,1.972,9,0,36,2,1,,,,,
,0.26,,,,,,,,,j.PNG,j,6078b4ad9006e4f6572dde97,2021-10-19_12h44.00.574,forced_choiceRT,2021.1.2,Win32,60.18295619,,,,,,,,7,Ontime,j,1,1.9164,9,1,37,3,1,,,,,
,1.21,,,,,,,,,g.PNG,g,6078b4ad9006e4f6572dde97,2021-10-19_12h44.00.574,forced_choiceRT,2021.1.2,Win32,60.18295619,,,,,,,,7,Fast,g,1,1.8991,9,2,38,1,1,,,,,
,1.07,,,,,,,,,f.PNG,f,6078b4ad9006e4f6572dde97,2021-10-19_12h44.00.574,forced_choiceRT,2021.1.2,Win32,60.18295619,,,,,,,,7,Ontime,f,1,2.0053,9,3,39,0,1,,,,,
,,,,,,,,,,,,6078b4ad9006e4f6572dde97,2021-10-19_12h44.00.574,forced_choiceRT,2021.1.2,Win32,60.18295619,,,,,,,,,,,,,,,,,,6,0,6,0,1
,0.59,,,,,,,,,j.PNG,j,6078b4ad9006e4f6572dde97,2021-10-19_12h44.00.574,forced_choiceRT,2021.1.2,Win32,60.18295619,,,,,,,,8,Slow,j,1,3.3227,0,0,0,3,1,,,,,
,1.99,,,,,,,,,j.PNG,j,6078b4ad9006e4f6572dde97,2021-10-19_12h44.00.574,forced_choiceRT,2021.1.2,Win32,60.18295619,,,,,,,,8,Ontime,j,1,2.0957,0,1,1,3,1,,,,,
,1.89,,,,,,,,,g.PNG,g,6078b4ad9006e4f6572dde97,2021-10-19_12h44.00.574,forced_choiceRT,2021.1.2,Win32,60.18295619,,,,,,,,8,Ontime,f,0,2.0532,0,2,2,1,1,,,,,
,0.23,,,,,,,,,g.PNG,g,6078b4ad9006e4f6572dde97,2021-10-19_12h44.00.574,forced_choiceRT,2021.1.2,Win32,60.18295619,,,,,,,,8,Ontime,g,1,1.9695,0,3,3,1,1,,,,,
,0.82,,,,,,,,,h.PNG,h,6078b4ad9006e4f6572dde97,2021-10-19_12h44.00.574,forced_choiceRT,2021.1.2,Win32,60.18295619,,,,,,,,8,Ontime,h,1,1.9344,1,0,4,2,1,,,,,
,0.12,,,,,,,,,f.PNG,f,6078b4ad9006e4f6572dde97,2021-10-19_12h44.00.574,forced_choiceRT,2021.1.2,Win32,60.18295619,,,,,,,,8,Ontime,f,1,2.0158,1,1,5,0,1,,,,,
,1.94,,,,,,,,,h.PNG,h,6078b4ad9006e4f6572dde97,2021-10-19_12h44.00.574,forced_choiceRT,2021.1.2,Win32,60.18295619,,,,,,,,8,Slow,f,0,2.2994,1,2,6,2,1,,,,,
,1.26,,,,,,,,,g.PNG,g,6078b4ad9006e4f6572dde97,2021-10-19_12h44.00.574,forced_choiceRT,2021.1.2,Win32,60.18295619,,,,,,,,8,Ontime,g,1,1.9406,1,3,7,1,1,,,,,
,0.42,,,,,,,,,j.PNG,j,6078b4ad9006e4f6572dde97,2021-10-19_12h44.00.574,forced_choiceRT,2021.1.2,Win32,60.18295619,,,,,,,,8,Slow,j,1,2.1158,2,0,8,3,1,,,,,
,0.12,,,,,,,,,h.PNG,h,6078b4ad9006e4f6572dde97,2021-10-19_12h44.00.574,forced_choiceRT,2021.1.2,Win32,60.18295619,,,,,,,,8,Ontime,h,1,2.0668,2,1,9,2,1,,,,,
,1.5,,,,,,,,,f.PNG,f,6078b4ad9006e4f6572dde97,2021-10-19_12h44.00.574,forced_choiceRT,2021.1.2,Win32,60.18295619,,,,,,,,8,Ontime,f,1,2.0062,2,2,10,0,1,,,,,
,0.12,,,,,,,,,f.PNG,f,6078b4ad9006e4f6572dde97,2021-10-19_12h44.00.574,forced_choiceRT,2021.1.2,Win32,60.18295619,,,,,,,,8,Ontime,f,1,1.9704,2,3,11,0,1,,,,,
,0.34,,,,,,,,,g.PNG,g,6078b4ad9006e4f6572dde97,2021-10-19_12h44.00.574,forced_choiceRT,2021.1.2,Win32,60.18295619,,,,,,,,8,Ontime,g,1,2.1,3,0,12,1,1,,,,,
,1.79,,,,,,,,,g.PNG,g,6078b4ad9006e4f6572dde97,2021-10-19_12h44.00.574,forced_choiceRT,2021.1.2,Win32,60.18295619,,,,,,,,8,Ontime,g,1,2.0554,3,1,13,1,1,,,,,
,1.45,,,,,,,,,h.PNG,h,6078b4ad9006e4f6572dde97,2021-10-19_12h44.00.574,forced_choiceRT,2021.1.2,Win32,60.18295619,,,,,,,,8,Ontime,g,0,2.0849,3,2,14,2,1,,,,,
,1.87,,,,,,,,,g.PNG,g,6078b4ad9006e4f6572dde97,2021-10-19_12h44.00.574,forced_choiceRT,2021.1.2,Win32,60.18295619,,,,,,,,8,Ontime,h,0,2.0323,3,3,15,1,1,,,,,
,0.2,,,,,,,,,j.PNG,j,6078b4ad9006e4f6572dde97,2021-10-19_12h44.00.574,forced_choiceRT,2021.1.2,Win32,60.18295619,,,,,,,,8,Fast,j,1,1.8378,4,0,16,3,1,,,,,
,0.63,,,,,,,,,j.PNG,j,6078b4ad9006e4f6572dde97,2021-10-19_12h44.00.574,forced_choiceRT,2021.1.2,Win32,60.18295619,,,,,,,,8,Ontime,j,1,1.9722,4,1,17,3,1,,,,,
,1.02,,,,,,,,,j.PNG,j,6078b4ad9006e4f6572dde97,2021-10-19_12h44.00.574,forced_choiceRT,2021.1.2,Win32,60.18295619,,,,,,,,8,Ontime,j,1,2.0105,4,2,18,3,1,,,,,
,1.39,,,,,,,,,h.PNG,h,6078b4ad9006e4f6572dde97,2021-10-19_12h44.00.574,forced_choiceRT,2021.1.2,Win32,60.18295619,,,,,,,,8,Ontime,h,1,2.05,4,3,19,2,1,,,,,
,1.11,,,,,,,,,f.PNG,f,6078b4ad9006e4f6572dde97,2021-10-19_12h44.00.574,forced_choiceRT,2021.1.2,Win32,60.18295619,,,,,,,,8,Fast,f,1,1.8811,5,0,20,0,1,,,,,
,1,,,,,,,,,f.PNG,f,6078b4ad9006e4f6572dde97,2021-10-19_12h44.00.574,forced_choiceRT,2021.1.2,Win32,60.18295619,,,,,,,,8,Ontime,f,1,1.9492,5,1,21,0,1,,,,,
,0.06,,,,,,,,,h.PNG,h,6078b4ad9006e4f6572dde97,2021-10-19_12h44.00.574,forced_choiceRT,2021.1.2,Win32,60.18295619,,,,,,,,8,Ontime,h,1,2.0697,5,2,22,2,1,,,,,
,1.95,,,,,,,,,f.PNG,f,6078b4ad9006e4f6572dde97,2021-10-19_12h44.00.574,forced_choiceRT,2021.1.2,Win32,60.18295619,,,,,,,,8,Ontime,h,0,2.0474,5,3,23,0,1,,,,,
,0.64,,,,,,,,,f.PNG,f,6078b4ad9006e4f6572dde97,2021-10-19_12h44.00.574,forced_choiceRT,2021.1.2,Win32,60.18295619,,,,,,,,8,Ontime,f,1,2.0916,6,0,24,0,1,,,,,
,1.33,,,,,,,,,g.PNG,g,6078b4ad9006e4f6572dde97,2021-10-19_12h44.00.574,forced_choiceRT,2021.1.2,Win32,60.18295619,,,,,,,,8,Fast,g,1,1.8992,6,1,25,1,1,,,,,
,0.77,,,,,,,,,g.PNG,g,6078b4ad9006e4f6572dde97,2021-10-19_12h44.00.574,forced_choiceRT,2021.1.2,Win32,60.18295619,,,,,,,,8,Ontime,g,1,2.0036,6,2,26,1,1,,,,,
,1.01,,,,,,,,,f.PNG,f,6078b4ad9006e4f6572dde97,2021-10-19_12h44.00.574,forced_choiceRT,2021.1.2,Win32,60.18295619,,,,,,,,8,Ontime,f,1,1.9748,6,3,27,0,1,,,,,
,0.1,,,,,,,,,h.PNG,h,6078b4ad9006e4f6572dde97,2021-10-19_12h44.00.574,forced_choiceRT,2021.1.2,Win32,60.18295619,,,,,,,,8,Fast,h,1,1.8848,7,0,28,2,1,,,,,
,0.69,,,,,,,,,h.PNG,h,6078b4ad9006e4f6572dde97,2021-10-19_12h44.00.574,forced_choiceRT,2021.1.2,Win32,60.18295619,,,,,,,,8,Fast,h,1,1.8997,7,1,29,2,1,,,,,
,1.85,,,,,,,,,j.PNG,j,6078b4ad9006e4f6572dde97,2021-10-19_12h44.00.574,forced_choiceRT,2021.1.2,Win32,60.18295619,,,,,,,,8,Ontime,g,0,2.0335,7,2,30,3,1,,,,,
,1.18,,,,,,,,,j.PNG,j,6078b4ad9006e4f6572dde97,2021-10-19_12h44.00.574,forced_choiceRT,2021.1.2,Win32,60.18295619,,,,,,,,8,Ontime,j,1,1.9556,7,3,31,3,1,,,,,
,1.21,,,,,,,,,f.PNG,f,6078b4ad9006e4f6572dde97,2021-10-19_12h44.00.574,forced_choiceRT,2021.1.2,Win32,60.18295619,,,,,,,,8,Ontime,f,1,1.9336,8,0,32,0,1,,,,,
,1.15,,,,,,,,,j.PNG,j,6078b4ad9006e4f6572dde97,2021-10-19_12h44.00.574,forced_choiceRT,2021.1.2,Win32,60.18295619,,,,,,,,8,Ontime,j,1,1.9885,8,1,33,3,1,,,,,
,0.39,,,,,,,,,g.PNG,g,6078b4ad9006e4f6572dde97,2021-10-19_12h44.00.574,forced_choiceRT,2021.1.2,Win32,60.18295619,,,,,,,,8,Ontime,g,1,1.9509,8,2,34,1,1,,,,,
,1.9,,,,,,,,,h.PNG,h,6078b4ad9006e4f6572dde97,2021-10-19_12h44.00.574,forced_choiceRT,2021.1.2,Win32,60.18295619,,,,,,,,8,Slow,f,0,2.1661,8,3,35,2,1,,,,,
,1.37,,,,,,,,,j.PNG,j,6078b4ad9006e4f6572dde97,2021-10-19_12h44.00.574,forced_choiceRT,2021.1.2,Win32,60.18295619,,,,,,,,8,Ontime,j,1,2.0565,9,0,36,3,1,,,,,
,1.23,,,,,,,,,f.PNG,f,6078b4ad9006e4f6572dde97,2021-10-19_12h44.00.574,forced_choiceRT,2021.1.2,Win32,60.18295619,,,,,,,,8,Ontime,f,1,1.9373,9,1,37,0,1,,,,,
,0.34,,,,,,,,,h.PNG,h,6078b4ad9006e4f6572dde97,2021-10-19_12h44.00.574,forced_choiceRT,2021.1.2,Win32,60.18295619,,,,,,,,8,Ontime,h,1,1.9228,9,2,38,2,1,,,,,
,1.83,,,,,,,,,g.PNG,g,6078b4ad9006e4f6572dde97,2021-10-19_12h44.00.574,forced_choiceRT,2021.1.2,Win32,60.18295619,,,,,,,,8,Slow,j,0,2.1684,9,3,39,1,1,,,,,
,,,,,,,,,,,,6078b4ad9006e4f6572dde97,2021-10-19_12h44.00.574,forced_choiceRT,2021.1.2,Win32,60.18295619,,,,,,,,,,,,,,,,,,7,0,7,0,1
,0.64,,,,,,,,,f.PNG,f,6078b4ad9006e4f6572dde97,2021-10-19_12h44.00.574,forced_choiceRT,2021.1.2,Win32,60.18295619,,,,,,,,9,Ontime,f,1,2.0626,0,0,0,0,1,,,,,
,0.95,,,,,,,,,j.PNG,j,6078b4ad9006e4f6572dde97,2021-10-19_12h44.00.574,forced_choiceRT,2021.1.2,Win32,60.18295619,,,,,,,,9,Fast,j,1,1.8541,0,1,1,3,1,,,,,
,0.05,,,,,,,,,j.PNG,j,6078b4ad9006e4f6572dde97,2021-10-19_12h44.00.574,forced_choiceRT,2021.1.2,Win32,60.18295619,,,,,,,,9,Ontime,j,1,2.0002,0,2,2,3,1,,,,,
,0.01,,,,,,,,,j.PNG,j,6078b4ad9006e4f6572dde97,2021-10-19_12h44.00.574,forced_choiceRT,2021.1.2,Win32,60.18295619,,,,,,,,9,Ontime,j,1,2.0278,0,3,3,3,1,,,,,
,0.44,,,,,,,,,h.PNG,h,6078b4ad9006e4f6572dde97,2021-10-19_12h44.00.574,forced_choiceRT,2021.1.2,Win32,60.18295619,,,,,,,,9,Ontime,h,1,2.0167,1,0,4,2,1,,,,,
,1.22,,,,,,,,,g.PNG,g,6078b4ad9006e4f6572dde97,2021-10-19_12h44.00.574,forced_choiceRT,2021.1.2,Win32,60.18295619,,,,,,,,9,Ontime,g,1,2.0164,1,1,5,1,1,,,,,
,1.8,,,,,,,,,g.PNG,g,6078b4ad9006e4f6572dde97,2021-10-19_12h44.00.574,forced_choiceRT,2021.1.2,Win32,60.18295619,,,,,,,,9,Ontime,j,0,2.0304,1,2,6,1,1,,,,,
,1.19,,,,,,,,,h.PNG,h,6078b4ad9006e4f6572dde97,2021-10-19_12h44.00.574,forced_choiceRT,2021.1.2,Win32,60.18295619,,,,,,,,9,Ontime,h,1,2.0667,1,3,7,2,1,,,,,
,1.85,,,,,,,,,g.PNG,g,6078b4ad9006e4f6572dde97,2021-10-19_12h44.00.574,forced_choiceRT,2021.1.2,Win32,60.18295619,,,,,,,,9,Slow,h,0,2.2409,2,0,8,1,1,,,,,
,1.71,,,,,,,,,h.PNG,h,6078b4ad9006e4f6572dde97,2021-10-19_12h44.00.574,forced_choiceRT,2021.1.2,Win32,60.18295619,,,,,,,,9,Ontime,g,0,1.934,2,1,9,2,1,,,,,
,1.69,,,,,,,,,g.PNG,g,6078b4ad9006e4f6572dde97,2021-10-19_12h44.00.574,forced_choiceRT,2021.1.2,Win32,60.18295619,,,,,,,,9,Slow,j,0,2.2154,2,2,10,1,1,,,,,
,0.19,,,,,,,,,j.PNG,j,6078b4ad9006e4f6572dde97,2021-10-19_12h44.00.574,forced_choiceRT,2021.1.2,Win32,60.18295619,,,,,,,,9,Ontime,j,1,1.984,2,3,11,3,1,,,,,
,1.64,,,,,,,,,f.PNG,f,6078b4ad9006e4f6572dde97,2021-10-19_12h44.00.574,forced_choiceRT,2021.1.2,Win32,60.18295619,,,,,,,,9,Ontime,j,0,1.95,3,0,12,0,1,,,,,
,1.53,,,,,,,,,g.PNG,g,6078b4ad9006e4f6572dde97,2021-10-19_12h44.00.574,forced_choiceRT,2021.1.2,Win32,60.18295619,,,,,,,,9,Ontime,f,0,2.0034,3,1,13,1,1,,,,,
,0.93,,,,,,,,,j.PNG,j,6078b4ad9006e4f6572dde97,2021-10-19_12h44.00.574,forced_choiceRT,2021.1.2,Win32,60.18295619,,,,,,,,9,Ontime,j,1,1.9879,3,2,14,3,1,,,,,
,1.92,,,,,,,,,h.PNG,h,6078b4ad9006e4f6572dde97,2021-10-19_12h44.00.574,forced_choiceRT,2021.1.2,Win32,60.18295619,,,,,,,,9,Ontime,h,1,1.9997,3,3,15,2,1,,,,,
,0.15,,,,,,,,,f.PNG,f,6078b4ad9006e4f6572dde97,2021-10-19_12h44.00.574,forced_choiceRT,2021.1.2,Win32,60.18295619,,,,,,,,9,Ontime,f,1,1.9333,4,0,16,0,1,,,,,
,0.13,,,,,,,,,f.PNG,f,6078b4ad9006e4f6572dde97,2021-10-19_12h44.00.574,forced_choiceRT,2021.1.2,Win32,60.18295619,,,,,,,,9,Ontime,f,1,1.9039,4,1,17,0,1,,,,,
,1.62,,,,,,,,,f.PNG,f,6078b4ad9006e4f6572dde97,2021-10-19_12h44.00.574,forced_choiceRT,2021.1.2,Win32,60.18295619,,,,,,,,9,Ontime,g,0,1.9339,4,2,18,0,1,,,,,
,0.71,,,,,,,,,f.PNG,f,6078b4ad9006e4f6572dde97,2021-10-19_12h44.00.574,forced_choiceRT,2021.1.2,Win32,60.18295619,,,,,,,,9,Ontime,f,1,1.9949,4,3,19,0,1,,,,,
,1.28,,,,,,,,,h.PNG,h,6078b4ad9006e4f6572dde97,2021-10-19_12h44.00.574,forced_choiceRT,2021.1.2,Win32,60.18295619,,,,,,,,9,Ontime,h,1,2.0196,5,0,20,2,1,,,,,
,0.06,,,,,,,,,j.PNG,j,6078b4ad9006e4f6572dde97,2021-10-19_12h44.00.574,forced_choiceRT,2021.1.2,Win32,60.18295619,,,,,,,,9,Ontime,j,1,1.9739,5,1,21,3,1,,,,,
,0.94,,,,,,,,,j.PNG,j,6078b4ad9006e4f6572dde97,2021-10-19_12h44.00.574,forced_choiceRT,2021.1.2,Win32,60.18295619,,,,,,,,9,Ontime,j,1,1.9827,5,2,22,3,1,,,,,
,0.1,,,,,,,,,j.PNG,j,6078b4ad9006e4f6572dde97,2021-10-19_12h44.00.574,forced_choiceRT,2021.1.2,Win32,60.18295619,,,,,,,,9,Ontime,j,1,1.9033,5,3,23,3,1,,,,,
,1.08,,,,,,,,,f.PNG,f,6078b4ad9006e4f6572dde97,2021-10-19_12h44.00.574,forced_choiceRT,2021.1.2,Win32,60.18295619,,,,,,,,9,Slow,f,1,2.1104,6,0,24,0,1,,,,,
,0.62,,,,,,,,,f.PNG,f,6078b4ad9006e4f6572dde97,2021-10-19_12h44.00.574,forced_choiceRT,2021.1.2,Win32,60.18295619,,,,,,,,9,Ontime,f,1,1.9329,6,1,25,0,1,,,,,
,0.25,,,,,,,,,f.PNG,f,6078b4ad9006e4f6572dde97,2021-10-19_12h44.00.574,forced_choiceRT,2021.1.2,Win32,60.18295619,,,,,,,,9,Fast,f,1,1.7495,6,2,26,0,1,,,,,
,1.27,,,,,,,,,h.PNG,h,6078b4ad9006e4f6572dde97,2021-10-19_12h44.00.574,forced_choiceRT,2021.1.2,Win32,60.18295619,,,,,,,,9,Slow,h,1,2.1069,6,3,27,2,1,,,,,
,1.66,,,,,,,,,g.PNG,g,6078b4ad9006e4f6572dde97,2021-10-19_12h44.00.574,forced_choiceRT,2021.1.2,Win32,60.18295619,,,,,,,,9,Slow,h,0,2.1325,7,0,28,1,1,,,,,
,0.79,,,,,,,,,j.PNG,j,6078b4ad9006e4f6572dde97,2021-10-19_12h44.00.574,forced_choiceRT,2021.1.2,Win32,60.18295619,,,,,,,,9,Ontime,j,1,1.9383,7,1,29,3,1,,,,,
,1.45,,,,,,,,,j.PNG,j,6078b4ad9006e4f6572dde97,2021-10-19_12h44.00.574,forced_choiceRT,2021.1.2,Win32,60.18295619,,,,,,,,9,Ontime,j,1,1.9936,7,2,30,3,1,,,,,
,1.09,,,,,,,,,g.PNG,g,6078b4ad9006e4f6572dde97,2021-10-19_12h44.00.574,forced_choiceRT,2021.1.2,Win32,60.18295619,,,,,,,,9,Ontime,h,0,1.9659,7,3,31,1,1,,,,,
,0.3,,,,,,,,,h.PNG,h,6078b4ad9006e4f6572dde97,2021-10-19_12h44.00.574,forced_choiceRT,2021.1.2,Win32,60.18295619,,,,,,,,9,Fast,h,1,1.8826,8,0,32,2,1,,,,,
,0.59,,,,,,,,,h.PNG,h,6078b4ad9006e4f6572dde97,2021-10-19_12h44.00.574,forced_choiceRT,2021.1.2,Win32,60.18295619,,,,,,,,9,Ontime,h,1,1.923,8,1,33,2,1,,,,,
,0.1,,,,,,,,,h.PNG,h,6078b4ad9006e4f6572dde97,2021-10-19_12h44.00.574,forced_choiceRT,2021.1.2,Win32,60.18295619,,,,,,,,9,Fast,h,1,0.2175,8,2,34,2,1,,,,,
,1,,,,,,,,,f.PNG,f,6078b4ad9006e4f6572dde97,2021-10-19_12h44.00.574,forced_choiceRT,2021.1.2,Win32,60.18295619,,,,,,,,9,Ontime,f,1,1.9992,8,3,35,0,1,,,,,
,1.55,,,,,,,,,g.PNG,g,6078b4ad9006e4f6572dde97,2021-10-19_12h44.00.574,forced_choiceRT,2021.1.2,Win32,60.18295619,,,,,,,,9,Ontime,g,1,2.0992,9,0,36,1,1,,,,,
,0.3,,,,,,,,,g.PNG,g,6078b4ad9006e4f6572dde97,2021-10-19_12h44.00.574,forced_choiceRT,2021.1.2,Win32,60.18295619,,,,,,,,9,Ontime,g,1,1.9492,9,1,37,1,1,,,,,
,0.13,,,,,,,,,h.PNG,h,6078b4ad9006e4f6572dde97,2021-10-19_12h44.00.574,forced_choiceRT,2021.1.2,Win32,60.18295619,,,,,,,,9,Fast,h,1,1.7751,9,2,38,2,1,,,,,
,1.49,,,,,,,,,g.PNG,g,6078b4ad9006e4f6572dde97,2021-10-19_12h44.00.574,forced_choiceRT,2021.1.2,Win32,60.18295619,,,,,,,,9,Ontime,g,1,2.0557,9,3,39,1,1,,,,,
,,,,,,,,,,,,6078b4ad9006e4f6572dde97,2021-10-19_12h44.00.574,forced_choiceRT,2021.1.2,Win32,60.18295619,,,,,,,,,,,,,,,,,,8,0,8,0,1
,1.38,,,,,,,,,j.PNG,j,6078b4ad9006e4f6572dde97,2021-10-19_12h44.00.574,forced_choiceRT,2021.1.2,Win32,60.18295619,,,,,,,,10,Ontime,j,1,2.026,0,0,0,3,1,,,,,
,1.48,,,,,,,,,f.PNG,f,6078b4ad9006e4f6572dde97,2021-10-19_12h44.00.574,forced_choiceRT,2021.1.2,Win32,60.18295619,,,,,,,,10,Ontime,f,1,2.0498,0,1,1,0,1,,,,,
,0.47,,,,,,,,,h.PNG,h,6078b4ad9006e4f6572dde97,2021-10-19_12h44.00.574,forced_choiceRT,2021.1.2,Win32,60.18295619,,,,,,,,10,Ontime,h,1,2,0,2,2,2,1,,,,,
,1.72,,,,,,,,,h.PNG,h,6078b4ad9006e4f6572dde97,2021-10-19_12h44.00.574,forced_choiceRT,2021.1.2,Win32,60.18295619,,,,,,,,10,Ontime,g,0,1.9833,0,3,3,2,1,,,,,
,1.26,,,,,,,,,j.PNG,j,6078b4ad9006e4f6572dde97,2021-10-19_12h44.00.574,forced_choiceRT,2021.1.2,Win32,60.18295619,,,,,,,,10,Ontime,j,1,1.9238,1,0,4,3,1,,,,,
,1.3,,,,,,,,,g.PNG,g,6078b4ad9006e4f6572dde97,2021-10-19_12h44.00.574,forced_choiceRT,2021.1.2,Win32,60.18295619,,,,,,,,10,Ontime,h,0,2.0333,1,1,5,1,1,,,,,
,1.12,,,,,,,,,f.PNG,f,6078b4ad9006e4f6572dde97,2021-10-19_12h44.00.574,forced_choiceRT,2021.1.2,Win32,60.18295619,,,,,,,,10,Ontime,f,1,2.056,1,2,6,0,1,,,,,
,0.8,,,,,,,,,j.PNG,j,6078b4ad9006e4f6572dde97,2021-10-19_12h44.00.574,forced_choiceRT,2021.1.2,Win32,60.18295619,,,,,,,,10,Fast,j,1,1.8995,1,3,7,3,1,,,,,
,0.54,,,,,,,,,h.PNG,h,6078b4ad9006e4f6572dde97,2021-10-19_12h44.00.574,forced_choiceRT,2021.1.2,Win32,60.18295619,,,,,,,,10,Ontime,h,1,2.0221,2,0,8,2,1,,,,,
,0.25,,,,,,,,,h.PNG,h,6078b4ad9006e4f6572dde97,2021-10-19_12h44.00.574,forced_choiceRT,2021.1.2,Win32,60.18295619,,,,,,,,10,Ontime,h,1,1.9512,2,1,9,2,1,,,,,
,0.59,,,,,,,,,j.PNG,j,6078b4ad9006e4f6572dde97,2021-10-19_12h44.00.574,forced_choiceRT,2021.1.2,Win32,60.18295619,,,,,,,,10,Ontime,j,1,1.9499,2,2,10,3,1,,,,,
,0.15,,,,,,,,,h.PNG,h,6078b4ad9006e4f6572dde97,2021-10-19_12h44.00.574,forced_choiceRT,2021.1.2,Win32,60.18295619,,,,,,,,10,Ontime,h,1,1.9329,2,3,11,2,1,,,,,
,0.95,,,,,,,,,g.PNG,g,6078b4ad9006e4f6572dde97,2021-10-19_12h44.00.574,forced_choiceRT,2021.1.2,Win32,60.18295619,,,,,,,,10,Ontime,g,1,2.0154,3,0,12,1,1,,,,,
,1.6,,,,,,,,,j.PNG,j,6078b4ad9006e4f6572dde97,2021-10-19_12h44.00.574,forced_choiceRT,2021.1.2,Win32,60.18295619,,,,,,,,10,Ontime,g,0,1.9908,3,1,13,3,1,,,,,
,0.21,,,,,,,,,g.PNG,g,6078b4ad9006e4f6572dde97,2021-10-19_12h44.00.574,forced_choiceRT,2021.1.2,Win32,60.18295619,,,,,,,,10,Fast,g,1,1.6237,3,2,14,1,1,,,,,
,1.96,,,,,,,,,f.PNG,f,6078b4ad9006e4f6572dde97,2021-10-19_12h44.00.574,forced_choiceRT,2021.1.2,Win32,60.18295619,,,,,,,,10,Ontime,g,0,2.0584,3,3,15,0,1,,,,,
,0.6,,,,,,,,,j.PNG,j,6078b4ad9006e4f6572dde97,2021-10-19_12h44.00.574,forced_choiceRT,2021.1.2,Win32,60.18295619,,,,,,,,10,Ontime,j,1,2.0691,4,0,16,3,1,,,,,
,0.65,,,,,,,,,g.PNG,g,6078b4ad9006e4f6572dde97,2021-10-19_12h44.00.574,forced_choiceRT,2021.1.2,Win32,60.18295619,,,,,,,,10,Ontime,g,1,1.983,4,1,17,1,1,,,,,
,0.77,,,,,,,,,f.PNG,f,6078b4ad9006e4f6572dde97,2021-10-19_12h44.00.574,forced_choiceRT,2021.1.2,Win32,60.18295619,,,,,,,,10,Ontime,f,1,1.9771,4,2,18,0,1,,,,,
,0.92,,,,,,,,,h.PNG,h,6078b4ad9006e4f6572dde97,2021-10-19_12h44.00.574,forced_choiceRT,2021.1.2,Win32,60.18295619,,,,,,,,10,Fast,h,1,1.8999,4,3,19,2,1,,,,,
,0.66,,,,,,,,,f.PNG,f,6078b4ad9006e4f6572dde97,2021-10-19_12h44.00.574,forced_choiceRT,2021.1.2,Win32,60.18295619,,,,,,,,10,Ontime,f,1,2.0016,5,0,20,0,1,,,,,
,1.25,,,,,,,,,g.PNG,g,6078b4ad9006e4f6572dde97,2021-10-19_12h44.00.574,forced_choiceRT,2021.1.2,Win32,60.18295619,,,,,,,,10,Ontime,g,1,2.0662,5,1,21,1,1,,,,,
,1.45,,,,,,,,,f.PNG,f,6078b4ad9006e4f6572dde97,2021-10-19_12h44.00.574,forced_choiceRT,2021.1.2,Win32,60.18295619,,,,,,,,10,Ontime,f,1,1.9993,5,2,22,0,1,,,,,
,1.4,,,,,,,,,g.PNG,g,6078b4ad9006e4f6572dde97,2021-10-19_12h44.00.574,forced_choiceRT,2021.1.2,Win32,60.18295619,,,,,,,,10,Ontime,g,1,2.0161,5,3,23,1,1,,,,,
,1.02,,,,,,,,,g.PNG,g,6078b4ad9006e4f6572dde97,2021-10-19_12h44.00.574,forced_choiceRT,2021.1.2,Win32,60.18295619,,,,,,,,10,Ontime,g,1,1.9202,6,0,24,1,1,,,,,
,1.93,,,,,,,,,g.PNG,g,6078b4ad9006e4f6572dde97,2021-10-19_12h44.00.574,forced_choiceRT,2021.1.2,Win32,60.18295619,,,,,,,,10,Ontime,h,0,2.0332,6,1,25,1,1,,,,,
,1.91,,,,,,,,,j.PNG,j,6078b4ad9006e4f6572dde97,2021-10-19_12h44.00.574,forced_choiceRT,2021.1.2,Win32,60.18295619,,,,,,,,10,Slow,g,0,2.1651,6,2,26,3,1,,,,,
,0.8,,,,,,,,,j.PNG,j,6078b4ad9006e4f6572dde97,2021-10-19_12h44.00.574,forced_choiceRT,2021.1.2,Win32,60.18295619,,,,,,,,10,Ontime,j,1,1.9954,6,3,27,3,1,,,,,
,1.84,,,,,,,,,f.PNG,f,6078b4ad9006e4f6572dde97,2021-10-19_12h44.00.574,forced_choiceRT,2021.1.2,Win32,60.18295619,,,,,,,,10,Ontime,j,0,1.9733,7,0,28,0,1,,,,,
,0.37,,,,,,,,,j.PNG,j,6078b4ad9006e4f6572dde97,2021-10-19_12h44.00.574,forced_choiceRT,2021.1.2,Win32,60.18295619,,,,,,,,10,Ontime,j,1,1.9532,7,1,29,3,1,,,,,
,1.84,,,,,,,,,h.PNG,h,6078b4ad9006e4f6572dde97,2021-10-19_12h44.00.574,forced_choiceRT,2021.1.2,Win32,60.18295619,,,,,,,,10,Slow,f,0,2.116,7,2,30,2,1,,,,,
,1.19,,,,,,,,,f.PNG,f,6078b4ad9006e4f6572dde97,2021-10-19_12h44.00.574,forced_choiceRT,2021.1.2,Win32,60.18295619,,,,,,,,10,Ontime,f,1,1.9494,7,3,31,0,1,,,,,
,1.47,,,,,,,,,h.PNG,h,6078b4ad9006e4f6572dde97,2021-10-19_12h44.00.574,forced_choiceRT,2021.1.2,Win32,60.18295619,,,,,,,,10,Ontime,j,0,2.0716,8,0,32,2,1,,,,,
,1.49,,,,,,,,,g.PNG,g,6078b4ad9006e4f6572dde97,2021-10-19_12h44.00.574,forced_choiceRT,2021.1.2,Win32,60.18295619,,,,,,,,10,Ontime,h,0,2.0561,8,1,33,1,1,,,,,
,0.73,,,,,,,,,h.PNG,h,6078b4ad9006e4f6572dde97,2021-10-19_12h44.00.574,forced_choiceRT,2021.1.2,Win32,60.18295619,,,,,,,,10,Ontime,h,1,2.0222,8,2,34,2,1,,,,,
,0.69,,,,,,,,,f.PNG,f,6078b4ad9006e4f6572dde97,2021-10-19_12h44.00.574,forced_choiceRT,2021.1.2,Win32,60.18295619,,,,,,,,10,Ontime,f,1,2.0692,8,3,35,0,1,,,,,
,1.73,,,,,,,,,f.PNG,f,6078b4ad9006e4f6572dde97,2021-10-19_12h44.00.574,forced_choiceRT,2021.1.2,Win32,60.18295619,,,,,,,,10,Ontime,g,0,1.9708,9,0,36,0,1,,,,,
,1.38,,,,,,,,,h.PNG,h,6078b4ad9006e4f6572dde97,2021-10-19_12h44.00.574,forced_choiceRT,2021.1.2,Win32,60.18295619,,,,,,,,10,Ontime,h,1,1.9365,9,1,37,2,1,,,,,
,1.87,,,,,,,,,j.PNG,j,6078b4ad9006e4f6572dde97,2021-10-19_12h44.00.574,forced_choiceRT,2021.1.2,Win32,60.18295619,,,,,,,,10,Slow,h,0,2.1152,9,2,38,3,1,,,,,
,1.1,,,,,,,,,g.PNG,g,6078b4ad9006e4f6572dde97,2021-10-19_12h44.00.574,forced_choiceRT,2021.1.2,Win32,60.18295619,,,,,,,,10,Ontime,g,1,2.0335,9,3,39,1,1,,,,,
,,,,,,,,,,,,6078b4ad9006e4f6572dde97,2021-10-19_12h44.00.574,forced_choiceRT,2021.1.2,Win32,60.18295619,,,,,,,,,,,,,,,,,,9,0,9,0,1
