IP_Addresss,target_onset,trial_resp_sp.keys,trial_resp_sp.corr,trial_resp_sp.rt,trials_train_loop.thisRepN,trials_train_loop.thisTrialN,trials_train_loop.thisN,trials_train_loop.thisIndex,trials_train_loop.ran,pic,correct_key,participant,date,expName,psychopyVersion,OS,frameRate,trial_resp_timing.keys,trial_resp_timing.rt,trials_train_timing.thisRepN,trials_train_timing.thisTrialN,trials_train_timing.thisN,trials_train_timing.thisIndex,trials_train_timing.ran,block_id,ontime,forcedRT_resp.keys,forcedRT_resp.corr,forcedRT_resp.rt,trials.thisRepN,trials.thisTrialN,trials.thisN,trials.thisIndex,trials.ran,blocks.thisRepN,blocks.thisTrialN,blocks.thisN,blocks.thisIndex,blocks.ran
24.101.249.146,0,h,1,3.4092,0,0,0,2,1,h.PNG,h,6090539b97cb68d8aaf813a3,2021-10-19_21h18.08.845,forced_choiceRT,2021.1.2,Win32,60.07088364,,,,,,,,,,,,,,,,,,,,,,
,0,j,1,3.001,0,1,1,3,1,j.PNG,j,6090539b97cb68d8aaf813a3,2021-10-19_21h18.08.845,forced_choiceRT,2021.1.2,Win32,60.07088364,,,,,,,,,,,,,,,,,,,,,,
,0,f,1,1.3101,0,2,2,0,1,f.PNG,f,6090539b97cb68d8aaf813a3,2021-10-19_21h18.08.845,forced_choiceRT,2021.1.2,Win32,60.07088364,,,,,,,,,,,,,,,,,,,,,,
,0,h,1,1.1273,0,3,3,2,1,h.PNG,h,6090539b97cb68d8aaf813a3,2021-10-19_21h18.08.845,forced_choiceRT,2021.1.2,Win32,60.07088364,,,,,,,,,,,,,,,,,,,,,,
,0,g,1,1.1508,1,0,4,1,1,g.PNG,g,6090539b97cb68d8aaf813a3,2021-10-19_21h18.08.845,forced_choiceRT,2021.1.2,Win32,60.07088364,,,,,,,,,,,,,,,,,,,,,,
,0,h,1,1.225,1,1,5,2,1,h.PNG,h,6090539b97cb68d8aaf813a3,2021-10-19_21h18.08.845,forced_choiceRT,2021.1.2,Win32,60.07088364,,,,,,,,,,,,,,,,,,,,,,
,0,h,1,1.1001,1,2,6,2,1,h.PNG,h,6090539b97cb68d8aaf813a3,2021-10-19_21h18.08.845,forced_choiceRT,2021.1.2,Win32,60.07088364,,,,,,,,,,,,,,,,,,,,,,
,0,h,1,0.7502,1,3,7,2,1,h.PNG,h,6090539b97cb68d8aaf813a3,2021-10-19_21h18.08.845,forced_choiceRT,2021.1.2,Win32,60.07088364,,,,,,,,,,,,,,,,,,,,,,
,0,j,1,1.0831,2,0,8,3,1,j.PNG,j,6090539b97cb68d8aaf813a3,2021-10-19_21h18.08.845,forced_choiceRT,2021.1.2,Win32,60.07088364,,,,,,,,,,,,,,,,,,,,,,
,0,f,1,0.9995,2,1,9,0,1,f.PNG,f,6090539b97cb68d8aaf813a3,2021-10-19_21h18.08.845,forced_choiceRT,2021.1.2,Win32,60.07088364,,,,,,,,,,,,,,,,,,,,,,
,0,j,1,2.0999,2,2,10,3,1,j.PNG,j,6090539b97cb68d8aaf813a3,2021-10-19_21h18.08.845,forced_choiceRT,2021.1.2,Win32,60.07088364,,,,,,,,,,,,,,,,,,,,,,
,0,j,1,4.0043,2,3,11,3,1,j.PNG,j,6090539b97cb68d8aaf813a3,2021-10-19_21h18.08.845,forced_choiceRT,2021.1.2,Win32,60.07088364,,,,,,,,,,,,,,,,,,,,,,
,0,g,1,1.1333,3,0,12,1,1,g.PNG,g,6090539b97cb68d8aaf813a3,2021-10-19_21h18.08.845,forced_choiceRT,2021.1.2,Win32,60.07088364,,,,,,,,,,,,,,,,,,,,,,
,0,f,1,0.9998,3,1,13,0,1,f.PNG,f,6090539b97cb68d8aaf813a3,2021-10-19_21h18.08.845,forced_choiceRT,2021.1.2,Win32,60.07088364,,,,,,,,,,,,,,,,,,,,,,
,0,g,1,1.7556,3,2,14,1,1,g.PNG,g,6090539b97cb68d8aaf813a3,2021-10-19_21h18.08.845,forced_choiceRT,2021.1.2,Win32,60.07088364,,,,,,,,,,,,,,,,,,,,,,
,0,g,1,0.771,3,3,15,1,1,g.PNG,g,6090539b97cb68d8aaf813a3,2021-10-19_21h18.08.845,forced_choiceRT,2021.1.2,Win32,60.07088364,,,,,,,,,,,,,,,,,,,,,,
,0,g,1,0.6004,4,0,16,1,1,g.PNG,g,6090539b97cb68d8aaf813a3,2021-10-19_21h18.08.845,forced_choiceRT,2021.1.2,Win32,60.07088364,,,,,,,,,,,,,,,,,,,,,,
,0,j,0,3.3823,4,1,17,2,1,h.PNG,h,6090539b97cb68d8aaf813a3,2021-10-19_21h18.08.845,forced_choiceRT,2021.1.2,Win32,60.07088364,,,,,,,,,,,,,,,,,,,,,,
,0,j,1,1.6314,4,2,18,3,1,j.PNG,j,6090539b97cb68d8aaf813a3,2021-10-19_21h18.08.845,forced_choiceRT,2021.1.2,Win32,60.07088364,,,,,,,,,,,,,,,,,,,,,,
,0,f,1,1.1756,4,3,19,0,1,f.PNG,f,6090539b97cb68d8aaf813a3,2021-10-19_21h18.08.845,forced_choiceRT,2021.1.2,Win32,60.07088364,,,,,,,,,,,,,,,,,,,,,,
,0,f,1,1.3558,5,0,20,0,1,f.PNG,f,6090539b97cb68d8aaf813a3,2021-10-19_21h18.08.845,forced_choiceRT,2021.1.2,Win32,60.07088364,,,,,,,,,,,,,,,,,,,,,,
,0,h,1,1.4755,5,1,21,2,1,h.PNG,h,6090539b97cb68d8aaf813a3,2021-10-19_21h18.08.845,forced_choiceRT,2021.1.2,Win32,60.07088364,,,,,,,,,,,,,,,,,,,,,,
,0,j,1,1.0494,5,2,22,3,1,j.PNG,j,6090539b97cb68d8aaf813a3,2021-10-19_21h18.08.845,forced_choiceRT,2021.1.2,Win32,60.07088364,,,,,,,,,,,,,,,,,,,,,,
,0,g,1,1.1004,5,3,23,1,1,g.PNG,g,6090539b97cb68d8aaf813a3,2021-10-19_21h18.08.845,forced_choiceRT,2021.1.2,Win32,60.07088364,,,,,,,,,,,,,,,,,,,,,,
,0,f,1,1,6,0,24,0,1,f.PNG,f,6090539b97cb68d8aaf813a3,2021-10-19_21h18.08.845,forced_choiceRT,2021.1.2,Win32,60.07088364,,,,,,,,,,,,,,,,,,,,,,
,0,j,1,1.0725,6,1,25,3,1,j.PNG,j,6090539b97cb68d8aaf813a3,2021-10-19_21h18.08.845,forced_choiceRT,2021.1.2,Win32,60.07088364,,,,,,,,,,,,,,,,,,,,,,
,0,h,1,0.9481,6,2,26,2,1,h.PNG,h,6090539b97cb68d8aaf813a3,2021-10-19_21h18.08.845,forced_choiceRT,2021.1.2,Win32,60.07088364,,,,,,,,,,,,,,,,,,,,,,
,0,h,1,0.9665,6,3,27,2,1,h.PNG,h,6090539b97cb68d8aaf813a3,2021-10-19_21h18.08.845,forced_choiceRT,2021.1.2,Win32,60.07088364,,,,,,,,,,,,,,,,,,,,,,
,0,f,1,0.9295,7,0,28,0,1,f.PNG,f,6090539b97cb68d8aaf813a3,2021-10-19_21h18.08.845,forced_choiceRT,2021.1.2,Win32,60.07088364,,,,,,,,,,,,,,,,,,,,,,
,0,f,1,0.9271,7,1,29,0,1,f.PNG,f,6090539b97cb68d8aaf813a3,2021-10-19_21h18.08.845,forced_choiceRT,2021.1.2,Win32,60.07088364,,,,,,,,,,,,,,,,,,,,,,
,0,j,1,2.1328,7,2,30,3,1,j.PNG,j,6090539b97cb68d8aaf813a3,2021-10-19_21h18.08.845,forced_choiceRT,2021.1.2,Win32,60.07088364,,,,,,,,,,,,,,,,,,,,,,
,0,h,1,0.9781,7,3,31,2,1,h.PNG,h,6090539b97cb68d8aaf813a3,2021-10-19_21h18.08.845,forced_choiceRT,2021.1.2,Win32,60.07088364,,,,,,,,,,,,,,,,,,,,,,
,0,g,0,1.3706,8,0,32,3,1,j.PNG,j,6090539b97cb68d8aaf813a3,2021-10-19_21h18.08.845,forced_choiceRT,2021.1.2,Win32,60.07088364,,,,,,,,,,,,,,,,,,,,,,
,0,g,1,1.3671,8,1,33,1,1,g.PNG,g,6090539b97cb68d8aaf813a3,2021-10-19_21h18.08.845,forced_choiceRT,2021.1.2,Win32,60.07088364,,,,,,,,,,,,,,,,,,,,,,
,0,g,1,0.802,8,2,34,1,1,g.PNG,g,6090539b97cb68d8aaf813a3,2021-10-19_21h18.08.845,forced_choiceRT,2021.1.2,Win32,60.07088364,,,,,,,,,,,,,,,,,,,,,,
,0,h,1,1.1713,8,3,35,2,1,h.PNG,h,6090539b97cb68d8aaf813a3,2021-10-19_21h18.08.845,forced_choiceRT,2021.1.2,Win32,60.07088364,,,,,,,,,,,,,,,,,,,,,,
,0,f,1,0.9758,9,0,36,0,1,f.PNG,f,6090539b97cb68d8aaf813a3,2021-10-19_21h18.08.845,forced_choiceRT,2021.1.2,Win32,60.07088364,,,,,,,,,,,,,,,,,,,,,,
,0,j,1,0.9497,9,1,37,3,1,j.PNG,j,6090539b97cb68d8aaf813a3,2021-10-19_21h18.08.845,forced_choiceRT,2021.1.2,Win32,60.07088364,,,,,,,,,,,,,,,,,,,,,,
,0,f,1,1.1652,9,2,38,0,1,f.PNG,f,6090539b97cb68d8aaf813a3,2021-10-19_21h18.08.845,forced_choiceRT,2021.1.2,Win32,60.07088364,,,,,,,,,,,,,,,,,,,,,,
,0,j,1,1.0162,9,3,39,3,1,j.PNG,j,6090539b97cb68d8aaf813a3,2021-10-19_21h18.08.845,forced_choiceRT,2021.1.2,Win32,60.07088364,,,,,,,,,,,,,,,,,,,,,,
,0,j,1,1.1009,10,0,40,3,1,j.PNG,j,6090539b97cb68d8aaf813a3,2021-10-19_21h18.08.845,forced_choiceRT,2021.1.2,Win32,60.07088364,,,,,,,,,,,,,,,,,,,,,,
,0,h,1,1.1031,10,1,41,2,1,h.PNG,h,6090539b97cb68d8aaf813a3,2021-10-19_21h18.08.845,forced_choiceRT,2021.1.2,Win32,60.07088364,,,,,,,,,,,,,,,,,,,,,,
,0,g,1,0.9134,10,2,42,1,1,g.PNG,g,6090539b97cb68d8aaf813a3,2021-10-19_21h18.08.845,forced_choiceRT,2021.1.2,Win32,60.07088364,,,,,,,,,,,,,,,,,,,,,,
,0,g,1,1.144,10,3,43,1,1,g.PNG,g,6090539b97cb68d8aaf813a3,2021-10-19_21h18.08.845,forced_choiceRT,2021.1.2,Win32,60.07088364,,,,,,,,,,,,,,,,,,,,,,
,0,f,1,0.917,11,0,44,0,1,f.PNG,f,6090539b97cb68d8aaf813a3,2021-10-19_21h18.08.845,forced_choiceRT,2021.1.2,Win32,60.07088364,,,,,,,,,,,,,,,,,,,,,,
,0,j,1,1.1994,11,1,45,3,1,j.PNG,j,6090539b97cb68d8aaf813a3,2021-10-19_21h18.08.845,forced_choiceRT,2021.1.2,Win32,60.07088364,,,,,,,,,,,,,,,,,,,,,,
,0,h,1,0.9668,11,2,46,2,1,h.PNG,h,6090539b97cb68d8aaf813a3,2021-10-19_21h18.08.845,forced_choiceRT,2021.1.2,Win32,60.07088364,,,,,,,,,,,,,,,,,,,,,,
,0,f,1,1.3957,11,3,47,0,1,f.PNG,f,6090539b97cb68d8aaf813a3,2021-10-19_21h18.08.845,forced_choiceRT,2021.1.2,Win32,60.07088364,,,,,,,,,,,,,,,,,,,,,,
,0,g,1,0.6837,12,0,48,1,1,g.PNG,g,6090539b97cb68d8aaf813a3,2021-10-19_21h18.08.845,forced_choiceRT,2021.1.2,Win32,60.07088364,,,,,,,,,,,,,,,,,,,,,,
,0,j,1,0.6165,12,1,49,3,1,j.PNG,j,6090539b97cb68d8aaf813a3,2021-10-19_21h18.08.845,forced_choiceRT,2021.1.2,Win32,60.07088364,,,,,,,,,,,,,,,,,,,,,,
,0,h,1,0.7274,12,2,50,2,1,h.PNG,h,6090539b97cb68d8aaf813a3,2021-10-19_21h18.08.845,forced_choiceRT,2021.1.2,Win32,60.07088364,,,,,,,,,,,,,,,,,,,,,,
,0,g,1,0.6667,12,3,51,1,1,g.PNG,g,6090539b97cb68d8aaf813a3,2021-10-19_21h18.08.845,forced_choiceRT,2021.1.2,Win32,60.07088364,,,,,,,,,,,,,,,,,,,,,,
,0,f,1,0.6665,13,0,52,0,1,f.PNG,f,6090539b97cb68d8aaf813a3,2021-10-19_21h18.08.845,forced_choiceRT,2021.1.2,Win32,60.07088364,,,,,,,,,,,,,,,,,,,,,,
,0,g,1,0.6597,13,1,53,1,1,g.PNG,g,6090539b97cb68d8aaf813a3,2021-10-19_21h18.08.845,forced_choiceRT,2021.1.2,Win32,60.07088364,,,,,,,,,,,,,,,,,,,,,,
,0,g,1,0.5255,13,2,54,1,1,g.PNG,g,6090539b97cb68d8aaf813a3,2021-10-19_21h18.08.845,forced_choiceRT,2021.1.2,Win32,60.07088364,,,,,,,,,,,,,,,,,,,,,,
,0,g,1,0.4452,13,3,55,1,1,g.PNG,g,6090539b97cb68d8aaf813a3,2021-10-19_21h18.08.845,forced_choiceRT,2021.1.2,Win32,60.07088364,,,,,,,,,,,,,,,,,,,,,,
,0,f,1,0.7313,14,0,56,0,1,f.PNG,f,6090539b97cb68d8aaf813a3,2021-10-19_21h18.08.845,forced_choiceRT,2021.1.2,Win32,60.07088364,,,,,,,,,,,,,,,,,,,,,,
,0,f,1,0.7502,14,1,57,0,1,f.PNG,f,6090539b97cb68d8aaf813a3,2021-10-19_21h18.08.845,forced_choiceRT,2021.1.2,Win32,60.07088364,,,,,,,,,,,,,,,,,,,,,,
,0,j,1,0.6857,14,2,58,3,1,j.PNG,j,6090539b97cb68d8aaf813a3,2021-10-19_21h18.08.845,forced_choiceRT,2021.1.2,Win32,60.07088364,,,,,,,,,,,,,,,,,,,,,,
,0,h,1,0.8445,14,3,59,2,1,h.PNG,h,6090539b97cb68d8aaf813a3,2021-10-19_21h18.08.845,forced_choiceRT,2021.1.2,Win32,60.07088364,,,,,,,,,,,,,,,,,,,,,,
,,,,,,,,,,,,6090539b97cb68d8aaf813a3,2021-10-19_21h18.08.845,forced_choiceRT,2021.1.2,Win32,60.07088364,g,3.9979,0,0,0,0,1,,,,,,,,,,,,,,,
,,,,,,,,,,,,6090539b97cb68d8aaf813a3,2021-10-19_21h18.08.845,forced_choiceRT,2021.1.2,Win32,60.07088364,f,0.8463,1,0,1,0,1,,,,,,,,,,,,,,,
,,,,,,,,,,,,6090539b97cb68d8aaf813a3,2021-10-19_21h18.08.845,forced_choiceRT,2021.1.2,Win32,60.07088364,g,1.7495,2,0,2,0,1,,,,,,,,,,,,,,,
,,,,,,,,,,,,6090539b97cb68d8aaf813a3,2021-10-19_21h18.08.845,forced_choiceRT,2021.1.2,Win32,60.07088364,f,2.2203,3,0,3,0,1,,,,,,,,,,,,,,,
,,,,,,,,,,,,6090539b97cb68d8aaf813a3,2021-10-19_21h18.08.845,forced_choiceRT,2021.1.2,Win32,60.07088364,g,2.055,4,0,4,0,1,,,,,,,,,,,,,,,
,,,,,,,,,,,,6090539b97cb68d8aaf813a3,2021-10-19_21h18.08.845,forced_choiceRT,2021.1.2,Win32,60.07088364,j,2.1012,5,0,5,0,1,,,,,,,,,,,,,,,
,,,,,,,,,,,,6090539b97cb68d8aaf813a3,2021-10-19_21h18.08.845,forced_choiceRT,2021.1.2,Win32,60.07088364,h,2.0499,6,0,6,0,1,,,,,,,,,,,,,,,
,,,,,,,,,,,,6090539b97cb68d8aaf813a3,2021-10-19_21h18.08.845,forced_choiceRT,2021.1.2,Win32,60.07088364,h,2.0322,7,0,7,0,1,,,,,,,,,,,,,,,
,,,,,,,,,,,,6090539b97cb68d8aaf813a3,2021-10-19_21h18.08.845,forced_choiceRT,2021.1.2,Win32,60.07088364,h,2.0749,8,0,8,0,1,,,,,,,,,,,,,,,
,,,,,,,,,,,,6090539b97cb68d8aaf813a3,2021-10-19_21h18.08.845,forced_choiceRT,2021.1.2,Win32,60.07088364,h,2.1009,9,0,9,0,1,,,,,,,,,,,,,,,
,,,,,,,,,,,,6090539b97cb68d8aaf813a3,2021-10-19_21h18.08.845,forced_choiceRT,2021.1.2,Win32,60.07088364,j,2.0564,10,0,10,0,1,,,,,,,,,,,,,,,
,,,,,,,,,,,,6090539b97cb68d8aaf813a3,2021-10-19_21h18.08.845,forced_choiceRT,2021.1.2,Win32,60.07088364,j,1.9822,11,0,11,0,1,,,,,,,,,,,,,,,
,,,,,,,,,,,,6090539b97cb68d8aaf813a3,2021-10-19_21h18.08.845,forced_choiceRT,2021.1.2,Win32,60.07088364,j,1.9659,12,0,12,0,1,,,,,,,,,,,,,,,
,,,,,,,,,,,,6090539b97cb68d8aaf813a3,2021-10-19_21h18.08.845,forced_choiceRT,2021.1.2,Win32,60.07088364,j,1.9333,13,0,13,0,1,,,,,,,,,,,,,,,
,,,,,,,,,,,,6090539b97cb68d8aaf813a3,2021-10-19_21h18.08.845,forced_choiceRT,2021.1.2,Win32,60.07088364,j,1.9424,14,0,14,0,1,,,,,,,,,,,,,,,
,,,,,,,,,,,,6090539b97cb68d8aaf813a3,2021-10-19_21h18.08.845,forced_choiceRT,2021.1.2,Win32,60.07088364,j,1.9322,15,0,15,0,1,,,,,,,,,,,,,,,
,,,,,,,,,,,,6090539b97cb68d8aaf813a3,2021-10-19_21h18.08.845,forced_choiceRT,2021.1.2,Win32,60.07088364,j,2.1325,16,0,16,0,1,,,,,,,,,,,,,,,
,,,,,,,,,,,,6090539b97cb68d8aaf813a3,2021-10-19_21h18.08.845,forced_choiceRT,2021.1.2,Win32,60.07088364,j,1.9598,17,0,17,0,1,,,,,,,,,,,,,,,
,,,,,,,,,,,,6090539b97cb68d8aaf813a3,2021-10-19_21h18.08.845,forced_choiceRT,2021.1.2,Win32,60.07088364,j,1.9157,18,0,18,0,1,,,,,,,,,,,,,,,
,,,,,,,,,,,,6090539b97cb68d8aaf813a3,2021-10-19_21h18.08.845,forced_choiceRT,2021.1.2,Win32,60.07088364,h,1.703,19,0,19,0,1,,,,,,,,,,,,,,,
,0.91,,,,,,,,,f.PNG,f,6090539b97cb68d8aaf813a3,2021-10-19_21h18.08.845,forced_choiceRT,2021.1.2,Win32,60.07088364,,,,,,,,1,Ontime,f,1,2.0936,0,0,0,0,1,,,,,
,0.23,,,,,,,,,h.PNG,h,6090539b97cb68d8aaf813a3,2021-10-19_21h18.08.845,forced_choiceRT,2021.1.2,Win32,60.07088364,,,,,,,,1,Fast,h,1,1.7422,0,1,1,2,1,,,,,
,0.88,,,,,,,,,j.PNG,j,6090539b97cb68d8aaf813a3,2021-10-19_21h18.08.845,forced_choiceRT,2021.1.2,Win32,60.07088364,,,,,,,,1,Slow,j,1,37.7406,0,2,2,3,1,,,,,
,0.45,,,,,,,,,f.PNG,f,6090539b97cb68d8aaf813a3,2021-10-19_21h18.08.845,forced_choiceRT,2021.1.2,Win32,60.07088364,,,,,,,,1,Fast,f,1,1.6328,0,3,3,0,1,,,,,
,0,,,,,,,,,j.PNG,j,6090539b97cb68d8aaf813a3,2021-10-19_21h18.08.845,forced_choiceRT,2021.1.2,Win32,60.07088364,,,,,,,,1,Ontime,j,1,1.9899,1,0,4,3,1,,,,,
,1.39,,,,,,,,,g.PNG,g,6090539b97cb68d8aaf813a3,2021-10-19_21h18.08.845,forced_choiceRT,2021.1.2,Win32,60.07088364,,,,,,,,1,Ontime,f,0,2.0012,1,1,5,1,1,,,,,
,0.08,,,,,,,,,j.PNG,j,6090539b97cb68d8aaf813a3,2021-10-19_21h18.08.845,forced_choiceRT,2021.1.2,Win32,60.07088364,,,,,,,,1,Fast,j,1,0.7038,1,2,6,3,1,,,,,
,1.33,,,,,,,,,j.PNG,j,6090539b97cb68d8aaf813a3,2021-10-19_21h18.08.845,forced_choiceRT,2021.1.2,Win32,60.07088364,,,,,,,,1,Ontime,j,1,1.9342,1,3,7,3,1,,,,,
,1.58,,,,,,,,,h.PNG,h,6090539b97cb68d8aaf813a3,2021-10-19_21h18.08.845,forced_choiceRT,2021.1.2,Win32,60.07088364,,,,,,,,1,Slow,g,0,2.2236,2,0,8,2,1,,,,,
,1.38,,,,,,,,,f.PNG,f,6090539b97cb68d8aaf813a3,2021-10-19_21h18.08.845,forced_choiceRT,2021.1.2,Win32,60.07088364,,,,,,,,1,Fast,f,1,1.822,2,1,9,0,1,,,,,
,1.08,,,,,,,,,j.PNG,j,6090539b97cb68d8aaf813a3,2021-10-19_21h18.08.845,forced_choiceRT,2021.1.2,Win32,60.07088364,,,,,,,,1,Ontime,j,1,1.922,2,2,10,3,1,,,,,
,1.65,,,,,,,,,g.PNG,g,6090539b97cb68d8aaf813a3,2021-10-19_21h18.08.845,forced_choiceRT,2021.1.2,Win32,60.07088364,,,,,,,,1,Ontime,f,0,2.0758,2,3,11,1,1,,,,,
,1.16,,,,,,,,,h.PNG,h,6090539b97cb68d8aaf813a3,2021-10-19_21h18.08.845,forced_choiceRT,2021.1.2,Win32,60.07088364,,,,,,,,1,Fast,h,1,1.729,3,0,12,2,1,,,,,
,0.12,,,,,,,,,f.PNG,f,6090539b97cb68d8aaf813a3,2021-10-19_21h18.08.845,forced_choiceRT,2021.1.2,Win32,60.07088364,,,,,,,,1,Fast,f,1,1.7475,3,1,13,0,1,,,,,
,1.82,,,,,,,,,f.PNG,f,6090539b97cb68d8aaf813a3,2021-10-19_21h18.08.845,forced_choiceRT,2021.1.2,Win32,60.07088364,,,,,,,,1,Slow,f,1,2.3249,3,2,14,0,1,,,,,
,1.68,,,,,,,,,g.PNG,g,6090539b97cb68d8aaf813a3,2021-10-19_21h18.08.845,forced_choiceRT,2021.1.2,Win32,60.07088364,,,,,,,,1,Slow,g,1,2.1791,3,3,15,1,1,,,,,
,1.62,,,,,,,,,g.PNG,g,6090539b97cb68d8aaf813a3,2021-10-19_21h18.08.845,forced_choiceRT,2021.1.2,Win32,60.07088364,,,,,,,,1,Ontime,g,1,2.0231,4,0,16,1,1,,,,,
,0.37,,,,,,,,,h.PNG,h,6090539b97cb68d8aaf813a3,2021-10-19_21h18.08.845,forced_choiceRT,2021.1.2,Win32,60.07088364,,,,,,,,1,Fast,f,0,1.7712,4,1,17,2,1,,,,,
,1.04,,,,,,,,,f.PNG,f,6090539b97cb68d8aaf813a3,2021-10-19_21h18.08.845,forced_choiceRT,2021.1.2,Win32,60.07088364,,,,,,,,1,Fast,f,1,1.8734,4,2,18,0,1,,,,,
,0.5,,,,,,,,,j.PNG,j,6090539b97cb68d8aaf813a3,2021-10-19_21h18.08.845,forced_choiceRT,2021.1.2,Win32,60.07088364,,,,,,,,1,Ontime,j,1,1.9676,4,3,19,3,1,,,,,
,1.11,,,,,,,,,f.PNG,f,6090539b97cb68d8aaf813a3,2021-10-19_21h18.08.845,forced_choiceRT,2021.1.2,Win32,60.07088364,,,,,,,,1,Ontime,f,1,1.9752,5,0,20,0,1,,,,,
,1.26,,,,,,,,,h.PNG,h,6090539b97cb68d8aaf813a3,2021-10-19_21h18.08.845,forced_choiceRT,2021.1.2,Win32,60.07088364,,,,,,,,1,Ontime,h,1,2.0508,5,1,21,2,1,,,,,
,1.96,,,,,,,,,j.PNG,j,6090539b97cb68d8aaf813a3,2021-10-19_21h18.08.845,forced_choiceRT,2021.1.2,Win32,60.07088364,,,,,,,,1,Slow,h,0,2.3154,5,2,22,3,1,,,,,
,0.54,,,,,,,,,h.PNG,h,6090539b97cb68d8aaf813a3,2021-10-19_21h18.08.845,forced_choiceRT,2021.1.2,Win32,60.07088364,,,,,,,,1,Fast,h,1,1.6983,5,3,23,2,1,,,,,
,0.35,,,,,,,,,h.PNG,h,6090539b97cb68d8aaf813a3,2021-10-19_21h18.08.845,forced_choiceRT,2021.1.2,Win32,60.07088364,,,,,,,,1,Ontime,h,1,2.0231,6,0,24,2,1,,,,,
,0.16,,,,,,,,,g.PNG,g,6090539b97cb68d8aaf813a3,2021-10-19_21h18.08.845,forced_choiceRT,2021.1.2,Win32,60.07088364,,,,,,,,1,Fast,g,1,1.8577,6,1,25,1,1,,,,,
,1.01,,,,,,,,,f.PNG,f,6090539b97cb68d8aaf813a3,2021-10-19_21h18.08.845,forced_choiceRT,2021.1.2,Win32,60.07088364,,,,,,,,1,Ontime,f,1,1.9826,6,2,26,0,1,,,,,
,0.95,,,,,,,,,g.PNG,g,6090539b97cb68d8aaf813a3,2021-10-19_21h18.08.845,forced_choiceRT,2021.1.2,Win32,60.07088364,,,,,,,,1,Ontime,g,1,1.908,6,3,27,1,1,,,,,
,0.66,,,,,,,,,h.PNG,h,6090539b97cb68d8aaf813a3,2021-10-19_21h18.08.845,forced_choiceRT,2021.1.2,Win32,60.07088364,,,,,,,,1,Ontime,h,1,1.9808,7,0,28,2,1,,,,,
,0.31,,,,,,,,,f.PNG,f,6090539b97cb68d8aaf813a3,2021-10-19_21h18.08.845,forced_choiceRT,2021.1.2,Win32,60.07088364,,,,,,,,1,Slow,f,1,2.1479,7,1,29,0,1,,,,,
,0.66,,,,,,,,,j.PNG,j,6090539b97cb68d8aaf813a3,2021-10-19_21h18.08.845,forced_choiceRT,2021.1.2,Win32,60.07088364,,,,,,,,1,Ontime,j,1,2.0075,7,2,30,3,1,,,,,
,0.93,,,,,,,,,h.PNG,h,6090539b97cb68d8aaf813a3,2021-10-19_21h18.08.845,forced_choiceRT,2021.1.2,Win32,60.07088364,,,,,,,,1,Ontime,h,1,1.9483,7,3,31,2,1,,,,,
,1.54,,,,,,,,,g.PNG,g,6090539b97cb68d8aaf813a3,2021-10-19_21h18.08.845,forced_choiceRT,2021.1.2,Win32,60.07088364,,,,,,,,1,Ontime,g,1,2.0956,8,0,32,1,1,,,,,
,1.27,,,,,,,,,g.PNG,g,6090539b97cb68d8aaf813a3,2021-10-19_21h18.08.845,forced_choiceRT,2021.1.2,Win32,60.07088364,,,,,,,,1,Ontime,g,1,1.9252,8,1,33,1,1,,,,,
,0.47,,,,,,,,,j.PNG,j,6090539b97cb68d8aaf813a3,2021-10-19_21h18.08.845,forced_choiceRT,2021.1.2,Win32,60.07088364,,,,,,,,1,Ontime,j,1,1.9813,8,2,34,3,1,,,,,
,0.25,,,,,,,,,j.PNG,j,6090539b97cb68d8aaf813a3,2021-10-19_21h18.08.845,forced_choiceRT,2021.1.2,Win32,60.07088364,,,,,,,,1,Ontime,j,1,2.0077,8,3,35,3,1,,,,,
,0.9,,,,,,,,,h.PNG,h,6090539b97cb68d8aaf813a3,2021-10-19_21h18.08.845,forced_choiceRT,2021.1.2,Win32,60.07088364,,,,,,,,1,Ontime,h,1,2.0262,9,0,36,2,1,,,,,
,0.95,,,,,,,,,g.PNG,g,6090539b97cb68d8aaf813a3,2021-10-19_21h18.08.845,forced_choiceRT,2021.1.2,Win32,60.07088364,,,,,,,,1,Fast,g,1,1.6039,9,1,37,1,1,,,,,
,1.04,,,,,,,,,g.PNG,g,6090539b97cb68d8aaf813a3,2021-10-19_21h18.08.845,forced_choiceRT,2021.1.2,Win32,60.07088364,,,,,,,,1,Ontime,h,0,1.9518,9,2,38,1,1,,,,,
,1.78,,,,,,,,,f.PNG,f,6090539b97cb68d8aaf813a3,2021-10-19_21h18.08.845,forced_choiceRT,2021.1.2,Win32,60.07088364,,,,,,,,1,Slow,g,0,2.2726,9,3,39,0,1,,,,,
,,,,,,,,,,,,6090539b97cb68d8aaf813a3,2021-10-19_21h18.08.845,forced_choiceRT,2021.1.2,Win32,60.07088364,,,,,,,,,,,,,,,,,,0,0,0,0,1
,1.3,,,,,,,,,f.PNG,f,6090539b97cb68d8aaf813a3,2021-10-19_21h18.08.845,forced_choiceRT,2021.1.2,Win32,60.07088364,,,,,,,,2,Ontime,g,0,1.9104,0,0,0,0,1,,,,,
,0.16,,,,,,,,,h.PNG,h,6090539b97cb68d8aaf813a3,2021-10-19_21h18.08.845,forced_choiceRT,2021.1.2,Win32,60.07088364,,,,,,,,2,Ontime,h,1,1.9819,0,1,1,2,1,,,,,
,1.57,,,,,,,,,h.PNG,h,6090539b97cb68d8aaf813a3,2021-10-19_21h18.08.845,forced_choiceRT,2021.1.2,Win32,60.07088364,,,,,,,,2,Slow,j,0,2.1309,0,2,2,2,1,,,,,
,0.64,,,,,,,,,h.PNG,h,6090539b97cb68d8aaf813a3,2021-10-19_21h18.08.845,forced_choiceRT,2021.1.2,Win32,60.07088364,,,,,,,,2,Fast,h,1,1.4937,0,3,3,2,1,,,,,
,1.05,,,,,,,,,g.PNG,g,6090539b97cb68d8aaf813a3,2021-10-19_21h18.08.845,forced_choiceRT,2021.1.2,Win32,60.07088364,,,,,,,,2,Ontime,g,1,1.9223,1,0,4,1,1,,,,,
,0.13,,,,,,,,,j.PNG,j,6090539b97cb68d8aaf813a3,2021-10-19_21h18.08.845,forced_choiceRT,2021.1.2,Win32,60.07088364,,,,,,,,2,Ontime,j,1,1.9812,1,1,5,3,1,,,,,
,1.99,,,,,,,,,f.PNG,f,6090539b97cb68d8aaf813a3,2021-10-19_21h18.08.845,forced_choiceRT,2021.1.2,Win32,60.07088364,,,,,,,,2,Slow,f,1,2.324,1,2,6,0,1,,,,,
,1.09,,,,,,,,,h.PNG,h,6090539b97cb68d8aaf813a3,2021-10-19_21h18.08.845,forced_choiceRT,2021.1.2,Win32,60.07088364,,,,,,,,2,Fast,h,1,1.7236,1,3,7,2,1,,,,,
,1.4,,,,,,,,,g.PNG,g,6090539b97cb68d8aaf813a3,2021-10-19_21h18.08.845,forced_choiceRT,2021.1.2,Win32,60.07088364,,,,,,,,2,Ontime,g,1,2.022,2,0,8,1,1,,,,,
,1.58,,,,,,,,,j.PNG,j,6090539b97cb68d8aaf813a3,2021-10-19_21h18.08.845,forced_choiceRT,2021.1.2,Win32,60.07088364,,,,,,,,2,Slow,h,0,2.1372,2,1,9,3,1,,,,,
,1.17,,,,,,,,,f.PNG,f,6090539b97cb68d8aaf813a3,2021-10-19_21h18.08.845,forced_choiceRT,2021.1.2,Win32,60.07088364,,,,,,,,2,Fast,f,1,1.8,2,2,10,0,1,,,,,
,1.84,,,,,,,,,f.PNG,f,6090539b97cb68d8aaf813a3,2021-10-19_21h18.08.845,forced_choiceRT,2021.1.2,Win32,60.07088364,,,,,,,,2,Slow,f,1,2.206,2,3,11,0,1,,,,,
,1.93,,,,,,,,,j.PNG,j,6090539b97cb68d8aaf813a3,2021-10-19_21h18.08.845,forced_choiceRT,2021.1.2,Win32,60.07088364,,,,,,,,2,Slow,f,0,2.2087,3,0,12,3,1,,,,,
,1.28,,,,,,,,,h.PNG,h,6090539b97cb68d8aaf813a3,2021-10-19_21h18.08.845,forced_choiceRT,2021.1.2,Win32,60.07088364,,,,,,,,2,Fast,g,0,1.8991,3,1,13,2,1,,,,,
,1.27,,,,,,,,,h.PNG,h,6090539b97cb68d8aaf813a3,2021-10-19_21h18.08.845,forced_choiceRT,2021.1.2,Win32,60.07088364,,,,,,,,2,Fast,h,1,1.7371,3,2,14,2,1,,,,,
,0.22,,,,,,,,,h.PNG,h,6090539b97cb68d8aaf813a3,2021-10-19_21h18.08.845,forced_choiceRT,2021.1.2,Win32,60.07088364,,,,,,,,2,Fast,h,1,1.8999,3,3,15,2,1,,,,,
,1.09,,,,,,,,,j.PNG,j,6090539b97cb68d8aaf813a3,2021-10-19_21h18.08.845,forced_choiceRT,2021.1.2,Win32,60.07088364,,,,,,,,2,Fast,j,1,1.8868,4,0,16,3,1,,,,,
,0.41,,,,,,,,,g.PNG,g,6090539b97cb68d8aaf813a3,2021-10-19_21h18.08.845,forced_choiceRT,2021.1.2,Win32,60.07088364,,,,,,,,2,Ontime,g,1,2.0898,4,1,17,1,1,,,,,
,0.98,,,,,,,,,j.PNG,j,6090539b97cb68d8aaf813a3,2021-10-19_21h18.08.845,forced_choiceRT,2021.1.2,Win32,60.07088364,,,,,,,,2,Slow,j,1,2.1097,4,2,18,3,1,,,,,
,1.14,,,,,,,,,g.PNG,g,6090539b97cb68d8aaf813a3,2021-10-19_21h18.08.845,forced_choiceRT,2021.1.2,Win32,60.07088364,,,,,,,,2,Ontime,h,0,1.9824,4,3,19,1,1,,,,,
,0.49,,,,,,,,,g.PNG,g,6090539b97cb68d8aaf813a3,2021-10-19_21h18.08.845,forced_choiceRT,2021.1.2,Win32,60.07088364,,,,,,,,2,Ontime,g,1,1.931,5,0,20,1,1,,,,,
,0.35,,,,,,,,,g.PNG,g,6090539b97cb68d8aaf813a3,2021-10-19_21h18.08.845,forced_choiceRT,2021.1.2,Win32,60.07088364,,,,,,,,2,Ontime,g,1,2.0536,5,1,21,1,1,,,,,
,1.8,,,,,,,,,f.PNG,f,6090539b97cb68d8aaf813a3,2021-10-19_21h18.08.845,forced_choiceRT,2021.1.2,Win32,60.07088364,,,,,,,,2,Ontime,h,0,2.098,5,2,22,0,1,,,,,
,0.67,,,,,,,,,h.PNG,h,6090539b97cb68d8aaf813a3,2021-10-19_21h18.08.845,forced_choiceRT,2021.1.2,Win32,60.07088364,,,,,,,,2,Fast,h,1,1.8219,5,3,23,2,1,,,,,
,0.69,,,,,,,,,j.PNG,j,6090539b97cb68d8aaf813a3,2021-10-19_21h18.08.845,forced_choiceRT,2021.1.2,Win32,60.07088364,,,,,,,,2,Ontime,j,1,2.0161,6,0,24,3,1,,,,,
,0.83,,,,,,,,,g.PNG,g,6090539b97cb68d8aaf813a3,2021-10-19_21h18.08.845,forced_choiceRT,2021.1.2,Win32,60.07088364,,,,,,,,2,Fast,g,1,1.784,6,1,25,1,1,,,,,
,0.52,,,,,,,,,f.PNG,f,6090539b97cb68d8aaf813a3,2021-10-19_21h18.08.845,forced_choiceRT,2021.1.2,Win32,60.07088364,,,,,,,,2,Ontime,f,1,2.0661,6,2,26,0,1,,,,,
,1.29,,,,,,,,,j.PNG,j,6090539b97cb68d8aaf813a3,2021-10-19_21h18.08.845,forced_choiceRT,2021.1.2,Win32,60.07088364,,,,,,,,2,Ontime,j,1,2.0465,6,3,27,3,1,,,,,
,0.82,,,,,,,,,f.PNG,f,6090539b97cb68d8aaf813a3,2021-10-19_21h18.08.845,forced_choiceRT,2021.1.2,Win32,60.07088364,,,,,,,,2,Ontime,f,1,2.0621,7,0,28,0,1,,,,,
,1.94,,,,,,,,,j.PNG,j,6090539b97cb68d8aaf813a3,2021-10-19_21h18.08.845,forced_choiceRT,2021.1.2,Win32,60.07088364,,,,,,,,2,Slow,j,1,2.3208,7,1,29,3,1,,,,,
,0.53,,,,,,,,,j.PNG,j,6090539b97cb68d8aaf813a3,2021-10-19_21h18.08.845,forced_choiceRT,2021.1.2,Win32,60.07088364,,,,,,,,2,Ontime,j,1,1.9518,7,2,30,3,1,,,,,
,0.13,,,,,,,,,f.PNG,f,6090539b97cb68d8aaf813a3,2021-10-19_21h18.08.845,forced_choiceRT,2021.1.2,Win32,60.07088364,,,,,,,,2,Ontime,f,1,1.9511,7,3,31,0,1,,,,,
,1.19,,,,,,,,,j.PNG,j,6090539b97cb68d8aaf813a3,2021-10-19_21h18.08.845,forced_choiceRT,2021.1.2,Win32,60.07088364,,,,,,,,2,Fast,j,1,1.7652,8,0,32,3,1,,,,,
,0.43,,,,,,,,,f.PNG,f,6090539b97cb68d8aaf813a3,2021-10-19_21h18.08.845,forced_choiceRT,2021.1.2,Win32,60.07088364,,,,,,,,2,Fast,f,1,1.8736,8,1,33,0,1,,,,,
,1.37,,,,,,,,,g.PNG,g,6090539b97cb68d8aaf813a3,2021-10-19_21h18.08.845,forced_choiceRT,2021.1.2,Win32,60.07088364,,,,,,,,2,Ontime,h,0,2.0697,8,2,34,1,1,,,,,
,1.55,,,,,,,,,f.PNG,f,6090539b97cb68d8aaf813a3,2021-10-19_21h18.08.845,forced_choiceRT,2021.1.2,Win32,60.07088364,,,,,,,,2,Ontime,f,1,2.0228,8,3,35,0,1,,,,,
,1.82,,,,,,,,,g.PNG,g,6090539b97cb68d8aaf813a3,2021-10-19_21h18.08.845,forced_choiceRT,2021.1.2,Win32,60.07088364,,,,,,,,2,Slow,h,0,2.1832,9,0,36,1,1,,,,,
,1.8,,,,,,,,,g.PNG,g,6090539b97cb68d8aaf813a3,2021-10-19_21h18.08.845,forced_choiceRT,2021.1.2,Win32,60.07088364,,,,,,,,2,Ontime,h,0,2.0607,9,1,37,1,1,,,,,
,0.78,,,,,,,,,h.PNG,h,6090539b97cb68d8aaf813a3,2021-10-19_21h18.08.845,forced_choiceRT,2021.1.2,Win32,60.07088364,,,,,,,,2,Fast,j,0,1.6146,9,2,38,2,1,,,,,
,1.07,,,,,,,,,h.PNG,h,6090539b97cb68d8aaf813a3,2021-10-19_21h18.08.845,forced_choiceRT,2021.1.2,Win32,60.07088364,,,,,,,,2,Fast,h,1,1.6586,9,3,39,2,1,,,,,
,,,,,,,,,,,,6090539b97cb68d8aaf813a3,2021-10-19_21h18.08.845,forced_choiceRT,2021.1.2,Win32,60.07088364,,,,,,,,,,,,,,,,,,1,0,1,0,1
,0.66,,,,,,,,,h.PNG,h,6090539b97cb68d8aaf813a3,2021-10-19_21h18.08.845,forced_choiceRT,2021.1.2,Win32,60.07088364,,,,,,,,3,Fast,h,1,1.4421,0,0,0,2,1,,,,,
,0.07,,,,,,,,,g.PNG,g,6090539b97cb68d8aaf813a3,2021-10-19_21h18.08.845,forced_choiceRT,2021.1.2,Win32,60.07088364,,,,,,,,3,Fast,g,1,1.8748,0,1,1,1,1,,,,,
,1.21,,,,,,,,,h.PNG,h,6090539b97cb68d8aaf813a3,2021-10-19_21h18.08.845,forced_choiceRT,2021.1.2,Win32,60.07088364,,,,,,,,3,Ontime,h,1,2.0764,0,2,2,2,1,,,,,
,0.7,,,,,,,,,j.PNG,j,6090539b97cb68d8aaf813a3,2021-10-19_21h18.08.845,forced_choiceRT,2021.1.2,Win32,60.07088364,,,,,,,,3,Ontime,j,1,2.0702,0,3,3,3,1,,,,,
,1.59,,,,,,,,,g.PNG,g,6090539b97cb68d8aaf813a3,2021-10-19_21h18.08.845,forced_choiceRT,2021.1.2,Win32,60.07088364,,,,,,,,3,Ontime,f,0,1.9917,1,0,4,1,1,,,,,
,0,,,,,,,,,f.PNG,f,6090539b97cb68d8aaf813a3,2021-10-19_21h18.08.845,forced_choiceRT,2021.1.2,Win32,60.07088364,,,,,,,,3,Ontime,f,1,2.0331,1,1,5,0,1,,,,,
,0.92,,,,,,,,,h.PNG,h,6090539b97cb68d8aaf813a3,2021-10-19_21h18.08.845,forced_choiceRT,2021.1.2,Win32,60.07088364,,,,,,,,3,Ontime,h,1,1.9616,1,2,6,2,1,,,,,
,1.52,,,,,,,,,f.PNG,f,6090539b97cb68d8aaf813a3,2021-10-19_21h18.08.845,forced_choiceRT,2021.1.2,Win32,60.07088364,,,,,,,,3,Ontime,f,1,2.0435,1,3,7,0,1,,,,,
,1.27,,,,,,,,,g.PNG,g,6090539b97cb68d8aaf813a3,2021-10-19_21h18.08.845,forced_choiceRT,2021.1.2,Win32,60.07088364,,,,,,,,3,Ontime,g,1,1.9958,2,0,8,1,1,,,,,
,0.88,,,,,,,,,h.PNG,h,6090539b97cb68d8aaf813a3,2021-10-19_21h18.08.845,forced_choiceRT,2021.1.2,Win32,60.07088364,,,,,,,,3,Ontime,h,1,2.0187,2,1,9,2,1,,,,,
,0.61,,,,,,,,,f.PNG,f,6090539b97cb68d8aaf813a3,2021-10-19_21h18.08.845,forced_choiceRT,2021.1.2,Win32,60.07088364,,,,,,,,3,Slow,f,1,2.181,2,2,10,0,1,,,,,
,0.02,,,,,,,,,j.PNG,j,6090539b97cb68d8aaf813a3,2021-10-19_21h18.08.845,forced_choiceRT,2021.1.2,Win32,60.07088364,,,,,,,,3,Ontime,j,1,1.9592,2,3,11,3,1,,,,,
,1.11,,,,,,,,,g.PNG,g,6090539b97cb68d8aaf813a3,2021-10-19_21h18.08.845,forced_choiceRT,2021.1.2,Win32,60.07088364,,,,,,,,3,Ontime,g,1,1.9645,3,0,12,1,1,,,,,
,1.06,,,,,,,,,f.PNG,f,6090539b97cb68d8aaf813a3,2021-10-19_21h18.08.845,forced_choiceRT,2021.1.2,Win32,60.07088364,,,,,,,,3,Fast,f,1,1.8827,3,1,13,0,1,,,,,
,1.62,,,,,,,,,g.PNG,g,6090539b97cb68d8aaf813a3,2021-10-19_21h18.08.845,forced_choiceRT,2021.1.2,Win32,60.07088364,,,,,,,,3,Slow,g,1,2.1248,3,2,14,1,1,,,,,
,0.21,,,,,,,,,j.PNG,j,6090539b97cb68d8aaf813a3,2021-10-19_21h18.08.845,forced_choiceRT,2021.1.2,Win32,60.07088364,,,,,,,,3,Ontime,j,1,1.9479,3,3,15,3,1,,,,,
,1.29,,,,,,,,,g.PNG,g,6090539b97cb68d8aaf813a3,2021-10-19_21h18.08.845,forced_choiceRT,2021.1.2,Win32,60.07088364,,,,,,,,3,Ontime,g,1,2.0156,4,0,16,1,1,,,,,
,0.56,,,,,,,,,j.PNG,j,6090539b97cb68d8aaf813a3,2021-10-19_21h18.08.845,forced_choiceRT,2021.1.2,Win32,60.07088364,,,,,,,,3,Ontime,j,1,1.9505,4,1,17,3,1,,,,,
,0.13,,,,,,,,,j.PNG,j,6090539b97cb68d8aaf813a3,2021-10-19_21h18.08.845,forced_choiceRT,2021.1.2,Win32,60.07088364,,,,,,,,3,Slow,j,1,2.1027,4,2,18,3,1,,,,,
,1.16,,,,,,,,,j.PNG,j,6090539b97cb68d8aaf813a3,2021-10-19_21h18.08.845,forced_choiceRT,2021.1.2,Win32,60.07088364,,,,,,,,3,Ontime,j,1,1.9507,4,3,19,3,1,,,,,
,0.76,,,,,,,,,f.PNG,f,6090539b97cb68d8aaf813a3,2021-10-19_21h18.08.845,forced_choiceRT,2021.1.2,Win32,60.07088364,,,,,,,,3,Fast,f,1,1.8736,5,0,20,0,1,,,,,
,1.13,,,,,,,,,h.PNG,h,6090539b97cb68d8aaf813a3,2021-10-19_21h18.08.845,forced_choiceRT,2021.1.2,Win32,60.07088364,,,,,,,,3,Ontime,h,1,2.0322,5,1,21,2,1,,,,,
,1.33,,,,,,,,,h.PNG,h,6090539b97cb68d8aaf813a3,2021-10-19_21h18.08.845,forced_choiceRT,2021.1.2,Win32,60.07088364,,,,,,,,3,Ontime,h,1,1.9744,5,2,22,2,1,,,,,
,0.8,,,,,,,,,g.PNG,g,6090539b97cb68d8aaf813a3,2021-10-19_21h18.08.845,forced_choiceRT,2021.1.2,Win32,60.07088364,,,,,,,,3,Ontime,g,1,1.9556,5,3,23,1,1,,,,,
,0.83,,,,,,,,,h.PNG,h,6090539b97cb68d8aaf813a3,2021-10-19_21h18.08.845,forced_choiceRT,2021.1.2,Win32,60.07088364,,,,,,,,3,Fast,h,1,1.8708,6,0,24,2,1,,,,,
,0.88,,,,,,,,,g.PNG,g,6090539b97cb68d8aaf813a3,2021-10-19_21h18.08.845,forced_choiceRT,2021.1.2,Win32,60.07088364,,,,,,,,3,Fast,g,1,1.8512,6,1,25,1,1,,,,,
,0.95,,,,,,,,,j.PNG,j,6090539b97cb68d8aaf813a3,2021-10-19_21h18.08.845,forced_choiceRT,2021.1.2,Win32,60.07088364,,,,,,,,3,Ontime,j,1,1.977,6,2,26,3,1,,,,,
,1.73,,,,,,,,,j.PNG,j,6090539b97cb68d8aaf813a3,2021-10-19_21h18.08.845,forced_choiceRT,2021.1.2,Win32,60.07088364,,,,,,,,3,Slow,j,1,2.2586,6,3,27,3,1,,,,,
,1.73,,,,,,,,,h.PNG,h,6090539b97cb68d8aaf813a3,2021-10-19_21h18.08.845,forced_choiceRT,2021.1.2,Win32,60.07088364,,,,,,,,3,Slow,h,1,2.1239,7,0,28,2,1,,,,,
,1.31,,,,,,,,,f.PNG,f,6090539b97cb68d8aaf813a3,2021-10-19_21h18.08.845,forced_choiceRT,2021.1.2,Win32,60.07088364,,,,,,,,3,Fast,f,1,1.8436,7,1,29,0,1,,,,,
,0.74,,,,,,,,,f.PNG,f,6090539b97cb68d8aaf813a3,2021-10-19_21h18.08.845,forced_choiceRT,2021.1.2,Win32,60.07088364,,,,,,,,3,Ontime,f,1,1.9625,7,2,30,0,1,,,,,
,0.62,,,,,,,,,j.PNG,j,6090539b97cb68d8aaf813a3,2021-10-19_21h18.08.845,forced_choiceRT,2021.1.2,Win32,60.07088364,,,,,,,,3,Ontime,j,1,1.9525,7,3,31,3,1,,,,,
,0.29,,,,,,,,,h.PNG,h,6090539b97cb68d8aaf813a3,2021-10-19_21h18.08.845,forced_choiceRT,2021.1.2,Win32,60.07088364,,,,,,,,3,Ontime,h,1,1.983,8,0,32,2,1,,,,,
,1.61,,,,,,,,,j.PNG,j,6090539b97cb68d8aaf813a3,2021-10-19_21h18.08.845,forced_choiceRT,2021.1.2,Win32,60.07088364,,,,,,,,3,Slow,j,1,2.3155,8,1,33,3,1,,,,,
,1.78,,,,,,,,,f.PNG,f,6090539b97cb68d8aaf813a3,2021-10-19_21h18.08.845,forced_choiceRT,2021.1.2,Win32,60.07088364,,,,,,,,3,Ontime,h,0,2.0624,8,2,34,0,1,,,,,
,1.57,,,,,,,,,f.PNG,f,6090539b97cb68d8aaf813a3,2021-10-19_21h18.08.845,forced_choiceRT,2021.1.2,Win32,60.07088364,,,,,,,,3,Ontime,f,1,2.0408,8,3,35,0,1,,,,,
,0.47,,,,,,,,,g.PNG,g,6090539b97cb68d8aaf813a3,2021-10-19_21h18.08.845,forced_choiceRT,2021.1.2,Win32,60.07088364,,,,,,,,3,Ontime,g,1,2.0373,9,0,36,1,1,,,,,
,1.82,,,,,,,,,f.PNG,f,6090539b97cb68d8aaf813a3,2021-10-19_21h18.08.845,forced_choiceRT,2021.1.2,Win32,60.07088364,,,,,,,,3,Slow,f,1,2.2679,9,1,37,0,1,,,,,
,1.02,,,,,,,,,g.PNG,g,6090539b97cb68d8aaf813a3,2021-10-19_21h18.08.845,forced_choiceRT,2021.1.2,Win32,60.07088364,,,,,,,,3,Fast,g,1,1.8991,9,2,38,1,1,,,,,
,1.01,,,,,,,,,h.PNG,h,6090539b97cb68d8aaf813a3,2021-10-19_21h18.08.845,forced_choiceRT,2021.1.2,Win32,60.07088364,,,,,,,,3,Fast,h,1,1.8769,9,3,39,2,1,,,,,
,,,,,,,,,,,,6090539b97cb68d8aaf813a3,2021-10-19_21h18.08.845,forced_choiceRT,2021.1.2,Win32,60.07088364,,,,,,,,,,,,,,,,,,2,0,2,0,1
,0.69,,,,,,,,,f.PNG,f,6090539b97cb68d8aaf813a3,2021-10-19_21h18.08.845,forced_choiceRT,2021.1.2,Win32,60.07088364,,,,,,,,4,Fast,f,1,1.2749,0,0,0,0,1,,,,,
,0.96,,,,,,,,,h.PNG,h,6090539b97cb68d8aaf813a3,2021-10-19_21h18.08.845,forced_choiceRT,2021.1.2,Win32,60.07088364,,,,,,,,4,Ontime,h,1,1.9285,0,1,1,2,1,,,,,
,0.93,,,,,,,,,f.PNG,f,6090539b97cb68d8aaf813a3,2021-10-19_21h18.08.845,forced_choiceRT,2021.1.2,Win32,60.07088364,,,,,,,,4,Ontime,f,1,2.0531,0,2,2,0,1,,,,,
,1,,,,,,,,,g.PNG,g,6090539b97cb68d8aaf813a3,2021-10-19_21h18.08.845,forced_choiceRT,2021.1.2,Win32,60.07088364,,,,,,,,4,Ontime,h,0,2.007,0,3,3,1,1,,,,,
,0.13,,,,,,,,,h.PNG,h,6090539b97cb68d8aaf813a3,2021-10-19_21h18.08.845,forced_choiceRT,2021.1.2,Win32,60.07088364,,,,,,,,4,Ontime,h,1,1.9879,1,0,4,2,1,,,,,
,0.16,,,,,,,,,j.PNG,j,6090539b97cb68d8aaf813a3,2021-10-19_21h18.08.845,forced_choiceRT,2021.1.2,Win32,60.07088364,,,,,,,,4,Ontime,j,1,2.0721,1,1,5,3,1,,,,,
,1.4,,,,,,,,,f.PNG,f,6090539b97cb68d8aaf813a3,2021-10-19_21h18.08.845,forced_choiceRT,2021.1.2,Win32,60.07088364,,,,,,,,4,Ontime,f,1,1.9749,1,2,6,0,1,,,,,
,0.17,,,,,,,,,g.PNG,g,6090539b97cb68d8aaf813a3,2021-10-19_21h18.08.845,forced_choiceRT,2021.1.2,Win32,60.07088364,,,,,,,,4,Fast,g,1,1.859,1,3,7,1,1,,,,,
,1.66,,,,,,,,,h.PNG,h,6090539b97cb68d8aaf813a3,2021-10-19_21h18.08.845,forced_choiceRT,2021.1.2,Win32,60.07088364,,,,,,,,4,Ontime,f,0,2.0815,2,0,8,2,1,,,,,
,0.5,,,,,,,,,g.PNG,g,6090539b97cb68d8aaf813a3,2021-10-19_21h18.08.845,forced_choiceRT,2021.1.2,Win32,60.07088364,,,,,,,,4,Ontime,g,1,2.0108,2,1,9,1,1,,,,,
,1.11,,,,,,,,,j.PNG,j,6090539b97cb68d8aaf813a3,2021-10-19_21h18.08.845,forced_choiceRT,2021.1.2,Win32,60.07088364,,,,,,,,4,Ontime,j,1,2.0315,2,2,10,3,1,,,,,
,0.73,,,,,,,,,j.PNG,j,6090539b97cb68d8aaf813a3,2021-10-19_21h18.08.845,forced_choiceRT,2021.1.2,Win32,60.07088364,,,,,,,,4,Ontime,j,1,1.9711,2,3,11,3,1,,,,,
,0.31,,,,,,,,,g.PNG,g,6090539b97cb68d8aaf813a3,2021-10-19_21h18.08.845,forced_choiceRT,2021.1.2,Win32,60.07088364,,,,,,,,4,Ontime,g,1,1.9609,3,0,12,1,1,,,,,
,0.91,,,,,,,,,g.PNG,g,6090539b97cb68d8aaf813a3,2021-10-19_21h18.08.845,forced_choiceRT,2021.1.2,Win32,60.07088364,,,,,,,,4,Ontime,g,1,1.9815,3,1,13,1,1,,,,,
,1.47,,,,,,,,,f.PNG,f,6090539b97cb68d8aaf813a3,2021-10-19_21h18.08.845,forced_choiceRT,2021.1.2,Win32,60.07088364,,,,,,,,4,Ontime,f,1,2.056,3,2,14,0,1,,,,,
,1.49,,,,,,,,,j.PNG,j,6090539b97cb68d8aaf813a3,2021-10-19_21h18.08.845,forced_choiceRT,2021.1.2,Win32,60.07088364,,,,,,,,4,Slow,j,1,2.3172,3,3,15,3,1,,,,,
,0.32,,,,,,,,,g.PNG,g,6090539b97cb68d8aaf813a3,2021-10-19_21h18.08.845,forced_choiceRT,2021.1.2,Win32,60.07088364,,,,,,,,4,Ontime,g,1,1.9624,4,0,16,1,1,,,,,
,1.6,,,,,,,,,g.PNG,g,6090539b97cb68d8aaf813a3,2021-10-19_21h18.08.845,forced_choiceRT,2021.1.2,Win32,60.07088364,,,,,,,,4,Ontime,f,0,1.9993,4,1,17,1,1,,,,,
,0.87,,,,,,,,,j.PNG,j,6090539b97cb68d8aaf813a3,2021-10-19_21h18.08.845,forced_choiceRT,2021.1.2,Win32,60.07088364,,,,,,,,4,Ontime,j,1,1.9247,4,2,18,3,1,,,,,
,1.29,,,,,,,,,j.PNG,j,6090539b97cb68d8aaf813a3,2021-10-19_21h18.08.845,forced_choiceRT,2021.1.2,Win32,60.07088364,,,,,,,,4,Fast,j,1,1.7875,4,3,19,3,1,,,,,
,0.87,,,,,,,,,h.PNG,h,6090539b97cb68d8aaf813a3,2021-10-19_21h18.08.845,forced_choiceRT,2021.1.2,Win32,60.07088364,,,,,,,,4,Slow,j,0,2.1592,5,0,20,2,1,,,,,
,1.13,,,,,,,,,g.PNG,g,6090539b97cb68d8aaf813a3,2021-10-19_21h18.08.845,forced_choiceRT,2021.1.2,Win32,60.07088364,,,,,,,,4,Fast,j,0,1.8663,5,1,21,1,1,,,,,
,0.44,,,,,,,,,f.PNG,f,6090539b97cb68d8aaf813a3,2021-10-19_21h18.08.845,forced_choiceRT,2021.1.2,Win32,60.07088364,,,,,,,,4,Ontime,f,1,1.9796,5,2,22,0,1,,,,,
,0.17,,,,,,,,,g.PNG,g,6090539b97cb68d8aaf813a3,2021-10-19_21h18.08.845,forced_choiceRT,2021.1.2,Win32,60.07088364,,,,,,,,4,Ontime,g,1,1.988,5,3,23,1,1,,,,,
,1.41,,,,,,,,,h.PNG,h,6090539b97cb68d8aaf813a3,2021-10-19_21h18.08.845,forced_choiceRT,2021.1.2,Win32,60.07088364,,,,,,,,4,Slow,h,1,2.1403,6,0,24,2,1,,,,,
,0.93,,,,,,,,,h.PNG,h,6090539b97cb68d8aaf813a3,2021-10-19_21h18.08.845,forced_choiceRT,2021.1.2,Win32,60.07088364,,,,,,,,4,Fast,h,1,1.8534,6,1,25,2,1,,,,,
,1.22,,,,,,,,,j.PNG,j,6090539b97cb68d8aaf813a3,2021-10-19_21h18.08.845,forced_choiceRT,2021.1.2,Win32,60.07088364,,,,,,,,4,Fast,j,1,1.8448,6,2,26,3,1,,,,,
,1.1,,,,,,,,,h.PNG,h,6090539b97cb68d8aaf813a3,2021-10-19_21h18.08.845,forced_choiceRT,2021.1.2,Win32,60.07088364,,,,,,,,4,Ontime,h,1,2.0427,6,3,27,2,1,,,,,
,0.93,,,,,,,,,f.PNG,f,6090539b97cb68d8aaf813a3,2021-10-19_21h18.08.845,forced_choiceRT,2021.1.2,Win32,60.07088364,,,,,,,,4,Ontime,f,1,2.065,7,0,28,0,1,,,,,
,0.34,,,,,,,,,f.PNG,f,6090539b97cb68d8aaf813a3,2021-10-19_21h18.08.845,forced_choiceRT,2021.1.2,Win32,60.07088364,,,,,,,,4,Ontime,f,1,2.0942,7,1,29,0,1,,,,,
,1.83,,,,,,,,,j.PNG,j,6090539b97cb68d8aaf813a3,2021-10-19_21h18.08.845,forced_choiceRT,2021.1.2,Win32,60.07088364,,,,,,,,4,Slow,h,0,2.1741,7,2,30,3,1,,,,,
,0.48,,,,,,,,,f.PNG,f,6090539b97cb68d8aaf813a3,2021-10-19_21h18.08.845,forced_choiceRT,2021.1.2,Win32,60.07088364,,,,,,,,4,Ontime,f,1,2.012,7,3,31,0,1,,,,,
,0.83,,,,,,,,,j.PNG,j,6090539b97cb68d8aaf813a3,2021-10-19_21h18.08.845,forced_choiceRT,2021.1.2,Win32,60.07088364,,,,,,,,4,Ontime,j,1,2.0158,8,0,32,3,1,,,,,
,1.65,,,,,,,,,j.PNG,j,6090539b97cb68d8aaf813a3,2021-10-19_21h18.08.845,forced_choiceRT,2021.1.2,Win32,60.07088364,,,,,,,,4,Slow,j,1,2.1089,8,1,33,3,1,,,,,
,0.71,,,,,,,,,f.PNG,f,6090539b97cb68d8aaf813a3,2021-10-19_21h18.08.845,forced_choiceRT,2021.1.2,Win32,60.07088364,,,,,,,,4,Ontime,f,1,1.9734,8,2,34,0,1,,,,,
,1.2,,,,,,,,,h.PNG,h,6090539b97cb68d8aaf813a3,2021-10-19_21h18.08.845,forced_choiceRT,2021.1.2,Win32,60.07088364,,,,,,,,4,Fast,h,1,1.8644,8,3,35,2,1,,,,,
,0.8,,,,,,,,,h.PNG,h,6090539b97cb68d8aaf813a3,2021-10-19_21h18.08.845,forced_choiceRT,2021.1.2,Win32,60.07088364,,,,,,,,4,Fast,h,1,1.8707,9,0,36,2,1,,,,,
,1.53,,,,,,,,,f.PNG,f,6090539b97cb68d8aaf813a3,2021-10-19_21h18.08.845,forced_choiceRT,2021.1.2,Win32,60.07088364,,,,,,,,4,Ontime,f,1,2.0256,9,1,37,0,1,,,,,
,1.96,,,,,,,,,g.PNG,g,6090539b97cb68d8aaf813a3,2021-10-19_21h18.08.845,forced_choiceRT,2021.1.2,Win32,60.07088364,,,,,,,,4,Slow,h,0,2.1551,9,2,38,1,1,,,,,
,1.48,,,,,,,,,h.PNG,h,6090539b97cb68d8aaf813a3,2021-10-19_21h18.08.845,forced_choiceRT,2021.1.2,Win32,60.07088364,,,,,,,,4,Ontime,h,1,2.0214,9,3,39,2,1,,,,,
,,,,,,,,,,,,6090539b97cb68d8aaf813a3,2021-10-19_21h18.08.845,forced_choiceRT,2021.1.2,Win32,60.07088364,,,,,,,,,,,,,,,,,,3,0,3,0,1
,1.48,,,,,,,,,f.PNG,f,6090539b97cb68d8aaf813a3,2021-10-19_21h18.08.845,forced_choiceRT,2021.1.2,Win32,60.07088364,,,,,,,,5,Ontime,f,1,2.0673,0,0,0,0,1,,,,,
,1.06,,,,,,,,,f.PNG,f,6090539b97cb68d8aaf813a3,2021-10-19_21h18.08.845,forced_choiceRT,2021.1.2,Win32,60.07088364,,,,,,,,5,Ontime,f,1,1.9511,0,1,1,0,1,,,,,
,0.33,,,,,,,,,g.PNG,g,6090539b97cb68d8aaf813a3,2021-10-19_21h18.08.845,forced_choiceRT,2021.1.2,Win32,60.07088364,,,,,,,,5,Ontime,g,1,2.0051,0,2,2,1,1,,,,,
,0.73,,,,,,,,,j.PNG,j,6090539b97cb68d8aaf813a3,2021-10-19_21h18.08.845,forced_choiceRT,2021.1.2,Win32,60.07088364,,,,,,,,5,Ontime,j,1,2.0411,0,3,3,3,1,,,,,
,0.04,,,,,,,,,h.PNG,h,6090539b97cb68d8aaf813a3,2021-10-19_21h18.08.845,forced_choiceRT,2021.1.2,Win32,60.07088364,,,,,,,,5,Ontime,h,1,2.0934,1,0,4,2,1,,,,,
,0.17,,,,,,,,,f.PNG,f,6090539b97cb68d8aaf813a3,2021-10-19_21h18.08.845,forced_choiceRT,2021.1.2,Win32,60.07088364,,,,,,,,5,Ontime,f,1,1.97,1,1,5,0,1,,,,,
,0.98,,,,,,,,,h.PNG,h,6090539b97cb68d8aaf813a3,2021-10-19_21h18.08.845,forced_choiceRT,2021.1.2,Win32,60.07088364,,,,,,,,5,Ontime,h,1,1.9364,1,2,6,2,1,,,,,
,1.45,,,,,,,,,j.PNG,j,6090539b97cb68d8aaf813a3,2021-10-19_21h18.08.845,forced_choiceRT,2021.1.2,Win32,60.07088364,,,,,,,,5,Ontime,j,1,2.0341,1,3,7,3,1,,,,,
,0.41,,,,,,,,,j.PNG,j,6090539b97cb68d8aaf813a3,2021-10-19_21h18.08.845,forced_choiceRT,2021.1.2,Win32,60.07088364,,,,,,,,5,Ontime,j,1,1.9207,2,0,8,3,1,,,,,
,0.15,,,,,,,,,j.PNG,j,6090539b97cb68d8aaf813a3,2021-10-19_21h18.08.845,forced_choiceRT,2021.1.2,Win32,60.07088364,,,,,,,,5,Ontime,j,1,1.9539,2,1,9,3,1,,,,,
,0.38,,,,,,,,,g.PNG,g,6090539b97cb68d8aaf813a3,2021-10-19_21h18.08.845,forced_choiceRT,2021.1.2,Win32,60.07088364,,,,,,,,5,Ontime,g,1,2.0589,2,2,10,1,1,,,,,
,0.27,,,,,,,,,g.PNG,g,6090539b97cb68d8aaf813a3,2021-10-19_21h18.08.845,forced_choiceRT,2021.1.2,Win32,60.07088364,,,,,,,,5,Ontime,g,1,1.952,2,3,11,1,1,,,,,
,0.25,,,,,,,,,g.PNG,g,6090539b97cb68d8aaf813a3,2021-10-19_21h18.08.845,forced_choiceRT,2021.1.2,Win32,60.07088364,,,,,,,,5,Ontime,g,1,1.9546,3,0,12,1,1,,,,,
,0.07,,,,,,,,,f.PNG,f,6090539b97cb68d8aaf813a3,2021-10-19_21h18.08.845,forced_choiceRT,2021.1.2,Win32,60.07088364,,,,,,,,5,Ontime,f,1,2.0767,3,1,13,0,1,,,,,
,1.83,,,,,,,,,h.PNG,h,6090539b97cb68d8aaf813a3,2021-10-19_21h18.08.845,forced_choiceRT,2021.1.2,Win32,60.07088364,,,,,,,,5,Slow,g,0,2.2218,3,2,14,2,1,,,,,
,0.77,,,,,,,,,f.PNG,f,6090539b97cb68d8aaf813a3,2021-10-19_21h18.08.845,forced_choiceRT,2021.1.2,Win32,60.07088364,,,,,,,,5,Ontime,f,1,1.938,3,3,15,0,1,,,,,
,1.72,,,,,,,,,j.PNG,j,6090539b97cb68d8aaf813a3,2021-10-19_21h18.08.845,forced_choiceRT,2021.1.2,Win32,60.07088364,,,,,,,,5,Ontime,f,0,2.0655,4,0,16,3,1,,,,,
,0.24,,,,,,,,,g.PNG,g,6090539b97cb68d8aaf813a3,2021-10-19_21h18.08.845,forced_choiceRT,2021.1.2,Win32,60.07088364,,,,,,,,5,Fast,g,1,1.5313,4,1,17,1,1,,,,,
,0.13,,,,,,,,,f.PNG,f,6090539b97cb68d8aaf813a3,2021-10-19_21h18.08.845,forced_choiceRT,2021.1.2,Win32,60.07088364,,,,,,,,5,Ontime,f,1,2.0191,4,2,18,0,1,,,,,
,1.65,,,,,,,,,g.PNG,g,6090539b97cb68d8aaf813a3,2021-10-19_21h18.08.845,forced_choiceRT,2021.1.2,Win32,60.07088364,,,,,,,,5,Slow,g,1,2.156,4,3,19,1,1,,,,,
,0.83,,,,,,,,,j.PNG,j,6090539b97cb68d8aaf813a3,2021-10-19_21h18.08.845,forced_choiceRT,2021.1.2,Win32,60.07088364,,,,,,,,5,Fast,j,1,1.8949,5,0,20,3,1,,,,,
,1.81,,,,,,,,,f.PNG,f,6090539b97cb68d8aaf813a3,2021-10-19_21h18.08.845,forced_choiceRT,2021.1.2,Win32,60.07088364,,,,,,,,5,Slow,h,0,2.1556,5,1,21,0,1,,,,,
,1.09,,,,,,,,,g.PNG,g,6090539b97cb68d8aaf813a3,2021-10-19_21h18.08.845,forced_choiceRT,2021.1.2,Win32,60.07088364,,,,,,,,5,Ontime,g,1,2.0048,5,2,22,1,1,,,,,
,0.88,,,,,,,,,g.PNG,g,6090539b97cb68d8aaf813a3,2021-10-19_21h18.08.845,forced_choiceRT,2021.1.2,Win32,60.07088364,,,,,,,,5,Slow,g,1,2.3809,5,3,23,1,1,,,,,
,1.99,,,,,,,,,j.PNG,j,6090539b97cb68d8aaf813a3,2021-10-19_21h18.08.845,forced_choiceRT,2021.1.2,Win32,60.07088364,,,,,,,,5,Slow,g,0,2.1742,6,0,24,3,1,,,,,
,0.38,,,,,,,,,j.PNG,j,6090539b97cb68d8aaf813a3,2021-10-19_21h18.08.845,forced_choiceRT,2021.1.2,Win32,60.07088364,,,,,,,,5,Ontime,j,1,2.0379,6,1,25,3,1,,,,,
,1.01,,,,,,,,,f.PNG,f,6090539b97cb68d8aaf813a3,2021-10-19_21h18.08.845,forced_choiceRT,2021.1.2,Win32,60.07088364,,,,,,,,5,Ontime,f,1,1.9317,6,2,26,0,1,,,,,
,1.58,,,,,,,,,j.PNG,j,6090539b97cb68d8aaf813a3,2021-10-19_21h18.08.845,forced_choiceRT,2021.1.2,Win32,60.07088364,,,,,,,,5,Fast,g,0,1.8872,6,3,27,3,1,,,,,
,1.54,,,,,,,,,h.PNG,h,6090539b97cb68d8aaf813a3,2021-10-19_21h18.08.845,forced_choiceRT,2021.1.2,Win32,60.07088364,,,,,,,,5,Ontime,h,1,2.0244,7,0,28,2,1,,,,,
,1.42,,,,,,,,,f.PNG,f,6090539b97cb68d8aaf813a3,2021-10-19_21h18.08.845,forced_choiceRT,2021.1.2,Win32,60.07088364,,,,,,,,5,Fast,f,1,1.8877,7,1,29,0,1,,,,,
,0.96,,,,,,,,,j.PNG,j,6090539b97cb68d8aaf813a3,2021-10-19_21h18.08.845,forced_choiceRT,2021.1.2,Win32,60.07088364,,,,,,,,5,Ontime,j,1,1.9196,7,2,30,3,1,,,,,
,1.49,,,,,,,,,h.PNG,h,6090539b97cb68d8aaf813a3,2021-10-19_21h18.08.845,forced_choiceRT,2021.1.2,Win32,60.07088364,,,,,,,,5,Ontime,j,0,2.0427,7,3,31,2,1,,,,,
,1.64,,,,,,,,,h.PNG,h,6090539b97cb68d8aaf813a3,2021-10-19_21h18.08.845,forced_choiceRT,2021.1.2,Win32,60.07088364,,,,,,,,5,Ontime,h,1,1.9598,8,0,32,2,1,,,,,
,0.36,,,,,,,,,h.PNG,h,6090539b97cb68d8aaf813a3,2021-10-19_21h18.08.845,forced_choiceRT,2021.1.2,Win32,60.07088364,,,,,,,,5,Ontime,h,1,2.0484,8,1,33,2,1,,,,,
,0.23,,,,,,,,,h.PNG,h,6090539b97cb68d8aaf813a3,2021-10-19_21h18.08.845,forced_choiceRT,2021.1.2,Win32,60.07088364,,,,,,,,5,Ontime,h,1,1.9611,8,2,34,2,1,,,,,
,1.95,,,,,,,,,f.PNG,f,6090539b97cb68d8aaf813a3,2021-10-19_21h18.08.845,forced_choiceRT,2021.1.2,Win32,60.07088364,,,,,,,,5,Ontime,h,0,2.0879,8,3,35,0,1,,,,,
,0.33,,,,,,,,,h.PNG,h,6090539b97cb68d8aaf813a3,2021-10-19_21h18.08.845,forced_choiceRT,2021.1.2,Win32,60.07088364,,,,,,,,5,Slow,h,1,2.1035,9,0,36,2,1,,,,,
,0.09,,,,,,,,,g.PNG,g,6090539b97cb68d8aaf813a3,2021-10-19_21h18.08.845,forced_choiceRT,2021.1.2,Win32,60.07088364,,,,,,,,5,Fast,g,1,1.7712,9,1,37,1,1,,,,,
,0.35,,,,,,,,,g.PNG,g,6090539b97cb68d8aaf813a3,2021-10-19_21h18.08.845,forced_choiceRT,2021.1.2,Win32,60.07088364,,,,,,,,5,Ontime,g,1,1.9951,9,2,38,1,1,,,,,
,1.64,,,,,,,,,h.PNG,h,6090539b97cb68d8aaf813a3,2021-10-19_21h18.08.845,forced_choiceRT,2021.1.2,Win32,60.07088364,,,,,,,,5,Ontime,g,0,2.0114,9,3,39,2,1,,,,,
,,,,,,,,,,,,6090539b97cb68d8aaf813a3,2021-10-19_21h18.08.845,forced_choiceRT,2021.1.2,Win32,60.07088364,,,,,,,,,,,,,,,,,,4,0,4,0,1
,0.11,,,,,,,,,g.PNG,g,6090539b97cb68d8aaf813a3,2021-10-19_21h18.08.845,forced_choiceRT,2021.1.2,Win32,60.07088364,,,,,,,,6,Ontime,g,1,2.0125,0,0,0,1,1,,,,,
,1.38,,,,,,,,,h.PNG,h,6090539b97cb68d8aaf813a3,2021-10-19_21h18.08.845,forced_choiceRT,2021.1.2,Win32,60.07088364,,,,,,,,6,Ontime,h,1,2.054,0,1,1,2,1,,,,,
,0.43,,,,,,,,,j.PNG,j,6090539b97cb68d8aaf813a3,2021-10-19_21h18.08.845,forced_choiceRT,2021.1.2,Win32,60.07088364,,,,,,,,6,Ontime,j,1,2.0039,0,2,2,3,1,,,,,
,0.2,,,,,,,,,g.PNG,g,6090539b97cb68d8aaf813a3,2021-10-19_21h18.08.845,forced_choiceRT,2021.1.2,Win32,60.07088364,,,,,,,,6,Ontime,h,0,2.0197,0,3,3,1,1,,,,,
,0.89,,,,,,,,,j.PNG,j,6090539b97cb68d8aaf813a3,2021-10-19_21h18.08.845,forced_choiceRT,2021.1.2,Win32,60.07088364,,,,,,,,6,Ontime,j,1,2.0211,1,0,4,3,1,,,,,
,0.51,,,,,,,,,f.PNG,f,6090539b97cb68d8aaf813a3,2021-10-19_21h18.08.845,forced_choiceRT,2021.1.2,Win32,60.07088364,,,,,,,,6,Slow,f,1,2.1325,1,1,5,0,1,,,,,
,1.15,,,,,,,,,h.PNG,h,6090539b97cb68d8aaf813a3,2021-10-19_21h18.08.845,forced_choiceRT,2021.1.2,Win32,60.07088364,,,,,,,,6,Ontime,h,1,2.0491,1,2,6,2,1,,,,,
,1.97,,,,,,,,,g.PNG,g,6090539b97cb68d8aaf813a3,2021-10-19_21h18.08.845,forced_choiceRT,2021.1.2,Win32,60.07088364,,,,,,,,6,Slow,h,0,2.1378,1,3,7,1,1,,,,,
,0.54,,,,,,,,,f.PNG,f,6090539b97cb68d8aaf813a3,2021-10-19_21h18.08.845,forced_choiceRT,2021.1.2,Win32,60.07088364,,,,,,,,6,Ontime,f,1,1.9057,2,0,8,0,1,,,,,
,1.49,,,,,,,,,f.PNG,f,6090539b97cb68d8aaf813a3,2021-10-19_21h18.08.845,forced_choiceRT,2021.1.2,Win32,60.07088364,,,,,,,,6,Ontime,f,1,2.0091,2,1,9,0,1,,,,,
,0.86,,,,,,,,,j.PNG,j,6090539b97cb68d8aaf813a3,2021-10-19_21h18.08.845,forced_choiceRT,2021.1.2,Win32,60.07088364,,,,,,,,6,Ontime,j,1,1.9163,2,2,10,3,1,,,,,
,1.2,,,,,,,,,h.PNG,h,6090539b97cb68d8aaf813a3,2021-10-19_21h18.08.845,forced_choiceRT,2021.1.2,Win32,60.07088364,,,,,,,,6,Ontime,h,1,1.9789,2,3,11,2,1,,,,,
,1.47,,,,,,,,,g.PNG,g,6090539b97cb68d8aaf813a3,2021-10-19_21h18.08.845,forced_choiceRT,2021.1.2,Win32,60.07088364,,,,,,,,6,Ontime,h,0,1.9704,3,0,12,1,1,,,,,
,1.01,,,,,,,,,j.PNG,j,6090539b97cb68d8aaf813a3,2021-10-19_21h18.08.845,forced_choiceRT,2021.1.2,Win32,60.07088364,,,,,,,,6,Ontime,j,1,2.0321,3,1,13,3,1,,,,,
,1.27,,,,,,,,,g.PNG,g,6090539b97cb68d8aaf813a3,2021-10-19_21h18.08.845,forced_choiceRT,2021.1.2,Win32,60.07088364,,,,,,,,6,Ontime,g,1,1.915,3,2,14,1,1,,,,,
,0,,,,,,,,,f.PNG,f,6090539b97cb68d8aaf813a3,2021-10-19_21h18.08.845,forced_choiceRT,2021.1.2,Win32,60.07088364,,,,,,,,6,Ontime,f,1,1.9727,3,3,15,0,1,,,,,
,0.58,,,,,,,,,j.PNG,j,6090539b97cb68d8aaf813a3,2021-10-19_21h18.08.845,forced_choiceRT,2021.1.2,Win32,60.07088364,,,,,,,,6,Fast,j,1,1.8941,4,0,16,3,1,,,,,
,0.07,,,,,,,,,h.PNG,h,6090539b97cb68d8aaf813a3,2021-10-19_21h18.08.845,forced_choiceRT,2021.1.2,Win32,60.07088364,,,,,,,,6,Fast,h,1,1.8399,4,1,17,2,1,,,,,
,1.64,,,,,,,,,f.PNG,f,6090539b97cb68d8aaf813a3,2021-10-19_21h18.08.845,forced_choiceRT,2021.1.2,Win32,60.07088364,,,,,,,,6,Ontime,g,0,2.0314,4,2,18,0,1,,,,,
,0.34,,,,,,,,,f.PNG,f,6090539b97cb68d8aaf813a3,2021-10-19_21h18.08.845,forced_choiceRT,2021.1.2,Win32,60.07088364,,,,,,,,6,Ontime,f,1,1.9815,4,3,19,0,1,,,,,
,0.84,,,,,,,,,j.PNG,j,6090539b97cb68d8aaf813a3,2021-10-19_21h18.08.845,forced_choiceRT,2021.1.2,Win32,60.07088364,,,,,,,,6,Ontime,j,1,1.9551,5,0,20,3,1,,,,,
,1.57,,,,,,,,,j.PNG,j,6090539b97cb68d8aaf813a3,2021-10-19_21h18.08.845,forced_choiceRT,2021.1.2,Win32,60.07088364,,,,,,,,6,Ontime,h,0,2.0477,5,1,21,3,1,,,,,
,1.82,,,,,,,,,j.PNG,j,6090539b97cb68d8aaf813a3,2021-10-19_21h18.08.845,forced_choiceRT,2021.1.2,Win32,60.07088364,,,,,,,,6,Slow,h,0,2.1284,5,2,22,3,1,,,,,
,1.88,,,,,,,,,f.PNG,f,6090539b97cb68d8aaf813a3,2021-10-19_21h18.08.845,forced_choiceRT,2021.1.2,Win32,60.07088364,,,,,,,,6,Ontime,j,0,2.0876,5,3,23,0,1,,,,,
,1.84,,,,,,,,,g.PNG,g,6090539b97cb68d8aaf813a3,2021-10-19_21h18.08.845,forced_choiceRT,2021.1.2,Win32,60.07088364,,,,,,,,6,Slow,j,0,2.2282,6,0,24,1,1,,,,,
,0.93,,,,,,,,,g.PNG,g,6090539b97cb68d8aaf813a3,2021-10-19_21h18.08.845,forced_choiceRT,2021.1.2,Win32,60.07088364,,,,,,,,6,Fast,g,1,1.5491,6,1,25,1,1,,,,,
,1.68,,,,,,,,,h.PNG,h,6090539b97cb68d8aaf813a3,2021-10-19_21h18.08.845,forced_choiceRT,2021.1.2,Win32,60.07088364,,,,,,,,6,Ontime,g,0,2.0412,6,2,26,2,1,,,,,
,1.23,,,,,,,,,h.PNG,h,6090539b97cb68d8aaf813a3,2021-10-19_21h18.08.845,forced_choiceRT,2021.1.2,Win32,60.07088364,,,,,,,,6,Fast,h,1,1.8975,6,3,27,2,1,,,,,
,1.45,,,,,,,,,h.PNG,h,6090539b97cb68d8aaf813a3,2021-10-19_21h18.08.845,forced_choiceRT,2021.1.2,Win32,60.07088364,,,,,,,,6,Ontime,h,1,2.0424,7,0,28,2,1,,,,,
,1.76,,,,,,,,,f.PNG,f,6090539b97cb68d8aaf813a3,2021-10-19_21h18.08.845,forced_choiceRT,2021.1.2,Win32,60.07088364,,,,,,,,6,Slow,h,0,2.1107,7,1,29,0,1,,,,,
,1.13,,,,,,,,,g.PNG,g,6090539b97cb68d8aaf813a3,2021-10-19_21h18.08.845,forced_choiceRT,2021.1.2,Win32,60.07088364,,,,,,,,6,Ontime,g,1,1.9147,7,2,30,1,1,,,,,
,1.81,,,,,,,,,g.PNG,g,6090539b97cb68d8aaf813a3,2021-10-19_21h18.08.845,forced_choiceRT,2021.1.2,Win32,60.07088364,,,,,,,,6,Slow,g,1,2.1625,7,3,31,1,1,,,,,
,1.84,,,,,,,,,g.PNG,g,6090539b97cb68d8aaf813a3,2021-10-19_21h18.08.845,forced_choiceRT,2021.1.2,Win32,60.07088364,,,,,,,,6,Ontime,f,0,1.9774,8,0,32,1,1,,,,,
,1.99,,,,,,,,,h.PNG,h,6090539b97cb68d8aaf813a3,2021-10-19_21h18.08.845,forced_choiceRT,2021.1.2,Win32,60.07088364,,,,,,,,6,Slow,g,0,2.1435,8,1,33,2,1,,,,,
,0.3,,,,,,,,,j.PNG,j,6090539b97cb68d8aaf813a3,2021-10-19_21h18.08.845,forced_choiceRT,2021.1.2,Win32,60.07088364,,,,,,,,6,Ontime,j,1,2.0148,8,2,34,3,1,,,,,
,1.72,,,,,,,,,j.PNG,j,6090539b97cb68d8aaf813a3,2021-10-19_21h18.08.845,forced_choiceRT,2021.1.2,Win32,60.07088364,,,,,,,,6,Ontime,h,0,2.0535,8,3,35,3,1,,,,,
,1.9,,,,,,,,,h.PNG,h,6090539b97cb68d8aaf813a3,2021-10-19_21h18.08.845,forced_choiceRT,2021.1.2,Win32,60.07088364,,,,,,,,6,Slow,h,1,2.1063,9,0,36,2,1,,,,,
,1.86,,,,,,,,,f.PNG,f,6090539b97cb68d8aaf813a3,2021-10-19_21h18.08.845,forced_choiceRT,2021.1.2,Win32,60.07088364,,,,,,,,6,Ontime,j,0,2.0861,9,1,37,0,1,,,,,
,1.47,,,,,,,,,f.PNG,f,6090539b97cb68d8aaf813a3,2021-10-19_21h18.08.845,forced_choiceRT,2021.1.2,Win32,60.07088364,,,,,,,,6,Ontime,f,1,1.9945,9,2,38,0,1,,,,,
,0.73,,,,,,,,,h.PNG,h,6090539b97cb68d8aaf813a3,2021-10-19_21h18.08.845,forced_choiceRT,2021.1.2,Win32,60.07088364,,,,,,,,6,Fast,h,1,1.8556,9,3,39,2,1,,,,,
,,,,,,,,,,,,6090539b97cb68d8aaf813a3,2021-10-19_21h18.08.845,forced_choiceRT,2021.1.2,Win32,60.07088364,,,,,,,,,,,,,,,,,,5,0,5,0,1
,0.68,,,,,,,,,j.PNG,j,6090539b97cb68d8aaf813a3,2021-10-19_21h18.08.845,forced_choiceRT,2021.1.2,Win32,60.07088364,,,,,,,,7,Fast,j,1,1.6572,0,0,0,3,1,,,,,
,0.37,,,,,,,,,f.PNG,f,6090539b97cb68d8aaf813a3,2021-10-19_21h18.08.845,forced_choiceRT,2021.1.2,Win32,60.07088364,,,,,,,,7,Ontime,f,1,2.085,0,1,1,0,1,,,,,
,0.61,,,,,,,,,g.PNG,g,6090539b97cb68d8aaf813a3,2021-10-19_21h18.08.845,forced_choiceRT,2021.1.2,Win32,60.07088364,,,,,,,,7,Ontime,h,0,1.9146,0,2,2,1,1,,,,,
,1.95,,,,,,,,,g.PNG,g,6090539b97cb68d8aaf813a3,2021-10-19_21h18.08.845,forced_choiceRT,2021.1.2,Win32,60.07088364,,,,,,,,7,Slow,h,0,2.4967,0,3,3,1,1,,,,,
,1.26,,,,,,,,,g.PNG,g,6090539b97cb68d8aaf813a3,2021-10-19_21h18.08.845,forced_choiceRT,2021.1.2,Win32,60.07088364,,,,,,,,7,Ontime,g,1,1.9812,1,0,4,1,1,,,,,
,0.59,,,,,,,,,j.PNG,j,6090539b97cb68d8aaf813a3,2021-10-19_21h18.08.845,forced_choiceRT,2021.1.2,Win32,60.07088364,,,,,,,,7,Ontime,j,1,1.9422,1,1,5,3,1,,,,,
,0.45,,,,,,,,,f.PNG,f,6090539b97cb68d8aaf813a3,2021-10-19_21h18.08.845,forced_choiceRT,2021.1.2,Win32,60.07088364,,,,,,,,7,Ontime,f,1,1.9791,1,2,6,0,1,,,,,
,0.84,,,,,,,,,h.PNG,h,6090539b97cb68d8aaf813a3,2021-10-19_21h18.08.845,forced_choiceRT,2021.1.2,Win32,60.07088364,,,,,,,,7,Ontime,h,1,1.9529,1,3,7,2,1,,,,,
,0.31,,,,,,,,,g.PNG,g,6090539b97cb68d8aaf813a3,2021-10-19_21h18.08.845,forced_choiceRT,2021.1.2,Win32,60.07088364,,,,,,,,7,Ontime,g,1,1.9708,2,0,8,1,1,,,,,
,1.97,,,,,,,,,h.PNG,h,6090539b97cb68d8aaf813a3,2021-10-19_21h18.08.845,forced_choiceRT,2021.1.2,Win32,60.07088364,,,,,,,,7,Slow,f,0,2.2222,2,1,9,2,1,,,,,
,0.5,,,,,,,,,h.PNG,h,6090539b97cb68d8aaf813a3,2021-10-19_21h18.08.845,forced_choiceRT,2021.1.2,Win32,60.07088364,,,,,,,,7,Ontime,h,1,2.0209,2,2,10,2,1,,,,,
,0.25,,,,,,,,,j.PNG,j,6090539b97cb68d8aaf813a3,2021-10-19_21h18.08.845,forced_choiceRT,2021.1.2,Win32,60.07088364,,,,,,,,7,Ontime,j,1,1.9076,2,3,11,3,1,,,,,
,0.76,,,,,,,,,h.PNG,h,6090539b97cb68d8aaf813a3,2021-10-19_21h18.08.845,forced_choiceRT,2021.1.2,Win32,60.07088364,,,,,,,,7,Ontime,h,1,1.9092,3,0,12,2,1,,,,,
,1.86,,,,,,,,,h.PNG,h,6090539b97cb68d8aaf813a3,2021-10-19_21h18.08.845,forced_choiceRT,2021.1.2,Win32,60.07088364,,,,,,,,7,Ontime,g,0,1.922,3,1,13,2,1,,,,,
,0.96,,,,,,,,,g.PNG,g,6090539b97cb68d8aaf813a3,2021-10-19_21h18.08.845,forced_choiceRT,2021.1.2,Win32,60.07088364,,,,,,,,7,Fast,g,1,1.707,3,2,14,1,1,,,,,
,0.76,,,,,,,,,h.PNG,h,6090539b97cb68d8aaf813a3,2021-10-19_21h18.08.845,forced_choiceRT,2021.1.2,Win32,60.07088364,,,,,,,,7,Ontime,h,1,1.9273,3,3,15,2,1,,,,,
,0.24,,,,,,,,,g.PNG,g,6090539b97cb68d8aaf813a3,2021-10-19_21h18.08.845,forced_choiceRT,2021.1.2,Win32,60.07088364,,,,,,,,7,Fast,f,0,1.8401,4,0,16,1,1,,,,,
,1.37,,,,,,,,,f.PNG,f,6090539b97cb68d8aaf813a3,2021-10-19_21h18.08.845,forced_choiceRT,2021.1.2,Win32,60.07088364,,,,,,,,7,Ontime,f,1,2.0428,4,1,17,0,1,,,,,
,0.39,,,,,,,,,h.PNG,h,6090539b97cb68d8aaf813a3,2021-10-19_21h18.08.845,forced_choiceRT,2021.1.2,Win32,60.07088364,,,,,,,,7,Ontime,h,1,1.9902,4,2,18,2,1,,,,,
,1.32,,,,,,,,,h.PNG,h,6090539b97cb68d8aaf813a3,2021-10-19_21h18.08.845,forced_choiceRT,2021.1.2,Win32,60.07088364,,,,,,,,7,Fast,h,1,1.8643,4,3,19,2,1,,,,,
,0.85,,,,,,,,,h.PNG,h,6090539b97cb68d8aaf813a3,2021-10-19_21h18.08.845,forced_choiceRT,2021.1.2,Win32,60.07088364,,,,,,,,7,Ontime,h,1,1.9222,5,0,20,2,1,,,,,
,1.95,,,,,,,,,g.PNG,g,6090539b97cb68d8aaf813a3,2021-10-19_21h18.08.845,forced_choiceRT,2021.1.2,Win32,60.07088364,,,,,,,,7,Slow,h,0,2.1156,5,1,21,1,1,,,,,
,0.81,,,,,,,,,f.PNG,f,6090539b97cb68d8aaf813a3,2021-10-19_21h18.08.845,forced_choiceRT,2021.1.2,Win32,60.07088364,,,,,,,,7,Fast,g,0,1.7994,5,2,22,0,1,,,,,
,0.75,,,,,,,,,j.PNG,j,6090539b97cb68d8aaf813a3,2021-10-19_21h18.08.845,forced_choiceRT,2021.1.2,Win32,60.07088364,,,,,,,,7,Ontime,j,1,2.0016,5,3,23,3,1,,,,,
,1.4,,,,,,,,,h.PNG,h,6090539b97cb68d8aaf813a3,2021-10-19_21h18.08.845,forced_choiceRT,2021.1.2,Win32,60.07088364,,,,,,,,7,Ontime,h,1,1.9869,6,0,24,2,1,,,,,
,1.74,,,,,,,,,f.PNG,f,6090539b97cb68d8aaf813a3,2021-10-19_21h18.08.845,forced_choiceRT,2021.1.2,Win32,60.07088364,,,,,,,,7,Ontime,h,0,2.0606,6,1,25,0,1,,,,,
,1.06,,,,,,,,,f.PNG,f,6090539b97cb68d8aaf813a3,2021-10-19_21h18.08.845,forced_choiceRT,2021.1.2,Win32,60.07088364,,,,,,,,7,Ontime,f,1,1.9274,6,2,26,0,1,,,,,
,0.24,,,,,,,,,f.PNG,f,6090539b97cb68d8aaf813a3,2021-10-19_21h18.08.845,forced_choiceRT,2021.1.2,Win32,60.07088364,,,,,,,,7,Ontime,f,1,2.012,6,3,27,0,1,,,,,
,1.61,,,,,,,,,j.PNG,j,6090539b97cb68d8aaf813a3,2021-10-19_21h18.08.845,forced_choiceRT,2021.1.2,Win32,60.07088364,,,,,,,,7,Slow,j,1,2.2193,7,0,28,3,1,,,,,
,0.24,,,,,,,,,j.PNG,j,6090539b97cb68d8aaf813a3,2021-10-19_21h18.08.845,forced_choiceRT,2021.1.2,Win32,60.07088364,,,,,,,,7,Ontime,j,1,1.9764,7,1,29,3,1,,,,,
,0.14,,,,,,,,,f.PNG,f,6090539b97cb68d8aaf813a3,2021-10-19_21h18.08.845,forced_choiceRT,2021.1.2,Win32,60.07088364,,,,,,,,7,Ontime,f,1,2.0984,7,2,30,0,1,,,,,
,1.07,,,,,,,,,f.PNG,f,6090539b97cb68d8aaf813a3,2021-10-19_21h18.08.845,forced_choiceRT,2021.1.2,Win32,60.07088364,,,,,,,,7,Ontime,f,1,2.0091,7,3,31,0,1,,,,,
,0.31,,,,,,,,,f.PNG,f,6090539b97cb68d8aaf813a3,2021-10-19_21h18.08.845,forced_choiceRT,2021.1.2,Win32,60.07088364,,,,,,,,7,Ontime,f,1,2.048,8,0,32,0,1,,,,,
,1.38,,,,,,,,,g.PNG,g,6090539b97cb68d8aaf813a3,2021-10-19_21h18.08.845,forced_choiceRT,2021.1.2,Win32,60.07088364,,,,,,,,7,Fast,f,0,1.8308,8,1,33,1,1,,,,,
,0.66,,,,,,,,,j.PNG,j,6090539b97cb68d8aaf813a3,2021-10-19_21h18.08.845,forced_choiceRT,2021.1.2,Win32,60.07088364,,,,,,,,7,Slow,j,1,2.1153,8,2,34,3,1,,,,,
,1.79,,,,,,,,,g.PNG,g,6090539b97cb68d8aaf813a3,2021-10-19_21h18.08.845,forced_choiceRT,2021.1.2,Win32,60.07088364,,,,,,,,7,Slow,h,0,2.1116,8,3,35,1,1,,,,,
,0.09,,,,,,,,,j.PNG,j,6090539b97cb68d8aaf813a3,2021-10-19_21h18.08.845,forced_choiceRT,2021.1.2,Win32,60.07088364,,,,,,,,7,Ontime,j,1,1.9404,9,0,36,3,1,,,,,
,0.49,,,,,,,,,j.PNG,j,6090539b97cb68d8aaf813a3,2021-10-19_21h18.08.845,forced_choiceRT,2021.1.2,Win32,60.07088364,,,,,,,,7,Ontime,j,1,1.931,9,1,37,3,1,,,,,
,0.62,,,,,,,,,g.PNG,g,6090539b97cb68d8aaf813a3,2021-10-19_21h18.08.845,forced_choiceRT,2021.1.2,Win32,60.07088364,,,,,,,,7,Ontime,g,1,2.0744,9,2,38,1,1,,,,,
,0.8,,,,,,,,,j.PNG,j,6090539b97cb68d8aaf813a3,2021-10-19_21h18.08.845,forced_choiceRT,2021.1.2,Win32,60.07088364,,,,,,,,7,Ontime,j,1,1.9234,9,3,39,3,1,,,,,
,,,,,,,,,,,,6090539b97cb68d8aaf813a3,2021-10-19_21h18.08.845,forced_choiceRT,2021.1.2,Win32,60.07088364,,,,,,,,,,,,,,,,,,6,0,6,0,1
,0.59,,,,,,,,,h.PNG,h,6090539b97cb68d8aaf813a3,2021-10-19_21h18.08.845,forced_choiceRT,2021.1.2,Win32,60.07088364,,,,,,,,8,Slow,h,1,2.117,0,0,0,2,1,,,,,
,0.37,,,,,,,,,g.PNG,g,6090539b97cb68d8aaf813a3,2021-10-19_21h18.08.845,forced_choiceRT,2021.1.2,Win32,60.07088364,,,,,,,,8,Ontime,g,1,2.0002,0,1,1,1,1,,,,,
,0.34,,,,,,,,,g.PNG,g,6090539b97cb68d8aaf813a3,2021-10-19_21h18.08.845,forced_choiceRT,2021.1.2,Win32,60.07088364,,,,,,,,8,Ontime,g,1,2.0184,0,2,2,1,1,,,,,
,0.57,,,,,,,,,h.PNG,h,6090539b97cb68d8aaf813a3,2021-10-19_21h18.08.845,forced_choiceRT,2021.1.2,Win32,60.07088364,,,,,,,,8,Slow,h,1,2.1523,0,3,3,2,1,,,,,
,1.2,,,,,,,,,f.PNG,f,6090539b97cb68d8aaf813a3,2021-10-19_21h18.08.845,forced_choiceRT,2021.1.2,Win32,60.07088364,,,,,,,,8,Slow,f,1,2.2086,1,0,4,0,1,,,,,
,1.92,,,,,,,,,g.PNG,g,6090539b97cb68d8aaf813a3,2021-10-19_21h18.08.845,forced_choiceRT,2021.1.2,Win32,60.07088364,,,,,,,,8,Ontime,h,0,1.9889,1,1,5,1,1,,,,,
,1.32,,,,,,,,,g.PNG,g,6090539b97cb68d8aaf813a3,2021-10-19_21h18.08.845,forced_choiceRT,2021.1.2,Win32,60.07088364,,,,,,,,8,Fast,f,0,1.7051,1,2,6,1,1,,,,,
,0.03,,,,,,,,,j.PNG,j,6090539b97cb68d8aaf813a3,2021-10-19_21h18.08.845,forced_choiceRT,2021.1.2,Win32,60.07088364,,,,,,,,8,Ontime,j,1,1.9402,1,3,7,3,1,,,,,
,0.32,,,,,,,,,j.PNG,j,6090539b97cb68d8aaf813a3,2021-10-19_21h18.08.845,forced_choiceRT,2021.1.2,Win32,60.07088364,,,,,,,,8,Ontime,j,1,2.0814,2,0,8,3,1,,,,,
,0.1,,,,,,,,,j.PNG,j,6090539b97cb68d8aaf813a3,2021-10-19_21h18.08.845,forced_choiceRT,2021.1.2,Win32,60.07088364,,,,,,,,8,Ontime,j,1,2.0103,2,1,9,3,1,,,,,
,1.34,,,,,,,,,f.PNG,f,6090539b97cb68d8aaf813a3,2021-10-19_21h18.08.845,forced_choiceRT,2021.1.2,Win32,60.07088364,,,,,,,,8,Ontime,f,1,2.0011,2,2,10,0,1,,,,,
,1.67,,,,,,,,,h.PNG,h,6090539b97cb68d8aaf813a3,2021-10-19_21h18.08.845,forced_choiceRT,2021.1.2,Win32,60.07088364,,,,,,,,8,Ontime,h,1,2.019,2,3,11,2,1,,,,,
,1.34,,,,,,,,,j.PNG,j,6090539b97cb68d8aaf813a3,2021-10-19_21h18.08.845,forced_choiceRT,2021.1.2,Win32,60.07088364,,,,,,,,8,Ontime,j,1,2.0142,3,0,12,3,1,,,,,
,0.2,,,,,,,,,g.PNG,g,6090539b97cb68d8aaf813a3,2021-10-19_21h18.08.845,forced_choiceRT,2021.1.2,Win32,60.07088364,,,,,,,,8,Fast,g,1,1.8481,3,1,13,1,1,,,,,
,1.89,,,,,,,,,j.PNG,j,6090539b97cb68d8aaf813a3,2021-10-19_21h18.08.845,forced_choiceRT,2021.1.2,Win32,60.07088364,,,,,,,,8,Ontime,h,0,2.0514,3,2,14,3,1,,,,,
,1.81,,,,,,,,,j.PNG,j,6090539b97cb68d8aaf813a3,2021-10-19_21h18.08.845,forced_choiceRT,2021.1.2,Win32,60.07088364,,,,,,,,8,Ontime,j,1,2.0223,3,3,15,3,1,,,,,
,0.32,,,,,,,,,h.PNG,h,6090539b97cb68d8aaf813a3,2021-10-19_21h18.08.845,forced_choiceRT,2021.1.2,Win32,60.07088364,,,,,,,,8,Ontime,h,1,2.0151,4,0,16,2,1,,,,,
,0.66,,,,,,,,,g.PNG,g,6090539b97cb68d8aaf813a3,2021-10-19_21h18.08.845,forced_choiceRT,2021.1.2,Win32,60.07088364,,,,,,,,8,Ontime,g,1,1.9818,4,1,17,1,1,,,,,
,1.67,,,,,,,,,f.PNG,f,6090539b97cb68d8aaf813a3,2021-10-19_21h18.08.845,forced_choiceRT,2021.1.2,Win32,60.07088364,,,,,,,,8,Slow,h,0,2.1656,4,2,18,0,1,,,,,
,1.34,,,,,,,,,f.PNG,f,6090539b97cb68d8aaf813a3,2021-10-19_21h18.08.845,forced_choiceRT,2021.1.2,Win32,60.07088364,,,,,,,,8,Ontime,f,1,1.9416,4,3,19,0,1,,,,,
,1.41,,,,,,,,,j.PNG,j,6090539b97cb68d8aaf813a3,2021-10-19_21h18.08.845,forced_choiceRT,2021.1.2,Win32,60.07088364,,,,,,,,8,Ontime,j,1,1.976,5,0,20,3,1,,,,,
,0.76,,,,,,,,,j.PNG,j,6090539b97cb68d8aaf813a3,2021-10-19_21h18.08.845,forced_choiceRT,2021.1.2,Win32,60.07088364,,,,,,,,8,Ontime,j,1,1.9681,5,1,21,3,1,,,,,
,0.35,,,,,,,,,h.PNG,h,6090539b97cb68d8aaf813a3,2021-10-19_21h18.08.845,forced_choiceRT,2021.1.2,Win32,60.07088364,,,,,,,,8,Fast,h,1,1.8205,5,2,22,2,1,,,,,
,1.54,,,,,,,,,f.PNG,f,6090539b97cb68d8aaf813a3,2021-10-19_21h18.08.845,forced_choiceRT,2021.1.2,Win32,60.07088364,,,,,,,,8,Ontime,f,1,2.0534,5,3,23,0,1,,,,,
,0.95,,,,,,,,,g.PNG,g,6090539b97cb68d8aaf813a3,2021-10-19_21h18.08.845,forced_choiceRT,2021.1.2,Win32,60.07088364,,,,,,,,8,Fast,g,1,1.6992,6,0,24,1,1,,,,,
,1.84,,,,,,,,,g.PNG,g,6090539b97cb68d8aaf813a3,2021-10-19_21h18.08.845,forced_choiceRT,2021.1.2,Win32,60.07088364,,,,,,,,8,Slow,f,0,2.1341,6,1,25,1,1,,,,,
,1.59,,,,,,,,,f.PNG,f,6090539b97cb68d8aaf813a3,2021-10-19_21h18.08.845,forced_choiceRT,2021.1.2,Win32,60.07088364,,,,,,,,8,Slow,g,0,2.104,6,2,26,0,1,,,,,
,0.17,,,,,,,,,f.PNG,f,6090539b97cb68d8aaf813a3,2021-10-19_21h18.08.845,forced_choiceRT,2021.1.2,Win32,60.07088364,,,,,,,,8,Ontime,f,1,1.9566,6,3,27,0,1,,,,,
,0.09,,,,,,,,,h.PNG,h,6090539b97cb68d8aaf813a3,2021-10-19_21h18.08.845,forced_choiceRT,2021.1.2,Win32,60.07088364,,,,,,,,8,Ontime,h,1,1.9032,7,0,28,2,1,,,,,
,1.69,,,,,,,,,h.PNG,h,6090539b97cb68d8aaf813a3,2021-10-19_21h18.08.845,forced_choiceRT,2021.1.2,Win32,60.07088364,,,,,,,,8,Slow,g,0,4.9133,7,1,29,2,1,,,,,
,1.78,,,,,,,,,f.PNG,f,6090539b97cb68d8aaf813a3,2021-10-19_21h18.08.845,forced_choiceRT,2021.1.2,Win32,60.07088364,,,,,,,,8,Slow,h,0,2.1009,7,2,30,0,1,,,,,
,0.9,,,,,,,,,f.PNG,f,6090539b97cb68d8aaf813a3,2021-10-19_21h18.08.845,forced_choiceRT,2021.1.2,Win32,60.07088364,,,,,,,,8,Ontime,f,1,2.0432,7,3,31,0,1,,,,,
,1.35,,,,,,,,,h.PNG,h,6090539b97cb68d8aaf813a3,2021-10-19_21h18.08.845,forced_choiceRT,2021.1.2,Win32,60.07088364,,,,,,,,8,Ontime,h,1,1.955,8,0,32,2,1,,,,,
,0.4,,,,,,,,,g.PNG,g,6090539b97cb68d8aaf813a3,2021-10-19_21h18.08.845,forced_choiceRT,2021.1.2,Win32,60.07088364,,,,,,,,8,Ontime,g,1,1.9461,8,1,33,1,1,,,,,
,0.32,,,,,,,,,j.PNG,j,6090539b97cb68d8aaf813a3,2021-10-19_21h18.08.845,forced_choiceRT,2021.1.2,Win32,60.07088364,,,,,,,,8,Ontime,j,1,1.9769,8,2,34,3,1,,,,,
,0.83,,,,,,,,,g.PNG,g,6090539b97cb68d8aaf813a3,2021-10-19_21h18.08.845,forced_choiceRT,2021.1.2,Win32,60.07088364,,,,,,,,8,Ontime,g,1,1.9649,8,3,35,1,1,,,,,
,0.73,,,,,,,,,h.PNG,h,6090539b97cb68d8aaf813a3,2021-10-19_21h18.08.845,forced_choiceRT,2021.1.2,Win32,60.07088364,,,,,,,,8,Fast,h,1,1.7081,9,0,36,2,1,,,,,
,0.5,,,,,,,,,h.PNG,h,6090539b97cb68d8aaf813a3,2021-10-19_21h18.08.845,forced_choiceRT,2021.1.2,Win32,60.07088364,,,,,,,,8,Ontime,h,1,1.9313,9,1,37,2,1,,,,,
,1.97,,,,,,,,,f.PNG,f,6090539b97cb68d8aaf813a3,2021-10-19_21h18.08.845,forced_choiceRT,2021.1.2,Win32,60.07088364,,,,,,,,8,Slow,h,0,2.2098,9,2,38,0,1,,,,,
,1.68,,,,,,,,,j.PNG,j,6090539b97cb68d8aaf813a3,2021-10-19_21h18.08.845,forced_choiceRT,2021.1.2,Win32,60.07088364,,,,,,,,8,Slow,j,1,2.1104,9,3,39,3,1,,,,,
,,,,,,,,,,,,6090539b97cb68d8aaf813a3,2021-10-19_21h18.08.845,forced_choiceRT,2021.1.2,Win32,60.07088364,,,,,,,,,,,,,,,,,,7,0,7,0,1
,0.66,,,,,,,,,j.PNG,j,6090539b97cb68d8aaf813a3,2021-10-19_21h18.08.845,forced_choiceRT,2021.1.2,Win32,60.07088364,,,,,,,,9,Ontime,j,1,2.0327,0,0,0,3,1,,,,,
,1.55,,,,,,,,,f.PNG,f,6090539b97cb68d8aaf813a3,2021-10-19_21h18.08.845,forced_choiceRT,2021.1.2,Win32,60.07088364,,,,,,,,9,Slow,g,0,2.1141,0,1,1,0,1,,,,,
,0.89,,,,,,,,,g.PNG,g,6090539b97cb68d8aaf813a3,2021-10-19_21h18.08.845,forced_choiceRT,2021.1.2,Win32,60.07088364,,,,,,,,9,Ontime,g,1,2.0879,0,2,2,1,1,,,,,
,0.62,,,,,,,,,f.PNG,f,6090539b97cb68d8aaf813a3,2021-10-19_21h18.08.845,forced_choiceRT,2021.1.2,Win32,60.07088364,,,,,,,,9,Ontime,f,1,2.0814,0,3,3,0,1,,,,,
,1.52,,,,,,,,,g.PNG,g,6090539b97cb68d8aaf813a3,2021-10-19_21h18.08.845,forced_choiceRT,2021.1.2,Win32,60.07088364,,,,,,,,9,Ontime,g,1,1.9711,1,0,4,1,1,,,,,
,1.28,,,,,,,,,h.PNG,h,6090539b97cb68d8aaf813a3,2021-10-19_21h18.08.845,forced_choiceRT,2021.1.2,Win32,60.07088364,,,,,,,,9,Fast,h,1,1.8698,1,1,5,2,1,,,,,
,0.26,,,,,,,,,j.PNG,j,6090539b97cb68d8aaf813a3,2021-10-19_21h18.08.845,forced_choiceRT,2021.1.2,Win32,60.07088364,,,,,,,,9,Ontime,j,1,2.0907,1,2,6,3,1,,,,,
,1.93,,,,,,,,,f.PNG,f,6090539b97cb68d8aaf813a3,2021-10-19_21h18.08.845,forced_choiceRT,2021.1.2,Win32,60.07088364,,,,,,,,9,Slow,g,0,2.1811,1,3,7,0,1,,,,,
,1.19,,,,,,,,,f.PNG,f,6090539b97cb68d8aaf813a3,2021-10-19_21h18.08.845,forced_choiceRT,2021.1.2,Win32,60.07088364,,,,,,,,9,Fast,f,1,1.8394,2,0,8,0,1,,,,,
,1.48,,,,,,,,,g.PNG,g,6090539b97cb68d8aaf813a3,2021-10-19_21h18.08.845,forced_choiceRT,2021.1.2,Win32,60.07088364,,,,,,,,9,Ontime,g,1,2.0564,2,1,9,1,1,,,,,
,0.21,,,,,,,,,g.PNG,g,6090539b97cb68d8aaf813a3,2021-10-19_21h18.08.845,forced_choiceRT,2021.1.2,Win32,60.07088364,,,,,,,,9,Ontime,g,1,1.9628,2,2,10,1,1,,,,,
,1.67,,,,,,,,,g.PNG,g,6090539b97cb68d8aaf813a3,2021-10-19_21h18.08.845,forced_choiceRT,2021.1.2,Win32,60.07088364,,,,,,,,9,Slow,g,1,2.1525,2,3,11,1,1,,,,,
,0.71,,,,,,,,,f.PNG,f,6090539b97cb68d8aaf813a3,2021-10-19_21h18.08.845,forced_choiceRT,2021.1.2,Win32,60.07088364,,,,,,,,9,Fast,f,1,1.7912,3,0,12,0,1,,,,,
,0.74,,,,,,,,,j.PNG,j,6090539b97cb68d8aaf813a3,2021-10-19_21h18.08.845,forced_choiceRT,2021.1.2,Win32,60.07088364,,,,,,,,9,Ontime,j,1,1.9771,3,1,13,3,1,,,,,
,0.92,,,,,,,,,h.PNG,h,6090539b97cb68d8aaf813a3,2021-10-19_21h18.08.845,forced_choiceRT,2021.1.2,Win32,60.07088364,,,,,,,,9,Ontime,h,1,2.0558,3,2,14,2,1,,,,,
,1.29,,,,,,,,,j.PNG,j,6090539b97cb68d8aaf813a3,2021-10-19_21h18.08.845,forced_choiceRT,2021.1.2,Win32,60.07088364,,,,,,,,9,Fast,h,0,1.8009,3,3,15,3,1,,,,,
,0.1,,,,,,,,,j.PNG,j,6090539b97cb68d8aaf813a3,2021-10-19_21h18.08.845,forced_choiceRT,2021.1.2,Win32,60.07088364,,,,,,,,9,Ontime,j,1,1.957,4,0,16,3,1,,,,,
,1.31,,,,,,,,,g.PNG,g,6090539b97cb68d8aaf813a3,2021-10-19_21h18.08.845,forced_choiceRT,2021.1.2,Win32,60.07088364,,,,,,,,9,Ontime,g,1,2.045,4,1,17,1,1,,,,,
,0.93,,,,,,,,,j.PNG,j,6090539b97cb68d8aaf813a3,2021-10-19_21h18.08.845,forced_choiceRT,2021.1.2,Win32,60.07088364,,,,,,,,9,Ontime,j,1,1.9191,4,2,18,3,1,,,,,
,1.06,,,,,,,,,j.PNG,j,6090539b97cb68d8aaf813a3,2021-10-19_21h18.08.845,forced_choiceRT,2021.1.2,Win32,60.07088364,,,,,,,,9,Ontime,j,1,1.9943,4,3,19,3,1,,,,,
,1.31,,,,,,,,,j.PNG,j,6090539b97cb68d8aaf813a3,2021-10-19_21h18.08.845,forced_choiceRT,2021.1.2,Win32,60.07088364,,,,,,,,9,Fast,j,1,1.8611,5,0,20,3,1,,,,,
,0.78,,,,,,,,,f.PNG,f,6090539b97cb68d8aaf813a3,2021-10-19_21h18.08.845,forced_choiceRT,2021.1.2,Win32,60.07088364,,,,,,,,9,Fast,f,1,1.7418,5,1,21,0,1,,,,,
,0.22,,,,,,,,,g.PNG,g,6090539b97cb68d8aaf813a3,2021-10-19_21h18.08.845,forced_choiceRT,2021.1.2,Win32,60.07088364,,,,,,,,9,Fast,g,1,1.8596,5,2,22,1,1,,,,,
,1.8,,,,,,,,,f.PNG,f,6090539b97cb68d8aaf813a3,2021-10-19_21h18.08.845,forced_choiceRT,2021.1.2,Win32,60.07088364,,,,,,,,9,Slow,g,0,2.1772,5,3,23,0,1,,,,,
,0.61,,,,,,,,,g.PNG,g,6090539b97cb68d8aaf813a3,2021-10-19_21h18.08.845,forced_choiceRT,2021.1.2,Win32,60.07088364,,,,,,,,9,Fast,g,1,1.8463,6,0,24,1,1,,,,,
,0.03,,,,,,,,,f.PNG,f,6090539b97cb68d8aaf813a3,2021-10-19_21h18.08.845,forced_choiceRT,2021.1.2,Win32,60.07088364,,,,,,,,9,Fast,f,1,1.8877,6,1,25,0,1,,,,,
,1.07,,,,,,,,,h.PNG,h,6090539b97cb68d8aaf813a3,2021-10-19_21h18.08.845,forced_choiceRT,2021.1.2,Win32,60.07088364,,,,,,,,9,Slow,h,1,2.1529,6,2,26,2,1,,,,,
,0.93,,,,,,,,,f.PNG,f,6090539b97cb68d8aaf813a3,2021-10-19_21h18.08.845,forced_choiceRT,2021.1.2,Win32,60.07088364,,,,,,,,9,Fast,f,1,1.8749,6,3,27,0,1,,,,,
,1.21,,,,,,,,,h.PNG,h,6090539b97cb68d8aaf813a3,2021-10-19_21h18.08.845,forced_choiceRT,2021.1.2,Win32,60.07088364,,,,,,,,9,Slow,h,1,2.1539,7,0,28,2,1,,,,,
,1.81,,,,,,,,,h.PNG,h,6090539b97cb68d8aaf813a3,2021-10-19_21h18.08.845,forced_choiceRT,2021.1.2,Win32,60.07088364,,,,,,,,9,Slow,h,1,2.1347,7,1,29,2,1,,,,,
,0.97,,,,,,,,,j.PNG,j,6090539b97cb68d8aaf813a3,2021-10-19_21h18.08.845,forced_choiceRT,2021.1.2,Win32,60.07088364,,,,,,,,9,Ontime,j,1,2.0152,7,2,30,3,1,,,,,
,0.61,,,,,,,,,g.PNG,g,6090539b97cb68d8aaf813a3,2021-10-19_21h18.08.845,forced_choiceRT,2021.1.2,Win32,60.07088364,,,,,,,,9,Fast,h,0,1.7631,7,3,31,1,1,,,,,
,1.6,,,,,,,,,h.PNG,h,6090539b97cb68d8aaf813a3,2021-10-19_21h18.08.845,forced_choiceRT,2021.1.2,Win32,60.07088364,,,,,,,,9,Slow,h,1,2.2217,8,0,32,2,1,,,,,
,1.03,,,,,,,,,h.PNG,h,6090539b97cb68d8aaf813a3,2021-10-19_21h18.08.845,forced_choiceRT,2021.1.2,Win32,60.07088364,,,,,,,,9,Fast,h,1,1.8825,8,1,33,2,1,,,,,
,0.53,,,,,,,,,f.PNG,f,6090539b97cb68d8aaf813a3,2021-10-19_21h18.08.845,forced_choiceRT,2021.1.2,Win32,60.07088364,,,,,,,,9,Ontime,f,1,2.0098,8,2,34,0,1,,,,,
,1.01,,,,,,,,,h.PNG,h,6090539b97cb68d8aaf813a3,2021-10-19_21h18.08.845,forced_choiceRT,2021.1.2,Win32,60.07088364,,,,,,,,9,Ontime,h,1,2.0435,8,3,35,2,1,,,,,
,0.13,,,,,,,,,j.PNG,j,6090539b97cb68d8aaf813a3,2021-10-19_21h18.08.845,forced_choiceRT,2021.1.2,Win32,60.07088364,,,,,,,,9,Ontime,j,1,1.9415,9,0,36,3,1,,,,,
,0.77,,,,,,,,,h.PNG,h,6090539b97cb68d8aaf813a3,2021-10-19_21h18.08.845,forced_choiceRT,2021.1.2,Win32,60.07088364,,,,,,,,9,Fast,h,1,1.8921,9,1,37,2,1,,,,,
,0.4,,,,,,,,,h.PNG,h,6090539b97cb68d8aaf813a3,2021-10-19_21h18.08.845,forced_choiceRT,2021.1.2,Win32,60.07088364,,,,,,,,9,Ontime,h,1,1.9402,9,2,38,2,1,,,,,
,1.22,,,,,,,,,g.PNG,g,6090539b97cb68d8aaf813a3,2021-10-19_21h18.08.845,forced_choiceRT,2021.1.2,Win32,60.07088364,,,,,,,,9,Ontime,g,1,1.958,9,3,39,1,1,,,,,
,,,,,,,,,,,,6090539b97cb68d8aaf813a3,2021-10-19_21h18.08.845,forced_choiceRT,2021.1.2,Win32,60.07088364,,,,,,,,,,,,,,,,,,8,0,8,0,1
,1.86,,,,,,,,,f.PNG,f,6090539b97cb68d8aaf813a3,2021-10-19_21h18.08.845,forced_choiceRT,2021.1.2,Win32,60.07088364,,,,,,,,10,Slow,f,1,2.1137,0,0,0,0,1,,,,,
,1.59,,,,,,,,,h.PNG,h,6090539b97cb68d8aaf813a3,2021-10-19_21h18.08.845,forced_choiceRT,2021.1.2,Win32,60.07088364,,,,,,,,10,Ontime,h,1,2.0766,0,1,1,2,1,,,,,
,0.59,,,,,,,,,j.PNG,j,6090539b97cb68d8aaf813a3,2021-10-19_21h18.08.845,forced_choiceRT,2021.1.2,Win32,60.07088364,,,,,,,,10,Ontime,j,1,1.9492,0,2,2,3,1,,,,,
,0.34,,,,,,,,,f.PNG,f,6090539b97cb68d8aaf813a3,2021-10-19_21h18.08.845,forced_choiceRT,2021.1.2,Win32,60.07088364,,,,,,,,10,Ontime,f,1,1.9617,0,3,3,0,1,,,,,
,0.24,,,,,,,,,f.PNG,f,6090539b97cb68d8aaf813a3,2021-10-19_21h18.08.845,forced_choiceRT,2021.1.2,Win32,60.07088364,,,,,,,,10,Ontime,f,1,1.9153,1,0,4,0,1,,,,,
,1.45,,,,,,,,,g.PNG,g,6090539b97cb68d8aaf813a3,2021-10-19_21h18.08.845,forced_choiceRT,2021.1.2,Win32,60.07088364,,,,,,,,10,Slow,f,0,2.1039,1,1,5,1,1,,,,,
,0.22,,,,,,,,,j.PNG,j,6090539b97cb68d8aaf813a3,2021-10-19_21h18.08.845,forced_choiceRT,2021.1.2,Win32,60.07088364,,,,,,,,10,Ontime,j,1,2.0039,1,2,6,3,1,,,,,
,1.49,,,,,,,,,g.PNG,g,6090539b97cb68d8aaf813a3,2021-10-19_21h18.08.845,forced_choiceRT,2021.1.2,Win32,60.07088364,,,,,,,,10,Ontime,f,0,2.0678,1,3,7,1,1,,,,,
,0.51,,,,,,,,,j.PNG,j,6090539b97cb68d8aaf813a3,2021-10-19_21h18.08.845,forced_choiceRT,2021.1.2,Win32,60.07088364,,,,,,,,10,Ontime,j,1,2.0809,2,0,8,3,1,,,,,
,1.45,,,,,,,,,h.PNG,h,6090539b97cb68d8aaf813a3,2021-10-19_21h18.08.845,forced_choiceRT,2021.1.2,Win32,60.07088364,,,,,,,,10,Slow,g,0,2.1475,2,1,9,2,1,,,,,
,0.17,,,,,,,,,f.PNG,f,6090539b97cb68d8aaf813a3,2021-10-19_21h18.08.845,forced_choiceRT,2021.1.2,Win32,60.07088364,,,,,,,,10,Ontime,f,1,2.008,2,2,10,0,1,,,,,
,0.71,,,,,,,,,j.PNG,j,6090539b97cb68d8aaf813a3,2021-10-19_21h18.08.845,forced_choiceRT,2021.1.2,Win32,60.07088364,,,,,,,,10,Ontime,j,1,1.9819,2,3,11,3,1,,,,,
,1.45,,,,,,,,,f.PNG,f,6090539b97cb68d8aaf813a3,2021-10-19_21h18.08.845,forced_choiceRT,2021.1.2,Win32,60.07088364,,,,,,,,10,Slow,f,1,2.235,3,0,12,0,1,,,,,
,0.53,,,,,,,,,g.PNG,g,6090539b97cb68d8aaf813a3,2021-10-19_21h18.08.845,forced_choiceRT,2021.1.2,Win32,60.07088364,,,,,,,,10,Ontime,g,1,1.9161,3,1,13,1,1,,,,,
,1.72,,,,,,,,,g.PNG,g,6090539b97cb68d8aaf813a3,2021-10-19_21h18.08.845,forced_choiceRT,2021.1.2,Win32,60.07088364,,,,,,,,10,Slow,g,1,2.362,3,2,14,1,1,,,,,
,0.71,,,,,,,,,h.PNG,h,6090539b97cb68d8aaf813a3,2021-10-19_21h18.08.845,forced_choiceRT,2021.1.2,Win32,60.07088364,,,,,,,,10,Fast,h,1,1.8272,3,3,15,2,1,,,,,
,1.79,,,,,,,,,g.PNG,g,6090539b97cb68d8aaf813a3,2021-10-19_21h18.08.845,forced_choiceRT,2021.1.2,Win32,60.07088364,,,,,,,,10,Slow,h,0,2.174,4,0,16,1,1,,,,,
,0.64,,,,,,,,,j.PNG,j,6090539b97cb68d8aaf813a3,2021-10-19_21h18.08.845,forced_choiceRT,2021.1.2,Win32,60.07088364,,,,,,,,10,Ontime,j,1,2.0489,4,1,17,3,1,,,,,
,1.31,,,,,,,,,g.PNG,g,6090539b97cb68d8aaf813a3,2021-10-19_21h18.08.845,forced_choiceRT,2021.1.2,Win32,60.07088364,,,,,,,,10,Ontime,g,1,1.9414,4,2,18,1,1,,,,,
,1.12,,,,,,,,,f.PNG,f,6090539b97cb68d8aaf813a3,2021-10-19_21h18.08.845,forced_choiceRT,2021.1.2,Win32,60.07088364,,,,,,,,10,Ontime,f,1,1.9617,4,3,19,0,1,,,,,
,0.08,,,,,,,,,j.PNG,j,6090539b97cb68d8aaf813a3,2021-10-19_21h18.08.845,forced_choiceRT,2021.1.2,Win32,60.07088364,,,,,,,,10,Fast,j,1,1.8623,5,0,20,3,1,,,,,
,0.21,,,,,,,,,h.PNG,h,6090539b97cb68d8aaf813a3,2021-10-19_21h18.08.845,forced_choiceRT,2021.1.2,Win32,60.07088364,,,,,,,,10,Ontime,h,1,1.9545,5,1,21,2,1,,,,,
,0.68,,,,,,,,,g.PNG,g,6090539b97cb68d8aaf813a3,2021-10-19_21h18.08.845,forced_choiceRT,2021.1.2,Win32,60.07088364,,,,,,,,10,Ontime,g,1,1.959,5,2,22,1,1,,,,,
,0.51,,,,,,,,,f.PNG,f,6090539b97cb68d8aaf813a3,2021-10-19_21h18.08.845,forced_choiceRT,2021.1.2,Win32,60.07088364,,,,,,,,10,Ontime,f,1,2.0438,5,3,23,0,1,,,,,
,1.78,,,,,,,,,g.PNG,g,6090539b97cb68d8aaf813a3,2021-10-19_21h18.08.845,forced_choiceRT,2021.1.2,Win32,60.07088364,,,,,,,,10,Slow,h,0,2.2155,6,0,24,1,1,,,,,
,1.99,,,,,,,,,f.PNG,f,6090539b97cb68d8aaf813a3,2021-10-19_21h18.08.845,forced_choiceRT,2021.1.2,Win32,60.07088364,,,,,,,,10,Ontime,g,0,2.0777,6,1,25,0,1,,,,,
,0.06,,,,,,,,,j.PNG,j,6090539b97cb68d8aaf813a3,2021-10-19_21h18.08.845,forced_choiceRT,2021.1.2,Win32,60.07088364,,,,,,,,10,Slow,g,0,6.5739,6,2,26,3,1,,,,,
,1.16,,,,,,,,,g.PNG,g,6090539b97cb68d8aaf813a3,2021-10-19_21h18.08.845,forced_choiceRT,2021.1.2,Win32,60.07088364,,,,,,,,10,Ontime,g,1,1.9325,6,3,27,1,1,,,,,
,0.13,,,,,,,,,j.PNG,j,6090539b97cb68d8aaf813a3,2021-10-19_21h18.08.845,forced_choiceRT,2021.1.2,Win32,60.07088364,,,,,,,,10,Ontime,j,1,1.9865,7,0,28,3,1,,,,,
,0.46,,,,,,,,,h.PNG,h,6090539b97cb68d8aaf813a3,2021-10-19_21h18.08.845,forced_choiceRT,2021.1.2,Win32,60.07088364,,,,,,,,10,Slow,h,1,2.1087,7,1,29,2,1,,,,,
,0.84,,,,,,,,,f.PNG,f,6090539b97cb68d8aaf813a3,2021-10-19_21h18.08.845,forced_choiceRT,2021.1.2,Win32,60.07088364,,,,,,,,10,Slow,f,1,6.0192,7,2,30,0,1,,,,,
,0.53,,,,,,,,,h.PNG,h,6090539b97cb68d8aaf813a3,2021-10-19_21h18.08.845,forced_choiceRT,2021.1.2,Win32,60.07088364,,,,,,,,10,Ontime,h,1,1.9881,7,3,31,2,1,,,,,
,0.6,,,,,,,,,h.PNG,h,6090539b97cb68d8aaf813a3,2021-10-19_21h18.08.845,forced_choiceRT,2021.1.2,Win32,60.07088364,,,,,,,,10,Ontime,h,1,2.0789,8,0,32,2,1,,,,,
,0.32,,,,,,,,,f.PNG,f,6090539b97cb68d8aaf813a3,2021-10-19_21h18.08.845,forced_choiceRT,2021.1.2,Win32,60.07088364,,,,,,,,10,Ontime,f,1,1.9609,8,1,33,0,1,,,,,
,1.49,,,,,,,,,j.PNG,j,6090539b97cb68d8aaf813a3,2021-10-19_21h18.08.845,forced_choiceRT,2021.1.2,Win32,60.07088364,,,,,,,,10,Fast,f,0,1.8918,8,2,34,3,1,,,,,
,1.85,,,,,,,,,j.PNG,j,6090539b97cb68d8aaf813a3,2021-10-19_21h18.08.845,forced_choiceRT,2021.1.2,Win32,60.07088364,,,,,,,,10,Ontime,j,1,2.0311,8,3,35,3,1,,,,,
,0.5,,,,,,,,,h.PNG,h,6090539b97cb68d8aaf813a3,2021-10-19_21h18.08.845,forced_choiceRT,2021.1.2,Win32,60.07088364,,,,,,,,10,Fast,h,1,1.8922,9,0,36,2,1,,,,,
,0.37,,,,,,,,,h.PNG,h,6090539b97cb68d8aaf813a3,2021-10-19_21h18.08.845,forced_choiceRT,2021.1.2,Win32,60.07088364,,,,,,,,10,Ontime,h,1,1.9708,9,1,37,2,1,,,,,
,1.4,,,,,,,,,h.PNG,h,6090539b97cb68d8aaf813a3,2021-10-19_21h18.08.845,forced_choiceRT,2021.1.2,Win32,60.07088364,,,,,,,,10,Ontime,h,1,2.0301,9,2,38,2,1,,,,,
,1.51,,,,,,,,,g.PNG,g,6090539b97cb68d8aaf813a3,2021-10-19_21h18.08.845,forced_choiceRT,2021.1.2,Win32,60.07088364,,,,,,,,10,Slow,g,1,2.1761,9,3,39,1,1,,,,,
,,,,,,,,,,,,6090539b97cb68d8aaf813a3,2021-10-19_21h18.08.845,forced_choiceRT,2021.1.2,Win32,60.07088364,,,,,,,,,,,,,,,,,,9,0,9,0,1
