IP_Addresss,target_onset,trial_resp_sp.keys,trial_resp_sp.corr,trial_resp_sp.rt,trials_train_loop.thisRepN,trials_train_loop.thisTrialN,trials_train_loop.thisN,trials_train_loop.thisIndex,trials_train_loop.ran,pic,correct_key,participant,date,expName,psychopyVersion,OS,frameRate,trial_resp_timing.keys,trial_resp_timing.rt,trials_train_timing.thisRepN,trials_train_timing.thisTrialN,trials_train_timing.thisN,trials_train_timing.thisIndex,trials_train_timing.ran,block_id,ontime,forcedRT_resp.keys,forcedRT_resp.corr,forcedRT_resp.rt,trials.thisRepN,trials.thisTrialN,trials.thisN,trials.thisIndex,trials.ran,blocks.thisRepN,blocks.thisTrialN,blocks.thisN,blocks.thisIndex,blocks.ran
67.8.138.36,0,g,1,7.1338,0,0,0,1,1,g.PNG,g,609ecea08adc775458870a17,2021-10-19_15h46.01.613,forced_choiceRT,2021.1.2,Linux aarch64,60.0240096,,,,,,,,,,,,,,,,,,,,,,
,0,f,1,2.8483,0,1,1,0,1,f.PNG,f,609ecea08adc775458870a17,2021-10-19_15h46.01.613,forced_choiceRT,2021.1.2,Linux aarch64,60.0240096,,,,,,,,,,,,,,,,,,,,,,
,0,f,1,1.626,0,2,2,0,1,f.PNG,f,609ecea08adc775458870a17,2021-10-19_15h46.01.613,forced_choiceRT,2021.1.2,Linux aarch64,60.0240096,,,,,,,,,,,,,,,,,,,,,,
,0,h,1,1.7231,0,3,3,2,1,h.PNG,h,609ecea08adc775458870a17,2021-10-19_15h46.01.613,forced_choiceRT,2021.1.2,Linux aarch64,60.0240096,,,,,,,,,,,,,,,,,,,,,,
,0,h,1,1.6595,1,0,4,2,1,h.PNG,h,609ecea08adc775458870a17,2021-10-19_15h46.01.613,forced_choiceRT,2021.1.2,Linux aarch64,60.0240096,,,,,,,,,,,,,,,,,,,,,,
,0,f,1,1.7749,1,1,5,0,1,f.PNG,f,609ecea08adc775458870a17,2021-10-19_15h46.01.613,forced_choiceRT,2021.1.2,Linux aarch64,60.0240096,,,,,,,,,,,,,,,,,,,,,,
,0,g,1,1.4748,1,2,6,1,1,g.PNG,g,609ecea08adc775458870a17,2021-10-19_15h46.01.613,forced_choiceRT,2021.1.2,Linux aarch64,60.0240096,,,,,,,,,,,,,,,,,,,,,,
,0,j,1,2.7917,1,3,7,3,1,j.PNG,j,609ecea08adc775458870a17,2021-10-19_15h46.01.613,forced_choiceRT,2021.1.2,Linux aarch64,60.0240096,,,,,,,,,,,,,,,,,,,,,,
,0,g,1,1.6595,2,0,8,1,1,g.PNG,g,609ecea08adc775458870a17,2021-10-19_15h46.01.613,forced_choiceRT,2021.1.2,Linux aarch64,60.0240096,,,,,,,,,,,,,,,,,,,,,,
,0,h,1,1.7271,2,1,9,2,1,h.PNG,h,609ecea08adc775458870a17,2021-10-19_15h46.01.613,forced_choiceRT,2021.1.2,Linux aarch64,60.0240096,,,,,,,,,,,,,,,,,,,,,,
,0,h,1,1.3004,2,2,10,2,1,h.PNG,h,609ecea08adc775458870a17,2021-10-19_15h46.01.613,forced_choiceRT,2021.1.2,Linux aarch64,60.0240096,,,,,,,,,,,,,,,,,,,,,,
,0,f,1,1.5963,2,3,11,0,1,f.PNG,f,609ecea08adc775458870a17,2021-10-19_15h46.01.613,forced_choiceRT,2021.1.2,Linux aarch64,60.0240096,,,,,,,,,,,,,,,,,,,,,,
,0,f,1,1.56,3,0,12,0,1,f.PNG,f,609ecea08adc775458870a17,2021-10-19_15h46.01.613,forced_choiceRT,2021.1.2,Linux aarch64,60.0240096,,,,,,,,,,,,,,,,,,,,,,
,0,h,1,3.3731,3,1,13,2,1,h.PNG,h,609ecea08adc775458870a17,2021-10-19_15h46.01.613,forced_choiceRT,2021.1.2,Linux aarch64,60.0240096,,,,,,,,,,,,,,,,,,,,,,
,0,j,1,2.7406,3,2,14,3,1,j.PNG,j,609ecea08adc775458870a17,2021-10-19_15h46.01.613,forced_choiceRT,2021.1.2,Linux aarch64,60.0240096,,,,,,,,,,,,,,,,,,,,,,
,0,h,1,2.7758,3,3,15,2,1,h.PNG,h,609ecea08adc775458870a17,2021-10-19_15h46.01.613,forced_choiceRT,2021.1.2,Linux aarch64,60.0240096,,,,,,,,,,,,,,,,,,,,,,
,0,g,1,1.3765,4,0,16,1,1,g.PNG,g,609ecea08adc775458870a17,2021-10-19_15h46.01.613,forced_choiceRT,2021.1.2,Linux aarch64,60.0240096,,,,,,,,,,,,,,,,,,,,,,
,0,j,1,1.9451,4,1,17,3,1,j.PNG,j,609ecea08adc775458870a17,2021-10-19_15h46.01.613,forced_choiceRT,2021.1.2,Linux aarch64,60.0240096,,,,,,,,,,,,,,,,,,,,,,
,0,f,1,1.3828,4,2,18,0,1,f.PNG,f,609ecea08adc775458870a17,2021-10-19_15h46.01.613,forced_choiceRT,2021.1.2,Linux aarch64,60.0240096,,,,,,,,,,,,,,,,,,,,,,
,0,h,1,2.1469,4,3,19,2,1,h.PNG,h,609ecea08adc775458870a17,2021-10-19_15h46.01.613,forced_choiceRT,2021.1.2,Linux aarch64,60.0240096,,,,,,,,,,,,,,,,,,,,,,
,0,h,1,1.378,5,0,20,2,1,h.PNG,h,609ecea08adc775458870a17,2021-10-19_15h46.01.613,forced_choiceRT,2021.1.2,Linux aarch64,60.0240096,,,,,,,,,,,,,,,,,,,,,,
,0,f,1,1.7935,5,1,21,0,1,f.PNG,f,609ecea08adc775458870a17,2021-10-19_15h46.01.613,forced_choiceRT,2021.1.2,Linux aarch64,60.0240096,,,,,,,,,,,,,,,,,,,,,,
,0,j,1,3.3455,5,2,22,3,1,j.PNG,j,609ecea08adc775458870a17,2021-10-19_15h46.01.613,forced_choiceRT,2021.1.2,Linux aarch64,60.0240096,,,,,,,,,,,,,,,,,,,,,,
,0,j,1,1.6738,5,3,23,3,1,j.PNG,j,609ecea08adc775458870a17,2021-10-19_15h46.01.613,forced_choiceRT,2021.1.2,Linux aarch64,60.0240096,,,,,,,,,,,,,,,,,,,,,,
,0,j,1,0.8665,6,0,24,3,1,j.PNG,j,609ecea08adc775458870a17,2021-10-19_15h46.01.613,forced_choiceRT,2021.1.2,Linux aarch64,60.0240096,,,,,,,,,,,,,,,,,,,,,,
,0,j,1,0.6827,6,1,25,3,1,j.PNG,j,609ecea08adc775458870a17,2021-10-19_15h46.01.613,forced_choiceRT,2021.1.2,Linux aarch64,60.0240096,,,,,,,,,,,,,,,,,,,,,,
,0,f,1,1.7784,6,2,26,0,1,f.PNG,f,609ecea08adc775458870a17,2021-10-19_15h46.01.613,forced_choiceRT,2021.1.2,Linux aarch64,60.0240096,,,,,,,,,,,,,,,,,,,,,,
,0,g,1,0.9452,6,3,27,1,1,g.PNG,g,609ecea08adc775458870a17,2021-10-19_15h46.01.613,forced_choiceRT,2021.1.2,Linux aarch64,60.0240096,,,,,,,,,,,,,,,,,,,,,,
,0,f,1,1.4232,7,0,28,0,1,f.PNG,f,609ecea08adc775458870a17,2021-10-19_15h46.01.613,forced_choiceRT,2021.1.2,Linux aarch64,60.0240096,,,,,,,,,,,,,,,,,,,,,,
,0,g,1,0.8659,7,1,29,1,1,g.PNG,g,609ecea08adc775458870a17,2021-10-19_15h46.01.613,forced_choiceRT,2021.1.2,Linux aarch64,60.0240096,,,,,,,,,,,,,,,,,,,,,,
,0,h,1,1.1112,7,2,30,2,1,h.PNG,h,609ecea08adc775458870a17,2021-10-19_15h46.01.613,forced_choiceRT,2021.1.2,Linux aarch64,60.0240096,,,,,,,,,,,,,,,,,,,,,,
,0,g,1,1.0114,7,3,31,1,1,g.PNG,g,609ecea08adc775458870a17,2021-10-19_15h46.01.613,forced_choiceRT,2021.1.2,Linux aarch64,60.0240096,,,,,,,,,,,,,,,,,,,,,,
,0,j,1,1.4442,8,0,32,3,1,j.PNG,j,609ecea08adc775458870a17,2021-10-19_15h46.01.613,forced_choiceRT,2021.1.2,Linux aarch64,60.0240096,,,,,,,,,,,,,,,,,,,,,,
,0,f,1,1.9434,8,1,33,0,1,f.PNG,f,609ecea08adc775458870a17,2021-10-19_15h46.01.613,forced_choiceRT,2021.1.2,Linux aarch64,60.0240096,,,,,,,,,,,,,,,,,,,,,,
,0,g,1,0.9129,8,2,34,1,1,g.PNG,g,609ecea08adc775458870a17,2021-10-19_15h46.01.613,forced_choiceRT,2021.1.2,Linux aarch64,60.0240096,,,,,,,,,,,,,,,,,,,,,,
,0,g,1,0.5813,8,3,35,1,1,g.PNG,g,609ecea08adc775458870a17,2021-10-19_15h46.01.613,forced_choiceRT,2021.1.2,Linux aarch64,60.0240096,,,,,,,,,,,,,,,,,,,,,,
,0,j,1,1.6648,9,0,36,3,1,j.PNG,j,609ecea08adc775458870a17,2021-10-19_15h46.01.613,forced_choiceRT,2021.1.2,Linux aarch64,60.0240096,,,,,,,,,,,,,,,,,,,,,,
,0,j,1,0.6159,9,1,37,3,1,j.PNG,j,609ecea08adc775458870a17,2021-10-19_15h46.01.613,forced_choiceRT,2021.1.2,Linux aarch64,60.0240096,,,,,,,,,,,,,,,,,,,,,,
,0,j,1,0.5628,9,2,38,3,1,j.PNG,j,609ecea08adc775458870a17,2021-10-19_15h46.01.613,forced_choiceRT,2021.1.2,Linux aarch64,60.0240096,,,,,,,,,,,,,,,,,,,,,,
,0,g,1,1.4771,9,3,39,1,1,g.PNG,g,609ecea08adc775458870a17,2021-10-19_15h46.01.613,forced_choiceRT,2021.1.2,Linux aarch64,60.0240096,,,,,,,,,,,,,,,,,,,,,,
,0,h,1,1.3834,10,0,40,2,1,h.PNG,h,609ecea08adc775458870a17,2021-10-19_15h46.01.613,forced_choiceRT,2021.1.2,Linux aarch64,60.0240096,,,,,,,,,,,,,,,,,,,,,,
,0,h,1,0.7112,10,1,41,2,1,h.PNG,h,609ecea08adc775458870a17,2021-10-19_15h46.01.613,forced_choiceRT,2021.1.2,Linux aarch64,60.0240096,,,,,,,,,,,,,,,,,,,,,,
,0,j,1,1.1315,10,2,42,3,1,j.PNG,j,609ecea08adc775458870a17,2021-10-19_15h46.01.613,forced_choiceRT,2021.1.2,Linux aarch64,60.0240096,,,,,,,,,,,,,,,,,,,,,,
,0,g,1,2.09,10,3,43,1,1,g.PNG,g,609ecea08adc775458870a17,2021-10-19_15h46.01.613,forced_choiceRT,2021.1.2,Linux aarch64,60.0240096,,,,,,,,,,,,,,,,,,,,,,
,0,h,1,1.8113,11,0,44,2,1,h.PNG,h,609ecea08adc775458870a17,2021-10-19_15h46.01.613,forced_choiceRT,2021.1.2,Linux aarch64,60.0240096,,,,,,,,,,,,,,,,,,,,,,
,0,f,1,1.2801,11,1,45,0,1,f.PNG,f,609ecea08adc775458870a17,2021-10-19_15h46.01.613,forced_choiceRT,2021.1.2,Linux aarch64,60.0240096,,,,,,,,,,,,,,,,,,,,,,
,0,g,1,0.9967,11,2,46,1,1,g.PNG,g,609ecea08adc775458870a17,2021-10-19_15h46.01.613,forced_choiceRT,2021.1.2,Linux aarch64,60.0240096,,,,,,,,,,,,,,,,,,,,,,
,0,h,1,1.0307,11,3,47,2,1,h.PNG,h,609ecea08adc775458870a17,2021-10-19_15h46.01.613,forced_choiceRT,2021.1.2,Linux aarch64,60.0240096,,,,,,,,,,,,,,,,,,,,,,
,0,g,1,1.0811,12,0,48,1,1,g.PNG,g,609ecea08adc775458870a17,2021-10-19_15h46.01.613,forced_choiceRT,2021.1.2,Linux aarch64,60.0240096,,,,,,,,,,,,,,,,,,,,,,
,0,h,1,1.4833,12,1,49,2,1,h.PNG,h,609ecea08adc775458870a17,2021-10-19_15h46.01.613,forced_choiceRT,2021.1.2,Linux aarch64,60.0240096,,,,,,,,,,,,,,,,,,,,,,
,0,f,1,1.512,12,2,50,0,1,f.PNG,f,609ecea08adc775458870a17,2021-10-19_15h46.01.613,forced_choiceRT,2021.1.2,Linux aarch64,60.0240096,,,,,,,,,,,,,,,,,,,,,,
,0,f,1,0.8618,12,3,51,0,1,f.PNG,f,609ecea08adc775458870a17,2021-10-19_15h46.01.613,forced_choiceRT,2021.1.2,Linux aarch64,60.0240096,,,,,,,,,,,,,,,,,,,,,,
,0,j,1,1.8671,13,0,52,3,1,j.PNG,j,609ecea08adc775458870a17,2021-10-19_15h46.01.613,forced_choiceRT,2021.1.2,Linux aarch64,60.0240096,,,,,,,,,,,,,,,,,,,,,,
,0,g,1,1.293,13,1,53,1,1,g.PNG,g,609ecea08adc775458870a17,2021-10-19_15h46.01.613,forced_choiceRT,2021.1.2,Linux aarch64,60.0240096,,,,,,,,,,,,,,,,,,,,,,
,0,j,1,1.5985,13,2,54,3,1,j.PNG,j,609ecea08adc775458870a17,2021-10-19_15h46.01.613,forced_choiceRT,2021.1.2,Linux aarch64,60.0240096,,,,,,,,,,,,,,,,,,,,,,
,0,f,1,1.7101,13,3,55,0,1,f.PNG,f,609ecea08adc775458870a17,2021-10-19_15h46.01.613,forced_choiceRT,2021.1.2,Linux aarch64,60.0240096,,,,,,,,,,,,,,,,,,,,,,
,0,g,1,1.1693,14,0,56,1,1,g.PNG,g,609ecea08adc775458870a17,2021-10-19_15h46.01.613,forced_choiceRT,2021.1.2,Linux aarch64,60.0240096,,,,,,,,,,,,,,,,,,,,,,
,0,h,1,1.1461,14,1,57,2,1,h.PNG,h,609ecea08adc775458870a17,2021-10-19_15h46.01.613,forced_choiceRT,2021.1.2,Linux aarch64,60.0240096,,,,,,,,,,,,,,,,,,,,,,
,0,j,1,1.0991,14,2,58,3,1,j.PNG,j,609ecea08adc775458870a17,2021-10-19_15h46.01.613,forced_choiceRT,2021.1.2,Linux aarch64,60.0240096,,,,,,,,,,,,,,,,,,,,,,
,0,f,1,1.627,14,3,59,0,1,f.PNG,f,609ecea08adc775458870a17,2021-10-19_15h46.01.613,forced_choiceRT,2021.1.2,Linux aarch64,60.0240096,,,,,,,,,,,,,,,,,,,,,,
,,,,,,,,,,,,609ecea08adc775458870a17,2021-10-19_15h46.01.613,forced_choiceRT,2021.1.2,Linux aarch64,60.0240096,f,6.9267,0,0,0,0,1,,,,,,,,,,,,,,,
,,,,,,,,,,,,609ecea08adc775458870a17,2021-10-19_15h46.01.613,forced_choiceRT,2021.1.2,Linux aarch64,60.0240096,g,2.0484,1,0,1,0,1,,,,,,,,,,,,,,,
,,,,,,,,,,,,609ecea08adc775458870a17,2021-10-19_15h46.01.613,forced_choiceRT,2021.1.2,Linux aarch64,60.0240096,g,2.1427,2,0,2,0,1,,,,,,,,,,,,,,,
,,,,,,,,,,,,609ecea08adc775458870a17,2021-10-19_15h46.01.613,forced_choiceRT,2021.1.2,Linux aarch64,60.0240096,g,2.2303,3,0,3,0,1,,,,,,,,,,,,,,,
,,,,,,,,,,,,609ecea08adc775458870a17,2021-10-19_15h46.01.613,forced_choiceRT,2021.1.2,Linux aarch64,60.0240096,g,2.0778,4,0,4,0,1,,,,,,,,,,,,,,,
,,,,,,,,,,,,609ecea08adc775458870a17,2021-10-19_15h46.01.613,forced_choiceRT,2021.1.2,Linux aarch64,60.0240096,g,2.0101,5,0,5,0,1,,,,,,,,,,,,,,,
,,,,,,,,,,,,609ecea08adc775458870a17,2021-10-19_15h46.01.613,forced_choiceRT,2021.1.2,Linux aarch64,60.0240096,g,1.7453,6,0,6,0,1,,,,,,,,,,,,,,,
,,,,,,,,,,,,609ecea08adc775458870a17,2021-10-19_15h46.01.613,forced_choiceRT,2021.1.2,Linux aarch64,60.0240096,g,1.9771,7,0,7,0,1,,,,,,,,,,,,,,,
,,,,,,,,,,,,609ecea08adc775458870a17,2021-10-19_15h46.01.613,forced_choiceRT,2021.1.2,Linux aarch64,60.0240096,g,2.0788,8,0,8,0,1,,,,,,,,,,,,,,,
,,,,,,,,,,,,609ecea08adc775458870a17,2021-10-19_15h46.01.613,forced_choiceRT,2021.1.2,Linux aarch64,60.0240096,g,1.9463,9,0,9,0,1,,,,,,,,,,,,,,,
,,,,,,,,,,,,609ecea08adc775458870a17,2021-10-19_15h46.01.613,forced_choiceRT,2021.1.2,Linux aarch64,60.0240096,g,1.9624,10,0,10,0,1,,,,,,,,,,,,,,,
,,,,,,,,,,,,609ecea08adc775458870a17,2021-10-19_15h46.01.613,forced_choiceRT,2021.1.2,Linux aarch64,60.0240096,g,1.881,11,0,11,0,1,,,,,,,,,,,,,,,
,,,,,,,,,,,,609ecea08adc775458870a17,2021-10-19_15h46.01.613,forced_choiceRT,2021.1.2,Linux aarch64,60.0240096,g,2.1282,12,0,12,0,1,,,,,,,,,,,,,,,
,,,,,,,,,,,,609ecea08adc775458870a17,2021-10-19_15h46.01.613,forced_choiceRT,2021.1.2,Linux aarch64,60.0240096,g,2.1449,13,0,13,0,1,,,,,,,,,,,,,,,
,,,,,,,,,,,,609ecea08adc775458870a17,2021-10-19_15h46.01.613,forced_choiceRT,2021.1.2,Linux aarch64,60.0240096,g,2.0488,14,0,14,0,1,,,,,,,,,,,,,,,
,,,,,,,,,,,,609ecea08adc775458870a17,2021-10-19_15h46.01.613,forced_choiceRT,2021.1.2,Linux aarch64,60.0240096,g,2.017,15,0,15,0,1,,,,,,,,,,,,,,,
,,,,,,,,,,,,609ecea08adc775458870a17,2021-10-19_15h46.01.613,forced_choiceRT,2021.1.2,Linux aarch64,60.0240096,g,1.9322,16,0,16,0,1,,,,,,,,,,,,,,,
,,,,,,,,,,,,609ecea08adc775458870a17,2021-10-19_15h46.01.613,forced_choiceRT,2021.1.2,Linux aarch64,60.0240096,g,1.8282,17,0,17,0,1,,,,,,,,,,,,,,,
,,,,,,,,,,,,609ecea08adc775458870a17,2021-10-19_15h46.01.613,forced_choiceRT,2021.1.2,Linux aarch64,60.0240096,g,2.0675,18,0,18,0,1,,,,,,,,,,,,,,,
,,,,,,,,,,,,609ecea08adc775458870a17,2021-10-19_15h46.01.613,forced_choiceRT,2021.1.2,Linux aarch64,60.0240096,g,2.0678,19,0,19,0,1,,,,,,,,,,,,,,,
,1.64,,,,,,,,,j.PNG,j,609ecea08adc775458870a17,2021-10-19_15h46.01.613,forced_choiceRT,2021.1.2,Linux aarch64,60.0240096,,,,,,,,1,Slow,g,0,2.1046,0,0,0,3,1,,,,,
,0.7,,,,,,,,,g.PNG,g,609ecea08adc775458870a17,2021-10-19_15h46.01.613,forced_choiceRT,2021.1.2,Linux aarch64,60.0240096,,,,,,,,1,Slow,g,1,2.2741,0,1,1,1,1,,,,,
,1.23,,,,,,,,,j.PNG,j,609ecea08adc775458870a17,2021-10-19_15h46.01.613,forced_choiceRT,2021.1.2,Linux aarch64,60.0240096,,,,,,,,1,Slow,j,1,2.4285,0,2,2,3,1,,,,,
,1.18,,,,,,,,,f.PNG,f,609ecea08adc775458870a17,2021-10-19_15h46.01.613,forced_choiceRT,2021.1.2,Linux aarch64,60.0240096,,,,,,,,1,Ontime,f,1,1.9787,0,3,3,0,1,,,,,
,0.16,,,,,,,,,g.PNG,g,609ecea08adc775458870a17,2021-10-19_15h46.01.613,forced_choiceRT,2021.1.2,Linux aarch64,60.0240096,,,,,,,,1,Fast,g,1,1.8442,1,0,4,1,1,,,,,
,0.02,,,,,,,,,j.PNG,j,609ecea08adc775458870a17,2021-10-19_15h46.01.613,forced_choiceRT,2021.1.2,Linux aarch64,60.0240096,,,,,,,,1,Slow,j,1,2.2421,1,1,5,3,1,,,,,
,1.83,,,,,,,,,g.PNG,g,609ecea08adc775458870a17,2021-10-19_15h46.01.613,forced_choiceRT,2021.1.2,Linux aarch64,60.0240096,,,,,,,,1,Slow,h,0,2.3285,1,2,6,1,1,,,,,
,0.5,,,,,,,,,j.PNG,j,609ecea08adc775458870a17,2021-10-19_15h46.01.613,forced_choiceRT,2021.1.2,Linux aarch64,60.0240096,,,,,,,,1,Slow,j,1,4.9928,1,3,7,3,1,,,,,
,0.69,,,,,,,,,h.PNG,h,609ecea08adc775458870a17,2021-10-19_15h46.01.613,forced_choiceRT,2021.1.2,Linux aarch64,60.0240096,,,,,,,,1,Slow,h,1,2.4783,2,0,8,2,1,,,,,
,1.99,,,,,,,,,g.PNG,g,609ecea08adc775458870a17,2021-10-19_15h46.01.613,forced_choiceRT,2021.1.2,Linux aarch64,60.0240096,,,,,,,,1,Slow,g,1,3.0965,2,1,9,1,1,,,,,
,0.07,,,,,,,,,f.PNG,f,609ecea08adc775458870a17,2021-10-19_15h46.01.613,forced_choiceRT,2021.1.2,Linux aarch64,60.0240096,,,,,,,,1,Ontime,f,1,2.0114,2,2,10,0,1,,,,,
,1.81,,,,,,,,,f.PNG,f,609ecea08adc775458870a17,2021-10-19_15h46.01.613,forced_choiceRT,2021.1.2,Linux aarch64,60.0240096,,,,,,,,1,Slow,f,1,2.4146,2,3,11,0,1,,,,,
,0.75,,,,,,,,,f.PNG,f,609ecea08adc775458870a17,2021-10-19_15h46.01.613,forced_choiceRT,2021.1.2,Linux aarch64,60.0240096,,,,,,,,1,Slow,f,1,2.1257,3,0,12,0,1,,,,,
,1.28,,,,,,,,,g.PNG,g,609ecea08adc775458870a17,2021-10-19_15h46.01.613,forced_choiceRT,2021.1.2,Linux aarch64,60.0240096,,,,,,,,1,Fast,g,1,1.848,3,1,13,1,1,,,,,
,1.76,,,,,,,,,j.PNG,j,609ecea08adc775458870a17,2021-10-19_15h46.01.613,forced_choiceRT,2021.1.2,Linux aarch64,60.0240096,,,,,,,,1,Slow,g,0,2.2459,3,2,14,3,1,,,,,
,0.06,,,,,,,,,f.PNG,f,609ecea08adc775458870a17,2021-10-19_15h46.01.613,forced_choiceRT,2021.1.2,Linux aarch64,60.0240096,,,,,,,,1,Ontime,f,1,2.0307,3,3,15,0,1,,,,,
,0.91,,,,,,,,,h.PNG,h,609ecea08adc775458870a17,2021-10-19_15h46.01.613,forced_choiceRT,2021.1.2,Linux aarch64,60.0240096,,,,,,,,1,Slow,h,1,2.3255,4,0,16,2,1,,,,,
,0.44,,,,,,,,,j.PNG,j,609ecea08adc775458870a17,2021-10-19_15h46.01.613,forced_choiceRT,2021.1.2,Linux aarch64,60.0240096,,,,,,,,1,Ontime,j,1,2.0846,4,1,17,3,1,,,,,
,1.74,,,,,,,,,g.PNG,g,609ecea08adc775458870a17,2021-10-19_15h46.01.613,forced_choiceRT,2021.1.2,Linux aarch64,60.0240096,,,,,,,,1,Slow,g,1,2.1786,4,2,18,1,1,,,,,
,1.16,,,,,,,,,f.PNG,f,609ecea08adc775458870a17,2021-10-19_15h46.01.613,forced_choiceRT,2021.1.2,Linux aarch64,60.0240096,,,,,,,,1,Slow,f,1,2.2978,4,3,19,0,1,,,,,
,1.77,,,,,,,,,f.PNG,f,609ecea08adc775458870a17,2021-10-19_15h46.01.613,forced_choiceRT,2021.1.2,Linux aarch64,60.0240096,,,,,,,,1,Slow,g,0,2.1598,5,0,20,0,1,,,,,
,1.27,,,,,,,,,h.PNG,h,609ecea08adc775458870a17,2021-10-19_15h46.01.613,forced_choiceRT,2021.1.2,Linux aarch64,60.0240096,,,,,,,,1,Slow,h,1,2.258,5,1,21,2,1,,,,,
,0.19,,,,,,,,,g.PNG,g,609ecea08adc775458870a17,2021-10-19_15h46.01.613,forced_choiceRT,2021.1.2,Linux aarch64,60.0240096,,,,,,,,1,Ontime,g,1,2.0294,5,2,22,1,1,,,,,
,0.85,,,,,,,,,j.PNG,j,609ecea08adc775458870a17,2021-10-19_15h46.01.613,forced_choiceRT,2021.1.2,Linux aarch64,60.0240096,,,,,,,,1,Slow,j,1,2.3446,5,3,23,3,1,,,,,
,0.62,,,,,,,,,h.PNG,h,609ecea08adc775458870a17,2021-10-19_15h46.01.613,forced_choiceRT,2021.1.2,Linux aarch64,60.0240096,,,,,,,,1,Ontime,h,1,1.9798,6,0,24,2,1,,,,,
,0.97,,,,,,,,,f.PNG,f,609ecea08adc775458870a17,2021-10-19_15h46.01.613,forced_choiceRT,2021.1.2,Linux aarch64,60.0240096,,,,,,,,1,Slow,f,1,2.2443,6,1,25,0,1,,,,,
,1.69,,,,,,,,,j.PNG,j,609ecea08adc775458870a17,2021-10-19_15h46.01.613,forced_choiceRT,2021.1.2,Linux aarch64,60.0240096,,,,,,,,1,Slow,g,0,2.1166,6,2,26,3,1,,,,,
,0.7,,,,,,,,,j.PNG,j,609ecea08adc775458870a17,2021-10-19_15h46.01.613,forced_choiceRT,2021.1.2,Linux aarch64,60.0240096,,,,,,,,1,Ontime,j,1,2.0021,6,3,27,3,1,,,,,
,0.1,,,,,,,,,j.PNG,j,609ecea08adc775458870a17,2021-10-19_15h46.01.613,forced_choiceRT,2021.1.2,Linux aarch64,60.0240096,,,,,,,,1,Ontime,j,1,1.9291,7,0,28,3,1,,,,,
,1.65,,,,,,,,,h.PNG,h,609ecea08adc775458870a17,2021-10-19_15h46.01.613,forced_choiceRT,2021.1.2,Linux aarch64,60.0240096,,,,,,,,1,Slow,h,1,2.1931,7,1,29,2,1,,,,,
,1.48,,,,,,,,,f.PNG,f,609ecea08adc775458870a17,2021-10-19_15h46.01.613,forced_choiceRT,2021.1.2,Linux aarch64,60.0240096,,,,,,,,1,Slow,g,0,2.1306,7,2,30,0,1,,,,,
,0.15,,,,,,,,,g.PNG,g,609ecea08adc775458870a17,2021-10-19_15h46.01.613,forced_choiceRT,2021.1.2,Linux aarch64,60.0240096,,,,,,,,1,Ontime,g,1,1.9957,7,3,31,1,1,,,,,
,0.85,,,,,,,,,g.PNG,g,609ecea08adc775458870a17,2021-10-19_15h46.01.613,forced_choiceRT,2021.1.2,Linux aarch64,60.0240096,,,,,,,,1,Slow,g,1,2.1582,8,0,32,1,1,,,,,
,0.77,,,,,,,,,f.PNG,f,609ecea08adc775458870a17,2021-10-19_15h46.01.613,forced_choiceRT,2021.1.2,Linux aarch64,60.0240096,,,,,,,,1,Slow,f,1,2.1315,8,1,33,0,1,,,,,
,0.64,,,,,,,,,h.PNG,h,609ecea08adc775458870a17,2021-10-19_15h46.01.613,forced_choiceRT,2021.1.2,Linux aarch64,60.0240096,,,,,,,,1,Ontime,h,1,2.0496,8,2,34,2,1,,,,,
,0.65,,,,,,,,,g.PNG,g,609ecea08adc775458870a17,2021-10-19_15h46.01.613,forced_choiceRT,2021.1.2,Linux aarch64,60.0240096,,,,,,,,1,Ontime,g,1,2.0572,8,3,35,1,1,,,,,
,0.58,,,,,,,,,h.PNG,h,609ecea08adc775458870a17,2021-10-19_15h46.01.613,forced_choiceRT,2021.1.2,Linux aarch64,60.0240096,,,,,,,,1,Fast,h,1,1.8946,9,0,36,2,1,,,,,
,0.26,,,,,,,,,h.PNG,h,609ecea08adc775458870a17,2021-10-19_15h46.01.613,forced_choiceRT,2021.1.2,Linux aarch64,60.0240096,,,,,,,,1,Fast,h,1,1.7306,9,1,37,2,1,,,,,
,1.09,,,,,,,,,h.PNG,h,609ecea08adc775458870a17,2021-10-19_15h46.01.613,forced_choiceRT,2021.1.2,Linux aarch64,60.0240096,,,,,,,,1,Slow,h,1,2.1085,9,2,38,2,1,,,,,
,0.68,,,,,,,,,h.PNG,h,609ecea08adc775458870a17,2021-10-19_15h46.01.613,forced_choiceRT,2021.1.2,Linux aarch64,60.0240096,,,,,,,,1,Slow,h,1,2.132,9,3,39,2,1,,,,,
,,,,,,,,,,,,609ecea08adc775458870a17,2021-10-19_15h46.01.613,forced_choiceRT,2021.1.2,Linux aarch64,60.0240096,,,,,,,,,,,,,,,,,,0,0,0,0,1
,0.74,,,,,,,,,g.PNG,g,609ecea08adc775458870a17,2021-10-19_15h46.01.613,forced_choiceRT,2021.1.2,Linux aarch64,60.0240096,,,,,,,,2,Slow,g,1,2.3813,0,0,0,1,1,,,,,
,1.99,,,,,,,,,g.PNG,g,609ecea08adc775458870a17,2021-10-19_15h46.01.613,forced_choiceRT,2021.1.2,Linux aarch64,60.0240096,,,,,,,,2,Slow,g,1,2.4509,0,1,1,1,1,,,,,
,0.14,,,,,,,,,f.PNG,f,609ecea08adc775458870a17,2021-10-19_15h46.01.613,forced_choiceRT,2021.1.2,Linux aarch64,60.0240096,,,,,,,,2,Fast,f,1,1.7807,0,2,2,0,1,,,,,
,0.32,,,,,,,,,h.PNG,h,609ecea08adc775458870a17,2021-10-19_15h46.01.613,forced_choiceRT,2021.1.2,Linux aarch64,60.0240096,,,,,,,,2,Ontime,g,0,1.9462,0,3,3,2,1,,,,,
,0.07,,,,,,,,,j.PNG,j,609ecea08adc775458870a17,2021-10-19_15h46.01.613,forced_choiceRT,2021.1.2,Linux aarch64,60.0240096,,,,,,,,2,Fast,j,1,1.8967,1,0,4,3,1,,,,,
,0.68,,,,,,,,,f.PNG,f,609ecea08adc775458870a17,2021-10-19_15h46.01.613,forced_choiceRT,2021.1.2,Linux aarch64,60.0240096,,,,,,,,2,Slow,f,1,2.3144,1,1,5,0,1,,,,,
,0.78,,,,,,,,,g.PNG,g,609ecea08adc775458870a17,2021-10-19_15h46.01.613,forced_choiceRT,2021.1.2,Linux aarch64,60.0240096,,,,,,,,2,Ontime,g,1,2.0792,1,2,6,1,1,,,,,
,1.61,,,,,,,,,j.PNG,j,609ecea08adc775458870a17,2021-10-19_15h46.01.613,forced_choiceRT,2021.1.2,Linux aarch64,60.0240096,,,,,,,,2,Slow,h,0,2.1648,1,3,7,3,1,,,,,
,0.25,,,,,,,,,h.PNG,h,609ecea08adc775458870a17,2021-10-19_15h46.01.613,forced_choiceRT,2021.1.2,Linux aarch64,60.0240096,,,,,,,,2,Ontime,h,1,2.0123,2,0,8,2,1,,,,,
,1.17,,,,,,,,,h.PNG,h,609ecea08adc775458870a17,2021-10-19_15h46.01.613,forced_choiceRT,2021.1.2,Linux aarch64,60.0240096,,,,,,,,2,Ontime,h,1,2.0282,2,1,9,2,1,,,,,
,1.99,,,,,,,,,j.PNG,j,609ecea08adc775458870a17,2021-10-19_15h46.01.613,forced_choiceRT,2021.1.2,Linux aarch64,60.0240096,,,,,,,,2,Slow,h,0,2.3729,2,2,10,3,1,,,,,
,1.17,,,,,,,,,j.PNG,j,609ecea08adc775458870a17,2021-10-19_15h46.01.613,forced_choiceRT,2021.1.2,Linux aarch64,60.0240096,,,,,,,,2,Slow,j,1,2.2432,2,3,11,3,1,,,,,
,0.78,,,,,,,,,h.PNG,h,609ecea08adc775458870a17,2021-10-19_15h46.01.613,forced_choiceRT,2021.1.2,Linux aarch64,60.0240096,,,,,,,,2,Ontime,h,1,2.0956,3,0,12,2,1,,,,,
,1.79,,,,,,,,,h.PNG,h,609ecea08adc775458870a17,2021-10-19_15h46.01.613,forced_choiceRT,2021.1.2,Linux aarch64,60.0240096,,,,,,,,2,Slow,h,1,2.1921,3,1,13,2,1,,,,,
,1.25,,,,,,,,,j.PNG,j,609ecea08adc775458870a17,2021-10-19_15h46.01.613,forced_choiceRT,2021.1.2,Linux aarch64,60.0240096,,,,,,,,2,Ontime,j,1,1.9945,3,2,14,3,1,,,,,
,0.11,,,,,,,,,g.PNG,g,609ecea08adc775458870a17,2021-10-19_15h46.01.613,forced_choiceRT,2021.1.2,Linux aarch64,60.0240096,,,,,,,,2,Fast,g,1,1.4275,3,3,15,1,1,,,,,
,1.26,,,,,,,,,h.PNG,h,609ecea08adc775458870a17,2021-10-19_15h46.01.613,forced_choiceRT,2021.1.2,Linux aarch64,60.0240096,,,,,,,,2,Ontime,h,1,2.0943,4,0,16,2,1,,,,,
,0.74,,,,,,,,,f.PNG,f,609ecea08adc775458870a17,2021-10-19_15h46.01.613,forced_choiceRT,2021.1.2,Linux aarch64,60.0240096,,,,,,,,2,Fast,f,1,1.8948,4,1,17,0,1,,,,,
,1.01,,,,,,,,,f.PNG,f,609ecea08adc775458870a17,2021-10-19_15h46.01.613,forced_choiceRT,2021.1.2,Linux aarch64,60.0240096,,,,,,,,2,Slow,f,1,2.1119,4,2,18,0,1,,,,,
,0.58,,,,,,,,,h.PNG,h,609ecea08adc775458870a17,2021-10-19_15h46.01.613,forced_choiceRT,2021.1.2,Linux aarch64,60.0240096,,,,,,,,2,Fast,h,1,1.8318,4,3,19,2,1,,,,,
,0.5,,,,,,,,,g.PNG,g,609ecea08adc775458870a17,2021-10-19_15h46.01.613,forced_choiceRT,2021.1.2,Linux aarch64,60.0240096,,,,,,,,2,Slow,g,1,2.1452,5,0,20,1,1,,,,,
,1.66,,,,,,,,,j.PNG,j,609ecea08adc775458870a17,2021-10-19_15h46.01.613,forced_choiceRT,2021.1.2,Linux aarch64,60.0240096,,,,,,,,2,Ontime,h,0,2.0936,5,1,21,3,1,,,,,
,0.89,,,,,,,,,g.PNG,g,609ecea08adc775458870a17,2021-10-19_15h46.01.613,forced_choiceRT,2021.1.2,Linux aarch64,60.0240096,,,,,,,,2,Slow,g,1,2.4436,5,2,22,1,1,,,,,
,0.09,,,,,,,,,h.PNG,h,609ecea08adc775458870a17,2021-10-19_15h46.01.613,forced_choiceRT,2021.1.2,Linux aarch64,60.0240096,,,,,,,,2,Ontime,h,1,2.0267,5,3,23,2,1,,,,,
,0.54,,,,,,,,,h.PNG,h,609ecea08adc775458870a17,2021-10-19_15h46.01.613,forced_choiceRT,2021.1.2,Linux aarch64,60.0240096,,,,,,,,2,Ontime,h,1,1.9857,6,0,24,2,1,,,,,
,1.76,,,,,,,,,f.PNG,f,609ecea08adc775458870a17,2021-10-19_15h46.01.613,forced_choiceRT,2021.1.2,Linux aarch64,60.0240096,,,,,,,,2,Slow,g,0,2.2922,6,1,25,0,1,,,,,
,1.58,,,,,,,,,g.PNG,g,609ecea08adc775458870a17,2021-10-19_15h46.01.613,forced_choiceRT,2021.1.2,Linux aarch64,60.0240096,,,,,,,,2,Slow,g,1,2.1456,6,2,26,1,1,,,,,
,0.74,,,,,,,,,f.PNG,f,609ecea08adc775458870a17,2021-10-19_15h46.01.613,forced_choiceRT,2021.1.2,Linux aarch64,60.0240096,,,,,,,,2,Ontime,f,1,2.0494,6,3,27,0,1,,,,,
,0.55,,,,,,,,,j.PNG,j,609ecea08adc775458870a17,2021-10-19_15h46.01.613,forced_choiceRT,2021.1.2,Linux aarch64,60.0240096,,,,,,,,2,Ontime,j,1,2.0657,7,0,28,3,1,,,,,
,1.24,,,,,,,,,j.PNG,j,609ecea08adc775458870a17,2021-10-19_15h46.01.613,forced_choiceRT,2021.1.2,Linux aarch64,60.0240096,,,,,,,,2,Ontime,h,0,1.9303,7,1,29,3,1,,,,,
,1.17,,,,,,,,,j.PNG,j,609ecea08adc775458870a17,2021-10-19_15h46.01.613,forced_choiceRT,2021.1.2,Linux aarch64,60.0240096,,,,,,,,2,Ontime,h,0,1.9261,7,2,30,3,1,,,,,
,0.51,,,,,,,,,f.PNG,f,609ecea08adc775458870a17,2021-10-19_15h46.01.613,forced_choiceRT,2021.1.2,Linux aarch64,60.0240096,,,,,,,,2,Slow,f,1,2.1135,7,3,31,0,1,,,,,
,0.39,,,,,,,,,f.PNG,f,609ecea08adc775458870a17,2021-10-19_15h46.01.613,forced_choiceRT,2021.1.2,Linux aarch64,60.0240096,,,,,,,,2,Fast,f,1,1.7963,8,0,32,0,1,,,,,
,0.28,,,,,,,,,g.PNG,g,609ecea08adc775458870a17,2021-10-19_15h46.01.613,forced_choiceRT,2021.1.2,Linux aarch64,60.0240096,,,,,,,,2,Ontime,g,1,2.0285,8,1,33,1,1,,,,,
,0.88,,,,,,,,,f.PNG,f,609ecea08adc775458870a17,2021-10-19_15h46.01.613,forced_choiceRT,2021.1.2,Linux aarch64,60.0240096,,,,,,,,2,Slow,f,1,2.3587,8,2,34,0,1,,,,,
,0.23,,,,,,,,,j.PNG,j,609ecea08adc775458870a17,2021-10-19_15h46.01.613,forced_choiceRT,2021.1.2,Linux aarch64,60.0240096,,,,,,,,2,Fast,j,1,1.5827,8,3,35,3,1,,,,,
,0.83,,,,,,,,,h.PNG,h,609ecea08adc775458870a17,2021-10-19_15h46.01.613,forced_choiceRT,2021.1.2,Linux aarch64,60.0240096,,,,,,,,2,Slow,h,1,2.2584,9,0,36,2,1,,,,,
,0.75,,,,,,,,,g.PNG,g,609ecea08adc775458870a17,2021-10-19_15h46.01.613,forced_choiceRT,2021.1.2,Linux aarch64,60.0240096,,,,,,,,2,Slow,g,1,2.1426,9,1,37,1,1,,,,,
,0.87,,,,,,,,,g.PNG,g,609ecea08adc775458870a17,2021-10-19_15h46.01.613,forced_choiceRT,2021.1.2,Linux aarch64,60.0240096,,,,,,,,2,Ontime,g,1,2.0259,9,2,38,1,1,,,,,
,1.08,,,,,,,,,f.PNG,f,609ecea08adc775458870a17,2021-10-19_15h46.01.613,forced_choiceRT,2021.1.2,Linux aarch64,60.0240096,,,,,,,,2,Slow,f,1,2.1658,9,3,39,0,1,,,,,
,,,,,,,,,,,,609ecea08adc775458870a17,2021-10-19_15h46.01.613,forced_choiceRT,2021.1.2,Linux aarch64,60.0240096,,,,,,,,,,,,,,,,,,1,0,1,0,1
,1.18,,,,,,,,,j.PNG,j,609ecea08adc775458870a17,2021-10-19_15h46.01.613,forced_choiceRT,2021.1.2,Linux aarch64,60.0240096,,,,,,,,3,Ontime,j,1,2.0623,0,0,0,3,1,,,,,
,1.44,,,,,,,,,f.PNG,f,609ecea08adc775458870a17,2021-10-19_15h46.01.613,forced_choiceRT,2021.1.2,Linux aarch64,60.0240096,,,,,,,,3,Slow,f,1,2.4973,0,1,1,0,1,,,,,
,1.04,,,,,,,,,g.PNG,g,609ecea08adc775458870a17,2021-10-19_15h46.01.613,forced_choiceRT,2021.1.2,Linux aarch64,60.0240096,,,,,,,,3,Slow,g,1,2.1444,0,2,2,1,1,,,,,
,0.52,,,,,,,,,f.PNG,f,609ecea08adc775458870a17,2021-10-19_15h46.01.613,forced_choiceRT,2021.1.2,Linux aarch64,60.0240096,,,,,,,,3,Ontime,f,1,2.0262,0,3,3,0,1,,,,,
,1.72,,,,,,,,,h.PNG,h,609ecea08adc775458870a17,2021-10-19_15h46.01.613,forced_choiceRT,2021.1.2,Linux aarch64,60.0240096,,,,,,,,3,Slow,h,1,2.3783,1,0,4,2,1,,,,,
,0.05,,,,,,,,,j.PNG,j,609ecea08adc775458870a17,2021-10-19_15h46.01.613,forced_choiceRT,2021.1.2,Linux aarch64,60.0240096,,,,,,,,3,Ontime,j,1,2.0106,1,1,5,3,1,,,,,
,0.16,,,,,,,,,f.PNG,f,609ecea08adc775458870a17,2021-10-19_15h46.01.613,forced_choiceRT,2021.1.2,Linux aarch64,60.0240096,,,,,,,,3,Ontime,f,1,2.0795,1,2,6,0,1,,,,,
,0.05,,,,,,,,,f.PNG,f,609ecea08adc775458870a17,2021-10-19_15h46.01.613,forced_choiceRT,2021.1.2,Linux aarch64,60.0240096,,,,,,,,3,Ontime,f,1,2.0799,1,3,7,0,1,,,,,
,0.84,,,,,,,,,f.PNG,f,609ecea08adc775458870a17,2021-10-19_15h46.01.613,forced_choiceRT,2021.1.2,Linux aarch64,60.0240096,,,,,,,,3,Slow,f,1,2.2459,2,0,8,0,1,,,,,
,0.27,,,,,,,,,h.PNG,h,609ecea08adc775458870a17,2021-10-19_15h46.01.613,forced_choiceRT,2021.1.2,Linux aarch64,60.0240096,,,,,,,,3,Fast,h,1,1.7144,2,1,9,2,1,,,,,
,0.14,,,,,,,,,j.PNG,j,609ecea08adc775458870a17,2021-10-19_15h46.01.613,forced_choiceRT,2021.1.2,Linux aarch64,60.0240096,,,,,,,,3,Ontime,j,1,2.047,2,2,10,3,1,,,,,
,1.93,,,,,,,,,h.PNG,h,609ecea08adc775458870a17,2021-10-19_15h46.01.613,forced_choiceRT,2021.1.2,Linux aarch64,60.0240096,,,,,,,,3,Slow,j,0,2.1587,2,3,11,2,1,,,,,
,0.6,,,,,,,,,h.PNG,h,609ecea08adc775458870a17,2021-10-19_15h46.01.613,forced_choiceRT,2021.1.2,Linux aarch64,60.0240096,,,,,,,,3,Ontime,h,1,2.0958,3,0,12,2,1,,,,,
,0.15,,,,,,,,,j.PNG,j,609ecea08adc775458870a17,2021-10-19_15h46.01.613,forced_choiceRT,2021.1.2,Linux aarch64,60.0240096,,,,,,,,3,Ontime,j,1,2.0693,3,1,13,3,1,,,,,
,1.3,,,,,,,,,f.PNG,f,609ecea08adc775458870a17,2021-10-19_15h46.01.613,forced_choiceRT,2021.1.2,Linux aarch64,60.0240096,,,,,,,,3,Slow,g,0,2.2785,3,2,14,0,1,,,,,
,1.82,,,,,,,,,h.PNG,h,609ecea08adc775458870a17,2021-10-19_15h46.01.613,forced_choiceRT,2021.1.2,Linux aarch64,60.0240096,,,,,,,,3,Slow,g,0,2.2946,3,3,15,2,1,,,,,
,1.26,,,,,,,,,j.PNG,j,609ecea08adc775458870a17,2021-10-19_15h46.01.613,forced_choiceRT,2021.1.2,Linux aarch64,60.0240096,,,,,,,,3,Ontime,j,1,2.0433,4,0,16,3,1,,,,,
,0.91,,,,,,,,,f.PNG,f,609ecea08adc775458870a17,2021-10-19_15h46.01.613,forced_choiceRT,2021.1.2,Linux aarch64,60.0240096,,,,,,,,3,Ontime,f,1,1.9964,4,1,17,0,1,,,,,
,0.85,,,,,,,,,j.PNG,j,609ecea08adc775458870a17,2021-10-19_15h46.01.613,forced_choiceRT,2021.1.2,Linux aarch64,60.0240096,,,,,,,,3,Ontime,j,1,2.0472,4,2,18,3,1,,,,,
,0.18,,,,,,,,,h.PNG,h,609ecea08adc775458870a17,2021-10-19_15h46.01.613,forced_choiceRT,2021.1.2,Linux aarch64,60.0240096,,,,,,,,3,Ontime,h,1,1.9635,4,3,19,2,1,,,,,
,1.62,,,,,,,,,g.PNG,g,609ecea08adc775458870a17,2021-10-19_15h46.01.613,forced_choiceRT,2021.1.2,Linux aarch64,60.0240096,,,,,,,,3,Slow,j,0,2.1656,5,0,20,1,1,,,,,
,1.01,,,,,,,,,h.PNG,h,609ecea08adc775458870a17,2021-10-19_15h46.01.613,forced_choiceRT,2021.1.2,Linux aarch64,60.0240096,,,,,,,,3,Ontime,h,1,2.0601,5,1,21,2,1,,,,,
,0.76,,,,,,,,,g.PNG,g,609ecea08adc775458870a17,2021-10-19_15h46.01.613,forced_choiceRT,2021.1.2,Linux aarch64,60.0240096,,,,,,,,3,Ontime,g,1,1.9954,5,2,22,1,1,,,,,
,0.19,,,,,,,,,h.PNG,h,609ecea08adc775458870a17,2021-10-19_15h46.01.613,forced_choiceRT,2021.1.2,Linux aarch64,60.0240096,,,,,,,,3,Ontime,h,1,2.0883,5,3,23,2,1,,,,,
,1.93,,,,,,,,,h.PNG,h,609ecea08adc775458870a17,2021-10-19_15h46.01.613,forced_choiceRT,2021.1.2,Linux aarch64,60.0240096,,,,,,,,3,Slow,h,1,3.0629,6,0,24,2,1,,,,,
,0.31,,,,,,,,,g.PNG,g,609ecea08adc775458870a17,2021-10-19_15h46.01.613,forced_choiceRT,2021.1.2,Linux aarch64,60.0240096,,,,,,,,3,Ontime,g,1,2.0458,6,1,25,1,1,,,,,
,0.68,,,,,,,,,h.PNG,h,609ecea08adc775458870a17,2021-10-19_15h46.01.613,forced_choiceRT,2021.1.2,Linux aarch64,60.0240096,,,,,,,,3,Ontime,h,1,1.9748,6,2,26,2,1,,,,,
,0.77,,,,,,,,,g.PNG,g,609ecea08adc775458870a17,2021-10-19_15h46.01.613,forced_choiceRT,2021.1.2,Linux aarch64,60.0240096,,,,,,,,3,Ontime,g,1,2.031,6,3,27,1,1,,,,,
,1.01,,,,,,,,,g.PNG,g,609ecea08adc775458870a17,2021-10-19_15h46.01.613,forced_choiceRT,2021.1.2,Linux aarch64,60.0240096,,,,,,,,3,Ontime,g,1,1.9596,7,0,28,1,1,,,,,
,0.78,,,,,,,,,g.PNG,g,609ecea08adc775458870a17,2021-10-19_15h46.01.613,forced_choiceRT,2021.1.2,Linux aarch64,60.0240096,,,,,,,,3,Ontime,g,1,1.9355,7,1,29,1,1,,,,,
,1.06,,,,,,,,,g.PNG,g,609ecea08adc775458870a17,2021-10-19_15h46.01.613,forced_choiceRT,2021.1.2,Linux aarch64,60.0240096,,,,,,,,3,Ontime,g,1,1.9111,7,2,30,1,1,,,,,
,1.12,,,,,,,,,f.PNG,f,609ecea08adc775458870a17,2021-10-19_15h46.01.613,forced_choiceRT,2021.1.2,Linux aarch64,60.0240096,,,,,,,,3,Ontime,f,1,1.9823,7,3,31,0,1,,,,,
,1.91,,,,,,,,,j.PNG,j,609ecea08adc775458870a17,2021-10-19_15h46.01.613,forced_choiceRT,2021.1.2,Linux aarch64,60.0240096,,,,,,,,3,Slow,g,0,2.2907,8,0,32,3,1,,,,,
,1.76,,,,,,,,,g.PNG,g,609ecea08adc775458870a17,2021-10-19_15h46.01.613,forced_choiceRT,2021.1.2,Linux aarch64,60.0240096,,,,,,,,3,Slow,h,0,2.2279,8,1,33,1,1,,,,,
,0.01,,,,,,,,,f.PNG,f,609ecea08adc775458870a17,2021-10-19_15h46.01.613,forced_choiceRT,2021.1.2,Linux aarch64,60.0240096,,,,,,,,3,Ontime,f,1,1.976,8,2,34,0,1,,,,,
,0,,,,,,,,,f.PNG,f,609ecea08adc775458870a17,2021-10-19_15h46.01.613,forced_choiceRT,2021.1.2,Linux aarch64,60.0240096,,,,,,,,3,Fast,f,1,1.8937,8,3,35,0,1,,,,,
,1.63,,,,,,,,,j.PNG,j,609ecea08adc775458870a17,2021-10-19_15h46.01.613,forced_choiceRT,2021.1.2,Linux aarch64,60.0240096,,,,,,,,3,Slow,h,0,2.4084,9,0,36,3,1,,,,,
,0.79,,,,,,,,,j.PNG,j,609ecea08adc775458870a17,2021-10-19_15h46.01.613,forced_choiceRT,2021.1.2,Linux aarch64,60.0240096,,,,,,,,3,Ontime,j,1,2.0531,9,1,37,3,1,,,,,
,0.56,,,,,,,,,g.PNG,g,609ecea08adc775458870a17,2021-10-19_15h46.01.613,forced_choiceRT,2021.1.2,Linux aarch64,60.0240096,,,,,,,,3,Slow,g,1,2.1132,9,2,38,1,1,,,,,
,1.4,,,,,,,,,j.PNG,j,609ecea08adc775458870a17,2021-10-19_15h46.01.613,forced_choiceRT,2021.1.2,Linux aarch64,60.0240096,,,,,,,,3,Slow,h,0,2.26,9,3,39,3,1,,,,,
,,,,,,,,,,,,609ecea08adc775458870a17,2021-10-19_15h46.01.613,forced_choiceRT,2021.1.2,Linux aarch64,60.0240096,,,,,,,,,,,,,,,,,,2,0,2,0,1
,0.17,,,,,,,,,j.PNG,j,609ecea08adc775458870a17,2021-10-19_15h46.01.613,forced_choiceRT,2021.1.2,Linux aarch64,60.0240096,,,,,,,,4,Slow,j,1,5.0188,0,0,0,3,1,,,,,
,0.4,,,,,,,,,g.PNG,g,609ecea08adc775458870a17,2021-10-19_15h46.01.613,forced_choiceRT,2021.1.2,Linux aarch64,60.0240096,,,,,,,,4,Slow,g,1,2.1413,0,1,1,1,1,,,,,
,1.35,,,,,,,,,g.PNG,g,609ecea08adc775458870a17,2021-10-19_15h46.01.613,forced_choiceRT,2021.1.2,Linux aarch64,60.0240096,,,,,,,,4,Ontime,g,1,2.0116,0,2,2,1,1,,,,,
,1.31,,,,,,,,,g.PNG,g,609ecea08adc775458870a17,2021-10-19_15h46.01.613,forced_choiceRT,2021.1.2,Linux aarch64,60.0240096,,,,,,,,4,Ontime,g,1,2.0924,0,3,3,1,1,,,,,
,1.13,,,,,,,,,j.PNG,j,609ecea08adc775458870a17,2021-10-19_15h46.01.613,forced_choiceRT,2021.1.2,Linux aarch64,60.0240096,,,,,,,,4,Ontime,j,1,2.0442,1,0,4,3,1,,,,,
,0.41,,,,,,,,,f.PNG,f,609ecea08adc775458870a17,2021-10-19_15h46.01.613,forced_choiceRT,2021.1.2,Linux aarch64,60.0240096,,,,,,,,4,Fast,f,1,1.596,1,1,5,0,1,,,,,
,0.29,,,,,,,,,f.PNG,f,609ecea08adc775458870a17,2021-10-19_15h46.01.613,forced_choiceRT,2021.1.2,Linux aarch64,60.0240096,,,,,,,,4,Fast,f,1,1.8128,1,2,6,0,1,,,,,
,0.08,,,,,,,,,f.PNG,f,609ecea08adc775458870a17,2021-10-19_15h46.01.613,forced_choiceRT,2021.1.2,Linux aarch64,60.0240096,,,,,,,,4,Ontime,f,1,2.043,1,3,7,0,1,,,,,
,1.72,,,,,,,,,f.PNG,f,609ecea08adc775458870a17,2021-10-19_15h46.01.613,forced_choiceRT,2021.1.2,Linux aarch64,60.0240096,,,,,,,,4,Ontime,f,1,2.0788,2,0,8,0,1,,,,,
,1.92,,,,,,,,,h.PNG,h,609ecea08adc775458870a17,2021-10-19_15h46.01.613,forced_choiceRT,2021.1.2,Linux aarch64,60.0240096,,,,,,,,4,Slow,f,0,2.146,2,1,9,2,1,,,,,
,0.05,,,,,,,,,f.PNG,f,609ecea08adc775458870a17,2021-10-19_15h46.01.613,forced_choiceRT,2021.1.2,Linux aarch64,60.0240096,,,,,,,,4,Ontime,f,1,2.0261,2,2,10,0,1,,,,,
,0.18,,,,,,,,,j.PNG,j,609ecea08adc775458870a17,2021-10-19_15h46.01.613,forced_choiceRT,2021.1.2,Linux aarch64,60.0240096,,,,,,,,4,Ontime,j,1,1.9795,2,3,11,3,1,,,,,
,0.81,,,,,,,,,h.PNG,h,609ecea08adc775458870a17,2021-10-19_15h46.01.613,forced_choiceRT,2021.1.2,Linux aarch64,60.0240096,,,,,,,,4,Ontime,h,1,2.0969,3,0,12,2,1,,,,,
,1.99,,,,,,,,,f.PNG,f,609ecea08adc775458870a17,2021-10-19_15h46.01.613,forced_choiceRT,2021.1.2,Linux aarch64,60.0240096,,,,,,,,4,Slow,h,0,2.2607,3,1,13,0,1,,,,,
,1.04,,,,,,,,,j.PNG,j,609ecea08adc775458870a17,2021-10-19_15h46.01.613,forced_choiceRT,2021.1.2,Linux aarch64,60.0240096,,,,,,,,4,Slow,j,1,4.2753,3,2,14,3,1,,,,,
,0.78,,,,,,,,,g.PNG,g,609ecea08adc775458870a17,2021-10-19_15h46.01.613,forced_choiceRT,2021.1.2,Linux aarch64,60.0240096,,,,,,,,4,Slow,g,1,2.3592,3,3,15,1,1,,,,,
,1.43,,,,,,,,,f.PNG,f,609ecea08adc775458870a17,2021-10-19_15h46.01.613,forced_choiceRT,2021.1.2,Linux aarch64,60.0240096,,,,,,,,4,Ontime,f,1,2.0608,4,0,16,0,1,,,,,
,1.12,,,,,,,,,f.PNG,f,609ecea08adc775458870a17,2021-10-19_15h46.01.613,forced_choiceRT,2021.1.2,Linux aarch64,60.0240096,,,,,,,,4,Ontime,f,1,2.0331,4,1,17,0,1,,,,,
,1.53,,,,,,,,,j.PNG,j,609ecea08adc775458870a17,2021-10-19_15h46.01.613,forced_choiceRT,2021.1.2,Linux aarch64,60.0240096,,,,,,,,4,Ontime,h,0,2.0998,4,2,18,3,1,,,,,
,1.83,,,,,,,,,g.PNG,g,609ecea08adc775458870a17,2021-10-19_15h46.01.613,forced_choiceRT,2021.1.2,Linux aarch64,60.0240096,,,,,,,,4,Slow,g,1,2.1822,4,3,19,1,1,,,,,
,1.93,,,,,,,,,f.PNG,f,609ecea08adc775458870a17,2021-10-19_15h46.01.613,forced_choiceRT,2021.1.2,Linux aarch64,60.0240096,,,,,,,,4,Slow,f,1,2.763,5,0,20,0,1,,,,,
,0.21,,,,,,,,,j.PNG,j,609ecea08adc775458870a17,2021-10-19_15h46.01.613,forced_choiceRT,2021.1.2,Linux aarch64,60.0240096,,,,,,,,4,Ontime,j,1,2.0761,5,1,21,3,1,,,,,
,1.83,,,,,,,,,h.PNG,h,609ecea08adc775458870a17,2021-10-19_15h46.01.613,forced_choiceRT,2021.1.2,Linux aarch64,60.0240096,,,,,,,,4,Slow,h,1,2.2952,5,2,22,2,1,,,,,
,0.1,,,,,,,,,f.PNG,f,609ecea08adc775458870a17,2021-10-19_15h46.01.613,forced_choiceRT,2021.1.2,Linux aarch64,60.0240096,,,,,,,,4,Slow,f,1,2.1428,5,3,23,0,1,,,,,
,0.35,,,,,,,,,h.PNG,h,609ecea08adc775458870a17,2021-10-19_15h46.01.613,forced_choiceRT,2021.1.2,Linux aarch64,60.0240096,,,,,,,,4,Ontime,h,1,1.9808,6,0,24,2,1,,,,,
,1.01,,,,,,,,,g.PNG,g,609ecea08adc775458870a17,2021-10-19_15h46.01.613,forced_choiceRT,2021.1.2,Linux aarch64,60.0240096,,,,,,,,4,Slow,g,1,2.197,6,1,25,1,1,,,,,
,0.58,,,,,,,,,j.PNG,j,609ecea08adc775458870a17,2021-10-19_15h46.01.613,forced_choiceRT,2021.1.2,Linux aarch64,60.0240096,,,,,,,,4,Ontime,j,1,2.093,6,2,26,3,1,,,,,
,1.26,,,,,,,,,h.PNG,h,609ecea08adc775458870a17,2021-10-19_15h46.01.613,forced_choiceRT,2021.1.2,Linux aarch64,60.0240096,,,,,,,,4,Slow,h,1,2.2799,6,3,27,2,1,,,,,
,0.25,,,,,,,,,h.PNG,h,609ecea08adc775458870a17,2021-10-19_15h46.01.613,forced_choiceRT,2021.1.2,Linux aarch64,60.0240096,,,,,,,,4,Ontime,h,1,1.9429,7,0,28,2,1,,,,,
,0.61,,,,,,,,,g.PNG,g,609ecea08adc775458870a17,2021-10-19_15h46.01.613,forced_choiceRT,2021.1.2,Linux aarch64,60.0240096,,,,,,,,4,Slow,g,1,2.2591,7,1,29,1,1,,,,,
,0.76,,,,,,,,,g.PNG,g,609ecea08adc775458870a17,2021-10-19_15h46.01.613,forced_choiceRT,2021.1.2,Linux aarch64,60.0240096,,,,,,,,4,Ontime,g,1,1.998,7,2,30,1,1,,,,,
,1.78,,,,,,,,,j.PNG,j,609ecea08adc775458870a17,2021-10-19_15h46.01.613,forced_choiceRT,2021.1.2,Linux aarch64,60.0240096,,,,,,,,4,Slow,h,0,2.3625,7,3,31,3,1,,,,,
,1.98,,,,,,,,,h.PNG,h,609ecea08adc775458870a17,2021-10-19_15h46.01.613,forced_choiceRT,2021.1.2,Linux aarch64,60.0240096,,,,,,,,4,Slow,h,1,2.3948,8,0,32,2,1,,,,,
,0.08,,,,,,,,,g.PNG,g,609ecea08adc775458870a17,2021-10-19_15h46.01.613,forced_choiceRT,2021.1.2,Linux aarch64,60.0240096,,,,,,,,4,Fast,h,0,0.6647,8,1,33,1,1,,,,,
,1.48,,,,,,,,,j.PNG,j,609ecea08adc775458870a17,2021-10-19_15h46.01.613,forced_choiceRT,2021.1.2,Linux aarch64,60.0240096,,,,,,,,4,Slow,h,0,2.1821,8,2,34,3,1,,,,,
,0.57,,,,,,,,,h.PNG,h,609ecea08adc775458870a17,2021-10-19_15h46.01.613,forced_choiceRT,2021.1.2,Linux aarch64,60.0240096,,,,,,,,4,Ontime,h,1,1.9286,8,3,35,2,1,,,,,
,1.25,,,,,,,,,h.PNG,h,609ecea08adc775458870a17,2021-10-19_15h46.01.613,forced_choiceRT,2021.1.2,Linux aarch64,60.0240096,,,,,,,,4,Ontime,h,1,2.0597,9,0,36,2,1,,,,,
,1.77,,,,,,,,,h.PNG,h,609ecea08adc775458870a17,2021-10-19_15h46.01.613,forced_choiceRT,2021.1.2,Linux aarch64,60.0240096,,,,,,,,4,Slow,h,1,2.1197,9,1,37,2,1,,,,,
,1.02,,,,,,,,,g.PNG,g,609ecea08adc775458870a17,2021-10-19_15h46.01.613,forced_choiceRT,2021.1.2,Linux aarch64,60.0240096,,,,,,,,4,Ontime,g,1,1.9626,9,2,38,1,1,,,,,
,0.29,,,,,,,,,j.PNG,j,609ecea08adc775458870a17,2021-10-19_15h46.01.613,forced_choiceRT,2021.1.2,Linux aarch64,60.0240096,,,,,,,,4,Ontime,j,1,1.9397,9,3,39,3,1,,,,,
,,,,,,,,,,,,609ecea08adc775458870a17,2021-10-19_15h46.01.613,forced_choiceRT,2021.1.2,Linux aarch64,60.0240096,,,,,,,,,,,,,,,,,,3,0,3,0,1
,1.67,,,,,,,,,g.PNG,g,609ecea08adc775458870a17,2021-10-19_15h46.01.613,forced_choiceRT,2021.1.2,Linux aarch64,60.0240096,,,,,,,,5,Ontime,g,1,2.0576,0,0,0,1,1,,,,,
,1.8,,,,,,,,,g.PNG,g,609ecea08adc775458870a17,2021-10-19_15h46.01.613,forced_choiceRT,2021.1.2,Linux aarch64,60.0240096,,,,,,,,5,Ontime,g,1,2.0115,0,1,1,1,1,,,,,
,0.14,,,,,,,,,f.PNG,f,609ecea08adc775458870a17,2021-10-19_15h46.01.613,forced_choiceRT,2021.1.2,Linux aarch64,60.0240096,,,,,,,,5,Ontime,f,1,2.0122,0,2,2,0,1,,,,,
,1.13,,,,,,,,,f.PNG,f,609ecea08adc775458870a17,2021-10-19_15h46.01.613,forced_choiceRT,2021.1.2,Linux aarch64,60.0240096,,,,,,,,5,Ontime,f,1,1.9985,0,3,3,0,1,,,,,
,1.4,,,,,,,,,h.PNG,h,609ecea08adc775458870a17,2021-10-19_15h46.01.613,forced_choiceRT,2021.1.2,Linux aarch64,60.0240096,,,,,,,,5,Ontime,g,0,1.9976,1,0,4,2,1,,,,,
,0.84,,,,,,,,,g.PNG,g,609ecea08adc775458870a17,2021-10-19_15h46.01.613,forced_choiceRT,2021.1.2,Linux aarch64,60.0240096,,,,,,,,5,Slow,f,0,2.3052,1,1,5,1,1,,,,,
,0.59,,,,,,,,,f.PNG,f,609ecea08adc775458870a17,2021-10-19_15h46.01.613,forced_choiceRT,2021.1.2,Linux aarch64,60.0240096,,,,,,,,5,Ontime,f,1,1.9134,1,2,6,0,1,,,,,
,0.57,,,,,,,,,f.PNG,f,609ecea08adc775458870a17,2021-10-19_15h46.01.613,forced_choiceRT,2021.1.2,Linux aarch64,60.0240096,,,,,,,,5,Ontime,f,1,2.0329,1,3,7,0,1,,,,,
,1.48,,,,,,,,,j.PNG,j,609ecea08adc775458870a17,2021-10-19_15h46.01.613,forced_choiceRT,2021.1.2,Linux aarch64,60.0240096,,,,,,,,5,Ontime,h,0,2.0947,2,0,8,3,1,,,,,
,0.76,,,,,,,,,g.PNG,g,609ecea08adc775458870a17,2021-10-19_15h46.01.613,forced_choiceRT,2021.1.2,Linux aarch64,60.0240096,,,,,,,,5,Ontime,h,0,2.0111,2,1,9,1,1,,,,,
,0.29,,,,,,,,,j.PNG,j,609ecea08adc775458870a17,2021-10-19_15h46.01.613,forced_choiceRT,2021.1.2,Linux aarch64,60.0240096,,,,,,,,5,Ontime,j,1,2.0149,2,2,10,3,1,,,,,
,1.33,,,,,,,,,f.PNG,f,609ecea08adc775458870a17,2021-10-19_15h46.01.613,forced_choiceRT,2021.1.2,Linux aarch64,60.0240096,,,,,,,,5,Ontime,g,0,1.9846,2,3,11,0,1,,,,,
,0.94,,,,,,,,,h.PNG,h,609ecea08adc775458870a17,2021-10-19_15h46.01.613,forced_choiceRT,2021.1.2,Linux aarch64,60.0240096,,,,,,,,5,Fast,g,0,1.8964,3,0,12,2,1,,,,,
,1.09,,,,,,,,,j.PNG,j,609ecea08adc775458870a17,2021-10-19_15h46.01.613,forced_choiceRT,2021.1.2,Linux aarch64,60.0240096,,,,,,,,5,Slow,j,1,2.1668,3,1,13,3,1,,,,,
,1.54,,,,,,,,,h.PNG,h,609ecea08adc775458870a17,2021-10-19_15h46.01.613,forced_choiceRT,2021.1.2,Linux aarch64,60.0240096,,,,,,,,5,Ontime,h,1,1.9972,3,2,14,2,1,,,,,
,1.91,,,,,,,,,g.PNG,g,609ecea08adc775458870a17,2021-10-19_15h46.01.613,forced_choiceRT,2021.1.2,Linux aarch64,60.0240096,,,,,,,,5,Slow,h,0,2.2488,3,3,15,1,1,,,,,
,1.33,,,,,,,,,h.PNG,h,609ecea08adc775458870a17,2021-10-19_15h46.01.613,forced_choiceRT,2021.1.2,Linux aarch64,60.0240096,,,,,,,,5,Ontime,g,0,2.032,4,0,16,2,1,,,,,
,0.69,,,,,,,,,g.PNG,g,609ecea08adc775458870a17,2021-10-19_15h46.01.613,forced_choiceRT,2021.1.2,Linux aarch64,60.0240096,,,,,,,,5,Slow,g,1,2.2962,4,1,17,1,1,,,,,
,0.19,,,,,,,,,g.PNG,g,609ecea08adc775458870a17,2021-10-19_15h46.01.613,forced_choiceRT,2021.1.2,Linux aarch64,60.0240096,,,,,,,,5,Fast,g,1,1.7944,4,2,18,1,1,,,,,
,1.28,,,,,,,,,j.PNG,j,609ecea08adc775458870a17,2021-10-19_15h46.01.613,forced_choiceRT,2021.1.2,Linux aarch64,60.0240096,,,,,,,,5,Slow,j,1,2.163,4,3,19,3,1,,,,,
,1.81,,,,,,,,,h.PNG,h,609ecea08adc775458870a17,2021-10-19_15h46.01.613,forced_choiceRT,2021.1.2,Linux aarch64,60.0240096,,,,,,,,5,Slow,h,1,2.1472,5,0,20,2,1,,,,,
,1.42,,,,,,,,,h.PNG,h,609ecea08adc775458870a17,2021-10-19_15h46.01.613,forced_choiceRT,2021.1.2,Linux aarch64,60.0240096,,,,,,,,5,Fast,h,1,1.8154,5,1,21,2,1,,,,,
,1.64,,,,,,,,,f.PNG,f,609ecea08adc775458870a17,2021-10-19_15h46.01.613,forced_choiceRT,2021.1.2,Linux aarch64,60.0240096,,,,,,,,5,Ontime,h,0,2.0309,5,2,22,0,1,,,,,
,0.99,,,,,,,,,h.PNG,h,609ecea08adc775458870a17,2021-10-19_15h46.01.613,forced_choiceRT,2021.1.2,Linux aarch64,60.0240096,,,,,,,,5,Ontime,h,1,2.0035,5,3,23,2,1,,,,,
,1.21,,,,,,,,,h.PNG,h,609ecea08adc775458870a17,2021-10-19_15h46.01.613,forced_choiceRT,2021.1.2,Linux aarch64,60.0240096,,,,,,,,5,Ontime,h,1,2.0685,6,0,24,2,1,,,,,
,0.32,,,,,,,,,j.PNG,j,609ecea08adc775458870a17,2021-10-19_15h46.01.613,forced_choiceRT,2021.1.2,Linux aarch64,60.0240096,,,,,,,,5,Ontime,j,1,2.0603,6,1,25,3,1,,,,,
,0.29,,,,,,,,,j.PNG,j,609ecea08adc775458870a17,2021-10-19_15h46.01.613,forced_choiceRT,2021.1.2,Linux aarch64,60.0240096,,,,,,,,5,Ontime,j,1,2.0439,6,2,26,3,1,,,,,
,1.04,,,,,,,,,j.PNG,j,609ecea08adc775458870a17,2021-10-19_15h46.01.613,forced_choiceRT,2021.1.2,Linux aarch64,60.0240096,,,,,,,,5,Ontime,j,1,2.0087,6,3,27,3,1,,,,,
,0.82,,,,,,,,,h.PNG,h,609ecea08adc775458870a17,2021-10-19_15h46.01.613,forced_choiceRT,2021.1.2,Linux aarch64,60.0240096,,,,,,,,5,Ontime,h,1,2.0298,7,0,28,2,1,,,,,
,1.36,,,,,,,,,j.PNG,j,609ecea08adc775458870a17,2021-10-19_15h46.01.613,forced_choiceRT,2021.1.2,Linux aarch64,60.0240096,,,,,,,,5,Ontime,j,1,2.0753,7,1,29,3,1,,,,,
,1.98,,,,,,,,,f.PNG,f,609ecea08adc775458870a17,2021-10-19_15h46.01.613,forced_choiceRT,2021.1.2,Linux aarch64,60.0240096,,,,,,,,5,Slow,j,0,2.1915,7,2,30,0,1,,,,,
,0.48,,,,,,,,,j.PNG,j,609ecea08adc775458870a17,2021-10-19_15h46.01.613,forced_choiceRT,2021.1.2,Linux aarch64,60.0240096,,,,,,,,5,Ontime,j,1,1.9486,7,3,31,3,1,,,,,
,0.03,,,,,,,,,g.PNG,g,609ecea08adc775458870a17,2021-10-19_15h46.01.613,forced_choiceRT,2021.1.2,Linux aarch64,60.0240096,,,,,,,,5,Ontime,g,1,2.0239,8,0,32,1,1,,,,,
,0.09,,,,,,,,,j.PNG,j,609ecea08adc775458870a17,2021-10-19_15h46.01.613,forced_choiceRT,2021.1.2,Linux aarch64,60.0240096,,,,,,,,5,Slow,j,1,2.1147,8,1,33,3,1,,,,,
,0.53,,,,,,,,,g.PNG,g,609ecea08adc775458870a17,2021-10-19_15h46.01.613,forced_choiceRT,2021.1.2,Linux aarch64,60.0240096,,,,,,,,5,Slow,g,1,2.2983,8,2,34,1,1,,,,,
,0.07,,,,,,,,,f.PNG,f,609ecea08adc775458870a17,2021-10-19_15h46.01.613,forced_choiceRT,2021.1.2,Linux aarch64,60.0240096,,,,,,,,5,Ontime,f,1,2.0273,8,3,35,0,1,,,,,
,1.11,,,,,,,,,h.PNG,h,609ecea08adc775458870a17,2021-10-19_15h46.01.613,forced_choiceRT,2021.1.2,Linux aarch64,60.0240096,,,,,,,,5,Slow,h,1,2.2267,9,0,36,2,1,,,,,
,0.2,,,,,,,,,f.PNG,f,609ecea08adc775458870a17,2021-10-19_15h46.01.613,forced_choiceRT,2021.1.2,Linux aarch64,60.0240096,,,,,,,,5,Ontime,f,1,2.0475,9,1,37,0,1,,,,,
,0.33,,,,,,,,,f.PNG,f,609ecea08adc775458870a17,2021-10-19_15h46.01.613,forced_choiceRT,2021.1.2,Linux aarch64,60.0240096,,,,,,,,5,Ontime,f,1,1.9092,9,2,38,0,1,,,,,
,0.8,,,,,,,,,g.PNG,g,609ecea08adc775458870a17,2021-10-19_15h46.01.613,forced_choiceRT,2021.1.2,Linux aarch64,60.0240096,,,,,,,,5,Ontime,g,1,1.9341,9,3,39,1,1,,,,,
,,,,,,,,,,,,609ecea08adc775458870a17,2021-10-19_15h46.01.613,forced_choiceRT,2021.1.2,Linux aarch64,60.0240096,,,,,,,,,,,,,,,,,,4,0,4,0,1
,1.76,,,,,,,,,g.PNG,g,609ecea08adc775458870a17,2021-10-19_15h46.01.613,forced_choiceRT,2021.1.2,Linux aarch64,60.0240096,,,,,,,,6,Ontime,g,1,2.0236,0,0,0,1,1,,,,,
,1.13,,,,,,,,,h.PNG,h,609ecea08adc775458870a17,2021-10-19_15h46.01.613,forced_choiceRT,2021.1.2,Linux aarch64,60.0240096,,,,,,,,6,Ontime,h,1,1.9434,0,1,1,2,1,,,,,
,1.93,,,,,,,,,h.PNG,h,609ecea08adc775458870a17,2021-10-19_15h46.01.613,forced_choiceRT,2021.1.2,Linux aarch64,60.0240096,,,,,,,,6,Slow,h,1,2.1635,0,2,2,2,1,,,,,
,0.39,,,,,,,,,g.PNG,g,609ecea08adc775458870a17,2021-10-19_15h46.01.613,forced_choiceRT,2021.1.2,Linux aarch64,60.0240096,,,,,,,,6,Ontime,g,1,2.0132,0,3,3,1,1,,,,,
,0.83,,,,,,,,,f.PNG,f,609ecea08adc775458870a17,2021-10-19_15h46.01.613,forced_choiceRT,2021.1.2,Linux aarch64,60.0240096,,,,,,,,6,Ontime,f,1,1.9636,1,0,4,0,1,,,,,
,1.36,,,,,,,,,j.PNG,j,609ecea08adc775458870a17,2021-10-19_15h46.01.613,forced_choiceRT,2021.1.2,Linux aarch64,60.0240096,,,,,,,,6,Ontime,h,0,2.0627,1,1,5,3,1,,,,,
,0.52,,,,,,,,,g.PNG,g,609ecea08adc775458870a17,2021-10-19_15h46.01.613,forced_choiceRT,2021.1.2,Linux aarch64,60.0240096,,,,,,,,6,Fast,g,1,1.7468,1,2,6,1,1,,,,,
,0.63,,,,,,,,,h.PNG,h,609ecea08adc775458870a17,2021-10-19_15h46.01.613,forced_choiceRT,2021.1.2,Linux aarch64,60.0240096,,,,,,,,6,Ontime,h,1,2.0995,1,3,7,2,1,,,,,
,1.16,,,,,,,,,f.PNG,f,609ecea08adc775458870a17,2021-10-19_15h46.01.613,forced_choiceRT,2021.1.2,Linux aarch64,60.0240096,,,,,,,,6,Slow,g,0,2.1943,2,0,8,0,1,,,,,
,0.02,,,,,,,,,g.PNG,g,609ecea08adc775458870a17,2021-10-19_15h46.01.613,forced_choiceRT,2021.1.2,Linux aarch64,60.0240096,,,,,,,,6,Ontime,g,1,1.9933,2,1,9,1,1,,,,,
,0.43,,,,,,,,,j.PNG,j,609ecea08adc775458870a17,2021-10-19_15h46.01.613,forced_choiceRT,2021.1.2,Linux aarch64,60.0240096,,,,,,,,6,Slow,j,1,2.1084,2,2,10,3,1,,,,,
,1.86,,,,,,,,,g.PNG,g,609ecea08adc775458870a17,2021-10-19_15h46.01.613,forced_choiceRT,2021.1.2,Linux aarch64,60.0240096,,,,,,,,6,Slow,h,0,2.417,2,3,11,1,1,,,,,
,0.09,,,,,,,,,h.PNG,h,609ecea08adc775458870a17,2021-10-19_15h46.01.613,forced_choiceRT,2021.1.2,Linux aarch64,60.0240096,,,,,,,,6,Ontime,h,1,2.0471,3,0,12,2,1,,,,,
,0.77,,,,,,,,,h.PNG,h,609ecea08adc775458870a17,2021-10-19_15h46.01.613,forced_choiceRT,2021.1.2,Linux aarch64,60.0240096,,,,,,,,6,Ontime,h,1,1.9951,3,1,13,2,1,,,,,
,1.86,,,,,,,,,f.PNG,f,609ecea08adc775458870a17,2021-10-19_15h46.01.613,forced_choiceRT,2021.1.2,Linux aarch64,60.0240096,,,,,,,,6,Slow,g,0,3.1578,3,2,14,0,1,,,,,
,1.43,,,,,,,,,f.PNG,f,609ecea08adc775458870a17,2021-10-19_15h46.01.613,forced_choiceRT,2021.1.2,Linux aarch64,60.0240096,,,,,,,,6,Ontime,f,1,1.9092,3,3,15,0,1,,,,,
,1,,,,,,,,,g.PNG,g,609ecea08adc775458870a17,2021-10-19_15h46.01.613,forced_choiceRT,2021.1.2,Linux aarch64,60.0240096,,,,,,,,6,Ontime,g,1,2.066,4,0,16,1,1,,,,,
,1.73,,,,,,,,,h.PNG,h,609ecea08adc775458870a17,2021-10-19_15h46.01.613,forced_choiceRT,2021.1.2,Linux aarch64,60.0240096,,,,,,,,6,Slow,g,0,2.1438,4,1,17,2,1,,,,,
,1.38,,,,,,,,,h.PNG,h,609ecea08adc775458870a17,2021-10-19_15h46.01.613,forced_choiceRT,2021.1.2,Linux aarch64,60.0240096,,,,,,,,6,Ontime,h,1,2.0495,4,2,18,2,1,,,,,
,0.86,,,,,,,,,j.PNG,j,609ecea08adc775458870a17,2021-10-19_15h46.01.613,forced_choiceRT,2021.1.2,Linux aarch64,60.0240096,,,,,,,,6,Ontime,j,1,1.9946,4,3,19,3,1,,,,,
,1.78,,,,,,,,,f.PNG,f,609ecea08adc775458870a17,2021-10-19_15h46.01.613,forced_choiceRT,2021.1.2,Linux aarch64,60.0240096,,,,,,,,6,Ontime,h,0,2.0107,5,0,20,0,1,,,,,
,1.17,,,,,,,,,g.PNG,g,609ecea08adc775458870a17,2021-10-19_15h46.01.613,forced_choiceRT,2021.1.2,Linux aarch64,60.0240096,,,,,,,,6,Ontime,h,0,2.0158,5,1,21,1,1,,,,,
,1.35,,,,,,,,,h.PNG,h,609ecea08adc775458870a17,2021-10-19_15h46.01.613,forced_choiceRT,2021.1.2,Linux aarch64,60.0240096,,,,,,,,6,Ontime,h,1,1.9304,5,2,22,2,1,,,,,
,0.71,,,,,,,,,g.PNG,g,609ecea08adc775458870a17,2021-10-19_15h46.01.613,forced_choiceRT,2021.1.2,Linux aarch64,60.0240096,,,,,,,,6,Slow,g,1,2.1271,5,3,23,1,1,,,,,
,0.9,,,,,,,,,g.PNG,g,609ecea08adc775458870a17,2021-10-19_15h46.01.613,forced_choiceRT,2021.1.2,Linux aarch64,60.0240096,,,,,,,,6,Ontime,g,1,1.9418,6,0,24,1,1,,,,,
,0.65,,,,,,,,,f.PNG,f,609ecea08adc775458870a17,2021-10-19_15h46.01.613,forced_choiceRT,2021.1.2,Linux aarch64,60.0240096,,,,,,,,6,Slow,f,1,2.1261,6,1,25,0,1,,,,,
,1.33,,,,,,,,,j.PNG,j,609ecea08adc775458870a17,2021-10-19_15h46.01.613,forced_choiceRT,2021.1.2,Linux aarch64,60.0240096,,,,,,,,6,Slow,j,1,2.1739,6,2,26,3,1,,,,,
,0.11,,,,,,,,,f.PNG,f,609ecea08adc775458870a17,2021-10-19_15h46.01.613,forced_choiceRT,2021.1.2,Linux aarch64,60.0240096,,,,,,,,6,Ontime,f,1,2.03,6,3,27,0,1,,,,,
,1.61,,,,,,,,,f.PNG,f,609ecea08adc775458870a17,2021-10-19_15h46.01.613,forced_choiceRT,2021.1.2,Linux aarch64,60.0240096,,,,,,,,6,Ontime,g,0,1.9342,7,0,28,0,1,,,,,
,1.66,,,,,,,,,h.PNG,h,609ecea08adc775458870a17,2021-10-19_15h46.01.613,forced_choiceRT,2021.1.2,Linux aarch64,60.0240096,,,,,,,,6,Ontime,g,0,2.0307,7,1,29,2,1,,,,,
,1.68,,,,,,,,,j.PNG,j,609ecea08adc775458870a17,2021-10-19_15h46.01.613,forced_choiceRT,2021.1.2,Linux aarch64,60.0240096,,,,,,,,6,Ontime,h,0,2.0856,7,2,30,3,1,,,,,
,0.96,,,,,,,,,h.PNG,h,609ecea08adc775458870a17,2021-10-19_15h46.01.613,forced_choiceRT,2021.1.2,Linux aarch64,60.0240096,,,,,,,,6,Ontime,h,1,2.0624,7,3,31,2,1,,,,,
,1.71,,,,,,,,,j.PNG,j,609ecea08adc775458870a17,2021-10-19_15h46.01.613,forced_choiceRT,2021.1.2,Linux aarch64,60.0240096,,,,,,,,6,Ontime,h,0,1.9613,8,0,32,3,1,,,,,
,1.83,,,,,,,,,j.PNG,j,609ecea08adc775458870a17,2021-10-19_15h46.01.613,forced_choiceRT,2021.1.2,Linux aarch64,60.0240096,,,,,,,,6,Ontime,h,0,2.0461,8,1,33,3,1,,,,,
,0.39,,,,,,,,,j.PNG,j,609ecea08adc775458870a17,2021-10-19_15h46.01.613,forced_choiceRT,2021.1.2,Linux aarch64,60.0240096,,,,,,,,6,Ontime,j,1,2.0009,8,2,34,3,1,,,,,
,1.45,,,,,,,,,j.PNG,j,609ecea08adc775458870a17,2021-10-19_15h46.01.613,forced_choiceRT,2021.1.2,Linux aarch64,60.0240096,,,,,,,,6,Fast,j,1,1.8606,8,3,35,3,1,,,,,
,1.35,,,,,,,,,g.PNG,g,609ecea08adc775458870a17,2021-10-19_15h46.01.613,forced_choiceRT,2021.1.2,Linux aarch64,60.0240096,,,,,,,,6,Ontime,j,0,2.0974,9,0,36,1,1,,,,,
,1.66,,,,,,,,,f.PNG,f,609ecea08adc775458870a17,2021-10-19_15h46.01.613,forced_choiceRT,2021.1.2,Linux aarch64,60.0240096,,,,,,,,6,Ontime,j,0,1.9976,9,1,37,0,1,,,,,
,1.12,,,,,,,,,f.PNG,f,609ecea08adc775458870a17,2021-10-19_15h46.01.613,forced_choiceRT,2021.1.2,Linux aarch64,60.0240096,,,,,,,,6,Ontime,f,1,2.0645,9,2,38,0,1,,,,,
,1.78,,,,,,,,,j.PNG,j,609ecea08adc775458870a17,2021-10-19_15h46.01.613,forced_choiceRT,2021.1.2,Linux aarch64,60.0240096,,,,,,,,6,Ontime,g,0,2.0635,9,3,39,3,1,,,,,
,,,,,,,,,,,,609ecea08adc775458870a17,2021-10-19_15h46.01.613,forced_choiceRT,2021.1.2,Linux aarch64,60.0240096,,,,,,,,,,,,,,,,,,5,0,5,0,1
,1.56,,,,,,,,,j.PNG,j,609ecea08adc775458870a17,2021-10-19_15h46.01.613,forced_choiceRT,2021.1.2,Linux aarch64,60.0240096,,,,,,,,7,Fast,g,0,1.8312,0,0,0,3,1,,,,,
,0.34,,,,,,,,,f.PNG,f,609ecea08adc775458870a17,2021-10-19_15h46.01.613,forced_choiceRT,2021.1.2,Linux aarch64,60.0240096,,,,,,,,7,Ontime,f,1,1.9154,0,1,1,0,1,,,,,
,1.59,,,,,,,,,j.PNG,j,609ecea08adc775458870a17,2021-10-19_15h46.01.613,forced_choiceRT,2021.1.2,Linux aarch64,60.0240096,,,,,,,,7,Fast,g,0,1.8603,0,2,2,3,1,,,,,
,0.98,,,,,,,,,g.PNG,g,609ecea08adc775458870a17,2021-10-19_15h46.01.613,forced_choiceRT,2021.1.2,Linux aarch64,60.0240096,,,,,,,,7,Ontime,g,1,1.9935,0,3,3,1,1,,,,,
,1.35,,,,,,,,,g.PNG,g,609ecea08adc775458870a17,2021-10-19_15h46.01.613,forced_choiceRT,2021.1.2,Linux aarch64,60.0240096,,,,,,,,7,Fast,g,1,1.7433,1,0,4,1,1,,,,,
,1.58,,,,,,,,,f.PNG,f,609ecea08adc775458870a17,2021-10-19_15h46.01.613,forced_choiceRT,2021.1.2,Linux aarch64,60.0240096,,,,,,,,7,Ontime,g,0,1.9777,1,1,5,0,1,,,,,
,1.54,,,,,,,,,j.PNG,j,609ecea08adc775458870a17,2021-10-19_15h46.01.613,forced_choiceRT,2021.1.2,Linux aarch64,60.0240096,,,,,,,,7,Ontime,h,0,2.0458,1,2,6,3,1,,,,,
,0.51,,,,,,,,,h.PNG,h,609ecea08adc775458870a17,2021-10-19_15h46.01.613,forced_choiceRT,2021.1.2,Linux aarch64,60.0240096,,,,,,,,7,Ontime,h,1,2.0591,1,3,7,2,1,,,,,
,1.77,,,,,,,,,j.PNG,j,609ecea08adc775458870a17,2021-10-19_15h46.01.613,forced_choiceRT,2021.1.2,Linux aarch64,60.0240096,,,,,,,,7,Ontime,h,0,1.9955,2,0,8,3,1,,,,,
,0.42,,,,,,,,,f.PNG,f,609ecea08adc775458870a17,2021-10-19_15h46.01.613,forced_choiceRT,2021.1.2,Linux aarch64,60.0240096,,,,,,,,7,Ontime,f,1,1.9288,2,1,9,0,1,,,,,
,1.42,,,,,,,,,g.PNG,g,609ecea08adc775458870a17,2021-10-19_15h46.01.613,forced_choiceRT,2021.1.2,Linux aarch64,60.0240096,,,,,,,,7,Fast,g,1,1.777,2,2,10,1,1,,,,,
,0.75,,,,,,,,,f.PNG,f,609ecea08adc775458870a17,2021-10-19_15h46.01.613,forced_choiceRT,2021.1.2,Linux aarch64,60.0240096,,,,,,,,7,Slow,f,1,2.2475,2,3,11,0,1,,,,,
,0.74,,,,,,,,,g.PNG,g,609ecea08adc775458870a17,2021-10-19_15h46.01.613,forced_choiceRT,2021.1.2,Linux aarch64,60.0240096,,,,,,,,7,Ontime,g,1,1.9848,3,0,12,1,1,,,,,
,1.23,,,,,,,,,h.PNG,h,609ecea08adc775458870a17,2021-10-19_15h46.01.613,forced_choiceRT,2021.1.2,Linux aarch64,60.0240096,,,,,,,,7,Ontime,h,1,2.0557,3,1,13,2,1,,,,,
,0.81,,,,,,,,,h.PNG,h,609ecea08adc775458870a17,2021-10-19_15h46.01.613,forced_choiceRT,2021.1.2,Linux aarch64,60.0240096,,,,,,,,7,Ontime,h,1,1.9941,3,2,14,2,1,,,,,
,1.64,,,,,,,,,f.PNG,f,609ecea08adc775458870a17,2021-10-19_15h46.01.613,forced_choiceRT,2021.1.2,Linux aarch64,60.0240096,,,,,,,,7,Ontime,h,0,2.0639,3,3,15,0,1,,,,,
,1.16,,,,,,,,,f.PNG,f,609ecea08adc775458870a17,2021-10-19_15h46.01.613,forced_choiceRT,2021.1.2,Linux aarch64,60.0240096,,,,,,,,7,Slow,f,1,2.1067,4,0,16,0,1,,,,,
,0.28,,,,,,,,,g.PNG,g,609ecea08adc775458870a17,2021-10-19_15h46.01.613,forced_choiceRT,2021.1.2,Linux aarch64,60.0240096,,,,,,,,7,Ontime,g,1,1.9843,4,1,17,1,1,,,,,
,0.35,,,,,,,,,h.PNG,h,609ecea08adc775458870a17,2021-10-19_15h46.01.613,forced_choiceRT,2021.1.2,Linux aarch64,60.0240096,,,,,,,,7,Ontime,h,1,1.9758,4,2,18,2,1,,,,,
,0.06,,,,,,,,,g.PNG,g,609ecea08adc775458870a17,2021-10-19_15h46.01.613,forced_choiceRT,2021.1.2,Linux aarch64,60.0240096,,,,,,,,7,Ontime,g,1,1.9625,4,3,19,1,1,,,,,
,0.98,,,,,,,,,g.PNG,g,609ecea08adc775458870a17,2021-10-19_15h46.01.613,forced_choiceRT,2021.1.2,Linux aarch64,60.0240096,,,,,,,,7,Slow,g,1,2.2295,5,0,20,1,1,,,,,
,1.25,,,,,,,,,f.PNG,f,609ecea08adc775458870a17,2021-10-19_15h46.01.613,forced_choiceRT,2021.1.2,Linux aarch64,60.0240096,,,,,,,,7,Ontime,f,1,1.9519,5,1,21,0,1,,,,,
,0.51,,,,,,,,,j.PNG,j,609ecea08adc775458870a17,2021-10-19_15h46.01.613,forced_choiceRT,2021.1.2,Linux aarch64,60.0240096,,,,,,,,7,Ontime,j,1,2.0498,5,2,22,3,1,,,,,
,0.73,,,,,,,,,h.PNG,h,609ecea08adc775458870a17,2021-10-19_15h46.01.613,forced_choiceRT,2021.1.2,Linux aarch64,60.0240096,,,,,,,,7,Ontime,h,1,2.0602,5,3,23,2,1,,,,,
,0.13,,,,,,,,,h.PNG,h,609ecea08adc775458870a17,2021-10-19_15h46.01.613,forced_choiceRT,2021.1.2,Linux aarch64,60.0240096,,,,,,,,7,Fast,h,1,1.7652,6,0,24,2,1,,,,,
,0.13,,,,,,,,,j.PNG,j,609ecea08adc775458870a17,2021-10-19_15h46.01.613,forced_choiceRT,2021.1.2,Linux aarch64,60.0240096,,,,,,,,7,Ontime,j,1,1.9655,6,1,25,3,1,,,,,
,0.65,,,,,,,,,g.PNG,g,609ecea08adc775458870a17,2021-10-19_15h46.01.613,forced_choiceRT,2021.1.2,Linux aarch64,60.0240096,,,,,,,,7,Ontime,g,1,1.9995,6,2,26,1,1,,,,,
,0.11,,,,,,,,,f.PNG,f,609ecea08adc775458870a17,2021-10-19_15h46.01.613,forced_choiceRT,2021.1.2,Linux aarch64,60.0240096,,,,,,,,7,Ontime,f,1,1.9743,6,3,27,0,1,,,,,
,1.73,,,,,,,,,h.PNG,h,609ecea08adc775458870a17,2021-10-19_15h46.01.613,forced_choiceRT,2021.1.2,Linux aarch64,60.0240096,,,,,,,,7,Ontime,g,0,2.0315,7,0,28,2,1,,,,,
,0.16,,,,,,,,,j.PNG,j,609ecea08adc775458870a17,2021-10-19_15h46.01.613,forced_choiceRT,2021.1.2,Linux aarch64,60.0240096,,,,,,,,7,Ontime,j,1,1.9936,7,1,29,3,1,,,,,
,0.74,,,,,,,,,f.PNG,f,609ecea08adc775458870a17,2021-10-19_15h46.01.613,forced_choiceRT,2021.1.2,Linux aarch64,60.0240096,,,,,,,,7,Slow,f,1,2.225,7,2,30,0,1,,,,,
,1.32,,,,,,,,,h.PNG,h,609ecea08adc775458870a17,2021-10-19_15h46.01.613,forced_choiceRT,2021.1.2,Linux aarch64,60.0240096,,,,,,,,7,Fast,g,0,1.7144,7,3,31,2,1,,,,,
,1.9,,,,,,,,,f.PNG,f,609ecea08adc775458870a17,2021-10-19_15h46.01.613,forced_choiceRT,2021.1.2,Linux aarch64,60.0240096,,,,,,,,7,Ontime,g,0,1.9981,8,0,32,0,1,,,,,
,0.47,,,,,,,,,j.PNG,j,609ecea08adc775458870a17,2021-10-19_15h46.01.613,forced_choiceRT,2021.1.2,Linux aarch64,60.0240096,,,,,,,,7,Ontime,j,1,2.0903,8,1,33,3,1,,,,,
,0.66,,,,,,,,,g.PNG,g,609ecea08adc775458870a17,2021-10-19_15h46.01.613,forced_choiceRT,2021.1.2,Linux aarch64,60.0240096,,,,,,,,7,Fast,g,1,1.8333,8,2,34,1,1,,,,,
,0.52,,,,,,,,,h.PNG,h,609ecea08adc775458870a17,2021-10-19_15h46.01.613,forced_choiceRT,2021.1.2,Linux aarch64,60.0240096,,,,,,,,7,Ontime,h,1,2.0128,8,3,35,2,1,,,,,
,1.78,,,,,,,,,j.PNG,j,609ecea08adc775458870a17,2021-10-19_15h46.01.613,forced_choiceRT,2021.1.2,Linux aarch64,60.0240096,,,,,,,,7,Ontime,h,0,1.9464,9,0,36,3,1,,,,,
,0.47,,,,,,,,,j.PNG,j,609ecea08adc775458870a17,2021-10-19_15h46.01.613,forced_choiceRT,2021.1.2,Linux aarch64,60.0240096,,,,,,,,7,Ontime,j,1,2.0286,9,1,37,3,1,,,,,
,1.27,,,,,,,,,g.PNG,g,609ecea08adc775458870a17,2021-10-19_15h46.01.613,forced_choiceRT,2021.1.2,Linux aarch64,60.0240096,,,,,,,,7,Fast,h,0,1.7127,9,2,38,1,1,,,,,
,1.88,,,,,,,,,h.PNG,h,609ecea08adc775458870a17,2021-10-19_15h46.01.613,forced_choiceRT,2021.1.2,Linux aarch64,60.0240096,,,,,,,,7,Ontime,g,0,2.0463,9,3,39,2,1,,,,,
,,,,,,,,,,,,609ecea08adc775458870a17,2021-10-19_15h46.01.613,forced_choiceRT,2021.1.2,Linux aarch64,60.0240096,,,,,,,,,,,,,,,,,,6,0,6,0,1
,1.15,,,,,,,,,j.PNG,j,609ecea08adc775458870a17,2021-10-19_15h46.01.613,forced_choiceRT,2021.1.2,Linux aarch64,60.0240096,,,,,,,,8,Ontime,j,1,2.041,0,0,0,3,1,,,,,
,0.41,,,,,,,,,f.PNG,f,609ecea08adc775458870a17,2021-10-19_15h46.01.613,forced_choiceRT,2021.1.2,Linux aarch64,60.0240096,,,,,,,,8,Ontime,f,1,1.9758,0,1,1,0,1,,,,,
,0.77,,,,,,,,,f.PNG,f,609ecea08adc775458870a17,2021-10-19_15h46.01.613,forced_choiceRT,2021.1.2,Linux aarch64,60.0240096,,,,,,,,8,Ontime,f,1,2.0836,0,2,2,0,1,,,,,
,0.24,,,,,,,,,h.PNG,h,609ecea08adc775458870a17,2021-10-19_15h46.01.613,forced_choiceRT,2021.1.2,Linux aarch64,60.0240096,,,,,,,,8,Ontime,h,1,1.9444,0,3,3,2,1,,,,,
,1.78,,,,,,,,,f.PNG,f,609ecea08adc775458870a17,2021-10-19_15h46.01.613,forced_choiceRT,2021.1.2,Linux aarch64,60.0240096,,,,,,,,8,Ontime,h,0,1.9645,1,0,4,0,1,,,,,
,1.43,,,,,,,,,j.PNG,j,609ecea08adc775458870a17,2021-10-19_15h46.01.613,forced_choiceRT,2021.1.2,Linux aarch64,60.0240096,,,,,,,,8,Ontime,h,0,2.0318,1,1,5,3,1,,,,,
,0.51,,,,,,,,,f.PNG,f,609ecea08adc775458870a17,2021-10-19_15h46.01.613,forced_choiceRT,2021.1.2,Linux aarch64,60.0240096,,,,,,,,8,Slow,f,1,2.1967,1,2,6,0,1,,,,,
,0.44,,,,,,,,,j.PNG,j,609ecea08adc775458870a17,2021-10-19_15h46.01.613,forced_choiceRT,2021.1.2,Linux aarch64,60.0240096,,,,,,,,8,Fast,j,1,1.7639,1,3,7,3,1,,,,,
,1.15,,,,,,,,,j.PNG,j,609ecea08adc775458870a17,2021-10-19_15h46.01.613,forced_choiceRT,2021.1.2,Linux aarch64,60.0240096,,,,,,,,8,Ontime,j,1,2.0479,2,0,8,3,1,,,,,
,1.09,,,,,,,,,j.PNG,j,609ecea08adc775458870a17,2021-10-19_15h46.01.613,forced_choiceRT,2021.1.2,Linux aarch64,60.0240096,,,,,,,,8,Ontime,j,1,1.9745,2,1,9,3,1,,,,,
,0.17,,,,,,,,,j.PNG,j,609ecea08adc775458870a17,2021-10-19_15h46.01.613,forced_choiceRT,2021.1.2,Linux aarch64,60.0240096,,,,,,,,8,Ontime,j,1,1.9463,2,2,10,3,1,,,,,
,0.81,,,,,,,,,f.PNG,f,609ecea08adc775458870a17,2021-10-19_15h46.01.613,forced_choiceRT,2021.1.2,Linux aarch64,60.0240096,,,,,,,,8,Slow,f,1,2.1986,2,3,11,0,1,,,,,
,0.58,,,,,,,,,g.PNG,g,609ecea08adc775458870a17,2021-10-19_15h46.01.613,forced_choiceRT,2021.1.2,Linux aarch64,60.0240096,,,,,,,,8,Fast,g,1,1.7801,3,0,12,1,1,,,,,
,1.51,,,,,,,,,g.PNG,g,609ecea08adc775458870a17,2021-10-19_15h46.01.613,forced_choiceRT,2021.1.2,Linux aarch64,60.0240096,,,,,,,,8,Ontime,g,1,1.9142,3,1,13,1,1,,,,,
,0.06,,,,,,,,,g.PNG,g,609ecea08adc775458870a17,2021-10-19_15h46.01.613,forced_choiceRT,2021.1.2,Linux aarch64,60.0240096,,,,,,,,8,Ontime,g,1,2.0125,3,2,14,1,1,,,,,
,0.08,,,,,,,,,f.PNG,f,609ecea08adc775458870a17,2021-10-19_15h46.01.613,forced_choiceRT,2021.1.2,Linux aarch64,60.0240096,,,,,,,,8,Ontime,f,1,2.0424,3,3,15,0,1,,,,,
,1.21,,,,,,,,,h.PNG,h,609ecea08adc775458870a17,2021-10-19_15h46.01.613,forced_choiceRT,2021.1.2,Linux aarch64,60.0240096,,,,,,,,8,Ontime,h,1,2.0137,4,0,16,2,1,,,,,
,0.79,,,,,,,,,f.PNG,f,609ecea08adc775458870a17,2021-10-19_15h46.01.613,forced_choiceRT,2021.1.2,Linux aarch64,60.0240096,,,,,,,,8,Ontime,f,1,2.0305,4,1,17,0,1,,,,,
,0.93,,,,,,,,,h.PNG,h,609ecea08adc775458870a17,2021-10-19_15h46.01.613,forced_choiceRT,2021.1.2,Linux aarch64,60.0240096,,,,,,,,8,Ontime,h,1,2.0274,4,2,18,2,1,,,,,
,0.44,,,,,,,,,g.PNG,g,609ecea08adc775458870a17,2021-10-19_15h46.01.613,forced_choiceRT,2021.1.2,Linux aarch64,60.0240096,,,,,,,,8,Ontime,g,1,2.0158,4,3,19,1,1,,,,,
,0.76,,,,,,,,,f.PNG,f,609ecea08adc775458870a17,2021-10-19_15h46.01.613,forced_choiceRT,2021.1.2,Linux aarch64,60.0240096,,,,,,,,8,Ontime,f,1,1.9333,5,0,20,0,1,,,,,
,1.47,,,,,,,,,h.PNG,h,609ecea08adc775458870a17,2021-10-19_15h46.01.613,forced_choiceRT,2021.1.2,Linux aarch64,60.0240096,,,,,,,,8,Ontime,g,0,2.0354,5,1,21,2,1,,,,,
,0.88,,,,,,,,,g.PNG,g,609ecea08adc775458870a17,2021-10-19_15h46.01.613,forced_choiceRT,2021.1.2,Linux aarch64,60.0240096,,,,,,,,8,Ontime,g,1,1.9489,5,2,22,1,1,,,,,
,0.22,,,,,,,,,f.PNG,f,609ecea08adc775458870a17,2021-10-19_15h46.01.613,forced_choiceRT,2021.1.2,Linux aarch64,60.0240096,,,,,,,,8,Ontime,f,1,1.9648,5,3,23,0,1,,,,,
,1.88,,,,,,,,,j.PNG,j,609ecea08adc775458870a17,2021-10-19_15h46.01.613,forced_choiceRT,2021.1.2,Linux aarch64,60.0240096,,,,,,,,8,Ontime,g,0,2.0083,6,0,24,3,1,,,,,
,0.53,,,,,,,,,j.PNG,j,609ecea08adc775458870a17,2021-10-19_15h46.01.613,forced_choiceRT,2021.1.2,Linux aarch64,60.0240096,,,,,,,,8,Ontime,j,1,1.9788,6,1,25,3,1,,,,,
,0.56,,,,,,,,,j.PNG,j,609ecea08adc775458870a17,2021-10-19_15h46.01.613,forced_choiceRT,2021.1.2,Linux aarch64,60.0240096,,,,,,,,8,Fast,j,1,1.864,6,2,26,3,1,,,,,
,1.89,,,,,,,,,h.PNG,h,609ecea08adc775458870a17,2021-10-19_15h46.01.613,forced_choiceRT,2021.1.2,Linux aarch64,60.0240096,,,,,,,,8,Ontime,h,1,1.9992,6,3,27,2,1,,,,,
,0.21,,,,,,,,,h.PNG,h,609ecea08adc775458870a17,2021-10-19_15h46.01.613,forced_choiceRT,2021.1.2,Linux aarch64,60.0240096,,,,,,,,8,Ontime,h,1,1.9917,7,0,28,2,1,,,,,
,1.31,,,,,,,,,g.PNG,g,609ecea08adc775458870a17,2021-10-19_15h46.01.613,forced_choiceRT,2021.1.2,Linux aarch64,60.0240096,,,,,,,,8,Ontime,g,1,1.9944,7,1,29,1,1,,,,,
,1.06,,,,,,,,,g.PNG,g,609ecea08adc775458870a17,2021-10-19_15h46.01.613,forced_choiceRT,2021.1.2,Linux aarch64,60.0240096,,,,,,,,8,Ontime,g,1,1.9806,7,2,30,1,1,,,,,
,1.46,,,,,,,,,h.PNG,h,609ecea08adc775458870a17,2021-10-19_15h46.01.613,forced_choiceRT,2021.1.2,Linux aarch64,60.0240096,,,,,,,,8,Fast,g,0,1.8977,7,3,31,2,1,,,,,
,1.14,,,,,,,,,h.PNG,h,609ecea08adc775458870a17,2021-10-19_15h46.01.613,forced_choiceRT,2021.1.2,Linux aarch64,60.0240096,,,,,,,,8,Ontime,h,1,1.9083,8,0,32,2,1,,,,,
,0.38,,,,,,,,,j.PNG,j,609ecea08adc775458870a17,2021-10-19_15h46.01.613,forced_choiceRT,2021.1.2,Linux aarch64,60.0240096,,,,,,,,8,Ontime,j,1,1.9992,8,1,33,3,1,,,,,
,0.38,,,,,,,,,f.PNG,f,609ecea08adc775458870a17,2021-10-19_15h46.01.613,forced_choiceRT,2021.1.2,Linux aarch64,60.0240096,,,,,,,,8,Ontime,f,1,2.0146,8,2,34,0,1,,,,,
,1.11,,,,,,,,,h.PNG,h,609ecea08adc775458870a17,2021-10-19_15h46.01.613,forced_choiceRT,2021.1.2,Linux aarch64,60.0240096,,,,,,,,8,Slow,h,1,2.2827,8,3,35,2,1,,,,,
,1,,,,,,,,,g.PNG,g,609ecea08adc775458870a17,2021-10-19_15h46.01.613,forced_choiceRT,2021.1.2,Linux aarch64,60.0240096,,,,,,,,8,Fast,g,1,1.8697,9,0,36,1,1,,,,,
,0.98,,,,,,,,,h.PNG,h,609ecea08adc775458870a17,2021-10-19_15h46.01.613,forced_choiceRT,2021.1.2,Linux aarch64,60.0240096,,,,,,,,8,Ontime,h,1,1.9265,9,1,37,2,1,,,,,
,1.66,,,,,,,,,g.PNG,g,609ecea08adc775458870a17,2021-10-19_15h46.01.613,forced_choiceRT,2021.1.2,Linux aarch64,60.0240096,,,,,,,,8,Ontime,h,0,1.9658,9,2,38,1,1,,,,,
,1.5,,,,,,,,,g.PNG,g,609ecea08adc775458870a17,2021-10-19_15h46.01.613,forced_choiceRT,2021.1.2,Linux aarch64,60.0240096,,,,,,,,8,Ontime,g,1,2.0346,9,3,39,1,1,,,,,
,,,,,,,,,,,,609ecea08adc775458870a17,2021-10-19_15h46.01.613,forced_choiceRT,2021.1.2,Linux aarch64,60.0240096,,,,,,,,,,,,,,,,,,7,0,7,0,1
,1.15,,,,,,,,,h.PNG,h,609ecea08adc775458870a17,2021-10-19_15h46.01.613,forced_choiceRT,2021.1.2,Linux aarch64,60.0240096,,,,,,,,9,Ontime,f,0,2.0023,0,0,0,2,1,,,,,
,1.61,,,,,,,,,g.PNG,g,609ecea08adc775458870a17,2021-10-19_15h46.01.613,forced_choiceRT,2021.1.2,Linux aarch64,60.0240096,,,,,,,,9,Ontime,g,1,1.9975,0,1,1,1,1,,,,,
,1.79,,,,,,,,,g.PNG,g,609ecea08adc775458870a17,2021-10-19_15h46.01.613,forced_choiceRT,2021.1.2,Linux aarch64,60.0240096,,,,,,,,9,Ontime,f,0,1.9131,0,2,2,1,1,,,,,
,0.98,,,,,,,,,f.PNG,f,609ecea08adc775458870a17,2021-10-19_15h46.01.613,forced_choiceRT,2021.1.2,Linux aarch64,60.0240096,,,,,,,,9,Slow,f,1,4.072,0,3,3,0,1,,,,,
,1.42,,,,,,,,,f.PNG,f,609ecea08adc775458870a17,2021-10-19_15h46.01.613,forced_choiceRT,2021.1.2,Linux aarch64,60.0240096,,,,,,,,9,Fast,g,0,1.7642,1,0,4,0,1,,,,,
,0.02,,,,,,,,,f.PNG,f,609ecea08adc775458870a17,2021-10-19_15h46.01.613,forced_choiceRT,2021.1.2,Linux aarch64,60.0240096,,,,,,,,9,Ontime,f,1,1.9811,1,1,5,0,1,,,,,
,0.05,,,,,,,,,j.PNG,j,609ecea08adc775458870a17,2021-10-19_15h46.01.613,forced_choiceRT,2021.1.2,Linux aarch64,60.0240096,,,,,,,,9,Fast,j,1,1.3187,1,2,6,3,1,,,,,
,1.79,,,,,,,,,f.PNG,f,609ecea08adc775458870a17,2021-10-19_15h46.01.613,forced_choiceRT,2021.1.2,Linux aarch64,60.0240096,,,,,,,,9,Ontime,h,0,2.0085,1,3,7,0,1,,,,,
,1.76,,,,,,,,,f.PNG,f,609ecea08adc775458870a17,2021-10-19_15h46.01.613,forced_choiceRT,2021.1.2,Linux aarch64,60.0240096,,,,,,,,9,Ontime,h,0,1.9925,2,0,8,0,1,,,,,
,1.84,,,,,,,,,h.PNG,h,609ecea08adc775458870a17,2021-10-19_15h46.01.613,forced_choiceRT,2021.1.2,Linux aarch64,60.0240096,,,,,,,,9,Ontime,f,0,2.0289,2,1,9,2,1,,,,,
,1.91,,,,,,,,,j.PNG,j,609ecea08adc775458870a17,2021-10-19_15h46.01.613,forced_choiceRT,2021.1.2,Linux aarch64,60.0240096,,,,,,,,9,Fast,g,0,1.885,2,2,10,3,1,,,,,
,0.78,,,,,,,,,g.PNG,g,609ecea08adc775458870a17,2021-10-19_15h46.01.613,forced_choiceRT,2021.1.2,Linux aarch64,60.0240096,,,,,,,,9,Slow,g,1,2.2134,2,3,11,1,1,,,,,
,0.69,,,,,,,,,h.PNG,h,609ecea08adc775458870a17,2021-10-19_15h46.01.613,forced_choiceRT,2021.1.2,Linux aarch64,60.0240096,,,,,,,,9,Ontime,h,1,2.0473,3,0,12,2,1,,,,,
,1.31,,,,,,,,,j.PNG,j,609ecea08adc775458870a17,2021-10-19_15h46.01.613,forced_choiceRT,2021.1.2,Linux aarch64,60.0240096,,,,,,,,9,Ontime,h,0,2.0135,3,1,13,3,1,,,,,
,1.54,,,,,,,,,f.PNG,f,609ecea08adc775458870a17,2021-10-19_15h46.01.613,forced_choiceRT,2021.1.2,Linux aarch64,60.0240096,,,,,,,,9,Fast,h,0,1.8793,3,2,14,0,1,,,,,
,1.54,,,,,,,,,j.PNG,j,609ecea08adc775458870a17,2021-10-19_15h46.01.613,forced_choiceRT,2021.1.2,Linux aarch64,60.0240096,,,,,,,,9,Ontime,h,0,2.0025,3,3,15,3,1,,,,,
,1.87,,,,,,,,,h.PNG,h,609ecea08adc775458870a17,2021-10-19_15h46.01.613,forced_choiceRT,2021.1.2,Linux aarch64,60.0240096,,,,,,,,9,Ontime,h,1,1.9982,4,0,16,2,1,,,,,
,0.85,,,,,,,,,j.PNG,j,609ecea08adc775458870a17,2021-10-19_15h46.01.613,forced_choiceRT,2021.1.2,Linux aarch64,60.0240096,,,,,,,,9,Ontime,j,1,1.9453,4,1,17,3,1,,,,,
,1.58,,,,,,,,,g.PNG,g,609ecea08adc775458870a17,2021-10-19_15h46.01.613,forced_choiceRT,2021.1.2,Linux aarch64,60.0240096,,,,,,,,9,Ontime,h,0,1.9319,4,2,18,1,1,,,,,
,1.7,,,,,,,,,f.PNG,f,609ecea08adc775458870a17,2021-10-19_15h46.01.613,forced_choiceRT,2021.1.2,Linux aarch64,60.0240096,,,,,,,,9,Ontime,h,0,2.0979,4,3,19,0,1,,,,,
,0.76,,,,,,,,,f.PNG,f,609ecea08adc775458870a17,2021-10-19_15h46.01.613,forced_choiceRT,2021.1.2,Linux aarch64,60.0240096,,,,,,,,9,Slow,f,1,2.2293,5,0,20,0,1,,,,,
,0.82,,,,,,,,,g.PNG,g,609ecea08adc775458870a17,2021-10-19_15h46.01.613,forced_choiceRT,2021.1.2,Linux aarch64,60.0240096,,,,,,,,9,Ontime,g,1,1.9319,5,1,21,1,1,,,,,
,0.71,,,,,,,,,g.PNG,g,609ecea08adc775458870a17,2021-10-19_15h46.01.613,forced_choiceRT,2021.1.2,Linux aarch64,60.0240096,,,,,,,,9,Fast,g,1,1.7638,5,2,22,1,1,,,,,
,1.18,,,,,,,,,h.PNG,h,609ecea08adc775458870a17,2021-10-19_15h46.01.613,forced_choiceRT,2021.1.2,Linux aarch64,60.0240096,,,,,,,,9,Fast,h,1,1.7795,5,3,23,2,1,,,,,
,0.99,,,,,,,,,g.PNG,g,609ecea08adc775458870a17,2021-10-19_15h46.01.613,forced_choiceRT,2021.1.2,Linux aarch64,60.0240096,,,,,,,,9,Fast,g,1,1.879,6,0,24,1,1,,,,,
,0.63,,,,,,,,,j.PNG,j,609ecea08adc775458870a17,2021-10-19_15h46.01.613,forced_choiceRT,2021.1.2,Linux aarch64,60.0240096,,,,,,,,9,Ontime,j,1,2.0152,6,1,25,3,1,,,,,
,1.51,,,,,,,,,h.PNG,h,609ecea08adc775458870a17,2021-10-19_15h46.01.613,forced_choiceRT,2021.1.2,Linux aarch64,60.0240096,,,,,,,,9,Ontime,h,1,2.0784,6,2,26,2,1,,,,,
,1.85,,,,,,,,,j.PNG,j,609ecea08adc775458870a17,2021-10-19_15h46.01.613,forced_choiceRT,2021.1.2,Linux aarch64,60.0240096,,,,,,,,9,Slow,g,0,2.1771,6,3,27,3,1,,,,,
,1.65,,,,,,,,,h.PNG,h,609ecea08adc775458870a17,2021-10-19_15h46.01.613,forced_choiceRT,2021.1.2,Linux aarch64,60.0240096,,,,,,,,9,Ontime,h,1,1.9658,7,0,28,2,1,,,,,
,0.17,,,,,,,,,f.PNG,f,609ecea08adc775458870a17,2021-10-19_15h46.01.613,forced_choiceRT,2021.1.2,Linux aarch64,60.0240096,,,,,,,,9,Slow,f,1,2.2308,7,1,29,0,1,,,,,
,1.29,,,,,,,,,f.PNG,f,609ecea08adc775458870a17,2021-10-19_15h46.01.613,forced_choiceRT,2021.1.2,Linux aarch64,60.0240096,,,,,,,,9,Ontime,f,1,2.0331,7,2,30,0,1,,,,,
,0.96,,,,,,,,,h.PNG,h,609ecea08adc775458870a17,2021-10-19_15h46.01.613,forced_choiceRT,2021.1.2,Linux aarch64,60.0240096,,,,,,,,9,Slow,h,1,2.3289,7,3,31,2,1,,,,,
,0.75,,,,,,,,,h.PNG,h,609ecea08adc775458870a17,2021-10-19_15h46.01.613,forced_choiceRT,2021.1.2,Linux aarch64,60.0240096,,,,,,,,9,Ontime,h,1,2.0113,8,0,32,2,1,,,,,
,1.2,,,,,,,,,g.PNG,g,609ecea08adc775458870a17,2021-10-19_15h46.01.613,forced_choiceRT,2021.1.2,Linux aarch64,60.0240096,,,,,,,,9,Ontime,g,1,2.0294,8,1,33,1,1,,,,,
,1.07,,,,,,,,,g.PNG,g,609ecea08adc775458870a17,2021-10-19_15h46.01.613,forced_choiceRT,2021.1.2,Linux aarch64,60.0240096,,,,,,,,9,Ontime,g,1,2.0966,8,2,34,1,1,,,,,
,0.3,,,,,,,,,j.PNG,j,609ecea08adc775458870a17,2021-10-19_15h46.01.613,forced_choiceRT,2021.1.2,Linux aarch64,60.0240096,,,,,,,,9,Ontime,j,1,2.0807,8,3,35,3,1,,,,,
,1.74,,,,,,,,,j.PNG,j,609ecea08adc775458870a17,2021-10-19_15h46.01.613,forced_choiceRT,2021.1.2,Linux aarch64,60.0240096,,,,,,,,9,Ontime,h,0,1.9777,9,0,36,3,1,,,,,
,1.34,,,,,,,,,g.PNG,g,609ecea08adc775458870a17,2021-10-19_15h46.01.613,forced_choiceRT,2021.1.2,Linux aarch64,60.0240096,,,,,,,,9,Ontime,h,0,2.0758,9,1,37,1,1,,,,,
,0.87,,,,,,,,,j.PNG,j,609ecea08adc775458870a17,2021-10-19_15h46.01.613,forced_choiceRT,2021.1.2,Linux aarch64,60.0240096,,,,,,,,9,Ontime,j,1,1.9502,9,2,38,3,1,,,,,
,0.51,,,,,,,,,h.PNG,h,609ecea08adc775458870a17,2021-10-19_15h46.01.613,forced_choiceRT,2021.1.2,Linux aarch64,60.0240096,,,,,,,,9,Ontime,h,1,2.0158,9,3,39,2,1,,,,,
,,,,,,,,,,,,609ecea08adc775458870a17,2021-10-19_15h46.01.613,forced_choiceRT,2021.1.2,Linux aarch64,60.0240096,,,,,,,,,,,,,,,,,,8,0,8,0,1
,0.25,,,,,,,,,j.PNG,j,609ecea08adc775458870a17,2021-10-19_15h46.01.613,forced_choiceRT,2021.1.2,Linux aarch64,60.0240096,,,,,,,,10,Ontime,j,1,2.0251,0,0,0,3,1,,,,,
,1.55,,,,,,,,,h.PNG,h,609ecea08adc775458870a17,2021-10-19_15h46.01.613,forced_choiceRT,2021.1.2,Linux aarch64,60.0240096,,,,,,,,10,Ontime,h,1,1.9621,0,1,1,2,1,,,,,
,1.67,,,,,,,,,g.PNG,g,609ecea08adc775458870a17,2021-10-19_15h46.01.613,forced_choiceRT,2021.1.2,Linux aarch64,60.0240096,,,,,,,,10,Ontime,h,0,1.9139,0,2,2,1,1,,,,,
,1.44,,,,,,,,,h.PNG,h,609ecea08adc775458870a17,2021-10-19_15h46.01.613,forced_choiceRT,2021.1.2,Linux aarch64,60.0240096,,,,,,,,10,Ontime,h,1,1.9947,0,3,3,2,1,,,,,
,0.67,,,,,,,,,f.PNG,f,609ecea08adc775458870a17,2021-10-19_15h46.01.613,forced_choiceRT,2021.1.2,Linux aarch64,60.0240096,,,,,,,,10,Ontime,f,1,2.0103,1,0,4,0,1,,,,,
,0.21,,,,,,,,,g.PNG,g,609ecea08adc775458870a17,2021-10-19_15h46.01.613,forced_choiceRT,2021.1.2,Linux aarch64,60.0240096,,,,,,,,10,Ontime,g,1,1.9969,1,1,5,1,1,,,,,
,1.98,,,,,,,,,h.PNG,h,609ecea08adc775458870a17,2021-10-19_15h46.01.613,forced_choiceRT,2021.1.2,Linux aarch64,60.0240096,,,,,,,,10,Ontime,h,1,2.0276,1,2,6,2,1,,,,,
,1.24,,,,,,,,,f.PNG,f,609ecea08adc775458870a17,2021-10-19_15h46.01.613,forced_choiceRT,2021.1.2,Linux aarch64,60.0240096,,,,,,,,10,Slow,f,1,2.1503,1,3,7,0,1,,,,,
,1.53,,,,,,,,,j.PNG,j,609ecea08adc775458870a17,2021-10-19_15h46.01.613,forced_choiceRT,2021.1.2,Linux aarch64,60.0240096,,,,,,,,10,Ontime,g,0,1.9138,2,0,8,3,1,,,,,
,1.64,,,,,,,,,g.PNG,g,609ecea08adc775458870a17,2021-10-19_15h46.01.613,forced_choiceRT,2021.1.2,Linux aarch64,60.0240096,,,,,,,,10,Fast,g,1,1.8591,2,1,9,1,1,,,,,
,0.79,,,,,,,,,j.PNG,j,609ecea08adc775458870a17,2021-10-19_15h46.01.613,forced_choiceRT,2021.1.2,Linux aarch64,60.0240096,,,,,,,,10,Ontime,j,1,1.9619,2,2,10,3,1,,,,,
,0.71,,,,,,,,,j.PNG,j,609ecea08adc775458870a17,2021-10-19_15h46.01.613,forced_choiceRT,2021.1.2,Linux aarch64,60.0240096,,,,,,,,10,Ontime,j,1,2.0501,2,3,11,3,1,,,,,
,0.15,,,,,,,,,j.PNG,j,609ecea08adc775458870a17,2021-10-19_15h46.01.613,forced_choiceRT,2021.1.2,Linux aarch64,60.0240096,,,,,,,,10,Ontime,j,1,1.9707,3,0,12,3,1,,,,,
,1.21,,,,,,,,,h.PNG,h,609ecea08adc775458870a17,2021-10-19_15h46.01.613,forced_choiceRT,2021.1.2,Linux aarch64,60.0240096,,,,,,,,10,Ontime,h,1,1.9439,3,1,13,2,1,,,,,
,0.48,,,,,,,,,g.PNG,g,609ecea08adc775458870a17,2021-10-19_15h46.01.613,forced_choiceRT,2021.1.2,Linux aarch64,60.0240096,,,,,,,,10,Ontime,g,1,1.9951,3,2,14,1,1,,,,,
,0.15,,,,,,,,,f.PNG,f,609ecea08adc775458870a17,2021-10-19_15h46.01.613,forced_choiceRT,2021.1.2,Linux aarch64,60.0240096,,,,,,,,10,Ontime,f,1,2.0636,3,3,15,0,1,,,,,
,1.94,,,,,,,,,h.PNG,h,609ecea08adc775458870a17,2021-10-19_15h46.01.613,forced_choiceRT,2021.1.2,Linux aarch64,60.0240096,,,,,,,,10,Fast,g,0,1.7458,4,0,16,2,1,,,,,
,0.8,,,,,,,,,f.PNG,f,609ecea08adc775458870a17,2021-10-19_15h46.01.613,forced_choiceRT,2021.1.2,Linux aarch64,60.0240096,,,,,,,,10,Ontime,f,1,2.0433,4,1,17,0,1,,,,,
,0.66,,,,,,,,,j.PNG,j,609ecea08adc775458870a17,2021-10-19_15h46.01.613,forced_choiceRT,2021.1.2,Linux aarch64,60.0240096,,,,,,,,10,Fast,j,1,1.8429,4,2,18,3,1,,,,,
,0.64,,,,,,,,,h.PNG,h,609ecea08adc775458870a17,2021-10-19_15h46.01.613,forced_choiceRT,2021.1.2,Linux aarch64,60.0240096,,,,,,,,10,Fast,h,1,1.5959,4,3,19,2,1,,,,,
,0.25,,,,,,,,,j.PNG,j,609ecea08adc775458870a17,2021-10-19_15h46.01.613,forced_choiceRT,2021.1.2,Linux aarch64,60.0240096,,,,,,,,10,Ontime,j,1,1.9344,5,0,20,3,1,,,,,
,0.7,,,,,,,,,f.PNG,f,609ecea08adc775458870a17,2021-10-19_15h46.01.613,forced_choiceRT,2021.1.2,Linux aarch64,60.0240096,,,,,,,,10,Ontime,f,1,2.013,5,1,21,0,1,,,,,
,0.39,,,,,,,,,f.PNG,f,609ecea08adc775458870a17,2021-10-19_15h46.01.613,forced_choiceRT,2021.1.2,Linux aarch64,60.0240096,,,,,,,,10,Ontime,f,1,2.0262,5,2,22,0,1,,,,,
,0.88,,,,,,,,,f.PNG,f,609ecea08adc775458870a17,2021-10-19_15h46.01.613,forced_choiceRT,2021.1.2,Linux aarch64,60.0240096,,,,,,,,10,Ontime,f,1,2.0292,5,3,23,0,1,,,,,
,1.4,,,,,,,,,g.PNG,g,609ecea08adc775458870a17,2021-10-19_15h46.01.613,forced_choiceRT,2021.1.2,Linux aarch64,60.0240096,,,,,,,,10,Fast,f,0,1.8472,6,0,24,1,1,,,,,
,1.37,,,,,,,,,f.PNG,f,609ecea08adc775458870a17,2021-10-19_15h46.01.613,forced_choiceRT,2021.1.2,Linux aarch64,60.0240096,,,,,,,,10,Ontime,f,1,2.0641,6,1,25,0,1,,,,,
,1.87,,,,,,,,,g.PNG,g,609ecea08adc775458870a17,2021-10-19_15h46.01.613,forced_choiceRT,2021.1.2,Linux aarch64,60.0240096,,,,,,,,10,Slow,g,1,2.2132,6,2,26,1,1,,,,,
,0.14,,,,,,,,,j.PNG,j,609ecea08adc775458870a17,2021-10-19_15h46.01.613,forced_choiceRT,2021.1.2,Linux aarch64,60.0240096,,,,,,,,10,Fast,h,0,1.5449,6,3,27,3,1,,,,,
,1.89,,,,,,,,,h.PNG,h,609ecea08adc775458870a17,2021-10-19_15h46.01.613,forced_choiceRT,2021.1.2,Linux aarch64,60.0240096,,,,,,,,10,Slow,h,1,2.9821,7,0,28,2,1,,,,,
,1.82,,,,,,,,,j.PNG,j,609ecea08adc775458870a17,2021-10-19_15h46.01.613,forced_choiceRT,2021.1.2,Linux aarch64,60.0240096,,,,,,,,10,Ontime,h,0,2.0311,7,1,29,3,1,,,,,
,1.04,,,,,,,,,g.PNG,g,609ecea08adc775458870a17,2021-10-19_15h46.01.613,forced_choiceRT,2021.1.2,Linux aarch64,60.0240096,,,,,,,,10,Ontime,h,0,1.965,7,2,30,1,1,,,,,
,1.45,,,,,,,,,j.PNG,j,609ecea08adc775458870a17,2021-10-19_15h46.01.613,forced_choiceRT,2021.1.2,Linux aarch64,60.0240096,,,,,,,,10,Fast,h,0,1.8977,7,3,31,3,1,,,,,
,0.91,,,,,,,,,f.PNG,f,609ecea08adc775458870a17,2021-10-19_15h46.01.613,forced_choiceRT,2021.1.2,Linux aarch64,60.0240096,,,,,,,,10,Ontime,f,1,1.9814,8,0,32,0,1,,,,,
,0.94,,,,,,,,,h.PNG,h,609ecea08adc775458870a17,2021-10-19_15h46.01.613,forced_choiceRT,2021.1.2,Linux aarch64,60.0240096,,,,,,,,10,Ontime,h,1,1.9651,8,1,33,2,1,,,,,
,1.3,,,,,,,,,g.PNG,g,609ecea08adc775458870a17,2021-10-19_15h46.01.613,forced_choiceRT,2021.1.2,Linux aarch64,60.0240096,,,,,,,,10,Ontime,g,1,2.0289,8,2,34,1,1,,,,,
,0.81,,,,,,,,,f.PNG,f,609ecea08adc775458870a17,2021-10-19_15h46.01.613,forced_choiceRT,2021.1.2,Linux aarch64,60.0240096,,,,,,,,10,Ontime,f,1,2.0413,8,3,35,0,1,,,,,
,0.33,,,,,,,,,h.PNG,h,609ecea08adc775458870a17,2021-10-19_15h46.01.613,forced_choiceRT,2021.1.2,Linux aarch64,60.0240096,,,,,,,,10,Fast,h,1,1.8958,9,0,36,2,1,,,,,
,1.91,,,,,,,,,h.PNG,h,609ecea08adc775458870a17,2021-10-19_15h46.01.613,forced_choiceRT,2021.1.2,Linux aarch64,60.0240096,,,,,,,,10,Ontime,h,1,2.0111,9,1,37,2,1,,,,,
,1.87,,,,,,,,,g.PNG,g,609ecea08adc775458870a17,2021-10-19_15h46.01.613,forced_choiceRT,2021.1.2,Linux aarch64,60.0240096,,,,,,,,10,Ontime,h,0,2.0169,9,2,38,1,1,,,,,
,1.29,,,,,,,,,g.PNG,g,609ecea08adc775458870a17,2021-10-19_15h46.01.613,forced_choiceRT,2021.1.2,Linux aarch64,60.0240096,,,,,,,,10,Ontime,g,1,1.9613,9,3,39,1,1,,,,,
,,,,,,,,,,,,609ecea08adc775458870a17,2021-10-19_15h46.01.613,forced_choiceRT,2021.1.2,Linux aarch64,60.0240096,,,,,,,,,,,,,,,,,,9,0,9,0,1
