target_onset,trial_resp_sp.keys,trial_resp_sp.corr,trial_resp_sp.rt,trials_train_loop.thisRepN,trials_train_loop.thisTrialN,trials_train_loop.thisN,trials_train_loop.thisIndex,trials_train_loop.ran,pic,correct_key,participant,date,expName,psychopyVersion,OS,frameRate,trial_resp_timing.keys,trial_resp_timing.rt,trials_train_timing.thisRepN,trials_train_timing.thisTrialN,trials_train_timing.thisN,trials_train_timing.thisIndex,trials_train_timing.ran,block_id,ontime,forcedRT_resp.keys,forcedRT_resp.corr,forcedRT_resp.rt,trials.thisRepN,trials.thisTrialN,trials.thisN,trials.thisIndex,trials.ran,blocks.thisRepN,blocks.thisTrialN,blocks.thisN,blocks.thisIndex,blocks.ran
0,f,0,1.8396,0,0,0,1,1,g.PNG,g,60b91e7f81b40fd08d67baaa,2021-10-19_12h15.40.599,forced_choiceRT,2021.1.2,Win32,59.68011459,,,,,,,,,,,,,,,,,,,,,,
0,g,1,2.2883,0,1,1,1,1,g.PNG,g,60b91e7f81b40fd08d67baaa,2021-10-19_12h15.40.599,forced_choiceRT,2021.1.2,Win32,59.68011459,,,,,,,,,,,,,,,,,,,,,,
0,f,1,1.0168,0,2,2,0,1,f.PNG,f,60b91e7f81b40fd08d67baaa,2021-10-19_12h15.40.599,forced_choiceRT,2021.1.2,Win32,59.68011459,,,,,,,,,,,,,,,,,,,,,,
0,g,1,0.8288,0,3,3,1,1,g.PNG,g,60b91e7f81b40fd08d67baaa,2021-10-19_12h15.40.599,forced_choiceRT,2021.1.2,Win32,59.68011459,,,,,,,,,,,,,,,,,,,,,,
0,j,0,1.0027,1,0,4,2,1,h.PNG,h,60b91e7f81b40fd08d67baaa,2021-10-19_12h15.40.599,forced_choiceRT,2021.1.2,Win32,59.68011459,,,,,,,,,,,,,,,,,,,,,,
0,f,1,2.4828,1,1,5,0,1,f.PNG,f,60b91e7f81b40fd08d67baaa,2021-10-19_12h15.40.599,forced_choiceRT,2021.1.2,Win32,59.68011459,,,,,,,,,,,,,,,,,,,,,,
0,f,1,1.3127,1,2,6,0,1,f.PNG,f,60b91e7f81b40fd08d67baaa,2021-10-19_12h15.40.599,forced_choiceRT,2021.1.2,Win32,59.68011459,,,,,,,,,,,,,,,,,,,,,,
0,g,1,1.04,1,3,7,1,1,g.PNG,g,60b91e7f81b40fd08d67baaa,2021-10-19_12h15.40.599,forced_choiceRT,2021.1.2,Win32,59.68011459,,,,,,,,,,,,,,,,,,,,,,
0,j,1,1.6567,2,0,8,3,1,j.PNG,j,60b91e7f81b40fd08d67baaa,2021-10-19_12h15.40.599,forced_choiceRT,2021.1.2,Win32,59.68011459,,,,,,,,,,,,,,,,,,,,,,
0,h,1,0.9266,2,1,9,2,1,h.PNG,h,60b91e7f81b40fd08d67baaa,2021-10-19_12h15.40.599,forced_choiceRT,2021.1.2,Win32,59.68011459,,,,,,,,,,,,,,,,,,,,,,
0,j,0,0.8794,2,2,10,2,1,h.PNG,h,60b91e7f81b40fd08d67baaa,2021-10-19_12h15.40.599,forced_choiceRT,2021.1.2,Win32,59.68011459,,,,,,,,,,,,,,,,,,,,,,
0,h,1,0.6252,2,3,11,2,1,h.PNG,h,60b91e7f81b40fd08d67baaa,2021-10-19_12h15.40.599,forced_choiceRT,2021.1.2,Win32,59.68011459,,,,,,,,,,,,,,,,,,,,,,
0,g,1,1.3337,3,0,12,1,1,g.PNG,g,60b91e7f81b40fd08d67baaa,2021-10-19_12h15.40.599,forced_choiceRT,2021.1.2,Win32,59.68011459,,,,,,,,,,,,,,,,,,,,,,
0,j,1,3.1286,3,1,13,3,1,j.PNG,j,60b91e7f81b40fd08d67baaa,2021-10-19_12h15.40.599,forced_choiceRT,2021.1.2,Win32,59.68011459,,,,,,,,,,,,,,,,,,,,,,
0,h,1,1.4748,3,2,14,2,1,h.PNG,h,60b91e7f81b40fd08d67baaa,2021-10-19_12h15.40.599,forced_choiceRT,2021.1.2,Win32,59.68011459,,,,,,,,,,,,,,,,,,,,,,
0,j,1,0.8445,3,3,15,3,1,j.PNG,j,60b91e7f81b40fd08d67baaa,2021-10-19_12h15.40.599,forced_choiceRT,2021.1.2,Win32,59.68011459,,,,,,,,,,,,,,,,,,,,,,
0,j,1,0.8734,4,0,16,3,1,j.PNG,j,60b91e7f81b40fd08d67baaa,2021-10-19_12h15.40.599,forced_choiceRT,2021.1.2,Win32,59.68011459,,,,,,,,,,,,,,,,,,,,,,
0,j,1,0.5049,4,1,17,3,1,j.PNG,j,60b91e7f81b40fd08d67baaa,2021-10-19_12h15.40.599,forced_choiceRT,2021.1.2,Win32,59.68011459,,,,,,,,,,,,,,,,,,,,,,
0,f,0,0.8836,4,2,18,2,1,h.PNG,h,60b91e7f81b40fd08d67baaa,2021-10-19_12h15.40.599,forced_choiceRT,2021.1.2,Win32,59.68011459,,,,,,,,,,,,,,,,,,,,,,
0,f,1,1.1004,4,3,19,0,1,f.PNG,f,60b91e7f81b40fd08d67baaa,2021-10-19_12h15.40.599,forced_choiceRT,2021.1.2,Win32,59.68011459,,,,,,,,,,,,,,,,,,,,,,
0,g,1,0.9461,5,0,20,1,1,g.PNG,g,60b91e7f81b40fd08d67baaa,2021-10-19_12h15.40.599,forced_choiceRT,2021.1.2,Win32,59.68011459,,,,,,,,,,,,,,,,,,,,,,
0,g,1,1.8453,5,1,21,1,1,g.PNG,g,60b91e7f81b40fd08d67baaa,2021-10-19_12h15.40.599,forced_choiceRT,2021.1.2,Win32,59.68011459,,,,,,,,,,,,,,,,,,,,,,
0,j,1,0.895,5,2,22,3,1,j.PNG,j,60b91e7f81b40fd08d67baaa,2021-10-19_12h15.40.599,forced_choiceRT,2021.1.2,Win32,59.68011459,,,,,,,,,,,,,,,,,,,,,,
0,h,1,0.9242,5,3,23,2,1,h.PNG,h,60b91e7f81b40fd08d67baaa,2021-10-19_12h15.40.599,forced_choiceRT,2021.1.2,Win32,59.68011459,,,,,,,,,,,,,,,,,,,,,,
0,j,1,0.8007,6,0,24,3,1,j.PNG,j,60b91e7f81b40fd08d67baaa,2021-10-19_12h15.40.599,forced_choiceRT,2021.1.2,Win32,59.68011459,,,,,,,,,,,,,,,,,,,,,,
0,j,1,0.5845,6,1,25,3,1,j.PNG,j,60b91e7f81b40fd08d67baaa,2021-10-19_12h15.40.599,forced_choiceRT,2021.1.2,Win32,59.68011459,,,,,,,,,,,,,,,,,,,,,,
0,j,1,0.4732,6,2,26,3,1,j.PNG,j,60b91e7f81b40fd08d67baaa,2021-10-19_12h15.40.599,forced_choiceRT,2021.1.2,Win32,59.68011459,,,,,,,,,,,,,,,,,,,,,,
0,g,1,0.9107,6,3,27,1,1,g.PNG,g,60b91e7f81b40fd08d67baaa,2021-10-19_12h15.40.599,forced_choiceRT,2021.1.2,Win32,59.68011459,,,,,,,,,,,,,,,,,,,,,,
0,g,1,0.7408,7,0,28,1,1,g.PNG,g,60b91e7f81b40fd08d67baaa,2021-10-19_12h15.40.599,forced_choiceRT,2021.1.2,Win32,59.68011459,,,,,,,,,,,,,,,,,,,,,,
0,g,1,0.4607,7,1,29,1,1,g.PNG,g,60b91e7f81b40fd08d67baaa,2021-10-19_12h15.40.599,forced_choiceRT,2021.1.2,Win32,59.68011459,,,,,,,,,,,,,,,,,,,,,,
0,j,1,0.6521,7,2,30,3,1,j.PNG,j,60b91e7f81b40fd08d67baaa,2021-10-19_12h15.40.599,forced_choiceRT,2021.1.2,Win32,59.68011459,,,,,,,,,,,,,,,,,,,,,,
0,f,1,0.6841,7,3,31,0,1,f.PNG,f,60b91e7f81b40fd08d67baaa,2021-10-19_12h15.40.599,forced_choiceRT,2021.1.2,Win32,59.68011459,,,,,,,,,,,,,,,,,,,,,,
0,h,1,0.7515,8,0,32,2,1,h.PNG,h,60b91e7f81b40fd08d67baaa,2021-10-19_12h15.40.599,forced_choiceRT,2021.1.2,Win32,59.68011459,,,,,,,,,,,,,,,,,,,,,,
0,g,1,0.9834,8,1,33,1,1,g.PNG,g,60b91e7f81b40fd08d67baaa,2021-10-19_12h15.40.599,forced_choiceRT,2021.1.2,Win32,59.68011459,,,,,,,,,,,,,,,,,,,,,,
0,g,1,0.8507,8,2,34,1,1,g.PNG,g,60b91e7f81b40fd08d67baaa,2021-10-19_12h15.40.599,forced_choiceRT,2021.1.2,Win32,59.68011459,,,,,,,,,,,,,,,,,,,,,,
0,h,1,0.6249,8,3,35,2,1,h.PNG,h,60b91e7f81b40fd08d67baaa,2021-10-19_12h15.40.599,forced_choiceRT,2021.1.2,Win32,59.68011459,,,,,,,,,,,,,,,,,,,,,,
0,j,1,0.579,9,0,36,3,1,j.PNG,j,60b91e7f81b40fd08d67baaa,2021-10-19_12h15.40.599,forced_choiceRT,2021.1.2,Win32,59.68011459,,,,,,,,,,,,,,,,,,,,,,
0,h,1,1.2361,9,1,37,2,1,h.PNG,h,60b91e7f81b40fd08d67baaa,2021-10-19_12h15.40.599,forced_choiceRT,2021.1.2,Win32,59.68011459,,,,,,,,,,,,,,,,,,,,,,
0,f,1,0.66,9,2,38,0,1,f.PNG,f,60b91e7f81b40fd08d67baaa,2021-10-19_12h15.40.599,forced_choiceRT,2021.1.2,Win32,59.68011459,,,,,,,,,,,,,,,,,,,,,,
0,f,1,0.7388,9,3,39,0,1,f.PNG,f,60b91e7f81b40fd08d67baaa,2021-10-19_12h15.40.599,forced_choiceRT,2021.1.2,Win32,59.68011459,,,,,,,,,,,,,,,,,,,,,,
0,j,1,0.6177,10,0,40,3,1,j.PNG,j,60b91e7f81b40fd08d67baaa,2021-10-19_12h15.40.599,forced_choiceRT,2021.1.2,Win32,59.68011459,,,,,,,,,,,,,,,,,,,,,,
0,f,0,0.985,10,1,41,2,1,h.PNG,h,60b91e7f81b40fd08d67baaa,2021-10-19_12h15.40.599,forced_choiceRT,2021.1.2,Win32,59.68011459,,,,,,,,,,,,,,,,,,,,,,
0,j,1,0.8073,10,2,42,3,1,j.PNG,j,60b91e7f81b40fd08d67baaa,2021-10-19_12h15.40.599,forced_choiceRT,2021.1.2,Win32,59.68011459,,,,,,,,,,,,,,,,,,,,,,
0,h,1,0.7887,10,3,43,2,1,h.PNG,h,60b91e7f81b40fd08d67baaa,2021-10-19_12h15.40.599,forced_choiceRT,2021.1.2,Win32,59.68011459,,,,,,,,,,,,,,,,,,,,,,
0,f,1,0.6545,11,0,44,0,1,f.PNG,f,60b91e7f81b40fd08d67baaa,2021-10-19_12h15.40.599,forced_choiceRT,2021.1.2,Win32,59.68011459,,,,,,,,,,,,,,,,,,,,,,
0,g,1,0.7196,11,1,45,1,1,g.PNG,g,60b91e7f81b40fd08d67baaa,2021-10-19_12h15.40.599,forced_choiceRT,2021.1.2,Win32,59.68011459,,,,,,,,,,,,,,,,,,,,,,
0,f,1,0.6921,11,2,46,0,1,f.PNG,f,60b91e7f81b40fd08d67baaa,2021-10-19_12h15.40.599,forced_choiceRT,2021.1.2,Win32,59.68011459,,,,,,,,,,,,,,,,,,,,,,
0,g,1,0.7027,11,3,47,1,1,g.PNG,g,60b91e7f81b40fd08d67baaa,2021-10-19_12h15.40.599,forced_choiceRT,2021.1.2,Win32,59.68011459,,,,,,,,,,,,,,,,,,,,,,
0,f,1,0.5916,12,0,48,0,1,f.PNG,f,60b91e7f81b40fd08d67baaa,2021-10-19_12h15.40.599,forced_choiceRT,2021.1.2,Win32,59.68011459,,,,,,,,,,,,,,,,,,,,,,
0,h,1,0.894,12,1,49,2,1,h.PNG,h,60b91e7f81b40fd08d67baaa,2021-10-19_12h15.40.599,forced_choiceRT,2021.1.2,Win32,59.68011459,,,,,,,,,,,,,,,,,,,,,,
0,f,1,0.7352,12,2,50,0,1,f.PNG,f,60b91e7f81b40fd08d67baaa,2021-10-19_12h15.40.599,forced_choiceRT,2021.1.2,Win32,59.68011459,,,,,,,,,,,,,,,,,,,,,,
0,j,1,0.7019,12,3,51,3,1,j.PNG,j,60b91e7f81b40fd08d67baaa,2021-10-19_12h15.40.599,forced_choiceRT,2021.1.2,Win32,59.68011459,,,,,,,,,,,,,,,,,,,,,,
0,f,1,0.705,13,0,52,0,1,f.PNG,f,60b91e7f81b40fd08d67baaa,2021-10-19_12h15.40.599,forced_choiceRT,2021.1.2,Win32,59.68011459,,,,,,,,,,,,,,,,,,,,,,
0,f,1,0.5012,13,1,53,0,1,f.PNG,f,60b91e7f81b40fd08d67baaa,2021-10-19_12h15.40.599,forced_choiceRT,2021.1.2,Win32,59.68011459,,,,,,,,,,,,,,,,,,,,,,
0,f,1,0.4734,13,2,54,0,1,f.PNG,f,60b91e7f81b40fd08d67baaa,2021-10-19_12h15.40.599,forced_choiceRT,2021.1.2,Win32,59.68011459,,,,,,,,,,,,,,,,,,,,,,
0,h,1,0.7007,13,3,55,2,1,h.PNG,h,60b91e7f81b40fd08d67baaa,2021-10-19_12h15.40.599,forced_choiceRT,2021.1.2,Win32,59.68011459,,,,,,,,,,,,,,,,,,,,,,
0,f,1,0.6687,14,0,56,0,1,f.PNG,f,60b91e7f81b40fd08d67baaa,2021-10-19_12h15.40.599,forced_choiceRT,2021.1.2,Win32,59.68011459,,,,,,,,,,,,,,,,,,,,,,
0,h,1,1.7383,14,1,57,2,1,h.PNG,h,60b91e7f81b40fd08d67baaa,2021-10-19_12h15.40.599,forced_choiceRT,2021.1.2,Win32,59.68011459,,,,,,,,,,,,,,,,,,,,,,
0,g,1,0.7198,14,2,58,1,1,g.PNG,g,60b91e7f81b40fd08d67baaa,2021-10-19_12h15.40.599,forced_choiceRT,2021.1.2,Win32,59.68011459,,,,,,,,,,,,,,,,,,,,,,
0,j,1,0.6379,14,3,59,3,1,j.PNG,j,60b91e7f81b40fd08d67baaa,2021-10-19_12h15.40.599,forced_choiceRT,2021.1.2,Win32,59.68011459,,,,,,,,,,,,,,,,,,,,,,
,,,,,,,,,,,60b91e7f81b40fd08d67baaa,2021-10-19_12h15.40.599,forced_choiceRT,2021.1.2,Win32,59.68011459,f,4.7364,0,0,0,0,1,,,,,,,,,,,,,,,
,,,,,,,,,,,60b91e7f81b40fd08d67baaa,2021-10-19_12h15.40.599,forced_choiceRT,2021.1.2,Win32,59.68011459,f,0.8508,1,0,1,0,1,,,,,,,,,,,,,,,
,,,,,,,,,,,60b91e7f81b40fd08d67baaa,2021-10-19_12h15.40.599,forced_choiceRT,2021.1.2,Win32,59.68011459,g,1.8114,2,0,2,0,1,,,,,,,,,,,,,,,
,,,,,,,,,,,60b91e7f81b40fd08d67baaa,2021-10-19_12h15.40.599,forced_choiceRT,2021.1.2,Win32,59.68011459,g,2.1403,3,0,3,0,1,,,,,,,,,,,,,,,
,,,,,,,,,,,60b91e7f81b40fd08d67baaa,2021-10-19_12h15.40.599,forced_choiceRT,2021.1.2,Win32,59.68011459,f,1.8668,4,0,4,0,1,,,,,,,,,,,,,,,
,,,,,,,,,,,60b91e7f81b40fd08d67baaa,2021-10-19_12h15.40.599,forced_choiceRT,2021.1.2,Win32,59.68011459,h,2.1996,5,0,5,0,1,,,,,,,,,,,,,,,
,,,,,,,,,,,60b91e7f81b40fd08d67baaa,2021-10-19_12h15.40.599,forced_choiceRT,2021.1.2,Win32,59.68011459,j,2.0168,6,0,6,0,1,,,,,,,,,,,,,,,
,,,,,,,,,,,60b91e7f81b40fd08d67baaa,2021-10-19_12h15.40.599,forced_choiceRT,2021.1.2,Win32,59.68011459,j,1.9001,7,0,7,0,1,,,,,,,,,,,,,,,
,,,,,,,,,,,60b91e7f81b40fd08d67baaa,2021-10-19_12h15.40.599,forced_choiceRT,2021.1.2,Win32,59.68011459,h,1.9505,8,0,8,0,1,,,,,,,,,,,,,,,
,,,,,,,,,,,60b91e7f81b40fd08d67baaa,2021-10-19_12h15.40.599,forced_choiceRT,2021.1.2,Win32,59.68011459,g,1.9869,9,0,9,0,1,,,,,,,,,,,,,,,
,,,,,,,,,,,60b91e7f81b40fd08d67baaa,2021-10-19_12h15.40.599,forced_choiceRT,2021.1.2,Win32,59.68011459,f,2.0557,10,0,10,0,1,,,,,,,,,,,,,,,
,,,,,,,,,,,60b91e7f81b40fd08d67baaa,2021-10-19_12h15.40.599,forced_choiceRT,2021.1.2,Win32,59.68011459,f,2.0337,11,0,11,0,1,,,,,,,,,,,,,,,
,,,,,,,,,,,60b91e7f81b40fd08d67baaa,2021-10-19_12h15.40.599,forced_choiceRT,2021.1.2,Win32,59.68011459,g,2.0669,12,0,12,0,1,,,,,,,,,,,,,,,
,,,,,,,,,,,60b91e7f81b40fd08d67baaa,2021-10-19_12h15.40.599,forced_choiceRT,2021.1.2,Win32,59.68011459,g,2.0345,13,0,13,0,1,,,,,,,,,,,,,,,
,,,,,,,,,,,60b91e7f81b40fd08d67baaa,2021-10-19_12h15.40.599,forced_choiceRT,2021.1.2,Win32,59.68011459,g,2.0263,14,0,14,0,1,,,,,,,,,,,,,,,
,,,,,,,,,,,60b91e7f81b40fd08d67baaa,2021-10-19_12h15.40.599,forced_choiceRT,2021.1.2,Win32,59.68011459,h,2.0235,15,0,15,0,1,,,,,,,,,,,,,,,
,,,,,,,,,,,60b91e7f81b40fd08d67baaa,2021-10-19_12h15.40.599,forced_choiceRT,2021.1.2,Win32,59.68011459,h,1.9434,16,0,16,0,1,,,,,,,,,,,,,,,
,,,,,,,,,,,60b91e7f81b40fd08d67baaa,2021-10-19_12h15.40.599,forced_choiceRT,2021.1.2,Win32,59.68011459,h,1.9362,17,0,17,0,1,,,,,,,,,,,,,,,
,,,,,,,,,,,60b91e7f81b40fd08d67baaa,2021-10-19_12h15.40.599,forced_choiceRT,2021.1.2,Win32,59.68011459,j,1.8854,18,0,18,0,1,,,,,,,,,,,,,,,
,,,,,,,,,,,60b91e7f81b40fd08d67baaa,2021-10-19_12h15.40.599,forced_choiceRT,2021.1.2,Win32,59.68011459,j,2.1561,19,0,19,0,1,,,,,,,,,,,,,,,
1.51,,,,,,,,,h.PNG,h,60b91e7f81b40fd08d67baaa,2021-10-19_12h15.40.599,forced_choiceRT,2021.1.2,Win32,59.68011459,,,,,,,,1,Slow,h,1,2.3023,0,0,0,2,1,,,,,
1.76,,,,,,,,,j.PNG,j,60b91e7f81b40fd08d67baaa,2021-10-19_12h15.40.599,forced_choiceRT,2021.1.2,Win32,59.68011459,,,,,,,,1,Slow,j,1,2.3927,0,1,1,3,1,,,,,
1.77,,,,,,,,,g.PNG,g,60b91e7f81b40fd08d67baaa,2021-10-19_12h15.40.599,forced_choiceRT,2021.1.2,Win32,59.68011459,,,,,,,,1,Slow,f,0,2.353,0,2,2,1,1,,,,,
0.27,,,,,,,,,f.PNG,f,60b91e7f81b40fd08d67baaa,2021-10-19_12h15.40.599,forced_choiceRT,2021.1.2,Win32,59.68011459,,,,,,,,1,Fast,f,1,1.6597,0,3,3,0,1,,,,,
1.33,,,,,,,,,f.PNG,f,60b91e7f81b40fd08d67baaa,2021-10-19_12h15.40.599,forced_choiceRT,2021.1.2,Win32,59.68011459,,,,,,,,1,Slow,g,0,2.2231,1,0,4,0,1,,,,,
1.15,,,,,,,,,j.PNG,j,60b91e7f81b40fd08d67baaa,2021-10-19_12h15.40.599,forced_choiceRT,2021.1.2,Win32,59.68011459,,,,,,,,1,Fast,j,1,1.7607,1,1,5,3,1,,,,,
0.62,,,,,,,,,f.PNG,f,60b91e7f81b40fd08d67baaa,2021-10-19_12h15.40.599,forced_choiceRT,2021.1.2,Win32,59.68011459,,,,,,,,1,Ontime,f,1,1.9827,1,2,6,0,1,,,,,
0.82,,,,,,,,,f.PNG,f,60b91e7f81b40fd08d67baaa,2021-10-19_12h15.40.599,forced_choiceRT,2021.1.2,Win32,59.68011459,,,,,,,,1,Fast,f,1,1.8077,1,3,7,0,1,,,,,
0.97,,,,,,,,,g.PNG,g,60b91e7f81b40fd08d67baaa,2021-10-19_12h15.40.599,forced_choiceRT,2021.1.2,Win32,59.68011459,,,,,,,,1,Ontime,h,0,2.0276,2,0,8,1,1,,,,,
0.64,,,,,,,,,h.PNG,h,60b91e7f81b40fd08d67baaa,2021-10-19_12h15.40.599,forced_choiceRT,2021.1.2,Win32,59.68011459,,,,,,,,1,Ontime,f,0,2.0917,2,1,9,2,1,,,,,
0.11,,,,,,,,,j.PNG,j,60b91e7f81b40fd08d67baaa,2021-10-19_12h15.40.599,forced_choiceRT,2021.1.2,Win32,59.68011459,,,,,,,,1,Fast,j,1,1.7239,2,2,10,3,1,,,,,
0.21,,,,,,,,,f.PNG,f,60b91e7f81b40fd08d67baaa,2021-10-19_12h15.40.599,forced_choiceRT,2021.1.2,Win32,59.68011459,,,,,,,,1,Ontime,f,1,2.0991,2,3,11,0,1,,,,,
0.31,,,,,,,,,h.PNG,h,60b91e7f81b40fd08d67baaa,2021-10-19_12h15.40.599,forced_choiceRT,2021.1.2,Win32,59.68011459,,,,,,,,1,Ontime,h,1,2.0774,3,0,12,2,1,,,,,
1.55,,,,,,,,,f.PNG,f,60b91e7f81b40fd08d67baaa,2021-10-19_12h15.40.599,forced_choiceRT,2021.1.2,Win32,59.68011459,,,,,,,,1,Slow,f,1,2.2833,3,1,13,0,1,,,,,
1.76,,,,,,,,,h.PNG,h,60b91e7f81b40fd08d67baaa,2021-10-19_12h15.40.599,forced_choiceRT,2021.1.2,Win32,59.68011459,,,,,,,,1,Slow,h,1,2.3732,3,2,14,2,1,,,,,
0.37,,,,,,,,,j.PNG,j,60b91e7f81b40fd08d67baaa,2021-10-19_12h15.40.599,forced_choiceRT,2021.1.2,Win32,59.68011459,,,,,,,,1,Ontime,j,1,1.9898,3,3,15,3,1,,,,,
0.21,,,,,,,,,f.PNG,f,60b91e7f81b40fd08d67baaa,2021-10-19_12h15.40.599,forced_choiceRT,2021.1.2,Win32,59.68011459,,,,,,,,1,Fast,f,1,1.8283,4,0,16,0,1,,,,,
1.27,,,,,,,,,f.PNG,f,60b91e7f81b40fd08d67baaa,2021-10-19_12h15.40.599,forced_choiceRT,2021.1.2,Win32,59.68011459,,,,,,,,1,Slow,g,0,2.1464,4,1,17,0,1,,,,,
1.57,,,,,,,,,g.PNG,g,60b91e7f81b40fd08d67baaa,2021-10-19_12h15.40.599,forced_choiceRT,2021.1.2,Win32,59.68011459,,,,,,,,1,Slow,g,1,2.2761,4,2,18,1,1,,,,,
1.42,,,,,,,,,j.PNG,j,60b91e7f81b40fd08d67baaa,2021-10-19_12h15.40.599,forced_choiceRT,2021.1.2,Win32,59.68011459,,,,,,,,1,Ontime,j,1,2.0834,4,3,19,3,1,,,,,
0.84,,,,,,,,,j.PNG,j,60b91e7f81b40fd08d67baaa,2021-10-19_12h15.40.599,forced_choiceRT,2021.1.2,Win32,59.68011459,,,,,,,,1,Fast,j,1,1.8732,5,0,20,3,1,,,,,
0.77,,,,,,,,,j.PNG,j,60b91e7f81b40fd08d67baaa,2021-10-19_12h15.40.599,forced_choiceRT,2021.1.2,Win32,59.68011459,,,,,,,,1,Ontime,j,1,1.9675,5,1,21,3,1,,,,,
1.97,,,,,,,,,j.PNG,j,60b91e7f81b40fd08d67baaa,2021-10-19_12h15.40.599,forced_choiceRT,2021.1.2,Win32,59.68011459,,,,,,,,1,Slow,f,0,2.3995,5,2,22,3,1,,,,,
1.86,,,,,,,,,h.PNG,h,60b91e7f81b40fd08d67baaa,2021-10-19_12h15.40.599,forced_choiceRT,2021.1.2,Win32,59.68011459,,,,,,,,1,Slow,h,1,2.4577,5,3,23,2,1,,,,,
1.94,,,,,,,,,f.PNG,f,60b91e7f81b40fd08d67baaa,2021-10-19_12h15.40.599,forced_choiceRT,2021.1.2,Win32,59.68011459,,,,,,,,1,Slow,f,1,2.4625,6,0,24,0,1,,,,,
0.25,,,,,,,,,g.PNG,g,60b91e7f81b40fd08d67baaa,2021-10-19_12h15.40.599,forced_choiceRT,2021.1.2,Win32,59.68011459,,,,,,,,1,Fast,g,1,1.7505,6,1,25,1,1,,,,,
0.55,,,,,,,,,h.PNG,h,60b91e7f81b40fd08d67baaa,2021-10-19_12h15.40.599,forced_choiceRT,2021.1.2,Win32,59.68011459,,,,,,,,1,Ontime,h,1,1.9632,6,2,26,2,1,,,,,
0.13,,,,,,,,,h.PNG,h,60b91e7f81b40fd08d67baaa,2021-10-19_12h15.40.599,forced_choiceRT,2021.1.2,Win32,59.68011459,,,,,,,,1,Fast,h,1,1.7196,6,3,27,2,1,,,,,
0.68,,,,,,,,,g.PNG,g,60b91e7f81b40fd08d67baaa,2021-10-19_12h15.40.599,forced_choiceRT,2021.1.2,Win32,59.68011459,,,,,,,,1,Fast,g,1,1.7545,7,0,28,1,1,,,,,
0.15,,,,,,,,,h.PNG,h,60b91e7f81b40fd08d67baaa,2021-10-19_12h15.40.599,forced_choiceRT,2021.1.2,Win32,59.68011459,,,,,,,,1,Ontime,h,1,2.0491,7,1,29,2,1,,,,,
1.26,,,,,,,,,h.PNG,h,60b91e7f81b40fd08d67baaa,2021-10-19_12h15.40.599,forced_choiceRT,2021.1.2,Win32,59.68011459,,,,,,,,1,Ontime,h,1,2.0824,7,2,30,2,1,,,,,
1.3,,,,,,,,,g.PNG,g,60b91e7f81b40fd08d67baaa,2021-10-19_12h15.40.599,forced_choiceRT,2021.1.2,Win32,59.68011459,,,,,,,,1,Ontime,g,1,2.0338,7,3,31,1,1,,,,,
0.65,,,,,,,,,j.PNG,j,60b91e7f81b40fd08d67baaa,2021-10-19_12h15.40.599,forced_choiceRT,2021.1.2,Win32,59.68011459,,,,,,,,1,Ontime,j,1,2.086,8,0,32,3,1,,,,,
0.96,,,,,,,,,g.PNG,g,60b91e7f81b40fd08d67baaa,2021-10-19_12h15.40.599,forced_choiceRT,2021.1.2,Win32,59.68011459,,,,,,,,1,Ontime,g,1,2.0661,8,1,33,1,1,,,,,
0.45,,,,,,,,,h.PNG,h,60b91e7f81b40fd08d67baaa,2021-10-19_12h15.40.599,forced_choiceRT,2021.1.2,Win32,59.68011459,,,,,,,,1,Ontime,h,1,2.0787,8,2,34,2,1,,,,,
0.93,,,,,,,,,g.PNG,g,60b91e7f81b40fd08d67baaa,2021-10-19_12h15.40.599,forced_choiceRT,2021.1.2,Win32,59.68011459,,,,,,,,1,Slow,g,1,2.1428,8,3,35,1,1,,,,,
1.75,,,,,,,,,f.PNG,f,60b91e7f81b40fd08d67baaa,2021-10-19_12h15.40.599,forced_choiceRT,2021.1.2,Win32,59.68011459,,,,,,,,1,Slow,h,0,2.2771,9,0,36,0,1,,,,,
0.75,,,,,,,,,g.PNG,g,60b91e7f81b40fd08d67baaa,2021-10-19_12h15.40.599,forced_choiceRT,2021.1.2,Win32,59.68011459,,,,,,,,1,Ontime,g,1,2.0217,9,1,37,1,1,,,,,
1.75,,,,,,,,,g.PNG,g,60b91e7f81b40fd08d67baaa,2021-10-19_12h15.40.599,forced_choiceRT,2021.1.2,Win32,59.68011459,,,,,,,,1,Slow,g,1,2.3437,9,2,38,1,1,,,,,
0.4,,,,,,,,,j.PNG,j,60b91e7f81b40fd08d67baaa,2021-10-19_12h15.40.599,forced_choiceRT,2021.1.2,Win32,59.68011459,,,,,,,,1,Ontime,j,1,1.9424,9,3,39,3,1,,,,,
,,,,,,,,,,,60b91e7f81b40fd08d67baaa,2021-10-19_12h15.40.599,forced_choiceRT,2021.1.2,Win32,59.68011459,,,,,,,,,,,,,,,,,,0,0,0,0,1
0.67,,,,,,,,,h.PNG,h,60b91e7f81b40fd08d67baaa,2021-10-19_12h15.40.599,forced_choiceRT,2021.1.2,Win32,59.68011459,,,,,,,,2,Ontime,h,1,2.0226,0,0,0,2,1,,,,,
1.34,,,,,,,,,f.PNG,f,60b91e7f81b40fd08d67baaa,2021-10-19_12h15.40.599,forced_choiceRT,2021.1.2,Win32,59.68011459,,,,,,,,2,Ontime,f,1,2.0496,0,1,1,0,1,,,,,
1.54,,,,,,,,,h.PNG,h,60b91e7f81b40fd08d67baaa,2021-10-19_12h15.40.599,forced_choiceRT,2021.1.2,Win32,59.68011459,,,,,,,,2,Slow,h,1,2.2164,0,2,2,2,1,,,,,
1.84,,,,,,,,,j.PNG,j,60b91e7f81b40fd08d67baaa,2021-10-19_12h15.40.599,forced_choiceRT,2021.1.2,Win32,59.68011459,,,,,,,,2,Slow,h,0,6.1907,0,3,3,3,1,,,,,
0.65,,,,,,,,,g.PNG,g,60b91e7f81b40fd08d67baaa,2021-10-19_12h15.40.599,forced_choiceRT,2021.1.2,Win32,59.68011459,,,,,,,,2,Ontime,g,1,2.0168,1,0,4,1,1,,,,,
0.42,,,,,,,,,h.PNG,h,60b91e7f81b40fd08d67baaa,2021-10-19_12h15.40.599,forced_choiceRT,2021.1.2,Win32,59.68011459,,,,,,,,2,Fast,h,1,1.8907,1,1,5,2,1,,,,,
0.61,,,,,,,,,j.PNG,j,60b91e7f81b40fd08d67baaa,2021-10-19_12h15.40.599,forced_choiceRT,2021.1.2,Win32,59.68011459,,,,,,,,2,Slow,j,1,2.1307,1,2,6,3,1,,,,,
0.57,,,,,,,,,f.PNG,f,60b91e7f81b40fd08d67baaa,2021-10-19_12h15.40.599,forced_choiceRT,2021.1.2,Win32,59.68011459,,,,,,,,2,Ontime,f,1,1.9871,1,3,7,0,1,,,,,
0.47,,,,,,,,,j.PNG,j,60b91e7f81b40fd08d67baaa,2021-10-19_12h15.40.599,forced_choiceRT,2021.1.2,Win32,59.68011459,,,,,,,,2,Ontime,j,1,1.9495,2,0,8,3,1,,,,,
0.48,,,,,,,,,j.PNG,j,60b91e7f81b40fd08d67baaa,2021-10-19_12h15.40.599,forced_choiceRT,2021.1.2,Win32,59.68011459,,,,,,,,2,Ontime,j,1,2.0665,2,1,9,3,1,,,,,
1.83,,,,,,,,,g.PNG,g,60b91e7f81b40fd08d67baaa,2021-10-19_12h15.40.599,forced_choiceRT,2021.1.2,Win32,59.68011459,,,,,,,,2,Slow,g,1,3.0116,2,2,10,1,1,,,,,
1.53,,,,,,,,,g.PNG,g,60b91e7f81b40fd08d67baaa,2021-10-19_12h15.40.599,forced_choiceRT,2021.1.2,Win32,59.68011459,,,,,,,,2,Slow,g,1,2.1857,2,3,11,1,1,,,,,
1.52,,,,,,,,,f.PNG,f,60b91e7f81b40fd08d67baaa,2021-10-19_12h15.40.599,forced_choiceRT,2021.1.2,Win32,59.68011459,,,,,,,,2,Slow,f,1,2.2884,3,0,12,0,1,,,,,
1.83,,,,,,,,,h.PNG,h,60b91e7f81b40fd08d67baaa,2021-10-19_12h15.40.599,forced_choiceRT,2021.1.2,Win32,59.68011459,,,,,,,,2,Slow,h,1,2.4355,3,1,13,2,1,,,,,
0.62,,,,,,,,,f.PNG,f,60b91e7f81b40fd08d67baaa,2021-10-19_12h15.40.599,forced_choiceRT,2021.1.2,Win32,59.68011459,,,,,,,,2,Ontime,f,1,1.9166,3,2,14,0,1,,,,,
1.95,,,,,,,,,h.PNG,h,60b91e7f81b40fd08d67baaa,2021-10-19_12h15.40.599,forced_choiceRT,2021.1.2,Win32,59.68011459,,,,,,,,2,Slow,h,1,2.7196,3,3,15,2,1,,,,,
0.71,,,,,,,,,j.PNG,j,60b91e7f81b40fd08d67baaa,2021-10-19_12h15.40.599,forced_choiceRT,2021.1.2,Win32,59.68011459,,,,,,,,2,Ontime,j,1,1.9951,4,0,16,3,1,,,,,
1.59,,,,,,,,,j.PNG,j,60b91e7f81b40fd08d67baaa,2021-10-19_12h15.40.599,forced_choiceRT,2021.1.2,Win32,59.68011459,,,,,,,,2,Slow,j,1,2.1203,4,1,17,3,1,,,,,
1.05,,,,,,,,,f.PNG,f,60b91e7f81b40fd08d67baaa,2021-10-19_12h15.40.599,forced_choiceRT,2021.1.2,Win32,59.68011459,,,,,,,,2,Ontime,f,1,2.0997,4,2,18,0,1,,,,,
1.06,,,,,,,,,g.PNG,g,60b91e7f81b40fd08d67baaa,2021-10-19_12h15.40.599,forced_choiceRT,2021.1.2,Win32,59.68011459,,,,,,,,2,Fast,g,1,1.8932,4,3,19,1,1,,,,,
0.94,,,,,,,,,g.PNG,g,60b91e7f81b40fd08d67baaa,2021-10-19_12h15.40.599,forced_choiceRT,2021.1.2,Win32,59.68011459,,,,,,,,2,Ontime,g,1,1.953,5,0,20,1,1,,,,,
1.66,,,,,,,,,j.PNG,j,60b91e7f81b40fd08d67baaa,2021-10-19_12h15.40.599,forced_choiceRT,2021.1.2,Win32,59.68011459,,,,,,,,2,Slow,j,1,2.3082,5,1,21,3,1,,,,,
1.71,,,,,,,,,h.PNG,h,60b91e7f81b40fd08d67baaa,2021-10-19_12h15.40.599,forced_choiceRT,2021.1.2,Win32,59.68011459,,,,,,,,2,Slow,h,1,2.3651,5,2,22,2,1,,,,,
1.23,,,,,,,,,f.PNG,f,60b91e7f81b40fd08d67baaa,2021-10-19_12h15.40.599,forced_choiceRT,2021.1.2,Win32,59.68011459,,,,,,,,2,Slow,f,1,2.1341,5,3,23,0,1,,,,,
1.27,,,,,,,,,g.PNG,g,60b91e7f81b40fd08d67baaa,2021-10-19_12h15.40.599,forced_choiceRT,2021.1.2,Win32,59.68011459,,,,,,,,2,Slow,g,1,2.1334,6,0,24,1,1,,,,,
0.65,,,,,,,,,j.PNG,j,60b91e7f81b40fd08d67baaa,2021-10-19_12h15.40.599,forced_choiceRT,2021.1.2,Win32,59.68011459,,,,,,,,2,Ontime,j,1,2.0589,6,1,25,3,1,,,,,
0.72,,,,,,,,,g.PNG,g,60b91e7f81b40fd08d67baaa,2021-10-19_12h15.40.599,forced_choiceRT,2021.1.2,Win32,59.68011459,,,,,,,,2,Fast,g,1,1.8849,6,2,26,1,1,,,,,
0.64,,,,,,,,,g.PNG,g,60b91e7f81b40fd08d67baaa,2021-10-19_12h15.40.599,forced_choiceRT,2021.1.2,Win32,59.68011459,,,,,,,,2,Ontime,g,1,2.0826,6,3,27,1,1,,,,,
1.23,,,,,,,,,f.PNG,f,60b91e7f81b40fd08d67baaa,2021-10-19_12h15.40.599,forced_choiceRT,2021.1.2,Win32,59.68011459,,,,,,,,2,Ontime,f,1,2.0025,7,0,28,0,1,,,,,
0.32,,,,,,,,,h.PNG,h,60b91e7f81b40fd08d67baaa,2021-10-19_12h15.40.599,forced_choiceRT,2021.1.2,Win32,59.68011459,,,,,,,,2,Ontime,h,1,1.9678,7,1,29,2,1,,,,,
1.9,,,,,,,,,h.PNG,h,60b91e7f81b40fd08d67baaa,2021-10-19_12h15.40.599,forced_choiceRT,2021.1.2,Win32,59.68011459,,,,,,,,2,Slow,h,1,2.366,7,2,30,2,1,,,,,
1.56,,,,,,,,,g.PNG,g,60b91e7f81b40fd08d67baaa,2021-10-19_12h15.40.599,forced_choiceRT,2021.1.2,Win32,59.68011459,,,,,,,,2,Slow,g,1,2.2543,7,3,31,1,1,,,,,
0.03,,,,,,,,,g.PNG,g,60b91e7f81b40fd08d67baaa,2021-10-19_12h15.40.599,forced_choiceRT,2021.1.2,Win32,59.68011459,,,,,,,,2,Ontime,g,1,2.0998,8,0,32,1,1,,,,,
0.76,,,,,,,,,j.PNG,j,60b91e7f81b40fd08d67baaa,2021-10-19_12h15.40.599,forced_choiceRT,2021.1.2,Win32,59.68011459,,,,,,,,2,Ontime,j,1,2.0769,8,1,33,3,1,,,,,
1.93,,,,,,,,,f.PNG,f,60b91e7f81b40fd08d67baaa,2021-10-19_12h15.40.599,forced_choiceRT,2021.1.2,Win32,59.68011459,,,,,,,,2,Slow,h,0,2.4103,8,2,34,0,1,,,,,
1.69,,,,,,,,,f.PNG,f,60b91e7f81b40fd08d67baaa,2021-10-19_12h15.40.599,forced_choiceRT,2021.1.2,Win32,59.68011459,,,,,,,,2,Slow,f,1,2.2469,8,3,35,0,1,,,,,
0.06,,,,,,,,,j.PNG,j,60b91e7f81b40fd08d67baaa,2021-10-19_12h15.40.599,forced_choiceRT,2021.1.2,Win32,59.68011459,,,,,,,,2,Ontime,j,1,2.0829,9,0,36,3,1,,,,,
0.84,,,,,,,,,h.PNG,h,60b91e7f81b40fd08d67baaa,2021-10-19_12h15.40.599,forced_choiceRT,2021.1.2,Win32,59.68011459,,,,,,,,2,Slow,g,0,2.1279,9,1,37,2,1,,,,,
1.99,,,,,,,,,f.PNG,f,60b91e7f81b40fd08d67baaa,2021-10-19_12h15.40.599,forced_choiceRT,2021.1.2,Win32,59.68011459,,,,,,,,2,Slow,h,0,2.3079,9,2,38,0,1,,,,,
1.82,,,,,,,,,h.PNG,h,60b91e7f81b40fd08d67baaa,2021-10-19_12h15.40.599,forced_choiceRT,2021.1.2,Win32,59.68011459,,,,,,,,2,Slow,j,0,2.6051,9,3,39,2,1,,,,,
,,,,,,,,,,,60b91e7f81b40fd08d67baaa,2021-10-19_12h15.40.599,forced_choiceRT,2021.1.2,Win32,59.68011459,,,,,,,,,,,,,,,,,,1,0,1,0,1
1.65,,,,,,,,,h.PNG,h,60b91e7f81b40fd08d67baaa,2021-10-19_12h15.40.599,forced_choiceRT,2021.1.2,Win32,59.68011459,,,,,,,,3,Slow,h,1,2.2696,0,0,0,2,1,,,,,
0.14,,,,,,,,,f.PNG,f,60b91e7f81b40fd08d67baaa,2021-10-19_12h15.40.599,forced_choiceRT,2021.1.2,Win32,59.68011459,,,,,,,,3,Ontime,f,1,2.0329,0,1,1,0,1,,,,,
0.56,,,,,,,,,h.PNG,h,60b91e7f81b40fd08d67baaa,2021-10-19_12h15.40.599,forced_choiceRT,2021.1.2,Win32,59.68011459,,,,,,,,3,Ontime,h,1,2.0278,0,2,2,2,1,,,,,
0.43,,,,,,,,,j.PNG,j,60b91e7f81b40fd08d67baaa,2021-10-19_12h15.40.599,forced_choiceRT,2021.1.2,Win32,59.68011459,,,,,,,,3,Ontime,j,1,2.0008,0,3,3,3,1,,,,,
1.46,,,,,,,,,j.PNG,j,60b91e7f81b40fd08d67baaa,2021-10-19_12h15.40.599,forced_choiceRT,2021.1.2,Win32,59.68011459,,,,,,,,3,Slow,j,1,2.1194,1,0,4,3,1,,,,,
0.49,,,,,,,,,f.PNG,f,60b91e7f81b40fd08d67baaa,2021-10-19_12h15.40.599,forced_choiceRT,2021.1.2,Win32,59.68011459,,,,,,,,3,Ontime,f,1,2.0675,1,1,5,0,1,,,,,
1.97,,,,,,,,,g.PNG,g,60b91e7f81b40fd08d67baaa,2021-10-19_12h15.40.599,forced_choiceRT,2021.1.2,Win32,59.68011459,,,,,,,,3,Slow,g,1,2.4757,1,2,6,1,1,,,,,
0.28,,,,,,,,,h.PNG,h,60b91e7f81b40fd08d67baaa,2021-10-19_12h15.40.599,forced_choiceRT,2021.1.2,Win32,59.68011459,,,,,,,,3,Slow,h,1,2.1362,1,3,7,2,1,,,,,
1.1,,,,,,,,,j.PNG,j,60b91e7f81b40fd08d67baaa,2021-10-19_12h15.40.599,forced_choiceRT,2021.1.2,Win32,59.68011459,,,,,,,,3,Slow,j,1,2.1774,2,0,8,3,1,,,,,
1.22,,,,,,,,,h.PNG,h,60b91e7f81b40fd08d67baaa,2021-10-19_12h15.40.599,forced_choiceRT,2021.1.2,Win32,59.68011459,,,,,,,,3,Ontime,h,1,2.0851,2,1,9,2,1,,,,,
1.37,,,,,,,,,g.PNG,g,60b91e7f81b40fd08d67baaa,2021-10-19_12h15.40.599,forced_choiceRT,2021.1.2,Win32,59.68011459,,,,,,,,3,Ontime,g,1,2.0504,2,2,10,1,1,,,,,
1.72,,,,,,,,,j.PNG,j,60b91e7f81b40fd08d67baaa,2021-10-19_12h15.40.599,forced_choiceRT,2021.1.2,Win32,59.68011459,,,,,,,,3,Slow,h,0,2.2611,2,3,11,3,1,,,,,
1.73,,,,,,,,,j.PNG,j,60b91e7f81b40fd08d67baaa,2021-10-19_12h15.40.599,forced_choiceRT,2021.1.2,Win32,59.68011459,,,,,,,,3,Slow,j,1,2.2007,3,0,12,3,1,,,,,
0.74,,,,,,,,,f.PNG,f,60b91e7f81b40fd08d67baaa,2021-10-19_12h15.40.599,forced_choiceRT,2021.1.2,Win32,59.68011459,,,,,,,,3,Ontime,f,1,2.0198,3,1,13,0,1,,,,,
1.69,,,,,,,,,f.PNG,f,60b91e7f81b40fd08d67baaa,2021-10-19_12h15.40.599,forced_choiceRT,2021.1.2,Win32,59.68011459,,,,,,,,3,Slow,f,1,2.2678,3,2,14,0,1,,,,,
0.36,,,,,,,,,j.PNG,j,60b91e7f81b40fd08d67baaa,2021-10-19_12h15.40.599,forced_choiceRT,2021.1.2,Win32,59.68011459,,,,,,,,3,Ontime,j,1,2.0244,3,3,15,3,1,,,,,
0.87,,,,,,,,,g.PNG,g,60b91e7f81b40fd08d67baaa,2021-10-19_12h15.40.599,forced_choiceRT,2021.1.2,Win32,59.68011459,,,,,,,,3,Fast,g,1,1.7879,4,0,16,1,1,,,,,
1.02,,,,,,,,,f.PNG,f,60b91e7f81b40fd08d67baaa,2021-10-19_12h15.40.599,forced_choiceRT,2021.1.2,Win32,59.68011459,,,,,,,,3,Slow,f,1,2.1215,4,1,17,0,1,,,,,
1.57,,,,,,,,,h.PNG,h,60b91e7f81b40fd08d67baaa,2021-10-19_12h15.40.599,forced_choiceRT,2021.1.2,Win32,59.68011459,,,,,,,,3,Slow,h,1,2.3165,4,2,18,2,1,,,,,
0.01,,,,,,,,,g.PNG,g,60b91e7f81b40fd08d67baaa,2021-10-19_12h15.40.599,forced_choiceRT,2021.1.2,Win32,59.68011459,,,,,,,,3,Ontime,g,1,2.099,4,3,19,1,1,,,,,
1.52,,,,,,,,,f.PNG,f,60b91e7f81b40fd08d67baaa,2021-10-19_12h15.40.599,forced_choiceRT,2021.1.2,Win32,59.68011459,,,,,,,,3,Slow,g,0,2.2694,5,0,20,0,1,,,,,
0.25,,,,,,,,,j.PNG,j,60b91e7f81b40fd08d67baaa,2021-10-19_12h15.40.599,forced_choiceRT,2021.1.2,Win32,59.68011459,,,,,,,,3,Slow,j,1,2.1371,5,1,21,3,1,,,,,
1.36,,,,,,,,,f.PNG,f,60b91e7f81b40fd08d67baaa,2021-10-19_12h15.40.599,forced_choiceRT,2021.1.2,Win32,59.68011459,,,,,,,,3,Ontime,g,0,2.0699,5,2,22,0,1,,,,,
1.24,,,,,,,,,h.PNG,h,60b91e7f81b40fd08d67baaa,2021-10-19_12h15.40.599,forced_choiceRT,2021.1.2,Win32,59.68011459,,,,,,,,3,Slow,h,1,2.1169,5,3,23,2,1,,,,,
0.63,,,,,,,,,f.PNG,f,60b91e7f81b40fd08d67baaa,2021-10-19_12h15.40.599,forced_choiceRT,2021.1.2,Win32,59.68011459,,,,,,,,3,Ontime,f,1,2.0608,6,0,24,0,1,,,,,
1.26,,,,,,,,,g.PNG,g,60b91e7f81b40fd08d67baaa,2021-10-19_12h15.40.599,forced_choiceRT,2021.1.2,Win32,59.68011459,,,,,,,,3,Ontime,g,1,1.9422,6,1,25,1,1,,,,,
1.29,,,,,,,,,j.PNG,j,60b91e7f81b40fd08d67baaa,2021-10-19_12h15.40.599,forced_choiceRT,2021.1.2,Win32,59.68011459,,,,,,,,3,Ontime,j,1,1.9068,6,2,26,3,1,,,,,
0.19,,,,,,,,,f.PNG,f,60b91e7f81b40fd08d67baaa,2021-10-19_12h15.40.599,forced_choiceRT,2021.1.2,Win32,59.68011459,,,,,,,,3,Fast,f,1,1.8458,6,3,27,0,1,,,,,
1.07,,,,,,,,,g.PNG,g,60b91e7f81b40fd08d67baaa,2021-10-19_12h15.40.599,forced_choiceRT,2021.1.2,Win32,59.68011459,,,,,,,,3,Fast,g,1,1.8413,7,0,28,1,1,,,,,
0.35,,,,,,,,,h.PNG,h,60b91e7f81b40fd08d67baaa,2021-10-19_12h15.40.599,forced_choiceRT,2021.1.2,Win32,59.68011459,,,,,,,,3,Ontime,h,1,1.9543,7,1,29,2,1,,,,,
1.77,,,,,,,,,h.PNG,h,60b91e7f81b40fd08d67baaa,2021-10-19_12h15.40.599,forced_choiceRT,2021.1.2,Win32,59.68011459,,,,,,,,3,Slow,h,1,2.2666,7,2,30,2,1,,,,,
1.67,,,,,,,,,h.PNG,h,60b91e7f81b40fd08d67baaa,2021-10-19_12h15.40.599,forced_choiceRT,2021.1.2,Win32,59.68011459,,,,,,,,3,Slow,h,1,2.1409,7,3,31,2,1,,,,,
0.56,,,,,,,,,g.PNG,g,60b91e7f81b40fd08d67baaa,2021-10-19_12h15.40.599,forced_choiceRT,2021.1.2,Win32,59.68011459,,,,,,,,3,Ontime,g,1,1.9215,8,0,32,1,1,,,,,
0.21,,,,,,,,,g.PNG,g,60b91e7f81b40fd08d67baaa,2021-10-19_12h15.40.599,forced_choiceRT,2021.1.2,Win32,59.68011459,,,,,,,,3,Fast,g,1,1.7925,8,1,33,1,1,,,,,
0.37,,,,,,,,,g.PNG,g,60b91e7f81b40fd08d67baaa,2021-10-19_12h15.40.599,forced_choiceRT,2021.1.2,Win32,59.68011459,,,,,,,,3,Ontime,g,1,1.9749,8,2,34,1,1,,,,,
0.39,,,,,,,,,f.PNG,f,60b91e7f81b40fd08d67baaa,2021-10-19_12h15.40.599,forced_choiceRT,2021.1.2,Win32,59.68011459,,,,,,,,3,Fast,f,1,1.894,8,3,35,0,1,,,,,
1.95,,,,,,,,,j.PNG,j,60b91e7f81b40fd08d67baaa,2021-10-19_12h15.40.599,forced_choiceRT,2021.1.2,Win32,59.68011459,,,,,,,,3,Slow,h,0,2.3839,9,0,36,3,1,,,,,
0.35,,,,,,,,,h.PNG,h,60b91e7f81b40fd08d67baaa,2021-10-19_12h15.40.599,forced_choiceRT,2021.1.2,Win32,59.68011459,,,,,,,,3,Fast,h,1,1.8606,9,1,37,2,1,,,,,
0.68,,,,,,,,,g.PNG,g,60b91e7f81b40fd08d67baaa,2021-10-19_12h15.40.599,forced_choiceRT,2021.1.2,Win32,59.68011459,,,,,,,,3,Slow,g,1,2.123,9,2,38,1,1,,,,,
0.43,,,,,,,,,j.PNG,j,60b91e7f81b40fd08d67baaa,2021-10-19_12h15.40.599,forced_choiceRT,2021.1.2,Win32,59.68011459,,,,,,,,3,Ontime,j,1,1.9117,9,3,39,3,1,,,,,
,,,,,,,,,,,60b91e7f81b40fd08d67baaa,2021-10-19_12h15.40.599,forced_choiceRT,2021.1.2,Win32,59.68011459,,,,,,,,,,,,,,,,,,2,0,2,0,1
0.48,,,,,,,,,f.PNG,f,60b91e7f81b40fd08d67baaa,2021-10-19_12h15.40.599,forced_choiceRT,2021.1.2,Win32,59.68011459,,,,,,,,4,Ontime,f,1,2.0339,0,0,0,0,1,,,,,
1.28,,,,,,,,,f.PNG,f,60b91e7f81b40fd08d67baaa,2021-10-19_12h15.40.599,forced_choiceRT,2021.1.2,Win32,59.68011459,,,,,,,,4,Ontime,f,1,2.0719,0,1,1,0,1,,,,,
1.69,,,,,,,,,g.PNG,g,60b91e7f81b40fd08d67baaa,2021-10-19_12h15.40.599,forced_choiceRT,2021.1.2,Win32,59.68011459,,,,,,,,4,Slow,g,1,2.2505,0,2,2,1,1,,,,,
1.31,,,,,,,,,g.PNG,g,60b91e7f81b40fd08d67baaa,2021-10-19_12h15.40.599,forced_choiceRT,2021.1.2,Win32,59.68011459,,,,,,,,4,Ontime,g,1,1.924,0,3,3,1,1,,,,,
0.73,,,,,,,,,j.PNG,j,60b91e7f81b40fd08d67baaa,2021-10-19_12h15.40.599,forced_choiceRT,2021.1.2,Win32,59.68011459,,,,,,,,4,Ontime,j,1,2.036,1,0,4,3,1,,,,,
0.25,,,,,,,,,g.PNG,g,60b91e7f81b40fd08d67baaa,2021-10-19_12h15.40.599,forced_choiceRT,2021.1.2,Win32,59.68011459,,,,,,,,4,Ontime,g,1,2.0676,1,1,5,1,1,,,,,
0.4,,,,,,,,,f.PNG,f,60b91e7f81b40fd08d67baaa,2021-10-19_12h15.40.599,forced_choiceRT,2021.1.2,Win32,59.68011459,,,,,,,,4,Ontime,f,1,2.0176,1,2,6,0,1,,,,,
0.99,,,,,,,,,j.PNG,j,60b91e7f81b40fd08d67baaa,2021-10-19_12h15.40.599,forced_choiceRT,2021.1.2,Win32,59.68011459,,,,,,,,4,Fast,j,1,1.8997,1,3,7,3,1,,,,,
0.51,,,,,,,,,h.PNG,h,60b91e7f81b40fd08d67baaa,2021-10-19_12h15.40.599,forced_choiceRT,2021.1.2,Win32,59.68011459,,,,,,,,4,Ontime,h,1,2.0926,2,0,8,2,1,,,,,
1.97,,,,,,,,,f.PNG,f,60b91e7f81b40fd08d67baaa,2021-10-19_12h15.40.599,forced_choiceRT,2021.1.2,Win32,59.68011459,,,,,,,,4,Slow,f,1,2.5327,2,1,9,0,1,,,,,
0.94,,,,,,,,,h.PNG,h,60b91e7f81b40fd08d67baaa,2021-10-19_12h15.40.599,forced_choiceRT,2021.1.2,Win32,59.68011459,,,,,,,,4,Ontime,h,1,1.9206,2,2,10,2,1,,,,,
0.09,,,,,,,,,f.PNG,f,60b91e7f81b40fd08d67baaa,2021-10-19_12h15.40.599,forced_choiceRT,2021.1.2,Win32,59.68011459,,,,,,,,4,Ontime,f,1,2.0729,2,3,11,0,1,,,,,
1.12,,,,,,,,,j.PNG,j,60b91e7f81b40fd08d67baaa,2021-10-19_12h15.40.599,forced_choiceRT,2021.1.2,Win32,59.68011459,,,,,,,,4,Ontime,h,0,2.0672,3,0,12,3,1,,,,,
1.94,,,,,,,,,f.PNG,f,60b91e7f81b40fd08d67baaa,2021-10-19_12h15.40.599,forced_choiceRT,2021.1.2,Win32,59.68011459,,,,,,,,4,Ontime,f,1,1.9995,3,1,13,0,1,,,,,
1.79,,,,,,,,,h.PNG,h,60b91e7f81b40fd08d67baaa,2021-10-19_12h15.40.599,forced_choiceRT,2021.1.2,Win32,59.68011459,,,,,,,,4,Slow,f,0,2.2431,3,2,14,2,1,,,,,
1.22,,,,,,,,,f.PNG,f,60b91e7f81b40fd08d67baaa,2021-10-19_12h15.40.599,forced_choiceRT,2021.1.2,Win32,59.68011459,,,,,,,,4,Ontime,f,1,2.0531,3,3,15,0,1,,,,,
1.5,,,,,,,,,h.PNG,h,60b91e7f81b40fd08d67baaa,2021-10-19_12h15.40.599,forced_choiceRT,2021.1.2,Win32,59.68011459,,,,,,,,4,Slow,h,1,2.1431,4,0,16,2,1,,,,,
0.88,,,,,,,,,j.PNG,j,60b91e7f81b40fd08d67baaa,2021-10-19_12h15.40.599,forced_choiceRT,2021.1.2,Win32,59.68011459,,,,,,,,4,Slow,j,1,2.1938,4,1,17,3,1,,,,,
1.95,,,,,,,,,j.PNG,j,60b91e7f81b40fd08d67baaa,2021-10-19_12h15.40.599,forced_choiceRT,2021.1.2,Win32,59.68011459,,,,,,,,4,Slow,j,1,2.4672,4,2,18,3,1,,,,,
1.87,,,,,,,,,g.PNG,g,60b91e7f81b40fd08d67baaa,2021-10-19_12h15.40.599,forced_choiceRT,2021.1.2,Win32,59.68011459,,,,,,,,4,Slow,j,0,2.3157,4,3,19,1,1,,,,,
1.36,,,,,,,,,h.PNG,h,60b91e7f81b40fd08d67baaa,2021-10-19_12h15.40.599,forced_choiceRT,2021.1.2,Win32,59.68011459,,,,,,,,4,Ontime,h,1,2.0229,5,0,20,2,1,,,,,
1.2,,,,,,,,,g.PNG,g,60b91e7f81b40fd08d67baaa,2021-10-19_12h15.40.599,forced_choiceRT,2021.1.2,Win32,59.68011459,,,,,,,,4,Ontime,g,1,1.9695,5,1,21,1,1,,,,,
1.81,,,,,,,,,j.PNG,j,60b91e7f81b40fd08d67baaa,2021-10-19_12h15.40.599,forced_choiceRT,2021.1.2,Win32,59.68011459,,,,,,,,4,Slow,h,0,2.4167,5,2,22,3,1,,,,,
1.75,,,,,,,,,f.PNG,f,60b91e7f81b40fd08d67baaa,2021-10-19_12h15.40.599,forced_choiceRT,2021.1.2,Win32,59.68011459,,,,,,,,4,Slow,f,1,2.3222,5,3,23,0,1,,,,,
0.24,,,,,,,,,h.PNG,h,60b91e7f81b40fd08d67baaa,2021-10-19_12h15.40.599,forced_choiceRT,2021.1.2,Win32,59.68011459,,,,,,,,4,Fast,h,1,1.8003,6,0,24,2,1,,,,,
1.54,,,,,,,,,g.PNG,g,60b91e7f81b40fd08d67baaa,2021-10-19_12h15.40.599,forced_choiceRT,2021.1.2,Win32,59.68011459,,,,,,,,4,Slow,g,1,2.1725,6,1,25,1,1,,,,,
1.79,,,,,,,,,h.PNG,h,60b91e7f81b40fd08d67baaa,2021-10-19_12h15.40.599,forced_choiceRT,2021.1.2,Win32,59.68011459,,,,,,,,4,Slow,h,1,2.2174,6,2,26,2,1,,,,,
0.75,,,,,,,,,j.PNG,j,60b91e7f81b40fd08d67baaa,2021-10-19_12h15.40.599,forced_choiceRT,2021.1.2,Win32,59.68011459,,,,,,,,4,Fast,j,1,1.8498,6,3,27,3,1,,,,,
0.99,,,,,,,,,g.PNG,g,60b91e7f81b40fd08d67baaa,2021-10-19_12h15.40.599,forced_choiceRT,2021.1.2,Win32,59.68011459,,,,,,,,4,Ontime,g,1,1.917,7,0,28,1,1,,,,,
0.33,,,,,,,,,j.PNG,j,60b91e7f81b40fd08d67baaa,2021-10-19_12h15.40.599,forced_choiceRT,2021.1.2,Win32,59.68011459,,,,,,,,4,Ontime,j,1,1.9713,7,1,29,3,1,,,,,
1.55,,,,,,,,,g.PNG,g,60b91e7f81b40fd08d67baaa,2021-10-19_12h15.40.599,forced_choiceRT,2021.1.2,Win32,59.68011459,,,,,,,,4,Slow,g,1,2.1415,7,2,30,1,1,,,,,
1.53,,,,,,,,,f.PNG,f,60b91e7f81b40fd08d67baaa,2021-10-19_12h15.40.599,forced_choiceRT,2021.1.2,Win32,59.68011459,,,,,,,,4,Slow,f,1,2.3199,7,3,31,0,1,,,,,
0.58,,,,,,,,,h.PNG,h,60b91e7f81b40fd08d67baaa,2021-10-19_12h15.40.599,forced_choiceRT,2021.1.2,Win32,59.68011459,,,,,,,,4,Fast,h,1,1.7438,8,0,32,2,1,,,,,
0.87,,,,,,,,,g.PNG,g,60b91e7f81b40fd08d67baaa,2021-10-19_12h15.40.599,forced_choiceRT,2021.1.2,Win32,59.68011459,,,,,,,,4,Fast,g,1,1.784,8,1,33,1,1,,,,,
1.05,,,,,,,,,f.PNG,f,60b91e7f81b40fd08d67baaa,2021-10-19_12h15.40.599,forced_choiceRT,2021.1.2,Win32,59.68011459,,,,,,,,4,Ontime,f,1,2.057,8,2,34,0,1,,,,,
1.51,,,,,,,,,j.PNG,j,60b91e7f81b40fd08d67baaa,2021-10-19_12h15.40.599,forced_choiceRT,2021.1.2,Win32,59.68011459,,,,,,,,4,Slow,j,1,2.2048,8,3,35,3,1,,,,,
0.54,,,,,,,,,h.PNG,h,60b91e7f81b40fd08d67baaa,2021-10-19_12h15.40.599,forced_choiceRT,2021.1.2,Win32,59.68011459,,,,,,,,4,Ontime,h,1,1.9377,9,0,36,2,1,,,,,
1.17,,,,,,,,,j.PNG,j,60b91e7f81b40fd08d67baaa,2021-10-19_12h15.40.599,forced_choiceRT,2021.1.2,Win32,59.68011459,,,,,,,,4,Ontime,j,1,1.9719,9,1,37,3,1,,,,,
1.66,,,,,,,,,g.PNG,g,60b91e7f81b40fd08d67baaa,2021-10-19_12h15.40.599,forced_choiceRT,2021.1.2,Win32,59.68011459,,,,,,,,4,Slow,h,0,2.2507,9,2,38,1,1,,,,,
0.25,,,,,,,,,h.PNG,h,60b91e7f81b40fd08d67baaa,2021-10-19_12h15.40.599,forced_choiceRT,2021.1.2,Win32,59.68011459,,,,,,,,4,Ontime,h,1,1.9838,9,3,39,2,1,,,,,
,,,,,,,,,,,60b91e7f81b40fd08d67baaa,2021-10-19_12h15.40.599,forced_choiceRT,2021.1.2,Win32,59.68011459,,,,,,,,,,,,,,,,,,3,0,3,0,1
0.61,,,,,,,,,h.PNG,h,60b91e7f81b40fd08d67baaa,2021-10-19_12h15.40.599,forced_choiceRT,2021.1.2,Win32,59.68011459,,,,,,,,5,Slow,g,0,2.1167,0,0,0,2,1,,,,,
0.84,,,,,,,,,f.PNG,f,60b91e7f81b40fd08d67baaa,2021-10-19_12h15.40.599,forced_choiceRT,2021.1.2,Win32,59.68011459,,,,,,,,5,Ontime,f,1,1.9424,0,1,1,0,1,,,,,
0.49,,,,,,,,,h.PNG,h,60b91e7f81b40fd08d67baaa,2021-10-19_12h15.40.599,forced_choiceRT,2021.1.2,Win32,59.68011459,,,,,,,,5,Fast,h,1,1.8764,0,2,2,2,1,,,,,
0.8,,,,,,,,,j.PNG,j,60b91e7f81b40fd08d67baaa,2021-10-19_12h15.40.599,forced_choiceRT,2021.1.2,Win32,59.68011459,,,,,,,,5,Ontime,j,1,2.0002,0,3,3,3,1,,,,,
1.24,,,,,,,,,j.PNG,j,60b91e7f81b40fd08d67baaa,2021-10-19_12h15.40.599,forced_choiceRT,2021.1.2,Win32,59.68011459,,,,,,,,5,Ontime,j,1,2.0997,1,0,4,3,1,,,,,
1.44,,,,,,,,,g.PNG,g,60b91e7f81b40fd08d67baaa,2021-10-19_12h15.40.599,forced_choiceRT,2021.1.2,Win32,59.68011459,,,,,,,,5,Slow,h,0,2.1656,1,1,5,1,1,,,,,
0.42,,,,,,,,,h.PNG,h,60b91e7f81b40fd08d67baaa,2021-10-19_12h15.40.599,forced_choiceRT,2021.1.2,Win32,59.68011459,,,,,,,,5,Fast,h,1,1.8762,1,2,6,2,1,,,,,
0.26,,,,,,,,,f.PNG,f,60b91e7f81b40fd08d67baaa,2021-10-19_12h15.40.599,forced_choiceRT,2021.1.2,Win32,59.68011459,,,,,,,,5,Ontime,f,1,1.9033,1,3,7,0,1,,,,,
1.23,,,,,,,,,f.PNG,f,60b91e7f81b40fd08d67baaa,2021-10-19_12h15.40.599,forced_choiceRT,2021.1.2,Win32,59.68011459,,,,,,,,5,Ontime,f,1,1.9828,2,0,8,0,1,,,,,
0.58,,,,,,,,,g.PNG,g,60b91e7f81b40fd08d67baaa,2021-10-19_12h15.40.599,forced_choiceRT,2021.1.2,Win32,59.68011459,,,,,,,,5,Ontime,g,1,1.9335,2,1,9,1,1,,,,,
1.03,,,,,,,,,h.PNG,h,60b91e7f81b40fd08d67baaa,2021-10-19_12h15.40.599,forced_choiceRT,2021.1.2,Win32,59.68011459,,,,,,,,5,Fast,h,1,1.6631,2,2,10,2,1,,,,,
0.72,,,,,,,,,f.PNG,f,60b91e7f81b40fd08d67baaa,2021-10-19_12h15.40.599,forced_choiceRT,2021.1.2,Win32,59.68011459,,,,,,,,5,Ontime,f,1,1.9228,2,3,11,0,1,,,,,
1.02,,,,,,,,,f.PNG,f,60b91e7f81b40fd08d67baaa,2021-10-19_12h15.40.599,forced_choiceRT,2021.1.2,Win32,59.68011459,,,,,,,,5,Fast,f,1,1.8923,3,0,12,0,1,,,,,
0.95,,,,,,,,,g.PNG,g,60b91e7f81b40fd08d67baaa,2021-10-19_12h15.40.599,forced_choiceRT,2021.1.2,Win32,59.68011459,,,,,,,,5,Ontime,h,0,1.9123,3,1,13,1,1,,,,,
0.16,,,,,,,,,h.PNG,h,60b91e7f81b40fd08d67baaa,2021-10-19_12h15.40.599,forced_choiceRT,2021.1.2,Win32,59.68011459,,,,,,,,5,Fast,h,1,1.6827,3,2,14,2,1,,,,,
1.32,,,,,,,,,g.PNG,g,60b91e7f81b40fd08d67baaa,2021-10-19_12h15.40.599,forced_choiceRT,2021.1.2,Win32,59.68011459,,,,,,,,5,Ontime,g,1,1.991,3,3,15,1,1,,,,,
1.38,,,,,,,,,f.PNG,f,60b91e7f81b40fd08d67baaa,2021-10-19_12h15.40.599,forced_choiceRT,2021.1.2,Win32,59.68011459,,,,,,,,5,Ontime,f,1,2.0251,4,0,16,0,1,,,,,
0.03,,,,,,,,,f.PNG,f,60b91e7f81b40fd08d67baaa,2021-10-19_12h15.40.599,forced_choiceRT,2021.1.2,Win32,59.68011459,,,,,,,,5,Fast,h,0,1.7129,4,1,17,0,1,,,,,
0.48,,,,,,,,,j.PNG,j,60b91e7f81b40fd08d67baaa,2021-10-19_12h15.40.599,forced_choiceRT,2021.1.2,Win32,59.68011459,,,,,,,,5,Fast,j,1,1.7948,4,2,18,3,1,,,,,
1.73,,,,,,,,,g.PNG,g,60b91e7f81b40fd08d67baaa,2021-10-19_12h15.40.599,forced_choiceRT,2021.1.2,Win32,59.68011459,,,,,,,,5,Slow,h,0,2.1343,4,3,19,1,1,,,,,
1.58,,,,,,,,,j.PNG,j,60b91e7f81b40fd08d67baaa,2021-10-19_12h15.40.599,forced_choiceRT,2021.1.2,Win32,59.68011459,,,,,,,,5,Ontime,h,0,2.0667,5,0,20,3,1,,,,,
0.75,,,,,,,,,h.PNG,h,60b91e7f81b40fd08d67baaa,2021-10-19_12h15.40.599,forced_choiceRT,2021.1.2,Win32,59.68011459,,,,,,,,5,Ontime,h,1,1.9173,5,1,21,2,1,,,,,
1.89,,,,,,,,,g.PNG,g,60b91e7f81b40fd08d67baaa,2021-10-19_12h15.40.599,forced_choiceRT,2021.1.2,Win32,59.68011459,,,,,,,,5,Slow,h,0,2.4346,5,2,22,1,1,,,,,
0.54,,,,,,,,,h.PNG,h,60b91e7f81b40fd08d67baaa,2021-10-19_12h15.40.599,forced_choiceRT,2021.1.2,Win32,59.68011459,,,,,,,,5,Fast,h,1,1.8747,5,3,23,2,1,,,,,
0.98,,,,,,,,,f.PNG,f,60b91e7f81b40fd08d67baaa,2021-10-19_12h15.40.599,forced_choiceRT,2021.1.2,Win32,59.68011459,,,,,,,,5,Slow,g,0,2.1347,6,0,24,0,1,,,,,
1.32,,,,,,,,,h.PNG,h,60b91e7f81b40fd08d67baaa,2021-10-19_12h15.40.599,forced_choiceRT,2021.1.2,Win32,59.68011459,,,,,,,,5,Fast,h,1,1.7429,6,1,25,2,1,,,,,
0.21,,,,,,,,,f.PNG,f,60b91e7f81b40fd08d67baaa,2021-10-19_12h15.40.599,forced_choiceRT,2021.1.2,Win32,59.68011459,,,,,,,,5,Fast,f,1,1.7344,6,2,26,0,1,,,,,
0.14,,,,,,,,,j.PNG,j,60b91e7f81b40fd08d67baaa,2021-10-19_12h15.40.599,forced_choiceRT,2021.1.2,Win32,59.68011459,,,,,,,,5,Fast,j,1,1.8912,6,3,27,3,1,,,,,
0.49,,,,,,,,,j.PNG,j,60b91e7f81b40fd08d67baaa,2021-10-19_12h15.40.599,forced_choiceRT,2021.1.2,Win32,59.68011459,,,,,,,,5,Fast,j,1,1.8885,7,0,28,3,1,,,,,
0.2,,,,,,,,,f.PNG,f,60b91e7f81b40fd08d67baaa,2021-10-19_12h15.40.599,forced_choiceRT,2021.1.2,Win32,59.68011459,,,,,,,,5,Fast,f,1,1.8118,7,1,29,0,1,,,,,
1.76,,,,,,,,,j.PNG,j,60b91e7f81b40fd08d67baaa,2021-10-19_12h15.40.599,forced_choiceRT,2021.1.2,Win32,59.68011459,,,,,,,,5,Slow,h,0,2.2684,7,2,30,3,1,,,,,
1.01,,,,,,,,,g.PNG,g,60b91e7f81b40fd08d67baaa,2021-10-19_12h15.40.599,forced_choiceRT,2021.1.2,Win32,59.68011459,,,,,,,,5,Ontime,g,1,2.027,7,3,31,1,1,,,,,
0.4,,,,,,,,,g.PNG,g,60b91e7f81b40fd08d67baaa,2021-10-19_12h15.40.599,forced_choiceRT,2021.1.2,Win32,59.68011459,,,,,,,,5,Fast,g,1,1.7844,8,0,32,1,1,,,,,
1.05,,,,,,,,,j.PNG,j,60b91e7f81b40fd08d67baaa,2021-10-19_12h15.40.599,forced_choiceRT,2021.1.2,Win32,59.68011459,,,,,,,,5,Ontime,j,1,1.9283,8,1,33,3,1,,,,,
1.11,,,,,,,,,g.PNG,g,60b91e7f81b40fd08d67baaa,2021-10-19_12h15.40.599,forced_choiceRT,2021.1.2,Win32,59.68011459,,,,,,,,5,Fast,f,0,1.888,8,2,34,1,1,,,,,
0.97,,,,,,,,,g.PNG,g,60b91e7f81b40fd08d67baaa,2021-10-19_12h15.40.599,forced_choiceRT,2021.1.2,Win32,59.68011459,,,,,,,,5,Fast,g,1,1.7882,8,3,35,1,1,,,,,
0.91,,,,,,,,,h.PNG,h,60b91e7f81b40fd08d67baaa,2021-10-19_12h15.40.599,forced_choiceRT,2021.1.2,Win32,59.68011459,,,,,,,,5,Fast,h,1,1.7423,9,0,36,2,1,,,,,
1.95,,,,,,,,,j.PNG,j,60b91e7f81b40fd08d67baaa,2021-10-19_12h15.40.599,forced_choiceRT,2021.1.2,Win32,59.68011459,,,,,,,,5,Slow,h,0,2.1593,9,1,37,3,1,,,,,
0.5,,,,,,,,,h.PNG,h,60b91e7f81b40fd08d67baaa,2021-10-19_12h15.40.599,forced_choiceRT,2021.1.2,Win32,59.68011459,,,,,,,,5,Fast,h,1,1.8795,9,2,38,2,1,,,,,
0.9,,,,,,,,,j.PNG,j,60b91e7f81b40fd08d67baaa,2021-10-19_12h15.40.599,forced_choiceRT,2021.1.2,Win32,59.68011459,,,,,,,,5,Ontime,j,1,1.9508,9,3,39,3,1,,,,,
,,,,,,,,,,,60b91e7f81b40fd08d67baaa,2021-10-19_12h15.40.599,forced_choiceRT,2021.1.2,Win32,59.68011459,,,,,,,,,,,,,,,,,,4,0,4,0,1
0.55,,,,,,,,,g.PNG,g,60b91e7f81b40fd08d67baaa,2021-10-19_12h15.40.599,forced_choiceRT,2021.1.2,Win32,59.68011459,,,,,,,,6,Ontime,h,0,2.085,0,0,0,1,1,,,,,
0.71,,,,,,,,,j.PNG,j,60b91e7f81b40fd08d67baaa,2021-10-19_12h15.40.599,forced_choiceRT,2021.1.2,Win32,59.68011459,,,,,,,,6,Ontime,j,1,1.9005,0,1,1,3,1,,,,,
0.96,,,,,,,,,j.PNG,j,60b91e7f81b40fd08d67baaa,2021-10-19_12h15.40.599,forced_choiceRT,2021.1.2,Win32,59.68011459,,,,,,,,6,Ontime,j,1,1.9285,0,2,2,3,1,,,,,
1.76,,,,,,,,,g.PNG,g,60b91e7f81b40fd08d67baaa,2021-10-19_12h15.40.599,forced_choiceRT,2021.1.2,Win32,59.68011459,,,,,,,,6,Fast,j,0,1.8699,0,3,3,1,1,,,,,
0.75,,,,,,,,,f.PNG,f,60b91e7f81b40fd08d67baaa,2021-10-19_12h15.40.599,forced_choiceRT,2021.1.2,Win32,59.68011459,,,,,,,,6,Ontime,f,1,1.9883,1,0,4,0,1,,,,,
0.66,,,,,,,,,f.PNG,f,60b91e7f81b40fd08d67baaa,2021-10-19_12h15.40.599,forced_choiceRT,2021.1.2,Win32,59.68011459,,,,,,,,6,Ontime,f,1,1.935,1,1,5,0,1,,,,,
0.02,,,,,,,,,h.PNG,h,60b91e7f81b40fd08d67baaa,2021-10-19_12h15.40.599,forced_choiceRT,2021.1.2,Win32,59.68011459,,,,,,,,6,Ontime,h,1,1.9675,1,2,6,2,1,,,,,
1.83,,,,,,,,,f.PNG,f,60b91e7f81b40fd08d67baaa,2021-10-19_12h15.40.599,forced_choiceRT,2021.1.2,Win32,59.68011459,,,,,,,,6,Ontime,h,0,2.0749,1,3,7,0,1,,,,,
0.03,,,,,,,,,g.PNG,g,60b91e7f81b40fd08d67baaa,2021-10-19_12h15.40.599,forced_choiceRT,2021.1.2,Win32,59.68011459,,,,,,,,6,Fast,g,1,1.6169,2,0,8,1,1,,,,,
0.4,,,,,,,,,f.PNG,f,60b91e7f81b40fd08d67baaa,2021-10-19_12h15.40.599,forced_choiceRT,2021.1.2,Win32,59.68011459,,,,,,,,6,Fast,f,1,1.8194,2,1,9,0,1,,,,,
0.16,,,,,,,,,j.PNG,j,60b91e7f81b40fd08d67baaa,2021-10-19_12h15.40.599,forced_choiceRT,2021.1.2,Win32,59.68011459,,,,,,,,6,Fast,f,0,1.6962,2,2,10,3,1,,,,,
1.15,,,,,,,,,j.PNG,j,60b91e7f81b40fd08d67baaa,2021-10-19_12h15.40.599,forced_choiceRT,2021.1.2,Win32,59.68011459,,,,,,,,6,Slow,j,1,2.2172,2,3,11,3,1,,,,,
1.05,,,,,,,,,g.PNG,g,60b91e7f81b40fd08d67baaa,2021-10-19_12h15.40.599,forced_choiceRT,2021.1.2,Win32,59.68011459,,,,,,,,6,Fast,j,0,1.6279,3,0,12,1,1,,,,,
0.2,,,,,,,,,j.PNG,j,60b91e7f81b40fd08d67baaa,2021-10-19_12h15.40.599,forced_choiceRT,2021.1.2,Win32,59.68011459,,,,,,,,6,Fast,j,1,1.6427,3,1,13,3,1,,,,,
1.24,,,,,,,,,h.PNG,h,60b91e7f81b40fd08d67baaa,2021-10-19_12h15.40.599,forced_choiceRT,2021.1.2,Win32,59.68011459,,,,,,,,6,Ontime,j,0,1.9611,3,2,14,2,1,,,,,
1.67,,,,,,,,,f.PNG,f,60b91e7f81b40fd08d67baaa,2021-10-19_12h15.40.599,forced_choiceRT,2021.1.2,Win32,59.68011459,,,,,,,,6,Ontime,h,0,1.956,3,3,15,0,1,,,,,
0.07,,,,,,,,,j.PNG,j,60b91e7f81b40fd08d67baaa,2021-10-19_12h15.40.599,forced_choiceRT,2021.1.2,Win32,59.68011459,,,,,,,,6,Fast,j,1,1.7239,4,0,16,3,1,,,,,
1.96,,,,,,,,,f.PNG,f,60b91e7f81b40fd08d67baaa,2021-10-19_12h15.40.599,forced_choiceRT,2021.1.2,Win32,59.68011459,,,,,,,,6,Ontime,h,0,1.9489,4,1,17,0,1,,,,,
0.2,,,,,,,,,h.PNG,h,60b91e7f81b40fd08d67baaa,2021-10-19_12h15.40.599,forced_choiceRT,2021.1.2,Win32,59.68011459,,,,,,,,6,Ontime,h,1,1.9278,4,2,18,2,1,,,,,
0.62,,,,,,,,,f.PNG,f,60b91e7f81b40fd08d67baaa,2021-10-19_12h15.40.599,forced_choiceRT,2021.1.2,Win32,59.68011459,,,,,,,,6,Ontime,f,1,1.9221,4,3,19,0,1,,,,,
1.47,,,,,,,,,f.PNG,f,60b91e7f81b40fd08d67baaa,2021-10-19_12h15.40.599,forced_choiceRT,2021.1.2,Win32,59.68011459,,,,,,,,6,Fast,f,1,1.8614,5,0,20,0,1,,,,,
0.25,,,,,,,,,h.PNG,h,60b91e7f81b40fd08d67baaa,2021-10-19_12h15.40.599,forced_choiceRT,2021.1.2,Win32,59.68011459,,,,,,,,6,Ontime,h,1,1.9752,5,1,21,2,1,,,,,
0.7,,,,,,,,,h.PNG,h,60b91e7f81b40fd08d67baaa,2021-10-19_12h15.40.599,forced_choiceRT,2021.1.2,Win32,59.68011459,,,,,,,,6,Fast,h,1,1.8333,5,2,22,2,1,,,,,
0.89,,,,,,,,,h.PNG,h,60b91e7f81b40fd08d67baaa,2021-10-19_12h15.40.599,forced_choiceRT,2021.1.2,Win32,59.68011459,,,,,,,,6,Ontime,h,1,2.056,5,3,23,2,1,,,,,
0.24,,,,,,,,,j.PNG,j,60b91e7f81b40fd08d67baaa,2021-10-19_12h15.40.599,forced_choiceRT,2021.1.2,Win32,59.68011459,,,,,,,,6,Fast,j,1,1.7989,6,0,24,3,1,,,,,
1.18,,,,,,,,,j.PNG,j,60b91e7f81b40fd08d67baaa,2021-10-19_12h15.40.599,forced_choiceRT,2021.1.2,Win32,59.68011459,,,,,,,,6,Slow,j,1,2.172,6,1,25,3,1,,,,,
1.55,,,,,,,,,h.PNG,h,60b91e7f81b40fd08d67baaa,2021-10-19_12h15.40.599,forced_choiceRT,2021.1.2,Win32,59.68011459,,,,,,,,6,Fast,j,0,1.8862,6,2,26,2,1,,,,,
1.16,,,,,,,,,f.PNG,f,60b91e7f81b40fd08d67baaa,2021-10-19_12h15.40.599,forced_choiceRT,2021.1.2,Win32,59.68011459,,,,,,,,6,Ontime,f,1,1.9199,6,3,27,0,1,,,,,
0.89,,,,,,,,,g.PNG,g,60b91e7f81b40fd08d67baaa,2021-10-19_12h15.40.599,forced_choiceRT,2021.1.2,Win32,59.68011459,,,,,,,,6,Ontime,g,1,2.0691,7,0,28,1,1,,,,,
1.21,,,,,,,,,f.PNG,f,60b91e7f81b40fd08d67baaa,2021-10-19_12h15.40.599,forced_choiceRT,2021.1.2,Win32,59.68011459,,,,,,,,6,Ontime,f,1,1.9216,7,1,29,0,1,,,,,
1.49,,,,,,,,,g.PNG,g,60b91e7f81b40fd08d67baaa,2021-10-19_12h15.40.599,forced_choiceRT,2021.1.2,Win32,59.68011459,,,,,,,,6,Fast,f,0,1.8718,7,2,30,1,1,,,,,
1.45,,,,,,,,,g.PNG,g,60b91e7f81b40fd08d67baaa,2021-10-19_12h15.40.599,forced_choiceRT,2021.1.2,Win32,59.68011459,,,,,,,,6,Ontime,f,0,1.9844,7,3,31,1,1,,,,,
1.13,,,,,,,,,h.PNG,h,60b91e7f81b40fd08d67baaa,2021-10-19_12h15.40.599,forced_choiceRT,2021.1.2,Win32,59.68011459,,,,,,,,6,Ontime,h,1,1.9174,8,0,32,2,1,,,,,
1.82,,,,,,,,,j.PNG,j,60b91e7f81b40fd08d67baaa,2021-10-19_12h15.40.599,forced_choiceRT,2021.1.2,Win32,59.68011459,,,,,,,,6,Ontime,h,0,1.9023,8,1,33,3,1,,,,,
1.04,,,,,,,,,g.PNG,g,60b91e7f81b40fd08d67baaa,2021-10-19_12h15.40.599,forced_choiceRT,2021.1.2,Win32,59.68011459,,,,,,,,6,Ontime,h,0,1.9874,8,2,34,1,1,,,,,
1.4,,,,,,,,,j.PNG,j,60b91e7f81b40fd08d67baaa,2021-10-19_12h15.40.599,forced_choiceRT,2021.1.2,Win32,59.68011459,,,,,,,,6,Slow,g,0,2.1347,8,3,35,3,1,,,,,
0.57,,,,,,,,,h.PNG,h,60b91e7f81b40fd08d67baaa,2021-10-19_12h15.40.599,forced_choiceRT,2021.1.2,Win32,59.68011459,,,,,,,,6,Fast,f,0,1.8017,9,0,36,2,1,,,,,
0.16,,,,,,,,,g.PNG,g,60b91e7f81b40fd08d67baaa,2021-10-19_12h15.40.599,forced_choiceRT,2021.1.2,Win32,59.68011459,,,,,,,,6,Ontime,j,0,2.0356,9,1,37,1,1,,,,,
1.11,,,,,,,,,g.PNG,g,60b91e7f81b40fd08d67baaa,2021-10-19_12h15.40.599,forced_choiceRT,2021.1.2,Win32,59.68011459,,,,,,,,6,Ontime,g,1,2.0058,9,2,38,1,1,,,,,
1.84,,,,,,,,,h.PNG,h,60b91e7f81b40fd08d67baaa,2021-10-19_12h15.40.599,forced_choiceRT,2021.1.2,Win32,59.68011459,,,,,,,,6,Fast,g,0,1.8251,9,3,39,2,1,,,,,
,,,,,,,,,,,60b91e7f81b40fd08d67baaa,2021-10-19_12h15.40.599,forced_choiceRT,2021.1.2,Win32,59.68011459,,,,,,,,,,,,,,,,,,5,0,5,0,1
1.65,,,,,,,,,h.PNG,h,60b91e7f81b40fd08d67baaa,2021-10-19_12h15.40.599,forced_choiceRT,2021.1.2,Win32,59.68011459,,,,,,,,7,Ontime,h,1,1.9418,0,0,0,2,1,,,,,
0.33,,,,,,,,,g.PNG,g,60b91e7f81b40fd08d67baaa,2021-10-19_12h15.40.599,forced_choiceRT,2021.1.2,Win32,59.68011459,,,,,,,,7,Fast,g,1,1.7675,0,1,1,1,1,,,,,
0.96,,,,,,,,,g.PNG,g,60b91e7f81b40fd08d67baaa,2021-10-19_12h15.40.599,forced_choiceRT,2021.1.2,Win32,59.68011459,,,,,,,,7,Ontime,g,1,1.933,0,2,2,1,1,,,,,
0.73,,,,,,,,,g.PNG,g,60b91e7f81b40fd08d67baaa,2021-10-19_12h15.40.599,forced_choiceRT,2021.1.2,Win32,59.68011459,,,,,,,,7,Ontime,g,1,1.9164,0,3,3,1,1,,,,,
1.9,,,,,,,,,j.PNG,j,60b91e7f81b40fd08d67baaa,2021-10-19_12h15.40.599,forced_choiceRT,2021.1.2,Win32,59.68011459,,,,,,,,7,Ontime,f,0,1.9165,1,0,4,3,1,,,,,
0.41,,,,,,,,,h.PNG,h,60b91e7f81b40fd08d67baaa,2021-10-19_12h15.40.599,forced_choiceRT,2021.1.2,Win32,59.68011459,,,,,,,,7,Fast,h,1,1.7917,1,1,5,2,1,,,,,
1.18,,,,,,,,,j.PNG,j,60b91e7f81b40fd08d67baaa,2021-10-19_12h15.40.599,forced_choiceRT,2021.1.2,Win32,59.68011459,,,,,,,,7,Ontime,h,0,1.9187,1,2,6,3,1,,,,,
0.77,,,,,,,,,h.PNG,h,60b91e7f81b40fd08d67baaa,2021-10-19_12h15.40.599,forced_choiceRT,2021.1.2,Win32,59.68011459,,,,,,,,7,Ontime,g,0,2.0337,1,3,7,2,1,,,,,
0.75,,,,,,,,,h.PNG,h,60b91e7f81b40fd08d67baaa,2021-10-19_12h15.40.599,forced_choiceRT,2021.1.2,Win32,59.68011459,,,,,,,,7,Ontime,h,1,2.0677,2,0,8,2,1,,,,,
0.07,,,,,,,,,f.PNG,f,60b91e7f81b40fd08d67baaa,2021-10-19_12h15.40.599,forced_choiceRT,2021.1.2,Win32,59.68011459,,,,,,,,7,Fast,f,1,1.802,2,1,9,0,1,,,,,
0.96,,,,,,,,,g.PNG,g,60b91e7f81b40fd08d67baaa,2021-10-19_12h15.40.599,forced_choiceRT,2021.1.2,Win32,59.68011459,,,,,,,,7,Ontime,g,1,1.9334,2,2,10,1,1,,,,,
1.62,,,,,,,,,j.PNG,j,60b91e7f81b40fd08d67baaa,2021-10-19_12h15.40.599,forced_choiceRT,2021.1.2,Win32,59.68011459,,,,,,,,7,Slow,g,0,2.1431,2,3,11,3,1,,,,,
0.9,,,,,,,,,j.PNG,j,60b91e7f81b40fd08d67baaa,2021-10-19_12h15.40.599,forced_choiceRT,2021.1.2,Win32,59.68011459,,,,,,,,7,Ontime,j,1,1.9338,3,0,12,3,1,,,,,
1.2,,,,,,,,,g.PNG,g,60b91e7f81b40fd08d67baaa,2021-10-19_12h15.40.599,forced_choiceRT,2021.1.2,Win32,59.68011459,,,,,,,,7,Ontime,h,0,1.9697,3,1,13,1,1,,,,,
1.29,,,,,,,,,f.PNG,f,60b91e7f81b40fd08d67baaa,2021-10-19_12h15.40.599,forced_choiceRT,2021.1.2,Win32,59.68011459,,,,,,,,7,Ontime,f,1,1.9167,3,2,14,0,1,,,,,
1.42,,,,,,,,,j.PNG,j,60b91e7f81b40fd08d67baaa,2021-10-19_12h15.40.599,forced_choiceRT,2021.1.2,Win32,59.68011459,,,,,,,,7,Ontime,h,0,2.0078,3,3,15,3,1,,,,,
1.65,,,,,,,,,h.PNG,h,60b91e7f81b40fd08d67baaa,2021-10-19_12h15.40.599,forced_choiceRT,2021.1.2,Win32,59.68011459,,,,,,,,7,Slow,h,1,2.2371,4,0,16,2,1,,,,,
0.35,,,,,,,,,f.PNG,f,60b91e7f81b40fd08d67baaa,2021-10-19_12h15.40.599,forced_choiceRT,2021.1.2,Win32,59.68011459,,,,,,,,7,Ontime,g,0,2.0999,4,1,17,0,1,,,,,
1.98,,,,,,,,,f.PNG,f,60b91e7f81b40fd08d67baaa,2021-10-19_12h15.40.599,forced_choiceRT,2021.1.2,Win32,59.68011459,,,,,,,,7,Ontime,f,1,1.9867,4,2,18,0,1,,,,,
1.18,,,,,,,,,h.PNG,h,60b91e7f81b40fd08d67baaa,2021-10-19_12h15.40.599,forced_choiceRT,2021.1.2,Win32,59.68011459,,,,,,,,7,Ontime,h,1,2.0326,4,3,19,2,1,,,,,
1.97,,,,,,,,,j.PNG,j,60b91e7f81b40fd08d67baaa,2021-10-19_12h15.40.599,forced_choiceRT,2021.1.2,Win32,59.68011459,,,,,,,,7,Ontime,h,0,1.9864,5,0,20,3,1,,,,,
1.64,,,,,,,,,f.PNG,f,60b91e7f81b40fd08d67baaa,2021-10-19_12h15.40.599,forced_choiceRT,2021.1.2,Win32,59.68011459,,,,,,,,7,Ontime,h,0,1.9251,5,1,21,0,1,,,,,
1.41,,,,,,,,,h.PNG,h,60b91e7f81b40fd08d67baaa,2021-10-19_12h15.40.599,forced_choiceRT,2021.1.2,Win32,59.68011459,,,,,,,,7,Ontime,j,0,1.9886,5,2,22,2,1,,,,,
1.39,,,,,,,,,g.PNG,g,60b91e7f81b40fd08d67baaa,2021-10-19_12h15.40.599,forced_choiceRT,2021.1.2,Win32,59.68011459,,,,,,,,7,Ontime,f,0,2.0435,5,3,23,1,1,,,,,
0.06,,,,,,,,,f.PNG,f,60b91e7f81b40fd08d67baaa,2021-10-19_12h15.40.599,forced_choiceRT,2021.1.2,Win32,59.68011459,,,,,,,,7,Fast,f,1,1.7626,6,0,24,0,1,,,,,
1.25,,,,,,,,,g.PNG,g,60b91e7f81b40fd08d67baaa,2021-10-19_12h15.40.599,forced_choiceRT,2021.1.2,Win32,59.68011459,,,,,,,,7,Ontime,h,0,2.0427,6,1,25,1,1,,,,,
1.83,,,,,,,,,j.PNG,j,60b91e7f81b40fd08d67baaa,2021-10-19_12h15.40.599,forced_choiceRT,2021.1.2,Win32,59.68011459,,,,,,,,7,Ontime,f,0,1.9623,6,2,26,3,1,,,,,
0.94,,,,,,,,,f.PNG,f,60b91e7f81b40fd08d67baaa,2021-10-19_12h15.40.599,forced_choiceRT,2021.1.2,Win32,59.68011459,,,,,,,,7,Fast,f,1,1.8248,6,3,27,0,1,,,,,
0.2,,,,,,,,,f.PNG,f,60b91e7f81b40fd08d67baaa,2021-10-19_12h15.40.599,forced_choiceRT,2021.1.2,Win32,59.68011459,,,,,,,,7,Ontime,f,1,1.9332,7,0,28,0,1,,,,,
0.9,,,,,,,,,f.PNG,f,60b91e7f81b40fd08d67baaa,2021-10-19_12h15.40.599,forced_choiceRT,2021.1.2,Win32,59.68011459,,,,,,,,7,Ontime,f,1,1.9909,7,1,29,0,1,,,,,
0.72,,,,,,,,,g.PNG,g,60b91e7f81b40fd08d67baaa,2021-10-19_12h15.40.599,forced_choiceRT,2021.1.2,Win32,59.68011459,,,,,,,,7,Ontime,g,1,2.0999,7,2,30,1,1,,,,,
0.56,,,,,,,,,g.PNG,g,60b91e7f81b40fd08d67baaa,2021-10-19_12h15.40.599,forced_choiceRT,2021.1.2,Win32,59.68011459,,,,,,,,7,Ontime,g,1,1.9893,7,3,31,1,1,,,,,
0.64,,,,,,,,,h.PNG,h,60b91e7f81b40fd08d67baaa,2021-10-19_12h15.40.599,forced_choiceRT,2021.1.2,Win32,59.68011459,,,,,,,,7,Ontime,h,1,1.9669,8,0,32,2,1,,,,,
1.26,,,,,,,,,j.PNG,j,60b91e7f81b40fd08d67baaa,2021-10-19_12h15.40.599,forced_choiceRT,2021.1.2,Win32,59.68011459,,,,,,,,7,Ontime,j,1,1.9504,8,1,33,3,1,,,,,
0.66,,,,,,,,,h.PNG,h,60b91e7f81b40fd08d67baaa,2021-10-19_12h15.40.599,forced_choiceRT,2021.1.2,Win32,59.68011459,,,,,,,,7,Ontime,h,1,1.9631,8,2,34,2,1,,,,,
0.27,,,,,,,,,f.PNG,f,60b91e7f81b40fd08d67baaa,2021-10-19_12h15.40.599,forced_choiceRT,2021.1.2,Win32,59.68011459,,,,,,,,7,Ontime,f,1,1.9689,8,3,35,0,1,,,,,
0.53,,,,,,,,,g.PNG,g,60b91e7f81b40fd08d67baaa,2021-10-19_12h15.40.599,forced_choiceRT,2021.1.2,Win32,59.68011459,,,,,,,,7,Ontime,g,1,1.9994,9,0,36,1,1,,,,,
1.23,,,,,,,,,j.PNG,j,60b91e7f81b40fd08d67baaa,2021-10-19_12h15.40.599,forced_choiceRT,2021.1.2,Win32,59.68011459,,,,,,,,7,Fast,g,0,1.874,9,1,37,3,1,,,,,
0.28,,,,,,,,,j.PNG,j,60b91e7f81b40fd08d67baaa,2021-10-19_12h15.40.599,forced_choiceRT,2021.1.2,Win32,59.68011459,,,,,,,,7,Ontime,j,1,1.963,9,2,38,3,1,,,,,
1.53,,,,,,,,,h.PNG,h,60b91e7f81b40fd08d67baaa,2021-10-19_12h15.40.599,forced_choiceRT,2021.1.2,Win32,59.68011459,,,,,,,,7,Ontime,j,0,2.0925,9,3,39,2,1,,,,,
,,,,,,,,,,,60b91e7f81b40fd08d67baaa,2021-10-19_12h15.40.599,forced_choiceRT,2021.1.2,Win32,59.68011459,,,,,,,,,,,,,,,,,,6,0,6,0,1
1.2,,,,,,,,,j.PNG,j,60b91e7f81b40fd08d67baaa,2021-10-19_12h15.40.599,forced_choiceRT,2021.1.2,Win32,59.68011459,,,,,,,,8,Ontime,j,1,1.9715,0,0,0,3,1,,,,,
1.29,,,,,,,,,f.PNG,f,60b91e7f81b40fd08d67baaa,2021-10-19_12h15.40.599,forced_choiceRT,2021.1.2,Win32,59.68011459,,,,,,,,8,Ontime,j,0,1.9522,0,1,1,0,1,,,,,
0.94,,,,,,,,,j.PNG,j,60b91e7f81b40fd08d67baaa,2021-10-19_12h15.40.599,forced_choiceRT,2021.1.2,Win32,59.68011459,,,,,,,,8,Ontime,j,1,1.9713,0,2,2,3,1,,,,,
0.19,,,,,,,,,f.PNG,f,60b91e7f81b40fd08d67baaa,2021-10-19_12h15.40.599,forced_choiceRT,2021.1.2,Win32,59.68011459,,,,,,,,8,Ontime,f,1,1.9036,0,3,3,0,1,,,,,
1.29,,,,,,,,,h.PNG,h,60b91e7f81b40fd08d67baaa,2021-10-19_12h15.40.599,forced_choiceRT,2021.1.2,Win32,59.68011459,,,,,,,,8,Ontime,g,0,2.0007,1,0,4,2,1,,,,,
1.31,,,,,,,,,j.PNG,j,60b91e7f81b40fd08d67baaa,2021-10-19_12h15.40.599,forced_choiceRT,2021.1.2,Win32,59.68011459,,,,,,,,8,Ontime,j,1,1.9178,1,1,5,3,1,,,,,
1.28,,,,,,,,,h.PNG,h,60b91e7f81b40fd08d67baaa,2021-10-19_12h15.40.599,forced_choiceRT,2021.1.2,Win32,59.68011459,,,,,,,,8,Ontime,h,1,2.0164,1,2,6,2,1,,,,,
1.89,,,,,,,,,g.PNG,g,60b91e7f81b40fd08d67baaa,2021-10-19_12h15.40.599,forced_choiceRT,2021.1.2,Win32,59.68011459,,,,,,,,8,Ontime,h,0,2.017,1,3,7,1,1,,,,,
0.81,,,,,,,,,h.PNG,h,60b91e7f81b40fd08d67baaa,2021-10-19_12h15.40.599,forced_choiceRT,2021.1.2,Win32,59.68011459,,,,,,,,8,Ontime,g,0,2.0163,2,0,8,2,1,,,,,
1.33,,,,,,,,,f.PNG,f,60b91e7f81b40fd08d67baaa,2021-10-19_12h15.40.599,forced_choiceRT,2021.1.2,Win32,59.68011459,,,,,,,,8,Ontime,f,1,1.9387,2,1,9,0,1,,,,,
0.06,,,,,,,,,f.PNG,f,60b91e7f81b40fd08d67baaa,2021-10-19_12h15.40.599,forced_choiceRT,2021.1.2,Win32,59.68011459,,,,,,,,8,Fast,f,1,1.7386,2,2,10,0,1,,,,,
1.65,,,,,,,,,f.PNG,f,60b91e7f81b40fd08d67baaa,2021-10-19_12h15.40.599,forced_choiceRT,2021.1.2,Win32,59.68011459,,,,,,,,8,Ontime,f,1,1.9503,2,3,11,0,1,,,,,
0.43,,,,,,,,,j.PNG,j,60b91e7f81b40fd08d67baaa,2021-10-19_12h15.40.599,forced_choiceRT,2021.1.2,Win32,59.68011459,,,,,,,,8,Ontime,j,1,1.9189,3,0,12,3,1,,,,,
0,,,,,,,,,j.PNG,j,60b91e7f81b40fd08d67baaa,2021-10-19_12h15.40.599,forced_choiceRT,2021.1.2,Win32,59.68011459,,,,,,,,8,Fast,j,1,1.8532,3,1,13,3,1,,,,,
1.7,,,,,,,,,h.PNG,h,60b91e7f81b40fd08d67baaa,2021-10-19_12h15.40.599,forced_choiceRT,2021.1.2,Win32,59.68011459,,,,,,,,8,Ontime,j,0,2.0255,3,2,14,2,1,,,,,
0.68,,,,,,,,,j.PNG,j,60b91e7f81b40fd08d67baaa,2021-10-19_12h15.40.599,forced_choiceRT,2021.1.2,Win32,59.68011459,,,,,,,,8,Ontime,j,1,2.0519,3,3,15,3,1,,,,,
0.59,,,,,,,,,j.PNG,j,60b91e7f81b40fd08d67baaa,2021-10-19_12h15.40.599,forced_choiceRT,2021.1.2,Win32,59.68011459,,,,,,,,8,Ontime,j,1,2.0664,4,0,16,3,1,,,,,
1.61,,,,,,,,,f.PNG,f,60b91e7f81b40fd08d67baaa,2021-10-19_12h15.40.599,forced_choiceRT,2021.1.2,Win32,59.68011459,,,,,,,,8,Ontime,j,0,1.9362,4,1,17,0,1,,,,,
1.67,,,,,,,,,j.PNG,j,60b91e7f81b40fd08d67baaa,2021-10-19_12h15.40.599,forced_choiceRT,2021.1.2,Win32,59.68011459,,,,,,,,8,Ontime,f,0,1.9655,4,2,18,3,1,,,,,
0.24,,,,,,,,,f.PNG,f,60b91e7f81b40fd08d67baaa,2021-10-19_12h15.40.599,forced_choiceRT,2021.1.2,Win32,59.68011459,,,,,,,,8,Fast,f,1,1.7863,4,3,19,0,1,,,,,
1.85,,,,,,,,,g.PNG,g,60b91e7f81b40fd08d67baaa,2021-10-19_12h15.40.599,forced_choiceRT,2021.1.2,Win32,59.68011459,,,,,,,,8,Ontime,f,0,1.9662,5,0,20,1,1,,,,,
0.22,,,,,,,,,h.PNG,h,60b91e7f81b40fd08d67baaa,2021-10-19_12h15.40.599,forced_choiceRT,2021.1.2,Win32,59.68011459,,,,,,,,8,Ontime,h,1,1.9929,5,1,21,2,1,,,,,
0.65,,,,,,,,,j.PNG,j,60b91e7f81b40fd08d67baaa,2021-10-19_12h15.40.599,forced_choiceRT,2021.1.2,Win32,59.68011459,,,,,,,,8,Ontime,j,1,1.9951,5,2,22,3,1,,,,,
1.04,,,,,,,,,j.PNG,j,60b91e7f81b40fd08d67baaa,2021-10-19_12h15.40.599,forced_choiceRT,2021.1.2,Win32,59.68011459,,,,,,,,8,Ontime,j,1,1.9717,5,3,23,3,1,,,,,
0.73,,,,,,,,,h.PNG,h,60b91e7f81b40fd08d67baaa,2021-10-19_12h15.40.599,forced_choiceRT,2021.1.2,Win32,59.68011459,,,,,,,,8,Ontime,h,1,2.0994,6,0,24,2,1,,,,,
1.01,,,,,,,,,h.PNG,h,60b91e7f81b40fd08d67baaa,2021-10-19_12h15.40.599,forced_choiceRT,2021.1.2,Win32,59.68011459,,,,,,,,8,Ontime,h,1,1.9745,6,1,25,2,1,,,,,
1.98,,,,,,,,,g.PNG,g,60b91e7f81b40fd08d67baaa,2021-10-19_12h15.40.599,forced_choiceRT,2021.1.2,Win32,59.68011459,,,,,,,,8,Ontime,h,0,2.0405,6,2,26,1,1,,,,,
1.3,,,,,,,,,f.PNG,f,60b91e7f81b40fd08d67baaa,2021-10-19_12h15.40.599,forced_choiceRT,2021.1.2,Win32,59.68011459,,,,,,,,8,Ontime,h,0,2.0764,6,3,27,0,1,,,,,
0.1,,,,,,,,,g.PNG,g,60b91e7f81b40fd08d67baaa,2021-10-19_12h15.40.599,forced_choiceRT,2021.1.2,Win32,59.68011459,,,,,,,,8,Fast,g,1,1.8702,7,0,28,1,1,,,,,
1.55,,,,,,,,,g.PNG,g,60b91e7f81b40fd08d67baaa,2021-10-19_12h15.40.599,forced_choiceRT,2021.1.2,Win32,59.68011459,,,,,,,,8,Slow,h,0,2.1463,7,1,29,1,1,,,,,
0.32,,,,,,,,,g.PNG,g,60b91e7f81b40fd08d67baaa,2021-10-19_12h15.40.599,forced_choiceRT,2021.1.2,Win32,59.68011459,,,,,,,,8,Ontime,g,1,1.9254,7,2,30,1,1,,,,,
0.28,,,,,,,,,g.PNG,g,60b91e7f81b40fd08d67baaa,2021-10-19_12h15.40.599,forced_choiceRT,2021.1.2,Win32,59.68011459,,,,,,,,8,Ontime,g,1,1.924,7,3,31,1,1,,,,,
0.91,,,,,,,,,f.PNG,f,60b91e7f81b40fd08d67baaa,2021-10-19_12h15.40.599,forced_choiceRT,2021.1.2,Win32,59.68011459,,,,,,,,8,Slow,f,1,2.1061,8,0,32,0,1,,,,,
0.86,,,,,,,,,h.PNG,h,60b91e7f81b40fd08d67baaa,2021-10-19_12h15.40.599,forced_choiceRT,2021.1.2,Win32,59.68011459,,,,,,,,8,Ontime,h,1,2.011,8,1,33,2,1,,,,,
0.82,,,,,,,,,g.PNG,g,60b91e7f81b40fd08d67baaa,2021-10-19_12h15.40.599,forced_choiceRT,2021.1.2,Win32,59.68011459,,,,,,,,8,Ontime,g,1,1.9691,8,2,34,1,1,,,,,
0.8,,,,,,,,,g.PNG,g,60b91e7f81b40fd08d67baaa,2021-10-19_12h15.40.599,forced_choiceRT,2021.1.2,Win32,59.68011459,,,,,,,,8,Slow,g,1,2.1674,8,3,35,1,1,,,,,
0.57,,,,,,,,,h.PNG,h,60b91e7f81b40fd08d67baaa,2021-10-19_12h15.40.599,forced_choiceRT,2021.1.2,Win32,59.68011459,,,,,,,,8,Ontime,h,1,2.016,9,0,36,2,1,,,,,
1.91,,,,,,,,,h.PNG,h,60b91e7f81b40fd08d67baaa,2021-10-19_12h15.40.599,forced_choiceRT,2021.1.2,Win32,59.68011459,,,,,,,,8,Ontime,h,1,1.9229,9,1,37,2,1,,,,,
1.4,,,,,,,,,g.PNG,g,60b91e7f81b40fd08d67baaa,2021-10-19_12h15.40.599,forced_choiceRT,2021.1.2,Win32,59.68011459,,,,,,,,8,Ontime,h,0,1.9883,9,2,38,1,1,,,,,
1.15,,,,,,,,,f.PNG,f,60b91e7f81b40fd08d67baaa,2021-10-19_12h15.40.599,forced_choiceRT,2021.1.2,Win32,59.68011459,,,,,,,,8,Ontime,f,1,2.0415,9,3,39,0,1,,,,,
,,,,,,,,,,,60b91e7f81b40fd08d67baaa,2021-10-19_12h15.40.599,forced_choiceRT,2021.1.2,Win32,59.68011459,,,,,,,,,,,,,,,,,,7,0,7,0,1
0.45,,,,,,,,,f.PNG,f,60b91e7f81b40fd08d67baaa,2021-10-19_12h15.40.599,forced_choiceRT,2021.1.2,Win32,59.68011459,,,,,,,,9,Ontime,f,1,1.9224,0,0,0,0,1,,,,,
0.25,,,,,,,,,f.PNG,f,60b91e7f81b40fd08d67baaa,2021-10-19_12h15.40.599,forced_choiceRT,2021.1.2,Win32,59.68011459,,,,,,,,9,Fast,f,1,1.7492,0,1,1,0,1,,,,,
0.34,,,,,,,,,j.PNG,j,60b91e7f81b40fd08d67baaa,2021-10-19_12h15.40.599,forced_choiceRT,2021.1.2,Win32,59.68011459,,,,,,,,9,Fast,j,1,1.8756,0,2,2,3,1,,,,,
1.09,,,,,,,,,j.PNG,j,60b91e7f81b40fd08d67baaa,2021-10-19_12h15.40.599,forced_choiceRT,2021.1.2,Win32,59.68011459,,,,,,,,9,Ontime,j,1,2.0161,0,3,3,3,1,,,,,
1.62,,,,,,,,,f.PNG,f,60b91e7f81b40fd08d67baaa,2021-10-19_12h15.40.599,forced_choiceRT,2021.1.2,Win32,59.68011459,,,,,,,,9,Fast,j,0,1.874,1,0,4,0,1,,,,,
1.28,,,,,,,,,f.PNG,f,60b91e7f81b40fd08d67baaa,2021-10-19_12h15.40.599,forced_choiceRT,2021.1.2,Win32,59.68011459,,,,,,,,9,Ontime,f,1,2.0164,1,1,5,0,1,,,,,
1.16,,,,,,,,,f.PNG,f,60b91e7f81b40fd08d67baaa,2021-10-19_12h15.40.599,forced_choiceRT,2021.1.2,Win32,59.68011459,,,,,,,,9,Fast,f,1,1.8594,1,2,6,0,1,,,,,
1.27,,,,,,,,,j.PNG,j,60b91e7f81b40fd08d67baaa,2021-10-19_12h15.40.599,forced_choiceRT,2021.1.2,Win32,59.68011459,,,,,,,,9,Slow,j,1,2.1002,1,3,7,3,1,,,,,
0.25,,,,,,,,,g.PNG,g,60b91e7f81b40fd08d67baaa,2021-10-19_12h15.40.599,forced_choiceRT,2021.1.2,Win32,59.68011459,,,,,,,,9,Ontime,g,1,1.937,2,0,8,1,1,,,,,
1.45,,,,,,,,,h.PNG,h,60b91e7f81b40fd08d67baaa,2021-10-19_12h15.40.599,forced_choiceRT,2021.1.2,Win32,59.68011459,,,,,,,,9,Ontime,f,0,2.0787,2,1,9,2,1,,,,,
0.53,,,,,,,,,g.PNG,g,60b91e7f81b40fd08d67baaa,2021-10-19_12h15.40.599,forced_choiceRT,2021.1.2,Win32,59.68011459,,,,,,,,9,Slow,g,1,2.1286,2,2,10,1,1,,,,,
1.76,,,,,,,,,j.PNG,j,60b91e7f81b40fd08d67baaa,2021-10-19_12h15.40.599,forced_choiceRT,2021.1.2,Win32,59.68011459,,,,,,,,9,Ontime,g,0,2.0507,2,3,11,3,1,,,,,
0.03,,,,,,,,,f.PNG,f,60b91e7f81b40fd08d67baaa,2021-10-19_12h15.40.599,forced_choiceRT,2021.1.2,Win32,59.68011459,,,,,,,,9,Ontime,f,1,1.9512,3,0,12,0,1,,,,,
0.39,,,,,,,,,j.PNG,j,60b91e7f81b40fd08d67baaa,2021-10-19_12h15.40.599,forced_choiceRT,2021.1.2,Win32,59.68011459,,,,,,,,9,Fast,j,1,1.7776,3,1,13,3,1,,,,,
0.57,,,,,,,,,h.PNG,h,60b91e7f81b40fd08d67baaa,2021-10-19_12h15.40.599,forced_choiceRT,2021.1.2,Win32,59.68011459,,,,,,,,9,Ontime,h,1,2.0129,3,2,14,2,1,,,,,
1.66,,,,,,,,,g.PNG,g,60b91e7f81b40fd08d67baaa,2021-10-19_12h15.40.599,forced_choiceRT,2021.1.2,Win32,59.68011459,,,,,,,,9,Ontime,h,0,2.0159,3,3,15,1,1,,,,,
1.61,,,,,,,,,h.PNG,h,60b91e7f81b40fd08d67baaa,2021-10-19_12h15.40.599,forced_choiceRT,2021.1.2,Win32,59.68011459,,,,,,,,9,Slow,h,1,2.1162,4,0,16,2,1,,,,,
1.68,,,,,,,,,j.PNG,j,60b91e7f81b40fd08d67baaa,2021-10-19_12h15.40.599,forced_choiceRT,2021.1.2,Win32,59.68011459,,,,,,,,9,Ontime,h,0,1.9335,4,1,17,3,1,,,,,
0.96,,,,,,,,,h.PNG,h,60b91e7f81b40fd08d67baaa,2021-10-19_12h15.40.599,forced_choiceRT,2021.1.2,Win32,59.68011459,,,,,,,,9,Ontime,h,1,1.9846,4,2,18,2,1,,,,,
1.11,,,,,,,,,h.PNG,h,60b91e7f81b40fd08d67baaa,2021-10-19_12h15.40.599,forced_choiceRT,2021.1.2,Win32,59.68011459,,,,,,,,9,Ontime,h,1,1.9658,4,3,19,2,1,,,,,
0.17,,,,,,,,,f.PNG,f,60b91e7f81b40fd08d67baaa,2021-10-19_12h15.40.599,forced_choiceRT,2021.1.2,Win32,59.68011459,,,,,,,,9,Fast,f,1,1.7171,5,0,20,0,1,,,,,
1.02,,,,,,,,,h.PNG,h,60b91e7f81b40fd08d67baaa,2021-10-19_12h15.40.599,forced_choiceRT,2021.1.2,Win32,59.68011459,,,,,,,,9,Ontime,h,1,2.0246,5,1,21,2,1,,,,,
1.03,,,,,,,,,j.PNG,j,60b91e7f81b40fd08d67baaa,2021-10-19_12h15.40.599,forced_choiceRT,2021.1.2,Win32,59.68011459,,,,,,,,9,Ontime,j,1,1.9503,5,2,22,3,1,,,,,
0.67,,,,,,,,,j.PNG,j,60b91e7f81b40fd08d67baaa,2021-10-19_12h15.40.599,forced_choiceRT,2021.1.2,Win32,59.68011459,,,,,,,,9,Slow,j,1,2.1081,5,3,23,3,1,,,,,
0.47,,,,,,,,,h.PNG,h,60b91e7f81b40fd08d67baaa,2021-10-19_12h15.40.599,forced_choiceRT,2021.1.2,Win32,59.68011459,,,,,,,,9,Ontime,h,1,1.917,6,0,24,2,1,,,,,
1.38,,,,,,,,,f.PNG,f,60b91e7f81b40fd08d67baaa,2021-10-19_12h15.40.599,forced_choiceRT,2021.1.2,Win32,59.68011459,,,,,,,,9,Ontime,f,1,1.9638,6,1,25,0,1,,,,,
1.16,,,,,,,,,g.PNG,g,60b91e7f81b40fd08d67baaa,2021-10-19_12h15.40.599,forced_choiceRT,2021.1.2,Win32,59.68011459,,,,,,,,9,Ontime,g,1,2.0168,6,2,26,1,1,,,,,
1.07,,,,,,,,,g.PNG,g,60b91e7f81b40fd08d67baaa,2021-10-19_12h15.40.599,forced_choiceRT,2021.1.2,Win32,59.68011459,,,,,,,,9,Slow,g,1,2.1163,6,3,27,1,1,,,,,
0.52,,,,,,,,,f.PNG,f,60b91e7f81b40fd08d67baaa,2021-10-19_12h15.40.599,forced_choiceRT,2021.1.2,Win32,59.68011459,,,,,,,,9,Ontime,f,1,1.9683,7,0,28,0,1,,,,,
0.5,,,,,,,,,j.PNG,j,60b91e7f81b40fd08d67baaa,2021-10-19_12h15.40.599,forced_choiceRT,2021.1.2,Win32,59.68011459,,,,,,,,9,Ontime,j,1,2.058,7,1,29,3,1,,,,,
1.21,,,,,,,,,g.PNG,g,60b91e7f81b40fd08d67baaa,2021-10-19_12h15.40.599,forced_choiceRT,2021.1.2,Win32,59.68011459,,,,,,,,9,Slow,g,1,2.1009,7,2,30,1,1,,,,,
1.71,,,,,,,,,g.PNG,g,60b91e7f81b40fd08d67baaa,2021-10-19_12h15.40.599,forced_choiceRT,2021.1.2,Win32,59.68011459,,,,,,,,9,Ontime,j,0,1.9391,7,3,31,1,1,,,,,
0.1,,,,,,,,,g.PNG,g,60b91e7f81b40fd08d67baaa,2021-10-19_12h15.40.599,forced_choiceRT,2021.1.2,Win32,59.68011459,,,,,,,,9,Fast,g,1,1.5748,8,0,32,1,1,,,,,
1.5,,,,,,,,,h.PNG,h,60b91e7f81b40fd08d67baaa,2021-10-19_12h15.40.599,forced_choiceRT,2021.1.2,Win32,59.68011459,,,,,,,,9,Slow,g,0,2.1523,8,1,33,2,1,,,,,
0.95,,,,,,,,,f.PNG,f,60b91e7f81b40fd08d67baaa,2021-10-19_12h15.40.599,forced_choiceRT,2021.1.2,Win32,59.68011459,,,,,,,,9,Ontime,f,1,1.9666,8,2,34,0,1,,,,,
0.87,,,,,,,,,g.PNG,g,60b91e7f81b40fd08d67baaa,2021-10-19_12h15.40.599,forced_choiceRT,2021.1.2,Win32,59.68011459,,,,,,,,9,Ontime,g,1,1.9503,8,3,35,1,1,,,,,
1.16,,,,,,,,,j.PNG,j,60b91e7f81b40fd08d67baaa,2021-10-19_12h15.40.599,forced_choiceRT,2021.1.2,Win32,59.68011459,,,,,,,,9,Ontime,j,1,2.0224,9,0,36,3,1,,,,,
0.8,,,,,,,,,h.PNG,h,60b91e7f81b40fd08d67baaa,2021-10-19_12h15.40.599,forced_choiceRT,2021.1.2,Win32,59.68011459,,,,,,,,9,Ontime,h,1,1.9394,9,1,37,2,1,,,,,
1.06,,,,,,,,,h.PNG,h,60b91e7f81b40fd08d67baaa,2021-10-19_12h15.40.599,forced_choiceRT,2021.1.2,Win32,59.68011459,,,,,,,,9,Ontime,h,1,1.9435,9,2,38,2,1,,,,,
0.71,,,,,,,,,g.PNG,g,60b91e7f81b40fd08d67baaa,2021-10-19_12h15.40.599,forced_choiceRT,2021.1.2,Win32,59.68011459,,,,,,,,9,Ontime,g,1,2.0627,9,3,39,1,1,,,,,
,,,,,,,,,,,60b91e7f81b40fd08d67baaa,2021-10-19_12h15.40.599,forced_choiceRT,2021.1.2,Win32,59.68011459,,,,,,,,,,,,,,,,,,8,0,8,0,1
0.67,,,,,,,,,g.PNG,g,60b91e7f81b40fd08d67baaa,2021-10-19_12h15.40.599,forced_choiceRT,2021.1.2,Win32,59.68011459,,,,,,,,10,Ontime,g,1,1.9279,0,0,0,1,1,,,,,
1.41,,,,,,,,,h.PNG,h,60b91e7f81b40fd08d67baaa,2021-10-19_12h15.40.599,forced_choiceRT,2021.1.2,Win32,59.68011459,,,,,,,,10,Ontime,g,0,2.0356,0,1,1,2,1,,,,,
0.9,,,,,,,,,f.PNG,f,60b91e7f81b40fd08d67baaa,2021-10-19_12h15.40.599,forced_choiceRT,2021.1.2,Win32,59.68011459,,,,,,,,10,Ontime,f,1,1.9553,0,2,2,0,1,,,,,
1.42,,,,,,,,,h.PNG,h,60b91e7f81b40fd08d67baaa,2021-10-19_12h15.40.599,forced_choiceRT,2021.1.2,Win32,59.68011459,,,,,,,,10,Fast,f,0,1.8376,0,3,3,2,1,,,,,
1.64,,,,,,,,,j.PNG,j,60b91e7f81b40fd08d67baaa,2021-10-19_12h15.40.599,forced_choiceRT,2021.1.2,Win32,59.68011459,,,,,,,,10,Ontime,f,0,2.0504,1,0,4,3,1,,,,,
0.56,,,,,,,,,j.PNG,j,60b91e7f81b40fd08d67baaa,2021-10-19_12h15.40.599,forced_choiceRT,2021.1.2,Win32,59.68011459,,,,,,,,10,Ontime,j,1,2,1,1,5,3,1,,,,,
0.3,,,,,,,,,g.PNG,g,60b91e7f81b40fd08d67baaa,2021-10-19_12h15.40.599,forced_choiceRT,2021.1.2,Win32,59.68011459,,,,,,,,10,Ontime,g,1,2.0489,1,2,6,1,1,,,,,
0.74,,,,,,,,,h.PNG,h,60b91e7f81b40fd08d67baaa,2021-10-19_12h15.40.599,forced_choiceRT,2021.1.2,Win32,59.68011459,,,,,,,,10,Ontime,h,1,2.0549,1,3,7,2,1,,,,,
0.98,,,,,,,,,f.PNG,f,60b91e7f81b40fd08d67baaa,2021-10-19_12h15.40.599,forced_choiceRT,2021.1.2,Win32,59.68011459,,,,,,,,10,Ontime,f,1,1.9756,2,0,8,0,1,,,,,
1.15,,,,,,,,,h.PNG,h,60b91e7f81b40fd08d67baaa,2021-10-19_12h15.40.599,forced_choiceRT,2021.1.2,Win32,59.68011459,,,,,,,,10,Ontime,h,1,1.9555,2,1,9,2,1,,,,,
1.2,,,,,,,,,h.PNG,h,60b91e7f81b40fd08d67baaa,2021-10-19_12h15.40.599,forced_choiceRT,2021.1.2,Win32,59.68011459,,,,,,,,10,Fast,h,1,1.7714,2,2,10,2,1,,,,,
0.77,,,,,,,,,f.PNG,f,60b91e7f81b40fd08d67baaa,2021-10-19_12h15.40.599,forced_choiceRT,2021.1.2,Win32,59.68011459,,,,,,,,10,Ontime,g,0,2.0165,2,3,11,0,1,,,,,
0.35,,,,,,,,,j.PNG,j,60b91e7f81b40fd08d67baaa,2021-10-19_12h15.40.599,forced_choiceRT,2021.1.2,Win32,59.68011459,,,,,,,,10,Ontime,h,0,1.9659,3,0,12,3,1,,,,,
0.24,,,,,,,,,f.PNG,f,60b91e7f81b40fd08d67baaa,2021-10-19_12h15.40.599,forced_choiceRT,2021.1.2,Win32,59.68011459,,,,,,,,10,Ontime,g,0,1.9786,3,1,13,0,1,,,,,
0.91,,,,,,,,,g.PNG,g,60b91e7f81b40fd08d67baaa,2021-10-19_12h15.40.599,forced_choiceRT,2021.1.2,Win32,59.68011459,,,,,,,,10,Slow,g,1,2.1059,3,2,14,1,1,,,,,
1,,,,,,,,,g.PNG,g,60b91e7f81b40fd08d67baaa,2021-10-19_12h15.40.599,forced_choiceRT,2021.1.2,Win32,59.68011459,,,,,,,,10,Ontime,g,1,1.917,3,3,15,1,1,,,,,
1.3,,,,,,,,,j.PNG,j,60b91e7f81b40fd08d67baaa,2021-10-19_12h15.40.599,forced_choiceRT,2021.1.2,Win32,59.68011459,,,,,,,,10,Ontime,j,1,2.0168,4,0,16,3,1,,,,,
1.28,,,,,,,,,h.PNG,h,60b91e7f81b40fd08d67baaa,2021-10-19_12h15.40.599,forced_choiceRT,2021.1.2,Win32,59.68011459,,,,,,,,10,Slow,h,1,2.1328,4,1,17,2,1,,,,,
1.85,,,,,,,,,g.PNG,g,60b91e7f81b40fd08d67baaa,2021-10-19_12h15.40.599,forced_choiceRT,2021.1.2,Win32,59.68011459,,,,,,,,10,Ontime,h,0,1.9962,4,2,18,1,1,,,,,
0.76,,,,,,,,,g.PNG,g,60b91e7f81b40fd08d67baaa,2021-10-19_12h15.40.599,forced_choiceRT,2021.1.2,Win32,59.68011459,,,,,,,,10,Fast,g,1,1.8463,4,3,19,1,1,,,,,
1.07,,,,,,,,,g.PNG,g,60b91e7f81b40fd08d67baaa,2021-10-19_12h15.40.599,forced_choiceRT,2021.1.2,Win32,59.68011459,,,,,,,,10,Ontime,g,1,2.0497,5,0,20,1,1,,,,,
0.27,,,,,,,,,f.PNG,f,60b91e7f81b40fd08d67baaa,2021-10-19_12h15.40.599,forced_choiceRT,2021.1.2,Win32,59.68011459,,,,,,,,10,Ontime,f,1,1.9175,5,1,21,0,1,,,,,
1.93,,,,,,,,,h.PNG,h,60b91e7f81b40fd08d67baaa,2021-10-19_12h15.40.599,forced_choiceRT,2021.1.2,Win32,59.68011459,,,,,,,,10,Ontime,f,0,1.9674,5,2,22,2,1,,,,,
1.91,,,,,,,,,j.PNG,j,60b91e7f81b40fd08d67baaa,2021-10-19_12h15.40.599,forced_choiceRT,2021.1.2,Win32,59.68011459,,,,,,,,10,Ontime,f,0,1.9956,5,3,23,3,1,,,,,
0.28,,,,,,,,,f.PNG,f,60b91e7f81b40fd08d67baaa,2021-10-19_12h15.40.599,forced_choiceRT,2021.1.2,Win32,59.68011459,,,,,,,,10,Ontime,f,1,1.9551,6,0,24,0,1,,,,,
1.7,,,,,,,,,h.PNG,h,60b91e7f81b40fd08d67baaa,2021-10-19_12h15.40.599,forced_choiceRT,2021.1.2,Win32,59.68011459,,,,,,,,10,Ontime,f,0,2.0231,6,1,25,2,1,,,,,
0.12,,,,,,,,,g.PNG,g,60b91e7f81b40fd08d67baaa,2021-10-19_12h15.40.599,forced_choiceRT,2021.1.2,Win32,59.68011459,,,,,,,,10,Ontime,g,1,2.0663,6,2,26,1,1,,,,,
1.29,,,,,,,,,g.PNG,g,60b91e7f81b40fd08d67baaa,2021-10-19_12h15.40.599,forced_choiceRT,2021.1.2,Win32,59.68011459,,,,,,,,10,Ontime,g,1,1.9658,6,3,27,1,1,,,,,
1.38,,,,,,,,,f.PNG,f,60b91e7f81b40fd08d67baaa,2021-10-19_12h15.40.599,forced_choiceRT,2021.1.2,Win32,59.68011459,,,,,,,,10,Slow,f,1,2.1177,7,0,28,0,1,,,,,
0.73,,,,,,,,,f.PNG,f,60b91e7f81b40fd08d67baaa,2021-10-19_12h15.40.599,forced_choiceRT,2021.1.2,Win32,59.68011459,,,,,,,,10,Fast,f,1,1.891,7,1,29,0,1,,,,,
1.53,,,,,,,,,j.PNG,j,60b91e7f81b40fd08d67baaa,2021-10-19_12h15.40.599,forced_choiceRT,2021.1.2,Win32,59.68011459,,,,,,,,10,Slow,f,0,2.1623,7,2,30,3,1,,,,,
0.84,,,,,,,,,h.PNG,h,60b91e7f81b40fd08d67baaa,2021-10-19_12h15.40.599,forced_choiceRT,2021.1.2,Win32,59.68011459,,,,,,,,10,Ontime,h,1,1.902,7,3,31,2,1,,,,,
1.61,,,,,,,,,j.PNG,j,60b91e7f81b40fd08d67baaa,2021-10-19_12h15.40.599,forced_choiceRT,2021.1.2,Win32,59.68011459,,,,,,,,10,Ontime,h,0,1.9503,8,0,32,3,1,,,,,
0.71,,,,,,,,,j.PNG,j,60b91e7f81b40fd08d67baaa,2021-10-19_12h15.40.599,forced_choiceRT,2021.1.2,Win32,59.68011459,,,,,,,,10,Ontime,j,1,2.0621,8,1,33,3,1,,,,,
1.12,,,,,,,,,f.PNG,f,60b91e7f81b40fd08d67baaa,2021-10-19_12h15.40.599,forced_choiceRT,2021.1.2,Win32,59.68011459,,,,,,,,10,Fast,f,1,1.8262,8,2,34,0,1,,,,,
1.46,,,,,,,,,f.PNG,f,60b91e7f81b40fd08d67baaa,2021-10-19_12h15.40.599,forced_choiceRT,2021.1.2,Win32,59.68011459,,,,,,,,10,Ontime,f,1,2.0503,8,3,35,0,1,,,,,
1.24,,,,,,,,,j.PNG,j,60b91e7f81b40fd08d67baaa,2021-10-19_12h15.40.599,forced_choiceRT,2021.1.2,Win32,59.68011459,,,,,,,,10,Slow,j,1,2.1087,9,0,36,3,1,,,,,
1.94,,,,,,,,,j.PNG,j,60b91e7f81b40fd08d67baaa,2021-10-19_12h15.40.599,forced_choiceRT,2021.1.2,Win32,59.68011459,,,,,,,,10,Slow,j,1,2.1728,9,1,37,3,1,,,,,
0.62,,,,,,,,,h.PNG,h,60b91e7f81b40fd08d67baaa,2021-10-19_12h15.40.599,forced_choiceRT,2021.1.2,Win32,59.68011459,,,,,,,,10,Fast,h,1,1.8725,9,2,38,2,1,,,,,
1.46,,,,,,,,,g.PNG,g,60b91e7f81b40fd08d67baaa,2021-10-19_12h15.40.599,forced_choiceRT,2021.1.2,Win32,59.68011459,,,,,,,,10,Slow,g,1,2.1363,9,3,39,1,1,,,,,
,,,,,,,,,,,60b91e7f81b40fd08d67baaa,2021-10-19_12h15.40.599,forced_choiceRT,2021.1.2,Win32,59.68011459,,,,,,,,,,,,,,,,,,9,0,9,0,1
