IP_Addresss,target_onset,trial_resp_sp.keys,trial_resp_sp.corr,trial_resp_sp.rt,trials_train_loop.thisRepN,trials_train_loop.thisTrialN,trials_train_loop.thisN,trials_train_loop.thisIndex,trials_train_loop.ran,pic,correct_key,participant,date,expName,psychopyVersion,OS,frameRate,trial_resp_timing.keys,trial_resp_timing.rt,trials_train_timing.thisRepN,trials_train_timing.thisTrialN,trials_train_timing.thisN,trials_train_timing.thisIndex,trials_train_timing.ran,block_id,ontime,forcedRT_resp.keys,forcedRT_resp.corr,forcedRT_resp.rt,trials.thisRepN,trials.thisTrialN,trials.thisN,trials.thisIndex,trials.ran,blocks.thisRepN,blocks.thisTrialN,blocks.thisN,blocks.thisIndex,blocks.ran
205.189.58.82,0,f,1,2.6112,0,0,0,0,1,f.PNG,f,60f5eba9476ad9bc1d4252e9,2021-10-19_15h45.43.376,forced_choiceRT,2021.1.2,Win32,60.0060006,,,,,,,,,,,,,,,,,,,,,,
,0,j,1,2.9544,0,1,1,3,1,j.PNG,j,60f5eba9476ad9bc1d4252e9,2021-10-19_15h45.43.376,forced_choiceRT,2021.1.2,Win32,60.0060006,,,,,,,,,,,,,,,,,,,,,,
,0,g,1,2.3442,0,2,2,1,1,g.PNG,g,60f5eba9476ad9bc1d4252e9,2021-10-19_15h45.43.376,forced_choiceRT,2021.1.2,Win32,60.0060006,,,,,,,,,,,,,,,,,,,,,,
,0,g,1,5.7431,0,3,3,1,1,g.PNG,g,60f5eba9476ad9bc1d4252e9,2021-10-19_15h45.43.376,forced_choiceRT,2021.1.2,Win32,60.0060006,,,,,,,,,,,,,,,,,,,,,,
,0,j,1,1.745,1,0,4,3,1,j.PNG,j,60f5eba9476ad9bc1d4252e9,2021-10-19_15h45.43.376,forced_choiceRT,2021.1.2,Win32,60.0060006,,,,,,,,,,,,,,,,,,,,,,
,0,j,1,1.2603,1,1,5,3,1,j.PNG,j,60f5eba9476ad9bc1d4252e9,2021-10-19_15h45.43.376,forced_choiceRT,2021.1.2,Win32,60.0060006,,,,,,,,,,,,,,,,,,,,,,
,0,j,1,0.6282,1,2,6,3,1,j.PNG,j,60f5eba9476ad9bc1d4252e9,2021-10-19_15h45.43.376,forced_choiceRT,2021.1.2,Win32,60.0060006,,,,,,,,,,,,,,,,,,,,,,
,0,g,1,1.0835,1,3,7,1,1,g.PNG,g,60f5eba9476ad9bc1d4252e9,2021-10-19_15h45.43.376,forced_choiceRT,2021.1.2,Win32,60.0060006,,,,,,,,,,,,,,,,,,,,,,
,0,f,1,0.8741,2,0,8,0,1,f.PNG,f,60f5eba9476ad9bc1d4252e9,2021-10-19_15h45.43.376,forced_choiceRT,2021.1.2,Win32,60.0060006,,,,,,,,,,,,,,,,,,,,,,
,0,h,1,1.2274,2,1,9,2,1,h.PNG,h,60f5eba9476ad9bc1d4252e9,2021-10-19_15h45.43.376,forced_choiceRT,2021.1.2,Win32,60.0060006,,,,,,,,,,,,,,,,,,,,,,
,0,j,1,0.7177,2,2,10,3,1,j.PNG,j,60f5eba9476ad9bc1d4252e9,2021-10-19_15h45.43.376,forced_choiceRT,2021.1.2,Win32,60.0060006,,,,,,,,,,,,,,,,,,,,,,
,0,g,1,0.6416,2,3,11,1,1,g.PNG,g,60f5eba9476ad9bc1d4252e9,2021-10-19_15h45.43.376,forced_choiceRT,2021.1.2,Win32,60.0060006,,,,,,,,,,,,,,,,,,,,,,
,0,h,1,1.2838,3,0,12,2,1,h.PNG,h,60f5eba9476ad9bc1d4252e9,2021-10-19_15h45.43.376,forced_choiceRT,2021.1.2,Win32,60.0060006,,,,,,,,,,,,,,,,,,,,,,
,0,j,1,0.8501,3,1,13,3,1,j.PNG,j,60f5eba9476ad9bc1d4252e9,2021-10-19_15h45.43.376,forced_choiceRT,2021.1.2,Win32,60.0060006,,,,,,,,,,,,,,,,,,,,,,
,0,h,1,1.0789,3,2,14,2,1,h.PNG,h,60f5eba9476ad9bc1d4252e9,2021-10-19_15h45.43.376,forced_choiceRT,2021.1.2,Win32,60.0060006,,,,,,,,,,,,,,,,,,,,,,
,0,g,1,1.5832,3,3,15,1,1,g.PNG,g,60f5eba9476ad9bc1d4252e9,2021-10-19_15h45.43.376,forced_choiceRT,2021.1.2,Win32,60.0060006,,,,,,,,,,,,,,,,,,,,,,
,0,f,1,0.9666,4,0,16,0,1,f.PNG,f,60f5eba9476ad9bc1d4252e9,2021-10-19_15h45.43.376,forced_choiceRT,2021.1.2,Win32,60.0060006,,,,,,,,,,,,,,,,,,,,,,
,0,f,1,0.4549,4,1,17,0,1,f.PNG,f,60f5eba9476ad9bc1d4252e9,2021-10-19_15h45.43.376,forced_choiceRT,2021.1.2,Win32,60.0060006,,,,,,,,,,,,,,,,,,,,,,
,0,f,1,0.4337,4,2,18,0,1,f.PNG,f,60f5eba9476ad9bc1d4252e9,2021-10-19_15h45.43.376,forced_choiceRT,2021.1.2,Win32,60.0060006,,,,,,,,,,,,,,,,,,,,,,
,0,j,1,1.289,4,3,19,3,1,j.PNG,j,60f5eba9476ad9bc1d4252e9,2021-10-19_15h45.43.376,forced_choiceRT,2021.1.2,Win32,60.0060006,,,,,,,,,,,,,,,,,,,,,,
,0,h,1,1.417,5,0,20,2,1,h.PNG,h,60f5eba9476ad9bc1d4252e9,2021-10-19_15h45.43.376,forced_choiceRT,2021.1.2,Win32,60.0060006,,,,,,,,,,,,,,,,,,,,,,
,0,h,1,1.2843,5,1,21,2,1,h.PNG,h,60f5eba9476ad9bc1d4252e9,2021-10-19_15h45.43.376,forced_choiceRT,2021.1.2,Win32,60.0060006,,,,,,,,,,,,,,,,,,,,,,
,0,h,1,0.4198,5,2,22,2,1,h.PNG,h,60f5eba9476ad9bc1d4252e9,2021-10-19_15h45.43.376,forced_choiceRT,2021.1.2,Win32,60.0060006,,,,,,,,,,,,,,,,,,,,,,
,0,g,1,2.7058,5,3,23,1,1,g.PNG,g,60f5eba9476ad9bc1d4252e9,2021-10-19_15h45.43.376,forced_choiceRT,2021.1.2,Win32,60.0060006,,,,,,,,,,,,,,,,,,,,,,
,0,j,1,0.9693,6,0,24,3,1,j.PNG,j,60f5eba9476ad9bc1d4252e9,2021-10-19_15h45.43.376,forced_choiceRT,2021.1.2,Win32,60.0060006,,,,,,,,,,,,,,,,,,,,,,
,0,h,1,1.1677,6,1,25,2,1,h.PNG,h,60f5eba9476ad9bc1d4252e9,2021-10-19_15h45.43.376,forced_choiceRT,2021.1.2,Win32,60.0060006,,,,,,,,,,,,,,,,,,,,,,
,0,f,1,0.7966,6,2,26,0,1,f.PNG,f,60f5eba9476ad9bc1d4252e9,2021-10-19_15h45.43.376,forced_choiceRT,2021.1.2,Win32,60.0060006,,,,,,,,,,,,,,,,,,,,,,
,0,j,1,1.6003,6,3,27,3,1,j.PNG,j,60f5eba9476ad9bc1d4252e9,2021-10-19_15h45.43.376,forced_choiceRT,2021.1.2,Win32,60.0060006,,,,,,,,,,,,,,,,,,,,,,
,0,f,1,0.7384,7,0,28,0,1,f.PNG,f,60f5eba9476ad9bc1d4252e9,2021-10-19_15h45.43.376,forced_choiceRT,2021.1.2,Win32,60.0060006,,,,,,,,,,,,,,,,,,,,,,
,0,g,1,1.3751,7,1,29,1,1,g.PNG,g,60f5eba9476ad9bc1d4252e9,2021-10-19_15h45.43.376,forced_choiceRT,2021.1.2,Win32,60.0060006,,,,,,,,,,,,,,,,,,,,,,
,0,h,1,1.2138,7,2,30,2,1,h.PNG,h,60f5eba9476ad9bc1d4252e9,2021-10-19_15h45.43.376,forced_choiceRT,2021.1.2,Win32,60.0060006,,,,,,,,,,,,,,,,,,,,,,
,0,j,1,0.6616,7,3,31,3,1,j.PNG,j,60f5eba9476ad9bc1d4252e9,2021-10-19_15h45.43.376,forced_choiceRT,2021.1.2,Win32,60.0060006,,,,,,,,,,,,,,,,,,,,,,
,0,h,1,0.7011,8,0,32,2,1,h.PNG,h,60f5eba9476ad9bc1d4252e9,2021-10-19_15h45.43.376,forced_choiceRT,2021.1.2,Win32,60.0060006,,,,,,,,,,,,,,,,,,,,,,
,0,j,1,0.5502,8,1,33,3,1,j.PNG,j,60f5eba9476ad9bc1d4252e9,2021-10-19_15h45.43.376,forced_choiceRT,2021.1.2,Win32,60.0060006,,,,,,,,,,,,,,,,,,,,,,
,0,j,1,0.6265,8,2,34,3,1,j.PNG,j,60f5eba9476ad9bc1d4252e9,2021-10-19_15h45.43.376,forced_choiceRT,2021.1.2,Win32,60.0060006,,,,,,,,,,,,,,,,,,,,,,
,0,f,1,0.9144,8,3,35,0,1,f.PNG,f,60f5eba9476ad9bc1d4252e9,2021-10-19_15h45.43.376,forced_choiceRT,2021.1.2,Win32,60.0060006,,,,,,,,,,,,,,,,,,,,,,
,0,f,1,0.8299,9,0,36,0,1,f.PNG,f,60f5eba9476ad9bc1d4252e9,2021-10-19_15h45.43.376,forced_choiceRT,2021.1.2,Win32,60.0060006,,,,,,,,,,,,,,,,,,,,,,
,0,j,1,0.9261,9,1,37,3,1,j.PNG,j,60f5eba9476ad9bc1d4252e9,2021-10-19_15h45.43.376,forced_choiceRT,2021.1.2,Win32,60.0060006,,,,,,,,,,,,,,,,,,,,,,
,0,h,1,0.7192,9,2,38,2,1,h.PNG,h,60f5eba9476ad9bc1d4252e9,2021-10-19_15h45.43.376,forced_choiceRT,2021.1.2,Win32,60.0060006,,,,,,,,,,,,,,,,,,,,,,
,0,j,0,0.7072,9,3,39,2,1,h.PNG,h,60f5eba9476ad9bc1d4252e9,2021-10-19_15h45.43.376,forced_choiceRT,2021.1.2,Win32,60.0060006,,,,,,,,,,,,,,,,,,,,,,
,0,g,1,2.5959,10,0,40,1,1,g.PNG,g,60f5eba9476ad9bc1d4252e9,2021-10-19_15h45.43.376,forced_choiceRT,2021.1.2,Win32,60.0060006,,,,,,,,,,,,,,,,,,,,,,
,0,h,1,0.6669,10,1,41,2,1,h.PNG,h,60f5eba9476ad9bc1d4252e9,2021-10-19_15h45.43.376,forced_choiceRT,2021.1.2,Win32,60.0060006,,,,,,,,,,,,,,,,,,,,,,
,0,g,1,2.0572,10,2,42,1,1,g.PNG,g,60f5eba9476ad9bc1d4252e9,2021-10-19_15h45.43.376,forced_choiceRT,2021.1.2,Win32,60.0060006,,,,,,,,,,,,,,,,,,,,,,
,0,g,1,0.6334,10,3,43,1,1,g.PNG,g,60f5eba9476ad9bc1d4252e9,2021-10-19_15h45.43.376,forced_choiceRT,2021.1.2,Win32,60.0060006,,,,,,,,,,,,,,,,,,,,,,
,0,g,1,0.4502,11,0,44,1,1,g.PNG,g,60f5eba9476ad9bc1d4252e9,2021-10-19_15h45.43.376,forced_choiceRT,2021.1.2,Win32,60.0060006,,,,,,,,,,,,,,,,,,,,,,
,0,j,1,0.7332,11,1,45,3,1,j.PNG,j,60f5eba9476ad9bc1d4252e9,2021-10-19_15h45.43.376,forced_choiceRT,2021.1.2,Win32,60.0060006,,,,,,,,,,,,,,,,,,,,,,
,0,f,1,0.834,11,2,46,0,1,f.PNG,f,60f5eba9476ad9bc1d4252e9,2021-10-19_15h45.43.376,forced_choiceRT,2021.1.2,Win32,60.0060006,,,,,,,,,,,,,,,,,,,,,,
,0,j,1,1.1667,11,3,47,3,1,j.PNG,j,60f5eba9476ad9bc1d4252e9,2021-10-19_15h45.43.376,forced_choiceRT,2021.1.2,Win32,60.0060006,,,,,,,,,,,,,,,,,,,,,,
,0,f,1,0.7048,12,0,48,0,1,f.PNG,f,60f5eba9476ad9bc1d4252e9,2021-10-19_15h45.43.376,forced_choiceRT,2021.1.2,Win32,60.0060006,,,,,,,,,,,,,,,,,,,,,,
,0,g,1,0.7403,12,1,49,1,1,g.PNG,g,60f5eba9476ad9bc1d4252e9,2021-10-19_15h45.43.376,forced_choiceRT,2021.1.2,Win32,60.0060006,,,,,,,,,,,,,,,,,,,,,,
,0,f,1,0.756,12,2,50,0,1,f.PNG,f,60f5eba9476ad9bc1d4252e9,2021-10-19_15h45.43.376,forced_choiceRT,2021.1.2,Win32,60.0060006,,,,,,,,,,,,,,,,,,,,,,
,0,g,1,2.384,12,3,51,1,1,g.PNG,g,60f5eba9476ad9bc1d4252e9,2021-10-19_15h45.43.376,forced_choiceRT,2021.1.2,Win32,60.0060006,,,,,,,,,,,,,,,,,,,,,,
,0,h,1,0.9004,13,0,52,2,1,h.PNG,h,60f5eba9476ad9bc1d4252e9,2021-10-19_15h45.43.376,forced_choiceRT,2021.1.2,Win32,60.0060006,,,,,,,,,,,,,,,,,,,,,,
,0,g,1,1.9021,13,1,53,1,1,g.PNG,g,60f5eba9476ad9bc1d4252e9,2021-10-19_15h45.43.376,forced_choiceRT,2021.1.2,Win32,60.0060006,,,,,,,,,,,,,,,,,,,,,,
,0,f,1,0.7506,13,2,54,0,1,f.PNG,f,60f5eba9476ad9bc1d4252e9,2021-10-19_15h45.43.376,forced_choiceRT,2021.1.2,Win32,60.0060006,,,,,,,,,,,,,,,,,,,,,,
,0,f,1,0.7905,13,3,55,0,1,f.PNG,f,60f5eba9476ad9bc1d4252e9,2021-10-19_15h45.43.376,forced_choiceRT,2021.1.2,Win32,60.0060006,,,,,,,,,,,,,,,,,,,,,,
,0,f,1,0.489,14,0,56,0,1,f.PNG,f,60f5eba9476ad9bc1d4252e9,2021-10-19_15h45.43.376,forced_choiceRT,2021.1.2,Win32,60.0060006,,,,,,,,,,,,,,,,,,,,,,
,0,g,1,2.3403,14,1,57,1,1,g.PNG,g,60f5eba9476ad9bc1d4252e9,2021-10-19_15h45.43.376,forced_choiceRT,2021.1.2,Win32,60.0060006,,,,,,,,,,,,,,,,,,,,,,
,0,h,1,0.6909,14,2,58,2,1,h.PNG,h,60f5eba9476ad9bc1d4252e9,2021-10-19_15h45.43.376,forced_choiceRT,2021.1.2,Win32,60.0060006,,,,,,,,,,,,,,,,,,,,,,
,0,h,1,2.2711,14,3,59,2,1,h.PNG,h,60f5eba9476ad9bc1d4252e9,2021-10-19_15h45.43.376,forced_choiceRT,2021.1.2,Win32,60.0060006,,,,,,,,,,,,,,,,,,,,,,
,,,,,,,,,,,,60f5eba9476ad9bc1d4252e9,2021-10-19_15h45.43.376,forced_choiceRT,2021.1.2,Win32,60.0060006,f,10.3666,0,0,0,0,1,,,,,,,,,,,,,,,
,,,,,,,,,,,,60f5eba9476ad9bc1d4252e9,2021-10-19_15h45.43.376,forced_choiceRT,2021.1.2,Win32,60.0060006,f,5.2335,1,0,1,0,1,,,,,,,,,,,,,,,
,,,,,,,,,,,,60f5eba9476ad9bc1d4252e9,2021-10-19_15h45.43.376,forced_choiceRT,2021.1.2,Win32,60.0060006,g,2.2334,2,0,2,0,1,,,,,,,,,,,,,,,
,,,,,,,,,,,,60f5eba9476ad9bc1d4252e9,2021-10-19_15h45.43.376,forced_choiceRT,2021.1.2,Win32,60.0060006,h,2.1703,3,0,3,0,1,,,,,,,,,,,,,,,
,,,,,,,,,,,,60f5eba9476ad9bc1d4252e9,2021-10-19_15h45.43.376,forced_choiceRT,2021.1.2,Win32,60.0060006,j,2.154,4,0,4,0,1,,,,,,,,,,,,,,,
,,,,,,,,,,,,60f5eba9476ad9bc1d4252e9,2021-10-19_15h45.43.376,forced_choiceRT,2021.1.2,Win32,60.0060006,f,0.2518,5,0,5,0,1,,,,,,,,,,,,,,,
,,,,,,,,,,,,60f5eba9476ad9bc1d4252e9,2021-10-19_15h45.43.376,forced_choiceRT,2021.1.2,Win32,60.0060006,f,0.8672,6,0,6,0,1,,,,,,,,,,,,,,,
,,,,,,,,,,,,60f5eba9476ad9bc1d4252e9,2021-10-19_15h45.43.376,forced_choiceRT,2021.1.2,Win32,60.0060006,g,2.2501,7,0,7,0,1,,,,,,,,,,,,,,,
,,,,,,,,,,,,60f5eba9476ad9bc1d4252e9,2021-10-19_15h45.43.376,forced_choiceRT,2021.1.2,Win32,60.0060006,h,1.6568,8,0,8,0,1,,,,,,,,,,,,,,,
,,,,,,,,,,,,60f5eba9476ad9bc1d4252e9,2021-10-19_15h45.43.376,forced_choiceRT,2021.1.2,Win32,60.0060006,j,2.0835,9,0,9,0,1,,,,,,,,,,,,,,,
,,,,,,,,,,,,60f5eba9476ad9bc1d4252e9,2021-10-19_15h45.43.376,forced_choiceRT,2021.1.2,Win32,60.0060006,h,2.0939,10,0,10,0,1,,,,,,,,,,,,,,,
,,,,,,,,,,,,60f5eba9476ad9bc1d4252e9,2021-10-19_15h45.43.376,forced_choiceRT,2021.1.2,Win32,60.0060006,g,2.0622,11,0,11,0,1,,,,,,,,,,,,,,,
,,,,,,,,,,,,60f5eba9476ad9bc1d4252e9,2021-10-19_15h45.43.376,forced_choiceRT,2021.1.2,Win32,60.0060006,f,2.0724,12,0,12,0,1,,,,,,,,,,,,,,,
,,,,,,,,,,,,60f5eba9476ad9bc1d4252e9,2021-10-19_15h45.43.376,forced_choiceRT,2021.1.2,Win32,60.0060006,g,2.0335,13,0,13,0,1,,,,,,,,,,,,,,,
,,,,,,,,,,,,60f5eba9476ad9bc1d4252e9,2021-10-19_15h45.43.376,forced_choiceRT,2021.1.2,Win32,60.0060006,h,2.1833,14,0,14,0,1,,,,,,,,,,,,,,,
,,,,,,,,,,,,60f5eba9476ad9bc1d4252e9,2021-10-19_15h45.43.376,forced_choiceRT,2021.1.2,Win32,60.0060006,h,2.003,15,0,15,0,1,,,,,,,,,,,,,,,
,,,,,,,,,,,,60f5eba9476ad9bc1d4252e9,2021-10-19_15h45.43.376,forced_choiceRT,2021.1.2,Win32,60.0060006,j,2.0548,16,0,16,0,1,,,,,,,,,,,,,,,
,,,,,,,,,,,,60f5eba9476ad9bc1d4252e9,2021-10-19_15h45.43.376,forced_choiceRT,2021.1.2,Win32,60.0060006,f,2.0885,17,0,17,0,1,,,,,,,,,,,,,,,
,,,,,,,,,,,,60f5eba9476ad9bc1d4252e9,2021-10-19_15h45.43.376,forced_choiceRT,2021.1.2,Win32,60.0060006,g,1.9548,18,0,18,0,1,,,,,,,,,,,,,,,
,,,,,,,,,,,,60f5eba9476ad9bc1d4252e9,2021-10-19_15h45.43.376,forced_choiceRT,2021.1.2,Win32,60.0060006,h,2.1004,19,0,19,0,1,,,,,,,,,,,,,,,
,0.3,,,,,,,,,j.PNG,j,60f5eba9476ad9bc1d4252e9,2021-10-19_15h45.43.376,forced_choiceRT,2021.1.2,Win32,60.0060006,,,,,,,,1,Ontime,j,1,2.0572,0,0,0,3,1,,,,,
,1.57,,,,,,,,,f.PNG,f,60f5eba9476ad9bc1d4252e9,2021-10-19_15h45.43.376,forced_choiceRT,2021.1.2,Win32,60.0060006,,,,,,,,1,Ontime,j,0,2.0536,0,1,1,0,1,,,,,
,0.69,,,,,,,,,j.PNG,j,60f5eba9476ad9bc1d4252e9,2021-10-19_15h45.43.376,forced_choiceRT,2021.1.2,Win32,60.0060006,,,,,,,,1,Ontime,j,1,2.0002,0,2,2,3,1,,,,,
,1.9,,,,,,,,,h.PNG,h,60f5eba9476ad9bc1d4252e9,2021-10-19_15h45.43.376,forced_choiceRT,2021.1.2,Win32,60.0060006,,,,,,,,1,Slow,j,0,2.2566,0,3,3,2,1,,,,,
,0.37,,,,,,,,,f.PNG,f,60f5eba9476ad9bc1d4252e9,2021-10-19_15h45.43.376,forced_choiceRT,2021.1.2,Win32,60.0060006,,,,,,,,1,Ontime,f,1,2.017,1,0,4,0,1,,,,,
,1.62,,,,,,,,,h.PNG,h,60f5eba9476ad9bc1d4252e9,2021-10-19_15h45.43.376,forced_choiceRT,2021.1.2,Win32,60.0060006,,,,,,,,1,Slow,h,1,2.1335,1,1,5,2,1,,,,,
,1.36,,,,,,,,,h.PNG,h,60f5eba9476ad9bc1d4252e9,2021-10-19_15h45.43.376,forced_choiceRT,2021.1.2,Win32,60.0060006,,,,,,,,1,Ontime,h,1,2.072,1,2,6,2,1,,,,,
,1.83,,,,,,,,,h.PNG,h,60f5eba9476ad9bc1d4252e9,2021-10-19_15h45.43.376,forced_choiceRT,2021.1.2,Win32,60.0060006,,,,,,,,1,Slow,h,1,2.267,1,3,7,2,1,,,,,
,0.32,,,,,,,,,g.PNG,g,60f5eba9476ad9bc1d4252e9,2021-10-19_15h45.43.376,forced_choiceRT,2021.1.2,Win32,60.0060006,,,,,,,,1,Ontime,g,1,1.9337,2,0,8,1,1,,,,,
,1.38,,,,,,,,,j.PNG,j,60f5eba9476ad9bc1d4252e9,2021-10-19_15h45.43.376,forced_choiceRT,2021.1.2,Win32,60.0060006,,,,,,,,1,Fast,g,0,1.7669,2,1,9,3,1,,,,,
,1.19,,,,,,,,,g.PNG,g,60f5eba9476ad9bc1d4252e9,2021-10-19_15h45.43.376,forced_choiceRT,2021.1.2,Win32,60.0060006,,,,,,,,1,Fast,g,1,1.8336,2,2,10,1,1,,,,,
,1.79,,,,,,,,,g.PNG,g,60f5eba9476ad9bc1d4252e9,2021-10-19_15h45.43.376,forced_choiceRT,2021.1.2,Win32,60.0060006,,,,,,,,1,Slow,g,1,2.2335,2,3,11,1,1,,,,,
,0.22,,,,,,,,,f.PNG,f,60f5eba9476ad9bc1d4252e9,2021-10-19_15h45.43.376,forced_choiceRT,2021.1.2,Win32,60.0060006,,,,,,,,1,Ontime,f,1,1.9502,3,0,12,0,1,,,,,
,1.84,,,,,,,,,g.PNG,g,60f5eba9476ad9bc1d4252e9,2021-10-19_15h45.43.376,forced_choiceRT,2021.1.2,Win32,60.0060006,,,,,,,,1,Slow,h,0,2.1669,3,1,13,1,1,,,,,
,0.52,,,,,,,,,j.PNG,j,60f5eba9476ad9bc1d4252e9,2021-10-19_15h45.43.376,forced_choiceRT,2021.1.2,Win32,60.0060006,,,,,,,,1,Ontime,j,1,2.0002,3,2,14,3,1,,,,,
,1.29,,,,,,,,,j.PNG,j,60f5eba9476ad9bc1d4252e9,2021-10-19_15h45.43.376,forced_choiceRT,2021.1.2,Win32,60.0060006,,,,,,,,1,Ontime,j,1,2.0235,3,3,15,3,1,,,,,
,0.55,,,,,,,,,j.PNG,j,60f5eba9476ad9bc1d4252e9,2021-10-19_15h45.43.376,forced_choiceRT,2021.1.2,Win32,60.0060006,,,,,,,,1,Ontime,j,1,2.0933,4,0,16,3,1,,,,,
,1.38,,,,,,,,,g.PNG,g,60f5eba9476ad9bc1d4252e9,2021-10-19_15h45.43.376,forced_choiceRT,2021.1.2,Win32,60.0060006,,,,,,,,1,Ontime,f,0,2.0336,4,1,17,1,1,,,,,
,1.41,,,,,,,,,g.PNG,g,60f5eba9476ad9bc1d4252e9,2021-10-19_15h45.43.376,forced_choiceRT,2021.1.2,Win32,60.0060006,,,,,,,,1,Ontime,g,1,1.9711,4,2,18,1,1,,,,,
,1.34,,,,,,,,,h.PNG,h,60f5eba9476ad9bc1d4252e9,2021-10-19_15h45.43.376,forced_choiceRT,2021.1.2,Win32,60.0060006,,,,,,,,1,Ontime,h,1,2.0504,4,3,19,2,1,,,,,
,0.38,,,,,,,,,f.PNG,f,60f5eba9476ad9bc1d4252e9,2021-10-19_15h45.43.376,forced_choiceRT,2021.1.2,Win32,60.0060006,,,,,,,,1,Ontime,f,1,1.9838,5,0,20,0,1,,,,,
,1.54,,,,,,,,,h.PNG,h,60f5eba9476ad9bc1d4252e9,2021-10-19_15h45.43.376,forced_choiceRT,2021.1.2,Win32,60.0060006,,,,,,,,1,Slow,h,1,2.139,5,1,21,2,1,,,,,
,1.38,,,,,,,,,h.PNG,h,60f5eba9476ad9bc1d4252e9,2021-10-19_15h45.43.376,forced_choiceRT,2021.1.2,Win32,60.0060006,,,,,,,,1,Ontime,h,1,2.0335,5,2,22,2,1,,,,,
,1.45,,,,,,,,,h.PNG,h,60f5eba9476ad9bc1d4252e9,2021-10-19_15h45.43.376,forced_choiceRT,2021.1.2,Win32,60.0060006,,,,,,,,1,Slow,h,1,2.1052,5,3,23,2,1,,,,,
,1.66,,,,,,,,,g.PNG,g,60f5eba9476ad9bc1d4252e9,2021-10-19_15h45.43.376,forced_choiceRT,2021.1.2,Win32,60.0060006,,,,,,,,1,Slow,f,0,2.15,6,0,24,1,1,,,,,
,0.84,,,,,,,,,f.PNG,f,60f5eba9476ad9bc1d4252e9,2021-10-19_15h45.43.376,forced_choiceRT,2021.1.2,Win32,60.0060006,,,,,,,,1,Ontime,f,1,2.029,6,1,25,0,1,,,,,
,0.79,,,,,,,,,j.PNG,j,60f5eba9476ad9bc1d4252e9,2021-10-19_15h45.43.376,forced_choiceRT,2021.1.2,Win32,60.0060006,,,,,,,,1,Ontime,j,1,1.9677,6,2,26,3,1,,,,,
,1.69,,,,,,,,,g.PNG,g,60f5eba9476ad9bc1d4252e9,2021-10-19_15h45.43.376,forced_choiceRT,2021.1.2,Win32,60.0060006,,,,,,,,1,Slow,f,0,2.1879,6,3,27,1,1,,,,,
,0.75,,,,,,,,,f.PNG,f,60f5eba9476ad9bc1d4252e9,2021-10-19_15h45.43.376,forced_choiceRT,2021.1.2,Win32,60.0060006,,,,,,,,1,Ontime,f,1,2.0518,7,0,28,0,1,,,,,
,0.43,,,,,,,,,j.PNG,j,60f5eba9476ad9bc1d4252e9,2021-10-19_15h45.43.376,forced_choiceRT,2021.1.2,Win32,60.0060006,,,,,,,,1,Ontime,j,1,1.9336,7,1,29,3,1,,,,,
,0.4,,,,,,,,,g.PNG,g,60f5eba9476ad9bc1d4252e9,2021-10-19_15h45.43.376,forced_choiceRT,2021.1.2,Win32,60.0060006,,,,,,,,1,Ontime,g,1,1.937,7,2,30,1,1,,,,,
,1.31,,,,,,,,,h.PNG,h,60f5eba9476ad9bc1d4252e9,2021-10-19_15h45.43.376,forced_choiceRT,2021.1.2,Win32,60.0060006,,,,,,,,1,Ontime,h,1,1.9236,7,3,31,2,1,,,,,
,1.84,,,,,,,,,f.PNG,f,60f5eba9476ad9bc1d4252e9,2021-10-19_15h45.43.376,forced_choiceRT,2021.1.2,Win32,60.0060006,,,,,,,,1,Slow,g,0,2.2666,8,0,32,0,1,,,,,
,0.38,,,,,,,,,j.PNG,j,60f5eba9476ad9bc1d4252e9,2021-10-19_15h45.43.376,forced_choiceRT,2021.1.2,Win32,60.0060006,,,,,,,,1,Ontime,j,1,2.0009,8,1,33,3,1,,,,,
,1.86,,,,,,,,,f.PNG,f,60f5eba9476ad9bc1d4252e9,2021-10-19_15h45.43.376,forced_choiceRT,2021.1.2,Win32,60.0060006,,,,,,,,1,Slow,j,0,2.2867,8,2,34,0,1,,,,,
,1.1,,,,,,,,,j.PNG,j,60f5eba9476ad9bc1d4252e9,2021-10-19_15h45.43.376,forced_choiceRT,2021.1.2,Win32,60.0060006,,,,,,,,1,Ontime,j,1,2.05,8,3,35,3,1,,,,,
,0.24,,,,,,,,,f.PNG,f,60f5eba9476ad9bc1d4252e9,2021-10-19_15h45.43.376,forced_choiceRT,2021.1.2,Win32,60.0060006,,,,,,,,1,Ontime,f,1,1.9195,9,0,36,0,1,,,,,
,1.48,,,,,,,,,f.PNG,f,60f5eba9476ad9bc1d4252e9,2021-10-19_15h45.43.376,forced_choiceRT,2021.1.2,Win32,60.0060006,,,,,,,,1,Ontime,f,1,2.0504,9,1,37,0,1,,,,,
,0.97,,,,,,,,,g.PNG,g,60f5eba9476ad9bc1d4252e9,2021-10-19_15h45.43.376,forced_choiceRT,2021.1.2,Win32,60.0060006,,,,,,,,1,Ontime,f,0,1.9876,9,2,38,1,1,,,,,
,0.68,,,,,,,,,h.PNG,h,60f5eba9476ad9bc1d4252e9,2021-10-19_15h45.43.376,forced_choiceRT,2021.1.2,Win32,60.0060006,,,,,,,,1,Ontime,h,1,1.9836,9,3,39,2,1,,,,,
,,,,,,,,,,,,60f5eba9476ad9bc1d4252e9,2021-10-19_15h45.43.376,forced_choiceRT,2021.1.2,Win32,60.0060006,,,,,,,,,,,,,,,,,,0,0,0,0,1
,1.86,,,,,,,,,h.PNG,h,60f5eba9476ad9bc1d4252e9,2021-10-19_15h45.43.376,forced_choiceRT,2021.1.2,Win32,60.0060006,,,,,,,,2,Slow,h,1,4.2242,0,0,0,2,1,,,,,
,0.01,,,,,,,,,f.PNG,f,60f5eba9476ad9bc1d4252e9,2021-10-19_15h45.43.376,forced_choiceRT,2021.1.2,Win32,60.0060006,,,,,,,,2,Ontime,f,1,1.9896,0,1,1,0,1,,,,,
,0.99,,,,,,,,,h.PNG,h,60f5eba9476ad9bc1d4252e9,2021-10-19_15h45.43.376,forced_choiceRT,2021.1.2,Win32,60.0060006,,,,,,,,2,Ontime,h,1,1.9313,0,2,2,2,1,,,,,
,1.18,,,,,,,,,g.PNG,g,60f5eba9476ad9bc1d4252e9,2021-10-19_15h45.43.376,forced_choiceRT,2021.1.2,Win32,60.0060006,,,,,,,,2,Fast,g,1,1.7833,0,3,3,1,1,,,,,
,0.36,,,,,,,,,f.PNG,f,60f5eba9476ad9bc1d4252e9,2021-10-19_15h45.43.376,forced_choiceRT,2021.1.2,Win32,60.0060006,,,,,,,,2,Ontime,f,1,1.9622,1,0,4,0,1,,,,,
,1.93,,,,,,,,,j.PNG,j,60f5eba9476ad9bc1d4252e9,2021-10-19_15h45.43.376,forced_choiceRT,2021.1.2,Win32,60.0060006,,,,,,,,2,Slow,g,0,2.2872,1,1,5,3,1,,,,,
,0.81,,,,,,,,,f.PNG,f,60f5eba9476ad9bc1d4252e9,2021-10-19_15h45.43.376,forced_choiceRT,2021.1.2,Win32,60.0060006,,,,,,,,2,Ontime,f,1,2.0241,1,2,6,0,1,,,,,
,1.28,,,,,,,,,j.PNG,j,60f5eba9476ad9bc1d4252e9,2021-10-19_15h45.43.376,forced_choiceRT,2021.1.2,Win32,60.0060006,,,,,,,,2,Ontime,j,1,1.9979,1,3,7,3,1,,,,,
,0.38,,,,,,,,,f.PNG,f,60f5eba9476ad9bc1d4252e9,2021-10-19_15h45.43.376,forced_choiceRT,2021.1.2,Win32,60.0060006,,,,,,,,2,Ontime,f,1,1.9734,2,0,8,0,1,,,,,
,0.51,,,,,,,,,f.PNG,f,60f5eba9476ad9bc1d4252e9,2021-10-19_15h45.43.376,forced_choiceRT,2021.1.2,Win32,60.0060006,,,,,,,,2,Ontime,f,1,2.019,2,1,9,0,1,,,,,
,1.24,,,,,,,,,g.PNG,g,60f5eba9476ad9bc1d4252e9,2021-10-19_15h45.43.376,forced_choiceRT,2021.1.2,Win32,60.0060006,,,,,,,,2,Ontime,g,1,2.013,2,2,10,1,1,,,,,
,1.91,,,,,,,,,g.PNG,g,60f5eba9476ad9bc1d4252e9,2021-10-19_15h45.43.376,forced_choiceRT,2021.1.2,Win32,60.0060006,,,,,,,,2,Slow,g,1,2.204,2,3,11,1,1,,,,,
,1.56,,,,,,,,,j.PNG,j,60f5eba9476ad9bc1d4252e9,2021-10-19_15h45.43.376,forced_choiceRT,2021.1.2,Win32,60.0060006,,,,,,,,2,Ontime,j,1,2.0923,3,0,12,3,1,,,,,
,0.14,,,,,,,,,f.PNG,f,60f5eba9476ad9bc1d4252e9,2021-10-19_15h45.43.376,forced_choiceRT,2021.1.2,Win32,60.0060006,,,,,,,,2,Ontime,f,1,2.0146,3,1,13,0,1,,,,,
,0.5,,,,,,,,,h.PNG,h,60f5eba9476ad9bc1d4252e9,2021-10-19_15h45.43.376,forced_choiceRT,2021.1.2,Win32,60.0060006,,,,,,,,2,Ontime,h,1,1.9876,3,2,14,2,1,,,,,
,1.05,,,,,,,,,f.PNG,f,60f5eba9476ad9bc1d4252e9,2021-10-19_15h45.43.376,forced_choiceRT,2021.1.2,Win32,60.0060006,,,,,,,,2,Ontime,f,1,2.0815,3,3,15,0,1,,,,,
,1.57,,,,,,,,,h.PNG,h,60f5eba9476ad9bc1d4252e9,2021-10-19_15h45.43.376,forced_choiceRT,2021.1.2,Win32,60.0060006,,,,,,,,2,Slow,h,1,2.1374,4,0,16,2,1,,,,,
,0.4,,,,,,,,,j.PNG,j,60f5eba9476ad9bc1d4252e9,2021-10-19_15h45.43.376,forced_choiceRT,2021.1.2,Win32,60.0060006,,,,,,,,2,Ontime,j,1,1.9591,4,1,17,3,1,,,,,
,1.89,,,,,,,,,h.PNG,h,60f5eba9476ad9bc1d4252e9,2021-10-19_15h45.43.376,forced_choiceRT,2021.1.2,Win32,60.0060006,,,,,,,,2,Slow,h,1,2.2278,4,2,18,2,1,,,,,
,0.99,,,,,,,,,j.PNG,j,60f5eba9476ad9bc1d4252e9,2021-10-19_15h45.43.376,forced_choiceRT,2021.1.2,Win32,60.0060006,,,,,,,,2,Ontime,j,1,1.9664,4,3,19,3,1,,,,,
,1.87,,,,,,,,,h.PNG,h,60f5eba9476ad9bc1d4252e9,2021-10-19_15h45.43.376,forced_choiceRT,2021.1.2,Win32,60.0060006,,,,,,,,2,Slow,g,0,2.1213,5,0,20,2,1,,,,,
,1.95,,,,,,,,,h.PNG,h,60f5eba9476ad9bc1d4252e9,2021-10-19_15h45.43.376,forced_choiceRT,2021.1.2,Win32,60.0060006,,,,,,,,2,Ontime,h,1,2.0837,5,1,21,2,1,,,,,
,1.89,,,,,,,,,g.PNG,g,60f5eba9476ad9bc1d4252e9,2021-10-19_15h45.43.376,forced_choiceRT,2021.1.2,Win32,60.0060006,,,,,,,,2,Slow,g,1,2.8063,5,2,22,1,1,,,,,
,1.72,,,,,,,,,g.PNG,g,60f5eba9476ad9bc1d4252e9,2021-10-19_15h45.43.376,forced_choiceRT,2021.1.2,Win32,60.0060006,,,,,,,,2,Slow,g,1,2.1834,5,3,23,1,1,,,,,
,0.65,,,,,,,,,j.PNG,j,60f5eba9476ad9bc1d4252e9,2021-10-19_15h45.43.376,forced_choiceRT,2021.1.2,Win32,60.0060006,,,,,,,,2,Ontime,j,1,1.9436,6,0,24,3,1,,,,,
,0.09,,,,,,,,,g.PNG,g,60f5eba9476ad9bc1d4252e9,2021-10-19_15h45.43.376,forced_choiceRT,2021.1.2,Win32,60.0060006,,,,,,,,2,Ontime,g,1,2.021,6,1,25,1,1,,,,,
,1.61,,,,,,,,,h.PNG,h,60f5eba9476ad9bc1d4252e9,2021-10-19_15h45.43.376,forced_choiceRT,2021.1.2,Win32,60.0060006,,,,,,,,2,Slow,g,0,2.1061,6,2,26,2,1,,,,,
,1.22,,,,,,,,,f.PNG,f,60f5eba9476ad9bc1d4252e9,2021-10-19_15h45.43.376,forced_choiceRT,2021.1.2,Win32,60.0060006,,,,,,,,2,Ontime,f,1,2.0333,6,3,27,0,1,,,,,
,0.39,,,,,,,,,h.PNG,h,60f5eba9476ad9bc1d4252e9,2021-10-19_15h45.43.376,forced_choiceRT,2021.1.2,Win32,60.0060006,,,,,,,,2,Ontime,h,1,1.9744,7,0,28,2,1,,,,,
,0.45,,,,,,,,,f.PNG,f,60f5eba9476ad9bc1d4252e9,2021-10-19_15h45.43.376,forced_choiceRT,2021.1.2,Win32,60.0060006,,,,,,,,2,Ontime,f,1,2.0115,7,1,29,0,1,,,,,
,1.68,,,,,,,,,f.PNG,f,60f5eba9476ad9bc1d4252e9,2021-10-19_15h45.43.376,forced_choiceRT,2021.1.2,Win32,60.0060006,,,,,,,,2,Slow,g,0,2.1561,7,2,30,0,1,,,,,
,1.93,,,,,,,,,j.PNG,j,60f5eba9476ad9bc1d4252e9,2021-10-19_15h45.43.376,forced_choiceRT,2021.1.2,Win32,60.0060006,,,,,,,,2,Slow,j,1,2.7375,7,3,31,3,1,,,,,
,1.9,,,,,,,,,h.PNG,h,60f5eba9476ad9bc1d4252e9,2021-10-19_15h45.43.376,forced_choiceRT,2021.1.2,Win32,60.0060006,,,,,,,,2,Slow,f,0,2.1167,8,0,32,2,1,,,,,
,1.12,,,,,,,,,j.PNG,j,60f5eba9476ad9bc1d4252e9,2021-10-19_15h45.43.376,forced_choiceRT,2021.1.2,Win32,60.0060006,,,,,,,,2,Ontime,j,1,2.0675,8,1,33,3,1,,,,,
,0.13,,,,,,,,,g.PNG,g,60f5eba9476ad9bc1d4252e9,2021-10-19_15h45.43.376,forced_choiceRT,2021.1.2,Win32,60.0060006,,,,,,,,2,Ontime,g,1,1.9667,8,2,34,1,1,,,,,
,0.92,,,,,,,,,g.PNG,g,60f5eba9476ad9bc1d4252e9,2021-10-19_15h45.43.376,forced_choiceRT,2021.1.2,Win32,60.0060006,,,,,,,,2,Ontime,g,1,1.971,8,3,35,1,1,,,,,
,0.12,,,,,,,,,g.PNG,g,60f5eba9476ad9bc1d4252e9,2021-10-19_15h45.43.376,forced_choiceRT,2021.1.2,Win32,60.0060006,,,,,,,,2,Ontime,g,1,1.9669,9,0,36,1,1,,,,,
,0.17,,,,,,,,,j.PNG,j,60f5eba9476ad9bc1d4252e9,2021-10-19_15h45.43.376,forced_choiceRT,2021.1.2,Win32,60.0060006,,,,,,,,2,Ontime,j,1,2.0386,9,1,37,3,1,,,,,
,0.06,,,,,,,,,g.PNG,g,60f5eba9476ad9bc1d4252e9,2021-10-19_15h45.43.376,forced_choiceRT,2021.1.2,Win32,60.0060006,,,,,,,,2,Ontime,g,1,2.0004,9,2,38,1,1,,,,,
,1.07,,,,,,,,,j.PNG,j,60f5eba9476ad9bc1d4252e9,2021-10-19_15h45.43.376,forced_choiceRT,2021.1.2,Win32,60.0060006,,,,,,,,2,Ontime,j,1,2.0856,9,3,39,3,1,,,,,
,,,,,,,,,,,,60f5eba9476ad9bc1d4252e9,2021-10-19_15h45.43.376,forced_choiceRT,2021.1.2,Win32,60.0060006,,,,,,,,,,,,,,,,,,1,0,1,0,1
,0.92,,,,,,,,,h.PNG,h,60f5eba9476ad9bc1d4252e9,2021-10-19_15h45.43.376,forced_choiceRT,2021.1.2,Win32,60.0060006,,,,,,,,3,Ontime,h,1,2.0334,0,0,0,2,1,,,,,
,1.67,,,,,,,,,f.PNG,f,60f5eba9476ad9bc1d4252e9,2021-10-19_15h45.43.376,forced_choiceRT,2021.1.2,Win32,60.0060006,,,,,,,,3,Slow,f,1,2.3001,0,1,1,0,1,,,,,
,0.98,,,,,,,,,j.PNG,j,60f5eba9476ad9bc1d4252e9,2021-10-19_15h45.43.376,forced_choiceRT,2021.1.2,Win32,60.0060006,,,,,,,,3,Ontime,j,1,2.02,0,2,2,3,1,,,,,
,1.41,,,,,,,,,f.PNG,f,60f5eba9476ad9bc1d4252e9,2021-10-19_15h45.43.376,forced_choiceRT,2021.1.2,Win32,60.0060006,,,,,,,,3,Ontime,f,1,2.0337,0,3,3,0,1,,,,,
,1.71,,,,,,,,,h.PNG,h,60f5eba9476ad9bc1d4252e9,2021-10-19_15h45.43.376,forced_choiceRT,2021.1.2,Win32,60.0060006,,,,,,,,3,Slow,h,1,2.2004,1,0,4,2,1,,,,,
,0.75,,,,,,,,,f.PNG,f,60f5eba9476ad9bc1d4252e9,2021-10-19_15h45.43.376,forced_choiceRT,2021.1.2,Win32,60.0060006,,,,,,,,3,Ontime,f,1,2.0313,1,1,5,0,1,,,,,
,0.42,,,,,,,,,f.PNG,f,60f5eba9476ad9bc1d4252e9,2021-10-19_15h45.43.376,forced_choiceRT,2021.1.2,Win32,60.0060006,,,,,,,,3,Ontime,f,1,2.0501,1,2,6,0,1,,,,,
,1.7,,,,,,,,,g.PNG,g,60f5eba9476ad9bc1d4252e9,2021-10-19_15h45.43.376,forced_choiceRT,2021.1.2,Win32,60.0060006,,,,,,,,3,Ontime,h,0,2.0158,1,3,7,1,1,,,,,
,0.62,,,,,,,,,g.PNG,g,60f5eba9476ad9bc1d4252e9,2021-10-19_15h45.43.376,forced_choiceRT,2021.1.2,Win32,60.0060006,,,,,,,,3,Ontime,g,1,2.0668,2,0,8,1,1,,,,,
,1.63,,,,,,,,,h.PNG,h,60f5eba9476ad9bc1d4252e9,2021-10-19_15h45.43.376,forced_choiceRT,2021.1.2,Win32,60.0060006,,,,,,,,3,Slow,h,1,2.1001,2,1,9,2,1,,,,,
,1.78,,,,,,,,,j.PNG,j,60f5eba9476ad9bc1d4252e9,2021-10-19_15h45.43.376,forced_choiceRT,2021.1.2,Win32,60.0060006,,,,,,,,3,Slow,h,0,2.1834,2,2,10,3,1,,,,,
,1.42,,,,,,,,,f.PNG,f,60f5eba9476ad9bc1d4252e9,2021-10-19_15h45.43.376,forced_choiceRT,2021.1.2,Win32,60.0060006,,,,,,,,3,Ontime,f,1,2.0898,2,3,11,0,1,,,,,
,0.39,,,,,,,,,h.PNG,h,60f5eba9476ad9bc1d4252e9,2021-10-19_15h45.43.376,forced_choiceRT,2021.1.2,Win32,60.0060006,,,,,,,,3,Ontime,h,1,2.0032,3,0,12,2,1,,,,,
,1.63,,,,,,,,,h.PNG,h,60f5eba9476ad9bc1d4252e9,2021-10-19_15h45.43.376,forced_choiceRT,2021.1.2,Win32,60.0060006,,,,,,,,3,Slow,h,1,2.117,3,1,13,2,1,,,,,
,0.06,,,,,,,,,j.PNG,j,60f5eba9476ad9bc1d4252e9,2021-10-19_15h45.43.376,forced_choiceRT,2021.1.2,Win32,60.0060006,,,,,,,,3,Ontime,j,1,1.9835,3,2,14,3,1,,,,,
,0.86,,,,,,,,,h.PNG,h,60f5eba9476ad9bc1d4252e9,2021-10-19_15h45.43.376,forced_choiceRT,2021.1.2,Win32,60.0060006,,,,,,,,3,Ontime,h,1,2.0168,3,3,15,2,1,,,,,
,1.62,,,,,,,,,j.PNG,j,60f5eba9476ad9bc1d4252e9,2021-10-19_15h45.43.376,forced_choiceRT,2021.1.2,Win32,60.0060006,,,,,,,,3,Slow,j,1,2.1738,4,0,16,3,1,,,,,
,1.73,,,,,,,,,h.PNG,h,60f5eba9476ad9bc1d4252e9,2021-10-19_15h45.43.376,forced_choiceRT,2021.1.2,Win32,60.0060006,,,,,,,,3,Slow,h,1,2.1649,4,1,17,2,1,,,,,
,1.9,,,,,,,,,g.PNG,g,60f5eba9476ad9bc1d4252e9,2021-10-19_15h45.43.376,forced_choiceRT,2021.1.2,Win32,60.0060006,,,,,,,,3,Slow,j,0,2.2338,4,2,18,1,1,,,,,
,1.78,,,,,,,,,g.PNG,g,60f5eba9476ad9bc1d4252e9,2021-10-19_15h45.43.376,forced_choiceRT,2021.1.2,Win32,60.0060006,,,,,,,,3,Slow,g,1,3.7959,4,3,19,1,1,,,,,
,1.84,,,,,,,,,g.PNG,g,60f5eba9476ad9bc1d4252e9,2021-10-19_15h45.43.376,forced_choiceRT,2021.1.2,Win32,60.0060006,,,,,,,,3,Slow,h,0,2.29,5,0,20,1,1,,,,,
,0.25,,,,,,,,,j.PNG,j,60f5eba9476ad9bc1d4252e9,2021-10-19_15h45.43.376,forced_choiceRT,2021.1.2,Win32,60.0060006,,,,,,,,3,Ontime,j,1,2.0224,5,1,21,3,1,,,,,
,1.16,,,,,,,,,f.PNG,f,60f5eba9476ad9bc1d4252e9,2021-10-19_15h45.43.376,forced_choiceRT,2021.1.2,Win32,60.0060006,,,,,,,,3,Slow,f,1,2.1043,5,2,22,0,1,,,,,
,0.16,,,,,,,,,f.PNG,f,60f5eba9476ad9bc1d4252e9,2021-10-19_15h45.43.376,forced_choiceRT,2021.1.2,Win32,60.0060006,,,,,,,,3,Ontime,f,1,1.9459,5,3,23,0,1,,,,,
,1.77,,,,,,,,,g.PNG,g,60f5eba9476ad9bc1d4252e9,2021-10-19_15h45.43.376,forced_choiceRT,2021.1.2,Win32,60.0060006,,,,,,,,3,Slow,g,1,2.1189,6,0,24,1,1,,,,,
,0.16,,,,,,,,,g.PNG,g,60f5eba9476ad9bc1d4252e9,2021-10-19_15h45.43.376,forced_choiceRT,2021.1.2,Win32,60.0060006,,,,,,,,3,Ontime,g,1,1.9867,6,1,25,1,1,,,,,
,1.07,,,,,,,,,g.PNG,g,60f5eba9476ad9bc1d4252e9,2021-10-19_15h45.43.376,forced_choiceRT,2021.1.2,Win32,60.0060006,,,,,,,,3,Ontime,g,1,2.0917,6,2,26,1,1,,,,,
,1.33,,,,,,,,,h.PNG,h,60f5eba9476ad9bc1d4252e9,2021-10-19_15h45.43.376,forced_choiceRT,2021.1.2,Win32,60.0060006,,,,,,,,3,Ontime,h,1,1.9823,6,3,27,2,1,,,,,
,1.51,,,,,,,,,j.PNG,j,60f5eba9476ad9bc1d4252e9,2021-10-19_15h45.43.376,forced_choiceRT,2021.1.2,Win32,60.0060006,,,,,,,,3,Ontime,j,1,1.9966,7,0,28,3,1,,,,,
,1.82,,,,,,,,,f.PNG,f,60f5eba9476ad9bc1d4252e9,2021-10-19_15h45.43.376,forced_choiceRT,2021.1.2,Win32,60.0060006,,,,,,,,3,Slow,f,1,2.1542,7,1,29,0,1,,,,,
,1.17,,,,,,,,,j.PNG,j,60f5eba9476ad9bc1d4252e9,2021-10-19_15h45.43.376,forced_choiceRT,2021.1.2,Win32,60.0060006,,,,,,,,3,Ontime,j,1,2.0423,7,2,30,3,1,,,,,
,1.28,,,,,,,,,h.PNG,h,60f5eba9476ad9bc1d4252e9,2021-10-19_15h45.43.376,forced_choiceRT,2021.1.2,Win32,60.0060006,,,,,,,,3,Ontime,h,1,1.9602,7,3,31,2,1,,,,,
,1.77,,,,,,,,,g.PNG,g,60f5eba9476ad9bc1d4252e9,2021-10-19_15h45.43.376,forced_choiceRT,2021.1.2,Win32,60.0060006,,,,,,,,3,Slow,g,1,3.2038,8,0,32,1,1,,,,,
,0.36,,,,,,,,,h.PNG,h,60f5eba9476ad9bc1d4252e9,2021-10-19_15h45.43.376,forced_choiceRT,2021.1.2,Win32,60.0060006,,,,,,,,3,Ontime,h,1,1.9759,8,1,33,2,1,,,,,
,1.52,,,,,,,,,g.PNG,g,60f5eba9476ad9bc1d4252e9,2021-10-19_15h45.43.376,forced_choiceRT,2021.1.2,Win32,60.0060006,,,,,,,,3,Ontime,g,1,2.0467,8,2,34,1,1,,,,,
,0.47,,,,,,,,,f.PNG,f,60f5eba9476ad9bc1d4252e9,2021-10-19_15h45.43.376,forced_choiceRT,2021.1.2,Win32,60.0060006,,,,,,,,3,Fast,f,1,1.8005,8,3,35,0,1,,,,,
,1.14,,,,,,,,,j.PNG,j,60f5eba9476ad9bc1d4252e9,2021-10-19_15h45.43.376,forced_choiceRT,2021.1.2,Win32,60.0060006,,,,,,,,3,Ontime,j,1,2.0386,9,0,36,3,1,,,,,
,1.06,,,,,,,,,f.PNG,f,60f5eba9476ad9bc1d4252e9,2021-10-19_15h45.43.376,forced_choiceRT,2021.1.2,Win32,60.0060006,,,,,,,,3,Ontime,f,1,2.0649,9,1,37,0,1,,,,,
,1.12,,,,,,,,,j.PNG,j,60f5eba9476ad9bc1d4252e9,2021-10-19_15h45.43.376,forced_choiceRT,2021.1.2,Win32,60.0060006,,,,,,,,3,Ontime,j,1,2.0045,9,2,38,3,1,,,,,
,0.35,,,,,,,,,j.PNG,j,60f5eba9476ad9bc1d4252e9,2021-10-19_15h45.43.376,forced_choiceRT,2021.1.2,Win32,60.0060006,,,,,,,,3,Ontime,j,1,1.9394,9,3,39,3,1,,,,,
,,,,,,,,,,,,60f5eba9476ad9bc1d4252e9,2021-10-19_15h45.43.376,forced_choiceRT,2021.1.2,Win32,60.0060006,,,,,,,,,,,,,,,,,,2,0,2,0,1
,0.27,,,,,,,,,j.PNG,j,60f5eba9476ad9bc1d4252e9,2021-10-19_15h45.43.376,forced_choiceRT,2021.1.2,Win32,60.0060006,,,,,,,,4,Ontime,j,1,1.9788,0,0,0,3,1,,,,,
,1.33,,,,,,,,,g.PNG,g,60f5eba9476ad9bc1d4252e9,2021-10-19_15h45.43.376,forced_choiceRT,2021.1.2,Win32,60.0060006,,,,,,,,4,Ontime,g,1,1.9528,0,1,1,1,1,,,,,
,1.68,,,,,,,,,j.PNG,j,60f5eba9476ad9bc1d4252e9,2021-10-19_15h45.43.376,forced_choiceRT,2021.1.2,Win32,60.0060006,,,,,,,,4,Slow,j,1,2.1726,0,2,2,3,1,,,,,
,0.79,,,,,,,,,g.PNG,g,60f5eba9476ad9bc1d4252e9,2021-10-19_15h45.43.376,forced_choiceRT,2021.1.2,Win32,60.0060006,,,,,,,,4,Ontime,g,1,1.9441,0,3,3,1,1,,,,,
,0.74,,,,,,,,,g.PNG,g,60f5eba9476ad9bc1d4252e9,2021-10-19_15h45.43.376,forced_choiceRT,2021.1.2,Win32,60.0060006,,,,,,,,4,Ontime,g,1,1.9174,1,0,4,1,1,,,,,
,1.42,,,,,,,,,f.PNG,f,60f5eba9476ad9bc1d4252e9,2021-10-19_15h45.43.376,forced_choiceRT,2021.1.2,Win32,60.0060006,,,,,,,,4,Ontime,f,1,1.9905,1,1,5,0,1,,,,,
,0.9,,,,,,,,,f.PNG,f,60f5eba9476ad9bc1d4252e9,2021-10-19_15h45.43.376,forced_choiceRT,2021.1.2,Win32,60.0060006,,,,,,,,4,Ontime,f,1,1.9426,1,2,6,0,1,,,,,
,0.96,,,,,,,,,g.PNG,g,60f5eba9476ad9bc1d4252e9,2021-10-19_15h45.43.376,forced_choiceRT,2021.1.2,Win32,60.0060006,,,,,,,,4,Ontime,g,1,1.9389,1,3,7,1,1,,,,,
,1.34,,,,,,,,,f.PNG,f,60f5eba9476ad9bc1d4252e9,2021-10-19_15h45.43.376,forced_choiceRT,2021.1.2,Win32,60.0060006,,,,,,,,4,Ontime,f,1,1.9736,2,0,8,0,1,,,,,
,0.38,,,,,,,,,j.PNG,j,60f5eba9476ad9bc1d4252e9,2021-10-19_15h45.43.376,forced_choiceRT,2021.1.2,Win32,60.0060006,,,,,,,,4,Ontime,j,1,1.9356,2,1,9,3,1,,,,,
,0.11,,,,,,,,,h.PNG,h,60f5eba9476ad9bc1d4252e9,2021-10-19_15h45.43.376,forced_choiceRT,2021.1.2,Win32,60.0060006,,,,,,,,4,Ontime,h,1,1.9429,2,2,10,2,1,,,,,
,1.83,,,,,,,,,h.PNG,h,60f5eba9476ad9bc1d4252e9,2021-10-19_15h45.43.376,forced_choiceRT,2021.1.2,Win32,60.0060006,,,,,,,,4,Slow,f,0,2.1894,2,3,11,2,1,,,,,
,0.75,,,,,,,,,f.PNG,f,60f5eba9476ad9bc1d4252e9,2021-10-19_15h45.43.376,forced_choiceRT,2021.1.2,Win32,60.0060006,,,,,,,,4,Ontime,f,1,2.0875,3,0,12,0,1,,,,,
,0.44,,,,,,,,,f.PNG,f,60f5eba9476ad9bc1d4252e9,2021-10-19_15h45.43.376,forced_choiceRT,2021.1.2,Win32,60.0060006,,,,,,,,4,Ontime,f,1,1.993,3,1,13,0,1,,,,,
,1.43,,,,,,,,,f.PNG,f,60f5eba9476ad9bc1d4252e9,2021-10-19_15h45.43.376,forced_choiceRT,2021.1.2,Win32,60.0060006,,,,,,,,4,Ontime,f,1,2.0811,3,2,14,0,1,,,,,
,0.69,,,,,,,,,g.PNG,g,60f5eba9476ad9bc1d4252e9,2021-10-19_15h45.43.376,forced_choiceRT,2021.1.2,Win32,60.0060006,,,,,,,,4,Ontime,g,1,2.0632,3,3,15,1,1,,,,,
,1.86,,,,,,,,,f.PNG,f,60f5eba9476ad9bc1d4252e9,2021-10-19_15h45.43.376,forced_choiceRT,2021.1.2,Win32,60.0060006,,,,,,,,4,Slow,f,1,2.589,4,0,16,0,1,,,,,
,0.99,,,,,,,,,h.PNG,h,60f5eba9476ad9bc1d4252e9,2021-10-19_15h45.43.376,forced_choiceRT,2021.1.2,Win32,60.0060006,,,,,,,,4,Ontime,h,1,2.0393,4,1,17,2,1,,,,,
,0.94,,,,,,,,,h.PNG,h,60f5eba9476ad9bc1d4252e9,2021-10-19_15h45.43.376,forced_choiceRT,2021.1.2,Win32,60.0060006,,,,,,,,4,Ontime,h,1,1.9471,4,2,18,2,1,,,,,
,1.65,,,,,,,,,j.PNG,j,60f5eba9476ad9bc1d4252e9,2021-10-19_15h45.43.376,forced_choiceRT,2021.1.2,Win32,60.0060006,,,,,,,,4,Slow,j,1,2.4002,4,3,19,3,1,,,,,
,0.45,,,,,,,,,f.PNG,f,60f5eba9476ad9bc1d4252e9,2021-10-19_15h45.43.376,forced_choiceRT,2021.1.2,Win32,60.0060006,,,,,,,,4,Ontime,g,0,2.0483,5,0,20,0,1,,,,,
,1.7,,,,,,,,,h.PNG,h,60f5eba9476ad9bc1d4252e9,2021-10-19_15h45.43.376,forced_choiceRT,2021.1.2,Win32,60.0060006,,,,,,,,4,Slow,f,0,2.2163,5,1,21,2,1,,,,,
,0.5,,,,,,,,,g.PNG,g,60f5eba9476ad9bc1d4252e9,2021-10-19_15h45.43.376,forced_choiceRT,2021.1.2,Win32,60.0060006,,,,,,,,4,Ontime,g,1,2.0511,5,2,22,1,1,,,,,
,1.17,,,,,,,,,h.PNG,h,60f5eba9476ad9bc1d4252e9,2021-10-19_15h45.43.376,forced_choiceRT,2021.1.2,Win32,60.0060006,,,,,,,,4,Fast,h,1,1.8969,5,3,23,2,1,,,,,
,0.63,,,,,,,,,f.PNG,f,60f5eba9476ad9bc1d4252e9,2021-10-19_15h45.43.376,forced_choiceRT,2021.1.2,Win32,60.0060006,,,,,,,,4,Ontime,f,1,2.0613,6,0,24,0,1,,,,,
,0.79,,,,,,,,,j.PNG,j,60f5eba9476ad9bc1d4252e9,2021-10-19_15h45.43.376,forced_choiceRT,2021.1.2,Win32,60.0060006,,,,,,,,4,Ontime,j,1,2.0261,6,1,25,3,1,,,,,
,1.66,,,,,,,,,j.PNG,j,60f5eba9476ad9bc1d4252e9,2021-10-19_15h45.43.376,forced_choiceRT,2021.1.2,Win32,60.0060006,,,,,,,,4,Slow,g,0,2.2155,6,2,26,3,1,,,,,
,0.57,,,,,,,,,h.PNG,h,60f5eba9476ad9bc1d4252e9,2021-10-19_15h45.43.376,forced_choiceRT,2021.1.2,Win32,60.0060006,,,,,,,,4,Ontime,h,1,2.0809,6,3,27,2,1,,,,,
,0.09,,,,,,,,,j.PNG,j,60f5eba9476ad9bc1d4252e9,2021-10-19_15h45.43.376,forced_choiceRT,2021.1.2,Win32,60.0060006,,,,,,,,4,Ontime,j,1,1.9661,7,0,28,3,1,,,,,
,0.43,,,,,,,,,h.PNG,h,60f5eba9476ad9bc1d4252e9,2021-10-19_15h45.43.376,forced_choiceRT,2021.1.2,Win32,60.0060006,,,,,,,,4,Ontime,h,1,2.0222,7,1,29,2,1,,,,,
,1.02,,,,,,,,,g.PNG,g,60f5eba9476ad9bc1d4252e9,2021-10-19_15h45.43.376,forced_choiceRT,2021.1.2,Win32,60.0060006,,,,,,,,4,Ontime,g,1,2.0835,7,2,30,1,1,,,,,
,1.08,,,,,,,,,f.PNG,f,60f5eba9476ad9bc1d4252e9,2021-10-19_15h45.43.376,forced_choiceRT,2021.1.2,Win32,60.0060006,,,,,,,,4,Ontime,f,1,1.9928,7,3,31,0,1,,,,,
,0.83,,,,,,,,,g.PNG,g,60f5eba9476ad9bc1d4252e9,2021-10-19_15h45.43.376,forced_choiceRT,2021.1.2,Win32,60.0060006,,,,,,,,4,Ontime,g,1,2.0394,8,0,32,1,1,,,,,
,0.16,,,,,,,,,j.PNG,j,60f5eba9476ad9bc1d4252e9,2021-10-19_15h45.43.376,forced_choiceRT,2021.1.2,Win32,60.0060006,,,,,,,,4,Ontime,j,1,2.0258,8,1,33,3,1,,,,,
,1.8,,,,,,,,,h.PNG,h,60f5eba9476ad9bc1d4252e9,2021-10-19_15h45.43.376,forced_choiceRT,2021.1.2,Win32,60.0060006,,,,,,,,4,Slow,h,1,2.2835,8,2,34,2,1,,,,,
,0.98,,,,,,,,,g.PNG,g,60f5eba9476ad9bc1d4252e9,2021-10-19_15h45.43.376,forced_choiceRT,2021.1.2,Win32,60.0060006,,,,,,,,4,Ontime,g,1,2.0836,8,3,35,1,1,,,,,
,0.5,,,,,,,,,h.PNG,h,60f5eba9476ad9bc1d4252e9,2021-10-19_15h45.43.376,forced_choiceRT,2021.1.2,Win32,60.0060006,,,,,,,,4,Ontime,h,1,2.0017,9,0,36,2,1,,,,,
,1.96,,,,,,,,,g.PNG,g,60f5eba9476ad9bc1d4252e9,2021-10-19_15h45.43.376,forced_choiceRT,2021.1.2,Win32,60.0060006,,,,,,,,4,Slow,g,1,3.1496,9,1,37,1,1,,,,,
,0.98,,,,,,,,,j.PNG,j,60f5eba9476ad9bc1d4252e9,2021-10-19_15h45.43.376,forced_choiceRT,2021.1.2,Win32,60.0060006,,,,,,,,4,Ontime,j,1,2.0348,9,2,38,3,1,,,,,
,0.87,,,,,,,,,j.PNG,j,60f5eba9476ad9bc1d4252e9,2021-10-19_15h45.43.376,forced_choiceRT,2021.1.2,Win32,60.0060006,,,,,,,,4,Ontime,j,1,2.0127,9,3,39,3,1,,,,,
,,,,,,,,,,,,60f5eba9476ad9bc1d4252e9,2021-10-19_15h45.43.376,forced_choiceRT,2021.1.2,Win32,60.0060006,,,,,,,,,,,,,,,,,,3,0,3,0,1
,1.7,,,,,,,,,f.PNG,f,60f5eba9476ad9bc1d4252e9,2021-10-19_15h45.43.376,forced_choiceRT,2021.1.2,Win32,60.0060006,,,,,,,,5,Slow,f,1,2.3002,0,0,0,0,1,,,,,
,0.36,,,,,,,,,f.PNG,f,60f5eba9476ad9bc1d4252e9,2021-10-19_15h45.43.376,forced_choiceRT,2021.1.2,Win32,60.0060006,,,,,,,,5,Ontime,f,1,1.9682,0,1,1,0,1,,,,,
,0.41,,,,,,,,,g.PNG,g,60f5eba9476ad9bc1d4252e9,2021-10-19_15h45.43.376,forced_choiceRT,2021.1.2,Win32,60.0060006,,,,,,,,5,Ontime,g,1,2.0265,0,2,2,1,1,,,,,
,1.01,,,,,,,,,f.PNG,f,60f5eba9476ad9bc1d4252e9,2021-10-19_15h45.43.376,forced_choiceRT,2021.1.2,Win32,60.0060006,,,,,,,,5,Ontime,f,1,2.0262,0,3,3,0,1,,,,,
,0.65,,,,,,,,,h.PNG,h,60f5eba9476ad9bc1d4252e9,2021-10-19_15h45.43.376,forced_choiceRT,2021.1.2,Win32,60.0060006,,,,,,,,5,Ontime,h,1,2.0171,1,0,4,2,1,,,,,
,0.84,,,,,,,,,h.PNG,h,60f5eba9476ad9bc1d4252e9,2021-10-19_15h45.43.376,forced_choiceRT,2021.1.2,Win32,60.0060006,,,,,,,,5,Ontime,h,1,2.0671,1,1,5,2,1,,,,,
,1.74,,,,,,,,,h.PNG,h,60f5eba9476ad9bc1d4252e9,2021-10-19_15h45.43.376,forced_choiceRT,2021.1.2,Win32,60.0060006,,,,,,,,5,Slow,h,1,2.3275,1,2,6,2,1,,,,,
,1.46,,,,,,,,,h.PNG,h,60f5eba9476ad9bc1d4252e9,2021-10-19_15h45.43.376,forced_choiceRT,2021.1.2,Win32,60.0060006,,,,,,,,5,Slow,h,1,2.1058,1,3,7,2,1,,,,,
,0.3,,,,,,,,,g.PNG,g,60f5eba9476ad9bc1d4252e9,2021-10-19_15h45.43.376,forced_choiceRT,2021.1.2,Win32,60.0060006,,,,,,,,5,Ontime,g,1,2.0247,2,0,8,1,1,,,,,
,1.6,,,,,,,,,h.PNG,h,60f5eba9476ad9bc1d4252e9,2021-10-19_15h45.43.376,forced_choiceRT,2021.1.2,Win32,60.0060006,,,,,,,,5,Slow,h,1,2.1517,2,1,9,2,1,,,,,
,1.54,,,,,,,,,j.PNG,j,60f5eba9476ad9bc1d4252e9,2021-10-19_15h45.43.376,forced_choiceRT,2021.1.2,Win32,60.0060006,,,,,,,,5,Ontime,h,0,1.9831,2,2,10,3,1,,,,,
,0.86,,,,,,,,,f.PNG,f,60f5eba9476ad9bc1d4252e9,2021-10-19_15h45.43.376,forced_choiceRT,2021.1.2,Win32,60.0060006,,,,,,,,5,Ontime,f,1,2.0171,2,3,11,0,1,,,,,
,0.65,,,,,,,,,g.PNG,g,60f5eba9476ad9bc1d4252e9,2021-10-19_15h45.43.376,forced_choiceRT,2021.1.2,Win32,60.0060006,,,,,,,,5,Ontime,g,1,1.967,3,0,12,1,1,,,,,
,0.9,,,,,,,,,j.PNG,j,60f5eba9476ad9bc1d4252e9,2021-10-19_15h45.43.376,forced_choiceRT,2021.1.2,Win32,60.0060006,,,,,,,,5,Ontime,j,1,1.9822,3,1,13,3,1,,,,,
,0.46,,,,,,,,,h.PNG,h,60f5eba9476ad9bc1d4252e9,2021-10-19_15h45.43.376,forced_choiceRT,2021.1.2,Win32,60.0060006,,,,,,,,5,Ontime,h,1,1.9836,3,2,14,2,1,,,,,
,0.83,,,,,,,,,j.PNG,j,60f5eba9476ad9bc1d4252e9,2021-10-19_15h45.43.376,forced_choiceRT,2021.1.2,Win32,60.0060006,,,,,,,,5,Ontime,j,1,1.9383,3,3,15,3,1,,,,,
,1.12,,,,,,,,,j.PNG,j,60f5eba9476ad9bc1d4252e9,2021-10-19_15h45.43.376,forced_choiceRT,2021.1.2,Win32,60.0060006,,,,,,,,5,Ontime,j,1,2.0333,4,0,16,3,1,,,,,
,1.87,,,,,,,,,j.PNG,j,60f5eba9476ad9bc1d4252e9,2021-10-19_15h45.43.376,forced_choiceRT,2021.1.2,Win32,60.0060006,,,,,,,,5,Slow,j,1,2.423,4,1,17,3,1,,,,,
,1.31,,,,,,,,,g.PNG,g,60f5eba9476ad9bc1d4252e9,2021-10-19_15h45.43.376,forced_choiceRT,2021.1.2,Win32,60.0060006,,,,,,,,5,Slow,g,1,2.1226,4,2,18,1,1,,,,,
,0.16,,,,,,,,,g.PNG,g,60f5eba9476ad9bc1d4252e9,2021-10-19_15h45.43.376,forced_choiceRT,2021.1.2,Win32,60.0060006,,,,,,,,5,Ontime,g,1,1.9167,4,3,19,1,1,,,,,
,1.01,,,,,,,,,h.PNG,h,60f5eba9476ad9bc1d4252e9,2021-10-19_15h45.43.376,forced_choiceRT,2021.1.2,Win32,60.0060006,,,,,,,,5,Ontime,h,1,2.0351,5,0,20,2,1,,,,,
,1.79,,,,,,,,,g.PNG,g,60f5eba9476ad9bc1d4252e9,2021-10-19_15h45.43.376,forced_choiceRT,2021.1.2,Win32,60.0060006,,,,,,,,5,Slow,f,0,2.1071,5,1,21,1,1,,,,,
,0.88,,,,,,,,,g.PNG,g,60f5eba9476ad9bc1d4252e9,2021-10-19_15h45.43.376,forced_choiceRT,2021.1.2,Win32,60.0060006,,,,,,,,5,Ontime,g,1,2.0169,5,2,22,1,1,,,,,
,1.06,,,,,,,,,f.PNG,f,60f5eba9476ad9bc1d4252e9,2021-10-19_15h45.43.376,forced_choiceRT,2021.1.2,Win32,60.0060006,,,,,,,,5,Ontime,f,1,2.0504,5,3,23,0,1,,,,,
,0.41,,,,,,,,,f.PNG,f,60f5eba9476ad9bc1d4252e9,2021-10-19_15h45.43.376,forced_choiceRT,2021.1.2,Win32,60.0060006,,,,,,,,5,Ontime,f,1,1.9335,6,0,24,0,1,,,,,
,1.57,,,,,,,,,g.PNG,g,60f5eba9476ad9bc1d4252e9,2021-10-19_15h45.43.376,forced_choiceRT,2021.1.2,Win32,60.0060006,,,,,,,,5,Ontime,g,1,2.0546,6,1,25,1,1,,,,,
,0.6,,,,,,,,,h.PNG,h,60f5eba9476ad9bc1d4252e9,2021-10-19_15h45.43.376,forced_choiceRT,2021.1.2,Win32,60.0060006,,,,,,,,5,Ontime,h,1,1.9472,6,2,26,2,1,,,,,
,1.6,,,,,,,,,j.PNG,j,60f5eba9476ad9bc1d4252e9,2021-10-19_15h45.43.376,forced_choiceRT,2021.1.2,Win32,60.0060006,,,,,,,,5,Ontime,j,1,2.0999,6,3,27,3,1,,,,,
,1.16,,,,,,,,,j.PNG,j,60f5eba9476ad9bc1d4252e9,2021-10-19_15h45.43.376,forced_choiceRT,2021.1.2,Win32,60.0060006,,,,,,,,5,Ontime,j,1,2.0501,7,0,28,3,1,,,,,
,1.18,,,,,,,,,f.PNG,f,60f5eba9476ad9bc1d4252e9,2021-10-19_15h45.43.376,forced_choiceRT,2021.1.2,Win32,60.0060006,,,,,,,,5,Fast,f,1,1.8837,7,1,29,0,1,,,,,
,1.7,,,,,,,,,h.PNG,h,60f5eba9476ad9bc1d4252e9,2021-10-19_15h45.43.376,forced_choiceRT,2021.1.2,Win32,60.0060006,,,,,,,,5,Slow,h,1,2.2751,7,2,30,2,1,,,,,
,0.48,,,,,,,,,f.PNG,f,60f5eba9476ad9bc1d4252e9,2021-10-19_15h45.43.376,forced_choiceRT,2021.1.2,Win32,60.0060006,,,,,,,,5,Ontime,f,1,1.9859,7,3,31,0,1,,,,,
,1.85,,,,,,,,,j.PNG,j,60f5eba9476ad9bc1d4252e9,2021-10-19_15h45.43.376,forced_choiceRT,2021.1.2,Win32,60.0060006,,,,,,,,5,Slow,j,1,2.3861,8,0,32,3,1,,,,,
,0.86,,,,,,,,,j.PNG,j,60f5eba9476ad9bc1d4252e9,2021-10-19_15h45.43.376,forced_choiceRT,2021.1.2,Win32,60.0060006,,,,,,,,5,Ontime,j,1,1.9904,8,1,33,3,1,,,,,
,1.39,,,,,,,,,g.PNG,g,60f5eba9476ad9bc1d4252e9,2021-10-19_15h45.43.376,forced_choiceRT,2021.1.2,Win32,60.0060006,,,,,,,,5,Ontime,g,1,1.9503,8,2,34,1,1,,,,,
,0.04,,,,,,,,,h.PNG,h,60f5eba9476ad9bc1d4252e9,2021-10-19_15h45.43.376,forced_choiceRT,2021.1.2,Win32,60.0060006,,,,,,,,5,Fast,h,1,1.854,8,3,35,2,1,,,,,
,1.77,,,,,,,,,g.PNG,g,60f5eba9476ad9bc1d4252e9,2021-10-19_15h45.43.376,forced_choiceRT,2021.1.2,Win32,60.0060006,,,,,,,,5,Slow,f,0,2.3001,9,0,36,1,1,,,,,
,1.88,,,,,,,,,j.PNG,j,60f5eba9476ad9bc1d4252e9,2021-10-19_15h45.43.376,forced_choiceRT,2021.1.2,Win32,60.0060006,,,,,,,,5,Slow,j,1,2.4503,9,1,37,3,1,,,,,
,0.78,,,,,,,,,f.PNG,f,60f5eba9476ad9bc1d4252e9,2021-10-19_15h45.43.376,forced_choiceRT,2021.1.2,Win32,60.0060006,,,,,,,,5,Ontime,f,1,2.0503,9,2,38,0,1,,,,,
,0.57,,,,,,,,,f.PNG,f,60f5eba9476ad9bc1d4252e9,2021-10-19_15h45.43.376,forced_choiceRT,2021.1.2,Win32,60.0060006,,,,,,,,5,Ontime,f,1,2.0502,9,3,39,0,1,,,,,
,,,,,,,,,,,,60f5eba9476ad9bc1d4252e9,2021-10-19_15h45.43.376,forced_choiceRT,2021.1.2,Win32,60.0060006,,,,,,,,,,,,,,,,,,4,0,4,0,1
,1.55,,,,,,,,,f.PNG,f,60f5eba9476ad9bc1d4252e9,2021-10-19_15h45.43.376,forced_choiceRT,2021.1.2,Win32,60.0060006,,,,,,,,6,Slow,f,1,2.1002,0,0,0,0,1,,,,,
,0.51,,,,,,,,,g.PNG,g,60f5eba9476ad9bc1d4252e9,2021-10-19_15h45.43.376,forced_choiceRT,2021.1.2,Win32,60.0060006,,,,,,,,6,Ontime,g,1,2.017,0,1,1,1,1,,,,,
,0.22,,,,,,,,,g.PNG,g,60f5eba9476ad9bc1d4252e9,2021-10-19_15h45.43.376,forced_choiceRT,2021.1.2,Win32,60.0060006,,,,,,,,6,Ontime,g,1,1.9529,0,2,2,1,1,,,,,
,1.13,,,,,,,,,j.PNG,j,60f5eba9476ad9bc1d4252e9,2021-10-19_15h45.43.376,forced_choiceRT,2021.1.2,Win32,60.0060006,,,,,,,,6,Ontime,j,1,2.0365,0,3,3,3,1,,,,,
,0.34,,,,,,,,,f.PNG,f,60f5eba9476ad9bc1d4252e9,2021-10-19_15h45.43.376,forced_choiceRT,2021.1.2,Win32,60.0060006,,,,,,,,6,Ontime,f,1,2.0101,1,0,4,0,1,,,,,
,1.99,,,,,,,,,j.PNG,j,60f5eba9476ad9bc1d4252e9,2021-10-19_15h45.43.376,forced_choiceRT,2021.1.2,Win32,60.0060006,,,,,,,,6,Slow,j,1,2.6073,1,1,5,3,1,,,,,
,1.16,,,,,,,,,j.PNG,j,60f5eba9476ad9bc1d4252e9,2021-10-19_15h45.43.376,forced_choiceRT,2021.1.2,Win32,60.0060006,,,,,,,,6,Ontime,j,1,2.0501,1,2,6,3,1,,,,,
,0.3,,,,,,,,,h.PNG,h,60f5eba9476ad9bc1d4252e9,2021-10-19_15h45.43.376,forced_choiceRT,2021.1.2,Win32,60.0060006,,,,,,,,6,Ontime,h,1,1.9671,1,3,7,2,1,,,,,
,0.58,,,,,,,,,g.PNG,g,60f5eba9476ad9bc1d4252e9,2021-10-19_15h45.43.376,forced_choiceRT,2021.1.2,Win32,60.0060006,,,,,,,,6,Ontime,g,1,1.9501,2,0,8,1,1,,,,,
,1.5,,,,,,,,,g.PNG,g,60f5eba9476ad9bc1d4252e9,2021-10-19_15h45.43.376,forced_choiceRT,2021.1.2,Win32,60.0060006,,,,,,,,6,Ontime,g,1,1.9677,2,1,9,1,1,,,,,
,1.15,,,,,,,,,f.PNG,f,60f5eba9476ad9bc1d4252e9,2021-10-19_15h45.43.376,forced_choiceRT,2021.1.2,Win32,60.0060006,,,,,,,,6,Ontime,f,1,1.9835,2,2,10,0,1,,,,,
,1.81,,,,,,,,,h.PNG,h,60f5eba9476ad9bc1d4252e9,2021-10-19_15h45.43.376,forced_choiceRT,2021.1.2,Win32,60.0060006,,,,,,,,6,Slow,h,1,2.2502,2,3,11,2,1,,,,,
,0.63,,,,,,,,,h.PNG,h,60f5eba9476ad9bc1d4252e9,2021-10-19_15h45.43.376,forced_choiceRT,2021.1.2,Win32,60.0060006,,,,,,,,6,Ontime,h,1,2.0357,3,0,12,2,1,,,,,
,0.15,,,,,,,,,j.PNG,j,60f5eba9476ad9bc1d4252e9,2021-10-19_15h45.43.376,forced_choiceRT,2021.1.2,Win32,60.0060006,,,,,,,,6,Ontime,j,1,1.9004,3,1,13,3,1,,,,,
,1.8,,,,,,,,,j.PNG,j,60f5eba9476ad9bc1d4252e9,2021-10-19_15h45.43.376,forced_choiceRT,2021.1.2,Win32,60.0060006,,,,,,,,6,Slow,h,0,2.1541,3,2,14,3,1,,,,,
,0.16,,,,,,,,,j.PNG,j,60f5eba9476ad9bc1d4252e9,2021-10-19_15h45.43.376,forced_choiceRT,2021.1.2,Win32,60.0060006,,,,,,,,6,Ontime,j,1,1.9333,3,3,15,3,1,,,,,
,0.77,,,,,,,,,h.PNG,h,60f5eba9476ad9bc1d4252e9,2021-10-19_15h45.43.376,forced_choiceRT,2021.1.2,Win32,60.0060006,,,,,,,,6,Ontime,h,1,1.9348,4,0,16,2,1,,,,,
,1.18,,,,,,,,,f.PNG,f,60f5eba9476ad9bc1d4252e9,2021-10-19_15h45.43.376,forced_choiceRT,2021.1.2,Win32,60.0060006,,,,,,,,6,Ontime,f,1,2.0003,4,1,17,0,1,,,,,
,0.4,,,,,,,,,j.PNG,j,60f5eba9476ad9bc1d4252e9,2021-10-19_15h45.43.376,forced_choiceRT,2021.1.2,Win32,60.0060006,,,,,,,,6,Ontime,j,1,1.9335,4,2,18,3,1,,,,,
,1.39,,,,,,,,,f.PNG,f,60f5eba9476ad9bc1d4252e9,2021-10-19_15h45.43.376,forced_choiceRT,2021.1.2,Win32,60.0060006,,,,,,,,6,Ontime,f,1,1.9907,4,3,19,0,1,,,,,
,1.09,,,,,,,,,g.PNG,g,60f5eba9476ad9bc1d4252e9,2021-10-19_15h45.43.376,forced_choiceRT,2021.1.2,Win32,60.0060006,,,,,,,,6,Ontime,g,1,1.9838,5,0,20,1,1,,,,,
,1.64,,,,,,,,,h.PNG,h,60f5eba9476ad9bc1d4252e9,2021-10-19_15h45.43.376,forced_choiceRT,2021.1.2,Win32,60.0060006,,,,,,,,6,Slow,h,1,2.1245,5,1,21,2,1,,,,,
,1.42,,,,,,,,,h.PNG,h,60f5eba9476ad9bc1d4252e9,2021-10-19_15h45.43.376,forced_choiceRT,2021.1.2,Win32,60.0060006,,,,,,,,6,Ontime,h,1,2.0545,5,2,22,2,1,,,,,
,0.82,,,,,,,,,f.PNG,f,60f5eba9476ad9bc1d4252e9,2021-10-19_15h45.43.376,forced_choiceRT,2021.1.2,Win32,60.0060006,,,,,,,,6,Ontime,f,1,1.9904,5,3,23,0,1,,,,,
,0.39,,,,,,,,,f.PNG,f,60f5eba9476ad9bc1d4252e9,2021-10-19_15h45.43.376,forced_choiceRT,2021.1.2,Win32,60.0060006,,,,,,,,6,Ontime,f,1,1.9834,6,0,24,0,1,,,,,
,1.38,,,,,,,,,g.PNG,g,60f5eba9476ad9bc1d4252e9,2021-10-19_15h45.43.376,forced_choiceRT,2021.1.2,Win32,60.0060006,,,,,,,,6,Ontime,g,1,1.9168,6,1,25,1,1,,,,,
,1.97,,,,,,,,,h.PNG,h,60f5eba9476ad9bc1d4252e9,2021-10-19_15h45.43.376,forced_choiceRT,2021.1.2,Win32,60.0060006,,,,,,,,6,Slow,h,1,2.7339,6,2,26,2,1,,,,,
,1.26,,,,,,,,,f.PNG,f,60f5eba9476ad9bc1d4252e9,2021-10-19_15h45.43.376,forced_choiceRT,2021.1.2,Win32,60.0060006,,,,,,,,6,Slow,g,0,2.1501,6,3,27,0,1,,,,,
,0.58,,,,,,,,,h.PNG,h,60f5eba9476ad9bc1d4252e9,2021-10-19_15h45.43.376,forced_choiceRT,2021.1.2,Win32,60.0060006,,,,,,,,6,Ontime,h,1,2.0232,7,0,28,2,1,,,,,
,0.98,,,,,,,,,g.PNG,g,60f5eba9476ad9bc1d4252e9,2021-10-19_15h45.43.376,forced_choiceRT,2021.1.2,Win32,60.0060006,,,,,,,,6,Ontime,g,1,2.0338,7,1,29,1,1,,,,,
,1.08,,,,,,,,,j.PNG,j,60f5eba9476ad9bc1d4252e9,2021-10-19_15h45.43.376,forced_choiceRT,2021.1.2,Win32,60.0060006,,,,,,,,6,Ontime,j,1,2.0171,7,2,30,3,1,,,,,
,0.51,,,,,,,,,j.PNG,j,60f5eba9476ad9bc1d4252e9,2021-10-19_15h45.43.376,forced_choiceRT,2021.1.2,Win32,60.0060006,,,,,,,,6,Ontime,j,1,2.0003,7,3,31,3,1,,,,,
,0.28,,,,,,,,,h.PNG,h,60f5eba9476ad9bc1d4252e9,2021-10-19_15h45.43.376,forced_choiceRT,2021.1.2,Win32,60.0060006,,,,,,,,6,Ontime,h,1,1.9836,8,0,32,2,1,,,,,
,0.28,,,,,,,,,g.PNG,g,60f5eba9476ad9bc1d4252e9,2021-10-19_15h45.43.376,forced_choiceRT,2021.1.2,Win32,60.0060006,,,,,,,,6,Ontime,g,1,1.9836,8,1,33,1,1,,,,,
,0.3,,,,,,,,,f.PNG,f,60f5eba9476ad9bc1d4252e9,2021-10-19_15h45.43.376,forced_choiceRT,2021.1.2,Win32,60.0060006,,,,,,,,6,Ontime,f,1,1.9334,8,2,34,0,1,,,,,
,0.06,,,,,,,,,f.PNG,f,60f5eba9476ad9bc1d4252e9,2021-10-19_15h45.43.376,forced_choiceRT,2021.1.2,Win32,60.0060006,,,,,,,,6,Ontime,f,1,1.9668,8,3,35,0,1,,,,,
,1.3,,,,,,,,,j.PNG,j,60f5eba9476ad9bc1d4252e9,2021-10-19_15h45.43.376,forced_choiceRT,2021.1.2,Win32,60.0060006,,,,,,,,6,Ontime,j,1,1.9504,9,0,36,3,1,,,,,
,0.89,,,,,,,,,g.PNG,g,60f5eba9476ad9bc1d4252e9,2021-10-19_15h45.43.376,forced_choiceRT,2021.1.2,Win32,60.0060006,,,,,,,,6,Slow,g,1,2.1001,9,1,37,1,1,,,,,
,1.43,,,,,,,,,h.PNG,h,60f5eba9476ad9bc1d4252e9,2021-10-19_15h45.43.376,forced_choiceRT,2021.1.2,Win32,60.0060006,,,,,,,,6,Ontime,h,1,2.0046,9,2,38,2,1,,,,,
,0.84,,,,,,,,,g.PNG,g,60f5eba9476ad9bc1d4252e9,2021-10-19_15h45.43.376,forced_choiceRT,2021.1.2,Win32,60.0060006,,,,,,,,6,Ontime,g,1,1.9668,9,3,39,1,1,,,,,
,,,,,,,,,,,,60f5eba9476ad9bc1d4252e9,2021-10-19_15h45.43.376,forced_choiceRT,2021.1.2,Win32,60.0060006,,,,,,,,,,,,,,,,,,5,0,5,0,1
,0.78,,,,,,,,,f.PNG,f,60f5eba9476ad9bc1d4252e9,2021-10-19_15h45.43.376,forced_choiceRT,2021.1.2,Win32,60.0060006,,,,,,,,7,Ontime,f,1,1.9834,0,0,0,0,1,,,,,
,0.72,,,,,,,,,f.PNG,f,60f5eba9476ad9bc1d4252e9,2021-10-19_15h45.43.376,forced_choiceRT,2021.1.2,Win32,60.0060006,,,,,,,,7,Ontime,f,1,2.0048,0,1,1,0,1,,,,,
,0.56,,,,,,,,,h.PNG,h,60f5eba9476ad9bc1d4252e9,2021-10-19_15h45.43.376,forced_choiceRT,2021.1.2,Win32,60.0060006,,,,,,,,7,Fast,h,1,1.8712,0,2,2,2,1,,,,,
,1.18,,,,,,,,,g.PNG,g,60f5eba9476ad9bc1d4252e9,2021-10-19_15h45.43.376,forced_choiceRT,2021.1.2,Win32,60.0060006,,,,,,,,7,Ontime,g,1,1.9669,0,3,3,1,1,,,,,
,0.57,,,,,,,,,j.PNG,j,60f5eba9476ad9bc1d4252e9,2021-10-19_15h45.43.376,forced_choiceRT,2021.1.2,Win32,60.0060006,,,,,,,,7,Ontime,j,1,1.9835,1,0,4,3,1,,,,,
,0.31,,,,,,,,,j.PNG,j,60f5eba9476ad9bc1d4252e9,2021-10-19_15h45.43.376,forced_choiceRT,2021.1.2,Win32,60.0060006,,,,,,,,7,Ontime,j,1,1.9836,1,1,5,3,1,,,,,
,1.87,,,,,,,,,g.PNG,g,60f5eba9476ad9bc1d4252e9,2021-10-19_15h45.43.376,forced_choiceRT,2021.1.2,Win32,60.0060006,,,,,,,,7,Slow,g,1,2.4168,1,2,6,1,1,,,,,
,0.84,,,,,,,,,f.PNG,f,60f5eba9476ad9bc1d4252e9,2021-10-19_15h45.43.376,forced_choiceRT,2021.1.2,Win32,60.0060006,,,,,,,,7,Slow,f,1,2.1003,1,3,7,0,1,,,,,
,0.72,,,,,,,,,j.PNG,j,60f5eba9476ad9bc1d4252e9,2021-10-19_15h45.43.376,forced_choiceRT,2021.1.2,Win32,60.0060006,,,,,,,,7,Ontime,j,1,1.9785,2,0,8,3,1,,,,,
,1.43,,,,,,,,,h.PNG,h,60f5eba9476ad9bc1d4252e9,2021-10-19_15h45.43.376,forced_choiceRT,2021.1.2,Win32,60.0060006,,,,,,,,7,Ontime,h,1,2.0239,2,1,9,2,1,,,,,
,1.45,,,,,,,,,h.PNG,h,60f5eba9476ad9bc1d4252e9,2021-10-19_15h45.43.376,forced_choiceRT,2021.1.2,Win32,60.0060006,,,,,,,,7,Fast,h,1,1.8837,2,2,10,2,1,,,,,
,0.67,,,,,,,,,f.PNG,f,60f5eba9476ad9bc1d4252e9,2021-10-19_15h45.43.376,forced_choiceRT,2021.1.2,Win32,60.0060006,,,,,,,,7,Ontime,g,0,2.0668,2,3,11,0,1,,,,,
,1.78,,,,,,,,,j.PNG,j,60f5eba9476ad9bc1d4252e9,2021-10-19_15h45.43.376,forced_choiceRT,2021.1.2,Win32,60.0060006,,,,,,,,7,Slow,j,1,2.4049,3,0,12,3,1,,,,,
,1.04,,,,,,,,,h.PNG,h,60f5eba9476ad9bc1d4252e9,2021-10-19_15h45.43.376,forced_choiceRT,2021.1.2,Win32,60.0060006,,,,,,,,7,Ontime,h,1,2.0029,3,1,13,2,1,,,,,
,0.98,,,,,,,,,j.PNG,j,60f5eba9476ad9bc1d4252e9,2021-10-19_15h45.43.376,forced_choiceRT,2021.1.2,Win32,60.0060006,,,,,,,,7,Ontime,j,1,2.0074,3,2,14,3,1,,,,,
,1.08,,,,,,,,,f.PNG,f,60f5eba9476ad9bc1d4252e9,2021-10-19_15h45.43.376,forced_choiceRT,2021.1.2,Win32,60.0060006,,,,,,,,7,Ontime,f,1,2.0502,3,3,15,0,1,,,,,
,1.5,,,,,,,,,j.PNG,j,60f5eba9476ad9bc1d4252e9,2021-10-19_15h45.43.376,forced_choiceRT,2021.1.2,Win32,60.0060006,,,,,,,,7,Ontime,j,1,2.017,4,0,16,3,1,,,,,
,1.69,,,,,,,,,h.PNG,h,60f5eba9476ad9bc1d4252e9,2021-10-19_15h45.43.376,forced_choiceRT,2021.1.2,Win32,60.0060006,,,,,,,,7,Ontime,h,1,2.0336,4,1,17,2,1,,,,,
,1.55,,,,,,,,,j.PNG,j,60f5eba9476ad9bc1d4252e9,2021-10-19_15h45.43.376,forced_choiceRT,2021.1.2,Win32,60.0060006,,,,,,,,7,Ontime,j,1,2.0371,4,2,18,3,1,,,,,
,1.45,,,,,,,,,j.PNG,j,60f5eba9476ad9bc1d4252e9,2021-10-19_15h45.43.376,forced_choiceRT,2021.1.2,Win32,60.0060006,,,,,,,,7,Ontime,j,1,1.9834,4,3,19,3,1,,,,,
,0.79,,,,,,,,,g.PNG,g,60f5eba9476ad9bc1d4252e9,2021-10-19_15h45.43.376,forced_choiceRT,2021.1.2,Win32,60.0060006,,,,,,,,7,Ontime,g,1,2.0019,5,0,20,1,1,,,,,
,0.68,,,,,,,,,g.PNG,g,60f5eba9476ad9bc1d4252e9,2021-10-19_15h45.43.376,forced_choiceRT,2021.1.2,Win32,60.0060006,,,,,,,,7,Ontime,g,1,1.9668,5,1,21,1,1,,,,,
,0.74,,,,,,,,,j.PNG,j,60f5eba9476ad9bc1d4252e9,2021-10-19_15h45.43.376,forced_choiceRT,2021.1.2,Win32,60.0060006,,,,,,,,7,Ontime,j,1,2.0073,5,2,22,3,1,,,,,
,0.43,,,,,,,,,h.PNG,h,60f5eba9476ad9bc1d4252e9,2021-10-19_15h45.43.376,forced_choiceRT,2021.1.2,Win32,60.0060006,,,,,,,,7,Ontime,h,1,2.0148,5,3,23,2,1,,,,,
,1.3,,,,,,,,,h.PNG,h,60f5eba9476ad9bc1d4252e9,2021-10-19_15h45.43.376,forced_choiceRT,2021.1.2,Win32,60.0060006,,,,,,,,7,Ontime,h,1,1.9669,6,0,24,2,1,,,,,
,0.58,,,,,,,,,f.PNG,f,60f5eba9476ad9bc1d4252e9,2021-10-19_15h45.43.376,forced_choiceRT,2021.1.2,Win32,60.0060006,,,,,,,,7,Ontime,f,1,2.0169,6,1,25,0,1,,,,,
,0.29,,,,,,,,,g.PNG,g,60f5eba9476ad9bc1d4252e9,2021-10-19_15h45.43.376,forced_choiceRT,2021.1.2,Win32,60.0060006,,,,,,,,7,Ontime,g,1,1.9512,6,2,26,1,1,,,,,
,1.44,,,,,,,,,f.PNG,f,60f5eba9476ad9bc1d4252e9,2021-10-19_15h45.43.376,forced_choiceRT,2021.1.2,Win32,60.0060006,,,,,,,,7,Slow,f,1,2.1001,6,3,27,0,1,,,,,
,1.37,,,,,,,,,f.PNG,f,60f5eba9476ad9bc1d4252e9,2021-10-19_15h45.43.376,forced_choiceRT,2021.1.2,Win32,60.0060006,,,,,,,,7,Ontime,f,1,2.0671,7,0,28,0,1,,,,,
,1.61,,,,,,,,,g.PNG,g,60f5eba9476ad9bc1d4252e9,2021-10-19_15h45.43.376,forced_choiceRT,2021.1.2,Win32,60.0060006,,,,,,,,7,Ontime,g,1,2.0502,7,1,29,1,1,,,,,
,1.18,,,,,,,,,g.PNG,g,60f5eba9476ad9bc1d4252e9,2021-10-19_15h45.43.376,forced_choiceRT,2021.1.2,Win32,60.0060006,,,,,,,,7,Ontime,g,1,2.0834,7,2,30,1,1,,,,,
,0.83,,,,,,,,,g.PNG,g,60f5eba9476ad9bc1d4252e9,2021-10-19_15h45.43.376,forced_choiceRT,2021.1.2,Win32,60.0060006,,,,,,,,7,Ontime,g,1,2.0169,7,3,31,1,1,,,,,
,0.97,,,,,,,,,h.PNG,h,60f5eba9476ad9bc1d4252e9,2021-10-19_15h45.43.376,forced_choiceRT,2021.1.2,Win32,60.0060006,,,,,,,,7,Ontime,h,1,1.9859,8,0,32,2,1,,,,,
,1.73,,,,,,,,,g.PNG,g,60f5eba9476ad9bc1d4252e9,2021-10-19_15h45.43.376,forced_choiceRT,2021.1.2,Win32,60.0060006,,,,,,,,7,Slow,g,1,2.2668,8,1,33,1,1,,,,,
,1.22,,,,,,,,,f.PNG,f,60f5eba9476ad9bc1d4252e9,2021-10-19_15h45.43.376,forced_choiceRT,2021.1.2,Win32,60.0060006,,,,,,,,7,Ontime,f,1,2.0669,8,2,34,0,1,,,,,
,0.63,,,,,,,,,f.PNG,f,60f5eba9476ad9bc1d4252e9,2021-10-19_15h45.43.376,forced_choiceRT,2021.1.2,Win32,60.0060006,,,,,,,,7,Ontime,f,1,2.0834,8,3,35,0,1,,,,,
,1.66,,,,,,,,,g.PNG,g,60f5eba9476ad9bc1d4252e9,2021-10-19_15h45.43.376,forced_choiceRT,2021.1.2,Win32,60.0060006,,,,,,,,7,Slow,g,1,2.1667,9,0,36,1,1,,,,,
,0.06,,,,,,,,,h.PNG,h,60f5eba9476ad9bc1d4252e9,2021-10-19_15h45.43.376,forced_choiceRT,2021.1.2,Win32,60.0060006,,,,,,,,7,Ontime,h,1,1.9337,9,1,37,2,1,,,,,
,0.45,,,,,,,,,j.PNG,j,60f5eba9476ad9bc1d4252e9,2021-10-19_15h45.43.376,forced_choiceRT,2021.1.2,Win32,60.0060006,,,,,,,,7,Fast,j,1,1.869,9,2,38,3,1,,,,,
,1.23,,,,,,,,,h.PNG,h,60f5eba9476ad9bc1d4252e9,2021-10-19_15h45.43.376,forced_choiceRT,2021.1.2,Win32,60.0060006,,,,,,,,7,Ontime,h,1,2.0503,9,3,39,2,1,,,,,
,,,,,,,,,,,,60f5eba9476ad9bc1d4252e9,2021-10-19_15h45.43.376,forced_choiceRT,2021.1.2,Win32,60.0060006,,,,,,,,,,,,,,,,,,6,0,6,0,1
,1.02,,,,,,,,,f.PNG,f,60f5eba9476ad9bc1d4252e9,2021-10-19_15h45.43.376,forced_choiceRT,2021.1.2,Win32,60.0060006,,,,,,,,8,Slow,f,1,2.1039,0,0,0,0,1,,,,,
,0.81,,,,,,,,,g.PNG,g,60f5eba9476ad9bc1d4252e9,2021-10-19_15h45.43.376,forced_choiceRT,2021.1.2,Win32,60.0060006,,,,,,,,8,Ontime,g,1,1.9405,0,1,1,1,1,,,,,
,0.53,,,,,,,,,g.PNG,g,60f5eba9476ad9bc1d4252e9,2021-10-19_15h45.43.376,forced_choiceRT,2021.1.2,Win32,60.0060006,,,,,,,,8,Fast,g,1,1.839,0,2,2,1,1,,,,,
,0.32,,,,,,,,,f.PNG,f,60f5eba9476ad9bc1d4252e9,2021-10-19_15h45.43.376,forced_choiceRT,2021.1.2,Win32,60.0060006,,,,,,,,8,Ontime,f,1,2.0116,0,3,3,0,1,,,,,
,0.25,,,,,,,,,g.PNG,g,60f5eba9476ad9bc1d4252e9,2021-10-19_15h45.43.376,forced_choiceRT,2021.1.2,Win32,60.0060006,,,,,,,,8,Ontime,g,1,1.9667,1,0,4,1,1,,,,,
,0.1,,,,,,,,,j.PNG,j,60f5eba9476ad9bc1d4252e9,2021-10-19_15h45.43.376,forced_choiceRT,2021.1.2,Win32,60.0060006,,,,,,,,8,Ontime,j,1,1.9705,1,1,5,3,1,,,,,
,0.1,,,,,,,,,f.PNG,f,60f5eba9476ad9bc1d4252e9,2021-10-19_15h45.43.376,forced_choiceRT,2021.1.2,Win32,60.0060006,,,,,,,,8,Ontime,f,1,1.9578,1,2,6,0,1,,,,,
,0.18,,,,,,,,,j.PNG,j,60f5eba9476ad9bc1d4252e9,2021-10-19_15h45.43.376,forced_choiceRT,2021.1.2,Win32,60.0060006,,,,,,,,8,Ontime,j,1,1.9168,1,3,7,3,1,,,,,
,1.99,,,,,,,,,h.PNG,h,60f5eba9476ad9bc1d4252e9,2021-10-19_15h45.43.376,forced_choiceRT,2021.1.2,Win32,60.0060006,,,,,,,,8,Slow,h,1,2.6045,2,0,8,2,1,,,,,
,1.04,,,,,,,,,h.PNG,h,60f5eba9476ad9bc1d4252e9,2021-10-19_15h45.43.376,forced_choiceRT,2021.1.2,Win32,60.0060006,,,,,,,,8,Ontime,h,1,2.0531,2,1,9,2,1,,,,,
,0.4,,,,,,,,,h.PNG,h,60f5eba9476ad9bc1d4252e9,2021-10-19_15h45.43.376,forced_choiceRT,2021.1.2,Win32,60.0060006,,,,,,,,8,Fast,h,1,1.8638,2,2,10,2,1,,,,,
,1.41,,,,,,,,,h.PNG,h,60f5eba9476ad9bc1d4252e9,2021-10-19_15h45.43.376,forced_choiceRT,2021.1.2,Win32,60.0060006,,,,,,,,8,Fast,h,1,1.7819,2,3,11,2,1,,,,,
,0.81,,,,,,,,,f.PNG,f,60f5eba9476ad9bc1d4252e9,2021-10-19_15h45.43.376,forced_choiceRT,2021.1.2,Win32,60.0060006,,,,,,,,8,Ontime,f,1,2.0446,3,0,12,0,1,,,,,
,0.02,,,,,,,,,g.PNG,g,60f5eba9476ad9bc1d4252e9,2021-10-19_15h45.43.376,forced_choiceRT,2021.1.2,Win32,60.0060006,,,,,,,,8,Ontime,g,1,2.0002,3,1,13,1,1,,,,,
,1.63,,,,,,,,,j.PNG,j,60f5eba9476ad9bc1d4252e9,2021-10-19_15h45.43.376,forced_choiceRT,2021.1.2,Win32,60.0060006,,,,,,,,8,Slow,j,1,2.1063,3,2,14,3,1,,,,,
,1,,,,,,,,,j.PNG,j,60f5eba9476ad9bc1d4252e9,2021-10-19_15h45.43.376,forced_choiceRT,2021.1.2,Win32,60.0060006,,,,,,,,8,Ontime,j,1,2.0048,3,3,15,3,1,,,,,
,1.93,,,,,,,,,h.PNG,h,60f5eba9476ad9bc1d4252e9,2021-10-19_15h45.43.376,forced_choiceRT,2021.1.2,Win32,60.0060006,,,,,,,,8,Slow,h,1,2.3001,4,0,16,2,1,,,,,
,1.38,,,,,,,,,g.PNG,g,60f5eba9476ad9bc1d4252e9,2021-10-19_15h45.43.376,forced_choiceRT,2021.1.2,Win32,60.0060006,,,,,,,,8,Slow,f,0,6.5297,4,1,17,1,1,,,,,
,0.33,,,,,,,,,f.PNG,f,60f5eba9476ad9bc1d4252e9,2021-10-19_15h45.43.376,forced_choiceRT,2021.1.2,Win32,60.0060006,,,,,,,,8,Ontime,f,1,1.9896,4,2,18,0,1,,,,,
,1.01,,,,,,,,,j.PNG,j,60f5eba9476ad9bc1d4252e9,2021-10-19_15h45.43.376,forced_choiceRT,2021.1.2,Win32,60.0060006,,,,,,,,8,Ontime,j,1,2.0377,4,3,19,3,1,,,,,
,1.8,,,,,,,,,h.PNG,h,60f5eba9476ad9bc1d4252e9,2021-10-19_15h45.43.376,forced_choiceRT,2021.1.2,Win32,60.0060006,,,,,,,,8,Slow,h,1,2.2647,5,0,20,2,1,,,,,
,0.85,,,,,,,,,g.PNG,g,60f5eba9476ad9bc1d4252e9,2021-10-19_15h45.43.376,forced_choiceRT,2021.1.2,Win32,60.0060006,,,,,,,,8,Ontime,g,1,1.9653,5,1,21,1,1,,,,,
,0.48,,,,,,,,,j.PNG,j,60f5eba9476ad9bc1d4252e9,2021-10-19_15h45.43.376,forced_choiceRT,2021.1.2,Win32,60.0060006,,,,,,,,8,Ontime,j,1,1.9588,5,2,22,3,1,,,,,
,1.57,,,,,,,,,j.PNG,j,60f5eba9476ad9bc1d4252e9,2021-10-19_15h45.43.376,forced_choiceRT,2021.1.2,Win32,60.0060006,,,,,,,,8,Ontime,j,1,2.0222,5,3,23,3,1,,,,,
,1.57,,,,,,,,,f.PNG,f,60f5eba9476ad9bc1d4252e9,2021-10-19_15h45.43.376,forced_choiceRT,2021.1.2,Win32,60.0060006,,,,,,,,8,Ontime,g,0,2.074,6,0,24,0,1,,,,,
,1.27,,,,,,,,,j.PNG,j,60f5eba9476ad9bc1d4252e9,2021-10-19_15h45.43.376,forced_choiceRT,2021.1.2,Win32,60.0060006,,,,,,,,8,Ontime,j,1,2.051,6,1,25,3,1,,,,,
,1.95,,,,,,,,,h.PNG,h,60f5eba9476ad9bc1d4252e9,2021-10-19_15h45.43.376,forced_choiceRT,2021.1.2,Win32,60.0060006,,,,,,,,8,Slow,h,1,2.3402,6,2,26,2,1,,,,,
,0.95,,,,,,,,,f.PNG,f,60f5eba9476ad9bc1d4252e9,2021-10-19_15h45.43.376,forced_choiceRT,2021.1.2,Win32,60.0060006,,,,,,,,8,Ontime,f,1,2.0383,6,3,27,0,1,,,,,
,0.5,,,,,,,,,g.PNG,g,60f5eba9476ad9bc1d4252e9,2021-10-19_15h45.43.376,forced_choiceRT,2021.1.2,Win32,60.0060006,,,,,,,,8,Ontime,g,1,1.967,7,0,28,1,1,,,,,
,0.64,,,,,,,,,g.PNG,g,60f5eba9476ad9bc1d4252e9,2021-10-19_15h45.43.376,forced_choiceRT,2021.1.2,Win32,60.0060006,,,,,,,,8,Ontime,g,1,2.019,7,1,29,1,1,,,,,
,1.17,,,,,,,,,f.PNG,f,60f5eba9476ad9bc1d4252e9,2021-10-19_15h45.43.376,forced_choiceRT,2021.1.2,Win32,60.0060006,,,,,,,,8,Slow,f,1,2.1216,7,2,30,0,1,,,,,
,0.71,,,,,,,,,h.PNG,h,60f5eba9476ad9bc1d4252e9,2021-10-19_15h45.43.376,forced_choiceRT,2021.1.2,Win32,60.0060006,,,,,,,,8,Ontime,h,1,2.0398,7,3,31,2,1,,,,,
,1.32,,,,,,,,,g.PNG,g,60f5eba9476ad9bc1d4252e9,2021-10-19_15h45.43.376,forced_choiceRT,2021.1.2,Win32,60.0060006,,,,,,,,8,Ontime,g,1,2.0724,8,0,32,1,1,,,,,
,1.54,,,,,,,,,h.PNG,h,60f5eba9476ad9bc1d4252e9,2021-10-19_15h45.43.376,forced_choiceRT,2021.1.2,Win32,60.0060006,,,,,,,,8,Ontime,j,0,2.0845,8,1,33,2,1,,,,,
,0.63,,,,,,,,,g.PNG,g,60f5eba9476ad9bc1d4252e9,2021-10-19_15h45.43.376,forced_choiceRT,2021.1.2,Win32,60.0060006,,,,,,,,8,Ontime,g,1,1.9905,8,2,34,1,1,,,,,
,1.5,,,,,,,,,j.PNG,j,60f5eba9476ad9bc1d4252e9,2021-10-19_15h45.43.376,forced_choiceRT,2021.1.2,Win32,60.0060006,,,,,,,,8,Ontime,j,1,2.0169,8,3,35,3,1,,,,,
,0.75,,,,,,,,,f.PNG,f,60f5eba9476ad9bc1d4252e9,2021-10-19_15h45.43.376,forced_choiceRT,2021.1.2,Win32,60.0060006,,,,,,,,8,Ontime,f,1,2.0011,9,0,36,0,1,,,,,
,1.32,,,,,,,,,j.PNG,j,60f5eba9476ad9bc1d4252e9,2021-10-19_15h45.43.376,forced_choiceRT,2021.1.2,Win32,60.0060006,,,,,,,,8,Ontime,j,1,1.9339,9,1,37,3,1,,,,,
,0.44,,,,,,,,,f.PNG,f,60f5eba9476ad9bc1d4252e9,2021-10-19_15h45.43.376,forced_choiceRT,2021.1.2,Win32,60.0060006,,,,,,,,8,Ontime,f,1,2.0336,9,2,38,0,1,,,,,
,1.86,,,,,,,,,h.PNG,h,60f5eba9476ad9bc1d4252e9,2021-10-19_15h45.43.376,forced_choiceRT,2021.1.2,Win32,60.0060006,,,,,,,,8,Slow,h,1,2.2503,9,3,39,2,1,,,,,
,,,,,,,,,,,,60f5eba9476ad9bc1d4252e9,2021-10-19_15h45.43.376,forced_choiceRT,2021.1.2,Win32,60.0060006,,,,,,,,,,,,,,,,,,7,0,7,0,1
,0.87,,,,,,,,,g.PNG,g,60f5eba9476ad9bc1d4252e9,2021-10-19_15h45.43.376,forced_choiceRT,2021.1.2,Win32,60.0060006,,,,,,,,9,Ontime,f,0,2.0171,0,0,0,1,1,,,,,
,1.29,,,,,,,,,f.PNG,f,60f5eba9476ad9bc1d4252e9,2021-10-19_15h45.43.376,forced_choiceRT,2021.1.2,Win32,60.0060006,,,,,,,,9,Ontime,f,1,2.0169,0,1,1,0,1,,,,,
,1.61,,,,,,,,,g.PNG,g,60f5eba9476ad9bc1d4252e9,2021-10-19_15h45.43.376,forced_choiceRT,2021.1.2,Win32,60.0060006,,,,,,,,9,Ontime,g,1,2.0668,0,2,2,1,1,,,,,
,1.76,,,,,,,,,f.PNG,f,60f5eba9476ad9bc1d4252e9,2021-10-19_15h45.43.376,forced_choiceRT,2021.1.2,Win32,60.0060006,,,,,,,,9,Slow,h,0,2.2234,0,3,3,0,1,,,,,
,0.37,,,,,,,,,j.PNG,j,60f5eba9476ad9bc1d4252e9,2021-10-19_15h45.43.376,forced_choiceRT,2021.1.2,Win32,60.0060006,,,,,,,,9,Ontime,j,1,2.0172,1,0,4,3,1,,,,,
,0.52,,,,,,,,,h.PNG,h,60f5eba9476ad9bc1d4252e9,2021-10-19_15h45.43.376,forced_choiceRT,2021.1.2,Win32,60.0060006,,,,,,,,9,Ontime,h,1,2.0102,1,1,5,2,1,,,,,
,0.68,,,,,,,,,f.PNG,f,60f5eba9476ad9bc1d4252e9,2021-10-19_15h45.43.376,forced_choiceRT,2021.1.2,Win32,60.0060006,,,,,,,,9,Ontime,f,1,1.9669,1,2,6,0,1,,,,,
,0.04,,,,,,,,,g.PNG,g,60f5eba9476ad9bc1d4252e9,2021-10-19_15h45.43.376,forced_choiceRT,2021.1.2,Win32,60.0060006,,,,,,,,9,Ontime,g,1,1.9239,1,3,7,1,1,,,,,
,1.76,,,,,,,,,f.PNG,f,60f5eba9476ad9bc1d4252e9,2021-10-19_15h45.43.376,forced_choiceRT,2021.1.2,Win32,60.0060006,,,,,,,,9,Ontime,h,0,1.9059,2,0,8,0,1,,,,,
,0.61,,,,,,,,,g.PNG,g,60f5eba9476ad9bc1d4252e9,2021-10-19_15h45.43.376,forced_choiceRT,2021.1.2,Win32,60.0060006,,,,,,,,9,Ontime,g,1,2.0002,2,1,9,1,1,,,,,
,1.5,,,,,,,,,f.PNG,f,60f5eba9476ad9bc1d4252e9,2021-10-19_15h45.43.376,forced_choiceRT,2021.1.2,Win32,60.0060006,,,,,,,,9,Ontime,f,1,2.0048,2,2,10,0,1,,,,,
,1.32,,,,,,,,,j.PNG,j,60f5eba9476ad9bc1d4252e9,2021-10-19_15h45.43.376,forced_choiceRT,2021.1.2,Win32,60.0060006,,,,,,,,9,Ontime,j,1,1.9005,2,3,11,3,1,,,,,
,1.67,,,,,,,,,h.PNG,h,60f5eba9476ad9bc1d4252e9,2021-10-19_15h45.43.376,forced_choiceRT,2021.1.2,Win32,60.0060006,,,,,,,,9,Ontime,h,1,2.0503,3,0,12,2,1,,,,,
,1.29,,,,,,,,,h.PNG,h,60f5eba9476ad9bc1d4252e9,2021-10-19_15h45.43.376,forced_choiceRT,2021.1.2,Win32,60.0060006,,,,,,,,9,Ontime,h,1,2,3,1,13,2,1,,,,,
,0.45,,,,,,,,,h.PNG,h,60f5eba9476ad9bc1d4252e9,2021-10-19_15h45.43.376,forced_choiceRT,2021.1.2,Win32,60.0060006,,,,,,,,9,Ontime,h,1,1.9342,3,2,14,2,1,,,,,
,1.35,,,,,,,,,g.PNG,g,60f5eba9476ad9bc1d4252e9,2021-10-19_15h45.43.376,forced_choiceRT,2021.1.2,Win32,60.0060006,,,,,,,,9,Ontime,f,0,1.9234,3,3,15,1,1,,,,,
,0.17,,,,,,,,,h.PNG,h,60f5eba9476ad9bc1d4252e9,2021-10-19_15h45.43.376,forced_choiceRT,2021.1.2,Win32,60.0060006,,,,,,,,9,Ontime,h,1,1.9679,4,0,16,2,1,,,,,
,1.38,,,,,,,,,j.PNG,j,60f5eba9476ad9bc1d4252e9,2021-10-19_15h45.43.376,forced_choiceRT,2021.1.2,Win32,60.0060006,,,,,,,,9,Ontime,j,1,2.0695,4,1,17,3,1,,,,,
,1.13,,,,,,,,,j.PNG,j,60f5eba9476ad9bc1d4252e9,2021-10-19_15h45.43.376,forced_choiceRT,2021.1.2,Win32,60.0060006,,,,,,,,9,Ontime,j,1,2.0003,4,2,18,3,1,,,,,
,1.35,,,,,,,,,g.PNG,g,60f5eba9476ad9bc1d4252e9,2021-10-19_15h45.43.376,forced_choiceRT,2021.1.2,Win32,60.0060006,,,,,,,,9,Ontime,g,1,1.9553,4,3,19,1,1,,,,,
,0.16,,,,,,,,,j.PNG,j,60f5eba9476ad9bc1d4252e9,2021-10-19_15h45.43.376,forced_choiceRT,2021.1.2,Win32,60.0060006,,,,,,,,9,Ontime,j,1,2.007,5,0,20,3,1,,,,,
,1.31,,,,,,,,,g.PNG,g,60f5eba9476ad9bc1d4252e9,2021-10-19_15h45.43.376,forced_choiceRT,2021.1.2,Win32,60.0060006,,,,,,,,9,Ontime,g,1,2.0001,5,1,21,1,1,,,,,
,0.56,,,,,,,,,j.PNG,j,60f5eba9476ad9bc1d4252e9,2021-10-19_15h45.43.376,forced_choiceRT,2021.1.2,Win32,60.0060006,,,,,,,,9,Ontime,j,1,2.0043,5,2,22,3,1,,,,,
,0.87,,,,,,,,,f.PNG,f,60f5eba9476ad9bc1d4252e9,2021-10-19_15h45.43.376,forced_choiceRT,2021.1.2,Win32,60.0060006,,,,,,,,9,Ontime,f,1,1.9409,5,3,23,0,1,,,,,
,0.59,,,,,,,,,f.PNG,f,60f5eba9476ad9bc1d4252e9,2021-10-19_15h45.43.376,forced_choiceRT,2021.1.2,Win32,60.0060006,,,,,,,,9,Ontime,f,1,2.0334,6,0,24,0,1,,,,,
,0.43,,,,,,,,,j.PNG,j,60f5eba9476ad9bc1d4252e9,2021-10-19_15h45.43.376,forced_choiceRT,2021.1.2,Win32,60.0060006,,,,,,,,9,Ontime,j,1,1.9861,6,1,25,3,1,,,,,
,0.37,,,,,,,,,f.PNG,f,60f5eba9476ad9bc1d4252e9,2021-10-19_15h45.43.376,forced_choiceRT,2021.1.2,Win32,60.0060006,,,,,,,,9,Ontime,f,1,2.0053,6,2,26,0,1,,,,,
,1.24,,,,,,,,,j.PNG,j,60f5eba9476ad9bc1d4252e9,2021-10-19_15h45.43.376,forced_choiceRT,2021.1.2,Win32,60.0060006,,,,,,,,9,Ontime,j,1,2.0167,6,3,27,3,1,,,,,
,1.39,,,,,,,,,h.PNG,h,60f5eba9476ad9bc1d4252e9,2021-10-19_15h45.43.376,forced_choiceRT,2021.1.2,Win32,60.0060006,,,,,,,,9,Ontime,h,1,2,7,0,28,2,1,,,,,
,0.82,,,,,,,,,g.PNG,g,60f5eba9476ad9bc1d4252e9,2021-10-19_15h45.43.376,forced_choiceRT,2021.1.2,Win32,60.0060006,,,,,,,,9,Ontime,g,1,2.0207,7,1,29,1,1,,,,,
,1.53,,,,,,,,,h.PNG,h,60f5eba9476ad9bc1d4252e9,2021-10-19_15h45.43.376,forced_choiceRT,2021.1.2,Win32,60.0060006,,,,,,,,9,Ontime,h,1,1.9503,7,2,30,2,1,,,,,
,1.6,,,,,,,,,j.PNG,j,60f5eba9476ad9bc1d4252e9,2021-10-19_15h45.43.376,forced_choiceRT,2021.1.2,Win32,60.0060006,,,,,,,,9,Slow,f,0,2.1168,7,3,31,3,1,,,,,
,1.53,,,,,,,,,g.PNG,g,60f5eba9476ad9bc1d4252e9,2021-10-19_15h45.43.376,forced_choiceRT,2021.1.2,Win32,60.0060006,,,,,,,,9,Ontime,h,0,2.0001,8,0,32,1,1,,,,,
,1.02,,,,,,,,,h.PNG,h,60f5eba9476ad9bc1d4252e9,2021-10-19_15h45.43.376,forced_choiceRT,2021.1.2,Win32,60.0060006,,,,,,,,9,Ontime,h,1,1.9501,8,1,33,2,1,,,,,
,0.39,,,,,,,,,j.PNG,j,60f5eba9476ad9bc1d4252e9,2021-10-19_15h45.43.376,forced_choiceRT,2021.1.2,Win32,60.0060006,,,,,,,,9,Ontime,j,1,2.0004,8,2,34,3,1,,,,,
,1.63,,,,,,,,,f.PNG,f,60f5eba9476ad9bc1d4252e9,2021-10-19_15h45.43.376,forced_choiceRT,2021.1.2,Win32,60.0060006,,,,,,,,9,Slow,f,1,2.165,8,3,35,0,1,,,,,
,0.52,,,,,,,,,h.PNG,h,60f5eba9476ad9bc1d4252e9,2021-10-19_15h45.43.376,forced_choiceRT,2021.1.2,Win32,60.0060006,,,,,,,,9,Ontime,h,1,2.017,9,0,36,2,1,,,,,
,0.37,,,,,,,,,h.PNG,h,60f5eba9476ad9bc1d4252e9,2021-10-19_15h45.43.376,forced_choiceRT,2021.1.2,Win32,60.0060006,,,,,,,,9,Ontime,h,1,2.0171,9,1,37,2,1,,,,,
,0.18,,,,,,,,,f.PNG,f,60f5eba9476ad9bc1d4252e9,2021-10-19_15h45.43.376,forced_choiceRT,2021.1.2,Win32,60.0060006,,,,,,,,9,Ontime,f,1,1.9692,9,2,38,0,1,,,,,
,0.1,,,,,,,,,g.PNG,g,60f5eba9476ad9bc1d4252e9,2021-10-19_15h45.43.376,forced_choiceRT,2021.1.2,Win32,60.0060006,,,,,,,,9,Ontime,g,1,1.987,9,3,39,1,1,,,,,
,,,,,,,,,,,,60f5eba9476ad9bc1d4252e9,2021-10-19_15h45.43.376,forced_choiceRT,2021.1.2,Win32,60.0060006,,,,,,,,,,,,,,,,,,8,0,8,0,1
,1.19,,,,,,,,,h.PNG,h,60f5eba9476ad9bc1d4252e9,2021-10-19_15h45.43.376,forced_choiceRT,2021.1.2,Win32,60.0060006,,,,,,,,10,Ontime,h,1,2.0669,0,0,0,2,1,,,,,
,1.75,,,,,,,,,g.PNG,g,60f5eba9476ad9bc1d4252e9,2021-10-19_15h45.43.376,forced_choiceRT,2021.1.2,Win32,60.0060006,,,,,,,,10,Slow,g,1,2.5835,0,1,1,1,1,,,,,
,1.85,,,,,,,,,f.PNG,f,60f5eba9476ad9bc1d4252e9,2021-10-19_15h45.43.376,forced_choiceRT,2021.1.2,Win32,60.0060006,,,,,,,,10,Slow,h,0,2.2502,0,2,2,0,1,,,,,
,0.93,,,,,,,,,g.PNG,g,60f5eba9476ad9bc1d4252e9,2021-10-19_15h45.43.376,forced_choiceRT,2021.1.2,Win32,60.0060006,,,,,,,,10,Ontime,g,1,2.0333,0,3,3,1,1,,,,,
,0.43,,,,,,,,,g.PNG,g,60f5eba9476ad9bc1d4252e9,2021-10-19_15h45.43.376,forced_choiceRT,2021.1.2,Win32,60.0060006,,,,,,,,10,Ontime,g,1,1.9583,1,0,4,1,1,,,,,
,1.76,,,,,,,,,j.PNG,j,60f5eba9476ad9bc1d4252e9,2021-10-19_15h45.43.376,forced_choiceRT,2021.1.2,Win32,60.0060006,,,,,,,,10,Slow,j,1,2.4539,1,1,5,3,1,,,,,
,0.92,,,,,,,,,f.PNG,f,60f5eba9476ad9bc1d4252e9,2021-10-19_15h45.43.376,forced_choiceRT,2021.1.2,Win32,60.0060006,,,,,,,,10,Ontime,f,1,2.0671,1,2,6,0,1,,,,,
,1.46,,,,,,,,,h.PNG,h,60f5eba9476ad9bc1d4252e9,2021-10-19_15h45.43.376,forced_choiceRT,2021.1.2,Win32,60.0060006,,,,,,,,10,Fast,h,1,1.8837,1,3,7,2,1,,,,,
,0.46,,,,,,,,,f.PNG,f,60f5eba9476ad9bc1d4252e9,2021-10-19_15h45.43.376,forced_choiceRT,2021.1.2,Win32,60.0060006,,,,,,,,10,Ontime,f,1,1.9705,2,0,8,0,1,,,,,
,1.46,,,,,,,,,f.PNG,f,60f5eba9476ad9bc1d4252e9,2021-10-19_15h45.43.376,forced_choiceRT,2021.1.2,Win32,60.0060006,,,,,,,,10,Ontime,j,0,1.9616,2,1,9,0,1,,,,,
,1.77,,,,,,,,,j.PNG,j,60f5eba9476ad9bc1d4252e9,2021-10-19_15h45.43.376,forced_choiceRT,2021.1.2,Win32,60.0060006,,,,,,,,10,Slow,f,0,2.2335,2,2,10,3,1,,,,,
,1.08,,,,,,,,,g.PNG,g,60f5eba9476ad9bc1d4252e9,2021-10-19_15h45.43.376,forced_choiceRT,2021.1.2,Win32,60.0060006,,,,,,,,10,Ontime,g,1,2.0501,2,3,11,1,1,,,,,
,1.6,,,,,,,,,h.PNG,h,60f5eba9476ad9bc1d4252e9,2021-10-19_15h45.43.376,forced_choiceRT,2021.1.2,Win32,60.0060006,,,,,,,,10,Ontime,h,1,2.0669,3,0,12,2,1,,,,,
,0.85,,,,,,,,,h.PNG,h,60f5eba9476ad9bc1d4252e9,2021-10-19_15h45.43.376,forced_choiceRT,2021.1.2,Win32,60.0060006,,,,,,,,10,Ontime,h,1,1.9835,3,1,13,2,1,,,,,
,0.66,,,,,,,,,h.PNG,h,60f5eba9476ad9bc1d4252e9,2021-10-19_15h45.43.376,forced_choiceRT,2021.1.2,Win32,60.0060006,,,,,,,,10,Ontime,h,1,1.9882,3,2,14,2,1,,,,,
,1.62,,,,,,,,,j.PNG,j,60f5eba9476ad9bc1d4252e9,2021-10-19_15h45.43.376,forced_choiceRT,2021.1.2,Win32,60.0060006,,,,,,,,10,Ontime,j,1,1.9855,3,3,15,3,1,,,,,
,1.93,,,,,,,,,j.PNG,j,60f5eba9476ad9bc1d4252e9,2021-10-19_15h45.43.376,forced_choiceRT,2021.1.2,Win32,60.0060006,,,,,,,,10,Slow,j,1,2.57,4,0,16,3,1,,,,,
,1.51,,,,,,,,,j.PNG,j,60f5eba9476ad9bc1d4252e9,2021-10-19_15h45.43.376,forced_choiceRT,2021.1.2,Win32,60.0060006,,,,,,,,10,Ontime,j,1,1.9843,4,1,17,3,1,,,,,
,0.68,,,,,,,,,h.PNG,h,60f5eba9476ad9bc1d4252e9,2021-10-19_15h45.43.376,forced_choiceRT,2021.1.2,Win32,60.0060006,,,,,,,,10,Ontime,h,1,1.9745,4,2,18,2,1,,,,,
,0.56,,,,,,,,,h.PNG,h,60f5eba9476ad9bc1d4252e9,2021-10-19_15h45.43.376,forced_choiceRT,2021.1.2,Win32,60.0060006,,,,,,,,10,Ontime,h,1,2.0336,4,3,19,2,1,,,,,
,0.03,,,,,,,,,g.PNG,g,60f5eba9476ad9bc1d4252e9,2021-10-19_15h45.43.376,forced_choiceRT,2021.1.2,Win32,60.0060006,,,,,,,,10,Ontime,g,1,2.0209,5,0,20,1,1,,,,,
,1.38,,,,,,,,,j.PNG,j,60f5eba9476ad9bc1d4252e9,2021-10-19_15h45.43.376,forced_choiceRT,2021.1.2,Win32,60.0060006,,,,,,,,10,Ontime,j,1,2.0189,5,1,21,3,1,,,,,
,1.27,,,,,,,,,g.PNG,g,60f5eba9476ad9bc1d4252e9,2021-10-19_15h45.43.376,forced_choiceRT,2021.1.2,Win32,60.0060006,,,,,,,,10,Ontime,g,1,1.9553,5,2,22,1,1,,,,,
,0.49,,,,,,,,,j.PNG,j,60f5eba9476ad9bc1d4252e9,2021-10-19_15h45.43.376,forced_choiceRT,2021.1.2,Win32,60.0060006,,,,,,,,10,Ontime,j,1,1.9833,5,3,23,3,1,,,,,
,0.82,,,,,,,,,f.PNG,f,60f5eba9476ad9bc1d4252e9,2021-10-19_15h45.43.376,forced_choiceRT,2021.1.2,Win32,60.0060006,,,,,,,,10,Ontime,f,1,1.9832,6,0,24,0,1,,,,,
,1.69,,,,,,,,,h.PNG,h,60f5eba9476ad9bc1d4252e9,2021-10-19_15h45.43.376,forced_choiceRT,2021.1.2,Win32,60.0060006,,,,,,,,10,Slow,h,1,2.1668,6,1,25,2,1,,,,,
,1.1,,,,,,,,,j.PNG,j,60f5eba9476ad9bc1d4252e9,2021-10-19_15h45.43.376,forced_choiceRT,2021.1.2,Win32,60.0060006,,,,,,,,10,Slow,j,1,2.1002,6,2,26,3,1,,,,,
,0.63,,,,,,,,,f.PNG,f,60f5eba9476ad9bc1d4252e9,2021-10-19_15h45.43.376,forced_choiceRT,2021.1.2,Win32,60.0060006,,,,,,,,10,Ontime,f,1,2.0069,6,3,27,0,1,,,,,
,1.51,,,,,,,,,g.PNG,g,60f5eba9476ad9bc1d4252e9,2021-10-19_15h45.43.376,forced_choiceRT,2021.1.2,Win32,60.0060006,,,,,,,,10,Ontime,f,0,2.0208,7,0,28,1,1,,,,,
,0.44,,,,,,,,,f.PNG,f,60f5eba9476ad9bc1d4252e9,2021-10-19_15h45.43.376,forced_choiceRT,2021.1.2,Win32,60.0060006,,,,,,,,10,Ontime,f,1,2.0003,7,1,29,0,1,,,,,
,1.54,,,,,,,,,g.PNG,g,60f5eba9476ad9bc1d4252e9,2021-10-19_15h45.43.376,forced_choiceRT,2021.1.2,Win32,60.0060006,,,,,,,,10,Ontime,g,1,2.0504,7,2,30,1,1,,,,,
,1.81,,,,,,,,,j.PNG,j,60f5eba9476ad9bc1d4252e9,2021-10-19_15h45.43.376,forced_choiceRT,2021.1.2,Win32,60.0060006,,,,,,,,10,Slow,f,0,2.3003,7,3,31,3,1,,,,,
,1.44,,,,,,,,,h.PNG,h,60f5eba9476ad9bc1d4252e9,2021-10-19_15h45.43.376,forced_choiceRT,2021.1.2,Win32,60.0060006,,,,,,,,10,Ontime,h,1,2.0249,8,0,32,2,1,,,,,
,1.8,,,,,,,,,h.PNG,h,60f5eba9476ad9bc1d4252e9,2021-10-19_15h45.43.376,forced_choiceRT,2021.1.2,Win32,60.0060006,,,,,,,,10,Slow,g,0,2.2333,8,1,33,2,1,,,,,
,1.44,,,,,,,,,g.PNG,g,60f5eba9476ad9bc1d4252e9,2021-10-19_15h45.43.376,forced_choiceRT,2021.1.2,Win32,60.0060006,,,,,,,,10,Ontime,g,1,2.0335,8,2,34,1,1,,,,,
,0.94,,,,,,,,,g.PNG,g,60f5eba9476ad9bc1d4252e9,2021-10-19_15h45.43.376,forced_choiceRT,2021.1.2,Win32,60.0060006,,,,,,,,10,Ontime,g,1,2.0176,8,3,35,1,1,,,,,
,1.54,,,,,,,,,j.PNG,j,60f5eba9476ad9bc1d4252e9,2021-10-19_15h45.43.376,forced_choiceRT,2021.1.2,Win32,60.0060006,,,,,,,,10,Ontime,j,1,2.0505,9,0,36,3,1,,,,,
,0.71,,,,,,,,,f.PNG,f,60f5eba9476ad9bc1d4252e9,2021-10-19_15h45.43.376,forced_choiceRT,2021.1.2,Win32,60.0060006,,,,,,,,10,Ontime,f,1,2.0668,9,1,37,0,1,,,,,
,1.61,,,,,,,,,f.PNG,f,60f5eba9476ad9bc1d4252e9,2021-10-19_15h45.43.376,forced_choiceRT,2021.1.2,Win32,60.0060006,,,,,,,,10,Slow,h,0,2.1164,9,2,38,0,1,,,,,
,1.99,,,,,,,,,f.PNG,f,60f5eba9476ad9bc1d4252e9,2021-10-19_15h45.43.376,forced_choiceRT,2021.1.2,Win32,60.0060006,,,,,,,,10,Slow,f,1,2.7462,9,3,39,0,1,,,,,
,,,,,,,,,,,,60f5eba9476ad9bc1d4252e9,2021-10-19_15h45.43.376,forced_choiceRT,2021.1.2,Win32,60.0060006,,,,,,,,,,,,,,,,,,9,0,9,0,1
