IP_Addresss,target_onset,trial_resp_sp.keys,trial_resp_sp.corr,trial_resp_sp.rt,trials_train_loop.thisRepN,trials_train_loop.thisTrialN,trials_train_loop.thisN,trials_train_loop.thisIndex,trials_train_loop.ran,pic,correct_key,participant,date,expName,psychopyVersion,OS,frameRate,trial_resp_timing.keys,trial_resp_timing.rt,trials_train_timing.thisRepN,trials_train_timing.thisTrialN,trials_train_timing.thisN,trials_train_timing.thisIndex,trials_train_timing.ran,block_id,ontime,forcedRT_resp.keys,forcedRT_resp.corr,forcedRT_resp.rt,trials.thisRepN,trials.thisTrialN,trials.thisN,trials.thisIndex,trials.ran,blocks.thisRepN,blocks.thisTrialN,blocks.thisN,blocks.thisIndex,blocks.ran
172.89.52.149,0,h,1,2.9667,0,0,0,2,1,h.PNG,h,60fcebda736e99e7729eb0c6,2021-10-19_12h45.37.722,forced_choiceRT,2021.1.2,MacIntel,60.0024001,,,,,,,,,,,,,,,,,,,,,,
,0,f,1,1.0191,0,1,1,0,1,f.PNG,f,60fcebda736e99e7729eb0c6,2021-10-19_12h45.37.722,forced_choiceRT,2021.1.2,MacIntel,60.0024001,,,,,,,,,,,,,,,,,,,,,,
,0,g,1,1.0023,0,2,2,1,1,g.PNG,g,60fcebda736e99e7729eb0c6,2021-10-19_12h45.37.722,forced_choiceRT,2021.1.2,MacIntel,60.0024001,,,,,,,,,,,,,,,,,,,,,,
,0,j,1,0.9904,0,3,3,3,1,j.PNG,j,60fcebda736e99e7729eb0c6,2021-10-19_12h45.37.722,forced_choiceRT,2021.1.2,MacIntel,60.0024001,,,,,,,,,,,,,,,,,,,,,,
,0,h,1,1.3721,1,0,4,2,1,h.PNG,h,60fcebda736e99e7729eb0c6,2021-10-19_12h45.37.722,forced_choiceRT,2021.1.2,MacIntel,60.0024001,,,,,,,,,,,,,,,,,,,,,,
,0,j,1,1.0608,1,1,5,3,1,j.PNG,j,60fcebda736e99e7729eb0c6,2021-10-19_12h45.37.722,forced_choiceRT,2021.1.2,MacIntel,60.0024001,,,,,,,,,,,,,,,,,,,,,,
,0,g,1,1.064,1,2,6,1,1,g.PNG,g,60fcebda736e99e7729eb0c6,2021-10-19_12h45.37.722,forced_choiceRT,2021.1.2,MacIntel,60.0024001,,,,,,,,,,,,,,,,,,,,,,
,0,j,1,0.9778,1,3,7,3,1,j.PNG,j,60fcebda736e99e7729eb0c6,2021-10-19_12h45.37.722,forced_choiceRT,2021.1.2,MacIntel,60.0024001,,,,,,,,,,,,,,,,,,,,,,
,0,h,1,2.5545,2,0,8,2,1,h.PNG,h,60fcebda736e99e7729eb0c6,2021-10-19_12h45.37.722,forced_choiceRT,2021.1.2,MacIntel,60.0024001,,,,,,,,,,,,,,,,,,,,,,
,0,h,1,0.6263,2,1,9,2,1,h.PNG,h,60fcebda736e99e7729eb0c6,2021-10-19_12h45.37.722,forced_choiceRT,2021.1.2,MacIntel,60.0024001,,,,,,,,,,,,,,,,,,,,,,
,0,g,1,0.7999,2,2,10,1,1,g.PNG,g,60fcebda736e99e7729eb0c6,2021-10-19_12h45.37.722,forced_choiceRT,2021.1.2,MacIntel,60.0024001,,,,,,,,,,,,,,,,,,,,,,
,0,j,1,0.8236,2,3,11,3,1,j.PNG,j,60fcebda736e99e7729eb0c6,2021-10-19_12h45.37.722,forced_choiceRT,2021.1.2,MacIntel,60.0024001,,,,,,,,,,,,,,,,,,,,,,
,0,g,1,1.048,3,0,12,1,1,g.PNG,g,60fcebda736e99e7729eb0c6,2021-10-19_12h45.37.722,forced_choiceRT,2021.1.2,MacIntel,60.0024001,,,,,,,,,,,,,,,,,,,,,,
,0,j,1,0.9377,3,1,13,3,1,j.PNG,j,60fcebda736e99e7729eb0c6,2021-10-19_12h45.37.722,forced_choiceRT,2021.1.2,MacIntel,60.0024001,,,,,,,,,,,,,,,,,,,,,,
,0,j,1,0.5983,3,2,14,3,1,j.PNG,j,60fcebda736e99e7729eb0c6,2021-10-19_12h45.37.722,forced_choiceRT,2021.1.2,MacIntel,60.0024001,,,,,,,,,,,,,,,,,,,,,,
,0,j,1,0.7165,3,3,15,3,1,j.PNG,j,60fcebda736e99e7729eb0c6,2021-10-19_12h45.37.722,forced_choiceRT,2021.1.2,MacIntel,60.0024001,,,,,,,,,,,,,,,,,,,,,,
,0,j,1,0.6994,4,0,16,3,1,j.PNG,j,60fcebda736e99e7729eb0c6,2021-10-19_12h45.37.722,forced_choiceRT,2021.1.2,MacIntel,60.0024001,,,,,,,,,,,,,,,,,,,,,,
,0,h,1,1.9173,4,1,17,2,1,h.PNG,h,60fcebda736e99e7729eb0c6,2021-10-19_12h45.37.722,forced_choiceRT,2021.1.2,MacIntel,60.0024001,,,,,,,,,,,,,,,,,,,,,,
,0,g,1,0.823,4,2,18,1,1,g.PNG,g,60fcebda736e99e7729eb0c6,2021-10-19_12h45.37.722,forced_choiceRT,2021.1.2,MacIntel,60.0024001,,,,,,,,,,,,,,,,,,,,,,
,0,h,1,1.6013,4,3,19,2,1,h.PNG,h,60fcebda736e99e7729eb0c6,2021-10-19_12h45.37.722,forced_choiceRT,2021.1.2,MacIntel,60.0024001,,,,,,,,,,,,,,,,,,,,,,
,0,g,1,0.6498,5,0,20,1,1,g.PNG,g,60fcebda736e99e7729eb0c6,2021-10-19_12h45.37.722,forced_choiceRT,2021.1.2,MacIntel,60.0024001,,,,,,,,,,,,,,,,,,,,,,
,0,h,1,1.1934,5,1,21,2,1,h.PNG,h,60fcebda736e99e7729eb0c6,2021-10-19_12h45.37.722,forced_choiceRT,2021.1.2,MacIntel,60.0024001,,,,,,,,,,,,,,,,,,,,,,
,0,f,1,0.768,5,2,22,0,1,f.PNG,f,60fcebda736e99e7729eb0c6,2021-10-19_12h45.37.722,forced_choiceRT,2021.1.2,MacIntel,60.0024001,,,,,,,,,,,,,,,,,,,,,,
,0,g,1,0.9053,5,3,23,1,1,g.PNG,g,60fcebda736e99e7729eb0c6,2021-10-19_12h45.37.722,forced_choiceRT,2021.1.2,MacIntel,60.0024001,,,,,,,,,,,,,,,,,,,,,,
,0,g,1,0.7501,6,0,24,1,1,g.PNG,g,60fcebda736e99e7729eb0c6,2021-10-19_12h45.37.722,forced_choiceRT,2021.1.2,MacIntel,60.0024001,,,,,,,,,,,,,,,,,,,,,,
,0,h,1,0.9541,6,1,25,2,1,h.PNG,h,60fcebda736e99e7729eb0c6,2021-10-19_12h45.37.722,forced_choiceRT,2021.1.2,MacIntel,60.0024001,,,,,,,,,,,,,,,,,,,,,,
,0,g,1,0.9018,6,2,26,1,1,g.PNG,g,60fcebda736e99e7729eb0c6,2021-10-19_12h45.37.722,forced_choiceRT,2021.1.2,MacIntel,60.0024001,,,,,,,,,,,,,,,,,,,,,,
,0,h,1,0.5983,6,3,27,2,1,h.PNG,h,60fcebda736e99e7729eb0c6,2021-10-19_12h45.37.722,forced_choiceRT,2021.1.2,MacIntel,60.0024001,,,,,,,,,,,,,,,,,,,,,,
,0,f,1,0.9026,7,0,28,0,1,f.PNG,f,60fcebda736e99e7729eb0c6,2021-10-19_12h45.37.722,forced_choiceRT,2021.1.2,MacIntel,60.0024001,,,,,,,,,,,,,,,,,,,,,,
,0,h,1,0.9469,7,1,29,2,1,h.PNG,h,60fcebda736e99e7729eb0c6,2021-10-19_12h45.37.722,forced_choiceRT,2021.1.2,MacIntel,60.0024001,,,,,,,,,,,,,,,,,,,,,,
,0,f,1,0.6912,7,2,30,0,1,f.PNG,f,60fcebda736e99e7729eb0c6,2021-10-19_12h45.37.722,forced_choiceRT,2021.1.2,MacIntel,60.0024001,,,,,,,,,,,,,,,,,,,,,,
,0,g,1,0.6581,7,3,31,1,1,g.PNG,g,60fcebda736e99e7729eb0c6,2021-10-19_12h45.37.722,forced_choiceRT,2021.1.2,MacIntel,60.0024001,,,,,,,,,,,,,,,,,,,,,,
,0,h,1,0.7501,8,0,32,2,1,h.PNG,h,60fcebda736e99e7729eb0c6,2021-10-19_12h45.37.722,forced_choiceRT,2021.1.2,MacIntel,60.0024001,,,,,,,,,,,,,,,,,,,,,,
,0,h,1,1.0141,8,1,33,2,1,h.PNG,h,60fcebda736e99e7729eb0c6,2021-10-19_12h45.37.722,forced_choiceRT,2021.1.2,MacIntel,60.0024001,,,,,,,,,,,,,,,,,,,,,,
,0,g,1,0.6521,8,2,34,1,1,g.PNG,g,60fcebda736e99e7729eb0c6,2021-10-19_12h45.37.722,forced_choiceRT,2021.1.2,MacIntel,60.0024001,,,,,,,,,,,,,,,,,,,,,,
,0,g,1,0.4994,8,3,35,1,1,g.PNG,g,60fcebda736e99e7729eb0c6,2021-10-19_12h45.37.722,forced_choiceRT,2021.1.2,MacIntel,60.0024001,,,,,,,,,,,,,,,,,,,,,,
,0,f,1,0.6651,9,0,36,0,1,f.PNG,f,60fcebda736e99e7729eb0c6,2021-10-19_12h45.37.722,forced_choiceRT,2021.1.2,MacIntel,60.0024001,,,,,,,,,,,,,,,,,,,,,,
,0,g,1,0.8494,9,1,37,1,1,g.PNG,g,60fcebda736e99e7729eb0c6,2021-10-19_12h45.37.722,forced_choiceRT,2021.1.2,MacIntel,60.0024001,,,,,,,,,,,,,,,,,,,,,,
,0,f,1,1.5074,9,2,38,0,1,f.PNG,f,60fcebda736e99e7729eb0c6,2021-10-19_12h45.37.722,forced_choiceRT,2021.1.2,MacIntel,60.0024001,,,,,,,,,,,,,,,,,,,,,,
,0,j,1,1.1632,9,3,39,3,1,j.PNG,j,60fcebda736e99e7729eb0c6,2021-10-19_12h45.37.722,forced_choiceRT,2021.1.2,MacIntel,60.0024001,,,,,,,,,,,,,,,,,,,,,,
,0,j,1,0.6149,10,0,40,3,1,j.PNG,j,60fcebda736e99e7729eb0c6,2021-10-19_12h45.37.722,forced_choiceRT,2021.1.2,MacIntel,60.0024001,,,,,,,,,,,,,,,,,,,,,,
,0,h,1,2.0569,10,1,41,2,1,h.PNG,h,60fcebda736e99e7729eb0c6,2021-10-19_12h45.37.722,forced_choiceRT,2021.1.2,MacIntel,60.0024001,,,,,,,,,,,,,,,,,,,,,,
,0,g,1,0.6901,10,2,42,1,1,g.PNG,g,60fcebda736e99e7729eb0c6,2021-10-19_12h45.37.722,forced_choiceRT,2021.1.2,MacIntel,60.0024001,,,,,,,,,,,,,,,,,,,,,,
,0,f,1,0.6573,10,3,43,0,1,f.PNG,f,60fcebda736e99e7729eb0c6,2021-10-19_12h45.37.722,forced_choiceRT,2021.1.2,MacIntel,60.0024001,,,,,,,,,,,,,,,,,,,,,,
,0,h,1,1.2798,11,0,44,2,1,h.PNG,h,60fcebda736e99e7729eb0c6,2021-10-19_12h45.37.722,forced_choiceRT,2021.1.2,MacIntel,60.0024001,,,,,,,,,,,,,,,,,,,,,,
,0,f,1,0.7718,11,1,45,0,1,f.PNG,f,60fcebda736e99e7729eb0c6,2021-10-19_12h45.37.722,forced_choiceRT,2021.1.2,MacIntel,60.0024001,,,,,,,,,,,,,,,,,,,,,,
,0,j,1,0.7962,11,2,46,3,1,j.PNG,j,60fcebda736e99e7729eb0c6,2021-10-19_12h45.37.722,forced_choiceRT,2021.1.2,MacIntel,60.0024001,,,,,,,,,,,,,,,,,,,,,,
,0,f,1,0.7323,11,3,47,0,1,f.PNG,f,60fcebda736e99e7729eb0c6,2021-10-19_12h45.37.722,forced_choiceRT,2021.1.2,MacIntel,60.0024001,,,,,,,,,,,,,,,,,,,,,,
,0,g,1,0.7079,12,0,48,1,1,g.PNG,g,60fcebda736e99e7729eb0c6,2021-10-19_12h45.37.722,forced_choiceRT,2021.1.2,MacIntel,60.0024001,,,,,,,,,,,,,,,,,,,,,,
,0,f,1,0.7158,12,1,49,0,1,f.PNG,f,60fcebda736e99e7729eb0c6,2021-10-19_12h45.37.722,forced_choiceRT,2021.1.2,MacIntel,60.0024001,,,,,,,,,,,,,,,,,,,,,,
,0,f,1,0.6541,12,2,50,0,1,f.PNG,f,60fcebda736e99e7729eb0c6,2021-10-19_12h45.37.722,forced_choiceRT,2021.1.2,MacIntel,60.0024001,,,,,,,,,,,,,,,,,,,,,,
,0,j,1,0.7838,12,3,51,3,1,j.PNG,j,60fcebda736e99e7729eb0c6,2021-10-19_12h45.37.722,forced_choiceRT,2021.1.2,MacIntel,60.0024001,,,,,,,,,,,,,,,,,,,,,,
,0,f,1,1.023,13,0,52,0,1,f.PNG,f,60fcebda736e99e7729eb0c6,2021-10-19_12h45.37.722,forced_choiceRT,2021.1.2,MacIntel,60.0024001,,,,,,,,,,,,,,,,,,,,,,
,0,j,1,0.6963,13,1,53,3,1,j.PNG,j,60fcebda736e99e7729eb0c6,2021-10-19_12h45.37.722,forced_choiceRT,2021.1.2,MacIntel,60.0024001,,,,,,,,,,,,,,,,,,,,,,
,0,j,1,0.5313,13,2,54,3,1,j.PNG,j,60fcebda736e99e7729eb0c6,2021-10-19_12h45.37.722,forced_choiceRT,2021.1.2,MacIntel,60.0024001,,,,,,,,,,,,,,,,,,,,,,
,0,f,1,0.8496,13,3,55,0,1,f.PNG,f,60fcebda736e99e7729eb0c6,2021-10-19_12h45.37.722,forced_choiceRT,2021.1.2,MacIntel,60.0024001,,,,,,,,,,,,,,,,,,,,,,
,0,f,1,1.1436,14,0,56,0,1,f.PNG,f,60fcebda736e99e7729eb0c6,2021-10-19_12h45.37.722,forced_choiceRT,2021.1.2,MacIntel,60.0024001,,,,,,,,,,,,,,,,,,,,,,
,0,h,1,0.9196,14,1,57,2,1,h.PNG,h,60fcebda736e99e7729eb0c6,2021-10-19_12h45.37.722,forced_choiceRT,2021.1.2,MacIntel,60.0024001,,,,,,,,,,,,,,,,,,,,,,
,0,f,1,0.9125,14,2,58,0,1,f.PNG,f,60fcebda736e99e7729eb0c6,2021-10-19_12h45.37.722,forced_choiceRT,2021.1.2,MacIntel,60.0024001,,,,,,,,,,,,,,,,,,,,,,
,0,j,1,0.8069,14,3,59,3,1,j.PNG,j,60fcebda736e99e7729eb0c6,2021-10-19_12h45.37.722,forced_choiceRT,2021.1.2,MacIntel,60.0024001,,,,,,,,,,,,,,,,,,,,,,
,,,,,,,,,,,,60fcebda736e99e7729eb0c6,2021-10-19_12h45.37.722,forced_choiceRT,2021.1.2,MacIntel,60.0024001,f,8.3076,0,0,0,0,1,,,,,,,,,,,,,,,
,,,,,,,,,,,,60fcebda736e99e7729eb0c6,2021-10-19_12h45.37.722,forced_choiceRT,2021.1.2,MacIntel,60.0024001,f,2.1229,1,0,1,0,1,,,,,,,,,,,,,,,
,,,,,,,,,,,,60fcebda736e99e7729eb0c6,2021-10-19_12h45.37.722,forced_choiceRT,2021.1.2,MacIntel,60.0024001,f,2.0323,2,0,2,0,1,,,,,,,,,,,,,,,
,,,,,,,,,,,,60fcebda736e99e7729eb0c6,2021-10-19_12h45.37.722,forced_choiceRT,2021.1.2,MacIntel,60.0024001,f,1.9655,3,0,3,0,1,,,,,,,,,,,,,,,
,,,,,,,,,,,,60fcebda736e99e7729eb0c6,2021-10-19_12h45.37.722,forced_choiceRT,2021.1.2,MacIntel,60.0024001,g,2.0103,4,0,4,0,1,,,,,,,,,,,,,,,
,,,,,,,,,,,,60fcebda736e99e7729eb0c6,2021-10-19_12h45.37.722,forced_choiceRT,2021.1.2,MacIntel,60.0024001,h,2.0366,5,0,5,0,1,,,,,,,,,,,,,,,
,,,,,,,,,,,,60fcebda736e99e7729eb0c6,2021-10-19_12h45.37.722,forced_choiceRT,2021.1.2,MacIntel,60.0024001,j,2.0689,6,0,6,0,1,,,,,,,,,,,,,,,
,,,,,,,,,,,,60fcebda736e99e7729eb0c6,2021-10-19_12h45.37.722,forced_choiceRT,2021.1.2,MacIntel,60.0024001,f,2.078,7,0,7,0,1,,,,,,,,,,,,,,,
,,,,,,,,,,,,60fcebda736e99e7729eb0c6,2021-10-19_12h45.37.722,forced_choiceRT,2021.1.2,MacIntel,60.0024001,g,2.086,8,0,8,0,1,,,,,,,,,,,,,,,
,,,,,,,,,,,,60fcebda736e99e7729eb0c6,2021-10-19_12h45.37.722,forced_choiceRT,2021.1.2,MacIntel,60.0024001,h,2.0788,9,0,9,0,1,,,,,,,,,,,,,,,
,,,,,,,,,,,,60fcebda736e99e7729eb0c6,2021-10-19_12h45.37.722,forced_choiceRT,2021.1.2,MacIntel,60.0024001,j,2.0263,10,0,10,0,1,,,,,,,,,,,,,,,
,,,,,,,,,,,,60fcebda736e99e7729eb0c6,2021-10-19_12h45.37.722,forced_choiceRT,2021.1.2,MacIntel,60.0024001,g,2.0684,11,0,11,0,1,,,,,,,,,,,,,,,
,,,,,,,,,,,,60fcebda736e99e7729eb0c6,2021-10-19_12h45.37.722,forced_choiceRT,2021.1.2,MacIntel,60.0024001,h,1.844,12,0,12,0,1,,,,,,,,,,,,,,,
,,,,,,,,,,,,60fcebda736e99e7729eb0c6,2021-10-19_12h45.37.722,forced_choiceRT,2021.1.2,MacIntel,60.0024001,h,2.0928,13,0,13,0,1,,,,,,,,,,,,,,,
,,,,,,,,,,,,60fcebda736e99e7729eb0c6,2021-10-19_12h45.37.722,forced_choiceRT,2021.1.2,MacIntel,60.0024001,f,2.0748,14,0,14,0,1,,,,,,,,,,,,,,,
,,,,,,,,,,,,60fcebda736e99e7729eb0c6,2021-10-19_12h45.37.722,forced_choiceRT,2021.1.2,MacIntel,60.0024001,g,1.9944,15,0,15,0,1,,,,,,,,,,,,,,,
,,,,,,,,,,,,60fcebda736e99e7729eb0c6,2021-10-19_12h45.37.722,forced_choiceRT,2021.1.2,MacIntel,60.0024001,h,2.059,16,0,16,0,1,,,,,,,,,,,,,,,
,,,,,,,,,,,,60fcebda736e99e7729eb0c6,2021-10-19_12h45.37.722,forced_choiceRT,2021.1.2,MacIntel,60.0024001,j,2.0179,17,0,17,0,1,,,,,,,,,,,,,,,
,,,,,,,,,,,,60fcebda736e99e7729eb0c6,2021-10-19_12h45.37.722,forced_choiceRT,2021.1.2,MacIntel,60.0024001,f,2.033,18,0,18,0,1,,,,,,,,,,,,,,,
,,,,,,,,,,,,60fcebda736e99e7729eb0c6,2021-10-19_12h45.37.722,forced_choiceRT,2021.1.2,MacIntel,60.0024001,g,2.0331,19,0,19,0,1,,,,,,,,,,,,,,,
,0.22,,,,,,,,,f.PNG,f,60fcebda736e99e7729eb0c6,2021-10-19_12h45.37.722,forced_choiceRT,2021.1.2,MacIntel,60.0024001,,,,,,,,1,Ontime,f,1,2.0479,0,0,0,0,1,,,,,
,0.46,,,,,,,,,j.PNG,j,60fcebda736e99e7729eb0c6,2021-10-19_12h45.37.722,forced_choiceRT,2021.1.2,MacIntel,60.0024001,,,,,,,,1,Ontime,j,1,2.0097,0,1,1,3,1,,,,,
,0.62,,,,,,,,,g.PNG,g,60fcebda736e99e7729eb0c6,2021-10-19_12h45.37.722,forced_choiceRT,2021.1.2,MacIntel,60.0024001,,,,,,,,1,Ontime,g,1,2.0052,0,2,2,1,1,,,,,
,0.41,,,,,,,,,g.PNG,g,60fcebda736e99e7729eb0c6,2021-10-19_12h45.37.722,forced_choiceRT,2021.1.2,MacIntel,60.0024001,,,,,,,,1,Ontime,g,1,1.9721,0,3,3,1,1,,,,,
,0.95,,,,,,,,,f.PNG,f,60fcebda736e99e7729eb0c6,2021-10-19_12h45.37.722,forced_choiceRT,2021.1.2,MacIntel,60.0024001,,,,,,,,1,Slow,g,0,2.4241,1,0,4,0,1,,,,,
,0.91,,,,,,,,,g.PNG,g,60fcebda736e99e7729eb0c6,2021-10-19_12h45.37.722,forced_choiceRT,2021.1.2,MacIntel,60.0024001,,,,,,,,1,Ontime,g,1,2.0532,1,1,5,1,1,,,,,
,0.09,,,,,,,,,f.PNG,f,60fcebda736e99e7729eb0c6,2021-10-19_12h45.37.722,forced_choiceRT,2021.1.2,MacIntel,60.0024001,,,,,,,,1,Ontime,f,1,2.0292,1,2,6,0,1,,,,,
,0.81,,,,,,,,,f.PNG,f,60fcebda736e99e7729eb0c6,2021-10-19_12h45.37.722,forced_choiceRT,2021.1.2,MacIntel,60.0024001,,,,,,,,1,Ontime,f,1,1.9848,1,3,7,0,1,,,,,
,1.67,,,,,,,,,h.PNG,h,60fcebda736e99e7729eb0c6,2021-10-19_12h45.37.722,forced_choiceRT,2021.1.2,MacIntel,60.0024001,,,,,,,,1,Slow,h,1,2.2434,2,0,8,2,1,,,,,
,0.97,,,,,,,,,j.PNG,j,60fcebda736e99e7729eb0c6,2021-10-19_12h45.37.722,forced_choiceRT,2021.1.2,MacIntel,60.0024001,,,,,,,,1,Ontime,j,1,2.0071,2,1,9,3,1,,,,,
,1.49,,,,,,,,,j.PNG,j,60fcebda736e99e7729eb0c6,2021-10-19_12h45.37.722,forced_choiceRT,2021.1.2,MacIntel,60.0024001,,,,,,,,1,Ontime,j,1,2.0403,2,2,10,3,1,,,,,
,0.56,,,,,,,,,h.PNG,h,60fcebda736e99e7729eb0c6,2021-10-19_12h45.37.722,forced_choiceRT,2021.1.2,MacIntel,60.0024001,,,,,,,,1,Ontime,h,1,2.0129,2,3,11,2,1,,,,,
,1.91,,,,,,,,,h.PNG,h,60fcebda736e99e7729eb0c6,2021-10-19_12h45.37.722,forced_choiceRT,2021.1.2,MacIntel,60.0024001,,,,,,,,1,Ontime,j,0,2.0908,3,0,12,2,1,,,,,
,1.64,,,,,,,,,f.PNG,f,60fcebda736e99e7729eb0c6,2021-10-19_12h45.37.722,forced_choiceRT,2021.1.2,MacIntel,60.0024001,,,,,,,,1,Slow,g,0,2.2307,3,1,13,0,1,,,,,
,1.91,,,,,,,,,g.PNG,g,60fcebda736e99e7729eb0c6,2021-10-19_12h45.37.722,forced_choiceRT,2021.1.2,MacIntel,60.0024001,,,,,,,,1,Ontime,g,1,2.0148,3,2,14,1,1,,,,,
,0.2,,,,,,,,,h.PNG,h,60fcebda736e99e7729eb0c6,2021-10-19_12h45.37.722,forced_choiceRT,2021.1.2,MacIntel,60.0024001,,,,,,,,1,Ontime,h,1,2.0525,3,3,15,2,1,,,,,
,1.6,,,,,,,,,j.PNG,j,60fcebda736e99e7729eb0c6,2021-10-19_12h45.37.722,forced_choiceRT,2021.1.2,MacIntel,60.0024001,,,,,,,,1,Slow,h,0,2.1738,4,0,16,3,1,,,,,
,1.97,,,,,,,,,f.PNG,f,60fcebda736e99e7729eb0c6,2021-10-19_12h45.37.722,forced_choiceRT,2021.1.2,MacIntel,60.0024001,,,,,,,,1,Ontime,h,0,2.0081,4,1,17,0,1,,,,,
,0.5,,,,,,,,,g.PNG,g,60fcebda736e99e7729eb0c6,2021-10-19_12h45.37.722,forced_choiceRT,2021.1.2,MacIntel,60.0024001,,,,,,,,1,Ontime,g,1,1.9407,4,2,18,1,1,,,,,
,0.53,,,,,,,,,j.PNG,j,60fcebda736e99e7729eb0c6,2021-10-19_12h45.37.722,forced_choiceRT,2021.1.2,MacIntel,60.0024001,,,,,,,,1,Ontime,j,1,2.0203,4,3,19,3,1,,,,,
,1.86,,,,,,,,,j.PNG,j,60fcebda736e99e7729eb0c6,2021-10-19_12h45.37.722,forced_choiceRT,2021.1.2,MacIntel,60.0024001,,,,,,,,1,Ontime,j,1,2.0174,5,0,20,3,1,,,,,
,1.15,,,,,,,,,h.PNG,h,60fcebda736e99e7729eb0c6,2021-10-19_12h45.37.722,forced_choiceRT,2021.1.2,MacIntel,60.0024001,,,,,,,,1,Ontime,h,1,2.0245,5,1,21,2,1,,,,,
,1.76,,,,,,,,,f.PNG,f,60fcebda736e99e7729eb0c6,2021-10-19_12h45.37.722,forced_choiceRT,2021.1.2,MacIntel,60.0024001,,,,,,,,1,Ontime,g,0,2.043,5,2,22,0,1,,,,,
,1.7,,,,,,,,,h.PNG,h,60fcebda736e99e7729eb0c6,2021-10-19_12h45.37.722,forced_choiceRT,2021.1.2,MacIntel,60.0024001,,,,,,,,1,Ontime,g,0,2.046,5,3,23,2,1,,,,,
,0.62,,,,,,,,,f.PNG,f,60fcebda736e99e7729eb0c6,2021-10-19_12h45.37.722,forced_choiceRT,2021.1.2,MacIntel,60.0024001,,,,,,,,1,Ontime,f,1,2.0758,6,0,24,0,1,,,,,
,0.67,,,,,,,,,j.PNG,j,60fcebda736e99e7729eb0c6,2021-10-19_12h45.37.722,forced_choiceRT,2021.1.2,MacIntel,60.0024001,,,,,,,,1,Ontime,j,1,2.0822,6,1,25,3,1,,,,,
,1.41,,,,,,,,,j.PNG,j,60fcebda736e99e7729eb0c6,2021-10-19_12h45.37.722,forced_choiceRT,2021.1.2,MacIntel,60.0024001,,,,,,,,1,Slow,j,1,2.1413,6,2,26,3,1,,,,,
,1.98,,,,,,,,,f.PNG,f,60fcebda736e99e7729eb0c6,2021-10-19_12h45.37.722,forced_choiceRT,2021.1.2,MacIntel,60.0024001,,,,,,,,1,Ontime,j,0,2.0287,6,3,27,0,1,,,,,
,1.34,,,,,,,,,g.PNG,g,60fcebda736e99e7729eb0c6,2021-10-19_12h45.37.722,forced_choiceRT,2021.1.2,MacIntel,60.0024001,,,,,,,,1,Ontime,g,1,2.0509,7,0,28,1,1,,,,,
,0.3,,,,,,,,,h.PNG,h,60fcebda736e99e7729eb0c6,2021-10-19_12h45.37.722,forced_choiceRT,2021.1.2,MacIntel,60.0024001,,,,,,,,1,Ontime,h,1,2.0496,7,1,29,2,1,,,,,
,0.98,,,,,,,,,g.PNG,g,60fcebda736e99e7729eb0c6,2021-10-19_12h45.37.722,forced_choiceRT,2021.1.2,MacIntel,60.0024001,,,,,,,,1,Ontime,g,1,2.0938,7,2,30,1,1,,,,,
,1.87,,,,,,,,,g.PNG,g,60fcebda736e99e7729eb0c6,2021-10-19_12h45.37.722,forced_choiceRT,2021.1.2,MacIntel,60.0024001,,,,,,,,1,Slow,g,1,2.4125,7,3,31,1,1,,,,,
,0.07,,,,,,,,,j.PNG,j,60fcebda736e99e7729eb0c6,2021-10-19_12h45.37.722,forced_choiceRT,2021.1.2,MacIntel,60.0024001,,,,,,,,1,Ontime,j,1,2.0513,8,0,32,3,1,,,,,
,1.56,,,,,,,,,g.PNG,g,60fcebda736e99e7729eb0c6,2021-10-19_12h45.37.722,forced_choiceRT,2021.1.2,MacIntel,60.0024001,,,,,,,,1,Slow,g,1,2.3384,8,1,33,1,1,,,,,
,1.24,,,,,,,,,h.PNG,h,60fcebda736e99e7729eb0c6,2021-10-19_12h45.37.722,forced_choiceRT,2021.1.2,MacIntel,60.0024001,,,,,,,,1,Ontime,h,1,2.0406,8,2,34,2,1,,,,,
,1.18,,,,,,,,,j.PNG,j,60fcebda736e99e7729eb0c6,2021-10-19_12h45.37.722,forced_choiceRT,2021.1.2,MacIntel,60.0024001,,,,,,,,1,Ontime,j,1,2.0446,8,3,35,3,1,,,,,
,1.16,,,,,,,,,f.PNG,f,60fcebda736e99e7729eb0c6,2021-10-19_12h45.37.722,forced_choiceRT,2021.1.2,MacIntel,60.0024001,,,,,,,,1,Fast,f,1,1.861,9,0,36,0,1,,,,,
,1.92,,,,,,,,,h.PNG,h,60fcebda736e99e7729eb0c6,2021-10-19_12h45.37.722,forced_choiceRT,2021.1.2,MacIntel,60.0024001,,,,,,,,1,Slow,g,0,2.2786,9,1,37,2,1,,,,,
,1.28,,,,,,,,,g.PNG,g,60fcebda736e99e7729eb0c6,2021-10-19_12h45.37.722,forced_choiceRT,2021.1.2,MacIntel,60.0024001,,,,,,,,1,Ontime,g,1,1.9261,9,2,38,1,1,,,,,
,1.06,,,,,,,,,h.PNG,h,60fcebda736e99e7729eb0c6,2021-10-19_12h45.37.722,forced_choiceRT,2021.1.2,MacIntel,60.0024001,,,,,,,,1,Fast,j,0,1.7593,9,3,39,2,1,,,,,
,,,,,,,,,,,,60fcebda736e99e7729eb0c6,2021-10-19_12h45.37.722,forced_choiceRT,2021.1.2,MacIntel,60.0024001,,,,,,,,,,,,,,,,,,0,0,0,0,1
,0.87,,,,,,,,,h.PNG,h,60fcebda736e99e7729eb0c6,2021-10-19_12h45.37.722,forced_choiceRT,2021.1.2,MacIntel,60.0024001,,,,,,,,2,Fast,h,1,1.7776,0,0,0,2,1,,,,,
,0.29,,,,,,,,,f.PNG,f,60fcebda736e99e7729eb0c6,2021-10-19_12h45.37.722,forced_choiceRT,2021.1.2,MacIntel,60.0024001,,,,,,,,2,Ontime,f,1,1.9633,0,1,1,0,1,,,,,
,0.17,,,,,,,,,f.PNG,f,60fcebda736e99e7729eb0c6,2021-10-19_12h45.37.722,forced_choiceRT,2021.1.2,MacIntel,60.0024001,,,,,,,,2,Ontime,f,1,2.0426,0,2,2,0,1,,,,,
,1.2,,,,,,,,,j.PNG,j,60fcebda736e99e7729eb0c6,2021-10-19_12h45.37.722,forced_choiceRT,2021.1.2,MacIntel,60.0024001,,,,,,,,2,Ontime,j,1,2.0801,0,3,3,3,1,,,,,
,0.04,,,,,,,,,h.PNG,h,60fcebda736e99e7729eb0c6,2021-10-19_12h45.37.722,forced_choiceRT,2021.1.2,MacIntel,60.0024001,,,,,,,,2,Ontime,h,1,1.9955,1,0,4,2,1,,,,,
,1.39,,,,,,,,,f.PNG,f,60fcebda736e99e7729eb0c6,2021-10-19_12h45.37.722,forced_choiceRT,2021.1.2,MacIntel,60.0024001,,,,,,,,2,Ontime,g,0,2.0815,1,1,5,0,1,,,,,
,0.72,,,,,,,,,h.PNG,h,60fcebda736e99e7729eb0c6,2021-10-19_12h45.37.722,forced_choiceRT,2021.1.2,MacIntel,60.0024001,,,,,,,,2,Ontime,h,1,2.0418,1,2,6,2,1,,,,,
,1.88,,,,,,,,,j.PNG,j,60fcebda736e99e7729eb0c6,2021-10-19_12h45.37.722,forced_choiceRT,2021.1.2,MacIntel,60.0024001,,,,,,,,2,Ontime,f,0,1.9184,1,3,7,3,1,,,,,
,1.05,,,,,,,,,f.PNG,f,60fcebda736e99e7729eb0c6,2021-10-19_12h45.37.722,forced_choiceRT,2021.1.2,MacIntel,60.0024001,,,,,,,,2,Ontime,f,1,2.0832,2,0,8,0,1,,,,,
,0.62,,,,,,,,,g.PNG,g,60fcebda736e99e7729eb0c6,2021-10-19_12h45.37.722,forced_choiceRT,2021.1.2,MacIntel,60.0024001,,,,,,,,2,Ontime,g,1,2.0689,2,1,9,1,1,,,,,
,1.24,,,,,,,,,f.PNG,f,60fcebda736e99e7729eb0c6,2021-10-19_12h45.37.722,forced_choiceRT,2021.1.2,MacIntel,60.0024001,,,,,,,,2,Slow,f,1,2.1106,2,2,10,0,1,,,,,
,0.08,,,,,,,,,g.PNG,g,60fcebda736e99e7729eb0c6,2021-10-19_12h45.37.722,forced_choiceRT,2021.1.2,MacIntel,60.0024001,,,,,,,,2,Ontime,g,1,1.9776,2,3,11,1,1,,,,,
,0.42,,,,,,,,,f.PNG,f,60fcebda736e99e7729eb0c6,2021-10-19_12h45.37.722,forced_choiceRT,2021.1.2,MacIntel,60.0024001,,,,,,,,2,Ontime,f,1,1.9741,3,0,12,0,1,,,,,
,1.74,,,,,,,,,h.PNG,h,60fcebda736e99e7729eb0c6,2021-10-19_12h45.37.722,forced_choiceRT,2021.1.2,MacIntel,60.0024001,,,,,,,,2,Ontime,j,0,2.0145,3,1,13,2,1,,,,,
,0.88,,,,,,,,,h.PNG,h,60fcebda736e99e7729eb0c6,2021-10-19_12h45.37.722,forced_choiceRT,2021.1.2,MacIntel,60.0024001,,,,,,,,2,Ontime,h,1,2.0312,3,2,14,2,1,,,,,
,0.63,,,,,,,,,h.PNG,h,60fcebda736e99e7729eb0c6,2021-10-19_12h45.37.722,forced_choiceRT,2021.1.2,MacIntel,60.0024001,,,,,,,,2,Ontime,h,1,1.9971,3,3,15,2,1,,,,,
,0.42,,,,,,,,,h.PNG,h,60fcebda736e99e7729eb0c6,2021-10-19_12h45.37.722,forced_choiceRT,2021.1.2,MacIntel,60.0024001,,,,,,,,2,Ontime,h,1,1.9683,4,0,16,2,1,,,,,
,1.63,,,,,,,,,h.PNG,h,60fcebda736e99e7729eb0c6,2021-10-19_12h45.37.722,forced_choiceRT,2021.1.2,MacIntel,60.0024001,,,,,,,,2,Ontime,g,0,2.0958,4,1,17,2,1,,,,,
,1.28,,,,,,,,,j.PNG,j,60fcebda736e99e7729eb0c6,2021-10-19_12h45.37.722,forced_choiceRT,2021.1.2,MacIntel,60.0024001,,,,,,,,2,Ontime,h,0,2.0777,4,2,18,3,1,,,,,
,0.04,,,,,,,,,g.PNG,g,60fcebda736e99e7729eb0c6,2021-10-19_12h45.37.722,forced_choiceRT,2021.1.2,MacIntel,60.0024001,,,,,,,,2,Ontime,g,1,1.9916,4,3,19,1,1,,,,,
,0.82,,,,,,,,,g.PNG,g,60fcebda736e99e7729eb0c6,2021-10-19_12h45.37.722,forced_choiceRT,2021.1.2,MacIntel,60.0024001,,,,,,,,2,Ontime,g,1,1.9518,5,0,20,1,1,,,,,
,0.66,,,,,,,,,f.PNG,f,60fcebda736e99e7729eb0c6,2021-10-19_12h45.37.722,forced_choiceRT,2021.1.2,MacIntel,60.0024001,,,,,,,,2,Ontime,f,1,2.0152,5,1,21,0,1,,,,,
,1.43,,,,,,,,,g.PNG,g,60fcebda736e99e7729eb0c6,2021-10-19_12h45.37.722,forced_choiceRT,2021.1.2,MacIntel,60.0024001,,,,,,,,2,Ontime,g,1,2.0733,5,2,22,1,1,,,,,
,1.34,,,,,,,,,g.PNG,g,60fcebda736e99e7729eb0c6,2021-10-19_12h45.37.722,forced_choiceRT,2021.1.2,MacIntel,60.0024001,,,,,,,,2,Ontime,g,1,2.0095,5,3,23,1,1,,,,,
,1.38,,,,,,,,,g.PNG,g,60fcebda736e99e7729eb0c6,2021-10-19_12h45.37.722,forced_choiceRT,2021.1.2,MacIntel,60.0024001,,,,,,,,2,Ontime,g,1,1.9745,6,0,24,1,1,,,,,
,0.7,,,,,,,,,h.PNG,h,60fcebda736e99e7729eb0c6,2021-10-19_12h45.37.722,forced_choiceRT,2021.1.2,MacIntel,60.0024001,,,,,,,,2,Ontime,h,1,1.9437,6,1,25,2,1,,,,,
,0.87,,,,,,,,,f.PNG,f,60fcebda736e99e7729eb0c6,2021-10-19_12h45.37.722,forced_choiceRT,2021.1.2,MacIntel,60.0024001,,,,,,,,2,Ontime,f,1,2.0654,6,2,26,0,1,,,,,
,0.34,,,,,,,,,j.PNG,j,60fcebda736e99e7729eb0c6,2021-10-19_12h45.37.722,forced_choiceRT,2021.1.2,MacIntel,60.0024001,,,,,,,,2,Ontime,j,1,1.9675,6,3,27,3,1,,,,,
,1.34,,,,,,,,,j.PNG,j,60fcebda736e99e7729eb0c6,2021-10-19_12h45.37.722,forced_choiceRT,2021.1.2,MacIntel,60.0024001,,,,,,,,2,Ontime,j,1,2.0388,7,0,28,3,1,,,,,
,0.65,,,,,,,,,j.PNG,j,60fcebda736e99e7729eb0c6,2021-10-19_12h45.37.722,forced_choiceRT,2021.1.2,MacIntel,60.0024001,,,,,,,,2,Ontime,j,1,1.9145,7,1,29,3,1,,,,,
,0.59,,,,,,,,,f.PNG,f,60fcebda736e99e7729eb0c6,2021-10-19_12h45.37.722,forced_choiceRT,2021.1.2,MacIntel,60.0024001,,,,,,,,2,Ontime,f,1,2.0738,7,2,30,0,1,,,,,
,0.02,,,,,,,,,h.PNG,h,60fcebda736e99e7729eb0c6,2021-10-19_12h45.37.722,forced_choiceRT,2021.1.2,MacIntel,60.0024001,,,,,,,,2,Ontime,h,1,2.0647,7,3,31,2,1,,,,,
,0.87,,,,,,,,,g.PNG,g,60fcebda736e99e7729eb0c6,2021-10-19_12h45.37.722,forced_choiceRT,2021.1.2,MacIntel,60.0024001,,,,,,,,2,Slow,g,1,2.1018,8,0,32,1,1,,,,,
,0.16,,,,,,,,,j.PNG,j,60fcebda736e99e7729eb0c6,2021-10-19_12h45.37.722,forced_choiceRT,2021.1.2,MacIntel,60.0024001,,,,,,,,2,Ontime,j,1,2.0469,8,1,33,3,1,,,,,
,0.09,,,,,,,,,j.PNG,j,60fcebda736e99e7729eb0c6,2021-10-19_12h45.37.722,forced_choiceRT,2021.1.2,MacIntel,60.0024001,,,,,,,,2,Slow,j,1,2.115,8,2,34,3,1,,,,,
,1.29,,,,,,,,,f.PNG,f,60fcebda736e99e7729eb0c6,2021-10-19_12h45.37.722,forced_choiceRT,2021.1.2,MacIntel,60.0024001,,,,,,,,2,Ontime,f,1,2.0734,8,3,35,0,1,,,,,
,0.02,,,,,,,,,g.PNG,g,60fcebda736e99e7729eb0c6,2021-10-19_12h45.37.722,forced_choiceRT,2021.1.2,MacIntel,60.0024001,,,,,,,,2,Ontime,g,1,2.0949,9,0,36,1,1,,,,,
,1.33,,,,,,,,,j.PNG,j,60fcebda736e99e7729eb0c6,2021-10-19_12h45.37.722,forced_choiceRT,2021.1.2,MacIntel,60.0024001,,,,,,,,2,Ontime,j,1,1.9922,9,1,37,3,1,,,,,
,1.9,,,,,,,,,j.PNG,j,60fcebda736e99e7729eb0c6,2021-10-19_12h45.37.722,forced_choiceRT,2021.1.2,MacIntel,60.0024001,,,,,,,,2,Slow,j,1,2.1087,9,2,38,3,1,,,,,
,1.54,,,,,,,,,g.PNG,g,60fcebda736e99e7729eb0c6,2021-10-19_12h45.37.722,forced_choiceRT,2021.1.2,MacIntel,60.0024001,,,,,,,,2,Ontime,g,1,2.0826,9,3,39,1,1,,,,,
,,,,,,,,,,,,60fcebda736e99e7729eb0c6,2021-10-19_12h45.37.722,forced_choiceRT,2021.1.2,MacIntel,60.0024001,,,,,,,,,,,,,,,,,,1,0,1,0,1
,1.47,,,,,,,,,j.PNG,j,60fcebda736e99e7729eb0c6,2021-10-19_12h45.37.722,forced_choiceRT,2021.1.2,MacIntel,60.0024001,,,,,,,,3,Slow,h,0,2.1327,0,0,0,3,1,,,,,
,1.15,,,,,,,,,j.PNG,j,60fcebda736e99e7729eb0c6,2021-10-19_12h45.37.722,forced_choiceRT,2021.1.2,MacIntel,60.0024001,,,,,,,,3,Fast,j,1,1.856,0,1,1,3,1,,,,,
,0.97,,,,,,,,,g.PNG,g,60fcebda736e99e7729eb0c6,2021-10-19_12h45.37.722,forced_choiceRT,2021.1.2,MacIntel,60.0024001,,,,,,,,3,Slow,g,1,2.105,0,2,2,1,1,,,,,
,0.4,,,,,,,,,h.PNG,h,60fcebda736e99e7729eb0c6,2021-10-19_12h45.37.722,forced_choiceRT,2021.1.2,MacIntel,60.0024001,,,,,,,,3,Ontime,h,1,2.0446,0,3,3,2,1,,,,,
,0.53,,,,,,,,,h.PNG,h,60fcebda736e99e7729eb0c6,2021-10-19_12h45.37.722,forced_choiceRT,2021.1.2,MacIntel,60.0024001,,,,,,,,3,Ontime,h,1,2.067,1,0,4,2,1,,,,,
,0.5,,,,,,,,,h.PNG,h,60fcebda736e99e7729eb0c6,2021-10-19_12h45.37.722,forced_choiceRT,2021.1.2,MacIntel,60.0024001,,,,,,,,3,Ontime,h,1,2.0004,1,1,5,2,1,,,,,
,0.08,,,,,,,,,f.PNG,f,60fcebda736e99e7729eb0c6,2021-10-19_12h45.37.722,forced_choiceRT,2021.1.2,MacIntel,60.0024001,,,,,,,,3,Ontime,f,1,2.0704,1,2,6,0,1,,,,,
,0.79,,,,,,,,,g.PNG,g,60fcebda736e99e7729eb0c6,2021-10-19_12h45.37.722,forced_choiceRT,2021.1.2,MacIntel,60.0024001,,,,,,,,3,Ontime,g,1,2.0929,1,3,7,1,1,,,,,
,0.51,,,,,,,,,g.PNG,g,60fcebda736e99e7729eb0c6,2021-10-19_12h45.37.722,forced_choiceRT,2021.1.2,MacIntel,60.0024001,,,,,,,,3,Ontime,g,1,2.0745,2,0,8,1,1,,,,,
,1.7,,,,,,,,,f.PNG,f,60fcebda736e99e7729eb0c6,2021-10-19_12h45.37.722,forced_choiceRT,2021.1.2,MacIntel,60.0024001,,,,,,,,3,Slow,h,0,2.2472,2,1,9,0,1,,,,,
,0.55,,,,,,,,,f.PNG,f,60fcebda736e99e7729eb0c6,2021-10-19_12h45.37.722,forced_choiceRT,2021.1.2,MacIntel,60.0024001,,,,,,,,3,Ontime,f,1,2.0298,2,2,10,0,1,,,,,
,0.05,,,,,,,,,g.PNG,g,60fcebda736e99e7729eb0c6,2021-10-19_12h45.37.722,forced_choiceRT,2021.1.2,MacIntel,60.0024001,,,,,,,,3,Ontime,g,1,1.9679,2,3,11,1,1,,,,,
,1.59,,,,,,,,,j.PNG,j,60fcebda736e99e7729eb0c6,2021-10-19_12h45.37.722,forced_choiceRT,2021.1.2,MacIntel,60.0024001,,,,,,,,3,Slow,j,1,2.3424,3,0,12,3,1,,,,,
,1.28,,,,,,,,,h.PNG,h,60fcebda736e99e7729eb0c6,2021-10-19_12h45.37.722,forced_choiceRT,2021.1.2,MacIntel,60.0024001,,,,,,,,3,Ontime,h,1,2.0358,3,1,13,2,1,,,,,
,0.97,,,,,,,,,f.PNG,f,60fcebda736e99e7729eb0c6,2021-10-19_12h45.37.722,forced_choiceRT,2021.1.2,MacIntel,60.0024001,,,,,,,,3,Ontime,f,1,1.9971,3,2,14,0,1,,,,,
,0.13,,,,,,,,,j.PNG,j,60fcebda736e99e7729eb0c6,2021-10-19_12h45.37.722,forced_choiceRT,2021.1.2,MacIntel,60.0024001,,,,,,,,3,Ontime,j,1,2.0531,3,3,15,3,1,,,,,
,0.85,,,,,,,,,h.PNG,h,60fcebda736e99e7729eb0c6,2021-10-19_12h45.37.722,forced_choiceRT,2021.1.2,MacIntel,60.0024001,,,,,,,,3,Slow,h,1,2.1035,4,0,16,2,1,,,,,
,1.98,,,,,,,,,f.PNG,f,60fcebda736e99e7729eb0c6,2021-10-19_12h45.37.722,forced_choiceRT,2021.1.2,MacIntel,60.0024001,,,,,,,,3,Ontime,h,0,2.0357,4,1,17,0,1,,,,,
,1.46,,,,,,,,,f.PNG,f,60fcebda736e99e7729eb0c6,2021-10-19_12h45.37.722,forced_choiceRT,2021.1.2,MacIntel,60.0024001,,,,,,,,3,Ontime,f,1,2.0642,4,2,18,0,1,,,,,
,0.12,,,,,,,,,g.PNG,g,60fcebda736e99e7729eb0c6,2021-10-19_12h45.37.722,forced_choiceRT,2021.1.2,MacIntel,60.0024001,,,,,,,,3,Fast,h,0,1.5846,4,3,19,1,1,,,,,
,0.84,,,,,,,,,g.PNG,g,60fcebda736e99e7729eb0c6,2021-10-19_12h45.37.722,forced_choiceRT,2021.1.2,MacIntel,60.0024001,,,,,,,,3,Ontime,h,0,2.0018,5,0,20,1,1,,,,,
,0.38,,,,,,,,,g.PNG,g,60fcebda736e99e7729eb0c6,2021-10-19_12h45.37.722,forced_choiceRT,2021.1.2,MacIntel,60.0024001,,,,,,,,3,Ontime,g,1,2.0018,5,1,21,1,1,,,,,
,0.69,,,,,,,,,h.PNG,h,60fcebda736e99e7729eb0c6,2021-10-19_12h45.37.722,forced_choiceRT,2021.1.2,MacIntel,60.0024001,,,,,,,,3,Ontime,h,1,2.0274,5,2,22,2,1,,,,,
,0.05,,,,,,,,,f.PNG,f,60fcebda736e99e7729eb0c6,2021-10-19_12h45.37.722,forced_choiceRT,2021.1.2,MacIntel,60.0024001,,,,,,,,3,Ontime,f,1,2.0527,5,3,23,0,1,,,,,
,0.78,,,,,,,,,f.PNG,f,60fcebda736e99e7729eb0c6,2021-10-19_12h45.37.722,forced_choiceRT,2021.1.2,MacIntel,60.0024001,,,,,,,,3,Ontime,f,1,1.986,6,0,24,0,1,,,,,
,0.53,,,,,,,,,j.PNG,j,60fcebda736e99e7729eb0c6,2021-10-19_12h45.37.722,forced_choiceRT,2021.1.2,MacIntel,60.0024001,,,,,,,,3,Ontime,j,1,2.0293,6,1,25,3,1,,,,,
,1.97,,,,,,,,,j.PNG,j,60fcebda736e99e7729eb0c6,2021-10-19_12h45.37.722,forced_choiceRT,2021.1.2,MacIntel,60.0024001,,,,,,,,3,Slow,h,0,2.1084,6,2,26,3,1,,,,,
,1.94,,,,,,,,,f.PNG,f,60fcebda736e99e7729eb0c6,2021-10-19_12h45.37.722,forced_choiceRT,2021.1.2,MacIntel,60.0024001,,,,,,,,3,Ontime,j,0,2.0483,6,3,27,0,1,,,,,
,1.73,,,,,,,,,h.PNG,h,60fcebda736e99e7729eb0c6,2021-10-19_12h45.37.722,forced_choiceRT,2021.1.2,MacIntel,60.0024001,,,,,,,,3,Ontime,f,0,2.0137,7,0,28,2,1,,,,,
,0.56,,,,,,,,,j.PNG,j,60fcebda736e99e7729eb0c6,2021-10-19_12h45.37.722,forced_choiceRT,2021.1.2,MacIntel,60.0024001,,,,,,,,3,Ontime,j,1,2.0114,7,1,29,3,1,,,,,
,1.54,,,,,,,,,g.PNG,g,60fcebda736e99e7729eb0c6,2021-10-19_12h45.37.722,forced_choiceRT,2021.1.2,MacIntel,60.0024001,,,,,,,,3,Slow,g,1,2.1577,7,2,30,1,1,,,,,
,0.2,,,,,,,,,j.PNG,j,60fcebda736e99e7729eb0c6,2021-10-19_12h45.37.722,forced_choiceRT,2021.1.2,MacIntel,60.0024001,,,,,,,,3,Ontime,j,1,2.0495,7,3,31,3,1,,,,,
,0.93,,,,,,,,,h.PNG,h,60fcebda736e99e7729eb0c6,2021-10-19_12h45.37.722,forced_choiceRT,2021.1.2,MacIntel,60.0024001,,,,,,,,3,Ontime,h,1,2.0537,8,0,32,2,1,,,,,
,1.03,,,,,,,,,h.PNG,h,60fcebda736e99e7729eb0c6,2021-10-19_12h45.37.722,forced_choiceRT,2021.1.2,MacIntel,60.0024001,,,,,,,,3,Slow,h,1,2.1002,8,1,33,2,1,,,,,
,1.54,,,,,,,,,g.PNG,g,60fcebda736e99e7729eb0c6,2021-10-19_12h45.37.722,forced_choiceRT,2021.1.2,MacIntel,60.0024001,,,,,,,,3,Slow,h,0,2.1016,8,2,34,1,1,,,,,
,1.81,,,,,,,,,g.PNG,g,60fcebda736e99e7729eb0c6,2021-10-19_12h45.37.722,forced_choiceRT,2021.1.2,MacIntel,60.0024001,,,,,,,,3,Slow,h,0,2.2659,8,3,35,1,1,,,,,
,1.93,,,,,,,,,f.PNG,f,60fcebda736e99e7729eb0c6,2021-10-19_12h45.37.722,forced_choiceRT,2021.1.2,MacIntel,60.0024001,,,,,,,,3,Ontime,g,0,2.0472,9,0,36,0,1,,,,,
,1.12,,,,,,,,,h.PNG,h,60fcebda736e99e7729eb0c6,2021-10-19_12h45.37.722,forced_choiceRT,2021.1.2,MacIntel,60.0024001,,,,,,,,3,Ontime,h,1,2.0766,9,1,37,2,1,,,,,
,0.47,,,,,,,,,j.PNG,j,60fcebda736e99e7729eb0c6,2021-10-19_12h45.37.722,forced_choiceRT,2021.1.2,MacIntel,60.0024001,,,,,,,,3,Ontime,j,1,2.0203,9,2,38,3,1,,,,,
,0.85,,,,,,,,,j.PNG,j,60fcebda736e99e7729eb0c6,2021-10-19_12h45.37.722,forced_choiceRT,2021.1.2,MacIntel,60.0024001,,,,,,,,3,Ontime,j,1,1.9033,9,3,39,3,1,,,,,
,,,,,,,,,,,,60fcebda736e99e7729eb0c6,2021-10-19_12h45.37.722,forced_choiceRT,2021.1.2,MacIntel,60.0024001,,,,,,,,,,,,,,,,,,2,0,2,0,1
,0.88,,,,,,,,,g.PNG,g,60fcebda736e99e7729eb0c6,2021-10-19_12h45.37.722,forced_choiceRT,2021.1.2,MacIntel,60.0024001,,,,,,,,4,Slow,g,1,2.1141,0,0,0,1,1,,,,,
,0.62,,,,,,,,,f.PNG,f,60fcebda736e99e7729eb0c6,2021-10-19_12h45.37.722,forced_choiceRT,2021.1.2,MacIntel,60.0024001,,,,,,,,4,Ontime,f,1,1.996,0,1,1,0,1,,,,,
,0.15,,,,,,,,,g.PNG,g,60fcebda736e99e7729eb0c6,2021-10-19_12h45.37.722,forced_choiceRT,2021.1.2,MacIntel,60.0024001,,,,,,,,4,Ontime,g,1,2.033,0,2,2,1,1,,,,,
,0.81,,,,,,,,,g.PNG,g,60fcebda736e99e7729eb0c6,2021-10-19_12h45.37.722,forced_choiceRT,2021.1.2,MacIntel,60.0024001,,,,,,,,4,Ontime,g,1,2.0662,0,3,3,1,1,,,,,
,0.59,,,,,,,,,f.PNG,f,60fcebda736e99e7729eb0c6,2021-10-19_12h45.37.722,forced_choiceRT,2021.1.2,MacIntel,60.0024001,,,,,,,,4,Ontime,f,1,2.0498,1,0,4,0,1,,,,,
,1.7,,,,,,,,,f.PNG,f,60fcebda736e99e7729eb0c6,2021-10-19_12h45.37.722,forced_choiceRT,2021.1.2,MacIntel,60.0024001,,,,,,,,4,Slow,h,0,2.2115,1,1,5,0,1,,,,,
,1.66,,,,,,,,,h.PNG,h,60fcebda736e99e7729eb0c6,2021-10-19_12h45.37.722,forced_choiceRT,2021.1.2,MacIntel,60.0024001,,,,,,,,4,Slow,j,0,2.2019,1,2,6,2,1,,,,,
,1.35,,,,,,,,,j.PNG,j,60fcebda736e99e7729eb0c6,2021-10-19_12h45.37.722,forced_choiceRT,2021.1.2,MacIntel,60.0024001,,,,,,,,4,Ontime,j,1,2.0684,1,3,7,3,1,,,,,
,1.72,,,,,,,,,j.PNG,j,60fcebda736e99e7729eb0c6,2021-10-19_12h45.37.722,forced_choiceRT,2021.1.2,MacIntel,60.0024001,,,,,,,,4,Ontime,f,0,2.0723,2,0,8,3,1,,,,,
,0.91,,,,,,,,,h.PNG,h,60fcebda736e99e7729eb0c6,2021-10-19_12h45.37.722,forced_choiceRT,2021.1.2,MacIntel,60.0024001,,,,,,,,4,Slow,h,1,2.1851,2,1,9,2,1,,,,,
,0.78,,,,,,,,,j.PNG,j,60fcebda736e99e7729eb0c6,2021-10-19_12h45.37.722,forced_choiceRT,2021.1.2,MacIntel,60.0024001,,,,,,,,4,Ontime,j,1,2.0214,2,2,10,3,1,,,,,
,0.16,,,,,,,,,h.PNG,h,60fcebda736e99e7729eb0c6,2021-10-19_12h45.37.722,forced_choiceRT,2021.1.2,MacIntel,60.0024001,,,,,,,,4,Ontime,h,1,2.0721,2,3,11,2,1,,,,,
,0.18,,,,,,,,,j.PNG,j,60fcebda736e99e7729eb0c6,2021-10-19_12h45.37.722,forced_choiceRT,2021.1.2,MacIntel,60.0024001,,,,,,,,4,Ontime,j,1,2.0954,3,0,12,3,1,,,,,
,0.06,,,,,,,,,g.PNG,g,60fcebda736e99e7729eb0c6,2021-10-19_12h45.37.722,forced_choiceRT,2021.1.2,MacIntel,60.0024001,,,,,,,,4,Ontime,g,1,2.0496,3,1,13,1,1,,,,,
,1.5,,,,,,,,,g.PNG,g,60fcebda736e99e7729eb0c6,2021-10-19_12h45.37.722,forced_choiceRT,2021.1.2,MacIntel,60.0024001,,,,,,,,4,Slow,g,1,2.1359,3,2,14,1,1,,,,,
,0.21,,,,,,,,,j.PNG,j,60fcebda736e99e7729eb0c6,2021-10-19_12h45.37.722,forced_choiceRT,2021.1.2,MacIntel,60.0024001,,,,,,,,4,Ontime,j,1,2.0728,3,3,15,3,1,,,,,
,1.55,,,,,,,,,g.PNG,g,60fcebda736e99e7729eb0c6,2021-10-19_12h45.37.722,forced_choiceRT,2021.1.2,MacIntel,60.0024001,,,,,,,,4,Slow,h,0,2.1169,4,0,16,1,1,,,,,
,1.72,,,,,,,,,h.PNG,h,60fcebda736e99e7729eb0c6,2021-10-19_12h45.37.722,forced_choiceRT,2021.1.2,MacIntel,60.0024001,,,,,,,,4,Ontime,g,0,2.0475,4,1,17,2,1,,,,,
,1.27,,,,,,,,,j.PNG,j,60fcebda736e99e7729eb0c6,2021-10-19_12h45.37.722,forced_choiceRT,2021.1.2,MacIntel,60.0024001,,,,,,,,4,Slow,j,1,2.1154,4,2,18,3,1,,,,,
,1.57,,,,,,,,,h.PNG,h,60fcebda736e99e7729eb0c6,2021-10-19_12h45.37.722,forced_choiceRT,2021.1.2,MacIntel,60.0024001,,,,,,,,4,Slow,j,0,2.117,4,3,19,2,1,,,,,
,1.01,,,,,,,,,h.PNG,h,60fcebda736e99e7729eb0c6,2021-10-19_12h45.37.722,forced_choiceRT,2021.1.2,MacIntel,60.0024001,,,,,,,,4,Ontime,h,1,2.0721,5,0,20,2,1,,,,,
,1.69,,,,,,,,,f.PNG,f,60fcebda736e99e7729eb0c6,2021-10-19_12h45.37.722,forced_choiceRT,2021.1.2,MacIntel,60.0024001,,,,,,,,4,Slow,g,0,2.3211,5,1,21,0,1,,,,,
,0,,,,,,,,,g.PNG,g,60fcebda736e99e7729eb0c6,2021-10-19_12h45.37.722,forced_choiceRT,2021.1.2,MacIntel,60.0024001,,,,,,,,4,Ontime,g,1,2.0769,5,2,22,1,1,,,,,
,1.17,,,,,,,,,j.PNG,j,60fcebda736e99e7729eb0c6,2021-10-19_12h45.37.722,forced_choiceRT,2021.1.2,MacIntel,60.0024001,,,,,,,,4,Ontime,j,1,2.068,5,3,23,3,1,,,,,
,1.58,,,,,,,,,j.PNG,j,60fcebda736e99e7729eb0c6,2021-10-19_12h45.37.722,forced_choiceRT,2021.1.2,MacIntel,60.0024001,,,,,,,,4,Slow,j,1,2.2782,6,0,24,3,1,,,,,
,0.4,,,,,,,,,g.PNG,g,60fcebda736e99e7729eb0c6,2021-10-19_12h45.37.722,forced_choiceRT,2021.1.2,MacIntel,60.0024001,,,,,,,,4,Ontime,g,1,2.0202,6,1,25,1,1,,,,,
,1.55,,,,,,,,,f.PNG,f,60fcebda736e99e7729eb0c6,2021-10-19_12h45.37.722,forced_choiceRT,2021.1.2,MacIntel,60.0024001,,,,,,,,4,Slow,f,1,2.1158,6,2,26,0,1,,,,,
,1.97,,,,,,,,,g.PNG,g,60fcebda736e99e7729eb0c6,2021-10-19_12h45.37.722,forced_choiceRT,2021.1.2,MacIntel,60.0024001,,,,,,,,4,Fast,f,0,1.7026,6,3,27,1,1,,,,,
,1.24,,,,,,,,,h.PNG,h,60fcebda736e99e7729eb0c6,2021-10-19_12h45.37.722,forced_choiceRT,2021.1.2,MacIntel,60.0024001,,,,,,,,4,Slow,g,0,7.6194,7,0,28,2,1,,,,,
,1.04,,,,,,,,,f.PNG,f,60fcebda736e99e7729eb0c6,2021-10-19_12h45.37.722,forced_choiceRT,2021.1.2,MacIntel,60.0024001,,,,,,,,4,Ontime,f,1,2.0689,7,1,29,0,1,,,,,
,1.25,,,,,,,,,h.PNG,h,60fcebda736e99e7729eb0c6,2021-10-19_12h45.37.722,forced_choiceRT,2021.1.2,MacIntel,60.0024001,,,,,,,,4,Ontime,h,1,2.0662,7,2,30,2,1,,,,,
,0.26,,,,,,,,,f.PNG,f,60fcebda736e99e7729eb0c6,2021-10-19_12h45.37.722,forced_choiceRT,2021.1.2,MacIntel,60.0024001,,,,,,,,4,Ontime,f,1,2.0426,7,3,31,0,1,,,,,
,1.13,,,,,,,,,h.PNG,h,60fcebda736e99e7729eb0c6,2021-10-19_12h45.37.722,forced_choiceRT,2021.1.2,MacIntel,60.0024001,,,,,,,,4,Slow,f,0,18.5312,8,0,32,2,1,,,,,
,1.26,,,,,,,,,g.PNG,g,60fcebda736e99e7729eb0c6,2021-10-19_12h45.37.722,forced_choiceRT,2021.1.2,MacIntel,60.0024001,,,,,,,,4,Ontime,g,1,2.0698,8,1,33,1,1,,,,,
,1.41,,,,,,,,,f.PNG,f,60fcebda736e99e7729eb0c6,2021-10-19_12h45.37.722,forced_choiceRT,2021.1.2,MacIntel,60.0024001,,,,,,,,4,Ontime,f,1,2.0892,8,2,34,0,1,,,,,
,1.12,,,,,,,,,f.PNG,f,60fcebda736e99e7729eb0c6,2021-10-19_12h45.37.722,forced_choiceRT,2021.1.2,MacIntel,60.0024001,,,,,,,,4,Ontime,f,1,2.0162,8,3,35,0,1,,,,,
,0.39,,,,,,,,,j.PNG,j,60fcebda736e99e7729eb0c6,2021-10-19_12h45.37.722,forced_choiceRT,2021.1.2,MacIntel,60.0024001,,,,,,,,4,Slow,j,1,2.1008,9,0,36,3,1,,,,,
,0.83,,,,,,,,,f.PNG,f,60fcebda736e99e7729eb0c6,2021-10-19_12h45.37.722,forced_choiceRT,2021.1.2,MacIntel,60.0024001,,,,,,,,4,Ontime,f,1,2.091,9,1,37,0,1,,,,,
,0.1,,,,,,,,,j.PNG,j,60fcebda736e99e7729eb0c6,2021-10-19_12h45.37.722,forced_choiceRT,2021.1.2,MacIntel,60.0024001,,,,,,,,4,Slow,j,1,2.1089,9,2,38,3,1,,,,,
,0.25,,,,,,,,,h.PNG,h,60fcebda736e99e7729eb0c6,2021-10-19_12h45.37.722,forced_choiceRT,2021.1.2,MacIntel,60.0024001,,,,,,,,4,Ontime,h,1,2.0715,9,3,39,2,1,,,,,
,,,,,,,,,,,,60fcebda736e99e7729eb0c6,2021-10-19_12h45.37.722,forced_choiceRT,2021.1.2,MacIntel,60.0024001,,,,,,,,,,,,,,,,,,3,0,3,0,1
,1.16,,,,,,,,,g.PNG,g,60fcebda736e99e7729eb0c6,2021-10-19_12h45.37.722,forced_choiceRT,2021.1.2,MacIntel,60.0024001,,,,,,,,5,Ontime,g,1,2.0651,0,0,0,1,1,,,,,
,0.73,,,,,,,,,j.PNG,j,60fcebda736e99e7729eb0c6,2021-10-19_12h45.37.722,forced_choiceRT,2021.1.2,MacIntel,60.0024001,,,,,,,,5,Fast,j,1,1.8982,0,1,1,3,1,,,,,
,0.64,,,,,,,,,j.PNG,j,60fcebda736e99e7729eb0c6,2021-10-19_12h45.37.722,forced_choiceRT,2021.1.2,MacIntel,60.0024001,,,,,,,,5,Ontime,h,0,2.0011,0,2,2,3,1,,,,,
,1.77,,,,,,,,,h.PNG,h,60fcebda736e99e7729eb0c6,2021-10-19_12h45.37.722,forced_choiceRT,2021.1.2,MacIntel,60.0024001,,,,,,,,5,Ontime,g,0,2.0667,0,3,3,2,1,,,,,
,0.7,,,,,,,,,g.PNG,g,60fcebda736e99e7729eb0c6,2021-10-19_12h45.37.722,forced_choiceRT,2021.1.2,MacIntel,60.0024001,,,,,,,,5,Ontime,g,1,2.0351,1,0,4,1,1,,,,,
,0.6,,,,,,,,,h.PNG,h,60fcebda736e99e7729eb0c6,2021-10-19_12h45.37.722,forced_choiceRT,2021.1.2,MacIntel,60.0024001,,,,,,,,5,Ontime,h,1,1.9976,1,1,5,2,1,,,,,
,0.75,,,,,,,,,f.PNG,f,60fcebda736e99e7729eb0c6,2021-10-19_12h45.37.722,forced_choiceRT,2021.1.2,MacIntel,60.0024001,,,,,,,,5,Ontime,f,1,2.0481,1,2,6,0,1,,,,,
,0.26,,,,,,,,,f.PNG,f,60fcebda736e99e7729eb0c6,2021-10-19_12h45.37.722,forced_choiceRT,2021.1.2,MacIntel,60.0024001,,,,,,,,5,Ontime,f,1,2.0225,1,3,7,0,1,,,,,
,0.93,,,,,,,,,f.PNG,f,60fcebda736e99e7729eb0c6,2021-10-19_12h45.37.722,forced_choiceRT,2021.1.2,MacIntel,60.0024001,,,,,,,,5,Ontime,f,1,2.0049,2,0,8,0,1,,,,,
,0.24,,,,,,,,,h.PNG,h,60fcebda736e99e7729eb0c6,2021-10-19_12h45.37.722,forced_choiceRT,2021.1.2,MacIntel,60.0024001,,,,,,,,5,Ontime,h,1,1.9729,2,1,9,2,1,,,,,
,0.75,,,,,,,,,j.PNG,j,60fcebda736e99e7729eb0c6,2021-10-19_12h45.37.722,forced_choiceRT,2021.1.2,MacIntel,60.0024001,,,,,,,,5,Ontime,j,1,2.0647,2,2,10,3,1,,,,,
,1.97,,,,,,,,,h.PNG,h,60fcebda736e99e7729eb0c6,2021-10-19_12h45.37.722,forced_choiceRT,2021.1.2,MacIntel,60.0024001,,,,,,,,5,Slow,j,0,2.1333,2,3,11,2,1,,,,,
,1.1,,,,,,,,,f.PNG,f,60fcebda736e99e7729eb0c6,2021-10-19_12h45.37.722,forced_choiceRT,2021.1.2,MacIntel,60.0024001,,,,,,,,5,Ontime,f,1,2.0573,3,0,12,0,1,,,,,
,0.4,,,,,,,,,j.PNG,j,60fcebda736e99e7729eb0c6,2021-10-19_12h45.37.722,forced_choiceRT,2021.1.2,MacIntel,60.0024001,,,,,,,,5,Slow,j,1,2.1068,3,1,13,3,1,,,,,
,0.76,,,,,,,,,f.PNG,f,60fcebda736e99e7729eb0c6,2021-10-19_12h45.37.722,forced_choiceRT,2021.1.2,MacIntel,60.0024001,,,,,,,,5,Ontime,f,1,2.0008,3,2,14,0,1,,,,,
,1.21,,,,,,,,,g.PNG,g,60fcebda736e99e7729eb0c6,2021-10-19_12h45.37.722,forced_choiceRT,2021.1.2,MacIntel,60.0024001,,,,,,,,5,Ontime,g,1,2.0832,3,3,15,1,1,,,,,
,1.73,,,,,,,,,f.PNG,f,60fcebda736e99e7729eb0c6,2021-10-19_12h45.37.722,forced_choiceRT,2021.1.2,MacIntel,60.0024001,,,,,,,,5,Ontime,h,0,2.0745,4,0,16,0,1,,,,,
,0.07,,,,,,,,,g.PNG,g,60fcebda736e99e7729eb0c6,2021-10-19_12h45.37.722,forced_choiceRT,2021.1.2,MacIntel,60.0024001,,,,,,,,5,Ontime,g,1,2.0279,4,1,17,1,1,,,,,
,1.64,,,,,,,,,j.PNG,j,60fcebda736e99e7729eb0c6,2021-10-19_12h45.37.722,forced_choiceRT,2021.1.2,MacIntel,60.0024001,,,,,,,,5,Slow,h,0,2.2212,4,2,18,3,1,,,,,
,1.61,,,,,,,,,j.PNG,j,60fcebda736e99e7729eb0c6,2021-10-19_12h45.37.722,forced_choiceRT,2021.1.2,MacIntel,60.0024001,,,,,,,,5,Slow,h,0,2.1265,4,3,19,3,1,,,,,
,1.13,,,,,,,,,g.PNG,g,60fcebda736e99e7729eb0c6,2021-10-19_12h45.37.722,forced_choiceRT,2021.1.2,MacIntel,60.0024001,,,,,,,,5,Ontime,g,1,2.0223,5,0,20,1,1,,,,,
,1.32,,,,,,,,,h.PNG,h,60fcebda736e99e7729eb0c6,2021-10-19_12h45.37.722,forced_choiceRT,2021.1.2,MacIntel,60.0024001,,,,,,,,5,Ontime,g,0,1.9674,5,1,21,2,1,,,,,
,0.09,,,,,,,,,h.PNG,h,60fcebda736e99e7729eb0c6,2021-10-19_12h45.37.722,forced_choiceRT,2021.1.2,MacIntel,60.0024001,,,,,,,,5,Ontime,h,1,2.0191,5,2,22,2,1,,,,,
,0.19,,,,,,,,,j.PNG,j,60fcebda736e99e7729eb0c6,2021-10-19_12h45.37.722,forced_choiceRT,2021.1.2,MacIntel,60.0024001,,,,,,,,5,Ontime,j,1,2.0026,5,3,23,3,1,,,,,
,1.29,,,,,,,,,h.PNG,h,60fcebda736e99e7729eb0c6,2021-10-19_12h45.37.722,forced_choiceRT,2021.1.2,MacIntel,60.0024001,,,,,,,,5,Ontime,h,1,1.993,6,0,24,2,1,,,,,
,1.69,,,,,,,,,g.PNG,g,60fcebda736e99e7729eb0c6,2021-10-19_12h45.37.722,forced_choiceRT,2021.1.2,MacIntel,60.0024001,,,,,,,,5,Slow,h,0,2.1254,6,1,25,1,1,,,,,
,1.07,,,,,,,,,f.PNG,f,60fcebda736e99e7729eb0c6,2021-10-19_12h45.37.722,forced_choiceRT,2021.1.2,MacIntel,60.0024001,,,,,,,,5,Ontime,f,1,2.0686,6,2,26,0,1,,,,,
,1.57,,,,,,,,,j.PNG,j,60fcebda736e99e7729eb0c6,2021-10-19_12h45.37.722,forced_choiceRT,2021.1.2,MacIntel,60.0024001,,,,,,,,5,Slow,f,0,2.1117,6,3,27,3,1,,,,,
,1.23,,,,,,,,,g.PNG,g,60fcebda736e99e7729eb0c6,2021-10-19_12h45.37.722,forced_choiceRT,2021.1.2,MacIntel,60.0024001,,,,,,,,5,Ontime,g,1,2.0765,7,0,28,1,1,,,,,
,0.58,,,,,,,,,f.PNG,f,60fcebda736e99e7729eb0c6,2021-10-19_12h45.37.722,forced_choiceRT,2021.1.2,MacIntel,60.0024001,,,,,,,,5,Slow,f,1,2.102,7,1,29,0,1,,,,,
,1.78,,,,,,,,,h.PNG,h,60fcebda736e99e7729eb0c6,2021-10-19_12h45.37.722,forced_choiceRT,2021.1.2,MacIntel,60.0024001,,,,,,,,5,Ontime,f,0,2.0285,7,2,30,2,1,,,,,
,0.59,,,,,,,,,h.PNG,h,60fcebda736e99e7729eb0c6,2021-10-19_12h45.37.722,forced_choiceRT,2021.1.2,MacIntel,60.0024001,,,,,,,,5,Ontime,h,1,2.0362,7,3,31,2,1,,,,,
,0.68,,,,,,,,,j.PNG,j,60fcebda736e99e7729eb0c6,2021-10-19_12h45.37.722,forced_choiceRT,2021.1.2,MacIntel,60.0024001,,,,,,,,5,Ontime,j,1,1.9846,8,0,32,3,1,,,,,
,0.28,,,,,,,,,g.PNG,g,60fcebda736e99e7729eb0c6,2021-10-19_12h45.37.722,forced_choiceRT,2021.1.2,MacIntel,60.0024001,,,,,,,,5,Ontime,g,1,1.908,8,1,33,1,1,,,,,
,1.54,,,,,,,,,f.PNG,f,60fcebda736e99e7729eb0c6,2021-10-19_12h45.37.722,forced_choiceRT,2021.1.2,MacIntel,60.0024001,,,,,,,,5,Slow,f,1,2.1105,8,2,34,0,1,,,,,
,0.29,,,,,,,,,g.PNG,g,60fcebda736e99e7729eb0c6,2021-10-19_12h45.37.722,forced_choiceRT,2021.1.2,MacIntel,60.0024001,,,,,,,,5,Ontime,g,1,1.9917,8,3,35,1,1,,,,,
,1.86,,,,,,,,,g.PNG,g,60fcebda736e99e7729eb0c6,2021-10-19_12h45.37.722,forced_choiceRT,2021.1.2,MacIntel,60.0024001,,,,,,,,5,Ontime,g,1,2.0587,9,0,36,1,1,,,,,
,0.4,,,,,,,,,j.PNG,j,60fcebda736e99e7729eb0c6,2021-10-19_12h45.37.722,forced_choiceRT,2021.1.2,MacIntel,60.0024001,,,,,,,,5,Ontime,j,1,2.0216,9,1,37,3,1,,,,,
,0.22,,,,,,,,,h.PNG,h,60fcebda736e99e7729eb0c6,2021-10-19_12h45.37.722,forced_choiceRT,2021.1.2,MacIntel,60.0024001,,,,,,,,5,Ontime,h,1,2.0241,9,2,38,2,1,,,,,
,0.02,,,,,,,,,f.PNG,f,60fcebda736e99e7729eb0c6,2021-10-19_12h45.37.722,forced_choiceRT,2021.1.2,MacIntel,60.0024001,,,,,,,,5,Ontime,f,1,2.017,9,3,39,0,1,,,,,
,,,,,,,,,,,,60fcebda736e99e7729eb0c6,2021-10-19_12h45.37.722,forced_choiceRT,2021.1.2,MacIntel,60.0024001,,,,,,,,,,,,,,,,,,4,0,4,0,1
,1.45,,,,,,,,,g.PNG,g,60fcebda736e99e7729eb0c6,2021-10-19_12h45.37.722,forced_choiceRT,2021.1.2,MacIntel,60.0024001,,,,,,,,6,Slow,g,1,2.2794,0,0,0,1,1,,,,,
,1.47,,,,,,,,,f.PNG,f,60fcebda736e99e7729eb0c6,2021-10-19_12h45.37.722,forced_choiceRT,2021.1.2,MacIntel,60.0024001,,,,,,,,6,Ontime,g,0,2.0711,0,1,1,0,1,,,,,
,1.4,,,,,,,,,f.PNG,f,60fcebda736e99e7729eb0c6,2021-10-19_12h45.37.722,forced_choiceRT,2021.1.2,MacIntel,60.0024001,,,,,,,,6,Ontime,f,1,2.0456,0,2,2,0,1,,,,,
,1.7,,,,,,,,,j.PNG,j,60fcebda736e99e7729eb0c6,2021-10-19_12h45.37.722,forced_choiceRT,2021.1.2,MacIntel,60.0024001,,,,,,,,6,Ontime,h,0,1.9652,0,3,3,3,1,,,,,
,0.55,,,,,,,,,j.PNG,j,60fcebda736e99e7729eb0c6,2021-10-19_12h45.37.722,forced_choiceRT,2021.1.2,MacIntel,60.0024001,,,,,,,,6,Ontime,j,1,2.0206,1,0,4,3,1,,,,,
,0.34,,,,,,,,,h.PNG,h,60fcebda736e99e7729eb0c6,2021-10-19_12h45.37.722,forced_choiceRT,2021.1.2,MacIntel,60.0024001,,,,,,,,6,Ontime,h,1,2.0137,1,1,5,2,1,,,,,
,1.53,,,,,,,,,h.PNG,h,60fcebda736e99e7729eb0c6,2021-10-19_12h45.37.722,forced_choiceRT,2021.1.2,MacIntel,60.0024001,,,,,,,,6,Ontime,h,1,2.0953,1,2,6,2,1,,,,,
,1.31,,,,,,,,,g.PNG,g,60fcebda736e99e7729eb0c6,2021-10-19_12h45.37.722,forced_choiceRT,2021.1.2,MacIntel,60.0024001,,,,,,,,6,Ontime,g,1,2.0541,1,3,7,1,1,,,,,
,0.62,,,,,,,,,f.PNG,f,60fcebda736e99e7729eb0c6,2021-10-19_12h45.37.722,forced_choiceRT,2021.1.2,MacIntel,60.0024001,,,,,,,,6,Ontime,f,1,2.0646,2,0,8,0,1,,,,,
,1.86,,,,,,,,,g.PNG,g,60fcebda736e99e7729eb0c6,2021-10-19_12h45.37.722,forced_choiceRT,2021.1.2,MacIntel,60.0024001,,,,,,,,6,Ontime,g,1,2.0876,2,1,9,1,1,,,,,
,1.77,,,,,,,,,h.PNG,h,60fcebda736e99e7729eb0c6,2021-10-19_12h45.37.722,forced_choiceRT,2021.1.2,MacIntel,60.0024001,,,,,,,,6,Ontime,h,1,2.0854,2,2,10,2,1,,,,,
,1.86,,,,,,,,,g.PNG,g,60fcebda736e99e7729eb0c6,2021-10-19_12h45.37.722,forced_choiceRT,2021.1.2,MacIntel,60.0024001,,,,,,,,6,Slow,j,0,2.1019,2,3,11,1,1,,,,,
,1.3,,,,,,,,,g.PNG,g,60fcebda736e99e7729eb0c6,2021-10-19_12h45.37.722,forced_choiceRT,2021.1.2,MacIntel,60.0024001,,,,,,,,6,Ontime,g,1,2.0058,3,0,12,1,1,,,,,
,1.81,,,,,,,,,j.PNG,j,60fcebda736e99e7729eb0c6,2021-10-19_12h45.37.722,forced_choiceRT,2021.1.2,MacIntel,60.0024001,,,,,,,,6,Ontime,h,0,2.046,3,1,13,3,1,,,,,
,1.21,,,,,,,,,h.PNG,h,60fcebda736e99e7729eb0c6,2021-10-19_12h45.37.722,forced_choiceRT,2021.1.2,MacIntel,60.0024001,,,,,,,,6,Ontime,h,1,2.0808,3,2,14,2,1,,,,,
,0.71,,,,,,,,,g.PNG,g,60fcebda736e99e7729eb0c6,2021-10-19_12h45.37.722,forced_choiceRT,2021.1.2,MacIntel,60.0024001,,,,,,,,6,Ontime,g,1,2.0284,3,3,15,1,1,,,,,
,1.22,,,,,,,,,f.PNG,f,60fcebda736e99e7729eb0c6,2021-10-19_12h45.37.722,forced_choiceRT,2021.1.2,MacIntel,60.0024001,,,,,,,,6,Ontime,f,1,2.0673,4,0,16,0,1,,,,,
,0.21,,,,,,,,,g.PNG,g,60fcebda736e99e7729eb0c6,2021-10-19_12h45.37.722,forced_choiceRT,2021.1.2,MacIntel,60.0024001,,,,,,,,6,Ontime,g,1,2.0525,4,1,17,1,1,,,,,
,1.64,,,,,,,,,j.PNG,j,60fcebda736e99e7729eb0c6,2021-10-19_12h45.37.722,forced_choiceRT,2021.1.2,MacIntel,60.0024001,,,,,,,,6,Slow,j,1,2.1843,4,2,18,3,1,,,,,
,1.52,,,,,,,,,j.PNG,j,60fcebda736e99e7729eb0c6,2021-10-19_12h45.37.722,forced_choiceRT,2021.1.2,MacIntel,60.0024001,,,,,,,,6,Ontime,j,1,2.0861,4,3,19,3,1,,,,,
,0.5,,,,,,,,,g.PNG,g,60fcebda736e99e7729eb0c6,2021-10-19_12h45.37.722,forced_choiceRT,2021.1.2,MacIntel,60.0024001,,,,,,,,6,Ontime,g,1,2.0554,5,0,20,1,1,,,,,
,0.45,,,,,,,,,h.PNG,h,60fcebda736e99e7729eb0c6,2021-10-19_12h45.37.722,forced_choiceRT,2021.1.2,MacIntel,60.0024001,,,,,,,,6,Ontime,h,1,2.0479,5,1,21,2,1,,,,,
,1.62,,,,,,,,,f.PNG,f,60fcebda736e99e7729eb0c6,2021-10-19_12h45.37.722,forced_choiceRT,2021.1.2,MacIntel,60.0024001,,,,,,,,6,Slow,j,0,2.1113,5,2,22,0,1,,,,,
,1.02,,,,,,,,,j.PNG,j,60fcebda736e99e7729eb0c6,2021-10-19_12h45.37.722,forced_choiceRT,2021.1.2,MacIntel,60.0024001,,,,,,,,6,Ontime,j,1,2.0419,5,3,23,3,1,,,,,
,0.04,,,,,,,,,g.PNG,g,60fcebda736e99e7729eb0c6,2021-10-19_12h45.37.722,forced_choiceRT,2021.1.2,MacIntel,60.0024001,,,,,,,,6,Ontime,g,1,2.0146,6,0,24,1,1,,,,,
,0.62,,,,,,,,,h.PNG,h,60fcebda736e99e7729eb0c6,2021-10-19_12h45.37.722,forced_choiceRT,2021.1.2,MacIntel,60.0024001,,,,,,,,6,Slow,h,1,2.108,6,1,25,2,1,,,,,
,1.13,,,,,,,,,j.PNG,j,60fcebda736e99e7729eb0c6,2021-10-19_12h45.37.722,forced_choiceRT,2021.1.2,MacIntel,60.0024001,,,,,,,,6,Ontime,j,1,2.0569,6,2,26,3,1,,,,,
,1.31,,,,,,,,,f.PNG,f,60fcebda736e99e7729eb0c6,2021-10-19_12h45.37.722,forced_choiceRT,2021.1.2,MacIntel,60.0024001,,,,,,,,6,Ontime,f,1,2.0476,6,3,27,0,1,,,,,
,1.13,,,,,,,,,h.PNG,h,60fcebda736e99e7729eb0c6,2021-10-19_12h45.37.722,forced_choiceRT,2021.1.2,MacIntel,60.0024001,,,,,,,,6,Ontime,h,1,2.0448,7,0,28,2,1,,,,,
,0.42,,,,,,,,,f.PNG,f,60fcebda736e99e7729eb0c6,2021-10-19_12h45.37.722,forced_choiceRT,2021.1.2,MacIntel,60.0024001,,,,,,,,6,Ontime,f,1,2.0378,7,1,29,0,1,,,,,
,1.76,,,,,,,,,h.PNG,h,60fcebda736e99e7729eb0c6,2021-10-19_12h45.37.722,forced_choiceRT,2021.1.2,MacIntel,60.0024001,,,,,,,,6,Ontime,j,0,2.0167,7,2,30,2,1,,,,,
,0.85,,,,,,,,,h.PNG,h,60fcebda736e99e7729eb0c6,2021-10-19_12h45.37.722,forced_choiceRT,2021.1.2,MacIntel,60.0024001,,,,,,,,6,Ontime,h,1,2.0702,7,3,31,2,1,,,,,
,1.43,,,,,,,,,g.PNG,g,60fcebda736e99e7729eb0c6,2021-10-19_12h45.37.722,forced_choiceRT,2021.1.2,MacIntel,60.0024001,,,,,,,,6,Ontime,g,1,2.0697,8,0,32,1,1,,,,,
,0.39,,,,,,,,,f.PNG,f,60fcebda736e99e7729eb0c6,2021-10-19_12h45.37.722,forced_choiceRT,2021.1.2,MacIntel,60.0024001,,,,,,,,6,Ontime,f,1,2.0713,8,1,33,0,1,,,,,
,1.12,,,,,,,,,j.PNG,j,60fcebda736e99e7729eb0c6,2021-10-19_12h45.37.722,forced_choiceRT,2021.1.2,MacIntel,60.0024001,,,,,,,,6,Slow,j,1,2.114,8,2,34,3,1,,,,,
,1.18,,,,,,,,,j.PNG,j,60fcebda736e99e7729eb0c6,2021-10-19_12h45.37.722,forced_choiceRT,2021.1.2,MacIntel,60.0024001,,,,,,,,6,Ontime,j,1,2.035,8,3,35,3,1,,,,,
,0.28,,,,,,,,,f.PNG,f,60fcebda736e99e7729eb0c6,2021-10-19_12h45.37.722,forced_choiceRT,2021.1.2,MacIntel,60.0024001,,,,,,,,6,Ontime,f,1,1.9899,9,0,36,0,1,,,,,
,1.69,,,,,,,,,f.PNG,f,60fcebda736e99e7729eb0c6,2021-10-19_12h45.37.722,forced_choiceRT,2021.1.2,MacIntel,60.0024001,,,,,,,,6,Ontime,j,0,2.0908,9,1,37,0,1,,,,,
,0.16,,,,,,,,,j.PNG,j,60fcebda736e99e7729eb0c6,2021-10-19_12h45.37.722,forced_choiceRT,2021.1.2,MacIntel,60.0024001,,,,,,,,6,Ontime,j,1,2.0858,9,2,38,3,1,,,,,
,1.75,,,,,,,,,h.PNG,h,60fcebda736e99e7729eb0c6,2021-10-19_12h45.37.722,forced_choiceRT,2021.1.2,MacIntel,60.0024001,,,,,,,,6,Slow,j,0,3.0515,9,3,39,2,1,,,,,
,,,,,,,,,,,,60fcebda736e99e7729eb0c6,2021-10-19_12h45.37.722,forced_choiceRT,2021.1.2,MacIntel,60.0024001,,,,,,,,,,,,,,,,,,5,0,5,0,1
,0.31,,,,,,,,,f.PNG,f,60fcebda736e99e7729eb0c6,2021-10-19_12h45.37.722,forced_choiceRT,2021.1.2,MacIntel,60.0024001,,,,,,,,7,Ontime,f,1,1.9832,0,0,0,0,1,,,,,
,0.63,,,,,,,,,g.PNG,g,60fcebda736e99e7729eb0c6,2021-10-19_12h45.37.722,forced_choiceRT,2021.1.2,MacIntel,60.0024001,,,,,,,,7,Ontime,g,1,1.9903,0,1,1,1,1,,,,,
,0.93,,,,,,,,,f.PNG,f,60fcebda736e99e7729eb0c6,2021-10-19_12h45.37.722,forced_choiceRT,2021.1.2,MacIntel,60.0024001,,,,,,,,7,Ontime,f,1,1.9196,0,2,2,0,1,,,,,
,0.02,,,,,,,,,g.PNG,g,60fcebda736e99e7729eb0c6,2021-10-19_12h45.37.722,forced_choiceRT,2021.1.2,MacIntel,60.0024001,,,,,,,,7,Fast,g,1,1.6031,0,3,3,1,1,,,,,
,0.65,,,,,,,,,h.PNG,h,60fcebda736e99e7729eb0c6,2021-10-19_12h45.37.722,forced_choiceRT,2021.1.2,MacIntel,60.0024001,,,,,,,,7,Ontime,h,1,2.0032,1,0,4,2,1,,,,,
,0.27,,,,,,,,,j.PNG,j,60fcebda736e99e7729eb0c6,2021-10-19_12h45.37.722,forced_choiceRT,2021.1.2,MacIntel,60.0024001,,,,,,,,7,Fast,j,1,1.7859,1,1,5,3,1,,,,,
,1.78,,,,,,,,,j.PNG,j,60fcebda736e99e7729eb0c6,2021-10-19_12h45.37.722,forced_choiceRT,2021.1.2,MacIntel,60.0024001,,,,,,,,7,Slow,j,1,3.0501,1,2,6,3,1,,,,,
,0.55,,,,,,,,,f.PNG,f,60fcebda736e99e7729eb0c6,2021-10-19_12h45.37.722,forced_choiceRT,2021.1.2,MacIntel,60.0024001,,,,,,,,7,Ontime,f,1,2.0637,1,3,7,0,1,,,,,
,1.37,,,,,,,,,h.PNG,h,60fcebda736e99e7729eb0c6,2021-10-19_12h45.37.722,forced_choiceRT,2021.1.2,MacIntel,60.0024001,,,,,,,,7,Ontime,h,1,2.0803,2,0,8,2,1,,,,,
,0.35,,,,,,,,,g.PNG,g,60fcebda736e99e7729eb0c6,2021-10-19_12h45.37.722,forced_choiceRT,2021.1.2,MacIntel,60.0024001,,,,,,,,7,Ontime,g,1,2.006,2,1,9,1,1,,,,,
,0.06,,,,,,,,,g.PNG,g,60fcebda736e99e7729eb0c6,2021-10-19_12h45.37.722,forced_choiceRT,2021.1.2,MacIntel,60.0024001,,,,,,,,7,Ontime,g,1,1.9937,2,2,10,1,1,,,,,
,0.55,,,,,,,,,h.PNG,h,60fcebda736e99e7729eb0c6,2021-10-19_12h45.37.722,forced_choiceRT,2021.1.2,MacIntel,60.0024001,,,,,,,,7,Ontime,h,1,2.0861,2,3,11,2,1,,,,,
,1.11,,,,,,,,,g.PNG,g,60fcebda736e99e7729eb0c6,2021-10-19_12h45.37.722,forced_choiceRT,2021.1.2,MacIntel,60.0024001,,,,,,,,7,Ontime,g,1,2.0484,3,0,12,1,1,,,,,
,1.46,,,,,,,,,f.PNG,f,60fcebda736e99e7729eb0c6,2021-10-19_12h45.37.722,forced_choiceRT,2021.1.2,MacIntel,60.0024001,,,,,,,,7,Fast,h,0,1.6644,3,1,13,0,1,,,,,
,0.09,,,,,,,,,f.PNG,f,60fcebda736e99e7729eb0c6,2021-10-19_12h45.37.722,forced_choiceRT,2021.1.2,MacIntel,60.0024001,,,,,,,,7,Slow,f,1,2.1051,3,2,14,0,1,,,,,
,0.53,,,,,,,,,j.PNG,j,60fcebda736e99e7729eb0c6,2021-10-19_12h45.37.722,forced_choiceRT,2021.1.2,MacIntel,60.0024001,,,,,,,,7,Ontime,j,1,1.98,3,3,15,3,1,,,,,
,1.95,,,,,,,,,g.PNG,g,60fcebda736e99e7729eb0c6,2021-10-19_12h45.37.722,forced_choiceRT,2021.1.2,MacIntel,60.0024001,,,,,,,,7,Ontime,j,0,2.0313,4,0,16,1,1,,,,,
,0.88,,,,,,,,,g.PNG,g,60fcebda736e99e7729eb0c6,2021-10-19_12h45.37.722,forced_choiceRT,2021.1.2,MacIntel,60.0024001,,,,,,,,7,Ontime,g,1,1.9396,4,1,17,1,1,,,,,
,0.14,,,,,,,,,h.PNG,h,60fcebda736e99e7729eb0c6,2021-10-19_12h45.37.722,forced_choiceRT,2021.1.2,MacIntel,60.0024001,,,,,,,,7,Ontime,h,1,1.9625,4,2,18,2,1,,,,,
,0.04,,,,,,,,,g.PNG,g,60fcebda736e99e7729eb0c6,2021-10-19_12h45.37.722,forced_choiceRT,2021.1.2,MacIntel,60.0024001,,,,,,,,7,Ontime,g,1,1.9453,4,3,19,1,1,,,,,
,1.04,,,,,,,,,j.PNG,j,60fcebda736e99e7729eb0c6,2021-10-19_12h45.37.722,forced_choiceRT,2021.1.2,MacIntel,60.0024001,,,,,,,,7,Ontime,j,1,1.9978,5,0,20,3,1,,,,,
,1.93,,,,,,,,,f.PNG,f,60fcebda736e99e7729eb0c6,2021-10-19_12h45.37.722,forced_choiceRT,2021.1.2,MacIntel,60.0024001,,,,,,,,7,Ontime,j,0,2.041,5,1,21,0,1,,,,,
,1.72,,,,,,,,,f.PNG,f,60fcebda736e99e7729eb0c6,2021-10-19_12h45.37.722,forced_choiceRT,2021.1.2,MacIntel,60.0024001,,,,,,,,7,Ontime,j,0,2.0339,5,2,22,0,1,,,,,
,1.15,,,,,,,,,h.PNG,h,60fcebda736e99e7729eb0c6,2021-10-19_12h45.37.722,forced_choiceRT,2021.1.2,MacIntel,60.0024001,,,,,,,,7,Ontime,h,1,1.9835,5,3,23,2,1,,,,,
,1.84,,,,,,,,,j.PNG,j,60fcebda736e99e7729eb0c6,2021-10-19_12h45.37.722,forced_choiceRT,2021.1.2,MacIntel,60.0024001,,,,,,,,7,Ontime,g,0,1.9633,6,0,24,3,1,,,,,
,0.13,,,,,,,,,h.PNG,h,60fcebda736e99e7729eb0c6,2021-10-19_12h45.37.722,forced_choiceRT,2021.1.2,MacIntel,60.0024001,,,,,,,,7,Ontime,h,1,1.9709,6,1,25,2,1,,,,,
,0.82,,,,,,,,,h.PNG,h,60fcebda736e99e7729eb0c6,2021-10-19_12h45.37.722,forced_choiceRT,2021.1.2,MacIntel,60.0024001,,,,,,,,7,Ontime,h,1,2.0212,6,2,26,2,1,,,,,
,0.13,,,,,,,,,j.PNG,j,60fcebda736e99e7729eb0c6,2021-10-19_12h45.37.722,forced_choiceRT,2021.1.2,MacIntel,60.0024001,,,,,,,,7,Ontime,j,1,2.053,6,3,27,3,1,,,,,
,0.94,,,,,,,,,g.PNG,g,60fcebda736e99e7729eb0c6,2021-10-19_12h45.37.722,forced_choiceRT,2021.1.2,MacIntel,60.0024001,,,,,,,,7,Ontime,g,1,2.0012,7,0,28,1,1,,,,,
,0.63,,,,,,,,,h.PNG,h,60fcebda736e99e7729eb0c6,2021-10-19_12h45.37.722,forced_choiceRT,2021.1.2,MacIntel,60.0024001,,,,,,,,7,Ontime,h,1,2.0666,7,1,29,2,1,,,,,
,0.43,,,,,,,,,h.PNG,h,60fcebda736e99e7729eb0c6,2021-10-19_12h45.37.722,forced_choiceRT,2021.1.2,MacIntel,60.0024001,,,,,,,,7,Ontime,h,1,2.0198,7,2,30,2,1,,,,,
,1.43,,,,,,,,,g.PNG,g,60fcebda736e99e7729eb0c6,2021-10-19_12h45.37.722,forced_choiceRT,2021.1.2,MacIntel,60.0024001,,,,,,,,7,Slow,g,1,2.3035,7,3,31,1,1,,,,,
,1.32,,,,,,,,,j.PNG,j,60fcebda736e99e7729eb0c6,2021-10-19_12h45.37.722,forced_choiceRT,2021.1.2,MacIntel,60.0024001,,,,,,,,7,Ontime,h,0,2.0641,8,0,32,3,1,,,,,
,1.36,,,,,,,,,f.PNG,f,60fcebda736e99e7729eb0c6,2021-10-19_12h45.37.722,forced_choiceRT,2021.1.2,MacIntel,60.0024001,,,,,,,,7,Ontime,f,1,2.0157,8,1,33,0,1,,,,,
,0.22,,,,,,,,,f.PNG,f,60fcebda736e99e7729eb0c6,2021-10-19_12h45.37.722,forced_choiceRT,2021.1.2,MacIntel,60.0024001,,,,,,,,7,Ontime,f,1,2.0034,8,2,34,0,1,,,,,
,0.41,,,,,,,,,j.PNG,j,60fcebda736e99e7729eb0c6,2021-10-19_12h45.37.722,forced_choiceRT,2021.1.2,MacIntel,60.0024001,,,,,,,,7,Ontime,j,1,1.9349,8,3,35,3,1,,,,,
,0.07,,,,,,,,,j.PNG,j,60fcebda736e99e7729eb0c6,2021-10-19_12h45.37.722,forced_choiceRT,2021.1.2,MacIntel,60.0024001,,,,,,,,7,Ontime,j,1,1.9999,9,0,36,3,1,,,,,
,0.86,,,,,,,,,f.PNG,f,60fcebda736e99e7729eb0c6,2021-10-19_12h45.37.722,forced_choiceRT,2021.1.2,MacIntel,60.0024001,,,,,,,,7,Ontime,f,1,2.0125,9,1,37,0,1,,,,,
,0.4,,,,,,,,,h.PNG,h,60fcebda736e99e7729eb0c6,2021-10-19_12h45.37.722,forced_choiceRT,2021.1.2,MacIntel,60.0024001,,,,,,,,7,Ontime,h,1,1.9438,9,2,38,2,1,,,,,
,1.74,,,,,,,,,j.PNG,j,60fcebda736e99e7729eb0c6,2021-10-19_12h45.37.722,forced_choiceRT,2021.1.2,MacIntel,60.0024001,,,,,,,,7,Ontime,j,1,2.0368,9,3,39,3,1,,,,,
,,,,,,,,,,,,60fcebda736e99e7729eb0c6,2021-10-19_12h45.37.722,forced_choiceRT,2021.1.2,MacIntel,60.0024001,,,,,,,,,,,,,,,,,,6,0,6,0,1
,0.27,,,,,,,,,f.PNG,f,60fcebda736e99e7729eb0c6,2021-10-19_12h45.37.722,forced_choiceRT,2021.1.2,MacIntel,60.0024001,,,,,,,,8,Ontime,f,1,2.0333,0,0,0,0,1,,,,,
,0.98,,,,,,,,,f.PNG,f,60fcebda736e99e7729eb0c6,2021-10-19_12h45.37.722,forced_choiceRT,2021.1.2,MacIntel,60.0024001,,,,,,,,8,Ontime,f,1,2.0612,0,1,1,0,1,,,,,
,1.78,,,,,,,,,h.PNG,h,60fcebda736e99e7729eb0c6,2021-10-19_12h45.37.722,forced_choiceRT,2021.1.2,MacIntel,60.0024001,,,,,,,,8,Ontime,g,0,2.0398,0,2,2,2,1,,,,,
,0.3,,,,,,,,,h.PNG,h,60fcebda736e99e7729eb0c6,2021-10-19_12h45.37.722,forced_choiceRT,2021.1.2,MacIntel,60.0024001,,,,,,,,8,Ontime,h,1,1.9132,0,3,3,2,1,,,,,
,0.33,,,,,,,,,j.PNG,j,60fcebda736e99e7729eb0c6,2021-10-19_12h45.37.722,forced_choiceRT,2021.1.2,MacIntel,60.0024001,,,,,,,,8,Ontime,j,1,1.9945,1,0,4,3,1,,,,,
,0.03,,,,,,,,,g.PNG,g,60fcebda736e99e7729eb0c6,2021-10-19_12h45.37.722,forced_choiceRT,2021.1.2,MacIntel,60.0024001,,,,,,,,8,Ontime,g,1,2.0191,1,1,5,1,1,,,,,
,0.63,,,,,,,,,h.PNG,h,60fcebda736e99e7729eb0c6,2021-10-19_12h45.37.722,forced_choiceRT,2021.1.2,MacIntel,60.0024001,,,,,,,,8,Ontime,h,1,1.9403,1,2,6,2,1,,,,,
,1.18,,,,,,,,,f.PNG,f,60fcebda736e99e7729eb0c6,2021-10-19_12h45.37.722,forced_choiceRT,2021.1.2,MacIntel,60.0024001,,,,,,,,8,Ontime,f,1,1.9883,1,3,7,0,1,,,,,
,0.98,,,,,,,,,f.PNG,f,60fcebda736e99e7729eb0c6,2021-10-19_12h45.37.722,forced_choiceRT,2021.1.2,MacIntel,60.0024001,,,,,,,,8,Ontime,f,1,2.0686,2,0,8,0,1,,,,,
,0.79,,,,,,,,,g.PNG,g,60fcebda736e99e7729eb0c6,2021-10-19_12h45.37.722,forced_choiceRT,2021.1.2,MacIntel,60.0024001,,,,,,,,8,Slow,g,1,2.1511,2,1,9,1,1,,,,,
,0.45,,,,,,,,,j.PNG,j,60fcebda736e99e7729eb0c6,2021-10-19_12h45.37.722,forced_choiceRT,2021.1.2,MacIntel,60.0024001,,,,,,,,8,Ontime,h,0,1.93,2,2,10,3,1,,,,,
,1.89,,,,,,,,,g.PNG,g,60fcebda736e99e7729eb0c6,2021-10-19_12h45.37.722,forced_choiceRT,2021.1.2,MacIntel,60.0024001,,,,,,,,8,Fast,h,0,1.8186,2,3,11,1,1,,,,,
,0.53,,,,,,,,,h.PNG,h,60fcebda736e99e7729eb0c6,2021-10-19_12h45.37.722,forced_choiceRT,2021.1.2,MacIntel,60.0024001,,,,,,,,8,Ontime,h,1,2.089,3,0,12,2,1,,,,,
,1.61,,,,,,,,,g.PNG,g,60fcebda736e99e7729eb0c6,2021-10-19_12h45.37.722,forced_choiceRT,2021.1.2,MacIntel,60.0024001,,,,,,,,8,Slow,f,0,2.232,3,1,13,1,1,,,,,
,0.92,,,,,,,,,j.PNG,j,60fcebda736e99e7729eb0c6,2021-10-19_12h45.37.722,forced_choiceRT,2021.1.2,MacIntel,60.0024001,,,,,,,,8,Ontime,h,0,2.0029,3,2,14,3,1,,,,,
,1.39,,,,,,,,,f.PNG,f,60fcebda736e99e7729eb0c6,2021-10-19_12h45.37.722,forced_choiceRT,2021.1.2,MacIntel,60.0024001,,,,,,,,8,Ontime,f,1,1.9386,3,3,15,0,1,,,,,
,0.34,,,,,,,,,h.PNG,h,60fcebda736e99e7729eb0c6,2021-10-19_12h45.37.722,forced_choiceRT,2021.1.2,MacIntel,60.0024001,,,,,,,,8,Ontime,h,1,1.9765,4,0,16,2,1,,,,,
,1.86,,,,,,,,,g.PNG,g,60fcebda736e99e7729eb0c6,2021-10-19_12h45.37.722,forced_choiceRT,2021.1.2,MacIntel,60.0024001,,,,,,,,8,Ontime,h,0,2.0344,4,1,17,1,1,,,,,
,1.18,,,,,,,,,j.PNG,j,60fcebda736e99e7729eb0c6,2021-10-19_12h45.37.722,forced_choiceRT,2021.1.2,MacIntel,60.0024001,,,,,,,,8,Ontime,j,1,2.014,4,2,18,3,1,,,,,
,1.93,,,,,,,,,h.PNG,h,60fcebda736e99e7729eb0c6,2021-10-19_12h45.37.722,forced_choiceRT,2021.1.2,MacIntel,60.0024001,,,,,,,,8,Slow,j,0,2.1209,4,3,19,2,1,,,,,
,0.04,,,,,,,,,f.PNG,f,60fcebda736e99e7729eb0c6,2021-10-19_12h45.37.722,forced_choiceRT,2021.1.2,MacIntel,60.0024001,,,,,,,,8,Ontime,f,1,1.9558,5,0,20,0,1,,,,,
,0.25,,,,,,,,,f.PNG,f,60fcebda736e99e7729eb0c6,2021-10-19_12h45.37.722,forced_choiceRT,2021.1.2,MacIntel,60.0024001,,,,,,,,8,Ontime,f,1,2.0374,5,1,21,0,1,,,,,
,0.16,,,,,,,,,j.PNG,j,60fcebda736e99e7729eb0c6,2021-10-19_12h45.37.722,forced_choiceRT,2021.1.2,MacIntel,60.0024001,,,,,,,,8,Ontime,j,1,2.001,5,2,22,3,1,,,,,
,0.1,,,,,,,,,g.PNG,g,60fcebda736e99e7729eb0c6,2021-10-19_12h45.37.722,forced_choiceRT,2021.1.2,MacIntel,60.0024001,,,,,,,,8,Ontime,g,1,1.997,5,3,23,1,1,,,,,
,1.11,,,,,,,,,f.PNG,f,60fcebda736e99e7729eb0c6,2021-10-19_12h45.37.722,forced_choiceRT,2021.1.2,MacIntel,60.0024001,,,,,,,,8,Ontime,f,1,2.0576,6,0,24,0,1,,,,,
,0.03,,,,,,,,,h.PNG,h,60fcebda736e99e7729eb0c6,2021-10-19_12h45.37.722,forced_choiceRT,2021.1.2,MacIntel,60.0024001,,,,,,,,8,Ontime,h,1,1.9415,6,1,25,2,1,,,,,
,1.39,,,,,,,,,j.PNG,j,60fcebda736e99e7729eb0c6,2021-10-19_12h45.37.722,forced_choiceRT,2021.1.2,MacIntel,60.0024001,,,,,,,,8,Ontime,j,1,1.9997,6,2,26,3,1,,,,,
,0.79,,,,,,,,,j.PNG,j,60fcebda736e99e7729eb0c6,2021-10-19_12h45.37.722,forced_choiceRT,2021.1.2,MacIntel,60.0024001,,,,,,,,8,Ontime,j,1,1.9527,6,3,27,3,1,,,,,
,0.68,,,,,,,,,g.PNG,g,60fcebda736e99e7729eb0c6,2021-10-19_12h45.37.722,forced_choiceRT,2021.1.2,MacIntel,60.0024001,,,,,,,,8,Ontime,g,1,1.9697,7,0,28,1,1,,,,,
,1.16,,,,,,,,,g.PNG,g,60fcebda736e99e7729eb0c6,2021-10-19_12h45.37.722,forced_choiceRT,2021.1.2,MacIntel,60.0024001,,,,,,,,8,Ontime,g,1,1.9864,7,1,29,1,1,,,,,
,0.64,,,,,,,,,f.PNG,f,60fcebda736e99e7729eb0c6,2021-10-19_12h45.37.722,forced_choiceRT,2021.1.2,MacIntel,60.0024001,,,,,,,,8,Ontime,f,1,1.953,7,2,30,0,1,,,,,
,0.45,,,,,,,,,f.PNG,f,60fcebda736e99e7729eb0c6,2021-10-19_12h45.37.722,forced_choiceRT,2021.1.2,MacIntel,60.0024001,,,,,,,,8,Fast,f,1,1.8919,7,3,31,0,1,,,,,
,1.66,,,,,,,,,h.PNG,h,60fcebda736e99e7729eb0c6,2021-10-19_12h45.37.722,forced_choiceRT,2021.1.2,MacIntel,60.0024001,,,,,,,,8,Slow,f,0,2.1392,8,0,32,2,1,,,,,
,1.63,,,,,,,,,h.PNG,h,60fcebda736e99e7729eb0c6,2021-10-19_12h45.37.722,forced_choiceRT,2021.1.2,MacIntel,60.0024001,,,,,,,,8,Ontime,j,0,2.0478,8,1,33,2,1,,,,,
,0.76,,,,,,,,,j.PNG,j,60fcebda736e99e7729eb0c6,2021-10-19_12h45.37.722,forced_choiceRT,2021.1.2,MacIntel,60.0024001,,,,,,,,8,Ontime,j,1,1.9868,8,2,34,3,1,,,,,
,0.15,,,,,,,,,j.PNG,j,60fcebda736e99e7729eb0c6,2021-10-19_12h45.37.722,forced_choiceRT,2021.1.2,MacIntel,60.0024001,,,,,,,,8,Fast,j,1,1.7286,8,3,35,3,1,,,,,
,0.32,,,,,,,,,g.PNG,g,60fcebda736e99e7729eb0c6,2021-10-19_12h45.37.722,forced_choiceRT,2021.1.2,MacIntel,60.0024001,,,,,,,,8,Ontime,g,1,1.9915,9,0,36,1,1,,,,,
,0.03,,,,,,,,,j.PNG,j,60fcebda736e99e7729eb0c6,2021-10-19_12h45.37.722,forced_choiceRT,2021.1.2,MacIntel,60.0024001,,,,,,,,8,Ontime,j,1,1.9607,9,1,37,3,1,,,,,
,1.43,,,,,,,,,g.PNG,g,60fcebda736e99e7729eb0c6,2021-10-19_12h45.37.722,forced_choiceRT,2021.1.2,MacIntel,60.0024001,,,,,,,,8,Slow,g,1,2.1324,9,2,38,1,1,,,,,
,1.39,,,,,,,,,h.PNG,h,60fcebda736e99e7729eb0c6,2021-10-19_12h45.37.722,forced_choiceRT,2021.1.2,MacIntel,60.0024001,,,,,,,,8,Ontime,j,0,2.0346,9,3,39,2,1,,,,,
,,,,,,,,,,,,60fcebda736e99e7729eb0c6,2021-10-19_12h45.37.722,forced_choiceRT,2021.1.2,MacIntel,60.0024001,,,,,,,,,,,,,,,,,,7,0,7,0,1
,1.75,,,,,,,,,g.PNG,g,60fcebda736e99e7729eb0c6,2021-10-19_12h45.37.722,forced_choiceRT,2021.1.2,MacIntel,60.0024001,,,,,,,,9,Ontime,j,0,1.9851,0,0,0,1,1,,,,,
,0.95,,,,,,,,,h.PNG,h,60fcebda736e99e7729eb0c6,2021-10-19_12h45.37.722,forced_choiceRT,2021.1.2,MacIntel,60.0024001,,,,,,,,9,Ontime,h,1,2.0685,0,1,1,2,1,,,,,
,0.47,,,,,,,,,j.PNG,j,60fcebda736e99e7729eb0c6,2021-10-19_12h45.37.722,forced_choiceRT,2021.1.2,MacIntel,60.0024001,,,,,,,,9,Ontime,j,1,1.9993,0,2,2,3,1,,,,,
,1.44,,,,,,,,,h.PNG,h,60fcebda736e99e7729eb0c6,2021-10-19_12h45.37.722,forced_choiceRT,2021.1.2,MacIntel,60.0024001,,,,,,,,9,Ontime,h,1,2.0513,0,3,3,2,1,,,,,
,0.42,,,,,,,,,j.PNG,j,60fcebda736e99e7729eb0c6,2021-10-19_12h45.37.722,forced_choiceRT,2021.1.2,MacIntel,60.0024001,,,,,,,,9,Ontime,j,1,1.9717,1,0,4,3,1,,,,,
,1.07,,,,,,,,,h.PNG,h,60fcebda736e99e7729eb0c6,2021-10-19_12h45.37.722,forced_choiceRT,2021.1.2,MacIntel,60.0024001,,,,,,,,9,Ontime,h,1,2.0492,1,1,5,2,1,,,,,
,1.33,,,,,,,,,g.PNG,g,60fcebda736e99e7729eb0c6,2021-10-19_12h45.37.722,forced_choiceRT,2021.1.2,MacIntel,60.0024001,,,,,,,,9,Ontime,g,1,2.0542,1,2,6,1,1,,,,,
,1.85,,,,,,,,,g.PNG,g,60fcebda736e99e7729eb0c6,2021-10-19_12h45.37.722,forced_choiceRT,2021.1.2,MacIntel,60.0024001,,,,,,,,9,Ontime,g,1,2.0778,1,3,7,1,1,,,,,
,0.32,,,,,,,,,h.PNG,h,60fcebda736e99e7729eb0c6,2021-10-19_12h45.37.722,forced_choiceRT,2021.1.2,MacIntel,60.0024001,,,,,,,,9,Ontime,h,1,2.0294,2,0,8,2,1,,,,,
,0.98,,,,,,,,,g.PNG,g,60fcebda736e99e7729eb0c6,2021-10-19_12h45.37.722,forced_choiceRT,2021.1.2,MacIntel,60.0024001,,,,,,,,9,Ontime,g,1,2.0184,2,1,9,1,1,,,,,
,1.99,,,,,,,,,h.PNG,h,60fcebda736e99e7729eb0c6,2021-10-19_12h45.37.722,forced_choiceRT,2021.1.2,MacIntel,60.0024001,,,,,,,,9,Ontime,h,1,1.9854,2,2,10,2,1,,,,,
,1.56,,,,,,,,,h.PNG,h,60fcebda736e99e7729eb0c6,2021-10-19_12h45.37.722,forced_choiceRT,2021.1.2,MacIntel,60.0024001,,,,,,,,9,Ontime,h,1,2.0816,2,3,11,2,1,,,,,
,0.16,,,,,,,,,f.PNG,f,60fcebda736e99e7729eb0c6,2021-10-19_12h45.37.722,forced_choiceRT,2021.1.2,MacIntel,60.0024001,,,,,,,,9,Ontime,f,1,2.0205,3,0,12,0,1,,,,,
,0.13,,,,,,,,,j.PNG,j,60fcebda736e99e7729eb0c6,2021-10-19_12h45.37.722,forced_choiceRT,2021.1.2,MacIntel,60.0024001,,,,,,,,9,Ontime,j,1,1.9801,3,1,13,3,1,,,,,
,1.56,,,,,,,,,h.PNG,h,60fcebda736e99e7729eb0c6,2021-10-19_12h45.37.722,forced_choiceRT,2021.1.2,MacIntel,60.0024001,,,,,,,,9,Ontime,h,1,1.9831,3,2,14,2,1,,,,,
,1.32,,,,,,,,,f.PNG,f,60fcebda736e99e7729eb0c6,2021-10-19_12h45.37.722,forced_choiceRT,2021.1.2,MacIntel,60.0024001,,,,,,,,9,Ontime,f,1,1.9308,3,3,15,0,1,,,,,
,0.43,,,,,,,,,g.PNG,g,60fcebda736e99e7729eb0c6,2021-10-19_12h45.37.722,forced_choiceRT,2021.1.2,MacIntel,60.0024001,,,,,,,,9,Ontime,g,1,1.9833,4,0,16,1,1,,,,,
,1.8,,,,,,,,,f.PNG,f,60fcebda736e99e7729eb0c6,2021-10-19_12h45.37.722,forced_choiceRT,2021.1.2,MacIntel,60.0024001,,,,,,,,9,Ontime,h,0,2.0046,4,1,17,0,1,,,,,
,1.32,,,,,,,,,h.PNG,h,60fcebda736e99e7729eb0c6,2021-10-19_12h45.37.722,forced_choiceRT,2021.1.2,MacIntel,60.0024001,,,,,,,,9,Ontime,h,1,2.0231,4,2,18,2,1,,,,,
,0.92,,,,,,,,,j.PNG,j,60fcebda736e99e7729eb0c6,2021-10-19_12h45.37.722,forced_choiceRT,2021.1.2,MacIntel,60.0024001,,,,,,,,9,Ontime,j,1,2.0494,4,3,19,3,1,,,,,
,1.68,,,,,,,,,h.PNG,h,60fcebda736e99e7729eb0c6,2021-10-19_12h45.37.722,forced_choiceRT,2021.1.2,MacIntel,60.0024001,,,,,,,,9,Ontime,j,0,2.0567,5,0,20,2,1,,,,,
,0.6,,,,,,,,,f.PNG,f,60fcebda736e99e7729eb0c6,2021-10-19_12h45.37.722,forced_choiceRT,2021.1.2,MacIntel,60.0024001,,,,,,,,9,Ontime,f,1,2.0459,5,1,21,0,1,,,,,
,1.9,,,,,,,,,j.PNG,j,60fcebda736e99e7729eb0c6,2021-10-19_12h45.37.722,forced_choiceRT,2021.1.2,MacIntel,60.0024001,,,,,,,,9,Ontime,g,0,1.9982,5,2,22,3,1,,,,,
,1.09,,,,,,,,,g.PNG,g,60fcebda736e99e7729eb0c6,2021-10-19_12h45.37.722,forced_choiceRT,2021.1.2,MacIntel,60.0024001,,,,,,,,9,Ontime,g,1,2.0519,5,3,23,1,1,,,,,
,1.07,,,,,,,,,g.PNG,g,60fcebda736e99e7729eb0c6,2021-10-19_12h45.37.722,forced_choiceRT,2021.1.2,MacIntel,60.0024001,,,,,,,,9,Ontime,g,1,1.9627,6,0,24,1,1,,,,,
,1.52,,,,,,,,,j.PNG,j,60fcebda736e99e7729eb0c6,2021-10-19_12h45.37.722,forced_choiceRT,2021.1.2,MacIntel,60.0024001,,,,,,,,9,Ontime,h,0,2.0859,6,1,25,3,1,,,,,
,1.36,,,,,,,,,f.PNG,f,60fcebda736e99e7729eb0c6,2021-10-19_12h45.37.722,forced_choiceRT,2021.1.2,MacIntel,60.0024001,,,,,,,,9,Ontime,f,1,2.0212,6,2,26,0,1,,,,,
,0.44,,,,,,,,,j.PNG,j,60fcebda736e99e7729eb0c6,2021-10-19_12h45.37.722,forced_choiceRT,2021.1.2,MacIntel,60.0024001,,,,,,,,9,Ontime,j,1,1.9829,6,3,27,3,1,,,,,
,1.44,,,,,,,,,f.PNG,f,60fcebda736e99e7729eb0c6,2021-10-19_12h45.37.722,forced_choiceRT,2021.1.2,MacIntel,60.0024001,,,,,,,,9,Ontime,f,1,2.0117,7,0,28,0,1,,,,,
,1.49,,,,,,,,,f.PNG,f,60fcebda736e99e7729eb0c6,2021-10-19_12h45.37.722,forced_choiceRT,2021.1.2,MacIntel,60.0024001,,,,,,,,9,Ontime,f,1,2.0337,7,1,29,0,1,,,,,
,0.07,,,,,,,,,h.PNG,h,60fcebda736e99e7729eb0c6,2021-10-19_12h45.37.722,forced_choiceRT,2021.1.2,MacIntel,60.0024001,,,,,,,,9,Ontime,h,1,1.9983,7,2,30,2,1,,,,,
,1.84,,,,,,,,,j.PNG,j,60fcebda736e99e7729eb0c6,2021-10-19_12h45.37.722,forced_choiceRT,2021.1.2,MacIntel,60.0024001,,,,,,,,9,Slow,h,0,2.2966,7,3,31,3,1,,,,,
,0.79,,,,,,,,,g.PNG,g,60fcebda736e99e7729eb0c6,2021-10-19_12h45.37.722,forced_choiceRT,2021.1.2,MacIntel,60.0024001,,,,,,,,9,Ontime,g,1,1.9864,8,0,32,1,1,,,,,
,0.82,,,,,,,,,g.PNG,g,60fcebda736e99e7729eb0c6,2021-10-19_12h45.37.722,forced_choiceRT,2021.1.2,MacIntel,60.0024001,,,,,,,,9,Ontime,g,1,2.0376,8,1,33,1,1,,,,,
,1.11,,,,,,,,,f.PNG,f,60fcebda736e99e7729eb0c6,2021-10-19_12h45.37.722,forced_choiceRT,2021.1.2,MacIntel,60.0024001,,,,,,,,9,Ontime,f,1,1.9799,8,2,34,0,1,,,,,
,1.09,,,,,,,,,j.PNG,j,60fcebda736e99e7729eb0c6,2021-10-19_12h45.37.722,forced_choiceRT,2021.1.2,MacIntel,60.0024001,,,,,,,,9,Ontime,j,1,1.9997,8,3,35,3,1,,,,,
,0.17,,,,,,,,,f.PNG,f,60fcebda736e99e7729eb0c6,2021-10-19_12h45.37.722,forced_choiceRT,2021.1.2,MacIntel,60.0024001,,,,,,,,9,Ontime,f,1,2.042,9,0,36,0,1,,,,,
,1.27,,,,,,,,,g.PNG,g,60fcebda736e99e7729eb0c6,2021-10-19_12h45.37.722,forced_choiceRT,2021.1.2,MacIntel,60.0024001,,,,,,,,9,Ontime,g,1,2.0471,9,1,37,1,1,,,,,
,0.05,,,,,,,,,f.PNG,f,60fcebda736e99e7729eb0c6,2021-10-19_12h45.37.722,forced_choiceRT,2021.1.2,MacIntel,60.0024001,,,,,,,,9,Ontime,f,1,2.0163,9,2,38,0,1,,,,,
,0.82,,,,,,,,,j.PNG,j,60fcebda736e99e7729eb0c6,2021-10-19_12h45.37.722,forced_choiceRT,2021.1.2,MacIntel,60.0024001,,,,,,,,9,Ontime,j,1,2.0233,9,3,39,3,1,,,,,
,,,,,,,,,,,,60fcebda736e99e7729eb0c6,2021-10-19_12h45.37.722,forced_choiceRT,2021.1.2,MacIntel,60.0024001,,,,,,,,,,,,,,,,,,8,0,8,0,1
,0.89,,,,,,,,,g.PNG,g,60fcebda736e99e7729eb0c6,2021-10-19_12h45.37.722,forced_choiceRT,2021.1.2,MacIntel,60.0024001,,,,,,,,10,Ontime,g,1,1.9971,0,0,0,1,1,,,,,
,1,,,,,,,,,g.PNG,g,60fcebda736e99e7729eb0c6,2021-10-19_12h45.37.722,forced_choiceRT,2021.1.2,MacIntel,60.0024001,,,,,,,,10,Ontime,g,1,2.0702,0,1,1,1,1,,,,,
,0.49,,,,,,,,,h.PNG,h,60fcebda736e99e7729eb0c6,2021-10-19_12h45.37.722,forced_choiceRT,2021.1.2,MacIntel,60.0024001,,,,,,,,10,Ontime,h,1,2.0536,0,2,2,2,1,,,,,
,1.97,,,,,,,,,g.PNG,g,60fcebda736e99e7729eb0c6,2021-10-19_12h45.37.722,forced_choiceRT,2021.1.2,MacIntel,60.0024001,,,,,,,,10,Ontime,h,0,2.0986,0,3,3,1,1,,,,,
,1.37,,,,,,,,,f.PNG,f,60fcebda736e99e7729eb0c6,2021-10-19_12h45.37.722,forced_choiceRT,2021.1.2,MacIntel,60.0024001,,,,,,,,10,Ontime,f,1,1.9635,1,0,4,0,1,,,,,
,0.6,,,,,,,,,h.PNG,h,60fcebda736e99e7729eb0c6,2021-10-19_12h45.37.722,forced_choiceRT,2021.1.2,MacIntel,60.0024001,,,,,,,,10,Ontime,h,1,2.0067,1,1,5,2,1,,,,,
,1.94,,,,,,,,,f.PNG,f,60fcebda736e99e7729eb0c6,2021-10-19_12h45.37.722,forced_choiceRT,2021.1.2,MacIntel,60.0024001,,,,,,,,10,Slow,j,0,5.3996,1,2,6,0,1,,,,,
,1.61,,,,,,,,,f.PNG,f,60fcebda736e99e7729eb0c6,2021-10-19_12h45.37.722,forced_choiceRT,2021.1.2,MacIntel,60.0024001,,,,,,,,10,Slow,f,1,2.1679,1,3,7,0,1,,,,,
,1.82,,,,,,,,,g.PNG,g,60fcebda736e99e7729eb0c6,2021-10-19_12h45.37.722,forced_choiceRT,2021.1.2,MacIntel,60.0024001,,,,,,,,10,Ontime,g,1,1.9843,2,0,8,1,1,,,,,
,1.95,,,,,,,,,j.PNG,j,60fcebda736e99e7729eb0c6,2021-10-19_12h45.37.722,forced_choiceRT,2021.1.2,MacIntel,60.0024001,,,,,,,,10,Ontime,g,0,2.0509,2,1,9,3,1,,,,,
,0.68,,,,,,,,,g.PNG,g,60fcebda736e99e7729eb0c6,2021-10-19_12h45.37.722,forced_choiceRT,2021.1.2,MacIntel,60.0024001,,,,,,,,10,Ontime,g,1,1.9144,2,2,10,1,1,,,,,
,0.61,,,,,,,,,f.PNG,f,60fcebda736e99e7729eb0c6,2021-10-19_12h45.37.722,forced_choiceRT,2021.1.2,MacIntel,60.0024001,,,,,,,,10,Ontime,f,1,1.978,2,3,11,0,1,,,,,
,0.99,,,,,,,,,h.PNG,h,60fcebda736e99e7729eb0c6,2021-10-19_12h45.37.722,forced_choiceRT,2021.1.2,MacIntel,60.0024001,,,,,,,,10,Ontime,h,1,1.966,3,0,12,2,1,,,,,
,1.73,,,,,,,,,h.PNG,h,60fcebda736e99e7729eb0c6,2021-10-19_12h45.37.722,forced_choiceRT,2021.1.2,MacIntel,60.0024001,,,,,,,,10,Ontime,g,0,1.9658,3,1,13,2,1,,,,,
,0.43,,,,,,,,,h.PNG,h,60fcebda736e99e7729eb0c6,2021-10-19_12h45.37.722,forced_choiceRT,2021.1.2,MacIntel,60.0024001,,,,,,,,10,Ontime,h,1,1.9693,3,2,14,2,1,,,,,
,1.45,,,,,,,,,h.PNG,h,60fcebda736e99e7729eb0c6,2021-10-19_12h45.37.722,forced_choiceRT,2021.1.2,MacIntel,60.0024001,,,,,,,,10,Ontime,h,1,2.0048,3,3,15,2,1,,,,,
,1.04,,,,,,,,,j.PNG,j,60fcebda736e99e7729eb0c6,2021-10-19_12h45.37.722,forced_choiceRT,2021.1.2,MacIntel,60.0024001,,,,,,,,10,Ontime,j,1,2.047,4,0,16,3,1,,,,,
,0.22,,,,,,,,,j.PNG,j,60fcebda736e99e7729eb0c6,2021-10-19_12h45.37.722,forced_choiceRT,2021.1.2,MacIntel,60.0024001,,,,,,,,10,Fast,j,1,1.8915,4,1,17,3,1,,,,,
,0.56,,,,,,,,,h.PNG,h,60fcebda736e99e7729eb0c6,2021-10-19_12h45.37.722,forced_choiceRT,2021.1.2,MacIntel,60.0024001,,,,,,,,10,Ontime,h,1,1.9803,4,2,18,2,1,,,,,
,1.74,,,,,,,,,j.PNG,j,60fcebda736e99e7729eb0c6,2021-10-19_12h45.37.722,forced_choiceRT,2021.1.2,MacIntel,60.0024001,,,,,,,,10,Ontime,g,0,1.9693,4,3,19,3,1,,,,,
,1.94,,,,,,,,,g.PNG,g,60fcebda736e99e7729eb0c6,2021-10-19_12h45.37.722,forced_choiceRT,2021.1.2,MacIntel,60.0024001,,,,,,,,10,Ontime,g,1,2.0299,5,0,20,1,1,,,,,
,0.96,,,,,,,,,h.PNG,h,60fcebda736e99e7729eb0c6,2021-10-19_12h45.37.722,forced_choiceRT,2021.1.2,MacIntel,60.0024001,,,,,,,,10,Ontime,h,1,1.9593,5,1,21,2,1,,,,,
,0.24,,,,,,,,,j.PNG,j,60fcebda736e99e7729eb0c6,2021-10-19_12h45.37.722,forced_choiceRT,2021.1.2,MacIntel,60.0024001,,,,,,,,10,Ontime,j,1,1.9581,5,2,22,3,1,,,,,
,0.63,,,,,,,,,f.PNG,f,60fcebda736e99e7729eb0c6,2021-10-19_12h45.37.722,forced_choiceRT,2021.1.2,MacIntel,60.0024001,,,,,,,,10,Ontime,f,1,1.9263,5,3,23,0,1,,,,,
,1.95,,,,,,,,,j.PNG,j,60fcebda736e99e7729eb0c6,2021-10-19_12h45.37.722,forced_choiceRT,2021.1.2,MacIntel,60.0024001,,,,,,,,10,Ontime,h,0,1.9668,6,0,24,3,1,,,,,
,0.22,,,,,,,,,f.PNG,f,60fcebda736e99e7729eb0c6,2021-10-19_12h45.37.722,forced_choiceRT,2021.1.2,MacIntel,60.0024001,,,,,,,,10,Ontime,f,1,1.9274,6,1,25,0,1,,,,,
,1.02,,,,,,,,,j.PNG,j,60fcebda736e99e7729eb0c6,2021-10-19_12h45.37.722,forced_choiceRT,2021.1.2,MacIntel,60.0024001,,,,,,,,10,Ontime,j,1,1.9702,6,2,26,3,1,,,,,
,0.55,,,,,,,,,f.PNG,f,60fcebda736e99e7729eb0c6,2021-10-19_12h45.37.722,forced_choiceRT,2021.1.2,MacIntel,60.0024001,,,,,,,,10,Ontime,f,1,1.9683,6,3,27,0,1,,,,,
,1.98,,,,,,,,,f.PNG,f,60fcebda736e99e7729eb0c6,2021-10-19_12h45.37.722,forced_choiceRT,2021.1.2,MacIntel,60.0024001,,,,,,,,10,Slow,f,1,2.1171,7,0,28,0,1,,,,,
,0.11,,,,,,,,,g.PNG,g,60fcebda736e99e7729eb0c6,2021-10-19_12h45.37.722,forced_choiceRT,2021.1.2,MacIntel,60.0024001,,,,,,,,10,Ontime,g,1,1.9891,7,1,29,1,1,,,,,
,0.11,,,,,,,,,g.PNG,g,60fcebda736e99e7729eb0c6,2021-10-19_12h45.37.722,forced_choiceRT,2021.1.2,MacIntel,60.0024001,,,,,,,,10,Ontime,g,1,1.9511,7,2,30,1,1,,,,,
,1.9,,,,,,,,,h.PNG,h,60fcebda736e99e7729eb0c6,2021-10-19_12h45.37.722,forced_choiceRT,2021.1.2,MacIntel,60.0024001,,,,,,,,10,Ontime,g,0,2.0804,7,3,31,2,1,,,,,
,0.75,,,,,,,,,j.PNG,j,60fcebda736e99e7729eb0c6,2021-10-19_12h45.37.722,forced_choiceRT,2021.1.2,MacIntel,60.0024001,,,,,,,,10,Ontime,h,0,2.0686,8,0,32,3,1,,,,,
,1.85,,,,,,,,,f.PNG,f,60fcebda736e99e7729eb0c6,2021-10-19_12h45.37.722,forced_choiceRT,2021.1.2,MacIntel,60.0024001,,,,,,,,10,Ontime,h,0,1.9889,8,1,33,0,1,,,,,
,0.57,,,,,,,,,g.PNG,g,60fcebda736e99e7729eb0c6,2021-10-19_12h45.37.722,forced_choiceRT,2021.1.2,MacIntel,60.0024001,,,,,,,,10,Slow,g,1,2.1868,8,2,34,1,1,,,,,
,1.09,,,,,,,,,j.PNG,j,60fcebda736e99e7729eb0c6,2021-10-19_12h45.37.722,forced_choiceRT,2021.1.2,MacIntel,60.0024001,,,,,,,,10,Ontime,j,1,1.9887,8,3,35,3,1,,,,,
,0.08,,,,,,,,,h.PNG,h,60fcebda736e99e7729eb0c6,2021-10-19_12h45.37.722,forced_choiceRT,2021.1.2,MacIntel,60.0024001,,,,,,,,10,Ontime,h,1,1.9486,9,0,36,2,1,,,,,
,1.74,,,,,,,,,g.PNG,g,60fcebda736e99e7729eb0c6,2021-10-19_12h45.37.722,forced_choiceRT,2021.1.2,MacIntel,60.0024001,,,,,,,,10,Ontime,g,1,1.9654,9,1,37,1,1,,,,,
,1.66,,,,,,,,,f.PNG,f,60fcebda736e99e7729eb0c6,2021-10-19_12h45.37.722,forced_choiceRT,2021.1.2,MacIntel,60.0024001,,,,,,,,10,Ontime,h,0,2.1,9,2,38,0,1,,,,,
,1.75,,,,,,,,,j.PNG,j,60fcebda736e99e7729eb0c6,2021-10-19_12h45.37.722,forced_choiceRT,2021.1.2,MacIntel,60.0024001,,,,,,,,10,Ontime,f,0,2.0821,9,3,39,3,1,,,,,
,,,,,,,,,,,,60fcebda736e99e7729eb0c6,2021-10-19_12h45.37.722,forced_choiceRT,2021.1.2,MacIntel,60.0024001,,,,,,,,,,,,,,,,,,9,0,9,0,1
