IP_Addresss,target_onset,trial_resp_sp.keys,trial_resp_sp.corr,trial_resp_sp.rt,trials_train_loop.thisRepN,trials_train_loop.thisTrialN,trials_train_loop.thisN,trials_train_loop.thisIndex,trials_train_loop.ran,pic,correct_key,participant,date,expName,psychopyVersion,OS,frameRate,trial_resp_timing.keys,trial_resp_timing.rt,trials_train_timing.thisRepN,trials_train_timing.thisTrialN,trials_train_timing.thisN,trials_train_timing.thisIndex,trials_train_timing.ran,block_id,ontime,forcedRT_resp.keys,forcedRT_resp.corr,forcedRT_resp.rt,trials.thisRepN,trials.thisTrialN,trials.thisN,trials.thisIndex,trials.ran,blocks.thisRepN,blocks.thisTrialN,blocks.thisN,blocks.thisIndex,blocks.ran
69.142.213.72,0,f,1,0.892,0,0,0,0,1,f.PNG,f,60fd22c43ca0a22679d24c9f,2021-10-20_10h46.23.646,forced_choiceRT,2021.1.2,MacIntel,66.66666667,,,,,,,,,,,,,,,,,,,,,,
,0,g,1,1.581,0,1,1,1,1,g.PNG,g,60fd22c43ca0a22679d24c9f,2021-10-20_10h46.23.646,forced_choiceRT,2021.1.2,MacIntel,66.66666667,,,,,,,,,,,,,,,,,,,,,,
,0,g,1,0.652,0,2,2,1,1,g.PNG,g,60fd22c43ca0a22679d24c9f,2021-10-20_10h46.23.646,forced_choiceRT,2021.1.2,MacIntel,66.66666667,,,,,,,,,,,,,,,,,,,,,,
,0,h,1,1.287,0,3,3,2,1,h.PNG,h,60fd22c43ca0a22679d24c9f,2021-10-20_10h46.23.646,forced_choiceRT,2021.1.2,MacIntel,66.66666667,,,,,,,,,,,,,,,,,,,,,,
,0,g,1,0.904,1,0,4,1,1,g.PNG,g,60fd22c43ca0a22679d24c9f,2021-10-20_10h46.23.646,forced_choiceRT,2021.1.2,MacIntel,66.66666667,,,,,,,,,,,,,,,,,,,,,,
,0,j,0,0.908,1,1,5,2,1,h.PNG,h,60fd22c43ca0a22679d24c9f,2021-10-20_10h46.23.646,forced_choiceRT,2021.1.2,MacIntel,66.66666667,,,,,,,,,,,,,,,,,,,,,,
,0,h,1,0.471,1,2,6,2,1,h.PNG,h,60fd22c43ca0a22679d24c9f,2021-10-20_10h46.23.646,forced_choiceRT,2021.1.2,MacIntel,66.66666667,,,,,,,,,,,,,,,,,,,,,,
,0,g,1,1.256,1,3,7,1,1,g.PNG,g,60fd22c43ca0a22679d24c9f,2021-10-20_10h46.23.646,forced_choiceRT,2021.1.2,MacIntel,66.66666667,,,,,,,,,,,,,,,,,,,,,,
,0,f,1,1.406,2,0,8,0,1,f.PNG,f,60fd22c43ca0a22679d24c9f,2021-10-20_10h46.23.646,forced_choiceRT,2021.1.2,MacIntel,66.66666667,,,,,,,,,,,,,,,,,,,,,,
,0,g,1,0.852,2,1,9,1,1,g.PNG,g,60fd22c43ca0a22679d24c9f,2021-10-20_10h46.23.646,forced_choiceRT,2021.1.2,MacIntel,66.66666667,,,,,,,,,,,,,,,,,,,,,,
,0,h,1,1.233,2,2,10,2,1,h.PNG,h,60fd22c43ca0a22679d24c9f,2021-10-20_10h46.23.646,forced_choiceRT,2021.1.2,MacIntel,66.66666667,,,,,,,,,,,,,,,,,,,,,,
,0,g,1,0.68,2,3,11,1,1,g.PNG,g,60fd22c43ca0a22679d24c9f,2021-10-20_10h46.23.646,forced_choiceRT,2021.1.2,MacIntel,66.66666667,,,,,,,,,,,,,,,,,,,,,,
,0,j,1,0.732,3,0,12,3,1,j.PNG,j,60fd22c43ca0a22679d24c9f,2021-10-20_10h46.23.646,forced_choiceRT,2021.1.2,MacIntel,66.66666667,,,,,,,,,,,,,,,,,,,,,,
,0,g,1,0.687,3,1,13,1,1,g.PNG,g,60fd22c43ca0a22679d24c9f,2021-10-20_10h46.23.646,forced_choiceRT,2021.1.2,MacIntel,66.66666667,,,,,,,,,,,,,,,,,,,,,,
,0,h,1,0.686,3,2,14,2,1,h.PNG,h,60fd22c43ca0a22679d24c9f,2021-10-20_10h46.23.646,forced_choiceRT,2021.1.2,MacIntel,66.66666667,,,,,,,,,,,,,,,,,,,,,,
,0,g,1,0.666,3,3,15,1,1,g.PNG,g,60fd22c43ca0a22679d24c9f,2021-10-20_10h46.23.646,forced_choiceRT,2021.1.2,MacIntel,66.66666667,,,,,,,,,,,,,,,,,,,,,,
,0,j,1,0.723,4,0,16,3,1,j.PNG,j,60fd22c43ca0a22679d24c9f,2021-10-20_10h46.23.646,forced_choiceRT,2021.1.2,MacIntel,66.66666667,,,,,,,,,,,,,,,,,,,,,,
,0,h,1,0.756,4,1,17,2,1,h.PNG,h,60fd22c43ca0a22679d24c9f,2021-10-20_10h46.23.646,forced_choiceRT,2021.1.2,MacIntel,66.66666667,,,,,,,,,,,,,,,,,,,,,,
,0,g,1,0.588,4,2,18,1,1,g.PNG,g,60fd22c43ca0a22679d24c9f,2021-10-20_10h46.23.646,forced_choiceRT,2021.1.2,MacIntel,66.66666667,,,,,,,,,,,,,,,,,,,,,,
,0,g,1,0.515,4,3,19,1,1,g.PNG,g,60fd22c43ca0a22679d24c9f,2021-10-20_10h46.23.646,forced_choiceRT,2021.1.2,MacIntel,66.66666667,,,,,,,,,,,,,,,,,,,,,,
,0,f,1,0.728,5,0,20,0,1,f.PNG,f,60fd22c43ca0a22679d24c9f,2021-10-20_10h46.23.646,forced_choiceRT,2021.1.2,MacIntel,66.66666667,,,,,,,,,,,,,,,,,,,,,,
,0,j,1,0.739,5,1,21,3,1,j.PNG,j,60fd22c43ca0a22679d24c9f,2021-10-20_10h46.23.646,forced_choiceRT,2021.1.2,MacIntel,66.66666667,,,,,,,,,,,,,,,,,,,,,,
,0,g,0,0.621,5,2,22,0,1,f.PNG,f,60fd22c43ca0a22679d24c9f,2021-10-20_10h46.23.646,forced_choiceRT,2021.1.2,MacIntel,66.66666667,,,,,,,,,,,,,,,,,,,,,,
,0,f,0,0.004,5,3,23,2,1,h.PNG,h,60fd22c43ca0a22679d24c9f,2021-10-20_10h46.23.646,forced_choiceRT,2021.1.2,MacIntel,66.66666667,,,,,,,,,,,,,,,,,,,,,,
,0,j,1,0.68,6,0,24,3,1,j.PNG,j,60fd22c43ca0a22679d24c9f,2021-10-20_10h46.23.646,forced_choiceRT,2021.1.2,MacIntel,66.66666667,,,,,,,,,,,,,,,,,,,,,,
,0,f,1,0.667,6,1,25,0,1,f.PNG,f,60fd22c43ca0a22679d24c9f,2021-10-20_10h46.23.646,forced_choiceRT,2021.1.2,MacIntel,66.66666667,,,,,,,,,,,,,,,,,,,,,,
,0,h,1,0.67,6,2,26,2,1,h.PNG,h,60fd22c43ca0a22679d24c9f,2021-10-20_10h46.23.646,forced_choiceRT,2021.1.2,MacIntel,66.66666667,,,,,,,,,,,,,,,,,,,,,,
,0,h,1,0.692,6,3,27,2,1,h.PNG,h,60fd22c43ca0a22679d24c9f,2021-10-20_10h46.23.646,forced_choiceRT,2021.1.2,MacIntel,66.66666667,,,,,,,,,,,,,,,,,,,,,,
,0,f,1,0.618,7,0,28,0,1,f.PNG,f,60fd22c43ca0a22679d24c9f,2021-10-20_10h46.23.646,forced_choiceRT,2021.1.2,MacIntel,66.66666667,,,,,,,,,,,,,,,,,,,,,,
,0,g,1,0.538,7,1,29,1,1,g.PNG,g,60fd22c43ca0a22679d24c9f,2021-10-20_10h46.23.646,forced_choiceRT,2021.1.2,MacIntel,66.66666667,,,,,,,,,,,,,,,,,,,,,,
,0,f,1,0.619,7,2,30,0,1,f.PNG,f,60fd22c43ca0a22679d24c9f,2021-10-20_10h46.23.646,forced_choiceRT,2021.1.2,MacIntel,66.66666667,,,,,,,,,,,,,,,,,,,,,,
,0,f,1,0.506,7,3,31,0,1,f.PNG,f,60fd22c43ca0a22679d24c9f,2021-10-20_10h46.23.646,forced_choiceRT,2021.1.2,MacIntel,66.66666667,,,,,,,,,,,,,,,,,,,,,,
,0,j,1,0.573,8,0,32,3,1,j.PNG,j,60fd22c43ca0a22679d24c9f,2021-10-20_10h46.23.646,forced_choiceRT,2021.1.2,MacIntel,66.66666667,,,,,,,,,,,,,,,,,,,,,,
,0,g,1,0.604,8,1,33,1,1,g.PNG,g,60fd22c43ca0a22679d24c9f,2021-10-20_10h46.23.646,forced_choiceRT,2021.1.2,MacIntel,66.66666667,,,,,,,,,,,,,,,,,,,,,,
,0,f,1,0.603,8,2,34,0,1,f.PNG,f,60fd22c43ca0a22679d24c9f,2021-10-20_10h46.23.646,forced_choiceRT,2021.1.2,MacIntel,66.66666667,,,,,,,,,,,,,,,,,,,,,,
,0,g,1,0.855,8,3,35,1,1,g.PNG,g,60fd22c43ca0a22679d24c9f,2021-10-20_10h46.23.646,forced_choiceRT,2021.1.2,MacIntel,66.66666667,,,,,,,,,,,,,,,,,,,,,,
,0,j,1,0.605,9,0,36,3,1,j.PNG,j,60fd22c43ca0a22679d24c9f,2021-10-20_10h46.23.646,forced_choiceRT,2021.1.2,MacIntel,66.66666667,,,,,,,,,,,,,,,,,,,,,,
,0,j,1,0.741,9,1,37,3,1,j.PNG,j,60fd22c43ca0a22679d24c9f,2021-10-20_10h46.23.646,forced_choiceRT,2021.1.2,MacIntel,66.66666667,,,,,,,,,,,,,,,,,,,,,,
,0,j,1,0.513,9,2,38,3,1,j.PNG,j,60fd22c43ca0a22679d24c9f,2021-10-20_10h46.23.646,forced_choiceRT,2021.1.2,MacIntel,66.66666667,,,,,,,,,,,,,,,,,,,,,,
,0,g,1,0.783,9,3,39,1,1,g.PNG,g,60fd22c43ca0a22679d24c9f,2021-10-20_10h46.23.646,forced_choiceRT,2021.1.2,MacIntel,66.66666667,,,,,,,,,,,,,,,,,,,,,,
,0,j,1,0.634,10,0,40,3,1,j.PNG,j,60fd22c43ca0a22679d24c9f,2021-10-20_10h46.23.646,forced_choiceRT,2021.1.2,MacIntel,66.66666667,,,,,,,,,,,,,,,,,,,,,,
,0,j,1,0.581,10,1,41,3,1,j.PNG,j,60fd22c43ca0a22679d24c9f,2021-10-20_10h46.23.646,forced_choiceRT,2021.1.2,MacIntel,66.66666667,,,,,,,,,,,,,,,,,,,,,,
,0,j,1,0.412,10,2,42,3,1,j.PNG,j,60fd22c43ca0a22679d24c9f,2021-10-20_10h46.23.646,forced_choiceRT,2021.1.2,MacIntel,66.66666667,,,,,,,,,,,,,,,,,,,,,,
,0,h,1,0.65,10,3,43,2,1,h.PNG,h,60fd22c43ca0a22679d24c9f,2021-10-20_10h46.23.646,forced_choiceRT,2021.1.2,MacIntel,66.66666667,,,,,,,,,,,,,,,,,,,,,,
,0,h,1,0.435,11,0,44,2,1,h.PNG,h,60fd22c43ca0a22679d24c9f,2021-10-20_10h46.23.646,forced_choiceRT,2021.1.2,MacIntel,66.66666667,,,,,,,,,,,,,,,,,,,,,,
,0,g,0,0.585,11,1,45,3,1,j.PNG,j,60fd22c43ca0a22679d24c9f,2021-10-20_10h46.23.646,forced_choiceRT,2021.1.2,MacIntel,66.66666667,,,,,,,,,,,,,,,,,,,,,,
,0,f,1,0.604,11,2,46,0,1,f.PNG,f,60fd22c43ca0a22679d24c9f,2021-10-20_10h46.23.646,forced_choiceRT,2021.1.2,MacIntel,66.66666667,,,,,,,,,,,,,,,,,,,,,,
,0,h,1,0.962,11,3,47,2,1,h.PNG,h,60fd22c43ca0a22679d24c9f,2021-10-20_10h46.23.646,forced_choiceRT,2021.1.2,MacIntel,66.66666667,,,,,,,,,,,,,,,,,,,,,,
,0,f,1,0.615,12,0,48,0,1,f.PNG,f,60fd22c43ca0a22679d24c9f,2021-10-20_10h46.23.646,forced_choiceRT,2021.1.2,MacIntel,66.66666667,,,,,,,,,,,,,,,,,,,,,,
,0,j,1,0.694,12,1,49,3,1,j.PNG,j,60fd22c43ca0a22679d24c9f,2021-10-20_10h46.23.646,forced_choiceRT,2021.1.2,MacIntel,66.66666667,,,,,,,,,,,,,,,,,,,,,,
,0,g,1,0.647,12,2,50,1,1,g.PNG,g,60fd22c43ca0a22679d24c9f,2021-10-20_10h46.23.646,forced_choiceRT,2021.1.2,MacIntel,66.66666667,,,,,,,,,,,,,,,,,,,,,,
,0,h,1,0.614,12,3,51,2,1,h.PNG,h,60fd22c43ca0a22679d24c9f,2021-10-20_10h46.23.646,forced_choiceRT,2021.1.2,MacIntel,66.66666667,,,,,,,,,,,,,,,,,,,,,,
,0,h,1,0.438,13,0,52,2,1,h.PNG,h,60fd22c43ca0a22679d24c9f,2021-10-20_10h46.23.646,forced_choiceRT,2021.1.2,MacIntel,66.66666667,,,,,,,,,,,,,,,,,,,,,,
,0,f,0,0.652,13,1,53,3,1,j.PNG,j,60fd22c43ca0a22679d24c9f,2021-10-20_10h46.23.646,forced_choiceRT,2021.1.2,MacIntel,66.66666667,,,,,,,,,,,,,,,,,,,,,,
,0,j,0,0.459,13,2,54,2,1,h.PNG,h,60fd22c43ca0a22679d24c9f,2021-10-20_10h46.23.646,forced_choiceRT,2021.1.2,MacIntel,66.66666667,,,,,,,,,,,,,,,,,,,,,,
,0,f,1,0.627,13,3,55,0,1,f.PNG,f,60fd22c43ca0a22679d24c9f,2021-10-20_10h46.23.646,forced_choiceRT,2021.1.2,MacIntel,66.66666667,,,,,,,,,,,,,,,,,,,,,,
,0,j,1,0.572,14,0,56,3,1,j.PNG,j,60fd22c43ca0a22679d24c9f,2021-10-20_10h46.23.646,forced_choiceRT,2021.1.2,MacIntel,66.66666667,,,,,,,,,,,,,,,,,,,,,,
,0,f,1,0.59,14,1,57,0,1,f.PNG,f,60fd22c43ca0a22679d24c9f,2021-10-20_10h46.23.646,forced_choiceRT,2021.1.2,MacIntel,66.66666667,,,,,,,,,,,,,,,,,,,,,,
,0,f,1,0.467,14,2,58,0,1,f.PNG,f,60fd22c43ca0a22679d24c9f,2021-10-20_10h46.23.646,forced_choiceRT,2021.1.2,MacIntel,66.66666667,,,,,,,,,,,,,,,,,,,,,,
,0,f,1,0.431,14,3,59,0,1,f.PNG,f,60fd22c43ca0a22679d24c9f,2021-10-20_10h46.23.646,forced_choiceRT,2021.1.2,MacIntel,66.66666667,,,,,,,,,,,,,,,,,,,,,,
,,,,,,,,,,,,60fd22c43ca0a22679d24c9f,2021-10-20_10h46.23.646,forced_choiceRT,2021.1.2,MacIntel,66.66666667,j,2.803,0,0,0,0,1,,,,,,,,,,,,,,,
,,,,,,,,,,,,60fd22c43ca0a22679d24c9f,2021-10-20_10h46.23.646,forced_choiceRT,2021.1.2,MacIntel,66.66666667,j,1.715,1,0,1,0,1,,,,,,,,,,,,,,,
,,,,,,,,,,,,60fd22c43ca0a22679d24c9f,2021-10-20_10h46.23.646,forced_choiceRT,2021.1.2,MacIntel,66.66666667,j,2.204,2,0,2,0,1,,,,,,,,,,,,,,,
,,,,,,,,,,,,60fd22c43ca0a22679d24c9f,2021-10-20_10h46.23.646,forced_choiceRT,2021.1.2,MacIntel,66.66666667,h,1.987,3,0,3,0,1,,,,,,,,,,,,,,,
,,,,,,,,,,,,60fd22c43ca0a22679d24c9f,2021-10-20_10h46.23.646,forced_choiceRT,2021.1.2,MacIntel,66.66666667,h,2.048,4,0,4,0,1,,,,,,,,,,,,,,,
,,,,,,,,,,,,60fd22c43ca0a22679d24c9f,2021-10-20_10h46.23.646,forced_choiceRT,2021.1.2,MacIntel,66.66666667,g,1.879,5,0,5,0,1,,,,,,,,,,,,,,,
,,,,,,,,,,,,60fd22c43ca0a22679d24c9f,2021-10-20_10h46.23.646,forced_choiceRT,2021.1.2,MacIntel,66.66666667,g,2.056,6,0,6,0,1,,,,,,,,,,,,,,,
,,,,,,,,,,,,60fd22c43ca0a22679d24c9f,2021-10-20_10h46.23.646,forced_choiceRT,2021.1.2,MacIntel,66.66666667,g,1.988,7,0,7,0,1,,,,,,,,,,,,,,,
,,,,,,,,,,,,60fd22c43ca0a22679d24c9f,2021-10-20_10h46.23.646,forced_choiceRT,2021.1.2,MacIntel,66.66666667,g,2.085,8,0,8,0,1,,,,,,,,,,,,,,,
,,,,,,,,,,,,60fd22c43ca0a22679d24c9f,2021-10-20_10h46.23.646,forced_choiceRT,2021.1.2,MacIntel,66.66666667,f,2.065,9,0,9,0,1,,,,,,,,,,,,,,,
,,,,,,,,,,,,60fd22c43ca0a22679d24c9f,2021-10-20_10h46.23.646,forced_choiceRT,2021.1.2,MacIntel,66.66666667,j,1.881,10,0,10,0,1,,,,,,,,,,,,,,,
,,,,,,,,,,,,60fd22c43ca0a22679d24c9f,2021-10-20_10h46.23.646,forced_choiceRT,2021.1.2,MacIntel,66.66666667,j,1.981,11,0,11,0,1,,,,,,,,,,,,,,,
,,,,,,,,,,,,60fd22c43ca0a22679d24c9f,2021-10-20_10h46.23.646,forced_choiceRT,2021.1.2,MacIntel,66.66666667,j,1.892,12,0,12,0,1,,,,,,,,,,,,,,,
,,,,,,,,,,,,60fd22c43ca0a22679d24c9f,2021-10-20_10h46.23.646,forced_choiceRT,2021.1.2,MacIntel,66.66666667,j,2.005,13,0,13,0,1,,,,,,,,,,,,,,,
,,,,,,,,,,,,60fd22c43ca0a22679d24c9f,2021-10-20_10h46.23.646,forced_choiceRT,2021.1.2,MacIntel,66.66666667,j,1.957,14,0,14,0,1,,,,,,,,,,,,,,,
,,,,,,,,,,,,60fd22c43ca0a22679d24c9f,2021-10-20_10h46.23.646,forced_choiceRT,2021.1.2,MacIntel,66.66666667,j,2.003,15,0,15,0,1,,,,,,,,,,,,,,,
,,,,,,,,,,,,60fd22c43ca0a22679d24c9f,2021-10-20_10h46.23.646,forced_choiceRT,2021.1.2,MacIntel,66.66666667,j,1.875,16,0,16,0,1,,,,,,,,,,,,,,,
,,,,,,,,,,,,60fd22c43ca0a22679d24c9f,2021-10-20_10h46.23.646,forced_choiceRT,2021.1.2,MacIntel,66.66666667,j,1.94,17,0,17,0,1,,,,,,,,,,,,,,,
,,,,,,,,,,,,60fd22c43ca0a22679d24c9f,2021-10-20_10h46.23.646,forced_choiceRT,2021.1.2,MacIntel,66.66666667,j,1.916,18,0,18,0,1,,,,,,,,,,,,,,,
,,,,,,,,,,,,60fd22c43ca0a22679d24c9f,2021-10-20_10h46.23.646,forced_choiceRT,2021.1.2,MacIntel,66.66666667,j,1.935,19,0,19,0,1,,,,,,,,,,,,,,,
,1.94,,,,,,,,,h.PNG,h,60fd22c43ca0a22679d24c9f,2021-10-20_10h46.23.646,forced_choiceRT,2021.1.2,MacIntel,66.66666667,,,,,,,,1,Ontime,j,0,1.93,0,0,0,2,1,,,,,
,0.81,,,,,,,,,j.PNG,j,60fd22c43ca0a22679d24c9f,2021-10-20_10h46.23.646,forced_choiceRT,2021.1.2,MacIntel,66.66666667,,,,,,,,1,Fast,j,1,1.808,0,1,1,3,1,,,,,
,0.05,,,,,,,,,h.PNG,h,60fd22c43ca0a22679d24c9f,2021-10-20_10h46.23.646,forced_choiceRT,2021.1.2,MacIntel,66.66666667,,,,,,,,1,Ontime,g,0,2.07,0,2,2,2,1,,,,,
,0.54,,,,,,,,,h.PNG,h,60fd22c43ca0a22679d24c9f,2021-10-20_10h46.23.646,forced_choiceRT,2021.1.2,MacIntel,66.66666667,,,,,,,,1,Ontime,h,1,1.92,0,3,3,2,1,,,,,
,0.82,,,,,,,,,j.PNG,j,60fd22c43ca0a22679d24c9f,2021-10-20_10h46.23.646,forced_choiceRT,2021.1.2,MacIntel,66.66666667,,,,,,,,1,Fast,j,1,1.845,1,0,4,3,1,,,,,
,1.23,,,,,,,,,f.PNG,f,60fd22c43ca0a22679d24c9f,2021-10-20_10h46.23.646,forced_choiceRT,2021.1.2,MacIntel,66.66666667,,,,,,,,1,Ontime,f,1,2.074,1,1,5,0,1,,,,,
,0.11,,,,,,,,,f.PNG,f,60fd22c43ca0a22679d24c9f,2021-10-20_10h46.23.646,forced_choiceRT,2021.1.2,MacIntel,66.66666667,,,,,,,,1,Ontime,f,1,2.007,1,2,6,0,1,,,,,
,1.01,,,,,,,,,h.PNG,h,60fd22c43ca0a22679d24c9f,2021-10-20_10h46.23.646,forced_choiceRT,2021.1.2,MacIntel,66.66666667,,,,,,,,1,Ontime,h,1,2.087,1,3,7,2,1,,,,,
,0.13,,,,,,,,,g.PNG,g,60fd22c43ca0a22679d24c9f,2021-10-20_10h46.23.646,forced_choiceRT,2021.1.2,MacIntel,66.66666667,,,,,,,,1,Ontime,g,1,1.933,2,0,8,1,1,,,,,
,1.98,,,,,,,,,g.PNG,g,60fd22c43ca0a22679d24c9f,2021-10-20_10h46.23.646,forced_choiceRT,2021.1.2,MacIntel,66.66666667,,,,,,,,1,Ontime,g,1,2.079,2,1,9,1,1,,,,,
,1.29,,,,,,,,,j.PNG,j,60fd22c43ca0a22679d24c9f,2021-10-20_10h46.23.646,forced_choiceRT,2021.1.2,MacIntel,66.66666667,,,,,,,,1,Ontime,h,0,2.022,2,2,10,3,1,,,,,
,1.96,,,,,,,,,f.PNG,f,60fd22c43ca0a22679d24c9f,2021-10-20_10h46.23.646,forced_choiceRT,2021.1.2,MacIntel,66.66666667,,,,,,,,1,Ontime,j,0,1.975,2,3,11,0,1,,,,,
,1.5,,,,,,,,,g.PNG,g,60fd22c43ca0a22679d24c9f,2021-10-20_10h46.23.646,forced_choiceRT,2021.1.2,MacIntel,66.66666667,,,,,,,,1,Slow,f,0,2.223,3,0,12,1,1,,,,,
,0.62,,,,,,,,,j.PNG,j,60fd22c43ca0a22679d24c9f,2021-10-20_10h46.23.646,forced_choiceRT,2021.1.2,MacIntel,66.66666667,,,,,,,,1,Ontime,j,1,1.993,3,1,13,3,1,,,,,
,1.09,,,,,,,,,j.PNG,j,60fd22c43ca0a22679d24c9f,2021-10-20_10h46.23.646,forced_choiceRT,2021.1.2,MacIntel,66.66666667,,,,,,,,1,Ontime,j,1,1.919,3,2,14,3,1,,,,,
,0.05,,,,,,,,,g.PNG,g,60fd22c43ca0a22679d24c9f,2021-10-20_10h46.23.646,forced_choiceRT,2021.1.2,MacIntel,66.66666667,,,,,,,,1,Fast,g,1,1.698,3,3,15,1,1,,,,,
,1.28,,,,,,,,,h.PNG,h,60fd22c43ca0a22679d24c9f,2021-10-20_10h46.23.646,forced_choiceRT,2021.1.2,MacIntel,66.66666667,,,,,,,,1,Ontime,h,1,1.987,4,0,16,2,1,,,,,
,0.15,,,,,,,,,j.PNG,j,60fd22c43ca0a22679d24c9f,2021-10-20_10h46.23.646,forced_choiceRT,2021.1.2,MacIntel,66.66666667,,,,,,,,1,Fast,j,1,1.836,4,1,17,3,1,,,,,
,0.81,,,,,,,,,f.PNG,f,60fd22c43ca0a22679d24c9f,2021-10-20_10h46.23.646,forced_choiceRT,2021.1.2,MacIntel,66.66666667,,,,,,,,1,Ontime,f,1,2.099,4,2,18,0,1,,,,,
,0.14,,,,,,,,,j.PNG,j,60fd22c43ca0a22679d24c9f,2021-10-20_10h46.23.646,forced_choiceRT,2021.1.2,MacIntel,66.66666667,,,,,,,,1,Fast,j,1,1.899,4,3,19,3,1,,,,,
,0.2,,,,,,,,,f.PNG,f,60fd22c43ca0a22679d24c9f,2021-10-20_10h46.23.646,forced_choiceRT,2021.1.2,MacIntel,66.66666667,,,,,,,,1,Ontime,f,1,1.966,5,0,20,0,1,,,,,
,1.07,,,,,,,,,j.PNG,j,60fd22c43ca0a22679d24c9f,2021-10-20_10h46.23.646,forced_choiceRT,2021.1.2,MacIntel,66.66666667,,,,,,,,1,Ontime,j,1,1.936,5,1,21,3,1,,,,,
,0.73,,,,,,,,,f.PNG,f,60fd22c43ca0a22679d24c9f,2021-10-20_10h46.23.646,forced_choiceRT,2021.1.2,MacIntel,66.66666667,,,,,,,,1,Ontime,f,1,1.912,5,2,22,0,1,,,,,
,1.61,,,,,,,,,g.PNG,g,60fd22c43ca0a22679d24c9f,2021-10-20_10h46.23.646,forced_choiceRT,2021.1.2,MacIntel,66.66666667,,,,,,,,1,Slow,g,1,2.335,5,3,23,1,1,,,,,
,0.37,,,,,,,,,h.PNG,h,60fd22c43ca0a22679d24c9f,2021-10-20_10h46.23.646,forced_choiceRT,2021.1.2,MacIntel,66.66666667,,,,,,,,1,Ontime,h,1,1.928,6,0,24,2,1,,,,,
,0.79,,,,,,,,,h.PNG,h,60fd22c43ca0a22679d24c9f,2021-10-20_10h46.23.646,forced_choiceRT,2021.1.2,MacIntel,66.66666667,,,,,,,,1,Fast,h,1,1.788,6,1,25,2,1,,,,,
,0.29,,,,,,,,,j.PNG,j,60fd22c43ca0a22679d24c9f,2021-10-20_10h46.23.646,forced_choiceRT,2021.1.2,MacIntel,66.66666667,,,,,,,,1,Fast,j,1,1.869,6,2,26,3,1,,,,,
,1.47,,,,,,,,,h.PNG,h,60fd22c43ca0a22679d24c9f,2021-10-20_10h46.23.646,forced_choiceRT,2021.1.2,MacIntel,66.66666667,,,,,,,,1,Slow,j,0,2.105,6,3,27,2,1,,,,,
,0.42,,,,,,,,,g.PNG,g,60fd22c43ca0a22679d24c9f,2021-10-20_10h46.23.646,forced_choiceRT,2021.1.2,MacIntel,66.66666667,,,,,,,,1,Fast,g,1,1.725,7,0,28,1,1,,,,,
,0.32,,,,,,,,,g.PNG,g,60fd22c43ca0a22679d24c9f,2021-10-20_10h46.23.646,forced_choiceRT,2021.1.2,MacIntel,66.66666667,,,,,,,,1,Ontime,g,1,1.996,7,1,29,1,1,,,,,
,0.68,,,,,,,,,h.PNG,h,60fd22c43ca0a22679d24c9f,2021-10-20_10h46.23.646,forced_choiceRT,2021.1.2,MacIntel,66.66666667,,,,,,,,1,Ontime,h,1,1.957,7,2,30,2,1,,,,,
,1.87,,,,,,,,,g.PNG,g,60fd22c43ca0a22679d24c9f,2021-10-20_10h46.23.646,forced_choiceRT,2021.1.2,MacIntel,66.66666667,,,,,,,,1,Slow,h,0,2.168,7,3,31,1,1,,,,,
,0.4,,,,,,,,,g.PNG,g,60fd22c43ca0a22679d24c9f,2021-10-20_10h46.23.646,forced_choiceRT,2021.1.2,MacIntel,66.66666667,,,,,,,,1,Fast,g,1,1.82,8,0,32,1,1,,,,,
,1.56,,,,,,,,,f.PNG,f,60fd22c43ca0a22679d24c9f,2021-10-20_10h46.23.646,forced_choiceRT,2021.1.2,MacIntel,66.66666667,,,,,,,,1,Ontime,f,1,2.092,8,1,33,0,1,,,,,
,0.84,,,,,,,,,g.PNG,g,60fd22c43ca0a22679d24c9f,2021-10-20_10h46.23.646,forced_choiceRT,2021.1.2,MacIntel,66.66666667,,,,,,,,1,Fast,g,1,1.77,8,2,34,1,1,,,,,
,0.77,,,,,,,,,f.PNG,f,60fd22c43ca0a22679d24c9f,2021-10-20_10h46.23.646,forced_choiceRT,2021.1.2,MacIntel,66.66666667,,,,,,,,1,Ontime,f,1,1.987,8,3,35,0,1,,,,,
,0.55,,,,,,,,,f.PNG,f,60fd22c43ca0a22679d24c9f,2021-10-20_10h46.23.646,forced_choiceRT,2021.1.2,MacIntel,66.66666667,,,,,,,,1,Ontime,f,1,1.969,9,0,36,0,1,,,,,
,1.51,,,,,,,,,j.PNG,j,60fd22c43ca0a22679d24c9f,2021-10-20_10h46.23.646,forced_choiceRT,2021.1.2,MacIntel,66.66666667,,,,,,,,1,Slow,j,1,2.123,9,1,37,3,1,,,,,
,1.54,,,,,,,,,f.PNG,f,60fd22c43ca0a22679d24c9f,2021-10-20_10h46.23.646,forced_choiceRT,2021.1.2,MacIntel,66.66666667,,,,,,,,1,Slow,f,1,2.107,9,2,38,0,1,,,,,
,0.72,,,,,,,,,h.PNG,h,60fd22c43ca0a22679d24c9f,2021-10-20_10h46.23.646,forced_choiceRT,2021.1.2,MacIntel,66.66666667,,,,,,,,1,Fast,h,1,1.694,9,3,39,2,1,,,,,
,,,,,,,,,,,,60fd22c43ca0a22679d24c9f,2021-10-20_10h46.23.646,forced_choiceRT,2021.1.2,MacIntel,66.66666667,,,,,,,,,,,,,,,,,,0,0,0,0,1
,0.13,,,,,,,,,h.PNG,h,60fd22c43ca0a22679d24c9f,2021-10-20_10h46.23.646,forced_choiceRT,2021.1.2,MacIntel,66.66666667,,,,,,,,2,Ontime,h,1,1.922,0,0,0,2,1,,,,,
,0.44,,,,,,,,,g.PNG,g,60fd22c43ca0a22679d24c9f,2021-10-20_10h46.23.646,forced_choiceRT,2021.1.2,MacIntel,66.66666667,,,,,,,,2,Ontime,g,1,2.03,0,1,1,1,1,,,,,
,0.73,,,,,,,,,j.PNG,j,60fd22c43ca0a22679d24c9f,2021-10-20_10h46.23.646,forced_choiceRT,2021.1.2,MacIntel,66.66666667,,,,,,,,2,Ontime,j,1,1.936,0,2,2,3,1,,,,,
,1.87,,,,,,,,,g.PNG,g,60fd22c43ca0a22679d24c9f,2021-10-20_10h46.23.646,forced_choiceRT,2021.1.2,MacIntel,66.66666667,,,,,,,,2,Slow,g,1,2.235,0,3,3,1,1,,,,,
,1.11,,,,,,,,,g.PNG,g,60fd22c43ca0a22679d24c9f,2021-10-20_10h46.23.646,forced_choiceRT,2021.1.2,MacIntel,66.66666667,,,,,,,,2,Fast,g,1,1.886,1,0,4,1,1,,,,,
,0.25,,,,,,,,,g.PNG,g,60fd22c43ca0a22679d24c9f,2021-10-20_10h46.23.646,forced_choiceRT,2021.1.2,MacIntel,66.66666667,,,,,,,,2,Slow,g,1,2.108,1,1,5,1,1,,,,,
,0.3,,,,,,,,,j.PNG,j,60fd22c43ca0a22679d24c9f,2021-10-20_10h46.23.646,forced_choiceRT,2021.1.2,MacIntel,66.66666667,,,,,,,,2,Ontime,j,1,1.908,1,2,6,3,1,,,,,
,0.07,,,,,,,,,f.PNG,f,60fd22c43ca0a22679d24c9f,2021-10-20_10h46.23.646,forced_choiceRT,2021.1.2,MacIntel,66.66666667,,,,,,,,2,Ontime,f,1,2.029,1,3,7,0,1,,,,,
,0.38,,,,,,,,,f.PNG,f,60fd22c43ca0a22679d24c9f,2021-10-20_10h46.23.646,forced_choiceRT,2021.1.2,MacIntel,66.66666667,,,,,,,,2,Ontime,f,1,1.905,2,0,8,0,1,,,,,
,0.02,,,,,,,,,j.PNG,j,60fd22c43ca0a22679d24c9f,2021-10-20_10h46.23.646,forced_choiceRT,2021.1.2,MacIntel,66.66666667,,,,,,,,2,Fast,j,1,1.896,2,1,9,3,1,,,,,
,0.32,,,,,,,,,h.PNG,h,60fd22c43ca0a22679d24c9f,2021-10-20_10h46.23.646,forced_choiceRT,2021.1.2,MacIntel,66.66666667,,,,,,,,2,Ontime,h,1,1.997,2,2,10,2,1,,,,,
,0.74,,,,,,,,,g.PNG,g,60fd22c43ca0a22679d24c9f,2021-10-20_10h46.23.646,forced_choiceRT,2021.1.2,MacIntel,66.66666667,,,,,,,,2,Ontime,g,1,2.005,2,3,11,1,1,,,,,
,1.11,,,,,,,,,f.PNG,f,60fd22c43ca0a22679d24c9f,2021-10-20_10h46.23.646,forced_choiceRT,2021.1.2,MacIntel,66.66666667,,,,,,,,2,Slow,f,1,2.33,3,0,12,0,1,,,,,
,1.54,,,,,,,,,h.PNG,h,60fd22c43ca0a22679d24c9f,2021-10-20_10h46.23.646,forced_choiceRT,2021.1.2,MacIntel,66.66666667,,,,,,,,2,Slow,h,1,2.193,3,1,13,2,1,,,,,
,1.38,,,,,,,,,j.PNG,j,60fd22c43ca0a22679d24c9f,2021-10-20_10h46.23.646,forced_choiceRT,2021.1.2,MacIntel,66.66666667,,,,,,,,2,Ontime,j,1,1.918,3,2,14,3,1,,,,,
,0.13,,,,,,,,,h.PNG,h,60fd22c43ca0a22679d24c9f,2021-10-20_10h46.23.646,forced_choiceRT,2021.1.2,MacIntel,66.66666667,,,,,,,,2,Fast,h,1,1.674,3,3,15,2,1,,,,,
,0.92,,,,,,,,,g.PNG,g,60fd22c43ca0a22679d24c9f,2021-10-20_10h46.23.646,forced_choiceRT,2021.1.2,MacIntel,66.66666667,,,,,,,,2,Fast,f,0,1.598,4,0,16,1,1,,,,,
,0.38,,,,,,,,,h.PNG,h,60fd22c43ca0a22679d24c9f,2021-10-20_10h46.23.646,forced_choiceRT,2021.1.2,MacIntel,66.66666667,,,,,,,,2,Ontime,h,1,1.907,4,1,17,2,1,,,,,
,1.68,,,,,,,,,j.PNG,j,60fd22c43ca0a22679d24c9f,2021-10-20_10h46.23.646,forced_choiceRT,2021.1.2,MacIntel,66.66666667,,,,,,,,2,Slow,j,1,2.234,4,2,18,3,1,,,,,
,1.85,,,,,,,,,f.PNG,f,60fd22c43ca0a22679d24c9f,2021-10-20_10h46.23.646,forced_choiceRT,2021.1.2,MacIntel,66.66666667,,,,,,,,2,Slow,h,0,2.327,4,3,19,0,1,,,,,
,1.96,,,,,,,,,h.PNG,h,60fd22c43ca0a22679d24c9f,2021-10-20_10h46.23.646,forced_choiceRT,2021.1.2,MacIntel,66.66666667,,,,,,,,2,Fast,h,1,1.839,5,0,20,2,1,,,,,
,0.31,,,,,,,,,j.PNG,j,60fd22c43ca0a22679d24c9f,2021-10-20_10h46.23.646,forced_choiceRT,2021.1.2,MacIntel,66.66666667,,,,,,,,2,Fast,j,1,1.9,5,1,21,3,1,,,,,
,1.99,,,,,,,,,h.PNG,h,60fd22c43ca0a22679d24c9f,2021-10-20_10h46.23.646,forced_choiceRT,2021.1.2,MacIntel,66.66666667,,,,,,,,2,Ontime,j,0,2.024,5,2,22,2,1,,,,,
,0.6,,,,,,,,,h.PNG,h,60fd22c43ca0a22679d24c9f,2021-10-20_10h46.23.646,forced_choiceRT,2021.1.2,MacIntel,66.66666667,,,,,,,,2,Ontime,h,1,1.917,5,3,23,2,1,,,,,
,0.94,,,,,,,,,j.PNG,j,60fd22c43ca0a22679d24c9f,2021-10-20_10h46.23.646,forced_choiceRT,2021.1.2,MacIntel,66.66666667,,,,,,,,2,Fast,j,1,1.787,6,0,24,3,1,,,,,
,1.46,,,,,,,,,g.PNG,g,60fd22c43ca0a22679d24c9f,2021-10-20_10h46.23.646,forced_choiceRT,2021.1.2,MacIntel,66.66666667,,,,,,,,2,Ontime,g,1,2.027,6,1,25,1,1,,,,,
,1.46,,,,,,,,,g.PNG,g,60fd22c43ca0a22679d24c9f,2021-10-20_10h46.23.646,forced_choiceRT,2021.1.2,MacIntel,66.66666667,,,,,,,,2,Ontime,f,0,2.09,6,2,26,1,1,,,,,
,1.11,,,,,,,,,j.PNG,j,60fd22c43ca0a22679d24c9f,2021-10-20_10h46.23.646,forced_choiceRT,2021.1.2,MacIntel,66.66666667,,,,,,,,2,Fast,j,1,1.832,6,3,27,3,1,,,,,
,0.19,,,,,,,,,h.PNG,h,60fd22c43ca0a22679d24c9f,2021-10-20_10h46.23.646,forced_choiceRT,2021.1.2,MacIntel,66.66666667,,,,,,,,2,Fast,h,1,1.888,7,0,28,2,1,,,,,
,1.93,,,,,,,,,f.PNG,f,60fd22c43ca0a22679d24c9f,2021-10-20_10h46.23.646,forced_choiceRT,2021.1.2,MacIntel,66.66666667,,,,,,,,2,Ontime,h,0,2.006,7,1,29,0,1,,,,,
,0.45,,,,,,,,,f.PNG,f,60fd22c43ca0a22679d24c9f,2021-10-20_10h46.23.646,forced_choiceRT,2021.1.2,MacIntel,66.66666667,,,,,,,,2,Ontime,f,1,1.91,7,2,30,0,1,,,,,
,1.16,,,,,,,,,j.PNG,j,60fd22c43ca0a22679d24c9f,2021-10-20_10h46.23.646,forced_choiceRT,2021.1.2,MacIntel,66.66666667,,,,,,,,2,Fast,j,1,1.858,7,3,31,3,1,,,,,
,0.47,,,,,,,,,f.PNG,f,60fd22c43ca0a22679d24c9f,2021-10-20_10h46.23.646,forced_choiceRT,2021.1.2,MacIntel,66.66666667,,,,,,,,2,Ontime,f,1,1.922,8,0,32,0,1,,,,,
,0.45,,,,,,,,,f.PNG,f,60fd22c43ca0a22679d24c9f,2021-10-20_10h46.23.646,forced_choiceRT,2021.1.2,MacIntel,66.66666667,,,,,,,,2,Ontime,f,1,1.981,8,1,33,0,1,,,,,
,0.19,,,,,,,,,g.PNG,g,60fd22c43ca0a22679d24c9f,2021-10-20_10h46.23.646,forced_choiceRT,2021.1.2,MacIntel,66.66666667,,,,,,,,2,Fast,g,1,1.834,8,2,34,1,1,,,,,
,1.63,,,,,,,,,h.PNG,h,60fd22c43ca0a22679d24c9f,2021-10-20_10h46.23.646,forced_choiceRT,2021.1.2,MacIntel,66.66666667,,,,,,,,2,Slow,j,0,2.218,8,3,35,2,1,,,,,
,0.85,,,,,,,,,g.PNG,g,60fd22c43ca0a22679d24c9f,2021-10-20_10h46.23.646,forced_choiceRT,2021.1.2,MacIntel,66.66666667,,,,,,,,2,Fast,g,1,1.888,9,0,36,1,1,,,,,
,1.94,,,,,,,,,f.PNG,f,60fd22c43ca0a22679d24c9f,2021-10-20_10h46.23.646,forced_choiceRT,2021.1.2,MacIntel,66.66666667,,,,,,,,2,Slow,g,0,2.102,9,1,37,0,1,,,,,
,0.86,,,,,,,,,j.PNG,j,60fd22c43ca0a22679d24c9f,2021-10-20_10h46.23.646,forced_choiceRT,2021.1.2,MacIntel,66.66666667,,,,,,,,2,Ontime,j,1,2.001,9,2,38,3,1,,,,,
,1.86,,,,,,,,,f.PNG,f,60fd22c43ca0a22679d24c9f,2021-10-20_10h46.23.646,forced_choiceRT,2021.1.2,MacIntel,66.66666667,,,,,,,,2,Fast,j,0,1.886,9,3,39,0,1,,,,,
,,,,,,,,,,,,60fd22c43ca0a22679d24c9f,2021-10-20_10h46.23.646,forced_choiceRT,2021.1.2,MacIntel,66.66666667,,,,,,,,,,,,,,,,,,1,0,1,0,1
,1.32,,,,,,,,,h.PNG,h,60fd22c43ca0a22679d24c9f,2021-10-20_10h46.23.646,forced_choiceRT,2021.1.2,MacIntel,66.66666667,,,,,,,,3,Ontime,h,1,2.021,0,0,0,2,1,,,,,
,0.28,,,,,,,,,h.PNG,h,60fd22c43ca0a22679d24c9f,2021-10-20_10h46.23.646,forced_choiceRT,2021.1.2,MacIntel,66.66666667,,,,,,,,3,Ontime,h,1,1.956,0,1,1,2,1,,,,,
,0.27,,,,,,,,,j.PNG,j,60fd22c43ca0a22679d24c9f,2021-10-20_10h46.23.646,forced_choiceRT,2021.1.2,MacIntel,66.66666667,,,,,,,,3,Fast,j,1,1.85,0,2,2,3,1,,,,,
,1.62,,,,,,,,,j.PNG,j,60fd22c43ca0a22679d24c9f,2021-10-20_10h46.23.646,forced_choiceRT,2021.1.2,MacIntel,66.66666667,,,,,,,,3,Ontime,h,0,2.005,0,3,3,3,1,,,,,
,0.19,,,,,,,,,g.PNG,g,60fd22c43ca0a22679d24c9f,2021-10-20_10h46.23.646,forced_choiceRT,2021.1.2,MacIntel,66.66666667,,,,,,,,3,Ontime,g,1,2.02,1,0,4,1,1,,,,,
,0.24,,,,,,,,,j.PNG,j,60fd22c43ca0a22679d24c9f,2021-10-20_10h46.23.646,forced_choiceRT,2021.1.2,MacIntel,66.66666667,,,,,,,,3,Ontime,j,1,2.019,1,1,5,3,1,,,,,
,0.31,,,,,,,,,f.PNG,f,60fd22c43ca0a22679d24c9f,2021-10-20_10h46.23.646,forced_choiceRT,2021.1.2,MacIntel,66.66666667,,,,,,,,3,Ontime,f,1,1.998,1,2,6,0,1,,,,,
,1.64,,,,,,,,,f.PNG,f,60fd22c43ca0a22679d24c9f,2021-10-20_10h46.23.646,forced_choiceRT,2021.1.2,MacIntel,66.66666667,,,,,,,,3,Ontime,f,1,2.036,1,3,7,0,1,,,,,
,1.14,,,,,,,,,g.PNG,g,60fd22c43ca0a22679d24c9f,2021-10-20_10h46.23.646,forced_choiceRT,2021.1.2,MacIntel,66.66666667,,,,,,,,3,Ontime,g,1,1.973,2,0,8,1,1,,,,,
,0.88,,,,,,,,,h.PNG,h,60fd22c43ca0a22679d24c9f,2021-10-20_10h46.23.646,forced_choiceRT,2021.1.2,MacIntel,66.66666667,,,,,,,,3,Ontime,h,1,2.052,2,1,9,2,1,,,,,
,0.15,,,,,,,,,j.PNG,j,60fd22c43ca0a22679d24c9f,2021-10-20_10h46.23.646,forced_choiceRT,2021.1.2,MacIntel,66.66666667,,,,,,,,3,Ontime,j,1,1.934,2,2,10,3,1,,,,,
,1.65,,,,,,,,,j.PNG,j,60fd22c43ca0a22679d24c9f,2021-10-20_10h46.23.646,forced_choiceRT,2021.1.2,MacIntel,66.66666667,,,,,,,,3,Ontime,h,0,2.052,2,3,11,3,1,,,,,
,1.17,,,,,,,,,h.PNG,h,60fd22c43ca0a22679d24c9f,2021-10-20_10h46.23.646,forced_choiceRT,2021.1.2,MacIntel,66.66666667,,,,,,,,3,Ontime,h,1,1.97,3,0,12,2,1,,,,,
,0.82,,,,,,,,,f.PNG,f,60fd22c43ca0a22679d24c9f,2021-10-20_10h46.23.646,forced_choiceRT,2021.1.2,MacIntel,66.66666667,,,,,,,,3,Slow,f,1,2.113,3,1,13,0,1,,,,,
,1.41,,,,,,,,,f.PNG,f,60fd22c43ca0a22679d24c9f,2021-10-20_10h46.23.646,forced_choiceRT,2021.1.2,MacIntel,66.66666667,,,,,,,,3,Ontime,f,1,1.996,3,2,14,0,1,,,,,
,1.88,,,,,,,,,h.PNG,h,60fd22c43ca0a22679d24c9f,2021-10-20_10h46.23.646,forced_choiceRT,2021.1.2,MacIntel,66.66666667,,,,,,,,3,Ontime,f,0,1.997,3,3,15,2,1,,,,,
,0.19,,,,,,,,,g.PNG,g,60fd22c43ca0a22679d24c9f,2021-10-20_10h46.23.646,forced_choiceRT,2021.1.2,MacIntel,66.66666667,,,,,,,,3,Fast,g,1,1.887,4,0,16,1,1,,,,,
,0.83,,,,,,,,,g.PNG,g,60fd22c43ca0a22679d24c9f,2021-10-20_10h46.23.646,forced_choiceRT,2021.1.2,MacIntel,66.66666667,,,,,,,,3,Ontime,g,1,1.974,4,1,17,1,1,,,,,
,0.87,,,,,,,,,j.PNG,j,60fd22c43ca0a22679d24c9f,2021-10-20_10h46.23.646,forced_choiceRT,2021.1.2,MacIntel,66.66666667,,,,,,,,3,Fast,j,1,1.877,4,2,18,3,1,,,,,
,0.17,,,,,,,,,h.PNG,h,60fd22c43ca0a22679d24c9f,2021-10-20_10h46.23.646,forced_choiceRT,2021.1.2,MacIntel,66.66666667,,,,,,,,3,Ontime,h,1,2.032,4,3,19,2,1,,,,,
,0.85,,,,,,,,,f.PNG,f,60fd22c43ca0a22679d24c9f,2021-10-20_10h46.23.646,forced_choiceRT,2021.1.2,MacIntel,66.66666667,,,,,,,,3,Ontime,f,1,2.039,5,0,20,0,1,,,,,
,0.82,,,,,,,,,g.PNG,g,60fd22c43ca0a22679d24c9f,2021-10-20_10h46.23.646,forced_choiceRT,2021.1.2,MacIntel,66.66666667,,,,,,,,3,Ontime,g,1,1.998,5,1,21,1,1,,,,,
,0.14,,,,,,,,,f.PNG,f,60fd22c43ca0a22679d24c9f,2021-10-20_10h46.23.646,forced_choiceRT,2021.1.2,MacIntel,66.66666667,,,,,,,,3,Ontime,f,1,2.084,5,2,22,0,1,,,,,
,1.53,,,,,,,,,h.PNG,h,60fd22c43ca0a22679d24c9f,2021-10-20_10h46.23.646,forced_choiceRT,2021.1.2,MacIntel,66.66666667,,,,,,,,3,Ontime,f,0,1.965,5,3,23,2,1,,,,,
,0.96,,,,,,,,,h.PNG,h,60fd22c43ca0a22679d24c9f,2021-10-20_10h46.23.646,forced_choiceRT,2021.1.2,MacIntel,66.66666667,,,,,,,,3,Fast,h,1,1.826,6,0,24,2,1,,,,,
,0.68,,,,,,,,,g.PNG,g,60fd22c43ca0a22679d24c9f,2021-10-20_10h46.23.646,forced_choiceRT,2021.1.2,MacIntel,66.66666667,,,,,,,,3,Ontime,g,1,1.987,6,1,25,1,1,,,,,
,0.62,,,,,,,,,j.PNG,j,60fd22c43ca0a22679d24c9f,2021-10-20_10h46.23.646,forced_choiceRT,2021.1.2,MacIntel,66.66666667,,,,,,,,3,Ontime,h,0,1.968,6,2,26,3,1,,,,,
,0.35,,,,,,,,,j.PNG,j,60fd22c43ca0a22679d24c9f,2021-10-20_10h46.23.646,forced_choiceRT,2021.1.2,MacIntel,66.66666667,,,,,,,,3,Fast,j,1,1.898,6,3,27,3,1,,,,,
,0.57,,,,,,,,,j.PNG,j,60fd22c43ca0a22679d24c9f,2021-10-20_10h46.23.646,forced_choiceRT,2021.1.2,MacIntel,66.66666667,,,,,,,,3,Fast,j,1,1.809,7,0,28,3,1,,,,,
,1.88,,,,,,,,,f.PNG,f,60fd22c43ca0a22679d24c9f,2021-10-20_10h46.23.646,forced_choiceRT,2021.1.2,MacIntel,66.66666667,,,,,,,,3,Ontime,j,0,1.913,7,1,29,0,1,,,,,
,1.1,,,,,,,,,h.PNG,h,60fd22c43ca0a22679d24c9f,2021-10-20_10h46.23.646,forced_choiceRT,2021.1.2,MacIntel,66.66666667,,,,,,,,3,Fast,j,0,1.899,7,2,30,2,1,,,,,
,1.67,,,,,,,,,g.PNG,g,60fd22c43ca0a22679d24c9f,2021-10-20_10h46.23.646,forced_choiceRT,2021.1.2,MacIntel,66.66666667,,,,,,,,3,Ontime,h,0,1.93,7,3,31,1,1,,,,,
,0.8,,,,,,,,,h.PNG,h,60fd22c43ca0a22679d24c9f,2021-10-20_10h46.23.646,forced_choiceRT,2021.1.2,MacIntel,66.66666667,,,,,,,,3,Ontime,g,0,1.975,8,0,32,2,1,,,,,
,0.08,,,,,,,,,f.PNG,f,60fd22c43ca0a22679d24c9f,2021-10-20_10h46.23.646,forced_choiceRT,2021.1.2,MacIntel,66.66666667,,,,,,,,3,Fast,f,1,1.83,8,1,33,0,1,,,,,
,0.38,,,,,,,,,g.PNG,g,60fd22c43ca0a22679d24c9f,2021-10-20_10h46.23.646,forced_choiceRT,2021.1.2,MacIntel,66.66666667,,,,,,,,3,Ontime,g,1,2.044,8,2,34,1,1,,,,,
,1.21,,,,,,,,,g.PNG,g,60fd22c43ca0a22679d24c9f,2021-10-20_10h46.23.646,forced_choiceRT,2021.1.2,MacIntel,66.66666667,,,,,,,,3,Fast,g,1,1.887,8,3,35,1,1,,,,,
,1.94,,,,,,,,,j.PNG,j,60fd22c43ca0a22679d24c9f,2021-10-20_10h46.23.646,forced_choiceRT,2021.1.2,MacIntel,66.66666667,,,,,,,,3,Ontime,g,0,2.04,9,0,36,3,1,,,,,
,0.78,,,,,,,,,g.PNG,g,60fd22c43ca0a22679d24c9f,2021-10-20_10h46.23.646,forced_choiceRT,2021.1.2,MacIntel,66.66666667,,,,,,,,3,Ontime,g,1,2.011,9,1,37,1,1,,,,,
,0.41,,,,,,,,,f.PNG,f,60fd22c43ca0a22679d24c9f,2021-10-20_10h46.23.646,forced_choiceRT,2021.1.2,MacIntel,66.66666667,,,,,,,,3,Ontime,f,1,2.013,9,2,38,0,1,,,,,
,1.54,,,,,,,,,f.PNG,f,60fd22c43ca0a22679d24c9f,2021-10-20_10h46.23.646,forced_choiceRT,2021.1.2,MacIntel,66.66666667,,,,,,,,3,Ontime,f,1,2.02,9,3,39,0,1,,,,,
,,,,,,,,,,,,60fd22c43ca0a22679d24c9f,2021-10-20_10h46.23.646,forced_choiceRT,2021.1.2,MacIntel,66.66666667,,,,,,,,,,,,,,,,,,2,0,2,0,1
,1.25,,,,,,,,,j.PNG,j,60fd22c43ca0a22679d24c9f,2021-10-20_10h46.23.646,forced_choiceRT,2021.1.2,MacIntel,66.66666667,,,,,,,,4,Ontime,j,1,2.023,0,0,0,3,1,,,,,
,1.54,,,,,,,,,j.PNG,j,60fd22c43ca0a22679d24c9f,2021-10-20_10h46.23.646,forced_choiceRT,2021.1.2,MacIntel,66.66666667,,,,,,,,4,Ontime,h,0,1.95,0,1,1,3,1,,,,,
,0.91,,,,,,,,,j.PNG,j,60fd22c43ca0a22679d24c9f,2021-10-20_10h46.23.646,forced_choiceRT,2021.1.2,MacIntel,66.66666667,,,,,,,,4,Ontime,j,1,1.992,0,2,2,3,1,,,,,
,0.26,,,,,,,,,h.PNG,h,60fd22c43ca0a22679d24c9f,2021-10-20_10h46.23.646,forced_choiceRT,2021.1.2,MacIntel,66.66666667,,,,,,,,4,Ontime,h,1,1.945,0,3,3,2,1,,,,,
,1.53,,,,,,,,,j.PNG,j,60fd22c43ca0a22679d24c9f,2021-10-20_10h46.23.646,forced_choiceRT,2021.1.2,MacIntel,66.66666667,,,,,,,,4,Ontime,h,0,1.92,1,0,4,3,1,,,,,
,0.29,,,,,,,,,g.PNG,g,60fd22c43ca0a22679d24c9f,2021-10-20_10h46.23.646,forced_choiceRT,2021.1.2,MacIntel,66.66666667,,,,,,,,4,Ontime,g,1,1.969,1,1,5,1,1,,,,,
,0.39,,,,,,,,,h.PNG,h,60fd22c43ca0a22679d24c9f,2021-10-20_10h46.23.646,forced_choiceRT,2021.1.2,MacIntel,66.66666667,,,,,,,,4,Ontime,h,1,1.905,1,2,6,2,1,,,,,
,0.42,,,,,,,,,g.PNG,g,60fd22c43ca0a22679d24c9f,2021-10-20_10h46.23.646,forced_choiceRT,2021.1.2,MacIntel,66.66666667,,,,,,,,4,Ontime,g,1,2.007,1,3,7,1,1,,,,,
,1.72,,,,,,,,,h.PNG,h,60fd22c43ca0a22679d24c9f,2021-10-20_10h46.23.646,forced_choiceRT,2021.1.2,MacIntel,66.66666667,,,,,,,,4,Ontime,g,0,2.083,2,0,8,2,1,,,,,
,1.29,,,,,,,,,f.PNG,f,60fd22c43ca0a22679d24c9f,2021-10-20_10h46.23.646,forced_choiceRT,2021.1.2,MacIntel,66.66666667,,,,,,,,4,Ontime,f,1,1.927,2,1,9,0,1,,,,,
,1.11,,,,,,,,,g.PNG,g,60fd22c43ca0a22679d24c9f,2021-10-20_10h46.23.646,forced_choiceRT,2021.1.2,MacIntel,66.66666667,,,,,,,,4,Ontime,g,1,1.902,2,2,10,1,1,,,,,
,1.27,,,,,,,,,h.PNG,h,60fd22c43ca0a22679d24c9f,2021-10-20_10h46.23.646,forced_choiceRT,2021.1.2,MacIntel,66.66666667,,,,,,,,4,Ontime,h,1,2.037,2,3,11,2,1,,,,,
,0.03,,,,,,,,,h.PNG,h,60fd22c43ca0a22679d24c9f,2021-10-20_10h46.23.646,forced_choiceRT,2021.1.2,MacIntel,66.66666667,,,,,,,,4,Ontime,h,1,1.909,3,0,12,2,1,,,,,
,1.42,,,,,,,,,f.PNG,f,60fd22c43ca0a22679d24c9f,2021-10-20_10h46.23.646,forced_choiceRT,2021.1.2,MacIntel,66.66666667,,,,,,,,4,Ontime,g,0,2.014,3,1,13,0,1,,,,,
,1.12,,,,,,,,,g.PNG,g,60fd22c43ca0a22679d24c9f,2021-10-20_10h46.23.646,forced_choiceRT,2021.1.2,MacIntel,66.66666667,,,,,,,,4,Ontime,g,1,2.069,3,2,14,1,1,,,,,
,1.66,,,,,,,,,g.PNG,g,60fd22c43ca0a22679d24c9f,2021-10-20_10h46.23.646,forced_choiceRT,2021.1.2,MacIntel,66.66666667,,,,,,,,4,Fast,g,1,1.877,3,3,15,1,1,,,,,
,0.18,,,,,,,,,f.PNG,f,60fd22c43ca0a22679d24c9f,2021-10-20_10h46.23.646,forced_choiceRT,2021.1.2,MacIntel,66.66666667,,,,,,,,4,Ontime,f,1,1.901,4,0,16,0,1,,,,,
,0.87,,,,,,,,,g.PNG,g,60fd22c43ca0a22679d24c9f,2021-10-20_10h46.23.646,forced_choiceRT,2021.1.2,MacIntel,66.66666667,,,,,,,,4,Ontime,g,1,1.921,4,1,17,1,1,,,,,
,0.55,,,,,,,,,h.PNG,h,60fd22c43ca0a22679d24c9f,2021-10-20_10h46.23.646,forced_choiceRT,2021.1.2,MacIntel,66.66666667,,,,,,,,4,Ontime,h,1,2.029,4,2,18,2,1,,,,,
,1.1,,,,,,,,,g.PNG,g,60fd22c43ca0a22679d24c9f,2021-10-20_10h46.23.646,forced_choiceRT,2021.1.2,MacIntel,66.66666667,,,,,,,,4,Ontime,g,1,1.917,4,3,19,1,1,,,,,
,0.93,,,,,,,,,j.PNG,j,60fd22c43ca0a22679d24c9f,2021-10-20_10h46.23.646,forced_choiceRT,2021.1.2,MacIntel,66.66666667,,,,,,,,4,Ontime,j,1,1.919,5,0,20,3,1,,,,,
,0.48,,,,,,,,,h.PNG,h,60fd22c43ca0a22679d24c9f,2021-10-20_10h46.23.646,forced_choiceRT,2021.1.2,MacIntel,66.66666667,,,,,,,,4,Ontime,h,1,1.966,5,1,21,2,1,,,,,
,0.32,,,,,,,,,f.PNG,f,60fd22c43ca0a22679d24c9f,2021-10-20_10h46.23.646,forced_choiceRT,2021.1.2,MacIntel,66.66666667,,,,,,,,4,Ontime,f,1,2.046,5,2,22,0,1,,,,,
,1.26,,,,,,,,,f.PNG,f,60fd22c43ca0a22679d24c9f,2021-10-20_10h46.23.646,forced_choiceRT,2021.1.2,MacIntel,66.66666667,,,,,,,,4,Ontime,f,1,2.064,5,3,23,0,1,,,,,
,1.89,,,,,,,,,j.PNG,j,60fd22c43ca0a22679d24c9f,2021-10-20_10h46.23.646,forced_choiceRT,2021.1.2,MacIntel,66.66666667,,,,,,,,4,Slow,g,0,2.237,6,0,24,3,1,,,,,
,0.26,,,,,,,,,j.PNG,j,60fd22c43ca0a22679d24c9f,2021-10-20_10h46.23.646,forced_choiceRT,2021.1.2,MacIntel,66.66666667,,,,,,,,4,Ontime,j,1,2.043,6,1,25,3,1,,,,,
,1.63,,,,,,,,,g.PNG,g,60fd22c43ca0a22679d24c9f,2021-10-20_10h46.23.646,forced_choiceRT,2021.1.2,MacIntel,66.66666667,,,,,,,,4,Slow,j,0,2.357,6,2,26,1,1,,,,,
,1.69,,,,,,,,,f.PNG,f,60fd22c43ca0a22679d24c9f,2021-10-20_10h46.23.646,forced_choiceRT,2021.1.2,MacIntel,66.66666667,,,,,,,,4,Ontime,j,0,1.978,6,3,27,0,1,,,,,
,0.43,,,,,,,,,h.PNG,h,60fd22c43ca0a22679d24c9f,2021-10-20_10h46.23.646,forced_choiceRT,2021.1.2,MacIntel,66.66666667,,,,,,,,4,Fast,j,0,1.814,7,0,28,2,1,,,,,
,0.04,,,,,,,,,f.PNG,f,60fd22c43ca0a22679d24c9f,2021-10-20_10h46.23.646,forced_choiceRT,2021.1.2,MacIntel,66.66666667,,,,,,,,4,Fast,f,1,1.867,7,1,29,0,1,,,,,
,1.99,,,,,,,,,f.PNG,f,60fd22c43ca0a22679d24c9f,2021-10-20_10h46.23.646,forced_choiceRT,2021.1.2,MacIntel,66.66666667,,,,,,,,4,Fast,f,1,0.3,7,2,30,0,1,,,,,
,1.43,,,,,,,,,h.PNG,h,60fd22c43ca0a22679d24c9f,2021-10-20_10h46.23.646,forced_choiceRT,2021.1.2,MacIntel,66.66666667,,,,,,,,4,Fast,f,0,1.803,7,3,31,2,1,,,,,
,0.32,,,,,,,,,j.PNG,j,60fd22c43ca0a22679d24c9f,2021-10-20_10h46.23.646,forced_choiceRT,2021.1.2,MacIntel,66.66666667,,,,,,,,4,Fast,j,1,1.854,8,0,32,3,1,,,,,
,1.6,,,,,,,,,g.PNG,g,60fd22c43ca0a22679d24c9f,2021-10-20_10h46.23.646,forced_choiceRT,2021.1.2,MacIntel,66.66666667,,,,,,,,4,Ontime,j,0,2.01,8,1,33,1,1,,,,,
,1.68,,,,,,,,,f.PNG,f,60fd22c43ca0a22679d24c9f,2021-10-20_10h46.23.646,forced_choiceRT,2021.1.2,MacIntel,66.66666667,,,,,,,,4,Ontime,j,0,2,8,2,34,0,1,,,,,
,0.21,,,,,,,,,j.PNG,j,60fd22c43ca0a22679d24c9f,2021-10-20_10h46.23.646,forced_choiceRT,2021.1.2,MacIntel,66.66666667,,,,,,,,4,Ontime,j,1,1.99,8,3,35,3,1,,,,,
,1.14,,,,,,,,,j.PNG,j,60fd22c43ca0a22679d24c9f,2021-10-20_10h46.23.646,forced_choiceRT,2021.1.2,MacIntel,66.66666667,,,,,,,,4,Ontime,j,1,1.998,9,0,36,3,1,,,,,
,1.1,,,,,,,,,f.PNG,f,60fd22c43ca0a22679d24c9f,2021-10-20_10h46.23.646,forced_choiceRT,2021.1.2,MacIntel,66.66666667,,,,,,,,4,Slow,f,1,2.236,9,1,37,0,1,,,,,
,1.91,,,,,,,,,g.PNG,g,60fd22c43ca0a22679d24c9f,2021-10-20_10h46.23.646,forced_choiceRT,2021.1.2,MacIntel,66.66666667,,,,,,,,4,Ontime,f,0,1.986,9,2,38,1,1,,,,,
,1.3,,,,,,,,,h.PNG,h,60fd22c43ca0a22679d24c9f,2021-10-20_10h46.23.646,forced_choiceRT,2021.1.2,MacIntel,66.66666667,,,,,,,,4,Fast,f,0,1.704,9,3,39,2,1,,,,,
,,,,,,,,,,,,60fd22c43ca0a22679d24c9f,2021-10-20_10h46.23.646,forced_choiceRT,2021.1.2,MacIntel,66.66666667,,,,,,,,,,,,,,,,,,3,0,3,0,1
,0.25,,,,,,,,,f.PNG,f,60fd22c43ca0a22679d24c9f,2021-10-20_10h46.23.646,forced_choiceRT,2021.1.2,MacIntel,66.66666667,,,,,,,,5,Fast,f,1,1.794,0,0,0,0,1,,,,,
,0.61,,,,,,,,,f.PNG,f,60fd22c43ca0a22679d24c9f,2021-10-20_10h46.23.646,forced_choiceRT,2021.1.2,MacIntel,66.66666667,,,,,,,,5,Fast,f,1,1.886,0,1,1,0,1,,,,,
,0.03,,,,,,,,,f.PNG,f,60fd22c43ca0a22679d24c9f,2021-10-20_10h46.23.646,forced_choiceRT,2021.1.2,MacIntel,66.66666667,,,,,,,,5,Slow,f,1,2.193,0,2,2,0,1,,,,,
,0.55,,,,,,,,,f.PNG,f,60fd22c43ca0a22679d24c9f,2021-10-20_10h46.23.646,forced_choiceRT,2021.1.2,MacIntel,66.66666667,,,,,,,,5,Ontime,f,1,1.929,0,3,3,0,1,,,,,
,0.65,,,,,,,,,f.PNG,f,60fd22c43ca0a22679d24c9f,2021-10-20_10h46.23.646,forced_choiceRT,2021.1.2,MacIntel,66.66666667,,,,,,,,5,Ontime,f,1,1.922,1,0,4,0,1,,,,,
,1.56,,,,,,,,,f.PNG,f,60fd22c43ca0a22679d24c9f,2021-10-20_10h46.23.646,forced_choiceRT,2021.1.2,MacIntel,66.66666667,,,,,,,,5,Fast,f,1,1.88,1,1,5,0,1,,,,,
,1.07,,,,,,,,,j.PNG,j,60fd22c43ca0a22679d24c9f,2021-10-20_10h46.23.646,forced_choiceRT,2021.1.2,MacIntel,66.66666667,,,,,,,,5,Ontime,j,1,2.014,1,2,6,3,1,,,,,
,0.5,,,,,,,,,h.PNG,h,60fd22c43ca0a22679d24c9f,2021-10-20_10h46.23.646,forced_choiceRT,2021.1.2,MacIntel,66.66666667,,,,,,,,5,Fast,h,1,1.854,1,3,7,2,1,,,,,
,0.28,,,,,,,,,j.PNG,j,60fd22c43ca0a22679d24c9f,2021-10-20_10h46.23.646,forced_choiceRT,2021.1.2,MacIntel,66.66666667,,,,,,,,5,Fast,j,1,1.863,2,0,8,3,1,,,,,
,0.36,,,,,,,,,g.PNG,g,60fd22c43ca0a22679d24c9f,2021-10-20_10h46.23.646,forced_choiceRT,2021.1.2,MacIntel,66.66666667,,,,,,,,5,Ontime,g,1,1.988,2,1,9,1,1,,,,,
,0.54,,,,,,,,,h.PNG,h,60fd22c43ca0a22679d24c9f,2021-10-20_10h46.23.646,forced_choiceRT,2021.1.2,MacIntel,66.66666667,,,,,,,,5,Ontime,h,1,1.915,2,2,10,2,1,,,,,
,0.71,,,,,,,,,h.PNG,h,60fd22c43ca0a22679d24c9f,2021-10-20_10h46.23.646,forced_choiceRT,2021.1.2,MacIntel,66.66666667,,,,,,,,5,Fast,h,1,1.775,2,3,11,2,1,,,,,
,1.16,,,,,,,,,j.PNG,j,60fd22c43ca0a22679d24c9f,2021-10-20_10h46.23.646,forced_choiceRT,2021.1.2,MacIntel,66.66666667,,,,,,,,5,Ontime,j,1,1.99,3,0,12,3,1,,,,,
,0.23,,,,,,,,,f.PNG,f,60fd22c43ca0a22679d24c9f,2021-10-20_10h46.23.646,forced_choiceRT,2021.1.2,MacIntel,66.66666667,,,,,,,,5,Fast,f,1,1.862,3,1,13,0,1,,,,,
,1.1,,,,,,,,,h.PNG,h,60fd22c43ca0a22679d24c9f,2021-10-20_10h46.23.646,forced_choiceRT,2021.1.2,MacIntel,66.66666667,,,,,,,,5,Ontime,h,1,2.053,3,2,14,2,1,,,,,
,1.38,,,,,,,,,g.PNG,g,60fd22c43ca0a22679d24c9f,2021-10-20_10h46.23.646,forced_choiceRT,2021.1.2,MacIntel,66.66666667,,,,,,,,5,Ontime,g,1,2.034,3,3,15,1,1,,,,,
,1.8,,,,,,,,,h.PNG,h,60fd22c43ca0a22679d24c9f,2021-10-20_10h46.23.646,forced_choiceRT,2021.1.2,MacIntel,66.66666667,,,,,,,,5,Slow,g,0,2.18,4,0,16,2,1,,,,,
,0.68,,,,,,,,,j.PNG,j,60fd22c43ca0a22679d24c9f,2021-10-20_10h46.23.646,forced_choiceRT,2021.1.2,MacIntel,66.66666667,,,,,,,,5,Ontime,j,1,1.982,4,1,17,3,1,,,,,
,1.89,,,,,,,,,f.PNG,f,60fd22c43ca0a22679d24c9f,2021-10-20_10h46.23.646,forced_choiceRT,2021.1.2,MacIntel,66.66666667,,,,,,,,5,Slow,h,0,2.284,4,2,18,0,1,,,,,
,1.71,,,,,,,,,j.PNG,j,60fd22c43ca0a22679d24c9f,2021-10-20_10h46.23.646,forced_choiceRT,2021.1.2,MacIntel,66.66666667,,,,,,,,5,Ontime,f,0,2.039,4,3,19,3,1,,,,,
,1.06,,,,,,,,,g.PNG,g,60fd22c43ca0a22679d24c9f,2021-10-20_10h46.23.646,forced_choiceRT,2021.1.2,MacIntel,66.66666667,,,,,,,,5,Fast,j,0,1.446,5,0,20,1,1,,,,,
,0.87,,,,,,,,,g.PNG,g,60fd22c43ca0a22679d24c9f,2021-10-20_10h46.23.646,forced_choiceRT,2021.1.2,MacIntel,66.66666667,,,,,,,,5,Ontime,g,1,1.962,5,1,21,1,1,,,,,
,0.43,,,,,,,,,g.PNG,g,60fd22c43ca0a22679d24c9f,2021-10-20_10h46.23.646,forced_choiceRT,2021.1.2,MacIntel,66.66666667,,,,,,,,5,Fast,g,1,1.818,5,2,22,1,1,,,,,
,0.62,,,,,,,,,h.PNG,h,60fd22c43ca0a22679d24c9f,2021-10-20_10h46.23.646,forced_choiceRT,2021.1.2,MacIntel,66.66666667,,,,,,,,5,Fast,h,1,1.757,5,3,23,2,1,,,,,
,0.81,,,,,,,,,j.PNG,j,60fd22c43ca0a22679d24c9f,2021-10-20_10h46.23.646,forced_choiceRT,2021.1.2,MacIntel,66.66666667,,,,,,,,5,Fast,j,1,1.775,6,0,24,3,1,,,,,
,0.96,,,,,,,,,h.PNG,h,60fd22c43ca0a22679d24c9f,2021-10-20_10h46.23.646,forced_choiceRT,2021.1.2,MacIntel,66.66666667,,,,,,,,5,Fast,h,1,1.782,6,1,25,2,1,,,,,
,0.16,,,,,,,,,f.PNG,f,60fd22c43ca0a22679d24c9f,2021-10-20_10h46.23.646,forced_choiceRT,2021.1.2,MacIntel,66.66666667,,,,,,,,5,Ontime,f,1,1.928,6,2,26,0,1,,,,,
,1.22,,,,,,,,,j.PNG,j,60fd22c43ca0a22679d24c9f,2021-10-20_10h46.23.646,forced_choiceRT,2021.1.2,MacIntel,66.66666667,,,,,,,,5,Ontime,j,1,2.074,6,3,27,3,1,,,,,
,0.07,,,,,,,,,f.PNG,f,60fd22c43ca0a22679d24c9f,2021-10-20_10h46.23.646,forced_choiceRT,2021.1.2,MacIntel,66.66666667,,,,,,,,5,Ontime,f,1,2.02,7,0,28,0,1,,,,,
,1.99,,,,,,,,,g.PNG,g,60fd22c43ca0a22679d24c9f,2021-10-20_10h46.23.646,forced_choiceRT,2021.1.2,MacIntel,66.66666667,,,,,,,,5,Slow,f,0,2.195,7,1,29,1,1,,,,,
,0.97,,,,,,,,,j.PNG,j,60fd22c43ca0a22679d24c9f,2021-10-20_10h46.23.646,forced_choiceRT,2021.1.2,MacIntel,66.66666667,,,,,,,,5,Fast,j,1,1.885,7,2,30,3,1,,,,,
,1.29,,,,,,,,,j.PNG,j,60fd22c43ca0a22679d24c9f,2021-10-20_10h46.23.646,forced_choiceRT,2021.1.2,MacIntel,66.66666667,,,,,,,,5,Ontime,j,1,1.94,7,3,31,3,1,,,,,
,1.32,,,,,,,,,h.PNG,h,60fd22c43ca0a22679d24c9f,2021-10-20_10h46.23.646,forced_choiceRT,2021.1.2,MacIntel,66.66666667,,,,,,,,5,Ontime,h,1,1.973,8,0,32,2,1,,,,,
,1.28,,,,,,,,,g.PNG,g,60fd22c43ca0a22679d24c9f,2021-10-20_10h46.23.646,forced_choiceRT,2021.1.2,MacIntel,66.66666667,,,,,,,,5,Ontime,g,1,1.952,8,1,33,1,1,,,,,
,0.81,,,,,,,,,j.PNG,j,60fd22c43ca0a22679d24c9f,2021-10-20_10h46.23.646,forced_choiceRT,2021.1.2,MacIntel,66.66666667,,,,,,,,5,Ontime,j,1,1.996,8,2,34,3,1,,,,,
,0.57,,,,,,,,,g.PNG,g,60fd22c43ca0a22679d24c9f,2021-10-20_10h46.23.646,forced_choiceRT,2021.1.2,MacIntel,66.66666667,,,,,,,,5,Ontime,g,1,2.004,8,3,35,1,1,,,,,
,0.81,,,,,,,,,g.PNG,g,60fd22c43ca0a22679d24c9f,2021-10-20_10h46.23.646,forced_choiceRT,2021.1.2,MacIntel,66.66666667,,,,,,,,5,Ontime,g,1,1.985,9,0,36,1,1,,,,,
,1.25,,,,,,,,,g.PNG,g,60fd22c43ca0a22679d24c9f,2021-10-20_10h46.23.646,forced_choiceRT,2021.1.2,MacIntel,66.66666667,,,,,,,,5,Ontime,g,1,1.931,9,1,37,1,1,,,,,
,0.32,,,,,,,,,h.PNG,h,60fd22c43ca0a22679d24c9f,2021-10-20_10h46.23.646,forced_choiceRT,2021.1.2,MacIntel,66.66666667,,,,,,,,5,Fast,j,0,1.839,9,2,38,2,1,,,,,
,0.34,,,,,,,,,h.PNG,h,60fd22c43ca0a22679d24c9f,2021-10-20_10h46.23.646,forced_choiceRT,2021.1.2,MacIntel,66.66666667,,,,,,,,5,Ontime,h,1,1.942,9,3,39,2,1,,,,,
,,,,,,,,,,,,60fd22c43ca0a22679d24c9f,2021-10-20_10h46.23.646,forced_choiceRT,2021.1.2,MacIntel,66.66666667,,,,,,,,,,,,,,,,,,4,0,4,0,1
,0.09,,,,,,,,,j.PNG,j,60fd22c43ca0a22679d24c9f,2021-10-20_10h46.23.646,forced_choiceRT,2021.1.2,MacIntel,66.66666667,,,,,,,,6,Ontime,j,1,1.945,0,0,0,3,1,,,,,
,0.19,,,,,,,,,f.PNG,f,60fd22c43ca0a22679d24c9f,2021-10-20_10h46.23.646,forced_choiceRT,2021.1.2,MacIntel,66.66666667,,,,,,,,6,Ontime,f,1,2.019,0,1,1,0,1,,,,,
,0.93,,,,,,,,,f.PNG,f,60fd22c43ca0a22679d24c9f,2021-10-20_10h46.23.646,forced_choiceRT,2021.1.2,MacIntel,66.66666667,,,,,,,,6,Ontime,f,1,1.955,0,2,2,0,1,,,,,
,0.32,,,,,,,,,f.PNG,f,60fd22c43ca0a22679d24c9f,2021-10-20_10h46.23.646,forced_choiceRT,2021.1.2,MacIntel,66.66666667,,,,,,,,6,Ontime,f,1,2.032,0,3,3,0,1,,,,,
,1.58,,,,,,,,,g.PNG,g,60fd22c43ca0a22679d24c9f,2021-10-20_10h46.23.646,forced_choiceRT,2021.1.2,MacIntel,66.66666667,,,,,,,,6,Slow,g,1,2.183,1,0,4,1,1,,,,,
,1.46,,,,,,,,,g.PNG,g,60fd22c43ca0a22679d24c9f,2021-10-20_10h46.23.646,forced_choiceRT,2021.1.2,MacIntel,66.66666667,,,,,,,,6,Slow,g,1,2.28,1,1,5,1,1,,,,,
,1.57,,,,,,,,,h.PNG,h,60fd22c43ca0a22679d24c9f,2021-10-20_10h46.23.646,forced_choiceRT,2021.1.2,MacIntel,66.66666667,,,,,,,,6,Slow,h,1,8.38,1,2,6,2,1,,,,,
,1.39,,,,,,,,,g.PNG,g,60fd22c43ca0a22679d24c9f,2021-10-20_10h46.23.646,forced_choiceRT,2021.1.2,MacIntel,66.66666667,,,,,,,,6,Ontime,h,0,1.909,1,3,7,1,1,,,,,
,1.72,,,,,,,,,h.PNG,h,60fd22c43ca0a22679d24c9f,2021-10-20_10h46.23.646,forced_choiceRT,2021.1.2,MacIntel,66.66666667,,,,,,,,6,Slow,g,0,2.216,2,0,8,2,1,,,,,
,1.04,,,,,,,,,g.PNG,g,60fd22c43ca0a22679d24c9f,2021-10-20_10h46.23.646,forced_choiceRT,2021.1.2,MacIntel,66.66666667,,,,,,,,6,Fast,h,0,1.626,2,1,9,1,1,,,,,
,1.49,,,,,,,,,f.PNG,f,60fd22c43ca0a22679d24c9f,2021-10-20_10h46.23.646,forced_choiceRT,2021.1.2,MacIntel,66.66666667,,,,,,,,6,Fast,g,0,1.745,2,2,10,0,1,,,,,
,1.98,,,,,,,,,f.PNG,f,60fd22c43ca0a22679d24c9f,2021-10-20_10h46.23.646,forced_choiceRT,2021.1.2,MacIntel,66.66666667,,,,,,,,6,Fast,f,1,1.862,2,3,11,0,1,,,,,
,0.34,,,,,,,,,j.PNG,j,60fd22c43ca0a22679d24c9f,2021-10-20_10h46.23.646,forced_choiceRT,2021.1.2,MacIntel,66.66666667,,,,,,,,6,Fast,j,1,1.062,3,0,12,3,1,,,,,
,0.31,,,,,,,,,h.PNG,h,60fd22c43ca0a22679d24c9f,2021-10-20_10h46.23.646,forced_choiceRT,2021.1.2,MacIntel,66.66666667,,,,,,,,6,Ontime,h,1,1.928,3,1,13,2,1,,,,,
,0.48,,,,,,,,,f.PNG,f,60fd22c43ca0a22679d24c9f,2021-10-20_10h46.23.646,forced_choiceRT,2021.1.2,MacIntel,66.66666667,,,,,,,,6,Ontime,f,1,1.909,3,2,14,0,1,,,,,
,1.06,,,,,,,,,h.PNG,h,60fd22c43ca0a22679d24c9f,2021-10-20_10h46.23.646,forced_choiceRT,2021.1.2,MacIntel,66.66666667,,,,,,,,6,Fast,h,1,1.778,3,3,15,2,1,,,,,
,1.55,,,,,,,,,h.PNG,h,60fd22c43ca0a22679d24c9f,2021-10-20_10h46.23.646,forced_choiceRT,2021.1.2,MacIntel,66.66666667,,,,,,,,6,Ontime,h,1,1.972,4,0,16,2,1,,,,,
,0.87,,,,,,,,,j.PNG,j,60fd22c43ca0a22679d24c9f,2021-10-20_10h46.23.646,forced_choiceRT,2021.1.2,MacIntel,66.66666667,,,,,,,,6,Ontime,j,1,2.045,4,1,17,3,1,,,,,
,1.57,,,,,,,,,h.PNG,h,60fd22c43ca0a22679d24c9f,2021-10-20_10h46.23.646,forced_choiceRT,2021.1.2,MacIntel,66.66666667,,,,,,,,6,Ontime,h,1,2.088,4,2,18,2,1,,,,,
,1.63,,,,,,,,,j.PNG,j,60fd22c43ca0a22679d24c9f,2021-10-20_10h46.23.646,forced_choiceRT,2021.1.2,MacIntel,66.66666667,,,,,,,,6,Slow,h,0,2.103,4,3,19,3,1,,,,,
,0.52,,,,,,,,,g.PNG,g,60fd22c43ca0a22679d24c9f,2021-10-20_10h46.23.646,forced_choiceRT,2021.1.2,MacIntel,66.66666667,,,,,,,,6,Ontime,g,1,1.938,5,0,20,1,1,,,,,
,0.36,,,,,,,,,f.PNG,f,60fd22c43ca0a22679d24c9f,2021-10-20_10h46.23.646,forced_choiceRT,2021.1.2,MacIntel,66.66666667,,,,,,,,6,Fast,f,1,1.755,5,1,21,0,1,,,,,
,1.84,,,,,,,,,h.PNG,h,60fd22c43ca0a22679d24c9f,2021-10-20_10h46.23.646,forced_choiceRT,2021.1.2,MacIntel,66.66666667,,,,,,,,6,Slow,g,0,2.206,5,2,22,2,1,,,,,
,0.15,,,,,,,,,j.PNG,j,60fd22c43ca0a22679d24c9f,2021-10-20_10h46.23.646,forced_choiceRT,2021.1.2,MacIntel,66.66666667,,,,,,,,6,Fast,j,1,0.801,5,3,23,3,1,,,,,
,1.06,,,,,,,,,g.PNG,g,60fd22c43ca0a22679d24c9f,2021-10-20_10h46.23.646,forced_choiceRT,2021.1.2,MacIntel,66.66666667,,,,,,,,6,Ontime,h,0,1.911,6,0,24,1,1,,,,,
,0.73,,,,,,,,,g.PNG,g,60fd22c43ca0a22679d24c9f,2021-10-20_10h46.23.646,forced_choiceRT,2021.1.2,MacIntel,66.66666667,,,,,,,,6,Fast,g,1,1.739,6,1,25,1,1,,,,,
,0.61,,,,,,,,,h.PNG,h,60fd22c43ca0a22679d24c9f,2021-10-20_10h46.23.646,forced_choiceRT,2021.1.2,MacIntel,66.66666667,,,,,,,,6,Fast,h,1,1.767,6,2,26,2,1,,,,,
,0.17,,,,,,,,,g.PNG,g,60fd22c43ca0a22679d24c9f,2021-10-20_10h46.23.646,forced_choiceRT,2021.1.2,MacIntel,66.66666667,,,,,,,,6,Ontime,g,1,1.98,6,3,27,1,1,,,,,
,0.23,,,,,,,,,h.PNG,h,60fd22c43ca0a22679d24c9f,2021-10-20_10h46.23.646,forced_choiceRT,2021.1.2,MacIntel,66.66666667,,,,,,,,6,Fast,h,1,1.351,7,0,28,2,1,,,,,
,1.42,,,,,,,,,f.PNG,f,60fd22c43ca0a22679d24c9f,2021-10-20_10h46.23.646,forced_choiceRT,2021.1.2,MacIntel,66.66666667,,,,,,,,6,Ontime,g,0,1.974,7,1,29,0,1,,,,,
,1.23,,,,,,,,,j.PNG,j,60fd22c43ca0a22679d24c9f,2021-10-20_10h46.23.646,forced_choiceRT,2021.1.2,MacIntel,66.66666667,,,,,,,,6,Ontime,j,1,1.902,7,2,30,3,1,,,,,
,1.82,,,,,,,,,j.PNG,j,60fd22c43ca0a22679d24c9f,2021-10-20_10h46.23.646,forced_choiceRT,2021.1.2,MacIntel,66.66666667,,,,,,,,6,Ontime,h,0,1.957,7,3,31,3,1,,,,,
,1.13,,,,,,,,,f.PNG,f,60fd22c43ca0a22679d24c9f,2021-10-20_10h46.23.646,forced_choiceRT,2021.1.2,MacIntel,66.66666667,,,,,,,,6,Fast,h,0,1.568,8,0,32,0,1,,,,,
,1.81,,,,,,,,,f.PNG,f,60fd22c43ca0a22679d24c9f,2021-10-20_10h46.23.646,forced_choiceRT,2021.1.2,MacIntel,66.66666667,,,,,,,,6,Fast,f,1,1.807,8,1,33,0,1,,,,,
,0.65,,,,,,,,,g.PNG,g,60fd22c43ca0a22679d24c9f,2021-10-20_10h46.23.646,forced_choiceRT,2021.1.2,MacIntel,66.66666667,,,,,,,,6,Ontime,g,1,2.023,8,2,34,1,1,,,,,
,0.04,,,,,,,,,j.PNG,j,60fd22c43ca0a22679d24c9f,2021-10-20_10h46.23.646,forced_choiceRT,2021.1.2,MacIntel,66.66666667,,,,,,,,6,Ontime,j,1,2.003,8,3,35,3,1,,,,,
,0.43,,,,,,,,,g.PNG,g,60fd22c43ca0a22679d24c9f,2021-10-20_10h46.23.646,forced_choiceRT,2021.1.2,MacIntel,66.66666667,,,,,,,,6,Ontime,g,1,1.932,9,0,36,1,1,,,,,
,0.72,,,,,,,,,j.PNG,j,60fd22c43ca0a22679d24c9f,2021-10-20_10h46.23.646,forced_choiceRT,2021.1.2,MacIntel,66.66666667,,,,,,,,6,Fast,j,1,1.899,9,1,37,3,1,,,,,
,1.44,,,,,,,,,h.PNG,h,60fd22c43ca0a22679d24c9f,2021-10-20_10h46.23.646,forced_choiceRT,2021.1.2,MacIntel,66.66666667,,,,,,,,6,Ontime,j,0,2.026,9,2,38,2,1,,,,,
,0.08,,,,,,,,,j.PNG,j,60fd22c43ca0a22679d24c9f,2021-10-20_10h46.23.646,forced_choiceRT,2021.1.2,MacIntel,66.66666667,,,,,,,,6,Ontime,j,1,1.938,9,3,39,3,1,,,,,
,,,,,,,,,,,,60fd22c43ca0a22679d24c9f,2021-10-20_10h46.23.646,forced_choiceRT,2021.1.2,MacIntel,66.66666667,,,,,,,,,,,,,,,,,,5,0,5,0,1
,1.78,,,,,,,,,j.PNG,j,60fd22c43ca0a22679d24c9f,2021-10-20_10h46.23.646,forced_choiceRT,2021.1.2,MacIntel,66.66666667,,,,,,,,7,Ontime,g,0,2.07,0,0,0,3,1,,,,,
,1.8,,,,,,,,,g.PNG,g,60fd22c43ca0a22679d24c9f,2021-10-20_10h46.23.646,forced_choiceRT,2021.1.2,MacIntel,66.66666667,,,,,,,,7,Fast,g,1,1.867,0,1,1,1,1,,,,,
,1.85,,,,,,,,,g.PNG,g,60fd22c43ca0a22679d24c9f,2021-10-20_10h46.23.646,forced_choiceRT,2021.1.2,MacIntel,66.66666667,,,,,,,,7,Slow,f,0,2.124,0,2,2,1,1,,,,,
,1.64,,,,,,,,,h.PNG,h,60fd22c43ca0a22679d24c9f,2021-10-20_10h46.23.646,forced_choiceRT,2021.1.2,MacIntel,66.66666667,,,,,,,,7,Fast,j,0,1.861,0,3,3,2,1,,,,,
,0.52,,,,,,,,,f.PNG,f,60fd22c43ca0a22679d24c9f,2021-10-20_10h46.23.646,forced_choiceRT,2021.1.2,MacIntel,66.66666667,,,,,,,,7,Ontime,f,1,1.933,1,0,4,0,1,,,,,
,0.88,,,,,,,,,g.PNG,g,60fd22c43ca0a22679d24c9f,2021-10-20_10h46.23.646,forced_choiceRT,2021.1.2,MacIntel,66.66666667,,,,,,,,7,Fast,g,1,1.89,1,1,5,1,1,,,,,
,0.98,,,,,,,,,g.PNG,g,60fd22c43ca0a22679d24c9f,2021-10-20_10h46.23.646,forced_choiceRT,2021.1.2,MacIntel,66.66666667,,,,,,,,7,Fast,g,1,1.601,1,2,6,1,1,,,,,
,1.02,,,,,,,,,h.PNG,h,60fd22c43ca0a22679d24c9f,2021-10-20_10h46.23.646,forced_choiceRT,2021.1.2,MacIntel,66.66666667,,,,,,,,7,Fast,g,0,1.829,1,3,7,2,1,,,,,
,1.9,,,,,,,,,j.PNG,j,60fd22c43ca0a22679d24c9f,2021-10-20_10h46.23.646,forced_choiceRT,2021.1.2,MacIntel,66.66666667,,,,,,,,7,Fast,g,0,1.834,2,0,8,3,1,,,,,
,1.12,,,,,,,,,h.PNG,h,60fd22c43ca0a22679d24c9f,2021-10-20_10h46.23.646,forced_choiceRT,2021.1.2,MacIntel,66.66666667,,,,,,,,7,Ontime,g,0,1.966,2,1,9,2,1,,,,,
,0.36,,,,,,,,,f.PNG,f,60fd22c43ca0a22679d24c9f,2021-10-20_10h46.23.646,forced_choiceRT,2021.1.2,MacIntel,66.66666667,,,,,,,,7,Ontime,h,0,1.928,2,2,10,0,1,,,,,
,0.9,,,,,,,,,f.PNG,f,60fd22c43ca0a22679d24c9f,2021-10-20_10h46.23.646,forced_choiceRT,2021.1.2,MacIntel,66.66666667,,,,,,,,7,Fast,f,1,1.808,2,3,11,0,1,,,,,
,1.89,,,,,,,,,g.PNG,g,60fd22c43ca0a22679d24c9f,2021-10-20_10h46.23.646,forced_choiceRT,2021.1.2,MacIntel,66.66666667,,,,,,,,7,Ontime,f,0,1.977,3,0,12,1,1,,,,,
,0.18,,,,,,,,,j.PNG,j,60fd22c43ca0a22679d24c9f,2021-10-20_10h46.23.646,forced_choiceRT,2021.1.2,MacIntel,66.66666667,,,,,,,,7,Fast,j,1,1.824,3,1,13,3,1,,,,,
,1.91,,,,,,,,,g.PNG,g,60fd22c43ca0a22679d24c9f,2021-10-20_10h46.23.646,forced_choiceRT,2021.1.2,MacIntel,66.66666667,,,,,,,,7,Ontime,g,1,2.025,3,2,14,1,1,,,,,
,1.37,,,,,,,,,f.PNG,f,60fd22c43ca0a22679d24c9f,2021-10-20_10h46.23.646,forced_choiceRT,2021.1.2,MacIntel,66.66666667,,,,,,,,7,Fast,g,0,1.869,3,3,15,0,1,,,,,
,1.13,,,,,,,,,g.PNG,g,60fd22c43ca0a22679d24c9f,2021-10-20_10h46.23.646,forced_choiceRT,2021.1.2,MacIntel,66.66666667,,,,,,,,7,Ontime,f,0,2.093,4,0,16,1,1,,,,,
,1.99,,,,,,,,,g.PNG,g,60fd22c43ca0a22679d24c9f,2021-10-20_10h46.23.646,forced_choiceRT,2021.1.2,MacIntel,66.66666667,,,,,,,,7,Ontime,f,0,1.967,4,1,17,1,1,,,,,
,0.43,,,,,,,,,g.PNG,g,60fd22c43ca0a22679d24c9f,2021-10-20_10h46.23.646,forced_choiceRT,2021.1.2,MacIntel,66.66666667,,,,,,,,7,Ontime,f,0,2.038,4,2,18,1,1,,,,,
,1.65,,,,,,,,,h.PNG,h,60fd22c43ca0a22679d24c9f,2021-10-20_10h46.23.646,forced_choiceRT,2021.1.2,MacIntel,66.66666667,,,,,,,,7,Slow,f,0,2.14,4,3,19,2,1,,,,,
,0.16,,,,,,,,,h.PNG,h,60fd22c43ca0a22679d24c9f,2021-10-20_10h46.23.646,forced_choiceRT,2021.1.2,MacIntel,66.66666667,,,,,,,,7,Fast,h,1,1.866,5,0,20,2,1,,,,,
,0.84,,,,,,,,,j.PNG,j,60fd22c43ca0a22679d24c9f,2021-10-20_10h46.23.646,forced_choiceRT,2021.1.2,MacIntel,66.66666667,,,,,,,,7,Ontime,j,1,1.926,5,1,21,3,1,,,,,
,1.84,,,,,,,,,h.PNG,h,60fd22c43ca0a22679d24c9f,2021-10-20_10h46.23.646,forced_choiceRT,2021.1.2,MacIntel,66.66666667,,,,,,,,7,Ontime,j,0,2.029,5,2,22,2,1,,,,,
,0.65,,,,,,,,,f.PNG,f,60fd22c43ca0a22679d24c9f,2021-10-20_10h46.23.646,forced_choiceRT,2021.1.2,MacIntel,66.66666667,,,,,,,,7,Ontime,f,1,2.069,5,3,23,0,1,,,,,
,0.86,,,,,,,,,h.PNG,h,60fd22c43ca0a22679d24c9f,2021-10-20_10h46.23.646,forced_choiceRT,2021.1.2,MacIntel,66.66666667,,,,,,,,7,Fast,j,0,1.866,6,0,24,2,1,,,,,
,0,,,,,,,,,g.PNG,g,60fd22c43ca0a22679d24c9f,2021-10-20_10h46.23.646,forced_choiceRT,2021.1.2,MacIntel,66.66666667,,,,,,,,7,Fast,g,1,1.835,6,1,25,1,1,,,,,
,0.08,,,,,,,,,j.PNG,j,60fd22c43ca0a22679d24c9f,2021-10-20_10h46.23.646,forced_choiceRT,2021.1.2,MacIntel,66.66666667,,,,,,,,7,Ontime,j,1,1.949,6,2,26,3,1,,,,,
,0.95,,,,,,,,,j.PNG,j,60fd22c43ca0a22679d24c9f,2021-10-20_10h46.23.646,forced_choiceRT,2021.1.2,MacIntel,66.66666667,,,,,,,,7,Fast,j,1,1.755,6,3,27,3,1,,,,,
,1.65,,,,,,,,,f.PNG,f,60fd22c43ca0a22679d24c9f,2021-10-20_10h46.23.646,forced_choiceRT,2021.1.2,MacIntel,66.66666667,,,,,,,,7,Ontime,j,0,1.998,7,0,28,0,1,,,,,
,0.53,,,,,,,,,h.PNG,h,60fd22c43ca0a22679d24c9f,2021-10-20_10h46.23.646,forced_choiceRT,2021.1.2,MacIntel,66.66666667,,,,,,,,7,Fast,h,1,1.888,7,1,29,2,1,,,,,
,0.54,,,,,,,,,f.PNG,f,60fd22c43ca0a22679d24c9f,2021-10-20_10h46.23.646,forced_choiceRT,2021.1.2,MacIntel,66.66666667,,,,,,,,7,Ontime,f,1,2.024,7,2,30,0,1,,,,,
,1.57,,,,,,,,,h.PNG,h,60fd22c43ca0a22679d24c9f,2021-10-20_10h46.23.646,forced_choiceRT,2021.1.2,MacIntel,66.66666667,,,,,,,,7,Ontime,f,0,1.953,7,3,31,2,1,,,,,
,0.75,,,,,,,,,f.PNG,f,60fd22c43ca0a22679d24c9f,2021-10-20_10h46.23.646,forced_choiceRT,2021.1.2,MacIntel,66.66666667,,,,,,,,7,Ontime,f,1,1.916,8,0,32,0,1,,,,,
,0.29,,,,,,,,,j.PNG,j,60fd22c43ca0a22679d24c9f,2021-10-20_10h46.23.646,forced_choiceRT,2021.1.2,MacIntel,66.66666667,,,,,,,,7,Fast,j,1,1.789,8,1,33,3,1,,,,,
,1.42,,,,,,,,,f.PNG,f,60fd22c43ca0a22679d24c9f,2021-10-20_10h46.23.646,forced_choiceRT,2021.1.2,MacIntel,66.66666667,,,,,,,,7,Fast,j,0,1.717,8,2,34,0,1,,,,,
,0.2,,,,,,,,,j.PNG,j,60fd22c43ca0a22679d24c9f,2021-10-20_10h46.23.646,forced_choiceRT,2021.1.2,MacIntel,66.66666667,,,,,,,,7,Fast,j,1,1.871,8,3,35,3,1,,,,,
,1.84,,,,,,,,,h.PNG,h,60fd22c43ca0a22679d24c9f,2021-10-20_10h46.23.646,forced_choiceRT,2021.1.2,MacIntel,66.66666667,,,,,,,,7,Ontime,j,0,1.991,9,0,36,2,1,,,,,
,0.28,,,,,,,,,j.PNG,j,60fd22c43ca0a22679d24c9f,2021-10-20_10h46.23.646,forced_choiceRT,2021.1.2,MacIntel,66.66666667,,,,,,,,7,Fast,j,1,1.874,9,1,37,3,1,,,,,
,0.13,,,,,,,,,j.PNG,j,60fd22c43ca0a22679d24c9f,2021-10-20_10h46.23.646,forced_choiceRT,2021.1.2,MacIntel,66.66666667,,,,,,,,7,Fast,j,1,1.852,9,2,38,3,1,,,,,
,0.49,,,,,,,,,f.PNG,f,60fd22c43ca0a22679d24c9f,2021-10-20_10h46.23.646,forced_choiceRT,2021.1.2,MacIntel,66.66666667,,,,,,,,7,Ontime,f,1,1.954,9,3,39,0,1,,,,,
,,,,,,,,,,,,60fd22c43ca0a22679d24c9f,2021-10-20_10h46.23.646,forced_choiceRT,2021.1.2,MacIntel,66.66666667,,,,,,,,,,,,,,,,,,6,0,6,0,1
,1.36,,,,,,,,,f.PNG,f,60fd22c43ca0a22679d24c9f,2021-10-20_10h46.23.646,forced_choiceRT,2021.1.2,MacIntel,66.66666667,,,,,,,,8,Ontime,f,1,1.988,0,0,0,0,1,,,,,
,1.74,,,,,,,,,h.PNG,h,60fd22c43ca0a22679d24c9f,2021-10-20_10h46.23.646,forced_choiceRT,2021.1.2,MacIntel,66.66666667,,,,,,,,8,Ontime,f,0,2.065,0,1,1,2,1,,,,,
,1.99,,,,,,,,,j.PNG,j,60fd22c43ca0a22679d24c9f,2021-10-20_10h46.23.646,forced_choiceRT,2021.1.2,MacIntel,66.66666667,,,,,,,,8,Ontime,j,1,1.917,0,2,2,3,1,,,,,
,0.62,,,,,,,,,h.PNG,h,60fd22c43ca0a22679d24c9f,2021-10-20_10h46.23.646,forced_choiceRT,2021.1.2,MacIntel,66.66666667,,,,,,,,8,Fast,h,1,1.88,0,3,3,2,1,,,,,
,1.84,,,,,,,,,h.PNG,h,60fd22c43ca0a22679d24c9f,2021-10-20_10h46.23.646,forced_choiceRT,2021.1.2,MacIntel,66.66666667,,,,,,,,8,Slow,h,1,2.165,1,0,4,2,1,,,,,
,0.8,,,,,,,,,g.PNG,g,60fd22c43ca0a22679d24c9f,2021-10-20_10h46.23.646,forced_choiceRT,2021.1.2,MacIntel,66.66666667,,,,,,,,8,Fast,g,1,1.545,1,1,5,1,1,,,,,
,1.08,,,,,,,,,j.PNG,j,60fd22c43ca0a22679d24c9f,2021-10-20_10h46.23.646,forced_choiceRT,2021.1.2,MacIntel,66.66666667,,,,,,,,8,Fast,j,1,1.835,1,2,6,3,1,,,,,
,0.2,,,,,,,,,f.PNG,f,60fd22c43ca0a22679d24c9f,2021-10-20_10h46.23.646,forced_choiceRT,2021.1.2,MacIntel,66.66666667,,,,,,,,8,Fast,f,1,1.878,1,3,7,0,1,,,,,
,1.97,,,,,,,,,h.PNG,h,60fd22c43ca0a22679d24c9f,2021-10-20_10h46.23.646,forced_choiceRT,2021.1.2,MacIntel,66.66666667,,,,,,,,8,Ontime,f,0,1.917,2,0,8,2,1,,,,,
,1.33,,,,,,,,,f.PNG,f,60fd22c43ca0a22679d24c9f,2021-10-20_10h46.23.646,forced_choiceRT,2021.1.2,MacIntel,66.66666667,,,,,,,,8,Fast,f,1,1.679,2,1,9,0,1,,,,,
,0.85,,,,,,,,,h.PNG,h,60fd22c43ca0a22679d24c9f,2021-10-20_10h46.23.646,forced_choiceRT,2021.1.2,MacIntel,66.66666667,,,,,,,,8,Fast,h,1,1.509,2,2,10,2,1,,,,,
,1,,,,,,,,,g.PNG,g,60fd22c43ca0a22679d24c9f,2021-10-20_10h46.23.646,forced_choiceRT,2021.1.2,MacIntel,66.66666667,,,,,,,,8,Fast,g,1,1.836,2,3,11,1,1,,,,,
,1.12,,,,,,,,,g.PNG,g,60fd22c43ca0a22679d24c9f,2021-10-20_10h46.23.646,forced_choiceRT,2021.1.2,MacIntel,66.66666667,,,,,,,,8,Ontime,h,0,2.01,3,0,12,1,1,,,,,
,0.73,,,,,,,,,f.PNG,f,60fd22c43ca0a22679d24c9f,2021-10-20_10h46.23.646,forced_choiceRT,2021.1.2,MacIntel,66.66666667,,,,,,,,8,Fast,f,1,1.819,3,1,13,0,1,,,,,
,0.97,,,,,,,,,j.PNG,j,60fd22c43ca0a22679d24c9f,2021-10-20_10h46.23.646,forced_choiceRT,2021.1.2,MacIntel,66.66666667,,,,,,,,8,Fast,j,1,1.792,3,2,14,3,1,,,,,
,0.92,,,,,,,,,f.PNG,f,60fd22c43ca0a22679d24c9f,2021-10-20_10h46.23.646,forced_choiceRT,2021.1.2,MacIntel,66.66666667,,,,,,,,8,Fast,f,1,1.74,3,3,15,0,1,,,,,
,0.19,,,,,,,,,j.PNG,j,60fd22c43ca0a22679d24c9f,2021-10-20_10h46.23.646,forced_choiceRT,2021.1.2,MacIntel,66.66666667,,,,,,,,8,Fast,j,1,1.869,4,0,16,3,1,,,,,
,0.3,,,,,,,,,g.PNG,g,60fd22c43ca0a22679d24c9f,2021-10-20_10h46.23.646,forced_choiceRT,2021.1.2,MacIntel,66.66666667,,,,,,,,8,Ontime,g,1,1.942,4,1,17,1,1,,,,,
,0.2,,,,,,,,,f.PNG,f,60fd22c43ca0a22679d24c9f,2021-10-20_10h46.23.646,forced_choiceRT,2021.1.2,MacIntel,66.66666667,,,,,,,,8,Ontime,f,1,1.935,4,2,18,0,1,,,,,
,1.51,,,,,,,,,h.PNG,h,60fd22c43ca0a22679d24c9f,2021-10-20_10h46.23.646,forced_choiceRT,2021.1.2,MacIntel,66.66666667,,,,,,,,8,Ontime,f,0,1.951,4,3,19,2,1,,,,,
,0.06,,,,,,,,,f.PNG,f,60fd22c43ca0a22679d24c9f,2021-10-20_10h46.23.646,forced_choiceRT,2021.1.2,MacIntel,66.66666667,,,,,,,,8,Ontime,f,1,2.002,5,0,20,0,1,,,,,
,1.86,,,,,,,,,j.PNG,j,60fd22c43ca0a22679d24c9f,2021-10-20_10h46.23.646,forced_choiceRT,2021.1.2,MacIntel,66.66666667,,,,,,,,8,Ontime,f,0,1.972,5,1,21,3,1,,,,,
,1.04,,,,,,,,,j.PNG,j,60fd22c43ca0a22679d24c9f,2021-10-20_10h46.23.646,forced_choiceRT,2021.1.2,MacIntel,66.66666667,,,,,,,,8,Ontime,j,1,1.91,5,2,22,3,1,,,,,
,1.41,,,,,,,,,g.PNG,g,60fd22c43ca0a22679d24c9f,2021-10-20_10h46.23.646,forced_choiceRT,2021.1.2,MacIntel,66.66666667,,,,,,,,8,Ontime,h,0,2.029,5,3,23,1,1,,,,,
,1.32,,,,,,,,,g.PNG,g,60fd22c43ca0a22679d24c9f,2021-10-20_10h46.23.646,forced_choiceRT,2021.1.2,MacIntel,66.66666667,,,,,,,,8,Ontime,g,1,1.93,6,0,24,1,1,,,,,
,0.65,,,,,,,,,j.PNG,j,60fd22c43ca0a22679d24c9f,2021-10-20_10h46.23.646,forced_choiceRT,2021.1.2,MacIntel,66.66666667,,,,,,,,8,Fast,j,1,1.805,6,1,25,3,1,,,,,
,0.95,,,,,,,,,f.PNG,f,60fd22c43ca0a22679d24c9f,2021-10-20_10h46.23.646,forced_choiceRT,2021.1.2,MacIntel,66.66666667,,,,,,,,8,Ontime,f,1,1.915,6,2,26,0,1,,,,,
,1.23,,,,,,,,,h.PNG,h,60fd22c43ca0a22679d24c9f,2021-10-20_10h46.23.646,forced_choiceRT,2021.1.2,MacIntel,66.66666667,,,,,,,,8,Fast,j,0,1.845,6,3,27,2,1,,,,,
,0.11,,,,,,,,,j.PNG,j,60fd22c43ca0a22679d24c9f,2021-10-20_10h46.23.646,forced_choiceRT,2021.1.2,MacIntel,66.66666667,,,,,,,,8,Fast,j,1,1.898,7,0,28,3,1,,,,,
,1.99,,,,,,,,,g.PNG,g,60fd22c43ca0a22679d24c9f,2021-10-20_10h46.23.646,forced_choiceRT,2021.1.2,MacIntel,66.66666667,,,,,,,,8,Ontime,h,0,1.952,7,1,29,1,1,,,,,
,0.05,,,,,,,,,j.PNG,j,60fd22c43ca0a22679d24c9f,2021-10-20_10h46.23.646,forced_choiceRT,2021.1.2,MacIntel,66.66666667,,,,,,,,8,Ontime,j,1,1.969,7,2,30,3,1,,,,,
,0.35,,,,,,,,,g.PNG,g,60fd22c43ca0a22679d24c9f,2021-10-20_10h46.23.646,forced_choiceRT,2021.1.2,MacIntel,66.66666667,,,,,,,,8,Fast,g,1,1.896,7,3,31,1,1,,,,,
,0.08,,,,,,,,,g.PNG,g,60fd22c43ca0a22679d24c9f,2021-10-20_10h46.23.646,forced_choiceRT,2021.1.2,MacIntel,66.66666667,,,,,,,,8,Fast,g,1,1.808,8,0,32,1,1,,,,,
,1.53,,,,,,,,,h.PNG,h,60fd22c43ca0a22679d24c9f,2021-10-20_10h46.23.646,forced_choiceRT,2021.1.2,MacIntel,66.66666667,,,,,,,,8,Ontime,j,0,2.03,8,1,33,2,1,,,,,
,0.69,,,,,,,,,f.PNG,f,60fd22c43ca0a22679d24c9f,2021-10-20_10h46.23.646,forced_choiceRT,2021.1.2,MacIntel,66.66666667,,,,,,,,8,Ontime,f,1,1.999,8,2,34,0,1,,,,,
,1.32,,,,,,,,,h.PNG,h,60fd22c43ca0a22679d24c9f,2021-10-20_10h46.23.646,forced_choiceRT,2021.1.2,MacIntel,66.66666667,,,,,,,,8,Ontime,g,0,1.966,8,3,35,2,1,,,,,
,1.25,,,,,,,,,h.PNG,h,60fd22c43ca0a22679d24c9f,2021-10-20_10h46.23.646,forced_choiceRT,2021.1.2,MacIntel,66.66666667,,,,,,,,8,Slow,h,1,2.171,9,0,36,2,1,,,,,
,1.79,,,,,,,,,j.PNG,j,60fd22c43ca0a22679d24c9f,2021-10-20_10h46.23.646,forced_choiceRT,2021.1.2,MacIntel,66.66666667,,,,,,,,8,Slow,h,0,3.86,9,1,37,3,1,,,,,
,1.92,,,,,,,,,f.PNG,f,60fd22c43ca0a22679d24c9f,2021-10-20_10h46.23.646,forced_choiceRT,2021.1.2,MacIntel,66.66666667,,,,,,,,8,Fast,h,0,1.785,9,2,38,0,1,,,,,
,1.43,,,,,,,,,g.PNG,g,60fd22c43ca0a22679d24c9f,2021-10-20_10h46.23.646,forced_choiceRT,2021.1.2,MacIntel,66.66666667,,,,,,,,8,Ontime,h,0,1.956,9,3,39,1,1,,,,,
,,,,,,,,,,,,60fd22c43ca0a22679d24c9f,2021-10-20_10h46.23.646,forced_choiceRT,2021.1.2,MacIntel,66.66666667,,,,,,,,,,,,,,,,,,7,0,7,0,1
,1.56,,,,,,,,,f.PNG,f,60fd22c43ca0a22679d24c9f,2021-10-20_10h46.23.646,forced_choiceRT,2021.1.2,MacIntel,66.66666667,,,,,,,,9,Ontime,h,0,2.036,0,0,0,0,1,,,,,
,0.53,,,,,,,,,f.PNG,f,60fd22c43ca0a22679d24c9f,2021-10-20_10h46.23.646,forced_choiceRT,2021.1.2,MacIntel,66.66666667,,,,,,,,9,Ontime,f,1,2.009,0,1,1,0,1,,,,,
,1.55,,,,,,,,,j.PNG,j,60fd22c43ca0a22679d24c9f,2021-10-20_10h46.23.646,forced_choiceRT,2021.1.2,MacIntel,66.66666667,,,,,,,,9,Ontime,f,0,1.99,0,2,2,3,1,,,,,
,0.71,,,,,,,,,h.PNG,h,60fd22c43ca0a22679d24c9f,2021-10-20_10h46.23.646,forced_choiceRT,2021.1.2,MacIntel,66.66666667,,,,,,,,9,Ontime,h,1,1.953,0,3,3,2,1,,,,,
,0.15,,,,,,,,,j.PNG,j,60fd22c43ca0a22679d24c9f,2021-10-20_10h46.23.646,forced_choiceRT,2021.1.2,MacIntel,66.66666667,,,,,,,,9,Ontime,j,1,1.927,1,0,4,3,1,,,,,
,1.43,,,,,,,,,g.PNG,g,60fd22c43ca0a22679d24c9f,2021-10-20_10h46.23.646,forced_choiceRT,2021.1.2,MacIntel,66.66666667,,,,,,,,9,Ontime,h,0,2.072,1,1,5,1,1,,,,,
,0.72,,,,,,,,,h.PNG,h,60fd22c43ca0a22679d24c9f,2021-10-20_10h46.23.646,forced_choiceRT,2021.1.2,MacIntel,66.66666667,,,,,,,,9,Ontime,h,1,1.998,1,2,6,2,1,,,,,
,1.72,,,,,,,,,g.PNG,g,60fd22c43ca0a22679d24c9f,2021-10-20_10h46.23.646,forced_choiceRT,2021.1.2,MacIntel,66.66666667,,,,,,,,9,Fast,h,0,1.853,1,3,7,1,1,,,,,
,0.8,,,,,,,,,h.PNG,h,60fd22c43ca0a22679d24c9f,2021-10-20_10h46.23.646,forced_choiceRT,2021.1.2,MacIntel,66.66666667,,,,,,,,9,Fast,h,1,1.871,2,0,8,2,1,,,,,
,0.9,,,,,,,,,j.PNG,j,60fd22c43ca0a22679d24c9f,2021-10-20_10h46.23.646,forced_choiceRT,2021.1.2,MacIntel,66.66666667,,,,,,,,9,Fast,j,1,1.575,2,1,9,3,1,,,,,
,1.86,,,,,,,,,h.PNG,h,60fd22c43ca0a22679d24c9f,2021-10-20_10h46.23.646,forced_choiceRT,2021.1.2,MacIntel,66.66666667,,,,,,,,9,Ontime,h,1,2.063,2,2,10,2,1,,,,,
,1.69,,,,,,,,,f.PNG,f,60fd22c43ca0a22679d24c9f,2021-10-20_10h46.23.646,forced_choiceRT,2021.1.2,MacIntel,66.66666667,,,,,,,,9,Ontime,h,0,1.965,2,3,11,0,1,,,,,
,0.9,,,,,,,,,h.PNG,h,60fd22c43ca0a22679d24c9f,2021-10-20_10h46.23.646,forced_choiceRT,2021.1.2,MacIntel,66.66666667,,,,,,,,9,Fast,j,0,1.9,3,0,12,2,1,,,,,
,1.85,,,,,,,,,h.PNG,h,60fd22c43ca0a22679d24c9f,2021-10-20_10h46.23.646,forced_choiceRT,2021.1.2,MacIntel,66.66666667,,,,,,,,9,Fast,h,1,1.876,3,1,13,2,1,,,,,
,0.76,,,,,,,,,j.PNG,j,60fd22c43ca0a22679d24c9f,2021-10-20_10h46.23.646,forced_choiceRT,2021.1.2,MacIntel,66.66666667,,,,,,,,9,Ontime,j,1,1.988,3,2,14,3,1,,,,,
,0.31,,,,,,,,,g.PNG,g,60fd22c43ca0a22679d24c9f,2021-10-20_10h46.23.646,forced_choiceRT,2021.1.2,MacIntel,66.66666667,,,,,,,,9,Ontime,g,1,1.974,3,3,15,1,1,,,,,
,0.65,,,,,,,,,j.PNG,j,60fd22c43ca0a22679d24c9f,2021-10-20_10h46.23.646,forced_choiceRT,2021.1.2,MacIntel,66.66666667,,,,,,,,9,Fast,j,1,1.898,4,0,16,3,1,,,,,
,0.85,,,,,,,,,f.PNG,f,60fd22c43ca0a22679d24c9f,2021-10-20_10h46.23.646,forced_choiceRT,2021.1.2,MacIntel,66.66666667,,,,,,,,9,Fast,g,0,1.887,4,1,17,0,1,,,,,
,1.75,,,,,,,,,h.PNG,h,60fd22c43ca0a22679d24c9f,2021-10-20_10h46.23.646,forced_choiceRT,2021.1.2,MacIntel,66.66666667,,,,,,,,9,Ontime,g,0,1.966,4,2,18,2,1,,,,,
,0.32,,,,,,,,,f.PNG,f,60fd22c43ca0a22679d24c9f,2021-10-20_10h46.23.646,forced_choiceRT,2021.1.2,MacIntel,66.66666667,,,,,,,,9,Ontime,f,1,1.929,4,3,19,0,1,,,,,
,1.02,,,,,,,,,j.PNG,j,60fd22c43ca0a22679d24c9f,2021-10-20_10h46.23.646,forced_choiceRT,2021.1.2,MacIntel,66.66666667,,,,,,,,9,Ontime,j,1,1.91,5,0,20,3,1,,,,,
,1.71,,,,,,,,,h.PNG,h,60fd22c43ca0a22679d24c9f,2021-10-20_10h46.23.646,forced_choiceRT,2021.1.2,MacIntel,66.66666667,,,,,,,,9,Ontime,j,0,1.903,5,1,21,2,1,,,,,
,1.76,,,,,,,,,g.PNG,g,60fd22c43ca0a22679d24c9f,2021-10-20_10h46.23.646,forced_choiceRT,2021.1.2,MacIntel,66.66666667,,,,,,,,9,Ontime,j,0,1.953,5,2,22,1,1,,,,,
,1.81,,,,,,,,,j.PNG,j,60fd22c43ca0a22679d24c9f,2021-10-20_10h46.23.646,forced_choiceRT,2021.1.2,MacIntel,66.66666667,,,,,,,,9,Ontime,h,0,2.004,5,3,23,3,1,,,,,
,0.28,,,,,,,,,g.PNG,g,60fd22c43ca0a22679d24c9f,2021-10-20_10h46.23.646,forced_choiceRT,2021.1.2,MacIntel,66.66666667,,,,,,,,9,Ontime,g,1,2.006,6,0,24,1,1,,,,,
,0.53,,,,,,,,,f.PNG,f,60fd22c43ca0a22679d24c9f,2021-10-20_10h46.23.646,forced_choiceRT,2021.1.2,MacIntel,66.66666667,,,,,,,,9,Ontime,f,1,2.017,6,1,25,0,1,,,,,
,0.12,,,,,,,,,g.PNG,g,60fd22c43ca0a22679d24c9f,2021-10-20_10h46.23.646,forced_choiceRT,2021.1.2,MacIntel,66.66666667,,,,,,,,9,Fast,g,1,1.883,6,2,26,1,1,,,,,
,1.12,,,,,,,,,j.PNG,j,60fd22c43ca0a22679d24c9f,2021-10-20_10h46.23.646,forced_choiceRT,2021.1.2,MacIntel,66.66666667,,,,,,,,9,Ontime,j,1,1.987,6,3,27,3,1,,,,,
,0.04,,,,,,,,,j.PNG,j,60fd22c43ca0a22679d24c9f,2021-10-20_10h46.23.646,forced_choiceRT,2021.1.2,MacIntel,66.66666667,,,,,,,,9,Fast,j,1,1.879,7,0,28,3,1,,,,,
,0.91,,,,,,,,,f.PNG,f,60fd22c43ca0a22679d24c9f,2021-10-20_10h46.23.646,forced_choiceRT,2021.1.2,MacIntel,66.66666667,,,,,,,,9,Ontime,f,1,2.013,7,1,29,0,1,,,,,
,1.83,,,,,,,,,f.PNG,f,60fd22c43ca0a22679d24c9f,2021-10-20_10h46.23.646,forced_choiceRT,2021.1.2,MacIntel,66.66666667,,,,,,,,9,Fast,f,1,1.882,7,2,30,0,1,,,,,
,0.4,,,,,,,,,f.PNG,f,60fd22c43ca0a22679d24c9f,2021-10-20_10h46.23.646,forced_choiceRT,2021.1.2,MacIntel,66.66666667,,,,,,,,9,Ontime,f,1,1.975,7,3,31,0,1,,,,,
,1.81,,,,,,,,,f.PNG,f,60fd22c43ca0a22679d24c9f,2021-10-20_10h46.23.646,forced_choiceRT,2021.1.2,MacIntel,66.66666667,,,,,,,,9,Ontime,f,1,1.919,8,0,32,0,1,,,,,
,1.21,,,,,,,,,h.PNG,h,60fd22c43ca0a22679d24c9f,2021-10-20_10h46.23.646,forced_choiceRT,2021.1.2,MacIntel,66.66666667,,,,,,,,9,Ontime,h,1,1.963,8,1,33,2,1,,,,,
,0.1,,,,,,,,,g.PNG,g,60fd22c43ca0a22679d24c9f,2021-10-20_10h46.23.646,forced_choiceRT,2021.1.2,MacIntel,66.66666667,,,,,,,,9,Ontime,g,1,1.954,8,2,34,1,1,,,,,
,0.3,,,,,,,,,j.PNG,j,60fd22c43ca0a22679d24c9f,2021-10-20_10h46.23.646,forced_choiceRT,2021.1.2,MacIntel,66.66666667,,,,,,,,9,Ontime,j,1,1.967,8,3,35,3,1,,,,,
,1.77,,,,,,,,,g.PNG,g,60fd22c43ca0a22679d24c9f,2021-10-20_10h46.23.646,forced_choiceRT,2021.1.2,MacIntel,66.66666667,,,,,,,,9,Slow,h,0,2.137,9,0,36,1,1,,,,,
,1.19,,,,,,,,,h.PNG,h,60fd22c43ca0a22679d24c9f,2021-10-20_10h46.23.646,forced_choiceRT,2021.1.2,MacIntel,66.66666667,,,,,,,,9,Fast,g,0,1.736,9,1,37,2,1,,,,,
,0.84,,,,,,,,,g.PNG,g,60fd22c43ca0a22679d24c9f,2021-10-20_10h46.23.646,forced_choiceRT,2021.1.2,MacIntel,66.66666667,,,,,,,,9,Ontime,g,1,2.015,9,2,38,1,1,,,,,
,0.46,,,,,,,,,g.PNG,g,60fd22c43ca0a22679d24c9f,2021-10-20_10h46.23.646,forced_choiceRT,2021.1.2,MacIntel,66.66666667,,,,,,,,9,Fast,g,1,1.679,9,3,39,1,1,,,,,
,,,,,,,,,,,,60fd22c43ca0a22679d24c9f,2021-10-20_10h46.23.646,forced_choiceRT,2021.1.2,MacIntel,66.66666667,,,,,,,,,,,,,,,,,,8,0,8,0,1
,1.85,,,,,,,,,h.PNG,h,60fd22c43ca0a22679d24c9f,2021-10-20_10h46.23.646,forced_choiceRT,2021.1.2,MacIntel,66.66666667,,,,,,,,10,Fast,g,0,1.676,0,0,0,2,1,,,,,
,1.91,,,,,,,,,g.PNG,g,60fd22c43ca0a22679d24c9f,2021-10-20_10h46.23.646,forced_choiceRT,2021.1.2,MacIntel,66.66666667,,,,,,,,10,Fast,g,1,1.832,0,1,1,1,1,,,,,
,0.3,,,,,,,,,f.PNG,f,60fd22c43ca0a22679d24c9f,2021-10-20_10h46.23.646,forced_choiceRT,2021.1.2,MacIntel,66.66666667,,,,,,,,10,Fast,f,1,1.885,0,2,2,0,1,,,,,
,1.97,,,,,,,,,g.PNG,g,60fd22c43ca0a22679d24c9f,2021-10-20_10h46.23.646,forced_choiceRT,2021.1.2,MacIntel,66.66666667,,,,,,,,10,Ontime,f,0,2.002,0,3,3,1,1,,,,,
,0.46,,,,,,,,,g.PNG,g,60fd22c43ca0a22679d24c9f,2021-10-20_10h46.23.646,forced_choiceRT,2021.1.2,MacIntel,66.66666667,,,,,,,,10,Ontime,g,1,1.901,1,0,4,1,1,,,,,
,0.64,,,,,,,,,g.PNG,g,60fd22c43ca0a22679d24c9f,2021-10-20_10h46.23.646,forced_choiceRT,2021.1.2,MacIntel,66.66666667,,,,,,,,10,Ontime,g,1,1.967,1,1,5,1,1,,,,,
,1.1,,,,,,,,,j.PNG,j,60fd22c43ca0a22679d24c9f,2021-10-20_10h46.23.646,forced_choiceRT,2021.1.2,MacIntel,66.66666667,,,,,,,,10,Fast,j,1,1.89,1,2,6,3,1,,,,,
,0.94,,,,,,,,,j.PNG,j,60fd22c43ca0a22679d24c9f,2021-10-20_10h46.23.646,forced_choiceRT,2021.1.2,MacIntel,66.66666667,,,,,,,,10,Ontime,j,1,2.036,1,3,7,3,1,,,,,
,0.32,,,,,,,,,g.PNG,g,60fd22c43ca0a22679d24c9f,2021-10-20_10h46.23.646,forced_choiceRT,2021.1.2,MacIntel,66.66666667,,,,,,,,10,Ontime,g,1,2,2,0,8,1,1,,,,,
,1.44,,,,,,,,,f.PNG,f,60fd22c43ca0a22679d24c9f,2021-10-20_10h46.23.646,forced_choiceRT,2021.1.2,MacIntel,66.66666667,,,,,,,,10,Ontime,f,1,2.037,2,1,9,0,1,,,,,
,1.81,,,,,,,,,g.PNG,g,60fd22c43ca0a22679d24c9f,2021-10-20_10h46.23.646,forced_choiceRT,2021.1.2,MacIntel,66.66666667,,,,,,,,10,Slow,f,0,2.204,2,2,10,1,1,,,,,
,1.24,,,,,,,,,j.PNG,j,60fd22c43ca0a22679d24c9f,2021-10-20_10h46.23.646,forced_choiceRT,2021.1.2,MacIntel,66.66666667,,,,,,,,10,Ontime,j,1,1.94,2,3,11,3,1,,,,,
,1.92,,,,,,,,,h.PNG,h,60fd22c43ca0a22679d24c9f,2021-10-20_10h46.23.646,forced_choiceRT,2021.1.2,MacIntel,66.66666667,,,,,,,,10,Slow,j,0,2.225,3,0,12,2,1,,,,,
,1.04,,,,,,,,,f.PNG,f,60fd22c43ca0a22679d24c9f,2021-10-20_10h46.23.646,forced_choiceRT,2021.1.2,MacIntel,66.66666667,,,,,,,,10,Fast,f,1,1.845,3,1,13,0,1,,,,,
,1.6,,,,,,,,,j.PNG,j,60fd22c43ca0a22679d24c9f,2021-10-20_10h46.23.646,forced_choiceRT,2021.1.2,MacIntel,66.66666667,,,,,,,,10,Fast,f,0,1.871,3,2,14,3,1,,,,,
,1.67,,,,,,,,,g.PNG,g,60fd22c43ca0a22679d24c9f,2021-10-20_10h46.23.646,forced_choiceRT,2021.1.2,MacIntel,66.66666667,,,,,,,,10,Ontime,f,0,1.987,3,3,15,1,1,,,,,
,1.14,,,,,,,,,f.PNG,f,60fd22c43ca0a22679d24c9f,2021-10-20_10h46.23.646,forced_choiceRT,2021.1.2,MacIntel,66.66666667,,,,,,,,10,Fast,f,1,1.844,4,0,16,0,1,,,,,
,1.15,,,,,,,,,f.PNG,f,60fd22c43ca0a22679d24c9f,2021-10-20_10h46.23.646,forced_choiceRT,2021.1.2,MacIntel,66.66666667,,,,,,,,10,Fast,f,1,1.811,4,1,17,0,1,,,,,
,0.65,,,,,,,,,j.PNG,j,60fd22c43ca0a22679d24c9f,2021-10-20_10h46.23.646,forced_choiceRT,2021.1.2,MacIntel,66.66666667,,,,,,,,10,Ontime,j,1,1.985,4,2,18,3,1,,,,,
,1.58,,,,,,,,,g.PNG,g,60fd22c43ca0a22679d24c9f,2021-10-20_10h46.23.646,forced_choiceRT,2021.1.2,MacIntel,66.66666667,,,,,,,,10,Ontime,j,0,1.937,4,3,19,1,1,,,,,
,1.62,,,,,,,,,f.PNG,f,60fd22c43ca0a22679d24c9f,2021-10-20_10h46.23.646,forced_choiceRT,2021.1.2,MacIntel,66.66666667,,,,,,,,10,Ontime,j,0,1.979,5,0,20,0,1,,,,,
,1.67,,,,,,,,,j.PNG,j,60fd22c43ca0a22679d24c9f,2021-10-20_10h46.23.646,forced_choiceRT,2021.1.2,MacIntel,66.66666667,,,,,,,,10,Fast,j,1,1.882,5,1,21,3,1,,,,,
,0.63,,,,,,,,,f.PNG,f,60fd22c43ca0a22679d24c9f,2021-10-20_10h46.23.646,forced_choiceRT,2021.1.2,MacIntel,66.66666667,,,,,,,,10,Ontime,f,1,1.964,5,2,22,0,1,,,,,
,0.67,,,,,,,,,f.PNG,f,60fd22c43ca0a22679d24c9f,2021-10-20_10h46.23.646,forced_choiceRT,2021.1.2,MacIntel,66.66666667,,,,,,,,10,Ontime,f,1,1.961,5,3,23,0,1,,,,,
,1.83,,,,,,,,,h.PNG,h,60fd22c43ca0a22679d24c9f,2021-10-20_10h46.23.646,forced_choiceRT,2021.1.2,MacIntel,66.66666667,,,,,,,,10,Slow,f,0,2.163,6,0,24,2,1,,,,,
,0.94,,,,,,,,,h.PNG,h,60fd22c43ca0a22679d24c9f,2021-10-20_10h46.23.646,forced_choiceRT,2021.1.2,MacIntel,66.66666667,,,,,,,,10,Ontime,h,1,1.953,6,1,25,2,1,,,,,
,1.6,,,,,,,,,h.PNG,h,60fd22c43ca0a22679d24c9f,2021-10-20_10h46.23.646,forced_choiceRT,2021.1.2,MacIntel,66.66666667,,,,,,,,10,Fast,h,1,1.871,6,2,26,2,1,,,,,
,1.54,,,,,,,,,h.PNG,h,60fd22c43ca0a22679d24c9f,2021-10-20_10h46.23.646,forced_choiceRT,2021.1.2,MacIntel,66.66666667,,,,,,,,10,Fast,h,1,1.83,6,3,27,2,1,,,,,
,1.73,,,,,,,,,j.PNG,j,60fd22c43ca0a22679d24c9f,2021-10-20_10h46.23.646,forced_choiceRT,2021.1.2,MacIntel,66.66666667,,,,,,,,10,Fast,h,0,1.862,7,0,28,3,1,,,,,
,0.77,,,,,,,,,j.PNG,j,60fd22c43ca0a22679d24c9f,2021-10-20_10h46.23.646,forced_choiceRT,2021.1.2,MacIntel,66.66666667,,,,,,,,10,Ontime,j,1,1.908,7,1,29,3,1,,,,,
,1.82,,,,,,,,,j.PNG,j,60fd22c43ca0a22679d24c9f,2021-10-20_10h46.23.646,forced_choiceRT,2021.1.2,MacIntel,66.66666667,,,,,,,,10,Fast,j,1,1.837,7,2,30,3,1,,,,,
,1.08,,,,,,,,,g.PNG,g,60fd22c43ca0a22679d24c9f,2021-10-20_10h46.23.646,forced_choiceRT,2021.1.2,MacIntel,66.66666667,,,,,,,,10,Ontime,g,1,2.029,7,3,31,1,1,,,,,
,1.41,,,,,,,,,h.PNG,h,60fd22c43ca0a22679d24c9f,2021-10-20_10h46.23.646,forced_choiceRT,2021.1.2,MacIntel,66.66666667,,,,,,,,10,Ontime,h,1,2.061,8,0,32,2,1,,,,,
,1.69,,,,,,,,,h.PNG,h,60fd22c43ca0a22679d24c9f,2021-10-20_10h46.23.646,forced_choiceRT,2021.1.2,MacIntel,66.66666667,,,,,,,,10,Fast,h,1,1.887,8,1,33,2,1,,,,,
,1.53,,,,,,,,,j.PNG,j,60fd22c43ca0a22679d24c9f,2021-10-20_10h46.23.646,forced_choiceRT,2021.1.2,MacIntel,66.66666667,,,,,,,,10,Fast,h,0,1.834,8,2,34,3,1,,,,,
,0.59,,,,,,,,,g.PNG,g,60fd22c43ca0a22679d24c9f,2021-10-20_10h46.23.646,forced_choiceRT,2021.1.2,MacIntel,66.66666667,,,,,,,,10,Ontime,g,1,2.036,8,3,35,1,1,,,,,
,0.44,,,,,,,,,h.PNG,h,60fd22c43ca0a22679d24c9f,2021-10-20_10h46.23.646,forced_choiceRT,2021.1.2,MacIntel,66.66666667,,,,,,,,10,Fast,h,1,1.882,9,0,36,2,1,,,,,
,0.58,,,,,,,,,f.PNG,f,60fd22c43ca0a22679d24c9f,2021-10-20_10h46.23.646,forced_choiceRT,2021.1.2,MacIntel,66.66666667,,,,,,,,10,Ontime,f,1,2.034,9,1,37,0,1,,,,,
,1.56,,,,,,,,,h.PNG,h,60fd22c43ca0a22679d24c9f,2021-10-20_10h46.23.646,forced_choiceRT,2021.1.2,MacIntel,66.66666667,,,,,,,,10,Ontime,g,0,2.086,9,2,38,2,1,,,,,
,1.27,,,,,,,,,f.PNG,f,60fd22c43ca0a22679d24c9f,2021-10-20_10h46.23.646,forced_choiceRT,2021.1.2,MacIntel,66.66666667,,,,,,,,10,Fast,h,0,1.799,9,3,39,0,1,,,,,
,,,,,,,,,,,,60fd22c43ca0a22679d24c9f,2021-10-20_10h46.23.646,forced_choiceRT,2021.1.2,MacIntel,66.66666667,,,,,,,,,,,,,,,,,,9,0,9,0,1
