IP_Addresss,target_onset,trial_resp_sp.keys,trial_resp_sp.corr,trial_resp_sp.rt,trials_train_loop.thisRepN,trials_train_loop.thisTrialN,trials_train_loop.thisN,trials_train_loop.thisIndex,trials_train_loop.ran,pic,correct_key,participant,date,expName,psychopyVersion,OS,frameRate,trial_resp_timing.keys,trial_resp_timing.rt,trials_train_timing.thisRepN,trials_train_timing.thisTrialN,trials_train_timing.thisN,trials_train_timing.thisIndex,trials_train_timing.ran,block_id,ontime,forcedRT_resp.keys,forcedRT_resp.corr,forcedRT_resp.rt,trials.thisRepN,trials.thisTrialN,trials.thisN,trials.thisIndex,trials.ran,blocks.thisRepN,blocks.thisTrialN,blocks.thisN,blocks.thisIndex,blocks.ran
107.221.141.235,0,h,1,1.1158,0,0,0,2,1,h.PNG,h,6101930ddd5330f83b898c61,2021-10-20_09h51.33.416,forced_choiceRT,2021.1.2,Win32,59.59830741,,,,,,,,,,,,,,,,,,,,,,
,0,g,1,1.0417,0,1,1,1,1,g.PNG,g,6101930ddd5330f83b898c61,2021-10-20_09h51.33.416,forced_choiceRT,2021.1.2,Win32,59.59830741,,,,,,,,,,,,,,,,,,,,,,
,0,f,1,0.7098,0,2,2,0,1,f.PNG,f,6101930ddd5330f83b898c61,2021-10-20_09h51.33.416,forced_choiceRT,2021.1.2,Win32,59.59830741,,,,,,,,,,,,,,,,,,,,,,
,0,f,1,0.7271,0,3,3,0,1,f.PNG,f,6101930ddd5330f83b898c61,2021-10-20_09h51.33.416,forced_choiceRT,2021.1.2,Win32,59.59830741,,,,,,,,,,,,,,,,,,,,,,
,0,h,1,1.7438,1,0,4,2,1,h.PNG,h,6101930ddd5330f83b898c61,2021-10-20_09h51.33.416,forced_choiceRT,2021.1.2,Win32,59.59830741,,,,,,,,,,,,,,,,,,,,,,
,0,j,1,0.6959,1,1,5,3,1,j.PNG,j,6101930ddd5330f83b898c61,2021-10-20_09h51.33.416,forced_choiceRT,2021.1.2,Win32,59.59830741,,,,,,,,,,,,,,,,,,,,,,
,0,g,1,0.6511,1,2,6,1,1,g.PNG,g,6101930ddd5330f83b898c61,2021-10-20_09h51.33.416,forced_choiceRT,2021.1.2,Win32,59.59830741,,,,,,,,,,,,,,,,,,,,,,
,0,g,1,0.7509,1,3,7,1,1,g.PNG,g,6101930ddd5330f83b898c61,2021-10-20_09h51.33.416,forced_choiceRT,2021.1.2,Win32,59.59830741,,,,,,,,,,,,,,,,,,,,,,
,0,g,1,0.7347,2,0,8,1,1,g.PNG,g,6101930ddd5330f83b898c61,2021-10-20_09h51.33.416,forced_choiceRT,2021.1.2,Win32,59.59830741,,,,,,,,,,,,,,,,,,,,,,
,0,g,1,0.71,2,1,9,1,1,g.PNG,g,6101930ddd5330f83b898c61,2021-10-20_09h51.33.416,forced_choiceRT,2021.1.2,Win32,59.59830741,,,,,,,,,,,,,,,,,,,,,,
,0,g,1,0.7436,2,2,10,1,1,g.PNG,g,6101930ddd5330f83b898c61,2021-10-20_09h51.33.416,forced_choiceRT,2021.1.2,Win32,59.59830741,,,,,,,,,,,,,,,,,,,,,,
,0,f,1,0.7108,2,3,11,0,1,f.PNG,f,6101930ddd5330f83b898c61,2021-10-20_09h51.33.416,forced_choiceRT,2021.1.2,Win32,59.59830741,,,,,,,,,,,,,,,,,,,,,,
,0,f,1,0.7014,3,0,12,0,1,f.PNG,f,6101930ddd5330f83b898c61,2021-10-20_09h51.33.416,forced_choiceRT,2021.1.2,Win32,59.59830741,,,,,,,,,,,,,,,,,,,,,,
,0,f,1,0.7181,3,1,13,0,1,f.PNG,f,6101930ddd5330f83b898c61,2021-10-20_09h51.33.416,forced_choiceRT,2021.1.2,Win32,59.59830741,,,,,,,,,,,,,,,,,,,,,,
,0,f,1,0.6513,3,2,14,0,1,f.PNG,f,6101930ddd5330f83b898c61,2021-10-20_09h51.33.416,forced_choiceRT,2021.1.2,Win32,59.59830741,,,,,,,,,,,,,,,,,,,,,,
,0,g,1,0.6949,3,3,15,1,1,g.PNG,g,6101930ddd5330f83b898c61,2021-10-20_09h51.33.416,forced_choiceRT,2021.1.2,Win32,59.59830741,,,,,,,,,,,,,,,,,,,,,,
,0,h,1,1.0521,4,0,16,2,1,h.PNG,h,6101930ddd5330f83b898c61,2021-10-20_09h51.33.416,forced_choiceRT,2021.1.2,Win32,59.59830741,,,,,,,,,,,,,,,,,,,,,,
,0,h,1,0.6438,4,1,17,2,1,h.PNG,h,6101930ddd5330f83b898c61,2021-10-20_09h51.33.416,forced_choiceRT,2021.1.2,Win32,59.59830741,,,,,,,,,,,,,,,,,,,,,,
,0,j,1,0.6847,4,2,18,3,1,j.PNG,j,6101930ddd5330f83b898c61,2021-10-20_09h51.33.416,forced_choiceRT,2021.1.2,Win32,59.59830741,,,,,,,,,,,,,,,,,,,,,,
,0,g,1,0.7181,4,3,19,1,1,g.PNG,g,6101930ddd5330f83b898c61,2021-10-20_09h51.33.416,forced_choiceRT,2021.1.2,Win32,59.59830741,,,,,,,,,,,,,,,,,,,,,,
,0,h,1,0.7871,5,0,20,2,1,h.PNG,h,6101930ddd5330f83b898c61,2021-10-20_09h51.33.416,forced_choiceRT,2021.1.2,Win32,59.59830741,,,,,,,,,,,,,,,,,,,,,,
,0,g,1,0.6847,5,1,21,1,1,g.PNG,g,6101930ddd5330f83b898c61,2021-10-20_09h51.33.416,forced_choiceRT,2021.1.2,Win32,59.59830741,,,,,,,,,,,,,,,,,,,,,,
,0,f,1,0.7015,5,2,22,0,1,f.PNG,f,6101930ddd5330f83b898c61,2021-10-20_09h51.33.416,forced_choiceRT,2021.1.2,Win32,59.59830741,,,,,,,,,,,,,,,,,,,,,,
,0,f,1,0.6933,5,3,23,0,1,f.PNG,f,6101930ddd5330f83b898c61,2021-10-20_09h51.33.416,forced_choiceRT,2021.1.2,Win32,59.59830741,,,,,,,,,,,,,,,,,,,,,,
,0,f,1,0.6348,6,0,24,0,1,f.PNG,f,6101930ddd5330f83b898c61,2021-10-20_09h51.33.416,forced_choiceRT,2021.1.2,Win32,59.59830741,,,,,,,,,,,,,,,,,,,,,,
,0,g,1,0.7233,6,1,25,1,1,g.PNG,g,6101930ddd5330f83b898c61,2021-10-20_09h51.33.416,forced_choiceRT,2021.1.2,Win32,59.59830741,,,,,,,,,,,,,,,,,,,,,,
,0,h,1,0.6775,6,2,26,2,1,h.PNG,h,6101930ddd5330f83b898c61,2021-10-20_09h51.33.416,forced_choiceRT,2021.1.2,Win32,59.59830741,,,,,,,,,,,,,,,,,,,,,,
,0,j,1,0.6723,6,3,27,3,1,j.PNG,j,6101930ddd5330f83b898c61,2021-10-20_09h51.33.416,forced_choiceRT,2021.1.2,Win32,59.59830741,,,,,,,,,,,,,,,,,,,,,,
,0,f,1,0.691,7,0,28,0,1,f.PNG,f,6101930ddd5330f83b898c61,2021-10-20_09h51.33.416,forced_choiceRT,2021.1.2,Win32,59.59830741,,,,,,,,,,,,,,,,,,,,,,
,0,g,1,0.7016,7,1,29,1,1,g.PNG,g,6101930ddd5330f83b898c61,2021-10-20_09h51.33.416,forced_choiceRT,2021.1.2,Win32,59.59830741,,,,,,,,,,,,,,,,,,,,,,
,0,j,1,0.6788,7,2,30,3,1,j.PNG,j,6101930ddd5330f83b898c61,2021-10-20_09h51.33.416,forced_choiceRT,2021.1.2,Win32,59.59830741,,,,,,,,,,,,,,,,,,,,,,
,0,j,1,0.6735,7,3,31,3,1,j.PNG,j,6101930ddd5330f83b898c61,2021-10-20_09h51.33.416,forced_choiceRT,2021.1.2,Win32,59.59830741,,,,,,,,,,,,,,,,,,,,,,
,0,g,1,0.7011,8,0,32,1,1,g.PNG,g,6101930ddd5330f83b898c61,2021-10-20_09h51.33.416,forced_choiceRT,2021.1.2,Win32,59.59830741,,,,,,,,,,,,,,,,,,,,,,
,0,h,1,0.7019,8,1,33,2,1,h.PNG,h,6101930ddd5330f83b898c61,2021-10-20_09h51.33.416,forced_choiceRT,2021.1.2,Win32,59.59830741,,,,,,,,,,,,,,,,,,,,,,
,0,h,1,0.8395,8,2,34,2,1,h.PNG,h,6101930ddd5330f83b898c61,2021-10-20_09h51.33.416,forced_choiceRT,2021.1.2,Win32,59.59830741,,,,,,,,,,,,,,,,,,,,,,
,0,j,1,0.601,8,3,35,3,1,j.PNG,j,6101930ddd5330f83b898c61,2021-10-20_09h51.33.416,forced_choiceRT,2021.1.2,Win32,59.59830741,,,,,,,,,,,,,,,,,,,,,,
,0,f,1,0.6415,9,0,36,0,1,f.PNG,f,6101930ddd5330f83b898c61,2021-10-20_09h51.33.416,forced_choiceRT,2021.1.2,Win32,59.59830741,,,,,,,,,,,,,,,,,,,,,,
,0,j,1,0.6344,9,1,37,3,1,j.PNG,j,6101930ddd5330f83b898c61,2021-10-20_09h51.33.416,forced_choiceRT,2021.1.2,Win32,59.59830741,,,,,,,,,,,,,,,,,,,,,,
,0,h,1,0.6854,9,2,38,2,1,h.PNG,h,6101930ddd5330f83b898c61,2021-10-20_09h51.33.416,forced_choiceRT,2021.1.2,Win32,59.59830741,,,,,,,,,,,,,,,,,,,,,,
,0,g,1,0.6453,9,3,39,1,1,g.PNG,g,6101930ddd5330f83b898c61,2021-10-20_09h51.33.416,forced_choiceRT,2021.1.2,Win32,59.59830741,,,,,,,,,,,,,,,,,,,,,,
,0,j,1,0.6563,10,0,40,3,1,j.PNG,j,6101930ddd5330f83b898c61,2021-10-20_09h51.33.416,forced_choiceRT,2021.1.2,Win32,59.59830741,,,,,,,,,,,,,,,,,,,,,,
,0,j,1,0.7241,10,1,41,3,1,j.PNG,j,6101930ddd5330f83b898c61,2021-10-20_09h51.33.416,forced_choiceRT,2021.1.2,Win32,59.59830741,,,,,,,,,,,,,,,,,,,,,,
,0,h,1,0.7178,10,2,42,2,1,h.PNG,h,6101930ddd5330f83b898c61,2021-10-20_09h51.33.416,forced_choiceRT,2021.1.2,Win32,59.59830741,,,,,,,,,,,,,,,,,,,,,,
,0,h,0,0.726,10,3,43,3,1,j.PNG,j,6101930ddd5330f83b898c61,2021-10-20_09h51.33.416,forced_choiceRT,2021.1.2,Win32,59.59830741,,,,,,,,,,,,,,,,,,,,,,
,0,j,1,0.6797,11,0,44,3,1,j.PNG,j,6101930ddd5330f83b898c61,2021-10-20_09h51.33.416,forced_choiceRT,2021.1.2,Win32,59.59830741,,,,,,,,,,,,,,,,,,,,,,
,0,g,1,0.7178,11,1,45,1,1,g.PNG,g,6101930ddd5330f83b898c61,2021-10-20_09h51.33.416,forced_choiceRT,2021.1.2,Win32,59.59830741,,,,,,,,,,,,,,,,,,,,,,
,0,h,1,0.7014,11,2,46,2,1,h.PNG,h,6101930ddd5330f83b898c61,2021-10-20_09h51.33.416,forced_choiceRT,2021.1.2,Win32,59.59830741,,,,,,,,,,,,,,,,,,,,,,
,0,j,1,0.7081,11,3,47,3,1,j.PNG,j,6101930ddd5330f83b898c61,2021-10-20_09h51.33.416,forced_choiceRT,2021.1.2,Win32,59.59830741,,,,,,,,,,,,,,,,,,,,,,
,0,h,1,0.67,12,0,48,2,1,h.PNG,h,6101930ddd5330f83b898c61,2021-10-20_09h51.33.416,forced_choiceRT,2021.1.2,Win32,59.59830741,,,,,,,,,,,,,,,,,,,,,,
,0,f,1,0.6515,12,1,49,0,1,f.PNG,f,6101930ddd5330f83b898c61,2021-10-20_09h51.33.416,forced_choiceRT,2021.1.2,Win32,59.59830741,,,,,,,,,,,,,,,,,,,,,,
,0,h,1,0.7082,12,2,50,2,1,h.PNG,h,6101930ddd5330f83b898c61,2021-10-20_09h51.33.416,forced_choiceRT,2021.1.2,Win32,59.59830741,,,,,,,,,,,,,,,,,,,,,,
,0,f,1,0.6697,12,3,51,0,1,f.PNG,f,6101930ddd5330f83b898c61,2021-10-20_09h51.33.416,forced_choiceRT,2021.1.2,Win32,59.59830741,,,,,,,,,,,,,,,,,,,,,,
,0,h,1,0.7014,13,0,52,2,1,h.PNG,h,6101930ddd5330f83b898c61,2021-10-20_09h51.33.416,forced_choiceRT,2021.1.2,Win32,59.59830741,,,,,,,,,,,,,,,,,,,,,,
,0,f,1,0.5943,13,1,53,0,1,f.PNG,f,6101930ddd5330f83b898c61,2021-10-20_09h51.33.416,forced_choiceRT,2021.1.2,Win32,59.59830741,,,,,,,,,,,,,,,,,,,,,,
,0,h,1,0.6011,13,2,54,2,1,h.PNG,h,6101930ddd5330f83b898c61,2021-10-20_09h51.33.416,forced_choiceRT,2021.1.2,Win32,59.59830741,,,,,,,,,,,,,,,,,,,,,,
,0,j,1,0.6385,13,3,55,3,1,j.PNG,j,6101930ddd5330f83b898c61,2021-10-20_09h51.33.416,forced_choiceRT,2021.1.2,Win32,59.59830741,,,,,,,,,,,,,,,,,,,,,,
,0,g,1,0.6349,14,0,56,1,1,g.PNG,g,6101930ddd5330f83b898c61,2021-10-20_09h51.33.416,forced_choiceRT,2021.1.2,Win32,59.59830741,,,,,,,,,,,,,,,,,,,,,,
,0,j,1,0.687,14,1,57,3,1,j.PNG,j,6101930ddd5330f83b898c61,2021-10-20_09h51.33.416,forced_choiceRT,2021.1.2,Win32,59.59830741,,,,,,,,,,,,,,,,,,,,,,
,0,j,1,0.6682,14,2,58,3,1,j.PNG,j,6101930ddd5330f83b898c61,2021-10-20_09h51.33.416,forced_choiceRT,2021.1.2,Win32,59.59830741,,,,,,,,,,,,,,,,,,,,,,
,0,f,1,0.6682,14,3,59,0,1,f.PNG,f,6101930ddd5330f83b898c61,2021-10-20_09h51.33.416,forced_choiceRT,2021.1.2,Win32,59.59830741,,,,,,,,,,,,,,,,,,,,,,
,,,,,,,,,,,,6101930ddd5330f83b898c61,2021-10-20_09h51.33.416,forced_choiceRT,2021.1.2,Win32,59.59830741,f,2.0523,0,0,0,0,1,,,,,,,,,,,,,,,
,,,,,,,,,,,,6101930ddd5330f83b898c61,2021-10-20_09h51.33.416,forced_choiceRT,2021.1.2,Win32,59.59830741,g,1.9741,1,0,1,0,1,,,,,,,,,,,,,,,
,,,,,,,,,,,,6101930ddd5330f83b898c61,2021-10-20_09h51.33.416,forced_choiceRT,2021.1.2,Win32,59.59830741,h,1.9954,2,0,2,0,1,,,,,,,,,,,,,,,
,,,,,,,,,,,,6101930ddd5330f83b898c61,2021-10-20_09h51.33.416,forced_choiceRT,2021.1.2,Win32,59.59830741,j,1.9917,3,0,3,0,1,,,,,,,,,,,,,,,
,,,,,,,,,,,,6101930ddd5330f83b898c61,2021-10-20_09h51.33.416,forced_choiceRT,2021.1.2,Win32,59.59830741,f,2.0129,4,0,4,0,1,,,,,,,,,,,,,,,
,,,,,,,,,,,,6101930ddd5330f83b898c61,2021-10-20_09h51.33.416,forced_choiceRT,2021.1.2,Win32,59.59830741,g,2.003,5,0,5,0,1,,,,,,,,,,,,,,,
,,,,,,,,,,,,6101930ddd5330f83b898c61,2021-10-20_09h51.33.416,forced_choiceRT,2021.1.2,Win32,59.59830741,h,2.0197,6,0,6,0,1,,,,,,,,,,,,,,,
,,,,,,,,,,,,6101930ddd5330f83b898c61,2021-10-20_09h51.33.416,forced_choiceRT,2021.1.2,Win32,59.59830741,j,2.0229,7,0,7,0,1,,,,,,,,,,,,,,,
,,,,,,,,,,,,6101930ddd5330f83b898c61,2021-10-20_09h51.33.416,forced_choiceRT,2021.1.2,Win32,59.59830741,f,2.025,8,0,8,0,1,,,,,,,,,,,,,,,
,,,,,,,,,,,,6101930ddd5330f83b898c61,2021-10-20_09h51.33.416,forced_choiceRT,2021.1.2,Win32,59.59830741,g,1.9562,9,0,9,0,1,,,,,,,,,,,,,,,
,,,,,,,,,,,,6101930ddd5330f83b898c61,2021-10-20_09h51.33.416,forced_choiceRT,2021.1.2,Win32,59.59830741,h,1.9861,10,0,10,0,1,,,,,,,,,,,,,,,
,,,,,,,,,,,,6101930ddd5330f83b898c61,2021-10-20_09h51.33.416,forced_choiceRT,2021.1.2,Win32,59.59830741,j,2.0142,11,0,11,0,1,,,,,,,,,,,,,,,
,,,,,,,,,,,,6101930ddd5330f83b898c61,2021-10-20_09h51.33.416,forced_choiceRT,2021.1.2,Win32,59.59830741,f,2.0197,12,0,12,0,1,,,,,,,,,,,,,,,
,,,,,,,,,,,,6101930ddd5330f83b898c61,2021-10-20_09h51.33.416,forced_choiceRT,2021.1.2,Win32,59.59830741,g,1.9526,13,0,13,0,1,,,,,,,,,,,,,,,
,,,,,,,,,,,,6101930ddd5330f83b898c61,2021-10-20_09h51.33.416,forced_choiceRT,2021.1.2,Win32,59.59830741,h,1.9467,14,0,14,0,1,,,,,,,,,,,,,,,
,,,,,,,,,,,,6101930ddd5330f83b898c61,2021-10-20_09h51.33.416,forced_choiceRT,2021.1.2,Win32,59.59830741,j,2.0193,15,0,15,0,1,,,,,,,,,,,,,,,
,,,,,,,,,,,,6101930ddd5330f83b898c61,2021-10-20_09h51.33.416,forced_choiceRT,2021.1.2,Win32,59.59830741,f,2.0366,16,0,16,0,1,,,,,,,,,,,,,,,
,,,,,,,,,,,,6101930ddd5330f83b898c61,2021-10-20_09h51.33.416,forced_choiceRT,2021.1.2,Win32,59.59830741,g,1.9911,17,0,17,0,1,,,,,,,,,,,,,,,
,,,,,,,,,,,,6101930ddd5330f83b898c61,2021-10-20_09h51.33.416,forced_choiceRT,2021.1.2,Win32,59.59830741,h,2.0032,18,0,18,0,1,,,,,,,,,,,,,,,
,,,,,,,,,,,,6101930ddd5330f83b898c61,2021-10-20_09h51.33.416,forced_choiceRT,2021.1.2,Win32,59.59830741,j,2.0024,19,0,19,0,1,,,,,,,,,,,,,,,
,1.74,,,,,,,,,h.PNG,h,6101930ddd5330f83b898c61,2021-10-20_09h51.33.416,forced_choiceRT,2021.1.2,Win32,59.59830741,,,,,,,,1,Slow,h,1,2.3866,0,0,0,2,1,,,,,
,0.22,,,,,,,,,g.PNG,g,6101930ddd5330f83b898c61,2021-10-20_09h51.33.416,forced_choiceRT,2021.1.2,Win32,59.59830741,,,,,,,,1,Fast,g,1,1.6859,0,1,1,1,1,,,,,
,1.87,,,,,,,,,f.PNG,f,6101930ddd5330f83b898c61,2021-10-20_09h51.33.416,forced_choiceRT,2021.1.2,Win32,59.59830741,,,,,,,,1,Slow,f,1,2.4033,0,2,2,0,1,,,,,
,0.33,,,,,,,,,h.PNG,h,6101930ddd5330f83b898c61,2021-10-20_09h51.33.416,forced_choiceRT,2021.1.2,Win32,59.59830741,,,,,,,,1,Ontime,h,1,1.9897,0,3,3,2,1,,,,,
,1.65,,,,,,,,,j.PNG,j,6101930ddd5330f83b898c61,2021-10-20_09h51.33.416,forced_choiceRT,2021.1.2,Win32,59.59830741,,,,,,,,1,Slow,j,1,2.2022,1,0,4,3,1,,,,,
,0.58,,,,,,,,,h.PNG,h,6101930ddd5330f83b898c61,2021-10-20_09h51.33.416,forced_choiceRT,2021.1.2,Win32,59.59830741,,,,,,,,1,Ontime,h,1,1.9802,1,1,5,2,1,,,,,
,1.99,,,,,,,,,g.PNG,g,6101930ddd5330f83b898c61,2021-10-20_09h51.33.416,forced_choiceRT,2021.1.2,Win32,59.59830741,,,,,,,,1,Slow,g,1,3.0396,1,2,6,1,1,,,,,
,0.47,,,,,,,,,h.PNG,h,6101930ddd5330f83b898c61,2021-10-20_09h51.33.416,forced_choiceRT,2021.1.2,Win32,59.59830741,,,,,,,,1,Ontime,h,1,1.9692,1,3,7,2,1,,,,,
,0.87,,,,,,,,,j.PNG,j,6101930ddd5330f83b898c61,2021-10-20_09h51.33.416,forced_choiceRT,2021.1.2,Win32,59.59830741,,,,,,,,1,Ontime,j,1,2.012,2,0,8,3,1,,,,,
,1.29,,,,,,,,,j.PNG,j,6101930ddd5330f83b898c61,2021-10-20_09h51.33.416,forced_choiceRT,2021.1.2,Win32,59.59830741,,,,,,,,1,Ontime,j,1,2.0702,2,1,9,3,1,,,,,
,1.07,,,,,,,,,h.PNG,h,6101930ddd5330f83b898c61,2021-10-20_09h51.33.416,forced_choiceRT,2021.1.2,Win32,59.59830741,,,,,,,,1,Ontime,h,1,2.0464,2,2,10,2,1,,,,,
,0.06,,,,,,,,,j.PNG,j,6101930ddd5330f83b898c61,2021-10-20_09h51.33.416,forced_choiceRT,2021.1.2,Win32,59.59830741,,,,,,,,1,Ontime,j,1,1.9277,2,3,11,3,1,,,,,
,1.62,,,,,,,,,h.PNG,h,6101930ddd5330f83b898c61,2021-10-20_09h51.33.416,forced_choiceRT,2021.1.2,Win32,59.59830741,,,,,,,,1,Slow,h,1,2.1358,3,0,12,2,1,,,,,
,1.16,,,,,,,,,f.PNG,f,6101930ddd5330f83b898c61,2021-10-20_09h51.33.416,forced_choiceRT,2021.1.2,Win32,59.59830741,,,,,,,,1,Ontime,f,1,2.0364,3,1,13,0,1,,,,,
,0.65,,,,,,,,,h.PNG,h,6101930ddd5330f83b898c61,2021-10-20_09h51.33.416,forced_choiceRT,2021.1.2,Win32,59.59830741,,,,,,,,1,Ontime,h,1,1.9529,3,2,14,2,1,,,,,
,1.18,,,,,,,,,f.PNG,f,6101930ddd5330f83b898c61,2021-10-20_09h51.33.416,forced_choiceRT,2021.1.2,Win32,59.59830741,,,,,,,,1,Ontime,f,1,1.9775,3,3,15,0,1,,,,,
,0.91,,,,,,,,,f.PNG,f,6101930ddd5330f83b898c61,2021-10-20_09h51.33.416,forced_choiceRT,2021.1.2,Win32,59.59830741,,,,,,,,1,Ontime,f,1,1.9528,4,0,16,0,1,,,,,
,1.9,,,,,,,,,f.PNG,f,6101930ddd5330f83b898c61,2021-10-20_09h51.33.416,forced_choiceRT,2021.1.2,Win32,59.59830741,,,,,,,,1,Slow,g,0,2.2026,4,1,17,0,1,,,,,
,0.17,,,,,,,,,g.PNG,g,6101930ddd5330f83b898c61,2021-10-20_09h51.33.416,forced_choiceRT,2021.1.2,Win32,59.59830741,,,,,,,,1,Ontime,g,1,1.9878,4,2,18,1,1,,,,,
,0.65,,,,,,,,,g.PNG,g,6101930ddd5330f83b898c61,2021-10-20_09h51.33.416,forced_choiceRT,2021.1.2,Win32,59.59830741,,,,,,,,1,Ontime,g,1,1.9695,4,3,19,1,1,,,,,
,0.82,,,,,,,,,g.PNG,g,6101930ddd5330f83b898c61,2021-10-20_09h51.33.416,forced_choiceRT,2021.1.2,Win32,59.59830741,,,,,,,,1,Ontime,g,1,2.0193,5,0,20,1,1,,,,,
,1.1,,,,,,,,,g.PNG,g,6101930ddd5330f83b898c61,2021-10-20_09h51.33.416,forced_choiceRT,2021.1.2,Win32,59.59830741,,,,,,,,1,Ontime,g,1,1.9745,5,1,21,1,1,,,,,
,1.91,,,,,,,,,j.PNG,j,6101930ddd5330f83b898c61,2021-10-20_09h51.33.416,forced_choiceRT,2021.1.2,Win32,59.59830741,,,,,,,,1,Slow,j,1,2.3948,5,2,22,3,1,,,,,
,1.69,,,,,,,,,h.PNG,h,6101930ddd5330f83b898c61,2021-10-20_09h51.33.416,forced_choiceRT,2021.1.2,Win32,59.59830741,,,,,,,,1,Slow,j,0,2.1526,5,3,23,2,1,,,,,
,0.98,,,,,,,,,g.PNG,g,6101930ddd5330f83b898c61,2021-10-20_09h51.33.416,forced_choiceRT,2021.1.2,Win32,59.59830741,,,,,,,,1,Ontime,g,1,2.0188,6,0,24,1,1,,,,,
,0.02,,,,,,,,,f.PNG,f,6101930ddd5330f83b898c61,2021-10-20_09h51.33.416,forced_choiceRT,2021.1.2,Win32,59.59830741,,,,,,,,1,Ontime,f,1,1.9975,6,1,25,0,1,,,,,
,1.72,,,,,,,,,f.PNG,f,6101930ddd5330f83b898c61,2021-10-20_09h51.33.416,forced_choiceRT,2021.1.2,Win32,59.59830741,,,,,,,,1,Slow,f,1,2.2557,6,2,26,0,1,,,,,
,1.16,,,,,,,,,j.PNG,j,6101930ddd5330f83b898c61,2021-10-20_09h51.33.416,forced_choiceRT,2021.1.2,Win32,59.59830741,,,,,,,,1,Ontime,j,1,1.9765,6,3,27,3,1,,,,,
,1.34,,,,,,,,,f.PNG,f,6101930ddd5330f83b898c61,2021-10-20_09h51.33.416,forced_choiceRT,2021.1.2,Win32,59.59830741,,,,,,,,1,Ontime,f,1,1.9884,7,0,28,0,1,,,,,
,0.76,,,,,,,,,j.PNG,j,6101930ddd5330f83b898c61,2021-10-20_09h51.33.416,forced_choiceRT,2021.1.2,Win32,59.59830741,,,,,,,,1,Ontime,j,1,2.0027,7,1,29,3,1,,,,,
,0.99,,,,,,,,,j.PNG,j,6101930ddd5330f83b898c61,2021-10-20_09h51.33.416,forced_choiceRT,2021.1.2,Win32,59.59830741,,,,,,,,1,Ontime,j,1,1.9628,7,2,30,3,1,,,,,
,1.53,,,,,,,,,g.PNG,g,6101930ddd5330f83b898c61,2021-10-20_09h51.33.416,forced_choiceRT,2021.1.2,Win32,59.59830741,,,,,,,,1,Ontime,g,1,2.0388,7,3,31,1,1,,,,,
,1.42,,,,,,,,,f.PNG,f,6101930ddd5330f83b898c61,2021-10-20_09h51.33.416,forced_choiceRT,2021.1.2,Win32,59.59830741,,,,,,,,1,Ontime,f,1,1.9439,8,0,32,0,1,,,,,
,0.15,,,,,,,,,h.PNG,h,6101930ddd5330f83b898c61,2021-10-20_09h51.33.416,forced_choiceRT,2021.1.2,Win32,59.59830741,,,,,,,,1,Ontime,h,1,2.0213,8,1,33,2,1,,,,,
,1.67,,,,,,,,,g.PNG,g,6101930ddd5330f83b898c61,2021-10-20_09h51.33.416,forced_choiceRT,2021.1.2,Win32,59.59830741,,,,,,,,1,Slow,g,1,2.5371,8,2,34,1,1,,,,,
,0.46,,,,,,,,,f.PNG,f,6101930ddd5330f83b898c61,2021-10-20_09h51.33.416,forced_choiceRT,2021.1.2,Win32,59.59830741,,,,,,,,1,Ontime,f,1,1.9529,8,3,35,0,1,,,,,
,1.01,,,,,,,,,g.PNG,g,6101930ddd5330f83b898c61,2021-10-20_09h51.33.416,forced_choiceRT,2021.1.2,Win32,59.59830741,,,,,,,,1,Ontime,g,1,2.0889,9,0,36,1,1,,,,,
,1.93,,,,,,,,,j.PNG,j,6101930ddd5330f83b898c61,2021-10-20_09h51.33.416,forced_choiceRT,2021.1.2,Win32,59.59830741,,,,,,,,1,Slow,j,1,2.328,9,1,37,3,1,,,,,
,1.15,,,,,,,,,j.PNG,j,6101930ddd5330f83b898c61,2021-10-20_09h51.33.416,forced_choiceRT,2021.1.2,Win32,59.59830741,,,,,,,,1,Ontime,j,1,2.006,9,2,38,3,1,,,,,
,1,,,,,,,,,h.PNG,h,6101930ddd5330f83b898c61,2021-10-20_09h51.33.416,forced_choiceRT,2021.1.2,Win32,59.59830741,,,,,,,,1,Ontime,h,1,1.9922,9,3,39,2,1,,,,,
,,,,,,,,,,,,6101930ddd5330f83b898c61,2021-10-20_09h51.33.416,forced_choiceRT,2021.1.2,Win32,59.59830741,,,,,,,,,,,,,,,,,,0,0,0,0,1
,1.49,,,,,,,,,h.PNG,h,6101930ddd5330f83b898c61,2021-10-20_09h51.33.416,forced_choiceRT,2021.1.2,Win32,59.59830741,,,,,,,,2,Slow,h,1,2.1025,0,0,0,2,1,,,,,
,0.38,,,,,,,,,g.PNG,g,6101930ddd5330f83b898c61,2021-10-20_09h51.33.416,forced_choiceRT,2021.1.2,Win32,59.59830741,,,,,,,,2,Ontime,g,1,1.9964,0,1,1,1,1,,,,,
,0.88,,,,,,,,,f.PNG,f,6101930ddd5330f83b898c61,2021-10-20_09h51.33.416,forced_choiceRT,2021.1.2,Win32,59.59830741,,,,,,,,2,Ontime,f,1,2.0235,0,2,2,0,1,,,,,
,0.75,,,,,,,,,h.PNG,h,6101930ddd5330f83b898c61,2021-10-20_09h51.33.416,forced_choiceRT,2021.1.2,Win32,59.59830741,,,,,,,,2,Ontime,h,1,2.0417,0,3,3,2,1,,,,,
,1.49,,,,,,,,,j.PNG,j,6101930ddd5330f83b898c61,2021-10-20_09h51.33.416,forced_choiceRT,2021.1.2,Win32,59.59830741,,,,,,,,2,Ontime,j,1,1.9868,1,0,4,3,1,,,,,
,0.59,,,,,,,,,j.PNG,j,6101930ddd5330f83b898c61,2021-10-20_09h51.33.416,forced_choiceRT,2021.1.2,Win32,59.59830741,,,,,,,,2,Ontime,j,1,2.0031,1,1,5,3,1,,,,,
,1.98,,,,,,,,,h.PNG,h,6101930ddd5330f83b898c61,2021-10-20_09h51.33.416,forced_choiceRT,2021.1.2,Win32,59.59830741,,,,,,,,2,Slow,j,0,2.3045,1,2,6,2,1,,,,,
,1.74,,,,,,,,,g.PNG,g,6101930ddd5330f83b898c61,2021-10-20_09h51.33.416,forced_choiceRT,2021.1.2,Win32,59.59830741,,,,,,,,2,Slow,h,0,2.1908,1,3,7,1,1,,,,,
,1.27,,,,,,,,,g.PNG,g,6101930ddd5330f83b898c61,2021-10-20_09h51.33.416,forced_choiceRT,2021.1.2,Win32,59.59830741,,,,,,,,2,Ontime,g,1,2.0744,2,0,8,1,1,,,,,
,0.7,,,,,,,,,h.PNG,h,6101930ddd5330f83b898c61,2021-10-20_09h51.33.416,forced_choiceRT,2021.1.2,Win32,59.59830741,,,,,,,,2,Ontime,h,1,1.9695,2,1,9,2,1,,,,,
,0.23,,,,,,,,,f.PNG,f,6101930ddd5330f83b898c61,2021-10-20_09h51.33.416,forced_choiceRT,2021.1.2,Win32,59.59830741,,,,,,,,2,Ontime,f,1,1.9738,2,2,10,0,1,,,,,
,1.18,,,,,,,,,j.PNG,j,6101930ddd5330f83b898c61,2021-10-20_09h51.33.416,forced_choiceRT,2021.1.2,Win32,59.59830741,,,,,,,,2,Slow,j,1,2.1035,2,3,11,3,1,,,,,
,0.78,,,,,,,,,f.PNG,f,6101930ddd5330f83b898c61,2021-10-20_09h51.33.416,forced_choiceRT,2021.1.2,Win32,59.59830741,,,,,,,,2,Ontime,f,1,2.0025,3,0,12,0,1,,,,,
,0.3,,,,,,,,,h.PNG,h,6101930ddd5330f83b898c61,2021-10-20_09h51.33.416,forced_choiceRT,2021.1.2,Win32,59.59830741,,,,,,,,2,Ontime,h,1,1.9553,3,1,13,2,1,,,,,
,1.63,,,,,,,,,f.PNG,f,6101930ddd5330f83b898c61,2021-10-20_09h51.33.416,forced_choiceRT,2021.1.2,Win32,59.59830741,,,,,,,,2,Slow,f,1,2.2361,3,2,14,0,1,,,,,
,0.34,,,,,,,,,g.PNG,g,6101930ddd5330f83b898c61,2021-10-20_09h51.33.416,forced_choiceRT,2021.1.2,Win32,59.59830741,,,,,,,,2,Ontime,g,1,1.9866,3,3,15,1,1,,,,,
,1.35,,,,,,,,,f.PNG,f,6101930ddd5330f83b898c61,2021-10-20_09h51.33.416,forced_choiceRT,2021.1.2,Win32,59.59830741,,,,,,,,2,Ontime,f,1,2.0859,4,0,16,0,1,,,,,
,1.37,,,,,,,,,j.PNG,j,6101930ddd5330f83b898c61,2021-10-20_09h51.33.416,forced_choiceRT,2021.1.2,Win32,59.59830741,,,,,,,,2,Ontime,j,1,2.0437,4,1,17,3,1,,,,,
,1.48,,,,,,,,,h.PNG,h,6101930ddd5330f83b898c61,2021-10-20_09h51.33.416,forced_choiceRT,2021.1.2,Win32,59.59830741,,,,,,,,2,Ontime,h,1,1.9728,4,2,18,2,1,,,,,
,0.3,,,,,,,,,f.PNG,f,6101930ddd5330f83b898c61,2021-10-20_09h51.33.416,forced_choiceRT,2021.1.2,Win32,59.59830741,,,,,,,,2,Ontime,f,1,1.9704,4,3,19,0,1,,,,,
,1.88,,,,,,,,,g.PNG,g,6101930ddd5330f83b898c61,2021-10-20_09h51.33.416,forced_choiceRT,2021.1.2,Win32,59.59830741,,,,,,,,2,Slow,j,0,2.303,5,0,20,1,1,,,,,
,0,,,,,,,,,h.PNG,h,6101930ddd5330f83b898c61,2021-10-20_09h51.33.416,forced_choiceRT,2021.1.2,Win32,59.59830741,,,,,,,,2,Ontime,h,1,1.9632,5,1,21,2,1,,,,,
,1.37,,,,,,,,,h.PNG,h,6101930ddd5330f83b898c61,2021-10-20_09h51.33.416,forced_choiceRT,2021.1.2,Win32,59.59830741,,,,,,,,2,Ontime,h,1,2.0642,5,2,22,2,1,,,,,
,0.45,,,,,,,,,j.PNG,j,6101930ddd5330f83b898c61,2021-10-20_09h51.33.416,forced_choiceRT,2021.1.2,Win32,59.59830741,,,,,,,,2,Ontime,j,1,1.9535,5,3,23,3,1,,,,,
,1.2,,,,,,,,,j.PNG,j,6101930ddd5330f83b898c61,2021-10-20_09h51.33.416,forced_choiceRT,2021.1.2,Win32,59.59830741,,,,,,,,2,Ontime,j,1,1.9523,6,0,24,3,1,,,,,
,1.67,,,,,,,,,j.PNG,j,6101930ddd5330f83b898c61,2021-10-20_09h51.33.416,forced_choiceRT,2021.1.2,Win32,59.59830741,,,,,,,,2,Ontime,j,1,2.0899,6,1,25,3,1,,,,,
,0.34,,,,,,,,,g.PNG,g,6101930ddd5330f83b898c61,2021-10-20_09h51.33.416,forced_choiceRT,2021.1.2,Win32,59.59830741,,,,,,,,2,Ontime,g,1,1.9698,6,2,26,1,1,,,,,
,0.17,,,,,,,,,j.PNG,j,6101930ddd5330f83b898c61,2021-10-20_09h51.33.416,forced_choiceRT,2021.1.2,Win32,59.59830741,,,,,,,,2,Ontime,j,1,1.9407,6,3,27,3,1,,,,,
,1.96,,,,,,,,,j.PNG,j,6101930ddd5330f83b898c61,2021-10-20_09h51.33.416,forced_choiceRT,2021.1.2,Win32,59.59830741,,,,,,,,2,Ontime,f,0,1.9943,7,0,28,3,1,,,,,
,0.53,,,,,,,,,f.PNG,f,6101930ddd5330f83b898c61,2021-10-20_09h51.33.416,forced_choiceRT,2021.1.2,Win32,59.59830741,,,,,,,,2,Ontime,f,1,1.99,7,1,29,0,1,,,,,
,0.34,,,,,,,,,f.PNG,f,6101930ddd5330f83b898c61,2021-10-20_09h51.33.416,forced_choiceRT,2021.1.2,Win32,59.59830741,,,,,,,,2,Ontime,f,1,1.9531,7,2,30,0,1,,,,,
,1.03,,,,,,,,,f.PNG,f,6101930ddd5330f83b898c61,2021-10-20_09h51.33.416,forced_choiceRT,2021.1.2,Win32,59.59830741,,,,,,,,2,Ontime,f,1,1.9861,7,3,31,0,1,,,,,
,1.48,,,,,,,,,g.PNG,g,6101930ddd5330f83b898c61,2021-10-20_09h51.33.416,forced_choiceRT,2021.1.2,Win32,59.59830741,,,,,,,,2,Ontime,g,1,2.0032,8,0,32,1,1,,,,,
,0.04,,,,,,,,,g.PNG,g,6101930ddd5330f83b898c61,2021-10-20_09h51.33.416,forced_choiceRT,2021.1.2,Win32,59.59830741,,,,,,,,2,Ontime,g,1,2.0041,8,1,33,1,1,,,,,
,1.88,,,,,,,,,j.PNG,j,6101930ddd5330f83b898c61,2021-10-20_09h51.33.416,forced_choiceRT,2021.1.2,Win32,59.59830741,,,,,,,,2,Ontime,h,0,2.0473,8,2,34,3,1,,,,,
,0.14,,,,,,,,,g.PNG,g,6101930ddd5330f83b898c61,2021-10-20_09h51.33.416,forced_choiceRT,2021.1.2,Win32,59.59830741,,,,,,,,2,Ontime,g,1,1.9443,8,3,35,1,1,,,,,
,1.46,,,,,,,,,g.PNG,g,6101930ddd5330f83b898c61,2021-10-20_09h51.33.416,forced_choiceRT,2021.1.2,Win32,59.59830741,,,,,,,,2,Ontime,g,1,2.038,9,0,36,1,1,,,,,
,1.52,,,,,,,,,h.PNG,h,6101930ddd5330f83b898c61,2021-10-20_09h51.33.416,forced_choiceRT,2021.1.2,Win32,59.59830741,,,,,,,,2,Ontime,j,0,2.0474,9,1,37,2,1,,,,,
,0.77,,,,,,,,,h.PNG,h,6101930ddd5330f83b898c61,2021-10-20_09h51.33.416,forced_choiceRT,2021.1.2,Win32,59.59830741,,,,,,,,2,Ontime,h,1,2.0196,9,2,38,2,1,,,,,
,0.31,,,,,,,,,f.PNG,f,6101930ddd5330f83b898c61,2021-10-20_09h51.33.416,forced_choiceRT,2021.1.2,Win32,59.59830741,,,,,,,,2,Ontime,f,1,2.0102,9,3,39,0,1,,,,,
,,,,,,,,,,,,6101930ddd5330f83b898c61,2021-10-20_09h51.33.416,forced_choiceRT,2021.1.2,Win32,59.59830741,,,,,,,,,,,,,,,,,,1,0,1,0,1
,0.77,,,,,,,,,j.PNG,j,6101930ddd5330f83b898c61,2021-10-20_09h51.33.416,forced_choiceRT,2021.1.2,Win32,59.59830741,,,,,,,,3,Ontime,j,1,2.0943,0,0,0,3,1,,,,,
,0.87,,,,,,,,,h.PNG,h,6101930ddd5330f83b898c61,2021-10-20_09h51.33.416,forced_choiceRT,2021.1.2,Win32,59.59830741,,,,,,,,3,Fast,h,1,1.7096,0,1,1,2,1,,,,,
,1.44,,,,,,,,,j.PNG,j,6101930ddd5330f83b898c61,2021-10-20_09h51.33.416,forced_choiceRT,2021.1.2,Win32,59.59830741,,,,,,,,3,Slow,j,1,2.1082,0,2,2,3,1,,,,,
,1.01,,,,,,,,,j.PNG,j,6101930ddd5330f83b898c61,2021-10-20_09h51.33.416,forced_choiceRT,2021.1.2,Win32,59.59830741,,,,,,,,3,Ontime,j,1,1.9789,0,3,3,3,1,,,,,
,0.15,,,,,,,,,h.PNG,h,6101930ddd5330f83b898c61,2021-10-20_09h51.33.416,forced_choiceRT,2021.1.2,Win32,59.59830741,,,,,,,,3,Ontime,h,1,1.9104,1,0,4,2,1,,,,,
,1.05,,,,,,,,,g.PNG,g,6101930ddd5330f83b898c61,2021-10-20_09h51.33.416,forced_choiceRT,2021.1.2,Win32,59.59830741,,,,,,,,3,Ontime,g,1,2.0134,1,1,5,1,1,,,,,
,0.44,,,,,,,,,f.PNG,f,6101930ddd5330f83b898c61,2021-10-20_09h51.33.416,forced_choiceRT,2021.1.2,Win32,59.59830741,,,,,,,,3,Ontime,f,1,2.0028,1,2,6,0,1,,,,,
,1.3,,,,,,,,,f.PNG,f,6101930ddd5330f83b898c61,2021-10-20_09h51.33.416,forced_choiceRT,2021.1.2,Win32,59.59830741,,,,,,,,3,Ontime,f,1,2.0035,1,3,7,0,1,,,,,
,1.28,,,,,,,,,h.PNG,h,6101930ddd5330f83b898c61,2021-10-20_09h51.33.416,forced_choiceRT,2021.1.2,Win32,59.59830741,,,,,,,,3,Slow,h,1,2.1193,2,0,8,2,1,,,,,
,1.63,,,,,,,,,g.PNG,g,6101930ddd5330f83b898c61,2021-10-20_09h51.33.416,forced_choiceRT,2021.1.2,Win32,59.59830741,,,,,,,,3,Ontime,h,0,2.0597,2,1,9,1,1,,,,,
,0.36,,,,,,,,,g.PNG,g,6101930ddd5330f83b898c61,2021-10-20_09h51.33.416,forced_choiceRT,2021.1.2,Win32,59.59830741,,,,,,,,3,Ontime,g,1,1.9559,2,2,10,1,1,,,,,
,0.92,,,,,,,,,f.PNG,f,6101930ddd5330f83b898c61,2021-10-20_09h51.33.416,forced_choiceRT,2021.1.2,Win32,59.59830741,,,,,,,,3,Ontime,f,1,1.9768,2,3,11,0,1,,,,,
,0.43,,,,,,,,,j.PNG,j,6101930ddd5330f83b898c61,2021-10-20_09h51.33.416,forced_choiceRT,2021.1.2,Win32,59.59830741,,,,,,,,3,Ontime,j,1,2.0044,3,0,12,3,1,,,,,
,1.6,,,,,,,,,f.PNG,f,6101930ddd5330f83b898c61,2021-10-20_09h51.33.416,forced_choiceRT,2021.1.2,Win32,59.59830741,,,,,,,,3,Slow,f,1,2.1197,3,1,13,0,1,,,,,
,1.91,,,,,,,,,j.PNG,j,6101930ddd5330f83b898c61,2021-10-20_09h51.33.416,forced_choiceRT,2021.1.2,Win32,59.59830741,,,,,,,,3,Ontime,g,0,2.0129,3,2,14,3,1,,,,,
,1.73,,,,,,,,,h.PNG,h,6101930ddd5330f83b898c61,2021-10-20_09h51.33.416,forced_choiceRT,2021.1.2,Win32,59.59830741,,,,,,,,3,Ontime,h,1,2.0528,3,3,15,2,1,,,,,
,1.66,,,,,,,,,j.PNG,j,6101930ddd5330f83b898c61,2021-10-20_09h51.33.416,forced_choiceRT,2021.1.2,Win32,59.59830741,,,,,,,,3,Ontime,g,0,2.0529,4,0,16,3,1,,,,,
,0.92,,,,,,,,,j.PNG,j,6101930ddd5330f83b898c61,2021-10-20_09h51.33.416,forced_choiceRT,2021.1.2,Win32,59.59830741,,,,,,,,3,Ontime,j,1,1.9862,4,1,17,3,1,,,,,
,1.54,,,,,,,,,f.PNG,f,6101930ddd5330f83b898c61,2021-10-20_09h51.33.416,forced_choiceRT,2021.1.2,Win32,59.59830741,,,,,,,,3,Slow,f,1,2.1192,4,2,18,0,1,,,,,
,1.55,,,,,,,,,h.PNG,h,6101930ddd5330f83b898c61,2021-10-20_09h51.33.416,forced_choiceRT,2021.1.2,Win32,59.59830741,,,,,,,,3,Ontime,g,0,2.0366,4,3,19,2,1,,,,,
,1.92,,,,,,,,,h.PNG,h,6101930ddd5330f83b898c61,2021-10-20_09h51.33.416,forced_choiceRT,2021.1.2,Win32,59.59830741,,,,,,,,3,Ontime,h,1,2.027,5,0,20,2,1,,,,,
,0.73,,,,,,,,,j.PNG,j,6101930ddd5330f83b898c61,2021-10-20_09h51.33.416,forced_choiceRT,2021.1.2,Win32,59.59830741,,,,,,,,3,Ontime,j,1,2.0016,5,1,21,3,1,,,,,
,0.94,,,,,,,,,g.PNG,g,6101930ddd5330f83b898c61,2021-10-20_09h51.33.416,forced_choiceRT,2021.1.2,Win32,59.59830741,,,,,,,,3,Ontime,g,1,1.9763,5,2,22,1,1,,,,,
,1.36,,,,,,,,,h.PNG,h,6101930ddd5330f83b898c61,2021-10-20_09h51.33.416,forced_choiceRT,2021.1.2,Win32,59.59830741,,,,,,,,3,Ontime,h,1,1.9531,5,3,23,2,1,,,,,
,0.78,,,,,,,,,h.PNG,h,6101930ddd5330f83b898c61,2021-10-20_09h51.33.416,forced_choiceRT,2021.1.2,Win32,59.59830741,,,,,,,,3,Ontime,h,1,1.9779,6,0,24,2,1,,,,,
,0.98,,,,,,,,,j.PNG,j,6101930ddd5330f83b898c61,2021-10-20_09h51.33.416,forced_choiceRT,2021.1.2,Win32,59.59830741,,,,,,,,3,Ontime,j,1,2.0058,6,1,25,3,1,,,,,
,1.14,,,,,,,,,g.PNG,g,6101930ddd5330f83b898c61,2021-10-20_09h51.33.416,forced_choiceRT,2021.1.2,Win32,59.59830741,,,,,,,,3,Ontime,g,1,1.9693,6,2,26,1,1,,,,,
,1.43,,,,,,,,,h.PNG,h,6101930ddd5330f83b898c61,2021-10-20_09h51.33.416,forced_choiceRT,2021.1.2,Win32,59.59830741,,,,,,,,3,Ontime,h,1,2.0202,6,3,27,2,1,,,,,
,1.04,,,,,,,,,f.PNG,f,6101930ddd5330f83b898c61,2021-10-20_09h51.33.416,forced_choiceRT,2021.1.2,Win32,59.59830741,,,,,,,,3,Ontime,f,1,1.9196,7,0,28,0,1,,,,,
,1.73,,,,,,,,,g.PNG,g,6101930ddd5330f83b898c61,2021-10-20_09h51.33.416,forced_choiceRT,2021.1.2,Win32,59.59830741,,,,,,,,3,Ontime,h,0,1.9528,7,1,29,1,1,,,,,
,0.44,,,,,,,,,h.PNG,h,6101930ddd5330f83b898c61,2021-10-20_09h51.33.416,forced_choiceRT,2021.1.2,Win32,59.59830741,,,,,,,,3,Ontime,h,1,2.003,7,2,30,2,1,,,,,
,0.39,,,,,,,,,g.PNG,g,6101930ddd5330f83b898c61,2021-10-20_09h51.33.416,forced_choiceRT,2021.1.2,Win32,59.59830741,,,,,,,,3,Ontime,g,1,1.9801,7,3,31,1,1,,,,,
,0.04,,,,,,,,,f.PNG,f,6101930ddd5330f83b898c61,2021-10-20_09h51.33.416,forced_choiceRT,2021.1.2,Win32,59.59830741,,,,,,,,3,Ontime,f,1,1.9437,8,0,32,0,1,,,,,
,0.62,,,,,,,,,f.PNG,f,6101930ddd5330f83b898c61,2021-10-20_09h51.33.416,forced_choiceRT,2021.1.2,Win32,59.59830741,,,,,,,,3,Ontime,f,1,1.9362,8,1,33,0,1,,,,,
,1.52,,,,,,,,,g.PNG,g,6101930ddd5330f83b898c61,2021-10-20_09h51.33.416,forced_choiceRT,2021.1.2,Win32,59.59830741,,,,,,,,3,Ontime,g,1,2.0531,8,2,34,1,1,,,,,
,1.14,,,,,,,,,f.PNG,f,6101930ddd5330f83b898c61,2021-10-20_09h51.33.416,forced_choiceRT,2021.1.2,Win32,59.59830741,,,,,,,,3,Ontime,f,1,1.9706,8,3,35,0,1,,,,,
,0.79,,,,,,,,,f.PNG,f,6101930ddd5330f83b898c61,2021-10-20_09h51.33.416,forced_choiceRT,2021.1.2,Win32,59.59830741,,,,,,,,3,Ontime,f,1,1.9914,9,0,36,0,1,,,,,
,1.86,,,,,,,,,g.PNG,g,6101930ddd5330f83b898c61,2021-10-20_09h51.33.416,forced_choiceRT,2021.1.2,Win32,59.59830741,,,,,,,,3,Ontime,h,0,2.0904,9,1,37,1,1,,,,,
,1.38,,,,,,,,,j.PNG,j,6101930ddd5330f83b898c61,2021-10-20_09h51.33.416,forced_choiceRT,2021.1.2,Win32,59.59830741,,,,,,,,3,Ontime,j,1,2.058,9,2,38,3,1,,,,,
,0.88,,,,,,,,,g.PNG,g,6101930ddd5330f83b898c61,2021-10-20_09h51.33.416,forced_choiceRT,2021.1.2,Win32,59.59830741,,,,,,,,3,Ontime,g,1,2.0031,9,3,39,1,1,,,,,
,,,,,,,,,,,,6101930ddd5330f83b898c61,2021-10-20_09h51.33.416,forced_choiceRT,2021.1.2,Win32,59.59830741,,,,,,,,,,,,,,,,,,2,0,2,0,1
,1.55,,,,,,,,,f.PNG,f,6101930ddd5330f83b898c61,2021-10-20_09h51.33.416,forced_choiceRT,2021.1.2,Win32,59.59830741,,,,,,,,4,Ontime,f,1,2.0902,0,0,0,0,1,,,,,
,0.5,,,,,,,,,g.PNG,g,6101930ddd5330f83b898c61,2021-10-20_09h51.33.416,forced_choiceRT,2021.1.2,Win32,59.59830741,,,,,,,,4,Ontime,g,1,2.0028,0,1,1,1,1,,,,,
,1.91,,,,,,,,,h.PNG,h,6101930ddd5330f83b898c61,2021-10-20_09h51.33.416,forced_choiceRT,2021.1.2,Win32,59.59830741,,,,,,,,4,Ontime,h,1,2.0596,0,2,2,2,1,,,,,
,0.37,,,,,,,,,j.PNG,j,6101930ddd5330f83b898c61,2021-10-20_09h51.33.416,forced_choiceRT,2021.1.2,Win32,59.59830741,,,,,,,,4,Ontime,j,1,2.0122,0,3,3,3,1,,,,,
,0.8,,,,,,,,,g.PNG,g,6101930ddd5330f83b898c61,2021-10-20_09h51.33.416,forced_choiceRT,2021.1.2,Win32,59.59830741,,,,,,,,4,Ontime,g,1,2.0067,1,0,4,1,1,,,,,
,1.33,,,,,,,,,j.PNG,j,6101930ddd5330f83b898c61,2021-10-20_09h51.33.416,forced_choiceRT,2021.1.2,Win32,59.59830741,,,,,,,,4,Ontime,j,1,1.9932,1,1,5,3,1,,,,,
,1.33,,,,,,,,,j.PNG,j,6101930ddd5330f83b898c61,2021-10-20_09h51.33.416,forced_choiceRT,2021.1.2,Win32,59.59830741,,,,,,,,4,Ontime,j,1,2.0286,1,2,6,3,1,,,,,
,1.41,,,,,,,,,g.PNG,g,6101930ddd5330f83b898c61,2021-10-20_09h51.33.416,forced_choiceRT,2021.1.2,Win32,59.59830741,,,,,,,,4,Ontime,g,1,2.0307,1,3,7,1,1,,,,,
,0.4,,,,,,,,,h.PNG,h,6101930ddd5330f83b898c61,2021-10-20_09h51.33.416,forced_choiceRT,2021.1.2,Win32,59.59830741,,,,,,,,4,Ontime,h,1,1.9866,2,0,8,2,1,,,,,
,0.76,,,,,,,,,g.PNG,g,6101930ddd5330f83b898c61,2021-10-20_09h51.33.416,forced_choiceRT,2021.1.2,Win32,59.59830741,,,,,,,,4,Ontime,g,1,1.9797,2,1,9,1,1,,,,,
,0.8,,,,,,,,,g.PNG,g,6101930ddd5330f83b898c61,2021-10-20_09h51.33.416,forced_choiceRT,2021.1.2,Win32,59.59830741,,,,,,,,4,Ontime,g,1,1.9364,2,2,10,1,1,,,,,
,0.26,,,,,,,,,g.PNG,g,6101930ddd5330f83b898c61,2021-10-20_09h51.33.416,forced_choiceRT,2021.1.2,Win32,59.59830741,,,,,,,,4,Ontime,g,1,1.9092,2,3,11,1,1,,,,,
,1.67,,,,,,,,,h.PNG,h,6101930ddd5330f83b898c61,2021-10-20_09h51.33.416,forced_choiceRT,2021.1.2,Win32,59.59830741,,,,,,,,4,Slow,h,1,2.124,3,0,12,2,1,,,,,
,1.76,,,,,,,,,h.PNG,h,6101930ddd5330f83b898c61,2021-10-20_09h51.33.416,forced_choiceRT,2021.1.2,Win32,59.59830741,,,,,,,,4,Ontime,h,1,1.9696,3,1,13,2,1,,,,,
,0.86,,,,,,,,,f.PNG,f,6101930ddd5330f83b898c61,2021-10-20_09h51.33.416,forced_choiceRT,2021.1.2,Win32,59.59830741,,,,,,,,4,Ontime,f,1,1.9734,3,2,14,0,1,,,,,
,1.98,,,,,,,,,j.PNG,j,6101930ddd5330f83b898c61,2021-10-20_09h51.33.416,forced_choiceRT,2021.1.2,Win32,59.59830741,,,,,,,,4,Ontime,g,0,2.0856,3,3,15,3,1,,,,,
,1.44,,,,,,,,,h.PNG,h,6101930ddd5330f83b898c61,2021-10-20_09h51.33.416,forced_choiceRT,2021.1.2,Win32,59.59830741,,,,,,,,4,Ontime,h,1,2.0727,4,0,16,2,1,,,,,
,1.85,,,,,,,,,j.PNG,j,6101930ddd5330f83b898c61,2021-10-20_09h51.33.416,forced_choiceRT,2021.1.2,Win32,59.59830741,,,,,,,,4,Slow,j,1,2.1046,4,1,17,3,1,,,,,
,0.02,,,,,,,,,g.PNG,g,6101930ddd5330f83b898c61,2021-10-20_09h51.33.416,forced_choiceRT,2021.1.2,Win32,59.59830741,,,,,,,,4,Ontime,g,1,1.991,4,2,18,1,1,,,,,
,1.03,,,,,,,,,h.PNG,h,6101930ddd5330f83b898c61,2021-10-20_09h51.33.416,forced_choiceRT,2021.1.2,Win32,59.59830741,,,,,,,,4,Ontime,h,1,1.9947,4,3,19,2,1,,,,,
,0.21,,,,,,,,,f.PNG,f,6101930ddd5330f83b898c61,2021-10-20_09h51.33.416,forced_choiceRT,2021.1.2,Win32,59.59830741,,,,,,,,4,Ontime,f,1,2.019,5,0,20,0,1,,,,,
,1.8,,,,,,,,,f.PNG,f,6101930ddd5330f83b898c61,2021-10-20_09h51.33.416,forced_choiceRT,2021.1.2,Win32,59.59830741,,,,,,,,4,Ontime,g,0,2.0365,5,1,21,0,1,,,,,
,1.86,,,,,,,,,h.PNG,h,6101930ddd5330f83b898c61,2021-10-20_09h51.33.416,forced_choiceRT,2021.1.2,Win32,59.59830741,,,,,,,,4,Ontime,h,1,2.0256,5,2,22,2,1,,,,,
,0.13,,,,,,,,,g.PNG,g,6101930ddd5330f83b898c61,2021-10-20_09h51.33.416,forced_choiceRT,2021.1.2,Win32,59.59830741,,,,,,,,4,Ontime,g,1,1.9802,5,3,23,1,1,,,,,
,0.65,,,,,,,,,h.PNG,h,6101930ddd5330f83b898c61,2021-10-20_09h51.33.416,forced_choiceRT,2021.1.2,Win32,59.59830741,,,,,,,,4,Ontime,h,1,2.0024,6,0,24,2,1,,,,,
,0.83,,,,,,,,,j.PNG,j,6101930ddd5330f83b898c61,2021-10-20_09h51.33.416,forced_choiceRT,2021.1.2,Win32,59.59830741,,,,,,,,4,Ontime,j,1,2.0589,6,1,25,3,1,,,,,
,1,,,,,,,,,f.PNG,f,6101930ddd5330f83b898c61,2021-10-20_09h51.33.416,forced_choiceRT,2021.1.2,Win32,59.59830741,,,,,,,,4,Ontime,f,1,2.0202,6,2,26,0,1,,,,,
,0.89,,,,,,,,,f.PNG,f,6101930ddd5330f83b898c61,2021-10-20_09h51.33.416,forced_choiceRT,2021.1.2,Win32,59.59830741,,,,,,,,4,Ontime,f,1,1.9417,6,3,27,0,1,,,,,
,0.11,,,,,,,,,j.PNG,j,6101930ddd5330f83b898c61,2021-10-20_09h51.33.416,forced_choiceRT,2021.1.2,Win32,59.59830741,,,,,,,,4,Ontime,j,1,2.0107,7,0,28,3,1,,,,,
,0.25,,,,,,,,,f.PNG,f,6101930ddd5330f83b898c61,2021-10-20_09h51.33.416,forced_choiceRT,2021.1.2,Win32,59.59830741,,,,,,,,4,Ontime,f,1,1.9576,7,1,29,0,1,,,,,
,1.04,,,,,,,,,j.PNG,j,6101930ddd5330f83b898c61,2021-10-20_09h51.33.416,forced_choiceRT,2021.1.2,Win32,59.59830741,,,,,,,,4,Ontime,j,1,2.026,7,2,30,3,1,,,,,
,0.26,,,,,,,,,j.PNG,j,6101930ddd5330f83b898c61,2021-10-20_09h51.33.416,forced_choiceRT,2021.1.2,Win32,59.59830741,,,,,,,,4,Ontime,j,1,1.9883,7,3,31,3,1,,,,,
,0.23,,,,,,,,,j.PNG,j,6101930ddd5330f83b898c61,2021-10-20_09h51.33.416,forced_choiceRT,2021.1.2,Win32,59.59830741,,,,,,,,4,Ontime,j,1,2.0397,8,0,32,3,1,,,,,
,0.32,,,,,,,,,h.PNG,h,6101930ddd5330f83b898c61,2021-10-20_09h51.33.416,forced_choiceRT,2021.1.2,Win32,59.59830741,,,,,,,,4,Ontime,h,1,2.0359,8,1,33,2,1,,,,,
,0.04,,,,,,,,,g.PNG,g,6101930ddd5330f83b898c61,2021-10-20_09h51.33.416,forced_choiceRT,2021.1.2,Win32,59.59830741,,,,,,,,4,Ontime,g,1,2.0027,8,2,34,1,1,,,,,
,1.53,,,,,,,,,f.PNG,f,6101930ddd5330f83b898c61,2021-10-20_09h51.33.416,forced_choiceRT,2021.1.2,Win32,59.59830741,,,,,,,,4,Ontime,f,1,2.0533,8,3,35,0,1,,,,,
,1.87,,,,,,,,,f.PNG,f,6101930ddd5330f83b898c61,2021-10-20_09h51.33.416,forced_choiceRT,2021.1.2,Win32,59.59830741,,,,,,,,4,Ontime,f,1,2.0453,9,0,36,0,1,,,,,
,1.76,,,,,,,,,h.PNG,h,6101930ddd5330f83b898c61,2021-10-20_09h51.33.416,forced_choiceRT,2021.1.2,Win32,59.59830741,,,,,,,,4,Ontime,h,1,2.0027,9,1,37,2,1,,,,,
,0.65,,,,,,,,,f.PNG,f,6101930ddd5330f83b898c61,2021-10-20_09h51.33.416,forced_choiceRT,2021.1.2,Win32,59.59830741,,,,,,,,4,Ontime,f,1,2.0528,9,2,38,0,1,,,,,
,1.47,,,,,,,,,g.PNG,g,6101930ddd5330f83b898c61,2021-10-20_09h51.33.416,forced_choiceRT,2021.1.2,Win32,59.59830741,,,,,,,,4,Ontime,g,1,2.0095,9,3,39,1,1,,,,,
,,,,,,,,,,,,6101930ddd5330f83b898c61,2021-10-20_09h51.33.416,forced_choiceRT,2021.1.2,Win32,59.59830741,,,,,,,,,,,,,,,,,,3,0,3,0,1
,0.34,,,,,,,,,h.PNG,h,6101930ddd5330f83b898c61,2021-10-20_09h51.33.416,forced_choiceRT,2021.1.2,Win32,59.59830741,,,,,,,,5,Ontime,h,1,1.9611,0,0,0,2,1,,,,,
,1.35,,,,,,,,,f.PNG,f,6101930ddd5330f83b898c61,2021-10-20_09h51.33.416,forced_choiceRT,2021.1.2,Win32,59.59830741,,,,,,,,5,Ontime,f,1,2.019,0,1,1,0,1,,,,,
,1.59,,,,,,,,,h.PNG,h,6101930ddd5330f83b898c61,2021-10-20_09h51.33.416,forced_choiceRT,2021.1.2,Win32,59.59830741,,,,,,,,5,Ontime,g,0,1.9366,0,2,2,2,1,,,,,
,0.22,,,,,,,,,f.PNG,f,6101930ddd5330f83b898c61,2021-10-20_09h51.33.416,forced_choiceRT,2021.1.2,Win32,59.59830741,,,,,,,,5,Ontime,f,1,1.9695,0,3,3,0,1,,,,,
,1.39,,,,,,,,,g.PNG,g,6101930ddd5330f83b898c61,2021-10-20_09h51.33.416,forced_choiceRT,2021.1.2,Win32,59.59830741,,,,,,,,5,Ontime,g,1,2.0363,1,0,4,1,1,,,,,
,0.61,,,,,,,,,g.PNG,g,6101930ddd5330f83b898c61,2021-10-20_09h51.33.416,forced_choiceRT,2021.1.2,Win32,59.59830741,,,,,,,,5,Ontime,g,1,2.0024,1,1,5,1,1,,,,,
,0.92,,,,,,,,,j.PNG,j,6101930ddd5330f83b898c61,2021-10-20_09h51.33.416,forced_choiceRT,2021.1.2,Win32,59.59830741,,,,,,,,5,Ontime,j,1,2.0625,1,2,6,3,1,,,,,
,0.82,,,,,,,,,j.PNG,j,6101930ddd5330f83b898c61,2021-10-20_09h51.33.416,forced_choiceRT,2021.1.2,Win32,59.59830741,,,,,,,,5,Ontime,j,1,2.0031,1,3,7,3,1,,,,,
,0.75,,,,,,,,,g.PNG,g,6101930ddd5330f83b898c61,2021-10-20_09h51.33.416,forced_choiceRT,2021.1.2,Win32,59.59830741,,,,,,,,5,Ontime,g,1,1.9939,2,0,8,1,1,,,,,
,1.59,,,,,,,,,f.PNG,f,6101930ddd5330f83b898c61,2021-10-20_09h51.33.416,forced_choiceRT,2021.1.2,Win32,59.59830741,,,,,,,,5,Slow,f,1,2.1579,2,1,9,0,1,,,,,
,1.7,,,,,,,,,h.PNG,h,6101930ddd5330f83b898c61,2021-10-20_09h51.33.416,forced_choiceRT,2021.1.2,Win32,59.59830741,,,,,,,,5,Ontime,g,0,2.0528,2,2,10,2,1,,,,,
,1.19,,,,,,,,,f.PNG,f,6101930ddd5330f83b898c61,2021-10-20_09h51.33.416,forced_choiceRT,2021.1.2,Win32,59.59830741,,,,,,,,5,Ontime,f,1,1.9863,2,3,11,0,1,,,,,
,0.31,,,,,,,,,j.PNG,j,6101930ddd5330f83b898c61,2021-10-20_09h51.33.416,forced_choiceRT,2021.1.2,Win32,59.59830741,,,,,,,,5,Ontime,j,1,1.9522,3,0,12,3,1,,,,,
,1.94,,,,,,,,,f.PNG,f,6101930ddd5330f83b898c61,2021-10-20_09h51.33.416,forced_choiceRT,2021.1.2,Win32,59.59830741,,,,,,,,5,Ontime,h,0,2.0423,3,1,13,0,1,,,,,
,1.92,,,,,,,,,j.PNG,j,6101930ddd5330f83b898c61,2021-10-20_09h51.33.416,forced_choiceRT,2021.1.2,Win32,59.59830741,,,,,,,,5,Ontime,g,0,2.0916,3,2,14,3,1,,,,,
,0.34,,,,,,,,,j.PNG,j,6101930ddd5330f83b898c61,2021-10-20_09h51.33.416,forced_choiceRT,2021.1.2,Win32,59.59830741,,,,,,,,5,Ontime,j,1,1.9546,3,3,15,3,1,,,,,
,1.27,,,,,,,,,h.PNG,h,6101930ddd5330f83b898c61,2021-10-20_09h51.33.416,forced_choiceRT,2021.1.2,Win32,59.59830741,,,,,,,,5,Ontime,h,1,2.0713,4,0,16,2,1,,,,,
,1.43,,,,,,,,,h.PNG,h,6101930ddd5330f83b898c61,2021-10-20_09h51.33.416,forced_choiceRT,2021.1.2,Win32,59.59830741,,,,,,,,5,Ontime,h,1,2.0357,4,1,17,2,1,,,,,
,0.52,,,,,,,,,g.PNG,g,6101930ddd5330f83b898c61,2021-10-20_09h51.33.416,forced_choiceRT,2021.1.2,Win32,59.59830741,,,,,,,,5,Ontime,g,1,2.0409,4,2,18,1,1,,,,,
,0.43,,,,,,,,,h.PNG,h,6101930ddd5330f83b898c61,2021-10-20_09h51.33.416,forced_choiceRT,2021.1.2,Win32,59.59830741,,,,,,,,5,Ontime,h,1,1.978,4,3,19,2,1,,,,,
,1.87,,,,,,,,,f.PNG,f,6101930ddd5330f83b898c61,2021-10-20_09h51.33.416,forced_choiceRT,2021.1.2,Win32,59.59830741,,,,,,,,5,Ontime,h,0,2.0299,5,0,20,0,1,,,,,
,1.11,,,,,,,,,j.PNG,j,6101930ddd5330f83b898c61,2021-10-20_09h51.33.416,forced_choiceRT,2021.1.2,Win32,59.59830741,,,,,,,,5,Ontime,j,1,2.0554,5,1,21,3,1,,,,,
,1,,,,,,,,,j.PNG,j,6101930ddd5330f83b898c61,2021-10-20_09h51.33.416,forced_choiceRT,2021.1.2,Win32,59.59830741,,,,,,,,5,Ontime,j,1,1.9933,5,2,22,3,1,,,,,
,0.86,,,,,,,,,f.PNG,f,6101930ddd5330f83b898c61,2021-10-20_09h51.33.416,forced_choiceRT,2021.1.2,Win32,59.59830741,,,,,,,,5,Ontime,f,1,1.9198,5,3,23,0,1,,,,,
,1.95,,,,,,,,,g.PNG,g,6101930ddd5330f83b898c61,2021-10-20_09h51.33.416,forced_choiceRT,2021.1.2,Win32,59.59830741,,,,,,,,5,Slow,g,1,2.17,6,0,24,1,1,,,,,
,0.85,,,,,,,,,g.PNG,g,6101930ddd5330f83b898c61,2021-10-20_09h51.33.416,forced_choiceRT,2021.1.2,Win32,59.59830741,,,,,,,,5,Ontime,g,1,1.9689,6,1,25,1,1,,,,,
,0.38,,,,,,,,,g.PNG,g,6101930ddd5330f83b898c61,2021-10-20_09h51.33.416,forced_choiceRT,2021.1.2,Win32,59.59830741,,,,,,,,5,Ontime,g,1,1.9296,6,2,26,1,1,,,,,
,0.51,,,,,,,,,j.PNG,j,6101930ddd5330f83b898c61,2021-10-20_09h51.33.416,forced_choiceRT,2021.1.2,Win32,59.59830741,,,,,,,,5,Ontime,j,1,1.9359,6,3,27,3,1,,,,,
,0.92,,,,,,,,,f.PNG,f,6101930ddd5330f83b898c61,2021-10-20_09h51.33.416,forced_choiceRT,2021.1.2,Win32,59.59830741,,,,,,,,5,Ontime,f,1,1.9246,7,0,28,0,1,,,,,
,0.5,,,,,,,,,g.PNG,g,6101930ddd5330f83b898c61,2021-10-20_09h51.33.416,forced_choiceRT,2021.1.2,Win32,59.59830741,,,,,,,,5,Ontime,g,1,1.9069,7,1,29,1,1,,,,,
,0.29,,,,,,,,,h.PNG,h,6101930ddd5330f83b898c61,2021-10-20_09h51.33.416,forced_choiceRT,2021.1.2,Win32,59.59830741,,,,,,,,5,Ontime,h,1,1.9219,7,2,30,2,1,,,,,
,0.09,,,,,,,,,g.PNG,g,6101930ddd5330f83b898c61,2021-10-20_09h51.33.416,forced_choiceRT,2021.1.2,Win32,59.59830741,,,,,,,,5,Fast,g,1,1.6525,7,3,31,1,1,,,,,
,0.83,,,,,,,,,j.PNG,j,6101930ddd5330f83b898c61,2021-10-20_09h51.33.416,forced_choiceRT,2021.1.2,Win32,59.59830741,,,,,,,,5,Ontime,j,1,2.0022,8,0,32,3,1,,,,,
,1.43,,,,,,,,,h.PNG,h,6101930ddd5330f83b898c61,2021-10-20_09h51.33.416,forced_choiceRT,2021.1.2,Win32,59.59830741,,,,,,,,5,Ontime,h,1,2.0531,8,1,33,2,1,,,,,
,1.91,,,,,,,,,h.PNG,h,6101930ddd5330f83b898c61,2021-10-20_09h51.33.416,forced_choiceRT,2021.1.2,Win32,59.59830741,,,,,,,,5,Ontime,f,0,1.9964,8,2,34,2,1,,,,,
,1.68,,,,,,,,,f.PNG,f,6101930ddd5330f83b898c61,2021-10-20_09h51.33.416,forced_choiceRT,2021.1.2,Win32,59.59830741,,,,,,,,5,Ontime,h,0,1.944,8,3,35,0,1,,,,,
,0.04,,,,,,,,,g.PNG,g,6101930ddd5330f83b898c61,2021-10-20_09h51.33.416,forced_choiceRT,2021.1.2,Win32,59.59830741,,,,,,,,5,Ontime,g,1,2.0371,9,0,36,1,1,,,,,
,1.75,,,,,,,,,j.PNG,j,6101930ddd5330f83b898c61,2021-10-20_09h51.33.416,forced_choiceRT,2021.1.2,Win32,59.59830741,,,,,,,,5,Ontime,j,1,1.9908,9,1,37,3,1,,,,,
,1.12,,,,,,,,,h.PNG,h,6101930ddd5330f83b898c61,2021-10-20_09h51.33.416,forced_choiceRT,2021.1.2,Win32,59.59830741,,,,,,,,5,Ontime,h,1,2.0578,9,2,38,2,1,,,,,
,0.16,,,,,,,,,f.PNG,f,6101930ddd5330f83b898c61,2021-10-20_09h51.33.416,forced_choiceRT,2021.1.2,Win32,59.59830741,,,,,,,,5,Ontime,f,1,1.9385,9,3,39,0,1,,,,,
,,,,,,,,,,,,6101930ddd5330f83b898c61,2021-10-20_09h51.33.416,forced_choiceRT,2021.1.2,Win32,59.59830741,,,,,,,,,,,,,,,,,,4,0,4,0,1
,0.22,,,,,,,,,f.PNG,f,6101930ddd5330f83b898c61,2021-10-20_09h51.33.416,forced_choiceRT,2021.1.2,Win32,59.59830741,,,,,,,,6,Ontime,f,1,1.9863,0,0,0,0,1,,,,,
,0.28,,,,,,,,,j.PNG,j,6101930ddd5330f83b898c61,2021-10-20_09h51.33.416,forced_choiceRT,2021.1.2,Win32,59.59830741,,,,,,,,6,Ontime,j,1,1.963,0,1,1,3,1,,,,,
,1.26,,,,,,,,,h.PNG,h,6101930ddd5330f83b898c61,2021-10-20_09h51.33.416,forced_choiceRT,2021.1.2,Win32,59.59830741,,,,,,,,6,Ontime,h,1,2.0362,0,2,2,2,1,,,,,
,0.18,,,,,,,,,g.PNG,g,6101930ddd5330f83b898c61,2021-10-20_09h51.33.416,forced_choiceRT,2021.1.2,Win32,59.59830741,,,,,,,,6,Ontime,g,1,2.0029,0,3,3,1,1,,,,,
,0.54,,,,,,,,,f.PNG,f,6101930ddd5330f83b898c61,2021-10-20_09h51.33.416,forced_choiceRT,2021.1.2,Win32,59.59830741,,,,,,,,6,Ontime,f,1,2.0199,1,0,4,0,1,,,,,
,0.53,,,,,,,,,f.PNG,f,6101930ddd5330f83b898c61,2021-10-20_09h51.33.416,forced_choiceRT,2021.1.2,Win32,59.59830741,,,,,,,,6,Ontime,f,1,2.0694,1,1,5,0,1,,,,,
,1.3,,,,,,,,,j.PNG,j,6101930ddd5330f83b898c61,2021-10-20_09h51.33.416,forced_choiceRT,2021.1.2,Win32,59.59830741,,,,,,,,6,Ontime,j,1,2.0288,1,2,6,3,1,,,,,
,1.01,,,,,,,,,h.PNG,h,6101930ddd5330f83b898c61,2021-10-20_09h51.33.416,forced_choiceRT,2021.1.2,Win32,59.59830741,,,,,,,,6,Ontime,h,1,2.0028,1,3,7,2,1,,,,,
,0.14,,,,,,,,,h.PNG,h,6101930ddd5330f83b898c61,2021-10-20_09h51.33.416,forced_choiceRT,2021.1.2,Win32,59.59830741,,,,,,,,6,Ontime,h,1,2.0027,2,0,8,2,1,,,,,
,1.39,,,,,,,,,g.PNG,g,6101930ddd5330f83b898c61,2021-10-20_09h51.33.416,forced_choiceRT,2021.1.2,Win32,59.59830741,,,,,,,,6,Ontime,g,1,2.0527,2,1,9,1,1,,,,,
,0.61,,,,,,,,,g.PNG,g,6101930ddd5330f83b898c61,2021-10-20_09h51.33.416,forced_choiceRT,2021.1.2,Win32,59.59830741,,,,,,,,6,Ontime,g,1,2.0703,2,2,10,1,1,,,,,
,0.61,,,,,,,,,h.PNG,h,6101930ddd5330f83b898c61,2021-10-20_09h51.33.416,forced_choiceRT,2021.1.2,Win32,59.59830741,,,,,,,,6,Ontime,h,1,1.986,2,3,11,2,1,,,,,
,0.94,,,,,,,,,f.PNG,f,6101930ddd5330f83b898c61,2021-10-20_09h51.33.416,forced_choiceRT,2021.1.2,Win32,59.59830741,,,,,,,,6,Ontime,f,1,2.0192,3,0,12,0,1,,,,,
,0.9,,,,,,,,,j.PNG,j,6101930ddd5330f83b898c61,2021-10-20_09h51.33.416,forced_choiceRT,2021.1.2,Win32,59.59830741,,,,,,,,6,Ontime,j,1,1.9787,3,1,13,3,1,,,,,
,0.13,,,,,,,,,h.PNG,h,6101930ddd5330f83b898c61,2021-10-20_09h51.33.416,forced_choiceRT,2021.1.2,Win32,59.59830741,,,,,,,,6,Ontime,h,1,2.0231,3,2,14,2,1,,,,,
,0.17,,,,,,,,,f.PNG,f,6101930ddd5330f83b898c61,2021-10-20_09h51.33.416,forced_choiceRT,2021.1.2,Win32,59.59830741,,,,,,,,6,Ontime,f,1,2.0195,3,3,15,0,1,,,,,
,1,,,,,,,,,g.PNG,g,6101930ddd5330f83b898c61,2021-10-20_09h51.33.416,forced_choiceRT,2021.1.2,Win32,59.59830741,,,,,,,,6,Ontime,g,1,2.0364,4,0,16,1,1,,,,,
,0.19,,,,,,,,,g.PNG,g,6101930ddd5330f83b898c61,2021-10-20_09h51.33.416,forced_choiceRT,2021.1.2,Win32,59.59830741,,,,,,,,6,Ontime,g,1,2.0121,4,1,17,1,1,,,,,
,0.07,,,,,,,,,j.PNG,j,6101930ddd5330f83b898c61,2021-10-20_09h51.33.416,forced_choiceRT,2021.1.2,Win32,59.59830741,,,,,,,,6,Ontime,j,1,2.0461,4,2,18,3,1,,,,,
,1.77,,,,,,,,,j.PNG,j,6101930ddd5330f83b898c61,2021-10-20_09h51.33.416,forced_choiceRT,2021.1.2,Win32,59.59830741,,,,,,,,6,Ontime,g,0,2.0031,4,3,19,3,1,,,,,
,1.83,,,,,,,,,h.PNG,h,6101930ddd5330f83b898c61,2021-10-20_09h51.33.416,forced_choiceRT,2021.1.2,Win32,59.59830741,,,,,,,,6,Ontime,h,1,2.0427,5,0,20,2,1,,,,,
,1.82,,,,,,,,,f.PNG,f,6101930ddd5330f83b898c61,2021-10-20_09h51.33.416,forced_choiceRT,2021.1.2,Win32,59.59830741,,,,,,,,6,Ontime,g,0,2.0699,5,1,21,0,1,,,,,
,0.34,,,,,,,,,g.PNG,g,6101930ddd5330f83b898c61,2021-10-20_09h51.33.416,forced_choiceRT,2021.1.2,Win32,59.59830741,,,,,,,,6,Ontime,g,1,2.02,5,2,22,1,1,,,,,
,1.25,,,,,,,,,j.PNG,j,6101930ddd5330f83b898c61,2021-10-20_09h51.33.416,forced_choiceRT,2021.1.2,Win32,59.59830741,,,,,,,,6,Fast,j,1,1.8534,5,3,23,3,1,,,,,
,0.07,,,,,,,,,j.PNG,j,6101930ddd5330f83b898c61,2021-10-20_09h51.33.416,forced_choiceRT,2021.1.2,Win32,59.59830741,,,,,,,,6,Ontime,j,1,1.9866,6,0,24,3,1,,,,,
,0.02,,,,,,,,,j.PNG,j,6101930ddd5330f83b898c61,2021-10-20_09h51.33.416,forced_choiceRT,2021.1.2,Win32,59.59830741,,,,,,,,6,Ontime,j,1,2.0362,6,1,25,3,1,,,,,
,1.85,,,,,,,,,h.PNG,h,6101930ddd5330f83b898c61,2021-10-20_09h51.33.416,forced_choiceRT,2021.1.2,Win32,59.59830741,,,,,,,,6,Slow,j,0,2.1709,6,2,26,2,1,,,,,
,0.85,,,,,,,,,f.PNG,f,6101930ddd5330f83b898c61,2021-10-20_09h51.33.416,forced_choiceRT,2021.1.2,Win32,59.59830741,,,,,,,,6,Ontime,f,1,1.9858,6,3,27,0,1,,,,,
,1.56,,,,,,,,,f.PNG,f,6101930ddd5330f83b898c61,2021-10-20_09h51.33.416,forced_choiceRT,2021.1.2,Win32,59.59830741,,,,,,,,6,Slow,f,1,2.1061,7,0,28,0,1,,,,,
,0.76,,,,,,,,,h.PNG,h,6101930ddd5330f83b898c61,2021-10-20_09h51.33.416,forced_choiceRT,2021.1.2,Win32,59.59830741,,,,,,,,6,Ontime,h,1,2.0248,7,1,29,2,1,,,,,
,0.15,,,,,,,,,g.PNG,g,6101930ddd5330f83b898c61,2021-10-20_09h51.33.416,forced_choiceRT,2021.1.2,Win32,59.59830741,,,,,,,,6,Ontime,g,1,1.9783,7,2,30,1,1,,,,,
,0.92,,,,,,,,,g.PNG,g,6101930ddd5330f83b898c61,2021-10-20_09h51.33.416,forced_choiceRT,2021.1.2,Win32,59.59830741,,,,,,,,6,Ontime,g,1,2.0308,7,3,31,1,1,,,,,
,0.47,,,,,,,,,j.PNG,j,6101930ddd5330f83b898c61,2021-10-20_09h51.33.416,forced_choiceRT,2021.1.2,Win32,59.59830741,,,,,,,,6,Ontime,j,1,2.0194,8,0,32,3,1,,,,,
,1.13,,,,,,,,,h.PNG,h,6101930ddd5330f83b898c61,2021-10-20_09h51.33.416,forced_choiceRT,2021.1.2,Win32,59.59830741,,,,,,,,6,Ontime,h,1,2.0107,8,1,33,2,1,,,,,
,0.9,,,,,,,,,f.PNG,f,6101930ddd5330f83b898c61,2021-10-20_09h51.33.416,forced_choiceRT,2021.1.2,Win32,59.59830741,,,,,,,,6,Ontime,f,1,1.986,8,2,34,0,1,,,,,
,0.67,,,,,,,,,g.PNG,g,6101930ddd5330f83b898c61,2021-10-20_09h51.33.416,forced_choiceRT,2021.1.2,Win32,59.59830741,,,,,,,,6,Ontime,g,1,1.9614,8,3,35,1,1,,,,,
,0.32,,,,,,,,,h.PNG,h,6101930ddd5330f83b898c61,2021-10-20_09h51.33.416,forced_choiceRT,2021.1.2,Win32,59.59830741,,,,,,,,6,Ontime,h,1,1.9971,9,0,36,2,1,,,,,
,0.51,,,,,,,,,f.PNG,f,6101930ddd5330f83b898c61,2021-10-20_09h51.33.416,forced_choiceRT,2021.1.2,Win32,59.59830741,,,,,,,,6,Ontime,f,1,1.9202,9,1,37,0,1,,,,,
,0.31,,,,,,,,,j.PNG,j,6101930ddd5330f83b898c61,2021-10-20_09h51.33.416,forced_choiceRT,2021.1.2,Win32,59.59830741,,,,,,,,6,Ontime,j,1,1.9744,9,2,38,3,1,,,,,
,1.09,,,,,,,,,g.PNG,g,6101930ddd5330f83b898c61,2021-10-20_09h51.33.416,forced_choiceRT,2021.1.2,Win32,59.59830741,,,,,,,,6,Ontime,g,1,1.9623,9,3,39,1,1,,,,,
,,,,,,,,,,,,6101930ddd5330f83b898c61,2021-10-20_09h51.33.416,forced_choiceRT,2021.1.2,Win32,59.59830741,,,,,,,,,,,,,,,,,,5,0,5,0,1
,0.48,,,,,,,,,h.PNG,h,6101930ddd5330f83b898c61,2021-10-20_09h51.33.416,forced_choiceRT,2021.1.2,Win32,59.59830741,,,,,,,,7,Ontime,h,1,1.9572,0,0,0,2,1,,,,,
,1.44,,,,,,,,,h.PNG,h,6101930ddd5330f83b898c61,2021-10-20_09h51.33.416,forced_choiceRT,2021.1.2,Win32,59.59830741,,,,,,,,7,Ontime,h,1,1.9934,0,1,1,2,1,,,,,
,0.78,,,,,,,,,h.PNG,h,6101930ddd5330f83b898c61,2021-10-20_09h51.33.416,forced_choiceRT,2021.1.2,Win32,59.59830741,,,,,,,,7,Fast,h,1,1.5408,0,2,2,2,1,,,,,
,0.72,,,,,,,,,f.PNG,f,6101930ddd5330f83b898c61,2021-10-20_09h51.33.416,forced_choiceRT,2021.1.2,Win32,59.59830741,,,,,,,,7,Ontime,f,1,2.0116,0,3,3,0,1,,,,,
,1.6,,,,,,,,,j.PNG,j,6101930ddd5330f83b898c61,2021-10-20_09h51.33.416,forced_choiceRT,2021.1.2,Win32,59.59830741,,,,,,,,7,Ontime,j,1,2.0614,1,0,4,3,1,,,,,
,1.11,,,,,,,,,g.PNG,g,6101930ddd5330f83b898c61,2021-10-20_09h51.33.416,forced_choiceRT,2021.1.2,Win32,59.59830741,,,,,,,,7,Ontime,g,1,1.9737,1,1,5,1,1,,,,,
,0.25,,,,,,,,,j.PNG,j,6101930ddd5330f83b898c61,2021-10-20_09h51.33.416,forced_choiceRT,2021.1.2,Win32,59.59830741,,,,,,,,7,Ontime,j,1,1.9376,1,2,6,3,1,,,,,
,0.6,,,,,,,,,f.PNG,f,6101930ddd5330f83b898c61,2021-10-20_09h51.33.416,forced_choiceRT,2021.1.2,Win32,59.59830741,,,,,,,,7,Ontime,f,1,2.0712,1,3,7,0,1,,,,,
,1.81,,,,,,,,,g.PNG,g,6101930ddd5330f83b898c61,2021-10-20_09h51.33.416,forced_choiceRT,2021.1.2,Win32,59.59830741,,,,,,,,7,Ontime,j,0,2.039,2,0,8,1,1,,,,,
,1.42,,,,,,,,,j.PNG,j,6101930ddd5330f83b898c61,2021-10-20_09h51.33.416,forced_choiceRT,2021.1.2,Win32,59.59830741,,,,,,,,7,Ontime,j,1,2.0692,2,1,9,3,1,,,,,
,0.68,,,,,,,,,j.PNG,j,6101930ddd5330f83b898c61,2021-10-20_09h51.33.416,forced_choiceRT,2021.1.2,Win32,59.59830741,,,,,,,,7,Slow,j,1,2.1049,2,2,10,3,1,,,,,
,1.93,,,,,,,,,g.PNG,g,6101930ddd5330f83b898c61,2021-10-20_09h51.33.416,forced_choiceRT,2021.1.2,Win32,59.59830741,,,,,,,,7,Ontime,g,1,1.969,2,3,11,1,1,,,,,
,0.72,,,,,,,,,h.PNG,h,6101930ddd5330f83b898c61,2021-10-20_09h51.33.416,forced_choiceRT,2021.1.2,Win32,59.59830741,,,,,,,,7,Ontime,h,1,2.0266,3,0,12,2,1,,,,,
,0.31,,,,,,,,,f.PNG,f,6101930ddd5330f83b898c61,2021-10-20_09h51.33.416,forced_choiceRT,2021.1.2,Win32,59.59830741,,,,,,,,7,Ontime,f,1,1.9415,3,1,13,0,1,,,,,
,0.26,,,,,,,,,g.PNG,g,6101930ddd5330f83b898c61,2021-10-20_09h51.33.416,forced_choiceRT,2021.1.2,Win32,59.59830741,,,,,,,,7,Ontime,g,1,1.9028,3,2,14,1,1,,,,,
,0.17,,,,,,,,,f.PNG,f,6101930ddd5330f83b898c61,2021-10-20_09h51.33.416,forced_choiceRT,2021.1.2,Win32,59.59830741,,,,,,,,7,Ontime,f,1,1.9453,3,3,15,0,1,,,,,
,1.59,,,,,,,,,f.PNG,f,6101930ddd5330f83b898c61,2021-10-20_09h51.33.416,forced_choiceRT,2021.1.2,Win32,59.59830741,,,,,,,,7,Ontime,g,0,1.959,4,0,16,0,1,,,,,
,0.78,,,,,,,,,j.PNG,j,6101930ddd5330f83b898c61,2021-10-20_09h51.33.416,forced_choiceRT,2021.1.2,Win32,59.59830741,,,,,,,,7,Ontime,j,1,2.0039,4,1,17,3,1,,,,,
,1.07,,,,,,,,,f.PNG,f,6101930ddd5330f83b898c61,2021-10-20_09h51.33.416,forced_choiceRT,2021.1.2,Win32,59.59830741,,,,,,,,7,Ontime,f,1,1.9581,4,2,18,0,1,,,,,
,0.21,,,,,,,,,h.PNG,h,6101930ddd5330f83b898c61,2021-10-20_09h51.33.416,forced_choiceRT,2021.1.2,Win32,59.59830741,,,,,,,,7,Ontime,h,1,1.9229,4,3,19,2,1,,,,,
,0.75,,,,,,,,,g.PNG,g,6101930ddd5330f83b898c61,2021-10-20_09h51.33.416,forced_choiceRT,2021.1.2,Win32,59.59830741,,,,,,,,7,Ontime,g,1,1.9926,5,0,20,1,1,,,,,
,0.92,,,,,,,,,j.PNG,j,6101930ddd5330f83b898c61,2021-10-20_09h51.33.416,forced_choiceRT,2021.1.2,Win32,59.59830741,,,,,,,,7,Ontime,j,1,1.9557,5,1,21,3,1,,,,,
,1.67,,,,,,,,,g.PNG,g,6101930ddd5330f83b898c61,2021-10-20_09h51.33.416,forced_choiceRT,2021.1.2,Win32,59.59830741,,,,,,,,7,Ontime,h,0,2.0196,5,2,22,1,1,,,,,
,0.95,,,,,,,,,j.PNG,j,6101930ddd5330f83b898c61,2021-10-20_09h51.33.416,forced_choiceRT,2021.1.2,Win32,59.59830741,,,,,,,,7,Fast,j,1,1.5547,5,3,23,3,1,,,,,
,0.49,,,,,,,,,h.PNG,h,6101930ddd5330f83b898c61,2021-10-20_09h51.33.416,forced_choiceRT,2021.1.2,Win32,59.59830741,,,,,,,,7,Ontime,h,1,2.0959,6,0,24,2,1,,,,,
,0.43,,,,,,,,,f.PNG,f,6101930ddd5330f83b898c61,2021-10-20_09h51.33.416,forced_choiceRT,2021.1.2,Win32,59.59830741,,,,,,,,7,Ontime,f,1,2.036,6,1,25,0,1,,,,,
,1.99,,,,,,,,,h.PNG,h,6101930ddd5330f83b898c61,2021-10-20_09h51.33.416,forced_choiceRT,2021.1.2,Win32,59.59830741,,,,,,,,7,Slow,h,1,2.1855,6,2,26,2,1,,,,,
,1.31,,,,,,,,,g.PNG,g,6101930ddd5330f83b898c61,2021-10-20_09h51.33.416,forced_choiceRT,2021.1.2,Win32,59.59830741,,,,,,,,7,Ontime,g,1,1.9394,6,3,27,1,1,,,,,
,1.02,,,,,,,,,h.PNG,h,6101930ddd5330f83b898c61,2021-10-20_09h51.33.416,forced_choiceRT,2021.1.2,Win32,59.59830741,,,,,,,,7,Ontime,h,1,1.9451,7,0,28,2,1,,,,,
,1.37,,,,,,,,,g.PNG,g,6101930ddd5330f83b898c61,2021-10-20_09h51.33.416,forced_choiceRT,2021.1.2,Win32,59.59830741,,,,,,,,7,Ontime,g,1,2.0303,7,1,29,1,1,,,,,
,1.09,,,,,,,,,f.PNG,f,6101930ddd5330f83b898c61,2021-10-20_09h51.33.416,forced_choiceRT,2021.1.2,Win32,59.59830741,,,,,,,,7,Ontime,f,1,1.9523,7,2,30,0,1,,,,,
,1.18,,,,,,,,,j.PNG,j,6101930ddd5330f83b898c61,2021-10-20_09h51.33.416,forced_choiceRT,2021.1.2,Win32,59.59830741,,,,,,,,7,Ontime,j,1,1.9696,7,3,31,3,1,,,,,
,1.22,,,,,,,,,g.PNG,g,6101930ddd5330f83b898c61,2021-10-20_09h51.33.416,forced_choiceRT,2021.1.2,Win32,59.59830741,,,,,,,,7,Ontime,g,1,2.0363,8,0,32,1,1,,,,,
,1.66,,,,,,,,,j.PNG,j,6101930ddd5330f83b898c61,2021-10-20_09h51.33.416,forced_choiceRT,2021.1.2,Win32,59.59830741,,,,,,,,7,Ontime,h,0,1.9618,8,1,33,3,1,,,,,
,1.88,,,,,,,,,h.PNG,h,6101930ddd5330f83b898c61,2021-10-20_09h51.33.416,forced_choiceRT,2021.1.2,Win32,59.59830741,,,,,,,,7,Ontime,h,1,1.9908,8,2,34,2,1,,,,,
,1.76,,,,,,,,,j.PNG,j,6101930ddd5330f83b898c61,2021-10-20_09h51.33.416,forced_choiceRT,2021.1.2,Win32,59.59830741,,,,,,,,7,Ontime,g,0,1.9537,8,3,35,3,1,,,,,
,0.49,,,,,,,,,f.PNG,f,6101930ddd5330f83b898c61,2021-10-20_09h51.33.416,forced_choiceRT,2021.1.2,Win32,59.59830741,,,,,,,,7,Fast,f,1,1.8545,9,0,36,0,1,,,,,
,0.65,,,,,,,,,f.PNG,f,6101930ddd5330f83b898c61,2021-10-20_09h51.33.416,forced_choiceRT,2021.1.2,Win32,59.59830741,,,,,,,,7,Ontime,f,1,2.0361,9,1,37,0,1,,,,,
,0.35,,,,,,,,,g.PNG,g,6101930ddd5330f83b898c61,2021-10-20_09h51.33.416,forced_choiceRT,2021.1.2,Win32,59.59830741,,,,,,,,7,Ontime,g,1,1.9128,9,2,38,1,1,,,,,
,0.89,,,,,,,,,h.PNG,h,6101930ddd5330f83b898c61,2021-10-20_09h51.33.416,forced_choiceRT,2021.1.2,Win32,59.59830741,,,,,,,,7,Ontime,h,1,1.9753,9,3,39,2,1,,,,,
,,,,,,,,,,,,6101930ddd5330f83b898c61,2021-10-20_09h51.33.416,forced_choiceRT,2021.1.2,Win32,59.59830741,,,,,,,,,,,,,,,,,,6,0,6,0,1
,1.12,,,,,,,,,h.PNG,h,6101930ddd5330f83b898c61,2021-10-20_09h51.33.416,forced_choiceRT,2021.1.2,Win32,59.59830741,,,,,,,,8,Ontime,h,1,2.0258,0,0,0,2,1,,,,,
,1.57,,,,,,,,,j.PNG,j,6101930ddd5330f83b898c61,2021-10-20_09h51.33.416,forced_choiceRT,2021.1.2,Win32,59.59830741,,,,,,,,8,Ontime,h,0,1.9959,0,1,1,3,1,,,,,
,0.3,,,,,,,,,h.PNG,h,6101930ddd5330f83b898c61,2021-10-20_09h51.33.416,forced_choiceRT,2021.1.2,Win32,59.59830741,,,,,,,,8,Ontime,h,1,1.9591,0,2,2,2,1,,,,,
,0.98,,,,,,,,,g.PNG,g,6101930ddd5330f83b898c61,2021-10-20_09h51.33.416,forced_choiceRT,2021.1.2,Win32,59.59830741,,,,,,,,8,Ontime,g,1,1.9356,0,3,3,1,1,,,,,
,0.4,,,,,,,,,f.PNG,f,6101930ddd5330f83b898c61,2021-10-20_09h51.33.416,forced_choiceRT,2021.1.2,Win32,59.59830741,,,,,,,,8,Ontime,f,1,1.9528,1,0,4,0,1,,,,,
,0.69,,,,,,,,,h.PNG,h,6101930ddd5330f83b898c61,2021-10-20_09h51.33.416,forced_choiceRT,2021.1.2,Win32,59.59830741,,,,,,,,8,Ontime,h,1,1.9902,1,1,5,2,1,,,,,
,1.98,,,,,,,,,g.PNG,g,6101930ddd5330f83b898c61,2021-10-20_09h51.33.416,forced_choiceRT,2021.1.2,Win32,59.59830741,,,,,,,,8,Ontime,g,1,2.0407,1,2,6,1,1,,,,,
,1.94,,,,,,,,,j.PNG,j,6101930ddd5330f83b898c61,2021-10-20_09h51.33.416,forced_choiceRT,2021.1.2,Win32,59.59830741,,,,,,,,8,Ontime,j,1,1.9943,1,3,7,3,1,,,,,
,0.91,,,,,,,,,f.PNG,f,6101930ddd5330f83b898c61,2021-10-20_09h51.33.416,forced_choiceRT,2021.1.2,Win32,59.59830741,,,,,,,,8,Ontime,f,1,2.0022,2,0,8,0,1,,,,,
,1.53,,,,,,,,,f.PNG,f,6101930ddd5330f83b898c61,2021-10-20_09h51.33.416,forced_choiceRT,2021.1.2,Win32,59.59830741,,,,,,,,8,Ontime,h,0,2.0027,2,1,9,0,1,,,,,
,0.48,,,,,,,,,h.PNG,h,6101930ddd5330f83b898c61,2021-10-20_09h51.33.416,forced_choiceRT,2021.1.2,Win32,59.59830741,,,,,,,,8,Ontime,h,1,1.9558,2,2,10,2,1,,,,,
,1.77,,,,,,,,,h.PNG,h,6101930ddd5330f83b898c61,2021-10-20_09h51.33.416,forced_choiceRT,2021.1.2,Win32,59.59830741,,,,,,,,8,Ontime,g,0,2.0194,2,3,11,2,1,,,,,
,0.7,,,,,,,,,j.PNG,j,6101930ddd5330f83b898c61,2021-10-20_09h51.33.416,forced_choiceRT,2021.1.2,Win32,59.59830741,,,,,,,,8,Ontime,j,1,2.0105,3,0,12,3,1,,,,,
,1,,,,,,,,,f.PNG,f,6101930ddd5330f83b898c61,2021-10-20_09h51.33.416,forced_choiceRT,2021.1.2,Win32,59.59830741,,,,,,,,8,Ontime,f,1,1.9728,3,1,13,0,1,,,,,
,1.17,,,,,,,,,h.PNG,h,6101930ddd5330f83b898c61,2021-10-20_09h51.33.416,forced_choiceRT,2021.1.2,Win32,59.59830741,,,,,,,,8,Ontime,h,1,1.9931,3,2,14,2,1,,,,,
,1.27,,,,,,,,,g.PNG,g,6101930ddd5330f83b898c61,2021-10-20_09h51.33.416,forced_choiceRT,2021.1.2,Win32,59.59830741,,,,,,,,8,Ontime,g,1,1.9527,3,3,15,1,1,,,,,
,1.78,,,,,,,,,g.PNG,g,6101930ddd5330f83b898c61,2021-10-20_09h51.33.416,forced_choiceRT,2021.1.2,Win32,59.59830741,,,,,,,,8,Slow,h,0,2.1048,4,0,16,1,1,,,,,
,0.09,,,,,,,,,h.PNG,h,6101930ddd5330f83b898c61,2021-10-20_09h51.33.416,forced_choiceRT,2021.1.2,Win32,59.59830741,,,,,,,,8,Ontime,h,1,1.9117,4,1,17,2,1,,,,,
,1.25,,,,,,,,,f.PNG,f,6101930ddd5330f83b898c61,2021-10-20_09h51.33.416,forced_choiceRT,2021.1.2,Win32,59.59830741,,,,,,,,8,Ontime,f,1,2.0194,4,2,18,0,1,,,,,
,0.45,,,,,,,,,h.PNG,h,6101930ddd5330f83b898c61,2021-10-20_09h51.33.416,forced_choiceRT,2021.1.2,Win32,59.59830741,,,,,,,,8,Ontime,h,1,2.0084,4,3,19,2,1,,,,,
,0.54,,,,,,,,,f.PNG,f,6101930ddd5330f83b898c61,2021-10-20_09h51.33.416,forced_choiceRT,2021.1.2,Win32,59.59830741,,,,,,,,8,Ontime,f,1,1.9027,5,0,20,0,1,,,,,
,1.35,,,,,,,,,g.PNG,g,6101930ddd5330f83b898c61,2021-10-20_09h51.33.416,forced_choiceRT,2021.1.2,Win32,59.59830741,,,,,,,,8,Ontime,g,1,1.9861,5,1,21,1,1,,,,,
,0.87,,,,,,,,,j.PNG,j,6101930ddd5330f83b898c61,2021-10-20_09h51.33.416,forced_choiceRT,2021.1.2,Win32,59.59830741,,,,,,,,8,Ontime,j,1,1.997,5,2,22,3,1,,,,,
,1.75,,,,,,,,,g.PNG,g,6101930ddd5330f83b898c61,2021-10-20_09h51.33.416,forced_choiceRT,2021.1.2,Win32,59.59830741,,,,,,,,8,Ontime,h,0,1.9761,5,3,23,1,1,,,,,
,1,,,,,,,,,h.PNG,h,6101930ddd5330f83b898c61,2021-10-20_09h51.33.416,forced_choiceRT,2021.1.2,Win32,59.59830741,,,,,,,,8,Ontime,h,1,1.9562,6,0,24,2,1,,,,,
,1.35,,,,,,,,,f.PNG,f,6101930ddd5330f83b898c61,2021-10-20_09h51.33.416,forced_choiceRT,2021.1.2,Win32,59.59830741,,,,,,,,8,Ontime,f,1,2.0529,6,1,25,0,1,,,,,
,0.32,,,,,,,,,j.PNG,j,6101930ddd5330f83b898c61,2021-10-20_09h51.33.416,forced_choiceRT,2021.1.2,Win32,59.59830741,,,,,,,,8,Ontime,j,1,1.9458,6,2,26,3,1,,,,,
,1.62,,,,,,,,,g.PNG,g,6101930ddd5330f83b898c61,2021-10-20_09h51.33.416,forced_choiceRT,2021.1.2,Win32,59.59830741,,,,,,,,8,Ontime,g,1,1.9907,6,3,27,1,1,,,,,
,0.13,,,,,,,,,j.PNG,j,6101930ddd5330f83b898c61,2021-10-20_09h51.33.416,forced_choiceRT,2021.1.2,Win32,59.59830741,,,,,,,,8,Ontime,j,1,1.9222,7,0,28,3,1,,,,,
,0.26,,,,,,,,,g.PNG,g,6101930ddd5330f83b898c61,2021-10-20_09h51.33.416,forced_choiceRT,2021.1.2,Win32,59.59830741,,,,,,,,8,Ontime,g,1,1.9524,7,1,29,1,1,,,,,
,0.79,,,,,,,,,j.PNG,j,6101930ddd5330f83b898c61,2021-10-20_09h51.33.416,forced_choiceRT,2021.1.2,Win32,59.59830741,,,,,,,,8,Ontime,j,1,1.9697,7,2,30,3,1,,,,,
,1.55,,,,,,,,,j.PNG,j,6101930ddd5330f83b898c61,2021-10-20_09h51.33.416,forced_choiceRT,2021.1.2,Win32,59.59830741,,,,,,,,8,Ontime,g,0,2.0528,7,3,31,3,1,,,,,
,0.33,,,,,,,,,g.PNG,g,6101930ddd5330f83b898c61,2021-10-20_09h51.33.416,forced_choiceRT,2021.1.2,Win32,59.59830741,,,,,,,,8,Ontime,g,1,1.9026,8,0,32,1,1,,,,,
,0.95,,,,,,,,,h.PNG,h,6101930ddd5330f83b898c61,2021-10-20_09h51.33.416,forced_choiceRT,2021.1.2,Win32,59.59830741,,,,,,,,8,Ontime,h,1,1.9282,8,1,33,2,1,,,,,
,1.12,,,,,,,,,f.PNG,f,6101930ddd5330f83b898c61,2021-10-20_09h51.33.416,forced_choiceRT,2021.1.2,Win32,59.59830741,,,,,,,,8,Ontime,f,1,1.9353,8,2,34,0,1,,,,,
,1.29,,,,,,,,,j.PNG,j,6101930ddd5330f83b898c61,2021-10-20_09h51.33.416,forced_choiceRT,2021.1.2,Win32,59.59830741,,,,,,,,8,Ontime,j,1,1.9714,8,3,35,3,1,,,,,
,0.41,,,,,,,,,j.PNG,j,6101930ddd5330f83b898c61,2021-10-20_09h51.33.416,forced_choiceRT,2021.1.2,Win32,59.59830741,,,,,,,,8,Ontime,j,1,1.9276,9,0,36,3,1,,,,,
,1.8,,,,,,,,,g.PNG,g,6101930ddd5330f83b898c61,2021-10-20_09h51.33.416,forced_choiceRT,2021.1.2,Win32,59.59830741,,,,,,,,8,Ontime,h,0,2.0532,9,1,37,1,1,,,,,
,1.69,,,,,,,,,f.PNG,f,6101930ddd5330f83b898c61,2021-10-20_09h51.33.416,forced_choiceRT,2021.1.2,Win32,59.59830741,,,,,,,,8,Ontime,h,0,1.9903,9,2,38,0,1,,,,,
,0.05,,,,,,,,,f.PNG,f,6101930ddd5330f83b898c61,2021-10-20_09h51.33.416,forced_choiceRT,2021.1.2,Win32,59.59830741,,,,,,,,8,Ontime,f,1,1.9214,9,3,39,0,1,,,,,
,,,,,,,,,,,,6101930ddd5330f83b898c61,2021-10-20_09h51.33.416,forced_choiceRT,2021.1.2,Win32,59.59830741,,,,,,,,,,,,,,,,,,7,0,7,0,1
,0.22,,,,,,,,,f.PNG,f,6101930ddd5330f83b898c61,2021-10-20_09h51.33.416,forced_choiceRT,2021.1.2,Win32,59.59830741,,,,,,,,9,Ontime,f,1,1.9576,0,0,0,0,1,,,,,
,1.42,,,,,,,,,j.PNG,j,6101930ddd5330f83b898c61,2021-10-20_09h51.33.416,forced_choiceRT,2021.1.2,Win32,59.59830741,,,,,,,,9,Ontime,j,1,2.053,0,1,1,3,1,,,,,
,1.12,,,,,,,,,g.PNG,g,6101930ddd5330f83b898c61,2021-10-20_09h51.33.416,forced_choiceRT,2021.1.2,Win32,59.59830741,,,,,,,,9,Ontime,g,1,1.9528,0,2,2,1,1,,,,,
,0.15,,,,,,,,,h.PNG,h,6101930ddd5330f83b898c61,2021-10-20_09h51.33.416,forced_choiceRT,2021.1.2,Win32,59.59830741,,,,,,,,9,Ontime,h,1,1.9277,0,3,3,2,1,,,,,
,0.53,,,,,,,,,g.PNG,g,6101930ddd5330f83b898c61,2021-10-20_09h51.33.416,forced_choiceRT,2021.1.2,Win32,59.59830741,,,,,,,,9,Ontime,g,1,1.942,1,0,4,1,1,,,,,
,1.45,,,,,,,,,j.PNG,j,6101930ddd5330f83b898c61,2021-10-20_09h51.33.416,forced_choiceRT,2021.1.2,Win32,59.59830741,,,,,,,,9,Ontime,j,1,2.0038,1,1,5,3,1,,,,,
,0.19,,,,,,,,,g.PNG,g,6101930ddd5330f83b898c61,2021-10-20_09h51.33.416,forced_choiceRT,2021.1.2,Win32,59.59830741,,,,,,,,9,Ontime,g,1,1.9423,1,2,6,1,1,,,,,
,0.15,,,,,,,,,g.PNG,g,6101930ddd5330f83b898c61,2021-10-20_09h51.33.416,forced_choiceRT,2021.1.2,Win32,59.59830741,,,,,,,,9,Ontime,g,1,1.9794,1,3,7,1,1,,,,,
,0.15,,,,,,,,,f.PNG,f,6101930ddd5330f83b898c61,2021-10-20_09h51.33.416,forced_choiceRT,2021.1.2,Win32,59.59830741,,,,,,,,9,Ontime,f,1,1.9528,2,0,8,0,1,,,,,
,0.68,,,,,,,,,f.PNG,f,6101930ddd5330f83b898c61,2021-10-20_09h51.33.416,forced_choiceRT,2021.1.2,Win32,59.59830741,,,,,,,,9,Ontime,f,1,2.0122,2,1,9,0,1,,,,,
,0.23,,,,,,,,,f.PNG,f,6101930ddd5330f83b898c61,2021-10-20_09h51.33.416,forced_choiceRT,2021.1.2,Win32,59.59830741,,,,,,,,9,Ontime,f,1,2.003,2,2,10,0,1,,,,,
,0,,,,,,,,,j.PNG,j,6101930ddd5330f83b898c61,2021-10-20_09h51.33.416,forced_choiceRT,2021.1.2,Win32,59.59830741,,,,,,,,9,Ontime,j,1,1.9615,2,3,11,3,1,,,,,
,0.23,,,,,,,,,j.PNG,j,6101930ddd5330f83b898c61,2021-10-20_09h51.33.416,forced_choiceRT,2021.1.2,Win32,59.59830741,,,,,,,,9,Ontime,j,1,1.9857,3,0,12,3,1,,,,,
,1.35,,,,,,,,,j.PNG,j,6101930ddd5330f83b898c61,2021-10-20_09h51.33.416,forced_choiceRT,2021.1.2,Win32,59.59830741,,,,,,,,9,Ontime,j,1,2.0578,3,1,13,3,1,,,,,
,1.73,,,,,,,,,h.PNG,h,6101930ddd5330f83b898c61,2021-10-20_09h51.33.416,forced_choiceRT,2021.1.2,Win32,59.59830741,,,,,,,,9,Ontime,h,1,1.9383,3,2,14,2,1,,,,,
,0.36,,,,,,,,,g.PNG,g,6101930ddd5330f83b898c61,2021-10-20_09h51.33.416,forced_choiceRT,2021.1.2,Win32,59.59830741,,,,,,,,9,Ontime,g,1,1.9278,3,3,15,1,1,,,,,
,0.46,,,,,,,,,j.PNG,j,6101930ddd5330f83b898c61,2021-10-20_09h51.33.416,forced_choiceRT,2021.1.2,Win32,59.59830741,,,,,,,,9,Ontime,j,1,1.9529,4,0,16,3,1,,,,,
,1.26,,,,,,,,,j.PNG,j,6101930ddd5330f83b898c61,2021-10-20_09h51.33.416,forced_choiceRT,2021.1.2,Win32,59.59830741,,,,,,,,9,Ontime,j,1,1.9944,4,1,17,3,1,,,,,
,1.59,,,,,,,,,f.PNG,f,6101930ddd5330f83b898c61,2021-10-20_09h51.33.416,forced_choiceRT,2021.1.2,Win32,59.59830741,,,,,,,,9,Ontime,f,1,2.0214,4,2,18,0,1,,,,,
,0.61,,,,,,,,,g.PNG,g,6101930ddd5330f83b898c61,2021-10-20_09h51.33.416,forced_choiceRT,2021.1.2,Win32,59.59830741,,,,,,,,9,Ontime,g,1,2.0075,4,3,19,1,1,,,,,
,0.49,,,,,,,,,h.PNG,h,6101930ddd5330f83b898c61,2021-10-20_09h51.33.416,forced_choiceRT,2021.1.2,Win32,59.59830741,,,,,,,,9,Ontime,h,1,1.9543,5,0,20,2,1,,,,,
,1.13,,,,,,,,,h.PNG,h,6101930ddd5330f83b898c61,2021-10-20_09h51.33.416,forced_choiceRT,2021.1.2,Win32,59.59830741,,,,,,,,9,Ontime,h,1,1.9692,5,1,21,2,1,,,,,
,1.15,,,,,,,,,f.PNG,f,6101930ddd5330f83b898c61,2021-10-20_09h51.33.416,forced_choiceRT,2021.1.2,Win32,59.59830741,,,,,,,,9,Ontime,f,1,2.0912,5,2,22,0,1,,,,,
,1.36,,,,,,,,,h.PNG,h,6101930ddd5330f83b898c61,2021-10-20_09h51.33.416,forced_choiceRT,2021.1.2,Win32,59.59830741,,,,,,,,9,Ontime,h,1,1.9941,5,3,23,2,1,,,,,
,1.09,,,,,,,,,f.PNG,f,6101930ddd5330f83b898c61,2021-10-20_09h51.33.416,forced_choiceRT,2021.1.2,Win32,59.59830741,,,,,,,,9,Ontime,f,1,1.9862,6,0,24,0,1,,,,,
,1.69,,,,,,,,,h.PNG,h,6101930ddd5330f83b898c61,2021-10-20_09h51.33.416,forced_choiceRT,2021.1.2,Win32,59.59830741,,,,,,,,9,Ontime,g,0,2.025,6,1,25,2,1,,,,,
,0.31,,,,,,,,,j.PNG,j,6101930ddd5330f83b898c61,2021-10-20_09h51.33.416,forced_choiceRT,2021.1.2,Win32,59.59830741,,,,,,,,9,Ontime,j,1,1.9196,6,2,26,3,1,,,,,
,1.23,,,,,,,,,g.PNG,g,6101930ddd5330f83b898c61,2021-10-20_09h51.33.416,forced_choiceRT,2021.1.2,Win32,59.59830741,,,,,,,,9,Ontime,g,1,1.9534,6,3,27,1,1,,,,,
,0.37,,,,,,,,,f.PNG,f,6101930ddd5330f83b898c61,2021-10-20_09h51.33.416,forced_choiceRT,2021.1.2,Win32,59.59830741,,,,,,,,9,Ontime,f,1,1.9362,7,0,28,0,1,,,,,
,1,,,,,,,,,j.PNG,j,6101930ddd5330f83b898c61,2021-10-20_09h51.33.416,forced_choiceRT,2021.1.2,Win32,59.59830741,,,,,,,,9,Ontime,j,1,1.9027,7,1,29,3,1,,,,,
,0.2,,,,,,,,,g.PNG,g,6101930ddd5330f83b898c61,2021-10-20_09h51.33.416,forced_choiceRT,2021.1.2,Win32,59.59830741,,,,,,,,9,Ontime,g,1,1.994,7,2,30,1,1,,,,,
,1.22,,,,,,,,,h.PNG,h,6101930ddd5330f83b898c61,2021-10-20_09h51.33.416,forced_choiceRT,2021.1.2,Win32,59.59830741,,,,,,,,9,Ontime,h,1,1.9532,7,3,31,2,1,,,,,
,0.99,,,,,,,,,g.PNG,g,6101930ddd5330f83b898c61,2021-10-20_09h51.33.416,forced_choiceRT,2021.1.2,Win32,59.59830741,,,,,,,,9,Ontime,g,1,1.9778,8,0,32,1,1,,,,,
,1.22,,,,,,,,,f.PNG,f,6101930ddd5330f83b898c61,2021-10-20_09h51.33.416,forced_choiceRT,2021.1.2,Win32,59.59830741,,,,,,,,9,Fast,f,1,1.8779,8,1,33,0,1,,,,,
,1.64,,,,,,,,,h.PNG,h,6101930ddd5330f83b898c61,2021-10-20_09h51.33.416,forced_choiceRT,2021.1.2,Win32,59.59830741,,,,,,,,9,Ontime,f,0,2.0218,8,2,34,2,1,,,,,
,1.03,,,,,,,,,f.PNG,f,6101930ddd5330f83b898c61,2021-10-20_09h51.33.416,forced_choiceRT,2021.1.2,Win32,59.59830741,,,,,,,,9,Ontime,f,1,1.9602,8,3,35,0,1,,,,,
,1.23,,,,,,,,,h.PNG,h,6101930ddd5330f83b898c61,2021-10-20_09h51.33.416,forced_choiceRT,2021.1.2,Win32,59.59830741,,,,,,,,9,Ontime,h,1,1.9567,9,0,36,2,1,,,,,
,0.41,,,,,,,,,h.PNG,h,6101930ddd5330f83b898c61,2021-10-20_09h51.33.416,forced_choiceRT,2021.1.2,Win32,59.59830741,,,,,,,,9,Ontime,h,1,1.9611,9,1,37,2,1,,,,,
,1.68,,,,,,,,,j.PNG,j,6101930ddd5330f83b898c61,2021-10-20_09h51.33.416,forced_choiceRT,2021.1.2,Win32,59.59830741,,,,,,,,9,Ontime,h,0,2.03,9,2,38,3,1,,,,,
,0.75,,,,,,,,,g.PNG,g,6101930ddd5330f83b898c61,2021-10-20_09h51.33.416,forced_choiceRT,2021.1.2,Win32,59.59830741,,,,,,,,9,Ontime,g,1,1.9853,9,3,39,1,1,,,,,
,,,,,,,,,,,,6101930ddd5330f83b898c61,2021-10-20_09h51.33.416,forced_choiceRT,2021.1.2,Win32,59.59830741,,,,,,,,,,,,,,,,,,8,0,8,0,1
,1.31,,,,,,,,,h.PNG,h,6101930ddd5330f83b898c61,2021-10-20_09h51.33.416,forced_choiceRT,2021.1.2,Win32,59.59830741,,,,,,,,10,Ontime,h,1,1.9422,0,0,0,2,1,,,,,
,1.85,,,,,,,,,f.PNG,f,6101930ddd5330f83b898c61,2021-10-20_09h51.33.416,forced_choiceRT,2021.1.2,Win32,59.59830741,,,,,,,,10,Ontime,j,0,2.0272,0,1,1,0,1,,,,,
,1.55,,,,,,,,,f.PNG,f,6101930ddd5330f83b898c61,2021-10-20_09h51.33.416,forced_choiceRT,2021.1.2,Win32,59.59830741,,,,,,,,10,Ontime,f,1,2.0859,0,2,2,0,1,,,,,
,1.33,,,,,,,,,j.PNG,j,6101930ddd5330f83b898c61,2021-10-20_09h51.33.416,forced_choiceRT,2021.1.2,Win32,59.59830741,,,,,,,,10,Fast,j,1,1.8697,0,3,3,3,1,,,,,
,0.54,,,,,,,,,h.PNG,h,6101930ddd5330f83b898c61,2021-10-20_09h51.33.416,forced_choiceRT,2021.1.2,Win32,59.59830741,,,,,,,,10,Ontime,h,1,1.9695,1,0,4,2,1,,,,,
,1.82,,,,,,,,,f.PNG,f,6101930ddd5330f83b898c61,2021-10-20_09h51.33.416,forced_choiceRT,2021.1.2,Win32,59.59830741,,,,,,,,10,Slow,f,1,2.3054,1,1,5,0,1,,,,,
,0.93,,,,,,,,,g.PNG,g,6101930ddd5330f83b898c61,2021-10-20_09h51.33.416,forced_choiceRT,2021.1.2,Win32,59.59830741,,,,,,,,10,Ontime,g,1,1.9696,1,2,6,1,1,,,,,
,0.24,,,,,,,,,j.PNG,j,6101930ddd5330f83b898c61,2021-10-20_09h51.33.416,forced_choiceRT,2021.1.2,Win32,59.59830741,,,,,,,,10,Ontime,j,1,1.9877,1,3,7,3,1,,,,,
,0.63,,,,,,,,,h.PNG,h,6101930ddd5330f83b898c61,2021-10-20_09h51.33.416,forced_choiceRT,2021.1.2,Win32,59.59830741,,,,,,,,10,Ontime,h,1,1.9197,2,0,8,2,1,,,,,
,1.63,,,,,,,,,g.PNG,g,6101930ddd5330f83b898c61,2021-10-20_09h51.33.416,forced_choiceRT,2021.1.2,Win32,59.59830741,,,,,,,,10,Ontime,g,1,2.0773,2,1,9,1,1,,,,,
,0.39,,,,,,,,,g.PNG,g,6101930ddd5330f83b898c61,2021-10-20_09h51.33.416,forced_choiceRT,2021.1.2,Win32,59.59830741,,,,,,,,10,Ontime,g,1,1.9413,2,2,10,1,1,,,,,
,0.06,,,,,,,,,h.PNG,h,6101930ddd5330f83b898c61,2021-10-20_09h51.33.416,forced_choiceRT,2021.1.2,Win32,59.59830741,,,,,,,,10,Ontime,h,1,1.9525,2,3,11,2,1,,,,,
,0.27,,,,,,,,,j.PNG,j,6101930ddd5330f83b898c61,2021-10-20_09h51.33.416,forced_choiceRT,2021.1.2,Win32,59.59830741,,,,,,,,10,Ontime,j,1,1.9859,3,0,12,3,1,,,,,
,1.23,,,,,,,,,h.PNG,h,6101930ddd5330f83b898c61,2021-10-20_09h51.33.416,forced_choiceRT,2021.1.2,Win32,59.59830741,,,,,,,,10,Ontime,h,1,1.9789,3,1,13,2,1,,,,,
,1.31,,,,,,,,,f.PNG,f,6101930ddd5330f83b898c61,2021-10-20_09h51.33.416,forced_choiceRT,2021.1.2,Win32,59.59830741,,,,,,,,10,Ontime,f,1,2.0069,3,2,14,0,1,,,,,
,0.71,,,,,,,,,f.PNG,f,6101930ddd5330f83b898c61,2021-10-20_09h51.33.416,forced_choiceRT,2021.1.2,Win32,59.59830741,,,,,,,,10,Ontime,f,1,1.9935,3,3,15,0,1,,,,,
,1.9,,,,,,,,,j.PNG,j,6101930ddd5330f83b898c61,2021-10-20_09h51.33.416,forced_choiceRT,2021.1.2,Win32,59.59830741,,,,,,,,10,Ontime,j,1,2.0291,4,0,16,3,1,,,,,
,1.82,,,,,,,,,h.PNG,h,6101930ddd5330f83b898c61,2021-10-20_09h51.33.416,forced_choiceRT,2021.1.2,Win32,59.59830741,,,,,,,,10,Ontime,h,1,2.0226,4,1,17,2,1,,,,,
,0.31,,,,,,,,,j.PNG,j,6101930ddd5330f83b898c61,2021-10-20_09h51.33.416,forced_choiceRT,2021.1.2,Win32,59.59830741,,,,,,,,10,Ontime,j,1,1.9929,4,2,18,3,1,,,,,
,0.63,,,,,,,,,g.PNG,g,6101930ddd5330f83b898c61,2021-10-20_09h51.33.416,forced_choiceRT,2021.1.2,Win32,59.59830741,,,,,,,,10,Ontime,g,1,1.9963,4,3,19,1,1,,,,,
,0.56,,,,,,,,,f.PNG,f,6101930ddd5330f83b898c61,2021-10-20_09h51.33.416,forced_choiceRT,2021.1.2,Win32,59.59830741,,,,,,,,10,Ontime,f,1,2.0235,5,0,20,0,1,,,,,
,0.76,,,,,,,,,j.PNG,j,6101930ddd5330f83b898c61,2021-10-20_09h51.33.416,forced_choiceRT,2021.1.2,Win32,59.59830741,,,,,,,,10,Ontime,j,1,1.9775,5,1,21,3,1,,,,,
,0.7,,,,,,,,,h.PNG,h,6101930ddd5330f83b898c61,2021-10-20_09h51.33.416,forced_choiceRT,2021.1.2,Win32,59.59830741,,,,,,,,10,Ontime,h,1,1.9976,5,2,22,2,1,,,,,
,1.19,,,,,,,,,g.PNG,g,6101930ddd5330f83b898c61,2021-10-20_09h51.33.416,forced_choiceRT,2021.1.2,Win32,59.59830741,,,,,,,,10,Ontime,g,1,2.0359,5,3,23,1,1,,,,,
,0.93,,,,,,,,,j.PNG,j,6101930ddd5330f83b898c61,2021-10-20_09h51.33.416,forced_choiceRT,2021.1.2,Win32,59.59830741,,,,,,,,10,Ontime,j,1,1.9379,6,0,24,3,1,,,,,
,0.09,,,,,,,,,g.PNG,g,6101930ddd5330f83b898c61,2021-10-20_09h51.33.416,forced_choiceRT,2021.1.2,Win32,59.59830741,,,,,,,,10,Fast,g,1,1.8236,6,1,25,1,1,,,,,
,0.38,,,,,,,,,j.PNG,j,6101930ddd5330f83b898c61,2021-10-20_09h51.33.416,forced_choiceRT,2021.1.2,Win32,59.59830741,,,,,,,,10,Ontime,j,1,1.9616,6,2,26,3,1,,,,,
,1.01,,,,,,,,,g.PNG,g,6101930ddd5330f83b898c61,2021-10-20_09h51.33.416,forced_choiceRT,2021.1.2,Win32,59.59830741,,,,,,,,10,Ontime,g,1,2.0384,6,3,27,1,1,,,,,
,0.29,,,,,,,,,f.PNG,f,6101930ddd5330f83b898c61,2021-10-20_09h51.33.416,forced_choiceRT,2021.1.2,Win32,59.59830741,,,,,,,,10,Ontime,f,1,1.9597,7,0,28,0,1,,,,,
,1.71,,,,,,,,,j.PNG,j,6101930ddd5330f83b898c61,2021-10-20_09h51.33.416,forced_choiceRT,2021.1.2,Win32,59.59830741,,,,,,,,10,Ontime,g,0,1.9724,7,1,29,3,1,,,,,
,0.78,,,,,,,,,g.PNG,g,6101930ddd5330f83b898c61,2021-10-20_09h51.33.416,forced_choiceRT,2021.1.2,Win32,59.59830741,,,,,,,,10,Ontime,g,1,1.9695,7,2,30,1,1,,,,,
,0.27,,,,,,,,,h.PNG,h,6101930ddd5330f83b898c61,2021-10-20_09h51.33.416,forced_choiceRT,2021.1.2,Win32,59.59830741,,,,,,,,10,Ontime,h,1,1.9531,7,3,31,2,1,,,,,
,1.09,,,,,,,,,f.PNG,f,6101930ddd5330f83b898c61,2021-10-20_09h51.33.416,forced_choiceRT,2021.1.2,Win32,59.59830741,,,,,,,,10,Ontime,f,1,2.0249,8,0,32,0,1,,,,,
,1.52,,,,,,,,,f.PNG,f,6101930ddd5330f83b898c61,2021-10-20_09h51.33.416,forced_choiceRT,2021.1.2,Win32,59.59830741,,,,,,,,10,Ontime,f,1,2.0427,8,1,33,0,1,,,,,
,1.3,,,,,,,,,g.PNG,g,6101930ddd5330f83b898c61,2021-10-20_09h51.33.416,forced_choiceRT,2021.1.2,Win32,59.59830741,,,,,,,,10,Ontime,g,1,1.9692,8,2,34,1,1,,,,,
,1.45,,,,,,,,,j.PNG,j,6101930ddd5330f83b898c61,2021-10-20_09h51.33.416,forced_choiceRT,2021.1.2,Win32,59.59830741,,,,,,,,10,Ontime,j,1,2.0886,8,3,35,3,1,,,,,
,0.29,,,,,,,,,f.PNG,f,6101930ddd5330f83b898c61,2021-10-20_09h51.33.416,forced_choiceRT,2021.1.2,Win32,59.59830741,,,,,,,,10,Ontime,f,1,1.9526,9,0,36,0,1,,,,,
,0.52,,,,,,,,,h.PNG,h,6101930ddd5330f83b898c61,2021-10-20_09h51.33.416,forced_choiceRT,2021.1.2,Win32,59.59830741,,,,,,,,10,Ontime,h,1,1.9888,9,1,37,2,1,,,,,
,0.44,,,,,,,,,g.PNG,g,6101930ddd5330f83b898c61,2021-10-20_09h51.33.416,forced_choiceRT,2021.1.2,Win32,59.59830741,,,,,,,,10,Ontime,g,1,2.0028,9,2,38,1,1,,,,,
,0.16,,,,,,,,,h.PNG,h,6101930ddd5330f83b898c61,2021-10-20_09h51.33.416,forced_choiceRT,2021.1.2,Win32,59.59830741,,,,,,,,10,Ontime,h,1,1.9468,9,3,39,2,1,,,,,
,,,,,,,,,,,,6101930ddd5330f83b898c61,2021-10-20_09h51.33.416,forced_choiceRT,2021.1.2,Win32,59.59830741,,,,,,,,,,,,,,,,,,9,0,9,0,1
