IP_Addresss,target_onset,trial_resp_sp.keys,trial_resp_sp.corr,trial_resp_sp.rt,trials_train_loop.thisRepN,trials_train_loop.thisTrialN,trials_train_loop.thisN,trials_train_loop.thisIndex,trials_train_loop.ran,pic,correct_key,participant,date,expName,psychopyVersion,OS,frameRate,trial_resp_timing.keys,trial_resp_timing.rt,trials_train_timing.thisRepN,trials_train_timing.thisTrialN,trials_train_timing.thisN,trials_train_timing.thisIndex,trials_train_timing.ran,block_id,ontime,forcedRT_resp.keys,forcedRT_resp.corr,forcedRT_resp.rt,trials.thisRepN,trials.thisTrialN,trials.thisN,trials.thisIndex,trials.ran,blocks.thisRepN,blocks.thisTrialN,blocks.thisN,blocks.thisIndex,blocks.ran
96.253.116.146,0,j,1,2.6071,0,0,0,3,1,j.PNG,j,610325a6052741bbfb84bcd1,2021-10-19_21h15.03.025,forced_choiceRT,2021.1.2,Win32,59.99160118,,,,,,,,,,,,,,,,,,,,,,
,0,f,1,1.371,0,1,1,0,1,f.PNG,f,610325a6052741bbfb84bcd1,2021-10-19_21h15.03.025,forced_choiceRT,2021.1.2,Win32,59.99160118,,,,,,,,,,,,,,,,,,,,,,
,0,g,1,2.0522,0,2,2,1,1,g.PNG,g,610325a6052741bbfb84bcd1,2021-10-19_21h15.03.025,forced_choiceRT,2021.1.2,Win32,59.99160118,,,,,,,,,,,,,,,,,,,,,,
,0,j,1,2.2123,0,3,3,3,1,j.PNG,j,610325a6052741bbfb84bcd1,2021-10-19_21h15.03.025,forced_choiceRT,2021.1.2,Win32,59.99160118,,,,,,,,,,,,,,,,,,,,,,
,0,g,1,1.2682,1,0,4,1,1,g.PNG,g,610325a6052741bbfb84bcd1,2021-10-19_21h15.03.025,forced_choiceRT,2021.1.2,Win32,59.99160118,,,,,,,,,,,,,,,,,,,,,,
,0,h,1,1.4225,1,1,5,2,1,h.PNG,h,610325a6052741bbfb84bcd1,2021-10-19_21h15.03.025,forced_choiceRT,2021.1.2,Win32,59.99160118,,,,,,,,,,,,,,,,,,,,,,
,0,j,1,0.9417,1,2,6,3,1,j.PNG,j,610325a6052741bbfb84bcd1,2021-10-19_21h15.03.025,forced_choiceRT,2021.1.2,Win32,59.99160118,,,,,,,,,,,,,,,,,,,,,,
,0,g,1,1.3487,1,3,7,1,1,g.PNG,g,610325a6052741bbfb84bcd1,2021-10-19_21h15.03.025,forced_choiceRT,2021.1.2,Win32,59.99160118,,,,,,,,,,,,,,,,,,,,,,
,0,j,1,0.8753,2,0,8,3,1,j.PNG,j,610325a6052741bbfb84bcd1,2021-10-19_21h15.03.025,forced_choiceRT,2021.1.2,Win32,59.99160118,,,,,,,,,,,,,,,,,,,,,,
,0,h,1,2.1551,2,1,9,2,1,h.PNG,h,610325a6052741bbfb84bcd1,2021-10-19_21h15.03.025,forced_choiceRT,2021.1.2,Win32,59.99160118,,,,,,,,,,,,,,,,,,,,,,
,0,g,1,1.5626,2,2,10,1,1,g.PNG,g,610325a6052741bbfb84bcd1,2021-10-19_21h15.03.025,forced_choiceRT,2021.1.2,Win32,59.99160118,,,,,,,,,,,,,,,,,,,,,,
,0,f,1,0.7189,2,3,11,0,1,f.PNG,f,610325a6052741bbfb84bcd1,2021-10-19_21h15.03.025,forced_choiceRT,2021.1.2,Win32,59.99160118,,,,,,,,,,,,,,,,,,,,,,
,0,j,1,0.8776,3,0,12,3,1,j.PNG,j,610325a6052741bbfb84bcd1,2021-10-19_21h15.03.025,forced_choiceRT,2021.1.2,Win32,59.99160118,,,,,,,,,,,,,,,,,,,,,,
,0,h,1,1.8394,3,1,13,2,1,h.PNG,h,610325a6052741bbfb84bcd1,2021-10-19_21h15.03.025,forced_choiceRT,2021.1.2,Win32,59.99160118,,,,,,,,,,,,,,,,,,,,,,
,0,h,1,1.2144,3,2,14,2,1,h.PNG,h,610325a6052741bbfb84bcd1,2021-10-19_21h15.03.025,forced_choiceRT,2021.1.2,Win32,59.99160118,,,,,,,,,,,,,,,,,,,,,,
,0,g,1,0.9237,3,3,15,1,1,g.PNG,g,610325a6052741bbfb84bcd1,2021-10-19_21h15.03.025,forced_choiceRT,2021.1.2,Win32,59.99160118,,,,,,,,,,,,,,,,,,,,,,
,0,h,1,1.3622,4,0,16,2,1,h.PNG,h,610325a6052741bbfb84bcd1,2021-10-19_21h15.03.025,forced_choiceRT,2021.1.2,Win32,59.99160118,,,,,,,,,,,,,,,,,,,,,,
,0,g,1,1.0974,4,1,17,1,1,g.PNG,g,610325a6052741bbfb84bcd1,2021-10-19_21h15.03.025,forced_choiceRT,2021.1.2,Win32,59.99160118,,,,,,,,,,,,,,,,,,,,,,
,0,h,1,1.6921,4,2,18,2,1,h.PNG,h,610325a6052741bbfb84bcd1,2021-10-19_21h15.03.025,forced_choiceRT,2021.1.2,Win32,59.99160118,,,,,,,,,,,,,,,,,,,,,,
,0,g,1,0.9763,4,3,19,1,1,g.PNG,g,610325a6052741bbfb84bcd1,2021-10-19_21h15.03.025,forced_choiceRT,2021.1.2,Win32,59.99160118,,,,,,,,,,,,,,,,,,,,,,
,0,j,1,1.1011,5,0,20,3,1,j.PNG,j,610325a6052741bbfb84bcd1,2021-10-19_21h15.03.025,forced_choiceRT,2021.1.2,Win32,59.99160118,,,,,,,,,,,,,,,,,,,,,,
,0,h,1,1.6351,5,1,21,2,1,h.PNG,h,610325a6052741bbfb84bcd1,2021-10-19_21h15.03.025,forced_choiceRT,2021.1.2,Win32,59.99160118,,,,,,,,,,,,,,,,,,,,,,
,0,g,1,0.8509,5,2,22,1,1,g.PNG,g,610325a6052741bbfb84bcd1,2021-10-19_21h15.03.025,forced_choiceRT,2021.1.2,Win32,59.99160118,,,,,,,,,,,,,,,,,,,,,,
,0,j,1,0.8722,5,3,23,3,1,j.PNG,j,610325a6052741bbfb84bcd1,2021-10-19_21h15.03.025,forced_choiceRT,2021.1.2,Win32,59.99160118,,,,,,,,,,,,,,,,,,,,,,
,0,h,1,1.1091,6,0,24,2,1,h.PNG,h,610325a6052741bbfb84bcd1,2021-10-19_21h15.03.025,forced_choiceRT,2021.1.2,Win32,59.99160118,,,,,,,,,,,,,,,,,,,,,,
,0,g,1,0.8934,6,1,25,1,1,g.PNG,g,610325a6052741bbfb84bcd1,2021-10-19_21h15.03.025,forced_choiceRT,2021.1.2,Win32,59.99160118,,,,,,,,,,,,,,,,,,,,,,
,0,g,1,0.8202,6,2,26,1,1,g.PNG,g,610325a6052741bbfb84bcd1,2021-10-19_21h15.03.025,forced_choiceRT,2021.1.2,Win32,59.99160118,,,,,,,,,,,,,,,,,,,,,,
,0,g,1,0.713,6,3,27,1,1,g.PNG,g,610325a6052741bbfb84bcd1,2021-10-19_21h15.03.025,forced_choiceRT,2021.1.2,Win32,59.99160118,,,,,,,,,,,,,,,,,,,,,,
,0,f,1,0.9976,7,0,28,0,1,f.PNG,f,610325a6052741bbfb84bcd1,2021-10-19_21h15.03.025,forced_choiceRT,2021.1.2,Win32,59.99160118,,,,,,,,,,,,,,,,,,,,,,
,0,h,1,1.4166,7,1,29,2,1,h.PNG,h,610325a6052741bbfb84bcd1,2021-10-19_21h15.03.025,forced_choiceRT,2021.1.2,Win32,59.99160118,,,,,,,,,,,,,,,,,,,,,,
,0,g,1,0.9972,7,2,30,1,1,g.PNG,g,610325a6052741bbfb84bcd1,2021-10-19_21h15.03.025,forced_choiceRT,2021.1.2,Win32,59.99160118,,,,,,,,,,,,,,,,,,,,,,
,0,j,1,0.8241,7,3,31,3,1,j.PNG,j,610325a6052741bbfb84bcd1,2021-10-19_21h15.03.025,forced_choiceRT,2021.1.2,Win32,59.99160118,,,,,,,,,,,,,,,,,,,,,,
,0,j,1,0.7393,8,0,32,3,1,j.PNG,j,610325a6052741bbfb84bcd1,2021-10-19_21h15.03.025,forced_choiceRT,2021.1.2,Win32,59.99160118,,,,,,,,,,,,,,,,,,,,,,
,0,j,1,1.3253,8,1,33,3,1,j.PNG,j,610325a6052741bbfb84bcd1,2021-10-19_21h15.03.025,forced_choiceRT,2021.1.2,Win32,59.99160118,,,,,,,,,,,,,,,,,,,,,,
,0,f,1,0.7234,8,2,34,0,1,f.PNG,f,610325a6052741bbfb84bcd1,2021-10-19_21h15.03.025,forced_choiceRT,2021.1.2,Win32,59.99160118,,,,,,,,,,,,,,,,,,,,,,
,0,f,1,0.6093,8,3,35,0,1,f.PNG,f,610325a6052741bbfb84bcd1,2021-10-19_21h15.03.025,forced_choiceRT,2021.1.2,Win32,59.99160118,,,,,,,,,,,,,,,,,,,,,,
,0,h,1,1.2841,9,0,36,2,1,h.PNG,h,610325a6052741bbfb84bcd1,2021-10-19_21h15.03.025,forced_choiceRT,2021.1.2,Win32,59.99160118,,,,,,,,,,,,,,,,,,,,,,
,0,f,1,0.9694,9,1,37,0,1,f.PNG,f,610325a6052741bbfb84bcd1,2021-10-19_21h15.03.025,forced_choiceRT,2021.1.2,Win32,59.99160118,,,,,,,,,,,,,,,,,,,,,,
,0,f,1,0.555,9,2,38,0,1,f.PNG,f,610325a6052741bbfb84bcd1,2021-10-19_21h15.03.025,forced_choiceRT,2021.1.2,Win32,59.99160118,,,,,,,,,,,,,,,,,,,,,,
,0,j,1,0.9258,9,3,39,3,1,j.PNG,j,610325a6052741bbfb84bcd1,2021-10-19_21h15.03.025,forced_choiceRT,2021.1.2,Win32,59.99160118,,,,,,,,,,,,,,,,,,,,,,
,0,j,1,0.7605,10,0,40,3,1,j.PNG,j,610325a6052741bbfb84bcd1,2021-10-19_21h15.03.025,forced_choiceRT,2021.1.2,Win32,59.99160118,,,,,,,,,,,,,,,,,,,,,,
,0,h,1,1.5658,10,1,41,2,1,h.PNG,h,610325a6052741bbfb84bcd1,2021-10-19_21h15.03.025,forced_choiceRT,2021.1.2,Win32,59.99160118,,,,,,,,,,,,,,,,,,,,,,
,0,h,1,0.5736,10,2,42,2,1,h.PNG,h,610325a6052741bbfb84bcd1,2021-10-19_21h15.03.025,forced_choiceRT,2021.1.2,Win32,59.99160118,,,,,,,,,,,,,,,,,,,,,,
,0,j,1,0.9867,10,3,43,3,1,j.PNG,j,610325a6052741bbfb84bcd1,2021-10-19_21h15.03.025,forced_choiceRT,2021.1.2,Win32,59.99160118,,,,,,,,,,,,,,,,,,,,,,
,0,f,1,0.6716,11,0,44,0,1,f.PNG,f,610325a6052741bbfb84bcd1,2021-10-19_21h15.03.025,forced_choiceRT,2021.1.2,Win32,59.99160118,,,,,,,,,,,,,,,,,,,,,,
,0,f,1,0.6296,11,1,45,0,1,f.PNG,f,610325a6052741bbfb84bcd1,2021-10-19_21h15.03.025,forced_choiceRT,2021.1.2,Win32,59.99160118,,,,,,,,,,,,,,,,,,,,,,
,0,f,1,0.5156,11,2,46,0,1,f.PNG,f,610325a6052741bbfb84bcd1,2021-10-19_21h15.03.025,forced_choiceRT,2021.1.2,Win32,59.99160118,,,,,,,,,,,,,,,,,,,,,,
,0,f,1,0.4813,11,3,47,0,1,f.PNG,f,610325a6052741bbfb84bcd1,2021-10-19_21h15.03.025,forced_choiceRT,2021.1.2,Win32,59.99160118,,,,,,,,,,,,,,,,,,,,,,
,0,f,1,0.4444,12,0,48,0,1,f.PNG,f,610325a6052741bbfb84bcd1,2021-10-19_21h15.03.025,forced_choiceRT,2021.1.2,Win32,59.99160118,,,,,,,,,,,,,,,,,,,,,,
,0,g,1,1.3761,12,1,49,1,1,g.PNG,g,610325a6052741bbfb84bcd1,2021-10-19_21h15.03.025,forced_choiceRT,2021.1.2,Win32,59.99160118,,,,,,,,,,,,,,,,,,,,,,
,0,g,1,0.5552,12,2,50,1,1,g.PNG,g,610325a6052741bbfb84bcd1,2021-10-19_21h15.03.025,forced_choiceRT,2021.1.2,Win32,59.99160118,,,,,,,,,,,,,,,,,,,,,,
,0,j,1,0.7007,12,3,51,3,1,j.PNG,j,610325a6052741bbfb84bcd1,2021-10-19_21h15.03.025,forced_choiceRT,2021.1.2,Win32,59.99160118,,,,,,,,,,,,,,,,,,,,,,
,0,h,1,1.065,13,0,52,2,1,h.PNG,h,610325a6052741bbfb84bcd1,2021-10-19_21h15.03.025,forced_choiceRT,2021.1.2,Win32,59.99160118,,,,,,,,,,,,,,,,,,,,,,
,0,f,1,0.6023,13,1,53,0,1,f.PNG,f,610325a6052741bbfb84bcd1,2021-10-19_21h15.03.025,forced_choiceRT,2021.1.2,Win32,59.99160118,,,,,,,,,,,,,,,,,,,,,,
,0,g,1,0.9219,13,2,54,1,1,g.PNG,g,610325a6052741bbfb84bcd1,2021-10-19_21h15.03.025,forced_choiceRT,2021.1.2,Win32,59.99160118,,,,,,,,,,,,,,,,,,,,,,
,0,h,1,0.7235,13,3,55,2,1,h.PNG,h,610325a6052741bbfb84bcd1,2021-10-19_21h15.03.025,forced_choiceRT,2021.1.2,Win32,59.99160118,,,,,,,,,,,,,,,,,,,,,,
,0,f,1,0.6465,14,0,56,0,1,f.PNG,f,610325a6052741bbfb84bcd1,2021-10-19_21h15.03.025,forced_choiceRT,2021.1.2,Win32,59.99160118,,,,,,,,,,,,,,,,,,,,,,
,0,f,1,0.6897,14,1,57,0,1,f.PNG,f,610325a6052741bbfb84bcd1,2021-10-19_21h15.03.025,forced_choiceRT,2021.1.2,Win32,59.99160118,,,,,,,,,,,,,,,,,,,,,,
,0,j,1,0.7372,14,2,58,3,1,j.PNG,j,610325a6052741bbfb84bcd1,2021-10-19_21h15.03.025,forced_choiceRT,2021.1.2,Win32,59.99160118,,,,,,,,,,,,,,,,,,,,,,
,0,h,1,1.1121,14,3,59,2,1,h.PNG,h,610325a6052741bbfb84bcd1,2021-10-19_21h15.03.025,forced_choiceRT,2021.1.2,Win32,59.99160118,,,,,,,,,,,,,,,,,,,,,,
,,,,,,,,,,,,610325a6052741bbfb84bcd1,2021-10-19_21h15.03.025,forced_choiceRT,2021.1.2,Win32,59.99160118,f,2.2994,0,0,0,0,1,,,,,,,,,,,,,,,
,,,,,,,,,,,,610325a6052741bbfb84bcd1,2021-10-19_21h15.03.025,forced_choiceRT,2021.1.2,Win32,59.99160118,f,1.9195,1,0,1,0,1,,,,,,,,,,,,,,,
,,,,,,,,,,,,610325a6052741bbfb84bcd1,2021-10-19_21h15.03.025,forced_choiceRT,2021.1.2,Win32,59.99160118,f,1.8197,2,0,2,0,1,,,,,,,,,,,,,,,
,,,,,,,,,,,,610325a6052741bbfb84bcd1,2021-10-19_21h15.03.025,forced_choiceRT,2021.1.2,Win32,59.99160118,f,2.1361,3,0,3,0,1,,,,,,,,,,,,,,,
,,,,,,,,,,,,610325a6052741bbfb84bcd1,2021-10-19_21h15.03.025,forced_choiceRT,2021.1.2,Win32,59.99160118,f,2.002,4,0,4,0,1,,,,,,,,,,,,,,,
,,,,,,,,,,,,610325a6052741bbfb84bcd1,2021-10-19_21h15.03.025,forced_choiceRT,2021.1.2,Win32,59.99160118,f,2.0005,5,0,5,0,1,,,,,,,,,,,,,,,
,,,,,,,,,,,,610325a6052741bbfb84bcd1,2021-10-19_21h15.03.025,forced_choiceRT,2021.1.2,Win32,59.99160118,f,2.1188,6,0,6,0,1,,,,,,,,,,,,,,,
,,,,,,,,,,,,610325a6052741bbfb84bcd1,2021-10-19_21h15.03.025,forced_choiceRT,2021.1.2,Win32,59.99160118,j,1.9567,7,0,7,0,1,,,,,,,,,,,,,,,
,,,,,,,,,,,,610325a6052741bbfb84bcd1,2021-10-19_21h15.03.025,forced_choiceRT,2021.1.2,Win32,59.99160118,f,1.928,8,0,8,0,1,,,,,,,,,,,,,,,
,,,,,,,,,,,,610325a6052741bbfb84bcd1,2021-10-19_21h15.03.025,forced_choiceRT,2021.1.2,Win32,59.99160118,f,1.9692,9,0,9,0,1,,,,,,,,,,,,,,,
,,,,,,,,,,,,610325a6052741bbfb84bcd1,2021-10-19_21h15.03.025,forced_choiceRT,2021.1.2,Win32,59.99160118,f,1.9712,10,0,10,0,1,,,,,,,,,,,,,,,
,,,,,,,,,,,,610325a6052741bbfb84bcd1,2021-10-19_21h15.03.025,forced_choiceRT,2021.1.2,Win32,59.99160118,f,1.9788,11,0,11,0,1,,,,,,,,,,,,,,,
,,,,,,,,,,,,610325a6052741bbfb84bcd1,2021-10-19_21h15.03.025,forced_choiceRT,2021.1.2,Win32,59.99160118,f,1.9973,12,0,12,0,1,,,,,,,,,,,,,,,
,,,,,,,,,,,,610325a6052741bbfb84bcd1,2021-10-19_21h15.03.025,forced_choiceRT,2021.1.2,Win32,59.99160118,h,2.0278,13,0,13,0,1,,,,,,,,,,,,,,,
,,,,,,,,,,,,610325a6052741bbfb84bcd1,2021-10-19_21h15.03.025,forced_choiceRT,2021.1.2,Win32,59.99160118,h,1.9787,14,0,14,0,1,,,,,,,,,,,,,,,
,,,,,,,,,,,,610325a6052741bbfb84bcd1,2021-10-19_21h15.03.025,forced_choiceRT,2021.1.2,Win32,59.99160118,h,2.053,15,0,15,0,1,,,,,,,,,,,,,,,
,,,,,,,,,,,,610325a6052741bbfb84bcd1,2021-10-19_21h15.03.025,forced_choiceRT,2021.1.2,Win32,59.99160118,h,2.0785,16,0,16,0,1,,,,,,,,,,,,,,,
,,,,,,,,,,,,610325a6052741bbfb84bcd1,2021-10-19_21h15.03.025,forced_choiceRT,2021.1.2,Win32,59.99160118,h,1.9885,17,0,17,0,1,,,,,,,,,,,,,,,
,,,,,,,,,,,,610325a6052741bbfb84bcd1,2021-10-19_21h15.03.025,forced_choiceRT,2021.1.2,Win32,59.99160118,h,2.0023,18,0,18,0,1,,,,,,,,,,,,,,,
,,,,,,,,,,,,610325a6052741bbfb84bcd1,2021-10-19_21h15.03.025,forced_choiceRT,2021.1.2,Win32,59.99160118,h,2.0737,19,0,19,0,1,,,,,,,,,,,,,,,
,0.78,,,,,,,,,h.PNG,h,610325a6052741bbfb84bcd1,2021-10-19_21h15.03.025,forced_choiceRT,2021.1.2,Win32,59.99160118,,,,,,,,1,Ontime,h,1,2.0561,0,0,0,2,1,,,,,
,0.41,,,,,,,,,g.PNG,g,610325a6052741bbfb84bcd1,2021-10-19_21h15.03.025,forced_choiceRT,2021.1.2,Win32,59.99160118,,,,,,,,1,Ontime,g,1,1.9669,0,1,1,1,1,,,,,
,1.26,,,,,,,,,f.PNG,f,610325a6052741bbfb84bcd1,2021-10-19_21h15.03.025,forced_choiceRT,2021.1.2,Win32,59.99160118,,,,,,,,1,Ontime,f,1,2.0578,0,2,2,0,1,,,,,
,0.89,,,,,,,,,f.PNG,f,610325a6052741bbfb84bcd1,2021-10-19_21h15.03.025,forced_choiceRT,2021.1.2,Win32,59.99160118,,,,,,,,1,Slow,f,1,2.1022,0,3,3,0,1,,,,,
,1.18,,,,,,,,,f.PNG,f,610325a6052741bbfb84bcd1,2021-10-19_21h15.03.025,forced_choiceRT,2021.1.2,Win32,59.99160118,,,,,,,,1,Ontime,f,1,1.9545,1,0,4,0,1,,,,,
,0.07,,,,,,,,,g.PNG,g,610325a6052741bbfb84bcd1,2021-10-19_21h15.03.025,forced_choiceRT,2021.1.2,Win32,59.99160118,,,,,,,,1,Fast,h,0,1.6185,1,1,5,1,1,,,,,
,1.17,,,,,,,,,h.PNG,h,610325a6052741bbfb84bcd1,2021-10-19_21h15.03.025,forced_choiceRT,2021.1.2,Win32,59.99160118,,,,,,,,1,Ontime,h,1,2.0536,1,2,6,2,1,,,,,
,0.12,,,,,,,,,f.PNG,f,610325a6052741bbfb84bcd1,2021-10-19_21h15.03.025,forced_choiceRT,2021.1.2,Win32,59.99160118,,,,,,,,1,Ontime,f,1,1.9991,1,3,7,0,1,,,,,
,1.5,,,,,,,,,h.PNG,h,610325a6052741bbfb84bcd1,2021-10-19_21h15.03.025,forced_choiceRT,2021.1.2,Win32,59.99160118,,,,,,,,1,Slow,h,1,2.2807,2,0,8,2,1,,,,,
,0.01,,,,,,,,,f.PNG,f,610325a6052741bbfb84bcd1,2021-10-19_21h15.03.025,forced_choiceRT,2021.1.2,Win32,59.99160118,,,,,,,,1,Ontime,f,1,2.0104,2,1,9,0,1,,,,,
,1.53,,,,,,,,,j.PNG,j,610325a6052741bbfb84bcd1,2021-10-19_21h15.03.025,forced_choiceRT,2021.1.2,Win32,59.99160118,,,,,,,,1,Slow,h,0,2.163,2,2,10,3,1,,,,,
,1.37,,,,,,,,,j.PNG,j,610325a6052741bbfb84bcd1,2021-10-19_21h15.03.025,forced_choiceRT,2021.1.2,Win32,59.99160118,,,,,,,,1,Slow,j,1,2.1099,2,3,11,3,1,,,,,
,0.81,,,,,,,,,h.PNG,h,610325a6052741bbfb84bcd1,2021-10-19_21h15.03.025,forced_choiceRT,2021.1.2,Win32,59.99160118,,,,,,,,1,Ontime,g,0,1.9221,3,0,12,2,1,,,,,
,0.16,,,,,,,,,f.PNG,f,610325a6052741bbfb84bcd1,2021-10-19_21h15.03.025,forced_choiceRT,2021.1.2,Win32,59.99160118,,,,,,,,1,Ontime,f,1,1.9545,3,1,13,0,1,,,,,
,1.63,,,,,,,,,f.PNG,f,610325a6052741bbfb84bcd1,2021-10-19_21h15.03.025,forced_choiceRT,2021.1.2,Win32,59.99160118,,,,,,,,1,Slow,h,0,2.1189,3,2,14,0,1,,,,,
,1.52,,,,,,,,,h.PNG,h,610325a6052741bbfb84bcd1,2021-10-19_21h15.03.025,forced_choiceRT,2021.1.2,Win32,59.99160118,,,,,,,,1,Slow,h,1,2.2387,3,3,15,2,1,,,,,
,0.08,,,,,,,,,g.PNG,g,610325a6052741bbfb84bcd1,2021-10-19_21h15.03.025,forced_choiceRT,2021.1.2,Win32,59.99160118,,,,,,,,1,Ontime,g,1,2.0319,4,0,16,1,1,,,,,
,1.31,,,,,,,,,h.PNG,h,610325a6052741bbfb84bcd1,2021-10-19_21h15.03.025,forced_choiceRT,2021.1.2,Win32,59.99160118,,,,,,,,1,Slow,j,0,2.1281,4,1,17,2,1,,,,,
,0.16,,,,,,,,,f.PNG,f,610325a6052741bbfb84bcd1,2021-10-19_21h15.03.025,forced_choiceRT,2021.1.2,Win32,59.99160118,,,,,,,,1,Ontime,f,1,1.9609,4,2,18,0,1,,,,,
,1.73,,,,,,,,,g.PNG,g,610325a6052741bbfb84bcd1,2021-10-19_21h15.03.025,forced_choiceRT,2021.1.2,Win32,59.99160118,,,,,,,,1,Slow,g,1,2.2357,4,3,19,1,1,,,,,
,1.18,,,,,,,,,f.PNG,f,610325a6052741bbfb84bcd1,2021-10-19_21h15.03.025,forced_choiceRT,2021.1.2,Win32,59.99160118,,,,,,,,1,Ontime,f,1,2.0108,5,0,20,0,1,,,,,
,1.81,,,,,,,,,j.PNG,j,610325a6052741bbfb84bcd1,2021-10-19_21h15.03.025,forced_choiceRT,2021.1.2,Win32,59.99160118,,,,,,,,1,Ontime,h,0,2.0565,5,1,21,3,1,,,,,
,1.89,,,,,,,,,j.PNG,j,610325a6052741bbfb84bcd1,2021-10-19_21h15.03.025,forced_choiceRT,2021.1.2,Win32,59.99160118,,,,,,,,1,Slow,j,1,2.2389,5,2,22,3,1,,,,,
,1.08,,,,,,,,,g.PNG,g,610325a6052741bbfb84bcd1,2021-10-19_21h15.03.025,forced_choiceRT,2021.1.2,Win32,59.99160118,,,,,,,,1,Fast,g,1,1.8304,5,3,23,1,1,,,,,
,1.07,,,,,,,,,g.PNG,g,610325a6052741bbfb84bcd1,2021-10-19_21h15.03.025,forced_choiceRT,2021.1.2,Win32,59.99160118,,,,,,,,1,Slow,g,1,2.1003,6,0,24,1,1,,,,,
,1.2,,,,,,,,,g.PNG,g,610325a6052741bbfb84bcd1,2021-10-19_21h15.03.025,forced_choiceRT,2021.1.2,Win32,59.99160118,,,,,,,,1,Ontime,g,1,2.0655,6,1,25,1,1,,,,,
,0.36,,,,,,,,,j.PNG,j,610325a6052741bbfb84bcd1,2021-10-19_21h15.03.025,forced_choiceRT,2021.1.2,Win32,59.99160118,,,,,,,,1,Ontime,j,1,1.9466,6,2,26,3,1,,,,,
,1.69,,,,,,,,,j.PNG,j,610325a6052741bbfb84bcd1,2021-10-19_21h15.03.025,forced_choiceRT,2021.1.2,Win32,59.99160118,,,,,,,,1,Ontime,h,0,2.0258,6,3,27,3,1,,,,,
,1.42,,,,,,,,,g.PNG,g,610325a6052741bbfb84bcd1,2021-10-19_21h15.03.025,forced_choiceRT,2021.1.2,Win32,59.99160118,,,,,,,,1,Ontime,g,1,2.0247,7,0,28,1,1,,,,,
,0.83,,,,,,,,,j.PNG,j,610325a6052741bbfb84bcd1,2021-10-19_21h15.03.025,forced_choiceRT,2021.1.2,Win32,59.99160118,,,,,,,,1,Ontime,j,1,1.9686,7,1,29,3,1,,,,,
,0.3,,,,,,,,,h.PNG,h,610325a6052741bbfb84bcd1,2021-10-19_21h15.03.025,forced_choiceRT,2021.1.2,Win32,59.99160118,,,,,,,,1,Ontime,h,1,2.0255,7,2,30,2,1,,,,,
,1.78,,,,,,,,,j.PNG,j,610325a6052741bbfb84bcd1,2021-10-19_21h15.03.025,forced_choiceRT,2021.1.2,Win32,59.99160118,,,,,,,,1,Slow,f,0,2.2356,7,3,31,3,1,,,,,
,1.56,,,,,,,,,j.PNG,j,610325a6052741bbfb84bcd1,2021-10-19_21h15.03.025,forced_choiceRT,2021.1.2,Win32,59.99160118,,,,,,,,1,Ontime,h,0,1.9436,8,0,32,3,1,,,,,
,0.54,,,,,,,,,f.PNG,f,610325a6052741bbfb84bcd1,2021-10-19_21h15.03.025,forced_choiceRT,2021.1.2,Win32,59.99160118,,,,,,,,1,Ontime,f,1,1.9879,8,1,33,0,1,,,,,
,0.26,,,,,,,,,g.PNG,g,610325a6052741bbfb84bcd1,2021-10-19_21h15.03.025,forced_choiceRT,2021.1.2,Win32,59.99160118,,,,,,,,1,Ontime,g,1,1.9612,8,2,34,1,1,,,,,
,0.72,,,,,,,,,j.PNG,j,610325a6052741bbfb84bcd1,2021-10-19_21h15.03.025,forced_choiceRT,2021.1.2,Win32,59.99160118,,,,,,,,1,Ontime,j,1,2.0193,8,3,35,3,1,,,,,
,0.01,,,,,,,,,h.PNG,h,610325a6052741bbfb84bcd1,2021-10-19_21h15.03.025,forced_choiceRT,2021.1.2,Win32,59.99160118,,,,,,,,1,Ontime,h,1,2.0621,9,0,36,2,1,,,,,
,1.72,,,,,,,,,h.PNG,h,610325a6052741bbfb84bcd1,2021-10-19_21h15.03.025,forced_choiceRT,2021.1.2,Win32,59.99160118,,,,,,,,1,Slow,g,0,2.2857,9,1,37,2,1,,,,,
,1.93,,,,,,,,,g.PNG,g,610325a6052741bbfb84bcd1,2021-10-19_21h15.03.025,forced_choiceRT,2021.1.2,Win32,59.99160118,,,,,,,,1,Slow,j,0,2.1557,9,2,38,1,1,,,,,
,1.81,,,,,,,,,h.PNG,h,610325a6052741bbfb84bcd1,2021-10-19_21h15.03.025,forced_choiceRT,2021.1.2,Win32,59.99160118,,,,,,,,1,Slow,g,0,2.1121,9,3,39,2,1,,,,,
,,,,,,,,,,,,610325a6052741bbfb84bcd1,2021-10-19_21h15.03.025,forced_choiceRT,2021.1.2,Win32,59.99160118,,,,,,,,,,,,,,,,,,0,0,0,0,1
,0.56,,,,,,,,,j.PNG,j,610325a6052741bbfb84bcd1,2021-10-19_21h15.03.025,forced_choiceRT,2021.1.2,Win32,59.99160118,,,,,,,,2,Ontime,j,1,2.0261,0,0,0,3,1,,,,,
,0.58,,,,,,,,,j.PNG,j,610325a6052741bbfb84bcd1,2021-10-19_21h15.03.025,forced_choiceRT,2021.1.2,Win32,59.99160118,,,,,,,,2,Ontime,j,1,1.9603,0,1,1,3,1,,,,,
,1.88,,,,,,,,,g.PNG,g,610325a6052741bbfb84bcd1,2021-10-19_21h15.03.025,forced_choiceRT,2021.1.2,Win32,59.99160118,,,,,,,,2,Ontime,g,1,2.0934,0,2,2,1,1,,,,,
,0.56,,,,,,,,,f.PNG,f,610325a6052741bbfb84bcd1,2021-10-19_21h15.03.025,forced_choiceRT,2021.1.2,Win32,59.99160118,,,,,,,,2,Ontime,f,1,2.0104,0,3,3,0,1,,,,,
,0.17,,,,,,,,,h.PNG,h,610325a6052741bbfb84bcd1,2021-10-19_21h15.03.025,forced_choiceRT,2021.1.2,Win32,59.99160118,,,,,,,,2,Ontime,h,1,1.9025,1,0,4,2,1,,,,,
,0.27,,,,,,,,,h.PNG,h,610325a6052741bbfb84bcd1,2021-10-19_21h15.03.025,forced_choiceRT,2021.1.2,Win32,59.99160118,,,,,,,,2,Ontime,g,0,1.9854,1,1,5,2,1,,,,,
,1.87,,,,,,,,,h.PNG,h,610325a6052741bbfb84bcd1,2021-10-19_21h15.03.025,forced_choiceRT,2021.1.2,Win32,59.99160118,,,,,,,,2,Slow,j,0,2.1291,1,2,6,2,1,,,,,
,1.85,,,,,,,,,h.PNG,h,610325a6052741bbfb84bcd1,2021-10-19_21h15.03.025,forced_choiceRT,2021.1.2,Win32,59.99160118,,,,,,,,2,Slow,h,1,2.1021,1,3,7,2,1,,,,,
,1.03,,,,,,,,,j.PNG,j,610325a6052741bbfb84bcd1,2021-10-19_21h15.03.025,forced_choiceRT,2021.1.2,Win32,59.99160118,,,,,,,,2,Ontime,j,1,1.9986,2,0,8,3,1,,,,,
,1.53,,,,,,,,,g.PNG,g,610325a6052741bbfb84bcd1,2021-10-19_21h15.03.025,forced_choiceRT,2021.1.2,Win32,59.99160118,,,,,,,,2,Ontime,f,0,2.0854,2,1,9,1,1,,,,,
,0.51,,,,,,,,,f.PNG,f,610325a6052741bbfb84bcd1,2021-10-19_21h15.03.025,forced_choiceRT,2021.1.2,Win32,59.99160118,,,,,,,,2,Ontime,f,1,1.9766,2,2,10,0,1,,,,,
,1.41,,,,,,,,,g.PNG,g,610325a6052741bbfb84bcd1,2021-10-19_21h15.03.025,forced_choiceRT,2021.1.2,Win32,59.99160118,,,,,,,,2,Fast,g,1,1.8531,2,3,11,1,1,,,,,
,0.39,,,,,,,,,j.PNG,j,610325a6052741bbfb84bcd1,2021-10-19_21h15.03.025,forced_choiceRT,2021.1.2,Win32,59.99160118,,,,,,,,2,Ontime,j,1,2.002,3,0,12,3,1,,,,,
,0.31,,,,,,,,,g.PNG,g,610325a6052741bbfb84bcd1,2021-10-19_21h15.03.025,forced_choiceRT,2021.1.2,Win32,59.99160118,,,,,,,,2,Ontime,g,1,2.011,3,1,13,1,1,,,,,
,1.08,,,,,,,,,j.PNG,j,610325a6052741bbfb84bcd1,2021-10-19_21h15.03.025,forced_choiceRT,2021.1.2,Win32,59.99160118,,,,,,,,2,Ontime,j,1,2.0501,3,2,14,3,1,,,,,
,0.73,,,,,,,,,h.PNG,h,610325a6052741bbfb84bcd1,2021-10-19_21h15.03.025,forced_choiceRT,2021.1.2,Win32,59.99160118,,,,,,,,2,Ontime,h,1,2.0361,3,3,15,2,1,,,,,
,1.06,,,,,,,,,j.PNG,j,610325a6052741bbfb84bcd1,2021-10-19_21h15.03.025,forced_choiceRT,2021.1.2,Win32,59.99160118,,,,,,,,2,Ontime,h,0,2.0065,4,0,16,3,1,,,,,
,0.34,,,,,,,,,g.PNG,g,610325a6052741bbfb84bcd1,2021-10-19_21h15.03.025,forced_choiceRT,2021.1.2,Win32,59.99160118,,,,,,,,2,Ontime,g,1,1.9474,4,1,17,1,1,,,,,
,0.37,,,,,,,,,f.PNG,f,610325a6052741bbfb84bcd1,2021-10-19_21h15.03.025,forced_choiceRT,2021.1.2,Win32,59.99160118,,,,,,,,2,Ontime,f,1,2.0207,4,2,18,0,1,,,,,
,1.35,,,,,,,,,f.PNG,f,610325a6052741bbfb84bcd1,2021-10-19_21h15.03.025,forced_choiceRT,2021.1.2,Win32,59.99160118,,,,,,,,2,Ontime,f,1,2.0239,4,3,19,0,1,,,,,
,0.6,,,,,,,,,h.PNG,h,610325a6052741bbfb84bcd1,2021-10-19_21h15.03.025,forced_choiceRT,2021.1.2,Win32,59.99160118,,,,,,,,2,Fast,h,1,1.8939,5,0,20,2,1,,,,,
,0.32,,,,,,,,,j.PNG,j,610325a6052741bbfb84bcd1,2021-10-19_21h15.03.025,forced_choiceRT,2021.1.2,Win32,59.99160118,,,,,,,,2,Ontime,j,1,1.9993,5,1,21,3,1,,,,,
,1.7,,,,,,,,,h.PNG,h,610325a6052741bbfb84bcd1,2021-10-19_21h15.03.025,forced_choiceRT,2021.1.2,Win32,59.99160118,,,,,,,,2,Slow,j,0,2.2156,5,2,22,2,1,,,,,
,1.42,,,,,,,,,f.PNG,f,610325a6052741bbfb84bcd1,2021-10-19_21h15.03.025,forced_choiceRT,2021.1.2,Win32,59.99160118,,,,,,,,2,Ontime,f,1,2.0187,5,3,23,0,1,,,,,
,1.67,,,,,,,,,f.PNG,f,610325a6052741bbfb84bcd1,2021-10-19_21h15.03.025,forced_choiceRT,2021.1.2,Win32,59.99160118,,,,,,,,2,Slow,g,0,2.1022,6,0,24,0,1,,,,,
,1.61,,,,,,,,,j.PNG,j,610325a6052741bbfb84bcd1,2021-10-19_21h15.03.025,forced_choiceRT,2021.1.2,Win32,59.99160118,,,,,,,,2,Slow,j,1,2.1522,6,1,25,3,1,,,,,
,1.01,,,,,,,,,h.PNG,h,610325a6052741bbfb84bcd1,2021-10-19_21h15.03.025,forced_choiceRT,2021.1.2,Win32,59.99160118,,,,,,,,2,Ontime,h,1,1.9237,6,2,26,2,1,,,,,
,1.08,,,,,,,,,j.PNG,j,610325a6052741bbfb84bcd1,2021-10-19_21h15.03.025,forced_choiceRT,2021.1.2,Win32,59.99160118,,,,,,,,2,Ontime,j,1,1.9996,6,3,27,3,1,,,,,
,0.4,,,,,,,,,g.PNG,g,610325a6052741bbfb84bcd1,2021-10-19_21h15.03.025,forced_choiceRT,2021.1.2,Win32,59.99160118,,,,,,,,2,Ontime,g,1,2.076,7,0,28,1,1,,,,,
,0.69,,,,,,,,,j.PNG,j,610325a6052741bbfb84bcd1,2021-10-19_21h15.03.025,forced_choiceRT,2021.1.2,Win32,59.99160118,,,,,,,,2,Ontime,j,1,1.9592,7,1,29,3,1,,,,,
,0.4,,,,,,,,,g.PNG,g,610325a6052741bbfb84bcd1,2021-10-19_21h15.03.025,forced_choiceRT,2021.1.2,Win32,59.99160118,,,,,,,,2,Ontime,g,1,2.0438,7,2,30,1,1,,,,,
,1.68,,,,,,,,,g.PNG,g,610325a6052741bbfb84bcd1,2021-10-19_21h15.03.025,forced_choiceRT,2021.1.2,Win32,59.99160118,,,,,,,,2,Slow,h,0,2.2331,7,3,31,1,1,,,,,
,1.92,,,,,,,,,h.PNG,h,610325a6052741bbfb84bcd1,2021-10-19_21h15.03.025,forced_choiceRT,2021.1.2,Win32,59.99160118,,,,,,,,2,Slow,h,1,2.108,8,0,32,2,1,,,,,
,0.67,,,,,,,,,g.PNG,g,610325a6052741bbfb84bcd1,2021-10-19_21h15.03.025,forced_choiceRT,2021.1.2,Win32,59.99160118,,,,,,,,2,Ontime,g,1,2.0187,8,1,33,1,1,,,,,
,1.27,,,,,,,,,f.PNG,f,610325a6052741bbfb84bcd1,2021-10-19_21h15.03.025,forced_choiceRT,2021.1.2,Win32,59.99160118,,,,,,,,2,Ontime,g,0,2.0051,8,2,34,0,1,,,,,
,1.1,,,,,,,,,g.PNG,g,610325a6052741bbfb84bcd1,2021-10-19_21h15.03.025,forced_choiceRT,2021.1.2,Win32,59.99160118,,,,,,,,2,Slow,g,1,2.1302,8,3,35,1,1,,,,,
,0.81,,,,,,,,,h.PNG,h,610325a6052741bbfb84bcd1,2021-10-19_21h15.03.025,forced_choiceRT,2021.1.2,Win32,59.99160118,,,,,,,,2,Ontime,h,1,2.0599,9,0,36,2,1,,,,,
,0.2,,,,,,,,,f.PNG,f,610325a6052741bbfb84bcd1,2021-10-19_21h15.03.025,forced_choiceRT,2021.1.2,Win32,59.99160118,,,,,,,,2,Fast,f,1,1.8956,9,1,37,0,1,,,,,
,0.29,,,,,,,,,f.PNG,f,610325a6052741bbfb84bcd1,2021-10-19_21h15.03.025,forced_choiceRT,2021.1.2,Win32,59.99160118,,,,,,,,2,Ontime,f,1,2.0021,9,2,38,0,1,,,,,
,1.75,,,,,,,,,f.PNG,f,610325a6052741bbfb84bcd1,2021-10-19_21h15.03.025,forced_choiceRT,2021.1.2,Win32,59.99160118,,,,,,,,2,Slow,f,1,2.3095,9,3,39,0,1,,,,,
,,,,,,,,,,,,610325a6052741bbfb84bcd1,2021-10-19_21h15.03.025,forced_choiceRT,2021.1.2,Win32,59.99160118,,,,,,,,,,,,,,,,,,1,0,1,0,1
,0.01,,,,,,,,,h.PNG,h,610325a6052741bbfb84bcd1,2021-10-19_21h15.03.025,forced_choiceRT,2021.1.2,Win32,59.99160118,,,,,,,,3,Ontime,h,1,2.0225,0,0,0,2,1,,,,,
,0.08,,,,,,,,,j.PNG,j,610325a6052741bbfb84bcd1,2021-10-19_21h15.03.025,forced_choiceRT,2021.1.2,Win32,59.99160118,,,,,,,,3,Ontime,j,1,1.9323,0,1,1,3,1,,,,,
,1.27,,,,,,,,,g.PNG,g,610325a6052741bbfb84bcd1,2021-10-19_21h15.03.025,forced_choiceRT,2021.1.2,Win32,59.99160118,,,,,,,,3,Ontime,g,1,1.9394,0,2,2,1,1,,,,,
,1.49,,,,,,,,,f.PNG,f,610325a6052741bbfb84bcd1,2021-10-19_21h15.03.025,forced_choiceRT,2021.1.2,Win32,59.99160118,,,,,,,,3,Ontime,f,1,2.0355,0,3,3,0,1,,,,,
,0.9,,,,,,,,,j.PNG,j,610325a6052741bbfb84bcd1,2021-10-19_21h15.03.025,forced_choiceRT,2021.1.2,Win32,59.99160118,,,,,,,,3,Ontime,j,1,2.0025,1,0,4,3,1,,,,,
,0.07,,,,,,,,,j.PNG,j,610325a6052741bbfb84bcd1,2021-10-19_21h15.03.025,forced_choiceRT,2021.1.2,Win32,59.99160118,,,,,,,,3,Fast,j,1,1.8978,1,1,5,3,1,,,,,
,1.8,,,,,,,,,j.PNG,j,610325a6052741bbfb84bcd1,2021-10-19_21h15.03.025,forced_choiceRT,2021.1.2,Win32,59.99160118,,,,,,,,3,Slow,g,0,2.1357,1,2,6,3,1,,,,,
,0.06,,,,,,,,,g.PNG,g,610325a6052741bbfb84bcd1,2021-10-19_21h15.03.025,forced_choiceRT,2021.1.2,Win32,59.99160118,,,,,,,,3,Ontime,g,1,1.9533,1,3,7,1,1,,,,,
,1.2,,,,,,,,,j.PNG,j,610325a6052741bbfb84bcd1,2021-10-19_21h15.03.025,forced_choiceRT,2021.1.2,Win32,59.99160118,,,,,,,,3,Ontime,j,1,2.0402,2,0,8,3,1,,,,,
,0.01,,,,,,,,,h.PNG,h,610325a6052741bbfb84bcd1,2021-10-19_21h15.03.025,forced_choiceRT,2021.1.2,Win32,59.99160118,,,,,,,,3,Fast,h,1,1.8727,2,1,9,2,1,,,,,
,0.64,,,,,,,,,g.PNG,g,610325a6052741bbfb84bcd1,2021-10-19_21h15.03.025,forced_choiceRT,2021.1.2,Win32,59.99160118,,,,,,,,3,Ontime,g,1,2.0117,2,2,10,1,1,,,,,
,0.74,,,,,,,,,h.PNG,h,610325a6052741bbfb84bcd1,2021-10-19_21h15.03.025,forced_choiceRT,2021.1.2,Win32,59.99160118,,,,,,,,3,Ontime,h,1,2.0194,2,3,11,2,1,,,,,
,1.78,,,,,,,,,g.PNG,g,610325a6052741bbfb84bcd1,2021-10-19_21h15.03.025,forced_choiceRT,2021.1.2,Win32,59.99160118,,,,,,,,3,Ontime,j,0,2.0267,3,0,12,1,1,,,,,
,1.3,,,,,,,,,g.PNG,g,610325a6052741bbfb84bcd1,2021-10-19_21h15.03.025,forced_choiceRT,2021.1.2,Win32,59.99160118,,,,,,,,3,Slow,g,1,2.1436,3,1,13,1,1,,,,,
,1.21,,,,,,,,,f.PNG,f,610325a6052741bbfb84bcd1,2021-10-19_21h15.03.025,forced_choiceRT,2021.1.2,Win32,59.99160118,,,,,,,,3,Ontime,f,1,1.9638,3,2,14,0,1,,,,,
,0.44,,,,,,,,,g.PNG,g,610325a6052741bbfb84bcd1,2021-10-19_21h15.03.025,forced_choiceRT,2021.1.2,Win32,59.99160118,,,,,,,,3,Ontime,g,1,1.9196,3,3,15,1,1,,,,,
,1.77,,,,,,,,,h.PNG,h,610325a6052741bbfb84bcd1,2021-10-19_21h15.03.025,forced_choiceRT,2021.1.2,Win32,59.99160118,,,,,,,,3,Ontime,h,1,2.0688,4,0,16,2,1,,,,,
,0.17,,,,,,,,,f.PNG,f,610325a6052741bbfb84bcd1,2021-10-19_21h15.03.025,forced_choiceRT,2021.1.2,Win32,59.99160118,,,,,,,,3,Fast,f,1,1.8518,4,1,17,0,1,,,,,
,0.6,,,,,,,,,h.PNG,h,610325a6052741bbfb84bcd1,2021-10-19_21h15.03.025,forced_choiceRT,2021.1.2,Win32,59.99160118,,,,,,,,3,Ontime,g,0,1.9854,4,2,18,2,1,,,,,
,0.94,,,,,,,,,j.PNG,j,610325a6052741bbfb84bcd1,2021-10-19_21h15.03.025,forced_choiceRT,2021.1.2,Win32,59.99160118,,,,,,,,3,Ontime,j,1,2.0069,4,3,19,3,1,,,,,
,0.32,,,,,,,,,h.PNG,h,610325a6052741bbfb84bcd1,2021-10-19_21h15.03.025,forced_choiceRT,2021.1.2,Win32,59.99160118,,,,,,,,3,Fast,h,1,1.8347,5,0,20,2,1,,,,,
,1.62,,,,,,,,,j.PNG,j,610325a6052741bbfb84bcd1,2021-10-19_21h15.03.025,forced_choiceRT,2021.1.2,Win32,59.99160118,,,,,,,,3,Ontime,j,1,2.0811,5,1,21,3,1,,,,,
,1.47,,,,,,,,,h.PNG,h,610325a6052741bbfb84bcd1,2021-10-19_21h15.03.025,forced_choiceRT,2021.1.2,Win32,59.99160118,,,,,,,,3,Ontime,j,0,2.0789,5,2,22,2,1,,,,,
,0.68,,,,,,,,,f.PNG,f,610325a6052741bbfb84bcd1,2021-10-19_21h15.03.025,forced_choiceRT,2021.1.2,Win32,59.99160118,,,,,,,,3,Ontime,f,1,1.9898,5,3,23,0,1,,,,,
,0.31,,,,,,,,,j.PNG,j,610325a6052741bbfb84bcd1,2021-10-19_21h15.03.025,forced_choiceRT,2021.1.2,Win32,59.99160118,,,,,,,,3,Ontime,j,1,2.0215,6,0,24,3,1,,,,,
,0.91,,,,,,,,,g.PNG,g,610325a6052741bbfb84bcd1,2021-10-19_21h15.03.025,forced_choiceRT,2021.1.2,Win32,59.99160118,,,,,,,,3,Ontime,h,0,2.0094,6,1,25,1,1,,,,,
,0.95,,,,,,,,,f.PNG,f,610325a6052741bbfb84bcd1,2021-10-19_21h15.03.025,forced_choiceRT,2021.1.2,Win32,59.99160118,,,,,,,,3,Ontime,f,1,2.056,6,2,26,0,1,,,,,
,0.78,,,,,,,,,f.PNG,f,610325a6052741bbfb84bcd1,2021-10-19_21h15.03.025,forced_choiceRT,2021.1.2,Win32,59.99160118,,,,,,,,3,Ontime,f,1,1.9558,6,3,27,0,1,,,,,
,1.75,,,,,,,,,h.PNG,h,610325a6052741bbfb84bcd1,2021-10-19_21h15.03.025,forced_choiceRT,2021.1.2,Win32,59.99160118,,,,,,,,3,Ontime,h,1,2.0755,7,0,28,2,1,,,,,
,0.06,,,,,,,,,h.PNG,h,610325a6052741bbfb84bcd1,2021-10-19_21h15.03.025,forced_choiceRT,2021.1.2,Win32,59.99160118,,,,,,,,3,Ontime,h,1,1.9514,7,1,29,2,1,,,,,
,1.77,,,,,,,,,f.PNG,f,610325a6052741bbfb84bcd1,2021-10-19_21h15.03.025,forced_choiceRT,2021.1.2,Win32,59.99160118,,,,,,,,3,Ontime,j,0,2.072,7,2,30,0,1,,,,,
,1.42,,,,,,,,,h.PNG,h,610325a6052741bbfb84bcd1,2021-10-19_21h15.03.025,forced_choiceRT,2021.1.2,Win32,59.99160118,,,,,,,,3,Ontime,h,1,1.9819,7,3,31,2,1,,,,,
,0.68,,,,,,,,,g.PNG,g,610325a6052741bbfb84bcd1,2021-10-19_21h15.03.025,forced_choiceRT,2021.1.2,Win32,59.99160118,,,,,,,,3,Fast,g,1,1.867,8,0,32,1,1,,,,,
,1.66,,,,,,,,,f.PNG,f,610325a6052741bbfb84bcd1,2021-10-19_21h15.03.025,forced_choiceRT,2021.1.2,Win32,59.99160118,,,,,,,,3,Ontime,g,0,2.0689,8,1,33,0,1,,,,,
,1.05,,,,,,,,,g.PNG,g,610325a6052741bbfb84bcd1,2021-10-19_21h15.03.025,forced_choiceRT,2021.1.2,Win32,59.99160118,,,,,,,,3,Ontime,g,1,1.9605,8,2,34,1,1,,,,,
,1.58,,,,,,,,,f.PNG,f,610325a6052741bbfb84bcd1,2021-10-19_21h15.03.025,forced_choiceRT,2021.1.2,Win32,59.99160118,,,,,,,,3,Ontime,g,0,2.0632,8,3,35,0,1,,,,,
,0.18,,,,,,,,,f.PNG,f,610325a6052741bbfb84bcd1,2021-10-19_21h15.03.025,forced_choiceRT,2021.1.2,Win32,59.99160118,,,,,,,,3,Ontime,f,1,1.9091,9,0,36,0,1,,,,,
,1,,,,,,,,,j.PNG,j,610325a6052741bbfb84bcd1,2021-10-19_21h15.03.025,forced_choiceRT,2021.1.2,Win32,59.99160118,,,,,,,,3,Ontime,j,1,2.0058,9,1,37,3,1,,,,,
,1.68,,,,,,,,,g.PNG,g,610325a6052741bbfb84bcd1,2021-10-19_21h15.03.025,forced_choiceRT,2021.1.2,Win32,59.99160118,,,,,,,,3,Ontime,h,0,2.0895,9,2,38,1,1,,,,,
,1.66,,,,,,,,,j.PNG,j,610325a6052741bbfb84bcd1,2021-10-19_21h15.03.025,forced_choiceRT,2021.1.2,Win32,59.99160118,,,,,,,,3,Ontime,g,0,2.041,9,3,39,3,1,,,,,
,,,,,,,,,,,,610325a6052741bbfb84bcd1,2021-10-19_21h15.03.025,forced_choiceRT,2021.1.2,Win32,59.99160118,,,,,,,,,,,,,,,,,,2,0,2,0,1
,1.59,,,,,,,,,h.PNG,h,610325a6052741bbfb84bcd1,2021-10-19_21h15.03.025,forced_choiceRT,2021.1.2,Win32,59.99160118,,,,,,,,4,Slow,j,0,2.2937,0,0,0,2,1,,,,,
,0.56,,,,,,,,,f.PNG,f,610325a6052741bbfb84bcd1,2021-10-19_21h15.03.025,forced_choiceRT,2021.1.2,Win32,59.99160118,,,,,,,,4,Ontime,g,0,1.9598,0,1,1,0,1,,,,,
,0.6,,,,,,,,,f.PNG,f,610325a6052741bbfb84bcd1,2021-10-19_21h15.03.025,forced_choiceRT,2021.1.2,Win32,59.99160118,,,,,,,,4,Ontime,f,1,1.9367,0,2,2,0,1,,,,,
,1.45,,,,,,,,,h.PNG,h,610325a6052741bbfb84bcd1,2021-10-19_21h15.03.025,forced_choiceRT,2021.1.2,Win32,59.99160118,,,,,,,,4,Ontime,h,1,1.9729,0,3,3,2,1,,,,,
,0.15,,,,,,,,,h.PNG,h,610325a6052741bbfb84bcd1,2021-10-19_21h15.03.025,forced_choiceRT,2021.1.2,Win32,59.99160118,,,,,,,,4,Ontime,h,1,1.9061,1,0,4,2,1,,,,,
,0.02,,,,,,,,,j.PNG,j,610325a6052741bbfb84bcd1,2021-10-19_21h15.03.025,forced_choiceRT,2021.1.2,Win32,59.99160118,,,,,,,,4,Ontime,j,1,1.9102,1,1,5,3,1,,,,,
,1.84,,,,,,,,,g.PNG,g,610325a6052741bbfb84bcd1,2021-10-19_21h15.03.025,forced_choiceRT,2021.1.2,Win32,59.99160118,,,,,,,,4,Slow,g,1,2.1227,1,2,6,1,1,,,,,
,0.36,,,,,,,,,f.PNG,f,610325a6052741bbfb84bcd1,2021-10-19_21h15.03.025,forced_choiceRT,2021.1.2,Win32,59.99160118,,,,,,,,4,Ontime,f,1,1.9408,1,3,7,0,1,,,,,
,1.99,,,,,,,,,j.PNG,j,610325a6052741bbfb84bcd1,2021-10-19_21h15.03.025,forced_choiceRT,2021.1.2,Win32,59.99160118,,,,,,,,4,Slow,j,1,2.2453,2,0,8,3,1,,,,,
,1.81,,,,,,,,,h.PNG,h,610325a6052741bbfb84bcd1,2021-10-19_21h15.03.025,forced_choiceRT,2021.1.2,Win32,59.99160118,,,,,,,,4,Ontime,h,1,2.0433,2,1,9,2,1,,,,,
,0.29,,,,,,,,,h.PNG,h,610325a6052741bbfb84bcd1,2021-10-19_21h15.03.025,forced_choiceRT,2021.1.2,Win32,59.99160118,,,,,,,,4,Ontime,h,1,1.9407,2,2,10,2,1,,,,,
,0.97,,,,,,,,,f.PNG,f,610325a6052741bbfb84bcd1,2021-10-19_21h15.03.025,forced_choiceRT,2021.1.2,Win32,59.99160118,,,,,,,,4,Ontime,f,1,2.0933,2,3,11,0,1,,,,,
,0.83,,,,,,,,,g.PNG,g,610325a6052741bbfb84bcd1,2021-10-19_21h15.03.025,forced_choiceRT,2021.1.2,Win32,59.99160118,,,,,,,,4,Ontime,g,1,2.0533,3,0,12,1,1,,,,,
,0.46,,,,,,,,,h.PNG,h,610325a6052741bbfb84bcd1,2021-10-19_21h15.03.025,forced_choiceRT,2021.1.2,Win32,59.99160118,,,,,,,,4,Ontime,h,1,1.9191,3,1,13,2,1,,,,,
,1.68,,,,,,,,,f.PNG,f,610325a6052741bbfb84bcd1,2021-10-19_21h15.03.025,forced_choiceRT,2021.1.2,Win32,59.99160118,,,,,,,,4,Ontime,g,0,1.9964,3,2,14,0,1,,,,,
,1.02,,,,,,,,,f.PNG,f,610325a6052741bbfb84bcd1,2021-10-19_21h15.03.025,forced_choiceRT,2021.1.2,Win32,59.99160118,,,,,,,,4,Ontime,f,1,2.0108,3,3,15,0,1,,,,,
,0.87,,,,,,,,,j.PNG,j,610325a6052741bbfb84bcd1,2021-10-19_21h15.03.025,forced_choiceRT,2021.1.2,Win32,59.99160118,,,,,,,,4,Ontime,j,1,1.9855,4,0,16,3,1,,,,,
,1.49,,,,,,,,,h.PNG,h,610325a6052741bbfb84bcd1,2021-10-19_21h15.03.025,forced_choiceRT,2021.1.2,Win32,59.99160118,,,,,,,,4,Slow,h,1,2.1907,4,1,17,2,1,,,,,
,0.29,,,,,,,,,h.PNG,h,610325a6052741bbfb84bcd1,2021-10-19_21h15.03.025,forced_choiceRT,2021.1.2,Win32,59.99160118,,,,,,,,4,Ontime,h,1,1.9096,4,2,18,2,1,,,,,
,0.75,,,,,,,,,g.PNG,g,610325a6052741bbfb84bcd1,2021-10-19_21h15.03.025,forced_choiceRT,2021.1.2,Win32,59.99160118,,,,,,,,4,Ontime,g,1,1.9187,4,3,19,1,1,,,,,
,1.49,,,,,,,,,f.PNG,f,610325a6052741bbfb84bcd1,2021-10-19_21h15.03.025,forced_choiceRT,2021.1.2,Win32,59.99160118,,,,,,,,4,Ontime,f,1,2.0334,5,0,20,0,1,,,,,
,0.57,,,,,,,,,h.PNG,h,610325a6052741bbfb84bcd1,2021-10-19_21h15.03.025,forced_choiceRT,2021.1.2,Win32,59.99160118,,,,,,,,4,Ontime,h,1,1.902,5,1,21,2,1,,,,,
,1.32,,,,,,,,,f.PNG,f,610325a6052741bbfb84bcd1,2021-10-19_21h15.03.025,forced_choiceRT,2021.1.2,Win32,59.99160118,,,,,,,,4,Fast,f,1,1.8258,5,2,22,0,1,,,,,
,0.41,,,,,,,,,h.PNG,h,610325a6052741bbfb84bcd1,2021-10-19_21h15.03.025,forced_choiceRT,2021.1.2,Win32,59.99160118,,,,,,,,4,Ontime,h,1,1.9992,5,3,23,2,1,,,,,
,0.59,,,,,,,,,f.PNG,f,610325a6052741bbfb84bcd1,2021-10-19_21h15.03.025,forced_choiceRT,2021.1.2,Win32,59.99160118,,,,,,,,4,Ontime,f,1,1.9942,6,0,24,0,1,,,,,
,1.2,,,,,,,,,j.PNG,j,610325a6052741bbfb84bcd1,2021-10-19_21h15.03.025,forced_choiceRT,2021.1.2,Win32,59.99160118,,,,,,,,4,Ontime,j,1,2.0127,6,1,25,3,1,,,,,
,1.94,,,,,,,,,j.PNG,j,610325a6052741bbfb84bcd1,2021-10-19_21h15.03.025,forced_choiceRT,2021.1.2,Win32,59.99160118,,,,,,,,4,Slow,j,1,11.5407,6,2,26,3,1,,,,,
,1.84,,,,,,,,,g.PNG,g,610325a6052741bbfb84bcd1,2021-10-19_21h15.03.025,forced_choiceRT,2021.1.2,Win32,59.99160118,,,,,,,,4,Ontime,j,0,2.0832,6,3,27,1,1,,,,,
,0.68,,,,,,,,,f.PNG,f,610325a6052741bbfb84bcd1,2021-10-19_21h15.03.025,forced_choiceRT,2021.1.2,Win32,59.99160118,,,,,,,,4,Ontime,f,1,2.0313,7,0,28,0,1,,,,,
,1.85,,,,,,,,,j.PNG,j,610325a6052741bbfb84bcd1,2021-10-19_21h15.03.025,forced_choiceRT,2021.1.2,Win32,59.99160118,,,,,,,,4,Ontime,h,0,2.0175,7,1,29,3,1,,,,,
,0.59,,,,,,,,,g.PNG,g,610325a6052741bbfb84bcd1,2021-10-19_21h15.03.025,forced_choiceRT,2021.1.2,Win32,59.99160118,,,,,,,,4,Ontime,g,1,1.99,7,2,30,1,1,,,,,
,1.89,,,,,,,,,g.PNG,g,610325a6052741bbfb84bcd1,2021-10-19_21h15.03.025,forced_choiceRT,2021.1.2,Win32,59.99160118,,,,,,,,4,Ontime,j,0,2.0195,7,3,31,1,1,,,,,
,0.14,,,,,,,,,j.PNG,j,610325a6052741bbfb84bcd1,2021-10-19_21h15.03.025,forced_choiceRT,2021.1.2,Win32,59.99160118,,,,,,,,4,Ontime,j,1,1.9438,8,0,32,3,1,,,,,
,1.82,,,,,,,,,g.PNG,g,610325a6052741bbfb84bcd1,2021-10-19_21h15.03.025,forced_choiceRT,2021.1.2,Win32,59.99160118,,,,,,,,4,Ontime,h,0,2.0279,8,1,33,1,1,,,,,
,1.5,,,,,,,,,j.PNG,j,610325a6052741bbfb84bcd1,2021-10-19_21h15.03.025,forced_choiceRT,2021.1.2,Win32,59.99160118,,,,,,,,4,Ontime,h,0,1.9149,8,2,34,3,1,,,,,
,1.83,,,,,,,,,g.PNG,g,610325a6052741bbfb84bcd1,2021-10-19_21h15.03.025,forced_choiceRT,2021.1.2,Win32,59.99160118,,,,,,,,4,Ontime,h,0,2.016,8,3,35,1,1,,,,,
,1.24,,,,,,,,,j.PNG,j,610325a6052741bbfb84bcd1,2021-10-19_21h15.03.025,forced_choiceRT,2021.1.2,Win32,59.99160118,,,,,,,,4,Ontime,j,1,1.9205,9,0,36,3,1,,,,,
,0.94,,,,,,,,,j.PNG,j,610325a6052741bbfb84bcd1,2021-10-19_21h15.03.025,forced_choiceRT,2021.1.2,Win32,59.99160118,,,,,,,,4,Ontime,j,1,1.9519,9,1,37,3,1,,,,,
,1.31,,,,,,,,,g.PNG,g,610325a6052741bbfb84bcd1,2021-10-19_21h15.03.025,forced_choiceRT,2021.1.2,Win32,59.99160118,,,,,,,,4,Ontime,j,0,2.0557,9,2,38,1,1,,,,,
,1.08,,,,,,,,,g.PNG,g,610325a6052741bbfb84bcd1,2021-10-19_21h15.03.025,forced_choiceRT,2021.1.2,Win32,59.99160118,,,,,,,,4,Fast,g,1,1.897,9,3,39,1,1,,,,,
,,,,,,,,,,,,610325a6052741bbfb84bcd1,2021-10-19_21h15.03.025,forced_choiceRT,2021.1.2,Win32,59.99160118,,,,,,,,,,,,,,,,,,3,0,3,0,1
,1.47,,,,,,,,,g.PNG,g,610325a6052741bbfb84bcd1,2021-10-19_21h15.03.025,forced_choiceRT,2021.1.2,Win32,59.99160118,,,,,,,,5,Ontime,g,1,2.0773,0,0,0,1,1,,,,,
,0.38,,,,,,,,,j.PNG,j,610325a6052741bbfb84bcd1,2021-10-19_21h15.03.025,forced_choiceRT,2021.1.2,Win32,59.99160118,,,,,,,,5,Slow,j,1,2.1051,0,1,1,3,1,,,,,
,0.02,,,,,,,,,j.PNG,j,610325a6052741bbfb84bcd1,2021-10-19_21h15.03.025,forced_choiceRT,2021.1.2,Win32,59.99160118,,,,,,,,5,Ontime,j,1,2.0201,0,2,2,3,1,,,,,
,0.17,,,,,,,,,f.PNG,f,610325a6052741bbfb84bcd1,2021-10-19_21h15.03.025,forced_choiceRT,2021.1.2,Win32,59.99160118,,,,,,,,5,Ontime,f,1,1.9853,0,3,3,0,1,,,,,
,0.49,,,,,,,,,f.PNG,f,610325a6052741bbfb84bcd1,2021-10-19_21h15.03.025,forced_choiceRT,2021.1.2,Win32,59.99160118,,,,,,,,5,Ontime,f,1,1.983,1,0,4,0,1,,,,,
,0.48,,,,,,,,,f.PNG,f,610325a6052741bbfb84bcd1,2021-10-19_21h15.03.025,forced_choiceRT,2021.1.2,Win32,59.99160118,,,,,,,,5,Ontime,f,1,1.9702,1,1,5,0,1,,,,,
,1.72,,,,,,,,,j.PNG,j,610325a6052741bbfb84bcd1,2021-10-19_21h15.03.025,forced_choiceRT,2021.1.2,Win32,59.99160118,,,,,,,,5,Ontime,j,1,1.9812,1,2,6,3,1,,,,,
,1.9,,,,,,,,,f.PNG,f,610325a6052741bbfb84bcd1,2021-10-19_21h15.03.025,forced_choiceRT,2021.1.2,Win32,59.99160118,,,,,,,,5,Ontime,h,0,2.0643,1,3,7,0,1,,,,,
,0.97,,,,,,,,,h.PNG,h,610325a6052741bbfb84bcd1,2021-10-19_21h15.03.025,forced_choiceRT,2021.1.2,Win32,59.99160118,,,,,,,,5,Ontime,h,1,2.0361,2,0,8,2,1,,,,,
,0.83,,,,,,,,,h.PNG,h,610325a6052741bbfb84bcd1,2021-10-19_21h15.03.025,forced_choiceRT,2021.1.2,Win32,59.99160118,,,,,,,,5,Fast,h,1,1.8872,2,1,9,2,1,,,,,
,1.23,,,,,,,,,h.PNG,h,610325a6052741bbfb84bcd1,2021-10-19_21h15.03.025,forced_choiceRT,2021.1.2,Win32,59.99160118,,,,,,,,5,Ontime,h,1,1.9557,2,2,10,2,1,,,,,
,1.51,,,,,,,,,h.PNG,h,610325a6052741bbfb84bcd1,2021-10-19_21h15.03.025,forced_choiceRT,2021.1.2,Win32,59.99160118,,,,,,,,5,Ontime,h,1,2.0708,2,3,11,2,1,,,,,
,0.81,,,,,,,,,g.PNG,g,610325a6052741bbfb84bcd1,2021-10-19_21h15.03.025,forced_choiceRT,2021.1.2,Win32,59.99160118,,,,,,,,5,Ontime,g,1,2.0354,3,0,12,1,1,,,,,
,1.74,,,,,,,,,f.PNG,f,610325a6052741bbfb84bcd1,2021-10-19_21h15.03.025,forced_choiceRT,2021.1.2,Win32,59.99160118,,,,,,,,5,Ontime,j,0,2.0021,3,1,13,0,1,,,,,
,1.09,,,,,,,,,j.PNG,j,610325a6052741bbfb84bcd1,2021-10-19_21h15.03.025,forced_choiceRT,2021.1.2,Win32,59.99160118,,,,,,,,5,Ontime,j,1,2.037,3,2,14,3,1,,,,,
,0.87,,,,,,,,,h.PNG,h,610325a6052741bbfb84bcd1,2021-10-19_21h15.03.025,forced_choiceRT,2021.1.2,Win32,59.99160118,,,,,,,,5,Ontime,j,0,1.9695,3,3,15,2,1,,,,,
,0.74,,,,,,,,,f.PNG,f,610325a6052741bbfb84bcd1,2021-10-19_21h15.03.025,forced_choiceRT,2021.1.2,Win32,59.99160118,,,,,,,,5,Ontime,f,1,2.048,4,0,16,0,1,,,,,
,0.53,,,,,,,,,j.PNG,j,610325a6052741bbfb84bcd1,2021-10-19_21h15.03.025,forced_choiceRT,2021.1.2,Win32,59.99160118,,,,,,,,5,Ontime,j,1,2.0577,4,1,17,3,1,,,,,
,0.62,,,,,,,,,g.PNG,g,610325a6052741bbfb84bcd1,2021-10-19_21h15.03.025,forced_choiceRT,2021.1.2,Win32,59.99160118,,,,,,,,5,Ontime,g,1,2.0831,4,2,18,1,1,,,,,
,1.12,,,,,,,,,j.PNG,j,610325a6052741bbfb84bcd1,2021-10-19_21h15.03.025,forced_choiceRT,2021.1.2,Win32,59.99160118,,,,,,,,5,Ontime,j,1,2.032,4,3,19,3,1,,,,,
,0.54,,,,,,,,,h.PNG,h,610325a6052741bbfb84bcd1,2021-10-19_21h15.03.025,forced_choiceRT,2021.1.2,Win32,59.99160118,,,,,,,,5,Ontime,h,1,2.0484,5,0,20,2,1,,,,,
,1.99,,,,,,,,,g.PNG,g,610325a6052741bbfb84bcd1,2021-10-19_21h15.03.025,forced_choiceRT,2021.1.2,Win32,59.99160118,,,,,,,,5,Slow,h,0,2.1104,5,1,21,1,1,,,,,
,0.85,,,,,,,,,j.PNG,j,610325a6052741bbfb84bcd1,2021-10-19_21h15.03.025,forced_choiceRT,2021.1.2,Win32,59.99160118,,,,,,,,5,Ontime,j,1,2.062,5,2,22,3,1,,,,,
,1.56,,,,,,,,,j.PNG,j,610325a6052741bbfb84bcd1,2021-10-19_21h15.03.025,forced_choiceRT,2021.1.2,Win32,59.99160118,,,,,,,,5,Slow,j,1,2.4219,5,3,23,3,1,,,,,
,0.17,,,,,,,,,f.PNG,f,610325a6052741bbfb84bcd1,2021-10-19_21h15.03.025,forced_choiceRT,2021.1.2,Win32,59.99160118,,,,,,,,5,Ontime,f,1,2.0025,6,0,24,0,1,,,,,
,1.58,,,,,,,,,f.PNG,f,610325a6052741bbfb84bcd1,2021-10-19_21h15.03.025,forced_choiceRT,2021.1.2,Win32,59.99160118,,,,,,,,5,Slow,f,1,2.1461,6,1,25,0,1,,,,,
,0.1,,,,,,,,,g.PNG,g,610325a6052741bbfb84bcd1,2021-10-19_21h15.03.025,forced_choiceRT,2021.1.2,Win32,59.99160118,,,,,,,,5,Ontime,g,1,2.0447,6,2,26,1,1,,,,,
,1.23,,,,,,,,,j.PNG,j,610325a6052741bbfb84bcd1,2021-10-19_21h15.03.025,forced_choiceRT,2021.1.2,Win32,59.99160118,,,,,,,,5,Ontime,j,1,2.0807,6,3,27,3,1,,,,,
,0.92,,,,,,,,,g.PNG,g,610325a6052741bbfb84bcd1,2021-10-19_21h15.03.025,forced_choiceRT,2021.1.2,Win32,59.99160118,,,,,,,,5,Slow,g,1,2.1689,7,0,28,1,1,,,,,
,1.87,,,,,,,,,f.PNG,f,610325a6052741bbfb84bcd1,2021-10-19_21h15.03.025,forced_choiceRT,2021.1.2,Win32,59.99160118,,,,,,,,5,Slow,h,0,2.1029,7,1,29,0,1,,,,,
,0.47,,,,,,,,,h.PNG,h,610325a6052741bbfb84bcd1,2021-10-19_21h15.03.025,forced_choiceRT,2021.1.2,Win32,59.99160118,,,,,,,,5,Fast,h,1,1.5772,7,2,30,2,1,,,,,
,1.02,,,,,,,,,h.PNG,h,610325a6052741bbfb84bcd1,2021-10-19_21h15.03.025,forced_choiceRT,2021.1.2,Win32,59.99160118,,,,,,,,5,Ontime,h,1,2.0845,7,3,31,2,1,,,,,
,1.96,,,,,,,,,g.PNG,g,610325a6052741bbfb84bcd1,2021-10-19_21h15.03.025,forced_choiceRT,2021.1.2,Win32,59.99160118,,,,,,,,5,Ontime,j,0,2.0769,8,0,32,1,1,,,,,
,1.61,,,,,,,,,g.PNG,g,610325a6052741bbfb84bcd1,2021-10-19_21h15.03.025,forced_choiceRT,2021.1.2,Win32,59.99160118,,,,,,,,5,Slow,g,1,2.3147,8,1,33,1,1,,,,,
,1.47,,,,,,,,,h.PNG,h,610325a6052741bbfb84bcd1,2021-10-19_21h15.03.025,forced_choiceRT,2021.1.2,Win32,59.99160118,,,,,,,,5,Slow,j,0,2.106,8,2,34,2,1,,,,,
,0.76,,,,,,,,,g.PNG,g,610325a6052741bbfb84bcd1,2021-10-19_21h15.03.025,forced_choiceRT,2021.1.2,Win32,59.99160118,,,,,,,,5,Fast,j,0,1.881,8,3,35,1,1,,,,,
,0.77,,,,,,,,,f.PNG,f,610325a6052741bbfb84bcd1,2021-10-19_21h15.03.025,forced_choiceRT,2021.1.2,Win32,59.99160118,,,,,,,,5,Ontime,h,0,2.0229,9,0,36,0,1,,,,,
,1.49,,,,,,,,,j.PNG,j,610325a6052741bbfb84bcd1,2021-10-19_21h15.03.025,forced_choiceRT,2021.1.2,Win32,59.99160118,,,,,,,,5,Fast,f,0,1.8269,9,1,37,3,1,,,,,
,0.27,,,,,,,,,g.PNG,g,610325a6052741bbfb84bcd1,2021-10-19_21h15.03.025,forced_choiceRT,2021.1.2,Win32,59.99160118,,,,,,,,5,Ontime,g,1,2.0844,9,2,38,1,1,,,,,
,1.89,,,,,,,,,h.PNG,h,610325a6052741bbfb84bcd1,2021-10-19_21h15.03.025,forced_choiceRT,2021.1.2,Win32,59.99160118,,,,,,,,5,Ontime,j,0,1.9883,9,3,39,2,1,,,,,
,,,,,,,,,,,,610325a6052741bbfb84bcd1,2021-10-19_21h15.03.025,forced_choiceRT,2021.1.2,Win32,59.99160118,,,,,,,,,,,,,,,,,,4,0,4,0,1
,1.47,,,,,,,,,f.PNG,f,610325a6052741bbfb84bcd1,2021-10-19_21h15.03.025,forced_choiceRT,2021.1.2,Win32,59.99160118,,,,,,,,6,Slow,g,0,2.1213,0,0,0,0,1,,,,,
,1.59,,,,,,,,,j.PNG,j,610325a6052741bbfb84bcd1,2021-10-19_21h15.03.025,forced_choiceRT,2021.1.2,Win32,59.99160118,,,,,,,,6,Slow,h,0,2.1254,0,1,1,3,1,,,,,
,0.61,,,,,,,,,f.PNG,f,610325a6052741bbfb84bcd1,2021-10-19_21h15.03.025,forced_choiceRT,2021.1.2,Win32,59.99160118,,,,,,,,6,Ontime,f,1,2.0187,0,2,2,0,1,,,,,
,0.53,,,,,,,,,h.PNG,h,610325a6052741bbfb84bcd1,2021-10-19_21h15.03.025,forced_choiceRT,2021.1.2,Win32,59.99160118,,,,,,,,6,Ontime,h,1,1.9192,0,3,3,2,1,,,,,
,0.67,,,,,,,,,f.PNG,f,610325a6052741bbfb84bcd1,2021-10-19_21h15.03.025,forced_choiceRT,2021.1.2,Win32,59.99160118,,,,,,,,6,Ontime,f,1,2.028,1,0,4,0,1,,,,,
,1.58,,,,,,,,,f.PNG,f,610325a6052741bbfb84bcd1,2021-10-19_21h15.03.025,forced_choiceRT,2021.1.2,Win32,59.99160118,,,,,,,,6,Slow,g,0,2.1021,1,1,5,0,1,,,,,
,1.38,,,,,,,,,h.PNG,h,610325a6052741bbfb84bcd1,2021-10-19_21h15.03.025,forced_choiceRT,2021.1.2,Win32,59.99160118,,,,,,,,6,Slow,h,1,2.1525,1,2,6,2,1,,,,,
,1.41,,,,,,,,,j.PNG,j,610325a6052741bbfb84bcd1,2021-10-19_21h15.03.025,forced_choiceRT,2021.1.2,Win32,59.99160118,,,,,,,,6,Ontime,j,1,2.022,1,3,7,3,1,,,,,
,1.21,,,,,,,,,h.PNG,h,610325a6052741bbfb84bcd1,2021-10-19_21h15.03.025,forced_choiceRT,2021.1.2,Win32,59.99160118,,,,,,,,6,Ontime,h,1,2.0021,2,0,8,2,1,,,,,
,1.01,,,,,,,,,j.PNG,j,610325a6052741bbfb84bcd1,2021-10-19_21h15.03.025,forced_choiceRT,2021.1.2,Win32,59.99160118,,,,,,,,6,Ontime,j,1,1.9845,2,1,9,3,1,,,,,
,1.18,,,,,,,,,h.PNG,h,610325a6052741bbfb84bcd1,2021-10-19_21h15.03.025,forced_choiceRT,2021.1.2,Win32,59.99160118,,,,,,,,6,Ontime,h,1,2.0604,2,2,10,2,1,,,,,
,1.61,,,,,,,,,f.PNG,f,610325a6052741bbfb84bcd1,2021-10-19_21h15.03.025,forced_choiceRT,2021.1.2,Win32,59.99160118,,,,,,,,6,Slow,f,1,2.2764,2,3,11,0,1,,,,,
,1.25,,,,,,,,,f.PNG,f,610325a6052741bbfb84bcd1,2021-10-19_21h15.03.025,forced_choiceRT,2021.1.2,Win32,59.99160118,,,,,,,,6,Slow,f,1,2.136,3,0,12,0,1,,,,,
,1.38,,,,,,,,,j.PNG,j,610325a6052741bbfb84bcd1,2021-10-19_21h15.03.025,forced_choiceRT,2021.1.2,Win32,59.99160118,,,,,,,,6,Slow,j,1,2.2023,3,1,13,3,1,,,,,
,1.41,,,,,,,,,g.PNG,g,610325a6052741bbfb84bcd1,2021-10-19_21h15.03.025,forced_choiceRT,2021.1.2,Win32,59.99160118,,,,,,,,6,Ontime,f,0,1.9519,3,2,14,1,1,,,,,
,1.98,,,,,,,,,g.PNG,g,610325a6052741bbfb84bcd1,2021-10-19_21h15.03.025,forced_choiceRT,2021.1.2,Win32,59.99160118,,,,,,,,6,Slow,j,0,2.2048,3,3,15,1,1,,,,,
,0.84,,,,,,,,,g.PNG,g,610325a6052741bbfb84bcd1,2021-10-19_21h15.03.025,forced_choiceRT,2021.1.2,Win32,59.99160118,,,,,,,,6,Fast,g,1,1.6984,4,0,16,1,1,,,,,
,0.9,,,,,,,,,j.PNG,j,610325a6052741bbfb84bcd1,2021-10-19_21h15.03.025,forced_choiceRT,2021.1.2,Win32,59.99160118,,,,,,,,6,Ontime,j,1,2.0144,4,1,17,3,1,,,,,
,1.86,,,,,,,,,f.PNG,f,610325a6052741bbfb84bcd1,2021-10-19_21h15.03.025,forced_choiceRT,2021.1.2,Win32,59.99160118,,,,,,,,6,Slow,h,0,2.1021,4,2,18,0,1,,,,,
,1.78,,,,,,,,,g.PNG,g,610325a6052741bbfb84bcd1,2021-10-19_21h15.03.025,forced_choiceRT,2021.1.2,Win32,59.99160118,,,,,,,,6,Slow,f,0,2.1022,4,3,19,1,1,,,,,
,1.12,,,,,,,,,h.PNG,h,610325a6052741bbfb84bcd1,2021-10-19_21h15.03.025,forced_choiceRT,2021.1.2,Win32,59.99160118,,,,,,,,6,Ontime,g,0,2.002,5,0,20,2,1,,,,,
,1.93,,,,,,,,,h.PNG,h,610325a6052741bbfb84bcd1,2021-10-19_21h15.03.025,forced_choiceRT,2021.1.2,Win32,59.99160118,,,,,,,,6,Ontime,h,1,2.0187,5,1,21,2,1,,,,,
,1.63,,,,,,,,,g.PNG,g,610325a6052741bbfb84bcd1,2021-10-19_21h15.03.025,forced_choiceRT,2021.1.2,Win32,59.99160118,,,,,,,,6,Slow,h,0,2.1546,5,2,22,1,1,,,,,
,0.11,,,,,,,,,j.PNG,j,610325a6052741bbfb84bcd1,2021-10-19_21h15.03.025,forced_choiceRT,2021.1.2,Win32,59.99160118,,,,,,,,6,Ontime,j,1,1.9687,5,3,23,3,1,,,,,
,0.95,,,,,,,,,g.PNG,g,610325a6052741bbfb84bcd1,2021-10-19_21h15.03.025,forced_choiceRT,2021.1.2,Win32,59.99160118,,,,,,,,6,Ontime,g,1,1.94,6,0,24,1,1,,,,,
,1.1,,,,,,,,,g.PNG,g,610325a6052741bbfb84bcd1,2021-10-19_21h15.03.025,forced_choiceRT,2021.1.2,Win32,59.99160118,,,,,,,,6,Ontime,g,1,2.0852,6,1,25,1,1,,,,,
,0.81,,,,,,,,,h.PNG,h,610325a6052741bbfb84bcd1,2021-10-19_21h15.03.025,forced_choiceRT,2021.1.2,Win32,59.99160118,,,,,,,,6,Ontime,h,1,1.9526,6,2,26,2,1,,,,,
,0.8,,,,,,,,,g.PNG,g,610325a6052741bbfb84bcd1,2021-10-19_21h15.03.025,forced_choiceRT,2021.1.2,Win32,59.99160118,,,,,,,,6,Ontime,g,1,1.9792,6,3,27,1,1,,,,,
,1.79,,,,,,,,,j.PNG,j,610325a6052741bbfb84bcd1,2021-10-19_21h15.03.025,forced_choiceRT,2021.1.2,Win32,59.99160118,,,,,,,,6,Ontime,h,0,2.0904,7,0,28,3,1,,,,,
,1.41,,,,,,,,,h.PNG,h,610325a6052741bbfb84bcd1,2021-10-19_21h15.03.025,forced_choiceRT,2021.1.2,Win32,59.99160118,,,,,,,,6,Slow,j,0,2.1187,7,1,29,2,1,,,,,
,0.48,,,,,,,,,h.PNG,h,610325a6052741bbfb84bcd1,2021-10-19_21h15.03.025,forced_choiceRT,2021.1.2,Win32,59.99160118,,,,,,,,6,Ontime,h,1,1.9842,7,2,30,2,1,,,,,
,1.23,,,,,,,,,g.PNG,g,610325a6052741bbfb84bcd1,2021-10-19_21h15.03.025,forced_choiceRT,2021.1.2,Win32,59.99160118,,,,,,,,6,Ontime,g,1,1.9573,7,3,31,1,1,,,,,
,0.79,,,,,,,,,f.PNG,f,610325a6052741bbfb84bcd1,2021-10-19_21h15.03.025,forced_choiceRT,2021.1.2,Win32,59.99160118,,,,,,,,6,Ontime,f,1,1.9603,8,0,32,0,1,,,,,
,1.63,,,,,,,,,f.PNG,f,610325a6052741bbfb84bcd1,2021-10-19_21h15.03.025,forced_choiceRT,2021.1.2,Win32,59.99160118,,,,,,,,6,Slow,f,1,2.1597,8,1,33,0,1,,,,,
,0.96,,,,,,,,,f.PNG,f,610325a6052741bbfb84bcd1,2021-10-19_21h15.03.025,forced_choiceRT,2021.1.2,Win32,59.99160118,,,,,,,,6,Ontime,f,1,1.9103,8,2,34,0,1,,,,,
,0.14,,,,,,,,,g.PNG,g,610325a6052741bbfb84bcd1,2021-10-19_21h15.03.025,forced_choiceRT,2021.1.2,Win32,59.99160118,,,,,,,,6,Ontime,g,1,1.9395,8,3,35,1,1,,,,,
,0.76,,,,,,,,,j.PNG,j,610325a6052741bbfb84bcd1,2021-10-19_21h15.03.025,forced_choiceRT,2021.1.2,Win32,59.99160118,,,,,,,,6,Ontime,j,1,1.9687,9,0,36,3,1,,,,,
,1.54,,,,,,,,,j.PNG,j,610325a6052741bbfb84bcd1,2021-10-19_21h15.03.025,forced_choiceRT,2021.1.2,Win32,59.99160118,,,,,,,,6,Ontime,h,0,2.0853,9,1,37,3,1,,,,,
,1.6,,,,,,,,,h.PNG,h,610325a6052741bbfb84bcd1,2021-10-19_21h15.03.025,forced_choiceRT,2021.1.2,Win32,59.99160118,,,,,,,,6,Ontime,g,0,1.9856,9,2,38,2,1,,,,,
,0.26,,,,,,,,,j.PNG,j,610325a6052741bbfb84bcd1,2021-10-19_21h15.03.025,forced_choiceRT,2021.1.2,Win32,59.99160118,,,,,,,,6,Fast,j,1,1.8908,9,3,39,3,1,,,,,
,,,,,,,,,,,,610325a6052741bbfb84bcd1,2021-10-19_21h15.03.025,forced_choiceRT,2021.1.2,Win32,59.99160118,,,,,,,,,,,,,,,,,,5,0,5,0,1
,1.23,,,,,,,,,h.PNG,h,610325a6052741bbfb84bcd1,2021-10-19_21h15.03.025,forced_choiceRT,2021.1.2,Win32,59.99160118,,,,,,,,7,Ontime,h,1,2.0478,0,0,0,2,1,,,,,
,0.58,,,,,,,,,f.PNG,f,610325a6052741bbfb84bcd1,2021-10-19_21h15.03.025,forced_choiceRT,2021.1.2,Win32,59.99160118,,,,,,,,7,Ontime,f,1,1.9412,0,1,1,0,1,,,,,
,1.77,,,,,,,,,j.PNG,j,610325a6052741bbfb84bcd1,2021-10-19_21h15.03.025,forced_choiceRT,2021.1.2,Win32,59.99160118,,,,,,,,7,Ontime,h,0,2.0688,0,2,2,3,1,,,,,
,0.37,,,,,,,,,f.PNG,f,610325a6052741bbfb84bcd1,2021-10-19_21h15.03.025,forced_choiceRT,2021.1.2,Win32,59.99160118,,,,,,,,7,Ontime,f,1,1.9041,0,3,3,0,1,,,,,
,1.42,,,,,,,,,f.PNG,f,610325a6052741bbfb84bcd1,2021-10-19_21h15.03.025,forced_choiceRT,2021.1.2,Win32,59.99160118,,,,,,,,7,Ontime,f,1,2.0187,1,0,4,0,1,,,,,
,1.69,,,,,,,,,j.PNG,j,610325a6052741bbfb84bcd1,2021-10-19_21h15.03.025,forced_choiceRT,2021.1.2,Win32,59.99160118,,,,,,,,7,Ontime,j,1,2.0236,1,1,5,3,1,,,,,
,0.37,,,,,,,,,j.PNG,j,610325a6052741bbfb84bcd1,2021-10-19_21h15.03.025,forced_choiceRT,2021.1.2,Win32,59.99160118,,,,,,,,7,Ontime,j,1,1.9854,1,2,6,3,1,,,,,
,0.61,,,,,,,,,j.PNG,j,610325a6052741bbfb84bcd1,2021-10-19_21h15.03.025,forced_choiceRT,2021.1.2,Win32,59.99160118,,,,,,,,7,Ontime,j,1,1.9929,1,3,7,3,1,,,,,
,0.62,,,,,,,,,g.PNG,g,610325a6052741bbfb84bcd1,2021-10-19_21h15.03.025,forced_choiceRT,2021.1.2,Win32,59.99160118,,,,,,,,7,Ontime,g,1,2.0072,2,0,8,1,1,,,,,
,0.79,,,,,,,,,h.PNG,h,610325a6052741bbfb84bcd1,2021-10-19_21h15.03.025,forced_choiceRT,2021.1.2,Win32,59.99160118,,,,,,,,7,Ontime,h,1,1.9818,2,1,9,2,1,,,,,
,0.02,,,,,,,,,h.PNG,h,610325a6052741bbfb84bcd1,2021-10-19_21h15.03.025,forced_choiceRT,2021.1.2,Win32,59.99160118,,,,,,,,7,Ontime,h,1,2.0211,2,2,10,2,1,,,,,
,1.2,,,,,,,,,j.PNG,j,610325a6052741bbfb84bcd1,2021-10-19_21h15.03.025,forced_choiceRT,2021.1.2,Win32,59.99160118,,,,,,,,7,Ontime,j,1,1.9399,2,3,11,3,1,,,,,
,1.1,,,,,,,,,g.PNG,g,610325a6052741bbfb84bcd1,2021-10-19_21h15.03.025,forced_choiceRT,2021.1.2,Win32,59.99160118,,,,,,,,7,Ontime,g,1,1.9834,3,0,12,1,1,,,,,
,1,,,,,,,,,j.PNG,j,610325a6052741bbfb84bcd1,2021-10-19_21h15.03.025,forced_choiceRT,2021.1.2,Win32,59.99160118,,,,,,,,7,Ontime,j,1,2.0522,3,1,13,3,1,,,,,
,0.64,,,,,,,,,g.PNG,g,610325a6052741bbfb84bcd1,2021-10-19_21h15.03.025,forced_choiceRT,2021.1.2,Win32,59.99160118,,,,,,,,7,Ontime,g,1,1.9854,3,2,14,1,1,,,,,
,1.47,,,,,,,,,j.PNG,j,610325a6052741bbfb84bcd1,2021-10-19_21h15.03.025,forced_choiceRT,2021.1.2,Win32,59.99160118,,,,,,,,7,Ontime,h,0,2.0459,3,3,15,3,1,,,,,
,1.49,,,,,,,,,j.PNG,j,610325a6052741bbfb84bcd1,2021-10-19_21h15.03.025,forced_choiceRT,2021.1.2,Win32,59.99160118,,,,,,,,7,Ontime,j,1,2.0187,4,0,16,3,1,,,,,
,1.91,,,,,,,,,f.PNG,f,610325a6052741bbfb84bcd1,2021-10-19_21h15.03.025,forced_choiceRT,2021.1.2,Win32,59.99160118,,,,,,,,7,Ontime,f,1,2.0529,4,1,17,0,1,,,,,
,1.3,,,,,,,,,j.PNG,j,610325a6052741bbfb84bcd1,2021-10-19_21h15.03.025,forced_choiceRT,2021.1.2,Win32,59.99160118,,,,,,,,7,Ontime,j,1,2.0353,4,2,18,3,1,,,,,
,1.34,,,,,,,,,g.PNG,g,610325a6052741bbfb84bcd1,2021-10-19_21h15.03.025,forced_choiceRT,2021.1.2,Win32,59.99160118,,,,,,,,7,Ontime,g,1,1.9669,4,3,19,1,1,,,,,
,1.18,,,,,,,,,f.PNG,f,610325a6052741bbfb84bcd1,2021-10-19_21h15.03.025,forced_choiceRT,2021.1.2,Win32,59.99160118,,,,,,,,7,Ontime,f,1,2.0786,5,0,20,0,1,,,,,
,0.2,,,,,,,,,g.PNG,g,610325a6052741bbfb84bcd1,2021-10-19_21h15.03.025,forced_choiceRT,2021.1.2,Win32,59.99160118,,,,,,,,7,Ontime,g,1,1.9194,5,1,21,1,1,,,,,
,0.51,,,,,,,,,g.PNG,g,610325a6052741bbfb84bcd1,2021-10-19_21h15.03.025,forced_choiceRT,2021.1.2,Win32,59.99160118,,,,,,,,7,Ontime,g,1,1.9259,5,2,22,1,1,,,,,
,0.34,,,,,,,,,h.PNG,h,610325a6052741bbfb84bcd1,2021-10-19_21h15.03.025,forced_choiceRT,2021.1.2,Win32,59.99160118,,,,,,,,7,Ontime,h,1,1.9617,5,3,23,2,1,,,,,
,0.35,,,,,,,,,f.PNG,f,610325a6052741bbfb84bcd1,2021-10-19_21h15.03.025,forced_choiceRT,2021.1.2,Win32,59.99160118,,,,,,,,7,Ontime,f,1,1.9634,6,0,24,0,1,,,,,
,1.97,,,,,,,,,h.PNG,h,610325a6052741bbfb84bcd1,2021-10-19_21h15.03.025,forced_choiceRT,2021.1.2,Win32,59.99160118,,,,,,,,7,Slow,j,0,2.1016,6,1,25,2,1,,,,,
,1.78,,,,,,,,,g.PNG,g,610325a6052741bbfb84bcd1,2021-10-19_21h15.03.025,forced_choiceRT,2021.1.2,Win32,59.99160118,,,,,,,,7,Ontime,h,0,2.0688,6,2,26,1,1,,,,,
,0.66,,,,,,,,,f.PNG,f,610325a6052741bbfb84bcd1,2021-10-19_21h15.03.025,forced_choiceRT,2021.1.2,Win32,59.99160118,,,,,,,,7,Ontime,f,1,1.9854,6,3,27,0,1,,,,,
,0.7,,,,,,,,,j.PNG,j,610325a6052741bbfb84bcd1,2021-10-19_21h15.03.025,forced_choiceRT,2021.1.2,Win32,59.99160118,,,,,,,,7,Ontime,j,1,1.9805,7,0,28,3,1,,,,,
,1.01,,,,,,,,,h.PNG,h,610325a6052741bbfb84bcd1,2021-10-19_21h15.03.025,forced_choiceRT,2021.1.2,Win32,59.99160118,,,,,,,,7,Ontime,h,1,2.0465,7,1,29,2,1,,,,,
,1.29,,,,,,,,,h.PNG,h,610325a6052741bbfb84bcd1,2021-10-19_21h15.03.025,forced_choiceRT,2021.1.2,Win32,59.99160118,,,,,,,,7,Ontime,g,0,2.0021,7,2,30,2,1,,,,,
,1.76,,,,,,,,,h.PNG,h,610325a6052741bbfb84bcd1,2021-10-19_21h15.03.025,forced_choiceRT,2021.1.2,Win32,59.99160118,,,,,,,,7,Ontime,h,1,2.0264,7,3,31,2,1,,,,,
,0.66,,,,,,,,,h.PNG,h,610325a6052741bbfb84bcd1,2021-10-19_21h15.03.025,forced_choiceRT,2021.1.2,Win32,59.99160118,,,,,,,,7,Ontime,h,1,1.9762,8,0,32,2,1,,,,,
,1.17,,,,,,,,,g.PNG,g,610325a6052741bbfb84bcd1,2021-10-19_21h15.03.025,forced_choiceRT,2021.1.2,Win32,59.99160118,,,,,,,,7,Ontime,g,1,1.9623,8,1,33,1,1,,,,,
,0.11,,,,,,,,,g.PNG,g,610325a6052741bbfb84bcd1,2021-10-19_21h15.03.025,forced_choiceRT,2021.1.2,Win32,59.99160118,,,,,,,,7,Ontime,g,1,1.9132,8,2,34,1,1,,,,,
,0.41,,,,,,,,,f.PNG,f,610325a6052741bbfb84bcd1,2021-10-19_21h15.03.025,forced_choiceRT,2021.1.2,Win32,59.99160118,,,,,,,,7,Fast,f,1,1.8959,8,3,35,0,1,,,,,
,0.08,,,,,,,,,f.PNG,f,610325a6052741bbfb84bcd1,2021-10-19_21h15.03.025,forced_choiceRT,2021.1.2,Win32,59.99160118,,,,,,,,7,Ontime,f,1,1.9165,9,0,36,0,1,,,,,
,0.05,,,,,,,,,g.PNG,g,610325a6052741bbfb84bcd1,2021-10-19_21h15.03.025,forced_choiceRT,2021.1.2,Win32,59.99160118,,,,,,,,7,Ontime,g,1,1.9664,9,1,37,1,1,,,,,
,1.06,,,,,,,,,h.PNG,h,610325a6052741bbfb84bcd1,2021-10-19_21h15.03.025,forced_choiceRT,2021.1.2,Win32,59.99160118,,,,,,,,7,Slow,h,1,2.1857,9,2,38,2,1,,,,,
,1.33,,,,,,,,,f.PNG,f,610325a6052741bbfb84bcd1,2021-10-19_21h15.03.025,forced_choiceRT,2021.1.2,Win32,59.99160118,,,,,,,,7,Ontime,f,1,2.0019,9,3,39,0,1,,,,,
,,,,,,,,,,,,610325a6052741bbfb84bcd1,2021-10-19_21h15.03.025,forced_choiceRT,2021.1.2,Win32,59.99160118,,,,,,,,,,,,,,,,,,6,0,6,0,1
,1.05,,,,,,,,,j.PNG,j,610325a6052741bbfb84bcd1,2021-10-19_21h15.03.025,forced_choiceRT,2021.1.2,Win32,59.99160118,,,,,,,,8,Ontime,j,1,2.0043,0,0,0,3,1,,,,,
,0.8,,,,,,,,,j.PNG,j,610325a6052741bbfb84bcd1,2021-10-19_21h15.03.025,forced_choiceRT,2021.1.2,Win32,59.99160118,,,,,,,,8,Ontime,j,1,2.0059,0,1,1,3,1,,,,,
,1.52,,,,,,,,,j.PNG,j,610325a6052741bbfb84bcd1,2021-10-19_21h15.03.025,forced_choiceRT,2021.1.2,Win32,59.99160118,,,,,,,,8,Ontime,j,1,2.0669,0,2,2,3,1,,,,,
,1.23,,,,,,,,,f.PNG,f,610325a6052741bbfb84bcd1,2021-10-19_21h15.03.025,forced_choiceRT,2021.1.2,Win32,59.99160118,,,,,,,,8,Ontime,f,1,1.9312,0,3,3,0,1,,,,,
,0.84,,,,,,,,,h.PNG,h,610325a6052741bbfb84bcd1,2021-10-19_21h15.03.025,forced_choiceRT,2021.1.2,Win32,59.99160118,,,,,,,,8,Slow,h,1,2.1355,1,0,4,2,1,,,,,
,0.09,,,,,,,,,g.PNG,g,610325a6052741bbfb84bcd1,2021-10-19_21h15.03.025,forced_choiceRT,2021.1.2,Win32,59.99160118,,,,,,,,8,Ontime,g,1,1.9216,1,1,5,1,1,,,,,
,1.05,,,,,,,,,g.PNG,g,610325a6052741bbfb84bcd1,2021-10-19_21h15.03.025,forced_choiceRT,2021.1.2,Win32,59.99160118,,,,,,,,8,Ontime,g,1,2.0074,1,2,6,1,1,,,,,
,1.29,,,,,,,,,j.PNG,j,610325a6052741bbfb84bcd1,2021-10-19_21h15.03.025,forced_choiceRT,2021.1.2,Win32,59.99160118,,,,,,,,8,Ontime,j,1,2.0188,1,3,7,3,1,,,,,
,1.1,,,,,,,,,h.PNG,h,610325a6052741bbfb84bcd1,2021-10-19_21h15.03.025,forced_choiceRT,2021.1.2,Win32,59.99160118,,,,,,,,8,Ontime,g,0,2.0322,2,0,8,2,1,,,,,
,0.62,,,,,,,,,f.PNG,f,610325a6052741bbfb84bcd1,2021-10-19_21h15.03.025,forced_choiceRT,2021.1.2,Win32,59.99160118,,,,,,,,8,Ontime,f,1,1.991,2,1,9,0,1,,,,,
,0.89,,,,,,,,,h.PNG,h,610325a6052741bbfb84bcd1,2021-10-19_21h15.03.025,forced_choiceRT,2021.1.2,Win32,59.99160118,,,,,,,,8,Ontime,h,1,2.0374,2,2,10,2,1,,,,,
,0.9,,,,,,,,,j.PNG,j,610325a6052741bbfb84bcd1,2021-10-19_21h15.03.025,forced_choiceRT,2021.1.2,Win32,59.99160118,,,,,,,,8,Ontime,j,1,2.0329,2,3,11,3,1,,,,,
,1.81,,,,,,,,,f.PNG,f,610325a6052741bbfb84bcd1,2021-10-19_21h15.03.025,forced_choiceRT,2021.1.2,Win32,59.99160118,,,,,,,,8,Slow,j,0,2.1108,3,0,12,0,1,,,,,
,1.84,,,,,,,,,f.PNG,f,610325a6052741bbfb84bcd1,2021-10-19_21h15.03.025,forced_choiceRT,2021.1.2,Win32,59.99160118,,,,,,,,8,Slow,f,1,2.2733,3,1,13,0,1,,,,,
,1.34,,,,,,,,,g.PNG,g,610325a6052741bbfb84bcd1,2021-10-19_21h15.03.025,forced_choiceRT,2021.1.2,Win32,59.99160118,,,,,,,,8,Ontime,f,0,1.9687,3,2,14,1,1,,,,,
,1.11,,,,,,,,,j.PNG,j,610325a6052741bbfb84bcd1,2021-10-19_21h15.03.025,forced_choiceRT,2021.1.2,Win32,59.99160118,,,,,,,,8,Ontime,j,1,1.9113,3,3,15,3,1,,,,,
,0.71,,,,,,,,,g.PNG,g,610325a6052741bbfb84bcd1,2021-10-19_21h15.03.025,forced_choiceRT,2021.1.2,Win32,59.99160118,,,,,,,,8,Ontime,g,1,1.9641,4,0,16,1,1,,,,,
,1.72,,,,,,,,,f.PNG,f,610325a6052741bbfb84bcd1,2021-10-19_21h15.03.025,forced_choiceRT,2021.1.2,Win32,59.99160118,,,,,,,,8,Ontime,g,0,2.0187,4,1,17,0,1,,,,,
,0.45,,,,,,,,,h.PNG,h,610325a6052741bbfb84bcd1,2021-10-19_21h15.03.025,forced_choiceRT,2021.1.2,Win32,59.99160118,,,,,,,,8,Ontime,h,1,2.0247,4,2,18,2,1,,,,,
,1.94,,,,,,,,,h.PNG,h,610325a6052741bbfb84bcd1,2021-10-19_21h15.03.025,forced_choiceRT,2021.1.2,Win32,59.99160118,,,,,,,,8,Ontime,j,0,1.9987,4,3,19,2,1,,,,,
,1.79,,,,,,,,,j.PNG,j,610325a6052741bbfb84bcd1,2021-10-19_21h15.03.025,forced_choiceRT,2021.1.2,Win32,59.99160118,,,,,,,,8,Ontime,h,0,2.0233,5,0,20,3,1,,,,,
,1.88,,,,,,,,,f.PNG,f,610325a6052741bbfb84bcd1,2021-10-19_21h15.03.025,forced_choiceRT,2021.1.2,Win32,59.99160118,,,,,,,,8,Ontime,j,0,1.98,5,1,21,0,1,,,,,
,1.78,,,,,,,,,g.PNG,g,610325a6052741bbfb84bcd1,2021-10-19_21h15.03.025,forced_choiceRT,2021.1.2,Win32,59.99160118,,,,,,,,8,Ontime,g,1,2.0111,5,2,22,1,1,,,,,
,0.3,,,,,,,,,g.PNG,g,610325a6052741bbfb84bcd1,2021-10-19_21h15.03.025,forced_choiceRT,2021.1.2,Win32,59.99160118,,,,,,,,8,Ontime,g,1,1.9521,5,3,23,1,1,,,,,
,1.39,,,,,,,,,h.PNG,h,610325a6052741bbfb84bcd1,2021-10-19_21h15.03.025,forced_choiceRT,2021.1.2,Win32,59.99160118,,,,,,,,8,Ontime,f,0,2.0313,6,0,24,2,1,,,,,
,0.79,,,,,,,,,h.PNG,h,610325a6052741bbfb84bcd1,2021-10-19_21h15.03.025,forced_choiceRT,2021.1.2,Win32,59.99160118,,,,,,,,8,Ontime,h,1,1.9524,6,1,25,2,1,,,,,
,0.53,,,,,,,,,f.PNG,f,610325a6052741bbfb84bcd1,2021-10-19_21h15.03.025,forced_choiceRT,2021.1.2,Win32,59.99160118,,,,,,,,8,Ontime,f,1,1.9853,6,2,26,0,1,,,,,
,1.08,,,,,,,,,j.PNG,j,610325a6052741bbfb84bcd1,2021-10-19_21h15.03.025,forced_choiceRT,2021.1.2,Win32,59.99160118,,,,,,,,8,Ontime,j,1,1.9292,6,3,27,3,1,,,,,
,0.9,,,,,,,,,h.PNG,h,610325a6052741bbfb84bcd1,2021-10-19_21h15.03.025,forced_choiceRT,2021.1.2,Win32,59.99160118,,,,,,,,8,Ontime,h,1,1.9313,7,0,28,2,1,,,,,
,1.91,,,,,,,,,h.PNG,h,610325a6052741bbfb84bcd1,2021-10-19_21h15.03.025,forced_choiceRT,2021.1.2,Win32,59.99160118,,,,,,,,8,Slow,h,1,2.1022,7,1,29,2,1,,,,,
,0.45,,,,,,,,,j.PNG,j,610325a6052741bbfb84bcd1,2021-10-19_21h15.03.025,forced_choiceRT,2021.1.2,Win32,59.99160118,,,,,,,,8,Ontime,j,1,1.9629,7,2,30,3,1,,,,,
,0.31,,,,,,,,,f.PNG,f,610325a6052741bbfb84bcd1,2021-10-19_21h15.03.025,forced_choiceRT,2021.1.2,Win32,59.99160118,,,,,,,,8,Ontime,f,1,1.9925,7,3,31,0,1,,,,,
,1.07,,,,,,,,,j.PNG,j,610325a6052741bbfb84bcd1,2021-10-19_21h15.03.025,forced_choiceRT,2021.1.2,Win32,59.99160118,,,,,,,,8,Ontime,j,1,1.9362,8,0,32,3,1,,,,,
,1.13,,,,,,,,,g.PNG,g,610325a6052741bbfb84bcd1,2021-10-19_21h15.03.025,forced_choiceRT,2021.1.2,Win32,59.99160118,,,,,,,,8,Ontime,g,1,1.9963,8,1,33,1,1,,,,,
,0.6,,,,,,,,,f.PNG,f,610325a6052741bbfb84bcd1,2021-10-19_21h15.03.025,forced_choiceRT,2021.1.2,Win32,59.99160118,,,,,,,,8,Ontime,f,1,2.002,8,2,34,0,1,,,,,
,1.53,,,,,,,,,g.PNG,g,610325a6052741bbfb84bcd1,2021-10-19_21h15.03.025,forced_choiceRT,2021.1.2,Win32,59.99160118,,,,,,,,8,Slow,j,0,2.1023,8,3,35,1,1,,,,,
,0.27,,,,,,,,,h.PNG,h,610325a6052741bbfb84bcd1,2021-10-19_21h15.03.025,forced_choiceRT,2021.1.2,Win32,59.99160118,,,,,,,,8,Ontime,h,1,1.9315,9,0,36,2,1,,,,,
,0.83,,,,,,,,,g.PNG,g,610325a6052741bbfb84bcd1,2021-10-19_21h15.03.025,forced_choiceRT,2021.1.2,Win32,59.99160118,,,,,,,,8,Ontime,g,1,2.0353,9,1,37,1,1,,,,,
,1.34,,,,,,,,,g.PNG,g,610325a6052741bbfb84bcd1,2021-10-19_21h15.03.025,forced_choiceRT,2021.1.2,Win32,59.99160118,,,,,,,,8,Ontime,h,0,1.9437,9,2,38,1,1,,,,,
,0.1,,,,,,,,,f.PNG,f,610325a6052741bbfb84bcd1,2021-10-19_21h15.03.025,forced_choiceRT,2021.1.2,Win32,59.99160118,,,,,,,,8,Ontime,f,1,1.9911,9,3,39,0,1,,,,,
,,,,,,,,,,,,610325a6052741bbfb84bcd1,2021-10-19_21h15.03.025,forced_choiceRT,2021.1.2,Win32,59.99160118,,,,,,,,,,,,,,,,,,7,0,7,0,1
,0.55,,,,,,,,,g.PNG,g,610325a6052741bbfb84bcd1,2021-10-19_21h15.03.025,forced_choiceRT,2021.1.2,Win32,59.99160118,,,,,,,,9,Ontime,g,1,2.0231,0,0,0,1,1,,,,,
,0.14,,,,,,,,,j.PNG,j,610325a6052741bbfb84bcd1,2021-10-19_21h15.03.025,forced_choiceRT,2021.1.2,Win32,59.99160118,,,,,,,,9,Ontime,j,1,1.948,0,1,1,3,1,,,,,
,0.58,,,,,,,,,h.PNG,h,610325a6052741bbfb84bcd1,2021-10-19_21h15.03.025,forced_choiceRT,2021.1.2,Win32,59.99160118,,,,,,,,9,Ontime,h,1,2.0038,0,2,2,2,1,,,,,
,0.35,,,,,,,,,j.PNG,j,610325a6052741bbfb84bcd1,2021-10-19_21h15.03.025,forced_choiceRT,2021.1.2,Win32,59.99160118,,,,,,,,9,Ontime,j,1,1.9644,0,3,3,3,1,,,,,
,1.4,,,,,,,,,j.PNG,j,610325a6052741bbfb84bcd1,2021-10-19_21h15.03.025,forced_choiceRT,2021.1.2,Win32,59.99160118,,,,,,,,9,Ontime,j,1,1.9511,1,0,4,3,1,,,,,
,1.45,,,,,,,,,g.PNG,g,610325a6052741bbfb84bcd1,2021-10-19_21h15.03.025,forced_choiceRT,2021.1.2,Win32,59.99160118,,,,,,,,9,Ontime,g,1,2.0938,1,1,5,1,1,,,,,
,1.67,,,,,,,,,g.PNG,g,610325a6052741bbfb84bcd1,2021-10-19_21h15.03.025,forced_choiceRT,2021.1.2,Win32,59.99160118,,,,,,,,9,Ontime,j,0,2.0688,1,2,6,1,1,,,,,
,0.4,,,,,,,,,j.PNG,j,610325a6052741bbfb84bcd1,2021-10-19_21h15.03.025,forced_choiceRT,2021.1.2,Win32,59.99160118,,,,,,,,9,Ontime,j,1,2.0366,1,3,7,3,1,,,,,
,1.32,,,,,,,,,g.PNG,g,610325a6052741bbfb84bcd1,2021-10-19_21h15.03.025,forced_choiceRT,2021.1.2,Win32,59.99160118,,,,,,,,9,Ontime,g,1,2.0187,2,0,8,1,1,,,,,
,1.64,,,,,,,,,f.PNG,f,610325a6052741bbfb84bcd1,2021-10-19_21h15.03.025,forced_choiceRT,2021.1.2,Win32,59.99160118,,,,,,,,9,Ontime,h,0,2.0826,2,1,9,0,1,,,,,
,1.47,,,,,,,,,f.PNG,f,610325a6052741bbfb84bcd1,2021-10-19_21h15.03.025,forced_choiceRT,2021.1.2,Win32,59.99160118,,,,,,,,9,Ontime,f,1,1.9697,2,2,10,0,1,,,,,
,0.8,,,,,,,,,h.PNG,h,610325a6052741bbfb84bcd1,2021-10-19_21h15.03.025,forced_choiceRT,2021.1.2,Win32,59.99160118,,,,,,,,9,Ontime,h,1,2.016,2,3,11,2,1,,,,,
,1.68,,,,,,,,,f.PNG,f,610325a6052741bbfb84bcd1,2021-10-19_21h15.03.025,forced_choiceRT,2021.1.2,Win32,59.99160118,,,,,,,,9,Ontime,f,1,2.002,3,0,12,0,1,,,,,
,0.3,,,,,,,,,h.PNG,h,610325a6052741bbfb84bcd1,2021-10-19_21h15.03.025,forced_choiceRT,2021.1.2,Win32,59.99160118,,,,,,,,9,Ontime,h,1,2.0099,3,1,13,2,1,,,,,
,0.62,,,,,,,,,h.PNG,h,610325a6052741bbfb84bcd1,2021-10-19_21h15.03.025,forced_choiceRT,2021.1.2,Win32,59.99160118,,,,,,,,9,Ontime,h,1,1.9708,3,2,14,2,1,,,,,
,0.18,,,,,,,,,h.PNG,h,610325a6052741bbfb84bcd1,2021-10-19_21h15.03.025,forced_choiceRT,2021.1.2,Win32,59.99160118,,,,,,,,9,Ontime,h,1,1.9977,3,3,15,2,1,,,,,
,0.66,,,,,,,,,g.PNG,g,610325a6052741bbfb84bcd1,2021-10-19_21h15.03.025,forced_choiceRT,2021.1.2,Win32,59.99160118,,,,,,,,9,Ontime,g,1,2.0855,4,0,16,1,1,,,,,
,0.98,,,,,,,,,g.PNG,g,610325a6052741bbfb84bcd1,2021-10-19_21h15.03.025,forced_choiceRT,2021.1.2,Win32,59.99160118,,,,,,,,9,Ontime,g,1,2.0434,4,1,17,1,1,,,,,
,1.17,,,,,,,,,g.PNG,g,610325a6052741bbfb84bcd1,2021-10-19_21h15.03.025,forced_choiceRT,2021.1.2,Win32,59.99160118,,,,,,,,9,Ontime,g,1,1.9384,4,2,18,1,1,,,,,
,0.13,,,,,,,,,j.PNG,j,610325a6052741bbfb84bcd1,2021-10-19_21h15.03.025,forced_choiceRT,2021.1.2,Win32,59.99160118,,,,,,,,9,Ontime,j,1,2.0186,4,3,19,3,1,,,,,
,1.45,,,,,,,,,h.PNG,h,610325a6052741bbfb84bcd1,2021-10-19_21h15.03.025,forced_choiceRT,2021.1.2,Win32,59.99160118,,,,,,,,9,Slow,h,1,2.1058,5,0,20,2,1,,,,,
,1.39,,,,,,,,,f.PNG,f,610325a6052741bbfb84bcd1,2021-10-19_21h15.03.025,forced_choiceRT,2021.1.2,Win32,59.99160118,,,,,,,,9,Ontime,f,1,2.002,5,1,21,0,1,,,,,
,1.18,,,,,,,,,f.PNG,f,610325a6052741bbfb84bcd1,2021-10-19_21h15.03.025,forced_choiceRT,2021.1.2,Win32,59.99160118,,,,,,,,9,Ontime,f,1,2.052,5,2,22,0,1,,,,,
,1.8,,,,,,,,,j.PNG,j,610325a6052741bbfb84bcd1,2021-10-19_21h15.03.025,forced_choiceRT,2021.1.2,Win32,59.99160118,,,,,,,,9,Slow,f,0,2.1082,5,3,23,3,1,,,,,
,0.07,,,,,,,,,j.PNG,j,610325a6052741bbfb84bcd1,2021-10-19_21h15.03.025,forced_choiceRT,2021.1.2,Win32,59.99160118,,,,,,,,9,Ontime,j,1,1.9853,6,0,24,3,1,,,,,
,0.8,,,,,,,,,f.PNG,f,610325a6052741bbfb84bcd1,2021-10-19_21h15.03.025,forced_choiceRT,2021.1.2,Win32,59.99160118,,,,,,,,9,Ontime,f,1,2.0237,6,1,25,0,1,,,,,
,1.73,,,,,,,,,j.PNG,j,610325a6052741bbfb84bcd1,2021-10-19_21h15.03.025,forced_choiceRT,2021.1.2,Win32,59.99160118,,,,,,,,9,Ontime,h,0,2.0399,6,2,26,3,1,,,,,
,0.6,,,,,,,,,f.PNG,f,610325a6052741bbfb84bcd1,2021-10-19_21h15.03.025,forced_choiceRT,2021.1.2,Win32,59.99160118,,,,,,,,9,Ontime,f,1,1.9611,6,3,27,0,1,,,,,
,1.48,,,,,,,,,j.PNG,j,610325a6052741bbfb84bcd1,2021-10-19_21h15.03.025,forced_choiceRT,2021.1.2,Win32,59.99160118,,,,,,,,9,Ontime,j,1,2.0219,7,0,28,3,1,,,,,
,1.85,,,,,,,,,h.PNG,h,610325a6052741bbfb84bcd1,2021-10-19_21h15.03.025,forced_choiceRT,2021.1.2,Win32,59.99160118,,,,,,,,9,Ontime,h,1,2.0791,7,1,29,2,1,,,,,
,0.51,,,,,,,,,f.PNG,f,610325a6052741bbfb84bcd1,2021-10-19_21h15.03.025,forced_choiceRT,2021.1.2,Win32,59.99160118,,,,,,,,9,Ontime,f,1,1.9908,7,2,30,0,1,,,,,
,0.4,,,,,,,,,g.PNG,g,610325a6052741bbfb84bcd1,2021-10-19_21h15.03.025,forced_choiceRT,2021.1.2,Win32,59.99160118,,,,,,,,9,Ontime,g,1,2.0022,7,3,31,1,1,,,,,
,1.01,,,,,,,,,h.PNG,h,610325a6052741bbfb84bcd1,2021-10-19_21h15.03.025,forced_choiceRT,2021.1.2,Win32,59.99160118,,,,,,,,9,Ontime,h,1,1.9909,8,0,32,2,1,,,,,
,1.47,,,,,,,,,j.PNG,j,610325a6052741bbfb84bcd1,2021-10-19_21h15.03.025,forced_choiceRT,2021.1.2,Win32,59.99160118,,,,,,,,9,Ontime,j,1,2.002,8,1,33,3,1,,,,,
,0.35,,,,,,,,,g.PNG,g,610325a6052741bbfb84bcd1,2021-10-19_21h15.03.025,forced_choiceRT,2021.1.2,Win32,59.99160118,,,,,,,,9,Ontime,g,1,2.0504,8,2,34,1,1,,,,,
,0.64,,,,,,,,,f.PNG,f,610325a6052741bbfb84bcd1,2021-10-19_21h15.03.025,forced_choiceRT,2021.1.2,Win32,59.99160118,,,,,,,,9,Ontime,f,1,1.9671,8,3,35,0,1,,,,,
,1.65,,,,,,,,,f.PNG,f,610325a6052741bbfb84bcd1,2021-10-19_21h15.03.025,forced_choiceRT,2021.1.2,Win32,59.99160118,,,,,,,,9,Slow,f,1,2.2405,9,0,36,0,1,,,,,
,0.79,,,,,,,,,h.PNG,h,610325a6052741bbfb84bcd1,2021-10-19_21h15.03.025,forced_choiceRT,2021.1.2,Win32,59.99160118,,,,,,,,9,Ontime,h,1,2.0029,9,1,37,2,1,,,,,
,1.95,,,,,,,,,h.PNG,h,610325a6052741bbfb84bcd1,2021-10-19_21h15.03.025,forced_choiceRT,2021.1.2,Win32,59.99160118,,,,,,,,9,Ontime,h,1,2.0607,9,2,38,2,1,,,,,
,0.57,,,,,,,,,g.PNG,g,610325a6052741bbfb84bcd1,2021-10-19_21h15.03.025,forced_choiceRT,2021.1.2,Win32,59.99160118,,,,,,,,9,Ontime,g,1,1.966,9,3,39,1,1,,,,,
,,,,,,,,,,,,610325a6052741bbfb84bcd1,2021-10-19_21h15.03.025,forced_choiceRT,2021.1.2,Win32,59.99160118,,,,,,,,,,,,,,,,,,8,0,8,0,1
,1.35,,,,,,,,,f.PNG,f,610325a6052741bbfb84bcd1,2021-10-19_21h15.03.025,forced_choiceRT,2021.1.2,Win32,59.99160118,,,,,,,,10,Ontime,f,1,1.9795,0,0,0,0,1,,,,,
,1.27,,,,,,,,,j.PNG,j,610325a6052741bbfb84bcd1,2021-10-19_21h15.03.025,forced_choiceRT,2021.1.2,Win32,59.99160118,,,,,,,,10,Ontime,j,1,2.002,0,1,1,3,1,,,,,
,0.8,,,,,,,,,f.PNG,f,610325a6052741bbfb84bcd1,2021-10-19_21h15.03.025,forced_choiceRT,2021.1.2,Win32,59.99160118,,,,,,,,10,Ontime,f,1,1.9832,0,2,2,0,1,,,,,
,1.09,,,,,,,,,f.PNG,f,610325a6052741bbfb84bcd1,2021-10-19_21h15.03.025,forced_choiceRT,2021.1.2,Win32,59.99160118,,,,,,,,10,Ontime,f,1,2.0355,0,3,3,0,1,,,,,
,0.8,,,,,,,,,j.PNG,j,610325a6052741bbfb84bcd1,2021-10-19_21h15.03.025,forced_choiceRT,2021.1.2,Win32,59.99160118,,,,,,,,10,Ontime,j,1,1.9881,1,0,4,3,1,,,,,
,1.06,,,,,,,,,j.PNG,j,610325a6052741bbfb84bcd1,2021-10-19_21h15.03.025,forced_choiceRT,2021.1.2,Win32,59.99160118,,,,,,,,10,Ontime,j,1,2.0021,1,1,5,3,1,,,,,
,1.54,,,,,,,,,g.PNG,g,610325a6052741bbfb84bcd1,2021-10-19_21h15.03.025,forced_choiceRT,2021.1.2,Win32,59.99160118,,,,,,,,10,Ontime,g,1,2.0522,1,2,6,1,1,,,,,
,0.45,,,,,,,,,f.PNG,f,610325a6052741bbfb84bcd1,2021-10-19_21h15.03.025,forced_choiceRT,2021.1.2,Win32,59.99160118,,,,,,,,10,Ontime,f,1,2.0187,1,3,7,0,1,,,,,
,1.22,,,,,,,,,j.PNG,j,610325a6052741bbfb84bcd1,2021-10-19_21h15.03.025,forced_choiceRT,2021.1.2,Win32,59.99160118,,,,,,,,10,Ontime,j,1,1.9353,2,0,8,3,1,,,,,
,0.07,,,,,,,,,j.PNG,j,610325a6052741bbfb84bcd1,2021-10-19_21h15.03.025,forced_choiceRT,2021.1.2,Win32,59.99160118,,,,,,,,10,Ontime,j,1,1.9614,2,1,9,3,1,,,,,
,1.12,,,,,,,,,h.PNG,h,610325a6052741bbfb84bcd1,2021-10-19_21h15.03.025,forced_choiceRT,2021.1.2,Win32,59.99160118,,,,,,,,10,Ontime,h,1,1.9853,2,2,10,2,1,,,,,
,0.02,,,,,,,,,j.PNG,j,610325a6052741bbfb84bcd1,2021-10-19_21h15.03.025,forced_choiceRT,2021.1.2,Win32,59.99160118,,,,,,,,10,Ontime,j,1,1.9853,2,3,11,3,1,,,,,
,0.05,,,,,,,,,f.PNG,f,610325a6052741bbfb84bcd1,2021-10-19_21h15.03.025,forced_choiceRT,2021.1.2,Win32,59.99160118,,,,,,,,10,Ontime,f,1,2.0353,3,0,12,0,1,,,,,
,1.55,,,,,,,,,g.PNG,g,610325a6052741bbfb84bcd1,2021-10-19_21h15.03.025,forced_choiceRT,2021.1.2,Win32,59.99160118,,,,,,,,10,Ontime,h,0,2.0513,3,1,13,1,1,,,,,
,0.76,,,,,,,,,h.PNG,h,610325a6052741bbfb84bcd1,2021-10-19_21h15.03.025,forced_choiceRT,2021.1.2,Win32,59.99160118,,,,,,,,10,Ontime,h,1,2.032,3,2,14,2,1,,,,,
,0.5,,,,,,,,,g.PNG,g,610325a6052741bbfb84bcd1,2021-10-19_21h15.03.025,forced_choiceRT,2021.1.2,Win32,59.99160118,,,,,,,,10,Ontime,g,1,1.9687,3,3,15,1,1,,,,,
,1.58,,,,,,,,,j.PNG,j,610325a6052741bbfb84bcd1,2021-10-19_21h15.03.025,forced_choiceRT,2021.1.2,Win32,59.99160118,,,,,,,,10,Ontime,j,1,2.0521,4,0,16,3,1,,,,,
,1.04,,,,,,,,,j.PNG,j,610325a6052741bbfb84bcd1,2021-10-19_21h15.03.025,forced_choiceRT,2021.1.2,Win32,59.99160118,,,,,,,,10,Ontime,j,1,2.0187,4,1,17,3,1,,,,,
,0.5,,,,,,,,,g.PNG,g,610325a6052741bbfb84bcd1,2021-10-19_21h15.03.025,forced_choiceRT,2021.1.2,Win32,59.99160118,,,,,,,,10,Ontime,g,1,1.9786,4,2,18,1,1,,,,,
,1.5,,,,,,,,,g.PNG,g,610325a6052741bbfb84bcd1,2021-10-19_21h15.03.025,forced_choiceRT,2021.1.2,Win32,59.99160118,,,,,,,,10,Ontime,j,0,2.0354,4,3,19,1,1,,,,,
,1.93,,,,,,,,,h.PNG,h,610325a6052741bbfb84bcd1,2021-10-19_21h15.03.025,forced_choiceRT,2021.1.2,Win32,59.99160118,,,,,,,,10,Ontime,g,0,2.0856,5,0,20,2,1,,,,,
,0.59,,,,,,,,,g.PNG,g,610325a6052741bbfb84bcd1,2021-10-19_21h15.03.025,forced_choiceRT,2021.1.2,Win32,59.99160118,,,,,,,,10,Fast,g,1,1.8387,5,1,21,1,1,,,,,
,1.6,,,,,,,,,f.PNG,f,610325a6052741bbfb84bcd1,2021-10-19_21h15.03.025,forced_choiceRT,2021.1.2,Win32,59.99160118,,,,,,,,10,Slow,f,1,2.2242,5,2,22,0,1,,,,,
,1.35,,,,,,,,,f.PNG,f,610325a6052741bbfb84bcd1,2021-10-19_21h15.03.025,forced_choiceRT,2021.1.2,Win32,59.99160118,,,,,,,,10,Ontime,f,1,1.9854,5,3,23,0,1,,,,,
,1.89,,,,,,,,,g.PNG,g,610325a6052741bbfb84bcd1,2021-10-19_21h15.03.025,forced_choiceRT,2021.1.2,Win32,59.99160118,,,,,,,,10,Ontime,j,0,2.0111,6,0,24,1,1,,,,,
,1.47,,,,,,,,,h.PNG,h,610325a6052741bbfb84bcd1,2021-10-19_21h15.03.025,forced_choiceRT,2021.1.2,Win32,59.99160118,,,,,,,,10,Ontime,h,1,2.0219,6,1,25,2,1,,,,,
,0.7,,,,,,,,,h.PNG,h,610325a6052741bbfb84bcd1,2021-10-19_21h15.03.025,forced_choiceRT,2021.1.2,Win32,59.99160118,,,,,,,,10,Ontime,h,1,1.944,6,2,26,2,1,,,,,
,0.06,,,,,,,,,h.PNG,h,610325a6052741bbfb84bcd1,2021-10-19_21h15.03.025,forced_choiceRT,2021.1.2,Win32,59.99160118,,,,,,,,10,Fast,h,1,1.7184,6,3,27,2,1,,,,,
,1.67,,,,,,,,,f.PNG,f,610325a6052741bbfb84bcd1,2021-10-19_21h15.03.025,forced_choiceRT,2021.1.2,Win32,59.99160118,,,,,,,,10,Ontime,j,0,2.0464,7,0,28,0,1,,,,,
,0.34,,,,,,,,,j.PNG,j,610325a6052741bbfb84bcd1,2021-10-19_21h15.03.025,forced_choiceRT,2021.1.2,Win32,59.99160118,,,,,,,,10,Ontime,j,1,1.916,7,1,29,3,1,,,,,
,0.97,,,,,,,,,h.PNG,h,610325a6052741bbfb84bcd1,2021-10-19_21h15.03.025,forced_choiceRT,2021.1.2,Win32,59.99160118,,,,,,,,10,Ontime,h,1,1.9353,7,2,30,2,1,,,,,
,1.72,,,,,,,,,g.PNG,g,610325a6052741bbfb84bcd1,2021-10-19_21h15.03.025,forced_choiceRT,2021.1.2,Win32,59.99160118,,,,,,,,10,Ontime,g,1,2.0147,7,3,31,1,1,,,,,
,1.15,,,,,,,,,h.PNG,h,610325a6052741bbfb84bcd1,2021-10-19_21h15.03.025,forced_choiceRT,2021.1.2,Win32,59.99160118,,,,,,,,10,Ontime,h,1,2.0521,8,0,32,2,1,,,,,
,0.67,,,,,,,,,g.PNG,g,610325a6052741bbfb84bcd1,2021-10-19_21h15.03.025,forced_choiceRT,2021.1.2,Win32,59.99160118,,,,,,,,10,Fast,g,1,1.8828,8,1,33,1,1,,,,,
,1.02,,,,,,,,,f.PNG,f,610325a6052741bbfb84bcd1,2021-10-19_21h15.03.025,forced_choiceRT,2021.1.2,Win32,59.99160118,,,,,,,,10,Fast,f,1,1.8854,8,2,34,0,1,,,,,
,0.41,,,,,,,,,f.PNG,f,610325a6052741bbfb84bcd1,2021-10-19_21h15.03.025,forced_choiceRT,2021.1.2,Win32,59.99160118,,,,,,,,10,Ontime,f,1,1.9534,8,3,35,0,1,,,,,
,1.77,,,,,,,,,h.PNG,h,610325a6052741bbfb84bcd1,2021-10-19_21h15.03.025,forced_choiceRT,2021.1.2,Win32,59.99160118,,,,,,,,10,Ontime,j,0,2.0188,9,0,36,2,1,,,,,
,0,,,,,,,,,g.PNG,g,610325a6052741bbfb84bcd1,2021-10-19_21h15.03.025,forced_choiceRT,2021.1.2,Win32,59.99160118,,,,,,,,10,Ontime,g,1,1.9247,9,1,37,1,1,,,,,
,1.12,,,,,,,,,j.PNG,j,610325a6052741bbfb84bcd1,2021-10-19_21h15.03.025,forced_choiceRT,2021.1.2,Win32,59.99160118,,,,,,,,10,Ontime,j,1,2.0289,9,2,38,3,1,,,,,
,0.01,,,,,,,,,h.PNG,h,610325a6052741bbfb84bcd1,2021-10-19_21h15.03.025,forced_choiceRT,2021.1.2,Win32,59.99160118,,,,,,,,10,Fast,h,1,1.8818,9,3,39,2,1,,,,,
,,,,,,,,,,,,610325a6052741bbfb84bcd1,2021-10-19_21h15.03.025,forced_choiceRT,2021.1.2,Win32,59.99160118,,,,,,,,,,,,,,,,,,9,0,9,0,1
