target_onset,trial_resp_sp.keys,trial_resp_sp.corr,trial_resp_sp.rt,trials_train_loop.thisRepN,trials_train_loop.thisTrialN,trials_train_loop.thisN,trials_train_loop.thisIndex,trials_train_loop.ran,pic,correct_key,participant,date,expName,psychopyVersion,OS,frameRate,trial_resp_timing.keys,trial_resp_timing.rt,trials_train_timing.thisRepN,trials_train_timing.thisTrialN,trials_train_timing.thisN,trials_train_timing.thisIndex,trials_train_timing.ran,block_id,ontime,forcedRT_resp.keys,forcedRT_resp.corr,forcedRT_resp.rt,trials.thisRepN,trials.thisTrialN,trials.thisN,trials.thisIndex,trials.ran,blocks.thisRepN,blocks.thisTrialN,blocks.thisN,blocks.thisIndex,blocks.ran
0,f,0,1.285,0,0,0,1,1,g.PNG,g,610898813e48dc2864965122,2021-10-19_21h15.58.740,forced_choiceRT,2021.1.2,Win32,59.80861244,,,,,,,,,,,,,,,,,,,,,,
0,h,1,4.022,0,1,1,2,1,h.PNG,h,610898813e48dc2864965122,2021-10-19_21h15.58.740,forced_choiceRT,2021.1.2,Win32,59.80861244,,,,,,,,,,,,,,,,,,,,,,
0,f,1,1.47,0,2,2,0,1,f.PNG,f,610898813e48dc2864965122,2021-10-19_21h15.58.740,forced_choiceRT,2021.1.2,Win32,59.80861244,,,,,,,,,,,,,,,,,,,,,,
0,j,1,1.12,0,3,3,3,1,j.PNG,j,610898813e48dc2864965122,2021-10-19_21h15.58.740,forced_choiceRT,2021.1.2,Win32,59.80861244,,,,,,,,,,,,,,,,,,,,,,
0,g,1,0.726,1,0,4,1,1,g.PNG,g,610898813e48dc2864965122,2021-10-19_21h15.58.740,forced_choiceRT,2021.1.2,Win32,59.80861244,,,,,,,,,,,,,,,,,,,,,,
0,j,1,1.309,1,1,5,3,1,j.PNG,j,610898813e48dc2864965122,2021-10-19_21h15.58.740,forced_choiceRT,2021.1.2,Win32,59.80861244,,,,,,,,,,,,,,,,,,,,,,
0,h,1,1.071,1,2,6,2,1,h.PNG,h,610898813e48dc2864965122,2021-10-19_21h15.58.740,forced_choiceRT,2021.1.2,Win32,59.80861244,,,,,,,,,,,,,,,,,,,,,,
0,f,1,0.652,1,3,7,0,1,f.PNG,f,610898813e48dc2864965122,2021-10-19_21h15.58.740,forced_choiceRT,2021.1.2,Win32,59.80861244,,,,,,,,,,,,,,,,,,,,,,
0,h,1,1.98,2,0,8,2,1,h.PNG,h,610898813e48dc2864965122,2021-10-19_21h15.58.740,forced_choiceRT,2021.1.2,Win32,59.80861244,,,,,,,,,,,,,,,,,,,,,,
0,h,1,0.55,2,1,9,2,1,h.PNG,h,610898813e48dc2864965122,2021-10-19_21h15.58.740,forced_choiceRT,2021.1.2,Win32,59.80861244,,,,,,,,,,,,,,,,,,,,,,
0,g,1,1.458,2,2,10,1,1,g.PNG,g,610898813e48dc2864965122,2021-10-19_21h15.58.740,forced_choiceRT,2021.1.2,Win32,59.80861244,,,,,,,,,,,,,,,,,,,,,,
0,j,1,0.944,2,3,11,3,1,j.PNG,j,610898813e48dc2864965122,2021-10-19_21h15.58.740,forced_choiceRT,2021.1.2,Win32,59.80861244,,,,,,,,,,,,,,,,,,,,,,
0,j,1,0.618,3,0,12,3,1,j.PNG,j,610898813e48dc2864965122,2021-10-19_21h15.58.740,forced_choiceRT,2021.1.2,Win32,59.80861244,,,,,,,,,,,,,,,,,,,,,,
0,g,1,0.559,3,1,13,1,1,g.PNG,g,610898813e48dc2864965122,2021-10-19_21h15.58.740,forced_choiceRT,2021.1.2,Win32,59.80861244,,,,,,,,,,,,,,,,,,,,,,
0,h,1,0.758,3,2,14,2,1,h.PNG,h,610898813e48dc2864965122,2021-10-19_21h15.58.740,forced_choiceRT,2021.1.2,Win32,59.80861244,,,,,,,,,,,,,,,,,,,,,,
0,h,1,0.566,3,3,15,2,1,h.PNG,h,610898813e48dc2864965122,2021-10-19_21h15.58.740,forced_choiceRT,2021.1.2,Win32,59.80861244,,,,,,,,,,,,,,,,,,,,,,
0,f,1,0.593,4,0,16,0,1,f.PNG,f,610898813e48dc2864965122,2021-10-19_21h15.58.740,forced_choiceRT,2021.1.2,Win32,59.80861244,,,,,,,,,,,,,,,,,,,,,,
0,f,1,0.618,4,1,17,0,1,f.PNG,f,610898813e48dc2864965122,2021-10-19_21h15.58.740,forced_choiceRT,2021.1.2,Win32,59.80861244,,,,,,,,,,,,,,,,,,,,,,
0,g,1,0.802,4,2,18,1,1,g.PNG,g,610898813e48dc2864965122,2021-10-19_21h15.58.740,forced_choiceRT,2021.1.2,Win32,59.80861244,,,,,,,,,,,,,,,,,,,,,,
0,g,1,0.466,4,3,19,1,1,g.PNG,g,610898813e48dc2864965122,2021-10-19_21h15.58.740,forced_choiceRT,2021.1.2,Win32,59.80861244,,,,,,,,,,,,,,,,,,,,,,
0,f,1,0.709,5,0,20,0,1,f.PNG,f,610898813e48dc2864965122,2021-10-19_21h15.58.740,forced_choiceRT,2021.1.2,Win32,59.80861244,,,,,,,,,,,,,,,,,,,,,,
0,j,1,1.439,5,1,21,3,1,j.PNG,j,610898813e48dc2864965122,2021-10-19_21h15.58.740,forced_choiceRT,2021.1.2,Win32,59.80861244,,,,,,,,,,,,,,,,,,,,,,
0,j,0,0.502,5,2,22,2,1,h.PNG,h,610898813e48dc2864965122,2021-10-19_21h15.58.740,forced_choiceRT,2021.1.2,Win32,59.80861244,,,,,,,,,,,,,,,,,,,,,,
0,f,1,0.645,5,3,23,0,1,f.PNG,f,610898813e48dc2864965122,2021-10-19_21h15.58.740,forced_choiceRT,2021.1.2,Win32,59.80861244,,,,,,,,,,,,,,,,,,,,,,
0,h,1,0.743,6,0,24,2,1,h.PNG,h,610898813e48dc2864965122,2021-10-19_21h15.58.740,forced_choiceRT,2021.1.2,Win32,59.80861244,,,,,,,,,,,,,,,,,,,,,,
0,g,1,0.568,6,1,25,1,1,g.PNG,g,610898813e48dc2864965122,2021-10-19_21h15.58.740,forced_choiceRT,2021.1.2,Win32,59.80861244,,,,,,,,,,,,,,,,,,,,,,
0,f,1,0.567,6,2,26,0,1,f.PNG,f,610898813e48dc2864965122,2021-10-19_21h15.58.740,forced_choiceRT,2021.1.2,Win32,59.80861244,,,,,,,,,,,,,,,,,,,,,,
0,h,1,0.638,6,3,27,2,1,h.PNG,h,610898813e48dc2864965122,2021-10-19_21h15.58.740,forced_choiceRT,2021.1.2,Win32,59.80861244,,,,,,,,,,,,,,,,,,,,,,
0,h,1,0.44,7,0,28,2,1,h.PNG,h,610898813e48dc2864965122,2021-10-19_21h15.58.740,forced_choiceRT,2021.1.2,Win32,59.80861244,,,,,,,,,,,,,,,,,,,,,,
0,g,1,0.583,7,1,29,1,1,g.PNG,g,610898813e48dc2864965122,2021-10-19_21h15.58.740,forced_choiceRT,2021.1.2,Win32,59.80861244,,,,,,,,,,,,,,,,,,,,,,
0,f,1,0.551,7,2,30,0,1,f.PNG,f,610898813e48dc2864965122,2021-10-19_21h15.58.740,forced_choiceRT,2021.1.2,Win32,59.80861244,,,,,,,,,,,,,,,,,,,,,,
0,g,1,0.525,7,3,31,1,1,g.PNG,g,610898813e48dc2864965122,2021-10-19_21h15.58.740,forced_choiceRT,2021.1.2,Win32,59.80861244,,,,,,,,,,,,,,,,,,,,,,
0,j,1,0.771,8,0,32,3,1,j.PNG,j,610898813e48dc2864965122,2021-10-19_21h15.58.740,forced_choiceRT,2021.1.2,Win32,59.80861244,,,,,,,,,,,,,,,,,,,,,,
0,j,1,0.485,8,1,33,3,1,j.PNG,j,610898813e48dc2864965122,2021-10-19_21h15.58.740,forced_choiceRT,2021.1.2,Win32,59.80861244,,,,,,,,,,,,,,,,,,,,,,
0,f,1,0.569,8,2,34,0,1,f.PNG,f,610898813e48dc2864965122,2021-10-19_21h15.58.740,forced_choiceRT,2021.1.2,Win32,59.80861244,,,,,,,,,,,,,,,,,,,,,,
0,g,1,0.603,8,3,35,1,1,g.PNG,g,610898813e48dc2864965122,2021-10-19_21h15.58.740,forced_choiceRT,2021.1.2,Win32,59.80861244,,,,,,,,,,,,,,,,,,,,,,
0,h,1,0.5,9,0,36,2,1,h.PNG,h,610898813e48dc2864965122,2021-10-19_21h15.58.740,forced_choiceRT,2021.1.2,Win32,59.80861244,,,,,,,,,,,,,,,,,,,,,,
0,j,1,0.653,9,1,37,3,1,j.PNG,j,610898813e48dc2864965122,2021-10-19_21h15.58.740,forced_choiceRT,2021.1.2,Win32,59.80861244,,,,,,,,,,,,,,,,,,,,,,
0,f,1,0.573,9,2,38,0,1,f.PNG,f,610898813e48dc2864965122,2021-10-19_21h15.58.740,forced_choiceRT,2021.1.2,Win32,59.80861244,,,,,,,,,,,,,,,,,,,,,,
0,h,1,1.051,9,3,39,2,1,h.PNG,h,610898813e48dc2864965122,2021-10-19_21h15.58.740,forced_choiceRT,2021.1.2,Win32,59.80861244,,,,,,,,,,,,,,,,,,,,,,
0,h,1,0.501,10,0,40,2,1,h.PNG,h,610898813e48dc2864965122,2021-10-19_21h15.58.740,forced_choiceRT,2021.1.2,Win32,59.80861244,,,,,,,,,,,,,,,,,,,,,,
0,g,1,0.504,10,1,41,1,1,g.PNG,g,610898813e48dc2864965122,2021-10-19_21h15.58.740,forced_choiceRT,2021.1.2,Win32,59.80861244,,,,,,,,,,,,,,,,,,,,,,
0,g,0,0.45,10,2,42,3,1,j.PNG,j,610898813e48dc2864965122,2021-10-19_21h15.58.740,forced_choiceRT,2021.1.2,Win32,59.80861244,,,,,,,,,,,,,,,,,,,,,,
0,j,1,0.584,10,3,43,3,1,j.PNG,j,610898813e48dc2864965122,2021-10-19_21h15.58.740,forced_choiceRT,2021.1.2,Win32,59.80861244,,,,,,,,,,,,,,,,,,,,,,
0,f,1,0.57,11,0,44,0,1,f.PNG,f,610898813e48dc2864965122,2021-10-19_21h15.58.740,forced_choiceRT,2021.1.2,Win32,59.80861244,,,,,,,,,,,,,,,,,,,,,,
0,f,1,0.575,11,1,45,0,1,f.PNG,f,610898813e48dc2864965122,2021-10-19_21h15.58.740,forced_choiceRT,2021.1.2,Win32,59.80861244,,,,,,,,,,,,,,,,,,,,,,
0,j,1,0.701,11,2,46,3,1,j.PNG,j,610898813e48dc2864965122,2021-10-19_21h15.58.740,forced_choiceRT,2021.1.2,Win32,59.80861244,,,,,,,,,,,,,,,,,,,,,,
0,g,0,0.524,11,3,47,0,1,f.PNG,f,610898813e48dc2864965122,2021-10-19_21h15.58.740,forced_choiceRT,2021.1.2,Win32,59.80861244,,,,,,,,,,,,,,,,,,,,,,
0,j,1,0.773,12,0,48,3,1,j.PNG,j,610898813e48dc2864965122,2021-10-19_21h15.58.740,forced_choiceRT,2021.1.2,Win32,59.80861244,,,,,,,,,,,,,,,,,,,,,,
0,h,0,0.954,12,1,49,3,1,j.PNG,j,610898813e48dc2864965122,2021-10-19_21h15.58.740,forced_choiceRT,2021.1.2,Win32,59.80861244,,,,,,,,,,,,,,,,,,,,,,
0,h,1,0.719,12,2,50,2,1,h.PNG,h,610898813e48dc2864965122,2021-10-19_21h15.58.740,forced_choiceRT,2021.1.2,Win32,59.80861244,,,,,,,,,,,,,,,,,,,,,,
0,f,1,0.569,12,3,51,0,1,f.PNG,f,610898813e48dc2864965122,2021-10-19_21h15.58.740,forced_choiceRT,2021.1.2,Win32,59.80861244,,,,,,,,,,,,,,,,,,,,,,
0,g,1,0.537,13,0,52,1,1,g.PNG,g,610898813e48dc2864965122,2021-10-19_21h15.58.740,forced_choiceRT,2021.1.2,Win32,59.80861244,,,,,,,,,,,,,,,,,,,,,,
0,j,1,0.671,13,1,53,3,1,j.PNG,j,610898813e48dc2864965122,2021-10-19_21h15.58.740,forced_choiceRT,2021.1.2,Win32,59.80861244,,,,,,,,,,,,,,,,,,,,,,
0,g,1,0.654,13,2,54,1,1,g.PNG,g,610898813e48dc2864965122,2021-10-19_21h15.58.740,forced_choiceRT,2021.1.2,Win32,59.80861244,,,,,,,,,,,,,,,,,,,,,,
0,g,1,0.441,13,3,55,1,1,g.PNG,g,610898813e48dc2864965122,2021-10-19_21h15.58.740,forced_choiceRT,2021.1.2,Win32,59.80861244,,,,,,,,,,,,,,,,,,,,,,
0,h,1,0.589,14,0,56,2,1,h.PNG,h,610898813e48dc2864965122,2021-10-19_21h15.58.740,forced_choiceRT,2021.1.2,Win32,59.80861244,,,,,,,,,,,,,,,,,,,,,,
0,g,0,0.555,14,1,57,0,1,f.PNG,f,610898813e48dc2864965122,2021-10-19_21h15.58.740,forced_choiceRT,2021.1.2,Win32,59.80861244,,,,,,,,,,,,,,,,,,,,,,
0,g,1,0.692,14,2,58,1,1,g.PNG,g,610898813e48dc2864965122,2021-10-19_21h15.58.740,forced_choiceRT,2021.1.2,Win32,59.80861244,,,,,,,,,,,,,,,,,,,,,,
0,j,1,0.733,14,3,59,3,1,j.PNG,j,610898813e48dc2864965122,2021-10-19_21h15.58.740,forced_choiceRT,2021.1.2,Win32,59.80861244,,,,,,,,,,,,,,,,,,,,,,
,,,,,,,,,,,610898813e48dc2864965122,2021-10-19_21h15.58.740,forced_choiceRT,2021.1.2,Win32,59.80861244,f,2.259,0,0,0,0,1,,,,,,,,,,,,,,,
,,,,,,,,,,,610898813e48dc2864965122,2021-10-19_21h15.58.740,forced_choiceRT,2021.1.2,Win32,59.80861244,f,2.113,1,0,1,0,1,,,,,,,,,,,,,,,
,,,,,,,,,,,610898813e48dc2864965122,2021-10-19_21h15.58.740,forced_choiceRT,2021.1.2,Win32,59.80861244,g,2.042,2,0,2,0,1,,,,,,,,,,,,,,,
,,,,,,,,,,,610898813e48dc2864965122,2021-10-19_21h15.58.740,forced_choiceRT,2021.1.2,Win32,59.80861244,g,1.981,3,0,3,0,1,,,,,,,,,,,,,,,
,,,,,,,,,,,610898813e48dc2864965122,2021-10-19_21h15.58.740,forced_choiceRT,2021.1.2,Win32,59.80861244,g,1.965,4,0,4,0,1,,,,,,,,,,,,,,,
,,,,,,,,,,,610898813e48dc2864965122,2021-10-19_21h15.58.740,forced_choiceRT,2021.1.2,Win32,59.80861244,g,1.724,5,0,5,0,1,,,,,,,,,,,,,,,
,,,,,,,,,,,610898813e48dc2864965122,2021-10-19_21h15.58.740,forced_choiceRT,2021.1.2,Win32,59.80861244,g,1.98,6,0,6,0,1,,,,,,,,,,,,,,,
,,,,,,,,,,,610898813e48dc2864965122,2021-10-19_21h15.58.740,forced_choiceRT,2021.1.2,Win32,59.80861244,g,1.994,7,0,7,0,1,,,,,,,,,,,,,,,
,,,,,,,,,,,610898813e48dc2864965122,2021-10-19_21h15.58.740,forced_choiceRT,2021.1.2,Win32,59.80861244,g,1.743,8,0,8,0,1,,,,,,,,,,,,,,,
,,,,,,,,,,,610898813e48dc2864965122,2021-10-19_21h15.58.740,forced_choiceRT,2021.1.2,Win32,59.80861244,g,2.062,9,0,9,0,1,,,,,,,,,,,,,,,
,,,,,,,,,,,610898813e48dc2864965122,2021-10-19_21h15.58.740,forced_choiceRT,2021.1.2,Win32,59.80861244,g,2.024,10,0,10,0,1,,,,,,,,,,,,,,,
,,,,,,,,,,,610898813e48dc2864965122,2021-10-19_21h15.58.740,forced_choiceRT,2021.1.2,Win32,59.80861244,g,2.025,11,0,11,0,1,,,,,,,,,,,,,,,
,,,,,,,,,,,610898813e48dc2864965122,2021-10-19_21h15.58.740,forced_choiceRT,2021.1.2,Win32,59.80861244,g,2.06,12,0,12,0,1,,,,,,,,,,,,,,,
,,,,,,,,,,,610898813e48dc2864965122,2021-10-19_21h15.58.740,forced_choiceRT,2021.1.2,Win32,59.80861244,g,2.149,13,0,13,0,1,,,,,,,,,,,,,,,
,,,,,,,,,,,610898813e48dc2864965122,2021-10-19_21h15.58.740,forced_choiceRT,2021.1.2,Win32,59.80861244,g,2.067,14,0,14,0,1,,,,,,,,,,,,,,,
,,,,,,,,,,,610898813e48dc2864965122,2021-10-19_21h15.58.740,forced_choiceRT,2021.1.2,Win32,59.80861244,g,1.96,15,0,15,0,1,,,,,,,,,,,,,,,
,,,,,,,,,,,610898813e48dc2864965122,2021-10-19_21h15.58.740,forced_choiceRT,2021.1.2,Win32,59.80861244,g,2.041,16,0,16,0,1,,,,,,,,,,,,,,,
,,,,,,,,,,,610898813e48dc2864965122,2021-10-19_21h15.58.740,forced_choiceRT,2021.1.2,Win32,59.80861244,g,2.034,17,0,17,0,1,,,,,,,,,,,,,,,
,,,,,,,,,,,610898813e48dc2864965122,2021-10-19_21h15.58.740,forced_choiceRT,2021.1.2,Win32,59.80861244,g,2.03,18,0,18,0,1,,,,,,,,,,,,,,,
,,,,,,,,,,,610898813e48dc2864965122,2021-10-19_21h15.58.740,forced_choiceRT,2021.1.2,Win32,59.80861244,g,2.011,19,0,19,0,1,,,,,,,,,,,,,,,
0.55,,,,,,,,,h.PNG,h,610898813e48dc2864965122,2021-10-19_21h15.58.740,forced_choiceRT,2021.1.2,Win32,59.80861244,,,,,,,,1,Slow,h,1,2.174,0,0,0,2,1,,,,,
0.54,,,,,,,,,g.PNG,g,610898813e48dc2864965122,2021-10-19_21h15.58.740,forced_choiceRT,2021.1.2,Win32,59.80861244,,,,,,,,1,Slow,g,1,2.159,0,1,1,1,1,,,,,
1.48,,,,,,,,,f.PNG,f,610898813e48dc2864965122,2021-10-19_21h15.58.740,forced_choiceRT,2021.1.2,Win32,59.80861244,,,,,,,,1,Ontime,f,1,2.045,0,2,2,0,1,,,,,
0.52,,,,,,,,,f.PNG,f,610898813e48dc2864965122,2021-10-19_21h15.58.740,forced_choiceRT,2021.1.2,Win32,59.80861244,,,,,,,,1,Fast,f,1,1.511,0,3,3,0,1,,,,,
1.05,,,,,,,,,g.PNG,g,610898813e48dc2864965122,2021-10-19_21h15.58.740,forced_choiceRT,2021.1.2,Win32,59.80861244,,,,,,,,1,Ontime,f,0,1.992,1,0,4,1,1,,,,,
0.36,,,,,,,,,g.PNG,g,610898813e48dc2864965122,2021-10-19_21h15.58.740,forced_choiceRT,2021.1.2,Win32,59.80861244,,,,,,,,1,Fast,g,1,1.843,1,1,5,1,1,,,,,
1.68,,,,,,,,,g.PNG,g,610898813e48dc2864965122,2021-10-19_21h15.58.740,forced_choiceRT,2021.1.2,Win32,59.80861244,,,,,,,,1,Slow,f,0,2.129,1,2,6,1,1,,,,,
1.94,,,,,,,,,f.PNG,f,610898813e48dc2864965122,2021-10-19_21h15.58.740,forced_choiceRT,2021.1.2,Win32,59.80861244,,,,,,,,1,Ontime,g,0,2.06,1,3,7,0,1,,,,,
0.22,,,,,,,,,g.PNG,g,610898813e48dc2864965122,2021-10-19_21h15.58.740,forced_choiceRT,2021.1.2,Win32,59.80861244,,,,,,,,1,Fast,g,1,1.714,2,0,8,1,1,,,,,
0.27,,,,,,,,,j.PNG,j,610898813e48dc2864965122,2021-10-19_21h15.58.740,forced_choiceRT,2021.1.2,Win32,59.80861244,,,,,,,,1,Fast,j,1,1.781,2,1,9,3,1,,,,,
1.32,,,,,,,,,f.PNG,f,610898813e48dc2864965122,2021-10-19_21h15.58.740,forced_choiceRT,2021.1.2,Win32,59.80861244,,,,,,,,1,Ontime,f,1,2.081,2,2,10,0,1,,,,,
1.65,,,,,,,,,j.PNG,j,610898813e48dc2864965122,2021-10-19_21h15.58.740,forced_choiceRT,2021.1.2,Win32,59.80861244,,,,,,,,1,Slow,g,0,2.129,2,3,11,3,1,,,,,
1.6,,,,,,,,,g.PNG,g,610898813e48dc2864965122,2021-10-19_21h15.58.740,forced_choiceRT,2021.1.2,Win32,59.80861244,,,,,,,,1,Ontime,g,1,2.092,3,0,12,1,1,,,,,
1.42,,,,,,,,,f.PNG,f,610898813e48dc2864965122,2021-10-19_21h15.58.740,forced_choiceRT,2021.1.2,Win32,59.80861244,,,,,,,,1,Ontime,f,1,1.975,3,1,13,0,1,,,,,
1.57,,,,,,,,,h.PNG,h,610898813e48dc2864965122,2021-10-19_21h15.58.740,forced_choiceRT,2021.1.2,Win32,59.80861244,,,,,,,,1,Ontime,h,1,2.091,3,2,14,2,1,,,,,
0.42,,,,,,,,,g.PNG,g,610898813e48dc2864965122,2021-10-19_21h15.58.740,forced_choiceRT,2021.1.2,Win32,59.80861244,,,,,,,,1,Ontime,g,1,2.009,3,3,15,1,1,,,,,
0.99,,,,,,,,,h.PNG,h,610898813e48dc2864965122,2021-10-19_21h15.58.740,forced_choiceRT,2021.1.2,Win32,59.80861244,,,,,,,,1,Ontime,h,1,1.999,4,0,16,2,1,,,,,
0.36,,,,,,,,,h.PNG,h,610898813e48dc2864965122,2021-10-19_21h15.58.740,forced_choiceRT,2021.1.2,Win32,59.80861244,,,,,,,,1,Ontime,h,1,1.963,4,1,17,2,1,,,,,
1.47,,,,,,,,,g.PNG,g,610898813e48dc2864965122,2021-10-19_21h15.58.740,forced_choiceRT,2021.1.2,Win32,59.80861244,,,,,,,,1,Ontime,g,1,2.076,4,2,18,1,1,,,,,
1.07,,,,,,,,,f.PNG,f,610898813e48dc2864965122,2021-10-19_21h15.58.740,forced_choiceRT,2021.1.2,Win32,59.80861244,,,,,,,,1,Ontime,f,1,2.061,4,3,19,0,1,,,,,
0.47,,,,,,,,,j.PNG,j,610898813e48dc2864965122,2021-10-19_21h15.58.740,forced_choiceRT,2021.1.2,Win32,59.80861244,,,,,,,,1,Fast,j,1,1.726,5,0,20,3,1,,,,,
1.48,,,,,,,,,j.PNG,j,610898813e48dc2864965122,2021-10-19_21h15.58.740,forced_choiceRT,2021.1.2,Win32,59.80861244,,,,,,,,1,Slow,h,0,2.157,5,1,21,3,1,,,,,
0.31,,,,,,,,,f.PNG,f,610898813e48dc2864965122,2021-10-19_21h15.58.740,forced_choiceRT,2021.1.2,Win32,59.80861244,,,,,,,,1,Ontime,f,1,2.042,5,2,22,0,1,,,,,
1.11,,,,,,,,,j.PNG,j,610898813e48dc2864965122,2021-10-19_21h15.58.740,forced_choiceRT,2021.1.2,Win32,59.80861244,,,,,,,,1,Ontime,j,1,2.093,5,3,23,3,1,,,,,
1.96,,,,,,,,,j.PNG,j,610898813e48dc2864965122,2021-10-19_21h15.58.740,forced_choiceRT,2021.1.2,Win32,59.80861244,,,,,,,,1,Slow,f,0,2.209,6,0,24,3,1,,,,,
1.27,,,,,,,,,h.PNG,h,610898813e48dc2864965122,2021-10-19_21h15.58.740,forced_choiceRT,2021.1.2,Win32,59.80861244,,,,,,,,1,Slow,h,1,2.13,6,1,25,2,1,,,,,
1.12,,,,,,,,,g.PNG,g,610898813e48dc2864965122,2021-10-19_21h15.58.740,forced_choiceRT,2021.1.2,Win32,59.80861244,,,,,,,,1,Ontime,g,1,2.092,6,2,26,1,1,,,,,
1.65,,,,,,,,,f.PNG,f,610898813e48dc2864965122,2021-10-19_21h15.58.740,forced_choiceRT,2021.1.2,Win32,59.80861244,,,,,,,,1,Slow,h,0,2.112,6,3,27,0,1,,,,,
1.29,,,,,,,,,j.PNG,j,610898813e48dc2864965122,2021-10-19_21h15.58.740,forced_choiceRT,2021.1.2,Win32,59.80861244,,,,,,,,1,Ontime,j,1,1.909,7,0,28,3,1,,,,,
1.44,,,,,,,,,h.PNG,h,610898813e48dc2864965122,2021-10-19_21h15.58.740,forced_choiceRT,2021.1.2,Win32,59.80861244,,,,,,,,1,Ontime,h,1,2.096,7,1,29,2,1,,,,,
0.82,,,,,,,,,h.PNG,h,610898813e48dc2864965122,2021-10-19_21h15.58.740,forced_choiceRT,2021.1.2,Win32,59.80861244,,,,,,,,1,Ontime,h,1,1.959,7,2,30,2,1,,,,,
0.53,,,,,,,,,g.PNG,g,610898813e48dc2864965122,2021-10-19_21h15.58.740,forced_choiceRT,2021.1.2,Win32,59.80861244,,,,,,,,1,Fast,g,1,1.557,7,3,31,1,1,,,,,
0.7,,,,,,,,,h.PNG,h,610898813e48dc2864965122,2021-10-19_21h15.58.740,forced_choiceRT,2021.1.2,Win32,59.80861244,,,,,,,,1,Ontime,h,1,2.078,8,0,32,2,1,,,,,
0.86,,,,,,,,,h.PNG,h,610898813e48dc2864965122,2021-10-19_21h15.58.740,forced_choiceRT,2021.1.2,Win32,59.80861244,,,,,,,,1,Slow,h,1,2.243,8,1,33,2,1,,,,,
0.09,,,,,,,,,j.PNG,j,610898813e48dc2864965122,2021-10-19_21h15.58.740,forced_choiceRT,2021.1.2,Win32,59.80861244,,,,,,,,1,Slow,j,1,8.466,8,2,34,3,1,,,,,
1.77,,,,,,,,,j.PNG,j,610898813e48dc2864965122,2021-10-19_21h15.58.740,forced_choiceRT,2021.1.2,Win32,59.80861244,,,,,,,,1,Slow,j,1,2.226,8,3,35,3,1,,,,,
0.05,,,,,,,,,f.PNG,f,610898813e48dc2864965122,2021-10-19_21h15.58.740,forced_choiceRT,2021.1.2,Win32,59.80861244,,,,,,,,1,Ontime,f,1,2.03,9,0,36,0,1,,,,,
0.54,,,,,,,,,h.PNG,h,610898813e48dc2864965122,2021-10-19_21h15.58.740,forced_choiceRT,2021.1.2,Win32,59.80861244,,,,,,,,1,Ontime,h,1,1.999,9,1,37,2,1,,,,,
0.7,,,,,,,,,f.PNG,f,610898813e48dc2864965122,2021-10-19_21h15.58.740,forced_choiceRT,2021.1.2,Win32,59.80861244,,,,,,,,1,Ontime,f,1,2.011,9,2,38,0,1,,,,,
1.78,,,,,,,,,j.PNG,j,610898813e48dc2864965122,2021-10-19_21h15.58.740,forced_choiceRT,2021.1.2,Win32,59.80861244,,,,,,,,1,Slow,g,0,2.179,9,3,39,3,1,,,,,
,,,,,,,,,,,610898813e48dc2864965122,2021-10-19_21h15.58.740,forced_choiceRT,2021.1.2,Win32,59.80861244,,,,,,,,,,,,,,,,,,0,0,0,0,1
1.83,,,,,,,,,j.PNG,j,610898813e48dc2864965122,2021-10-19_21h15.58.740,forced_choiceRT,2021.1.2,Win32,59.80861244,,,,,,,,2,Ontime,f,0,2.092,0,0,0,3,1,,,,,
1.81,,,,,,,,,g.PNG,g,610898813e48dc2864965122,2021-10-19_21h15.58.740,forced_choiceRT,2021.1.2,Win32,59.80861244,,,,,,,,2,Slow,j,0,2.131,0,1,1,1,1,,,,,
1.21,,,,,,,,,j.PNG,j,610898813e48dc2864965122,2021-10-19_21h15.58.740,forced_choiceRT,2021.1.2,Win32,59.80861244,,,,,,,,2,Fast,j,1,1.847,0,2,2,3,1,,,,,
0.71,,,,,,,,,j.PNG,j,610898813e48dc2864965122,2021-10-19_21h15.58.740,forced_choiceRT,2021.1.2,Win32,59.80861244,,,,,,,,2,Slow,j,1,2.125,0,3,3,3,1,,,,,
1.62,,,,,,,,,h.PNG,h,610898813e48dc2864965122,2021-10-19_21h15.58.740,forced_choiceRT,2021.1.2,Win32,59.80861244,,,,,,,,2,Ontime,f,0,2.045,1,0,4,2,1,,,,,
0.38,,,,,,,,,g.PNG,g,610898813e48dc2864965122,2021-10-19_21h15.58.740,forced_choiceRT,2021.1.2,Win32,59.80861244,,,,,,,,2,Ontime,g,1,2.048,1,1,5,1,1,,,,,
1.79,,,,,,,,,j.PNG,j,610898813e48dc2864965122,2021-10-19_21h15.58.740,forced_choiceRT,2021.1.2,Win32,59.80861244,,,,,,,,2,Slow,f,0,2.245,1,2,6,3,1,,,,,
1.23,,,,,,,,,f.PNG,f,610898813e48dc2864965122,2021-10-19_21h15.58.740,forced_choiceRT,2021.1.2,Win32,59.80861244,,,,,,,,2,Fast,f,1,1.794,1,3,7,0,1,,,,,
0.93,,,,,,,,,h.PNG,h,610898813e48dc2864965122,2021-10-19_21h15.58.740,forced_choiceRT,2021.1.2,Win32,59.80861244,,,,,,,,2,Fast,h,1,1.792,2,0,8,2,1,,,,,
0,,,,,,,,,f.PNG,f,610898813e48dc2864965122,2021-10-19_21h15.58.740,forced_choiceRT,2021.1.2,Win32,59.80861244,,,,,,,,2,Fast,f,1,0.817,2,1,9,0,1,,,,,
1.06,,,,,,,,,g.PNG,g,610898813e48dc2864965122,2021-10-19_21h15.58.740,forced_choiceRT,2021.1.2,Win32,59.80861244,,,,,,,,2,Slow,g,1,2.162,2,2,10,1,1,,,,,
1.27,,,,,,,,,j.PNG,j,610898813e48dc2864965122,2021-10-19_21h15.58.740,forced_choiceRT,2021.1.2,Win32,59.80861244,,,,,,,,2,Ontime,h,0,2.077,2,3,11,3,1,,,,,
0.03,,,,,,,,,h.PNG,h,610898813e48dc2864965122,2021-10-19_21h15.58.740,forced_choiceRT,2021.1.2,Win32,59.80861244,,,,,,,,2,Ontime,h,1,2.014,3,0,12,2,1,,,,,
0.29,,,,,,,,,h.PNG,h,610898813e48dc2864965122,2021-10-19_21h15.58.740,forced_choiceRT,2021.1.2,Win32,59.80861244,,,,,,,,2,Ontime,h,1,1.924,3,1,13,2,1,,,,,
1.95,,,,,,,,,f.PNG,f,610898813e48dc2864965122,2021-10-19_21h15.58.740,forced_choiceRT,2021.1.2,Win32,59.80861244,,,,,,,,2,Slow,f,1,2.245,3,2,14,0,1,,,,,
0.59,,,,,,,,,f.PNG,f,610898813e48dc2864965122,2021-10-19_21h15.58.740,forced_choiceRT,2021.1.2,Win32,59.80861244,,,,,,,,2,Fast,f,1,1.155,3,3,15,0,1,,,,,
1.48,,,,,,,,,f.PNG,f,610898813e48dc2864965122,2021-10-19_21h15.58.740,forced_choiceRT,2021.1.2,Win32,59.80861244,,,,,,,,2,Ontime,f,1,1.963,4,0,16,0,1,,,,,
0.07,,,,,,,,,g.PNG,g,610898813e48dc2864965122,2021-10-19_21h15.58.740,forced_choiceRT,2021.1.2,Win32,59.80861244,,,,,,,,2,Ontime,g,1,2.015,4,1,17,1,1,,,,,
0.55,,,,,,,,,h.PNG,h,610898813e48dc2864965122,2021-10-19_21h15.58.740,forced_choiceRT,2021.1.2,Win32,59.80861244,,,,,,,,2,Ontime,h,1,1.992,4,2,18,2,1,,,,,
0.19,,,,,,,,,f.PNG,f,610898813e48dc2864965122,2021-10-19_21h15.58.740,forced_choiceRT,2021.1.2,Win32,59.80861244,,,,,,,,2,Ontime,f,1,2.097,4,3,19,0,1,,,,,
1.22,,,,,,,,,h.PNG,h,610898813e48dc2864965122,2021-10-19_21h15.58.740,forced_choiceRT,2021.1.2,Win32,59.80861244,,,,,,,,2,Slow,h,1,2.208,5,0,20,2,1,,,,,
0.28,,,,,,,,,f.PNG,f,610898813e48dc2864965122,2021-10-19_21h15.58.740,forced_choiceRT,2021.1.2,Win32,59.80861244,,,,,,,,2,Ontime,f,1,2.073,5,1,21,0,1,,,,,
1.7,,,,,,,,,j.PNG,j,610898813e48dc2864965122,2021-10-19_21h15.58.740,forced_choiceRT,2021.1.2,Win32,59.80861244,,,,,,,,2,Slow,h,0,2.265,5,2,22,3,1,,,,,
0.24,,,,,,,,,f.PNG,f,610898813e48dc2864965122,2021-10-19_21h15.58.740,forced_choiceRT,2021.1.2,Win32,59.80861244,,,,,,,,2,Ontime,f,1,2.064,5,3,23,0,1,,,,,
0.44,,,,,,,,,h.PNG,h,610898813e48dc2864965122,2021-10-19_21h15.58.740,forced_choiceRT,2021.1.2,Win32,59.80861244,,,,,,,,2,Fast,h,1,1.874,6,0,24,2,1,,,,,
0.55,,,,,,,,,f.PNG,f,610898813e48dc2864965122,2021-10-19_21h15.58.740,forced_choiceRT,2021.1.2,Win32,59.80861244,,,,,,,,2,Ontime,f,1,1.978,6,1,25,0,1,,,,,
1.96,,,,,,,,,j.PNG,j,610898813e48dc2864965122,2021-10-19_21h15.58.740,forced_choiceRT,2021.1.2,Win32,59.80861244,,,,,,,,2,Slow,h,0,2.101,6,2,26,3,1,,,,,
0.99,,,,,,,,,h.PNG,h,610898813e48dc2864965122,2021-10-19_21h15.58.740,forced_choiceRT,2021.1.2,Win32,59.80861244,,,,,,,,2,Ontime,h,1,2.026,6,3,27,2,1,,,,,
0.24,,,,,,,,,g.PNG,g,610898813e48dc2864965122,2021-10-19_21h15.58.740,forced_choiceRT,2021.1.2,Win32,59.80861244,,,,,,,,2,Ontime,g,1,2.013,7,0,28,1,1,,,,,
0.75,,,,,,,,,g.PNG,g,610898813e48dc2864965122,2021-10-19_21h15.58.740,forced_choiceRT,2021.1.2,Win32,59.80861244,,,,,,,,2,Ontime,g,1,2.031,7,1,29,1,1,,,,,
0.89,,,,,,,,,h.PNG,h,610898813e48dc2864965122,2021-10-19_21h15.58.740,forced_choiceRT,2021.1.2,Win32,59.80861244,,,,,,,,2,Ontime,h,1,2.03,7,2,30,2,1,,,,,
1.47,,,,,,,,,g.PNG,g,610898813e48dc2864965122,2021-10-19_21h15.58.740,forced_choiceRT,2021.1.2,Win32,59.80861244,,,,,,,,2,Slow,g,1,2.13,7,3,31,1,1,,,,,
0.22,,,,,,,,,g.PNG,g,610898813e48dc2864965122,2021-10-19_21h15.58.740,forced_choiceRT,2021.1.2,Win32,59.80861244,,,,,,,,2,Ontime,g,1,2.01,8,0,32,1,1,,,,,
1.03,,,,,,,,,f.PNG,f,610898813e48dc2864965122,2021-10-19_21h15.58.740,forced_choiceRT,2021.1.2,Win32,59.80861244,,,,,,,,2,Ontime,f,1,2.028,8,1,33,0,1,,,,,
0.96,,,,,,,,,h.PNG,h,610898813e48dc2864965122,2021-10-19_21h15.58.740,forced_choiceRT,2021.1.2,Win32,59.80861244,,,,,,,,2,Fast,h,1,1.776,8,2,34,2,1,,,,,
0.47,,,,,,,,,g.PNG,g,610898813e48dc2864965122,2021-10-19_21h15.58.740,forced_choiceRT,2021.1.2,Win32,59.80861244,,,,,,,,2,Ontime,g,1,2.008,8,3,35,1,1,,,,,
0.18,,,,,,,,,g.PNG,g,610898813e48dc2864965122,2021-10-19_21h15.58.740,forced_choiceRT,2021.1.2,Win32,59.80861244,,,,,,,,2,Slow,g,1,2.143,9,0,36,1,1,,,,,
0.05,,,,,,,,,j.PNG,j,610898813e48dc2864965122,2021-10-19_21h15.58.740,forced_choiceRT,2021.1.2,Win32,59.80861244,,,,,,,,2,Fast,j,1,1.594,9,1,37,3,1,,,,,
0.39,,,,,,,,,j.PNG,j,610898813e48dc2864965122,2021-10-19_21h15.58.740,forced_choiceRT,2021.1.2,Win32,59.80861244,,,,,,,,2,Ontime,j,1,1.991,9,2,38,3,1,,,,,
1.62,,,,,,,,,j.PNG,j,610898813e48dc2864965122,2021-10-19_21h15.58.740,forced_choiceRT,2021.1.2,Win32,59.80861244,,,,,,,,2,Slow,j,1,2.126,9,3,39,3,1,,,,,
,,,,,,,,,,,610898813e48dc2864965122,2021-10-19_21h15.58.740,forced_choiceRT,2021.1.2,Win32,59.80861244,,,,,,,,,,,,,,,,,,1,0,1,0,1
1.08,,,,,,,,,g.PNG,g,610898813e48dc2864965122,2021-10-19_21h15.58.740,forced_choiceRT,2021.1.2,Win32,59.80861244,,,,,,,,3,Ontime,g,1,2.027,0,0,0,1,1,,,,,
0.95,,,,,,,,,h.PNG,h,610898813e48dc2864965122,2021-10-19_21h15.58.740,forced_choiceRT,2021.1.2,Win32,59.80861244,,,,,,,,3,Ontime,h,1,2.063,0,1,1,2,1,,,,,
1.23,,,,,,,,,h.PNG,h,610898813e48dc2864965122,2021-10-19_21h15.58.740,forced_choiceRT,2021.1.2,Win32,59.80861244,,,,,,,,3,Slow,h,1,2.142,0,2,2,2,1,,,,,
1.97,,,,,,,,,f.PNG,f,610898813e48dc2864965122,2021-10-19_21h15.58.740,forced_choiceRT,2021.1.2,Win32,59.80861244,,,,,,,,3,Slow,h,0,2.14,0,3,3,0,1,,,,,
0.43,,,,,,,,,f.PNG,f,610898813e48dc2864965122,2021-10-19_21h15.58.740,forced_choiceRT,2021.1.2,Win32,59.80861244,,,,,,,,3,Ontime,f,1,2.03,1,0,4,0,1,,,,,
1.68,,,,,,,,,g.PNG,g,610898813e48dc2864965122,2021-10-19_21h15.58.740,forced_choiceRT,2021.1.2,Win32,59.80861244,,,,,,,,3,Slow,g,1,2.225,1,1,5,1,1,,,,,
0.38,,,,,,,,,g.PNG,g,610898813e48dc2864965122,2021-10-19_21h15.58.740,forced_choiceRT,2021.1.2,Win32,59.80861244,,,,,,,,3,Fast,g,1,0.905,1,2,6,1,1,,,,,
1.95,,,,,,,,,f.PNG,f,610898813e48dc2864965122,2021-10-19_21h15.58.740,forced_choiceRT,2021.1.2,Win32,59.80861244,,,,,,,,3,Slow,h,0,2.343,1,3,7,0,1,,,,,
0.96,,,,,,,,,g.PNG,g,610898813e48dc2864965122,2021-10-19_21h15.58.740,forced_choiceRT,2021.1.2,Win32,59.80861244,,,,,,,,3,Ontime,g,1,1.948,2,0,8,1,1,,,,,
0.34,,,,,,,,,h.PNG,h,610898813e48dc2864965122,2021-10-19_21h15.58.740,forced_choiceRT,2021.1.2,Win32,59.80861244,,,,,,,,3,Fast,h,1,1.79,2,1,9,2,1,,,,,
1.48,,,,,,,,,g.PNG,g,610898813e48dc2864965122,2021-10-19_21h15.58.740,forced_choiceRT,2021.1.2,Win32,59.80861244,,,,,,,,3,Ontime,g,1,2.027,2,2,10,1,1,,,,,
1.97,,,,,,,,,j.PNG,j,610898813e48dc2864965122,2021-10-19_21h15.58.740,forced_choiceRT,2021.1.2,Win32,59.80861244,,,,,,,,3,Slow,f,0,2.157,2,3,11,3,1,,,,,
1.5,,,,,,,,,g.PNG,g,610898813e48dc2864965122,2021-10-19_21h15.58.740,forced_choiceRT,2021.1.2,Win32,59.80861244,,,,,,,,3,Slow,g,1,2.146,3,0,12,1,1,,,,,
1.3,,,,,,,,,j.PNG,j,610898813e48dc2864965122,2021-10-19_21h15.58.740,forced_choiceRT,2021.1.2,Win32,59.80861244,,,,,,,,3,Ontime,j,1,1.965,3,1,13,3,1,,,,,
1.21,,,,,,,,,j.PNG,j,610898813e48dc2864965122,2021-10-19_21h15.58.740,forced_choiceRT,2021.1.2,Win32,59.80861244,,,,,,,,3,Fast,g,0,1.697,3,2,14,3,1,,,,,
1.05,,,,,,,,,g.PNG,g,610898813e48dc2864965122,2021-10-19_21h15.58.740,forced_choiceRT,2021.1.2,Win32,59.80861244,,,,,,,,3,Ontime,g,1,1.913,3,3,15,1,1,,,,,
0.69,,,,,,,,,g.PNG,g,610898813e48dc2864965122,2021-10-19_21h15.58.740,forced_choiceRT,2021.1.2,Win32,59.80861244,,,,,,,,3,Ontime,g,1,2.06,4,0,16,1,1,,,,,
0.19,,,,,,,,,j.PNG,j,610898813e48dc2864965122,2021-10-19_21h15.58.740,forced_choiceRT,2021.1.2,Win32,59.80861244,,,,,,,,3,Ontime,j,1,2.034,4,1,17,3,1,,,,,
0.14,,,,,,,,,h.PNG,h,610898813e48dc2864965122,2021-10-19_21h15.58.740,forced_choiceRT,2021.1.2,Win32,59.80861244,,,,,,,,3,Ontime,h,1,1.945,4,2,18,2,1,,,,,
1.42,,,,,,,,,f.PNG,f,610898813e48dc2864965122,2021-10-19_21h15.58.740,forced_choiceRT,2021.1.2,Win32,59.80861244,,,,,,,,3,Slow,f,1,2.133,4,3,19,0,1,,,,,
1.34,,,,,,,,,f.PNG,f,610898813e48dc2864965122,2021-10-19_21h15.58.740,forced_choiceRT,2021.1.2,Win32,59.80861244,,,,,,,,3,Ontime,f,1,2.012,5,0,20,0,1,,,,,
1.87,,,,,,,,,j.PNG,j,610898813e48dc2864965122,2021-10-19_21h15.58.740,forced_choiceRT,2021.1.2,Win32,59.80861244,,,,,,,,3,Slow,j,1,5.79,5,1,21,3,1,,,,,
1.02,,,,,,,,,h.PNG,h,610898813e48dc2864965122,2021-10-19_21h15.58.740,forced_choiceRT,2021.1.2,Win32,59.80861244,,,,,,,,3,Ontime,h,1,1.957,5,2,22,2,1,,,,,
1.46,,,,,,,,,j.PNG,j,610898813e48dc2864965122,2021-10-19_21h15.58.740,forced_choiceRT,2021.1.2,Win32,59.80861244,,,,,,,,3,Ontime,h,0,2.013,5,3,23,3,1,,,,,
1.01,,,,,,,,,g.PNG,g,610898813e48dc2864965122,2021-10-19_21h15.58.740,forced_choiceRT,2021.1.2,Win32,59.80861244,,,,,,,,3,Fast,g,1,1.742,6,0,24,1,1,,,,,
1.39,,,,,,,,,f.PNG,f,610898813e48dc2864965122,2021-10-19_21h15.58.740,forced_choiceRT,2021.1.2,Win32,59.80861244,,,,,,,,3,Fast,f,1,1.879,6,1,25,0,1,,,,,
0.03,,,,,,,,,f.PNG,f,610898813e48dc2864965122,2021-10-19_21h15.58.740,forced_choiceRT,2021.1.2,Win32,59.80861244,,,,,,,,3,Slow,f,1,2.263,6,2,26,0,1,,,,,
1.55,,,,,,,,,h.PNG,h,610898813e48dc2864965122,2021-10-19_21h15.58.740,forced_choiceRT,2021.1.2,Win32,59.80861244,,,,,,,,3,Ontime,g,0,2.012,6,3,27,2,1,,,,,
1.54,,,,,,,,,f.PNG,f,610898813e48dc2864965122,2021-10-19_21h15.58.740,forced_choiceRT,2021.1.2,Win32,59.80861244,,,,,,,,3,Ontime,f,1,2.076,7,0,28,0,1,,,,,
1.45,,,,,,,,,j.PNG,j,610898813e48dc2864965122,2021-10-19_21h15.58.740,forced_choiceRT,2021.1.2,Win32,59.80861244,,,,,,,,3,Fast,f,0,1.843,7,1,29,3,1,,,,,
0.47,,,,,,,,,f.PNG,f,610898813e48dc2864965122,2021-10-19_21h15.58.740,forced_choiceRT,2021.1.2,Win32,59.80861244,,,,,,,,3,Ontime,f,1,2.025,7,2,30,0,1,,,,,
1.8,,,,,,,,,h.PNG,h,610898813e48dc2864965122,2021-10-19_21h15.58.740,forced_choiceRT,2021.1.2,Win32,59.80861244,,,,,,,,3,Slow,f,0,2.161,7,3,31,2,1,,,,,
0.46,,,,,,,,,j.PNG,j,610898813e48dc2864965122,2021-10-19_21h15.58.740,forced_choiceRT,2021.1.2,Win32,59.80861244,,,,,,,,3,Slow,j,1,2.16,8,0,32,3,1,,,,,
1.7,,,,,,,,,g.PNG,g,610898813e48dc2864965122,2021-10-19_21h15.58.740,forced_choiceRT,2021.1.2,Win32,59.80861244,,,,,,,,3,Slow,g,1,2.158,8,1,33,1,1,,,,,
1.9,,,,,,,,,f.PNG,f,610898813e48dc2864965122,2021-10-19_21h15.58.740,forced_choiceRT,2021.1.2,Win32,59.80861244,,,,,,,,3,Slow,f,1,2.161,8,2,34,0,1,,,,,
0.61,,,,,,,,,h.PNG,h,610898813e48dc2864965122,2021-10-19_21h15.58.740,forced_choiceRT,2021.1.2,Win32,59.80861244,,,,,,,,3,Ontime,h,1,1.94,8,3,35,2,1,,,,,
0.52,,,,,,,,,j.PNG,j,610898813e48dc2864965122,2021-10-19_21h15.58.740,forced_choiceRT,2021.1.2,Win32,59.80861244,,,,,,,,3,Ontime,j,1,1.908,9,0,36,3,1,,,,,
0.7,,,,,,,,,j.PNG,j,610898813e48dc2864965122,2021-10-19_21h15.58.740,forced_choiceRT,2021.1.2,Win32,59.80861244,,,,,,,,3,Ontime,j,1,1.991,9,1,37,3,1,,,,,
0,,,,,,,,,h.PNG,h,610898813e48dc2864965122,2021-10-19_21h15.58.740,forced_choiceRT,2021.1.2,Win32,59.80861244,,,,,,,,3,Ontime,h,1,1.994,9,2,38,2,1,,,,,
0.3,,,,,,,,,h.PNG,h,610898813e48dc2864965122,2021-10-19_21h15.58.740,forced_choiceRT,2021.1.2,Win32,59.80861244,,,,,,,,3,Ontime,h,1,1.976,9,3,39,2,1,,,,,
,,,,,,,,,,,610898813e48dc2864965122,2021-10-19_21h15.58.740,forced_choiceRT,2021.1.2,Win32,59.80861244,,,,,,,,,,,,,,,,,,2,0,2,0,1
0.63,,,,,,,,,f.PNG,f,610898813e48dc2864965122,2021-10-19_21h15.58.740,forced_choiceRT,2021.1.2,Win32,59.80861244,,,,,,,,4,Ontime,f,1,1.983,0,0,0,0,1,,,,,
1.18,,,,,,,,,f.PNG,f,610898813e48dc2864965122,2021-10-19_21h15.58.740,forced_choiceRT,2021.1.2,Win32,59.80861244,,,,,,,,4,Ontime,f,1,2.077,0,1,1,0,1,,,,,
0.81,,,,,,,,,h.PNG,h,610898813e48dc2864965122,2021-10-19_21h15.58.740,forced_choiceRT,2021.1.2,Win32,59.80861244,,,,,,,,4,Ontime,h,1,1.941,0,2,2,2,1,,,,,
1.79,,,,,,,,,f.PNG,f,610898813e48dc2864965122,2021-10-19_21h15.58.740,forced_choiceRT,2021.1.2,Win32,59.80861244,,,,,,,,4,Ontime,g,0,2.078,0,3,3,0,1,,,,,
1.97,,,,,,,,,g.PNG,g,610898813e48dc2864965122,2021-10-19_21h15.58.740,forced_choiceRT,2021.1.2,Win32,59.80861244,,,,,,,,4,Slow,g,1,3.42,1,0,4,1,1,,,,,
1.06,,,,,,,,,h.PNG,h,610898813e48dc2864965122,2021-10-19_21h15.58.740,forced_choiceRT,2021.1.2,Win32,59.80861244,,,,,,,,4,Ontime,h,1,1.928,1,1,5,2,1,,,,,
1.17,,,,,,,,,j.PNG,j,610898813e48dc2864965122,2021-10-19_21h15.58.740,forced_choiceRT,2021.1.2,Win32,59.80861244,,,,,,,,4,Fast,j,1,1.893,1,2,6,3,1,,,,,
0.17,,,,,,,,,j.PNG,j,610898813e48dc2864965122,2021-10-19_21h15.58.740,forced_choiceRT,2021.1.2,Win32,59.80861244,,,,,,,,4,Ontime,j,1,2.024,1,3,7,3,1,,,,,
1.16,,,,,,,,,f.PNG,f,610898813e48dc2864965122,2021-10-19_21h15.58.740,forced_choiceRT,2021.1.2,Win32,59.80861244,,,,,,,,4,Ontime,f,1,2.064,2,0,8,0,1,,,,,
1.22,,,,,,,,,j.PNG,j,610898813e48dc2864965122,2021-10-19_21h15.58.740,forced_choiceRT,2021.1.2,Win32,59.80861244,,,,,,,,4,Ontime,j,1,1.958,2,1,9,3,1,,,,,
1.28,,,,,,,,,g.PNG,g,610898813e48dc2864965122,2021-10-19_21h15.58.740,forced_choiceRT,2021.1.2,Win32,59.80861244,,,,,,,,4,Ontime,g,1,1.978,2,2,10,1,1,,,,,
1.12,,,,,,,,,h.PNG,h,610898813e48dc2864965122,2021-10-19_21h15.58.740,forced_choiceRT,2021.1.2,Win32,59.80861244,,,,,,,,4,Ontime,h,1,1.958,2,3,11,2,1,,,,,
0.15,,,,,,,,,g.PNG,g,610898813e48dc2864965122,2021-10-19_21h15.58.740,forced_choiceRT,2021.1.2,Win32,59.80861244,,,,,,,,4,Fast,g,1,0.82,3,0,12,1,1,,,,,
0.06,,,,,,,,,h.PNG,h,610898813e48dc2864965122,2021-10-19_21h15.58.740,forced_choiceRT,2021.1.2,Win32,59.80861244,,,,,,,,4,Ontime,h,1,1.982,3,1,13,2,1,,,,,
0.69,,,,,,,,,h.PNG,h,610898813e48dc2864965122,2021-10-19_21h15.58.740,forced_choiceRT,2021.1.2,Win32,59.80861244,,,,,,,,4,Slow,h,1,2.112,3,2,14,2,1,,,,,
1.68,,,,,,,,,f.PNG,f,610898813e48dc2864965122,2021-10-19_21h15.58.740,forced_choiceRT,2021.1.2,Win32,59.80861244,,,,,,,,4,Slow,f,1,2.178,3,3,15,0,1,,,,,
0.32,,,,,,,,,g.PNG,g,610898813e48dc2864965122,2021-10-19_21h15.58.740,forced_choiceRT,2021.1.2,Win32,59.80861244,,,,,,,,4,Ontime,g,1,2.012,4,0,16,1,1,,,,,
1.12,,,,,,,,,j.PNG,j,610898813e48dc2864965122,2021-10-19_21h15.58.740,forced_choiceRT,2021.1.2,Win32,59.80861244,,,,,,,,4,Fast,j,1,1.823,4,1,17,3,1,,,,,
1.19,,,,,,,,,j.PNG,j,610898813e48dc2864965122,2021-10-19_21h15.58.740,forced_choiceRT,2021.1.2,Win32,59.80861244,,,,,,,,4,Ontime,j,1,2.093,4,2,18,3,1,,,,,
0.82,,,,,,,,,g.PNG,g,610898813e48dc2864965122,2021-10-19_21h15.58.740,forced_choiceRT,2021.1.2,Win32,59.80861244,,,,,,,,4,Fast,g,1,1.891,4,3,19,1,1,,,,,
0.83,,,,,,,,,h.PNG,h,610898813e48dc2864965122,2021-10-19_21h15.58.740,forced_choiceRT,2021.1.2,Win32,59.80861244,,,,,,,,4,Ontime,h,1,2.011,5,0,20,2,1,,,,,
1.66,,,,,,,,,f.PNG,f,610898813e48dc2864965122,2021-10-19_21h15.58.740,forced_choiceRT,2021.1.2,Win32,59.80861244,,,,,,,,4,Ontime,f,1,1.998,5,1,21,0,1,,,,,
0.78,,,,,,,,,j.PNG,j,610898813e48dc2864965122,2021-10-19_21h15.58.740,forced_choiceRT,2021.1.2,Win32,59.80861244,,,,,,,,4,Ontime,j,1,2,5,2,22,3,1,,,,,
0.66,,,,,,,,,g.PNG,g,610898813e48dc2864965122,2021-10-19_21h15.58.740,forced_choiceRT,2021.1.2,Win32,59.80861244,,,,,,,,4,Ontime,g,1,2.044,5,3,23,1,1,,,,,
0.92,,,,,,,,,j.PNG,j,610898813e48dc2864965122,2021-10-19_21h15.58.740,forced_choiceRT,2021.1.2,Win32,59.80861244,,,,,,,,4,Ontime,j,1,2.075,6,0,24,3,1,,,,,
1.86,,,,,,,,,g.PNG,g,610898813e48dc2864965122,2021-10-19_21h15.58.740,forced_choiceRT,2021.1.2,Win32,59.80861244,,,,,,,,4,Slow,f,0,2.139,6,1,25,1,1,,,,,
1.69,,,,,,,,,g.PNG,g,610898813e48dc2864965122,2021-10-19_21h15.58.740,forced_choiceRT,2021.1.2,Win32,59.80861244,,,,,,,,4,Ontime,g,1,2.076,6,2,26,1,1,,,,,
1.28,,,,,,,,,f.PNG,f,610898813e48dc2864965122,2021-10-19_21h15.58.740,forced_choiceRT,2021.1.2,Win32,59.80861244,,,,,,,,4,Fast,f,1,1.742,6,3,27,0,1,,,,,
1.75,,,,,,,,,j.PNG,j,610898813e48dc2864965122,2021-10-19_21h15.58.740,forced_choiceRT,2021.1.2,Win32,59.80861244,,,,,,,,4,Slow,g,0,2.162,7,0,28,3,1,,,,,
1.56,,,,,,,,,f.PNG,f,610898813e48dc2864965122,2021-10-19_21h15.58.740,forced_choiceRT,2021.1.2,Win32,59.80861244,,,,,,,,4,Ontime,j,0,1.989,7,1,29,0,1,,,,,
0.24,,,,,,,,,h.PNG,h,610898813e48dc2864965122,2021-10-19_21h15.58.740,forced_choiceRT,2021.1.2,Win32,59.80861244,,,,,,,,4,Ontime,h,1,2.043,7,2,30,2,1,,,,,
0.74,,,,,,,,,h.PNG,h,610898813e48dc2864965122,2021-10-19_21h15.58.740,forced_choiceRT,2021.1.2,Win32,59.80861244,,,,,,,,4,Ontime,h,1,1.977,7,3,31,2,1,,,,,
1.56,,,,,,,,,j.PNG,j,610898813e48dc2864965122,2021-10-19_21h15.58.740,forced_choiceRT,2021.1.2,Win32,59.80861244,,,,,,,,4,Ontime,f,0,2.01,8,0,32,3,1,,,,,
0.33,,,,,,,,,h.PNG,h,610898813e48dc2864965122,2021-10-19_21h15.58.740,forced_choiceRT,2021.1.2,Win32,59.80861244,,,,,,,,4,Ontime,h,1,1.982,8,1,33,2,1,,,,,
1.32,,,,,,,,,h.PNG,h,610898813e48dc2864965122,2021-10-19_21h15.58.740,forced_choiceRT,2021.1.2,Win32,59.80861244,,,,,,,,4,Ontime,h,1,2.06,8,2,34,2,1,,,,,
1.79,,,,,,,,,g.PNG,g,610898813e48dc2864965122,2021-10-19_21h15.58.740,forced_choiceRT,2021.1.2,Win32,59.80861244,,,,,,,,4,Ontime,f,0,2.026,8,3,35,1,1,,,,,
0.51,,,,,,,,,f.PNG,f,610898813e48dc2864965122,2021-10-19_21h15.58.740,forced_choiceRT,2021.1.2,Win32,59.80861244,,,,,,,,4,Ontime,f,1,1.946,9,0,36,0,1,,,,,
0.67,,,,,,,,,f.PNG,f,610898813e48dc2864965122,2021-10-19_21h15.58.740,forced_choiceRT,2021.1.2,Win32,59.80861244,,,,,,,,4,Ontime,f,1,1.943,9,1,37,0,1,,,,,
1.09,,,,,,,,,g.PNG,g,610898813e48dc2864965122,2021-10-19_21h15.58.740,forced_choiceRT,2021.1.2,Win32,59.80861244,,,,,,,,4,Ontime,g,1,2.01,9,2,38,1,1,,,,,
1.41,,,,,,,,,j.PNG,j,610898813e48dc2864965122,2021-10-19_21h15.58.740,forced_choiceRT,2021.1.2,Win32,59.80861244,,,,,,,,4,Ontime,j,1,2.059,9,3,39,3,1,,,,,
,,,,,,,,,,,610898813e48dc2864965122,2021-10-19_21h15.58.740,forced_choiceRT,2021.1.2,Win32,59.80861244,,,,,,,,,,,,,,,,,,3,0,3,0,1
1.64,,,,,,,,,j.PNG,j,610898813e48dc2864965122,2021-10-19_21h15.58.740,forced_choiceRT,2021.1.2,Win32,59.80861244,,,,,,,,5,Ontime,f,0,1.946,0,0,0,3,1,,,,,
1.51,,,,,,,,,h.PNG,h,610898813e48dc2864965122,2021-10-19_21h15.58.740,forced_choiceRT,2021.1.2,Win32,59.80861244,,,,,,,,5,Ontime,g,0,2.043,0,1,1,2,1,,,,,
0.15,,,,,,,,,h.PNG,h,610898813e48dc2864965122,2021-10-19_21h15.58.740,forced_choiceRT,2021.1.2,Win32,59.80861244,,,,,,,,5,Fast,h,1,1.857,0,2,2,2,1,,,,,
1.27,,,,,,,,,f.PNG,f,610898813e48dc2864965122,2021-10-19_21h15.58.740,forced_choiceRT,2021.1.2,Win32,59.80861244,,,,,,,,5,Ontime,f,1,2.014,0,3,3,0,1,,,,,
0.08,,,,,,,,,j.PNG,j,610898813e48dc2864965122,2021-10-19_21h15.58.740,forced_choiceRT,2021.1.2,Win32,59.80861244,,,,,,,,5,Slow,j,1,2.129,1,0,4,3,1,,,,,
0.65,,,,,,,,,f.PNG,f,610898813e48dc2864965122,2021-10-19_21h15.58.740,forced_choiceRT,2021.1.2,Win32,59.80861244,,,,,,,,5,Ontime,f,1,2.04,1,1,5,0,1,,,,,
1.2,,,,,,,,,j.PNG,j,610898813e48dc2864965122,2021-10-19_21h15.58.740,forced_choiceRT,2021.1.2,Win32,59.80861244,,,,,,,,5,Slow,j,1,2.111,1,2,6,3,1,,,,,
1.48,,,,,,,,,g.PNG,g,610898813e48dc2864965122,2021-10-19_21h15.58.740,forced_choiceRT,2021.1.2,Win32,59.80861244,,,,,,,,5,Ontime,f,0,1.949,1,3,7,1,1,,,,,
1.24,,,,,,,,,h.PNG,h,610898813e48dc2864965122,2021-10-19_21h15.58.740,forced_choiceRT,2021.1.2,Win32,59.80861244,,,,,,,,5,Ontime,h,1,1.96,2,0,8,2,1,,,,,
1.53,,,,,,,,,f.PNG,f,610898813e48dc2864965122,2021-10-19_21h15.58.740,forced_choiceRT,2021.1.2,Win32,59.80861244,,,,,,,,5,Ontime,f,1,2.014,2,1,9,0,1,,,,,
1.39,,,,,,,,,f.PNG,f,610898813e48dc2864965122,2021-10-19_21h15.58.740,forced_choiceRT,2021.1.2,Win32,59.80861244,,,,,,,,5,Ontime,f,1,1.912,2,2,10,0,1,,,,,
0.88,,,,,,,,,j.PNG,j,610898813e48dc2864965122,2021-10-19_21h15.58.740,forced_choiceRT,2021.1.2,Win32,59.80861244,,,,,,,,5,Ontime,j,1,2.094,2,3,11,3,1,,,,,
1.56,,,,,,,,,g.PNG,g,610898813e48dc2864965122,2021-10-19_21h15.58.740,forced_choiceRT,2021.1.2,Win32,59.80861244,,,,,,,,5,Ontime,h,0,1.996,3,0,12,1,1,,,,,
0.04,,,,,,,,,j.PNG,j,610898813e48dc2864965122,2021-10-19_21h15.58.740,forced_choiceRT,2021.1.2,Win32,59.80861244,,,,,,,,5,Fast,j,1,1.781,3,1,13,3,1,,,,,
0.36,,,,,,,,,g.PNG,g,610898813e48dc2864965122,2021-10-19_21h15.58.740,forced_choiceRT,2021.1.2,Win32,59.80861244,,,,,,,,5,Ontime,g,1,1.978,3,2,14,1,1,,,,,
0.27,,,,,,,,,g.PNG,g,610898813e48dc2864965122,2021-10-19_21h15.58.740,forced_choiceRT,2021.1.2,Win32,59.80861244,,,,,,,,5,Ontime,g,1,1.997,3,3,15,1,1,,,,,
0.18,,,,,,,,,j.PNG,j,610898813e48dc2864965122,2021-10-19_21h15.58.740,forced_choiceRT,2021.1.2,Win32,59.80861244,,,,,,,,5,Ontime,j,1,1.907,4,0,16,3,1,,,,,
1.84,,,,,,,,,f.PNG,f,610898813e48dc2864965122,2021-10-19_21h15.58.740,forced_choiceRT,2021.1.2,Win32,59.80861244,,,,,,,,5,Slow,g,0,2.111,4,1,17,0,1,,,,,
0.05,,,,,,,,,h.PNG,h,610898813e48dc2864965122,2021-10-19_21h15.58.740,forced_choiceRT,2021.1.2,Win32,59.80861244,,,,,,,,5,Ontime,h,1,1.979,4,2,18,2,1,,,,,
1.55,,,,,,,,,f.PNG,f,610898813e48dc2864965122,2021-10-19_21h15.58.740,forced_choiceRT,2021.1.2,Win32,59.80861244,,,,,,,,5,Slow,f,1,2.175,4,3,19,0,1,,,,,
0.91,,,,,,,,,j.PNG,j,610898813e48dc2864965122,2021-10-19_21h15.58.740,forced_choiceRT,2021.1.2,Win32,59.80861244,,,,,,,,5,Ontime,j,1,1.932,5,0,20,3,1,,,,,
0.4,,,,,,,,,h.PNG,h,610898813e48dc2864965122,2021-10-19_21h15.58.740,forced_choiceRT,2021.1.2,Win32,59.80861244,,,,,,,,5,Fast,h,1,1.663,5,1,21,2,1,,,,,
1.86,,,,,,,,,g.PNG,g,610898813e48dc2864965122,2021-10-19_21h15.58.740,forced_choiceRT,2021.1.2,Win32,59.80861244,,,,,,,,5,Slow,g,1,2.2,5,2,22,1,1,,,,,
0.65,,,,,,,,,h.PNG,h,610898813e48dc2864965122,2021-10-19_21h15.58.740,forced_choiceRT,2021.1.2,Win32,59.80861244,,,,,,,,5,Fast,h,1,1.84,5,3,23,2,1,,,,,
0.19,,,,,,,,,g.PNG,g,610898813e48dc2864965122,2021-10-19_21h15.58.740,forced_choiceRT,2021.1.2,Win32,59.80861244,,,,,,,,5,Ontime,g,1,2.043,6,0,24,1,1,,,,,
1.55,,,,,,,,,h.PNG,h,610898813e48dc2864965122,2021-10-19_21h15.58.740,forced_choiceRT,2021.1.2,Win32,59.80861244,,,,,,,,5,Ontime,g,0,1.995,6,1,25,2,1,,,,,
0.06,,,,,,,,,j.PNG,j,610898813e48dc2864965122,2021-10-19_21h15.58.740,forced_choiceRT,2021.1.2,Win32,59.80861244,,,,,,,,5,Ontime,j,1,2.093,6,2,26,3,1,,,,,
0.5,,,,,,,,,h.PNG,h,610898813e48dc2864965122,2021-10-19_21h15.58.740,forced_choiceRT,2021.1.2,Win32,59.80861244,,,,,,,,5,Ontime,h,1,2.075,6,3,27,2,1,,,,,
1.32,,,,,,,,,j.PNG,j,610898813e48dc2864965122,2021-10-19_21h15.58.740,forced_choiceRT,2021.1.2,Win32,59.80861244,,,,,,,,5,Ontime,j,1,1.993,7,0,28,3,1,,,,,
0.62,,,,,,,,,f.PNG,f,610898813e48dc2864965122,2021-10-19_21h15.58.740,forced_choiceRT,2021.1.2,Win32,59.80861244,,,,,,,,5,Ontime,f,1,1.984,7,1,29,0,1,,,,,
1.72,,,,,,,,,f.PNG,f,610898813e48dc2864965122,2021-10-19_21h15.58.740,forced_choiceRT,2021.1.2,Win32,59.80861244,,,,,,,,5,Ontime,g,0,2.028,7,2,30,0,1,,,,,
1.1,,,,,,,,,g.PNG,g,610898813e48dc2864965122,2021-10-19_21h15.58.740,forced_choiceRT,2021.1.2,Win32,59.80861244,,,,,,,,5,Fast,g,1,1.64,7,3,31,1,1,,,,,
1.73,,,,,,,,,g.PNG,g,610898813e48dc2864965122,2021-10-19_21h15.58.740,forced_choiceRT,2021.1.2,Win32,59.80861244,,,,,,,,5,Ontime,f,0,2.014,8,0,32,1,1,,,,,
0.81,,,,,,,,,j.PNG,j,610898813e48dc2864965122,2021-10-19_21h15.58.740,forced_choiceRT,2021.1.2,Win32,59.80861244,,,,,,,,5,Ontime,j,1,1.909,8,1,33,3,1,,,,,
1.65,,,,,,,,,h.PNG,h,610898813e48dc2864965122,2021-10-19_21h15.58.740,forced_choiceRT,2021.1.2,Win32,59.80861244,,,,,,,,5,Slow,h,1,2.261,8,2,34,2,1,,,,,
1.36,,,,,,,,,f.PNG,f,610898813e48dc2864965122,2021-10-19_21h15.58.740,forced_choiceRT,2021.1.2,Win32,59.80861244,,,,,,,,5,Fast,h,0,1.857,8,3,35,0,1,,,,,
1.81,,,,,,,,,h.PNG,h,610898813e48dc2864965122,2021-10-19_21h15.58.740,forced_choiceRT,2021.1.2,Win32,59.80861244,,,,,,,,5,Ontime,f,0,2.077,9,0,36,2,1,,,,,
1.61,,,,,,,,,g.PNG,g,610898813e48dc2864965122,2021-10-19_21h15.58.740,forced_choiceRT,2021.1.2,Win32,59.80861244,,,,,,,,5,Ontime,f,0,2.023,9,1,37,1,1,,,,,
1.32,,,,,,,,,f.PNG,f,610898813e48dc2864965122,2021-10-19_21h15.58.740,forced_choiceRT,2021.1.2,Win32,59.80861244,,,,,,,,5,Fast,f,1,1.796,9,2,38,0,1,,,,,
0.86,,,,,,,,,g.PNG,g,610898813e48dc2864965122,2021-10-19_21h15.58.740,forced_choiceRT,2021.1.2,Win32,59.80861244,,,,,,,,5,Fast,g,1,1.894,9,3,39,1,1,,,,,
,,,,,,,,,,,610898813e48dc2864965122,2021-10-19_21h15.58.740,forced_choiceRT,2021.1.2,Win32,59.80861244,,,,,,,,,,,,,,,,,,4,0,4,0,1
1.33,,,,,,,,,j.PNG,j,610898813e48dc2864965122,2021-10-19_21h15.58.740,forced_choiceRT,2021.1.2,Win32,59.80861244,,,,,,,,6,Ontime,j,1,2.057,0,0,0,3,1,,,,,
1.75,,,,,,,,,h.PNG,h,610898813e48dc2864965122,2021-10-19_21h15.58.740,forced_choiceRT,2021.1.2,Win32,59.80861244,,,,,,,,6,Slow,h,1,2.193,0,1,1,2,1,,,,,
0.88,,,,,,,,,h.PNG,h,610898813e48dc2864965122,2021-10-19_21h15.58.740,forced_choiceRT,2021.1.2,Win32,59.80861244,,,,,,,,6,Ontime,h,1,1.99,0,2,2,2,1,,,,,
1.08,,,,,,,,,f.PNG,f,610898813e48dc2864965122,2021-10-19_21h15.58.740,forced_choiceRT,2021.1.2,Win32,59.80861244,,,,,,,,6,Fast,f,1,1.739,0,3,3,0,1,,,,,
0.12,,,,,,,,,h.PNG,h,610898813e48dc2864965122,2021-10-19_21h15.58.740,forced_choiceRT,2021.1.2,Win32,59.80861244,,,,,,,,6,Ontime,h,1,1.975,1,0,4,2,1,,,,,
0.71,,,,,,,,,g.PNG,g,610898813e48dc2864965122,2021-10-19_21h15.58.740,forced_choiceRT,2021.1.2,Win32,59.80861244,,,,,,,,6,Ontime,g,1,2.007,1,1,5,1,1,,,,,
0.44,,,,,,,,,g.PNG,g,610898813e48dc2864965122,2021-10-19_21h15.58.740,forced_choiceRT,2021.1.2,Win32,59.80861244,,,,,,,,6,Ontime,g,1,1.964,1,2,6,1,1,,,,,
0.28,,,,,,,,,h.PNG,h,610898813e48dc2864965122,2021-10-19_21h15.58.740,forced_choiceRT,2021.1.2,Win32,59.80861244,,,,,,,,6,Ontime,h,1,1.98,1,3,7,2,1,,,,,
0.29,,,,,,,,,f.PNG,f,610898813e48dc2864965122,2021-10-19_21h15.58.740,forced_choiceRT,2021.1.2,Win32,59.80861244,,,,,,,,6,Ontime,f,1,1.961,2,0,8,0,1,,,,,
0.11,,,,,,,,,g.PNG,g,610898813e48dc2864965122,2021-10-19_21h15.58.740,forced_choiceRT,2021.1.2,Win32,59.80861244,,,,,,,,6,Ontime,g,1,2.031,2,1,9,1,1,,,,,
1.82,,,,,,,,,j.PNG,j,610898813e48dc2864965122,2021-10-19_21h15.58.740,forced_choiceRT,2021.1.2,Win32,59.80861244,,,,,,,,6,Slow,f,0,2.182,2,2,10,3,1,,,,,
0.38,,,,,,,,,j.PNG,j,610898813e48dc2864965122,2021-10-19_21h15.58.740,forced_choiceRT,2021.1.2,Win32,59.80861244,,,,,,,,6,Fast,j,1,1.807,2,3,11,3,1,,,,,
0.46,,,,,,,,,f.PNG,f,610898813e48dc2864965122,2021-10-19_21h15.58.740,forced_choiceRT,2021.1.2,Win32,59.80861244,,,,,,,,6,Ontime,f,1,2.011,3,0,12,0,1,,,,,
0.72,,,,,,,,,h.PNG,h,610898813e48dc2864965122,2021-10-19_21h15.58.740,forced_choiceRT,2021.1.2,Win32,59.80861244,,,,,,,,6,Ontime,h,1,2.046,3,1,13,2,1,,,,,
0.01,,,,,,,,,f.PNG,f,610898813e48dc2864965122,2021-10-19_21h15.58.740,forced_choiceRT,2021.1.2,Win32,59.80861244,,,,,,,,6,Slow,f,1,2.142,3,2,14,0,1,,,,,
0.79,,,,,,,,,g.PNG,g,610898813e48dc2864965122,2021-10-19_21h15.58.740,forced_choiceRT,2021.1.2,Win32,59.80861244,,,,,,,,6,Ontime,g,1,2.009,3,3,15,1,1,,,,,
0.9,,,,,,,,,f.PNG,f,610898813e48dc2864965122,2021-10-19_21h15.58.740,forced_choiceRT,2021.1.2,Win32,59.80861244,,,,,,,,6,Ontime,f,1,1.963,4,0,16,0,1,,,,,
0.24,,,,,,,,,h.PNG,h,610898813e48dc2864965122,2021-10-19_21h15.58.740,forced_choiceRT,2021.1.2,Win32,59.80861244,,,,,,,,6,Ontime,h,1,1.94,4,1,17,2,1,,,,,
1.49,,,,,,,,,f.PNG,f,610898813e48dc2864965122,2021-10-19_21h15.58.740,forced_choiceRT,2021.1.2,Win32,59.80861244,,,,,,,,6,Ontime,f,1,2.058,4,2,18,0,1,,,,,
0.57,,,,,,,,,g.PNG,g,610898813e48dc2864965122,2021-10-19_21h15.58.740,forced_choiceRT,2021.1.2,Win32,59.80861244,,,,,,,,6,Ontime,g,1,1.95,4,3,19,1,1,,,,,
0.78,,,,,,,,,g.PNG,g,610898813e48dc2864965122,2021-10-19_21h15.58.740,forced_choiceRT,2021.1.2,Win32,59.80861244,,,,,,,,6,Ontime,g,1,1.944,5,0,20,1,1,,,,,
0.16,,,,,,,,,j.PNG,j,610898813e48dc2864965122,2021-10-19_21h15.58.740,forced_choiceRT,2021.1.2,Win32,59.80861244,,,,,,,,6,Ontime,j,1,1.96,5,1,21,3,1,,,,,
1.68,,,,,,,,,h.PNG,h,610898813e48dc2864965122,2021-10-19_21h15.58.740,forced_choiceRT,2021.1.2,Win32,59.80861244,,,,,,,,6,Slow,f,0,2.277,5,2,22,2,1,,,,,
1.28,,,,,,,,,f.PNG,f,610898813e48dc2864965122,2021-10-19_21h15.58.740,forced_choiceRT,2021.1.2,Win32,59.80861244,,,,,,,,6,Fast,f,1,1.897,5,3,23,0,1,,,,,
1.79,,,,,,,,,j.PNG,j,610898813e48dc2864965122,2021-10-19_21h15.58.740,forced_choiceRT,2021.1.2,Win32,59.80861244,,,,,,,,6,Ontime,f,0,2.077,6,0,24,3,1,,,,,
1.16,,,,,,,,,g.PNG,g,610898813e48dc2864965122,2021-10-19_21h15.58.740,forced_choiceRT,2021.1.2,Win32,59.80861244,,,,,,,,6,Fast,g,1,1.878,6,1,25,1,1,,,,,
1.41,,,,,,,,,j.PNG,j,610898813e48dc2864965122,2021-10-19_21h15.58.740,forced_choiceRT,2021.1.2,Win32,59.80861244,,,,,,,,6,Fast,f,0,1.815,6,2,26,3,1,,,,,
1.54,,,,,,,,,f.PNG,f,610898813e48dc2864965122,2021-10-19_21h15.58.740,forced_choiceRT,2021.1.2,Win32,59.80861244,,,,,,,,6,Ontime,f,1,1.922,6,3,27,0,1,,,,,
1.34,,,,,,,,,h.PNG,h,610898813e48dc2864965122,2021-10-19_21h15.58.740,forced_choiceRT,2021.1.2,Win32,59.80861244,,,,,,,,6,Fast,g,0,1.841,7,0,28,2,1,,,,,
1.1,,,,,,,,,h.PNG,h,610898813e48dc2864965122,2021-10-19_21h15.58.740,forced_choiceRT,2021.1.2,Win32,59.80861244,,,,,,,,6,Ontime,h,1,2.013,7,1,29,2,1,,,,,
1.31,,,,,,,,,g.PNG,g,610898813e48dc2864965122,2021-10-19_21h15.58.740,forced_choiceRT,2021.1.2,Win32,59.80861244,,,,,,,,6,Fast,g,1,1.865,7,2,30,1,1,,,,,
1.11,,,,,,,,,h.PNG,h,610898813e48dc2864965122,2021-10-19_21h15.58.740,forced_choiceRT,2021.1.2,Win32,59.80861244,,,,,,,,6,Ontime,h,1,2.023,7,3,31,2,1,,,,,
0.73,,,,,,,,,j.PNG,j,610898813e48dc2864965122,2021-10-19_21h15.58.740,forced_choiceRT,2021.1.2,Win32,59.80861244,,,,,,,,6,Ontime,j,1,2.06,8,0,32,3,1,,,,,
0.91,,,,,,,,,j.PNG,j,610898813e48dc2864965122,2021-10-19_21h15.58.740,forced_choiceRT,2021.1.2,Win32,59.80861244,,,,,,,,6,Ontime,j,1,1.96,8,1,33,3,1,,,,,
0.01,,,,,,,,,g.PNG,g,610898813e48dc2864965122,2021-10-19_21h15.58.740,forced_choiceRT,2021.1.2,Win32,59.80861244,,,,,,,,6,Ontime,g,1,1.992,8,2,34,1,1,,,,,
0.13,,,,,,,,,f.PNG,f,610898813e48dc2864965122,2021-10-19_21h15.58.740,forced_choiceRT,2021.1.2,Win32,59.80861244,,,,,,,,6,Ontime,f,1,2.01,8,3,35,0,1,,,,,
1.98,,,,,,,,,j.PNG,j,610898813e48dc2864965122,2021-10-19_21h15.58.740,forced_choiceRT,2021.1.2,Win32,59.80861244,,,,,,,,6,Slow,f,0,2.142,9,0,36,3,1,,,,,
1.44,,,,,,,,,f.PNG,f,610898813e48dc2864965122,2021-10-19_21h15.58.740,forced_choiceRT,2021.1.2,Win32,59.80861244,,,,,,,,6,Fast,g,0,1.842,9,1,37,0,1,,,,,
1.34,,,,,,,,,g.PNG,g,610898813e48dc2864965122,2021-10-19_21h15.58.740,forced_choiceRT,2021.1.2,Win32,59.80861244,,,,,,,,6,Ontime,g,1,2.024,9,2,38,1,1,,,,,
0.1,,,,,,,,,j.PNG,j,610898813e48dc2864965122,2021-10-19_21h15.58.740,forced_choiceRT,2021.1.2,Win32,59.80861244,,,,,,,,6,Slow,j,1,2.126,9,3,39,3,1,,,,,
,,,,,,,,,,,610898813e48dc2864965122,2021-10-19_21h15.58.740,forced_choiceRT,2021.1.2,Win32,59.80861244,,,,,,,,,,,,,,,,,,5,0,5,0,1
0.55,,,,,,,,,g.PNG,g,610898813e48dc2864965122,2021-10-19_21h15.58.740,forced_choiceRT,2021.1.2,Win32,59.80861244,,,,,,,,7,Fast,g,1,1.774,0,0,0,1,1,,,,,
0.35,,,,,,,,,f.PNG,f,610898813e48dc2864965122,2021-10-19_21h15.58.740,forced_choiceRT,2021.1.2,Win32,59.80861244,,,,,,,,7,Ontime,f,1,2.042,0,1,1,0,1,,,,,
1,,,,,,,,,f.PNG,f,610898813e48dc2864965122,2021-10-19_21h15.58.740,forced_choiceRT,2021.1.2,Win32,59.80861244,,,,,,,,7,Ontime,f,1,2.094,0,2,2,0,1,,,,,
1.52,,,,,,,,,h.PNG,h,610898813e48dc2864965122,2021-10-19_21h15.58.740,forced_choiceRT,2021.1.2,Win32,59.80861244,,,,,,,,7,Slow,j,0,2.133,0,3,3,2,1,,,,,
1.33,,,,,,,,,j.PNG,j,610898813e48dc2864965122,2021-10-19_21h15.58.740,forced_choiceRT,2021.1.2,Win32,59.80861244,,,,,,,,7,Slow,j,1,3.194,1,0,4,3,1,,,,,
1.18,,,,,,,,,f.PNG,f,610898813e48dc2864965122,2021-10-19_21h15.58.740,forced_choiceRT,2021.1.2,Win32,59.80861244,,,,,,,,7,Fast,f,1,1.791,1,1,5,0,1,,,,,
1.99,,,,,,,,,h.PNG,h,610898813e48dc2864965122,2021-10-19_21h15.58.740,forced_choiceRT,2021.1.2,Win32,59.80861244,,,,,,,,7,Slow,f,0,2.175,1,2,6,2,1,,,,,
0.89,,,,,,,,,f.PNG,f,610898813e48dc2864965122,2021-10-19_21h15.58.740,forced_choiceRT,2021.1.2,Win32,59.80861244,,,,,,,,7,Fast,f,1,1.891,1,3,7,0,1,,,,,
1.94,,,,,,,,,g.PNG,g,610898813e48dc2864965122,2021-10-19_21h15.58.740,forced_choiceRT,2021.1.2,Win32,59.80861244,,,,,,,,7,Slow,f,0,2.124,2,0,8,1,1,,,,,
0.16,,,,,,,,,h.PNG,h,610898813e48dc2864965122,2021-10-19_21h15.58.740,forced_choiceRT,2021.1.2,Win32,59.80861244,,,,,,,,7,Ontime,h,1,1.995,2,1,9,2,1,,,,,
1.16,,,,,,,,,f.PNG,f,610898813e48dc2864965122,2021-10-19_21h15.58.740,forced_choiceRT,2021.1.2,Win32,59.80861244,,,,,,,,7,Ontime,f,1,1.965,2,2,10,0,1,,,,,
1.8,,,,,,,,,g.PNG,g,610898813e48dc2864965122,2021-10-19_21h15.58.740,forced_choiceRT,2021.1.2,Win32,59.80861244,,,,,,,,7,Ontime,h,0,2.011,2,3,11,1,1,,,,,
1.27,,,,,,,,,g.PNG,g,610898813e48dc2864965122,2021-10-19_21h15.58.740,forced_choiceRT,2021.1.2,Win32,59.80861244,,,,,,,,7,Ontime,g,1,1.993,3,0,12,1,1,,,,,
0.49,,,,,,,,,g.PNG,g,610898813e48dc2864965122,2021-10-19_21h15.58.740,forced_choiceRT,2021.1.2,Win32,59.80861244,,,,,,,,7,Ontime,g,1,1.965,3,1,13,1,1,,,,,
1.69,,,,,,,,,j.PNG,j,610898813e48dc2864965122,2021-10-19_21h15.58.740,forced_choiceRT,2021.1.2,Win32,59.80861244,,,,,,,,7,Slow,g,0,2.146,3,2,14,3,1,,,,,
0.91,,,,,,,,,h.PNG,h,610898813e48dc2864965122,2021-10-19_21h15.58.740,forced_choiceRT,2021.1.2,Win32,59.80861244,,,,,,,,7,Ontime,h,1,2.077,3,3,15,2,1,,,,,
1.36,,,,,,,,,j.PNG,j,610898813e48dc2864965122,2021-10-19_21h15.58.740,forced_choiceRT,2021.1.2,Win32,59.80861244,,,,,,,,7,Ontime,j,1,1.994,4,0,16,3,1,,,,,
0.95,,,,,,,,,h.PNG,h,610898813e48dc2864965122,2021-10-19_21h15.58.740,forced_choiceRT,2021.1.2,Win32,59.80861244,,,,,,,,7,Ontime,h,1,2.009,4,1,17,2,1,,,,,
0.18,,,,,,,,,f.PNG,f,610898813e48dc2864965122,2021-10-19_21h15.58.740,forced_choiceRT,2021.1.2,Win32,59.80861244,,,,,,,,7,Ontime,f,1,2.033,4,2,18,0,1,,,,,
1.21,,,,,,,,,j.PNG,j,610898813e48dc2864965122,2021-10-19_21h15.58.740,forced_choiceRT,2021.1.2,Win32,59.80861244,,,,,,,,7,Ontime,j,1,2.088,4,3,19,3,1,,,,,
0.86,,,,,,,,,h.PNG,h,610898813e48dc2864965122,2021-10-19_21h15.58.740,forced_choiceRT,2021.1.2,Win32,59.80861244,,,,,,,,7,Ontime,h,1,2.015,5,0,20,2,1,,,,,
0.73,,,,,,,,,j.PNG,j,610898813e48dc2864965122,2021-10-19_21h15.58.740,forced_choiceRT,2021.1.2,Win32,59.80861244,,,,,,,,7,Ontime,j,1,1.958,5,1,21,3,1,,,,,
1.92,,,,,,,,,f.PNG,f,610898813e48dc2864965122,2021-10-19_21h15.58.740,forced_choiceRT,2021.1.2,Win32,59.80861244,,,,,,,,7,Slow,f,1,2.894,5,2,22,0,1,,,,,
1.8,,,,,,,,,g.PNG,g,610898813e48dc2864965122,2021-10-19_21h15.58.740,forced_choiceRT,2021.1.2,Win32,59.80861244,,,,,,,,7,Slow,f,0,2.126,5,3,23,1,1,,,,,
1.74,,,,,,,,,j.PNG,j,610898813e48dc2864965122,2021-10-19_21h15.58.740,forced_choiceRT,2021.1.2,Win32,59.80861244,,,,,,,,7,Ontime,g,0,2.013,6,0,24,3,1,,,,,
0.76,,,,,,,,,g.PNG,g,610898813e48dc2864965122,2021-10-19_21h15.58.740,forced_choiceRT,2021.1.2,Win32,59.80861244,,,,,,,,7,Ontime,g,1,1.975,6,1,25,1,1,,,,,
1.47,,,,,,,,,h.PNG,h,610898813e48dc2864965122,2021-10-19_21h15.58.740,forced_choiceRT,2021.1.2,Win32,59.80861244,,,,,,,,7,Ontime,j,0,1.926,6,2,26,2,1,,,,,
0.1,,,,,,,,,f.PNG,f,610898813e48dc2864965122,2021-10-19_21h15.58.740,forced_choiceRT,2021.1.2,Win32,59.80861244,,,,,,,,7,Fast,f,1,0.859,6,3,27,0,1,,,,,
1.09,,,,,,,,,f.PNG,f,610898813e48dc2864965122,2021-10-19_21h15.58.740,forced_choiceRT,2021.1.2,Win32,59.80861244,,,,,,,,7,Ontime,f,1,2.096,7,0,28,0,1,,,,,
1.87,,,,,,,,,g.PNG,g,610898813e48dc2864965122,2021-10-19_21h15.58.740,forced_choiceRT,2021.1.2,Win32,59.80861244,,,,,,,,7,Slow,g,1,2.147,7,1,29,1,1,,,,,
1.25,,,,,,,,,h.PNG,h,610898813e48dc2864965122,2021-10-19_21h15.58.740,forced_choiceRT,2021.1.2,Win32,59.80861244,,,,,,,,7,Slow,h,1,2.108,7,2,30,2,1,,,,,
1.44,,,,,,,,,j.PNG,j,610898813e48dc2864965122,2021-10-19_21h15.58.740,forced_choiceRT,2021.1.2,Win32,59.80861244,,,,,,,,7,Ontime,h,0,2.03,7,3,31,3,1,,,,,
0.66,,,,,,,,,g.PNG,g,610898813e48dc2864965122,2021-10-19_21h15.58.740,forced_choiceRT,2021.1.2,Win32,59.80861244,,,,,,,,7,Ontime,g,1,1.944,8,0,32,1,1,,,,,
0.58,,,,,,,,,f.PNG,f,610898813e48dc2864965122,2021-10-19_21h15.58.740,forced_choiceRT,2021.1.2,Win32,59.80861244,,,,,,,,7,Ontime,f,1,1.946,8,1,33,0,1,,,,,
0.36,,,,,,,,,g.PNG,g,610898813e48dc2864965122,2021-10-19_21h15.58.740,forced_choiceRT,2021.1.2,Win32,59.80861244,,,,,,,,7,Ontime,g,1,2.027,8,2,34,1,1,,,,,
1.61,,,,,,,,,j.PNG,j,610898813e48dc2864965122,2021-10-19_21h15.58.740,forced_choiceRT,2021.1.2,Win32,59.80861244,,,,,,,,7,Ontime,f,0,2.014,8,3,35,3,1,,,,,
0.74,,,,,,,,,j.PNG,j,610898813e48dc2864965122,2021-10-19_21h15.58.740,forced_choiceRT,2021.1.2,Win32,59.80861244,,,,,,,,7,Ontime,g,0,2.06,9,0,36,3,1,,,,,
1.53,,,,,,,,,h.PNG,h,610898813e48dc2864965122,2021-10-19_21h15.58.740,forced_choiceRT,2021.1.2,Win32,59.80861244,,,,,,,,7,Ontime,g,0,2.048,9,1,37,2,1,,,,,
0.25,,,,,,,,,j.PNG,j,610898813e48dc2864965122,2021-10-19_21h15.58.740,forced_choiceRT,2021.1.2,Win32,59.80861244,,,,,,,,7,Fast,j,1,1.884,9,2,38,3,1,,,,,
1.39,,,,,,,,,h.PNG,h,610898813e48dc2864965122,2021-10-19_21h15.58.740,forced_choiceRT,2021.1.2,Win32,59.80861244,,,,,,,,7,Ontime,h,1,2.025,9,3,39,2,1,,,,,
,,,,,,,,,,,610898813e48dc2864965122,2021-10-19_21h15.58.740,forced_choiceRT,2021.1.2,Win32,59.80861244,,,,,,,,,,,,,,,,,,6,0,6,0,1
1.78,,,,,,,,,j.PNG,j,610898813e48dc2864965122,2021-10-19_21h15.58.740,forced_choiceRT,2021.1.2,Win32,59.80861244,,,,,,,,8,Slow,g,0,2.22,0,0,0,3,1,,,,,
1.54,,,,,,,,,f.PNG,f,610898813e48dc2864965122,2021-10-19_21h15.58.740,forced_choiceRT,2021.1.2,Win32,59.80861244,,,,,,,,8,Ontime,f,1,1.915,0,1,1,0,1,,,,,
1.61,,,,,,,,,h.PNG,h,610898813e48dc2864965122,2021-10-19_21h15.58.740,forced_choiceRT,2021.1.2,Win32,59.80861244,,,,,,,,8,Slow,h,1,2.106,0,2,2,2,1,,,,,
0.81,,,,,,,,,h.PNG,h,610898813e48dc2864965122,2021-10-19_21h15.58.740,forced_choiceRT,2021.1.2,Win32,59.80861244,,,,,,,,8,Ontime,h,1,2.012,0,3,3,2,1,,,,,
1.54,,,,,,,,,g.PNG,g,610898813e48dc2864965122,2021-10-19_21h15.58.740,forced_choiceRT,2021.1.2,Win32,59.80861244,,,,,,,,8,Ontime,g,1,2.015,1,0,4,1,1,,,,,
0.03,,,,,,,,,g.PNG,g,610898813e48dc2864965122,2021-10-19_21h15.58.740,forced_choiceRT,2021.1.2,Win32,59.80861244,,,,,,,,8,Ontime,g,1,2.049,1,1,5,1,1,,,,,
1.94,,,,,,,,,j.PNG,j,610898813e48dc2864965122,2021-10-19_21h15.58.740,forced_choiceRT,2021.1.2,Win32,59.80861244,,,,,,,,8,Slow,g,0,2.21,1,2,6,3,1,,,,,
1.59,,,,,,,,,h.PNG,h,610898813e48dc2864965122,2021-10-19_21h15.58.740,forced_choiceRT,2021.1.2,Win32,59.80861244,,,,,,,,8,Ontime,g,0,2.028,1,3,7,2,1,,,,,
0.84,,,,,,,,,h.PNG,h,610898813e48dc2864965122,2021-10-19_21h15.58.740,forced_choiceRT,2021.1.2,Win32,59.80861244,,,,,,,,8,Fast,h,1,1.781,2,0,8,2,1,,,,,
0.86,,,,,,,,,j.PNG,j,610898813e48dc2864965122,2021-10-19_21h15.58.740,forced_choiceRT,2021.1.2,Win32,59.80861244,,,,,,,,8,Fast,g,0,1.642,2,1,9,3,1,,,,,
0.8,,,,,,,,,g.PNG,g,610898813e48dc2864965122,2021-10-19_21h15.58.740,forced_choiceRT,2021.1.2,Win32,59.80861244,,,,,,,,8,Ontime,g,1,2.067,2,2,10,1,1,,,,,
0.38,,,,,,,,,g.PNG,g,610898813e48dc2864965122,2021-10-19_21h15.58.740,forced_choiceRT,2021.1.2,Win32,59.80861244,,,,,,,,8,Ontime,g,1,2.042,2,3,11,1,1,,,,,
1.6,,,,,,,,,f.PNG,f,610898813e48dc2864965122,2021-10-19_21h15.58.740,forced_choiceRT,2021.1.2,Win32,59.80861244,,,,,,,,8,Slow,f,1,2.179,3,0,12,0,1,,,,,
1.89,,,,,,,,,j.PNG,j,610898813e48dc2864965122,2021-10-19_21h15.58.740,forced_choiceRT,2021.1.2,Win32,59.80861244,,,,,,,,8,Ontime,g,0,2.093,3,1,13,3,1,,,,,
0.12,,,,,,,,,f.PNG,f,610898813e48dc2864965122,2021-10-19_21h15.58.740,forced_choiceRT,2021.1.2,Win32,59.80861244,,,,,,,,8,Fast,f,1,1.78,3,2,14,0,1,,,,,
0.43,,,,,,,,,g.PNG,g,610898813e48dc2864965122,2021-10-19_21h15.58.740,forced_choiceRT,2021.1.2,Win32,59.80861244,,,,,,,,8,Fast,g,1,1.742,3,3,15,1,1,,,,,
0.35,,,,,,,,,f.PNG,f,610898813e48dc2864965122,2021-10-19_21h15.58.740,forced_choiceRT,2021.1.2,Win32,59.80861244,,,,,,,,8,Ontime,f,1,2.061,4,0,16,0,1,,,,,
0.31,,,,,,,,,f.PNG,f,610898813e48dc2864965122,2021-10-19_21h15.58.740,forced_choiceRT,2021.1.2,Win32,59.80861244,,,,,,,,8,Ontime,f,1,1.99,4,1,17,0,1,,,,,
1.29,,,,,,,,,f.PNG,f,610898813e48dc2864965122,2021-10-19_21h15.58.740,forced_choiceRT,2021.1.2,Win32,59.80861244,,,,,,,,8,Ontime,f,1,1.977,4,2,18,0,1,,,,,
0.1,,,,,,,,,j.PNG,j,610898813e48dc2864965122,2021-10-19_21h15.58.740,forced_choiceRT,2021.1.2,Win32,59.80861244,,,,,,,,8,Ontime,j,1,1.963,4,3,19,3,1,,,,,
0.08,,,,,,,,,h.PNG,h,610898813e48dc2864965122,2021-10-19_21h15.58.740,forced_choiceRT,2021.1.2,Win32,59.80861244,,,,,,,,8,Slow,h,1,2.125,5,0,20,2,1,,,,,
0.45,,,,,,,,,h.PNG,h,610898813e48dc2864965122,2021-10-19_21h15.58.740,forced_choiceRT,2021.1.2,Win32,59.80861244,,,,,,,,8,Fast,h,1,1.811,5,1,21,2,1,,,,,
0.27,,,,,,,,,g.PNG,g,610898813e48dc2864965122,2021-10-19_21h15.58.740,forced_choiceRT,2021.1.2,Win32,59.80861244,,,,,,,,8,Ontime,g,1,2.057,5,2,22,1,1,,,,,
0.91,,,,,,,,,g.PNG,g,610898813e48dc2864965122,2021-10-19_21h15.58.740,forced_choiceRT,2021.1.2,Win32,59.80861244,,,,,,,,8,Ontime,g,1,1.91,5,3,23,1,1,,,,,
1.13,,,,,,,,,g.PNG,g,610898813e48dc2864965122,2021-10-19_21h15.58.740,forced_choiceRT,2021.1.2,Win32,59.80861244,,,,,,,,8,Slow,g,1,2.112,6,0,24,1,1,,,,,
0.59,,,,,,,,,h.PNG,h,610898813e48dc2864965122,2021-10-19_21h15.58.740,forced_choiceRT,2021.1.2,Win32,59.80861244,,,,,,,,8,Fast,h,1,1.898,6,1,25,2,1,,,,,
0.73,,,,,,,,,f.PNG,f,610898813e48dc2864965122,2021-10-19_21h15.58.740,forced_choiceRT,2021.1.2,Win32,59.80861244,,,,,,,,8,Ontime,f,1,2.025,6,2,26,0,1,,,,,
1.86,,,,,,,,,j.PNG,j,610898813e48dc2864965122,2021-10-19_21h15.58.740,forced_choiceRT,2021.1.2,Win32,59.80861244,,,,,,,,8,Slow,f,0,2.761,6,3,27,3,1,,,,,
1.89,,,,,,,,,j.PNG,j,610898813e48dc2864965122,2021-10-19_21h15.58.740,forced_choiceRT,2021.1.2,Win32,59.80861244,,,,,,,,8,Slow,g,0,2.108,7,0,28,3,1,,,,,
0.57,,,,,,,,,j.PNG,j,610898813e48dc2864965122,2021-10-19_21h15.58.740,forced_choiceRT,2021.1.2,Win32,59.80861244,,,,,,,,8,Ontime,j,1,1.977,7,1,29,3,1,,,,,
0.49,,,,,,,,,f.PNG,f,610898813e48dc2864965122,2021-10-19_21h15.58.740,forced_choiceRT,2021.1.2,Win32,59.80861244,,,,,,,,8,Ontime,f,1,1.974,7,2,30,0,1,,,,,
1.93,,,,,,,,,h.PNG,h,610898813e48dc2864965122,2021-10-19_21h15.58.740,forced_choiceRT,2021.1.2,Win32,59.80861244,,,,,,,,8,Ontime,h,1,2.042,7,3,31,2,1,,,,,
0.37,,,,,,,,,j.PNG,j,610898813e48dc2864965122,2021-10-19_21h15.58.740,forced_choiceRT,2021.1.2,Win32,59.80861244,,,,,,,,8,Ontime,j,1,1.956,8,0,32,3,1,,,,,
1.92,,,,,,,,,g.PNG,g,610898813e48dc2864965122,2021-10-19_21h15.58.740,forced_choiceRT,2021.1.2,Win32,59.80861244,,,,,,,,8,Ontime,f,0,1.995,8,1,33,1,1,,,,,
0.12,,,,,,,,,j.PNG,j,610898813e48dc2864965122,2021-10-19_21h15.58.740,forced_choiceRT,2021.1.2,Win32,59.80861244,,,,,,,,8,Ontime,j,1,1.906,8,2,34,3,1,,,,,
0.75,,,,,,,,,h.PNG,h,610898813e48dc2864965122,2021-10-19_21h15.58.740,forced_choiceRT,2021.1.2,Win32,59.80861244,,,,,,,,8,Ontime,h,1,2.058,8,3,35,2,1,,,,,
0.66,,,,,,,,,g.PNG,g,610898813e48dc2864965122,2021-10-19_21h15.58.740,forced_choiceRT,2021.1.2,Win32,59.80861244,,,,,,,,8,Ontime,g,1,1.955,9,0,36,1,1,,,,,
1.19,,,,,,,,,h.PNG,h,610898813e48dc2864965122,2021-10-19_21h15.58.740,forced_choiceRT,2021.1.2,Win32,59.80861244,,,,,,,,8,Ontime,h,1,2.008,9,1,37,2,1,,,,,
1.06,,,,,,,,,f.PNG,f,610898813e48dc2864965122,2021-10-19_21h15.58.740,forced_choiceRT,2021.1.2,Win32,59.80861244,,,,,,,,8,Ontime,f,1,1.977,9,2,38,0,1,,,,,
0.12,,,,,,,,,f.PNG,f,610898813e48dc2864965122,2021-10-19_21h15.58.740,forced_choiceRT,2021.1.2,Win32,59.80861244,,,,,,,,8,Ontime,f,1,1.926,9,3,39,0,1,,,,,
,,,,,,,,,,,610898813e48dc2864965122,2021-10-19_21h15.58.740,forced_choiceRT,2021.1.2,Win32,59.80861244,,,,,,,,,,,,,,,,,,7,0,7,0,1
0.65,,,,,,,,,h.PNG,h,610898813e48dc2864965122,2021-10-19_21h15.58.740,forced_choiceRT,2021.1.2,Win32,59.80861244,,,,,,,,9,Ontime,h,1,2.009,0,0,0,2,1,,,,,
0.62,,,,,,,,,g.PNG,g,610898813e48dc2864965122,2021-10-19_21h15.58.740,forced_choiceRT,2021.1.2,Win32,59.80861244,,,,,,,,9,Ontime,g,1,1.991,0,1,1,1,1,,,,,
1.18,,,,,,,,,f.PNG,f,610898813e48dc2864965122,2021-10-19_21h15.58.740,forced_choiceRT,2021.1.2,Win32,59.80861244,,,,,,,,9,Ontime,f,1,1.941,0,2,2,0,1,,,,,
0.9,,,,,,,,,j.PNG,j,610898813e48dc2864965122,2021-10-19_21h15.58.740,forced_choiceRT,2021.1.2,Win32,59.80861244,,,,,,,,9,Fast,j,1,1.895,0,3,3,3,1,,,,,
0.06,,,,,,,,,h.PNG,h,610898813e48dc2864965122,2021-10-19_21h15.58.740,forced_choiceRT,2021.1.2,Win32,59.80861244,,,,,,,,9,Fast,h,1,1.676,1,0,4,2,1,,,,,
0.19,,,,,,,,,h.PNG,h,610898813e48dc2864965122,2021-10-19_21h15.58.740,forced_choiceRT,2021.1.2,Win32,59.80861244,,,,,,,,9,Ontime,h,1,1.957,1,1,5,2,1,,,,,
1.3,,,,,,,,,f.PNG,f,610898813e48dc2864965122,2021-10-19_21h15.58.740,forced_choiceRT,2021.1.2,Win32,59.80861244,,,,,,,,9,Ontime,f,1,1.98,1,2,6,0,1,,,,,
0.13,,,,,,,,,j.PNG,j,610898813e48dc2864965122,2021-10-19_21h15.58.740,forced_choiceRT,2021.1.2,Win32,59.80861244,,,,,,,,9,Ontime,j,1,1.973,1,3,7,3,1,,,,,
0.44,,,,,,,,,h.PNG,h,610898813e48dc2864965122,2021-10-19_21h15.58.740,forced_choiceRT,2021.1.2,Win32,59.80861244,,,,,,,,9,Ontime,h,1,2.058,2,0,8,2,1,,,,,
1.56,,,,,,,,,j.PNG,j,610898813e48dc2864965122,2021-10-19_21h15.58.740,forced_choiceRT,2021.1.2,Win32,59.80861244,,,,,,,,9,Slow,j,1,2.141,2,1,9,3,1,,,,,
0.47,,,,,,,,,h.PNG,h,610898813e48dc2864965122,2021-10-19_21h15.58.740,forced_choiceRT,2021.1.2,Win32,59.80861244,,,,,,,,9,Ontime,h,1,2.057,2,2,10,2,1,,,,,
0.79,,,,,,,,,h.PNG,h,610898813e48dc2864965122,2021-10-19_21h15.58.740,forced_choiceRT,2021.1.2,Win32,59.80861244,,,,,,,,9,Ontime,h,1,1.96,2,3,11,2,1,,,,,
1.6,,,,,,,,,g.PNG,g,610898813e48dc2864965122,2021-10-19_21h15.58.740,forced_choiceRT,2021.1.2,Win32,59.80861244,,,,,,,,9,Slow,f,0,2.128,3,0,12,1,1,,,,,
0.12,,,,,,,,,f.PNG,f,610898813e48dc2864965122,2021-10-19_21h15.58.740,forced_choiceRT,2021.1.2,Win32,59.80861244,,,,,,,,9,Ontime,f,1,1.943,3,1,13,0,1,,,,,
0.43,,,,,,,,,f.PNG,f,610898813e48dc2864965122,2021-10-19_21h15.58.740,forced_choiceRT,2021.1.2,Win32,59.80861244,,,,,,,,9,Ontime,f,1,1.993,3,2,14,0,1,,,,,
1.6,,,,,,,,,f.PNG,f,610898813e48dc2864965122,2021-10-19_21h15.58.740,forced_choiceRT,2021.1.2,Win32,59.80861244,,,,,,,,9,Ontime,g,0,1.976,3,3,15,0,1,,,,,
0.23,,,,,,,,,j.PNG,j,610898813e48dc2864965122,2021-10-19_21h15.58.740,forced_choiceRT,2021.1.2,Win32,59.80861244,,,,,,,,9,Ontime,j,1,1.962,4,0,16,3,1,,,,,
0.95,,,,,,,,,f.PNG,f,610898813e48dc2864965122,2021-10-19_21h15.58.740,forced_choiceRT,2021.1.2,Win32,59.80861244,,,,,,,,9,Ontime,f,1,2.013,4,1,17,0,1,,,,,
0.36,,,,,,,,,h.PNG,h,610898813e48dc2864965122,2021-10-19_21h15.58.740,forced_choiceRT,2021.1.2,Win32,59.80861244,,,,,,,,9,Ontime,h,1,1.942,4,2,18,2,1,,,,,
1.57,,,,,,,,,g.PNG,g,610898813e48dc2864965122,2021-10-19_21h15.58.740,forced_choiceRT,2021.1.2,Win32,59.80861244,,,,,,,,9,Slow,g,1,2.222,4,3,19,1,1,,,,,
1.2,,,,,,,,,j.PNG,j,610898813e48dc2864965122,2021-10-19_21h15.58.740,forced_choiceRT,2021.1.2,Win32,59.80861244,,,,,,,,9,Ontime,h,0,2.012,5,0,20,3,1,,,,,
0.98,,,,,,,,,j.PNG,j,610898813e48dc2864965122,2021-10-19_21h15.58.740,forced_choiceRT,2021.1.2,Win32,59.80861244,,,,,,,,9,Ontime,j,1,1.978,5,1,21,3,1,,,,,
0.76,,,,,,,,,j.PNG,j,610898813e48dc2864965122,2021-10-19_21h15.58.740,forced_choiceRT,2021.1.2,Win32,59.80861244,,,,,,,,9,Ontime,j,1,1.962,5,2,22,3,1,,,,,
0.65,,,,,,,,,j.PNG,j,610898813e48dc2864965122,2021-10-19_21h15.58.740,forced_choiceRT,2021.1.2,Win32,59.80861244,,,,,,,,9,Ontime,j,1,2.025,5,3,23,3,1,,,,,
1.16,,,,,,,,,f.PNG,f,610898813e48dc2864965122,2021-10-19_21h15.58.740,forced_choiceRT,2021.1.2,Win32,59.80861244,,,,,,,,9,Fast,f,1,1.879,6,0,24,0,1,,,,,
0.2,,,,,,,,,h.PNG,h,610898813e48dc2864965122,2021-10-19_21h15.58.740,forced_choiceRT,2021.1.2,Win32,59.80861244,,,,,,,,9,Ontime,h,1,2.016,6,1,25,2,1,,,,,
0.93,,,,,,,,,h.PNG,h,610898813e48dc2864965122,2021-10-19_21h15.58.740,forced_choiceRT,2021.1.2,Win32,59.80861244,,,,,,,,9,Ontime,h,1,2.01,6,2,26,2,1,,,,,
1.03,,,,,,,,,j.PNG,j,610898813e48dc2864965122,2021-10-19_21h15.58.740,forced_choiceRT,2021.1.2,Win32,59.80861244,,,,,,,,9,Ontime,j,1,2.045,6,3,27,3,1,,,,,
0.19,,,,,,,,,g.PNG,g,610898813e48dc2864965122,2021-10-19_21h15.58.740,forced_choiceRT,2021.1.2,Win32,59.80861244,,,,,,,,9,Ontime,g,1,1.945,7,0,28,1,1,,,,,
0.18,,,,,,,,,g.PNG,g,610898813e48dc2864965122,2021-10-19_21h15.58.740,forced_choiceRT,2021.1.2,Win32,59.80861244,,,,,,,,9,Ontime,g,1,1.94,7,1,29,1,1,,,,,
1.79,,,,,,,,,f.PNG,f,610898813e48dc2864965122,2021-10-19_21h15.58.740,forced_choiceRT,2021.1.2,Win32,59.80861244,,,,,,,,9,Ontime,h,0,2.06,7,2,30,0,1,,,,,
1.12,,,,,,,,,g.PNG,g,610898813e48dc2864965122,2021-10-19_21h15.58.740,forced_choiceRT,2021.1.2,Win32,59.80861244,,,,,,,,9,Ontime,g,1,1.949,7,3,31,1,1,,,,,
0.39,,,,,,,,,g.PNG,g,610898813e48dc2864965122,2021-10-19_21h15.58.740,forced_choiceRT,2021.1.2,Win32,59.80861244,,,,,,,,9,Ontime,g,1,2.041,8,0,32,1,1,,,,,
1.16,,,,,,,,,f.PNG,f,610898813e48dc2864965122,2021-10-19_21h15.58.740,forced_choiceRT,2021.1.2,Win32,59.80861244,,,,,,,,9,Fast,f,1,1.883,8,1,33,0,1,,,,,
1.22,,,,,,,,,g.PNG,g,610898813e48dc2864965122,2021-10-19_21h15.58.740,forced_choiceRT,2021.1.2,Win32,59.80861244,,,,,,,,9,Ontime,g,1,1.993,8,2,34,1,1,,,,,
0.98,,,,,,,,,h.PNG,h,610898813e48dc2864965122,2021-10-19_21h15.58.740,forced_choiceRT,2021.1.2,Win32,59.80861244,,,,,,,,9,Ontime,h,1,1.949,8,3,35,2,1,,,,,
1.1,,,,,,,,,g.PNG,g,610898813e48dc2864965122,2021-10-19_21h15.58.740,forced_choiceRT,2021.1.2,Win32,59.80861244,,,,,,,,9,Ontime,g,1,1.99,9,0,36,1,1,,,,,
0.64,,,,,,,,,g.PNG,g,610898813e48dc2864965122,2021-10-19_21h15.58.740,forced_choiceRT,2021.1.2,Win32,59.80861244,,,,,,,,9,Ontime,g,1,2.044,9,1,37,1,1,,,,,
0.3,,,,,,,,,j.PNG,j,610898813e48dc2864965122,2021-10-19_21h15.58.740,forced_choiceRT,2021.1.2,Win32,59.80861244,,,,,,,,9,Ontime,j,1,2.056,9,2,38,3,1,,,,,
1.98,,,,,,,,,f.PNG,f,610898813e48dc2864965122,2021-10-19_21h15.58.740,forced_choiceRT,2021.1.2,Win32,59.80861244,,,,,,,,9,Slow,h,0,2.284,9,3,39,0,1,,,,,
,,,,,,,,,,,610898813e48dc2864965122,2021-10-19_21h15.58.740,forced_choiceRT,2021.1.2,Win32,59.80861244,,,,,,,,,,,,,,,,,,8,0,8,0,1
1.72,,,,,,,,,j.PNG,j,610898813e48dc2864965122,2021-10-19_21h15.58.740,forced_choiceRT,2021.1.2,Win32,59.80861244,,,,,,,,10,Slow,f,0,2.14,0,0,0,3,1,,,,,
0.69,,,,,,,,,j.PNG,j,610898813e48dc2864965122,2021-10-19_21h15.58.740,forced_choiceRT,2021.1.2,Win32,59.80861244,,,,,,,,10,Ontime,j,1,1.997,0,1,1,3,1,,,,,
0.71,,,,,,,,,f.PNG,f,610898813e48dc2864965122,2021-10-19_21h15.58.740,forced_choiceRT,2021.1.2,Win32,59.80861244,,,,,,,,10,Ontime,f,1,1.976,0,2,2,0,1,,,,,
0.74,,,,,,,,,j.PNG,j,610898813e48dc2864965122,2021-10-19_21h15.58.740,forced_choiceRT,2021.1.2,Win32,59.80861244,,,,,,,,10,Ontime,j,1,2.043,0,3,3,3,1,,,,,
0.18,,,,,,,,,f.PNG,f,610898813e48dc2864965122,2021-10-19_21h15.58.740,forced_choiceRT,2021.1.2,Win32,59.80861244,,,,,,,,10,Ontime,f,1,2.058,1,0,4,0,1,,,,,
1.72,,,,,,,,,f.PNG,f,610898813e48dc2864965122,2021-10-19_21h15.58.740,forced_choiceRT,2021.1.2,Win32,59.80861244,,,,,,,,10,Ontime,g,0,2.082,1,1,5,0,1,,,,,
1.25,,,,,,,,,h.PNG,h,610898813e48dc2864965122,2021-10-19_21h15.58.740,forced_choiceRT,2021.1.2,Win32,59.80861244,,,,,,,,10,Ontime,j,0,1.978,1,2,6,2,1,,,,,
0.84,,,,,,,,,h.PNG,h,610898813e48dc2864965122,2021-10-19_21h15.58.740,forced_choiceRT,2021.1.2,Win32,59.80861244,,,,,,,,10,Ontime,h,1,1.996,1,3,7,2,1,,,,,
0.03,,,,,,,,,j.PNG,j,610898813e48dc2864965122,2021-10-19_21h15.58.740,forced_choiceRT,2021.1.2,Win32,59.80861244,,,,,,,,10,Ontime,j,1,1.929,2,0,8,3,1,,,,,
1.83,,,,,,,,,h.PNG,h,610898813e48dc2864965122,2021-10-19_21h15.58.740,forced_choiceRT,2021.1.2,Win32,59.80861244,,,,,,,,10,Slow,f,0,2.111,2,1,9,2,1,,,,,
0.55,,,,,,,,,g.PNG,g,610898813e48dc2864965122,2021-10-19_21h15.58.740,forced_choiceRT,2021.1.2,Win32,59.80861244,,,,,,,,10,Ontime,g,1,1.992,2,2,10,1,1,,,,,
0.73,,,,,,,,,f.PNG,f,610898813e48dc2864965122,2021-10-19_21h15.58.740,forced_choiceRT,2021.1.2,Win32,59.80861244,,,,,,,,10,Ontime,f,1,1.906,2,3,11,0,1,,,,,
1.49,,,,,,,,,g.PNG,g,610898813e48dc2864965122,2021-10-19_21h15.58.740,forced_choiceRT,2021.1.2,Win32,59.80861244,,,,,,,,10,Fast,g,1,1.893,3,0,12,1,1,,,,,
1.72,,,,,,,,,g.PNG,g,610898813e48dc2864965122,2021-10-19_21h15.58.740,forced_choiceRT,2021.1.2,Win32,59.80861244,,,,,,,,10,Ontime,g,1,2.025,3,1,13,1,1,,,,,
1.63,,,,,,,,,g.PNG,g,610898813e48dc2864965122,2021-10-19_21h15.58.740,forced_choiceRT,2021.1.2,Win32,59.80861244,,,,,,,,10,Ontime,g,1,2.044,3,2,14,1,1,,,,,
0.26,,,,,,,,,g.PNG,g,610898813e48dc2864965122,2021-10-19_21h15.58.740,forced_choiceRT,2021.1.2,Win32,59.80861244,,,,,,,,10,Ontime,g,1,1.976,3,3,15,1,1,,,,,
1.25,,,,,,,,,f.PNG,f,610898813e48dc2864965122,2021-10-19_21h15.58.740,forced_choiceRT,2021.1.2,Win32,59.80861244,,,,,,,,10,Ontime,f,1,2.075,4,0,16,0,1,,,,,
0.13,,,,,,,,,g.PNG,g,610898813e48dc2864965122,2021-10-19_21h15.58.740,forced_choiceRT,2021.1.2,Win32,59.80861244,,,,,,,,10,Ontime,g,1,1.943,4,1,17,1,1,,,,,
0.77,,,,,,,,,f.PNG,f,610898813e48dc2864965122,2021-10-19_21h15.58.740,forced_choiceRT,2021.1.2,Win32,59.80861244,,,,,,,,10,Ontime,f,1,2.025,4,2,18,0,1,,,,,
1.94,,,,,,,,,h.PNG,h,610898813e48dc2864965122,2021-10-19_21h15.58.740,forced_choiceRT,2021.1.2,Win32,59.80861244,,,,,,,,10,Ontime,g,0,2.041,4,3,19,2,1,,,,,
0.61,,,,,,,,,g.PNG,g,610898813e48dc2864965122,2021-10-19_21h15.58.740,forced_choiceRT,2021.1.2,Win32,59.80861244,,,,,,,,10,Ontime,g,1,2.01,5,0,20,1,1,,,,,
1.9,,,,,,,,,h.PNG,h,610898813e48dc2864965122,2021-10-19_21h15.58.740,forced_choiceRT,2021.1.2,Win32,59.80861244,,,,,,,,10,Ontime,g,0,1.994,5,1,21,2,1,,,,,
0.33,,,,,,,,,h.PNG,h,610898813e48dc2864965122,2021-10-19_21h15.58.740,forced_choiceRT,2021.1.2,Win32,59.80861244,,,,,,,,10,Ontime,h,1,2.025,5,2,22,2,1,,,,,
0.55,,,,,,,,,j.PNG,j,610898813e48dc2864965122,2021-10-19_21h15.58.740,forced_choiceRT,2021.1.2,Win32,59.80861244,,,,,,,,10,Ontime,j,1,1.991,5,3,23,3,1,,,,,
1.05,,,,,,,,,j.PNG,j,610898813e48dc2864965122,2021-10-19_21h15.58.740,forced_choiceRT,2021.1.2,Win32,59.80861244,,,,,,,,10,Ontime,j,1,2.03,6,0,24,3,1,,,,,
1.95,,,,,,,,,h.PNG,h,610898813e48dc2864965122,2021-10-19_21h15.58.740,forced_choiceRT,2021.1.2,Win32,59.80861244,,,,,,,,10,Slow,h,1,2.109,6,1,25,2,1,,,,,
0.72,,,,,,,,,g.PNG,g,610898813e48dc2864965122,2021-10-19_21h15.58.740,forced_choiceRT,2021.1.2,Win32,59.80861244,,,,,,,,10,Ontime,g,1,2.075,6,2,26,1,1,,,,,
0.03,,,,,,,,,f.PNG,f,610898813e48dc2864965122,2021-10-19_21h15.58.740,forced_choiceRT,2021.1.2,Win32,59.80861244,,,,,,,,10,Ontime,f,1,1.989,6,3,27,0,1,,,,,
1.91,,,,,,,,,g.PNG,g,610898813e48dc2864965122,2021-10-19_21h15.58.740,forced_choiceRT,2021.1.2,Win32,59.80861244,,,,,,,,10,Ontime,j,0,2.013,7,0,28,1,1,,,,,
0.05,,,,,,,,,g.PNG,g,610898813e48dc2864965122,2021-10-19_21h15.58.740,forced_choiceRT,2021.1.2,Win32,59.80861244,,,,,,,,10,Ontime,g,1,1.959,7,1,29,1,1,,,,,
1.87,,,,,,,,,f.PNG,f,610898813e48dc2864965122,2021-10-19_21h15.58.740,forced_choiceRT,2021.1.2,Win32,59.80861244,,,,,,,,10,Slow,g,0,2.11,7,2,30,0,1,,,,,
0.4,,,,,,,,,h.PNG,h,610898813e48dc2864965122,2021-10-19_21h15.58.740,forced_choiceRT,2021.1.2,Win32,59.80861244,,,,,,,,10,Ontime,h,1,1.959,7,3,31,2,1,,,,,
0.07,,,,,,,,,j.PNG,j,610898813e48dc2864965122,2021-10-19_21h15.58.740,forced_choiceRT,2021.1.2,Win32,59.80861244,,,,,,,,10,Ontime,j,1,1.959,8,0,32,3,1,,,,,
0.46,,,,,,,,,f.PNG,f,610898813e48dc2864965122,2021-10-19_21h15.58.740,forced_choiceRT,2021.1.2,Win32,59.80861244,,,,,,,,10,Ontime,f,1,1.957,8,1,33,0,1,,,,,
1.95,,,,,,,,,f.PNG,f,610898813e48dc2864965122,2021-10-19_21h15.58.740,forced_choiceRT,2021.1.2,Win32,59.80861244,,,,,,,,10,Ontime,j,0,1.958,8,2,34,0,1,,,,,
1.38,,,,,,,,,j.PNG,j,610898813e48dc2864965122,2021-10-19_21h15.58.740,forced_choiceRT,2021.1.2,Win32,59.80861244,,,,,,,,10,Ontime,j,1,2.073,8,3,35,3,1,,,,,
0.48,,,,,,,,,h.PNG,h,610898813e48dc2864965122,2021-10-19_21h15.58.740,forced_choiceRT,2021.1.2,Win32,59.80861244,,,,,,,,10,Ontime,h,1,1.976,9,0,36,2,1,,,,,
1.97,,,,,,,,,j.PNG,j,610898813e48dc2864965122,2021-10-19_21h15.58.740,forced_choiceRT,2021.1.2,Win32,59.80861244,,,,,,,,10,Slow,h,0,2.247,9,1,37,3,1,,,,,
1.28,,,,,,,,,h.PNG,h,610898813e48dc2864965122,2021-10-19_21h15.58.740,forced_choiceRT,2021.1.2,Win32,59.80861244,,,,,,,,10,Fast,h,1,1.659,9,2,38,2,1,,,,,
0.3,,,,,,,,,j.PNG,j,610898813e48dc2864965122,2021-10-19_21h15.58.740,forced_choiceRT,2021.1.2,Win32,59.80861244,,,,,,,,10,Ontime,j,1,2.076,9,3,39,3,1,,,,,
,,,,,,,,,,,610898813e48dc2864965122,2021-10-19_21h15.58.740,forced_choiceRT,2021.1.2,Win32,59.80861244,,,,,,,,,,,,,,,,,,9,0,9,0,1
