IP_Addresss,target_onset,trial_resp_sp.keys,trial_resp_sp.corr,trial_resp_sp.rt,trials_train_loop.thisRepN,trials_train_loop.thisTrialN,trials_train_loop.thisN,trials_train_loop.thisIndex,trials_train_loop.ran,pic,correct_key,participant,date,expName,psychopyVersion,OS,frameRate,trial_resp_timing.keys,trial_resp_timing.rt,trials_train_timing.thisRepN,trials_train_timing.thisTrialN,trials_train_timing.thisN,trials_train_timing.thisIndex,trials_train_timing.ran,block_id,ontime,forcedRT_resp.keys,forcedRT_resp.corr,forcedRT_resp.rt,trials.thisRepN,trials.thisTrialN,trials.thisN,trials.thisIndex,trials.ran,blocks.thisRepN,blocks.thisTrialN,blocks.thisN,blocks.thisIndex,blocks.ran
75.187.79.42,0,f,1,2.2251,0,0,0,0,1,f.PNG,f,6111299ba7aede3df217d7fe,2021-10-19_13h06.39.643,forced_choiceRT,2021.1.2,MacIntel,60.0024001,,,,,,,,,,,,,,,,,,,,,,
,0,f,1,1.8242,0,1,1,0,1,f.PNG,f,6111299ba7aede3df217d7fe,2021-10-19_13h06.39.643,forced_choiceRT,2021.1.2,MacIntel,60.0024001,,,,,,,,,,,,,,,,,,,,,,
,0,h,1,1.1551,0,2,2,2,1,h.PNG,h,6111299ba7aede3df217d7fe,2021-10-19_13h06.39.643,forced_choiceRT,2021.1.2,MacIntel,60.0024001,,,,,,,,,,,,,,,,,,,,,,
,0,j,1,1.2585,0,3,3,3,1,j.PNG,j,6111299ba7aede3df217d7fe,2021-10-19_13h06.39.643,forced_choiceRT,2021.1.2,MacIntel,60.0024001,,,,,,,,,,,,,,,,,,,,,,
,0,h,1,1.8305,1,0,4,2,1,h.PNG,h,6111299ba7aede3df217d7fe,2021-10-19_13h06.39.643,forced_choiceRT,2021.1.2,MacIntel,60.0024001,,,,,,,,,,,,,,,,,,,,,,
,0,h,1,1.0505,1,1,5,2,1,h.PNG,h,6111299ba7aede3df217d7fe,2021-10-19_13h06.39.643,forced_choiceRT,2021.1.2,MacIntel,60.0024001,,,,,,,,,,,,,,,,,,,,,,
,0,j,1,1.0835,1,2,6,3,1,j.PNG,j,6111299ba7aede3df217d7fe,2021-10-19_13h06.39.643,forced_choiceRT,2021.1.2,MacIntel,60.0024001,,,,,,,,,,,,,,,,,,,,,,
,0,j,1,1.1091,1,3,7,3,1,j.PNG,j,6111299ba7aede3df217d7fe,2021-10-19_13h06.39.643,forced_choiceRT,2021.1.2,MacIntel,60.0024001,,,,,,,,,,,,,,,,,,,,,,
,0,g,1,1.3858,2,0,8,1,1,g.PNG,g,6111299ba7aede3df217d7fe,2021-10-19_13h06.39.643,forced_choiceRT,2021.1.2,MacIntel,60.0024001,,,,,,,,,,,,,,,,,,,,,,
,0,f,1,1.7321,2,1,9,0,1,f.PNG,f,6111299ba7aede3df217d7fe,2021-10-19_13h06.39.643,forced_choiceRT,2021.1.2,MacIntel,60.0024001,,,,,,,,,,,,,,,,,,,,,,
,0,g,1,2.0515,2,2,10,1,1,g.PNG,g,6111299ba7aede3df217d7fe,2021-10-19_13h06.39.643,forced_choiceRT,2021.1.2,MacIntel,60.0024001,,,,,,,,,,,,,,,,,,,,,,
,0,f,1,1.4987,2,3,11,0,1,f.PNG,f,6111299ba7aede3df217d7fe,2021-10-19_13h06.39.643,forced_choiceRT,2021.1.2,MacIntel,60.0024001,,,,,,,,,,,,,,,,,,,,,,
,0,h,1,1.6172,3,0,12,2,1,h.PNG,h,6111299ba7aede3df217d7fe,2021-10-19_13h06.39.643,forced_choiceRT,2021.1.2,MacIntel,60.0024001,,,,,,,,,,,,,,,,,,,,,,
,0,g,1,5.084,3,1,13,1,1,g.PNG,g,6111299ba7aede3df217d7fe,2021-10-19_13h06.39.643,forced_choiceRT,2021.1.2,MacIntel,60.0024001,,,,,,,,,,,,,,,,,,,,,,
,0,f,1,2.5858,3,2,14,0,1,f.PNG,f,6111299ba7aede3df217d7fe,2021-10-19_13h06.39.643,forced_choiceRT,2021.1.2,MacIntel,60.0024001,,,,,,,,,,,,,,,,,,,,,,
,0,h,1,1.5352,3,3,15,2,1,h.PNG,h,6111299ba7aede3df217d7fe,2021-10-19_13h06.39.643,forced_choiceRT,2021.1.2,MacIntel,60.0024001,,,,,,,,,,,,,,,,,,,,,,
,0,g,1,1.965,4,0,16,1,1,g.PNG,g,6111299ba7aede3df217d7fe,2021-10-19_13h06.39.643,forced_choiceRT,2021.1.2,MacIntel,60.0024001,,,,,,,,,,,,,,,,,,,,,,
,0,j,1,2.1797,4,1,17,3,1,j.PNG,j,6111299ba7aede3df217d7fe,2021-10-19_13h06.39.643,forced_choiceRT,2021.1.2,MacIntel,60.0024001,,,,,,,,,,,,,,,,,,,,,,
,0,g,1,1.2691,4,2,18,1,1,g.PNG,g,6111299ba7aede3df217d7fe,2021-10-19_13h06.39.643,forced_choiceRT,2021.1.2,MacIntel,60.0024001,,,,,,,,,,,,,,,,,,,,,,
,0,g,1,1.2149,4,3,19,1,1,g.PNG,g,6111299ba7aede3df217d7fe,2021-10-19_13h06.39.643,forced_choiceRT,2021.1.2,MacIntel,60.0024001,,,,,,,,,,,,,,,,,,,,,,
,0,f,1,1.3114,5,0,20,0,1,f.PNG,f,6111299ba7aede3df217d7fe,2021-10-19_13h06.39.643,forced_choiceRT,2021.1.2,MacIntel,60.0024001,,,,,,,,,,,,,,,,,,,,,,
,0,h,1,1.3504,5,1,21,2,1,h.PNG,h,6111299ba7aede3df217d7fe,2021-10-19_13h06.39.643,forced_choiceRT,2021.1.2,MacIntel,60.0024001,,,,,,,,,,,,,,,,,,,,,,
,0,j,1,1.559,5,2,22,3,1,j.PNG,j,6111299ba7aede3df217d7fe,2021-10-19_13h06.39.643,forced_choiceRT,2021.1.2,MacIntel,60.0024001,,,,,,,,,,,,,,,,,,,,,,
,0,h,1,1.64,5,3,23,2,1,h.PNG,h,6111299ba7aede3df217d7fe,2021-10-19_13h06.39.643,forced_choiceRT,2021.1.2,MacIntel,60.0024001,,,,,,,,,,,,,,,,,,,,,,
,0,h,1,1.5487,6,0,24,2,1,h.PNG,h,6111299ba7aede3df217d7fe,2021-10-19_13h06.39.643,forced_choiceRT,2021.1.2,MacIntel,60.0024001,,,,,,,,,,,,,,,,,,,,,,
,0,j,1,1.0664,6,1,25,3,1,j.PNG,j,6111299ba7aede3df217d7fe,2021-10-19_13h06.39.643,forced_choiceRT,2021.1.2,MacIntel,60.0024001,,,,,,,,,,,,,,,,,,,,,,
,0,g,1,1.2498,6,2,26,1,1,g.PNG,g,6111299ba7aede3df217d7fe,2021-10-19_13h06.39.643,forced_choiceRT,2021.1.2,MacIntel,60.0024001,,,,,,,,,,,,,,,,,,,,,,
,0,g,1,0.9082,6,3,27,1,1,g.PNG,g,6111299ba7aede3df217d7fe,2021-10-19_13h06.39.643,forced_choiceRT,2021.1.2,MacIntel,60.0024001,,,,,,,,,,,,,,,,,,,,,,
,0,h,1,0.9527,7,0,28,2,1,h.PNG,h,6111299ba7aede3df217d7fe,2021-10-19_13h06.39.643,forced_choiceRT,2021.1.2,MacIntel,60.0024001,,,,,,,,,,,,,,,,,,,,,,
,0,g,1,0.9852,7,1,29,1,1,g.PNG,g,6111299ba7aede3df217d7fe,2021-10-19_13h06.39.643,forced_choiceRT,2021.1.2,MacIntel,60.0024001,,,,,,,,,,,,,,,,,,,,,,
,0,j,1,1.0654,7,2,30,3,1,j.PNG,j,6111299ba7aede3df217d7fe,2021-10-19_13h06.39.643,forced_choiceRT,2021.1.2,MacIntel,60.0024001,,,,,,,,,,,,,,,,,,,,,,
,0,g,1,0.874,7,3,31,1,1,g.PNG,g,6111299ba7aede3df217d7fe,2021-10-19_13h06.39.643,forced_choiceRT,2021.1.2,MacIntel,60.0024001,,,,,,,,,,,,,,,,,,,,,,
,0,g,1,1.6377,8,0,32,1,1,g.PNG,g,6111299ba7aede3df217d7fe,2021-10-19_13h06.39.643,forced_choiceRT,2021.1.2,MacIntel,60.0024001,,,,,,,,,,,,,,,,,,,,,,
,0,h,1,1.2485,8,1,33,2,1,h.PNG,h,6111299ba7aede3df217d7fe,2021-10-19_13h06.39.643,forced_choiceRT,2021.1.2,MacIntel,60.0024001,,,,,,,,,,,,,,,,,,,,,,
,0,h,1,0.6346,8,2,34,2,1,h.PNG,h,6111299ba7aede3df217d7fe,2021-10-19_13h06.39.643,forced_choiceRT,2021.1.2,MacIntel,60.0024001,,,,,,,,,,,,,,,,,,,,,,
,0,f,1,0.8006,8,3,35,0,1,f.PNG,f,6111299ba7aede3df217d7fe,2021-10-19_13h06.39.643,forced_choiceRT,2021.1.2,MacIntel,60.0024001,,,,,,,,,,,,,,,,,,,,,,
,0,f,1,0.5357,9,0,36,0,1,f.PNG,f,6111299ba7aede3df217d7fe,2021-10-19_13h06.39.643,forced_choiceRT,2021.1.2,MacIntel,60.0024001,,,,,,,,,,,,,,,,,,,,,,
,0,h,1,0.9225,9,1,37,2,1,h.PNG,h,6111299ba7aede3df217d7fe,2021-10-19_13h06.39.643,forced_choiceRT,2021.1.2,MacIntel,60.0024001,,,,,,,,,,,,,,,,,,,,,,
,0,f,1,0.9517,9,2,38,0,1,f.PNG,f,6111299ba7aede3df217d7fe,2021-10-19_13h06.39.643,forced_choiceRT,2021.1.2,MacIntel,60.0024001,,,,,,,,,,,,,,,,,,,,,,
,0,f,1,0.6454,9,3,39,0,1,f.PNG,f,6111299ba7aede3df217d7fe,2021-10-19_13h06.39.643,forced_choiceRT,2021.1.2,MacIntel,60.0024001,,,,,,,,,,,,,,,,,,,,,,
,0,f,1,0.5847,10,0,40,0,1,f.PNG,f,6111299ba7aede3df217d7fe,2021-10-19_13h06.39.643,forced_choiceRT,2021.1.2,MacIntel,60.0024001,,,,,,,,,,,,,,,,,,,,,,
,0,h,1,0.8008,10,1,41,2,1,h.PNG,h,6111299ba7aede3df217d7fe,2021-10-19_13h06.39.643,forced_choiceRT,2021.1.2,MacIntel,60.0024001,,,,,,,,,,,,,,,,,,,,,,
,0,f,1,0.7043,10,2,42,0,1,f.PNG,f,6111299ba7aede3df217d7fe,2021-10-19_13h06.39.643,forced_choiceRT,2021.1.2,MacIntel,60.0024001,,,,,,,,,,,,,,,,,,,,,,
,0,h,1,0.6753,10,3,43,2,1,h.PNG,h,6111299ba7aede3df217d7fe,2021-10-19_13h06.39.643,forced_choiceRT,2021.1.2,MacIntel,60.0024001,,,,,,,,,,,,,,,,,,,,,,
,0,g,1,1.1341,11,0,44,1,1,g.PNG,g,6111299ba7aede3df217d7fe,2021-10-19_13h06.39.643,forced_choiceRT,2021.1.2,MacIntel,60.0024001,,,,,,,,,,,,,,,,,,,,,,
,0,g,1,0.8013,11,1,45,1,1,g.PNG,g,6111299ba7aede3df217d7fe,2021-10-19_13h06.39.643,forced_choiceRT,2021.1.2,MacIntel,60.0024001,,,,,,,,,,,,,,,,,,,,,,
,0,g,1,0.5556,11,2,46,1,1,g.PNG,g,6111299ba7aede3df217d7fe,2021-10-19_13h06.39.643,forced_choiceRT,2021.1.2,MacIntel,60.0024001,,,,,,,,,,,,,,,,,,,,,,
,0,j,1,1.0914,11,3,47,3,1,j.PNG,j,6111299ba7aede3df217d7fe,2021-10-19_13h06.39.643,forced_choiceRT,2021.1.2,MacIntel,60.0024001,,,,,,,,,,,,,,,,,,,,,,
,0,j,1,0.5735,12,0,48,3,1,j.PNG,j,6111299ba7aede3df217d7fe,2021-10-19_13h06.39.643,forced_choiceRT,2021.1.2,MacIntel,60.0024001,,,,,,,,,,,,,,,,,,,,,,
,0,j,1,0.5664,12,1,49,3,1,j.PNG,j,6111299ba7aede3df217d7fe,2021-10-19_13h06.39.643,forced_choiceRT,2021.1.2,MacIntel,60.0024001,,,,,,,,,,,,,,,,,,,,,,
,0,g,1,0.8559,12,2,50,1,1,g.PNG,g,6111299ba7aede3df217d7fe,2021-10-19_13h06.39.643,forced_choiceRT,2021.1.2,MacIntel,60.0024001,,,,,,,,,,,,,,,,,,,,,,
,0,j,1,1.0066,12,3,51,3,1,j.PNG,j,6111299ba7aede3df217d7fe,2021-10-19_13h06.39.643,forced_choiceRT,2021.1.2,MacIntel,60.0024001,,,,,,,,,,,,,,,,,,,,,,
,0,j,1,0.4904,13,0,52,3,1,j.PNG,j,6111299ba7aede3df217d7fe,2021-10-19_13h06.39.643,forced_choiceRT,2021.1.2,MacIntel,60.0024001,,,,,,,,,,,,,,,,,,,,,,
,0,f,1,0.6681,13,1,53,0,1,f.PNG,f,6111299ba7aede3df217d7fe,2021-10-19_13h06.39.643,forced_choiceRT,2021.1.2,MacIntel,60.0024001,,,,,,,,,,,,,,,,,,,,,,
,0,h,1,0.8024,13,2,54,2,1,h.PNG,h,6111299ba7aede3df217d7fe,2021-10-19_13h06.39.643,forced_choiceRT,2021.1.2,MacIntel,60.0024001,,,,,,,,,,,,,,,,,,,,,,
,0,j,1,0.9005,13,3,55,3,1,j.PNG,j,6111299ba7aede3df217d7fe,2021-10-19_13h06.39.643,forced_choiceRT,2021.1.2,MacIntel,60.0024001,,,,,,,,,,,,,,,,,,,,,,
,0,f,1,0.776,14,0,56,0,1,f.PNG,f,6111299ba7aede3df217d7fe,2021-10-19_13h06.39.643,forced_choiceRT,2021.1.2,MacIntel,60.0024001,,,,,,,,,,,,,,,,,,,,,,
,0,j,1,0.9771,14,1,57,3,1,j.PNG,j,6111299ba7aede3df217d7fe,2021-10-19_13h06.39.643,forced_choiceRT,2021.1.2,MacIntel,60.0024001,,,,,,,,,,,,,,,,,,,,,,
,0,j,1,0.7226,14,2,58,3,1,j.PNG,j,6111299ba7aede3df217d7fe,2021-10-19_13h06.39.643,forced_choiceRT,2021.1.2,MacIntel,60.0024001,,,,,,,,,,,,,,,,,,,,,,
,0,f,1,0.6768,14,3,59,0,1,f.PNG,f,6111299ba7aede3df217d7fe,2021-10-19_13h06.39.643,forced_choiceRT,2021.1.2,MacIntel,60.0024001,,,,,,,,,,,,,,,,,,,,,,
,,,,,,,,,,,,6111299ba7aede3df217d7fe,2021-10-19_13h06.39.643,forced_choiceRT,2021.1.2,MacIntel,60.0024001,j,2.4039,0,0,0,0,1,,,,,,,,,,,,,,,
,,,,,,,,,,,,6111299ba7aede3df217d7fe,2021-10-19_13h06.39.643,forced_choiceRT,2021.1.2,MacIntel,60.0024001,h,1.2018,1,0,1,0,1,,,,,,,,,,,,,,,
,,,,,,,,,,,,6111299ba7aede3df217d7fe,2021-10-19_13h06.39.643,forced_choiceRT,2021.1.2,MacIntel,60.0024001,f,1.2506,2,0,2,0,1,,,,,,,,,,,,,,,
,,,,,,,,,,,,6111299ba7aede3df217d7fe,2021-10-19_13h06.39.643,forced_choiceRT,2021.1.2,MacIntel,60.0024001,j,1.8366,3,0,3,0,1,,,,,,,,,,,,,,,
,,,,,,,,,,,,6111299ba7aede3df217d7fe,2021-10-19_13h06.39.643,forced_choiceRT,2021.1.2,MacIntel,60.0024001,j,2.2919,4,0,4,0,1,,,,,,,,,,,,,,,
,,,,,,,,,,,,6111299ba7aede3df217d7fe,2021-10-19_13h06.39.643,forced_choiceRT,2021.1.2,MacIntel,60.0024001,h,1.8578,5,0,5,0,1,,,,,,,,,,,,,,,
,,,,,,,,,,,,6111299ba7aede3df217d7fe,2021-10-19_13h06.39.643,forced_choiceRT,2021.1.2,MacIntel,60.0024001,h,2.3832,6,0,6,0,1,,,,,,,,,,,,,,,
,,,,,,,,,,,,6111299ba7aede3df217d7fe,2021-10-19_13h06.39.643,forced_choiceRT,2021.1.2,MacIntel,60.0024001,h,1.917,7,0,7,0,1,,,,,,,,,,,,,,,
,,,,,,,,,,,,6111299ba7aede3df217d7fe,2021-10-19_13h06.39.643,forced_choiceRT,2021.1.2,MacIntel,60.0024001,h,1.8793,8,0,8,0,1,,,,,,,,,,,,,,,
,,,,,,,,,,,,6111299ba7aede3df217d7fe,2021-10-19_13h06.39.643,forced_choiceRT,2021.1.2,MacIntel,60.0024001,h,2.0505,9,0,9,0,1,,,,,,,,,,,,,,,
,,,,,,,,,,,,6111299ba7aede3df217d7fe,2021-10-19_13h06.39.643,forced_choiceRT,2021.1.2,MacIntel,60.0024001,h,2.1067,10,0,10,0,1,,,,,,,,,,,,,,,
,,,,,,,,,,,,6111299ba7aede3df217d7fe,2021-10-19_13h06.39.643,forced_choiceRT,2021.1.2,MacIntel,60.0024001,j,2.0183,11,0,11,0,1,,,,,,,,,,,,,,,
,,,,,,,,,,,,6111299ba7aede3df217d7fe,2021-10-19_13h06.39.643,forced_choiceRT,2021.1.2,MacIntel,60.0024001,j,1.9826,12,0,12,0,1,,,,,,,,,,,,,,,
,,,,,,,,,,,,6111299ba7aede3df217d7fe,2021-10-19_13h06.39.643,forced_choiceRT,2021.1.2,MacIntel,60.0024001,f,1.8591,13,0,13,0,1,,,,,,,,,,,,,,,
,,,,,,,,,,,,6111299ba7aede3df217d7fe,2021-10-19_13h06.39.643,forced_choiceRT,2021.1.2,MacIntel,60.0024001,f,1.9896,14,0,14,0,1,,,,,,,,,,,,,,,
,,,,,,,,,,,,6111299ba7aede3df217d7fe,2021-10-19_13h06.39.643,forced_choiceRT,2021.1.2,MacIntel,60.0024001,f,2.0374,15,0,15,0,1,,,,,,,,,,,,,,,
,,,,,,,,,,,,6111299ba7aede3df217d7fe,2021-10-19_13h06.39.643,forced_choiceRT,2021.1.2,MacIntel,60.0024001,g,2.0319,16,0,16,0,1,,,,,,,,,,,,,,,
,,,,,,,,,,,,6111299ba7aede3df217d7fe,2021-10-19_13h06.39.643,forced_choiceRT,2021.1.2,MacIntel,60.0024001,f,1.9957,17,0,17,0,1,,,,,,,,,,,,,,,
,,,,,,,,,,,,6111299ba7aede3df217d7fe,2021-10-19_13h06.39.643,forced_choiceRT,2021.1.2,MacIntel,60.0024001,f,2.0328,18,0,18,0,1,,,,,,,,,,,,,,,
,,,,,,,,,,,,6111299ba7aede3df217d7fe,2021-10-19_13h06.39.643,forced_choiceRT,2021.1.2,MacIntel,60.0024001,g,2.012,19,0,19,0,1,,,,,,,,,,,,,,,
,0.36,,,,,,,,,g.PNG,g,6111299ba7aede3df217d7fe,2021-10-19_13h06.39.643,forced_choiceRT,2021.1.2,MacIntel,60.0024001,,,,,,,,1,Slow,f,0,2.3429,0,0,0,1,1,,,,,
,0.58,,,,,,,,,g.PNG,g,6111299ba7aede3df217d7fe,2021-10-19_13h06.39.643,forced_choiceRT,2021.1.2,MacIntel,60.0024001,,,,,,,,1,Slow,g,1,2.2511,0,1,1,1,1,,,,,
,0.05,,,,,,,,,f.PNG,f,6111299ba7aede3df217d7fe,2021-10-19_13h06.39.643,forced_choiceRT,2021.1.2,MacIntel,60.0024001,,,,,,,,1,Fast,f,1,1.7842,0,2,2,0,1,,,,,
,0.03,,,,,,,,,j.PNG,j,6111299ba7aede3df217d7fe,2021-10-19_13h06.39.643,forced_choiceRT,2021.1.2,MacIntel,60.0024001,,,,,,,,1,Ontime,j,1,1.9154,0,3,3,3,1,,,,,
,0.39,,,,,,,,,f.PNG,f,6111299ba7aede3df217d7fe,2021-10-19_13h06.39.643,forced_choiceRT,2021.1.2,MacIntel,60.0024001,,,,,,,,1,Ontime,f,1,1.9441,1,0,4,0,1,,,,,
,0.65,,,,,,,,,j.PNG,j,6111299ba7aede3df217d7fe,2021-10-19_13h06.39.643,forced_choiceRT,2021.1.2,MacIntel,60.0024001,,,,,,,,1,Slow,j,1,2.2167,1,1,5,3,1,,,,,
,1.67,,,,,,,,,f.PNG,f,6111299ba7aede3df217d7fe,2021-10-19_13h06.39.643,forced_choiceRT,2021.1.2,MacIntel,60.0024001,,,,,,,,1,Slow,f,1,2.4779,1,2,6,0,1,,,,,
,1.99,,,,,,,,,f.PNG,f,6111299ba7aede3df217d7fe,2021-10-19_13h06.39.643,forced_choiceRT,2021.1.2,MacIntel,60.0024001,,,,,,,,1,Fast,h,0,1.8599,1,3,7,0,1,,,,,
,0.61,,,,,,,,,f.PNG,f,6111299ba7aede3df217d7fe,2021-10-19_13h06.39.643,forced_choiceRT,2021.1.2,MacIntel,60.0024001,,,,,,,,1,Fast,f,1,1.3478,2,0,8,0,1,,,,,
,1.24,,,,,,,,,h.PNG,h,6111299ba7aede3df217d7fe,2021-10-19_13h06.39.643,forced_choiceRT,2021.1.2,MacIntel,60.0024001,,,,,,,,1,Ontime,j,0,1.9451,2,1,9,2,1,,,,,
,0.94,,,,,,,,,j.PNG,j,6111299ba7aede3df217d7fe,2021-10-19_13h06.39.643,forced_choiceRT,2021.1.2,MacIntel,60.0024001,,,,,,,,1,Slow,j,1,2.1839,2,2,10,3,1,,,,,
,1.68,,,,,,,,,j.PNG,j,6111299ba7aede3df217d7fe,2021-10-19_13h06.39.643,forced_choiceRT,2021.1.2,MacIntel,60.0024001,,,,,,,,1,Slow,j,1,2.4312,2,3,11,3,1,,,,,
,0.28,,,,,,,,,f.PNG,f,6111299ba7aede3df217d7fe,2021-10-19_13h06.39.643,forced_choiceRT,2021.1.2,MacIntel,60.0024001,,,,,,,,1,Ontime,f,1,1.9145,3,0,12,0,1,,,,,
,0.71,,,,,,,,,j.PNG,j,6111299ba7aede3df217d7fe,2021-10-19_13h06.39.643,forced_choiceRT,2021.1.2,MacIntel,60.0024001,,,,,,,,1,Ontime,j,1,2.0305,3,1,13,3,1,,,,,
,0.9,,,,,,,,,j.PNG,j,6111299ba7aede3df217d7fe,2021-10-19_13h06.39.643,forced_choiceRT,2021.1.2,MacIntel,60.0024001,,,,,,,,1,Slow,j,1,2.2513,3,2,14,3,1,,,,,
,0.18,,,,,,,,,j.PNG,j,6111299ba7aede3df217d7fe,2021-10-19_13h06.39.643,forced_choiceRT,2021.1.2,MacIntel,60.0024001,,,,,,,,1,Fast,j,1,1.8667,3,3,15,3,1,,,,,
,1.79,,,,,,,,,h.PNG,h,6111299ba7aede3df217d7fe,2021-10-19_13h06.39.643,forced_choiceRT,2021.1.2,MacIntel,60.0024001,,,,,,,,1,Slow,j,0,2.1114,4,0,16,2,1,,,,,
,0.66,,,,,,,,,f.PNG,f,6111299ba7aede3df217d7fe,2021-10-19_13h06.39.643,forced_choiceRT,2021.1.2,MacIntel,60.0024001,,,,,,,,1,Ontime,f,1,2.0483,4,1,17,0,1,,,,,
,1.85,,,,,,,,,h.PNG,h,6111299ba7aede3df217d7fe,2021-10-19_13h06.39.643,forced_choiceRT,2021.1.2,MacIntel,60.0024001,,,,,,,,1,Slow,f,0,2.1978,4,2,18,2,1,,,,,
,1.64,,,,,,,,,j.PNG,j,6111299ba7aede3df217d7fe,2021-10-19_13h06.39.643,forced_choiceRT,2021.1.2,MacIntel,60.0024001,,,,,,,,1,Slow,h,0,2.3824,4,3,19,3,1,,,,,
,0.94,,,,,,,,,j.PNG,j,6111299ba7aede3df217d7fe,2021-10-19_13h06.39.643,forced_choiceRT,2021.1.2,MacIntel,60.0024001,,,,,,,,1,Fast,j,1,1.7475,5,0,20,3,1,,,,,
,0.47,,,,,,,,,h.PNG,h,6111299ba7aede3df217d7fe,2021-10-19_13h06.39.643,forced_choiceRT,2021.1.2,MacIntel,60.0024001,,,,,,,,1,Slow,h,1,2.1825,5,1,21,2,1,,,,,
,1.17,,,,,,,,,g.PNG,g,6111299ba7aede3df217d7fe,2021-10-19_13h06.39.643,forced_choiceRT,2021.1.2,MacIntel,60.0024001,,,,,,,,1,Slow,g,1,2.2753,5,2,22,1,1,,,,,
,1.13,,,,,,,,,g.PNG,g,6111299ba7aede3df217d7fe,2021-10-19_13h06.39.643,forced_choiceRT,2021.1.2,MacIntel,60.0024001,,,,,,,,1,Slow,g,1,2.4976,5,3,23,1,1,,,,,
,1.41,,,,,,,,,j.PNG,j,6111299ba7aede3df217d7fe,2021-10-19_13h06.39.643,forced_choiceRT,2021.1.2,MacIntel,60.0024001,,,,,,,,1,Slow,j,1,2.2601,6,0,24,3,1,,,,,
,0.21,,,,,,,,,h.PNG,h,6111299ba7aede3df217d7fe,2021-10-19_13h06.39.643,forced_choiceRT,2021.1.2,MacIntel,60.0024001,,,,,,,,1,Slow,h,1,2.1675,6,1,25,2,1,,,,,
,0.2,,,,,,,,,g.PNG,g,6111299ba7aede3df217d7fe,2021-10-19_13h06.39.643,forced_choiceRT,2021.1.2,MacIntel,60.0024001,,,,,,,,1,Ontime,g,1,1.911,6,2,26,1,1,,,,,
,0.58,,,,,,,,,f.PNG,f,6111299ba7aede3df217d7fe,2021-10-19_13h06.39.643,forced_choiceRT,2021.1.2,MacIntel,60.0024001,,,,,,,,1,Fast,f,1,1.8448,6,3,27,0,1,,,,,
,0.18,,,,,,,,,g.PNG,g,6111299ba7aede3df217d7fe,2021-10-19_13h06.39.643,forced_choiceRT,2021.1.2,MacIntel,60.0024001,,,,,,,,1,Fast,g,1,1.8823,7,0,28,1,1,,,,,
,1.72,,,,,,,,,g.PNG,g,6111299ba7aede3df217d7fe,2021-10-19_13h06.39.643,forced_choiceRT,2021.1.2,MacIntel,60.0024001,,,,,,,,1,Slow,f,0,2.148,7,1,29,1,1,,,,,
,1.19,,,,,,,,,h.PNG,h,6111299ba7aede3df217d7fe,2021-10-19_13h06.39.643,forced_choiceRT,2021.1.2,MacIntel,60.0024001,,,,,,,,1,Slow,h,1,2.1987,7,2,30,2,1,,,,,
,1.28,,,,,,,,,f.PNG,f,6111299ba7aede3df217d7fe,2021-10-19_13h06.39.643,forced_choiceRT,2021.1.2,MacIntel,60.0024001,,,,,,,,1,Slow,f,1,2.3832,7,3,31,0,1,,,,,
,0.65,,,,,,,,,h.PNG,h,6111299ba7aede3df217d7fe,2021-10-19_13h06.39.643,forced_choiceRT,2021.1.2,MacIntel,60.0024001,,,,,,,,1,Slow,h,1,2.2391,8,0,32,2,1,,,,,
,1.09,,,,,,,,,g.PNG,g,6111299ba7aede3df217d7fe,2021-10-19_13h06.39.643,forced_choiceRT,2021.1.2,MacIntel,60.0024001,,,,,,,,1,Slow,f,0,2.3853,8,1,33,1,1,,,,,
,0.69,,,,,,,,,g.PNG,g,6111299ba7aede3df217d7fe,2021-10-19_13h06.39.643,forced_choiceRT,2021.1.2,MacIntel,60.0024001,,,,,,,,1,Slow,g,1,2.1806,8,2,34,1,1,,,,,
,0.03,,,,,,,,,h.PNG,h,6111299ba7aede3df217d7fe,2021-10-19_13h06.39.643,forced_choiceRT,2021.1.2,MacIntel,60.0024001,,,,,,,,1,Fast,h,1,1.6663,8,3,35,2,1,,,,,
,1.16,,,,,,,,,g.PNG,g,6111299ba7aede3df217d7fe,2021-10-19_13h06.39.643,forced_choiceRT,2021.1.2,MacIntel,60.0024001,,,,,,,,1,Slow,g,1,2.1838,9,0,36,1,1,,,,,
,0.61,,,,,,,,,h.PNG,h,6111299ba7aede3df217d7fe,2021-10-19_13h06.39.643,forced_choiceRT,2021.1.2,MacIntel,60.0024001,,,,,,,,1,Ontime,h,1,1.954,9,1,37,2,1,,,,,
,1.85,,,,,,,,,f.PNG,f,6111299ba7aede3df217d7fe,2021-10-19_13h06.39.643,forced_choiceRT,2021.1.2,MacIntel,60.0024001,,,,,,,,1,Slow,h,0,2.1677,9,2,38,0,1,,,,,
,0.39,,,,,,,,,h.PNG,h,6111299ba7aede3df217d7fe,2021-10-19_13h06.39.643,forced_choiceRT,2021.1.2,MacIntel,60.0024001,,,,,,,,1,Fast,h,1,1.8764,9,3,39,2,1,,,,,
,,,,,,,,,,,,6111299ba7aede3df217d7fe,2021-10-19_13h06.39.643,forced_choiceRT,2021.1.2,MacIntel,60.0024001,,,,,,,,,,,,,,,,,,0,0,0,0,1
,0.7,,,,,,,,,h.PNG,h,6111299ba7aede3df217d7fe,2021-10-19_13h06.39.643,forced_choiceRT,2021.1.2,MacIntel,60.0024001,,,,,,,,2,Ontime,j,0,2.0056,0,0,0,2,1,,,,,
,0.62,,,,,,,,,f.PNG,f,6111299ba7aede3df217d7fe,2021-10-19_13h06.39.643,forced_choiceRT,2021.1.2,MacIntel,60.0024001,,,,,,,,2,Fast,f,1,1.8829,0,1,1,0,1,,,,,
,1.74,,,,,,,,,j.PNG,j,6111299ba7aede3df217d7fe,2021-10-19_13h06.39.643,forced_choiceRT,2021.1.2,MacIntel,60.0024001,,,,,,,,2,Slow,f,0,2.1964,0,2,2,3,1,,,,,
,1.92,,,,,,,,,f.PNG,f,6111299ba7aede3df217d7fe,2021-10-19_13h06.39.643,forced_choiceRT,2021.1.2,MacIntel,60.0024001,,,,,,,,2,Slow,j,0,2.1829,0,3,3,0,1,,,,,
,0.96,,,,,,,,,g.PNG,g,6111299ba7aede3df217d7fe,2021-10-19_13h06.39.643,forced_choiceRT,2021.1.2,MacIntel,60.0024001,,,,,,,,2,Fast,f,0,1.7629,1,0,4,1,1,,,,,
,0.89,,,,,,,,,g.PNG,g,6111299ba7aede3df217d7fe,2021-10-19_13h06.39.643,forced_choiceRT,2021.1.2,MacIntel,60.0024001,,,,,,,,2,Ontime,h,0,2.0112,1,1,5,1,1,,,,,
,0.75,,,,,,,,,j.PNG,j,6111299ba7aede3df217d7fe,2021-10-19_13h06.39.643,forced_choiceRT,2021.1.2,MacIntel,60.0024001,,,,,,,,2,Slow,j,1,2.2131,1,2,6,3,1,,,,,
,0.35,,,,,,,,,g.PNG,g,6111299ba7aede3df217d7fe,2021-10-19_13h06.39.643,forced_choiceRT,2021.1.2,MacIntel,60.0024001,,,,,,,,2,Ontime,g,1,2.0987,1,3,7,1,1,,,,,
,0.49,,,,,,,,,j.PNG,j,6111299ba7aede3df217d7fe,2021-10-19_13h06.39.643,forced_choiceRT,2021.1.2,MacIntel,60.0024001,,,,,,,,2,Fast,j,1,1.8091,2,0,8,3,1,,,,,
,1.8,,,,,,,,,g.PNG,g,6111299ba7aede3df217d7fe,2021-10-19_13h06.39.643,forced_choiceRT,2021.1.2,MacIntel,60.0024001,,,,,,,,2,Ontime,j,0,2.0805,2,1,9,1,1,,,,,
,0.49,,,,,,,,,h.PNG,h,6111299ba7aede3df217d7fe,2021-10-19_13h06.39.643,forced_choiceRT,2021.1.2,MacIntel,60.0024001,,,,,,,,2,Ontime,h,1,2.0487,2,2,10,2,1,,,,,
,1.47,,,,,,,,,j.PNG,j,6111299ba7aede3df217d7fe,2021-10-19_13h06.39.643,forced_choiceRT,2021.1.2,MacIntel,60.0024001,,,,,,,,2,Ontime,j,1,1.9324,2,3,11,3,1,,,,,
,0.04,,,,,,,,,j.PNG,j,6111299ba7aede3df217d7fe,2021-10-19_13h06.39.643,forced_choiceRT,2021.1.2,MacIntel,60.0024001,,,,,,,,2,Fast,j,1,1.7836,3,0,12,3,1,,,,,
,1.28,,,,,,,,,g.PNG,g,6111299ba7aede3df217d7fe,2021-10-19_13h06.39.643,forced_choiceRT,2021.1.2,MacIntel,60.0024001,,,,,,,,2,Slow,f,0,2.3811,3,1,13,1,1,,,,,
,1.91,,,,,,,,,f.PNG,f,6111299ba7aede3df217d7fe,2021-10-19_13h06.39.643,forced_choiceRT,2021.1.2,MacIntel,60.0024001,,,,,,,,2,Ontime,j,0,2.0055,3,2,14,0,1,,,,,
,0.4,,,,,,,,,g.PNG,g,6111299ba7aede3df217d7fe,2021-10-19_13h06.39.643,forced_choiceRT,2021.1.2,MacIntel,60.0024001,,,,,,,,2,Ontime,g,1,2.0204,3,3,15,1,1,,,,,
,1.7,,,,,,,,,f.PNG,f,6111299ba7aede3df217d7fe,2021-10-19_13h06.39.643,forced_choiceRT,2021.1.2,MacIntel,60.0024001,,,,,,,,2,Slow,f,1,2.2123,4,0,16,0,1,,,,,
,1.05,,,,,,,,,f.PNG,f,6111299ba7aede3df217d7fe,2021-10-19_13h06.39.643,forced_choiceRT,2021.1.2,MacIntel,60.0024001,,,,,,,,2,Fast,f,1,1.8994,4,1,17,0,1,,,,,
,1.88,,,,,,,,,f.PNG,f,6111299ba7aede3df217d7fe,2021-10-19_13h06.39.643,forced_choiceRT,2021.1.2,MacIntel,60.0024001,,,,,,,,2,Slow,f,1,2.139,4,2,18,0,1,,,,,
,0.49,,,,,,,,,h.PNG,h,6111299ba7aede3df217d7fe,2021-10-19_13h06.39.643,forced_choiceRT,2021.1.2,MacIntel,60.0024001,,,,,,,,2,Ontime,h,1,1.9577,4,3,19,2,1,,,,,
,1.65,,,,,,,,,f.PNG,f,6111299ba7aede3df217d7fe,2021-10-19_13h06.39.643,forced_choiceRT,2021.1.2,MacIntel,60.0024001,,,,,,,,2,Ontime,j,0,1.9597,5,0,20,0,1,,,,,
,1.06,,,,,,,,,f.PNG,f,6111299ba7aede3df217d7fe,2021-10-19_13h06.39.643,forced_choiceRT,2021.1.2,MacIntel,60.0024001,,,,,,,,2,Ontime,f,1,2.0503,5,1,21,0,1,,,,,
,0.86,,,,,,,,,h.PNG,h,6111299ba7aede3df217d7fe,2021-10-19_13h06.39.643,forced_choiceRT,2021.1.2,MacIntel,60.0024001,,,,,,,,2,Slow,h,1,2.1086,5,2,22,2,1,,,,,
,1.34,,,,,,,,,h.PNG,h,6111299ba7aede3df217d7fe,2021-10-19_13h06.39.643,forced_choiceRT,2021.1.2,MacIntel,60.0024001,,,,,,,,2,Slow,h,1,2.2643,5,3,23,2,1,,,,,
,1.07,,,,,,,,,f.PNG,f,6111299ba7aede3df217d7fe,2021-10-19_13h06.39.643,forced_choiceRT,2021.1.2,MacIntel,60.0024001,,,,,,,,2,Slow,f,1,2.3098,6,0,24,0,1,,,,,
,0.99,,,,,,,,,h.PNG,h,6111299ba7aede3df217d7fe,2021-10-19_13h06.39.643,forced_choiceRT,2021.1.2,MacIntel,60.0024001,,,,,,,,2,Ontime,h,1,1.9658,6,1,25,2,1,,,,,
,1.92,,,,,,,,,j.PNG,j,6111299ba7aede3df217d7fe,2021-10-19_13h06.39.643,forced_choiceRT,2021.1.2,MacIntel,60.0024001,,,,,,,,2,Slow,h,0,2.2087,6,2,26,3,1,,,,,
,0.16,,,,,,,,,j.PNG,j,6111299ba7aede3df217d7fe,2021-10-19_13h06.39.643,forced_choiceRT,2021.1.2,MacIntel,60.0024001,,,,,,,,2,Fast,j,1,1.2837,6,3,27,3,1,,,,,
,0.64,,,,,,,,,f.PNG,f,6111299ba7aede3df217d7fe,2021-10-19_13h06.39.643,forced_choiceRT,2021.1.2,MacIntel,60.0024001,,,,,,,,2,Ontime,f,1,1.9625,7,0,28,0,1,,,,,
,1.01,,,,,,,,,h.PNG,h,6111299ba7aede3df217d7fe,2021-10-19_13h06.39.643,forced_choiceRT,2021.1.2,MacIntel,60.0024001,,,,,,,,2,Slow,h,1,2.1497,7,1,29,2,1,,,,,
,1.22,,,,,,,,,j.PNG,j,6111299ba7aede3df217d7fe,2021-10-19_13h06.39.643,forced_choiceRT,2021.1.2,MacIntel,60.0024001,,,,,,,,2,Ontime,j,1,2.0671,7,2,30,3,1,,,,,
,1.28,,,,,,,,,h.PNG,h,6111299ba7aede3df217d7fe,2021-10-19_13h06.39.643,forced_choiceRT,2021.1.2,MacIntel,60.0024001,,,,,,,,2,Ontime,h,1,2.0987,7,3,31,2,1,,,,,
,0.85,,,,,,,,,g.PNG,g,6111299ba7aede3df217d7fe,2021-10-19_13h06.39.643,forced_choiceRT,2021.1.2,MacIntel,60.0024001,,,,,,,,2,Slow,g,1,2.3149,8,0,32,1,1,,,,,
,0.19,,,,,,,,,h.PNG,h,6111299ba7aede3df217d7fe,2021-10-19_13h06.39.643,forced_choiceRT,2021.1.2,MacIntel,60.0024001,,,,,,,,2,Fast,h,1,1.796,8,1,33,2,1,,,,,
,0.96,,,,,,,,,g.PNG,g,6111299ba7aede3df217d7fe,2021-10-19_13h06.39.643,forced_choiceRT,2021.1.2,MacIntel,60.0024001,,,,,,,,2,Slow,g,1,2.2118,8,2,34,1,1,,,,,
,1.8,,,,,,,,,g.PNG,g,6111299ba7aede3df217d7fe,2021-10-19_13h06.39.643,forced_choiceRT,2021.1.2,MacIntel,60.0024001,,,,,,,,2,Slow,h,0,2.214,8,3,35,1,1,,,,,
,1.33,,,,,,,,,g.PNG,g,6111299ba7aede3df217d7fe,2021-10-19_13h06.39.643,forced_choiceRT,2021.1.2,MacIntel,60.0024001,,,,,,,,2,Slow,g,1,2.1202,9,0,36,1,1,,,,,
,1.29,,,,,,,,,j.PNG,j,6111299ba7aede3df217d7fe,2021-10-19_13h06.39.643,forced_choiceRT,2021.1.2,MacIntel,60.0024001,,,,,,,,2,Ontime,j,1,1.996,9,1,37,3,1,,,,,
,1.08,,,,,,,,,j.PNG,j,6111299ba7aede3df217d7fe,2021-10-19_13h06.39.643,forced_choiceRT,2021.1.2,MacIntel,60.0024001,,,,,,,,2,Ontime,j,1,2.0439,9,2,38,3,1,,,,,
,1.1,,,,,,,,,h.PNG,h,6111299ba7aede3df217d7fe,2021-10-19_13h06.39.643,forced_choiceRT,2021.1.2,MacIntel,60.0024001,,,,,,,,2,Slow,h,1,2.2642,9,3,39,2,1,,,,,
,,,,,,,,,,,,6111299ba7aede3df217d7fe,2021-10-19_13h06.39.643,forced_choiceRT,2021.1.2,MacIntel,60.0024001,,,,,,,,,,,,,,,,,,1,0,1,0,1
,0.78,,,,,,,,,g.PNG,g,6111299ba7aede3df217d7fe,2021-10-19_13h06.39.643,forced_choiceRT,2021.1.2,MacIntel,60.0024001,,,,,,,,3,Slow,j,0,2.2819,0,0,0,1,1,,,,,
,1.29,,,,,,,,,f.PNG,f,6111299ba7aede3df217d7fe,2021-10-19_13h06.39.643,forced_choiceRT,2021.1.2,MacIntel,60.0024001,,,,,,,,3,Ontime,f,1,1.9095,0,1,1,0,1,,,,,
,0.21,,,,,,,,,g.PNG,g,6111299ba7aede3df217d7fe,2021-10-19_13h06.39.643,forced_choiceRT,2021.1.2,MacIntel,60.0024001,,,,,,,,3,Fast,g,1,1.8173,0,2,2,1,1,,,,,
,1.27,,,,,,,,,f.PNG,f,6111299ba7aede3df217d7fe,2021-10-19_13h06.39.643,forced_choiceRT,2021.1.2,MacIntel,60.0024001,,,,,,,,3,Slow,j,0,2.1311,0,3,3,0,1,,,,,
,0.59,,,,,,,,,j.PNG,j,6111299ba7aede3df217d7fe,2021-10-19_13h06.39.643,forced_choiceRT,2021.1.2,MacIntel,60.0024001,,,,,,,,3,Ontime,h,0,2.0246,1,0,4,3,1,,,,,
,0.43,,,,,,,,,h.PNG,h,6111299ba7aede3df217d7fe,2021-10-19_13h06.39.643,forced_choiceRT,2021.1.2,MacIntel,60.0024001,,,,,,,,3,Fast,g,0,1.76,1,1,5,2,1,,,,,
,1.59,,,,,,,,,h.PNG,h,6111299ba7aede3df217d7fe,2021-10-19_13h06.39.643,forced_choiceRT,2021.1.2,MacIntel,60.0024001,,,,,,,,3,Ontime,h,1,1.9642,1,2,6,2,1,,,,,
,1.2,,,,,,,,,f.PNG,f,6111299ba7aede3df217d7fe,2021-10-19_13h06.39.643,forced_choiceRT,2021.1.2,MacIntel,60.0024001,,,,,,,,3,Fast,f,1,1.8205,1,3,7,0,1,,,,,
,1.5,,,,,,,,,f.PNG,f,6111299ba7aede3df217d7fe,2021-10-19_13h06.39.643,forced_choiceRT,2021.1.2,MacIntel,60.0024001,,,,,,,,3,Ontime,f,1,1.9495,2,0,8,0,1,,,,,
,1.25,,,,,,,,,j.PNG,j,6111299ba7aede3df217d7fe,2021-10-19_13h06.39.643,forced_choiceRT,2021.1.2,MacIntel,60.0024001,,,,,,,,3,Ontime,j,1,1.9289,2,1,9,3,1,,,,,
,0.9,,,,,,,,,g.PNG,g,6111299ba7aede3df217d7fe,2021-10-19_13h06.39.643,forced_choiceRT,2021.1.2,MacIntel,60.0024001,,,,,,,,3,Fast,j,0,1.8452,2,2,10,1,1,,,,,
,1.33,,,,,,,,,f.PNG,f,6111299ba7aede3df217d7fe,2021-10-19_13h06.39.643,forced_choiceRT,2021.1.2,MacIntel,60.0024001,,,,,,,,3,Ontime,f,1,2.0118,2,3,11,0,1,,,,,
,0.45,,,,,,,,,j.PNG,j,6111299ba7aede3df217d7fe,2021-10-19_13h06.39.643,forced_choiceRT,2021.1.2,MacIntel,60.0024001,,,,,,,,3,Slow,h,0,2.2,3,0,12,3,1,,,,,
,0.27,,,,,,,,,h.PNG,h,6111299ba7aede3df217d7fe,2021-10-19_13h06.39.643,forced_choiceRT,2021.1.2,MacIntel,60.0024001,,,,,,,,3,Slow,j,0,2.1834,3,1,13,2,1,,,,,
,0.17,,,,,,,,,f.PNG,f,6111299ba7aede3df217d7fe,2021-10-19_13h06.39.643,forced_choiceRT,2021.1.2,MacIntel,60.0024001,,,,,,,,3,Ontime,f,1,1.9338,3,2,14,0,1,,,,,
,1.78,,,,,,,,,g.PNG,g,6111299ba7aede3df217d7fe,2021-10-19_13h06.39.643,forced_choiceRT,2021.1.2,MacIntel,60.0024001,,,,,,,,3,Ontime,f,0,1.9085,3,3,15,1,1,,,,,
,1.73,,,,,,,,,j.PNG,j,6111299ba7aede3df217d7fe,2021-10-19_13h06.39.643,forced_choiceRT,2021.1.2,MacIntel,60.0024001,,,,,,,,3,Slow,h,0,2.2123,4,0,16,3,1,,,,,
,1.36,,,,,,,,,g.PNG,g,6111299ba7aede3df217d7fe,2021-10-19_13h06.39.643,forced_choiceRT,2021.1.2,MacIntel,60.0024001,,,,,,,,3,Ontime,f,0,1.982,4,1,17,1,1,,,,,
,0.77,,,,,,,,,f.PNG,f,6111299ba7aede3df217d7fe,2021-10-19_13h06.39.643,forced_choiceRT,2021.1.2,MacIntel,60.0024001,,,,,,,,3,Ontime,f,1,2.0176,4,2,18,0,1,,,,,
,0.1,,,,,,,,,f.PNG,f,6111299ba7aede3df217d7fe,2021-10-19_13h06.39.643,forced_choiceRT,2021.1.2,MacIntel,60.0024001,,,,,,,,3,Fast,f,1,1.676,4,3,19,0,1,,,,,
,1.49,,,,,,,,,j.PNG,j,6111299ba7aede3df217d7fe,2021-10-19_13h06.39.643,forced_choiceRT,2021.1.2,MacIntel,60.0024001,,,,,,,,3,Ontime,f,0,1.9384,5,0,20,3,1,,,,,
,0.47,,,,,,,,,g.PNG,g,6111299ba7aede3df217d7fe,2021-10-19_13h06.39.643,forced_choiceRT,2021.1.2,MacIntel,60.0024001,,,,,,,,3,Ontime,h,0,2.0986,5,1,21,1,1,,,,,
,1.54,,,,,,,,,h.PNG,h,6111299ba7aede3df217d7fe,2021-10-19_13h06.39.643,forced_choiceRT,2021.1.2,MacIntel,60.0024001,,,,,,,,3,Fast,h,1,1.8531,5,2,22,2,1,,,,,
,0.8,,,,,,,,,h.PNG,h,6111299ba7aede3df217d7fe,2021-10-19_13h06.39.643,forced_choiceRT,2021.1.2,MacIntel,60.0024001,,,,,,,,3,Fast,h,1,1.8483,5,3,23,2,1,,,,,
,1.91,,,,,,,,,j.PNG,j,6111299ba7aede3df217d7fe,2021-10-19_13h06.39.643,forced_choiceRT,2021.1.2,MacIntel,60.0024001,,,,,,,,3,Ontime,h,0,2.0996,6,0,24,3,1,,,,,
,0.68,,,,,,,,,j.PNG,j,6111299ba7aede3df217d7fe,2021-10-19_13h06.39.643,forced_choiceRT,2021.1.2,MacIntel,60.0024001,,,,,,,,3,Ontime,h,0,1.926,6,1,25,3,1,,,,,
,1.59,,,,,,,,,j.PNG,j,6111299ba7aede3df217d7fe,2021-10-19_13h06.39.643,forced_choiceRT,2021.1.2,MacIntel,60.0024001,,,,,,,,3,Slow,h,0,2.3078,6,2,26,3,1,,,,,
,1.13,,,,,,,,,g.PNG,g,6111299ba7aede3df217d7fe,2021-10-19_13h06.39.643,forced_choiceRT,2021.1.2,MacIntel,60.0024001,,,,,,,,3,Fast,h,0,1.797,6,3,27,1,1,,,,,
,0.08,,,,,,,,,f.PNG,f,6111299ba7aede3df217d7fe,2021-10-19_13h06.39.643,forced_choiceRT,2021.1.2,MacIntel,60.0024001,,,,,,,,3,Ontime,h,0,1.9668,7,0,28,0,1,,,,,
,1.47,,,,,,,,,h.PNG,h,6111299ba7aede3df217d7fe,2021-10-19_13h06.39.643,forced_choiceRT,2021.1.2,MacIntel,60.0024001,,,,,,,,3,Ontime,h,1,1.9625,7,1,29,2,1,,,,,
,1.12,,,,,,,,,h.PNG,h,6111299ba7aede3df217d7fe,2021-10-19_13h06.39.643,forced_choiceRT,2021.1.2,MacIntel,60.0024001,,,,,,,,3,Ontime,h,1,1.9751,7,2,30,2,1,,,,,
,0.84,,,,,,,,,h.PNG,h,6111299ba7aede3df217d7fe,2021-10-19_13h06.39.643,forced_choiceRT,2021.1.2,MacIntel,60.0024001,,,,,,,,3,Slow,h,1,2.3119,7,3,31,2,1,,,,,
,1.18,,,,,,,,,g.PNG,g,6111299ba7aede3df217d7fe,2021-10-19_13h06.39.643,forced_choiceRT,2021.1.2,MacIntel,60.0024001,,,,,,,,3,Fast,f,0,1.8169,8,0,32,1,1,,,,,
,1.03,,,,,,,,,h.PNG,h,6111299ba7aede3df217d7fe,2021-10-19_13h06.39.643,forced_choiceRT,2021.1.2,MacIntel,60.0024001,,,,,,,,3,Slow,h,1,2.1383,8,1,33,2,1,,,,,
,1.36,,,,,,,,,h.PNG,h,6111299ba7aede3df217d7fe,2021-10-19_13h06.39.643,forced_choiceRT,2021.1.2,MacIntel,60.0024001,,,,,,,,3,Fast,h,1,1.8481,8,2,34,2,1,,,,,
,1.92,,,,,,,,,j.PNG,j,6111299ba7aede3df217d7fe,2021-10-19_13h06.39.643,forced_choiceRT,2021.1.2,MacIntel,60.0024001,,,,,,,,3,Slow,g,0,2.1499,8,3,35,3,1,,,,,
,1.56,,,,,,,,,g.PNG,g,6111299ba7aede3df217d7fe,2021-10-19_13h06.39.643,forced_choiceRT,2021.1.2,MacIntel,60.0024001,,,,,,,,3,Ontime,h,0,1.937,9,0,36,1,1,,,,,
,1.81,,,,,,,,,j.PNG,j,6111299ba7aede3df217d7fe,2021-10-19_13h06.39.643,forced_choiceRT,2021.1.2,MacIntel,60.0024001,,,,,,,,3,Fast,g,0,1.5329,9,1,37,3,1,,,,,
,1.19,,,,,,,,,f.PNG,f,6111299ba7aede3df217d7fe,2021-10-19_13h06.39.643,forced_choiceRT,2021.1.2,MacIntel,60.0024001,,,,,,,,3,Slow,f,1,2.2144,9,2,38,0,1,,,,,
,1.08,,,,,,,,,g.PNG,g,6111299ba7aede3df217d7fe,2021-10-19_13h06.39.643,forced_choiceRT,2021.1.2,MacIntel,60.0024001,,,,,,,,3,Ontime,g,1,2.0628,9,3,39,1,1,,,,,
,,,,,,,,,,,,6111299ba7aede3df217d7fe,2021-10-19_13h06.39.643,forced_choiceRT,2021.1.2,MacIntel,60.0024001,,,,,,,,,,,,,,,,,,2,0,2,0,1
,0.71,,,,,,,,,h.PNG,h,6111299ba7aede3df217d7fe,2021-10-19_13h06.39.643,forced_choiceRT,2021.1.2,MacIntel,60.0024001,,,,,,,,4,Fast,h,1,1.8325,0,0,0,2,1,,,,,
,0.89,,,,,,,,,f.PNG,f,6111299ba7aede3df217d7fe,2021-10-19_13h06.39.643,forced_choiceRT,2021.1.2,MacIntel,60.0024001,,,,,,,,4,Fast,f,1,1.8094,0,1,1,0,1,,,,,
,1.96,,,,,,,,,g.PNG,g,6111299ba7aede3df217d7fe,2021-10-19_13h06.39.643,forced_choiceRT,2021.1.2,MacIntel,60.0024001,,,,,,,,4,Slow,f,0,2.1531,0,2,2,1,1,,,,,
,0.69,,,,,,,,,j.PNG,j,6111299ba7aede3df217d7fe,2021-10-19_13h06.39.643,forced_choiceRT,2021.1.2,MacIntel,60.0024001,,,,,,,,4,Ontime,j,1,1.9628,0,3,3,3,1,,,,,
,1.88,,,,,,,,,j.PNG,j,6111299ba7aede3df217d7fe,2021-10-19_13h06.39.643,forced_choiceRT,2021.1.2,MacIntel,60.0024001,,,,,,,,4,Ontime,j,1,2.0506,1,0,4,3,1,,,,,
,0.12,,,,,,,,,j.PNG,j,6111299ba7aede3df217d7fe,2021-10-19_13h06.39.643,forced_choiceRT,2021.1.2,MacIntel,60.0024001,,,,,,,,4,Ontime,j,1,1.9102,1,1,5,3,1,,,,,
,1.5,,,,,,,,,j.PNG,j,6111299ba7aede3df217d7fe,2021-10-19_13h06.39.643,forced_choiceRT,2021.1.2,MacIntel,60.0024001,,,,,,,,4,Ontime,j,1,2.0302,1,2,6,3,1,,,,,
,0.55,,,,,,,,,f.PNG,f,6111299ba7aede3df217d7fe,2021-10-19_13h06.39.643,forced_choiceRT,2021.1.2,MacIntel,60.0024001,,,,,,,,4,Ontime,f,1,1.9586,1,3,7,0,1,,,,,
,1.08,,,,,,,,,f.PNG,f,6111299ba7aede3df217d7fe,2021-10-19_13h06.39.643,forced_choiceRT,2021.1.2,MacIntel,60.0024001,,,,,,,,4,Slow,f,1,2.1098,2,0,8,0,1,,,,,
,0.05,,,,,,,,,h.PNG,h,6111299ba7aede3df217d7fe,2021-10-19_13h06.39.643,forced_choiceRT,2021.1.2,MacIntel,60.0024001,,,,,,,,4,Ontime,h,1,2.0942,2,1,9,2,1,,,,,
,0.43,,,,,,,,,g.PNG,g,6111299ba7aede3df217d7fe,2021-10-19_13h06.39.643,forced_choiceRT,2021.1.2,MacIntel,60.0024001,,,,,,,,4,Ontime,g,1,2.0822,2,2,10,1,1,,,,,
,0.89,,,,,,,,,g.PNG,g,6111299ba7aede3df217d7fe,2021-10-19_13h06.39.643,forced_choiceRT,2021.1.2,MacIntel,60.0024001,,,,,,,,4,Slow,g,1,2.1498,2,3,11,1,1,,,,,
,0.43,,,,,,,,,g.PNG,g,6111299ba7aede3df217d7fe,2021-10-19_13h06.39.643,forced_choiceRT,2021.1.2,MacIntel,60.0024001,,,,,,,,4,Ontime,g,1,2.0692,3,0,12,1,1,,,,,
,0.75,,,,,,,,,f.PNG,f,6111299ba7aede3df217d7fe,2021-10-19_13h06.39.643,forced_choiceRT,2021.1.2,MacIntel,60.0024001,,,,,,,,4,Slow,f,1,2.2835,3,1,13,0,1,,,,,
,1.04,,,,,,,,,f.PNG,f,6111299ba7aede3df217d7fe,2021-10-19_13h06.39.643,forced_choiceRT,2021.1.2,MacIntel,60.0024001,,,,,,,,4,Ontime,f,1,2.0597,3,2,14,0,1,,,,,
,0.31,,,,,,,,,j.PNG,j,6111299ba7aede3df217d7fe,2021-10-19_13h06.39.643,forced_choiceRT,2021.1.2,MacIntel,60.0024001,,,,,,,,4,Ontime,j,1,1.9627,3,3,15,3,1,,,,,
,1.49,,,,,,,,,g.PNG,g,6111299ba7aede3df217d7fe,2021-10-19_13h06.39.643,forced_choiceRT,2021.1.2,MacIntel,60.0024001,,,,,,,,4,Ontime,f,0,1.964,4,0,16,1,1,,,,,
,0.17,,,,,,,,,j.PNG,j,6111299ba7aede3df217d7fe,2021-10-19_13h06.39.643,forced_choiceRT,2021.1.2,MacIntel,60.0024001,,,,,,,,4,Fast,j,1,1.8933,4,1,17,3,1,,,,,
,0.28,,,,,,,,,j.PNG,j,6111299ba7aede3df217d7fe,2021-10-19_13h06.39.643,forced_choiceRT,2021.1.2,MacIntel,60.0024001,,,,,,,,4,Ontime,j,1,2.0968,4,2,18,3,1,,,,,
,1.43,,,,,,,,,f.PNG,f,6111299ba7aede3df217d7fe,2021-10-19_13h06.39.643,forced_choiceRT,2021.1.2,MacIntel,60.0024001,,,,,,,,4,Slow,f,1,2.2314,4,3,19,0,1,,,,,
,0.12,,,,,,,,,f.PNG,f,6111299ba7aede3df217d7fe,2021-10-19_13h06.39.643,forced_choiceRT,2021.1.2,MacIntel,60.0024001,,,,,,,,4,Fast,f,1,1.711,5,0,20,0,1,,,,,
,1.52,,,,,,,,,f.PNG,f,6111299ba7aede3df217d7fe,2021-10-19_13h06.39.643,forced_choiceRT,2021.1.2,MacIntel,60.0024001,,,,,,,,4,Ontime,f,1,2.0144,5,1,21,0,1,,,,,
,0.91,,,,,,,,,g.PNG,g,6111299ba7aede3df217d7fe,2021-10-19_13h06.39.643,forced_choiceRT,2021.1.2,MacIntel,60.0024001,,,,,,,,4,Slow,g,1,2.1635,5,2,22,1,1,,,,,
,0.29,,,,,,,,,h.PNG,h,6111299ba7aede3df217d7fe,2021-10-19_13h06.39.643,forced_choiceRT,2021.1.2,MacIntel,60.0024001,,,,,,,,4,Ontime,j,0,1.9056,5,3,23,2,1,,,,,
,1.71,,,,,,,,,g.PNG,g,6111299ba7aede3df217d7fe,2021-10-19_13h06.39.643,forced_choiceRT,2021.1.2,MacIntel,60.0024001,,,,,,,,4,Ontime,g,1,2.0991,6,0,24,1,1,,,,,
,1.15,,,,,,,,,h.PNG,h,6111299ba7aede3df217d7fe,2021-10-19_13h06.39.643,forced_choiceRT,2021.1.2,MacIntel,60.0024001,,,,,,,,4,Slow,h,1,4.2995,6,1,25,2,1,,,,,
,0.09,,,,,,,,,j.PNG,j,6111299ba7aede3df217d7fe,2021-10-19_13h06.39.643,forced_choiceRT,2021.1.2,MacIntel,60.0024001,,,,,,,,4,Fast,g,0,1.7958,6,2,26,3,1,,,,,
,1.24,,,,,,,,,g.PNG,g,6111299ba7aede3df217d7fe,2021-10-19_13h06.39.643,forced_choiceRT,2021.1.2,MacIntel,60.0024001,,,,,,,,4,Ontime,g,1,1.987,6,3,27,1,1,,,,,
,0.18,,,,,,,,,h.PNG,h,6111299ba7aede3df217d7fe,2021-10-19_13h06.39.643,forced_choiceRT,2021.1.2,MacIntel,60.0024001,,,,,,,,4,Fast,h,1,1.7804,7,0,28,2,1,,,,,
,0.13,,,,,,,,,j.PNG,j,6111299ba7aede3df217d7fe,2021-10-19_13h06.39.643,forced_choiceRT,2021.1.2,MacIntel,60.0024001,,,,,,,,4,Slow,j,1,2.1842,7,1,29,3,1,,,,,
,0.09,,,,,,,,,h.PNG,h,6111299ba7aede3df217d7fe,2021-10-19_13h06.39.643,forced_choiceRT,2021.1.2,MacIntel,60.0024001,,,,,,,,4,Ontime,j,0,1.9255,7,2,30,2,1,,,,,
,1.33,,,,,,,,,h.PNG,h,6111299ba7aede3df217d7fe,2021-10-19_13h06.39.643,forced_choiceRT,2021.1.2,MacIntel,60.0024001,,,,,,,,4,Ontime,f,0,1.9636,7,3,31,2,1,,,,,
,1.18,,,,,,,,,h.PNG,h,6111299ba7aede3df217d7fe,2021-10-19_13h06.39.643,forced_choiceRT,2021.1.2,MacIntel,60.0024001,,,,,,,,4,Fast,j,0,1.6332,8,0,32,2,1,,,,,
,0.93,,,,,,,,,g.PNG,g,6111299ba7aede3df217d7fe,2021-10-19_13h06.39.643,forced_choiceRT,2021.1.2,MacIntel,60.0024001,,,,,,,,4,Ontime,g,1,1.9292,8,1,33,1,1,,,,,
,0.92,,,,,,,,,g.PNG,g,6111299ba7aede3df217d7fe,2021-10-19_13h06.39.643,forced_choiceRT,2021.1.2,MacIntel,60.0024001,,,,,,,,4,Slow,g,1,2.1455,8,2,34,1,1,,,,,
,1,,,,,,,,,f.PNG,f,6111299ba7aede3df217d7fe,2021-10-19_13h06.39.643,forced_choiceRT,2021.1.2,MacIntel,60.0024001,,,,,,,,4,Ontime,f,1,1.9272,8,3,35,0,1,,,,,
,1.72,,,,,,,,,h.PNG,h,6111299ba7aede3df217d7fe,2021-10-19_13h06.39.643,forced_choiceRT,2021.1.2,MacIntel,60.0024001,,,,,,,,4,Ontime,f,0,2.0476,9,0,36,2,1,,,,,
,0.82,,,,,,,,,j.PNG,j,6111299ba7aede3df217d7fe,2021-10-19_13h06.39.643,forced_choiceRT,2021.1.2,MacIntel,60.0024001,,,,,,,,4,Fast,j,1,1.5303,9,1,37,3,1,,,,,
,0.19,,,,,,,,,h.PNG,h,6111299ba7aede3df217d7fe,2021-10-19_13h06.39.643,forced_choiceRT,2021.1.2,MacIntel,60.0024001,,,,,,,,4,Ontime,h,1,2.0344,9,2,38,2,1,,,,,
,1.41,,,,,,,,,f.PNG,f,6111299ba7aede3df217d7fe,2021-10-19_13h06.39.643,forced_choiceRT,2021.1.2,MacIntel,60.0024001,,,,,,,,4,Fast,h,0,1.865,9,3,39,0,1,,,,,
,,,,,,,,,,,,6111299ba7aede3df217d7fe,2021-10-19_13h06.39.643,forced_choiceRT,2021.1.2,MacIntel,60.0024001,,,,,,,,,,,,,,,,,,3,0,3,0,1
,1.11,,,,,,,,,j.PNG,j,6111299ba7aede3df217d7fe,2021-10-19_13h06.39.643,forced_choiceRT,2021.1.2,MacIntel,60.0024001,,,,,,,,5,Fast,j,1,1.7486,0,0,0,3,1,,,,,
,0.95,,,,,,,,,j.PNG,j,6111299ba7aede3df217d7fe,2021-10-19_13h06.39.643,forced_choiceRT,2021.1.2,MacIntel,60.0024001,,,,,,,,5,Ontime,h,0,2.0427,0,1,1,3,1,,,,,
,0.66,,,,,,,,,h.PNG,h,6111299ba7aede3df217d7fe,2021-10-19_13h06.39.643,forced_choiceRT,2021.1.2,MacIntel,60.0024001,,,,,,,,5,Ontime,j,0,1.9986,0,2,2,2,1,,,,,
,0.97,,,,,,,,,f.PNG,f,6111299ba7aede3df217d7fe,2021-10-19_13h06.39.643,forced_choiceRT,2021.1.2,MacIntel,60.0024001,,,,,,,,5,Fast,f,1,1.7774,0,3,3,0,1,,,,,
,1.56,,,,,,,,,j.PNG,j,6111299ba7aede3df217d7fe,2021-10-19_13h06.39.643,forced_choiceRT,2021.1.2,MacIntel,60.0024001,,,,,,,,5,Ontime,h,0,1.9268,1,0,4,3,1,,,,,
,1.7,,,,,,,,,j.PNG,j,6111299ba7aede3df217d7fe,2021-10-19_13h06.39.643,forced_choiceRT,2021.1.2,MacIntel,60.0024001,,,,,,,,5,Ontime,j,1,2.0174,1,1,5,3,1,,,,,
,1.19,,,,,,,,,f.PNG,f,6111299ba7aede3df217d7fe,2021-10-19_13h06.39.643,forced_choiceRT,2021.1.2,MacIntel,60.0024001,,,,,,,,5,Fast,f,1,1.8647,1,2,6,0,1,,,,,
,0.16,,,,,,,,,g.PNG,g,6111299ba7aede3df217d7fe,2021-10-19_13h06.39.643,forced_choiceRT,2021.1.2,MacIntel,60.0024001,,,,,,,,5,Fast,g,1,1.7837,1,3,7,1,1,,,,,
,0.69,,,,,,,,,j.PNG,j,6111299ba7aede3df217d7fe,2021-10-19_13h06.39.643,forced_choiceRT,2021.1.2,MacIntel,60.0024001,,,,,,,,5,Ontime,j,1,1.9928,2,0,8,3,1,,,,,
,0.79,,,,,,,,,h.PNG,h,6111299ba7aede3df217d7fe,2021-10-19_13h06.39.643,forced_choiceRT,2021.1.2,MacIntel,60.0024001,,,,,,,,5,Ontime,h,1,2.0647,2,1,9,2,1,,,,,
,1.69,,,,,,,,,h.PNG,h,6111299ba7aede3df217d7fe,2021-10-19_13h06.39.643,forced_choiceRT,2021.1.2,MacIntel,60.0024001,,,,,,,,5,Slow,g,0,2.4705,2,2,10,2,1,,,,,
,1.66,,,,,,,,,f.PNG,f,6111299ba7aede3df217d7fe,2021-10-19_13h06.39.643,forced_choiceRT,2021.1.2,MacIntel,60.0024001,,,,,,,,5,Ontime,g,0,2.0023,2,3,11,0,1,,,,,
,1.53,,,,,,,,,g.PNG,g,6111299ba7aede3df217d7fe,2021-10-19_13h06.39.643,forced_choiceRT,2021.1.2,MacIntel,60.0024001,,,,,,,,5,Fast,f,0,1.866,3,0,12,1,1,,,,,
,0.63,,,,,,,,,f.PNG,f,6111299ba7aede3df217d7fe,2021-10-19_13h06.39.643,forced_choiceRT,2021.1.2,MacIntel,60.0024001,,,,,,,,5,Ontime,f,1,1.9285,3,1,13,0,1,,,,,
,1.75,,,,,,,,,g.PNG,g,6111299ba7aede3df217d7fe,2021-10-19_13h06.39.643,forced_choiceRT,2021.1.2,MacIntel,60.0024001,,,,,,,,5,Ontime,f,0,2.0317,3,2,14,1,1,,,,,
,0.46,,,,,,,,,g.PNG,g,6111299ba7aede3df217d7fe,2021-10-19_13h06.39.643,forced_choiceRT,2021.1.2,MacIntel,60.0024001,,,,,,,,5,Slow,g,1,2.1183,3,3,15,1,1,,,,,
,1.24,,,,,,,,,j.PNG,j,6111299ba7aede3df217d7fe,2021-10-19_13h06.39.643,forced_choiceRT,2021.1.2,MacIntel,60.0024001,,,,,,,,5,Ontime,j,1,1.9816,4,0,16,3,1,,,,,
,1.94,,,,,,,,,g.PNG,g,6111299ba7aede3df217d7fe,2021-10-19_13h06.39.643,forced_choiceRT,2021.1.2,MacIntel,60.0024001,,,,,,,,5,Slow,h,0,3.2475,4,1,17,1,1,,,,,
,0.31,,,,,,,,,j.PNG,j,6111299ba7aede3df217d7fe,2021-10-19_13h06.39.643,forced_choiceRT,2021.1.2,MacIntel,60.0024001,,,,,,,,5,Fast,j,1,1.8471,4,2,18,3,1,,,,,
,0.32,,,,,,,,,h.PNG,h,6111299ba7aede3df217d7fe,2021-10-19_13h06.39.643,forced_choiceRT,2021.1.2,MacIntel,60.0024001,,,,,,,,5,Fast,j,0,1.86,4,3,19,2,1,,,,,
,0.83,,,,,,,,,h.PNG,h,6111299ba7aede3df217d7fe,2021-10-19_13h06.39.643,forced_choiceRT,2021.1.2,MacIntel,60.0024001,,,,,,,,5,Ontime,j,0,1.9305,5,0,20,2,1,,,,,
,1.83,,,,,,,,,f.PNG,f,6111299ba7aede3df217d7fe,2021-10-19_13h06.39.643,forced_choiceRT,2021.1.2,MacIntel,60.0024001,,,,,,,,5,Ontime,j,0,2.0832,5,1,21,0,1,,,,,
,0.61,,,,,,,,,g.PNG,g,6111299ba7aede3df217d7fe,2021-10-19_13h06.39.643,forced_choiceRT,2021.1.2,MacIntel,60.0024001,,,,,,,,5,Ontime,g,1,1.9254,5,2,22,1,1,,,,,
,1.33,,,,,,,,,h.PNG,h,6111299ba7aede3df217d7fe,2021-10-19_13h06.39.643,forced_choiceRT,2021.1.2,MacIntel,60.0024001,,,,,,,,5,Slow,j,0,2.1488,5,3,23,2,1,,,,,
,0.93,,,,,,,,,g.PNG,g,6111299ba7aede3df217d7fe,2021-10-19_13h06.39.643,forced_choiceRT,2021.1.2,MacIntel,60.0024001,,,,,,,,5,Fast,g,1,1.6432,6,0,24,1,1,,,,,
,0.15,,,,,,,,,j.PNG,j,6111299ba7aede3df217d7fe,2021-10-19_13h06.39.643,forced_choiceRT,2021.1.2,MacIntel,60.0024001,,,,,,,,5,Slow,h,0,2.1087,6,1,25,3,1,,,,,
,0.52,,,,,,,,,g.PNG,g,6111299ba7aede3df217d7fe,2021-10-19_13h06.39.643,forced_choiceRT,2021.1.2,MacIntel,60.0024001,,,,,,,,5,Slow,g,1,2.1665,6,2,26,1,1,,,,,
,1.96,,,,,,,,,f.PNG,f,6111299ba7aede3df217d7fe,2021-10-19_13h06.39.643,forced_choiceRT,2021.1.2,MacIntel,60.0024001,,,,,,,,5,Ontime,j,0,2.0996,6,3,27,0,1,,,,,
,0.66,,,,,,,,,f.PNG,f,6111299ba7aede3df217d7fe,2021-10-19_13h06.39.643,forced_choiceRT,2021.1.2,MacIntel,60.0024001,,,,,,,,5,Fast,f,1,1.196,7,0,28,0,1,,,,,
,1.46,,,,,,,,,h.PNG,h,6111299ba7aede3df217d7fe,2021-10-19_13h06.39.643,forced_choiceRT,2021.1.2,MacIntel,60.0024001,,,,,,,,5,Slow,j,0,2.1832,7,1,29,2,1,,,,,
,0.37,,,,,,,,,h.PNG,h,6111299ba7aede3df217d7fe,2021-10-19_13h06.39.643,forced_choiceRT,2021.1.2,MacIntel,60.0024001,,,,,,,,5,Fast,j,0,1.8009,7,2,30,2,1,,,,,
,1.12,,,,,,,,,j.PNG,j,6111299ba7aede3df217d7fe,2021-10-19_13h06.39.643,forced_choiceRT,2021.1.2,MacIntel,60.0024001,,,,,,,,5,Ontime,j,1,1.9177,7,3,31,3,1,,,,,
,0.64,,,,,,,,,h.PNG,h,6111299ba7aede3df217d7fe,2021-10-19_13h06.39.643,forced_choiceRT,2021.1.2,MacIntel,60.0024001,,,,,,,,5,Fast,j,0,1.8928,8,0,32,2,1,,,,,
,1.13,,,,,,,,,f.PNG,f,6111299ba7aede3df217d7fe,2021-10-19_13h06.39.643,forced_choiceRT,2021.1.2,MacIntel,60.0024001,,,,,,,,5,Fast,f,1,1.8282,8,1,33,0,1,,,,,
,0.1,,,,,,,,,g.PNG,g,6111299ba7aede3df217d7fe,2021-10-19_13h06.39.643,forced_choiceRT,2021.1.2,MacIntel,60.0024001,,,,,,,,5,Slow,g,1,2.3489,8,2,34,1,1,,,,,
,0.97,,,,,,,,,f.PNG,f,6111299ba7aede3df217d7fe,2021-10-19_13h06.39.643,forced_choiceRT,2021.1.2,MacIntel,60.0024001,,,,,,,,5,Fast,f,1,1.8314,8,3,35,0,1,,,,,
,1.02,,,,,,,,,j.PNG,j,6111299ba7aede3df217d7fe,2021-10-19_13h06.39.643,forced_choiceRT,2021.1.2,MacIntel,60.0024001,,,,,,,,5,Slow,h,0,2.1946,9,0,36,3,1,,,,,
,1.91,,,,,,,,,f.PNG,f,6111299ba7aede3df217d7fe,2021-10-19_13h06.39.643,forced_choiceRT,2021.1.2,MacIntel,60.0024001,,,,,,,,5,Slow,h,0,2.1475,9,1,37,0,1,,,,,
,1.96,,,,,,,,,h.PNG,h,6111299ba7aede3df217d7fe,2021-10-19_13h06.39.643,forced_choiceRT,2021.1.2,MacIntel,60.0024001,,,,,,,,5,Ontime,f,0,2.0821,9,2,38,2,1,,,,,
,0.93,,,,,,,,,g.PNG,g,6111299ba7aede3df217d7fe,2021-10-19_13h06.39.643,forced_choiceRT,2021.1.2,MacIntel,60.0024001,,,,,,,,5,Ontime,g,1,2.0996,9,3,39,1,1,,,,,
,,,,,,,,,,,,6111299ba7aede3df217d7fe,2021-10-19_13h06.39.643,forced_choiceRT,2021.1.2,MacIntel,60.0024001,,,,,,,,,,,,,,,,,,4,0,4,0,1
,0.76,,,,,,,,,g.PNG,g,6111299ba7aede3df217d7fe,2021-10-19_13h06.39.643,forced_choiceRT,2021.1.2,MacIntel,60.0024001,,,,,,,,6,Fast,h,0,1.8125,0,0,0,1,1,,,,,
,1.97,,,,,,,,,f.PNG,f,6111299ba7aede3df217d7fe,2021-10-19_13h06.39.643,forced_choiceRT,2021.1.2,MacIntel,60.0024001,,,,,,,,6,Slow,f,1,2.1974,0,1,1,0,1,,,,,
,1.99,,,,,,,,,f.PNG,f,6111299ba7aede3df217d7fe,2021-10-19_13h06.39.643,forced_choiceRT,2021.1.2,MacIntel,60.0024001,,,,,,,,6,Slow,f,1,5.1605,0,2,2,0,1,,,,,
,0.79,,,,,,,,,j.PNG,j,6111299ba7aede3df217d7fe,2021-10-19_13h06.39.643,forced_choiceRT,2021.1.2,MacIntel,60.0024001,,,,,,,,6,Ontime,j,1,1.9439,0,3,3,3,1,,,,,
,0.62,,,,,,,,,f.PNG,f,6111299ba7aede3df217d7fe,2021-10-19_13h06.39.643,forced_choiceRT,2021.1.2,MacIntel,60.0024001,,,,,,,,6,Slow,f,1,4.7496,1,0,4,0,1,,,,,
,1.4,,,,,,,,,g.PNG,g,6111299ba7aede3df217d7fe,2021-10-19_13h06.39.643,forced_choiceRT,2021.1.2,MacIntel,60.0024001,,,,,,,,6,Ontime,h,0,1.9605,1,1,5,1,1,,,,,
,0.03,,,,,,,,,f.PNG,f,6111299ba7aede3df217d7fe,2021-10-19_13h06.39.643,forced_choiceRT,2021.1.2,MacIntel,60.0024001,,,,,,,,6,Ontime,f,1,2.002,1,2,6,0,1,,,,,
,1.12,,,,,,,,,j.PNG,j,6111299ba7aede3df217d7fe,2021-10-19_13h06.39.643,forced_choiceRT,2021.1.2,MacIntel,60.0024001,,,,,,,,6,Ontime,j,1,1.9151,1,3,7,3,1,,,,,
,1.23,,,,,,,,,g.PNG,g,6111299ba7aede3df217d7fe,2021-10-19_13h06.39.643,forced_choiceRT,2021.1.2,MacIntel,60.0024001,,,,,,,,6,Ontime,g,1,1.9996,2,0,8,1,1,,,,,
,0.59,,,,,,,,,g.PNG,g,6111299ba7aede3df217d7fe,2021-10-19_13h06.39.643,forced_choiceRT,2021.1.2,MacIntel,60.0024001,,,,,,,,6,Slow,g,1,2.1433,2,1,9,1,1,,,,,
,0.18,,,,,,,,,h.PNG,h,6111299ba7aede3df217d7fe,2021-10-19_13h06.39.643,forced_choiceRT,2021.1.2,MacIntel,60.0024001,,,,,,,,6,Fast,j,0,1.7095,2,2,10,2,1,,,,,
,1.57,,,,,,,,,h.PNG,h,6111299ba7aede3df217d7fe,2021-10-19_13h06.39.643,forced_choiceRT,2021.1.2,MacIntel,60.0024001,,,,,,,,6,Ontime,h,1,2.0228,2,3,11,2,1,,,,,
,1.93,,,,,,,,,j.PNG,j,6111299ba7aede3df217d7fe,2021-10-19_13h06.39.643,forced_choiceRT,2021.1.2,MacIntel,60.0024001,,,,,,,,6,Ontime,j,1,2.033,3,0,12,3,1,,,,,
,0.6,,,,,,,,,g.PNG,g,6111299ba7aede3df217d7fe,2021-10-19_13h06.39.643,forced_choiceRT,2021.1.2,MacIntel,60.0024001,,,,,,,,6,Ontime,g,1,1.9254,3,1,13,1,1,,,,,
,0.59,,,,,,,,,f.PNG,f,6111299ba7aede3df217d7fe,2021-10-19_13h06.39.643,forced_choiceRT,2021.1.2,MacIntel,60.0024001,,,,,,,,6,Fast,f,1,1.7958,3,2,14,0,1,,,,,
,0.99,,,,,,,,,g.PNG,g,6111299ba7aede3df217d7fe,2021-10-19_13h06.39.643,forced_choiceRT,2021.1.2,MacIntel,60.0024001,,,,,,,,6,Slow,f,0,2.1473,3,3,15,1,1,,,,,
,0.38,,,,,,,,,f.PNG,f,6111299ba7aede3df217d7fe,2021-10-19_13h06.39.643,forced_choiceRT,2021.1.2,MacIntel,60.0024001,,,,,,,,6,Fast,f,1,1.7988,4,0,16,0,1,,,,,
,0.18,,,,,,,,,h.PNG,h,6111299ba7aede3df217d7fe,2021-10-19_13h06.39.643,forced_choiceRT,2021.1.2,MacIntel,60.0024001,,,,,,,,6,Fast,j,0,1.8795,4,1,17,2,1,,,,,
,1.35,,,,,,,,,j.PNG,j,6111299ba7aede3df217d7fe,2021-10-19_13h06.39.643,forced_choiceRT,2021.1.2,MacIntel,60.0024001,,,,,,,,6,Slow,j,1,2.2991,4,2,18,3,1,,,,,
,0.79,,,,,,,,,h.PNG,h,6111299ba7aede3df217d7fe,2021-10-19_13h06.39.643,forced_choiceRT,2021.1.2,MacIntel,60.0024001,,,,,,,,6,Ontime,j,0,2.0792,4,3,19,2,1,,,,,
,0.12,,,,,,,,,j.PNG,j,6111299ba7aede3df217d7fe,2021-10-19_13h06.39.643,forced_choiceRT,2021.1.2,MacIntel,60.0024001,,,,,,,,6,Fast,h,0,1.8655,5,0,20,3,1,,,,,
,1.12,,,,,,,,,h.PNG,h,6111299ba7aede3df217d7fe,2021-10-19_13h06.39.643,forced_choiceRT,2021.1.2,MacIntel,60.0024001,,,,,,,,6,Ontime,j,0,2.0124,5,1,21,2,1,,,,,
,1.63,,,,,,,,,j.PNG,j,6111299ba7aede3df217d7fe,2021-10-19_13h06.39.643,forced_choiceRT,2021.1.2,MacIntel,60.0024001,,,,,,,,6,Ontime,j,1,1.9472,5,2,22,3,1,,,,,
,0.25,,,,,,,,,g.PNG,g,6111299ba7aede3df217d7fe,2021-10-19_13h06.39.643,forced_choiceRT,2021.1.2,MacIntel,60.0024001,,,,,,,,6,Fast,g,1,1.5602,5,3,23,1,1,,,,,
,1.98,,,,,,,,,h.PNG,h,6111299ba7aede3df217d7fe,2021-10-19_13h06.39.643,forced_choiceRT,2021.1.2,MacIntel,60.0024001,,,,,,,,6,Ontime,g,0,2.0256,6,0,24,2,1,,,,,
,0.5,,,,,,,,,f.PNG,f,6111299ba7aede3df217d7fe,2021-10-19_13h06.39.643,forced_choiceRT,2021.1.2,MacIntel,60.0024001,,,,,,,,6,Fast,f,1,1.7973,6,1,25,0,1,,,,,
,1.66,,,,,,,,,f.PNG,f,6111299ba7aede3df217d7fe,2021-10-19_13h06.39.643,forced_choiceRT,2021.1.2,MacIntel,60.0024001,,,,,,,,6,Ontime,f,1,2.003,6,2,26,0,1,,,,,
,0.55,,,,,,,,,h.PNG,h,6111299ba7aede3df217d7fe,2021-10-19_13h06.39.643,forced_choiceRT,2021.1.2,MacIntel,60.0024001,,,,,,,,6,Fast,j,0,1.8768,6,3,27,2,1,,,,,
,1.53,,,,,,,,,g.PNG,g,6111299ba7aede3df217d7fe,2021-10-19_13h06.39.643,forced_choiceRT,2021.1.2,MacIntel,60.0024001,,,,,,,,6,Slow,g,1,2.1808,7,0,28,1,1,,,,,
,0.67,,,,,,,,,g.PNG,g,6111299ba7aede3df217d7fe,2021-10-19_13h06.39.643,forced_choiceRT,2021.1.2,MacIntel,60.0024001,,,,,,,,6,Fast,g,1,1.8338,7,1,29,1,1,,,,,
,1.93,,,,,,,,,g.PNG,g,6111299ba7aede3df217d7fe,2021-10-19_13h06.39.643,forced_choiceRT,2021.1.2,MacIntel,60.0024001,,,,,,,,6,Ontime,g,1,2.0486,7,2,30,1,1,,,,,
,1.6,,,,,,,,,h.PNG,h,6111299ba7aede3df217d7fe,2021-10-19_13h06.39.643,forced_choiceRT,2021.1.2,MacIntel,60.0024001,,,,,,,,6,Slow,h,1,2.3031,7,3,31,2,1,,,,,
,1.52,,,,,,,,,h.PNG,h,6111299ba7aede3df217d7fe,2021-10-19_13h06.39.643,forced_choiceRT,2021.1.2,MacIntel,60.0024001,,,,,,,,6,Fast,j,0,1.8478,8,0,32,2,1,,,,,
,0.99,,,,,,,,,h.PNG,h,6111299ba7aede3df217d7fe,2021-10-19_13h06.39.643,forced_choiceRT,2021.1.2,MacIntel,60.0024001,,,,,,,,6,Fast,h,1,1.7999,8,1,33,2,1,,,,,
,1.09,,,,,,,,,j.PNG,j,6111299ba7aede3df217d7fe,2021-10-19_13h06.39.643,forced_choiceRT,2021.1.2,MacIntel,60.0024001,,,,,,,,6,Slow,h,0,2.1964,8,2,34,3,1,,,,,
,0.64,,,,,,,,,j.PNG,j,6111299ba7aede3df217d7fe,2021-10-19_13h06.39.643,forced_choiceRT,2021.1.2,MacIntel,60.0024001,,,,,,,,6,Ontime,h,0,1.9325,8,3,35,3,1,,,,,
,0.87,,,,,,,,,j.PNG,j,6111299ba7aede3df217d7fe,2021-10-19_13h06.39.643,forced_choiceRT,2021.1.2,MacIntel,60.0024001,,,,,,,,6,Ontime,h,0,1.9318,9,0,36,3,1,,,,,
,0.29,,,,,,,,,j.PNG,j,6111299ba7aede3df217d7fe,2021-10-19_13h06.39.643,forced_choiceRT,2021.1.2,MacIntel,60.0024001,,,,,,,,6,Fast,h,0,1.814,9,1,37,3,1,,,,,
,1.27,,,,,,,,,f.PNG,f,6111299ba7aede3df217d7fe,2021-10-19_13h06.39.643,forced_choiceRT,2021.1.2,MacIntel,60.0024001,,,,,,,,6,Ontime,f,1,2.0118,9,2,38,0,1,,,,,
,1.01,,,,,,,,,f.PNG,f,6111299ba7aede3df217d7fe,2021-10-19_13h06.39.643,forced_choiceRT,2021.1.2,MacIntel,60.0024001,,,,,,,,6,Ontime,f,1,1.9656,9,3,39,0,1,,,,,
,,,,,,,,,,,,6111299ba7aede3df217d7fe,2021-10-19_13h06.39.643,forced_choiceRT,2021.1.2,MacIntel,60.0024001,,,,,,,,,,,,,,,,,,5,0,5,0,1
,1.55,,,,,,,,,h.PNG,h,6111299ba7aede3df217d7fe,2021-10-19_13h06.39.643,forced_choiceRT,2021.1.2,MacIntel,60.0024001,,,,,,,,7,Slow,j,0,2.4167,0,0,0,2,1,,,,,
,0.3,,,,,,,,,h.PNG,h,6111299ba7aede3df217d7fe,2021-10-19_13h06.39.643,forced_choiceRT,2021.1.2,MacIntel,60.0024001,,,,,,,,7,Fast,j,0,1.7484,0,1,1,2,1,,,,,
,1.19,,,,,,,,,g.PNG,g,6111299ba7aede3df217d7fe,2021-10-19_13h06.39.643,forced_choiceRT,2021.1.2,MacIntel,60.0024001,,,,,,,,7,Ontime,g,1,2.0297,0,2,2,1,1,,,,,
,1.91,,,,,,,,,j.PNG,j,6111299ba7aede3df217d7fe,2021-10-19_13h06.39.643,forced_choiceRT,2021.1.2,MacIntel,60.0024001,,,,,,,,7,Slow,g,0,2.1969,0,3,3,3,1,,,,,
,0.64,,,,,,,,,g.PNG,g,6111299ba7aede3df217d7fe,2021-10-19_13h06.39.643,forced_choiceRT,2021.1.2,MacIntel,60.0024001,,,,,,,,7,Fast,f,0,1.5489,1,0,4,1,1,,,,,
,1.45,,,,,,,,,j.PNG,j,6111299ba7aede3df217d7fe,2021-10-19_13h06.39.643,forced_choiceRT,2021.1.2,MacIntel,60.0024001,,,,,,,,7,Slow,j,1,2.1925,1,1,5,3,1,,,,,
,1.42,,,,,,,,,g.PNG,g,6111299ba7aede3df217d7fe,2021-10-19_13h06.39.643,forced_choiceRT,2021.1.2,MacIntel,60.0024001,,,,,,,,7,Fast,j,0,1.8834,1,2,6,1,1,,,,,
,1.76,,,,,,,,,f.PNG,f,6111299ba7aede3df217d7fe,2021-10-19_13h06.39.643,forced_choiceRT,2021.1.2,MacIntel,60.0024001,,,,,,,,7,Ontime,f,1,2.0008,1,3,7,0,1,,,,,
,1.91,,,,,,,,,j.PNG,j,6111299ba7aede3df217d7fe,2021-10-19_13h06.39.643,forced_choiceRT,2021.1.2,MacIntel,60.0024001,,,,,,,,7,Slow,f,0,2.1294,2,0,8,3,1,,,,,
,0.51,,,,,,,,,h.PNG,h,6111299ba7aede3df217d7fe,2021-10-19_13h06.39.643,forced_choiceRT,2021.1.2,MacIntel,60.0024001,,,,,,,,7,Fast,j,0,1.8776,2,1,9,2,1,,,,,
,1.29,,,,,,,,,f.PNG,f,6111299ba7aede3df217d7fe,2021-10-19_13h06.39.643,forced_choiceRT,2021.1.2,MacIntel,60.0024001,,,,,,,,7,Slow,j,0,2.2726,2,2,10,0,1,,,,,
,1.4,,,,,,,,,g.PNG,g,6111299ba7aede3df217d7fe,2021-10-19_13h06.39.643,forced_choiceRT,2021.1.2,MacIntel,60.0024001,,,,,,,,7,Slow,f,0,2.2129,2,3,11,1,1,,,,,
,0.24,,,,,,,,,f.PNG,f,6111299ba7aede3df217d7fe,2021-10-19_13h06.39.643,forced_choiceRT,2021.1.2,MacIntel,60.0024001,,,,,,,,7,Ontime,f,1,2.0181,3,0,12,0,1,,,,,
,1.06,,,,,,,,,f.PNG,f,6111299ba7aede3df217d7fe,2021-10-19_13h06.39.643,forced_choiceRT,2021.1.2,MacIntel,60.0024001,,,,,,,,7,Ontime,f,1,1.9876,3,1,13,0,1,,,,,
,0.71,,,,,,,,,h.PNG,h,6111299ba7aede3df217d7fe,2021-10-19_13h06.39.643,forced_choiceRT,2021.1.2,MacIntel,60.0024001,,,,,,,,7,Ontime,j,0,1.9301,3,2,14,2,1,,,,,
,1.95,,,,,,,,,g.PNG,g,6111299ba7aede3df217d7fe,2021-10-19_13h06.39.643,forced_choiceRT,2021.1.2,MacIntel,60.0024001,,,,,,,,7,Slow,h,0,2.5468,3,3,15,1,1,,,,,
,1.71,,,,,,,,,f.PNG,f,6111299ba7aede3df217d7fe,2021-10-19_13h06.39.643,forced_choiceRT,2021.1.2,MacIntel,60.0024001,,,,,,,,7,Ontime,j,0,2.0495,4,0,16,0,1,,,,,
,1.65,,,,,,,,,j.PNG,j,6111299ba7aede3df217d7fe,2021-10-19_13h06.39.643,forced_choiceRT,2021.1.2,MacIntel,60.0024001,,,,,,,,7,Fast,j,1,1.6825,4,1,17,3,1,,,,,
,0.28,,,,,,,,,f.PNG,f,6111299ba7aede3df217d7fe,2021-10-19_13h06.39.643,forced_choiceRT,2021.1.2,MacIntel,60.0024001,,,,,,,,7,Fast,f,1,1.283,4,2,18,0,1,,,,,
,1.49,,,,,,,,,j.PNG,j,6111299ba7aede3df217d7fe,2021-10-19_13h06.39.643,forced_choiceRT,2021.1.2,MacIntel,60.0024001,,,,,,,,7,Ontime,j,1,2.0759,4,3,19,3,1,,,,,
,0.83,,,,,,,,,f.PNG,f,6111299ba7aede3df217d7fe,2021-10-19_13h06.39.643,forced_choiceRT,2021.1.2,MacIntel,60.0024001,,,,,,,,7,Ontime,f,1,1.9653,5,0,20,0,1,,,,,
,0.38,,,,,,,,,f.PNG,f,6111299ba7aede3df217d7fe,2021-10-19_13h06.39.643,forced_choiceRT,2021.1.2,MacIntel,60.0024001,,,,,,,,7,Fast,f,1,1.8204,5,1,21,0,1,,,,,
,1.26,,,,,,,,,g.PNG,g,6111299ba7aede3df217d7fe,2021-10-19_13h06.39.643,forced_choiceRT,2021.1.2,MacIntel,60.0024001,,,,,,,,7,Ontime,h,0,2.0806,5,2,22,1,1,,,,,
,1.95,,,,,,,,,h.PNG,h,6111299ba7aede3df217d7fe,2021-10-19_13h06.39.643,forced_choiceRT,2021.1.2,MacIntel,60.0024001,,,,,,,,7,Slow,f,0,2.2666,5,3,23,2,1,,,,,
,1.41,,,,,,,,,f.PNG,f,6111299ba7aede3df217d7fe,2021-10-19_13h06.39.643,forced_choiceRT,2021.1.2,MacIntel,60.0024001,,,,,,,,7,Fast,j,0,1.7829,6,0,24,0,1,,,,,
,0.97,,,,,,,,,j.PNG,j,6111299ba7aede3df217d7fe,2021-10-19_13h06.39.643,forced_choiceRT,2021.1.2,MacIntel,60.0024001,,,,,,,,7,Ontime,j,1,1.985,6,1,25,3,1,,,,,
,1.66,,,,,,,,,j.PNG,j,6111299ba7aede3df217d7fe,2021-10-19_13h06.39.643,forced_choiceRT,2021.1.2,MacIntel,60.0024001,,,,,,,,7,Ontime,j,1,1.9175,6,2,26,3,1,,,,,
,0.53,,,,,,,,,h.PNG,h,6111299ba7aede3df217d7fe,2021-10-19_13h06.39.643,forced_choiceRT,2021.1.2,MacIntel,60.0024001,,,,,,,,7,Ontime,j,0,2.029,6,3,27,2,1,,,,,
,0.52,,,,,,,,,f.PNG,f,6111299ba7aede3df217d7fe,2021-10-19_13h06.39.643,forced_choiceRT,2021.1.2,MacIntel,60.0024001,,,,,,,,7,Fast,f,1,1.7933,7,0,28,0,1,,,,,
,0.88,,,,,,,,,g.PNG,g,6111299ba7aede3df217d7fe,2021-10-19_13h06.39.643,forced_choiceRT,2021.1.2,MacIntel,60.0024001,,,,,,,,7,Ontime,g,1,1.934,7,1,29,1,1,,,,,
,1.83,,,,,,,,,h.PNG,h,6111299ba7aede3df217d7fe,2021-10-19_13h06.39.643,forced_choiceRT,2021.1.2,MacIntel,60.0024001,,,,,,,,7,Ontime,g,0,2.012,7,2,30,2,1,,,,,
,0.78,,,,,,,,,g.PNG,g,6111299ba7aede3df217d7fe,2021-10-19_13h06.39.643,forced_choiceRT,2021.1.2,MacIntel,60.0024001,,,,,,,,7,Slow,g,1,2.1302,7,3,31,1,1,,,,,
,0.3,,,,,,,,,h.PNG,h,6111299ba7aede3df217d7fe,2021-10-19_13h06.39.643,forced_choiceRT,2021.1.2,MacIntel,60.0024001,,,,,,,,7,Ontime,h,1,2.0117,8,0,32,2,1,,,,,
,1.35,,,,,,,,,h.PNG,h,6111299ba7aede3df217d7fe,2021-10-19_13h06.39.643,forced_choiceRT,2021.1.2,MacIntel,60.0024001,,,,,,,,7,Fast,h,1,1.8484,8,1,33,2,1,,,,,
,1.1,,,,,,,,,j.PNG,j,6111299ba7aede3df217d7fe,2021-10-19_13h06.39.643,forced_choiceRT,2021.1.2,MacIntel,60.0024001,,,,,,,,7,Fast,j,1,1.8663,8,2,34,3,1,,,,,
,0.01,,,,,,,,,j.PNG,j,6111299ba7aede3df217d7fe,2021-10-19_13h06.39.643,forced_choiceRT,2021.1.2,MacIntel,60.0024001,,,,,,,,7,Slow,h,0,2.1661,8,3,35,3,1,,,,,
,1.21,,,,,,,,,h.PNG,h,6111299ba7aede3df217d7fe,2021-10-19_13h06.39.643,forced_choiceRT,2021.1.2,MacIntel,60.0024001,,,,,,,,7,Ontime,j,0,2.0468,9,0,36,2,1,,,,,
,1.39,,,,,,,,,g.PNG,g,6111299ba7aede3df217d7fe,2021-10-19_13h06.39.643,forced_choiceRT,2021.1.2,MacIntel,60.0024001,,,,,,,,7,Ontime,g,1,2.0791,9,1,37,1,1,,,,,
,0.32,,,,,,,,,j.PNG,j,6111299ba7aede3df217d7fe,2021-10-19_13h06.39.643,forced_choiceRT,2021.1.2,MacIntel,60.0024001,,,,,,,,7,Slow,j,1,2.1483,9,2,38,3,1,,,,,
,0.01,,,,,,,,,g.PNG,g,6111299ba7aede3df217d7fe,2021-10-19_13h06.39.643,forced_choiceRT,2021.1.2,MacIntel,60.0024001,,,,,,,,7,Slow,g,1,2.1645,9,3,39,1,1,,,,,
,,,,,,,,,,,,6111299ba7aede3df217d7fe,2021-10-19_13h06.39.643,forced_choiceRT,2021.1.2,MacIntel,60.0024001,,,,,,,,,,,,,,,,,,6,0,6,0,1
,1.39,,,,,,,,,j.PNG,j,6111299ba7aede3df217d7fe,2021-10-19_13h06.39.643,forced_choiceRT,2021.1.2,MacIntel,60.0024001,,,,,,,,8,Slow,j,1,2.1439,0,0,0,3,1,,,,,
,0.52,,,,,,,,,h.PNG,h,6111299ba7aede3df217d7fe,2021-10-19_13h06.39.643,forced_choiceRT,2021.1.2,MacIntel,60.0024001,,,,,,,,8,Slow,h,1,2.125,0,1,1,2,1,,,,,
,1.81,,,,,,,,,f.PNG,f,6111299ba7aede3df217d7fe,2021-10-19_13h06.39.643,forced_choiceRT,2021.1.2,MacIntel,60.0024001,,,,,,,,8,Ontime,j,0,2.0183,0,2,2,0,1,,,,,
,1.21,,,,,,,,,h.PNG,h,6111299ba7aede3df217d7fe,2021-10-19_13h06.39.643,forced_choiceRT,2021.1.2,MacIntel,60.0024001,,,,,,,,8,Ontime,f,0,1.9642,0,3,3,2,1,,,,,
,0.26,,,,,,,,,f.PNG,f,6111299ba7aede3df217d7fe,2021-10-19_13h06.39.643,forced_choiceRT,2021.1.2,MacIntel,60.0024001,,,,,,,,8,Fast,f,1,1.8703,1,0,4,0,1,,,,,
,1.25,,,,,,,,,j.PNG,j,6111299ba7aede3df217d7fe,2021-10-19_13h06.39.643,forced_choiceRT,2021.1.2,MacIntel,60.0024001,,,,,,,,8,Ontime,f,0,1.9575,1,1,5,3,1,,,,,
,1.75,,,,,,,,,j.PNG,j,6111299ba7aede3df217d7fe,2021-10-19_13h06.39.643,forced_choiceRT,2021.1.2,MacIntel,60.0024001,,,,,,,,8,Slow,f,0,2.1132,1,2,6,3,1,,,,,
,0.31,,,,,,,,,f.PNG,f,6111299ba7aede3df217d7fe,2021-10-19_13h06.39.643,forced_choiceRT,2021.1.2,MacIntel,60.0024001,,,,,,,,8,Fast,f,1,1.7975,1,3,7,0,1,,,,,
,0.18,,,,,,,,,g.PNG,g,6111299ba7aede3df217d7fe,2021-10-19_13h06.39.643,forced_choiceRT,2021.1.2,MacIntel,60.0024001,,,,,,,,8,Fast,g,1,1.7915,2,0,8,1,1,,,,,
,0.48,,,,,,,,,j.PNG,j,6111299ba7aede3df217d7fe,2021-10-19_13h06.39.643,forced_choiceRT,2021.1.2,MacIntel,60.0024001,,,,,,,,8,Ontime,h,0,1.991,2,1,9,3,1,,,,,
,1.97,,,,,,,,,h.PNG,h,6111299ba7aede3df217d7fe,2021-10-19_13h06.39.643,forced_choiceRT,2021.1.2,MacIntel,60.0024001,,,,,,,,8,Ontime,g,0,1.9971,2,2,10,2,1,,,,,
,1.72,,,,,,,,,f.PNG,f,6111299ba7aede3df217d7fe,2021-10-19_13h06.39.643,forced_choiceRT,2021.1.2,MacIntel,60.0024001,,,,,,,,8,Fast,f,1,1.8098,2,3,11,0,1,,,,,
,1.71,,,,,,,,,f.PNG,f,6111299ba7aede3df217d7fe,2021-10-19_13h06.39.643,forced_choiceRT,2021.1.2,MacIntel,60.0024001,,,,,,,,8,Slow,f,1,2.1768,3,0,12,0,1,,,,,
,1.74,,,,,,,,,j.PNG,j,6111299ba7aede3df217d7fe,2021-10-19_13h06.39.643,forced_choiceRT,2021.1.2,MacIntel,60.0024001,,,,,,,,8,Ontime,f,0,1.947,3,1,13,3,1,,,,,
,0.9,,,,,,,,,g.PNG,g,6111299ba7aede3df217d7fe,2021-10-19_13h06.39.643,forced_choiceRT,2021.1.2,MacIntel,60.0024001,,,,,,,,8,Fast,g,1,1.8762,3,2,14,1,1,,,,,
,0.75,,,,,,,,,g.PNG,g,6111299ba7aede3df217d7fe,2021-10-19_13h06.39.643,forced_choiceRT,2021.1.2,MacIntel,60.0024001,,,,,,,,8,Ontime,g,1,1.9625,3,3,15,1,1,,,,,
,1.8,,,,,,,,,g.PNG,g,6111299ba7aede3df217d7fe,2021-10-19_13h06.39.643,forced_choiceRT,2021.1.2,MacIntel,60.0024001,,,,,,,,8,Ontime,g,1,2.0784,4,0,16,1,1,,,,,
,1.65,,,,,,,,,h.PNG,h,6111299ba7aede3df217d7fe,2021-10-19_13h06.39.643,forced_choiceRT,2021.1.2,MacIntel,60.0024001,,,,,,,,8,Ontime,g,0,1.9768,4,1,17,2,1,,,,,
,0.33,,,,,,,,,g.PNG,g,6111299ba7aede3df217d7fe,2021-10-19_13h06.39.643,forced_choiceRT,2021.1.2,MacIntel,60.0024001,,,,,,,,8,Ontime,g,1,2.0586,4,2,18,1,1,,,,,
,1.1,,,,,,,,,h.PNG,h,6111299ba7aede3df217d7fe,2021-10-19_13h06.39.643,forced_choiceRT,2021.1.2,MacIntel,60.0024001,,,,,,,,8,Fast,j,0,0.0088,4,3,19,2,1,,,,,
,1.07,,,,,,,,,j.PNG,j,6111299ba7aede3df217d7fe,2021-10-19_13h06.39.643,forced_choiceRT,2021.1.2,MacIntel,60.0024001,,,,,,,,8,Fast,j,1,1.788,5,0,20,3,1,,,,,
,0.2,,,,,,,,,f.PNG,f,6111299ba7aede3df217d7fe,2021-10-19_13h06.39.643,forced_choiceRT,2021.1.2,MacIntel,60.0024001,,,,,,,,8,Ontime,f,1,2.013,5,1,21,0,1,,,,,
,1.69,,,,,,,,,g.PNG,g,6111299ba7aede3df217d7fe,2021-10-19_13h06.39.643,forced_choiceRT,2021.1.2,MacIntel,60.0024001,,,,,,,,8,Ontime,f,0,2.0288,5,2,22,1,1,,,,,
,1.87,,,,,,,,,j.PNG,j,6111299ba7aede3df217d7fe,2021-10-19_13h06.39.643,forced_choiceRT,2021.1.2,MacIntel,60.0024001,,,,,,,,8,Slow,f,0,2.1277,5,3,23,3,1,,,,,
,0.08,,,,,,,,,f.PNG,f,6111299ba7aede3df217d7fe,2021-10-19_13h06.39.643,forced_choiceRT,2021.1.2,MacIntel,60.0024001,,,,,,,,8,Ontime,f,1,2.025,6,0,24,0,1,,,,,
,0.13,,,,,,,,,h.PNG,h,6111299ba7aede3df217d7fe,2021-10-19_13h06.39.643,forced_choiceRT,2021.1.2,MacIntel,60.0024001,,,,,,,,8,Slow,h,1,2.129,6,1,25,2,1,,,,,
,0,,,,,,,,,j.PNG,j,6111299ba7aede3df217d7fe,2021-10-19_13h06.39.643,forced_choiceRT,2021.1.2,MacIntel,60.0024001,,,,,,,,8,Fast,h,0,1.8283,6,2,26,3,1,,,,,
,1.07,,,,,,,,,h.PNG,h,6111299ba7aede3df217d7fe,2021-10-19_13h06.39.643,forced_choiceRT,2021.1.2,MacIntel,60.0024001,,,,,,,,8,Fast,f,0,1.8939,6,3,27,2,1,,,,,
,0.1,,,,,,,,,g.PNG,g,6111299ba7aede3df217d7fe,2021-10-19_13h06.39.643,forced_choiceRT,2021.1.2,MacIntel,60.0024001,,,,,,,,8,Ontime,g,1,2,7,0,28,1,1,,,,,
,1.4,,,,,,,,,h.PNG,h,6111299ba7aede3df217d7fe,2021-10-19_13h06.39.643,forced_choiceRT,2021.1.2,MacIntel,60.0024001,,,,,,,,8,Fast,g,0,1.8643,7,1,29,2,1,,,,,
,1.04,,,,,,,,,j.PNG,j,6111299ba7aede3df217d7fe,2021-10-19_13h06.39.643,forced_choiceRT,2021.1.2,MacIntel,60.0024001,,,,,,,,8,Ontime,g,0,1.9004,7,2,30,3,1,,,,,
,0.96,,,,,,,,,g.PNG,g,6111299ba7aede3df217d7fe,2021-10-19_13h06.39.643,forced_choiceRT,2021.1.2,MacIntel,60.0024001,,,,,,,,8,Fast,g,1,1.8297,7,3,31,1,1,,,,,
,0.66,,,,,,,,,j.PNG,j,6111299ba7aede3df217d7fe,2021-10-19_13h06.39.643,forced_choiceRT,2021.1.2,MacIntel,60.0024001,,,,,,,,8,Slow,j,1,2.2914,8,0,32,3,1,,,,,
,1.28,,,,,,,,,h.PNG,h,6111299ba7aede3df217d7fe,2021-10-19_13h06.39.643,forced_choiceRT,2021.1.2,MacIntel,60.0024001,,,,,,,,8,Ontime,j,0,1.9988,8,1,33,2,1,,,,,
,0.5,,,,,,,,,g.PNG,g,6111299ba7aede3df217d7fe,2021-10-19_13h06.39.643,forced_choiceRT,2021.1.2,MacIntel,60.0024001,,,,,,,,8,Slow,g,1,2.1618,8,2,34,1,1,,,,,
,0.8,,,,,,,,,f.PNG,f,6111299ba7aede3df217d7fe,2021-10-19_13h06.39.643,forced_choiceRT,2021.1.2,MacIntel,60.0024001,,,,,,,,8,Fast,f,1,1.7914,8,3,35,0,1,,,,,
,0.09,,,,,,,,,f.PNG,f,6111299ba7aede3df217d7fe,2021-10-19_13h06.39.643,forced_choiceRT,2021.1.2,MacIntel,60.0024001,,,,,,,,8,Fast,f,1,1.7905,9,0,36,0,1,,,,,
,0.94,,,,,,,,,h.PNG,h,6111299ba7aede3df217d7fe,2021-10-19_13h06.39.643,forced_choiceRT,2021.1.2,MacIntel,60.0024001,,,,,,,,8,Ontime,j,0,1.9764,9,1,37,2,1,,,,,
,0.44,,,,,,,,,f.PNG,f,6111299ba7aede3df217d7fe,2021-10-19_13h06.39.643,forced_choiceRT,2021.1.2,MacIntel,60.0024001,,,,,,,,8,Fast,f,1,1.8443,9,2,38,0,1,,,,,
,0.55,,,,,,,,,g.PNG,g,6111299ba7aede3df217d7fe,2021-10-19_13h06.39.643,forced_choiceRT,2021.1.2,MacIntel,60.0024001,,,,,,,,8,Ontime,g,1,2.0316,9,3,39,1,1,,,,,
,,,,,,,,,,,,6111299ba7aede3df217d7fe,2021-10-19_13h06.39.643,forced_choiceRT,2021.1.2,MacIntel,60.0024001,,,,,,,,,,,,,,,,,,7,0,7,0,1
,0.69,,,,,,,,,h.PNG,h,6111299ba7aede3df217d7fe,2021-10-19_13h06.39.643,forced_choiceRT,2021.1.2,MacIntel,60.0024001,,,,,,,,9,Slow,f,0,2.1964,0,0,0,2,1,,,,,
,0.36,,,,,,,,,f.PNG,f,6111299ba7aede3df217d7fe,2021-10-19_13h06.39.643,forced_choiceRT,2021.1.2,MacIntel,60.0024001,,,,,,,,9,Ontime,f,1,1.9669,0,1,1,0,1,,,,,
,1.11,,,,,,,,,j.PNG,j,6111299ba7aede3df217d7fe,2021-10-19_13h06.39.643,forced_choiceRT,2021.1.2,MacIntel,60.0024001,,,,,,,,9,Ontime,j,1,1.9251,0,2,2,3,1,,,,,
,1.84,,,,,,,,,h.PNG,h,6111299ba7aede3df217d7fe,2021-10-19_13h06.39.643,forced_choiceRT,2021.1.2,MacIntel,60.0024001,,,,,,,,9,Ontime,j,0,1.9295,0,3,3,2,1,,,,,
,1.66,,,,,,,,,f.PNG,f,6111299ba7aede3df217d7fe,2021-10-19_13h06.39.643,forced_choiceRT,2021.1.2,MacIntel,60.0024001,,,,,,,,9,Ontime,j,0,2.0285,1,0,4,0,1,,,,,
,1.45,,,,,,,,,j.PNG,j,6111299ba7aede3df217d7fe,2021-10-19_13h06.39.643,forced_choiceRT,2021.1.2,MacIntel,60.0024001,,,,,,,,9,Fast,f,0,1.7957,1,1,5,3,1,,,,,
,1.46,,,,,,,,,g.PNG,g,6111299ba7aede3df217d7fe,2021-10-19_13h06.39.643,forced_choiceRT,2021.1.2,MacIntel,60.0024001,,,,,,,,9,Slow,f,0,2.1012,1,2,6,1,1,,,,,
,1.01,,,,,,,,,j.PNG,j,6111299ba7aede3df217d7fe,2021-10-19_13h06.39.643,forced_choiceRT,2021.1.2,MacIntel,60.0024001,,,,,,,,9,Slow,h,0,2.1912,1,3,7,3,1,,,,,
,1.68,,,,,,,,,h.PNG,h,6111299ba7aede3df217d7fe,2021-10-19_13h06.39.643,forced_choiceRT,2021.1.2,MacIntel,60.0024001,,,,,,,,9,Ontime,h,1,2.0804,2,0,8,2,1,,,,,
,0.3,,,,,,,,,g.PNG,g,6111299ba7aede3df217d7fe,2021-10-19_13h06.39.643,forced_choiceRT,2021.1.2,MacIntel,60.0024001,,,,,,,,9,Fast,g,1,1.6116,2,1,9,1,1,,,,,
,1.63,,,,,,,,,f.PNG,f,6111299ba7aede3df217d7fe,2021-10-19_13h06.39.643,forced_choiceRT,2021.1.2,MacIntel,60.0024001,,,,,,,,9,Ontime,g,0,2.0649,2,2,10,0,1,,,,,
,0.05,,,,,,,,,j.PNG,j,6111299ba7aede3df217d7fe,2021-10-19_13h06.39.643,forced_choiceRT,2021.1.2,MacIntel,60.0024001,,,,,,,,9,Ontime,h,0,2.0933,2,3,11,3,1,,,,,
,0.82,,,,,,,,,h.PNG,h,6111299ba7aede3df217d7fe,2021-10-19_13h06.39.643,forced_choiceRT,2021.1.2,MacIntel,60.0024001,,,,,,,,9,Ontime,j,0,2.0978,3,0,12,2,1,,,,,
,0.89,,,,,,,,,g.PNG,g,6111299ba7aede3df217d7fe,2021-10-19_13h06.39.643,forced_choiceRT,2021.1.2,MacIntel,60.0024001,,,,,,,,9,Fast,f,0,1.822,3,1,13,1,1,,,,,
,1.6,,,,,,,,,f.PNG,f,6111299ba7aede3df217d7fe,2021-10-19_13h06.39.643,forced_choiceRT,2021.1.2,MacIntel,60.0024001,,,,,,,,9,Ontime,f,1,1.9163,3,2,14,0,1,,,,,
,0.7,,,,,,,,,f.PNG,f,6111299ba7aede3df217d7fe,2021-10-19_13h06.39.643,forced_choiceRT,2021.1.2,MacIntel,60.0024001,,,,,,,,9,Ontime,f,1,2.0608,3,3,15,0,1,,,,,
,0.84,,,,,,,,,j.PNG,j,6111299ba7aede3df217d7fe,2021-10-19_13h06.39.643,forced_choiceRT,2021.1.2,MacIntel,60.0024001,,,,,,,,9,Ontime,j,1,2.0958,4,0,16,3,1,,,,,
,0.92,,,,,,,,,g.PNG,g,6111299ba7aede3df217d7fe,2021-10-19_13h06.39.643,forced_choiceRT,2021.1.2,MacIntel,60.0024001,,,,,,,,9,Fast,g,1,1.8793,4,1,17,1,1,,,,,
,1.24,,,,,,,,,h.PNG,h,6111299ba7aede3df217d7fe,2021-10-19_13h06.39.643,forced_choiceRT,2021.1.2,MacIntel,60.0024001,,,,,,,,9,Ontime,j,0,2.0283,4,2,18,2,1,,,,,
,1.69,,,,,,,,,j.PNG,j,6111299ba7aede3df217d7fe,2021-10-19_13h06.39.643,forced_choiceRT,2021.1.2,MacIntel,60.0024001,,,,,,,,9,Fast,j,1,1.814,4,3,19,3,1,,,,,
,0.23,,,,,,,,,j.PNG,j,6111299ba7aede3df217d7fe,2021-10-19_13h06.39.643,forced_choiceRT,2021.1.2,MacIntel,60.0024001,,,,,,,,9,Ontime,j,1,2.0381,5,0,20,3,1,,,,,
,1.68,,,,,,,,,g.PNG,g,6111299ba7aede3df217d7fe,2021-10-19_13h06.39.643,forced_choiceRT,2021.1.2,MacIntel,60.0024001,,,,,,,,9,Slow,f,0,2.1806,5,1,21,1,1,,,,,
,1.42,,,,,,,,,f.PNG,f,6111299ba7aede3df217d7fe,2021-10-19_13h06.39.643,forced_choiceRT,2021.1.2,MacIntel,60.0024001,,,,,,,,9,Fast,g,0,1.7818,5,2,22,0,1,,,,,
,1.98,,,,,,,,,j.PNG,j,6111299ba7aede3df217d7fe,2021-10-19_13h06.39.643,forced_choiceRT,2021.1.2,MacIntel,60.0024001,,,,,,,,9,Slow,f,0,2.2953,5,3,23,3,1,,,,,
,0.51,,,,,,,,,h.PNG,h,6111299ba7aede3df217d7fe,2021-10-19_13h06.39.643,forced_choiceRT,2021.1.2,MacIntel,60.0024001,,,,,,,,9,Ontime,j,0,2.0288,6,0,24,2,1,,,,,
,0.07,,,,,,,,,f.PNG,f,6111299ba7aede3df217d7fe,2021-10-19_13h06.39.643,forced_choiceRT,2021.1.2,MacIntel,60.0024001,,,,,,,,9,Ontime,f,1,1.9471,6,1,25,0,1,,,,,
,0.88,,,,,,,,,h.PNG,h,6111299ba7aede3df217d7fe,2021-10-19_13h06.39.643,forced_choiceRT,2021.1.2,MacIntel,60.0024001,,,,,,,,9,Ontime,j,0,1.9193,6,2,26,2,1,,,,,
,0.81,,,,,,,,,f.PNG,f,6111299ba7aede3df217d7fe,2021-10-19_13h06.39.643,forced_choiceRT,2021.1.2,MacIntel,60.0024001,,,,,,,,9,Ontime,f,1,2.0815,6,3,27,0,1,,,,,
,1.75,,,,,,,,,g.PNG,g,6111299ba7aede3df217d7fe,2021-10-19_13h06.39.643,forced_choiceRT,2021.1.2,MacIntel,60.0024001,,,,,,,,9,Ontime,f,0,1.9286,7,0,28,1,1,,,,,
,1.45,,,,,,,,,j.PNG,j,6111299ba7aede3df217d7fe,2021-10-19_13h06.39.643,forced_choiceRT,2021.1.2,MacIntel,60.0024001,,,,,,,,9,Slow,j,1,2.1573,7,1,29,3,1,,,,,
,1.9,,,,,,,,,g.PNG,g,6111299ba7aede3df217d7fe,2021-10-19_13h06.39.643,forced_choiceRT,2021.1.2,MacIntel,60.0024001,,,,,,,,9,Ontime,j,0,2.0168,7,2,30,1,1,,,,,
,0.23,,,,,,,,,g.PNG,g,6111299ba7aede3df217d7fe,2021-10-19_13h06.39.643,forced_choiceRT,2021.1.2,MacIntel,60.0024001,,,,,,,,9,Fast,g,1,1.8229,7,3,31,1,1,,,,,
,1.13,,,,,,,,,j.PNG,j,6111299ba7aede3df217d7fe,2021-10-19_13h06.39.643,forced_choiceRT,2021.1.2,MacIntel,60.0024001,,,,,,,,9,Ontime,j,1,1.9673,8,0,32,3,1,,,,,
,0.22,,,,,,,,,g.PNG,g,6111299ba7aede3df217d7fe,2021-10-19_13h06.39.643,forced_choiceRT,2021.1.2,MacIntel,60.0024001,,,,,,,,9,Ontime,g,1,2.0839,8,1,33,1,1,,,,,
,1.19,,,,,,,,,h.PNG,h,6111299ba7aede3df217d7fe,2021-10-19_13h06.39.643,forced_choiceRT,2021.1.2,MacIntel,60.0024001,,,,,,,,9,Fast,j,0,1.7584,8,2,34,2,1,,,,,
,0.52,,,,,,,,,f.PNG,f,6111299ba7aede3df217d7fe,2021-10-19_13h06.39.643,forced_choiceRT,2021.1.2,MacIntel,60.0024001,,,,,,,,9,Ontime,f,1,1.9311,8,3,35,0,1,,,,,
,0.56,,,,,,,,,f.PNG,f,6111299ba7aede3df217d7fe,2021-10-19_13h06.39.643,forced_choiceRT,2021.1.2,MacIntel,60.0024001,,,,,,,,9,Fast,f,1,1.7971,9,0,36,0,1,,,,,
,1.92,,,,,,,,,h.PNG,h,6111299ba7aede3df217d7fe,2021-10-19_13h06.39.643,forced_choiceRT,2021.1.2,MacIntel,60.0024001,,,,,,,,9,Ontime,j,0,1.9627,9,1,37,2,1,,,,,
,1.01,,,,,,,,,h.PNG,h,6111299ba7aede3df217d7fe,2021-10-19_13h06.39.643,forced_choiceRT,2021.1.2,MacIntel,60.0024001,,,,,,,,9,Fast,j,0,1.8988,9,2,38,2,1,,,,,
,0,,,,,,,,,g.PNG,g,6111299ba7aede3df217d7fe,2021-10-19_13h06.39.643,forced_choiceRT,2021.1.2,MacIntel,60.0024001,,,,,,,,9,Fast,g,1,1.741,9,3,39,1,1,,,,,
,,,,,,,,,,,,6111299ba7aede3df217d7fe,2021-10-19_13h06.39.643,forced_choiceRT,2021.1.2,MacIntel,60.0024001,,,,,,,,,,,,,,,,,,8,0,8,0,1
,1.13,,,,,,,,,g.PNG,g,6111299ba7aede3df217d7fe,2021-10-19_13h06.39.643,forced_choiceRT,2021.1.2,MacIntel,60.0024001,,,,,,,,10,Ontime,j,0,2.0597,0,0,0,1,1,,,,,
,0.51,,,,,,,,,g.PNG,g,6111299ba7aede3df217d7fe,2021-10-19_13h06.39.643,forced_choiceRT,2021.1.2,MacIntel,60.0024001,,,,,,,,10,Ontime,g,1,1.9983,0,1,1,1,1,,,,,
,1.97,,,,,,,,,j.PNG,j,6111299ba7aede3df217d7fe,2021-10-19_13h06.39.643,forced_choiceRT,2021.1.2,MacIntel,60.0024001,,,,,,,,10,Ontime,j,1,2.0079,0,2,2,3,1,,,,,
,1.14,,,,,,,,,h.PNG,h,6111299ba7aede3df217d7fe,2021-10-19_13h06.39.643,forced_choiceRT,2021.1.2,MacIntel,60.0024001,,,,,,,,10,Fast,g,0,1.6468,0,3,3,2,1,,,,,
,1.29,,,,,,,,,h.PNG,h,6111299ba7aede3df217d7fe,2021-10-19_13h06.39.643,forced_choiceRT,2021.1.2,MacIntel,60.0024001,,,,,,,,10,Ontime,j,0,1.9369,1,0,4,2,1,,,,,
,0.46,,,,,,,,,g.PNG,g,6111299ba7aede3df217d7fe,2021-10-19_13h06.39.643,forced_choiceRT,2021.1.2,MacIntel,60.0024001,,,,,,,,10,Ontime,g,1,2.0951,1,1,5,1,1,,,,,
,1.6,,,,,,,,,h.PNG,h,6111299ba7aede3df217d7fe,2021-10-19_13h06.39.643,forced_choiceRT,2021.1.2,MacIntel,60.0024001,,,,,,,,10,Fast,g,0,1.8524,1,2,6,2,1,,,,,
,1.23,,,,,,,,,f.PNG,f,6111299ba7aede3df217d7fe,2021-10-19_13h06.39.643,forced_choiceRT,2021.1.2,MacIntel,60.0024001,,,,,,,,10,Ontime,f,1,1.9294,1,3,7,0,1,,,,,
,0.25,,,,,,,,,j.PNG,j,6111299ba7aede3df217d7fe,2021-10-19_13h06.39.643,forced_choiceRT,2021.1.2,MacIntel,60.0024001,,,,,,,,10,Fast,j,1,1.7982,2,0,8,3,1,,,,,
,1.81,,,,,,,,,f.PNG,f,6111299ba7aede3df217d7fe,2021-10-19_13h06.39.643,forced_choiceRT,2021.1.2,MacIntel,60.0024001,,,,,,,,10,Slow,f,1,2.425,2,1,9,0,1,,,,,
,1.74,,,,,,,,,h.PNG,h,6111299ba7aede3df217d7fe,2021-10-19_13h06.39.643,forced_choiceRT,2021.1.2,MacIntel,60.0024001,,,,,,,,10,Fast,f,0,1.8813,2,2,10,2,1,,,,,
,1.93,,,,,,,,,f.PNG,f,6111299ba7aede3df217d7fe,2021-10-19_13h06.39.643,forced_choiceRT,2021.1.2,MacIntel,60.0024001,,,,,,,,10,Ontime,j,0,1.9127,2,3,11,0,1,,,,,
,0.26,,,,,,,,,j.PNG,j,6111299ba7aede3df217d7fe,2021-10-19_13h06.39.643,forced_choiceRT,2021.1.2,MacIntel,60.0024001,,,,,,,,10,Ontime,j,1,2.0959,3,0,12,3,1,,,,,
,0.52,,,,,,,,,h.PNG,h,6111299ba7aede3df217d7fe,2021-10-19_13h06.39.643,forced_choiceRT,2021.1.2,MacIntel,60.0024001,,,,,,,,10,Ontime,j,0,2.0768,3,1,13,2,1,,,,,
,0.37,,,,,,,,,f.PNG,f,6111299ba7aede3df217d7fe,2021-10-19_13h06.39.643,forced_choiceRT,2021.1.2,MacIntel,60.0024001,,,,,,,,10,Ontime,f,1,2.015,3,2,14,0,1,,,,,
,1.73,,,,,,,,,j.PNG,j,6111299ba7aede3df217d7fe,2021-10-19_13h06.39.643,forced_choiceRT,2021.1.2,MacIntel,60.0024001,,,,,,,,10,Ontime,j,1,1.9607,3,3,15,3,1,,,,,
,0.15,,,,,,,,,h.PNG,h,6111299ba7aede3df217d7fe,2021-10-19_13h06.39.643,forced_choiceRT,2021.1.2,MacIntel,60.0024001,,,,,,,,10,Fast,j,0,1.2943,4,0,16,2,1,,,,,
,0.01,,,,,,,,,f.PNG,f,6111299ba7aede3df217d7fe,2021-10-19_13h06.39.643,forced_choiceRT,2021.1.2,MacIntel,60.0024001,,,,,,,,10,Fast,f,1,1.8516,4,1,17,0,1,,,,,
,1.03,,,,,,,,,j.PNG,j,6111299ba7aede3df217d7fe,2021-10-19_13h06.39.643,forced_choiceRT,2021.1.2,MacIntel,60.0024001,,,,,,,,10,Ontime,j,1,2.0807,4,2,18,3,1,,,,,
,0.22,,,,,,,,,f.PNG,f,6111299ba7aede3df217d7fe,2021-10-19_13h06.39.643,forced_choiceRT,2021.1.2,MacIntel,60.0024001,,,,,,,,10,Ontime,f,1,1.927,4,3,19,0,1,,,,,
,1.8,,,,,,,,,g.PNG,g,6111299ba7aede3df217d7fe,2021-10-19_13h06.39.643,forced_choiceRT,2021.1.2,MacIntel,60.0024001,,,,,,,,10,Ontime,f,0,2.0988,5,0,20,1,1,,,,,
,0.95,,,,,,,,,g.PNG,g,6111299ba7aede3df217d7fe,2021-10-19_13h06.39.643,forced_choiceRT,2021.1.2,MacIntel,60.0024001,,,,,,,,10,Slow,g,1,2.147,5,1,21,1,1,,,,,
,0.06,,,,,,,,,j.PNG,j,6111299ba7aede3df217d7fe,2021-10-19_13h06.39.643,forced_choiceRT,2021.1.2,MacIntel,60.0024001,,,,,,,,10,Ontime,h,0,2.0698,5,2,22,3,1,,,,,
,1.18,,,,,,,,,f.PNG,f,6111299ba7aede3df217d7fe,2021-10-19_13h06.39.643,forced_choiceRT,2021.1.2,MacIntel,60.0024001,,,,,,,,10,Ontime,f,1,2.0294,5,3,23,0,1,,,,,
,0.35,,,,,,,,,h.PNG,h,6111299ba7aede3df217d7fe,2021-10-19_13h06.39.643,forced_choiceRT,2021.1.2,MacIntel,60.0024001,,,,,,,,10,Fast,j,0,1.3649,6,0,24,2,1,,,,,
,0.4,,,,,,,,,j.PNG,j,6111299ba7aede3df217d7fe,2021-10-19_13h06.39.643,forced_choiceRT,2021.1.2,MacIntel,60.0024001,,,,,,,,10,Ontime,j,1,1.998,6,1,25,3,1,,,,,
,1.1,,,,,,,,,h.PNG,h,6111299ba7aede3df217d7fe,2021-10-19_13h06.39.643,forced_choiceRT,2021.1.2,MacIntel,60.0024001,,,,,,,,10,Ontime,j,0,2.0508,6,2,26,2,1,,,,,
,1.79,,,,,,,,,f.PNG,f,6111299ba7aede3df217d7fe,2021-10-19_13h06.39.643,forced_choiceRT,2021.1.2,MacIntel,60.0024001,,,,,,,,10,Slow,j,0,2.1621,6,3,27,0,1,,,,,
,0.18,,,,,,,,,j.PNG,j,6111299ba7aede3df217d7fe,2021-10-19_13h06.39.643,forced_choiceRT,2021.1.2,MacIntel,60.0024001,,,,,,,,10,Ontime,h,0,1.9522,7,0,28,3,1,,,,,
,0.53,,,,,,,,,g.PNG,g,6111299ba7aede3df217d7fe,2021-10-19_13h06.39.643,forced_choiceRT,2021.1.2,MacIntel,60.0024001,,,,,,,,10,Fast,g,1,1.8368,7,1,29,1,1,,,,,
,0.14,,,,,,,,,j.PNG,j,6111299ba7aede3df217d7fe,2021-10-19_13h06.39.643,forced_choiceRT,2021.1.2,MacIntel,60.0024001,,,,,,,,10,Ontime,h,0,1.9925,7,2,30,3,1,,,,,
,1.81,,,,,,,,,h.PNG,h,6111299ba7aede3df217d7fe,2021-10-19_13h06.39.643,forced_choiceRT,2021.1.2,MacIntel,60.0024001,,,,,,,,10,Ontime,j,0,2.0348,7,3,31,2,1,,,,,
,1.21,,,,,,,,,g.PNG,g,6111299ba7aede3df217d7fe,2021-10-19_13h06.39.643,forced_choiceRT,2021.1.2,MacIntel,60.0024001,,,,,,,,10,Ontime,j,0,1.9624,8,0,32,1,1,,,,,
,1.18,,,,,,,,,f.PNG,f,6111299ba7aede3df217d7fe,2021-10-19_13h06.39.643,forced_choiceRT,2021.1.2,MacIntel,60.0024001,,,,,,,,10,Fast,f,1,1.6804,8,1,33,0,1,,,,,
,1.52,,,,,,,,,j.PNG,j,6111299ba7aede3df217d7fe,2021-10-19_13h06.39.643,forced_choiceRT,2021.1.2,MacIntel,60.0024001,,,,,,,,10,Fast,j,1,1.8951,8,2,34,3,1,,,,,
,1.66,,,,,,,,,g.PNG,g,6111299ba7aede3df217d7fe,2021-10-19_13h06.39.643,forced_choiceRT,2021.1.2,MacIntel,60.0024001,,,,,,,,10,Slow,j,0,2.1647,8,3,35,1,1,,,,,
,1.53,,,,,,,,,g.PNG,g,6111299ba7aede3df217d7fe,2021-10-19_13h06.39.643,forced_choiceRT,2021.1.2,MacIntel,60.0024001,,,,,,,,10,Fast,f,0,1.8795,9,0,36,1,1,,,,,
,0.15,,,,,,,,,h.PNG,h,6111299ba7aede3df217d7fe,2021-10-19_13h06.39.643,forced_choiceRT,2021.1.2,MacIntel,60.0024001,,,,,,,,10,Ontime,j,0,2.0778,9,1,37,2,1,,,,,
,1.23,,,,,,,,,g.PNG,g,6111299ba7aede3df217d7fe,2021-10-19_13h06.39.643,forced_choiceRT,2021.1.2,MacIntel,60.0024001,,,,,,,,10,Fast,f,0,1.8533,9,2,38,1,1,,,,,
,1.98,,,,,,,,,f.PNG,f,6111299ba7aede3df217d7fe,2021-10-19_13h06.39.643,forced_choiceRT,2021.1.2,MacIntel,60.0024001,,,,,,,,10,Ontime,j,0,2.061,9,3,39,0,1,,,,,
,,,,,,,,,,,,6111299ba7aede3df217d7fe,2021-10-19_13h06.39.643,forced_choiceRT,2021.1.2,MacIntel,60.0024001,,,,,,,,,,,,,,,,,,9,0,9,0,1
