target_onset,trial_resp_sp.keys,trial_resp_sp.corr,trial_resp_sp.rt,trials_train_loop.thisRepN,trials_train_loop.thisTrialN,trials_train_loop.thisN,trials_train_loop.thisIndex,trials_train_loop.ran,pic,correct_key,participant,date,expName,psychopyVersion,OS,frameRate,trial_resp_timing.keys,trial_resp_timing.rt,trials_train_timing.thisRepN,trials_train_timing.thisTrialN,trials_train_timing.thisN,trials_train_timing.thisIndex,trials_train_timing.ran,block_id,ontime,forcedRT_resp.keys,forcedRT_resp.corr,forcedRT_resp.rt,trials.thisRepN,trials.thisTrialN,trials.thisN,trials.thisIndex,trials.ran,blocks.thisRepN,blocks.thisTrialN,blocks.thisN,blocks.thisIndex,blocks.ran
0,g,1,1.386,0,0,0,1,1,g.PNG,g,6112a0826f404dc5c6ece834,2021-10-19_11h44.36.297,forced_choiceRT,2021.1.2,Win32,30.0120048,,,,,,,,,,,,,,,,,,,,,,
0,f,1,0.852,0,1,1,0,1,f.PNG,f,6112a0826f404dc5c6ece834,2021-10-19_11h44.36.297,forced_choiceRT,2021.1.2,Win32,30.0120048,,,,,,,,,,,,,,,,,,,,,,
0,h,1,1.027,0,2,2,2,1,h.PNG,h,6112a0826f404dc5c6ece834,2021-10-19_11h44.36.297,forced_choiceRT,2021.1.2,Win32,30.0120048,,,,,,,,,,,,,,,,,,,,,,
0,h,1,0.718,0,3,3,2,1,h.PNG,h,6112a0826f404dc5c6ece834,2021-10-19_11h44.36.297,forced_choiceRT,2021.1.2,Win32,30.0120048,,,,,,,,,,,,,,,,,,,,,,
0,f,1,0.745,1,0,4,0,1,f.PNG,f,6112a0826f404dc5c6ece834,2021-10-19_11h44.36.297,forced_choiceRT,2021.1.2,Win32,30.0120048,,,,,,,,,,,,,,,,,,,,,,
0,j,1,0.776,1,1,5,3,1,j.PNG,j,6112a0826f404dc5c6ece834,2021-10-19_11h44.36.297,forced_choiceRT,2021.1.2,Win32,30.0120048,,,,,,,,,,,,,,,,,,,,,,
0,h,1,0.74,1,2,6,2,1,h.PNG,h,6112a0826f404dc5c6ece834,2021-10-19_11h44.36.297,forced_choiceRT,2021.1.2,Win32,30.0120048,,,,,,,,,,,,,,,,,,,,,,
0,j,1,0.773,1,3,7,3,1,j.PNG,j,6112a0826f404dc5c6ece834,2021-10-19_11h44.36.297,forced_choiceRT,2021.1.2,Win32,30.0120048,,,,,,,,,,,,,,,,,,,,,,
0,h,1,0.655,2,0,8,2,1,h.PNG,h,6112a0826f404dc5c6ece834,2021-10-19_11h44.36.297,forced_choiceRT,2021.1.2,Win32,30.0120048,,,,,,,,,,,,,,,,,,,,,,
0,h,1,0.7,2,1,9,2,1,h.PNG,h,6112a0826f404dc5c6ece834,2021-10-19_11h44.36.297,forced_choiceRT,2021.1.2,Win32,30.0120048,,,,,,,,,,,,,,,,,,,,,,
0,h,1,0.674,2,2,10,2,1,h.PNG,h,6112a0826f404dc5c6ece834,2021-10-19_11h44.36.297,forced_choiceRT,2021.1.2,Win32,30.0120048,,,,,,,,,,,,,,,,,,,,,,
0,h,1,0.62,2,3,11,2,1,h.PNG,h,6112a0826f404dc5c6ece834,2021-10-19_11h44.36.297,forced_choiceRT,2021.1.2,Win32,30.0120048,,,,,,,,,,,,,,,,,,,,,,
0,g,1,1.16,3,0,12,1,1,g.PNG,g,6112a0826f404dc5c6ece834,2021-10-19_11h44.36.297,forced_choiceRT,2021.1.2,Win32,30.0120048,,,,,,,,,,,,,,,,,,,,,,
0,j,1,0.751,3,1,13,3,1,j.PNG,j,6112a0826f404dc5c6ece834,2021-10-19_11h44.36.297,forced_choiceRT,2021.1.2,Win32,30.0120048,,,,,,,,,,,,,,,,,,,,,,
0,g,1,0.773,3,2,14,1,1,g.PNG,g,6112a0826f404dc5c6ece834,2021-10-19_11h44.36.297,forced_choiceRT,2021.1.2,Win32,30.0120048,,,,,,,,,,,,,,,,,,,,,,
0,h,1,0.877,3,3,15,2,1,h.PNG,h,6112a0826f404dc5c6ece834,2021-10-19_11h44.36.297,forced_choiceRT,2021.1.2,Win32,30.0120048,,,,,,,,,,,,,,,,,,,,,,
0,j,1,0.723,4,0,16,3,1,j.PNG,j,6112a0826f404dc5c6ece834,2021-10-19_11h44.36.297,forced_choiceRT,2021.1.2,Win32,30.0120048,,,,,,,,,,,,,,,,,,,,,,
0,f,1,0.604,4,1,17,0,1,f.PNG,f,6112a0826f404dc5c6ece834,2021-10-19_11h44.36.297,forced_choiceRT,2021.1.2,Win32,30.0120048,,,,,,,,,,,,,,,,,,,,,,
0,g,1,0.775,4,2,18,1,1,g.PNG,g,6112a0826f404dc5c6ece834,2021-10-19_11h44.36.297,forced_choiceRT,2021.1.2,Win32,30.0120048,,,,,,,,,,,,,,,,,,,,,,
0,h,1,1.181,4,3,19,2,1,h.PNG,h,6112a0826f404dc5c6ece834,2021-10-19_11h44.36.297,forced_choiceRT,2021.1.2,Win32,30.0120048,,,,,,,,,,,,,,,,,,,,,,
0,f,1,0.766,5,0,20,0,1,f.PNG,f,6112a0826f404dc5c6ece834,2021-10-19_11h44.36.297,forced_choiceRT,2021.1.2,Win32,30.0120048,,,,,,,,,,,,,,,,,,,,,,
0,g,1,0.669,5,1,21,1,1,g.PNG,g,6112a0826f404dc5c6ece834,2021-10-19_11h44.36.297,forced_choiceRT,2021.1.2,Win32,30.0120048,,,,,,,,,,,,,,,,,,,,,,
0,j,1,0.813,5,2,22,3,1,j.PNG,j,6112a0826f404dc5c6ece834,2021-10-19_11h44.36.297,forced_choiceRT,2021.1.2,Win32,30.0120048,,,,,,,,,,,,,,,,,,,,,,
0,j,1,0.818,5,3,23,3,1,j.PNG,j,6112a0826f404dc5c6ece834,2021-10-19_11h44.36.297,forced_choiceRT,2021.1.2,Win32,30.0120048,,,,,,,,,,,,,,,,,,,,,,
0,f,1,0.728,6,0,24,0,1,f.PNG,f,6112a0826f404dc5c6ece834,2021-10-19_11h44.36.297,forced_choiceRT,2021.1.2,Win32,30.0120048,,,,,,,,,,,,,,,,,,,,,,
0,f,1,0.761,6,1,25,0,1,f.PNG,f,6112a0826f404dc5c6ece834,2021-10-19_11h44.36.297,forced_choiceRT,2021.1.2,Win32,30.0120048,,,,,,,,,,,,,,,,,,,,,,
0,j,1,0.68,6,2,26,3,1,j.PNG,j,6112a0826f404dc5c6ece834,2021-10-19_11h44.36.297,forced_choiceRT,2021.1.2,Win32,30.0120048,,,,,,,,,,,,,,,,,,,,,,
0,h,1,0.665,6,3,27,2,1,h.PNG,h,6112a0826f404dc5c6ece834,2021-10-19_11h44.36.297,forced_choiceRT,2021.1.2,Win32,30.0120048,,,,,,,,,,,,,,,,,,,,,,
0,g,1,0.719,7,0,28,1,1,g.PNG,g,6112a0826f404dc5c6ece834,2021-10-19_11h44.36.297,forced_choiceRT,2021.1.2,Win32,30.0120048,,,,,,,,,,,,,,,,,,,,,,
0,j,1,0.814,7,1,29,3,1,j.PNG,j,6112a0826f404dc5c6ece834,2021-10-19_11h44.36.297,forced_choiceRT,2021.1.2,Win32,30.0120048,,,,,,,,,,,,,,,,,,,,,,
0,f,1,0.721,7,2,30,0,1,f.PNG,f,6112a0826f404dc5c6ece834,2021-10-19_11h44.36.297,forced_choiceRT,2021.1.2,Win32,30.0120048,,,,,,,,,,,,,,,,,,,,,,
0,g,1,0.769,7,3,31,1,1,g.PNG,g,6112a0826f404dc5c6ece834,2021-10-19_11h44.36.297,forced_choiceRT,2021.1.2,Win32,30.0120048,,,,,,,,,,,,,,,,,,,,,,
0,f,1,0.683,8,0,32,0,1,f.PNG,f,6112a0826f404dc5c6ece834,2021-10-19_11h44.36.297,forced_choiceRT,2021.1.2,Win32,30.0120048,,,,,,,,,,,,,,,,,,,,,,
0,j,1,0.754,8,1,33,3,1,j.PNG,j,6112a0826f404dc5c6ece834,2021-10-19_11h44.36.297,forced_choiceRT,2021.1.2,Win32,30.0120048,,,,,,,,,,,,,,,,,,,,,,
0,g,1,1.412,8,2,34,1,1,g.PNG,g,6112a0826f404dc5c6ece834,2021-10-19_11h44.36.297,forced_choiceRT,2021.1.2,Win32,30.0120048,,,,,,,,,,,,,,,,,,,,,,
0,f,1,0.671,8,3,35,0,1,f.PNG,f,6112a0826f404dc5c6ece834,2021-10-19_11h44.36.297,forced_choiceRT,2021.1.2,Win32,30.0120048,,,,,,,,,,,,,,,,,,,,,,
0,f,1,0.717,9,0,36,0,1,f.PNG,f,6112a0826f404dc5c6ece834,2021-10-19_11h44.36.297,forced_choiceRT,2021.1.2,Win32,30.0120048,,,,,,,,,,,,,,,,,,,,,,
0,g,1,0.664,9,1,37,1,1,g.PNG,g,6112a0826f404dc5c6ece834,2021-10-19_11h44.36.297,forced_choiceRT,2021.1.2,Win32,30.0120048,,,,,,,,,,,,,,,,,,,,,,
0,g,1,0.507,9,2,38,1,1,g.PNG,g,6112a0826f404dc5c6ece834,2021-10-19_11h44.36.297,forced_choiceRT,2021.1.2,Win32,30.0120048,,,,,,,,,,,,,,,,,,,,,,
0,f,1,0.586,9,3,39,0,1,f.PNG,f,6112a0826f404dc5c6ece834,2021-10-19_11h44.36.297,forced_choiceRT,2021.1.2,Win32,30.0120048,,,,,,,,,,,,,,,,,,,,,,
0,h,1,0.801,10,0,40,2,1,h.PNG,h,6112a0826f404dc5c6ece834,2021-10-19_11h44.36.297,forced_choiceRT,2021.1.2,Win32,30.0120048,,,,,,,,,,,,,,,,,,,,,,
0,h,1,0.603,10,1,41,2,1,h.PNG,h,6112a0826f404dc5c6ece834,2021-10-19_11h44.36.297,forced_choiceRT,2021.1.2,Win32,30.0120048,,,,,,,,,,,,,,,,,,,,,,
0,j,1,0.693,10,2,42,3,1,j.PNG,j,6112a0826f404dc5c6ece834,2021-10-19_11h44.36.297,forced_choiceRT,2021.1.2,Win32,30.0120048,,,,,,,,,,,,,,,,,,,,,,
0,j,1,0.663,10,3,43,3,1,j.PNG,j,6112a0826f404dc5c6ece834,2021-10-19_11h44.36.297,forced_choiceRT,2021.1.2,Win32,30.0120048,,,,,,,,,,,,,,,,,,,,,,
0,f,1,0.728,11,0,44,0,1,f.PNG,f,6112a0826f404dc5c6ece834,2021-10-19_11h44.36.297,forced_choiceRT,2021.1.2,Win32,30.0120048,,,,,,,,,,,,,,,,,,,,,,
0,j,1,0.791,11,1,45,3,1,j.PNG,j,6112a0826f404dc5c6ece834,2021-10-19_11h44.36.297,forced_choiceRT,2021.1.2,Win32,30.0120048,,,,,,,,,,,,,,,,,,,,,,
0,g,1,0.755,11,2,46,1,1,g.PNG,g,6112a0826f404dc5c6ece834,2021-10-19_11h44.36.297,forced_choiceRT,2021.1.2,Win32,30.0120048,,,,,,,,,,,,,,,,,,,,,,
0,h,1,0.658,11,3,47,2,1,h.PNG,h,6112a0826f404dc5c6ece834,2021-10-19_11h44.36.297,forced_choiceRT,2021.1.2,Win32,30.0120048,,,,,,,,,,,,,,,,,,,,,,
0,f,1,0.753,12,0,48,0,1,f.PNG,f,6112a0826f404dc5c6ece834,2021-10-19_11h44.36.297,forced_choiceRT,2021.1.2,Win32,30.0120048,,,,,,,,,,,,,,,,,,,,,,
0,h,1,0.753,12,1,49,2,1,h.PNG,h,6112a0826f404dc5c6ece834,2021-10-19_11h44.36.297,forced_choiceRT,2021.1.2,Win32,30.0120048,,,,,,,,,,,,,,,,,,,,,,
0,f,1,0.75,12,2,50,0,1,f.PNG,f,6112a0826f404dc5c6ece834,2021-10-19_11h44.36.297,forced_choiceRT,2021.1.2,Win32,30.0120048,,,,,,,,,,,,,,,,,,,,,,
0,g,1,1.076,12,3,51,1,1,g.PNG,g,6112a0826f404dc5c6ece834,2021-10-19_11h44.36.297,forced_choiceRT,2021.1.2,Win32,30.0120048,,,,,,,,,,,,,,,,,,,,,,
0,j,1,0.853,13,0,52,3,1,j.PNG,j,6112a0826f404dc5c6ece834,2021-10-19_11h44.36.297,forced_choiceRT,2021.1.2,Win32,30.0120048,,,,,,,,,,,,,,,,,,,,,,
0,g,1,1.119,13,1,53,1,1,g.PNG,g,6112a0826f404dc5c6ece834,2021-10-19_11h44.36.297,forced_choiceRT,2021.1.2,Win32,30.0120048,,,,,,,,,,,,,,,,,,,,,,
0,g,1,0.496,13,2,54,1,1,g.PNG,g,6112a0826f404dc5c6ece834,2021-10-19_11h44.36.297,forced_choiceRT,2021.1.2,Win32,30.0120048,,,,,,,,,,,,,,,,,,,,,,
0,h,1,0.709,13,3,55,2,1,h.PNG,h,6112a0826f404dc5c6ece834,2021-10-19_11h44.36.297,forced_choiceRT,2021.1.2,Win32,30.0120048,,,,,,,,,,,,,,,,,,,,,,
0,g,1,0.731,14,0,56,1,1,g.PNG,g,6112a0826f404dc5c6ece834,2021-10-19_11h44.36.297,forced_choiceRT,2021.1.2,Win32,30.0120048,,,,,,,,,,,,,,,,,,,,,,
0,j,1,0.82,14,1,57,3,1,j.PNG,j,6112a0826f404dc5c6ece834,2021-10-19_11h44.36.297,forced_choiceRT,2021.1.2,Win32,30.0120048,,,,,,,,,,,,,,,,,,,,,,
0,j,1,1.053,14,2,58,3,1,j.PNG,j,6112a0826f404dc5c6ece834,2021-10-19_11h44.36.297,forced_choiceRT,2021.1.2,Win32,30.0120048,,,,,,,,,,,,,,,,,,,,,,
0,f,1,0.703,14,3,59,0,1,f.PNG,f,6112a0826f404dc5c6ece834,2021-10-19_11h44.36.297,forced_choiceRT,2021.1.2,Win32,30.0120048,,,,,,,,,,,,,,,,,,,,,,
,,,,,,,,,,,6112a0826f404dc5c6ece834,2021-10-19_11h44.36.297,forced_choiceRT,2021.1.2,Win32,30.0120048,h,2.279,0,0,0,0,1,,,,,,,,,,,,,,,
,,,,,,,,,,,6112a0826f404dc5c6ece834,2021-10-19_11h44.36.297,forced_choiceRT,2021.1.2,Win32,30.0120048,h,1.896,1,0,1,0,1,,,,,,,,,,,,,,,
,,,,,,,,,,,6112a0826f404dc5c6ece834,2021-10-19_11h44.36.297,forced_choiceRT,2021.1.2,Win32,30.0120048,h,2.265,2,0,2,0,1,,,,,,,,,,,,,,,
,,,,,,,,,,,6112a0826f404dc5c6ece834,2021-10-19_11h44.36.297,forced_choiceRT,2021.1.2,Win32,30.0120048,f,2.127,3,0,3,0,1,,,,,,,,,,,,,,,
,,,,,,,,,,,6112a0826f404dc5c6ece834,2021-10-19_11h44.36.297,forced_choiceRT,2021.1.2,Win32,30.0120048,j,1.931,4,0,4,0,1,,,,,,,,,,,,,,,
,,,,,,,,,,,6112a0826f404dc5c6ece834,2021-10-19_11h44.36.297,forced_choiceRT,2021.1.2,Win32,30.0120048,j,1.841,5,0,5,0,1,,,,,,,,,,,,,,,
,,,,,,,,,,,6112a0826f404dc5c6ece834,2021-10-19_11h44.36.297,forced_choiceRT,2021.1.2,Win32,30.0120048,j,2.143,6,0,6,0,1,,,,,,,,,,,,,,,
,,,,,,,,,,,6112a0826f404dc5c6ece834,2021-10-19_11h44.36.297,forced_choiceRT,2021.1.2,Win32,30.0120048,j,2.074,7,0,7,0,1,,,,,,,,,,,,,,,
,,,,,,,,,,,6112a0826f404dc5c6ece834,2021-10-19_11h44.36.297,forced_choiceRT,2021.1.2,Win32,30.0120048,j,2.003,8,0,8,0,1,,,,,,,,,,,,,,,
,,,,,,,,,,,6112a0826f404dc5c6ece834,2021-10-19_11h44.36.297,forced_choiceRT,2021.1.2,Win32,30.0120048,f,2.069,9,0,9,0,1,,,,,,,,,,,,,,,
,,,,,,,,,,,6112a0826f404dc5c6ece834,2021-10-19_11h44.36.297,forced_choiceRT,2021.1.2,Win32,30.0120048,g,1.769,10,0,10,0,1,,,,,,,,,,,,,,,
,,,,,,,,,,,6112a0826f404dc5c6ece834,2021-10-19_11h44.36.297,forced_choiceRT,2021.1.2,Win32,30.0120048,h,1.825,11,0,11,0,1,,,,,,,,,,,,,,,
,,,,,,,,,,,6112a0826f404dc5c6ece834,2021-10-19_11h44.36.297,forced_choiceRT,2021.1.2,Win32,30.0120048,h,2.049,12,0,12,0,1,,,,,,,,,,,,,,,
,,,,,,,,,,,6112a0826f404dc5c6ece834,2021-10-19_11h44.36.297,forced_choiceRT,2021.1.2,Win32,30.0120048,h,1.927,13,0,13,0,1,,,,,,,,,,,,,,,
,,,,,,,,,,,6112a0826f404dc5c6ece834,2021-10-19_11h44.36.297,forced_choiceRT,2021.1.2,Win32,30.0120048,g,1.972,14,0,14,0,1,,,,,,,,,,,,,,,
,,,,,,,,,,,6112a0826f404dc5c6ece834,2021-10-19_11h44.36.297,forced_choiceRT,2021.1.2,Win32,30.0120048,j,1.965,15,0,15,0,1,,,,,,,,,,,,,,,
,,,,,,,,,,,6112a0826f404dc5c6ece834,2021-10-19_11h44.36.297,forced_choiceRT,2021.1.2,Win32,30.0120048,g,2.093,16,0,16,0,1,,,,,,,,,,,,,,,
,,,,,,,,,,,6112a0826f404dc5c6ece834,2021-10-19_11h44.36.297,forced_choiceRT,2021.1.2,Win32,30.0120048,f,2.016,17,0,17,0,1,,,,,,,,,,,,,,,
,,,,,,,,,,,6112a0826f404dc5c6ece834,2021-10-19_11h44.36.297,forced_choiceRT,2021.1.2,Win32,30.0120048,f,2.028,18,0,18,0,1,,,,,,,,,,,,,,,
,,,,,,,,,,,6112a0826f404dc5c6ece834,2021-10-19_11h44.36.297,forced_choiceRT,2021.1.2,Win32,30.0120048,f,2,19,0,19,0,1,,,,,,,,,,,,,,,
1.52,,,,,,,,,f.PNG,f,6112a0826f404dc5c6ece834,2021-10-19_11h44.36.297,forced_choiceRT,2021.1.2,Win32,30.0120048,,,,,,,,1,Ontime,h,0,1.969,0,0,0,0,1,,,,,
0.24,,,,,,,,,g.PNG,g,6112a0826f404dc5c6ece834,2021-10-19_11h44.36.297,forced_choiceRT,2021.1.2,Win32,30.0120048,,,,,,,,1,Fast,g,1,1.662,0,1,1,1,1,,,,,
0.38,,,,,,,,,j.PNG,j,6112a0826f404dc5c6ece834,2021-10-19_11h44.36.297,forced_choiceRT,2021.1.2,Win32,30.0120048,,,,,,,,1,Fast,j,1,1.79,0,2,2,3,1,,,,,
1.87,,,,,,,,,h.PNG,h,6112a0826f404dc5c6ece834,2021-10-19_11h44.36.297,forced_choiceRT,2021.1.2,Win32,30.0120048,,,,,,,,1,Slow,h,1,2.454,0,3,3,2,1,,,,,
0.97,,,,,,,,,h.PNG,h,6112a0826f404dc5c6ece834,2021-10-19_11h44.36.297,forced_choiceRT,2021.1.2,Win32,30.0120048,,,,,,,,1,Ontime,h,1,1.973,1,0,4,2,1,,,,,
0.87,,,,,,,,,h.PNG,h,6112a0826f404dc5c6ece834,2021-10-19_11h44.36.297,forced_choiceRT,2021.1.2,Win32,30.0120048,,,,,,,,1,Fast,h,1,1.889,1,1,5,2,1,,,,,
0.3,,,,,,,,,h.PNG,h,6112a0826f404dc5c6ece834,2021-10-19_11h44.36.297,forced_choiceRT,2021.1.2,Win32,30.0120048,,,,,,,,1,Ontime,h,1,2.036,1,2,6,2,1,,,,,
1.48,,,,,,,,,g.PNG,g,6112a0826f404dc5c6ece834,2021-10-19_11h44.36.297,forced_choiceRT,2021.1.2,Win32,30.0120048,,,,,,,,1,Ontime,g,1,2.03,1,3,7,1,1,,,,,
1.98,,,,,,,,,g.PNG,g,6112a0826f404dc5c6ece834,2021-10-19_11h44.36.297,forced_choiceRT,2021.1.2,Win32,30.0120048,,,,,,,,1,Slow,g,1,2.553,2,0,8,1,1,,,,,
1.35,,,,,,,,,f.PNG,f,6112a0826f404dc5c6ece834,2021-10-19_11h44.36.297,forced_choiceRT,2021.1.2,Win32,30.0120048,,,,,,,,1,Ontime,f,1,1.978,2,1,9,0,1,,,,,
1.5,,,,,,,,,f.PNG,f,6112a0826f404dc5c6ece834,2021-10-19_11h44.36.297,forced_choiceRT,2021.1.2,Win32,30.0120048,,,,,,,,1,Slow,f,1,2.163,2,2,10,0,1,,,,,
0.46,,,,,,,,,j.PNG,j,6112a0826f404dc5c6ece834,2021-10-19_11h44.36.297,forced_choiceRT,2021.1.2,Win32,30.0120048,,,,,,,,1,Ontime,j,1,2.018,2,3,11,3,1,,,,,
0.26,,,,,,,,,g.PNG,g,6112a0826f404dc5c6ece834,2021-10-19_11h44.36.297,forced_choiceRT,2021.1.2,Win32,30.0120048,,,,,,,,1,Ontime,g,1,1.938,3,0,12,1,1,,,,,
1.87,,,,,,,,,j.PNG,j,6112a0826f404dc5c6ece834,2021-10-19_11h44.36.297,forced_choiceRT,2021.1.2,Win32,30.0120048,,,,,,,,1,Slow,h,0,2.375,3,1,13,3,1,,,,,
0.13,,,,,,,,,h.PNG,h,6112a0826f404dc5c6ece834,2021-10-19_11h44.36.297,forced_choiceRT,2021.1.2,Win32,30.0120048,,,,,,,,1,Ontime,h,1,1.937,3,2,14,2,1,,,,,
0.75,,,,,,,,,f.PNG,f,6112a0826f404dc5c6ece834,2021-10-19_11h44.36.297,forced_choiceRT,2021.1.2,Win32,30.0120048,,,,,,,,1,Ontime,f,1,2.052,3,3,15,0,1,,,,,
0.25,,,,,,,,,h.PNG,h,6112a0826f404dc5c6ece834,2021-10-19_11h44.36.297,forced_choiceRT,2021.1.2,Win32,30.0120048,,,,,,,,1,Ontime,h,1,1.988,4,0,16,2,1,,,,,
1.8,,,,,,,,,j.PNG,j,6112a0826f404dc5c6ece834,2021-10-19_11h44.36.297,forced_choiceRT,2021.1.2,Win32,30.0120048,,,,,,,,1,Slow,j,1,2.173,4,1,17,3,1,,,,,
0.89,,,,,,,,,g.PNG,g,6112a0826f404dc5c6ece834,2021-10-19_11h44.36.297,forced_choiceRT,2021.1.2,Win32,30.0120048,,,,,,,,1,Ontime,g,1,1.971,4,2,18,1,1,,,,,
0.53,,,,,,,,,g.PNG,g,6112a0826f404dc5c6ece834,2021-10-19_11h44.36.297,forced_choiceRT,2021.1.2,Win32,30.0120048,,,,,,,,1,Ontime,g,1,1.964,4,3,19,1,1,,,,,
0.06,,,,,,,,,h.PNG,h,6112a0826f404dc5c6ece834,2021-10-19_11h44.36.297,forced_choiceRT,2021.1.2,Win32,30.0120048,,,,,,,,1,Ontime,h,1,2.083,5,0,20,2,1,,,,,
0.49,,,,,,,,,j.PNG,j,6112a0826f404dc5c6ece834,2021-10-19_11h44.36.297,forced_choiceRT,2021.1.2,Win32,30.0120048,,,,,,,,1,Ontime,j,1,1.966,5,1,21,3,1,,,,,
1.79,,,,,,,,,g.PNG,g,6112a0826f404dc5c6ece834,2021-10-19_11h44.36.297,forced_choiceRT,2021.1.2,Win32,30.0120048,,,,,,,,1,Slow,g,1,2.377,5,2,22,1,1,,,,,
1.09,,,,,,,,,g.PNG,g,6112a0826f404dc5c6ece834,2021-10-19_11h44.36.297,forced_choiceRT,2021.1.2,Win32,30.0120048,,,,,,,,1,Ontime,g,1,1.918,5,3,23,1,1,,,,,
0.42,,,,,,,,,j.PNG,j,6112a0826f404dc5c6ece834,2021-10-19_11h44.36.297,forced_choiceRT,2021.1.2,Win32,30.0120048,,,,,,,,1,Ontime,j,1,2.002,6,0,24,3,1,,,,,
1,,,,,,,,,f.PNG,f,6112a0826f404dc5c6ece834,2021-10-19_11h44.36.297,forced_choiceRT,2021.1.2,Win32,30.0120048,,,,,,,,1,Fast,f,1,1.883,6,1,25,0,1,,,,,
1.98,,,,,,,,,g.PNG,g,6112a0826f404dc5c6ece834,2021-10-19_11h44.36.297,forced_choiceRT,2021.1.2,Win32,30.0120048,,,,,,,,1,Slow,g,1,2.542,6,2,26,1,1,,,,,
1.59,,,,,,,,,f.PNG,f,6112a0826f404dc5c6ece834,2021-10-19_11h44.36.297,forced_choiceRT,2021.1.2,Win32,30.0120048,,,,,,,,1,Slow,f,1,2.12,6,3,27,0,1,,,,,
1.27,,,,,,,,,f.PNG,f,6112a0826f404dc5c6ece834,2021-10-19_11h44.36.297,forced_choiceRT,2021.1.2,Win32,30.0120048,,,,,,,,1,Ontime,f,1,2.028,7,0,28,0,1,,,,,
0.91,,,,,,,,,h.PNG,h,6112a0826f404dc5c6ece834,2021-10-19_11h44.36.297,forced_choiceRT,2021.1.2,Win32,30.0120048,,,,,,,,1,Ontime,h,1,2.065,7,1,29,2,1,,,,,
1.74,,,,,,,,,f.PNG,f,6112a0826f404dc5c6ece834,2021-10-19_11h44.36.297,forced_choiceRT,2021.1.2,Win32,30.0120048,,,,,,,,1,Slow,f,1,2.289,7,2,30,0,1,,,,,
0.34,,,,,,,,,j.PNG,j,6112a0826f404dc5c6ece834,2021-10-19_11h44.36.297,forced_choiceRT,2021.1.2,Win32,30.0120048,,,,,,,,1,Ontime,j,1,2.002,7,3,31,3,1,,,,,
0.7,,,,,,,,,g.PNG,g,6112a0826f404dc5c6ece834,2021-10-19_11h44.36.297,forced_choiceRT,2021.1.2,Win32,30.0120048,,,,,,,,1,Ontime,g,1,2.018,8,0,32,1,1,,,,,
0.11,,,,,,,,,f.PNG,f,6112a0826f404dc5c6ece834,2021-10-19_11h44.36.297,forced_choiceRT,2021.1.2,Win32,30.0120048,,,,,,,,1,Ontime,f,1,2.012,8,1,33,0,1,,,,,
0.55,,,,,,,,,h.PNG,h,6112a0826f404dc5c6ece834,2021-10-19_11h44.36.297,forced_choiceRT,2021.1.2,Win32,30.0120048,,,,,,,,1,Ontime,h,1,2.019,8,2,34,2,1,,,,,
1.88,,,,,,,,,j.PNG,j,6112a0826f404dc5c6ece834,2021-10-19_11h44.36.297,forced_choiceRT,2021.1.2,Win32,30.0120048,,,,,,,,1,Slow,h,0,2.449,8,3,35,3,1,,,,,
0.65,,,,,,,,,j.PNG,j,6112a0826f404dc5c6ece834,2021-10-19_11h44.36.297,forced_choiceRT,2021.1.2,Win32,30.0120048,,,,,,,,1,Ontime,j,1,1.962,9,0,36,3,1,,,,,
0.66,,,,,,,,,h.PNG,h,6112a0826f404dc5c6ece834,2021-10-19_11h44.36.297,forced_choiceRT,2021.1.2,Win32,30.0120048,,,,,,,,1,Ontime,h,1,1.944,9,1,37,2,1,,,,,
1.22,,,,,,,,,j.PNG,j,6112a0826f404dc5c6ece834,2021-10-19_11h44.36.297,forced_choiceRT,2021.1.2,Win32,30.0120048,,,,,,,,1,Ontime,j,1,2.073,9,2,38,3,1,,,,,
1.24,,,,,,,,,f.PNG,f,6112a0826f404dc5c6ece834,2021-10-19_11h44.36.297,forced_choiceRT,2021.1.2,Win32,30.0120048,,,,,,,,1,Ontime,f,1,1.985,9,3,39,0,1,,,,,
,,,,,,,,,,,6112a0826f404dc5c6ece834,2021-10-19_11h44.36.297,forced_choiceRT,2021.1.2,Win32,30.0120048,,,,,,,,,,,,,,,,,,0,0,0,0,1
0.45,,,,,,,,,g.PNG,g,6112a0826f404dc5c6ece834,2021-10-19_11h44.36.297,forced_choiceRT,2021.1.2,Win32,30.0120048,,,,,,,,2,Ontime,g,1,2.09,0,0,0,1,1,,,,,
1.06,,,,,,,,,j.PNG,j,6112a0826f404dc5c6ece834,2021-10-19_11h44.36.297,forced_choiceRT,2021.1.2,Win32,30.0120048,,,,,,,,2,Ontime,j,1,2.094,0,1,1,3,1,,,,,
0.62,,,,,,,,,h.PNG,h,6112a0826f404dc5c6ece834,2021-10-19_11h44.36.297,forced_choiceRT,2021.1.2,Win32,30.0120048,,,,,,,,2,Ontime,h,1,2.07,0,2,2,2,1,,,,,
0.74,,,,,,,,,f.PNG,f,6112a0826f404dc5c6ece834,2021-10-19_11h44.36.297,forced_choiceRT,2021.1.2,Win32,30.0120048,,,,,,,,2,Slow,f,1,2.109,0,3,3,0,1,,,,,
1.21,,,,,,,,,g.PNG,g,6112a0826f404dc5c6ece834,2021-10-19_11h44.36.297,forced_choiceRT,2021.1.2,Win32,30.0120048,,,,,,,,2,Ontime,g,1,1.991,1,0,4,1,1,,,,,
0.39,,,,,,,,,h.PNG,h,6112a0826f404dc5c6ece834,2021-10-19_11h44.36.297,forced_choiceRT,2021.1.2,Win32,30.0120048,,,,,,,,2,Ontime,h,1,2.04,1,1,5,2,1,,,,,
0.83,,,,,,,,,j.PNG,j,6112a0826f404dc5c6ece834,2021-10-19_11h44.36.297,forced_choiceRT,2021.1.2,Win32,30.0120048,,,,,,,,2,Ontime,j,1,2.061,1,2,6,3,1,,,,,
1.96,,,,,,,,,f.PNG,f,6112a0826f404dc5c6ece834,2021-10-19_11h44.36.297,forced_choiceRT,2021.1.2,Win32,30.0120048,,,,,,,,2,Slow,j,0,2.238,1,3,7,0,1,,,,,
0.33,,,,,,,,,f.PNG,f,6112a0826f404dc5c6ece834,2021-10-19_11h44.36.297,forced_choiceRT,2021.1.2,Win32,30.0120048,,,,,,,,2,Slow,f,1,2.147,2,0,8,0,1,,,,,
1.8,,,,,,,,,g.PNG,g,6112a0826f404dc5c6ece834,2021-10-19_11h44.36.297,forced_choiceRT,2021.1.2,Win32,30.0120048,,,,,,,,2,Slow,f,0,2.205,2,1,9,1,1,,,,,
0.3,,,,,,,,,h.PNG,h,6112a0826f404dc5c6ece834,2021-10-19_11h44.36.297,forced_choiceRT,2021.1.2,Win32,30.0120048,,,,,,,,2,Ontime,h,1,2.063,2,2,10,2,1,,,,,
0.61,,,,,,,,,j.PNG,j,6112a0826f404dc5c6ece834,2021-10-19_11h44.36.297,forced_choiceRT,2021.1.2,Win32,30.0120048,,,,,,,,2,Slow,j,1,2.159,2,3,11,3,1,,,,,
0.45,,,,,,,,,h.PNG,h,6112a0826f404dc5c6ece834,2021-10-19_11h44.36.297,forced_choiceRT,2021.1.2,Win32,30.0120048,,,,,,,,2,Ontime,h,1,2.096,3,0,12,2,1,,,,,
0.52,,,,,,,,,g.PNG,g,6112a0826f404dc5c6ece834,2021-10-19_11h44.36.297,forced_choiceRT,2021.1.2,Win32,30.0120048,,,,,,,,2,Ontime,g,1,1.946,3,1,13,1,1,,,,,
0.95,,,,,,,,,f.PNG,f,6112a0826f404dc5c6ece834,2021-10-19_11h44.36.297,forced_choiceRT,2021.1.2,Win32,30.0120048,,,,,,,,2,Ontime,f,1,1.976,3,2,14,0,1,,,,,
1.58,,,,,,,,,j.PNG,j,6112a0826f404dc5c6ece834,2021-10-19_11h44.36.297,forced_choiceRT,2021.1.2,Win32,30.0120048,,,,,,,,2,Ontime,j,1,1.998,3,3,15,3,1,,,,,
0.9,,,,,,,,,f.PNG,f,6112a0826f404dc5c6ece834,2021-10-19_11h44.36.297,forced_choiceRT,2021.1.2,Win32,30.0120048,,,,,,,,2,Fast,f,1,1.894,4,0,16,0,1,,,,,
0.29,,,,,,,,,j.PNG,j,6112a0826f404dc5c6ece834,2021-10-19_11h44.36.297,forced_choiceRT,2021.1.2,Win32,30.0120048,,,,,,,,2,Ontime,j,1,1.954,4,1,17,3,1,,,,,
0.5,,,,,,,,,g.PNG,g,6112a0826f404dc5c6ece834,2021-10-19_11h44.36.297,forced_choiceRT,2021.1.2,Win32,30.0120048,,,,,,,,2,Ontime,g,1,1.958,4,2,18,1,1,,,,,
0.17,,,,,,,,,g.PNG,g,6112a0826f404dc5c6ece834,2021-10-19_11h44.36.297,forced_choiceRT,2021.1.2,Win32,30.0120048,,,,,,,,2,Ontime,g,1,1.908,4,3,19,1,1,,,,,
1.14,,,,,,,,,f.PNG,f,6112a0826f404dc5c6ece834,2021-10-19_11h44.36.297,forced_choiceRT,2021.1.2,Win32,30.0120048,,,,,,,,2,Ontime,f,1,1.993,5,0,20,0,1,,,,,
1.19,,,,,,,,,f.PNG,f,6112a0826f404dc5c6ece834,2021-10-19_11h44.36.297,forced_choiceRT,2021.1.2,Win32,30.0120048,,,,,,,,2,Fast,f,1,1.779,5,1,21,0,1,,,,,
0.57,,,,,,,,,f.PNG,f,6112a0826f404dc5c6ece834,2021-10-19_11h44.36.297,forced_choiceRT,2021.1.2,Win32,30.0120048,,,,,,,,2,Ontime,f,1,1.971,5,2,22,0,1,,,,,
1.84,,,,,,,,,g.PNG,g,6112a0826f404dc5c6ece834,2021-10-19_11h44.36.297,forced_choiceRT,2021.1.2,Win32,30.0120048,,,,,,,,2,Slow,j,0,2.278,5,3,23,1,1,,,,,
1.04,,,,,,,,,j.PNG,j,6112a0826f404dc5c6ece834,2021-10-19_11h44.36.297,forced_choiceRT,2021.1.2,Win32,30.0120048,,,,,,,,2,Ontime,j,1,1.956,6,0,24,3,1,,,,,
1.17,,,,,,,,,h.PNG,h,6112a0826f404dc5c6ece834,2021-10-19_11h44.36.297,forced_choiceRT,2021.1.2,Win32,30.0120048,,,,,,,,2,Ontime,h,1,1.983,6,1,25,2,1,,,,,
1.35,,,,,,,,,h.PNG,h,6112a0826f404dc5c6ece834,2021-10-19_11h44.36.297,forced_choiceRT,2021.1.2,Win32,30.0120048,,,,,,,,2,Ontime,h,1,1.981,6,2,26,2,1,,,,,
0.68,,,,,,,,,j.PNG,j,6112a0826f404dc5c6ece834,2021-10-19_11h44.36.297,forced_choiceRT,2021.1.2,Win32,30.0120048,,,,,,,,2,Ontime,j,1,1.956,6,3,27,3,1,,,,,
1.99,,,,,,,,,h.PNG,h,6112a0826f404dc5c6ece834,2021-10-19_11h44.36.297,forced_choiceRT,2021.1.2,Win32,30.0120048,,,,,,,,2,Ontime,g,0,2.069,7,0,28,2,1,,,,,
0.11,,,,,,,,,g.PNG,g,6112a0826f404dc5c6ece834,2021-10-19_11h44.36.297,forced_choiceRT,2021.1.2,Win32,30.0120048,,,,,,,,2,Fast,g,1,1.698,7,1,29,1,1,,,,,
0.19,,,,,,,,,h.PNG,h,6112a0826f404dc5c6ece834,2021-10-19_11h44.36.297,forced_choiceRT,2021.1.2,Win32,30.0120048,,,,,,,,2,Ontime,h,1,2.011,7,2,30,2,1,,,,,
0.9,,,,,,,,,g.PNG,g,6112a0826f404dc5c6ece834,2021-10-19_11h44.36.297,forced_choiceRT,2021.1.2,Win32,30.0120048,,,,,,,,2,Ontime,g,1,1.971,7,3,31,1,1,,,,,
0.61,,,,,,,,,h.PNG,h,6112a0826f404dc5c6ece834,2021-10-19_11h44.36.297,forced_choiceRT,2021.1.2,Win32,30.0120048,,,,,,,,2,Ontime,h,1,1.951,8,0,32,2,1,,,,,
0.05,,,,,,,,,f.PNG,f,6112a0826f404dc5c6ece834,2021-10-19_11h44.36.297,forced_choiceRT,2021.1.2,Win32,30.0120048,,,,,,,,2,Ontime,f,1,1.917,8,1,33,0,1,,,,,
1,,,,,,,,,j.PNG,j,6112a0826f404dc5c6ece834,2021-10-19_11h44.36.297,forced_choiceRT,2021.1.2,Win32,30.0120048,,,,,,,,2,Ontime,j,1,1.934,8,2,34,3,1,,,,,
0.84,,,,,,,,,h.PNG,h,6112a0826f404dc5c6ece834,2021-10-19_11h44.36.297,forced_choiceRT,2021.1.2,Win32,30.0120048,,,,,,,,2,Ontime,h,1,2.043,8,3,35,2,1,,,,,
0.41,,,,,,,,,j.PNG,j,6112a0826f404dc5c6ece834,2021-10-19_11h44.36.297,forced_choiceRT,2021.1.2,Win32,30.0120048,,,,,,,,2,Ontime,j,1,2.067,9,0,36,3,1,,,,,
1.25,,,,,,,,,f.PNG,f,6112a0826f404dc5c6ece834,2021-10-19_11h44.36.297,forced_choiceRT,2021.1.2,Win32,30.0120048,,,,,,,,2,Ontime,f,1,2.025,9,1,37,0,1,,,,,
0.04,,,,,,,,,g.PNG,g,6112a0826f404dc5c6ece834,2021-10-19_11h44.36.297,forced_choiceRT,2021.1.2,Win32,30.0120048,,,,,,,,2,Ontime,g,1,1.912,9,2,38,1,1,,,,,
0.77,,,,,,,,,j.PNG,j,6112a0826f404dc5c6ece834,2021-10-19_11h44.36.297,forced_choiceRT,2021.1.2,Win32,30.0120048,,,,,,,,2,Ontime,j,1,1.908,9,3,39,3,1,,,,,
,,,,,,,,,,,6112a0826f404dc5c6ece834,2021-10-19_11h44.36.297,forced_choiceRT,2021.1.2,Win32,30.0120048,,,,,,,,,,,,,,,,,,1,0,1,0,1
0.11,,,,,,,,,j.PNG,j,6112a0826f404dc5c6ece834,2021-10-19_11h44.36.297,forced_choiceRT,2021.1.2,Win32,30.0120048,,,,,,,,3,Ontime,j,1,1.93,0,0,0,3,1,,,,,
0.15,,,,,,,,,j.PNG,j,6112a0826f404dc5c6ece834,2021-10-19_11h44.36.297,forced_choiceRT,2021.1.2,Win32,30.0120048,,,,,,,,3,Ontime,j,1,1.95,0,1,1,3,1,,,,,
1.38,,,,,,,,,j.PNG,j,6112a0826f404dc5c6ece834,2021-10-19_11h44.36.297,forced_choiceRT,2021.1.2,Win32,30.0120048,,,,,,,,3,Fast,j,1,1.844,0,2,2,3,1,,,,,
0.56,,,,,,,,,h.PNG,h,6112a0826f404dc5c6ece834,2021-10-19_11h44.36.297,forced_choiceRT,2021.1.2,Win32,30.0120048,,,,,,,,3,Ontime,h,1,1.958,0,3,3,2,1,,,,,
1.46,,,,,,,,,h.PNG,h,6112a0826f404dc5c6ece834,2021-10-19_11h44.36.297,forced_choiceRT,2021.1.2,Win32,30.0120048,,,,,,,,3,Ontime,h,1,2.054,1,0,4,2,1,,,,,
0.59,,,,,,,,,j.PNG,j,6112a0826f404dc5c6ece834,2021-10-19_11h44.36.297,forced_choiceRT,2021.1.2,Win32,30.0120048,,,,,,,,3,Ontime,j,1,2.015,1,1,5,3,1,,,,,
1.79,,,,,,,,,h.PNG,h,6112a0826f404dc5c6ece834,2021-10-19_11h44.36.297,forced_choiceRT,2021.1.2,Win32,30.0120048,,,,,,,,3,Ontime,j,0,2.026,1,2,6,2,1,,,,,
0.79,,,,,,,,,j.PNG,j,6112a0826f404dc5c6ece834,2021-10-19_11h44.36.297,forced_choiceRT,2021.1.2,Win32,30.0120048,,,,,,,,3,Ontime,j,1,1.936,1,3,7,3,1,,,,,
0.35,,,,,,,,,h.PNG,h,6112a0826f404dc5c6ece834,2021-10-19_11h44.36.297,forced_choiceRT,2021.1.2,Win32,30.0120048,,,,,,,,3,Ontime,h,1,2.063,2,0,8,2,1,,,,,
1,,,,,,,,,f.PNG,f,6112a0826f404dc5c6ece834,2021-10-19_11h44.36.297,forced_choiceRT,2021.1.2,Win32,30.0120048,,,,,,,,3,Ontime,f,1,2.028,2,1,9,0,1,,,,,
0.08,,,,,,,,,j.PNG,j,6112a0826f404dc5c6ece834,2021-10-19_11h44.36.297,forced_choiceRT,2021.1.2,Win32,30.0120048,,,,,,,,3,Ontime,j,1,2.079,2,2,10,3,1,,,,,
1.16,,,,,,,,,f.PNG,f,6112a0826f404dc5c6ece834,2021-10-19_11h44.36.297,forced_choiceRT,2021.1.2,Win32,30.0120048,,,,,,,,3,Ontime,f,1,2.007,2,3,11,0,1,,,,,
0.14,,,,,,,,,f.PNG,f,6112a0826f404dc5c6ece834,2021-10-19_11h44.36.297,forced_choiceRT,2021.1.2,Win32,30.0120048,,,,,,,,3,Ontime,f,1,2.057,3,0,12,0,1,,,,,
1.08,,,,,,,,,g.PNG,g,6112a0826f404dc5c6ece834,2021-10-19_11h44.36.297,forced_choiceRT,2021.1.2,Win32,30.0120048,,,,,,,,3,Ontime,g,1,1.908,3,1,13,1,1,,,,,
0.86,,,,,,,,,h.PNG,h,6112a0826f404dc5c6ece834,2021-10-19_11h44.36.297,forced_choiceRT,2021.1.2,Win32,30.0120048,,,,,,,,3,Ontime,h,1,1.996,3,2,14,2,1,,,,,
0.62,,,,,,,,,f.PNG,f,6112a0826f404dc5c6ece834,2021-10-19_11h44.36.297,forced_choiceRT,2021.1.2,Win32,30.0120048,,,,,,,,3,Ontime,f,1,1.958,3,3,15,0,1,,,,,
1.25,,,,,,,,,g.PNG,g,6112a0826f404dc5c6ece834,2021-10-19_11h44.36.297,forced_choiceRT,2021.1.2,Win32,30.0120048,,,,,,,,3,Ontime,g,1,1.97,4,0,16,1,1,,,,,
0.78,,,,,,,,,h.PNG,h,6112a0826f404dc5c6ece834,2021-10-19_11h44.36.297,forced_choiceRT,2021.1.2,Win32,30.0120048,,,,,,,,3,Ontime,h,1,1.912,4,1,17,2,1,,,,,
1.42,,,,,,,,,f.PNG,f,6112a0826f404dc5c6ece834,2021-10-19_11h44.36.297,forced_choiceRT,2021.1.2,Win32,30.0120048,,,,,,,,3,Ontime,f,1,2.014,4,2,18,0,1,,,,,
1.77,,,,,,,,,j.PNG,j,6112a0826f404dc5c6ece834,2021-10-19_11h44.36.297,forced_choiceRT,2021.1.2,Win32,30.0120048,,,,,,,,3,Ontime,j,1,1.968,4,3,19,3,1,,,,,
1.45,,,,,,,,,f.PNG,f,6112a0826f404dc5c6ece834,2021-10-19_11h44.36.297,forced_choiceRT,2021.1.2,Win32,30.0120048,,,,,,,,3,Ontime,f,1,1.936,5,0,20,0,1,,,,,
1.07,,,,,,,,,h.PNG,h,6112a0826f404dc5c6ece834,2021-10-19_11h44.36.297,forced_choiceRT,2021.1.2,Win32,30.0120048,,,,,,,,3,Ontime,h,1,1.961,5,1,21,2,1,,,,,
0.8,,,,,,,,,g.PNG,g,6112a0826f404dc5c6ece834,2021-10-19_11h44.36.297,forced_choiceRT,2021.1.2,Win32,30.0120048,,,,,,,,3,Ontime,g,1,1.934,5,2,22,1,1,,,,,
1.76,,,,,,,,,h.PNG,h,6112a0826f404dc5c6ece834,2021-10-19_11h44.36.297,forced_choiceRT,2021.1.2,Win32,30.0120048,,,,,,,,3,Ontime,j,0,1.947,5,3,23,2,1,,,,,
1.32,,,,,,,,,g.PNG,g,6112a0826f404dc5c6ece834,2021-10-19_11h44.36.297,forced_choiceRT,2021.1.2,Win32,30.0120048,,,,,,,,3,Ontime,g,1,2.019,6,0,24,1,1,,,,,
0.27,,,,,,,,,g.PNG,g,6112a0826f404dc5c6ece834,2021-10-19_11h44.36.297,forced_choiceRT,2021.1.2,Win32,30.0120048,,,,,,,,3,Ontime,g,1,1.904,6,1,25,1,1,,,,,
0.04,,,,,,,,,g.PNG,g,6112a0826f404dc5c6ece834,2021-10-19_11h44.36.297,forced_choiceRT,2021.1.2,Win32,30.0120048,,,,,,,,3,Ontime,g,1,2.035,6,2,26,1,1,,,,,
1.36,,,,,,,,,j.PNG,j,6112a0826f404dc5c6ece834,2021-10-19_11h44.36.297,forced_choiceRT,2021.1.2,Win32,30.0120048,,,,,,,,3,Ontime,j,1,2.021,6,3,27,3,1,,,,,
0.73,,,,,,,,,g.PNG,g,6112a0826f404dc5c6ece834,2021-10-19_11h44.36.297,forced_choiceRT,2021.1.2,Win32,30.0120048,,,,,,,,3,Fast,g,1,1.893,7,0,28,1,1,,,,,
1.72,,,,,,,,,g.PNG,g,6112a0826f404dc5c6ece834,2021-10-19_11h44.36.297,forced_choiceRT,2021.1.2,Win32,30.0120048,,,,,,,,3,Slow,g,1,2.257,7,1,29,1,1,,,,,
1,,,,,,,,,j.PNG,j,6112a0826f404dc5c6ece834,2021-10-19_11h44.36.297,forced_choiceRT,2021.1.2,Win32,30.0120048,,,,,,,,3,Ontime,j,1,1.944,7,2,30,3,1,,,,,
1.35,,,,,,,,,g.PNG,g,6112a0826f404dc5c6ece834,2021-10-19_11h44.36.297,forced_choiceRT,2021.1.2,Win32,30.0120048,,,,,,,,3,Fast,h,0,1.899,7,3,31,1,1,,,,,
1.83,,,,,,,,,f.PNG,f,6112a0826f404dc5c6ece834,2021-10-19_11h44.36.297,forced_choiceRT,2021.1.2,Win32,30.0120048,,,,,,,,3,Slow,g,0,2.353,8,0,32,0,1,,,,,
0.45,,,,,,,,,f.PNG,f,6112a0826f404dc5c6ece834,2021-10-19_11h44.36.297,forced_choiceRT,2021.1.2,Win32,30.0120048,,,,,,,,3,Ontime,f,1,1.931,8,1,33,0,1,,,,,
1.42,,,,,,,,,f.PNG,f,6112a0826f404dc5c6ece834,2021-10-19_11h44.36.297,forced_choiceRT,2021.1.2,Win32,30.0120048,,,,,,,,3,Ontime,f,1,2.023,8,2,34,0,1,,,,,
0.34,,,,,,,,,j.PNG,j,6112a0826f404dc5c6ece834,2021-10-19_11h44.36.297,forced_choiceRT,2021.1.2,Win32,30.0120048,,,,,,,,3,Ontime,j,1,2.029,8,3,35,3,1,,,,,
1.52,,,,,,,,,f.PNG,f,6112a0826f404dc5c6ece834,2021-10-19_11h44.36.297,forced_choiceRT,2021.1.2,Win32,30.0120048,,,,,,,,3,Slow,g,0,2.112,9,0,36,0,1,,,,,
1.18,,,,,,,,,g.PNG,g,6112a0826f404dc5c6ece834,2021-10-19_11h44.36.297,forced_choiceRT,2021.1.2,Win32,30.0120048,,,,,,,,3,Ontime,g,1,1.995,9,1,37,1,1,,,,,
1.43,,,,,,,,,h.PNG,h,6112a0826f404dc5c6ece834,2021-10-19_11h44.36.297,forced_choiceRT,2021.1.2,Win32,30.0120048,,,,,,,,3,Slow,f,0,2.218,9,2,38,2,1,,,,,
0.74,,,,,,,,,h.PNG,h,6112a0826f404dc5c6ece834,2021-10-19_11h44.36.297,forced_choiceRT,2021.1.2,Win32,30.0120048,,,,,,,,3,Ontime,h,1,1.912,9,3,39,2,1,,,,,
,,,,,,,,,,,6112a0826f404dc5c6ece834,2021-10-19_11h44.36.297,forced_choiceRT,2021.1.2,Win32,30.0120048,,,,,,,,,,,,,,,,,,2,0,2,0,1
1.4,,,,,,,,,g.PNG,g,6112a0826f404dc5c6ece834,2021-10-19_11h44.36.297,forced_choiceRT,2021.1.2,Win32,30.0120048,,,,,,,,4,Ontime,g,1,2.011,0,0,0,1,1,,,,,
0.38,,,,,,,,,g.PNG,g,6112a0826f404dc5c6ece834,2021-10-19_11h44.36.297,forced_choiceRT,2021.1.2,Win32,30.0120048,,,,,,,,4,Fast,g,1,1.728,0,1,1,1,1,,,,,
0.83,,,,,,,,,g.PNG,g,6112a0826f404dc5c6ece834,2021-10-19_11h44.36.297,forced_choiceRT,2021.1.2,Win32,30.0120048,,,,,,,,4,Ontime,g,1,2.075,0,2,2,1,1,,,,,
1.14,,,,,,,,,g.PNG,g,6112a0826f404dc5c6ece834,2021-10-19_11h44.36.297,forced_choiceRT,2021.1.2,Win32,30.0120048,,,,,,,,4,Slow,g,1,2.106,0,3,3,1,1,,,,,
1.9,,,,,,,,,j.PNG,j,6112a0826f404dc5c6ece834,2021-10-19_11h44.36.297,forced_choiceRT,2021.1.2,Win32,30.0120048,,,,,,,,4,Ontime,j,1,1.974,1,0,4,3,1,,,,,
1.6,,,,,,,,,f.PNG,f,6112a0826f404dc5c6ece834,2021-10-19_11h44.36.297,forced_choiceRT,2021.1.2,Win32,30.0120048,,,,,,,,4,Slow,f,1,2.265,1,1,5,0,1,,,,,
1.63,,,,,,,,,h.PNG,h,6112a0826f404dc5c6ece834,2021-10-19_11h44.36.297,forced_choiceRT,2021.1.2,Win32,30.0120048,,,,,,,,4,Slow,j,0,2.26,1,2,6,2,1,,,,,
0.24,,,,,,,,,j.PNG,j,6112a0826f404dc5c6ece834,2021-10-19_11h44.36.297,forced_choiceRT,2021.1.2,Win32,30.0120048,,,,,,,,4,Ontime,j,1,1.979,1,3,7,3,1,,,,,
1.96,,,,,,,,,h.PNG,h,6112a0826f404dc5c6ece834,2021-10-19_11h44.36.297,forced_choiceRT,2021.1.2,Win32,30.0120048,,,,,,,,4,Ontime,j,0,1.969,2,0,8,2,1,,,,,
1.45,,,,,,,,,j.PNG,j,6112a0826f404dc5c6ece834,2021-10-19_11h44.36.297,forced_choiceRT,2021.1.2,Win32,30.0120048,,,,,,,,4,Ontime,h,0,1.985,2,1,9,3,1,,,,,
1.91,,,,,,,,,f.PNG,f,6112a0826f404dc5c6ece834,2021-10-19_11h44.36.297,forced_choiceRT,2021.1.2,Win32,30.0120048,,,,,,,,4,Ontime,j,0,1.94,2,2,10,0,1,,,,,
0.89,,,,,,,,,f.PNG,f,6112a0826f404dc5c6ece834,2021-10-19_11h44.36.297,forced_choiceRT,2021.1.2,Win32,30.0120048,,,,,,,,4,Slow,f,1,2.169,2,3,11,0,1,,,,,
0.68,,,,,,,,,h.PNG,h,6112a0826f404dc5c6ece834,2021-10-19_11h44.36.297,forced_choiceRT,2021.1.2,Win32,30.0120048,,,,,,,,4,Fast,h,1,1.782,3,0,12,2,1,,,,,
0.48,,,,,,,,,g.PNG,g,6112a0826f404dc5c6ece834,2021-10-19_11h44.36.297,forced_choiceRT,2021.1.2,Win32,30.0120048,,,,,,,,4,Ontime,g,1,2.097,3,1,13,1,1,,,,,
0.66,,,,,,,,,f.PNG,f,6112a0826f404dc5c6ece834,2021-10-19_11h44.36.297,forced_choiceRT,2021.1.2,Win32,30.0120048,,,,,,,,4,Ontime,f,1,2.036,3,2,14,0,1,,,,,
1.02,,,,,,,,,f.PNG,f,6112a0826f404dc5c6ece834,2021-10-19_11h44.36.297,forced_choiceRT,2021.1.2,Win32,30.0120048,,,,,,,,4,Ontime,f,1,1.946,3,3,15,0,1,,,,,
0.7,,,,,,,,,h.PNG,h,6112a0826f404dc5c6ece834,2021-10-19_11h44.36.297,forced_choiceRT,2021.1.2,Win32,30.0120048,,,,,,,,4,Fast,h,1,1.8,4,0,16,2,1,,,,,
0.57,,,,,,,,,f.PNG,f,6112a0826f404dc5c6ece834,2021-10-19_11h44.36.297,forced_choiceRT,2021.1.2,Win32,30.0120048,,,,,,,,4,Ontime,f,1,2,4,1,17,0,1,,,,,
1.46,,,,,,,,,h.PNG,h,6112a0826f404dc5c6ece834,2021-10-19_11h44.36.297,forced_choiceRT,2021.1.2,Win32,30.0120048,,,,,,,,4,Ontime,h,1,2.047,4,2,18,2,1,,,,,
1.78,,,,,,,,,f.PNG,f,6112a0826f404dc5c6ece834,2021-10-19_11h44.36.297,forced_choiceRT,2021.1.2,Win32,30.0120048,,,,,,,,4,Ontime,j,0,2.025,4,3,19,0,1,,,,,
0.52,,,,,,,,,h.PNG,h,6112a0826f404dc5c6ece834,2021-10-19_11h44.36.297,forced_choiceRT,2021.1.2,Win32,30.0120048,,,,,,,,4,Ontime,h,1,1.98,5,0,20,2,1,,,,,
1.14,,,,,,,,,j.PNG,j,6112a0826f404dc5c6ece834,2021-10-19_11h44.36.297,forced_choiceRT,2021.1.2,Win32,30.0120048,,,,,,,,4,Ontime,j,1,2.085,5,1,21,3,1,,,,,
1.82,,,,,,,,,j.PNG,j,6112a0826f404dc5c6ece834,2021-10-19_11h44.36.297,forced_choiceRT,2021.1.2,Win32,30.0120048,,,,,,,,4,Ontime,f,0,1.953,5,2,22,3,1,,,,,
1.46,,,,,,,,,g.PNG,g,6112a0826f404dc5c6ece834,2021-10-19_11h44.36.297,forced_choiceRT,2021.1.2,Win32,30.0120048,,,,,,,,4,Ontime,f,0,1.931,5,3,23,1,1,,,,,
0.15,,,,,,,,,g.PNG,g,6112a0826f404dc5c6ece834,2021-10-19_11h44.36.297,forced_choiceRT,2021.1.2,Win32,30.0120048,,,,,,,,4,Fast,g,1,1.734,6,0,24,1,1,,,,,
0.27,,,,,,,,,f.PNG,f,6112a0826f404dc5c6ece834,2021-10-19_11h44.36.297,forced_choiceRT,2021.1.2,Win32,30.0120048,,,,,,,,4,Slow,f,1,2.107,6,1,25,0,1,,,,,
0.37,,,,,,,,,h.PNG,h,6112a0826f404dc5c6ece834,2021-10-19_11h44.36.297,forced_choiceRT,2021.1.2,Win32,30.0120048,,,,,,,,4,Ontime,h,1,1.975,6,2,26,2,1,,,,,
0.59,,,,,,,,,g.PNG,g,6112a0826f404dc5c6ece834,2021-10-19_11h44.36.297,forced_choiceRT,2021.1.2,Win32,30.0120048,,,,,,,,4,Ontime,g,1,2.037,6,3,27,1,1,,,,,
1.85,,,,,,,,,h.PNG,h,6112a0826f404dc5c6ece834,2021-10-19_11h44.36.297,forced_choiceRT,2021.1.2,Win32,30.0120048,,,,,,,,4,Ontime,j,0,1.977,7,0,28,2,1,,,,,
1.37,,,,,,,,,j.PNG,j,6112a0826f404dc5c6ece834,2021-10-19_11h44.36.297,forced_choiceRT,2021.1.2,Win32,30.0120048,,,,,,,,4,Ontime,h,0,2.03,7,1,29,3,1,,,,,
1.04,,,,,,,,,j.PNG,j,6112a0826f404dc5c6ece834,2021-10-19_11h44.36.297,forced_choiceRT,2021.1.2,Win32,30.0120048,,,,,,,,4,Ontime,j,1,2.02,7,2,30,3,1,,,,,
0.96,,,,,,,,,g.PNG,g,6112a0826f404dc5c6ece834,2021-10-19_11h44.36.297,forced_choiceRT,2021.1.2,Win32,30.0120048,,,,,,,,4,Ontime,g,1,1.971,7,3,31,1,1,,,,,
0.33,,,,,,,,,f.PNG,f,6112a0826f404dc5c6ece834,2021-10-19_11h44.36.297,forced_choiceRT,2021.1.2,Win32,30.0120048,,,,,,,,4,Ontime,f,1,1.945,8,0,32,0,1,,,,,
1.69,,,,,,,,,j.PNG,j,6112a0826f404dc5c6ece834,2021-10-19_11h44.36.297,forced_choiceRT,2021.1.2,Win32,30.0120048,,,,,,,,4,Ontime,j,1,2.069,8,1,33,3,1,,,,,
0.93,,,,,,,,,h.PNG,h,6112a0826f404dc5c6ece834,2021-10-19_11h44.36.297,forced_choiceRT,2021.1.2,Win32,30.0120048,,,,,,,,4,Ontime,h,1,1.954,8,2,34,2,1,,,,,
0.98,,,,,,,,,j.PNG,j,6112a0826f404dc5c6ece834,2021-10-19_11h44.36.297,forced_choiceRT,2021.1.2,Win32,30.0120048,,,,,,,,4,Fast,j,1,1.88,8,3,35,3,1,,,,,
1.32,,,,,,,,,f.PNG,f,6112a0826f404dc5c6ece834,2021-10-19_11h44.36.297,forced_choiceRT,2021.1.2,Win32,30.0120048,,,,,,,,4,Ontime,g,0,2.074,9,0,36,0,1,,,,,
1.09,,,,,,,,,j.PNG,j,6112a0826f404dc5c6ece834,2021-10-19_11h44.36.297,forced_choiceRT,2021.1.2,Win32,30.0120048,,,,,,,,4,Ontime,j,1,2.016,9,1,37,3,1,,,,,
0.4,,,,,,,,,h.PNG,h,6112a0826f404dc5c6ece834,2021-10-19_11h44.36.297,forced_choiceRT,2021.1.2,Win32,30.0120048,,,,,,,,4,Ontime,h,1,1.934,9,2,38,2,1,,,,,
0.33,,,,,,,,,g.PNG,g,6112a0826f404dc5c6ece834,2021-10-19_11h44.36.297,forced_choiceRT,2021.1.2,Win32,30.0120048,,,,,,,,4,Ontime,g,1,2.069,9,3,39,1,1,,,,,
,,,,,,,,,,,6112a0826f404dc5c6ece834,2021-10-19_11h44.36.297,forced_choiceRT,2021.1.2,Win32,30.0120048,,,,,,,,,,,,,,,,,,3,0,3,0,1
0.87,,,,,,,,,f.PNG,f,6112a0826f404dc5c6ece834,2021-10-19_11h44.36.297,forced_choiceRT,2021.1.2,Win32,30.0120048,,,,,,,,5,Slow,g,0,2.168,0,0,0,0,1,,,,,
1.26,,,,,,,,,f.PNG,f,6112a0826f404dc5c6ece834,2021-10-19_11h44.36.297,forced_choiceRT,2021.1.2,Win32,30.0120048,,,,,,,,5,Ontime,f,1,2.097,0,1,1,0,1,,,,,
1.73,,,,,,,,,j.PNG,j,6112a0826f404dc5c6ece834,2021-10-19_11h44.36.297,forced_choiceRT,2021.1.2,Win32,30.0120048,,,,,,,,5,Slow,h,0,2.157,0,2,2,3,1,,,,,
1.67,,,,,,,,,g.PNG,g,6112a0826f404dc5c6ece834,2021-10-19_11h44.36.297,forced_choiceRT,2021.1.2,Win32,30.0120048,,,,,,,,5,Slow,g,1,2.398,0,3,3,1,1,,,,,
1.74,,,,,,,,,h.PNG,h,6112a0826f404dc5c6ece834,2021-10-19_11h44.36.297,forced_choiceRT,2021.1.2,Win32,30.0120048,,,,,,,,5,Ontime,j,0,1.949,1,0,4,2,1,,,,,
0.5,,,,,,,,,g.PNG,g,6112a0826f404dc5c6ece834,2021-10-19_11h44.36.297,forced_choiceRT,2021.1.2,Win32,30.0120048,,,,,,,,5,Ontime,g,1,1.952,1,1,5,1,1,,,,,
0.21,,,,,,,,,g.PNG,g,6112a0826f404dc5c6ece834,2021-10-19_11h44.36.297,forced_choiceRT,2021.1.2,Win32,30.0120048,,,,,,,,5,Ontime,g,1,2.032,1,2,6,1,1,,,,,
0.51,,,,,,,,,j.PNG,j,6112a0826f404dc5c6ece834,2021-10-19_11h44.36.297,forced_choiceRT,2021.1.2,Win32,30.0120048,,,,,,,,5,Ontime,j,1,1.982,1,3,7,3,1,,,,,
0.36,,,,,,,,,h.PNG,h,6112a0826f404dc5c6ece834,2021-10-19_11h44.36.297,forced_choiceRT,2021.1.2,Win32,30.0120048,,,,,,,,5,Ontime,h,1,2.086,2,0,8,2,1,,,,,
1.88,,,,,,,,,j.PNG,j,6112a0826f404dc5c6ece834,2021-10-19_11h44.36.297,forced_choiceRT,2021.1.2,Win32,30.0120048,,,,,,,,5,Ontime,g,0,2.037,2,1,9,3,1,,,,,
0.95,,,,,,,,,j.PNG,j,6112a0826f404dc5c6ece834,2021-10-19_11h44.36.297,forced_choiceRT,2021.1.2,Win32,30.0120048,,,,,,,,5,Ontime,j,1,1.946,2,2,10,3,1,,,,,
0.59,,,,,,,,,h.PNG,h,6112a0826f404dc5c6ece834,2021-10-19_11h44.36.297,forced_choiceRT,2021.1.2,Win32,30.0120048,,,,,,,,5,Ontime,h,1,2.036,2,3,11,2,1,,,,,
1.61,,,,,,,,,j.PNG,j,6112a0826f404dc5c6ece834,2021-10-19_11h44.36.297,forced_choiceRT,2021.1.2,Win32,30.0120048,,,,,,,,5,Ontime,h,0,2.041,3,0,12,3,1,,,,,
0.69,,,,,,,,,j.PNG,j,6112a0826f404dc5c6ece834,2021-10-19_11h44.36.297,forced_choiceRT,2021.1.2,Win32,30.0120048,,,,,,,,5,Ontime,j,1,1.922,3,1,13,3,1,,,,,
0.4,,,,,,,,,h.PNG,h,6112a0826f404dc5c6ece834,2021-10-19_11h44.36.297,forced_choiceRT,2021.1.2,Win32,30.0120048,,,,,,,,5,Ontime,h,1,1.991,3,2,14,2,1,,,,,
0.71,,,,,,,,,g.PNG,g,6112a0826f404dc5c6ece834,2021-10-19_11h44.36.297,forced_choiceRT,2021.1.2,Win32,30.0120048,,,,,,,,5,Ontime,g,1,2.02,3,3,15,1,1,,,,,
0.15,,,,,,,,,f.PNG,f,6112a0826f404dc5c6ece834,2021-10-19_11h44.36.297,forced_choiceRT,2021.1.2,Win32,30.0120048,,,,,,,,5,Fast,f,1,1.89,4,0,16,0,1,,,,,
0.05,,,,,,,,,h.PNG,h,6112a0826f404dc5c6ece834,2021-10-19_11h44.36.297,forced_choiceRT,2021.1.2,Win32,30.0120048,,,,,,,,5,Fast,h,1,1.894,4,1,17,2,1,,,,,
0,,,,,,,,,f.PNG,f,6112a0826f404dc5c6ece834,2021-10-19_11h44.36.297,forced_choiceRT,2021.1.2,Win32,30.0120048,,,,,,,,5,Slow,f,1,2.138,4,2,18,0,1,,,,,
0.98,,,,,,,,,h.PNG,h,6112a0826f404dc5c6ece834,2021-10-19_11h44.36.297,forced_choiceRT,2021.1.2,Win32,30.0120048,,,,,,,,5,Ontime,h,1,1.971,4,3,19,2,1,,,,,
0.67,,,,,,,,,g.PNG,g,6112a0826f404dc5c6ece834,2021-10-19_11h44.36.297,forced_choiceRT,2021.1.2,Win32,30.0120048,,,,,,,,5,Ontime,g,1,1.933,5,0,20,1,1,,,,,
1.08,,,,,,,,,h.PNG,h,6112a0826f404dc5c6ece834,2021-10-19_11h44.36.297,forced_choiceRT,2021.1.2,Win32,30.0120048,,,,,,,,5,Ontime,h,1,1.999,5,1,21,2,1,,,,,
0.85,,,,,,,,,g.PNG,g,6112a0826f404dc5c6ece834,2021-10-19_11h44.36.297,forced_choiceRT,2021.1.2,Win32,30.0120048,,,,,,,,5,Ontime,g,1,2.029,5,2,22,1,1,,,,,
0.27,,,,,,,,,g.PNG,g,6112a0826f404dc5c6ece834,2021-10-19_11h44.36.297,forced_choiceRT,2021.1.2,Win32,30.0120048,,,,,,,,5,Ontime,g,1,2.003,5,3,23,1,1,,,,,
0.97,,,,,,,,,h.PNG,h,6112a0826f404dc5c6ece834,2021-10-19_11h44.36.297,forced_choiceRT,2021.1.2,Win32,30.0120048,,,,,,,,5,Ontime,h,1,1.961,6,0,24,2,1,,,,,
1.08,,,,,,,,,f.PNG,f,6112a0826f404dc5c6ece834,2021-10-19_11h44.36.297,forced_choiceRT,2021.1.2,Win32,30.0120048,,,,,,,,5,Ontime,g,0,1.976,6,1,25,0,1,,,,,
0.74,,,,,,,,,h.PNG,h,6112a0826f404dc5c6ece834,2021-10-19_11h44.36.297,forced_choiceRT,2021.1.2,Win32,30.0120048,,,,,,,,5,Ontime,h,1,1.986,6,2,26,2,1,,,,,
1.11,,,,,,,,,f.PNG,f,6112a0826f404dc5c6ece834,2021-10-19_11h44.36.297,forced_choiceRT,2021.1.2,Win32,30.0120048,,,,,,,,5,Ontime,f,1,2.033,6,3,27,0,1,,,,,
0.32,,,,,,,,,g.PNG,g,6112a0826f404dc5c6ece834,2021-10-19_11h44.36.297,forced_choiceRT,2021.1.2,Win32,30.0120048,,,,,,,,5,Ontime,g,1,1.921,7,0,28,1,1,,,,,
1.31,,,,,,,,,j.PNG,j,6112a0826f404dc5c6ece834,2021-10-19_11h44.36.297,forced_choiceRT,2021.1.2,Win32,30.0120048,,,,,,,,5,Ontime,j,1,1.981,7,1,29,3,1,,,,,
1.84,,,,,,,,,f.PNG,f,6112a0826f404dc5c6ece834,2021-10-19_11h44.36.297,forced_choiceRT,2021.1.2,Win32,30.0120048,,,,,,,,5,Ontime,j,0,2.056,7,2,30,0,1,,,,,
0.85,,,,,,,,,h.PNG,h,6112a0826f404dc5c6ece834,2021-10-19_11h44.36.297,forced_choiceRT,2021.1.2,Win32,30.0120048,,,,,,,,5,Ontime,h,1,2.055,7,3,31,2,1,,,,,
1.33,,,,,,,,,j.PNG,j,6112a0826f404dc5c6ece834,2021-10-19_11h44.36.297,forced_choiceRT,2021.1.2,Win32,30.0120048,,,,,,,,5,Ontime,j,1,2.047,8,0,32,3,1,,,,,
0.38,,,,,,,,,g.PNG,g,6112a0826f404dc5c6ece834,2021-10-19_11h44.36.297,forced_choiceRT,2021.1.2,Win32,30.0120048,,,,,,,,5,Ontime,g,1,2.004,8,1,33,1,1,,,,,
1.47,,,,,,,,,f.PNG,f,6112a0826f404dc5c6ece834,2021-10-19_11h44.36.297,forced_choiceRT,2021.1.2,Win32,30.0120048,,,,,,,,5,Ontime,f,1,2.046,8,2,34,0,1,,,,,
1.53,,,,,,,,,f.PNG,f,6112a0826f404dc5c6ece834,2021-10-19_11h44.36.297,forced_choiceRT,2021.1.2,Win32,30.0120048,,,,,,,,5,Slow,f,1,2.235,8,3,35,0,1,,,,,
1.55,,,,,,,,,f.PNG,f,6112a0826f404dc5c6ece834,2021-10-19_11h44.36.297,forced_choiceRT,2021.1.2,Win32,30.0120048,,,,,,,,5,Ontime,f,1,1.993,9,0,36,0,1,,,,,
1.75,,,,,,,,,j.PNG,j,6112a0826f404dc5c6ece834,2021-10-19_11h44.36.297,forced_choiceRT,2021.1.2,Win32,30.0120048,,,,,,,,5,Ontime,f,0,2.032,9,1,37,3,1,,,,,
1.45,,,,,,,,,j.PNG,j,6112a0826f404dc5c6ece834,2021-10-19_11h44.36.297,forced_choiceRT,2021.1.2,Win32,30.0120048,,,,,,,,5,Ontime,j,1,2.099,9,2,38,3,1,,,,,
0.71,,,,,,,,,g.PNG,g,6112a0826f404dc5c6ece834,2021-10-19_11h44.36.297,forced_choiceRT,2021.1.2,Win32,30.0120048,,,,,,,,5,Ontime,g,1,2.063,9,3,39,1,1,,,,,
,,,,,,,,,,,6112a0826f404dc5c6ece834,2021-10-19_11h44.36.297,forced_choiceRT,2021.1.2,Win32,30.0120048,,,,,,,,,,,,,,,,,,4,0,4,0,1
0.3,,,,,,,,,f.PNG,f,6112a0826f404dc5c6ece834,2021-10-19_11h44.36.297,forced_choiceRT,2021.1.2,Win32,30.0120048,,,,,,,,6,Slow,f,1,2.191,0,0,0,0,1,,,,,
0.86,,,,,,,,,h.PNG,h,6112a0826f404dc5c6ece834,2021-10-19_11h44.36.297,forced_choiceRT,2021.1.2,Win32,30.0120048,,,,,,,,6,Ontime,h,1,1.988,0,1,1,2,1,,,,,
0.49,,,,,,,,,j.PNG,j,6112a0826f404dc5c6ece834,2021-10-19_11h44.36.297,forced_choiceRT,2021.1.2,Win32,30.0120048,,,,,,,,6,Ontime,j,1,2.048,0,2,2,3,1,,,,,
0.25,,,,,,,,,j.PNG,j,6112a0826f404dc5c6ece834,2021-10-19_11h44.36.297,forced_choiceRT,2021.1.2,Win32,30.0120048,,,,,,,,6,Ontime,j,1,1.991,0,3,3,3,1,,,,,
0.24,,,,,,,,,h.PNG,h,6112a0826f404dc5c6ece834,2021-10-19_11h44.36.297,forced_choiceRT,2021.1.2,Win32,30.0120048,,,,,,,,6,Ontime,h,1,2.014,1,0,4,2,1,,,,,
1.09,,,,,,,,,h.PNG,h,6112a0826f404dc5c6ece834,2021-10-19_11h44.36.297,forced_choiceRT,2021.1.2,Win32,30.0120048,,,,,,,,6,Ontime,h,1,2.08,1,1,5,2,1,,,,,
0.57,,,,,,,,,h.PNG,h,6112a0826f404dc5c6ece834,2021-10-19_11h44.36.297,forced_choiceRT,2021.1.2,Win32,30.0120048,,,,,,,,6,Ontime,h,1,2.022,1,2,6,2,1,,,,,
1.12,,,,,,,,,g.PNG,g,6112a0826f404dc5c6ece834,2021-10-19_11h44.36.297,forced_choiceRT,2021.1.2,Win32,30.0120048,,,,,,,,6,Ontime,g,1,1.994,1,3,7,1,1,,,,,
1.22,,,,,,,,,f.PNG,f,6112a0826f404dc5c6ece834,2021-10-19_11h44.36.297,forced_choiceRT,2021.1.2,Win32,30.0120048,,,,,,,,6,Ontime,f,1,1.969,2,0,8,0,1,,,,,
1.32,,,,,,,,,g.PNG,g,6112a0826f404dc5c6ece834,2021-10-19_11h44.36.297,forced_choiceRT,2021.1.2,Win32,30.0120048,,,,,,,,6,Ontime,g,1,2.058,2,1,9,1,1,,,,,
1.45,,,,,,,,,g.PNG,g,6112a0826f404dc5c6ece834,2021-10-19_11h44.36.297,forced_choiceRT,2021.1.2,Win32,30.0120048,,,,,,,,6,Fast,h,0,1.671,2,2,10,1,1,,,,,
1.39,,,,,,,,,g.PNG,g,6112a0826f404dc5c6ece834,2021-10-19_11h44.36.297,forced_choiceRT,2021.1.2,Win32,30.0120048,,,,,,,,6,Ontime,g,1,2.052,2,3,11,1,1,,,,,
0.5,,,,,,,,,g.PNG,g,6112a0826f404dc5c6ece834,2021-10-19_11h44.36.297,forced_choiceRT,2021.1.2,Win32,30.0120048,,,,,,,,6,Ontime,g,1,1.963,3,0,12,1,1,,,,,
1.31,,,,,,,,,j.PNG,j,6112a0826f404dc5c6ece834,2021-10-19_11h44.36.297,forced_choiceRT,2021.1.2,Win32,30.0120048,,,,,,,,6,Ontime,j,1,1.996,3,1,13,3,1,,,,,
1.4,,,,,,,,,f.PNG,f,6112a0826f404dc5c6ece834,2021-10-19_11h44.36.297,forced_choiceRT,2021.1.2,Win32,30.0120048,,,,,,,,6,Ontime,f,1,2.041,3,2,14,0,1,,,,,
1.53,,,,,,,,,h.PNG,h,6112a0826f404dc5c6ece834,2021-10-19_11h44.36.297,forced_choiceRT,2021.1.2,Win32,30.0120048,,,,,,,,6,Slow,h,1,2.109,3,3,15,2,1,,,,,
0.67,,,,,,,,,j.PNG,j,6112a0826f404dc5c6ece834,2021-10-19_11h44.36.297,forced_choiceRT,2021.1.2,Win32,30.0120048,,,,,,,,6,Ontime,j,1,2.05,4,0,16,3,1,,,,,
1.34,,,,,,,,,j.PNG,j,6112a0826f404dc5c6ece834,2021-10-19_11h44.36.297,forced_choiceRT,2021.1.2,Win32,30.0120048,,,,,,,,6,Ontime,j,1,1.949,4,1,17,3,1,,,,,
1.38,,,,,,,,,f.PNG,f,6112a0826f404dc5c6ece834,2021-10-19_11h44.36.297,forced_choiceRT,2021.1.2,Win32,30.0120048,,,,,,,,6,Ontime,f,1,2.097,4,2,18,0,1,,,,,
1.81,,,,,,,,,j.PNG,j,6112a0826f404dc5c6ece834,2021-10-19_11h44.36.297,forced_choiceRT,2021.1.2,Win32,30.0120048,,,,,,,,6,Slow,f,0,2.27,4,3,19,3,1,,,,,
1.62,,,,,,,,,g.PNG,g,6112a0826f404dc5c6ece834,2021-10-19_11h44.36.297,forced_choiceRT,2021.1.2,Win32,30.0120048,,,,,,,,6,Ontime,f,0,2.032,5,0,20,1,1,,,,,
1.66,,,,,,,,,g.PNG,g,6112a0826f404dc5c6ece834,2021-10-19_11h44.36.297,forced_choiceRT,2021.1.2,Win32,30.0120048,,,,,,,,6,Ontime,f,0,2.026,5,1,21,1,1,,,,,
1.07,,,,,,,,,g.PNG,g,6112a0826f404dc5c6ece834,2021-10-19_11h44.36.297,forced_choiceRT,2021.1.2,Win32,30.0120048,,,,,,,,6,Ontime,g,1,2.056,5,2,22,1,1,,,,,
0.52,,,,,,,,,f.PNG,f,6112a0826f404dc5c6ece834,2021-10-19_11h44.36.297,forced_choiceRT,2021.1.2,Win32,30.0120048,,,,,,,,6,Ontime,f,1,2.066,5,3,23,0,1,,,,,
0.09,,,,,,,,,h.PNG,h,6112a0826f404dc5c6ece834,2021-10-19_11h44.36.297,forced_choiceRT,2021.1.2,Win32,30.0120048,,,,,,,,6,Ontime,h,1,1.91,6,0,24,2,1,,,,,
0.72,,,,,,,,,f.PNG,f,6112a0826f404dc5c6ece834,2021-10-19_11h44.36.297,forced_choiceRT,2021.1.2,Win32,30.0120048,,,,,,,,6,Ontime,f,1,1.935,6,1,25,0,1,,,,,
1.48,,,,,,,,,h.PNG,h,6112a0826f404dc5c6ece834,2021-10-19_11h44.36.297,forced_choiceRT,2021.1.2,Win32,30.0120048,,,,,,,,6,Ontime,j,0,2.094,6,2,26,2,1,,,,,
0.37,,,,,,,,,f.PNG,f,6112a0826f404dc5c6ece834,2021-10-19_11h44.36.297,forced_choiceRT,2021.1.2,Win32,30.0120048,,,,,,,,6,Ontime,f,1,1.905,6,3,27,0,1,,,,,
0.96,,,,,,,,,f.PNG,f,6112a0826f404dc5c6ece834,2021-10-19_11h44.36.297,forced_choiceRT,2021.1.2,Win32,30.0120048,,,,,,,,6,Ontime,f,1,1.955,7,0,28,0,1,,,,,
0.8,,,,,,,,,h.PNG,h,6112a0826f404dc5c6ece834,2021-10-19_11h44.36.297,forced_choiceRT,2021.1.2,Win32,30.0120048,,,,,,,,6,Ontime,h,1,2.056,7,1,29,2,1,,,,,
0.51,,,,,,,,,g.PNG,g,6112a0826f404dc5c6ece834,2021-10-19_11h44.36.297,forced_choiceRT,2021.1.2,Win32,30.0120048,,,,,,,,6,Ontime,g,1,1.989,7,2,30,1,1,,,,,
1.65,,,,,,,,,g.PNG,g,6112a0826f404dc5c6ece834,2021-10-19_11h44.36.297,forced_choiceRT,2021.1.2,Win32,30.0120048,,,,,,,,6,Ontime,j,0,2.088,7,3,31,1,1,,,,,
1.97,,,,,,,,,h.PNG,h,6112a0826f404dc5c6ece834,2021-10-19_11h44.36.297,forced_choiceRT,2021.1.2,Win32,30.0120048,,,,,,,,6,Slow,g,0,2.154,8,0,32,2,1,,,,,
0.68,,,,,,,,,f.PNG,f,6112a0826f404dc5c6ece834,2021-10-19_11h44.36.297,forced_choiceRT,2021.1.2,Win32,30.0120048,,,,,,,,6,Ontime,f,1,1.949,8,1,33,0,1,,,,,
0.83,,,,,,,,,j.PNG,j,6112a0826f404dc5c6ece834,2021-10-19_11h44.36.297,forced_choiceRT,2021.1.2,Win32,30.0120048,,,,,,,,6,Ontime,j,1,1.935,8,2,34,3,1,,,,,
1.93,,,,,,,,,h.PNG,h,6112a0826f404dc5c6ece834,2021-10-19_11h44.36.297,forced_choiceRT,2021.1.2,Win32,30.0120048,,,,,,,,6,Slow,j,0,2.31,8,3,35,2,1,,,,,
0.21,,,,,,,,,j.PNG,j,6112a0826f404dc5c6ece834,2021-10-19_11h44.36.297,forced_choiceRT,2021.1.2,Win32,30.0120048,,,,,,,,6,Ontime,j,1,2.03,9,0,36,3,1,,,,,
1.52,,,,,,,,,j.PNG,j,6112a0826f404dc5c6ece834,2021-10-19_11h44.36.297,forced_choiceRT,2021.1.2,Win32,30.0120048,,,,,,,,6,Slow,j,1,2.131,9,1,37,3,1,,,,,
1.55,,,,,,,,,f.PNG,f,6112a0826f404dc5c6ece834,2021-10-19_11h44.36.297,forced_choiceRT,2021.1.2,Win32,30.0120048,,,,,,,,6,Slow,f,1,2.183,9,2,38,0,1,,,,,
0.7,,,,,,,,,j.PNG,j,6112a0826f404dc5c6ece834,2021-10-19_11h44.36.297,forced_choiceRT,2021.1.2,Win32,30.0120048,,,,,,,,6,Ontime,j,1,1.952,9,3,39,3,1,,,,,
,,,,,,,,,,,6112a0826f404dc5c6ece834,2021-10-19_11h44.36.297,forced_choiceRT,2021.1.2,Win32,30.0120048,,,,,,,,,,,,,,,,,,5,0,5,0,1
0.43,,,,,,,,,f.PNG,f,6112a0826f404dc5c6ece834,2021-10-19_11h44.36.297,forced_choiceRT,2021.1.2,Win32,30.0120048,,,,,,,,7,Ontime,f,1,1.949,0,0,0,0,1,,,,,
0.54,,,,,,,,,h.PNG,h,6112a0826f404dc5c6ece834,2021-10-19_11h44.36.297,forced_choiceRT,2021.1.2,Win32,30.0120048,,,,,,,,7,Ontime,h,1,1.918,0,1,1,2,1,,,,,
0.32,,,,,,,,,g.PNG,g,6112a0826f404dc5c6ece834,2021-10-19_11h44.36.297,forced_choiceRT,2021.1.2,Win32,30.0120048,,,,,,,,7,Ontime,g,1,2.002,0,2,2,1,1,,,,,
0.71,,,,,,,,,h.PNG,h,6112a0826f404dc5c6ece834,2021-10-19_11h44.36.297,forced_choiceRT,2021.1.2,Win32,30.0120048,,,,,,,,7,Ontime,h,1,2.086,0,3,3,2,1,,,,,
0.68,,,,,,,,,g.PNG,g,6112a0826f404dc5c6ece834,2021-10-19_11h44.36.297,forced_choiceRT,2021.1.2,Win32,30.0120048,,,,,,,,7,Ontime,g,1,1.981,1,0,4,1,1,,,,,
0.09,,,,,,,,,j.PNG,j,6112a0826f404dc5c6ece834,2021-10-19_11h44.36.297,forced_choiceRT,2021.1.2,Win32,30.0120048,,,,,,,,7,Ontime,j,1,2.021,1,1,5,3,1,,,,,
0.27,,,,,,,,,j.PNG,j,6112a0826f404dc5c6ece834,2021-10-19_11h44.36.297,forced_choiceRT,2021.1.2,Win32,30.0120048,,,,,,,,7,Ontime,j,1,2.042,1,2,6,3,1,,,,,
1.57,,,,,,,,,j.PNG,j,6112a0826f404dc5c6ece834,2021-10-19_11h44.36.297,forced_choiceRT,2021.1.2,Win32,30.0120048,,,,,,,,7,Ontime,j,1,1.974,1,3,7,3,1,,,,,
1.03,,,,,,,,,f.PNG,f,6112a0826f404dc5c6ece834,2021-10-19_11h44.36.297,forced_choiceRT,2021.1.2,Win32,30.0120048,,,,,,,,7,Ontime,f,1,2.025,2,0,8,0,1,,,,,
1.89,,,,,,,,,g.PNG,g,6112a0826f404dc5c6ece834,2021-10-19_11h44.36.297,forced_choiceRT,2021.1.2,Win32,30.0120048,,,,,,,,7,Ontime,g,1,2.024,2,1,9,1,1,,,,,
1.81,,,,,,,,,h.PNG,h,6112a0826f404dc5c6ece834,2021-10-19_11h44.36.297,forced_choiceRT,2021.1.2,Win32,30.0120048,,,,,,,,7,Ontime,h,1,2.008,2,2,10,2,1,,,,,
0.89,,,,,,,,,h.PNG,h,6112a0826f404dc5c6ece834,2021-10-19_11h44.36.297,forced_choiceRT,2021.1.2,Win32,30.0120048,,,,,,,,7,Ontime,h,1,2.017,2,3,11,2,1,,,,,
1.97,,,,,,,,,f.PNG,f,6112a0826f404dc5c6ece834,2021-10-19_11h44.36.297,forced_choiceRT,2021.1.2,Win32,30.0120048,,,,,,,,7,Ontime,j,0,2.02,3,0,12,0,1,,,,,
0.84,,,,,,,,,h.PNG,h,6112a0826f404dc5c6ece834,2021-10-19_11h44.36.297,forced_choiceRT,2021.1.2,Win32,30.0120048,,,,,,,,7,Ontime,h,1,2.043,3,1,13,2,1,,,,,
1.4,,,,,,,,,f.PNG,f,6112a0826f404dc5c6ece834,2021-10-19_11h44.36.297,forced_choiceRT,2021.1.2,Win32,30.0120048,,,,,,,,7,Ontime,f,1,2.04,3,2,14,0,1,,,,,
1.77,,,,,,,,,g.PNG,g,6112a0826f404dc5c6ece834,2021-10-19_11h44.36.297,forced_choiceRT,2021.1.2,Win32,30.0120048,,,,,,,,7,Ontime,h,0,1.979,3,3,15,1,1,,,,,
0.6,,,,,,,,,g.PNG,g,6112a0826f404dc5c6ece834,2021-10-19_11h44.36.297,forced_choiceRT,2021.1.2,Win32,30.0120048,,,,,,,,7,Slow,g,1,2.129,4,0,16,1,1,,,,,
1.19,,,,,,,,,g.PNG,g,6112a0826f404dc5c6ece834,2021-10-19_11h44.36.297,forced_choiceRT,2021.1.2,Win32,30.0120048,,,,,,,,7,Fast,g,1,1.882,4,1,17,1,1,,,,,
0.45,,,,,,,,,h.PNG,h,6112a0826f404dc5c6ece834,2021-10-19_11h44.36.297,forced_choiceRT,2021.1.2,Win32,30.0120048,,,,,,,,7,Ontime,h,1,1.971,4,2,18,2,1,,,,,
0.68,,,,,,,,,g.PNG,g,6112a0826f404dc5c6ece834,2021-10-19_11h44.36.297,forced_choiceRT,2021.1.2,Win32,30.0120048,,,,,,,,7,Ontime,g,1,1.942,4,3,19,1,1,,,,,
1.48,,,,,,,,,j.PNG,j,6112a0826f404dc5c6ece834,2021-10-19_11h44.36.297,forced_choiceRT,2021.1.2,Win32,30.0120048,,,,,,,,7,Ontime,j,1,2.1,5,0,20,3,1,,,,,
0.87,,,,,,,,,h.PNG,h,6112a0826f404dc5c6ece834,2021-10-19_11h44.36.297,forced_choiceRT,2021.1.2,Win32,30.0120048,,,,,,,,7,Ontime,h,1,1.955,5,1,21,2,1,,,,,
0.06,,,,,,,,,h.PNG,h,6112a0826f404dc5c6ece834,2021-10-19_11h44.36.297,forced_choiceRT,2021.1.2,Win32,30.0120048,,,,,,,,7,Ontime,h,1,1.906,5,2,22,2,1,,,,,
1.94,,,,,,,,,f.PNG,f,6112a0826f404dc5c6ece834,2021-10-19_11h44.36.297,forced_choiceRT,2021.1.2,Win32,30.0120048,,,,,,,,7,Ontime,j,0,1.989,5,3,23,0,1,,,,,
1.33,,,,,,,,,f.PNG,f,6112a0826f404dc5c6ece834,2021-10-19_11h44.36.297,forced_choiceRT,2021.1.2,Win32,30.0120048,,,,,,,,7,Ontime,f,1,2.017,6,0,24,0,1,,,,,
1.84,,,,,,,,,f.PNG,f,6112a0826f404dc5c6ece834,2021-10-19_11h44.36.297,forced_choiceRT,2021.1.2,Win32,30.0120048,,,,,,,,7,Ontime,g,0,2.037,6,1,25,0,1,,,,,
0.49,,,,,,,,,h.PNG,h,6112a0826f404dc5c6ece834,2021-10-19_11h44.36.297,forced_choiceRT,2021.1.2,Win32,30.0120048,,,,,,,,7,Ontime,h,1,2.018,6,2,26,2,1,,,,,
1.72,,,,,,,,,j.PNG,j,6112a0826f404dc5c6ece834,2021-10-19_11h44.36.297,forced_choiceRT,2021.1.2,Win32,30.0120048,,,,,,,,7,Ontime,j,1,2.042,6,3,27,3,1,,,,,
1.64,,,,,,,,,j.PNG,j,6112a0826f404dc5c6ece834,2021-10-19_11h44.36.297,forced_choiceRT,2021.1.2,Win32,30.0120048,,,,,,,,7,Ontime,j,1,2.011,7,0,28,3,1,,,,,
1.03,,,,,,,,,h.PNG,h,6112a0826f404dc5c6ece834,2021-10-19_11h44.36.297,forced_choiceRT,2021.1.2,Win32,30.0120048,,,,,,,,7,Ontime,h,1,2.013,7,1,29,2,1,,,,,
1.69,,,,,,,,,f.PNG,f,6112a0826f404dc5c6ece834,2021-10-19_11h44.36.297,forced_choiceRT,2021.1.2,Win32,30.0120048,,,,,,,,7,Slow,g,0,2.23,7,2,30,0,1,,,,,
1.27,,,,,,,,,j.PNG,j,6112a0826f404dc5c6ece834,2021-10-19_11h44.36.297,forced_choiceRT,2021.1.2,Win32,30.0120048,,,,,,,,7,Ontime,h,0,1.984,7,3,31,3,1,,,,,
0.87,,,,,,,,,g.PNG,g,6112a0826f404dc5c6ece834,2021-10-19_11h44.36.297,forced_choiceRT,2021.1.2,Win32,30.0120048,,,,,,,,7,Ontime,g,1,1.984,8,0,32,1,1,,,,,
1.22,,,,,,,,,j.PNG,j,6112a0826f404dc5c6ece834,2021-10-19_11h44.36.297,forced_choiceRT,2021.1.2,Win32,30.0120048,,,,,,,,7,Ontime,j,1,2.072,8,1,33,3,1,,,,,
1.02,,,,,,,,,j.PNG,j,6112a0826f404dc5c6ece834,2021-10-19_11h44.36.297,forced_choiceRT,2021.1.2,Win32,30.0120048,,,,,,,,7,Ontime,j,1,1.989,8,2,34,3,1,,,,,
1.72,,,,,,,,,g.PNG,g,6112a0826f404dc5c6ece834,2021-10-19_11h44.36.297,forced_choiceRT,2021.1.2,Win32,30.0120048,,,,,,,,7,Ontime,g,1,1.956,8,3,35,1,1,,,,,
0.49,,,,,,,,,f.PNG,f,6112a0826f404dc5c6ece834,2021-10-19_11h44.36.297,forced_choiceRT,2021.1.2,Win32,30.0120048,,,,,,,,7,Slow,f,1,2.155,9,0,36,0,1,,,,,
1.34,,,,,,,,,g.PNG,g,6112a0826f404dc5c6ece834,2021-10-19_11h44.36.297,forced_choiceRT,2021.1.2,Win32,30.0120048,,,,,,,,7,Ontime,g,1,1.954,9,1,37,1,1,,,,,
0.03,,,,,,,,,f.PNG,f,6112a0826f404dc5c6ece834,2021-10-19_11h44.36.297,forced_choiceRT,2021.1.2,Win32,30.0120048,,,,,,,,7,Ontime,f,1,2.017,9,2,38,0,1,,,,,
1.07,,,,,,,,,j.PNG,j,6112a0826f404dc5c6ece834,2021-10-19_11h44.36.297,forced_choiceRT,2021.1.2,Win32,30.0120048,,,,,,,,7,Ontime,j,1,1.975,9,3,39,3,1,,,,,
,,,,,,,,,,,6112a0826f404dc5c6ece834,2021-10-19_11h44.36.297,forced_choiceRT,2021.1.2,Win32,30.0120048,,,,,,,,,,,,,,,,,,6,0,6,0,1
1.34,,,,,,,,,h.PNG,h,6112a0826f404dc5c6ece834,2021-10-19_11h44.36.297,forced_choiceRT,2021.1.2,Win32,30.0120048,,,,,,,,8,Ontime,h,1,1.912,0,0,0,2,1,,,,,
1.41,,,,,,,,,j.PNG,j,6112a0826f404dc5c6ece834,2021-10-19_11h44.36.297,forced_choiceRT,2021.1.2,Win32,30.0120048,,,,,,,,8,Ontime,j,1,2.067,0,1,1,3,1,,,,,
1.45,,,,,,,,,g.PNG,g,6112a0826f404dc5c6ece834,2021-10-19_11h44.36.297,forced_choiceRT,2021.1.2,Win32,30.0120048,,,,,,,,8,Slow,g,1,2.108,0,2,2,1,1,,,,,
0.28,,,,,,,,,f.PNG,f,6112a0826f404dc5c6ece834,2021-10-19_11h44.36.297,forced_choiceRT,2021.1.2,Win32,30.0120048,,,,,,,,8,Ontime,f,1,1.978,0,3,3,0,1,,,,,
0.16,,,,,,,,,g.PNG,g,6112a0826f404dc5c6ece834,2021-10-19_11h44.36.297,forced_choiceRT,2021.1.2,Win32,30.0120048,,,,,,,,8,Ontime,g,1,1.966,1,0,4,1,1,,,,,
1.72,,,,,,,,,h.PNG,h,6112a0826f404dc5c6ece834,2021-10-19_11h44.36.297,forced_choiceRT,2021.1.2,Win32,30.0120048,,,,,,,,8,Ontime,j,0,1.938,1,1,5,2,1,,,,,
0.19,,,,,,,,,g.PNG,g,6112a0826f404dc5c6ece834,2021-10-19_11h44.36.297,forced_choiceRT,2021.1.2,Win32,30.0120048,,,,,,,,8,Ontime,g,1,1.904,1,2,6,1,1,,,,,
1.29,,,,,,,,,f.PNG,f,6112a0826f404dc5c6ece834,2021-10-19_11h44.36.297,forced_choiceRT,2021.1.2,Win32,30.0120048,,,,,,,,8,Ontime,f,1,1.995,1,3,7,0,1,,,,,
1.17,,,,,,,,,h.PNG,h,6112a0826f404dc5c6ece834,2021-10-19_11h44.36.297,forced_choiceRT,2021.1.2,Win32,30.0120048,,,,,,,,8,Fast,h,1,1.876,2,0,8,2,1,,,,,
0.2,,,,,,,,,g.PNG,g,6112a0826f404dc5c6ece834,2021-10-19_11h44.36.297,forced_choiceRT,2021.1.2,Win32,30.0120048,,,,,,,,8,Ontime,g,1,2.009,2,1,9,1,1,,,,,
1.52,,,,,,,,,f.PNG,f,6112a0826f404dc5c6ece834,2021-10-19_11h44.36.297,forced_choiceRT,2021.1.2,Win32,30.0120048,,,,,,,,8,Slow,f,1,2.145,2,2,10,0,1,,,,,
0.91,,,,,,,,,h.PNG,h,6112a0826f404dc5c6ece834,2021-10-19_11h44.36.297,forced_choiceRT,2021.1.2,Win32,30.0120048,,,,,,,,8,Ontime,h,1,1.954,2,3,11,2,1,,,,,
1.59,,,,,,,,,j.PNG,j,6112a0826f404dc5c6ece834,2021-10-19_11h44.36.297,forced_choiceRT,2021.1.2,Win32,30.0120048,,,,,,,,8,Ontime,j,1,2.032,3,0,12,3,1,,,,,
1.63,,,,,,,,,f.PNG,f,6112a0826f404dc5c6ece834,2021-10-19_11h44.36.297,forced_choiceRT,2021.1.2,Win32,30.0120048,,,,,,,,8,Ontime,j,0,1.98,3,1,13,0,1,,,,,
1.56,,,,,,,,,j.PNG,j,6112a0826f404dc5c6ece834,2021-10-19_11h44.36.297,forced_choiceRT,2021.1.2,Win32,30.0120048,,,,,,,,8,Ontime,g,0,1.964,3,2,14,3,1,,,,,
1.97,,,,,,,,,j.PNG,j,6112a0826f404dc5c6ece834,2021-10-19_11h44.36.297,forced_choiceRT,2021.1.2,Win32,30.0120048,,,,,,,,8,Ontime,g,0,2.021,3,3,15,3,1,,,,,
0.34,,,,,,,,,g.PNG,g,6112a0826f404dc5c6ece834,2021-10-19_11h44.36.297,forced_choiceRT,2021.1.2,Win32,30.0120048,,,,,,,,8,Ontime,g,1,2.043,4,0,16,1,1,,,,,
0.74,,,,,,,,,f.PNG,f,6112a0826f404dc5c6ece834,2021-10-19_11h44.36.297,forced_choiceRT,2021.1.2,Win32,30.0120048,,,,,,,,8,Ontime,f,1,2.019,4,1,17,0,1,,,,,
1.98,,,,,,,,,j.PNG,j,6112a0826f404dc5c6ece834,2021-10-19_11h44.36.297,forced_choiceRT,2021.1.2,Win32,30.0120048,,,,,,,,8,Ontime,h,0,2.045,4,2,18,3,1,,,,,
0.81,,,,,,,,,f.PNG,f,6112a0826f404dc5c6ece834,2021-10-19_11h44.36.297,forced_choiceRT,2021.1.2,Win32,30.0120048,,,,,,,,8,Ontime,f,1,1.989,4,3,19,0,1,,,,,
0.75,,,,,,,,,f.PNG,f,6112a0826f404dc5c6ece834,2021-10-19_11h44.36.297,forced_choiceRT,2021.1.2,Win32,30.0120048,,,,,,,,8,Fast,f,1,1.878,5,0,20,0,1,,,,,
1.37,,,,,,,,,h.PNG,h,6112a0826f404dc5c6ece834,2021-10-19_11h44.36.297,forced_choiceRT,2021.1.2,Win32,30.0120048,,,,,,,,8,Ontime,h,1,2.011,5,1,21,2,1,,,,,
1.34,,,,,,,,,j.PNG,j,6112a0826f404dc5c6ece834,2021-10-19_11h44.36.297,forced_choiceRT,2021.1.2,Win32,30.0120048,,,,,,,,8,Fast,j,1,1.899,5,2,22,3,1,,,,,
0,,,,,,,,,g.PNG,g,6112a0826f404dc5c6ece834,2021-10-19_11h44.36.297,forced_choiceRT,2021.1.2,Win32,30.0120048,,,,,,,,8,Ontime,g,1,2.009,5,3,23,1,1,,,,,
1.24,,,,,,,,,h.PNG,h,6112a0826f404dc5c6ece834,2021-10-19_11h44.36.297,forced_choiceRT,2021.1.2,Win32,30.0120048,,,,,,,,8,Fast,h,1,1.885,6,0,24,2,1,,,,,
1.32,,,,,,,,,g.PNG,g,6112a0826f404dc5c6ece834,2021-10-19_11h44.36.297,forced_choiceRT,2021.1.2,Win32,30.0120048,,,,,,,,8,Slow,g,1,2.13,6,1,25,1,1,,,,,
1.88,,,,,,,,,h.PNG,h,6112a0826f404dc5c6ece834,2021-10-19_11h44.36.297,forced_choiceRT,2021.1.2,Win32,30.0120048,,,,,,,,8,Slow,g,0,2.357,6,2,26,2,1,,,,,
0.27,,,,,,,,,f.PNG,f,6112a0826f404dc5c6ece834,2021-10-19_11h44.36.297,forced_choiceRT,2021.1.2,Win32,30.0120048,,,,,,,,8,Fast,f,1,1.66,6,3,27,0,1,,,,,
1.13,,,,,,,,,f.PNG,f,6112a0826f404dc5c6ece834,2021-10-19_11h44.36.297,forced_choiceRT,2021.1.2,Win32,30.0120048,,,,,,,,8,Ontime,f,1,2.063,7,0,28,0,1,,,,,
0.76,,,,,,,,,j.PNG,j,6112a0826f404dc5c6ece834,2021-10-19_11h44.36.297,forced_choiceRT,2021.1.2,Win32,30.0120048,,,,,,,,8,Fast,j,1,1.626,7,1,29,3,1,,,,,
0.8,,,,,,,,,h.PNG,h,6112a0826f404dc5c6ece834,2021-10-19_11h44.36.297,forced_choiceRT,2021.1.2,Win32,30.0120048,,,,,,,,8,Ontime,h,1,2.07,7,2,30,2,1,,,,,
0.21,,,,,,,,,j.PNG,j,6112a0826f404dc5c6ece834,2021-10-19_11h44.36.297,forced_choiceRT,2021.1.2,Win32,30.0120048,,,,,,,,8,Ontime,j,1,1.916,7,3,31,3,1,,,,,
1.29,,,,,,,,,h.PNG,h,6112a0826f404dc5c6ece834,2021-10-19_11h44.36.297,forced_choiceRT,2021.1.2,Win32,30.0120048,,,,,,,,8,Ontime,h,1,2.08,8,0,32,2,1,,,,,
1.51,,,,,,,,,g.PNG,g,6112a0826f404dc5c6ece834,2021-10-19_11h44.36.297,forced_choiceRT,2021.1.2,Win32,30.0120048,,,,,,,,8,Slow,g,1,2.154,8,1,33,1,1,,,,,
1.61,,,,,,,,,g.PNG,g,6112a0826f404dc5c6ece834,2021-10-19_11h44.36.297,forced_choiceRT,2021.1.2,Win32,30.0120048,,,,,,,,8,Ontime,g,1,2.082,8,2,34,1,1,,,,,
1.42,,,,,,,,,g.PNG,g,6112a0826f404dc5c6ece834,2021-10-19_11h44.36.297,forced_choiceRT,2021.1.2,Win32,30.0120048,,,,,,,,8,Ontime,g,1,1.962,8,3,35,1,1,,,,,
0.49,,,,,,,,,j.PNG,j,6112a0826f404dc5c6ece834,2021-10-19_11h44.36.297,forced_choiceRT,2021.1.2,Win32,30.0120048,,,,,,,,8,Fast,j,1,1.874,9,0,36,3,1,,,,,
0.88,,,,,,,,,j.PNG,j,6112a0826f404dc5c6ece834,2021-10-19_11h44.36.297,forced_choiceRT,2021.1.2,Win32,30.0120048,,,,,,,,8,Fast,j,1,1.728,9,1,37,3,1,,,,,
0.81,,,,,,,,,f.PNG,f,6112a0826f404dc5c6ece834,2021-10-19_11h44.36.297,forced_choiceRT,2021.1.2,Win32,30.0120048,,,,,,,,8,Ontime,f,1,2.028,9,2,38,0,1,,,,,
0.03,,,,,,,,,h.PNG,h,6112a0826f404dc5c6ece834,2021-10-19_11h44.36.297,forced_choiceRT,2021.1.2,Win32,30.0120048,,,,,,,,8,Ontime,h,1,1.946,9,3,39,2,1,,,,,
,,,,,,,,,,,6112a0826f404dc5c6ece834,2021-10-19_11h44.36.297,forced_choiceRT,2021.1.2,Win32,30.0120048,,,,,,,,,,,,,,,,,,7,0,7,0,1
0.94,,,,,,,,,g.PNG,g,6112a0826f404dc5c6ece834,2021-10-19_11h44.36.297,forced_choiceRT,2021.1.2,Win32,30.0120048,,,,,,,,9,Ontime,g,1,2.001,0,0,0,1,1,,,,,
1.71,,,,,,,,,f.PNG,f,6112a0826f404dc5c6ece834,2021-10-19_11h44.36.297,forced_choiceRT,2021.1.2,Win32,30.0120048,,,,,,,,9,Slow,g,0,2.328,0,1,1,0,1,,,,,
0.97,,,,,,,,,g.PNG,g,6112a0826f404dc5c6ece834,2021-10-19_11h44.36.297,forced_choiceRT,2021.1.2,Win32,30.0120048,,,,,,,,9,Ontime,g,1,2.081,0,2,2,1,1,,,,,
0.3,,,,,,,,,j.PNG,j,6112a0826f404dc5c6ece834,2021-10-19_11h44.36.297,forced_choiceRT,2021.1.2,Win32,30.0120048,,,,,,,,9,Ontime,j,1,2.017,0,3,3,3,1,,,,,
0.46,,,,,,,,,j.PNG,j,6112a0826f404dc5c6ece834,2021-10-19_11h44.36.297,forced_choiceRT,2021.1.2,Win32,30.0120048,,,,,,,,9,Ontime,j,1,2.068,1,0,4,3,1,,,,,
1.64,,,,,,,,,g.PNG,g,6112a0826f404dc5c6ece834,2021-10-19_11h44.36.297,forced_choiceRT,2021.1.2,Win32,30.0120048,,,,,,,,9,Slow,g,1,2.242,1,1,5,1,1,,,,,
0.56,,,,,,,,,h.PNG,h,6112a0826f404dc5c6ece834,2021-10-19_11h44.36.297,forced_choiceRT,2021.1.2,Win32,30.0120048,,,,,,,,9,Fast,h,1,1.688,1,2,6,2,1,,,,,
1.18,,,,,,,,,f.PNG,f,6112a0826f404dc5c6ece834,2021-10-19_11h44.36.297,forced_choiceRT,2021.1.2,Win32,30.0120048,,,,,,,,9,Ontime,f,1,2.091,1,3,7,0,1,,,,,
1.88,,,,,,,,,h.PNG,h,6112a0826f404dc5c6ece834,2021-10-19_11h44.36.297,forced_choiceRT,2021.1.2,Win32,30.0120048,,,,,,,,9,Ontime,g,0,2.054,2,0,8,2,1,,,,,
0.8,,,,,,,,,f.PNG,f,6112a0826f404dc5c6ece834,2021-10-19_11h44.36.297,forced_choiceRT,2021.1.2,Win32,30.0120048,,,,,,,,9,Ontime,g,0,1.954,2,1,9,0,1,,,,,
1.56,,,,,,,,,h.PNG,h,6112a0826f404dc5c6ece834,2021-10-19_11h44.36.297,forced_choiceRT,2021.1.2,Win32,30.0120048,,,,,,,,9,Slow,j,0,2.221,2,2,10,2,1,,,,,
1.23,,,,,,,,,g.PNG,g,6112a0826f404dc5c6ece834,2021-10-19_11h44.36.297,forced_choiceRT,2021.1.2,Win32,30.0120048,,,,,,,,9,Ontime,g,1,1.938,2,3,11,1,1,,,,,
1.11,,,,,,,,,j.PNG,j,6112a0826f404dc5c6ece834,2021-10-19_11h44.36.297,forced_choiceRT,2021.1.2,Win32,30.0120048,,,,,,,,9,Ontime,j,1,1.997,3,0,12,3,1,,,,,
1.27,,,,,,,,,h.PNG,h,6112a0826f404dc5c6ece834,2021-10-19_11h44.36.297,forced_choiceRT,2021.1.2,Win32,30.0120048,,,,,,,,9,Ontime,h,1,1.935,3,1,13,2,1,,,,,
0.1,,,,,,,,,h.PNG,h,6112a0826f404dc5c6ece834,2021-10-19_11h44.36.297,forced_choiceRT,2021.1.2,Win32,30.0120048,,,,,,,,9,Ontime,h,1,1.947,3,2,14,2,1,,,,,
0.96,,,,,,,,,j.PNG,j,6112a0826f404dc5c6ece834,2021-10-19_11h44.36.297,forced_choiceRT,2021.1.2,Win32,30.0120048,,,,,,,,9,Ontime,j,1,1.953,3,3,15,3,1,,,,,
1.9,,,,,,,,,f.PNG,f,6112a0826f404dc5c6ece834,2021-10-19_11h44.36.297,forced_choiceRT,2021.1.2,Win32,30.0120048,,,,,,,,9,Ontime,h,0,2.098,4,0,16,0,1,,,,,
0.25,,,,,,,,,h.PNG,h,6112a0826f404dc5c6ece834,2021-10-19_11h44.36.297,forced_choiceRT,2021.1.2,Win32,30.0120048,,,,,,,,9,Ontime,h,1,1.964,4,1,17,2,1,,,,,
0.25,,,,,,,,,f.PNG,f,6112a0826f404dc5c6ece834,2021-10-19_11h44.36.297,forced_choiceRT,2021.1.2,Win32,30.0120048,,,,,,,,9,Ontime,f,1,1.979,4,2,18,0,1,,,,,
1.22,,,,,,,,,h.PNG,h,6112a0826f404dc5c6ece834,2021-10-19_11h44.36.297,forced_choiceRT,2021.1.2,Win32,30.0120048,,,,,,,,9,Ontime,h,1,1.904,4,3,19,2,1,,,,,
1.85,,,,,,,,,g.PNG,g,6112a0826f404dc5c6ece834,2021-10-19_11h44.36.297,forced_choiceRT,2021.1.2,Win32,30.0120048,,,,,,,,9,Ontime,j,0,2.088,5,0,20,1,1,,,,,
1.2,,,,,,,,,f.PNG,f,6112a0826f404dc5c6ece834,2021-10-19_11h44.36.297,forced_choiceRT,2021.1.2,Win32,30.0120048,,,,,,,,9,Ontime,f,1,1.973,5,1,21,0,1,,,,,
0.86,,,,,,,,,f.PNG,f,6112a0826f404dc5c6ece834,2021-10-19_11h44.36.297,forced_choiceRT,2021.1.2,Win32,30.0120048,,,,,,,,9,Ontime,f,1,1.976,5,2,22,0,1,,,,,
1.4,,,,,,,,,f.PNG,f,6112a0826f404dc5c6ece834,2021-10-19_11h44.36.297,forced_choiceRT,2021.1.2,Win32,30.0120048,,,,,,,,9,Ontime,f,1,1.957,5,3,23,0,1,,,,,
1.95,,,,,,,,,j.PNG,j,6112a0826f404dc5c6ece834,2021-10-19_11h44.36.297,forced_choiceRT,2021.1.2,Win32,30.0120048,,,,,,,,9,Slow,f,0,2.526,6,0,24,3,1,,,,,
1.12,,,,,,,,,j.PNG,j,6112a0826f404dc5c6ece834,2021-10-19_11h44.36.297,forced_choiceRT,2021.1.2,Win32,30.0120048,,,,,,,,9,Fast,j,1,1.782,6,1,25,3,1,,,,,
1.13,,,,,,,,,j.PNG,j,6112a0826f404dc5c6ece834,2021-10-19_11h44.36.297,forced_choiceRT,2021.1.2,Win32,30.0120048,,,,,,,,9,Ontime,j,1,1.99,6,2,26,3,1,,,,,
1.25,,,,,,,,,g.PNG,g,6112a0826f404dc5c6ece834,2021-10-19_11h44.36.297,forced_choiceRT,2021.1.2,Win32,30.0120048,,,,,,,,9,Ontime,g,1,2.054,6,3,27,1,1,,,,,
1.97,,,,,,,,,h.PNG,h,6112a0826f404dc5c6ece834,2021-10-19_11h44.36.297,forced_choiceRT,2021.1.2,Win32,30.0120048,,,,,,,,9,Fast,h,1,1.885,7,0,28,2,1,,,,,
0.5,,,,,,,,,j.PNG,j,6112a0826f404dc5c6ece834,2021-10-19_11h44.36.297,forced_choiceRT,2021.1.2,Win32,30.0120048,,,,,,,,9,Ontime,j,1,2.024,7,1,29,3,1,,,,,
0.86,,,,,,,,,j.PNG,j,6112a0826f404dc5c6ece834,2021-10-19_11h44.36.297,forced_choiceRT,2021.1.2,Win32,30.0120048,,,,,,,,9,Ontime,j,1,2.043,7,2,30,3,1,,,,,
0.64,,,,,,,,,g.PNG,g,6112a0826f404dc5c6ece834,2021-10-19_11h44.36.297,forced_choiceRT,2021.1.2,Win32,30.0120048,,,,,,,,9,Ontime,g,1,1.986,7,3,31,1,1,,,,,
0.2,,,,,,,,,f.PNG,f,6112a0826f404dc5c6ece834,2021-10-19_11h44.36.297,forced_choiceRT,2021.1.2,Win32,30.0120048,,,,,,,,9,Ontime,f,1,2.047,8,0,32,0,1,,,,,
0.38,,,,,,,,,j.PNG,j,6112a0826f404dc5c6ece834,2021-10-19_11h44.36.297,forced_choiceRT,2021.1.2,Win32,30.0120048,,,,,,,,9,Ontime,j,1,2.036,8,1,33,3,1,,,,,
1.12,,,,,,,,,g.PNG,g,6112a0826f404dc5c6ece834,2021-10-19_11h44.36.297,forced_choiceRT,2021.1.2,Win32,30.0120048,,,,,,,,9,Ontime,g,1,1.993,8,2,34,1,1,,,,,
1.09,,,,,,,,,g.PNG,g,6112a0826f404dc5c6ece834,2021-10-19_11h44.36.297,forced_choiceRT,2021.1.2,Win32,30.0120048,,,,,,,,9,Ontime,g,1,1.948,8,3,35,1,1,,,,,
0.68,,,,,,,,,f.PNG,f,6112a0826f404dc5c6ece834,2021-10-19_11h44.36.297,forced_choiceRT,2021.1.2,Win32,30.0120048,,,,,,,,9,Ontime,f,1,1.984,9,0,36,0,1,,,,,
1.3,,,,,,,,,g.PNG,g,6112a0826f404dc5c6ece834,2021-10-19_11h44.36.297,forced_choiceRT,2021.1.2,Win32,30.0120048,,,,,,,,9,Ontime,g,1,1.958,9,1,37,1,1,,,,,
1.09,,,,,,,,,h.PNG,h,6112a0826f404dc5c6ece834,2021-10-19_11h44.36.297,forced_choiceRT,2021.1.2,Win32,30.0120048,,,,,,,,9,Ontime,h,1,1.984,9,2,38,2,1,,,,,
0.43,,,,,,,,,h.PNG,h,6112a0826f404dc5c6ece834,2021-10-19_11h44.36.297,forced_choiceRT,2021.1.2,Win32,30.0120048,,,,,,,,9,Ontime,h,1,2.013,9,3,39,2,1,,,,,
,,,,,,,,,,,6112a0826f404dc5c6ece834,2021-10-19_11h44.36.297,forced_choiceRT,2021.1.2,Win32,30.0120048,,,,,,,,,,,,,,,,,,8,0,8,0,1
1.7,,,,,,,,,h.PNG,h,6112a0826f404dc5c6ece834,2021-10-19_11h44.36.297,forced_choiceRT,2021.1.2,Win32,30.0120048,,,,,,,,10,Ontime,h,1,2.076,0,0,0,2,1,,,,,
1.35,,,,,,,,,g.PNG,g,6112a0826f404dc5c6ece834,2021-10-19_11h44.36.297,forced_choiceRT,2021.1.2,Win32,30.0120048,,,,,,,,10,Ontime,g,1,1.999,0,1,1,1,1,,,,,
0.48,,,,,,,,,f.PNG,f,6112a0826f404dc5c6ece834,2021-10-19_11h44.36.297,forced_choiceRT,2021.1.2,Win32,30.0120048,,,,,,,,10,Ontime,f,1,1.94,0,2,2,0,1,,,,,
0.83,,,,,,,,,f.PNG,f,6112a0826f404dc5c6ece834,2021-10-19_11h44.36.297,forced_choiceRT,2021.1.2,Win32,30.0120048,,,,,,,,10,Ontime,f,1,2.022,0,3,3,0,1,,,,,
0.72,,,,,,,,,g.PNG,g,6112a0826f404dc5c6ece834,2021-10-19_11h44.36.297,forced_choiceRT,2021.1.2,Win32,30.0120048,,,,,,,,10,Ontime,g,1,1.984,1,0,4,1,1,,,,,
0.5,,,,,,,,,g.PNG,g,6112a0826f404dc5c6ece834,2021-10-19_11h44.36.297,forced_choiceRT,2021.1.2,Win32,30.0120048,,,,,,,,10,Ontime,g,1,2.026,1,1,5,1,1,,,,,
1.83,,,,,,,,,f.PNG,f,6112a0826f404dc5c6ece834,2021-10-19_11h44.36.297,forced_choiceRT,2021.1.2,Win32,30.0120048,,,,,,,,10,Ontime,h,0,2.053,1,2,6,0,1,,,,,
1.75,,,,,,,,,g.PNG,g,6112a0826f404dc5c6ece834,2021-10-19_11h44.36.297,forced_choiceRT,2021.1.2,Win32,30.0120048,,,,,,,,10,Ontime,f,0,2.006,1,3,7,1,1,,,,,
0.65,,,,,,,,,j.PNG,j,6112a0826f404dc5c6ece834,2021-10-19_11h44.36.297,forced_choiceRT,2021.1.2,Win32,30.0120048,,,,,,,,10,Slow,j,1,2.113,2,0,8,3,1,,,,,
0.5,,,,,,,,,h.PNG,h,6112a0826f404dc5c6ece834,2021-10-19_11h44.36.297,forced_choiceRT,2021.1.2,Win32,30.0120048,,,,,,,,10,Ontime,h,1,1.989,2,1,9,2,1,,,,,
1.9,,,,,,,,,j.PNG,j,6112a0826f404dc5c6ece834,2021-10-19_11h44.36.297,forced_choiceRT,2021.1.2,Win32,30.0120048,,,,,,,,10,Ontime,j,1,1.964,2,2,10,3,1,,,,,
1.86,,,,,,,,,g.PNG,g,6112a0826f404dc5c6ece834,2021-10-19_11h44.36.297,forced_choiceRT,2021.1.2,Win32,30.0120048,,,,,,,,10,Ontime,j,0,2.073,2,3,11,1,1,,,,,
0.1,,,,,,,,,j.PNG,j,6112a0826f404dc5c6ece834,2021-10-19_11h44.36.297,forced_choiceRT,2021.1.2,Win32,30.0120048,,,,,,,,10,Ontime,j,1,1.939,3,0,12,3,1,,,,,
1.78,,,,,,,,,f.PNG,f,6112a0826f404dc5c6ece834,2021-10-19_11h44.36.297,forced_choiceRT,2021.1.2,Win32,30.0120048,,,,,,,,10,Ontime,j,0,2.053,3,1,13,0,1,,,,,
1.09,,,,,,,,,h.PNG,h,6112a0826f404dc5c6ece834,2021-10-19_11h44.36.297,forced_choiceRT,2021.1.2,Win32,30.0120048,,,,,,,,10,Slow,h,1,2.102,3,2,14,2,1,,,,,
0.34,,,,,,,,,g.PNG,g,6112a0826f404dc5c6ece834,2021-10-19_11h44.36.297,forced_choiceRT,2021.1.2,Win32,30.0120048,,,,,,,,10,Ontime,g,1,2.004,3,3,15,1,1,,,,,
0.02,,,,,,,,,h.PNG,h,6112a0826f404dc5c6ece834,2021-10-19_11h44.36.297,forced_choiceRT,2021.1.2,Win32,30.0120048,,,,,,,,10,Ontime,h,1,1.969,4,0,16,2,1,,,,,
1,,,,,,,,,h.PNG,h,6112a0826f404dc5c6ece834,2021-10-19_11h44.36.297,forced_choiceRT,2021.1.2,Win32,30.0120048,,,,,,,,10,Ontime,h,1,2.038,4,1,17,2,1,,,,,
1.99,,,,,,,,,f.PNG,f,6112a0826f404dc5c6ece834,2021-10-19_11h44.36.297,forced_choiceRT,2021.1.2,Win32,30.0120048,,,,,,,,10,Slow,f,1,2.111,4,2,18,0,1,,,,,
1.01,,,,,,,,,h.PNG,h,6112a0826f404dc5c6ece834,2021-10-19_11h44.36.297,forced_choiceRT,2021.1.2,Win32,30.0120048,,,,,,,,10,Ontime,h,1,1.936,4,3,19,2,1,,,,,
1.01,,,,,,,,,j.PNG,j,6112a0826f404dc5c6ece834,2021-10-19_11h44.36.297,forced_choiceRT,2021.1.2,Win32,30.0120048,,,,,,,,10,Fast,j,1,1.847,5,0,20,3,1,,,,,
0.8,,,,,,,,,f.PNG,f,6112a0826f404dc5c6ece834,2021-10-19_11h44.36.297,forced_choiceRT,2021.1.2,Win32,30.0120048,,,,,,,,10,Ontime,f,1,1.976,5,1,21,0,1,,,,,
0.28,,,,,,,,,h.PNG,h,6112a0826f404dc5c6ece834,2021-10-19_11h44.36.297,forced_choiceRT,2021.1.2,Win32,30.0120048,,,,,,,,10,Ontime,h,1,1.916,5,2,22,2,1,,,,,
1.7,,,,,,,,,j.PNG,j,6112a0826f404dc5c6ece834,2021-10-19_11h44.36.297,forced_choiceRT,2021.1.2,Win32,30.0120048,,,,,,,,10,Ontime,j,1,2.023,5,3,23,3,1,,,,,
0.3,,,,,,,,,f.PNG,f,6112a0826f404dc5c6ece834,2021-10-19_11h44.36.297,forced_choiceRT,2021.1.2,Win32,30.0120048,,,,,,,,10,Ontime,f,1,2.004,6,0,24,0,1,,,,,
0.45,,,,,,,,,h.PNG,h,6112a0826f404dc5c6ece834,2021-10-19_11h44.36.297,forced_choiceRT,2021.1.2,Win32,30.0120048,,,,,,,,10,Ontime,h,1,2.012,6,1,25,2,1,,,,,
1.15,,,,,,,,,j.PNG,j,6112a0826f404dc5c6ece834,2021-10-19_11h44.36.297,forced_choiceRT,2021.1.2,Win32,30.0120048,,,,,,,,10,Ontime,j,1,2.042,6,2,26,3,1,,,,,
1.85,,,,,,,,,g.PNG,g,6112a0826f404dc5c6ece834,2021-10-19_11h44.36.297,forced_choiceRT,2021.1.2,Win32,30.0120048,,,,,,,,10,Ontime,h,0,1.942,6,3,27,1,1,,,,,
0.44,,,,,,,,,h.PNG,h,6112a0826f404dc5c6ece834,2021-10-19_11h44.36.297,forced_choiceRT,2021.1.2,Win32,30.0120048,,,,,,,,10,Ontime,h,1,1.999,7,0,28,2,1,,,,,
0.32,,,,,,,,,j.PNG,j,6112a0826f404dc5c6ece834,2021-10-19_11h44.36.297,forced_choiceRT,2021.1.2,Win32,30.0120048,,,,,,,,10,Ontime,j,1,2.026,7,1,29,3,1,,,,,
0.05,,,,,,,,,j.PNG,j,6112a0826f404dc5c6ece834,2021-10-19_11h44.36.297,forced_choiceRT,2021.1.2,Win32,30.0120048,,,,,,,,10,Ontime,j,1,1.945,7,2,30,3,1,,,,,
1.24,,,,,,,,,h.PNG,h,6112a0826f404dc5c6ece834,2021-10-19_11h44.36.297,forced_choiceRT,2021.1.2,Win32,30.0120048,,,,,,,,10,Ontime,h,1,2.091,7,3,31,2,1,,,,,
1.64,,,,,,,,,f.PNG,f,6112a0826f404dc5c6ece834,2021-10-19_11h44.36.297,forced_choiceRT,2021.1.2,Win32,30.0120048,,,,,,,,10,Slow,f,1,2.224,8,0,32,0,1,,,,,
1.63,,,,,,,,,j.PNG,j,6112a0826f404dc5c6ece834,2021-10-19_11h44.36.297,forced_choiceRT,2021.1.2,Win32,30.0120048,,,,,,,,10,Ontime,g,0,2.022,8,1,33,3,1,,,,,
1.67,,,,,,,,,g.PNG,g,6112a0826f404dc5c6ece834,2021-10-19_11h44.36.297,forced_choiceRT,2021.1.2,Win32,30.0120048,,,,,,,,10,Ontime,h,0,2.079,8,2,34,1,1,,,,,
0.65,,,,,,,,,g.PNG,g,6112a0826f404dc5c6ece834,2021-10-19_11h44.36.297,forced_choiceRT,2021.1.2,Win32,30.0120048,,,,,,,,10,Ontime,g,1,2.051,8,3,35,1,1,,,,,
0.36,,,,,,,,,f.PNG,f,6112a0826f404dc5c6ece834,2021-10-19_11h44.36.297,forced_choiceRT,2021.1.2,Win32,30.0120048,,,,,,,,10,Ontime,f,1,1.989,9,0,36,0,1,,,,,
0.23,,,,,,,,,g.PNG,g,6112a0826f404dc5c6ece834,2021-10-19_11h44.36.297,forced_choiceRT,2021.1.2,Win32,30.0120048,,,,,,,,10,Ontime,g,1,2.024,9,1,37,1,1,,,,,
1.36,,,,,,,,,j.PNG,j,6112a0826f404dc5c6ece834,2021-10-19_11h44.36.297,forced_choiceRT,2021.1.2,Win32,30.0120048,,,,,,,,10,Ontime,j,1,2.076,9,2,38,3,1,,,,,
0.79,,,,,,,,,f.PNG,f,6112a0826f404dc5c6ece834,2021-10-19_11h44.36.297,forced_choiceRT,2021.1.2,Win32,30.0120048,,,,,,,,10,Ontime,f,1,1.938,9,3,39,0,1,,,,,
,,,,,,,,,,,6112a0826f404dc5c6ece834,2021-10-19_11h44.36.297,forced_choiceRT,2021.1.2,Win32,30.0120048,,,,,,,,,,,,,,,,,,9,0,9,0,1
