IP_Addresss,target_onset,trial_resp_sp.keys,trial_resp_sp.corr,trial_resp_sp.rt,trials_train_loop.thisRepN,trials_train_loop.thisTrialN,trials_train_loop.thisN,trials_train_loop.thisIndex,trials_train_loop.ran,pic,correct_key,participant,date,expName,psychopyVersion,OS,frameRate,trial_resp_timing.keys,trial_resp_timing.rt,trials_train_timing.thisRepN,trials_train_timing.thisTrialN,trials_train_timing.thisN,trials_train_timing.thisIndex,trials_train_timing.ran,block_id,ontime,forcedRT_resp.keys,forcedRT_resp.corr,forcedRT_resp.rt,trials.thisRepN,trials.thisTrialN,trials.thisN,trials.thisIndex,trials.ran,blocks.thisRepN,blocks.thisTrialN,blocks.thisN,blocks.thisIndex,blocks.ran
73.135.17.30,0,f,0,2.689,0,0,0,1,1,g.PNG,g,611688156f6d22853511ffb3,2021-10-19_12h43.08.565,forced_choiceRT,2021.1.2,Win32,143.6781609,,,,,,,,,,,,,,,,,,,,,,
,0,g,1,1.931,0,1,1,1,1,g.PNG,g,611688156f6d22853511ffb3,2021-10-19_12h43.08.565,forced_choiceRT,2021.1.2,Win32,143.6781609,,,,,,,,,,,,,,,,,,,,,,
,0,j,1,2.724,0,2,2,3,1,j.PNG,j,611688156f6d22853511ffb3,2021-10-19_12h43.08.565,forced_choiceRT,2021.1.2,Win32,143.6781609,,,,,,,,,,,,,,,,,,,,,,
,0,j,1,1.319,0,3,3,3,1,j.PNG,j,611688156f6d22853511ffb3,2021-10-19_12h43.08.565,forced_choiceRT,2021.1.2,Win32,143.6781609,,,,,,,,,,,,,,,,,,,,,,
,0,f,1,1.747,1,0,4,0,1,f.PNG,f,611688156f6d22853511ffb3,2021-10-19_12h43.08.565,forced_choiceRT,2021.1.2,Win32,143.6781609,,,,,,,,,,,,,,,,,,,,,,
,0,f,1,1.494,1,1,5,0,1,f.PNG,f,611688156f6d22853511ffb3,2021-10-19_12h43.08.565,forced_choiceRT,2021.1.2,Win32,143.6781609,,,,,,,,,,,,,,,,,,,,,,
,0,g,1,1.793,1,2,6,1,1,g.PNG,g,611688156f6d22853511ffb3,2021-10-19_12h43.08.565,forced_choiceRT,2021.1.2,Win32,143.6781609,,,,,,,,,,,,,,,,,,,,,,
,0,g,1,1.299,1,3,7,1,1,g.PNG,g,611688156f6d22853511ffb3,2021-10-19_12h43.08.565,forced_choiceRT,2021.1.2,Win32,143.6781609,,,,,,,,,,,,,,,,,,,,,,
,0,h,1,3.947,2,0,8,2,1,h.PNG,h,611688156f6d22853511ffb3,2021-10-19_12h43.08.565,forced_choiceRT,2021.1.2,Win32,143.6781609,,,,,,,,,,,,,,,,,,,,,,
,0,f,1,1.649,2,1,9,0,1,f.PNG,f,611688156f6d22853511ffb3,2021-10-19_12h43.08.565,forced_choiceRT,2021.1.2,Win32,143.6781609,,,,,,,,,,,,,,,,,,,,,,
,0,h,1,2.245,2,2,10,2,1,h.PNG,h,611688156f6d22853511ffb3,2021-10-19_12h43.08.565,forced_choiceRT,2021.1.2,Win32,143.6781609,,,,,,,,,,,,,,,,,,,,,,
,0,h,1,1.104,2,3,11,2,1,h.PNG,h,611688156f6d22853511ffb3,2021-10-19_12h43.08.565,forced_choiceRT,2021.1.2,Win32,143.6781609,,,,,,,,,,,,,,,,,,,,,,
,0,g,1,2.38,3,0,12,1,1,g.PNG,g,611688156f6d22853511ffb3,2021-10-19_12h43.08.565,forced_choiceRT,2021.1.2,Win32,143.6781609,,,,,,,,,,,,,,,,,,,,,,
,0,g,1,1.088,3,1,13,1,1,g.PNG,g,611688156f6d22853511ffb3,2021-10-19_12h43.08.565,forced_choiceRT,2021.1.2,Win32,143.6781609,,,,,,,,,,,,,,,,,,,,,,
,0,f,1,2.223,3,2,14,0,1,f.PNG,f,611688156f6d22853511ffb3,2021-10-19_12h43.08.565,forced_choiceRT,2021.1.2,Win32,143.6781609,,,,,,,,,,,,,,,,,,,,,,
,0,g,1,1.444,3,3,15,1,1,g.PNG,g,611688156f6d22853511ffb3,2021-10-19_12h43.08.565,forced_choiceRT,2021.1.2,Win32,143.6781609,,,,,,,,,,,,,,,,,,,,,,
,0,f,1,1.26,4,0,16,0,1,f.PNG,f,611688156f6d22853511ffb3,2021-10-19_12h43.08.565,forced_choiceRT,2021.1.2,Win32,143.6781609,,,,,,,,,,,,,,,,,,,,,,
,0,h,1,3.155,4,1,17,2,1,h.PNG,h,611688156f6d22853511ffb3,2021-10-19_12h43.08.565,forced_choiceRT,2021.1.2,Win32,143.6781609,,,,,,,,,,,,,,,,,,,,,,
,0,j,1,3.155,4,2,18,3,1,j.PNG,j,611688156f6d22853511ffb3,2021-10-19_12h43.08.565,forced_choiceRT,2021.1.2,Win32,143.6781609,,,,,,,,,,,,,,,,,,,,,,
,0,j,1,0.767,4,3,19,3,1,j.PNG,j,611688156f6d22853511ffb3,2021-10-19_12h43.08.565,forced_choiceRT,2021.1.2,Win32,143.6781609,,,,,,,,,,,,,,,,,,,,,,
,0,h,1,2.168,5,0,20,2,1,h.PNG,h,611688156f6d22853511ffb3,2021-10-19_12h43.08.565,forced_choiceRT,2021.1.2,Win32,143.6781609,,,,,,,,,,,,,,,,,,,,,,
,0,f,1,1.463,5,1,21,0,1,f.PNG,f,611688156f6d22853511ffb3,2021-10-19_12h43.08.565,forced_choiceRT,2021.1.2,Win32,143.6781609,,,,,,,,,,,,,,,,,,,,,,
,0,j,1,3.078,5,2,22,3,1,j.PNG,j,611688156f6d22853511ffb3,2021-10-19_12h43.08.565,forced_choiceRT,2021.1.2,Win32,143.6781609,,,,,,,,,,,,,,,,,,,,,,
,0,j,1,0.689,5,3,23,3,1,j.PNG,j,611688156f6d22853511ffb3,2021-10-19_12h43.08.565,forced_choiceRT,2021.1.2,Win32,143.6781609,,,,,,,,,,,,,,,,,,,,,,
,0,f,1,1.382,6,0,24,0,1,f.PNG,f,611688156f6d22853511ffb3,2021-10-19_12h43.08.565,forced_choiceRT,2021.1.2,Win32,143.6781609,,,,,,,,,,,,,,,,,,,,,,
,0,f,1,1.251,6,1,25,0,1,f.PNG,f,611688156f6d22853511ffb3,2021-10-19_12h43.08.565,forced_choiceRT,2021.1.2,Win32,143.6781609,,,,,,,,,,,,,,,,,,,,,,
,0,h,1,2.582,6,2,26,2,1,h.PNG,h,611688156f6d22853511ffb3,2021-10-19_12h43.08.565,forced_choiceRT,2021.1.2,Win32,143.6781609,,,,,,,,,,,,,,,,,,,,,,
,0,g,1,2.154,6,3,27,1,1,g.PNG,g,611688156f6d22853511ffb3,2021-10-19_12h43.08.565,forced_choiceRT,2021.1.2,Win32,143.6781609,,,,,,,,,,,,,,,,,,,,,,
,0,j,0,2.78,7,0,28,2,1,h.PNG,h,611688156f6d22853511ffb3,2021-10-19_12h43.08.565,forced_choiceRT,2021.1.2,Win32,143.6781609,,,,,,,,,,,,,,,,,,,,,,
,0,h,1,2.983,7,1,29,2,1,h.PNG,h,611688156f6d22853511ffb3,2021-10-19_12h43.08.565,forced_choiceRT,2021.1.2,Win32,143.6781609,,,,,,,,,,,,,,,,,,,,,,
,0,g,1,1.518,7,2,30,1,1,g.PNG,g,611688156f6d22853511ffb3,2021-10-19_12h43.08.565,forced_choiceRT,2021.1.2,Win32,143.6781609,,,,,,,,,,,,,,,,,,,,,,
,0,h,1,2.508,7,3,31,2,1,h.PNG,h,611688156f6d22853511ffb3,2021-10-19_12h43.08.565,forced_choiceRT,2021.1.2,Win32,143.6781609,,,,,,,,,,,,,,,,,,,,,,
,0,h,1,1.808,8,0,32,2,1,h.PNG,h,611688156f6d22853511ffb3,2021-10-19_12h43.08.565,forced_choiceRT,2021.1.2,Win32,143.6781609,,,,,,,,,,,,,,,,,,,,,,
,0,j,1,2.537,8,1,33,3,1,j.PNG,j,611688156f6d22853511ffb3,2021-10-19_12h43.08.565,forced_choiceRT,2021.1.2,Win32,143.6781609,,,,,,,,,,,,,,,,,,,,,,
,0,h,1,7.236,8,2,34,2,1,h.PNG,h,611688156f6d22853511ffb3,2021-10-19_12h43.08.565,forced_choiceRT,2021.1.2,Win32,143.6781609,,,,,,,,,,,,,,,,,,,,,,
,0,h,1,3.574,8,3,35,2,1,h.PNG,h,611688156f6d22853511ffb3,2021-10-19_12h43.08.565,forced_choiceRT,2021.1.2,Win32,143.6781609,,,,,,,,,,,,,,,,,,,,,,
,0,j,1,0.994,9,0,36,3,1,j.PNG,j,611688156f6d22853511ffb3,2021-10-19_12h43.08.565,forced_choiceRT,2021.1.2,Win32,143.6781609,,,,,,,,,,,,,,,,,,,,,,
,0,h,1,0.895,9,1,37,2,1,h.PNG,h,611688156f6d22853511ffb3,2021-10-19_12h43.08.565,forced_choiceRT,2021.1.2,Win32,143.6781609,,,,,,,,,,,,,,,,,,,,,,
,0,f,1,1.264,9,2,38,0,1,f.PNG,f,611688156f6d22853511ffb3,2021-10-19_12h43.08.565,forced_choiceRT,2021.1.2,Win32,143.6781609,,,,,,,,,,,,,,,,,,,,,,
,0,h,1,2.168,9,3,39,2,1,h.PNG,h,611688156f6d22853511ffb3,2021-10-19_12h43.08.565,forced_choiceRT,2021.1.2,Win32,143.6781609,,,,,,,,,,,,,,,,,,,,,,
,0,g,1,1.025,10,0,40,1,1,g.PNG,g,611688156f6d22853511ffb3,2021-10-19_12h43.08.565,forced_choiceRT,2021.1.2,Win32,143.6781609,,,,,,,,,,,,,,,,,,,,,,
,0,f,1,0.844,10,1,41,0,1,f.PNG,f,611688156f6d22853511ffb3,2021-10-19_12h43.08.565,forced_choiceRT,2021.1.2,Win32,143.6781609,,,,,,,,,,,,,,,,,,,,,,
,0,j,1,1.152,10,2,42,3,1,j.PNG,j,611688156f6d22853511ffb3,2021-10-19_12h43.08.565,forced_choiceRT,2021.1.2,Win32,143.6781609,,,,,,,,,,,,,,,,,,,,,,
,0,h,0,1.42,10,3,43,1,1,g.PNG,g,611688156f6d22853511ffb3,2021-10-19_12h43.08.565,forced_choiceRT,2021.1.2,Win32,143.6781609,,,,,,,,,,,,,,,,,,,,,,
,0,j,1,3.783,11,0,44,3,1,j.PNG,j,611688156f6d22853511ffb3,2021-10-19_12h43.08.565,forced_choiceRT,2021.1.2,Win32,143.6781609,,,,,,,,,,,,,,,,,,,,,,
,0,f,1,1.528,11,1,45,0,1,f.PNG,f,611688156f6d22853511ffb3,2021-10-19_12h43.08.565,forced_choiceRT,2021.1.2,Win32,143.6781609,,,,,,,,,,,,,,,,,,,,,,
,0,g,1,1.098,11,2,46,1,1,g.PNG,g,611688156f6d22853511ffb3,2021-10-19_12h43.08.565,forced_choiceRT,2021.1.2,Win32,143.6781609,,,,,,,,,,,,,,,,,,,,,,
,0,h,1,3.144,11,3,47,2,1,h.PNG,h,611688156f6d22853511ffb3,2021-10-19_12h43.08.565,forced_choiceRT,2021.1.2,Win32,143.6781609,,,,,,,,,,,,,,,,,,,,,,
,0,j,1,0.991,12,0,48,3,1,j.PNG,j,611688156f6d22853511ffb3,2021-10-19_12h43.08.565,forced_choiceRT,2021.1.2,Win32,143.6781609,,,,,,,,,,,,,,,,,,,,,,
,0,f,1,0.625,12,1,49,0,1,f.PNG,f,611688156f6d22853511ffb3,2021-10-19_12h43.08.565,forced_choiceRT,2021.1.2,Win32,143.6781609,,,,,,,,,,,,,,,,,,,,,,
,0,j,1,1.64,12,2,50,3,1,j.PNG,j,611688156f6d22853511ffb3,2021-10-19_12h43.08.565,forced_choiceRT,2021.1.2,Win32,143.6781609,,,,,,,,,,,,,,,,,,,,,,
,0,g,1,2.049,12,3,51,1,1,g.PNG,g,611688156f6d22853511ffb3,2021-10-19_12h43.08.565,forced_choiceRT,2021.1.2,Win32,143.6781609,,,,,,,,,,,,,,,,,,,,,,
,0,f,1,0.848,13,0,52,0,1,f.PNG,f,611688156f6d22853511ffb3,2021-10-19_12h43.08.565,forced_choiceRT,2021.1.2,Win32,143.6781609,,,,,,,,,,,,,,,,,,,,,,
,0,g,1,1.813,13,1,53,1,1,g.PNG,g,611688156f6d22853511ffb3,2021-10-19_12h43.08.565,forced_choiceRT,2021.1.2,Win32,143.6781609,,,,,,,,,,,,,,,,,,,,,,
,0,j,1,0.966,13,2,54,3,1,j.PNG,j,611688156f6d22853511ffb3,2021-10-19_12h43.08.565,forced_choiceRT,2021.1.2,Win32,143.6781609,,,,,,,,,,,,,,,,,,,,,,
,0,j,1,0.925,13,3,55,3,1,j.PNG,j,611688156f6d22853511ffb3,2021-10-19_12h43.08.565,forced_choiceRT,2021.1.2,Win32,143.6781609,,,,,,,,,,,,,,,,,,,,,,
,0,g,1,1.561,14,0,56,1,1,g.PNG,g,611688156f6d22853511ffb3,2021-10-19_12h43.08.565,forced_choiceRT,2021.1.2,Win32,143.6781609,,,,,,,,,,,,,,,,,,,,,,
,0,f,1,0.703,14,1,57,0,1,f.PNG,f,611688156f6d22853511ffb3,2021-10-19_12h43.08.565,forced_choiceRT,2021.1.2,Win32,143.6781609,,,,,,,,,,,,,,,,,,,,,,
,0,f,1,0.906,14,2,58,0,1,f.PNG,f,611688156f6d22853511ffb3,2021-10-19_12h43.08.565,forced_choiceRT,2021.1.2,Win32,143.6781609,,,,,,,,,,,,,,,,,,,,,,
,0,j,1,1.119,14,3,59,3,1,j.PNG,j,611688156f6d22853511ffb3,2021-10-19_12h43.08.565,forced_choiceRT,2021.1.2,Win32,143.6781609,,,,,,,,,,,,,,,,,,,,,,
,,,,,,,,,,,,611688156f6d22853511ffb3,2021-10-19_12h43.08.565,forced_choiceRT,2021.1.2,Win32,143.6781609,h,2.221,0,0,0,0,1,,,,,,,,,,,,,,,
,,,,,,,,,,,,611688156f6d22853511ffb3,2021-10-19_12h43.08.565,forced_choiceRT,2021.1.2,Win32,143.6781609,h,1.88,1,0,1,0,1,,,,,,,,,,,,,,,
,,,,,,,,,,,,611688156f6d22853511ffb3,2021-10-19_12h43.08.565,forced_choiceRT,2021.1.2,Win32,143.6781609,j,2.134,2,0,2,0,1,,,,,,,,,,,,,,,
,,,,,,,,,,,,611688156f6d22853511ffb3,2021-10-19_12h43.08.565,forced_choiceRT,2021.1.2,Win32,143.6781609,j,1.724,3,0,3,0,1,,,,,,,,,,,,,,,
,,,,,,,,,,,,611688156f6d22853511ffb3,2021-10-19_12h43.08.565,forced_choiceRT,2021.1.2,Win32,143.6781609,j,1.941,4,0,4,0,1,,,,,,,,,,,,,,,
,,,,,,,,,,,,611688156f6d22853511ffb3,2021-10-19_12h43.08.565,forced_choiceRT,2021.1.2,Win32,143.6781609,j,1.904,5,0,5,0,1,,,,,,,,,,,,,,,
,,,,,,,,,,,,611688156f6d22853511ffb3,2021-10-19_12h43.08.565,forced_choiceRT,2021.1.2,Win32,143.6781609,g,2.085,6,0,6,0,1,,,,,,,,,,,,,,,
,,,,,,,,,,,,611688156f6d22853511ffb3,2021-10-19_12h43.08.565,forced_choiceRT,2021.1.2,Win32,143.6781609,f,1.759,7,0,7,0,1,,,,,,,,,,,,,,,
,,,,,,,,,,,,611688156f6d22853511ffb3,2021-10-19_12h43.08.565,forced_choiceRT,2021.1.2,Win32,143.6781609,f,1.939,8,0,8,0,1,,,,,,,,,,,,,,,
,,,,,,,,,,,,611688156f6d22853511ffb3,2021-10-19_12h43.08.565,forced_choiceRT,2021.1.2,Win32,143.6781609,g,2.011,9,0,9,0,1,,,,,,,,,,,,,,,
,,,,,,,,,,,,611688156f6d22853511ffb3,2021-10-19_12h43.08.565,forced_choiceRT,2021.1.2,Win32,143.6781609,h,1.956,10,0,10,0,1,,,,,,,,,,,,,,,
,,,,,,,,,,,,611688156f6d22853511ffb3,2021-10-19_12h43.08.565,forced_choiceRT,2021.1.2,Win32,143.6781609,j,1.955,11,0,11,0,1,,,,,,,,,,,,,,,
,,,,,,,,,,,,611688156f6d22853511ffb3,2021-10-19_12h43.08.565,forced_choiceRT,2021.1.2,Win32,143.6781609,f,2.014,12,0,12,0,1,,,,,,,,,,,,,,,
,,,,,,,,,,,,611688156f6d22853511ffb3,2021-10-19_12h43.08.565,forced_choiceRT,2021.1.2,Win32,143.6781609,g,2.018,13,0,13,0,1,,,,,,,,,,,,,,,
,,,,,,,,,,,,611688156f6d22853511ffb3,2021-10-19_12h43.08.565,forced_choiceRT,2021.1.2,Win32,143.6781609,h,2.051,14,0,14,0,1,,,,,,,,,,,,,,,
,,,,,,,,,,,,611688156f6d22853511ffb3,2021-10-19_12h43.08.565,forced_choiceRT,2021.1.2,Win32,143.6781609,j,2.001,15,0,15,0,1,,,,,,,,,,,,,,,
,,,,,,,,,,,,611688156f6d22853511ffb3,2021-10-19_12h43.08.565,forced_choiceRT,2021.1.2,Win32,143.6781609,f,2.037,16,0,16,0,1,,,,,,,,,,,,,,,
,,,,,,,,,,,,611688156f6d22853511ffb3,2021-10-19_12h43.08.565,forced_choiceRT,2021.1.2,Win32,143.6781609,g,2.01,17,0,17,0,1,,,,,,,,,,,,,,,
,,,,,,,,,,,,611688156f6d22853511ffb3,2021-10-19_12h43.08.565,forced_choiceRT,2021.1.2,Win32,143.6781609,h,2.008,18,0,18,0,1,,,,,,,,,,,,,,,
,,,,,,,,,,,,611688156f6d22853511ffb3,2021-10-19_12h43.08.565,forced_choiceRT,2021.1.2,Win32,143.6781609,j,2.093,19,0,19,0,1,,,,,,,,,,,,,,,
,0,,,,,,,,,f.PNG,f,611688156f6d22853511ffb3,2021-10-19_12h43.08.565,forced_choiceRT,2021.1.2,Win32,143.6781609,,,,,,,,1,Fast,f,1,1.736,0,0,0,0,1,,,,,
,0.39,,,,,,,,,f.PNG,f,611688156f6d22853511ffb3,2021-10-19_12h43.08.565,forced_choiceRT,2021.1.2,Win32,143.6781609,,,,,,,,1,Fast,f,1,1.863,0,1,1,0,1,,,,,
,1.25,,,,,,,,,f.PNG,f,611688156f6d22853511ffb3,2021-10-19_12h43.08.565,forced_choiceRT,2021.1.2,Win32,143.6781609,,,,,,,,1,Slow,f,1,2.124,0,2,2,0,1,,,,,
,1.08,,,,,,,,,f.PNG,f,611688156f6d22853511ffb3,2021-10-19_12h43.08.565,forced_choiceRT,2021.1.2,Win32,143.6781609,,,,,,,,1,Ontime,f,1,1.926,0,3,3,0,1,,,,,
,1.65,,,,,,,,,g.PNG,g,611688156f6d22853511ffb3,2021-10-19_12h43.08.565,forced_choiceRT,2021.1.2,Win32,143.6781609,,,,,,,,1,Ontime,f,0,1.967,1,0,4,1,1,,,,,
,1.6,,,,,,,,,j.PNG,j,611688156f6d22853511ffb3,2021-10-19_12h43.08.565,forced_choiceRT,2021.1.2,Win32,143.6781609,,,,,,,,1,Slow,j,1,2.309,1,1,5,3,1,,,,,
,1.17,,,,,,,,,g.PNG,g,611688156f6d22853511ffb3,2021-10-19_12h43.08.565,forced_choiceRT,2021.1.2,Win32,143.6781609,,,,,,,,1,Slow,h,0,2.111,1,2,6,1,1,,,,,
,1.8,,,,,,,,,h.PNG,h,611688156f6d22853511ffb3,2021-10-19_12h43.08.565,forced_choiceRT,2021.1.2,Win32,143.6781609,,,,,,,,1,Slow,g,0,2.134,1,3,7,2,1,,,,,
,0.58,,,,,,,,,g.PNG,g,611688156f6d22853511ffb3,2021-10-19_12h43.08.565,forced_choiceRT,2021.1.2,Win32,143.6781609,,,,,,,,1,Fast,g,1,1.796,2,0,8,1,1,,,,,
,0.31,,,,,,,,,h.PNG,h,611688156f6d22853511ffb3,2021-10-19_12h43.08.565,forced_choiceRT,2021.1.2,Win32,143.6781609,,,,,,,,1,Fast,h,1,1.87,2,1,9,2,1,,,,,
,0.3,,,,,,,,,g.PNG,g,611688156f6d22853511ffb3,2021-10-19_12h43.08.565,forced_choiceRT,2021.1.2,Win32,143.6781609,,,,,,,,1,Ontime,g,1,1.987,2,2,10,1,1,,,,,
,0.6,,,,,,,,,j.PNG,j,611688156f6d22853511ffb3,2021-10-19_12h43.08.565,forced_choiceRT,2021.1.2,Win32,143.6781609,,,,,,,,1,Fast,j,1,1.865,2,3,11,3,1,,,,,
,1.26,,,,,,,,,f.PNG,f,611688156f6d22853511ffb3,2021-10-19_12h43.08.565,forced_choiceRT,2021.1.2,Win32,143.6781609,,,,,,,,1,Ontime,f,1,2.053,3,0,12,0,1,,,,,
,0.99,,,,,,,,,j.PNG,j,611688156f6d22853511ffb3,2021-10-19_12h43.08.565,forced_choiceRT,2021.1.2,Win32,143.6781609,,,,,,,,1,Ontime,j,1,2.008,3,1,13,3,1,,,,,
,0.74,,,,,,,,,j.PNG,j,611688156f6d22853511ffb3,2021-10-19_12h43.08.565,forced_choiceRT,2021.1.2,Win32,143.6781609,,,,,,,,1,Fast,j,1,1.818,3,2,14,3,1,,,,,
,1.19,,,,,,,,,h.PNG,h,611688156f6d22853511ffb3,2021-10-19_12h43.08.565,forced_choiceRT,2021.1.2,Win32,143.6781609,,,,,,,,1,Slow,h,1,2.107,3,3,15,2,1,,,,,
,0.81,,,,,,,,,j.PNG,j,611688156f6d22853511ffb3,2021-10-19_12h43.08.565,forced_choiceRT,2021.1.2,Win32,143.6781609,,,,,,,,1,Ontime,j,1,1.968,4,0,16,3,1,,,,,
,0.35,,,,,,,,,j.PNG,j,611688156f6d22853511ffb3,2021-10-19_12h43.08.565,forced_choiceRT,2021.1.2,Win32,143.6781609,,,,,,,,1,Ontime,j,1,2.002,4,1,17,3,1,,,,,
,0.15,,,,,,,,,j.PNG,j,611688156f6d22853511ffb3,2021-10-19_12h43.08.565,forced_choiceRT,2021.1.2,Win32,143.6781609,,,,,,,,1,Ontime,j,1,2.023,4,2,18,3,1,,,,,
,1.45,,,,,,,,,g.PNG,g,611688156f6d22853511ffb3,2021-10-19_12h43.08.565,forced_choiceRT,2021.1.2,Win32,143.6781609,,,,,,,,1,Slow,h,0,2.19,4,3,19,1,1,,,,,
,0.86,,,,,,,,,j.PNG,j,611688156f6d22853511ffb3,2021-10-19_12h43.08.565,forced_choiceRT,2021.1.2,Win32,143.6781609,,,,,,,,1,Ontime,j,1,1.954,5,0,20,3,1,,,,,
,1.87,,,,,,,,,g.PNG,g,611688156f6d22853511ffb3,2021-10-19_12h43.08.565,forced_choiceRT,2021.1.2,Win32,143.6781609,,,,,,,,1,Slow,h,0,2.195,5,1,21,1,1,,,,,
,1.47,,,,,,,,,j.PNG,j,611688156f6d22853511ffb3,2021-10-19_12h43.08.565,forced_choiceRT,2021.1.2,Win32,143.6781609,,,,,,,,1,Slow,j,1,2.151,5,2,22,3,1,,,,,
,1.56,,,,,,,,,f.PNG,f,611688156f6d22853511ffb3,2021-10-19_12h43.08.565,forced_choiceRT,2021.1.2,Win32,143.6781609,,,,,,,,1,Ontime,g,0,2.064,5,3,23,0,1,,,,,
,0.49,,,,,,,,,h.PNG,h,611688156f6d22853511ffb3,2021-10-19_12h43.08.565,forced_choiceRT,2021.1.2,Win32,143.6781609,,,,,,,,1,Fast,h,1,1.758,6,0,24,2,1,,,,,
,1.78,,,,,,,,,h.PNG,h,611688156f6d22853511ffb3,2021-10-19_12h43.08.565,forced_choiceRT,2021.1.2,Win32,143.6781609,,,,,,,,1,Slow,j,0,2.455,6,1,25,2,1,,,,,
,0.1,,,,,,,,,g.PNG,g,611688156f6d22853511ffb3,2021-10-19_12h43.08.565,forced_choiceRT,2021.1.2,Win32,143.6781609,,,,,,,,1,Ontime,g,1,1.94,6,2,26,1,1,,,,,
,1.8,,,,,,,,,f.PNG,f,611688156f6d22853511ffb3,2021-10-19_12h43.08.565,forced_choiceRT,2021.1.2,Win32,143.6781609,,,,,,,,1,Slow,g,0,2.254,6,3,27,0,1,,,,,
,1.29,,,,,,,,,g.PNG,g,611688156f6d22853511ffb3,2021-10-19_12h43.08.565,forced_choiceRT,2021.1.2,Win32,143.6781609,,,,,,,,1,Ontime,h,0,2.029,7,0,28,1,1,,,,,
,0.39,,,,,,,,,h.PNG,h,611688156f6d22853511ffb3,2021-10-19_12h43.08.565,forced_choiceRT,2021.1.2,Win32,143.6781609,,,,,,,,1,Fast,h,1,1.823,7,1,29,2,1,,,,,
,1.94,,,,,,,,,f.PNG,f,611688156f6d22853511ffb3,2021-10-19_12h43.08.565,forced_choiceRT,2021.1.2,Win32,143.6781609,,,,,,,,1,Slow,h,0,2.216,7,2,30,0,1,,,,,
,1.63,,,,,,,,,f.PNG,f,611688156f6d22853511ffb3,2021-10-19_12h43.08.565,forced_choiceRT,2021.1.2,Win32,143.6781609,,,,,,,,1,Slow,f,1,2.163,7,3,31,0,1,,,,,
,1.23,,,,,,,,,h.PNG,h,611688156f6d22853511ffb3,2021-10-19_12h43.08.565,forced_choiceRT,2021.1.2,Win32,143.6781609,,,,,,,,1,Ontime,h,1,1.913,8,0,32,2,1,,,,,
,1.05,,,,,,,,,g.PNG,g,611688156f6d22853511ffb3,2021-10-19_12h43.08.565,forced_choiceRT,2021.1.2,Win32,143.6781609,,,,,,,,1,Slow,g,1,2.169,8,1,33,1,1,,,,,
,0.32,,,,,,,,,g.PNG,g,611688156f6d22853511ffb3,2021-10-19_12h43.08.565,forced_choiceRT,2021.1.2,Win32,143.6781609,,,,,,,,1,Ontime,g,1,1.966,8,2,34,1,1,,,,,
,0.19,,,,,,,,,f.PNG,f,611688156f6d22853511ffb3,2021-10-19_12h43.08.565,forced_choiceRT,2021.1.2,Win32,143.6781609,,,,,,,,1,Ontime,f,1,2.023,8,3,35,0,1,,,,,
,1.89,,,,,,,,,h.PNG,h,611688156f6d22853511ffb3,2021-10-19_12h43.08.565,forced_choiceRT,2021.1.2,Win32,143.6781609,,,,,,,,1,Slow,h,1,2.286,9,0,36,2,1,,,,,
,0.8,,,,,,,,,h.PNG,h,611688156f6d22853511ffb3,2021-10-19_12h43.08.565,forced_choiceRT,2021.1.2,Win32,143.6781609,,,,,,,,1,Fast,h,1,1.834,9,1,37,2,1,,,,,
,1.57,,,,,,,,,h.PNG,h,611688156f6d22853511ffb3,2021-10-19_12h43.08.565,forced_choiceRT,2021.1.2,Win32,143.6781609,,,,,,,,1,Slow,h,1,2.151,9,2,38,2,1,,,,,
,0.68,,,,,,,,,j.PNG,j,611688156f6d22853511ffb3,2021-10-19_12h43.08.565,forced_choiceRT,2021.1.2,Win32,143.6781609,,,,,,,,1,Ontime,j,1,1.903,9,3,39,3,1,,,,,
,,,,,,,,,,,,611688156f6d22853511ffb3,2021-10-19_12h43.08.565,forced_choiceRT,2021.1.2,Win32,143.6781609,,,,,,,,,,,,,,,,,,0,0,0,0,1
,1.56,,,,,,,,,g.PNG,g,611688156f6d22853511ffb3,2021-10-19_12h43.08.565,forced_choiceRT,2021.1.2,Win32,143.6781609,,,,,,,,2,Slow,h,0,2.258,0,0,0,1,1,,,,,
,0.37,,,,,,,,,g.PNG,g,611688156f6d22853511ffb3,2021-10-19_12h43.08.565,forced_choiceRT,2021.1.2,Win32,143.6781609,,,,,,,,2,Ontime,g,1,1.973,0,1,1,1,1,,,,,
,1.56,,,,,,,,,f.PNG,f,611688156f6d22853511ffb3,2021-10-19_12h43.08.565,forced_choiceRT,2021.1.2,Win32,143.6781609,,,,,,,,2,Ontime,f,1,1.909,0,2,2,0,1,,,,,
,0.99,,,,,,,,,j.PNG,j,611688156f6d22853511ffb3,2021-10-19_12h43.08.565,forced_choiceRT,2021.1.2,Win32,143.6781609,,,,,,,,2,Ontime,j,1,2.02,0,3,3,3,1,,,,,
,0.7,,,,,,,,,h.PNG,h,611688156f6d22853511ffb3,2021-10-19_12h43.08.565,forced_choiceRT,2021.1.2,Win32,143.6781609,,,,,,,,2,Ontime,h,1,1.997,1,0,4,2,1,,,,,
,0.72,,,,,,,,,f.PNG,f,611688156f6d22853511ffb3,2021-10-19_12h43.08.565,forced_choiceRT,2021.1.2,Win32,143.6781609,,,,,,,,2,Ontime,f,1,1.992,1,1,5,0,1,,,,,
,1.8,,,,,,,,,h.PNG,h,611688156f6d22853511ffb3,2021-10-19_12h43.08.565,forced_choiceRT,2021.1.2,Win32,143.6781609,,,,,,,,2,Slow,f,0,2.141,1,2,6,2,1,,,,,
,0.2,,,,,,,,,j.PNG,j,611688156f6d22853511ffb3,2021-10-19_12h43.08.565,forced_choiceRT,2021.1.2,Win32,143.6781609,,,,,,,,2,Ontime,j,1,1.908,1,3,7,3,1,,,,,
,1.9,,,,,,,,,j.PNG,j,611688156f6d22853511ffb3,2021-10-19_12h43.08.565,forced_choiceRT,2021.1.2,Win32,143.6781609,,,,,,,,2,Slow,f,0,2.102,2,0,8,3,1,,,,,
,1.9,,,,,,,,,j.PNG,j,611688156f6d22853511ffb3,2021-10-19_12h43.08.565,forced_choiceRT,2021.1.2,Win32,143.6781609,,,,,,,,2,Slow,j,1,2.107,2,1,9,3,1,,,,,
,1.37,,,,,,,,,f.PNG,f,611688156f6d22853511ffb3,2021-10-19_12h43.08.565,forced_choiceRT,2021.1.2,Win32,143.6781609,,,,,,,,2,Ontime,f,1,1.931,2,2,10,0,1,,,,,
,0.29,,,,,,,,,h.PNG,h,611688156f6d22853511ffb3,2021-10-19_12h43.08.565,forced_choiceRT,2021.1.2,Win32,143.6781609,,,,,,,,2,Fast,h,1,1.876,2,3,11,2,1,,,,,
,0.67,,,,,,,,,h.PNG,h,611688156f6d22853511ffb3,2021-10-19_12h43.08.565,forced_choiceRT,2021.1.2,Win32,143.6781609,,,,,,,,2,Fast,h,1,1.719,3,0,12,2,1,,,,,
,1.03,,,,,,,,,g.PNG,g,611688156f6d22853511ffb3,2021-10-19_12h43.08.565,forced_choiceRT,2021.1.2,Win32,143.6781609,,,,,,,,2,Slow,g,1,2.121,3,1,13,1,1,,,,,
,0.93,,,,,,,,,g.PNG,g,611688156f6d22853511ffb3,2021-10-19_12h43.08.565,forced_choiceRT,2021.1.2,Win32,143.6781609,,,,,,,,2,Ontime,g,1,1.988,3,2,14,1,1,,,,,
,1.65,,,,,,,,,g.PNG,g,611688156f6d22853511ffb3,2021-10-19_12h43.08.565,forced_choiceRT,2021.1.2,Win32,143.6781609,,,,,,,,2,Ontime,f,0,1.912,3,3,15,1,1,,,,,
,1.74,,,,,,,,,h.PNG,h,611688156f6d22853511ffb3,2021-10-19_12h43.08.565,forced_choiceRT,2021.1.2,Win32,143.6781609,,,,,,,,2,Slow,h,1,2.356,4,0,16,2,1,,,,,
,1.77,,,,,,,,,j.PNG,j,611688156f6d22853511ffb3,2021-10-19_12h43.08.565,forced_choiceRT,2021.1.2,Win32,143.6781609,,,,,,,,2,Ontime,f,0,2.1,4,1,17,3,1,,,,,
,1,,,,,,,,,j.PNG,j,611688156f6d22853511ffb3,2021-10-19_12h43.08.565,forced_choiceRT,2021.1.2,Win32,143.6781609,,,,,,,,2,Fast,j,1,1.529,4,2,18,3,1,,,,,
,1.74,,,,,,,,,f.PNG,f,611688156f6d22853511ffb3,2021-10-19_12h43.08.565,forced_choiceRT,2021.1.2,Win32,143.6781609,,,,,,,,2,Slow,f,1,2.226,4,3,19,0,1,,,,,
,0.2,,,,,,,,,g.PNG,g,611688156f6d22853511ffb3,2021-10-19_12h43.08.565,forced_choiceRT,2021.1.2,Win32,143.6781609,,,,,,,,2,Ontime,g,1,1.926,5,0,20,1,1,,,,,
,1.48,,,,,,,,,h.PNG,h,611688156f6d22853511ffb3,2021-10-19_12h43.08.565,forced_choiceRT,2021.1.2,Win32,143.6781609,,,,,,,,2,Slow,h,1,2.162,5,1,21,2,1,,,,,
,0.64,,,,,,,,,j.PNG,j,611688156f6d22853511ffb3,2021-10-19_12h43.08.565,forced_choiceRT,2021.1.2,Win32,143.6781609,,,,,,,,2,Ontime,j,1,1.907,5,2,22,3,1,,,,,
,1.5,,,,,,,,,f.PNG,f,611688156f6d22853511ffb3,2021-10-19_12h43.08.565,forced_choiceRT,2021.1.2,Win32,143.6781609,,,,,,,,2,Ontime,f,1,2.028,5,3,23,0,1,,,,,
,0.97,,,,,,,,,f.PNG,f,611688156f6d22853511ffb3,2021-10-19_12h43.08.565,forced_choiceRT,2021.1.2,Win32,143.6781609,,,,,,,,2,Ontime,f,1,1.935,6,0,24,0,1,,,,,
,1.01,,,,,,,,,g.PNG,g,611688156f6d22853511ffb3,2021-10-19_12h43.08.565,forced_choiceRT,2021.1.2,Win32,143.6781609,,,,,,,,2,Ontime,g,1,1.942,6,1,25,1,1,,,,,
,1.65,,,,,,,,,h.PNG,h,611688156f6d22853511ffb3,2021-10-19_12h43.08.565,forced_choiceRT,2021.1.2,Win32,143.6781609,,,,,,,,2,Slow,j,0,2.266,6,2,26,2,1,,,,,
,1.42,,,,,,,,,h.PNG,h,611688156f6d22853511ffb3,2021-10-19_12h43.08.565,forced_choiceRT,2021.1.2,Win32,143.6781609,,,,,,,,2,Ontime,h,1,2.035,6,3,27,2,1,,,,,
,1.7,,,,,,,,,f.PNG,f,611688156f6d22853511ffb3,2021-10-19_12h43.08.565,forced_choiceRT,2021.1.2,Win32,143.6781609,,,,,,,,2,Slow,f,1,2.167,7,0,28,0,1,,,,,
,0.43,,,,,,,,,g.PNG,g,611688156f6d22853511ffb3,2021-10-19_12h43.08.565,forced_choiceRT,2021.1.2,Win32,143.6781609,,,,,,,,2,Fast,g,1,1.765,7,1,29,1,1,,,,,
,1.04,,,,,,,,,f.PNG,f,611688156f6d22853511ffb3,2021-10-19_12h43.08.565,forced_choiceRT,2021.1.2,Win32,143.6781609,,,,,,,,2,Ontime,f,1,1.967,7,2,30,0,1,,,,,
,0.52,,,,,,,,,h.PNG,h,611688156f6d22853511ffb3,2021-10-19_12h43.08.565,forced_choiceRT,2021.1.2,Win32,143.6781609,,,,,,,,2,Fast,h,1,1.71,7,3,31,2,1,,,,,
,1,,,,,,,,,h.PNG,h,611688156f6d22853511ffb3,2021-10-19_12h43.08.565,forced_choiceRT,2021.1.2,Win32,143.6781609,,,,,,,,2,Ontime,h,1,1.98,8,0,32,2,1,,,,,
,0.89,,,,,,,,,g.PNG,g,611688156f6d22853511ffb3,2021-10-19_12h43.08.565,forced_choiceRT,2021.1.2,Win32,143.6781609,,,,,,,,2,Fast,g,1,1.892,8,1,33,1,1,,,,,
,0.11,,,,,,,,,f.PNG,f,611688156f6d22853511ffb3,2021-10-19_12h43.08.565,forced_choiceRT,2021.1.2,Win32,143.6781609,,,,,,,,2,Ontime,f,1,1.974,8,2,34,0,1,,,,,
,1.87,,,,,,,,,g.PNG,g,611688156f6d22853511ffb3,2021-10-19_12h43.08.565,forced_choiceRT,2021.1.2,Win32,143.6781609,,,,,,,,2,Slow,j,0,2.302,8,3,35,1,1,,,,,
,1.65,,,,,,,,,f.PNG,f,611688156f6d22853511ffb3,2021-10-19_12h43.08.565,forced_choiceRT,2021.1.2,Win32,143.6781609,,,,,,,,2,Slow,f,1,2.167,9,0,36,0,1,,,,,
,1.98,,,,,,,,,j.PNG,j,611688156f6d22853511ffb3,2021-10-19_12h43.08.565,forced_choiceRT,2021.1.2,Win32,143.6781609,,,,,,,,2,Ontime,f,0,2.043,9,1,37,3,1,,,,,
,1.63,,,,,,,,,j.PNG,j,611688156f6d22853511ffb3,2021-10-19_12h43.08.565,forced_choiceRT,2021.1.2,Win32,143.6781609,,,,,,,,2,Slow,h,0,2.238,9,2,38,3,1,,,,,
,1.4,,,,,,,,,j.PNG,j,611688156f6d22853511ffb3,2021-10-19_12h43.08.565,forced_choiceRT,2021.1.2,Win32,143.6781609,,,,,,,,2,Ontime,j,1,1.973,9,3,39,3,1,,,,,
,,,,,,,,,,,,611688156f6d22853511ffb3,2021-10-19_12h43.08.565,forced_choiceRT,2021.1.2,Win32,143.6781609,,,,,,,,,,,,,,,,,,1,0,1,0,1
,1.54,,,,,,,,,f.PNG,f,611688156f6d22853511ffb3,2021-10-19_12h43.08.565,forced_choiceRT,2021.1.2,Win32,143.6781609,,,,,,,,3,Ontime,f,1,2.052,0,0,0,0,1,,,,,
,0.57,,,,,,,,,g.PNG,g,611688156f6d22853511ffb3,2021-10-19_12h43.08.565,forced_choiceRT,2021.1.2,Win32,143.6781609,,,,,,,,3,Ontime,g,1,2.003,0,1,1,1,1,,,,,
,0.25,,,,,,,,,h.PNG,h,611688156f6d22853511ffb3,2021-10-19_12h43.08.565,forced_choiceRT,2021.1.2,Win32,143.6781609,,,,,,,,3,Fast,h,1,1.886,0,2,2,2,1,,,,,
,0.36,,,,,,,,,j.PNG,j,611688156f6d22853511ffb3,2021-10-19_12h43.08.565,forced_choiceRT,2021.1.2,Win32,143.6781609,,,,,,,,3,Fast,j,1,1.813,0,3,3,3,1,,,,,
,1.3,,,,,,,,,h.PNG,h,611688156f6d22853511ffb3,2021-10-19_12h43.08.565,forced_choiceRT,2021.1.2,Win32,143.6781609,,,,,,,,3,Ontime,h,1,2.081,1,0,4,2,1,,,,,
,1.53,,,,,,,,,g.PNG,g,611688156f6d22853511ffb3,2021-10-19_12h43.08.565,forced_choiceRT,2021.1.2,Win32,143.6781609,,,,,,,,3,Slow,g,1,2.216,1,1,5,1,1,,,,,
,1.05,,,,,,,,,f.PNG,f,611688156f6d22853511ffb3,2021-10-19_12h43.08.565,forced_choiceRT,2021.1.2,Win32,143.6781609,,,,,,,,3,Fast,f,1,1.828,1,2,6,0,1,,,,,
,1.84,,,,,,,,,h.PNG,h,611688156f6d22853511ffb3,2021-10-19_12h43.08.565,forced_choiceRT,2021.1.2,Win32,143.6781609,,,,,,,,3,Ontime,f,0,1.996,1,3,7,2,1,,,,,
,1.74,,,,,,,,,j.PNG,j,611688156f6d22853511ffb3,2021-10-19_12h43.08.565,forced_choiceRT,2021.1.2,Win32,143.6781609,,,,,,,,3,Ontime,f,0,1.934,2,0,8,3,1,,,,,
,1.76,,,,,,,,,g.PNG,g,611688156f6d22853511ffb3,2021-10-19_12h43.08.565,forced_choiceRT,2021.1.2,Win32,143.6781609,,,,,,,,3,Fast,f,0,1.878,2,1,9,1,1,,,,,
,1.69,,,,,,,,,g.PNG,g,611688156f6d22853511ffb3,2021-10-19_12h43.08.565,forced_choiceRT,2021.1.2,Win32,143.6781609,,,,,,,,3,Ontime,h,0,1.904,2,2,10,1,1,,,,,
,1.98,,,,,,,,,g.PNG,g,611688156f6d22853511ffb3,2021-10-19_12h43.08.565,forced_choiceRT,2021.1.2,Win32,143.6781609,,,,,,,,3,Ontime,g,1,2.004,2,3,11,1,1,,,,,
,1.18,,,,,,,,,f.PNG,f,611688156f6d22853511ffb3,2021-10-19_12h43.08.565,forced_choiceRT,2021.1.2,Win32,143.6781609,,,,,,,,3,Ontime,f,1,1.94,3,0,12,0,1,,,,,
,0.84,,,,,,,,,f.PNG,f,611688156f6d22853511ffb3,2021-10-19_12h43.08.565,forced_choiceRT,2021.1.2,Win32,143.6781609,,,,,,,,3,Fast,f,1,1.786,3,1,13,0,1,,,,,
,0.46,,,,,,,,,f.PNG,f,611688156f6d22853511ffb3,2021-10-19_12h43.08.565,forced_choiceRT,2021.1.2,Win32,143.6781609,,,,,,,,3,Fast,f,1,1.776,3,2,14,0,1,,,,,
,0.46,,,,,,,,,h.PNG,h,611688156f6d22853511ffb3,2021-10-19_12h43.08.565,forced_choiceRT,2021.1.2,Win32,143.6781609,,,,,,,,3,Fast,h,1,1.883,3,3,15,2,1,,,,,
,1.25,,,,,,,,,j.PNG,j,611688156f6d22853511ffb3,2021-10-19_12h43.08.565,forced_choiceRT,2021.1.2,Win32,143.6781609,,,,,,,,3,Slow,j,1,2.185,4,0,16,3,1,,,,,
,1.16,,,,,,,,,j.PNG,j,611688156f6d22853511ffb3,2021-10-19_12h43.08.565,forced_choiceRT,2021.1.2,Win32,143.6781609,,,,,,,,3,Ontime,j,1,2.004,4,1,17,3,1,,,,,
,0.83,,,,,,,,,g.PNG,g,611688156f6d22853511ffb3,2021-10-19_12h43.08.565,forced_choiceRT,2021.1.2,Win32,143.6781609,,,,,,,,3,Ontime,g,1,2.038,4,2,18,1,1,,,,,
,0.7,,,,,,,,,h.PNG,h,611688156f6d22853511ffb3,2021-10-19_12h43.08.565,forced_choiceRT,2021.1.2,Win32,143.6781609,,,,,,,,3,Ontime,h,1,1.961,4,3,19,2,1,,,,,
,1.96,,,,,,,,,j.PNG,j,611688156f6d22853511ffb3,2021-10-19_12h43.08.565,forced_choiceRT,2021.1.2,Win32,143.6781609,,,,,,,,3,Ontime,j,1,2.036,5,0,20,3,1,,,,,
,0.54,,,,,,,,,f.PNG,f,611688156f6d22853511ffb3,2021-10-19_12h43.08.565,forced_choiceRT,2021.1.2,Win32,143.6781609,,,,,,,,3,Ontime,f,1,1.917,5,1,21,0,1,,,,,
,0.22,,,,,,,,,j.PNG,j,611688156f6d22853511ffb3,2021-10-19_12h43.08.565,forced_choiceRT,2021.1.2,Win32,143.6781609,,,,,,,,3,Ontime,j,1,1.911,5,2,22,3,1,,,,,
,0.93,,,,,,,,,f.PNG,f,611688156f6d22853511ffb3,2021-10-19_12h43.08.565,forced_choiceRT,2021.1.2,Win32,143.6781609,,,,,,,,3,Ontime,f,1,1.953,5,3,23,0,1,,,,,
,0.95,,,,,,,,,h.PNG,h,611688156f6d22853511ffb3,2021-10-19_12h43.08.565,forced_choiceRT,2021.1.2,Win32,143.6781609,,,,,,,,3,Ontime,h,1,1.956,6,0,24,2,1,,,,,
,0.76,,,,,,,,,g.PNG,g,611688156f6d22853511ffb3,2021-10-19_12h43.08.565,forced_choiceRT,2021.1.2,Win32,143.6781609,,,,,,,,3,Ontime,g,1,1.911,6,1,25,1,1,,,,,
,1.58,,,,,,,,,h.PNG,h,611688156f6d22853511ffb3,2021-10-19_12h43.08.565,forced_choiceRT,2021.1.2,Win32,143.6781609,,,,,,,,3,Slow,h,1,2.169,6,2,26,2,1,,,,,
,0.95,,,,,,,,,h.PNG,h,611688156f6d22853511ffb3,2021-10-19_12h43.08.565,forced_choiceRT,2021.1.2,Win32,143.6781609,,,,,,,,3,Fast,h,1,1.868,6,3,27,2,1,,,,,
,0.67,,,,,,,,,j.PNG,j,611688156f6d22853511ffb3,2021-10-19_12h43.08.565,forced_choiceRT,2021.1.2,Win32,143.6781609,,,,,,,,3,Ontime,j,1,1.981,7,0,28,3,1,,,,,
,1.95,,,,,,,,,f.PNG,f,611688156f6d22853511ffb3,2021-10-19_12h43.08.565,forced_choiceRT,2021.1.2,Win32,143.6781609,,,,,,,,3,Ontime,j,0,2.053,7,1,29,0,1,,,,,
,1.62,,,,,,,,,g.PNG,g,611688156f6d22853511ffb3,2021-10-19_12h43.08.565,forced_choiceRT,2021.1.2,Win32,143.6781609,,,,,,,,3,Slow,h,0,2.343,7,2,30,1,1,,,,,
,1.16,,,,,,,,,g.PNG,g,611688156f6d22853511ffb3,2021-10-19_12h43.08.565,forced_choiceRT,2021.1.2,Win32,143.6781609,,,,,,,,3,Ontime,g,1,1.981,7,3,31,1,1,,,,,
,1.7,,,,,,,,,g.PNG,g,611688156f6d22853511ffb3,2021-10-19_12h43.08.565,forced_choiceRT,2021.1.2,Win32,143.6781609,,,,,,,,3,Ontime,g,1,1.948,8,0,32,1,1,,,,,
,0.65,,,,,,,,,j.PNG,j,611688156f6d22853511ffb3,2021-10-19_12h43.08.565,forced_choiceRT,2021.1.2,Win32,143.6781609,,,,,,,,3,Fast,j,1,1.855,8,1,33,3,1,,,,,
,0.98,,,,,,,,,h.PNG,h,611688156f6d22853511ffb3,2021-10-19_12h43.08.565,forced_choiceRT,2021.1.2,Win32,143.6781609,,,,,,,,3,Ontime,h,1,2.036,8,2,34,2,1,,,,,
,1.63,,,,,,,,,h.PNG,h,611688156f6d22853511ffb3,2021-10-19_12h43.08.565,forced_choiceRT,2021.1.2,Win32,143.6781609,,,,,,,,3,Slow,j,0,2.178,8,3,35,2,1,,,,,
,0.17,,,,,,,,,f.PNG,f,611688156f6d22853511ffb3,2021-10-19_12h43.08.565,forced_choiceRT,2021.1.2,Win32,143.6781609,,,,,,,,3,Fast,f,1,1.897,9,0,36,0,1,,,,,
,1.24,,,,,,,,,f.PNG,f,611688156f6d22853511ffb3,2021-10-19_12h43.08.565,forced_choiceRT,2021.1.2,Win32,143.6781609,,,,,,,,3,Ontime,f,1,2.081,9,1,37,0,1,,,,,
,1.17,,,,,,,,,j.PNG,j,611688156f6d22853511ffb3,2021-10-19_12h43.08.565,forced_choiceRT,2021.1.2,Win32,143.6781609,,,,,,,,3,Ontime,j,1,1.996,9,2,38,3,1,,,,,
,0.39,,,,,,,,,j.PNG,j,611688156f6d22853511ffb3,2021-10-19_12h43.08.565,forced_choiceRT,2021.1.2,Win32,143.6781609,,,,,,,,3,Ontime,j,1,2.019,9,3,39,3,1,,,,,
,,,,,,,,,,,,611688156f6d22853511ffb3,2021-10-19_12h43.08.565,forced_choiceRT,2021.1.2,Win32,143.6781609,,,,,,,,,,,,,,,,,,2,0,2,0,1
,1.43,,,,,,,,,g.PNG,g,611688156f6d22853511ffb3,2021-10-19_12h43.08.565,forced_choiceRT,2021.1.2,Win32,143.6781609,,,,,,,,4,Ontime,h,0,2.078,0,0,0,1,1,,,,,
,0.5,,,,,,,,,g.PNG,g,611688156f6d22853511ffb3,2021-10-19_12h43.08.565,forced_choiceRT,2021.1.2,Win32,143.6781609,,,,,,,,4,Ontime,g,1,1.988,0,1,1,1,1,,,,,
,0.66,,,,,,,,,h.PNG,h,611688156f6d22853511ffb3,2021-10-19_12h43.08.565,forced_choiceRT,2021.1.2,Win32,143.6781609,,,,,,,,4,Ontime,h,1,2.044,0,2,2,2,1,,,,,
,0.23,,,,,,,,,g.PNG,g,611688156f6d22853511ffb3,2021-10-19_12h43.08.565,forced_choiceRT,2021.1.2,Win32,143.6781609,,,,,,,,4,Ontime,g,1,1.931,0,3,3,1,1,,,,,
,1.88,,,,,,,,,h.PNG,h,611688156f6d22853511ffb3,2021-10-19_12h43.08.565,forced_choiceRT,2021.1.2,Win32,143.6781609,,,,,,,,4,Ontime,f,0,2.046,1,0,4,2,1,,,,,
,0.24,,,,,,,,,j.PNG,j,611688156f6d22853511ffb3,2021-10-19_12h43.08.565,forced_choiceRT,2021.1.2,Win32,143.6781609,,,,,,,,4,Ontime,j,1,1.911,1,1,5,3,1,,,,,
,1.74,,,,,,,,,h.PNG,h,611688156f6d22853511ffb3,2021-10-19_12h43.08.565,forced_choiceRT,2021.1.2,Win32,143.6781609,,,,,,,,4,Ontime,h,1,1.981,1,2,6,2,1,,,,,
,1.73,,,,,,,,,j.PNG,j,611688156f6d22853511ffb3,2021-10-19_12h43.08.565,forced_choiceRT,2021.1.2,Win32,143.6781609,,,,,,,,4,Ontime,j,1,1.961,1,3,7,3,1,,,,,
,1.75,,,,,,,,,f.PNG,f,611688156f6d22853511ffb3,2021-10-19_12h43.08.565,forced_choiceRT,2021.1.2,Win32,143.6781609,,,,,,,,4,Ontime,g,0,1.983,2,0,8,0,1,,,,,
,1.35,,,,,,,,,g.PNG,g,611688156f6d22853511ffb3,2021-10-19_12h43.08.565,forced_choiceRT,2021.1.2,Win32,143.6781609,,,,,,,,4,Ontime,h,0,2.071,2,1,9,1,1,,,,,
,0.9,,,,,,,,,f.PNG,f,611688156f6d22853511ffb3,2021-10-19_12h43.08.565,forced_choiceRT,2021.1.2,Win32,143.6781609,,,,,,,,4,Fast,f,1,1.898,2,2,10,0,1,,,,,
,1.93,,,,,,,,,j.PNG,j,611688156f6d22853511ffb3,2021-10-19_12h43.08.565,forced_choiceRT,2021.1.2,Win32,143.6781609,,,,,,,,4,Ontime,f,0,1.941,2,3,11,3,1,,,,,
,0.76,,,,,,,,,f.PNG,f,611688156f6d22853511ffb3,2021-10-19_12h43.08.565,forced_choiceRT,2021.1.2,Win32,143.6781609,,,,,,,,4,Ontime,f,1,2.077,3,0,12,0,1,,,,,
,1.35,,,,,,,,,h.PNG,h,611688156f6d22853511ffb3,2021-10-19_12h43.08.565,forced_choiceRT,2021.1.2,Win32,143.6781609,,,,,,,,4,Slow,h,1,2.148,3,1,13,2,1,,,,,
,0.84,,,,,,,,,f.PNG,f,611688156f6d22853511ffb3,2021-10-19_12h43.08.565,forced_choiceRT,2021.1.2,Win32,143.6781609,,,,,,,,4,Ontime,f,1,2.049,3,2,14,0,1,,,,,
,1.99,,,,,,,,,j.PNG,j,611688156f6d22853511ffb3,2021-10-19_12h43.08.565,forced_choiceRT,2021.1.2,Win32,143.6781609,,,,,,,,4,Ontime,f,0,2.016,3,3,15,3,1,,,,,
,0.8,,,,,,,,,j.PNG,j,611688156f6d22853511ffb3,2021-10-19_12h43.08.565,forced_choiceRT,2021.1.2,Win32,143.6781609,,,,,,,,4,Ontime,j,1,1.985,4,0,16,3,1,,,,,
,1.73,,,,,,,,,f.PNG,f,611688156f6d22853511ffb3,2021-10-19_12h43.08.565,forced_choiceRT,2021.1.2,Win32,143.6781609,,,,,,,,4,Ontime,h,0,2.002,4,1,17,0,1,,,,,
,1.95,,,,,,,,,g.PNG,g,611688156f6d22853511ffb3,2021-10-19_12h43.08.565,forced_choiceRT,2021.1.2,Win32,143.6781609,,,,,,,,4,Ontime,h,0,2.067,4,2,18,1,1,,,,,
,1.42,,,,,,,,,g.PNG,g,611688156f6d22853511ffb3,2021-10-19_12h43.08.565,forced_choiceRT,2021.1.2,Win32,143.6781609,,,,,,,,4,Slow,g,1,2.161,4,3,19,1,1,,,,,
,0.68,,,,,,,,,h.PNG,h,611688156f6d22853511ffb3,2021-10-19_12h43.08.565,forced_choiceRT,2021.1.2,Win32,143.6781609,,,,,,,,4,Ontime,h,1,2.009,5,0,20,2,1,,,,,
,1.54,,,,,,,,,f.PNG,f,611688156f6d22853511ffb3,2021-10-19_12h43.08.565,forced_choiceRT,2021.1.2,Win32,143.6781609,,,,,,,,4,Ontime,f,1,2.087,5,1,21,0,1,,,,,
,0.49,,,,,,,,,g.PNG,g,611688156f6d22853511ffb3,2021-10-19_12h43.08.565,forced_choiceRT,2021.1.2,Win32,143.6781609,,,,,,,,4,Ontime,g,1,2.015,5,2,22,1,1,,,,,
,1.85,,,,,,,,,j.PNG,j,611688156f6d22853511ffb3,2021-10-19_12h43.08.565,forced_choiceRT,2021.1.2,Win32,143.6781609,,,,,,,,4,Ontime,j,1,2.05,5,3,23,3,1,,,,,
,1.68,,,,,,,,,h.PNG,h,611688156f6d22853511ffb3,2021-10-19_12h43.08.565,forced_choiceRT,2021.1.2,Win32,143.6781609,,,,,,,,4,Ontime,f,0,2.029,6,0,24,2,1,,,,,
,0.98,,,,,,,,,g.PNG,g,611688156f6d22853511ffb3,2021-10-19_12h43.08.565,forced_choiceRT,2021.1.2,Win32,143.6781609,,,,,,,,4,Ontime,g,1,2.039,6,1,25,1,1,,,,,
,1.88,,,,,,,,,j.PNG,j,611688156f6d22853511ffb3,2021-10-19_12h43.08.565,forced_choiceRT,2021.1.2,Win32,143.6781609,,,,,,,,4,Ontime,f,0,2.093,6,2,26,3,1,,,,,
,0.18,,,,,,,,,f.PNG,f,611688156f6d22853511ffb3,2021-10-19_12h43.08.565,forced_choiceRT,2021.1.2,Win32,143.6781609,,,,,,,,4,Ontime,f,1,2.015,6,3,27,0,1,,,,,
,0.22,,,,,,,,,h.PNG,h,611688156f6d22853511ffb3,2021-10-19_12h43.08.565,forced_choiceRT,2021.1.2,Win32,143.6781609,,,,,,,,4,Ontime,h,1,1.995,7,0,28,2,1,,,,,
,1.66,,,,,,,,,h.PNG,h,611688156f6d22853511ffb3,2021-10-19_12h43.08.565,forced_choiceRT,2021.1.2,Win32,143.6781609,,,,,,,,4,Ontime,j,0,1.977,7,1,29,2,1,,,,,
,0.83,,,,,,,,,f.PNG,f,611688156f6d22853511ffb3,2021-10-19_12h43.08.565,forced_choiceRT,2021.1.2,Win32,143.6781609,,,,,,,,4,Ontime,f,1,2.035,7,2,30,0,1,,,,,
,1.17,,,,,,,,,h.PNG,h,611688156f6d22853511ffb3,2021-10-19_12h43.08.565,forced_choiceRT,2021.1.2,Win32,143.6781609,,,,,,,,4,Slow,h,1,2.19,7,3,31,2,1,,,,,
,1.77,,,,,,,,,g.PNG,g,611688156f6d22853511ffb3,2021-10-19_12h43.08.565,forced_choiceRT,2021.1.2,Win32,143.6781609,,,,,,,,4,Ontime,h,0,1.995,8,0,32,1,1,,,,,
,0.25,,,,,,,,,f.PNG,f,611688156f6d22853511ffb3,2021-10-19_12h43.08.565,forced_choiceRT,2021.1.2,Win32,143.6781609,,,,,,,,4,Ontime,f,1,1.988,8,1,33,0,1,,,,,
,1.55,,,,,,,,,j.PNG,j,611688156f6d22853511ffb3,2021-10-19_12h43.08.565,forced_choiceRT,2021.1.2,Win32,143.6781609,,,,,,,,4,Ontime,j,1,2.086,8,2,34,3,1,,,,,
,1.74,,,,,,,,,g.PNG,g,611688156f6d22853511ffb3,2021-10-19_12h43.08.565,forced_choiceRT,2021.1.2,Win32,143.6781609,,,,,,,,4,Slow,j,0,2.272,8,3,35,1,1,,,,,
,0.59,,,,,,,,,j.PNG,j,611688156f6d22853511ffb3,2021-10-19_12h43.08.565,forced_choiceRT,2021.1.2,Win32,143.6781609,,,,,,,,4,Ontime,j,1,2.008,9,0,36,3,1,,,,,
,0.14,,,,,,,,,f.PNG,f,611688156f6d22853511ffb3,2021-10-19_12h43.08.565,forced_choiceRT,2021.1.2,Win32,143.6781609,,,,,,,,4,Ontime,f,1,2.049,9,1,37,0,1,,,,,
,0.84,,,,,,,,,j.PNG,j,611688156f6d22853511ffb3,2021-10-19_12h43.08.565,forced_choiceRT,2021.1.2,Win32,143.6781609,,,,,,,,4,Ontime,j,1,1.98,9,2,38,3,1,,,,,
,1.39,,,,,,,,,h.PNG,h,611688156f6d22853511ffb3,2021-10-19_12h43.08.565,forced_choiceRT,2021.1.2,Win32,143.6781609,,,,,,,,4,Ontime,j,0,1.939,9,3,39,2,1,,,,,
,,,,,,,,,,,,611688156f6d22853511ffb3,2021-10-19_12h43.08.565,forced_choiceRT,2021.1.2,Win32,143.6781609,,,,,,,,,,,,,,,,,,3,0,3,0,1
,1.3,,,,,,,,,f.PNG,f,611688156f6d22853511ffb3,2021-10-19_12h43.08.565,forced_choiceRT,2021.1.2,Win32,143.6781609,,,,,,,,5,Slow,f,1,2.125,0,0,0,0,1,,,,,
,1.99,,,,,,,,,h.PNG,h,611688156f6d22853511ffb3,2021-10-19_12h43.08.565,forced_choiceRT,2021.1.2,Win32,143.6781609,,,,,,,,5,Slow,f,0,2.107,0,1,1,2,1,,,,,
,1.72,,,,,,,,,h.PNG,h,611688156f6d22853511ffb3,2021-10-19_12h43.08.565,forced_choiceRT,2021.1.2,Win32,143.6781609,,,,,,,,5,Ontime,h,1,1.962,0,2,2,2,1,,,,,
,0.47,,,,,,,,,j.PNG,j,611688156f6d22853511ffb3,2021-10-19_12h43.08.565,forced_choiceRT,2021.1.2,Win32,143.6781609,,,,,,,,5,Ontime,j,1,1.957,0,3,3,3,1,,,,,
,0.51,,,,,,,,,j.PNG,j,611688156f6d22853511ffb3,2021-10-19_12h43.08.565,forced_choiceRT,2021.1.2,Win32,143.6781609,,,,,,,,5,Ontime,j,1,1.935,1,0,4,3,1,,,,,
,1.52,,,,,,,,,j.PNG,j,611688156f6d22853511ffb3,2021-10-19_12h43.08.565,forced_choiceRT,2021.1.2,Win32,143.6781609,,,,,,,,5,Ontime,j,1,1.939,1,1,5,3,1,,,,,
,0.03,,,,,,,,,f.PNG,f,611688156f6d22853511ffb3,2021-10-19_12h43.08.565,forced_choiceRT,2021.1.2,Win32,143.6781609,,,,,,,,5,Ontime,f,1,1.94,1,2,6,0,1,,,,,
,0.43,,,,,,,,,g.PNG,g,611688156f6d22853511ffb3,2021-10-19_12h43.08.565,forced_choiceRT,2021.1.2,Win32,143.6781609,,,,,,,,5,Fast,g,1,1.87,1,3,7,1,1,,,,,
,1.99,,,,,,,,,g.PNG,g,611688156f6d22853511ffb3,2021-10-19_12h43.08.565,forced_choiceRT,2021.1.2,Win32,143.6781609,,,,,,,,5,Slow,f,0,2.102,2,0,8,1,1,,,,,
,1.97,,,,,,,,,j.PNG,j,611688156f6d22853511ffb3,2021-10-19_12h43.08.565,forced_choiceRT,2021.1.2,Win32,143.6781609,,,,,,,,5,Ontime,h,0,1.984,2,1,9,3,1,,,,,
,1.83,,,,,,,,,j.PNG,j,611688156f6d22853511ffb3,2021-10-19_12h43.08.565,forced_choiceRT,2021.1.2,Win32,143.6781609,,,,,,,,5,Ontime,h,0,2.023,2,2,10,3,1,,,,,
,0.31,,,,,,,,,h.PNG,h,611688156f6d22853511ffb3,2021-10-19_12h43.08.565,forced_choiceRT,2021.1.2,Win32,143.6781609,,,,,,,,5,Ontime,h,1,1.942,2,3,11,2,1,,,,,
,0.98,,,,,,,,,h.PNG,h,611688156f6d22853511ffb3,2021-10-19_12h43.08.565,forced_choiceRT,2021.1.2,Win32,143.6781609,,,,,,,,5,Ontime,h,1,1.968,3,0,12,2,1,,,,,
,1,,,,,,,,,g.PNG,g,611688156f6d22853511ffb3,2021-10-19_12h43.08.565,forced_choiceRT,2021.1.2,Win32,143.6781609,,,,,,,,5,Slow,g,1,2.105,3,1,13,1,1,,,,,
,0.87,,,,,,,,,j.PNG,j,611688156f6d22853511ffb3,2021-10-19_12h43.08.565,forced_choiceRT,2021.1.2,Win32,143.6781609,,,,,,,,5,Ontime,j,1,1.995,3,2,14,3,1,,,,,
,1.4,,,,,,,,,g.PNG,g,611688156f6d22853511ffb3,2021-10-19_12h43.08.565,forced_choiceRT,2021.1.2,Win32,143.6781609,,,,,,,,5,Ontime,g,1,2.074,3,3,15,1,1,,,,,
,0.76,,,,,,,,,f.PNG,f,611688156f6d22853511ffb3,2021-10-19_12h43.08.565,forced_choiceRT,2021.1.2,Win32,143.6781609,,,,,,,,5,Ontime,f,1,2.007,4,0,16,0,1,,,,,
,0.18,,,,,,,,,h.PNG,h,611688156f6d22853511ffb3,2021-10-19_12h43.08.565,forced_choiceRT,2021.1.2,Win32,143.6781609,,,,,,,,5,Ontime,h,1,1.942,4,1,17,2,1,,,,,
,0.99,,,,,,,,,g.PNG,g,611688156f6d22853511ffb3,2021-10-19_12h43.08.565,forced_choiceRT,2021.1.2,Win32,143.6781609,,,,,,,,5,Ontime,g,1,2.07,4,2,18,1,1,,,,,
,0.62,,,,,,,,,h.PNG,h,611688156f6d22853511ffb3,2021-10-19_12h43.08.565,forced_choiceRT,2021.1.2,Win32,143.6781609,,,,,,,,5,Ontime,h,1,2.016,4,3,19,2,1,,,,,
,0.99,,,,,,,,,g.PNG,g,611688156f6d22853511ffb3,2021-10-19_12h43.08.565,forced_choiceRT,2021.1.2,Win32,143.6781609,,,,,,,,5,Slow,g,1,2.126,5,0,20,1,1,,,,,
,0.14,,,,,,,,,f.PNG,f,611688156f6d22853511ffb3,2021-10-19_12h43.08.565,forced_choiceRT,2021.1.2,Win32,143.6781609,,,,,,,,5,Ontime,f,1,2.05,5,1,21,0,1,,,,,
,1.32,,,,,,,,,h.PNG,h,611688156f6d22853511ffb3,2021-10-19_12h43.08.565,forced_choiceRT,2021.1.2,Win32,143.6781609,,,,,,,,5,Slow,h,1,2.239,5,2,22,2,1,,,,,
,1.87,,,,,,,,,f.PNG,f,611688156f6d22853511ffb3,2021-10-19_12h43.08.565,forced_choiceRT,2021.1.2,Win32,143.6781609,,,,,,,,5,Ontime,g,0,2.032,5,3,23,0,1,,,,,
,0.43,,,,,,,,,g.PNG,g,611688156f6d22853511ffb3,2021-10-19_12h43.08.565,forced_choiceRT,2021.1.2,Win32,143.6781609,,,,,,,,5,Ontime,g,1,2.017,6,0,24,1,1,,,,,
,0.48,,,,,,,,,f.PNG,f,611688156f6d22853511ffb3,2021-10-19_12h43.08.565,forced_choiceRT,2021.1.2,Win32,143.6781609,,,,,,,,5,Ontime,f,1,1.906,6,1,25,0,1,,,,,
,0.21,,,,,,,,,g.PNG,g,611688156f6d22853511ffb3,2021-10-19_12h43.08.565,forced_choiceRT,2021.1.2,Win32,143.6781609,,,,,,,,5,Ontime,g,1,1.972,6,2,26,1,1,,,,,
,1.6,,,,,,,,,f.PNG,f,611688156f6d22853511ffb3,2021-10-19_12h43.08.565,forced_choiceRT,2021.1.2,Win32,143.6781609,,,,,,,,5,Fast,f,1,1.899,6,3,27,0,1,,,,,
,1.38,,,,,,,,,h.PNG,h,611688156f6d22853511ffb3,2021-10-19_12h43.08.565,forced_choiceRT,2021.1.2,Win32,143.6781609,,,,,,,,5,Slow,h,1,2.205,7,0,28,2,1,,,,,
,0.64,,,,,,,,,g.PNG,g,611688156f6d22853511ffb3,2021-10-19_12h43.08.565,forced_choiceRT,2021.1.2,Win32,143.6781609,,,,,,,,5,Ontime,g,1,1.914,7,1,29,1,1,,,,,
,1.78,,,,,,,,,f.PNG,f,611688156f6d22853511ffb3,2021-10-19_12h43.08.565,forced_choiceRT,2021.1.2,Win32,143.6781609,,,,,,,,5,Ontime,g,0,2.037,7,2,30,0,1,,,,,
,1.6,,,,,,,,,f.PNG,f,611688156f6d22853511ffb3,2021-10-19_12h43.08.565,forced_choiceRT,2021.1.2,Win32,143.6781609,,,,,,,,5,Fast,f,1,1.897,7,3,31,0,1,,,,,
,1.44,,,,,,,,,g.PNG,g,611688156f6d22853511ffb3,2021-10-19_12h43.08.565,forced_choiceRT,2021.1.2,Win32,143.6781609,,,,,,,,5,Ontime,h,0,2.079,8,0,32,1,1,,,,,
,1.33,,,,,,,,,j.PNG,j,611688156f6d22853511ffb3,2021-10-19_12h43.08.565,forced_choiceRT,2021.1.2,Win32,143.6781609,,,,,,,,5,Slow,j,1,2.129,8,1,33,3,1,,,,,
,0.01,,,,,,,,,h.PNG,h,611688156f6d22853511ffb3,2021-10-19_12h43.08.565,forced_choiceRT,2021.1.2,Win32,143.6781609,,,,,,,,5,Ontime,h,1,1.943,8,2,34,2,1,,,,,
,0.7,,,,,,,,,j.PNG,j,611688156f6d22853511ffb3,2021-10-19_12h43.08.565,forced_choiceRT,2021.1.2,Win32,143.6781609,,,,,,,,5,Fast,j,1,1.893,8,3,35,3,1,,,,,
,1.34,,,,,,,,,f.PNG,f,611688156f6d22853511ffb3,2021-10-19_12h43.08.565,forced_choiceRT,2021.1.2,Win32,143.6781609,,,,,,,,5,Ontime,f,1,2.079,9,0,36,0,1,,,,,
,1.61,,,,,,,,,h.PNG,h,611688156f6d22853511ffb3,2021-10-19_12h43.08.565,forced_choiceRT,2021.1.2,Win32,143.6781609,,,,,,,,5,Slow,f,0,2.133,9,1,37,2,1,,,,,
,1.4,,,,,,,,,j.PNG,j,611688156f6d22853511ffb3,2021-10-19_12h43.08.565,forced_choiceRT,2021.1.2,Win32,143.6781609,,,,,,,,5,Slow,j,1,2.12,9,2,38,3,1,,,,,
,1.65,,,,,,,,,j.PNG,j,611688156f6d22853511ffb3,2021-10-19_12h43.08.565,forced_choiceRT,2021.1.2,Win32,143.6781609,,,,,,,,5,Slow,j,1,2.112,9,3,39,3,1,,,,,
,,,,,,,,,,,,611688156f6d22853511ffb3,2021-10-19_12h43.08.565,forced_choiceRT,2021.1.2,Win32,143.6781609,,,,,,,,,,,,,,,,,,4,0,4,0,1
,0.14,,,,,,,,,g.PNG,g,611688156f6d22853511ffb3,2021-10-19_12h43.08.565,forced_choiceRT,2021.1.2,Win32,143.6781609,,,,,,,,6,Fast,g,1,1.673,0,0,0,1,1,,,,,
,1.39,,,,,,,,,j.PNG,j,611688156f6d22853511ffb3,2021-10-19_12h43.08.565,forced_choiceRT,2021.1.2,Win32,143.6781609,,,,,,,,6,Slow,h,0,2.125,0,1,1,3,1,,,,,
,1.15,,,,,,,,,j.PNG,j,611688156f6d22853511ffb3,2021-10-19_12h43.08.565,forced_choiceRT,2021.1.2,Win32,143.6781609,,,,,,,,6,Ontime,j,1,1.982,0,2,2,3,1,,,,,
,1.15,,,,,,,,,j.PNG,j,611688156f6d22853511ffb3,2021-10-19_12h43.08.565,forced_choiceRT,2021.1.2,Win32,143.6781609,,,,,,,,6,Ontime,j,1,1.959,0,3,3,3,1,,,,,
,1.09,,,,,,,,,f.PNG,f,611688156f6d22853511ffb3,2021-10-19_12h43.08.565,forced_choiceRT,2021.1.2,Win32,143.6781609,,,,,,,,6,Ontime,f,1,1.953,1,0,4,0,1,,,,,
,0.28,,,,,,,,,h.PNG,h,611688156f6d22853511ffb3,2021-10-19_12h43.08.565,forced_choiceRT,2021.1.2,Win32,143.6781609,,,,,,,,6,Ontime,h,1,1.942,1,1,5,2,1,,,,,
,1.81,,,,,,,,,g.PNG,g,611688156f6d22853511ffb3,2021-10-19_12h43.08.565,forced_choiceRT,2021.1.2,Win32,143.6781609,,,,,,,,6,Ontime,f,0,1.989,1,2,6,1,1,,,,,
,0.02,,,,,,,,,f.PNG,f,611688156f6d22853511ffb3,2021-10-19_12h43.08.565,forced_choiceRT,2021.1.2,Win32,143.6781609,,,,,,,,6,Ontime,f,1,1.985,1,3,7,0,1,,,,,
,1.01,,,,,,,,,h.PNG,h,611688156f6d22853511ffb3,2021-10-19_12h43.08.565,forced_choiceRT,2021.1.2,Win32,143.6781609,,,,,,,,6,Ontime,h,1,1.982,2,0,8,2,1,,,,,
,0.57,,,,,,,,,f.PNG,f,611688156f6d22853511ffb3,2021-10-19_12h43.08.565,forced_choiceRT,2021.1.2,Win32,143.6781609,,,,,,,,6,Ontime,f,1,1.943,2,1,9,0,1,,,,,
,1.09,,,,,,,,,h.PNG,h,611688156f6d22853511ffb3,2021-10-19_12h43.08.565,forced_choiceRT,2021.1.2,Win32,143.6781609,,,,,,,,6,Ontime,h,1,2.002,2,2,10,2,1,,,,,
,0.43,,,,,,,,,f.PNG,f,611688156f6d22853511ffb3,2021-10-19_12h43.08.565,forced_choiceRT,2021.1.2,Win32,143.6781609,,,,,,,,6,Ontime,f,1,1.967,2,3,11,0,1,,,,,
,0.86,,,,,,,,,h.PNG,h,611688156f6d22853511ffb3,2021-10-19_12h43.08.565,forced_choiceRT,2021.1.2,Win32,143.6781609,,,,,,,,6,Ontime,h,1,1.959,3,0,12,2,1,,,,,
,0.09,,,,,,,,,g.PNG,g,611688156f6d22853511ffb3,2021-10-19_12h43.08.565,forced_choiceRT,2021.1.2,Win32,143.6781609,,,,,,,,6,Ontime,g,1,1.932,3,1,13,1,1,,,,,
,0.12,,,,,,,,,g.PNG,g,611688156f6d22853511ffb3,2021-10-19_12h43.08.565,forced_choiceRT,2021.1.2,Win32,143.6781609,,,,,,,,6,Ontime,g,1,1.988,3,2,14,1,1,,,,,
,0.65,,,,,,,,,g.PNG,g,611688156f6d22853511ffb3,2021-10-19_12h43.08.565,forced_choiceRT,2021.1.2,Win32,143.6781609,,,,,,,,6,Ontime,g,1,1.99,3,3,15,1,1,,,,,
,1.45,,,,,,,,,g.PNG,g,611688156f6d22853511ffb3,2021-10-19_12h43.08.565,forced_choiceRT,2021.1.2,Win32,143.6781609,,,,,,,,6,Ontime,g,1,2.07,4,0,16,1,1,,,,,
,0.91,,,,,,,,,j.PNG,j,611688156f6d22853511ffb3,2021-10-19_12h43.08.565,forced_choiceRT,2021.1.2,Win32,143.6781609,,,,,,,,6,Ontime,j,1,1.938,4,1,17,3,1,,,,,
,1.01,,,,,,,,,h.PNG,h,611688156f6d22853511ffb3,2021-10-19_12h43.08.565,forced_choiceRT,2021.1.2,Win32,143.6781609,,,,,,,,6,Ontime,h,1,2.043,4,2,18,2,1,,,,,
,0.76,,,,,,,,,g.PNG,g,611688156f6d22853511ffb3,2021-10-19_12h43.08.565,forced_choiceRT,2021.1.2,Win32,143.6781609,,,,,,,,6,Ontime,g,1,1.988,4,3,19,1,1,,,,,
,0.47,,,,,,,,,h.PNG,h,611688156f6d22853511ffb3,2021-10-19_12h43.08.565,forced_choiceRT,2021.1.2,Win32,143.6781609,,,,,,,,6,Ontime,h,1,2.003,5,0,20,2,1,,,,,
,1.87,,,,,,,,,h.PNG,h,611688156f6d22853511ffb3,2021-10-19_12h43.08.565,forced_choiceRT,2021.1.2,Win32,143.6781609,,,,,,,,6,Ontime,j,0,2.016,5,1,21,2,1,,,,,
,1.75,,,,,,,,,j.PNG,j,611688156f6d22853511ffb3,2021-10-19_12h43.08.565,forced_choiceRT,2021.1.2,Win32,143.6781609,,,,,,,,6,Ontime,h,0,1.946,5,2,22,3,1,,,,,
,0.14,,,,,,,,,f.PNG,f,611688156f6d22853511ffb3,2021-10-19_12h43.08.565,forced_choiceRT,2021.1.2,Win32,143.6781609,,,,,,,,6,Fast,f,1,1.711,5,3,23,0,1,,,,,
,0.63,,,,,,,,,f.PNG,f,611688156f6d22853511ffb3,2021-10-19_12h43.08.565,forced_choiceRT,2021.1.2,Win32,143.6781609,,,,,,,,6,Ontime,f,1,1.967,6,0,24,0,1,,,,,
,1.78,,,,,,,,,g.PNG,g,611688156f6d22853511ffb3,2021-10-19_12h43.08.565,forced_choiceRT,2021.1.2,Win32,143.6781609,,,,,,,,6,Ontime,f,0,1.982,6,1,25,1,1,,,,,
,1.17,,,,,,,,,f.PNG,f,611688156f6d22853511ffb3,2021-10-19_12h43.08.565,forced_choiceRT,2021.1.2,Win32,143.6781609,,,,,,,,6,Ontime,f,1,2.024,6,2,26,0,1,,,,,
,1.35,,,,,,,,,f.PNG,f,611688156f6d22853511ffb3,2021-10-19_12h43.08.565,forced_choiceRT,2021.1.2,Win32,143.6781609,,,,,,,,6,Slow,f,1,2.193,6,3,27,0,1,,,,,
,0.25,,,,,,,,,j.PNG,j,611688156f6d22853511ffb3,2021-10-19_12h43.08.565,forced_choiceRT,2021.1.2,Win32,143.6781609,,,,,,,,6,Ontime,j,1,2.004,7,0,28,3,1,,,,,
,1.38,,,,,,,,,g.PNG,g,611688156f6d22853511ffb3,2021-10-19_12h43.08.565,forced_choiceRT,2021.1.2,Win32,143.6781609,,,,,,,,6,Slow,g,1,2.241,7,1,29,1,1,,,,,
,1.4,,,,,,,,,j.PNG,j,611688156f6d22853511ffb3,2021-10-19_12h43.08.565,forced_choiceRT,2021.1.2,Win32,143.6781609,,,,,,,,6,Ontime,j,1,1.98,7,2,30,3,1,,,,,
,1.09,,,,,,,,,j.PNG,j,611688156f6d22853511ffb3,2021-10-19_12h43.08.565,forced_choiceRT,2021.1.2,Win32,143.6781609,,,,,,,,6,Ontime,j,1,1.954,7,3,31,3,1,,,,,
,1.76,,,,,,,,,j.PNG,j,611688156f6d22853511ffb3,2021-10-19_12h43.08.565,forced_choiceRT,2021.1.2,Win32,143.6781609,,,,,,,,6,Ontime,j,1,2.077,8,0,32,3,1,,,,,
,0.79,,,,,,,,,h.PNG,h,611688156f6d22853511ffb3,2021-10-19_12h43.08.565,forced_choiceRT,2021.1.2,Win32,143.6781609,,,,,,,,6,Fast,h,1,1.878,8,1,33,2,1,,,,,
,1.53,,,,,,,,,j.PNG,j,611688156f6d22853511ffb3,2021-10-19_12h43.08.565,forced_choiceRT,2021.1.2,Win32,143.6781609,,,,,,,,6,Slow,j,1,2.101,8,2,34,3,1,,,,,
,0.6,,,,,,,,,f.PNG,f,611688156f6d22853511ffb3,2021-10-19_12h43.08.565,forced_choiceRT,2021.1.2,Win32,143.6781609,,,,,,,,6,Ontime,f,1,1.979,8,3,35,0,1,,,,,
,0.33,,,,,,,,,h.PNG,h,611688156f6d22853511ffb3,2021-10-19_12h43.08.565,forced_choiceRT,2021.1.2,Win32,143.6781609,,,,,,,,6,Ontime,h,1,1.906,9,0,36,2,1,,,,,
,0.41,,,,,,,,,f.PNG,f,611688156f6d22853511ffb3,2021-10-19_12h43.08.565,forced_choiceRT,2021.1.2,Win32,143.6781609,,,,,,,,6,Ontime,f,1,2.007,9,1,37,0,1,,,,,
,1.73,,,,,,,,,g.PNG,g,611688156f6d22853511ffb3,2021-10-19_12h43.08.565,forced_choiceRT,2021.1.2,Win32,143.6781609,,,,,,,,6,Ontime,f,0,2.058,9,2,38,1,1,,,,,
,1.54,,,,,,,,,h.PNG,h,611688156f6d22853511ffb3,2021-10-19_12h43.08.565,forced_choiceRT,2021.1.2,Win32,143.6781609,,,,,,,,6,Slow,h,1,2.203,9,3,39,2,1,,,,,
,,,,,,,,,,,,611688156f6d22853511ffb3,2021-10-19_12h43.08.565,forced_choiceRT,2021.1.2,Win32,143.6781609,,,,,,,,,,,,,,,,,,5,0,5,0,1
,1.09,,,,,,,,,j.PNG,j,611688156f6d22853511ffb3,2021-10-19_12h43.08.565,forced_choiceRT,2021.1.2,Win32,143.6781609,,,,,,,,7,Fast,j,1,1.869,0,0,0,3,1,,,,,
,0.22,,,,,,,,,h.PNG,h,611688156f6d22853511ffb3,2021-10-19_12h43.08.565,forced_choiceRT,2021.1.2,Win32,143.6781609,,,,,,,,7,Ontime,h,1,1.952,0,1,1,2,1,,,,,
,0.02,,,,,,,,,j.PNG,j,611688156f6d22853511ffb3,2021-10-19_12h43.08.565,forced_choiceRT,2021.1.2,Win32,143.6781609,,,,,,,,7,Ontime,j,1,1.993,0,2,2,3,1,,,,,
,1.53,,,,,,,,,j.PNG,j,611688156f6d22853511ffb3,2021-10-19_12h43.08.565,forced_choiceRT,2021.1.2,Win32,143.6781609,,,,,,,,7,Ontime,j,1,2.073,0,3,3,3,1,,,,,
,1.22,,,,,,,,,g.PNG,g,611688156f6d22853511ffb3,2021-10-19_12h43.08.565,forced_choiceRT,2021.1.2,Win32,143.6781609,,,,,,,,7,Ontime,g,1,2.024,1,0,4,1,1,,,,,
,1.26,,,,,,,,,f.PNG,f,611688156f6d22853511ffb3,2021-10-19_12h43.08.565,forced_choiceRT,2021.1.2,Win32,143.6781609,,,,,,,,7,Ontime,f,1,2.081,1,1,5,0,1,,,,,
,1.55,,,,,,,,,h.PNG,h,611688156f6d22853511ffb3,2021-10-19_12h43.08.565,forced_choiceRT,2021.1.2,Win32,143.6781609,,,,,,,,7,Ontime,h,1,2.081,1,2,6,2,1,,,,,
,0.31,,,,,,,,,g.PNG,g,611688156f6d22853511ffb3,2021-10-19_12h43.08.565,forced_choiceRT,2021.1.2,Win32,143.6781609,,,,,,,,7,Ontime,g,1,2.023,1,3,7,1,1,,,,,
,1.27,,,,,,,,,j.PNG,j,611688156f6d22853511ffb3,2021-10-19_12h43.08.565,forced_choiceRT,2021.1.2,Win32,143.6781609,,,,,,,,7,Slow,j,1,2.111,2,0,8,3,1,,,,,
,1.93,,,,,,,,,g.PNG,g,611688156f6d22853511ffb3,2021-10-19_12h43.08.565,forced_choiceRT,2021.1.2,Win32,143.6781609,,,,,,,,7,Ontime,j,0,2.099,2,1,9,1,1,,,,,
,0.71,,,,,,,,,g.PNG,g,611688156f6d22853511ffb3,2021-10-19_12h43.08.565,forced_choiceRT,2021.1.2,Win32,143.6781609,,,,,,,,7,Ontime,g,1,1.982,2,2,10,1,1,,,,,
,1.37,,,,,,,,,h.PNG,h,611688156f6d22853511ffb3,2021-10-19_12h43.08.565,forced_choiceRT,2021.1.2,Win32,143.6781609,,,,,,,,7,Ontime,h,1,1.919,2,3,11,2,1,,,,,
,1.16,,,,,,,,,f.PNG,f,611688156f6d22853511ffb3,2021-10-19_12h43.08.565,forced_choiceRT,2021.1.2,Win32,143.6781609,,,,,,,,7,Ontime,f,1,2.03,3,0,12,0,1,,,,,
,0.09,,,,,,,,,f.PNG,f,611688156f6d22853511ffb3,2021-10-19_12h43.08.565,forced_choiceRT,2021.1.2,Win32,143.6781609,,,,,,,,7,Ontime,f,1,1.947,3,1,13,0,1,,,,,
,1.07,,,,,,,,,g.PNG,g,611688156f6d22853511ffb3,2021-10-19_12h43.08.565,forced_choiceRT,2021.1.2,Win32,143.6781609,,,,,,,,7,Slow,g,1,2.108,3,2,14,1,1,,,,,
,0.47,,,,,,,,,j.PNG,j,611688156f6d22853511ffb3,2021-10-19_12h43.08.565,forced_choiceRT,2021.1.2,Win32,143.6781609,,,,,,,,7,Ontime,j,1,1.981,3,3,15,3,1,,,,,
,1.9,,,,,,,,,f.PNG,f,611688156f6d22853511ffb3,2021-10-19_12h43.08.565,forced_choiceRT,2021.1.2,Win32,143.6781609,,,,,,,,7,Ontime,f,1,2.092,4,0,16,0,1,,,,,
,0.55,,,,,,,,,f.PNG,f,611688156f6d22853511ffb3,2021-10-19_12h43.08.565,forced_choiceRT,2021.1.2,Win32,143.6781609,,,,,,,,7,Ontime,f,1,1.912,4,1,17,0,1,,,,,
,0.61,,,,,,,,,g.PNG,g,611688156f6d22853511ffb3,2021-10-19_12h43.08.565,forced_choiceRT,2021.1.2,Win32,143.6781609,,,,,,,,7,Fast,g,1,1.854,4,2,18,1,1,,,,,
,0.9,,,,,,,,,h.PNG,h,611688156f6d22853511ffb3,2021-10-19_12h43.08.565,forced_choiceRT,2021.1.2,Win32,143.6781609,,,,,,,,7,Ontime,h,1,1.991,4,3,19,2,1,,,,,
,1.25,,,,,,,,,j.PNG,j,611688156f6d22853511ffb3,2021-10-19_12h43.08.565,forced_choiceRT,2021.1.2,Win32,143.6781609,,,,,,,,7,Slow,j,1,2.203,5,0,20,3,1,,,,,
,1.99,,,,,,,,,h.PNG,h,611688156f6d22853511ffb3,2021-10-19_12h43.08.565,forced_choiceRT,2021.1.2,Win32,143.6781609,,,,,,,,7,Slow,j,0,2.137,5,1,21,2,1,,,,,
,1.29,,,,,,,,,g.PNG,g,611688156f6d22853511ffb3,2021-10-19_12h43.08.565,forced_choiceRT,2021.1.2,Win32,143.6781609,,,,,,,,7,Ontime,g,1,1.935,5,2,22,1,1,,,,,
,1.28,,,,,,,,,h.PNG,h,611688156f6d22853511ffb3,2021-10-19_12h43.08.565,forced_choiceRT,2021.1.2,Win32,143.6781609,,,,,,,,7,Ontime,h,1,2.009,5,3,23,2,1,,,,,
,1.87,,,,,,,,,g.PNG,g,611688156f6d22853511ffb3,2021-10-19_12h43.08.565,forced_choiceRT,2021.1.2,Win32,143.6781609,,,,,,,,7,Ontime,j,0,2.022,6,0,24,1,1,,,,,
,0.15,,,,,,,,,g.PNG,g,611688156f6d22853511ffb3,2021-10-19_12h43.08.565,forced_choiceRT,2021.1.2,Win32,143.6781609,,,,,,,,7,Fast,g,1,1.83,6,1,25,1,1,,,,,
,1.08,,,,,,,,,g.PNG,g,611688156f6d22853511ffb3,2021-10-19_12h43.08.565,forced_choiceRT,2021.1.2,Win32,143.6781609,,,,,,,,7,Fast,g,1,1.898,6,2,26,1,1,,,,,
,1.79,,,,,,,,,f.PNG,f,611688156f6d22853511ffb3,2021-10-19_12h43.08.565,forced_choiceRT,2021.1.2,Win32,143.6781609,,,,,,,,7,Slow,f,1,2.371,6,3,27,0,1,,,,,
,1.01,,,,,,,,,f.PNG,f,611688156f6d22853511ffb3,2021-10-19_12h43.08.565,forced_choiceRT,2021.1.2,Win32,143.6781609,,,,,,,,7,Fast,f,1,1.834,7,0,28,0,1,,,,,
,1.75,,,,,,,,,h.PNG,h,611688156f6d22853511ffb3,2021-10-19_12h43.08.565,forced_choiceRT,2021.1.2,Win32,143.6781609,,,,,,,,7,Ontime,f,0,1.96,7,1,29,2,1,,,,,
,0.19,,,,,,,,,j.PNG,j,611688156f6d22853511ffb3,2021-10-19_12h43.08.565,forced_choiceRT,2021.1.2,Win32,143.6781609,,,,,,,,7,Ontime,j,1,2.051,7,2,30,3,1,,,,,
,1.35,,,,,,,,,j.PNG,j,611688156f6d22853511ffb3,2021-10-19_12h43.08.565,forced_choiceRT,2021.1.2,Win32,143.6781609,,,,,,,,7,Slow,j,1,2.247,7,3,31,3,1,,,,,
,1.58,,,,,,,,,f.PNG,f,611688156f6d22853511ffb3,2021-10-19_12h43.08.565,forced_choiceRT,2021.1.2,Win32,143.6781609,,,,,,,,7,Slow,f,1,2.148,8,0,32,0,1,,,,,
,1.47,,,,,,,,,h.PNG,h,611688156f6d22853511ffb3,2021-10-19_12h43.08.565,forced_choiceRT,2021.1.2,Win32,143.6781609,,,,,,,,7,Ontime,h,1,2.029,8,1,33,2,1,,,,,
,1.77,,,,,,,,,j.PNG,j,611688156f6d22853511ffb3,2021-10-19_12h43.08.565,forced_choiceRT,2021.1.2,Win32,143.6781609,,,,,,,,7,Ontime,j,1,1.955,8,2,34,3,1,,,,,
,1.53,,,,,,,,,h.PNG,h,611688156f6d22853511ffb3,2021-10-19_12h43.08.565,forced_choiceRT,2021.1.2,Win32,143.6781609,,,,,,,,7,Ontime,j,0,1.997,8,3,35,2,1,,,,,
,0.18,,,,,,,,,f.PNG,f,611688156f6d22853511ffb3,2021-10-19_12h43.08.565,forced_choiceRT,2021.1.2,Win32,143.6781609,,,,,,,,7,Ontime,f,1,1.92,9,0,36,0,1,,,,,
,1.52,,,,,,,,,h.PNG,h,611688156f6d22853511ffb3,2021-10-19_12h43.08.565,forced_choiceRT,2021.1.2,Win32,143.6781609,,,,,,,,7,Ontime,h,1,2.064,9,1,37,2,1,,,,,
,1.72,,,,,,,,,f.PNG,f,611688156f6d22853511ffb3,2021-10-19_12h43.08.565,forced_choiceRT,2021.1.2,Win32,143.6781609,,,,,,,,7,Ontime,j,0,1.967,9,2,38,0,1,,,,,
,1.11,,,,,,,,,j.PNG,j,611688156f6d22853511ffb3,2021-10-19_12h43.08.565,forced_choiceRT,2021.1.2,Win32,143.6781609,,,,,,,,7,Ontime,j,1,1.915,9,3,39,3,1,,,,,
,,,,,,,,,,,,611688156f6d22853511ffb3,2021-10-19_12h43.08.565,forced_choiceRT,2021.1.2,Win32,143.6781609,,,,,,,,,,,,,,,,,,6,0,6,0,1
,0.58,,,,,,,,,g.PNG,g,611688156f6d22853511ffb3,2021-10-19_12h43.08.565,forced_choiceRT,2021.1.2,Win32,143.6781609,,,,,,,,8,Fast,g,1,1.781,0,0,0,1,1,,,,,
,1.73,,,,,,,,,j.PNG,j,611688156f6d22853511ffb3,2021-10-19_12h43.08.565,forced_choiceRT,2021.1.2,Win32,143.6781609,,,,,,,,8,Ontime,f,0,2.005,0,1,1,3,1,,,,,
,1.52,,,,,,,,,f.PNG,f,611688156f6d22853511ffb3,2021-10-19_12h43.08.565,forced_choiceRT,2021.1.2,Win32,143.6781609,,,,,,,,8,Ontime,f,1,1.995,0,2,2,0,1,,,,,
,0.38,,,,,,,,,g.PNG,g,611688156f6d22853511ffb3,2021-10-19_12h43.08.565,forced_choiceRT,2021.1.2,Win32,143.6781609,,,,,,,,8,Fast,g,1,1.726,0,3,3,1,1,,,,,
,1.91,,,,,,,,,f.PNG,f,611688156f6d22853511ffb3,2021-10-19_12h43.08.565,forced_choiceRT,2021.1.2,Win32,143.6781609,,,,,,,,8,Slow,f,1,2.148,1,0,4,0,1,,,,,
,0.37,,,,,,,,,f.PNG,f,611688156f6d22853511ffb3,2021-10-19_12h43.08.565,forced_choiceRT,2021.1.2,Win32,143.6781609,,,,,,,,8,Ontime,f,1,1.988,1,1,5,0,1,,,,,
,1.7,,,,,,,,,j.PNG,j,611688156f6d22853511ffb3,2021-10-19_12h43.08.565,forced_choiceRT,2021.1.2,Win32,143.6781609,,,,,,,,8,Slow,j,1,2.211,1,2,6,3,1,,,,,
,1.56,,,,,,,,,f.PNG,f,611688156f6d22853511ffb3,2021-10-19_12h43.08.565,forced_choiceRT,2021.1.2,Win32,143.6781609,,,,,,,,8,Slow,f,1,2.114,1,3,7,0,1,,,,,
,0.68,,,,,,,,,h.PNG,h,611688156f6d22853511ffb3,2021-10-19_12h43.08.565,forced_choiceRT,2021.1.2,Win32,143.6781609,,,,,,,,8,Ontime,h,1,1.966,2,0,8,2,1,,,,,
,1.11,,,,,,,,,f.PNG,f,611688156f6d22853511ffb3,2021-10-19_12h43.08.565,forced_choiceRT,2021.1.2,Win32,143.6781609,,,,,,,,8,Ontime,f,1,1.935,2,1,9,0,1,,,,,
,1.43,,,,,,,,,h.PNG,h,611688156f6d22853511ffb3,2021-10-19_12h43.08.565,forced_choiceRT,2021.1.2,Win32,143.6781609,,,,,,,,8,Slow,h,1,2.135,2,2,10,2,1,,,,,
,1.93,,,,,,,,,f.PNG,f,611688156f6d22853511ffb3,2021-10-19_12h43.08.565,forced_choiceRT,2021.1.2,Win32,143.6781609,,,,,,,,8,Ontime,j,0,2.079,2,3,11,0,1,,,,,
,1.46,,,,,,,,,j.PNG,j,611688156f6d22853511ffb3,2021-10-19_12h43.08.565,forced_choiceRT,2021.1.2,Win32,143.6781609,,,,,,,,8,Ontime,j,1,1.968,3,0,12,3,1,,,,,
,1.42,,,,,,,,,h.PNG,h,611688156f6d22853511ffb3,2021-10-19_12h43.08.565,forced_choiceRT,2021.1.2,Win32,143.6781609,,,,,,,,8,Ontime,h,1,2.063,3,1,13,2,1,,,,,
,0.66,,,,,,,,,j.PNG,j,611688156f6d22853511ffb3,2021-10-19_12h43.08.565,forced_choiceRT,2021.1.2,Win32,143.6781609,,,,,,,,8,Ontime,j,1,1.973,3,2,14,3,1,,,,,
,1.21,,,,,,,,,f.PNG,f,611688156f6d22853511ffb3,2021-10-19_12h43.08.565,forced_choiceRT,2021.1.2,Win32,143.6781609,,,,,,,,8,Fast,f,1,1.849,3,3,15,0,1,,,,,
,0.97,,,,,,,,,h.PNG,h,611688156f6d22853511ffb3,2021-10-19_12h43.08.565,forced_choiceRT,2021.1.2,Win32,143.6781609,,,,,,,,8,Ontime,h,1,1.904,4,0,16,2,1,,,,,
,0.69,,,,,,,,,h.PNG,h,611688156f6d22853511ffb3,2021-10-19_12h43.08.565,forced_choiceRT,2021.1.2,Win32,143.6781609,,,,,,,,8,Ontime,h,1,1.948,4,1,17,2,1,,,,,
,0.12,,,,,,,,,j.PNG,j,611688156f6d22853511ffb3,2021-10-19_12h43.08.565,forced_choiceRT,2021.1.2,Win32,143.6781609,,,,,,,,8,Fast,j,1,1.83,4,2,18,3,1,,,,,
,0.76,,,,,,,,,j.PNG,j,611688156f6d22853511ffb3,2021-10-19_12h43.08.565,forced_choiceRT,2021.1.2,Win32,143.6781609,,,,,,,,8,Ontime,j,1,1.995,4,3,19,3,1,,,,,
,0.77,,,,,,,,,h.PNG,h,611688156f6d22853511ffb3,2021-10-19_12h43.08.565,forced_choiceRT,2021.1.2,Win32,143.6781609,,,,,,,,8,Ontime,h,1,1.993,5,0,20,2,1,,,,,
,0.68,,,,,,,,,j.PNG,j,611688156f6d22853511ffb3,2021-10-19_12h43.08.565,forced_choiceRT,2021.1.2,Win32,143.6781609,,,,,,,,8,Ontime,j,1,2.008,5,1,21,3,1,,,,,
,1.95,,,,,,,,,h.PNG,h,611688156f6d22853511ffb3,2021-10-19_12h43.08.565,forced_choiceRT,2021.1.2,Win32,143.6781609,,,,,,,,8,Ontime,j,0,2.087,5,2,22,2,1,,,,,
,0.17,,,,,,,,,g.PNG,g,611688156f6d22853511ffb3,2021-10-19_12h43.08.565,forced_choiceRT,2021.1.2,Win32,143.6781609,,,,,,,,8,Ontime,g,1,1.967,5,3,23,1,1,,,,,
,1.71,,,,,,,,,f.PNG,f,611688156f6d22853511ffb3,2021-10-19_12h43.08.565,forced_choiceRT,2021.1.2,Win32,143.6781609,,,,,,,,8,Ontime,g,0,2.078,6,0,24,0,1,,,,,
,0.72,,,,,,,,,g.PNG,g,611688156f6d22853511ffb3,2021-10-19_12h43.08.565,forced_choiceRT,2021.1.2,Win32,143.6781609,,,,,,,,8,Ontime,g,1,2.04,6,1,25,1,1,,,,,
,1.05,,,,,,,,,g.PNG,g,611688156f6d22853511ffb3,2021-10-19_12h43.08.565,forced_choiceRT,2021.1.2,Win32,143.6781609,,,,,,,,8,Ontime,g,1,2.052,6,2,26,1,1,,,,,
,1.34,,,,,,,,,h.PNG,h,611688156f6d22853511ffb3,2021-10-19_12h43.08.565,forced_choiceRT,2021.1.2,Win32,143.6781609,,,,,,,,8,Slow,h,1,2.189,6,3,27,2,1,,,,,
,0.82,,,,,,,,,h.PNG,h,611688156f6d22853511ffb3,2021-10-19_12h43.08.565,forced_choiceRT,2021.1.2,Win32,143.6781609,,,,,,,,8,Fast,h,1,1.864,7,0,28,2,1,,,,,
,1.42,,,,,,,,,h.PNG,h,611688156f6d22853511ffb3,2021-10-19_12h43.08.565,forced_choiceRT,2021.1.2,Win32,143.6781609,,,,,,,,8,Ontime,h,1,1.96,7,1,29,2,1,,,,,
,1.26,,,,,,,,,j.PNG,j,611688156f6d22853511ffb3,2021-10-19_12h43.08.565,forced_choiceRT,2021.1.2,Win32,143.6781609,,,,,,,,8,Slow,j,1,2.143,7,2,30,3,1,,,,,
,0.27,,,,,,,,,g.PNG,g,611688156f6d22853511ffb3,2021-10-19_12h43.08.565,forced_choiceRT,2021.1.2,Win32,143.6781609,,,,,,,,8,Ontime,g,1,1.949,7,3,31,1,1,,,,,
,1.3,,,,,,,,,g.PNG,g,611688156f6d22853511ffb3,2021-10-19_12h43.08.565,forced_choiceRT,2021.1.2,Win32,143.6781609,,,,,,,,8,Ontime,g,1,2.078,8,0,32,1,1,,,,,
,1.7,,,,,,,,,f.PNG,f,611688156f6d22853511ffb3,2021-10-19_12h43.08.565,forced_choiceRT,2021.1.2,Win32,143.6781609,,,,,,,,8,Ontime,j,0,1.959,8,1,33,0,1,,,,,
,0,,,,,,,,,j.PNG,j,611688156f6d22853511ffb3,2021-10-19_12h43.08.565,forced_choiceRT,2021.1.2,Win32,143.6781609,,,,,,,,8,Ontime,j,1,1.974,8,2,34,3,1,,,,,
,0.6,,,,,,,,,g.PNG,g,611688156f6d22853511ffb3,2021-10-19_12h43.08.565,forced_choiceRT,2021.1.2,Win32,143.6781609,,,,,,,,8,Ontime,g,1,1.966,8,3,35,1,1,,,,,
,0.11,,,,,,,,,g.PNG,g,611688156f6d22853511ffb3,2021-10-19_12h43.08.565,forced_choiceRT,2021.1.2,Win32,143.6781609,,,,,,,,8,Fast,g,1,1.773,9,0,36,1,1,,,,,
,1.84,,,,,,,,,f.PNG,f,611688156f6d22853511ffb3,2021-10-19_12h43.08.565,forced_choiceRT,2021.1.2,Win32,143.6781609,,,,,,,,8,Ontime,f,1,2.061,9,1,37,0,1,,,,,
,0.62,,,,,,,,,j.PNG,j,611688156f6d22853511ffb3,2021-10-19_12h43.08.565,forced_choiceRT,2021.1.2,Win32,143.6781609,,,,,,,,8,Ontime,j,1,2.077,9,2,38,3,1,,,,,
,0.62,,,,,,,,,g.PNG,g,611688156f6d22853511ffb3,2021-10-19_12h43.08.565,forced_choiceRT,2021.1.2,Win32,143.6781609,,,,,,,,8,Fast,g,1,1.882,9,3,39,1,1,,,,,
,,,,,,,,,,,,611688156f6d22853511ffb3,2021-10-19_12h43.08.565,forced_choiceRT,2021.1.2,Win32,143.6781609,,,,,,,,,,,,,,,,,,7,0,7,0,1
,1.96,,,,,,,,,j.PNG,j,611688156f6d22853511ffb3,2021-10-19_12h43.08.565,forced_choiceRT,2021.1.2,Win32,143.6781609,,,,,,,,9,Slow,f,0,2.186,0,0,0,3,1,,,,,
,1.37,,,,,,,,,g.PNG,g,611688156f6d22853511ffb3,2021-10-19_12h43.08.565,forced_choiceRT,2021.1.2,Win32,143.6781609,,,,,,,,9,Ontime,g,1,1.94,0,1,1,1,1,,,,,
,0.39,,,,,,,,,g.PNG,g,611688156f6d22853511ffb3,2021-10-19_12h43.08.565,forced_choiceRT,2021.1.2,Win32,143.6781609,,,,,,,,9,Fast,g,1,1.748,0,2,2,1,1,,,,,
,0.41,,,,,,,,,g.PNG,g,611688156f6d22853511ffb3,2021-10-19_12h43.08.565,forced_choiceRT,2021.1.2,Win32,143.6781609,,,,,,,,9,Ontime,g,1,1.948,0,3,3,1,1,,,,,
,1.1,,,,,,,,,j.PNG,j,611688156f6d22853511ffb3,2021-10-19_12h43.08.565,forced_choiceRT,2021.1.2,Win32,143.6781609,,,,,,,,9,Ontime,j,1,2,1,0,4,3,1,,,,,
,0.19,,,,,,,,,j.PNG,j,611688156f6d22853511ffb3,2021-10-19_12h43.08.565,forced_choiceRT,2021.1.2,Win32,143.6781609,,,,,,,,9,Ontime,j,1,1.998,1,1,5,3,1,,,,,
,0.96,,,,,,,,,h.PNG,h,611688156f6d22853511ffb3,2021-10-19_12h43.08.565,forced_choiceRT,2021.1.2,Win32,143.6781609,,,,,,,,9,Ontime,h,1,1.963,1,2,6,2,1,,,,,
,1.8,,,,,,,,,j.PNG,j,611688156f6d22853511ffb3,2021-10-19_12h43.08.565,forced_choiceRT,2021.1.2,Win32,143.6781609,,,,,,,,9,Ontime,h,0,1.987,1,3,7,3,1,,,,,
,1.52,,,,,,,,,f.PNG,f,611688156f6d22853511ffb3,2021-10-19_12h43.08.565,forced_choiceRT,2021.1.2,Win32,143.6781609,,,,,,,,9,Ontime,f,1,2.063,2,0,8,0,1,,,,,
,0.41,,,,,,,,,h.PNG,h,611688156f6d22853511ffb3,2021-10-19_12h43.08.565,forced_choiceRT,2021.1.2,Win32,143.6781609,,,,,,,,9,Ontime,h,1,1.981,2,1,9,2,1,,,,,
,0.48,,,,,,,,,f.PNG,f,611688156f6d22853511ffb3,2021-10-19_12h43.08.565,forced_choiceRT,2021.1.2,Win32,143.6781609,,,,,,,,9,Ontime,f,1,2.084,2,2,10,0,1,,,,,
,0.25,,,,,,,,,h.PNG,h,611688156f6d22853511ffb3,2021-10-19_12h43.08.565,forced_choiceRT,2021.1.2,Win32,143.6781609,,,,,,,,9,Ontime,h,1,2.081,2,3,11,2,1,,,,,
,1.28,,,,,,,,,f.PNG,f,611688156f6d22853511ffb3,2021-10-19_12h43.08.565,forced_choiceRT,2021.1.2,Win32,143.6781609,,,,,,,,9,Ontime,f,1,1.967,3,0,12,0,1,,,,,
,1.69,,,,,,,,,g.PNG,g,611688156f6d22853511ffb3,2021-10-19_12h43.08.565,forced_choiceRT,2021.1.2,Win32,143.6781609,,,,,,,,9,Ontime,j,0,1.955,3,1,13,1,1,,,,,
,1.69,,,,,,,,,h.PNG,h,611688156f6d22853511ffb3,2021-10-19_12h43.08.565,forced_choiceRT,2021.1.2,Win32,143.6781609,,,,,,,,9,Slow,f,0,2.211,3,2,14,2,1,,,,,
,1.4,,,,,,,,,g.PNG,g,611688156f6d22853511ffb3,2021-10-19_12h43.08.565,forced_choiceRT,2021.1.2,Win32,143.6781609,,,,,,,,9,Ontime,g,1,2.09,3,3,15,1,1,,,,,
,1.5,,,,,,,,,f.PNG,f,611688156f6d22853511ffb3,2021-10-19_12h43.08.565,forced_choiceRT,2021.1.2,Win32,143.6781609,,,,,,,,9,Ontime,f,1,2.07,4,0,16,0,1,,,,,
,1.42,,,,,,,,,h.PNG,h,611688156f6d22853511ffb3,2021-10-19_12h43.08.565,forced_choiceRT,2021.1.2,Win32,143.6781609,,,,,,,,9,Ontime,h,1,2.091,4,1,17,2,1,,,,,
,1.48,,,,,,,,,g.PNG,g,611688156f6d22853511ffb3,2021-10-19_12h43.08.565,forced_choiceRT,2021.1.2,Win32,143.6781609,,,,,,,,9,Slow,g,1,2.129,4,2,18,1,1,,,,,
,1.36,,,,,,,,,g.PNG,g,611688156f6d22853511ffb3,2021-10-19_12h43.08.565,forced_choiceRT,2021.1.2,Win32,143.6781609,,,,,,,,9,Slow,g,1,2.224,4,3,19,1,1,,,,,
,0.48,,,,,,,,,g.PNG,g,611688156f6d22853511ffb3,2021-10-19_12h43.08.565,forced_choiceRT,2021.1.2,Win32,143.6781609,,,,,,,,9,Fast,g,1,1.801,5,0,20,1,1,,,,,
,1.53,,,,,,,,,h.PNG,h,611688156f6d22853511ffb3,2021-10-19_12h43.08.565,forced_choiceRT,2021.1.2,Win32,143.6781609,,,,,,,,9,Slow,j,0,2.189,5,1,21,2,1,,,,,
,0.9,,,,,,,,,f.PNG,f,611688156f6d22853511ffb3,2021-10-19_12h43.08.565,forced_choiceRT,2021.1.2,Win32,143.6781609,,,,,,,,9,Fast,f,1,1.765,5,2,22,0,1,,,,,
,0.4,,,,,,,,,h.PNG,h,611688156f6d22853511ffb3,2021-10-19_12h43.08.565,forced_choiceRT,2021.1.2,Win32,143.6781609,,,,,,,,9,Fast,h,1,1.557,5,3,23,2,1,,,,,
,0.46,,,,,,,,,j.PNG,j,611688156f6d22853511ffb3,2021-10-19_12h43.08.565,forced_choiceRT,2021.1.2,Win32,143.6781609,,,,,,,,9,Fast,j,1,1.759,6,0,24,3,1,,,,,
,0.72,,,,,,,,,j.PNG,j,611688156f6d22853511ffb3,2021-10-19_12h43.08.565,forced_choiceRT,2021.1.2,Win32,143.6781609,,,,,,,,9,Ontime,j,1,1.984,6,1,25,3,1,,,,,
,0.99,,,,,,,,,g.PNG,g,611688156f6d22853511ffb3,2021-10-19_12h43.08.565,forced_choiceRT,2021.1.2,Win32,143.6781609,,,,,,,,9,Ontime,g,1,1.976,6,2,26,1,1,,,,,
,0.72,,,,,,,,,j.PNG,j,611688156f6d22853511ffb3,2021-10-19_12h43.08.565,forced_choiceRT,2021.1.2,Win32,143.6781609,,,,,,,,9,Fast,j,1,1.792,6,3,27,3,1,,,,,
,1.33,,,,,,,,,j.PNG,j,611688156f6d22853511ffb3,2021-10-19_12h43.08.565,forced_choiceRT,2021.1.2,Win32,143.6781609,,,,,,,,9,Ontime,j,1,1.988,7,0,28,3,1,,,,,
,1.79,,,,,,,,,f.PNG,f,611688156f6d22853511ffb3,2021-10-19_12h43.08.565,forced_choiceRT,2021.1.2,Win32,143.6781609,,,,,,,,9,Ontime,j,0,2.009,7,1,29,0,1,,,,,
,1.09,,,,,,,,,g.PNG,g,611688156f6d22853511ffb3,2021-10-19_12h43.08.565,forced_choiceRT,2021.1.2,Win32,143.6781609,,,,,,,,9,Ontime,g,1,2.009,7,2,30,1,1,,,,,
,1.85,,,,,,,,,h.PNG,h,611688156f6d22853511ffb3,2021-10-19_12h43.08.565,forced_choiceRT,2021.1.2,Win32,143.6781609,,,,,,,,9,Ontime,f,0,2.073,7,3,31,2,1,,,,,
,0.71,,,,,,,,,f.PNG,f,611688156f6d22853511ffb3,2021-10-19_12h43.08.565,forced_choiceRT,2021.1.2,Win32,143.6781609,,,,,,,,9,Ontime,f,1,1.968,8,0,32,0,1,,,,,
,1.12,,,,,,,,,j.PNG,j,611688156f6d22853511ffb3,2021-10-19_12h43.08.565,forced_choiceRT,2021.1.2,Win32,143.6781609,,,,,,,,9,Ontime,j,1,2.025,8,1,33,3,1,,,,,
,0.55,,,,,,,,,h.PNG,h,611688156f6d22853511ffb3,2021-10-19_12h43.08.565,forced_choiceRT,2021.1.2,Win32,143.6781609,,,,,,,,9,Ontime,h,1,2.036,8,2,34,2,1,,,,,
,0.89,,,,,,,,,f.PNG,f,611688156f6d22853511ffb3,2021-10-19_12h43.08.565,forced_choiceRT,2021.1.2,Win32,143.6781609,,,,,,,,9,Ontime,f,1,1.935,8,3,35,0,1,,,,,
,1.74,,,,,,,,,h.PNG,h,611688156f6d22853511ffb3,2021-10-19_12h43.08.565,forced_choiceRT,2021.1.2,Win32,143.6781609,,,,,,,,9,Ontime,f,0,2.086,9,0,36,2,1,,,,,
,0.53,,,,,,,,,j.PNG,j,611688156f6d22853511ffb3,2021-10-19_12h43.08.565,forced_choiceRT,2021.1.2,Win32,143.6781609,,,,,,,,9,Ontime,j,1,2.018,9,1,37,3,1,,,,,
,1.27,,,,,,,,,f.PNG,f,611688156f6d22853511ffb3,2021-10-19_12h43.08.565,forced_choiceRT,2021.1.2,Win32,143.6781609,,,,,,,,9,Ontime,f,1,1.991,9,2,38,0,1,,,,,
,1.12,,,,,,,,,f.PNG,f,611688156f6d22853511ffb3,2021-10-19_12h43.08.565,forced_choiceRT,2021.1.2,Win32,143.6781609,,,,,,,,9,Ontime,f,1,2.011,9,3,39,0,1,,,,,
,,,,,,,,,,,,611688156f6d22853511ffb3,2021-10-19_12h43.08.565,forced_choiceRT,2021.1.2,Win32,143.6781609,,,,,,,,,,,,,,,,,,8,0,8,0,1
,0.82,,,,,,,,,j.PNG,j,611688156f6d22853511ffb3,2021-10-19_12h43.08.565,forced_choiceRT,2021.1.2,Win32,143.6781609,,,,,,,,10,Ontime,j,1,2.001,0,0,0,3,1,,,,,
,1.94,,,,,,,,,j.PNG,j,611688156f6d22853511ffb3,2021-10-19_12h43.08.565,forced_choiceRT,2021.1.2,Win32,143.6781609,,,,,,,,10,Ontime,f,0,2.079,0,1,1,3,1,,,,,
,0.34,,,,,,,,,f.PNG,f,611688156f6d22853511ffb3,2021-10-19_12h43.08.565,forced_choiceRT,2021.1.2,Win32,143.6781609,,,,,,,,10,Ontime,f,1,1.984,0,2,2,0,1,,,,,
,0.29,,,,,,,,,f.PNG,f,611688156f6d22853511ffb3,2021-10-19_12h43.08.565,forced_choiceRT,2021.1.2,Win32,143.6781609,,,,,,,,10,Ontime,f,1,1.957,0,3,3,0,1,,,,,
,1.07,,,,,,,,,h.PNG,h,611688156f6d22853511ffb3,2021-10-19_12h43.08.565,forced_choiceRT,2021.1.2,Win32,143.6781609,,,,,,,,10,Ontime,h,1,2.004,1,0,4,2,1,,,,,
,1.94,,,,,,,,,f.PNG,f,611688156f6d22853511ffb3,2021-10-19_12h43.08.565,forced_choiceRT,2021.1.2,Win32,143.6781609,,,,,,,,10,Slow,j,0,2.119,1,1,5,0,1,,,,,
,0.92,,,,,,,,,h.PNG,h,611688156f6d22853511ffb3,2021-10-19_12h43.08.565,forced_choiceRT,2021.1.2,Win32,143.6781609,,,,,,,,10,Ontime,h,1,1.964,1,2,6,2,1,,,,,
,0.03,,,,,,,,,h.PNG,h,611688156f6d22853511ffb3,2021-10-19_12h43.08.565,forced_choiceRT,2021.1.2,Win32,143.6781609,,,,,,,,10,Ontime,h,1,2.001,1,3,7,2,1,,,,,
,1.73,,,,,,,,,j.PNG,j,611688156f6d22853511ffb3,2021-10-19_12h43.08.565,forced_choiceRT,2021.1.2,Win32,143.6781609,,,,,,,,10,Ontime,j,1,2.022,2,0,8,3,1,,,,,
,0.85,,,,,,,,,g.PNG,g,611688156f6d22853511ffb3,2021-10-19_12h43.08.565,forced_choiceRT,2021.1.2,Win32,143.6781609,,,,,,,,10,Ontime,g,1,1.962,2,1,9,1,1,,,,,
,1.43,,,,,,,,,g.PNG,g,611688156f6d22853511ffb3,2021-10-19_12h43.08.565,forced_choiceRT,2021.1.2,Win32,143.6781609,,,,,,,,10,Ontime,h,0,2.05,2,2,10,1,1,,,,,
,1.02,,,,,,,,,g.PNG,g,611688156f6d22853511ffb3,2021-10-19_12h43.08.565,forced_choiceRT,2021.1.2,Win32,143.6781609,,,,,,,,10,Ontime,g,1,1.979,2,3,11,1,1,,,,,
,0.53,,,,,,,,,j.PNG,j,611688156f6d22853511ffb3,2021-10-19_12h43.08.565,forced_choiceRT,2021.1.2,Win32,143.6781609,,,,,,,,10,Fast,j,1,1.869,3,0,12,3,1,,,,,
,1.12,,,,,,,,,h.PNG,h,611688156f6d22853511ffb3,2021-10-19_12h43.08.565,forced_choiceRT,2021.1.2,Win32,143.6781609,,,,,,,,10,Fast,h,1,1.898,3,1,13,2,1,,,,,
,1.13,,,,,,,,,h.PNG,h,611688156f6d22853511ffb3,2021-10-19_12h43.08.565,forced_choiceRT,2021.1.2,Win32,143.6781609,,,,,,,,10,Ontime,h,1,1.924,3,2,14,2,1,,,,,
,1.67,,,,,,,,,g.PNG,g,611688156f6d22853511ffb3,2021-10-19_12h43.08.565,forced_choiceRT,2021.1.2,Win32,143.6781609,,,,,,,,10,Slow,g,1,2.293,3,3,15,1,1,,,,,
,1.5,,,,,,,,,g.PNG,g,611688156f6d22853511ffb3,2021-10-19_12h43.08.565,forced_choiceRT,2021.1.2,Win32,143.6781609,,,,,,,,10,Slow,g,1,2.283,4,0,16,1,1,,,,,
,0.7,,,,,,,,,j.PNG,j,611688156f6d22853511ffb3,2021-10-19_12h43.08.565,forced_choiceRT,2021.1.2,Win32,143.6781609,,,,,,,,10,Ontime,j,1,2.064,4,1,17,3,1,,,,,
,0.37,,,,,,,,,f.PNG,f,611688156f6d22853511ffb3,2021-10-19_12h43.08.565,forced_choiceRT,2021.1.2,Win32,143.6781609,,,,,,,,10,Ontime,f,1,2.049,4,2,18,0,1,,,,,
,0.28,,,,,,,,,g.PNG,g,611688156f6d22853511ffb3,2021-10-19_12h43.08.565,forced_choiceRT,2021.1.2,Win32,143.6781609,,,,,,,,10,Fast,g,1,1.867,4,3,19,1,1,,,,,
,0.38,,,,,,,,,f.PNG,f,611688156f6d22853511ffb3,2021-10-19_12h43.08.565,forced_choiceRT,2021.1.2,Win32,143.6781609,,,,,,,,10,Ontime,f,1,2.029,5,0,20,0,1,,,,,
,0.31,,,,,,,,,h.PNG,h,611688156f6d22853511ffb3,2021-10-19_12h43.08.565,forced_choiceRT,2021.1.2,Win32,143.6781609,,,,,,,,10,Ontime,h,1,2.07,5,1,21,2,1,,,,,
,0.35,,,,,,,,,j.PNG,j,611688156f6d22853511ffb3,2021-10-19_12h43.08.565,forced_choiceRT,2021.1.2,Win32,143.6781609,,,,,,,,10,Ontime,j,1,2.071,5,2,22,3,1,,,,,
,0.41,,,,,,,,,j.PNG,j,611688156f6d22853511ffb3,2021-10-19_12h43.08.565,forced_choiceRT,2021.1.2,Win32,143.6781609,,,,,,,,10,Ontime,j,1,1.982,5,3,23,3,1,,,,,
,1.64,,,,,,,,,h.PNG,h,611688156f6d22853511ffb3,2021-10-19_12h43.08.565,forced_choiceRT,2021.1.2,Win32,143.6781609,,,,,,,,10,Slow,h,1,2.266,6,0,24,2,1,,,,,
,1.15,,,,,,,,,h.PNG,h,611688156f6d22853511ffb3,2021-10-19_12h43.08.565,forced_choiceRT,2021.1.2,Win32,143.6781609,,,,,,,,10,Ontime,h,1,1.939,6,1,25,2,1,,,,,
,1.18,,,,,,,,,f.PNG,f,611688156f6d22853511ffb3,2021-10-19_12h43.08.565,forced_choiceRT,2021.1.2,Win32,143.6781609,,,,,,,,10,Ontime,f,1,2.029,6,2,26,0,1,,,,,
,0.37,,,,,,,,,f.PNG,f,611688156f6d22853511ffb3,2021-10-19_12h43.08.565,forced_choiceRT,2021.1.2,Win32,143.6781609,,,,,,,,10,Ontime,f,1,2.065,6,3,27,0,1,,,,,
,0.09,,,,,,,,,g.PNG,g,611688156f6d22853511ffb3,2021-10-19_12h43.08.565,forced_choiceRT,2021.1.2,Win32,143.6781609,,,,,,,,10,Ontime,g,1,1.947,7,0,28,1,1,,,,,
,0.29,,,,,,,,,g.PNG,g,611688156f6d22853511ffb3,2021-10-19_12h43.08.565,forced_choiceRT,2021.1.2,Win32,143.6781609,,,,,,,,10,Fast,g,1,1.738,7,1,29,1,1,,,,,
,0.19,,,,,,,,,h.PNG,h,611688156f6d22853511ffb3,2021-10-19_12h43.08.565,forced_choiceRT,2021.1.2,Win32,143.6781609,,,,,,,,10,Ontime,h,1,1.964,7,2,30,2,1,,,,,
,0.59,,,,,,,,,f.PNG,f,611688156f6d22853511ffb3,2021-10-19_12h43.08.565,forced_choiceRT,2021.1.2,Win32,143.6781609,,,,,,,,10,Slow,f,1,2.143,7,3,31,0,1,,,,,
,0.37,,,,,,,,,h.PNG,h,611688156f6d22853511ffb3,2021-10-19_12h43.08.565,forced_choiceRT,2021.1.2,Win32,143.6781609,,,,,,,,10,Fast,h,1,1.677,8,0,32,2,1,,,,,
,1.85,,,,,,,,,g.PNG,g,611688156f6d22853511ffb3,2021-10-19_12h43.08.565,forced_choiceRT,2021.1.2,Win32,143.6781609,,,,,,,,10,Slow,h,0,2.102,8,1,33,1,1,,,,,
,1.99,,,,,,,,,j.PNG,j,611688156f6d22853511ffb3,2021-10-19_12h43.08.565,forced_choiceRT,2021.1.2,Win32,143.6781609,,,,,,,,10,Ontime,f,0,2.057,8,2,34,3,1,,,,,
,1.71,,,,,,,,,g.PNG,g,611688156f6d22853511ffb3,2021-10-19_12h43.08.565,forced_choiceRT,2021.1.2,Win32,143.6781609,,,,,,,,10,Ontime,j,0,2.043,8,3,35,1,1,,,,,
,1.04,,,,,,,,,f.PNG,f,611688156f6d22853511ffb3,2021-10-19_12h43.08.565,forced_choiceRT,2021.1.2,Win32,143.6781609,,,,,,,,10,Fast,f,1,1.744,9,0,36,0,1,,,,,
,0.16,,,,,,,,,f.PNG,f,611688156f6d22853511ffb3,2021-10-19_12h43.08.565,forced_choiceRT,2021.1.2,Win32,143.6781609,,,,,,,,10,Ontime,f,1,1.987,9,1,37,0,1,,,,,
,0.8,,,,,,,,,j.PNG,j,611688156f6d22853511ffb3,2021-10-19_12h43.08.565,forced_choiceRT,2021.1.2,Win32,143.6781609,,,,,,,,10,Ontime,j,1,1.968,9,2,38,3,1,,,,,
,1.39,,,,,,,,,j.PNG,j,611688156f6d22853511ffb3,2021-10-19_12h43.08.565,forced_choiceRT,2021.1.2,Win32,143.6781609,,,,,,,,10,Slow,j,1,2.11,9,3,39,3,1,,,,,
,,,,,,,,,,,,611688156f6d22853511ffb3,2021-10-19_12h43.08.565,forced_choiceRT,2021.1.2,Win32,143.6781609,,,,,,,,,,,,,,,,,,9,0,9,0,1
