IP_Addresss,target_onset,trial_resp_sp.keys,trial_resp_sp.corr,trial_resp_sp.rt,trials_train_loop.thisRepN,trials_train_loop.thisTrialN,trials_train_loop.thisN,trials_train_loop.thisIndex,trials_train_loop.ran,pic,correct_key,participant,date,expName,psychopyVersion,OS,frameRate,trial_resp_timing.keys,trial_resp_timing.rt,trials_train_timing.thisRepN,trials_train_timing.thisTrialN,trials_train_timing.thisN,trials_train_timing.thisIndex,trials_train_timing.ran,block_id,ontime,forcedRT_resp.keys,forcedRT_resp.corr,forcedRT_resp.rt,trials.thisRepN,trials.thisTrialN,trials.thisN,trials.thisIndex,trials.ran,blocks.thisRepN,blocks.thisTrialN,blocks.thisN,blocks.thisIndex,blocks.ran
137.25.49.59,0,j,1,2.8753,0,0,0,3,1,j.PNG,j,6123437590813a40d1fad393,2021-10-19_12h46.05.226,forced_choiceRT,2021.1.2,Linux x86_64,59.98440405,,,,,,,,,,,,,,,,,,,,,,
,0,j,1,1.1969,0,1,1,3,1,j.PNG,j,6123437590813a40d1fad393,2021-10-19_12h46.05.226,forced_choiceRT,2021.1.2,Linux x86_64,59.98440405,,,,,,,,,,,,,,,,,,,,,,
,0,f,1,1.849,0,2,2,0,1,f.PNG,f,6123437590813a40d1fad393,2021-10-19_12h46.05.226,forced_choiceRT,2021.1.2,Linux x86_64,59.98440405,,,,,,,,,,,,,,,,,,,,,,
,0,f,1,2.3187,0,3,3,0,1,f.PNG,f,6123437590813a40d1fad393,2021-10-19_12h46.05.226,forced_choiceRT,2021.1.2,Linux x86_64,59.98440405,,,,,,,,,,,,,,,,,,,,,,
,0,g,0,1.4871,1,0,4,3,1,j.PNG,j,6123437590813a40d1fad393,2021-10-19_12h46.05.226,forced_choiceRT,2021.1.2,Linux x86_64,59.98440405,,,,,,,,,,,,,,,,,,,,,,
,0,h,1,2.2687,1,1,5,2,1,h.PNG,h,6123437590813a40d1fad393,2021-10-19_12h46.05.226,forced_choiceRT,2021.1.2,Linux x86_64,59.98440405,,,,,,,,,,,,,,,,,,,,,,
,0,h,1,1.6494,1,2,6,2,1,h.PNG,h,6123437590813a40d1fad393,2021-10-19_12h46.05.226,forced_choiceRT,2021.1.2,Linux x86_64,59.98440405,,,,,,,,,,,,,,,,,,,,,,
,0,f,1,1.2499,1,3,7,0,1,f.PNG,f,6123437590813a40d1fad393,2021-10-19_12h46.05.226,forced_choiceRT,2021.1.2,Linux x86_64,59.98440405,,,,,,,,,,,,,,,,,,,,,,
,0,h,1,1.2324,2,0,8,2,1,h.PNG,h,6123437590813a40d1fad393,2021-10-19_12h46.05.226,forced_choiceRT,2021.1.2,Linux x86_64,59.98440405,,,,,,,,,,,,,,,,,,,,,,
,0,j,1,1.6672,2,1,9,3,1,j.PNG,j,6123437590813a40d1fad393,2021-10-19_12h46.05.226,forced_choiceRT,2021.1.2,Linux x86_64,59.98440405,,,,,,,,,,,,,,,,,,,,,,
,0,g,1,1.6429,2,2,10,1,1,g.PNG,g,6123437590813a40d1fad393,2021-10-19_12h46.05.226,forced_choiceRT,2021.1.2,Linux x86_64,59.98440405,,,,,,,,,,,,,,,,,,,,,,
,0,h,1,1.3318,2,3,11,2,1,h.PNG,h,6123437590813a40d1fad393,2021-10-19_12h46.05.226,forced_choiceRT,2021.1.2,Linux x86_64,59.98440405,,,,,,,,,,,,,,,,,,,,,,
,0,j,1,0.7489,3,0,12,3,1,j.PNG,j,6123437590813a40d1fad393,2021-10-19_12h46.05.226,forced_choiceRT,2021.1.2,Linux x86_64,59.98440405,,,,,,,,,,,,,,,,,,,,,,
,0,h,1,0.7222,3,1,13,2,1,h.PNG,h,6123437590813a40d1fad393,2021-10-19_12h46.05.226,forced_choiceRT,2021.1.2,Linux x86_64,59.98440405,,,,,,,,,,,,,,,,,,,,,,
,0,g,1,1.3654,3,2,14,1,1,g.PNG,g,6123437590813a40d1fad393,2021-10-19_12h46.05.226,forced_choiceRT,2021.1.2,Linux x86_64,59.98440405,,,,,,,,,,,,,,,,,,,,,,
,0,h,1,1.4002,3,3,15,2,1,h.PNG,h,6123437590813a40d1fad393,2021-10-19_12h46.05.226,forced_choiceRT,2021.1.2,Linux x86_64,59.98440405,,,,,,,,,,,,,,,,,,,,,,
,0,h,1,0.5494,4,0,16,2,1,h.PNG,h,6123437590813a40d1fad393,2021-10-19_12h46.05.226,forced_choiceRT,2021.1.2,Linux x86_64,59.98440405,,,,,,,,,,,,,,,,,,,,,,
,0,f,1,1.3058,4,1,17,0,1,f.PNG,f,6123437590813a40d1fad393,2021-10-19_12h46.05.226,forced_choiceRT,2021.1.2,Linux x86_64,59.98440405,,,,,,,,,,,,,,,,,,,,,,
,0,j,1,0.7666,4,2,18,3,1,j.PNG,j,6123437590813a40d1fad393,2021-10-19_12h46.05.226,forced_choiceRT,2021.1.2,Linux x86_64,59.98440405,,,,,,,,,,,,,,,,,,,,,,
,0,g,1,1.6996,4,3,19,1,1,g.PNG,g,6123437590813a40d1fad393,2021-10-19_12h46.05.226,forced_choiceRT,2021.1.2,Linux x86_64,59.98440405,,,,,,,,,,,,,,,,,,,,,,
,0,f,1,0.7328,5,0,20,0,1,f.PNG,f,6123437590813a40d1fad393,2021-10-19_12h46.05.226,forced_choiceRT,2021.1.2,Linux x86_64,59.98440405,,,,,,,,,,,,,,,,,,,,,,
,0,f,1,0.9392,5,1,21,0,1,f.PNG,f,6123437590813a40d1fad393,2021-10-19_12h46.05.226,forced_choiceRT,2021.1.2,Linux x86_64,59.98440405,,,,,,,,,,,,,,,,,,,,,,
,0,j,1,0.6998,5,2,22,3,1,j.PNG,j,6123437590813a40d1fad393,2021-10-19_12h46.05.226,forced_choiceRT,2021.1.2,Linux x86_64,59.98440405,,,,,,,,,,,,,,,,,,,,,,
,0,g,1,0.7032,5,3,23,1,1,g.PNG,g,6123437590813a40d1fad393,2021-10-19_12h46.05.226,forced_choiceRT,2021.1.2,Linux x86_64,59.98440405,,,,,,,,,,,,,,,,,,,,,,
,0,j,1,0.7665,6,0,24,3,1,j.PNG,j,6123437590813a40d1fad393,2021-10-19_12h46.05.226,forced_choiceRT,2021.1.2,Linux x86_64,59.98440405,,,,,,,,,,,,,,,,,,,,,,
,0,g,1,0.6207,6,1,25,1,1,g.PNG,g,6123437590813a40d1fad393,2021-10-19_12h46.05.226,forced_choiceRT,2021.1.2,Linux x86_64,59.98440405,,,,,,,,,,,,,,,,,,,,,,
,0,f,1,0.8447,6,2,26,0,1,f.PNG,f,6123437590813a40d1fad393,2021-10-19_12h46.05.226,forced_choiceRT,2021.1.2,Linux x86_64,59.98440405,,,,,,,,,,,,,,,,,,,,,,
,0,f,1,0.7651,6,3,27,0,1,f.PNG,f,6123437590813a40d1fad393,2021-10-19_12h46.05.226,forced_choiceRT,2021.1.2,Linux x86_64,59.98440405,,,,,,,,,,,,,,,,,,,,,,
,0,f,1,0.6991,7,0,28,0,1,f.PNG,f,6123437590813a40d1fad393,2021-10-19_12h46.05.226,forced_choiceRT,2021.1.2,Linux x86_64,59.98440405,,,,,,,,,,,,,,,,,,,,,,
,0,j,1,0.6371,7,1,29,3,1,j.PNG,j,6123437590813a40d1fad393,2021-10-19_12h46.05.226,forced_choiceRT,2021.1.2,Linux x86_64,59.98440405,,,,,,,,,,,,,,,,,,,,,,
,0,h,1,1.1675,7,2,30,2,1,h.PNG,h,6123437590813a40d1fad393,2021-10-19_12h46.05.226,forced_choiceRT,2021.1.2,Linux x86_64,59.98440405,,,,,,,,,,,,,,,,,,,,,,
,0,g,1,0.7114,7,3,31,1,1,g.PNG,g,6123437590813a40d1fad393,2021-10-19_12h46.05.226,forced_choiceRT,2021.1.2,Linux x86_64,59.98440405,,,,,,,,,,,,,,,,,,,,,,
,0,j,1,0.6172,8,0,32,3,1,j.PNG,j,6123437590813a40d1fad393,2021-10-19_12h46.05.226,forced_choiceRT,2021.1.2,Linux x86_64,59.98440405,,,,,,,,,,,,,,,,,,,,,,
,0,g,1,0.721,8,1,33,1,1,g.PNG,g,6123437590813a40d1fad393,2021-10-19_12h46.05.226,forced_choiceRT,2021.1.2,Linux x86_64,59.98440405,,,,,,,,,,,,,,,,,,,,,,
,0,f,1,0.8197,8,2,34,0,1,f.PNG,f,6123437590813a40d1fad393,2021-10-19_12h46.05.226,forced_choiceRT,2021.1.2,Linux x86_64,59.98440405,,,,,,,,,,,,,,,,,,,,,,
,0,g,1,0.7879,8,3,35,1,1,g.PNG,g,6123437590813a40d1fad393,2021-10-19_12h46.05.226,forced_choiceRT,2021.1.2,Linux x86_64,59.98440405,,,,,,,,,,,,,,,,,,,,,,
,0,f,1,0.6556,9,0,36,0,1,f.PNG,f,6123437590813a40d1fad393,2021-10-19_12h46.05.226,forced_choiceRT,2021.1.2,Linux x86_64,59.98440405,,,,,,,,,,,,,,,,,,,,,,
,0,g,1,0.7002,9,1,37,1,1,g.PNG,g,6123437590813a40d1fad393,2021-10-19_12h46.05.226,forced_choiceRT,2021.1.2,Linux x86_64,59.98440405,,,,,,,,,,,,,,,,,,,,,,
,0,h,1,1.0792,9,2,38,2,1,h.PNG,h,6123437590813a40d1fad393,2021-10-19_12h46.05.226,forced_choiceRT,2021.1.2,Linux x86_64,59.98440405,,,,,,,,,,,,,,,,,,,,,,
,0,g,1,0.7499,9,3,39,1,1,g.PNG,g,6123437590813a40d1fad393,2021-10-19_12h46.05.226,forced_choiceRT,2021.1.2,Linux x86_64,59.98440405,,,,,,,,,,,,,,,,,,,,,,
,0,j,1,0.5321,10,0,40,3,1,j.PNG,j,6123437590813a40d1fad393,2021-10-19_12h46.05.226,forced_choiceRT,2021.1.2,Linux x86_64,59.98440405,,,,,,,,,,,,,,,,,,,,,,
,0,f,1,0.8161,10,1,41,0,1,f.PNG,f,6123437590813a40d1fad393,2021-10-19_12h46.05.226,forced_choiceRT,2021.1.2,Linux x86_64,59.98440405,,,,,,,,,,,,,,,,,,,,,,
,0,j,1,0.622,10,2,42,3,1,j.PNG,j,6123437590813a40d1fad393,2021-10-19_12h46.05.226,forced_choiceRT,2021.1.2,Linux x86_64,59.98440405,,,,,,,,,,,,,,,,,,,,,,
,0,j,1,1.5994,10,3,43,3,1,j.PNG,j,6123437590813a40d1fad393,2021-10-19_12h46.05.226,forced_choiceRT,2021.1.2,Linux x86_64,59.98440405,,,,,,,,,,,,,,,,,,,,,,
,0,h,1,0.8809,11,0,44,2,1,h.PNG,h,6123437590813a40d1fad393,2021-10-19_12h46.05.226,forced_choiceRT,2021.1.2,Linux x86_64,59.98440405,,,,,,,,,,,,,,,,,,,,,,
,0,g,1,0.6465,11,1,45,1,1,g.PNG,g,6123437590813a40d1fad393,2021-10-19_12h46.05.226,forced_choiceRT,2021.1.2,Linux x86_64,59.98440405,,,,,,,,,,,,,,,,,,,,,,
,0,j,1,0.6655,11,2,46,3,1,j.PNG,j,6123437590813a40d1fad393,2021-10-19_12h46.05.226,forced_choiceRT,2021.1.2,Linux x86_64,59.98440405,,,,,,,,,,,,,,,,,,,,,,
,0,h,1,0.6769,11,3,47,2,1,h.PNG,h,6123437590813a40d1fad393,2021-10-19_12h46.05.226,forced_choiceRT,2021.1.2,Linux x86_64,59.98440405,,,,,,,,,,,,,,,,,,,,,,
,0,g,1,0.5998,12,0,48,1,1,g.PNG,g,6123437590813a40d1fad393,2021-10-19_12h46.05.226,forced_choiceRT,2021.1.2,Linux x86_64,59.98440405,,,,,,,,,,,,,,,,,,,,,,
,0,f,1,0.9538,12,1,49,0,1,f.PNG,f,6123437590813a40d1fad393,2021-10-19_12h46.05.226,forced_choiceRT,2021.1.2,Linux x86_64,59.98440405,,,,,,,,,,,,,,,,,,,,,,
,0,h,1,0.8828,12,2,50,2,1,h.PNG,h,6123437590813a40d1fad393,2021-10-19_12h46.05.226,forced_choiceRT,2021.1.2,Linux x86_64,59.98440405,,,,,,,,,,,,,,,,,,,,,,
,0,h,1,1.3997,12,3,51,2,1,h.PNG,h,6123437590813a40d1fad393,2021-10-19_12h46.05.226,forced_choiceRT,2021.1.2,Linux x86_64,59.98440405,,,,,,,,,,,,,,,,,,,,,,
,0,g,1,0.9548,13,0,52,1,1,g.PNG,g,6123437590813a40d1fad393,2021-10-19_12h46.05.226,forced_choiceRT,2021.1.2,Linux x86_64,59.98440405,,,,,,,,,,,,,,,,,,,,,,
,0,g,1,0.7322,13,1,53,1,1,g.PNG,g,6123437590813a40d1fad393,2021-10-19_12h46.05.226,forced_choiceRT,2021.1.2,Linux x86_64,59.98440405,,,,,,,,,,,,,,,,,,,,,,
,0,f,1,0.6961,13,2,54,0,1,f.PNG,f,6123437590813a40d1fad393,2021-10-19_12h46.05.226,forced_choiceRT,2021.1.2,Linux x86_64,59.98440405,,,,,,,,,,,,,,,,,,,,,,
,0,j,1,0.5657,13,3,55,3,1,j.PNG,j,6123437590813a40d1fad393,2021-10-19_12h46.05.226,forced_choiceRT,2021.1.2,Linux x86_64,59.98440405,,,,,,,,,,,,,,,,,,,,,,
,0,h,1,0.7501,14,0,56,2,1,h.PNG,h,6123437590813a40d1fad393,2021-10-19_12h46.05.226,forced_choiceRT,2021.1.2,Linux x86_64,59.98440405,,,,,,,,,,,,,,,,,,,,,,
,0,h,1,0.7049,14,1,57,2,1,h.PNG,h,6123437590813a40d1fad393,2021-10-19_12h46.05.226,forced_choiceRT,2021.1.2,Linux x86_64,59.98440405,,,,,,,,,,,,,,,,,,,,,,
,0,g,1,0.7147,14,2,58,1,1,g.PNG,g,6123437590813a40d1fad393,2021-10-19_12h46.05.226,forced_choiceRT,2021.1.2,Linux x86_64,59.98440405,,,,,,,,,,,,,,,,,,,,,,
,0,f,1,0.7514,14,3,59,0,1,f.PNG,f,6123437590813a40d1fad393,2021-10-19_12h46.05.226,forced_choiceRT,2021.1.2,Linux x86_64,59.98440405,,,,,,,,,,,,,,,,,,,,,,
,,,,,,,,,,,,6123437590813a40d1fad393,2021-10-19_12h46.05.226,forced_choiceRT,2021.1.2,Linux x86_64,59.98440405,g,9.7434,0,0,0,0,1,,,,,,,,,,,,,,,
,,,,,,,,,,,,6123437590813a40d1fad393,2021-10-19_12h46.05.226,forced_choiceRT,2021.1.2,Linux x86_64,59.98440405,h,1.767,1,0,1,0,1,,,,,,,,,,,,,,,
,,,,,,,,,,,,6123437590813a40d1fad393,2021-10-19_12h46.05.226,forced_choiceRT,2021.1.2,Linux x86_64,59.98440405,h,1.7518,2,0,2,0,1,,,,,,,,,,,,,,,
,,,,,,,,,,,,6123437590813a40d1fad393,2021-10-19_12h46.05.226,forced_choiceRT,2021.1.2,Linux x86_64,59.98440405,h,2.2502,3,0,3,0,1,,,,,,,,,,,,,,,
,,,,,,,,,,,,6123437590813a40d1fad393,2021-10-19_12h46.05.226,forced_choiceRT,2021.1.2,Linux x86_64,59.98440405,h,1.8222,4,0,4,0,1,,,,,,,,,,,,,,,
,,,,,,,,,,,,6123437590813a40d1fad393,2021-10-19_12h46.05.226,forced_choiceRT,2021.1.2,Linux x86_64,59.98440405,h,2.0853,5,0,5,0,1,,,,,,,,,,,,,,,
,,,,,,,,,,,,6123437590813a40d1fad393,2021-10-19_12h46.05.226,forced_choiceRT,2021.1.2,Linux x86_64,59.98440405,h,2.1077,6,0,6,0,1,,,,,,,,,,,,,,,
,,,,,,,,,,,,6123437590813a40d1fad393,2021-10-19_12h46.05.226,forced_choiceRT,2021.1.2,Linux x86_64,59.98440405,h,2.0362,7,0,7,0,1,,,,,,,,,,,,,,,
,,,,,,,,,,,,6123437590813a40d1fad393,2021-10-19_12h46.05.226,forced_choiceRT,2021.1.2,Linux x86_64,59.98440405,j,1.7682,8,0,8,0,1,,,,,,,,,,,,,,,
,,,,,,,,,,,,6123437590813a40d1fad393,2021-10-19_12h46.05.226,forced_choiceRT,2021.1.2,Linux x86_64,59.98440405,j,2.1682,9,0,9,0,1,,,,,,,,,,,,,,,
,,,,,,,,,,,,6123437590813a40d1fad393,2021-10-19_12h46.05.226,forced_choiceRT,2021.1.2,Linux x86_64,59.98440405,j,1.7888,10,0,10,0,1,,,,,,,,,,,,,,,
,,,,,,,,,,,,6123437590813a40d1fad393,2021-10-19_12h46.05.226,forced_choiceRT,2021.1.2,Linux x86_64,59.98440405,j,2.1503,11,0,11,0,1,,,,,,,,,,,,,,,
,,,,,,,,,,,,6123437590813a40d1fad393,2021-10-19_12h46.05.226,forced_choiceRT,2021.1.2,Linux x86_64,59.98440405,j,1.8048,12,0,12,0,1,,,,,,,,,,,,,,,
,,,,,,,,,,,,6123437590813a40d1fad393,2021-10-19_12h46.05.226,forced_choiceRT,2021.1.2,Linux x86_64,59.98440405,j,1.9832,13,0,13,0,1,,,,,,,,,,,,,,,
,,,,,,,,,,,,6123437590813a40d1fad393,2021-10-19_12h46.05.226,forced_choiceRT,2021.1.2,Linux x86_64,59.98440405,j,2.1044,14,0,14,0,1,,,,,,,,,,,,,,,
,,,,,,,,,,,,6123437590813a40d1fad393,2021-10-19_12h46.05.226,forced_choiceRT,2021.1.2,Linux x86_64,59.98440405,j,1.9847,15,0,15,0,1,,,,,,,,,,,,,,,
,,,,,,,,,,,,6123437590813a40d1fad393,2021-10-19_12h46.05.226,forced_choiceRT,2021.1.2,Linux x86_64,59.98440405,j,1.7548,16,0,16,0,1,,,,,,,,,,,,,,,
,,,,,,,,,,,,6123437590813a40d1fad393,2021-10-19_12h46.05.226,forced_choiceRT,2021.1.2,Linux x86_64,59.98440405,j,2.014,17,0,17,0,1,,,,,,,,,,,,,,,
,,,,,,,,,,,,6123437590813a40d1fad393,2021-10-19_12h46.05.226,forced_choiceRT,2021.1.2,Linux x86_64,59.98440405,j,1.798,18,0,18,0,1,,,,,,,,,,,,,,,
,,,,,,,,,,,,6123437590813a40d1fad393,2021-10-19_12h46.05.226,forced_choiceRT,2021.1.2,Linux x86_64,59.98440405,j,1.9971,19,0,19,0,1,,,,,,,,,,,,,,,
,0.73,,,,,,,,,j.PNG,j,6123437590813a40d1fad393,2021-10-19_12h46.05.226,forced_choiceRT,2021.1.2,Linux x86_64,59.98440405,,,,,,,,1,Fast,f,0,1.0759,0,0,0,3,1,,,,,
,1.13,,,,,,,,,j.PNG,j,6123437590813a40d1fad393,2021-10-19_12h46.05.226,forced_choiceRT,2021.1.2,Linux x86_64,59.98440405,,,,,,,,1,Fast,j,1,1.8987,0,1,1,3,1,,,,,
,0.45,,,,,,,,,f.PNG,f,6123437590813a40d1fad393,2021-10-19_12h46.05.226,forced_choiceRT,2021.1.2,Linux x86_64,59.98440405,,,,,,,,1,Fast,f,1,1.7835,0,2,2,0,1,,,,,
,0.78,,,,,,,,,f.PNG,f,6123437590813a40d1fad393,2021-10-19_12h46.05.226,forced_choiceRT,2021.1.2,Linux x86_64,59.98440405,,,,,,,,1,Ontime,f,1,2.0189,0,3,3,0,1,,,,,
,1.56,,,,,,,,,g.PNG,g,6123437590813a40d1fad393,2021-10-19_12h46.05.226,forced_choiceRT,2021.1.2,Linux x86_64,59.98440405,,,,,,,,1,Slow,g,1,2.4349,1,0,4,1,1,,,,,
,1.05,,,,,,,,,f.PNG,f,6123437590813a40d1fad393,2021-10-19_12h46.05.226,forced_choiceRT,2021.1.2,Linux x86_64,59.98440405,,,,,,,,1,Ontime,f,1,1.9186,1,1,5,0,1,,,,,
,0.86,,,,,,,,,h.PNG,h,6123437590813a40d1fad393,2021-10-19_12h46.05.226,forced_choiceRT,2021.1.2,Linux x86_64,59.98440405,,,,,,,,1,Slow,h,1,2.1493,1,2,6,2,1,,,,,
,0.75,,,,,,,,,g.PNG,g,6123437590813a40d1fad393,2021-10-19_12h46.05.226,forced_choiceRT,2021.1.2,Linux x86_64,59.98440405,,,,,,,,1,Fast,g,1,1.7672,1,3,7,1,1,,,,,
,1.05,,,,,,,,,j.PNG,j,6123437590813a40d1fad393,2021-10-19_12h46.05.226,forced_choiceRT,2021.1.2,Linux x86_64,59.98440405,,,,,,,,1,Ontime,j,1,1.9179,2,0,8,3,1,,,,,
,0.5,,,,,,,,,j.PNG,j,6123437590813a40d1fad393,2021-10-19_12h46.05.226,forced_choiceRT,2021.1.2,Linux x86_64,59.98440405,,,,,,,,1,Fast,j,1,1.8174,2,1,9,3,1,,,,,
,0.04,,,,,,,,,g.PNG,g,6123437590813a40d1fad393,2021-10-19_12h46.05.226,forced_choiceRT,2021.1.2,Linux x86_64,59.98440405,,,,,,,,1,Fast,g,1,1.6851,2,2,10,1,1,,,,,
,0.83,,,,,,,,,g.PNG,g,6123437590813a40d1fad393,2021-10-19_12h46.05.226,forced_choiceRT,2021.1.2,Linux x86_64,59.98440405,,,,,,,,1,Ontime,g,1,2.0833,2,3,11,1,1,,,,,
,0.84,,,,,,,,,h.PNG,h,6123437590813a40d1fad393,2021-10-19_12h46.05.226,forced_choiceRT,2021.1.2,Linux x86_64,59.98440405,,,,,,,,1,Slow,h,1,2.1216,3,0,12,2,1,,,,,
,1.01,,,,,,,,,h.PNG,h,6123437590813a40d1fad393,2021-10-19_12h46.05.226,forced_choiceRT,2021.1.2,Linux x86_64,59.98440405,,,,,,,,1,Slow,h,1,2.1017,3,1,13,2,1,,,,,
,0.14,,,,,,,,,j.PNG,j,6123437590813a40d1fad393,2021-10-19_12h46.05.226,forced_choiceRT,2021.1.2,Linux x86_64,59.98440405,,,,,,,,1,Slow,j,1,2.1826,3,2,14,3,1,,,,,
,0.76,,,,,,,,,h.PNG,h,6123437590813a40d1fad393,2021-10-19_12h46.05.226,forced_choiceRT,2021.1.2,Linux x86_64,59.98440405,,,,,,,,1,Fast,h,1,1.8685,3,3,15,2,1,,,,,
,0.18,,,,,,,,,j.PNG,j,6123437590813a40d1fad393,2021-10-19_12h46.05.226,forced_choiceRT,2021.1.2,Linux x86_64,59.98440405,,,,,,,,1,Fast,j,1,1.8171,4,0,16,3,1,,,,,
,0.15,,,,,,,,,j.PNG,j,6123437590813a40d1fad393,2021-10-19_12h46.05.226,forced_choiceRT,2021.1.2,Linux x86_64,59.98440405,,,,,,,,1,Ontime,j,1,2.069,4,1,17,3,1,,,,,
,1.38,,,,,,,,,h.PNG,h,6123437590813a40d1fad393,2021-10-19_12h46.05.226,forced_choiceRT,2021.1.2,Linux x86_64,59.98440405,,,,,,,,1,Ontime,h,1,2.018,4,2,18,2,1,,,,,
,1.58,,,,,,,,,g.PNG,g,6123437590813a40d1fad393,2021-10-19_12h46.05.226,forced_choiceRT,2021.1.2,Linux x86_64,59.98440405,,,,,,,,1,Slow,g,1,2.3328,4,3,19,1,1,,,,,
,0.83,,,,,,,,,g.PNG,g,6123437590813a40d1fad393,2021-10-19_12h46.05.226,forced_choiceRT,2021.1.2,Linux x86_64,59.98440405,,,,,,,,1,Fast,g,1,1.7879,5,0,20,1,1,,,,,
,0.54,,,,,,,,,f.PNG,f,6123437590813a40d1fad393,2021-10-19_12h46.05.226,forced_choiceRT,2021.1.2,Linux x86_64,59.98440405,,,,,,,,1,Fast,f,1,1.3504,5,1,21,0,1,,,,,
,1.02,,,,,,,,,g.PNG,g,6123437590813a40d1fad393,2021-10-19_12h46.05.226,forced_choiceRT,2021.1.2,Linux x86_64,59.98440405,,,,,,,,1,Fast,g,1,1.8507,5,2,22,1,1,,,,,
,0.32,,,,,,,,,f.PNG,f,6123437590813a40d1fad393,2021-10-19_12h46.05.226,forced_choiceRT,2021.1.2,Linux x86_64,59.98440405,,,,,,,,1,Ontime,f,1,2.0186,5,3,23,0,1,,,,,
,1.82,,,,,,,,,h.PNG,h,6123437590813a40d1fad393,2021-10-19_12h46.05.226,forced_choiceRT,2021.1.2,Linux x86_64,59.98440405,,,,,,,,1,Slow,g,0,2.2001,6,0,24,2,1,,,,,
,1.03,,,,,,,,,j.PNG,j,6123437590813a40d1fad393,2021-10-19_12h46.05.226,forced_choiceRT,2021.1.2,Linux x86_64,59.98440405,,,,,,,,1,Fast,j,1,1.7845,6,1,25,3,1,,,,,
,1.22,,,,,,,,,j.PNG,j,6123437590813a40d1fad393,2021-10-19_12h46.05.226,forced_choiceRT,2021.1.2,Linux x86_64,59.98440405,,,,,,,,1,Slow,j,1,2.1837,6,2,26,3,1,,,,,
,1.19,,,,,,,,,g.PNG,g,6123437590813a40d1fad393,2021-10-19_12h46.05.226,forced_choiceRT,2021.1.2,Linux x86_64,59.98440405,,,,,,,,1,Ontime,g,1,2.0466,6,3,27,1,1,,,,,
,0.53,,,,,,,,,f.PNG,f,6123437590813a40d1fad393,2021-10-19_12h46.05.226,forced_choiceRT,2021.1.2,Linux x86_64,59.98440405,,,,,,,,1,Ontime,f,1,1.9882,7,0,28,0,1,,,,,
,1.79,,,,,,,,,h.PNG,h,6123437590813a40d1fad393,2021-10-19_12h46.05.226,forced_choiceRT,2021.1.2,Linux x86_64,59.98440405,,,,,,,,1,Slow,g,0,2.8929,7,1,29,2,1,,,,,
,1.76,,,,,,,,,f.PNG,f,6123437590813a40d1fad393,2021-10-19_12h46.05.226,forced_choiceRT,2021.1.2,Linux x86_64,59.98440405,,,,,,,,1,Ontime,f,1,2.0215,7,2,30,0,1,,,,,
,0.73,,,,,,,,,j.PNG,j,6123437590813a40d1fad393,2021-10-19_12h46.05.226,forced_choiceRT,2021.1.2,Linux x86_64,59.98440405,,,,,,,,1,Ontime,j,1,1.9693,7,3,31,3,1,,,,,
,1.13,,,,,,,,,h.PNG,h,6123437590813a40d1fad393,2021-10-19_12h46.05.226,forced_choiceRT,2021.1.2,Linux x86_64,59.98440405,,,,,,,,1,Ontime,g,0,1.9334,8,0,32,2,1,,,,,
,1.4,,,,,,,,,f.PNG,f,6123437590813a40d1fad393,2021-10-19_12h46.05.226,forced_choiceRT,2021.1.2,Linux x86_64,59.98440405,,,,,,,,1,Fast,f,1,1.7901,8,1,33,0,1,,,,,
,0.12,,,,,,,,,f.PNG,f,6123437590813a40d1fad393,2021-10-19_12h46.05.226,forced_choiceRT,2021.1.2,Linux x86_64,59.98440405,,,,,,,,1,Ontime,f,1,2.0548,8,2,34,0,1,,,,,
,0.76,,,,,,,,,h.PNG,h,6123437590813a40d1fad393,2021-10-19_12h46.05.226,forced_choiceRT,2021.1.2,Linux x86_64,59.98440405,,,,,,,,1,Fast,g,0,1.8814,8,3,35,2,1,,,,,
,0.36,,,,,,,,,g.PNG,g,6123437590813a40d1fad393,2021-10-19_12h46.05.226,forced_choiceRT,2021.1.2,Linux x86_64,59.98440405,,,,,,,,1,Fast,g,1,1.8849,9,0,36,1,1,,,,,
,1.01,,,,,,,,,h.PNG,h,6123437590813a40d1fad393,2021-10-19_12h46.05.226,forced_choiceRT,2021.1.2,Linux x86_64,59.98440405,,,,,,,,1,Slow,h,1,2.232,9,1,37,2,1,,,,,
,1.5,,,,,,,,,g.PNG,g,6123437590813a40d1fad393,2021-10-19_12h46.05.226,forced_choiceRT,2021.1.2,Linux x86_64,59.98440405,,,,,,,,1,Slow,g,1,2.3335,9,2,38,1,1,,,,,
,1.8,,,,,,,,,f.PNG,f,6123437590813a40d1fad393,2021-10-19_12h46.05.226,forced_choiceRT,2021.1.2,Linux x86_64,59.98440405,,,,,,,,1,Slow,h,0,2.2855,9,3,39,0,1,,,,,
,,,,,,,,,,,,6123437590813a40d1fad393,2021-10-19_12h46.05.226,forced_choiceRT,2021.1.2,Linux x86_64,59.98440405,,,,,,,,,,,,,,,,,,0,0,0,0,1
,0.24,,,,,,,,,g.PNG,g,6123437590813a40d1fad393,2021-10-19_12h46.05.226,forced_choiceRT,2021.1.2,Linux x86_64,59.98440405,,,,,,,,2,Slow,g,1,2.2176,0,0,0,1,1,,,,,
,0.73,,,,,,,,,f.PNG,f,6123437590813a40d1fad393,2021-10-19_12h46.05.226,forced_choiceRT,2021.1.2,Linux x86_64,59.98440405,,,,,,,,2,Fast,f,1,1.3826,0,1,1,0,1,,,,,
,1.9,,,,,,,,,j.PNG,j,6123437590813a40d1fad393,2021-10-19_12h46.05.226,forced_choiceRT,2021.1.2,Linux x86_64,59.98440405,,,,,,,,2,Slow,h,0,2.335,0,2,2,3,1,,,,,
,1.85,,,,,,,,,g.PNG,g,6123437590813a40d1fad393,2021-10-19_12h46.05.226,forced_choiceRT,2021.1.2,Linux x86_64,59.98440405,,,,,,,,2,Ontime,j,0,1.9361,0,3,3,1,1,,,,,
,0.69,,,,,,,,,f.PNG,f,6123437590813a40d1fad393,2021-10-19_12h46.05.226,forced_choiceRT,2021.1.2,Linux x86_64,59.98440405,,,,,,,,2,Slow,g,0,2.1367,1,0,4,0,1,,,,,
,1,,,,,,,,,f.PNG,f,6123437590813a40d1fad393,2021-10-19_12h46.05.226,forced_choiceRT,2021.1.2,Linux x86_64,59.98440405,,,,,,,,2,Fast,f,1,1.8017,1,1,5,0,1,,,,,
,0.9,,,,,,,,,g.PNG,g,6123437590813a40d1fad393,2021-10-19_12h46.05.226,forced_choiceRT,2021.1.2,Linux x86_64,59.98440405,,,,,,,,2,Fast,h,0,0.5517,1,2,6,1,1,,,,,
,1.49,,,,,,,,,j.PNG,j,6123437590813a40d1fad393,2021-10-19_12h46.05.226,forced_choiceRT,2021.1.2,Linux x86_64,59.98440405,,,,,,,,2,Fast,f,0,1.8655,1,3,7,3,1,,,,,
,1.22,,,,,,,,,f.PNG,f,6123437590813a40d1fad393,2021-10-19_12h46.05.226,forced_choiceRT,2021.1.2,Linux x86_64,59.98440405,,,,,,,,2,Ontime,f,1,1.9015,2,0,8,0,1,,,,,
,1.21,,,,,,,,,g.PNG,g,6123437590813a40d1fad393,2021-10-19_12h46.05.226,forced_choiceRT,2021.1.2,Linux x86_64,59.98440405,,,,,,,,2,Fast,g,1,1.8383,2,1,9,1,1,,,,,
,1.29,,,,,,,,,g.PNG,g,6123437590813a40d1fad393,2021-10-19_12h46.05.226,forced_choiceRT,2021.1.2,Linux x86_64,59.98440405,,,,,,,,2,Ontime,g,1,2.0673,2,2,10,1,1,,,,,
,1.01,,,,,,,,,j.PNG,j,6123437590813a40d1fad393,2021-10-19_12h46.05.226,forced_choiceRT,2021.1.2,Linux x86_64,59.98440405,,,,,,,,2,Fast,j,1,1.7666,2,3,11,3,1,,,,,
,0.73,,,,,,,,,f.PNG,f,6123437590813a40d1fad393,2021-10-19_12h46.05.226,forced_choiceRT,2021.1.2,Linux x86_64,59.98440405,,,,,,,,2,Ontime,g,0,2.0174,3,0,12,0,1,,,,,
,1.19,,,,,,,,,j.PNG,j,6123437590813a40d1fad393,2021-10-19_12h46.05.226,forced_choiceRT,2021.1.2,Linux x86_64,59.98440405,,,,,,,,2,Fast,j,1,1.818,3,1,13,3,1,,,,,
,0.24,,,,,,,,,h.PNG,h,6123437590813a40d1fad393,2021-10-19_12h46.05.226,forced_choiceRT,2021.1.2,Linux x86_64,59.98440405,,,,,,,,2,Fast,g,0,1.8172,3,2,14,2,1,,,,,
,0.01,,,,,,,,,h.PNG,h,6123437590813a40d1fad393,2021-10-19_12h46.05.226,forced_choiceRT,2021.1.2,Linux x86_64,59.98440405,,,,,,,,2,Ontime,h,1,2.084,3,3,15,2,1,,,,,
,1.24,,,,,,,,,f.PNG,f,6123437590813a40d1fad393,2021-10-19_12h46.05.226,forced_choiceRT,2021.1.2,Linux x86_64,59.98440405,,,,,,,,2,Slow,f,1,2.2675,4,0,16,0,1,,,,,
,0.88,,,,,,,,,h.PNG,h,6123437590813a40d1fad393,2021-10-19_12h46.05.226,forced_choiceRT,2021.1.2,Linux x86_64,59.98440405,,,,,,,,2,Slow,g,0,2.1569,4,1,17,2,1,,,,,
,0.26,,,,,,,,,j.PNG,j,6123437590813a40d1fad393,2021-10-19_12h46.05.226,forced_choiceRT,2021.1.2,Linux x86_64,59.98440405,,,,,,,,2,Ontime,j,1,1.9567,4,2,18,3,1,,,,,
,1.05,,,,,,,,,h.PNG,h,6123437590813a40d1fad393,2021-10-19_12h46.05.226,forced_choiceRT,2021.1.2,Linux x86_64,59.98440405,,,,,,,,2,Ontime,g,0,2.0341,4,3,19,2,1,,,,,
,1.54,,,,,,,,,h.PNG,h,6123437590813a40d1fad393,2021-10-19_12h46.05.226,forced_choiceRT,2021.1.2,Linux x86_64,59.98440405,,,,,,,,2,Slow,g,0,2.2011,5,0,20,2,1,,,,,
,1.51,,,,,,,,,f.PNG,f,6123437590813a40d1fad393,2021-10-19_12h46.05.226,forced_choiceRT,2021.1.2,Linux x86_64,59.98440405,,,,,,,,2,Fast,h,0,1.8203,5,1,21,0,1,,,,,
,0.29,,,,,,,,,h.PNG,h,6123437590813a40d1fad393,2021-10-19_12h46.05.226,forced_choiceRT,2021.1.2,Linux x86_64,59.98440405,,,,,,,,2,Ontime,g,0,2.0834,5,2,22,2,1,,,,,
,1.88,,,,,,,,,f.PNG,f,6123437590813a40d1fad393,2021-10-19_12h46.05.226,forced_choiceRT,2021.1.2,Linux x86_64,59.98440405,,,,,,,,2,Slow,g,0,2.2196,5,3,23,0,1,,,,,
,0.23,,,,,,,,,g.PNG,g,6123437590813a40d1fad393,2021-10-19_12h46.05.226,forced_choiceRT,2021.1.2,Linux x86_64,59.98440405,,,,,,,,2,Fast,g,1,1.7497,6,0,24,1,1,,,,,
,0.4,,,,,,,,,g.PNG,g,6123437590813a40d1fad393,2021-10-19_12h46.05.226,forced_choiceRT,2021.1.2,Linux x86_64,59.98440405,,,,,,,,2,Slow,g,1,2.1026,6,1,25,1,1,,,,,
,0.95,,,,,,,,,g.PNG,g,6123437590813a40d1fad393,2021-10-19_12h46.05.226,forced_choiceRT,2021.1.2,Linux x86_64,59.98440405,,,,,,,,2,Ontime,g,1,1.9016,6,2,26,1,1,,,,,
,0.58,,,,,,,,,j.PNG,j,6123437590813a40d1fad393,2021-10-19_12h46.05.226,forced_choiceRT,2021.1.2,Linux x86_64,59.98440405,,,,,,,,2,Ontime,j,1,2.0508,6,3,27,3,1,,,,,
,1.42,,,,,,,,,h.PNG,h,6123437590813a40d1fad393,2021-10-19_12h46.05.226,forced_choiceRT,2021.1.2,Linux x86_64,59.98440405,,,,,,,,2,Ontime,h,1,2.0799,7,0,28,2,1,,,,,
,0.71,,,,,,,,,g.PNG,g,6123437590813a40d1fad393,2021-10-19_12h46.05.226,forced_choiceRT,2021.1.2,Linux x86_64,59.98440405,,,,,,,,2,Ontime,g,1,2.0046,7,1,29,1,1,,,,,
,0.58,,,,,,,,,j.PNG,j,6123437590813a40d1fad393,2021-10-19_12h46.05.226,forced_choiceRT,2021.1.2,Linux x86_64,59.98440405,,,,,,,,2,Ontime,j,1,2.014,7,2,30,3,1,,,,,
,0.87,,,,,,,,,j.PNG,j,6123437590813a40d1fad393,2021-10-19_12h46.05.226,forced_choiceRT,2021.1.2,Linux x86_64,59.98440405,,,,,,,,2,Ontime,j,1,2.0227,7,3,31,3,1,,,,,
,1.39,,,,,,,,,f.PNG,f,6123437590813a40d1fad393,2021-10-19_12h46.05.226,forced_choiceRT,2021.1.2,Linux x86_64,59.98440405,,,,,,,,2,Slow,g,0,2.3531,8,0,32,0,1,,,,,
,0.26,,,,,,,,,g.PNG,g,6123437590813a40d1fad393,2021-10-19_12h46.05.226,forced_choiceRT,2021.1.2,Linux x86_64,59.98440405,,,,,,,,2,Ontime,g,1,2.0718,8,1,33,1,1,,,,,
,0.83,,,,,,,,,h.PNG,h,6123437590813a40d1fad393,2021-10-19_12h46.05.226,forced_choiceRT,2021.1.2,Linux x86_64,59.98440405,,,,,,,,2,Ontime,h,1,1.9908,8,2,34,2,1,,,,,
,1.23,,,,,,,,,j.PNG,j,6123437590813a40d1fad393,2021-10-19_12h46.05.226,forced_choiceRT,2021.1.2,Linux x86_64,59.98440405,,,,,,,,2,Slow,j,1,2.1508,8,3,35,3,1,,,,,
,0.65,,,,,,,,,j.PNG,j,6123437590813a40d1fad393,2021-10-19_12h46.05.226,forced_choiceRT,2021.1.2,Linux x86_64,59.98440405,,,,,,,,2,Ontime,j,1,2.0033,9,0,36,3,1,,,,,
,0.21,,,,,,,,,h.PNG,h,6123437590813a40d1fad393,2021-10-19_12h46.05.226,forced_choiceRT,2021.1.2,Linux x86_64,59.98440405,,,,,,,,2,Fast,j,0,1.7665,9,1,37,2,1,,,,,
,1.31,,,,,,,,,h.PNG,h,6123437590813a40d1fad393,2021-10-19_12h46.05.226,forced_choiceRT,2021.1.2,Linux x86_64,59.98440405,,,,,,,,2,Fast,h,1,1.8953,9,2,38,2,1,,,,,
,0.95,,,,,,,,,f.PNG,f,6123437590813a40d1fad393,2021-10-19_12h46.05.226,forced_choiceRT,2021.1.2,Linux x86_64,59.98440405,,,,,,,,2,Slow,f,1,3.867,9,3,39,0,1,,,,,
,,,,,,,,,,,,6123437590813a40d1fad393,2021-10-19_12h46.05.226,forced_choiceRT,2021.1.2,Linux x86_64,59.98440405,,,,,,,,,,,,,,,,,,1,0,1,0,1
,1.28,,,,,,,,,j.PNG,j,6123437590813a40d1fad393,2021-10-19_12h46.05.226,forced_choiceRT,2021.1.2,Linux x86_64,59.98440405,,,,,,,,3,Ontime,j,1,1.9361,0,0,0,3,1,,,,,
,1.79,,,,,,,,,h.PNG,h,6123437590813a40d1fad393,2021-10-19_12h46.05.226,forced_choiceRT,2021.1.2,Linux x86_64,59.98440405,,,,,,,,3,Slow,g,0,2.1738,0,1,1,2,1,,,,,
,0.27,,,,,,,,,g.PNG,g,6123437590813a40d1fad393,2021-10-19_12h46.05.226,forced_choiceRT,2021.1.2,Linux x86_64,59.98440405,,,,,,,,3,Fast,g,1,1.7157,0,2,2,1,1,,,,,
,1.95,,,,,,,,,h.PNG,h,6123437590813a40d1fad393,2021-10-19_12h46.05.226,forced_choiceRT,2021.1.2,Linux x86_64,59.98440405,,,,,,,,3,Ontime,h,1,2.085,0,3,3,2,1,,,,,
,0.57,,,,,,,,,g.PNG,g,6123437590813a40d1fad393,2021-10-19_12h46.05.226,forced_choiceRT,2021.1.2,Linux x86_64,59.98440405,,,,,,,,3,Ontime,g,1,2.0543,1,0,4,1,1,,,,,
,1.76,,,,,,,,,f.PNG,f,6123437590813a40d1fad393,2021-10-19_12h46.05.226,forced_choiceRT,2021.1.2,Linux x86_64,59.98440405,,,,,,,,3,Ontime,f,1,2.0376,1,1,5,0,1,,,,,
,1.98,,,,,,,,,f.PNG,f,6123437590813a40d1fad393,2021-10-19_12h46.05.226,forced_choiceRT,2021.1.2,Linux x86_64,59.98440405,,,,,,,,3,Slow,j,0,2.1654,1,2,6,0,1,,,,,
,0.97,,,,,,,,,j.PNG,j,6123437590813a40d1fad393,2021-10-19_12h46.05.226,forced_choiceRT,2021.1.2,Linux x86_64,59.98440405,,,,,,,,3,Ontime,j,1,2.0373,1,3,7,3,1,,,,,
,1.94,,,,,,,,,h.PNG,h,6123437590813a40d1fad393,2021-10-19_12h46.05.226,forced_choiceRT,2021.1.2,Linux x86_64,59.98440405,,,,,,,,3,Fast,h,1,0.1497,2,0,8,2,1,,,,,
,1.21,,,,,,,,,h.PNG,h,6123437590813a40d1fad393,2021-10-19_12h46.05.226,forced_choiceRT,2021.1.2,Linux x86_64,59.98440405,,,,,,,,3,Ontime,j,0,1.941,2,1,9,2,1,,,,,
,0.05,,,,,,,,,g.PNG,g,6123437590813a40d1fad393,2021-10-19_12h46.05.226,forced_choiceRT,2021.1.2,Linux x86_64,59.98440405,,,,,,,,3,Ontime,g,1,2.0336,2,2,10,1,1,,,,,
,0.26,,,,,,,,,f.PNG,f,6123437590813a40d1fad393,2021-10-19_12h46.05.226,forced_choiceRT,2021.1.2,Linux x86_64,59.98440405,,,,,,,,3,Fast,f,1,1.8239,2,3,11,0,1,,,,,
,0.15,,,,,,,,,h.PNG,h,6123437590813a40d1fad393,2021-10-19_12h46.05.226,forced_choiceRT,2021.1.2,Linux x86_64,59.98440405,,,,,,,,3,Fast,h,1,1.6849,3,0,12,2,1,,,,,
,1.9,,,,,,,,,j.PNG,j,6123437590813a40d1fad393,2021-10-19_12h46.05.226,forced_choiceRT,2021.1.2,Linux x86_64,59.98440405,,,,,,,,3,Slow,h,0,2.1502,3,1,13,3,1,,,,,
,1.02,,,,,,,,,g.PNG,g,6123437590813a40d1fad393,2021-10-19_12h46.05.226,forced_choiceRT,2021.1.2,Linux x86_64,59.98440405,,,,,,,,3,Ontime,g,1,2.0503,3,2,14,1,1,,,,,
,0.66,,,,,,,,,h.PNG,h,6123437590813a40d1fad393,2021-10-19_12h46.05.226,forced_choiceRT,2021.1.2,Linux x86_64,59.98440405,,,,,,,,3,Ontime,h,1,1.9847,3,3,15,2,1,,,,,
,0.62,,,,,,,,,h.PNG,h,6123437590813a40d1fad393,2021-10-19_12h46.05.226,forced_choiceRT,2021.1.2,Linux x86_64,59.98440405,,,,,,,,3,Slow,h,1,2.1014,4,0,16,2,1,,,,,
,1.3,,,,,,,,,j.PNG,j,6123437590813a40d1fad393,2021-10-19_12h46.05.226,forced_choiceRT,2021.1.2,Linux x86_64,59.98440405,,,,,,,,3,Ontime,j,1,2.0827,4,1,17,3,1,,,,,
,1.06,,,,,,,,,f.PNG,f,6123437590813a40d1fad393,2021-10-19_12h46.05.226,forced_choiceRT,2021.1.2,Linux x86_64,59.98440405,,,,,,,,3,Fast,f,1,1.8838,4,2,18,0,1,,,,,
,1.66,,,,,,,,,f.PNG,f,6123437590813a40d1fad393,2021-10-19_12h46.05.226,forced_choiceRT,2021.1.2,Linux x86_64,59.98440405,,,,,,,,3,Ontime,g,0,2.0869,4,3,19,0,1,,,,,
,0.41,,,,,,,,,j.PNG,j,6123437590813a40d1fad393,2021-10-19_12h46.05.226,forced_choiceRT,2021.1.2,Linux x86_64,59.98440405,,,,,,,,3,Ontime,j,1,1.9856,5,0,20,3,1,,,,,
,0.42,,,,,,,,,j.PNG,j,6123437590813a40d1fad393,2021-10-19_12h46.05.226,forced_choiceRT,2021.1.2,Linux x86_64,59.98440405,,,,,,,,3,Ontime,j,1,2.0355,5,1,21,3,1,,,,,
,0.06,,,,,,,,,f.PNG,f,6123437590813a40d1fad393,2021-10-19_12h46.05.226,forced_choiceRT,2021.1.2,Linux x86_64,59.98440405,,,,,,,,3,Ontime,f,1,2.0187,5,2,22,0,1,,,,,
,0.69,,,,,,,,,f.PNG,f,6123437590813a40d1fad393,2021-10-19_12h46.05.226,forced_choiceRT,2021.1.2,Linux x86_64,59.98440405,,,,,,,,3,Slow,f,1,2.1735,5,3,23,0,1,,,,,
,1.98,,,,,,,,,g.PNG,g,6123437590813a40d1fad393,2021-10-19_12h46.05.226,forced_choiceRT,2021.1.2,Linux x86_64,59.98440405,,,,,,,,3,Slow,f,0,2.1022,6,0,24,1,1,,,,,
,1.42,,,,,,,,,f.PNG,f,6123437590813a40d1fad393,2021-10-19_12h46.05.226,forced_choiceRT,2021.1.2,Linux x86_64,59.98440405,,,,,,,,3,Ontime,g,0,2.0356,6,1,25,0,1,,,,,
,0.33,,,,,,,,,j.PNG,j,6123437590813a40d1fad393,2021-10-19_12h46.05.226,forced_choiceRT,2021.1.2,Linux x86_64,59.98440405,,,,,,,,3,Fast,j,1,1.8331,6,2,26,3,1,,,,,
,0.98,,,,,,,,,g.PNG,g,6123437590813a40d1fad393,2021-10-19_12h46.05.226,forced_choiceRT,2021.1.2,Linux x86_64,59.98440405,,,,,,,,3,Ontime,g,1,2.0351,6,3,27,1,1,,,,,
,1.51,,,,,,,,,g.PNG,g,6123437590813a40d1fad393,2021-10-19_12h46.05.226,forced_choiceRT,2021.1.2,Linux x86_64,59.98440405,,,,,,,,3,Slow,h,0,2.2332,7,0,28,1,1,,,,,
,1.07,,,,,,,,,g.PNG,g,6123437590813a40d1fad393,2021-10-19_12h46.05.226,forced_choiceRT,2021.1.2,Linux x86_64,59.98440405,,,,,,,,3,Slow,g,1,2.2155,7,1,29,1,1,,,,,
,1.27,,,,,,,,,j.PNG,j,6123437590813a40d1fad393,2021-10-19_12h46.05.226,forced_choiceRT,2021.1.2,Linux x86_64,59.98440405,,,,,,,,3,Slow,j,1,3.536,7,2,30,3,1,,,,,
,1.6,,,,,,,,,h.PNG,h,6123437590813a40d1fad393,2021-10-19_12h46.05.226,forced_choiceRT,2021.1.2,Linux x86_64,59.98440405,,,,,,,,3,Ontime,j,0,1.9502,7,3,31,2,1,,,,,
,0.21,,,,,,,,,f.PNG,f,6123437590813a40d1fad393,2021-10-19_12h46.05.226,forced_choiceRT,2021.1.2,Linux x86_64,59.98440405,,,,,,,,3,Ontime,f,1,1.9188,8,0,32,0,1,,,,,
,1.87,,,,,,,,,g.PNG,g,6123437590813a40d1fad393,2021-10-19_12h46.05.226,forced_choiceRT,2021.1.2,Linux x86_64,59.98440405,,,,,,,,3,Ontime,h,0,2.05,8,1,33,1,1,,,,,
,1.23,,,,,,,,,j.PNG,j,6123437590813a40d1fad393,2021-10-19_12h46.05.226,forced_choiceRT,2021.1.2,Linux x86_64,59.98440405,,,,,,,,3,Slow,j,1,2.1201,8,2,34,3,1,,,,,
,1.37,,,,,,,,,f.PNG,f,6123437590813a40d1fad393,2021-10-19_12h46.05.226,forced_choiceRT,2021.1.2,Linux x86_64,59.98440405,,,,,,,,3,Ontime,f,1,2.0844,8,3,35,0,1,,,,,
,1.38,,,,,,,,,g.PNG,g,6123437590813a40d1fad393,2021-10-19_12h46.05.226,forced_choiceRT,2021.1.2,Linux x86_64,59.98440405,,,,,,,,3,Ontime,g,1,2.0214,9,0,36,1,1,,,,,
,0.17,,,,,,,,,h.PNG,h,6123437590813a40d1fad393,2021-10-19_12h46.05.226,forced_choiceRT,2021.1.2,Linux x86_64,59.98440405,,,,,,,,3,Fast,h,1,1.7217,9,1,37,2,1,,,,,
,1.91,,,,,,,,,h.PNG,h,6123437590813a40d1fad393,2021-10-19_12h46.05.226,forced_choiceRT,2021.1.2,Linux x86_64,59.98440405,,,,,,,,3,Ontime,h,1,1.9523,9,2,38,2,1,,,,,
,0.87,,,,,,,,,j.PNG,j,6123437590813a40d1fad393,2021-10-19_12h46.05.226,forced_choiceRT,2021.1.2,Linux x86_64,59.98440405,,,,,,,,3,Ontime,j,1,2.0632,9,3,39,3,1,,,,,
,,,,,,,,,,,,6123437590813a40d1fad393,2021-10-19_12h46.05.226,forced_choiceRT,2021.1.2,Linux x86_64,59.98440405,,,,,,,,,,,,,,,,,,2,0,2,0,1
,1.97,,,,,,,,,h.PNG,h,6123437590813a40d1fad393,2021-10-19_12h46.05.226,forced_choiceRT,2021.1.2,Linux x86_64,59.98440405,,,,,,,,4,Ontime,g,0,1.9889,0,0,0,2,1,,,,,
,1.19,,,,,,,,,f.PNG,f,6123437590813a40d1fad393,2021-10-19_12h46.05.226,forced_choiceRT,2021.1.2,Linux x86_64,59.98440405,,,,,,,,4,Slow,g,0,2.1278,0,1,1,0,1,,,,,
,1.57,,,,,,,,,f.PNG,f,6123437590813a40d1fad393,2021-10-19_12h46.05.226,forced_choiceRT,2021.1.2,Linux x86_64,59.98440405,,,,,,,,4,Fast,g,0,1.7888,0,2,2,0,1,,,,,
,1.58,,,,,,,,,h.PNG,h,6123437590813a40d1fad393,2021-10-19_12h46.05.226,forced_choiceRT,2021.1.2,Linux x86_64,59.98440405,,,,,,,,4,Ontime,g,0,2.053,0,3,3,2,1,,,,,
,1,,,,,,,,,h.PNG,h,6123437590813a40d1fad393,2021-10-19_12h46.05.226,forced_choiceRT,2021.1.2,Linux x86_64,59.98440405,,,,,,,,4,Ontime,h,1,1.9677,1,0,4,2,1,,,,,
,0.1,,,,,,,,,f.PNG,f,6123437590813a40d1fad393,2021-10-19_12h46.05.226,forced_choiceRT,2021.1.2,Linux x86_64,59.98440405,,,,,,,,4,Fast,f,1,1.7505,1,1,5,0,1,,,,,
,1.63,,,,,,,,,g.PNG,g,6123437590813a40d1fad393,2021-10-19_12h46.05.226,forced_choiceRT,2021.1.2,Linux x86_64,59.98440405,,,,,,,,4,Slow,g,1,2.2554,1,2,6,1,1,,,,,
,0.27,,,,,,,,,f.PNG,f,6123437590813a40d1fad393,2021-10-19_12h46.05.226,forced_choiceRT,2021.1.2,Linux x86_64,59.98440405,,,,,,,,4,Fast,f,1,1.7839,1,3,7,0,1,,,,,
,0.15,,,,,,,,,h.PNG,h,6123437590813a40d1fad393,2021-10-19_12h46.05.226,forced_choiceRT,2021.1.2,Linux x86_64,59.98440405,,,,,,,,4,Fast,h,1,1.7679,2,0,8,2,1,,,,,
,0.25,,,,,,,,,j.PNG,j,6123437590813a40d1fad393,2021-10-19_12h46.05.226,forced_choiceRT,2021.1.2,Linux x86_64,59.98440405,,,,,,,,4,Fast,j,1,1.8511,2,1,9,3,1,,,,,
,1.16,,,,,,,,,g.PNG,g,6123437590813a40d1fad393,2021-10-19_12h46.05.226,forced_choiceRT,2021.1.2,Linux x86_64,59.98440405,,,,,,,,4,Ontime,g,1,2.0527,2,2,10,1,1,,,,,
,1.81,,,,,,,,,f.PNG,f,6123437590813a40d1fad393,2021-10-19_12h46.05.226,forced_choiceRT,2021.1.2,Linux x86_64,59.98440405,,,,,,,,4,Ontime,f,1,1.9999,2,3,11,0,1,,,,,
,0.67,,,,,,,,,j.PNG,j,6123437590813a40d1fad393,2021-10-19_12h46.05.226,forced_choiceRT,2021.1.2,Linux x86_64,59.98440405,,,,,,,,4,Slow,j,1,2.1006,3,0,12,3,1,,,,,
,1.05,,,,,,,,,h.PNG,h,6123437590813a40d1fad393,2021-10-19_12h46.05.226,forced_choiceRT,2021.1.2,Linux x86_64,59.98440405,,,,,,,,4,Fast,h,1,1.8337,3,1,13,2,1,,,,,
,0.8,,,,,,,,,f.PNG,f,6123437590813a40d1fad393,2021-10-19_12h46.05.226,forced_choiceRT,2021.1.2,Linux x86_64,59.98440405,,,,,,,,4,Ontime,f,1,1.9058,3,2,14,0,1,,,,,
,1.03,,,,,,,,,f.PNG,f,6123437590813a40d1fad393,2021-10-19_12h46.05.226,forced_choiceRT,2021.1.2,Linux x86_64,59.98440405,,,,,,,,4,Ontime,f,1,1.9167,3,3,15,0,1,,,,,
,0.46,,,,,,,,,j.PNG,j,6123437590813a40d1fad393,2021-10-19_12h46.05.226,forced_choiceRT,2021.1.2,Linux x86_64,59.98440405,,,,,,,,4,Slow,j,1,2.1334,4,0,16,3,1,,,,,
,0.64,,,,,,,,,g.PNG,g,6123437590813a40d1fad393,2021-10-19_12h46.05.226,forced_choiceRT,2021.1.2,Linux x86_64,59.98440405,,,,,,,,4,Fast,h,0,1.8018,4,1,17,1,1,,,,,
,1.21,,,,,,,,,f.PNG,f,6123437590813a40d1fad393,2021-10-19_12h46.05.226,forced_choiceRT,2021.1.2,Linux x86_64,59.98440405,,,,,,,,4,Ontime,f,1,1.9511,4,2,18,0,1,,,,,
,1.19,,,,,,,,,g.PNG,g,6123437590813a40d1fad393,2021-10-19_12h46.05.226,forced_choiceRT,2021.1.2,Linux x86_64,59.98440405,,,,,,,,4,Fast,f,0,1.7738,4,3,19,1,1,,,,,
,1.46,,,,,,,,,h.PNG,h,6123437590813a40d1fad393,2021-10-19_12h46.05.226,forced_choiceRT,2021.1.2,Linux x86_64,59.98440405,,,,,,,,4,Slow,j,0,2.3997,5,0,20,2,1,,,,,
,1.59,,,,,,,,,g.PNG,g,6123437590813a40d1fad393,2021-10-19_12h46.05.226,forced_choiceRT,2021.1.2,Linux x86_64,59.98440405,,,,,,,,4,Fast,h,0,1.8856,5,1,21,1,1,,,,,
,1.7,,,,,,,,,j.PNG,j,6123437590813a40d1fad393,2021-10-19_12h46.05.226,forced_choiceRT,2021.1.2,Linux x86_64,59.98440405,,,,,,,,4,Slow,j,1,3.0672,5,2,22,3,1,,,,,
,0.45,,,,,,,,,h.PNG,h,6123437590813a40d1fad393,2021-10-19_12h46.05.226,forced_choiceRT,2021.1.2,Linux x86_64,59.98440405,,,,,,,,4,Ontime,h,1,2.0504,5,3,23,2,1,,,,,
,0.02,,,,,,,,,g.PNG,g,6123437590813a40d1fad393,2021-10-19_12h46.05.226,forced_choiceRT,2021.1.2,Linux x86_64,59.98440405,,,,,,,,4,Fast,g,1,1.8879,6,0,24,1,1,,,,,
,0.51,,,,,,,,,g.PNG,g,6123437590813a40d1fad393,2021-10-19_12h46.05.226,forced_choiceRT,2021.1.2,Linux x86_64,59.98440405,,,,,,,,4,Ontime,g,1,2.0512,6,1,25,1,1,,,,,
,1.09,,,,,,,,,j.PNG,j,6123437590813a40d1fad393,2021-10-19_12h46.05.226,forced_choiceRT,2021.1.2,Linux x86_64,59.98440405,,,,,,,,4,Slow,j,1,2.1196,6,2,26,3,1,,,,,
,0.12,,,,,,,,,h.PNG,h,6123437590813a40d1fad393,2021-10-19_12h46.05.226,forced_choiceRT,2021.1.2,Linux x86_64,59.98440405,,,,,,,,4,Fast,h,1,1.7834,6,3,27,2,1,,,,,
,1.4,,,,,,,,,j.PNG,j,6123437590813a40d1fad393,2021-10-19_12h46.05.226,forced_choiceRT,2021.1.2,Linux x86_64,59.98440405,,,,,,,,4,Slow,j,1,2.2679,7,0,28,3,1,,,,,
,0.31,,,,,,,,,h.PNG,h,6123437590813a40d1fad393,2021-10-19_12h46.05.226,forced_choiceRT,2021.1.2,Linux x86_64,59.98440405,,,,,,,,4,Ontime,h,1,1.923,7,1,29,2,1,,,,,
,0.63,,,,,,,,,j.PNG,j,6123437590813a40d1fad393,2021-10-19_12h46.05.226,forced_choiceRT,2021.1.2,Linux x86_64,59.98440405,,,,,,,,4,Fast,j,1,1.3914,7,2,30,3,1,,,,,
,0.17,,,,,,,,,g.PNG,g,6123437590813a40d1fad393,2021-10-19_12h46.05.226,forced_choiceRT,2021.1.2,Linux x86_64,59.98440405,,,,,,,,4,Fast,g,1,1.8325,7,3,31,1,1,,,,,
,1.62,,,,,,,,,j.PNG,j,6123437590813a40d1fad393,2021-10-19_12h46.05.226,forced_choiceRT,2021.1.2,Linux x86_64,59.98440405,,,,,,,,4,Slow,j,1,2.319,8,0,32,3,1,,,,,
,0.89,,,,,,,,,h.PNG,h,6123437590813a40d1fad393,2021-10-19_12h46.05.226,forced_choiceRT,2021.1.2,Linux x86_64,59.98440405,,,,,,,,4,Ontime,h,1,1.917,8,1,33,2,1,,,,,
,1.12,,,,,,,,,f.PNG,f,6123437590813a40d1fad393,2021-10-19_12h46.05.226,forced_choiceRT,2021.1.2,Linux x86_64,59.98440405,,,,,,,,4,Ontime,f,1,1.9068,8,2,34,0,1,,,,,
,0.56,,,,,,,,,j.PNG,j,6123437590813a40d1fad393,2021-10-19_12h46.05.226,forced_choiceRT,2021.1.2,Linux x86_64,59.98440405,,,,,,,,4,Fast,j,1,1.816,8,3,35,3,1,,,,,
,0.08,,,,,,,,,g.PNG,g,6123437590813a40d1fad393,2021-10-19_12h46.05.226,forced_choiceRT,2021.1.2,Linux x86_64,59.98440405,,,,,,,,4,Ontime,g,1,2.0345,9,0,36,1,1,,,,,
,0.9,,,,,,,,,g.PNG,g,6123437590813a40d1fad393,2021-10-19_12h46.05.226,forced_choiceRT,2021.1.2,Linux x86_64,59.98440405,,,,,,,,4,Ontime,g,1,2.0331,9,1,37,1,1,,,,,
,1.81,,,,,,,,,j.PNG,j,6123437590813a40d1fad393,2021-10-19_12h46.05.226,forced_choiceRT,2021.1.2,Linux x86_64,59.98440405,,,,,,,,4,Slow,f,0,2.2498,9,2,38,3,1,,,,,
,1.94,,,,,,,,,f.PNG,f,6123437590813a40d1fad393,2021-10-19_12h46.05.226,forced_choiceRT,2021.1.2,Linux x86_64,59.98440405,,,,,,,,4,Ontime,g,0,2.0088,9,3,39,0,1,,,,,
,,,,,,,,,,,,6123437590813a40d1fad393,2021-10-19_12h46.05.226,forced_choiceRT,2021.1.2,Linux x86_64,59.98440405,,,,,,,,,,,,,,,,,,3,0,3,0,1
,1.35,,,,,,,,,h.PNG,h,6123437590813a40d1fad393,2021-10-19_12h46.05.226,forced_choiceRT,2021.1.2,Linux x86_64,59.98440405,,,,,,,,5,Ontime,g,0,1.9919,0,0,0,2,1,,,,,
,0.16,,,,,,,,,j.PNG,j,6123437590813a40d1fad393,2021-10-19_12h46.05.226,forced_choiceRT,2021.1.2,Linux x86_64,59.98440405,,,,,,,,5,Fast,j,1,1.8002,0,1,1,3,1,,,,,
,0.65,,,,,,,,,g.PNG,g,6123437590813a40d1fad393,2021-10-19_12h46.05.226,forced_choiceRT,2021.1.2,Linux x86_64,59.98440405,,,,,,,,5,Ontime,g,1,1.9845,0,2,2,1,1,,,,,
,1.61,,,,,,,,,f.PNG,f,6123437590813a40d1fad393,2021-10-19_12h46.05.226,forced_choiceRT,2021.1.2,Linux x86_64,59.98440405,,,,,,,,5,Slow,f,1,2.2898,0,3,3,0,1,,,,,
,0.64,,,,,,,,,f.PNG,f,6123437590813a40d1fad393,2021-10-19_12h46.05.226,forced_choiceRT,2021.1.2,Linux x86_64,59.98440405,,,,,,,,5,Fast,f,1,1.7672,1,0,4,0,1,,,,,
,1.5,,,,,,,,,g.PNG,g,6123437590813a40d1fad393,2021-10-19_12h46.05.226,forced_choiceRT,2021.1.2,Linux x86_64,59.98440405,,,,,,,,5,Slow,g,1,2.2326,1,1,5,1,1,,,,,
,0.36,,,,,,,,,g.PNG,g,6123437590813a40d1fad393,2021-10-19_12h46.05.226,forced_choiceRT,2021.1.2,Linux x86_64,59.98440405,,,,,,,,5,Fast,g,1,1.867,1,2,6,1,1,,,,,
,1.04,,,,,,,,,g.PNG,g,6123437590813a40d1fad393,2021-10-19_12h46.05.226,forced_choiceRT,2021.1.2,Linux x86_64,59.98440405,,,,,,,,5,Ontime,g,1,2.0994,1,3,7,1,1,,,,,
,0.17,,,,,,,,,j.PNG,j,6123437590813a40d1fad393,2021-10-19_12h46.05.226,forced_choiceRT,2021.1.2,Linux x86_64,59.98440405,,,,,,,,5,Ontime,j,1,2.0678,2,0,8,3,1,,,,,
,0.89,,,,,,,,,g.PNG,g,6123437590813a40d1fad393,2021-10-19_12h46.05.226,forced_choiceRT,2021.1.2,Linux x86_64,59.98440405,,,,,,,,5,Ontime,g,1,2.017,2,1,9,1,1,,,,,
,0.67,,,,,,,,,h.PNG,h,6123437590813a40d1fad393,2021-10-19_12h46.05.226,forced_choiceRT,2021.1.2,Linux x86_64,59.98440405,,,,,,,,5,Ontime,h,1,1.9507,2,2,10,2,1,,,,,
,0.18,,,,,,,,,f.PNG,f,6123437590813a40d1fad393,2021-10-19_12h46.05.226,forced_choiceRT,2021.1.2,Linux x86_64,59.98440405,,,,,,,,5,Ontime,f,1,1.9659,2,3,11,0,1,,,,,
,0.27,,,,,,,,,h.PNG,h,6123437590813a40d1fad393,2021-10-19_12h46.05.226,forced_choiceRT,2021.1.2,Linux x86_64,59.98440405,,,,,,,,5,Ontime,h,1,1.9891,3,0,12,2,1,,,,,
,1.42,,,,,,,,,h.PNG,h,6123437590813a40d1fad393,2021-10-19_12h46.05.226,forced_choiceRT,2021.1.2,Linux x86_64,59.98440405,,,,,,,,5,Slow,h,1,2.1169,3,1,13,2,1,,,,,
,0.73,,,,,,,,,g.PNG,g,6123437590813a40d1fad393,2021-10-19_12h46.05.226,forced_choiceRT,2021.1.2,Linux x86_64,59.98440405,,,,,,,,5,Fast,g,1,1.8168,3,2,14,1,1,,,,,
,1.65,,,,,,,,,f.PNG,f,6123437590813a40d1fad393,2021-10-19_12h46.05.226,forced_choiceRT,2021.1.2,Linux x86_64,59.98440405,,,,,,,,5,Slow,f,1,2.2378,3,3,15,0,1,,,,,
,0.84,,,,,,,,,j.PNG,j,6123437590813a40d1fad393,2021-10-19_12h46.05.226,forced_choiceRT,2021.1.2,Linux x86_64,59.98440405,,,,,,,,5,Ontime,j,1,2.0008,4,0,16,3,1,,,,,
,1.59,,,,,,,,,h.PNG,h,6123437590813a40d1fad393,2021-10-19_12h46.05.226,forced_choiceRT,2021.1.2,Linux x86_64,59.98440405,,,,,,,,5,Slow,h,1,2.1494,4,1,17,2,1,,,,,
,1.46,,,,,,,,,g.PNG,g,6123437590813a40d1fad393,2021-10-19_12h46.05.226,forced_choiceRT,2021.1.2,Linux x86_64,59.98440405,,,,,,,,5,Slow,g,1,2.2,4,2,18,1,1,,,,,
,1.42,,,,,,,,,j.PNG,j,6123437590813a40d1fad393,2021-10-19_12h46.05.226,forced_choiceRT,2021.1.2,Linux x86_64,59.98440405,,,,,,,,5,Ontime,g,0,1.9509,4,3,19,3,1,,,,,
,0.21,,,,,,,,,h.PNG,h,6123437590813a40d1fad393,2021-10-19_12h46.05.226,forced_choiceRT,2021.1.2,Linux x86_64,59.98440405,,,,,,,,5,Ontime,h,1,1.9364,5,0,20,2,1,,,,,
,0.77,,,,,,,,,j.PNG,j,6123437590813a40d1fad393,2021-10-19_12h46.05.226,forced_choiceRT,2021.1.2,Linux x86_64,59.98440405,,,,,,,,5,Slow,j,1,2.3021,5,1,21,3,1,,,,,
,1.6,,,,,,,,,j.PNG,j,6123437590813a40d1fad393,2021-10-19_12h46.05.226,forced_choiceRT,2021.1.2,Linux x86_64,59.98440405,,,,,,,,5,Slow,j,1,2.203,5,2,22,3,1,,,,,
,1.01,,,,,,,,,g.PNG,g,6123437590813a40d1fad393,2021-10-19_12h46.05.226,forced_choiceRT,2021.1.2,Linux x86_64,59.98440405,,,,,,,,5,Ontime,g,1,1.983,5,3,23,1,1,,,,,
,0.93,,,,,,,,,g.PNG,g,6123437590813a40d1fad393,2021-10-19_12h46.05.226,forced_choiceRT,2021.1.2,Linux x86_64,59.98440405,,,,,,,,5,Slow,g,1,2.2005,6,0,24,1,1,,,,,
,1.13,,,,,,,,,h.PNG,h,6123437590813a40d1fad393,2021-10-19_12h46.05.226,forced_choiceRT,2021.1.2,Linux x86_64,59.98440405,,,,,,,,5,Ontime,h,1,2.0494,6,1,25,2,1,,,,,
,1.88,,,,,,,,,j.PNG,j,6123437590813a40d1fad393,2021-10-19_12h46.05.226,forced_choiceRT,2021.1.2,Linux x86_64,59.98440405,,,,,,,,5,Slow,g,0,2.1688,6,2,26,3,1,,,,,
,0.23,,,,,,,,,h.PNG,h,6123437590813a40d1fad393,2021-10-19_12h46.05.226,forced_choiceRT,2021.1.2,Linux x86_64,59.98440405,,,,,,,,5,Ontime,h,1,1.969,6,3,27,2,1,,,,,
,0.81,,,,,,,,,h.PNG,h,6123437590813a40d1fad393,2021-10-19_12h46.05.226,forced_choiceRT,2021.1.2,Linux x86_64,59.98440405,,,,,,,,5,Fast,h,1,1.6674,7,0,28,2,1,,,,,
,1.39,,,,,,,,,f.PNG,f,6123437590813a40d1fad393,2021-10-19_12h46.05.226,forced_choiceRT,2021.1.2,Linux x86_64,59.98440405,,,,,,,,5,Slow,f,1,2.3509,7,1,29,0,1,,,,,
,1.58,,,,,,,,,g.PNG,g,6123437590813a40d1fad393,2021-10-19_12h46.05.226,forced_choiceRT,2021.1.2,Linux x86_64,59.98440405,,,,,,,,5,Slow,f,0,2.3163,7,2,30,1,1,,,,,
,0.38,,,,,,,,,f.PNG,f,6123437590813a40d1fad393,2021-10-19_12h46.05.226,forced_choiceRT,2021.1.2,Linux x86_64,59.98440405,,,,,,,,5,Ontime,f,1,1.9123,7,3,31,0,1,,,,,
,0.89,,,,,,,,,h.PNG,h,6123437590813a40d1fad393,2021-10-19_12h46.05.226,forced_choiceRT,2021.1.2,Linux x86_64,59.98440405,,,,,,,,5,Ontime,h,1,2.0136,8,0,32,2,1,,,,,
,1.65,,,,,,,,,j.PNG,j,6123437590813a40d1fad393,2021-10-19_12h46.05.226,forced_choiceRT,2021.1.2,Linux x86_64,59.98440405,,,,,,,,5,Slow,j,1,2.2667,8,1,33,3,1,,,,,
,0.7,,,,,,,,,f.PNG,f,6123437590813a40d1fad393,2021-10-19_12h46.05.226,forced_choiceRT,2021.1.2,Linux x86_64,59.98440405,,,,,,,,5,Fast,f,1,1.7498,8,2,34,0,1,,,,,
,1.51,,,,,,,,,j.PNG,j,6123437590813a40d1fad393,2021-10-19_12h46.05.226,forced_choiceRT,2021.1.2,Linux x86_64,59.98440405,,,,,,,,5,Slow,j,1,2.1663,8,3,35,3,1,,,,,
,0.52,,,,,,,,,j.PNG,j,6123437590813a40d1fad393,2021-10-19_12h46.05.226,forced_choiceRT,2021.1.2,Linux x86_64,59.98440405,,,,,,,,5,Ontime,j,1,1.9334,9,0,36,3,1,,,,,
,1.74,,,,,,,,,f.PNG,f,6123437590813a40d1fad393,2021-10-19_12h46.05.226,forced_choiceRT,2021.1.2,Linux x86_64,59.98440405,,,,,,,,5,Slow,f,1,2.4828,9,1,37,0,1,,,,,
,0.71,,,,,,,,,f.PNG,f,6123437590813a40d1fad393,2021-10-19_12h46.05.226,forced_choiceRT,2021.1.2,Linux x86_64,59.98440405,,,,,,,,5,Fast,f,1,1.8197,9,2,38,0,1,,,,,
,1.76,,,,,,,,,f.PNG,f,6123437590813a40d1fad393,2021-10-19_12h46.05.226,forced_choiceRT,2021.1.2,Linux x86_64,59.98440405,,,,,,,,5,Slow,f,1,3.1502,9,3,39,0,1,,,,,
,,,,,,,,,,,,6123437590813a40d1fad393,2021-10-19_12h46.05.226,forced_choiceRT,2021.1.2,Linux x86_64,59.98440405,,,,,,,,,,,,,,,,,,4,0,4,0,1
,0.88,,,,,,,,,j.PNG,j,6123437590813a40d1fad393,2021-10-19_12h46.05.226,forced_choiceRT,2021.1.2,Linux x86_64,59.98440405,,,,,,,,6,Fast,j,1,1.775,0,0,0,3,1,,,,,
,1.77,,,,,,,,,j.PNG,j,6123437590813a40d1fad393,2021-10-19_12h46.05.226,forced_choiceRT,2021.1.2,Linux x86_64,59.98440405,,,,,,,,6,Ontime,j,1,2.0857,0,1,1,3,1,,,,,
,0.07,,,,,,,,,f.PNG,f,6123437590813a40d1fad393,2021-10-19_12h46.05.226,forced_choiceRT,2021.1.2,Linux x86_64,59.98440405,,,,,,,,6,Ontime,f,1,2.0261,0,2,2,0,1,,,,,
,0.22,,,,,,,,,f.PNG,f,6123437590813a40d1fad393,2021-10-19_12h46.05.226,forced_choiceRT,2021.1.2,Linux x86_64,59.98440405,,,,,,,,6,Slow,f,1,2.1178,0,3,3,0,1,,,,,
,1.53,,,,,,,,,j.PNG,j,6123437590813a40d1fad393,2021-10-19_12h46.05.226,forced_choiceRT,2021.1.2,Linux x86_64,59.98440405,,,,,,,,6,Slow,j,1,2.1541,1,0,4,3,1,,,,,
,0.66,,,,,,,,,f.PNG,f,6123437590813a40d1fad393,2021-10-19_12h46.05.226,forced_choiceRT,2021.1.2,Linux x86_64,59.98440405,,,,,,,,6,Slow,f,1,2.1333,1,1,5,0,1,,,,,
,1.7,,,,,,,,,f.PNG,f,6123437590813a40d1fad393,2021-10-19_12h46.05.226,forced_choiceRT,2021.1.2,Linux x86_64,59.98440405,,,,,,,,6,Slow,f,1,2.136,1,2,6,0,1,,,,,
,1.18,,,,,,,,,g.PNG,g,6123437590813a40d1fad393,2021-10-19_12h46.05.226,forced_choiceRT,2021.1.2,Linux x86_64,59.98440405,,,,,,,,6,Fast,f,0,1.8001,1,3,7,1,1,,,,,
,1.22,,,,,,,,,h.PNG,h,6123437590813a40d1fad393,2021-10-19_12h46.05.226,forced_choiceRT,2021.1.2,Linux x86_64,59.98440405,,,,,,,,6,Ontime,h,1,1.9066,2,0,8,2,1,,,,,
,1.01,,,,,,,,,f.PNG,f,6123437590813a40d1fad393,2021-10-19_12h46.05.226,forced_choiceRT,2021.1.2,Linux x86_64,59.98440405,,,,,,,,6,Fast,f,1,1.8393,2,1,9,0,1,,,,,
,1.32,,,,,,,,,j.PNG,j,6123437590813a40d1fad393,2021-10-19_12h46.05.226,forced_choiceRT,2021.1.2,Linux x86_64,59.98440405,,,,,,,,6,Ontime,j,1,1.9509,2,2,10,3,1,,,,,
,1.57,,,,,,,,,h.PNG,h,6123437590813a40d1fad393,2021-10-19_12h46.05.226,forced_choiceRT,2021.1.2,Linux x86_64,59.98440405,,,,,,,,6,Slow,h,1,2.184,2,3,11,2,1,,,,,
,0.84,,,,,,,,,f.PNG,f,6123437590813a40d1fad393,2021-10-19_12h46.05.226,forced_choiceRT,2021.1.2,Linux x86_64,59.98440405,,,,,,,,6,Ontime,f,1,1.9539,3,0,12,0,1,,,,,
,0.3,,,,,,,,,g.PNG,g,6123437590813a40d1fad393,2021-10-19_12h46.05.226,forced_choiceRT,2021.1.2,Linux x86_64,59.98440405,,,,,,,,6,Ontime,g,1,2.0014,3,1,13,1,1,,,,,
,0.22,,,,,,,,,j.PNG,j,6123437590813a40d1fad393,2021-10-19_12h46.05.226,forced_choiceRT,2021.1.2,Linux x86_64,59.98440405,,,,,,,,6,Ontime,j,1,2.0063,3,2,14,3,1,,,,,
,1.46,,,,,,,,,h.PNG,h,6123437590813a40d1fad393,2021-10-19_12h46.05.226,forced_choiceRT,2021.1.2,Linux x86_64,59.98440405,,,,,,,,6,Ontime,h,1,2.0169,3,3,15,2,1,,,,,
,0.36,,,,,,,,,j.PNG,j,6123437590813a40d1fad393,2021-10-19_12h46.05.226,forced_choiceRT,2021.1.2,Linux x86_64,59.98440405,,,,,,,,6,Ontime,j,1,1.9869,4,0,16,3,1,,,,,
,1.95,,,,,,,,,j.PNG,j,6123437590813a40d1fad393,2021-10-19_12h46.05.226,forced_choiceRT,2021.1.2,Linux x86_64,59.98440405,,,,,,,,6,Slow,g,0,2.1219,4,1,17,3,1,,,,,
,0.58,,,,,,,,,h.PNG,h,6123437590813a40d1fad393,2021-10-19_12h46.05.226,forced_choiceRT,2021.1.2,Linux x86_64,59.98440405,,,,,,,,6,Ontime,h,1,2.0354,4,2,18,2,1,,,,,
,0.12,,,,,,,,,j.PNG,j,6123437590813a40d1fad393,2021-10-19_12h46.05.226,forced_choiceRT,2021.1.2,Linux x86_64,59.98440405,,,,,,,,6,Ontime,j,1,1.9848,4,3,19,3,1,,,,,
,1.54,,,,,,,,,f.PNG,f,6123437590813a40d1fad393,2021-10-19_12h46.05.226,forced_choiceRT,2021.1.2,Linux x86_64,59.98440405,,,,,,,,6,Slow,f,1,2.3005,5,0,20,0,1,,,,,
,1.84,,,,,,,,,j.PNG,j,6123437590813a40d1fad393,2021-10-19_12h46.05.226,forced_choiceRT,2021.1.2,Linux x86_64,59.98440405,,,,,,,,6,Ontime,g,0,2.0502,5,1,21,3,1,,,,,
,1.97,,,,,,,,,g.PNG,g,6123437590813a40d1fad393,2021-10-19_12h46.05.226,forced_choiceRT,2021.1.2,Linux x86_64,59.98440405,,,,,,,,6,Ontime,f,0,1.9349,5,2,22,1,1,,,,,
,0.18,,,,,,,,,g.PNG,g,6123437590813a40d1fad393,2021-10-19_12h46.05.226,forced_choiceRT,2021.1.2,Linux x86_64,59.98440405,,,,,,,,6,Ontime,g,1,2.0357,5,3,23,1,1,,,,,
,1.46,,,,,,,,,g.PNG,g,6123437590813a40d1fad393,2021-10-19_12h46.05.226,forced_choiceRT,2021.1.2,Linux x86_64,59.98440405,,,,,,,,6,Slow,h,0,2.1329,6,0,24,1,1,,,,,
,1.31,,,,,,,,,g.PNG,g,6123437590813a40d1fad393,2021-10-19_12h46.05.226,forced_choiceRT,2021.1.2,Linux x86_64,59.98440405,,,,,,,,6,Fast,h,0,1.8845,6,1,25,1,1,,,,,
,1.07,,,,,,,,,j.PNG,j,6123437590813a40d1fad393,2021-10-19_12h46.05.226,forced_choiceRT,2021.1.2,Linux x86_64,59.98440405,,,,,,,,6,Ontime,j,1,2.072,6,2,26,3,1,,,,,
,0.52,,,,,,,,,g.PNG,g,6123437590813a40d1fad393,2021-10-19_12h46.05.226,forced_choiceRT,2021.1.2,Linux x86_64,59.98440405,,,,,,,,6,Slow,g,1,2.1501,6,3,27,1,1,,,,,
,0.31,,,,,,,,,f.PNG,f,6123437590813a40d1fad393,2021-10-19_12h46.05.226,forced_choiceRT,2021.1.2,Linux x86_64,59.98440405,,,,,,,,6,Ontime,f,1,2.0673,7,0,28,0,1,,,,,
,1.84,,,,,,,,,g.PNG,g,6123437590813a40d1fad393,2021-10-19_12h46.05.226,forced_choiceRT,2021.1.2,Linux x86_64,59.98440405,,,,,,,,6,Ontime,g,1,2.0009,7,1,29,1,1,,,,,
,0.81,,,,,,,,,h.PNG,h,6123437590813a40d1fad393,2021-10-19_12h46.05.226,forced_choiceRT,2021.1.2,Linux x86_64,59.98440405,,,,,,,,6,Slow,h,1,2.1223,7,2,30,2,1,,,,,
,1.47,,,,,,,,,h.PNG,h,6123437590813a40d1fad393,2021-10-19_12h46.05.226,forced_choiceRT,2021.1.2,Linux x86_64,59.98440405,,,,,,,,6,Slow,h,1,2.2509,7,3,31,2,1,,,,,
,1.95,,,,,,,,,f.PNG,f,6123437590813a40d1fad393,2021-10-19_12h46.05.226,forced_choiceRT,2021.1.2,Linux x86_64,59.98440405,,,,,,,,6,Slow,g,0,2.9556,8,0,32,0,1,,,,,
,1.74,,,,,,,,,f.PNG,f,6123437590813a40d1fad393,2021-10-19_12h46.05.226,forced_choiceRT,2021.1.2,Linux x86_64,59.98440405,,,,,,,,6,Ontime,f,1,1.9844,8,1,33,0,1,,,,,
,0.36,,,,,,,,,h.PNG,h,6123437590813a40d1fad393,2021-10-19_12h46.05.226,forced_choiceRT,2021.1.2,Linux x86_64,59.98440405,,,,,,,,6,Ontime,h,1,1.9842,8,2,34,2,1,,,,,
,1.11,,,,,,,,,g.PNG,g,6123437590813a40d1fad393,2021-10-19_12h46.05.226,forced_choiceRT,2021.1.2,Linux x86_64,59.98440405,,,,,,,,6,Slow,g,1,2.1009,8,3,35,1,1,,,,,
,1.73,,,,,,,,,h.PNG,h,6123437590813a40d1fad393,2021-10-19_12h46.05.226,forced_choiceRT,2021.1.2,Linux x86_64,59.98440405,,,,,,,,6,Ontime,g,0,1.9665,9,0,36,2,1,,,,,
,0.71,,,,,,,,,g.PNG,g,6123437590813a40d1fad393,2021-10-19_12h46.05.226,forced_choiceRT,2021.1.2,Linux x86_64,59.98440405,,,,,,,,6,Ontime,g,1,2.0356,9,1,37,1,1,,,,,
,1.35,,,,,,,,,h.PNG,h,6123437590813a40d1fad393,2021-10-19_12h46.05.226,forced_choiceRT,2021.1.2,Linux x86_64,59.98440405,,,,,,,,6,Ontime,j,0,2.0516,9,2,38,2,1,,,,,
,1.17,,,,,,,,,h.PNG,h,6123437590813a40d1fad393,2021-10-19_12h46.05.226,forced_choiceRT,2021.1.2,Linux x86_64,59.98440405,,,,,,,,6,Fast,h,1,1.8875,9,3,39,2,1,,,,,
,,,,,,,,,,,,6123437590813a40d1fad393,2021-10-19_12h46.05.226,forced_choiceRT,2021.1.2,Linux x86_64,59.98440405,,,,,,,,,,,,,,,,,,5,0,5,0,1
,0.95,,,,,,,,,j.PNG,j,6123437590813a40d1fad393,2021-10-19_12h46.05.226,forced_choiceRT,2021.1.2,Linux x86_64,59.98440405,,,,,,,,7,Fast,j,1,1.7494,0,0,0,3,1,,,,,
,0.73,,,,,,,,,f.PNG,f,6123437590813a40d1fad393,2021-10-19_12h46.05.226,forced_choiceRT,2021.1.2,Linux x86_64,59.98440405,,,,,,,,7,Ontime,f,1,1.9999,0,1,1,0,1,,,,,
,1.12,,,,,,,,,j.PNG,j,6123437590813a40d1fad393,2021-10-19_12h46.05.226,forced_choiceRT,2021.1.2,Linux x86_64,59.98440405,,,,,,,,7,Slow,j,1,2.2907,0,2,2,3,1,,,,,
,1.9,,,,,,,,,g.PNG,g,6123437590813a40d1fad393,2021-10-19_12h46.05.226,forced_choiceRT,2021.1.2,Linux x86_64,59.98440405,,,,,,,,7,Slow,h,0,2.2168,0,3,3,1,1,,,,,
,1.04,,,,,,,,,f.PNG,f,6123437590813a40d1fad393,2021-10-19_12h46.05.226,forced_choiceRT,2021.1.2,Linux x86_64,59.98440405,,,,,,,,7,Ontime,g,0,2.0833,1,0,4,0,1,,,,,
,1.38,,,,,,,,,g.PNG,g,6123437590813a40d1fad393,2021-10-19_12h46.05.226,forced_choiceRT,2021.1.2,Linux x86_64,59.98440405,,,,,,,,7,Ontime,g,1,2.0498,1,1,5,1,1,,,,,
,1.44,,,,,,,,,j.PNG,j,6123437590813a40d1fad393,2021-10-19_12h46.05.226,forced_choiceRT,2021.1.2,Linux x86_64,59.98440405,,,,,,,,7,Slow,j,1,2.2386,1,2,6,3,1,,,,,
,0.19,,,,,,,,,g.PNG,g,6123437590813a40d1fad393,2021-10-19_12h46.05.226,forced_choiceRT,2021.1.2,Linux x86_64,59.98440405,,,,,,,,7,Ontime,g,1,2.0014,1,3,7,1,1,,,,,
,1.76,,,,,,,,,g.PNG,g,6123437590813a40d1fad393,2021-10-19_12h46.05.226,forced_choiceRT,2021.1.2,Linux x86_64,59.98440405,,,,,,,,7,Ontime,g,1,2.0218,2,0,8,1,1,,,,,
,0.16,,,,,,,,,f.PNG,f,6123437590813a40d1fad393,2021-10-19_12h46.05.226,forced_choiceRT,2021.1.2,Linux x86_64,59.98440405,,,,,,,,7,Ontime,f,1,2.0022,2,1,9,0,1,,,,,
,1.56,,,,,,,,,j.PNG,j,6123437590813a40d1fad393,2021-10-19_12h46.05.226,forced_choiceRT,2021.1.2,Linux x86_64,59.98440405,,,,,,,,7,Ontime,f,0,2.0339,2,2,10,3,1,,,,,
,1.4,,,,,,,,,h.PNG,h,6123437590813a40d1fad393,2021-10-19_12h46.05.226,forced_choiceRT,2021.1.2,Linux x86_64,59.98440405,,,,,,,,7,Ontime,j,0,2.0007,2,3,11,2,1,,,,,
,1.69,,,,,,,,,g.PNG,g,6123437590813a40d1fad393,2021-10-19_12h46.05.226,forced_choiceRT,2021.1.2,Linux x86_64,59.98440405,,,,,,,,7,Slow,g,1,2.3696,3,0,12,1,1,,,,,
,1.11,,,,,,,,,j.PNG,j,6123437590813a40d1fad393,2021-10-19_12h46.05.226,forced_choiceRT,2021.1.2,Linux x86_64,59.98440405,,,,,,,,7,Slow,j,1,2.1823,3,1,13,3,1,,,,,
,1.21,,,,,,,,,h.PNG,h,6123437590813a40d1fad393,2021-10-19_12h46.05.226,forced_choiceRT,2021.1.2,Linux x86_64,59.98440405,,,,,,,,7,Fast,j,0,1.6837,3,2,14,2,1,,,,,
,0.12,,,,,,,,,j.PNG,j,6123437590813a40d1fad393,2021-10-19_12h46.05.226,forced_choiceRT,2021.1.2,Linux x86_64,59.98440405,,,,,,,,7,Fast,j,1,1.8838,3,3,15,3,1,,,,,
,0.08,,,,,,,,,j.PNG,j,6123437590813a40d1fad393,2021-10-19_12h46.05.226,forced_choiceRT,2021.1.2,Linux x86_64,59.98440405,,,,,,,,7,Ontime,j,1,2.0498,4,0,16,3,1,,,,,
,0.6,,,,,,,,,j.PNG,j,6123437590813a40d1fad393,2021-10-19_12h46.05.226,forced_choiceRT,2021.1.2,Linux x86_64,59.98440405,,,,,,,,7,Ontime,j,1,1.9992,4,1,17,3,1,,,,,
,1.12,,,,,,,,,j.PNG,j,6123437590813a40d1fad393,2021-10-19_12h46.05.226,forced_choiceRT,2021.1.2,Linux x86_64,59.98440405,,,,,,,,7,Fast,h,0,1.8357,4,2,18,3,1,,,,,
,1.94,,,,,,,,,f.PNG,f,6123437590813a40d1fad393,2021-10-19_12h46.05.226,forced_choiceRT,2021.1.2,Linux x86_64,59.98440405,,,,,,,,7,Slow,h,0,2.1016,4,3,19,0,1,,,,,
,0.03,,,,,,,,,g.PNG,g,6123437590813a40d1fad393,2021-10-19_12h46.05.226,forced_choiceRT,2021.1.2,Linux x86_64,59.98440405,,,,,,,,7,Ontime,g,1,2.0026,5,0,20,1,1,,,,,
,0.42,,,,,,,,,h.PNG,h,6123437590813a40d1fad393,2021-10-19_12h46.05.226,forced_choiceRT,2021.1.2,Linux x86_64,59.98440405,,,,,,,,7,Ontime,h,1,2.0686,5,1,21,2,1,,,,,
,1.49,,,,,,,,,g.PNG,g,6123437590813a40d1fad393,2021-10-19_12h46.05.226,forced_choiceRT,2021.1.2,Linux x86_64,59.98440405,,,,,,,,7,Slow,g,1,2.1199,5,2,22,1,1,,,,,
,1.25,,,,,,,,,f.PNG,f,6123437590813a40d1fad393,2021-10-19_12h46.05.226,forced_choiceRT,2021.1.2,Linux x86_64,59.98440405,,,,,,,,7,Ontime,f,1,2.0208,5,3,23,0,1,,,,,
,0.51,,,,,,,,,f.PNG,f,6123437590813a40d1fad393,2021-10-19_12h46.05.226,forced_choiceRT,2021.1.2,Linux x86_64,59.98440405,,,,,,,,7,Ontime,f,1,1.9666,6,0,24,0,1,,,,,
,1.25,,,,,,,,,f.PNG,f,6123437590813a40d1fad393,2021-10-19_12h46.05.226,forced_choiceRT,2021.1.2,Linux x86_64,59.98440405,,,,,,,,7,Ontime,f,1,2.0411,6,1,25,0,1,,,,,
,0.43,,,,,,,,,h.PNG,h,6123437590813a40d1fad393,2021-10-19_12h46.05.226,forced_choiceRT,2021.1.2,Linux x86_64,59.98440405,,,,,,,,7,Ontime,h,1,2.0333,6,2,26,2,1,,,,,
,1,,,,,,,,,g.PNG,g,6123437590813a40d1fad393,2021-10-19_12h46.05.226,forced_choiceRT,2021.1.2,Linux x86_64,59.98440405,,,,,,,,7,Ontime,g,1,2.0499,6,3,27,1,1,,,,,
,1.26,,,,,,,,,h.PNG,h,6123437590813a40d1fad393,2021-10-19_12h46.05.226,forced_choiceRT,2021.1.2,Linux x86_64,59.98440405,,,,,,,,7,Ontime,h,1,2.0547,7,0,28,2,1,,,,,
,0.43,,,,,,,,,f.PNG,f,6123437590813a40d1fad393,2021-10-19_12h46.05.226,forced_choiceRT,2021.1.2,Linux x86_64,59.98440405,,,,,,,,7,Ontime,f,1,2.0366,7,1,29,0,1,,,,,
,1.71,,,,,,,,,f.PNG,f,6123437590813a40d1fad393,2021-10-19_12h46.05.226,forced_choiceRT,2021.1.2,Linux x86_64,59.98440405,,,,,,,,7,Slow,h,0,2.2007,7,2,30,0,1,,,,,
,0.49,,,,,,,,,g.PNG,g,6123437590813a40d1fad393,2021-10-19_12h46.05.226,forced_choiceRT,2021.1.2,Linux x86_64,59.98440405,,,,,,,,7,Ontime,g,1,2.0077,7,3,31,1,1,,,,,
,1.66,,,,,,,,,h.PNG,h,6123437590813a40d1fad393,2021-10-19_12h46.05.226,forced_choiceRT,2021.1.2,Linux x86_64,59.98440405,,,,,,,,7,Slow,h,1,2.8499,8,0,32,2,1,,,,,
,0,,,,,,,,,g.PNG,g,6123437590813a40d1fad393,2021-10-19_12h46.05.226,forced_choiceRT,2021.1.2,Linux x86_64,59.98440405,,,,,,,,7,Ontime,g,1,2.0211,8,1,33,1,1,,,,,
,1.45,,,,,,,,,f.PNG,f,6123437590813a40d1fad393,2021-10-19_12h46.05.226,forced_choiceRT,2021.1.2,Linux x86_64,59.98440405,,,,,,,,7,Slow,g,0,2.1002,8,2,34,0,1,,,,,
,1.16,,,,,,,,,j.PNG,j,6123437590813a40d1fad393,2021-10-19_12h46.05.226,forced_choiceRT,2021.1.2,Linux x86_64,59.98440405,,,,,,,,7,Ontime,j,1,2.0499,8,3,35,3,1,,,,,
,0.99,,,,,,,,,h.PNG,h,6123437590813a40d1fad393,2021-10-19_12h46.05.226,forced_choiceRT,2021.1.2,Linux x86_64,59.98440405,,,,,,,,7,Ontime,h,1,2.0675,9,0,36,2,1,,,,,
,1.4,,,,,,,,,h.PNG,h,6123437590813a40d1fad393,2021-10-19_12h46.05.226,forced_choiceRT,2021.1.2,Linux x86_64,59.98440405,,,,,,,,7,Ontime,g,0,2.0006,9,1,37,2,1,,,,,
,1.72,,,,,,,,,h.PNG,h,6123437590813a40d1fad393,2021-10-19_12h46.05.226,forced_choiceRT,2021.1.2,Linux x86_64,59.98440405,,,,,,,,7,Slow,g,0,2.1377,9,2,38,2,1,,,,,
,0.02,,,,,,,,,h.PNG,h,6123437590813a40d1fad393,2021-10-19_12h46.05.226,forced_choiceRT,2021.1.2,Linux x86_64,59.98440405,,,,,,,,7,Ontime,h,1,2.0997,9,3,39,2,1,,,,,
,,,,,,,,,,,,6123437590813a40d1fad393,2021-10-19_12h46.05.226,forced_choiceRT,2021.1.2,Linux x86_64,59.98440405,,,,,,,,,,,,,,,,,,6,0,6,0,1
,0.36,,,,,,,,,h.PNG,h,6123437590813a40d1fad393,2021-10-19_12h46.05.226,forced_choiceRT,2021.1.2,Linux x86_64,59.98440405,,,,,,,,8,Fast,h,1,1.6764,0,0,0,2,1,,,,,
,1.64,,,,,,,,,h.PNG,h,6123437590813a40d1fad393,2021-10-19_12h46.05.226,forced_choiceRT,2021.1.2,Linux x86_64,59.98440405,,,,,,,,8,Ontime,h,1,1.9495,0,1,1,2,1,,,,,
,0.27,,,,,,,,,g.PNG,g,6123437590813a40d1fad393,2021-10-19_12h46.05.226,forced_choiceRT,2021.1.2,Linux x86_64,59.98440405,,,,,,,,8,Fast,g,1,1.8346,0,2,2,1,1,,,,,
,1.54,,,,,,,,,f.PNG,f,6123437590813a40d1fad393,2021-10-19_12h46.05.226,forced_choiceRT,2021.1.2,Linux x86_64,59.98440405,,,,,,,,8,Ontime,g,0,2.006,0,3,3,0,1,,,,,
,0.21,,,,,,,,,g.PNG,g,6123437590813a40d1fad393,2021-10-19_12h46.05.226,forced_choiceRT,2021.1.2,Linux x86_64,59.98440405,,,,,,,,8,Ontime,g,1,2.0559,1,0,4,1,1,,,,,
,1.9,,,,,,,,,j.PNG,j,6123437590813a40d1fad393,2021-10-19_12h46.05.226,forced_choiceRT,2021.1.2,Linux x86_64,59.98440405,,,,,,,,8,Slow,f,0,2.1346,1,1,5,3,1,,,,,
,1.12,,,,,,,,,j.PNG,j,6123437590813a40d1fad393,2021-10-19_12h46.05.226,forced_choiceRT,2021.1.2,Linux x86_64,59.98440405,,,,,,,,8,Ontime,j,1,2.0849,1,2,6,3,1,,,,,
,0.96,,,,,,,,,f.PNG,f,6123437590813a40d1fad393,2021-10-19_12h46.05.226,forced_choiceRT,2021.1.2,Linux x86_64,59.98440405,,,,,,,,8,Fast,f,1,1.8512,1,3,7,0,1,,,,,
,0.4,,,,,,,,,h.PNG,h,6123437590813a40d1fad393,2021-10-19_12h46.05.226,forced_choiceRT,2021.1.2,Linux x86_64,59.98440405,,,,,,,,8,Fast,h,1,1.8544,2,0,8,2,1,,,,,
,1.97,,,,,,,,,g.PNG,g,6123437590813a40d1fad393,2021-10-19_12h46.05.226,forced_choiceRT,2021.1.2,Linux x86_64,59.98440405,,,,,,,,8,Slow,h,0,2.116,2,1,9,1,1,,,,,
,0.54,,,,,,,,,g.PNG,g,6123437590813a40d1fad393,2021-10-19_12h46.05.226,forced_choiceRT,2021.1.2,Linux x86_64,59.98440405,,,,,,,,8,Ontime,g,1,2.0826,2,2,10,1,1,,,,,
,1.13,,,,,,,,,f.PNG,f,6123437590813a40d1fad393,2021-10-19_12h46.05.226,forced_choiceRT,2021.1.2,Linux x86_64,59.98440405,,,,,,,,8,Ontime,f,1,1.9011,2,3,11,0,1,,,,,
,0.38,,,,,,,,,j.PNG,j,6123437590813a40d1fad393,2021-10-19_12h46.05.226,forced_choiceRT,2021.1.2,Linux x86_64,59.98440405,,,,,,,,8,Slow,j,1,2.1504,3,0,12,3,1,,,,,
,0.17,,,,,,,,,f.PNG,f,6123437590813a40d1fad393,2021-10-19_12h46.05.226,forced_choiceRT,2021.1.2,Linux x86_64,59.98440405,,,,,,,,8,Ontime,f,1,2.023,3,1,13,0,1,,,,,
,1.82,,,,,,,,,g.PNG,g,6123437590813a40d1fad393,2021-10-19_12h46.05.226,forced_choiceRT,2021.1.2,Linux x86_64,59.98440405,,,,,,,,8,Slow,g,1,2.1176,3,2,14,1,1,,,,,
,0.23,,,,,,,,,g.PNG,g,6123437590813a40d1fad393,2021-10-19_12h46.05.226,forced_choiceRT,2021.1.2,Linux x86_64,59.98440405,,,,,,,,8,Ontime,g,1,2.0368,3,3,15,1,1,,,,,
,0.24,,,,,,,,,g.PNG,g,6123437590813a40d1fad393,2021-10-19_12h46.05.226,forced_choiceRT,2021.1.2,Linux x86_64,59.98440405,,,,,,,,8,Ontime,g,1,2.099,4,0,16,1,1,,,,,
,0.33,,,,,,,,,h.PNG,h,6123437590813a40d1fad393,2021-10-19_12h46.05.226,forced_choiceRT,2021.1.2,Linux x86_64,59.98440405,,,,,,,,8,Ontime,h,1,2.0534,4,1,17,2,1,,,,,
,0.36,,,,,,,,,h.PNG,h,6123437590813a40d1fad393,2021-10-19_12h46.05.226,forced_choiceRT,2021.1.2,Linux x86_64,59.98440405,,,,,,,,8,Ontime,h,1,1.9668,4,2,18,2,1,,,,,
,0.45,,,,,,,,,f.PNG,f,6123437590813a40d1fad393,2021-10-19_12h46.05.226,forced_choiceRT,2021.1.2,Linux x86_64,59.98440405,,,,,,,,8,Ontime,f,1,1.9512,4,3,19,0,1,,,,,
,1.49,,,,,,,,,g.PNG,g,6123437590813a40d1fad393,2021-10-19_12h46.05.226,forced_choiceRT,2021.1.2,Linux x86_64,59.98440405,,,,,,,,8,Slow,g,1,2.1173,5,0,20,1,1,,,,,
,0,,,,,,,,,f.PNG,f,6123437590813a40d1fad393,2021-10-19_12h46.05.226,forced_choiceRT,2021.1.2,Linux x86_64,59.98440405,,,,,,,,8,Ontime,f,1,1.9885,5,1,21,0,1,,,,,
,0.03,,,,,,,,,j.PNG,j,6123437590813a40d1fad393,2021-10-19_12h46.05.226,forced_choiceRT,2021.1.2,Linux x86_64,59.98440405,,,,,,,,8,Ontime,j,1,2.0827,5,2,22,3,1,,,,,
,0.7,,,,,,,,,h.PNG,h,6123437590813a40d1fad393,2021-10-19_12h46.05.226,forced_choiceRT,2021.1.2,Linux x86_64,59.98440405,,,,,,,,8,Fast,h,1,1.853,5,3,23,2,1,,,,,
,0.2,,,,,,,,,h.PNG,h,6123437590813a40d1fad393,2021-10-19_12h46.05.226,forced_choiceRT,2021.1.2,Linux x86_64,59.98440405,,,,,,,,8,Ontime,h,1,1.9068,6,0,24,2,1,,,,,
,0.13,,,,,,,,,g.PNG,g,6123437590813a40d1fad393,2021-10-19_12h46.05.226,forced_choiceRT,2021.1.2,Linux x86_64,59.98440405,,,,,,,,8,Ontime,g,1,2.0871,6,1,25,1,1,,,,,
,0.35,,,,,,,,,g.PNG,g,6123437590813a40d1fad393,2021-10-19_12h46.05.226,forced_choiceRT,2021.1.2,Linux x86_64,59.98440405,,,,,,,,8,Fast,g,1,1.8385,6,2,26,1,1,,,,,
,1.69,,,,,,,,,f.PNG,f,6123437590813a40d1fad393,2021-10-19_12h46.05.226,forced_choiceRT,2021.1.2,Linux x86_64,59.98440405,,,,,,,,8,Slow,f,1,2.3871,6,3,27,0,1,,,,,
,1.08,,,,,,,,,j.PNG,j,6123437590813a40d1fad393,2021-10-19_12h46.05.226,forced_choiceRT,2021.1.2,Linux x86_64,59.98440405,,,,,,,,8,Ontime,j,1,2.0669,7,0,28,3,1,,,,,
,0.6,,,,,,,,,h.PNG,h,6123437590813a40d1fad393,2021-10-19_12h46.05.226,forced_choiceRT,2021.1.2,Linux x86_64,59.98440405,,,,,,,,8,Fast,h,1,1.8842,7,1,29,2,1,,,,,
,1.55,,,,,,,,,j.PNG,j,6123437590813a40d1fad393,2021-10-19_12h46.05.226,forced_choiceRT,2021.1.2,Linux x86_64,59.98440405,,,,,,,,8,Fast,g,0,1.8824,7,2,30,3,1,,,,,
,1.2,,,,,,,,,f.PNG,f,6123437590813a40d1fad393,2021-10-19_12h46.05.226,forced_choiceRT,2021.1.2,Linux x86_64,59.98440405,,,,,,,,8,Slow,f,1,2.1925,7,3,31,0,1,,,,,
,0.71,,,,,,,,,j.PNG,j,6123437590813a40d1fad393,2021-10-19_12h46.05.226,forced_choiceRT,2021.1.2,Linux x86_64,59.98440405,,,,,,,,8,Ontime,j,1,1.9331,8,0,32,3,1,,,,,
,1.29,,,,,,,,,f.PNG,f,6123437590813a40d1fad393,2021-10-19_12h46.05.226,forced_choiceRT,2021.1.2,Linux x86_64,59.98440405,,,,,,,,8,Ontime,f,1,1.987,8,1,33,0,1,,,,,
,0.34,,,,,,,,,j.PNG,j,6123437590813a40d1fad393,2021-10-19_12h46.05.226,forced_choiceRT,2021.1.2,Linux x86_64,59.98440405,,,,,,,,8,Ontime,j,1,2.0988,8,2,34,3,1,,,,,
,0.93,,,,,,,,,f.PNG,f,6123437590813a40d1fad393,2021-10-19_12h46.05.226,forced_choiceRT,2021.1.2,Linux x86_64,59.98440405,,,,,,,,8,Fast,f,1,1.668,8,3,35,0,1,,,,,
,0.02,,,,,,,,,j.PNG,j,6123437590813a40d1fad393,2021-10-19_12h46.05.226,forced_choiceRT,2021.1.2,Linux x86_64,59.98440405,,,,,,,,8,Ontime,j,1,2.0519,9,0,36,3,1,,,,,
,1.1,,,,,,,,,h.PNG,h,6123437590813a40d1fad393,2021-10-19_12h46.05.226,forced_choiceRT,2021.1.2,Linux x86_64,59.98440405,,,,,,,,8,Ontime,h,1,2.067,9,1,37,2,1,,,,,
,1.67,,,,,,,,,j.PNG,j,6123437590813a40d1fad393,2021-10-19_12h46.05.226,forced_choiceRT,2021.1.2,Linux x86_64,59.98440405,,,,,,,,8,Slow,j,1,2.8385,9,2,38,3,1,,,,,
,0.05,,,,,,,,,h.PNG,h,6123437590813a40d1fad393,2021-10-19_12h46.05.226,forced_choiceRT,2021.1.2,Linux x86_64,59.98440405,,,,,,,,8,Ontime,h,1,2.0026,9,3,39,2,1,,,,,
,,,,,,,,,,,,6123437590813a40d1fad393,2021-10-19_12h46.05.226,forced_choiceRT,2021.1.2,Linux x86_64,59.98440405,,,,,,,,,,,,,,,,,,7,0,7,0,1
,1.51,,,,,,,,,f.PNG,f,6123437590813a40d1fad393,2021-10-19_12h46.05.226,forced_choiceRT,2021.1.2,Linux x86_64,59.98440405,,,,,,,,9,Fast,g,0,1.8586,0,0,0,0,1,,,,,
,0.65,,,,,,,,,f.PNG,f,6123437590813a40d1fad393,2021-10-19_12h46.05.226,forced_choiceRT,2021.1.2,Linux x86_64,59.98440405,,,,,,,,9,Ontime,f,1,2.0003,0,1,1,0,1,,,,,
,0.5,,,,,,,,,j.PNG,j,6123437590813a40d1fad393,2021-10-19_12h46.05.226,forced_choiceRT,2021.1.2,Linux x86_64,59.98440405,,,,,,,,9,Ontime,j,1,2.0692,0,2,2,3,1,,,,,
,1.99,,,,,,,,,h.PNG,h,6123437590813a40d1fad393,2021-10-19_12h46.05.226,forced_choiceRT,2021.1.2,Linux x86_64,59.98440405,,,,,,,,9,Ontime,h,1,2.0673,0,3,3,2,1,,,,,
,1.44,,,,,,,,,h.PNG,h,6123437590813a40d1fad393,2021-10-19_12h46.05.226,forced_choiceRT,2021.1.2,Linux x86_64,59.98440405,,,,,,,,9,Slow,h,1,2.2512,1,0,4,2,1,,,,,
,1.67,,,,,,,,,g.PNG,g,6123437590813a40d1fad393,2021-10-19_12h46.05.226,forced_choiceRT,2021.1.2,Linux x86_64,59.98440405,,,,,,,,9,Ontime,h,0,2.0497,1,1,5,1,1,,,,,
,0.06,,,,,,,,,h.PNG,h,6123437590813a40d1fad393,2021-10-19_12h46.05.226,forced_choiceRT,2021.1.2,Linux x86_64,59.98440405,,,,,,,,9,Ontime,h,1,2.0155,1,2,6,2,1,,,,,
,1.73,,,,,,,,,f.PNG,f,6123437590813a40d1fad393,2021-10-19_12h46.05.226,forced_choiceRT,2021.1.2,Linux x86_64,59.98440405,,,,,,,,9,Ontime,h,0,2.0015,1,3,7,0,1,,,,,
,1.4,,,,,,,,,j.PNG,j,6123437590813a40d1fad393,2021-10-19_12h46.05.226,forced_choiceRT,2021.1.2,Linux x86_64,59.98440405,,,,,,,,9,Ontime,j,1,2.0677,2,0,8,3,1,,,,,
,0.29,,,,,,,,,j.PNG,j,6123437590813a40d1fad393,2021-10-19_12h46.05.226,forced_choiceRT,2021.1.2,Linux x86_64,59.98440405,,,,,,,,9,Ontime,j,1,2.0508,2,1,9,3,1,,,,,
,1.77,,,,,,,,,j.PNG,j,6123437590813a40d1fad393,2021-10-19_12h46.05.226,forced_choiceRT,2021.1.2,Linux x86_64,59.98440405,,,,,,,,9,Ontime,g,0,1.9175,2,2,10,3,1,,,,,
,1.06,,,,,,,,,g.PNG,g,6123437590813a40d1fad393,2021-10-19_12h46.05.226,forced_choiceRT,2021.1.2,Linux x86_64,59.98440405,,,,,,,,9,Slow,g,1,2.1993,2,3,11,1,1,,,,,
,1.33,,,,,,,,,h.PNG,h,6123437590813a40d1fad393,2021-10-19_12h46.05.226,forced_choiceRT,2021.1.2,Linux x86_64,59.98440405,,,,,,,,9,Ontime,g,0,1.9332,3,0,12,2,1,,,,,
,1.41,,,,,,,,,j.PNG,j,6123437590813a40d1fad393,2021-10-19_12h46.05.226,forced_choiceRT,2021.1.2,Linux x86_64,59.98440405,,,,,,,,9,Ontime,g,0,2.0809,3,1,13,3,1,,,,,
,0.97,,,,,,,,,h.PNG,h,6123437590813a40d1fad393,2021-10-19_12h46.05.226,forced_choiceRT,2021.1.2,Linux x86_64,59.98440405,,,,,,,,9,Slow,h,1,2.1526,3,2,14,2,1,,,,,
,0.89,,,,,,,,,f.PNG,f,6123437590813a40d1fad393,2021-10-19_12h46.05.226,forced_choiceRT,2021.1.2,Linux x86_64,59.98440405,,,,,,,,9,Ontime,f,1,2.0998,3,3,15,0,1,,,,,
,0.25,,,,,,,,,g.PNG,g,6123437590813a40d1fad393,2021-10-19_12h46.05.226,forced_choiceRT,2021.1.2,Linux x86_64,59.98440405,,,,,,,,9,Ontime,g,1,1.9876,4,0,16,1,1,,,,,
,1.81,,,,,,,,,h.PNG,h,6123437590813a40d1fad393,2021-10-19_12h46.05.226,forced_choiceRT,2021.1.2,Linux x86_64,59.98440405,,,,,,,,9,Slow,g,0,2.1832,4,1,17,2,1,,,,,
,0.55,,,,,,,,,g.PNG,g,6123437590813a40d1fad393,2021-10-19_12h46.05.226,forced_choiceRT,2021.1.2,Linux x86_64,59.98440405,,,,,,,,9,Fast,g,1,1.7878,4,2,18,1,1,,,,,
,0.03,,,,,,,,,g.PNG,g,6123437590813a40d1fad393,2021-10-19_12h46.05.226,forced_choiceRT,2021.1.2,Linux x86_64,59.98440405,,,,,,,,9,Ontime,g,1,2.0208,4,3,19,1,1,,,,,
,0.03,,,,,,,,,h.PNG,h,6123437590813a40d1fad393,2021-10-19_12h46.05.226,forced_choiceRT,2021.1.2,Linux x86_64,59.98440405,,,,,,,,9,Ontime,h,1,1.9835,5,0,20,2,1,,,,,
,1.19,,,,,,,,,h.PNG,h,6123437590813a40d1fad393,2021-10-19_12h46.05.226,forced_choiceRT,2021.1.2,Linux x86_64,59.98440405,,,,,,,,9,Ontime,h,1,2.0549,5,1,21,2,1,,,,,
,0.56,,,,,,,,,f.PNG,f,6123437590813a40d1fad393,2021-10-19_12h46.05.226,forced_choiceRT,2021.1.2,Linux x86_64,59.98440405,,,,,,,,9,Ontime,f,1,2.0504,5,2,22,0,1,,,,,
,0.21,,,,,,,,,g.PNG,g,6123437590813a40d1fad393,2021-10-19_12h46.05.226,forced_choiceRT,2021.1.2,Linux x86_64,59.98440405,,,,,,,,9,Ontime,g,1,2.0152,5,3,23,1,1,,,,,
,0.17,,,,,,,,,f.PNG,f,6123437590813a40d1fad393,2021-10-19_12h46.05.226,forced_choiceRT,2021.1.2,Linux x86_64,59.98440405,,,,,,,,9,Slow,f,1,2.1007,6,0,24,0,1,,,,,
,1.23,,,,,,,,,g.PNG,g,6123437590813a40d1fad393,2021-10-19_12h46.05.226,forced_choiceRT,2021.1.2,Linux x86_64,59.98440405,,,,,,,,9,Ontime,g,1,1.9997,6,1,25,1,1,,,,,
,1.86,,,,,,,,,f.PNG,f,6123437590813a40d1fad393,2021-10-19_12h46.05.226,forced_choiceRT,2021.1.2,Linux x86_64,59.98440405,,,,,,,,9,Ontime,h,0,1.9021,6,2,26,0,1,,,,,
,0.52,,,,,,,,,h.PNG,h,6123437590813a40d1fad393,2021-10-19_12h46.05.226,forced_choiceRT,2021.1.2,Linux x86_64,59.98440405,,,,,,,,9,Ontime,h,1,2.0564,6,3,27,2,1,,,,,
,1.49,,,,,,,,,j.PNG,j,6123437590813a40d1fad393,2021-10-19_12h46.05.226,forced_choiceRT,2021.1.2,Linux x86_64,59.98440405,,,,,,,,9,Ontime,j,1,2.0807,7,0,28,3,1,,,,,
,0.07,,,,,,,,,f.PNG,f,6123437590813a40d1fad393,2021-10-19_12h46.05.226,forced_choiceRT,2021.1.2,Linux x86_64,59.98440405,,,,,,,,9,Ontime,f,1,2.0513,7,1,29,0,1,,,,,
,0.4,,,,,,,,,h.PNG,h,6123437590813a40d1fad393,2021-10-19_12h46.05.226,forced_choiceRT,2021.1.2,Linux x86_64,59.98440405,,,,,,,,9,Ontime,h,1,1.9296,7,2,30,2,1,,,,,
,0.69,,,,,,,,,j.PNG,j,6123437590813a40d1fad393,2021-10-19_12h46.05.226,forced_choiceRT,2021.1.2,Linux x86_64,59.98440405,,,,,,,,9,Slow,j,1,2.2988,7,3,31,3,1,,,,,
,0.6,,,,,,,,,f.PNG,f,6123437590813a40d1fad393,2021-10-19_12h46.05.226,forced_choiceRT,2021.1.2,Linux x86_64,59.98440405,,,,,,,,9,Ontime,f,1,2.0013,8,0,32,0,1,,,,,
,0.5,,,,,,,,,g.PNG,g,6123437590813a40d1fad393,2021-10-19_12h46.05.226,forced_choiceRT,2021.1.2,Linux x86_64,59.98440405,,,,,,,,9,Fast,g,1,1.8548,8,1,33,1,1,,,,,
,1.88,,,,,,,,,j.PNG,j,6123437590813a40d1fad393,2021-10-19_12h46.05.226,forced_choiceRT,2021.1.2,Linux x86_64,59.98440405,,,,,,,,9,Slow,h,0,2.2176,8,2,34,3,1,,,,,
,1.82,,,,,,,,,g.PNG,g,6123437590813a40d1fad393,2021-10-19_12h46.05.226,forced_choiceRT,2021.1.2,Linux x86_64,59.98440405,,,,,,,,9,Slow,g,1,2.2726,8,3,35,1,1,,,,,
,1.2,,,,,,,,,f.PNG,f,6123437590813a40d1fad393,2021-10-19_12h46.05.226,forced_choiceRT,2021.1.2,Linux x86_64,59.98440405,,,,,,,,9,Slow,f,1,2.1839,9,0,36,0,1,,,,,
,1.92,,,,,,,,,j.PNG,j,6123437590813a40d1fad393,2021-10-19_12h46.05.226,forced_choiceRT,2021.1.2,Linux x86_64,59.98440405,,,,,,,,9,Ontime,f,0,1.9163,9,1,37,3,1,,,,,
,1.56,,,,,,,,,g.PNG,g,6123437590813a40d1fad393,2021-10-19_12h46.05.226,forced_choiceRT,2021.1.2,Linux x86_64,59.98440405,,,,,,,,9,Fast,g,1,1.802,9,2,38,1,1,,,,,
,1.52,,,,,,,,,j.PNG,j,6123437590813a40d1fad393,2021-10-19_12h46.05.226,forced_choiceRT,2021.1.2,Linux x86_64,59.98440405,,,,,,,,9,Slow,j,1,2.2681,9,3,39,3,1,,,,,
,,,,,,,,,,,,6123437590813a40d1fad393,2021-10-19_12h46.05.226,forced_choiceRT,2021.1.2,Linux x86_64,59.98440405,,,,,,,,,,,,,,,,,,8,0,8,0,1
,1.67,,,,,,,,,h.PNG,h,6123437590813a40d1fad393,2021-10-19_12h46.05.226,forced_choiceRT,2021.1.2,Linux x86_64,59.98440405,,,,,,,,10,Fast,h,1,1.7817,0,0,0,2,1,,,,,
,1.33,,,,,,,,,f.PNG,f,6123437590813a40d1fad393,2021-10-19_12h46.05.226,forced_choiceRT,2021.1.2,Linux x86_64,59.98440405,,,,,,,,10,Ontime,g,0,1.9168,0,1,1,0,1,,,,,
,1.81,,,,,,,,,j.PNG,j,6123437590813a40d1fad393,2021-10-19_12h46.05.226,forced_choiceRT,2021.1.2,Linux x86_64,59.98440405,,,,,,,,10,Ontime,h,0,2.051,0,2,2,3,1,,,,,
,0.46,,,,,,,,,h.PNG,h,6123437590813a40d1fad393,2021-10-19_12h46.05.226,forced_choiceRT,2021.1.2,Linux x86_64,59.98440405,,,,,,,,10,Ontime,h,1,1.984,0,3,3,2,1,,,,,
,1.02,,,,,,,,,g.PNG,g,6123437590813a40d1fad393,2021-10-19_12h46.05.226,forced_choiceRT,2021.1.2,Linux x86_64,59.98440405,,,,,,,,10,Ontime,g,1,2.0183,1,0,4,1,1,,,,,
,1.35,,,,,,,,,h.PNG,h,6123437590813a40d1fad393,2021-10-19_12h46.05.226,forced_choiceRT,2021.1.2,Linux x86_64,59.98440405,,,,,,,,10,Ontime,f,0,1.9718,1,1,5,2,1,,,,,
,1.79,,,,,,,,,g.PNG,g,6123437590813a40d1fad393,2021-10-19_12h46.05.226,forced_choiceRT,2021.1.2,Linux x86_64,59.98440405,,,,,,,,10,Fast,h,0,1.7877,1,2,6,1,1,,,,,
,0.82,,,,,,,,,f.PNG,f,6123437590813a40d1fad393,2021-10-19_12h46.05.226,forced_choiceRT,2021.1.2,Linux x86_64,59.98440405,,,,,,,,10,Ontime,f,1,2.0337,1,3,7,0,1,,,,,
,0.3,,,,,,,,,j.PNG,j,6123437590813a40d1fad393,2021-10-19_12h46.05.226,forced_choiceRT,2021.1.2,Linux x86_64,59.98440405,,,,,,,,10,Ontime,j,1,1.9989,2,0,8,3,1,,,,,
,1.76,,,,,,,,,g.PNG,g,6123437590813a40d1fad393,2021-10-19_12h46.05.226,forced_choiceRT,2021.1.2,Linux x86_64,59.98440405,,,,,,,,10,Ontime,h,0,1.9854,2,1,9,1,1,,,,,
,0.65,,,,,,,,,g.PNG,g,6123437590813a40d1fad393,2021-10-19_12h46.05.226,forced_choiceRT,2021.1.2,Linux x86_64,59.98440405,,,,,,,,10,Ontime,g,1,2.0348,2,2,10,1,1,,,,,
,1.34,,,,,,,,,j.PNG,j,6123437590813a40d1fad393,2021-10-19_12h46.05.226,forced_choiceRT,2021.1.2,Linux x86_64,59.98440405,,,,,,,,10,Ontime,j,1,2.0174,2,3,11,3,1,,,,,
,1.92,,,,,,,,,f.PNG,f,6123437590813a40d1fad393,2021-10-19_12h46.05.226,forced_choiceRT,2021.1.2,Linux x86_64,59.98440405,,,,,,,,10,Ontime,g,0,2.0771,3,0,12,0,1,,,,,
,0.48,,,,,,,,,f.PNG,f,6123437590813a40d1fad393,2021-10-19_12h46.05.226,forced_choiceRT,2021.1.2,Linux x86_64,59.98440405,,,,,,,,10,Ontime,f,1,2.0001,3,1,13,0,1,,,,,
,1.88,,,,,,,,,f.PNG,f,6123437590813a40d1fad393,2021-10-19_12h46.05.226,forced_choiceRT,2021.1.2,Linux x86_64,59.98440405,,,,,,,,10,Ontime,h,0,1.9832,3,2,14,0,1,,,,,
,0.76,,,,,,,,,h.PNG,h,6123437590813a40d1fad393,2021-10-19_12h46.05.226,forced_choiceRT,2021.1.2,Linux x86_64,59.98440405,,,,,,,,10,Ontime,h,1,1.9355,3,3,15,2,1,,,,,
,1.34,,,,,,,,,g.PNG,g,6123437590813a40d1fad393,2021-10-19_12h46.05.226,forced_choiceRT,2021.1.2,Linux x86_64,59.98440405,,,,,,,,10,Ontime,g,1,2,4,0,16,1,1,,,,,
,1.49,,,,,,,,,j.PNG,j,6123437590813a40d1fad393,2021-10-19_12h46.05.226,forced_choiceRT,2021.1.2,Linux x86_64,59.98440405,,,,,,,,10,Slow,j,1,2.1565,4,1,17,3,1,,,,,
,1.58,,,,,,,,,h.PNG,h,6123437590813a40d1fad393,2021-10-19_12h46.05.226,forced_choiceRT,2021.1.2,Linux x86_64,59.98440405,,,,,,,,10,Slow,h,1,2.133,4,2,18,2,1,,,,,
,1.79,,,,,,,,,j.PNG,j,6123437590813a40d1fad393,2021-10-19_12h46.05.226,forced_choiceRT,2021.1.2,Linux x86_64,59.98440405,,,,,,,,10,Ontime,h,0,1.9198,4,3,19,3,1,,,,,
,0.39,,,,,,,,,f.PNG,f,6123437590813a40d1fad393,2021-10-19_12h46.05.226,forced_choiceRT,2021.1.2,Linux x86_64,59.98440405,,,,,,,,10,Slow,f,1,2.1494,5,0,20,0,1,,,,,
,0.74,,,,,,,,,g.PNG,g,6123437590813a40d1fad393,2021-10-19_12h46.05.226,forced_choiceRT,2021.1.2,Linux x86_64,59.98440405,,,,,,,,10,Ontime,g,1,1.9696,5,1,21,1,1,,,,,
,1.49,,,,,,,,,g.PNG,g,6123437590813a40d1fad393,2021-10-19_12h46.05.226,forced_choiceRT,2021.1.2,Linux x86_64,59.98440405,,,,,,,,10,Fast,f,0,1.7501,5,2,22,1,1,,,,,
,0.65,,,,,,,,,g.PNG,g,6123437590813a40d1fad393,2021-10-19_12h46.05.226,forced_choiceRT,2021.1.2,Linux x86_64,59.98440405,,,,,,,,10,Ontime,g,1,2.0671,5,3,23,1,1,,,,,
,1.09,,,,,,,,,f.PNG,f,6123437590813a40d1fad393,2021-10-19_12h46.05.226,forced_choiceRT,2021.1.2,Linux x86_64,59.98440405,,,,,,,,10,Fast,f,1,1.8833,6,0,24,0,1,,,,,
,1.67,,,,,,,,,g.PNG,g,6123437590813a40d1fad393,2021-10-19_12h46.05.226,forced_choiceRT,2021.1.2,Linux x86_64,59.98440405,,,,,,,,10,Ontime,f,0,2.0337,6,1,25,1,1,,,,,
,1.05,,,,,,,,,j.PNG,j,6123437590813a40d1fad393,2021-10-19_12h46.05.226,forced_choiceRT,2021.1.2,Linux x86_64,59.98440405,,,,,,,,10,Slow,j,1,2.2028,6,2,26,3,1,,,,,
,0.71,,,,,,,,,f.PNG,f,6123437590813a40d1fad393,2021-10-19_12h46.05.226,forced_choiceRT,2021.1.2,Linux x86_64,59.98440405,,,,,,,,10,Fast,f,1,1.867,6,3,27,0,1,,,,,
,0.13,,,,,,,,,f.PNG,f,6123437590813a40d1fad393,2021-10-19_12h46.05.226,forced_choiceRT,2021.1.2,Linux x86_64,59.98440405,,,,,,,,10,Ontime,f,1,2.0379,7,0,28,0,1,,,,,
,1.61,,,,,,,,,j.PNG,j,6123437590813a40d1fad393,2021-10-19_12h46.05.226,forced_choiceRT,2021.1.2,Linux x86_64,59.98440405,,,,,,,,10,Ontime,h,0,2.0341,7,1,29,3,1,,,,,
,0.26,,,,,,,,,j.PNG,j,6123437590813a40d1fad393,2021-10-19_12h46.05.226,forced_choiceRT,2021.1.2,Linux x86_64,59.98440405,,,,,,,,10,Ontime,j,1,2.0332,7,2,30,3,1,,,,,
,0.06,,,,,,,,,j.PNG,j,6123437590813a40d1fad393,2021-10-19_12h46.05.226,forced_choiceRT,2021.1.2,Linux x86_64,59.98440405,,,,,,,,10,Fast,j,1,1.851,7,3,31,3,1,,,,,
,1.65,,,,,,,,,f.PNG,f,6123437590813a40d1fad393,2021-10-19_12h46.05.226,forced_choiceRT,2021.1.2,Linux x86_64,59.98440405,,,,,,,,10,Slow,g,0,2.2663,8,0,32,0,1,,,,,
,0.06,,,,,,,,,j.PNG,j,6123437590813a40d1fad393,2021-10-19_12h46.05.226,forced_choiceRT,2021.1.2,Linux x86_64,59.98440405,,,,,,,,10,Ontime,j,1,2.0497,8,1,33,3,1,,,,,
,0.2,,,,,,,,,g.PNG,g,6123437590813a40d1fad393,2021-10-19_12h46.05.226,forced_choiceRT,2021.1.2,Linux x86_64,59.98440405,,,,,,,,10,Ontime,g,1,2.0989,8,2,34,1,1,,,,,
,0.13,,,,,,,,,h.PNG,h,6123437590813a40d1fad393,2021-10-19_12h46.05.226,forced_choiceRT,2021.1.2,Linux x86_64,59.98440405,,,,,,,,10,Fast,h,1,1.8842,8,3,35,2,1,,,,,
,1.16,,,,,,,,,h.PNG,h,6123437590813a40d1fad393,2021-10-19_12h46.05.226,forced_choiceRT,2021.1.2,Linux x86_64,59.98440405,,,,,,,,10,Ontime,h,1,2.0678,9,0,36,2,1,,,,,
,1.17,,,,,,,,,h.PNG,h,6123437590813a40d1fad393,2021-10-19_12h46.05.226,forced_choiceRT,2021.1.2,Linux x86_64,59.98440405,,,,,,,,10,Ontime,h,1,2.0881,9,1,37,2,1,,,,,
,0.58,,,,,,,,,h.PNG,h,6123437590813a40d1fad393,2021-10-19_12h46.05.226,forced_choiceRT,2021.1.2,Linux x86_64,59.98440405,,,,,,,,10,Ontime,h,1,2.0834,9,2,38,2,1,,,,,
,0.19,,,,,,,,,h.PNG,h,6123437590813a40d1fad393,2021-10-19_12h46.05.226,forced_choiceRT,2021.1.2,Linux x86_64,59.98440405,,,,,,,,10,Ontime,h,1,2.0036,9,3,39,2,1,,,,,
,,,,,,,,,,,,6123437590813a40d1fad393,2021-10-19_12h46.05.226,forced_choiceRT,2021.1.2,Linux x86_64,59.98440405,,,,,,,,,,,,,,,,,,9,0,9,0,1
