IP_Addresss,target_onset,trial_resp_sp.keys,trial_resp_sp.corr,trial_resp_sp.rt,trials_train_loop.thisRepN,trials_train_loop.thisTrialN,trials_train_loop.thisN,trials_train_loop.thisIndex,trials_train_loop.ran,pic,correct_key,participant,date,expName,psychopyVersion,OS,frameRate,trial_resp_timing.keys,trial_resp_timing.rt,trials_train_timing.thisRepN,trials_train_timing.thisTrialN,trials_train_timing.thisN,trials_train_timing.thisIndex,trials_train_timing.ran,block_id,ontime,forcedRT_resp.keys,forcedRT_resp.corr,forcedRT_resp.rt,trials.thisRepN,trials.thisTrialN,trials.thisN,trials.thisIndex,trials.ran,blocks.thisRepN,blocks.thisTrialN,blocks.thisN,blocks.thisIndex,blocks.ran
174.52.217.14,0,f,1,1.7018,0,0,0,0,1,f.PNG,f,6126ad6624eb5fa24cc7eacb,2021-10-19_13h45.36.357,forced_choiceRT,2021.1.2,Win32,30.01020347,,,,,,,,,,,,,,,,,,,,,,
,0,f,1,0.9067,0,1,1,0,1,f.PNG,f,6126ad6624eb5fa24cc7eacb,2021-10-19_13h45.36.357,forced_choiceRT,2021.1.2,Win32,30.01020347,,,,,,,,,,,,,,,,,,,,,,
,0,f,1,0.701,0,2,2,0,1,f.PNG,f,6126ad6624eb5fa24cc7eacb,2021-10-19_13h45.36.357,forced_choiceRT,2021.1.2,Win32,30.01020347,,,,,,,,,,,,,,,,,,,,,,
,0,h,1,1.4071,0,3,3,2,1,h.PNG,h,6126ad6624eb5fa24cc7eacb,2021-10-19_13h45.36.357,forced_choiceRT,2021.1.2,Win32,30.01020347,,,,,,,,,,,,,,,,,,,,,,
,0,j,1,0.9021,1,0,4,3,1,j.PNG,j,6126ad6624eb5fa24cc7eacb,2021-10-19_13h45.36.357,forced_choiceRT,2021.1.2,Win32,30.01020347,,,,,,,,,,,,,,,,,,,,,,
,0,f,1,0.8074,1,1,5,0,1,f.PNG,f,6126ad6624eb5fa24cc7eacb,2021-10-19_13h45.36.357,forced_choiceRT,2021.1.2,Win32,30.01020347,,,,,,,,,,,,,,,,,,,,,,
,0,f,1,0.8043,1,2,6,0,1,f.PNG,f,6126ad6624eb5fa24cc7eacb,2021-10-19_13h45.36.357,forced_choiceRT,2021.1.2,Win32,30.01020347,,,,,,,,,,,,,,,,,,,,,,
,0,f,1,0.7005,1,3,7,0,1,f.PNG,f,6126ad6624eb5fa24cc7eacb,2021-10-19_13h45.36.357,forced_choiceRT,2021.1.2,Win32,30.01020347,,,,,,,,,,,,,,,,,,,,,,
,0,h,1,1.4843,2,0,8,2,1,h.PNG,h,6126ad6624eb5fa24cc7eacb,2021-10-19_13h45.36.357,forced_choiceRT,2021.1.2,Win32,30.01020347,,,,,,,,,,,,,,,,,,,,,,
,0,g,1,1.0393,2,1,9,1,1,g.PNG,g,6126ad6624eb5fa24cc7eacb,2021-10-19_13h45.36.357,forced_choiceRT,2021.1.2,Win32,30.01020347,,,,,,,,,,,,,,,,,,,,,,
,0,f,1,0.8683,2,2,10,0,1,f.PNG,f,6126ad6624eb5fa24cc7eacb,2021-10-19_13h45.36.357,forced_choiceRT,2021.1.2,Win32,30.01020347,,,,,,,,,,,,,,,,,,,,,,
,0,g,1,0.8333,2,3,11,1,1,g.PNG,g,6126ad6624eb5fa24cc7eacb,2021-10-19_13h45.36.357,forced_choiceRT,2021.1.2,Win32,30.01020347,,,,,,,,,,,,,,,,,,,,,,
,0,g,1,0.7674,3,0,12,1,1,g.PNG,g,6126ad6624eb5fa24cc7eacb,2021-10-19_13h45.36.357,forced_choiceRT,2021.1.2,Win32,30.01020347,,,,,,,,,,,,,,,,,,,,,,
,0,f,1,0.7335,3,1,13,0,1,f.PNG,f,6126ad6624eb5fa24cc7eacb,2021-10-19_13h45.36.357,forced_choiceRT,2021.1.2,Win32,30.01020347,,,,,,,,,,,,,,,,,,,,,,
,0,j,1,0.8439,3,2,14,3,1,j.PNG,j,6126ad6624eb5fa24cc7eacb,2021-10-19_13h45.36.357,forced_choiceRT,2021.1.2,Win32,30.01020347,,,,,,,,,,,,,,,,,,,,,,
,0,g,1,1.233,3,3,15,1,1,g.PNG,g,6126ad6624eb5fa24cc7eacb,2021-10-19_13h45.36.357,forced_choiceRT,2021.1.2,Win32,30.01020347,,,,,,,,,,,,,,,,,,,,,,
,0,h,1,1.0203,4,0,16,2,1,h.PNG,h,6126ad6624eb5fa24cc7eacb,2021-10-19_13h45.36.357,forced_choiceRT,2021.1.2,Win32,30.01020347,,,,,,,,,,,,,,,,,,,,,,
,0,j,1,0.8001,4,1,17,3,1,j.PNG,j,6126ad6624eb5fa24cc7eacb,2021-10-19_13h45.36.357,forced_choiceRT,2021.1.2,Win32,30.01020347,,,,,,,,,,,,,,,,,,,,,,
,0,h,1,0.9673,4,2,18,2,1,h.PNG,h,6126ad6624eb5fa24cc7eacb,2021-10-19_13h45.36.357,forced_choiceRT,2021.1.2,Win32,30.01020347,,,,,,,,,,,,,,,,,,,,,,
,0,j,1,0.7332,4,3,19,3,1,j.PNG,j,6126ad6624eb5fa24cc7eacb,2021-10-19_13h45.36.357,forced_choiceRT,2021.1.2,Win32,30.01020347,,,,,,,,,,,,,,,,,,,,,,
,0,h,1,1.0661,5,0,20,2,1,h.PNG,h,6126ad6624eb5fa24cc7eacb,2021-10-19_13h45.36.357,forced_choiceRT,2021.1.2,Win32,30.01020347,,,,,,,,,,,,,,,,,,,,,,
,0,h,1,0.7721,5,1,21,2,1,h.PNG,h,6126ad6624eb5fa24cc7eacb,2021-10-19_13h45.36.357,forced_choiceRT,2021.1.2,Win32,30.01020347,,,,,,,,,,,,,,,,,,,,,,
,0,j,1,0.7474,5,2,22,3,1,j.PNG,j,6126ad6624eb5fa24cc7eacb,2021-10-19_13h45.36.357,forced_choiceRT,2021.1.2,Win32,30.01020347,,,,,,,,,,,,,,,,,,,,,,
,0,h,1,0.7318,5,3,23,2,1,h.PNG,h,6126ad6624eb5fa24cc7eacb,2021-10-19_13h45.36.357,forced_choiceRT,2021.1.2,Win32,30.01020347,,,,,,,,,,,,,,,,,,,,,,
,0,g,1,0.7793,6,0,24,1,1,g.PNG,g,6126ad6624eb5fa24cc7eacb,2021-10-19_13h45.36.357,forced_choiceRT,2021.1.2,Win32,30.01020347,,,,,,,,,,,,,,,,,,,,,,
,0,g,1,0.7393,6,1,25,1,1,g.PNG,g,6126ad6624eb5fa24cc7eacb,2021-10-19_13h45.36.357,forced_choiceRT,2021.1.2,Win32,30.01020347,,,,,,,,,,,,,,,,,,,,,,
,0,g,1,0.6824,6,2,26,1,1,g.PNG,g,6126ad6624eb5fa24cc7eacb,2021-10-19_13h45.36.357,forced_choiceRT,2021.1.2,Win32,30.01020347,,,,,,,,,,,,,,,,,,,,,,
,0,h,1,0.8672,6,3,27,2,1,h.PNG,h,6126ad6624eb5fa24cc7eacb,2021-10-19_13h45.36.357,forced_choiceRT,2021.1.2,Win32,30.01020347,,,,,,,,,,,,,,,,,,,,,,
,0,f,1,0.9666,7,0,28,0,1,f.PNG,f,6126ad6624eb5fa24cc7eacb,2021-10-19_13h45.36.357,forced_choiceRT,2021.1.2,Win32,30.01020347,,,,,,,,,,,,,,,,,,,,,,
,0,f,1,0.7004,7,1,29,0,1,f.PNG,f,6126ad6624eb5fa24cc7eacb,2021-10-19_13h45.36.357,forced_choiceRT,2021.1.2,Win32,30.01020347,,,,,,,,,,,,,,,,,,,,,,
,0,j,1,0.8332,7,2,30,3,1,j.PNG,j,6126ad6624eb5fa24cc7eacb,2021-10-19_13h45.36.357,forced_choiceRT,2021.1.2,Win32,30.01020347,,,,,,,,,,,,,,,,,,,,,,
,0,g,1,0.8656,7,3,31,1,1,g.PNG,g,6126ad6624eb5fa24cc7eacb,2021-10-19_13h45.36.357,forced_choiceRT,2021.1.2,Win32,30.01020347,,,,,,,,,,,,,,,,,,,,,,
,0,g,1,0.8662,8,0,32,1,1,g.PNG,g,6126ad6624eb5fa24cc7eacb,2021-10-19_13h45.36.357,forced_choiceRT,2021.1.2,Win32,30.01020347,,,,,,,,,,,,,,,,,,,,,,
,0,j,1,1.685,8,1,33,3,1,j.PNG,j,6126ad6624eb5fa24cc7eacb,2021-10-19_13h45.36.357,forced_choiceRT,2021.1.2,Win32,30.01020347,,,,,,,,,,,,,,,,,,,,,,
,0,h,1,0.8004,8,2,34,2,1,h.PNG,h,6126ad6624eb5fa24cc7eacb,2021-10-19_13h45.36.357,forced_choiceRT,2021.1.2,Win32,30.01020347,,,,,,,,,,,,,,,,,,,,,,
,0,h,1,1.3681,8,3,35,2,1,h.PNG,h,6126ad6624eb5fa24cc7eacb,2021-10-19_13h45.36.357,forced_choiceRT,2021.1.2,Win32,30.01020347,,,,,,,,,,,,,,,,,,,,,,
,0,f,1,0.749,9,0,36,0,1,f.PNG,f,6126ad6624eb5fa24cc7eacb,2021-10-19_13h45.36.357,forced_choiceRT,2021.1.2,Win32,30.01020347,,,,,,,,,,,,,,,,,,,,,,
,0,f,1,0.757,9,1,37,0,1,f.PNG,f,6126ad6624eb5fa24cc7eacb,2021-10-19_13h45.36.357,forced_choiceRT,2021.1.2,Win32,30.01020347,,,,,,,,,,,,,,,,,,,,,,
,0,j,1,0.8131,9,2,38,3,1,j.PNG,j,6126ad6624eb5fa24cc7eacb,2021-10-19_13h45.36.357,forced_choiceRT,2021.1.2,Win32,30.01020347,,,,,,,,,,,,,,,,,,,,,,
,0,h,1,1.1336,9,3,39,2,1,h.PNG,h,6126ad6624eb5fa24cc7eacb,2021-10-19_13h45.36.357,forced_choiceRT,2021.1.2,Win32,30.01020347,,,,,,,,,,,,,,,,,,,,,,
,0,g,1,0.7858,10,0,40,1,1,g.PNG,g,6126ad6624eb5fa24cc7eacb,2021-10-19_13h45.36.357,forced_choiceRT,2021.1.2,Win32,30.01020347,,,,,,,,,,,,,,,,,,,,,,
,0,f,1,0.7212,10,1,41,0,1,f.PNG,f,6126ad6624eb5fa24cc7eacb,2021-10-19_13h45.36.357,forced_choiceRT,2021.1.2,Win32,30.01020347,,,,,,,,,,,,,,,,,,,,,,
,0,h,1,1.3062,10,2,42,2,1,h.PNG,h,6126ad6624eb5fa24cc7eacb,2021-10-19_13h45.36.357,forced_choiceRT,2021.1.2,Win32,30.01020347,,,,,,,,,,,,,,,,,,,,,,
,0,g,1,0.8332,10,3,43,1,1,g.PNG,g,6126ad6624eb5fa24cc7eacb,2021-10-19_13h45.36.357,forced_choiceRT,2021.1.2,Win32,30.01020347,,,,,,,,,,,,,,,,,,,,,,
,0,g,1,1.0159,11,0,44,1,1,g.PNG,g,6126ad6624eb5fa24cc7eacb,2021-10-19_13h45.36.357,forced_choiceRT,2021.1.2,Win32,30.01020347,,,,,,,,,,,,,,,,,,,,,,
,0,j,1,0.8214,11,1,45,3,1,j.PNG,j,6126ad6624eb5fa24cc7eacb,2021-10-19_13h45.36.357,forced_choiceRT,2021.1.2,Win32,30.01020347,,,,,,,,,,,,,,,,,,,,,,
,0,g,1,0.8193,11,2,46,1,1,g.PNG,g,6126ad6624eb5fa24cc7eacb,2021-10-19_13h45.36.357,forced_choiceRT,2021.1.2,Win32,30.01020347,,,,,,,,,,,,,,,,,,,,,,
,0,j,1,1.2675,11,3,47,3,1,j.PNG,j,6126ad6624eb5fa24cc7eacb,2021-10-19_13h45.36.357,forced_choiceRT,2021.1.2,Win32,30.01020347,,,,,,,,,,,,,,,,,,,,,,
,0,h,1,0.7717,12,0,48,2,1,h.PNG,h,6126ad6624eb5fa24cc7eacb,2021-10-19_13h45.36.357,forced_choiceRT,2021.1.2,Win32,30.01020347,,,,,,,,,,,,,,,,,,,,,,
,0,j,1,0.8439,12,1,49,3,1,j.PNG,j,6126ad6624eb5fa24cc7eacb,2021-10-19_13h45.36.357,forced_choiceRT,2021.1.2,Win32,30.01020347,,,,,,,,,,,,,,,,,,,,,,
,0,h,1,1.0331,12,2,50,2,1,h.PNG,h,6126ad6624eb5fa24cc7eacb,2021-10-19_13h45.36.357,forced_choiceRT,2021.1.2,Win32,30.01020347,,,,,,,,,,,,,,,,,,,,,,
,0,j,1,0.7672,12,3,51,3,1,j.PNG,j,6126ad6624eb5fa24cc7eacb,2021-10-19_13h45.36.357,forced_choiceRT,2021.1.2,Win32,30.01020347,,,,,,,,,,,,,,,,,,,,,,
,0,g,1,0.8678,13,0,52,1,1,g.PNG,g,6126ad6624eb5fa24cc7eacb,2021-10-19_13h45.36.357,forced_choiceRT,2021.1.2,Win32,30.01020347,,,,,,,,,,,,,,,,,,,,,,
,0,j,1,0.9113,13,1,53,3,1,j.PNG,j,6126ad6624eb5fa24cc7eacb,2021-10-19_13h45.36.357,forced_choiceRT,2021.1.2,Win32,30.01020347,,,,,,,,,,,,,,,,,,,,,,
,0,g,1,0.8816,13,2,54,1,1,g.PNG,g,6126ad6624eb5fa24cc7eacb,2021-10-19_13h45.36.357,forced_choiceRT,2021.1.2,Win32,30.01020347,,,,,,,,,,,,,,,,,,,,,,
,0,f,1,0.7381,13,3,55,0,1,f.PNG,f,6126ad6624eb5fa24cc7eacb,2021-10-19_13h45.36.357,forced_choiceRT,2021.1.2,Win32,30.01020347,,,,,,,,,,,,,,,,,,,,,,
,0,h,1,0.8436,14,0,56,2,1,h.PNG,h,6126ad6624eb5fa24cc7eacb,2021-10-19_13h45.36.357,forced_choiceRT,2021.1.2,Win32,30.01020347,,,,,,,,,,,,,,,,,,,,,,
,0,f,1,0.776,14,1,57,0,1,f.PNG,f,6126ad6624eb5fa24cc7eacb,2021-10-19_13h45.36.357,forced_choiceRT,2021.1.2,Win32,30.01020347,,,,,,,,,,,,,,,,,,,,,,
,0,j,1,0.9008,14,2,58,3,1,j.PNG,j,6126ad6624eb5fa24cc7eacb,2021-10-19_13h45.36.357,forced_choiceRT,2021.1.2,Win32,30.01020347,,,,,,,,,,,,,,,,,,,,,,
,0,j,1,0.8663,14,3,59,3,1,j.PNG,j,6126ad6624eb5fa24cc7eacb,2021-10-19_13h45.36.357,forced_choiceRT,2021.1.2,Win32,30.01020347,,,,,,,,,,,,,,,,,,,,,,
,,,,,,,,,,,,6126ad6624eb5fa24cc7eacb,2021-10-19_13h45.36.357,forced_choiceRT,2021.1.2,Win32,30.01020347,f,2.3804,0,0,0,0,1,,,,,,,,,,,,,,,
,,,,,,,,,,,,6126ad6624eb5fa24cc7eacb,2021-10-19_13h45.36.357,forced_choiceRT,2021.1.2,Win32,30.01020347,f,2.2673,1,0,1,0,1,,,,,,,,,,,,,,,
,,,,,,,,,,,,6126ad6624eb5fa24cc7eacb,2021-10-19_13h45.36.357,forced_choiceRT,2021.1.2,Win32,30.01020347,h,2.1332,2,0,2,0,1,,,,,,,,,,,,,,,
,,,,,,,,,,,,6126ad6624eb5fa24cc7eacb,2021-10-19_13h45.36.357,forced_choiceRT,2021.1.2,Win32,30.01020347,h,2.1734,3,0,3,0,1,,,,,,,,,,,,,,,
,,,,,,,,,,,,6126ad6624eb5fa24cc7eacb,2021-10-19_13h45.36.357,forced_choiceRT,2021.1.2,Win32,30.01020347,h,2.1242,4,0,4,0,1,,,,,,,,,,,,,,,
,,,,,,,,,,,,6126ad6624eb5fa24cc7eacb,2021-10-19_13h45.36.357,forced_choiceRT,2021.1.2,Win32,30.01020347,g,2.1665,5,0,5,0,1,,,,,,,,,,,,,,,
,,,,,,,,,,,,6126ad6624eb5fa24cc7eacb,2021-10-19_13h45.36.357,forced_choiceRT,2021.1.2,Win32,30.01020347,h,2.0678,6,0,6,0,1,,,,,,,,,,,,,,,
,,,,,,,,,,,,6126ad6624eb5fa24cc7eacb,2021-10-19_13h45.36.357,forced_choiceRT,2021.1.2,Win32,30.01020347,h,2.1369,7,0,7,0,1,,,,,,,,,,,,,,,
,,,,,,,,,,,,6126ad6624eb5fa24cc7eacb,2021-10-19_13h45.36.357,forced_choiceRT,2021.1.2,Win32,30.01020347,g,2.0659,8,0,8,0,1,,,,,,,,,,,,,,,
,,,,,,,,,,,,6126ad6624eb5fa24cc7eacb,2021-10-19_13h45.36.357,forced_choiceRT,2021.1.2,Win32,30.01020347,h,2.1006,9,0,9,0,1,,,,,,,,,,,,,,,
,,,,,,,,,,,,6126ad6624eb5fa24cc7eacb,2021-10-19_13h45.36.357,forced_choiceRT,2021.1.2,Win32,30.01020347,h,2.2161,10,0,10,0,1,,,,,,,,,,,,,,,
,,,,,,,,,,,,6126ad6624eb5fa24cc7eacb,2021-10-19_13h45.36.357,forced_choiceRT,2021.1.2,Win32,30.01020347,h,2.1002,11,0,11,0,1,,,,,,,,,,,,,,,
,,,,,,,,,,,,6126ad6624eb5fa24cc7eacb,2021-10-19_13h45.36.357,forced_choiceRT,2021.1.2,Win32,30.01020347,h,2.0866,12,0,12,0,1,,,,,,,,,,,,,,,
,,,,,,,,,,,,6126ad6624eb5fa24cc7eacb,2021-10-19_13h45.36.357,forced_choiceRT,2021.1.2,Win32,30.01020347,g,2.1002,13,0,13,0,1,,,,,,,,,,,,,,,
,,,,,,,,,,,,6126ad6624eb5fa24cc7eacb,2021-10-19_13h45.36.357,forced_choiceRT,2021.1.2,Win32,30.01020347,g,2.1001,14,0,14,0,1,,,,,,,,,,,,,,,
,,,,,,,,,,,,6126ad6624eb5fa24cc7eacb,2021-10-19_13h45.36.357,forced_choiceRT,2021.1.2,Win32,30.01020347,f,2.0017,15,0,15,0,1,,,,,,,,,,,,,,,
,,,,,,,,,,,,6126ad6624eb5fa24cc7eacb,2021-10-19_13h45.36.357,forced_choiceRT,2021.1.2,Win32,30.01020347,j,2.0345,16,0,16,0,1,,,,,,,,,,,,,,,
,,,,,,,,,,,,6126ad6624eb5fa24cc7eacb,2021-10-19_13h45.36.357,forced_choiceRT,2021.1.2,Win32,30.01020347,g,1.8706,17,0,17,0,1,,,,,,,,,,,,,,,
,,,,,,,,,,,,6126ad6624eb5fa24cc7eacb,2021-10-19_13h45.36.357,forced_choiceRT,2021.1.2,Win32,30.01020347,h,2.0009,18,0,18,0,1,,,,,,,,,,,,,,,
,,,,,,,,,,,,6126ad6624eb5fa24cc7eacb,2021-10-19_13h45.36.357,forced_choiceRT,2021.1.2,Win32,30.01020347,j,2.1011,19,0,19,0,1,,,,,,,,,,,,,,,
,1.59,,,,,,,,,f.PNG,f,6126ad6624eb5fa24cc7eacb,2021-10-19_13h45.36.357,forced_choiceRT,2021.1.2,Win32,30.01020347,,,,,,,,1,Slow,g,0,2.277,0,0,0,0,1,,,,,
,0.46,,,,,,,,,f.PNG,f,6126ad6624eb5fa24cc7eacb,2021-10-19_13h45.36.357,forced_choiceRT,2021.1.2,Win32,30.01020347,,,,,,,,1,Ontime,f,1,2.085,0,1,1,0,1,,,,,
,1.77,,,,,,,,,f.PNG,f,6126ad6624eb5fa24cc7eacb,2021-10-19_13h45.36.357,forced_choiceRT,2021.1.2,Win32,30.01020347,,,,,,,,1,Slow,f,1,2.3307,0,2,2,0,1,,,,,
,0.07,,,,,,,,,h.PNG,h,6126ad6624eb5fa24cc7eacb,2021-10-19_13h45.36.357,forced_choiceRT,2021.1.2,Win32,30.01020347,,,,,,,,1,Slow,h,1,2.1344,0,3,3,2,1,,,,,
,1.2,,,,,,,,,h.PNG,h,6126ad6624eb5fa24cc7eacb,2021-10-19_13h45.36.357,forced_choiceRT,2021.1.2,Win32,30.01020347,,,,,,,,1,Slow,h,1,2.5342,1,0,4,2,1,,,,,
,0.94,,,,,,,,,f.PNG,f,6126ad6624eb5fa24cc7eacb,2021-10-19_13h45.36.357,forced_choiceRT,2021.1.2,Win32,30.01020347,,,,,,,,1,Slow,f,1,7.6194,1,1,5,0,1,,,,,
,1.43,,,,,,,,,j.PNG,j,6126ad6624eb5fa24cc7eacb,2021-10-19_13h45.36.357,forced_choiceRT,2021.1.2,Win32,30.01020347,,,,,,,,1,Slow,j,1,2.2336,1,2,6,3,1,,,,,
,1.58,,,,,,,,,h.PNG,h,6126ad6624eb5fa24cc7eacb,2021-10-19_13h45.36.357,forced_choiceRT,2021.1.2,Win32,30.01020347,,,,,,,,1,Slow,h,1,2.4375,1,3,7,2,1,,,,,
,1.82,,,,,,,,,f.PNG,f,6126ad6624eb5fa24cc7eacb,2021-10-19_13h45.36.357,forced_choiceRT,2021.1.2,Win32,30.01020347,,,,,,,,1,Slow,f,1,2.4092,2,0,8,0,1,,,,,
,0.73,,,,,,,,,j.PNG,j,6126ad6624eb5fa24cc7eacb,2021-10-19_13h45.36.357,forced_choiceRT,2021.1.2,Win32,30.01020347,,,,,,,,1,Ontime,j,1,2.0862,2,1,9,3,1,,,,,
,1.32,,,,,,,,,f.PNG,f,6126ad6624eb5fa24cc7eacb,2021-10-19_13h45.36.357,forced_choiceRT,2021.1.2,Win32,30.01020347,,,,,,,,1,Slow,f,1,2.1053,2,2,10,0,1,,,,,
,0.16,,,,,,,,,g.PNG,g,6126ad6624eb5fa24cc7eacb,2021-10-19_13h45.36.357,forced_choiceRT,2021.1.2,Win32,30.01020347,,,,,,,,1,Ontime,g,1,2.0684,2,3,11,1,1,,,,,
,1.03,,,,,,,,,f.PNG,f,6126ad6624eb5fa24cc7eacb,2021-10-19_13h45.36.357,forced_choiceRT,2021.1.2,Win32,30.01020347,,,,,,,,1,Ontime,f,1,2.0669,3,0,12,0,1,,,,,
,0.83,,,,,,,,,j.PNG,j,6126ad6624eb5fa24cc7eacb,2021-10-19_13h45.36.357,forced_choiceRT,2021.1.2,Win32,30.01020347,,,,,,,,1,Slow,j,1,2.1204,3,1,13,3,1,,,,,
,0,,,,,,,,,g.PNG,g,6126ad6624eb5fa24cc7eacb,2021-10-19_13h45.36.357,forced_choiceRT,2021.1.2,Win32,30.01020347,,,,,,,,1,Slow,g,1,2.1209,3,2,14,1,1,,,,,
,1.45,,,,,,,,,h.PNG,h,6126ad6624eb5fa24cc7eacb,2021-10-19_13h45.36.357,forced_choiceRT,2021.1.2,Win32,30.01020347,,,,,,,,1,Slow,h,1,2.1798,3,3,15,2,1,,,,,
,1.13,,,,,,,,,j.PNG,j,6126ad6624eb5fa24cc7eacb,2021-10-19_13h45.36.357,forced_choiceRT,2021.1.2,Win32,30.01020347,,,,,,,,1,Ontime,j,1,2.0894,4,0,16,3,1,,,,,
,1.22,,,,,,,,,f.PNG,f,6126ad6624eb5fa24cc7eacb,2021-10-19_13h45.36.357,forced_choiceRT,2021.1.2,Win32,30.01020347,,,,,,,,1,Slow,f,1,2.173,4,1,17,0,1,,,,,
,1.89,,,,,,,,,h.PNG,h,6126ad6624eb5fa24cc7eacb,2021-10-19_13h45.36.357,forced_choiceRT,2021.1.2,Win32,30.01020347,,,,,,,,1,Slow,g,0,2.3885,4,2,18,2,1,,,,,
,1.04,,,,,,,,,f.PNG,f,6126ad6624eb5fa24cc7eacb,2021-10-19_13h45.36.357,forced_choiceRT,2021.1.2,Win32,30.01020347,,,,,,,,1,Slow,f,1,2.1066,4,3,19,0,1,,,,,
,0.16,,,,,,,,,h.PNG,h,6126ad6624eb5fa24cc7eacb,2021-10-19_13h45.36.357,forced_choiceRT,2021.1.2,Win32,30.01020347,,,,,,,,1,Ontime,h,1,2.0668,5,0,20,2,1,,,,,
,0.39,,,,,,,,,j.PNG,j,6126ad6624eb5fa24cc7eacb,2021-10-19_13h45.36.357,forced_choiceRT,2021.1.2,Win32,30.01020347,,,,,,,,1,Slow,j,1,2.1023,5,1,21,3,1,,,,,
,0.06,,,,,,,,,g.PNG,g,6126ad6624eb5fa24cc7eacb,2021-10-19_13h45.36.357,forced_choiceRT,2021.1.2,Win32,30.01020347,,,,,,,,1,Slow,g,1,2.1002,5,2,22,1,1,,,,,
,0.03,,,,,,,,,h.PNG,h,6126ad6624eb5fa24cc7eacb,2021-10-19_13h45.36.357,forced_choiceRT,2021.1.2,Win32,30.01020347,,,,,,,,1,Ontime,h,1,2.0664,5,3,23,2,1,,,,,
,1.75,,,,,,,,,h.PNG,h,6126ad6624eb5fa24cc7eacb,2021-10-19_13h45.36.357,forced_choiceRT,2021.1.2,Win32,30.01020347,,,,,,,,1,Slow,f,0,2.2066,6,0,24,2,1,,,,,
,1.92,,,,,,,,,j.PNG,j,6126ad6624eb5fa24cc7eacb,2021-10-19_13h45.36.357,forced_choiceRT,2021.1.2,Win32,30.01020347,,,,,,,,1,Slow,j,1,3.2043,6,1,25,3,1,,,,,
,1.74,,,,,,,,,g.PNG,g,6126ad6624eb5fa24cc7eacb,2021-10-19_13h45.36.357,forced_choiceRT,2021.1.2,Win32,30.01020347,,,,,,,,1,Slow,g,1,2.402,6,2,26,1,1,,,,,
,0.52,,,,,,,,,g.PNG,g,6126ad6624eb5fa24cc7eacb,2021-10-19_13h45.36.357,forced_choiceRT,2021.1.2,Win32,30.01020347,,,,,,,,1,Ontime,g,1,2.0065,6,3,27,1,1,,,,,
,1.2,,,,,,,,,j.PNG,j,6126ad6624eb5fa24cc7eacb,2021-10-19_13h45.36.357,forced_choiceRT,2021.1.2,Win32,30.01020347,,,,,,,,1,Slow,j,1,2.1093,7,0,28,3,1,,,,,
,1.06,,,,,,,,,g.PNG,g,6126ad6624eb5fa24cc7eacb,2021-10-19_13h45.36.357,forced_choiceRT,2021.1.2,Win32,30.01020347,,,,,,,,1,Ontime,g,1,1.9894,7,1,29,1,1,,,,,
,0.92,,,,,,,,,h.PNG,h,6126ad6624eb5fa24cc7eacb,2021-10-19_13h45.36.357,forced_choiceRT,2021.1.2,Win32,30.01020347,,,,,,,,1,Ontime,h,1,1.9892,7,2,30,2,1,,,,,
,0.15,,,,,,,,,g.PNG,g,6126ad6624eb5fa24cc7eacb,2021-10-19_13h45.36.357,forced_choiceRT,2021.1.2,Win32,30.01020347,,,,,,,,1,Ontime,g,1,1.968,7,3,31,1,1,,,,,
,1.88,,,,,,,,,g.PNG,g,6126ad6624eb5fa24cc7eacb,2021-10-19_13h45.36.357,forced_choiceRT,2021.1.2,Win32,30.01020347,,,,,,,,1,Slow,h,0,2.5158,8,0,32,1,1,,,,,
,1.11,,,,,,,,,g.PNG,g,6126ad6624eb5fa24cc7eacb,2021-10-19_13h45.36.357,forced_choiceRT,2021.1.2,Win32,30.01020347,,,,,,,,1,Ontime,g,1,2.0529,8,1,33,1,1,,,,,
,1.56,,,,,,,,,j.PNG,j,6126ad6624eb5fa24cc7eacb,2021-10-19_13h45.36.357,forced_choiceRT,2021.1.2,Win32,30.01020347,,,,,,,,1,Slow,j,1,2.2658,8,2,34,3,1,,,,,
,1.93,,,,,,,,,h.PNG,h,6126ad6624eb5fa24cc7eacb,2021-10-19_13h45.36.357,forced_choiceRT,2021.1.2,Win32,30.01020347,,,,,,,,1,Slow,h,1,2.5466,8,3,35,2,1,,,,,
,0.89,,,,,,,,,j.PNG,j,6126ad6624eb5fa24cc7eacb,2021-10-19_13h45.36.357,forced_choiceRT,2021.1.2,Win32,30.01020347,,,,,,,,1,Slow,j,1,2.1001,9,0,36,3,1,,,,,
,1.1,,,,,,,,,f.PNG,f,6126ad6624eb5fa24cc7eacb,2021-10-19_13h45.36.357,forced_choiceRT,2021.1.2,Win32,30.01020347,,,,,,,,1,Slow,f,1,2.1164,9,1,37,0,1,,,,,
,0.41,,,,,,,,,g.PNG,g,6126ad6624eb5fa24cc7eacb,2021-10-19_13h45.36.357,forced_choiceRT,2021.1.2,Win32,30.01020347,,,,,,,,1,Ontime,g,1,2.0671,9,2,38,1,1,,,,,
,1.34,,,,,,,,,j.PNG,j,6126ad6624eb5fa24cc7eacb,2021-10-19_13h45.36.357,forced_choiceRT,2021.1.2,Win32,30.01020347,,,,,,,,1,Slow,j,1,2.1526,9,3,39,3,1,,,,,
,,,,,,,,,,,,6126ad6624eb5fa24cc7eacb,2021-10-19_13h45.36.357,forced_choiceRT,2021.1.2,Win32,30.01020347,,,,,,,,,,,,,,,,,,0,0,0,0,1
,0.01,,,,,,,,,j.PNG,j,6126ad6624eb5fa24cc7eacb,2021-10-19_13h45.36.357,forced_choiceRT,2021.1.2,Win32,30.01020347,,,,,,,,2,Ontime,j,1,2.0474,0,0,0,3,1,,,,,
,1.36,,,,,,,,,h.PNG,h,6126ad6624eb5fa24cc7eacb,2021-10-19_13h45.36.357,forced_choiceRT,2021.1.2,Win32,30.01020347,,,,,,,,2,Slow,h,1,2.2198,0,1,1,2,1,,,,,
,1.6,,,,,,,,,f.PNG,f,6126ad6624eb5fa24cc7eacb,2021-10-19_13h45.36.357,forced_choiceRT,2021.1.2,Win32,30.01020347,,,,,,,,2,Slow,g,0,2.3292,0,2,2,0,1,,,,,
,0.5,,,,,,,,,h.PNG,h,6126ad6624eb5fa24cc7eacb,2021-10-19_13h45.36.357,forced_choiceRT,2021.1.2,Win32,30.01020347,,,,,,,,2,Slow,h,1,2.1466,0,3,3,2,1,,,,,
,0.28,,,,,,,,,f.PNG,f,6126ad6624eb5fa24cc7eacb,2021-10-19_13h45.36.357,forced_choiceRT,2021.1.2,Win32,30.01020347,,,,,,,,2,Ontime,f,1,1.9218,1,0,4,0,1,,,,,
,0.42,,,,,,,,,h.PNG,h,6126ad6624eb5fa24cc7eacb,2021-10-19_13h45.36.357,forced_choiceRT,2021.1.2,Win32,30.01020347,,,,,,,,2,Ontime,h,1,1.9004,1,1,5,2,1,,,,,
,1.17,,,,,,,,,h.PNG,h,6126ad6624eb5fa24cc7eacb,2021-10-19_13h45.36.357,forced_choiceRT,2021.1.2,Win32,30.01020347,,,,,,,,2,Ontime,h,1,2.0008,1,2,6,2,1,,,,,
,0.89,,,,,,,,,h.PNG,h,6126ad6624eb5fa24cc7eacb,2021-10-19_13h45.36.357,forced_choiceRT,2021.1.2,Win32,30.01020347,,,,,,,,2,Slow,h,1,2.1,1,3,7,2,1,,,,,
,0.99,,,,,,,,,h.PNG,h,6126ad6624eb5fa24cc7eacb,2021-10-19_13h45.36.357,forced_choiceRT,2021.1.2,Win32,30.01020347,,,,,,,,2,Slow,h,1,2.1003,2,0,8,2,1,,,,,
,0.59,,,,,,,,,f.PNG,f,6126ad6624eb5fa24cc7eacb,2021-10-19_13h45.36.357,forced_choiceRT,2021.1.2,Win32,30.01020347,,,,,,,,2,Slow,f,1,2.1345,2,1,9,0,1,,,,,
,0.65,,,,,,,,,f.PNG,f,6126ad6624eb5fa24cc7eacb,2021-10-19_13h45.36.357,forced_choiceRT,2021.1.2,Win32,30.01020347,,,,,,,,2,Ontime,f,1,1.934,2,2,10,0,1,,,,,
,1.05,,,,,,,,,h.PNG,h,6126ad6624eb5fa24cc7eacb,2021-10-19_13h45.36.357,forced_choiceRT,2021.1.2,Win32,30.01020347,,,,,,,,2,Ontime,h,1,1.9673,2,3,11,2,1,,,,,
,1.63,,,,,,,,,g.PNG,g,6126ad6624eb5fa24cc7eacb,2021-10-19_13h45.36.357,forced_choiceRT,2021.1.2,Win32,30.01020347,,,,,,,,2,Slow,g,1,2.1329,3,0,12,1,1,,,,,
,0.11,,,,,,,,,f.PNG,f,6126ad6624eb5fa24cc7eacb,2021-10-19_13h45.36.357,forced_choiceRT,2021.1.2,Win32,30.01020347,,,,,,,,2,Ontime,f,1,1.9005,3,1,13,0,1,,,,,
,1.33,,,,,,,,,f.PNG,f,6126ad6624eb5fa24cc7eacb,2021-10-19_13h45.36.357,forced_choiceRT,2021.1.2,Win32,30.01020347,,,,,,,,2,Ontime,f,1,2.0674,3,2,14,0,1,,,,,
,0.13,,,,,,,,,j.PNG,j,6126ad6624eb5fa24cc7eacb,2021-10-19_13h45.36.357,forced_choiceRT,2021.1.2,Win32,30.01020347,,,,,,,,2,Ontime,j,1,1.9334,3,3,15,3,1,,,,,
,0.77,,,,,,,,,h.PNG,h,6126ad6624eb5fa24cc7eacb,2021-10-19_13h45.36.357,forced_choiceRT,2021.1.2,Win32,30.01020347,,,,,,,,2,Ontime,h,1,1.9007,4,0,16,2,1,,,,,
,1.26,,,,,,,,,g.PNG,g,6126ad6624eb5fa24cc7eacb,2021-10-19_13h45.36.357,forced_choiceRT,2021.1.2,Win32,30.01020347,,,,,,,,2,Slow,g,1,2.1002,4,1,17,1,1,,,,,
,0.35,,,,,,,,,j.PNG,j,6126ad6624eb5fa24cc7eacb,2021-10-19_13h45.36.357,forced_choiceRT,2021.1.2,Win32,30.01020347,,,,,,,,2,Ontime,j,1,1.9013,4,2,18,3,1,,,,,
,1.36,,,,,,,,,j.PNG,j,6126ad6624eb5fa24cc7eacb,2021-10-19_13h45.36.357,forced_choiceRT,2021.1.2,Win32,30.01020347,,,,,,,,2,Ontime,j,1,2.0332,4,3,19,3,1,,,,,
,1.7,,,,,,,,,g.PNG,g,6126ad6624eb5fa24cc7eacb,2021-10-19_13h45.36.357,forced_choiceRT,2021.1.2,Win32,30.01020347,,,,,,,,2,Slow,g,1,2.2669,5,0,20,1,1,,,,,
,0.84,,,,,,,,,h.PNG,h,6126ad6624eb5fa24cc7eacb,2021-10-19_13h45.36.357,forced_choiceRT,2021.1.2,Win32,30.01020347,,,,,,,,2,Ontime,h,1,1.9682,5,1,21,2,1,,,,,
,1.42,,,,,,,,,j.PNG,j,6126ad6624eb5fa24cc7eacb,2021-10-19_13h45.36.357,forced_choiceRT,2021.1.2,Win32,30.01020347,,,,,,,,2,Slow,j,1,2.2001,5,2,22,3,1,,,,,
,1.24,,,,,,,,,g.PNG,g,6126ad6624eb5fa24cc7eacb,2021-10-19_13h45.36.357,forced_choiceRT,2021.1.2,Win32,30.01020347,,,,,,,,2,Slow,g,1,2.1344,5,3,23,1,1,,,,,
,1.96,,,,,,,,,j.PNG,j,6126ad6624eb5fa24cc7eacb,2021-10-19_13h45.36.357,forced_choiceRT,2021.1.2,Win32,30.01020347,,,,,,,,2,Slow,j,1,2.6336,6,0,24,3,1,,,,,
,1.59,,,,,,,,,j.PNG,j,6126ad6624eb5fa24cc7eacb,2021-10-19_13h45.36.357,forced_choiceRT,2021.1.2,Win32,30.01020347,,,,,,,,2,Slow,j,1,2.3672,6,1,25,3,1,,,,,
,0.46,,,,,,,,,g.PNG,g,6126ad6624eb5fa24cc7eacb,2021-10-19_13h45.36.357,forced_choiceRT,2021.1.2,Win32,30.01020347,,,,,,,,2,Ontime,g,1,1.9342,6,2,26,1,1,,,,,
,1.89,,,,,,,,,j.PNG,j,6126ad6624eb5fa24cc7eacb,2021-10-19_13h45.36.357,forced_choiceRT,2021.1.2,Win32,30.01020347,,,,,,,,2,Slow,g,0,2.5002,6,3,27,3,1,,,,,
,1.9,,,,,,,,,f.PNG,f,6126ad6624eb5fa24cc7eacb,2021-10-19_13h45.36.357,forced_choiceRT,2021.1.2,Win32,30.01020347,,,,,,,,2,Slow,g,0,2.6006,7,0,28,0,1,,,,,
,0.07,,,,,,,,,j.PNG,j,6126ad6624eb5fa24cc7eacb,2021-10-19_13h45.36.357,forced_choiceRT,2021.1.2,Win32,30.01020347,,,,,,,,2,Ontime,j,1,2.0342,7,1,29,3,1,,,,,
,1.19,,,,,,,,,f.PNG,f,6126ad6624eb5fa24cc7eacb,2021-10-19_13h45.36.357,forced_choiceRT,2021.1.2,Win32,30.01020347,,,,,,,,2,Ontime,f,1,1.9336,7,2,30,0,1,,,,,
,0.36,,,,,,,,,g.PNG,g,6126ad6624eb5fa24cc7eacb,2021-10-19_13h45.36.357,forced_choiceRT,2021.1.2,Win32,30.01020347,,,,,,,,2,Ontime,g,1,1.9003,7,3,31,1,1,,,,,
,1.98,,,,,,,,,g.PNG,g,6126ad6624eb5fa24cc7eacb,2021-10-19_13h45.36.357,forced_choiceRT,2021.1.2,Win32,30.01020347,,,,,,,,2,Slow,g,1,2.6332,8,0,32,1,1,,,,,
,0.1,,,,,,,,,g.PNG,g,6126ad6624eb5fa24cc7eacb,2021-10-19_13h45.36.357,forced_choiceRT,2021.1.2,Win32,30.01020347,,,,,,,,2,Fast,g,1,1.8784,8,1,33,1,1,,,,,
,0.8,,,,,,,,,h.PNG,h,6126ad6624eb5fa24cc7eacb,2021-10-19_13h45.36.357,forced_choiceRT,2021.1.2,Win32,30.01020347,,,,,,,,2,Ontime,h,1,1.9367,8,2,34,2,1,,,,,
,1.31,,,,,,,,,g.PNG,g,6126ad6624eb5fa24cc7eacb,2021-10-19_13h45.36.357,forced_choiceRT,2021.1.2,Win32,30.01020347,,,,,,,,2,Slow,g,1,2.1044,8,3,35,1,1,,,,,
,1.29,,,,,,,,,f.PNG,f,6126ad6624eb5fa24cc7eacb,2021-10-19_13h45.36.357,forced_choiceRT,2021.1.2,Win32,30.01020347,,,,,,,,2,Ontime,f,1,2.0005,9,0,36,0,1,,,,,
,1.77,,,,,,,,,f.PNG,f,6126ad6624eb5fa24cc7eacb,2021-10-19_13h45.36.357,forced_choiceRT,2021.1.2,Win32,30.01020347,,,,,,,,2,Slow,f,1,2.369,9,1,37,0,1,,,,,
,1.12,,,,,,,,,j.PNG,j,6126ad6624eb5fa24cc7eacb,2021-10-19_13h45.36.357,forced_choiceRT,2021.1.2,Win32,30.01020347,,,,,,,,2,Ontime,j,1,2.0336,9,2,38,3,1,,,,,
,1.09,,,,,,,,,g.PNG,g,6126ad6624eb5fa24cc7eacb,2021-10-19_13h45.36.357,forced_choiceRT,2021.1.2,Win32,30.01020347,,,,,,,,2,Ontime,g,1,1.9674,9,3,39,1,1,,,,,
,,,,,,,,,,,,6126ad6624eb5fa24cc7eacb,2021-10-19_13h45.36.357,forced_choiceRT,2021.1.2,Win32,30.01020347,,,,,,,,,,,,,,,,,,1,0,1,0,1
,0.75,,,,,,,,,h.PNG,h,6126ad6624eb5fa24cc7eacb,2021-10-19_13h45.36.357,forced_choiceRT,2021.1.2,Win32,30.01020347,,,,,,,,3,Ontime,h,1,1.9497,0,0,0,2,1,,,,,
,1.19,,,,,,,,,f.PNG,f,6126ad6624eb5fa24cc7eacb,2021-10-19_13h45.36.357,forced_choiceRT,2021.1.2,Win32,30.01020347,,,,,,,,3,Fast,f,1,1.8385,0,1,1,0,1,,,,,
,1.02,,,,,,,,,f.PNG,f,6126ad6624eb5fa24cc7eacb,2021-10-19_13h45.36.357,forced_choiceRT,2021.1.2,Win32,30.01020347,,,,,,,,3,Ontime,f,1,1.9228,0,2,2,0,1,,,,,
,1.26,,,,,,,,,g.PNG,g,6126ad6624eb5fa24cc7eacb,2021-10-19_13h45.36.357,forced_choiceRT,2021.1.2,Win32,30.01020347,,,,,,,,3,Ontime,g,1,2.0041,0,3,3,1,1,,,,,
,0.04,,,,,,,,,j.PNG,j,6126ad6624eb5fa24cc7eacb,2021-10-19_13h45.36.357,forced_choiceRT,2021.1.2,Win32,30.01020347,,,,,,,,3,Ontime,j,1,2.0009,1,0,4,3,1,,,,,
,1.12,,,,,,,,,f.PNG,f,6126ad6624eb5fa24cc7eacb,2021-10-19_13h45.36.357,forced_choiceRT,2021.1.2,Win32,30.01020347,,,,,,,,3,Ontime,f,1,1.9196,1,1,5,0,1,,,,,
,0.03,,,,,,,,,j.PNG,j,6126ad6624eb5fa24cc7eacb,2021-10-19_13h45.36.357,forced_choiceRT,2021.1.2,Win32,30.01020347,,,,,,,,3,Ontime,j,1,2.0498,1,2,6,3,1,,,,,
,1.45,,,,,,,,,h.PNG,h,6126ad6624eb5fa24cc7eacb,2021-10-19_13h45.36.357,forced_choiceRT,2021.1.2,Win32,30.01020347,,,,,,,,3,Slow,g,0,2.2371,1,3,7,2,1,,,,,
,1.29,,,,,,,,,j.PNG,j,6126ad6624eb5fa24cc7eacb,2021-10-19_13h45.36.357,forced_choiceRT,2021.1.2,Win32,30.01020347,,,,,,,,3,Slow,j,1,2.1338,2,0,8,3,1,,,,,
,1.39,,,,,,,,,h.PNG,h,6126ad6624eb5fa24cc7eacb,2021-10-19_13h45.36.357,forced_choiceRT,2021.1.2,Win32,30.01020347,,,,,,,,3,Ontime,h,1,2.0575,2,1,9,2,1,,,,,
,1.99,,,,,,,,,h.PNG,h,6126ad6624eb5fa24cc7eacb,2021-10-19_13h45.36.357,forced_choiceRT,2021.1.2,Win32,30.01020347,,,,,,,,3,Slow,h,1,2.6484,2,2,10,2,1,,,,,
,1.73,,,,,,,,,g.PNG,g,6126ad6624eb5fa24cc7eacb,2021-10-19_13h45.36.357,forced_choiceRT,2021.1.2,Win32,30.01020347,,,,,,,,3,Slow,g,1,2.3388,2,3,11,1,1,,,,,
,0.12,,,,,,,,,j.PNG,j,6126ad6624eb5fa24cc7eacb,2021-10-19_13h45.36.357,forced_choiceRT,2021.1.2,Win32,30.01020347,,,,,,,,3,Slow,j,1,2.1345,3,0,12,3,1,,,,,
,0.83,,,,,,,,,f.PNG,f,6126ad6624eb5fa24cc7eacb,2021-10-19_13h45.36.357,forced_choiceRT,2021.1.2,Win32,30.01020347,,,,,,,,3,Ontime,f,1,2.0836,3,1,13,0,1,,,,,
,1.59,,,,,,,,,h.PNG,h,6126ad6624eb5fa24cc7eacb,2021-10-19_13h45.36.357,forced_choiceRT,2021.1.2,Win32,30.01020347,,,,,,,,3,Slow,h,1,2.2386,3,2,14,2,1,,,,,
,1.55,,,,,,,,,f.PNG,f,6126ad6624eb5fa24cc7eacb,2021-10-19_13h45.36.357,forced_choiceRT,2021.1.2,Win32,30.01020347,,,,,,,,3,Slow,f,1,2.1331,3,3,15,0,1,,,,,
,0.86,,,,,,,,,g.PNG,g,6126ad6624eb5fa24cc7eacb,2021-10-19_13h45.36.357,forced_choiceRT,2021.1.2,Win32,30.01020347,,,,,,,,3,Ontime,g,1,2.0817,4,0,16,1,1,,,,,
,1.26,,,,,,,,,f.PNG,f,6126ad6624eb5fa24cc7eacb,2021-10-19_13h45.36.357,forced_choiceRT,2021.1.2,Win32,30.01020347,,,,,,,,3,Ontime,f,1,2.0361,4,1,17,0,1,,,,,
,1.4,,,,,,,,,h.PNG,h,6126ad6624eb5fa24cc7eacb,2021-10-19_13h45.36.357,forced_choiceRT,2021.1.2,Win32,30.01020347,,,,,,,,3,Slow,h,1,2.144,4,2,18,2,1,,,,,
,1.77,,,,,,,,,f.PNG,f,6126ad6624eb5fa24cc7eacb,2021-10-19_13h45.36.357,forced_choiceRT,2021.1.2,Win32,30.01020347,,,,,,,,3,Slow,f,1,2.3203,4,3,19,0,1,,,,,
,0.78,,,,,,,,,j.PNG,j,6126ad6624eb5fa24cc7eacb,2021-10-19_13h45.36.357,forced_choiceRT,2021.1.2,Win32,30.01020347,,,,,,,,3,Ontime,j,1,2.0661,5,0,20,3,1,,,,,
,1.97,,,,,,,,,h.PNG,h,6126ad6624eb5fa24cc7eacb,2021-10-19_13h45.36.357,forced_choiceRT,2021.1.2,Win32,30.01020347,,,,,,,,3,Slow,j,0,2.5011,5,1,21,2,1,,,,,
,1.51,,,,,,,,,h.PNG,h,6126ad6624eb5fa24cc7eacb,2021-10-19_13h45.36.357,forced_choiceRT,2021.1.2,Win32,30.01020347,,,,,,,,3,Slow,h,1,2.28,5,2,22,2,1,,,,,
,1.6,,,,,,,,,j.PNG,j,6126ad6624eb5fa24cc7eacb,2021-10-19_13h45.36.357,forced_choiceRT,2021.1.2,Win32,30.01020347,,,,,,,,3,Slow,j,1,2.2194,5,3,23,3,1,,,,,
,0.78,,,,,,,,,g.PNG,g,6126ad6624eb5fa24cc7eacb,2021-10-19_13h45.36.357,forced_choiceRT,2021.1.2,Win32,30.01020347,,,,,,,,3,Ontime,g,1,1.9675,6,0,24,1,1,,,,,
,1.49,,,,,,,,,g.PNG,g,6126ad6624eb5fa24cc7eacb,2021-10-19_13h45.36.357,forced_choiceRT,2021.1.2,Win32,30.01020347,,,,,,,,3,Ontime,g,1,2.0785,6,1,25,1,1,,,,,
,0.3,,,,,,,,,h.PNG,h,6126ad6624eb5fa24cc7eacb,2021-10-19_13h45.36.357,forced_choiceRT,2021.1.2,Win32,30.01020347,,,,,,,,3,Ontime,h,1,2.0336,6,2,26,2,1,,,,,
,1.25,,,,,,,,,g.PNG,g,6126ad6624eb5fa24cc7eacb,2021-10-19_13h45.36.357,forced_choiceRT,2021.1.2,Win32,30.01020347,,,,,,,,3,Ontime,g,1,1.9721,6,3,27,1,1,,,,,
,1.71,,,,,,,,,g.PNG,g,6126ad6624eb5fa24cc7eacb,2021-10-19_13h45.36.357,forced_choiceRT,2021.1.2,Win32,30.01020347,,,,,,,,3,Slow,g,1,2.2841,7,0,28,1,1,,,,,
,0.19,,,,,,,,,j.PNG,j,6126ad6624eb5fa24cc7eacb,2021-10-19_13h45.36.357,forced_choiceRT,2021.1.2,Win32,30.01020347,,,,,,,,3,Slow,j,1,2.1033,7,1,29,3,1,,,,,
,1.02,,,,,,,,,f.PNG,f,6126ad6624eb5fa24cc7eacb,2021-10-19_13h45.36.357,forced_choiceRT,2021.1.2,Win32,30.01020347,,,,,,,,3,Fast,f,1,1.8245,7,2,30,0,1,,,,,
,1.76,,,,,,,,,j.PNG,j,6126ad6624eb5fa24cc7eacb,2021-10-19_13h45.36.357,forced_choiceRT,2021.1.2,Win32,30.01020347,,,,,,,,3,Slow,h,0,2.3734,7,3,31,3,1,,,,,
,1.44,,,,,,,,,f.PNG,f,6126ad6624eb5fa24cc7eacb,2021-10-19_13h45.36.357,forced_choiceRT,2021.1.2,Win32,30.01020347,,,,,,,,3,Slow,f,1,2.1237,8,0,32,0,1,,,,,
,1.76,,,,,,,,,f.PNG,f,6126ad6624eb5fa24cc7eacb,2021-10-19_13h45.36.357,forced_choiceRT,2021.1.2,Win32,30.01020347,,,,,,,,3,Slow,j,0,2.1336,8,1,33,0,1,,,,,
,0.28,,,,,,,,,h.PNG,h,6126ad6624eb5fa24cc7eacb,2021-10-19_13h45.36.357,forced_choiceRT,2021.1.2,Win32,30.01020347,,,,,,,,3,Slow,h,1,2.1415,8,2,34,2,1,,,,,
,1.3,,,,,,,,,g.PNG,g,6126ad6624eb5fa24cc7eacb,2021-10-19_13h45.36.357,forced_choiceRT,2021.1.2,Win32,30.01020347,,,,,,,,3,Ontime,g,1,2.0701,8,3,35,1,1,,,,,
,0.05,,,,,,,,,j.PNG,j,6126ad6624eb5fa24cc7eacb,2021-10-19_13h45.36.357,forced_choiceRT,2021.1.2,Win32,30.01020347,,,,,,,,3,Ontime,j,1,2.0088,9,0,36,3,1,,,,,
,1.34,,,,,,,,,j.PNG,j,6126ad6624eb5fa24cc7eacb,2021-10-19_13h45.36.357,forced_choiceRT,2021.1.2,Win32,30.01020347,,,,,,,,3,Ontime,j,1,2.0998,9,1,37,3,1,,,,,
,0.18,,,,,,,,,g.PNG,g,6126ad6624eb5fa24cc7eacb,2021-10-19_13h45.36.357,forced_choiceRT,2021.1.2,Win32,30.01020347,,,,,,,,3,Ontime,g,1,2.055,9,2,38,1,1,,,,,
,0.94,,,,,,,,,g.PNG,g,6126ad6624eb5fa24cc7eacb,2021-10-19_13h45.36.357,forced_choiceRT,2021.1.2,Win32,30.01020347,,,,,,,,3,Ontime,g,1,1.9671,9,3,39,1,1,,,,,
,,,,,,,,,,,,6126ad6624eb5fa24cc7eacb,2021-10-19_13h45.36.357,forced_choiceRT,2021.1.2,Win32,30.01020347,,,,,,,,,,,,,,,,,,2,0,2,0,1
,1.15,,,,,,,,,g.PNG,g,6126ad6624eb5fa24cc7eacb,2021-10-19_13h45.36.357,forced_choiceRT,2021.1.2,Win32,30.01020347,,,,,,,,4,Ontime,g,1,2.0847,0,0,0,1,1,,,,,
,1.9,,,,,,,,,g.PNG,g,6126ad6624eb5fa24cc7eacb,2021-10-19_13h45.36.357,forced_choiceRT,2021.1.2,Win32,30.01020347,,,,,,,,4,Slow,j,0,2.1666,0,1,1,1,1,,,,,
,0.44,,,,,,,,,j.PNG,j,6126ad6624eb5fa24cc7eacb,2021-10-19_13h45.36.357,forced_choiceRT,2021.1.2,Win32,30.01020347,,,,,,,,4,Slow,j,1,2.1328,0,2,2,3,1,,,,,
,1.49,,,,,,,,,f.PNG,f,6126ad6624eb5fa24cc7eacb,2021-10-19_13h45.36.357,forced_choiceRT,2021.1.2,Win32,30.01020347,,,,,,,,4,Ontime,f,1,2.0848,0,3,3,0,1,,,,,
,1.04,,,,,,,,,h.PNG,h,6126ad6624eb5fa24cc7eacb,2021-10-19_13h45.36.357,forced_choiceRT,2021.1.2,Win32,30.01020347,,,,,,,,4,Slow,h,1,2.1323,1,0,4,2,1,,,,,
,0.52,,,,,,,,,h.PNG,h,6126ad6624eb5fa24cc7eacb,2021-10-19_13h45.36.357,forced_choiceRT,2021.1.2,Win32,30.01020347,,,,,,,,4,Fast,h,1,1.8889,1,1,5,2,1,,,,,
,1.8,,,,,,,,,f.PNG,f,6126ad6624eb5fa24cc7eacb,2021-10-19_13h45.36.357,forced_choiceRT,2021.1.2,Win32,30.01020347,,,,,,,,4,Ontime,g,0,2.0835,1,2,6,0,1,,,,,
,1.61,,,,,,,,,j.PNG,j,6126ad6624eb5fa24cc7eacb,2021-10-19_13h45.36.357,forced_choiceRT,2021.1.2,Win32,30.01020347,,,,,,,,4,Ontime,h,0,2.0377,1,3,7,3,1,,,,,
,0.16,,,,,,,,,g.PNG,g,6126ad6624eb5fa24cc7eacb,2021-10-19_13h45.36.357,forced_choiceRT,2021.1.2,Win32,30.01020347,,,,,,,,4,Fast,g,1,1.8675,2,0,8,1,1,,,,,
,0.18,,,,,,,,,j.PNG,j,6126ad6624eb5fa24cc7eacb,2021-10-19_13h45.36.357,forced_choiceRT,2021.1.2,Win32,30.01020347,,,,,,,,4,Ontime,j,1,2.0051,2,1,9,3,1,,,,,
,0.15,,,,,,,,,g.PNG,g,6126ad6624eb5fa24cc7eacb,2021-10-19_13h45.36.357,forced_choiceRT,2021.1.2,Win32,30.01020347,,,,,,,,4,Ontime,g,1,1.9333,2,2,10,1,1,,,,,
,0.52,,,,,,,,,j.PNG,j,6126ad6624eb5fa24cc7eacb,2021-10-19_13h45.36.357,forced_choiceRT,2021.1.2,Win32,30.01020347,,,,,,,,4,Ontime,j,1,2.0022,2,3,11,3,1,,,,,
,1.25,,,,,,,,,f.PNG,f,6126ad6624eb5fa24cc7eacb,2021-10-19_13h45.36.357,forced_choiceRT,2021.1.2,Win32,30.01020347,,,,,,,,4,Ontime,f,1,2.0663,3,0,12,0,1,,,,,
,1.73,,,,,,,,,f.PNG,f,6126ad6624eb5fa24cc7eacb,2021-10-19_13h45.36.357,forced_choiceRT,2021.1.2,Win32,30.01020347,,,,,,,,4,Slow,f,1,2.3226,3,1,13,0,1,,,,,
,0.43,,,,,,,,,g.PNG,g,6126ad6624eb5fa24cc7eacb,2021-10-19_13h45.36.357,forced_choiceRT,2021.1.2,Win32,30.01020347,,,,,,,,4,Ontime,g,1,2.0681,3,2,14,1,1,,,,,
,1.59,,,,,,,,,f.PNG,f,6126ad6624eb5fa24cc7eacb,2021-10-19_13h45.36.357,forced_choiceRT,2021.1.2,Win32,30.01020347,,,,,,,,4,Ontime,h,0,1.9837,3,3,15,0,1,,,,,
,1.24,,,,,,,,,h.PNG,h,6126ad6624eb5fa24cc7eacb,2021-10-19_13h45.36.357,forced_choiceRT,2021.1.2,Win32,30.01020347,,,,,,,,4,Ontime,h,1,2.0376,4,0,16,2,1,,,,,
,0,,,,,,,,,f.PNG,f,6126ad6624eb5fa24cc7eacb,2021-10-19_13h45.36.357,forced_choiceRT,2021.1.2,Win32,30.01020347,,,,,,,,4,Ontime,f,1,1.9341,4,1,17,0,1,,,,,
,0.76,,,,,,,,,f.PNG,f,6126ad6624eb5fa24cc7eacb,2021-10-19_13h45.36.357,forced_choiceRT,2021.1.2,Win32,30.01020347,,,,,,,,4,Ontime,f,1,2.0105,4,2,18,0,1,,,,,
,1.13,,,,,,,,,j.PNG,j,6126ad6624eb5fa24cc7eacb,2021-10-19_13h45.36.357,forced_choiceRT,2021.1.2,Win32,30.01020347,,,,,,,,4,Ontime,j,1,1.936,4,3,19,3,1,,,,,
,1.77,,,,,,,,,h.PNG,h,6126ad6624eb5fa24cc7eacb,2021-10-19_13h45.36.357,forced_choiceRT,2021.1.2,Win32,30.01020347,,,,,,,,4,Slow,g,0,2.1002,5,0,20,2,1,,,,,
,1.1,,,,,,,,,g.PNG,g,6126ad6624eb5fa24cc7eacb,2021-10-19_13h45.36.357,forced_choiceRT,2021.1.2,Win32,30.01020347,,,,,,,,4,Ontime,f,0,1.9009,5,1,21,1,1,,,,,
,1.62,,,,,,,,,j.PNG,j,6126ad6624eb5fa24cc7eacb,2021-10-19_13h45.36.357,forced_choiceRT,2021.1.2,Win32,30.01020347,,,,,,,,4,Slow,h,0,2.2231,5,2,22,3,1,,,,,
,1.17,,,,,,,,,h.PNG,h,6126ad6624eb5fa24cc7eacb,2021-10-19_13h45.36.357,forced_choiceRT,2021.1.2,Win32,30.01020347,,,,,,,,4,Slow,h,1,2.2825,5,3,23,2,1,,,,,
,1.37,,,,,,,,,h.PNG,h,6126ad6624eb5fa24cc7eacb,2021-10-19_13h45.36.357,forced_choiceRT,2021.1.2,Win32,30.01020347,,,,,,,,4,Ontime,h,1,2.0216,6,0,24,2,1,,,,,
,1.45,,,,,,,,,h.PNG,h,6126ad6624eb5fa24cc7eacb,2021-10-19_13h45.36.357,forced_choiceRT,2021.1.2,Win32,30.01020347,,,,,,,,4,Ontime,h,1,2.033,6,1,25,2,1,,,,,
,1.16,,,,,,,,,g.PNG,g,6126ad6624eb5fa24cc7eacb,2021-10-19_13h45.36.357,forced_choiceRT,2021.1.2,Win32,30.01020347,,,,,,,,4,Ontime,g,1,2.0673,6,2,26,1,1,,,,,
,1.87,,,,,,,,,f.PNG,f,6126ad6624eb5fa24cc7eacb,2021-10-19_13h45.36.357,forced_choiceRT,2021.1.2,Win32,30.01020347,,,,,,,,4,Ontime,h,0,2.0671,6,3,27,0,1,,,,,
,1.94,,,,,,,,,j.PNG,j,6126ad6624eb5fa24cc7eacb,2021-10-19_13h45.36.357,forced_choiceRT,2021.1.2,Win32,30.01020347,,,,,,,,4,Ontime,h,0,2.0057,7,0,28,3,1,,,,,
,0.41,,,,,,,,,h.PNG,h,6126ad6624eb5fa24cc7eacb,2021-10-19_13h45.36.357,forced_choiceRT,2021.1.2,Win32,30.01020347,,,,,,,,4,Ontime,h,1,1.948,7,1,29,2,1,,,,,
,0.71,,,,,,,,,h.PNG,h,6126ad6624eb5fa24cc7eacb,2021-10-19_13h45.36.357,forced_choiceRT,2021.1.2,Win32,30.01020347,,,,,,,,4,Slow,h,1,2.1003,7,2,30,2,1,,,,,
,1.09,,,,,,,,,h.PNG,h,6126ad6624eb5fa24cc7eacb,2021-10-19_13h45.36.357,forced_choiceRT,2021.1.2,Win32,30.01020347,,,,,,,,4,Ontime,h,1,2.0002,7,3,31,2,1,,,,,
,0.27,,,,,,,,,f.PNG,f,6126ad6624eb5fa24cc7eacb,2021-10-19_13h45.36.357,forced_choiceRT,2021.1.2,Win32,30.01020347,,,,,,,,4,Fast,f,1,1.6673,8,0,32,0,1,,,,,
,0.75,,,,,,,,,f.PNG,f,6126ad6624eb5fa24cc7eacb,2021-10-19_13h45.36.357,forced_choiceRT,2021.1.2,Win32,30.01020347,,,,,,,,4,Ontime,f,1,2.0328,8,1,33,0,1,,,,,
,1.56,,,,,,,,,j.PNG,j,6126ad6624eb5fa24cc7eacb,2021-10-19_13h45.36.357,forced_choiceRT,2021.1.2,Win32,30.01020347,,,,,,,,4,Slow,j,1,2.1378,8,2,34,3,1,,,,,
,0.7,,,,,,,,,g.PNG,g,6126ad6624eb5fa24cc7eacb,2021-10-19_13h45.36.357,forced_choiceRT,2021.1.2,Win32,30.01020347,,,,,,,,4,Fast,g,1,1.8506,8,3,35,1,1,,,,,
,1,,,,,,,,,g.PNG,g,6126ad6624eb5fa24cc7eacb,2021-10-19_13h45.36.357,forced_choiceRT,2021.1.2,Win32,30.01020347,,,,,,,,4,Ontime,g,1,2.0387,9,0,36,1,1,,,,,
,0.98,,,,,,,,,g.PNG,g,6126ad6624eb5fa24cc7eacb,2021-10-19_13h45.36.357,forced_choiceRT,2021.1.2,Win32,30.01020347,,,,,,,,4,Ontime,g,1,2.0516,9,1,37,1,1,,,,,
,1.06,,,,,,,,,j.PNG,j,6126ad6624eb5fa24cc7eacb,2021-10-19_13h45.36.357,forced_choiceRT,2021.1.2,Win32,30.01020347,,,,,,,,4,Ontime,j,1,1.9186,9,2,38,3,1,,,,,
,1.64,,,,,,,,,j.PNG,j,6126ad6624eb5fa24cc7eacb,2021-10-19_13h45.36.357,forced_choiceRT,2021.1.2,Win32,30.01020347,,,,,,,,4,Slow,g,0,2.1006,9,3,39,3,1,,,,,
,,,,,,,,,,,,6126ad6624eb5fa24cc7eacb,2021-10-19_13h45.36.357,forced_choiceRT,2021.1.2,Win32,30.01020347,,,,,,,,,,,,,,,,,,3,0,3,0,1
,1.22,,,,,,,,,j.PNG,j,6126ad6624eb5fa24cc7eacb,2021-10-19_13h45.36.357,forced_choiceRT,2021.1.2,Win32,30.01020347,,,,,,,,5,Slow,j,1,2.1016,0,0,0,3,1,,,,,
,0.3,,,,,,,,,f.PNG,f,6126ad6624eb5fa24cc7eacb,2021-10-19_13h45.36.357,forced_choiceRT,2021.1.2,Win32,30.01020347,,,,,,,,5,Fast,f,1,1.8492,0,1,1,0,1,,,,,
,1.92,,,,,,,,,f.PNG,f,6126ad6624eb5fa24cc7eacb,2021-10-19_13h45.36.357,forced_choiceRT,2021.1.2,Win32,30.01020347,,,,,,,,5,Slow,j,0,2.1411,0,2,2,0,1,,,,,
,1.33,,,,,,,,,f.PNG,f,6126ad6624eb5fa24cc7eacb,2021-10-19_13h45.36.357,forced_choiceRT,2021.1.2,Win32,30.01020347,,,,,,,,5,Ontime,f,1,2.0535,0,3,3,0,1,,,,,
,0.24,,,,,,,,,g.PNG,g,6126ad6624eb5fa24cc7eacb,2021-10-19_13h45.36.357,forced_choiceRT,2021.1.2,Win32,30.01020347,,,,,,,,5,Ontime,g,1,1.9041,1,0,4,1,1,,,,,
,1.11,,,,,,,,,j.PNG,j,6126ad6624eb5fa24cc7eacb,2021-10-19_13h45.36.357,forced_choiceRT,2021.1.2,Win32,30.01020347,,,,,,,,5,Fast,j,1,1.8826,1,1,5,3,1,,,,,
,0.08,,,,,,,,,f.PNG,f,6126ad6624eb5fa24cc7eacb,2021-10-19_13h45.36.357,forced_choiceRT,2021.1.2,Win32,30.01020347,,,,,,,,5,Ontime,f,1,1.9003,1,2,6,0,1,,,,,
,1.35,,,,,,,,,f.PNG,f,6126ad6624eb5fa24cc7eacb,2021-10-19_13h45.36.357,forced_choiceRT,2021.1.2,Win32,30.01020347,,,,,,,,5,Ontime,f,1,1.9026,1,3,7,0,1,,,,,
,0.68,,,,,,,,,h.PNG,h,6126ad6624eb5fa24cc7eacb,2021-10-19_13h45.36.357,forced_choiceRT,2021.1.2,Win32,30.01020347,,,,,,,,5,Ontime,h,1,1.9695,2,0,8,2,1,,,,,
,1.71,,,,,,,,,g.PNG,g,6126ad6624eb5fa24cc7eacb,2021-10-19_13h45.36.357,forced_choiceRT,2021.1.2,Win32,30.01020347,,,,,,,,5,Ontime,j,0,2.0236,2,1,9,1,1,,,,,
,0.67,,,,,,,,,j.PNG,j,6126ad6624eb5fa24cc7eacb,2021-10-19_13h45.36.357,forced_choiceRT,2021.1.2,Win32,30.01020347,,,,,,,,5,Ontime,j,1,2.0337,2,2,10,3,1,,,,,
,0.73,,,,,,,,,j.PNG,j,6126ad6624eb5fa24cc7eacb,2021-10-19_13h45.36.357,forced_choiceRT,2021.1.2,Win32,30.01020347,,,,,,,,5,Ontime,j,1,1.9445,2,3,11,3,1,,,,,
,1.29,,,,,,,,,h.PNG,h,6126ad6624eb5fa24cc7eacb,2021-10-19_13h45.36.357,forced_choiceRT,2021.1.2,Win32,30.01020347,,,,,,,,5,Ontime,f,0,1.9002,3,0,12,2,1,,,,,
,1.01,,,,,,,,,f.PNG,f,6126ad6624eb5fa24cc7eacb,2021-10-19_13h45.36.357,forced_choiceRT,2021.1.2,Win32,30.01020347,,,,,,,,5,Fast,f,1,1.8518,3,1,13,0,1,,,,,
,1.33,,,,,,,,,f.PNG,f,6126ad6624eb5fa24cc7eacb,2021-10-19_13h45.36.357,forced_choiceRT,2021.1.2,Win32,30.01020347,,,,,,,,5,Ontime,f,1,2.0012,3,2,14,0,1,,,,,
,0.3,,,,,,,,,h.PNG,h,6126ad6624eb5fa24cc7eacb,2021-10-19_13h45.36.357,forced_choiceRT,2021.1.2,Win32,30.01020347,,,,,,,,5,Ontime,h,1,2.0002,3,3,15,2,1,,,,,
,0.62,,,,,,,,,j.PNG,j,6126ad6624eb5fa24cc7eacb,2021-10-19_13h45.36.357,forced_choiceRT,2021.1.2,Win32,30.01020347,,,,,,,,5,Slow,j,1,2.1,4,0,16,3,1,,,,,
,1.49,,,,,,,,,h.PNG,h,6126ad6624eb5fa24cc7eacb,2021-10-19_13h45.36.357,forced_choiceRT,2021.1.2,Win32,30.01020347,,,,,,,,5,Slow,h,1,2.1194,4,1,17,2,1,,,,,
,0.13,,,,,,,,,h.PNG,h,6126ad6624eb5fa24cc7eacb,2021-10-19_13h45.36.357,forced_choiceRT,2021.1.2,Win32,30.01020347,,,,,,,,5,Ontime,h,1,2.0344,4,2,18,2,1,,,,,
,0.06,,,,,,,,,h.PNG,h,6126ad6624eb5fa24cc7eacb,2021-10-19_13h45.36.357,forced_choiceRT,2021.1.2,Win32,30.01020347,,,,,,,,5,Ontime,h,1,1.9905,4,3,19,2,1,,,,,
,1.15,,,,,,,,,j.PNG,j,6126ad6624eb5fa24cc7eacb,2021-10-19_13h45.36.357,forced_choiceRT,2021.1.2,Win32,30.01020347,,,,,,,,5,Ontime,j,1,1.9403,5,0,20,3,1,,,,,
,0.7,,,,,,,,,g.PNG,g,6126ad6624eb5fa24cc7eacb,2021-10-19_13h45.36.357,forced_choiceRT,2021.1.2,Win32,30.01020347,,,,,,,,5,Ontime,g,1,2.0349,5,1,21,1,1,,,,,
,0.47,,,,,,,,,g.PNG,g,6126ad6624eb5fa24cc7eacb,2021-10-19_13h45.36.357,forced_choiceRT,2021.1.2,Win32,30.01020347,,,,,,,,5,Ontime,g,1,2.0337,5,2,22,1,1,,,,,
,1.64,,,,,,,,,g.PNG,g,6126ad6624eb5fa24cc7eacb,2021-10-19_13h45.36.357,forced_choiceRT,2021.1.2,Win32,30.01020347,,,,,,,,5,Slow,j,0,2.1817,5,3,23,1,1,,,,,
,0.6,,,,,,,,,h.PNG,h,6126ad6624eb5fa24cc7eacb,2021-10-19_13h45.36.357,forced_choiceRT,2021.1.2,Win32,30.01020347,,,,,,,,5,Ontime,h,1,2.0214,6,0,24,2,1,,,,,
,1.92,,,,,,,,,h.PNG,h,6126ad6624eb5fa24cc7eacb,2021-10-19_13h45.36.357,forced_choiceRT,2021.1.2,Win32,30.01020347,,,,,,,,5,Ontime,j,0,1.9557,6,1,25,2,1,,,,,
,0.64,,,,,,,,,j.PNG,j,6126ad6624eb5fa24cc7eacb,2021-10-19_13h45.36.357,forced_choiceRT,2021.1.2,Win32,30.01020347,,,,,,,,5,Slow,j,1,2.1336,6,2,26,3,1,,,,,
,1.42,,,,,,,,,f.PNG,f,6126ad6624eb5fa24cc7eacb,2021-10-19_13h45.36.357,forced_choiceRT,2021.1.2,Win32,30.01020347,,,,,,,,5,Fast,j,0,1.8672,6,3,27,0,1,,,,,
,1.56,,,,,,,,,f.PNG,f,6126ad6624eb5fa24cc7eacb,2021-10-19_13h45.36.357,forced_choiceRT,2021.1.2,Win32,30.01020347,,,,,,,,5,Ontime,f,1,1.9738,7,0,28,0,1,,,,,
,0.92,,,,,,,,,j.PNG,j,6126ad6624eb5fa24cc7eacb,2021-10-19_13h45.36.357,forced_choiceRT,2021.1.2,Win32,30.01020347,,,,,,,,5,Ontime,j,1,2.0536,7,1,29,3,1,,,,,
,0.32,,,,,,,,,g.PNG,g,6126ad6624eb5fa24cc7eacb,2021-10-19_13h45.36.357,forced_choiceRT,2021.1.2,Win32,30.01020347,,,,,,,,5,Ontime,g,1,2.0414,7,2,30,1,1,,,,,
,0.36,,,,,,,,,h.PNG,h,6126ad6624eb5fa24cc7eacb,2021-10-19_13h45.36.357,forced_choiceRT,2021.1.2,Win32,30.01020347,,,,,,,,5,Ontime,h,1,2.0674,7,3,31,2,1,,,,,
,1.86,,,,,,,,,h.PNG,h,6126ad6624eb5fa24cc7eacb,2021-10-19_13h45.36.357,forced_choiceRT,2021.1.2,Win32,30.01020347,,,,,,,,5,Ontime,j,0,2.0803,8,0,32,2,1,,,,,
,0.12,,,,,,,,,g.PNG,g,6126ad6624eb5fa24cc7eacb,2021-10-19_13h45.36.357,forced_choiceRT,2021.1.2,Win32,30.01020347,,,,,,,,5,Slow,g,1,2.1166,8,1,33,1,1,,,,,
,0.22,,,,,,,,,g.PNG,g,6126ad6624eb5fa24cc7eacb,2021-10-19_13h45.36.357,forced_choiceRT,2021.1.2,Win32,30.01020347,,,,,,,,5,Ontime,g,1,2.021,8,2,34,1,1,,,,,
,0.77,,,,,,,,,j.PNG,j,6126ad6624eb5fa24cc7eacb,2021-10-19_13h45.36.357,forced_choiceRT,2021.1.2,Win32,30.01020347,,,,,,,,5,Slow,j,1,2.1003,8,3,35,3,1,,,,,
,1.73,,,,,,,,,g.PNG,g,6126ad6624eb5fa24cc7eacb,2021-10-19_13h45.36.357,forced_choiceRT,2021.1.2,Win32,30.01020347,,,,,,,,5,Ontime,j,0,2.0212,9,0,36,1,1,,,,,
,0.39,,,,,,,,,g.PNG,g,6126ad6624eb5fa24cc7eacb,2021-10-19_13h45.36.357,forced_choiceRT,2021.1.2,Win32,30.01020347,,,,,,,,5,Ontime,g,1,2.036,9,1,37,1,1,,,,,
,1.95,,,,,,,,,f.PNG,f,6126ad6624eb5fa24cc7eacb,2021-10-19_13h45.36.357,forced_choiceRT,2021.1.2,Win32,30.01020347,,,,,,,,5,Ontime,h,0,2.0882,9,2,38,0,1,,,,,
,1,,,,,,,,,j.PNG,j,6126ad6624eb5fa24cc7eacb,2021-10-19_13h45.36.357,forced_choiceRT,2021.1.2,Win32,30.01020347,,,,,,,,5,Ontime,g,0,2.0769,9,3,39,3,1,,,,,
,,,,,,,,,,,,6126ad6624eb5fa24cc7eacb,2021-10-19_13h45.36.357,forced_choiceRT,2021.1.2,Win32,30.01020347,,,,,,,,,,,,,,,,,,4,0,4,0,1
,0.69,,,,,,,,,g.PNG,g,6126ad6624eb5fa24cc7eacb,2021-10-19_13h45.36.357,forced_choiceRT,2021.1.2,Win32,30.01020347,,,,,,,,6,Ontime,g,1,1.9514,0,0,0,1,1,,,,,
,0.32,,,,,,,,,j.PNG,j,6126ad6624eb5fa24cc7eacb,2021-10-19_13h45.36.357,forced_choiceRT,2021.1.2,Win32,30.01020347,,,,,,,,6,Fast,j,1,0.045,0,1,1,3,1,,,,,
,1.96,,,,,,,,,f.PNG,f,6126ad6624eb5fa24cc7eacb,2021-10-19_13h45.36.357,forced_choiceRT,2021.1.2,Win32,30.01020347,,,,,,,,6,Ontime,h,0,2.0343,0,2,2,0,1,,,,,
,1.95,,,,,,,,,f.PNG,f,6126ad6624eb5fa24cc7eacb,2021-10-19_13h45.36.357,forced_choiceRT,2021.1.2,Win32,30.01020347,,,,,,,,6,Ontime,f,1,2.0786,0,3,3,0,1,,,,,
,0.28,,,,,,,,,h.PNG,h,6126ad6624eb5fa24cc7eacb,2021-10-19_13h45.36.357,forced_choiceRT,2021.1.2,Win32,30.01020347,,,,,,,,6,Ontime,h,1,2.0344,1,0,4,2,1,,,,,
,1.83,,,,,,,,,h.PNG,h,6126ad6624eb5fa24cc7eacb,2021-10-19_13h45.36.357,forced_choiceRT,2021.1.2,Win32,30.01020347,,,,,,,,6,Ontime,j,0,2.0461,1,1,5,2,1,,,,,
,1.22,,,,,,,,,f.PNG,f,6126ad6624eb5fa24cc7eacb,2021-10-19_13h45.36.357,forced_choiceRT,2021.1.2,Win32,30.01020347,,,,,,,,6,Ontime,f,1,2.0738,1,2,6,0,1,,,,,
,0.76,,,,,,,,,j.PNG,j,6126ad6624eb5fa24cc7eacb,2021-10-19_13h45.36.357,forced_choiceRT,2021.1.2,Win32,30.01020347,,,,,,,,6,Ontime,j,1,2.034,1,3,7,3,1,,,,,
,1.59,,,,,,,,,g.PNG,g,6126ad6624eb5fa24cc7eacb,2021-10-19_13h45.36.357,forced_choiceRT,2021.1.2,Win32,30.01020347,,,,,,,,6,Slow,h,0,2.1003,2,0,8,1,1,,,,,
,0.28,,,,,,,,,j.PNG,j,6126ad6624eb5fa24cc7eacb,2021-10-19_13h45.36.357,forced_choiceRT,2021.1.2,Win32,30.01020347,,,,,,,,6,Slow,j,1,2.1059,2,1,9,3,1,,,,,
,1.57,,,,,,,,,f.PNG,f,6126ad6624eb5fa24cc7eacb,2021-10-19_13h45.36.357,forced_choiceRT,2021.1.2,Win32,30.01020347,,,,,,,,6,Slow,g,0,2.1998,2,2,10,0,1,,,,,
,0.22,,,,,,,,,h.PNG,h,6126ad6624eb5fa24cc7eacb,2021-10-19_13h45.36.357,forced_choiceRT,2021.1.2,Win32,30.01020347,,,,,,,,6,Ontime,h,1,2.0673,2,3,11,2,1,,,,,
,1.6,,,,,,,,,j.PNG,j,6126ad6624eb5fa24cc7eacb,2021-10-19_13h45.36.357,forced_choiceRT,2021.1.2,Win32,30.01020347,,,,,,,,6,Ontime,h,0,2.0371,3,0,12,3,1,,,,,
,1.93,,,,,,,,,h.PNG,h,6126ad6624eb5fa24cc7eacb,2021-10-19_13h45.36.357,forced_choiceRT,2021.1.2,Win32,30.01020347,,,,,,,,6,Ontime,h,1,2.0092,3,1,13,2,1,,,,,
,0.02,,,,,,,,,f.PNG,f,6126ad6624eb5fa24cc7eacb,2021-10-19_13h45.36.357,forced_choiceRT,2021.1.2,Win32,30.01020347,,,,,,,,6,Ontime,f,1,1.9106,3,2,14,0,1,,,,,
,0.11,,,,,,,,,j.PNG,j,6126ad6624eb5fa24cc7eacb,2021-10-19_13h45.36.357,forced_choiceRT,2021.1.2,Win32,30.01020347,,,,,,,,6,Ontime,j,1,2.0395,3,3,15,3,1,,,,,
,0.7,,,,,,,,,g.PNG,g,6126ad6624eb5fa24cc7eacb,2021-10-19_13h45.36.357,forced_choiceRT,2021.1.2,Win32,30.01020347,,,,,,,,6,Ontime,g,1,2.0341,4,0,16,1,1,,,,,
,1.81,,,,,,,,,g.PNG,g,6126ad6624eb5fa24cc7eacb,2021-10-19_13h45.36.357,forced_choiceRT,2021.1.2,Win32,30.01020347,,,,,,,,6,Ontime,h,0,1.9757,4,1,17,1,1,,,,,
,1.12,,,,,,,,,g.PNG,g,6126ad6624eb5fa24cc7eacb,2021-10-19_13h45.36.357,forced_choiceRT,2021.1.2,Win32,30.01020347,,,,,,,,6,Ontime,g,1,2.0141,4,2,18,1,1,,,,,
,0.43,,,,,,,,,j.PNG,j,6126ad6624eb5fa24cc7eacb,2021-10-19_13h45.36.357,forced_choiceRT,2021.1.2,Win32,30.01020347,,,,,,,,6,Ontime,j,1,2.0008,4,3,19,3,1,,,,,
,0.36,,,,,,,,,f.PNG,f,6126ad6624eb5fa24cc7eacb,2021-10-19_13h45.36.357,forced_choiceRT,2021.1.2,Win32,30.01020347,,,,,,,,6,Ontime,f,1,1.9377,5,0,20,0,1,,,,,
,1.58,,,,,,,,,g.PNG,g,6126ad6624eb5fa24cc7eacb,2021-10-19_13h45.36.357,forced_choiceRT,2021.1.2,Win32,30.01020347,,,,,,,,6,Ontime,h,0,2.0006,5,1,21,1,1,,,,,
,0.43,,,,,,,,,j.PNG,j,6126ad6624eb5fa24cc7eacb,2021-10-19_13h45.36.357,forced_choiceRT,2021.1.2,Win32,30.01020347,,,,,,,,6,Ontime,j,1,2.0239,5,2,22,3,1,,,,,
,1.04,,,,,,,,,f.PNG,f,6126ad6624eb5fa24cc7eacb,2021-10-19_13h45.36.357,forced_choiceRT,2021.1.2,Win32,30.01020347,,,,,,,,6,Ontime,f,1,1.9674,5,3,23,0,1,,,,,
,0.46,,,,,,,,,j.PNG,j,6126ad6624eb5fa24cc7eacb,2021-10-19_13h45.36.357,forced_choiceRT,2021.1.2,Win32,30.01020347,,,,,,,,6,Fast,j,1,1.8669,6,0,24,3,1,,,,,
,1.79,,,,,,,,,h.PNG,h,6126ad6624eb5fa24cc7eacb,2021-10-19_13h45.36.357,forced_choiceRT,2021.1.2,Win32,30.01020347,,,,,,,,6,Slow,h,1,2.1185,6,1,25,2,1,,,,,
,0.02,,,,,,,,,h.PNG,h,6126ad6624eb5fa24cc7eacb,2021-10-19_13h45.36.357,forced_choiceRT,2021.1.2,Win32,30.01020347,,,,,,,,6,Ontime,h,1,1.9831,6,2,26,2,1,,,,,
,1.14,,,,,,,,,f.PNG,f,6126ad6624eb5fa24cc7eacb,2021-10-19_13h45.36.357,forced_choiceRT,2021.1.2,Win32,30.01020347,,,,,,,,6,Ontime,f,1,1.9416,6,3,27,0,1,,,,,
,0.94,,,,,,,,,f.PNG,f,6126ad6624eb5fa24cc7eacb,2021-10-19_13h45.36.357,forced_choiceRT,2021.1.2,Win32,30.01020347,,,,,,,,6,Ontime,f,1,2.0473,7,0,28,0,1,,,,,
,0.43,,,,,,,,,f.PNG,f,6126ad6624eb5fa24cc7eacb,2021-10-19_13h45.36.357,forced_choiceRT,2021.1.2,Win32,30.01020347,,,,,,,,6,Ontime,f,1,2.0356,7,1,29,0,1,,,,,
,0,,,,,,,,,j.PNG,j,6126ad6624eb5fa24cc7eacb,2021-10-19_13h45.36.357,forced_choiceRT,2021.1.2,Win32,30.01020347,,,,,,,,6,Ontime,j,1,2.0339,7,2,30,3,1,,,,,
,0.01,,,,,,,,,h.PNG,h,6126ad6624eb5fa24cc7eacb,2021-10-19_13h45.36.357,forced_choiceRT,2021.1.2,Win32,30.01020347,,,,,,,,6,Ontime,h,1,1.94,7,3,31,2,1,,,,,
,1.04,,,,,,,,,g.PNG,g,6126ad6624eb5fa24cc7eacb,2021-10-19_13h45.36.357,forced_choiceRT,2021.1.2,Win32,30.01020347,,,,,,,,6,Ontime,g,1,1.987,8,0,32,1,1,,,,,
,1.12,,,,,,,,,h.PNG,h,6126ad6624eb5fa24cc7eacb,2021-10-19_13h45.36.357,forced_choiceRT,2021.1.2,Win32,30.01020347,,,,,,,,6,Ontime,h,1,1.9449,8,1,33,2,1,,,,,
,1.44,,,,,,,,,h.PNG,h,6126ad6624eb5fa24cc7eacb,2021-10-19_13h45.36.357,forced_choiceRT,2021.1.2,Win32,30.01020347,,,,,,,,6,Ontime,h,1,2.05,8,2,34,2,1,,,,,
,0.08,,,,,,,,,j.PNG,j,6126ad6624eb5fa24cc7eacb,2021-10-19_13h45.36.357,forced_choiceRT,2021.1.2,Win32,30.01020347,,,,,,,,6,Fast,j,1,1.8007,8,3,35,3,1,,,,,
,1.63,,,,,,,,,g.PNG,g,6126ad6624eb5fa24cc7eacb,2021-10-19_13h45.36.357,forced_choiceRT,2021.1.2,Win32,30.01020347,,,,,,,,6,Slow,g,1,2.2668,9,0,36,1,1,,,,,
,1.86,,,,,,,,,h.PNG,h,6126ad6624eb5fa24cc7eacb,2021-10-19_13h45.36.357,forced_choiceRT,2021.1.2,Win32,30.01020347,,,,,,,,6,Slow,g,0,2.166,9,1,37,2,1,,,,,
,1.17,,,,,,,,,g.PNG,g,6126ad6624eb5fa24cc7eacb,2021-10-19_13h45.36.357,forced_choiceRT,2021.1.2,Win32,30.01020347,,,,,,,,6,Ontime,g,1,2.0376,9,2,38,1,1,,,,,
,0.69,,,,,,,,,g.PNG,g,6126ad6624eb5fa24cc7eacb,2021-10-19_13h45.36.357,forced_choiceRT,2021.1.2,Win32,30.01020347,,,,,,,,6,Fast,g,1,1.8827,9,3,39,1,1,,,,,
,,,,,,,,,,,,6126ad6624eb5fa24cc7eacb,2021-10-19_13h45.36.357,forced_choiceRT,2021.1.2,Win32,30.01020347,,,,,,,,,,,,,,,,,,5,0,5,0,1
,0.31,,,,,,,,,j.PNG,j,6126ad6624eb5fa24cc7eacb,2021-10-19_13h45.36.357,forced_choiceRT,2021.1.2,Win32,30.01020347,,,,,,,,7,Slow,j,1,2.1079,0,0,0,3,1,,,,,
,0.54,,,,,,,,,h.PNG,h,6126ad6624eb5fa24cc7eacb,2021-10-19_13h45.36.357,forced_choiceRT,2021.1.2,Win32,30.01020347,,,,,,,,7,Ontime,h,1,1.9881,0,1,1,2,1,,,,,
,0.31,,,,,,,,,g.PNG,g,6126ad6624eb5fa24cc7eacb,2021-10-19_13h45.36.357,forced_choiceRT,2021.1.2,Win32,30.01020347,,,,,,,,7,Ontime,g,1,1.9226,0,2,2,1,1,,,,,
,1.9,,,,,,,,,f.PNG,f,6126ad6624eb5fa24cc7eacb,2021-10-19_13h45.36.357,forced_choiceRT,2021.1.2,Win32,30.01020347,,,,,,,,7,Slow,h,0,2.167,0,3,3,0,1,,,,,
,0.61,,,,,,,,,f.PNG,f,6126ad6624eb5fa24cc7eacb,2021-10-19_13h45.36.357,forced_choiceRT,2021.1.2,Win32,30.01020347,,,,,,,,7,Ontime,f,1,2.0006,1,0,4,0,1,,,,,
,0.15,,,,,,,,,h.PNG,h,6126ad6624eb5fa24cc7eacb,2021-10-19_13h45.36.357,forced_choiceRT,2021.1.2,Win32,30.01020347,,,,,,,,7,Ontime,h,1,1.9366,1,1,5,2,1,,,,,
,1.79,,,,,,,,,h.PNG,h,6126ad6624eb5fa24cc7eacb,2021-10-19_13h45.36.357,forced_choiceRT,2021.1.2,Win32,30.01020347,,,,,,,,7,Ontime,j,0,2.0092,1,2,6,2,1,,,,,
,1.98,,,,,,,,,f.PNG,f,6126ad6624eb5fa24cc7eacb,2021-10-19_13h45.36.357,forced_choiceRT,2021.1.2,Win32,30.01020347,,,,,,,,7,Ontime,h,0,2.0396,1,3,7,0,1,,,,,
,1.47,,,,,,,,,g.PNG,g,6126ad6624eb5fa24cc7eacb,2021-10-19_13h45.36.357,forced_choiceRT,2021.1.2,Win32,30.01020347,,,,,,,,7,Ontime,f,0,2.0341,2,0,8,1,1,,,,,
,0.66,,,,,,,,,j.PNG,j,6126ad6624eb5fa24cc7eacb,2021-10-19_13h45.36.357,forced_choiceRT,2021.1.2,Win32,30.01020347,,,,,,,,7,Ontime,j,1,2.0001,2,1,9,3,1,,,,,
,0.44,,,,,,,,,j.PNG,j,6126ad6624eb5fa24cc7eacb,2021-10-19_13h45.36.357,forced_choiceRT,2021.1.2,Win32,30.01020347,,,,,,,,7,Ontime,j,1,2.0065,2,2,10,3,1,,,,,
,0.53,,,,,,,,,j.PNG,j,6126ad6624eb5fa24cc7eacb,2021-10-19_13h45.36.357,forced_choiceRT,2021.1.2,Win32,30.01020347,,,,,,,,7,Ontime,j,1,2.004,2,3,11,3,1,,,,,
,0.5,,,,,,,,,g.PNG,g,6126ad6624eb5fa24cc7eacb,2021-10-19_13h45.36.357,forced_choiceRT,2021.1.2,Win32,30.01020347,,,,,,,,7,Ontime,g,1,2.0888,3,0,12,1,1,,,,,
,1.69,,,,,,,,,f.PNG,f,6126ad6624eb5fa24cc7eacb,2021-10-19_13h45.36.357,forced_choiceRT,2021.1.2,Win32,30.01020347,,,,,,,,7,Slow,h,0,2.1081,3,1,13,0,1,,,,,
,0.52,,,,,,,,,f.PNG,f,6126ad6624eb5fa24cc7eacb,2021-10-19_13h45.36.357,forced_choiceRT,2021.1.2,Win32,30.01020347,,,,,,,,7,Ontime,f,1,2.033,3,2,14,0,1,,,,,
,1.31,,,,,,,,,g.PNG,g,6126ad6624eb5fa24cc7eacb,2021-10-19_13h45.36.357,forced_choiceRT,2021.1.2,Win32,30.01020347,,,,,,,,7,Ontime,g,1,2.0812,3,3,15,1,1,,,,,
,0.38,,,,,,,,,f.PNG,f,6126ad6624eb5fa24cc7eacb,2021-10-19_13h45.36.357,forced_choiceRT,2021.1.2,Win32,30.01020347,,,,,,,,7,Ontime,f,1,1.9159,4,0,16,0,1,,,,,
,0.53,,,,,,,,,j.PNG,j,6126ad6624eb5fa24cc7eacb,2021-10-19_13h45.36.357,forced_choiceRT,2021.1.2,Win32,30.01020347,,,,,,,,7,Ontime,j,1,1.9422,4,1,17,3,1,,,,,
,1.04,,,,,,,,,h.PNG,h,6126ad6624eb5fa24cc7eacb,2021-10-19_13h45.36.357,forced_choiceRT,2021.1.2,Win32,30.01020347,,,,,,,,7,Ontime,h,1,2.0699,4,2,18,2,1,,,,,
,1.26,,,,,,,,,g.PNG,g,6126ad6624eb5fa24cc7eacb,2021-10-19_13h45.36.357,forced_choiceRT,2021.1.2,Win32,30.01020347,,,,,,,,7,Ontime,g,1,2.034,4,3,19,1,1,,,,,
,1.56,,,,,,,,,h.PNG,h,6126ad6624eb5fa24cc7eacb,2021-10-19_13h45.36.357,forced_choiceRT,2021.1.2,Win32,30.01020347,,,,,,,,7,Ontime,h,1,2.0855,5,0,20,2,1,,,,,
,0.29,,,,,,,,,g.PNG,g,6126ad6624eb5fa24cc7eacb,2021-10-19_13h45.36.357,forced_choiceRT,2021.1.2,Win32,30.01020347,,,,,,,,7,Fast,g,1,1.889,5,1,21,1,1,,,,,
,1.43,,,,,,,,,g.PNG,g,6126ad6624eb5fa24cc7eacb,2021-10-19_13h45.36.357,forced_choiceRT,2021.1.2,Win32,30.01020347,,,,,,,,7,Slow,g,1,2.1333,5,2,22,1,1,,,,,
,0.45,,,,,,,,,g.PNG,g,6126ad6624eb5fa24cc7eacb,2021-10-19_13h45.36.357,forced_choiceRT,2021.1.2,Win32,30.01020347,,,,,,,,7,Ontime,g,1,2.0685,5,3,23,1,1,,,,,
,0.14,,,,,,,,,j.PNG,j,6126ad6624eb5fa24cc7eacb,2021-10-19_13h45.36.357,forced_choiceRT,2021.1.2,Win32,30.01020347,,,,,,,,7,Slow,j,1,2.1023,6,0,24,3,1,,,,,
,0.94,,,,,,,,,h.PNG,h,6126ad6624eb5fa24cc7eacb,2021-10-19_13h45.36.357,forced_choiceRT,2021.1.2,Win32,30.01020347,,,,,,,,7,Ontime,h,1,2.0184,6,1,25,2,1,,,,,
,1.22,,,,,,,,,f.PNG,f,6126ad6624eb5fa24cc7eacb,2021-10-19_13h45.36.357,forced_choiceRT,2021.1.2,Win32,30.01020347,,,,,,,,7,Ontime,f,1,2.0011,6,2,26,0,1,,,,,
,1.87,,,,,,,,,j.PNG,j,6126ad6624eb5fa24cc7eacb,2021-10-19_13h45.36.357,forced_choiceRT,2021.1.2,Win32,30.01020347,,,,,,,,7,Slow,g,0,2.1006,6,3,27,3,1,,,,,
,0.67,,,,,,,,,j.PNG,j,6126ad6624eb5fa24cc7eacb,2021-10-19_13h45.36.357,forced_choiceRT,2021.1.2,Win32,30.01020347,,,,,,,,7,Ontime,j,1,2.0238,7,0,28,3,1,,,,,
,0.86,,,,,,,,,f.PNG,f,6126ad6624eb5fa24cc7eacb,2021-10-19_13h45.36.357,forced_choiceRT,2021.1.2,Win32,30.01020347,,,,,,,,7,Ontime,f,1,2.0684,7,1,29,0,1,,,,,
,0.35,,,,,,,,,j.PNG,j,6126ad6624eb5fa24cc7eacb,2021-10-19_13h45.36.357,forced_choiceRT,2021.1.2,Win32,30.01020347,,,,,,,,7,Ontime,j,1,2.0676,7,2,30,3,1,,,,,
,1.12,,,,,,,,,g.PNG,g,6126ad6624eb5fa24cc7eacb,2021-10-19_13h45.36.357,forced_choiceRT,2021.1.2,Win32,30.01020347,,,,,,,,7,Ontime,g,1,2.0107,7,3,31,1,1,,,,,
,0.07,,,,,,,,,h.PNG,h,6126ad6624eb5fa24cc7eacb,2021-10-19_13h45.36.357,forced_choiceRT,2021.1.2,Win32,30.01020347,,,,,,,,7,Ontime,h,1,2.017,8,0,32,2,1,,,,,
,1.59,,,,,,,,,h.PNG,h,6126ad6624eb5fa24cc7eacb,2021-10-19_13h45.36.357,forced_choiceRT,2021.1.2,Win32,30.01020347,,,,,,,,7,Ontime,g,0,2.0781,8,1,33,2,1,,,,,
,1.16,,,,,,,,,h.PNG,h,6126ad6624eb5fa24cc7eacb,2021-10-19_13h45.36.357,forced_choiceRT,2021.1.2,Win32,30.01020347,,,,,,,,7,Ontime,g,0,2.0176,8,2,34,2,1,,,,,
,0.87,,,,,,,,,h.PNG,h,6126ad6624eb5fa24cc7eacb,2021-10-19_13h45.36.357,forced_choiceRT,2021.1.2,Win32,30.01020347,,,,,,,,7,Ontime,h,1,2.0476,8,3,35,2,1,,,,,
,0,,,,,,,,,g.PNG,g,6126ad6624eb5fa24cc7eacb,2021-10-19_13h45.36.357,forced_choiceRT,2021.1.2,Win32,30.01020347,,,,,,,,7,Ontime,g,1,2.0198,9,0,36,1,1,,,,,
,1.77,,,,,,,,,j.PNG,j,6126ad6624eb5fa24cc7eacb,2021-10-19_13h45.36.357,forced_choiceRT,2021.1.2,Win32,30.01020347,,,,,,,,7,Ontime,h,0,2.0409,9,1,37,3,1,,,,,
,0.04,,,,,,,,,f.PNG,f,6126ad6624eb5fa24cc7eacb,2021-10-19_13h45.36.357,forced_choiceRT,2021.1.2,Win32,30.01020347,,,,,,,,7,Ontime,f,1,2.0764,9,2,38,0,1,,,,,
,0.71,,,,,,,,,f.PNG,f,6126ad6624eb5fa24cc7eacb,2021-10-19_13h45.36.357,forced_choiceRT,2021.1.2,Win32,30.01020347,,,,,,,,7,Slow,f,1,2.1001,9,3,39,0,1,,,,,
,,,,,,,,,,,,6126ad6624eb5fa24cc7eacb,2021-10-19_13h45.36.357,forced_choiceRT,2021.1.2,Win32,30.01020347,,,,,,,,,,,,,,,,,,6,0,6,0,1
,1.89,,,,,,,,,f.PNG,f,6126ad6624eb5fa24cc7eacb,2021-10-19_13h45.36.357,forced_choiceRT,2021.1.2,Win32,30.01020347,,,,,,,,8,Slow,h,0,2.1041,0,0,0,0,1,,,,,
,1.05,,,,,,,,,j.PNG,j,6126ad6624eb5fa24cc7eacb,2021-10-19_13h45.36.357,forced_choiceRT,2021.1.2,Win32,30.01020347,,,,,,,,8,Slow,j,1,2.1333,0,1,1,3,1,,,,,
,1.81,,,,,,,,,j.PNG,j,6126ad6624eb5fa24cc7eacb,2021-10-19_13h45.36.357,forced_choiceRT,2021.1.2,Win32,30.01020347,,,,,,,,8,Slow,h,0,2.1,0,2,2,3,1,,,,,
,1.99,,,,,,,,,g.PNG,g,6126ad6624eb5fa24cc7eacb,2021-10-19_13h45.36.357,forced_choiceRT,2021.1.2,Win32,30.01020347,,,,,,,,8,Ontime,j,0,2.0014,0,3,3,1,1,,,,,
,0.83,,,,,,,,,f.PNG,f,6126ad6624eb5fa24cc7eacb,2021-10-19_13h45.36.357,forced_choiceRT,2021.1.2,Win32,30.01020347,,,,,,,,8,Ontime,f,1,2.0497,1,0,4,0,1,,,,,
,0,,,,,,,,,f.PNG,f,6126ad6624eb5fa24cc7eacb,2021-10-19_13h45.36.357,forced_choiceRT,2021.1.2,Win32,30.01020347,,,,,,,,8,Ontime,f,1,2,1,1,5,0,1,,,,,
,1.19,,,,,,,,,h.PNG,h,6126ad6624eb5fa24cc7eacb,2021-10-19_13h45.36.357,forced_choiceRT,2021.1.2,Win32,30.01020347,,,,,,,,8,Slow,h,1,2.1067,1,2,6,2,1,,,,,
,0.77,,,,,,,,,j.PNG,j,6126ad6624eb5fa24cc7eacb,2021-10-19_13h45.36.357,forced_choiceRT,2021.1.2,Win32,30.01020347,,,,,,,,8,Ontime,j,1,1.9725,1,3,7,3,1,,,,,
,0.14,,,,,,,,,f.PNG,f,6126ad6624eb5fa24cc7eacb,2021-10-19_13h45.36.357,forced_choiceRT,2021.1.2,Win32,30.01020347,,,,,,,,8,Ontime,f,1,1.9468,2,0,8,0,1,,,,,
,1.65,,,,,,,,,g.PNG,g,6126ad6624eb5fa24cc7eacb,2021-10-19_13h45.36.357,forced_choiceRT,2021.1.2,Win32,30.01020347,,,,,,,,8,Ontime,h,0,2.0335,2,1,9,1,1,,,,,
,0.28,,,,,,,,,j.PNG,j,6126ad6624eb5fa24cc7eacb,2021-10-19_13h45.36.357,forced_choiceRT,2021.1.2,Win32,30.01020347,,,,,,,,8,Ontime,j,1,2.0002,2,2,10,3,1,,,,,
,0.22,,,,,,,,,f.PNG,f,6126ad6624eb5fa24cc7eacb,2021-10-19_13h45.36.357,forced_choiceRT,2021.1.2,Win32,30.01020347,,,,,,,,8,Ontime,f,1,1.9678,2,3,11,0,1,,,,,
,0.33,,,,,,,,,f.PNG,f,6126ad6624eb5fa24cc7eacb,2021-10-19_13h45.36.357,forced_choiceRT,2021.1.2,Win32,30.01020347,,,,,,,,8,Fast,f,1,1.8527,3,0,12,0,1,,,,,
,1.15,,,,,,,,,h.PNG,h,6126ad6624eb5fa24cc7eacb,2021-10-19_13h45.36.357,forced_choiceRT,2021.1.2,Win32,30.01020347,,,,,,,,8,Ontime,h,1,2.0473,3,1,13,2,1,,,,,
,1.05,,,,,,,,,g.PNG,g,6126ad6624eb5fa24cc7eacb,2021-10-19_13h45.36.357,forced_choiceRT,2021.1.2,Win32,30.01020347,,,,,,,,8,Ontime,g,1,2.0365,3,2,14,1,1,,,,,
,1.15,,,,,,,,,h.PNG,h,6126ad6624eb5fa24cc7eacb,2021-10-19_13h45.36.357,forced_choiceRT,2021.1.2,Win32,30.01020347,,,,,,,,8,Ontime,h,1,2.0334,3,3,15,2,1,,,,,
,1.85,,,,,,,,,j.PNG,j,6126ad6624eb5fa24cc7eacb,2021-10-19_13h45.36.357,forced_choiceRT,2021.1.2,Win32,30.01020347,,,,,,,,8,Ontime,g,0,2.0765,4,0,16,3,1,,,,,
,1.16,,,,,,,,,j.PNG,j,6126ad6624eb5fa24cc7eacb,2021-10-19_13h45.36.357,forced_choiceRT,2021.1.2,Win32,30.01020347,,,,,,,,8,Slow,j,1,2.1347,4,1,17,3,1,,,,,
,0.52,,,,,,,,,g.PNG,g,6126ad6624eb5fa24cc7eacb,2021-10-19_13h45.36.357,forced_choiceRT,2021.1.2,Win32,30.01020347,,,,,,,,8,Ontime,g,1,2.0224,4,2,18,1,1,,,,,
,1.27,,,,,,,,,h.PNG,h,6126ad6624eb5fa24cc7eacb,2021-10-19_13h45.36.357,forced_choiceRT,2021.1.2,Win32,30.01020347,,,,,,,,8,Ontime,h,1,2.0839,4,3,19,2,1,,,,,
,0.35,,,,,,,,,h.PNG,h,6126ad6624eb5fa24cc7eacb,2021-10-19_13h45.36.357,forced_choiceRT,2021.1.2,Win32,30.01020347,,,,,,,,8,Ontime,h,1,2.0673,5,0,20,2,1,,,,,
,0.52,,,,,,,,,j.PNG,j,6126ad6624eb5fa24cc7eacb,2021-10-19_13h45.36.357,forced_choiceRT,2021.1.2,Win32,30.01020347,,,,,,,,8,Slow,j,1,2.2006,5,1,21,3,1,,,,,
,1.06,,,,,,,,,f.PNG,f,6126ad6624eb5fa24cc7eacb,2021-10-19_13h45.36.357,forced_choiceRT,2021.1.2,Win32,30.01020347,,,,,,,,8,Ontime,f,1,1.9009,5,2,22,0,1,,,,,
,1.21,,,,,,,,,j.PNG,j,6126ad6624eb5fa24cc7eacb,2021-10-19_13h45.36.357,forced_choiceRT,2021.1.2,Win32,30.01020347,,,,,,,,8,Ontime,j,1,2.0334,5,3,23,3,1,,,,,
,1.05,,,,,,,,,g.PNG,g,6126ad6624eb5fa24cc7eacb,2021-10-19_13h45.36.357,forced_choiceRT,2021.1.2,Win32,30.01020347,,,,,,,,8,Ontime,g,1,1.9997,6,0,24,1,1,,,,,
,0.3,,,,,,,,,h.PNG,h,6126ad6624eb5fa24cc7eacb,2021-10-19_13h45.36.357,forced_choiceRT,2021.1.2,Win32,30.01020347,,,,,,,,8,Ontime,h,1,2.0685,6,1,25,2,1,,,,,
,1.79,,,,,,,,,f.PNG,f,6126ad6624eb5fa24cc7eacb,2021-10-19_13h45.36.357,forced_choiceRT,2021.1.2,Win32,30.01020347,,,,,,,,8,Ontime,h,0,2.0672,6,2,26,0,1,,,,,
,0.81,,,,,,,,,f.PNG,f,6126ad6624eb5fa24cc7eacb,2021-10-19_13h45.36.357,forced_choiceRT,2021.1.2,Win32,30.01020347,,,,,,,,8,Ontime,f,1,2.0813,6,3,27,0,1,,,,,
,0.92,,,,,,,,,f.PNG,f,6126ad6624eb5fa24cc7eacb,2021-10-19_13h45.36.357,forced_choiceRT,2021.1.2,Win32,30.01020347,,,,,,,,8,Fast,f,1,1.8008,7,0,28,0,1,,,,,
,1.16,,,,,,,,,g.PNG,g,6126ad6624eb5fa24cc7eacb,2021-10-19_13h45.36.357,forced_choiceRT,2021.1.2,Win32,30.01020347,,,,,,,,8,Ontime,g,1,2.0328,7,1,29,1,1,,,,,
,1.62,,,,,,,,,j.PNG,j,6126ad6624eb5fa24cc7eacb,2021-10-19_13h45.36.357,forced_choiceRT,2021.1.2,Win32,30.01020347,,,,,,,,8,Slow,g,0,2.1024,7,2,30,3,1,,,,,
,1.46,,,,,,,,,h.PNG,h,6126ad6624eb5fa24cc7eacb,2021-10-19_13h45.36.357,forced_choiceRT,2021.1.2,Win32,30.01020347,,,,,,,,8,Slow,g,0,2.1137,7,3,31,2,1,,,,,
,1.9,,,,,,,,,h.PNG,h,6126ad6624eb5fa24cc7eacb,2021-10-19_13h45.36.357,forced_choiceRT,2021.1.2,Win32,30.01020347,,,,,,,,8,Ontime,j,0,2.0352,8,0,32,2,1,,,,,
,1.12,,,,,,,,,g.PNG,g,6126ad6624eb5fa24cc7eacb,2021-10-19_13h45.36.357,forced_choiceRT,2021.1.2,Win32,30.01020347,,,,,,,,8,Ontime,g,1,2.0214,8,1,33,1,1,,,,,
,1.88,,,,,,,,,g.PNG,g,6126ad6624eb5fa24cc7eacb,2021-10-19_13h45.36.357,forced_choiceRT,2021.1.2,Win32,30.01020347,,,,,,,,8,Ontime,h,0,2.004,8,2,34,1,1,,,,,
,1.73,,,,,,,,,h.PNG,h,6126ad6624eb5fa24cc7eacb,2021-10-19_13h45.36.357,forced_choiceRT,2021.1.2,Win32,30.01020347,,,,,,,,8,Ontime,h,1,2.0901,8,3,35,2,1,,,,,
,0.85,,,,,,,,,j.PNG,j,6126ad6624eb5fa24cc7eacb,2021-10-19_13h45.36.357,forced_choiceRT,2021.1.2,Win32,30.01020347,,,,,,,,8,Ontime,j,1,2.0827,9,0,36,3,1,,,,,
,1.9,,,,,,,,,g.PNG,g,6126ad6624eb5fa24cc7eacb,2021-10-19_13h45.36.357,forced_choiceRT,2021.1.2,Win32,30.01020347,,,,,,,,8,Ontime,j,0,2.034,9,1,37,1,1,,,,,
,0.43,,,,,,,,,h.PNG,h,6126ad6624eb5fa24cc7eacb,2021-10-19_13h45.36.357,forced_choiceRT,2021.1.2,Win32,30.01020347,,,,,,,,8,Slow,h,1,2.1076,9,2,38,2,1,,,,,
,1.28,,,,,,,,,g.PNG,g,6126ad6624eb5fa24cc7eacb,2021-10-19_13h45.36.357,forced_choiceRT,2021.1.2,Win32,30.01020347,,,,,,,,8,Ontime,g,1,2.0999,9,3,39,1,1,,,,,
,,,,,,,,,,,,6126ad6624eb5fa24cc7eacb,2021-10-19_13h45.36.357,forced_choiceRT,2021.1.2,Win32,30.01020347,,,,,,,,,,,,,,,,,,7,0,7,0,1
,1.95,,,,,,,,,j.PNG,j,6126ad6624eb5fa24cc7eacb,2021-10-19_13h45.36.357,forced_choiceRT,2021.1.2,Win32,30.01020347,,,,,,,,9,Slow,h,0,2.1103,0,0,0,3,1,,,,,
,0.87,,,,,,,,,h.PNG,h,6126ad6624eb5fa24cc7eacb,2021-10-19_13h45.36.357,forced_choiceRT,2021.1.2,Win32,30.01020347,,,,,,,,9,Slow,h,1,2.1103,0,1,1,2,1,,,,,
,1.65,,,,,,,,,f.PNG,f,6126ad6624eb5fa24cc7eacb,2021-10-19_13h45.36.357,forced_choiceRT,2021.1.2,Win32,30.01020347,,,,,,,,9,Ontime,j,0,2.0677,0,2,2,0,1,,,,,
,0.93,,,,,,,,,j.PNG,j,6126ad6624eb5fa24cc7eacb,2021-10-19_13h45.36.357,forced_choiceRT,2021.1.2,Win32,30.01020347,,,,,,,,9,Slow,j,1,2.123,0,3,3,3,1,,,,,
,1.58,,,,,,,,,j.PNG,j,6126ad6624eb5fa24cc7eacb,2021-10-19_13h45.36.357,forced_choiceRT,2021.1.2,Win32,30.01020347,,,,,,,,9,Slow,j,1,2.1887,1,0,4,3,1,,,,,
,1.65,,,,,,,,,h.PNG,h,6126ad6624eb5fa24cc7eacb,2021-10-19_13h45.36.357,forced_choiceRT,2021.1.2,Win32,30.01020347,,,,,,,,9,Ontime,j,0,2.051,1,1,5,2,1,,,,,
,1.78,,,,,,,,,g.PNG,g,6126ad6624eb5fa24cc7eacb,2021-10-19_13h45.36.357,forced_choiceRT,2021.1.2,Win32,30.01020347,,,,,,,,9,Ontime,j,0,1.9754,1,2,6,1,1,,,,,
,0.53,,,,,,,,,j.PNG,j,6126ad6624eb5fa24cc7eacb,2021-10-19_13h45.36.357,forced_choiceRT,2021.1.2,Win32,30.01020347,,,,,,,,9,Ontime,j,1,1.9902,1,3,7,3,1,,,,,
,1.31,,,,,,,,,g.PNG,g,6126ad6624eb5fa24cc7eacb,2021-10-19_13h45.36.357,forced_choiceRT,2021.1.2,Win32,30.01020347,,,,,,,,9,Ontime,g,1,1.9088,2,0,8,1,1,,,,,
,0.6,,,,,,,,,j.PNG,j,6126ad6624eb5fa24cc7eacb,2021-10-19_13h45.36.357,forced_choiceRT,2021.1.2,Win32,30.01020347,,,,,,,,9,Ontime,j,1,2.0006,2,1,9,3,1,,,,,
,0.15,,,,,,,,,f.PNG,f,6126ad6624eb5fa24cc7eacb,2021-10-19_13h45.36.357,forced_choiceRT,2021.1.2,Win32,30.01020347,,,,,,,,9,Fast,f,1,1.7561,2,2,10,0,1,,,,,
,0.71,,,,,,,,,h.PNG,h,6126ad6624eb5fa24cc7eacb,2021-10-19_13h45.36.357,forced_choiceRT,2021.1.2,Win32,30.01020347,,,,,,,,9,Ontime,j,0,2.019,2,3,11,2,1,,,,,
,1.38,,,,,,,,,h.PNG,h,6126ad6624eb5fa24cc7eacb,2021-10-19_13h45.36.357,forced_choiceRT,2021.1.2,Win32,30.01020347,,,,,,,,9,Fast,j,0,1.8326,3,0,12,2,1,,,,,
,0.37,,,,,,,,,g.PNG,g,6126ad6624eb5fa24cc7eacb,2021-10-19_13h45.36.357,forced_choiceRT,2021.1.2,Win32,30.01020347,,,,,,,,9,Ontime,g,1,1.9724,3,1,13,1,1,,,,,
,1.27,,,,,,,,,g.PNG,g,6126ad6624eb5fa24cc7eacb,2021-10-19_13h45.36.357,forced_choiceRT,2021.1.2,Win32,30.01020347,,,,,,,,9,Ontime,g,1,2.0118,3,2,14,1,1,,,,,
,0.21,,,,,,,,,g.PNG,g,6126ad6624eb5fa24cc7eacb,2021-10-19_13h45.36.357,forced_choiceRT,2021.1.2,Win32,30.01020347,,,,,,,,9,Ontime,g,1,2.0347,3,3,15,1,1,,,,,
,0.19,,,,,,,,,g.PNG,g,6126ad6624eb5fa24cc7eacb,2021-10-19_13h45.36.357,forced_choiceRT,2021.1.2,Win32,30.01020347,,,,,,,,9,Ontime,g,1,1.9346,4,0,16,1,1,,,,,
,0.48,,,,,,,,,h.PNG,h,6126ad6624eb5fa24cc7eacb,2021-10-19_13h45.36.357,forced_choiceRT,2021.1.2,Win32,30.01020347,,,,,,,,9,Fast,j,0,1.8861,4,1,17,2,1,,,,,
,1.15,,,,,,,,,f.PNG,f,6126ad6624eb5fa24cc7eacb,2021-10-19_13h45.36.357,forced_choiceRT,2021.1.2,Win32,30.01020347,,,,,,,,9,Ontime,f,1,2.0812,4,2,18,0,1,,,,,
,0.26,,,,,,,,,f.PNG,f,6126ad6624eb5fa24cc7eacb,2021-10-19_13h45.36.357,forced_choiceRT,2021.1.2,Win32,30.01020347,,,,,,,,9,Ontime,f,1,2.0355,4,3,19,0,1,,,,,
,0.61,,,,,,,,,g.PNG,g,6126ad6624eb5fa24cc7eacb,2021-10-19_13h45.36.357,forced_choiceRT,2021.1.2,Win32,30.01020347,,,,,,,,9,Ontime,g,1,2.0999,5,0,20,1,1,,,,,
,0.97,,,,,,,,,j.PNG,j,6126ad6624eb5fa24cc7eacb,2021-10-19_13h45.36.357,forced_choiceRT,2021.1.2,Win32,30.01020347,,,,,,,,9,Slow,j,1,4.6426,5,1,21,3,1,,,,,
,1.91,,,,,,,,,j.PNG,j,6126ad6624eb5fa24cc7eacb,2021-10-19_13h45.36.357,forced_choiceRT,2021.1.2,Win32,30.01020347,,,,,,,,9,Ontime,j,1,2.0387,5,2,22,3,1,,,,,
,1.9,,,,,,,,,h.PNG,h,6126ad6624eb5fa24cc7eacb,2021-10-19_13h45.36.357,forced_choiceRT,2021.1.2,Win32,30.01020347,,,,,,,,9,Ontime,h,1,2.0432,5,3,23,2,1,,,,,
,0.38,,,,,,,,,h.PNG,h,6126ad6624eb5fa24cc7eacb,2021-10-19_13h45.36.357,forced_choiceRT,2021.1.2,Win32,30.01020347,,,,,,,,9,Slow,h,1,2.1002,6,0,24,2,1,,,,,
,1.92,,,,,,,,,f.PNG,f,6126ad6624eb5fa24cc7eacb,2021-10-19_13h45.36.357,forced_choiceRT,2021.1.2,Win32,30.01020347,,,,,,,,9,Ontime,j,0,2.0805,6,1,25,0,1,,,,,
,1.78,,,,,,,,,j.PNG,j,6126ad6624eb5fa24cc7eacb,2021-10-19_13h45.36.357,forced_choiceRT,2021.1.2,Win32,30.01020347,,,,,,,,9,Ontime,j,1,2.0755,6,2,26,3,1,,,,,
,1.36,,,,,,,,,f.PNG,f,6126ad6624eb5fa24cc7eacb,2021-10-19_13h45.36.357,forced_choiceRT,2021.1.2,Win32,30.01020347,,,,,,,,9,Ontime,f,1,2.0679,6,3,27,0,1,,,,,
,0.59,,,,,,,,,g.PNG,g,6126ad6624eb5fa24cc7eacb,2021-10-19_13h45.36.357,forced_choiceRT,2021.1.2,Win32,30.01020347,,,,,,,,9,Ontime,g,1,2.0996,7,0,28,1,1,,,,,
,0.59,,,,,,,,,f.PNG,f,6126ad6624eb5fa24cc7eacb,2021-10-19_13h45.36.357,forced_choiceRT,2021.1.2,Win32,30.01020347,,,,,,,,9,Ontime,f,1,2.0528,7,1,29,0,1,,,,,
,0.13,,,,,,,,,h.PNG,h,6126ad6624eb5fa24cc7eacb,2021-10-19_13h45.36.357,forced_choiceRT,2021.1.2,Win32,30.01020347,,,,,,,,9,Ontime,h,1,2.0813,7,2,30,2,1,,,,,
,0.28,,,,,,,,,j.PNG,j,6126ad6624eb5fa24cc7eacb,2021-10-19_13h45.36.357,forced_choiceRT,2021.1.2,Win32,30.01020347,,,,,,,,9,Ontime,j,1,2.0763,7,3,31,3,1,,,,,
,1.54,,,,,,,,,g.PNG,g,6126ad6624eb5fa24cc7eacb,2021-10-19_13h45.36.357,forced_choiceRT,2021.1.2,Win32,30.01020347,,,,,,,,9,Ontime,h,0,2.081,8,0,32,1,1,,,,,
,1.44,,,,,,,,,f.PNG,f,6126ad6624eb5fa24cc7eacb,2021-10-19_13h45.36.357,forced_choiceRT,2021.1.2,Win32,30.01020347,,,,,,,,9,Ontime,f,1,2.0736,8,1,33,0,1,,,,,
,0.09,,,,,,,,,h.PNG,h,6126ad6624eb5fa24cc7eacb,2021-10-19_13h45.36.357,forced_choiceRT,2021.1.2,Win32,30.01020347,,,,,,,,9,Ontime,h,1,2.0122,8,2,34,2,1,,,,,
,0.72,,,,,,,,,g.PNG,g,6126ad6624eb5fa24cc7eacb,2021-10-19_13h45.36.357,forced_choiceRT,2021.1.2,Win32,30.01020347,,,,,,,,9,Ontime,g,1,2.0333,8,3,35,1,1,,,,,
,0.52,,,,,,,,,h.PNG,h,6126ad6624eb5fa24cc7eacb,2021-10-19_13h45.36.357,forced_choiceRT,2021.1.2,Win32,30.01020347,,,,,,,,9,Ontime,h,1,2.0672,9,0,36,2,1,,,,,
,1.82,,,,,,,,,f.PNG,f,6126ad6624eb5fa24cc7eacb,2021-10-19_13h45.36.357,forced_choiceRT,2021.1.2,Win32,30.01020347,,,,,,,,9,Slow,j,0,2.1327,9,1,37,0,1,,,,,
,1.2,,,,,,,,,j.PNG,j,6126ad6624eb5fa24cc7eacb,2021-10-19_13h45.36.357,forced_choiceRT,2021.1.2,Win32,30.01020347,,,,,,,,9,Slow,j,1,2.1003,9,2,38,3,1,,,,,
,0.26,,,,,,,,,f.PNG,f,6126ad6624eb5fa24cc7eacb,2021-10-19_13h45.36.357,forced_choiceRT,2021.1.2,Win32,30.01020347,,,,,,,,9,Fast,f,1,1.7673,9,3,39,0,1,,,,,
,,,,,,,,,,,,6126ad6624eb5fa24cc7eacb,2021-10-19_13h45.36.357,forced_choiceRT,2021.1.2,Win32,30.01020347,,,,,,,,,,,,,,,,,,8,0,8,0,1
,0,,,,,,,,,f.PNG,f,6126ad6624eb5fa24cc7eacb,2021-10-19_13h45.36.357,forced_choiceRT,2021.1.2,Win32,30.01020347,,,,,,,,10,Fast,f,1,1.8347,0,0,0,0,1,,,,,
,1.21,,,,,,,,,j.PNG,j,6126ad6624eb5fa24cc7eacb,2021-10-19_13h45.36.357,forced_choiceRT,2021.1.2,Win32,30.01020347,,,,,,,,10,Slow,j,1,2.2003,0,1,1,3,1,,,,,
,0.44,,,,,,,,,g.PNG,g,6126ad6624eb5fa24cc7eacb,2021-10-19_13h45.36.357,forced_choiceRT,2021.1.2,Win32,30.01020347,,,,,,,,10,Slow,g,1,2.2009,0,2,2,1,1,,,,,
,0.9,,,,,,,,,f.PNG,f,6126ad6624eb5fa24cc7eacb,2021-10-19_13h45.36.357,forced_choiceRT,2021.1.2,Win32,30.01020347,,,,,,,,10,Ontime,f,1,2.0999,0,3,3,0,1,,,,,
,1.74,,,,,,,,,g.PNG,g,6126ad6624eb5fa24cc7eacb,2021-10-19_13h45.36.357,forced_choiceRT,2021.1.2,Win32,30.01020347,,,,,,,,10,Slow,h,0,2.1003,1,0,4,1,1,,,,,
,1.09,,,,,,,,,j.PNG,j,6126ad6624eb5fa24cc7eacb,2021-10-19_13h45.36.357,forced_choiceRT,2021.1.2,Win32,30.01020347,,,,,,,,10,Slow,j,1,2.1004,1,1,5,3,1,,,,,
,0.12,,,,,,,,,f.PNG,f,6126ad6624eb5fa24cc7eacb,2021-10-19_13h45.36.357,forced_choiceRT,2021.1.2,Win32,30.01020347,,,,,,,,10,Slow,f,1,2.134,1,2,6,0,1,,,,,
,0.99,,,,,,,,,g.PNG,g,6126ad6624eb5fa24cc7eacb,2021-10-19_13h45.36.357,forced_choiceRT,2021.1.2,Win32,30.01020347,,,,,,,,10,Ontime,g,1,2.0676,1,3,7,1,1,,,,,
,1.18,,,,,,,,,j.PNG,j,6126ad6624eb5fa24cc7eacb,2021-10-19_13h45.36.357,forced_choiceRT,2021.1.2,Win32,30.01020347,,,,,,,,10,Slow,j,1,2.1003,2,0,8,3,1,,,,,
,1.34,,,,,,,,,g.PNG,g,6126ad6624eb5fa24cc7eacb,2021-10-19_13h45.36.357,forced_choiceRT,2021.1.2,Win32,30.01020347,,,,,,,,10,Slow,g,1,2.1004,2,1,9,1,1,,,,,
,1.3,,,,,,,,,g.PNG,g,6126ad6624eb5fa24cc7eacb,2021-10-19_13h45.36.357,forced_choiceRT,2021.1.2,Win32,30.01020347,,,,,,,,10,Ontime,g,1,2.0007,2,2,10,1,1,,,,,
,1.68,,,,,,,,,j.PNG,j,6126ad6624eb5fa24cc7eacb,2021-10-19_13h45.36.357,forced_choiceRT,2021.1.2,Win32,30.01020347,,,,,,,,10,Slow,j,1,2.1325,2,3,11,3,1,,,,,
,0.74,,,,,,,,,j.PNG,j,6126ad6624eb5fa24cc7eacb,2021-10-19_13h45.36.357,forced_choiceRT,2021.1.2,Win32,30.01020347,,,,,,,,10,Slow,j,1,2.1667,3,0,12,3,1,,,,,
,0.12,,,,,,,,,f.PNG,f,6126ad6624eb5fa24cc7eacb,2021-10-19_13h45.36.357,forced_choiceRT,2021.1.2,Win32,30.01020347,,,,,,,,10,Ontime,f,1,1.9675,3,1,13,0,1,,,,,
,0.88,,,,,,,,,h.PNG,h,6126ad6624eb5fa24cc7eacb,2021-10-19_13h45.36.357,forced_choiceRT,2021.1.2,Win32,30.01020347,,,,,,,,10,Ontime,g,0,1.9614,3,2,14,2,1,,,,,
,0.97,,,,,,,,,f.PNG,f,6126ad6624eb5fa24cc7eacb,2021-10-19_13h45.36.357,forced_choiceRT,2021.1.2,Win32,30.01020347,,,,,,,,10,Ontime,f,1,1.9003,3,3,15,0,1,,,,,
,1.58,,,,,,,,,h.PNG,h,6126ad6624eb5fa24cc7eacb,2021-10-19_13h45.36.357,forced_choiceRT,2021.1.2,Win32,30.01020347,,,,,,,,10,Ontime,f,0,1.9994,4,0,16,2,1,,,,,
,1.48,,,,,,,,,g.PNG,g,6126ad6624eb5fa24cc7eacb,2021-10-19_13h45.36.357,forced_choiceRT,2021.1.2,Win32,30.01020347,,,,,,,,10,Slow,f,0,2.1662,4,1,17,1,1,,,,,
,1.28,,,,,,,,,j.PNG,j,6126ad6624eb5fa24cc7eacb,2021-10-19_13h45.36.357,forced_choiceRT,2021.1.2,Win32,30.01020347,,,,,,,,10,Ontime,j,1,2.0661,4,2,18,3,1,,,,,
,1.86,,,,,,,,,f.PNG,f,6126ad6624eb5fa24cc7eacb,2021-10-19_13h45.36.357,forced_choiceRT,2021.1.2,Win32,30.01020347,,,,,,,,10,Ontime,j,0,2.0344,4,3,19,0,1,,,,,
,1.63,,,,,,,,,h.PNG,h,6126ad6624eb5fa24cc7eacb,2021-10-19_13h45.36.357,forced_choiceRT,2021.1.2,Win32,30.01020347,,,,,,,,10,Ontime,j,0,2.0335,5,0,20,2,1,,,,,
,0.54,,,,,,,,,h.PNG,h,6126ad6624eb5fa24cc7eacb,2021-10-19_13h45.36.357,forced_choiceRT,2021.1.2,Win32,30.01020347,,,,,,,,10,Ontime,h,1,2.0337,5,1,21,2,1,,,,,
,1.01,,,,,,,,,h.PNG,h,6126ad6624eb5fa24cc7eacb,2021-10-19_13h45.36.357,forced_choiceRT,2021.1.2,Win32,30.01020347,,,,,,,,10,Ontime,h,1,2.0002,5,2,22,2,1,,,,,
,0.71,,,,,,,,,j.PNG,j,6126ad6624eb5fa24cc7eacb,2021-10-19_13h45.36.357,forced_choiceRT,2021.1.2,Win32,30.01020347,,,,,,,,10,Ontime,j,1,1.9669,5,3,23,3,1,,,,,
,1.31,,,,,,,,,j.PNG,j,6126ad6624eb5fa24cc7eacb,2021-10-19_13h45.36.357,forced_choiceRT,2021.1.2,Win32,30.01020347,,,,,,,,10,Ontime,j,1,1.9666,6,0,24,3,1,,,,,
,1.08,,,,,,,,,g.PNG,g,6126ad6624eb5fa24cc7eacb,2021-10-19_13h45.36.357,forced_choiceRT,2021.1.2,Win32,30.01020347,,,,,,,,10,Ontime,g,1,1.934,6,1,25,1,1,,,,,
,0.84,,,,,,,,,f.PNG,f,6126ad6624eb5fa24cc7eacb,2021-10-19_13h45.36.357,forced_choiceRT,2021.1.2,Win32,30.01020347,,,,,,,,10,Ontime,f,1,2.0019,6,2,26,0,1,,,,,
,0.21,,,,,,,,,h.PNG,h,6126ad6624eb5fa24cc7eacb,2021-10-19_13h45.36.357,forced_choiceRT,2021.1.2,Win32,30.01020347,,,,,,,,10,Fast,h,1,1.8676,6,3,27,2,1,,,,,
,0.25,,,,,,,,,h.PNG,h,6126ad6624eb5fa24cc7eacb,2021-10-19_13h45.36.357,forced_choiceRT,2021.1.2,Win32,30.01020347,,,,,,,,10,Ontime,h,1,1.9673,7,0,28,2,1,,,,,
,0.47,,,,,,,,,g.PNG,g,6126ad6624eb5fa24cc7eacb,2021-10-19_13h45.36.357,forced_choiceRT,2021.1.2,Win32,30.01020347,,,,,,,,10,Ontime,g,1,2.0677,7,1,29,1,1,,,,,
,0.47,,,,,,,,,f.PNG,f,6126ad6624eb5fa24cc7eacb,2021-10-19_13h45.36.357,forced_choiceRT,2021.1.2,Win32,30.01020347,,,,,,,,10,Ontime,f,1,2.0679,7,2,30,0,1,,,,,
,1.45,,,,,,,,,g.PNG,g,6126ad6624eb5fa24cc7eacb,2021-10-19_13h45.36.357,forced_choiceRT,2021.1.2,Win32,30.01020347,,,,,,,,10,Ontime,h,0,1.9336,7,3,31,1,1,,,,,
,1.06,,,,,,,,,f.PNG,f,6126ad6624eb5fa24cc7eacb,2021-10-19_13h45.36.357,forced_choiceRT,2021.1.2,Win32,30.01020347,,,,,,,,10,Ontime,f,1,2.0003,8,0,32,0,1,,,,,
,1.25,,,,,,,,,h.PNG,h,6126ad6624eb5fa24cc7eacb,2021-10-19_13h45.36.357,forced_choiceRT,2021.1.2,Win32,30.01020347,,,,,,,,10,Ontime,h,1,2.0009,8,1,33,2,1,,,,,
,1.69,,,,,,,,,f.PNG,f,6126ad6624eb5fa24cc7eacb,2021-10-19_13h45.36.357,forced_choiceRT,2021.1.2,Win32,30.01020347,,,,,,,,10,Slow,g,0,2.1009,8,2,34,0,1,,,,,
,1.54,,,,,,,,,g.PNG,g,6126ad6624eb5fa24cc7eacb,2021-10-19_13h45.36.357,forced_choiceRT,2021.1.2,Win32,30.01020347,,,,,,,,10,Ontime,f,0,2,8,3,35,1,1,,,,,
,1.96,,,,,,,,,h.PNG,h,6126ad6624eb5fa24cc7eacb,2021-10-19_13h45.36.357,forced_choiceRT,2021.1.2,Win32,30.01020347,,,,,,,,10,Ontime,f,0,2.0658,9,0,36,2,1,,,,,
,0.44,,,,,,,,,j.PNG,j,6126ad6624eb5fa24cc7eacb,2021-10-19_13h45.36.357,forced_choiceRT,2021.1.2,Win32,30.01020347,,,,,,,,10,Ontime,j,1,2.0347,9,1,37,3,1,,,,,
,1.2,,,,,,,,,h.PNG,h,6126ad6624eb5fa24cc7eacb,2021-10-19_13h45.36.357,forced_choiceRT,2021.1.2,Win32,30.01020347,,,,,,,,10,Ontime,h,1,1.9342,9,2,38,2,1,,,,,
,0.37,,,,,,,,,j.PNG,j,6126ad6624eb5fa24cc7eacb,2021-10-19_13h45.36.357,forced_choiceRT,2021.1.2,Win32,30.01020347,,,,,,,,10,Ontime,j,1,2.0348,9,3,39,3,1,,,,,
,,,,,,,,,,,,6126ad6624eb5fa24cc7eacb,2021-10-19_13h45.36.357,forced_choiceRT,2021.1.2,Win32,30.01020347,,,,,,,,,,,,,,,,,,9,0,9,0,1
