IP_Addresss,target_onset,trial_resp_sp.keys,trial_resp_sp.corr,trial_resp_sp.rt,trials_train_loop.thisRepN,trials_train_loop.thisTrialN,trials_train_loop.thisN,trials_train_loop.thisIndex,trials_train_loop.ran,pic,correct_key,participant,date,expName,psychopyVersion,OS,frameRate,trial_resp_timing.keys,trial_resp_timing.rt,trials_train_timing.thisRepN,trials_train_timing.thisTrialN,trials_train_timing.thisN,trials_train_timing.thisIndex,trials_train_timing.ran,block_id,ontime,forcedRT_resp.keys,forcedRT_resp.corr,forcedRT_resp.rt,trials.thisRepN,trials.thisTrialN,trials.thisN,trials.thisIndex,trials.ran,blocks.thisRepN,blocks.thisTrialN,blocks.thisN,blocks.thisIndex,blocks.ran
68.114.143.17,0,j,1,4.5546,0,0,0,3,1,j.PNG,j,61292a3404d387db5b0b2a32,2021-10-19_21h15.43.595,forced_choiceRT,2021.1.2,Win32,60.0024001,,,,,,,,,,,,,,,,,,,,,,
,0,j,1,1.357,0,1,1,3,1,j.PNG,j,61292a3404d387db5b0b2a32,2021-10-19_21h15.43.595,forced_choiceRT,2021.1.2,Win32,60.0024001,,,,,,,,,,,,,,,,,,,,,,
,0,h,1,0.654,0,2,2,2,1,h.PNG,h,61292a3404d387db5b0b2a32,2021-10-19_21h15.43.595,forced_choiceRT,2021.1.2,Win32,60.0024001,,,,,,,,,,,,,,,,,,,,,,
,0,f,1,0.645,0,3,3,0,1,f.PNG,f,61292a3404d387db5b0b2a32,2021-10-19_21h15.43.595,forced_choiceRT,2021.1.2,Win32,60.0024001,,,,,,,,,,,,,,,,,,,,,,
,0,f,1,0.5346,1,0,4,0,1,f.PNG,f,61292a3404d387db5b0b2a32,2021-10-19_21h15.43.595,forced_choiceRT,2021.1.2,Win32,60.0024001,,,,,,,,,,,,,,,,,,,,,,
,0,g,1,0.6032,1,1,5,1,1,g.PNG,g,61292a3404d387db5b0b2a32,2021-10-19_21h15.43.595,forced_choiceRT,2021.1.2,Win32,60.0024001,,,,,,,,,,,,,,,,,,,,,,
,0,j,1,0.6535,1,2,6,3,1,j.PNG,j,61292a3404d387db5b0b2a32,2021-10-19_21h15.43.595,forced_choiceRT,2021.1.2,Win32,60.0024001,,,,,,,,,,,,,,,,,,,,,,
,0,f,1,0.7703,1,3,7,0,1,f.PNG,f,61292a3404d387db5b0b2a32,2021-10-19_21h15.43.595,forced_choiceRT,2021.1.2,Win32,60.0024001,,,,,,,,,,,,,,,,,,,,,,
,0,f,1,0.4523,2,0,8,0,1,f.PNG,f,61292a3404d387db5b0b2a32,2021-10-19_21h15.43.595,forced_choiceRT,2021.1.2,Win32,60.0024001,,,,,,,,,,,,,,,,,,,,,,
,0,f,1,0.418,2,1,9,0,1,f.PNG,f,61292a3404d387db5b0b2a32,2021-10-19_21h15.43.595,forced_choiceRT,2021.1.2,Win32,60.0024001,,,,,,,,,,,,,,,,,,,,,,
,0,g,1,0.6028,2,2,10,1,1,g.PNG,g,61292a3404d387db5b0b2a32,2021-10-19_21h15.43.595,forced_choiceRT,2021.1.2,Win32,60.0024001,,,,,,,,,,,,,,,,,,,,,,
,0,h,1,0.8717,2,3,11,2,1,h.PNG,h,61292a3404d387db5b0b2a32,2021-10-19_21h15.43.595,forced_choiceRT,2021.1.2,Win32,60.0024001,,,,,,,,,,,,,,,,,,,,,,
,0,f,1,0.6519,3,0,12,0,1,f.PNG,f,61292a3404d387db5b0b2a32,2021-10-19_21h15.43.595,forced_choiceRT,2021.1.2,Win32,60.0024001,,,,,,,,,,,,,,,,,,,,,,
,0,g,1,0.6694,3,1,13,1,1,g.PNG,g,61292a3404d387db5b0b2a32,2021-10-19_21h15.43.595,forced_choiceRT,2021.1.2,Win32,60.0024001,,,,,,,,,,,,,,,,,,,,,,
,0,g,1,0.4352,3,2,14,1,1,g.PNG,g,61292a3404d387db5b0b2a32,2021-10-19_21h15.43.595,forced_choiceRT,2021.1.2,Win32,60.0024001,,,,,,,,,,,,,,,,,,,,,,
,0,g,1,0.4184,3,3,15,1,1,g.PNG,g,61292a3404d387db5b0b2a32,2021-10-19_21h15.43.595,forced_choiceRT,2021.1.2,Win32,60.0024001,,,,,,,,,,,,,,,,,,,,,,
,0,f,1,0.8202,4,0,16,0,1,f.PNG,f,61292a3404d387db5b0b2a32,2021-10-19_21h15.43.595,forced_choiceRT,2021.1.2,Win32,60.0024001,,,,,,,,,,,,,,,,,,,,,,
,0,h,1,1.0377,4,1,17,2,1,h.PNG,h,61292a3404d387db5b0b2a32,2021-10-19_21h15.43.595,forced_choiceRT,2021.1.2,Win32,60.0024001,,,,,,,,,,,,,,,,,,,,,,
,0,g,1,0.5694,4,2,18,1,1,g.PNG,g,61292a3404d387db5b0b2a32,2021-10-19_21h15.43.595,forced_choiceRT,2021.1.2,Win32,60.0024001,,,,,,,,,,,,,,,,,,,,,,
,0,j,1,0.8706,4,3,19,3,1,j.PNG,j,61292a3404d387db5b0b2a32,2021-10-19_21h15.43.595,forced_choiceRT,2021.1.2,Win32,60.0024001,,,,,,,,,,,,,,,,,,,,,,
,0,h,1,0.5859,5,0,20,2,1,h.PNG,h,61292a3404d387db5b0b2a32,2021-10-19_21h15.43.595,forced_choiceRT,2021.1.2,Win32,60.0024001,,,,,,,,,,,,,,,,,,,,,,
,0,g,1,1.0212,5,1,21,1,1,g.PNG,g,61292a3404d387db5b0b2a32,2021-10-19_21h15.43.595,forced_choiceRT,2021.1.2,Win32,60.0024001,,,,,,,,,,,,,,,,,,,,,,
,0,g,1,0.4685,5,2,22,1,1,g.PNG,g,61292a3404d387db5b0b2a32,2021-10-19_21h15.43.595,forced_choiceRT,2021.1.2,Win32,60.0024001,,,,,,,,,,,,,,,,,,,,,,
,0,j,1,1.0213,5,3,23,3,1,j.PNG,j,61292a3404d387db5b0b2a32,2021-10-19_21h15.43.595,forced_choiceRT,2021.1.2,Win32,60.0024001,,,,,,,,,,,,,,,,,,,,,,
,0,g,1,0.9544,6,0,24,1,1,g.PNG,g,61292a3404d387db5b0b2a32,2021-10-19_21h15.43.595,forced_choiceRT,2021.1.2,Win32,60.0024001,,,,,,,,,,,,,,,,,,,,,,
,0,g,1,0.6197,6,1,25,1,1,g.PNG,g,61292a3404d387db5b0b2a32,2021-10-19_21h15.43.595,forced_choiceRT,2021.1.2,Win32,60.0024001,,,,,,,,,,,,,,,,,,,,,,
,0,h,1,0.7538,6,2,26,2,1,h.PNG,h,61292a3404d387db5b0b2a32,2021-10-19_21h15.43.595,forced_choiceRT,2021.1.2,Win32,60.0024001,,,,,,,,,,,,,,,,,,,,,,
,0,h,1,0.7034,6,3,27,2,1,h.PNG,h,61292a3404d387db5b0b2a32,2021-10-19_21h15.43.595,forced_choiceRT,2021.1.2,Win32,60.0024001,,,,,,,,,,,,,,,,,,,,,,
,0,f,1,0.77,7,0,28,0,1,f.PNG,f,61292a3404d387db5b0b2a32,2021-10-19_21h15.43.595,forced_choiceRT,2021.1.2,Win32,60.0024001,,,,,,,,,,,,,,,,,,,,,,
,0,h,1,0.5694,7,1,29,2,1,h.PNG,h,61292a3404d387db5b0b2a32,2021-10-19_21h15.43.595,forced_choiceRT,2021.1.2,Win32,60.0024001,,,,,,,,,,,,,,,,,,,,,,
,0,h,1,0.4519,7,2,30,2,1,h.PNG,h,61292a3404d387db5b0b2a32,2021-10-19_21h15.43.595,forced_choiceRT,2021.1.2,Win32,60.0024001,,,,,,,,,,,,,,,,,,,,,,
,0,h,0,0.4184,7,3,31,0,1,f.PNG,f,61292a3404d387db5b0b2a32,2021-10-19_21h15.43.595,forced_choiceRT,2021.1.2,Win32,60.0024001,,,,,,,,,,,,,,,,,,,,,,
,0,j,1,0.7367,8,0,32,3,1,j.PNG,j,61292a3404d387db5b0b2a32,2021-10-19_21h15.43.595,forced_choiceRT,2021.1.2,Win32,60.0024001,,,,,,,,,,,,,,,,,,,,,,
,0,j,1,0.5523,8,1,33,3,1,j.PNG,j,61292a3404d387db5b0b2a32,2021-10-19_21h15.43.595,forced_choiceRT,2021.1.2,Win32,60.0024001,,,,,,,,,,,,,,,,,,,,,,
,0,g,0,0.5693,8,2,34,2,1,h.PNG,h,61292a3404d387db5b0b2a32,2021-10-19_21h15.43.595,forced_choiceRT,2021.1.2,Win32,60.0024001,,,,,,,,,,,,,,,,,,,,,,
,0,h,1,0.5687,8,3,35,2,1,h.PNG,h,61292a3404d387db5b0b2a32,2021-10-19_21h15.43.595,forced_choiceRT,2021.1.2,Win32,60.0024001,,,,,,,,,,,,,,,,,,,,,,
,0,f,1,0.5857,9,0,36,0,1,f.PNG,f,61292a3404d387db5b0b2a32,2021-10-19_21h15.43.595,forced_choiceRT,2021.1.2,Win32,60.0024001,,,,,,,,,,,,,,,,,,,,,,
,0,f,1,0.502,9,1,37,0,1,f.PNG,f,61292a3404d387db5b0b2a32,2021-10-19_21h15.43.595,forced_choiceRT,2021.1.2,Win32,60.0024001,,,,,,,,,,,,,,,,,,,,,,
,0,f,1,0.4187,9,2,38,0,1,f.PNG,f,61292a3404d387db5b0b2a32,2021-10-19_21h15.43.595,forced_choiceRT,2021.1.2,Win32,60.0024001,,,,,,,,,,,,,,,,,,,,,,
,0,j,1,0.5695,9,3,39,3,1,j.PNG,j,61292a3404d387db5b0b2a32,2021-10-19_21h15.43.595,forced_choiceRT,2021.1.2,Win32,60.0024001,,,,,,,,,,,,,,,,,,,,,,
,0,h,1,0.5023,10,0,40,2,1,h.PNG,h,61292a3404d387db5b0b2a32,2021-10-19_21h15.43.595,forced_choiceRT,2021.1.2,Win32,60.0024001,,,,,,,,,,,,,,,,,,,,,,
,0,h,1,1.0714,10,1,41,2,1,h.PNG,h,61292a3404d387db5b0b2a32,2021-10-19_21h15.43.595,forced_choiceRT,2021.1.2,Win32,60.0024001,,,,,,,,,,,,,,,,,,,,,,
,0,g,1,0.77,10,2,42,1,1,g.PNG,g,61292a3404d387db5b0b2a32,2021-10-19_21h15.43.595,forced_choiceRT,2021.1.2,Win32,60.0024001,,,,,,,,,,,,,,,,,,,,,,
,0,f,1,0.6529,10,3,43,0,1,f.PNG,f,61292a3404d387db5b0b2a32,2021-10-19_21h15.43.595,forced_choiceRT,2021.1.2,Win32,60.0024001,,,,,,,,,,,,,,,,,,,,,,
,0,g,1,1.189,11,0,44,1,1,g.PNG,g,61292a3404d387db5b0b2a32,2021-10-19_21h15.43.595,forced_choiceRT,2021.1.2,Win32,60.0024001,,,,,,,,,,,,,,,,,,,,,,
,0,h,1,0.5018,11,1,45,2,1,h.PNG,h,61292a3404d387db5b0b2a32,2021-10-19_21h15.43.595,forced_choiceRT,2021.1.2,Win32,60.0024001,,,,,,,,,,,,,,,,,,,,,,
,0,f,1,0.6542,11,2,46,0,1,f.PNG,f,61292a3404d387db5b0b2a32,2021-10-19_21h15.43.595,forced_choiceRT,2021.1.2,Win32,60.0024001,,,,,,,,,,,,,,,,,,,,,,
,0,f,1,0.5357,11,3,47,0,1,f.PNG,f,61292a3404d387db5b0b2a32,2021-10-19_21h15.43.595,forced_choiceRT,2021.1.2,Win32,60.0024001,,,,,,,,,,,,,,,,,,,,,,
,0,j,1,0.6542,12,0,48,3,1,j.PNG,j,61292a3404d387db5b0b2a32,2021-10-19_21h15.43.595,forced_choiceRT,2021.1.2,Win32,60.0024001,,,,,,,,,,,,,,,,,,,,,,
,0,g,1,0.6867,12,1,49,1,1,g.PNG,g,61292a3404d387db5b0b2a32,2021-10-19_21h15.43.595,forced_choiceRT,2021.1.2,Win32,60.0024001,,,,,,,,,,,,,,,,,,,,,,
,0,j,1,0.7196,12,2,50,3,1,j.PNG,j,61292a3404d387db5b0b2a32,2021-10-19_21h15.43.595,forced_choiceRT,2021.1.2,Win32,60.0024001,,,,,,,,,,,,,,,,,,,,,,
,0,j,1,0.5021,12,3,51,3,1,j.PNG,j,61292a3404d387db5b0b2a32,2021-10-19_21h15.43.595,forced_choiceRT,2021.1.2,Win32,60.0024001,,,,,,,,,,,,,,,,,,,,,,
,0,g,1,1.1387,13,0,52,1,1,g.PNG,g,61292a3404d387db5b0b2a32,2021-10-19_21h15.43.595,forced_choiceRT,2021.1.2,Win32,60.0024001,,,,,,,,,,,,,,,,,,,,,,
,0,j,1,0.6191,13,1,53,3,1,j.PNG,j,61292a3404d387db5b0b2a32,2021-10-19_21h15.43.595,forced_choiceRT,2021.1.2,Win32,60.0024001,,,,,,,,,,,,,,,,,,,,,,
,0,h,1,0.5692,13,2,54,2,1,h.PNG,h,61292a3404d387db5b0b2a32,2021-10-19_21h15.43.595,forced_choiceRT,2021.1.2,Win32,60.0024001,,,,,,,,,,,,,,,,,,,,,,
,0,g,1,0.7538,13,3,55,1,1,g.PNG,g,61292a3404d387db5b0b2a32,2021-10-19_21h15.43.595,forced_choiceRT,2021.1.2,Win32,60.0024001,,,,,,,,,,,,,,,,,,,,,,
,0,h,1,0.5523,14,0,56,2,1,h.PNG,h,61292a3404d387db5b0b2a32,2021-10-19_21h15.43.595,forced_choiceRT,2021.1.2,Win32,60.0024001,,,,,,,,,,,,,,,,,,,,,,
,0,j,1,1.792,14,1,57,3,1,j.PNG,j,61292a3404d387db5b0b2a32,2021-10-19_21h15.43.595,forced_choiceRT,2021.1.2,Win32,60.0024001,,,,,,,,,,,,,,,,,,,,,,
,0,j,1,0.653,14,2,58,3,1,j.PNG,j,61292a3404d387db5b0b2a32,2021-10-19_21h15.43.595,forced_choiceRT,2021.1.2,Win32,60.0024001,,,,,,,,,,,,,,,,,,,,,,
,0,j,1,0.6027,14,3,59,3,1,j.PNG,j,61292a3404d387db5b0b2a32,2021-10-19_21h15.43.595,forced_choiceRT,2021.1.2,Win32,60.0024001,,,,,,,,,,,,,,,,,,,,,,
,,,,,,,,,,,,61292a3404d387db5b0b2a32,2021-10-19_21h15.43.595,forced_choiceRT,2021.1.2,Win32,60.0024001,j,1.623,0,0,0,0,1,,,,,,,,,,,,,,,
,,,,,,,,,,,,61292a3404d387db5b0b2a32,2021-10-19_21h15.43.595,forced_choiceRT,2021.1.2,Win32,60.0024001,j,1.9106,1,0,1,0,1,,,,,,,,,,,,,,,
,,,,,,,,,,,,61292a3404d387db5b0b2a32,2021-10-19_21h15.43.595,forced_choiceRT,2021.1.2,Win32,60.0024001,h,1.9246,2,0,2,0,1,,,,,,,,,,,,,,,
,,,,,,,,,,,,61292a3404d387db5b0b2a32,2021-10-19_21h15.43.595,forced_choiceRT,2021.1.2,Win32,60.0024001,h,1.8934,3,0,3,0,1,,,,,,,,,,,,,,,
,,,,,,,,,,,,61292a3404d387db5b0b2a32,2021-10-19_21h15.43.595,forced_choiceRT,2021.1.2,Win32,60.0024001,h,1.8935,4,0,4,0,1,,,,,,,,,,,,,,,
,,,,,,,,,,,,61292a3404d387db5b0b2a32,2021-10-19_21h15.43.595,forced_choiceRT,2021.1.2,Win32,60.0024001,g,1.8767,5,0,5,0,1,,,,,,,,,,,,,,,
,,,,,,,,,,,,61292a3404d387db5b0b2a32,2021-10-19_21h15.43.595,forced_choiceRT,2021.1.2,Win32,60.0024001,h,1.7775,6,0,6,0,1,,,,,,,,,,,,,,,
,,,,,,,,,,,,61292a3404d387db5b0b2a32,2021-10-19_21h15.43.595,forced_choiceRT,2021.1.2,Win32,60.0024001,h,1.9943,7,0,7,0,1,,,,,,,,,,,,,,,
,,,,,,,,,,,,61292a3404d387db5b0b2a32,2021-10-19_21h15.43.595,forced_choiceRT,2021.1.2,Win32,60.0024001,h,1.9775,8,0,8,0,1,,,,,,,,,,,,,,,
,,,,,,,,,,,,61292a3404d387db5b0b2a32,2021-10-19_21h15.43.595,forced_choiceRT,2021.1.2,Win32,60.0024001,h,1.8771,9,0,9,0,1,,,,,,,,,,,,,,,
,,,,,,,,,,,,61292a3404d387db5b0b2a32,2021-10-19_21h15.43.595,forced_choiceRT,2021.1.2,Win32,60.0024001,h,1.9772,10,0,10,0,1,,,,,,,,,,,,,,,
,,,,,,,,,,,,61292a3404d387db5b0b2a32,2021-10-19_21h15.43.595,forced_choiceRT,2021.1.2,Win32,60.0024001,h,1.9101,11,0,11,0,1,,,,,,,,,,,,,,,
,,,,,,,,,,,,61292a3404d387db5b0b2a32,2021-10-19_21h15.43.595,forced_choiceRT,2021.1.2,Win32,60.0024001,h,1.994,12,0,12,0,1,,,,,,,,,,,,,,,
,,,,,,,,,,,,61292a3404d387db5b0b2a32,2021-10-19_21h15.43.595,forced_choiceRT,2021.1.2,Win32,60.0024001,h,1.9101,13,0,13,0,1,,,,,,,,,,,,,,,
,,,,,,,,,,,,61292a3404d387db5b0b2a32,2021-10-19_21h15.43.595,forced_choiceRT,2021.1.2,Win32,60.0024001,h,1.877,14,0,14,0,1,,,,,,,,,,,,,,,
,,,,,,,,,,,,61292a3404d387db5b0b2a32,2021-10-19_21h15.43.595,forced_choiceRT,2021.1.2,Win32,60.0024001,h,1.9431,15,0,15,0,1,,,,,,,,,,,,,,,
,,,,,,,,,,,,61292a3404d387db5b0b2a32,2021-10-19_21h15.43.595,forced_choiceRT,2021.1.2,Win32,60.0024001,h,1.9444,16,0,16,0,1,,,,,,,,,,,,,,,
,,,,,,,,,,,,61292a3404d387db5b0b2a32,2021-10-19_21h15.43.595,forced_choiceRT,2021.1.2,Win32,60.0024001,h,1.8931,17,0,17,0,1,,,,,,,,,,,,,,,
,,,,,,,,,,,,61292a3404d387db5b0b2a32,2021-10-19_21h15.43.595,forced_choiceRT,2021.1.2,Win32,60.0024001,h,1.9935,18,0,18,0,1,,,,,,,,,,,,,,,
,,,,,,,,,,,,61292a3404d387db5b0b2a32,2021-10-19_21h15.43.595,forced_choiceRT,2021.1.2,Win32,60.0024001,h,1.9092,19,0,19,0,1,,,,,,,,,,,,,,,
,1.29,,,,,,,,,g.PNG,g,61292a3404d387db5b0b2a32,2021-10-19_21h15.43.595,forced_choiceRT,2021.1.2,Win32,60.0024001,,,,,,,,1,Ontime,g,1,1.9235,0,0,0,1,1,,,,,
,1.22,,,,,,,,,j.PNG,j,61292a3404d387db5b0b2a32,2021-10-19_21h15.43.595,forced_choiceRT,2021.1.2,Win32,60.0024001,,,,,,,,1,Fast,j,1,1.7591,0,1,1,3,1,,,,,
,1.38,,,,,,,,,g.PNG,g,61292a3404d387db5b0b2a32,2021-10-19_21h15.43.595,forced_choiceRT,2021.1.2,Win32,60.0024001,,,,,,,,1,Fast,g,1,1.877,0,2,2,1,1,,,,,
,0.51,,,,,,,,,j.PNG,j,61292a3404d387db5b0b2a32,2021-10-19_21h15.43.595,forced_choiceRT,2021.1.2,Win32,60.0024001,,,,,,,,1,Ontime,j,1,1.9439,0,3,3,3,1,,,,,
,0.2,,,,,,,,,f.PNG,f,61292a3404d387db5b0b2a32,2021-10-19_21h15.43.595,forced_choiceRT,2021.1.2,Win32,60.0024001,,,,,,,,1,Fast,f,1,1.8769,1,0,4,0,1,,,,,
,1.64,,,,,,,,,h.PNG,h,61292a3404d387db5b0b2a32,2021-10-19_21h15.43.595,forced_choiceRT,2021.1.2,Win32,60.0024001,,,,,,,,1,Slow,j,0,2.2288,1,1,5,2,1,,,,,
,0.65,,,,,,,,,j.PNG,j,61292a3404d387db5b0b2a32,2021-10-19_21h15.43.595,forced_choiceRT,2021.1.2,Win32,60.0024001,,,,,,,,1,Ontime,j,1,1.9603,1,2,6,3,1,,,,,
,0.67,,,,,,,,,h.PNG,h,61292a3404d387db5b0b2a32,2021-10-19_21h15.43.595,forced_choiceRT,2021.1.2,Win32,60.0024001,,,,,,,,1,Fast,h,1,1.8604,1,3,7,2,1,,,,,
,0.39,,,,,,,,,g.PNG,g,61292a3404d387db5b0b2a32,2021-10-19_21h15.43.595,forced_choiceRT,2021.1.2,Win32,60.0024001,,,,,,,,1,Ontime,g,1,1.9269,2,0,8,1,1,,,,,
,1.39,,,,,,,,,j.PNG,j,61292a3404d387db5b0b2a32,2021-10-19_21h15.43.595,forced_choiceRT,2021.1.2,Win32,60.0024001,,,,,,,,1,Ontime,j,1,2.0107,2,1,9,3,1,,,,,
,1.86,,,,,,,,,h.PNG,h,61292a3404d387db5b0b2a32,2021-10-19_21h15.43.595,forced_choiceRT,2021.1.2,Win32,60.0024001,,,,,,,,1,Slow,h,1,2.3281,2,2,10,2,1,,,,,
,0,,,,,,,,,f.PNG,f,61292a3404d387db5b0b2a32,2021-10-19_21h15.43.595,forced_choiceRT,2021.1.2,Win32,60.0024001,,,,,,,,1,Ontime,f,1,1.9426,2,3,11,0,1,,,,,
,0.02,,,,,,,,,g.PNG,g,61292a3404d387db5b0b2a32,2021-10-19_21h15.43.595,forced_choiceRT,2021.1.2,Win32,60.0024001,,,,,,,,1,Fast,g,1,1.8928,3,0,12,1,1,,,,,
,0.72,,,,,,,,,g.PNG,g,61292a3404d387db5b0b2a32,2021-10-19_21h15.43.595,forced_choiceRT,2021.1.2,Win32,60.0024001,,,,,,,,1,Ontime,g,1,1.9607,3,1,13,1,1,,,,,
,1.9,,,,,,,,,f.PNG,f,61292a3404d387db5b0b2a32,2021-10-19_21h15.43.595,forced_choiceRT,2021.1.2,Win32,60.0024001,,,,,,,,1,Slow,h,0,2.1441,3,2,14,0,1,,,,,
,1.06,,,,,,,,,f.PNG,f,61292a3404d387db5b0b2a32,2021-10-19_21h15.43.595,forced_choiceRT,2021.1.2,Win32,60.0024001,,,,,,,,1,Fast,f,1,1.8099,3,3,15,0,1,,,,,
,0.75,,,,,,,,,j.PNG,j,61292a3404d387db5b0b2a32,2021-10-19_21h15.43.595,forced_choiceRT,2021.1.2,Win32,60.0024001,,,,,,,,1,Ontime,j,1,1.9616,4,0,16,3,1,,,,,
,1.48,,,,,,,,,j.PNG,j,61292a3404d387db5b0b2a32,2021-10-19_21h15.43.595,forced_choiceRT,2021.1.2,Win32,60.0024001,,,,,,,,1,Slow,j,1,2.1446,4,1,17,3,1,,,,,
,0.59,,,,,,,,,h.PNG,h,61292a3404d387db5b0b2a32,2021-10-19_21h15.43.595,forced_choiceRT,2021.1.2,Win32,60.0024001,,,,,,,,1,Fast,h,1,1.8434,4,2,18,2,1,,,,,
,0.47,,,,,,,,,h.PNG,h,61292a3404d387db5b0b2a32,2021-10-19_21h15.43.595,forced_choiceRT,2021.1.2,Win32,60.0024001,,,,,,,,1,Ontime,h,1,1.9941,4,3,19,2,1,,,,,
,0.73,,,,,,,,,h.PNG,h,61292a3404d387db5b0b2a32,2021-10-19_21h15.43.595,forced_choiceRT,2021.1.2,Win32,60.0024001,,,,,,,,1,Ontime,h,1,2.0445,5,0,20,2,1,,,,,
,0.49,,,,,,,,,j.PNG,j,61292a3404d387db5b0b2a32,2021-10-19_21h15.43.595,forced_choiceRT,2021.1.2,Win32,60.0024001,,,,,,,,1,Ontime,j,1,1.9102,5,1,21,3,1,,,,,
,1.13,,,,,,,,,f.PNG,f,61292a3404d387db5b0b2a32,2021-10-19_21h15.43.595,forced_choiceRT,2021.1.2,Win32,60.0024001,,,,,,,,1,Ontime,f,1,1.9439,5,2,22,0,1,,,,,
,1.3,,,,,,,,,f.PNG,f,61292a3404d387db5b0b2a32,2021-10-19_21h15.43.595,forced_choiceRT,2021.1.2,Win32,60.0024001,,,,,,,,1,Slow,f,1,2.1281,5,3,23,0,1,,,,,
,1.93,,,,,,,,,h.PNG,h,61292a3404d387db5b0b2a32,2021-10-19_21h15.43.595,forced_choiceRT,2021.1.2,Win32,60.0024001,,,,,,,,1,Slow,j,0,2.1787,6,0,24,2,1,,,,,
,1.54,,,,,,,,,g.PNG,g,61292a3404d387db5b0b2a32,2021-10-19_21h15.43.595,forced_choiceRT,2021.1.2,Win32,60.0024001,,,,,,,,1,Ontime,g,1,2.0779,6,1,25,1,1,,,,,
,0.21,,,,,,,,,j.PNG,j,61292a3404d387db5b0b2a32,2021-10-19_21h15.43.595,forced_choiceRT,2021.1.2,Win32,60.0024001,,,,,,,,1,Ontime,j,1,1.9269,6,2,26,3,1,,,,,
,0.75,,,,,,,,,g.PNG,g,61292a3404d387db5b0b2a32,2021-10-19_21h15.43.595,forced_choiceRT,2021.1.2,Win32,60.0024001,,,,,,,,1,Ontime,g,1,1.9774,6,3,27,1,1,,,,,
,1.43,,,,,,,,,j.PNG,j,61292a3404d387db5b0b2a32,2021-10-19_21h15.43.595,forced_choiceRT,2021.1.2,Win32,60.0024001,,,,,,,,1,Ontime,j,1,1.9774,7,0,28,3,1,,,,,
,1.35,,,,,,,,,g.PNG,g,61292a3404d387db5b0b2a32,2021-10-19_21h15.43.595,forced_choiceRT,2021.1.2,Win32,60.0024001,,,,,,,,1,Ontime,g,1,2.0107,7,1,29,1,1,,,,,
,0.42,,,,,,,,,h.PNG,h,61292a3404d387db5b0b2a32,2021-10-19_21h15.43.595,forced_choiceRT,2021.1.2,Win32,60.0024001,,,,,,,,1,Ontime,h,1,1.9265,7,2,30,2,1,,,,,
,1.52,,,,,,,,,f.PNG,f,61292a3404d387db5b0b2a32,2021-10-19_21h15.43.595,forced_choiceRT,2021.1.2,Win32,60.0024001,,,,,,,,1,Ontime,g,0,1.9606,7,3,31,0,1,,,,,
,1.15,,,,,,,,,j.PNG,j,61292a3404d387db5b0b2a32,2021-10-19_21h15.43.595,forced_choiceRT,2021.1.2,Win32,60.0024001,,,,,,,,1,Ontime,j,1,1.994,8,0,32,3,1,,,,,
,0.9,,,,,,,,,h.PNG,h,61292a3404d387db5b0b2a32,2021-10-19_21h15.43.595,forced_choiceRT,2021.1.2,Win32,60.0024001,,,,,,,,1,Ontime,h,1,1.995,8,1,33,2,1,,,,,
,0.43,,,,,,,,,f.PNG,f,61292a3404d387db5b0b2a32,2021-10-19_21h15.43.595,forced_choiceRT,2021.1.2,Win32,60.0024001,,,,,,,,1,Ontime,f,1,2.0611,8,2,34,0,1,,,,,
,1.52,,,,,,,,,f.PNG,f,61292a3404d387db5b0b2a32,2021-10-19_21h15.43.595,forced_choiceRT,2021.1.2,Win32,60.0024001,,,,,,,,1,Ontime,h,0,2.0108,8,3,35,0,1,,,,,
,1.83,,,,,,,,,f.PNG,f,61292a3404d387db5b0b2a32,2021-10-19_21h15.43.595,forced_choiceRT,2021.1.2,Win32,60.0024001,,,,,,,,1,Slow,g,0,2.3288,9,0,36,0,1,,,,,
,0.64,,,,,,,,,h.PNG,h,61292a3404d387db5b0b2a32,2021-10-19_21h15.43.595,forced_choiceRT,2021.1.2,Win32,60.0024001,,,,,,,,1,Ontime,h,1,1.9606,9,1,37,2,1,,,,,
,0.93,,,,,,,,,g.PNG,g,61292a3404d387db5b0b2a32,2021-10-19_21h15.43.595,forced_choiceRT,2021.1.2,Win32,60.0024001,,,,,,,,1,Fast,g,1,1.8768,9,2,38,1,1,,,,,
,0.99,,,,,,,,,g.PNG,g,61292a3404d387db5b0b2a32,2021-10-19_21h15.43.595,forced_choiceRT,2021.1.2,Win32,60.0024001,,,,,,,,1,Ontime,g,1,1.9438,9,3,39,1,1,,,,,
,,,,,,,,,,,,61292a3404d387db5b0b2a32,2021-10-19_21h15.43.595,forced_choiceRT,2021.1.2,Win32,60.0024001,,,,,,,,,,,,,,,,,,0,0,0,0,1
,0.68,,,,,,,,,j.PNG,j,61292a3404d387db5b0b2a32,2021-10-19_21h15.43.595,forced_choiceRT,2021.1.2,Win32,60.0024001,,,,,,,,2,Ontime,j,1,2.0495,0,0,0,3,1,,,,,
,1.65,,,,,,,,,f.PNG,f,61292a3404d387db5b0b2a32,2021-10-19_21h15.43.595,forced_choiceRT,2021.1.2,Win32,60.0024001,,,,,,,,2,Slow,g,0,2.1282,0,1,1,0,1,,,,,
,0.06,,,,,,,,,j.PNG,j,61292a3404d387db5b0b2a32,2021-10-19_21h15.43.595,forced_choiceRT,2021.1.2,Win32,60.0024001,,,,,,,,2,Ontime,j,1,2.0268,0,2,2,3,1,,,,,
,0.17,,,,,,,,,h.PNG,h,61292a3404d387db5b0b2a32,2021-10-19_21h15.43.595,forced_choiceRT,2021.1.2,Win32,60.0024001,,,,,,,,2,Fast,h,1,1.8433,0,3,3,2,1,,,,,
,1.05,,,,,,,,,g.PNG,g,61292a3404d387db5b0b2a32,2021-10-19_21h15.43.595,forced_choiceRT,2021.1.2,Win32,60.0024001,,,,,,,,2,Ontime,g,1,1.9433,1,0,4,1,1,,,,,
,0.69,,,,,,,,,f.PNG,f,61292a3404d387db5b0b2a32,2021-10-19_21h15.43.595,forced_choiceRT,2021.1.2,Win32,60.0024001,,,,,,,,2,Ontime,f,1,2.0623,1,1,5,0,1,,,,,
,1.23,,,,,,,,,f.PNG,f,61292a3404d387db5b0b2a32,2021-10-19_21h15.43.595,forced_choiceRT,2021.1.2,Win32,60.0024001,,,,,,,,2,Ontime,f,1,1.9933,1,2,6,0,1,,,,,
,0.36,,,,,,,,,g.PNG,g,61292a3404d387db5b0b2a32,2021-10-19_21h15.43.595,forced_choiceRT,2021.1.2,Win32,60.0024001,,,,,,,,2,Ontime,g,1,2.0622,1,3,7,1,1,,,,,
,0.73,,,,,,,,,j.PNG,j,61292a3404d387db5b0b2a32,2021-10-19_21h15.43.595,forced_choiceRT,2021.1.2,Win32,60.0024001,,,,,,,,2,Ontime,j,1,1.9279,2,0,8,3,1,,,,,
,0.27,,,,,,,,,h.PNG,h,61292a3404d387db5b0b2a32,2021-10-19_21h15.43.595,forced_choiceRT,2021.1.2,Win32,60.0024001,,,,,,,,2,Ontime,h,1,2.0615,2,1,9,2,1,,,,,
,1.16,,,,,,,,,j.PNG,j,61292a3404d387db5b0b2a32,2021-10-19_21h15.43.595,forced_choiceRT,2021.1.2,Win32,60.0024001,,,,,,,,2,Slow,j,1,2.1276,2,2,10,3,1,,,,,
,1.64,,,,,,,,,f.PNG,f,61292a3404d387db5b0b2a32,2021-10-19_21h15.43.595,forced_choiceRT,2021.1.2,Win32,60.0024001,,,,,,,,2,Slow,f,1,2.1948,2,3,11,0,1,,,,,
,1.3,,,,,,,,,f.PNG,f,61292a3404d387db5b0b2a32,2021-10-19_21h15.43.595,forced_choiceRT,2021.1.2,Win32,60.0024001,,,,,,,,2,Fast,f,1,1.8774,3,0,12,0,1,,,,,
,1.08,,,,,,,,,f.PNG,f,61292a3404d387db5b0b2a32,2021-10-19_21h15.43.595,forced_choiceRT,2021.1.2,Win32,60.0024001,,,,,,,,2,Fast,f,1,1.8781,3,1,13,0,1,,,,,
,0.04,,,,,,,,,j.PNG,j,61292a3404d387db5b0b2a32,2021-10-19_21h15.43.595,forced_choiceRT,2021.1.2,Win32,60.0024001,,,,,,,,2,Ontime,j,1,1.9772,3,2,14,3,1,,,,,
,0.09,,,,,,,,,g.PNG,g,61292a3404d387db5b0b2a32,2021-10-19_21h15.43.595,forced_choiceRT,2021.1.2,Win32,60.0024001,,,,,,,,2,Ontime,g,1,2.0101,3,3,15,1,1,,,,,
,1.41,,,,,,,,,j.PNG,j,61292a3404d387db5b0b2a32,2021-10-19_21h15.43.595,forced_choiceRT,2021.1.2,Win32,60.0024001,,,,,,,,2,Ontime,g,0,2.0783,4,0,16,3,1,,,,,
,1.23,,,,,,,,,j.PNG,j,61292a3404d387db5b0b2a32,2021-10-19_21h15.43.595,forced_choiceRT,2021.1.2,Win32,60.0024001,,,,,,,,2,Fast,j,1,1.8933,4,1,17,3,1,,,,,
,1.65,,,,,,,,,h.PNG,h,61292a3404d387db5b0b2a32,2021-10-19_21h15.43.595,forced_choiceRT,2021.1.2,Win32,60.0024001,,,,,,,,2,Ontime,g,0,2.0952,4,2,18,2,1,,,,,
,0.77,,,,,,,,,f.PNG,f,61292a3404d387db5b0b2a32,2021-10-19_21h15.43.595,forced_choiceRT,2021.1.2,Win32,60.0024001,,,,,,,,2,Ontime,f,1,1.9949,4,3,19,0,1,,,,,
,0.94,,,,,,,,,g.PNG,g,61292a3404d387db5b0b2a32,2021-10-19_21h15.43.595,forced_choiceRT,2021.1.2,Win32,60.0024001,,,,,,,,2,Fast,g,1,1.8596,5,0,20,1,1,,,,,
,0.34,,,,,,,,,j.PNG,j,61292a3404d387db5b0b2a32,2021-10-19_21h15.43.595,forced_choiceRT,2021.1.2,Win32,60.0024001,,,,,,,,2,Ontime,j,1,1.9937,5,1,21,3,1,,,,,
,0.06,,,,,,,,,h.PNG,h,61292a3404d387db5b0b2a32,2021-10-19_21h15.43.595,forced_choiceRT,2021.1.2,Win32,60.0024001,,,,,,,,2,Ontime,h,1,2.0105,5,2,22,2,1,,,,,
,0.91,,,,,,,,,h.PNG,h,61292a3404d387db5b0b2a32,2021-10-19_21h15.43.595,forced_choiceRT,2021.1.2,Win32,60.0024001,,,,,,,,2,Ontime,h,1,2.062,5,3,23,2,1,,,,,
,0.82,,,,,,,,,f.PNG,f,61292a3404d387db5b0b2a32,2021-10-19_21h15.43.595,forced_choiceRT,2021.1.2,Win32,60.0024001,,,,,,,,2,Ontime,g,0,2.0608,6,0,24,0,1,,,,,
,1.07,,,,,,,,,g.PNG,g,61292a3404d387db5b0b2a32,2021-10-19_21h15.43.595,forced_choiceRT,2021.1.2,Win32,60.0024001,,,,,,,,2,Ontime,g,1,1.9938,6,1,25,1,1,,,,,
,0.53,,,,,,,,,h.PNG,h,61292a3404d387db5b0b2a32,2021-10-19_21h15.43.595,forced_choiceRT,2021.1.2,Win32,60.0024001,,,,,,,,2,Ontime,h,1,1.9262,6,2,26,2,1,,,,,
,0.96,,,,,,,,,j.PNG,j,61292a3404d387db5b0b2a32,2021-10-19_21h15.43.595,forced_choiceRT,2021.1.2,Win32,60.0024001,,,,,,,,2,Ontime,j,1,1.943,6,3,27,3,1,,,,,
,1.11,,,,,,,,,g.PNG,g,61292a3404d387db5b0b2a32,2021-10-19_21h15.43.595,forced_choiceRT,2021.1.2,Win32,60.0024001,,,,,,,,2,Fast,g,1,1.8938,7,0,28,1,1,,,,,
,1.49,,,,,,,,,g.PNG,g,61292a3404d387db5b0b2a32,2021-10-19_21h15.43.595,forced_choiceRT,2021.1.2,Win32,60.0024001,,,,,,,,2,Ontime,g,1,1.9779,7,1,29,1,1,,,,,
,1.07,,,,,,,,,h.PNG,h,61292a3404d387db5b0b2a32,2021-10-19_21h15.43.595,forced_choiceRT,2021.1.2,Win32,60.0024001,,,,,,,,2,Ontime,h,1,2.0947,7,2,30,2,1,,,,,
,1.99,,,,,,,,,h.PNG,h,61292a3404d387db5b0b2a32,2021-10-19_21h15.43.595,forced_choiceRT,2021.1.2,Win32,60.0024001,,,,,,,,2,Slow,g,0,2.3284,7,3,31,2,1,,,,,
,1.12,,,,,,,,,f.PNG,f,61292a3404d387db5b0b2a32,2021-10-19_21h15.43.595,forced_choiceRT,2021.1.2,Win32,60.0024001,,,,,,,,2,Fast,f,1,1.8781,8,0,32,0,1,,,,,
,0.18,,,,,,,,,g.PNG,g,61292a3404d387db5b0b2a32,2021-10-19_21h15.43.595,forced_choiceRT,2021.1.2,Win32,60.0024001,,,,,,,,2,Ontime,g,1,1.9931,8,1,33,1,1,,,,,
,1.89,,,,,,,,,h.PNG,h,61292a3404d387db5b0b2a32,2021-10-19_21h15.43.595,forced_choiceRT,2021.1.2,Win32,60.0024001,,,,,,,,2,Slow,j,0,2.2627,8,2,34,2,1,,,,,
,1.79,,,,,,,,,g.PNG,g,61292a3404d387db5b0b2a32,2021-10-19_21h15.43.595,forced_choiceRT,2021.1.2,Win32,60.0024001,,,,,,,,2,Slow,g,1,2.2614,8,3,35,1,1,,,,,
,1.78,,,,,,,,,j.PNG,j,61292a3404d387db5b0b2a32,2021-10-19_21h15.43.595,forced_choiceRT,2021.1.2,Win32,60.0024001,,,,,,,,2,Slow,h,0,2.1608,9,0,36,3,1,,,,,
,0.36,,,,,,,,,g.PNG,g,61292a3404d387db5b0b2a32,2021-10-19_21h15.43.595,forced_choiceRT,2021.1.2,Win32,60.0024001,,,,,,,,2,Ontime,g,1,1.9105,9,1,37,1,1,,,,,
,1.32,,,,,,,,,f.PNG,f,61292a3404d387db5b0b2a32,2021-10-19_21h15.43.595,forced_choiceRT,2021.1.2,Win32,60.0024001,,,,,,,,2,Ontime,g,0,2.0441,9,2,38,0,1,,,,,
,1.22,,,,,,,,,h.PNG,h,61292a3404d387db5b0b2a32,2021-10-19_21h15.43.595,forced_choiceRT,2021.1.2,Win32,60.0024001,,,,,,,,2,Fast,h,1,1.8929,9,3,39,2,1,,,,,
,,,,,,,,,,,,61292a3404d387db5b0b2a32,2021-10-19_21h15.43.595,forced_choiceRT,2021.1.2,Win32,60.0024001,,,,,,,,,,,,,,,,,,1,0,1,0,1
,1.04,,,,,,,,,h.PNG,h,61292a3404d387db5b0b2a32,2021-10-19_21h15.43.595,forced_choiceRT,2021.1.2,Win32,60.0024001,,,,,,,,3,Ontime,h,1,1.9594,0,0,0,2,1,,,,,
,1.18,,,,,,,,,j.PNG,j,61292a3404d387db5b0b2a32,2021-10-19_21h15.43.595,forced_choiceRT,2021.1.2,Win32,60.0024001,,,,,,,,3,Fast,j,1,1.8431,0,1,1,3,1,,,,,
,1.08,,,,,,,,,f.PNG,f,61292a3404d387db5b0b2a32,2021-10-19_21h15.43.595,forced_choiceRT,2021.1.2,Win32,60.0024001,,,,,,,,3,Ontime,f,1,2.0266,0,2,2,0,1,,,,,
,1.1,,,,,,,,,h.PNG,h,61292a3404d387db5b0b2a32,2021-10-19_21h15.43.595,forced_choiceRT,2021.1.2,Win32,60.0024001,,,,,,,,3,Slow,h,1,2.1953,0,3,3,2,1,,,,,
,0.17,,,,,,,,,f.PNG,f,61292a3404d387db5b0b2a32,2021-10-19_21h15.43.595,forced_choiceRT,2021.1.2,Win32,60.0024001,,,,,,,,3,Ontime,f,1,1.9103,1,0,4,0,1,,,,,
,1.01,,,,,,,,,g.PNG,g,61292a3404d387db5b0b2a32,2021-10-19_21h15.43.595,forced_choiceRT,2021.1.2,Win32,60.0024001,,,,,,,,3,Fast,g,1,1.8759,1,1,5,1,1,,,,,
,1.22,,,,,,,,,j.PNG,j,61292a3404d387db5b0b2a32,2021-10-19_21h15.43.595,forced_choiceRT,2021.1.2,Win32,60.0024001,,,,,,,,3,Ontime,j,1,2.0951,1,2,6,3,1,,,,,
,0.58,,,,,,,,,h.PNG,h,61292a3404d387db5b0b2a32,2021-10-19_21h15.43.595,forced_choiceRT,2021.1.2,Win32,60.0024001,,,,,,,,3,Ontime,h,1,1.944,1,3,7,2,1,,,,,
,0.59,,,,,,,,,h.PNG,h,61292a3404d387db5b0b2a32,2021-10-19_21h15.43.595,forced_choiceRT,2021.1.2,Win32,60.0024001,,,,,,,,3,Fast,h,1,1.8256,2,0,8,2,1,,,,,
,1.17,,,,,,,,,f.PNG,f,61292a3404d387db5b0b2a32,2021-10-19_21h15.43.595,forced_choiceRT,2021.1.2,Win32,60.0024001,,,,,,,,3,Ontime,g,0,2.0789,2,1,9,0,1,,,,,
,1.08,,,,,,,,,h.PNG,h,61292a3404d387db5b0b2a32,2021-10-19_21h15.43.595,forced_choiceRT,2021.1.2,Win32,60.0024001,,,,,,,,3,Fast,g,0,1.8947,2,2,10,2,1,,,,,
,0.47,,,,,,,,,g.PNG,g,61292a3404d387db5b0b2a32,2021-10-19_21h15.43.595,forced_choiceRT,2021.1.2,Win32,60.0024001,,,,,,,,3,Ontime,g,1,2.0102,2,3,11,1,1,,,,,
,1.75,,,,,,,,,h.PNG,h,61292a3404d387db5b0b2a32,2021-10-19_21h15.43.595,forced_choiceRT,2021.1.2,Win32,60.0024001,,,,,,,,3,Slow,g,0,2.2608,3,0,12,2,1,,,,,
,0.28,,,,,,,,,f.PNG,f,61292a3404d387db5b0b2a32,2021-10-19_21h15.43.595,forced_choiceRT,2021.1.2,Win32,60.0024001,,,,,,,,3,Ontime,f,1,1.9092,3,1,13,0,1,,,,,
,1.17,,,,,,,,,h.PNG,h,61292a3404d387db5b0b2a32,2021-10-19_21h15.43.595,forced_choiceRT,2021.1.2,Win32,60.0024001,,,,,,,,3,Ontime,f,0,2.0944,3,2,14,2,1,,,,,
,0.04,,,,,,,,,f.PNG,f,61292a3404d387db5b0b2a32,2021-10-19_21h15.43.595,forced_choiceRT,2021.1.2,Win32,60.0024001,,,,,,,,3,Fast,f,1,1.7941,3,3,15,0,1,,,,,
,0.66,,,,,,,,,g.PNG,g,61292a3404d387db5b0b2a32,2021-10-19_21h15.43.595,forced_choiceRT,2021.1.2,Win32,60.0024001,,,,,,,,3,Ontime,g,1,1.9264,4,0,16,1,1,,,,,
,1.61,,,,,,,,,j.PNG,j,61292a3404d387db5b0b2a32,2021-10-19_21h15.43.595,forced_choiceRT,2021.1.2,Win32,60.0024001,,,,,,,,3,Slow,j,1,2.2438,4,1,17,3,1,,,,,
,0.4,,,,,,,,,j.PNG,j,61292a3404d387db5b0b2a32,2021-10-19_21h15.43.595,forced_choiceRT,2021.1.2,Win32,60.0024001,,,,,,,,3,Ontime,j,1,1.927,4,2,18,3,1,,,,,
,1.96,,,,,,,,,j.PNG,j,61292a3404d387db5b0b2a32,2021-10-19_21h15.43.595,forced_choiceRT,2021.1.2,Win32,60.0024001,,,,,,,,3,Slow,h,0,2.2279,4,3,19,3,1,,,,,
,0.41,,,,,,,,,g.PNG,g,61292a3404d387db5b0b2a32,2021-10-19_21h15.43.595,forced_choiceRT,2021.1.2,Win32,60.0024001,,,,,,,,3,Ontime,g,1,1.9604,5,0,20,1,1,,,,,
,1.61,,,,,,,,,g.PNG,g,61292a3404d387db5b0b2a32,2021-10-19_21h15.43.595,forced_choiceRT,2021.1.2,Win32,60.0024001,,,,,,,,3,Slow,g,1,2.2116,5,1,21,1,1,,,,,
,1.18,,,,,,,,,j.PNG,j,61292a3404d387db5b0b2a32,2021-10-19_21h15.43.595,forced_choiceRT,2021.1.2,Win32,60.0024001,,,,,,,,3,Fast,j,1,1.8256,5,2,22,3,1,,,,,
,1.27,,,,,,,,,j.PNG,j,61292a3404d387db5b0b2a32,2021-10-19_21h15.43.595,forced_choiceRT,2021.1.2,Win32,60.0024001,,,,,,,,3,Ontime,j,1,1.9612,5,3,23,3,1,,,,,
,1.59,,,,,,,,,f.PNG,f,61292a3404d387db5b0b2a32,2021-10-19_21h15.43.595,forced_choiceRT,2021.1.2,Win32,60.0024001,,,,,,,,3,Slow,f,1,2.161,6,0,24,0,1,,,,,
,1.09,,,,,,,,,h.PNG,h,61292a3404d387db5b0b2a32,2021-10-19_21h15.43.595,forced_choiceRT,2021.1.2,Win32,60.0024001,,,,,,,,3,Ontime,h,1,2.0277,6,1,25,2,1,,,,,
,0.38,,,,,,,,,f.PNG,f,61292a3404d387db5b0b2a32,2021-10-19_21h15.43.595,forced_choiceRT,2021.1.2,Win32,60.0024001,,,,,,,,3,Ontime,g,0,2.0103,6,2,26,0,1,,,,,
,1.29,,,,,,,,,g.PNG,g,61292a3404d387db5b0b2a32,2021-10-19_21h15.43.595,forced_choiceRT,2021.1.2,Win32,60.0024001,,,,,,,,3,Ontime,g,1,1.9775,6,3,27,1,1,,,,,
,0.43,,,,,,,,,g.PNG,g,61292a3404d387db5b0b2a32,2021-10-19_21h15.43.595,forced_choiceRT,2021.1.2,Win32,60.0024001,,,,,,,,3,Ontime,g,1,1.9765,7,0,28,1,1,,,,,
,1.93,,,,,,,,,h.PNG,h,61292a3404d387db5b0b2a32,2021-10-19_21h15.43.595,forced_choiceRT,2021.1.2,Win32,60.0024001,,,,,,,,3,Slow,h,1,3.133,7,1,29,2,1,,,,,
,0.46,,,,,,,,,j.PNG,j,61292a3404d387db5b0b2a32,2021-10-19_21h15.43.595,forced_choiceRT,2021.1.2,Win32,60.0024001,,,,,,,,3,Ontime,j,1,1.9599,7,2,30,3,1,,,,,
,1.49,,,,,,,,,f.PNG,f,61292a3404d387db5b0b2a32,2021-10-19_21h15.43.595,forced_choiceRT,2021.1.2,Win32,60.0024001,,,,,,,,3,Ontime,f,1,1.9772,7,3,31,0,1,,,,,
,0.09,,,,,,,,,g.PNG,g,61292a3404d387db5b0b2a32,2021-10-19_21h15.43.595,forced_choiceRT,2021.1.2,Win32,60.0024001,,,,,,,,3,Ontime,g,1,1.9603,8,0,32,1,1,,,,,
,1.8,,,,,,,,,h.PNG,h,61292a3404d387db5b0b2a32,2021-10-19_21h15.43.595,forced_choiceRT,2021.1.2,Win32,60.0024001,,,,,,,,3,Slow,h,1,2.295,8,1,33,2,1,,,,,
,0.2,,,,,,,,,j.PNG,j,61292a3404d387db5b0b2a32,2021-10-19_21h15.43.595,forced_choiceRT,2021.1.2,Win32,60.0024001,,,,,,,,3,Ontime,j,1,2.027,8,2,34,3,1,,,,,
,1.09,,,,,,,,,g.PNG,g,61292a3404d387db5b0b2a32,2021-10-19_21h15.43.595,forced_choiceRT,2021.1.2,Win32,60.0024001,,,,,,,,3,Fast,g,1,1.86,8,3,35,1,1,,,,,
,1.94,,,,,,,,,g.PNG,g,61292a3404d387db5b0b2a32,2021-10-19_21h15.43.595,forced_choiceRT,2021.1.2,Win32,60.0024001,,,,,,,,3,Slow,g,1,3.0484,9,0,36,1,1,,,,,
,0.69,,,,,,,,,f.PNG,f,61292a3404d387db5b0b2a32,2021-10-19_21h15.43.595,forced_choiceRT,2021.1.2,Win32,60.0024001,,,,,,,,3,Fast,h,0,1.8772,9,1,37,0,1,,,,,
,0.52,,,,,,,,,f.PNG,f,61292a3404d387db5b0b2a32,2021-10-19_21h15.43.595,forced_choiceRT,2021.1.2,Win32,60.0024001,,,,,,,,3,Fast,f,1,1.709,9,2,38,0,1,,,,,
,1.6,,,,,,,,,j.PNG,j,61292a3404d387db5b0b2a32,2021-10-19_21h15.43.595,forced_choiceRT,2021.1.2,Win32,60.0024001,,,,,,,,3,Slow,j,1,2.2631,9,3,39,3,1,,,,,
,,,,,,,,,,,,61292a3404d387db5b0b2a32,2021-10-19_21h15.43.595,forced_choiceRT,2021.1.2,Win32,60.0024001,,,,,,,,,,,,,,,,,,2,0,2,0,1
,1.56,,,,,,,,,g.PNG,g,61292a3404d387db5b0b2a32,2021-10-19_21h15.43.595,forced_choiceRT,2021.1.2,Win32,60.0024001,,,,,,,,4,Ontime,j,0,2.0629,0,0,0,1,1,,,,,
,1.88,,,,,,,,,g.PNG,g,61292a3404d387db5b0b2a32,2021-10-19_21h15.43.595,forced_choiceRT,2021.1.2,Win32,60.0024001,,,,,,,,4,Slow,g,1,2.3276,0,1,1,1,1,,,,,
,0.39,,,,,,,,,h.PNG,h,61292a3404d387db5b0b2a32,2021-10-19_21h15.43.595,forced_choiceRT,2021.1.2,Win32,60.0024001,,,,,,,,4,Ontime,h,1,1.9438,0,2,2,2,1,,,,,
,0.53,,,,,,,,,h.PNG,h,61292a3404d387db5b0b2a32,2021-10-19_21h15.43.595,forced_choiceRT,2021.1.2,Win32,60.0024001,,,,,,,,4,Ontime,h,1,1.9932,0,3,3,2,1,,,,,
,1.06,,,,,,,,,f.PNG,f,61292a3404d387db5b0b2a32,2021-10-19_21h15.43.595,forced_choiceRT,2021.1.2,Win32,60.0024001,,,,,,,,4,Ontime,g,0,2.0266,1,0,4,0,1,,,,,
,0.69,,,,,,,,,j.PNG,j,61292a3404d387db5b0b2a32,2021-10-19_21h15.43.595,forced_choiceRT,2021.1.2,Win32,60.0024001,,,,,,,,4,Ontime,j,1,1.9938,1,1,5,3,1,,,,,
,1.83,,,,,,,,,g.PNG,g,61292a3404d387db5b0b2a32,2021-10-19_21h15.43.595,forced_choiceRT,2021.1.2,Win32,60.0024001,,,,,,,,4,Slow,g,1,2.8319,1,2,6,1,1,,,,,
,0.63,,,,,,,,,h.PNG,h,61292a3404d387db5b0b2a32,2021-10-19_21h15.43.595,forced_choiceRT,2021.1.2,Win32,60.0024001,,,,,,,,4,Ontime,h,1,1.9595,1,3,7,2,1,,,,,
,0.48,,,,,,,,,j.PNG,j,61292a3404d387db5b0b2a32,2021-10-19_21h15.43.595,forced_choiceRT,2021.1.2,Win32,60.0024001,,,,,,,,4,Ontime,j,1,2.0284,2,0,8,3,1,,,,,
,1.47,,,,,,,,,f.PNG,f,61292a3404d387db5b0b2a32,2021-10-19_21h15.43.595,forced_choiceRT,2021.1.2,Win32,60.0024001,,,,,,,,4,Ontime,g,0,1.9272,2,1,9,0,1,,,,,
,1.73,,,,,,,,,j.PNG,j,61292a3404d387db5b0b2a32,2021-10-19_21h15.43.595,forced_choiceRT,2021.1.2,Win32,60.0024001,,,,,,,,4,Slow,j,1,2.3109,2,2,10,3,1,,,,,
,0.89,,,,,,,,,g.PNG,g,61292a3404d387db5b0b2a32,2021-10-19_21h15.43.595,forced_choiceRT,2021.1.2,Win32,60.0024001,,,,,,,,4,Fast,g,1,1.8778,2,3,11,1,1,,,,,
,1.87,,,,,,,,,g.PNG,g,61292a3404d387db5b0b2a32,2021-10-19_21h15.43.595,forced_choiceRT,2021.1.2,Win32,60.0024001,,,,,,,,4,Slow,f,0,2.312,3,0,12,1,1,,,,,
,0.94,,,,,,,,,h.PNG,h,61292a3404d387db5b0b2a32,2021-10-19_21h15.43.595,forced_choiceRT,2021.1.2,Win32,60.0024001,,,,,,,,4,Ontime,h,1,2.0279,3,1,13,2,1,,,,,
,0.51,,,,,,,,,g.PNG,g,61292a3404d387db5b0b2a32,2021-10-19_21h15.43.595,forced_choiceRT,2021.1.2,Win32,60.0024001,,,,,,,,4,Ontime,g,1,1.943,3,2,14,1,1,,,,,
,0.57,,,,,,,,,f.PNG,f,61292a3404d387db5b0b2a32,2021-10-19_21h15.43.595,forced_choiceRT,2021.1.2,Win32,60.0024001,,,,,,,,4,Ontime,f,1,1.9438,3,3,15,0,1,,,,,
,1.66,,,,,,,,,g.PNG,g,61292a3404d387db5b0b2a32,2021-10-19_21h15.43.595,forced_choiceRT,2021.1.2,Win32,60.0024001,,,,,,,,4,Slow,g,1,2.2775,4,0,16,1,1,,,,,
,1.85,,,,,,,,,j.PNG,j,61292a3404d387db5b0b2a32,2021-10-19_21h15.43.595,forced_choiceRT,2021.1.2,Win32,60.0024001,,,,,,,,4,Slow,g,0,2.345,4,1,17,3,1,,,,,
,1.57,,,,,,,,,h.PNG,h,61292a3404d387db5b0b2a32,2021-10-19_21h15.43.595,forced_choiceRT,2021.1.2,Win32,60.0024001,,,,,,,,4,Slow,h,1,2.1451,4,2,18,2,1,,,,,
,0.45,,,,,,,,,h.PNG,h,61292a3404d387db5b0b2a32,2021-10-19_21h15.43.595,forced_choiceRT,2021.1.2,Win32,60.0024001,,,,,,,,4,Ontime,h,1,2.0436,4,3,19,2,1,,,,,
,0.79,,,,,,,,,g.PNG,g,61292a3404d387db5b0b2a32,2021-10-19_21h15.43.595,forced_choiceRT,2021.1.2,Win32,60.0024001,,,,,,,,4,Fast,g,1,1.8938,5,0,20,1,1,,,,,
,1.71,,,,,,,,,h.PNG,h,61292a3404d387db5b0b2a32,2021-10-19_21h15.43.595,forced_choiceRT,2021.1.2,Win32,60.0024001,,,,,,,,4,Slow,h,1,2.2288,5,1,21,2,1,,,,,
,0.87,,,,,,,,,f.PNG,f,61292a3404d387db5b0b2a32,2021-10-19_21h15.43.595,forced_choiceRT,2021.1.2,Win32,60.0024001,,,,,,,,4,Ontime,g,0,1.9438,5,2,22,0,1,,,,,
,0.21,,,,,,,,,f.PNG,f,61292a3404d387db5b0b2a32,2021-10-19_21h15.43.595,forced_choiceRT,2021.1.2,Win32,60.0024001,,,,,,,,4,Ontime,f,1,2.0276,5,3,23,0,1,,,,,
,0.45,,,,,,,,,j.PNG,j,61292a3404d387db5b0b2a32,2021-10-19_21h15.43.595,forced_choiceRT,2021.1.2,Win32,60.0024001,,,,,,,,4,Ontime,j,1,1.9773,6,0,24,3,1,,,,,
,0.49,,,,,,,,,f.PNG,f,61292a3404d387db5b0b2a32,2021-10-19_21h15.43.595,forced_choiceRT,2021.1.2,Win32,60.0024001,,,,,,,,4,Slow,f,1,2.1116,6,1,25,0,1,,,,,
,1.7,,,,,,,,,j.PNG,j,61292a3404d387db5b0b2a32,2021-10-19_21h15.43.595,forced_choiceRT,2021.1.2,Win32,60.0024001,,,,,,,,4,Slow,j,1,2.3296,6,2,26,3,1,,,,,
,0.4,,,,,,,,,j.PNG,j,61292a3404d387db5b0b2a32,2021-10-19_21h15.43.595,forced_choiceRT,2021.1.2,Win32,60.0024001,,,,,,,,4,Ontime,j,1,1.9594,6,3,27,3,1,,,,,
,1.23,,,,,,,,,g.PNG,g,61292a3404d387db5b0b2a32,2021-10-19_21h15.43.595,forced_choiceRT,2021.1.2,Win32,60.0024001,,,,,,,,4,Ontime,g,1,1.9272,7,0,28,1,1,,,,,
,1.88,,,,,,,,,h.PNG,h,61292a3404d387db5b0b2a32,2021-10-19_21h15.43.595,forced_choiceRT,2021.1.2,Win32,60.0024001,,,,,,,,4,Slow,f,0,2.2941,7,1,29,2,1,,,,,
,1.73,,,,,,,,,f.PNG,f,61292a3404d387db5b0b2a32,2021-10-19_21h15.43.595,forced_choiceRT,2021.1.2,Win32,60.0024001,,,,,,,,4,Slow,h,0,2.1944,7,2,30,0,1,,,,,
,0.08,,,,,,,,,j.PNG,j,61292a3404d387db5b0b2a32,2021-10-19_21h15.43.595,forced_choiceRT,2021.1.2,Win32,60.0024001,,,,,,,,4,Ontime,j,1,1.9272,7,3,31,3,1,,,,,
,0.49,,,,,,,,,h.PNG,h,61292a3404d387db5b0b2a32,2021-10-19_21h15.43.595,forced_choiceRT,2021.1.2,Win32,60.0024001,,,,,,,,4,Ontime,h,1,1.9785,8,0,32,2,1,,,,,
,0.82,,,,,,,,,h.PNG,h,61292a3404d387db5b0b2a32,2021-10-19_21h15.43.595,forced_choiceRT,2021.1.2,Win32,60.0024001,,,,,,,,4,Ontime,h,1,2.0779,8,1,33,2,1,,,,,
,1.98,,,,,,,,,g.PNG,g,61292a3404d387db5b0b2a32,2021-10-19_21h15.43.595,forced_choiceRT,2021.1.2,Win32,60.0024001,,,,,,,,4,Slow,g,1,2.6485,8,2,34,1,1,,,,,
,0.47,,,,,,,,,j.PNG,j,61292a3404d387db5b0b2a32,2021-10-19_21h15.43.595,forced_choiceRT,2021.1.2,Win32,60.0024001,,,,,,,,4,Ontime,j,1,1.9107,8,3,35,3,1,,,,,
,0.65,,,,,,,,,f.PNG,f,61292a3404d387db5b0b2a32,2021-10-19_21h15.43.595,forced_choiceRT,2021.1.2,Win32,60.0024001,,,,,,,,4,Ontime,f,1,1.9941,9,0,36,0,1,,,,,
,0.01,,,,,,,,,f.PNG,f,61292a3404d387db5b0b2a32,2021-10-19_21h15.43.595,forced_choiceRT,2021.1.2,Win32,60.0024001,,,,,,,,4,Ontime,f,1,1.9931,9,1,37,0,1,,,,,
,1.6,,,,,,,,,j.PNG,j,61292a3404d387db5b0b2a32,2021-10-19_21h15.43.595,forced_choiceRT,2021.1.2,Win32,60.0024001,,,,,,,,4,Slow,j,1,2.6132,9,2,38,3,1,,,,,
,1.97,,,,,,,,,f.PNG,f,61292a3404d387db5b0b2a32,2021-10-19_21h15.43.595,forced_choiceRT,2021.1.2,Win32,60.0024001,,,,,,,,4,Slow,f,1,2.1957,9,3,39,0,1,,,,,
,,,,,,,,,,,,61292a3404d387db5b0b2a32,2021-10-19_21h15.43.595,forced_choiceRT,2021.1.2,Win32,60.0024001,,,,,,,,,,,,,,,,,,3,0,3,0,1
,1.35,,,,,,,,,g.PNG,g,61292a3404d387db5b0b2a32,2021-10-19_21h15.43.595,forced_choiceRT,2021.1.2,Win32,60.0024001,,,,,,,,5,Slow,j,0,2.1303,0,0,0,1,1,,,,,
,0.96,,,,,,,,,g.PNG,g,61292a3404d387db5b0b2a32,2021-10-19_21h15.43.595,forced_choiceRT,2021.1.2,Win32,60.0024001,,,,,,,,5,Ontime,g,1,2.0276,0,1,1,1,1,,,,,
,1.12,,,,,,,,,g.PNG,g,61292a3404d387db5b0b2a32,2021-10-19_21h15.43.595,forced_choiceRT,2021.1.2,Win32,60.0024001,,,,,,,,5,Fast,g,1,1.7423,0,2,2,1,1,,,,,
,1.76,,,,,,,,,j.PNG,j,61292a3404d387db5b0b2a32,2021-10-19_21h15.43.595,forced_choiceRT,2021.1.2,Win32,60.0024001,,,,,,,,5,Ontime,f,0,2.012,0,3,3,3,1,,,,,
,1.67,,,,,,,,,f.PNG,f,61292a3404d387db5b0b2a32,2021-10-19_21h15.43.595,forced_choiceRT,2021.1.2,Win32,60.0024001,,,,,,,,5,Slow,j,0,2.1604,1,0,4,0,1,,,,,
,0.68,,,,,,,,,f.PNG,f,61292a3404d387db5b0b2a32,2021-10-19_21h15.43.595,forced_choiceRT,2021.1.2,Win32,60.0024001,,,,,,,,5,Ontime,f,1,1.9937,1,1,5,0,1,,,,,
,1.79,,,,,,,,,j.PNG,j,61292a3404d387db5b0b2a32,2021-10-19_21h15.43.595,forced_choiceRT,2021.1.2,Win32,60.0024001,,,,,,,,5,Slow,j,1,2.1945,1,2,6,3,1,,,,,
,0.8,,,,,,,,,h.PNG,h,61292a3404d387db5b0b2a32,2021-10-19_21h15.43.595,forced_choiceRT,2021.1.2,Win32,60.0024001,,,,,,,,5,Fast,h,1,1.8935,1,3,7,2,1,,,,,
,0.94,,,,,,,,,h.PNG,h,61292a3404d387db5b0b2a32,2021-10-19_21h15.43.595,forced_choiceRT,2021.1.2,Win32,60.0024001,,,,,,,,5,Ontime,h,1,2.0432,2,0,8,2,1,,,,,
,0.92,,,,,,,,,j.PNG,j,61292a3404d387db5b0b2a32,2021-10-19_21h15.43.595,forced_choiceRT,2021.1.2,Win32,60.0024001,,,,,,,,5,Ontime,j,1,2.0446,2,1,9,3,1,,,,,
,1.79,,,,,,,,,h.PNG,h,61292a3404d387db5b0b2a32,2021-10-19_21h15.43.595,forced_choiceRT,2021.1.2,Win32,60.0024001,,,,,,,,5,Slow,h,1,2.6469,2,2,10,2,1,,,,,
,1.94,,,,,,,,,j.PNG,j,61292a3404d387db5b0b2a32,2021-10-19_21h15.43.595,forced_choiceRT,2021.1.2,Win32,60.0024001,,,,,,,,5,Slow,g,0,2.1438,2,3,11,3,1,,,,,
,1.75,,,,,,,,,g.PNG,g,61292a3404d387db5b0b2a32,2021-10-19_21h15.43.595,forced_choiceRT,2021.1.2,Win32,60.0024001,,,,,,,,5,Slow,j,0,2.2449,3,0,12,1,1,,,,,
,0.63,,,,,,,,,j.PNG,j,61292a3404d387db5b0b2a32,2021-10-19_21h15.43.595,forced_choiceRT,2021.1.2,Win32,60.0024001,,,,,,,,5,Ontime,j,1,1.9103,3,1,13,3,1,,,,,
,0.52,,,,,,,,,f.PNG,f,61292a3404d387db5b0b2a32,2021-10-19_21h15.43.595,forced_choiceRT,2021.1.2,Win32,60.0024001,,,,,,,,5,Ontime,f,1,1.9603,3,2,14,0,1,,,,,
,0.49,,,,,,,,,f.PNG,f,61292a3404d387db5b0b2a32,2021-10-19_21h15.43.595,forced_choiceRT,2021.1.2,Win32,60.0024001,,,,,,,,5,Ontime,f,1,2.0119,3,3,15,0,1,,,,,
,1.72,,,,,,,,,f.PNG,f,61292a3404d387db5b0b2a32,2021-10-19_21h15.43.595,forced_choiceRT,2021.1.2,Win32,60.0024001,,,,,,,,5,Slow,j,0,2.1768,4,0,16,0,1,,,,,
,0.32,,,,,,,,,g.PNG,g,61292a3404d387db5b0b2a32,2021-10-19_21h15.43.595,forced_choiceRT,2021.1.2,Win32,60.0024001,,,,,,,,5,Ontime,g,1,1.944,4,1,17,1,1,,,,,
,0.62,,,,,,,,,f.PNG,f,61292a3404d387db5b0b2a32,2021-10-19_21h15.43.595,forced_choiceRT,2021.1.2,Win32,60.0024001,,,,,,,,5,Ontime,f,1,2.0619,4,2,18,0,1,,,,,
,1.02,,,,,,,,,h.PNG,h,61292a3404d387db5b0b2a32,2021-10-19_21h15.43.595,forced_choiceRT,2021.1.2,Win32,60.0024001,,,,,,,,5,Ontime,h,1,1.9611,4,3,19,2,1,,,,,
,1.93,,,,,,,,,g.PNG,g,61292a3404d387db5b0b2a32,2021-10-19_21h15.43.595,forced_choiceRT,2021.1.2,Win32,60.0024001,,,,,,,,5,Slow,g,1,2.546,5,0,20,1,1,,,,,
,1.48,,,,,,,,,j.PNG,j,61292a3404d387db5b0b2a32,2021-10-19_21h15.43.595,forced_choiceRT,2021.1.2,Win32,60.0024001,,,,,,,,5,Slow,j,1,2.1938,5,1,21,3,1,,,,,
,0.72,,,,,,,,,g.PNG,g,61292a3404d387db5b0b2a32,2021-10-19_21h15.43.595,forced_choiceRT,2021.1.2,Win32,60.0024001,,,,,,,,5,Ontime,g,1,1.9094,5,2,22,1,1,,,,,
,1.76,,,,,,,,,g.PNG,g,61292a3404d387db5b0b2a32,2021-10-19_21h15.43.595,forced_choiceRT,2021.1.2,Win32,60.0024001,,,,,,,,5,Slow,g,1,2.2788,5,3,23,1,1,,,,,
,0.51,,,,,,,,,h.PNG,h,61292a3404d387db5b0b2a32,2021-10-19_21h15.43.595,forced_choiceRT,2021.1.2,Win32,60.0024001,,,,,,,,5,Ontime,h,1,2.0104,6,0,24,2,1,,,,,
,0.44,,,,,,,,,h.PNG,h,61292a3404d387db5b0b2a32,2021-10-19_21h15.43.595,forced_choiceRT,2021.1.2,Win32,60.0024001,,,,,,,,5,Ontime,h,1,1.9283,6,1,25,2,1,,,,,
,1.45,,,,,,,,,j.PNG,j,61292a3404d387db5b0b2a32,2021-10-19_21h15.43.595,forced_choiceRT,2021.1.2,Win32,60.0024001,,,,,,,,5,Slow,j,1,2.16,6,2,26,3,1,,,,,
,0.5,,,,,,,,,h.PNG,h,61292a3404d387db5b0b2a32,2021-10-19_21h15.43.595,forced_choiceRT,2021.1.2,Win32,60.0024001,,,,,,,,5,Ontime,h,1,2.0105,6,3,27,2,1,,,,,
,1.69,,,,,,,,,f.PNG,f,61292a3404d387db5b0b2a32,2021-10-19_21h15.43.595,forced_choiceRT,2021.1.2,Win32,60.0024001,,,,,,,,5,Slow,f,1,2.2458,7,0,28,0,1,,,,,
,0.04,,,,,,,,,j.PNG,j,61292a3404d387db5b0b2a32,2021-10-19_21h15.43.595,forced_choiceRT,2021.1.2,Win32,60.0024001,,,,,,,,5,Fast,j,1,1.8611,7,1,29,3,1,,,,,
,0.91,,,,,,,,,h.PNG,h,61292a3404d387db5b0b2a32,2021-10-19_21h15.43.595,forced_choiceRT,2021.1.2,Win32,60.0024001,,,,,,,,5,Ontime,h,1,1.9943,7,2,30,2,1,,,,,
,0.17,,,,,,,,,f.PNG,f,61292a3404d387db5b0b2a32,2021-10-19_21h15.43.595,forced_choiceRT,2021.1.2,Win32,60.0024001,,,,,,,,5,Ontime,f,1,2.0444,7,3,31,0,1,,,,,
,1.45,,,,,,,,,h.PNG,h,61292a3404d387db5b0b2a32,2021-10-19_21h15.43.595,forced_choiceRT,2021.1.2,Win32,60.0024001,,,,,,,,5,Ontime,h,1,2.0121,8,0,32,2,1,,,,,
,0.65,,,,,,,,,h.PNG,h,61292a3404d387db5b0b2a32,2021-10-19_21h15.43.595,forced_choiceRT,2021.1.2,Win32,60.0024001,,,,,,,,5,Ontime,h,1,1.9774,8,1,33,2,1,,,,,
,0.91,,,,,,,,,f.PNG,f,61292a3404d387db5b0b2a32,2021-10-19_21h15.43.595,forced_choiceRT,2021.1.2,Win32,60.0024001,,,,,,,,5,Ontime,f,1,1.9108,8,2,34,0,1,,,,,
,1.2,,,,,,,,,f.PNG,f,61292a3404d387db5b0b2a32,2021-10-19_21h15.43.595,forced_choiceRT,2021.1.2,Win32,60.0024001,,,,,,,,5,Ontime,f,1,2.0111,8,3,35,0,1,,,,,
,0.47,,,,,,,,,g.PNG,g,61292a3404d387db5b0b2a32,2021-10-19_21h15.43.595,forced_choiceRT,2021.1.2,Win32,60.0024001,,,,,,,,5,Slow,g,1,2.1267,9,0,36,1,1,,,,,
,1.66,,,,,,,,,g.PNG,g,61292a3404d387db5b0b2a32,2021-10-19_21h15.43.595,forced_choiceRT,2021.1.2,Win32,60.0024001,,,,,,,,5,Slow,g,1,2.1438,9,1,37,1,1,,,,,
,0.16,,,,,,,,,j.PNG,j,61292a3404d387db5b0b2a32,2021-10-19_21h15.43.595,forced_choiceRT,2021.1.2,Win32,60.0024001,,,,,,,,5,Fast,j,1,1.8923,9,2,38,3,1,,,,,
,0.48,,,,,,,,,j.PNG,j,61292a3404d387db5b0b2a32,2021-10-19_21h15.43.595,forced_choiceRT,2021.1.2,Win32,60.0024001,,,,,,,,5,Ontime,j,1,1.9279,9,3,39,3,1,,,,,
,,,,,,,,,,,,61292a3404d387db5b0b2a32,2021-10-19_21h15.43.595,forced_choiceRT,2021.1.2,Win32,60.0024001,,,,,,,,,,,,,,,,,,4,0,4,0,1
,1.75,,,,,,,,,g.PNG,g,61292a3404d387db5b0b2a32,2021-10-19_21h15.43.595,forced_choiceRT,2021.1.2,Win32,60.0024001,,,,,,,,6,Slow,g,1,2.3002,0,0,0,1,1,,,,,
,1.21,,,,,,,,,f.PNG,f,61292a3404d387db5b0b2a32,2021-10-19_21h15.43.595,forced_choiceRT,2021.1.2,Win32,60.0024001,,,,,,,,6,Ontime,f,1,1.9273,0,1,1,0,1,,,,,
,1.38,,,,,,,,,g.PNG,g,61292a3404d387db5b0b2a32,2021-10-19_21h15.43.595,forced_choiceRT,2021.1.2,Win32,60.0024001,,,,,,,,6,Fast,g,1,1.8935,0,2,2,1,1,,,,,
,1.39,,,,,,,,,f.PNG,f,61292a3404d387db5b0b2a32,2021-10-19_21h15.43.595,forced_choiceRT,2021.1.2,Win32,60.0024001,,,,,,,,6,Ontime,f,1,1.944,0,3,3,0,1,,,,,
,0.38,,,,,,,,,f.PNG,f,61292a3404d387db5b0b2a32,2021-10-19_21h15.43.595,forced_choiceRT,2021.1.2,Win32,60.0024001,,,,,,,,6,Ontime,f,1,1.9272,1,0,4,0,1,,,,,
,0.78,,,,,,,,,g.PNG,g,61292a3404d387db5b0b2a32,2021-10-19_21h15.43.595,forced_choiceRT,2021.1.2,Win32,60.0024001,,,,,,,,6,Ontime,g,1,2.0777,1,1,5,1,1,,,,,
,1.87,,,,,,,,,f.PNG,f,61292a3404d387db5b0b2a32,2021-10-19_21h15.43.595,forced_choiceRT,2021.1.2,Win32,60.0024001,,,,,,,,6,Slow,h,0,2.2279,1,2,6,0,1,,,,,
,1.4,,,,,,,,,f.PNG,f,61292a3404d387db5b0b2a32,2021-10-19_21h15.43.595,forced_choiceRT,2021.1.2,Win32,60.0024001,,,,,,,,6,Ontime,f,1,2.0104,1,3,7,0,1,,,,,
,1.9,,,,,,,,,h.PNG,h,61292a3404d387db5b0b2a32,2021-10-19_21h15.43.595,forced_choiceRT,2021.1.2,Win32,60.0024001,,,,,,,,6,Slow,h,1,2.2792,2,0,8,2,1,,,,,
,0.87,,,,,,,,,f.PNG,f,61292a3404d387db5b0b2a32,2021-10-19_21h15.43.595,forced_choiceRT,2021.1.2,Win32,60.0024001,,,,,,,,6,Fast,f,1,1.8935,2,1,9,0,1,,,,,
,1.38,,,,,,,,,h.PNG,h,61292a3404d387db5b0b2a32,2021-10-19_21h15.43.595,forced_choiceRT,2021.1.2,Win32,60.0024001,,,,,,,,6,Ontime,h,1,2.0274,2,2,10,2,1,,,,,
,0.92,,,,,,,,,j.PNG,j,61292a3404d387db5b0b2a32,2021-10-19_21h15.43.595,forced_choiceRT,2021.1.2,Win32,60.0024001,,,,,,,,6,Ontime,j,1,1.9937,2,3,11,3,1,,,,,
,0.99,,,,,,,,,j.PNG,j,61292a3404d387db5b0b2a32,2021-10-19_21h15.43.595,forced_choiceRT,2021.1.2,Win32,60.0024001,,,,,,,,6,Ontime,j,1,2.0608,3,0,12,3,1,,,,,
,0.66,,,,,,,,,j.PNG,j,61292a3404d387db5b0b2a32,2021-10-19_21h15.43.595,forced_choiceRT,2021.1.2,Win32,60.0024001,,,,,,,,6,Ontime,j,1,2.0268,3,1,13,3,1,,,,,
,0.25,,,,,,,,,g.PNG,g,61292a3404d387db5b0b2a32,2021-10-19_21h15.43.595,forced_choiceRT,2021.1.2,Win32,60.0024001,,,,,,,,6,Ontime,g,1,1.9777,3,2,14,1,1,,,,,
,1.25,,,,,,,,,g.PNG,g,61292a3404d387db5b0b2a32,2021-10-19_21h15.43.595,forced_choiceRT,2021.1.2,Win32,60.0024001,,,,,,,,6,Ontime,g,1,2.0945,3,3,15,1,1,,,,,
,0.1,,,,,,,,,g.PNG,g,61292a3404d387db5b0b2a32,2021-10-19_21h15.43.595,forced_choiceRT,2021.1.2,Win32,60.0024001,,,,,,,,6,Ontime,g,1,2.0121,4,0,16,1,1,,,,,
,0.65,,,,,,,,,g.PNG,g,61292a3404d387db5b0b2a32,2021-10-19_21h15.43.595,forced_choiceRT,2021.1.2,Win32,60.0024001,,,,,,,,6,Fast,h,0,0.2186,4,1,17,1,1,,,,,
,0.55,,,,,,,,,f.PNG,f,61292a3404d387db5b0b2a32,2021-10-19_21h15.43.595,forced_choiceRT,2021.1.2,Win32,60.0024001,,,,,,,,6,Ontime,f,1,1.9606,4,2,18,0,1,,,,,
,1.15,,,,,,,,,j.PNG,j,61292a3404d387db5b0b2a32,2021-10-19_21h15.43.595,forced_choiceRT,2021.1.2,Win32,60.0024001,,,,,,,,6,Ontime,j,1,1.9109,4,3,19,3,1,,,,,
,1.14,,,,,,,,,g.PNG,g,61292a3404d387db5b0b2a32,2021-10-19_21h15.43.595,forced_choiceRT,2021.1.2,Win32,60.0024001,,,,,,,,6,Ontime,g,1,1.9619,5,0,20,1,1,,,,,
,1.03,,,,,,,,,j.PNG,j,61292a3404d387db5b0b2a32,2021-10-19_21h15.43.595,forced_choiceRT,2021.1.2,Win32,60.0024001,,,,,,,,6,Ontime,j,1,2.0107,5,1,21,3,1,,,,,
,1.29,,,,,,,,,h.PNG,h,61292a3404d387db5b0b2a32,2021-10-19_21h15.43.595,forced_choiceRT,2021.1.2,Win32,60.0024001,,,,,,,,6,Ontime,h,1,2.0943,5,2,22,2,1,,,,,
,0.45,,,,,,,,,f.PNG,f,61292a3404d387db5b0b2a32,2021-10-19_21h15.43.595,forced_choiceRT,2021.1.2,Win32,60.0024001,,,,,,,,6,Ontime,f,1,1.9945,5,3,23,0,1,,,,,
,0.15,,,,,,,,,j.PNG,j,61292a3404d387db5b0b2a32,2021-10-19_21h15.43.595,forced_choiceRT,2021.1.2,Win32,60.0024001,,,,,,,,6,Ontime,j,1,1.9109,6,0,24,3,1,,,,,
,1.38,,,,,,,,,h.PNG,h,61292a3404d387db5b0b2a32,2021-10-19_21h15.43.595,forced_choiceRT,2021.1.2,Win32,60.0024001,,,,,,,,6,Fast,h,1,1.861,6,1,25,2,1,,,,,
,0.36,,,,,,,,,h.PNG,h,61292a3404d387db5b0b2a32,2021-10-19_21h15.43.595,forced_choiceRT,2021.1.2,Win32,60.0024001,,,,,,,,6,Ontime,h,1,2.0441,6,2,26,2,1,,,,,
,0.43,,,,,,,,,h.PNG,h,61292a3404d387db5b0b2a32,2021-10-19_21h15.43.595,forced_choiceRT,2021.1.2,Win32,60.0024001,,,,,,,,6,Ontime,h,1,1.9931,6,3,27,2,1,,,,,
,1.96,,,,,,,,,j.PNG,j,61292a3404d387db5b0b2a32,2021-10-19_21h15.43.595,forced_choiceRT,2021.1.2,Win32,60.0024001,,,,,,,,6,Slow,j,1,2.6141,7,0,28,3,1,,,,,
,1.83,,,,,,,,,j.PNG,j,61292a3404d387db5b0b2a32,2021-10-19_21h15.43.595,forced_choiceRT,2021.1.2,Win32,60.0024001,,,,,,,,6,Slow,j,1,2.1782,7,1,29,3,1,,,,,
,1.17,,,,,,,,,h.PNG,h,61292a3404d387db5b0b2a32,2021-10-19_21h15.43.595,forced_choiceRT,2021.1.2,Win32,60.0024001,,,,,,,,6,Ontime,h,1,1.9101,7,2,30,2,1,,,,,
,0.95,,,,,,,,,h.PNG,h,61292a3404d387db5b0b2a32,2021-10-19_21h15.43.595,forced_choiceRT,2021.1.2,Win32,60.0024001,,,,,,,,6,Ontime,h,1,1.9932,7,3,31,2,1,,,,,
,0.72,,,,,,,,,g.PNG,g,61292a3404d387db5b0b2a32,2021-10-19_21h15.43.595,forced_choiceRT,2021.1.2,Win32,60.0024001,,,,,,,,6,Ontime,g,1,1.9781,8,0,32,1,1,,,,,
,1.97,,,,,,,,,f.PNG,f,61292a3404d387db5b0b2a32,2021-10-19_21h15.43.595,forced_choiceRT,2021.1.2,Win32,60.0024001,,,,,,,,6,Slow,j,0,2.2616,8,1,33,0,1,,,,,
,1.5,,,,,,,,,h.PNG,h,61292a3404d387db5b0b2a32,2021-10-19_21h15.43.595,forced_choiceRT,2021.1.2,Win32,60.0024001,,,,,,,,6,Ontime,h,1,2.0268,8,2,34,2,1,,,,,
,0.51,,,,,,,,,g.PNG,g,61292a3404d387db5b0b2a32,2021-10-19_21h15.43.595,forced_choiceRT,2021.1.2,Win32,60.0024001,,,,,,,,6,Ontime,g,1,2.0434,8,3,35,1,1,,,,,
,1.77,,,,,,,,,f.PNG,f,61292a3404d387db5b0b2a32,2021-10-19_21h15.43.595,forced_choiceRT,2021.1.2,Win32,60.0024001,,,,,,,,6,Slow,f,1,2.312,9,0,36,0,1,,,,,
,1,,,,,,,,,j.PNG,j,61292a3404d387db5b0b2a32,2021-10-19_21h15.43.595,forced_choiceRT,2021.1.2,Win32,60.0024001,,,,,,,,6,Ontime,j,1,1.9114,9,1,37,3,1,,,,,
,1.21,,,,,,,,,h.PNG,h,61292a3404d387db5b0b2a32,2021-10-19_21h15.43.595,forced_choiceRT,2021.1.2,Win32,60.0024001,,,,,,,,6,Ontime,h,1,2.0276,9,2,38,2,1,,,,,
,0.79,,,,,,,,,j.PNG,j,61292a3404d387db5b0b2a32,2021-10-19_21h15.43.595,forced_choiceRT,2021.1.2,Win32,60.0024001,,,,,,,,6,Ontime,j,1,2.0113,9,3,39,3,1,,,,,
,,,,,,,,,,,,61292a3404d387db5b0b2a32,2021-10-19_21h15.43.595,forced_choiceRT,2021.1.2,Win32,60.0024001,,,,,,,,,,,,,,,,,,5,0,5,0,1
,0.75,,,,,,,,,h.PNG,h,61292a3404d387db5b0b2a32,2021-10-19_21h15.43.595,forced_choiceRT,2021.1.2,Win32,60.0024001,,,,,,,,7,Ontime,h,1,2.028,0,0,0,2,1,,,,,
,1.01,,,,,,,,,h.PNG,h,61292a3404d387db5b0b2a32,2021-10-19_21h15.43.595,forced_choiceRT,2021.1.2,Win32,60.0024001,,,,,,,,7,Ontime,h,1,1.9942,0,1,1,2,1,,,,,
,0.25,,,,,,,,,g.PNG,g,61292a3404d387db5b0b2a32,2021-10-19_21h15.43.595,forced_choiceRT,2021.1.2,Win32,60.0024001,,,,,,,,7,Ontime,g,1,2.0108,0,2,2,1,1,,,,,
,1.96,,,,,,,,,g.PNG,g,61292a3404d387db5b0b2a32,2021-10-19_21h15.43.595,forced_choiceRT,2021.1.2,Win32,60.0024001,,,,,,,,7,Slow,f,0,2.3447,0,3,3,1,1,,,,,
,0.72,,,,,,,,,g.PNG,g,61292a3404d387db5b0b2a32,2021-10-19_21h15.43.595,forced_choiceRT,2021.1.2,Win32,60.0024001,,,,,,,,7,Ontime,g,1,2.0598,1,0,4,1,1,,,,,
,0.7,,,,,,,,,j.PNG,j,61292a3404d387db5b0b2a32,2021-10-19_21h15.43.595,forced_choiceRT,2021.1.2,Win32,60.0024001,,,,,,,,7,Ontime,j,1,2.0437,1,1,5,3,1,,,,,
,0.11,,,,,,,,,j.PNG,j,61292a3404d387db5b0b2a32,2021-10-19_21h15.43.595,forced_choiceRT,2021.1.2,Win32,60.0024001,,,,,,,,7,Ontime,j,1,2.011,1,2,6,3,1,,,,,
,1.94,,,,,,,,,h.PNG,h,61292a3404d387db5b0b2a32,2021-10-19_21h15.43.595,forced_choiceRT,2021.1.2,Win32,60.0024001,,,,,,,,7,Slow,g,0,2.3446,1,3,7,2,1,,,,,
,1.72,,,,,,,,,f.PNG,f,61292a3404d387db5b0b2a32,2021-10-19_21h15.43.595,forced_choiceRT,2021.1.2,Win32,60.0024001,,,,,,,,7,Slow,f,1,2.2788,2,0,8,0,1,,,,,
,0.09,,,,,,,,,f.PNG,f,61292a3404d387db5b0b2a32,2021-10-19_21h15.43.595,forced_choiceRT,2021.1.2,Win32,60.0024001,,,,,,,,7,Fast,f,1,1.8767,2,1,9,0,1,,,,,
,0.85,,,,,,,,,h.PNG,h,61292a3404d387db5b0b2a32,2021-10-19_21h15.43.595,forced_choiceRT,2021.1.2,Win32,60.0024001,,,,,,,,7,Ontime,h,1,1.9439,2,2,10,2,1,,,,,
,1.27,,,,,,,,,g.PNG,g,61292a3404d387db5b0b2a32,2021-10-19_21h15.43.595,forced_choiceRT,2021.1.2,Win32,60.0024001,,,,,,,,7,Ontime,g,1,2.0108,2,3,11,1,1,,,,,
,0.22,,,,,,,,,j.PNG,j,61292a3404d387db5b0b2a32,2021-10-19_21h15.43.595,forced_choiceRT,2021.1.2,Win32,60.0024001,,,,,,,,7,Ontime,j,1,2.0621,3,0,12,3,1,,,,,
,1.93,,,,,,,,,f.PNG,f,61292a3404d387db5b0b2a32,2021-10-19_21h15.43.595,forced_choiceRT,2021.1.2,Win32,60.0024001,,,,,,,,7,Slow,g,0,2.4289,3,1,13,0,1,,,,,
,1.78,,,,,,,,,h.PNG,h,61292a3404d387db5b0b2a32,2021-10-19_21h15.43.595,forced_choiceRT,2021.1.2,Win32,60.0024001,,,,,,,,7,Slow,g,0,2.3445,3,2,14,2,1,,,,,
,0.97,,,,,,,,,j.PNG,j,61292a3404d387db5b0b2a32,2021-10-19_21h15.43.595,forced_choiceRT,2021.1.2,Win32,60.0024001,,,,,,,,7,Ontime,j,1,1.9948,3,3,15,3,1,,,,,
,1.8,,,,,,,,,g.PNG,g,61292a3404d387db5b0b2a32,2021-10-19_21h15.43.595,forced_choiceRT,2021.1.2,Win32,60.0024001,,,,,,,,7,Slow,g,1,2.2446,4,0,16,1,1,,,,,
,0.62,,,,,,,,,f.PNG,f,61292a3404d387db5b0b2a32,2021-10-19_21h15.43.595,forced_choiceRT,2021.1.2,Win32,60.0024001,,,,,,,,7,Fast,f,1,1.8598,4,1,17,0,1,,,,,
,0.52,,,,,,,,,j.PNG,j,61292a3404d387db5b0b2a32,2021-10-19_21h15.43.595,forced_choiceRT,2021.1.2,Win32,60.0024001,,,,,,,,7,Slow,j,1,2.1108,4,2,18,3,1,,,,,
,1.37,,,,,,,,,f.PNG,f,61292a3404d387db5b0b2a32,2021-10-19_21h15.43.595,forced_choiceRT,2021.1.2,Win32,60.0024001,,,,,,,,7,Ontime,f,1,1.9775,4,3,19,0,1,,,,,
,0.92,,,,,,,,,f.PNG,f,61292a3404d387db5b0b2a32,2021-10-19_21h15.43.595,forced_choiceRT,2021.1.2,Win32,60.0024001,,,,,,,,7,Ontime,f,1,1.9606,5,0,20,0,1,,,,,
,0,,,,,,,,,h.PNG,h,61292a3404d387db5b0b2a32,2021-10-19_21h15.43.595,forced_choiceRT,2021.1.2,Win32,60.0024001,,,,,,,,7,Ontime,h,1,1.9758,5,1,21,2,1,,,,,
,1.94,,,,,,,,,g.PNG,g,61292a3404d387db5b0b2a32,2021-10-19_21h15.43.595,forced_choiceRT,2021.1.2,Win32,60.0024001,,,,,,,,7,Slow,g,1,2.4131,5,2,22,1,1,,,,,
,1.8,,,,,,,,,j.PNG,j,61292a3404d387db5b0b2a32,2021-10-19_21h15.43.595,forced_choiceRT,2021.1.2,Win32,60.0024001,,,,,,,,7,Slow,g,0,2.1953,5,3,23,3,1,,,,,
,0.42,,,,,,,,,j.PNG,j,61292a3404d387db5b0b2a32,2021-10-19_21h15.43.595,forced_choiceRT,2021.1.2,Win32,60.0024001,,,,,,,,7,Ontime,j,1,1.9604,6,0,24,3,1,,,,,
,0.26,,,,,,,,,f.PNG,f,61292a3404d387db5b0b2a32,2021-10-19_21h15.43.595,forced_choiceRT,2021.1.2,Win32,60.0024001,,,,,,,,7,Fast,f,1,1.8767,6,1,25,0,1,,,,,
,0.99,,,,,,,,,g.PNG,g,61292a3404d387db5b0b2a32,2021-10-19_21h15.43.595,forced_choiceRT,2021.1.2,Win32,60.0024001,,,,,,,,7,Ontime,g,1,2.0764,6,2,26,1,1,,,,,
,1.74,,,,,,,,,h.PNG,h,61292a3404d387db5b0b2a32,2021-10-19_21h15.43.595,forced_choiceRT,2021.1.2,Win32,60.0024001,,,,,,,,7,Slow,g,0,2.2112,6,3,27,2,1,,,,,
,0.6,,,,,,,,,f.PNG,f,61292a3404d387db5b0b2a32,2021-10-19_21h15.43.595,forced_choiceRT,2021.1.2,Win32,60.0024001,,,,,,,,7,Ontime,f,1,1.9939,7,0,28,0,1,,,,,
,1.94,,,,,,,,,j.PNG,j,61292a3404d387db5b0b2a32,2021-10-19_21h15.43.595,forced_choiceRT,2021.1.2,Win32,60.0024001,,,,,,,,7,Slow,g,0,2.1946,7,1,29,3,1,,,,,
,1.7,,,,,,,,,f.PNG,f,61292a3404d387db5b0b2a32,2021-10-19_21h15.43.595,forced_choiceRT,2021.1.2,Win32,60.0024001,,,,,,,,7,Ontime,j,0,2.0939,7,2,30,0,1,,,,,
,1.72,,,,,,,,,g.PNG,g,61292a3404d387db5b0b2a32,2021-10-19_21h15.43.595,forced_choiceRT,2021.1.2,Win32,60.0024001,,,,,,,,7,Ontime,f,0,2.0782,7,3,31,1,1,,,,,
,0.05,,,,,,,,,j.PNG,j,61292a3404d387db5b0b2a32,2021-10-19_21h15.43.595,forced_choiceRT,2021.1.2,Win32,60.0024001,,,,,,,,7,Ontime,j,1,1.9782,8,0,32,3,1,,,,,
,1.24,,,,,,,,,h.PNG,h,61292a3404d387db5b0b2a32,2021-10-19_21h15.43.595,forced_choiceRT,2021.1.2,Win32,60.0024001,,,,,,,,7,Ontime,g,0,2.0114,8,1,33,2,1,,,,,
,0.73,,,,,,,,,g.PNG,g,61292a3404d387db5b0b2a32,2021-10-19_21h15.43.595,forced_choiceRT,2021.1.2,Win32,60.0024001,,,,,,,,7,Ontime,g,1,1.9765,8,2,34,1,1,,,,,
,0.84,,,,,,,,,f.PNG,f,61292a3404d387db5b0b2a32,2021-10-19_21h15.43.595,forced_choiceRT,2021.1.2,Win32,60.0024001,,,,,,,,7,Slow,g,0,2.1119,8,3,35,0,1,,,,,
,0.53,,,,,,,,,h.PNG,h,61292a3404d387db5b0b2a32,2021-10-19_21h15.43.595,forced_choiceRT,2021.1.2,Win32,60.0024001,,,,,,,,7,Ontime,h,1,2.0448,9,0,36,2,1,,,,,
,1.84,,,,,,,,,h.PNG,h,61292a3404d387db5b0b2a32,2021-10-19_21h15.43.595,forced_choiceRT,2021.1.2,Win32,60.0024001,,,,,,,,7,Slow,h,1,2.3956,9,1,37,2,1,,,,,
,0.36,,,,,,,,,j.PNG,j,61292a3404d387db5b0b2a32,2021-10-19_21h15.43.595,forced_choiceRT,2021.1.2,Win32,60.0024001,,,,,,,,7,Ontime,j,1,1.9941,9,2,38,3,1,,,,,
,0.86,,,,,,,,,g.PNG,g,61292a3404d387db5b0b2a32,2021-10-19_21h15.43.595,forced_choiceRT,2021.1.2,Win32,60.0024001,,,,,,,,7,Ontime,g,1,2.0609,9,3,39,1,1,,,,,
,,,,,,,,,,,,61292a3404d387db5b0b2a32,2021-10-19_21h15.43.595,forced_choiceRT,2021.1.2,Win32,60.0024001,,,,,,,,,,,,,,,,,,6,0,6,0,1
,1.76,,,,,,,,,j.PNG,j,61292a3404d387db5b0b2a32,2021-10-19_21h15.43.595,forced_choiceRT,2021.1.2,Win32,60.0024001,,,,,,,,8,Slow,j,1,2.3629,0,0,0,3,1,,,,,
,1.29,,,,,,,,,f.PNG,f,61292a3404d387db5b0b2a32,2021-10-19_21h15.43.595,forced_choiceRT,2021.1.2,Win32,60.0024001,,,,,,,,8,Ontime,f,1,1.9276,0,1,1,0,1,,,,,
,1.86,,,,,,,,,j.PNG,j,61292a3404d387db5b0b2a32,2021-10-19_21h15.43.595,forced_choiceRT,2021.1.2,Win32,60.0024001,,,,,,,,8,Slow,h,0,2.378,0,2,2,3,1,,,,,
,1.79,,,,,,,,,f.PNG,f,61292a3404d387db5b0b2a32,2021-10-19_21h15.43.595,forced_choiceRT,2021.1.2,Win32,60.0024001,,,,,,,,8,Slow,g,0,2.2784,0,3,3,0,1,,,,,
,0.9,,,,,,,,,h.PNG,h,61292a3404d387db5b0b2a32,2021-10-19_21h15.43.595,forced_choiceRT,2021.1.2,Win32,60.0024001,,,,,,,,8,Ontime,h,1,2.0119,1,0,4,2,1,,,,,
,1.87,,,,,,,,,h.PNG,h,61292a3404d387db5b0b2a32,2021-10-19_21h15.43.595,forced_choiceRT,2021.1.2,Win32,60.0024001,,,,,,,,8,Slow,h,1,2.3294,1,1,5,2,1,,,,,
,0.31,,,,,,,,,g.PNG,g,61292a3404d387db5b0b2a32,2021-10-19_21h15.43.595,forced_choiceRT,2021.1.2,Win32,60.0024001,,,,,,,,8,Fast,g,1,1.8933,1,2,6,1,1,,,,,
,0.05,,,,,,,,,h.PNG,h,61292a3404d387db5b0b2a32,2021-10-19_21h15.43.595,forced_choiceRT,2021.1.2,Win32,60.0024001,,,,,,,,8,Ontime,h,1,1.9435,1,3,7,2,1,,,,,
,1.91,,,,,,,,,g.PNG,g,61292a3404d387db5b0b2a32,2021-10-19_21h15.43.595,forced_choiceRT,2021.1.2,Win32,60.0024001,,,,,,,,8,Slow,j,0,2.4625,2,0,8,1,1,,,,,
,1.77,,,,,,,,,f.PNG,f,61292a3404d387db5b0b2a32,2021-10-19_21h15.43.595,forced_choiceRT,2021.1.2,Win32,60.0024001,,,,,,,,8,Fast,h,0,0.3196,2,1,9,0,1,,,,,
,0.36,,,,,,,,,j.PNG,j,61292a3404d387db5b0b2a32,2021-10-19_21h15.43.595,forced_choiceRT,2021.1.2,Win32,60.0024001,,,,,,,,8,Ontime,j,1,2.0614,2,2,10,3,1,,,,,
,0.83,,,,,,,,,j.PNG,j,61292a3404d387db5b0b2a32,2021-10-19_21h15.43.595,forced_choiceRT,2021.1.2,Win32,60.0024001,,,,,,,,8,Slow,j,1,2.1113,2,3,11,3,1,,,,,
,1.55,,,,,,,,,h.PNG,h,61292a3404d387db5b0b2a32,2021-10-19_21h15.43.595,forced_choiceRT,2021.1.2,Win32,60.0024001,,,,,,,,8,Slow,h,1,2.1778,3,0,12,2,1,,,,,
,0.46,,,,,,,,,g.PNG,g,61292a3404d387db5b0b2a32,2021-10-19_21h15.43.595,forced_choiceRT,2021.1.2,Win32,60.0024001,,,,,,,,8,Fast,g,1,1.8932,3,1,13,1,1,,,,,
,1.27,,,,,,,,,g.PNG,g,61292a3404d387db5b0b2a32,2021-10-19_21h15.43.595,forced_choiceRT,2021.1.2,Win32,60.0024001,,,,,,,,8,Slow,g,1,2.2279,3,2,14,1,1,,,,,
,0.67,,,,,,,,,j.PNG,j,61292a3404d387db5b0b2a32,2021-10-19_21h15.43.595,forced_choiceRT,2021.1.2,Win32,60.0024001,,,,,,,,8,Fast,j,1,1.6757,3,3,15,3,1,,,,,
,0.95,,,,,,,,,g.PNG,g,61292a3404d387db5b0b2a32,2021-10-19_21h15.43.595,forced_choiceRT,2021.1.2,Win32,60.0024001,,,,,,,,8,Ontime,g,1,2.0621,4,0,16,1,1,,,,,
,1.98,,,,,,,,,j.PNG,j,61292a3404d387db5b0b2a32,2021-10-19_21h15.43.595,forced_choiceRT,2021.1.2,Win32,60.0024001,,,,,,,,8,Slow,f,0,2.3294,4,1,17,3,1,,,,,
,1.22,,,,,,,,,g.PNG,g,61292a3404d387db5b0b2a32,2021-10-19_21h15.43.595,forced_choiceRT,2021.1.2,Win32,60.0024001,,,,,,,,8,Ontime,g,1,2.0607,4,2,18,1,1,,,,,
,0.87,,,,,,,,,f.PNG,f,61292a3404d387db5b0b2a32,2021-10-19_21h15.43.595,forced_choiceRT,2021.1.2,Win32,60.0024001,,,,,,,,8,Ontime,f,1,2.0267,4,3,19,0,1,,,,,
,0.79,,,,,,,,,f.PNG,f,61292a3404d387db5b0b2a32,2021-10-19_21h15.43.595,forced_choiceRT,2021.1.2,Win32,60.0024001,,,,,,,,8,Ontime,f,1,2.0116,5,0,20,0,1,,,,,
,0.91,,,,,,,,,h.PNG,h,61292a3404d387db5b0b2a32,2021-10-19_21h15.43.595,forced_choiceRT,2021.1.2,Win32,60.0024001,,,,,,,,8,Ontime,h,1,1.9765,5,1,21,2,1,,,,,
,1.17,,,,,,,,,j.PNG,j,61292a3404d387db5b0b2a32,2021-10-19_21h15.43.595,forced_choiceRT,2021.1.2,Win32,60.0024001,,,,,,,,8,Ontime,j,1,2.0285,5,2,22,3,1,,,,,
,1.68,,,,,,,,,g.PNG,g,61292a3404d387db5b0b2a32,2021-10-19_21h15.43.595,forced_choiceRT,2021.1.2,Win32,60.0024001,,,,,,,,8,Slow,g,1,2.2272,5,3,23,1,1,,,,,
,0.93,,,,,,,,,h.PNG,h,61292a3404d387db5b0b2a32,2021-10-19_21h15.43.595,forced_choiceRT,2021.1.2,Win32,60.0024001,,,,,,,,8,Ontime,h,1,1.9609,6,0,24,2,1,,,,,
,1.74,,,,,,,,,f.PNG,f,61292a3404d387db5b0b2a32,2021-10-19_21h15.43.595,forced_choiceRT,2021.1.2,Win32,60.0024001,,,,,,,,8,Slow,f,1,2.396,6,1,25,0,1,,,,,
,0.22,,,,,,,,,j.PNG,j,61292a3404d387db5b0b2a32,2021-10-19_21h15.43.595,forced_choiceRT,2021.1.2,Win32,60.0024001,,,,,,,,8,Fast,j,1,1.4918,6,2,26,3,1,,,,,
,0.94,,,,,,,,,j.PNG,j,61292a3404d387db5b0b2a32,2021-10-19_21h15.43.595,forced_choiceRT,2021.1.2,Win32,60.0024001,,,,,,,,8,Ontime,j,1,2.0107,6,3,27,3,1,,,,,
,0.09,,,,,,,,,f.PNG,f,61292a3404d387db5b0b2a32,2021-10-19_21h15.43.595,forced_choiceRT,2021.1.2,Win32,60.0024001,,,,,,,,8,Ontime,f,1,2.0771,7,0,28,0,1,,,,,
,0.7,,,,,,,,,j.PNG,j,61292a3404d387db5b0b2a32,2021-10-19_21h15.43.595,forced_choiceRT,2021.1.2,Win32,60.0024001,,,,,,,,8,Ontime,j,1,2.0281,7,1,29,3,1,,,,,
,0.38,,,,,,,,,h.PNG,h,61292a3404d387db5b0b2a32,2021-10-19_21h15.43.595,forced_choiceRT,2021.1.2,Win32,60.0024001,,,,,,,,8,Ontime,h,1,1.9786,7,2,30,2,1,,,,,
,1.34,,,,,,,,,h.PNG,h,61292a3404d387db5b0b2a32,2021-10-19_21h15.43.595,forced_choiceRT,2021.1.2,Win32,60.0024001,,,,,,,,8,Slow,h,1,2.1127,7,3,31,2,1,,,,,
,1.39,,,,,,,,,g.PNG,g,61292a3404d387db5b0b2a32,2021-10-19_21h15.43.595,forced_choiceRT,2021.1.2,Win32,60.0024001,,,,,,,,8,Ontime,g,1,2.0609,8,0,32,1,1,,,,,
,0.99,,,,,,,,,f.PNG,f,61292a3404d387db5b0b2a32,2021-10-19_21h15.43.595,forced_choiceRT,2021.1.2,Win32,60.0024001,,,,,,,,8,Slow,g,0,2.2116,8,1,33,0,1,,,,,
,1.46,,,,,,,,,f.PNG,f,61292a3404d387db5b0b2a32,2021-10-19_21h15.43.595,forced_choiceRT,2021.1.2,Win32,60.0024001,,,,,,,,8,Ontime,f,1,2.0613,8,2,34,0,1,,,,,
,0.4,,,,,,,,,h.PNG,h,61292a3404d387db5b0b2a32,2021-10-19_21h15.43.595,forced_choiceRT,2021.1.2,Win32,60.0024001,,,,,,,,8,Ontime,h,1,1.9279,8,3,35,2,1,,,,,
,0.43,,,,,,,,,h.PNG,h,61292a3404d387db5b0b2a32,2021-10-19_21h15.43.595,forced_choiceRT,2021.1.2,Win32,60.0024001,,,,,,,,8,Ontime,h,1,2.0275,9,0,36,2,1,,,,,
,1.29,,,,,,,,,f.PNG,f,61292a3404d387db5b0b2a32,2021-10-19_21h15.43.595,forced_choiceRT,2021.1.2,Win32,60.0024001,,,,,,,,8,Ontime,f,1,2.0608,9,1,37,0,1,,,,,
,1.25,,,,,,,,,g.PNG,g,61292a3404d387db5b0b2a32,2021-10-19_21h15.43.595,forced_choiceRT,2021.1.2,Win32,60.0024001,,,,,,,,8,Ontime,g,1,1.9934,9,2,38,1,1,,,,,
,0.44,,,,,,,,,g.PNG,g,61292a3404d387db5b0b2a32,2021-10-19_21h15.43.595,forced_choiceRT,2021.1.2,Win32,60.0024001,,,,,,,,8,Ontime,g,1,1.9798,9,3,39,1,1,,,,,
,,,,,,,,,,,,61292a3404d387db5b0b2a32,2021-10-19_21h15.43.595,forced_choiceRT,2021.1.2,Win32,60.0024001,,,,,,,,,,,,,,,,,,7,0,7,0,1
,0.86,,,,,,,,,g.PNG,g,61292a3404d387db5b0b2a32,2021-10-19_21h15.43.595,forced_choiceRT,2021.1.2,Win32,60.0024001,,,,,,,,9,Ontime,g,1,1.9109,0,0,0,1,1,,,,,
,1.06,,,,,,,,,j.PNG,j,61292a3404d387db5b0b2a32,2021-10-19_21h15.43.595,forced_choiceRT,2021.1.2,Win32,60.0024001,,,,,,,,9,Ontime,j,1,1.9922,0,1,1,3,1,,,,,
,0.93,,,,,,,,,j.PNG,j,61292a3404d387db5b0b2a32,2021-10-19_21h15.43.595,forced_choiceRT,2021.1.2,Win32,60.0024001,,,,,,,,9,Ontime,j,1,2.0623,0,2,2,3,1,,,,,
,0.75,,,,,,,,,h.PNG,h,61292a3404d387db5b0b2a32,2021-10-19_21h15.43.595,forced_choiceRT,2021.1.2,Win32,60.0024001,,,,,,,,9,Ontime,h,1,1.9942,0,3,3,2,1,,,,,
,1.81,,,,,,,,,j.PNG,j,61292a3404d387db5b0b2a32,2021-10-19_21h15.43.595,forced_choiceRT,2021.1.2,Win32,60.0024001,,,,,,,,9,Slow,g,0,2.2943,1,0,4,3,1,,,,,
,0.72,,,,,,,,,g.PNG,g,61292a3404d387db5b0b2a32,2021-10-19_21h15.43.595,forced_choiceRT,2021.1.2,Win32,60.0024001,,,,,,,,9,Fast,g,1,1.7922,1,1,5,1,1,,,,,
,0.49,,,,,,,,,h.PNG,h,61292a3404d387db5b0b2a32,2021-10-19_21h15.43.595,forced_choiceRT,2021.1.2,Win32,60.0024001,,,,,,,,9,Fast,h,1,1.8261,1,2,6,2,1,,,,,
,0.5,,,,,,,,,f.PNG,f,61292a3404d387db5b0b2a32,2021-10-19_21h15.43.595,forced_choiceRT,2021.1.2,Win32,60.0024001,,,,,,,,9,Ontime,f,1,2.0104,1,3,7,0,1,,,,,
,0.26,,,,,,,,,g.PNG,g,61292a3404d387db5b0b2a32,2021-10-19_21h15.43.595,forced_choiceRT,2021.1.2,Win32,60.0024001,,,,,,,,9,Ontime,g,1,2.0958,2,0,8,1,1,,,,,
,0.25,,,,,,,,,f.PNG,f,61292a3404d387db5b0b2a32,2021-10-19_21h15.43.595,forced_choiceRT,2021.1.2,Win32,60.0024001,,,,,,,,9,Ontime,f,1,2.0444,2,1,9,0,1,,,,,
,0.03,,,,,,,,,g.PNG,g,61292a3404d387db5b0b2a32,2021-10-19_21h15.43.595,forced_choiceRT,2021.1.2,Win32,60.0024001,,,,,,,,9,Ontime,g,1,1.9439,2,2,10,1,1,,,,,
,0.68,,,,,,,,,j.PNG,j,61292a3404d387db5b0b2a32,2021-10-19_21h15.43.595,forced_choiceRT,2021.1.2,Win32,60.0024001,,,,,,,,9,Ontime,j,1,1.9281,2,3,11,3,1,,,,,
,0.6,,,,,,,,,h.PNG,h,61292a3404d387db5b0b2a32,2021-10-19_21h15.43.595,forced_choiceRT,2021.1.2,Win32,60.0024001,,,,,,,,9,Ontime,h,1,1.9949,3,0,12,2,1,,,,,
,1.76,,,,,,,,,h.PNG,h,61292a3404d387db5b0b2a32,2021-10-19_21h15.43.595,forced_choiceRT,2021.1.2,Win32,60.0024001,,,,,,,,9,Slow,h,1,2.2625,3,1,13,2,1,,,,,
,0.45,,,,,,,,,f.PNG,f,61292a3404d387db5b0b2a32,2021-10-19_21h15.43.595,forced_choiceRT,2021.1.2,Win32,60.0024001,,,,,,,,9,Ontime,f,1,2.044,3,2,14,0,1,,,,,
,0.99,,,,,,,,,g.PNG,g,61292a3404d387db5b0b2a32,2021-10-19_21h15.43.595,forced_choiceRT,2021.1.2,Win32,60.0024001,,,,,,,,9,Ontime,g,1,2.01,3,3,15,1,1,,,,,
,0.42,,,,,,,,,h.PNG,h,61292a3404d387db5b0b2a32,2021-10-19_21h15.43.595,forced_choiceRT,2021.1.2,Win32,60.0024001,,,,,,,,9,Ontime,h,1,1.9458,4,0,16,2,1,,,,,
,1.15,,,,,,,,,f.PNG,f,61292a3404d387db5b0b2a32,2021-10-19_21h15.43.595,forced_choiceRT,2021.1.2,Win32,60.0024001,,,,,,,,9,Ontime,f,1,2.0943,4,1,17,0,1,,,,,
,0.85,,,,,,,,,j.PNG,j,61292a3404d387db5b0b2a32,2021-10-19_21h15.43.595,forced_choiceRT,2021.1.2,Win32,60.0024001,,,,,,,,9,Ontime,h,0,1.9115,4,2,18,3,1,,,,,
,1.11,,,,,,,,,h.PNG,h,61292a3404d387db5b0b2a32,2021-10-19_21h15.43.595,forced_choiceRT,2021.1.2,Win32,60.0024001,,,,,,,,9,Ontime,h,1,1.9877,4,3,19,2,1,,,,,
,0.74,,,,,,,,,h.PNG,h,61292a3404d387db5b0b2a32,2021-10-19_21h15.43.595,forced_choiceRT,2021.1.2,Win32,60.0024001,,,,,,,,9,Ontime,h,1,2.0769,5,0,20,2,1,,,,,
,0.82,,,,,,,,,h.PNG,h,61292a3404d387db5b0b2a32,2021-10-19_21h15.43.595,forced_choiceRT,2021.1.2,Win32,60.0024001,,,,,,,,9,Ontime,h,1,2.0615,5,1,21,2,1,,,,,
,0.79,,,,,,,,,f.PNG,f,61292a3404d387db5b0b2a32,2021-10-19_21h15.43.595,forced_choiceRT,2021.1.2,Win32,60.0024001,,,,,,,,9,Ontime,f,1,1.9609,5,2,22,0,1,,,,,
,1.47,,,,,,,,,h.PNG,h,61292a3404d387db5b0b2a32,2021-10-19_21h15.43.595,forced_choiceRT,2021.1.2,Win32,60.0024001,,,,,,,,9,Slow,h,1,2.3117,5,3,23,2,1,,,,,
,0.61,,,,,,,,,g.PNG,g,61292a3404d387db5b0b2a32,2021-10-19_21h15.43.595,forced_choiceRT,2021.1.2,Win32,60.0024001,,,,,,,,9,Fast,g,1,1.7755,6,0,24,1,1,,,,,
,0.72,,,,,,,,,g.PNG,g,61292a3404d387db5b0b2a32,2021-10-19_21h15.43.595,forced_choiceRT,2021.1.2,Win32,60.0024001,,,,,,,,9,Ontime,g,1,1.9763,6,1,25,1,1,,,,,
,0.23,,,,,,,,,j.PNG,j,61292a3404d387db5b0b2a32,2021-10-19_21h15.43.595,forced_choiceRT,2021.1.2,Win32,60.0024001,,,,,,,,9,Ontime,j,1,2.0442,6,2,26,3,1,,,,,
,0.11,,,,,,,,,f.PNG,f,61292a3404d387db5b0b2a32,2021-10-19_21h15.43.595,forced_choiceRT,2021.1.2,Win32,60.0024001,,,,,,,,9,Slow,f,1,2.1116,6,3,27,0,1,,,,,
,0.5,,,,,,,,,g.PNG,g,61292a3404d387db5b0b2a32,2021-10-19_21h15.43.595,forced_choiceRT,2021.1.2,Win32,60.0024001,,,,,,,,9,Ontime,g,1,2.061,7,0,28,1,1,,,,,
,0.44,,,,,,,,,g.PNG,g,61292a3404d387db5b0b2a32,2021-10-19_21h15.43.595,forced_choiceRT,2021.1.2,Win32,60.0024001,,,,,,,,9,Ontime,g,1,1.9445,7,1,29,1,1,,,,,
,1.95,,,,,,,,,g.PNG,g,61292a3404d387db5b0b2a32,2021-10-19_21h15.43.595,forced_choiceRT,2021.1.2,Win32,60.0024001,,,,,,,,9,Fast,g,1,0.7709,7,2,30,1,1,,,,,
,0.74,,,,,,,,,j.PNG,j,61292a3404d387db5b0b2a32,2021-10-19_21h15.43.595,forced_choiceRT,2021.1.2,Win32,60.0024001,,,,,,,,9,Ontime,j,1,2.0099,7,3,31,3,1,,,,,
,1.95,,,,,,,,,h.PNG,h,61292a3404d387db5b0b2a32,2021-10-19_21h15.43.595,forced_choiceRT,2021.1.2,Win32,60.0024001,,,,,,,,9,Slow,h,1,2.3296,8,0,32,2,1,,,,,
,0.29,,,,,,,,,f.PNG,f,61292a3404d387db5b0b2a32,2021-10-19_21h15.43.595,forced_choiceRT,2021.1.2,Win32,60.0024001,,,,,,,,9,Ontime,f,1,2.0116,8,1,33,0,1,,,,,
,1.93,,,,,,,,,j.PNG,j,61292a3404d387db5b0b2a32,2021-10-19_21h15.43.595,forced_choiceRT,2021.1.2,Win32,60.0024001,,,,,,,,9,Slow,j,1,2.3125,8,2,34,3,1,,,,,
,1.39,,,,,,,,,f.PNG,f,61292a3404d387db5b0b2a32,2021-10-19_21h15.43.595,forced_choiceRT,2021.1.2,Win32,60.0024001,,,,,,,,9,Slow,f,1,2.128,8,3,35,0,1,,,,,
,1.61,,,,,,,,,f.PNG,f,61292a3404d387db5b0b2a32,2021-10-19_21h15.43.595,forced_choiceRT,2021.1.2,Win32,60.0024001,,,,,,,,9,Slow,f,1,2.6651,9,0,36,0,1,,,,,
,1.73,,,,,,,,,f.PNG,f,61292a3404d387db5b0b2a32,2021-10-19_21h15.43.595,forced_choiceRT,2021.1.2,Win32,60.0024001,,,,,,,,9,Slow,f,1,2.1613,9,1,37,0,1,,,,,
,0.87,,,,,,,,,j.PNG,j,61292a3404d387db5b0b2a32,2021-10-19_21h15.43.595,forced_choiceRT,2021.1.2,Win32,60.0024001,,,,,,,,9,Ontime,j,1,2.0101,9,2,38,3,1,,,,,
,1.37,,,,,,,,,j.PNG,j,61292a3404d387db5b0b2a32,2021-10-19_21h15.43.595,forced_choiceRT,2021.1.2,Win32,60.0024001,,,,,,,,9,Slow,j,1,2.1288,9,3,39,3,1,,,,,
,,,,,,,,,,,,61292a3404d387db5b0b2a32,2021-10-19_21h15.43.595,forced_choiceRT,2021.1.2,Win32,60.0024001,,,,,,,,,,,,,,,,,,8,0,8,0,1
,1.97,,,,,,,,,h.PNG,h,61292a3404d387db5b0b2a32,2021-10-19_21h15.43.595,forced_choiceRT,2021.1.2,Win32,60.0024001,,,,,,,,10,Slow,j,0,2.262,0,0,0,2,1,,,,,
,0.18,,,,,,,,,g.PNG,g,61292a3404d387db5b0b2a32,2021-10-19_21h15.43.595,forced_choiceRT,2021.1.2,Win32,60.0024001,,,,,,,,10,Ontime,g,1,1.9609,0,1,1,1,1,,,,,
,1.51,,,,,,,,,g.PNG,g,61292a3404d387db5b0b2a32,2021-10-19_21h15.43.595,forced_choiceRT,2021.1.2,Win32,60.0024001,,,,,,,,10,Ontime,g,1,1.944,0,2,2,1,1,,,,,
,0.8,,,,,,,,,f.PNG,f,61292a3404d387db5b0b2a32,2021-10-19_21h15.43.595,forced_choiceRT,2021.1.2,Win32,60.0024001,,,,,,,,10,Fast,f,1,1.6259,0,3,3,0,1,,,,,
,0.39,,,,,,,,,f.PNG,f,61292a3404d387db5b0b2a32,2021-10-19_21h15.43.595,forced_choiceRT,2021.1.2,Win32,60.0024001,,,,,,,,10,Ontime,f,1,2.012,1,0,4,0,1,,,,,
,1.91,,,,,,,,,h.PNG,h,61292a3404d387db5b0b2a32,2021-10-19_21h15.43.595,forced_choiceRT,2021.1.2,Win32,60.0024001,,,,,,,,10,Ontime,j,0,1.9941,1,1,5,2,1,,,,,
,0.81,,,,,,,,,f.PNG,f,61292a3404d387db5b0b2a32,2021-10-19_21h15.43.595,forced_choiceRT,2021.1.2,Win32,60.0024001,,,,,,,,10,Ontime,f,1,1.9441,1,2,6,0,1,,,,,
,0.99,,,,,,,,,j.PNG,j,61292a3404d387db5b0b2a32,2021-10-19_21h15.43.595,forced_choiceRT,2021.1.2,Win32,60.0024001,,,,,,,,10,Ontime,j,1,1.9608,1,3,7,3,1,,,,,
,0.86,,,,,,,,,j.PNG,j,61292a3404d387db5b0b2a32,2021-10-19_21h15.43.595,forced_choiceRT,2021.1.2,Win32,60.0024001,,,,,,,,10,Ontime,j,1,1.9268,2,0,8,3,1,,,,,
,1.87,,,,,,,,,j.PNG,j,61292a3404d387db5b0b2a32,2021-10-19_21h15.43.595,forced_choiceRT,2021.1.2,Win32,60.0024001,,,,,,,,10,Slow,h,0,2.2439,2,1,9,3,1,,,,,
,1.84,,,,,,,,,f.PNG,f,61292a3404d387db5b0b2a32,2021-10-19_21h15.43.595,forced_choiceRT,2021.1.2,Win32,60.0024001,,,,,,,,10,Slow,h,0,2.1611,2,2,10,0,1,,,,,
,0.58,,,,,,,,,g.PNG,g,61292a3404d387db5b0b2a32,2021-10-19_21h15.43.595,forced_choiceRT,2021.1.2,Win32,60.0024001,,,,,,,,10,Ontime,g,1,2.0624,2,3,11,1,1,,,,,
,1.4,,,,,,,,,f.PNG,f,61292a3404d387db5b0b2a32,2021-10-19_21h15.43.595,forced_choiceRT,2021.1.2,Win32,60.0024001,,,,,,,,10,Slow,f,1,2.1264,3,0,12,0,1,,,,,
,1.02,,,,,,,,,h.PNG,h,61292a3404d387db5b0b2a32,2021-10-19_21h15.43.595,forced_choiceRT,2021.1.2,Win32,60.0024001,,,,,,,,10,Ontime,h,1,2.0105,3,1,13,2,1,,,,,
,0.68,,,,,,,,,j.PNG,j,61292a3404d387db5b0b2a32,2021-10-19_21h15.43.595,forced_choiceRT,2021.1.2,Win32,60.0024001,,,,,,,,10,Ontime,j,1,1.9106,3,2,14,3,1,,,,,
,1.1,,,,,,,,,h.PNG,h,61292a3404d387db5b0b2a32,2021-10-19_21h15.43.595,forced_choiceRT,2021.1.2,Win32,60.0024001,,,,,,,,10,Ontime,h,1,2.0278,3,3,15,2,1,,,,,
,1.12,,,,,,,,,h.PNG,h,61292a3404d387db5b0b2a32,2021-10-19_21h15.43.595,forced_choiceRT,2021.1.2,Win32,60.0024001,,,,,,,,10,Ontime,h,1,1.9777,4,0,16,2,1,,,,,
,0.56,,,,,,,,,f.PNG,f,61292a3404d387db5b0b2a32,2021-10-19_21h15.43.595,forced_choiceRT,2021.1.2,Win32,60.0024001,,,,,,,,10,Ontime,f,1,2.0115,4,1,17,0,1,,,,,
,0.67,,,,,,,,,h.PNG,h,61292a3404d387db5b0b2a32,2021-10-19_21h15.43.595,forced_choiceRT,2021.1.2,Win32,60.0024001,,,,,,,,10,Ontime,h,1,2.0102,4,2,18,2,1,,,,,
,1.9,,,,,,,,,j.PNG,j,61292a3404d387db5b0b2a32,2021-10-19_21h15.43.595,forced_choiceRT,2021.1.2,Win32,60.0024001,,,,,,,,10,Slow,j,1,2.2798,4,3,19,3,1,,,,,
,1.23,,,,,,,,,j.PNG,j,61292a3404d387db5b0b2a32,2021-10-19_21h15.43.595,forced_choiceRT,2021.1.2,Win32,60.0024001,,,,,,,,10,Ontime,j,1,1.928,5,0,20,3,1,,,,,
,0.59,,,,,,,,,g.PNG,g,61292a3404d387db5b0b2a32,2021-10-19_21h15.43.595,forced_choiceRT,2021.1.2,Win32,60.0024001,,,,,,,,10,Fast,g,1,1.6747,5,1,21,1,1,,,,,
,0.06,,,,,,,,,f.PNG,f,61292a3404d387db5b0b2a32,2021-10-19_21h15.43.595,forced_choiceRT,2021.1.2,Win32,60.0024001,,,,,,,,10,Slow,f,1,2.2284,5,2,22,0,1,,,,,
,0.84,,,,,,,,,h.PNG,h,61292a3404d387db5b0b2a32,2021-10-19_21h15.43.595,forced_choiceRT,2021.1.2,Win32,60.0024001,,,,,,,,10,Fast,h,1,1.7757,5,3,23,2,1,,,,,
,1.77,,,,,,,,,g.PNG,g,61292a3404d387db5b0b2a32,2021-10-19_21h15.43.595,forced_choiceRT,2021.1.2,Win32,60.0024001,,,,,,,,10,Slow,j,0,2.263,6,0,24,1,1,,,,,
,1.25,,,,,,,,,g.PNG,g,61292a3404d387db5b0b2a32,2021-10-19_21h15.43.595,forced_choiceRT,2021.1.2,Win32,60.0024001,,,,,,,,10,Ontime,g,1,1.9784,6,1,25,1,1,,,,,
,0.04,,,,,,,,,g.PNG,g,61292a3404d387db5b0b2a32,2021-10-19_21h15.43.595,forced_choiceRT,2021.1.2,Win32,60.0024001,,,,,,,,10,Fast,g,1,1.727,6,2,26,1,1,,,,,
,1.72,,,,,,,,,j.PNG,j,61292a3404d387db5b0b2a32,2021-10-19_21h15.43.595,forced_choiceRT,2021.1.2,Win32,60.0024001,,,,,,,,10,Slow,h,0,2.2447,6,3,27,3,1,,,,,
,0.8,,,,,,,,,h.PNG,h,61292a3404d387db5b0b2a32,2021-10-19_21h15.43.595,forced_choiceRT,2021.1.2,Win32,60.0024001,,,,,,,,10,Fast,g,0,1.3908,7,0,28,2,1,,,,,
,1.51,,,,,,,,,h.PNG,h,61292a3404d387db5b0b2a32,2021-10-19_21h15.43.595,forced_choiceRT,2021.1.2,Win32,60.0024001,,,,,,,,10,Slow,h,1,2.2619,7,1,29,2,1,,,,,
,1.44,,,,,,,,,g.PNG,g,61292a3404d387db5b0b2a32,2021-10-19_21h15.43.595,forced_choiceRT,2021.1.2,Win32,60.0024001,,,,,,,,10,Ontime,j,0,1.993,7,2,30,1,1,,,,,
,1.64,,,,,,,,,h.PNG,h,61292a3404d387db5b0b2a32,2021-10-19_21h15.43.595,forced_choiceRT,2021.1.2,Win32,60.0024001,,,,,,,,10,Slow,h,1,2.3953,7,3,31,2,1,,,,,
,1.77,,,,,,,,,j.PNG,j,61292a3404d387db5b0b2a32,2021-10-19_21h15.43.595,forced_choiceRT,2021.1.2,Win32,60.0024001,,,,,,,,10,Slow,g,0,2.1771,8,0,32,3,1,,,,,
,0.47,,,,,,,,,g.PNG,g,61292a3404d387db5b0b2a32,2021-10-19_21h15.43.595,forced_choiceRT,2021.1.2,Win32,60.0024001,,,,,,,,10,Fast,g,1,1.8926,8,1,33,1,1,,,,,
,1.62,,,,,,,,,f.PNG,f,61292a3404d387db5b0b2a32,2021-10-19_21h15.43.595,forced_choiceRT,2021.1.2,Win32,60.0024001,,,,,,,,10,Slow,g,0,2.1782,8,2,34,0,1,,,,,
,0.37,,,,,,,,,j.PNG,j,61292a3404d387db5b0b2a32,2021-10-19_21h15.43.595,forced_choiceRT,2021.1.2,Win32,60.0024001,,,,,,,,10,Fast,j,1,1.86,8,3,35,3,1,,,,,
,0.12,,,,,,,,,j.PNG,j,61292a3404d387db5b0b2a32,2021-10-19_21h15.43.595,forced_choiceRT,2021.1.2,Win32,60.0024001,,,,,,,,10,Ontime,j,1,2.0782,9,0,36,3,1,,,,,
,0.54,,,,,,,,,g.PNG,g,61292a3404d387db5b0b2a32,2021-10-19_21h15.43.595,forced_choiceRT,2021.1.2,Win32,60.0024001,,,,,,,,10,Fast,g,1,1.878,9,1,37,1,1,,,,,
,1.58,,,,,,,,,f.PNG,f,61292a3404d387db5b0b2a32,2021-10-19_21h15.43.595,forced_choiceRT,2021.1.2,Win32,60.0024001,,,,,,,,10,Slow,f,1,2.2437,9,2,38,0,1,,,,,
,1.26,,,,,,,,,f.PNG,f,61292a3404d387db5b0b2a32,2021-10-19_21h15.43.595,forced_choiceRT,2021.1.2,Win32,60.0024001,,,,,,,,10,Ontime,f,1,2.0442,9,3,39,0,1,,,,,
,,,,,,,,,,,,61292a3404d387db5b0b2a32,2021-10-19_21h15.43.595,forced_choiceRT,2021.1.2,Win32,60.0024001,,,,,,,,,,,,,,,,,,9,0,9,0,1
