IP_Addresss,target_onset,trial_resp_sp.keys,trial_resp_sp.corr,trial_resp_sp.rt,trials_train_loop.thisRepN,trials_train_loop.thisTrialN,trials_train_loop.thisN,trials_train_loop.thisIndex,trials_train_loop.ran,pic,correct_key,participant,date,expName,psychopyVersion,OS,frameRate,trial_resp_timing.keys,trial_resp_timing.rt,trials_train_timing.thisRepN,trials_train_timing.thisTrialN,trials_train_timing.thisN,trials_train_timing.thisIndex,trials_train_timing.ran,block_id,ontime,forcedRT_resp.keys,forcedRT_resp.corr,forcedRT_resp.rt,trials.thisRepN,trials.thisTrialN,trials.thisN,trials.thisIndex,trials.ran,blocks.thisRepN,blocks.thisTrialN,blocks.thisN,blocks.thisIndex,blocks.ran
99.45.71.168,0,g,1,1.8622,0,0,0,1,1,g.PNG,g,612d384d2854531514c9be92,2021-10-19_12h43.21.960,forced_choiceRT,2021.1.2,Win32,29.94818963,,,,,,,,,,,,,,,,,,,,,,
,0,h,1,1.7445,0,1,1,2,1,h.PNG,h,612d384d2854531514c9be92,2021-10-19_12h43.21.960,forced_choiceRT,2021.1.2,Win32,29.94818963,,,,,,,,,,,,,,,,,,,,,,
,0,g,1,1.3639,0,2,2,1,1,g.PNG,g,612d384d2854531514c9be92,2021-10-19_12h43.21.960,forced_choiceRT,2021.1.2,Win32,29.94818963,,,,,,,,,,,,,,,,,,,,,,
,0,f,1,1.2563,0,3,3,0,1,f.PNG,f,612d384d2854531514c9be92,2021-10-19_12h43.21.960,forced_choiceRT,2021.1.2,Win32,29.94818963,,,,,,,,,,,,,,,,,,,,,,
,0,g,1,1.4565,1,0,4,1,1,g.PNG,g,612d384d2854531514c9be92,2021-10-19_12h43.21.960,forced_choiceRT,2021.1.2,Win32,29.94818963,,,,,,,,,,,,,,,,,,,,,,
,0,f,1,1.018,1,1,5,0,1,f.PNG,f,612d384d2854531514c9be92,2021-10-19_12h43.21.960,forced_choiceRT,2021.1.2,Win32,29.94818963,,,,,,,,,,,,,,,,,,,,,,
,0,j,1,1.232,1,2,6,3,1,j.PNG,j,612d384d2854531514c9be92,2021-10-19_12h43.21.960,forced_choiceRT,2021.1.2,Win32,29.94818963,,,,,,,,,,,,,,,,,,,,,,
,0,j,1,1.0891,1,3,7,3,1,j.PNG,j,612d384d2854531514c9be92,2021-10-19_12h43.21.960,forced_choiceRT,2021.1.2,Win32,29.94818963,,,,,,,,,,,,,,,,,,,,,,
,0,j,1,0.8352,2,0,8,3,1,j.PNG,j,612d384d2854531514c9be92,2021-10-19_12h43.21.960,forced_choiceRT,2021.1.2,Win32,29.94818963,,,,,,,,,,,,,,,,,,,,,,
,0,f,1,1.2062,2,1,9,0,1,f.PNG,f,612d384d2854531514c9be92,2021-10-19_12h43.21.960,forced_choiceRT,2021.1.2,Win32,29.94818963,,,,,,,,,,,,,,,,,,,,,,
,0,f,1,0.732,2,2,10,0,1,f.PNG,f,612d384d2854531514c9be92,2021-10-19_12h43.21.960,forced_choiceRT,2021.1.2,Win32,29.94818963,,,,,,,,,,,,,,,,,,,,,,
,0,g,1,0.9808,2,3,11,1,1,g.PNG,g,612d384d2854531514c9be92,2021-10-19_12h43.21.960,forced_choiceRT,2021.1.2,Win32,29.94818963,,,,,,,,,,,,,,,,,,,,,,
,0,f,1,0.9162,3,0,12,0,1,f.PNG,f,612d384d2854531514c9be92,2021-10-19_12h43.21.960,forced_choiceRT,2021.1.2,Win32,29.94818963,,,,,,,,,,,,,,,,,,,,,,
,0,g,1,0.8228,3,1,13,1,1,g.PNG,g,612d384d2854531514c9be92,2021-10-19_12h43.21.960,forced_choiceRT,2021.1.2,Win32,29.94818963,,,,,,,,,,,,,,,,,,,,,,
,0,j,1,1.1308,3,2,14,3,1,j.PNG,j,612d384d2854531514c9be92,2021-10-19_12h43.21.960,forced_choiceRT,2021.1.2,Win32,29.94818963,,,,,,,,,,,,,,,,,,,,,,
,0,h,1,0.906,3,3,15,2,1,h.PNG,h,612d384d2854531514c9be92,2021-10-19_12h43.21.960,forced_choiceRT,2021.1.2,Win32,29.94818963,,,,,,,,,,,,,,,,,,,,,,
,0,h,1,0.8585,4,0,16,2,1,h.PNG,h,612d384d2854531514c9be92,2021-10-19_12h43.21.960,forced_choiceRT,2021.1.2,Win32,29.94818963,,,,,,,,,,,,,,,,,,,,,,
,0,j,1,0.9031,4,1,17,3,1,j.PNG,j,612d384d2854531514c9be92,2021-10-19_12h43.21.960,forced_choiceRT,2021.1.2,Win32,29.94818963,,,,,,,,,,,,,,,,,,,,,,
,0,f,1,0.9532,4,2,18,0,1,f.PNG,f,612d384d2854531514c9be92,2021-10-19_12h43.21.960,forced_choiceRT,2021.1.2,Win32,29.94818963,,,,,,,,,,,,,,,,,,,,,,
,0,j,1,1.2432,4,3,19,3,1,j.PNG,j,612d384d2854531514c9be92,2021-10-19_12h43.21.960,forced_choiceRT,2021.1.2,Win32,29.94818963,,,,,,,,,,,,,,,,,,,,,,
,0,h,1,1.0323,5,0,20,2,1,h.PNG,h,612d384d2854531514c9be92,2021-10-19_12h43.21.960,forced_choiceRT,2021.1.2,Win32,29.94818963,,,,,,,,,,,,,,,,,,,,,,
,0,g,1,1.0337,5,1,21,1,1,g.PNG,g,612d384d2854531514c9be92,2021-10-19_12h43.21.960,forced_choiceRT,2021.1.2,Win32,29.94818963,,,,,,,,,,,,,,,,,,,,,,
,0,h,1,1.047,5,2,22,2,1,h.PNG,h,612d384d2854531514c9be92,2021-10-19_12h43.21.960,forced_choiceRT,2021.1.2,Win32,29.94818963,,,,,,,,,,,,,,,,,,,,,,
,0,f,1,0.925,5,3,23,0,1,f.PNG,f,612d384d2854531514c9be92,2021-10-19_12h43.21.960,forced_choiceRT,2021.1.2,Win32,29.94818963,,,,,,,,,,,,,,,,,,,,,,
,0,f,1,0.6708,6,0,24,0,1,f.PNG,f,612d384d2854531514c9be92,2021-10-19_12h43.21.960,forced_choiceRT,2021.1.2,Win32,29.94818963,,,,,,,,,,,,,,,,,,,,,,
,0,j,1,1.3087,6,1,25,3,1,j.PNG,j,612d384d2854531514c9be92,2021-10-19_12h43.21.960,forced_choiceRT,2021.1.2,Win32,29.94818963,,,,,,,,,,,,,,,,,,,,,,
,0,g,1,1.0502,6,2,26,1,1,g.PNG,g,612d384d2854531514c9be92,2021-10-19_12h43.21.960,forced_choiceRT,2021.1.2,Win32,29.94818963,,,,,,,,,,,,,,,,,,,,,,
,0,h,1,1.0346,6,3,27,2,1,h.PNG,h,612d384d2854531514c9be92,2021-10-19_12h43.21.960,forced_choiceRT,2021.1.2,Win32,29.94818963,,,,,,,,,,,,,,,,,,,,,,
,0,h,1,0.7528,7,0,28,2,1,h.PNG,h,612d384d2854531514c9be92,2021-10-19_12h43.21.960,forced_choiceRT,2021.1.2,Win32,29.94818963,,,,,,,,,,,,,,,,,,,,,,
,0,h,1,2.4099,7,1,29,2,1,h.PNG,h,612d384d2854531514c9be92,2021-10-19_12h43.21.960,forced_choiceRT,2021.1.2,Win32,29.94818963,,,,,,,,,,,,,,,,,,,,,,
,0,g,1,0.8022,7,2,30,1,1,g.PNG,g,612d384d2854531514c9be92,2021-10-19_12h43.21.960,forced_choiceRT,2021.1.2,Win32,29.94818963,,,,,,,,,,,,,,,,,,,,,,
,0,h,1,0.7503,7,3,31,2,1,h.PNG,h,612d384d2854531514c9be92,2021-10-19_12h43.21.960,forced_choiceRT,2021.1.2,Win32,29.94818963,,,,,,,,,,,,,,,,,,,,,,
,0,j,1,1.177,8,0,32,3,1,j.PNG,j,612d384d2854531514c9be92,2021-10-19_12h43.21.960,forced_choiceRT,2021.1.2,Win32,29.94818963,,,,,,,,,,,,,,,,,,,,,,
,0,j,1,0.6507,8,1,33,3,1,j.PNG,j,612d384d2854531514c9be92,2021-10-19_12h43.21.960,forced_choiceRT,2021.1.2,Win32,29.94818963,,,,,,,,,,,,,,,,,,,,,,
,0,j,1,0.5971,8,2,34,3,1,j.PNG,j,612d384d2854531514c9be92,2021-10-19_12h43.21.960,forced_choiceRT,2021.1.2,Win32,29.94818963,,,,,,,,,,,,,,,,,,,,,,
,0,g,1,0.9644,8,3,35,1,1,g.PNG,g,612d384d2854531514c9be92,2021-10-19_12h43.21.960,forced_choiceRT,2021.1.2,Win32,29.94818963,,,,,,,,,,,,,,,,,,,,,,
,0,f,1,0.8807,9,0,36,0,1,f.PNG,f,612d384d2854531514c9be92,2021-10-19_12h43.21.960,forced_choiceRT,2021.1.2,Win32,29.94818963,,,,,,,,,,,,,,,,,,,,,,
,0,g,1,0.707,9,1,37,1,1,g.PNG,g,612d384d2854531514c9be92,2021-10-19_12h43.21.960,forced_choiceRT,2021.1.2,Win32,29.94818963,,,,,,,,,,,,,,,,,,,,,,
,0,f,1,0.7799,9,2,38,0,1,f.PNG,f,612d384d2854531514c9be92,2021-10-19_12h43.21.960,forced_choiceRT,2021.1.2,Win32,29.94818963,,,,,,,,,,,,,,,,,,,,,,
,0,j,1,0.9851,9,3,39,3,1,j.PNG,j,612d384d2854531514c9be92,2021-10-19_12h43.21.960,forced_choiceRT,2021.1.2,Win32,29.94818963,,,,,,,,,,,,,,,,,,,,,,
,0,g,1,0.8259,10,0,40,1,1,g.PNG,g,612d384d2854531514c9be92,2021-10-19_12h43.21.960,forced_choiceRT,2021.1.2,Win32,29.94818963,,,,,,,,,,,,,,,,,,,,,,
,0,h,1,0.7048,10,1,41,2,1,h.PNG,h,612d384d2854531514c9be92,2021-10-19_12h43.21.960,forced_choiceRT,2021.1.2,Win32,29.94818963,,,,,,,,,,,,,,,,,,,,,,
,0,h,1,0.8051,10,2,42,2,1,h.PNG,h,612d384d2854531514c9be92,2021-10-19_12h43.21.960,forced_choiceRT,2021.1.2,Win32,29.94818963,,,,,,,,,,,,,,,,,,,,,,
,0,j,1,1.0996,10,3,43,3,1,j.PNG,j,612d384d2854531514c9be92,2021-10-19_12h43.21.960,forced_choiceRT,2021.1.2,Win32,29.94818963,,,,,,,,,,,,,,,,,,,,,,
,0,f,1,0.7035,11,0,44,0,1,f.PNG,f,612d384d2854531514c9be92,2021-10-19_12h43.21.960,forced_choiceRT,2021.1.2,Win32,29.94818963,,,,,,,,,,,,,,,,,,,,,,
,0,h,1,1.7365,11,1,45,2,1,h.PNG,h,612d384d2854531514c9be92,2021-10-19_12h43.21.960,forced_choiceRT,2021.1.2,Win32,29.94818963,,,,,,,,,,,,,,,,,,,,,,
,0,g,1,0.8355,11,2,46,1,1,g.PNG,g,612d384d2854531514c9be92,2021-10-19_12h43.21.960,forced_choiceRT,2021.1.2,Win32,29.94818963,,,,,,,,,,,,,,,,,,,,,,
,0,h,1,0.7506,11,3,47,2,1,h.PNG,h,612d384d2854531514c9be92,2021-10-19_12h43.21.960,forced_choiceRT,2021.1.2,Win32,29.94818963,,,,,,,,,,,,,,,,,,,,,,
,0,h,1,0.6165,12,0,48,2,1,h.PNG,h,612d384d2854531514c9be92,2021-10-19_12h43.21.960,forced_choiceRT,2021.1.2,Win32,29.94818963,,,,,,,,,,,,,,,,,,,,,,
,0,g,1,0.8911,12,1,49,1,1,g.PNG,g,612d384d2854531514c9be92,2021-10-19_12h43.21.960,forced_choiceRT,2021.1.2,Win32,29.94818963,,,,,,,,,,,,,,,,,,,,,,
,0,g,1,2.2165,12,2,50,1,1,g.PNG,g,612d384d2854531514c9be92,2021-10-19_12h43.21.960,forced_choiceRT,2021.1.2,Win32,29.94818963,,,,,,,,,,,,,,,,,,,,,,
,0,f,1,0.7323,12,3,51,0,1,f.PNG,f,612d384d2854531514c9be92,2021-10-19_12h43.21.960,forced_choiceRT,2021.1.2,Win32,29.94818963,,,,,,,,,,,,,,,,,,,,,,
,0,h,1,1.259,13,0,52,2,1,h.PNG,h,612d384d2854531514c9be92,2021-10-19_12h43.21.960,forced_choiceRT,2021.1.2,Win32,29.94818963,,,,,,,,,,,,,,,,,,,,,,
,0,j,1,0.8405,13,1,53,3,1,j.PNG,j,612d384d2854531514c9be92,2021-10-19_12h43.21.960,forced_choiceRT,2021.1.2,Win32,29.94818963,,,,,,,,,,,,,,,,,,,,,,
,0,j,1,0.831,13,2,54,3,1,j.PNG,j,612d384d2854531514c9be92,2021-10-19_12h43.21.960,forced_choiceRT,2021.1.2,Win32,29.94818963,,,,,,,,,,,,,,,,,,,,,,
,0,j,1,0.7588,13,3,55,3,1,j.PNG,j,612d384d2854531514c9be92,2021-10-19_12h43.21.960,forced_choiceRT,2021.1.2,Win32,29.94818963,,,,,,,,,,,,,,,,,,,,,,
,0,f,1,0.7211,14,0,56,0,1,f.PNG,f,612d384d2854531514c9be92,2021-10-19_12h43.21.960,forced_choiceRT,2021.1.2,Win32,29.94818963,,,,,,,,,,,,,,,,,,,,,,
,0,f,1,0.7524,14,1,57,0,1,f.PNG,f,612d384d2854531514c9be92,2021-10-19_12h43.21.960,forced_choiceRT,2021.1.2,Win32,29.94818963,,,,,,,,,,,,,,,,,,,,,,
,0,g,1,0.8344,14,2,58,1,1,g.PNG,g,612d384d2854531514c9be92,2021-10-19_12h43.21.960,forced_choiceRT,2021.1.2,Win32,29.94818963,,,,,,,,,,,,,,,,,,,,,,
,0,f,1,1.3476,14,3,59,0,1,f.PNG,f,612d384d2854531514c9be92,2021-10-19_12h43.21.960,forced_choiceRT,2021.1.2,Win32,29.94818963,,,,,,,,,,,,,,,,,,,,,,
,,,,,,,,,,,,612d384d2854531514c9be92,2021-10-19_12h43.21.960,forced_choiceRT,2021.1.2,Win32,29.94818963,h,2.3708,0,0,0,0,1,,,,,,,,,,,,,,,
,,,,,,,,,,,,612d384d2854531514c9be92,2021-10-19_12h43.21.960,forced_choiceRT,2021.1.2,Win32,29.94818963,h,2.1328,1,0,1,0,1,,,,,,,,,,,,,,,
,,,,,,,,,,,,612d384d2854531514c9be92,2021-10-19_12h43.21.960,forced_choiceRT,2021.1.2,Win32,29.94818963,h,2.0479,2,0,2,0,1,,,,,,,,,,,,,,,
,,,,,,,,,,,,612d384d2854531514c9be92,2021-10-19_12h43.21.960,forced_choiceRT,2021.1.2,Win32,29.94818963,h,2.1325,3,0,3,0,1,,,,,,,,,,,,,,,
,,,,,,,,,,,,612d384d2854531514c9be92,2021-10-19_12h43.21.960,forced_choiceRT,2021.1.2,Win32,29.94818963,j,2.0727,4,0,4,0,1,,,,,,,,,,,,,,,
,,,,,,,,,,,,612d384d2854531514c9be92,2021-10-19_12h43.21.960,forced_choiceRT,2021.1.2,Win32,29.94818963,j,2.022,5,0,5,0,1,,,,,,,,,,,,,,,
,,,,,,,,,,,,612d384d2854531514c9be92,2021-10-19_12h43.21.960,forced_choiceRT,2021.1.2,Win32,29.94818963,j,1.7723,6,0,6,0,1,,,,,,,,,,,,,,,
,,,,,,,,,,,,612d384d2854531514c9be92,2021-10-19_12h43.21.960,forced_choiceRT,2021.1.2,Win32,29.94818963,j,2.138,7,0,7,0,1,,,,,,,,,,,,,,,
,,,,,,,,,,,,612d384d2854531514c9be92,2021-10-19_12h43.21.960,forced_choiceRT,2021.1.2,Win32,29.94818963,j,2.0231,8,0,8,0,1,,,,,,,,,,,,,,,
,,,,,,,,,,,,612d384d2854531514c9be92,2021-10-19_12h43.21.960,forced_choiceRT,2021.1.2,Win32,29.94818963,f,1.8765,9,0,9,0,1,,,,,,,,,,,,,,,
,,,,,,,,,,,,612d384d2854531514c9be92,2021-10-19_12h43.21.960,forced_choiceRT,2021.1.2,Win32,29.94818963,f,2.0166,10,0,10,0,1,,,,,,,,,,,,,,,
,,,,,,,,,,,,612d384d2854531514c9be92,2021-10-19_12h43.21.960,forced_choiceRT,2021.1.2,Win32,29.94818963,f,2.0359,11,0,11,0,1,,,,,,,,,,,,,,,
,,,,,,,,,,,,612d384d2854531514c9be92,2021-10-19_12h43.21.960,forced_choiceRT,2021.1.2,Win32,29.94818963,h,2.0637,12,0,12,0,1,,,,,,,,,,,,,,,
,,,,,,,,,,,,612d384d2854531514c9be92,2021-10-19_12h43.21.960,forced_choiceRT,2021.1.2,Win32,29.94818963,j,2.0594,13,0,13,0,1,,,,,,,,,,,,,,,
,,,,,,,,,,,,612d384d2854531514c9be92,2021-10-19_12h43.21.960,forced_choiceRT,2021.1.2,Win32,29.94818963,f,2.0504,14,0,14,0,1,,,,,,,,,,,,,,,
,,,,,,,,,,,,612d384d2854531514c9be92,2021-10-19_12h43.21.960,forced_choiceRT,2021.1.2,Win32,29.94818963,f,2.0398,15,0,15,0,1,,,,,,,,,,,,,,,
,,,,,,,,,,,,612d384d2854531514c9be92,2021-10-19_12h43.21.960,forced_choiceRT,2021.1.2,Win32,29.94818963,h,2.0807,16,0,16,0,1,,,,,,,,,,,,,,,
,,,,,,,,,,,,612d384d2854531514c9be92,2021-10-19_12h43.21.960,forced_choiceRT,2021.1.2,Win32,29.94818963,h,2.074,17,0,17,0,1,,,,,,,,,,,,,,,
,,,,,,,,,,,,612d384d2854531514c9be92,2021-10-19_12h43.21.960,forced_choiceRT,2021.1.2,Win32,29.94818963,h,2.137,18,0,18,0,1,,,,,,,,,,,,,,,
,,,,,,,,,,,,612d384d2854531514c9be92,2021-10-19_12h43.21.960,forced_choiceRT,2021.1.2,Win32,29.94818963,h,2.0033,19,0,19,0,1,,,,,,,,,,,,,,,
,1.99,,,,,,,,,j.PNG,j,612d384d2854531514c9be92,2021-10-19_12h43.21.960,forced_choiceRT,2021.1.2,Win32,29.94818963,,,,,,,,1,Ontime,h,0,2.0829,0,0,0,3,1,,,,,
,0.51,,,,,,,,,h.PNG,h,612d384d2854531514c9be92,2021-10-19_12h43.21.960,forced_choiceRT,2021.1.2,Win32,29.94818963,,,,,,,,1,Fast,f,0,1.8677,0,1,1,2,1,,,,,
,0.48,,,,,,,,,j.PNG,j,612d384d2854531514c9be92,2021-10-19_12h43.21.960,forced_choiceRT,2021.1.2,Win32,29.94818963,,,,,,,,1,Ontime,j,1,1.9479,0,2,2,3,1,,,,,
,1.87,,,,,,,,,h.PNG,h,612d384d2854531514c9be92,2021-10-19_12h43.21.960,forced_choiceRT,2021.1.2,Win32,29.94818963,,,,,,,,1,Slow,f,0,2.1159,0,3,3,2,1,,,,,
,0.28,,,,,,,,,f.PNG,f,612d384d2854531514c9be92,2021-10-19_12h43.21.960,forced_choiceRT,2021.1.2,Win32,29.94818963,,,,,,,,1,Fast,f,1,1.8653,1,0,4,0,1,,,,,
,0,,,,,,,,,g.PNG,g,612d384d2854531514c9be92,2021-10-19_12h43.21.960,forced_choiceRT,2021.1.2,Win32,29.94818963,,,,,,,,1,Ontime,g,1,2.0255,1,1,5,1,1,,,,,
,1.47,,,,,,,,,h.PNG,h,612d384d2854531514c9be92,2021-10-19_12h43.21.960,forced_choiceRT,2021.1.2,Win32,29.94818963,,,,,,,,1,Ontime,f,0,1.942,1,2,6,2,1,,,,,
,1.57,,,,,,,,,j.PNG,j,612d384d2854531514c9be92,2021-10-19_12h43.21.960,forced_choiceRT,2021.1.2,Win32,29.94818963,,,,,,,,1,Ontime,j,1,2.057,1,3,7,3,1,,,,,
,0.54,,,,,,,,,j.PNG,j,612d384d2854531514c9be92,2021-10-19_12h43.21.960,forced_choiceRT,2021.1.2,Win32,29.94818963,,,,,,,,1,Ontime,j,1,2.0145,2,0,8,3,1,,,,,
,0.11,,,,,,,,,g.PNG,g,612d384d2854531514c9be92,2021-10-19_12h43.21.960,forced_choiceRT,2021.1.2,Win32,29.94818963,,,,,,,,1,Ontime,g,1,1.9678,2,1,9,1,1,,,,,
,1.84,,,,,,,,,f.PNG,f,612d384d2854531514c9be92,2021-10-19_12h43.21.960,forced_choiceRT,2021.1.2,Win32,29.94818963,,,,,,,,1,Slow,h,0,2.3134,2,2,10,0,1,,,,,
,0.12,,,,,,,,,g.PNG,g,612d384d2854531514c9be92,2021-10-19_12h43.21.960,forced_choiceRT,2021.1.2,Win32,29.94818963,,,,,,,,1,Ontime,g,1,1.9274,2,3,11,1,1,,,,,
,1.09,,,,,,,,,j.PNG,j,612d384d2854531514c9be92,2021-10-19_12h43.21.960,forced_choiceRT,2021.1.2,Win32,29.94818963,,,,,,,,1,Ontime,j,1,2.0311,3,0,12,3,1,,,,,
,1.63,,,,,,,,,g.PNG,g,612d384d2854531514c9be92,2021-10-19_12h43.21.960,forced_choiceRT,2021.1.2,Win32,29.94818963,,,,,,,,1,Ontime,j,0,2.024,3,1,13,1,1,,,,,
,0.65,,,,,,,,,g.PNG,g,612d384d2854531514c9be92,2021-10-19_12h43.21.960,forced_choiceRT,2021.1.2,Win32,29.94818963,,,,,,,,1,Ontime,g,1,1.9801,3,2,14,1,1,,,,,
,1.25,,,,,,,,,h.PNG,h,612d384d2854531514c9be92,2021-10-19_12h43.21.960,forced_choiceRT,2021.1.2,Win32,29.94818963,,,,,,,,1,Ontime,f,0,1.9771,3,3,15,2,1,,,,,
,1.85,,,,,,,,,h.PNG,h,612d384d2854531514c9be92,2021-10-19_12h43.21.960,forced_choiceRT,2021.1.2,Win32,29.94818963,,,,,,,,1,Slow,f,0,2.1267,4,0,16,2,1,,,,,
,0.02,,,,,,,,,j.PNG,j,612d384d2854531514c9be92,2021-10-19_12h43.21.960,forced_choiceRT,2021.1.2,Win32,29.94818963,,,,,,,,1,Ontime,j,1,2.0669,4,1,17,3,1,,,,,
,0.04,,,,,,,,,g.PNG,g,612d384d2854531514c9be92,2021-10-19_12h43.21.960,forced_choiceRT,2021.1.2,Win32,29.94818963,,,,,,,,1,Ontime,g,1,2.0798,4,2,18,1,1,,,,,
,1.09,,,,,,,,,f.PNG,f,612d384d2854531514c9be92,2021-10-19_12h43.21.960,forced_choiceRT,2021.1.2,Win32,29.94818963,,,,,,,,1,Ontime,f,1,2.0062,4,3,19,0,1,,,,,
,1.63,,,,,,,,,f.PNG,f,612d384d2854531514c9be92,2021-10-19_12h43.21.960,forced_choiceRT,2021.1.2,Win32,29.94818963,,,,,,,,1,Ontime,f,1,2.0967,5,0,20,0,1,,,,,
,1.85,,,,,,,,,j.PNG,j,612d384d2854531514c9be92,2021-10-19_12h43.21.960,forced_choiceRT,2021.1.2,Win32,29.94818963,,,,,,,,1,Slow,j,1,2.1334,5,1,21,3,1,,,,,
,1.15,,,,,,,,,j.PNG,j,612d384d2854531514c9be92,2021-10-19_12h43.21.960,forced_choiceRT,2021.1.2,Win32,29.94818963,,,,,,,,1,Ontime,j,1,2.0805,5,2,22,3,1,,,,,
,1.41,,,,,,,,,f.PNG,f,612d384d2854531514c9be92,2021-10-19_12h43.21.960,forced_choiceRT,2021.1.2,Win32,29.94818963,,,,,,,,1,Ontime,f,1,1.9565,5,3,23,0,1,,,,,
,0.59,,,,,,,,,j.PNG,j,612d384d2854531514c9be92,2021-10-19_12h43.21.960,forced_choiceRT,2021.1.2,Win32,29.94818963,,,,,,,,1,Ontime,j,1,2.0189,6,0,24,3,1,,,,,
,1.13,,,,,,,,,g.PNG,g,612d384d2854531514c9be92,2021-10-19_12h43.21.960,forced_choiceRT,2021.1.2,Win32,29.94818963,,,,,,,,1,Ontime,g,1,1.9845,6,1,25,1,1,,,,,
,1.89,,,,,,,,,g.PNG,g,612d384d2854531514c9be92,2021-10-19_12h43.21.960,forced_choiceRT,2021.1.2,Win32,29.94818963,,,,,,,,1,Slow,j,0,14.4471,6,2,26,1,1,,,,,
,1.43,,,,,,,,,f.PNG,f,612d384d2854531514c9be92,2021-10-19_12h43.21.960,forced_choiceRT,2021.1.2,Win32,29.94818963,,,,,,,,1,Ontime,f,1,2.0633,6,3,27,0,1,,,,,
,1,,,,,,,,,h.PNG,h,612d384d2854531514c9be92,2021-10-19_12h43.21.960,forced_choiceRT,2021.1.2,Win32,29.94818963,,,,,,,,1,Ontime,g,0,1.9764,7,0,28,2,1,,,,,
,0.62,,,,,,,,,f.PNG,f,612d384d2854531514c9be92,2021-10-19_12h43.21.960,forced_choiceRT,2021.1.2,Win32,29.94818963,,,,,,,,1,Ontime,g,0,1.9412,7,1,29,0,1,,,,,
,0.59,,,,,,,,,h.PNG,h,612d384d2854531514c9be92,2021-10-19_12h43.21.960,forced_choiceRT,2021.1.2,Win32,29.94818963,,,,,,,,1,Ontime,h,1,1.9045,7,2,30,2,1,,,,,
,0.99,,,,,,,,,g.PNG,g,612d384d2854531514c9be92,2021-10-19_12h43.21.960,forced_choiceRT,2021.1.2,Win32,29.94818963,,,,,,,,1,Fast,f,0,1.8385,7,3,31,1,1,,,,,
,1.04,,,,,,,,,h.PNG,h,612d384d2854531514c9be92,2021-10-19_12h43.21.960,forced_choiceRT,2021.1.2,Win32,29.94818963,,,,,,,,1,Ontime,j,0,1.9078,8,0,32,2,1,,,,,
,0.84,,,,,,,,,f.PNG,f,612d384d2854531514c9be92,2021-10-19_12h43.21.960,forced_choiceRT,2021.1.2,Win32,29.94818963,,,,,,,,1,Ontime,f,1,1.9604,8,1,33,0,1,,,,,
,0.19,,,,,,,,,f.PNG,f,612d384d2854531514c9be92,2021-10-19_12h43.21.960,forced_choiceRT,2021.1.2,Win32,29.94818963,,,,,,,,1,Ontime,f,1,2.0293,8,2,34,0,1,,,,,
,0.62,,,,,,,,,h.PNG,h,612d384d2854531514c9be92,2021-10-19_12h43.21.960,forced_choiceRT,2021.1.2,Win32,29.94818963,,,,,,,,1,Fast,h,1,1.8208,8,3,35,2,1,,,,,
,0.06,,,,,,,,,f.PNG,f,612d384d2854531514c9be92,2021-10-19_12h43.21.960,forced_choiceRT,2021.1.2,Win32,29.94818963,,,,,,,,1,Ontime,f,1,1.9896,9,0,36,0,1,,,,,
,0.68,,,,,,,,,j.PNG,j,612d384d2854531514c9be92,2021-10-19_12h43.21.960,forced_choiceRT,2021.1.2,Win32,29.94818963,,,,,,,,1,Ontime,j,1,2.0341,9,1,37,3,1,,,,,
,1.05,,,,,,,,,h.PNG,h,612d384d2854531514c9be92,2021-10-19_12h43.21.960,forced_choiceRT,2021.1.2,Win32,29.94818963,,,,,,,,1,Ontime,g,0,1.9762,9,2,38,2,1,,,,,
,0.98,,,,,,,,,g.PNG,g,612d384d2854531514c9be92,2021-10-19_12h43.21.960,forced_choiceRT,2021.1.2,Win32,29.94818963,,,,,,,,1,Ontime,g,1,2.0155,9,3,39,1,1,,,,,
,,,,,,,,,,,,612d384d2854531514c9be92,2021-10-19_12h43.21.960,forced_choiceRT,2021.1.2,Win32,29.94818963,,,,,,,,,,,,,,,,,,0,0,0,0,1
,1.19,,,,,,,,,j.PNG,j,612d384d2854531514c9be92,2021-10-19_12h43.21.960,forced_choiceRT,2021.1.2,Win32,29.94818963,,,,,,,,2,Ontime,j,1,2.0132,0,0,0,3,1,,,,,
,1.67,,,,,,,,,j.PNG,j,612d384d2854531514c9be92,2021-10-19_12h43.21.960,forced_choiceRT,2021.1.2,Win32,29.94818963,,,,,,,,2,Slow,g,0,2.1712,0,1,1,3,1,,,,,
,1.3,,,,,,,,,g.PNG,g,612d384d2854531514c9be92,2021-10-19_12h43.21.960,forced_choiceRT,2021.1.2,Win32,29.94818963,,,,,,,,2,Ontime,g,1,1.9769,0,2,2,1,1,,,,,
,1.43,,,,,,,,,h.PNG,h,612d384d2854531514c9be92,2021-10-19_12h43.21.960,forced_choiceRT,2021.1.2,Win32,29.94818963,,,,,,,,2,Slow,j,0,2.1138,0,3,3,2,1,,,,,
,0.84,,,,,,,,,f.PNG,f,612d384d2854531514c9be92,2021-10-19_12h43.21.960,forced_choiceRT,2021.1.2,Win32,29.94818963,,,,,,,,2,Ontime,f,1,1.9922,1,0,4,0,1,,,,,
,1.57,,,,,,,,,g.PNG,g,612d384d2854531514c9be92,2021-10-19_12h43.21.960,forced_choiceRT,2021.1.2,Win32,29.94818963,,,,,,,,2,Ontime,j,0,2.0592,1,1,5,1,1,,,,,
,0.72,,,,,,,,,h.PNG,h,612d384d2854531514c9be92,2021-10-19_12h43.21.960,forced_choiceRT,2021.1.2,Win32,29.94818963,,,,,,,,2,Ontime,h,1,2.0039,1,2,6,2,1,,,,,
,1.8,,,,,,,,,f.PNG,f,612d384d2854531514c9be92,2021-10-19_12h43.21.960,forced_choiceRT,2021.1.2,Win32,29.94818963,,,,,,,,2,Ontime,g,0,2.0035,1,3,7,0,1,,,,,
,0.54,,,,,,,,,g.PNG,g,612d384d2854531514c9be92,2021-10-19_12h43.21.960,forced_choiceRT,2021.1.2,Win32,29.94818963,,,,,,,,2,Ontime,g,1,2.0013,2,0,8,1,1,,,,,
,0.48,,,,,,,,,f.PNG,f,612d384d2854531514c9be92,2021-10-19_12h43.21.960,forced_choiceRT,2021.1.2,Win32,29.94818963,,,,,,,,2,Ontime,f,1,2.0395,2,1,9,0,1,,,,,
,0.74,,,,,,,,,h.PNG,h,612d384d2854531514c9be92,2021-10-19_12h43.21.960,forced_choiceRT,2021.1.2,Win32,29.94818963,,,,,,,,2,Ontime,g,0,1.9819,2,2,10,2,1,,,,,
,0.34,,,,,,,,,j.PNG,j,612d384d2854531514c9be92,2021-10-19_12h43.21.960,forced_choiceRT,2021.1.2,Win32,29.94818963,,,,,,,,2,Ontime,j,1,2.0533,2,3,11,3,1,,,,,
,1.46,,,,,,,,,g.PNG,g,612d384d2854531514c9be92,2021-10-19_12h43.21.960,forced_choiceRT,2021.1.2,Win32,29.94818963,,,,,,,,2,Ontime,h,0,2.0911,3,0,12,1,1,,,,,
,1.59,,,,,,,,,f.PNG,f,612d384d2854531514c9be92,2021-10-19_12h43.21.960,forced_choiceRT,2021.1.2,Win32,29.94818963,,,,,,,,2,Ontime,f,1,2.0911,3,1,13,0,1,,,,,
,1.35,,,,,,,,,f.PNG,f,612d384d2854531514c9be92,2021-10-19_12h43.21.960,forced_choiceRT,2021.1.2,Win32,29.94818963,,,,,,,,2,Ontime,f,1,1.947,3,2,14,0,1,,,,,
,0.07,,,,,,,,,j.PNG,j,612d384d2854531514c9be92,2021-10-19_12h43.21.960,forced_choiceRT,2021.1.2,Win32,29.94818963,,,,,,,,2,Ontime,j,1,2.0355,3,3,15,3,1,,,,,
,1.07,,,,,,,,,j.PNG,j,612d384d2854531514c9be92,2021-10-19_12h43.21.960,forced_choiceRT,2021.1.2,Win32,29.94818963,,,,,,,,2,Ontime,j,1,2.0643,4,0,16,3,1,,,,,
,0.9,,,,,,,,,f.PNG,f,612d384d2854531514c9be92,2021-10-19_12h43.21.960,forced_choiceRT,2021.1.2,Win32,29.94818963,,,,,,,,2,Slow,f,1,2.197,4,1,17,0,1,,,,,
,0.55,,,,,,,,,j.PNG,j,612d384d2854531514c9be92,2021-10-19_12h43.21.960,forced_choiceRT,2021.1.2,Win32,29.94818963,,,,,,,,2,Ontime,j,1,1.989,4,2,18,3,1,,,,,
,0.69,,,,,,,,,h.PNG,h,612d384d2854531514c9be92,2021-10-19_12h43.21.960,forced_choiceRT,2021.1.2,Win32,29.94818963,,,,,,,,2,Fast,g,0,1.8978,4,3,19,2,1,,,,,
,0.06,,,,,,,,,h.PNG,h,612d384d2854531514c9be92,2021-10-19_12h43.21.960,forced_choiceRT,2021.1.2,Win32,29.94818963,,,,,,,,2,Ontime,h,1,1.9843,5,0,20,2,1,,,,,
,1.64,,,,,,,,,f.PNG,f,612d384d2854531514c9be92,2021-10-19_12h43.21.960,forced_choiceRT,2021.1.2,Win32,29.94818963,,,,,,,,2,Slow,f,1,2.1258,5,1,21,0,1,,,,,
,0.74,,,,,,,,,g.PNG,g,612d384d2854531514c9be92,2021-10-19_12h43.21.960,forced_choiceRT,2021.1.2,Win32,29.94818963,,,,,,,,2,Fast,g,1,1.7344,5,2,22,1,1,,,,,
,0.24,,,,,,,,,h.PNG,h,612d384d2854531514c9be92,2021-10-19_12h43.21.960,forced_choiceRT,2021.1.2,Win32,29.94818963,,,,,,,,2,Ontime,h,1,1.9304,5,3,23,2,1,,,,,
,1.05,,,,,,,,,j.PNG,j,612d384d2854531514c9be92,2021-10-19_12h43.21.960,forced_choiceRT,2021.1.2,Win32,29.94818963,,,,,,,,2,Ontime,j,1,2.0017,6,0,24,3,1,,,,,
,0.82,,,,,,,,,h.PNG,h,612d384d2854531514c9be92,2021-10-19_12h43.21.960,forced_choiceRT,2021.1.2,Win32,29.94818963,,,,,,,,2,Fast,g,0,1.6886,6,1,25,2,1,,,,,
,1.84,,,,,,,,,g.PNG,g,612d384d2854531514c9be92,2021-10-19_12h43.21.960,forced_choiceRT,2021.1.2,Win32,29.94818963,,,,,,,,2,Slow,j,0,2.2469,6,2,26,1,1,,,,,
,0.65,,,,,,,,,j.PNG,j,612d384d2854531514c9be92,2021-10-19_12h43.21.960,forced_choiceRT,2021.1.2,Win32,29.94818963,,,,,,,,2,Ontime,j,1,2.0749,6,3,27,3,1,,,,,
,0.52,,,,,,,,,g.PNG,g,612d384d2854531514c9be92,2021-10-19_12h43.21.960,forced_choiceRT,2021.1.2,Win32,29.94818963,,,,,,,,2,Ontime,g,1,2.018,7,0,28,1,1,,,,,
,0.46,,,,,,,,,h.PNG,h,612d384d2854531514c9be92,2021-10-19_12h43.21.960,forced_choiceRT,2021.1.2,Win32,29.94818963,,,,,,,,2,Fast,f,0,1.6973,7,1,29,2,1,,,,,
,1.14,,,,,,,,,f.PNG,f,612d384d2854531514c9be92,2021-10-19_12h43.21.960,forced_choiceRT,2021.1.2,Win32,29.94818963,,,,,,,,2,Ontime,f,1,1.9223,7,2,30,0,1,,,,,
,1.68,,,,,,,,,h.PNG,h,612d384d2854531514c9be92,2021-10-19_12h43.21.960,forced_choiceRT,2021.1.2,Win32,29.94818963,,,,,,,,2,Ontime,j,0,2.0081,7,3,31,2,1,,,,,
,1.64,,,,,,,,,f.PNG,f,612d384d2854531514c9be92,2021-10-19_12h43.21.960,forced_choiceRT,2021.1.2,Win32,29.94818963,,,,,,,,2,Ontime,f,1,2.0389,8,0,32,0,1,,,,,
,0.25,,,,,,,,,j.PNG,j,612d384d2854531514c9be92,2021-10-19_12h43.21.960,forced_choiceRT,2021.1.2,Win32,29.94818963,,,,,,,,2,Ontime,j,1,2.0303,8,1,33,3,1,,,,,
,0.75,,,,,,,,,j.PNG,j,612d384d2854531514c9be92,2021-10-19_12h43.21.960,forced_choiceRT,2021.1.2,Win32,29.94818963,,,,,,,,2,Ontime,j,1,2.0415,8,2,34,3,1,,,,,
,1.63,,,,,,,,,g.PNG,g,612d384d2854531514c9be92,2021-10-19_12h43.21.960,forced_choiceRT,2021.1.2,Win32,29.94818963,,,,,,,,2,Ontime,j,0,2.084,8,3,35,1,1,,,,,
,1.65,,,,,,,,,h.PNG,h,612d384d2854531514c9be92,2021-10-19_12h43.21.960,forced_choiceRT,2021.1.2,Win32,29.94818963,,,,,,,,2,Slow,j,0,2.2066,9,0,36,2,1,,,,,
,0.29,,,,,,,,,f.PNG,f,612d384d2854531514c9be92,2021-10-19_12h43.21.960,forced_choiceRT,2021.1.2,Win32,29.94818963,,,,,,,,2,Ontime,f,1,1.998,9,1,37,0,1,,,,,
,0.46,,,,,,,,,g.PNG,g,612d384d2854531514c9be92,2021-10-19_12h43.21.960,forced_choiceRT,2021.1.2,Win32,29.94818963,,,,,,,,2,Ontime,g,1,1.9828,9,2,38,1,1,,,,,
,1.41,,,,,,,,,g.PNG,g,612d384d2854531514c9be92,2021-10-19_12h43.21.960,forced_choiceRT,2021.1.2,Win32,29.94818963,,,,,,,,2,Ontime,j,0,1.936,9,3,39,1,1,,,,,
,,,,,,,,,,,,612d384d2854531514c9be92,2021-10-19_12h43.21.960,forced_choiceRT,2021.1.2,Win32,29.94818963,,,,,,,,,,,,,,,,,,1,0,1,0,1
,0.42,,,,,,,,,f.PNG,f,612d384d2854531514c9be92,2021-10-19_12h43.21.960,forced_choiceRT,2021.1.2,Win32,29.94818963,,,,,,,,3,Ontime,f,1,2.0518,0,0,0,0,1,,,,,
,0.77,,,,,,,,,g.PNG,g,612d384d2854531514c9be92,2021-10-19_12h43.21.960,forced_choiceRT,2021.1.2,Win32,29.94818963,,,,,,,,3,Fast,g,1,1.6769,0,1,1,1,1,,,,,
,1.05,,,,,,,,,j.PNG,j,612d384d2854531514c9be92,2021-10-19_12h43.21.960,forced_choiceRT,2021.1.2,Win32,29.94818963,,,,,,,,3,Fast,j,1,1.6057,0,2,2,3,1,,,,,
,0.42,,,,,,,,,f.PNG,f,612d384d2854531514c9be92,2021-10-19_12h43.21.960,forced_choiceRT,2021.1.2,Win32,29.94818963,,,,,,,,3,Ontime,f,1,2.0001,0,3,3,0,1,,,,,
,0.49,,,,,,,,,j.PNG,j,612d384d2854531514c9be92,2021-10-19_12h43.21.960,forced_choiceRT,2021.1.2,Win32,29.94818963,,,,,,,,3,Ontime,j,1,2.038,1,0,4,3,1,,,,,
,0.08,,,,,,,,,f.PNG,f,612d384d2854531514c9be92,2021-10-19_12h43.21.960,forced_choiceRT,2021.1.2,Win32,29.94818963,,,,,,,,3,Ontime,f,1,2.0377,1,1,5,0,1,,,,,
,1.85,,,,,,,,,f.PNG,f,612d384d2854531514c9be92,2021-10-19_12h43.21.960,forced_choiceRT,2021.1.2,Win32,29.94818963,,,,,,,,3,Slow,j,0,2.2661,1,2,6,0,1,,,,,
,0.44,,,,,,,,,g.PNG,g,612d384d2854531514c9be92,2021-10-19_12h43.21.960,forced_choiceRT,2021.1.2,Win32,29.94818963,,,,,,,,3,Ontime,g,1,2.0761,1,3,7,1,1,,,,,
,1.14,,,,,,,,,h.PNG,h,612d384d2854531514c9be92,2021-10-19_12h43.21.960,forced_choiceRT,2021.1.2,Win32,29.94818963,,,,,,,,3,Ontime,j,0,1.9678,2,0,8,2,1,,,,,
,0.11,,,,,,,,,h.PNG,h,612d384d2854531514c9be92,2021-10-19_12h43.21.960,forced_choiceRT,2021.1.2,Win32,29.94818963,,,,,,,,3,Ontime,h,1,2.019,2,1,9,2,1,,,,,
,1.5,,,,,,,,,g.PNG,g,612d384d2854531514c9be92,2021-10-19_12h43.21.960,forced_choiceRT,2021.1.2,Win32,29.94818963,,,,,,,,3,Ontime,j,0,1.9333,2,2,10,1,1,,,,,
,0.48,,,,,,,,,j.PNG,j,612d384d2854531514c9be92,2021-10-19_12h43.21.960,forced_choiceRT,2021.1.2,Win32,29.94818963,,,,,,,,3,Ontime,j,1,2.0088,2,3,11,3,1,,,,,
,1.57,,,,,,,,,j.PNG,j,612d384d2854531514c9be92,2021-10-19_12h43.21.960,forced_choiceRT,2021.1.2,Win32,29.94818963,,,,,,,,3,Ontime,j,1,2.0025,3,0,12,3,1,,,,,
,0.39,,,,,,,,,g.PNG,g,612d384d2854531514c9be92,2021-10-19_12h43.21.960,forced_choiceRT,2021.1.2,Win32,29.94818963,,,,,,,,3,Ontime,g,1,1.9913,3,1,13,1,1,,,,,
,1.05,,,,,,,,,g.PNG,g,612d384d2854531514c9be92,2021-10-19_12h43.21.960,forced_choiceRT,2021.1.2,Win32,29.94818963,,,,,,,,3,Ontime,g,1,2.0139,3,2,14,1,1,,,,,
,0.06,,,,,,,,,h.PNG,h,612d384d2854531514c9be92,2021-10-19_12h43.21.960,forced_choiceRT,2021.1.2,Win32,29.94818963,,,,,,,,3,Ontime,h,1,2.0107,3,3,15,2,1,,,,,
,0.53,,,,,,,,,h.PNG,h,612d384d2854531514c9be92,2021-10-19_12h43.21.960,forced_choiceRT,2021.1.2,Win32,29.94818963,,,,,,,,3,Ontime,h,1,1.9843,4,0,16,2,1,,,,,
,0.15,,,,,,,,,h.PNG,h,612d384d2854531514c9be92,2021-10-19_12h43.21.960,forced_choiceRT,2021.1.2,Win32,29.94818963,,,,,,,,3,Ontime,h,1,2.047,4,1,17,2,1,,,,,
,0.02,,,,,,,,,g.PNG,g,612d384d2854531514c9be92,2021-10-19_12h43.21.960,forced_choiceRT,2021.1.2,Win32,29.94818963,,,,,,,,3,Ontime,g,1,2.0182,4,2,18,1,1,,,,,
,1.68,,,,,,,,,f.PNG,f,612d384d2854531514c9be92,2021-10-19_12h43.21.960,forced_choiceRT,2021.1.2,Win32,29.94818963,,,,,,,,3,Slow,f,1,2.1199,4,3,19,0,1,,,,,
,0.81,,,,,,,,,g.PNG,g,612d384d2854531514c9be92,2021-10-19_12h43.21.960,forced_choiceRT,2021.1.2,Win32,29.94818963,,,,,,,,3,Ontime,h,0,1.9975,5,0,20,1,1,,,,,
,0.06,,,,,,,,,f.PNG,f,612d384d2854531514c9be92,2021-10-19_12h43.21.960,forced_choiceRT,2021.1.2,Win32,29.94818963,,,,,,,,3,Ontime,f,1,2.0027,5,1,21,0,1,,,,,
,1.05,,,,,,,,,j.PNG,j,612d384d2854531514c9be92,2021-10-19_12h43.21.960,forced_choiceRT,2021.1.2,Win32,29.94818963,,,,,,,,3,Ontime,j,1,2.0662,5,2,22,3,1,,,,,
,1.14,,,,,,,,,g.PNG,g,612d384d2854531514c9be92,2021-10-19_12h43.21.960,forced_choiceRT,2021.1.2,Win32,29.94818963,,,,,,,,3,Ontime,g,1,1.9804,5,3,23,1,1,,,,,
,1.91,,,,,,,,,j.PNG,j,612d384d2854531514c9be92,2021-10-19_12h43.21.960,forced_choiceRT,2021.1.2,Win32,29.94818963,,,,,,,,3,Slow,j,1,2.3223,6,0,24,3,1,,,,,
,0.06,,,,,,,,,f.PNG,f,612d384d2854531514c9be92,2021-10-19_12h43.21.960,forced_choiceRT,2021.1.2,Win32,29.94818963,,,,,,,,3,Ontime,f,1,2.0231,6,1,25,0,1,,,,,
,0.99,,,,,,,,,h.PNG,h,612d384d2854531514c9be92,2021-10-19_12h43.21.960,forced_choiceRT,2021.1.2,Win32,29.94818963,,,,,,,,3,Fast,g,0,1.8469,6,2,26,2,1,,,,,
,0.2,,,,,,,,,j.PNG,j,612d384d2854531514c9be92,2021-10-19_12h43.21.960,forced_choiceRT,2021.1.2,Win32,29.94818963,,,,,,,,3,Ontime,j,1,1.9775,6,3,27,3,1,,,,,
,0.52,,,,,,,,,j.PNG,j,612d384d2854531514c9be92,2021-10-19_12h43.21.960,forced_choiceRT,2021.1.2,Win32,29.94818963,,,,,,,,3,Ontime,j,1,2.035,7,0,28,3,1,,,,,
,1.28,,,,,,,,,h.PNG,h,612d384d2854531514c9be92,2021-10-19_12h43.21.960,forced_choiceRT,2021.1.2,Win32,29.94818963,,,,,,,,3,Ontime,h,1,1.9798,7,1,29,2,1,,,,,
,0.2,,,,,,,,,f.PNG,f,612d384d2854531514c9be92,2021-10-19_12h43.21.960,forced_choiceRT,2021.1.2,Win32,29.94818963,,,,,,,,3,Ontime,f,1,2.0245,7,2,30,0,1,,,,,
,1.43,,,,,,,,,h.PNG,h,612d384d2854531514c9be92,2021-10-19_12h43.21.960,forced_choiceRT,2021.1.2,Win32,29.94818963,,,,,,,,3,Ontime,f,0,2.0133,7,3,31,2,1,,,,,
,0.94,,,,,,,,,f.PNG,f,612d384d2854531514c9be92,2021-10-19_12h43.21.960,forced_choiceRT,2021.1.2,Win32,29.94818963,,,,,,,,3,Slow,f,1,2.1039,8,0,32,0,1,,,,,
,0.39,,,,,,,,,h.PNG,h,612d384d2854531514c9be92,2021-10-19_12h43.21.960,forced_choiceRT,2021.1.2,Win32,29.94818963,,,,,,,,3,Ontime,g,0,1.9634,8,1,33,2,1,,,,,
,1.49,,,,,,,,,f.PNG,f,612d384d2854531514c9be92,2021-10-19_12h43.21.960,forced_choiceRT,2021.1.2,Win32,29.94818963,,,,,,,,3,Ontime,f,1,2.0299,8,2,34,0,1,,,,,
,1.14,,,,,,,,,h.PNG,h,612d384d2854531514c9be92,2021-10-19_12h43.21.960,forced_choiceRT,2021.1.2,Win32,29.94818963,,,,,,,,3,Ontime,h,1,2.0638,8,3,35,2,1,,,,,
,1.93,,,,,,,,,j.PNG,j,612d384d2854531514c9be92,2021-10-19_12h43.21.960,forced_choiceRT,2021.1.2,Win32,29.94818963,,,,,,,,3,Slow,j,1,2.2134,9,0,36,3,1,,,,,
,1.04,,,,,,,,,j.PNG,j,612d384d2854531514c9be92,2021-10-19_12h43.21.960,forced_choiceRT,2021.1.2,Win32,29.94818963,,,,,,,,3,Fast,j,1,1.5844,9,1,37,3,1,,,,,
,0.79,,,,,,,,,g.PNG,g,612d384d2854531514c9be92,2021-10-19_12h43.21.960,forced_choiceRT,2021.1.2,Win32,29.94818963,,,,,,,,3,Ontime,g,1,2.0087,9,2,38,1,1,,,,,
,0.57,,,,,,,,,g.PNG,g,612d384d2854531514c9be92,2021-10-19_12h43.21.960,forced_choiceRT,2021.1.2,Win32,29.94818963,,,,,,,,3,Ontime,g,1,2.0032,9,3,39,1,1,,,,,
,,,,,,,,,,,,612d384d2854531514c9be92,2021-10-19_12h43.21.960,forced_choiceRT,2021.1.2,Win32,29.94818963,,,,,,,,,,,,,,,,,,2,0,2,0,1
,0.6,,,,,,,,,f.PNG,f,612d384d2854531514c9be92,2021-10-19_12h43.21.960,forced_choiceRT,2021.1.2,Win32,29.94818963,,,,,,,,4,Ontime,f,1,2.0537,0,0,0,0,1,,,,,
,1.19,,,,,,,,,j.PNG,j,612d384d2854531514c9be92,2021-10-19_12h43.21.960,forced_choiceRT,2021.1.2,Win32,29.94818963,,,,,,,,4,Fast,j,1,1.7335,0,1,1,3,1,,,,,
,0.97,,,,,,,,,g.PNG,g,612d384d2854531514c9be92,2021-10-19_12h43.21.960,forced_choiceRT,2021.1.2,Win32,29.94818963,,,,,,,,4,Ontime,g,1,2.0557,0,2,2,1,1,,,,,
,0.86,,,,,,,,,j.PNG,j,612d384d2854531514c9be92,2021-10-19_12h43.21.960,forced_choiceRT,2021.1.2,Win32,29.94818963,,,,,,,,4,Slow,j,1,2.13,0,3,3,3,1,,,,,
,1.08,,,,,,,,,j.PNG,j,612d384d2854531514c9be92,2021-10-19_12h43.21.960,forced_choiceRT,2021.1.2,Win32,29.94818963,,,,,,,,4,Ontime,j,1,2.0262,1,0,4,3,1,,,,,
,1.26,,,,,,,,,g.PNG,g,612d384d2854531514c9be92,2021-10-19_12h43.21.960,forced_choiceRT,2021.1.2,Win32,29.94818963,,,,,,,,4,Fast,j,0,1.8988,1,1,5,1,1,,,,,
,1.06,,,,,,,,,h.PNG,h,612d384d2854531514c9be92,2021-10-19_12h43.21.960,forced_choiceRT,2021.1.2,Win32,29.94818963,,,,,,,,4,Ontime,g,0,1.9318,1,2,6,2,1,,,,,
,0.78,,,,,,,,,g.PNG,g,612d384d2854531514c9be92,2021-10-19_12h43.21.960,forced_choiceRT,2021.1.2,Win32,29.94818963,,,,,,,,4,Ontime,g,1,2.0471,1,3,7,1,1,,,,,
,1.73,,,,,,,,,f.PNG,f,612d384d2854531514c9be92,2021-10-19_12h43.21.960,forced_choiceRT,2021.1.2,Win32,29.94818963,,,,,,,,4,Slow,h,0,2.1378,2,0,8,0,1,,,,,
,1.41,,,,,,,,,g.PNG,g,612d384d2854531514c9be92,2021-10-19_12h43.21.960,forced_choiceRT,2021.1.2,Win32,29.94818963,,,,,,,,4,Slow,g,1,2.1017,2,1,9,1,1,,,,,
,0.47,,,,,,,,,j.PNG,j,612d384d2854531514c9be92,2021-10-19_12h43.21.960,forced_choiceRT,2021.1.2,Win32,29.94818963,,,,,,,,4,Ontime,j,1,1.9923,2,2,10,3,1,,,,,
,0.09,,,,,,,,,g.PNG,g,612d384d2854531514c9be92,2021-10-19_12h43.21.960,forced_choiceRT,2021.1.2,Win32,29.94818963,,,,,,,,4,Ontime,g,1,1.9807,2,3,11,1,1,,,,,
,0.97,,,,,,,,,h.PNG,h,612d384d2854531514c9be92,2021-10-19_12h43.21.960,forced_choiceRT,2021.1.2,Win32,29.94818963,,,,,,,,4,Ontime,h,1,2.0871,3,0,12,2,1,,,,,
,0.52,,,,,,,,,f.PNG,f,612d384d2854531514c9be92,2021-10-19_12h43.21.960,forced_choiceRT,2021.1.2,Win32,29.94818963,,,,,,,,4,Ontime,f,1,2.0037,3,1,13,0,1,,,,,
,0.6,,,,,,,,,h.PNG,h,612d384d2854531514c9be92,2021-10-19_12h43.21.960,forced_choiceRT,2021.1.2,Win32,29.94818963,,,,,,,,4,Ontime,g,0,1.9209,3,2,14,2,1,,,,,
,0.05,,,,,,,,,f.PNG,f,612d384d2854531514c9be92,2021-10-19_12h43.21.960,forced_choiceRT,2021.1.2,Win32,29.94818963,,,,,,,,4,Ontime,f,1,2.0244,3,3,15,0,1,,,,,
,1.86,,,,,,,,,h.PNG,h,612d384d2854531514c9be92,2021-10-19_12h43.21.960,forced_choiceRT,2021.1.2,Win32,29.94818963,,,,,,,,4,Slow,j,0,2.1256,4,0,16,2,1,,,,,
,1.48,,,,,,,,,h.PNG,h,612d384d2854531514c9be92,2021-10-19_12h43.21.960,forced_choiceRT,2021.1.2,Win32,29.94818963,,,,,,,,4,Ontime,h,1,2.016,4,1,17,2,1,,,,,
,0,,,,,,,,,f.PNG,f,612d384d2854531514c9be92,2021-10-19_12h43.21.960,forced_choiceRT,2021.1.2,Win32,29.94818963,,,,,,,,4,Ontime,f,1,2.001,4,2,18,0,1,,,,,
,1.25,,,,,,,,,f.PNG,f,612d384d2854531514c9be92,2021-10-19_12h43.21.960,forced_choiceRT,2021.1.2,Win32,29.94818963,,,,,,,,4,Ontime,f,1,1.9506,4,3,19,0,1,,,,,
,0.18,,,,,,,,,j.PNG,j,612d384d2854531514c9be92,2021-10-19_12h43.21.960,forced_choiceRT,2021.1.2,Win32,29.94818963,,,,,,,,4,Ontime,j,1,1.992,5,0,20,3,1,,,,,
,0.21,,,,,,,,,h.PNG,h,612d384d2854531514c9be92,2021-10-19_12h43.21.960,forced_choiceRT,2021.1.2,Win32,29.94818963,,,,,,,,4,Ontime,g,0,1.9896,5,1,21,2,1,,,,,
,1.63,,,,,,,,,g.PNG,g,612d384d2854531514c9be92,2021-10-19_12h43.21.960,forced_choiceRT,2021.1.2,Win32,29.94818963,,,,,,,,4,Slow,g,1,2.1634,5,2,22,1,1,,,,,
,0.16,,,,,,,,,h.PNG,h,612d384d2854531514c9be92,2021-10-19_12h43.21.960,forced_choiceRT,2021.1.2,Win32,29.94818963,,,,,,,,4,Ontime,h,1,2.0169,5,3,23,2,1,,,,,
,1.26,,,,,,,,,j.PNG,j,612d384d2854531514c9be92,2021-10-19_12h43.21.960,forced_choiceRT,2021.1.2,Win32,29.94818963,,,,,,,,4,Ontime,j,1,2.0506,6,0,24,3,1,,,,,
,1.44,,,,,,,,,f.PNG,f,612d384d2854531514c9be92,2021-10-19_12h43.21.960,forced_choiceRT,2021.1.2,Win32,29.94818963,,,,,,,,4,Ontime,f,1,1.9311,6,1,25,0,1,,,,,
,0.62,,,,,,,,,h.PNG,h,612d384d2854531514c9be92,2021-10-19_12h43.21.960,forced_choiceRT,2021.1.2,Win32,29.94818963,,,,,,,,4,Ontime,g,0,1.9328,6,2,26,2,1,,,,,
,0.47,,,,,,,,,g.PNG,g,612d384d2854531514c9be92,2021-10-19_12h43.21.960,forced_choiceRT,2021.1.2,Win32,29.94818963,,,,,,,,4,Ontime,g,1,1.9892,6,3,27,1,1,,,,,
,1.05,,,,,,,,,g.PNG,g,612d384d2854531514c9be92,2021-10-19_12h43.21.960,forced_choiceRT,2021.1.2,Win32,29.94818963,,,,,,,,4,Ontime,g,1,1.9901,7,0,28,1,1,,,,,
,1.74,,,,,,,,,j.PNG,j,612d384d2854531514c9be92,2021-10-19_12h43.21.960,forced_choiceRT,2021.1.2,Win32,29.94818963,,,,,,,,4,Slow,h,0,2.2968,7,1,29,3,1,,,,,
,1.68,,,,,,,,,h.PNG,h,612d384d2854531514c9be92,2021-10-19_12h43.21.960,forced_choiceRT,2021.1.2,Win32,29.94818963,,,,,,,,4,Slow,f,0,2.1992,7,2,30,2,1,,,,,
,0.79,,,,,,,,,h.PNG,h,612d384d2854531514c9be92,2021-10-19_12h43.21.960,forced_choiceRT,2021.1.2,Win32,29.94818963,,,,,,,,4,Ontime,g,0,1.9441,7,3,31,2,1,,,,,
,0.12,,,,,,,,,g.PNG,g,612d384d2854531514c9be92,2021-10-19_12h43.21.960,forced_choiceRT,2021.1.2,Win32,29.94818963,,,,,,,,4,Ontime,g,1,1.9834,8,0,32,1,1,,,,,
,1.59,,,,,,,,,j.PNG,j,612d384d2854531514c9be92,2021-10-19_12h43.21.960,forced_choiceRT,2021.1.2,Win32,29.94818963,,,,,,,,4,Slow,j,1,2.1267,8,1,33,3,1,,,,,
,0.79,,,,,,,,,f.PNG,f,612d384d2854531514c9be92,2021-10-19_12h43.21.960,forced_choiceRT,2021.1.2,Win32,29.94818963,,,,,,,,4,Ontime,f,1,2.0559,8,2,34,0,1,,,,,
,1.48,,,,,,,,,f.PNG,f,612d384d2854531514c9be92,2021-10-19_12h43.21.960,forced_choiceRT,2021.1.2,Win32,29.94818963,,,,,,,,4,Ontime,f,1,2.0544,8,3,35,0,1,,,,,
,0.11,,,,,,,,,j.PNG,j,612d384d2854531514c9be92,2021-10-19_12h43.21.960,forced_choiceRT,2021.1.2,Win32,29.94818963,,,,,,,,4,Ontime,j,1,1.9987,9,0,36,3,1,,,,,
,0.4,,,,,,,,,g.PNG,g,612d384d2854531514c9be92,2021-10-19_12h43.21.960,forced_choiceRT,2021.1.2,Win32,29.94818963,,,,,,,,4,Ontime,g,1,1.9271,9,1,37,1,1,,,,,
,0.08,,,,,,,,,f.PNG,f,612d384d2854531514c9be92,2021-10-19_12h43.21.960,forced_choiceRT,2021.1.2,Win32,29.94818963,,,,,,,,4,Ontime,f,1,2.0216,9,2,38,0,1,,,,,
,1.99,,,,,,,,,j.PNG,j,612d384d2854531514c9be92,2021-10-19_12h43.21.960,forced_choiceRT,2021.1.2,Win32,29.94818963,,,,,,,,4,Slow,f,0,5.9024,9,3,39,3,1,,,,,
,,,,,,,,,,,,612d384d2854531514c9be92,2021-10-19_12h43.21.960,forced_choiceRT,2021.1.2,Win32,29.94818963,,,,,,,,,,,,,,,,,,3,0,3,0,1
,1.17,,,,,,,,,j.PNG,j,612d384d2854531514c9be92,2021-10-19_12h43.21.960,forced_choiceRT,2021.1.2,Win32,29.94818963,,,,,,,,5,Ontime,j,1,2.0572,0,0,0,3,1,,,,,
,1.55,,,,,,,,,j.PNG,j,612d384d2854531514c9be92,2021-10-19_12h43.21.960,forced_choiceRT,2021.1.2,Win32,29.94818963,,,,,,,,5,Ontime,j,1,2.0159,0,1,1,3,1,,,,,
,1.1,,,,,,,,,j.PNG,j,612d384d2854531514c9be92,2021-10-19_12h43.21.960,forced_choiceRT,2021.1.2,Win32,29.94818963,,,,,,,,5,Ontime,j,1,2.0183,0,2,2,3,1,,,,,
,1.79,,,,,,,,,g.PNG,g,612d384d2854531514c9be92,2021-10-19_12h43.21.960,forced_choiceRT,2021.1.2,Win32,29.94818963,,,,,,,,5,Slow,j,0,2.1747,0,3,3,1,1,,,,,
,0.37,,,,,,,,,j.PNG,j,612d384d2854531514c9be92,2021-10-19_12h43.21.960,forced_choiceRT,2021.1.2,Win32,29.94818963,,,,,,,,5,Ontime,j,1,1.9368,1,0,4,3,1,,,,,
,1.12,,,,,,,,,j.PNG,j,612d384d2854531514c9be92,2021-10-19_12h43.21.960,forced_choiceRT,2021.1.2,Win32,29.94818963,,,,,,,,5,Ontime,j,1,2.0046,1,1,5,3,1,,,,,
,1.68,,,,,,,,,h.PNG,h,612d384d2854531514c9be92,2021-10-19_12h43.21.960,forced_choiceRT,2021.1.2,Win32,29.94818963,,,,,,,,5,Slow,g,0,2.1658,1,2,6,2,1,,,,,
,0.3,,,,,,,,,j.PNG,j,612d384d2854531514c9be92,2021-10-19_12h43.21.960,forced_choiceRT,2021.1.2,Win32,29.94818963,,,,,,,,5,Ontime,j,1,2.0337,1,3,7,3,1,,,,,
,0.67,,,,,,,,,h.PNG,h,612d384d2854531514c9be92,2021-10-19_12h43.21.960,forced_choiceRT,2021.1.2,Win32,29.94818963,,,,,,,,5,Fast,h,1,1.8884,2,0,8,2,1,,,,,
,1.23,,,,,,,,,g.PNG,g,612d384d2854531514c9be92,2021-10-19_12h43.21.960,forced_choiceRT,2021.1.2,Win32,29.94818963,,,,,,,,5,Ontime,g,1,2.0434,2,1,9,1,1,,,,,
,0.01,,,,,,,,,h.PNG,h,612d384d2854531514c9be92,2021-10-19_12h43.21.960,forced_choiceRT,2021.1.2,Win32,29.94818963,,,,,,,,5,Ontime,h,1,1.9525,2,2,10,2,1,,,,,
,0.72,,,,,,,,,g.PNG,g,612d384d2854531514c9be92,2021-10-19_12h43.21.960,forced_choiceRT,2021.1.2,Win32,29.94818963,,,,,,,,5,Ontime,g,1,2.014,2,3,11,1,1,,,,,
,1.52,,,,,,,,,f.PNG,f,612d384d2854531514c9be92,2021-10-19_12h43.21.960,forced_choiceRT,2021.1.2,Win32,29.94818963,,,,,,,,5,Ontime,f,1,1.9376,3,0,12,0,1,,,,,
,0.65,,,,,,,,,g.PNG,g,612d384d2854531514c9be92,2021-10-19_12h43.21.960,forced_choiceRT,2021.1.2,Win32,29.94818963,,,,,,,,5,Ontime,g,1,1.9687,3,1,13,1,1,,,,,
,0.29,,,,,,,,,j.PNG,j,612d384d2854531514c9be92,2021-10-19_12h43.21.960,forced_choiceRT,2021.1.2,Win32,29.94818963,,,,,,,,5,Ontime,j,1,2.0027,3,2,14,3,1,,,,,
,1.4,,,,,,,,,j.PNG,j,612d384d2854531514c9be92,2021-10-19_12h43.21.960,forced_choiceRT,2021.1.2,Win32,29.94818963,,,,,,,,5,Ontime,j,1,1.9311,3,3,15,3,1,,,,,
,1.84,,,,,,,,,f.PNG,f,612d384d2854531514c9be92,2021-10-19_12h43.21.960,forced_choiceRT,2021.1.2,Win32,29.94818963,,,,,,,,5,Slow,g,0,2.263,4,0,16,0,1,,,,,
,0.63,,,,,,,,,g.PNG,g,612d384d2854531514c9be92,2021-10-19_12h43.21.960,forced_choiceRT,2021.1.2,Win32,29.94818963,,,,,,,,5,Ontime,h,0,1.9337,4,1,17,1,1,,,,,
,0.25,,,,,,,,,f.PNG,f,612d384d2854531514c9be92,2021-10-19_12h43.21.960,forced_choiceRT,2021.1.2,Win32,29.94818963,,,,,,,,5,Ontime,f,1,2.0482,4,2,18,0,1,,,,,
,0.75,,,,,,,,,f.PNG,f,612d384d2854531514c9be92,2021-10-19_12h43.21.960,forced_choiceRT,2021.1.2,Win32,29.94818963,,,,,,,,5,Slow,f,1,2.2219,4,3,19,0,1,,,,,
,1.28,,,,,,,,,j.PNG,j,612d384d2854531514c9be92,2021-10-19_12h43.21.960,forced_choiceRT,2021.1.2,Win32,29.94818963,,,,,,,,5,Ontime,j,1,2.0376,5,0,20,3,1,,,,,
,1.81,,,,,,,,,g.PNG,g,612d384d2854531514c9be92,2021-10-19_12h43.21.960,forced_choiceRT,2021.1.2,Win32,29.94818963,,,,,,,,5,Slow,f,0,2.2712,5,1,21,1,1,,,,,
,0.49,,,,,,,,,f.PNG,f,612d384d2854531514c9be92,2021-10-19_12h43.21.960,forced_choiceRT,2021.1.2,Win32,29.94818963,,,,,,,,5,Ontime,f,1,1.9635,5,2,22,0,1,,,,,
,0.82,,,,,,,,,g.PNG,g,612d384d2854531514c9be92,2021-10-19_12h43.21.960,forced_choiceRT,2021.1.2,Win32,29.94818963,,,,,,,,5,Fast,g,1,1.8969,5,3,23,1,1,,,,,
,0.75,,,,,,,,,f.PNG,f,612d384d2854531514c9be92,2021-10-19_12h43.21.960,forced_choiceRT,2021.1.2,Win32,29.94818963,,,,,,,,5,Ontime,f,1,1.9676,6,0,24,0,1,,,,,
,0.1,,,,,,,,,h.PNG,h,612d384d2854531514c9be92,2021-10-19_12h43.21.960,forced_choiceRT,2021.1.2,Win32,29.94818963,,,,,,,,5,Fast,h,1,1.887,6,1,25,2,1,,,,,
,1.18,,,,,,,,,h.PNG,h,612d384d2854531514c9be92,2021-10-19_12h43.21.960,forced_choiceRT,2021.1.2,Win32,29.94818963,,,,,,,,5,Ontime,h,1,1.9929,6,2,26,2,1,,,,,
,1.76,,,,,,,,,f.PNG,f,612d384d2854531514c9be92,2021-10-19_12h43.21.960,forced_choiceRT,2021.1.2,Win32,29.94818963,,,,,,,,5,Ontime,f,1,2.0521,6,3,27,0,1,,,,,
,0.34,,,,,,,,,f.PNG,f,612d384d2854531514c9be92,2021-10-19_12h43.21.960,forced_choiceRT,2021.1.2,Win32,29.94818963,,,,,,,,5,Ontime,f,1,2.0245,7,0,28,0,1,,,,,
,1.38,,,,,,,,,f.PNG,f,612d384d2854531514c9be92,2021-10-19_12h43.21.960,forced_choiceRT,2021.1.2,Win32,29.94818963,,,,,,,,5,Ontime,f,1,2.0315,7,1,29,0,1,,,,,
,1.5,,,,,,,,,g.PNG,g,612d384d2854531514c9be92,2021-10-19_12h43.21.960,forced_choiceRT,2021.1.2,Win32,29.94818963,,,,,,,,5,Ontime,f,0,1.9078,7,2,30,1,1,,,,,
,1.82,,,,,,,,,h.PNG,h,612d384d2854531514c9be92,2021-10-19_12h43.21.960,forced_choiceRT,2021.1.2,Win32,29.94818963,,,,,,,,5,Slow,g,0,2.2021,7,3,31,2,1,,,,,
,0.65,,,,,,,,,f.PNG,f,612d384d2854531514c9be92,2021-10-19_12h43.21.960,forced_choiceRT,2021.1.2,Win32,29.94818963,,,,,,,,5,Ontime,f,1,1.98,8,0,32,0,1,,,,,
,0.34,,,,,,,,,h.PNG,h,612d384d2854531514c9be92,2021-10-19_12h43.21.960,forced_choiceRT,2021.1.2,Win32,29.94818963,,,,,,,,5,Ontime,h,1,1.9872,8,1,33,2,1,,,,,
,0.28,,,,,,,,,h.PNG,h,612d384d2854531514c9be92,2021-10-19_12h43.21.960,forced_choiceRT,2021.1.2,Win32,29.94818963,,,,,,,,5,Ontime,h,1,2.0012,8,2,34,2,1,,,,,
,0.6,,,,,,,,,h.PNG,h,612d384d2854531514c9be92,2021-10-19_12h43.21.960,forced_choiceRT,2021.1.2,Win32,29.94818963,,,,,,,,5,Ontime,h,1,1.9662,8,3,35,2,1,,,,,
,0.91,,,,,,,,,g.PNG,g,612d384d2854531514c9be92,2021-10-19_12h43.21.960,forced_choiceRT,2021.1.2,Win32,29.94818963,,,,,,,,5,Ontime,g,1,1.9549,9,0,36,1,1,,,,,
,1.38,,,,,,,,,j.PNG,j,612d384d2854531514c9be92,2021-10-19_12h43.21.960,forced_choiceRT,2021.1.2,Win32,29.94818963,,,,,,,,5,Ontime,j,1,1.9862,9,1,37,3,1,,,,,
,1.93,,,,,,,,,g.PNG,g,612d384d2854531514c9be92,2021-10-19_12h43.21.960,forced_choiceRT,2021.1.2,Win32,29.94818963,,,,,,,,5,Ontime,j,0,2.0894,9,2,38,1,1,,,,,
,1.71,,,,,,,,,h.PNG,h,612d384d2854531514c9be92,2021-10-19_12h43.21.960,forced_choiceRT,2021.1.2,Win32,29.94818963,,,,,,,,5,Slow,j,0,2.1807,9,3,39,2,1,,,,,
,,,,,,,,,,,,612d384d2854531514c9be92,2021-10-19_12h43.21.960,forced_choiceRT,2021.1.2,Win32,29.94818963,,,,,,,,,,,,,,,,,,4,0,4,0,1
,0.59,,,,,,,,,j.PNG,j,612d384d2854531514c9be92,2021-10-19_12h43.21.960,forced_choiceRT,2021.1.2,Win32,29.94818963,,,,,,,,6,Ontime,j,1,2.0208,0,0,0,3,1,,,,,
,0.95,,,,,,,,,j.PNG,j,612d384d2854531514c9be92,2021-10-19_12h43.21.960,forced_choiceRT,2021.1.2,Win32,29.94818963,,,,,,,,6,Ontime,j,1,2.0015,0,1,1,3,1,,,,,
,1.45,,,,,,,,,g.PNG,g,612d384d2854531514c9be92,2021-10-19_12h43.21.960,forced_choiceRT,2021.1.2,Win32,29.94818963,,,,,,,,6,Fast,g,1,1.8639,0,2,2,1,1,,,,,
,1.12,,,,,,,,,g.PNG,g,612d384d2854531514c9be92,2021-10-19_12h43.21.960,forced_choiceRT,2021.1.2,Win32,29.94818963,,,,,,,,6,Ontime,g,1,1.9386,0,3,3,1,1,,,,,
,1.18,,,,,,,,,j.PNG,j,612d384d2854531514c9be92,2021-10-19_12h43.21.960,forced_choiceRT,2021.1.2,Win32,29.94818963,,,,,,,,6,Ontime,j,1,2.0294,1,0,4,3,1,,,,,
,1.21,,,,,,,,,j.PNG,j,612d384d2854531514c9be92,2021-10-19_12h43.21.960,forced_choiceRT,2021.1.2,Win32,29.94818963,,,,,,,,6,Ontime,j,1,2.0759,1,1,5,3,1,,,,,
,0.36,,,,,,,,,h.PNG,h,612d384d2854531514c9be92,2021-10-19_12h43.21.960,forced_choiceRT,2021.1.2,Win32,29.94818963,,,,,,,,6,Ontime,h,1,1.9835,1,2,6,2,1,,,,,
,1.29,,,,,,,,,f.PNG,f,612d384d2854531514c9be92,2021-10-19_12h43.21.960,forced_choiceRT,2021.1.2,Win32,29.94818963,,,,,,,,6,Ontime,f,1,2.0899,1,3,7,0,1,,,,,
,0.63,,,,,,,,,g.PNG,g,612d384d2854531514c9be92,2021-10-19_12h43.21.960,forced_choiceRT,2021.1.2,Win32,29.94818963,,,,,,,,6,Ontime,g,1,2.0633,2,0,8,1,1,,,,,
,0.87,,,,,,,,,g.PNG,g,612d384d2854531514c9be92,2021-10-19_12h43.21.960,forced_choiceRT,2021.1.2,Win32,29.94818963,,,,,,,,6,Ontime,h,0,1.9532,2,1,9,1,1,,,,,
,1.67,,,,,,,,,f.PNG,f,612d384d2854531514c9be92,2021-10-19_12h43.21.960,forced_choiceRT,2021.1.2,Win32,29.94818963,,,,,,,,6,Slow,f,1,2.1665,2,2,10,0,1,,,,,
,0.9,,,,,,,,,h.PNG,h,612d384d2854531514c9be92,2021-10-19_12h43.21.960,forced_choiceRT,2021.1.2,Win32,29.94818963,,,,,,,,6,Ontime,g,0,1.9693,2,3,11,2,1,,,,,
,0.59,,,,,,,,,g.PNG,g,612d384d2854531514c9be92,2021-10-19_12h43.21.960,forced_choiceRT,2021.1.2,Win32,29.94818963,,,,,,,,6,Ontime,g,1,1.996,3,0,12,1,1,,,,,
,0.4,,,,,,,,,f.PNG,f,612d384d2854531514c9be92,2021-10-19_12h43.21.960,forced_choiceRT,2021.1.2,Win32,29.94818963,,,,,,,,6,Ontime,f,1,1.9561,3,1,13,0,1,,,,,
,0.22,,,,,,,,,j.PNG,j,612d384d2854531514c9be92,2021-10-19_12h43.21.960,forced_choiceRT,2021.1.2,Win32,29.94818963,,,,,,,,6,Ontime,j,1,2.0461,3,2,14,3,1,,,,,
,0.38,,,,,,,,,h.PNG,h,612d384d2854531514c9be92,2021-10-19_12h43.21.960,forced_choiceRT,2021.1.2,Win32,29.94818963,,,,,,,,6,Ontime,h,1,1.9235,3,3,15,2,1,,,,,
,1.87,,,,,,,,,j.PNG,j,612d384d2854531514c9be92,2021-10-19_12h43.21.960,forced_choiceRT,2021.1.2,Win32,29.94818963,,,,,,,,6,Slow,f,0,2.2704,4,0,16,3,1,,,,,
,1.22,,,,,,,,,h.PNG,h,612d384d2854531514c9be92,2021-10-19_12h43.21.960,forced_choiceRT,2021.1.2,Win32,29.94818963,,,,,,,,6,Ontime,h,1,1.9474,4,1,17,2,1,,,,,
,0,,,,,,,,,h.PNG,h,612d384d2854531514c9be92,2021-10-19_12h43.21.960,forced_choiceRT,2021.1.2,Win32,29.94818963,,,,,,,,6,Ontime,h,1,1.936,4,2,18,2,1,,,,,
,1.13,,,,,,,,,f.PNG,f,612d384d2854531514c9be92,2021-10-19_12h43.21.960,forced_choiceRT,2021.1.2,Win32,29.94818963,,,,,,,,6,Ontime,f,1,2.0254,4,3,19,0,1,,,,,
,1.42,,,,,,,,,h.PNG,h,612d384d2854531514c9be92,2021-10-19_12h43.21.960,forced_choiceRT,2021.1.2,Win32,29.94818963,,,,,,,,6,Ontime,f,0,1.9997,5,0,20,2,1,,,,,
,1.38,,,,,,,,,h.PNG,h,612d384d2854531514c9be92,2021-10-19_12h43.21.960,forced_choiceRT,2021.1.2,Win32,29.94818963,,,,,,,,6,Ontime,g,0,1.9409,5,1,21,2,1,,,,,
,1.65,,,,,,,,,f.PNG,f,612d384d2854531514c9be92,2021-10-19_12h43.21.960,forced_choiceRT,2021.1.2,Win32,29.94818963,,,,,,,,6,Slow,f,1,2.1154,5,2,22,0,1,,,,,
,0.72,,,,,,,,,h.PNG,h,612d384d2854531514c9be92,2021-10-19_12h43.21.960,forced_choiceRT,2021.1.2,Win32,29.94818963,,,,,,,,6,Ontime,h,1,1.9701,5,3,23,2,1,,,,,
,0.1,,,,,,,,,f.PNG,f,612d384d2854531514c9be92,2021-10-19_12h43.21.960,forced_choiceRT,2021.1.2,Win32,29.94818963,,,,,,,,6,Ontime,f,1,1.9212,6,0,24,0,1,,,,,
,1.67,,,,,,,,,h.PNG,h,612d384d2854531514c9be92,2021-10-19_12h43.21.960,forced_choiceRT,2021.1.2,Win32,29.94818963,,,,,,,,6,Slow,f,0,2.1016,6,1,25,2,1,,,,,
,0.83,,,,,,,,,g.PNG,g,612d384d2854531514c9be92,2021-10-19_12h43.21.960,forced_choiceRT,2021.1.2,Win32,29.94818963,,,,,,,,6,Fast,g,1,1.8198,6,2,26,1,1,,,,,
,0.22,,,,,,,,,j.PNG,j,612d384d2854531514c9be92,2021-10-19_12h43.21.960,forced_choiceRT,2021.1.2,Win32,29.94818963,,,,,,,,6,Ontime,j,1,1.9911,6,3,27,3,1,,,,,
,1.38,,,,,,,,,f.PNG,f,612d384d2854531514c9be92,2021-10-19_12h43.21.960,forced_choiceRT,2021.1.2,Win32,29.94818963,,,,,,,,6,Fast,f,1,1.8873,7,0,28,0,1,,,,,
,0.13,,,,,,,,,g.PNG,g,612d384d2854531514c9be92,2021-10-19_12h43.21.960,forced_choiceRT,2021.1.2,Win32,29.94818963,,,,,,,,6,Ontime,g,1,1.9077,7,1,29,1,1,,,,,
,0.46,,,,,,,,,f.PNG,f,612d384d2854531514c9be92,2021-10-19_12h43.21.960,forced_choiceRT,2021.1.2,Win32,29.94818963,,,,,,,,6,Ontime,f,1,1.9856,7,2,30,0,1,,,,,
,1.81,,,,,,,,,f.PNG,f,612d384d2854531514c9be92,2021-10-19_12h43.21.960,forced_choiceRT,2021.1.2,Win32,29.94818963,,,,,,,,6,Slow,f,1,2.2568,7,3,31,0,1,,,,,
,1.12,,,,,,,,,j.PNG,j,612d384d2854531514c9be92,2021-10-19_12h43.21.960,forced_choiceRT,2021.1.2,Win32,29.94818963,,,,,,,,6,Ontime,j,1,1.9578,8,0,32,3,1,,,,,
,0.03,,,,,,,,,g.PNG,g,612d384d2854531514c9be92,2021-10-19_12h43.21.960,forced_choiceRT,2021.1.2,Win32,29.94818963,,,,,,,,6,Ontime,g,1,2.0225,8,1,33,1,1,,,,,
,0.8,,,,,,,,,f.PNG,f,612d384d2854531514c9be92,2021-10-19_12h43.21.960,forced_choiceRT,2021.1.2,Win32,29.94818963,,,,,,,,6,Ontime,f,1,2.0789,8,2,34,0,1,,,,,
,1,,,,,,,,,h.PNG,h,612d384d2854531514c9be92,2021-10-19_12h43.21.960,forced_choiceRT,2021.1.2,Win32,29.94818963,,,,,,,,6,Fast,g,0,1.7636,8,3,35,2,1,,,,,
,1.33,,,,,,,,,j.PNG,j,612d384d2854531514c9be92,2021-10-19_12h43.21.960,forced_choiceRT,2021.1.2,Win32,29.94818963,,,,,,,,6,Fast,j,1,1.8898,9,0,36,3,1,,,,,
,1.04,,,,,,,,,g.PNG,g,612d384d2854531514c9be92,2021-10-19_12h43.21.960,forced_choiceRT,2021.1.2,Win32,29.94818963,,,,,,,,6,Fast,g,1,1.8892,9,1,37,1,1,,,,,
,1,,,,,,,,,j.PNG,j,612d384d2854531514c9be92,2021-10-19_12h43.21.960,forced_choiceRT,2021.1.2,Win32,29.94818963,,,,,,,,6,Ontime,j,1,2.0508,9,2,38,3,1,,,,,
,0.95,,,,,,,,,g.PNG,g,612d384d2854531514c9be92,2021-10-19_12h43.21.960,forced_choiceRT,2021.1.2,Win32,29.94818963,,,,,,,,6,Ontime,g,1,1.9166,9,3,39,1,1,,,,,
,,,,,,,,,,,,612d384d2854531514c9be92,2021-10-19_12h43.21.960,forced_choiceRT,2021.1.2,Win32,29.94818963,,,,,,,,,,,,,,,,,,5,0,5,0,1
,0.68,,,,,,,,,f.PNG,f,612d384d2854531514c9be92,2021-10-19_12h43.21.960,forced_choiceRT,2021.1.2,Win32,29.94818963,,,,,,,,7,Ontime,f,1,1.991,0,0,0,0,1,,,,,
,1.14,,,,,,,,,j.PNG,j,612d384d2854531514c9be92,2021-10-19_12h43.21.960,forced_choiceRT,2021.1.2,Win32,29.94818963,,,,,,,,7,Ontime,j,1,2.0398,0,1,1,3,1,,,,,
,0.47,,,,,,,,,h.PNG,h,612d384d2854531514c9be92,2021-10-19_12h43.21.960,forced_choiceRT,2021.1.2,Win32,29.94818963,,,,,,,,7,Fast,g,0,1.7182,0,2,2,2,1,,,,,
,1.25,,,,,,,,,f.PNG,f,612d384d2854531514c9be92,2021-10-19_12h43.21.960,forced_choiceRT,2021.1.2,Win32,29.94818963,,,,,,,,7,Ontime,f,1,2.006,0,3,3,0,1,,,,,
,0.62,,,,,,,,,h.PNG,h,612d384d2854531514c9be92,2021-10-19_12h43.21.960,forced_choiceRT,2021.1.2,Win32,29.94818963,,,,,,,,7,Ontime,g,0,1.9596,1,0,4,2,1,,,,,
,1.66,,,,,,,,,f.PNG,f,612d384d2854531514c9be92,2021-10-19_12h43.21.960,forced_choiceRT,2021.1.2,Win32,29.94818963,,,,,,,,7,Ontime,f,1,1.9727,1,1,5,0,1,,,,,
,1.97,,,,,,,,,h.PNG,h,612d384d2854531514c9be92,2021-10-19_12h43.21.960,forced_choiceRT,2021.1.2,Win32,29.94818963,,,,,,,,7,Ontime,j,0,2.0535,1,2,6,2,1,,,,,
,0.65,,,,,,,,,g.PNG,g,612d384d2854531514c9be92,2021-10-19_12h43.21.960,forced_choiceRT,2021.1.2,Win32,29.94818963,,,,,,,,7,Ontime,j,0,2.0529,1,3,7,1,1,,,,,
,0.71,,,,,,,,,f.PNG,f,612d384d2854531514c9be92,2021-10-19_12h43.21.960,forced_choiceRT,2021.1.2,Win32,29.94818963,,,,,,,,7,Ontime,f,1,2.0183,2,0,8,0,1,,,,,
,1.69,,,,,,,,,g.PNG,g,612d384d2854531514c9be92,2021-10-19_12h43.21.960,forced_choiceRT,2021.1.2,Win32,29.94818963,,,,,,,,7,Slow,g,1,2.2262,2,1,9,1,1,,,,,
,0.2,,,,,,,,,f.PNG,f,612d384d2854531514c9be92,2021-10-19_12h43.21.960,forced_choiceRT,2021.1.2,Win32,29.94818963,,,,,,,,7,Ontime,f,1,2.0185,2,2,10,0,1,,,,,
,1.97,,,,,,,,,g.PNG,g,612d384d2854531514c9be92,2021-10-19_12h43.21.960,forced_choiceRT,2021.1.2,Win32,29.94818963,,,,,,,,7,Ontime,g,1,2.0591,2,3,11,1,1,,,,,
,1.29,,,,,,,,,j.PNG,j,612d384d2854531514c9be92,2021-10-19_12h43.21.960,forced_choiceRT,2021.1.2,Win32,29.94818963,,,,,,,,7,Ontime,j,1,2.0303,3,0,12,3,1,,,,,
,0.4,,,,,,,,,f.PNG,f,612d384d2854531514c9be92,2021-10-19_12h43.21.960,forced_choiceRT,2021.1.2,Win32,29.94818963,,,,,,,,7,Ontime,f,1,2.0501,3,1,13,0,1,,,,,
,0.64,,,,,,,,,j.PNG,j,612d384d2854531514c9be92,2021-10-19_12h43.21.960,forced_choiceRT,2021.1.2,Win32,29.94818963,,,,,,,,7,Ontime,j,1,1.9893,3,2,14,3,1,,,,,
,0.48,,,,,,,,,f.PNG,f,612d384d2854531514c9be92,2021-10-19_12h43.21.960,forced_choiceRT,2021.1.2,Win32,29.94818963,,,,,,,,7,Ontime,f,1,1.9637,3,3,15,0,1,,,,,
,1.67,,,,,,,,,j.PNG,j,612d384d2854531514c9be92,2021-10-19_12h43.21.960,forced_choiceRT,2021.1.2,Win32,29.94818963,,,,,,,,7,Ontime,f,0,2.0799,4,0,16,3,1,,,,,
,1.72,,,,,,,,,j.PNG,j,612d384d2854531514c9be92,2021-10-19_12h43.21.960,forced_choiceRT,2021.1.2,Win32,29.94818963,,,,,,,,7,Ontime,j,1,2.0969,4,1,17,3,1,,,,,
,1.04,,,,,,,,,g.PNG,g,612d384d2854531514c9be92,2021-10-19_12h43.21.960,forced_choiceRT,2021.1.2,Win32,29.94818963,,,,,,,,7,Fast,g,1,1.8566,4,2,18,1,1,,,,,
,1.11,,,,,,,,,g.PNG,g,612d384d2854531514c9be92,2021-10-19_12h43.21.960,forced_choiceRT,2021.1.2,Win32,29.94818963,,,,,,,,7,Fast,g,1,1.5561,4,3,19,1,1,,,,,
,0.43,,,,,,,,,g.PNG,g,612d384d2854531514c9be92,2021-10-19_12h43.21.960,forced_choiceRT,2021.1.2,Win32,29.94818963,,,,,,,,7,Ontime,g,1,1.9971,5,0,20,1,1,,,,,
,0.94,,,,,,,,,h.PNG,h,612d384d2854531514c9be92,2021-10-19_12h43.21.960,forced_choiceRT,2021.1.2,Win32,29.94818963,,,,,,,,7,Ontime,h,1,2.0246,5,1,21,2,1,,,,,
,0.56,,,,,,,,,h.PNG,h,612d384d2854531514c9be92,2021-10-19_12h43.21.960,forced_choiceRT,2021.1.2,Win32,29.94818963,,,,,,,,7,Ontime,h,1,1.9797,5,2,22,2,1,,,,,
,0.43,,,,,,,,,j.PNG,j,612d384d2854531514c9be92,2021-10-19_12h43.21.960,forced_choiceRT,2021.1.2,Win32,29.94818963,,,,,,,,7,Ontime,j,1,1.9832,5,3,23,3,1,,,,,
,1.49,,,,,,,,,h.PNG,h,612d384d2854531514c9be92,2021-10-19_12h43.21.960,forced_choiceRT,2021.1.2,Win32,29.94818963,,,,,,,,7,Ontime,h,1,2.0013,6,0,24,2,1,,,,,
,1.1,,,,,,,,,f.PNG,f,612d384d2854531514c9be92,2021-10-19_12h43.21.960,forced_choiceRT,2021.1.2,Win32,29.94818963,,,,,,,,7,Ontime,f,1,2.0428,6,1,25,0,1,,,,,
,0.21,,,,,,,,,j.PNG,j,612d384d2854531514c9be92,2021-10-19_12h43.21.960,forced_choiceRT,2021.1.2,Win32,29.94818963,,,,,,,,7,Ontime,j,1,1.9894,6,2,26,3,1,,,,,
,0.79,,,,,,,,,j.PNG,j,612d384d2854531514c9be92,2021-10-19_12h43.21.960,forced_choiceRT,2021.1.2,Win32,29.94818963,,,,,,,,7,Ontime,j,1,2.0335,6,3,27,3,1,,,,,
,1.12,,,,,,,,,f.PNG,f,612d384d2854531514c9be92,2021-10-19_12h43.21.960,forced_choiceRT,2021.1.2,Win32,29.94818963,,,,,,,,7,Ontime,f,1,2.0472,7,0,28,0,1,,,,,
,1.82,,,,,,,,,g.PNG,g,612d384d2854531514c9be92,2021-10-19_12h43.21.960,forced_choiceRT,2021.1.2,Win32,29.94818963,,,,,,,,7,Ontime,g,1,1.9936,7,1,29,1,1,,,,,
,0.05,,,,,,,,,f.PNG,f,612d384d2854531514c9be92,2021-10-19_12h43.21.960,forced_choiceRT,2021.1.2,Win32,29.94818963,,,,,,,,7,Ontime,f,1,2.0016,7,2,30,0,1,,,,,
,0.91,,,,,,,,,g.PNG,g,612d384d2854531514c9be92,2021-10-19_12h43.21.960,forced_choiceRT,2021.1.2,Win32,29.94818963,,,,,,,,7,Ontime,g,1,1.9306,7,3,31,1,1,,,,,
,1.17,,,,,,,,,g.PNG,g,612d384d2854531514c9be92,2021-10-19_12h43.21.960,forced_choiceRT,2021.1.2,Win32,29.94818963,,,,,,,,7,Ontime,g,1,2.0202,8,0,32,1,1,,,,,
,0.87,,,,,,,,,h.PNG,h,612d384d2854531514c9be92,2021-10-19_12h43.21.960,forced_choiceRT,2021.1.2,Win32,29.94818963,,,,,,,,7,Ontime,h,1,1.9858,8,1,33,2,1,,,,,
,0.63,,,,,,,,,j.PNG,j,612d384d2854531514c9be92,2021-10-19_12h43.21.960,forced_choiceRT,2021.1.2,Win32,29.94818963,,,,,,,,7,Ontime,j,1,2.0227,8,2,34,3,1,,,,,
,0.34,,,,,,,,,g.PNG,g,612d384d2854531514c9be92,2021-10-19_12h43.21.960,forced_choiceRT,2021.1.2,Win32,29.94818963,,,,,,,,7,Ontime,g,1,1.9503,8,3,35,1,1,,,,,
,1.16,,,,,,,,,h.PNG,h,612d384d2854531514c9be92,2021-10-19_12h43.21.960,forced_choiceRT,2021.1.2,Win32,29.94818963,,,,,,,,7,Ontime,h,1,2.0263,9,0,36,2,1,,,,,
,0.5,,,,,,,,,h.PNG,h,612d384d2854531514c9be92,2021-10-19_12h43.21.960,forced_choiceRT,2021.1.2,Win32,29.94818963,,,,,,,,7,Ontime,h,1,1.9842,9,1,37,2,1,,,,,
,0.93,,,,,,,,,h.PNG,h,612d384d2854531514c9be92,2021-10-19_12h43.21.960,forced_choiceRT,2021.1.2,Win32,29.94818963,,,,,,,,7,Ontime,h,1,2.0044,9,2,38,2,1,,,,,
,0.63,,,,,,,,,j.PNG,j,612d384d2854531514c9be92,2021-10-19_12h43.21.960,forced_choiceRT,2021.1.2,Win32,29.94818963,,,,,,,,7,Ontime,j,1,2.0052,9,3,39,3,1,,,,,
,,,,,,,,,,,,612d384d2854531514c9be92,2021-10-19_12h43.21.960,forced_choiceRT,2021.1.2,Win32,29.94818963,,,,,,,,,,,,,,,,,,6,0,6,0,1
,0.71,,,,,,,,,j.PNG,j,612d384d2854531514c9be92,2021-10-19_12h43.21.960,forced_choiceRT,2021.1.2,Win32,29.94818963,,,,,,,,8,Slow,j,1,11.3777,0,0,0,3,1,,,,,
,1.77,,,,,,,,,g.PNG,g,612d384d2854531514c9be92,2021-10-19_12h43.21.960,forced_choiceRT,2021.1.2,Win32,29.94818963,,,,,,,,8,Slow,j,0,2.1541,0,1,1,1,1,,,,,
,1.51,,,,,,,,,g.PNG,g,612d384d2854531514c9be92,2021-10-19_12h43.21.960,forced_choiceRT,2021.1.2,Win32,29.94818963,,,,,,,,8,Ontime,g,1,1.9838,0,2,2,1,1,,,,,
,0.69,,,,,,,,,j.PNG,j,612d384d2854531514c9be92,2021-10-19_12h43.21.960,forced_choiceRT,2021.1.2,Win32,29.94818963,,,,,,,,8,Ontime,j,1,1.9799,0,3,3,3,1,,,,,
,1.63,,,,,,,,,h.PNG,h,612d384d2854531514c9be92,2021-10-19_12h43.21.960,forced_choiceRT,2021.1.2,Win32,29.94818963,,,,,,,,8,Ontime,g,0,2.0062,1,0,4,2,1,,,,,
,0.21,,,,,,,,,f.PNG,f,612d384d2854531514c9be92,2021-10-19_12h43.21.960,forced_choiceRT,2021.1.2,Win32,29.94818963,,,,,,,,8,Ontime,f,1,1.9605,1,1,5,0,1,,,,,
,0.31,,,,,,,,,j.PNG,j,612d384d2854531514c9be92,2021-10-19_12h43.21.960,forced_choiceRT,2021.1.2,Win32,29.94818963,,,,,,,,8,Ontime,j,1,2.0144,1,2,6,3,1,,,,,
,0.39,,,,,,,,,j.PNG,j,612d384d2854531514c9be92,2021-10-19_12h43.21.960,forced_choiceRT,2021.1.2,Win32,29.94818963,,,,,,,,8,Fast,j,1,1.8663,1,3,7,3,1,,,,,
,0.97,,,,,,,,,g.PNG,g,612d384d2854531514c9be92,2021-10-19_12h43.21.960,forced_choiceRT,2021.1.2,Win32,29.94818963,,,,,,,,8,Fast,g,1,1.8803,2,0,8,1,1,,,,,
,0.1,,,,,,,,,g.PNG,g,612d384d2854531514c9be92,2021-10-19_12h43.21.960,forced_choiceRT,2021.1.2,Win32,29.94818963,,,,,,,,8,Ontime,g,1,1.9134,2,1,9,1,1,,,,,
,0.89,,,,,,,,,g.PNG,g,612d384d2854531514c9be92,2021-10-19_12h43.21.960,forced_choiceRT,2021.1.2,Win32,29.94818963,,,,,,,,8,Fast,g,1,1.5988,2,2,10,1,1,,,,,
,0.19,,,,,,,,,f.PNG,f,612d384d2854531514c9be92,2021-10-19_12h43.21.960,forced_choiceRT,2021.1.2,Win32,29.94818963,,,,,,,,8,Ontime,f,1,1.9372,2,3,11,0,1,,,,,
,1.56,,,,,,,,,g.PNG,g,612d384d2854531514c9be92,2021-10-19_12h43.21.960,forced_choiceRT,2021.1.2,Win32,29.94818963,,,,,,,,8,Ontime,g,1,1.9566,3,0,12,1,1,,,,,
,0.14,,,,,,,,,f.PNG,f,612d384d2854531514c9be92,2021-10-19_12h43.21.960,forced_choiceRT,2021.1.2,Win32,29.94818963,,,,,,,,8,Ontime,f,1,1.9237,3,1,13,0,1,,,,,
,0.67,,,,,,,,,f.PNG,f,612d384d2854531514c9be92,2021-10-19_12h43.21.960,forced_choiceRT,2021.1.2,Win32,29.94818963,,,,,,,,8,Ontime,f,1,1.9515,3,2,14,0,1,,,,,
,1.67,,,,,,,,,j.PNG,j,612d384d2854531514c9be92,2021-10-19_12h43.21.960,forced_choiceRT,2021.1.2,Win32,29.94818963,,,,,,,,8,Ontime,g,0,1.9397,3,3,15,3,1,,,,,
,0.06,,,,,,,,,f.PNG,f,612d384d2854531514c9be92,2021-10-19_12h43.21.960,forced_choiceRT,2021.1.2,Win32,29.94818963,,,,,,,,8,Ontime,f,1,1.9643,4,0,16,0,1,,,,,
,0.87,,,,,,,,,h.PNG,h,612d384d2854531514c9be92,2021-10-19_12h43.21.960,forced_choiceRT,2021.1.2,Win32,29.94818963,,,,,,,,8,Ontime,h,1,1.9326,4,1,17,2,1,,,,,
,0.72,,,,,,,,,f.PNG,f,612d384d2854531514c9be92,2021-10-19_12h43.21.960,forced_choiceRT,2021.1.2,Win32,29.94818963,,,,,,,,8,Ontime,f,1,2.019,4,2,18,0,1,,,,,
,1.97,,,,,,,,,h.PNG,h,612d384d2854531514c9be92,2021-10-19_12h43.21.960,forced_choiceRT,2021.1.2,Win32,29.94818963,,,,,,,,8,Slow,g,0,2.1493,4,3,19,2,1,,,,,
,1.91,,,,,,,,,j.PNG,j,612d384d2854531514c9be92,2021-10-19_12h43.21.960,forced_choiceRT,2021.1.2,Win32,29.94818963,,,,,,,,8,Slow,h,0,2.2596,5,0,20,3,1,,,,,
,1.31,,,,,,,,,h.PNG,h,612d384d2854531514c9be92,2021-10-19_12h43.21.960,forced_choiceRT,2021.1.2,Win32,29.94818963,,,,,,,,8,Ontime,g,0,1.92,5,1,21,2,1,,,,,
,0.58,,,,,,,,,f.PNG,f,612d384d2854531514c9be92,2021-10-19_12h43.21.960,forced_choiceRT,2021.1.2,Win32,29.94818963,,,,,,,,8,Fast,f,1,1.8872,5,2,22,0,1,,,,,
,1.89,,,,,,,,,j.PNG,j,612d384d2854531514c9be92,2021-10-19_12h43.21.960,forced_choiceRT,2021.1.2,Win32,29.94818963,,,,,,,,8,Ontime,g,0,1.9805,5,3,23,3,1,,,,,
,1.45,,,,,,,,,g.PNG,g,612d384d2854531514c9be92,2021-10-19_12h43.21.960,forced_choiceRT,2021.1.2,Win32,29.94818963,,,,,,,,8,Fast,j,0,1.8137,6,0,24,1,1,,,,,
,1.3,,,,,,,,,f.PNG,f,612d384d2854531514c9be92,2021-10-19_12h43.21.960,forced_choiceRT,2021.1.2,Win32,29.94818963,,,,,,,,8,Fast,g,0,1.7862,6,1,25,0,1,,,,,
,0.89,,,,,,,,,j.PNG,j,612d384d2854531514c9be92,2021-10-19_12h43.21.960,forced_choiceRT,2021.1.2,Win32,29.94818963,,,,,,,,8,Ontime,j,1,2.067,6,2,26,3,1,,,,,
,0.02,,,,,,,,,h.PNG,h,612d384d2854531514c9be92,2021-10-19_12h43.21.960,forced_choiceRT,2021.1.2,Win32,29.94818963,,,,,,,,8,Ontime,h,1,1.9794,6,3,27,2,1,,,,,
,0.93,,,,,,,,,h.PNG,h,612d384d2854531514c9be92,2021-10-19_12h43.21.960,forced_choiceRT,2021.1.2,Win32,29.94818963,,,,,,,,8,Ontime,h,1,2.06,7,0,28,2,1,,,,,
,1.28,,,,,,,,,f.PNG,f,612d384d2854531514c9be92,2021-10-19_12h43.21.960,forced_choiceRT,2021.1.2,Win32,29.94818963,,,,,,,,8,Ontime,f,1,2.0387,7,1,29,0,1,,,,,
,0.81,,,,,,,,,f.PNG,f,612d384d2854531514c9be92,2021-10-19_12h43.21.960,forced_choiceRT,2021.1.2,Win32,29.94818963,,,,,,,,8,Ontime,f,1,2.0255,7,2,30,0,1,,,,,
,0.7,,,,,,,,,j.PNG,j,612d384d2854531514c9be92,2021-10-19_12h43.21.960,forced_choiceRT,2021.1.2,Win32,29.94818963,,,,,,,,8,Ontime,j,1,2.0652,7,3,31,3,1,,,,,
,1.41,,,,,,,,,h.PNG,h,612d384d2854531514c9be92,2021-10-19_12h43.21.960,forced_choiceRT,2021.1.2,Win32,29.94818963,,,,,,,,8,Ontime,h,1,1.9973,8,0,32,2,1,,,,,
,0.59,,,,,,,,,h.PNG,h,612d384d2854531514c9be92,2021-10-19_12h43.21.960,forced_choiceRT,2021.1.2,Win32,29.94818963,,,,,,,,8,Ontime,h,1,1.9497,8,1,33,2,1,,,,,
,0.52,,,,,,,,,h.PNG,h,612d384d2854531514c9be92,2021-10-19_12h43.21.960,forced_choiceRT,2021.1.2,Win32,29.94818963,,,,,,,,8,Ontime,h,1,1.9745,8,2,34,2,1,,,,,
,0.61,,,,,,,,,h.PNG,h,612d384d2854531514c9be92,2021-10-19_12h43.21.960,forced_choiceRT,2021.1.2,Win32,29.94818963,,,,,,,,8,Ontime,h,1,1.9914,8,3,35,2,1,,,,,
,0.89,,,,,,,,,j.PNG,j,612d384d2854531514c9be92,2021-10-19_12h43.21.960,forced_choiceRT,2021.1.2,Win32,29.94818963,,,,,,,,8,Ontime,j,1,2.0038,9,0,36,3,1,,,,,
,1.03,,,,,,,,,g.PNG,g,612d384d2854531514c9be92,2021-10-19_12h43.21.960,forced_choiceRT,2021.1.2,Win32,29.94818963,,,,,,,,8,Ontime,g,1,1.9845,9,1,37,1,1,,,,,
,1.89,,,,,,,,,g.PNG,g,612d384d2854531514c9be92,2021-10-19_12h43.21.960,forced_choiceRT,2021.1.2,Win32,29.94818963,,,,,,,,8,Ontime,f,0,2.0739,9,2,38,1,1,,,,,
,1.4,,,,,,,,,g.PNG,g,612d384d2854531514c9be92,2021-10-19_12h43.21.960,forced_choiceRT,2021.1.2,Win32,29.94818963,,,,,,,,8,Ontime,g,1,1.9576,9,3,39,1,1,,,,,
,,,,,,,,,,,,612d384d2854531514c9be92,2021-10-19_12h43.21.960,forced_choiceRT,2021.1.2,Win32,29.94818963,,,,,,,,,,,,,,,,,,7,0,7,0,1
,0.8,,,,,,,,,f.PNG,f,612d384d2854531514c9be92,2021-10-19_12h43.21.960,forced_choiceRT,2021.1.2,Win32,29.94818963,,,,,,,,9,Slow,f,1,2.2095,0,0,0,0,1,,,,,
,1.82,,,,,,,,,f.PNG,f,612d384d2854531514c9be92,2021-10-19_12h43.21.960,forced_choiceRT,2021.1.2,Win32,29.94818963,,,,,,,,9,Ontime,f,1,1.9867,0,1,1,0,1,,,,,
,1.17,,,,,,,,,f.PNG,f,612d384d2854531514c9be92,2021-10-19_12h43.21.960,forced_choiceRT,2021.1.2,Win32,29.94818963,,,,,,,,9,Fast,f,1,1.6967,0,2,2,0,1,,,,,
,0.57,,,,,,,,,g.PNG,g,612d384d2854531514c9be92,2021-10-19_12h43.21.960,forced_choiceRT,2021.1.2,Win32,29.94818963,,,,,,,,9,Ontime,g,1,1.9237,0,3,3,1,1,,,,,
,0.6,,,,,,,,,f.PNG,f,612d384d2854531514c9be92,2021-10-19_12h43.21.960,forced_choiceRT,2021.1.2,Win32,29.94818963,,,,,,,,9,Ontime,f,1,1.9634,1,0,4,0,1,,,,,
,1.3,,,,,,,,,g.PNG,g,612d384d2854531514c9be92,2021-10-19_12h43.21.960,forced_choiceRT,2021.1.2,Win32,29.94818963,,,,,,,,9,Fast,g,1,1.8737,1,1,5,1,1,,,,,
,1.7,,,,,,,,,j.PNG,j,612d384d2854531514c9be92,2021-10-19_12h43.21.960,forced_choiceRT,2021.1.2,Win32,29.94818963,,,,,,,,9,Ontime,f,0,2.0103,1,2,6,3,1,,,,,
,0.91,,,,,,,,,f.PNG,f,612d384d2854531514c9be92,2021-10-19_12h43.21.960,forced_choiceRT,2021.1.2,Win32,29.94818963,,,,,,,,9,Ontime,f,1,1.9829,1,3,7,0,1,,,,,
,0.37,,,,,,,,,f.PNG,f,612d384d2854531514c9be92,2021-10-19_12h43.21.960,forced_choiceRT,2021.1.2,Win32,29.94818963,,,,,,,,9,Ontime,f,1,1.9387,2,0,8,0,1,,,,,
,1.43,,,,,,,,,h.PNG,h,612d384d2854531514c9be92,2021-10-19_12h43.21.960,forced_choiceRT,2021.1.2,Win32,29.94818963,,,,,,,,9,Ontime,g,0,1.9851,2,1,9,2,1,,,,,
,1.82,,,,,,,,,g.PNG,g,612d384d2854531514c9be92,2021-10-19_12h43.21.960,forced_choiceRT,2021.1.2,Win32,29.94818963,,,,,,,,9,Ontime,f,0,2.0199,2,2,10,1,1,,,,,
,1.88,,,,,,,,,j.PNG,j,612d384d2854531514c9be92,2021-10-19_12h43.21.960,forced_choiceRT,2021.1.2,Win32,29.94818963,,,,,,,,9,Ontime,h,0,2.0517,2,3,11,3,1,,,,,
,0.17,,,,,,,,,h.PNG,h,612d384d2854531514c9be92,2021-10-19_12h43.21.960,forced_choiceRT,2021.1.2,Win32,29.94818963,,,,,,,,9,Ontime,h,1,1.9996,3,0,12,2,1,,,,,
,0.34,,,,,,,,,h.PNG,h,612d384d2854531514c9be92,2021-10-19_12h43.21.960,forced_choiceRT,2021.1.2,Win32,29.94818963,,,,,,,,9,Ontime,h,1,1.9887,3,1,13,2,1,,,,,
,1.36,,,,,,,,,h.PNG,h,612d384d2854531514c9be92,2021-10-19_12h43.21.960,forced_choiceRT,2021.1.2,Win32,29.94818963,,,,,,,,9,Ontime,h,1,1.9031,3,2,14,2,1,,,,,
,1.11,,,,,,,,,j.PNG,j,612d384d2854531514c9be92,2021-10-19_12h43.21.960,forced_choiceRT,2021.1.2,Win32,29.94818963,,,,,,,,9,Ontime,j,1,1.9806,3,3,15,3,1,,,,,
,0.97,,,,,,,,,f.PNG,f,612d384d2854531514c9be92,2021-10-19_12h43.21.960,forced_choiceRT,2021.1.2,Win32,29.94818963,,,,,,,,9,Ontime,f,1,1.9663,4,0,16,0,1,,,,,
,1.47,,,,,,,,,j.PNG,j,612d384d2854531514c9be92,2021-10-19_12h43.21.960,forced_choiceRT,2021.1.2,Win32,29.94818963,,,,,,,,9,Ontime,j,1,1.9971,4,1,17,3,1,,,,,
,0.6,,,,,,,,,g.PNG,g,612d384d2854531514c9be92,2021-10-19_12h43.21.960,forced_choiceRT,2021.1.2,Win32,29.94818963,,,,,,,,9,Ontime,g,1,2.0533,4,2,18,1,1,,,,,
,0.51,,,,,,,,,f.PNG,f,612d384d2854531514c9be92,2021-10-19_12h43.21.960,forced_choiceRT,2021.1.2,Win32,29.94818963,,,,,,,,9,Ontime,f,1,1.9491,4,3,19,0,1,,,,,
,0.09,,,,,,,,,g.PNG,g,612d384d2854531514c9be92,2021-10-19_12h43.21.960,forced_choiceRT,2021.1.2,Win32,29.94818963,,,,,,,,9,Ontime,g,1,1.9388,5,0,20,1,1,,,,,
,0.04,,,,,,,,,f.PNG,f,612d384d2854531514c9be92,2021-10-19_12h43.21.960,forced_choiceRT,2021.1.2,Win32,29.94818963,,,,,,,,9,Ontime,f,1,1.934,5,1,21,0,1,,,,,
,0.53,,,,,,,,,j.PNG,j,612d384d2854531514c9be92,2021-10-19_12h43.21.960,forced_choiceRT,2021.1.2,Win32,29.94818963,,,,,,,,9,Ontime,j,1,1.9594,5,2,22,3,1,,,,,
,0.39,,,,,,,,,j.PNG,j,612d384d2854531514c9be92,2021-10-19_12h43.21.960,forced_choiceRT,2021.1.2,Win32,29.94818963,,,,,,,,9,Ontime,j,1,1.9832,5,3,23,3,1,,,,,
,0.07,,,,,,,,,h.PNG,h,612d384d2854531514c9be92,2021-10-19_12h43.21.960,forced_choiceRT,2021.1.2,Win32,29.94818963,,,,,,,,9,Ontime,h,1,1.9275,6,0,24,2,1,,,,,
,1.9,,,,,,,,,h.PNG,h,612d384d2854531514c9be92,2021-10-19_12h43.21.960,forced_choiceRT,2021.1.2,Win32,29.94818963,,,,,,,,9,Slow,j,0,2.1471,6,1,25,2,1,,,,,
,1.65,,,,,,,,,h.PNG,h,612d384d2854531514c9be92,2021-10-19_12h43.21.960,forced_choiceRT,2021.1.2,Win32,29.94818963,,,,,,,,9,Ontime,f,0,1.9934,6,2,26,2,1,,,,,
,1.28,,,,,,,,,g.PNG,g,612d384d2854531514c9be92,2021-10-19_12h43.21.960,forced_choiceRT,2021.1.2,Win32,29.94818963,,,,,,,,9,Ontime,g,1,1.9071,6,3,27,1,1,,,,,
,1.1,,,,,,,,,j.PNG,j,612d384d2854531514c9be92,2021-10-19_12h43.21.960,forced_choiceRT,2021.1.2,Win32,29.94818963,,,,,,,,9,Ontime,j,1,1.9726,7,0,28,3,1,,,,,
,1.26,,,,,,,,,h.PNG,h,612d384d2854531514c9be92,2021-10-19_12h43.21.960,forced_choiceRT,2021.1.2,Win32,29.94818963,,,,,,,,9,Ontime,g,0,1.9802,7,1,29,2,1,,,,,
,0.12,,,,,,,,,g.PNG,g,612d384d2854531514c9be92,2021-10-19_12h43.21.960,forced_choiceRT,2021.1.2,Win32,29.94818963,,,,,,,,9,Ontime,g,1,2.0024,7,2,30,1,1,,,,,
,0.02,,,,,,,,,h.PNG,h,612d384d2854531514c9be92,2021-10-19_12h43.21.960,forced_choiceRT,2021.1.2,Win32,29.94818963,,,,,,,,9,Ontime,h,1,1.9827,7,3,31,2,1,,,,,
,1.75,,,,,,,,,g.PNG,g,612d384d2854531514c9be92,2021-10-19_12h43.21.960,forced_choiceRT,2021.1.2,Win32,29.94818963,,,,,,,,9,Ontime,f,0,1.9951,8,0,32,1,1,,,,,
,0.85,,,,,,,,,f.PNG,f,612d384d2854531514c9be92,2021-10-19_12h43.21.960,forced_choiceRT,2021.1.2,Win32,29.94818963,,,,,,,,9,Ontime,f,1,1.9921,8,1,33,0,1,,,,,
,0.63,,,,,,,,,j.PNG,j,612d384d2854531514c9be92,2021-10-19_12h43.21.960,forced_choiceRT,2021.1.2,Win32,29.94818963,,,,,,,,9,Ontime,j,1,1.989,8,2,34,3,1,,,,,
,0.31,,,,,,,,,g.PNG,g,612d384d2854531514c9be92,2021-10-19_12h43.21.960,forced_choiceRT,2021.1.2,Win32,29.94818963,,,,,,,,9,Ontime,g,1,1.9435,8,3,35,1,1,,,,,
,1.69,,,,,,,,,g.PNG,g,612d384d2854531514c9be92,2021-10-19_12h43.21.960,forced_choiceRT,2021.1.2,Win32,29.94818963,,,,,,,,9,Ontime,g,1,2.0296,9,0,36,1,1,,,,,
,0.46,,,,,,,,,h.PNG,h,612d384d2854531514c9be92,2021-10-19_12h43.21.960,forced_choiceRT,2021.1.2,Win32,29.94818963,,,,,,,,9,Ontime,h,1,1.9202,9,1,37,2,1,,,,,
,1.1,,,,,,,,,j.PNG,j,612d384d2854531514c9be92,2021-10-19_12h43.21.960,forced_choiceRT,2021.1.2,Win32,29.94818963,,,,,,,,9,Ontime,j,1,1.9261,9,2,38,3,1,,,,,
,0.11,,,,,,,,,j.PNG,j,612d384d2854531514c9be92,2021-10-19_12h43.21.960,forced_choiceRT,2021.1.2,Win32,29.94818963,,,,,,,,9,Ontime,j,1,1.9062,9,3,39,3,1,,,,,
,,,,,,,,,,,,612d384d2854531514c9be92,2021-10-19_12h43.21.960,forced_choiceRT,2021.1.2,Win32,29.94818963,,,,,,,,,,,,,,,,,,8,0,8,0,1
,1.64,,,,,,,,,h.PNG,h,612d384d2854531514c9be92,2021-10-19_12h43.21.960,forced_choiceRT,2021.1.2,Win32,29.94818963,,,,,,,,10,Ontime,g,0,2.0726,0,0,0,2,1,,,,,
,0.48,,,,,,,,,g.PNG,g,612d384d2854531514c9be92,2021-10-19_12h43.21.960,forced_choiceRT,2021.1.2,Win32,29.94818963,,,,,,,,10,Ontime,g,1,1.9307,0,1,1,1,1,,,,,
,1.53,,,,,,,,,h.PNG,h,612d384d2854531514c9be92,2021-10-19_12h43.21.960,forced_choiceRT,2021.1.2,Win32,29.94818963,,,,,,,,10,Ontime,g,0,1.9536,0,2,2,2,1,,,,,
,1.54,,,,,,,,,f.PNG,f,612d384d2854531514c9be92,2021-10-19_12h43.21.960,forced_choiceRT,2021.1.2,Win32,29.94818963,,,,,,,,10,Ontime,g,0,1.9126,0,3,3,0,1,,,,,
,1.24,,,,,,,,,f.PNG,f,612d384d2854531514c9be92,2021-10-19_12h43.21.960,forced_choiceRT,2021.1.2,Win32,29.94818963,,,,,,,,10,Fast,f,1,1.6173,1,0,4,0,1,,,,,
,1.07,,,,,,,,,f.PNG,f,612d384d2854531514c9be92,2021-10-19_12h43.21.960,forced_choiceRT,2021.1.2,Win32,29.94818963,,,,,,,,10,Ontime,f,1,2.0129,1,1,5,0,1,,,,,
,0.98,,,,,,,,,h.PNG,h,612d384d2854531514c9be92,2021-10-19_12h43.21.960,forced_choiceRT,2021.1.2,Win32,29.94818963,,,,,,,,10,Fast,g,0,1.634,1,2,6,2,1,,,,,
,0.55,,,,,,,,,j.PNG,j,612d384d2854531514c9be92,2021-10-19_12h43.21.960,forced_choiceRT,2021.1.2,Win32,29.94818963,,,,,,,,10,Ontime,j,1,1.9886,1,3,7,3,1,,,,,
,1.57,,,,,,,,,h.PNG,h,612d384d2854531514c9be92,2021-10-19_12h43.21.960,forced_choiceRT,2021.1.2,Win32,29.94818963,,,,,,,,10,Ontime,j,0,2.0602,2,0,8,2,1,,,,,
,0.56,,,,,,,,,j.PNG,j,612d384d2854531514c9be92,2021-10-19_12h43.21.960,forced_choiceRT,2021.1.2,Win32,29.94818963,,,,,,,,10,Ontime,j,1,1.9913,2,1,9,3,1,,,,,
,0.09,,,,,,,,,f.PNG,f,612d384d2854531514c9be92,2021-10-19_12h43.21.960,forced_choiceRT,2021.1.2,Win32,29.94818963,,,,,,,,10,Ontime,f,1,1.9928,2,2,10,0,1,,,,,
,0.12,,,,,,,,,j.PNG,j,612d384d2854531514c9be92,2021-10-19_12h43.21.960,forced_choiceRT,2021.1.2,Win32,29.94818963,,,,,,,,10,Ontime,j,1,1.9642,2,3,11,3,1,,,,,
,1.99,,,,,,,,,g.PNG,g,612d384d2854531514c9be92,2021-10-19_12h43.21.960,forced_choiceRT,2021.1.2,Win32,29.94818963,,,,,,,,10,Ontime,j,0,2.0631,3,0,12,1,1,,,,,
,0.75,,,,,,,,,g.PNG,g,612d384d2854531514c9be92,2021-10-19_12h43.21.960,forced_choiceRT,2021.1.2,Win32,29.94818963,,,,,,,,10,Ontime,g,1,2.0588,3,1,13,1,1,,,,,
,1.44,,,,,,,,,f.PNG,f,612d384d2854531514c9be92,2021-10-19_12h43.21.960,forced_choiceRT,2021.1.2,Win32,29.94818963,,,,,,,,10,Fast,f,1,1.8975,3,2,14,0,1,,,,,
,0.31,,,,,,,,,f.PNG,f,612d384d2854531514c9be92,2021-10-19_12h43.21.960,forced_choiceRT,2021.1.2,Win32,29.94818963,,,,,,,,10,Ontime,f,1,1.9306,3,3,15,0,1,,,,,
,0.79,,,,,,,,,j.PNG,j,612d384d2854531514c9be92,2021-10-19_12h43.21.960,forced_choiceRT,2021.1.2,Win32,29.94818963,,,,,,,,10,Ontime,j,1,1.999,4,0,16,3,1,,,,,
,1.44,,,,,,,,,f.PNG,f,612d384d2854531514c9be92,2021-10-19_12h43.21.960,forced_choiceRT,2021.1.2,Win32,29.94818963,,,,,,,,10,Ontime,f,1,1.9002,4,1,17,0,1,,,,,
,0.35,,,,,,,,,j.PNG,j,612d384d2854531514c9be92,2021-10-19_12h43.21.960,forced_choiceRT,2021.1.2,Win32,29.94818963,,,,,,,,10,Ontime,j,1,1.9506,4,2,18,3,1,,,,,
,1.57,,,,,,,,,f.PNG,f,612d384d2854531514c9be92,2021-10-19_12h43.21.960,forced_choiceRT,2021.1.2,Win32,29.94818963,,,,,,,,10,Ontime,f,1,2.0104,4,3,19,0,1,,,,,
,0.09,,,,,,,,,h.PNG,h,612d384d2854531514c9be92,2021-10-19_12h43.21.960,forced_choiceRT,2021.1.2,Win32,29.94818963,,,,,,,,10,Ontime,h,1,1.9938,5,0,20,2,1,,,,,
,0.98,,,,,,,,,g.PNG,g,612d384d2854531514c9be92,2021-10-19_12h43.21.960,forced_choiceRT,2021.1.2,Win32,29.94818963,,,,,,,,10,Ontime,g,1,2.0171,5,1,21,1,1,,,,,
,0.12,,,,,,,,,g.PNG,g,612d384d2854531514c9be92,2021-10-19_12h43.21.960,forced_choiceRT,2021.1.2,Win32,29.94818963,,,,,,,,10,Ontime,g,1,1.9842,5,2,22,1,1,,,,,
,1.95,,,,,,,,,j.PNG,j,612d384d2854531514c9be92,2021-10-19_12h43.21.960,forced_choiceRT,2021.1.2,Win32,29.94818963,,,,,,,,10,Ontime,f,0,2.0227,5,3,23,3,1,,,,,
,0.23,,,,,,,,,f.PNG,f,612d384d2854531514c9be92,2021-10-19_12h43.21.960,forced_choiceRT,2021.1.2,Win32,29.94818963,,,,,,,,10,Ontime,f,1,1.9669,6,0,24,0,1,,,,,
,1.35,,,,,,,,,j.PNG,j,612d384d2854531514c9be92,2021-10-19_12h43.21.960,forced_choiceRT,2021.1.2,Win32,29.94818963,,,,,,,,10,Ontime,j,1,2.0547,6,1,25,3,1,,,,,
,1.97,,,,,,,,,h.PNG,h,612d384d2854531514c9be92,2021-10-19_12h43.21.960,forced_choiceRT,2021.1.2,Win32,29.94818963,,,,,,,,10,Slow,h,1,4.4998,6,2,26,2,1,,,,,
,0.6,,,,,,,,,g.PNG,g,612d384d2854531514c9be92,2021-10-19_12h43.21.960,forced_choiceRT,2021.1.2,Win32,29.94818963,,,,,,,,10,Ontime,g,1,1.9139,6,3,27,1,1,,,,,
,0,,,,,,,,,f.PNG,f,612d384d2854531514c9be92,2021-10-19_12h43.21.960,forced_choiceRT,2021.1.2,Win32,29.94818963,,,,,,,,10,Fast,f,1,1.8692,7,0,28,0,1,,,,,
,0.08,,,,,,,,,j.PNG,j,612d384d2854531514c9be92,2021-10-19_12h43.21.960,forced_choiceRT,2021.1.2,Win32,29.94818963,,,,,,,,10,Ontime,j,1,1.9736,7,1,29,3,1,,,,,
,1.5,,,,,,,,,h.PNG,h,612d384d2854531514c9be92,2021-10-19_12h43.21.960,forced_choiceRT,2021.1.2,Win32,29.94818963,,,,,,,,10,Ontime,g,0,2.0499,7,2,30,2,1,,,,,
,1.83,,,,,,,,,h.PNG,h,612d384d2854531514c9be92,2021-10-19_12h43.21.960,forced_choiceRT,2021.1.2,Win32,29.94818963,,,,,,,,10,Ontime,g,0,2.0498,7,3,31,2,1,,,,,
,1.56,,,,,,,,,g.PNG,g,612d384d2854531514c9be92,2021-10-19_12h43.21.960,forced_choiceRT,2021.1.2,Win32,29.94818963,,,,,,,,10,Ontime,g,1,1.9653,8,0,32,1,1,,,,,
,0.65,,,,,,,,,g.PNG,g,612d384d2854531514c9be92,2021-10-19_12h43.21.960,forced_choiceRT,2021.1.2,Win32,29.94818963,,,,,,,,10,Ontime,g,1,1.9548,8,1,33,1,1,,,,,
,0.98,,,,,,,,,g.PNG,g,612d384d2854531514c9be92,2021-10-19_12h43.21.960,forced_choiceRT,2021.1.2,Win32,29.94818963,,,,,,,,10,Ontime,g,1,1.9336,8,2,34,1,1,,,,,
,0.04,,,,,,,,,j.PNG,j,612d384d2854531514c9be92,2021-10-19_12h43.21.960,forced_choiceRT,2021.1.2,Win32,29.94818963,,,,,,,,10,Ontime,j,1,1.9961,8,3,35,3,1,,,,,
,0.02,,,,,,,,,h.PNG,h,612d384d2854531514c9be92,2021-10-19_12h43.21.960,forced_choiceRT,2021.1.2,Win32,29.94818963,,,,,,,,10,Ontime,h,1,1.9359,9,0,36,2,1,,,,,
,1.4,,,,,,,,,g.PNG,g,612d384d2854531514c9be92,2021-10-19_12h43.21.960,forced_choiceRT,2021.1.2,Win32,29.94818963,,,,,,,,10,Ontime,g,1,1.919,9,1,37,1,1,,,,,
,0.32,,,,,,,,,h.PNG,h,612d384d2854531514c9be92,2021-10-19_12h43.21.960,forced_choiceRT,2021.1.2,Win32,29.94818963,,,,,,,,10,Ontime,h,1,1.9164,9,2,38,2,1,,,,,
,1.87,,,,,,,,,j.PNG,j,612d384d2854531514c9be92,2021-10-19_12h43.21.960,forced_choiceRT,2021.1.2,Win32,29.94818963,,,,,,,,10,Ontime,g,0,2.0189,9,3,39,3,1,,,,,
,,,,,,,,,,,,612d384d2854531514c9be92,2021-10-19_12h43.21.960,forced_choiceRT,2021.1.2,Win32,29.94818963,,,,,,,,,,,,,,,,,,9,0,9,0,1
