IP_Addresss,target_onset,trial_resp_sp.keys,trial_resp_sp.corr,trial_resp_sp.rt,trials_train_loop.thisRepN,trials_train_loop.thisTrialN,trials_train_loop.thisN,trials_train_loop.thisIndex,trials_train_loop.ran,pic,correct_key,participant,date,expName,psychopyVersion,OS,frameRate,trial_resp_timing.keys,trial_resp_timing.rt,trials_train_timing.thisRepN,trials_train_timing.thisTrialN,trials_train_timing.thisN,trials_train_timing.thisIndex,trials_train_timing.ran,block_id,ontime,forcedRT_resp.keys,forcedRT_resp.corr,forcedRT_resp.rt,trials.thisRepN,trials.thisTrialN,trials.thisN,trials.thisIndex,trials.ran,blocks.thisRepN,blocks.thisTrialN,blocks.thisN,blocks.thisIndex,blocks.ran
96.56.149.186,0,j,1,3.7551,0,0,0,3,1,j.PNG,j,6133f1716622e58b7ba8a8ba,2021-10-19_16h39.28.393,forced_choiceRT,2021.1.2,Win32,59.97720866,,,,,,,,,,,,,,,,,,,,,,
,0,f,1,1.3866,0,1,1,0,1,f.PNG,f,6133f1716622e58b7ba8a8ba,2021-10-19_16h39.28.393,forced_choiceRT,2021.1.2,Win32,59.97720866,,,,,,,,,,,,,,,,,,,,,,
,0,f,1,0.7144,0,2,2,0,1,f.PNG,f,6133f1716622e58b7ba8a8ba,2021-10-19_16h39.28.393,forced_choiceRT,2021.1.2,Win32,59.97720866,,,,,,,,,,,,,,,,,,,,,,
,0,j,1,3.4391,0,3,3,3,1,j.PNG,j,6133f1716622e58b7ba8a8ba,2021-10-19_16h39.28.393,forced_choiceRT,2021.1.2,Win32,59.97720866,,,,,,,,,,,,,,,,,,,,,,
,0,j,1,0.6096,1,0,4,3,1,j.PNG,j,6133f1716622e58b7ba8a8ba,2021-10-19_16h39.28.393,forced_choiceRT,2021.1.2,Win32,59.97720866,,,,,,,,,,,,,,,,,,,,,,
,0,f,1,0.9985,1,1,5,0,1,f.PNG,f,6133f1716622e58b7ba8a8ba,2021-10-19_16h39.28.393,forced_choiceRT,2021.1.2,Win32,59.97720866,,,,,,,,,,,,,,,,,,,,,,
,0,g,1,1.6609,1,2,6,1,1,g.PNG,g,6133f1716622e58b7ba8a8ba,2021-10-19_16h39.28.393,forced_choiceRT,2021.1.2,Win32,59.97720866,,,,,,,,,,,,,,,,,,,,,,
,0,h,0,0.5562,1,3,7,1,1,g.PNG,g,6133f1716622e58b7ba8a8ba,2021-10-19_16h39.28.393,forced_choiceRT,2021.1.2,Win32,59.97720866,,,,,,,,,,,,,,,,,,,,,,
,0,g,1,1.6569,2,0,8,1,1,g.PNG,g,6133f1716622e58b7ba8a8ba,2021-10-19_16h39.28.393,forced_choiceRT,2021.1.2,Win32,59.97720866,,,,,,,,,,,,,,,,,,,,,,
,0,g,1,2.4318,2,1,9,1,1,g.PNG,g,6133f1716622e58b7ba8a8ba,2021-10-19_16h39.28.393,forced_choiceRT,2021.1.2,Win32,59.97720866,,,,,,,,,,,,,,,,,,,,,,
,0,f,1,2.3316,2,2,10,0,1,f.PNG,f,6133f1716622e58b7ba8a8ba,2021-10-19_16h39.28.393,forced_choiceRT,2021.1.2,Win32,59.97720866,,,,,,,,,,,,,,,,,,,,,,
,0,f,1,8.8478,2,3,11,0,1,f.PNG,f,6133f1716622e58b7ba8a8ba,2021-10-19_16h39.28.393,forced_choiceRT,2021.1.2,Win32,59.97720866,,,,,,,,,,,,,,,,,,,,,,
,0,f,0,4.4026,3,0,12,1,1,g.PNG,g,6133f1716622e58b7ba8a8ba,2021-10-19_16h39.28.393,forced_choiceRT,2021.1.2,Win32,59.97720866,,,,,,,,,,,,,,,,,,,,,,
,0,f,1,0.9431,3,1,13,0,1,f.PNG,f,6133f1716622e58b7ba8a8ba,2021-10-19_16h39.28.393,forced_choiceRT,2021.1.2,Win32,59.97720866,,,,,,,,,,,,,,,,,,,,,,
,0,f,1,2.3868,3,2,14,0,1,f.PNG,f,6133f1716622e58b7ba8a8ba,2021-10-19_16h39.28.393,forced_choiceRT,2021.1.2,Win32,59.97720866,,,,,,,,,,,,,,,,,,,,,,
,0,g,1,0.7008,3,3,15,1,1,g.PNG,g,6133f1716622e58b7ba8a8ba,2021-10-19_16h39.28.393,forced_choiceRT,2021.1.2,Win32,59.97720866,,,,,,,,,,,,,,,,,,,,,,
,0,j,1,0.9369,4,0,16,3,1,j.PNG,j,6133f1716622e58b7ba8a8ba,2021-10-19_16h39.28.393,forced_choiceRT,2021.1.2,Win32,59.97720866,,,,,,,,,,,,,,,,,,,,,,
,0,f,1,0.6917,4,1,17,0,1,f.PNG,f,6133f1716622e58b7ba8a8ba,2021-10-19_16h39.28.393,forced_choiceRT,2021.1.2,Win32,59.97720866,,,,,,,,,,,,,,,,,,,,,,
,0,f,1,0.958,4,2,18,0,1,f.PNG,f,6133f1716622e58b7ba8a8ba,2021-10-19_16h39.28.393,forced_choiceRT,2021.1.2,Win32,59.97720866,,,,,,,,,,,,,,,,,,,,,,
,0,j,1,0.7485,4,3,19,3,1,j.PNG,j,6133f1716622e58b7ba8a8ba,2021-10-19_16h39.28.393,forced_choiceRT,2021.1.2,Win32,59.97720866,,,,,,,,,,,,,,,,,,,,,,
,0,j,1,0.9259,5,0,20,3,1,j.PNG,j,6133f1716622e58b7ba8a8ba,2021-10-19_16h39.28.393,forced_choiceRT,2021.1.2,Win32,59.97720866,,,,,,,,,,,,,,,,,,,,,,
,0,j,1,0.7354,5,1,21,3,1,j.PNG,j,6133f1716622e58b7ba8a8ba,2021-10-19_16h39.28.393,forced_choiceRT,2021.1.2,Win32,59.97720866,,,,,,,,,,,,,,,,,,,,,,
,0,h,1,0.8734,5,2,22,2,1,h.PNG,h,6133f1716622e58b7ba8a8ba,2021-10-19_16h39.28.393,forced_choiceRT,2021.1.2,Win32,59.97720866,,,,,,,,,,,,,,,,,,,,,,
,0,h,1,0.5034,5,3,23,2,1,h.PNG,h,6133f1716622e58b7ba8a8ba,2021-10-19_16h39.28.393,forced_choiceRT,2021.1.2,Win32,59.97720866,,,,,,,,,,,,,,,,,,,,,,
,0,h,0,0.852,6,0,24,3,1,j.PNG,j,6133f1716622e58b7ba8a8ba,2021-10-19_16h39.28.393,forced_choiceRT,2021.1.2,Win32,59.97720866,,,,,,,,,,,,,,,,,,,,,,
,0,h,1,0.6928,6,1,25,2,1,h.PNG,h,6133f1716622e58b7ba8a8ba,2021-10-19_16h39.28.393,forced_choiceRT,2021.1.2,Win32,59.97720866,,,,,,,,,,,,,,,,,,,,,,
,0,j,1,0.5207,6,2,26,3,1,j.PNG,j,6133f1716622e58b7ba8a8ba,2021-10-19_16h39.28.393,forced_choiceRT,2021.1.2,Win32,59.97720866,,,,,,,,,,,,,,,,,,,,,,
,0,g,1,0.7981,6,3,27,1,1,g.PNG,g,6133f1716622e58b7ba8a8ba,2021-10-19_16h39.28.393,forced_choiceRT,2021.1.2,Win32,59.97720866,,,,,,,,,,,,,,,,,,,,,,
,0,f,1,0.6843,7,0,28,0,1,f.PNG,f,6133f1716622e58b7ba8a8ba,2021-10-19_16h39.28.393,forced_choiceRT,2021.1.2,Win32,59.97720866,,,,,,,,,,,,,,,,,,,,,,
,0,h,1,1.134,7,1,29,2,1,h.PNG,h,6133f1716622e58b7ba8a8ba,2021-10-19_16h39.28.393,forced_choiceRT,2021.1.2,Win32,59.97720866,,,,,,,,,,,,,,,,,,,,,,
,0,h,1,0.565,7,2,30,2,1,h.PNG,h,6133f1716622e58b7ba8a8ba,2021-10-19_16h39.28.393,forced_choiceRT,2021.1.2,Win32,59.97720866,,,,,,,,,,,,,,,,,,,,,,
,0,f,1,0.8199,7,3,31,0,1,f.PNG,f,6133f1716622e58b7ba8a8ba,2021-10-19_16h39.28.393,forced_choiceRT,2021.1.2,Win32,59.97720866,,,,,,,,,,,,,,,,,,,,,,
,0,g,1,0.7649,8,0,32,1,1,g.PNG,g,6133f1716622e58b7ba8a8ba,2021-10-19_16h39.28.393,forced_choiceRT,2021.1.2,Win32,59.97720866,,,,,,,,,,,,,,,,,,,,,,
,0,g,1,0.9187,8,1,33,1,1,g.PNG,g,6133f1716622e58b7ba8a8ba,2021-10-19_16h39.28.393,forced_choiceRT,2021.1.2,Win32,59.97720866,,,,,,,,,,,,,,,,,,,,,,
,0,g,1,0.7981,8,2,34,1,1,g.PNG,g,6133f1716622e58b7ba8a8ba,2021-10-19_16h39.28.393,forced_choiceRT,2021.1.2,Win32,59.97720866,,,,,,,,,,,,,,,,,,,,,,
,0,h,1,0.6316,8,3,35,2,1,h.PNG,h,6133f1716622e58b7ba8a8ba,2021-10-19_16h39.28.393,forced_choiceRT,2021.1.2,Win32,59.97720866,,,,,,,,,,,,,,,,,,,,,,
,0,f,1,0.7921,9,0,36,0,1,f.PNG,f,6133f1716622e58b7ba8a8ba,2021-10-19_16h39.28.393,forced_choiceRT,2021.1.2,Win32,59.97720866,,,,,,,,,,,,,,,,,,,,,,
,0,j,1,1.1072,9,1,37,3,1,j.PNG,j,6133f1716622e58b7ba8a8ba,2021-10-19_16h39.28.393,forced_choiceRT,2021.1.2,Win32,59.97720866,,,,,,,,,,,,,,,,,,,,,,
,0,h,1,0.9907,9,2,38,2,1,h.PNG,h,6133f1716622e58b7ba8a8ba,2021-10-19_16h39.28.393,forced_choiceRT,2021.1.2,Win32,59.97720866,,,,,,,,,,,,,,,,,,,,,,
,0,j,1,1.1051,9,3,39,3,1,j.PNG,j,6133f1716622e58b7ba8a8ba,2021-10-19_16h39.28.393,forced_choiceRT,2021.1.2,Win32,59.97720866,,,,,,,,,,,,,,,,,,,,,,
,0,h,1,0.9876,10,0,40,2,1,h.PNG,h,6133f1716622e58b7ba8a8ba,2021-10-19_16h39.28.393,forced_choiceRT,2021.1.2,Win32,59.97720866,,,,,,,,,,,,,,,,,,,,,,
,0,f,1,0.6918,10,1,41,0,1,f.PNG,f,6133f1716622e58b7ba8a8ba,2021-10-19_16h39.28.393,forced_choiceRT,2021.1.2,Win32,59.97720866,,,,,,,,,,,,,,,,,,,,,,
,0,f,1,1.066,10,2,42,0,1,f.PNG,f,6133f1716622e58b7ba8a8ba,2021-10-19_16h39.28.393,forced_choiceRT,2021.1.2,Win32,59.97720866,,,,,,,,,,,,,,,,,,,,,,
,0,h,1,1.6646,10,3,43,2,1,h.PNG,h,6133f1716622e58b7ba8a8ba,2021-10-19_16h39.28.393,forced_choiceRT,2021.1.2,Win32,59.97720866,,,,,,,,,,,,,,,,,,,,,,
,0,f,1,1.1982,11,0,44,0,1,f.PNG,f,6133f1716622e58b7ba8a8ba,2021-10-19_16h39.28.393,forced_choiceRT,2021.1.2,Win32,59.97720866,,,,,,,,,,,,,,,,,,,,,,
,0,h,1,1.021,11,1,45,2,1,h.PNG,h,6133f1716622e58b7ba8a8ba,2021-10-19_16h39.28.393,forced_choiceRT,2021.1.2,Win32,59.97720866,,,,,,,,,,,,,,,,,,,,,,
,0,j,1,0.6895,11,2,46,3,1,j.PNG,j,6133f1716622e58b7ba8a8ba,2021-10-19_16h39.28.393,forced_choiceRT,2021.1.2,Win32,59.97720866,,,,,,,,,,,,,,,,,,,,,,
,0,g,1,1.4315,11,3,47,1,1,g.PNG,g,6133f1716622e58b7ba8a8ba,2021-10-19_16h39.28.393,forced_choiceRT,2021.1.2,Win32,59.97720866,,,,,,,,,,,,,,,,,,,,,,
,0,j,1,1.1027,12,0,48,3,1,j.PNG,j,6133f1716622e58b7ba8a8ba,2021-10-19_16h39.28.393,forced_choiceRT,2021.1.2,Win32,59.97720866,,,,,,,,,,,,,,,,,,,,,,
,0,g,1,1.6817,12,1,49,1,1,g.PNG,g,6133f1716622e58b7ba8a8ba,2021-10-19_16h39.28.393,forced_choiceRT,2021.1.2,Win32,59.97720866,,,,,,,,,,,,,,,,,,,,,,
,0,h,1,0.6915,12,2,50,2,1,h.PNG,h,6133f1716622e58b7ba8a8ba,2021-10-19_16h39.28.393,forced_choiceRT,2021.1.2,Win32,59.97720866,,,,,,,,,,,,,,,,,,,,,,
,0,h,1,1.0258,12,3,51,2,1,h.PNG,h,6133f1716622e58b7ba8a8ba,2021-10-19_16h39.28.393,forced_choiceRT,2021.1.2,Win32,59.97720866,,,,,,,,,,,,,,,,,,,,,,
,0,h,1,0.5828,13,0,52,2,1,h.PNG,h,6133f1716622e58b7ba8a8ba,2021-10-19_16h39.28.393,forced_choiceRT,2021.1.2,Win32,59.97720866,,,,,,,,,,,,,,,,,,,,,,
,0,g,1,0.6983,13,1,53,1,1,g.PNG,g,6133f1716622e58b7ba8a8ba,2021-10-19_16h39.28.393,forced_choiceRT,2021.1.2,Win32,59.97720866,,,,,,,,,,,,,,,,,,,,,,
,0,j,1,0.6815,13,2,54,3,1,j.PNG,j,6133f1716622e58b7ba8a8ba,2021-10-19_16h39.28.393,forced_choiceRT,2021.1.2,Win32,59.97720866,,,,,,,,,,,,,,,,,,,,,,
,0,h,1,0.9174,13,3,55,2,1,h.PNG,h,6133f1716622e58b7ba8a8ba,2021-10-19_16h39.28.393,forced_choiceRT,2021.1.2,Win32,59.97720866,,,,,,,,,,,,,,,,,,,,,,
,0,h,1,1.271,14,0,56,2,1,h.PNG,h,6133f1716622e58b7ba8a8ba,2021-10-19_16h39.28.393,forced_choiceRT,2021.1.2,Win32,59.97720866,,,,,,,,,,,,,,,,,,,,,,
,0,g,1,1.1661,14,1,57,1,1,g.PNG,g,6133f1716622e58b7ba8a8ba,2021-10-19_16h39.28.393,forced_choiceRT,2021.1.2,Win32,59.97720866,,,,,,,,,,,,,,,,,,,,,,
,0,g,1,0.9871,14,2,58,1,1,g.PNG,g,6133f1716622e58b7ba8a8ba,2021-10-19_16h39.28.393,forced_choiceRT,2021.1.2,Win32,59.97720866,,,,,,,,,,,,,,,,,,,,,,
,0,j,1,1.1494,14,3,59,3,1,j.PNG,j,6133f1716622e58b7ba8a8ba,2021-10-19_16h39.28.393,forced_choiceRT,2021.1.2,Win32,59.97720866,,,,,,,,,,,,,,,,,,,,,,
,,,,,,,,,,,,6133f1716622e58b7ba8a8ba,2021-10-19_16h39.28.393,forced_choiceRT,2021.1.2,Win32,59.97720866,j,2.066,0,0,0,0,1,,,,,,,,,,,,,,,
,,,,,,,,,,,,6133f1716622e58b7ba8a8ba,2021-10-19_16h39.28.393,forced_choiceRT,2021.1.2,Win32,59.97720866,j,1.7981,1,0,1,0,1,,,,,,,,,,,,,,,
,,,,,,,,,,,,6133f1716622e58b7ba8a8ba,2021-10-19_16h39.28.393,forced_choiceRT,2021.1.2,Win32,59.97720866,j,5.0539,2,0,2,0,1,,,,,,,,,,,,,,,
,,,,,,,,,,,,6133f1716622e58b7ba8a8ba,2021-10-19_16h39.28.393,forced_choiceRT,2021.1.2,Win32,59.97720866,j,2.0045,3,0,3,0,1,,,,,,,,,,,,,,,
,,,,,,,,,,,,6133f1716622e58b7ba8a8ba,2021-10-19_16h39.28.393,forced_choiceRT,2021.1.2,Win32,59.97720866,h,2.0204,4,0,4,0,1,,,,,,,,,,,,,,,
,,,,,,,,,,,,6133f1716622e58b7ba8a8ba,2021-10-19_16h39.28.393,forced_choiceRT,2021.1.2,Win32,59.97720866,g,2.0522,5,0,5,0,1,,,,,,,,,,,,,,,
,,,,,,,,,,,,6133f1716622e58b7ba8a8ba,2021-10-19_16h39.28.393,forced_choiceRT,2021.1.2,Win32,59.97720866,h,2.0773,6,0,6,0,1,,,,,,,,,,,,,,,
,,,,,,,,,,,,6133f1716622e58b7ba8a8ba,2021-10-19_16h39.28.393,forced_choiceRT,2021.1.2,Win32,59.97720866,g,2.0427,7,0,7,0,1,,,,,,,,,,,,,,,
,,,,,,,,,,,,6133f1716622e58b7ba8a8ba,2021-10-19_16h39.28.393,forced_choiceRT,2021.1.2,Win32,59.97720866,h,1.9521,8,0,8,0,1,,,,,,,,,,,,,,,
,,,,,,,,,,,,6133f1716622e58b7ba8a8ba,2021-10-19_16h39.28.393,forced_choiceRT,2021.1.2,Win32,59.97720866,g,2.0606,9,0,9,0,1,,,,,,,,,,,,,,,
,,,,,,,,,,,,6133f1716622e58b7ba8a8ba,2021-10-19_16h39.28.393,forced_choiceRT,2021.1.2,Win32,59.97720866,g,2.0648,10,0,10,0,1,,,,,,,,,,,,,,,
,,,,,,,,,,,,6133f1716622e58b7ba8a8ba,2021-10-19_16h39.28.393,forced_choiceRT,2021.1.2,Win32,59.97720866,g,2.0253,11,0,11,0,1,,,,,,,,,,,,,,,
,,,,,,,,,,,,6133f1716622e58b7ba8a8ba,2021-10-19_16h39.28.393,forced_choiceRT,2021.1.2,Win32,59.97720866,g,2.0101,12,0,12,0,1,,,,,,,,,,,,,,,
,,,,,,,,,,,,6133f1716622e58b7ba8a8ba,2021-10-19_16h39.28.393,forced_choiceRT,2021.1.2,Win32,59.97720866,g,2.0605,13,0,13,0,1,,,,,,,,,,,,,,,
,,,,,,,,,,,,6133f1716622e58b7ba8a8ba,2021-10-19_16h39.28.393,forced_choiceRT,2021.1.2,Win32,59.97720866,g,2.0659,14,0,14,0,1,,,,,,,,,,,,,,,
,,,,,,,,,,,,6133f1716622e58b7ba8a8ba,2021-10-19_16h39.28.393,forced_choiceRT,2021.1.2,Win32,59.97720866,g,2.0989,15,0,15,0,1,,,,,,,,,,,,,,,
,,,,,,,,,,,,6133f1716622e58b7ba8a8ba,2021-10-19_16h39.28.393,forced_choiceRT,2021.1.2,Win32,59.97720866,g,2.1727,16,0,16,0,1,,,,,,,,,,,,,,,
,,,,,,,,,,,,6133f1716622e58b7ba8a8ba,2021-10-19_16h39.28.393,forced_choiceRT,2021.1.2,Win32,59.97720866,h,2.0317,17,0,17,0,1,,,,,,,,,,,,,,,
,,,,,,,,,,,,6133f1716622e58b7ba8a8ba,2021-10-19_16h39.28.393,forced_choiceRT,2021.1.2,Win32,59.97720866,g,1.9884,18,0,18,0,1,,,,,,,,,,,,,,,
,,,,,,,,,,,,6133f1716622e58b7ba8a8ba,2021-10-19_16h39.28.393,forced_choiceRT,2021.1.2,Win32,59.97720866,g,2.0893,19,0,19,0,1,,,,,,,,,,,,,,,
,0.69,,,,,,,,,j.PNG,j,6133f1716622e58b7ba8a8ba,2021-10-19_16h39.28.393,forced_choiceRT,2021.1.2,Win32,59.97720866,,,,,,,,1,Fast,j,1,1.7671,0,0,0,3,1,,,,,
,0.83,,,,,,,,,f.PNG,f,6133f1716622e58b7ba8a8ba,2021-10-19_16h39.28.393,forced_choiceRT,2021.1.2,Win32,59.97720866,,,,,,,,1,Ontime,f,1,1.954,0,1,1,0,1,,,,,
,1.47,,,,,,,,,f.PNG,f,6133f1716622e58b7ba8a8ba,2021-10-19_16h39.28.393,forced_choiceRT,2021.1.2,Win32,59.97720866,,,,,,,,1,Ontime,g,0,2.059,0,2,2,0,1,,,,,
,1.53,,,,,,,,,f.PNG,f,6133f1716622e58b7ba8a8ba,2021-10-19_16h39.28.393,forced_choiceRT,2021.1.2,Win32,59.97720866,,,,,,,,1,Ontime,f,1,2.0918,0,3,3,0,1,,,,,
,1.94,,,,,,,,,h.PNG,h,6133f1716622e58b7ba8a8ba,2021-10-19_16h39.28.393,forced_choiceRT,2021.1.2,Win32,59.97720866,,,,,,,,1,Ontime,j,0,2.0147,1,0,4,2,1,,,,,
,1.59,,,,,,,,,j.PNG,j,6133f1716622e58b7ba8a8ba,2021-10-19_16h39.28.393,forced_choiceRT,2021.1.2,Win32,59.97720866,,,,,,,,1,Slow,j,1,2.1146,1,1,5,3,1,,,,,
,1.15,,,,,,,,,f.PNG,f,6133f1716622e58b7ba8a8ba,2021-10-19_16h39.28.393,forced_choiceRT,2021.1.2,Win32,59.97720866,,,,,,,,1,Ontime,f,1,2.0662,1,2,6,0,1,,,,,
,1.23,,,,,,,,,h.PNG,h,6133f1716622e58b7ba8a8ba,2021-10-19_16h39.28.393,forced_choiceRT,2021.1.2,Win32,59.97720866,,,,,,,,1,Ontime,h,1,1.9646,1,3,7,2,1,,,,,
,0.94,,,,,,,,,f.PNG,f,6133f1716622e58b7ba8a8ba,2021-10-19_16h39.28.393,forced_choiceRT,2021.1.2,Win32,59.97720866,,,,,,,,1,Ontime,f,1,1.9711,2,0,8,0,1,,,,,
,1.87,,,,,,,,,g.PNG,g,6133f1716622e58b7ba8a8ba,2021-10-19_16h39.28.393,forced_choiceRT,2021.1.2,Win32,59.97720866,,,,,,,,1,Ontime,j,0,2.0383,2,1,9,1,1,,,,,
,0.53,,,,,,,,,j.PNG,j,6133f1716622e58b7ba8a8ba,2021-10-19_16h39.28.393,forced_choiceRT,2021.1.2,Win32,59.97720866,,,,,,,,1,Ontime,j,1,1.9982,2,2,10,3,1,,,,,
,0.3,,,,,,,,,h.PNG,h,6133f1716622e58b7ba8a8ba,2021-10-19_16h39.28.393,forced_choiceRT,2021.1.2,Win32,59.97720866,,,,,,,,1,Ontime,h,1,2.0032,2,3,11,2,1,,,,,
,0.34,,,,,,,,,h.PNG,h,6133f1716622e58b7ba8a8ba,2021-10-19_16h39.28.393,forced_choiceRT,2021.1.2,Win32,59.97720866,,,,,,,,1,Ontime,h,1,1.9705,3,0,12,2,1,,,,,
,0.07,,,,,,,,,j.PNG,j,6133f1716622e58b7ba8a8ba,2021-10-19_16h39.28.393,forced_choiceRT,2021.1.2,Win32,59.97720866,,,,,,,,1,Slow,j,1,2.1428,3,1,13,3,1,,,,,
,1.96,,,,,,,,,h.PNG,h,6133f1716622e58b7ba8a8ba,2021-10-19_16h39.28.393,forced_choiceRT,2021.1.2,Win32,59.97720866,,,,,,,,1,Slow,f,0,2.1208,3,2,14,2,1,,,,,
,1.64,,,,,,,,,g.PNG,g,6133f1716622e58b7ba8a8ba,2021-10-19_16h39.28.393,forced_choiceRT,2021.1.2,Win32,59.97720866,,,,,,,,1,Ontime,j,0,2.0272,3,3,15,1,1,,,,,
,0.37,,,,,,,,,f.PNG,f,6133f1716622e58b7ba8a8ba,2021-10-19_16h39.28.393,forced_choiceRT,2021.1.2,Win32,59.97720866,,,,,,,,1,Ontime,f,1,1.9982,4,0,16,0,1,,,,,
,1.57,,,,,,,,,g.PNG,g,6133f1716622e58b7ba8a8ba,2021-10-19_16h39.28.393,forced_choiceRT,2021.1.2,Win32,59.97720866,,,,,,,,1,Ontime,g,1,1.9414,4,1,17,1,1,,,,,
,0.95,,,,,,,,,j.PNG,j,6133f1716622e58b7ba8a8ba,2021-10-19_16h39.28.393,forced_choiceRT,2021.1.2,Win32,59.97720866,,,,,,,,1,Ontime,j,1,1.9649,4,2,18,3,1,,,,,
,0.79,,,,,,,,,g.PNG,g,6133f1716622e58b7ba8a8ba,2021-10-19_16h39.28.393,forced_choiceRT,2021.1.2,Win32,59.97720866,,,,,,,,1,Ontime,g,1,2.0044,4,3,19,1,1,,,,,
,1.9,,,,,,,,,g.PNG,g,6133f1716622e58b7ba8a8ba,2021-10-19_16h39.28.393,forced_choiceRT,2021.1.2,Win32,59.97720866,,,,,,,,1,Ontime,j,0,1.987,5,0,20,1,1,,,,,
,1.77,,,,,,,,,g.PNG,g,6133f1716622e58b7ba8a8ba,2021-10-19_16h39.28.393,forced_choiceRT,2021.1.2,Win32,59.97720866,,,,,,,,1,Ontime,h,0,2.048,5,1,21,1,1,,,,,
,0.36,,,,,,,,,f.PNG,f,6133f1716622e58b7ba8a8ba,2021-10-19_16h39.28.393,forced_choiceRT,2021.1.2,Win32,59.97720866,,,,,,,,1,Fast,f,1,1.8649,5,2,22,0,1,,,,,
,0.67,,,,,,,,,g.PNG,g,6133f1716622e58b7ba8a8ba,2021-10-19_16h39.28.393,forced_choiceRT,2021.1.2,Win32,59.97720866,,,,,,,,1,Ontime,g,1,1.9163,5,3,23,1,1,,,,,
,0.42,,,,,,,,,h.PNG,h,6133f1716622e58b7ba8a8ba,2021-10-19_16h39.28.393,forced_choiceRT,2021.1.2,Win32,59.97720866,,,,,,,,1,Ontime,h,1,2.0258,6,0,24,2,1,,,,,
,1.44,,,,,,,,,g.PNG,g,6133f1716622e58b7ba8a8ba,2021-10-19_16h39.28.393,forced_choiceRT,2021.1.2,Win32,59.97720866,,,,,,,,1,Slow,h,0,2.1413,6,1,25,1,1,,,,,
,1.19,,,,,,,,,j.PNG,j,6133f1716622e58b7ba8a8ba,2021-10-19_16h39.28.393,forced_choiceRT,2021.1.2,Win32,59.97720866,,,,,,,,1,Ontime,j,1,1.9039,6,2,26,3,1,,,,,
,0.42,,,,,,,,,h.PNG,h,6133f1716622e58b7ba8a8ba,2021-10-19_16h39.28.393,forced_choiceRT,2021.1.2,Win32,59.97720866,,,,,,,,1,Ontime,h,1,2.017,6,3,27,2,1,,,,,
,0.15,,,,,,,,,j.PNG,j,6133f1716622e58b7ba8a8ba,2021-10-19_16h39.28.393,forced_choiceRT,2021.1.2,Win32,59.97720866,,,,,,,,1,Ontime,j,1,1.9646,7,0,28,3,1,,,,,
,1.96,,,,,,,,,h.PNG,h,6133f1716622e58b7ba8a8ba,2021-10-19_16h39.28.393,forced_choiceRT,2021.1.2,Win32,59.97720866,,,,,,,,1,Ontime,j,0,2.0893,7,1,29,2,1,,,,,
,1.54,,,,,,,,,j.PNG,j,6133f1716622e58b7ba8a8ba,2021-10-19_16h39.28.393,forced_choiceRT,2021.1.2,Win32,59.97720866,,,,,,,,1,Slow,j,1,2.1358,7,2,30,3,1,,,,,
,1.92,,,,,,,,,f.PNG,f,6133f1716622e58b7ba8a8ba,2021-10-19_16h39.28.393,forced_choiceRT,2021.1.2,Win32,59.97720866,,,,,,,,1,Ontime,g,0,2.0006,7,3,31,0,1,,,,,
,0.06,,,,,,,,,f.PNG,f,6133f1716622e58b7ba8a8ba,2021-10-19_16h39.28.393,forced_choiceRT,2021.1.2,Win32,59.97720866,,,,,,,,1,Ontime,f,1,2.0321,8,0,32,0,1,,,,,
,1.7,,,,,,,,,j.PNG,j,6133f1716622e58b7ba8a8ba,2021-10-19_16h39.28.393,forced_choiceRT,2021.1.2,Win32,59.97720866,,,,,,,,1,Ontime,h,0,2.086,8,1,33,3,1,,,,,
,1.33,,,,,,,,,f.PNG,f,6133f1716622e58b7ba8a8ba,2021-10-19_16h39.28.393,forced_choiceRT,2021.1.2,Win32,59.97720866,,,,,,,,1,Ontime,f,1,2.0647,8,2,34,0,1,,,,,
,0.79,,,,,,,,,h.PNG,h,6133f1716622e58b7ba8a8ba,2021-10-19_16h39.28.393,forced_choiceRT,2021.1.2,Win32,59.97720866,,,,,,,,1,Ontime,h,1,1.9981,8,3,35,2,1,,,,,
,0.94,,,,,,,,,j.PNG,j,6133f1716622e58b7ba8a8ba,2021-10-19_16h39.28.393,forced_choiceRT,2021.1.2,Win32,59.97720866,,,,,,,,1,Fast,j,1,1.8525,9,0,36,3,1,,,,,
,1.18,,,,,,,,,h.PNG,h,6133f1716622e58b7ba8a8ba,2021-10-19_16h39.28.393,forced_choiceRT,2021.1.2,Win32,59.97720866,,,,,,,,1,Slow,h,1,2.1084,9,1,37,2,1,,,,,
,0.95,,,,,,,,,g.PNG,g,6133f1716622e58b7ba8a8ba,2021-10-19_16h39.28.393,forced_choiceRT,2021.1.2,Win32,59.97720866,,,,,,,,1,Ontime,g,1,2.0801,9,2,38,1,1,,,,,
,0.34,,,,,,,,,g.PNG,g,6133f1716622e58b7ba8a8ba,2021-10-19_16h39.28.393,forced_choiceRT,2021.1.2,Win32,59.97720866,,,,,,,,1,Ontime,g,1,1.9983,9,3,39,1,1,,,,,
,,,,,,,,,,,,6133f1716622e58b7ba8a8ba,2021-10-19_16h39.28.393,forced_choiceRT,2021.1.2,Win32,59.97720866,,,,,,,,,,,,,,,,,,0,0,0,0,1
,0.33,,,,,,,,,j.PNG,j,6133f1716622e58b7ba8a8ba,2021-10-19_16h39.28.393,forced_choiceRT,2021.1.2,Win32,59.97720866,,,,,,,,2,Ontime,j,1,1.9877,0,0,0,3,1,,,,,
,0.75,,,,,,,,,g.PNG,g,6133f1716622e58b7ba8a8ba,2021-10-19_16h39.28.393,forced_choiceRT,2021.1.2,Win32,59.97720866,,,,,,,,2,Ontime,g,1,2.0252,0,1,1,1,1,,,,,
,1.14,,,,,,,,,g.PNG,g,6133f1716622e58b7ba8a8ba,2021-10-19_16h39.28.393,forced_choiceRT,2021.1.2,Win32,59.97720866,,,,,,,,2,Slow,g,1,2.1155,0,2,2,1,1,,,,,
,0.26,,,,,,,,,j.PNG,j,6133f1716622e58b7ba8a8ba,2021-10-19_16h39.28.393,forced_choiceRT,2021.1.2,Win32,59.97720866,,,,,,,,2,Ontime,j,1,1.9563,0,3,3,3,1,,,,,
,1.59,,,,,,,,,f.PNG,f,6133f1716622e58b7ba8a8ba,2021-10-19_16h39.28.393,forced_choiceRT,2021.1.2,Win32,59.97720866,,,,,,,,2,Slow,g,0,2.1313,1,0,4,0,1,,,,,
,0.32,,,,,,,,,j.PNG,j,6133f1716622e58b7ba8a8ba,2021-10-19_16h39.28.393,forced_choiceRT,2021.1.2,Win32,59.97720866,,,,,,,,2,Ontime,j,1,2.0483,1,1,5,3,1,,,,,
,0.4,,,,,,,,,g.PNG,g,6133f1716622e58b7ba8a8ba,2021-10-19_16h39.28.393,forced_choiceRT,2021.1.2,Win32,59.97720866,,,,,,,,2,Ontime,g,1,2.0164,1,2,6,1,1,,,,,
,0,,,,,,,,,h.PNG,h,6133f1716622e58b7ba8a8ba,2021-10-19_16h39.28.393,forced_choiceRT,2021.1.2,Win32,59.97720866,,,,,,,,2,Ontime,h,1,2.0528,1,3,7,2,1,,,,,
,0.99,,,,,,,,,f.PNG,f,6133f1716622e58b7ba8a8ba,2021-10-19_16h39.28.393,forced_choiceRT,2021.1.2,Win32,59.97720866,,,,,,,,2,Ontime,f,1,2.0312,2,0,8,0,1,,,,,
,1.36,,,,,,,,,j.PNG,j,6133f1716622e58b7ba8a8ba,2021-10-19_16h39.28.393,forced_choiceRT,2021.1.2,Win32,59.97720866,,,,,,,,2,Ontime,j,1,2.0039,2,1,9,3,1,,,,,
,1.82,,,,,,,,,h.PNG,h,6133f1716622e58b7ba8a8ba,2021-10-19_16h39.28.393,forced_choiceRT,2021.1.2,Win32,59.97720866,,,,,,,,2,Slow,f,0,2.3695,2,2,10,2,1,,,,,
,1.36,,,,,,,,,h.PNG,h,6133f1716622e58b7ba8a8ba,2021-10-19_16h39.28.393,forced_choiceRT,2021.1.2,Win32,59.97720866,,,,,,,,2,Fast,h,1,1.8984,2,3,11,2,1,,,,,
,1.88,,,,,,,,,h.PNG,h,6133f1716622e58b7ba8a8ba,2021-10-19_16h39.28.393,forced_choiceRT,2021.1.2,Win32,59.97720866,,,,,,,,2,Slow,h,1,2.2649,3,0,12,2,1,,,,,
,1.38,,,,,,,,,j.PNG,j,6133f1716622e58b7ba8a8ba,2021-10-19_16h39.28.393,forced_choiceRT,2021.1.2,Win32,59.97720866,,,,,,,,2,Ontime,j,1,1.9698,3,1,13,3,1,,,,,
,0.67,,,,,,,,,f.PNG,f,6133f1716622e58b7ba8a8ba,2021-10-19_16h39.28.393,forced_choiceRT,2021.1.2,Win32,59.97720866,,,,,,,,2,Ontime,f,1,2.0536,3,2,14,0,1,,,,,
,0.8,,,,,,,,,g.PNG,g,6133f1716622e58b7ba8a8ba,2021-10-19_16h39.28.393,forced_choiceRT,2021.1.2,Win32,59.97720866,,,,,,,,2,Ontime,g,1,1.9686,3,3,15,1,1,,,,,
,0.75,,,,,,,,,f.PNG,f,6133f1716622e58b7ba8a8ba,2021-10-19_16h39.28.393,forced_choiceRT,2021.1.2,Win32,59.97720866,,,,,,,,2,Ontime,f,1,1.9385,4,0,16,0,1,,,,,
,1.01,,,,,,,,,g.PNG,g,6133f1716622e58b7ba8a8ba,2021-10-19_16h39.28.393,forced_choiceRT,2021.1.2,Win32,59.97720866,,,,,,,,2,Ontime,g,1,1.9866,4,1,17,1,1,,,,,
,0.03,,,,,,,,,j.PNG,j,6133f1716622e58b7ba8a8ba,2021-10-19_16h39.28.393,forced_choiceRT,2021.1.2,Win32,59.97720866,,,,,,,,2,Ontime,j,1,2.0042,4,2,18,3,1,,,,,
,1.78,,,,,,,,,h.PNG,h,6133f1716622e58b7ba8a8ba,2021-10-19_16h39.28.393,forced_choiceRT,2021.1.2,Win32,59.97720866,,,,,,,,2,Slow,g,0,2.1158,4,3,19,2,1,,,,,
,1.05,,,,,,,,,j.PNG,j,6133f1716622e58b7ba8a8ba,2021-10-19_16h39.28.393,forced_choiceRT,2021.1.2,Win32,59.97720866,,,,,,,,2,Ontime,j,1,1.998,5,0,20,3,1,,,,,
,0.52,,,,,,,,,j.PNG,j,6133f1716622e58b7ba8a8ba,2021-10-19_16h39.28.393,forced_choiceRT,2021.1.2,Win32,59.97720866,,,,,,,,2,Ontime,j,1,1.9754,5,1,21,3,1,,,,,
,0.85,,,,,,,,,h.PNG,h,6133f1716622e58b7ba8a8ba,2021-10-19_16h39.28.393,forced_choiceRT,2021.1.2,Win32,59.97720866,,,,,,,,2,Ontime,h,1,2.0481,5,2,22,2,1,,,,,
,1.58,,,,,,,,,h.PNG,h,6133f1716622e58b7ba8a8ba,2021-10-19_16h39.28.393,forced_choiceRT,2021.1.2,Win32,59.97720866,,,,,,,,2,Ontime,f,0,2.0867,5,3,23,2,1,,,,,
,0.43,,,,,,,,,f.PNG,f,6133f1716622e58b7ba8a8ba,2021-10-19_16h39.28.393,forced_choiceRT,2021.1.2,Win32,59.97720866,,,,,,,,2,Ontime,f,1,2.065,6,0,24,0,1,,,,,
,1.81,,,,,,,,,g.PNG,g,6133f1716622e58b7ba8a8ba,2021-10-19_16h39.28.393,forced_choiceRT,2021.1.2,Win32,59.97720866,,,,,,,,2,Ontime,h,0,2.0576,6,1,25,1,1,,,,,
,0.25,,,,,,,,,h.PNG,h,6133f1716622e58b7ba8a8ba,2021-10-19_16h39.28.393,forced_choiceRT,2021.1.2,Win32,59.97720866,,,,,,,,2,Ontime,h,1,2.0149,6,2,26,2,1,,,,,
,1.3,,,,,,,,,h.PNG,h,6133f1716622e58b7ba8a8ba,2021-10-19_16h39.28.393,forced_choiceRT,2021.1.2,Win32,59.97720866,,,,,,,,2,Ontime,h,1,1.9897,6,3,27,2,1,,,,,
,1.17,,,,,,,,,g.PNG,g,6133f1716622e58b7ba8a8ba,2021-10-19_16h39.28.393,forced_choiceRT,2021.1.2,Win32,59.97720866,,,,,,,,2,Ontime,g,1,2.0747,7,0,28,1,1,,,,,
,0.91,,,,,,,,,f.PNG,f,6133f1716622e58b7ba8a8ba,2021-10-19_16h39.28.393,forced_choiceRT,2021.1.2,Win32,59.97720866,,,,,,,,2,Fast,f,1,1.8918,7,1,29,0,1,,,,,
,1.31,,,,,,,,,g.PNG,g,6133f1716622e58b7ba8a8ba,2021-10-19_16h39.28.393,forced_choiceRT,2021.1.2,Win32,59.97720866,,,,,,,,2,Ontime,g,1,1.9648,7,2,30,1,1,,,,,
,1.45,,,,,,,,,j.PNG,j,6133f1716622e58b7ba8a8ba,2021-10-19_16h39.28.393,forced_choiceRT,2021.1.2,Win32,59.97720866,,,,,,,,2,Slow,g,0,2.1216,7,3,31,3,1,,,,,
,1.49,,,,,,,,,f.PNG,f,6133f1716622e58b7ba8a8ba,2021-10-19_16h39.28.393,forced_choiceRT,2021.1.2,Win32,59.97720866,,,,,,,,2,Fast,j,0,1.8748,8,0,32,0,1,,,,,
,0.01,,,,,,,,,f.PNG,f,6133f1716622e58b7ba8a8ba,2021-10-19_16h39.28.393,forced_choiceRT,2021.1.2,Win32,59.97720866,,,,,,,,2,Ontime,f,1,1.9514,8,1,33,0,1,,,,,
,1.66,,,,,,,,,g.PNG,g,6133f1716622e58b7ba8a8ba,2021-10-19_16h39.28.393,forced_choiceRT,2021.1.2,Win32,59.97720866,,,,,,,,2,Slow,h,0,2.1144,8,2,34,1,1,,,,,
,1.79,,,,,,,,,g.PNG,g,6133f1716622e58b7ba8a8ba,2021-10-19_16h39.28.393,forced_choiceRT,2021.1.2,Win32,59.97720866,,,,,,,,2,Ontime,f,0,1.9578,8,3,35,1,1,,,,,
,1.96,,,,,,,,,f.PNG,f,6133f1716622e58b7ba8a8ba,2021-10-19_16h39.28.393,forced_choiceRT,2021.1.2,Win32,59.97720866,,,,,,,,2,Ontime,h,0,1.9195,9,0,36,0,1,,,,,
,0.38,,,,,,,,,j.PNG,j,6133f1716622e58b7ba8a8ba,2021-10-19_16h39.28.393,forced_choiceRT,2021.1.2,Win32,59.97720866,,,,,,,,2,Ontime,j,1,1.9773,9,1,37,3,1,,,,,
,1.62,,,,,,,,,h.PNG,h,6133f1716622e58b7ba8a8ba,2021-10-19_16h39.28.393,forced_choiceRT,2021.1.2,Win32,59.97720866,,,,,,,,2,Ontime,j,0,2.0503,9,2,38,2,1,,,,,
,1.54,,,,,,,,,f.PNG,f,6133f1716622e58b7ba8a8ba,2021-10-19_16h39.28.393,forced_choiceRT,2021.1.2,Win32,59.97720866,,,,,,,,2,Slow,f,1,2.166,9,3,39,0,1,,,,,
,,,,,,,,,,,,6133f1716622e58b7ba8a8ba,2021-10-19_16h39.28.393,forced_choiceRT,2021.1.2,Win32,59.97720866,,,,,,,,,,,,,,,,,,1,0,1,0,1
,0.99,,,,,,,,,h.PNG,h,6133f1716622e58b7ba8a8ba,2021-10-19_16h39.28.393,forced_choiceRT,2021.1.2,Win32,59.97720866,,,,,,,,3,Ontime,h,1,1.9766,0,0,0,2,1,,,,,
,0.66,,,,,,,,,g.PNG,g,6133f1716622e58b7ba8a8ba,2021-10-19_16h39.28.393,forced_choiceRT,2021.1.2,Win32,59.97720866,,,,,,,,3,Ontime,g,1,2.0076,0,1,1,1,1,,,,,
,1.45,,,,,,,,,j.PNG,j,6133f1716622e58b7ba8a8ba,2021-10-19_16h39.28.393,forced_choiceRT,2021.1.2,Win32,59.97720866,,,,,,,,3,Slow,h,0,2.1002,0,2,2,3,1,,,,,
,1.67,,,,,,,,,g.PNG,g,6133f1716622e58b7ba8a8ba,2021-10-19_16h39.28.393,forced_choiceRT,2021.1.2,Win32,59.97720866,,,,,,,,3,Ontime,j,0,1.9981,0,3,3,1,1,,,,,
,0.91,,,,,,,,,g.PNG,g,6133f1716622e58b7ba8a8ba,2021-10-19_16h39.28.393,forced_choiceRT,2021.1.2,Win32,59.97720866,,,,,,,,3,Ontime,g,1,2.0825,1,0,4,1,1,,,,,
,0.08,,,,,,,,,g.PNG,g,6133f1716622e58b7ba8a8ba,2021-10-19_16h39.28.393,forced_choiceRT,2021.1.2,Win32,59.97720866,,,,,,,,3,Ontime,g,1,1.9493,1,1,5,1,1,,,,,
,1.98,,,,,,,,,h.PNG,h,6133f1716622e58b7ba8a8ba,2021-10-19_16h39.28.393,forced_choiceRT,2021.1.2,Win32,59.97720866,,,,,,,,3,Ontime,j,0,2.0311,1,2,6,2,1,,,,,
,0.24,,,,,,,,,j.PNG,j,6133f1716622e58b7ba8a8ba,2021-10-19_16h39.28.393,forced_choiceRT,2021.1.2,Win32,59.97720866,,,,,,,,3,Fast,j,1,1.7981,1,3,7,3,1,,,,,
,0.82,,,,,,,,,j.PNG,j,6133f1716622e58b7ba8a8ba,2021-10-19_16h39.28.393,forced_choiceRT,2021.1.2,Win32,59.97720866,,,,,,,,3,Ontime,j,1,1.9083,2,0,8,3,1,,,,,
,1.39,,,,,,,,,h.PNG,h,6133f1716622e58b7ba8a8ba,2021-10-19_16h39.28.393,forced_choiceRT,2021.1.2,Win32,59.97720866,,,,,,,,3,Ontime,h,1,1.9748,2,1,9,2,1,,,,,
,0.38,,,,,,,,,f.PNG,f,6133f1716622e58b7ba8a8ba,2021-10-19_16h39.28.393,forced_choiceRT,2021.1.2,Win32,59.97720866,,,,,,,,3,Ontime,f,1,2.0481,2,2,10,0,1,,,,,
,1.18,,,,,,,,,g.PNG,g,6133f1716622e58b7ba8a8ba,2021-10-19_16h39.28.393,forced_choiceRT,2021.1.2,Win32,59.97720866,,,,,,,,3,Ontime,h,0,1.952,2,3,11,1,1,,,,,
,1.16,,,,,,,,,f.PNG,f,6133f1716622e58b7ba8a8ba,2021-10-19_16h39.28.393,forced_choiceRT,2021.1.2,Win32,59.97720866,,,,,,,,3,Ontime,f,1,2.0057,3,0,12,0,1,,,,,
,0.43,,,,,,,,,f.PNG,f,6133f1716622e58b7ba8a8ba,2021-10-19_16h39.28.393,forced_choiceRT,2021.1.2,Win32,59.97720866,,,,,,,,3,Fast,f,1,1.8326,3,1,13,0,1,,,,,
,0.83,,,,,,,,,h.PNG,h,6133f1716622e58b7ba8a8ba,2021-10-19_16h39.28.393,forced_choiceRT,2021.1.2,Win32,59.97720866,,,,,,,,3,Ontime,h,1,2.0057,3,2,14,2,1,,,,,
,1.38,,,,,,,,,g.PNG,g,6133f1716622e58b7ba8a8ba,2021-10-19_16h39.28.393,forced_choiceRT,2021.1.2,Win32,59.97720866,,,,,,,,3,Slow,g,1,2.1313,3,3,15,1,1,,,,,
,0.33,,,,,,,,,g.PNG,g,6133f1716622e58b7ba8a8ba,2021-10-19_16h39.28.393,forced_choiceRT,2021.1.2,Win32,59.97720866,,,,,,,,3,Ontime,g,1,2.049,4,0,16,1,1,,,,,
,0.5,,,,,,,,,j.PNG,j,6133f1716622e58b7ba8a8ba,2021-10-19_16h39.28.393,forced_choiceRT,2021.1.2,Win32,59.97720866,,,,,,,,3,Ontime,j,1,1.9345,4,1,17,3,1,,,,,
,1.41,,,,,,,,,h.PNG,h,6133f1716622e58b7ba8a8ba,2021-10-19_16h39.28.393,forced_choiceRT,2021.1.2,Win32,59.97720866,,,,,,,,3,Fast,f,0,0.2682,4,2,18,2,1,,,,,
,0.16,,,,,,,,,g.PNG,g,6133f1716622e58b7ba8a8ba,2021-10-19_16h39.28.393,forced_choiceRT,2021.1.2,Win32,59.97720866,,,,,,,,3,Ontime,g,1,2.0898,4,3,19,1,1,,,,,
,1.89,,,,,,,,,h.PNG,h,6133f1716622e58b7ba8a8ba,2021-10-19_16h39.28.393,forced_choiceRT,2021.1.2,Win32,59.97720866,,,,,,,,3,Ontime,h,1,1.9997,5,0,20,2,1,,,,,
,1.86,,,,,,,,,f.PNG,f,6133f1716622e58b7ba8a8ba,2021-10-19_16h39.28.393,forced_choiceRT,2021.1.2,Win32,59.97720866,,,,,,,,3,Ontime,j,0,2.0149,5,1,21,0,1,,,,,
,0.8,,,,,,,,,j.PNG,j,6133f1716622e58b7ba8a8ba,2021-10-19_16h39.28.393,forced_choiceRT,2021.1.2,Win32,59.97720866,,,,,,,,3,Ontime,j,1,1.9424,5,2,22,3,1,,,,,
,0.3,,,,,,,,,h.PNG,h,6133f1716622e58b7ba8a8ba,2021-10-19_16h39.28.393,forced_choiceRT,2021.1.2,Win32,59.97720866,,,,,,,,3,Ontime,h,1,2.0314,5,3,23,2,1,,,,,
,0.61,,,,,,,,,j.PNG,j,6133f1716622e58b7ba8a8ba,2021-10-19_16h39.28.393,forced_choiceRT,2021.1.2,Win32,59.97720866,,,,,,,,3,Ontime,j,1,1.939,6,0,24,3,1,,,,,
,0.39,,,,,,,,,g.PNG,g,6133f1716622e58b7ba8a8ba,2021-10-19_16h39.28.393,forced_choiceRT,2021.1.2,Win32,59.97720866,,,,,,,,3,Ontime,g,1,2.0174,6,1,25,1,1,,,,,
,0.02,,,,,,,,,j.PNG,j,6133f1716622e58b7ba8a8ba,2021-10-19_16h39.28.393,forced_choiceRT,2021.1.2,Win32,59.97720866,,,,,,,,3,Ontime,j,1,2.0508,6,2,26,3,1,,,,,
,0.31,,,,,,,,,h.PNG,h,6133f1716622e58b7ba8a8ba,2021-10-19_16h39.28.393,forced_choiceRT,2021.1.2,Win32,59.97720866,,,,,,,,3,Ontime,h,1,2.0379,6,3,27,2,1,,,,,
,1.25,,,,,,,,,f.PNG,f,6133f1716622e58b7ba8a8ba,2021-10-19_16h39.28.393,forced_choiceRT,2021.1.2,Win32,59.97720866,,,,,,,,3,Ontime,f,1,1.9679,7,0,28,0,1,,,,,
,1.43,,,,,,,,,f.PNG,f,6133f1716622e58b7ba8a8ba,2021-10-19_16h39.28.393,forced_choiceRT,2021.1.2,Win32,59.97720866,,,,,,,,3,Slow,f,1,2.1329,7,1,29,0,1,,,,,
,0.05,,,,,,,,,j.PNG,j,6133f1716622e58b7ba8a8ba,2021-10-19_16h39.28.393,forced_choiceRT,2021.1.2,Win32,59.97720866,,,,,,,,3,Ontime,j,1,1.9401,7,2,30,3,1,,,,,
,1.56,,,,,,,,,j.PNG,j,6133f1716622e58b7ba8a8ba,2021-10-19_16h39.28.393,forced_choiceRT,2021.1.2,Win32,59.97720866,,,,,,,,3,Slow,h,0,2.1223,7,3,31,3,1,,,,,
,0.35,,,,,,,,,j.PNG,j,6133f1716622e58b7ba8a8ba,2021-10-19_16h39.28.393,forced_choiceRT,2021.1.2,Win32,59.97720866,,,,,,,,3,Ontime,j,1,2.0081,8,0,32,3,1,,,,,
,1.4,,,,,,,,,h.PNG,h,6133f1716622e58b7ba8a8ba,2021-10-19_16h39.28.393,forced_choiceRT,2021.1.2,Win32,59.97720866,,,,,,,,3,Slow,h,1,2.132,8,1,33,2,1,,,,,
,1.63,,,,,,,,,f.PNG,f,6133f1716622e58b7ba8a8ba,2021-10-19_16h39.28.393,forced_choiceRT,2021.1.2,Win32,59.97720866,,,,,,,,3,Ontime,j,0,1.9648,8,2,34,0,1,,,,,
,1.5,,,,,,,,,f.PNG,f,6133f1716622e58b7ba8a8ba,2021-10-19_16h39.28.393,forced_choiceRT,2021.1.2,Win32,59.97720866,,,,,,,,3,Fast,j,0,1.8899,8,3,35,0,1,,,,,
,1.93,,,,,,,,,g.PNG,g,6133f1716622e58b7ba8a8ba,2021-10-19_16h39.28.393,forced_choiceRT,2021.1.2,Win32,59.97720866,,,,,,,,3,Ontime,f,0,1.9908,9,0,36,1,1,,,,,
,0.7,,,,,,,,,h.PNG,h,6133f1716622e58b7ba8a8ba,2021-10-19_16h39.28.393,forced_choiceRT,2021.1.2,Win32,59.97720866,,,,,,,,3,Ontime,h,1,1.9816,9,1,37,2,1,,,,,
,1.62,,,,,,,,,f.PNG,f,6133f1716622e58b7ba8a8ba,2021-10-19_16h39.28.393,forced_choiceRT,2021.1.2,Win32,59.97720866,,,,,,,,3,Ontime,f,1,1.9064,9,2,38,0,1,,,,,
,0.64,,,,,,,,,f.PNG,f,6133f1716622e58b7ba8a8ba,2021-10-19_16h39.28.393,forced_choiceRT,2021.1.2,Win32,59.97720866,,,,,,,,3,Ontime,f,1,1.9735,9,3,39,0,1,,,,,
,,,,,,,,,,,,6133f1716622e58b7ba8a8ba,2021-10-19_16h39.28.393,forced_choiceRT,2021.1.2,Win32,59.97720866,,,,,,,,,,,,,,,,,,2,0,2,0,1
,1.86,,,,,,,,,j.PNG,j,6133f1716622e58b7ba8a8ba,2021-10-19_16h39.28.393,forced_choiceRT,2021.1.2,Win32,59.97720866,,,,,,,,4,Ontime,f,0,1.9904,0,0,0,3,1,,,,,
,0.54,,,,,,,,,j.PNG,j,6133f1716622e58b7ba8a8ba,2021-10-19_16h39.28.393,forced_choiceRT,2021.1.2,Win32,59.97720866,,,,,,,,4,Ontime,j,1,2.0903,0,1,1,3,1,,,,,
,1.8,,,,,,,,,f.PNG,f,6133f1716622e58b7ba8a8ba,2021-10-19_16h39.28.393,forced_choiceRT,2021.1.2,Win32,59.97720866,,,,,,,,4,Ontime,j,0,2.0814,0,2,2,0,1,,,,,
,1.85,,,,,,,,,h.PNG,h,6133f1716622e58b7ba8a8ba,2021-10-19_16h39.28.393,forced_choiceRT,2021.1.2,Win32,59.97720866,,,,,,,,4,Ontime,f,0,1.9422,0,3,3,2,1,,,,,
,0.1,,,,,,,,,j.PNG,j,6133f1716622e58b7ba8a8ba,2021-10-19_16h39.28.393,forced_choiceRT,2021.1.2,Win32,59.97720866,,,,,,,,4,Ontime,j,1,1.9156,1,0,4,3,1,,,,,
,1.33,,,,,,,,,g.PNG,g,6133f1716622e58b7ba8a8ba,2021-10-19_16h39.28.393,forced_choiceRT,2021.1.2,Win32,59.97720866,,,,,,,,4,Ontime,h,0,2.0813,1,1,5,1,1,,,,,
,0.77,,,,,,,,,f.PNG,f,6133f1716622e58b7ba8a8ba,2021-10-19_16h39.28.393,forced_choiceRT,2021.1.2,Win32,59.97720866,,,,,,,,4,Ontime,f,1,1.9327,1,2,6,0,1,,,,,
,1.95,,,,,,,,,f.PNG,f,6133f1716622e58b7ba8a8ba,2021-10-19_16h39.28.393,forced_choiceRT,2021.1.2,Win32,59.97720866,,,,,,,,4,Ontime,f,1,2.0039,1,3,7,0,1,,,,,
,1.96,,,,,,,,,h.PNG,h,6133f1716622e58b7ba8a8ba,2021-10-19_16h39.28.393,forced_choiceRT,2021.1.2,Win32,59.97720866,,,,,,,,4,Ontime,h,1,2.0571,2,0,8,2,1,,,,,
,1.8,,,,,,,,,h.PNG,h,6133f1716622e58b7ba8a8ba,2021-10-19_16h39.28.393,forced_choiceRT,2021.1.2,Win32,59.97720866,,,,,,,,4,Fast,f,0,1.8844,2,1,9,2,1,,,,,
,0.91,,,,,,,,,j.PNG,j,6133f1716622e58b7ba8a8ba,2021-10-19_16h39.28.393,forced_choiceRT,2021.1.2,Win32,59.97720866,,,,,,,,4,Slow,j,1,2.2504,2,2,10,3,1,,,,,
,0.09,,,,,,,,,f.PNG,f,6133f1716622e58b7ba8a8ba,2021-10-19_16h39.28.393,forced_choiceRT,2021.1.2,Win32,59.97720866,,,,,,,,4,Ontime,f,1,1.9892,2,3,11,0,1,,,,,
,0.51,,,,,,,,,h.PNG,h,6133f1716622e58b7ba8a8ba,2021-10-19_16h39.28.393,forced_choiceRT,2021.1.2,Win32,59.97720866,,,,,,,,4,Ontime,h,1,1.9383,3,0,12,2,1,,,,,
,0.12,,,,,,,,,g.PNG,g,6133f1716622e58b7ba8a8ba,2021-10-19_16h39.28.393,forced_choiceRT,2021.1.2,Win32,59.97720866,,,,,,,,4,Ontime,g,1,2.0329,3,1,13,1,1,,,,,
,1.96,,,,,,,,,f.PNG,f,6133f1716622e58b7ba8a8ba,2021-10-19_16h39.28.393,forced_choiceRT,2021.1.2,Win32,59.97720866,,,,,,,,4,Ontime,f,1,2.0579,3,2,14,0,1,,,,,
,1.59,,,,,,,,,g.PNG,g,6133f1716622e58b7ba8a8ba,2021-10-19_16h39.28.393,forced_choiceRT,2021.1.2,Win32,59.97720866,,,,,,,,4,Slow,f,0,2.1161,3,3,15,1,1,,,,,
,1.88,,,,,,,,,h.PNG,h,6133f1716622e58b7ba8a8ba,2021-10-19_16h39.28.393,forced_choiceRT,2021.1.2,Win32,59.97720866,,,,,,,,4,Ontime,h,1,1.9333,4,0,16,2,1,,,,,
,0.11,,,,,,,,,j.PNG,j,6133f1716622e58b7ba8a8ba,2021-10-19_16h39.28.393,forced_choiceRT,2021.1.2,Win32,59.97720866,,,,,,,,4,Ontime,j,1,2,4,1,17,3,1,,,,,
,1.14,,,,,,,,,g.PNG,g,6133f1716622e58b7ba8a8ba,2021-10-19_16h39.28.393,forced_choiceRT,2021.1.2,Win32,59.97720866,,,,,,,,4,Ontime,g,1,1.9214,4,2,18,1,1,,,,,
,0.75,,,,,,,,,j.PNG,j,6133f1716622e58b7ba8a8ba,2021-10-19_16h39.28.393,forced_choiceRT,2021.1.2,Win32,59.97720866,,,,,,,,4,Ontime,j,1,2.0076,4,3,19,3,1,,,,,
,1.65,,,,,,,,,g.PNG,g,6133f1716622e58b7ba8a8ba,2021-10-19_16h39.28.393,forced_choiceRT,2021.1.2,Win32,59.97720866,,,,,,,,4,Ontime,j,0,2.0328,5,0,20,1,1,,,,,
,0.42,,,,,,,,,f.PNG,f,6133f1716622e58b7ba8a8ba,2021-10-19_16h39.28.393,forced_choiceRT,2021.1.2,Win32,59.97720866,,,,,,,,4,Slow,f,1,2.1238,5,1,21,0,1,,,,,
,1.88,,,,,,,,,f.PNG,f,6133f1716622e58b7ba8a8ba,2021-10-19_16h39.28.393,forced_choiceRT,2021.1.2,Win32,59.97720866,,,,,,,,4,Ontime,h,0,1.986,5,2,22,0,1,,,,,
,0.32,,,,,,,,,j.PNG,j,6133f1716622e58b7ba8a8ba,2021-10-19_16h39.28.393,forced_choiceRT,2021.1.2,Win32,59.97720866,,,,,,,,4,Ontime,j,1,1.9996,5,3,23,3,1,,,,,
,0.64,,,,,,,,,h.PNG,h,6133f1716622e58b7ba8a8ba,2021-10-19_16h39.28.393,forced_choiceRT,2021.1.2,Win32,59.97720866,,,,,,,,4,Ontime,h,1,1.9537,6,0,24,2,1,,,,,
,1.88,,,,,,,,,h.PNG,h,6133f1716622e58b7ba8a8ba,2021-10-19_16h39.28.393,forced_choiceRT,2021.1.2,Win32,59.97720866,,,,,,,,4,Ontime,f,0,2.0109,6,1,25,2,1,,,,,
,1.26,,,,,,,,,f.PNG,f,6133f1716622e58b7ba8a8ba,2021-10-19_16h39.28.393,forced_choiceRT,2021.1.2,Win32,59.97720866,,,,,,,,4,Ontime,f,1,2.0664,6,2,26,0,1,,,,,
,1.98,,,,,,,,,j.PNG,j,6133f1716622e58b7ba8a8ba,2021-10-19_16h39.28.393,forced_choiceRT,2021.1.2,Win32,59.97720866,,,,,,,,4,Ontime,h,0,2.0244,6,3,27,3,1,,,,,
,0.99,,,,,,,,,g.PNG,g,6133f1716622e58b7ba8a8ba,2021-10-19_16h39.28.393,forced_choiceRT,2021.1.2,Win32,59.97720866,,,,,,,,4,Ontime,g,1,2.0068,7,0,28,1,1,,,,,
,0.1,,,,,,,,,h.PNG,h,6133f1716622e58b7ba8a8ba,2021-10-19_16h39.28.393,forced_choiceRT,2021.1.2,Win32,59.97720866,,,,,,,,4,Ontime,h,1,2.0567,7,1,29,2,1,,,,,
,1.49,,,,,,,,,g.PNG,g,6133f1716622e58b7ba8a8ba,2021-10-19_16h39.28.393,forced_choiceRT,2021.1.2,Win32,59.97720866,,,,,,,,4,Ontime,g,1,2.0884,7,2,30,1,1,,,,,
,1.22,,,,,,,,,g.PNG,g,6133f1716622e58b7ba8a8ba,2021-10-19_16h39.28.393,forced_choiceRT,2021.1.2,Win32,59.97720866,,,,,,,,4,Ontime,g,1,2.033,7,3,31,1,1,,,,,
,0.69,,,,,,,,,f.PNG,f,6133f1716622e58b7ba8a8ba,2021-10-19_16h39.28.393,forced_choiceRT,2021.1.2,Win32,59.97720866,,,,,,,,4,Ontime,f,1,1.9186,8,0,32,0,1,,,,,
,1.04,,,,,,,,,g.PNG,g,6133f1716622e58b7ba8a8ba,2021-10-19_16h39.28.393,forced_choiceRT,2021.1.2,Win32,59.97720866,,,,,,,,4,Ontime,g,1,2.0317,8,1,33,1,1,,,,,
,1.85,,,,,,,,,j.PNG,j,6133f1716622e58b7ba8a8ba,2021-10-19_16h39.28.393,forced_choiceRT,2021.1.2,Win32,59.97720866,,,,,,,,4,Slow,j,1,2.7158,8,2,34,3,1,,,,,
,0.13,,,,,,,,,h.PNG,h,6133f1716622e58b7ba8a8ba,2021-10-19_16h39.28.393,forced_choiceRT,2021.1.2,Win32,59.97720866,,,,,,,,4,Fast,j,0,1.2499,8,3,35,2,1,,,,,
,0.01,,,,,,,,,f.PNG,f,6133f1716622e58b7ba8a8ba,2021-10-19_16h39.28.393,forced_choiceRT,2021.1.2,Win32,59.97720866,,,,,,,,4,Ontime,f,1,1.9831,9,0,36,0,1,,,,,
,0.44,,,,,,,,,j.PNG,j,6133f1716622e58b7ba8a8ba,2021-10-19_16h39.28.393,forced_choiceRT,2021.1.2,Win32,59.97720866,,,,,,,,4,Fast,j,1,1.6391,9,1,37,3,1,,,,,
,1.47,,,,,,,,,g.PNG,g,6133f1716622e58b7ba8a8ba,2021-10-19_16h39.28.393,forced_choiceRT,2021.1.2,Win32,59.97720866,,,,,,,,4,Slow,h,0,2.1091,9,2,38,1,1,,,,,
,0.68,,,,,,,,,h.PNG,h,6133f1716622e58b7ba8a8ba,2021-10-19_16h39.28.393,forced_choiceRT,2021.1.2,Win32,59.97720866,,,,,,,,4,Ontime,g,0,2.0511,9,3,39,2,1,,,,,
,,,,,,,,,,,,6133f1716622e58b7ba8a8ba,2021-10-19_16h39.28.393,forced_choiceRT,2021.1.2,Win32,59.97720866,,,,,,,,,,,,,,,,,,3,0,3,0,1
,0.83,,,,,,,,,f.PNG,f,6133f1716622e58b7ba8a8ba,2021-10-19_16h39.28.393,forced_choiceRT,2021.1.2,Win32,59.97720866,,,,,,,,5,Fast,g,0,1.817,0,0,0,0,1,,,,,
,1.89,,,,,,,,,f.PNG,f,6133f1716622e58b7ba8a8ba,2021-10-19_16h39.28.393,forced_choiceRT,2021.1.2,Win32,59.97720866,,,,,,,,5,Ontime,j,0,1.9996,0,1,1,0,1,,,,,
,1.75,,,,,,,,,g.PNG,g,6133f1716622e58b7ba8a8ba,2021-10-19_16h39.28.393,forced_choiceRT,2021.1.2,Win32,59.97720866,,,,,,,,5,Ontime,g,1,2.0156,0,2,2,1,1,,,,,
,1.19,,,,,,,,,f.PNG,f,6133f1716622e58b7ba8a8ba,2021-10-19_16h39.28.393,forced_choiceRT,2021.1.2,Win32,59.97720866,,,,,,,,5,Ontime,f,1,2.0496,0,3,3,0,1,,,,,
,0.7,,,,,,,,,f.PNG,f,6133f1716622e58b7ba8a8ba,2021-10-19_16h39.28.393,forced_choiceRT,2021.1.2,Win32,59.97720866,,,,,,,,5,Ontime,f,1,1.9995,1,0,4,0,1,,,,,
,0.92,,,,,,,,,j.PNG,j,6133f1716622e58b7ba8a8ba,2021-10-19_16h39.28.393,forced_choiceRT,2021.1.2,Win32,59.97720866,,,,,,,,5,Ontime,j,1,2.0164,1,1,5,3,1,,,,,
,1.55,,,,,,,,,h.PNG,h,6133f1716622e58b7ba8a8ba,2021-10-19_16h39.28.393,forced_choiceRT,2021.1.2,Win32,59.97720866,,,,,,,,5,Slow,h,1,2.1659,1,2,6,2,1,,,,,
,1.61,,,,,,,,,j.PNG,j,6133f1716622e58b7ba8a8ba,2021-10-19_16h39.28.393,forced_choiceRT,2021.1.2,Win32,59.97720866,,,,,,,,5,Ontime,f,0,1.9666,1,3,7,3,1,,,,,
,1.8,,,,,,,,,g.PNG,g,6133f1716622e58b7ba8a8ba,2021-10-19_16h39.28.393,forced_choiceRT,2021.1.2,Win32,59.97720866,,,,,,,,5,Ontime,h,0,2.0346,2,0,8,1,1,,,,,
,1.45,,,,,,,,,h.PNG,h,6133f1716622e58b7ba8a8ba,2021-10-19_16h39.28.393,forced_choiceRT,2021.1.2,Win32,59.97720866,,,,,,,,5,Slow,f,0,2.1162,2,1,9,2,1,,,,,
,0.98,,,,,,,,,f.PNG,f,6133f1716622e58b7ba8a8ba,2021-10-19_16h39.28.393,forced_choiceRT,2021.1.2,Win32,59.97720866,,,,,,,,5,Ontime,f,1,2.0498,2,2,10,0,1,,,,,
,1.28,,,,,,,,,f.PNG,f,6133f1716622e58b7ba8a8ba,2021-10-19_16h39.28.393,forced_choiceRT,2021.1.2,Win32,59.97720866,,,,,,,,5,Ontime,f,1,1.9829,2,3,11,0,1,,,,,
,1.81,,,,,,,,,g.PNG,g,6133f1716622e58b7ba8a8ba,2021-10-19_16h39.28.393,forced_choiceRT,2021.1.2,Win32,59.97720866,,,,,,,,5,Ontime,j,0,1.9593,3,0,12,1,1,,,,,
,0.55,,,,,,,,,g.PNG,g,6133f1716622e58b7ba8a8ba,2021-10-19_16h39.28.393,forced_choiceRT,2021.1.2,Win32,59.97720866,,,,,,,,5,Ontime,g,1,2.0692,3,1,13,1,1,,,,,
,1.38,,,,,,,,,h.PNG,h,6133f1716622e58b7ba8a8ba,2021-10-19_16h39.28.393,forced_choiceRT,2021.1.2,Win32,59.97720866,,,,,,,,5,Ontime,g,0,2.0498,3,2,14,2,1,,,,,
,1.36,,,,,,,,,g.PNG,g,6133f1716622e58b7ba8a8ba,2021-10-19_16h39.28.393,forced_choiceRT,2021.1.2,Win32,59.97720866,,,,,,,,5,Ontime,g,1,2.0496,3,3,15,1,1,,,,,
,1.6,,,,,,,,,j.PNG,j,6133f1716622e58b7ba8a8ba,2021-10-19_16h39.28.393,forced_choiceRT,2021.1.2,Win32,59.97720866,,,,,,,,5,Ontime,f,0,1.9331,4,0,16,3,1,,,,,
,1.38,,,,,,,,,h.PNG,h,6133f1716622e58b7ba8a8ba,2021-10-19_16h39.28.393,forced_choiceRT,2021.1.2,Win32,59.97720866,,,,,,,,5,Ontime,j,0,1.9063,4,1,17,2,1,,,,,
,1.28,,,,,,,,,g.PNG,g,6133f1716622e58b7ba8a8ba,2021-10-19_16h39.28.393,forced_choiceRT,2021.1.2,Win32,59.97720866,,,,,,,,5,Ontime,g,1,1.9998,4,2,18,1,1,,,,,
,0.55,,,,,,,,,j.PNG,j,6133f1716622e58b7ba8a8ba,2021-10-19_16h39.28.393,forced_choiceRT,2021.1.2,Win32,59.97720866,,,,,,,,5,Ontime,j,1,2.0331,4,3,19,3,1,,,,,
,1.37,,,,,,,,,g.PNG,g,6133f1716622e58b7ba8a8ba,2021-10-19_16h39.28.393,forced_choiceRT,2021.1.2,Win32,59.97720866,,,,,,,,5,Ontime,g,1,2.0549,5,0,20,1,1,,,,,
,1.38,,,,,,,,,j.PNG,j,6133f1716622e58b7ba8a8ba,2021-10-19_16h39.28.393,forced_choiceRT,2021.1.2,Win32,59.97720866,,,,,,,,5,Ontime,j,1,2.0155,5,1,21,3,1,,,,,
,0.43,,,,,,,,,f.PNG,f,6133f1716622e58b7ba8a8ba,2021-10-19_16h39.28.393,forced_choiceRT,2021.1.2,Win32,59.97720866,,,,,,,,5,Slow,f,1,3.3377,5,2,22,0,1,,,,,
,1.55,,,,,,,,,g.PNG,g,6133f1716622e58b7ba8a8ba,2021-10-19_16h39.28.393,forced_choiceRT,2021.1.2,Win32,59.97720866,,,,,,,,5,Ontime,h,0,2.034,5,3,23,1,1,,,,,
,0.21,,,,,,,,,h.PNG,h,6133f1716622e58b7ba8a8ba,2021-10-19_16h39.28.393,forced_choiceRT,2021.1.2,Win32,59.97720866,,,,,,,,5,Fast,g,0,1.5164,6,0,24,2,1,,,,,
,0.55,,,,,,,,,j.PNG,j,6133f1716622e58b7ba8a8ba,2021-10-19_16h39.28.393,forced_choiceRT,2021.1.2,Win32,59.97720866,,,,,,,,5,Ontime,j,1,2.006,6,1,25,3,1,,,,,
,1.74,,,,,,,,,j.PNG,j,6133f1716622e58b7ba8a8ba,2021-10-19_16h39.28.393,forced_choiceRT,2021.1.2,Win32,59.97720866,,,,,,,,5,Ontime,h,0,2.033,6,2,26,3,1,,,,,
,0.61,,,,,,,,,h.PNG,h,6133f1716622e58b7ba8a8ba,2021-10-19_16h39.28.393,forced_choiceRT,2021.1.2,Win32,59.97720866,,,,,,,,5,Ontime,h,1,2.038,6,3,27,2,1,,,,,
,1.03,,,,,,,,,f.PNG,f,6133f1716622e58b7ba8a8ba,2021-10-19_16h39.28.393,forced_choiceRT,2021.1.2,Win32,59.97720866,,,,,,,,5,Ontime,f,1,1.9549,7,0,28,0,1,,,,,
,1.53,,,,,,,,,h.PNG,h,6133f1716622e58b7ba8a8ba,2021-10-19_16h39.28.393,forced_choiceRT,2021.1.2,Win32,59.97720866,,,,,,,,5,Slow,h,1,2.1323,7,1,29,2,1,,,,,
,1.55,,,,,,,,,g.PNG,g,6133f1716622e58b7ba8a8ba,2021-10-19_16h39.28.393,forced_choiceRT,2021.1.2,Win32,59.97720866,,,,,,,,5,Ontime,g,1,2.0228,7,2,30,1,1,,,,,
,0.6,,,,,,,,,f.PNG,f,6133f1716622e58b7ba8a8ba,2021-10-19_16h39.28.393,forced_choiceRT,2021.1.2,Win32,59.97720866,,,,,,,,5,Ontime,f,1,1.9741,7,3,31,0,1,,,,,
,0.33,,,,,,,,,j.PNG,j,6133f1716622e58b7ba8a8ba,2021-10-19_16h39.28.393,forced_choiceRT,2021.1.2,Win32,59.97720866,,,,,,,,5,Ontime,j,1,2.069,8,0,32,3,1,,,,,
,1.07,,,,,,,,,f.PNG,f,6133f1716622e58b7ba8a8ba,2021-10-19_16h39.28.393,forced_choiceRT,2021.1.2,Win32,59.97720866,,,,,,,,5,Ontime,f,1,2.0077,8,1,33,0,1,,,,,
,1.67,,,,,,,,,g.PNG,g,6133f1716622e58b7ba8a8ba,2021-10-19_16h39.28.393,forced_choiceRT,2021.1.2,Win32,59.97720866,,,,,,,,5,Ontime,h,0,1.9499,8,2,34,1,1,,,,,
,0.85,,,,,,,,,j.PNG,j,6133f1716622e58b7ba8a8ba,2021-10-19_16h39.28.393,forced_choiceRT,2021.1.2,Win32,59.97720866,,,,,,,,5,Ontime,j,1,1.9399,8,3,35,3,1,,,,,
,1.03,,,,,,,,,h.PNG,h,6133f1716622e58b7ba8a8ba,2021-10-19_16h39.28.393,forced_choiceRT,2021.1.2,Win32,59.97720866,,,,,,,,5,Ontime,h,1,1.9395,9,0,36,2,1,,,,,
,0.92,,,,,,,,,j.PNG,j,6133f1716622e58b7ba8a8ba,2021-10-19_16h39.28.393,forced_choiceRT,2021.1.2,Win32,59.97720866,,,,,,,,5,Fast,j,1,1.8928,9,1,37,3,1,,,,,
,0.83,,,,,,,,,h.PNG,h,6133f1716622e58b7ba8a8ba,2021-10-19_16h39.28.393,forced_choiceRT,2021.1.2,Win32,59.97720866,,,,,,,,5,Ontime,h,1,1.9173,9,2,38,2,1,,,,,
,0.26,,,,,,,,,h.PNG,h,6133f1716622e58b7ba8a8ba,2021-10-19_16h39.28.393,forced_choiceRT,2021.1.2,Win32,59.97720866,,,,,,,,5,Fast,h,1,1.8995,9,3,39,2,1,,,,,
,,,,,,,,,,,,6133f1716622e58b7ba8a8ba,2021-10-19_16h39.28.393,forced_choiceRT,2021.1.2,Win32,59.97720866,,,,,,,,,,,,,,,,,,4,0,4,0,1
,0.1,,,,,,,,,h.PNG,h,6133f1716622e58b7ba8a8ba,2021-10-19_16h39.28.393,forced_choiceRT,2021.1.2,Win32,59.97720866,,,,,,,,6,Ontime,h,1,2.0742,0,0,0,2,1,,,,,
,0.31,,,,,,,,,f.PNG,f,6133f1716622e58b7ba8a8ba,2021-10-19_16h39.28.393,forced_choiceRT,2021.1.2,Win32,59.97720866,,,,,,,,6,Ontime,f,1,2.0038,0,1,1,0,1,,,,,
,1.18,,,,,,,,,g.PNG,g,6133f1716622e58b7ba8a8ba,2021-10-19_16h39.28.393,forced_choiceRT,2021.1.2,Win32,59.97720866,,,,,,,,6,Ontime,g,1,1.9671,0,2,2,1,1,,,,,
,1.96,,,,,,,,,f.PNG,f,6133f1716622e58b7ba8a8ba,2021-10-19_16h39.28.393,forced_choiceRT,2021.1.2,Win32,59.97720866,,,,,,,,6,Ontime,h,0,1.9998,0,3,3,0,1,,,,,
,0.98,,,,,,,,,j.PNG,j,6133f1716622e58b7ba8a8ba,2021-10-19_16h39.28.393,forced_choiceRT,2021.1.2,Win32,59.97720866,,,,,,,,6,Ontime,j,1,1.9998,1,0,4,3,1,,,,,
,1.97,,,,,,,,,g.PNG,g,6133f1716622e58b7ba8a8ba,2021-10-19_16h39.28.393,forced_choiceRT,2021.1.2,Win32,59.97720866,,,,,,,,6,Ontime,f,0,1.9867,1,1,5,1,1,,,,,
,1.06,,,,,,,,,j.PNG,j,6133f1716622e58b7ba8a8ba,2021-10-19_16h39.28.393,forced_choiceRT,2021.1.2,Win32,59.97720866,,,,,,,,6,Ontime,j,1,1.9016,1,2,6,3,1,,,,,
,0.12,,,,,,,,,h.PNG,h,6133f1716622e58b7ba8a8ba,2021-10-19_16h39.28.393,forced_choiceRT,2021.1.2,Win32,59.97720866,,,,,,,,6,Ontime,h,1,1.9359,1,3,7,2,1,,,,,
,1.31,,,,,,,,,g.PNG,g,6133f1716622e58b7ba8a8ba,2021-10-19_16h39.28.393,forced_choiceRT,2021.1.2,Win32,59.97720866,,,,,,,,6,Ontime,g,1,2.0594,2,0,8,1,1,,,,,
,0.56,,,,,,,,,j.PNG,j,6133f1716622e58b7ba8a8ba,2021-10-19_16h39.28.393,forced_choiceRT,2021.1.2,Win32,59.97720866,,,,,,,,6,Ontime,j,1,1.95,2,1,9,3,1,,,,,
,0.64,,,,,,,,,g.PNG,g,6133f1716622e58b7ba8a8ba,2021-10-19_16h39.28.393,forced_choiceRT,2021.1.2,Win32,59.97720866,,,,,,,,6,Ontime,g,1,2.0246,2,2,10,1,1,,,,,
,1.84,,,,,,,,,f.PNG,f,6133f1716622e58b7ba8a8ba,2021-10-19_16h39.28.393,forced_choiceRT,2021.1.2,Win32,59.97720866,,,,,,,,6,Ontime,h,0,2.0013,2,3,11,0,1,,,,,
,1.99,,,,,,,,,g.PNG,g,6133f1716622e58b7ba8a8ba,2021-10-19_16h39.28.393,forced_choiceRT,2021.1.2,Win32,59.97720866,,,,,,,,6,Slow,f,0,2.1161,3,0,12,1,1,,,,,
,1.38,,,,,,,,,g.PNG,g,6133f1716622e58b7ba8a8ba,2021-10-19_16h39.28.393,forced_choiceRT,2021.1.2,Win32,59.97720866,,,,,,,,6,Ontime,g,1,2.0413,3,1,13,1,1,,,,,
,0.83,,,,,,,,,f.PNG,f,6133f1716622e58b7ba8a8ba,2021-10-19_16h39.28.393,forced_choiceRT,2021.1.2,Win32,59.97720866,,,,,,,,6,Ontime,f,1,2.0337,3,2,14,0,1,,,,,
,1.51,,,,,,,,,j.PNG,j,6133f1716622e58b7ba8a8ba,2021-10-19_16h39.28.393,forced_choiceRT,2021.1.2,Win32,59.97720866,,,,,,,,6,Slow,f,0,2.1705,3,3,15,3,1,,,,,
,0.78,,,,,,,,,h.PNG,h,6133f1716622e58b7ba8a8ba,2021-10-19_16h39.28.393,forced_choiceRT,2021.1.2,Win32,59.97720866,,,,,,,,6,Ontime,h,1,1.9829,4,0,16,2,1,,,,,
,0.45,,,,,,,,,j.PNG,j,6133f1716622e58b7ba8a8ba,2021-10-19_16h39.28.393,forced_choiceRT,2021.1.2,Win32,59.97720866,,,,,,,,6,Slow,j,1,2.1167,4,1,17,3,1,,,,,
,1.54,,,,,,,,,f.PNG,f,6133f1716622e58b7ba8a8ba,2021-10-19_16h39.28.393,forced_choiceRT,2021.1.2,Win32,59.97720866,,,,,,,,6,Ontime,f,1,1.9565,4,2,18,0,1,,,,,
,1.55,,,,,,,,,j.PNG,j,6133f1716622e58b7ba8a8ba,2021-10-19_16h39.28.393,forced_choiceRT,2021.1.2,Win32,59.97720866,,,,,,,,6,Ontime,h,0,1.9182,4,3,19,3,1,,,,,
,0.38,,,,,,,,,g.PNG,g,6133f1716622e58b7ba8a8ba,2021-10-19_16h39.28.393,forced_choiceRT,2021.1.2,Win32,59.97720866,,,,,,,,6,Ontime,g,1,1.9873,5,0,20,1,1,,,,,
,0.26,,,,,,,,,f.PNG,f,6133f1716622e58b7ba8a8ba,2021-10-19_16h39.28.393,forced_choiceRT,2021.1.2,Win32,59.97720866,,,,,,,,6,Slow,f,1,3.1207,5,1,21,0,1,,,,,
,1.79,,,,,,,,,g.PNG,g,6133f1716622e58b7ba8a8ba,2021-10-19_16h39.28.393,forced_choiceRT,2021.1.2,Win32,59.97720866,,,,,,,,6,Ontime,h,0,1.9692,5,2,22,1,1,,,,,
,0.36,,,,,,,,,j.PNG,j,6133f1716622e58b7ba8a8ba,2021-10-19_16h39.28.393,forced_choiceRT,2021.1.2,Win32,59.97720866,,,,,,,,6,Ontime,j,1,1.9734,5,3,23,3,1,,,,,
,0.55,,,,,,,,,f.PNG,f,6133f1716622e58b7ba8a8ba,2021-10-19_16h39.28.393,forced_choiceRT,2021.1.2,Win32,59.97720866,,,,,,,,6,Ontime,f,1,1.9384,6,0,24,0,1,,,,,
,1.03,,,,,,,,,f.PNG,f,6133f1716622e58b7ba8a8ba,2021-10-19_16h39.28.393,forced_choiceRT,2021.1.2,Win32,59.97720866,,,,,,,,6,Ontime,f,1,1.9875,6,1,25,0,1,,,,,
,0.76,,,,,,,,,f.PNG,f,6133f1716622e58b7ba8a8ba,2021-10-19_16h39.28.393,forced_choiceRT,2021.1.2,Win32,59.97720866,,,,,,,,6,Ontime,f,1,1.9699,6,2,26,0,1,,,,,
,0.43,,,,,,,,,j.PNG,j,6133f1716622e58b7ba8a8ba,2021-10-19_16h39.28.393,forced_choiceRT,2021.1.2,Win32,59.97720866,,,,,,,,6,Ontime,j,1,1.9827,6,3,27,3,1,,,,,
,1.29,,,,,,,,,g.PNG,g,6133f1716622e58b7ba8a8ba,2021-10-19_16h39.28.393,forced_choiceRT,2021.1.2,Win32,59.97720866,,,,,,,,6,Slow,h,0,2.1264,7,0,28,1,1,,,,,
,1.11,,,,,,,,,h.PNG,h,6133f1716622e58b7ba8a8ba,2021-10-19_16h39.28.393,forced_choiceRT,2021.1.2,Win32,59.97720866,,,,,,,,6,Ontime,h,1,1.9329,7,1,29,2,1,,,,,
,0.73,,,,,,,,,j.PNG,j,6133f1716622e58b7ba8a8ba,2021-10-19_16h39.28.393,forced_choiceRT,2021.1.2,Win32,59.97720866,,,,,,,,6,Ontime,j,1,2.0264,7,2,30,3,1,,,,,
,0.2,,,,,,,,,h.PNG,h,6133f1716622e58b7ba8a8ba,2021-10-19_16h39.28.393,forced_choiceRT,2021.1.2,Win32,59.97720866,,,,,,,,6,Ontime,h,1,2.016,7,3,31,2,1,,,,,
,1.74,,,,,,,,,f.PNG,f,6133f1716622e58b7ba8a8ba,2021-10-19_16h39.28.393,forced_choiceRT,2021.1.2,Win32,59.97720866,,,,,,,,6,Ontime,g,0,1.9742,8,0,32,0,1,,,,,
,1.87,,,,,,,,,h.PNG,h,6133f1716622e58b7ba8a8ba,2021-10-19_16h39.28.393,forced_choiceRT,2021.1.2,Win32,59.97720866,,,,,,,,6,Slow,f,0,2.2336,8,1,33,2,1,,,,,
,0.9,,,,,,,,,g.PNG,g,6133f1716622e58b7ba8a8ba,2021-10-19_16h39.28.393,forced_choiceRT,2021.1.2,Win32,59.97720866,,,,,,,,6,Ontime,g,1,1.9245,8,2,34,1,1,,,,,
,0.63,,,,,,,,,j.PNG,j,6133f1716622e58b7ba8a8ba,2021-10-19_16h39.28.393,forced_choiceRT,2021.1.2,Win32,59.97720866,,,,,,,,6,Ontime,j,1,1.9391,8,3,35,3,1,,,,,
,0.27,,,,,,,,,h.PNG,h,6133f1716622e58b7ba8a8ba,2021-10-19_16h39.28.393,forced_choiceRT,2021.1.2,Win32,59.97720866,,,,,,,,6,Ontime,h,1,2.0374,9,0,36,2,1,,,,,
,0.9,,,,,,,,,h.PNG,h,6133f1716622e58b7ba8a8ba,2021-10-19_16h39.28.393,forced_choiceRT,2021.1.2,Win32,59.97720866,,,,,,,,6,Fast,h,1,1.7894,9,1,37,2,1,,,,,
,1.33,,,,,,,,,h.PNG,h,6133f1716622e58b7ba8a8ba,2021-10-19_16h39.28.393,forced_choiceRT,2021.1.2,Win32,59.97720866,,,,,,,,6,Ontime,h,1,1.951,9,2,38,2,1,,,,,
,0.25,,,,,,,,,h.PNG,h,6133f1716622e58b7ba8a8ba,2021-10-19_16h39.28.393,forced_choiceRT,2021.1.2,Win32,59.97720866,,,,,,,,6,Fast,h,1,1.7841,9,3,39,2,1,,,,,
,,,,,,,,,,,,6133f1716622e58b7ba8a8ba,2021-10-19_16h39.28.393,forced_choiceRT,2021.1.2,Win32,59.97720866,,,,,,,,,,,,,,,,,,5,0,5,0,1
,1.69,,,,,,,,,h.PNG,h,6133f1716622e58b7ba8a8ba,2021-10-19_16h39.28.393,forced_choiceRT,2021.1.2,Win32,59.97720866,,,,,,,,7,Ontime,h,1,2.0392,0,0,0,2,1,,,,,
,1.2,,,,,,,,,h.PNG,h,6133f1716622e58b7ba8a8ba,2021-10-19_16h39.28.393,forced_choiceRT,2021.1.2,Win32,59.97720866,,,,,,,,7,Ontime,h,1,1.9495,0,1,1,2,1,,,,,
,1.64,,,,,,,,,g.PNG,g,6133f1716622e58b7ba8a8ba,2021-10-19_16h39.28.393,forced_choiceRT,2021.1.2,Win32,59.97720866,,,,,,,,7,Ontime,f,0,1.936,0,2,2,1,1,,,,,
,1.05,,,,,,,,,h.PNG,h,6133f1716622e58b7ba8a8ba,2021-10-19_16h39.28.393,forced_choiceRT,2021.1.2,Win32,59.97720866,,,,,,,,7,Fast,h,1,1.8714,0,3,3,2,1,,,,,
,1.27,,,,,,,,,g.PNG,g,6133f1716622e58b7ba8a8ba,2021-10-19_16h39.28.393,forced_choiceRT,2021.1.2,Win32,59.97720866,,,,,,,,7,Ontime,g,1,2.0831,1,0,4,1,1,,,,,
,0.35,,,,,,,,,j.PNG,j,6133f1716622e58b7ba8a8ba,2021-10-19_16h39.28.393,forced_choiceRT,2021.1.2,Win32,59.97720866,,,,,,,,7,Ontime,j,1,2.053,1,1,5,3,1,,,,,
,1.74,,,,,,,,,f.PNG,f,6133f1716622e58b7ba8a8ba,2021-10-19_16h39.28.393,forced_choiceRT,2021.1.2,Win32,59.97720866,,,,,,,,7,Slow,g,0,2.127,1,2,6,0,1,,,,,
,0.77,,,,,,,,,g.PNG,g,6133f1716622e58b7ba8a8ba,2021-10-19_16h39.28.393,forced_choiceRT,2021.1.2,Win32,59.97720866,,,,,,,,7,Ontime,g,1,2.0069,1,3,7,1,1,,,,,
,0.17,,,,,,,,,h.PNG,h,6133f1716622e58b7ba8a8ba,2021-10-19_16h39.28.393,forced_choiceRT,2021.1.2,Win32,59.97720866,,,,,,,,7,Ontime,h,1,2.0401,2,0,8,2,1,,,,,
,1.7,,,,,,,,,h.PNG,h,6133f1716622e58b7ba8a8ba,2021-10-19_16h39.28.393,forced_choiceRT,2021.1.2,Win32,59.97720866,,,,,,,,7,Ontime,f,0,1.9898,2,1,9,2,1,,,,,
,1.4,,,,,,,,,j.PNG,j,6133f1716622e58b7ba8a8ba,2021-10-19_16h39.28.393,forced_choiceRT,2021.1.2,Win32,59.97720866,,,,,,,,7,Ontime,h,0,1.9996,2,2,10,3,1,,,,,
,1.31,,,,,,,,,g.PNG,g,6133f1716622e58b7ba8a8ba,2021-10-19_16h39.28.393,forced_choiceRT,2021.1.2,Win32,59.97720866,,,,,,,,7,Ontime,g,1,2.0897,2,3,11,1,1,,,,,
,0.5,,,,,,,,,g.PNG,g,6133f1716622e58b7ba8a8ba,2021-10-19_16h39.28.393,forced_choiceRT,2021.1.2,Win32,59.97720866,,,,,,,,7,Ontime,g,1,1.9496,3,0,12,1,1,,,,,
,0.61,,,,,,,,,g.PNG,g,6133f1716622e58b7ba8a8ba,2021-10-19_16h39.28.393,forced_choiceRT,2021.1.2,Win32,59.97720866,,,,,,,,7,Ontime,g,1,2.0332,3,1,13,1,1,,,,,
,0.33,,,,,,,,,j.PNG,j,6133f1716622e58b7ba8a8ba,2021-10-19_16h39.28.393,forced_choiceRT,2021.1.2,Win32,59.97720866,,,,,,,,7,Ontime,j,1,1.983,3,2,14,3,1,,,,,
,0.33,,,,,,,,,h.PNG,h,6133f1716622e58b7ba8a8ba,2021-10-19_16h39.28.393,forced_choiceRT,2021.1.2,Win32,59.97720866,,,,,,,,7,Ontime,h,1,2.0355,3,3,15,2,1,,,,,
,1.74,,,,,,,,,f.PNG,f,6133f1716622e58b7ba8a8ba,2021-10-19_16h39.28.393,forced_choiceRT,2021.1.2,Win32,59.97720866,,,,,,,,7,Ontime,j,0,2.016,4,0,16,0,1,,,,,
,1.21,,,,,,,,,f.PNG,f,6133f1716622e58b7ba8a8ba,2021-10-19_16h39.28.393,forced_choiceRT,2021.1.2,Win32,59.97720866,,,,,,,,7,Ontime,f,1,2.0253,4,1,17,0,1,,,,,
,0.33,,,,,,,,,f.PNG,f,6133f1716622e58b7ba8a8ba,2021-10-19_16h39.28.393,forced_choiceRT,2021.1.2,Win32,59.97720866,,,,,,,,7,Ontime,f,1,1.99,4,2,18,0,1,,,,,
,1.4,,,,,,,,,f.PNG,f,6133f1716622e58b7ba8a8ba,2021-10-19_16h39.28.393,forced_choiceRT,2021.1.2,Win32,59.97720866,,,,,,,,7,Slow,f,1,2.137,4,3,19,0,1,,,,,
,0.7,,,,,,,,,j.PNG,j,6133f1716622e58b7ba8a8ba,2021-10-19_16h39.28.393,forced_choiceRT,2021.1.2,Win32,59.97720866,,,,,,,,7,Ontime,j,1,1.9997,5,0,20,3,1,,,,,
,1.51,,,,,,,,,f.PNG,f,6133f1716622e58b7ba8a8ba,2021-10-19_16h39.28.393,forced_choiceRT,2021.1.2,Win32,59.97720866,,,,,,,,7,Ontime,h,0,1.9331,5,1,21,0,1,,,,,
,0.76,,,,,,,,,g.PNG,g,6133f1716622e58b7ba8a8ba,2021-10-19_16h39.28.393,forced_choiceRT,2021.1.2,Win32,59.97720866,,,,,,,,7,Ontime,g,1,1.9725,5,2,22,1,1,,,,,
,1.48,,,,,,,,,h.PNG,h,6133f1716622e58b7ba8a8ba,2021-10-19_16h39.28.393,forced_choiceRT,2021.1.2,Win32,59.97720866,,,,,,,,7,Slow,g,0,2.1073,5,3,23,2,1,,,,,
,0.32,,,,,,,,,g.PNG,g,6133f1716622e58b7ba8a8ba,2021-10-19_16h39.28.393,forced_choiceRT,2021.1.2,Win32,59.97720866,,,,,,,,7,Ontime,g,1,1.9329,6,0,24,1,1,,,,,
,1.16,,,,,,,,,j.PNG,j,6133f1716622e58b7ba8a8ba,2021-10-19_16h39.28.393,forced_choiceRT,2021.1.2,Win32,59.97720866,,,,,,,,7,Slow,j,1,2.315,6,1,25,3,1,,,,,
,1.63,,,,,,,,,h.PNG,h,6133f1716622e58b7ba8a8ba,2021-10-19_16h39.28.393,forced_choiceRT,2021.1.2,Win32,59.97720866,,,,,,,,7,Fast,h,1,0.3743,6,2,26,2,1,,,,,
,0.75,,,,,,,,,f.PNG,f,6133f1716622e58b7ba8a8ba,2021-10-19_16h39.28.393,forced_choiceRT,2021.1.2,Win32,59.97720866,,,,,,,,7,Slow,f,1,3.1061,6,3,27,0,1,,,,,
,1.39,,,,,,,,,h.PNG,h,6133f1716622e58b7ba8a8ba,2021-10-19_16h39.28.393,forced_choiceRT,2021.1.2,Win32,59.97720866,,,,,,,,7,Ontime,h,1,1.9828,7,0,28,2,1,,,,,
,0.18,,,,,,,,,f.PNG,f,6133f1716622e58b7ba8a8ba,2021-10-19_16h39.28.393,forced_choiceRT,2021.1.2,Win32,59.97720866,,,,,,,,7,Ontime,f,1,1.9241,7,1,29,0,1,,,,,
,0.67,,,,,,,,,j.PNG,j,6133f1716622e58b7ba8a8ba,2021-10-19_16h39.28.393,forced_choiceRT,2021.1.2,Win32,59.97720866,,,,,,,,7,Ontime,j,1,1.9901,7,2,30,3,1,,,,,
,0.09,,,,,,,,,h.PNG,h,6133f1716622e58b7ba8a8ba,2021-10-19_16h39.28.393,forced_choiceRT,2021.1.2,Win32,59.97720866,,,,,,,,7,Ontime,h,1,1.976,7,3,31,2,1,,,,,
,1.64,,,,,,,,,j.PNG,j,6133f1716622e58b7ba8a8ba,2021-10-19_16h39.28.393,forced_choiceRT,2021.1.2,Win32,59.97720866,,,,,,,,7,Ontime,f,0,1.9219,8,0,32,3,1,,,,,
,1.9,,,,,,,,,g.PNG,g,6133f1716622e58b7ba8a8ba,2021-10-19_16h39.28.393,forced_choiceRT,2021.1.2,Win32,59.97720866,,,,,,,,7,Ontime,h,0,2.05,8,1,33,1,1,,,,,
,0.12,,,,,,,,,j.PNG,j,6133f1716622e58b7ba8a8ba,2021-10-19_16h39.28.393,forced_choiceRT,2021.1.2,Win32,59.97720866,,,,,,,,7,Fast,j,1,1.3021,8,2,34,3,1,,,,,
,0.16,,,,,,,,,j.PNG,j,6133f1716622e58b7ba8a8ba,2021-10-19_16h39.28.393,forced_choiceRT,2021.1.2,Win32,59.97720866,,,,,,,,7,Ontime,j,1,2.0496,8,3,35,3,1,,,,,
,0.6,,,,,,,,,g.PNG,g,6133f1716622e58b7ba8a8ba,2021-10-19_16h39.28.393,forced_choiceRT,2021.1.2,Win32,59.97720866,,,,,,,,7,Slow,g,1,2.758,9,0,36,1,1,,,,,
,1.91,,,,,,,,,j.PNG,j,6133f1716622e58b7ba8a8ba,2021-10-19_16h39.28.393,forced_choiceRT,2021.1.2,Win32,59.97720866,,,,,,,,7,Ontime,h,0,2.0392,9,1,37,3,1,,,,,
,1.9,,,,,,,,,f.PNG,f,6133f1716622e58b7ba8a8ba,2021-10-19_16h39.28.393,forced_choiceRT,2021.1.2,Win32,59.97720866,,,,,,,,7,Ontime,j,0,1.9337,9,2,38,0,1,,,,,
,0.47,,,,,,,,,f.PNG,f,6133f1716622e58b7ba8a8ba,2021-10-19_16h39.28.393,forced_choiceRT,2021.1.2,Win32,59.97720866,,,,,,,,7,Slow,f,1,2.1536,9,3,39,0,1,,,,,
,,,,,,,,,,,,6133f1716622e58b7ba8a8ba,2021-10-19_16h39.28.393,forced_choiceRT,2021.1.2,Win32,59.97720866,,,,,,,,,,,,,,,,,,6,0,6,0,1
,0.57,,,,,,,,,f.PNG,f,6133f1716622e58b7ba8a8ba,2021-10-19_16h39.28.393,forced_choiceRT,2021.1.2,Win32,59.97720866,,,,,,,,8,Ontime,f,1,1.923,0,0,0,0,1,,,,,
,1.89,,,,,,,,,g.PNG,g,6133f1716622e58b7ba8a8ba,2021-10-19_16h39.28.393,forced_choiceRT,2021.1.2,Win32,59.97720866,,,,,,,,8,Ontime,f,0,1.9869,0,1,1,1,1,,,,,
,1.28,,,,,,,,,j.PNG,j,6133f1716622e58b7ba8a8ba,2021-10-19_16h39.28.393,forced_choiceRT,2021.1.2,Win32,59.97720866,,,,,,,,8,Ontime,j,1,1.9395,0,2,2,3,1,,,,,
,1.51,,,,,,,,,j.PNG,j,6133f1716622e58b7ba8a8ba,2021-10-19_16h39.28.393,forced_choiceRT,2021.1.2,Win32,59.97720866,,,,,,,,8,Ontime,h,0,1.937,0,3,3,3,1,,,,,
,0.31,,,,,,,,,j.PNG,j,6133f1716622e58b7ba8a8ba,2021-10-19_16h39.28.393,forced_choiceRT,2021.1.2,Win32,59.97720866,,,,,,,,8,Fast,j,1,1.8536,1,0,4,3,1,,,,,
,1.24,,,,,,,,,g.PNG,g,6133f1716622e58b7ba8a8ba,2021-10-19_16h39.28.393,forced_choiceRT,2021.1.2,Win32,59.97720866,,,,,,,,8,Ontime,g,1,1.9393,1,1,5,1,1,,,,,
,1.18,,,,,,,,,g.PNG,g,6133f1716622e58b7ba8a8ba,2021-10-19_16h39.28.393,forced_choiceRT,2021.1.2,Win32,59.97720866,,,,,,,,8,Fast,g,1,1.8171,1,2,6,1,1,,,,,
,1.82,,,,,,,,,j.PNG,j,6133f1716622e58b7ba8a8ba,2021-10-19_16h39.28.393,forced_choiceRT,2021.1.2,Win32,59.97720866,,,,,,,,8,Ontime,h,0,1.9352,1,3,7,3,1,,,,,
,1.15,,,,,,,,,f.PNG,f,6133f1716622e58b7ba8a8ba,2021-10-19_16h39.28.393,forced_choiceRT,2021.1.2,Win32,59.97720866,,,,,,,,8,Ontime,f,1,2.0509,2,0,8,0,1,,,,,
,1.73,,,,,,,,,h.PNG,h,6133f1716622e58b7ba8a8ba,2021-10-19_16h39.28.393,forced_choiceRT,2021.1.2,Win32,59.97720866,,,,,,,,8,Ontime,j,0,2.0075,2,1,9,2,1,,,,,
,1.03,,,,,,,,,f.PNG,f,6133f1716622e58b7ba8a8ba,2021-10-19_16h39.28.393,forced_choiceRT,2021.1.2,Win32,59.97720866,,,,,,,,8,Fast,f,1,1.8392,2,2,10,0,1,,,,,
,1.37,,,,,,,,,h.PNG,h,6133f1716622e58b7ba8a8ba,2021-10-19_16h39.28.393,forced_choiceRT,2021.1.2,Win32,59.97720866,,,,,,,,8,Ontime,h,1,2.0664,2,3,11,2,1,,,,,
,1.06,,,,,,,,,j.PNG,j,6133f1716622e58b7ba8a8ba,2021-10-19_16h39.28.393,forced_choiceRT,2021.1.2,Win32,59.97720866,,,,,,,,8,Ontime,j,1,2.0164,3,0,12,3,1,,,,,
,0.28,,,,,,,,,g.PNG,g,6133f1716622e58b7ba8a8ba,2021-10-19_16h39.28.393,forced_choiceRT,2021.1.2,Win32,59.97720866,,,,,,,,8,Ontime,g,1,2.0669,3,1,13,1,1,,,,,
,1.2,,,,,,,,,h.PNG,h,6133f1716622e58b7ba8a8ba,2021-10-19_16h39.28.393,forced_choiceRT,2021.1.2,Win32,59.97720866,,,,,,,,8,Ontime,h,1,1.9831,3,2,14,2,1,,,,,
,1.02,,,,,,,,,j.PNG,j,6133f1716622e58b7ba8a8ba,2021-10-19_16h39.28.393,forced_choiceRT,2021.1.2,Win32,59.97720866,,,,,,,,8,Ontime,j,1,2.0053,3,3,15,3,1,,,,,
,1.98,,,,,,,,,g.PNG,g,6133f1716622e58b7ba8a8ba,2021-10-19_16h39.28.393,forced_choiceRT,2021.1.2,Win32,59.97720866,,,,,,,,8,Ontime,h,0,2.0595,4,0,16,1,1,,,,,
,0.44,,,,,,,,,j.PNG,j,6133f1716622e58b7ba8a8ba,2021-10-19_16h39.28.393,forced_choiceRT,2021.1.2,Win32,59.97720866,,,,,,,,8,Ontime,j,1,1.9828,4,1,17,3,1,,,,,
,0.32,,,,,,,,,j.PNG,j,6133f1716622e58b7ba8a8ba,2021-10-19_16h39.28.393,forced_choiceRT,2021.1.2,Win32,59.97720866,,,,,,,,8,Ontime,j,1,2.0422,4,2,18,3,1,,,,,
,1.89,,,,,,,,,h.PNG,h,6133f1716622e58b7ba8a8ba,2021-10-19_16h39.28.393,forced_choiceRT,2021.1.2,Win32,59.97720866,,,,,,,,8,Fast,h,1,1.835,4,3,19,2,1,,,,,
,1.64,,,,,,,,,g.PNG,g,6133f1716622e58b7ba8a8ba,2021-10-19_16h39.28.393,forced_choiceRT,2021.1.2,Win32,59.97720866,,,,,,,,8,Ontime,f,0,2.0769,5,0,20,1,1,,,,,
,1.78,,,,,,,,,f.PNG,f,6133f1716622e58b7ba8a8ba,2021-10-19_16h39.28.393,forced_choiceRT,2021.1.2,Win32,59.97720866,,,,,,,,8,Slow,h,0,2.1096,5,1,21,0,1,,,,,
,1.32,,,,,,,,,f.PNG,f,6133f1716622e58b7ba8a8ba,2021-10-19_16h39.28.393,forced_choiceRT,2021.1.2,Win32,59.97720866,,,,,,,,8,Ontime,g,0,2.0547,5,2,22,0,1,,,,,
,0.75,,,,,,,,,g.PNG,g,6133f1716622e58b7ba8a8ba,2021-10-19_16h39.28.393,forced_choiceRT,2021.1.2,Win32,59.97720866,,,,,,,,8,Ontime,g,1,1.9492,5,3,23,1,1,,,,,
,0.11,,,,,,,,,h.PNG,h,6133f1716622e58b7ba8a8ba,2021-10-19_16h39.28.393,forced_choiceRT,2021.1.2,Win32,59.97720866,,,,,,,,8,Ontime,h,1,2.0762,6,0,24,2,1,,,,,
,1.89,,,,,,,,,g.PNG,g,6133f1716622e58b7ba8a8ba,2021-10-19_16h39.28.393,forced_choiceRT,2021.1.2,Win32,59.97720866,,,,,,,,8,Ontime,f,0,2.0837,6,1,25,1,1,,,,,
,1.55,,,,,,,,,h.PNG,h,6133f1716622e58b7ba8a8ba,2021-10-19_16h39.28.393,forced_choiceRT,2021.1.2,Win32,59.97720866,,,,,,,,8,Slow,h,1,2.1844,6,2,26,2,1,,,,,
,0.1,,,,,,,,,f.PNG,f,6133f1716622e58b7ba8a8ba,2021-10-19_16h39.28.393,forced_choiceRT,2021.1.2,Win32,59.97720866,,,,,,,,8,Ontime,f,1,2.0089,6,3,27,0,1,,,,,
,1.92,,,,,,,,,f.PNG,f,6133f1716622e58b7ba8a8ba,2021-10-19_16h39.28.393,forced_choiceRT,2021.1.2,Win32,59.97720866,,,,,,,,8,Ontime,h,0,2.0366,7,0,28,0,1,,,,,
,0.51,,,,,,,,,f.PNG,f,6133f1716622e58b7ba8a8ba,2021-10-19_16h39.28.393,forced_choiceRT,2021.1.2,Win32,59.97720866,,,,,,,,8,Ontime,f,1,1.9498,7,1,29,0,1,,,,,
,1.26,,,,,,,,,f.PNG,f,6133f1716622e58b7ba8a8ba,2021-10-19_16h39.28.393,forced_choiceRT,2021.1.2,Win32,59.97720866,,,,,,,,8,Ontime,f,1,2.0753,7,2,30,0,1,,,,,
,0.4,,,,,,,,,f.PNG,f,6133f1716622e58b7ba8a8ba,2021-10-19_16h39.28.393,forced_choiceRT,2021.1.2,Win32,59.97720866,,,,,,,,8,Ontime,f,1,1.983,7,3,31,0,1,,,,,
,1.3,,,,,,,,,h.PNG,h,6133f1716622e58b7ba8a8ba,2021-10-19_16h39.28.393,forced_choiceRT,2021.1.2,Win32,59.97720866,,,,,,,,8,Ontime,h,1,1.9329,8,0,32,2,1,,,,,
,1.69,,,,,,,,,j.PNG,j,6133f1716622e58b7ba8a8ba,2021-10-19_16h39.28.393,forced_choiceRT,2021.1.2,Win32,59.97720866,,,,,,,,8,Ontime,f,0,2.009,8,1,33,3,1,,,,,
,0.04,,,,,,,,,g.PNG,g,6133f1716622e58b7ba8a8ba,2021-10-19_16h39.28.393,forced_choiceRT,2021.1.2,Win32,59.97720866,,,,,,,,8,Fast,g,1,1.849,8,2,34,1,1,,,,,
,0.43,,,,,,,,,g.PNG,g,6133f1716622e58b7ba8a8ba,2021-10-19_16h39.28.393,forced_choiceRT,2021.1.2,Win32,59.97720866,,,,,,,,8,Ontime,g,1,1.9028,8,3,35,1,1,,,,,
,1.78,,,,,,,,,h.PNG,h,6133f1716622e58b7ba8a8ba,2021-10-19_16h39.28.393,forced_choiceRT,2021.1.2,Win32,59.97720866,,,,,,,,8,Slow,h,1,2.316,9,0,36,2,1,,,,,
,0.73,,,,,,,,,h.PNG,h,6133f1716622e58b7ba8a8ba,2021-10-19_16h39.28.393,forced_choiceRT,2021.1.2,Win32,59.97720866,,,,,,,,8,Fast,h,1,1.8513,9,1,37,2,1,,,,,
,0.79,,,,,,,,,h.PNG,h,6133f1716622e58b7ba8a8ba,2021-10-19_16h39.28.393,forced_choiceRT,2021.1.2,Win32,59.97720866,,,,,,,,8,Ontime,h,1,1.9581,9,2,38,2,1,,,,,
,0.03,,,,,,,,,j.PNG,j,6133f1716622e58b7ba8a8ba,2021-10-19_16h39.28.393,forced_choiceRT,2021.1.2,Win32,59.97720866,,,,,,,,8,Ontime,j,1,2.0337,9,3,39,3,1,,,,,
,,,,,,,,,,,,6133f1716622e58b7ba8a8ba,2021-10-19_16h39.28.393,forced_choiceRT,2021.1.2,Win32,59.97720866,,,,,,,,,,,,,,,,,,7,0,7,0,1
,1.87,,,,,,,,,j.PNG,j,6133f1716622e58b7ba8a8ba,2021-10-19_16h39.28.393,forced_choiceRT,2021.1.2,Win32,59.97720866,,,,,,,,9,Ontime,j,1,2.0817,0,0,0,3,1,,,,,
,1.18,,,,,,,,,f.PNG,f,6133f1716622e58b7ba8a8ba,2021-10-19_16h39.28.393,forced_choiceRT,2021.1.2,Win32,59.97720866,,,,,,,,9,Ontime,f,1,1.9366,0,1,1,0,1,,,,,
,1.67,,,,,,,,,g.PNG,g,6133f1716622e58b7ba8a8ba,2021-10-19_16h39.28.393,forced_choiceRT,2021.1.2,Win32,59.97720866,,,,,,,,9,Fast,f,0,1.5332,0,2,2,1,1,,,,,
,0.15,,,,,,,,,j.PNG,j,6133f1716622e58b7ba8a8ba,2021-10-19_16h39.28.393,forced_choiceRT,2021.1.2,Win32,59.97720866,,,,,,,,9,Ontime,j,1,1.9736,0,3,3,3,1,,,,,
,0.61,,,,,,,,,g.PNG,g,6133f1716622e58b7ba8a8ba,2021-10-19_16h39.28.393,forced_choiceRT,2021.1.2,Win32,59.97720866,,,,,,,,9,Fast,g,1,1.75,1,0,4,1,1,,,,,
,0.11,,,,,,,,,h.PNG,h,6133f1716622e58b7ba8a8ba,2021-10-19_16h39.28.393,forced_choiceRT,2021.1.2,Win32,59.97720866,,,,,,,,9,Ontime,h,1,2.0168,1,1,5,2,1,,,,,
,0.05,,,,,,,,,g.PNG,g,6133f1716622e58b7ba8a8ba,2021-10-19_16h39.28.393,forced_choiceRT,2021.1.2,Win32,59.97720866,,,,,,,,9,Ontime,g,1,2.0412,1,2,6,1,1,,,,,
,1.56,,,,,,,,,h.PNG,h,6133f1716622e58b7ba8a8ba,2021-10-19_16h39.28.393,forced_choiceRT,2021.1.2,Win32,59.97720866,,,,,,,,9,Slow,h,1,2.1828,1,3,7,2,1,,,,,
,0.46,,,,,,,,,g.PNG,g,6133f1716622e58b7ba8a8ba,2021-10-19_16h39.28.393,forced_choiceRT,2021.1.2,Win32,59.97720866,,,,,,,,9,Ontime,g,1,2.0167,2,0,8,1,1,,,,,
,0.2,,,,,,,,,j.PNG,j,6133f1716622e58b7ba8a8ba,2021-10-19_16h39.28.393,forced_choiceRT,2021.1.2,Win32,59.97720866,,,,,,,,9,Ontime,j,1,1.9875,2,1,9,3,1,,,,,
,1.62,,,,,,,,,h.PNG,h,6133f1716622e58b7ba8a8ba,2021-10-19_16h39.28.393,forced_choiceRT,2021.1.2,Win32,59.97720866,,,,,,,,9,Ontime,j,0,2.0653,2,2,10,2,1,,,,,
,1.61,,,,,,,,,h.PNG,h,6133f1716622e58b7ba8a8ba,2021-10-19_16h39.28.393,forced_choiceRT,2021.1.2,Win32,59.97720866,,,,,,,,9,Ontime,g,0,1.9029,2,3,11,2,1,,,,,
,1.35,,,,,,,,,g.PNG,g,6133f1716622e58b7ba8a8ba,2021-10-19_16h39.28.393,forced_choiceRT,2021.1.2,Win32,59.97720866,,,,,,,,9,Slow,g,1,2.1517,3,0,12,1,1,,,,,
,0.76,,,,,,,,,f.PNG,f,6133f1716622e58b7ba8a8ba,2021-10-19_16h39.28.393,forced_choiceRT,2021.1.2,Win32,59.97720866,,,,,,,,9,Ontime,f,1,2.017,3,1,13,0,1,,,,,
,1.13,,,,,,,,,f.PNG,f,6133f1716622e58b7ba8a8ba,2021-10-19_16h39.28.393,forced_choiceRT,2021.1.2,Win32,59.97720866,,,,,,,,9,Ontime,f,1,1.9513,3,2,14,0,1,,,,,
,1.52,,,,,,,,,f.PNG,f,6133f1716622e58b7ba8a8ba,2021-10-19_16h39.28.393,forced_choiceRT,2021.1.2,Win32,59.97720866,,,,,,,,9,Slow,h,0,2.1029,3,3,15,0,1,,,,,
,1.29,,,,,,,,,f.PNG,f,6133f1716622e58b7ba8a8ba,2021-10-19_16h39.28.393,forced_choiceRT,2021.1.2,Win32,59.97720866,,,,,,,,9,Ontime,f,1,1.9668,4,0,16,0,1,,,,,
,1.8,,,,,,,,,f.PNG,f,6133f1716622e58b7ba8a8ba,2021-10-19_16h39.28.393,forced_choiceRT,2021.1.2,Win32,59.97720866,,,,,,,,9,Ontime,f,1,1.9226,4,1,17,0,1,,,,,
,0.7,,,,,,,,,f.PNG,f,6133f1716622e58b7ba8a8ba,2021-10-19_16h39.28.393,forced_choiceRT,2021.1.2,Win32,59.97720866,,,,,,,,9,Ontime,f,1,1.9874,4,2,18,0,1,,,,,
,0.76,,,,,,,,,f.PNG,f,6133f1716622e58b7ba8a8ba,2021-10-19_16h39.28.393,forced_choiceRT,2021.1.2,Win32,59.97720866,,,,,,,,9,Ontime,f,1,1.983,4,3,19,0,1,,,,,
,1.99,,,,,,,,,h.PNG,h,6133f1716622e58b7ba8a8ba,2021-10-19_16h39.28.393,forced_choiceRT,2021.1.2,Win32,59.97720866,,,,,,,,9,Ontime,f,0,2,5,0,20,2,1,,,,,
,0.51,,,,,,,,,g.PNG,g,6133f1716622e58b7ba8a8ba,2021-10-19_16h39.28.393,forced_choiceRT,2021.1.2,Win32,59.97720866,,,,,,,,9,Ontime,g,1,2.0195,5,1,21,1,1,,,,,
,1.48,,,,,,,,,h.PNG,h,6133f1716622e58b7ba8a8ba,2021-10-19_16h39.28.393,forced_choiceRT,2021.1.2,Win32,59.97720866,,,,,,,,9,Ontime,g,0,2.0998,5,2,22,2,1,,,,,
,0.9,,,,,,,,,j.PNG,j,6133f1716622e58b7ba8a8ba,2021-10-19_16h39.28.393,forced_choiceRT,2021.1.2,Win32,59.97720866,,,,,,,,9,Fast,j,1,1.85,5,3,23,3,1,,,,,
,1.4,,,,,,,,,j.PNG,j,6133f1716622e58b7ba8a8ba,2021-10-19_16h39.28.393,forced_choiceRT,2021.1.2,Win32,59.97720866,,,,,,,,9,Fast,j,1,1.8243,6,0,24,3,1,,,,,
,0.74,,,,,,,,,g.PNG,g,6133f1716622e58b7ba8a8ba,2021-10-19_16h39.28.393,forced_choiceRT,2021.1.2,Win32,59.97720866,,,,,,,,9,Fast,g,1,1.8236,6,1,25,1,1,,,,,
,0.86,,,,,,,,,j.PNG,j,6133f1716622e58b7ba8a8ba,2021-10-19_16h39.28.393,forced_choiceRT,2021.1.2,Win32,59.97720866,,,,,,,,9,Ontime,j,1,2.0236,6,2,26,3,1,,,,,
,1.89,,,,,,,,,j.PNG,j,6133f1716622e58b7ba8a8ba,2021-10-19_16h39.28.393,forced_choiceRT,2021.1.2,Win32,59.97720866,,,,,,,,9,Ontime,j,1,1.9999,6,3,27,3,1,,,,,
,0.42,,,,,,,,,j.PNG,j,6133f1716622e58b7ba8a8ba,2021-10-19_16h39.28.393,forced_choiceRT,2021.1.2,Win32,59.97720866,,,,,,,,9,Ontime,j,1,2.0179,7,0,28,3,1,,,,,
,0.51,,,,,,,,,j.PNG,j,6133f1716622e58b7ba8a8ba,2021-10-19_16h39.28.393,forced_choiceRT,2021.1.2,Win32,59.97720866,,,,,,,,9,Slow,j,1,2.1172,7,1,29,3,1,,,,,
,0.41,,,,,,,,,f.PNG,f,6133f1716622e58b7ba8a8ba,2021-10-19_16h39.28.393,forced_choiceRT,2021.1.2,Win32,59.97720866,,,,,,,,9,Ontime,f,1,1.984,7,2,30,0,1,,,,,
,0.72,,,,,,,,,j.PNG,j,6133f1716622e58b7ba8a8ba,2021-10-19_16h39.28.393,forced_choiceRT,2021.1.2,Win32,59.97720866,,,,,,,,9,Ontime,j,1,1.9503,7,3,31,3,1,,,,,
,0.06,,,,,,,,,h.PNG,h,6133f1716622e58b7ba8a8ba,2021-10-19_16h39.28.393,forced_choiceRT,2021.1.2,Win32,59.97720866,,,,,,,,9,Ontime,h,1,2.0095,8,0,32,2,1,,,,,
,1.96,,,,,,,,,g.PNG,g,6133f1716622e58b7ba8a8ba,2021-10-19_16h39.28.393,forced_choiceRT,2021.1.2,Win32,59.97720866,,,,,,,,9,Ontime,f,0,2.0494,8,1,33,1,1,,,,,
,0.34,,,,,,,,,h.PNG,h,6133f1716622e58b7ba8a8ba,2021-10-19_16h39.28.393,forced_choiceRT,2021.1.2,Win32,59.97720866,,,,,,,,9,Ontime,h,1,2.0994,8,2,34,2,1,,,,,
,0.08,,,,,,,,,h.PNG,h,6133f1716622e58b7ba8a8ba,2021-10-19_16h39.28.393,forced_choiceRT,2021.1.2,Win32,59.97720866,,,,,,,,9,Ontime,h,1,2.0669,8,3,35,2,1,,,,,
,1.29,,,,,,,,,g.PNG,g,6133f1716622e58b7ba8a8ba,2021-10-19_16h39.28.393,forced_choiceRT,2021.1.2,Win32,59.97720866,,,,,,,,9,Ontime,g,1,2.0337,9,0,36,1,1,,,,,
,1.48,,,,,,,,,f.PNG,f,6133f1716622e58b7ba8a8ba,2021-10-19_16h39.28.393,forced_choiceRT,2021.1.2,Win32,59.97720866,,,,,,,,9,Ontime,g,0,1.9822,9,1,37,0,1,,,,,
,1.01,,,,,,,,,g.PNG,g,6133f1716622e58b7ba8a8ba,2021-10-19_16h39.28.393,forced_choiceRT,2021.1.2,Win32,59.97720866,,,,,,,,9,Ontime,g,1,1.9546,9,2,38,1,1,,,,,
,1.77,,,,,,,,,h.PNG,h,6133f1716622e58b7ba8a8ba,2021-10-19_16h39.28.393,forced_choiceRT,2021.1.2,Win32,59.97720866,,,,,,,,9,Ontime,f,0,1.992,9,3,39,2,1,,,,,
,,,,,,,,,,,,6133f1716622e58b7ba8a8ba,2021-10-19_16h39.28.393,forced_choiceRT,2021.1.2,Win32,59.97720866,,,,,,,,,,,,,,,,,,8,0,8,0,1
,1.51,,,,,,,,,g.PNG,g,6133f1716622e58b7ba8a8ba,2021-10-19_16h39.28.393,forced_choiceRT,2021.1.2,Win32,59.97720866,,,,,,,,10,Slow,h,0,2.1361,0,0,0,1,1,,,,,
,0.15,,,,,,,,,g.PNG,g,6133f1716622e58b7ba8a8ba,2021-10-19_16h39.28.393,forced_choiceRT,2021.1.2,Win32,59.97720866,,,,,,,,10,Ontime,g,1,1.983,0,1,1,1,1,,,,,
,0.7,,,,,,,,,h.PNG,h,6133f1716622e58b7ba8a8ba,2021-10-19_16h39.28.393,forced_choiceRT,2021.1.2,Win32,59.97720866,,,,,,,,10,Ontime,h,1,1.9062,0,2,2,2,1,,,,,
,1.03,,,,,,,,,f.PNG,f,6133f1716622e58b7ba8a8ba,2021-10-19_16h39.28.393,forced_choiceRT,2021.1.2,Win32,59.97720866,,,,,,,,10,Ontime,f,1,2.0222,0,3,3,0,1,,,,,
,0.08,,,,,,,,,j.PNG,j,6133f1716622e58b7ba8a8ba,2021-10-19_16h39.28.393,forced_choiceRT,2021.1.2,Win32,59.97720866,,,,,,,,10,Ontime,j,1,2.0208,1,0,4,3,1,,,,,
,1,,,,,,,,,f.PNG,f,6133f1716622e58b7ba8a8ba,2021-10-19_16h39.28.393,forced_choiceRT,2021.1.2,Win32,59.97720866,,,,,,,,10,Ontime,f,1,2.0226,1,1,5,0,1,,,,,
,1.39,,,,,,,,,f.PNG,f,6133f1716622e58b7ba8a8ba,2021-10-19_16h39.28.393,forced_choiceRT,2021.1.2,Win32,59.97720866,,,,,,,,10,Ontime,f,1,1.9998,1,2,6,0,1,,,,,
,0.34,,,,,,,,,h.PNG,h,6133f1716622e58b7ba8a8ba,2021-10-19_16h39.28.393,forced_choiceRT,2021.1.2,Win32,59.97720866,,,,,,,,10,Ontime,h,1,2.0391,1,3,7,2,1,,,,,
,0.83,,,,,,,,,h.PNG,h,6133f1716622e58b7ba8a8ba,2021-10-19_16h39.28.393,forced_choiceRT,2021.1.2,Win32,59.97720866,,,,,,,,10,Ontime,h,1,1.9998,2,0,8,2,1,,,,,
,1.16,,,,,,,,,j.PNG,j,6133f1716622e58b7ba8a8ba,2021-10-19_16h39.28.393,forced_choiceRT,2021.1.2,Win32,59.97720866,,,,,,,,10,Ontime,j,1,2.0501,2,1,9,3,1,,,,,
,1.58,,,,,,,,,f.PNG,f,6133f1716622e58b7ba8a8ba,2021-10-19_16h39.28.393,forced_choiceRT,2021.1.2,Win32,59.97720866,,,,,,,,10,Ontime,f,1,1.988,2,2,10,0,1,,,,,
,0.8,,,,,,,,,j.PNG,j,6133f1716622e58b7ba8a8ba,2021-10-19_16h39.28.393,forced_choiceRT,2021.1.2,Win32,59.97720866,,,,,,,,10,Fast,j,1,1.8998,2,3,11,3,1,,,,,
,1.28,,,,,,,,,g.PNG,g,6133f1716622e58b7ba8a8ba,2021-10-19_16h39.28.393,forced_choiceRT,2021.1.2,Win32,59.97720866,,,,,,,,10,Ontime,g,1,2.0827,3,0,12,1,1,,,,,
,1.94,,,,,,,,,j.PNG,j,6133f1716622e58b7ba8a8ba,2021-10-19_16h39.28.393,forced_choiceRT,2021.1.2,Win32,59.97720866,,,,,,,,10,Ontime,f,0,2.0498,3,1,13,3,1,,,,,
,0.98,,,,,,,,,f.PNG,f,6133f1716622e58b7ba8a8ba,2021-10-19_16h39.28.393,forced_choiceRT,2021.1.2,Win32,59.97720866,,,,,,,,10,Ontime,f,1,2.0182,3,2,14,0,1,,,,,
,1.23,,,,,,,,,h.PNG,h,6133f1716622e58b7ba8a8ba,2021-10-19_16h39.28.393,forced_choiceRT,2021.1.2,Win32,59.97720866,,,,,,,,10,Ontime,h,1,1.9438,3,3,15,2,1,,,,,
,1.29,,,,,,,,,j.PNG,j,6133f1716622e58b7ba8a8ba,2021-10-19_16h39.28.393,forced_choiceRT,2021.1.2,Win32,59.97720866,,,,,,,,10,Ontime,j,1,2.0828,4,0,16,3,1,,,,,
,1.07,,,,,,,,,h.PNG,h,6133f1716622e58b7ba8a8ba,2021-10-19_16h39.28.393,forced_choiceRT,2021.1.2,Win32,59.97720866,,,,,,,,10,Slow,h,1,2.3905,4,1,17,2,1,,,,,
,0.09,,,,,,,,,h.PNG,h,6133f1716622e58b7ba8a8ba,2021-10-19_16h39.28.393,forced_choiceRT,2021.1.2,Win32,59.97720866,,,,,,,,10,Ontime,h,1,2.0497,4,2,18,2,1,,,,,
,1.04,,,,,,,,,f.PNG,f,6133f1716622e58b7ba8a8ba,2021-10-19_16h39.28.393,forced_choiceRT,2021.1.2,Win32,59.97720866,,,,,,,,10,Ontime,f,1,2.0426,4,3,19,0,1,,,,,
,0.66,,,,,,,,,h.PNG,h,6133f1716622e58b7ba8a8ba,2021-10-19_16h39.28.393,forced_choiceRT,2021.1.2,Win32,59.97720866,,,,,,,,10,Slow,h,1,2.1266,5,0,20,2,1,,,,,
,1.74,,,,,,,,,f.PNG,f,6133f1716622e58b7ba8a8ba,2021-10-19_16h39.28.393,forced_choiceRT,2021.1.2,Win32,59.97720866,,,,,,,,10,Slow,j,0,2.2533,5,1,21,0,1,,,,,
,1.61,,,,,,,,,f.PNG,f,6133f1716622e58b7ba8a8ba,2021-10-19_16h39.28.393,forced_choiceRT,2021.1.2,Win32,59.97720866,,,,,,,,10,Ontime,g,0,2.0329,5,2,22,0,1,,,,,
,0.02,,,,,,,,,h.PNG,h,6133f1716622e58b7ba8a8ba,2021-10-19_16h39.28.393,forced_choiceRT,2021.1.2,Win32,59.97720866,,,,,,,,10,Ontime,h,1,2.0496,5,3,23,2,1,,,,,
,1.74,,,,,,,,,g.PNG,g,6133f1716622e58b7ba8a8ba,2021-10-19_16h39.28.393,forced_choiceRT,2021.1.2,Win32,59.97720866,,,,,,,,10,Ontime,f,0,2.0605,6,0,24,1,1,,,,,
,0.35,,,,,,,,,g.PNG,g,6133f1716622e58b7ba8a8ba,2021-10-19_16h39.28.393,forced_choiceRT,2021.1.2,Win32,59.97720866,,,,,,,,10,Ontime,g,1,2.0044,6,1,25,1,1,,,,,
,0.84,,,,,,,,,j.PNG,j,6133f1716622e58b7ba8a8ba,2021-10-19_16h39.28.393,forced_choiceRT,2021.1.2,Win32,59.97720866,,,,,,,,10,Ontime,j,1,1.983,6,2,26,3,1,,,,,
,0.33,,,,,,,,,g.PNG,g,6133f1716622e58b7ba8a8ba,2021-10-19_16h39.28.393,forced_choiceRT,2021.1.2,Win32,59.97720866,,,,,,,,10,Ontime,g,1,1.9998,6,3,27,1,1,,,,,
,0.21,,,,,,,,,g.PNG,g,6133f1716622e58b7ba8a8ba,2021-10-19_16h39.28.393,forced_choiceRT,2021.1.2,Win32,59.97720866,,,,,,,,10,Ontime,g,1,2.0828,7,0,28,1,1,,,,,
,1.26,,,,,,,,,f.PNG,f,6133f1716622e58b7ba8a8ba,2021-10-19_16h39.28.393,forced_choiceRT,2021.1.2,Win32,59.97720866,,,,,,,,10,Slow,f,1,3.1069,7,1,29,0,1,,,,,
,1.12,,,,,,,,,h.PNG,h,6133f1716622e58b7ba8a8ba,2021-10-19_16h39.28.393,forced_choiceRT,2021.1.2,Win32,59.97720866,,,,,,,,10,Ontime,h,1,2.0041,7,2,30,2,1,,,,,
,1.56,,,,,,,,,j.PNG,j,6133f1716622e58b7ba8a8ba,2021-10-19_16h39.28.393,forced_choiceRT,2021.1.2,Win32,59.97720866,,,,,,,,10,Slow,f,0,2.1044,7,3,31,3,1,,,,,
,1.17,,,,,,,,,j.PNG,j,6133f1716622e58b7ba8a8ba,2021-10-19_16h39.28.393,forced_choiceRT,2021.1.2,Win32,59.97720866,,,,,,,,10,Fast,j,1,1.8756,8,0,32,3,1,,,,,
,1.3,,,,,,,,,f.PNG,f,6133f1716622e58b7ba8a8ba,2021-10-19_16h39.28.393,forced_choiceRT,2021.1.2,Win32,59.97720866,,,,,,,,10,Ontime,f,1,1.9328,8,1,33,0,1,,,,,
,1.79,,,,,,,,,h.PNG,h,6133f1716622e58b7ba8a8ba,2021-10-19_16h39.28.393,forced_choiceRT,2021.1.2,Win32,59.97720866,,,,,,,,10,Slow,h,1,2.3042,8,2,34,2,1,,,,,
,1.68,,,,,,,,,g.PNG,g,6133f1716622e58b7ba8a8ba,2021-10-19_16h39.28.393,forced_choiceRT,2021.1.2,Win32,59.97720866,,,,,,,,10,Slow,h,0,2.2733,8,3,35,1,1,,,,,
,0.3,,,,,,,,,g.PNG,g,6133f1716622e58b7ba8a8ba,2021-10-19_16h39.28.393,forced_choiceRT,2021.1.2,Win32,59.97720866,,,,,,,,10,Fast,g,1,1.7682,9,0,36,1,1,,,,,
,0.06,,,,,,,,,g.PNG,g,6133f1716622e58b7ba8a8ba,2021-10-19_16h39.28.393,forced_choiceRT,2021.1.2,Win32,59.97720866,,,,,,,,10,Ontime,g,1,1.9498,9,1,37,1,1,,,,,
,0.07,,,,,,,,,j.PNG,j,6133f1716622e58b7ba8a8ba,2021-10-19_16h39.28.393,forced_choiceRT,2021.1.2,Win32,59.97720866,,,,,,,,10,Ontime,j,1,2.0861,9,2,38,3,1,,,,,
,1.34,,,,,,,,,j.PNG,j,6133f1716622e58b7ba8a8ba,2021-10-19_16h39.28.393,forced_choiceRT,2021.1.2,Win32,59.97720866,,,,,,,,10,Slow,j,1,2.1162,9,3,39,3,1,,,,,
,,,,,,,,,,,,6133f1716622e58b7ba8a8ba,2021-10-19_16h39.28.393,forced_choiceRT,2021.1.2,Win32,59.97720866,,,,,,,,,,,,,,,,,,9,0,9,0,1
