IP_Addresss,target_onset,trial_resp_sp.keys,trial_resp_sp.corr,trial_resp_sp.rt,trials_train_loop.thisRepN,trials_train_loop.thisTrialN,trials_train_loop.thisN,trials_train_loop.thisIndex,trials_train_loop.ran,pic,correct_key,participant,date,expName,psychopyVersion,OS,frameRate,trial_resp_timing.keys,trial_resp_timing.rt,trials_train_timing.thisRepN,trials_train_timing.thisTrialN,trials_train_timing.thisN,trials_train_timing.thisIndex,trials_train_timing.ran,block_id,ontime,forcedRT_resp.keys,forcedRT_resp.corr,forcedRT_resp.rt,trials.thisRepN,trials.thisTrialN,trials.thisN,trials.thisIndex,trials.ran,blocks.thisRepN,blocks.thisTrialN,blocks.thisN,blocks.thisIndex,blocks.ran
47.78.242.148,0,j,1,4.017,0,0,0,3,1,j.PNG,j,613f33f2e40fd13e4220888b,2021-10-19_11h42.34.633,forced_choiceRT,2021.1.2,Win32,59.95203837,,,,,,,,,,,,,,,,,,,,,,
,0,j,1,1.817,0,1,1,3,1,j.PNG,j,613f33f2e40fd13e4220888b,2021-10-19_11h42.34.633,forced_choiceRT,2021.1.2,Win32,59.95203837,,,,,,,,,,,,,,,,,,,,,,
,0,g,1,1.884,0,2,2,1,1,g.PNG,g,613f33f2e40fd13e4220888b,2021-10-19_11h42.34.633,forced_choiceRT,2021.1.2,Win32,59.95203837,,,,,,,,,,,,,,,,,,,,,,
,0,h,1,3.049,0,3,3,2,1,h.PNG,h,613f33f2e40fd13e4220888b,2021-10-19_11h42.34.633,forced_choiceRT,2021.1.2,Win32,59.95203837,,,,,,,,,,,,,,,,,,,,,,
,0,h,1,2.6,1,0,4,2,1,h.PNG,h,613f33f2e40fd13e4220888b,2021-10-19_11h42.34.633,forced_choiceRT,2021.1.2,Win32,59.95203837,,,,,,,,,,,,,,,,,,,,,,
,0,h,1,0.968,1,1,5,2,1,h.PNG,h,613f33f2e40fd13e4220888b,2021-10-19_11h42.34.633,forced_choiceRT,2021.1.2,Win32,59.95203837,,,,,,,,,,,,,,,,,,,,,,
,0,f,1,2.135,1,2,6,0,1,f.PNG,f,613f33f2e40fd13e4220888b,2021-10-19_11h42.34.633,forced_choiceRT,2021.1.2,Win32,59.95203837,,,,,,,,,,,,,,,,,,,,,,
,0,g,1,1.619,1,3,7,1,1,g.PNG,g,613f33f2e40fd13e4220888b,2021-10-19_11h42.34.633,forced_choiceRT,2021.1.2,Win32,59.95203837,,,,,,,,,,,,,,,,,,,,,,
,0,f,1,2.984,2,0,8,0,1,f.PNG,f,613f33f2e40fd13e4220888b,2021-10-19_11h42.34.633,forced_choiceRT,2021.1.2,Win32,59.95203837,,,,,,,,,,,,,,,,,,,,,,
,0,h,1,5.053,2,1,9,2,1,h.PNG,h,613f33f2e40fd13e4220888b,2021-10-19_11h42.34.633,forced_choiceRT,2021.1.2,Win32,59.95203837,,,,,,,,,,,,,,,,,,,,,,
,0,j,1,2.015,2,2,10,3,1,j.PNG,j,613f33f2e40fd13e4220888b,2021-10-19_11h42.34.633,forced_choiceRT,2021.1.2,Win32,59.95203837,,,,,,,,,,,,,,,,,,,,,,
,0,j,1,2.503,2,3,11,3,1,j.PNG,j,613f33f2e40fd13e4220888b,2021-10-19_11h42.34.633,forced_choiceRT,2021.1.2,Win32,59.95203837,,,,,,,,,,,,,,,,,,,,,,
,0,h,1,3.32,3,0,12,2,1,h.PNG,h,613f33f2e40fd13e4220888b,2021-10-19_11h42.34.633,forced_choiceRT,2021.1.2,Win32,59.95203837,,,,,,,,,,,,,,,,,,,,,,
,0,j,1,2.066,3,1,13,3,1,j.PNG,j,613f33f2e40fd13e4220888b,2021-10-19_11h42.34.633,forced_choiceRT,2021.1.2,Win32,59.95203837,,,,,,,,,,,,,,,,,,,,,,
,0,f,1,2.167,3,2,14,0,1,f.PNG,f,613f33f2e40fd13e4220888b,2021-10-19_11h42.34.633,forced_choiceRT,2021.1.2,Win32,59.95203837,,,,,,,,,,,,,,,,,,,,,,
,0,f,1,1.835,3,3,15,0,1,f.PNG,f,613f33f2e40fd13e4220888b,2021-10-19_11h42.34.633,forced_choiceRT,2021.1.2,Win32,59.95203837,,,,,,,,,,,,,,,,,,,,,,
,0,j,1,4.02,4,0,16,3,1,j.PNG,j,613f33f2e40fd13e4220888b,2021-10-19_11h42.34.633,forced_choiceRT,2021.1.2,Win32,59.95203837,,,,,,,,,,,,,,,,,,,,,,
,0,g,1,1.833,4,1,17,1,1,g.PNG,g,613f33f2e40fd13e4220888b,2021-10-19_11h42.34.633,forced_choiceRT,2021.1.2,Win32,59.95203837,,,,,,,,,,,,,,,,,,,,,,
,0,f,1,3.601,4,2,18,0,1,f.PNG,f,613f33f2e40fd13e4220888b,2021-10-19_11h42.34.633,forced_choiceRT,2021.1.2,Win32,59.95203837,,,,,,,,,,,,,,,,,,,,,,
,0,g,1,1.602,4,3,19,1,1,g.PNG,g,613f33f2e40fd13e4220888b,2021-10-19_11h42.34.633,forced_choiceRT,2021.1.2,Win32,59.95203837,,,,,,,,,,,,,,,,,,,,,,
,0,j,1,4.487,5,0,20,3,1,j.PNG,j,613f33f2e40fd13e4220888b,2021-10-19_11h42.34.633,forced_choiceRT,2021.1.2,Win32,59.95203837,,,,,,,,,,,,,,,,,,,,,,
,0,g,1,1.701,5,1,21,1,1,g.PNG,g,613f33f2e40fd13e4220888b,2021-10-19_11h42.34.633,forced_choiceRT,2021.1.2,Win32,59.95203837,,,,,,,,,,,,,,,,,,,,,,
,0,h,1,2.851,5,2,22,2,1,h.PNG,h,613f33f2e40fd13e4220888b,2021-10-19_11h42.34.633,forced_choiceRT,2021.1.2,Win32,59.95203837,,,,,,,,,,,,,,,,,,,,,,
,0,f,1,1.882,5,3,23,0,1,f.PNG,f,613f33f2e40fd13e4220888b,2021-10-19_11h42.34.633,forced_choiceRT,2021.1.2,Win32,59.95203837,,,,,,,,,,,,,,,,,,,,,,
,0,g,1,1.697,6,0,24,1,1,g.PNG,g,613f33f2e40fd13e4220888b,2021-10-19_11h42.34.633,forced_choiceRT,2021.1.2,Win32,59.95203837,,,,,,,,,,,,,,,,,,,,,,
,0,j,1,1.902,6,1,25,3,1,j.PNG,j,613f33f2e40fd13e4220888b,2021-10-19_11h42.34.633,forced_choiceRT,2021.1.2,Win32,59.95203837,,,,,,,,,,,,,,,,,,,,,,
,0,f,1,1.987,6,2,26,0,1,f.PNG,f,613f33f2e40fd13e4220888b,2021-10-19_11h42.34.633,forced_choiceRT,2021.1.2,Win32,59.95203837,,,,,,,,,,,,,,,,,,,,,,
,0,h,1,1.65,6,3,27,2,1,h.PNG,h,613f33f2e40fd13e4220888b,2021-10-19_11h42.34.633,forced_choiceRT,2021.1.2,Win32,59.95203837,,,,,,,,,,,,,,,,,,,,,,
,0,g,1,2.919,7,0,28,1,1,g.PNG,g,613f33f2e40fd13e4220888b,2021-10-19_11h42.34.633,forced_choiceRT,2021.1.2,Win32,59.95203837,,,,,,,,,,,,,,,,,,,,,,
,0,h,1,2.001,7,1,29,2,1,h.PNG,h,613f33f2e40fd13e4220888b,2021-10-19_11h42.34.633,forced_choiceRT,2021.1.2,Win32,59.95203837,,,,,,,,,,,,,,,,,,,,,,
,0,h,1,3.221,7,2,30,2,1,h.PNG,h,613f33f2e40fd13e4220888b,2021-10-19_11h42.34.633,forced_choiceRT,2021.1.2,Win32,59.95203837,,,,,,,,,,,,,,,,,,,,,,
,0,g,1,1.621,7,3,31,1,1,g.PNG,g,613f33f2e40fd13e4220888b,2021-10-19_11h42.34.633,forced_choiceRT,2021.1.2,Win32,59.95203837,,,,,,,,,,,,,,,,,,,,,,
,0,f,1,1.987,8,0,32,0,1,f.PNG,f,613f33f2e40fd13e4220888b,2021-10-19_11h42.34.633,forced_choiceRT,2021.1.2,Win32,59.95203837,,,,,,,,,,,,,,,,,,,,,,
,0,g,1,2.069,8,1,33,1,1,g.PNG,g,613f33f2e40fd13e4220888b,2021-10-19_11h42.34.633,forced_choiceRT,2021.1.2,Win32,59.95203837,,,,,,,,,,,,,,,,,,,,,,
,0,g,1,1.467,8,2,34,1,1,g.PNG,g,613f33f2e40fd13e4220888b,2021-10-19_11h42.34.633,forced_choiceRT,2021.1.2,Win32,59.95203837,,,,,,,,,,,,,,,,,,,,,,
,0,j,1,3.768,8,3,35,3,1,j.PNG,j,613f33f2e40fd13e4220888b,2021-10-19_11h42.34.633,forced_choiceRT,2021.1.2,Win32,59.95203837,,,,,,,,,,,,,,,,,,,,,,
,0,f,1,2.322,9,0,36,0,1,f.PNG,f,613f33f2e40fd13e4220888b,2021-10-19_11h42.34.633,forced_choiceRT,2021.1.2,Win32,59.95203837,,,,,,,,,,,,,,,,,,,,,,
,0,f,1,1.769,9,1,37,0,1,f.PNG,f,613f33f2e40fd13e4220888b,2021-10-19_11h42.34.633,forced_choiceRT,2021.1.2,Win32,59.95203837,,,,,,,,,,,,,,,,,,,,,,
,0,j,1,1.754,9,2,38,3,1,j.PNG,j,613f33f2e40fd13e4220888b,2021-10-19_11h42.34.633,forced_choiceRT,2021.1.2,Win32,59.95203837,,,,,,,,,,,,,,,,,,,,,,
,0,g,1,1.732,9,3,39,1,1,g.PNG,g,613f33f2e40fd13e4220888b,2021-10-19_11h42.34.633,forced_choiceRT,2021.1.2,Win32,59.95203837,,,,,,,,,,,,,,,,,,,,,,
,0,h,0,3.588,10,0,40,0,1,f.PNG,f,613f33f2e40fd13e4220888b,2021-10-19_11h42.34.633,forced_choiceRT,2021.1.2,Win32,59.95203837,,,,,,,,,,,,,,,,,,,,,,
,0,g,1,3.021,10,1,41,1,1,g.PNG,g,613f33f2e40fd13e4220888b,2021-10-19_11h42.34.633,forced_choiceRT,2021.1.2,Win32,59.95203837,,,,,,,,,,,,,,,,,,,,,,
,0,g,1,0.801,10,2,42,1,1,g.PNG,g,613f33f2e40fd13e4220888b,2021-10-19_11h42.34.633,forced_choiceRT,2021.1.2,Win32,59.95203837,,,,,,,,,,,,,,,,,,,,,,
,0,j,1,1.801,10,3,43,3,1,j.PNG,j,613f33f2e40fd13e4220888b,2021-10-19_11h42.34.633,forced_choiceRT,2021.1.2,Win32,59.95203837,,,,,,,,,,,,,,,,,,,,,,
,0,g,1,1.602,11,0,44,1,1,g.PNG,g,613f33f2e40fd13e4220888b,2021-10-19_11h42.34.633,forced_choiceRT,2021.1.2,Win32,59.95203837,,,,,,,,,,,,,,,,,,,,,,
,0,j,0,3.103,11,1,45,0,1,f.PNG,f,613f33f2e40fd13e4220888b,2021-10-19_11h42.34.633,forced_choiceRT,2021.1.2,Win32,59.95203837,,,,,,,,,,,,,,,,,,,,,,
,0,f,1,1.585,11,2,46,0,1,f.PNG,f,613f33f2e40fd13e4220888b,2021-10-19_11h42.34.633,forced_choiceRT,2021.1.2,Win32,59.95203837,,,,,,,,,,,,,,,,,,,,,,
,0,j,1,1.589,11,3,47,3,1,j.PNG,j,613f33f2e40fd13e4220888b,2021-10-19_11h42.34.633,forced_choiceRT,2021.1.2,Win32,59.95203837,,,,,,,,,,,,,,,,,,,,,,
,0,j,1,1.047,12,0,48,3,1,j.PNG,j,613f33f2e40fd13e4220888b,2021-10-19_11h42.34.633,forced_choiceRT,2021.1.2,Win32,59.95203837,,,,,,,,,,,,,,,,,,,,,,
,0,h,1,1.897,12,1,49,2,1,h.PNG,h,613f33f2e40fd13e4220888b,2021-10-19_11h42.34.633,forced_choiceRT,2021.1.2,Win32,59.95203837,,,,,,,,,,,,,,,,,,,,,,
,0,h,1,1.117,12,2,50,2,1,h.PNG,h,613f33f2e40fd13e4220888b,2021-10-19_11h42.34.633,forced_choiceRT,2021.1.2,Win32,59.95203837,,,,,,,,,,,,,,,,,,,,,,
,0,h,1,0.782,12,3,51,2,1,h.PNG,h,613f33f2e40fd13e4220888b,2021-10-19_11h42.34.633,forced_choiceRT,2021.1.2,Win32,59.95203837,,,,,,,,,,,,,,,,,,,,,,
,0,j,1,1.716,13,0,52,3,1,j.PNG,j,613f33f2e40fd13e4220888b,2021-10-19_11h42.34.633,forced_choiceRT,2021.1.2,Win32,59.95203837,,,,,,,,,,,,,,,,,,,,,,
,0,f,1,5.136,13,1,53,0,1,f.PNG,f,613f33f2e40fd13e4220888b,2021-10-19_11h42.34.633,forced_choiceRT,2021.1.2,Win32,59.95203837,,,,,,,,,,,,,,,,,,,,,,
,0,g,1,2.973,13,2,54,1,1,g.PNG,g,613f33f2e40fd13e4220888b,2021-10-19_11h42.34.633,forced_choiceRT,2021.1.2,Win32,59.95203837,,,,,,,,,,,,,,,,,,,,,,
,0,h,1,1.204,13,3,55,2,1,h.PNG,h,613f33f2e40fd13e4220888b,2021-10-19_11h42.34.633,forced_choiceRT,2021.1.2,Win32,59.95203837,,,,,,,,,,,,,,,,,,,,,,
,0,j,1,1.098,14,0,56,3,1,j.PNG,j,613f33f2e40fd13e4220888b,2021-10-19_11h42.34.633,forced_choiceRT,2021.1.2,Win32,59.95203837,,,,,,,,,,,,,,,,,,,,,,
,0,f,1,0.969,14,1,57,0,1,f.PNG,f,613f33f2e40fd13e4220888b,2021-10-19_11h42.34.633,forced_choiceRT,2021.1.2,Win32,59.95203837,,,,,,,,,,,,,,,,,,,,,,
,0,h,1,1.439,14,2,58,2,1,h.PNG,h,613f33f2e40fd13e4220888b,2021-10-19_11h42.34.633,forced_choiceRT,2021.1.2,Win32,59.95203837,,,,,,,,,,,,,,,,,,,,,,
,0,h,1,0.751,14,3,59,2,1,h.PNG,h,613f33f2e40fd13e4220888b,2021-10-19_11h42.34.633,forced_choiceRT,2021.1.2,Win32,59.95203837,,,,,,,,,,,,,,,,,,,,,,
,,,,,,,,,,,,613f33f2e40fd13e4220888b,2021-10-19_11h42.34.633,forced_choiceRT,2021.1.2,Win32,59.95203837,f,1.704,0,0,0,0,1,,,,,,,,,,,,,,,
,,,,,,,,,,,,613f33f2e40fd13e4220888b,2021-10-19_11h42.34.633,forced_choiceRT,2021.1.2,Win32,59.95203837,f,2.355,1,0,1,0,1,,,,,,,,,,,,,,,
,,,,,,,,,,,,613f33f2e40fd13e4220888b,2021-10-19_11h42.34.633,forced_choiceRT,2021.1.2,Win32,59.95203837,f,2.064,2,0,2,0,1,,,,,,,,,,,,,,,
,,,,,,,,,,,,613f33f2e40fd13e4220888b,2021-10-19_11h42.34.633,forced_choiceRT,2021.1.2,Win32,59.95203837,g,2.136,3,0,3,0,1,,,,,,,,,,,,,,,
,,,,,,,,,,,,613f33f2e40fd13e4220888b,2021-10-19_11h42.34.633,forced_choiceRT,2021.1.2,Win32,59.95203837,g,2.02,4,0,4,0,1,,,,,,,,,,,,,,,
,,,,,,,,,,,,613f33f2e40fd13e4220888b,2021-10-19_11h42.34.633,forced_choiceRT,2021.1.2,Win32,59.95203837,h,2.12,5,0,5,0,1,,,,,,,,,,,,,,,
,,,,,,,,,,,,613f33f2e40fd13e4220888b,2021-10-19_11h42.34.633,forced_choiceRT,2021.1.2,Win32,59.95203837,j,2.053,6,0,6,0,1,,,,,,,,,,,,,,,
,,,,,,,,,,,,613f33f2e40fd13e4220888b,2021-10-19_11h42.34.633,forced_choiceRT,2021.1.2,Win32,59.95203837,f,2.039,7,0,7,0,1,,,,,,,,,,,,,,,
,,,,,,,,,,,,613f33f2e40fd13e4220888b,2021-10-19_11h42.34.633,forced_choiceRT,2021.1.2,Win32,59.95203837,g,2.022,8,0,8,0,1,,,,,,,,,,,,,,,
,,,,,,,,,,,,613f33f2e40fd13e4220888b,2021-10-19_11h42.34.633,forced_choiceRT,2021.1.2,Win32,59.95203837,h,1.97,9,0,9,0,1,,,,,,,,,,,,,,,
,,,,,,,,,,,,613f33f2e40fd13e4220888b,2021-10-19_11h42.34.633,forced_choiceRT,2021.1.2,Win32,59.95203837,j,2.037,10,0,10,0,1,,,,,,,,,,,,,,,
,,,,,,,,,,,,613f33f2e40fd13e4220888b,2021-10-19_11h42.34.633,forced_choiceRT,2021.1.2,Win32,59.95203837,f,2.001,11,0,11,0,1,,,,,,,,,,,,,,,
,,,,,,,,,,,,613f33f2e40fd13e4220888b,2021-10-19_11h42.34.633,forced_choiceRT,2021.1.2,Win32,59.95203837,g,1.991,12,0,12,0,1,,,,,,,,,,,,,,,
,,,,,,,,,,,,613f33f2e40fd13e4220888b,2021-10-19_11h42.34.633,forced_choiceRT,2021.1.2,Win32,59.95203837,h,2.07,13,0,13,0,1,,,,,,,,,,,,,,,
,,,,,,,,,,,,613f33f2e40fd13e4220888b,2021-10-19_11h42.34.633,forced_choiceRT,2021.1.2,Win32,59.95203837,j,2.019,14,0,14,0,1,,,,,,,,,,,,,,,
,,,,,,,,,,,,613f33f2e40fd13e4220888b,2021-10-19_11h42.34.633,forced_choiceRT,2021.1.2,Win32,59.95203837,f,1.971,15,0,15,0,1,,,,,,,,,,,,,,,
,,,,,,,,,,,,613f33f2e40fd13e4220888b,2021-10-19_11h42.34.633,forced_choiceRT,2021.1.2,Win32,59.95203837,g,1.919,16,0,16,0,1,,,,,,,,,,,,,,,
,,,,,,,,,,,,613f33f2e40fd13e4220888b,2021-10-19_11h42.34.633,forced_choiceRT,2021.1.2,Win32,59.95203837,h,2.02,17,0,17,0,1,,,,,,,,,,,,,,,
,,,,,,,,,,,,613f33f2e40fd13e4220888b,2021-10-19_11h42.34.633,forced_choiceRT,2021.1.2,Win32,59.95203837,j,2.039,18,0,18,0,1,,,,,,,,,,,,,,,
,,,,,,,,,,,,613f33f2e40fd13e4220888b,2021-10-19_11h42.34.633,forced_choiceRT,2021.1.2,Win32,59.95203837,f,1.719,19,0,19,0,1,,,,,,,,,,,,,,,
,0.72,,,,,,,,,h.PNG,h,613f33f2e40fd13e4220888b,2021-10-19_11h42.34.633,forced_choiceRT,2021.1.2,Win32,59.95203837,,,,,,,,1,Slow,h,1,2.11,0,0,0,2,1,,,,,
,0.01,,,,,,,,,f.PNG,f,613f33f2e40fd13e4220888b,2021-10-19_11h42.34.633,forced_choiceRT,2021.1.2,Win32,59.95203837,,,,,,,,1,Ontime,f,1,2.071,0,1,1,0,1,,,,,
,0.1,,,,,,,,,g.PNG,g,613f33f2e40fd13e4220888b,2021-10-19_11h42.34.633,forced_choiceRT,2021.1.2,Win32,59.95203837,,,,,,,,1,Ontime,g,1,1.987,0,2,2,1,1,,,,,
,1.06,,,,,,,,,j.PNG,j,613f33f2e40fd13e4220888b,2021-10-19_11h42.34.633,forced_choiceRT,2021.1.2,Win32,59.95203837,,,,,,,,1,Ontime,j,1,2.075,0,3,3,3,1,,,,,
,0.4,,,,,,,,,g.PNG,g,613f33f2e40fd13e4220888b,2021-10-19_11h42.34.633,forced_choiceRT,2021.1.2,Win32,59.95203837,,,,,,,,1,Ontime,g,1,2.054,1,0,4,1,1,,,,,
,1.81,,,,,,,,,h.PNG,h,613f33f2e40fd13e4220888b,2021-10-19_11h42.34.633,forced_choiceRT,2021.1.2,Win32,59.95203837,,,,,,,,1,Slow,h,1,2.27,1,1,5,2,1,,,,,
,1.64,,,,,,,,,j.PNG,j,613f33f2e40fd13e4220888b,2021-10-19_11h42.34.633,forced_choiceRT,2021.1.2,Win32,59.95203837,,,,,,,,1,Slow,h,0,2.251,1,2,6,3,1,,,,,
,0.12,,,,,,,,,g.PNG,g,613f33f2e40fd13e4220888b,2021-10-19_11h42.34.633,forced_choiceRT,2021.1.2,Win32,59.95203837,,,,,,,,1,Fast,g,1,1.718,1,3,7,1,1,,,,,
,1.09,,,,,,,,,h.PNG,h,613f33f2e40fd13e4220888b,2021-10-19_11h42.34.633,forced_choiceRT,2021.1.2,Win32,59.95203837,,,,,,,,1,Ontime,h,1,1.972,2,0,8,2,1,,,,,
,0.02,,,,,,,,,f.PNG,f,613f33f2e40fd13e4220888b,2021-10-19_11h42.34.633,forced_choiceRT,2021.1.2,Win32,59.95203837,,,,,,,,1,Ontime,f,1,2.052,2,1,9,0,1,,,,,
,1.61,,,,,,,,,f.PNG,f,613f33f2e40fd13e4220888b,2021-10-19_11h42.34.633,forced_choiceRT,2021.1.2,Win32,59.95203837,,,,,,,,1,Slow,f,1,2.289,2,2,10,0,1,,,,,
,0.47,,,,,,,,,f.PNG,f,613f33f2e40fd13e4220888b,2021-10-19_11h42.34.633,forced_choiceRT,2021.1.2,Win32,59.95203837,,,,,,,,1,Ontime,f,1,2.052,2,3,11,0,1,,,,,
,0.88,,,,,,,,,f.PNG,f,613f33f2e40fd13e4220888b,2021-10-19_11h42.34.633,forced_choiceRT,2021.1.2,Win32,59.95203837,,,,,,,,1,Slow,f,1,2.105,3,0,12,0,1,,,,,
,1.72,,,,,,,,,h.PNG,h,613f33f2e40fd13e4220888b,2021-10-19_11h42.34.633,forced_choiceRT,2021.1.2,Win32,59.95203837,,,,,,,,1,Slow,f,0,7.417,3,1,13,2,1,,,,,
,1.47,,,,,,,,,j.PNG,j,613f33f2e40fd13e4220888b,2021-10-19_11h42.34.633,forced_choiceRT,2021.1.2,Win32,59.95203837,,,,,,,,1,Slow,j,1,2.154,3,2,14,3,1,,,,,
,0.73,,,,,,,,,h.PNG,h,613f33f2e40fd13e4220888b,2021-10-19_11h42.34.633,forced_choiceRT,2021.1.2,Win32,59.95203837,,,,,,,,1,Ontime,h,1,2.086,3,3,15,2,1,,,,,
,0.69,,,,,,,,,h.PNG,h,613f33f2e40fd13e4220888b,2021-10-19_11h42.34.633,forced_choiceRT,2021.1.2,Win32,59.95203837,,,,,,,,1,Fast,h,1,1.685,4,0,16,2,1,,,,,
,0.31,,,,,,,,,f.PNG,f,613f33f2e40fd13e4220888b,2021-10-19_11h42.34.633,forced_choiceRT,2021.1.2,Win32,59.95203837,,,,,,,,1,Ontime,f,1,2.07,4,1,17,0,1,,,,,
,0.77,,,,,,,,,g.PNG,g,613f33f2e40fd13e4220888b,2021-10-19_11h42.34.633,forced_choiceRT,2021.1.2,Win32,59.95203837,,,,,,,,1,Fast,g,1,1.753,4,2,18,1,1,,,,,
,0.54,,,,,,,,,f.PNG,f,613f33f2e40fd13e4220888b,2021-10-19_11h42.34.633,forced_choiceRT,2021.1.2,Win32,59.95203837,,,,,,,,1,Ontime,f,1,2.036,4,3,19,0,1,,,,,
,1.23,,,,,,,,,j.PNG,j,613f33f2e40fd13e4220888b,2021-10-19_11h42.34.633,forced_choiceRT,2021.1.2,Win32,59.95203837,,,,,,,,1,Ontime,j,1,2.002,5,0,20,3,1,,,,,
,1.58,,,,,,,,,g.PNG,g,613f33f2e40fd13e4220888b,2021-10-19_11h42.34.633,forced_choiceRT,2021.1.2,Win32,59.95203837,,,,,,,,1,Ontime,h,0,2.071,5,1,21,1,1,,,,,
,0.83,,,,,,,,,h.PNG,h,613f33f2e40fd13e4220888b,2021-10-19_11h42.34.633,forced_choiceRT,2021.1.2,Win32,59.95203837,,,,,,,,1,Ontime,h,1,2,5,2,22,2,1,,,,,
,0.02,,,,,,,,,g.PNG,g,613f33f2e40fd13e4220888b,2021-10-19_11h42.34.633,forced_choiceRT,2021.1.2,Win32,59.95203837,,,,,,,,1,Fast,g,1,1.568,5,3,23,1,1,,,,,
,0.54,,,,,,,,,j.PNG,j,613f33f2e40fd13e4220888b,2021-10-19_11h42.34.633,forced_choiceRT,2021.1.2,Win32,59.95203837,,,,,,,,1,Ontime,j,1,1.987,6,0,24,3,1,,,,,
,1.21,,,,,,,,,j.PNG,j,613f33f2e40fd13e4220888b,2021-10-19_11h42.34.633,forced_choiceRT,2021.1.2,Win32,59.95203837,,,,,,,,1,Slow,j,1,2.103,6,1,25,3,1,,,,,
,1.51,,,,,,,,,f.PNG,f,613f33f2e40fd13e4220888b,2021-10-19_11h42.34.633,forced_choiceRT,2021.1.2,Win32,59.95203837,,,,,,,,1,Slow,f,1,2.224,6,2,26,0,1,,,,,
,0.8,,,,,,,,,j.PNG,j,613f33f2e40fd13e4220888b,2021-10-19_11h42.34.633,forced_choiceRT,2021.1.2,Win32,59.95203837,,,,,,,,1,Ontime,j,1,1.989,6,3,27,3,1,,,,,
,0.17,,,,,,,,,g.PNG,g,613f33f2e40fd13e4220888b,2021-10-19_11h42.34.633,forced_choiceRT,2021.1.2,Win32,59.95203837,,,,,,,,1,Fast,g,1,1.604,7,0,28,1,1,,,,,
,0.14,,,,,,,,,h.PNG,h,613f33f2e40fd13e4220888b,2021-10-19_11h42.34.633,forced_choiceRT,2021.1.2,Win32,59.95203837,,,,,,,,1,Ontime,h,1,1.953,7,1,29,2,1,,,,,
,0.27,,,,,,,,,h.PNG,h,613f33f2e40fd13e4220888b,2021-10-19_11h42.34.633,forced_choiceRT,2021.1.2,Win32,59.95203837,,,,,,,,1,Fast,h,1,1.572,7,2,30,2,1,,,,,
,0.17,,,,,,,,,g.PNG,g,613f33f2e40fd13e4220888b,2021-10-19_11h42.34.633,forced_choiceRT,2021.1.2,Win32,59.95203837,,,,,,,,1,Fast,g,1,1.589,7,3,31,1,1,,,,,
,0.05,,,,,,,,,j.PNG,j,613f33f2e40fd13e4220888b,2021-10-19_11h42.34.633,forced_choiceRT,2021.1.2,Win32,59.95203837,,,,,,,,1,Slow,j,1,2.1,8,0,32,3,1,,,,,
,0.36,,,,,,,,,h.PNG,h,613f33f2e40fd13e4220888b,2021-10-19_11h42.34.633,forced_choiceRT,2021.1.2,Win32,59.95203837,,,,,,,,1,Ontime,h,1,2.02,8,1,33,2,1,,,,,
,0.37,,,,,,,,,f.PNG,f,613f33f2e40fd13e4220888b,2021-10-19_11h42.34.633,forced_choiceRT,2021.1.2,Win32,59.95203837,,,,,,,,1,Ontime,f,1,2.068,8,2,34,0,1,,,,,
,0.77,,,,,,,,,j.PNG,j,613f33f2e40fd13e4220888b,2021-10-19_11h42.34.633,forced_choiceRT,2021.1.2,Win32,59.95203837,,,,,,,,1,Fast,j,1,1.871,8,3,35,3,1,,,,,
,1.16,,,,,,,,,j.PNG,j,613f33f2e40fd13e4220888b,2021-10-19_11h42.34.633,forced_choiceRT,2021.1.2,Win32,59.95203837,,,,,,,,1,Ontime,j,1,1.921,9,0,36,3,1,,,,,
,1.99,,,,,,,,,g.PNG,g,613f33f2e40fd13e4220888b,2021-10-19_11h42.34.633,forced_choiceRT,2021.1.2,Win32,59.95203837,,,,,,,,1,Ontime,j,0,2.068,9,1,37,1,1,,,,,
,0.29,,,,,,,,,g.PNG,g,613f33f2e40fd13e4220888b,2021-10-19_11h42.34.633,forced_choiceRT,2021.1.2,Win32,59.95203837,,,,,,,,1,Fast,g,1,1.619,9,2,38,1,1,,,,,
,0.54,,,,,,,,,f.PNG,f,613f33f2e40fd13e4220888b,2021-10-19_11h42.34.633,forced_choiceRT,2021.1.2,Win32,59.95203837,,,,,,,,1,Ontime,f,1,2.006,9,3,39,0,1,,,,,
,,,,,,,,,,,,613f33f2e40fd13e4220888b,2021-10-19_11h42.34.633,forced_choiceRT,2021.1.2,Win32,59.95203837,,,,,,,,,,,,,,,,,,0,0,0,0,1
,0.93,,,,,,,,,g.PNG,g,613f33f2e40fd13e4220888b,2021-10-19_11h42.34.633,forced_choiceRT,2021.1.2,Win32,59.95203837,,,,,,,,2,Fast,g,1,1.822,0,0,0,1,1,,,,,
,0.53,,,,,,,,,g.PNG,g,613f33f2e40fd13e4220888b,2021-10-19_11h42.34.633,forced_choiceRT,2021.1.2,Win32,59.95203837,,,,,,,,2,Slow,g,1,2.102,0,1,1,1,1,,,,,
,0.93,,,,,,,,,h.PNG,h,613f33f2e40fd13e4220888b,2021-10-19_11h42.34.633,forced_choiceRT,2021.1.2,Win32,59.95203837,,,,,,,,2,Ontime,h,1,1.986,0,2,2,2,1,,,,,
,1.7,,,,,,,,,h.PNG,h,613f33f2e40fd13e4220888b,2021-10-19_11h42.34.633,forced_choiceRT,2021.1.2,Win32,59.95203837,,,,,,,,2,Ontime,j,0,1.986,0,3,3,2,1,,,,,
,1.86,,,,,,,,,h.PNG,h,613f33f2e40fd13e4220888b,2021-10-19_11h42.34.633,forced_choiceRT,2021.1.2,Win32,59.95203837,,,,,,,,2,Ontime,j,0,2.002,1,0,4,2,1,,,,,
,0.47,,,,,,,,,j.PNG,j,613f33f2e40fd13e4220888b,2021-10-19_11h42.34.633,forced_choiceRT,2021.1.2,Win32,59.95203837,,,,,,,,2,Ontime,j,1,1.901,1,1,5,3,1,,,,,
,0.35,,,,,,,,,j.PNG,j,613f33f2e40fd13e4220888b,2021-10-19_11h42.34.633,forced_choiceRT,2021.1.2,Win32,59.95203837,,,,,,,,2,Ontime,j,1,2.057,1,2,6,3,1,,,,,
,0.29,,,,,,,,,g.PNG,g,613f33f2e40fd13e4220888b,2021-10-19_11h42.34.633,forced_choiceRT,2021.1.2,Win32,59.95203837,,,,,,,,2,Ontime,g,1,2.055,1,3,7,1,1,,,,,
,0.86,,,,,,,,,g.PNG,g,613f33f2e40fd13e4220888b,2021-10-19_11h42.34.633,forced_choiceRT,2021.1.2,Win32,59.95203837,,,,,,,,2,Ontime,f,0,1.952,2,0,8,1,1,,,,,
,1.76,,,,,,,,,j.PNG,j,613f33f2e40fd13e4220888b,2021-10-19_11h42.34.633,forced_choiceRT,2021.1.2,Win32,59.95203837,,,,,,,,2,Ontime,j,1,2.073,2,1,9,3,1,,,,,
,0.09,,,,,,,,,f.PNG,f,613f33f2e40fd13e4220888b,2021-10-19_11h42.34.633,forced_choiceRT,2021.1.2,Win32,59.95203837,,,,,,,,2,Ontime,f,1,2.003,2,2,10,0,1,,,,,
,1.75,,,,,,,,,j.PNG,j,613f33f2e40fd13e4220888b,2021-10-19_11h42.34.633,forced_choiceRT,2021.1.2,Win32,59.95203837,,,,,,,,2,Slow,h,0,2.133,2,3,11,3,1,,,,,
,1.13,,,,,,,,,g.PNG,g,613f33f2e40fd13e4220888b,2021-10-19_11h42.34.633,forced_choiceRT,2021.1.2,Win32,59.95203837,,,,,,,,2,Ontime,g,1,2.036,3,0,12,1,1,,,,,
,1.15,,,,,,,,,h.PNG,h,613f33f2e40fd13e4220888b,2021-10-19_11h42.34.633,forced_choiceRT,2021.1.2,Win32,59.95203837,,,,,,,,2,Ontime,h,1,2.074,3,1,13,2,1,,,,,
,1.79,,,,,,,,,g.PNG,g,613f33f2e40fd13e4220888b,2021-10-19_11h42.34.633,forced_choiceRT,2021.1.2,Win32,59.95203837,,,,,,,,2,Slow,g,1,2.435,3,2,14,1,1,,,,,
,0.2,,,,,,,,,h.PNG,h,613f33f2e40fd13e4220888b,2021-10-19_11h42.34.633,forced_choiceRT,2021.1.2,Win32,59.95203837,,,,,,,,2,Ontime,h,1,1.954,3,3,15,2,1,,,,,
,0.9,,,,,,,,,f.PNG,f,613f33f2e40fd13e4220888b,2021-10-19_11h42.34.633,forced_choiceRT,2021.1.2,Win32,59.95203837,,,,,,,,2,Fast,f,1,1.838,4,0,16,0,1,,,,,
,1.09,,,,,,,,,h.PNG,h,613f33f2e40fd13e4220888b,2021-10-19_11h42.34.633,forced_choiceRT,2021.1.2,Win32,59.95203837,,,,,,,,2,Ontime,h,1,2.086,4,1,17,2,1,,,,,
,1.43,,,,,,,,,f.PNG,f,613f33f2e40fd13e4220888b,2021-10-19_11h42.34.633,forced_choiceRT,2021.1.2,Win32,59.95203837,,,,,,,,2,Ontime,f,1,2.037,4,2,18,0,1,,,,,
,0.79,,,,,,,,,g.PNG,g,613f33f2e40fd13e4220888b,2021-10-19_11h42.34.633,forced_choiceRT,2021.1.2,Win32,59.95203837,,,,,,,,2,Fast,g,1,1.784,4,3,19,1,1,,,,,
,1.03,,,,,,,,,f.PNG,f,613f33f2e40fd13e4220888b,2021-10-19_11h42.34.633,forced_choiceRT,2021.1.2,Win32,59.95203837,,,,,,,,2,Ontime,f,1,2.072,5,0,20,0,1,,,,,
,0.27,,,,,,,,,f.PNG,f,613f33f2e40fd13e4220888b,2021-10-19_11h42.34.633,forced_choiceRT,2021.1.2,Win32,59.95203837,,,,,,,,2,Ontime,f,1,1.985,5,1,21,0,1,,,,,
,0.27,,,,,,,,,j.PNG,j,613f33f2e40fd13e4220888b,2021-10-19_11h42.34.633,forced_choiceRT,2021.1.2,Win32,59.95203837,,,,,,,,2,Ontime,j,1,2.003,5,2,22,3,1,,,,,
,1.85,,,,,,,,,g.PNG,g,613f33f2e40fd13e4220888b,2021-10-19_11h42.34.633,forced_choiceRT,2021.1.2,Win32,59.95203837,,,,,,,,2,Slow,f,0,2.252,5,3,23,1,1,,,,,
,0.17,,,,,,,,,h.PNG,h,613f33f2e40fd13e4220888b,2021-10-19_11h42.34.633,forced_choiceRT,2021.1.2,Win32,59.95203837,,,,,,,,2,Ontime,h,1,1.974,6,0,24,2,1,,,,,
,0.95,,,,,,,,,j.PNG,j,613f33f2e40fd13e4220888b,2021-10-19_11h42.34.633,forced_choiceRT,2021.1.2,Win32,59.95203837,,,,,,,,2,Ontime,j,1,1.933,6,1,25,3,1,,,,,
,1.49,,,,,,,,,j.PNG,j,613f33f2e40fd13e4220888b,2021-10-19_11h42.34.633,forced_choiceRT,2021.1.2,Win32,59.95203837,,,,,,,,2,Fast,h,0,1.819,6,2,26,3,1,,,,,
,1.94,,,,,,,,,f.PNG,f,613f33f2e40fd13e4220888b,2021-10-19_11h42.34.633,forced_choiceRT,2021.1.2,Win32,59.95203837,,,,,,,,2,Slow,j,0,2.304,6,3,27,0,1,,,,,
,1.88,,,,,,,,,f.PNG,f,613f33f2e40fd13e4220888b,2021-10-19_11h42.34.633,forced_choiceRT,2021.1.2,Win32,59.95203837,,,,,,,,2,Slow,j,0,2.134,7,0,28,0,1,,,,,
,0.97,,,,,,,,,h.PNG,h,613f33f2e40fd13e4220888b,2021-10-19_11h42.34.633,forced_choiceRT,2021.1.2,Win32,59.95203837,,,,,,,,2,Ontime,h,1,1.985,7,1,29,2,1,,,,,
,1.71,,,,,,,,,g.PNG,g,613f33f2e40fd13e4220888b,2021-10-19_11h42.34.633,forced_choiceRT,2021.1.2,Win32,59.95203837,,,,,,,,2,Slow,h,0,2.223,7,2,30,1,1,,,,,
,1.42,,,,,,,,,f.PNG,f,613f33f2e40fd13e4220888b,2021-10-19_11h42.34.633,forced_choiceRT,2021.1.2,Win32,59.95203837,,,,,,,,2,Ontime,h,0,2.052,7,3,31,0,1,,,,,
,0.31,,,,,,,,,j.PNG,j,613f33f2e40fd13e4220888b,2021-10-19_11h42.34.633,forced_choiceRT,2021.1.2,Win32,59.95203837,,,,,,,,2,Ontime,j,1,1.955,8,0,32,3,1,,,,,
,0.71,,,,,,,,,h.PNG,h,613f33f2e40fd13e4220888b,2021-10-19_11h42.34.633,forced_choiceRT,2021.1.2,Win32,59.95203837,,,,,,,,2,Ontime,h,1,1.901,8,1,33,2,1,,,,,
,1.42,,,,,,,,,j.PNG,j,613f33f2e40fd13e4220888b,2021-10-19_11h42.34.633,forced_choiceRT,2021.1.2,Win32,59.95203837,,,,,,,,2,Ontime,h,0,2.006,8,2,34,3,1,,,,,
,0.56,,,,,,,,,f.PNG,f,613f33f2e40fd13e4220888b,2021-10-19_11h42.34.633,forced_choiceRT,2021.1.2,Win32,59.95203837,,,,,,,,2,Ontime,f,1,1.936,8,3,35,0,1,,,,,
,1.75,,,,,,,,,f.PNG,f,613f33f2e40fd13e4220888b,2021-10-19_11h42.34.633,forced_choiceRT,2021.1.2,Win32,59.95203837,,,,,,,,2,Slow,h,0,2.268,9,0,36,0,1,,,,,
,0.81,,,,,,,,,h.PNG,h,613f33f2e40fd13e4220888b,2021-10-19_11h42.34.633,forced_choiceRT,2021.1.2,Win32,59.95203837,,,,,,,,2,Ontime,h,1,1.918,9,1,37,2,1,,,,,
,1.6,,,,,,,,,j.PNG,j,613f33f2e40fd13e4220888b,2021-10-19_11h42.34.633,forced_choiceRT,2021.1.2,Win32,59.95203837,,,,,,,,2,Ontime,j,1,1.988,9,2,38,3,1,,,,,
,1.08,,,,,,,,,g.PNG,g,613f33f2e40fd13e4220888b,2021-10-19_11h42.34.633,forced_choiceRT,2021.1.2,Win32,59.95203837,,,,,,,,2,Fast,h,0,1.85,9,3,39,1,1,,,,,
,,,,,,,,,,,,613f33f2e40fd13e4220888b,2021-10-19_11h42.34.633,forced_choiceRT,2021.1.2,Win32,59.95203837,,,,,,,,,,,,,,,,,,1,0,1,0,1
,0.71,,,,,,,,,j.PNG,j,613f33f2e40fd13e4220888b,2021-10-19_11h42.34.633,forced_choiceRT,2021.1.2,Win32,59.95203837,,,,,,,,3,Fast,j,1,1.882,0,0,0,3,1,,,,,
,0.91,,,,,,,,,h.PNG,h,613f33f2e40fd13e4220888b,2021-10-19_11h42.34.633,forced_choiceRT,2021.1.2,Win32,59.95203837,,,,,,,,3,Ontime,h,1,1.991,0,1,1,2,1,,,,,
,0.49,,,,,,,,,f.PNG,f,613f33f2e40fd13e4220888b,2021-10-19_11h42.34.633,forced_choiceRT,2021.1.2,Win32,59.95203837,,,,,,,,3,Ontime,f,1,1.987,0,2,2,0,1,,,,,
,1.05,,,,,,,,,g.PNG,g,613f33f2e40fd13e4220888b,2021-10-19_11h42.34.633,forced_choiceRT,2021.1.2,Win32,59.95203837,,,,,,,,3,Fast,g,1,1.852,0,3,3,1,1,,,,,
,0.98,,,,,,,,,j.PNG,j,613f33f2e40fd13e4220888b,2021-10-19_11h42.34.633,forced_choiceRT,2021.1.2,Win32,59.95203837,,,,,,,,3,Fast,j,1,1.885,1,0,4,3,1,,,,,
,1.55,,,,,,,,,f.PNG,f,613f33f2e40fd13e4220888b,2021-10-19_11h42.34.633,forced_choiceRT,2021.1.2,Win32,59.95203837,,,,,,,,3,Ontime,j,0,1.97,1,1,5,0,1,,,,,
,0.66,,,,,,,,,h.PNG,h,613f33f2e40fd13e4220888b,2021-10-19_11h42.34.633,forced_choiceRT,2021.1.2,Win32,59.95203837,,,,,,,,3,Fast,h,1,1.891,1,2,6,2,1,,,,,
,0.6,,,,,,,,,g.PNG,g,613f33f2e40fd13e4220888b,2021-10-19_11h42.34.633,forced_choiceRT,2021.1.2,Win32,59.95203837,,,,,,,,3,Ontime,g,1,1.967,1,3,7,1,1,,,,,
,1.57,,,,,,,,,f.PNG,f,613f33f2e40fd13e4220888b,2021-10-19_11h42.34.633,forced_choiceRT,2021.1.2,Win32,59.95203837,,,,,,,,3,Slow,f,1,2.153,2,0,8,0,1,,,,,
,1.88,,,,,,,,,j.PNG,j,613f33f2e40fd13e4220888b,2021-10-19_11h42.34.633,forced_choiceRT,2021.1.2,Win32,59.95203837,,,,,,,,3,Slow,j,1,2.103,2,1,9,3,1,,,,,
,1.23,,,,,,,,,h.PNG,h,613f33f2e40fd13e4220888b,2021-10-19_11h42.34.633,forced_choiceRT,2021.1.2,Win32,59.95203837,,,,,,,,3,Fast,h,1,1.869,2,2,10,2,1,,,,,
,0.18,,,,,,,,,f.PNG,f,613f33f2e40fd13e4220888b,2021-10-19_11h42.34.633,forced_choiceRT,2021.1.2,Win32,59.95203837,,,,,,,,3,Fast,f,1,1.821,2,3,11,0,1,,,,,
,1.15,,,,,,,,,f.PNG,f,613f33f2e40fd13e4220888b,2021-10-19_11h42.34.633,forced_choiceRT,2021.1.2,Win32,59.95203837,,,,,,,,3,Ontime,f,1,2.052,3,0,12,0,1,,,,,
,1.84,,,,,,,,,j.PNG,j,613f33f2e40fd13e4220888b,2021-10-19_11h42.34.633,forced_choiceRT,2021.1.2,Win32,59.95203837,,,,,,,,3,Slow,f,0,2.32,3,1,13,3,1,,,,,
,1.59,,,,,,,,,h.PNG,h,613f33f2e40fd13e4220888b,2021-10-19_11h42.34.633,forced_choiceRT,2021.1.2,Win32,59.95203837,,,,,,,,3,Slow,j,0,2.367,3,2,14,2,1,,,,,
,0.57,,,,,,,,,g.PNG,g,613f33f2e40fd13e4220888b,2021-10-19_11h42.34.633,forced_choiceRT,2021.1.2,Win32,59.95203837,,,,,,,,3,Slow,g,1,2.101,3,3,15,1,1,,,,,
,1.12,,,,,,,,,f.PNG,f,613f33f2e40fd13e4220888b,2021-10-19_11h42.34.633,forced_choiceRT,2021.1.2,Win32,59.95203837,,,,,,,,3,Ontime,f,1,2.089,4,0,16,0,1,,,,,
,1.66,,,,,,,,,f.PNG,f,613f33f2e40fd13e4220888b,2021-10-19_11h42.34.633,forced_choiceRT,2021.1.2,Win32,59.95203837,,,,,,,,3,Slow,f,1,2.272,4,1,17,0,1,,,,,
,1.69,,,,,,,,,g.PNG,g,613f33f2e40fd13e4220888b,2021-10-19_11h42.34.633,forced_choiceRT,2021.1.2,Win32,59.95203837,,,,,,,,3,Slow,f,0,2.137,4,2,18,1,1,,,,,
,1.72,,,,,,,,,j.PNG,j,613f33f2e40fd13e4220888b,2021-10-19_11h42.34.633,forced_choiceRT,2021.1.2,Win32,59.95203837,,,,,,,,3,Slow,j,1,2.134,4,3,19,3,1,,,,,
,1.32,,,,,,,,,j.PNG,j,613f33f2e40fd13e4220888b,2021-10-19_11h42.34.633,forced_choiceRT,2021.1.2,Win32,59.95203837,,,,,,,,3,Ontime,j,1,2.004,5,0,20,3,1,,,,,
,0.18,,,,,,,,,g.PNG,g,613f33f2e40fd13e4220888b,2021-10-19_11h42.34.633,forced_choiceRT,2021.1.2,Win32,59.95203837,,,,,,,,3,Fast,g,1,1.859,5,1,21,1,1,,,,,
,1.17,,,,,,,,,j.PNG,j,613f33f2e40fd13e4220888b,2021-10-19_11h42.34.633,forced_choiceRT,2021.1.2,Win32,59.95203837,,,,,,,,3,Ontime,j,1,2.088,5,2,22,3,1,,,,,
,1.9,,,,,,,,,h.PNG,h,613f33f2e40fd13e4220888b,2021-10-19_11h42.34.633,forced_choiceRT,2021.1.2,Win32,59.95203837,,,,,,,,3,Slow,f,0,2.152,5,3,23,2,1,,,,,
,0.85,,,,,,,,,j.PNG,j,613f33f2e40fd13e4220888b,2021-10-19_11h42.34.633,forced_choiceRT,2021.1.2,Win32,59.95203837,,,,,,,,3,Ontime,j,1,1.921,6,0,24,3,1,,,,,
,1.34,,,,,,,,,g.PNG,g,613f33f2e40fd13e4220888b,2021-10-19_11h42.34.633,forced_choiceRT,2021.1.2,Win32,59.95203837,,,,,,,,3,Ontime,h,0,2.02,6,1,25,1,1,,,,,
,1.2,,,,,,,,,g.PNG,g,613f33f2e40fd13e4220888b,2021-10-19_11h42.34.633,forced_choiceRT,2021.1.2,Win32,59.95203837,,,,,,,,3,Ontime,f,0,2.019,6,2,26,1,1,,,,,
,1.44,,,,,,,,,h.PNG,h,613f33f2e40fd13e4220888b,2021-10-19_11h42.34.633,forced_choiceRT,2021.1.2,Win32,59.95203837,,,,,,,,3,Slow,h,1,2.103,6,3,27,2,1,,,,,
,0.29,,,,,,,,,f.PNG,f,613f33f2e40fd13e4220888b,2021-10-19_11h42.34.633,forced_choiceRT,2021.1.2,Win32,59.95203837,,,,,,,,3,Ontime,f,1,1.938,7,0,28,0,1,,,,,
,0.55,,,,,,,,,j.PNG,j,613f33f2e40fd13e4220888b,2021-10-19_11h42.34.633,forced_choiceRT,2021.1.2,Win32,59.95203837,,,,,,,,3,Ontime,j,1,1.971,7,1,29,3,1,,,,,
,1.83,,,,,,,,,g.PNG,g,613f33f2e40fd13e4220888b,2021-10-19_11h42.34.633,forced_choiceRT,2021.1.2,Win32,59.95203837,,,,,,,,3,Slow,j,0,2.168,7,2,30,1,1,,,,,
,0.97,,,,,,,,,g.PNG,g,613f33f2e40fd13e4220888b,2021-10-19_11h42.34.633,forced_choiceRT,2021.1.2,Win32,59.95203837,,,,,,,,3,Fast,g,1,1.872,7,3,31,1,1,,,,,
,1.28,,,,,,,,,j.PNG,j,613f33f2e40fd13e4220888b,2021-10-19_11h42.34.633,forced_choiceRT,2021.1.2,Win32,59.95203837,,,,,,,,3,Ontime,j,1,1.987,8,0,32,3,1,,,,,
,1.94,,,,,,,,,h.PNG,h,613f33f2e40fd13e4220888b,2021-10-19_11h42.34.633,forced_choiceRT,2021.1.2,Win32,59.95203837,,,,,,,,3,Slow,j,0,2.185,8,1,33,2,1,,,,,
,1.77,,,,,,,,,f.PNG,f,613f33f2e40fd13e4220888b,2021-10-19_11h42.34.633,forced_choiceRT,2021.1.2,Win32,59.95203837,,,,,,,,3,Slow,j,0,2.153,8,2,34,0,1,,,,,
,1.14,,,,,,,,,h.PNG,h,613f33f2e40fd13e4220888b,2021-10-19_11h42.34.633,forced_choiceRT,2021.1.2,Win32,59.95203837,,,,,,,,3,Fast,g,0,1.885,8,3,35,2,1,,,,,
,1.3,,,,,,,,,f.PNG,f,613f33f2e40fd13e4220888b,2021-10-19_11h42.34.633,forced_choiceRT,2021.1.2,Win32,59.95203837,,,,,,,,3,Ontime,f,1,1.986,9,0,36,0,1,,,,,
,1.35,,,,,,,,,g.PNG,g,613f33f2e40fd13e4220888b,2021-10-19_11h42.34.633,forced_choiceRT,2021.1.2,Win32,59.95203837,,,,,,,,3,Ontime,h,0,2.069,9,1,37,1,1,,,,,
,1.56,,,,,,,,,h.PNG,h,613f33f2e40fd13e4220888b,2021-10-19_11h42.34.633,forced_choiceRT,2021.1.2,Win32,59.95203837,,,,,,,,3,Slow,j,0,2.14,9,2,38,2,1,,,,,
,1.15,,,,,,,,,h.PNG,h,613f33f2e40fd13e4220888b,2021-10-19_11h42.34.633,forced_choiceRT,2021.1.2,Win32,59.95203837,,,,,,,,3,Fast,h,1,1.871,9,3,39,2,1,,,,,
,,,,,,,,,,,,613f33f2e40fd13e4220888b,2021-10-19_11h42.34.633,forced_choiceRT,2021.1.2,Win32,59.95203837,,,,,,,,,,,,,,,,,,2,0,2,0,1
,1.13,,,,,,,,,f.PNG,f,613f33f2e40fd13e4220888b,2021-10-19_11h42.34.633,forced_choiceRT,2021.1.2,Win32,59.95203837,,,,,,,,4,Fast,f,1,1.741,0,0,0,0,1,,,,,
,1.72,,,,,,,,,j.PNG,j,613f33f2e40fd13e4220888b,2021-10-19_11h42.34.633,forced_choiceRT,2021.1.2,Win32,59.95203837,,,,,,,,4,Slow,j,1,2.169,0,1,1,3,1,,,,,
,0.74,,,,,,,,,j.PNG,j,613f33f2e40fd13e4220888b,2021-10-19_11h42.34.633,forced_choiceRT,2021.1.2,Win32,59.95203837,,,,,,,,4,Ontime,j,1,1.97,0,2,2,3,1,,,,,
,0.32,,,,,,,,,h.PNG,h,613f33f2e40fd13e4220888b,2021-10-19_11h42.34.633,forced_choiceRT,2021.1.2,Win32,59.95203837,,,,,,,,4,Ontime,h,1,2.001,0,3,3,2,1,,,,,
,0.43,,,,,,,,,h.PNG,h,613f33f2e40fd13e4220888b,2021-10-19_11h42.34.633,forced_choiceRT,2021.1.2,Win32,59.95203837,,,,,,,,4,Ontime,h,1,2.016,1,0,4,2,1,,,,,
,0.25,,,,,,,,,j.PNG,j,613f33f2e40fd13e4220888b,2021-10-19_11h42.34.633,forced_choiceRT,2021.1.2,Win32,59.95203837,,,,,,,,4,Ontime,j,1,1.938,1,1,5,3,1,,,,,
,1.15,,,,,,,,,g.PNG,g,613f33f2e40fd13e4220888b,2021-10-19_11h42.34.633,forced_choiceRT,2021.1.2,Win32,59.95203837,,,,,,,,4,Ontime,g,1,1.972,1,2,6,1,1,,,,,
,1.91,,,,,,,,,f.PNG,f,613f33f2e40fd13e4220888b,2021-10-19_11h42.34.633,forced_choiceRT,2021.1.2,Win32,59.95203837,,,,,,,,4,Slow,j,0,2.286,1,3,7,0,1,,,,,
,0.71,,,,,,,,,j.PNG,j,613f33f2e40fd13e4220888b,2021-10-19_11h42.34.633,forced_choiceRT,2021.1.2,Win32,59.95203837,,,,,,,,4,Ontime,j,1,2.002,2,0,8,3,1,,,,,
,1.57,,,,,,,,,f.PNG,f,613f33f2e40fd13e4220888b,2021-10-19_11h42.34.633,forced_choiceRT,2021.1.2,Win32,59.95203837,,,,,,,,4,Ontime,j,0,1.99,2,1,9,0,1,,,,,
,0.57,,,,,,,,,j.PNG,j,613f33f2e40fd13e4220888b,2021-10-19_11h42.34.633,forced_choiceRT,2021.1.2,Win32,59.95203837,,,,,,,,4,Ontime,j,1,1.99,2,2,10,3,1,,,,,
,1.22,,,,,,,,,h.PNG,h,613f33f2e40fd13e4220888b,2021-10-19_11h42.34.633,forced_choiceRT,2021.1.2,Win32,59.95203837,,,,,,,,4,Ontime,h,1,1.924,2,3,11,2,1,,,,,
,1.24,,,,,,,,,h.PNG,h,613f33f2e40fd13e4220888b,2021-10-19_11h42.34.633,forced_choiceRT,2021.1.2,Win32,59.95203837,,,,,,,,4,Ontime,h,1,2.007,3,0,12,2,1,,,,,
,0.15,,,,,,,,,j.PNG,j,613f33f2e40fd13e4220888b,2021-10-19_11h42.34.633,forced_choiceRT,2021.1.2,Win32,59.95203837,,,,,,,,4,Ontime,j,1,2.019,3,1,13,3,1,,,,,
,1.38,,,,,,,,,h.PNG,h,613f33f2e40fd13e4220888b,2021-10-19_11h42.34.633,forced_choiceRT,2021.1.2,Win32,59.95203837,,,,,,,,4,Ontime,h,1,2.02,3,2,14,2,1,,,,,
,1.48,,,,,,,,,g.PNG,g,613f33f2e40fd13e4220888b,2021-10-19_11h42.34.633,forced_choiceRT,2021.1.2,Win32,59.95203837,,,,,,,,4,Slow,f,0,2.219,3,3,15,1,1,,,,,
,1.42,,,,,,,,,g.PNG,g,613f33f2e40fd13e4220888b,2021-10-19_11h42.34.633,forced_choiceRT,2021.1.2,Win32,59.95203837,,,,,,,,4,Ontime,g,1,2.071,4,0,16,1,1,,,,,
,1,,,,,,,,,g.PNG,g,613f33f2e40fd13e4220888b,2021-10-19_11h42.34.633,forced_choiceRT,2021.1.2,Win32,59.95203837,,,,,,,,4,Ontime,g,1,2.017,4,1,17,1,1,,,,,
,1.61,,,,,,,,,h.PNG,h,613f33f2e40fd13e4220888b,2021-10-19_11h42.34.633,forced_choiceRT,2021.1.2,Win32,59.95203837,,,,,,,,4,Slow,j,0,2.104,4,2,18,2,1,,,,,
,0.07,,,,,,,,,h.PNG,h,613f33f2e40fd13e4220888b,2021-10-19_11h42.34.633,forced_choiceRT,2021.1.2,Win32,59.95203837,,,,,,,,4,Ontime,h,1,1.984,4,3,19,2,1,,,,,
,1.37,,,,,,,,,h.PNG,h,613f33f2e40fd13e4220888b,2021-10-19_11h42.34.633,forced_choiceRT,2021.1.2,Win32,59.95203837,,,,,,,,4,Ontime,h,1,2.003,5,0,20,2,1,,,,,
,1.92,,,,,,,,,g.PNG,g,613f33f2e40fd13e4220888b,2021-10-19_11h42.34.633,forced_choiceRT,2021.1.2,Win32,59.95203837,,,,,,,,4,Slow,j,0,2.135,5,1,21,1,1,,,,,
,1.97,,,,,,,,,f.PNG,f,613f33f2e40fd13e4220888b,2021-10-19_11h42.34.633,forced_choiceRT,2021.1.2,Win32,59.95203837,,,,,,,,4,Slow,j,0,2.21,5,2,22,0,1,,,,,
,0.67,,,,,,,,,g.PNG,g,613f33f2e40fd13e4220888b,2021-10-19_11h42.34.633,forced_choiceRT,2021.1.2,Win32,59.95203837,,,,,,,,4,Ontime,g,1,2.022,5,3,23,1,1,,,,,
,0.43,,,,,,,,,h.PNG,h,613f33f2e40fd13e4220888b,2021-10-19_11h42.34.633,forced_choiceRT,2021.1.2,Win32,59.95203837,,,,,,,,4,Ontime,h,1,2.036,6,0,24,2,1,,,,,
,1.11,,,,,,,,,j.PNG,j,613f33f2e40fd13e4220888b,2021-10-19_11h42.34.633,forced_choiceRT,2021.1.2,Win32,59.95203837,,,,,,,,4,Slow,j,1,2.107,6,1,25,3,1,,,,,
,0.42,,,,,,,,,g.PNG,g,613f33f2e40fd13e4220888b,2021-10-19_11h42.34.633,forced_choiceRT,2021.1.2,Win32,59.95203837,,,,,,,,4,Ontime,g,1,2.002,6,2,26,1,1,,,,,
,1.59,,,,,,,,,h.PNG,h,613f33f2e40fd13e4220888b,2021-10-19_11h42.34.633,forced_choiceRT,2021.1.2,Win32,59.95203837,,,,,,,,4,Slow,j,0,2.22,6,3,27,2,1,,,,,
,1.99,,,,,,,,,g.PNG,g,613f33f2e40fd13e4220888b,2021-10-19_11h42.34.633,forced_choiceRT,2021.1.2,Win32,59.95203837,,,,,,,,4,Ontime,h,0,2.086,7,0,28,1,1,,,,,
,1.25,,,,,,,,,f.PNG,f,613f33f2e40fd13e4220888b,2021-10-19_11h42.34.633,forced_choiceRT,2021.1.2,Win32,59.95203837,,,,,,,,4,Ontime,f,1,2.004,7,1,29,0,1,,,,,
,1.23,,,,,,,,,j.PNG,j,613f33f2e40fd13e4220888b,2021-10-19_11h42.34.633,forced_choiceRT,2021.1.2,Win32,59.95203837,,,,,,,,4,Ontime,j,1,2.053,7,2,30,3,1,,,,,
,0.2,,,,,,,,,f.PNG,f,613f33f2e40fd13e4220888b,2021-10-19_11h42.34.633,forced_choiceRT,2021.1.2,Win32,59.95203837,,,,,,,,4,Ontime,f,1,1.987,7,3,31,0,1,,,,,
,0.68,,,,,,,,,f.PNG,f,613f33f2e40fd13e4220888b,2021-10-19_11h42.34.633,forced_choiceRT,2021.1.2,Win32,59.95203837,,,,,,,,4,Ontime,f,1,1.971,8,0,32,0,1,,,,,
,0.01,,,,,,,,,g.PNG,g,613f33f2e40fd13e4220888b,2021-10-19_11h42.34.633,forced_choiceRT,2021.1.2,Win32,59.95203837,,,,,,,,4,Ontime,g,1,1.906,8,1,33,1,1,,,,,
,1.74,,,,,,,,,f.PNG,f,613f33f2e40fd13e4220888b,2021-10-19_11h42.34.633,forced_choiceRT,2021.1.2,Win32,59.95203837,,,,,,,,4,Slow,h,0,2.138,8,2,34,0,1,,,,,
,0.22,,,,,,,,,f.PNG,f,613f33f2e40fd13e4220888b,2021-10-19_11h42.34.633,forced_choiceRT,2021.1.2,Win32,59.95203837,,,,,,,,4,Slow,f,1,2.154,8,3,35,0,1,,,,,
,1.23,,,,,,,,,g.PNG,g,613f33f2e40fd13e4220888b,2021-10-19_11h42.34.633,forced_choiceRT,2021.1.2,Win32,59.95203837,,,,,,,,4,Ontime,f,0,1.9,9,0,36,1,1,,,,,
,1.4,,,,,,,,,f.PNG,f,613f33f2e40fd13e4220888b,2021-10-19_11h42.34.633,forced_choiceRT,2021.1.2,Win32,59.95203837,,,,,,,,4,Ontime,f,1,1.953,9,1,37,0,1,,,,,
,0.07,,,,,,,,,j.PNG,j,613f33f2e40fd13e4220888b,2021-10-19_11h42.34.633,forced_choiceRT,2021.1.2,Win32,59.95203837,,,,,,,,4,Ontime,j,1,1.959,9,2,38,3,1,,,,,
,0.87,,,,,,,,,j.PNG,j,613f33f2e40fd13e4220888b,2021-10-19_11h42.34.633,forced_choiceRT,2021.1.2,Win32,59.95203837,,,,,,,,4,Ontime,j,1,2.069,9,3,39,3,1,,,,,
,,,,,,,,,,,,613f33f2e40fd13e4220888b,2021-10-19_11h42.34.633,forced_choiceRT,2021.1.2,Win32,59.95203837,,,,,,,,,,,,,,,,,,3,0,3,0,1
,1.53,,,,,,,,,h.PNG,h,613f33f2e40fd13e4220888b,2021-10-19_11h42.34.633,forced_choiceRT,2021.1.2,Win32,59.95203837,,,,,,,,5,Ontime,j,0,2.069,0,0,0,2,1,,,,,
,1.35,,,,,,,,,j.PNG,j,613f33f2e40fd13e4220888b,2021-10-19_11h42.34.633,forced_choiceRT,2021.1.2,Win32,59.95203837,,,,,,,,5,Ontime,j,1,1.989,0,1,1,3,1,,,,,
,1.22,,,,,,,,,f.PNG,f,613f33f2e40fd13e4220888b,2021-10-19_11h42.34.633,forced_choiceRT,2021.1.2,Win32,59.95203837,,,,,,,,5,Ontime,f,1,1.972,0,2,2,0,1,,,,,
,1.83,,,,,,,,,f.PNG,f,613f33f2e40fd13e4220888b,2021-10-19_11h42.34.633,forced_choiceRT,2021.1.2,Win32,59.95203837,,,,,,,,5,Slow,h,0,2.126,0,3,3,0,1,,,,,
,1.77,,,,,,,,,h.PNG,h,613f33f2e40fd13e4220888b,2021-10-19_11h42.34.633,forced_choiceRT,2021.1.2,Win32,59.95203837,,,,,,,,5,Ontime,f,0,2.1,1,0,4,2,1,,,,,
,0.5,,,,,,,,,j.PNG,j,613f33f2e40fd13e4220888b,2021-10-19_11h42.34.633,forced_choiceRT,2021.1.2,Win32,59.95203837,,,,,,,,5,Ontime,j,1,2.071,1,1,5,3,1,,,,,
,1.81,,,,,,,,,f.PNG,f,613f33f2e40fd13e4220888b,2021-10-19_11h42.34.633,forced_choiceRT,2021.1.2,Win32,59.95203837,,,,,,,,5,Ontime,j,0,2.021,1,2,6,0,1,,,,,
,1.27,,,,,,,,,j.PNG,j,613f33f2e40fd13e4220888b,2021-10-19_11h42.34.633,forced_choiceRT,2021.1.2,Win32,59.95203837,,,,,,,,5,Ontime,j,1,1.955,1,3,7,3,1,,,,,
,0.04,,,,,,,,,h.PNG,h,613f33f2e40fd13e4220888b,2021-10-19_11h42.34.633,forced_choiceRT,2021.1.2,Win32,59.95203837,,,,,,,,5,Ontime,h,1,1.952,2,0,8,2,1,,,,,
,0.66,,,,,,,,,g.PNG,g,613f33f2e40fd13e4220888b,2021-10-19_11h42.34.633,forced_choiceRT,2021.1.2,Win32,59.95203837,,,,,,,,5,Ontime,g,1,2.02,2,1,9,1,1,,,,,
,0.46,,,,,,,,,f.PNG,f,613f33f2e40fd13e4220888b,2021-10-19_11h42.34.633,forced_choiceRT,2021.1.2,Win32,59.95203837,,,,,,,,5,Ontime,f,1,1.937,2,2,10,0,1,,,,,
,0.29,,,,,,,,,j.PNG,j,613f33f2e40fd13e4220888b,2021-10-19_11h42.34.633,forced_choiceRT,2021.1.2,Win32,59.95203837,,,,,,,,5,Ontime,j,1,1.938,2,3,11,3,1,,,,,
,1.69,,,,,,,,,f.PNG,f,613f33f2e40fd13e4220888b,2021-10-19_11h42.34.633,forced_choiceRT,2021.1.2,Win32,59.95203837,,,,,,,,5,Ontime,f,1,2.02,3,0,12,0,1,,,,,
,1.49,,,,,,,,,f.PNG,f,613f33f2e40fd13e4220888b,2021-10-19_11h42.34.633,forced_choiceRT,2021.1.2,Win32,59.95203837,,,,,,,,5,Ontime,f,1,2.036,3,1,13,0,1,,,,,
,0.15,,,,,,,,,g.PNG,g,613f33f2e40fd13e4220888b,2021-10-19_11h42.34.633,forced_choiceRT,2021.1.2,Win32,59.95203837,,,,,,,,5,Ontime,g,1,1.969,3,2,14,1,1,,,,,
,1.44,,,,,,,,,h.PNG,h,613f33f2e40fd13e4220888b,2021-10-19_11h42.34.633,forced_choiceRT,2021.1.2,Win32,59.95203837,,,,,,,,5,Ontime,j,0,2.036,3,3,15,2,1,,,,,
,1.42,,,,,,,,,g.PNG,g,613f33f2e40fd13e4220888b,2021-10-19_11h42.34.633,forced_choiceRT,2021.1.2,Win32,59.95203837,,,,,,,,5,Slow,f,0,2.119,4,0,16,1,1,,,,,
,0.95,,,,,,,,,g.PNG,g,613f33f2e40fd13e4220888b,2021-10-19_11h42.34.633,forced_choiceRT,2021.1.2,Win32,59.95203837,,,,,,,,5,Ontime,g,1,1.986,4,1,17,1,1,,,,,
,0.03,,,,,,,,,j.PNG,j,613f33f2e40fd13e4220888b,2021-10-19_11h42.34.633,forced_choiceRT,2021.1.2,Win32,59.95203837,,,,,,,,5,Ontime,j,1,1.956,4,2,18,3,1,,,,,
,0.21,,,,,,,,,g.PNG,g,613f33f2e40fd13e4220888b,2021-10-19_11h42.34.633,forced_choiceRT,2021.1.2,Win32,59.95203837,,,,,,,,5,Ontime,g,1,2.001,4,3,19,1,1,,,,,
,1.06,,,,,,,,,j.PNG,j,613f33f2e40fd13e4220888b,2021-10-19_11h42.34.633,forced_choiceRT,2021.1.2,Win32,59.95203837,,,,,,,,5,Ontime,j,1,2.019,5,0,20,3,1,,,,,
,1.06,,,,,,,,,h.PNG,h,613f33f2e40fd13e4220888b,2021-10-19_11h42.34.633,forced_choiceRT,2021.1.2,Win32,59.95203837,,,,,,,,5,Ontime,g,0,1.966,5,1,21,2,1,,,,,
,0.69,,,,,,,,,f.PNG,f,613f33f2e40fd13e4220888b,2021-10-19_11h42.34.633,forced_choiceRT,2021.1.2,Win32,59.95203837,,,,,,,,5,Ontime,f,1,1.918,5,2,22,0,1,,,,,
,0.65,,,,,,,,,g.PNG,g,613f33f2e40fd13e4220888b,2021-10-19_11h42.34.633,forced_choiceRT,2021.1.2,Win32,59.95203837,,,,,,,,5,Ontime,g,1,1.935,5,3,23,1,1,,,,,
,1.87,,,,,,,,,g.PNG,g,613f33f2e40fd13e4220888b,2021-10-19_11h42.34.633,forced_choiceRT,2021.1.2,Win32,59.95203837,,,,,,,,5,Slow,h,0,2.106,6,0,24,1,1,,,,,
,1.67,,,,,,,,,g.PNG,g,613f33f2e40fd13e4220888b,2021-10-19_11h42.34.633,forced_choiceRT,2021.1.2,Win32,59.95203837,,,,,,,,5,Slow,g,1,2.202,6,1,25,1,1,,,,,
,1.17,,,,,,,,,j.PNG,j,613f33f2e40fd13e4220888b,2021-10-19_11h42.34.633,forced_choiceRT,2021.1.2,Win32,59.95203837,,,,,,,,5,Ontime,j,1,2.055,6,2,26,3,1,,,,,
,1,,,,,,,,,f.PNG,f,613f33f2e40fd13e4220888b,2021-10-19_11h42.34.633,forced_choiceRT,2021.1.2,Win32,59.95203837,,,,,,,,5,Ontime,f,1,1.989,6,3,27,0,1,,,,,
,0.88,,,,,,,,,g.PNG,g,613f33f2e40fd13e4220888b,2021-10-19_11h42.34.633,forced_choiceRT,2021.1.2,Win32,59.95203837,,,,,,,,5,Ontime,g,1,1.934,7,0,28,1,1,,,,,
,0.65,,,,,,,,,g.PNG,g,613f33f2e40fd13e4220888b,2021-10-19_11h42.34.633,forced_choiceRT,2021.1.2,Win32,59.95203837,,,,,,,,5,Ontime,g,1,1.93,7,1,29,1,1,,,,,
,1.49,,,,,,,,,j.PNG,j,613f33f2e40fd13e4220888b,2021-10-19_11h42.34.633,forced_choiceRT,2021.1.2,Win32,59.95203837,,,,,,,,5,Ontime,g,0,2.041,7,2,30,3,1,,,,,
,1.88,,,,,,,,,j.PNG,j,613f33f2e40fd13e4220888b,2021-10-19_11h42.34.633,forced_choiceRT,2021.1.2,Win32,59.95203837,,,,,,,,5,Ontime,f,0,2.087,7,3,31,3,1,,,,,
,0.68,,,,,,,,,f.PNG,f,613f33f2e40fd13e4220888b,2021-10-19_11h42.34.633,forced_choiceRT,2021.1.2,Win32,59.95203837,,,,,,,,5,Fast,f,1,1.835,8,0,32,0,1,,,,,
,0.95,,,,,,,,,j.PNG,j,613f33f2e40fd13e4220888b,2021-10-19_11h42.34.633,forced_choiceRT,2021.1.2,Win32,59.95203837,,,,,,,,5,Ontime,j,1,1.959,8,1,33,3,1,,,,,
,0.74,,,,,,,,,h.PNG,h,613f33f2e40fd13e4220888b,2021-10-19_11h42.34.633,forced_choiceRT,2021.1.2,Win32,59.95203837,,,,,,,,5,Fast,h,1,1.887,8,2,34,2,1,,,,,
,0.99,,,,,,,,,h.PNG,h,613f33f2e40fd13e4220888b,2021-10-19_11h42.34.633,forced_choiceRT,2021.1.2,Win32,59.95203837,,,,,,,,5,Ontime,h,1,1.951,8,3,35,2,1,,,,,
,0.72,,,,,,,,,h.PNG,h,613f33f2e40fd13e4220888b,2021-10-19_11h42.34.633,forced_choiceRT,2021.1.2,Win32,59.95203837,,,,,,,,5,Ontime,h,1,1.921,9,0,36,2,1,,,,,
,1.02,,,,,,,,,h.PNG,h,613f33f2e40fd13e4220888b,2021-10-19_11h42.34.633,forced_choiceRT,2021.1.2,Win32,59.95203837,,,,,,,,5,Ontime,h,1,1.974,9,1,37,2,1,,,,,
,0.51,,,,,,,,,h.PNG,h,613f33f2e40fd13e4220888b,2021-10-19_11h42.34.633,forced_choiceRT,2021.1.2,Win32,59.95203837,,,,,,,,5,Ontime,h,1,1.901,9,2,38,2,1,,,,,
,0.56,,,,,,,,,f.PNG,f,613f33f2e40fd13e4220888b,2021-10-19_11h42.34.633,forced_choiceRT,2021.1.2,Win32,59.95203837,,,,,,,,5,Ontime,f,1,1.988,9,3,39,0,1,,,,,
,,,,,,,,,,,,613f33f2e40fd13e4220888b,2021-10-19_11h42.34.633,forced_choiceRT,2021.1.2,Win32,59.95203837,,,,,,,,,,,,,,,,,,4,0,4,0,1
,1.46,,,,,,,,,h.PNG,h,613f33f2e40fd13e4220888b,2021-10-19_11h42.34.633,forced_choiceRT,2021.1.2,Win32,59.95203837,,,,,,,,6,Ontime,h,1,2.048,0,0,0,2,1,,,,,
,1.25,,,,,,,,,g.PNG,g,613f33f2e40fd13e4220888b,2021-10-19_11h42.34.633,forced_choiceRT,2021.1.2,Win32,59.95203837,,,,,,,,6,Ontime,h,0,2.055,0,1,1,1,1,,,,,
,1.83,,,,,,,,,j.PNG,j,613f33f2e40fd13e4220888b,2021-10-19_11h42.34.633,forced_choiceRT,2021.1.2,Win32,59.95203837,,,,,,,,6,Slow,g,0,3.786,0,2,2,3,1,,,,,
,0.39,,,,,,,,,g.PNG,g,613f33f2e40fd13e4220888b,2021-10-19_11h42.34.633,forced_choiceRT,2021.1.2,Win32,59.95203837,,,,,,,,6,Fast,g,1,1.853,0,3,3,1,1,,,,,
,0.99,,,,,,,,,f.PNG,f,613f33f2e40fd13e4220888b,2021-10-19_11h42.34.633,forced_choiceRT,2021.1.2,Win32,59.95203837,,,,,,,,6,Ontime,f,1,1.999,1,0,4,0,1,,,,,
,0.44,,,,,,,,,h.PNG,h,613f33f2e40fd13e4220888b,2021-10-19_11h42.34.633,forced_choiceRT,2021.1.2,Win32,59.95203837,,,,,,,,6,Fast,h,1,1.835,1,1,5,2,1,,,,,
,0.77,,,,,,,,,j.PNG,j,613f33f2e40fd13e4220888b,2021-10-19_11h42.34.633,forced_choiceRT,2021.1.2,Win32,59.95203837,,,,,,,,6,Ontime,j,1,2.02,1,2,6,3,1,,,,,
,0.94,,,,,,,,,f.PNG,f,613f33f2e40fd13e4220888b,2021-10-19_11h42.34.633,forced_choiceRT,2021.1.2,Win32,59.95203837,,,,,,,,6,Ontime,f,1,2.019,1,3,7,0,1,,,,,
,1.75,,,,,,,,,h.PNG,h,613f33f2e40fd13e4220888b,2021-10-19_11h42.34.633,forced_choiceRT,2021.1.2,Win32,59.95203837,,,,,,,,6,Slow,f,0,2.156,2,0,8,2,1,,,,,
,0.91,,,,,,,,,f.PNG,f,613f33f2e40fd13e4220888b,2021-10-19_11h42.34.633,forced_choiceRT,2021.1.2,Win32,59.95203837,,,,,,,,6,Ontime,f,1,2.08,2,1,9,0,1,,,,,
,0.14,,,,,,,,,f.PNG,f,613f33f2e40fd13e4220888b,2021-10-19_11h42.34.633,forced_choiceRT,2021.1.2,Win32,59.95203837,,,,,,,,6,Ontime,f,1,2.04,2,2,10,0,1,,,,,
,1.05,,,,,,,,,h.PNG,h,613f33f2e40fd13e4220888b,2021-10-19_11h42.34.633,forced_choiceRT,2021.1.2,Win32,59.95203837,,,,,,,,6,Ontime,h,1,2.004,2,3,11,2,1,,,,,
,0.38,,,,,,,,,f.PNG,f,613f33f2e40fd13e4220888b,2021-10-19_11h42.34.633,forced_choiceRT,2021.1.2,Win32,59.95203837,,,,,,,,6,Ontime,f,1,1.97,3,0,12,0,1,,,,,
,0.49,,,,,,,,,j.PNG,j,613f33f2e40fd13e4220888b,2021-10-19_11h42.34.633,forced_choiceRT,2021.1.2,Win32,59.95203837,,,,,,,,6,Ontime,j,1,1.971,3,1,13,3,1,,,,,
,1.71,,,,,,,,,j.PNG,j,613f33f2e40fd13e4220888b,2021-10-19_11h42.34.633,forced_choiceRT,2021.1.2,Win32,59.95203837,,,,,,,,6,Ontime,h,0,1.995,3,2,14,3,1,,,,,
,1.17,,,,,,,,,h.PNG,h,613f33f2e40fd13e4220888b,2021-10-19_11h42.34.633,forced_choiceRT,2021.1.2,Win32,59.95203837,,,,,,,,6,Ontime,h,1,2.087,3,3,15,2,1,,,,,
,0.2,,,,,,,,,h.PNG,h,613f33f2e40fd13e4220888b,2021-10-19_11h42.34.633,forced_choiceRT,2021.1.2,Win32,59.95203837,,,,,,,,6,Ontime,h,1,1.952,4,0,16,2,1,,,,,
,1.62,,,,,,,,,j.PNG,j,613f33f2e40fd13e4220888b,2021-10-19_11h42.34.633,forced_choiceRT,2021.1.2,Win32,59.95203837,,,,,,,,6,Ontime,h,0,2.036,4,1,17,3,1,,,,,
,0.09,,,,,,,,,j.PNG,j,613f33f2e40fd13e4220888b,2021-10-19_11h42.34.633,forced_choiceRT,2021.1.2,Win32,59.95203837,,,,,,,,6,Ontime,j,1,2.003,4,2,18,3,1,,,,,
,1.36,,,,,,,,,g.PNG,g,613f33f2e40fd13e4220888b,2021-10-19_11h42.34.633,forced_choiceRT,2021.1.2,Win32,59.95203837,,,,,,,,6,Ontime,g,1,2.098,4,3,19,1,1,,,,,
,1.17,,,,,,,,,j.PNG,j,613f33f2e40fd13e4220888b,2021-10-19_11h42.34.633,forced_choiceRT,2021.1.2,Win32,59.95203837,,,,,,,,6,Ontime,j,1,2.02,5,0,20,3,1,,,,,
,1.88,,,,,,,,,j.PNG,j,613f33f2e40fd13e4220888b,2021-10-19_11h42.34.633,forced_choiceRT,2021.1.2,Win32,59.95203837,,,,,,,,6,Ontime,h,0,2.085,5,1,21,3,1,,,,,
,1.52,,,,,,,,,j.PNG,j,613f33f2e40fd13e4220888b,2021-10-19_11h42.34.633,forced_choiceRT,2021.1.2,Win32,59.95203837,,,,,,,,6,Ontime,j,1,2.069,5,2,22,3,1,,,,,
,1.32,,,,,,,,,g.PNG,g,613f33f2e40fd13e4220888b,2021-10-19_11h42.34.633,forced_choiceRT,2021.1.2,Win32,59.95203837,,,,,,,,6,Ontime,f,0,2.09,5,3,23,1,1,,,,,
,0.28,,,,,,,,,g.PNG,g,613f33f2e40fd13e4220888b,2021-10-19_11h42.34.633,forced_choiceRT,2021.1.2,Win32,59.95203837,,,,,,,,6,Ontime,g,1,2.019,6,0,24,1,1,,,,,
,1.63,,,,,,,,,f.PNG,f,613f33f2e40fd13e4220888b,2021-10-19_11h42.34.633,forced_choiceRT,2021.1.2,Win32,59.95203837,,,,,,,,6,Slow,g,0,2.168,6,1,25,0,1,,,,,
,1.08,,,,,,,,,g.PNG,g,613f33f2e40fd13e4220888b,2021-10-19_11h42.34.633,forced_choiceRT,2021.1.2,Win32,59.95203837,,,,,,,,6,Slow,g,1,2.119,6,2,26,1,1,,,,,
,0.7,,,,,,,,,f.PNG,f,613f33f2e40fd13e4220888b,2021-10-19_11h42.34.633,forced_choiceRT,2021.1.2,Win32,59.95203837,,,,,,,,6,Ontime,f,1,2.068,6,3,27,0,1,,,,,
,1.1,,,,,,,,,h.PNG,h,613f33f2e40fd13e4220888b,2021-10-19_11h42.34.633,forced_choiceRT,2021.1.2,Win32,59.95203837,,,,,,,,6,Ontime,h,1,2.086,7,0,28,2,1,,,,,
,0.35,,,,,,,,,h.PNG,h,613f33f2e40fd13e4220888b,2021-10-19_11h42.34.633,forced_choiceRT,2021.1.2,Win32,59.95203837,,,,,,,,6,Ontime,h,1,1.987,7,1,29,2,1,,,,,
,1.84,,,,,,,,,j.PNG,j,613f33f2e40fd13e4220888b,2021-10-19_11h42.34.633,forced_choiceRT,2021.1.2,Win32,59.95203837,,,,,,,,6,Ontime,f,0,2.073,7,2,30,3,1,,,,,
,0.66,,,,,,,,,g.PNG,g,613f33f2e40fd13e4220888b,2021-10-19_11h42.34.633,forced_choiceRT,2021.1.2,Win32,59.95203837,,,,,,,,6,Ontime,g,1,1.986,7,3,31,1,1,,,,,
,1.07,,,,,,,,,f.PNG,f,613f33f2e40fd13e4220888b,2021-10-19_11h42.34.633,forced_choiceRT,2021.1.2,Win32,59.95203837,,,,,,,,6,Ontime,f,1,2.068,8,0,32,0,1,,,,,
,1.91,,,,,,,,,f.PNG,f,613f33f2e40fd13e4220888b,2021-10-19_11h42.34.633,forced_choiceRT,2021.1.2,Win32,59.95203837,,,,,,,,6,Slow,f,1,2.285,8,1,33,0,1,,,,,
,1.01,,,,,,,,,g.PNG,g,613f33f2e40fd13e4220888b,2021-10-19_11h42.34.633,forced_choiceRT,2021.1.2,Win32,59.95203837,,,,,,,,6,Ontime,g,1,2.004,8,2,34,1,1,,,,,
,1.54,,,,,,,,,f.PNG,f,613f33f2e40fd13e4220888b,2021-10-19_11h42.34.633,forced_choiceRT,2021.1.2,Win32,59.95203837,,,,,,,,6,Ontime,g,0,2.056,8,3,35,0,1,,,,,
,1.56,,,,,,,,,h.PNG,h,613f33f2e40fd13e4220888b,2021-10-19_11h42.34.633,forced_choiceRT,2021.1.2,Win32,59.95203837,,,,,,,,6,Slow,h,1,2.203,9,0,36,2,1,,,,,
,1.63,,,,,,,,,g.PNG,g,613f33f2e40fd13e4220888b,2021-10-19_11h42.34.633,forced_choiceRT,2021.1.2,Win32,59.95203837,,,,,,,,6,Ontime,j,0,2.036,9,1,37,1,1,,,,,
,1.94,,,,,,,,,g.PNG,g,613f33f2e40fd13e4220888b,2021-10-19_11h42.34.633,forced_choiceRT,2021.1.2,Win32,59.95203837,,,,,,,,6,Slow,h,0,2.184,9,2,38,1,1,,,,,
,0.98,,,,,,,,,h.PNG,h,613f33f2e40fd13e4220888b,2021-10-19_11h42.34.633,forced_choiceRT,2021.1.2,Win32,59.95203837,,,,,,,,6,Ontime,h,1,2.086,9,3,39,2,1,,,,,
,,,,,,,,,,,,613f33f2e40fd13e4220888b,2021-10-19_11h42.34.633,forced_choiceRT,2021.1.2,Win32,59.95203837,,,,,,,,,,,,,,,,,,5,0,5,0,1
,0.37,,,,,,,,,f.PNG,f,613f33f2e40fd13e4220888b,2021-10-19_11h42.34.633,forced_choiceRT,2021.1.2,Win32,59.95203837,,,,,,,,7,Ontime,f,1,2.009,0,0,0,0,1,,,,,
,0.43,,,,,,,,,h.PNG,h,613f33f2e40fd13e4220888b,2021-10-19_11h42.34.633,forced_choiceRT,2021.1.2,Win32,59.95203837,,,,,,,,7,Ontime,h,1,2.002,0,1,1,2,1,,,,,
,0.35,,,,,,,,,g.PNG,g,613f33f2e40fd13e4220888b,2021-10-19_11h42.34.633,forced_choiceRT,2021.1.2,Win32,59.95203837,,,,,,,,7,Fast,g,1,1.888,0,2,2,1,1,,,,,
,1.88,,,,,,,,,h.PNG,h,613f33f2e40fd13e4220888b,2021-10-19_11h42.34.633,forced_choiceRT,2021.1.2,Win32,59.95203837,,,,,,,,7,Ontime,j,0,2.089,0,3,3,2,1,,,,,
,0.43,,,,,,,,,j.PNG,j,613f33f2e40fd13e4220888b,2021-10-19_11h42.34.633,forced_choiceRT,2021.1.2,Win32,59.95203837,,,,,,,,7,Ontime,j,1,2.052,1,0,4,3,1,,,,,
,0.13,,,,,,,,,f.PNG,f,613f33f2e40fd13e4220888b,2021-10-19_11h42.34.633,forced_choiceRT,2021.1.2,Win32,59.95203837,,,,,,,,7,Ontime,f,1,2.019,1,1,5,0,1,,,,,
,1.93,,,,,,,,,j.PNG,j,613f33f2e40fd13e4220888b,2021-10-19_11h42.34.633,forced_choiceRT,2021.1.2,Win32,59.95203837,,,,,,,,7,Ontime,g,0,2.022,1,2,6,3,1,,,,,
,1.43,,,,,,,,,j.PNG,j,613f33f2e40fd13e4220888b,2021-10-19_11h42.34.633,forced_choiceRT,2021.1.2,Win32,59.95203837,,,,,,,,7,Ontime,j,1,2.021,1,3,7,3,1,,,,,
,0.71,,,,,,,,,j.PNG,j,613f33f2e40fd13e4220888b,2021-10-19_11h42.34.633,forced_choiceRT,2021.1.2,Win32,59.95203837,,,,,,,,7,Ontime,j,1,1.973,2,0,8,3,1,,,,,
,1.29,,,,,,,,,h.PNG,h,613f33f2e40fd13e4220888b,2021-10-19_11h42.34.633,forced_choiceRT,2021.1.2,Win32,59.95203837,,,,,,,,7,Slow,h,1,2.118,2,1,9,2,1,,,,,
,1.43,,,,,,,,,f.PNG,f,613f33f2e40fd13e4220888b,2021-10-19_11h42.34.633,forced_choiceRT,2021.1.2,Win32,59.95203837,,,,,,,,7,Slow,f,1,2.103,2,2,10,0,1,,,,,
,0.67,,,,,,,,,h.PNG,h,613f33f2e40fd13e4220888b,2021-10-19_11h42.34.633,forced_choiceRT,2021.1.2,Win32,59.95203837,,,,,,,,7,Ontime,g,0,1.97,2,3,11,2,1,,,,,
,0.54,,,,,,,,,f.PNG,f,613f33f2e40fd13e4220888b,2021-10-19_11h42.34.633,forced_choiceRT,2021.1.2,Win32,59.95203837,,,,,,,,7,Ontime,f,1,1.989,3,0,12,0,1,,,,,
,0.37,,,,,,,,,g.PNG,g,613f33f2e40fd13e4220888b,2021-10-19_11h42.34.633,forced_choiceRT,2021.1.2,Win32,59.95203837,,,,,,,,7,Fast,g,1,1.803,3,1,13,1,1,,,,,
,0.43,,,,,,,,,f.PNG,f,613f33f2e40fd13e4220888b,2021-10-19_11h42.34.633,forced_choiceRT,2021.1.2,Win32,59.95203837,,,,,,,,7,Slow,f,1,2.101,3,2,14,0,1,,,,,
,1.9,,,,,,,,,j.PNG,j,613f33f2e40fd13e4220888b,2021-10-19_11h42.34.633,forced_choiceRT,2021.1.2,Win32,59.95203837,,,,,,,,7,Slow,h,0,2.177,3,3,15,3,1,,,,,
,0.63,,,,,,,,,h.PNG,h,613f33f2e40fd13e4220888b,2021-10-19_11h42.34.633,forced_choiceRT,2021.1.2,Win32,59.95203837,,,,,,,,7,Ontime,h,1,2.039,4,0,16,2,1,,,,,
,0.19,,,,,,,,,h.PNG,h,613f33f2e40fd13e4220888b,2021-10-19_11h42.34.633,forced_choiceRT,2021.1.2,Win32,59.95203837,,,,,,,,7,Ontime,h,1,1.97,4,1,17,2,1,,,,,
,0.56,,,,,,,,,j.PNG,j,613f33f2e40fd13e4220888b,2021-10-19_11h42.34.633,forced_choiceRT,2021.1.2,Win32,59.95203837,,,,,,,,7,Slow,j,1,2.103,4,2,18,3,1,,,,,
,0.96,,,,,,,,,j.PNG,j,613f33f2e40fd13e4220888b,2021-10-19_11h42.34.633,forced_choiceRT,2021.1.2,Win32,59.95203837,,,,,,,,7,Slow,j,1,2.145,4,3,19,3,1,,,,,
,0.6,,,,,,,,,h.PNG,h,613f33f2e40fd13e4220888b,2021-10-19_11h42.34.633,forced_choiceRT,2021.1.2,Win32,59.95203837,,,,,,,,7,Slow,h,1,2.144,5,0,20,2,1,,,,,
,0.57,,,,,,,,,f.PNG,f,613f33f2e40fd13e4220888b,2021-10-19_11h42.34.633,forced_choiceRT,2021.1.2,Win32,59.95203837,,,,,,,,7,Ontime,f,1,2.021,5,1,21,0,1,,,,,
,0.29,,,,,,,,,g.PNG,g,613f33f2e40fd13e4220888b,2021-10-19_11h42.34.633,forced_choiceRT,2021.1.2,Win32,59.95203837,,,,,,,,7,Ontime,g,1,1.961,5,2,22,1,1,,,,,
,1.12,,,,,,,,,j.PNG,j,613f33f2e40fd13e4220888b,2021-10-19_11h42.34.633,forced_choiceRT,2021.1.2,Win32,59.95203837,,,,,,,,7,Ontime,j,1,2.051,5,3,23,3,1,,,,,
,0.45,,,,,,,,,h.PNG,h,613f33f2e40fd13e4220888b,2021-10-19_11h42.34.633,forced_choiceRT,2021.1.2,Win32,59.95203837,,,,,,,,7,Fast,h,1,1.687,6,0,24,2,1,,,,,
,1.56,,,,,,,,,h.PNG,h,613f33f2e40fd13e4220888b,2021-10-19_11h42.34.633,forced_choiceRT,2021.1.2,Win32,59.95203837,,,,,,,,7,Ontime,j,0,2.059,6,1,25,2,1,,,,,
,1.01,,,,,,,,,j.PNG,j,613f33f2e40fd13e4220888b,2021-10-19_11h42.34.633,forced_choiceRT,2021.1.2,Win32,59.95203837,,,,,,,,7,Ontime,j,1,2.072,6,2,26,3,1,,,,,
,1.14,,,,,,,,,f.PNG,f,613f33f2e40fd13e4220888b,2021-10-19_11h42.34.633,forced_choiceRT,2021.1.2,Win32,59.95203837,,,,,,,,7,Ontime,f,1,2.071,6,3,27,0,1,,,,,
,1.69,,,,,,,,,f.PNG,f,613f33f2e40fd13e4220888b,2021-10-19_11h42.34.633,forced_choiceRT,2021.1.2,Win32,59.95203837,,,,,,,,7,Slow,f,1,2.337,7,0,28,0,1,,,,,
,0.36,,,,,,,,,f.PNG,f,613f33f2e40fd13e4220888b,2021-10-19_11h42.34.633,forced_choiceRT,2021.1.2,Win32,59.95203837,,,,,,,,7,Ontime,f,1,2.018,7,1,29,0,1,,,,,
,1.93,,,,,,,,,g.PNG,g,613f33f2e40fd13e4220888b,2021-10-19_11h42.34.633,forced_choiceRT,2021.1.2,Win32,59.95203837,,,,,,,,7,Slow,f,0,2.269,7,2,30,1,1,,,,,
,0.16,,,,,,,,,f.PNG,f,613f33f2e40fd13e4220888b,2021-10-19_11h42.34.633,forced_choiceRT,2021.1.2,Win32,59.95203837,,,,,,,,7,Ontime,f,1,1.97,7,3,31,0,1,,,,,
,0.58,,,,,,,,,g.PNG,g,613f33f2e40fd13e4220888b,2021-10-19_11h42.34.633,forced_choiceRT,2021.1.2,Win32,59.95203837,,,,,,,,7,Ontime,g,1,2.003,8,0,32,1,1,,,,,
,1.38,,,,,,,,,g.PNG,g,613f33f2e40fd13e4220888b,2021-10-19_11h42.34.633,forced_choiceRT,2021.1.2,Win32,59.95203837,,,,,,,,7,Ontime,f,0,1.985,8,1,33,1,1,,,,,
,1.06,,,,,,,,,g.PNG,g,613f33f2e40fd13e4220888b,2021-10-19_11h42.34.633,forced_choiceRT,2021.1.2,Win32,59.95203837,,,,,,,,7,Ontime,g,1,2.004,8,2,34,1,1,,,,,
,0.59,,,,,,,,,g.PNG,g,613f33f2e40fd13e4220888b,2021-10-19_11h42.34.633,forced_choiceRT,2021.1.2,Win32,59.95203837,,,,,,,,7,Ontime,g,1,2.005,8,3,35,1,1,,,,,
,1.51,,,,,,,,,g.PNG,g,613f33f2e40fd13e4220888b,2021-10-19_11h42.34.633,forced_choiceRT,2021.1.2,Win32,59.95203837,,,,,,,,7,Ontime,g,1,1.955,9,0,36,1,1,,,,,
,1.72,,,,,,,,,h.PNG,h,613f33f2e40fd13e4220888b,2021-10-19_11h42.34.633,forced_choiceRT,2021.1.2,Win32,59.95203837,,,,,,,,7,Ontime,h,1,1.989,9,1,37,2,1,,,,,
,0.86,,,,,,,,,g.PNG,g,613f33f2e40fd13e4220888b,2021-10-19_11h42.34.633,forced_choiceRT,2021.1.2,Win32,59.95203837,,,,,,,,7,Ontime,g,1,2.038,9,2,38,1,1,,,,,
,0.83,,,,,,,,,j.PNG,j,613f33f2e40fd13e4220888b,2021-10-19_11h42.34.633,forced_choiceRT,2021.1.2,Win32,59.95203837,,,,,,,,7,Ontime,h,0,2.023,9,3,39,3,1,,,,,
,,,,,,,,,,,,613f33f2e40fd13e4220888b,2021-10-19_11h42.34.633,forced_choiceRT,2021.1.2,Win32,59.95203837,,,,,,,,,,,,,,,,,,6,0,6,0,1
,1.61,,,,,,,,,g.PNG,g,613f33f2e40fd13e4220888b,2021-10-19_11h42.34.633,forced_choiceRT,2021.1.2,Win32,59.95203837,,,,,,,,8,Slow,g,1,2.386,0,0,0,1,1,,,,,
,1.86,,,,,,,,,j.PNG,j,613f33f2e40fd13e4220888b,2021-10-19_11h42.34.633,forced_choiceRT,2021.1.2,Win32,59.95203837,,,,,,,,8,Ontime,h,0,2.02,0,1,1,3,1,,,,,
,1.47,,,,,,,,,h.PNG,h,613f33f2e40fd13e4220888b,2021-10-19_11h42.34.633,forced_choiceRT,2021.1.2,Win32,59.95203837,,,,,,,,8,Ontime,h,1,2.073,0,2,2,2,1,,,,,
,1.57,,,,,,,,,h.PNG,h,613f33f2e40fd13e4220888b,2021-10-19_11h42.34.633,forced_choiceRT,2021.1.2,Win32,59.95203837,,,,,,,,8,Ontime,h,1,2.074,0,3,3,2,1,,,,,
,1.36,,,,,,,,,h.PNG,h,613f33f2e40fd13e4220888b,2021-10-19_11h42.34.633,forced_choiceRT,2021.1.2,Win32,59.95203837,,,,,,,,8,Ontime,h,1,2.003,1,0,4,2,1,,,,,
,1.9,,,,,,,,,j.PNG,j,613f33f2e40fd13e4220888b,2021-10-19_11h42.34.633,forced_choiceRT,2021.1.2,Win32,59.95203837,,,,,,,,8,Slow,f,0,2.191,1,1,5,3,1,,,,,
,0.66,,,,,,,,,f.PNG,f,613f33f2e40fd13e4220888b,2021-10-19_11h42.34.633,forced_choiceRT,2021.1.2,Win32,59.95203837,,,,,,,,8,Ontime,f,1,2.088,1,2,6,0,1,,,,,
,1.1,,,,,,,,,h.PNG,h,613f33f2e40fd13e4220888b,2021-10-19_11h42.34.633,forced_choiceRT,2021.1.2,Win32,59.95203837,,,,,,,,8,Ontime,h,1,2.023,1,3,7,2,1,,,,,
,0.91,,,,,,,,,g.PNG,g,613f33f2e40fd13e4220888b,2021-10-19_11h42.34.633,forced_choiceRT,2021.1.2,Win32,59.95203837,,,,,,,,8,Ontime,g,1,2.054,2,0,8,1,1,,,,,
,1.11,,,,,,,,,j.PNG,j,613f33f2e40fd13e4220888b,2021-10-19_11h42.34.633,forced_choiceRT,2021.1.2,Win32,59.95203837,,,,,,,,8,Slow,j,1,2.106,2,1,9,3,1,,,,,
,0.29,,,,,,,,,f.PNG,f,613f33f2e40fd13e4220888b,2021-10-19_11h42.34.633,forced_choiceRT,2021.1.2,Win32,59.95203837,,,,,,,,8,Ontime,f,1,2.003,2,2,10,0,1,,,,,
,0.02,,,,,,,,,j.PNG,j,613f33f2e40fd13e4220888b,2021-10-19_11h42.34.633,forced_choiceRT,2021.1.2,Win32,59.95203837,,,,,,,,8,Ontime,j,1,1.988,2,3,11,3,1,,,,,
,0.69,,,,,,,,,g.PNG,g,613f33f2e40fd13e4220888b,2021-10-19_11h42.34.633,forced_choiceRT,2021.1.2,Win32,59.95203837,,,,,,,,8,Ontime,g,1,2.07,3,0,12,1,1,,,,,
,0.05,,,,,,,,,g.PNG,g,613f33f2e40fd13e4220888b,2021-10-19_11h42.34.633,forced_choiceRT,2021.1.2,Win32,59.95203837,,,,,,,,8,Ontime,g,1,2.054,3,1,13,1,1,,,,,
,1.88,,,,,,,,,f.PNG,f,613f33f2e40fd13e4220888b,2021-10-19_11h42.34.633,forced_choiceRT,2021.1.2,Win32,59.95203837,,,,,,,,8,Ontime,h,0,2.047,3,2,14,0,1,,,,,
,0.06,,,,,,,,,h.PNG,h,613f33f2e40fd13e4220888b,2021-10-19_11h42.34.633,forced_choiceRT,2021.1.2,Win32,59.95203837,,,,,,,,8,Ontime,h,1,2.003,3,3,15,2,1,,,,,
,0.33,,,,,,,,,g.PNG,g,613f33f2e40fd13e4220888b,2021-10-19_11h42.34.633,forced_choiceRT,2021.1.2,Win32,59.95203837,,,,,,,,8,Ontime,g,1,2.001,4,0,16,1,1,,,,,
,1.84,,,,,,,,,h.PNG,h,613f33f2e40fd13e4220888b,2021-10-19_11h42.34.633,forced_choiceRT,2021.1.2,Win32,59.95203837,,,,,,,,8,Ontime,j,0,2.069,4,1,17,2,1,,,,,
,1.19,,,,,,,,,h.PNG,h,613f33f2e40fd13e4220888b,2021-10-19_11h42.34.633,forced_choiceRT,2021.1.2,Win32,59.95203837,,,,,,,,8,Ontime,h,1,2.085,4,2,18,2,1,,,,,
,1.96,,,,,,,,,g.PNG,g,613f33f2e40fd13e4220888b,2021-10-19_11h42.34.633,forced_choiceRT,2021.1.2,Win32,59.95203837,,,,,,,,8,Ontime,h,0,2.018,4,3,19,1,1,,,,,
,0.59,,,,,,,,,f.PNG,f,613f33f2e40fd13e4220888b,2021-10-19_11h42.34.633,forced_choiceRT,2021.1.2,Win32,59.95203837,,,,,,,,8,Ontime,f,1,2.035,5,0,20,0,1,,,,,
,0.43,,,,,,,,,f.PNG,f,613f33f2e40fd13e4220888b,2021-10-19_11h42.34.633,forced_choiceRT,2021.1.2,Win32,59.95203837,,,,,,,,8,Ontime,f,1,2.071,5,1,21,0,1,,,,,
,0.39,,,,,,,,,h.PNG,h,613f33f2e40fd13e4220888b,2021-10-19_11h42.34.633,forced_choiceRT,2021.1.2,Win32,59.95203837,,,,,,,,8,Ontime,h,1,2.041,5,2,22,2,1,,,,,
,0.88,,,,,,,,,f.PNG,f,613f33f2e40fd13e4220888b,2021-10-19_11h42.34.633,forced_choiceRT,2021.1.2,Win32,59.95203837,,,,,,,,8,Slow,f,1,2.102,5,3,23,0,1,,,,,
,0.87,,,,,,,,,f.PNG,f,613f33f2e40fd13e4220888b,2021-10-19_11h42.34.633,forced_choiceRT,2021.1.2,Win32,59.95203837,,,,,,,,8,Ontime,f,1,2.054,6,0,24,0,1,,,,,
,1.89,,,,,,,,,j.PNG,j,613f33f2e40fd13e4220888b,2021-10-19_11h42.34.633,forced_choiceRT,2021.1.2,Win32,59.95203837,,,,,,,,8,Slow,j,1,2.105,6,1,25,3,1,,,,,
,0.41,,,,,,,,,h.PNG,h,613f33f2e40fd13e4220888b,2021-10-19_11h42.34.633,forced_choiceRT,2021.1.2,Win32,59.95203837,,,,,,,,8,Ontime,h,1,1.969,6,2,26,2,1,,,,,
,1.87,,,,,,,,,j.PNG,j,613f33f2e40fd13e4220888b,2021-10-19_11h42.34.633,forced_choiceRT,2021.1.2,Win32,59.95203837,,,,,,,,8,Ontime,j,1,2.087,6,3,27,3,1,,,,,
,1.33,,,,,,,,,h.PNG,h,613f33f2e40fd13e4220888b,2021-10-19_11h42.34.633,forced_choiceRT,2021.1.2,Win32,59.95203837,,,,,,,,8,Ontime,j,0,2.033,7,0,28,2,1,,,,,
,1.27,,,,,,,,,g.PNG,g,613f33f2e40fd13e4220888b,2021-10-19_11h42.34.633,forced_choiceRT,2021.1.2,Win32,59.95203837,,,,,,,,8,Ontime,g,1,1.987,7,1,29,1,1,,,,,
,1.12,,,,,,,,,j.PNG,j,613f33f2e40fd13e4220888b,2021-10-19_11h42.34.633,forced_choiceRT,2021.1.2,Win32,59.95203837,,,,,,,,8,Ontime,j,1,1.956,7,2,30,3,1,,,,,
,0.09,,,,,,,,,g.PNG,g,613f33f2e40fd13e4220888b,2021-10-19_11h42.34.633,forced_choiceRT,2021.1.2,Win32,59.95203837,,,,,,,,8,Ontime,g,1,1.99,7,3,31,1,1,,,,,
,1.28,,,,,,,,,f.PNG,f,613f33f2e40fd13e4220888b,2021-10-19_11h42.34.633,forced_choiceRT,2021.1.2,Win32,59.95203837,,,,,,,,8,Ontime,f,1,1.92,8,0,32,0,1,,,,,
,0.88,,,,,,,,,j.PNG,j,613f33f2e40fd13e4220888b,2021-10-19_11h42.34.633,forced_choiceRT,2021.1.2,Win32,59.95203837,,,,,,,,8,Ontime,j,1,1.985,8,1,33,3,1,,,,,
,1.46,,,,,,,,,g.PNG,g,613f33f2e40fd13e4220888b,2021-10-19_11h42.34.633,forced_choiceRT,2021.1.2,Win32,59.95203837,,,,,,,,8,Ontime,f,0,2.036,8,2,34,1,1,,,,,
,1.77,,,,,,,,,j.PNG,j,613f33f2e40fd13e4220888b,2021-10-19_11h42.34.633,forced_choiceRT,2021.1.2,Win32,59.95203837,,,,,,,,8,Slow,h,0,2.202,8,3,35,3,1,,,,,
,0.37,,,,,,,,,f.PNG,f,613f33f2e40fd13e4220888b,2021-10-19_11h42.34.633,forced_choiceRT,2021.1.2,Win32,59.95203837,,,,,,,,8,Ontime,f,1,1.934,9,0,36,0,1,,,,,
,0.22,,,,,,,,,f.PNG,f,613f33f2e40fd13e4220888b,2021-10-19_11h42.34.633,forced_choiceRT,2021.1.2,Win32,59.95203837,,,,,,,,8,Ontime,f,1,2.004,9,1,37,0,1,,,,,
,0.58,,,,,,,,,j.PNG,j,613f33f2e40fd13e4220888b,2021-10-19_11h42.34.633,forced_choiceRT,2021.1.2,Win32,59.95203837,,,,,,,,8,Ontime,j,1,1.986,9,2,38,3,1,,,,,
,0.3,,,,,,,,,g.PNG,g,613f33f2e40fd13e4220888b,2021-10-19_11h42.34.633,forced_choiceRT,2021.1.2,Win32,59.95203837,,,,,,,,8,Ontime,g,1,2.036,9,3,39,1,1,,,,,
,,,,,,,,,,,,613f33f2e40fd13e4220888b,2021-10-19_11h42.34.633,forced_choiceRT,2021.1.2,Win32,59.95203837,,,,,,,,,,,,,,,,,,7,0,7,0,1
,1.48,,,,,,,,,g.PNG,g,613f33f2e40fd13e4220888b,2021-10-19_11h42.34.633,forced_choiceRT,2021.1.2,Win32,59.95203837,,,,,,,,9,Slow,g,1,2.162,0,0,0,1,1,,,,,
,1.85,,,,,,,,,g.PNG,g,613f33f2e40fd13e4220888b,2021-10-19_11h42.34.633,forced_choiceRT,2021.1.2,Win32,59.95203837,,,,,,,,9,Ontime,j,0,2.068,0,1,1,1,1,,,,,
,1.69,,,,,,,,,j.PNG,j,613f33f2e40fd13e4220888b,2021-10-19_11h42.34.633,forced_choiceRT,2021.1.2,Win32,59.95203837,,,,,,,,9,Ontime,h,0,2.067,0,2,2,3,1,,,,,
,0.28,,,,,,,,,j.PNG,j,613f33f2e40fd13e4220888b,2021-10-19_11h42.34.633,forced_choiceRT,2021.1.2,Win32,59.95203837,,,,,,,,9,Ontime,j,1,1.952,0,3,3,3,1,,,,,
,0.08,,,,,,,,,f.PNG,f,613f33f2e40fd13e4220888b,2021-10-19_11h42.34.633,forced_choiceRT,2021.1.2,Win32,59.95203837,,,,,,,,9,Ontime,f,1,1.985,1,0,4,0,1,,,,,
,1.01,,,,,,,,,h.PNG,h,613f33f2e40fd13e4220888b,2021-10-19_11h42.34.633,forced_choiceRT,2021.1.2,Win32,59.95203837,,,,,,,,9,Ontime,h,1,1.957,1,1,5,2,1,,,,,
,1.15,,,,,,,,,f.PNG,f,613f33f2e40fd13e4220888b,2021-10-19_11h42.34.633,forced_choiceRT,2021.1.2,Win32,59.95203837,,,,,,,,9,Ontime,f,1,2.001,1,2,6,0,1,,,,,
,0.58,,,,,,,,,g.PNG,g,613f33f2e40fd13e4220888b,2021-10-19_11h42.34.633,forced_choiceRT,2021.1.2,Win32,59.95203837,,,,,,,,9,Ontime,g,1,1.942,1,3,7,1,1,,,,,
,0.23,,,,,,,,,h.PNG,h,613f33f2e40fd13e4220888b,2021-10-19_11h42.34.633,forced_choiceRT,2021.1.2,Win32,59.95203837,,,,,,,,9,Ontime,h,1,2.069,2,0,8,2,1,,,,,
,1.15,,,,,,,,,h.PNG,h,613f33f2e40fd13e4220888b,2021-10-19_11h42.34.633,forced_choiceRT,2021.1.2,Win32,59.95203837,,,,,,,,9,Ontime,h,1,2.004,2,1,9,2,1,,,,,
,0.54,,,,,,,,,g.PNG,g,613f33f2e40fd13e4220888b,2021-10-19_11h42.34.633,forced_choiceRT,2021.1.2,Win32,59.95203837,,,,,,,,9,Ontime,g,1,2.047,2,2,10,1,1,,,,,
,0.98,,,,,,,,,j.PNG,j,613f33f2e40fd13e4220888b,2021-10-19_11h42.34.633,forced_choiceRT,2021.1.2,Win32,59.95203837,,,,,,,,9,Ontime,j,1,2.003,2,3,11,3,1,,,,,
,0.87,,,,,,,,,g.PNG,g,613f33f2e40fd13e4220888b,2021-10-19_11h42.34.633,forced_choiceRT,2021.1.2,Win32,59.95203837,,,,,,,,9,Ontime,g,1,2.038,3,0,12,1,1,,,,,
,0.81,,,,,,,,,f.PNG,f,613f33f2e40fd13e4220888b,2021-10-19_11h42.34.633,forced_choiceRT,2021.1.2,Win32,59.95203837,,,,,,,,9,Ontime,f,1,2.024,3,1,13,0,1,,,,,
,0.85,,,,,,,,,h.PNG,h,613f33f2e40fd13e4220888b,2021-10-19_11h42.34.633,forced_choiceRT,2021.1.2,Win32,59.95203837,,,,,,,,9,Fast,h,1,1.851,3,2,14,2,1,,,,,
,1.51,,,,,,,,,h.PNG,h,613f33f2e40fd13e4220888b,2021-10-19_11h42.34.633,forced_choiceRT,2021.1.2,Win32,59.95203837,,,,,,,,9,Slow,h,1,2.124,3,3,15,2,1,,,,,
,1.1,,,,,,,,,g.PNG,g,613f33f2e40fd13e4220888b,2021-10-19_11h42.34.633,forced_choiceRT,2021.1.2,Win32,59.95203837,,,,,,,,9,Ontime,g,1,2.004,4,0,16,1,1,,,,,
,1.2,,,,,,,,,j.PNG,j,613f33f2e40fd13e4220888b,2021-10-19_11h42.34.633,forced_choiceRT,2021.1.2,Win32,59.95203837,,,,,,,,9,Ontime,j,1,1.985,4,1,17,3,1,,,,,
,0.04,,,,,,,,,h.PNG,h,613f33f2e40fd13e4220888b,2021-10-19_11h42.34.633,forced_choiceRT,2021.1.2,Win32,59.95203837,,,,,,,,9,Ontime,h,1,2.003,4,2,18,2,1,,,,,
,1.19,,,,,,,,,f.PNG,f,613f33f2e40fd13e4220888b,2021-10-19_11h42.34.633,forced_choiceRT,2021.1.2,Win32,59.95203837,,,,,,,,9,Ontime,f,1,2.087,4,3,19,0,1,,,,,
,1.62,,,,,,,,,f.PNG,f,613f33f2e40fd13e4220888b,2021-10-19_11h42.34.633,forced_choiceRT,2021.1.2,Win32,59.95203837,,,,,,,,9,Slow,f,1,2.204,5,0,20,0,1,,,,,
,1.36,,,,,,,,,g.PNG,g,613f33f2e40fd13e4220888b,2021-10-19_11h42.34.633,forced_choiceRT,2021.1.2,Win32,59.95203837,,,,,,,,9,Slow,g,1,2.185,5,1,21,1,1,,,,,
,0.39,,,,,,,,,f.PNG,f,613f33f2e40fd13e4220888b,2021-10-19_11h42.34.633,forced_choiceRT,2021.1.2,Win32,59.95203837,,,,,,,,9,Ontime,f,1,1.985,5,2,22,0,1,,,,,
,1.45,,,,,,,,,j.PNG,j,613f33f2e40fd13e4220888b,2021-10-19_11h42.34.633,forced_choiceRT,2021.1.2,Win32,59.95203837,,,,,,,,9,Ontime,h,0,2.083,5,3,23,3,1,,,,,
,0.55,,,,,,,,,f.PNG,f,613f33f2e40fd13e4220888b,2021-10-19_11h42.34.633,forced_choiceRT,2021.1.2,Win32,59.95203837,,,,,,,,9,Fast,f,1,1.886,6,0,24,0,1,,,,,
,0.63,,,,,,,,,g.PNG,g,613f33f2e40fd13e4220888b,2021-10-19_11h42.34.633,forced_choiceRT,2021.1.2,Win32,59.95203837,,,,,,,,9,Ontime,g,1,2.053,6,1,25,1,1,,,,,
,0.54,,,,,,,,,j.PNG,j,613f33f2e40fd13e4220888b,2021-10-19_11h42.34.633,forced_choiceRT,2021.1.2,Win32,59.95203837,,,,,,,,9,Ontime,j,1,2.073,6,2,26,3,1,,,,,
,1.25,,,,,,,,,j.PNG,j,613f33f2e40fd13e4220888b,2021-10-19_11h42.34.633,forced_choiceRT,2021.1.2,Win32,59.95203837,,,,,,,,9,Ontime,j,1,2.02,6,3,27,3,1,,,,,
,1.07,,,,,,,,,g.PNG,g,613f33f2e40fd13e4220888b,2021-10-19_11h42.34.633,forced_choiceRT,2021.1.2,Win32,59.95203837,,,,,,,,9,Ontime,h,0,2.085,7,0,28,1,1,,,,,
,1.44,,,,,,,,,h.PNG,h,613f33f2e40fd13e4220888b,2021-10-19_11h42.34.633,forced_choiceRT,2021.1.2,Win32,59.95203837,,,,,,,,9,Slow,h,1,2.12,7,1,29,2,1,,,,,
,0.82,,,,,,,,,h.PNG,h,613f33f2e40fd13e4220888b,2021-10-19_11h42.34.633,forced_choiceRT,2021.1.2,Win32,59.95203837,,,,,,,,9,Ontime,h,1,2.023,7,2,30,2,1,,,,,
,0.47,,,,,,,,,j.PNG,j,613f33f2e40fd13e4220888b,2021-10-19_11h42.34.633,forced_choiceRT,2021.1.2,Win32,59.95203837,,,,,,,,9,Ontime,j,1,1.975,7,3,31,3,1,,,,,
,1.23,,,,,,,,,f.PNG,f,613f33f2e40fd13e4220888b,2021-10-19_11h42.34.633,forced_choiceRT,2021.1.2,Win32,59.95203837,,,,,,,,9,Slow,f,1,2.117,8,0,32,0,1,,,,,
,1.28,,,,,,,,,g.PNG,g,613f33f2e40fd13e4220888b,2021-10-19_11h42.34.633,forced_choiceRT,2021.1.2,Win32,59.95203837,,,,,,,,9,Slow,g,1,2.119,8,1,33,1,1,,,,,
,0.53,,,,,,,,,f.PNG,f,613f33f2e40fd13e4220888b,2021-10-19_11h42.34.633,forced_choiceRT,2021.1.2,Win32,59.95203837,,,,,,,,9,Ontime,f,1,2.018,8,2,34,0,1,,,,,
,1.82,,,,,,,,,j.PNG,j,613f33f2e40fd13e4220888b,2021-10-19_11h42.34.633,forced_choiceRT,2021.1.2,Win32,59.95203837,,,,,,,,9,Slow,g,0,2.203,8,3,35,3,1,,,,,
,1.4,,,,,,,,,f.PNG,f,613f33f2e40fd13e4220888b,2021-10-19_11h42.34.633,forced_choiceRT,2021.1.2,Win32,59.95203837,,,,,,,,9,Ontime,f,1,2.003,9,0,36,0,1,,,,,
,1.79,,,,,,,,,j.PNG,j,613f33f2e40fd13e4220888b,2021-10-19_11h42.34.633,forced_choiceRT,2021.1.2,Win32,59.95203837,,,,,,,,9,Ontime,h,0,2.037,9,1,37,3,1,,,,,
,1.12,,,,,,,,,h.PNG,h,613f33f2e40fd13e4220888b,2021-10-19_11h42.34.633,forced_choiceRT,2021.1.2,Win32,59.95203837,,,,,,,,9,Ontime,h,1,1.986,9,2,38,2,1,,,,,
,0.37,,,,,,,,,h.PNG,h,613f33f2e40fd13e4220888b,2021-10-19_11h42.34.633,forced_choiceRT,2021.1.2,Win32,59.95203837,,,,,,,,9,Ontime,h,1,2.041,9,3,39,2,1,,,,,
,,,,,,,,,,,,613f33f2e40fd13e4220888b,2021-10-19_11h42.34.633,forced_choiceRT,2021.1.2,Win32,59.95203837,,,,,,,,,,,,,,,,,,8,0,8,0,1
,1.02,,,,,,,,,f.PNG,f,613f33f2e40fd13e4220888b,2021-10-19_11h42.34.633,forced_choiceRT,2021.1.2,Win32,59.95203837,,,,,,,,10,Ontime,f,1,2.085,0,0,0,0,1,,,,,
,1.36,,,,,,,,,h.PNG,h,613f33f2e40fd13e4220888b,2021-10-19_11h42.34.633,forced_choiceRT,2021.1.2,Win32,59.95203837,,,,,,,,10,Ontime,h,1,2.037,0,1,1,2,1,,,,,
,1.39,,,,,,,,,h.PNG,h,613f33f2e40fd13e4220888b,2021-10-19_11h42.34.633,forced_choiceRT,2021.1.2,Win32,59.95203837,,,,,,,,10,Fast,h,1,1.885,0,2,2,2,1,,,,,
,1.89,,,,,,,,,j.PNG,j,613f33f2e40fd13e4220888b,2021-10-19_11h42.34.633,forced_choiceRT,2021.1.2,Win32,59.95203837,,,,,,,,10,Slow,h,0,2.153,0,3,3,3,1,,,,,
,0.48,,,,,,,,,g.PNG,g,613f33f2e40fd13e4220888b,2021-10-19_11h42.34.633,forced_choiceRT,2021.1.2,Win32,59.95203837,,,,,,,,10,Fast,g,1,1.563,1,0,4,1,1,,,,,
,1.28,,,,,,,,,j.PNG,j,613f33f2e40fd13e4220888b,2021-10-19_11h42.34.633,forced_choiceRT,2021.1.2,Win32,59.95203837,,,,,,,,10,Ontime,h,0,1.951,1,1,5,3,1,,,,,
,1.2,,,,,,,,,f.PNG,f,613f33f2e40fd13e4220888b,2021-10-19_11h42.34.633,forced_choiceRT,2021.1.2,Win32,59.95203837,,,,,,,,10,Ontime,f,1,2.053,1,2,6,0,1,,,,,
,1.48,,,,,,,,,j.PNG,j,613f33f2e40fd13e4220888b,2021-10-19_11h42.34.633,forced_choiceRT,2021.1.2,Win32,59.95203837,,,,,,,,10,Ontime,j,1,1.986,1,3,7,3,1,,,,,
,0.24,,,,,,,,,g.PNG,g,613f33f2e40fd13e4220888b,2021-10-19_11h42.34.633,forced_choiceRT,2021.1.2,Win32,59.95203837,,,,,,,,10,Ontime,g,1,2.053,2,0,8,1,1,,,,,
,1.89,,,,,,,,,h.PNG,h,613f33f2e40fd13e4220888b,2021-10-19_11h42.34.633,forced_choiceRT,2021.1.2,Win32,59.95203837,,,,,,,,10,Ontime,j,0,2.088,2,1,9,2,1,,,,,
,0.08,,,,,,,,,f.PNG,f,613f33f2e40fd13e4220888b,2021-10-19_11h42.34.633,forced_choiceRT,2021.1.2,Win32,59.95203837,,,,,,,,10,Ontime,f,1,2.017,2,2,10,0,1,,,,,
,1.42,,,,,,,,,j.PNG,j,613f33f2e40fd13e4220888b,2021-10-19_11h42.34.633,forced_choiceRT,2021.1.2,Win32,59.95203837,,,,,,,,10,Slow,j,1,2.137,2,3,11,3,1,,,,,
,0.98,,,,,,,,,g.PNG,g,613f33f2e40fd13e4220888b,2021-10-19_11h42.34.633,forced_choiceRT,2021.1.2,Win32,59.95203837,,,,,,,,10,Ontime,g,1,2.018,3,0,12,1,1,,,,,
,1.09,,,,,,,,,j.PNG,j,613f33f2e40fd13e4220888b,2021-10-19_11h42.34.633,forced_choiceRT,2021.1.2,Win32,59.95203837,,,,,,,,10,Ontime,j,1,2.037,3,1,13,3,1,,,,,
,0.73,,,,,,,,,h.PNG,h,613f33f2e40fd13e4220888b,2021-10-19_11h42.34.633,forced_choiceRT,2021.1.2,Win32,59.95203837,,,,,,,,10,Ontime,h,1,2.02,3,2,14,2,1,,,,,
,1.85,,,,,,,,,f.PNG,f,613f33f2e40fd13e4220888b,2021-10-19_11h42.34.633,forced_choiceRT,2021.1.2,Win32,59.95203837,,,,,,,,10,Ontime,h,0,2.068,3,3,15,0,1,,,,,
,1.14,,,,,,,,,j.PNG,j,613f33f2e40fd13e4220888b,2021-10-19_11h42.34.633,forced_choiceRT,2021.1.2,Win32,59.95203837,,,,,,,,10,Ontime,j,1,1.903,4,0,16,3,1,,,,,
,1.58,,,,,,,,,h.PNG,h,613f33f2e40fd13e4220888b,2021-10-19_11h42.34.633,forced_choiceRT,2021.1.2,Win32,59.95203837,,,,,,,,10,Ontime,j,0,1.936,4,1,17,2,1,,,,,
,0.53,,,,,,,,,g.PNG,g,613f33f2e40fd13e4220888b,2021-10-19_11h42.34.633,forced_choiceRT,2021.1.2,Win32,59.95203837,,,,,,,,10,Ontime,g,1,2.052,4,2,18,1,1,,,,,
,1.81,,,,,,,,,h.PNG,h,613f33f2e40fd13e4220888b,2021-10-19_11h42.34.633,forced_choiceRT,2021.1.2,Win32,59.95203837,,,,,,,,10,Slow,j,0,2.103,4,3,19,2,1,,,,,
,1.39,,,,,,,,,g.PNG,g,613f33f2e40fd13e4220888b,2021-10-19_11h42.34.633,forced_choiceRT,2021.1.2,Win32,59.95203837,,,,,,,,10,Ontime,h,0,2.018,5,0,20,1,1,,,,,
,0.55,,,,,,,,,j.PNG,j,613f33f2e40fd13e4220888b,2021-10-19_11h42.34.633,forced_choiceRT,2021.1.2,Win32,59.95203837,,,,,,,,10,Fast,j,1,1.869,5,1,21,3,1,,,,,
,1.61,,,,,,,,,f.PNG,f,613f33f2e40fd13e4220888b,2021-10-19_11h42.34.633,forced_choiceRT,2021.1.2,Win32,59.95203837,,,,,,,,10,Ontime,j,0,1.953,5,2,22,0,1,,,,,
,1.39,,,,,,,,,j.PNG,j,613f33f2e40fd13e4220888b,2021-10-19_11h42.34.633,forced_choiceRT,2021.1.2,Win32,59.95203837,,,,,,,,10,Ontime,j,1,2.036,5,3,23,3,1,,,,,
,0.78,,,,,,,,,f.PNG,f,613f33f2e40fd13e4220888b,2021-10-19_11h42.34.633,forced_choiceRT,2021.1.2,Win32,59.95203837,,,,,,,,10,Ontime,f,1,2.07,6,0,24,0,1,,,,,
,1.52,,,,,,,,,f.PNG,f,613f33f2e40fd13e4220888b,2021-10-19_11h42.34.633,forced_choiceRT,2021.1.2,Win32,59.95203837,,,,,,,,10,Ontime,f,1,2.068,6,1,25,0,1,,,,,
,1.67,,,,,,,,,g.PNG,g,613f33f2e40fd13e4220888b,2021-10-19_11h42.34.633,forced_choiceRT,2021.1.2,Win32,59.95203837,,,,,,,,10,Slow,h,0,2.17,6,2,26,1,1,,,,,
,0.24,,,,,,,,,h.PNG,h,613f33f2e40fd13e4220888b,2021-10-19_11h42.34.633,forced_choiceRT,2021.1.2,Win32,59.95203837,,,,,,,,10,Ontime,h,1,1.989,6,3,27,2,1,,,,,
,1.16,,,,,,,,,g.PNG,g,613f33f2e40fd13e4220888b,2021-10-19_11h42.34.633,forced_choiceRT,2021.1.2,Win32,59.95203837,,,,,,,,10,Ontime,g,1,1.935,7,0,28,1,1,,,,,
,1.4,,,,,,,,,f.PNG,f,613f33f2e40fd13e4220888b,2021-10-19_11h42.34.633,forced_choiceRT,2021.1.2,Win32,59.95203837,,,,,,,,10,Ontime,f,1,2.055,7,1,29,0,1,,,,,
,1.64,,,,,,,,,g.PNG,g,613f33f2e40fd13e4220888b,2021-10-19_11h42.34.633,forced_choiceRT,2021.1.2,Win32,59.95203837,,,,,,,,10,Slow,f,0,3.003,7,2,30,1,1,,,,,
,1.05,,,,,,,,,j.PNG,j,613f33f2e40fd13e4220888b,2021-10-19_11h42.34.633,forced_choiceRT,2021.1.2,Win32,59.95203837,,,,,,,,10,Ontime,j,1,1.919,7,3,31,3,1,,,,,
,1.74,,,,,,,,,h.PNG,h,613f33f2e40fd13e4220888b,2021-10-19_11h42.34.633,forced_choiceRT,2021.1.2,Win32,59.95203837,,,,,,,,10,Ontime,h,1,2.088,8,0,32,2,1,,,,,
,0.72,,,,,,,,,h.PNG,h,613f33f2e40fd13e4220888b,2021-10-19_11h42.34.633,forced_choiceRT,2021.1.2,Win32,59.95203837,,,,,,,,10,Fast,h,1,1.685,8,1,33,2,1,,,,,
,1.69,,,,,,,,,g.PNG,g,613f33f2e40fd13e4220888b,2021-10-19_11h42.34.633,forced_choiceRT,2021.1.2,Win32,59.95203837,,,,,,,,10,Slow,f,0,2.22,8,2,34,1,1,,,,,
,0.74,,,,,,,,,f.PNG,f,613f33f2e40fd13e4220888b,2021-10-19_11h42.34.633,forced_choiceRT,2021.1.2,Win32,59.95203837,,,,,,,,10,Ontime,f,1,2.021,8,3,35,0,1,,,,,
,0.75,,,,,,,,,f.PNG,f,613f33f2e40fd13e4220888b,2021-10-19_11h42.34.633,forced_choiceRT,2021.1.2,Win32,59.95203837,,,,,,,,10,Ontime,f,1,2.037,9,0,36,0,1,,,,,
,1.4,,,,,,,,,j.PNG,j,613f33f2e40fd13e4220888b,2021-10-19_11h42.34.633,forced_choiceRT,2021.1.2,Win32,59.95203837,,,,,,,,10,Ontime,j,1,2.067,9,1,37,3,1,,,,,
,1.67,,,,,,,,,g.PNG,g,613f33f2e40fd13e4220888b,2021-10-19_11h42.34.633,forced_choiceRT,2021.1.2,Win32,59.95203837,,,,,,,,10,Slow,j,0,2.166,9,2,38,1,1,,,,,
,0.13,,,,,,,,,h.PNG,h,613f33f2e40fd13e4220888b,2021-10-19_11h42.34.633,forced_choiceRT,2021.1.2,Win32,59.95203837,,,,,,,,10,Ontime,h,1,2.003,9,3,39,2,1,,,,,
,,,,,,,,,,,,613f33f2e40fd13e4220888b,2021-10-19_11h42.34.633,forced_choiceRT,2021.1.2,Win32,59.95203837,,,,,,,,,,,,,,,,,,9,0,9,0,1
