IP_Addresss,target_onset,trial_resp_sp.keys,trial_resp_sp.corr,trial_resp_sp.rt,trials_train_loop.thisRepN,trials_train_loop.thisTrialN,trials_train_loop.thisN,trials_train_loop.thisIndex,trials_train_loop.ran,pic,correct_key,participant,date,expName,psychopyVersion,OS,frameRate,trial_resp_timing.keys,trial_resp_timing.rt,trials_train_timing.thisRepN,trials_train_timing.thisTrialN,trials_train_timing.thisN,trials_train_timing.thisIndex,trials_train_timing.ran,block_id,ontime,forcedRT_resp.keys,forcedRT_resp.corr,forcedRT_resp.rt,trials.thisRepN,trials.thisTrialN,trials.thisN,trials.thisIndex,trials.ran,blocks.thisRepN,blocks.thisTrialN,blocks.thisN,blocks.thisIndex,blocks.ran
107.211.48.25,0,g,1,2.463,0,0,0,1,1,g.PNG,g,6140adb00d791e6bd0ab2ff5,2021-10-20_07h50.57.152,forced_choiceRT,2021.1.2,Win32,60.0240096,,,,,,,,,,,,,,,,,,,,,,
,0,f,1,1.985,0,1,1,0,1,f.PNG,f,6140adb00d791e6bd0ab2ff5,2021-10-20_07h50.57.152,forced_choiceRT,2021.1.2,Win32,60.0240096,,,,,,,,,,,,,,,,,,,,,,
,0,g,1,2.633,0,2,2,1,1,g.PNG,g,6140adb00d791e6bd0ab2ff5,2021-10-20_07h50.57.152,forced_choiceRT,2021.1.2,Win32,60.0240096,,,,,,,,,,,,,,,,,,,,,,
,0,g,1,3.704,0,3,3,1,1,g.PNG,g,6140adb00d791e6bd0ab2ff5,2021-10-20_07h50.57.152,forced_choiceRT,2021.1.2,Win32,60.0240096,,,,,,,,,,,,,,,,,,,,,,
,0,h,1,2.782,1,0,4,2,1,h.PNG,h,6140adb00d791e6bd0ab2ff5,2021-10-20_07h50.57.152,forced_choiceRT,2021.1.2,Win32,60.0240096,,,,,,,,,,,,,,,,,,,,,,
,0,h,1,2.034,1,1,5,2,1,h.PNG,h,6140adb00d791e6bd0ab2ff5,2021-10-20_07h50.57.152,forced_choiceRT,2021.1.2,Win32,60.0240096,,,,,,,,,,,,,,,,,,,,,,
,0,h,1,1.083,1,2,6,2,1,h.PNG,h,6140adb00d791e6bd0ab2ff5,2021-10-20_07h50.57.152,forced_choiceRT,2021.1.2,Win32,60.0240096,,,,,,,,,,,,,,,,,,,,,,
,0,g,1,3.165,1,3,7,1,1,g.PNG,g,6140adb00d791e6bd0ab2ff5,2021-10-20_07h50.57.152,forced_choiceRT,2021.1.2,Win32,60.0240096,,,,,,,,,,,,,,,,,,,,,,
,0,f,1,3.02,2,0,8,0,1,f.PNG,f,6140adb00d791e6bd0ab2ff5,2021-10-20_07h50.57.152,forced_choiceRT,2021.1.2,Win32,60.0240096,,,,,,,,,,,,,,,,,,,,,,
,0,g,1,1.852,2,1,9,1,1,g.PNG,g,6140adb00d791e6bd0ab2ff5,2021-10-20_07h50.57.152,forced_choiceRT,2021.1.2,Win32,60.0240096,,,,,,,,,,,,,,,,,,,,,,
,0,h,1,1.602,2,2,10,2,1,h.PNG,h,6140adb00d791e6bd0ab2ff5,2021-10-20_07h50.57.152,forced_choiceRT,2021.1.2,Win32,60.0240096,,,,,,,,,,,,,,,,,,,,,,
,0,h,1,3.351,2,3,11,2,1,h.PNG,h,6140adb00d791e6bd0ab2ff5,2021-10-20_07h50.57.152,forced_choiceRT,2021.1.2,Win32,60.0240096,,,,,,,,,,,,,,,,,,,,,,
,0,j,1,3.1,3,0,12,3,1,j.PNG,j,6140adb00d791e6bd0ab2ff5,2021-10-20_07h50.57.152,forced_choiceRT,2021.1.2,Win32,60.0240096,,,,,,,,,,,,,,,,,,,,,,
,0,g,1,1.753,3,1,13,1,1,g.PNG,g,6140adb00d791e6bd0ab2ff5,2021-10-20_07h50.57.152,forced_choiceRT,2021.1.2,Win32,60.0240096,,,,,,,,,,,,,,,,,,,,,,
,0,g,1,1.018,3,2,14,1,1,g.PNG,g,6140adb00d791e6bd0ab2ff5,2021-10-20_07h50.57.152,forced_choiceRT,2021.1.2,Win32,60.0240096,,,,,,,,,,,,,,,,,,,,,,
,0,g,1,2.77,3,3,15,1,1,g.PNG,g,6140adb00d791e6bd0ab2ff5,2021-10-20_07h50.57.152,forced_choiceRT,2021.1.2,Win32,60.0240096,,,,,,,,,,,,,,,,,,,,,,
,0,g,1,1.251,4,0,16,1,1,g.PNG,g,6140adb00d791e6bd0ab2ff5,2021-10-20_07h50.57.152,forced_choiceRT,2021.1.2,Win32,60.0240096,,,,,,,,,,,,,,,,,,,,,,
,0,g,1,1.016,4,1,17,1,1,g.PNG,g,6140adb00d791e6bd0ab2ff5,2021-10-20_07h50.57.152,forced_choiceRT,2021.1.2,Win32,60.0240096,,,,,,,,,,,,,,,,,,,,,,
,0,j,1,0.968,4,2,18,3,1,j.PNG,j,6140adb00d791e6bd0ab2ff5,2021-10-20_07h50.57.152,forced_choiceRT,2021.1.2,Win32,60.0240096,,,,,,,,,,,,,,,,,,,,,,
,0,g,1,1.001,4,3,19,1,1,g.PNG,g,6140adb00d791e6bd0ab2ff5,2021-10-20_07h50.57.152,forced_choiceRT,2021.1.2,Win32,60.0240096,,,,,,,,,,,,,,,,,,,,,,
,0,j,1,1.083,5,0,20,3,1,j.PNG,j,6140adb00d791e6bd0ab2ff5,2021-10-20_07h50.57.152,forced_choiceRT,2021.1.2,Win32,60.0240096,,,,,,,,,,,,,,,,,,,,,,
,0,g,1,1.035,5,1,21,1,1,g.PNG,g,6140adb00d791e6bd0ab2ff5,2021-10-20_07h50.57.152,forced_choiceRT,2021.1.2,Win32,60.0240096,,,,,,,,,,,,,,,,,,,,,,
,0,f,1,1.052,5,2,22,0,1,f.PNG,f,6140adb00d791e6bd0ab2ff5,2021-10-20_07h50.57.152,forced_choiceRT,2021.1.2,Win32,60.0240096,,,,,,,,,,,,,,,,,,,,,,
,0,h,1,1.502,5,3,23,2,1,h.PNG,h,6140adb00d791e6bd0ab2ff5,2021-10-20_07h50.57.152,forced_choiceRT,2021.1.2,Win32,60.0240096,,,,,,,,,,,,,,,,,,,,,,
,0,f,1,1.634,6,0,24,0,1,f.PNG,f,6140adb00d791e6bd0ab2ff5,2021-10-20_07h50.57.152,forced_choiceRT,2021.1.2,Win32,60.0240096,,,,,,,,,,,,,,,,,,,,,,
,0,j,1,1.318,6,1,25,3,1,j.PNG,j,6140adb00d791e6bd0ab2ff5,2021-10-20_07h50.57.152,forced_choiceRT,2021.1.2,Win32,60.0240096,,,,,,,,,,,,,,,,,,,,,,
,0,j,1,2.15,6,2,26,3,1,j.PNG,j,6140adb00d791e6bd0ab2ff5,2021-10-20_07h50.57.152,forced_choiceRT,2021.1.2,Win32,60.0240096,,,,,,,,,,,,,,,,,,,,,,
,0,f,1,1.168,6,3,27,0,1,f.PNG,f,6140adb00d791e6bd0ab2ff5,2021-10-20_07h50.57.152,forced_choiceRT,2021.1.2,Win32,60.0240096,,,,,,,,,,,,,,,,,,,,,,
,0,f,1,4.036,7,0,28,0,1,f.PNG,f,6140adb00d791e6bd0ab2ff5,2021-10-20_07h50.57.152,forced_choiceRT,2021.1.2,Win32,60.0240096,,,,,,,,,,,,,,,,,,,,,,
,0,f,1,4.298,7,1,29,0,1,f.PNG,f,6140adb00d791e6bd0ab2ff5,2021-10-20_07h50.57.152,forced_choiceRT,2021.1.2,Win32,60.0240096,,,,,,,,,,,,,,,,,,,,,,
,0,h,1,2.057,7,2,30,2,1,h.PNG,h,6140adb00d791e6bd0ab2ff5,2021-10-20_07h50.57.152,forced_choiceRT,2021.1.2,Win32,60.0240096,,,,,,,,,,,,,,,,,,,,,,
,0,f,1,1.686,7,3,31,0,1,f.PNG,f,6140adb00d791e6bd0ab2ff5,2021-10-20_07h50.57.152,forced_choiceRT,2021.1.2,Win32,60.0240096,,,,,,,,,,,,,,,,,,,,,,
,0,h,1,2.1,8,0,32,2,1,h.PNG,h,6140adb00d791e6bd0ab2ff5,2021-10-20_07h50.57.152,forced_choiceRT,2021.1.2,Win32,60.0240096,,,,,,,,,,,,,,,,,,,,,,
,0,h,1,2.766,8,1,33,2,1,h.PNG,h,6140adb00d791e6bd0ab2ff5,2021-10-20_07h50.57.152,forced_choiceRT,2021.1.2,Win32,60.0240096,,,,,,,,,,,,,,,,,,,,,,
,0,h,1,1.2,8,2,34,2,1,h.PNG,h,6140adb00d791e6bd0ab2ff5,2021-10-20_07h50.57.152,forced_choiceRT,2021.1.2,Win32,60.0240096,,,,,,,,,,,,,,,,,,,,,,
,0,j,1,1.088,8,3,35,3,1,j.PNG,j,6140adb00d791e6bd0ab2ff5,2021-10-20_07h50.57.152,forced_choiceRT,2021.1.2,Win32,60.0240096,,,,,,,,,,,,,,,,,,,,,,
,0,h,1,0.805,9,0,36,2,1,h.PNG,h,6140adb00d791e6bd0ab2ff5,2021-10-20_07h50.57.152,forced_choiceRT,2021.1.2,Win32,60.0240096,,,,,,,,,,,,,,,,,,,,,,
,0,f,1,0.853,9,1,37,0,1,f.PNG,f,6140adb00d791e6bd0ab2ff5,2021-10-20_07h50.57.152,forced_choiceRT,2021.1.2,Win32,60.0240096,,,,,,,,,,,,,,,,,,,,,,
,0,j,1,1.039,9,2,38,3,1,j.PNG,j,6140adb00d791e6bd0ab2ff5,2021-10-20_07h50.57.152,forced_choiceRT,2021.1.2,Win32,60.0240096,,,,,,,,,,,,,,,,,,,,,,
,0,j,1,2.249,9,3,39,3,1,j.PNG,j,6140adb00d791e6bd0ab2ff5,2021-10-20_07h50.57.152,forced_choiceRT,2021.1.2,Win32,60.0240096,,,,,,,,,,,,,,,,,,,,,,
,0,g,1,2.085,10,0,40,1,1,g.PNG,g,6140adb00d791e6bd0ab2ff5,2021-10-20_07h50.57.152,forced_choiceRT,2021.1.2,Win32,60.0240096,,,,,,,,,,,,,,,,,,,,,,
,0,f,1,1.001,10,1,41,0,1,f.PNG,f,6140adb00d791e6bd0ab2ff5,2021-10-20_07h50.57.152,forced_choiceRT,2021.1.2,Win32,60.0240096,,,,,,,,,,,,,,,,,,,,,,
,0,h,1,2.251,10,2,42,2,1,h.PNG,h,6140adb00d791e6bd0ab2ff5,2021-10-20_07h50.57.152,forced_choiceRT,2021.1.2,Win32,60.0240096,,,,,,,,,,,,,,,,,,,,,,
,0,j,1,1.138,10,3,43,3,1,j.PNG,j,6140adb00d791e6bd0ab2ff5,2021-10-20_07h50.57.152,forced_choiceRT,2021.1.2,Win32,60.0240096,,,,,,,,,,,,,,,,,,,,,,
,0,j,1,0.517,11,0,44,3,1,j.PNG,j,6140adb00d791e6bd0ab2ff5,2021-10-20_07h50.57.152,forced_choiceRT,2021.1.2,Win32,60.0240096,,,,,,,,,,,,,,,,,,,,,,
,0,f,1,0.766,11,1,45,0,1,f.PNG,f,6140adb00d791e6bd0ab2ff5,2021-10-20_07h50.57.152,forced_choiceRT,2021.1.2,Win32,60.0240096,,,,,,,,,,,,,,,,,,,,,,
,0,h,1,1.5,11,2,46,2,1,h.PNG,h,6140adb00d791e6bd0ab2ff5,2021-10-20_07h50.57.152,forced_choiceRT,2021.1.2,Win32,60.0240096,,,,,,,,,,,,,,,,,,,,,,
,0,g,1,2.15,11,3,47,1,1,g.PNG,g,6140adb00d791e6bd0ab2ff5,2021-10-20_07h50.57.152,forced_choiceRT,2021.1.2,Win32,60.0240096,,,,,,,,,,,,,,,,,,,,,,
,0,g,1,1.3,12,0,48,1,1,g.PNG,g,6140adb00d791e6bd0ab2ff5,2021-10-20_07h50.57.152,forced_choiceRT,2021.1.2,Win32,60.0240096,,,,,,,,,,,,,,,,,,,,,,
,0,j,1,2.737,12,1,49,3,1,j.PNG,j,6140adb00d791e6bd0ab2ff5,2021-10-20_07h50.57.152,forced_choiceRT,2021.1.2,Win32,60.0240096,,,,,,,,,,,,,,,,,,,,,,
,0,h,1,2.589,12,2,50,2,1,h.PNG,h,6140adb00d791e6bd0ab2ff5,2021-10-20_07h50.57.152,forced_choiceRT,2021.1.2,Win32,60.0240096,,,,,,,,,,,,,,,,,,,,,,
,0,j,1,1.683,12,3,51,3,1,j.PNG,j,6140adb00d791e6bd0ab2ff5,2021-10-20_07h50.57.152,forced_choiceRT,2021.1.2,Win32,60.0240096,,,,,,,,,,,,,,,,,,,,,,
,0,f,1,0.767,13,0,52,0,1,f.PNG,f,6140adb00d791e6bd0ab2ff5,2021-10-20_07h50.57.152,forced_choiceRT,2021.1.2,Win32,60.0240096,,,,,,,,,,,,,,,,,,,,,,
,0,h,1,1.283,13,1,53,2,1,h.PNG,h,6140adb00d791e6bd0ab2ff5,2021-10-20_07h50.57.152,forced_choiceRT,2021.1.2,Win32,60.0240096,,,,,,,,,,,,,,,,,,,,,,
,0,j,1,0.684,13,2,54,3,1,j.PNG,j,6140adb00d791e6bd0ab2ff5,2021-10-20_07h50.57.152,forced_choiceRT,2021.1.2,Win32,60.0240096,,,,,,,,,,,,,,,,,,,,,,
,0,f,1,0.734,13,3,55,0,1,f.PNG,f,6140adb00d791e6bd0ab2ff5,2021-10-20_07h50.57.152,forced_choiceRT,2021.1.2,Win32,60.0240096,,,,,,,,,,,,,,,,,,,,,,
,0,f,1,1.516,14,0,56,0,1,f.PNG,f,6140adb00d791e6bd0ab2ff5,2021-10-20_07h50.57.152,forced_choiceRT,2021.1.2,Win32,60.0240096,,,,,,,,,,,,,,,,,,,,,,
,0,j,1,0.767,14,1,57,3,1,j.PNG,j,6140adb00d791e6bd0ab2ff5,2021-10-20_07h50.57.152,forced_choiceRT,2021.1.2,Win32,60.0240096,,,,,,,,,,,,,,,,,,,,,,
,0,j,1,0.685,14,2,58,3,1,j.PNG,j,6140adb00d791e6bd0ab2ff5,2021-10-20_07h50.57.152,forced_choiceRT,2021.1.2,Win32,60.0240096,,,,,,,,,,,,,,,,,,,,,,
,0,f,1,0.801,14,3,59,0,1,f.PNG,f,6140adb00d791e6bd0ab2ff5,2021-10-20_07h50.57.152,forced_choiceRT,2021.1.2,Win32,60.0240096,,,,,,,,,,,,,,,,,,,,,,
,,,,,,,,,,,,6140adb00d791e6bd0ab2ff5,2021-10-20_07h50.57.152,forced_choiceRT,2021.1.2,Win32,60.0240096,f,16.293,0,0,0,0,1,,,,,,,,,,,,,,,
,,,,,,,,,,,,6140adb00d791e6bd0ab2ff5,2021-10-20_07h50.57.152,forced_choiceRT,2021.1.2,Win32,60.0240096,f,0.201,1,0,1,0,1,,,,,,,,,,,,,,,
,,,,,,,,,,,,6140adb00d791e6bd0ab2ff5,2021-10-20_07h50.57.152,forced_choiceRT,2021.1.2,Win32,60.0240096,f,0.435,2,0,2,0,1,,,,,,,,,,,,,,,
,,,,,,,,,,,,6140adb00d791e6bd0ab2ff5,2021-10-20_07h50.57.152,forced_choiceRT,2021.1.2,Win32,60.0240096,h,0.353,3,0,3,0,1,,,,,,,,,,,,,,,
,,,,,,,,,,,,6140adb00d791e6bd0ab2ff5,2021-10-20_07h50.57.152,forced_choiceRT,2021.1.2,Win32,60.0240096,g,0.356,4,0,4,0,1,,,,,,,,,,,,,,,
,,,,,,,,,,,,6140adb00d791e6bd0ab2ff5,2021-10-20_07h50.57.152,forced_choiceRT,2021.1.2,Win32,60.0240096,j,0.302,5,0,5,0,1,,,,,,,,,,,,,,,
,,,,,,,,,,,,6140adb00d791e6bd0ab2ff5,2021-10-20_07h50.57.152,forced_choiceRT,2021.1.2,Win32,60.0240096,h,0.705,6,0,6,0,1,,,,,,,,,,,,,,,
,,,,,,,,,,,,6140adb00d791e6bd0ab2ff5,2021-10-20_07h50.57.152,forced_choiceRT,2021.1.2,Win32,60.0240096,h,1.734,7,0,7,0,1,,,,,,,,,,,,,,,
,,,,,,,,,,,,6140adb00d791e6bd0ab2ff5,2021-10-20_07h50.57.152,forced_choiceRT,2021.1.2,Win32,60.0240096,f,0.704,8,0,8,0,1,,,,,,,,,,,,,,,
,,,,,,,,,,,,6140adb00d791e6bd0ab2ff5,2021-10-20_07h50.57.152,forced_choiceRT,2021.1.2,Win32,60.0240096,h,0.451,9,0,9,0,1,,,,,,,,,,,,,,,
,,,,,,,,,,,,6140adb00d791e6bd0ab2ff5,2021-10-20_07h50.57.152,forced_choiceRT,2021.1.2,Win32,60.0240096,j,0.352,10,0,10,0,1,,,,,,,,,,,,,,,
,,,,,,,,,,,,6140adb00d791e6bd0ab2ff5,2021-10-20_07h50.57.152,forced_choiceRT,2021.1.2,Win32,60.0240096,g,0.286,11,0,11,0,1,,,,,,,,,,,,,,,
,,,,,,,,,,,,6140adb00d791e6bd0ab2ff5,2021-10-20_07h50.57.152,forced_choiceRT,2021.1.2,Win32,60.0240096,g,0.304,12,0,12,0,1,,,,,,,,,,,,,,,
,,,,,,,,,,,,6140adb00d791e6bd0ab2ff5,2021-10-20_07h50.57.152,forced_choiceRT,2021.1.2,Win32,60.0240096,h,0.252,13,0,13,0,1,,,,,,,,,,,,,,,
,,,,,,,,,,,,6140adb00d791e6bd0ab2ff5,2021-10-20_07h50.57.152,forced_choiceRT,2021.1.2,Win32,60.0240096,j,0.419,14,0,14,0,1,,,,,,,,,,,,,,,
,,,,,,,,,,,,6140adb00d791e6bd0ab2ff5,2021-10-20_07h50.57.152,forced_choiceRT,2021.1.2,Win32,60.0240096,f,0.319,15,0,15,0,1,,,,,,,,,,,,,,,
,,,,,,,,,,,,6140adb00d791e6bd0ab2ff5,2021-10-20_07h50.57.152,forced_choiceRT,2021.1.2,Win32,60.0240096,h,0.335,16,0,16,0,1,,,,,,,,,,,,,,,
,,,,,,,,,,,,6140adb00d791e6bd0ab2ff5,2021-10-20_07h50.57.152,forced_choiceRT,2021.1.2,Win32,60.0240096,j,0.333,17,0,17,0,1,,,,,,,,,,,,,,,
,,,,,,,,,,,,6140adb00d791e6bd0ab2ff5,2021-10-20_07h50.57.152,forced_choiceRT,2021.1.2,Win32,60.0240096,g,0.32,18,0,18,0,1,,,,,,,,,,,,,,,
,,,,,,,,,,,,6140adb00d791e6bd0ab2ff5,2021-10-20_07h50.57.152,forced_choiceRT,2021.1.2,Win32,60.0240096,f,0.753,19,0,19,0,1,,,,,,,,,,,,,,,
,0.72,,,,,,,,,g.PNG,g,6140adb00d791e6bd0ab2ff5,2021-10-20_07h50.57.152,forced_choiceRT,2021.1.2,Win32,60.0240096,,,,,,,,1,Slow,h,0,2.3,0,0,0,1,1,,,,,
,0.09,,,,,,,,,j.PNG,j,6140adb00d791e6bd0ab2ff5,2021-10-20_07h50.57.152,forced_choiceRT,2021.1.2,Win32,60.0240096,,,,,,,,1,Fast,j,1,0.835,0,1,1,3,1,,,,,
,1.93,,,,,,,,,j.PNG,j,6140adb00d791e6bd0ab2ff5,2021-10-20_07h50.57.152,forced_choiceRT,2021.1.2,Win32,60.0240096,,,,,,,,1,Fast,j,1,1.871,0,2,2,3,1,,,,,
,1.01,,,,,,,,,j.PNG,j,6140adb00d791e6bd0ab2ff5,2021-10-20_07h50.57.152,forced_choiceRT,2021.1.2,Win32,60.0240096,,,,,,,,1,Fast,j,1,1.654,0,3,3,3,1,,,,,
,0.74,,,,,,,,,g.PNG,g,6140adb00d791e6bd0ab2ff5,2021-10-20_07h50.57.152,forced_choiceRT,2021.1.2,Win32,60.0240096,,,,,,,,1,Fast,j,0,1.401,1,0,4,1,1,,,,,
,0.37,,,,,,,,,g.PNG,g,6140adb00d791e6bd0ab2ff5,2021-10-20_07h50.57.152,forced_choiceRT,2021.1.2,Win32,60.0240096,,,,,,,,1,Fast,g,1,1.221,1,1,5,1,1,,,,,
,1.87,,,,,,,,,h.PNG,h,6140adb00d791e6bd0ab2ff5,2021-10-20_07h50.57.152,forced_choiceRT,2021.1.2,Win32,60.0240096,,,,,,,,1,Slow,h,1,2.236,1,2,6,2,1,,,,,
,0.69,,,,,,,,,g.PNG,g,6140adb00d791e6bd0ab2ff5,2021-10-20_07h50.57.152,forced_choiceRT,2021.1.2,Win32,60.0240096,,,,,,,,1,Fast,j,0,1.568,1,3,7,1,1,,,,,
,0,,,,,,,,,f.PNG,f,6140adb00d791e6bd0ab2ff5,2021-10-20_07h50.57.152,forced_choiceRT,2021.1.2,Win32,60.0240096,,,,,,,,1,Fast,f,1,0.816,2,0,8,0,1,,,,,
,1.08,,,,,,,,,h.PNG,h,6140adb00d791e6bd0ab2ff5,2021-10-20_07h50.57.152,forced_choiceRT,2021.1.2,Win32,60.0240096,,,,,,,,1,Ontime,h,1,2.051,2,1,9,2,1,,,,,
,0.71,,,,,,,,,f.PNG,f,6140adb00d791e6bd0ab2ff5,2021-10-20_07h50.57.152,forced_choiceRT,2021.1.2,Win32,60.0240096,,,,,,,,1,Fast,f,1,1.269,2,2,10,0,1,,,,,
,1.05,,,,,,,,,g.PNG,g,6140adb00d791e6bd0ab2ff5,2021-10-20_07h50.57.152,forced_choiceRT,2021.1.2,Win32,60.0240096,,,,,,,,1,Ontime,j,0,2.05,2,3,11,1,1,,,,,
,1.98,,,,,,,,,f.PNG,f,6140adb00d791e6bd0ab2ff5,2021-10-20_07h50.57.152,forced_choiceRT,2021.1.2,Win32,60.0240096,,,,,,,,1,Slow,h,0,2.251,3,0,12,0,1,,,,,
,1.24,,,,,,,,,g.PNG,g,6140adb00d791e6bd0ab2ff5,2021-10-20_07h50.57.152,forced_choiceRT,2021.1.2,Win32,60.0240096,,,,,,,,1,Fast,j,0,1.8,3,1,13,1,1,,,,,
,1.12,,,,,,,,,h.PNG,h,6140adb00d791e6bd0ab2ff5,2021-10-20_07h50.57.152,forced_choiceRT,2021.1.2,Win32,60.0240096,,,,,,,,1,Slow,j,0,2.103,3,2,14,2,1,,,,,
,0.2,,,,,,,,,j.PNG,j,6140adb00d791e6bd0ab2ff5,2021-10-20_07h50.57.152,forced_choiceRT,2021.1.2,Win32,60.0240096,,,,,,,,1,Fast,j,1,0.934,3,3,15,3,1,,,,,
,0.78,,,,,,,,,h.PNG,h,6140adb00d791e6bd0ab2ff5,2021-10-20_07h50.57.152,forced_choiceRT,2021.1.2,Win32,60.0240096,,,,,,,,1,Fast,h,1,1.734,4,0,16,2,1,,,,,
,0.62,,,,,,,,,j.PNG,j,6140adb00d791e6bd0ab2ff5,2021-10-20_07h50.57.152,forced_choiceRT,2021.1.2,Win32,60.0240096,,,,,,,,1,Fast,j,1,1.318,4,1,17,3,1,,,,,
,1.37,,,,,,,,,h.PNG,h,6140adb00d791e6bd0ab2ff5,2021-10-20_07h50.57.152,forced_choiceRT,2021.1.2,Win32,60.0240096,,,,,,,,1,Slow,h,1,2.351,4,2,18,2,1,,,,,
,0.3,,,,,,,,,j.PNG,j,6140adb00d791e6bd0ab2ff5,2021-10-20_07h50.57.152,forced_choiceRT,2021.1.2,Win32,60.0240096,,,,,,,,1,Fast,j,1,1.034,4,3,19,3,1,,,,,
,1.66,,,,,,,,,g.PNG,g,6140adb00d791e6bd0ab2ff5,2021-10-20_07h50.57.152,forced_choiceRT,2021.1.2,Win32,60.0240096,,,,,,,,1,Ontime,j,0,2.088,5,0,20,1,1,,,,,
,1.92,,,,,,,,,f.PNG,f,6140adb00d791e6bd0ab2ff5,2021-10-20_07h50.57.152,forced_choiceRT,2021.1.2,Win32,60.0240096,,,,,,,,1,Slow,h,0,2.255,5,1,21,0,1,,,,,
,1.93,,,,,,,,,f.PNG,f,6140adb00d791e6bd0ab2ff5,2021-10-20_07h50.57.152,forced_choiceRT,2021.1.2,Win32,60.0240096,,,,,,,,1,Slow,j,0,2.202,5,2,22,0,1,,,,,
,1.75,,,,,,,,,h.PNG,h,6140adb00d791e6bd0ab2ff5,2021-10-20_07h50.57.152,forced_choiceRT,2021.1.2,Win32,60.0240096,,,,,,,,1,Slow,h,1,2.267,5,3,23,2,1,,,,,
,0.22,,,,,,,,,h.PNG,h,6140adb00d791e6bd0ab2ff5,2021-10-20_07h50.57.152,forced_choiceRT,2021.1.2,Win32,60.0240096,,,,,,,,1,Fast,h,1,1.086,6,0,24,2,1,,,,,
,1.12,,,,,,,,,j.PNG,j,6140adb00d791e6bd0ab2ff5,2021-10-20_07h50.57.152,forced_choiceRT,2021.1.2,Win32,60.0240096,,,,,,,,1,Fast,h,0,1.618,6,1,25,3,1,,,,,
,1.25,,,,,,,,,f.PNG,f,6140adb00d791e6bd0ab2ff5,2021-10-20_07h50.57.152,forced_choiceRT,2021.1.2,Win32,60.0240096,,,,,,,,1,Fast,f,1,1.885,6,2,26,0,1,,,,,
,1.5,,,,,,,,,g.PNG,g,6140adb00d791e6bd0ab2ff5,2021-10-20_07h50.57.152,forced_choiceRT,2021.1.2,Win32,60.0240096,,,,,,,,1,Ontime,g,1,1.918,6,3,27,1,1,,,,,
,0.6,,,,,,,,,g.PNG,g,6140adb00d791e6bd0ab2ff5,2021-10-20_07h50.57.152,forced_choiceRT,2021.1.2,Win32,60.0240096,,,,,,,,1,Fast,j,0,1.536,7,0,28,1,1,,,,,
,0.01,,,,,,,,,j.PNG,j,6140adb00d791e6bd0ab2ff5,2021-10-20_07h50.57.152,forced_choiceRT,2021.1.2,Win32,60.0240096,,,,,,,,1,Fast,j,1,0.736,7,1,29,3,1,,,,,
,0.2,,,,,,,,,h.PNG,h,6140adb00d791e6bd0ab2ff5,2021-10-20_07h50.57.152,forced_choiceRT,2021.1.2,Win32,60.0240096,,,,,,,,1,Fast,h,1,0.822,7,2,30,2,1,,,,,
,1.55,,,,,,,,,j.PNG,j,6140adb00d791e6bd0ab2ff5,2021-10-20_07h50.57.152,forced_choiceRT,2021.1.2,Win32,60.0240096,,,,,,,,1,Slow,j,1,2.185,7,3,31,3,1,,,,,
,0.09,,,,,,,,,f.PNG,f,6140adb00d791e6bd0ab2ff5,2021-10-20_07h50.57.152,forced_choiceRT,2021.1.2,Win32,60.0240096,,,,,,,,1,Fast,f,1,1.202,8,0,32,0,1,,,,,
,1.62,,,,,,,,,f.PNG,f,6140adb00d791e6bd0ab2ff5,2021-10-20_07h50.57.152,forced_choiceRT,2021.1.2,Win32,60.0240096,,,,,,,,1,Slow,f,1,2.217,8,1,33,0,1,,,,,
,0.18,,,,,,,,,f.PNG,f,6140adb00d791e6bd0ab2ff5,2021-10-20_07h50.57.152,forced_choiceRT,2021.1.2,Win32,60.0240096,,,,,,,,1,Fast,f,1,0.968,8,2,34,0,1,,,,,
,1.17,,,,,,,,,h.PNG,h,6140adb00d791e6bd0ab2ff5,2021-10-20_07h50.57.152,forced_choiceRT,2021.1.2,Win32,60.0240096,,,,,,,,1,Slow,j,0,2.168,8,3,35,2,1,,,,,
,1.25,,,,,,,,,j.PNG,j,6140adb00d791e6bd0ab2ff5,2021-10-20_07h50.57.152,forced_choiceRT,2021.1.2,Win32,60.0240096,,,,,,,,1,Fast,j,1,1.884,9,0,36,3,1,,,,,
,0.29,,,,,,,,,g.PNG,g,6140adb00d791e6bd0ab2ff5,2021-10-20_07h50.57.152,forced_choiceRT,2021.1.2,Win32,60.0240096,,,,,,,,1,Fast,g,1,1.617,9,1,37,1,1,,,,,
,0.18,,,,,,,,,f.PNG,f,6140adb00d791e6bd0ab2ff5,2021-10-20_07h50.57.152,forced_choiceRT,2021.1.2,Win32,60.0240096,,,,,,,,1,Fast,f,1,0.816,9,2,38,0,1,,,,,
,0.12,,,,,,,,,h.PNG,h,6140adb00d791e6bd0ab2ff5,2021-10-20_07h50.57.152,forced_choiceRT,2021.1.2,Win32,60.0240096,,,,,,,,1,Fast,h,1,1.452,9,3,39,2,1,,,,,
,,,,,,,,,,,,6140adb00d791e6bd0ab2ff5,2021-10-20_07h50.57.152,forced_choiceRT,2021.1.2,Win32,60.0240096,,,,,,,,,,,,,,,,,,0,0,0,0,1
,1.04,,,,,,,,,j.PNG,j,6140adb00d791e6bd0ab2ff5,2021-10-20_07h50.57.152,forced_choiceRT,2021.1.2,Win32,60.0240096,,,,,,,,2,Fast,j,1,1.784,0,0,0,3,1,,,,,
,1.35,,,,,,,,,g.PNG,g,6140adb00d791e6bd0ab2ff5,2021-10-20_07h50.57.152,forced_choiceRT,2021.1.2,Win32,60.0240096,,,,,,,,2,Ontime,j,0,1.971,0,1,1,1,1,,,,,
,1.24,,,,,,,,,h.PNG,h,6140adb00d791e6bd0ab2ff5,2021-10-20_07h50.57.152,forced_choiceRT,2021.1.2,Win32,60.0240096,,,,,,,,2,Ontime,h,1,1.983,0,2,2,2,1,,,,,
,1.05,,,,,,,,,j.PNG,j,6140adb00d791e6bd0ab2ff5,2021-10-20_07h50.57.152,forced_choiceRT,2021.1.2,Win32,60.0240096,,,,,,,,2,Fast,j,1,1.823,0,3,3,3,1,,,,,
,0.36,,,,,,,,,f.PNG,f,6140adb00d791e6bd0ab2ff5,2021-10-20_07h50.57.152,forced_choiceRT,2021.1.2,Win32,60.0240096,,,,,,,,2,Fast,f,1,1.037,1,0,4,0,1,,,,,
,0.25,,,,,,,,,g.PNG,g,6140adb00d791e6bd0ab2ff5,2021-10-20_07h50.57.152,forced_choiceRT,2021.1.2,Win32,60.0240096,,,,,,,,2,Fast,g,1,1.535,1,1,5,1,1,,,,,
,0.14,,,,,,,,,g.PNG,g,6140adb00d791e6bd0ab2ff5,2021-10-20_07h50.57.152,forced_choiceRT,2021.1.2,Win32,60.0240096,,,,,,,,2,Fast,g,1,1.351,1,2,6,1,1,,,,,
,1.21,,,,,,,,,h.PNG,h,6140adb00d791e6bd0ab2ff5,2021-10-20_07h50.57.152,forced_choiceRT,2021.1.2,Win32,60.0240096,,,,,,,,2,Ontime,h,1,2.067,1,3,7,2,1,,,,,
,1.14,,,,,,,,,f.PNG,f,6140adb00d791e6bd0ab2ff5,2021-10-20_07h50.57.152,forced_choiceRT,2021.1.2,Win32,60.0240096,,,,,,,,2,Fast,f,1,1.817,2,0,8,0,1,,,,,
,1.79,,,,,,,,,f.PNG,f,6140adb00d791e6bd0ab2ff5,2021-10-20_07h50.57.152,forced_choiceRT,2021.1.2,Win32,60.0240096,,,,,,,,2,Slow,f,1,2.353,2,1,9,0,1,,,,,
,0.87,,,,,,,,,f.PNG,f,6140adb00d791e6bd0ab2ff5,2021-10-20_07h50.57.152,forced_choiceRT,2021.1.2,Win32,60.0240096,,,,,,,,2,Fast,f,1,1.483,2,2,10,0,1,,,,,
,1.5,,,,,,,,,j.PNG,j,6140adb00d791e6bd0ab2ff5,2021-10-20_07h50.57.152,forced_choiceRT,2021.1.2,Win32,60.0240096,,,,,,,,2,Fast,f,0,1.885,2,3,11,3,1,,,,,
,1.08,,,,,,,,,h.PNG,h,6140adb00d791e6bd0ab2ff5,2021-10-20_07h50.57.152,forced_choiceRT,2021.1.2,Win32,60.0240096,,,,,,,,2,Fast,h,1,1.809,3,0,12,2,1,,,,,
,1.51,,,,,,,,,h.PNG,h,6140adb00d791e6bd0ab2ff5,2021-10-20_07h50.57.152,forced_choiceRT,2021.1.2,Win32,60.0240096,,,,,,,,2,Ontime,g,0,2.085,3,1,13,2,1,,,,,
,0.13,,,,,,,,,j.PNG,j,6140adb00d791e6bd0ab2ff5,2021-10-20_07h50.57.152,forced_choiceRT,2021.1.2,Win32,60.0240096,,,,,,,,2,Fast,j,1,0.752,3,2,14,3,1,,,,,
,1.17,,,,,,,,,f.PNG,f,6140adb00d791e6bd0ab2ff5,2021-10-20_07h50.57.152,forced_choiceRT,2021.1.2,Win32,60.0240096,,,,,,,,2,Fast,f,1,1.783,3,3,15,0,1,,,,,
,0.45,,,,,,,,,f.PNG,f,6140adb00d791e6bd0ab2ff5,2021-10-20_07h50.57.152,forced_choiceRT,2021.1.2,Win32,60.0240096,,,,,,,,2,Fast,f,1,1.118,4,0,16,0,1,,,,,
,0.61,,,,,,,,,h.PNG,h,6140adb00d791e6bd0ab2ff5,2021-10-20_07h50.57.152,forced_choiceRT,2021.1.2,Win32,60.0240096,,,,,,,,2,Fast,h,1,1.251,4,1,17,2,1,,,,,
,1.55,,,,,,,,,g.PNG,g,6140adb00d791e6bd0ab2ff5,2021-10-20_07h50.57.152,forced_choiceRT,2021.1.2,Win32,60.0240096,,,,,,,,2,Fast,j,0,1.883,4,2,18,1,1,,,,,
,1.06,,,,,,,,,g.PNG,g,6140adb00d791e6bd0ab2ff5,2021-10-20_07h50.57.152,forced_choiceRT,2021.1.2,Win32,60.0240096,,,,,,,,2,Fast,g,1,1.667,4,3,19,1,1,,,,,
,1.61,,,,,,,,,j.PNG,j,6140adb00d791e6bd0ab2ff5,2021-10-20_07h50.57.152,forced_choiceRT,2021.1.2,Win32,60.0240096,,,,,,,,2,Ontime,g,0,2.021,5,0,20,3,1,,,,,
,1.11,,,,,,,,,f.PNG,f,6140adb00d791e6bd0ab2ff5,2021-10-20_07h50.57.152,forced_choiceRT,2021.1.2,Win32,60.0240096,,,,,,,,2,Fast,f,1,1.651,5,1,21,0,1,,,,,
,0.51,,,,,,,,,f.PNG,f,6140adb00d791e6bd0ab2ff5,2021-10-20_07h50.57.152,forced_choiceRT,2021.1.2,Win32,60.0240096,,,,,,,,2,Fast,f,1,1.202,5,2,22,0,1,,,,,
,1.9,,,,,,,,,j.PNG,j,6140adb00d791e6bd0ab2ff5,2021-10-20_07h50.57.152,forced_choiceRT,2021.1.2,Win32,60.0240096,,,,,,,,2,Slow,j,1,2.351,5,3,23,3,1,,,,,
,1.18,,,,,,,,,g.PNG,g,6140adb00d791e6bd0ab2ff5,2021-10-20_07h50.57.152,forced_choiceRT,2021.1.2,Win32,60.0240096,,,,,,,,2,Fast,j,0,1.586,6,0,24,1,1,,,,,
,1.3,,,,,,,,,j.PNG,j,6140adb00d791e6bd0ab2ff5,2021-10-20_07h50.57.152,forced_choiceRT,2021.1.2,Win32,60.0240096,,,,,,,,2,Fast,g,0,1.784,6,1,25,3,1,,,,,
,1.7,,,,,,,,,f.PNG,f,6140adb00d791e6bd0ab2ff5,2021-10-20_07h50.57.152,forced_choiceRT,2021.1.2,Win32,60.0240096,,,,,,,,2,Slow,f,1,2.251,6,2,26,0,1,,,,,
,1.26,,,,,,,,,h.PNG,h,6140adb00d791e6bd0ab2ff5,2021-10-20_07h50.57.152,forced_choiceRT,2021.1.2,Win32,60.0240096,,,,,,,,2,Ontime,f,0,2.051,6,3,27,2,1,,,,,
,0.65,,,,,,,,,h.PNG,h,6140adb00d791e6bd0ab2ff5,2021-10-20_07h50.57.152,forced_choiceRT,2021.1.2,Win32,60.0240096,,,,,,,,2,Fast,h,1,1.536,7,0,28,2,1,,,,,
,0.48,,,,,,,,,h.PNG,h,6140adb00d791e6bd0ab2ff5,2021-10-20_07h50.57.152,forced_choiceRT,2021.1.2,Win32,60.0240096,,,,,,,,2,Fast,h,1,1.403,7,1,29,2,1,,,,,
,0.02,,,,,,,,,h.PNG,h,6140adb00d791e6bd0ab2ff5,2021-10-20_07h50.57.152,forced_choiceRT,2021.1.2,Win32,60.0240096,,,,,,,,2,Fast,h,1,0.735,7,2,30,2,1,,,,,
,1.7,,,,,,,,,j.PNG,j,6140adb00d791e6bd0ab2ff5,2021-10-20_07h50.57.152,forced_choiceRT,2021.1.2,Win32,60.0240096,,,,,,,,2,Slow,j,1,2.116,7,3,31,3,1,,,,,
,0.7,,,,,,,,,g.PNG,g,6140adb00d791e6bd0ab2ff5,2021-10-20_07h50.57.152,forced_choiceRT,2021.1.2,Win32,60.0240096,,,,,,,,2,Fast,h,0,1.818,8,0,32,1,1,,,,,
,1.39,,,,,,,,,g.PNG,g,6140adb00d791e6bd0ab2ff5,2021-10-20_07h50.57.152,forced_choiceRT,2021.1.2,Win32,60.0240096,,,,,,,,2,Slow,g,1,2.117,8,1,33,1,1,,,,,
,0.72,,,,,,,,,f.PNG,f,6140adb00d791e6bd0ab2ff5,2021-10-20_07h50.57.152,forced_choiceRT,2021.1.2,Win32,60.0240096,,,,,,,,2,Fast,f,1,1.485,8,2,34,0,1,,,,,
,0.8,,,,,,,,,g.PNG,g,6140adb00d791e6bd0ab2ff5,2021-10-20_07h50.57.152,forced_choiceRT,2021.1.2,Win32,60.0240096,,,,,,,,2,Fast,g,1,1.7,8,3,35,1,1,,,,,
,0.17,,,,,,,,,j.PNG,j,6140adb00d791e6bd0ab2ff5,2021-10-20_07h50.57.152,forced_choiceRT,2021.1.2,Win32,60.0240096,,,,,,,,2,Fast,j,1,0.818,9,0,36,3,1,,,,,
,0.54,,,,,,,,,h.PNG,h,6140adb00d791e6bd0ab2ff5,2021-10-20_07h50.57.152,forced_choiceRT,2021.1.2,Win32,60.0240096,,,,,,,,2,Fast,h,1,1.268,9,1,37,2,1,,,,,
,1.86,,,,,,,,,g.PNG,g,6140adb00d791e6bd0ab2ff5,2021-10-20_07h50.57.152,forced_choiceRT,2021.1.2,Win32,60.0240096,,,,,,,,2,Ontime,g,1,2.021,9,2,38,1,1,,,,,
,1.15,,,,,,,,,j.PNG,j,6140adb00d791e6bd0ab2ff5,2021-10-20_07h50.57.152,forced_choiceRT,2021.1.2,Win32,60.0240096,,,,,,,,2,Fast,h,0,1.685,9,3,39,3,1,,,,,
,,,,,,,,,,,,6140adb00d791e6bd0ab2ff5,2021-10-20_07h50.57.152,forced_choiceRT,2021.1.2,Win32,60.0240096,,,,,,,,,,,,,,,,,,1,0,1,0,1
,1,,,,,,,,,h.PNG,h,6140adb00d791e6bd0ab2ff5,2021-10-20_07h50.57.152,forced_choiceRT,2021.1.2,Win32,60.0240096,,,,,,,,3,Ontime,h,1,2.049,0,0,0,2,1,,,,,
,0.74,,,,,,,,,j.PNG,j,6140adb00d791e6bd0ab2ff5,2021-10-20_07h50.57.152,forced_choiceRT,2021.1.2,Win32,60.0240096,,,,,,,,3,Fast,j,1,1.388,0,1,1,3,1,,,,,
,0.01,,,,,,,,,f.PNG,f,6140adb00d791e6bd0ab2ff5,2021-10-20_07h50.57.152,forced_choiceRT,2021.1.2,Win32,60.0240096,,,,,,,,3,Fast,f,1,0.668,0,2,2,0,1,,,,,
,1.93,,,,,,,,,f.PNG,f,6140adb00d791e6bd0ab2ff5,2021-10-20_07h50.57.152,forced_choiceRT,2021.1.2,Win32,60.0240096,,,,,,,,3,Fast,g,0,1.784,0,3,3,0,1,,,,,
,0.34,,,,,,,,,h.PNG,h,6140adb00d791e6bd0ab2ff5,2021-10-20_07h50.57.152,forced_choiceRT,2021.1.2,Win32,60.0240096,,,,,,,,3,Fast,h,1,1.236,1,0,4,2,1,,,,,
,1.31,,,,,,,,,f.PNG,f,6140adb00d791e6bd0ab2ff5,2021-10-20_07h50.57.152,forced_choiceRT,2021.1.2,Win32,60.0240096,,,,,,,,3,Ontime,f,1,1.906,1,1,5,0,1,,,,,
,1.48,,,,,,,,,j.PNG,j,6140adb00d791e6bd0ab2ff5,2021-10-20_07h50.57.152,forced_choiceRT,2021.1.2,Win32,60.0240096,,,,,,,,3,Ontime,j,1,2.067,1,2,6,3,1,,,,,
,1.45,,,,,,,,,h.PNG,h,6140adb00d791e6bd0ab2ff5,2021-10-20_07h50.57.152,forced_choiceRT,2021.1.2,Win32,60.0240096,,,,,,,,3,Ontime,h,1,1.958,1,3,7,2,1,,,,,
,1.79,,,,,,,,,j.PNG,j,6140adb00d791e6bd0ab2ff5,2021-10-20_07h50.57.152,forced_choiceRT,2021.1.2,Win32,60.0240096,,,,,,,,3,Slow,j,1,2.384,2,0,8,3,1,,,,,
,1.65,,,,,,,,,h.PNG,h,6140adb00d791e6bd0ab2ff5,2021-10-20_07h50.57.152,forced_choiceRT,2021.1.2,Win32,60.0240096,,,,,,,,3,Slow,h,1,2.323,2,1,9,2,1,,,,,
,1.81,,,,,,,,,f.PNG,f,6140adb00d791e6bd0ab2ff5,2021-10-20_07h50.57.152,forced_choiceRT,2021.1.2,Win32,60.0240096,,,,,,,,3,Slow,f,1,2.418,2,2,10,0,1,,,,,
,1.3,,,,,,,,,g.PNG,g,6140adb00d791e6bd0ab2ff5,2021-10-20_07h50.57.152,forced_choiceRT,2021.1.2,Win32,60.0240096,,,,,,,,3,Ontime,h,0,2.051,2,3,11,1,1,,,,,
,1.96,,,,,,,,,h.PNG,h,6140adb00d791e6bd0ab2ff5,2021-10-20_07h50.57.152,forced_choiceRT,2021.1.2,Win32,60.0240096,,,,,,,,3,Slow,h,1,2.421,3,0,12,2,1,,,,,
,0.63,,,,,,,,,h.PNG,h,6140adb00d791e6bd0ab2ff5,2021-10-20_07h50.57.152,forced_choiceRT,2021.1.2,Win32,60.0240096,,,,,,,,3,Fast,h,1,1.454,3,1,13,2,1,,,,,
,1.86,,,,,,,,,j.PNG,j,6140adb00d791e6bd0ab2ff5,2021-10-20_07h50.57.152,forced_choiceRT,2021.1.2,Win32,60.0240096,,,,,,,,3,Slow,h,0,2.351,3,2,14,3,1,,,,,
,0.35,,,,,,,,,j.PNG,j,6140adb00d791e6bd0ab2ff5,2021-10-20_07h50.57.152,forced_choiceRT,2021.1.2,Win32,60.0240096,,,,,,,,3,Fast,j,1,1.021,3,3,15,3,1,,,,,
,1.44,,,,,,,,,h.PNG,h,6140adb00d791e6bd0ab2ff5,2021-10-20_07h50.57.152,forced_choiceRT,2021.1.2,Win32,60.0240096,,,,,,,,3,Ontime,h,1,1.902,4,0,16,2,1,,,,,
,0.79,,,,,,,,,h.PNG,h,6140adb00d791e6bd0ab2ff5,2021-10-20_07h50.57.152,forced_choiceRT,2021.1.2,Win32,60.0240096,,,,,,,,3,Fast,h,1,1.386,4,1,17,2,1,,,,,
,1.69,,,,,,,,,g.PNG,g,6140adb00d791e6bd0ab2ff5,2021-10-20_07h50.57.152,forced_choiceRT,2021.1.2,Win32,60.0240096,,,,,,,,3,Ontime,g,1,2.052,4,2,18,1,1,,,,,
,1.72,,,,,,,,,f.PNG,f,6140adb00d791e6bd0ab2ff5,2021-10-20_07h50.57.152,forced_choiceRT,2021.1.2,Win32,60.0240096,,,,,,,,3,Slow,f,1,2.354,4,3,19,0,1,,,,,
,0.63,,,,,,,,,j.PNG,j,6140adb00d791e6bd0ab2ff5,2021-10-20_07h50.57.152,forced_choiceRT,2021.1.2,Win32,60.0240096,,,,,,,,3,Fast,j,1,1.404,5,0,20,3,1,,,,,
,0.32,,,,,,,,,j.PNG,j,6140adb00d791e6bd0ab2ff5,2021-10-20_07h50.57.152,forced_choiceRT,2021.1.2,Win32,60.0240096,,,,,,,,3,Fast,j,1,1.005,5,1,21,3,1,,,,,
,0.7,,,,,,,,,f.PNG,f,6140adb00d791e6bd0ab2ff5,2021-10-20_07h50.57.152,forced_choiceRT,2021.1.2,Win32,60.0240096,,,,,,,,3,Fast,f,1,1.334,5,2,22,0,1,,,,,
,1.65,,,,,,,,,g.PNG,g,6140adb00d791e6bd0ab2ff5,2021-10-20_07h50.57.152,forced_choiceRT,2021.1.2,Win32,60.0240096,,,,,,,,3,Slow,j,0,2.368,5,3,23,1,1,,,,,
,1.2,,,,,,,,,g.PNG,g,6140adb00d791e6bd0ab2ff5,2021-10-20_07h50.57.152,forced_choiceRT,2021.1.2,Win32,60.0240096,,,,,,,,3,Slow,h,0,2.301,6,0,24,1,1,,,,,
,1.77,,,,,,,,,g.PNG,g,6140adb00d791e6bd0ab2ff5,2021-10-20_07h50.57.152,forced_choiceRT,2021.1.2,Win32,60.0240096,,,,,,,,3,Slow,g,1,2.168,6,1,25,1,1,,,,,
,1.97,,,,,,,,,f.PNG,f,6140adb00d791e6bd0ab2ff5,2021-10-20_07h50.57.152,forced_choiceRT,2021.1.2,Win32,60.0240096,,,,,,,,3,Slow,h,0,2.37,6,2,26,0,1,,,,,
,0.78,,,,,,,,,j.PNG,j,6140adb00d791e6bd0ab2ff5,2021-10-20_07h50.57.152,forced_choiceRT,2021.1.2,Win32,60.0240096,,,,,,,,3,Fast,j,1,1.486,6,3,27,3,1,,,,,
,1.36,,,,,,,,,g.PNG,g,6140adb00d791e6bd0ab2ff5,2021-10-20_07h50.57.152,forced_choiceRT,2021.1.2,Win32,60.0240096,,,,,,,,3,Ontime,h,0,2.001,7,0,28,1,1,,,,,
,1.45,,,,,,,,,f.PNG,f,6140adb00d791e6bd0ab2ff5,2021-10-20_07h50.57.152,forced_choiceRT,2021.1.2,Win32,60.0240096,,,,,,,,3,Slow,f,1,2.121,7,1,29,0,1,,,,,
,0.84,,,,,,,,,f.PNG,f,6140adb00d791e6bd0ab2ff5,2021-10-20_07h50.57.152,forced_choiceRT,2021.1.2,Win32,60.0240096,,,,,,,,3,Fast,f,1,1.584,7,2,30,0,1,,,,,
,0,,,,,,,,,h.PNG,h,6140adb00d791e6bd0ab2ff5,2021-10-20_07h50.57.152,forced_choiceRT,2021.1.2,Win32,60.0240096,,,,,,,,3,Fast,h,1,0.916,7,3,31,2,1,,,,,
,1.44,,,,,,,,,h.PNG,h,6140adb00d791e6bd0ab2ff5,2021-10-20_07h50.57.152,forced_choiceRT,2021.1.2,Win32,60.0240096,,,,,,,,3,Ontime,h,1,2.051,8,0,32,2,1,,,,,
,0.49,,,,,,,,,f.PNG,f,6140adb00d791e6bd0ab2ff5,2021-10-20_07h50.57.152,forced_choiceRT,2021.1.2,Win32,60.0240096,,,,,,,,3,Fast,f,1,1.034,8,1,33,0,1,,,,,
,1.25,,,,,,,,,g.PNG,g,6140adb00d791e6bd0ab2ff5,2021-10-20_07h50.57.152,forced_choiceRT,2021.1.2,Win32,60.0240096,,,,,,,,3,Fast,g,1,1.65,8,2,34,1,1,,,,,
,0.76,,,,,,,,,g.PNG,g,6140adb00d791e6bd0ab2ff5,2021-10-20_07h50.57.152,forced_choiceRT,2021.1.2,Win32,60.0240096,,,,,,,,3,Fast,j,0,1.438,8,3,35,1,1,,,,,
,1.06,,,,,,,,,j.PNG,j,6140adb00d791e6bd0ab2ff5,2021-10-20_07h50.57.152,forced_choiceRT,2021.1.2,Win32,60.0240096,,,,,,,,3,Fast,j,1,1.751,9,0,36,3,1,,,,,
,0.11,,,,,,,,,g.PNG,g,6140adb00d791e6bd0ab2ff5,2021-10-20_07h50.57.152,forced_choiceRT,2021.1.2,Win32,60.0240096,,,,,,,,3,Fast,h,0,0.936,9,1,37,1,1,,,,,
,0.27,,,,,,,,,j.PNG,j,6140adb00d791e6bd0ab2ff5,2021-10-20_07h50.57.152,forced_choiceRT,2021.1.2,Win32,60.0240096,,,,,,,,3,Fast,j,1,1.154,9,2,38,3,1,,,,,
,0.01,,,,,,,,,g.PNG,g,6140adb00d791e6bd0ab2ff5,2021-10-20_07h50.57.152,forced_choiceRT,2021.1.2,Win32,60.0240096,,,,,,,,3,Fast,g,1,0.654,9,3,39,1,1,,,,,
,,,,,,,,,,,,6140adb00d791e6bd0ab2ff5,2021-10-20_07h50.57.152,forced_choiceRT,2021.1.2,Win32,60.0240096,,,,,,,,,,,,,,,,,,2,0,2,0,1
,1.08,,,,,,,,,j.PNG,j,6140adb00d791e6bd0ab2ff5,2021-10-20_07h50.57.152,forced_choiceRT,2021.1.2,Win32,60.0240096,,,,,,,,4,Fast,j,1,1.854,0,0,0,3,1,,,,,
,0.48,,,,,,,,,j.PNG,j,6140adb00d791e6bd0ab2ff5,2021-10-20_07h50.57.152,forced_choiceRT,2021.1.2,Win32,60.0240096,,,,,,,,4,Fast,j,1,1.121,0,1,1,3,1,,,,,
,1.64,,,,,,,,,f.PNG,f,6140adb00d791e6bd0ab2ff5,2021-10-20_07h50.57.152,forced_choiceRT,2021.1.2,Win32,60.0240096,,,,,,,,4,Slow,f,1,2.135,0,2,2,0,1,,,,,
,1.2,,,,,,,,,j.PNG,j,6140adb00d791e6bd0ab2ff5,2021-10-20_07h50.57.152,forced_choiceRT,2021.1.2,Win32,60.0240096,,,,,,,,4,Fast,j,1,1.858,0,3,3,3,1,,,,,
,0.04,,,,,,,,,h.PNG,h,6140adb00d791e6bd0ab2ff5,2021-10-20_07h50.57.152,forced_choiceRT,2021.1.2,Win32,60.0240096,,,,,,,,4,Fast,h,1,0.835,1,0,4,2,1,,,,,
,1.5,,,,,,,,,h.PNG,h,6140adb00d791e6bd0ab2ff5,2021-10-20_07h50.57.152,forced_choiceRT,2021.1.2,Win32,60.0240096,,,,,,,,4,Slow,h,1,2.101,1,1,5,2,1,,,,,
,0.71,,,,,,,,,f.PNG,f,6140adb00d791e6bd0ab2ff5,2021-10-20_07h50.57.152,forced_choiceRT,2021.1.2,Win32,60.0240096,,,,,,,,4,Fast,f,1,1.321,1,2,6,0,1,,,,,
,1.01,,,,,,,,,h.PNG,h,6140adb00d791e6bd0ab2ff5,2021-10-20_07h50.57.152,forced_choiceRT,2021.1.2,Win32,60.0240096,,,,,,,,4,Fast,h,1,1.704,1,3,7,2,1,,,,,
,0.05,,,,,,,,,f.PNG,f,6140adb00d791e6bd0ab2ff5,2021-10-20_07h50.57.152,forced_choiceRT,2021.1.2,Win32,60.0240096,,,,,,,,4,Fast,f,1,0.784,2,0,8,0,1,,,,,
,1.42,,,,,,,,,h.PNG,h,6140adb00d791e6bd0ab2ff5,2021-10-20_07h50.57.152,forced_choiceRT,2021.1.2,Win32,60.0240096,,,,,,,,4,Ontime,h,1,1.942,2,1,9,2,1,,,,,
,1.95,,,,,,,,,j.PNG,j,6140adb00d791e6bd0ab2ff5,2021-10-20_07h50.57.152,forced_choiceRT,2021.1.2,Win32,60.0240096,,,,,,,,4,Slow,h,0,2.318,2,2,10,3,1,,,,,
,1.79,,,,,,,,,h.PNG,h,6140adb00d791e6bd0ab2ff5,2021-10-20_07h50.57.152,forced_choiceRT,2021.1.2,Win32,60.0240096,,,,,,,,4,Slow,h,1,2.184,2,3,11,2,1,,,,,
,1.76,,,,,,,,,j.PNG,j,6140adb00d791e6bd0ab2ff5,2021-10-20_07h50.57.152,forced_choiceRT,2021.1.2,Win32,60.0240096,,,,,,,,4,Slow,h,0,2.202,3,0,12,3,1,,,,,
,1.8,,,,,,,,,j.PNG,j,6140adb00d791e6bd0ab2ff5,2021-10-20_07h50.57.152,forced_choiceRT,2021.1.2,Win32,60.0240096,,,,,,,,4,Slow,j,1,2.134,3,1,13,3,1,,,,,
,1.83,,,,,,,,,g.PNG,g,6140adb00d791e6bd0ab2ff5,2021-10-20_07h50.57.152,forced_choiceRT,2021.1.2,Win32,60.0240096,,,,,,,,4,Slow,j,0,2.12,3,2,14,1,1,,,,,
,1.28,,,,,,,,,h.PNG,h,6140adb00d791e6bd0ab2ff5,2021-10-20_07h50.57.152,forced_choiceRT,2021.1.2,Win32,60.0240096,,,,,,,,4,Fast,h,1,1.752,3,3,15,2,1,,,,,
,1.62,,,,,,,,,g.PNG,g,6140adb00d791e6bd0ab2ff5,2021-10-20_07h50.57.152,forced_choiceRT,2021.1.2,Win32,60.0240096,,,,,,,,4,Slow,g,1,2.134,4,0,16,1,1,,,,,
,1.29,,,,,,,,,j.PNG,j,6140adb00d791e6bd0ab2ff5,2021-10-20_07h50.57.152,forced_choiceRT,2021.1.2,Win32,60.0240096,,,,,,,,4,Fast,j,1,1.851,4,1,17,3,1,,,,,
,0.81,,,,,,,,,h.PNG,h,6140adb00d791e6bd0ab2ff5,2021-10-20_07h50.57.152,forced_choiceRT,2021.1.2,Win32,60.0240096,,,,,,,,4,Fast,h,1,1.451,4,2,18,2,1,,,,,
,1.54,,,,,,,,,g.PNG,g,6140adb00d791e6bd0ab2ff5,2021-10-20_07h50.57.152,forced_choiceRT,2021.1.2,Win32,60.0240096,,,,,,,,4,Slow,h,0,2.102,4,3,19,1,1,,,,,
,1.32,,,,,,,,,f.PNG,f,6140adb00d791e6bd0ab2ff5,2021-10-20_07h50.57.152,forced_choiceRT,2021.1.2,Win32,60.0240096,,,,,,,,4,Ontime,f,1,1.95,5,0,20,0,1,,,,,
,1.86,,,,,,,,,g.PNG,g,6140adb00d791e6bd0ab2ff5,2021-10-20_07h50.57.152,forced_choiceRT,2021.1.2,Win32,60.0240096,,,,,,,,4,Slow,g,1,2.272,5,1,21,1,1,,,,,
,0.5,,,,,,,,,h.PNG,h,6140adb00d791e6bd0ab2ff5,2021-10-20_07h50.57.152,forced_choiceRT,2021.1.2,Win32,60.0240096,,,,,,,,4,Fast,h,1,1.221,5,2,22,2,1,,,,,
,1.08,,,,,,,,,j.PNG,j,6140adb00d791e6bd0ab2ff5,2021-10-20_07h50.57.152,forced_choiceRT,2021.1.2,Win32,60.0240096,,,,,,,,4,Fast,g,0,1.584,5,3,23,3,1,,,,,
,0.52,,,,,,,,,h.PNG,h,6140adb00d791e6bd0ab2ff5,2021-10-20_07h50.57.152,forced_choiceRT,2021.1.2,Win32,60.0240096,,,,,,,,4,Fast,h,1,1.202,6,0,24,2,1,,,,,
,1.55,,,,,,,,,f.PNG,f,6140adb00d791e6bd0ab2ff5,2021-10-20_07h50.57.152,forced_choiceRT,2021.1.2,Win32,60.0240096,,,,,,,,4,Slow,f,1,2.217,6,1,25,0,1,,,,,
,1.42,,,,,,,,,h.PNG,h,6140adb00d791e6bd0ab2ff5,2021-10-20_07h50.57.152,forced_choiceRT,2021.1.2,Win32,60.0240096,,,,,,,,4,Ontime,h,1,2.04,6,2,26,2,1,,,,,
,1.44,,,,,,,,,f.PNG,f,6140adb00d791e6bd0ab2ff5,2021-10-20_07h50.57.152,forced_choiceRT,2021.1.2,Win32,60.0240096,,,,,,,,4,Ontime,f,1,1.983,6,3,27,0,1,,,,,
,1.15,,,,,,,,,f.PNG,f,6140adb00d791e6bd0ab2ff5,2021-10-20_07h50.57.152,forced_choiceRT,2021.1.2,Win32,60.0240096,,,,,,,,4,Fast,f,1,1.768,7,0,28,0,1,,,,,
,1.99,,,,,,,,,f.PNG,f,6140adb00d791e6bd0ab2ff5,2021-10-20_07h50.57.152,forced_choiceRT,2021.1.2,Win32,60.0240096,,,,,,,,4,Slow,h,0,2.289,7,1,29,0,1,,,,,
,0.4,,,,,,,,,g.PNG,g,6140adb00d791e6bd0ab2ff5,2021-10-20_07h50.57.152,forced_choiceRT,2021.1.2,Win32,60.0240096,,,,,,,,4,Fast,h,0,1.153,7,2,30,1,1,,,,,
,1.22,,,,,,,,,j.PNG,j,6140adb00d791e6bd0ab2ff5,2021-10-20_07h50.57.152,forced_choiceRT,2021.1.2,Win32,60.0240096,,,,,,,,4,Ontime,j,1,1.984,7,3,31,3,1,,,,,
,1.46,,,,,,,,,j.PNG,j,6140adb00d791e6bd0ab2ff5,2021-10-20_07h50.57.152,forced_choiceRT,2021.1.2,Win32,60.0240096,,,,,,,,4,Ontime,j,1,1.972,8,0,32,3,1,,,,,
,0.16,,,,,,,,,g.PNG,g,6140adb00d791e6bd0ab2ff5,2021-10-20_07h50.57.152,forced_choiceRT,2021.1.2,Win32,60.0240096,,,,,,,,4,Fast,j,0,0.768,8,1,33,1,1,,,,,
,1.77,,,,,,,,,f.PNG,f,6140adb00d791e6bd0ab2ff5,2021-10-20_07h50.57.152,forced_choiceRT,2021.1.2,Win32,60.0240096,,,,,,,,4,Slow,f,1,2.3,8,2,34,0,1,,,,,
,1.59,,,,,,,,,g.PNG,g,6140adb00d791e6bd0ab2ff5,2021-10-20_07h50.57.152,forced_choiceRT,2021.1.2,Win32,60.0240096,,,,,,,,4,Ontime,h,0,2.003,8,3,35,1,1,,,,,
,0.13,,,,,,,,,g.PNG,g,6140adb00d791e6bd0ab2ff5,2021-10-20_07h50.57.152,forced_choiceRT,2021.1.2,Win32,60.0240096,,,,,,,,4,Fast,g,1,0.718,9,0,36,1,1,,,,,
,0.11,,,,,,,,,f.PNG,f,6140adb00d791e6bd0ab2ff5,2021-10-20_07h50.57.152,forced_choiceRT,2021.1.2,Win32,60.0240096,,,,,,,,4,Fast,f,1,0.785,9,1,37,0,1,,,,,
,0.26,,,,,,,,,g.PNG,g,6140adb00d791e6bd0ab2ff5,2021-10-20_07h50.57.152,forced_choiceRT,2021.1.2,Win32,60.0240096,,,,,,,,4,Fast,g,1,0.857,9,2,38,1,1,,,,,
,0.16,,,,,,,,,g.PNG,g,6140adb00d791e6bd0ab2ff5,2021-10-20_07h50.57.152,forced_choiceRT,2021.1.2,Win32,60.0240096,,,,,,,,4,Fast,g,1,0.805,9,3,39,1,1,,,,,
,,,,,,,,,,,,6140adb00d791e6bd0ab2ff5,2021-10-20_07h50.57.152,forced_choiceRT,2021.1.2,Win32,60.0240096,,,,,,,,,,,,,,,,,,3,0,3,0,1
,1.89,,,,,,,,,f.PNG,f,6140adb00d791e6bd0ab2ff5,2021-10-20_07h50.57.152,forced_choiceRT,2021.1.2,Win32,60.0240096,,,,,,,,5,Slow,g,0,2.202,0,0,0,0,1,,,,,
,0.45,,,,,,,,,f.PNG,f,6140adb00d791e6bd0ab2ff5,2021-10-20_07h50.57.152,forced_choiceRT,2021.1.2,Win32,60.0240096,,,,,,,,5,Fast,f,1,1,0,1,1,0,1,,,,,
,0.38,,,,,,,,,g.PNG,g,6140adb00d791e6bd0ab2ff5,2021-10-20_07h50.57.152,forced_choiceRT,2021.1.2,Win32,60.0240096,,,,,,,,5,Fast,g,1,0.84,0,2,2,1,1,,,,,
,1.95,,,,,,,,,j.PNG,j,6140adb00d791e6bd0ab2ff5,2021-10-20_07h50.57.152,forced_choiceRT,2021.1.2,Win32,60.0240096,,,,,,,,5,Slow,h,0,2.333,0,3,3,3,1,,,,,
,0.96,,,,,,,,,f.PNG,f,6140adb00d791e6bd0ab2ff5,2021-10-20_07h50.57.152,forced_choiceRT,2021.1.2,Win32,60.0240096,,,,,,,,5,Fast,f,1,1.635,1,0,4,0,1,,,,,
,1.63,,,,,,,,,j.PNG,j,6140adb00d791e6bd0ab2ff5,2021-10-20_07h50.57.152,forced_choiceRT,2021.1.2,Win32,60.0240096,,,,,,,,5,Slow,j,1,2.29,1,1,5,3,1,,,,,
,0.18,,,,,,,,,h.PNG,h,6140adb00d791e6bd0ab2ff5,2021-10-20_07h50.57.152,forced_choiceRT,2021.1.2,Win32,60.0240096,,,,,,,,5,Fast,h,1,1.218,1,2,6,2,1,,,,,
,1.91,,,,,,,,,g.PNG,g,6140adb00d791e6bd0ab2ff5,2021-10-20_07h50.57.152,forced_choiceRT,2021.1.2,Win32,60.0240096,,,,,,,,5,Slow,h,0,2.434,1,3,7,1,1,,,,,
,0.23,,,,,,,,,h.PNG,h,6140adb00d791e6bd0ab2ff5,2021-10-20_07h50.57.152,forced_choiceRT,2021.1.2,Win32,60.0240096,,,,,,,,5,Fast,h,1,0.887,2,0,8,2,1,,,,,
,0.31,,,,,,,,,j.PNG,j,6140adb00d791e6bd0ab2ff5,2021-10-20_07h50.57.152,forced_choiceRT,2021.1.2,Win32,60.0240096,,,,,,,,5,Fast,j,1,0.988,2,1,9,3,1,,,,,
,0.84,,,,,,,,,h.PNG,h,6140adb00d791e6bd0ab2ff5,2021-10-20_07h50.57.152,forced_choiceRT,2021.1.2,Win32,60.0240096,,,,,,,,5,Fast,h,1,1.743,2,2,10,2,1,,,,,
,0.66,,,,,,,,,f.PNG,f,6140adb00d791e6bd0ab2ff5,2021-10-20_07h50.57.152,forced_choiceRT,2021.1.2,Win32,60.0240096,,,,,,,,5,Fast,f,1,1.353,2,3,11,0,1,,,,,
,0.55,,,,,,,,,h.PNG,h,6140adb00d791e6bd0ab2ff5,2021-10-20_07h50.57.152,forced_choiceRT,2021.1.2,Win32,60.0240096,,,,,,,,5,Fast,h,1,1.368,3,0,12,2,1,,,,,
,0.51,,,,,,,,,f.PNG,f,6140adb00d791e6bd0ab2ff5,2021-10-20_07h50.57.152,forced_choiceRT,2021.1.2,Win32,60.0240096,,,,,,,,5,Fast,f,1,1.285,3,1,13,0,1,,,,,
,1.47,,,,,,,,,j.PNG,j,6140adb00d791e6bd0ab2ff5,2021-10-20_07h50.57.152,forced_choiceRT,2021.1.2,Win32,60.0240096,,,,,,,,5,Slow,j,1,2.117,3,2,14,3,1,,,,,
,0.85,,,,,,,,,j.PNG,j,6140adb00d791e6bd0ab2ff5,2021-10-20_07h50.57.152,forced_choiceRT,2021.1.2,Win32,60.0240096,,,,,,,,5,Fast,j,1,1.517,3,3,15,3,1,,,,,
,0.25,,,,,,,,,h.PNG,h,6140adb00d791e6bd0ab2ff5,2021-10-20_07h50.57.152,forced_choiceRT,2021.1.2,Win32,60.0240096,,,,,,,,5,Fast,h,1,1.019,4,0,16,2,1,,,,,
,1.96,,,,,,,,,j.PNG,j,6140adb00d791e6bd0ab2ff5,2021-10-20_07h50.57.152,forced_choiceRT,2021.1.2,Win32,60.0240096,,,,,,,,5,Slow,g,0,2.368,4,1,17,3,1,,,,,
,1.87,,,,,,,,,j.PNG,j,6140adb00d791e6bd0ab2ff5,2021-10-20_07h50.57.152,forced_choiceRT,2021.1.2,Win32,60.0240096,,,,,,,,5,Slow,g,0,2.121,4,2,18,3,1,,,,,
,0.74,,,,,,,,,g.PNG,g,6140adb00d791e6bd0ab2ff5,2021-10-20_07h50.57.152,forced_choiceRT,2021.1.2,Win32,60.0240096,,,,,,,,5,Fast,j,0,1.352,4,3,19,1,1,,,,,
,1.69,,,,,,,,,g.PNG,g,6140adb00d791e6bd0ab2ff5,2021-10-20_07h50.57.152,forced_choiceRT,2021.1.2,Win32,60.0240096,,,,,,,,5,Slow,g,1,2.135,5,0,20,1,1,,,,,
,1.81,,,,,,,,,g.PNG,g,6140adb00d791e6bd0ab2ff5,2021-10-20_07h50.57.152,forced_choiceRT,2021.1.2,Win32,60.0240096,,,,,,,,5,Slow,g,1,2.101,5,1,21,1,1,,,,,
,0.7,,,,,,,,,f.PNG,f,6140adb00d791e6bd0ab2ff5,2021-10-20_07h50.57.152,forced_choiceRT,2021.1.2,Win32,60.0240096,,,,,,,,5,Fast,f,1,1.386,5,2,22,0,1,,,,,
,1.91,,,,,,,,,j.PNG,j,6140adb00d791e6bd0ab2ff5,2021-10-20_07h50.57.152,forced_choiceRT,2021.1.2,Win32,60.0240096,,,,,,,,5,Slow,g,0,2.354,5,3,23,3,1,,,,,
,1.1,,,,,,,,,j.PNG,j,6140adb00d791e6bd0ab2ff5,2021-10-20_07h50.57.152,forced_choiceRT,2021.1.2,Win32,60.0240096,,,,,,,,5,Fast,j,1,1.518,6,0,24,3,1,,,,,
,0.91,,,,,,,,,g.PNG,g,6140adb00d791e6bd0ab2ff5,2021-10-20_07h50.57.152,forced_choiceRT,2021.1.2,Win32,60.0240096,,,,,,,,5,Fast,g,1,1.569,6,1,25,1,1,,,,,
,1.19,,,,,,,,,h.PNG,h,6140adb00d791e6bd0ab2ff5,2021-10-20_07h50.57.152,forced_choiceRT,2021.1.2,Win32,60.0240096,,,,,,,,5,Fast,h,1,1.685,6,2,26,2,1,,,,,
,1.79,,,,,,,,,h.PNG,h,6140adb00d791e6bd0ab2ff5,2021-10-20_07h50.57.152,forced_choiceRT,2021.1.2,Win32,60.0240096,,,,,,,,5,Slow,g,0,2.151,6,3,27,2,1,,,,,
,1.42,,,,,,,,,f.PNG,f,6140adb00d791e6bd0ab2ff5,2021-10-20_07h50.57.152,forced_choiceRT,2021.1.2,Win32,60.0240096,,,,,,,,5,Ontime,h,0,1.952,7,0,28,0,1,,,,,
,1.49,,,,,,,,,j.PNG,j,6140adb00d791e6bd0ab2ff5,2021-10-20_07h50.57.152,forced_choiceRT,2021.1.2,Win32,60.0240096,,,,,,,,5,Slow,j,1,2.201,7,1,29,3,1,,,,,
,0.5,,,,,,,,,g.PNG,g,6140adb00d791e6bd0ab2ff5,2021-10-20_07h50.57.152,forced_choiceRT,2021.1.2,Win32,60.0240096,,,,,,,,5,Fast,g,1,1.503,7,2,30,1,1,,,,,
,1.49,,,,,,,,,h.PNG,h,6140adb00d791e6bd0ab2ff5,2021-10-20_07h50.57.152,forced_choiceRT,2021.1.2,Win32,60.0240096,,,,,,,,5,Slow,h,1,2.1,7,3,31,2,1,,,,,
,1.07,,,,,,,,,h.PNG,h,6140adb00d791e6bd0ab2ff5,2021-10-20_07h50.57.152,forced_choiceRT,2021.1.2,Win32,60.0240096,,,,,,,,5,Fast,h,1,1.688,8,0,32,2,1,,,,,
,0.62,,,,,,,,,f.PNG,f,6140adb00d791e6bd0ab2ff5,2021-10-20_07h50.57.152,forced_choiceRT,2021.1.2,Win32,60.0240096,,,,,,,,5,Fast,f,1,1.318,8,1,33,0,1,,,,,
,0.58,,,,,,,,,f.PNG,f,6140adb00d791e6bd0ab2ff5,2021-10-20_07h50.57.152,forced_choiceRT,2021.1.2,Win32,60.0240096,,,,,,,,5,Fast,f,1,1.24,8,2,34,0,1,,,,,
,0.01,,,,,,,,,h.PNG,h,6140adb00d791e6bd0ab2ff5,2021-10-20_07h50.57.152,forced_choiceRT,2021.1.2,Win32,60.0240096,,,,,,,,5,Fast,h,1,0.768,8,3,35,2,1,,,,,
,1.31,,,,,,,,,g.PNG,g,6140adb00d791e6bd0ab2ff5,2021-10-20_07h50.57.152,forced_choiceRT,2021.1.2,Win32,60.0240096,,,,,,,,5,Fast,g,1,1.85,9,0,36,1,1,,,,,
,1.72,,,,,,,,,f.PNG,f,6140adb00d791e6bd0ab2ff5,2021-10-20_07h50.57.152,forced_choiceRT,2021.1.2,Win32,60.0240096,,,,,,,,5,Slow,j,0,2.368,9,1,37,0,1,,,,,
,1.56,,,,,,,,,g.PNG,g,6140adb00d791e6bd0ab2ff5,2021-10-20_07h50.57.152,forced_choiceRT,2021.1.2,Win32,60.0240096,,,,,,,,5,Slow,g,1,2.202,9,2,38,1,1,,,,,
,0.37,,,,,,,,,g.PNG,g,6140adb00d791e6bd0ab2ff5,2021-10-20_07h50.57.152,forced_choiceRT,2021.1.2,Win32,60.0240096,,,,,,,,5,Fast,g,1,0.935,9,3,39,1,1,,,,,
,,,,,,,,,,,,6140adb00d791e6bd0ab2ff5,2021-10-20_07h50.57.152,forced_choiceRT,2021.1.2,Win32,60.0240096,,,,,,,,,,,,,,,,,,4,0,4,0,1
,1.01,,,,,,,,,f.PNG,f,6140adb00d791e6bd0ab2ff5,2021-10-20_07h50.57.152,forced_choiceRT,2021.1.2,Win32,60.0240096,,,,,,,,6,Fast,f,1,1.651,0,0,0,0,1,,,,,
,1.99,,,,,,,,,f.PNG,f,6140adb00d791e6bd0ab2ff5,2021-10-20_07h50.57.152,forced_choiceRT,2021.1.2,Win32,60.0240096,,,,,,,,6,Slow,g,0,2.301,0,1,1,0,1,,,,,
,0.27,,,,,,,,,j.PNG,j,6140adb00d791e6bd0ab2ff5,2021-10-20_07h50.57.152,forced_choiceRT,2021.1.2,Win32,60.0240096,,,,,,,,6,Fast,j,1,1.034,0,2,2,3,1,,,,,
,0.01,,,,,,,,,h.PNG,h,6140adb00d791e6bd0ab2ff5,2021-10-20_07h50.57.152,forced_choiceRT,2021.1.2,Win32,60.0240096,,,,,,,,6,Fast,h,1,0.868,0,3,3,2,1,,,,,
,0.79,,,,,,,,,f.PNG,f,6140adb00d791e6bd0ab2ff5,2021-10-20_07h50.57.152,forced_choiceRT,2021.1.2,Win32,60.0240096,,,,,,,,6,Fast,f,1,1.535,1,0,4,0,1,,,,,
,1.99,,,,,,,,,j.PNG,j,6140adb00d791e6bd0ab2ff5,2021-10-20_07h50.57.152,forced_choiceRT,2021.1.2,Win32,60.0240096,,,,,,,,6,Slow,j,1,2.584,1,1,5,3,1,,,,,
,1.16,,,,,,,,,f.PNG,f,6140adb00d791e6bd0ab2ff5,2021-10-20_07h50.57.152,forced_choiceRT,2021.1.2,Win32,60.0240096,,,,,,,,6,Fast,f,1,1.787,1,2,6,0,1,,,,,
,1.11,,,,,,,,,h.PNG,h,6140adb00d791e6bd0ab2ff5,2021-10-20_07h50.57.152,forced_choiceRT,2021.1.2,Win32,60.0240096,,,,,,,,6,Ontime,h,1,1.939,1,3,7,2,1,,,,,
,1.95,,,,,,,,,g.PNG,g,6140adb00d791e6bd0ab2ff5,2021-10-20_07h50.57.152,forced_choiceRT,2021.1.2,Win32,60.0240096,,,,,,,,6,Slow,g,1,3.783,2,0,8,1,1,,,,,
,1.88,,,,,,,,,h.PNG,h,6140adb00d791e6bd0ab2ff5,2021-10-20_07h50.57.152,forced_choiceRT,2021.1.2,Win32,60.0240096,,,,,,,,6,Slow,g,0,2.265,2,1,9,2,1,,,,,
,1.16,,,,,,,,,g.PNG,g,6140adb00d791e6bd0ab2ff5,2021-10-20_07h50.57.152,forced_choiceRT,2021.1.2,Win32,60.0240096,,,,,,,,6,Fast,h,0,1.801,2,2,10,1,1,,,,,
,0.59,,,,,,,,,j.PNG,j,6140adb00d791e6bd0ab2ff5,2021-10-20_07h50.57.152,forced_choiceRT,2021.1.2,Win32,60.0240096,,,,,,,,6,Fast,j,1,1.521,2,3,11,3,1,,,,,
,0.13,,,,,,,,,j.PNG,j,6140adb00d791e6bd0ab2ff5,2021-10-20_07h50.57.152,forced_choiceRT,2021.1.2,Win32,60.0240096,,,,,,,,6,Fast,j,1,0.785,3,0,12,3,1,,,,,
,1.78,,,,,,,,,h.PNG,h,6140adb00d791e6bd0ab2ff5,2021-10-20_07h50.57.152,forced_choiceRT,2021.1.2,Win32,60.0240096,,,,,,,,6,Ontime,h,1,2.035,3,1,13,2,1,,,,,
,1.65,,,,,,,,,h.PNG,h,6140adb00d791e6bd0ab2ff5,2021-10-20_07h50.57.152,forced_choiceRT,2021.1.2,Win32,60.0240096,,,,,,,,6,Ontime,g,0,1.997,3,2,14,2,1,,,,,
,1.89,,,,,,,,,g.PNG,g,6140adb00d791e6bd0ab2ff5,2021-10-20_07h50.57.152,forced_choiceRT,2021.1.2,Win32,60.0240096,,,,,,,,6,Slow,h,0,2.468,3,3,15,1,1,,,,,
,0.53,,,,,,,,,f.PNG,f,6140adb00d791e6bd0ab2ff5,2021-10-20_07h50.57.152,forced_choiceRT,2021.1.2,Win32,60.0240096,,,,,,,,6,Fast,f,1,1.232,4,0,16,0,1,,,,,
,1.93,,,,,,,,,j.PNG,j,6140adb00d791e6bd0ab2ff5,2021-10-20_07h50.57.152,forced_choiceRT,2021.1.2,Win32,60.0240096,,,,,,,,6,Slow,h,0,2.42,4,1,17,3,1,,,,,
,0.15,,,,,,,,,j.PNG,j,6140adb00d791e6bd0ab2ff5,2021-10-20_07h50.57.152,forced_choiceRT,2021.1.2,Win32,60.0240096,,,,,,,,6,Fast,j,1,0.767,4,2,18,3,1,,,,,
,1.91,,,,,,,,,j.PNG,j,6140adb00d791e6bd0ab2ff5,2021-10-20_07h50.57.152,forced_choiceRT,2021.1.2,Win32,60.0240096,,,,,,,,6,Slow,h,0,2.368,4,3,19,3,1,,,,,
,0.6,,,,,,,,,j.PNG,j,6140adb00d791e6bd0ab2ff5,2021-10-20_07h50.57.152,forced_choiceRT,2021.1.2,Win32,60.0240096,,,,,,,,6,Fast,j,1,1.207,5,0,20,3,1,,,,,
,1.68,,,,,,,,,g.PNG,g,6140adb00d791e6bd0ab2ff5,2021-10-20_07h50.57.152,forced_choiceRT,2021.1.2,Win32,60.0240096,,,,,,,,6,Slow,g,1,2.268,5,1,21,1,1,,,,,
,0.32,,,,,,,,,j.PNG,j,6140adb00d791e6bd0ab2ff5,2021-10-20_07h50.57.152,forced_choiceRT,2021.1.2,Win32,60.0240096,,,,,,,,6,Fast,j,1,0.934,5,2,22,3,1,,,,,
,1.19,,,,,,,,,h.PNG,h,6140adb00d791e6bd0ab2ff5,2021-10-20_07h50.57.152,forced_choiceRT,2021.1.2,Win32,60.0240096,,,,,,,,6,Fast,h,1,1.753,5,3,23,2,1,,,,,
,0.64,,,,,,,,,g.PNG,g,6140adb00d791e6bd0ab2ff5,2021-10-20_07h50.57.152,forced_choiceRT,2021.1.2,Win32,60.0240096,,,,,,,,6,Fast,g,1,1.538,6,0,24,1,1,,,,,
,1.24,,,,,,,,,f.PNG,f,6140adb00d791e6bd0ab2ff5,2021-10-20_07h50.57.152,forced_choiceRT,2021.1.2,Win32,60.0240096,,,,,,,,6,Fast,g,0,1.768,6,1,25,0,1,,,,,
,1.36,,,,,,,,,h.PNG,h,6140adb00d791e6bd0ab2ff5,2021-10-20_07h50.57.152,forced_choiceRT,2021.1.2,Win32,60.0240096,,,,,,,,6,Ontime,h,1,2.05,6,2,26,2,1,,,,,
,0.2,,,,,,,,,f.PNG,f,6140adb00d791e6bd0ab2ff5,2021-10-20_07h50.57.152,forced_choiceRT,2021.1.2,Win32,60.0240096,,,,,,,,6,Fast,f,1,0.835,6,3,27,0,1,,,,,
,0.16,,,,,,,,,h.PNG,h,6140adb00d791e6bd0ab2ff5,2021-10-20_07h50.57.152,forced_choiceRT,2021.1.2,Win32,60.0240096,,,,,,,,6,Fast,h,1,0.789,7,0,28,2,1,,,,,
,0.55,,,,,,,,,g.PNG,g,6140adb00d791e6bd0ab2ff5,2021-10-20_07h50.57.152,forced_choiceRT,2021.1.2,Win32,60.0240096,,,,,,,,6,Fast,g,1,1.335,7,1,29,1,1,,,,,
,1.03,,,,,,,,,f.PNG,f,6140adb00d791e6bd0ab2ff5,2021-10-20_07h50.57.152,forced_choiceRT,2021.1.2,Win32,60.0240096,,,,,,,,6,Fast,f,1,1.635,7,2,30,0,1,,,,,
,0.82,,,,,,,,,g.PNG,g,6140adb00d791e6bd0ab2ff5,2021-10-20_07h50.57.152,forced_choiceRT,2021.1.2,Win32,60.0240096,,,,,,,,6,Fast,g,1,1.534,7,3,31,1,1,,,,,
,0.81,,,,,,,,,f.PNG,f,6140adb00d791e6bd0ab2ff5,2021-10-20_07h50.57.152,forced_choiceRT,2021.1.2,Win32,60.0240096,,,,,,,,6,Fast,f,1,1.571,8,0,32,0,1,,,,,
,0.51,,,,,,,,,h.PNG,h,6140adb00d791e6bd0ab2ff5,2021-10-20_07h50.57.152,forced_choiceRT,2021.1.2,Win32,60.0240096,,,,,,,,6,Fast,h,1,1.405,8,1,33,2,1,,,,,
,1.34,,,,,,,,,g.PNG,g,6140adb00d791e6bd0ab2ff5,2021-10-20_07h50.57.152,forced_choiceRT,2021.1.2,Win32,60.0240096,,,,,,,,6,Ontime,g,1,1.967,8,2,34,1,1,,,,,
,1.01,,,,,,,,,j.PNG,j,6140adb00d791e6bd0ab2ff5,2021-10-20_07h50.57.152,forced_choiceRT,2021.1.2,Win32,60.0240096,,,,,,,,6,Fast,j,1,1.651,8,3,35,3,1,,,,,
,1.1,,,,,,,,,h.PNG,h,6140adb00d791e6bd0ab2ff5,2021-10-20_07h50.57.152,forced_choiceRT,2021.1.2,Win32,60.0240096,,,,,,,,6,Fast,h,1,1.752,9,0,36,2,1,,,,,
,0.66,,,,,,,,,g.PNG,g,6140adb00d791e6bd0ab2ff5,2021-10-20_07h50.57.152,forced_choiceRT,2021.1.2,Win32,60.0240096,,,,,,,,6,Fast,g,1,1.4,9,1,37,1,1,,,,,
,1.82,,,,,,,,,g.PNG,g,6140adb00d791e6bd0ab2ff5,2021-10-20_07h50.57.152,forced_choiceRT,2021.1.2,Win32,60.0240096,,,,,,,,6,Slow,f,0,2.25,9,2,38,1,1,,,,,
,1.33,,,,,,,,,f.PNG,f,6140adb00d791e6bd0ab2ff5,2021-10-20_07h50.57.152,forced_choiceRT,2021.1.2,Win32,60.0240096,,,,,,,,6,Ontime,g,0,1.968,9,3,39,0,1,,,,,
,,,,,,,,,,,,6140adb00d791e6bd0ab2ff5,2021-10-20_07h50.57.152,forced_choiceRT,2021.1.2,Win32,60.0240096,,,,,,,,,,,,,,,,,,5,0,5,0,1
,0.52,,,,,,,,,h.PNG,h,6140adb00d791e6bd0ab2ff5,2021-10-20_07h50.57.152,forced_choiceRT,2021.1.2,Win32,60.0240096,,,,,,,,7,Fast,h,1,1.403,0,0,0,2,1,,,,,
,1.78,,,,,,,,,g.PNG,g,6140adb00d791e6bd0ab2ff5,2021-10-20_07h50.57.152,forced_choiceRT,2021.1.2,Win32,60.0240096,,,,,,,,7,Slow,g,1,2.201,0,1,1,1,1,,,,,
,0.13,,,,,,,,,f.PNG,f,6140adb00d791e6bd0ab2ff5,2021-10-20_07h50.57.152,forced_choiceRT,2021.1.2,Win32,60.0240096,,,,,,,,7,Fast,f,1,1.022,0,2,2,0,1,,,,,
,0.32,,,,,,,,,f.PNG,f,6140adb00d791e6bd0ab2ff5,2021-10-20_07h50.57.152,forced_choiceRT,2021.1.2,Win32,60.0240096,,,,,,,,7,Fast,f,1,0.974,0,3,3,0,1,,,,,
,0.61,,,,,,,,,j.PNG,j,6140adb00d791e6bd0ab2ff5,2021-10-20_07h50.57.152,forced_choiceRT,2021.1.2,Win32,60.0240096,,,,,,,,7,Fast,j,1,1.273,1,0,4,3,1,,,,,
,1.31,,,,,,,,,h.PNG,h,6140adb00d791e6bd0ab2ff5,2021-10-20_07h50.57.152,forced_choiceRT,2021.1.2,Win32,60.0240096,,,,,,,,7,Ontime,h,1,2.036,1,1,5,2,1,,,,,
,0.41,,,,,,,,,j.PNG,j,6140adb00d791e6bd0ab2ff5,2021-10-20_07h50.57.152,forced_choiceRT,2021.1.2,Win32,60.0240096,,,,,,,,7,Fast,j,1,1.101,1,2,6,3,1,,,,,
,1.46,,,,,,,,,f.PNG,f,6140adb00d791e6bd0ab2ff5,2021-10-20_07h50.57.152,forced_choiceRT,2021.1.2,Win32,60.0240096,,,,,,,,7,Ontime,f,1,2.034,1,3,7,0,1,,,,,
,0.84,,,,,,,,,g.PNG,g,6140adb00d791e6bd0ab2ff5,2021-10-20_07h50.57.152,forced_choiceRT,2021.1.2,Win32,60.0240096,,,,,,,,7,Fast,g,1,1.602,2,0,8,1,1,,,,,
,0.52,,,,,,,,,j.PNG,j,6140adb00d791e6bd0ab2ff5,2021-10-20_07h50.57.152,forced_choiceRT,2021.1.2,Win32,60.0240096,,,,,,,,7,Fast,j,1,1.233,2,1,9,3,1,,,,,
,0.03,,,,,,,,,g.PNG,g,6140adb00d791e6bd0ab2ff5,2021-10-20_07h50.57.152,forced_choiceRT,2021.1.2,Win32,60.0240096,,,,,,,,7,Fast,g,1,0.802,2,2,10,1,1,,,,,
,1.4,,,,,,,,,h.PNG,h,6140adb00d791e6bd0ab2ff5,2021-10-20_07h50.57.152,forced_choiceRT,2021.1.2,Win32,60.0240096,,,,,,,,7,Slow,h,1,2.121,2,3,11,2,1,,,,,
,0.02,,,,,,,,,f.PNG,f,6140adb00d791e6bd0ab2ff5,2021-10-20_07h50.57.152,forced_choiceRT,2021.1.2,Win32,60.0240096,,,,,,,,7,Fast,f,1,0.668,3,0,12,0,1,,,,,
,1.03,,,,,,,,,g.PNG,g,6140adb00d791e6bd0ab2ff5,2021-10-20_07h50.57.152,forced_choiceRT,2021.1.2,Win32,60.0240096,,,,,,,,7,Fast,g,1,1.72,3,1,13,1,1,,,,,
,1.05,,,,,,,,,f.PNG,f,6140adb00d791e6bd0ab2ff5,2021-10-20_07h50.57.152,forced_choiceRT,2021.1.2,Win32,60.0240096,,,,,,,,7,Fast,f,1,1.67,3,2,14,0,1,,,,,
,1.99,,,,,,,,,h.PNG,h,6140adb00d791e6bd0ab2ff5,2021-10-20_07h50.57.152,forced_choiceRT,2021.1.2,Win32,60.0240096,,,,,,,,7,Ontime,g,0,2.02,3,3,15,2,1,,,,,
,1.01,,,,,,,,,f.PNG,f,6140adb00d791e6bd0ab2ff5,2021-10-20_07h50.57.152,forced_choiceRT,2021.1.2,Win32,60.0240096,,,,,,,,7,Fast,f,1,1.618,4,0,16,0,1,,,,,
,1.07,,,,,,,,,f.PNG,f,6140adb00d791e6bd0ab2ff5,2021-10-20_07h50.57.152,forced_choiceRT,2021.1.2,Win32,60.0240096,,,,,,,,7,Fast,f,1,1.756,4,1,17,0,1,,,,,
,1.65,,,,,,,,,g.PNG,g,6140adb00d791e6bd0ab2ff5,2021-10-20_07h50.57.152,forced_choiceRT,2021.1.2,Win32,60.0240096,,,,,,,,7,Slow,g,1,2.301,4,2,18,1,1,,,,,
,0.64,,,,,,,,,g.PNG,g,6140adb00d791e6bd0ab2ff5,2021-10-20_07h50.57.152,forced_choiceRT,2021.1.2,Win32,60.0240096,,,,,,,,7,Fast,g,1,1.452,4,3,19,1,1,,,,,
,1.46,,,,,,,,,h.PNG,h,6140adb00d791e6bd0ab2ff5,2021-10-20_07h50.57.152,forced_choiceRT,2021.1.2,Win32,60.0240096,,,,,,,,7,Ontime,h,1,1.97,5,0,20,2,1,,,,,
,1.98,,,,,,,,,g.PNG,g,6140adb00d791e6bd0ab2ff5,2021-10-20_07h50.57.152,forced_choiceRT,2021.1.2,Win32,60.0240096,,,,,,,,7,Slow,g,1,3.184,5,1,21,1,1,,,,,
,0.31,,,,,,,,,j.PNG,j,6140adb00d791e6bd0ab2ff5,2021-10-20_07h50.57.152,forced_choiceRT,2021.1.2,Win32,60.0240096,,,,,,,,7,Fast,j,1,1.151,5,2,22,3,1,,,,,
,1.58,,,,,,,,,f.PNG,f,6140adb00d791e6bd0ab2ff5,2021-10-20_07h50.57.152,forced_choiceRT,2021.1.2,Win32,60.0240096,,,,,,,,7,Ontime,g,0,1.984,5,3,23,0,1,,,,,
,0.19,,,,,,,,,j.PNG,j,6140adb00d791e6bd0ab2ff5,2021-10-20_07h50.57.152,forced_choiceRT,2021.1.2,Win32,60.0240096,,,,,,,,7,Fast,j,1,0.885,6,0,24,3,1,,,,,
,1.42,,,,,,,,,j.PNG,j,6140adb00d791e6bd0ab2ff5,2021-10-20_07h50.57.152,forced_choiceRT,2021.1.2,Win32,60.0240096,,,,,,,,7,Fast,g,0,1.839,6,1,25,3,1,,,,,
,0.19,,,,,,,,,h.PNG,h,6140adb00d791e6bd0ab2ff5,2021-10-20_07h50.57.152,forced_choiceRT,2021.1.2,Win32,60.0240096,,,,,,,,7,Fast,h,1,0.974,6,2,26,2,1,,,,,
,1.15,,,,,,,,,h.PNG,h,6140adb00d791e6bd0ab2ff5,2021-10-20_07h50.57.152,forced_choiceRT,2021.1.2,Win32,60.0240096,,,,,,,,7,Fast,h,1,1.885,6,3,27,2,1,,,,,
,1.75,,,,,,,,,f.PNG,f,6140adb00d791e6bd0ab2ff5,2021-10-20_07h50.57.152,forced_choiceRT,2021.1.2,Win32,60.0240096,,,,,,,,7,Ontime,g,0,2.084,7,0,28,0,1,,,,,
,1.56,,,,,,,,,g.PNG,g,6140adb00d791e6bd0ab2ff5,2021-10-20_07h50.57.152,forced_choiceRT,2021.1.2,Win32,60.0240096,,,,,,,,7,Slow,g,1,2.151,7,1,29,1,1,,,,,
,1.4,,,,,,,,,h.PNG,h,6140adb00d791e6bd0ab2ff5,2021-10-20_07h50.57.152,forced_choiceRT,2021.1.2,Win32,60.0240096,,,,,,,,7,Ontime,h,1,1.95,7,2,30,2,1,,,,,
,1.23,,,,,,,,,j.PNG,j,6140adb00d791e6bd0ab2ff5,2021-10-20_07h50.57.152,forced_choiceRT,2021.1.2,Win32,60.0240096,,,,,,,,7,Fast,j,1,1.839,7,3,31,3,1,,,,,
,0.05,,,,,,,,,j.PNG,j,6140adb00d791e6bd0ab2ff5,2021-10-20_07h50.57.152,forced_choiceRT,2021.1.2,Win32,60.0240096,,,,,,,,7,Fast,j,1,0.703,8,0,32,3,1,,,,,
,0.9,,,,,,,,,g.PNG,g,6140adb00d791e6bd0ab2ff5,2021-10-20_07h50.57.152,forced_choiceRT,2021.1.2,Win32,60.0240096,,,,,,,,7,Fast,h,0,1.684,8,1,33,1,1,,,,,
,1.78,,,,,,,,,j.PNG,j,6140adb00d791e6bd0ab2ff5,2021-10-20_07h50.57.152,forced_choiceRT,2021.1.2,Win32,60.0240096,,,,,,,,7,Ontime,g,0,2.087,8,2,34,3,1,,,,,
,0.5,,,,,,,,,g.PNG,g,6140adb00d791e6bd0ab2ff5,2021-10-20_07h50.57.152,forced_choiceRT,2021.1.2,Win32,60.0240096,,,,,,,,7,Fast,g,1,1.386,8,3,35,1,1,,,,,
,1.96,,,,,,,,,f.PNG,f,6140adb00d791e6bd0ab2ff5,2021-10-20_07h50.57.152,forced_choiceRT,2021.1.2,Win32,60.0240096,,,,,,,,7,Slow,f,1,2.567,9,0,36,0,1,,,,,
,0.86,,,,,,,,,h.PNG,h,6140adb00d791e6bd0ab2ff5,2021-10-20_07h50.57.152,forced_choiceRT,2021.1.2,Win32,60.0240096,,,,,,,,7,Fast,h,1,1.602,9,1,37,2,1,,,,,
,0.07,,,,,,,,,h.PNG,h,6140adb00d791e6bd0ab2ff5,2021-10-20_07h50.57.152,forced_choiceRT,2021.1.2,Win32,60.0240096,,,,,,,,7,Fast,h,1,0.986,9,2,38,2,1,,,,,
,1.7,,,,,,,,,j.PNG,j,6140adb00d791e6bd0ab2ff5,2021-10-20_07h50.57.152,forced_choiceRT,2021.1.2,Win32,60.0240096,,,,,,,,7,Ontime,j,1,2.018,9,3,39,3,1,,,,,
,,,,,,,,,,,,6140adb00d791e6bd0ab2ff5,2021-10-20_07h50.57.152,forced_choiceRT,2021.1.2,Win32,60.0240096,,,,,,,,,,,,,,,,,,6,0,6,0,1
,0.49,,,,,,,,,h.PNG,h,6140adb00d791e6bd0ab2ff5,2021-10-20_07h50.57.152,forced_choiceRT,2021.1.2,Win32,60.0240096,,,,,,,,8,Fast,h,1,1.369,0,0,0,2,1,,,,,
,1.02,,,,,,,,,g.PNG,g,6140adb00d791e6bd0ab2ff5,2021-10-20_07h50.57.152,forced_choiceRT,2021.1.2,Win32,60.0240096,,,,,,,,8,Ontime,g,1,1.942,0,1,1,1,1,,,,,
,0.66,,,,,,,,,g.PNG,g,6140adb00d791e6bd0ab2ff5,2021-10-20_07h50.57.152,forced_choiceRT,2021.1.2,Win32,60.0240096,,,,,,,,8,Fast,g,1,1.437,0,2,2,1,1,,,,,
,1.88,,,,,,,,,h.PNG,h,6140adb00d791e6bd0ab2ff5,2021-10-20_07h50.57.152,forced_choiceRT,2021.1.2,Win32,60.0240096,,,,,,,,8,Slow,h,1,2.633,0,3,3,2,1,,,,,
,0.7,,,,,,,,,h.PNG,h,6140adb00d791e6bd0ab2ff5,2021-10-20_07h50.57.152,forced_choiceRT,2021.1.2,Win32,60.0240096,,,,,,,,8,Fast,h,1,1.486,1,0,4,2,1,,,,,
,0.63,,,,,,,,,j.PNG,j,6140adb00d791e6bd0ab2ff5,2021-10-20_07h50.57.152,forced_choiceRT,2021.1.2,Win32,60.0240096,,,,,,,,8,Fast,j,1,1.616,1,1,5,3,1,,,,,
,1.73,,,,,,,,,j.PNG,j,6140adb00d791e6bd0ab2ff5,2021-10-20_07h50.57.152,forced_choiceRT,2021.1.2,Win32,60.0240096,,,,,,,,8,Slow,h,0,2.301,1,2,6,3,1,,,,,
,0.08,,,,,,,,,h.PNG,h,6140adb00d791e6bd0ab2ff5,2021-10-20_07h50.57.152,forced_choiceRT,2021.1.2,Win32,60.0240096,,,,,,,,8,Fast,h,1,0.985,1,3,7,2,1,,,,,
,1.81,,,,,,,,,h.PNG,h,6140adb00d791e6bd0ab2ff5,2021-10-20_07h50.57.152,forced_choiceRT,2021.1.2,Win32,60.0240096,,,,,,,,8,Ontime,h,1,2.035,2,0,8,2,1,,,,,
,0.41,,,,,,,,,f.PNG,f,6140adb00d791e6bd0ab2ff5,2021-10-20_07h50.57.152,forced_choiceRT,2021.1.2,Win32,60.0240096,,,,,,,,8,Fast,f,1,1.103,2,1,9,0,1,,,,,
,0.86,,,,,,,,,f.PNG,f,6140adb00d791e6bd0ab2ff5,2021-10-20_07h50.57.152,forced_choiceRT,2021.1.2,Win32,60.0240096,,,,,,,,8,Fast,f,1,1.551,2,2,10,0,1,,,,,
,1.71,,,,,,,,,h.PNG,h,6140adb00d791e6bd0ab2ff5,2021-10-20_07h50.57.152,forced_choiceRT,2021.1.2,Win32,60.0240096,,,,,,,,8,Slow,h,1,2.301,2,3,11,2,1,,,,,
,0.29,,,,,,,,,j.PNG,j,6140adb00d791e6bd0ab2ff5,2021-10-20_07h50.57.152,forced_choiceRT,2021.1.2,Win32,60.0240096,,,,,,,,8,Fast,j,1,1.084,3,0,12,3,1,,,,,
,0.41,,,,,,,,,j.PNG,j,6140adb00d791e6bd0ab2ff5,2021-10-20_07h50.57.152,forced_choiceRT,2021.1.2,Win32,60.0240096,,,,,,,,8,Fast,j,1,0.934,3,1,13,3,1,,,,,
,0.65,,,,,,,,,f.PNG,f,6140adb00d791e6bd0ab2ff5,2021-10-20_07h50.57.152,forced_choiceRT,2021.1.2,Win32,60.0240096,,,,,,,,8,Fast,f,1,1.467,3,2,14,0,1,,,,,
,0.53,,,,,,,,,g.PNG,g,6140adb00d791e6bd0ab2ff5,2021-10-20_07h50.57.152,forced_choiceRT,2021.1.2,Win32,60.0240096,,,,,,,,8,Fast,g,1,1.801,3,3,15,1,1,,,,,
,0.62,,,,,,,,,j.PNG,j,6140adb00d791e6bd0ab2ff5,2021-10-20_07h50.57.152,forced_choiceRT,2021.1.2,Win32,60.0240096,,,,,,,,8,Fast,j,1,1.333,4,0,16,3,1,,,,,
,1.58,,,,,,,,,f.PNG,f,6140adb00d791e6bd0ab2ff5,2021-10-20_07h50.57.152,forced_choiceRT,2021.1.2,Win32,60.0240096,,,,,,,,8,Slow,f,1,2.27,4,1,17,0,1,,,,,
,1.03,,,,,,,,,g.PNG,g,6140adb00d791e6bd0ab2ff5,2021-10-20_07h50.57.152,forced_choiceRT,2021.1.2,Win32,60.0240096,,,,,,,,8,Fast,g,1,1.724,4,2,18,1,1,,,,,
,0.96,,,,,,,,,h.PNG,h,6140adb00d791e6bd0ab2ff5,2021-10-20_07h50.57.152,forced_choiceRT,2021.1.2,Win32,60.0240096,,,,,,,,8,Fast,h,1,1.686,4,3,19,2,1,,,,,
,0.57,,,,,,,,,g.PNG,g,6140adb00d791e6bd0ab2ff5,2021-10-20_07h50.57.152,forced_choiceRT,2021.1.2,Win32,60.0240096,,,,,,,,8,Fast,h,0,1.389,5,0,20,1,1,,,,,
,0.83,,,,,,,,,f.PNG,f,6140adb00d791e6bd0ab2ff5,2021-10-20_07h50.57.152,forced_choiceRT,2021.1.2,Win32,60.0240096,,,,,,,,8,Fast,f,1,1.502,5,1,21,0,1,,,,,
,1.29,,,,,,,,,f.PNG,f,6140adb00d791e6bd0ab2ff5,2021-10-20_07h50.57.152,forced_choiceRT,2021.1.2,Win32,60.0240096,,,,,,,,8,Fast,f,1,1.817,5,2,22,0,1,,,,,
,0.61,,,,,,,,,f.PNG,f,6140adb00d791e6bd0ab2ff5,2021-10-20_07h50.57.152,forced_choiceRT,2021.1.2,Win32,60.0240096,,,,,,,,8,Fast,f,1,1.187,5,3,23,0,1,,,,,
,0.55,,,,,,,,,j.PNG,j,6140adb00d791e6bd0ab2ff5,2021-10-20_07h50.57.152,forced_choiceRT,2021.1.2,Win32,60.0240096,,,,,,,,8,Fast,j,1,1.307,6,0,24,3,1,,,,,
,0.87,,,,,,,,,f.PNG,f,6140adb00d791e6bd0ab2ff5,2021-10-20_07h50.57.152,forced_choiceRT,2021.1.2,Win32,60.0240096,,,,,,,,8,Fast,f,1,1.485,6,1,25,0,1,,,,,
,0.34,,,,,,,,,h.PNG,h,6140adb00d791e6bd0ab2ff5,2021-10-20_07h50.57.152,forced_choiceRT,2021.1.2,Win32,60.0240096,,,,,,,,8,Fast,h,1,1.116,6,2,26,2,1,,,,,
,0.86,,,,,,,,,h.PNG,h,6140adb00d791e6bd0ab2ff5,2021-10-20_07h50.57.152,forced_choiceRT,2021.1.2,Win32,60.0240096,,,,,,,,8,Fast,h,1,1.504,6,3,27,2,1,,,,,
,0.2,,,,,,,,,g.PNG,g,6140adb00d791e6bd0ab2ff5,2021-10-20_07h50.57.152,forced_choiceRT,2021.1.2,Win32,60.0240096,,,,,,,,8,Fast,g,1,1.483,7,0,28,1,1,,,,,
,0.93,,,,,,,,,f.PNG,f,6140adb00d791e6bd0ab2ff5,2021-10-20_07h50.57.152,forced_choiceRT,2021.1.2,Win32,60.0240096,,,,,,,,8,Fast,f,1,1.519,7,1,29,0,1,,,,,
,1.18,,,,,,,,,g.PNG,g,6140adb00d791e6bd0ab2ff5,2021-10-20_07h50.57.152,forced_choiceRT,2021.1.2,Win32,60.0240096,,,,,,,,8,Ontime,g,1,2.051,7,2,30,1,1,,,,,
,0.18,,,,,,,,,j.PNG,j,6140adb00d791e6bd0ab2ff5,2021-10-20_07h50.57.152,forced_choiceRT,2021.1.2,Win32,60.0240096,,,,,,,,8,Fast,j,1,1.019,7,3,31,3,1,,,,,
,0.33,,,,,,,,,j.PNG,j,6140adb00d791e6bd0ab2ff5,2021-10-20_07h50.57.152,forced_choiceRT,2021.1.2,Win32,60.0240096,,,,,,,,8,Fast,j,1,1.001,8,0,32,3,1,,,,,
,1.37,,,,,,,,,g.PNG,g,6140adb00d791e6bd0ab2ff5,2021-10-20_07h50.57.152,forced_choiceRT,2021.1.2,Win32,60.0240096,,,,,,,,8,Ontime,g,1,1.983,8,1,33,1,1,,,,,
,1.89,,,,,,,,,f.PNG,f,6140adb00d791e6bd0ab2ff5,2021-10-20_07h50.57.152,forced_choiceRT,2021.1.2,Win32,60.0240096,,,,,,,,8,Slow,f,1,2.454,8,2,34,0,1,,,,,
,0.79,,,,,,,,,h.PNG,h,6140adb00d791e6bd0ab2ff5,2021-10-20_07h50.57.152,forced_choiceRT,2021.1.2,Win32,60.0240096,,,,,,,,8,Fast,h,1,1.668,8,3,35,2,1,,,,,
,1.56,,,,,,,,,g.PNG,g,6140adb00d791e6bd0ab2ff5,2021-10-20_07h50.57.152,forced_choiceRT,2021.1.2,Win32,60.0240096,,,,,,,,8,Ontime,g,1,1.901,9,0,36,1,1,,,,,
,1.28,,,,,,,,,j.PNG,j,6140adb00d791e6bd0ab2ff5,2021-10-20_07h50.57.152,forced_choiceRT,2021.1.2,Win32,60.0240096,,,,,,,,8,Ontime,h,0,1.901,9,1,37,3,1,,,,,
,0.22,,,,,,,,,j.PNG,j,6140adb00d791e6bd0ab2ff5,2021-10-20_07h50.57.152,forced_choiceRT,2021.1.2,Win32,60.0240096,,,,,,,,8,Fast,j,1,0.902,9,2,38,3,1,,,,,
,1.61,,,,,,,,,g.PNG,g,6140adb00d791e6bd0ab2ff5,2021-10-20_07h50.57.152,forced_choiceRT,2021.1.2,Win32,60.0240096,,,,,,,,8,Slow,g,1,2.12,9,3,39,1,1,,,,,
,,,,,,,,,,,,6140adb00d791e6bd0ab2ff5,2021-10-20_07h50.57.152,forced_choiceRT,2021.1.2,Win32,60.0240096,,,,,,,,,,,,,,,,,,7,0,7,0,1
,0.74,,,,,,,,,j.PNG,j,6140adb00d791e6bd0ab2ff5,2021-10-20_07h50.57.152,forced_choiceRT,2021.1.2,Win32,60.0240096,,,,,,,,9,Fast,j,1,1.449,0,0,0,3,1,,,,,
,0.48,,,,,,,,,h.PNG,h,6140adb00d791e6bd0ab2ff5,2021-10-20_07h50.57.152,forced_choiceRT,2021.1.2,Win32,60.0240096,,,,,,,,9,Fast,h,1,1.351,0,1,1,2,1,,,,,
,1,,,,,,,,,h.PNG,h,6140adb00d791e6bd0ab2ff5,2021-10-20_07h50.57.152,forced_choiceRT,2021.1.2,Win32,60.0240096,,,,,,,,9,Fast,h,1,1.886,0,2,2,2,1,,,,,
,0.03,,,,,,,,,j.PNG,j,6140adb00d791e6bd0ab2ff5,2021-10-20_07h50.57.152,forced_choiceRT,2021.1.2,Win32,60.0240096,,,,,,,,9,Fast,j,1,0.738,0,3,3,3,1,,,,,
,1.53,,,,,,,,,g.PNG,g,6140adb00d791e6bd0ab2ff5,2021-10-20_07h50.57.152,forced_choiceRT,2021.1.2,Win32,60.0240096,,,,,,,,9,Slow,g,1,2.203,1,0,4,1,1,,,,,
,0.63,,,,,,,,,g.PNG,g,6140adb00d791e6bd0ab2ff5,2021-10-20_07h50.57.152,forced_choiceRT,2021.1.2,Win32,60.0240096,,,,,,,,9,Fast,g,1,1.301,1,1,5,1,1,,,,,
,0.71,,,,,,,,,j.PNG,j,6140adb00d791e6bd0ab2ff5,2021-10-20_07h50.57.152,forced_choiceRT,2021.1.2,Win32,60.0240096,,,,,,,,9,Fast,j,1,1.734,1,2,6,3,1,,,,,
,1.88,,,,,,,,,f.PNG,f,6140adb00d791e6bd0ab2ff5,2021-10-20_07h50.57.152,forced_choiceRT,2021.1.2,Win32,60.0240096,,,,,,,,9,Slow,f,1,2.589,1,3,7,0,1,,,,,
,0.9,,,,,,,,,h.PNG,h,6140adb00d791e6bd0ab2ff5,2021-10-20_07h50.57.152,forced_choiceRT,2021.1.2,Win32,60.0240096,,,,,,,,9,Fast,h,1,1.838,2,0,8,2,1,,,,,
,0.15,,,,,,,,,f.PNG,f,6140adb00d791e6bd0ab2ff5,2021-10-20_07h50.57.152,forced_choiceRT,2021.1.2,Win32,60.0240096,,,,,,,,9,Fast,f,1,1.168,2,1,9,0,1,,,,,
,1.88,,,,,,,,,f.PNG,f,6140adb00d791e6bd0ab2ff5,2021-10-20_07h50.57.152,forced_choiceRT,2021.1.2,Win32,60.0240096,,,,,,,,9,Slow,f,1,2.418,2,2,10,0,1,,,,,
,0.22,,,,,,,,,g.PNG,g,6140adb00d791e6bd0ab2ff5,2021-10-20_07h50.57.152,forced_choiceRT,2021.1.2,Win32,60.0240096,,,,,,,,9,Fast,g,1,1.072,2,3,11,1,1,,,,,
,0.02,,,,,,,,,f.PNG,f,6140adb00d791e6bd0ab2ff5,2021-10-20_07h50.57.152,forced_choiceRT,2021.1.2,Win32,60.0240096,,,,,,,,9,Fast,f,1,0.735,3,0,12,0,1,,,,,
,1.54,,,,,,,,,j.PNG,j,6140adb00d791e6bd0ab2ff5,2021-10-20_07h50.57.152,forced_choiceRT,2021.1.2,Win32,60.0240096,,,,,,,,9,Slow,j,1,2.317,3,1,13,3,1,,,,,
,0.66,,,,,,,,,f.PNG,f,6140adb00d791e6bd0ab2ff5,2021-10-20_07h50.57.152,forced_choiceRT,2021.1.2,Win32,60.0240096,,,,,,,,9,Fast,f,1,1.319,3,2,14,0,1,,,,,
,1.64,,,,,,,,,g.PNG,g,6140adb00d791e6bd0ab2ff5,2021-10-20_07h50.57.152,forced_choiceRT,2021.1.2,Win32,60.0240096,,,,,,,,9,Slow,g,1,2.551,3,3,15,1,1,,,,,
,0.56,,,,,,,,,f.PNG,f,6140adb00d791e6bd0ab2ff5,2021-10-20_07h50.57.152,forced_choiceRT,2021.1.2,Win32,60.0240096,,,,,,,,9,Fast,f,1,1.204,4,0,16,0,1,,,,,
,1.48,,,,,,,,,g.PNG,g,6140adb00d791e6bd0ab2ff5,2021-10-20_07h50.57.152,forced_choiceRT,2021.1.2,Win32,60.0240096,,,,,,,,9,Slow,g,1,2.101,4,1,17,1,1,,,,,
,1.71,,,,,,,,,j.PNG,j,6140adb00d791e6bd0ab2ff5,2021-10-20_07h50.57.152,forced_choiceRT,2021.1.2,Win32,60.0240096,,,,,,,,9,Slow,f,0,2.268,4,2,18,3,1,,,,,
,0.43,,,,,,,,,j.PNG,j,6140adb00d791e6bd0ab2ff5,2021-10-20_07h50.57.152,forced_choiceRT,2021.1.2,Win32,60.0240096,,,,,,,,9,Fast,j,1,1.086,4,3,19,3,1,,,,,
,0.61,,,,,,,,,j.PNG,j,6140adb00d791e6bd0ab2ff5,2021-10-20_07h50.57.152,forced_choiceRT,2021.1.2,Win32,60.0240096,,,,,,,,9,Fast,j,1,1.251,5,0,20,3,1,,,,,
,0.74,,,,,,,,,h.PNG,h,6140adb00d791e6bd0ab2ff5,2021-10-20_07h50.57.152,forced_choiceRT,2021.1.2,Win32,60.0240096,,,,,,,,9,Fast,h,1,1.581,5,1,21,2,1,,,,,
,0.18,,,,,,,,,h.PNG,h,6140adb00d791e6bd0ab2ff5,2021-10-20_07h50.57.152,forced_choiceRT,2021.1.2,Win32,60.0240096,,,,,,,,9,Fast,j,0,0.906,5,2,22,2,1,,,,,
,1.3,,,,,,,,,f.PNG,f,6140adb00d791e6bd0ab2ff5,2021-10-20_07h50.57.152,forced_choiceRT,2021.1.2,Win32,60.0240096,,,,,,,,9,Ontime,f,1,1.935,5,3,23,0,1,,,,,
,1.15,,,,,,,,,h.PNG,h,6140adb00d791e6bd0ab2ff5,2021-10-20_07h50.57.152,forced_choiceRT,2021.1.2,Win32,60.0240096,,,,,,,,9,Slow,h,1,2.435,6,0,24,2,1,,,,,
,1.84,,,,,,,,,h.PNG,h,6140adb00d791e6bd0ab2ff5,2021-10-20_07h50.57.152,forced_choiceRT,2021.1.2,Win32,60.0240096,,,,,,,,9,Slow,f,0,2.402,6,1,25,2,1,,,,,
,1.85,,,,,,,,,f.PNG,f,6140adb00d791e6bd0ab2ff5,2021-10-20_07h50.57.152,forced_choiceRT,2021.1.2,Win32,60.0240096,,,,,,,,9,Slow,g,0,2.368,6,2,26,0,1,,,,,
,0.35,,,,,,,,,h.PNG,h,6140adb00d791e6bd0ab2ff5,2021-10-20_07h50.57.152,forced_choiceRT,2021.1.2,Win32,60.0240096,,,,,,,,9,Fast,h,1,1.051,6,3,27,2,1,,,,,
,1.43,,,,,,,,,j.PNG,j,6140adb00d791e6bd0ab2ff5,2021-10-20_07h50.57.152,forced_choiceRT,2021.1.2,Win32,60.0240096,,,,,,,,9,Ontime,g,0,1.967,7,0,28,3,1,,,,,
,1.52,,,,,,,,,j.PNG,j,6140adb00d791e6bd0ab2ff5,2021-10-20_07h50.57.152,forced_choiceRT,2021.1.2,Win32,60.0240096,,,,,,,,9,Ontime,j,1,2.069,7,1,29,3,1,,,,,
,0.34,,,,,,,,,j.PNG,j,6140adb00d791e6bd0ab2ff5,2021-10-20_07h50.57.152,forced_choiceRT,2021.1.2,Win32,60.0240096,,,,,,,,9,Fast,j,1,1.035,7,2,30,3,1,,,,,
,0.77,,,,,,,,,f.PNG,f,6140adb00d791e6bd0ab2ff5,2021-10-20_07h50.57.152,forced_choiceRT,2021.1.2,Win32,60.0240096,,,,,,,,9,Slow,f,1,2.148,7,3,31,0,1,,,,,
,0.94,,,,,,,,,f.PNG,f,6140adb00d791e6bd0ab2ff5,2021-10-20_07h50.57.152,forced_choiceRT,2021.1.2,Win32,60.0240096,,,,,,,,9,Fast,f,1,1.618,8,0,32,0,1,,,,,
,0.66,,,,,,,,,g.PNG,g,6140adb00d791e6bd0ab2ff5,2021-10-20_07h50.57.152,forced_choiceRT,2021.1.2,Win32,60.0240096,,,,,,,,9,Fast,g,1,1.85,8,1,33,1,1,,,,,
,1.31,,,,,,,,,g.PNG,g,6140adb00d791e6bd0ab2ff5,2021-10-20_07h50.57.152,forced_choiceRT,2021.1.2,Win32,60.0240096,,,,,,,,9,Ontime,g,1,2.084,8,2,34,1,1,,,,,
,1.46,,,,,,,,,g.PNG,g,6140adb00d791e6bd0ab2ff5,2021-10-20_07h50.57.152,forced_choiceRT,2021.1.2,Win32,60.0240096,,,,,,,,9,Ontime,g,1,2.001,8,3,35,1,1,,,,,
,1.01,,,,,,,,,h.PNG,h,6140adb00d791e6bd0ab2ff5,2021-10-20_07h50.57.152,forced_choiceRT,2021.1.2,Win32,60.0240096,,,,,,,,9,Slow,h,1,2.318,9,0,36,2,1,,,,,
,1.61,,,,,,,,,g.PNG,g,6140adb00d791e6bd0ab2ff5,2021-10-20_07h50.57.152,forced_choiceRT,2021.1.2,Win32,60.0240096,,,,,,,,9,Slow,g,1,2.287,9,1,37,1,1,,,,,
,0.76,,,,,,,,,g.PNG,g,6140adb00d791e6bd0ab2ff5,2021-10-20_07h50.57.152,forced_choiceRT,2021.1.2,Win32,60.0240096,,,,,,,,9,Slow,h,0,2.22,9,2,38,1,1,,,,,
,0.63,,,,,,,,,h.PNG,h,6140adb00d791e6bd0ab2ff5,2021-10-20_07h50.57.152,forced_choiceRT,2021.1.2,Win32,60.0240096,,,,,,,,9,Fast,h,1,1.451,9,3,39,2,1,,,,,
,,,,,,,,,,,,6140adb00d791e6bd0ab2ff5,2021-10-20_07h50.57.152,forced_choiceRT,2021.1.2,Win32,60.0240096,,,,,,,,,,,,,,,,,,8,0,8,0,1
,1.74,,,,,,,,,g.PNG,g,6140adb00d791e6bd0ab2ff5,2021-10-20_07h50.57.152,forced_choiceRT,2021.1.2,Win32,60.0240096,,,,,,,,10,Slow,g,1,2.186,0,0,0,1,1,,,,,
,1.92,,,,,,,,,h.PNG,h,6140adb00d791e6bd0ab2ff5,2021-10-20_07h50.57.152,forced_choiceRT,2021.1.2,Win32,60.0240096,,,,,,,,10,Slow,f,0,2.25,0,1,1,2,1,,,,,
,0.43,,,,,,,,,j.PNG,j,6140adb00d791e6bd0ab2ff5,2021-10-20_07h50.57.152,forced_choiceRT,2021.1.2,Win32,60.0240096,,,,,,,,10,Fast,f,0,0.286,0,2,2,3,1,,,,,
,0.49,,,,,,,,,g.PNG,g,6140adb00d791e6bd0ab2ff5,2021-10-20_07h50.57.152,forced_choiceRT,2021.1.2,Win32,60.0240096,,,,,,,,10,Fast,g,1,1.37,0,3,3,1,1,,,,,
,0.47,,,,,,,,,h.PNG,h,6140adb00d791e6bd0ab2ff5,2021-10-20_07h50.57.152,forced_choiceRT,2021.1.2,Win32,60.0240096,,,,,,,,10,Fast,h,1,1.183,1,0,4,2,1,,,,,
,1.5,,,,,,,,,h.PNG,h,6140adb00d791e6bd0ab2ff5,2021-10-20_07h50.57.152,forced_choiceRT,2021.1.2,Win32,60.0240096,,,,,,,,10,Ontime,h,1,2.02,1,1,5,2,1,,,,,
,0.2,,,,,,,,,g.PNG,g,6140adb00d791e6bd0ab2ff5,2021-10-20_07h50.57.152,forced_choiceRT,2021.1.2,Win32,60.0240096,,,,,,,,10,Fast,g,1,1.052,1,2,6,1,1,,,,,
,1.01,,,,,,,,,f.PNG,f,6140adb00d791e6bd0ab2ff5,2021-10-20_07h50.57.152,forced_choiceRT,2021.1.2,Win32,60.0240096,,,,,,,,10,Fast,f,1,1.685,1,3,7,0,1,,,,,
,1.36,,,,,,,,,f.PNG,f,6140adb00d791e6bd0ab2ff5,2021-10-20_07h50.57.152,forced_choiceRT,2021.1.2,Win32,60.0240096,,,,,,,,10,Ontime,f,1,2.068,2,0,8,0,1,,,,,
,0.73,,,,,,,,,f.PNG,f,6140adb00d791e6bd0ab2ff5,2021-10-20_07h50.57.152,forced_choiceRT,2021.1.2,Win32,60.0240096,,,,,,,,10,Fast,f,1,1.518,2,1,9,0,1,,,,,
,1.23,,,,,,,,,h.PNG,h,6140adb00d791e6bd0ab2ff5,2021-10-20_07h50.57.152,forced_choiceRT,2021.1.2,Win32,60.0240096,,,,,,,,10,Fast,h,1,1.802,2,2,10,2,1,,,,,
,1.68,,,,,,,,,f.PNG,f,6140adb00d791e6bd0ab2ff5,2021-10-20_07h50.57.152,forced_choiceRT,2021.1.2,Win32,60.0240096,,,,,,,,10,Slow,h,0,2.169,2,3,11,0,1,,,,,
,0.19,,,,,,,,,g.PNG,g,6140adb00d791e6bd0ab2ff5,2021-10-20_07h50.57.152,forced_choiceRT,2021.1.2,Win32,60.0240096,,,,,,,,10,Fast,g,1,0.924,3,0,12,1,1,,,,,
,0.73,,,,,,,,,j.PNG,j,6140adb00d791e6bd0ab2ff5,2021-10-20_07h50.57.152,forced_choiceRT,2021.1.2,Win32,60.0240096,,,,,,,,10,Fast,j,1,1.334,3,1,13,3,1,,,,,
,1.27,,,,,,,,,h.PNG,h,6140adb00d791e6bd0ab2ff5,2021-10-20_07h50.57.152,forced_choiceRT,2021.1.2,Win32,60.0240096,,,,,,,,10,Ontime,h,1,1.984,3,2,14,2,1,,,,,
,0.38,,,,,,,,,j.PNG,j,6140adb00d791e6bd0ab2ff5,2021-10-20_07h50.57.152,forced_choiceRT,2021.1.2,Win32,60.0240096,,,,,,,,10,Fast,j,1,0.951,3,3,15,3,1,,,,,
,1.27,,,,,,,,,h.PNG,h,6140adb00d791e6bd0ab2ff5,2021-10-20_07h50.57.152,forced_choiceRT,2021.1.2,Win32,60.0240096,,,,,,,,10,Fast,h,1,1.791,4,0,16,2,1,,,,,
,1.09,,,,,,,,,f.PNG,f,6140adb00d791e6bd0ab2ff5,2021-10-20_07h50.57.152,forced_choiceRT,2021.1.2,Win32,60.0240096,,,,,,,,10,Fast,f,1,1.651,4,1,17,0,1,,,,,
,0.58,,,,,,,,,h.PNG,h,6140adb00d791e6bd0ab2ff5,2021-10-20_07h50.57.152,forced_choiceRT,2021.1.2,Win32,60.0240096,,,,,,,,10,Fast,h,1,1.185,4,2,18,2,1,,,,,
,0.72,,,,,,,,,f.PNG,f,6140adb00d791e6bd0ab2ff5,2021-10-20_07h50.57.152,forced_choiceRT,2021.1.2,Win32,60.0240096,,,,,,,,10,Fast,f,1,1.352,4,3,19,0,1,,,,,
,1.7,,,,,,,,,f.PNG,f,6140adb00d791e6bd0ab2ff5,2021-10-20_07h50.57.152,forced_choiceRT,2021.1.2,Win32,60.0240096,,,,,,,,10,Slow,f,1,2.25,5,0,20,0,1,,,,,
,0.42,,,,,,,,,f.PNG,f,6140adb00d791e6bd0ab2ff5,2021-10-20_07h50.57.152,forced_choiceRT,2021.1.2,Win32,60.0240096,,,,,,,,10,Fast,f,1,1.073,5,1,21,0,1,,,,,
,0.61,,,,,,,,,j.PNG,j,6140adb00d791e6bd0ab2ff5,2021-10-20_07h50.57.152,forced_choiceRT,2021.1.2,Win32,60.0240096,,,,,,,,10,Fast,j,1,1.271,5,2,22,3,1,,,,,
,0.1,,,,,,,,,g.PNG,g,6140adb00d791e6bd0ab2ff5,2021-10-20_07h50.57.152,forced_choiceRT,2021.1.2,Win32,60.0240096,,,,,,,,10,Fast,g,1,1.619,5,3,23,1,1,,,,,
,0.85,,,,,,,,,g.PNG,g,6140adb00d791e6bd0ab2ff5,2021-10-20_07h50.57.152,forced_choiceRT,2021.1.2,Win32,60.0240096,,,,,,,,10,Fast,g,1,1.568,6,0,24,1,1,,,,,
,1.64,,,,,,,,,j.PNG,j,6140adb00d791e6bd0ab2ff5,2021-10-20_07h50.57.152,forced_choiceRT,2021.1.2,Win32,60.0240096,,,,,,,,10,Slow,j,1,2.351,6,1,25,3,1,,,,,
,1.72,,,,,,,,,h.PNG,h,6140adb00d791e6bd0ab2ff5,2021-10-20_07h50.57.152,forced_choiceRT,2021.1.2,Win32,60.0240096,,,,,,,,10,Slow,h,1,2.569,6,2,26,2,1,,,,,
,0.88,,,,,,,,,g.PNG,g,6140adb00d791e6bd0ab2ff5,2021-10-20_07h50.57.152,forced_choiceRT,2021.1.2,Win32,60.0240096,,,,,,,,10,Fast,g,1,1.635,6,3,27,1,1,,,,,
,0.15,,,,,,,,,j.PNG,j,6140adb00d791e6bd0ab2ff5,2021-10-20_07h50.57.152,forced_choiceRT,2021.1.2,Win32,60.0240096,,,,,,,,10,Fast,j,1,0.918,7,0,28,3,1,,,,,
,0.3,,,,,,,,,j.PNG,j,6140adb00d791e6bd0ab2ff5,2021-10-20_07h50.57.152,forced_choiceRT,2021.1.2,Win32,60.0240096,,,,,,,,10,Fast,j,1,0.973,7,1,29,3,1,,,,,
,1.53,,,,,,,,,h.PNG,h,6140adb00d791e6bd0ab2ff5,2021-10-20_07h50.57.152,forced_choiceRT,2021.1.2,Win32,60.0240096,,,,,,,,10,Slow,h,1,2.334,7,2,30,2,1,,,,,
,1.81,,,,,,,,,j.PNG,j,6140adb00d791e6bd0ab2ff5,2021-10-20_07h50.57.152,forced_choiceRT,2021.1.2,Win32,60.0240096,,,,,,,,10,Slow,j,1,2.367,7,3,31,3,1,,,,,
,1.72,,,,,,,,,h.PNG,h,6140adb00d791e6bd0ab2ff5,2021-10-20_07h50.57.152,forced_choiceRT,2021.1.2,Win32,60.0240096,,,,,,,,10,Slow,h,1,2.306,8,0,32,2,1,,,,,
,0.3,,,,,,,,,j.PNG,j,6140adb00d791e6bd0ab2ff5,2021-10-20_07h50.57.152,forced_choiceRT,2021.1.2,Win32,60.0240096,,,,,,,,10,Fast,j,1,1.235,8,1,33,3,1,,,,,
,1.92,,,,,,,,,f.PNG,f,6140adb00d791e6bd0ab2ff5,2021-10-20_07h50.57.152,forced_choiceRT,2021.1.2,Win32,60.0240096,,,,,,,,10,Slow,f,1,2.484,8,2,34,0,1,,,,,
,1.2,,,,,,,,,g.PNG,g,6140adb00d791e6bd0ab2ff5,2021-10-20_07h50.57.152,forced_choiceRT,2021.1.2,Win32,60.0240096,,,,,,,,10,Fast,h,0,1.867,8,3,35,1,1,,,,,
,1.85,,,,,,,,,g.PNG,g,6140adb00d791e6bd0ab2ff5,2021-10-20_07h50.57.152,forced_choiceRT,2021.1.2,Win32,60.0240096,,,,,,,,10,Slow,h,0,2.404,9,0,36,1,1,,,,,
,0.05,,,,,,,,,f.PNG,f,6140adb00d791e6bd0ab2ff5,2021-10-20_07h50.57.152,forced_choiceRT,2021.1.2,Win32,60.0240096,,,,,,,,10,Fast,f,1,0.742,9,1,37,0,1,,,,,
,1.16,,,,,,,,,g.PNG,g,6140adb00d791e6bd0ab2ff5,2021-10-20_07h50.57.152,forced_choiceRT,2021.1.2,Win32,60.0240096,,,,,,,,10,Slow,h,0,2.15,9,2,38,1,1,,,,,
,1.61,,,,,,,,,j.PNG,j,6140adb00d791e6bd0ab2ff5,2021-10-20_07h50.57.152,forced_choiceRT,2021.1.2,Win32,60.0240096,,,,,,,,10,Slow,j,1,2.138,9,3,39,3,1,,,,,
,,,,,,,,,,,,6140adb00d791e6bd0ab2ff5,2021-10-20_07h50.57.152,forced_choiceRT,2021.1.2,Win32,60.0240096,,,,,,,,,,,,,,,,,,9,0,9,0,1
