IP_Addresss,target_onset,trial_resp_sp.keys,trial_resp_sp.corr,trial_resp_sp.rt,trials_train_loop.thisRepN,trials_train_loop.thisTrialN,trials_train_loop.thisN,trials_train_loop.thisIndex,trials_train_loop.ran,pic,correct_key,participant,date,expName,psychopyVersion,OS,frameRate,trial_resp_timing.keys,trial_resp_timing.rt,trials_train_timing.thisRepN,trials_train_timing.thisTrialN,trials_train_timing.thisN,trials_train_timing.thisIndex,trials_train_timing.ran,block_id,ontime,forcedRT_resp.keys,forcedRT_resp.corr,forcedRT_resp.rt,trials.thisRepN,trials.thisTrialN,trials.thisN,trials.thisIndex,trials.ran,blocks.thisRepN,blocks.thisTrialN,blocks.thisN,blocks.thisIndex,blocks.ran
47.78.242.197,0,h,1,2.008,0,0,0,2,1,h.PNG,h,6144b2f861393e7e248fcf00,2021-10-19_14h46.24.761,forced_choiceRT,2021.1.2,Win32,59.95203837,,,,,,,,,,,,,,,,,,,,,,
,0,j,1,0.944,0,1,1,3,1,j.PNG,j,6144b2f861393e7e248fcf00,2021-10-19_14h46.24.761,forced_choiceRT,2021.1.2,Win32,59.95203837,,,,,,,,,,,,,,,,,,,,,,
,0,h,1,0.821,0,2,2,2,1,h.PNG,h,6144b2f861393e7e248fcf00,2021-10-19_14h46.24.761,forced_choiceRT,2021.1.2,Win32,59.95203837,,,,,,,,,,,,,,,,,,,,,,
,0,f,1,0.826,0,3,3,0,1,f.PNG,f,6144b2f861393e7e248fcf00,2021-10-19_14h46.24.761,forced_choiceRT,2021.1.2,Win32,59.95203837,,,,,,,,,,,,,,,,,,,,,,
,0,h,1,1.968,1,0,4,2,1,h.PNG,h,6144b2f861393e7e248fcf00,2021-10-19_14h46.24.761,forced_choiceRT,2021.1.2,Win32,59.95203837,,,,,,,,,,,,,,,,,,,,,,
,0,j,1,0.954,1,1,5,3,1,j.PNG,j,6144b2f861393e7e248fcf00,2021-10-19_14h46.24.761,forced_choiceRT,2021.1.2,Win32,59.95203837,,,,,,,,,,,,,,,,,,,,,,
,0,j,1,0.894,1,2,6,3,1,j.PNG,j,6144b2f861393e7e248fcf00,2021-10-19_14h46.24.761,forced_choiceRT,2021.1.2,Win32,59.95203837,,,,,,,,,,,,,,,,,,,,,,
,0,f,1,0.923,1,3,7,0,1,f.PNG,f,6144b2f861393e7e248fcf00,2021-10-19_14h46.24.761,forced_choiceRT,2021.1.2,Win32,59.95203837,,,,,,,,,,,,,,,,,,,,,,
,0,g,1,0.737,2,0,8,1,1,g.PNG,g,6144b2f861393e7e248fcf00,2021-10-19_14h46.24.761,forced_choiceRT,2021.1.2,Win32,59.95203837,,,,,,,,,,,,,,,,,,,,,,
,0,f,1,1.685,2,1,9,0,1,f.PNG,f,6144b2f861393e7e248fcf00,2021-10-19_14h46.24.761,forced_choiceRT,2021.1.2,Win32,59.95203837,,,,,,,,,,,,,,,,,,,,,,
,0,j,1,0.798,2,2,10,3,1,j.PNG,j,6144b2f861393e7e248fcf00,2021-10-19_14h46.24.761,forced_choiceRT,2021.1.2,Win32,59.95203837,,,,,,,,,,,,,,,,,,,,,,
,0,j,1,0.682,2,3,11,3,1,j.PNG,j,6144b2f861393e7e248fcf00,2021-10-19_14h46.24.761,forced_choiceRT,2021.1.2,Win32,59.95203837,,,,,,,,,,,,,,,,,,,,,,
,0,h,1,0.77,3,0,12,2,1,h.PNG,h,6144b2f861393e7e248fcf00,2021-10-19_14h46.24.761,forced_choiceRT,2021.1.2,Win32,59.95203837,,,,,,,,,,,,,,,,,,,,,,
,0,j,1,0.682,3,1,13,3,1,j.PNG,j,6144b2f861393e7e248fcf00,2021-10-19_14h46.24.761,forced_choiceRT,2021.1.2,Win32,59.95203837,,,,,,,,,,,,,,,,,,,,,,
,0,f,1,0.753,3,2,14,0,1,f.PNG,f,6144b2f861393e7e248fcf00,2021-10-19_14h46.24.761,forced_choiceRT,2021.1.2,Win32,59.95203837,,,,,,,,,,,,,,,,,,,,,,
,0,f,1,1.3,3,3,15,0,1,f.PNG,f,6144b2f861393e7e248fcf00,2021-10-19_14h46.24.761,forced_choiceRT,2021.1.2,Win32,59.95203837,,,,,,,,,,,,,,,,,,,,,,
,0,h,1,1.023,4,0,16,2,1,h.PNG,h,6144b2f861393e7e248fcf00,2021-10-19_14h46.24.761,forced_choiceRT,2021.1.2,Win32,59.95203837,,,,,,,,,,,,,,,,,,,,,,
,0,g,1,0.834,4,1,17,1,1,g.PNG,g,6144b2f861393e7e248fcf00,2021-10-19_14h46.24.761,forced_choiceRT,2021.1.2,Win32,59.95203837,,,,,,,,,,,,,,,,,,,,,,
,0,f,1,0.819,4,2,18,0,1,f.PNG,f,6144b2f861393e7e248fcf00,2021-10-19_14h46.24.761,forced_choiceRT,2021.1.2,Win32,59.95203837,,,,,,,,,,,,,,,,,,,,,,
,0,h,1,0.779,4,3,19,2,1,h.PNG,h,6144b2f861393e7e248fcf00,2021-10-19_14h46.24.761,forced_choiceRT,2021.1.2,Win32,59.95203837,,,,,,,,,,,,,,,,,,,,,,
,0,j,1,0.676,5,0,20,3,1,j.PNG,j,6144b2f861393e7e248fcf00,2021-10-19_14h46.24.761,forced_choiceRT,2021.1.2,Win32,59.95203837,,,,,,,,,,,,,,,,,,,,,,
,0,g,1,0.906,5,1,21,1,1,g.PNG,g,6144b2f861393e7e248fcf00,2021-10-19_14h46.24.761,forced_choiceRT,2021.1.2,Win32,59.95203837,,,,,,,,,,,,,,,,,,,,,,
,0,f,1,0.744,5,2,22,0,1,f.PNG,f,6144b2f861393e7e248fcf00,2021-10-19_14h46.24.761,forced_choiceRT,2021.1.2,Win32,59.95203837,,,,,,,,,,,,,,,,,,,,,,
,0,g,1,3.427,5,3,23,1,1,g.PNG,g,6144b2f861393e7e248fcf00,2021-10-19_14h46.24.761,forced_choiceRT,2021.1.2,Win32,59.95203837,,,,,,,,,,,,,,,,,,,,,,
,0,g,1,0.912,6,0,24,1,1,g.PNG,g,6144b2f861393e7e248fcf00,2021-10-19_14h46.24.761,forced_choiceRT,2021.1.2,Win32,59.95203837,,,,,,,,,,,,,,,,,,,,,,
,0,g,1,0.509,6,1,25,1,1,g.PNG,g,6144b2f861393e7e248fcf00,2021-10-19_14h46.24.761,forced_choiceRT,2021.1.2,Win32,59.95203837,,,,,,,,,,,,,,,,,,,,,,
,0,f,1,0.778,6,2,26,0,1,f.PNG,f,6144b2f861393e7e248fcf00,2021-10-19_14h46.24.761,forced_choiceRT,2021.1.2,Win32,59.95203837,,,,,,,,,,,,,,,,,,,,,,
,0,h,1,1.02,6,3,27,2,1,h.PNG,h,6144b2f861393e7e248fcf00,2021-10-19_14h46.24.761,forced_choiceRT,2021.1.2,Win32,59.95203837,,,,,,,,,,,,,,,,,,,,,,
,0,f,1,0.84,7,0,28,0,1,f.PNG,f,6144b2f861393e7e248fcf00,2021-10-19_14h46.24.761,forced_choiceRT,2021.1.2,Win32,59.95203837,,,,,,,,,,,,,,,,,,,,,,
,0,j,1,0.715,7,1,29,3,1,j.PNG,j,6144b2f861393e7e248fcf00,2021-10-19_14h46.24.761,forced_choiceRT,2021.1.2,Win32,59.95203837,,,,,,,,,,,,,,,,,,,,,,
,0,h,1,1.309,7,2,30,2,1,h.PNG,h,6144b2f861393e7e248fcf00,2021-10-19_14h46.24.761,forced_choiceRT,2021.1.2,Win32,59.95203837,,,,,,,,,,,,,,,,,,,,,,
,0,g,1,2.107,7,3,31,1,1,g.PNG,g,6144b2f861393e7e248fcf00,2021-10-19_14h46.24.761,forced_choiceRT,2021.1.2,Win32,59.95203837,,,,,,,,,,,,,,,,,,,,,,
,0,g,1,0.608,8,0,32,1,1,g.PNG,g,6144b2f861393e7e248fcf00,2021-10-19_14h46.24.761,forced_choiceRT,2021.1.2,Win32,59.95203837,,,,,,,,,,,,,,,,,,,,,,
,0,f,1,0.742,8,1,33,0,1,f.PNG,f,6144b2f861393e7e248fcf00,2021-10-19_14h46.24.761,forced_choiceRT,2021.1.2,Win32,59.95203837,,,,,,,,,,,,,,,,,,,,,,
,0,g,1,1.28,8,2,34,1,1,g.PNG,g,6144b2f861393e7e248fcf00,2021-10-19_14h46.24.761,forced_choiceRT,2021.1.2,Win32,59.95203837,,,,,,,,,,,,,,,,,,,,,,
,0,f,1,0.765,8,3,35,0,1,f.PNG,f,6144b2f861393e7e248fcf00,2021-10-19_14h46.24.761,forced_choiceRT,2021.1.2,Win32,59.95203837,,,,,,,,,,,,,,,,,,,,,,
,0,g,1,0.908,9,0,36,1,1,g.PNG,g,6144b2f861393e7e248fcf00,2021-10-19_14h46.24.761,forced_choiceRT,2021.1.2,Win32,59.95203837,,,,,,,,,,,,,,,,,,,,,,
,0,h,1,1.323,9,1,37,2,1,h.PNG,h,6144b2f861393e7e248fcf00,2021-10-19_14h46.24.761,forced_choiceRT,2021.1.2,Win32,59.95203837,,,,,,,,,,,,,,,,,,,,,,
,0,h,1,0.575,9,2,38,2,1,h.PNG,h,6144b2f861393e7e248fcf00,2021-10-19_14h46.24.761,forced_choiceRT,2021.1.2,Win32,59.95203837,,,,,,,,,,,,,,,,,,,,,,
,0,j,1,0.691,9,3,39,3,1,j.PNG,j,6144b2f861393e7e248fcf00,2021-10-19_14h46.24.761,forced_choiceRT,2021.1.2,Win32,59.95203837,,,,,,,,,,,,,,,,,,,,,,
,0,j,1,0.607,10,0,40,3,1,j.PNG,j,6144b2f861393e7e248fcf00,2021-10-19_14h46.24.761,forced_choiceRT,2021.1.2,Win32,59.95203837,,,,,,,,,,,,,,,,,,,,,,
,0,h,1,0.61,10,1,41,2,1,h.PNG,h,6144b2f861393e7e248fcf00,2021-10-19_14h46.24.761,forced_choiceRT,2021.1.2,Win32,59.95203837,,,,,,,,,,,,,,,,,,,,,,
,0,h,1,0.714,10,2,42,2,1,h.PNG,h,6144b2f861393e7e248fcf00,2021-10-19_14h46.24.761,forced_choiceRT,2021.1.2,Win32,59.95203837,,,,,,,,,,,,,,,,,,,,,,
,0,h,1,0.555,10,3,43,2,1,h.PNG,h,6144b2f861393e7e248fcf00,2021-10-19_14h46.24.761,forced_choiceRT,2021.1.2,Win32,59.95203837,,,,,,,,,,,,,,,,,,,,,,
,0,j,1,0.594,11,0,44,3,1,j.PNG,j,6144b2f861393e7e248fcf00,2021-10-19_14h46.24.761,forced_choiceRT,2021.1.2,Win32,59.95203837,,,,,,,,,,,,,,,,,,,,,,
,0,f,1,0.779,11,1,45,0,1,f.PNG,f,6144b2f861393e7e248fcf00,2021-10-19_14h46.24.761,forced_choiceRT,2021.1.2,Win32,59.95203837,,,,,,,,,,,,,,,,,,,,,,
,0,f,1,0.831,11,2,46,0,1,f.PNG,f,6144b2f861393e7e248fcf00,2021-10-19_14h46.24.761,forced_choiceRT,2021.1.2,Win32,59.95203837,,,,,,,,,,,,,,,,,,,,,,
,0,g,1,1.974,11,3,47,1,1,g.PNG,g,6144b2f861393e7e248fcf00,2021-10-19_14h46.24.761,forced_choiceRT,2021.1.2,Win32,59.95203837,,,,,,,,,,,,,,,,,,,,,,
,0,g,1,0.682,12,0,48,1,1,g.PNG,g,6144b2f861393e7e248fcf00,2021-10-19_14h46.24.761,forced_choiceRT,2021.1.2,Win32,59.95203837,,,,,,,,,,,,,,,,,,,,,,
,0,f,1,1.016,12,1,49,0,1,f.PNG,f,6144b2f861393e7e248fcf00,2021-10-19_14h46.24.761,forced_choiceRT,2021.1.2,Win32,59.95203837,,,,,,,,,,,,,,,,,,,,,,
,0,g,1,0.717,12,2,50,1,1,g.PNG,g,6144b2f861393e7e248fcf00,2021-10-19_14h46.24.761,forced_choiceRT,2021.1.2,Win32,59.95203837,,,,,,,,,,,,,,,,,,,,,,
,0,g,1,0.738,12,3,51,1,1,g.PNG,g,6144b2f861393e7e248fcf00,2021-10-19_14h46.24.761,forced_choiceRT,2021.1.2,Win32,59.95203837,,,,,,,,,,,,,,,,,,,,,,
,0,j,1,0.702,13,0,52,3,1,j.PNG,j,6144b2f861393e7e248fcf00,2021-10-19_14h46.24.761,forced_choiceRT,2021.1.2,Win32,59.95203837,,,,,,,,,,,,,,,,,,,,,,
,0,f,1,0.885,13,1,53,0,1,f.PNG,f,6144b2f861393e7e248fcf00,2021-10-19_14h46.24.761,forced_choiceRT,2021.1.2,Win32,59.95203837,,,,,,,,,,,,,,,,,,,,,,
,0,g,1,1.019,13,2,54,1,1,g.PNG,g,6144b2f861393e7e248fcf00,2021-10-19_14h46.24.761,forced_choiceRT,2021.1.2,Win32,59.95203837,,,,,,,,,,,,,,,,,,,,,,
,0,h,1,0.911,13,3,55,2,1,h.PNG,h,6144b2f861393e7e248fcf00,2021-10-19_14h46.24.761,forced_choiceRT,2021.1.2,Win32,59.95203837,,,,,,,,,,,,,,,,,,,,,,
,0,h,1,0.743,14,0,56,2,1,h.PNG,h,6144b2f861393e7e248fcf00,2021-10-19_14h46.24.761,forced_choiceRT,2021.1.2,Win32,59.95203837,,,,,,,,,,,,,,,,,,,,,,
,0,j,1,0.909,14,1,57,3,1,j.PNG,j,6144b2f861393e7e248fcf00,2021-10-19_14h46.24.761,forced_choiceRT,2021.1.2,Win32,59.95203837,,,,,,,,,,,,,,,,,,,,,,
,0,j,1,0.632,14,2,58,3,1,j.PNG,j,6144b2f861393e7e248fcf00,2021-10-19_14h46.24.761,forced_choiceRT,2021.1.2,Win32,59.95203837,,,,,,,,,,,,,,,,,,,,,,
,0,j,1,0.676,14,3,59,3,1,j.PNG,j,6144b2f861393e7e248fcf00,2021-10-19_14h46.24.761,forced_choiceRT,2021.1.2,Win32,59.95203837,,,,,,,,,,,,,,,,,,,,,,
,,,,,,,,,,,,6144b2f861393e7e248fcf00,2021-10-19_14h46.24.761,forced_choiceRT,2021.1.2,Win32,59.95203837,f,17.904,0,0,0,0,1,,,,,,,,,,,,,,,
,,,,,,,,,,,,6144b2f861393e7e248fcf00,2021-10-19_14h46.24.761,forced_choiceRT,2021.1.2,Win32,59.95203837,g,7.296,1,0,1,0,1,,,,,,,,,,,,,,,
,,,,,,,,,,,,6144b2f861393e7e248fcf00,2021-10-19_14h46.24.761,forced_choiceRT,2021.1.2,Win32,59.95203837,j,3.769,2,0,2,0,1,,,,,,,,,,,,,,,
,,,,,,,,,,,,6144b2f861393e7e248fcf00,2021-10-19_14h46.24.761,forced_choiceRT,2021.1.2,Win32,59.95203837,f,5.388,3,0,3,0,1,,,,,,,,,,,,,,,
,,,,,,,,,,,,6144b2f861393e7e248fcf00,2021-10-19_14h46.24.761,forced_choiceRT,2021.1.2,Win32,59.95203837,f,2.456,4,0,4,0,1,,,,,,,,,,,,,,,
,,,,,,,,,,,,6144b2f861393e7e248fcf00,2021-10-19_14h46.24.761,forced_choiceRT,2021.1.2,Win32,59.95203837,j,1.616,5,0,5,0,1,,,,,,,,,,,,,,,
,,,,,,,,,,,,6144b2f861393e7e248fcf00,2021-10-19_14h46.24.761,forced_choiceRT,2021.1.2,Win32,59.95203837,f,1.158,6,0,6,0,1,,,,,,,,,,,,,,,
,,,,,,,,,,,,6144b2f861393e7e248fcf00,2021-10-19_14h46.24.761,forced_choiceRT,2021.1.2,Win32,59.95203837,f,0.828,7,0,7,0,1,,,,,,,,,,,,,,,
,,,,,,,,,,,,6144b2f861393e7e248fcf00,2021-10-19_14h46.24.761,forced_choiceRT,2021.1.2,Win32,59.95203837,j,0.964,8,0,8,0,1,,,,,,,,,,,,,,,
,,,,,,,,,,,,6144b2f861393e7e248fcf00,2021-10-19_14h46.24.761,forced_choiceRT,2021.1.2,Win32,59.95203837,f,0.882,9,0,9,0,1,,,,,,,,,,,,,,,
,,,,,,,,,,,,6144b2f861393e7e248fcf00,2021-10-19_14h46.24.761,forced_choiceRT,2021.1.2,Win32,59.95203837,f,1.038,10,0,10,0,1,,,,,,,,,,,,,,,
,,,,,,,,,,,,6144b2f861393e7e248fcf00,2021-10-19_14h46.24.761,forced_choiceRT,2021.1.2,Win32,59.95203837,f,1.066,11,0,11,0,1,,,,,,,,,,,,,,,
,,,,,,,,,,,,6144b2f861393e7e248fcf00,2021-10-19_14h46.24.761,forced_choiceRT,2021.1.2,Win32,59.95203837,j,0.888,12,0,12,0,1,,,,,,,,,,,,,,,
,,,,,,,,,,,,6144b2f861393e7e248fcf00,2021-10-19_14h46.24.761,forced_choiceRT,2021.1.2,Win32,59.95203837,f,0.794,13,0,13,0,1,,,,,,,,,,,,,,,
,,,,,,,,,,,,6144b2f861393e7e248fcf00,2021-10-19_14h46.24.761,forced_choiceRT,2021.1.2,Win32,59.95203837,g,0.351,14,0,14,0,1,,,,,,,,,,,,,,,
,,,,,,,,,,,,6144b2f861393e7e248fcf00,2021-10-19_14h46.24.761,forced_choiceRT,2021.1.2,Win32,59.95203837,f,1.303,15,0,15,0,1,,,,,,,,,,,,,,,
,,,,,,,,,,,,6144b2f861393e7e248fcf00,2021-10-19_14h46.24.761,forced_choiceRT,2021.1.2,Win32,59.95203837,f,1.772,16,0,16,0,1,,,,,,,,,,,,,,,
,,,,,,,,,,,,6144b2f861393e7e248fcf00,2021-10-19_14h46.24.761,forced_choiceRT,2021.1.2,Win32,59.95203837,f,1.187,17,0,17,0,1,,,,,,,,,,,,,,,
,,,,,,,,,,,,6144b2f861393e7e248fcf00,2021-10-19_14h46.24.761,forced_choiceRT,2021.1.2,Win32,59.95203837,g,0.871,18,0,18,0,1,,,,,,,,,,,,,,,
,,,,,,,,,,,,6144b2f861393e7e248fcf00,2021-10-19_14h46.24.761,forced_choiceRT,2021.1.2,Win32,59.95203837,g,0.316,19,0,19,0,1,,,,,,,,,,,,,,,
,1.62,,,,,,,,,h.PNG,h,6144b2f861393e7e248fcf00,2021-10-19_14h46.24.761,forced_choiceRT,2021.1.2,Win32,59.95203837,,,,,,,,1,Slow,h,1,2.585,0,0,0,2,1,,,,,
,1.61,,,,,,,,,f.PNG,f,6144b2f861393e7e248fcf00,2021-10-19_14h46.24.761,forced_choiceRT,2021.1.2,Win32,59.95203837,,,,,,,,1,Slow,f,1,2.273,0,1,1,0,1,,,,,
,0.98,,,,,,,,,h.PNG,h,6144b2f861393e7e248fcf00,2021-10-19_14h46.24.761,forced_choiceRT,2021.1.2,Win32,59.95203837,,,,,,,,1,Fast,j,0,1.626,0,2,2,2,1,,,,,
,1.84,,,,,,,,,g.PNG,g,6144b2f861393e7e248fcf00,2021-10-19_14h46.24.761,forced_choiceRT,2021.1.2,Win32,59.95203837,,,,,,,,1,Slow,f,0,2.56,0,3,3,1,1,,,,,
,1,,,,,,,,,h.PNG,h,6144b2f861393e7e248fcf00,2021-10-19_14h46.24.761,forced_choiceRT,2021.1.2,Win32,59.95203837,,,,,,,,1,Ontime,h,1,1.908,1,0,4,2,1,,,,,
,1.18,,,,,,,,,h.PNG,h,6144b2f861393e7e248fcf00,2021-10-19_14h46.24.761,forced_choiceRT,2021.1.2,Win32,59.95203837,,,,,,,,1,Fast,h,1,1.858,1,1,5,2,1,,,,,
,0.04,,,,,,,,,g.PNG,g,6144b2f861393e7e248fcf00,2021-10-19_14h46.24.761,forced_choiceRT,2021.1.2,Win32,59.95203837,,,,,,,,1,Fast,g,1,0.808,1,2,6,1,1,,,,,
,0.28,,,,,,,,,g.PNG,g,6144b2f861393e7e248fcf00,2021-10-19_14h46.24.761,forced_choiceRT,2021.1.2,Win32,59.95203837,,,,,,,,1,Fast,g,1,1.035,1,3,7,1,1,,,,,
,0.31,,,,,,,,,j.PNG,j,6144b2f861393e7e248fcf00,2021-10-19_14h46.24.761,forced_choiceRT,2021.1.2,Win32,59.95203837,,,,,,,,1,Fast,j,1,1.154,2,0,8,3,1,,,,,
,0.54,,,,,,,,,f.PNG,f,6144b2f861393e7e248fcf00,2021-10-19_14h46.24.761,forced_choiceRT,2021.1.2,Win32,59.95203837,,,,,,,,1,Ontime,f,1,1.992,2,1,9,0,1,,,,,
,0.28,,,,,,,,,f.PNG,f,6144b2f861393e7e248fcf00,2021-10-19_14h46.24.761,forced_choiceRT,2021.1.2,Win32,59.95203837,,,,,,,,1,Fast,f,1,1.275,2,2,10,0,1,,,,,
,0.68,,,,,,,,,g.PNG,g,6144b2f861393e7e248fcf00,2021-10-19_14h46.24.761,forced_choiceRT,2021.1.2,Win32,59.95203837,,,,,,,,1,Fast,g,1,1.484,2,3,11,1,1,,,,,
,1.57,,,,,,,,,j.PNG,j,6144b2f861393e7e248fcf00,2021-10-19_14h46.24.761,forced_choiceRT,2021.1.2,Win32,59.95203837,,,,,,,,1,Slow,j,1,2.622,3,0,12,3,1,,,,,
,1.62,,,,,,,,,h.PNG,h,6144b2f861393e7e248fcf00,2021-10-19_14h46.24.761,forced_choiceRT,2021.1.2,Win32,59.95203837,,,,,,,,1,Slow,h,1,2.228,3,1,13,2,1,,,,,
,0.35,,,,,,,,,j.PNG,j,6144b2f861393e7e248fcf00,2021-10-19_14h46.24.761,forced_choiceRT,2021.1.2,Win32,59.95203837,,,,,,,,1,Fast,j,1,1.072,3,2,14,3,1,,,,,
,0.1,,,,,,,,,f.PNG,f,6144b2f861393e7e248fcf00,2021-10-19_14h46.24.761,forced_choiceRT,2021.1.2,Win32,59.95203837,,,,,,,,1,Fast,f,1,0.806,3,3,15,0,1,,,,,
,1.53,,,,,,,,,g.PNG,g,6144b2f861393e7e248fcf00,2021-10-19_14h46.24.761,forced_choiceRT,2021.1.2,Win32,59.95203837,,,,,,,,1,Slow,g,1,2.137,4,0,16,1,1,,,,,
,0.46,,,,,,,,,f.PNG,f,6144b2f861393e7e248fcf00,2021-10-19_14h46.24.761,forced_choiceRT,2021.1.2,Win32,59.95203837,,,,,,,,1,Fast,f,1,1.139,4,1,17,0,1,,,,,
,0.27,,,,,,,,,f.PNG,f,6144b2f861393e7e248fcf00,2021-10-19_14h46.24.761,forced_choiceRT,2021.1.2,Win32,59.95203837,,,,,,,,1,Fast,f,1,1.199,4,2,18,0,1,,,,,
,1.6,,,,,,,,,h.PNG,h,6144b2f861393e7e248fcf00,2021-10-19_14h46.24.761,forced_choiceRT,2021.1.2,Win32,59.95203837,,,,,,,,1,Slow,h,1,2.287,4,3,19,2,1,,,,,
,0.83,,,,,,,,,h.PNG,h,6144b2f861393e7e248fcf00,2021-10-19_14h46.24.761,forced_choiceRT,2021.1.2,Win32,59.95203837,,,,,,,,1,Fast,h,1,1.441,5,0,20,2,1,,,,,
,1.95,,,,,,,,,f.PNG,f,6144b2f861393e7e248fcf00,2021-10-19_14h46.24.761,forced_choiceRT,2021.1.2,Win32,59.95203837,,,,,,,,1,Slow,f,1,2.5,5,1,21,0,1,,,,,
,1.02,,,,,,,,,g.PNG,g,6144b2f861393e7e248fcf00,2021-10-19_14h46.24.761,forced_choiceRT,2021.1.2,Win32,59.95203837,,,,,,,,1,Fast,g,1,1.669,5,2,22,1,1,,,,,
,0.25,,,,,,,,,j.PNG,j,6144b2f861393e7e248fcf00,2021-10-19_14h46.24.761,forced_choiceRT,2021.1.2,Win32,59.95203837,,,,,,,,1,Fast,h,0,0.911,5,3,23,3,1,,,,,
,1.98,,,,,,,,,j.PNG,j,6144b2f861393e7e248fcf00,2021-10-19_14h46.24.761,forced_choiceRT,2021.1.2,Win32,59.95203837,,,,,,,,1,Slow,j,1,2.564,6,0,24,3,1,,,,,
,1.94,,,,,,,,,g.PNG,g,6144b2f861393e7e248fcf00,2021-10-19_14h46.24.761,forced_choiceRT,2021.1.2,Win32,59.95203837,,,,,,,,1,Slow,f,0,2.538,6,1,25,1,1,,,,,
,0.4,,,,,,,,,h.PNG,h,6144b2f861393e7e248fcf00,2021-10-19_14h46.24.761,forced_choiceRT,2021.1.2,Win32,59.95203837,,,,,,,,1,Fast,h,1,1.313,6,2,26,2,1,,,,,
,0.23,,,,,,,,,g.PNG,g,6144b2f861393e7e248fcf00,2021-10-19_14h46.24.761,forced_choiceRT,2021.1.2,Win32,59.95203837,,,,,,,,1,Fast,f,0,0.899,6,3,27,1,1,,,,,
,1.34,,,,,,,,,j.PNG,j,6144b2f861393e7e248fcf00,2021-10-19_14h46.24.761,forced_choiceRT,2021.1.2,Win32,59.95203837,,,,,,,,1,Slow,j,1,2.241,7,0,28,3,1,,,,,
,1.23,,,,,,,,,j.PNG,j,6144b2f861393e7e248fcf00,2021-10-19_14h46.24.761,forced_choiceRT,2021.1.2,Win32,59.95203837,,,,,,,,1,Ontime,j,1,1.911,7,1,29,3,1,,,,,
,1.62,,,,,,,,,g.PNG,g,6144b2f861393e7e248fcf00,2021-10-19_14h46.24.761,forced_choiceRT,2021.1.2,Win32,59.95203837,,,,,,,,1,Slow,g,1,2.174,7,2,30,1,1,,,,,
,0.23,,,,,,,,,g.PNG,g,6144b2f861393e7e248fcf00,2021-10-19_14h46.24.761,forced_choiceRT,2021.1.2,Win32,59.95203837,,,,,,,,1,Fast,g,1,0.977,7,3,31,1,1,,,,,
,1.45,,,,,,,,,f.PNG,f,6144b2f861393e7e248fcf00,2021-10-19_14h46.24.761,forced_choiceRT,2021.1.2,Win32,59.95203837,,,,,,,,1,Slow,f,1,2.103,8,0,32,0,1,,,,,
,1.06,,,,,,,,,j.PNG,j,6144b2f861393e7e248fcf00,2021-10-19_14h46.24.761,forced_choiceRT,2021.1.2,Win32,59.95203837,,,,,,,,1,Ontime,h,0,2.001,8,1,33,3,1,,,,,
,0.36,,,,,,,,,j.PNG,j,6144b2f861393e7e248fcf00,2021-10-19_14h46.24.761,forced_choiceRT,2021.1.2,Win32,59.95203837,,,,,,,,1,Fast,j,1,1.09,8,2,34,3,1,,,,,
,1.44,,,,,,,,,f.PNG,f,6144b2f861393e7e248fcf00,2021-10-19_14h46.24.761,forced_choiceRT,2021.1.2,Win32,59.95203837,,,,,,,,1,Ontime,f,1,2.084,8,3,35,0,1,,,,,
,1.69,,,,,,,,,f.PNG,f,6144b2f861393e7e248fcf00,2021-10-19_14h46.24.761,forced_choiceRT,2021.1.2,Win32,59.95203837,,,,,,,,1,Slow,f,1,2.304,9,0,36,0,1,,,,,
,1,,,,,,,,,h.PNG,h,6144b2f861393e7e248fcf00,2021-10-19_14h46.24.761,forced_choiceRT,2021.1.2,Win32,59.95203837,,,,,,,,1,Fast,g,0,1.864,9,1,37,2,1,,,,,
,1.36,,,,,,,,,h.PNG,h,6144b2f861393e7e248fcf00,2021-10-19_14h46.24.761,forced_choiceRT,2021.1.2,Win32,59.95203837,,,,,,,,1,Ontime,h,1,1.983,9,2,38,2,1,,,,,
,1.06,,,,,,,,,j.PNG,j,6144b2f861393e7e248fcf00,2021-10-19_14h46.24.761,forced_choiceRT,2021.1.2,Win32,59.95203837,,,,,,,,1,Fast,j,1,1.703,9,3,39,3,1,,,,,
,,,,,,,,,,,,6144b2f861393e7e248fcf00,2021-10-19_14h46.24.761,forced_choiceRT,2021.1.2,Win32,59.95203837,,,,,,,,,,,,,,,,,,0,0,0,0,1
,0.28,,,,,,,,,j.PNG,j,6144b2f861393e7e248fcf00,2021-10-19_14h46.24.761,forced_choiceRT,2021.1.2,Win32,59.95203837,,,,,,,,2,Fast,j,1,1.673,0,0,0,3,1,,,,,
,1.45,,,,,,,,,g.PNG,g,6144b2f861393e7e248fcf00,2021-10-19_14h46.24.761,forced_choiceRT,2021.1.2,Win32,59.95203837,,,,,,,,2,Slow,g,1,2.433,0,1,1,1,1,,,,,
,0.57,,,,,,,,,g.PNG,g,6144b2f861393e7e248fcf00,2021-10-19_14h46.24.761,forced_choiceRT,2021.1.2,Win32,59.95203837,,,,,,,,2,Fast,g,1,1.46,0,2,2,1,1,,,,,
,0.82,,,,,,,,,h.PNG,h,6144b2f861393e7e248fcf00,2021-10-19_14h46.24.761,forced_choiceRT,2021.1.2,Win32,59.95203837,,,,,,,,2,Fast,h,1,1.715,0,3,3,2,1,,,,,
,0.48,,,,,,,,,g.PNG,g,6144b2f861393e7e248fcf00,2021-10-19_14h46.24.761,forced_choiceRT,2021.1.2,Win32,59.95203837,,,,,,,,2,Fast,g,1,1.139,1,0,4,1,1,,,,,
,1.55,,,,,,,,,f.PNG,f,6144b2f861393e7e248fcf00,2021-10-19_14h46.24.761,forced_choiceRT,2021.1.2,Win32,59.95203837,,,,,,,,2,Slow,f,1,2.104,1,1,5,0,1,,,,,
,0.69,,,,,,,,,h.PNG,h,6144b2f861393e7e248fcf00,2021-10-19_14h46.24.761,forced_choiceRT,2021.1.2,Win32,59.95203837,,,,,,,,2,Fast,h,1,1.467,1,2,6,2,1,,,,,
,0.15,,,,,,,,,h.PNG,h,6144b2f861393e7e248fcf00,2021-10-19_14h46.24.761,forced_choiceRT,2021.1.2,Win32,59.95203837,,,,,,,,2,Fast,h,1,1.853,1,3,7,2,1,,,,,
,1.58,,,,,,,,,h.PNG,h,6144b2f861393e7e248fcf00,2021-10-19_14h46.24.761,forced_choiceRT,2021.1.2,Win32,59.95203837,,,,,,,,2,Slow,h,1,2.173,2,0,8,2,1,,,,,
,1.26,,,,,,,,,j.PNG,j,6144b2f861393e7e248fcf00,2021-10-19_14h46.24.761,forced_choiceRT,2021.1.2,Win32,59.95203837,,,,,,,,2,Fast,j,1,1.873,2,1,9,3,1,,,,,
,0.26,,,,,,,,,j.PNG,j,6144b2f861393e7e248fcf00,2021-10-19_14h46.24.761,forced_choiceRT,2021.1.2,Win32,59.95203837,,,,,,,,2,Fast,j,1,1.445,2,2,10,3,1,,,,,
,0.74,,,,,,,,,h.PNG,h,6144b2f861393e7e248fcf00,2021-10-19_14h46.24.761,forced_choiceRT,2021.1.2,Win32,59.95203837,,,,,,,,2,Fast,h,1,1.337,2,3,11,2,1,,,,,
,1.08,,,,,,,,,j.PNG,j,6144b2f861393e7e248fcf00,2021-10-19_14h46.24.761,forced_choiceRT,2021.1.2,Win32,59.95203837,,,,,,,,2,Fast,j,1,1.667,3,0,12,3,1,,,,,
,0.23,,,,,,,,,j.PNG,j,6144b2f861393e7e248fcf00,2021-10-19_14h46.24.761,forced_choiceRT,2021.1.2,Win32,59.95203837,,,,,,,,2,Fast,j,1,0.918,3,1,13,3,1,,,,,
,1.7,,,,,,,,,h.PNG,h,6144b2f861393e7e248fcf00,2021-10-19_14h46.24.761,forced_choiceRT,2021.1.2,Win32,59.95203837,,,,,,,,2,Slow,h,1,2.32,3,2,14,2,1,,,,,
,1.4,,,,,,,,,g.PNG,g,6144b2f861393e7e248fcf00,2021-10-19_14h46.24.761,forced_choiceRT,2021.1.2,Win32,59.95203837,,,,,,,,2,Slow,g,1,2.157,3,3,15,1,1,,,,,
,0.85,,,,,,,,,f.PNG,f,6144b2f861393e7e248fcf00,2021-10-19_14h46.24.761,forced_choiceRT,2021.1.2,Win32,59.95203837,,,,,,,,2,Ontime,f,1,1.989,4,0,16,0,1,,,,,
,1.78,,,,,,,,,h.PNG,h,6144b2f861393e7e248fcf00,2021-10-19_14h46.24.761,forced_choiceRT,2021.1.2,Win32,59.95203837,,,,,,,,2,Slow,h,1,2.474,4,1,17,2,1,,,,,
,0.13,,,,,,,,,g.PNG,g,6144b2f861393e7e248fcf00,2021-10-19_14h46.24.761,forced_choiceRT,2021.1.2,Win32,59.95203837,,,,,,,,2,Fast,g,1,0.818,4,2,18,1,1,,,,,
,0.41,,,,,,,,,g.PNG,g,6144b2f861393e7e248fcf00,2021-10-19_14h46.24.761,forced_choiceRT,2021.1.2,Win32,59.95203837,,,,,,,,2,Fast,g,1,0.938,4,3,19,1,1,,,,,
,0.8,,,,,,,,,f.PNG,f,6144b2f861393e7e248fcf00,2021-10-19_14h46.24.761,forced_choiceRT,2021.1.2,Win32,59.95203837,,,,,,,,2,Fast,f,1,1.436,5,0,20,0,1,,,,,
,1.97,,,,,,,,,j.PNG,j,6144b2f861393e7e248fcf00,2021-10-19_14h46.24.761,forced_choiceRT,2021.1.2,Win32,59.95203837,,,,,,,,2,Slow,j,1,2.635,5,1,21,3,1,,,,,
,1.28,,,,,,,,,j.PNG,j,6144b2f861393e7e248fcf00,2021-10-19_14h46.24.761,forced_choiceRT,2021.1.2,Win32,59.95203837,,,,,,,,2,Fast,j,1,1.833,5,2,22,3,1,,,,,
,1.37,,,,,,,,,j.PNG,j,6144b2f861393e7e248fcf00,2021-10-19_14h46.24.761,forced_choiceRT,2021.1.2,Win32,59.95203837,,,,,,,,2,Fast,j,1,1.804,5,3,23,3,1,,,,,
,0.12,,,,,,,,,f.PNG,f,6144b2f861393e7e248fcf00,2021-10-19_14h46.24.761,forced_choiceRT,2021.1.2,Win32,59.95203837,,,,,,,,2,Fast,f,1,0.823,6,0,24,0,1,,,,,
,0.35,,,,,,,,,j.PNG,j,6144b2f861393e7e248fcf00,2021-10-19_14h46.24.761,forced_choiceRT,2021.1.2,Win32,59.95203837,,,,,,,,2,Fast,j,1,1.32,6,1,25,3,1,,,,,
,1.01,,,,,,,,,h.PNG,h,6144b2f861393e7e248fcf00,2021-10-19_14h46.24.761,forced_choiceRT,2021.1.2,Win32,59.95203837,,,,,,,,2,Fast,h,1,1.621,6,2,26,2,1,,,,,
,0.3,,,,,,,,,h.PNG,h,6144b2f861393e7e248fcf00,2021-10-19_14h46.24.761,forced_choiceRT,2021.1.2,Win32,59.95203837,,,,,,,,2,Fast,h,1,0.959,6,3,27,2,1,,,,,
,0.05,,,,,,,,,h.PNG,h,6144b2f861393e7e248fcf00,2021-10-19_14h46.24.761,forced_choiceRT,2021.1.2,Win32,59.95203837,,,,,,,,2,Fast,h,1,0.771,7,0,28,2,1,,,,,
,0.5,,,,,,,,,f.PNG,f,6144b2f861393e7e248fcf00,2021-10-19_14h46.24.761,forced_choiceRT,2021.1.2,Win32,59.95203837,,,,,,,,2,Fast,f,1,1.4,7,1,29,0,1,,,,,
,0.41,,,,,,,,,f.PNG,f,6144b2f861393e7e248fcf00,2021-10-19_14h46.24.761,forced_choiceRT,2021.1.2,Win32,59.95203837,,,,,,,,2,Fast,f,1,1.075,7,2,30,0,1,,,,,
,0.73,,,,,,,,,g.PNG,g,6144b2f861393e7e248fcf00,2021-10-19_14h46.24.761,forced_choiceRT,2021.1.2,Win32,59.95203837,,,,,,,,2,Fast,g,1,1.436,7,3,31,1,1,,,,,
,0.68,,,,,,,,,f.PNG,f,6144b2f861393e7e248fcf00,2021-10-19_14h46.24.761,forced_choiceRT,2021.1.2,Win32,59.95203837,,,,,,,,2,Fast,f,1,1.335,8,0,32,0,1,,,,,
,0.12,,,,,,,,,g.PNG,g,6144b2f861393e7e248fcf00,2021-10-19_14h46.24.761,forced_choiceRT,2021.1.2,Win32,59.95203837,,,,,,,,2,Fast,g,1,0.851,8,1,33,1,1,,,,,
,1.65,,,,,,,,,g.PNG,g,6144b2f861393e7e248fcf00,2021-10-19_14h46.24.761,forced_choiceRT,2021.1.2,Win32,59.95203837,,,,,,,,2,Slow,g,1,2.309,8,2,34,1,1,,,,,
,1.51,,,,,,,,,j.PNG,j,6144b2f861393e7e248fcf00,2021-10-19_14h46.24.761,forced_choiceRT,2021.1.2,Win32,59.95203837,,,,,,,,2,Slow,j,1,2.315,8,3,35,3,1,,,,,
,1.62,,,,,,,,,f.PNG,f,6144b2f861393e7e248fcf00,2021-10-19_14h46.24.761,forced_choiceRT,2021.1.2,Win32,59.95203837,,,,,,,,2,Slow,f,1,2.225,9,0,36,0,1,,,,,
,1.81,,,,,,,,,g.PNG,g,6144b2f861393e7e248fcf00,2021-10-19_14h46.24.761,forced_choiceRT,2021.1.2,Win32,59.95203837,,,,,,,,2,Slow,g,1,2.353,9,1,37,1,1,,,,,
,1.61,,,,,,,,,f.PNG,f,6144b2f861393e7e248fcf00,2021-10-19_14h46.24.761,forced_choiceRT,2021.1.2,Win32,59.95203837,,,,,,,,2,Slow,f,1,2.183,9,2,38,0,1,,,,,
,1.32,,,,,,,,,f.PNG,f,6144b2f861393e7e248fcf00,2021-10-19_14h46.24.761,forced_choiceRT,2021.1.2,Win32,59.95203837,,,,,,,,2,Fast,f,1,1.889,9,3,39,0,1,,,,,
,,,,,,,,,,,,6144b2f861393e7e248fcf00,2021-10-19_14h46.24.761,forced_choiceRT,2021.1.2,Win32,59.95203837,,,,,,,,,,,,,,,,,,1,0,1,0,1
,0.56,,,,,,,,,h.PNG,h,6144b2f861393e7e248fcf00,2021-10-19_14h46.24.761,forced_choiceRT,2021.1.2,Win32,59.95203837,,,,,,,,3,Fast,h,1,1.493,0,0,0,2,1,,,,,
,0.19,,,,,,,,,f.PNG,f,6144b2f861393e7e248fcf00,2021-10-19_14h46.24.761,forced_choiceRT,2021.1.2,Win32,59.95203837,,,,,,,,3,Fast,f,1,0.809,0,1,1,0,1,,,,,
,0.56,,,,,,,,,h.PNG,h,6144b2f861393e7e248fcf00,2021-10-19_14h46.24.761,forced_choiceRT,2021.1.2,Win32,59.95203837,,,,,,,,3,Fast,h,1,1.283,0,2,2,2,1,,,,,
,1.82,,,,,,,,,h.PNG,h,6144b2f861393e7e248fcf00,2021-10-19_14h46.24.761,forced_choiceRT,2021.1.2,Win32,59.95203837,,,,,,,,3,Slow,h,1,2.395,0,3,3,2,1,,,,,
,1.9,,,,,,,,,g.PNG,g,6144b2f861393e7e248fcf00,2021-10-19_14h46.24.761,forced_choiceRT,2021.1.2,Win32,59.95203837,,,,,,,,3,Slow,g,1,2.659,1,0,4,1,1,,,,,
,1.5,,,,,,,,,g.PNG,g,6144b2f861393e7e248fcf00,2021-10-19_14h46.24.761,forced_choiceRT,2021.1.2,Win32,59.95203837,,,,,,,,3,Slow,g,1,2.165,1,1,5,1,1,,,,,
,1.57,,,,,,,,,f.PNG,f,6144b2f861393e7e248fcf00,2021-10-19_14h46.24.761,forced_choiceRT,2021.1.2,Win32,59.95203837,,,,,,,,3,Slow,f,1,2.114,1,2,6,0,1,,,,,
,0.6,,,,,,,,,f.PNG,f,6144b2f861393e7e248fcf00,2021-10-19_14h46.24.761,forced_choiceRT,2021.1.2,Win32,59.95203837,,,,,,,,3,Fast,f,1,1.189,1,3,7,0,1,,,,,
,0.8,,,,,,,,,h.PNG,h,6144b2f861393e7e248fcf00,2021-10-19_14h46.24.761,forced_choiceRT,2021.1.2,Win32,59.95203837,,,,,,,,3,Fast,h,1,1.455,2,0,8,2,1,,,,,
,0.5,,,,,,,,,j.PNG,j,6144b2f861393e7e248fcf00,2021-10-19_14h46.24.761,forced_choiceRT,2021.1.2,Win32,59.95203837,,,,,,,,3,Fast,j,1,1.173,2,1,9,3,1,,,,,
,1.88,,,,,,,,,f.PNG,f,6144b2f861393e7e248fcf00,2021-10-19_14h46.24.761,forced_choiceRT,2021.1.2,Win32,59.95203837,,,,,,,,3,Slow,j,0,2.184,2,2,10,0,1,,,,,
,0.62,,,,,,,,,j.PNG,j,6144b2f861393e7e248fcf00,2021-10-19_14h46.24.761,forced_choiceRT,2021.1.2,Win32,59.95203837,,,,,,,,3,Fast,j,1,1.398,2,3,11,3,1,,,,,
,0.24,,,,,,,,,j.PNG,j,6144b2f861393e7e248fcf00,2021-10-19_14h46.24.761,forced_choiceRT,2021.1.2,Win32,59.95203837,,,,,,,,3,Fast,j,1,0.926,3,0,12,3,1,,,,,
,0.09,,,,,,,,,g.PNG,g,6144b2f861393e7e248fcf00,2021-10-19_14h46.24.761,forced_choiceRT,2021.1.2,Win32,59.95203837,,,,,,,,3,Fast,g,1,0.921,3,1,13,1,1,,,,,
,1.56,,,,,,,,,j.PNG,j,6144b2f861393e7e248fcf00,2021-10-19_14h46.24.761,forced_choiceRT,2021.1.2,Win32,59.95203837,,,,,,,,3,Slow,j,1,2.154,3,2,14,3,1,,,,,
,1.73,,,,,,,,,g.PNG,g,6144b2f861393e7e248fcf00,2021-10-19_14h46.24.761,forced_choiceRT,2021.1.2,Win32,59.95203837,,,,,,,,3,Slow,f,0,2.244,3,3,15,1,1,,,,,
,1.64,,,,,,,,,h.PNG,h,6144b2f861393e7e248fcf00,2021-10-19_14h46.24.761,forced_choiceRT,2021.1.2,Win32,59.95203837,,,,,,,,3,Slow,h,1,2.245,4,0,16,2,1,,,,,
,0.15,,,,,,,,,f.PNG,f,6144b2f861393e7e248fcf00,2021-10-19_14h46.24.761,forced_choiceRT,2021.1.2,Win32,59.95203837,,,,,,,,3,Fast,f,1,0.729,4,1,17,0,1,,,,,
,0.53,,,,,,,,,g.PNG,g,6144b2f861393e7e248fcf00,2021-10-19_14h46.24.761,forced_choiceRT,2021.1.2,Win32,59.95203837,,,,,,,,3,Fast,g,1,1.181,4,2,18,1,1,,,,,
,1.01,,,,,,,,,j.PNG,j,6144b2f861393e7e248fcf00,2021-10-19_14h46.24.761,forced_choiceRT,2021.1.2,Win32,59.95203837,,,,,,,,3,Ontime,j,1,1.943,4,3,19,3,1,,,,,
,0.62,,,,,,,,,f.PNG,f,6144b2f861393e7e248fcf00,2021-10-19_14h46.24.761,forced_choiceRT,2021.1.2,Win32,59.95203837,,,,,,,,3,Fast,f,1,1.815,5,0,20,0,1,,,,,
,1.15,,,,,,,,,h.PNG,h,6144b2f861393e7e248fcf00,2021-10-19_14h46.24.761,forced_choiceRT,2021.1.2,Win32,59.95203837,,,,,,,,3,Fast,h,1,1.869,5,1,21,2,1,,,,,
,1.68,,,,,,,,,f.PNG,f,6144b2f861393e7e248fcf00,2021-10-19_14h46.24.761,forced_choiceRT,2021.1.2,Win32,59.95203837,,,,,,,,3,Slow,f,1,2.222,5,2,22,0,1,,,,,
,0.1,,,,,,,,,g.PNG,g,6144b2f861393e7e248fcf00,2021-10-19_14h46.24.761,forced_choiceRT,2021.1.2,Win32,59.95203837,,,,,,,,3,Fast,g,1,1.063,5,3,23,1,1,,,,,
,0.45,,,,,,,,,j.PNG,j,6144b2f861393e7e248fcf00,2021-10-19_14h46.24.761,forced_choiceRT,2021.1.2,Win32,59.95203837,,,,,,,,3,Fast,j,1,1.24,6,0,24,3,1,,,,,
,0.8,,,,,,,,,f.PNG,f,6144b2f861393e7e248fcf00,2021-10-19_14h46.24.761,forced_choiceRT,2021.1.2,Win32,59.95203837,,,,,,,,3,Fast,f,1,1.506,6,1,25,0,1,,,,,
,0.93,,,,,,,,,h.PNG,h,6144b2f861393e7e248fcf00,2021-10-19_14h46.24.761,forced_choiceRT,2021.1.2,Win32,59.95203837,,,,,,,,3,Fast,h,1,1.649,6,2,26,2,1,,,,,
,0,,,,,,,,,h.PNG,h,6144b2f861393e7e248fcf00,2021-10-19_14h46.24.761,forced_choiceRT,2021.1.2,Win32,59.95203837,,,,,,,,3,Fast,h,1,0.768,6,3,27,2,1,,,,,
,1.26,,,,,,,,,f.PNG,f,6144b2f861393e7e248fcf00,2021-10-19_14h46.24.761,forced_choiceRT,2021.1.2,Win32,59.95203837,,,,,,,,3,Ontime,f,1,1.961,7,0,28,0,1,,,,,
,1.29,,,,,,,,,g.PNG,g,6144b2f861393e7e248fcf00,2021-10-19_14h46.24.761,forced_choiceRT,2021.1.2,Win32,59.95203837,,,,,,,,3,Ontime,g,1,2.065,7,1,29,1,1,,,,,
,1.2,,,,,,,,,g.PNG,g,6144b2f861393e7e248fcf00,2021-10-19_14h46.24.761,forced_choiceRT,2021.1.2,Win32,59.95203837,,,,,,,,3,Fast,g,1,1.898,7,2,30,1,1,,,,,
,1.95,,,,,,,,,h.PNG,h,6144b2f861393e7e248fcf00,2021-10-19_14h46.24.761,forced_choiceRT,2021.1.2,Win32,59.95203837,,,,,,,,3,Slow,f,0,2.259,7,3,31,2,1,,,,,
,1.54,,,,,,,,,g.PNG,g,6144b2f861393e7e248fcf00,2021-10-19_14h46.24.761,forced_choiceRT,2021.1.2,Win32,59.95203837,,,,,,,,3,Slow,g,1,2.174,8,0,32,1,1,,,,,
,0.14,,,,,,,,,j.PNG,j,6144b2f861393e7e248fcf00,2021-10-19_14h46.24.761,forced_choiceRT,2021.1.2,Win32,59.95203837,,,,,,,,3,Fast,j,1,0.924,8,1,33,3,1,,,,,
,0.26,,,,,,,,,j.PNG,j,6144b2f861393e7e248fcf00,2021-10-19_14h46.24.761,forced_choiceRT,2021.1.2,Win32,59.95203837,,,,,,,,3,Fast,j,1,0.921,8,2,34,3,1,,,,,
,0.88,,,,,,,,,j.PNG,j,6144b2f861393e7e248fcf00,2021-10-19_14h46.24.761,forced_choiceRT,2021.1.2,Win32,59.95203837,,,,,,,,3,Fast,j,1,1.669,8,3,35,3,1,,,,,
,0.2,,,,,,,,,g.PNG,g,6144b2f861393e7e248fcf00,2021-10-19_14h46.24.761,forced_choiceRT,2021.1.2,Win32,59.95203837,,,,,,,,3,Fast,g,1,1.227,9,0,36,1,1,,,,,
,1.51,,,,,,,,,h.PNG,h,6144b2f861393e7e248fcf00,2021-10-19_14h46.24.761,forced_choiceRT,2021.1.2,Win32,59.95203837,,,,,,,,3,Slow,h,1,2.235,9,1,37,2,1,,,,,
,0.06,,,,,,,,,j.PNG,j,6144b2f861393e7e248fcf00,2021-10-19_14h46.24.761,forced_choiceRT,2021.1.2,Win32,59.95203837,,,,,,,,3,Fast,j,1,0.92,9,2,38,3,1,,,,,
,1.86,,,,,,,,,f.PNG,f,6144b2f861393e7e248fcf00,2021-10-19_14h46.24.761,forced_choiceRT,2021.1.2,Win32,59.95203837,,,,,,,,3,Slow,g,0,2.508,9,3,39,0,1,,,,,
,,,,,,,,,,,,6144b2f861393e7e248fcf00,2021-10-19_14h46.24.761,forced_choiceRT,2021.1.2,Win32,59.95203837,,,,,,,,,,,,,,,,,,2,0,2,0,1
,0.78,,,,,,,,,j.PNG,j,6144b2f861393e7e248fcf00,2021-10-19_14h46.24.761,forced_choiceRT,2021.1.2,Win32,59.95203837,,,,,,,,4,Fast,j,1,1.478,0,0,0,3,1,,,,,
,1.69,,,,,,,,,j.PNG,j,6144b2f861393e7e248fcf00,2021-10-19_14h46.24.761,forced_choiceRT,2021.1.2,Win32,59.95203837,,,,,,,,4,Slow,j,1,2.256,0,1,1,3,1,,,,,
,1.44,,,,,,,,,h.PNG,h,6144b2f861393e7e248fcf00,2021-10-19_14h46.24.761,forced_choiceRT,2021.1.2,Win32,59.95203837,,,,,,,,4,Slow,h,1,2.101,0,2,2,2,1,,,,,
,1.21,,,,,,,,,f.PNG,f,6144b2f861393e7e248fcf00,2021-10-19_14h46.24.761,forced_choiceRT,2021.1.2,Win32,59.95203837,,,,,,,,4,Fast,f,1,1.787,0,3,3,0,1,,,,,
,0.64,,,,,,,,,j.PNG,j,6144b2f861393e7e248fcf00,2021-10-19_14h46.24.761,forced_choiceRT,2021.1.2,Win32,59.95203837,,,,,,,,4,Fast,j,1,1.308,1,0,4,3,1,,,,,
,1.69,,,,,,,,,h.PNG,h,6144b2f861393e7e248fcf00,2021-10-19_14h46.24.761,forced_choiceRT,2021.1.2,Win32,59.95203837,,,,,,,,4,Slow,h,1,2.275,1,1,5,2,1,,,,,
,1.36,,,,,,,,,j.PNG,j,6144b2f861393e7e248fcf00,2021-10-19_14h46.24.761,forced_choiceRT,2021.1.2,Win32,59.95203837,,,,,,,,4,Ontime,j,1,2.002,1,2,6,3,1,,,,,
,1.28,,,,,,,,,j.PNG,j,6144b2f861393e7e248fcf00,2021-10-19_14h46.24.761,forced_choiceRT,2021.1.2,Win32,59.95203837,,,,,,,,4,Ontime,j,1,1.931,1,3,7,3,1,,,,,
,0.91,,,,,,,,,g.PNG,g,6144b2f861393e7e248fcf00,2021-10-19_14h46.24.761,forced_choiceRT,2021.1.2,Win32,59.95203837,,,,,,,,4,Fast,g,1,1.572,2,0,8,1,1,,,,,
,0.09,,,,,,,,,h.PNG,h,6144b2f861393e7e248fcf00,2021-10-19_14h46.24.761,forced_choiceRT,2021.1.2,Win32,59.95203837,,,,,,,,4,Fast,h,1,0.961,2,1,9,2,1,,,,,
,1.88,,,,,,,,,g.PNG,g,6144b2f861393e7e248fcf00,2021-10-19_14h46.24.761,forced_choiceRT,2021.1.2,Win32,59.95203837,,,,,,,,4,Slow,g,1,2.467,2,2,10,1,1,,,,,
,0.5,,,,,,,,,j.PNG,j,6144b2f861393e7e248fcf00,2021-10-19_14h46.24.761,forced_choiceRT,2021.1.2,Win32,59.95203837,,,,,,,,4,Fast,j,1,1.32,2,3,11,3,1,,,,,
,0.08,,,,,,,,,g.PNG,g,6144b2f861393e7e248fcf00,2021-10-19_14h46.24.761,forced_choiceRT,2021.1.2,Win32,59.95203837,,,,,,,,4,Fast,g,1,0.985,3,0,12,1,1,,,,,
,0.44,,,,,,,,,g.PNG,g,6144b2f861393e7e248fcf00,2021-10-19_14h46.24.761,forced_choiceRT,2021.1.2,Win32,59.95203837,,,,,,,,4,Fast,g,1,1.241,3,1,13,1,1,,,,,
,1.7,,,,,,,,,g.PNG,g,6144b2f861393e7e248fcf00,2021-10-19_14h46.24.761,forced_choiceRT,2021.1.2,Win32,59.95203837,,,,,,,,4,Slow,g,1,2.533,3,2,14,1,1,,,,,
,0.81,,,,,,,,,j.PNG,j,6144b2f861393e7e248fcf00,2021-10-19_14h46.24.761,forced_choiceRT,2021.1.2,Win32,59.95203837,,,,,,,,4,Fast,j,1,1.662,3,3,15,3,1,,,,,
,0.11,,,,,,,,,h.PNG,h,6144b2f861393e7e248fcf00,2021-10-19_14h46.24.761,forced_choiceRT,2021.1.2,Win32,59.95203837,,,,,,,,4,Fast,h,1,0.836,4,0,16,2,1,,,,,
,0.58,,,,,,,,,f.PNG,f,6144b2f861393e7e248fcf00,2021-10-19_14h46.24.761,forced_choiceRT,2021.1.2,Win32,59.95203837,,,,,,,,4,Fast,f,1,1.22,4,1,17,0,1,,,,,
,1.93,,,,,,,,,j.PNG,j,6144b2f861393e7e248fcf00,2021-10-19_14h46.24.761,forced_choiceRT,2021.1.2,Win32,59.95203837,,,,,,,,4,Slow,j,1,2.472,4,2,18,3,1,,,,,
,1,,,,,,,,,f.PNG,f,6144b2f861393e7e248fcf00,2021-10-19_14h46.24.761,forced_choiceRT,2021.1.2,Win32,59.95203837,,,,,,,,4,Fast,f,1,1.729,4,3,19,0,1,,,,,
,1.56,,,,,,,,,h.PNG,h,6144b2f861393e7e248fcf00,2021-10-19_14h46.24.761,forced_choiceRT,2021.1.2,Win32,59.95203837,,,,,,,,4,Slow,f,0,2.24,5,0,20,2,1,,,,,
,1.09,,,,,,,,,f.PNG,f,6144b2f861393e7e248fcf00,2021-10-19_14h46.24.761,forced_choiceRT,2021.1.2,Win32,59.95203837,,,,,,,,4,Fast,f,1,1.688,5,1,21,0,1,,,,,
,0.8,,,,,,,,,g.PNG,g,6144b2f861393e7e248fcf00,2021-10-19_14h46.24.761,forced_choiceRT,2021.1.2,Win32,59.95203837,,,,,,,,4,Fast,g,1,1.506,5,2,22,1,1,,,,,
,0.11,,,,,,,,,f.PNG,f,6144b2f861393e7e248fcf00,2021-10-19_14h46.24.761,forced_choiceRT,2021.1.2,Win32,59.95203837,,,,,,,,4,Fast,f,1,1.042,5,3,23,0,1,,,,,
,1.25,,,,,,,,,h.PNG,h,6144b2f861393e7e248fcf00,2021-10-19_14h46.24.761,forced_choiceRT,2021.1.2,Win32,59.95203837,,,,,,,,4,Ontime,h,1,1.941,6,0,24,2,1,,,,,
,1.87,,,,,,,,,h.PNG,h,6144b2f861393e7e248fcf00,2021-10-19_14h46.24.761,forced_choiceRT,2021.1.2,Win32,59.95203837,,,,,,,,4,Slow,h,1,2.388,6,1,25,2,1,,,,,
,0.65,,,,,,,,,f.PNG,f,6144b2f861393e7e248fcf00,2021-10-19_14h46.24.761,forced_choiceRT,2021.1.2,Win32,59.95203837,,,,,,,,4,Fast,f,1,1.628,6,2,26,0,1,,,,,
,0.97,,,,,,,,,h.PNG,h,6144b2f861393e7e248fcf00,2021-10-19_14h46.24.761,forced_choiceRT,2021.1.2,Win32,59.95203837,,,,,,,,4,Fast,h,1,1.576,6,3,27,2,1,,,,,
,0.3,,,,,,,,,f.PNG,f,6144b2f861393e7e248fcf00,2021-10-19_14h46.24.761,forced_choiceRT,2021.1.2,Win32,59.95203837,,,,,,,,4,Fast,f,1,0.903,7,0,28,0,1,,,,,
,1.5,,,,,,,,,f.PNG,f,6144b2f861393e7e248fcf00,2021-10-19_14h46.24.761,forced_choiceRT,2021.1.2,Win32,59.95203837,,,,,,,,4,Slow,f,1,2.119,7,1,29,0,1,,,,,
,1.5,,,,,,,,,g.PNG,g,6144b2f861393e7e248fcf00,2021-10-19_14h46.24.761,forced_choiceRT,2021.1.2,Win32,59.95203837,,,,,,,,4,Ontime,g,1,2.016,7,2,30,1,1,,,,,
,0.89,,,,,,,,,h.PNG,h,6144b2f861393e7e248fcf00,2021-10-19_14h46.24.761,forced_choiceRT,2021.1.2,Win32,59.95203837,,,,,,,,4,Fast,h,1,1.626,7,3,31,2,1,,,,,
,0.27,,,,,,,,,g.PNG,g,6144b2f861393e7e248fcf00,2021-10-19_14h46.24.761,forced_choiceRT,2021.1.2,Win32,59.95203837,,,,,,,,4,Fast,g,1,1.012,8,0,32,1,1,,,,,
,0.33,,,,,,,,,j.PNG,j,6144b2f861393e7e248fcf00,2021-10-19_14h46.24.761,forced_choiceRT,2021.1.2,Win32,59.95203837,,,,,,,,4,Fast,j,1,1.038,8,1,33,3,1,,,,,
,1.07,,,,,,,,,g.PNG,g,6144b2f861393e7e248fcf00,2021-10-19_14h46.24.761,forced_choiceRT,2021.1.2,Win32,59.95203837,,,,,,,,4,Slow,g,1,2.192,8,2,34,1,1,,,,,
,0.84,,,,,,,,,f.PNG,f,6144b2f861393e7e248fcf00,2021-10-19_14h46.24.761,forced_choiceRT,2021.1.2,Win32,59.95203837,,,,,,,,4,Fast,f,1,1.578,8,3,35,0,1,,,,,
,0.65,,,,,,,,,h.PNG,h,6144b2f861393e7e248fcf00,2021-10-19_14h46.24.761,forced_choiceRT,2021.1.2,Win32,59.95203837,,,,,,,,4,Fast,h,1,1.326,9,0,36,2,1,,,,,
,0.49,,,,,,,,,g.PNG,g,6144b2f861393e7e248fcf00,2021-10-19_14h46.24.761,forced_choiceRT,2021.1.2,Win32,59.95203837,,,,,,,,4,Slow,g,1,13.191,9,1,37,1,1,,,,,
,1.7,,,,,,,,,j.PNG,j,6144b2f861393e7e248fcf00,2021-10-19_14h46.24.761,forced_choiceRT,2021.1.2,Win32,59.95203837,,,,,,,,4,Slow,j,1,2.357,9,2,38,3,1,,,,,
,1.79,,,,,,,,,f.PNG,f,6144b2f861393e7e248fcf00,2021-10-19_14h46.24.761,forced_choiceRT,2021.1.2,Win32,59.95203837,,,,,,,,4,Slow,f,1,2.433,9,3,39,0,1,,,,,
,,,,,,,,,,,,6144b2f861393e7e248fcf00,2021-10-19_14h46.24.761,forced_choiceRT,2021.1.2,Win32,59.95203837,,,,,,,,,,,,,,,,,,3,0,3,0,1
,1.66,,,,,,,,,j.PNG,j,6144b2f861393e7e248fcf00,2021-10-19_14h46.24.761,forced_choiceRT,2021.1.2,Win32,59.95203837,,,,,,,,5,Slow,j,1,2.213,0,0,0,3,1,,,,,
,1.71,,,,,,,,,g.PNG,g,6144b2f861393e7e248fcf00,2021-10-19_14h46.24.761,forced_choiceRT,2021.1.2,Win32,59.95203837,,,,,,,,5,Slow,g,1,2.337,0,1,1,1,1,,,,,
,1.64,,,,,,,,,j.PNG,j,6144b2f861393e7e248fcf00,2021-10-19_14h46.24.761,forced_choiceRT,2021.1.2,Win32,59.95203837,,,,,,,,5,Ontime,g,0,2.072,0,2,2,3,1,,,,,
,1.64,,,,,,,,,g.PNG,g,6144b2f861393e7e248fcf00,2021-10-19_14h46.24.761,forced_choiceRT,2021.1.2,Win32,59.95203837,,,,,,,,5,Slow,g,1,2.27,0,3,3,1,1,,,,,
,0.61,,,,,,,,,f.PNG,f,6144b2f861393e7e248fcf00,2021-10-19_14h46.24.761,forced_choiceRT,2021.1.2,Win32,59.95203837,,,,,,,,5,Fast,f,1,1.23,1,0,4,0,1,,,,,
,1.53,,,,,,,,,h.PNG,h,6144b2f861393e7e248fcf00,2021-10-19_14h46.24.761,forced_choiceRT,2021.1.2,Win32,59.95203837,,,,,,,,5,Slow,g,0,2.165,1,1,5,2,1,,,,,
,1.98,,,,,,,,,f.PNG,f,6144b2f861393e7e248fcf00,2021-10-19_14h46.24.761,forced_choiceRT,2021.1.2,Win32,59.95203837,,,,,,,,5,Slow,f,1,2.495,1,2,6,0,1,,,,,
,1.76,,,,,,,,,j.PNG,j,6144b2f861393e7e248fcf00,2021-10-19_14h46.24.761,forced_choiceRT,2021.1.2,Win32,59.95203837,,,,,,,,5,Slow,h,0,2.33,1,3,7,3,1,,,,,
,1.18,,,,,,,,,j.PNG,j,6144b2f861393e7e248fcf00,2021-10-19_14h46.24.761,forced_choiceRT,2021.1.2,Win32,59.95203837,,,,,,,,5,Fast,j,1,1.762,2,0,8,3,1,,,,,
,0.64,,,,,,,,,g.PNG,g,6144b2f861393e7e248fcf00,2021-10-19_14h46.24.761,forced_choiceRT,2021.1.2,Win32,59.95203837,,,,,,,,5,Fast,g,1,1.282,2,1,9,1,1,,,,,
,0.98,,,,,,,,,f.PNG,f,6144b2f861393e7e248fcf00,2021-10-19_14h46.24.761,forced_choiceRT,2021.1.2,Win32,59.95203837,,,,,,,,5,Fast,f,1,1.603,2,2,10,0,1,,,,,
,1.66,,,,,,,,,f.PNG,f,6144b2f861393e7e248fcf00,2021-10-19_14h46.24.761,forced_choiceRT,2021.1.2,Win32,59.95203837,,,,,,,,5,Slow,f,1,2.256,2,3,11,0,1,,,,,
,1.13,,,,,,,,,f.PNG,f,6144b2f861393e7e248fcf00,2021-10-19_14h46.24.761,forced_choiceRT,2021.1.2,Win32,59.95203837,,,,,,,,5,Fast,f,1,1.768,3,0,12,0,1,,,,,
,1.17,,,,,,,,,g.PNG,g,6144b2f861393e7e248fcf00,2021-10-19_14h46.24.761,forced_choiceRT,2021.1.2,Win32,59.95203837,,,,,,,,5,Fast,f,0,1.734,3,1,13,1,1,,,,,
,0.81,,,,,,,,,g.PNG,g,6144b2f861393e7e248fcf00,2021-10-19_14h46.24.761,forced_choiceRT,2021.1.2,Win32,59.95203837,,,,,,,,5,Fast,g,1,1.695,3,2,14,1,1,,,,,
,0,,,,,,,,,h.PNG,h,6144b2f861393e7e248fcf00,2021-10-19_14h46.24.761,forced_choiceRT,2021.1.2,Win32,59.95203837,,,,,,,,5,Fast,h,1,1.019,3,3,15,2,1,,,,,
,1.15,,,,,,,,,h.PNG,h,6144b2f861393e7e248fcf00,2021-10-19_14h46.24.761,forced_choiceRT,2021.1.2,Win32,59.95203837,,,,,,,,5,Fast,h,1,1.783,4,0,16,2,1,,,,,
,0,,,,,,,,,h.PNG,h,6144b2f861393e7e248fcf00,2021-10-19_14h46.24.761,forced_choiceRT,2021.1.2,Win32,59.95203837,,,,,,,,5,Slow,h,1,3.208,4,1,17,2,1,,,,,
,0.82,,,,,,,,,g.PNG,g,6144b2f861393e7e248fcf00,2021-10-19_14h46.24.761,forced_choiceRT,2021.1.2,Win32,59.95203837,,,,,,,,5,Fast,g,1,1.577,4,2,18,1,1,,,,,
,0.85,,,,,,,,,j.PNG,j,6144b2f861393e7e248fcf00,2021-10-19_14h46.24.761,forced_choiceRT,2021.1.2,Win32,59.95203837,,,,,,,,5,Fast,j,1,1.548,4,3,19,3,1,,,,,
,1.22,,,,,,,,,g.PNG,g,6144b2f861393e7e248fcf00,2021-10-19_14h46.24.761,forced_choiceRT,2021.1.2,Win32,59.95203837,,,,,,,,5,Ontime,g,1,1.931,5,0,20,1,1,,,,,
,0.85,,,,,,,,,h.PNG,h,6144b2f861393e7e248fcf00,2021-10-19_14h46.24.761,forced_choiceRT,2021.1.2,Win32,59.95203837,,,,,,,,5,Fast,h,1,1.558,5,1,21,2,1,,,,,
,1.01,,,,,,,,,g.PNG,g,6144b2f861393e7e248fcf00,2021-10-19_14h46.24.761,forced_choiceRT,2021.1.2,Win32,59.95203837,,,,,,,,5,Slow,g,1,2.358,5,2,22,1,1,,,,,
,0.98,,,,,,,,,g.PNG,g,6144b2f861393e7e248fcf00,2021-10-19_14h46.24.761,forced_choiceRT,2021.1.2,Win32,59.95203837,,,,,,,,5,Fast,g,1,1.823,5,3,23,1,1,,,,,
,0.35,,,,,,,,,j.PNG,j,6144b2f861393e7e248fcf00,2021-10-19_14h46.24.761,forced_choiceRT,2021.1.2,Win32,59.95203837,,,,,,,,5,Fast,j,1,1.07,6,0,24,3,1,,,,,
,1.34,,,,,,,,,h.PNG,h,6144b2f861393e7e248fcf00,2021-10-19_14h46.24.761,forced_choiceRT,2021.1.2,Win32,59.95203837,,,,,,,,5,Slow,g,0,3.77,6,1,25,2,1,,,,,
,1.54,,,,,,,,,f.PNG,f,6144b2f861393e7e248fcf00,2021-10-19_14h46.24.761,forced_choiceRT,2021.1.2,Win32,59.95203837,,,,,,,,5,Slow,f,1,2.195,6,2,26,0,1,,,,,
,1.98,,,,,,,,,f.PNG,f,6144b2f861393e7e248fcf00,2021-10-19_14h46.24.761,forced_choiceRT,2021.1.2,Win32,59.95203837,,,,,,,,5,Slow,f,1,2.665,6,3,27,0,1,,,,,
,0.55,,,,,,,,,j.PNG,j,6144b2f861393e7e248fcf00,2021-10-19_14h46.24.761,forced_choiceRT,2021.1.2,Win32,59.95203837,,,,,,,,5,Fast,j,1,1.318,7,0,28,3,1,,,,,
,0.2,,,,,,,,,h.PNG,h,6144b2f861393e7e248fcf00,2021-10-19_14h46.24.761,forced_choiceRT,2021.1.2,Win32,59.95203837,,,,,,,,5,Fast,h,1,0.938,7,1,29,2,1,,,,,
,0.54,,,,,,,,,h.PNG,h,6144b2f861393e7e248fcf00,2021-10-19_14h46.24.761,forced_choiceRT,2021.1.2,Win32,59.95203837,,,,,,,,5,Fast,h,1,1.128,7,2,30,2,1,,,,,
,0.13,,,,,,,,,h.PNG,h,6144b2f861393e7e248fcf00,2021-10-19_14h46.24.761,forced_choiceRT,2021.1.2,Win32,59.95203837,,,,,,,,5,Fast,h,1,0.762,7,3,31,2,1,,,,,
,0.26,,,,,,,,,g.PNG,g,6144b2f861393e7e248fcf00,2021-10-19_14h46.24.761,forced_choiceRT,2021.1.2,Win32,59.95203837,,,,,,,,5,Ontime,g,1,1.922,8,0,32,1,1,,,,,
,0.35,,,,,,,,,f.PNG,f,6144b2f861393e7e248fcf00,2021-10-19_14h46.24.761,forced_choiceRT,2021.1.2,Win32,59.95203837,,,,,,,,5,Fast,f,1,1.031,8,1,33,0,1,,,,,
,0.32,,,,,,,,,f.PNG,f,6144b2f861393e7e248fcf00,2021-10-19_14h46.24.761,forced_choiceRT,2021.1.2,Win32,59.95203837,,,,,,,,5,Fast,f,1,0.902,8,2,34,0,1,,,,,
,0.18,,,,,,,,,j.PNG,j,6144b2f861393e7e248fcf00,2021-10-19_14h46.24.761,forced_choiceRT,2021.1.2,Win32,59.95203837,,,,,,,,5,Fast,j,1,0.885,8,3,35,3,1,,,,,
,1.1,,,,,,,,,f.PNG,f,6144b2f861393e7e248fcf00,2021-10-19_14h46.24.761,forced_choiceRT,2021.1.2,Win32,59.95203837,,,,,,,,5,Fast,f,1,1.788,9,0,36,0,1,,,,,
,0.74,,,,,,,,,h.PNG,h,6144b2f861393e7e248fcf00,2021-10-19_14h46.24.761,forced_choiceRT,2021.1.2,Win32,59.95203837,,,,,,,,5,Fast,h,1,1.569,9,1,37,2,1,,,,,
,0.28,,,,,,,,,j.PNG,j,6144b2f861393e7e248fcf00,2021-10-19_14h46.24.761,forced_choiceRT,2021.1.2,Win32,59.95203837,,,,,,,,5,Ontime,g,0,1.985,9,2,38,3,1,,,,,
,0.73,,,,,,,,,j.PNG,j,6144b2f861393e7e248fcf00,2021-10-19_14h46.24.761,forced_choiceRT,2021.1.2,Win32,59.95203837,,,,,,,,5,Fast,j,1,1.401,9,3,39,3,1,,,,,
,,,,,,,,,,,,6144b2f861393e7e248fcf00,2021-10-19_14h46.24.761,forced_choiceRT,2021.1.2,Win32,59.95203837,,,,,,,,,,,,,,,,,,4,0,4,0,1
,0.01,,,,,,,,,h.PNG,h,6144b2f861393e7e248fcf00,2021-10-19_14h46.24.761,forced_choiceRT,2021.1.2,Win32,59.95203837,,,,,,,,6,Fast,g,0,1.01,0,0,0,2,1,,,,,
,0.68,,,,,,,,,g.PNG,g,6144b2f861393e7e248fcf00,2021-10-19_14h46.24.761,forced_choiceRT,2021.1.2,Win32,59.95203837,,,,,,,,6,Fast,g,1,1.254,0,1,1,1,1,,,,,
,0.46,,,,,,,,,h.PNG,h,6144b2f861393e7e248fcf00,2021-10-19_14h46.24.761,forced_choiceRT,2021.1.2,Win32,59.95203837,,,,,,,,6,Fast,h,1,1.072,0,2,2,2,1,,,,,
,0.22,,,,,,,,,h.PNG,h,6144b2f861393e7e248fcf00,2021-10-19_14h46.24.761,forced_choiceRT,2021.1.2,Win32,59.95203837,,,,,,,,6,Fast,h,1,1.305,0,3,3,2,1,,,,,
,1.89,,,,,,,,,g.PNG,g,6144b2f861393e7e248fcf00,2021-10-19_14h46.24.761,forced_choiceRT,2021.1.2,Win32,59.95203837,,,,,,,,6,Slow,g,1,2.45,1,0,4,1,1,,,,,
,1.49,,,,,,,,,j.PNG,j,6144b2f861393e7e248fcf00,2021-10-19_14h46.24.761,forced_choiceRT,2021.1.2,Win32,59.95203837,,,,,,,,6,Ontime,h,0,1.984,1,1,5,3,1,,,,,
,1.83,,,,,,,,,f.PNG,f,6144b2f861393e7e248fcf00,2021-10-19_14h46.24.761,forced_choiceRT,2021.1.2,Win32,59.95203837,,,,,,,,6,Slow,g,0,2.345,1,2,6,0,1,,,,,
,0.57,,,,,,,,,g.PNG,g,6144b2f861393e7e248fcf00,2021-10-19_14h46.24.761,forced_choiceRT,2021.1.2,Win32,59.95203837,,,,,,,,6,Fast,g,1,1.258,1,3,7,1,1,,,,,
,1.84,,,,,,,,,f.PNG,f,6144b2f861393e7e248fcf00,2021-10-19_14h46.24.761,forced_choiceRT,2021.1.2,Win32,59.95203837,,,,,,,,6,Slow,f,1,2.47,2,0,8,0,1,,,,,
,0.81,,,,,,,,,h.PNG,h,6144b2f861393e7e248fcf00,2021-10-19_14h46.24.761,forced_choiceRT,2021.1.2,Win32,59.95203837,,,,,,,,6,Fast,h,1,1.655,2,1,9,2,1,,,,,
,1.25,,,,,,,,,f.PNG,f,6144b2f861393e7e248fcf00,2021-10-19_14h46.24.761,forced_choiceRT,2021.1.2,Win32,59.95203837,,,,,,,,6,Fast,f,1,1.817,2,2,10,0,1,,,,,
,1.8,,,,,,,,,h.PNG,h,6144b2f861393e7e248fcf00,2021-10-19_14h46.24.761,forced_choiceRT,2021.1.2,Win32,59.95203837,,,,,,,,6,Slow,h,1,2.521,2,3,11,2,1,,,,,
,0.05,,,,,,,,,g.PNG,g,6144b2f861393e7e248fcf00,2021-10-19_14h46.24.761,forced_choiceRT,2021.1.2,Win32,59.95203837,,,,,,,,6,Slow,j,0,4.503,3,0,12,1,1,,,,,
,0.29,,,,,,,,,f.PNG,f,6144b2f861393e7e248fcf00,2021-10-19_14h46.24.761,forced_choiceRT,2021.1.2,Win32,59.95203837,,,,,,,,6,Fast,f,1,0.906,3,1,13,0,1,,,,,
,0.61,,,,,,,,,f.PNG,f,6144b2f861393e7e248fcf00,2021-10-19_14h46.24.761,forced_choiceRT,2021.1.2,Win32,59.95203837,,,,,,,,6,Fast,f,1,1.262,3,2,14,0,1,,,,,
,1.27,,,,,,,,,j.PNG,j,6144b2f861393e7e248fcf00,2021-10-19_14h46.24.761,forced_choiceRT,2021.1.2,Win32,59.95203837,,,,,,,,6,Ontime,j,1,1.945,3,3,15,3,1,,,,,
,1.23,,,,,,,,,j.PNG,j,6144b2f861393e7e248fcf00,2021-10-19_14h46.24.761,forced_choiceRT,2021.1.2,Win32,59.95203837,,,,,,,,6,Fast,j,1,1.824,4,0,16,3,1,,,,,
,0.75,,,,,,,,,g.PNG,g,6144b2f861393e7e248fcf00,2021-10-19_14h46.24.761,forced_choiceRT,2021.1.2,Win32,59.95203837,,,,,,,,6,Fast,g,1,1.6,4,1,17,1,1,,,,,
,1.04,,,,,,,,,j.PNG,j,6144b2f861393e7e248fcf00,2021-10-19_14h46.24.761,forced_choiceRT,2021.1.2,Win32,59.95203837,,,,,,,,6,Fast,j,1,1.753,4,2,18,3,1,,,,,
,1.33,,,,,,,,,h.PNG,h,6144b2f861393e7e248fcf00,2021-10-19_14h46.24.761,forced_choiceRT,2021.1.2,Win32,59.95203837,,,,,,,,6,Slow,h,1,2.207,4,3,19,2,1,,,,,
,0.51,,,,,,,,,f.PNG,f,6144b2f861393e7e248fcf00,2021-10-19_14h46.24.761,forced_choiceRT,2021.1.2,Win32,59.95203837,,,,,,,,6,Fast,g,0,1.757,5,0,20,0,1,,,,,
,0.33,,,,,,,,,h.PNG,h,6144b2f861393e7e248fcf00,2021-10-19_14h46.24.761,forced_choiceRT,2021.1.2,Win32,59.95203837,,,,,,,,6,Fast,h,1,1.255,5,1,21,2,1,,,,,
,0.64,,,,,,,,,j.PNG,j,6144b2f861393e7e248fcf00,2021-10-19_14h46.24.761,forced_choiceRT,2021.1.2,Win32,59.95203837,,,,,,,,6,Slow,j,1,3.515,5,2,22,3,1,,,,,
,1.29,,,,,,,,,g.PNG,g,6144b2f861393e7e248fcf00,2021-10-19_14h46.24.761,forced_choiceRT,2021.1.2,Win32,59.95203837,,,,,,,,6,Ontime,g,1,1.927,5,3,23,1,1,,,,,
,0.44,,,,,,,,,g.PNG,g,6144b2f861393e7e248fcf00,2021-10-19_14h46.24.761,forced_choiceRT,2021.1.2,Win32,59.95203837,,,,,,,,6,Fast,g,1,1.121,6,0,24,1,1,,,,,
,1.53,,,,,,,,,h.PNG,h,6144b2f861393e7e248fcf00,2021-10-19_14h46.24.761,forced_choiceRT,2021.1.2,Win32,59.95203837,,,,,,,,6,Ontime,h,1,2.073,6,1,25,2,1,,,,,
,1.22,,,,,,,,,g.PNG,g,6144b2f861393e7e248fcf00,2021-10-19_14h46.24.761,forced_choiceRT,2021.1.2,Win32,59.95203837,,,,,,,,6,Ontime,g,1,2.039,6,2,26,1,1,,,,,
,1.07,,,,,,,,,j.PNG,j,6144b2f861393e7e248fcf00,2021-10-19_14h46.24.761,forced_choiceRT,2021.1.2,Win32,59.95203837,,,,,,,,6,Fast,j,1,1.848,6,3,27,3,1,,,,,
,1.62,,,,,,,,,g.PNG,g,6144b2f861393e7e248fcf00,2021-10-19_14h46.24.761,forced_choiceRT,2021.1.2,Win32,59.95203837,,,,,,,,6,Slow,g,1,2.246,7,0,28,1,1,,,,,
,0.46,,,,,,,,,f.PNG,f,6144b2f861393e7e248fcf00,2021-10-19_14h46.24.761,forced_choiceRT,2021.1.2,Win32,59.95203837,,,,,,,,6,Fast,f,1,1.205,7,1,29,0,1,,,,,
,1.15,,,,,,,,,h.PNG,h,6144b2f861393e7e248fcf00,2021-10-19_14h46.24.761,forced_choiceRT,2021.1.2,Win32,59.95203837,,,,,,,,6,Slow,j,0,9.064,7,2,30,2,1,,,,,
,1.56,,,,,,,,,j.PNG,j,6144b2f861393e7e248fcf00,2021-10-19_14h46.24.761,forced_choiceRT,2021.1.2,Win32,59.95203837,,,,,,,,6,Slow,j,1,2.239,7,3,31,3,1,,,,,
,1.89,,,,,,,,,f.PNG,f,6144b2f861393e7e248fcf00,2021-10-19_14h46.24.761,forced_choiceRT,2021.1.2,Win32,59.95203837,,,,,,,,6,Slow,f,1,2.448,8,0,32,0,1,,,,,
,0,,,,,,,,,f.PNG,f,6144b2f861393e7e248fcf00,2021-10-19_14h46.24.761,forced_choiceRT,2021.1.2,Win32,59.95203837,,,,,,,,6,Fast,f,1,0.639,8,1,33,0,1,,,,,
,1.22,,,,,,,,,g.PNG,g,6144b2f861393e7e248fcf00,2021-10-19_14h46.24.761,forced_choiceRT,2021.1.2,Win32,59.95203837,,,,,,,,6,Fast,g,1,1.87,8,2,34,1,1,,,,,
,1.08,,,,,,,,,j.PNG,j,6144b2f861393e7e248fcf00,2021-10-19_14h46.24.761,forced_choiceRT,2021.1.2,Win32,59.95203837,,,,,,,,6,Fast,j,1,1.72,8,3,35,3,1,,,,,
,0.22,,,,,,,,,j.PNG,j,6144b2f861393e7e248fcf00,2021-10-19_14h46.24.761,forced_choiceRT,2021.1.2,Win32,59.95203837,,,,,,,,6,Fast,j,1,0.854,9,0,36,3,1,,,,,
,0.68,,,,,,,,,h.PNG,h,6144b2f861393e7e248fcf00,2021-10-19_14h46.24.761,forced_choiceRT,2021.1.2,Win32,59.95203837,,,,,,,,6,Slow,g,0,3.749,9,1,37,2,1,,,,,
,1.98,,,,,,,,,f.PNG,f,6144b2f861393e7e248fcf00,2021-10-19_14h46.24.761,forced_choiceRT,2021.1.2,Win32,59.95203837,,,,,,,,6,Slow,f,1,2.538,9,2,38,0,1,,,,,
,0.98,,,,,,,,,j.PNG,j,6144b2f861393e7e248fcf00,2021-10-19_14h46.24.761,forced_choiceRT,2021.1.2,Win32,59.95203837,,,,,,,,6,Fast,h,0,1.772,9,3,39,3,1,,,,,
,,,,,,,,,,,,6144b2f861393e7e248fcf00,2021-10-19_14h46.24.761,forced_choiceRT,2021.1.2,Win32,59.95203837,,,,,,,,,,,,,,,,,,5,0,5,0,1
,1.89,,,,,,,,,j.PNG,j,6144b2f861393e7e248fcf00,2021-10-19_14h46.24.761,forced_choiceRT,2021.1.2,Win32,59.95203837,,,,,,,,7,Slow,j,1,2.57,0,0,0,3,1,,,,,
,1.6,,,,,,,,,g.PNG,g,6144b2f861393e7e248fcf00,2021-10-19_14h46.24.761,forced_choiceRT,2021.1.2,Win32,59.95203837,,,,,,,,7,Slow,g,1,2.187,0,1,1,1,1,,,,,
,1.5,,,,,,,,,j.PNG,j,6144b2f861393e7e248fcf00,2021-10-19_14h46.24.761,forced_choiceRT,2021.1.2,Win32,59.95203837,,,,,,,,7,Ontime,j,1,2.077,0,2,2,3,1,,,,,
,0.26,,,,,,,,,h.PNG,h,6144b2f861393e7e248fcf00,2021-10-19_14h46.24.761,forced_choiceRT,2021.1.2,Win32,59.95203837,,,,,,,,7,Fast,h,1,1.18,0,3,3,2,1,,,,,
,0.01,,,,,,,,,g.PNG,g,6144b2f861393e7e248fcf00,2021-10-19_14h46.24.761,forced_choiceRT,2021.1.2,Win32,59.95203837,,,,,,,,7,Fast,g,1,1.017,1,0,4,1,1,,,,,
,1.37,,,,,,,,,h.PNG,h,6144b2f861393e7e248fcf00,2021-10-19_14h46.24.761,forced_choiceRT,2021.1.2,Win32,59.95203837,,,,,,,,7,Slow,j,0,4.961,1,1,5,2,1,,,,,
,1.77,,,,,,,,,f.PNG,f,6144b2f861393e7e248fcf00,2021-10-19_14h46.24.761,forced_choiceRT,2021.1.2,Win32,59.95203837,,,,,,,,7,Slow,f,1,2.379,1,2,6,0,1,,,,,
,1.59,,,,,,,,,j.PNG,j,6144b2f861393e7e248fcf00,2021-10-19_14h46.24.761,forced_choiceRT,2021.1.2,Win32,59.95203837,,,,,,,,7,Slow,j,1,2.35,1,3,7,3,1,,,,,
,1.81,,,,,,,,,f.PNG,f,6144b2f861393e7e248fcf00,2021-10-19_14h46.24.761,forced_choiceRT,2021.1.2,Win32,59.95203837,,,,,,,,7,Slow,f,1,2.343,2,0,8,0,1,,,,,
,0.43,,,,,,,,,j.PNG,j,6144b2f861393e7e248fcf00,2021-10-19_14h46.24.761,forced_choiceRT,2021.1.2,Win32,59.95203837,,,,,,,,7,Fast,g,0,1.116,2,1,9,3,1,,,,,
,1,,,,,,,,,g.PNG,g,6144b2f861393e7e248fcf00,2021-10-19_14h46.24.761,forced_choiceRT,2021.1.2,Win32,59.95203837,,,,,,,,7,Fast,g,1,1.763,2,2,10,1,1,,,,,
,1.42,,,,,,,,,f.PNG,f,6144b2f861393e7e248fcf00,2021-10-19_14h46.24.761,forced_choiceRT,2021.1.2,Win32,59.95203837,,,,,,,,7,Ontime,f,1,2.084,2,3,11,0,1,,,,,
,0.99,,,,,,,,,h.PNG,h,6144b2f861393e7e248fcf00,2021-10-19_14h46.24.761,forced_choiceRT,2021.1.2,Win32,59.95203837,,,,,,,,7,Fast,h,1,1.673,3,0,12,2,1,,,,,
,1.93,,,,,,,,,h.PNG,h,6144b2f861393e7e248fcf00,2021-10-19_14h46.24.761,forced_choiceRT,2021.1.2,Win32,59.95203837,,,,,,,,7,Slow,j,0,3.836,3,1,13,2,1,,,,,
,0.65,,,,,,,,,f.PNG,f,6144b2f861393e7e248fcf00,2021-10-19_14h46.24.761,forced_choiceRT,2021.1.2,Win32,59.95203837,,,,,,,,7,Fast,f,1,1.251,3,2,14,0,1,,,,,
,1.66,,,,,,,,,g.PNG,g,6144b2f861393e7e248fcf00,2021-10-19_14h46.24.761,forced_choiceRT,2021.1.2,Win32,59.95203837,,,,,,,,7,Slow,g,1,2.239,3,3,15,1,1,,,,,
,1.97,,,,,,,,,j.PNG,j,6144b2f861393e7e248fcf00,2021-10-19_14h46.24.761,forced_choiceRT,2021.1.2,Win32,59.95203837,,,,,,,,7,Slow,g,0,2.474,4,0,16,3,1,,,,,
,1.15,,,,,,,,,j.PNG,j,6144b2f861393e7e248fcf00,2021-10-19_14h46.24.761,forced_choiceRT,2021.1.2,Win32,59.95203837,,,,,,,,7,Fast,h,0,1.752,4,1,17,3,1,,,,,
,1.67,,,,,,,,,g.PNG,g,6144b2f861393e7e248fcf00,2021-10-19_14h46.24.761,forced_choiceRT,2021.1.2,Win32,59.95203837,,,,,,,,7,Slow,g,1,2.335,4,2,18,1,1,,,,,
,1.65,,,,,,,,,g.PNG,g,6144b2f861393e7e248fcf00,2021-10-19_14h46.24.761,forced_choiceRT,2021.1.2,Win32,59.95203837,,,,,,,,7,Slow,g,1,2.294,4,3,19,1,1,,,,,
,1.58,,,,,,,,,h.PNG,h,6144b2f861393e7e248fcf00,2021-10-19_14h46.24.761,forced_choiceRT,2021.1.2,Win32,59.95203837,,,,,,,,7,Slow,h,1,2.32,5,0,20,2,1,,,,,
,1.49,,,,,,,,,f.PNG,f,6144b2f861393e7e248fcf00,2021-10-19_14h46.24.761,forced_choiceRT,2021.1.2,Win32,59.95203837,,,,,,,,7,Slow,f,1,2.202,5,1,21,0,1,,,,,
,1.02,,,,,,,,,g.PNG,g,6144b2f861393e7e248fcf00,2021-10-19_14h46.24.761,forced_choiceRT,2021.1.2,Win32,59.95203837,,,,,,,,7,Fast,g,1,1.813,5,2,22,1,1,,,,,
,0.43,,,,,,,,,j.PNG,j,6144b2f861393e7e248fcf00,2021-10-19_14h46.24.761,forced_choiceRT,2021.1.2,Win32,59.95203837,,,,,,,,7,Fast,h,0,1.735,5,3,23,3,1,,,,,
,0.76,,,,,,,,,g.PNG,g,6144b2f861393e7e248fcf00,2021-10-19_14h46.24.761,forced_choiceRT,2021.1.2,Win32,59.95203837,,,,,,,,7,Fast,g,1,1.397,6,0,24,1,1,,,,,
,0.08,,,,,,,,,j.PNG,j,6144b2f861393e7e248fcf00,2021-10-19_14h46.24.761,forced_choiceRT,2021.1.2,Win32,59.95203837,,,,,,,,7,Fast,j,1,0.768,6,1,25,3,1,,,,,
,0.93,,,,,,,,,f.PNG,f,6144b2f861393e7e248fcf00,2021-10-19_14h46.24.761,forced_choiceRT,2021.1.2,Win32,59.95203837,,,,,,,,7,Fast,f,1,1.736,6,2,26,0,1,,,,,
,1.85,,,,,,,,,h.PNG,h,6144b2f861393e7e248fcf00,2021-10-19_14h46.24.761,forced_choiceRT,2021.1.2,Win32,59.95203837,,,,,,,,7,Slow,h,1,2.456,6,3,27,2,1,,,,,
,0.42,,,,,,,,,f.PNG,f,6144b2f861393e7e248fcf00,2021-10-19_14h46.24.761,forced_choiceRT,2021.1.2,Win32,59.95203837,,,,,,,,7,Fast,f,1,1.167,7,0,28,0,1,,,,,
,1.99,,,,,,,,,j.PNG,j,6144b2f861393e7e248fcf00,2021-10-19_14h46.24.761,forced_choiceRT,2021.1.2,Win32,59.95203837,,,,,,,,7,Slow,h,0,2.533,7,1,29,3,1,,,,,
,1.83,,,,,,,,,g.PNG,g,6144b2f861393e7e248fcf00,2021-10-19_14h46.24.761,forced_choiceRT,2021.1.2,Win32,59.95203837,,,,,,,,7,Slow,j,0,2.985,7,2,30,1,1,,,,,
,0.92,,,,,,,,,j.PNG,j,6144b2f861393e7e248fcf00,2021-10-19_14h46.24.761,forced_choiceRT,2021.1.2,Win32,59.95203837,,,,,,,,7,Slow,j,1,2.354,7,3,31,3,1,,,,,
,1.53,,,,,,,,,g.PNG,g,6144b2f861393e7e248fcf00,2021-10-19_14h46.24.761,forced_choiceRT,2021.1.2,Win32,59.95203837,,,,,,,,7,Slow,h,0,2.296,8,0,32,1,1,,,,,
,0.74,,,,,,,,,f.PNG,f,6144b2f861393e7e248fcf00,2021-10-19_14h46.24.761,forced_choiceRT,2021.1.2,Win32,59.95203837,,,,,,,,7,Fast,f,1,1.727,8,1,33,0,1,,,,,
,0.51,,,,,,,,,h.PNG,h,6144b2f861393e7e248fcf00,2021-10-19_14h46.24.761,forced_choiceRT,2021.1.2,Win32,59.95203837,,,,,,,,7,Slow,f,0,11.479,8,2,34,2,1,,,,,
,0.45,,,,,,,,,h.PNG,h,6144b2f861393e7e248fcf00,2021-10-19_14h46.24.761,forced_choiceRT,2021.1.2,Win32,59.95203837,,,,,,,,7,Fast,h,1,1.286,8,3,35,2,1,,,,,
,0.9,,,,,,,,,h.PNG,h,6144b2f861393e7e248fcf00,2021-10-19_14h46.24.761,forced_choiceRT,2021.1.2,Win32,59.95203837,,,,,,,,7,Fast,h,1,1.392,9,0,36,2,1,,,,,
,1.52,,,,,,,,,f.PNG,f,6144b2f861393e7e248fcf00,2021-10-19_14h46.24.761,forced_choiceRT,2021.1.2,Win32,59.95203837,,,,,,,,7,Slow,f,1,2.44,9,1,37,0,1,,,,,
,1.56,,,,,,,,,f.PNG,f,6144b2f861393e7e248fcf00,2021-10-19_14h46.24.761,forced_choiceRT,2021.1.2,Win32,59.95203837,,,,,,,,7,Slow,j,0,16.064,9,2,38,0,1,,,,,
,1.98,,,,,,,,,h.PNG,h,6144b2f861393e7e248fcf00,2021-10-19_14h46.24.761,forced_choiceRT,2021.1.2,Win32,59.95203837,,,,,,,,7,Slow,h,1,2.626,9,3,39,2,1,,,,,
,,,,,,,,,,,,6144b2f861393e7e248fcf00,2021-10-19_14h46.24.761,forced_choiceRT,2021.1.2,Win32,59.95203837,,,,,,,,,,,,,,,,,,6,0,6,0,1
,1.39,,,,,,,,,g.PNG,g,6144b2f861393e7e248fcf00,2021-10-19_14h46.24.761,forced_choiceRT,2021.1.2,Win32,59.95203837,,,,,,,,8,Ontime,f,0,2.038,0,0,0,1,1,,,,,
,1.36,,,,,,,,,j.PNG,j,6144b2f861393e7e248fcf00,2021-10-19_14h46.24.761,forced_choiceRT,2021.1.2,Win32,59.95203837,,,,,,,,8,Ontime,j,1,1.961,0,1,1,3,1,,,,,
,0.08,,,,,,,,,h.PNG,h,6144b2f861393e7e248fcf00,2021-10-19_14h46.24.761,forced_choiceRT,2021.1.2,Win32,59.95203837,,,,,,,,8,Fast,h,1,0.844,0,2,2,2,1,,,,,
,0.76,,,,,,,,,f.PNG,f,6144b2f861393e7e248fcf00,2021-10-19_14h46.24.761,forced_choiceRT,2021.1.2,Win32,59.95203837,,,,,,,,8,Fast,f,1,1.378,0,3,3,0,1,,,,,
,1.5,,,,,,,,,h.PNG,h,6144b2f861393e7e248fcf00,2021-10-19_14h46.24.761,forced_choiceRT,2021.1.2,Win32,59.95203837,,,,,,,,8,Slow,h,1,2.175,1,0,4,2,1,,,,,
,0.82,,,,,,,,,j.PNG,j,6144b2f861393e7e248fcf00,2021-10-19_14h46.24.761,forced_choiceRT,2021.1.2,Win32,59.95203837,,,,,,,,8,Fast,j,1,1.433,1,1,5,3,1,,,,,
,1.45,,,,,,,,,h.PNG,h,6144b2f861393e7e248fcf00,2021-10-19_14h46.24.761,forced_choiceRT,2021.1.2,Win32,59.95203837,,,,,,,,8,Fast,h,1,1.809,1,2,6,2,1,,,,,
,1.75,,,,,,,,,f.PNG,f,6144b2f861393e7e248fcf00,2021-10-19_14h46.24.761,forced_choiceRT,2021.1.2,Win32,59.95203837,,,,,,,,8,Slow,f,1,2.298,1,3,7,0,1,,,,,
,1.28,,,,,,,,,j.PNG,j,6144b2f861393e7e248fcf00,2021-10-19_14h46.24.761,forced_choiceRT,2021.1.2,Win32,59.95203837,,,,,,,,8,Fast,j,1,1.862,2,0,8,3,1,,,,,
,1.86,,,,,,,,,h.PNG,h,6144b2f861393e7e248fcf00,2021-10-19_14h46.24.761,forced_choiceRT,2021.1.2,Win32,59.95203837,,,,,,,,8,Slow,g,0,2.367,2,1,9,2,1,,,,,
,0.7,,,,,,,,,f.PNG,f,6144b2f861393e7e248fcf00,2021-10-19_14h46.24.761,forced_choiceRT,2021.1.2,Win32,59.95203837,,,,,,,,8,Fast,f,1,1.382,2,2,10,0,1,,,,,
,1.12,,,,,,,,,j.PNG,j,6144b2f861393e7e248fcf00,2021-10-19_14h46.24.761,forced_choiceRT,2021.1.2,Win32,59.95203837,,,,,,,,8,Fast,j,1,1.739,2,3,11,3,1,,,,,
,0.96,,,,,,,,,g.PNG,g,6144b2f861393e7e248fcf00,2021-10-19_14h46.24.761,forced_choiceRT,2021.1.2,Win32,59.95203837,,,,,,,,8,Slow,h,0,2.657,3,0,12,1,1,,,,,
,1.28,,,,,,,,,f.PNG,f,6144b2f861393e7e248fcf00,2021-10-19_14h46.24.761,forced_choiceRT,2021.1.2,Win32,59.95203837,,,,,,,,8,Fast,f,1,1.887,3,1,13,0,1,,,,,
,0.38,,,,,,,,,g.PNG,g,6144b2f861393e7e248fcf00,2021-10-19_14h46.24.761,forced_choiceRT,2021.1.2,Win32,59.95203837,,,,,,,,8,Fast,g,1,1.536,3,2,14,1,1,,,,,
,1.47,,,,,,,,,h.PNG,h,6144b2f861393e7e248fcf00,2021-10-19_14h46.24.761,forced_choiceRT,2021.1.2,Win32,59.95203837,,,,,,,,8,Slow,h,1,4.939,3,3,15,2,1,,,,,
,0.71,,,,,,,,,g.PNG,g,6144b2f861393e7e248fcf00,2021-10-19_14h46.24.761,forced_choiceRT,2021.1.2,Win32,59.95203837,,,,,,,,8,Fast,g,1,1.359,4,0,16,1,1,,,,,
,1,,,,,,,,,h.PNG,h,6144b2f861393e7e248fcf00,2021-10-19_14h46.24.761,forced_choiceRT,2021.1.2,Win32,59.95203837,,,,,,,,8,Fast,h,1,1.619,4,1,17,2,1,,,,,
,1.08,,,,,,,,,j.PNG,j,6144b2f861393e7e248fcf00,2021-10-19_14h46.24.761,forced_choiceRT,2021.1.2,Win32,59.95203837,,,,,,,,8,Fast,j,1,1.714,4,2,18,3,1,,,,,
,0.61,,,,,,,,,f.PNG,f,6144b2f861393e7e248fcf00,2021-10-19_14h46.24.761,forced_choiceRT,2021.1.2,Win32,59.95203837,,,,,,,,8,Fast,f,1,1.263,4,3,19,0,1,,,,,
,0.43,,,,,,,,,f.PNG,f,6144b2f861393e7e248fcf00,2021-10-19_14h46.24.761,forced_choiceRT,2021.1.2,Win32,59.95203837,,,,,,,,8,Slow,h,0,4.112,5,0,20,0,1,,,,,
,0.02,,,,,,,,,h.PNG,h,6144b2f861393e7e248fcf00,2021-10-19_14h46.24.761,forced_choiceRT,2021.1.2,Win32,59.95203837,,,,,,,,8,Slow,f,0,3.125,5,1,21,2,1,,,,,
,1.89,,,,,,,,,h.PNG,h,6144b2f861393e7e248fcf00,2021-10-19_14h46.24.761,forced_choiceRT,2021.1.2,Win32,59.95203837,,,,,,,,8,Fast,f,0,0.003,5,2,22,2,1,,,,,
,0.16,,,,,,,,,j.PNG,j,6144b2f861393e7e248fcf00,2021-10-19_14h46.24.761,forced_choiceRT,2021.1.2,Win32,59.95203837,,,,,,,,8,Fast,j,1,1.444,5,3,23,3,1,,,,,
,1.08,,,,,,,,,j.PNG,j,6144b2f861393e7e248fcf00,2021-10-19_14h46.24.761,forced_choiceRT,2021.1.2,Win32,59.95203837,,,,,,,,8,Fast,j,1,1.576,6,0,24,3,1,,,,,
,0.73,,,,,,,,,j.PNG,j,6144b2f861393e7e248fcf00,2021-10-19_14h46.24.761,forced_choiceRT,2021.1.2,Win32,59.95203837,,,,,,,,8,Fast,j,1,1.203,6,1,25,3,1,,,,,
,0.96,,,,,,,,,f.PNG,f,6144b2f861393e7e248fcf00,2021-10-19_14h46.24.761,forced_choiceRT,2021.1.2,Win32,59.95203837,,,,,,,,8,Fast,f,1,1.654,6,2,26,0,1,,,,,
,1.09,,,,,,,,,f.PNG,f,6144b2f861393e7e248fcf00,2021-10-19_14h46.24.761,forced_choiceRT,2021.1.2,Win32,59.95203837,,,,,,,,8,Slow,j,0,8.152,6,3,27,0,1,,,,,
,1.23,,,,,,,,,h.PNG,h,6144b2f861393e7e248fcf00,2021-10-19_14h46.24.761,forced_choiceRT,2021.1.2,Win32,59.95203837,,,,,,,,8,Fast,h,1,1.881,7,0,28,2,1,,,,,
,1.45,,,,,,,,,g.PNG,g,6144b2f861393e7e248fcf00,2021-10-19_14h46.24.761,forced_choiceRT,2021.1.2,Win32,59.95203837,,,,,,,,8,Slow,g,1,2.116,7,1,29,1,1,,,,,
,0.83,,,,,,,,,j.PNG,j,6144b2f861393e7e248fcf00,2021-10-19_14h46.24.761,forced_choiceRT,2021.1.2,Win32,59.95203837,,,,,,,,8,Slow,g,0,7.109,7,2,30,3,1,,,,,
,1.45,,,,,,,,,g.PNG,g,6144b2f861393e7e248fcf00,2021-10-19_14h46.24.761,forced_choiceRT,2021.1.2,Win32,59.95203837,,,,,,,,8,Ontime,g,1,2.053,7,3,31,1,1,,,,,
,0.31,,,,,,,,,g.PNG,g,6144b2f861393e7e248fcf00,2021-10-19_14h46.24.761,forced_choiceRT,2021.1.2,Win32,59.95203837,,,,,,,,8,Fast,g,1,0.96,8,0,32,1,1,,,,,
,1.54,,,,,,,,,f.PNG,f,6144b2f861393e7e248fcf00,2021-10-19_14h46.24.761,forced_choiceRT,2021.1.2,Win32,59.95203837,,,,,,,,8,Slow,g,0,2.134,8,1,33,0,1,,,,,
,1.48,,,,,,,,,f.PNG,f,6144b2f861393e7e248fcf00,2021-10-19_14h46.24.761,forced_choiceRT,2021.1.2,Win32,59.95203837,,,,,,,,8,Slow,f,1,2.164,8,2,34,0,1,,,,,
,0.04,,,,,,,,,h.PNG,h,6144b2f861393e7e248fcf00,2021-10-19_14h46.24.761,forced_choiceRT,2021.1.2,Win32,59.95203837,,,,,,,,8,Fast,f,0,0.441,8,3,35,2,1,,,,,
,1.17,,,,,,,,,g.PNG,g,6144b2f861393e7e248fcf00,2021-10-19_14h46.24.761,forced_choiceRT,2021.1.2,Win32,59.95203837,,,,,,,,8,Slow,g,1,2.634,9,0,36,1,1,,,,,
,0.68,,,,,,,,,g.PNG,g,6144b2f861393e7e248fcf00,2021-10-19_14h46.24.761,forced_choiceRT,2021.1.2,Win32,59.95203837,,,,,,,,8,Fast,g,1,1.284,9,1,37,1,1,,,,,
,0.33,,,,,,,,,g.PNG,g,6144b2f861393e7e248fcf00,2021-10-19_14h46.24.761,forced_choiceRT,2021.1.2,Win32,59.95203837,,,,,,,,8,Fast,g,1,0.877,9,2,38,1,1,,,,,
,1.46,,,,,,,,,j.PNG,j,6144b2f861393e7e248fcf00,2021-10-19_14h46.24.761,forced_choiceRT,2021.1.2,Win32,59.95203837,,,,,,,,8,Slow,g,0,7.334,9,3,39,3,1,,,,,
,,,,,,,,,,,,6144b2f861393e7e248fcf00,2021-10-19_14h46.24.761,forced_choiceRT,2021.1.2,Win32,59.95203837,,,,,,,,,,,,,,,,,,7,0,7,0,1
,0.4,,,,,,,,,g.PNG,g,6144b2f861393e7e248fcf00,2021-10-19_14h46.24.761,forced_choiceRT,2021.1.2,Win32,59.95203837,,,,,,,,9,Fast,g,1,1.283,0,0,0,1,1,,,,,
,0.43,,,,,,,,,h.PNG,h,6144b2f861393e7e248fcf00,2021-10-19_14h46.24.761,forced_choiceRT,2021.1.2,Win32,59.95203837,,,,,,,,9,Fast,h,1,1.109,0,1,1,2,1,,,,,
,0,,,,,,,,,f.PNG,f,6144b2f861393e7e248fcf00,2021-10-19_14h46.24.761,forced_choiceRT,2021.1.2,Win32,59.95203837,,,,,,,,9,Fast,f,1,0.678,0,2,2,0,1,,,,,
,0.02,,,,,,,,,g.PNG,g,6144b2f861393e7e248fcf00,2021-10-19_14h46.24.761,forced_choiceRT,2021.1.2,Win32,59.95203837,,,,,,,,9,Fast,g,1,0.741,0,3,3,1,1,,,,,
,1.07,,,,,,,,,h.PNG,h,6144b2f861393e7e248fcf00,2021-10-19_14h46.24.761,forced_choiceRT,2021.1.2,Win32,59.95203837,,,,,,,,9,Fast,h,1,1.722,1,0,4,2,1,,,,,
,1.33,,,,,,,,,j.PNG,j,6144b2f861393e7e248fcf00,2021-10-19_14h46.24.761,forced_choiceRT,2021.1.2,Win32,59.95203837,,,,,,,,9,Ontime,j,1,2.008,1,1,5,3,1,,,,,
,0.26,,,,,,,,,g.PNG,g,6144b2f861393e7e248fcf00,2021-10-19_14h46.24.761,forced_choiceRT,2021.1.2,Win32,59.95203837,,,,,,,,9,Fast,g,1,1.324,1,2,6,1,1,,,,,
,1.55,,,,,,,,,f.PNG,f,6144b2f861393e7e248fcf00,2021-10-19_14h46.24.761,forced_choiceRT,2021.1.2,Win32,59.95203837,,,,,,,,9,Slow,f,1,2.12,1,3,7,0,1,,,,,
,0,,,,,,,,,h.PNG,h,6144b2f861393e7e248fcf00,2021-10-19_14h46.24.761,forced_choiceRT,2021.1.2,Win32,59.95203837,,,,,,,,9,Fast,h,1,1.155,2,0,8,2,1,,,,,
,0.01,,,,,,,,,j.PNG,j,6144b2f861393e7e248fcf00,2021-10-19_14h46.24.761,forced_choiceRT,2021.1.2,Win32,59.95203837,,,,,,,,9,Slow,j,1,4.005,2,1,9,3,1,,,,,
,0.44,,,,,,,,,j.PNG,j,6144b2f861393e7e248fcf00,2021-10-19_14h46.24.761,forced_choiceRT,2021.1.2,Win32,59.95203837,,,,,,,,9,Fast,j,1,1.088,2,2,10,3,1,,,,,
,0.99,,,,,,,,,j.PNG,j,6144b2f861393e7e248fcf00,2021-10-19_14h46.24.761,forced_choiceRT,2021.1.2,Win32,59.95203837,,,,,,,,9,Fast,j,1,1.653,2,3,11,3,1,,,,,
,0.31,,,,,,,,,g.PNG,g,6144b2f861393e7e248fcf00,2021-10-19_14h46.24.761,forced_choiceRT,2021.1.2,Win32,59.95203837,,,,,,,,9,Fast,g,1,1.089,3,0,12,1,1,,,,,
,1.99,,,,,,,,,j.PNG,j,6144b2f861393e7e248fcf00,2021-10-19_14h46.24.761,forced_choiceRT,2021.1.2,Win32,59.95203837,,,,,,,,9,Slow,j,1,2.728,3,1,13,3,1,,,,,
,1.41,,,,,,,,,h.PNG,h,6144b2f861393e7e248fcf00,2021-10-19_14h46.24.761,forced_choiceRT,2021.1.2,Win32,59.95203837,,,,,,,,9,Slow,f,0,4.303,3,2,14,2,1,,,,,
,1.22,,,,,,,,,h.PNG,h,6144b2f861393e7e248fcf00,2021-10-19_14h46.24.761,forced_choiceRT,2021.1.2,Win32,59.95203837,,,,,,,,9,Slow,g,0,2.539,3,3,15,2,1,,,,,
,1.92,,,,,,,,,h.PNG,h,6144b2f861393e7e248fcf00,2021-10-19_14h46.24.761,forced_choiceRT,2021.1.2,Win32,59.95203837,,,,,,,,9,Slow,j,0,2.666,4,0,16,2,1,,,,,
,0.44,,,,,,,,,g.PNG,g,6144b2f861393e7e248fcf00,2021-10-19_14h46.24.761,forced_choiceRT,2021.1.2,Win32,59.95203837,,,,,,,,9,Fast,g,1,1.167,4,1,17,1,1,,,,,
,1.59,,,,,,,,,g.PNG,g,6144b2f861393e7e248fcf00,2021-10-19_14h46.24.761,forced_choiceRT,2021.1.2,Win32,59.95203837,,,,,,,,9,Slow,g,1,2.251,4,2,18,1,1,,,,,
,1.3,,,,,,,,,g.PNG,g,6144b2f861393e7e248fcf00,2021-10-19_14h46.24.761,forced_choiceRT,2021.1.2,Win32,59.95203837,,,,,,,,9,Fast,g,1,1.771,4,3,19,1,1,,,,,
,1.4,,,,,,,,,j.PNG,j,6144b2f861393e7e248fcf00,2021-10-19_14h46.24.761,forced_choiceRT,2021.1.2,Win32,59.95203837,,,,,,,,9,Fast,g,0,1.811,5,0,20,3,1,,,,,
,0.37,,,,,,,,,f.PNG,f,6144b2f861393e7e248fcf00,2021-10-19_14h46.24.761,forced_choiceRT,2021.1.2,Win32,59.95203837,,,,,,,,9,Fast,f,1,1.114,5,1,21,0,1,,,,,
,1.05,,,,,,,,,j.PNG,j,6144b2f861393e7e248fcf00,2021-10-19_14h46.24.761,forced_choiceRT,2021.1.2,Win32,59.95203837,,,,,,,,9,Slow,h,0,18.903,5,2,22,3,1,,,,,
,1.3,,,,,,,,,j.PNG,j,6144b2f861393e7e248fcf00,2021-10-19_14h46.24.761,forced_choiceRT,2021.1.2,Win32,59.95203837,,,,,,,,9,Ontime,j,1,1.907,5,3,23,3,1,,,,,
,1.17,,,,,,,,,f.PNG,f,6144b2f861393e7e248fcf00,2021-10-19_14h46.24.761,forced_choiceRT,2021.1.2,Win32,59.95203837,,,,,,,,9,Fast,f,1,1.829,6,0,24,0,1,,,,,
,0.55,,,,,,,,,f.PNG,f,6144b2f861393e7e248fcf00,2021-10-19_14h46.24.761,forced_choiceRT,2021.1.2,Win32,59.95203837,,,,,,,,9,Fast,f,1,1.305,6,1,25,0,1,,,,,
,0.09,,,,,,,,,h.PNG,h,6144b2f861393e7e248fcf00,2021-10-19_14h46.24.761,forced_choiceRT,2021.1.2,Win32,59.95203837,,,,,,,,9,Fast,h,1,0.807,6,2,26,2,1,,,,,
,1.52,,,,,,,,,f.PNG,f,6144b2f861393e7e248fcf00,2021-10-19_14h46.24.761,forced_choiceRT,2021.1.2,Win32,59.95203837,,,,,,,,9,Slow,f,1,2.178,6,3,27,0,1,,,,,
,1.5,,,,,,,,,f.PNG,f,6144b2f861393e7e248fcf00,2021-10-19_14h46.24.761,forced_choiceRT,2021.1.2,Win32,59.95203837,,,,,,,,9,Slow,f,1,2.185,7,0,28,0,1,,,,,
,1.57,,,,,,,,,h.PNG,h,6144b2f861393e7e248fcf00,2021-10-19_14h46.24.761,forced_choiceRT,2021.1.2,Win32,59.95203837,,,,,,,,9,Fast,g,0,0.841,7,1,29,2,1,,,,,
,1.42,,,,,,,,,h.PNG,h,6144b2f861393e7e248fcf00,2021-10-19_14h46.24.761,forced_choiceRT,2021.1.2,Win32,59.95203837,,,,,,,,9,Slow,h,1,2.168,7,2,30,2,1,,,,,
,1.47,,,,,,,,,h.PNG,h,6144b2f861393e7e248fcf00,2021-10-19_14h46.24.761,forced_choiceRT,2021.1.2,Win32,59.95203837,,,,,,,,9,Slow,h,1,3.125,7,3,31,2,1,,,,,
,1.13,,,,,,,,,f.PNG,f,6144b2f861393e7e248fcf00,2021-10-19_14h46.24.761,forced_choiceRT,2021.1.2,Win32,59.95203837,,,,,,,,9,Fast,f,1,1.724,8,0,32,0,1,,,,,
,1.21,,,,,,,,,f.PNG,f,6144b2f861393e7e248fcf00,2021-10-19_14h46.24.761,forced_choiceRT,2021.1.2,Win32,59.95203837,,,,,,,,9,Fast,f,1,1.806,8,1,33,0,1,,,,,
,1.73,,,,,,,,,j.PNG,j,6144b2f861393e7e248fcf00,2021-10-19_14h46.24.761,forced_choiceRT,2021.1.2,Win32,59.95203837,,,,,,,,9,Slow,j,1,2.336,8,2,34,3,1,,,,,
,1.84,,,,,,,,,g.PNG,g,6144b2f861393e7e248fcf00,2021-10-19_14h46.24.761,forced_choiceRT,2021.1.2,Win32,59.95203837,,,,,,,,9,Slow,g,1,2.494,8,3,35,1,1,,,,,
,1.03,,,,,,,,,g.PNG,g,6144b2f861393e7e248fcf00,2021-10-19_14h46.24.761,forced_choiceRT,2021.1.2,Win32,59.95203837,,,,,,,,9,Slow,g,1,6.324,9,0,36,1,1,,,,,
,1.15,,,,,,,,,j.PNG,j,6144b2f861393e7e248fcf00,2021-10-19_14h46.24.761,forced_choiceRT,2021.1.2,Win32,59.95203837,,,,,,,,9,Fast,h,0,1.724,9,1,37,3,1,,,,,
,1.3,,,,,,,,,f.PNG,f,6144b2f861393e7e248fcf00,2021-10-19_14h46.24.761,forced_choiceRT,2021.1.2,Win32,59.95203837,,,,,,,,9,Fast,f,1,1.862,9,2,38,0,1,,,,,
,0.27,,,,,,,,,g.PNG,g,6144b2f861393e7e248fcf00,2021-10-19_14h46.24.761,forced_choiceRT,2021.1.2,Win32,59.95203837,,,,,,,,9,Fast,g,1,0.876,9,3,39,1,1,,,,,
,,,,,,,,,,,,6144b2f861393e7e248fcf00,2021-10-19_14h46.24.761,forced_choiceRT,2021.1.2,Win32,59.95203837,,,,,,,,,,,,,,,,,,8,0,8,0,1
,1.73,,,,,,,,,g.PNG,g,6144b2f861393e7e248fcf00,2021-10-19_14h46.24.761,forced_choiceRT,2021.1.2,Win32,59.95203837,,,,,,,,10,Slow,g,1,2.25,0,0,0,1,1,,,,,
,0.85,,,,,,,,,g.PNG,g,6144b2f861393e7e248fcf00,2021-10-19_14h46.24.761,forced_choiceRT,2021.1.2,Win32,59.95203837,,,,,,,,10,Fast,g,1,1.317,0,1,1,1,1,,,,,
,1.36,,,,,,,,,h.PNG,h,6144b2f861393e7e248fcf00,2021-10-19_14h46.24.761,forced_choiceRT,2021.1.2,Win32,59.95203837,,,,,,,,10,Ontime,g,0,1.987,0,2,2,2,1,,,,,
,0.51,,,,,,,,,g.PNG,g,6144b2f861393e7e248fcf00,2021-10-19_14h46.24.761,forced_choiceRT,2021.1.2,Win32,59.95203837,,,,,,,,10,Fast,j,0,1.034,0,3,3,1,1,,,,,
,0.32,,,,,,,,,h.PNG,h,6144b2f861393e7e248fcf00,2021-10-19_14h46.24.761,forced_choiceRT,2021.1.2,Win32,59.95203837,,,,,,,,10,Fast,h,1,1.009,1,0,4,2,1,,,,,
,0.13,,,,,,,,,f.PNG,f,6144b2f861393e7e248fcf00,2021-10-19_14h46.24.761,forced_choiceRT,2021.1.2,Win32,59.95203837,,,,,,,,10,Fast,f,1,0.702,1,1,5,0,1,,,,,
,1.89,,,,,,,,,j.PNG,j,6144b2f861393e7e248fcf00,2021-10-19_14h46.24.761,forced_choiceRT,2021.1.2,Win32,59.95203837,,,,,,,,10,Slow,j,1,2.505,1,2,6,3,1,,,,,
,0.39,,,,,,,,,g.PNG,g,6144b2f861393e7e248fcf00,2021-10-19_14h46.24.761,forced_choiceRT,2021.1.2,Win32,59.95203837,,,,,,,,10,Fast,h,0,1.719,1,3,7,1,1,,,,,
,1.31,,,,,,,,,h.PNG,h,6144b2f861393e7e248fcf00,2021-10-19_14h46.24.761,forced_choiceRT,2021.1.2,Win32,59.95203837,,,,,,,,10,Ontime,h,1,1.938,2,0,8,2,1,,,,,
,1.96,,,,,,,,,g.PNG,g,6144b2f861393e7e248fcf00,2021-10-19_14h46.24.761,forced_choiceRT,2021.1.2,Win32,59.95203837,,,,,,,,10,Slow,g,1,2.567,2,1,9,1,1,,,,,
,0.99,,,,,,,,,f.PNG,f,6144b2f861393e7e248fcf00,2021-10-19_14h46.24.761,forced_choiceRT,2021.1.2,Win32,59.95203837,,,,,,,,10,Fast,f,1,1.705,2,2,10,0,1,,,,,
,0.72,,,,,,,,,f.PNG,f,6144b2f861393e7e248fcf00,2021-10-19_14h46.24.761,forced_choiceRT,2021.1.2,Win32,59.95203837,,,,,,,,10,Slow,h,0,6.182,2,3,11,0,1,,,,,
,0.13,,,,,,,,,g.PNG,g,6144b2f861393e7e248fcf00,2021-10-19_14h46.24.761,forced_choiceRT,2021.1.2,Win32,59.95203837,,,,,,,,10,Fast,g,1,0.823,3,0,12,1,1,,,,,
,0.36,,,,,,,,,f.PNG,f,6144b2f861393e7e248fcf00,2021-10-19_14h46.24.761,forced_choiceRT,2021.1.2,Win32,59.95203837,,,,,,,,10,Fast,f,1,1.021,3,1,13,0,1,,,,,
,0.55,,,,,,,,,j.PNG,j,6144b2f861393e7e248fcf00,2021-10-19_14h46.24.761,forced_choiceRT,2021.1.2,Win32,59.95203837,,,,,,,,10,Fast,g,0,1.264,3,2,14,3,1,,,,,
,1.92,,,,,,,,,g.PNG,g,6144b2f861393e7e248fcf00,2021-10-19_14h46.24.761,forced_choiceRT,2021.1.2,Win32,59.95203837,,,,,,,,10,Slow,j,0,7.425,3,3,15,1,1,,,,,
,0.1,,,,,,,,,f.PNG,f,6144b2f861393e7e248fcf00,2021-10-19_14h46.24.761,forced_choiceRT,2021.1.2,Win32,59.95203837,,,,,,,,10,Fast,f,1,0.736,4,0,16,0,1,,,,,
,0.18,,,,,,,,,h.PNG,h,6144b2f861393e7e248fcf00,2021-10-19_14h46.24.761,forced_choiceRT,2021.1.2,Win32,59.95203837,,,,,,,,10,Fast,h,1,0.914,4,1,17,2,1,,,,,
,1.93,,,,,,,,,j.PNG,j,6144b2f861393e7e248fcf00,2021-10-19_14h46.24.761,forced_choiceRT,2021.1.2,Win32,59.95203837,,,,,,,,10,Slow,j,1,2.554,4,2,18,3,1,,,,,
,0.3,,,,,,,,,h.PNG,h,6144b2f861393e7e248fcf00,2021-10-19_14h46.24.761,forced_choiceRT,2021.1.2,Win32,59.95203837,,,,,,,,10,Slow,j,0,6.782,4,3,19,2,1,,,,,
,0.07,,,,,,,,,j.PNG,j,6144b2f861393e7e248fcf00,2021-10-19_14h46.24.761,forced_choiceRT,2021.1.2,Win32,59.95203837,,,,,,,,10,Fast,j,1,0.82,5,0,20,3,1,,,,,
,0.49,,,,,,,,,h.PNG,h,6144b2f861393e7e248fcf00,2021-10-19_14h46.24.761,forced_choiceRT,2021.1.2,Win32,59.95203837,,,,,,,,10,Fast,h,1,1.085,5,1,21,2,1,,,,,
,0.59,,,,,,,,,g.PNG,g,6144b2f861393e7e248fcf00,2021-10-19_14h46.24.761,forced_choiceRT,2021.1.2,Win32,59.95203837,,,,,,,,10,Fast,g,1,1.268,5,2,22,1,1,,,,,
,1.64,,,,,,,,,f.PNG,f,6144b2f861393e7e248fcf00,2021-10-19_14h46.24.761,forced_choiceRT,2021.1.2,Win32,59.95203837,,,,,,,,10,Slow,f,1,2.351,5,3,23,0,1,,,,,
,1.57,,,,,,,,,j.PNG,j,6144b2f861393e7e248fcf00,2021-10-19_14h46.24.761,forced_choiceRT,2021.1.2,Win32,59.95203837,,,,,,,,10,Slow,h,0,4.31,6,0,24,3,1,,,,,
,0.81,,,,,,,,,j.PNG,j,6144b2f861393e7e248fcf00,2021-10-19_14h46.24.761,forced_choiceRT,2021.1.2,Win32,59.95203837,,,,,,,,10,Fast,h,0,1.645,6,1,25,3,1,,,,,
,0.53,,,,,,,,,g.PNG,g,6144b2f861393e7e248fcf00,2021-10-19_14h46.24.761,forced_choiceRT,2021.1.2,Win32,59.95203837,,,,,,,,10,Fast,g,1,1.203,6,2,26,1,1,,,,,
,0.17,,,,,,,,,j.PNG,j,6144b2f861393e7e248fcf00,2021-10-19_14h46.24.761,forced_choiceRT,2021.1.2,Win32,59.95203837,,,,,,,,10,Fast,j,1,0.842,6,3,27,3,1,,,,,
,1.28,,,,,,,,,h.PNG,h,6144b2f861393e7e248fcf00,2021-10-19_14h46.24.761,forced_choiceRT,2021.1.2,Win32,59.95203837,,,,,,,,10,Fast,h,1,1.872,7,0,28,2,1,,,,,
,1.31,,,,,,,,,j.PNG,j,6144b2f861393e7e248fcf00,2021-10-19_14h46.24.761,forced_choiceRT,2021.1.2,Win32,59.95203837,,,,,,,,10,Ontime,j,1,2.003,7,1,29,3,1,,,,,
,0.43,,,,,,,,,f.PNG,f,6144b2f861393e7e248fcf00,2021-10-19_14h46.24.761,forced_choiceRT,2021.1.2,Win32,59.95203837,,,,,,,,10,Fast,h,0,1.541,7,2,30,0,1,,,,,
,0.26,,,,,,,,,h.PNG,h,6144b2f861393e7e248fcf00,2021-10-19_14h46.24.761,forced_choiceRT,2021.1.2,Win32,59.95203837,,,,,,,,10,Slow,f,0,7.425,7,3,31,2,1,,,,,
,1.59,,,,,,,,,h.PNG,h,6144b2f861393e7e248fcf00,2021-10-19_14h46.24.761,forced_choiceRT,2021.1.2,Win32,59.95203837,,,,,,,,10,Slow,h,1,2.217,8,0,32,2,1,,,,,
,1.89,,,,,,,,,g.PNG,g,6144b2f861393e7e248fcf00,2021-10-19_14h46.24.761,forced_choiceRT,2021.1.2,Win32,59.95203837,,,,,,,,10,Slow,f,0,2.54,8,1,33,1,1,,,,,
,0.21,,,,,,,,,j.PNG,j,6144b2f861393e7e248fcf00,2021-10-19_14h46.24.761,forced_choiceRT,2021.1.2,Win32,59.95203837,,,,,,,,10,Slow,h,0,8.588,8,2,34,3,1,,,,,
,0.69,,,,,,,,,f.PNG,f,6144b2f861393e7e248fcf00,2021-10-19_14h46.24.761,forced_choiceRT,2021.1.2,Win32,59.95203837,,,,,,,,10,Fast,f,1,1.619,8,3,35,0,1,,,,,
,0.02,,,,,,,,,h.PNG,h,6144b2f861393e7e248fcf00,2021-10-19_14h46.24.761,forced_choiceRT,2021.1.2,Win32,59.95203837,,,,,,,,10,Fast,h,1,0.823,9,0,36,2,1,,,,,
,1.73,,,,,,,,,f.PNG,f,6144b2f861393e7e248fcf00,2021-10-19_14h46.24.761,forced_choiceRT,2021.1.2,Win32,59.95203837,,,,,,,,10,Slow,f,1,2.281,9,1,37,0,1,,,,,
,0.81,,,,,,,,,j.PNG,j,6144b2f861393e7e248fcf00,2021-10-19_14h46.24.761,forced_choiceRT,2021.1.2,Win32,59.95203837,,,,,,,,10,Fast,h,0,1.521,9,2,38,3,1,,,,,
,0.37,,,,,,,,,f.PNG,f,6144b2f861393e7e248fcf00,2021-10-19_14h46.24.761,forced_choiceRT,2021.1.2,Win32,59.95203837,,,,,,,,10,Fast,f,1,1.032,9,3,39,0,1,,,,,
,,,,,,,,,,,,6144b2f861393e7e248fcf00,2021-10-19_14h46.24.761,forced_choiceRT,2021.1.2,Win32,59.95203837,,,,,,,,,,,,,,,,,,9,0,9,0,1
