IP_Addresss,target_onset,trial_resp_sp.keys,trial_resp_sp.corr,trial_resp_sp.rt,trials_train_loop.thisRepN,trials_train_loop.thisTrialN,trials_train_loop.thisN,trials_train_loop.thisIndex,trials_train_loop.ran,pic,correct_key,participant,date,expName,psychopyVersion,OS,frameRate,trial_resp_timing.keys,trial_resp_timing.rt,trials_train_timing.thisRepN,trials_train_timing.thisTrialN,trials_train_timing.thisN,trials_train_timing.thisIndex,trials_train_timing.ran,block_id,ontime,forcedRT_resp.keys,forcedRT_resp.corr,forcedRT_resp.rt,trials.thisRepN,trials.thisTrialN,trials.thisN,trials.thisIndex,trials.ran,blocks.thisRepN,blocks.thisTrialN,blocks.thisN,blocks.thisIndex,blocks.ran
68.198.161.208,0,f,1,2.1535,0,0,0,0,1,f.PNG,f,61452bbe86c21c0347085911,2021-10-19_15h53.21.040,forced_choiceRT,2021.1.2,Win32,60.04563468,,,,,,,,,,,,,,,,,,,,,,
,0,j,0,1.1186,0,1,1,2,1,h.PNG,h,61452bbe86c21c0347085911,2021-10-19_15h53.21.040,forced_choiceRT,2021.1.2,Win32,60.04563468,,,,,,,,,,,,,,,,,,,,,,
,0,h,1,1.2821,0,2,2,2,1,h.PNG,h,61452bbe86c21c0347085911,2021-10-19_15h53.21.040,forced_choiceRT,2021.1.2,Win32,60.04563468,,,,,,,,,,,,,,,,,,,,,,
,0,h,1,1.623,0,3,3,2,1,h.PNG,h,61452bbe86c21c0347085911,2021-10-19_15h53.21.040,forced_choiceRT,2021.1.2,Win32,60.04563468,,,,,,,,,,,,,,,,,,,,,,
,0,h,1,0.5489,1,0,4,2,1,h.PNG,h,61452bbe86c21c0347085911,2021-10-19_15h53.21.040,forced_choiceRT,2021.1.2,Win32,60.04563468,,,,,,,,,,,,,,,,,,,,,,
,0,h,1,0.4523,1,1,5,2,1,h.PNG,h,61452bbe86c21c0347085911,2021-10-19_15h53.21.040,forced_choiceRT,2021.1.2,Win32,60.04563468,,,,,,,,,,,,,,,,,,,,,,
,0,j,1,1.2684,1,2,6,3,1,j.PNG,j,61452bbe86c21c0347085911,2021-10-19_15h53.21.040,forced_choiceRT,2021.1.2,Win32,60.04563468,,,,,,,,,,,,,,,,,,,,,,
,0,j,1,0.5416,1,3,7,3,1,j.PNG,j,61452bbe86c21c0347085911,2021-10-19_15h53.21.040,forced_choiceRT,2021.1.2,Win32,60.04563468,,,,,,,,,,,,,,,,,,,,,,
,0,g,1,1.3,2,0,8,1,1,g.PNG,g,61452bbe86c21c0347085911,2021-10-19_15h53.21.040,forced_choiceRT,2021.1.2,Win32,60.04563468,,,,,,,,,,,,,,,,,,,,,,
,0,g,1,0.6364,2,1,9,1,1,g.PNG,g,61452bbe86c21c0347085911,2021-10-19_15h53.21.040,forced_choiceRT,2021.1.2,Win32,60.04563468,,,,,,,,,,,,,,,,,,,,,,
,0,j,1,0.5612,2,2,10,3,1,j.PNG,j,61452bbe86c21c0347085911,2021-10-19_15h53.21.040,forced_choiceRT,2021.1.2,Win32,60.04563468,,,,,,,,,,,,,,,,,,,,,,
,0,f,1,0.7646,2,3,11,0,1,f.PNG,f,61452bbe86c21c0347085911,2021-10-19_15h53.21.040,forced_choiceRT,2021.1.2,Win32,60.04563468,,,,,,,,,,,,,,,,,,,,,,
,0,h,1,0.8152,3,0,12,2,1,h.PNG,h,61452bbe86c21c0347085911,2021-10-19_15h53.21.040,forced_choiceRT,2021.1.2,Win32,60.04563468,,,,,,,,,,,,,,,,,,,,,,
,0,f,1,0.8031,3,1,13,0,1,f.PNG,f,61452bbe86c21c0347085911,2021-10-19_15h53.21.040,forced_choiceRT,2021.1.2,Win32,60.04563468,,,,,,,,,,,,,,,,,,,,,,
,0,g,1,1.1255,3,2,14,1,1,g.PNG,g,61452bbe86c21c0347085911,2021-10-19_15h53.21.040,forced_choiceRT,2021.1.2,Win32,60.04563468,,,,,,,,,,,,,,,,,,,,,,
,0,j,1,0.7279,3,3,15,3,1,j.PNG,j,61452bbe86c21c0347085911,2021-10-19_15h53.21.040,forced_choiceRT,2021.1.2,Win32,60.04563468,,,,,,,,,,,,,,,,,,,,,,
,0,h,1,0.5916,4,0,16,2,1,h.PNG,h,61452bbe86c21c0347085911,2021-10-19_15h53.21.040,forced_choiceRT,2021.1.2,Win32,60.04563468,,,,,,,,,,,,,,,,,,,,,,
,0,f,1,0.6956,4,1,17,0,1,f.PNG,f,61452bbe86c21c0347085911,2021-10-19_15h53.21.040,forced_choiceRT,2021.1.2,Win32,60.04563468,,,,,,,,,,,,,,,,,,,,,,
,0,g,1,1.2102,4,2,18,1,1,g.PNG,g,61452bbe86c21c0347085911,2021-10-19_15h53.21.040,forced_choiceRT,2021.1.2,Win32,60.04563468,,,,,,,,,,,,,,,,,,,,,,
,0,g,1,0.6164,4,3,19,1,1,g.PNG,g,61452bbe86c21c0347085911,2021-10-19_15h53.21.040,forced_choiceRT,2021.1.2,Win32,60.04563468,,,,,,,,,,,,,,,,,,,,,,
,0,f,1,0.6487,5,0,20,0,1,f.PNG,f,61452bbe86c21c0347085911,2021-10-19_15h53.21.040,forced_choiceRT,2021.1.2,Win32,60.04563468,,,,,,,,,,,,,,,,,,,,,,
,0,g,1,0.8165,5,1,21,1,1,g.PNG,g,61452bbe86c21c0347085911,2021-10-19_15h53.21.040,forced_choiceRT,2021.1.2,Win32,60.04563468,,,,,,,,,,,,,,,,,,,,,,
,0,h,1,0.6511,5,2,22,2,1,h.PNG,h,61452bbe86c21c0347085911,2021-10-19_15h53.21.040,forced_choiceRT,2021.1.2,Win32,60.04563468,,,,,,,,,,,,,,,,,,,,,,
,0,g,1,0.789,5,3,23,1,1,g.PNG,g,61452bbe86c21c0347085911,2021-10-19_15h53.21.040,forced_choiceRT,2021.1.2,Win32,60.04563468,,,,,,,,,,,,,,,,,,,,,,
,0,f,1,0.6781,6,0,24,0,1,f.PNG,f,61452bbe86c21c0347085911,2021-10-19_15h53.21.040,forced_choiceRT,2021.1.2,Win32,60.04563468,,,,,,,,,,,,,,,,,,,,,,
,0,h,0,0.6073,6,1,25,3,1,j.PNG,j,61452bbe86c21c0347085911,2021-10-19_15h53.21.040,forced_choiceRT,2021.1.2,Win32,60.04563468,,,,,,,,,,,,,,,,,,,,,,
,0,f,1,1.2346,6,2,26,0,1,f.PNG,f,61452bbe86c21c0347085911,2021-10-19_15h53.21.040,forced_choiceRT,2021.1.2,Win32,60.04563468,,,,,,,,,,,,,,,,,,,,,,
,0,h,0,1.531,6,3,27,3,1,j.PNG,j,61452bbe86c21c0347085911,2021-10-19_15h53.21.040,forced_choiceRT,2021.1.2,Win32,60.04563468,,,,,,,,,,,,,,,,,,,,,,
,0,f,1,1.1448,7,0,28,0,1,f.PNG,f,61452bbe86c21c0347085911,2021-10-19_15h53.21.040,forced_choiceRT,2021.1.2,Win32,60.04563468,,,,,,,,,,,,,,,,,,,,,,
,0,f,1,0.8047,7,1,29,0,1,f.PNG,f,61452bbe86c21c0347085911,2021-10-19_15h53.21.040,forced_choiceRT,2021.1.2,Win32,60.04563468,,,,,,,,,,,,,,,,,,,,,,
,0,f,1,0.5769,7,2,30,0,1,f.PNG,f,61452bbe86c21c0347085911,2021-10-19_15h53.21.040,forced_choiceRT,2021.1.2,Win32,60.04563468,,,,,,,,,,,,,,,,,,,,,,
,0,g,1,1.0426,7,3,31,1,1,g.PNG,g,61452bbe86c21c0347085911,2021-10-19_15h53.21.040,forced_choiceRT,2021.1.2,Win32,60.04563468,,,,,,,,,,,,,,,,,,,,,,
,0,h,1,0.8753,8,0,32,2,1,h.PNG,h,61452bbe86c21c0347085911,2021-10-19_15h53.21.040,forced_choiceRT,2021.1.2,Win32,60.04563468,,,,,,,,,,,,,,,,,,,,,,
,0,h,1,0.6264,8,1,33,2,1,h.PNG,h,61452bbe86c21c0347085911,2021-10-19_15h53.21.040,forced_choiceRT,2021.1.2,Win32,60.04563468,,,,,,,,,,,,,,,,,,,,,,
,0,j,1,1.1849,8,2,34,3,1,j.PNG,j,61452bbe86c21c0347085911,2021-10-19_15h53.21.040,forced_choiceRT,2021.1.2,Win32,60.04563468,,,,,,,,,,,,,,,,,,,,,,
,0,h,1,0.9335,8,3,35,2,1,h.PNG,h,61452bbe86c21c0347085911,2021-10-19_15h53.21.040,forced_choiceRT,2021.1.2,Win32,60.04563468,,,,,,,,,,,,,,,,,,,,,,
,0,f,1,1.1882,9,0,36,0,1,f.PNG,f,61452bbe86c21c0347085911,2021-10-19_15h53.21.040,forced_choiceRT,2021.1.2,Win32,60.04563468,,,,,,,,,,,,,,,,,,,,,,
,0,f,0,0.6689,9,1,37,2,1,h.PNG,h,61452bbe86c21c0347085911,2021-10-19_15h53.21.040,forced_choiceRT,2021.1.2,Win32,60.04563468,,,,,,,,,,,,,,,,,,,,,,
,0,f,1,1.0556,9,2,38,0,1,f.PNG,f,61452bbe86c21c0347085911,2021-10-19_15h53.21.040,forced_choiceRT,2021.1.2,Win32,60.04563468,,,,,,,,,,,,,,,,,,,,,,
,0,j,1,0.8944,9,3,39,3,1,j.PNG,j,61452bbe86c21c0347085911,2021-10-19_15h53.21.040,forced_choiceRT,2021.1.2,Win32,60.04563468,,,,,,,,,,,,,,,,,,,,,,
,0,g,1,1.1349,10,0,40,1,1,g.PNG,g,61452bbe86c21c0347085911,2021-10-19_15h53.21.040,forced_choiceRT,2021.1.2,Win32,60.04563468,,,,,,,,,,,,,,,,,,,,,,
,0,h,1,1.0215,10,1,41,2,1,h.PNG,h,61452bbe86c21c0347085911,2021-10-19_15h53.21.040,forced_choiceRT,2021.1.2,Win32,60.04563468,,,,,,,,,,,,,,,,,,,,,,
,0,j,1,1.2703,10,2,42,3,1,j.PNG,j,61452bbe86c21c0347085911,2021-10-19_15h53.21.040,forced_choiceRT,2021.1.2,Win32,60.04563468,,,,,,,,,,,,,,,,,,,,,,
,0,j,1,0.5549,10,3,43,3,1,j.PNG,j,61452bbe86c21c0347085911,2021-10-19_15h53.21.040,forced_choiceRT,2021.1.2,Win32,60.04563468,,,,,,,,,,,,,,,,,,,,,,
,0,j,1,0.4311,11,0,44,3,1,j.PNG,j,61452bbe86c21c0347085911,2021-10-19_15h53.21.040,forced_choiceRT,2021.1.2,Win32,60.04563468,,,,,,,,,,,,,,,,,,,,,,
,0,j,1,0.4233,11,1,45,3,1,j.PNG,j,61452bbe86c21c0347085911,2021-10-19_15h53.21.040,forced_choiceRT,2021.1.2,Win32,60.04563468,,,,,,,,,,,,,,,,,,,,,,
,0,g,1,1.2117,11,2,46,1,1,g.PNG,g,61452bbe86c21c0347085911,2021-10-19_15h53.21.040,forced_choiceRT,2021.1.2,Win32,60.04563468,,,,,,,,,,,,,,,,,,,,,,
,0,g,1,0.4619,11,3,47,1,1,g.PNG,g,61452bbe86c21c0347085911,2021-10-19_15h53.21.040,forced_choiceRT,2021.1.2,Win32,60.04563468,,,,,,,,,,,,,,,,,,,,,,
,0,h,1,0.598,12,0,48,2,1,h.PNG,h,61452bbe86c21c0347085911,2021-10-19_15h53.21.040,forced_choiceRT,2021.1.2,Win32,60.04563468,,,,,,,,,,,,,,,,,,,,,,
,0,f,1,0.498,12,1,49,0,1,f.PNG,f,61452bbe86c21c0347085911,2021-10-19_15h53.21.040,forced_choiceRT,2021.1.2,Win32,60.04563468,,,,,,,,,,,,,,,,,,,,,,
,0,j,1,0.7985,12,2,50,3,1,j.PNG,j,61452bbe86c21c0347085911,2021-10-19_15h53.21.040,forced_choiceRT,2021.1.2,Win32,60.04563468,,,,,,,,,,,,,,,,,,,,,,
,0,g,1,0.6573,12,3,51,1,1,g.PNG,g,61452bbe86c21c0347085911,2021-10-19_15h53.21.040,forced_choiceRT,2021.1.2,Win32,60.04563468,,,,,,,,,,,,,,,,,,,,,,
,0,g,1,0.5949,13,0,52,1,1,g.PNG,g,61452bbe86c21c0347085911,2021-10-19_15h53.21.040,forced_choiceRT,2021.1.2,Win32,60.04563468,,,,,,,,,,,,,,,,,,,,,,
,0,f,1,0.7152,13,1,53,0,1,f.PNG,f,61452bbe86c21c0347085911,2021-10-19_15h53.21.040,forced_choiceRT,2021.1.2,Win32,60.04563468,,,,,,,,,,,,,,,,,,,,,,
,0,g,1,0.7376,13,2,54,1,1,g.PNG,g,61452bbe86c21c0347085911,2021-10-19_15h53.21.040,forced_choiceRT,2021.1.2,Win32,60.04563468,,,,,,,,,,,,,,,,,,,,,,
,0,h,1,0.6026,13,3,55,2,1,h.PNG,h,61452bbe86c21c0347085911,2021-10-19_15h53.21.040,forced_choiceRT,2021.1.2,Win32,60.04563468,,,,,,,,,,,,,,,,,,,,,,
,0,j,1,0.9047,14,0,56,3,1,j.PNG,j,61452bbe86c21c0347085911,2021-10-19_15h53.21.040,forced_choiceRT,2021.1.2,Win32,60.04563468,,,,,,,,,,,,,,,,,,,,,,
,0,g,1,1.2231,14,1,57,1,1,g.PNG,g,61452bbe86c21c0347085911,2021-10-19_15h53.21.040,forced_choiceRT,2021.1.2,Win32,60.04563468,,,,,,,,,,,,,,,,,,,,,,
,0,f,1,0.654,14,2,58,0,1,f.PNG,f,61452bbe86c21c0347085911,2021-10-19_15h53.21.040,forced_choiceRT,2021.1.2,Win32,60.04563468,,,,,,,,,,,,,,,,,,,,,,
,0,j,1,0.6905,14,3,59,3,1,j.PNG,j,61452bbe86c21c0347085911,2021-10-19_15h53.21.040,forced_choiceRT,2021.1.2,Win32,60.04563468,,,,,,,,,,,,,,,,,,,,,,
,,,,,,,,,,,,61452bbe86c21c0347085911,2021-10-19_15h53.21.040,forced_choiceRT,2021.1.2,Win32,60.04563468,g,1.4683,0,0,0,0,1,,,,,,,,,,,,,,,
,,,,,,,,,,,,61452bbe86c21c0347085911,2021-10-19_15h53.21.040,forced_choiceRT,2021.1.2,Win32,60.04563468,g,2.3005,1,0,1,0,1,,,,,,,,,,,,,,,
,,,,,,,,,,,,61452bbe86c21c0347085911,2021-10-19_15h53.21.040,forced_choiceRT,2021.1.2,Win32,60.04563468,g,1.7782,2,0,2,0,1,,,,,,,,,,,,,,,
,,,,,,,,,,,,61452bbe86c21c0347085911,2021-10-19_15h53.21.040,forced_choiceRT,2021.1.2,Win32,60.04563468,j,2.1069,3,0,3,0,1,,,,,,,,,,,,,,,
,,,,,,,,,,,,61452bbe86c21c0347085911,2021-10-19_15h53.21.040,forced_choiceRT,2021.1.2,Win32,60.04563468,h,1.77,4,0,4,0,1,,,,,,,,,,,,,,,
,,,,,,,,,,,,61452bbe86c21c0347085911,2021-10-19_15h53.21.040,forced_choiceRT,2021.1.2,Win32,60.04563468,h,2.1206,5,0,5,0,1,,,,,,,,,,,,,,,
,,,,,,,,,,,,61452bbe86c21c0347085911,2021-10-19_15h53.21.040,forced_choiceRT,2021.1.2,Win32,60.04563468,h,2.0256,6,0,6,0,1,,,,,,,,,,,,,,,
,,,,,,,,,,,,61452bbe86c21c0347085911,2021-10-19_15h53.21.040,forced_choiceRT,2021.1.2,Win32,60.04563468,j,1.9809,7,0,7,0,1,,,,,,,,,,,,,,,
,,,,,,,,,,,,61452bbe86c21c0347085911,2021-10-19_15h53.21.040,forced_choiceRT,2021.1.2,Win32,60.04563468,h,2.0315,8,0,8,0,1,,,,,,,,,,,,,,,
,,,,,,,,,,,,61452bbe86c21c0347085911,2021-10-19_15h53.21.040,forced_choiceRT,2021.1.2,Win32,60.04563468,g,1.9554,9,0,9,0,1,,,,,,,,,,,,,,,
,,,,,,,,,,,,61452bbe86c21c0347085911,2021-10-19_15h53.21.040,forced_choiceRT,2021.1.2,Win32,60.04563468,g,1.9808,10,0,10,0,1,,,,,,,,,,,,,,,
,,,,,,,,,,,,61452bbe86c21c0347085911,2021-10-19_15h53.21.040,forced_choiceRT,2021.1.2,Win32,60.04563468,f,2.2764,11,0,11,0,1,,,,,,,,,,,,,,,
,,,,,,,,,,,,61452bbe86c21c0347085911,2021-10-19_15h53.21.040,forced_choiceRT,2021.1.2,Win32,60.04563468,j,2.0273,12,0,12,0,1,,,,,,,,,,,,,,,
,,,,,,,,,,,,61452bbe86c21c0347085911,2021-10-19_15h53.21.040,forced_choiceRT,2021.1.2,Win32,60.04563468,f,1.8662,13,0,13,0,1,,,,,,,,,,,,,,,
,,,,,,,,,,,,61452bbe86c21c0347085911,2021-10-19_15h53.21.040,forced_choiceRT,2021.1.2,Win32,60.04563468,f,2.0328,14,0,14,0,1,,,,,,,,,,,,,,,
,,,,,,,,,,,,61452bbe86c21c0347085911,2021-10-19_15h53.21.040,forced_choiceRT,2021.1.2,Win32,60.04563468,j,1.9987,15,0,15,0,1,,,,,,,,,,,,,,,
,,,,,,,,,,,,61452bbe86c21c0347085911,2021-10-19_15h53.21.040,forced_choiceRT,2021.1.2,Win32,60.04563468,j,1.9986,16,0,16,0,1,,,,,,,,,,,,,,,
,,,,,,,,,,,,61452bbe86c21c0347085911,2021-10-19_15h53.21.040,forced_choiceRT,2021.1.2,Win32,60.04563468,j,1.877,17,0,17,0,1,,,,,,,,,,,,,,,
,,,,,,,,,,,,61452bbe86c21c0347085911,2021-10-19_15h53.21.040,forced_choiceRT,2021.1.2,Win32,60.04563468,f,2.0767,18,0,18,0,1,,,,,,,,,,,,,,,
,,,,,,,,,,,,61452bbe86c21c0347085911,2021-10-19_15h53.21.040,forced_choiceRT,2021.1.2,Win32,60.04563468,g,2.0843,19,0,19,0,1,,,,,,,,,,,,,,,
,0.38,,,,,,,,,g.PNG,g,61452bbe86c21c0347085911,2021-10-19_15h53.21.040,forced_choiceRT,2021.1.2,Win32,60.04563468,,,,,,,,1,Ontime,j,0,2.0326,0,0,0,1,1,,,,,
,1.26,,,,,,,,,h.PNG,h,61452bbe86c21c0347085911,2021-10-19_15h53.21.040,forced_choiceRT,2021.1.2,Win32,60.04563468,,,,,,,,1,Slow,f,0,2.179,0,1,1,2,1,,,,,
,1.85,,,,,,,,,f.PNG,f,61452bbe86c21c0347085911,2021-10-19_15h53.21.040,forced_choiceRT,2021.1.2,Win32,60.04563468,,,,,,,,1,Ontime,g,0,2.0854,0,2,2,0,1,,,,,
,1.74,,,,,,,,,f.PNG,f,61452bbe86c21c0347085911,2021-10-19_15h53.21.040,forced_choiceRT,2021.1.2,Win32,60.04563468,,,,,,,,1,Slow,f,1,2.1842,0,3,3,0,1,,,,,
,0.42,,,,,,,,,g.PNG,g,61452bbe86c21c0347085911,2021-10-19_15h53.21.040,forced_choiceRT,2021.1.2,Win32,60.04563468,,,,,,,,1,Ontime,g,1,1.9999,1,0,4,1,1,,,,,
,1.68,,,,,,,,,j.PNG,j,61452bbe86c21c0347085911,2021-10-19_15h53.21.040,forced_choiceRT,2021.1.2,Win32,60.04563468,,,,,,,,1,Slow,j,1,2.317,1,1,5,3,1,,,,,
,0.37,,,,,,,,,f.PNG,f,61452bbe86c21c0347085911,2021-10-19_15h53.21.040,forced_choiceRT,2021.1.2,Win32,60.04563468,,,,,,,,1,Fast,f,1,1.8255,1,2,6,0,1,,,,,
,1.02,,,,,,,,,g.PNG,g,61452bbe86c21c0347085911,2021-10-19_15h53.21.040,forced_choiceRT,2021.1.2,Win32,60.04563468,,,,,,,,1,Slow,h,0,2.1244,1,3,7,1,1,,,,,
,1.04,,,,,,,,,h.PNG,h,61452bbe86c21c0347085911,2021-10-19_15h53.21.040,forced_choiceRT,2021.1.2,Win32,60.04563468,,,,,,,,1,Ontime,h,1,2.0594,2,0,8,2,1,,,,,
,0.48,,,,,,,,,f.PNG,f,61452bbe86c21c0347085911,2021-10-19_15h53.21.040,forced_choiceRT,2021.1.2,Win32,60.04563468,,,,,,,,1,Ontime,f,1,1.9867,2,1,9,0,1,,,,,
,1.89,,,,,,,,,f.PNG,f,61452bbe86c21c0347085911,2021-10-19_15h53.21.040,forced_choiceRT,2021.1.2,Win32,60.04563468,,,,,,,,1,Slow,g,0,2.473,2,2,10,0,1,,,,,
,0.77,,,,,,,,,g.PNG,g,61452bbe86c21c0347085911,2021-10-19_15h53.21.040,forced_choiceRT,2021.1.2,Win32,60.04563468,,,,,,,,1,Slow,g,1,2.2162,2,3,11,1,1,,,,,
,0.77,,,,,,,,,g.PNG,g,61452bbe86c21c0347085911,2021-10-19_15h53.21.040,forced_choiceRT,2021.1.2,Win32,60.04563468,,,,,,,,1,Ontime,g,1,2.053,3,0,12,1,1,,,,,
,1.62,,,,,,,,,j.PNG,j,61452bbe86c21c0347085911,2021-10-19_15h53.21.040,forced_choiceRT,2021.1.2,Win32,60.04563468,,,,,,,,1,Slow,j,1,2.3336,3,1,13,3,1,,,,,
,1.28,,,,,,,,,j.PNG,j,61452bbe86c21c0347085911,2021-10-19_15h53.21.040,forced_choiceRT,2021.1.2,Win32,60.04563468,,,,,,,,1,Slow,h,0,2.1057,3,2,14,3,1,,,,,
,1.78,,,,,,,,,h.PNG,h,61452bbe86c21c0347085911,2021-10-19_15h53.21.040,forced_choiceRT,2021.1.2,Win32,60.04563468,,,,,,,,1,Slow,j,0,2.4552,3,3,15,2,1,,,,,
,1.19,,,,,,,,,j.PNG,j,61452bbe86c21c0347085911,2021-10-19_15h53.21.040,forced_choiceRT,2021.1.2,Win32,60.04563468,,,,,,,,1,Fast,h,0,1.8393,4,0,16,3,1,,,,,
,1.9,,,,,,,,,f.PNG,f,61452bbe86c21c0347085911,2021-10-19_15h53.21.040,forced_choiceRT,2021.1.2,Win32,60.04563468,,,,,,,,1,Slow,f,1,2.3713,4,1,17,0,1,,,,,
,1.29,,,,,,,,,j.PNG,j,61452bbe86c21c0347085911,2021-10-19_15h53.21.040,forced_choiceRT,2021.1.2,Win32,60.04563468,,,,,,,,1,Slow,j,1,2.1324,4,2,18,3,1,,,,,
,1.81,,,,,,,,,h.PNG,h,61452bbe86c21c0347085911,2021-10-19_15h53.21.040,forced_choiceRT,2021.1.2,Win32,60.04563468,,,,,,,,1,Ontime,h,1,2.0674,4,3,19,2,1,,,,,
,0.29,,,,,,,,,f.PNG,f,61452bbe86c21c0347085911,2021-10-19_15h53.21.040,forced_choiceRT,2021.1.2,Win32,60.04563468,,,,,,,,1,Fast,f,1,1.2329,5,0,20,0,1,,,,,
,1.02,,,,,,,,,g.PNG,g,61452bbe86c21c0347085911,2021-10-19_15h53.21.040,forced_choiceRT,2021.1.2,Win32,60.04563468,,,,,,,,1,Slow,g,1,2.1037,5,1,21,1,1,,,,,
,0.52,,,,,,,,,g.PNG,g,61452bbe86c21c0347085911,2021-10-19_15h53.21.040,forced_choiceRT,2021.1.2,Win32,60.04563468,,,,,,,,1,Ontime,g,1,2.0161,5,2,22,1,1,,,,,
,0.01,,,,,,,,,g.PNG,g,61452bbe86c21c0347085911,2021-10-19_15h53.21.040,forced_choiceRT,2021.1.2,Win32,60.04563468,,,,,,,,1,Ontime,g,1,1.9605,5,3,23,1,1,,,,,
,1.21,,,,,,,,,f.PNG,f,61452bbe86c21c0347085911,2021-10-19_15h53.21.040,forced_choiceRT,2021.1.2,Win32,60.04563468,,,,,,,,1,Fast,f,1,1.8663,6,0,24,0,1,,,,,
,0.03,,,,,,,,,g.PNG,g,61452bbe86c21c0347085911,2021-10-19_15h53.21.040,forced_choiceRT,2021.1.2,Win32,60.04563468,,,,,,,,1,Ontime,g,1,1.9999,6,1,25,1,1,,,,,
,0.69,,,,,,,,,f.PNG,f,61452bbe86c21c0347085911,2021-10-19_15h53.21.040,forced_choiceRT,2021.1.2,Win32,60.04563468,,,,,,,,1,Ontime,f,1,2.0559,6,2,26,0,1,,,,,
,0.54,,,,,,,,,h.PNG,h,61452bbe86c21c0347085911,2021-10-19_15h53.21.040,forced_choiceRT,2021.1.2,Win32,60.04563468,,,,,,,,1,Ontime,h,1,2.0497,6,3,27,2,1,,,,,
,0.15,,,,,,,,,j.PNG,j,61452bbe86c21c0347085911,2021-10-19_15h53.21.040,forced_choiceRT,2021.1.2,Win32,60.04563468,,,,,,,,1,Ontime,j,1,2.0517,7,0,28,3,1,,,,,
,1.71,,,,,,,,,h.PNG,h,61452bbe86c21c0347085911,2021-10-19_15h53.21.040,forced_choiceRT,2021.1.2,Win32,60.04563468,,,,,,,,1,Slow,h,1,2.3159,7,1,29,2,1,,,,,
,0.82,,,,,,,,,j.PNG,j,61452bbe86c21c0347085911,2021-10-19_15h53.21.040,forced_choiceRT,2021.1.2,Win32,60.04563468,,,,,,,,1,Ontime,j,1,2.0054,7,2,30,3,1,,,,,
,1.49,,,,,,,,,h.PNG,h,61452bbe86c21c0347085911,2021-10-19_15h53.21.040,forced_choiceRT,2021.1.2,Win32,60.04563468,,,,,,,,1,Slow,g,0,2.216,7,3,31,2,1,,,,,
,1.24,,,,,,,,,h.PNG,h,61452bbe86c21c0347085911,2021-10-19_15h53.21.040,forced_choiceRT,2021.1.2,Win32,60.04563468,,,,,,,,1,Slow,h,1,2.1723,8,0,32,2,1,,,,,
,0.3,,,,,,,,,f.PNG,f,61452bbe86c21c0347085911,2021-10-19_15h53.21.040,forced_choiceRT,2021.1.2,Win32,60.04563468,,,,,,,,1,Ontime,f,1,2.0236,8,1,33,0,1,,,,,
,1.52,,,,,,,,,g.PNG,g,61452bbe86c21c0347085911,2021-10-19_15h53.21.040,forced_choiceRT,2021.1.2,Win32,60.04563468,,,,,,,,1,Slow,g,1,2.2333,8,2,34,1,1,,,,,
,0.93,,,,,,,,,h.PNG,h,61452bbe86c21c0347085911,2021-10-19_15h53.21.040,forced_choiceRT,2021.1.2,Win32,60.04563468,,,,,,,,1,Ontime,h,1,2.0843,8,3,35,2,1,,,,,
,0.09,,,,,,,,,j.PNG,j,61452bbe86c21c0347085911,2021-10-19_15h53.21.040,forced_choiceRT,2021.1.2,Win32,60.04563468,,,,,,,,1,Fast,j,1,1.7549,9,0,36,3,1,,,,,
,0.1,,,,,,,,,h.PNG,h,61452bbe86c21c0347085911,2021-10-19_15h53.21.040,forced_choiceRT,2021.1.2,Win32,60.04563468,,,,,,,,1,Fast,h,1,1.8259,9,1,37,2,1,,,,,
,1.59,,,,,,,,,j.PNG,j,61452bbe86c21c0347085911,2021-10-19_15h53.21.040,forced_choiceRT,2021.1.2,Win32,60.04563468,,,,,,,,1,Slow,j,1,2.3494,9,2,38,3,1,,,,,
,0.12,,,,,,,,,j.PNG,j,61452bbe86c21c0347085911,2021-10-19_15h53.21.040,forced_choiceRT,2021.1.2,Win32,60.04563468,,,,,,,,1,Ontime,j,1,1.9533,9,3,39,3,1,,,,,
,,,,,,,,,,,,61452bbe86c21c0347085911,2021-10-19_15h53.21.040,forced_choiceRT,2021.1.2,Win32,60.04563468,,,,,,,,,,,,,,,,,,0,0,0,0,1
,1.44,,,,,,,,,f.PNG,f,61452bbe86c21c0347085911,2021-10-19_15h53.21.040,forced_choiceRT,2021.1.2,Win32,60.04563468,,,,,,,,2,Slow,f,1,2.1901,0,0,0,0,1,,,,,
,1.15,,,,,,,,,f.PNG,f,61452bbe86c21c0347085911,2021-10-19_15h53.21.040,forced_choiceRT,2021.1.2,Win32,60.04563468,,,,,,,,2,Fast,f,1,1.8995,0,1,1,0,1,,,,,
,1.88,,,,,,,,,h.PNG,h,61452bbe86c21c0347085911,2021-10-19_15h53.21.040,forced_choiceRT,2021.1.2,Win32,60.04563468,,,,,,,,2,Slow,h,1,2.3998,0,2,2,2,1,,,,,
,1.13,,,,,,,,,g.PNG,g,61452bbe86c21c0347085911,2021-10-19_15h53.21.040,forced_choiceRT,2021.1.2,Win32,60.04563468,,,,,,,,2,Ontime,g,1,2.0399,0,3,3,1,1,,,,,
,1.67,,,,,,,,,g.PNG,g,61452bbe86c21c0347085911,2021-10-19_15h53.21.040,forced_choiceRT,2021.1.2,Win32,60.04563468,,,,,,,,2,Slow,g,1,2.2558,1,0,4,1,1,,,,,
,0.23,,,,,,,,,f.PNG,f,61452bbe86c21c0347085911,2021-10-19_15h53.21.040,forced_choiceRT,2021.1.2,Win32,60.04563468,,,,,,,,2,Ontime,f,1,2.0366,1,1,5,0,1,,,,,
,0.68,,,,,,,,,h.PNG,h,61452bbe86c21c0347085911,2021-10-19_15h53.21.040,forced_choiceRT,2021.1.2,Win32,60.04563468,,,,,,,,2,Fast,h,1,1.5187,1,2,6,2,1,,,,,
,0.63,,,,,,,,,j.PNG,j,61452bbe86c21c0347085911,2021-10-19_15h53.21.040,forced_choiceRT,2021.1.2,Win32,60.04563468,,,,,,,,2,Ontime,j,1,2.0163,1,3,7,3,1,,,,,
,0.17,,,,,,,,,f.PNG,f,61452bbe86c21c0347085911,2021-10-19_15h53.21.040,forced_choiceRT,2021.1.2,Win32,60.04563468,,,,,,,,2,Ontime,f,1,2.0407,2,0,8,0,1,,,,,
,0.02,,,,,,,,,h.PNG,h,61452bbe86c21c0347085911,2021-10-19_15h53.21.040,forced_choiceRT,2021.1.2,Win32,60.04563468,,,,,,,,2,Ontime,h,1,2.0103,2,1,9,2,1,,,,,
,0.86,,,,,,,,,g.PNG,g,61452bbe86c21c0347085911,2021-10-19_15h53.21.040,forced_choiceRT,2021.1.2,Win32,60.04563468,,,,,,,,2,Ontime,g,1,2.0995,2,2,10,1,1,,,,,
,0.61,,,,,,,,,g.PNG,g,61452bbe86c21c0347085911,2021-10-19_15h53.21.040,forced_choiceRT,2021.1.2,Win32,60.04563468,,,,,,,,2,Ontime,g,1,2.0835,2,3,11,1,1,,,,,
,0.38,,,,,,,,,j.PNG,j,61452bbe86c21c0347085911,2021-10-19_15h53.21.040,forced_choiceRT,2021.1.2,Win32,60.04563468,,,,,,,,2,Slow,j,1,2.1328,3,0,12,3,1,,,,,
,0.11,,,,,,,,,h.PNG,h,61452bbe86c21c0347085911,2021-10-19_15h53.21.040,forced_choiceRT,2021.1.2,Win32,60.04563468,,,,,,,,2,Ontime,h,1,2.0417,3,1,13,2,1,,,,,
,1.19,,,,,,,,,g.PNG,g,61452bbe86c21c0347085911,2021-10-19_15h53.21.040,forced_choiceRT,2021.1.2,Win32,60.04563468,,,,,,,,2,Slow,g,1,2.1346,3,2,14,1,1,,,,,
,0.74,,,,,,,,,h.PNG,h,61452bbe86c21c0347085911,2021-10-19_15h53.21.040,forced_choiceRT,2021.1.2,Win32,60.04563468,,,,,,,,2,Fast,h,1,1.8168,3,3,15,2,1,,,,,
,0.12,,,,,,,,,f.PNG,f,61452bbe86c21c0347085911,2021-10-19_15h53.21.040,forced_choiceRT,2021.1.2,Win32,60.04563468,,,,,,,,2,Ontime,f,1,2.0079,4,0,16,0,1,,,,,
,1.27,,,,,,,,,f.PNG,f,61452bbe86c21c0347085911,2021-10-19_15h53.21.040,forced_choiceRT,2021.1.2,Win32,60.04563468,,,,,,,,2,Slow,f,1,2.1661,4,1,17,0,1,,,,,
,0.39,,,,,,,,,j.PNG,j,61452bbe86c21c0347085911,2021-10-19_15h53.21.040,forced_choiceRT,2021.1.2,Win32,60.04563468,,,,,,,,2,Ontime,j,1,1.957,4,2,18,3,1,,,,,
,1.98,,,,,,,,,f.PNG,f,61452bbe86c21c0347085911,2021-10-19_15h53.21.040,forced_choiceRT,2021.1.2,Win32,60.04563468,,,,,,,,2,Slow,f,1,2.4592,4,3,19,0,1,,,,,
,0.96,,,,,,,,,g.PNG,g,61452bbe86c21c0347085911,2021-10-19_15h53.21.040,forced_choiceRT,2021.1.2,Win32,60.04563468,,,,,,,,2,Fast,g,1,1.6693,5,0,20,1,1,,,,,
,1.41,,,,,,,,,g.PNG,g,61452bbe86c21c0347085911,2021-10-19_15h53.21.040,forced_choiceRT,2021.1.2,Win32,60.04563468,,,,,,,,2,Slow,g,1,2.216,5,1,21,1,1,,,,,
,1.83,,,,,,,,,j.PNG,j,61452bbe86c21c0347085911,2021-10-19_15h53.21.040,forced_choiceRT,2021.1.2,Win32,60.04563468,,,,,,,,2,Slow,f,0,2.2729,5,2,22,3,1,,,,,
,1.95,,,,,,,,,j.PNG,j,61452bbe86c21c0347085911,2021-10-19_15h53.21.040,forced_choiceRT,2021.1.2,Win32,60.04563468,,,,,,,,2,Ontime,j,1,2.0068,5,3,23,3,1,,,,,
,0.38,,,,,,,,,g.PNG,g,61452bbe86c21c0347085911,2021-10-19_15h53.21.040,forced_choiceRT,2021.1.2,Win32,60.04563468,,,,,,,,2,Fast,g,1,1.8497,6,0,24,1,1,,,,,
,1.58,,,,,,,,,f.PNG,f,61452bbe86c21c0347085911,2021-10-19_15h53.21.040,forced_choiceRT,2021.1.2,Win32,60.04563468,,,,,,,,2,Ontime,j,0,1.9427,6,1,25,0,1,,,,,
,1.86,,,,,,,,,j.PNG,j,61452bbe86c21c0347085911,2021-10-19_15h53.21.040,forced_choiceRT,2021.1.2,Win32,60.04563468,,,,,,,,2,Ontime,f,0,2.0355,6,2,26,3,1,,,,,
,0.98,,,,,,,,,j.PNG,j,61452bbe86c21c0347085911,2021-10-19_15h53.21.040,forced_choiceRT,2021.1.2,Win32,60.04563468,,,,,,,,2,Ontime,j,1,1.9996,6,3,27,3,1,,,,,
,1.2,,,,,,,,,h.PNG,h,61452bbe86c21c0347085911,2021-10-19_15h53.21.040,forced_choiceRT,2021.1.2,Win32,60.04563468,,,,,,,,2,Slow,h,1,2.2249,7,0,28,2,1,,,,,
,1.26,,,,,,,,,f.PNG,f,61452bbe86c21c0347085911,2021-10-19_15h53.21.040,forced_choiceRT,2021.1.2,Win32,60.04563468,,,,,,,,2,Slow,f,1,2.1319,7,1,29,0,1,,,,,
,1.89,,,,,,,,,j.PNG,j,61452bbe86c21c0347085911,2021-10-19_15h53.21.040,forced_choiceRT,2021.1.2,Win32,60.04563468,,,,,,,,2,Ontime,j,1,2.0261,7,2,30,3,1,,,,,
,0.16,,,,,,,,,g.PNG,g,61452bbe86c21c0347085911,2021-10-19_15h53.21.040,forced_choiceRT,2021.1.2,Win32,60.04563468,,,,,,,,2,Fast,g,1,1.8239,7,3,31,1,1,,,,,
,1.25,,,,,,,,,h.PNG,h,61452bbe86c21c0347085911,2021-10-19_15h53.21.040,forced_choiceRT,2021.1.2,Win32,60.04563468,,,,,,,,2,Fast,h,1,1.8498,8,0,32,2,1,,,,,
,0.63,,,,,,,,,g.PNG,g,61452bbe86c21c0347085911,2021-10-19_15h53.21.040,forced_choiceRT,2021.1.2,Win32,60.04563468,,,,,,,,2,Ontime,g,1,2.0714,8,1,33,1,1,,,,,
,1.38,,,,,,,,,h.PNG,h,61452bbe86c21c0347085911,2021-10-19_15h53.21.040,forced_choiceRT,2021.1.2,Win32,60.04563468,,,,,,,,2,Slow,h,1,2.1071,8,2,34,2,1,,,,,
,0.05,,,,,,,,,f.PNG,f,61452bbe86c21c0347085911,2021-10-19_15h53.21.040,forced_choiceRT,2021.1.2,Win32,60.04563468,,,,,,,,2,Ontime,f,1,2.0419,8,3,35,0,1,,,,,
,1.14,,,,,,,,,h.PNG,h,61452bbe86c21c0347085911,2021-10-19_15h53.21.040,forced_choiceRT,2021.1.2,Win32,60.04563468,,,,,,,,2,Ontime,h,1,2.0504,9,0,36,2,1,,,,,
,1.61,,,,,,,,,h.PNG,h,61452bbe86c21c0347085911,2021-10-19_15h53.21.040,forced_choiceRT,2021.1.2,Win32,60.04563468,,,,,,,,2,Slow,h,1,2.2175,9,1,37,2,1,,,,,
,0.58,,,,,,,,,j.PNG,j,61452bbe86c21c0347085911,2021-10-19_15h53.21.040,forced_choiceRT,2021.1.2,Win32,60.04563468,,,,,,,,2,Fast,j,1,1.8731,9,2,38,3,1,,,,,
,0.03,,,,,,,,,j.PNG,j,61452bbe86c21c0347085911,2021-10-19_15h53.21.040,forced_choiceRT,2021.1.2,Win32,60.04563468,,,,,,,,2,Ontime,j,1,2.0738,9,3,39,3,1,,,,,
,,,,,,,,,,,,61452bbe86c21c0347085911,2021-10-19_15h53.21.040,forced_choiceRT,2021.1.2,Win32,60.04563468,,,,,,,,,,,,,,,,,,1,0,1,0,1
,0.4,,,,,,,,,g.PNG,g,61452bbe86c21c0347085911,2021-10-19_15h53.21.040,forced_choiceRT,2021.1.2,Win32,60.04563468,,,,,,,,3,Ontime,g,1,1.9667,0,0,0,1,1,,,,,
,1.05,,,,,,,,,j.PNG,j,61452bbe86c21c0347085911,2021-10-19_15h53.21.040,forced_choiceRT,2021.1.2,Win32,60.04563468,,,,,,,,3,Ontime,j,1,2.0574,0,1,1,3,1,,,,,
,1.33,,,,,,,,,j.PNG,j,61452bbe86c21c0347085911,2021-10-19_15h53.21.040,forced_choiceRT,2021.1.2,Win32,60.04563468,,,,,,,,3,Ontime,j,1,2.0826,0,2,2,3,1,,,,,
,1.04,,,,,,,,,h.PNG,h,61452bbe86c21c0347085911,2021-10-19_15h53.21.040,forced_choiceRT,2021.1.2,Win32,60.04563468,,,,,,,,3,Ontime,h,1,2.0056,0,3,3,2,1,,,,,
,1.36,,,,,,,,,g.PNG,g,61452bbe86c21c0347085911,2021-10-19_15h53.21.040,forced_choiceRT,2021.1.2,Win32,60.04563468,,,,,,,,3,Slow,g,1,2.1328,1,0,4,1,1,,,,,
,0.57,,,,,,,,,h.PNG,h,61452bbe86c21c0347085911,2021-10-19_15h53.21.040,forced_choiceRT,2021.1.2,Win32,60.04563468,,,,,,,,3,Ontime,h,1,1.9436,1,1,5,2,1,,,,,
,1.19,,,,,,,,,g.PNG,g,61452bbe86c21c0347085911,2021-10-19_15h53.21.040,forced_choiceRT,2021.1.2,Win32,60.04563468,,,,,,,,3,Ontime,g,1,1.9372,1,2,6,1,1,,,,,
,0.08,,,,,,,,,f.PNG,f,61452bbe86c21c0347085911,2021-10-19_15h53.21.040,forced_choiceRT,2021.1.2,Win32,60.04563468,,,,,,,,3,Fast,f,1,1.8494,1,3,7,0,1,,,,,
,0.02,,,,,,,,,g.PNG,g,61452bbe86c21c0347085911,2021-10-19_15h53.21.040,forced_choiceRT,2021.1.2,Win32,60.04563468,,,,,,,,3,Ontime,g,1,1.9862,2,0,8,1,1,,,,,
,1.21,,,,,,,,,j.PNG,j,61452bbe86c21c0347085911,2021-10-19_15h53.21.040,forced_choiceRT,2021.1.2,Win32,60.04563468,,,,,,,,3,Ontime,j,1,2.0583,2,1,9,3,1,,,,,
,0.8,,,,,,,,,h.PNG,h,61452bbe86c21c0347085911,2021-10-19_15h53.21.040,forced_choiceRT,2021.1.2,Win32,60.04563468,,,,,,,,3,Ontime,h,1,1.95,2,2,10,2,1,,,,,
,1.03,,,,,,,,,j.PNG,j,61452bbe86c21c0347085911,2021-10-19_15h53.21.040,forced_choiceRT,2021.1.2,Win32,60.04563468,,,,,,,,3,Ontime,j,1,1.9497,2,3,11,3,1,,,,,
,1.9,,,,,,,,,f.PNG,f,61452bbe86c21c0347085911,2021-10-19_15h53.21.040,forced_choiceRT,2021.1.2,Win32,60.04563468,,,,,,,,3,Slow,f,1,2.1177,3,0,12,0,1,,,,,
,1.22,,,,,,,,,f.PNG,f,61452bbe86c21c0347085911,2021-10-19_15h53.21.040,forced_choiceRT,2021.1.2,Win32,60.04563468,,,,,,,,3,Ontime,f,1,2.0742,3,1,13,0,1,,,,,
,1.43,,,,,,,,,j.PNG,j,61452bbe86c21c0347085911,2021-10-19_15h53.21.040,forced_choiceRT,2021.1.2,Win32,60.04563468,,,,,,,,3,Ontime,j,1,1.9579,3,2,14,3,1,,,,,
,0.57,,,,,,,,,g.PNG,g,61452bbe86c21c0347085911,2021-10-19_15h53.21.040,forced_choiceRT,2021.1.2,Win32,60.04563468,,,,,,,,3,Ontime,g,1,1.9338,3,3,15,1,1,,,,,
,1.38,,,,,,,,,f.PNG,f,61452bbe86c21c0347085911,2021-10-19_15h53.21.040,forced_choiceRT,2021.1.2,Win32,60.04563468,,,,,,,,3,Ontime,f,1,1.9566,4,0,16,0,1,,,,,
,1.05,,,,,,,,,j.PNG,j,61452bbe86c21c0347085911,2021-10-19_15h53.21.040,forced_choiceRT,2021.1.2,Win32,60.04563468,,,,,,,,3,Fast,j,1,1.8331,4,1,17,3,1,,,,,
,0.45,,,,,,,,,j.PNG,j,61452bbe86c21c0347085911,2021-10-19_15h53.21.040,forced_choiceRT,2021.1.2,Win32,60.04563468,,,,,,,,3,Fast,j,1,1.7865,4,2,18,3,1,,,,,
,1.12,,,,,,,,,j.PNG,j,61452bbe86c21c0347085911,2021-10-19_15h53.21.040,forced_choiceRT,2021.1.2,Win32,60.04563468,,,,,,,,3,Fast,j,1,1.833,4,3,19,3,1,,,,,
,0.17,,,,,,,,,f.PNG,f,61452bbe86c21c0347085911,2021-10-19_15h53.21.040,forced_choiceRT,2021.1.2,Win32,60.04563468,,,,,,,,3,Slow,f,1,2.109,5,0,20,0,1,,,,,
,0.02,,,,,,,,,h.PNG,h,61452bbe86c21c0347085911,2021-10-19_15h53.21.040,forced_choiceRT,2021.1.2,Win32,60.04563468,,,,,,,,3,Ontime,h,1,2.0243,5,1,21,2,1,,,,,
,0.93,,,,,,,,,g.PNG,g,61452bbe86c21c0347085911,2021-10-19_15h53.21.040,forced_choiceRT,2021.1.2,Win32,60.04563468,,,,,,,,3,Ontime,g,1,1.9711,5,2,22,1,1,,,,,
,1.83,,,,,,,,,j.PNG,j,61452bbe86c21c0347085911,2021-10-19_15h53.21.040,forced_choiceRT,2021.1.2,Win32,60.04563468,,,,,,,,3,Slow,f,0,2.3329,5,3,23,3,1,,,,,
,0.53,,,,,,,,,h.PNG,h,61452bbe86c21c0347085911,2021-10-19_15h53.21.040,forced_choiceRT,2021.1.2,Win32,60.04563468,,,,,,,,3,Ontime,g,0,2.0023,6,0,24,2,1,,,,,
,0.89,,,,,,,,,h.PNG,h,61452bbe86c21c0347085911,2021-10-19_15h53.21.040,forced_choiceRT,2021.1.2,Win32,60.04563468,,,,,,,,3,Slow,g,0,2.1251,6,1,25,2,1,,,,,
,0.74,,,,,,,,,h.PNG,h,61452bbe86c21c0347085911,2021-10-19_15h53.21.040,forced_choiceRT,2021.1.2,Win32,60.04563468,,,,,,,,3,Slow,h,1,2.2161,6,2,26,2,1,,,,,
,1.28,,,,,,,,,f.PNG,f,61452bbe86c21c0347085911,2021-10-19_15h53.21.040,forced_choiceRT,2021.1.2,Win32,60.04563468,,,,,,,,3,Fast,f,1,1.8157,6,3,27,0,1,,,,,
,0.11,,,,,,,,,g.PNG,g,61452bbe86c21c0347085911,2021-10-19_15h53.21.040,forced_choiceRT,2021.1.2,Win32,60.04563468,,,,,,,,3,Fast,g,1,1.7337,7,0,28,1,1,,,,,
,1.65,,,,,,,,,f.PNG,f,61452bbe86c21c0347085911,2021-10-19_15h53.21.040,forced_choiceRT,2021.1.2,Win32,60.04563468,,,,,,,,3,Slow,f,1,2.2495,7,1,29,0,1,,,,,
,1.74,,,,,,,,,g.PNG,g,61452bbe86c21c0347085911,2021-10-19_15h53.21.040,forced_choiceRT,2021.1.2,Win32,60.04563468,,,,,,,,3,Slow,j,0,2.1997,7,2,30,1,1,,,,,
,0.78,,,,,,,,,g.PNG,g,61452bbe86c21c0347085911,2021-10-19_15h53.21.040,forced_choiceRT,2021.1.2,Win32,60.04563468,,,,,,,,3,Ontime,g,1,1.933,7,3,31,1,1,,,,,
,0.35,,,,,,,,,f.PNG,f,61452bbe86c21c0347085911,2021-10-19_15h53.21.040,forced_choiceRT,2021.1.2,Win32,60.04563468,,,,,,,,3,Ontime,f,1,1.9731,8,0,32,0,1,,,,,
,0.12,,,,,,,,,h.PNG,h,61452bbe86c21c0347085911,2021-10-19_15h53.21.040,forced_choiceRT,2021.1.2,Win32,60.04563468,,,,,,,,3,Ontime,h,1,1.9996,8,1,33,2,1,,,,,
,1.91,,,,,,,,,h.PNG,h,61452bbe86c21c0347085911,2021-10-19_15h53.21.040,forced_choiceRT,2021.1.2,Win32,60.04563468,,,,,,,,3,Slow,f,0,2.1919,8,2,34,2,1,,,,,
,1.06,,,,,,,,,f.PNG,f,61452bbe86c21c0347085911,2021-10-19_15h53.21.040,forced_choiceRT,2021.1.2,Win32,60.04563468,,,,,,,,3,Ontime,f,1,1.9998,8,3,35,0,1,,,,,
,0.45,,,,,,,,,h.PNG,h,61452bbe86c21c0347085911,2021-10-19_15h53.21.040,forced_choiceRT,2021.1.2,Win32,60.04563468,,,,,,,,3,Ontime,h,1,1.9834,9,0,36,2,1,,,,,
,1.12,,,,,,,,,g.PNG,g,61452bbe86c21c0347085911,2021-10-19_15h53.21.040,forced_choiceRT,2021.1.2,Win32,60.04563468,,,,,,,,3,Ontime,g,1,2.019,9,1,37,1,1,,,,,
,0.57,,,,,,,,,f.PNG,f,61452bbe86c21c0347085911,2021-10-19_15h53.21.040,forced_choiceRT,2021.1.2,Win32,60.04563468,,,,,,,,3,Ontime,f,1,2.0938,9,2,38,0,1,,,,,
,1.17,,,,,,,,,j.PNG,j,61452bbe86c21c0347085911,2021-10-19_15h53.21.040,forced_choiceRT,2021.1.2,Win32,60.04563468,,,,,,,,3,Ontime,j,1,2.0911,9,3,39,3,1,,,,,
,,,,,,,,,,,,61452bbe86c21c0347085911,2021-10-19_15h53.21.040,forced_choiceRT,2021.1.2,Win32,60.04563468,,,,,,,,,,,,,,,,,,2,0,2,0,1
,0.14,,,,,,,,,g.PNG,g,61452bbe86c21c0347085911,2021-10-19_15h53.21.040,forced_choiceRT,2021.1.2,Win32,60.04563468,,,,,,,,4,Fast,g,1,1.672,0,0,0,1,1,,,,,
,1.34,,,,,,,,,h.PNG,h,61452bbe86c21c0347085911,2021-10-19_15h53.21.040,forced_choiceRT,2021.1.2,Win32,60.04563468,,,,,,,,4,Slow,h,1,2.1831,0,1,1,2,1,,,,,
,0.64,,,,,,,,,j.PNG,j,61452bbe86c21c0347085911,2021-10-19_15h53.21.040,forced_choiceRT,2021.1.2,Win32,60.04563468,,,,,,,,4,Ontime,j,1,1.9584,0,2,2,3,1,,,,,
,1.97,,,,,,,,,h.PNG,h,61452bbe86c21c0347085911,2021-10-19_15h53.21.040,forced_choiceRT,2021.1.2,Win32,60.04563468,,,,,,,,4,Slow,f,0,2.1705,0,3,3,2,1,,,,,
,1.2,,,,,,,,,g.PNG,g,61452bbe86c21c0347085911,2021-10-19_15h53.21.040,forced_choiceRT,2021.1.2,Win32,60.04563468,,,,,,,,4,Ontime,g,1,1.908,1,0,4,1,1,,,,,
,1.69,,,,,,,,,f.PNG,f,61452bbe86c21c0347085911,2021-10-19_15h53.21.040,forced_choiceRT,2021.1.2,Win32,60.04563468,,,,,,,,4,Ontime,f,1,1.9512,1,1,5,0,1,,,,,
,0.01,,,,,,,,,g.PNG,g,61452bbe86c21c0347085911,2021-10-19_15h53.21.040,forced_choiceRT,2021.1.2,Win32,60.04563468,,,,,,,,4,Fast,g,1,1.7837,1,2,6,1,1,,,,,
,1.78,,,,,,,,,f.PNG,f,61452bbe86c21c0347085911,2021-10-19_15h53.21.040,forced_choiceRT,2021.1.2,Win32,60.04563468,,,,,,,,4,Ontime,j,0,2.001,1,3,7,0,1,,,,,
,1.5,,,,,,,,,h.PNG,h,61452bbe86c21c0347085911,2021-10-19_15h53.21.040,forced_choiceRT,2021.1.2,Win32,60.04563468,,,,,,,,4,Slow,g,0,2.216,2,0,8,2,1,,,,,
,1.53,,,,,,,,,g.PNG,g,61452bbe86c21c0347085911,2021-10-19_15h53.21.040,forced_choiceRT,2021.1.2,Win32,60.04563468,,,,,,,,4,Slow,g,1,2.1415,2,1,9,1,1,,,,,
,0.1,,,,,,,,,g.PNG,g,61452bbe86c21c0347085911,2021-10-19_15h53.21.040,forced_choiceRT,2021.1.2,Win32,60.04563468,,,,,,,,4,Ontime,g,1,2.0162,2,2,10,1,1,,,,,
,1.71,,,,,,,,,j.PNG,j,61452bbe86c21c0347085911,2021-10-19_15h53.21.040,forced_choiceRT,2021.1.2,Win32,60.04563468,,,,,,,,4,Slow,j,1,2.3081,2,3,11,3,1,,,,,
,1.28,,,,,,,,,j.PNG,j,61452bbe86c21c0347085911,2021-10-19_15h53.21.040,forced_choiceRT,2021.1.2,Win32,60.04563468,,,,,,,,4,Ontime,j,1,1.9329,3,0,12,3,1,,,,,
,0.43,,,,,,,,,g.PNG,g,61452bbe86c21c0347085911,2021-10-19_15h53.21.040,forced_choiceRT,2021.1.2,Win32,60.04563468,,,,,,,,4,Fast,g,1,1.883,3,1,13,1,1,,,,,
,0.76,,,,,,,,,f.PNG,f,61452bbe86c21c0347085911,2021-10-19_15h53.21.040,forced_choiceRT,2021.1.2,Win32,60.04563468,,,,,,,,4,Ontime,f,1,2.0994,3,2,14,0,1,,,,,
,0.28,,,,,,,,,g.PNG,g,61452bbe86c21c0347085911,2021-10-19_15h53.21.040,forced_choiceRT,2021.1.2,Win32,60.04563468,,,,,,,,4,Fast,g,1,1.8326,3,3,15,1,1,,,,,
,1.77,,,,,,,,,f.PNG,f,61452bbe86c21c0347085911,2021-10-19_15h53.21.040,forced_choiceRT,2021.1.2,Win32,60.04563468,,,,,,,,4,Fast,j,0,1.8484,4,0,16,0,1,,,,,
,1.82,,,,,,,,,g.PNG,g,61452bbe86c21c0347085911,2021-10-19_15h53.21.040,forced_choiceRT,2021.1.2,Win32,60.04563468,,,,,,,,4,Ontime,f,0,2.0159,4,1,17,1,1,,,,,
,1.98,,,,,,,,,h.PNG,h,61452bbe86c21c0347085911,2021-10-19_15h53.21.040,forced_choiceRT,2021.1.2,Win32,60.04563468,,,,,,,,4,Slow,h,1,2.3068,4,2,18,2,1,,,,,
,0.62,,,,,,,,,j.PNG,j,61452bbe86c21c0347085911,2021-10-19_15h53.21.040,forced_choiceRT,2021.1.2,Win32,60.04563468,,,,,,,,4,Ontime,j,1,2.0365,4,3,19,3,1,,,,,
,1.58,,,,,,,,,h.PNG,h,61452bbe86c21c0347085911,2021-10-19_15h53.21.040,forced_choiceRT,2021.1.2,Win32,60.04563468,,,,,,,,4,Slow,g,0,2.1251,5,0,20,2,1,,,,,
,1.65,,,,,,,,,j.PNG,j,61452bbe86c21c0347085911,2021-10-19_15h53.21.040,forced_choiceRT,2021.1.2,Win32,60.04563468,,,,,,,,4,Slow,j,1,2.1822,5,1,21,3,1,,,,,
,1.41,,,,,,,,,h.PNG,h,61452bbe86c21c0347085911,2021-10-19_15h53.21.040,forced_choiceRT,2021.1.2,Win32,60.04563468,,,,,,,,4,Ontime,f,0,1.9232,5,2,22,2,1,,,,,
,1.36,,,,,,,,,f.PNG,f,61452bbe86c21c0347085911,2021-10-19_15h53.21.040,forced_choiceRT,2021.1.2,Win32,60.04563468,,,,,,,,4,Ontime,f,1,1.9354,5,3,23,0,1,,,,,
,1.21,,,,,,,,,h.PNG,h,61452bbe86c21c0347085911,2021-10-19_15h53.21.040,forced_choiceRT,2021.1.2,Win32,60.04563468,,,,,,,,4,Fast,h,1,1.7671,6,0,24,2,1,,,,,
,0.93,,,,,,,,,f.PNG,f,61452bbe86c21c0347085911,2021-10-19_15h53.21.040,forced_choiceRT,2021.1.2,Win32,60.04563468,,,,,,,,4,Ontime,f,1,1.9507,6,1,25,0,1,,,,,
,1.74,,,,,,,,,j.PNG,j,61452bbe86c21c0347085911,2021-10-19_15h53.21.040,forced_choiceRT,2021.1.2,Win32,60.04563468,,,,,,,,4,Slow,j,1,2.1006,6,2,26,3,1,,,,,
,0.53,,,,,,,,,j.PNG,j,61452bbe86c21c0347085911,2021-10-19_15h53.21.040,forced_choiceRT,2021.1.2,Win32,60.04563468,,,,,,,,4,Ontime,j,1,1.967,6,3,27,3,1,,,,,
,0.96,,,,,,,,,j.PNG,j,61452bbe86c21c0347085911,2021-10-19_15h53.21.040,forced_choiceRT,2021.1.2,Win32,60.04563468,,,,,,,,4,Fast,j,1,1.8697,7,0,28,3,1,,,,,
,1.69,,,,,,,,,h.PNG,h,61452bbe86c21c0347085911,2021-10-19_15h53.21.040,forced_choiceRT,2021.1.2,Win32,60.04563468,,,,,,,,4,Slow,g,0,2.2545,7,1,29,2,1,,,,,
,1.19,,,,,,,,,g.PNG,g,61452bbe86c21c0347085911,2021-10-19_15h53.21.040,forced_choiceRT,2021.1.2,Win32,60.04563468,,,,,,,,4,Ontime,g,1,1.9863,7,2,30,1,1,,,,,
,1.43,,,,,,,,,f.PNG,f,61452bbe86c21c0347085911,2021-10-19_15h53.21.040,forced_choiceRT,2021.1.2,Win32,60.04563468,,,,,,,,4,Ontime,f,1,2.0088,7,3,31,0,1,,,,,
,0.34,,,,,,,,,j.PNG,j,61452bbe86c21c0347085911,2021-10-19_15h53.21.040,forced_choiceRT,2021.1.2,Win32,60.04563468,,,,,,,,4,Ontime,j,1,1.9544,8,0,32,3,1,,,,,
,0.71,,,,,,,,,f.PNG,f,61452bbe86c21c0347085911,2021-10-19_15h53.21.040,forced_choiceRT,2021.1.2,Win32,60.04563468,,,,,,,,4,Ontime,f,1,2.0855,8,1,33,0,1,,,,,
,0.1,,,,,,,,,h.PNG,h,61452bbe86c21c0347085911,2021-10-19_15h53.21.040,forced_choiceRT,2021.1.2,Win32,60.04563468,,,,,,,,4,Slow,h,1,2.1499,8,2,34,2,1,,,,,
,1.42,,,,,,,,,f.PNG,f,61452bbe86c21c0347085911,2021-10-19_15h53.21.040,forced_choiceRT,2021.1.2,Win32,60.04563468,,,,,,,,4,Slow,f,1,2.1741,8,3,35,0,1,,,,,
,1.43,,,,,,,,,h.PNG,h,61452bbe86c21c0347085911,2021-10-19_15h53.21.040,forced_choiceRT,2021.1.2,Win32,60.04563468,,,,,,,,4,Ontime,h,1,2.0833,9,0,36,2,1,,,,,
,1.32,,,,,,,,,f.PNG,f,61452bbe86c21c0347085911,2021-10-19_15h53.21.040,forced_choiceRT,2021.1.2,Win32,60.04563468,,,,,,,,4,Slow,f,1,2.2181,9,1,37,0,1,,,,,
,1.54,,,,,,,,,g.PNG,g,61452bbe86c21c0347085911,2021-10-19_15h53.21.040,forced_choiceRT,2021.1.2,Win32,60.04563468,,,,,,,,4,Ontime,j,0,2.0494,9,2,38,1,1,,,,,
,0.68,,,,,,,,,j.PNG,j,61452bbe86c21c0347085911,2021-10-19_15h53.21.040,forced_choiceRT,2021.1.2,Win32,60.04563468,,,,,,,,4,Ontime,j,1,2.0382,9,3,39,3,1,,,,,
,,,,,,,,,,,,61452bbe86c21c0347085911,2021-10-19_15h53.21.040,forced_choiceRT,2021.1.2,Win32,60.04563468,,,,,,,,,,,,,,,,,,3,0,3,0,1
,0.54,,,,,,,,,g.PNG,g,61452bbe86c21c0347085911,2021-10-19_15h53.21.040,forced_choiceRT,2021.1.2,Win32,60.04563468,,,,,,,,5,Ontime,g,1,1.9665,0,0,0,1,1,,,,,
,0.82,,,,,,,,,j.PNG,j,61452bbe86c21c0347085911,2021-10-19_15h53.21.040,forced_choiceRT,2021.1.2,Win32,60.04563468,,,,,,,,5,Fast,j,1,1.8396,0,1,1,3,1,,,,,
,0.34,,,,,,,,,j.PNG,j,61452bbe86c21c0347085911,2021-10-19_15h53.21.040,forced_choiceRT,2021.1.2,Win32,60.04563468,,,,,,,,5,Fast,j,1,1.7929,0,2,2,3,1,,,,,
,1.8,,,,,,,,,h.PNG,h,61452bbe86c21c0347085911,2021-10-19_15h53.21.040,forced_choiceRT,2021.1.2,Win32,60.04563468,,,,,,,,5,Ontime,j,0,1.9888,0,3,3,2,1,,,,,
,0.75,,,,,,,,,j.PNG,j,61452bbe86c21c0347085911,2021-10-19_15h53.21.040,forced_choiceRT,2021.1.2,Win32,60.04563468,,,,,,,,5,Ontime,j,1,1.9732,1,0,4,3,1,,,,,
,1.12,,,,,,,,,f.PNG,f,61452bbe86c21c0347085911,2021-10-19_15h53.21.040,forced_choiceRT,2021.1.2,Win32,60.04563468,,,,,,,,5,Ontime,f,1,2.0178,1,1,5,0,1,,,,,
,1.33,,,,,,,,,j.PNG,j,61452bbe86c21c0347085911,2021-10-19_15h53.21.040,forced_choiceRT,2021.1.2,Win32,60.04563468,,,,,,,,5,Ontime,j,1,2.0667,1,2,6,3,1,,,,,
,1.22,,,,,,,,,h.PNG,h,61452bbe86c21c0347085911,2021-10-19_15h53.21.040,forced_choiceRT,2021.1.2,Win32,60.04563468,,,,,,,,5,Ontime,h,1,2.0323,1,3,7,2,1,,,,,
,1.07,,,,,,,,,j.PNG,j,61452bbe86c21c0347085911,2021-10-19_15h53.21.040,forced_choiceRT,2021.1.2,Win32,60.04563468,,,,,,,,5,Fast,j,1,1.8832,2,0,8,3,1,,,,,
,0.56,,,,,,,,,g.PNG,g,61452bbe86c21c0347085911,2021-10-19_15h53.21.040,forced_choiceRT,2021.1.2,Win32,60.04563468,,,,,,,,5,Ontime,g,1,2.0248,2,1,9,1,1,,,,,
,0.29,,,,,,,,,g.PNG,g,61452bbe86c21c0347085911,2021-10-19_15h53.21.040,forced_choiceRT,2021.1.2,Win32,60.04563468,,,,,,,,5,Ontime,g,1,2.0496,2,2,10,1,1,,,,,
,1.59,,,,,,,,,h.PNG,h,61452bbe86c21c0347085911,2021-10-19_15h53.21.040,forced_choiceRT,2021.1.2,Win32,60.04563468,,,,,,,,5,Slow,h,1,2.116,2,3,11,2,1,,,,,
,0.54,,,,,,,,,f.PNG,f,61452bbe86c21c0347085911,2021-10-19_15h53.21.040,forced_choiceRT,2021.1.2,Win32,60.04563468,,,,,,,,5,Ontime,f,1,2.0088,3,0,12,0,1,,,,,
,1.96,,,,,,,,,h.PNG,h,61452bbe86c21c0347085911,2021-10-19_15h53.21.040,forced_choiceRT,2021.1.2,Win32,60.04563468,,,,,,,,5,Slow,h,1,2.1661,3,1,13,2,1,,,,,
,0.83,,,,,,,,,f.PNG,f,61452bbe86c21c0347085911,2021-10-19_15h53.21.040,forced_choiceRT,2021.1.2,Win32,60.04563468,,,,,,,,5,Ontime,f,1,2.0725,3,2,14,0,1,,,,,
,1.13,,,,,,,,,g.PNG,g,61452bbe86c21c0347085911,2021-10-19_15h53.21.040,forced_choiceRT,2021.1.2,Win32,60.04563468,,,,,,,,5,Slow,g,1,2.1052,3,3,15,1,1,,,,,
,1.92,,,,,,,,,f.PNG,f,61452bbe86c21c0347085911,2021-10-19_15h53.21.040,forced_choiceRT,2021.1.2,Win32,60.04563468,,,,,,,,5,Slow,h,0,2.1563,4,0,16,0,1,,,,,
,0.39,,,,,,,,,f.PNG,f,61452bbe86c21c0347085911,2021-10-19_15h53.21.040,forced_choiceRT,2021.1.2,Win32,60.04563468,,,,,,,,5,Ontime,f,1,1.9369,4,1,17,0,1,,,,,
,0.47,,,,,,,,,h.PNG,h,61452bbe86c21c0347085911,2021-10-19_15h53.21.040,forced_choiceRT,2021.1.2,Win32,60.04563468,,,,,,,,5,Ontime,h,1,2.0255,4,2,18,2,1,,,,,
,0.52,,,,,,,,,g.PNG,g,61452bbe86c21c0347085911,2021-10-19_15h53.21.040,forced_choiceRT,2021.1.2,Win32,60.04563468,,,,,,,,5,Ontime,g,1,1.9905,4,3,19,1,1,,,,,
,1.27,,,,,,,,,h.PNG,h,61452bbe86c21c0347085911,2021-10-19_15h53.21.040,forced_choiceRT,2021.1.2,Win32,60.04563468,,,,,,,,5,Ontime,h,1,1.9829,5,0,20,2,1,,,,,
,1.19,,,,,,,,,j.PNG,j,61452bbe86c21c0347085911,2021-10-19_15h53.21.040,forced_choiceRT,2021.1.2,Win32,60.04563468,,,,,,,,5,Ontime,j,1,1.9079,5,1,21,3,1,,,,,
,0.4,,,,,,,,,g.PNG,g,61452bbe86c21c0347085911,2021-10-19_15h53.21.040,forced_choiceRT,2021.1.2,Win32,60.04563468,,,,,,,,5,Ontime,g,1,1.9907,5,2,22,1,1,,,,,
,1.96,,,,,,,,,h.PNG,h,61452bbe86c21c0347085911,2021-10-19_15h53.21.040,forced_choiceRT,2021.1.2,Win32,60.04563468,,,,,,,,5,Slow,j,0,2.2328,5,3,23,2,1,,,,,
,0.89,,,,,,,,,f.PNG,f,61452bbe86c21c0347085911,2021-10-19_15h53.21.040,forced_choiceRT,2021.1.2,Win32,60.04563468,,,,,,,,5,Ontime,f,1,2.0162,6,0,24,0,1,,,,,
,0.36,,,,,,,,,j.PNG,j,61452bbe86c21c0347085911,2021-10-19_15h53.21.040,forced_choiceRT,2021.1.2,Win32,60.04563468,,,,,,,,5,Ontime,j,1,2.0256,6,1,25,3,1,,,,,
,0.66,,,,,,,,,g.PNG,g,61452bbe86c21c0347085911,2021-10-19_15h53.21.040,forced_choiceRT,2021.1.2,Win32,60.04563468,,,,,,,,5,Ontime,g,1,2.0507,6,2,26,1,1,,,,,
,0.86,,,,,,,,,h.PNG,h,61452bbe86c21c0347085911,2021-10-19_15h53.21.040,forced_choiceRT,2021.1.2,Win32,60.04563468,,,,,,,,5,Ontime,h,1,2.0162,6,3,27,2,1,,,,,
,1.39,,,,,,,,,f.PNG,f,61452bbe86c21c0347085911,2021-10-19_15h53.21.040,forced_choiceRT,2021.1.2,Win32,60.04563468,,,,,,,,5,Ontime,f,1,2.0497,7,0,28,0,1,,,,,
,1.2,,,,,,,,,f.PNG,f,61452bbe86c21c0347085911,2021-10-19_15h53.21.040,forced_choiceRT,2021.1.2,Win32,60.04563468,,,,,,,,5,Ontime,f,1,2.0514,7,1,29,0,1,,,,,
,0.18,,,,,,,,,g.PNG,g,61452bbe86c21c0347085911,2021-10-19_15h53.21.040,forced_choiceRT,2021.1.2,Win32,60.04563468,,,,,,,,5,Ontime,g,1,1.9334,7,2,30,1,1,,,,,
,1.06,,,,,,,,,f.PNG,f,61452bbe86c21c0347085911,2021-10-19_15h53.21.040,forced_choiceRT,2021.1.2,Win32,60.04563468,,,,,,,,5,Ontime,f,1,1.959,7,3,31,0,1,,,,,
,0.94,,,,,,,,,j.PNG,j,61452bbe86c21c0347085911,2021-10-19_15h53.21.040,forced_choiceRT,2021.1.2,Win32,60.04563468,,,,,,,,5,Fast,j,1,1.8662,8,0,32,3,1,,,,,
,1.03,,,,,,,,,h.PNG,h,61452bbe86c21c0347085911,2021-10-19_15h53.21.040,forced_choiceRT,2021.1.2,Win32,60.04563468,,,,,,,,5,Ontime,h,1,2.0331,8,1,33,2,1,,,,,
,1.59,,,,,,,,,j.PNG,j,61452bbe86c21c0347085911,2021-10-19_15h53.21.040,forced_choiceRT,2021.1.2,Win32,60.04563468,,,,,,,,5,Slow,j,1,2.1161,8,2,34,3,1,,,,,
,0.68,,,,,,,,,j.PNG,j,61452bbe86c21c0347085911,2021-10-19_15h53.21.040,forced_choiceRT,2021.1.2,Win32,60.04563468,,,,,,,,5,Fast,j,1,1.7924,8,3,35,3,1,,,,,
,1.48,,,,,,,,,h.PNG,h,61452bbe86c21c0347085911,2021-10-19_15h53.21.040,forced_choiceRT,2021.1.2,Win32,60.04563468,,,,,,,,5,Slow,h,1,2.1327,9,0,36,2,1,,,,,
,1.77,,,,,,,,,g.PNG,g,61452bbe86c21c0347085911,2021-10-19_15h53.21.040,forced_choiceRT,2021.1.2,Win32,60.04563468,,,,,,,,5,Ontime,j,0,2.0041,9,1,37,1,1,,,,,
,0.94,,,,,,,,,f.PNG,f,61452bbe86c21c0347085911,2021-10-19_15h53.21.040,forced_choiceRT,2021.1.2,Win32,60.04563468,,,,,,,,5,Ontime,f,1,2.0825,9,2,38,0,1,,,,,
,1.82,,,,,,,,,g.PNG,g,61452bbe86c21c0347085911,2021-10-19_15h53.21.040,forced_choiceRT,2021.1.2,Win32,60.04563468,,,,,,,,5,Ontime,h,0,2.0102,9,3,39,1,1,,,,,
,,,,,,,,,,,,61452bbe86c21c0347085911,2021-10-19_15h53.21.040,forced_choiceRT,2021.1.2,Win32,60.04563468,,,,,,,,,,,,,,,,,,4,0,4,0,1
,0.56,,,,,,,,,h.PNG,h,61452bbe86c21c0347085911,2021-10-19_15h53.21.040,forced_choiceRT,2021.1.2,Win32,60.04563468,,,,,,,,6,Ontime,h,1,1.982,0,0,0,2,1,,,,,
,0.52,,,,,,,,,g.PNG,g,61452bbe86c21c0347085911,2021-10-19_15h53.21.040,forced_choiceRT,2021.1.2,Win32,60.04563468,,,,,,,,6,Ontime,g,1,2.0835,0,1,1,1,1,,,,,
,0.58,,,,,,,,,j.PNG,j,61452bbe86c21c0347085911,2021-10-19_15h53.21.040,forced_choiceRT,2021.1.2,Win32,60.04563468,,,,,,,,6,Ontime,j,1,2.0234,0,2,2,3,1,,,,,
,0.13,,,,,,,,,j.PNG,j,61452bbe86c21c0347085911,2021-10-19_15h53.21.040,forced_choiceRT,2021.1.2,Win32,60.04563468,,,,,,,,6,Ontime,j,1,1.9426,0,3,3,3,1,,,,,
,1.2,,,,,,,,,j.PNG,j,61452bbe86c21c0347085911,2021-10-19_15h53.21.040,forced_choiceRT,2021.1.2,Win32,60.04563468,,,,,,,,6,Ontime,j,1,2.0265,1,0,4,3,1,,,,,
,1.92,,,,,,,,,j.PNG,j,61452bbe86c21c0347085911,2021-10-19_15h53.21.040,forced_choiceRT,2021.1.2,Win32,60.04563468,,,,,,,,6,Ontime,g,0,2.0026,1,1,5,3,1,,,,,
,1.02,,,,,,,,,h.PNG,h,61452bbe86c21c0347085911,2021-10-19_15h53.21.040,forced_choiceRT,2021.1.2,Win32,60.04563468,,,,,,,,6,Ontime,h,1,2.0768,1,2,6,2,1,,,,,
,0.69,,,,,,,,,h.PNG,h,61452bbe86c21c0347085911,2021-10-19_15h53.21.040,forced_choiceRT,2021.1.2,Win32,60.04563468,,,,,,,,6,Ontime,h,1,2.0774,1,3,7,2,1,,,,,
,1.56,,,,,,,,,h.PNG,h,61452bbe86c21c0347085911,2021-10-19_15h53.21.040,forced_choiceRT,2021.1.2,Win32,60.04563468,,,,,,,,6,Slow,h,1,2.3324,2,0,8,2,1,,,,,
,1.1,,,,,,,,,f.PNG,f,61452bbe86c21c0347085911,2021-10-19_15h53.21.040,forced_choiceRT,2021.1.2,Win32,60.04563468,,,,,,,,6,Ontime,f,1,2.0492,2,1,9,0,1,,,,,
,0.14,,,,,,,,,g.PNG,g,61452bbe86c21c0347085911,2021-10-19_15h53.21.040,forced_choiceRT,2021.1.2,Win32,60.04563468,,,,,,,,6,Ontime,g,1,2.0401,2,2,10,1,1,,,,,
,0.21,,,,,,,,,f.PNG,f,61452bbe86c21c0347085911,2021-10-19_15h53.21.040,forced_choiceRT,2021.1.2,Win32,60.04563468,,,,,,,,6,Slow,f,1,2.2035,2,3,11,0,1,,,,,
,0.34,,,,,,,,,f.PNG,f,61452bbe86c21c0347085911,2021-10-19_15h53.21.040,forced_choiceRT,2021.1.2,Win32,60.04563468,,,,,,,,6,Ontime,f,1,2.0497,3,0,12,0,1,,,,,
,1.07,,,,,,,,,h.PNG,h,61452bbe86c21c0347085911,2021-10-19_15h53.21.040,forced_choiceRT,2021.1.2,Win32,60.04563468,,,,,,,,6,Ontime,h,1,2.0514,3,1,13,2,1,,,,,
,1.26,,,,,,,,,j.PNG,j,61452bbe86c21c0347085911,2021-10-19_15h53.21.040,forced_choiceRT,2021.1.2,Win32,60.04563468,,,,,,,,6,Ontime,j,1,1.9502,3,2,14,3,1,,,,,
,0.97,,,,,,,,,j.PNG,j,61452bbe86c21c0347085911,2021-10-19_15h53.21.040,forced_choiceRT,2021.1.2,Win32,60.04563468,,,,,,,,6,Ontime,j,1,2.0398,3,3,15,3,1,,,,,
,1.49,,,,,,,,,f.PNG,f,61452bbe86c21c0347085911,2021-10-19_15h53.21.040,forced_choiceRT,2021.1.2,Win32,60.04563468,,,,,,,,6,Slow,f,1,2.1492,4,0,16,0,1,,,,,
,0.9,,,,,,,,,g.PNG,g,61452bbe86c21c0347085911,2021-10-19_15h53.21.040,forced_choiceRT,2021.1.2,Win32,60.04563468,,,,,,,,6,Fast,h,0,1.8391,4,1,17,1,1,,,,,
,0.93,,,,,,,,,g.PNG,g,61452bbe86c21c0347085911,2021-10-19_15h53.21.040,forced_choiceRT,2021.1.2,Win32,60.04563468,,,,,,,,6,Ontime,g,1,1.9497,4,2,18,1,1,,,,,
,0.23,,,,,,,,,h.PNG,h,61452bbe86c21c0347085911,2021-10-19_15h53.21.040,forced_choiceRT,2021.1.2,Win32,60.04563468,,,,,,,,6,Ontime,h,1,2.0243,4,3,19,2,1,,,,,
,0.77,,,,,,,,,g.PNG,g,61452bbe86c21c0347085911,2021-10-19_15h53.21.040,forced_choiceRT,2021.1.2,Win32,60.04563468,,,,,,,,6,Ontime,g,1,2.0183,5,0,20,1,1,,,,,
,0.59,,,,,,,,,g.PNG,g,61452bbe86c21c0347085911,2021-10-19_15h53.21.040,forced_choiceRT,2021.1.2,Win32,60.04563468,,,,,,,,6,Ontime,g,1,1.994,5,1,21,1,1,,,,,
,1.26,,,,,,,,,g.PNG,g,61452bbe86c21c0347085911,2021-10-19_15h53.21.040,forced_choiceRT,2021.1.2,Win32,60.04563468,,,,,,,,6,Fast,g,1,1.8933,5,2,22,1,1,,,,,
,1.84,,,,,,,,,f.PNG,f,61452bbe86c21c0347085911,2021-10-19_15h53.21.040,forced_choiceRT,2021.1.2,Win32,60.04563468,,,,,,,,6,Ontime,f,1,1.9567,5,3,23,0,1,,,,,
,0.32,,,,,,,,,h.PNG,h,61452bbe86c21c0347085911,2021-10-19_15h53.21.040,forced_choiceRT,2021.1.2,Win32,60.04563468,,,,,,,,6,Fast,h,1,1.8194,6,0,24,2,1,,,,,
,1.88,,,,,,,,,f.PNG,f,61452bbe86c21c0347085911,2021-10-19_15h53.21.040,forced_choiceRT,2021.1.2,Win32,60.04563468,,,,,,,,6,Ontime,j,0,1.9243,6,1,25,0,1,,,,,
,0.78,,,,,,,,,j.PNG,j,61452bbe86c21c0347085911,2021-10-19_15h53.21.040,forced_choiceRT,2021.1.2,Win32,60.04563468,,,,,,,,6,Ontime,j,1,1.923,6,2,26,3,1,,,,,
,1.8,,,,,,,,,g.PNG,g,61452bbe86c21c0347085911,2021-10-19_15h53.21.040,forced_choiceRT,2021.1.2,Win32,60.04563468,,,,,,,,6,Ontime,f,0,1.9572,6,3,27,1,1,,,,,
,1.4,,,,,,,,,h.PNG,h,61452bbe86c21c0347085911,2021-10-19_15h53.21.040,forced_choiceRT,2021.1.2,Win32,60.04563468,,,,,,,,6,Slow,h,1,2.1907,7,0,28,2,1,,,,,
,1.42,,,,,,,,,g.PNG,g,61452bbe86c21c0347085911,2021-10-19_15h53.21.040,forced_choiceRT,2021.1.2,Win32,60.04563468,,,,,,,,6,Ontime,g,1,1.9829,7,1,29,1,1,,,,,
,0.04,,,,,,,,,f.PNG,f,61452bbe86c21c0347085911,2021-10-19_15h53.21.040,forced_choiceRT,2021.1.2,Win32,60.04563468,,,,,,,,6,Ontime,f,1,1.9886,7,2,30,0,1,,,,,
,0.41,,,,,,,,,h.PNG,h,61452bbe86c21c0347085911,2021-10-19_15h53.21.040,forced_choiceRT,2021.1.2,Win32,60.04563468,,,,,,,,6,Ontime,h,1,1.9352,7,3,31,2,1,,,,,
,0.68,,,,,,,,,j.PNG,j,61452bbe86c21c0347085911,2021-10-19_15h53.21.040,forced_choiceRT,2021.1.2,Win32,60.04563468,,,,,,,,6,Ontime,j,1,2.0494,8,0,32,3,1,,,,,
,0.17,,,,,,,,,f.PNG,f,61452bbe86c21c0347085911,2021-10-19_15h53.21.040,forced_choiceRT,2021.1.2,Win32,60.04563468,,,,,,,,6,Ontime,f,1,2.0082,8,1,33,0,1,,,,,
,0.48,,,,,,,,,h.PNG,h,61452bbe86c21c0347085911,2021-10-19_15h53.21.040,forced_choiceRT,2021.1.2,Win32,60.04563468,,,,,,,,6,Ontime,h,1,2.0329,8,2,34,2,1,,,,,
,0.14,,,,,,,,,g.PNG,g,61452bbe86c21c0347085911,2021-10-19_15h53.21.040,forced_choiceRT,2021.1.2,Win32,60.04563468,,,,,,,,6,Ontime,g,1,2.0676,8,3,35,1,1,,,,,
,1.41,,,,,,,,,f.PNG,f,61452bbe86c21c0347085911,2021-10-19_15h53.21.040,forced_choiceRT,2021.1.2,Win32,60.04563468,,,,,,,,6,Ontime,f,1,2.0499,9,0,36,0,1,,,,,
,1.23,,,,,,,,,j.PNG,j,61452bbe86c21c0347085911,2021-10-19_15h53.21.040,forced_choiceRT,2021.1.2,Win32,60.04563468,,,,,,,,6,Ontime,j,1,1.951,9,1,37,3,1,,,,,
,1.59,,,,,,,,,f.PNG,f,61452bbe86c21c0347085911,2021-10-19_15h53.21.040,forced_choiceRT,2021.1.2,Win32,60.04563468,,,,,,,,6,Slow,f,1,2.184,9,2,38,0,1,,,,,
,0.96,,,,,,,,,j.PNG,j,61452bbe86c21c0347085911,2021-10-19_15h53.21.040,forced_choiceRT,2021.1.2,Win32,60.04563468,,,,,,,,6,Ontime,j,1,1.9728,9,3,39,3,1,,,,,
,,,,,,,,,,,,61452bbe86c21c0347085911,2021-10-19_15h53.21.040,forced_choiceRT,2021.1.2,Win32,60.04563468,,,,,,,,,,,,,,,,,,5,0,5,0,1
,0.67,,,,,,,,,g.PNG,g,61452bbe86c21c0347085911,2021-10-19_15h53.21.040,forced_choiceRT,2021.1.2,Win32,60.04563468,,,,,,,,7,Ontime,g,1,2.0002,0,0,0,1,1,,,,,
,1.38,,,,,,,,,h.PNG,h,61452bbe86c21c0347085911,2021-10-19_15h53.21.040,forced_choiceRT,2021.1.2,Win32,60.04563468,,,,,,,,7,Slow,h,1,2.1052,0,1,1,2,1,,,,,
,1.44,,,,,,,,,f.PNG,f,61452bbe86c21c0347085911,2021-10-19_15h53.21.040,forced_choiceRT,2021.1.2,Win32,60.04563468,,,,,,,,7,Ontime,f,1,2.0984,0,2,2,0,1,,,,,
,1.74,,,,,,,,,h.PNG,h,61452bbe86c21c0347085911,2021-10-19_15h53.21.040,forced_choiceRT,2021.1.2,Win32,60.04563468,,,,,,,,7,Slow,j,0,2.1767,0,3,3,2,1,,,,,
,1.74,,,,,,,,,j.PNG,j,61452bbe86c21c0347085911,2021-10-19_15h53.21.040,forced_choiceRT,2021.1.2,Win32,60.04563468,,,,,,,,7,Ontime,f,0,2.0597,1,0,4,3,1,,,,,
,0.2,,,,,,,,,j.PNG,j,61452bbe86c21c0347085911,2021-10-19_15h53.21.040,forced_choiceRT,2021.1.2,Win32,60.04563468,,,,,,,,7,Ontime,j,1,1.986,1,1,5,3,1,,,,,
,1.4,,,,,,,,,g.PNG,g,61452bbe86c21c0347085911,2021-10-19_15h53.21.040,forced_choiceRT,2021.1.2,Win32,60.04563468,,,,,,,,7,Ontime,g,1,2.0533,1,2,6,1,1,,,,,
,1.6,,,,,,,,,f.PNG,f,61452bbe86c21c0347085911,2021-10-19_15h53.21.040,forced_choiceRT,2021.1.2,Win32,60.04563468,,,,,,,,7,Slow,f,1,2.1992,1,3,7,0,1,,,,,
,0.71,,,,,,,,,j.PNG,j,61452bbe86c21c0347085911,2021-10-19_15h53.21.040,forced_choiceRT,2021.1.2,Win32,60.04563468,,,,,,,,7,Fast,j,1,1.8329,2,0,8,3,1,,,,,
,0.99,,,,,,,,,h.PNG,h,61452bbe86c21c0347085911,2021-10-19_15h53.21.040,forced_choiceRT,2021.1.2,Win32,60.04563468,,,,,,,,7,Ontime,h,1,2.0751,2,1,9,2,1,,,,,
,0.7,,,,,,,,,j.PNG,j,61452bbe86c21c0347085911,2021-10-19_15h53.21.040,forced_choiceRT,2021.1.2,Win32,60.04563468,,,,,,,,7,Ontime,j,1,1.9744,2,2,10,3,1,,,,,
,0.04,,,,,,,,,f.PNG,f,61452bbe86c21c0347085911,2021-10-19_15h53.21.040,forced_choiceRT,2021.1.2,Win32,60.04563468,,,,,,,,7,Slow,f,1,2.2048,2,3,11,0,1,,,,,
,0.85,,,,,,,,,h.PNG,h,61452bbe86c21c0347085911,2021-10-19_15h53.21.040,forced_choiceRT,2021.1.2,Win32,60.04563468,,,,,,,,7,Ontime,h,1,2.0042,3,0,12,2,1,,,,,
,1.54,,,,,,,,,g.PNG,g,61452bbe86c21c0347085911,2021-10-19_15h53.21.040,forced_choiceRT,2021.1.2,Win32,60.04563468,,,,,,,,7,Ontime,j,0,1.9905,3,1,13,1,1,,,,,
,1.24,,,,,,,,,g.PNG,g,61452bbe86c21c0347085911,2021-10-19_15h53.21.040,forced_choiceRT,2021.1.2,Win32,60.04563468,,,,,,,,7,Ontime,g,1,1.9916,3,2,14,1,1,,,,,
,0.41,,,,,,,,,f.PNG,f,61452bbe86c21c0347085911,2021-10-19_15h53.21.040,forced_choiceRT,2021.1.2,Win32,60.04563468,,,,,,,,7,Fast,f,1,1.8832,3,3,15,0,1,,,,,
,1.18,,,,,,,,,h.PNG,h,61452bbe86c21c0347085911,2021-10-19_15h53.21.040,forced_choiceRT,2021.1.2,Win32,60.04563468,,,,,,,,7,Slow,h,1,2.1016,4,0,16,2,1,,,,,
,1.41,,,,,,,,,g.PNG,g,61452bbe86c21c0347085911,2021-10-19_15h53.21.040,forced_choiceRT,2021.1.2,Win32,60.04563468,,,,,,,,7,Ontime,g,1,2.0734,4,1,17,1,1,,,,,
,0.14,,,,,,,,,g.PNG,g,61452bbe86c21c0347085911,2021-10-19_15h53.21.040,forced_choiceRT,2021.1.2,Win32,60.04563468,,,,,,,,7,Ontime,g,1,2.0495,4,2,18,1,1,,,,,
,0.01,,,,,,,,,h.PNG,h,61452bbe86c21c0347085911,2021-10-19_15h53.21.040,forced_choiceRT,2021.1.2,Win32,60.04563468,,,,,,,,7,Ontime,h,1,2.0026,4,3,19,2,1,,,,,
,0.15,,,,,,,,,f.PNG,f,61452bbe86c21c0347085911,2021-10-19_15h53.21.040,forced_choiceRT,2021.1.2,Win32,60.04563468,,,,,,,,7,Ontime,f,1,2.0924,5,0,20,0,1,,,,,
,1.3,,,,,,,,,j.PNG,j,61452bbe86c21c0347085911,2021-10-19_15h53.21.040,forced_choiceRT,2021.1.2,Win32,60.04563468,,,,,,,,7,Slow,j,1,2.2326,5,1,21,3,1,,,,,
,1.67,,,,,,,,,j.PNG,j,61452bbe86c21c0347085911,2021-10-19_15h53.21.040,forced_choiceRT,2021.1.2,Win32,60.04563468,,,,,,,,7,Slow,j,1,2.2326,5,2,22,3,1,,,,,
,1.59,,,,,,,,,h.PNG,h,61452bbe86c21c0347085911,2021-10-19_15h53.21.040,forced_choiceRT,2021.1.2,Win32,60.04563468,,,,,,,,7,Ontime,f,0,1.9164,5,3,23,2,1,,,,,
,0.46,,,,,,,,,f.PNG,f,61452bbe86c21c0347085911,2021-10-19_15h53.21.040,forced_choiceRT,2021.1.2,Win32,60.04563468,,,,,,,,7,Ontime,f,1,2.0663,6,0,24,0,1,,,,,
,1.88,,,,,,,,,g.PNG,g,61452bbe86c21c0347085911,2021-10-19_15h53.21.040,forced_choiceRT,2021.1.2,Win32,60.04563468,,,,,,,,7,Ontime,j,0,1.9997,6,1,25,1,1,,,,,
,0.1,,,,,,,,,j.PNG,j,61452bbe86c21c0347085911,2021-10-19_15h53.21.040,forced_choiceRT,2021.1.2,Win32,60.04563468,,,,,,,,7,Fast,j,1,1.7739,6,2,26,3,1,,,,,
,0.76,,,,,,,,,h.PNG,h,61452bbe86c21c0347085911,2021-10-19_15h53.21.040,forced_choiceRT,2021.1.2,Win32,60.04563468,,,,,,,,7,Ontime,h,1,2.0335,6,3,27,2,1,,,,,
,1.9,,,,,,,,,j.PNG,j,61452bbe86c21c0347085911,2021-10-19_15h53.21.040,forced_choiceRT,2021.1.2,Win32,60.04563468,,,,,,,,7,Slow,f,0,2.1991,7,0,28,3,1,,,,,
,1.36,,,,,,,,,g.PNG,g,61452bbe86c21c0347085911,2021-10-19_15h53.21.040,forced_choiceRT,2021.1.2,Win32,60.04563468,,,,,,,,7,Fast,h,0,1.8188,7,1,29,1,1,,,,,
,0.24,,,,,,,,,j.PNG,j,61452bbe86c21c0347085911,2021-10-19_15h53.21.040,forced_choiceRT,2021.1.2,Win32,60.04563468,,,,,,,,7,Ontime,j,1,2.0407,7,2,30,3,1,,,,,
,0.07,,,,,,,,,f.PNG,f,61452bbe86c21c0347085911,2021-10-19_15h53.21.040,forced_choiceRT,2021.1.2,Win32,60.04563468,,,,,,,,7,Ontime,f,1,2.0397,7,3,31,0,1,,,,,
,1.19,,,,,,,,,f.PNG,f,61452bbe86c21c0347085911,2021-10-19_15h53.21.040,forced_choiceRT,2021.1.2,Win32,60.04563468,,,,,,,,7,Ontime,f,1,2.0909,8,0,32,0,1,,,,,
,0.59,,,,,,,,,f.PNG,f,61452bbe86c21c0347085911,2021-10-19_15h53.21.040,forced_choiceRT,2021.1.2,Win32,60.04563468,,,,,,,,7,Ontime,f,1,2.0329,8,1,33,0,1,,,,,
,1.39,,,,,,,,,g.PNG,g,61452bbe86c21c0347085911,2021-10-19_15h53.21.040,forced_choiceRT,2021.1.2,Win32,60.04563468,,,,,,,,7,Ontime,h,0,1.975,8,2,34,1,1,,,,,
,1.55,,,,,,,,,f.PNG,f,61452bbe86c21c0347085911,2021-10-19_15h53.21.040,forced_choiceRT,2021.1.2,Win32,60.04563468,,,,,,,,7,Ontime,j,0,1.9242,8,3,35,0,1,,,,,
,0.32,,,,,,,,,h.PNG,h,61452bbe86c21c0347085911,2021-10-19_15h53.21.040,forced_choiceRT,2021.1.2,Win32,60.04563468,,,,,,,,7,Slow,h,1,2.1497,9,0,36,2,1,,,,,
,1.71,,,,,,,,,g.PNG,g,61452bbe86c21c0347085911,2021-10-19_15h53.21.040,forced_choiceRT,2021.1.2,Win32,60.04563468,,,,,,,,7,Ontime,j,0,2.0079,9,1,37,1,1,,,,,
,0.5,,,,,,,,,j.PNG,j,61452bbe86c21c0347085911,2021-10-19_15h53.21.040,forced_choiceRT,2021.1.2,Win32,60.04563468,,,,,,,,7,Ontime,j,1,2.0086,9,2,38,3,1,,,,,
,0.37,,,,,,,,,h.PNG,h,61452bbe86c21c0347085911,2021-10-19_15h53.21.040,forced_choiceRT,2021.1.2,Win32,60.04563468,,,,,,,,7,Ontime,h,1,1.9847,9,3,39,2,1,,,,,
,,,,,,,,,,,,61452bbe86c21c0347085911,2021-10-19_15h53.21.040,forced_choiceRT,2021.1.2,Win32,60.04563468,,,,,,,,,,,,,,,,,,6,0,6,0,1
,0.81,,,,,,,,,j.PNG,j,61452bbe86c21c0347085911,2021-10-19_15h53.21.040,forced_choiceRT,2021.1.2,Win32,60.04563468,,,,,,,,8,Fast,j,1,1.786,0,0,0,3,1,,,,,
,1.63,,,,,,,,,f.PNG,f,61452bbe86c21c0347085911,2021-10-19_15h53.21.040,forced_choiceRT,2021.1.2,Win32,60.04563468,,,,,,,,8,Fast,h,0,1.8606,0,1,1,0,1,,,,,
,1.41,,,,,,,,,h.PNG,h,61452bbe86c21c0347085911,2021-10-19_15h53.21.040,forced_choiceRT,2021.1.2,Win32,60.04563468,,,,,,,,8,Ontime,f,0,1.9331,0,2,2,2,1,,,,,
,1.83,,,,,,,,,h.PNG,h,61452bbe86c21c0347085911,2021-10-19_15h53.21.040,forced_choiceRT,2021.1.2,Win32,60.04563468,,,,,,,,8,Ontime,j,0,1.9496,0,3,3,2,1,,,,,
,0.36,,,,,,,,,j.PNG,j,61452bbe86c21c0347085911,2021-10-19_15h53.21.040,forced_choiceRT,2021.1.2,Win32,60.04563468,,,,,,,,8,Fast,j,1,1.8914,1,0,4,3,1,,,,,
,0.42,,,,,,,,,j.PNG,j,61452bbe86c21c0347085911,2021-10-19_15h53.21.040,forced_choiceRT,2021.1.2,Win32,60.04563468,,,,,,,,8,Ontime,j,1,1.9506,1,1,5,3,1,,,,,
,1.03,,,,,,,,,h.PNG,h,61452bbe86c21c0347085911,2021-10-19_15h53.21.040,forced_choiceRT,2021.1.2,Win32,60.04563468,,,,,,,,8,Ontime,h,1,2.0186,1,2,6,2,1,,,,,
,1.14,,,,,,,,,g.PNG,g,61452bbe86c21c0347085911,2021-10-19_15h53.21.040,forced_choiceRT,2021.1.2,Win32,60.04563468,,,,,,,,8,Ontime,g,1,1.9529,1,3,7,1,1,,,,,
,0.6,,,,,,,,,h.PNG,h,61452bbe86c21c0347085911,2021-10-19_15h53.21.040,forced_choiceRT,2021.1.2,Win32,60.04563468,,,,,,,,8,Ontime,h,1,2.0346,2,0,8,2,1,,,,,
,0.06,,,,,,,,,f.PNG,f,61452bbe86c21c0347085911,2021-10-19_15h53.21.040,forced_choiceRT,2021.1.2,Win32,60.04563468,,,,,,,,8,Ontime,f,1,2.0767,2,1,9,0,1,,,,,
,0.16,,,,,,,,,j.PNG,j,61452bbe86c21c0347085911,2021-10-19_15h53.21.040,forced_choiceRT,2021.1.2,Win32,60.04563468,,,,,,,,8,Ontime,j,1,2.0514,2,2,10,3,1,,,,,
,1.22,,,,,,,,,f.PNG,f,61452bbe86c21c0347085911,2021-10-19_15h53.21.040,forced_choiceRT,2021.1.2,Win32,60.04563468,,,,,,,,8,Ontime,f,1,2.0664,2,3,11,0,1,,,,,
,1.69,,,,,,,,,h.PNG,h,61452bbe86c21c0347085911,2021-10-19_15h53.21.040,forced_choiceRT,2021.1.2,Win32,60.04563468,,,,,,,,8,Ontime,f,0,2,3,0,12,2,1,,,,,
,1.67,,,,,,,,,h.PNG,h,61452bbe86c21c0347085911,2021-10-19_15h53.21.040,forced_choiceRT,2021.1.2,Win32,60.04563468,,,,,,,,8,Ontime,h,1,1.9487,3,1,13,2,1,,,,,
,0.76,,,,,,,,,j.PNG,j,61452bbe86c21c0347085911,2021-10-19_15h53.21.040,forced_choiceRT,2021.1.2,Win32,60.04563468,,,,,,,,8,Ontime,j,1,1.9762,3,2,14,3,1,,,,,
,1.09,,,,,,,,,h.PNG,h,61452bbe86c21c0347085911,2021-10-19_15h53.21.040,forced_choiceRT,2021.1.2,Win32,60.04563468,,,,,,,,8,Ontime,h,1,2.0332,3,3,15,2,1,,,,,
,0.4,,,,,,,,,g.PNG,g,61452bbe86c21c0347085911,2021-10-19_15h53.21.040,forced_choiceRT,2021.1.2,Win32,60.04563468,,,,,,,,8,Ontime,g,1,1.9501,4,0,16,1,1,,,,,
,1.24,,,,,,,,,f.PNG,f,61452bbe86c21c0347085911,2021-10-19_15h53.21.040,forced_choiceRT,2021.1.2,Win32,60.04563468,,,,,,,,8,Slow,f,1,2.1198,4,1,17,0,1,,,,,
,1.29,,,,,,,,,g.PNG,g,61452bbe86c21c0347085911,2021-10-19_15h53.21.040,forced_choiceRT,2021.1.2,Win32,60.04563468,,,,,,,,8,Slow,g,1,2.1495,4,2,18,1,1,,,,,
,0.94,,,,,,,,,g.PNG,g,61452bbe86c21c0347085911,2021-10-19_15h53.21.040,forced_choiceRT,2021.1.2,Win32,60.04563468,,,,,,,,8,Fast,g,1,1.8662,4,3,19,1,1,,,,,
,1.41,,,,,,,,,f.PNG,f,61452bbe86c21c0347085911,2021-10-19_15h53.21.040,forced_choiceRT,2021.1.2,Win32,60.04563468,,,,,,,,8,Ontime,j,0,2.0544,5,0,20,0,1,,,,,
,0.9,,,,,,,,,f.PNG,f,61452bbe86c21c0347085911,2021-10-19_15h53.21.040,forced_choiceRT,2021.1.2,Win32,60.04563468,,,,,,,,8,Ontime,f,1,2.0432,5,1,21,0,1,,,,,
,1.9,,,,,,,,,j.PNG,j,61452bbe86c21c0347085911,2021-10-19_15h53.21.040,forced_choiceRT,2021.1.2,Win32,60.04563468,,,,,,,,8,Ontime,j,1,1.9171,5,2,22,3,1,,,,,
,1.07,,,,,,,,,f.PNG,f,61452bbe86c21c0347085911,2021-10-19_15h53.21.040,forced_choiceRT,2021.1.2,Win32,60.04563468,,,,,,,,8,Ontime,f,1,2.0024,5,3,23,0,1,,,,,
,1.85,,,,,,,,,g.PNG,g,61452bbe86c21c0347085911,2021-10-19_15h53.21.040,forced_choiceRT,2021.1.2,Win32,60.04563468,,,,,,,,8,Ontime,j,0,1.9237,6,0,24,1,1,,,,,
,0.15,,,,,,,,,j.PNG,j,61452bbe86c21c0347085911,2021-10-19_15h53.21.040,forced_choiceRT,2021.1.2,Win32,60.04563468,,,,,,,,8,Ontime,j,1,2.0171,6,1,25,3,1,,,,,
,1.12,,,,,,,,,g.PNG,g,61452bbe86c21c0347085911,2021-10-19_15h53.21.040,forced_choiceRT,2021.1.2,Win32,60.04563468,,,,,,,,8,Ontime,g,1,1.9664,6,2,26,1,1,,,,,
,0.38,,,,,,,,,f.PNG,f,61452bbe86c21c0347085911,2021-10-19_15h53.21.040,forced_choiceRT,2021.1.2,Win32,60.04563468,,,,,,,,8,Ontime,f,1,2.0255,6,3,27,0,1,,,,,
,0.17,,,,,,,,,j.PNG,j,61452bbe86c21c0347085911,2021-10-19_15h53.21.040,forced_choiceRT,2021.1.2,Win32,60.04563468,,,,,,,,8,Ontime,j,1,1.9995,7,0,28,3,1,,,,,
,0.63,,,,,,,,,h.PNG,h,61452bbe86c21c0347085911,2021-10-19_15h53.21.040,forced_choiceRT,2021.1.2,Win32,60.04563468,,,,,,,,8,Ontime,h,1,1.9691,7,1,29,2,1,,,,,
,1.45,,,,,,,,,f.PNG,f,61452bbe86c21c0347085911,2021-10-19_15h53.21.040,forced_choiceRT,2021.1.2,Win32,60.04563468,,,,,,,,8,Slow,f,1,2.2331,7,2,30,0,1,,,,,
,0.17,,,,,,,,,g.PNG,g,61452bbe86c21c0347085911,2021-10-19_15h53.21.040,forced_choiceRT,2021.1.2,Win32,60.04563468,,,,,,,,8,Ontime,g,1,1.9663,7,3,31,1,1,,,,,
,0.2,,,,,,,,,g.PNG,g,61452bbe86c21c0347085911,2021-10-19_15h53.21.040,forced_choiceRT,2021.1.2,Win32,60.04563468,,,,,,,,8,Slow,g,1,2.1005,8,0,32,1,1,,,,,
,1.75,,,,,,,,,j.PNG,j,61452bbe86c21c0347085911,2021-10-19_15h53.21.040,forced_choiceRT,2021.1.2,Win32,60.04563468,,,,,,,,8,Ontime,h,0,1.9761,8,1,33,3,1,,,,,
,0.55,,,,,,,,,h.PNG,h,61452bbe86c21c0347085911,2021-10-19_15h53.21.040,forced_choiceRT,2021.1.2,Win32,60.04563468,,,,,,,,8,Ontime,h,1,1.9835,8,2,34,2,1,,,,,
,1.1,,,,,,,,,h.PNG,h,61452bbe86c21c0347085911,2021-10-19_15h53.21.040,forced_choiceRT,2021.1.2,Win32,60.04563468,,,,,,,,8,Ontime,h,1,1.9566,8,3,35,2,1,,,,,
,1.08,,,,,,,,,f.PNG,f,61452bbe86c21c0347085911,2021-10-19_15h53.21.040,forced_choiceRT,2021.1.2,Win32,60.04563468,,,,,,,,8,Ontime,f,1,1.9497,9,0,36,0,1,,,,,
,0.13,,,,,,,,,g.PNG,g,61452bbe86c21c0347085911,2021-10-19_15h53.21.040,forced_choiceRT,2021.1.2,Win32,60.04563468,,,,,,,,8,Fast,g,1,1.8879,9,1,37,1,1,,,,,
,0.1,,,,,,,,,j.PNG,j,61452bbe86c21c0347085911,2021-10-19_15h53.21.040,forced_choiceRT,2021.1.2,Win32,60.04563468,,,,,,,,8,Fast,j,1,1.8406,9,2,38,3,1,,,,,
,0.08,,,,,,,,,g.PNG,g,61452bbe86c21c0347085911,2021-10-19_15h53.21.040,forced_choiceRT,2021.1.2,Win32,60.04563468,,,,,,,,8,Ontime,g,1,2.0186,9,3,39,1,1,,,,,
,,,,,,,,,,,,61452bbe86c21c0347085911,2021-10-19_15h53.21.040,forced_choiceRT,2021.1.2,Win32,60.04563468,,,,,,,,,,,,,,,,,,7,0,7,0,1
,0.95,,,,,,,,,f.PNG,f,61452bbe86c21c0347085911,2021-10-19_15h53.21.040,forced_choiceRT,2021.1.2,Win32,60.04563468,,,,,,,,9,Ontime,f,1,1.9826,0,0,0,0,1,,,,,
,0.83,,,,,,,,,j.PNG,j,61452bbe86c21c0347085911,2021-10-19_15h53.21.040,forced_choiceRT,2021.1.2,Win32,60.04563468,,,,,,,,9,Fast,j,1,1.7861,0,1,1,3,1,,,,,
,1.57,,,,,,,,,h.PNG,h,61452bbe86c21c0347085911,2021-10-19_15h53.21.040,forced_choiceRT,2021.1.2,Win32,60.04563468,,,,,,,,9,Fast,j,0,1.8718,0,2,2,2,1,,,,,
,0.9,,,,,,,,,h.PNG,h,61452bbe86c21c0347085911,2021-10-19_15h53.21.040,forced_choiceRT,2021.1.2,Win32,60.04563468,,,,,,,,9,Ontime,h,1,2.0093,0,3,3,2,1,,,,,
,0.06,,,,,,,,,j.PNG,j,61452bbe86c21c0347085911,2021-10-19_15h53.21.040,forced_choiceRT,2021.1.2,Win32,60.04563468,,,,,,,,9,Ontime,j,1,2.0013,1,0,4,3,1,,,,,
,0.31,,,,,,,,,f.PNG,f,61452bbe86c21c0347085911,2021-10-19_15h53.21.040,forced_choiceRT,2021.1.2,Win32,60.04563468,,,,,,,,9,Ontime,f,1,2.0662,1,1,5,0,1,,,,,
,0.89,,,,,,,,,g.PNG,g,61452bbe86c21c0347085911,2021-10-19_15h53.21.040,forced_choiceRT,2021.1.2,Win32,60.04563468,,,,,,,,9,Ontime,g,1,1.9859,1,2,6,1,1,,,,,
,0.08,,,,,,,,,g.PNG,g,61452bbe86c21c0347085911,2021-10-19_15h53.21.040,forced_choiceRT,2021.1.2,Win32,60.04563468,,,,,,,,9,Ontime,g,1,1.9746,1,3,7,1,1,,,,,
,0.17,,,,,,,,,g.PNG,g,61452bbe86c21c0347085911,2021-10-19_15h53.21.040,forced_choiceRT,2021.1.2,Win32,60.04563468,,,,,,,,9,Ontime,g,1,2.0526,2,0,8,1,1,,,,,
,0.02,,,,,,,,,f.PNG,f,61452bbe86c21c0347085911,2021-10-19_15h53.21.040,forced_choiceRT,2021.1.2,Win32,60.04563468,,,,,,,,9,Ontime,f,1,1.9573,2,1,9,0,1,,,,,
,1.35,,,,,,,,,g.PNG,g,61452bbe86c21c0347085911,2021-10-19_15h53.21.040,forced_choiceRT,2021.1.2,Win32,60.04563468,,,,,,,,9,Ontime,g,1,2.0707,2,2,10,1,1,,,,,
,1.02,,,,,,,,,f.PNG,f,61452bbe86c21c0347085911,2021-10-19_15h53.21.040,forced_choiceRT,2021.1.2,Win32,60.04563468,,,,,,,,9,Fast,f,1,1.8831,2,3,11,0,1,,,,,
,1.58,,,,,,,,,h.PNG,h,61452bbe86c21c0347085911,2021-10-19_15h53.21.040,forced_choiceRT,2021.1.2,Win32,60.04563468,,,,,,,,9,Slow,h,1,2.1878,3,0,12,2,1,,,,,
,0.21,,,,,,,,,h.PNG,h,61452bbe86c21c0347085911,2021-10-19_15h53.21.040,forced_choiceRT,2021.1.2,Win32,60.04563468,,,,,,,,9,Ontime,h,1,1.9434,3,1,13,2,1,,,,,
,0.99,,,,,,,,,h.PNG,h,61452bbe86c21c0347085911,2021-10-19_15h53.21.040,forced_choiceRT,2021.1.2,Win32,60.04563468,,,,,,,,9,Ontime,h,1,1.943,3,2,14,2,1,,,,,
,1.08,,,,,,,,,g.PNG,g,61452bbe86c21c0347085911,2021-10-19_15h53.21.040,forced_choiceRT,2021.1.2,Win32,60.04563468,,,,,,,,9,Ontime,h,0,1.9348,3,3,15,1,1,,,,,
,0.56,,,,,,,,,f.PNG,f,61452bbe86c21c0347085911,2021-10-19_15h53.21.040,forced_choiceRT,2021.1.2,Win32,60.04563468,,,,,,,,9,Ontime,f,1,2.0167,4,0,16,0,1,,,,,
,0.1,,,,,,,,,j.PNG,j,61452bbe86c21c0347085911,2021-10-19_15h53.21.040,forced_choiceRT,2021.1.2,Win32,60.04563468,,,,,,,,9,Ontime,j,1,2.0389,4,1,17,3,1,,,,,
,1.54,,,,,,,,,h.PNG,h,61452bbe86c21c0347085911,2021-10-19_15h53.21.040,forced_choiceRT,2021.1.2,Win32,60.04563468,,,,,,,,9,Ontime,h,1,2.0999,4,2,18,2,1,,,,,
,1.08,,,,,,,,,j.PNG,j,61452bbe86c21c0347085911,2021-10-19_15h53.21.040,forced_choiceRT,2021.1.2,Win32,60.04563468,,,,,,,,9,Ontime,j,1,2.0878,4,3,19,3,1,,,,,
,0.55,,,,,,,,,f.PNG,f,61452bbe86c21c0347085911,2021-10-19_15h53.21.040,forced_choiceRT,2021.1.2,Win32,60.04563468,,,,,,,,9,Ontime,f,1,2.07,5,0,20,0,1,,,,,
,1.2,,,,,,,,,g.PNG,g,61452bbe86c21c0347085911,2021-10-19_15h53.21.040,forced_choiceRT,2021.1.2,Win32,60.04563468,,,,,,,,9,Ontime,g,1,2.0927,5,1,21,1,1,,,,,
,0.85,,,,,,,,,h.PNG,h,61452bbe86c21c0347085911,2021-10-19_15h53.21.040,forced_choiceRT,2021.1.2,Win32,60.04563468,,,,,,,,9,Ontime,h,1,1.9499,5,2,22,2,1,,,,,
,0.87,,,,,,,,,h.PNG,h,61452bbe86c21c0347085911,2021-10-19_15h53.21.040,forced_choiceRT,2021.1.2,Win32,60.04563468,,,,,,,,9,Ontime,h,1,2.0328,5,3,23,2,1,,,,,
,0,,,,,,,,,f.PNG,f,61452bbe86c21c0347085911,2021-10-19_15h53.21.040,forced_choiceRT,2021.1.2,Win32,60.04563468,,,,,,,,9,Ontime,f,1,2.0667,6,0,24,0,1,,,,,
,1.03,,,,,,,,,j.PNG,j,61452bbe86c21c0347085911,2021-10-19_15h53.21.040,forced_choiceRT,2021.1.2,Win32,60.04563468,,,,,,,,9,Ontime,j,1,1.9332,6,1,25,3,1,,,,,
,1.67,,,,,,,,,f.PNG,f,61452bbe86c21c0347085911,2021-10-19_15h53.21.040,forced_choiceRT,2021.1.2,Win32,60.04563468,,,,,,,,9,Ontime,h,0,2.0663,6,2,26,0,1,,,,,
,0.77,,,,,,,,,h.PNG,h,61452bbe86c21c0347085911,2021-10-19_15h53.21.040,forced_choiceRT,2021.1.2,Win32,60.04563468,,,,,,,,9,Ontime,h,1,1.9881,6,3,27,2,1,,,,,
,1.03,,,,,,,,,g.PNG,g,61452bbe86c21c0347085911,2021-10-19_15h53.21.040,forced_choiceRT,2021.1.2,Win32,60.04563468,,,,,,,,9,Ontime,g,1,1.9868,7,0,28,1,1,,,,,
,1.86,,,,,,,,,g.PNG,g,61452bbe86c21c0347085911,2021-10-19_15h53.21.040,forced_choiceRT,2021.1.2,Win32,60.04563468,,,,,,,,9,Slow,f,0,2.1326,7,1,29,1,1,,,,,
,0.28,,,,,,,,,h.PNG,h,61452bbe86c21c0347085911,2021-10-19_15h53.21.040,forced_choiceRT,2021.1.2,Win32,60.04563468,,,,,,,,9,Ontime,h,1,1.9938,7,2,30,2,1,,,,,
,1.12,,,,,,,,,j.PNG,j,61452bbe86c21c0347085911,2021-10-19_15h53.21.040,forced_choiceRT,2021.1.2,Win32,60.04563468,,,,,,,,9,Ontime,j,1,2.0232,7,3,31,3,1,,,,,
,1.81,,,,,,,,,f.PNG,f,61452bbe86c21c0347085911,2021-10-19_15h53.21.040,forced_choiceRT,2021.1.2,Win32,60.04563468,,,,,,,,9,Ontime,h,0,2.0498,8,0,32,0,1,,,,,
,1.47,,,,,,,,,j.PNG,j,61452bbe86c21c0347085911,2021-10-19_15h53.21.040,forced_choiceRT,2021.1.2,Win32,60.04563468,,,,,,,,9,Slow,j,1,2.2878,8,1,33,3,1,,,,,
,0.5,,,,,,,,,f.PNG,f,61452bbe86c21c0347085911,2021-10-19_15h53.21.040,forced_choiceRT,2021.1.2,Win32,60.04563468,,,,,,,,9,Ontime,f,1,1.9163,8,2,34,0,1,,,,,
,1.08,,,,,,,,,j.PNG,j,61452bbe86c21c0347085911,2021-10-19_15h53.21.040,forced_choiceRT,2021.1.2,Win32,60.04563468,,,,,,,,9,Ontime,j,1,1.9515,8,3,35,3,1,,,,,
,1.31,,,,,,,,,g.PNG,g,61452bbe86c21c0347085911,2021-10-19_15h53.21.040,forced_choiceRT,2021.1.2,Win32,60.04563468,,,,,,,,9,Ontime,g,1,2.0496,9,0,36,1,1,,,,,
,1.34,,,,,,,,,j.PNG,j,61452bbe86c21c0347085911,2021-10-19_15h53.21.040,forced_choiceRT,2021.1.2,Win32,60.04563468,,,,,,,,9,Slow,j,1,2.1569,9,1,37,3,1,,,,,
,1.23,,,,,,,,,g.PNG,g,61452bbe86c21c0347085911,2021-10-19_15h53.21.040,forced_choiceRT,2021.1.2,Win32,60.04563468,,,,,,,,9,Ontime,g,1,1.9163,9,2,38,1,1,,,,,
,1.18,,,,,,,,,j.PNG,j,61452bbe86c21c0347085911,2021-10-19_15h53.21.040,forced_choiceRT,2021.1.2,Win32,60.04563468,,,,,,,,9,Fast,j,1,1.8765,9,3,39,3,1,,,,,
,,,,,,,,,,,,61452bbe86c21c0347085911,2021-10-19_15h53.21.040,forced_choiceRT,2021.1.2,Win32,60.04563468,,,,,,,,,,,,,,,,,,8,0,8,0,1
,0.34,,,,,,,,,f.PNG,f,61452bbe86c21c0347085911,2021-10-19_15h53.21.040,forced_choiceRT,2021.1.2,Win32,60.04563468,,,,,,,,10,Ontime,f,1,1.9496,0,0,0,0,1,,,,,
,0.69,,,,,,,,,f.PNG,f,61452bbe86c21c0347085911,2021-10-19_15h53.21.040,forced_choiceRT,2021.1.2,Win32,60.04563468,,,,,,,,10,Ontime,f,1,1.983,0,1,1,0,1,,,,,
,1.05,,,,,,,,,g.PNG,g,61452bbe86c21c0347085911,2021-10-19_15h53.21.040,forced_choiceRT,2021.1.2,Win32,60.04563468,,,,,,,,10,Ontime,g,1,1.9711,0,2,2,1,1,,,,,
,0.72,,,,,,,,,j.PNG,j,61452bbe86c21c0347085911,2021-10-19_15h53.21.040,forced_choiceRT,2021.1.2,Win32,60.04563468,,,,,,,,10,Ontime,j,1,1.971,0,3,3,3,1,,,,,
,1.66,,,,,,,,,h.PNG,h,61452bbe86c21c0347085911,2021-10-19_15h53.21.040,forced_choiceRT,2021.1.2,Win32,60.04563468,,,,,,,,10,Slow,h,1,2.207,1,0,4,2,1,,,,,
,1.62,,,,,,,,,f.PNG,f,61452bbe86c21c0347085911,2021-10-19_15h53.21.040,forced_choiceRT,2021.1.2,Win32,60.04563468,,,,,,,,10,Fast,h,0,1.8998,1,1,5,0,1,,,,,
,0.44,,,,,,,,,h.PNG,h,61452bbe86c21c0347085911,2021-10-19_15h53.21.040,forced_choiceRT,2021.1.2,Win32,60.04563468,,,,,,,,10,Ontime,h,1,2.0566,1,2,6,2,1,,,,,
,0.87,,,,,,,,,h.PNG,h,61452bbe86c21c0347085911,2021-10-19_15h53.21.040,forced_choiceRT,2021.1.2,Win32,60.04563468,,,,,,,,10,Ontime,h,1,2.0163,1,3,7,2,1,,,,,
,0.01,,,,,,,,,j.PNG,j,61452bbe86c21c0347085911,2021-10-19_15h53.21.040,forced_choiceRT,2021.1.2,Win32,60.04563468,,,,,,,,10,Fast,j,1,1.8831,2,0,8,3,1,,,,,
,0.88,,,,,,,,,f.PNG,f,61452bbe86c21c0347085911,2021-10-19_15h53.21.040,forced_choiceRT,2021.1.2,Win32,60.04563468,,,,,,,,10,Ontime,f,1,2.0331,2,1,9,0,1,,,,,
,1.69,,,,,,,,,g.PNG,g,61452bbe86c21c0347085911,2021-10-19_15h53.21.040,forced_choiceRT,2021.1.2,Win32,60.04563468,,,,,,,,10,Slow,j,0,2.1198,2,2,10,1,1,,,,,
,1.4,,,,,,,,,h.PNG,h,61452bbe86c21c0347085911,2021-10-19_15h53.21.040,forced_choiceRT,2021.1.2,Win32,60.04563468,,,,,,,,10,Slow,h,1,2.1016,2,3,11,2,1,,,,,
,0.6,,,,,,,,,j.PNG,j,61452bbe86c21c0347085911,2021-10-19_15h53.21.040,forced_choiceRT,2021.1.2,Win32,60.04563468,,,,,,,,10,Ontime,j,1,1.9699,3,0,12,3,1,,,,,
,0.88,,,,,,,,,j.PNG,j,61452bbe86c21c0347085911,2021-10-19_15h53.21.040,forced_choiceRT,2021.1.2,Win32,60.04563468,,,,,,,,10,Ontime,j,1,1.9924,3,1,13,3,1,,,,,
,0.2,,,,,,,,,g.PNG,g,61452bbe86c21c0347085911,2021-10-19_15h53.21.040,forced_choiceRT,2021.1.2,Win32,60.04563468,,,,,,,,10,Ontime,g,1,2.0416,3,2,14,1,1,,,,,
,1.61,,,,,,,,,j.PNG,j,61452bbe86c21c0347085911,2021-10-19_15h53.21.040,forced_choiceRT,2021.1.2,Win32,60.04563468,,,,,,,,10,Ontime,j,1,2.0065,3,3,15,3,1,,,,,
,0.21,,,,,,,,,f.PNG,f,61452bbe86c21c0347085911,2021-10-19_15h53.21.040,forced_choiceRT,2021.1.2,Win32,60.04563468,,,,,,,,10,Ontime,f,1,2.0338,4,0,16,0,1,,,,,
,0.42,,,,,,,,,f.PNG,f,61452bbe86c21c0347085911,2021-10-19_15h53.21.040,forced_choiceRT,2021.1.2,Win32,60.04563468,,,,,,,,10,Ontime,f,1,2.0408,4,1,17,0,1,,,,,
,1.82,,,,,,,,,j.PNG,j,61452bbe86c21c0347085911,2021-10-19_15h53.21.040,forced_choiceRT,2021.1.2,Win32,60.04563468,,,,,,,,10,Ontime,h,0,1.9662,4,2,18,3,1,,,,,
,1.23,,,,,,,,,j.PNG,j,61452bbe86c21c0347085911,2021-10-19_15h53.21.040,forced_choiceRT,2021.1.2,Win32,60.04563468,,,,,,,,10,Ontime,j,1,2.0321,4,3,19,3,1,,,,,
,1.88,,,,,,,,,h.PNG,h,61452bbe86c21c0347085911,2021-10-19_15h53.21.040,forced_choiceRT,2021.1.2,Win32,60.04563468,,,,,,,,10,Ontime,j,0,2.0675,5,0,20,2,1,,,,,
,0.62,,,,,,,,,j.PNG,j,61452bbe86c21c0347085911,2021-10-19_15h53.21.040,forced_choiceRT,2021.1.2,Win32,60.04563468,,,,,,,,10,Fast,j,1,1.7828,5,1,21,3,1,,,,,
,0.29,,,,,,,,,h.PNG,h,61452bbe86c21c0347085911,2021-10-19_15h53.21.040,forced_choiceRT,2021.1.2,Win32,60.04563468,,,,,,,,10,Ontime,h,1,1.9664,5,2,22,2,1,,,,,
,1.34,,,,,,,,,h.PNG,h,61452bbe86c21c0347085911,2021-10-19_15h53.21.040,forced_choiceRT,2021.1.2,Win32,60.04563468,,,,,,,,10,Slow,f,0,2.1004,5,3,23,2,1,,,,,
,1.63,,,,,,,,,g.PNG,g,61452bbe86c21c0347085911,2021-10-19_15h53.21.040,forced_choiceRT,2021.1.2,Win32,60.04563468,,,,,,,,10,Ontime,h,0,1.9421,6,0,24,1,1,,,,,
,0.7,,,,,,,,,h.PNG,h,61452bbe86c21c0347085911,2021-10-19_15h53.21.040,forced_choiceRT,2021.1.2,Win32,60.04563468,,,,,,,,10,Ontime,h,1,2.0603,6,1,25,2,1,,,,,
,0.68,,,,,,,,,g.PNG,g,61452bbe86c21c0347085911,2021-10-19_15h53.21.040,forced_choiceRT,2021.1.2,Win32,60.04563468,,,,,,,,10,Slow,g,1,2.1001,6,2,26,1,1,,,,,
,0.18,,,,,,,,,f.PNG,f,61452bbe86c21c0347085911,2021-10-19_15h53.21.040,forced_choiceRT,2021.1.2,Win32,60.04563468,,,,,,,,10,Ontime,f,1,2.05,6,3,27,0,1,,,,,
,0.38,,,,,,,,,g.PNG,g,61452bbe86c21c0347085911,2021-10-19_15h53.21.040,forced_choiceRT,2021.1.2,Win32,60.04563468,,,,,,,,10,Ontime,g,1,2.035,7,0,28,1,1,,,,,
,0.65,,,,,,,,,g.PNG,g,61452bbe86c21c0347085911,2021-10-19_15h53.21.040,forced_choiceRT,2021.1.2,Win32,60.04563468,,,,,,,,10,Ontime,g,1,1.9911,7,1,29,1,1,,,,,
,1.49,,,,,,,,,j.PNG,j,61452bbe86c21c0347085911,2021-10-19_15h53.21.040,forced_choiceRT,2021.1.2,Win32,60.04563468,,,,,,,,10,Ontime,h,0,2.0995,7,2,30,3,1,,,,,
,1.06,,,,,,,,,g.PNG,g,61452bbe86c21c0347085911,2021-10-19_15h53.21.040,forced_choiceRT,2021.1.2,Win32,60.04563468,,,,,,,,10,Ontime,g,1,1.9663,7,3,31,1,1,,,,,
,1.38,,,,,,,,,g.PNG,g,61452bbe86c21c0347085911,2021-10-19_15h53.21.040,forced_choiceRT,2021.1.2,Win32,60.04563468,,,,,,,,10,Ontime,g,1,2.0542,8,0,32,1,1,,,,,
,0.64,,,,,,,,,h.PNG,h,61452bbe86c21c0347085911,2021-10-19_15h53.21.040,forced_choiceRT,2021.1.2,Win32,60.04563468,,,,,,,,10,Ontime,h,1,2.0035,8,1,33,2,1,,,,,
,0.96,,,,,,,,,g.PNG,g,61452bbe86c21c0347085911,2021-10-19_15h53.21.040,forced_choiceRT,2021.1.2,Win32,60.04563468,,,,,,,,10,Ontime,g,1,1.9402,8,2,34,1,1,,,,,
,1.62,,,,,,,,,f.PNG,f,61452bbe86c21c0347085911,2021-10-19_15h53.21.040,forced_choiceRT,2021.1.2,Win32,60.04563468,,,,,,,,10,Ontime,j,0,1.9665,8,3,35,0,1,,,,,
,1.87,,,,,,,,,h.PNG,h,61452bbe86c21c0347085911,2021-10-19_15h53.21.040,forced_choiceRT,2021.1.2,Win32,60.04563468,,,,,,,,10,Ontime,f,0,2.0693,9,0,36,2,1,,,,,
,0.02,,,,,,,,,f.PNG,f,61452bbe86c21c0347085911,2021-10-19_15h53.21.040,forced_choiceRT,2021.1.2,Win32,60.04563468,,,,,,,,10,Ontime,f,1,2.0176,9,1,37,0,1,,,,,
,1.02,,,,,,,,,f.PNG,f,61452bbe86c21c0347085911,2021-10-19_15h53.21.040,forced_choiceRT,2021.1.2,Win32,60.04563468,,,,,,,,10,Ontime,f,1,2.0344,9,2,38,0,1,,,,,
,0.89,,,,,,,,,j.PNG,j,61452bbe86c21c0347085911,2021-10-19_15h53.21.040,forced_choiceRT,2021.1.2,Win32,60.04563468,,,,,,,,10,Fast,j,1,1.8663,9,3,39,3,1,,,,,
,,,,,,,,,,,,61452bbe86c21c0347085911,2021-10-19_15h53.21.040,forced_choiceRT,2021.1.2,Win32,60.04563468,,,,,,,,,,,,,,,,,,9,0,9,0,1
