IP_Addresss,target_onset,trial_resp_sp.keys,trial_resp_sp.corr,trial_resp_sp.rt,trials_train_loop.thisRepN,trials_train_loop.thisTrialN,trials_train_loop.thisN,trials_train_loop.thisIndex,trials_train_loop.ran,pic,correct_key,participant,date,expName,psychopyVersion,OS,frameRate,trial_resp_timing.keys,trial_resp_timing.rt,trials_train_timing.thisRepN,trials_train_timing.thisTrialN,trials_train_timing.thisN,trials_train_timing.thisIndex,trials_train_timing.ran,block_id,ontime,forcedRT_resp.keys,forcedRT_resp.corr,forcedRT_resp.rt,trials.thisRepN,trials.thisTrialN,trials.thisN,trials.thisIndex,trials.ran,blocks.thisRepN,blocks.thisTrialN,blocks.thisN,blocks.thisIndex,blocks.ran
98.117.9.89,0,f,0,3.37,0,0,0,3,1,j.PNG,j,6149fe74f3ae7e973379aac3,2021-10-19_16h07.50.877,forced_choiceRT,2021.1.2,Win32,60.0240096,,,,,,,,,,,,,,,,,,,,,,
,0,f,1,4.225,0,1,1,0,1,f.PNG,f,6149fe74f3ae7e973379aac3,2021-10-19_16h07.50.877,forced_choiceRT,2021.1.2,Win32,60.0240096,,,,,,,,,,,,,,,,,,,,,,
,0,j,1,2.664,0,2,2,3,1,j.PNG,j,6149fe74f3ae7e973379aac3,2021-10-19_16h07.50.877,forced_choiceRT,2021.1.2,Win32,60.0240096,,,,,,,,,,,,,,,,,,,,,,
,0,g,1,1.885,0,3,3,1,1,g.PNG,g,6149fe74f3ae7e973379aac3,2021-10-19_16h07.50.877,forced_choiceRT,2021.1.2,Win32,60.0240096,,,,,,,,,,,,,,,,,,,,,,
,0,g,1,1.466,1,0,4,1,1,g.PNG,g,6149fe74f3ae7e973379aac3,2021-10-19_16h07.50.877,forced_choiceRT,2021.1.2,Win32,60.0240096,,,,,,,,,,,,,,,,,,,,,,
,0,f,1,0.653,1,1,5,0,1,f.PNG,f,6149fe74f3ae7e973379aac3,2021-10-19_16h07.50.877,forced_choiceRT,2021.1.2,Win32,60.0240096,,,,,,,,,,,,,,,,,,,,,,
,0,g,1,1.174,1,2,6,1,1,g.PNG,g,6149fe74f3ae7e973379aac3,2021-10-19_16h07.50.877,forced_choiceRT,2021.1.2,Win32,60.0240096,,,,,,,,,,,,,,,,,,,,,,
,0,g,1,0.749,1,3,7,1,1,g.PNG,g,6149fe74f3ae7e973379aac3,2021-10-19_16h07.50.877,forced_choiceRT,2021.1.2,Win32,60.0240096,,,,,,,,,,,,,,,,,,,,,,
,0,g,1,0.674,2,0,8,1,1,g.PNG,g,6149fe74f3ae7e973379aac3,2021-10-19_16h07.50.877,forced_choiceRT,2021.1.2,Win32,60.0240096,,,,,,,,,,,,,,,,,,,,,,
,0,g,1,0.558,2,1,9,1,1,g.PNG,g,6149fe74f3ae7e973379aac3,2021-10-19_16h07.50.877,forced_choiceRT,2021.1.2,Win32,60.0240096,,,,,,,,,,,,,,,,,,,,,,
,0,f,1,0.583,2,2,10,0,1,f.PNG,f,6149fe74f3ae7e973379aac3,2021-10-19_16h07.50.877,forced_choiceRT,2021.1.2,Win32,60.0240096,,,,,,,,,,,,,,,,,,,,,,
,0,h,1,0.816,2,3,11,2,1,h.PNG,h,6149fe74f3ae7e973379aac3,2021-10-19_16h07.50.877,forced_choiceRT,2021.1.2,Win32,60.0240096,,,,,,,,,,,,,,,,,,,,,,
,0,j,1,0.699,3,0,12,3,1,j.PNG,j,6149fe74f3ae7e973379aac3,2021-10-19_16h07.50.877,forced_choiceRT,2021.1.2,Win32,60.0240096,,,,,,,,,,,,,,,,,,,,,,
,0,f,1,0.625,3,1,13,0,1,f.PNG,f,6149fe74f3ae7e973379aac3,2021-10-19_16h07.50.877,forced_choiceRT,2021.1.2,Win32,60.0240096,,,,,,,,,,,,,,,,,,,,,,
,0,h,1,0.734,3,2,14,2,1,h.PNG,h,6149fe74f3ae7e973379aac3,2021-10-19_16h07.50.877,forced_choiceRT,2021.1.2,Win32,60.0240096,,,,,,,,,,,,,,,,,,,,,,
,0,g,1,0.641,3,3,15,1,1,g.PNG,g,6149fe74f3ae7e973379aac3,2021-10-19_16h07.50.877,forced_choiceRT,2021.1.2,Win32,60.0240096,,,,,,,,,,,,,,,,,,,,,,
,0,h,1,0.55,4,0,16,2,1,h.PNG,h,6149fe74f3ae7e973379aac3,2021-10-19_16h07.50.877,forced_choiceRT,2021.1.2,Win32,60.0240096,,,,,,,,,,,,,,,,,,,,,,
,0,h,1,0.669,4,1,17,2,1,h.PNG,h,6149fe74f3ae7e973379aac3,2021-10-19_16h07.50.877,forced_choiceRT,2021.1.2,Win32,60.0240096,,,,,,,,,,,,,,,,,,,,,,
,0,f,1,0.673,4,2,18,0,1,f.PNG,f,6149fe74f3ae7e973379aac3,2021-10-19_16h07.50.877,forced_choiceRT,2021.1.2,Win32,60.0240096,,,,,,,,,,,,,,,,,,,,,,
,0,g,1,0.924,4,3,19,1,1,g.PNG,g,6149fe74f3ae7e973379aac3,2021-10-19_16h07.50.877,forced_choiceRT,2021.1.2,Win32,60.0240096,,,,,,,,,,,,,,,,,,,,,,
,0,f,1,1.02,5,0,20,0,1,f.PNG,f,6149fe74f3ae7e973379aac3,2021-10-19_16h07.50.877,forced_choiceRT,2021.1.2,Win32,60.0240096,,,,,,,,,,,,,,,,,,,,,,
,0,f,1,0.85,5,1,21,0,1,f.PNG,f,6149fe74f3ae7e973379aac3,2021-10-19_16h07.50.877,forced_choiceRT,2021.1.2,Win32,60.0240096,,,,,,,,,,,,,,,,,,,,,,
,0,j,1,0.898,5,2,22,3,1,j.PNG,j,6149fe74f3ae7e973379aac3,2021-10-19_16h07.50.877,forced_choiceRT,2021.1.2,Win32,60.0240096,,,,,,,,,,,,,,,,,,,,,,
,0,g,1,1.299,5,3,23,1,1,g.PNG,g,6149fe74f3ae7e973379aac3,2021-10-19_16h07.50.877,forced_choiceRT,2021.1.2,Win32,60.0240096,,,,,,,,,,,,,,,,,,,,,,
,0,j,1,1.408,6,0,24,3,1,j.PNG,j,6149fe74f3ae7e973379aac3,2021-10-19_16h07.50.877,forced_choiceRT,2021.1.2,Win32,60.0240096,,,,,,,,,,,,,,,,,,,,,,
,0,h,1,0.974,6,1,25,2,1,h.PNG,h,6149fe74f3ae7e973379aac3,2021-10-19_16h07.50.877,forced_choiceRT,2021.1.2,Win32,60.0240096,,,,,,,,,,,,,,,,,,,,,,
,0,j,0,1.417,6,2,26,2,1,h.PNG,h,6149fe74f3ae7e973379aac3,2021-10-19_16h07.50.877,forced_choiceRT,2021.1.2,Win32,60.0240096,,,,,,,,,,,,,,,,,,,,,,
,0,f,1,0.715,6,3,27,0,1,f.PNG,f,6149fe74f3ae7e973379aac3,2021-10-19_16h07.50.877,forced_choiceRT,2021.1.2,Win32,60.0240096,,,,,,,,,,,,,,,,,,,,,,
,0,f,1,0.733,7,0,28,0,1,f.PNG,f,6149fe74f3ae7e973379aac3,2021-10-19_16h07.50.877,forced_choiceRT,2021.1.2,Win32,60.0240096,,,,,,,,,,,,,,,,,,,,,,
,0,h,1,0.733,7,1,29,2,1,h.PNG,h,6149fe74f3ae7e973379aac3,2021-10-19_16h07.50.877,forced_choiceRT,2021.1.2,Win32,60.0240096,,,,,,,,,,,,,,,,,,,,,,
,0,g,1,0.506,7,2,30,1,1,g.PNG,g,6149fe74f3ae7e973379aac3,2021-10-19_16h07.50.877,forced_choiceRT,2021.1.2,Win32,60.0240096,,,,,,,,,,,,,,,,,,,,,,
,0,j,1,0.804,7,3,31,3,1,j.PNG,j,6149fe74f3ae7e973379aac3,2021-10-19_16h07.50.877,forced_choiceRT,2021.1.2,Win32,60.0240096,,,,,,,,,,,,,,,,,,,,,,
,0,f,0,0.608,8,0,32,1,1,g.PNG,g,6149fe74f3ae7e973379aac3,2021-10-19_16h07.50.877,forced_choiceRT,2021.1.2,Win32,60.0240096,,,,,,,,,,,,,,,,,,,,,,
,0,h,0,1.021,8,1,33,3,1,j.PNG,j,6149fe74f3ae7e973379aac3,2021-10-19_16h07.50.877,forced_choiceRT,2021.1.2,Win32,60.0240096,,,,,,,,,,,,,,,,,,,,,,
,0,j,0,0.785,8,2,34,0,1,f.PNG,f,6149fe74f3ae7e973379aac3,2021-10-19_16h07.50.877,forced_choiceRT,2021.1.2,Win32,60.0240096,,,,,,,,,,,,,,,,,,,,,,
,0,g,0,2.016,8,3,35,3,1,j.PNG,j,6149fe74f3ae7e973379aac3,2021-10-19_16h07.50.877,forced_choiceRT,2021.1.2,Win32,60.0240096,,,,,,,,,,,,,,,,,,,,,,
,0,g,1,1.753,9,0,36,1,1,g.PNG,g,6149fe74f3ae7e973379aac3,2021-10-19_16h07.50.877,forced_choiceRT,2021.1.2,Win32,60.0240096,,,,,,,,,,,,,,,,,,,,,,
,0,h,1,1.175,9,1,37,2,1,h.PNG,h,6149fe74f3ae7e973379aac3,2021-10-19_16h07.50.877,forced_choiceRT,2021.1.2,Win32,60.0240096,,,,,,,,,,,,,,,,,,,,,,
,0,h,1,0.61,9,2,38,2,1,h.PNG,h,6149fe74f3ae7e973379aac3,2021-10-19_16h07.50.877,forced_choiceRT,2021.1.2,Win32,60.0240096,,,,,,,,,,,,,,,,,,,,,,
,0,j,1,0.498,9,3,39,3,1,j.PNG,j,6149fe74f3ae7e973379aac3,2021-10-19_16h07.50.877,forced_choiceRT,2021.1.2,Win32,60.0240096,,,,,,,,,,,,,,,,,,,,,,
,0,h,1,0.538,10,0,40,2,1,h.PNG,h,6149fe74f3ae7e973379aac3,2021-10-19_16h07.50.877,forced_choiceRT,2021.1.2,Win32,60.0240096,,,,,,,,,,,,,,,,,,,,,,
,0,g,1,0.566,10,1,41,1,1,g.PNG,g,6149fe74f3ae7e973379aac3,2021-10-19_16h07.50.877,forced_choiceRT,2021.1.2,Win32,60.0240096,,,,,,,,,,,,,,,,,,,,,,
,0,h,1,0.847,10,2,42,2,1,h.PNG,h,6149fe74f3ae7e973379aac3,2021-10-19_16h07.50.877,forced_choiceRT,2021.1.2,Win32,60.0240096,,,,,,,,,,,,,,,,,,,,,,
,0,j,1,0.8,10,3,43,3,1,j.PNG,j,6149fe74f3ae7e973379aac3,2021-10-19_16h07.50.877,forced_choiceRT,2021.1.2,Win32,60.0240096,,,,,,,,,,,,,,,,,,,,,,
,0,g,1,0.866,11,0,44,1,1,g.PNG,g,6149fe74f3ae7e973379aac3,2021-10-19_16h07.50.877,forced_choiceRT,2021.1.2,Win32,60.0240096,,,,,,,,,,,,,,,,,,,,,,
,0,h,1,0.848,11,1,45,2,1,h.PNG,h,6149fe74f3ae7e973379aac3,2021-10-19_16h07.50.877,forced_choiceRT,2021.1.2,Win32,60.0240096,,,,,,,,,,,,,,,,,,,,,,
,0,f,1,0.581,11,2,46,0,1,f.PNG,f,6149fe74f3ae7e973379aac3,2021-10-19_16h07.50.877,forced_choiceRT,2021.1.2,Win32,60.0240096,,,,,,,,,,,,,,,,,,,,,,
,0,j,1,0.648,11,3,47,3,1,j.PNG,j,6149fe74f3ae7e973379aac3,2021-10-19_16h07.50.877,forced_choiceRT,2021.1.2,Win32,60.0240096,,,,,,,,,,,,,,,,,,,,,,
,0,h,1,0.638,12,0,48,2,1,h.PNG,h,6149fe74f3ae7e973379aac3,2021-10-19_16h07.50.877,forced_choiceRT,2021.1.2,Win32,60.0240096,,,,,,,,,,,,,,,,,,,,,,
,0,j,1,0.833,12,1,49,3,1,j.PNG,j,6149fe74f3ae7e973379aac3,2021-10-19_16h07.50.877,forced_choiceRT,2021.1.2,Win32,60.0240096,,,,,,,,,,,,,,,,,,,,,,
,0,f,1,0.682,12,2,50,0,1,f.PNG,f,6149fe74f3ae7e973379aac3,2021-10-19_16h07.50.877,forced_choiceRT,2021.1.2,Win32,60.0240096,,,,,,,,,,,,,,,,,,,,,,
,0,h,1,0.756,12,3,51,2,1,h.PNG,h,6149fe74f3ae7e973379aac3,2021-10-19_16h07.50.877,forced_choiceRT,2021.1.2,Win32,60.0240096,,,,,,,,,,,,,,,,,,,,,,
,0,f,1,0.631,13,0,52,0,1,f.PNG,f,6149fe74f3ae7e973379aac3,2021-10-19_16h07.50.877,forced_choiceRT,2021.1.2,Win32,60.0240096,,,,,,,,,,,,,,,,,,,,,,
,0,h,1,0.603,13,1,53,2,1,h.PNG,h,6149fe74f3ae7e973379aac3,2021-10-19_16h07.50.877,forced_choiceRT,2021.1.2,Win32,60.0240096,,,,,,,,,,,,,,,,,,,,,,
,0,j,1,0.717,13,2,54,3,1,j.PNG,j,6149fe74f3ae7e973379aac3,2021-10-19_16h07.50.877,forced_choiceRT,2021.1.2,Win32,60.0240096,,,,,,,,,,,,,,,,,,,,,,
,0,g,1,0.602,13,3,55,1,1,g.PNG,g,6149fe74f3ae7e973379aac3,2021-10-19_16h07.50.877,forced_choiceRT,2021.1.2,Win32,60.0240096,,,,,,,,,,,,,,,,,,,,,,
,0,f,1,0.769,14,0,56,0,1,f.PNG,f,6149fe74f3ae7e973379aac3,2021-10-19_16h07.50.877,forced_choiceRT,2021.1.2,Win32,60.0240096,,,,,,,,,,,,,,,,,,,,,,
,0,j,1,1.265,14,1,57,3,1,j.PNG,j,6149fe74f3ae7e973379aac3,2021-10-19_16h07.50.877,forced_choiceRT,2021.1.2,Win32,60.0240096,,,,,,,,,,,,,,,,,,,,,,
,0,j,1,0.966,14,2,58,3,1,j.PNG,j,6149fe74f3ae7e973379aac3,2021-10-19_16h07.50.877,forced_choiceRT,2021.1.2,Win32,60.0240096,,,,,,,,,,,,,,,,,,,,,,
,0,f,1,0.653,14,3,59,0,1,f.PNG,f,6149fe74f3ae7e973379aac3,2021-10-19_16h07.50.877,forced_choiceRT,2021.1.2,Win32,60.0240096,,,,,,,,,,,,,,,,,,,,,,
,,,,,,,,,,,,6149fe74f3ae7e973379aac3,2021-10-19_16h07.50.877,forced_choiceRT,2021.1.2,Win32,60.0240096,j,5.126,0,0,0,0,1,,,,,,,,,,,,,,,
,,,,,,,,,,,,6149fe74f3ae7e973379aac3,2021-10-19_16h07.50.877,forced_choiceRT,2021.1.2,Win32,60.0240096,g,4.066,1,0,1,0,1,,,,,,,,,,,,,,,
,,,,,,,,,,,,6149fe74f3ae7e973379aac3,2021-10-19_16h07.50.877,forced_choiceRT,2021.1.2,Win32,60.0240096,f,5.316,2,0,2,0,1,,,,,,,,,,,,,,,
,,,,,,,,,,,,6149fe74f3ae7e973379aac3,2021-10-19_16h07.50.877,forced_choiceRT,2021.1.2,Win32,60.0240096,h,0.468,3,0,3,0,1,,,,,,,,,,,,,,,
,,,,,,,,,,,,6149fe74f3ae7e973379aac3,2021-10-19_16h07.50.877,forced_choiceRT,2021.1.2,Win32,60.0240096,j,0.755,4,0,4,0,1,,,,,,,,,,,,,,,
,,,,,,,,,,,,6149fe74f3ae7e973379aac3,2021-10-19_16h07.50.877,forced_choiceRT,2021.1.2,Win32,60.0240096,j,2.934,5,0,5,0,1,,,,,,,,,,,,,,,
,,,,,,,,,,,,6149fe74f3ae7e973379aac3,2021-10-19_16h07.50.877,forced_choiceRT,2021.1.2,Win32,60.0240096,h,0.735,6,0,6,0,1,,,,,,,,,,,,,,,
,,,,,,,,,,,,6149fe74f3ae7e973379aac3,2021-10-19_16h07.50.877,forced_choiceRT,2021.1.2,Win32,60.0240096,g,2.403,7,0,7,0,1,,,,,,,,,,,,,,,
,,,,,,,,,,,,6149fe74f3ae7e973379aac3,2021-10-19_16h07.50.877,forced_choiceRT,2021.1.2,Win32,60.0240096,g,2,8,0,8,0,1,,,,,,,,,,,,,,,
,,,,,,,,,,,,6149fe74f3ae7e973379aac3,2021-10-19_16h07.50.877,forced_choiceRT,2021.1.2,Win32,60.0240096,h,1.668,9,0,9,0,1,,,,,,,,,,,,,,,
,,,,,,,,,,,,6149fe74f3ae7e973379aac3,2021-10-19_16h07.50.877,forced_choiceRT,2021.1.2,Win32,60.0240096,g,1.384,10,0,10,0,1,,,,,,,,,,,,,,,
,,,,,,,,,,,,6149fe74f3ae7e973379aac3,2021-10-19_16h07.50.877,forced_choiceRT,2021.1.2,Win32,60.0240096,j,1.734,11,0,11,0,1,,,,,,,,,,,,,,,
,,,,,,,,,,,,6149fe74f3ae7e973379aac3,2021-10-19_16h07.50.877,forced_choiceRT,2021.1.2,Win32,60.0240096,f,2.083,12,0,12,0,1,,,,,,,,,,,,,,,
,,,,,,,,,,,,6149fe74f3ae7e973379aac3,2021-10-19_16h07.50.877,forced_choiceRT,2021.1.2,Win32,60.0240096,f,2.072,13,0,13,0,1,,,,,,,,,,,,,,,
,,,,,,,,,,,,6149fe74f3ae7e973379aac3,2021-10-19_16h07.50.877,forced_choiceRT,2021.1.2,Win32,60.0240096,j,2.108,14,0,14,0,1,,,,,,,,,,,,,,,
,,,,,,,,,,,,6149fe74f3ae7e973379aac3,2021-10-19_16h07.50.877,forced_choiceRT,2021.1.2,Win32,60.0240096,h,2.007,15,0,15,0,1,,,,,,,,,,,,,,,
,,,,,,,,,,,,6149fe74f3ae7e973379aac3,2021-10-19_16h07.50.877,forced_choiceRT,2021.1.2,Win32,60.0240096,h,1.968,16,0,16,0,1,,,,,,,,,,,,,,,
,,,,,,,,,,,,6149fe74f3ae7e973379aac3,2021-10-19_16h07.50.877,forced_choiceRT,2021.1.2,Win32,60.0240096,h,1.84,17,0,17,0,1,,,,,,,,,,,,,,,
,,,,,,,,,,,,6149fe74f3ae7e973379aac3,2021-10-19_16h07.50.877,forced_choiceRT,2021.1.2,Win32,60.0240096,j,2.117,18,0,18,0,1,,,,,,,,,,,,,,,
,,,,,,,,,,,,6149fe74f3ae7e973379aac3,2021-10-19_16h07.50.877,forced_choiceRT,2021.1.2,Win32,60.0240096,j,1.606,19,0,19,0,1,,,,,,,,,,,,,,,
,0.39,,,,,,,,,h.PNG,h,6149fe74f3ae7e973379aac3,2021-10-19_16h07.50.877,forced_choiceRT,2021.1.2,Win32,60.0240096,,,,,,,,1,Fast,g,0,1.551,0,0,0,2,1,,,,,
,1.72,,,,,,,,,j.PNG,j,6149fe74f3ae7e973379aac3,2021-10-19_16h07.50.877,forced_choiceRT,2021.1.2,Win32,60.0240096,,,,,,,,1,Slow,j,1,2.4,0,1,1,3,1,,,,,
,1.91,,,,,,,,,f.PNG,f,6149fe74f3ae7e973379aac3,2021-10-19_16h07.50.877,forced_choiceRT,2021.1.2,Win32,60.0240096,,,,,,,,1,Slow,f,1,2.406,0,2,2,0,1,,,,,
,1.07,,,,,,,,,f.PNG,f,6149fe74f3ae7e973379aac3,2021-10-19_16h07.50.877,forced_choiceRT,2021.1.2,Win32,60.0240096,,,,,,,,1,Fast,f,1,1.637,0,3,3,0,1,,,,,
,0.17,,,,,,,,,f.PNG,f,6149fe74f3ae7e973379aac3,2021-10-19_16h07.50.877,forced_choiceRT,2021.1.2,Win32,60.0240096,,,,,,,,1,Fast,f,1,1.572,1,0,4,0,1,,,,,
,1.97,,,,,,,,,g.PNG,g,6149fe74f3ae7e973379aac3,2021-10-19_16h07.50.877,forced_choiceRT,2021.1.2,Win32,60.0240096,,,,,,,,1,Slow,h,0,7.9,1,1,5,1,1,,,,,
,0.64,,,,,,,,,g.PNG,g,6149fe74f3ae7e973379aac3,2021-10-19_16h07.50.877,forced_choiceRT,2021.1.2,Win32,60.0240096,,,,,,,,1,Fast,g,1,1.618,1,2,6,1,1,,,,,
,1.62,,,,,,,,,h.PNG,h,6149fe74f3ae7e973379aac3,2021-10-19_16h07.50.877,forced_choiceRT,2021.1.2,Win32,60.0240096,,,,,,,,1,Ontime,j,0,1.933,1,3,7,2,1,,,,,
,0.91,,,,,,,,,h.PNG,h,6149fe74f3ae7e973379aac3,2021-10-19_16h07.50.877,forced_choiceRT,2021.1.2,Win32,60.0240096,,,,,,,,1,Fast,h,1,1.832,2,0,8,2,1,,,,,
,1.54,,,,,,,,,f.PNG,f,6149fe74f3ae7e973379aac3,2021-10-19_16h07.50.877,forced_choiceRT,2021.1.2,Win32,60.0240096,,,,,,,,1,Ontime,f,1,1.983,2,1,9,0,1,,,,,
,0.77,,,,,,,,,g.PNG,g,6149fe74f3ae7e973379aac3,2021-10-19_16h07.50.877,forced_choiceRT,2021.1.2,Win32,60.0240096,,,,,,,,1,Fast,h,0,1.636,2,2,10,1,1,,,,,
,1.79,,,,,,,,,h.PNG,h,6149fe74f3ae7e973379aac3,2021-10-19_16h07.50.877,forced_choiceRT,2021.1.2,Win32,60.0240096,,,,,,,,1,Slow,j,0,2.253,2,3,11,2,1,,,,,
,0.36,,,,,,,,,g.PNG,g,6149fe74f3ae7e973379aac3,2021-10-19_16h07.50.877,forced_choiceRT,2021.1.2,Win32,60.0240096,,,,,,,,1,Fast,h,0,1.567,3,0,12,1,1,,,,,
,1.83,,,,,,,,,j.PNG,j,6149fe74f3ae7e973379aac3,2021-10-19_16h07.50.877,forced_choiceRT,2021.1.2,Win32,60.0240096,,,,,,,,1,Slow,h,0,2.281,3,1,13,3,1,,,,,
,0.5,,,,,,,,,g.PNG,g,6149fe74f3ae7e973379aac3,2021-10-19_16h07.50.877,forced_choiceRT,2021.1.2,Win32,60.0240096,,,,,,,,1,Fast,h,0,1.635,3,2,14,1,1,,,,,
,1.18,,,,,,,,,g.PNG,g,6149fe74f3ae7e973379aac3,2021-10-19_16h07.50.877,forced_choiceRT,2021.1.2,Win32,60.0240096,,,,,,,,1,Fast,g,1,1.8,3,3,15,1,1,,,,,
,1.76,,,,,,,,,h.PNG,h,6149fe74f3ae7e973379aac3,2021-10-19_16h07.50.877,forced_choiceRT,2021.1.2,Win32,60.0240096,,,,,,,,1,Slow,h,1,2.315,4,0,16,2,1,,,,,
,0.29,,,,,,,,,g.PNG,g,6149fe74f3ae7e973379aac3,2021-10-19_16h07.50.877,forced_choiceRT,2021.1.2,Win32,60.0240096,,,,,,,,1,Fast,h,0,1.614,4,1,17,1,1,,,,,
,0.75,,,,,,,,,j.PNG,j,6149fe74f3ae7e973379aac3,2021-10-19_16h07.50.877,forced_choiceRT,2021.1.2,Win32,60.0240096,,,,,,,,1,Fast,j,1,1.897,4,2,18,3,1,,,,,
,0.12,,,,,,,,,g.PNG,g,6149fe74f3ae7e973379aac3,2021-10-19_16h07.50.877,forced_choiceRT,2021.1.2,Win32,60.0240096,,,,,,,,1,Fast,h,0,1.831,4,3,19,1,1,,,,,
,0.94,,,,,,,,,j.PNG,j,6149fe74f3ae7e973379aac3,2021-10-19_16h07.50.877,forced_choiceRT,2021.1.2,Win32,60.0240096,,,,,,,,1,Slow,j,1,2.2,5,0,20,3,1,,,,,
,1.92,,,,,,,,,j.PNG,j,6149fe74f3ae7e973379aac3,2021-10-19_16h07.50.877,forced_choiceRT,2021.1.2,Win32,60.0240096,,,,,,,,1,Ontime,j,1,1.934,5,1,21,3,1,,,,,
,0.32,,,,,,,,,f.PNG,f,6149fe74f3ae7e973379aac3,2021-10-19_16h07.50.877,forced_choiceRT,2021.1.2,Win32,60.0240096,,,,,,,,1,Fast,f,1,1.765,5,2,22,0,1,,,,,
,0.12,,,,,,,,,h.PNG,h,6149fe74f3ae7e973379aac3,2021-10-19_16h07.50.877,forced_choiceRT,2021.1.2,Win32,60.0240096,,,,,,,,1,Ontime,h,1,2.099,5,3,23,2,1,,,,,
,1.49,,,,,,,,,f.PNG,f,6149fe74f3ae7e973379aac3,2021-10-19_16h07.50.877,forced_choiceRT,2021.1.2,Win32,60.0240096,,,,,,,,1,Ontime,f,1,2.099,6,0,24,0,1,,,,,
,0.62,,,,,,,,,j.PNG,j,6149fe74f3ae7e973379aac3,2021-10-19_16h07.50.877,forced_choiceRT,2021.1.2,Win32,60.0240096,,,,,,,,1,Fast,h,0,1.782,6,1,25,3,1,,,,,
,1.94,,,,,,,,,f.PNG,f,6149fe74f3ae7e973379aac3,2021-10-19_16h07.50.877,forced_choiceRT,2021.1.2,Win32,60.0240096,,,,,,,,1,Slow,g,0,2.172,6,2,26,0,1,,,,,
,1.63,,,,,,,,,j.PNG,j,6149fe74f3ae7e973379aac3,2021-10-19_16h07.50.877,forced_choiceRT,2021.1.2,Win32,60.0240096,,,,,,,,1,Ontime,f,0,2.034,6,3,27,3,1,,,,,
,0.67,,,,,,,,,h.PNG,h,6149fe74f3ae7e973379aac3,2021-10-19_16h07.50.877,forced_choiceRT,2021.1.2,Win32,60.0240096,,,,,,,,1,Ontime,h,1,1.935,7,0,28,2,1,,,,,
,0.6,,,,,,,,,f.PNG,f,6149fe74f3ae7e973379aac3,2021-10-19_16h07.50.877,forced_choiceRT,2021.1.2,Win32,60.0240096,,,,,,,,1,Slow,f,1,2.184,7,1,29,0,1,,,,,
,0.07,,,,,,,,,h.PNG,h,6149fe74f3ae7e973379aac3,2021-10-19_16h07.50.877,forced_choiceRT,2021.1.2,Win32,60.0240096,,,,,,,,1,Fast,h,1,1.736,7,2,30,2,1,,,,,
,1.03,,,,,,,,,g.PNG,g,6149fe74f3ae7e973379aac3,2021-10-19_16h07.50.877,forced_choiceRT,2021.1.2,Win32,60.0240096,,,,,,,,1,Fast,h,0,1.799,7,3,31,1,1,,,,,
,0.95,,,,,,,,,h.PNG,h,6149fe74f3ae7e973379aac3,2021-10-19_16h07.50.877,forced_choiceRT,2021.1.2,Win32,60.0240096,,,,,,,,1,Slow,h,1,2.266,8,0,32,2,1,,,,,
,0.23,,,,,,,,,f.PNG,f,6149fe74f3ae7e973379aac3,2021-10-19_16h07.50.877,forced_choiceRT,2021.1.2,Win32,60.0240096,,,,,,,,1,Fast,f,1,1.667,8,1,33,0,1,,,,,
,1.99,,,,,,,,,f.PNG,f,6149fe74f3ae7e973379aac3,2021-10-19_16h07.50.877,forced_choiceRT,2021.1.2,Win32,60.0240096,,,,,,,,1,Slow,j,0,2.202,8,2,34,0,1,,,,,
,1.75,,,,,,,,,j.PNG,j,6149fe74f3ae7e973379aac3,2021-10-19_16h07.50.877,forced_choiceRT,2021.1.2,Win32,60.0240096,,,,,,,,1,Ontime,f,0,2.074,8,3,35,3,1,,,,,
,0.4,,,,,,,,,h.PNG,h,6149fe74f3ae7e973379aac3,2021-10-19_16h07.50.877,forced_choiceRT,2021.1.2,Win32,60.0240096,,,,,,,,1,Fast,h,1,1.722,9,0,36,2,1,,,,,
,0.33,,,,,,,,,j.PNG,j,6149fe74f3ae7e973379aac3,2021-10-19_16h07.50.877,forced_choiceRT,2021.1.2,Win32,60.0240096,,,,,,,,1,Fast,j,1,1.773,9,1,37,3,1,,,,,
,1.28,,,,,,,,,j.PNG,j,6149fe74f3ae7e973379aac3,2021-10-19_16h07.50.877,forced_choiceRT,2021.1.2,Win32,60.0240096,,,,,,,,1,Ontime,j,1,1.916,9,2,38,3,1,,,,,
,1.85,,,,,,,,,g.PNG,g,6149fe74f3ae7e973379aac3,2021-10-19_16h07.50.877,forced_choiceRT,2021.1.2,Win32,60.0240096,,,,,,,,1,Slow,j,0,2.254,9,3,39,1,1,,,,,
,,,,,,,,,,,,6149fe74f3ae7e973379aac3,2021-10-19_16h07.50.877,forced_choiceRT,2021.1.2,Win32,60.0240096,,,,,,,,,,,,,,,,,,0,0,0,0,1
,1.03,,,,,,,,,f.PNG,f,6149fe74f3ae7e973379aac3,2021-10-19_16h07.50.877,forced_choiceRT,2021.1.2,Win32,60.0240096,,,,,,,,2,Fast,f,1,1.711,0,0,0,0,1,,,,,
,0.87,,,,,,,,,j.PNG,j,6149fe74f3ae7e973379aac3,2021-10-19_16h07.50.877,forced_choiceRT,2021.1.2,Win32,60.0240096,,,,,,,,2,Ontime,j,1,2.084,0,1,1,3,1,,,,,
,0.76,,,,,,,,,g.PNG,g,6149fe74f3ae7e973379aac3,2021-10-19_16h07.50.877,forced_choiceRT,2021.1.2,Win32,60.0240096,,,,,,,,2,Fast,g,1,1.766,0,2,2,1,1,,,,,
,1.24,,,,,,,,,h.PNG,h,6149fe74f3ae7e973379aac3,2021-10-19_16h07.50.877,forced_choiceRT,2021.1.2,Win32,60.0240096,,,,,,,,2,Slow,h,1,2.101,0,3,3,2,1,,,,,
,0.84,,,,,,,,,f.PNG,f,6149fe74f3ae7e973379aac3,2021-10-19_16h07.50.877,forced_choiceRT,2021.1.2,Win32,60.0240096,,,,,,,,2,Fast,f,1,1.75,1,0,4,0,1,,,,,
,0.33,,,,,,,,,f.PNG,f,6149fe74f3ae7e973379aac3,2021-10-19_16h07.50.877,forced_choiceRT,2021.1.2,Win32,60.0240096,,,,,,,,2,Fast,f,1,1.766,1,1,5,0,1,,,,,
,1.59,,,,,,,,,f.PNG,f,6149fe74f3ae7e973379aac3,2021-10-19_16h07.50.877,forced_choiceRT,2021.1.2,Win32,60.0240096,,,,,,,,2,Slow,f,1,2.17,1,2,6,0,1,,,,,
,0.07,,,,,,,,,f.PNG,f,6149fe74f3ae7e973379aac3,2021-10-19_16h07.50.877,forced_choiceRT,2021.1.2,Win32,60.0240096,,,,,,,,2,Ontime,f,1,2.002,1,3,7,0,1,,,,,
,1.49,,,,,,,,,j.PNG,j,6149fe74f3ae7e973379aac3,2021-10-19_16h07.50.877,forced_choiceRT,2021.1.2,Win32,60.0240096,,,,,,,,2,Slow,h,0,2.151,2,0,8,3,1,,,,,
,0.1,,,,,,,,,j.PNG,j,6149fe74f3ae7e973379aac3,2021-10-19_16h07.50.877,forced_choiceRT,2021.1.2,Win32,60.0240096,,,,,,,,2,Fast,j,1,1.683,2,1,9,3,1,,,,,
,0.53,,,,,,,,,h.PNG,h,6149fe74f3ae7e973379aac3,2021-10-19_16h07.50.877,forced_choiceRT,2021.1.2,Win32,60.0240096,,,,,,,,2,Ontime,h,1,2.016,2,2,10,2,1,,,,,
,0.96,,,,,,,,,h.PNG,h,6149fe74f3ae7e973379aac3,2021-10-19_16h07.50.877,forced_choiceRT,2021.1.2,Win32,60.0240096,,,,,,,,2,Ontime,h,1,2.054,2,3,11,2,1,,,,,
,0.21,,,,,,,,,g.PNG,g,6149fe74f3ae7e973379aac3,2021-10-19_16h07.50.877,forced_choiceRT,2021.1.2,Win32,60.0240096,,,,,,,,2,Ontime,g,1,1.938,3,0,12,1,1,,,,,
,0.69,,,,,,,,,j.PNG,j,6149fe74f3ae7e973379aac3,2021-10-19_16h07.50.877,forced_choiceRT,2021.1.2,Win32,60.0240096,,,,,,,,2,Ontime,j,1,2.023,3,1,13,3,1,,,,,
,0.78,,,,,,,,,j.PNG,j,6149fe74f3ae7e973379aac3,2021-10-19_16h07.50.877,forced_choiceRT,2021.1.2,Win32,60.0240096,,,,,,,,2,Fast,j,1,1.821,3,2,14,3,1,,,,,
,1.89,,,,,,,,,h.PNG,h,6149fe74f3ae7e973379aac3,2021-10-19_16h07.50.877,forced_choiceRT,2021.1.2,Win32,60.0240096,,,,,,,,2,Slow,j,0,4.386,3,3,15,2,1,,,,,
,1.67,,,,,,,,,f.PNG,f,6149fe74f3ae7e973379aac3,2021-10-19_16h07.50.877,forced_choiceRT,2021.1.2,Win32,60.0240096,,,,,,,,2,Slow,f,1,2.133,4,0,16,0,1,,,,,
,1,,,,,,,,,j.PNG,j,6149fe74f3ae7e973379aac3,2021-10-19_16h07.50.877,forced_choiceRT,2021.1.2,Win32,60.0240096,,,,,,,,2,Ontime,h,0,1.967,4,1,17,3,1,,,,,
,1.19,,,,,,,,,g.PNG,g,6149fe74f3ae7e973379aac3,2021-10-19_16h07.50.877,forced_choiceRT,2021.1.2,Win32,60.0240096,,,,,,,,2,Ontime,g,1,2.003,4,2,18,1,1,,,,,
,0.79,,,,,,,,,h.PNG,h,6149fe74f3ae7e973379aac3,2021-10-19_16h07.50.877,forced_choiceRT,2021.1.2,Win32,60.0240096,,,,,,,,2,Fast,h,1,1.888,4,3,19,2,1,,,,,
,0.15,,,,,,,,,j.PNG,j,6149fe74f3ae7e973379aac3,2021-10-19_16h07.50.877,forced_choiceRT,2021.1.2,Win32,60.0240096,,,,,,,,2,Fast,j,1,1.699,5,0,20,3,1,,,,,
,1.48,,,,,,,,,g.PNG,g,6149fe74f3ae7e973379aac3,2021-10-19_16h07.50.877,forced_choiceRT,2021.1.2,Win32,60.0240096,,,,,,,,2,Ontime,g,1,2.083,5,1,21,1,1,,,,,
,0.54,,,,,,,,,f.PNG,f,6149fe74f3ae7e973379aac3,2021-10-19_16h07.50.877,forced_choiceRT,2021.1.2,Win32,60.0240096,,,,,,,,2,Ontime,f,1,2.006,5,2,22,0,1,,,,,
,1.98,,,,,,,,,f.PNG,f,6149fe74f3ae7e973379aac3,2021-10-19_16h07.50.877,forced_choiceRT,2021.1.2,Win32,60.0240096,,,,,,,,2,Slow,j,0,2.182,5,3,23,0,1,,,,,
,1.36,,,,,,,,,h.PNG,h,6149fe74f3ae7e973379aac3,2021-10-19_16h07.50.877,forced_choiceRT,2021.1.2,Win32,60.0240096,,,,,,,,2,Slow,h,1,2.236,6,0,24,2,1,,,,,
,0.61,,,,,,,,,g.PNG,g,6149fe74f3ae7e973379aac3,2021-10-19_16h07.50.877,forced_choiceRT,2021.1.2,Win32,60.0240096,,,,,,,,2,Fast,g,1,1.75,6,1,25,1,1,,,,,
,1.43,,,,,,,,,g.PNG,g,6149fe74f3ae7e973379aac3,2021-10-19_16h07.50.877,forced_choiceRT,2021.1.2,Win32,60.0240096,,,,,,,,2,Slow,g,1,2.104,6,2,26,1,1,,,,,
,0.59,,,,,,,,,f.PNG,f,6149fe74f3ae7e973379aac3,2021-10-19_16h07.50.877,forced_choiceRT,2021.1.2,Win32,60.0240096,,,,,,,,2,Fast,f,1,1.767,6,3,27,0,1,,,,,
,0.4,,,,,,,,,j.PNG,j,6149fe74f3ae7e973379aac3,2021-10-19_16h07.50.877,forced_choiceRT,2021.1.2,Win32,60.0240096,,,,,,,,2,Ontime,j,1,2.099,7,0,28,3,1,,,,,
,0.78,,,,,,,,,g.PNG,g,6149fe74f3ae7e973379aac3,2021-10-19_16h07.50.877,forced_choiceRT,2021.1.2,Win32,60.0240096,,,,,,,,2,Ontime,g,1,2.068,7,1,29,1,1,,,,,
,1.15,,,,,,,,,g.PNG,g,6149fe74f3ae7e973379aac3,2021-10-19_16h07.50.877,forced_choiceRT,2021.1.2,Win32,60.0240096,,,,,,,,2,Ontime,h,0,1.967,7,2,30,1,1,,,,,
,1.85,,,,,,,,,j.PNG,j,6149fe74f3ae7e973379aac3,2021-10-19_16h07.50.877,forced_choiceRT,2021.1.2,Win32,60.0240096,,,,,,,,2,Slow,g,0,2.216,7,3,31,3,1,,,,,
,0.11,,,,,,,,,g.PNG,g,6149fe74f3ae7e973379aac3,2021-10-19_16h07.50.877,forced_choiceRT,2021.1.2,Win32,60.0240096,,,,,,,,2,Fast,g,1,1.884,8,0,32,1,1,,,,,
,1.21,,,,,,,,,h.PNG,h,6149fe74f3ae7e973379aac3,2021-10-19_16h07.50.877,forced_choiceRT,2021.1.2,Win32,60.0240096,,,,,,,,2,Slow,h,1,2.165,8,1,33,2,1,,,,,
,1.71,,,,,,,,,h.PNG,h,6149fe74f3ae7e973379aac3,2021-10-19_16h07.50.877,forced_choiceRT,2021.1.2,Win32,60.0240096,,,,,,,,2,Slow,h,1,2.273,8,2,34,2,1,,,,,
,1.12,,,,,,,,,h.PNG,h,6149fe74f3ae7e973379aac3,2021-10-19_16h07.50.877,forced_choiceRT,2021.1.2,Win32,60.0240096,,,,,,,,2,Fast,h,1,1.831,8,3,35,2,1,,,,,
,0.93,,,,,,,,,g.PNG,g,6149fe74f3ae7e973379aac3,2021-10-19_16h07.50.877,forced_choiceRT,2021.1.2,Win32,60.0240096,,,,,,,,2,Ontime,g,1,2.073,9,0,36,1,1,,,,,
,1.31,,,,,,,,,j.PNG,j,6149fe74f3ae7e973379aac3,2021-10-19_16h07.50.877,forced_choiceRT,2021.1.2,Win32,60.0240096,,,,,,,,2,Ontime,h,0,1.967,9,1,37,3,1,,,,,
,1.85,,,,,,,,,h.PNG,h,6149fe74f3ae7e973379aac3,2021-10-19_16h07.50.877,forced_choiceRT,2021.1.2,Win32,60.0240096,,,,,,,,2,Slow,h,1,2.252,9,2,38,2,1,,,,,
,1.76,,,,,,,,,f.PNG,f,6149fe74f3ae7e973379aac3,2021-10-19_16h07.50.877,forced_choiceRT,2021.1.2,Win32,60.0240096,,,,,,,,2,Slow,h,0,2.116,9,3,39,0,1,,,,,
,,,,,,,,,,,,6149fe74f3ae7e973379aac3,2021-10-19_16h07.50.877,forced_choiceRT,2021.1.2,Win32,60.0240096,,,,,,,,,,,,,,,,,,1,0,1,0,1
,0.31,,,,,,,,,h.PNG,h,6149fe74f3ae7e973379aac3,2021-10-19_16h07.50.877,forced_choiceRT,2021.1.2,Win32,60.0240096,,,,,,,,3,Fast,h,1,1.498,0,0,0,2,1,,,,,
,0.62,,,,,,,,,h.PNG,h,6149fe74f3ae7e973379aac3,2021-10-19_16h07.50.877,forced_choiceRT,2021.1.2,Win32,60.0240096,,,,,,,,3,Fast,j,0,1.603,0,1,1,2,1,,,,,
,1.55,,,,,,,,,f.PNG,f,6149fe74f3ae7e973379aac3,2021-10-19_16h07.50.877,forced_choiceRT,2021.1.2,Win32,60.0240096,,,,,,,,3,Slow,f,1,2.152,0,2,2,0,1,,,,,
,1.56,,,,,,,,,h.PNG,h,6149fe74f3ae7e973379aac3,2021-10-19_16h07.50.877,forced_choiceRT,2021.1.2,Win32,60.0240096,,,,,,,,3,Slow,h,1,2.183,0,3,3,2,1,,,,,
,0.12,,,,,,,,,f.PNG,f,6149fe74f3ae7e973379aac3,2021-10-19_16h07.50.877,forced_choiceRT,2021.1.2,Win32,60.0240096,,,,,,,,3,Fast,f,1,1.583,1,0,4,0,1,,,,,
,1.15,,,,,,,,,j.PNG,j,6149fe74f3ae7e973379aac3,2021-10-19_16h07.50.877,forced_choiceRT,2021.1.2,Win32,60.0240096,,,,,,,,3,Fast,j,1,1.84,1,1,5,3,1,,,,,
,1.14,,,,,,,,,f.PNG,f,6149fe74f3ae7e973379aac3,2021-10-19_16h07.50.877,forced_choiceRT,2021.1.2,Win32,60.0240096,,,,,,,,3,Ontime,f,1,1.967,1,2,6,0,1,,,,,
,0.67,,,,,,,,,f.PNG,f,6149fe74f3ae7e973379aac3,2021-10-19_16h07.50.877,forced_choiceRT,2021.1.2,Win32,60.0240096,,,,,,,,3,Fast,f,1,1.749,1,3,7,0,1,,,,,
,0.76,,,,,,,,,g.PNG,g,6149fe74f3ae7e973379aac3,2021-10-19_16h07.50.877,forced_choiceRT,2021.1.2,Win32,60.0240096,,,,,,,,3,Ontime,h,0,2.003,2,0,8,1,1,,,,,
,0.84,,,,,,,,,j.PNG,j,6149fe74f3ae7e973379aac3,2021-10-19_16h07.50.877,forced_choiceRT,2021.1.2,Win32,60.0240096,,,,,,,,3,Ontime,j,1,1.999,2,1,9,3,1,,,,,
,1.09,,,,,,,,,h.PNG,h,6149fe74f3ae7e973379aac3,2021-10-19_16h07.50.877,forced_choiceRT,2021.1.2,Win32,60.0240096,,,,,,,,3,Ontime,h,1,1.952,2,2,10,2,1,,,,,
,0.96,,,,,,,,,g.PNG,g,6149fe74f3ae7e973379aac3,2021-10-19_16h07.50.877,forced_choiceRT,2021.1.2,Win32,60.0240096,,,,,,,,3,Ontime,g,1,1.967,2,3,11,1,1,,,,,
,1.97,,,,,,,,,f.PNG,f,6149fe74f3ae7e973379aac3,2021-10-19_16h07.50.877,forced_choiceRT,2021.1.2,Win32,60.0240096,,,,,,,,3,Ontime,f,1,2.057,3,0,12,0,1,,,,,
,1.07,,,,,,,,,j.PNG,j,6149fe74f3ae7e973379aac3,2021-10-19_16h07.50.877,forced_choiceRT,2021.1.2,Win32,60.0240096,,,,,,,,3,Ontime,j,1,1.933,3,1,13,3,1,,,,,
,0.74,,,,,,,,,g.PNG,g,6149fe74f3ae7e973379aac3,2021-10-19_16h07.50.877,forced_choiceRT,2021.1.2,Win32,60.0240096,,,,,,,,3,Fast,g,1,1.856,3,2,14,1,1,,,,,
,0.12,,,,,,,,,g.PNG,g,6149fe74f3ae7e973379aac3,2021-10-19_16h07.50.877,forced_choiceRT,2021.1.2,Win32,60.0240096,,,,,,,,3,Ontime,g,1,1.985,3,3,15,1,1,,,,,
,1.42,,,,,,,,,j.PNG,j,6149fe74f3ae7e973379aac3,2021-10-19_16h07.50.877,forced_choiceRT,2021.1.2,Win32,60.0240096,,,,,,,,3,Slow,j,1,2.266,4,0,16,3,1,,,,,
,0.04,,,,,,,,,f.PNG,f,6149fe74f3ae7e973379aac3,2021-10-19_16h07.50.877,forced_choiceRT,2021.1.2,Win32,60.0240096,,,,,,,,3,Fast,f,1,1.883,4,1,17,0,1,,,,,
,1.86,,,,,,,,,j.PNG,j,6149fe74f3ae7e973379aac3,2021-10-19_16h07.50.877,forced_choiceRT,2021.1.2,Win32,60.0240096,,,,,,,,3,Ontime,j,1,2.089,4,2,18,3,1,,,,,
,0.49,,,,,,,,,h.PNG,h,6149fe74f3ae7e973379aac3,2021-10-19_16h07.50.877,forced_choiceRT,2021.1.2,Win32,60.0240096,,,,,,,,3,Fast,h,1,1.784,4,3,19,2,1,,,,,
,0.45,,,,,,,,,g.PNG,g,6149fe74f3ae7e973379aac3,2021-10-19_16h07.50.877,forced_choiceRT,2021.1.2,Win32,60.0240096,,,,,,,,3,Ontime,g,1,2.006,5,0,20,1,1,,,,,
,1.41,,,,,,,,,h.PNG,h,6149fe74f3ae7e973379aac3,2021-10-19_16h07.50.877,forced_choiceRT,2021.1.2,Win32,60.0240096,,,,,,,,3,Ontime,j,0,1.981,5,1,21,2,1,,,,,
,1,,,,,,,,,j.PNG,j,6149fe74f3ae7e973379aac3,2021-10-19_16h07.50.877,forced_choiceRT,2021.1.2,Win32,60.0240096,,,,,,,,3,Slow,j,1,2.117,5,2,22,3,1,,,,,
,0.58,,,,,,,,,j.PNG,j,6149fe74f3ae7e973379aac3,2021-10-19_16h07.50.877,forced_choiceRT,2021.1.2,Win32,60.0240096,,,,,,,,3,Fast,j,1,1.851,5,3,23,3,1,,,,,
,0.86,,,,,,,,,j.PNG,j,6149fe74f3ae7e973379aac3,2021-10-19_16h07.50.877,forced_choiceRT,2021.1.2,Win32,60.0240096,,,,,,,,3,Ontime,j,1,2.022,6,0,24,3,1,,,,,
,1.75,,,,,,,,,g.PNG,g,6149fe74f3ae7e973379aac3,2021-10-19_16h07.50.877,forced_choiceRT,2021.1.2,Win32,60.0240096,,,,,,,,3,Ontime,j,0,2.049,6,1,25,1,1,,,,,
,1.77,,,,,,,,,f.PNG,f,6149fe74f3ae7e973379aac3,2021-10-19_16h07.50.877,forced_choiceRT,2021.1.2,Win32,60.0240096,,,,,,,,3,Slow,g,0,2.217,6,2,26,0,1,,,,,
,1.75,,,,,,,,,g.PNG,g,6149fe74f3ae7e973379aac3,2021-10-19_16h07.50.877,forced_choiceRT,2021.1.2,Win32,60.0240096,,,,,,,,3,Slow,g,1,3.182,6,3,27,1,1,,,,,
,1.73,,,,,,,,,g.PNG,g,6149fe74f3ae7e973379aac3,2021-10-19_16h07.50.877,forced_choiceRT,2021.1.2,Win32,60.0240096,,,,,,,,3,Slow,h,0,2.299,7,0,28,1,1,,,,,
,0.72,,,,,,,,,j.PNG,j,6149fe74f3ae7e973379aac3,2021-10-19_16h07.50.877,forced_choiceRT,2021.1.2,Win32,60.0240096,,,,,,,,3,Fast,j,1,1.552,7,1,29,3,1,,,,,
,1.51,,,,,,,,,f.PNG,f,6149fe74f3ae7e973379aac3,2021-10-19_16h07.50.877,forced_choiceRT,2021.1.2,Win32,60.0240096,,,,,,,,3,Ontime,f,1,2.066,7,2,30,0,1,,,,,
,0.63,,,,,,,,,h.PNG,h,6149fe74f3ae7e973379aac3,2021-10-19_16h07.50.877,forced_choiceRT,2021.1.2,Win32,60.0240096,,,,,,,,3,Ontime,h,1,2.071,7,3,31,2,1,,,,,
,0.51,,,,,,,,,h.PNG,h,6149fe74f3ae7e973379aac3,2021-10-19_16h07.50.877,forced_choiceRT,2021.1.2,Win32,60.0240096,,,,,,,,3,Ontime,h,1,2.053,8,0,32,2,1,,,,,
,0.05,,,,,,,,,h.PNG,h,6149fe74f3ae7e973379aac3,2021-10-19_16h07.50.877,forced_choiceRT,2021.1.2,Win32,60.0240096,,,,,,,,3,Ontime,h,1,1.967,8,1,33,2,1,,,,,
,1.85,,,,,,,,,g.PNG,g,6149fe74f3ae7e973379aac3,2021-10-19_16h07.50.877,forced_choiceRT,2021.1.2,Win32,60.0240096,,,,,,,,3,Slow,j,0,2.233,8,2,34,1,1,,,,,
,0.15,,,,,,,,,j.PNG,j,6149fe74f3ae7e973379aac3,2021-10-19_16h07.50.877,forced_choiceRT,2021.1.2,Win32,60.0240096,,,,,,,,3,Ontime,j,1,1.999,8,3,35,3,1,,,,,
,1.83,,,,,,,,,h.PNG,h,6149fe74f3ae7e973379aac3,2021-10-19_16h07.50.877,forced_choiceRT,2021.1.2,Win32,60.0240096,,,,,,,,3,Slow,j,0,2.15,9,0,36,2,1,,,,,
,0.54,,,,,,,,,g.PNG,g,6149fe74f3ae7e973379aac3,2021-10-19_16h07.50.877,forced_choiceRT,2021.1.2,Win32,60.0240096,,,,,,,,3,Ontime,g,1,1.982,9,1,37,1,1,,,,,
,1.82,,,,,,,,,f.PNG,f,6149fe74f3ae7e973379aac3,2021-10-19_16h07.50.877,forced_choiceRT,2021.1.2,Win32,60.0240096,,,,,,,,3,Slow,f,1,2.353,9,2,38,0,1,,,,,
,1.18,,,,,,,,,f.PNG,f,6149fe74f3ae7e973379aac3,2021-10-19_16h07.50.877,forced_choiceRT,2021.1.2,Win32,60.0240096,,,,,,,,3,Ontime,f,1,1.967,9,3,39,0,1,,,,,
,,,,,,,,,,,,6149fe74f3ae7e973379aac3,2021-10-19_16h07.50.877,forced_choiceRT,2021.1.2,Win32,60.0240096,,,,,,,,,,,,,,,,,,2,0,2,0,1
,1.39,,,,,,,,,j.PNG,j,6149fe74f3ae7e973379aac3,2021-10-19_16h07.50.877,forced_choiceRT,2021.1.2,Win32,60.0240096,,,,,,,,4,Slow,j,1,2.102,0,0,0,3,1,,,,,
,0.56,,,,,,,,,g.PNG,g,6149fe74f3ae7e973379aac3,2021-10-19_16h07.50.877,forced_choiceRT,2021.1.2,Win32,60.0240096,,,,,,,,4,Ontime,g,1,1.922,0,1,1,1,1,,,,,
,1.46,,,,,,,,,j.PNG,j,6149fe74f3ae7e973379aac3,2021-10-19_16h07.50.877,forced_choiceRT,2021.1.2,Win32,60.0240096,,,,,,,,4,Slow,j,1,2.114,0,2,2,3,1,,,,,
,0.46,,,,,,,,,j.PNG,j,6149fe74f3ae7e973379aac3,2021-10-19_16h07.50.877,forced_choiceRT,2021.1.2,Win32,60.0240096,,,,,,,,4,Fast,j,1,1.768,0,3,3,3,1,,,,,
,0.38,,,,,,,,,h.PNG,h,6149fe74f3ae7e973379aac3,2021-10-19_16h07.50.877,forced_choiceRT,2021.1.2,Win32,60.0240096,,,,,,,,4,Ontime,h,1,1.999,1,0,4,2,1,,,,,
,0.21,,,,,,,,,j.PNG,j,6149fe74f3ae7e973379aac3,2021-10-19_16h07.50.877,forced_choiceRT,2021.1.2,Win32,60.0240096,,,,,,,,4,Ontime,j,1,1.906,1,1,5,3,1,,,,,
,1.49,,,,,,,,,h.PNG,h,6149fe74f3ae7e973379aac3,2021-10-19_16h07.50.877,forced_choiceRT,2021.1.2,Win32,60.0240096,,,,,,,,4,Slow,h,1,2.105,1,2,6,2,1,,,,,
,1.51,,,,,,,,,h.PNG,h,6149fe74f3ae7e973379aac3,2021-10-19_16h07.50.877,forced_choiceRT,2021.1.2,Win32,60.0240096,,,,,,,,4,Slow,h,1,2.136,1,3,7,2,1,,,,,
,1.27,,,,,,,,,g.PNG,g,6149fe74f3ae7e973379aac3,2021-10-19_16h07.50.877,forced_choiceRT,2021.1.2,Win32,60.0240096,,,,,,,,4,Ontime,g,1,1.967,2,0,8,1,1,,,,,
,0.97,,,,,,,,,h.PNG,h,6149fe74f3ae7e973379aac3,2021-10-19_16h07.50.877,forced_choiceRT,2021.1.2,Win32,60.0240096,,,,,,,,4,Fast,h,1,1.782,2,1,9,2,1,,,,,
,1.36,,,,,,,,,h.PNG,h,6149fe74f3ae7e973379aac3,2021-10-19_16h07.50.877,forced_choiceRT,2021.1.2,Win32,60.0240096,,,,,,,,4,Slow,h,1,2.131,2,2,10,2,1,,,,,
,0.47,,,,,,,,,g.PNG,g,6149fe74f3ae7e973379aac3,2021-10-19_16h07.50.877,forced_choiceRT,2021.1.2,Win32,60.0240096,,,,,,,,4,Fast,g,1,1.748,2,3,11,1,1,,,,,
,0.26,,,,,,,,,j.PNG,j,6149fe74f3ae7e973379aac3,2021-10-19_16h07.50.877,forced_choiceRT,2021.1.2,Win32,60.0240096,,,,,,,,4,Ontime,j,1,1.949,3,0,12,3,1,,,,,
,0.12,,,,,,,,,f.PNG,f,6149fe74f3ae7e973379aac3,2021-10-19_16h07.50.877,forced_choiceRT,2021.1.2,Win32,60.0240096,,,,,,,,4,Fast,f,1,1.899,3,1,13,0,1,,,,,
,1.8,,,,,,,,,j.PNG,j,6149fe74f3ae7e973379aac3,2021-10-19_16h07.50.877,forced_choiceRT,2021.1.2,Win32,60.0240096,,,,,,,,4,Slow,j,1,2.816,3,2,14,3,1,,,,,
,0.65,,,,,,,,,f.PNG,f,6149fe74f3ae7e973379aac3,2021-10-19_16h07.50.877,forced_choiceRT,2021.1.2,Win32,60.0240096,,,,,,,,4,Ontime,f,1,2.016,3,3,15,0,1,,,,,
,0.22,,,,,,,,,f.PNG,f,6149fe74f3ae7e973379aac3,2021-10-19_16h07.50.877,forced_choiceRT,2021.1.2,Win32,60.0240096,,,,,,,,4,Ontime,f,1,2.033,4,0,16,0,1,,,,,
,0.04,,,,,,,,,j.PNG,j,6149fe74f3ae7e973379aac3,2021-10-19_16h07.50.877,forced_choiceRT,2021.1.2,Win32,60.0240096,,,,,,,,4,Ontime,j,1,1.95,4,1,17,3,1,,,,,
,0.38,,,,,,,,,j.PNG,j,6149fe74f3ae7e973379aac3,2021-10-19_16h07.50.877,forced_choiceRT,2021.1.2,Win32,60.0240096,,,,,,,,4,Ontime,j,1,2.038,4,2,18,3,1,,,,,
,1.15,,,,,,,,,j.PNG,j,6149fe74f3ae7e973379aac3,2021-10-19_16h07.50.877,forced_choiceRT,2021.1.2,Win32,60.0240096,,,,,,,,4,Ontime,j,1,1.932,4,3,19,3,1,,,,,
,1.32,,,,,,,,,g.PNG,g,6149fe74f3ae7e973379aac3,2021-10-19_16h07.50.877,forced_choiceRT,2021.1.2,Win32,60.0240096,,,,,,,,4,Slow,g,1,2.185,5,0,20,1,1,,,,,
,0.51,,,,,,,,,h.PNG,h,6149fe74f3ae7e973379aac3,2021-10-19_16h07.50.877,forced_choiceRT,2021.1.2,Win32,60.0240096,,,,,,,,4,Ontime,h,1,2.066,5,1,21,2,1,,,,,
,0.26,,,,,,,,,h.PNG,h,6149fe74f3ae7e973379aac3,2021-10-19_16h07.50.877,forced_choiceRT,2021.1.2,Win32,60.0240096,,,,,,,,4,Ontime,h,1,2.084,5,2,22,2,1,,,,,
,0.21,,,,,,,,,g.PNG,g,6149fe74f3ae7e973379aac3,2021-10-19_16h07.50.877,forced_choiceRT,2021.1.2,Win32,60.0240096,,,,,,,,4,Fast,g,1,1.799,5,3,23,1,1,,,,,
,1.24,,,,,,,,,g.PNG,g,6149fe74f3ae7e973379aac3,2021-10-19_16h07.50.877,forced_choiceRT,2021.1.2,Win32,60.0240096,,,,,,,,4,Slow,g,1,2.32,6,0,24,1,1,,,,,
,1.35,,,,,,,,,f.PNG,f,6149fe74f3ae7e973379aac3,2021-10-19_16h07.50.877,forced_choiceRT,2021.1.2,Win32,60.0240096,,,,,,,,4,Slow,f,1,2.167,6,1,25,0,1,,,,,
,1.48,,,,,,,,,g.PNG,g,6149fe74f3ae7e973379aac3,2021-10-19_16h07.50.877,forced_choiceRT,2021.1.2,Win32,60.0240096,,,,,,,,4,Ontime,h,0,1.967,6,2,26,1,1,,,,,
,1.52,,,,,,,,,h.PNG,h,6149fe74f3ae7e973379aac3,2021-10-19_16h07.50.877,forced_choiceRT,2021.1.2,Win32,60.0240096,,,,,,,,4,Slow,h,1,2.116,6,3,27,2,1,,,,,
,1.43,,,,,,,,,f.PNG,f,6149fe74f3ae7e973379aac3,2021-10-19_16h07.50.877,forced_choiceRT,2021.1.2,Win32,60.0240096,,,,,,,,4,Ontime,f,1,2.049,7,0,28,0,1,,,,,
,0.27,,,,,,,,,h.PNG,h,6149fe74f3ae7e973379aac3,2021-10-19_16h07.50.877,forced_choiceRT,2021.1.2,Win32,60.0240096,,,,,,,,4,Ontime,h,1,1.999,7,1,29,2,1,,,,,
,0.82,,,,,,,,,h.PNG,h,6149fe74f3ae7e973379aac3,2021-10-19_16h07.50.877,forced_choiceRT,2021.1.2,Win32,60.0240096,,,,,,,,4,Slow,h,1,2.101,7,2,30,2,1,,,,,
,1.25,,,,,,,,,f.PNG,f,6149fe74f3ae7e973379aac3,2021-10-19_16h07.50.877,forced_choiceRT,2021.1.2,Win32,60.0240096,,,,,,,,4,Ontime,f,1,1.95,7,3,31,0,1,,,,,
,0.12,,,,,,,,,j.PNG,j,6149fe74f3ae7e973379aac3,2021-10-19_16h07.50.877,forced_choiceRT,2021.1.2,Win32,60.0240096,,,,,,,,4,Ontime,j,1,2.067,8,0,32,3,1,,,,,
,0.79,,,,,,,,,f.PNG,f,6149fe74f3ae7e973379aac3,2021-10-19_16h07.50.877,forced_choiceRT,2021.1.2,Win32,60.0240096,,,,,,,,4,Ontime,f,1,2.052,8,1,33,0,1,,,,,
,1.13,,,,,,,,,g.PNG,g,6149fe74f3ae7e973379aac3,2021-10-19_16h07.50.877,forced_choiceRT,2021.1.2,Win32,60.0240096,,,,,,,,4,Slow,g,1,2.138,8,2,34,1,1,,,,,
,1.98,,,,,,,,,g.PNG,g,6149fe74f3ae7e973379aac3,2021-10-19_16h07.50.877,forced_choiceRT,2021.1.2,Win32,60.0240096,,,,,,,,4,Slow,g,1,3.549,8,3,35,1,1,,,,,
,1.41,,,,,,,,,f.PNG,f,6149fe74f3ae7e973379aac3,2021-10-19_16h07.50.877,forced_choiceRT,2021.1.2,Win32,60.0240096,,,,,,,,4,Ontime,f,1,1.966,9,0,36,0,1,,,,,
,1.89,,,,,,,,,f.PNG,f,6149fe74f3ae7e973379aac3,2021-10-19_16h07.50.877,forced_choiceRT,2021.1.2,Win32,60.0240096,,,,,,,,4,Slow,f,1,2.55,9,1,37,0,1,,,,,
,0.9,,,,,,,,,g.PNG,g,6149fe74f3ae7e973379aac3,2021-10-19_16h07.50.877,forced_choiceRT,2021.1.2,Win32,60.0240096,,,,,,,,4,Ontime,g,1,2.099,9,2,38,1,1,,,,,
,0.78,,,,,,,,,f.PNG,f,6149fe74f3ae7e973379aac3,2021-10-19_16h07.50.877,forced_choiceRT,2021.1.2,Win32,60.0240096,,,,,,,,4,Ontime,f,1,1.974,9,3,39,0,1,,,,,
,,,,,,,,,,,,6149fe74f3ae7e973379aac3,2021-10-19_16h07.50.877,forced_choiceRT,2021.1.2,Win32,60.0240096,,,,,,,,,,,,,,,,,,3,0,3,0,1
,0.94,,,,,,,,,h.PNG,h,6149fe74f3ae7e973379aac3,2021-10-19_16h07.50.877,forced_choiceRT,2021.1.2,Win32,60.0240096,,,,,,,,5,Slow,h,1,2.113,0,0,0,2,1,,,,,
,0.67,,,,,,,,,f.PNG,f,6149fe74f3ae7e973379aac3,2021-10-19_16h07.50.877,forced_choiceRT,2021.1.2,Win32,60.0240096,,,,,,,,5,Ontime,f,1,1.937,0,1,1,0,1,,,,,
,0.03,,,,,,,,,h.PNG,h,6149fe74f3ae7e973379aac3,2021-10-19_16h07.50.877,forced_choiceRT,2021.1.2,Win32,60.0240096,,,,,,,,5,Ontime,h,1,1.988,0,2,2,2,1,,,,,
,0.68,,,,,,,,,g.PNG,g,6149fe74f3ae7e973379aac3,2021-10-19_16h07.50.877,forced_choiceRT,2021.1.2,Win32,60.0240096,,,,,,,,5,Fast,g,1,1.838,0,3,3,1,1,,,,,
,1.56,,,,,,,,,h.PNG,h,6149fe74f3ae7e973379aac3,2021-10-19_16h07.50.877,forced_choiceRT,2021.1.2,Win32,60.0240096,,,,,,,,5,Slow,h,1,2.183,1,0,4,2,1,,,,,
,0.45,,,,,,,,,g.PNG,g,6149fe74f3ae7e973379aac3,2021-10-19_16h07.50.877,forced_choiceRT,2021.1.2,Win32,60.0240096,,,,,,,,5,Ontime,g,1,1.965,1,1,5,1,1,,,,,
,0.9,,,,,,,,,f.PNG,f,6149fe74f3ae7e973379aac3,2021-10-19_16h07.50.877,forced_choiceRT,2021.1.2,Win32,60.0240096,,,,,,,,5,Ontime,f,1,2.019,1,2,6,0,1,,,,,
,1.15,,,,,,,,,g.PNG,g,6149fe74f3ae7e973379aac3,2021-10-19_16h07.50.877,forced_choiceRT,2021.1.2,Win32,60.0240096,,,,,,,,5,Ontime,g,1,2.034,1,3,7,1,1,,,,,
,0.8,,,,,,,,,j.PNG,j,6149fe74f3ae7e973379aac3,2021-10-19_16h07.50.877,forced_choiceRT,2021.1.2,Win32,60.0240096,,,,,,,,5,Ontime,j,1,2,2,0,8,3,1,,,,,
,1.14,,,,,,,,,j.PNG,j,6149fe74f3ae7e973379aac3,2021-10-19_16h07.50.877,forced_choiceRT,2021.1.2,Win32,60.0240096,,,,,,,,5,Ontime,j,1,1.902,2,1,9,3,1,,,,,
,0.21,,,,,,,,,f.PNG,f,6149fe74f3ae7e973379aac3,2021-10-19_16h07.50.877,forced_choiceRT,2021.1.2,Win32,60.0240096,,,,,,,,5,Ontime,f,1,1.951,2,2,10,0,1,,,,,
,0.3,,,,,,,,,h.PNG,h,6149fe74f3ae7e973379aac3,2021-10-19_16h07.50.877,forced_choiceRT,2021.1.2,Win32,60.0240096,,,,,,,,5,Ontime,h,1,2.039,2,3,11,2,1,,,,,
,0.91,,,,,,,,,j.PNG,j,6149fe74f3ae7e973379aac3,2021-10-19_16h07.50.877,forced_choiceRT,2021.1.2,Win32,60.0240096,,,,,,,,5,Slow,j,1,2.136,3,0,12,3,1,,,,,
,1.23,,,,,,,,,f.PNG,f,6149fe74f3ae7e973379aac3,2021-10-19_16h07.50.877,forced_choiceRT,2021.1.2,Win32,60.0240096,,,,,,,,5,Slow,f,1,2.173,3,1,13,0,1,,,,,
,1.38,,,,,,,,,h.PNG,h,6149fe74f3ae7e973379aac3,2021-10-19_16h07.50.877,forced_choiceRT,2021.1.2,Win32,60.0240096,,,,,,,,5,Ontime,h,1,2.033,3,2,14,2,1,,,,,
,1.54,,,,,,,,,g.PNG,g,6149fe74f3ae7e973379aac3,2021-10-19_16h07.50.877,forced_choiceRT,2021.1.2,Win32,60.0240096,,,,,,,,5,Slow,g,1,2.258,3,3,15,1,1,,,,,
,0.09,,,,,,,,,f.PNG,f,6149fe74f3ae7e973379aac3,2021-10-19_16h07.50.877,forced_choiceRT,2021.1.2,Win32,60.0240096,,,,,,,,5,Ontime,f,1,1.969,4,0,16,0,1,,,,,
,1.98,,,,,,,,,g.PNG,g,6149fe74f3ae7e973379aac3,2021-10-19_16h07.50.877,forced_choiceRT,2021.1.2,Win32,60.0240096,,,,,,,,5,Slow,h,0,2.281,4,1,17,1,1,,,,,
,0.28,,,,,,,,,f.PNG,f,6149fe74f3ae7e973379aac3,2021-10-19_16h07.50.877,forced_choiceRT,2021.1.2,Win32,60.0240096,,,,,,,,5,Ontime,f,1,2.066,4,2,18,0,1,,,,,
,1.44,,,,,,,,,j.PNG,j,6149fe74f3ae7e973379aac3,2021-10-19_16h07.50.877,forced_choiceRT,2021.1.2,Win32,60.0240096,,,,,,,,5,Slow,j,1,2.265,4,3,19,3,1,,,,,
,1.31,,,,,,,,,g.PNG,g,6149fe74f3ae7e973379aac3,2021-10-19_16h07.50.877,forced_choiceRT,2021.1.2,Win32,60.0240096,,,,,,,,5,Ontime,g,1,1.95,5,0,20,1,1,,,,,
,0.28,,,,,,,,,j.PNG,j,6149fe74f3ae7e973379aac3,2021-10-19_16h07.50.877,forced_choiceRT,2021.1.2,Win32,60.0240096,,,,,,,,5,Ontime,j,1,2.018,5,1,21,3,1,,,,,
,1.38,,,,,,,,,f.PNG,f,6149fe74f3ae7e973379aac3,2021-10-19_16h07.50.877,forced_choiceRT,2021.1.2,Win32,60.0240096,,,,,,,,5,Ontime,f,1,1.949,5,2,22,0,1,,,,,
,1.06,,,,,,,,,f.PNG,f,6149fe74f3ae7e973379aac3,2021-10-19_16h07.50.877,forced_choiceRT,2021.1.2,Win32,60.0240096,,,,,,,,5,Ontime,f,1,2.084,5,3,23,0,1,,,,,
,1.58,,,,,,,,,h.PNG,h,6149fe74f3ae7e973379aac3,2021-10-19_16h07.50.877,forced_choiceRT,2021.1.2,Win32,60.0240096,,,,,,,,5,Slow,j,0,2.224,6,0,24,2,1,,,,,
,0.7,,,,,,,,,j.PNG,j,6149fe74f3ae7e973379aac3,2021-10-19_16h07.50.877,forced_choiceRT,2021.1.2,Win32,60.0240096,,,,,,,,5,Fast,j,1,1.867,6,1,25,3,1,,,,,
,0.56,,,,,,,,,h.PNG,h,6149fe74f3ae7e973379aac3,2021-10-19_16h07.50.877,forced_choiceRT,2021.1.2,Win32,60.0240096,,,,,,,,5,Ontime,h,1,2.024,6,2,26,2,1,,,,,
,1.37,,,,,,,,,f.PNG,f,6149fe74f3ae7e973379aac3,2021-10-19_16h07.50.877,forced_choiceRT,2021.1.2,Win32,60.0240096,,,,,,,,5,Ontime,f,1,2.015,6,3,27,0,1,,,,,
,1.76,,,,,,,,,h.PNG,h,6149fe74f3ae7e973379aac3,2021-10-19_16h07.50.877,forced_choiceRT,2021.1.2,Win32,60.0240096,,,,,,,,5,Slow,h,1,2.355,7,0,28,2,1,,,,,
,0.26,,,,,,,,,f.PNG,f,6149fe74f3ae7e973379aac3,2021-10-19_16h07.50.877,forced_choiceRT,2021.1.2,Win32,60.0240096,,,,,,,,5,Ontime,f,1,1.936,7,1,29,0,1,,,,,
,1.18,,,,,,,,,j.PNG,j,6149fe74f3ae7e973379aac3,2021-10-19_16h07.50.877,forced_choiceRT,2021.1.2,Win32,60.0240096,,,,,,,,5,Slow,j,1,2.151,7,2,30,3,1,,,,,
,1.09,,,,,,,,,g.PNG,g,6149fe74f3ae7e973379aac3,2021-10-19_16h07.50.877,forced_choiceRT,2021.1.2,Win32,60.0240096,,,,,,,,5,Ontime,g,1,1.984,7,3,31,1,1,,,,,
,0.44,,,,,,,,,g.PNG,g,6149fe74f3ae7e973379aac3,2021-10-19_16h07.50.877,forced_choiceRT,2021.1.2,Win32,60.0240096,,,,,,,,5,Ontime,g,1,1.983,8,0,32,1,1,,,,,
,1.02,,,,,,,,,j.PNG,j,6149fe74f3ae7e973379aac3,2021-10-19_16h07.50.877,forced_choiceRT,2021.1.2,Win32,60.0240096,,,,,,,,5,Ontime,j,1,1.918,8,1,33,3,1,,,,,
,1.07,,,,,,,,,h.PNG,h,6149fe74f3ae7e973379aac3,2021-10-19_16h07.50.877,forced_choiceRT,2021.1.2,Win32,60.0240096,,,,,,,,5,Fast,h,1,1.822,8,2,34,2,1,,,,,
,0.77,,,,,,,,,h.PNG,h,6149fe74f3ae7e973379aac3,2021-10-19_16h07.50.877,forced_choiceRT,2021.1.2,Win32,60.0240096,,,,,,,,5,Ontime,h,1,2.098,8,3,35,2,1,,,,,
,0.37,,,,,,,,,j.PNG,j,6149fe74f3ae7e973379aac3,2021-10-19_16h07.50.877,forced_choiceRT,2021.1.2,Win32,60.0240096,,,,,,,,5,Ontime,j,1,2.001,9,0,36,3,1,,,,,
,0.42,,,,,,,,,g.PNG,g,6149fe74f3ae7e973379aac3,2021-10-19_16h07.50.877,forced_choiceRT,2021.1.2,Win32,60.0240096,,,,,,,,5,Ontime,g,1,2.016,9,1,37,1,1,,,,,
,1.62,,,,,,,,,g.PNG,g,6149fe74f3ae7e973379aac3,2021-10-19_16h07.50.877,forced_choiceRT,2021.1.2,Win32,60.0240096,,,,,,,,5,Slow,g,1,2.265,9,2,38,1,1,,,,,
,1.7,,,,,,,,,j.PNG,j,6149fe74f3ae7e973379aac3,2021-10-19_16h07.50.877,forced_choiceRT,2021.1.2,Win32,60.0240096,,,,,,,,5,Slow,g,0,2.133,9,3,39,3,1,,,,,
,,,,,,,,,,,,6149fe74f3ae7e973379aac3,2021-10-19_16h07.50.877,forced_choiceRT,2021.1.2,Win32,60.0240096,,,,,,,,,,,,,,,,,,4,0,4,0,1
,0.61,,,,,,,,,h.PNG,h,6149fe74f3ae7e973379aac3,2021-10-19_16h07.50.877,forced_choiceRT,2021.1.2,Win32,60.0240096,,,,,,,,6,Fast,h,1,1.79,0,0,0,2,1,,,,,
,1.92,,,,,,,,,j.PNG,j,6149fe74f3ae7e973379aac3,2021-10-19_16h07.50.877,forced_choiceRT,2021.1.2,Win32,60.0240096,,,,,,,,6,Slow,j,1,2.882,0,1,1,3,1,,,,,
,1.67,,,,,,,,,h.PNG,h,6149fe74f3ae7e973379aac3,2021-10-19_16h07.50.877,forced_choiceRT,2021.1.2,Win32,60.0240096,,,,,,,,6,Slow,h,1,2.62,0,2,2,2,1,,,,,
,1.68,,,,,,,,,j.PNG,j,6149fe74f3ae7e973379aac3,2021-10-19_16h07.50.877,forced_choiceRT,2021.1.2,Win32,60.0240096,,,,,,,,6,Slow,j,1,2.239,0,3,3,3,1,,,,,
,1.29,,,,,,,,,f.PNG,f,6149fe74f3ae7e973379aac3,2021-10-19_16h07.50.877,forced_choiceRT,2021.1.2,Win32,60.0240096,,,,,,,,6,Ontime,f,1,1.955,1,0,4,0,1,,,,,
,0.15,,,,,,,,,g.PNG,g,6149fe74f3ae7e973379aac3,2021-10-19_16h07.50.877,forced_choiceRT,2021.1.2,Win32,60.0240096,,,,,,,,6,Fast,g,1,1.784,1,1,5,1,1,,,,,
,1.39,,,,,,,,,g.PNG,g,6149fe74f3ae7e973379aac3,2021-10-19_16h07.50.877,forced_choiceRT,2021.1.2,Win32,60.0240096,,,,,,,,6,Ontime,g,1,2.006,1,2,6,1,1,,,,,
,0.22,,,,,,,,,f.PNG,f,6149fe74f3ae7e973379aac3,2021-10-19_16h07.50.877,forced_choiceRT,2021.1.2,Win32,60.0240096,,,,,,,,6,Ontime,f,1,1.906,1,3,7,0,1,,,,,
,1.16,,,,,,,,,f.PNG,f,6149fe74f3ae7e973379aac3,2021-10-19_16h07.50.877,forced_choiceRT,2021.1.2,Win32,60.0240096,,,,,,,,6,Ontime,f,1,1.967,2,0,8,0,1,,,,,
,0.76,,,,,,,,,f.PNG,f,6149fe74f3ae7e973379aac3,2021-10-19_16h07.50.877,forced_choiceRT,2021.1.2,Win32,60.0240096,,,,,,,,6,Ontime,f,1,2.001,2,1,9,0,1,,,,,
,0.09,,,,,,,,,h.PNG,h,6149fe74f3ae7e973379aac3,2021-10-19_16h07.50.877,forced_choiceRT,2021.1.2,Win32,60.0240096,,,,,,,,6,Ontime,h,1,2,2,2,10,2,1,,,,,
,1.17,,,,,,,,,h.PNG,h,6149fe74f3ae7e973379aac3,2021-10-19_16h07.50.877,forced_choiceRT,2021.1.2,Win32,60.0240096,,,,,,,,6,Ontime,h,1,2.083,2,3,11,2,1,,,,,
,0.81,,,,,,,,,g.PNG,g,6149fe74f3ae7e973379aac3,2021-10-19_16h07.50.877,forced_choiceRT,2021.1.2,Win32,60.0240096,,,,,,,,6,Ontime,g,1,1.919,3,0,12,1,1,,,,,
,0.98,,,,,,,,,h.PNG,h,6149fe74f3ae7e973379aac3,2021-10-19_16h07.50.877,forced_choiceRT,2021.1.2,Win32,60.0240096,,,,,,,,6,Ontime,h,1,2.05,3,1,13,2,1,,,,,
,0.84,,,,,,,,,f.PNG,f,6149fe74f3ae7e973379aac3,2021-10-19_16h07.50.877,forced_choiceRT,2021.1.2,Win32,60.0240096,,,,,,,,6,Ontime,f,1,2.083,3,2,14,0,1,,,,,
,0.11,,,,,,,,,h.PNG,h,6149fe74f3ae7e973379aac3,2021-10-19_16h07.50.877,forced_choiceRT,2021.1.2,Win32,60.0240096,,,,,,,,6,Fast,h,1,1.755,3,3,15,2,1,,,,,
,1.4,,,,,,,,,j.PNG,j,6149fe74f3ae7e973379aac3,2021-10-19_16h07.50.877,forced_choiceRT,2021.1.2,Win32,60.0240096,,,,,,,,6,Slow,j,1,2.184,4,0,16,3,1,,,,,
,0.9,,,,,,,,,j.PNG,j,6149fe74f3ae7e973379aac3,2021-10-19_16h07.50.877,forced_choiceRT,2021.1.2,Win32,60.0240096,,,,,,,,6,Ontime,j,1,1.915,4,1,17,3,1,,,,,
,0.9,,,,,,,,,h.PNG,h,6149fe74f3ae7e973379aac3,2021-10-19_16h07.50.877,forced_choiceRT,2021.1.2,Win32,60.0240096,,,,,,,,6,Slow,j,0,2.139,4,2,18,2,1,,,,,
,1.99,,,,,,,,,j.PNG,j,6149fe74f3ae7e973379aac3,2021-10-19_16h07.50.877,forced_choiceRT,2021.1.2,Win32,60.0240096,,,,,,,,6,Slow,j,1,2.7,4,3,19,3,1,,,,,
,0.22,,,,,,,,,f.PNG,f,6149fe74f3ae7e973379aac3,2021-10-19_16h07.50.877,forced_choiceRT,2021.1.2,Win32,60.0240096,,,,,,,,6,Ontime,f,1,1.989,5,0,20,0,1,,,,,
,1.76,,,,,,,,,h.PNG,h,6149fe74f3ae7e973379aac3,2021-10-19_16h07.50.877,forced_choiceRT,2021.1.2,Win32,60.0240096,,,,,,,,6,Slow,g,0,2.333,5,1,21,2,1,,,,,
,1.6,,,,,,,,,f.PNG,f,6149fe74f3ae7e973379aac3,2021-10-19_16h07.50.877,forced_choiceRT,2021.1.2,Win32,60.0240096,,,,,,,,6,Slow,f,1,2.157,5,2,22,0,1,,,,,
,1.76,,,,,,,,,f.PNG,f,6149fe74f3ae7e973379aac3,2021-10-19_16h07.50.877,forced_choiceRT,2021.1.2,Win32,60.0240096,,,,,,,,6,Slow,f,1,2.183,5,3,23,0,1,,,,,
,1.14,,,,,,,,,g.PNG,g,6149fe74f3ae7e973379aac3,2021-10-19_16h07.50.877,forced_choiceRT,2021.1.2,Win32,60.0240096,,,,,,,,6,Fast,g,1,1.899,6,0,24,1,1,,,,,
,0.57,,,,,,,,,f.PNG,f,6149fe74f3ae7e973379aac3,2021-10-19_16h07.50.877,forced_choiceRT,2021.1.2,Win32,60.0240096,,,,,,,,6,Ontime,f,1,1.992,6,1,25,0,1,,,,,
,1.22,,,,,,,,,g.PNG,g,6149fe74f3ae7e973379aac3,2021-10-19_16h07.50.877,forced_choiceRT,2021.1.2,Win32,60.0240096,,,,,,,,6,Ontime,h,0,2.017,6,2,26,1,1,,,,,
,0.19,,,,,,,,,g.PNG,g,6149fe74f3ae7e973379aac3,2021-10-19_16h07.50.877,forced_choiceRT,2021.1.2,Win32,60.0240096,,,,,,,,6,Ontime,g,1,1.94,6,3,27,1,1,,,,,
,0.94,,,,,,,,,g.PNG,g,6149fe74f3ae7e973379aac3,2021-10-19_16h07.50.877,forced_choiceRT,2021.1.2,Win32,60.0240096,,,,,,,,6,Ontime,g,1,2.001,7,0,28,1,1,,,,,
,1.52,,,,,,,,,g.PNG,g,6149fe74f3ae7e973379aac3,2021-10-19_16h07.50.877,forced_choiceRT,2021.1.2,Win32,60.0240096,,,,,,,,6,Ontime,g,1,2.09,7,1,29,1,1,,,,,
,0.13,,,,,,,,,j.PNG,j,6149fe74f3ae7e973379aac3,2021-10-19_16h07.50.877,forced_choiceRT,2021.1.2,Win32,60.0240096,,,,,,,,6,Fast,j,1,1.752,7,2,30,3,1,,,,,
,1.7,,,,,,,,,f.PNG,f,6149fe74f3ae7e973379aac3,2021-10-19_16h07.50.877,forced_choiceRT,2021.1.2,Win32,60.0240096,,,,,,,,6,Slow,f,1,2.332,7,3,31,0,1,,,,,
,0.26,,,,,,,,,g.PNG,g,6149fe74f3ae7e973379aac3,2021-10-19_16h07.50.877,forced_choiceRT,2021.1.2,Win32,60.0240096,,,,,,,,6,Ontime,g,1,2,8,0,32,1,1,,,,,
,0.57,,,,,,,,,h.PNG,h,6149fe74f3ae7e973379aac3,2021-10-19_16h07.50.877,forced_choiceRT,2021.1.2,Win32,60.0240096,,,,,,,,6,Ontime,h,1,2.1,8,1,33,2,1,,,,,
,1.91,,,,,,,,,j.PNG,j,6149fe74f3ae7e973379aac3,2021-10-19_16h07.50.877,forced_choiceRT,2021.1.2,Win32,60.0240096,,,,,,,,6,Slow,j,1,2.182,8,2,34,3,1,,,,,
,0.09,,,,,,,,,j.PNG,j,6149fe74f3ae7e973379aac3,2021-10-19_16h07.50.877,forced_choiceRT,2021.1.2,Win32,60.0240096,,,,,,,,6,Ontime,j,1,2.02,8,3,35,3,1,,,,,
,1.56,,,,,,,,,g.PNG,g,6149fe74f3ae7e973379aac3,2021-10-19_16h07.50.877,forced_choiceRT,2021.1.2,Win32,60.0240096,,,,,,,,6,Ontime,g,1,2.068,9,0,36,1,1,,,,,
,1.94,,,,,,,,,j.PNG,j,6149fe74f3ae7e973379aac3,2021-10-19_16h07.50.877,forced_choiceRT,2021.1.2,Win32,60.0240096,,,,,,,,6,Slow,j,1,2.283,9,1,37,3,1,,,,,
,0.24,,,,,,,,,h.PNG,h,6149fe74f3ae7e973379aac3,2021-10-19_16h07.50.877,forced_choiceRT,2021.1.2,Win32,60.0240096,,,,,,,,6,Ontime,h,1,1.938,9,2,38,2,1,,,,,
,1.14,,,,,,,,,j.PNG,j,6149fe74f3ae7e973379aac3,2021-10-19_16h07.50.877,forced_choiceRT,2021.1.2,Win32,60.0240096,,,,,,,,6,Ontime,j,1,2.073,9,3,39,3,1,,,,,
,,,,,,,,,,,,6149fe74f3ae7e973379aac3,2021-10-19_16h07.50.877,forced_choiceRT,2021.1.2,Win32,60.0240096,,,,,,,,,,,,,,,,,,5,0,5,0,1
,1.57,,,,,,,,,f.PNG,f,6149fe74f3ae7e973379aac3,2021-10-19_16h07.50.877,forced_choiceRT,2021.1.2,Win32,60.0240096,,,,,,,,7,Ontime,f,1,2.078,0,0,0,0,1,,,,,
,1.57,,,,,,,,,j.PNG,j,6149fe74f3ae7e973379aac3,2021-10-19_16h07.50.877,forced_choiceRT,2021.1.2,Win32,60.0240096,,,,,,,,7,Slow,j,1,2.15,0,1,1,3,1,,,,,
,0.3,,,,,,,,,g.PNG,g,6149fe74f3ae7e973379aac3,2021-10-19_16h07.50.877,forced_choiceRT,2021.1.2,Win32,60.0240096,,,,,,,,7,Ontime,g,1,1.901,0,2,2,1,1,,,,,
,1.07,,,,,,,,,j.PNG,j,6149fe74f3ae7e973379aac3,2021-10-19_16h07.50.877,forced_choiceRT,2021.1.2,Win32,60.0240096,,,,,,,,7,Ontime,j,1,1.989,0,3,3,3,1,,,,,
,1.14,,,,,,,,,g.PNG,g,6149fe74f3ae7e973379aac3,2021-10-19_16h07.50.877,forced_choiceRT,2021.1.2,Win32,60.0240096,,,,,,,,7,Slow,g,1,2.132,1,0,4,1,1,,,,,
,1.22,,,,,,,,,j.PNG,j,6149fe74f3ae7e973379aac3,2021-10-19_16h07.50.877,forced_choiceRT,2021.1.2,Win32,60.0240096,,,,,,,,7,Ontime,j,1,2.083,1,1,5,3,1,,,,,
,1.72,,,,,,,,,h.PNG,h,6149fe74f3ae7e973379aac3,2021-10-19_16h07.50.877,forced_choiceRT,2021.1.2,Win32,60.0240096,,,,,,,,7,Slow,h,1,2.288,1,2,6,2,1,,,,,
,0.91,,,,,,,,,j.PNG,j,6149fe74f3ae7e973379aac3,2021-10-19_16h07.50.877,forced_choiceRT,2021.1.2,Win32,60.0240096,,,,,,,,7,Slow,j,1,2.134,1,3,7,3,1,,,,,
,1.91,,,,,,,,,j.PNG,j,6149fe74f3ae7e973379aac3,2021-10-19_16h07.50.877,forced_choiceRT,2021.1.2,Win32,60.0240096,,,,,,,,7,Slow,j,1,2.317,2,0,8,3,1,,,,,
,0.75,,,,,,,,,h.PNG,h,6149fe74f3ae7e973379aac3,2021-10-19_16h07.50.877,forced_choiceRT,2021.1.2,Win32,60.0240096,,,,,,,,7,Ontime,h,1,2.099,2,1,9,2,1,,,,,
,1.41,,,,,,,,,h.PNG,h,6149fe74f3ae7e973379aac3,2021-10-19_16h07.50.877,forced_choiceRT,2021.1.2,Win32,60.0240096,,,,,,,,7,Slow,h,1,2.232,2,2,10,2,1,,,,,
,1.65,,,,,,,,,h.PNG,h,6149fe74f3ae7e973379aac3,2021-10-19_16h07.50.877,forced_choiceRT,2021.1.2,Win32,60.0240096,,,,,,,,7,Slow,h,1,2.315,2,3,11,2,1,,,,,
,0.62,,,,,,,,,g.PNG,g,6149fe74f3ae7e973379aac3,2021-10-19_16h07.50.877,forced_choiceRT,2021.1.2,Win32,60.0240096,,,,,,,,7,Fast,g,1,1.734,3,0,12,1,1,,,,,
,0.21,,,,,,,,,h.PNG,h,6149fe74f3ae7e973379aac3,2021-10-19_16h07.50.877,forced_choiceRT,2021.1.2,Win32,60.0240096,,,,,,,,7,Fast,h,1,1.818,3,1,13,2,1,,,,,
,1.87,,,,,,,,,g.PNG,g,6149fe74f3ae7e973379aac3,2021-10-19_16h07.50.877,forced_choiceRT,2021.1.2,Win32,60.0240096,,,,,,,,7,Slow,h,0,2.588,3,2,14,1,1,,,,,
,1.89,,,,,,,,,f.PNG,f,6149fe74f3ae7e973379aac3,2021-10-19_16h07.50.877,forced_choiceRT,2021.1.2,Win32,60.0240096,,,,,,,,7,Slow,f,1,2.433,3,3,15,0,1,,,,,
,0.86,,,,,,,,,h.PNG,h,6149fe74f3ae7e973379aac3,2021-10-19_16h07.50.877,forced_choiceRT,2021.1.2,Win32,60.0240096,,,,,,,,7,Slow,h,1,2.167,4,0,16,2,1,,,,,
,1.59,,,,,,,,,j.PNG,j,6149fe74f3ae7e973379aac3,2021-10-19_16h07.50.877,forced_choiceRT,2021.1.2,Win32,60.0240096,,,,,,,,7,Ontime,j,1,2.038,4,1,17,3,1,,,,,
,0.56,,,,,,,,,j.PNG,j,6149fe74f3ae7e973379aac3,2021-10-19_16h07.50.877,forced_choiceRT,2021.1.2,Win32,60.0240096,,,,,,,,7,Ontime,j,1,2.007,4,2,18,3,1,,,,,
,0.85,,,,,,,,,f.PNG,f,6149fe74f3ae7e973379aac3,2021-10-19_16h07.50.877,forced_choiceRT,2021.1.2,Win32,60.0240096,,,,,,,,7,Ontime,f,1,2.073,4,3,19,0,1,,,,,
,1.36,,,,,,,,,g.PNG,g,6149fe74f3ae7e973379aac3,2021-10-19_16h07.50.877,forced_choiceRT,2021.1.2,Win32,60.0240096,,,,,,,,7,Slow,h,0,2.267,5,0,20,1,1,,,,,
,1.61,,,,,,,,,g.PNG,g,6149fe74f3ae7e973379aac3,2021-10-19_16h07.50.877,forced_choiceRT,2021.1.2,Win32,60.0240096,,,,,,,,7,Slow,g,1,2.272,5,1,21,1,1,,,,,
,0.33,,,,,,,,,f.PNG,f,6149fe74f3ae7e973379aac3,2021-10-19_16h07.50.877,forced_choiceRT,2021.1.2,Win32,60.0240096,,,,,,,,7,Ontime,f,1,2,5,2,22,0,1,,,,,
,0.84,,,,,,,,,f.PNG,f,6149fe74f3ae7e973379aac3,2021-10-19_16h07.50.877,forced_choiceRT,2021.1.2,Win32,60.0240096,,,,,,,,7,Ontime,f,1,2.017,5,3,23,0,1,,,,,
,0.48,,,,,,,,,j.PNG,j,6149fe74f3ae7e973379aac3,2021-10-19_16h07.50.877,forced_choiceRT,2021.1.2,Win32,60.0240096,,,,,,,,7,Fast,j,1,1.767,6,0,24,3,1,,,,,
,0.34,,,,,,,,,h.PNG,h,6149fe74f3ae7e973379aac3,2021-10-19_16h07.50.877,forced_choiceRT,2021.1.2,Win32,60.0240096,,,,,,,,7,Ontime,h,1,2,6,1,25,2,1,,,,,
,1.15,,,,,,,,,g.PNG,g,6149fe74f3ae7e973379aac3,2021-10-19_16h07.50.877,forced_choiceRT,2021.1.2,Win32,60.0240096,,,,,,,,7,Ontime,g,1,1.917,6,2,26,1,1,,,,,
,1.22,,,,,,,,,g.PNG,g,6149fe74f3ae7e973379aac3,2021-10-19_16h07.50.877,forced_choiceRT,2021.1.2,Win32,60.0240096,,,,,,,,7,Slow,g,1,2.166,6,3,27,1,1,,,,,
,1.28,,,,,,,,,j.PNG,j,6149fe74f3ae7e973379aac3,2021-10-19_16h07.50.877,forced_choiceRT,2021.1.2,Win32,60.0240096,,,,,,,,7,Ontime,j,1,1.985,7,0,28,3,1,,,,,
,1.04,,,,,,,,,g.PNG,g,6149fe74f3ae7e973379aac3,2021-10-19_16h07.50.877,forced_choiceRT,2021.1.2,Win32,60.0240096,,,,,,,,7,Slow,g,1,2.299,7,1,29,1,1,,,,,
,0.28,,,,,,,,,h.PNG,h,6149fe74f3ae7e973379aac3,2021-10-19_16h07.50.877,forced_choiceRT,2021.1.2,Win32,60.0240096,,,,,,,,7,Slow,h,1,2.133,7,2,30,2,1,,,,,
,0.03,,,,,,,,,g.PNG,g,6149fe74f3ae7e973379aac3,2021-10-19_16h07.50.877,forced_choiceRT,2021.1.2,Win32,60.0240096,,,,,,,,7,Ontime,g,1,1.984,7,3,31,1,1,,,,,
,1.64,,,,,,,,,f.PNG,f,6149fe74f3ae7e973379aac3,2021-10-19_16h07.50.877,forced_choiceRT,2021.1.2,Win32,60.0240096,,,,,,,,7,Slow,f,1,2.433,8,0,32,0,1,,,,,
,0.69,,,,,,,,,j.PNG,j,6149fe74f3ae7e973379aac3,2021-10-19_16h07.50.877,forced_choiceRT,2021.1.2,Win32,60.0240096,,,,,,,,7,Ontime,j,1,1.967,8,1,33,3,1,,,,,
,0.78,,,,,,,,,f.PNG,f,6149fe74f3ae7e973379aac3,2021-10-19_16h07.50.877,forced_choiceRT,2021.1.2,Win32,60.0240096,,,,,,,,7,Ontime,f,1,2.017,8,2,34,0,1,,,,,
,1.92,,,,,,,,,h.PNG,h,6149fe74f3ae7e973379aac3,2021-10-19_16h07.50.877,forced_choiceRT,2021.1.2,Win32,60.0240096,,,,,,,,7,Slow,f,0,2.333,8,3,35,2,1,,,,,
,1.16,,,,,,,,,f.PNG,f,6149fe74f3ae7e973379aac3,2021-10-19_16h07.50.877,forced_choiceRT,2021.1.2,Win32,60.0240096,,,,,,,,7,Fast,f,1,1.868,9,0,36,0,1,,,,,
,0.48,,,,,,,,,f.PNG,f,6149fe74f3ae7e973379aac3,2021-10-19_16h07.50.877,forced_choiceRT,2021.1.2,Win32,60.0240096,,,,,,,,7,Fast,f,1,1.855,9,1,37,0,1,,,,,
,1.68,,,,,,,,,h.PNG,h,6149fe74f3ae7e973379aac3,2021-10-19_16h07.50.877,forced_choiceRT,2021.1.2,Win32,60.0240096,,,,,,,,7,Slow,h,1,3.732,9,2,38,2,1,,,,,
,1.78,,,,,,,,,f.PNG,f,6149fe74f3ae7e973379aac3,2021-10-19_16h07.50.877,forced_choiceRT,2021.1.2,Win32,60.0240096,,,,,,,,7,Slow,f,1,2.373,9,3,39,0,1,,,,,
,,,,,,,,,,,,6149fe74f3ae7e973379aac3,2021-10-19_16h07.50.877,forced_choiceRT,2021.1.2,Win32,60.0240096,,,,,,,,,,,,,,,,,,6,0,6,0,1
,1.2,,,,,,,,,f.PNG,f,6149fe74f3ae7e973379aac3,2021-10-19_16h07.50.877,forced_choiceRT,2021.1.2,Win32,60.0240096,,,,,,,,8,Ontime,f,1,1.908,0,0,0,0,1,,,,,
,1.29,,,,,,,,,j.PNG,j,6149fe74f3ae7e973379aac3,2021-10-19_16h07.50.877,forced_choiceRT,2021.1.2,Win32,60.0240096,,,,,,,,8,Ontime,j,1,1.998,0,1,1,3,1,,,,,
,0.4,,,,,,,,,f.PNG,f,6149fe74f3ae7e973379aac3,2021-10-19_16h07.50.877,forced_choiceRT,2021.1.2,Win32,60.0240096,,,,,,,,8,Ontime,f,1,1.919,0,2,2,0,1,,,,,
,1.77,,,,,,,,,j.PNG,j,6149fe74f3ae7e973379aac3,2021-10-19_16h07.50.877,forced_choiceRT,2021.1.2,Win32,60.0240096,,,,,,,,8,Slow,j,1,2.306,0,3,3,3,1,,,,,
,0.33,,,,,,,,,g.PNG,g,6149fe74f3ae7e973379aac3,2021-10-19_16h07.50.877,forced_choiceRT,2021.1.2,Win32,60.0240096,,,,,,,,8,Ontime,g,1,1.966,1,0,4,1,1,,,,,
,1.7,,,,,,,,,f.PNG,f,6149fe74f3ae7e973379aac3,2021-10-19_16h07.50.877,forced_choiceRT,2021.1.2,Win32,60.0240096,,,,,,,,8,Slow,f,1,2.349,1,1,5,0,1,,,,,
,0.02,,,,,,,,,h.PNG,h,6149fe74f3ae7e973379aac3,2021-10-19_16h07.50.877,forced_choiceRT,2021.1.2,Win32,60.0240096,,,,,,,,8,Ontime,h,1,1.906,1,2,6,2,1,,,,,
,0.09,,,,,,,,,f.PNG,f,6149fe74f3ae7e973379aac3,2021-10-19_16h07.50.877,forced_choiceRT,2021.1.2,Win32,60.0240096,,,,,,,,8,Fast,f,1,1.885,1,3,7,0,1,,,,,
,1.33,,,,,,,,,h.PNG,h,6149fe74f3ae7e973379aac3,2021-10-19_16h07.50.877,forced_choiceRT,2021.1.2,Win32,60.0240096,,,,,,,,8,Slow,h,1,2.237,2,0,8,2,1,,,,,
,1.73,,,,,,,,,h.PNG,h,6149fe74f3ae7e973379aac3,2021-10-19_16h07.50.877,forced_choiceRT,2021.1.2,Win32,60.0240096,,,,,,,,8,Slow,h,1,2.273,2,1,9,2,1,,,,,
,0.8,,,,,,,,,f.PNG,f,6149fe74f3ae7e973379aac3,2021-10-19_16h07.50.877,forced_choiceRT,2021.1.2,Win32,60.0240096,,,,,,,,8,Ontime,f,1,2.016,2,2,10,0,1,,,,,
,1.07,,,,,,,,,g.PNG,g,6149fe74f3ae7e973379aac3,2021-10-19_16h07.50.877,forced_choiceRT,2021.1.2,Win32,60.0240096,,,,,,,,8,Ontime,g,1,2.1,2,3,11,1,1,,,,,
,0.03,,,,,,,,,g.PNG,g,6149fe74f3ae7e973379aac3,2021-10-19_16h07.50.877,forced_choiceRT,2021.1.2,Win32,60.0240096,,,,,,,,8,Ontime,g,1,1.951,3,0,12,1,1,,,,,
,0.43,,,,,,,,,j.PNG,j,6149fe74f3ae7e973379aac3,2021-10-19_16h07.50.877,forced_choiceRT,2021.1.2,Win32,60.0240096,,,,,,,,8,Ontime,j,1,1.905,3,1,13,3,1,,,,,
,1.64,,,,,,,,,h.PNG,h,6149fe74f3ae7e973379aac3,2021-10-19_16h07.50.877,forced_choiceRT,2021.1.2,Win32,60.0240096,,,,,,,,8,Slow,h,1,2.316,3,2,14,2,1,,,,,
,1.4,,,,,,,,,g.PNG,g,6149fe74f3ae7e973379aac3,2021-10-19_16h07.50.877,forced_choiceRT,2021.1.2,Win32,60.0240096,,,,,,,,8,Slow,h,0,2.265,3,3,15,1,1,,,,,
,1.17,,,,,,,,,j.PNG,j,6149fe74f3ae7e973379aac3,2021-10-19_16h07.50.877,forced_choiceRT,2021.1.2,Win32,60.0240096,,,,,,,,8,Ontime,j,1,2.056,4,0,16,3,1,,,,,
,1.05,,,,,,,,,f.PNG,f,6149fe74f3ae7e973379aac3,2021-10-19_16h07.50.877,forced_choiceRT,2021.1.2,Win32,60.0240096,,,,,,,,8,Fast,f,1,1.9,4,1,17,0,1,,,,,
,0.67,,,,,,,,,f.PNG,f,6149fe74f3ae7e973379aac3,2021-10-19_16h07.50.877,forced_choiceRT,2021.1.2,Win32,60.0240096,,,,,,,,8,Ontime,f,1,1.988,4,2,18,0,1,,,,,
,1.02,,,,,,,,,h.PNG,h,6149fe74f3ae7e973379aac3,2021-10-19_16h07.50.877,forced_choiceRT,2021.1.2,Win32,60.0240096,,,,,,,,8,Ontime,h,1,2,4,3,19,2,1,,,,,
,0.25,,,,,,,,,g.PNG,g,6149fe74f3ae7e973379aac3,2021-10-19_16h07.50.877,forced_choiceRT,2021.1.2,Win32,60.0240096,,,,,,,,8,Fast,g,1,1.851,5,0,20,1,1,,,,,
,1.21,,,,,,,,,h.PNG,h,6149fe74f3ae7e973379aac3,2021-10-19_16h07.50.877,forced_choiceRT,2021.1.2,Win32,60.0240096,,,,,,,,8,Slow,g,0,2.334,5,1,21,2,1,,,,,
,0.91,,,,,,,,,h.PNG,h,6149fe74f3ae7e973379aac3,2021-10-19_16h07.50.877,forced_choiceRT,2021.1.2,Win32,60.0240096,,,,,,,,8,Fast,h,1,1.89,5,2,22,2,1,,,,,
,0.26,,,,,,,,,f.PNG,f,6149fe74f3ae7e973379aac3,2021-10-19_16h07.50.877,forced_choiceRT,2021.1.2,Win32,60.0240096,,,,,,,,8,Ontime,f,1,1.99,5,3,23,0,1,,,,,
,0.08,,,,,,,,,j.PNG,j,6149fe74f3ae7e973379aac3,2021-10-19_16h07.50.877,forced_choiceRT,2021.1.2,Win32,60.0240096,,,,,,,,8,Ontime,j,1,1.989,6,0,24,3,1,,,,,
,0.04,,,,,,,,,j.PNG,j,6149fe74f3ae7e973379aac3,2021-10-19_16h07.50.877,forced_choiceRT,2021.1.2,Win32,60.0240096,,,,,,,,8,Ontime,j,1,1.922,6,1,25,3,1,,,,,
,0.53,,,,,,,,,h.PNG,h,6149fe74f3ae7e973379aac3,2021-10-19_16h07.50.877,forced_choiceRT,2021.1.2,Win32,60.0240096,,,,,,,,8,Ontime,h,1,2.087,6,2,26,2,1,,,,,
,1.54,,,,,,,,,g.PNG,g,6149fe74f3ae7e973379aac3,2021-10-19_16h07.50.877,forced_choiceRT,2021.1.2,Win32,60.0240096,,,,,,,,8,Slow,g,1,2.234,6,3,27,1,1,,,,,
,0.11,,,,,,,,,g.PNG,g,6149fe74f3ae7e973379aac3,2021-10-19_16h07.50.877,forced_choiceRT,2021.1.2,Win32,60.0240096,,,,,,,,8,Fast,g,1,1.621,7,0,28,1,1,,,,,
,0.28,,,,,,,,,j.PNG,j,6149fe74f3ae7e973379aac3,2021-10-19_16h07.50.877,forced_choiceRT,2021.1.2,Win32,60.0240096,,,,,,,,8,Ontime,j,1,1.951,7,1,29,3,1,,,,,
,0.24,,,,,,,,,j.PNG,j,6149fe74f3ae7e973379aac3,2021-10-19_16h07.50.877,forced_choiceRT,2021.1.2,Win32,60.0240096,,,,,,,,8,Slow,j,1,2.117,7,2,30,3,1,,,,,
,0.9,,,,,,,,,g.PNG,g,6149fe74f3ae7e973379aac3,2021-10-19_16h07.50.877,forced_choiceRT,2021.1.2,Win32,60.0240096,,,,,,,,8,Slow,g,1,2.105,7,3,31,1,1,,,,,
,0.21,,,,,,,,,g.PNG,g,6149fe74f3ae7e973379aac3,2021-10-19_16h07.50.877,forced_choiceRT,2021.1.2,Win32,60.0240096,,,,,,,,8,Fast,g,1,1.899,8,0,32,1,1,,,,,
,1.13,,,,,,,,,h.PNG,h,6149fe74f3ae7e973379aac3,2021-10-19_16h07.50.877,forced_choiceRT,2021.1.2,Win32,60.0240096,,,,,,,,8,Ontime,h,1,2.034,8,1,33,2,1,,,,,
,1.74,,,,,,,,,f.PNG,f,6149fe74f3ae7e973379aac3,2021-10-19_16h07.50.877,forced_choiceRT,2021.1.2,Win32,60.0240096,,,,,,,,8,Slow,f,1,2.238,8,2,34,0,1,,,,,
,1.39,,,,,,,,,j.PNG,j,6149fe74f3ae7e973379aac3,2021-10-19_16h07.50.877,forced_choiceRT,2021.1.2,Win32,60.0240096,,,,,,,,8,Ontime,j,1,2.02,8,3,35,3,1,,,,,
,1.48,,,,,,,,,f.PNG,f,6149fe74f3ae7e973379aac3,2021-10-19_16h07.50.877,forced_choiceRT,2021.1.2,Win32,60.0240096,,,,,,,,8,Ontime,f,1,2.049,9,0,36,0,1,,,,,
,0.51,,,,,,,,,j.PNG,j,6149fe74f3ae7e973379aac3,2021-10-19_16h07.50.877,forced_choiceRT,2021.1.2,Win32,60.0240096,,,,,,,,8,Ontime,j,1,1.917,9,1,37,3,1,,,,,
,1.41,,,,,,,,,g.PNG,g,6149fe74f3ae7e973379aac3,2021-10-19_16h07.50.877,forced_choiceRT,2021.1.2,Win32,60.0240096,,,,,,,,8,Ontime,h,0,2.02,9,2,38,1,1,,,,,
,0.74,,,,,,,,,h.PNG,h,6149fe74f3ae7e973379aac3,2021-10-19_16h07.50.877,forced_choiceRT,2021.1.2,Win32,60.0240096,,,,,,,,8,Slow,h,1,2.133,9,3,39,2,1,,,,,
,,,,,,,,,,,,6149fe74f3ae7e973379aac3,2021-10-19_16h07.50.877,forced_choiceRT,2021.1.2,Win32,60.0240096,,,,,,,,,,,,,,,,,,7,0,7,0,1
,1.74,,,,,,,,,j.PNG,j,6149fe74f3ae7e973379aac3,2021-10-19_16h07.50.877,forced_choiceRT,2021.1.2,Win32,60.0240096,,,,,,,,9,Slow,j,1,2.341,0,0,0,3,1,,,,,
,1.86,,,,,,,,,g.PNG,g,6149fe74f3ae7e973379aac3,2021-10-19_16h07.50.877,forced_choiceRT,2021.1.2,Win32,60.0240096,,,,,,,,9,Slow,g,1,2.62,0,1,1,1,1,,,,,
,1.28,,,,,,,,,j.PNG,j,6149fe74f3ae7e973379aac3,2021-10-19_16h07.50.877,forced_choiceRT,2021.1.2,Win32,60.0240096,,,,,,,,9,Fast,j,1,1.855,0,2,2,3,1,,,,,
,0.77,,,,,,,,,f.PNG,f,6149fe74f3ae7e973379aac3,2021-10-19_16h07.50.877,forced_choiceRT,2021.1.2,Win32,60.0240096,,,,,,,,9,Ontime,f,1,1.939,0,3,3,0,1,,,,,
,0.86,,,,,,,,,g.PNG,g,6149fe74f3ae7e973379aac3,2021-10-19_16h07.50.877,forced_choiceRT,2021.1.2,Win32,60.0240096,,,,,,,,9,Ontime,g,1,1.922,1,0,4,1,1,,,,,
,0.65,,,,,,,,,h.PNG,h,6149fe74f3ae7e973379aac3,2021-10-19_16h07.50.877,forced_choiceRT,2021.1.2,Win32,60.0240096,,,,,,,,9,Fast,h,1,1.801,1,1,5,2,1,,,,,
,1,,,,,,,,,f.PNG,f,6149fe74f3ae7e973379aac3,2021-10-19_16h07.50.877,forced_choiceRT,2021.1.2,Win32,60.0240096,,,,,,,,9,Ontime,f,1,2.052,1,2,6,0,1,,,,,
,0.54,,,,,,,,,g.PNG,g,6149fe74f3ae7e973379aac3,2021-10-19_16h07.50.877,forced_choiceRT,2021.1.2,Win32,60.0240096,,,,,,,,9,Ontime,g,1,2.001,1,3,7,1,1,,,,,
,1.83,,,,,,,,,j.PNG,j,6149fe74f3ae7e973379aac3,2021-10-19_16h07.50.877,forced_choiceRT,2021.1.2,Win32,60.0240096,,,,,,,,9,Slow,j,1,2.355,2,0,8,3,1,,,,,
,0.82,,,,,,,,,f.PNG,f,6149fe74f3ae7e973379aac3,2021-10-19_16h07.50.877,forced_choiceRT,2021.1.2,Win32,60.0240096,,,,,,,,9,Ontime,f,1,1.97,2,1,9,0,1,,,,,
,1.72,,,,,,,,,h.PNG,h,6149fe74f3ae7e973379aac3,2021-10-19_16h07.50.877,forced_choiceRT,2021.1.2,Win32,60.0240096,,,,,,,,9,Slow,h,1,2.537,2,2,10,2,1,,,,,
,1.02,,,,,,,,,g.PNG,g,6149fe74f3ae7e973379aac3,2021-10-19_16h07.50.877,forced_choiceRT,2021.1.2,Win32,60.0240096,,,,,,,,9,Ontime,g,1,1.957,2,3,11,1,1,,,,,
,0.41,,,,,,,,,j.PNG,j,6149fe74f3ae7e973379aac3,2021-10-19_16h07.50.877,forced_choiceRT,2021.1.2,Win32,60.0240096,,,,,,,,9,Fast,j,1,1.884,3,0,12,3,1,,,,,
,0.78,,,,,,,,,f.PNG,f,6149fe74f3ae7e973379aac3,2021-10-19_16h07.50.877,forced_choiceRT,2021.1.2,Win32,60.0240096,,,,,,,,9,Ontime,f,1,2.001,3,1,13,0,1,,,,,
,1.96,,,,,,,,,j.PNG,j,6149fe74f3ae7e973379aac3,2021-10-19_16h07.50.877,forced_choiceRT,2021.1.2,Win32,60.0240096,,,,,,,,9,Slow,j,1,2.534,3,2,14,3,1,,,,,
,1.13,,,,,,,,,h.PNG,h,6149fe74f3ae7e973379aac3,2021-10-19_16h07.50.877,forced_choiceRT,2021.1.2,Win32,60.0240096,,,,,,,,9,Slow,h,1,2.116,3,3,15,2,1,,,,,
,1.94,,,,,,,,,f.PNG,f,6149fe74f3ae7e973379aac3,2021-10-19_16h07.50.877,forced_choiceRT,2021.1.2,Win32,60.0240096,,,,,,,,9,Slow,f,1,2.5,4,0,16,0,1,,,,,
,1.93,,,,,,,,,j.PNG,j,6149fe74f3ae7e973379aac3,2021-10-19_16h07.50.877,forced_choiceRT,2021.1.2,Win32,60.0240096,,,,,,,,9,Slow,j,1,2.466,4,1,17,3,1,,,,,
,1.78,,,,,,,,,g.PNG,g,6149fe74f3ae7e973379aac3,2021-10-19_16h07.50.877,forced_choiceRT,2021.1.2,Win32,60.0240096,,,,,,,,9,Slow,g,1,2.449,4,2,18,1,1,,,,,
,1.7,,,,,,,,,j.PNG,j,6149fe74f3ae7e973379aac3,2021-10-19_16h07.50.877,forced_choiceRT,2021.1.2,Win32,60.0240096,,,,,,,,9,Slow,j,1,2.316,4,3,19,3,1,,,,,
,1.29,,,,,,,,,h.PNG,h,6149fe74f3ae7e973379aac3,2021-10-19_16h07.50.877,forced_choiceRT,2021.1.2,Win32,60.0240096,,,,,,,,9,Ontime,g,0,1.951,5,0,20,2,1,,,,,
,1.29,,,,,,,,,g.PNG,g,6149fe74f3ae7e973379aac3,2021-10-19_16h07.50.877,forced_choiceRT,2021.1.2,Win32,60.0240096,,,,,,,,9,Ontime,g,1,1.955,5,1,21,1,1,,,,,
,0.13,,,,,,,,,j.PNG,j,6149fe74f3ae7e973379aac3,2021-10-19_16h07.50.877,forced_choiceRT,2021.1.2,Win32,60.0240096,,,,,,,,9,Ontime,j,1,1.938,5,2,22,3,1,,,,,
,1.32,,,,,,,,,f.PNG,f,6149fe74f3ae7e973379aac3,2021-10-19_16h07.50.877,forced_choiceRT,2021.1.2,Win32,60.0240096,,,,,,,,9,Ontime,f,1,1.97,5,3,23,0,1,,,,,
,0.66,,,,,,,,,j.PNG,j,6149fe74f3ae7e973379aac3,2021-10-19_16h07.50.877,forced_choiceRT,2021.1.2,Win32,60.0240096,,,,,,,,9,Ontime,j,1,1.983,6,0,24,3,1,,,,,
,0.71,,,,,,,,,h.PNG,h,6149fe74f3ae7e973379aac3,2021-10-19_16h07.50.877,forced_choiceRT,2021.1.2,Win32,60.0240096,,,,,,,,9,Ontime,h,1,1.921,6,1,25,2,1,,,,,
,1.85,,,,,,,,,g.PNG,g,6149fe74f3ae7e973379aac3,2021-10-19_16h07.50.877,forced_choiceRT,2021.1.2,Win32,60.0240096,,,,,,,,9,Slow,g,1,2.449,6,2,26,1,1,,,,,
,1.36,,,,,,,,,g.PNG,g,6149fe74f3ae7e973379aac3,2021-10-19_16h07.50.877,forced_choiceRT,2021.1.2,Win32,60.0240096,,,,,,,,9,Ontime,g,1,1.95,6,3,27,1,1,,,,,
,1.76,,,,,,,,,h.PNG,h,6149fe74f3ae7e973379aac3,2021-10-19_16h07.50.877,forced_choiceRT,2021.1.2,Win32,60.0240096,,,,,,,,9,Slow,j,0,2.216,7,0,28,2,1,,,,,
,0.03,,,,,,,,,f.PNG,f,6149fe74f3ae7e973379aac3,2021-10-19_16h07.50.877,forced_choiceRT,2021.1.2,Win32,60.0240096,,,,,,,,9,Ontime,f,1,2.084,7,1,29,0,1,,,,,
,0.83,,,,,,,,,h.PNG,h,6149fe74f3ae7e973379aac3,2021-10-19_16h07.50.877,forced_choiceRT,2021.1.2,Win32,60.0240096,,,,,,,,9,Ontime,h,1,2.016,7,2,30,2,1,,,,,
,0.97,,,,,,,,,g.PNG,g,6149fe74f3ae7e973379aac3,2021-10-19_16h07.50.877,forced_choiceRT,2021.1.2,Win32,60.0240096,,,,,,,,9,Ontime,g,1,1.999,7,3,31,1,1,,,,,
,0.67,,,,,,,,,h.PNG,h,6149fe74f3ae7e973379aac3,2021-10-19_16h07.50.877,forced_choiceRT,2021.1.2,Win32,60.0240096,,,,,,,,9,Ontime,h,1,2.036,8,0,32,2,1,,,,,
,0.46,,,,,,,,,f.PNG,f,6149fe74f3ae7e973379aac3,2021-10-19_16h07.50.877,forced_choiceRT,2021.1.2,Win32,60.0240096,,,,,,,,9,Ontime,f,1,1.953,8,1,33,0,1,,,,,
,0.44,,,,,,,,,h.PNG,h,6149fe74f3ae7e973379aac3,2021-10-19_16h07.50.877,forced_choiceRT,2021.1.2,Win32,60.0240096,,,,,,,,9,Ontime,h,1,1.972,8,2,34,2,1,,,,,
,1.91,,,,,,,,,h.PNG,h,6149fe74f3ae7e973379aac3,2021-10-19_16h07.50.877,forced_choiceRT,2021.1.2,Win32,60.0240096,,,,,,,,9,Slow,h,1,2.35,8,3,35,2,1,,,,,
,1.53,,,,,,,,,f.PNG,f,6149fe74f3ae7e973379aac3,2021-10-19_16h07.50.877,forced_choiceRT,2021.1.2,Win32,60.0240096,,,,,,,,9,Slow,f,1,2.201,9,0,36,0,1,,,,,
,1.54,,,,,,,,,f.PNG,f,6149fe74f3ae7e973379aac3,2021-10-19_16h07.50.877,forced_choiceRT,2021.1.2,Win32,60.0240096,,,,,,,,9,Ontime,f,1,2.066,9,1,37,0,1,,,,,
,0.22,,,,,,,,,j.PNG,j,6149fe74f3ae7e973379aac3,2021-10-19_16h07.50.877,forced_choiceRT,2021.1.2,Win32,60.0240096,,,,,,,,9,Fast,j,1,1.9,9,2,38,3,1,,,,,
,0.87,,,,,,,,,g.PNG,g,6149fe74f3ae7e973379aac3,2021-10-19_16h07.50.877,forced_choiceRT,2021.1.2,Win32,60.0240096,,,,,,,,9,Ontime,g,1,2.05,9,3,39,1,1,,,,,
,,,,,,,,,,,,6149fe74f3ae7e973379aac3,2021-10-19_16h07.50.877,forced_choiceRT,2021.1.2,Win32,60.0240096,,,,,,,,,,,,,,,,,,8,0,8,0,1
,1.14,,,,,,,,,g.PNG,g,6149fe74f3ae7e973379aac3,2021-10-19_16h07.50.877,forced_choiceRT,2021.1.2,Win32,60.0240096,,,,,,,,10,Slow,g,1,2.389,0,0,0,1,1,,,,,
,1.08,,,,,,,,,j.PNG,j,6149fe74f3ae7e973379aac3,2021-10-19_16h07.50.877,forced_choiceRT,2021.1.2,Win32,60.0240096,,,,,,,,10,Ontime,j,1,2.034,0,1,1,3,1,,,,,
,0.95,,,,,,,,,f.PNG,f,6149fe74f3ae7e973379aac3,2021-10-19_16h07.50.877,forced_choiceRT,2021.1.2,Win32,60.0240096,,,,,,,,10,Ontime,f,1,2.018,0,2,2,0,1,,,,,
,1.82,,,,,,,,,g.PNG,g,6149fe74f3ae7e973379aac3,2021-10-19_16h07.50.877,forced_choiceRT,2021.1.2,Win32,60.0240096,,,,,,,,10,Slow,g,1,2.572,0,3,3,1,1,,,,,
,1.75,,,,,,,,,j.PNG,j,6149fe74f3ae7e973379aac3,2021-10-19_16h07.50.877,forced_choiceRT,2021.1.2,Win32,60.0240096,,,,,,,,10,Slow,j,1,2.303,1,0,4,3,1,,,,,
,0.34,,,,,,,,,f.PNG,f,6149fe74f3ae7e973379aac3,2021-10-19_16h07.50.877,forced_choiceRT,2021.1.2,Win32,60.0240096,,,,,,,,10,Ontime,f,1,1.934,1,1,5,0,1,,,,,
,1.65,,,,,,,,,h.PNG,h,6149fe74f3ae7e973379aac3,2021-10-19_16h07.50.877,forced_choiceRT,2021.1.2,Win32,60.0240096,,,,,,,,10,Slow,h,1,2.289,1,2,6,2,1,,,,,
,1.8,,,,,,,,,h.PNG,h,6149fe74f3ae7e973379aac3,2021-10-19_16h07.50.877,forced_choiceRT,2021.1.2,Win32,60.0240096,,,,,,,,10,Slow,h,1,2.372,1,3,7,2,1,,,,,
,1.99,,,,,,,,,h.PNG,h,6149fe74f3ae7e973379aac3,2021-10-19_16h07.50.877,forced_choiceRT,2021.1.2,Win32,60.0240096,,,,,,,,10,Slow,h,1,2.555,2,0,8,2,1,,,,,
,0.7,,,,,,,,,f.PNG,f,6149fe74f3ae7e973379aac3,2021-10-19_16h07.50.877,forced_choiceRT,2021.1.2,Win32,60.0240096,,,,,,,,10,Ontime,f,1,2.067,2,1,9,0,1,,,,,
,1.6,,,,,,,,,f.PNG,f,6149fe74f3ae7e973379aac3,2021-10-19_16h07.50.877,forced_choiceRT,2021.1.2,Win32,60.0240096,,,,,,,,10,Slow,f,1,2.217,2,2,10,0,1,,,,,
,1.69,,,,,,,,,h.PNG,h,6149fe74f3ae7e973379aac3,2021-10-19_16h07.50.877,forced_choiceRT,2021.1.2,Win32,60.0240096,,,,,,,,10,Slow,h,1,2.235,2,3,11,2,1,,,,,
,1,,,,,,,,,h.PNG,h,6149fe74f3ae7e973379aac3,2021-10-19_16h07.50.877,forced_choiceRT,2021.1.2,Win32,60.0240096,,,,,,,,10,Ontime,h,1,2,3,0,12,2,1,,,,,
,1.94,,,,,,,,,h.PNG,h,6149fe74f3ae7e973379aac3,2021-10-19_16h07.50.877,forced_choiceRT,2021.1.2,Win32,60.0240096,,,,,,,,10,Slow,h,1,2.336,3,1,13,2,1,,,,,
,0.38,,,,,,,,,f.PNG,f,6149fe74f3ae7e973379aac3,2021-10-19_16h07.50.877,forced_choiceRT,2021.1.2,Win32,60.0240096,,,,,,,,10,Ontime,f,1,2.055,3,2,14,0,1,,,,,
,0.57,,,,,,,,,j.PNG,j,6149fe74f3ae7e973379aac3,2021-10-19_16h07.50.877,forced_choiceRT,2021.1.2,Win32,60.0240096,,,,,,,,10,Ontime,j,1,2.033,3,3,15,3,1,,,,,
,0.3,,,,,,,,,g.PNG,g,6149fe74f3ae7e973379aac3,2021-10-19_16h07.50.877,forced_choiceRT,2021.1.2,Win32,60.0240096,,,,,,,,10,Ontime,g,1,2.049,4,0,16,1,1,,,,,
,0.02,,,,,,,,,g.PNG,g,6149fe74f3ae7e973379aac3,2021-10-19_16h07.50.877,forced_choiceRT,2021.1.2,Win32,60.0240096,,,,,,,,10,Ontime,g,1,1.918,4,1,17,1,1,,,,,
,1.49,,,,,,,,,j.PNG,j,6149fe74f3ae7e973379aac3,2021-10-19_16h07.50.877,forced_choiceRT,2021.1.2,Win32,60.0240096,,,,,,,,10,Slow,f,0,2.134,4,2,18,3,1,,,,,
,0.51,,,,,,,,,g.PNG,g,6149fe74f3ae7e973379aac3,2021-10-19_16h07.50.877,forced_choiceRT,2021.1.2,Win32,60.0240096,,,,,,,,10,Ontime,g,1,2.034,4,3,19,1,1,,,,,
,0.06,,,,,,,,,j.PNG,j,6149fe74f3ae7e973379aac3,2021-10-19_16h07.50.877,forced_choiceRT,2021.1.2,Win32,60.0240096,,,,,,,,10,Ontime,j,1,2.086,5,0,20,3,1,,,,,
,0.93,,,,,,,,,f.PNG,f,6149fe74f3ae7e973379aac3,2021-10-19_16h07.50.877,forced_choiceRT,2021.1.2,Win32,60.0240096,,,,,,,,10,Ontime,f,1,2.066,5,1,21,0,1,,,,,
,1.56,,,,,,,,,g.PNG,g,6149fe74f3ae7e973379aac3,2021-10-19_16h07.50.877,forced_choiceRT,2021.1.2,Win32,60.0240096,,,,,,,,10,Slow,g,1,2.283,5,2,22,1,1,,,,,
,0.02,,,,,,,,,j.PNG,j,6149fe74f3ae7e973379aac3,2021-10-19_16h07.50.877,forced_choiceRT,2021.1.2,Win32,60.0240096,,,,,,,,10,Fast,j,1,1.866,5,3,23,3,1,,,,,
,0.31,,,,,,,,,g.PNG,g,6149fe74f3ae7e973379aac3,2021-10-19_16h07.50.877,forced_choiceRT,2021.1.2,Win32,60.0240096,,,,,,,,10,Ontime,g,1,2.039,6,0,24,1,1,,,,,
,1.74,,,,,,,,,f.PNG,f,6149fe74f3ae7e973379aac3,2021-10-19_16h07.50.877,forced_choiceRT,2021.1.2,Win32,60.0240096,,,,,,,,10,Slow,f,1,2.357,6,1,25,0,1,,,,,
,1.62,,,,,,,,,g.PNG,g,6149fe74f3ae7e973379aac3,2021-10-19_16h07.50.877,forced_choiceRT,2021.1.2,Win32,60.0240096,,,,,,,,10,Slow,g,1,2.287,6,2,26,1,1,,,,,
,1.22,,,,,,,,,j.PNG,j,6149fe74f3ae7e973379aac3,2021-10-19_16h07.50.877,forced_choiceRT,2021.1.2,Win32,60.0240096,,,,,,,,10,Slow,j,1,2.185,6,3,27,3,1,,,,,
,1.27,,,,,,,,,h.PNG,h,6149fe74f3ae7e973379aac3,2021-10-19_16h07.50.877,forced_choiceRT,2021.1.2,Win32,60.0240096,,,,,,,,10,Ontime,g,0,1.982,7,0,28,2,1,,,,,
,0.18,,,,,,,,,j.PNG,j,6149fe74f3ae7e973379aac3,2021-10-19_16h07.50.877,forced_choiceRT,2021.1.2,Win32,60.0240096,,,,,,,,10,Ontime,j,1,1.938,7,1,29,3,1,,,,,
,1.29,,,,,,,,,j.PNG,j,6149fe74f3ae7e973379aac3,2021-10-19_16h07.50.877,forced_choiceRT,2021.1.2,Win32,60.0240096,,,,,,,,10,Ontime,j,1,2.008,7,2,30,3,1,,,,,
,0.31,,,,,,,,,h.PNG,h,6149fe74f3ae7e973379aac3,2021-10-19_16h07.50.877,forced_choiceRT,2021.1.2,Win32,60.0240096,,,,,,,,10,Ontime,h,1,1.956,7,3,31,2,1,,,,,
,0.89,,,,,,,,,g.PNG,g,6149fe74f3ae7e973379aac3,2021-10-19_16h07.50.877,forced_choiceRT,2021.1.2,Win32,60.0240096,,,,,,,,10,Slow,g,1,2.27,8,0,32,1,1,,,,,
,1.88,,,,,,,,,f.PNG,f,6149fe74f3ae7e973379aac3,2021-10-19_16h07.50.877,forced_choiceRT,2021.1.2,Win32,60.0240096,,,,,,,,10,Slow,f,1,2.466,8,1,33,0,1,,,,,
,0.21,,,,,,,,,h.PNG,h,6149fe74f3ae7e973379aac3,2021-10-19_16h07.50.877,forced_choiceRT,2021.1.2,Win32,60.0240096,,,,,,,,10,Ontime,h,1,2.039,8,2,34,2,1,,,,,
,1.77,,,,,,,,,f.PNG,f,6149fe74f3ae7e973379aac3,2021-10-19_16h07.50.877,forced_choiceRT,2021.1.2,Win32,60.0240096,,,,,,,,10,Slow,f,1,2.4,8,3,35,0,1,,,,,
,0.51,,,,,,,,,g.PNG,g,6149fe74f3ae7e973379aac3,2021-10-19_16h07.50.877,forced_choiceRT,2021.1.2,Win32,60.0240096,,,,,,,,10,Ontime,g,1,2.016,9,0,36,1,1,,,,,
,1.88,,,,,,,,,j.PNG,j,6149fe74f3ae7e973379aac3,2021-10-19_16h07.50.877,forced_choiceRT,2021.1.2,Win32,60.0240096,,,,,,,,10,Slow,j,1,2.599,9,1,37,3,1,,,,,
,1.32,,,,,,,,,h.PNG,h,6149fe74f3ae7e973379aac3,2021-10-19_16h07.50.877,forced_choiceRT,2021.1.2,Win32,60.0240096,,,,,,,,10,Slow,h,1,2.37,9,2,38,2,1,,,,,
,0.21,,,,,,,,,f.PNG,f,6149fe74f3ae7e973379aac3,2021-10-19_16h07.50.877,forced_choiceRT,2021.1.2,Win32,60.0240096,,,,,,,,10,Fast,f,1,1.868,9,3,39,0,1,,,,,
,,,,,,,,,,,,6149fe74f3ae7e973379aac3,2021-10-19_16h07.50.877,forced_choiceRT,2021.1.2,Win32,60.0240096,,,,,,,,,,,,,,,,,,9,0,9,0,1
