IP_Addresss,target_onset,trial_resp_sp.keys,trial_resp_sp.corr,trial_resp_sp.rt,trials_train_loop.thisRepN,trials_train_loop.thisTrialN,trials_train_loop.thisN,trials_train_loop.thisIndex,trials_train_loop.ran,pic,correct_key,participant,date,expName,psychopyVersion,OS,frameRate,trial_resp_timing.keys,trial_resp_timing.rt,trials_train_timing.thisRepN,trials_train_timing.thisTrialN,trials_train_timing.thisN,trials_train_timing.thisIndex,trials_train_timing.ran,block_id,ontime,forcedRT_resp.keys,forcedRT_resp.corr,forcedRT_resp.rt,trials.thisRepN,trials.thisTrialN,trials.thisN,trials.thisIndex,trials.ran,blocks.thisRepN,blocks.thisTrialN,blocks.thisN,blocks.thisIndex,blocks.ran
104.228.97.188,0,f,0,0.575,0,0,0,1,1,g.PNG,g,614ca7f8fc7cba1b74101bfe,2021-10-20_10h50.20.371,forced_choiceRT,2021.1.2,Win32,59.95203837,,,,,,,,,,,,,,,,,,,,,,
,0,h,1,1.049,0,1,1,2,1,h.PNG,h,614ca7f8fc7cba1b74101bfe,2021-10-20_10h50.20.371,forced_choiceRT,2021.1.2,Win32,59.95203837,,,,,,,,,,,,,,,,,,,,,,
,0,f,1,0.751,0,2,2,0,1,f.PNG,f,614ca7f8fc7cba1b74101bfe,2021-10-20_10h50.20.371,forced_choiceRT,2021.1.2,Win32,59.95203837,,,,,,,,,,,,,,,,,,,,,,
,0,j,1,0.693,0,3,3,3,1,j.PNG,j,614ca7f8fc7cba1b74101bfe,2021-10-20_10h50.20.371,forced_choiceRT,2021.1.2,Win32,59.95203837,,,,,,,,,,,,,,,,,,,,,,
,0,f,1,0.803,1,0,4,0,1,f.PNG,f,614ca7f8fc7cba1b74101bfe,2021-10-20_10h50.20.371,forced_choiceRT,2021.1.2,Win32,59.95203837,,,,,,,,,,,,,,,,,,,,,,
,0,h,1,1.181,1,1,5,2,1,h.PNG,h,614ca7f8fc7cba1b74101bfe,2021-10-20_10h50.20.371,forced_choiceRT,2021.1.2,Win32,59.95203837,,,,,,,,,,,,,,,,,,,,,,
,0,g,1,0.835,1,2,6,1,1,g.PNG,g,614ca7f8fc7cba1b74101bfe,2021-10-20_10h50.20.371,forced_choiceRT,2021.1.2,Win32,59.95203837,,,,,,,,,,,,,,,,,,,,,,
,0,f,1,0.67,1,3,7,0,1,f.PNG,f,614ca7f8fc7cba1b74101bfe,2021-10-20_10h50.20.371,forced_choiceRT,2021.1.2,Win32,59.95203837,,,,,,,,,,,,,,,,,,,,,,
,0,f,1,0.609,2,0,8,0,1,f.PNG,f,614ca7f8fc7cba1b74101bfe,2021-10-20_10h50.20.371,forced_choiceRT,2021.1.2,Win32,59.95203837,,,,,,,,,,,,,,,,,,,,,,
,0,g,0,1.231,2,1,9,2,1,h.PNG,h,614ca7f8fc7cba1b74101bfe,2021-10-20_10h50.20.371,forced_choiceRT,2021.1.2,Win32,59.95203837,,,,,,,,,,,,,,,,,,,,,,
,0,j,1,0.757,2,2,10,3,1,j.PNG,j,614ca7f8fc7cba1b74101bfe,2021-10-20_10h50.20.371,forced_choiceRT,2021.1.2,Win32,59.95203837,,,,,,,,,,,,,,,,,,,,,,
,0,h,1,0.618,2,3,11,2,1,h.PNG,h,614ca7f8fc7cba1b74101bfe,2021-10-20_10h50.20.371,forced_choiceRT,2021.1.2,Win32,59.95203837,,,,,,,,,,,,,,,,,,,,,,
,0,f,1,0.697,3,0,12,0,1,f.PNG,f,614ca7f8fc7cba1b74101bfe,2021-10-20_10h50.20.371,forced_choiceRT,2021.1.2,Win32,59.95203837,,,,,,,,,,,,,,,,,,,,,,
,0,j,1,0.655,3,1,13,3,1,j.PNG,j,614ca7f8fc7cba1b74101bfe,2021-10-20_10h50.20.371,forced_choiceRT,2021.1.2,Win32,59.95203837,,,,,,,,,,,,,,,,,,,,,,
,0,h,1,0.662,3,2,14,2,1,h.PNG,h,614ca7f8fc7cba1b74101bfe,2021-10-20_10h50.20.371,forced_choiceRT,2021.1.2,Win32,59.95203837,,,,,,,,,,,,,,,,,,,,,,
,0,f,1,0.668,3,3,15,0,1,f.PNG,f,614ca7f8fc7cba1b74101bfe,2021-10-20_10h50.20.371,forced_choiceRT,2021.1.2,Win32,59.95203837,,,,,,,,,,,,,,,,,,,,,,
,0,g,1,0.74,4,0,16,1,1,g.PNG,g,614ca7f8fc7cba1b74101bfe,2021-10-20_10h50.20.371,forced_choiceRT,2021.1.2,Win32,59.95203837,,,,,,,,,,,,,,,,,,,,,,
,0,g,1,0.652,4,1,17,1,1,g.PNG,g,614ca7f8fc7cba1b74101bfe,2021-10-20_10h50.20.371,forced_choiceRT,2021.1.2,Win32,59.95203837,,,,,,,,,,,,,,,,,,,,,,
,0,g,1,0.552,4,2,18,1,1,g.PNG,g,614ca7f8fc7cba1b74101bfe,2021-10-20_10h50.20.371,forced_choiceRT,2021.1.2,Win32,59.95203837,,,,,,,,,,,,,,,,,,,,,,
,0,f,1,0.655,4,3,19,0,1,f.PNG,f,614ca7f8fc7cba1b74101bfe,2021-10-20_10h50.20.371,forced_choiceRT,2021.1.2,Win32,59.95203837,,,,,,,,,,,,,,,,,,,,,,
,0,h,1,0.884,5,0,20,2,1,h.PNG,h,614ca7f8fc7cba1b74101bfe,2021-10-20_10h50.20.371,forced_choiceRT,2021.1.2,Win32,59.95203837,,,,,,,,,,,,,,,,,,,,,,
,0,f,1,0.621,5,1,21,0,1,f.PNG,f,614ca7f8fc7cba1b74101bfe,2021-10-20_10h50.20.371,forced_choiceRT,2021.1.2,Win32,59.95203837,,,,,,,,,,,,,,,,,,,,,,
,0,f,0,0.592,5,2,22,2,1,h.PNG,h,614ca7f8fc7cba1b74101bfe,2021-10-20_10h50.20.371,forced_choiceRT,2021.1.2,Win32,59.95203837,,,,,,,,,,,,,,,,,,,,,,
,0,j,1,0.677,5,3,23,3,1,j.PNG,j,614ca7f8fc7cba1b74101bfe,2021-10-20_10h50.20.371,forced_choiceRT,2021.1.2,Win32,59.95203837,,,,,,,,,,,,,,,,,,,,,,
,0,j,1,0.878,6,0,24,3,1,j.PNG,j,614ca7f8fc7cba1b74101bfe,2021-10-20_10h50.20.371,forced_choiceRT,2021.1.2,Win32,59.95203837,,,,,,,,,,,,,,,,,,,,,,
,0,g,1,0.738,6,1,25,1,1,g.PNG,g,614ca7f8fc7cba1b74101bfe,2021-10-20_10h50.20.371,forced_choiceRT,2021.1.2,Win32,59.95203837,,,,,,,,,,,,,,,,,,,,,,
,0,f,1,0.66,6,2,26,0,1,f.PNG,f,614ca7f8fc7cba1b74101bfe,2021-10-20_10h50.20.371,forced_choiceRT,2021.1.2,Win32,59.95203837,,,,,,,,,,,,,,,,,,,,,,
,0,j,1,0.738,6,3,27,3,1,j.PNG,j,614ca7f8fc7cba1b74101bfe,2021-10-20_10h50.20.371,forced_choiceRT,2021.1.2,Win32,59.95203837,,,,,,,,,,,,,,,,,,,,,,
,0,g,1,0.885,7,0,28,1,1,g.PNG,g,614ca7f8fc7cba1b74101bfe,2021-10-20_10h50.20.371,forced_choiceRT,2021.1.2,Win32,59.95203837,,,,,,,,,,,,,,,,,,,,,,
,0,j,1,0.916,7,1,29,3,1,j.PNG,j,614ca7f8fc7cba1b74101bfe,2021-10-20_10h50.20.371,forced_choiceRT,2021.1.2,Win32,59.95203837,,,,,,,,,,,,,,,,,,,,,,
,0,h,1,0.972,7,2,30,2,1,h.PNG,h,614ca7f8fc7cba1b74101bfe,2021-10-20_10h50.20.371,forced_choiceRT,2021.1.2,Win32,59.95203837,,,,,,,,,,,,,,,,,,,,,,
,0,f,1,0.755,7,3,31,0,1,f.PNG,f,614ca7f8fc7cba1b74101bfe,2021-10-20_10h50.20.371,forced_choiceRT,2021.1.2,Win32,59.95203837,,,,,,,,,,,,,,,,,,,,,,
,0,g,1,0.852,8,0,32,1,1,g.PNG,g,614ca7f8fc7cba1b74101bfe,2021-10-20_10h50.20.371,forced_choiceRT,2021.1.2,Win32,59.95203837,,,,,,,,,,,,,,,,,,,,,,
,0,h,1,0.864,8,1,33,2,1,h.PNG,h,614ca7f8fc7cba1b74101bfe,2021-10-20_10h50.20.371,forced_choiceRT,2021.1.2,Win32,59.95203837,,,,,,,,,,,,,,,,,,,,,,
,0,g,1,0.719,8,2,34,1,1,g.PNG,g,614ca7f8fc7cba1b74101bfe,2021-10-20_10h50.20.371,forced_choiceRT,2021.1.2,Win32,59.95203837,,,,,,,,,,,,,,,,,,,,,,
,0,f,1,0.971,8,3,35,0,1,f.PNG,f,614ca7f8fc7cba1b74101bfe,2021-10-20_10h50.20.371,forced_choiceRT,2021.1.2,Win32,59.95203837,,,,,,,,,,,,,,,,,,,,,,
,0,h,1,0.85,9,0,36,2,1,h.PNG,h,614ca7f8fc7cba1b74101bfe,2021-10-20_10h50.20.371,forced_choiceRT,2021.1.2,Win32,59.95203837,,,,,,,,,,,,,,,,,,,,,,
,0,g,1,0.801,9,1,37,1,1,g.PNG,g,614ca7f8fc7cba1b74101bfe,2021-10-20_10h50.20.371,forced_choiceRT,2021.1.2,Win32,59.95203837,,,,,,,,,,,,,,,,,,,,,,
,0,g,1,1.228,9,2,38,1,1,g.PNG,g,614ca7f8fc7cba1b74101bfe,2021-10-20_10h50.20.371,forced_choiceRT,2021.1.2,Win32,59.95203837,,,,,,,,,,,,,,,,,,,,,,
,0,j,1,0.717,9,3,39,3,1,j.PNG,j,614ca7f8fc7cba1b74101bfe,2021-10-20_10h50.20.371,forced_choiceRT,2021.1.2,Win32,59.95203837,,,,,,,,,,,,,,,,,,,,,,
,0,f,0,0.851,10,0,40,2,1,h.PNG,h,614ca7f8fc7cba1b74101bfe,2021-10-20_10h50.20.371,forced_choiceRT,2021.1.2,Win32,59.95203837,,,,,,,,,,,,,,,,,,,,,,
,0,j,1,0.735,10,1,41,3,1,j.PNG,j,614ca7f8fc7cba1b74101bfe,2021-10-20_10h50.20.371,forced_choiceRT,2021.1.2,Win32,59.95203837,,,,,,,,,,,,,,,,,,,,,,
,0,h,1,0.866,10,2,42,2,1,h.PNG,h,614ca7f8fc7cba1b74101bfe,2021-10-20_10h50.20.371,forced_choiceRT,2021.1.2,Win32,59.95203837,,,,,,,,,,,,,,,,,,,,,,
,0,h,1,0.9,10,3,43,2,1,h.PNG,h,614ca7f8fc7cba1b74101bfe,2021-10-20_10h50.20.371,forced_choiceRT,2021.1.2,Win32,59.95203837,,,,,,,,,,,,,,,,,,,,,,
,0,f,1,0.643,11,0,44,0,1,f.PNG,f,614ca7f8fc7cba1b74101bfe,2021-10-20_10h50.20.371,forced_choiceRT,2021.1.2,Win32,59.95203837,,,,,,,,,,,,,,,,,,,,,,
,0,j,1,0.717,11,1,45,3,1,j.PNG,j,614ca7f8fc7cba1b74101bfe,2021-10-20_10h50.20.371,forced_choiceRT,2021.1.2,Win32,59.95203837,,,,,,,,,,,,,,,,,,,,,,
,0,j,1,0.616,11,2,46,3,1,j.PNG,j,614ca7f8fc7cba1b74101bfe,2021-10-20_10h50.20.371,forced_choiceRT,2021.1.2,Win32,59.95203837,,,,,,,,,,,,,,,,,,,,,,
,0,g,1,0.732,11,3,47,1,1,g.PNG,g,614ca7f8fc7cba1b74101bfe,2021-10-20_10h50.20.371,forced_choiceRT,2021.1.2,Win32,59.95203837,,,,,,,,,,,,,,,,,,,,,,
,0,g,1,0.961,12,0,48,1,1,g.PNG,g,614ca7f8fc7cba1b74101bfe,2021-10-20_10h50.20.371,forced_choiceRT,2021.1.2,Win32,59.95203837,,,,,,,,,,,,,,,,,,,,,,
,0,j,1,0.669,12,1,49,3,1,j.PNG,j,614ca7f8fc7cba1b74101bfe,2021-10-20_10h50.20.371,forced_choiceRT,2021.1.2,Win32,59.95203837,,,,,,,,,,,,,,,,,,,,,,
,0,f,1,1.166,12,2,50,0,1,f.PNG,f,614ca7f8fc7cba1b74101bfe,2021-10-20_10h50.20.371,forced_choiceRT,2021.1.2,Win32,59.95203837,,,,,,,,,,,,,,,,,,,,,,
,0,j,1,0.741,12,3,51,3,1,j.PNG,j,614ca7f8fc7cba1b74101bfe,2021-10-20_10h50.20.371,forced_choiceRT,2021.1.2,Win32,59.95203837,,,,,,,,,,,,,,,,,,,,,,
,0,j,1,0.544,13,0,52,3,1,j.PNG,j,614ca7f8fc7cba1b74101bfe,2021-10-20_10h50.20.371,forced_choiceRT,2021.1.2,Win32,59.95203837,,,,,,,,,,,,,,,,,,,,,,
,0,f,1,0.624,13,1,53,0,1,f.PNG,f,614ca7f8fc7cba1b74101bfe,2021-10-20_10h50.20.371,forced_choiceRT,2021.1.2,Win32,59.95203837,,,,,,,,,,,,,,,,,,,,,,
,0,f,1,0.594,13,2,54,0,1,f.PNG,f,614ca7f8fc7cba1b74101bfe,2021-10-20_10h50.20.371,forced_choiceRT,2021.1.2,Win32,59.95203837,,,,,,,,,,,,,,,,,,,,,,
,0,h,1,0.622,13,3,55,2,1,h.PNG,h,614ca7f8fc7cba1b74101bfe,2021-10-20_10h50.20.371,forced_choiceRT,2021.1.2,Win32,59.95203837,,,,,,,,,,,,,,,,,,,,,,
,0,j,0,0.632,14,0,56,2,1,h.PNG,h,614ca7f8fc7cba1b74101bfe,2021-10-20_10h50.20.371,forced_choiceRT,2021.1.2,Win32,59.95203837,,,,,,,,,,,,,,,,,,,,,,
,0,g,1,1.442,14,1,57,1,1,g.PNG,g,614ca7f8fc7cba1b74101bfe,2021-10-20_10h50.20.371,forced_choiceRT,2021.1.2,Win32,59.95203837,,,,,,,,,,,,,,,,,,,,,,
,0,j,1,0.722,14,2,58,3,1,j.PNG,j,614ca7f8fc7cba1b74101bfe,2021-10-20_10h50.20.371,forced_choiceRT,2021.1.2,Win32,59.95203837,,,,,,,,,,,,,,,,,,,,,,
,0,g,1,0.701,14,3,59,1,1,g.PNG,g,614ca7f8fc7cba1b74101bfe,2021-10-20_10h50.20.371,forced_choiceRT,2021.1.2,Win32,59.95203837,,,,,,,,,,,,,,,,,,,,,,
,,,,,,,,,,,,614ca7f8fc7cba1b74101bfe,2021-10-20_10h50.20.371,forced_choiceRT,2021.1.2,Win32,59.95203837,j,2.08,0,0,0,0,1,,,,,,,,,,,,,,,
,,,,,,,,,,,,614ca7f8fc7cba1b74101bfe,2021-10-20_10h50.20.371,forced_choiceRT,2021.1.2,Win32,59.95203837,j,1.988,1,0,1,0,1,,,,,,,,,,,,,,,
,,,,,,,,,,,,614ca7f8fc7cba1b74101bfe,2021-10-20_10h50.20.371,forced_choiceRT,2021.1.2,Win32,59.95203837,j,1.993,2,0,2,0,1,,,,,,,,,,,,,,,
,,,,,,,,,,,,614ca7f8fc7cba1b74101bfe,2021-10-20_10h50.20.371,forced_choiceRT,2021.1.2,Win32,59.95203837,j,1.972,3,0,3,0,1,,,,,,,,,,,,,,,
,,,,,,,,,,,,614ca7f8fc7cba1b74101bfe,2021-10-20_10h50.20.371,forced_choiceRT,2021.1.2,Win32,59.95203837,j,1.951,4,0,4,0,1,,,,,,,,,,,,,,,
,,,,,,,,,,,,614ca7f8fc7cba1b74101bfe,2021-10-20_10h50.20.371,forced_choiceRT,2021.1.2,Win32,59.95203837,j,1.933,5,0,5,0,1,,,,,,,,,,,,,,,
,,,,,,,,,,,,614ca7f8fc7cba1b74101bfe,2021-10-20_10h50.20.371,forced_choiceRT,2021.1.2,Win32,59.95203837,j,1.961,6,0,6,0,1,,,,,,,,,,,,,,,
,,,,,,,,,,,,614ca7f8fc7cba1b74101bfe,2021-10-20_10h50.20.371,forced_choiceRT,2021.1.2,Win32,59.95203837,j,2.001,7,0,7,0,1,,,,,,,,,,,,,,,
,,,,,,,,,,,,614ca7f8fc7cba1b74101bfe,2021-10-20_10h50.20.371,forced_choiceRT,2021.1.2,Win32,59.95203837,j,1.951,8,0,8,0,1,,,,,,,,,,,,,,,
,,,,,,,,,,,,614ca7f8fc7cba1b74101bfe,2021-10-20_10h50.20.371,forced_choiceRT,2021.1.2,Win32,59.95203837,j,1.986,9,0,9,0,1,,,,,,,,,,,,,,,
,,,,,,,,,,,,614ca7f8fc7cba1b74101bfe,2021-10-20_10h50.20.371,forced_choiceRT,2021.1.2,Win32,59.95203837,j,2.038,10,0,10,0,1,,,,,,,,,,,,,,,
,,,,,,,,,,,,614ca7f8fc7cba1b74101bfe,2021-10-20_10h50.20.371,forced_choiceRT,2021.1.2,Win32,59.95203837,j,1.985,11,0,11,0,1,,,,,,,,,,,,,,,
,,,,,,,,,,,,614ca7f8fc7cba1b74101bfe,2021-10-20_10h50.20.371,forced_choiceRT,2021.1.2,Win32,59.95203837,j,2.017,12,0,12,0,1,,,,,,,,,,,,,,,
,,,,,,,,,,,,614ca7f8fc7cba1b74101bfe,2021-10-20_10h50.20.371,forced_choiceRT,2021.1.2,Win32,59.95203837,j,2.01,13,0,13,0,1,,,,,,,,,,,,,,,
,,,,,,,,,,,,614ca7f8fc7cba1b74101bfe,2021-10-20_10h50.20.371,forced_choiceRT,2021.1.2,Win32,59.95203837,j,1.927,14,0,14,0,1,,,,,,,,,,,,,,,
,,,,,,,,,,,,614ca7f8fc7cba1b74101bfe,2021-10-20_10h50.20.371,forced_choiceRT,2021.1.2,Win32,59.95203837,j,2.028,15,0,15,0,1,,,,,,,,,,,,,,,
,,,,,,,,,,,,614ca7f8fc7cba1b74101bfe,2021-10-20_10h50.20.371,forced_choiceRT,2021.1.2,Win32,59.95203837,j,2.068,16,0,16,0,1,,,,,,,,,,,,,,,
,,,,,,,,,,,,614ca7f8fc7cba1b74101bfe,2021-10-20_10h50.20.371,forced_choiceRT,2021.1.2,Win32,59.95203837,j,2.001,17,0,17,0,1,,,,,,,,,,,,,,,
,,,,,,,,,,,,614ca7f8fc7cba1b74101bfe,2021-10-20_10h50.20.371,forced_choiceRT,2021.1.2,Win32,59.95203837,j,2.019,18,0,18,0,1,,,,,,,,,,,,,,,
,,,,,,,,,,,,614ca7f8fc7cba1b74101bfe,2021-10-20_10h50.20.371,forced_choiceRT,2021.1.2,Win32,59.95203837,j,1.938,19,0,19,0,1,,,,,,,,,,,,,,,
,1.52,,,,,,,,,f.PNG,f,614ca7f8fc7cba1b74101bfe,2021-10-20_10h50.20.371,forced_choiceRT,2021.1.2,Win32,59.95203837,,,,,,,,1,Slow,f,1,2.211,0,0,0,0,1,,,,,
,1.22,,,,,,,,,f.PNG,f,614ca7f8fc7cba1b74101bfe,2021-10-20_10h50.20.371,forced_choiceRT,2021.1.2,Win32,59.95203837,,,,,,,,1,Ontime,f,1,2.01,0,1,1,0,1,,,,,
,0.58,,,,,,,,,g.PNG,g,614ca7f8fc7cba1b74101bfe,2021-10-20_10h50.20.371,forced_choiceRT,2021.1.2,Win32,59.95203837,,,,,,,,1,Ontime,g,1,2.058,0,2,2,1,1,,,,,
,1.8,,,,,,,,,h.PNG,h,614ca7f8fc7cba1b74101bfe,2021-10-20_10h50.20.371,forced_choiceRT,2021.1.2,Win32,59.95203837,,,,,,,,1,Slow,j,0,2.256,0,3,3,2,1,,,,,
,1.12,,,,,,,,,g.PNG,g,614ca7f8fc7cba1b74101bfe,2021-10-20_10h50.20.371,forced_choiceRT,2021.1.2,Win32,59.95203837,,,,,,,,1,Ontime,g,1,2.084,1,0,4,1,1,,,,,
,0.08,,,,,,,,,g.PNG,g,614ca7f8fc7cba1b74101bfe,2021-10-20_10h50.20.371,forced_choiceRT,2021.1.2,Win32,59.95203837,,,,,,,,1,Ontime,g,1,2.038,1,1,5,1,1,,,,,
,0.6,,,,,,,,,h.PNG,h,614ca7f8fc7cba1b74101bfe,2021-10-20_10h50.20.371,forced_choiceRT,2021.1.2,Win32,59.95203837,,,,,,,,1,Ontime,h,1,1.988,1,2,6,2,1,,,,,
,0.65,,,,,,,,,j.PNG,j,614ca7f8fc7cba1b74101bfe,2021-10-20_10h50.20.371,forced_choiceRT,2021.1.2,Win32,59.95203837,,,,,,,,1,Ontime,j,1,1.925,1,3,7,3,1,,,,,
,1.28,,,,,,,,,j.PNG,j,614ca7f8fc7cba1b74101bfe,2021-10-20_10h50.20.371,forced_choiceRT,2021.1.2,Win32,59.95203837,,,,,,,,1,Ontime,j,1,1.969,2,0,8,3,1,,,,,
,1.25,,,,,,,,,h.PNG,h,614ca7f8fc7cba1b74101bfe,2021-10-20_10h50.20.371,forced_choiceRT,2021.1.2,Win32,59.95203837,,,,,,,,1,Ontime,h,1,1.983,2,1,9,2,1,,,,,
,0.4,,,,,,,,,h.PNG,h,614ca7f8fc7cba1b74101bfe,2021-10-20_10h50.20.371,forced_choiceRT,2021.1.2,Win32,59.95203837,,,,,,,,1,Ontime,h,1,1.973,2,2,10,2,1,,,,,
,0.31,,,,,,,,,f.PNG,f,614ca7f8fc7cba1b74101bfe,2021-10-20_10h50.20.371,forced_choiceRT,2021.1.2,Win32,59.95203837,,,,,,,,1,Ontime,f,1,1.914,2,3,11,0,1,,,,,
,0.64,,,,,,,,,g.PNG,g,614ca7f8fc7cba1b74101bfe,2021-10-20_10h50.20.371,forced_choiceRT,2021.1.2,Win32,59.95203837,,,,,,,,1,Fast,g,1,1.819,3,0,12,1,1,,,,,
,1.43,,,,,,,,,h.PNG,h,614ca7f8fc7cba1b74101bfe,2021-10-20_10h50.20.371,forced_choiceRT,2021.1.2,Win32,59.95203837,,,,,,,,1,Ontime,h,1,2.081,3,1,13,2,1,,,,,
,1.74,,,,,,,,,f.PNG,f,614ca7f8fc7cba1b74101bfe,2021-10-20_10h50.20.371,forced_choiceRT,2021.1.2,Win32,59.95203837,,,,,,,,1,Slow,f,1,2.224,3,2,14,0,1,,,,,
,0.16,,,,,,,,,j.PNG,j,614ca7f8fc7cba1b74101bfe,2021-10-20_10h50.20.371,forced_choiceRT,2021.1.2,Win32,59.95203837,,,,,,,,1,Ontime,j,1,1.901,3,3,15,3,1,,,,,
,0.17,,,,,,,,,j.PNG,j,614ca7f8fc7cba1b74101bfe,2021-10-20_10h50.20.371,forced_choiceRT,2021.1.2,Win32,59.95203837,,,,,,,,1,Ontime,j,1,1.942,4,0,16,3,1,,,,,
,0.16,,,,,,,,,f.PNG,f,614ca7f8fc7cba1b74101bfe,2021-10-20_10h50.20.371,forced_choiceRT,2021.1.2,Win32,59.95203837,,,,,,,,1,Ontime,f,1,1.953,4,1,17,0,1,,,,,
,0.46,,,,,,,,,j.PNG,j,614ca7f8fc7cba1b74101bfe,2021-10-20_10h50.20.371,forced_choiceRT,2021.1.2,Win32,59.95203837,,,,,,,,1,Ontime,j,1,1.967,4,2,18,3,1,,,,,
,1.14,,,,,,,,,j.PNG,j,614ca7f8fc7cba1b74101bfe,2021-10-20_10h50.20.371,forced_choiceRT,2021.1.2,Win32,59.95203837,,,,,,,,1,Ontime,j,1,1.984,4,3,19,3,1,,,,,
,1.93,,,,,,,,,f.PNG,f,614ca7f8fc7cba1b74101bfe,2021-10-20_10h50.20.371,forced_choiceRT,2021.1.2,Win32,59.95203837,,,,,,,,1,Slow,f,1,5.742,5,0,20,0,1,,,,,
,0.47,,,,,,,,,g.PNG,g,614ca7f8fc7cba1b74101bfe,2021-10-20_10h50.20.371,forced_choiceRT,2021.1.2,Win32,59.95203837,,,,,,,,1,Ontime,g,1,1.935,5,1,21,1,1,,,,,
,0.4,,,,,,,,,f.PNG,f,614ca7f8fc7cba1b74101bfe,2021-10-20_10h50.20.371,forced_choiceRT,2021.1.2,Win32,59.95203837,,,,,,,,1,Ontime,f,1,1.969,5,2,22,0,1,,,,,
,0.14,,,,,,,,,g.PNG,g,614ca7f8fc7cba1b74101bfe,2021-10-20_10h50.20.371,forced_choiceRT,2021.1.2,Win32,59.95203837,,,,,,,,1,Ontime,g,1,1.933,5,3,23,1,1,,,,,
,1.27,,,,,,,,,f.PNG,f,614ca7f8fc7cba1b74101bfe,2021-10-20_10h50.20.371,forced_choiceRT,2021.1.2,Win32,59.95203837,,,,,,,,1,Slow,f,1,2.104,6,0,24,0,1,,,,,
,1.08,,,,,,,,,j.PNG,j,614ca7f8fc7cba1b74101bfe,2021-10-20_10h50.20.371,forced_choiceRT,2021.1.2,Win32,59.95203837,,,,,,,,1,Slow,j,1,2.138,6,1,25,3,1,,,,,
,1.21,,,,,,,,,g.PNG,g,614ca7f8fc7cba1b74101bfe,2021-10-20_10h50.20.371,forced_choiceRT,2021.1.2,Win32,59.95203837,,,,,,,,1,Ontime,g,1,1.934,6,2,26,1,1,,,,,
,1.26,,,,,,,,,g.PNG,g,614ca7f8fc7cba1b74101bfe,2021-10-20_10h50.20.371,forced_choiceRT,2021.1.2,Win32,59.95203837,,,,,,,,1,Ontime,g,1,1.935,6,3,27,1,1,,,,,
,1.06,,,,,,,,,f.PNG,f,614ca7f8fc7cba1b74101bfe,2021-10-20_10h50.20.371,forced_choiceRT,2021.1.2,Win32,59.95203837,,,,,,,,1,Ontime,f,1,1.936,7,0,28,0,1,,,,,
,1.51,,,,,,,,,j.PNG,j,614ca7f8fc7cba1b74101bfe,2021-10-20_10h50.20.371,forced_choiceRT,2021.1.2,Win32,59.95203837,,,,,,,,1,Slow,j,1,2.117,7,1,29,3,1,,,,,
,1.98,,,,,,,,,h.PNG,h,614ca7f8fc7cba1b74101bfe,2021-10-20_10h50.20.371,forced_choiceRT,2021.1.2,Win32,59.95203837,,,,,,,,1,Slow,h,1,2.854,7,2,30,2,1,,,,,
,0.3,,,,,,,,,g.PNG,g,614ca7f8fc7cba1b74101bfe,2021-10-20_10h50.20.371,forced_choiceRT,2021.1.2,Win32,59.95203837,,,,,,,,1,Ontime,g,1,1.918,7,3,31,1,1,,,,,
,1.23,,,,,,,,,g.PNG,g,614ca7f8fc7cba1b74101bfe,2021-10-20_10h50.20.371,forced_choiceRT,2021.1.2,Win32,59.95203837,,,,,,,,1,Ontime,g,1,2.017,8,0,32,1,1,,,,,
,0.13,,,,,,,,,h.PNG,h,614ca7f8fc7cba1b74101bfe,2021-10-20_10h50.20.371,forced_choiceRT,2021.1.2,Win32,59.95203837,,,,,,,,1,Ontime,h,1,1.99,8,1,33,2,1,,,,,
,0.92,,,,,,,,,j.PNG,j,614ca7f8fc7cba1b74101bfe,2021-10-20_10h50.20.371,forced_choiceRT,2021.1.2,Win32,59.95203837,,,,,,,,1,Ontime,j,1,2.049,8,2,34,3,1,,,,,
,1.99,,,,,,,,,h.PNG,h,614ca7f8fc7cba1b74101bfe,2021-10-20_10h50.20.371,forced_choiceRT,2021.1.2,Win32,59.95203837,,,,,,,,1,Slow,j,0,2.318,8,3,35,2,1,,,,,
,1.87,,,,,,,,,h.PNG,h,614ca7f8fc7cba1b74101bfe,2021-10-20_10h50.20.371,forced_choiceRT,2021.1.2,Win32,59.95203837,,,,,,,,1,Slow,h,1,2.571,9,0,36,2,1,,,,,
,1.43,,,,,,,,,h.PNG,h,614ca7f8fc7cba1b74101bfe,2021-10-20_10h50.20.371,forced_choiceRT,2021.1.2,Win32,59.95203837,,,,,,,,1,Ontime,h,1,2.044,9,1,37,2,1,,,,,
,0.32,,,,,,,,,j.PNG,j,614ca7f8fc7cba1b74101bfe,2021-10-20_10h50.20.371,forced_choiceRT,2021.1.2,Win32,59.95203837,,,,,,,,1,Ontime,j,1,1.973,9,2,38,3,1,,,,,
,1.71,,,,,,,,,f.PNG,f,614ca7f8fc7cba1b74101bfe,2021-10-20_10h50.20.371,forced_choiceRT,2021.1.2,Win32,59.95203837,,,,,,,,1,Slow,h,0,2.411,9,3,39,0,1,,,,,
,,,,,,,,,,,,614ca7f8fc7cba1b74101bfe,2021-10-20_10h50.20.371,forced_choiceRT,2021.1.2,Win32,59.95203837,,,,,,,,,,,,,,,,,,0,0,0,0,1
,0.71,,,,,,,,,g.PNG,g,614ca7f8fc7cba1b74101bfe,2021-10-20_10h50.20.371,forced_choiceRT,2021.1.2,Win32,59.95203837,,,,,,,,2,Ontime,g,1,1.978,0,0,0,1,1,,,,,
,0.06,,,,,,,,,g.PNG,g,614ca7f8fc7cba1b74101bfe,2021-10-20_10h50.20.371,forced_choiceRT,2021.1.2,Win32,59.95203837,,,,,,,,2,Ontime,g,1,1.902,0,1,1,1,1,,,,,
,0.44,,,,,,,,,g.PNG,g,614ca7f8fc7cba1b74101bfe,2021-10-20_10h50.20.371,forced_choiceRT,2021.1.2,Win32,59.95203837,,,,,,,,2,Fast,g,1,1.785,0,2,2,1,1,,,,,
,0.7,,,,,,,,,h.PNG,h,614ca7f8fc7cba1b74101bfe,2021-10-20_10h50.20.371,forced_choiceRT,2021.1.2,Win32,59.95203837,,,,,,,,2,Ontime,h,1,2.037,0,3,3,2,1,,,,,
,1.09,,,,,,,,,j.PNG,j,614ca7f8fc7cba1b74101bfe,2021-10-20_10h50.20.371,forced_choiceRT,2021.1.2,Win32,59.95203837,,,,,,,,2,Ontime,j,1,2.058,1,0,4,3,1,,,,,
,1.16,,,,,,,,,g.PNG,g,614ca7f8fc7cba1b74101bfe,2021-10-20_10h50.20.371,forced_choiceRT,2021.1.2,Win32,59.95203837,,,,,,,,2,Ontime,g,1,1.968,1,1,5,1,1,,,,,
,0.1,,,,,,,,,j.PNG,j,614ca7f8fc7cba1b74101bfe,2021-10-20_10h50.20.371,forced_choiceRT,2021.1.2,Win32,59.95203837,,,,,,,,2,Ontime,j,1,1.944,1,2,6,3,1,,,,,
,1.74,,,,,,,,,h.PNG,h,614ca7f8fc7cba1b74101bfe,2021-10-20_10h50.20.371,forced_choiceRT,2021.1.2,Win32,59.95203837,,,,,,,,2,Slow,f,0,2.267,1,3,7,2,1,,,,,
,0.9,,,,,,,,,g.PNG,g,614ca7f8fc7cba1b74101bfe,2021-10-20_10h50.20.371,forced_choiceRT,2021.1.2,Win32,59.95203837,,,,,,,,2,Ontime,g,1,2.006,2,0,8,1,1,,,,,
,0.43,,,,,,,,,f.PNG,f,614ca7f8fc7cba1b74101bfe,2021-10-20_10h50.20.371,forced_choiceRT,2021.1.2,Win32,59.95203837,,,,,,,,2,Ontime,f,1,1.984,2,1,9,0,1,,,,,
,0.29,,,,,,,,,j.PNG,j,614ca7f8fc7cba1b74101bfe,2021-10-20_10h50.20.371,forced_choiceRT,2021.1.2,Win32,59.95203837,,,,,,,,2,Fast,j,1,1.87,2,2,10,3,1,,,,,
,0.61,,,,,,,,,j.PNG,j,614ca7f8fc7cba1b74101bfe,2021-10-20_10h50.20.371,forced_choiceRT,2021.1.2,Win32,59.95203837,,,,,,,,2,Ontime,j,1,2.022,2,3,11,3,1,,,,,
,1.05,,,,,,,,,f.PNG,f,614ca7f8fc7cba1b74101bfe,2021-10-20_10h50.20.371,forced_choiceRT,2021.1.2,Win32,59.95203837,,,,,,,,2,Ontime,f,1,2.001,3,0,12,0,1,,,,,
,0.48,,,,,,,,,h.PNG,h,614ca7f8fc7cba1b74101bfe,2021-10-20_10h50.20.371,forced_choiceRT,2021.1.2,Win32,59.95203837,,,,,,,,2,Ontime,h,1,1.97,3,1,13,2,1,,,,,
,0.74,,,,,,,,,f.PNG,f,614ca7f8fc7cba1b74101bfe,2021-10-20_10h50.20.371,forced_choiceRT,2021.1.2,Win32,59.95203837,,,,,,,,2,Ontime,f,1,1.97,3,2,14,0,1,,,,,
,1.55,,,,,,,,,h.PNG,h,614ca7f8fc7cba1b74101bfe,2021-10-20_10h50.20.371,forced_choiceRT,2021.1.2,Win32,59.95203837,,,,,,,,2,Slow,h,1,2.16,3,3,15,2,1,,,,,
,0.05,,,,,,,,,g.PNG,g,614ca7f8fc7cba1b74101bfe,2021-10-20_10h50.20.371,forced_choiceRT,2021.1.2,Win32,59.95203837,,,,,,,,2,Ontime,g,1,1.992,4,0,16,1,1,,,,,
,1.11,,,,,,,,,g.PNG,g,614ca7f8fc7cba1b74101bfe,2021-10-20_10h50.20.371,forced_choiceRT,2021.1.2,Win32,59.95203837,,,,,,,,2,Ontime,g,1,1.918,4,1,17,1,1,,,,,
,0.6,,,,,,,,,f.PNG,f,614ca7f8fc7cba1b74101bfe,2021-10-20_10h50.20.371,forced_choiceRT,2021.1.2,Win32,59.95203837,,,,,,,,2,Ontime,f,1,2.035,4,2,18,0,1,,,,,
,1.47,,,,,,,,,j.PNG,j,614ca7f8fc7cba1b74101bfe,2021-10-20_10h50.20.371,forced_choiceRT,2021.1.2,Win32,59.95203837,,,,,,,,2,Slow,j,1,2.118,4,3,19,3,1,,,,,
,0.29,,,,,,,,,h.PNG,h,614ca7f8fc7cba1b74101bfe,2021-10-20_10h50.20.371,forced_choiceRT,2021.1.2,Win32,59.95203837,,,,,,,,2,Ontime,h,1,1.985,5,0,20,2,1,,,,,
,1.67,,,,,,,,,h.PNG,h,614ca7f8fc7cba1b74101bfe,2021-10-20_10h50.20.371,forced_choiceRT,2021.1.2,Win32,59.95203837,,,,,,,,2,Slow,h,1,2.261,5,1,21,2,1,,,,,
,1.67,,,,,,,,,j.PNG,j,614ca7f8fc7cba1b74101bfe,2021-10-20_10h50.20.371,forced_choiceRT,2021.1.2,Win32,59.95203837,,,,,,,,2,Slow,h,0,2.237,5,2,22,3,1,,,,,
,0.19,,,,,,,,,j.PNG,j,614ca7f8fc7cba1b74101bfe,2021-10-20_10h50.20.371,forced_choiceRT,2021.1.2,Win32,59.95203837,,,,,,,,2,Ontime,j,1,2.05,5,3,23,3,1,,,,,
,0.61,,,,,,,,,f.PNG,f,614ca7f8fc7cba1b74101bfe,2021-10-20_10h50.20.371,forced_choiceRT,2021.1.2,Win32,59.95203837,,,,,,,,2,Ontime,f,1,2.037,6,0,24,0,1,,,,,
,1.49,,,,,,,,,j.PNG,j,614ca7f8fc7cba1b74101bfe,2021-10-20_10h50.20.371,forced_choiceRT,2021.1.2,Win32,59.95203837,,,,,,,,2,Ontime,j,1,2.054,6,1,25,3,1,,,,,
,1.77,,,,,,,,,g.PNG,g,614ca7f8fc7cba1b74101bfe,2021-10-20_10h50.20.371,forced_choiceRT,2021.1.2,Win32,59.95203837,,,,,,,,2,Slow,g,1,2.558,6,2,26,1,1,,,,,
,1.03,,,,,,,,,h.PNG,h,614ca7f8fc7cba1b74101bfe,2021-10-20_10h50.20.371,forced_choiceRT,2021.1.2,Win32,59.95203837,,,,,,,,2,Ontime,h,1,2.072,6,3,27,2,1,,,,,
,1,,,,,,,,,j.PNG,j,614ca7f8fc7cba1b74101bfe,2021-10-20_10h50.20.371,forced_choiceRT,2021.1.2,Win32,59.95203837,,,,,,,,2,Ontime,j,1,2.024,7,0,28,3,1,,,,,
,1.71,,,,,,,,,f.PNG,f,614ca7f8fc7cba1b74101bfe,2021-10-20_10h50.20.371,forced_choiceRT,2021.1.2,Win32,59.95203837,,,,,,,,2,Slow,g,0,2.236,7,1,29,0,1,,,,,
,1.04,,,,,,,,,g.PNG,g,614ca7f8fc7cba1b74101bfe,2021-10-20_10h50.20.371,forced_choiceRT,2021.1.2,Win32,59.95203837,,,,,,,,2,Ontime,g,1,2.052,7,2,30,1,1,,,,,
,0,,,,,,,,,f.PNG,f,614ca7f8fc7cba1b74101bfe,2021-10-20_10h50.20.371,forced_choiceRT,2021.1.2,Win32,59.95203837,,,,,,,,2,Ontime,f,1,1.953,7,3,31,0,1,,,,,
,1.31,,,,,,,,,j.PNG,j,614ca7f8fc7cba1b74101bfe,2021-10-20_10h50.20.371,forced_choiceRT,2021.1.2,Win32,59.95203837,,,,,,,,2,Ontime,j,1,1.986,8,0,32,3,1,,,,,
,0.3,,,,,,,,,f.PNG,f,614ca7f8fc7cba1b74101bfe,2021-10-20_10h50.20.371,forced_choiceRT,2021.1.2,Win32,59.95203837,,,,,,,,2,Ontime,f,1,1.976,8,1,33,0,1,,,,,
,0.19,,,,,,,,,h.PNG,h,614ca7f8fc7cba1b74101bfe,2021-10-20_10h50.20.371,forced_choiceRT,2021.1.2,Win32,59.95203837,,,,,,,,2,Ontime,h,1,1.972,8,2,34,2,1,,,,,
,1.08,,,,,,,,,f.PNG,f,614ca7f8fc7cba1b74101bfe,2021-10-20_10h50.20.371,forced_choiceRT,2021.1.2,Win32,59.95203837,,,,,,,,2,Ontime,f,1,2.055,8,3,35,0,1,,,,,
,0.62,,,,,,,,,f.PNG,f,614ca7f8fc7cba1b74101bfe,2021-10-20_10h50.20.371,forced_choiceRT,2021.1.2,Win32,59.95203837,,,,,,,,2,Ontime,f,1,2.018,9,0,36,0,1,,,,,
,1.12,,,,,,,,,g.PNG,g,614ca7f8fc7cba1b74101bfe,2021-10-20_10h50.20.371,forced_choiceRT,2021.1.2,Win32,59.95203837,,,,,,,,2,Ontime,g,1,2.077,9,1,37,1,1,,,,,
,1.75,,,,,,,,,h.PNG,h,614ca7f8fc7cba1b74101bfe,2021-10-20_10h50.20.371,forced_choiceRT,2021.1.2,Win32,59.95203837,,,,,,,,2,Slow,h,1,2.319,9,2,38,2,1,,,,,
,1.08,,,,,,,,,h.PNG,h,614ca7f8fc7cba1b74101bfe,2021-10-20_10h50.20.371,forced_choiceRT,2021.1.2,Win32,59.95203837,,,,,,,,2,Ontime,h,1,2.018,9,3,39,2,1,,,,,
,,,,,,,,,,,,614ca7f8fc7cba1b74101bfe,2021-10-20_10h50.20.371,forced_choiceRT,2021.1.2,Win32,59.95203837,,,,,,,,,,,,,,,,,,1,0,1,0,1
,1.34,,,,,,,,,j.PNG,j,614ca7f8fc7cba1b74101bfe,2021-10-20_10h50.20.371,forced_choiceRT,2021.1.2,Win32,59.95203837,,,,,,,,3,Ontime,j,1,2.08,0,0,0,3,1,,,,,
,1.57,,,,,,,,,g.PNG,g,614ca7f8fc7cba1b74101bfe,2021-10-20_10h50.20.371,forced_choiceRT,2021.1.2,Win32,59.95203837,,,,,,,,3,Ontime,g,1,2.09,0,1,1,1,1,,,,,
,1.22,,,,,,,,,g.PNG,g,614ca7f8fc7cba1b74101bfe,2021-10-20_10h50.20.371,forced_choiceRT,2021.1.2,Win32,59.95203837,,,,,,,,3,Ontime,g,1,2.051,0,2,2,1,1,,,,,
,1.55,,,,,,,,,g.PNG,g,614ca7f8fc7cba1b74101bfe,2021-10-20_10h50.20.371,forced_choiceRT,2021.1.2,Win32,59.95203837,,,,,,,,3,Ontime,g,1,2.052,0,3,3,1,1,,,,,
,1.55,,,,,,,,,f.PNG,f,614ca7f8fc7cba1b74101bfe,2021-10-20_10h50.20.371,forced_choiceRT,2021.1.2,Win32,59.95203837,,,,,,,,3,Slow,f,1,2.102,1,0,4,0,1,,,,,
,0.09,,,,,,,,,f.PNG,f,614ca7f8fc7cba1b74101bfe,2021-10-20_10h50.20.371,forced_choiceRT,2021.1.2,Win32,59.95203837,,,,,,,,3,Ontime,f,1,1.971,1,1,5,0,1,,,,,
,0.92,,,,,,,,,f.PNG,f,614ca7f8fc7cba1b74101bfe,2021-10-20_10h50.20.371,forced_choiceRT,2021.1.2,Win32,59.95203837,,,,,,,,3,Ontime,f,1,2.063,1,2,6,0,1,,,,,
,1.47,,,,,,,,,j.PNG,j,614ca7f8fc7cba1b74101bfe,2021-10-20_10h50.20.371,forced_choiceRT,2021.1.2,Win32,59.95203837,,,,,,,,3,Ontime,j,1,2.094,1,3,7,3,1,,,,,
,1.6,,,,,,,,,h.PNG,h,614ca7f8fc7cba1b74101bfe,2021-10-20_10h50.20.371,forced_choiceRT,2021.1.2,Win32,59.95203837,,,,,,,,3,Slow,h,1,2.2,2,0,8,2,1,,,,,
,1.66,,,,,,,,,j.PNG,j,614ca7f8fc7cba1b74101bfe,2021-10-20_10h50.20.371,forced_choiceRT,2021.1.2,Win32,59.95203837,,,,,,,,3,Slow,j,1,2.241,2,1,9,3,1,,,,,
,1.3,,,,,,,,,f.PNG,f,614ca7f8fc7cba1b74101bfe,2021-10-20_10h50.20.371,forced_choiceRT,2021.1.2,Win32,59.95203837,,,,,,,,3,Ontime,f,1,1.959,2,2,10,0,1,,,,,
,1.57,,,,,,,,,g.PNG,g,614ca7f8fc7cba1b74101bfe,2021-10-20_10h50.20.371,forced_choiceRT,2021.1.2,Win32,59.95203837,,,,,,,,3,Slow,g,1,2.237,2,3,11,1,1,,,,,
,0.23,,,,,,,,,f.PNG,f,614ca7f8fc7cba1b74101bfe,2021-10-20_10h50.20.371,forced_choiceRT,2021.1.2,Win32,59.95203837,,,,,,,,3,Ontime,f,1,2.005,3,0,12,0,1,,,,,
,0.74,,,,,,,,,j.PNG,j,614ca7f8fc7cba1b74101bfe,2021-10-20_10h50.20.371,forced_choiceRT,2021.1.2,Win32,59.95203837,,,,,,,,3,Ontime,j,1,2.011,3,1,13,3,1,,,,,
,1.86,,,,,,,,,j.PNG,j,614ca7f8fc7cba1b74101bfe,2021-10-20_10h50.20.371,forced_choiceRT,2021.1.2,Win32,59.95203837,,,,,,,,3,Slow,f,0,2.293,3,2,14,3,1,,,,,
,0.33,,,,,,,,,j.PNG,j,614ca7f8fc7cba1b74101bfe,2021-10-20_10h50.20.371,forced_choiceRT,2021.1.2,Win32,59.95203837,,,,,,,,3,Ontime,j,1,2.041,3,3,15,3,1,,,,,
,1.08,,,,,,,,,g.PNG,g,614ca7f8fc7cba1b74101bfe,2021-10-20_10h50.20.371,forced_choiceRT,2021.1.2,Win32,59.95203837,,,,,,,,3,Ontime,g,1,2.05,4,0,16,1,1,,,,,
,1.34,,,,,,,,,g.PNG,g,614ca7f8fc7cba1b74101bfe,2021-10-20_10h50.20.371,forced_choiceRT,2021.1.2,Win32,59.95203837,,,,,,,,3,Ontime,g,1,1.984,4,1,17,1,1,,,,,
,0.32,,,,,,,,,j.PNG,j,614ca7f8fc7cba1b74101bfe,2021-10-20_10h50.20.371,forced_choiceRT,2021.1.2,Win32,59.95203837,,,,,,,,3,Ontime,j,1,2.021,4,2,18,3,1,,,,,
,0.38,,,,,,,,,j.PNG,j,614ca7f8fc7cba1b74101bfe,2021-10-20_10h50.20.371,forced_choiceRT,2021.1.2,Win32,59.95203837,,,,,,,,3,Ontime,j,1,2.074,4,3,19,3,1,,,,,
,1.89,,,,,,,,,j.PNG,j,614ca7f8fc7cba1b74101bfe,2021-10-20_10h50.20.371,forced_choiceRT,2021.1.2,Win32,59.95203837,,,,,,,,3,Slow,j,1,2.277,5,0,20,3,1,,,,,
,1.7,,,,,,,,,h.PNG,h,614ca7f8fc7cba1b74101bfe,2021-10-20_10h50.20.371,forced_choiceRT,2021.1.2,Win32,59.95203837,,,,,,,,3,Slow,h,1,2.519,5,1,21,2,1,,,,,
,0.37,,,,,,,,,f.PNG,f,614ca7f8fc7cba1b74101bfe,2021-10-20_10h50.20.371,forced_choiceRT,2021.1.2,Win32,59.95203837,,,,,,,,3,Ontime,f,1,2.024,5,2,22,0,1,,,,,
,0.7,,,,,,,,,g.PNG,g,614ca7f8fc7cba1b74101bfe,2021-10-20_10h50.20.371,forced_choiceRT,2021.1.2,Win32,59.95203837,,,,,,,,3,Fast,g,1,1.732,5,3,23,1,1,,,,,
,0.17,,,,,,,,,h.PNG,h,614ca7f8fc7cba1b74101bfe,2021-10-20_10h50.20.371,forced_choiceRT,2021.1.2,Win32,59.95203837,,,,,,,,3,Ontime,h,1,1.987,6,0,24,2,1,,,,,
,0.73,,,,,,,,,f.PNG,f,614ca7f8fc7cba1b74101bfe,2021-10-20_10h50.20.371,forced_choiceRT,2021.1.2,Win32,59.95203837,,,,,,,,3,Ontime,f,1,2.011,6,1,25,0,1,,,,,
,0.45,,,,,,,,,g.PNG,g,614ca7f8fc7cba1b74101bfe,2021-10-20_10h50.20.371,forced_choiceRT,2021.1.2,Win32,59.95203837,,,,,,,,3,Ontime,g,1,2.029,6,2,26,1,1,,,,,
,1.21,,,,,,,,,h.PNG,h,614ca7f8fc7cba1b74101bfe,2021-10-20_10h50.20.371,forced_choiceRT,2021.1.2,Win32,59.95203837,,,,,,,,3,Slow,h,1,2.109,6,3,27,2,1,,,,,
,0.85,,,,,,,,,g.PNG,g,614ca7f8fc7cba1b74101bfe,2021-10-20_10h50.20.371,forced_choiceRT,2021.1.2,Win32,59.95203837,,,,,,,,3,Ontime,g,1,2.022,7,0,28,1,1,,,,,
,0.32,,,,,,,,,f.PNG,f,614ca7f8fc7cba1b74101bfe,2021-10-20_10h50.20.371,forced_choiceRT,2021.1.2,Win32,59.95203837,,,,,,,,3,Ontime,f,1,2.005,7,1,29,0,1,,,,,
,0.69,,,,,,,,,g.PNG,g,614ca7f8fc7cba1b74101bfe,2021-10-20_10h50.20.371,forced_choiceRT,2021.1.2,Win32,59.95203837,,,,,,,,3,Ontime,g,1,1.931,7,2,30,1,1,,,,,
,1.64,,,,,,,,,h.PNG,h,614ca7f8fc7cba1b74101bfe,2021-10-20_10h50.20.371,forced_choiceRT,2021.1.2,Win32,59.95203837,,,,,,,,3,Slow,h,1,2.184,7,3,31,2,1,,,,,
,1.48,,,,,,,,,h.PNG,h,614ca7f8fc7cba1b74101bfe,2021-10-20_10h50.20.371,forced_choiceRT,2021.1.2,Win32,59.95203837,,,,,,,,3,Slow,h,1,2.141,8,0,32,2,1,,,,,
,1.4,,,,,,,,,h.PNG,h,614ca7f8fc7cba1b74101bfe,2021-10-20_10h50.20.371,forced_choiceRT,2021.1.2,Win32,59.95203837,,,,,,,,3,Ontime,h,1,2.055,8,1,33,2,1,,,,,
,0.91,,,,,,,,,h.PNG,h,614ca7f8fc7cba1b74101bfe,2021-10-20_10h50.20.371,forced_choiceRT,2021.1.2,Win32,59.95203837,,,,,,,,3,Ontime,h,1,2.011,8,2,34,2,1,,,,,
,0.85,,,,,,,,,h.PNG,h,614ca7f8fc7cba1b74101bfe,2021-10-20_10h50.20.371,forced_choiceRT,2021.1.2,Win32,59.95203837,,,,,,,,3,Ontime,h,1,1.995,8,3,35,2,1,,,,,
,0.17,,,,,,,,,f.PNG,f,614ca7f8fc7cba1b74101bfe,2021-10-20_10h50.20.371,forced_choiceRT,2021.1.2,Win32,59.95203837,,,,,,,,3,Ontime,f,1,2.035,9,0,36,0,1,,,,,
,1.29,,,,,,,,,f.PNG,f,614ca7f8fc7cba1b74101bfe,2021-10-20_10h50.20.371,forced_choiceRT,2021.1.2,Win32,59.95203837,,,,,,,,3,Ontime,f,1,2.06,9,1,37,0,1,,,,,
,0.31,,,,,,,,,j.PNG,j,614ca7f8fc7cba1b74101bfe,2021-10-20_10h50.20.371,forced_choiceRT,2021.1.2,Win32,59.95203837,,,,,,,,3,Ontime,j,1,1.988,9,2,38,3,1,,,,,
,0.84,,,,,,,,,h.PNG,h,614ca7f8fc7cba1b74101bfe,2021-10-20_10h50.20.371,forced_choiceRT,2021.1.2,Win32,59.95203837,,,,,,,,3,Ontime,h,1,1.989,9,3,39,2,1,,,,,
,,,,,,,,,,,,614ca7f8fc7cba1b74101bfe,2021-10-20_10h50.20.371,forced_choiceRT,2021.1.2,Win32,59.95203837,,,,,,,,,,,,,,,,,,2,0,2,0,1
,0.65,,,,,,,,,j.PNG,j,614ca7f8fc7cba1b74101bfe,2021-10-20_10h50.20.371,forced_choiceRT,2021.1.2,Win32,59.95203837,,,,,,,,4,Ontime,j,1,2.05,0,0,0,3,1,,,,,
,1.27,,,,,,,,,f.PNG,f,614ca7f8fc7cba1b74101bfe,2021-10-20_10h50.20.371,forced_choiceRT,2021.1.2,Win32,59.95203837,,,,,,,,4,Ontime,f,1,2.066,0,1,1,0,1,,,,,
,0.86,,,,,,,,,j.PNG,j,614ca7f8fc7cba1b74101bfe,2021-10-20_10h50.20.371,forced_choiceRT,2021.1.2,Win32,59.95203837,,,,,,,,4,Ontime,j,1,1.968,0,2,2,3,1,,,,,
,0.61,,,,,,,,,g.PNG,g,614ca7f8fc7cba1b74101bfe,2021-10-20_10h50.20.371,forced_choiceRT,2021.1.2,Win32,59.95203837,,,,,,,,4,Ontime,g,1,2.021,0,3,3,1,1,,,,,
,1.18,,,,,,,,,f.PNG,f,614ca7f8fc7cba1b74101bfe,2021-10-20_10h50.20.371,forced_choiceRT,2021.1.2,Win32,59.95203837,,,,,,,,4,Ontime,f,1,2.019,1,0,4,0,1,,,,,
,0.16,,,,,,,,,g.PNG,g,614ca7f8fc7cba1b74101bfe,2021-10-20_10h50.20.371,forced_choiceRT,2021.1.2,Win32,59.95203837,,,,,,,,4,Ontime,g,1,2.038,1,1,5,1,1,,,,,
,1.67,,,,,,,,,g.PNG,g,614ca7f8fc7cba1b74101bfe,2021-10-20_10h50.20.371,forced_choiceRT,2021.1.2,Win32,59.95203837,,,,,,,,4,Slow,g,1,2.134,1,2,6,1,1,,,,,
,0.71,,,,,,,,,h.PNG,h,614ca7f8fc7cba1b74101bfe,2021-10-20_10h50.20.371,forced_choiceRT,2021.1.2,Win32,59.95203837,,,,,,,,4,Fast,h,1,1.87,1,3,7,2,1,,,,,
,1.42,,,,,,,,,h.PNG,h,614ca7f8fc7cba1b74101bfe,2021-10-20_10h50.20.371,forced_choiceRT,2021.1.2,Win32,59.95203837,,,,,,,,4,Ontime,g,0,1.959,2,0,8,2,1,,,,,
,1.97,,,,,,,,,j.PNG,j,614ca7f8fc7cba1b74101bfe,2021-10-20_10h50.20.371,forced_choiceRT,2021.1.2,Win32,59.95203837,,,,,,,,4,Slow,j,1,2.751,2,1,9,3,1,,,,,
,1.1,,,,,,,,,h.PNG,h,614ca7f8fc7cba1b74101bfe,2021-10-20_10h50.20.371,forced_choiceRT,2021.1.2,Win32,59.95203837,,,,,,,,4,Ontime,h,1,2.025,2,2,10,2,1,,,,,
,0.1,,,,,,,,,f.PNG,f,614ca7f8fc7cba1b74101bfe,2021-10-20_10h50.20.371,forced_choiceRT,2021.1.2,Win32,59.95203837,,,,,,,,4,Ontime,f,1,1.967,2,3,11,0,1,,,,,
,1.1,,,,,,,,,f.PNG,f,614ca7f8fc7cba1b74101bfe,2021-10-20_10h50.20.371,forced_choiceRT,2021.1.2,Win32,59.95203837,,,,,,,,4,Ontime,f,1,2.051,3,0,12,0,1,,,,,
,0.52,,,,,,,,,g.PNG,g,614ca7f8fc7cba1b74101bfe,2021-10-20_10h50.20.371,forced_choiceRT,2021.1.2,Win32,59.95203837,,,,,,,,4,Ontime,g,1,1.97,3,1,13,1,1,,,,,
,0.34,,,,,,,,,h.PNG,h,614ca7f8fc7cba1b74101bfe,2021-10-20_10h50.20.371,forced_choiceRT,2021.1.2,Win32,59.95203837,,,,,,,,4,Ontime,h,1,1.988,3,2,14,2,1,,,,,
,0.89,,,,,,,,,h.PNG,h,614ca7f8fc7cba1b74101bfe,2021-10-20_10h50.20.371,forced_choiceRT,2021.1.2,Win32,59.95203837,,,,,,,,4,Ontime,h,1,1.969,3,3,15,2,1,,,,,
,1.32,,,,,,,,,j.PNG,j,614ca7f8fc7cba1b74101bfe,2021-10-20_10h50.20.371,forced_choiceRT,2021.1.2,Win32,59.95203837,,,,,,,,4,Ontime,j,1,2.003,4,0,16,3,1,,,,,
,0.75,,,,,,,,,h.PNG,h,614ca7f8fc7cba1b74101bfe,2021-10-20_10h50.20.371,forced_choiceRT,2021.1.2,Win32,59.95203837,,,,,,,,4,Ontime,h,1,1.919,4,1,17,2,1,,,,,
,1.89,,,,,,,,,f.PNG,f,614ca7f8fc7cba1b74101bfe,2021-10-20_10h50.20.371,forced_choiceRT,2021.1.2,Win32,59.95203837,,,,,,,,4,Slow,h,0,2.16,4,2,18,0,1,,,,,
,0.33,,,,,,,,,g.PNG,g,614ca7f8fc7cba1b74101bfe,2021-10-20_10h50.20.371,forced_choiceRT,2021.1.2,Win32,59.95203837,,,,,,,,4,Ontime,g,1,2.002,4,3,19,1,1,,,,,
,1.68,,,,,,,,,f.PNG,f,614ca7f8fc7cba1b74101bfe,2021-10-20_10h50.20.371,forced_choiceRT,2021.1.2,Win32,59.95203837,,,,,,,,4,Slow,h,0,2.157,5,0,20,0,1,,,,,
,1.12,,,,,,,,,j.PNG,j,614ca7f8fc7cba1b74101bfe,2021-10-20_10h50.20.371,forced_choiceRT,2021.1.2,Win32,59.95203837,,,,,,,,4,Slow,j,1,2.133,5,1,21,3,1,,,,,
,1.78,,,,,,,,,j.PNG,j,614ca7f8fc7cba1b74101bfe,2021-10-20_10h50.20.371,forced_choiceRT,2021.1.2,Win32,59.95203837,,,,,,,,4,Ontime,f,0,2.002,5,2,22,3,1,,,,,
,1.2,,,,,,,,,g.PNG,g,614ca7f8fc7cba1b74101bfe,2021-10-20_10h50.20.371,forced_choiceRT,2021.1.2,Win32,59.95203837,,,,,,,,4,Ontime,g,1,2.077,5,3,23,1,1,,,,,
,0.93,,,,,,,,,f.PNG,f,614ca7f8fc7cba1b74101bfe,2021-10-20_10h50.20.371,forced_choiceRT,2021.1.2,Win32,59.95203837,,,,,,,,4,Ontime,f,1,1.944,6,0,24,0,1,,,,,
,0.16,,,,,,,,,g.PNG,g,614ca7f8fc7cba1b74101bfe,2021-10-20_10h50.20.371,forced_choiceRT,2021.1.2,Win32,59.95203837,,,,,,,,4,Ontime,g,1,1.95,6,1,25,1,1,,,,,
,1.5,,,,,,,,,g.PNG,g,614ca7f8fc7cba1b74101bfe,2021-10-20_10h50.20.371,forced_choiceRT,2021.1.2,Win32,59.95203837,,,,,,,,4,Ontime,f,0,2.038,6,2,26,1,1,,,,,
,1.41,,,,,,,,,f.PNG,f,614ca7f8fc7cba1b74101bfe,2021-10-20_10h50.20.371,forced_choiceRT,2021.1.2,Win32,59.95203837,,,,,,,,4,Ontime,f,1,1.996,6,3,27,0,1,,,,,
,0,,,,,,,,,h.PNG,h,614ca7f8fc7cba1b74101bfe,2021-10-20_10h50.20.371,forced_choiceRT,2021.1.2,Win32,59.95203837,,,,,,,,4,Ontime,h,1,1.971,7,0,28,2,1,,,,,
,0.8,,,,,,,,,g.PNG,g,614ca7f8fc7cba1b74101bfe,2021-10-20_10h50.20.371,forced_choiceRT,2021.1.2,Win32,59.95203837,,,,,,,,4,Ontime,g,1,1.953,7,1,29,1,1,,,,,
,1.02,,,,,,,,,j.PNG,j,614ca7f8fc7cba1b74101bfe,2021-10-20_10h50.20.371,forced_choiceRT,2021.1.2,Win32,59.95203837,,,,,,,,4,Ontime,j,1,2.02,7,2,30,3,1,,,,,
,1.11,,,,,,,,,h.PNG,h,614ca7f8fc7cba1b74101bfe,2021-10-20_10h50.20.371,forced_choiceRT,2021.1.2,Win32,59.95203837,,,,,,,,4,Ontime,h,1,2.002,7,3,31,2,1,,,,,
,0.89,,,,,,,,,h.PNG,h,614ca7f8fc7cba1b74101bfe,2021-10-20_10h50.20.371,forced_choiceRT,2021.1.2,Win32,59.95203837,,,,,,,,4,Ontime,h,1,1.941,8,0,32,2,1,,,,,
,1.37,,,,,,,,,f.PNG,f,614ca7f8fc7cba1b74101bfe,2021-10-20_10h50.20.371,forced_choiceRT,2021.1.2,Win32,59.95203837,,,,,,,,4,Ontime,f,1,1.969,8,1,33,0,1,,,,,
,1.64,,,,,,,,,j.PNG,j,614ca7f8fc7cba1b74101bfe,2021-10-20_10h50.20.371,forced_choiceRT,2021.1.2,Win32,59.95203837,,,,,,,,4,Ontime,f,0,2.003,8,2,34,3,1,,,,,
,0.37,,,,,,,,,j.PNG,j,614ca7f8fc7cba1b74101bfe,2021-10-20_10h50.20.371,forced_choiceRT,2021.1.2,Win32,59.95203837,,,,,,,,4,Ontime,j,1,1.939,8,3,35,3,1,,,,,
,0.13,,,,,,,,,g.PNG,g,614ca7f8fc7cba1b74101bfe,2021-10-20_10h50.20.371,forced_choiceRT,2021.1.2,Win32,59.95203837,,,,,,,,4,Fast,g,1,1.886,9,0,36,1,1,,,,,
,0.8,,,,,,,,,j.PNG,j,614ca7f8fc7cba1b74101bfe,2021-10-20_10h50.20.371,forced_choiceRT,2021.1.2,Win32,59.95203837,,,,,,,,4,Ontime,j,1,1.984,9,1,37,3,1,,,,,
,1.73,,,,,,,,,h.PNG,h,614ca7f8fc7cba1b74101bfe,2021-10-20_10h50.20.371,forced_choiceRT,2021.1.2,Win32,59.95203837,,,,,,,,4,Ontime,j,0,2.071,9,2,38,2,1,,,,,
,1.69,,,,,,,,,f.PNG,f,614ca7f8fc7cba1b74101bfe,2021-10-20_10h50.20.371,forced_choiceRT,2021.1.2,Win32,59.95203837,,,,,,,,4,Ontime,j,0,2.061,9,3,39,0,1,,,,,
,,,,,,,,,,,,614ca7f8fc7cba1b74101bfe,2021-10-20_10h50.20.371,forced_choiceRT,2021.1.2,Win32,59.95203837,,,,,,,,,,,,,,,,,,3,0,3,0,1
,1.17,,,,,,,,,j.PNG,j,614ca7f8fc7cba1b74101bfe,2021-10-20_10h50.20.371,forced_choiceRT,2021.1.2,Win32,59.95203837,,,,,,,,5,Ontime,j,1,1.996,0,0,0,3,1,,,,,
,1.97,,,,,,,,,j.PNG,j,614ca7f8fc7cba1b74101bfe,2021-10-20_10h50.20.371,forced_choiceRT,2021.1.2,Win32,59.95203837,,,,,,,,5,Ontime,j,1,2.017,0,1,1,3,1,,,,,
,0,,,,,,,,,f.PNG,f,614ca7f8fc7cba1b74101bfe,2021-10-20_10h50.20.371,forced_choiceRT,2021.1.2,Win32,59.95203837,,,,,,,,5,Ontime,f,1,1.964,0,2,2,0,1,,,,,
,0.93,,,,,,,,,f.PNG,f,614ca7f8fc7cba1b74101bfe,2021-10-20_10h50.20.371,forced_choiceRT,2021.1.2,Win32,59.95203837,,,,,,,,5,Ontime,f,1,1.941,0,3,3,0,1,,,,,
,1.5,,,,,,,,,g.PNG,g,614ca7f8fc7cba1b74101bfe,2021-10-20_10h50.20.371,forced_choiceRT,2021.1.2,Win32,59.95203837,,,,,,,,5,Ontime,f,0,1.993,1,0,4,1,1,,,,,
,0.77,,,,,,,,,g.PNG,g,614ca7f8fc7cba1b74101bfe,2021-10-20_10h50.20.371,forced_choiceRT,2021.1.2,Win32,59.95203837,,,,,,,,5,Ontime,g,1,2.024,1,1,5,1,1,,,,,
,0.84,,,,,,,,,g.PNG,g,614ca7f8fc7cba1b74101bfe,2021-10-20_10h50.20.371,forced_choiceRT,2021.1.2,Win32,59.95203837,,,,,,,,5,Ontime,g,1,1.97,1,2,6,1,1,,,,,
,1.11,,,,,,,,,j.PNG,j,614ca7f8fc7cba1b74101bfe,2021-10-20_10h50.20.371,forced_choiceRT,2021.1.2,Win32,59.95203837,,,,,,,,5,Ontime,j,1,2,1,3,7,3,1,,,,,
,1.41,,,,,,,,,g.PNG,g,614ca7f8fc7cba1b74101bfe,2021-10-20_10h50.20.371,forced_choiceRT,2021.1.2,Win32,59.95203837,,,,,,,,5,Ontime,g,1,2.052,2,0,8,1,1,,,,,
,1.56,,,,,,,,,j.PNG,j,614ca7f8fc7cba1b74101bfe,2021-10-20_10h50.20.371,forced_choiceRT,2021.1.2,Win32,59.95203837,,,,,,,,5,Ontime,g,0,1.951,2,1,9,3,1,,,,,
,1.3,,,,,,,,,h.PNG,h,614ca7f8fc7cba1b74101bfe,2021-10-20_10h50.20.371,forced_choiceRT,2021.1.2,Win32,59.95203837,,,,,,,,5,Ontime,h,1,1.975,2,2,10,2,1,,,,,
,0.2,,,,,,,,,g.PNG,g,614ca7f8fc7cba1b74101bfe,2021-10-20_10h50.20.371,forced_choiceRT,2021.1.2,Win32,59.95203837,,,,,,,,5,Ontime,g,1,1.968,2,3,11,1,1,,,,,
,0.73,,,,,,,,,h.PNG,h,614ca7f8fc7cba1b74101bfe,2021-10-20_10h50.20.371,forced_choiceRT,2021.1.2,Win32,59.95203837,,,,,,,,5,Fast,h,1,1.884,3,0,12,2,1,,,,,
,1.19,,,,,,,,,j.PNG,j,614ca7f8fc7cba1b74101bfe,2021-10-20_10h50.20.371,forced_choiceRT,2021.1.2,Win32,59.95203837,,,,,,,,5,Ontime,j,1,2.053,3,1,13,3,1,,,,,
,0.21,,,,,,,,,h.PNG,h,614ca7f8fc7cba1b74101bfe,2021-10-20_10h50.20.371,forced_choiceRT,2021.1.2,Win32,59.95203837,,,,,,,,5,Ontime,h,1,2.018,3,2,14,2,1,,,,,
,0.44,,,,,,,,,g.PNG,g,614ca7f8fc7cba1b74101bfe,2021-10-20_10h50.20.371,forced_choiceRT,2021.1.2,Win32,59.95203837,,,,,,,,5,Ontime,g,1,1.983,3,3,15,1,1,,,,,
,1.2,,,,,,,,,j.PNG,j,614ca7f8fc7cba1b74101bfe,2021-10-20_10h50.20.371,forced_choiceRT,2021.1.2,Win32,59.95203837,,,,,,,,5,Ontime,j,1,2.002,4,0,16,3,1,,,,,
,0.32,,,,,,,,,f.PNG,f,614ca7f8fc7cba1b74101bfe,2021-10-20_10h50.20.371,forced_choiceRT,2021.1.2,Win32,59.95203837,,,,,,,,5,Ontime,f,1,2.038,4,1,17,0,1,,,,,
,1.69,,,,,,,,,j.PNG,j,614ca7f8fc7cba1b74101bfe,2021-10-20_10h50.20.371,forced_choiceRT,2021.1.2,Win32,59.95203837,,,,,,,,5,Ontime,j,1,2.092,4,2,18,3,1,,,,,
,1.76,,,,,,,,,f.PNG,f,614ca7f8fc7cba1b74101bfe,2021-10-20_10h50.20.371,forced_choiceRT,2021.1.2,Win32,59.95203837,,,,,,,,5,Ontime,h,0,2.041,4,3,19,0,1,,,,,
,0.4,,,,,,,,,g.PNG,g,614ca7f8fc7cba1b74101bfe,2021-10-20_10h50.20.371,forced_choiceRT,2021.1.2,Win32,59.95203837,,,,,,,,5,Ontime,g,1,2.024,5,0,20,1,1,,,,,
,1.17,,,,,,,,,f.PNG,f,614ca7f8fc7cba1b74101bfe,2021-10-20_10h50.20.371,forced_choiceRT,2021.1.2,Win32,59.95203837,,,,,,,,5,Ontime,f,1,2.053,5,1,21,0,1,,,,,
,0.82,,,,,,,,,f.PNG,f,614ca7f8fc7cba1b74101bfe,2021-10-20_10h50.20.371,forced_choiceRT,2021.1.2,Win32,59.95203837,,,,,,,,5,Ontime,f,1,1.968,5,2,22,0,1,,,,,
,1.62,,,,,,,,,g.PNG,g,614ca7f8fc7cba1b74101bfe,2021-10-20_10h50.20.371,forced_choiceRT,2021.1.2,Win32,59.95203837,,,,,,,,5,Slow,f,0,2.108,5,3,23,1,1,,,,,
,0.38,,,,,,,,,f.PNG,f,614ca7f8fc7cba1b74101bfe,2021-10-20_10h50.20.371,forced_choiceRT,2021.1.2,Win32,59.95203837,,,,,,,,5,Ontime,f,1,2.03,6,0,24,0,1,,,,,
,1.46,,,,,,,,,f.PNG,f,614ca7f8fc7cba1b74101bfe,2021-10-20_10h50.20.371,forced_choiceRT,2021.1.2,Win32,59.95203837,,,,,,,,5,Ontime,f,1,2.049,6,1,25,0,1,,,,,
,1.16,,,,,,,,,h.PNG,h,614ca7f8fc7cba1b74101bfe,2021-10-20_10h50.20.371,forced_choiceRT,2021.1.2,Win32,59.95203837,,,,,,,,5,Ontime,h,1,1.98,6,2,26,2,1,,,,,
,1.34,,,,,,,,,g.PNG,g,614ca7f8fc7cba1b74101bfe,2021-10-20_10h50.20.371,forced_choiceRT,2021.1.2,Win32,59.95203837,,,,,,,,5,Ontime,g,1,1.983,6,3,27,1,1,,,,,
,1.98,,,,,,,,,h.PNG,h,614ca7f8fc7cba1b74101bfe,2021-10-20_10h50.20.371,forced_choiceRT,2021.1.2,Win32,59.95203837,,,,,,,,5,Ontime,g,0,1.941,7,0,28,2,1,,,,,
,1.81,,,,,,,,,j.PNG,j,614ca7f8fc7cba1b74101bfe,2021-10-20_10h50.20.371,forced_choiceRT,2021.1.2,Win32,59.95203837,,,,,,,,5,Ontime,g,0,2.003,7,1,29,3,1,,,,,
,0.66,,,,,,,,,h.PNG,h,614ca7f8fc7cba1b74101bfe,2021-10-20_10h50.20.371,forced_choiceRT,2021.1.2,Win32,59.95203837,,,,,,,,5,Ontime,h,1,2.08,7,2,30,2,1,,,,,
,1.96,,,,,,,,,h.PNG,h,614ca7f8fc7cba1b74101bfe,2021-10-20_10h50.20.371,forced_choiceRT,2021.1.2,Win32,59.95203837,,,,,,,,5,Slow,h,1,2.152,7,3,31,2,1,,,,,
,1.62,,,,,,,,,j.PNG,j,614ca7f8fc7cba1b74101bfe,2021-10-20_10h50.20.371,forced_choiceRT,2021.1.2,Win32,59.95203837,,,,,,,,5,Fast,h,0,1.626,8,0,32,3,1,,,,,
,1.02,,,,,,,,,h.PNG,h,614ca7f8fc7cba1b74101bfe,2021-10-20_10h50.20.371,forced_choiceRT,2021.1.2,Win32,59.95203837,,,,,,,,5,Ontime,h,1,2.019,8,1,33,2,1,,,,,
,0.39,,,,,,,,,f.PNG,f,614ca7f8fc7cba1b74101bfe,2021-10-20_10h50.20.371,forced_choiceRT,2021.1.2,Win32,59.95203837,,,,,,,,5,Ontime,f,1,1.993,8,2,34,0,1,,,,,
,1.6,,,,,,,,,j.PNG,j,614ca7f8fc7cba1b74101bfe,2021-10-20_10h50.20.371,forced_choiceRT,2021.1.2,Win32,59.95203837,,,,,,,,5,Slow,f,0,2.124,8,3,35,3,1,,,,,
,1.48,,,,,,,,,h.PNG,h,614ca7f8fc7cba1b74101bfe,2021-10-20_10h50.20.371,forced_choiceRT,2021.1.2,Win32,59.95203837,,,,,,,,5,Slow,h,1,2.1,9,0,36,2,1,,,,,
,1.09,,,,,,,,,g.PNG,g,614ca7f8fc7cba1b74101bfe,2021-10-20_10h50.20.371,forced_choiceRT,2021.1.2,Win32,59.95203837,,,,,,,,5,Ontime,g,1,1.985,9,1,37,1,1,,,,,
,0.06,,,,,,,,,f.PNG,f,614ca7f8fc7cba1b74101bfe,2021-10-20_10h50.20.371,forced_choiceRT,2021.1.2,Win32,59.95203837,,,,,,,,5,Ontime,f,1,1.966,9,2,38,0,1,,,,,
,0.07,,,,,,,,,h.PNG,h,614ca7f8fc7cba1b74101bfe,2021-10-20_10h50.20.371,forced_choiceRT,2021.1.2,Win32,59.95203837,,,,,,,,5,Ontime,h,1,2.006,9,3,39,2,1,,,,,
,,,,,,,,,,,,614ca7f8fc7cba1b74101bfe,2021-10-20_10h50.20.371,forced_choiceRT,2021.1.2,Win32,59.95203837,,,,,,,,,,,,,,,,,,4,0,4,0,1
,0.49,,,,,,,,,g.PNG,g,614ca7f8fc7cba1b74101bfe,2021-10-20_10h50.20.371,forced_choiceRT,2021.1.2,Win32,59.95203837,,,,,,,,6,Ontime,g,1,1.963,0,0,0,1,1,,,,,
,0.54,,,,,,,,,f.PNG,f,614ca7f8fc7cba1b74101bfe,2021-10-20_10h50.20.371,forced_choiceRT,2021.1.2,Win32,59.95203837,,,,,,,,6,Ontime,f,1,1.902,0,1,1,0,1,,,,,
,0.55,,,,,,,,,f.PNG,f,614ca7f8fc7cba1b74101bfe,2021-10-20_10h50.20.371,forced_choiceRT,2021.1.2,Win32,59.95203837,,,,,,,,6,Ontime,f,1,1.955,0,2,2,0,1,,,,,
,0.33,,,,,,,,,h.PNG,h,614ca7f8fc7cba1b74101bfe,2021-10-20_10h50.20.371,forced_choiceRT,2021.1.2,Win32,59.95203837,,,,,,,,6,Ontime,h,1,2.043,0,3,3,2,1,,,,,
,1.84,,,,,,,,,h.PNG,h,614ca7f8fc7cba1b74101bfe,2021-10-20_10h50.20.371,forced_choiceRT,2021.1.2,Win32,59.95203837,,,,,,,,6,Ontime,h,1,1.975,1,0,4,2,1,,,,,
,1.45,,,,,,,,,g.PNG,g,614ca7f8fc7cba1b74101bfe,2021-10-20_10h50.20.371,forced_choiceRT,2021.1.2,Win32,59.95203837,,,,,,,,6,Ontime,h,0,1.986,1,1,5,1,1,,,,,
,1.27,,,,,,,,,f.PNG,f,614ca7f8fc7cba1b74101bfe,2021-10-20_10h50.20.371,forced_choiceRT,2021.1.2,Win32,59.95203837,,,,,,,,6,Ontime,f,1,1.974,1,2,6,0,1,,,,,
,0.53,,,,,,,,,j.PNG,j,614ca7f8fc7cba1b74101bfe,2021-10-20_10h50.20.371,forced_choiceRT,2021.1.2,Win32,59.95203837,,,,,,,,6,Ontime,j,1,2.003,1,3,7,3,1,,,,,
,1.69,,,,,,,,,h.PNG,h,614ca7f8fc7cba1b74101bfe,2021-10-20_10h50.20.371,forced_choiceRT,2021.1.2,Win32,59.95203837,,,,,,,,6,Ontime,j,0,2.026,2,0,8,2,1,,,,,
,0.74,,,,,,,,,g.PNG,g,614ca7f8fc7cba1b74101bfe,2021-10-20_10h50.20.371,forced_choiceRT,2021.1.2,Win32,59.95203837,,,,,,,,6,Ontime,g,1,1.992,2,1,9,1,1,,,,,
,0.99,,,,,,,,,h.PNG,h,614ca7f8fc7cba1b74101bfe,2021-10-20_10h50.20.371,forced_choiceRT,2021.1.2,Win32,59.95203837,,,,,,,,6,Ontime,h,1,2.008,2,2,10,2,1,,,,,
,0.14,,,,,,,,,j.PNG,j,614ca7f8fc7cba1b74101bfe,2021-10-20_10h50.20.371,forced_choiceRT,2021.1.2,Win32,59.95203837,,,,,,,,6,Ontime,j,1,1.973,2,3,11,3,1,,,,,
,0.27,,,,,,,,,g.PNG,g,614ca7f8fc7cba1b74101bfe,2021-10-20_10h50.20.371,forced_choiceRT,2021.1.2,Win32,59.95203837,,,,,,,,6,Ontime,g,1,1.959,3,0,12,1,1,,,,,
,1.39,,,,,,,,,h.PNG,h,614ca7f8fc7cba1b74101bfe,2021-10-20_10h50.20.371,forced_choiceRT,2021.1.2,Win32,59.95203837,,,,,,,,6,Ontime,h,1,2.007,3,1,13,2,1,,,,,
,0.83,,,,,,,,,g.PNG,g,614ca7f8fc7cba1b74101bfe,2021-10-20_10h50.20.371,forced_choiceRT,2021.1.2,Win32,59.95203837,,,,,,,,6,Ontime,g,1,1.951,3,2,14,1,1,,,,,
,0.37,,,,,,,,,j.PNG,j,614ca7f8fc7cba1b74101bfe,2021-10-20_10h50.20.371,forced_choiceRT,2021.1.2,Win32,59.95203837,,,,,,,,6,Ontime,j,1,2.004,3,3,15,3,1,,,,,
,0.62,,,,,,,,,g.PNG,g,614ca7f8fc7cba1b74101bfe,2021-10-20_10h50.20.371,forced_choiceRT,2021.1.2,Win32,59.95203837,,,,,,,,6,Ontime,g,1,1.934,4,0,16,1,1,,,,,
,0.69,,,,,,,,,h.PNG,h,614ca7f8fc7cba1b74101bfe,2021-10-20_10h50.20.371,forced_choiceRT,2021.1.2,Win32,59.95203837,,,,,,,,6,Ontime,h,1,2.002,4,1,17,2,1,,,,,
,0.88,,,,,,,,,g.PNG,g,614ca7f8fc7cba1b74101bfe,2021-10-20_10h50.20.371,forced_choiceRT,2021.1.2,Win32,59.95203837,,,,,,,,6,Ontime,g,1,2.02,4,2,18,1,1,,,,,
,0.57,,,,,,,,,f.PNG,f,614ca7f8fc7cba1b74101bfe,2021-10-20_10h50.20.371,forced_choiceRT,2021.1.2,Win32,59.95203837,,,,,,,,6,Ontime,f,1,2,4,3,19,0,1,,,,,
,0.78,,,,,,,,,h.PNG,h,614ca7f8fc7cba1b74101bfe,2021-10-20_10h50.20.371,forced_choiceRT,2021.1.2,Win32,59.95203837,,,,,,,,6,Ontime,h,1,1.973,5,0,20,2,1,,,,,
,1.39,,,,,,,,,f.PNG,f,614ca7f8fc7cba1b74101bfe,2021-10-20_10h50.20.371,forced_choiceRT,2021.1.2,Win32,59.95203837,,,,,,,,6,Ontime,f,1,2.052,5,1,21,0,1,,,,,
,1.78,,,,,,,,,g.PNG,g,614ca7f8fc7cba1b74101bfe,2021-10-20_10h50.20.371,forced_choiceRT,2021.1.2,Win32,59.95203837,,,,,,,,6,Slow,h,0,2.104,5,2,22,1,1,,,,,
,1.95,,,,,,,,,f.PNG,f,614ca7f8fc7cba1b74101bfe,2021-10-20_10h50.20.371,forced_choiceRT,2021.1.2,Win32,59.95203837,,,,,,,,6,Ontime,f,1,2.033,5,3,23,0,1,,,,,
,1.87,,,,,,,,,h.PNG,h,614ca7f8fc7cba1b74101bfe,2021-10-20_10h50.20.371,forced_choiceRT,2021.1.2,Win32,59.95203837,,,,,,,,6,Ontime,f,0,2.05,6,0,24,2,1,,,,,
,1.18,,,,,,,,,g.PNG,g,614ca7f8fc7cba1b74101bfe,2021-10-20_10h50.20.371,forced_choiceRT,2021.1.2,Win32,59.95203837,,,,,,,,6,Ontime,g,1,2.007,6,1,25,1,1,,,,,
,0.03,,,,,,,,,f.PNG,f,614ca7f8fc7cba1b74101bfe,2021-10-20_10h50.20.371,forced_choiceRT,2021.1.2,Win32,59.95203837,,,,,,,,6,Ontime,f,1,1.968,6,2,26,0,1,,,,,
,1.77,,,,,,,,,h.PNG,h,614ca7f8fc7cba1b74101bfe,2021-10-20_10h50.20.371,forced_choiceRT,2021.1.2,Win32,59.95203837,,,,,,,,6,Ontime,f,0,2.04,6,3,27,2,1,,,,,
,1.6,,,,,,,,,f.PNG,f,614ca7f8fc7cba1b74101bfe,2021-10-20_10h50.20.371,forced_choiceRT,2021.1.2,Win32,59.95203837,,,,,,,,6,Ontime,g,0,2.036,7,0,28,0,1,,,,,
,1.36,,,,,,,,,h.PNG,h,614ca7f8fc7cba1b74101bfe,2021-10-20_10h50.20.371,forced_choiceRT,2021.1.2,Win32,59.95203837,,,,,,,,6,Ontime,h,1,2.02,7,1,29,2,1,,,,,
,1.34,,,,,,,,,j.PNG,j,614ca7f8fc7cba1b74101bfe,2021-10-20_10h50.20.371,forced_choiceRT,2021.1.2,Win32,59.95203837,,,,,,,,6,Ontime,j,1,2.026,7,2,30,3,1,,,,,
,0.91,,,,,,,,,j.PNG,j,614ca7f8fc7cba1b74101bfe,2021-10-20_10h50.20.371,forced_choiceRT,2021.1.2,Win32,59.95203837,,,,,,,,6,Ontime,j,1,2.038,7,3,31,3,1,,,,,
,1.83,,,,,,,,,j.PNG,j,614ca7f8fc7cba1b74101bfe,2021-10-20_10h50.20.371,forced_choiceRT,2021.1.2,Win32,59.95203837,,,,,,,,6,Ontime,g,0,2.035,8,0,32,3,1,,,,,
,1.75,,,,,,,,,g.PNG,g,614ca7f8fc7cba1b74101bfe,2021-10-20_10h50.20.371,forced_choiceRT,2021.1.2,Win32,59.95203837,,,,,,,,6,Ontime,g,1,2.027,8,1,33,1,1,,,,,
,0.66,,,,,,,,,j.PNG,j,614ca7f8fc7cba1b74101bfe,2021-10-20_10h50.20.371,forced_choiceRT,2021.1.2,Win32,59.95203837,,,,,,,,6,Ontime,j,1,1.952,8,2,34,3,1,,,,,
,0.55,,,,,,,,,j.PNG,j,614ca7f8fc7cba1b74101bfe,2021-10-20_10h50.20.371,forced_choiceRT,2021.1.2,Win32,59.95203837,,,,,,,,6,Ontime,j,1,1.959,8,3,35,3,1,,,,,
,1.23,,,,,,,,,f.PNG,f,614ca7f8fc7cba1b74101bfe,2021-10-20_10h50.20.371,forced_choiceRT,2021.1.2,Win32,59.95203837,,,,,,,,6,Ontime,f,1,1.99,9,0,36,0,1,,,,,
,0.37,,,,,,,,,f.PNG,f,614ca7f8fc7cba1b74101bfe,2021-10-20_10h50.20.371,forced_choiceRT,2021.1.2,Win32,59.95203837,,,,,,,,6,Ontime,f,1,1.921,9,1,37,0,1,,,,,
,0,,,,,,,,,j.PNG,j,614ca7f8fc7cba1b74101bfe,2021-10-20_10h50.20.371,forced_choiceRT,2021.1.2,Win32,59.95203837,,,,,,,,6,Ontime,j,1,1.917,9,2,38,3,1,,,,,
,0.46,,,,,,,,,j.PNG,j,614ca7f8fc7cba1b74101bfe,2021-10-20_10h50.20.371,forced_choiceRT,2021.1.2,Win32,59.95203837,,,,,,,,6,Ontime,j,1,1.97,9,3,39,3,1,,,,,
,,,,,,,,,,,,614ca7f8fc7cba1b74101bfe,2021-10-20_10h50.20.371,forced_choiceRT,2021.1.2,Win32,59.95203837,,,,,,,,,,,,,,,,,,5,0,5,0,1
,0.79,,,,,,,,,g.PNG,g,614ca7f8fc7cba1b74101bfe,2021-10-20_10h50.20.371,forced_choiceRT,2021.1.2,Win32,59.95203837,,,,,,,,7,Ontime,g,1,1.945,0,0,0,1,1,,,,,
,1.09,,,,,,,,,f.PNG,f,614ca7f8fc7cba1b74101bfe,2021-10-20_10h50.20.371,forced_choiceRT,2021.1.2,Win32,59.95203837,,,,,,,,7,Ontime,f,1,2.016,0,1,1,0,1,,,,,
,1.76,,,,,,,,,g.PNG,g,614ca7f8fc7cba1b74101bfe,2021-10-20_10h50.20.371,forced_choiceRT,2021.1.2,Win32,59.95203837,,,,,,,,7,Ontime,f,0,2.017,0,2,2,1,1,,,,,
,1.5,,,,,,,,,j.PNG,j,614ca7f8fc7cba1b74101bfe,2021-10-20_10h50.20.371,forced_choiceRT,2021.1.2,Win32,59.95203837,,,,,,,,7,Slow,j,1,2.104,0,3,3,3,1,,,,,
,1.09,,,,,,,,,h.PNG,h,614ca7f8fc7cba1b74101bfe,2021-10-20_10h50.20.371,forced_choiceRT,2021.1.2,Win32,59.95203837,,,,,,,,7,Ontime,h,1,1.956,1,0,4,2,1,,,,,
,0.82,,,,,,,,,h.PNG,h,614ca7f8fc7cba1b74101bfe,2021-10-20_10h50.20.371,forced_choiceRT,2021.1.2,Win32,59.95203837,,,,,,,,7,Ontime,h,1,1.948,1,1,5,2,1,,,,,
,1.35,,,,,,,,,j.PNG,j,614ca7f8fc7cba1b74101bfe,2021-10-20_10h50.20.371,forced_choiceRT,2021.1.2,Win32,59.95203837,,,,,,,,7,Ontime,j,1,1.987,1,2,6,3,1,,,,,
,1.64,,,,,,,,,h.PNG,h,614ca7f8fc7cba1b74101bfe,2021-10-20_10h50.20.371,forced_choiceRT,2021.1.2,Win32,59.95203837,,,,,,,,7,Slow,h,1,2.119,1,3,7,2,1,,,,,
,1.34,,,,,,,,,h.PNG,h,614ca7f8fc7cba1b74101bfe,2021-10-20_10h50.20.371,forced_choiceRT,2021.1.2,Win32,59.95203837,,,,,,,,7,Ontime,h,1,2.006,2,0,8,2,1,,,,,
,1.62,,,,,,,,,g.PNG,g,614ca7f8fc7cba1b74101bfe,2021-10-20_10h50.20.371,forced_choiceRT,2021.1.2,Win32,59.95203837,,,,,,,,7,Slow,h,0,2.138,2,1,9,1,1,,,,,
,1.6,,,,,,,,,j.PNG,j,614ca7f8fc7cba1b74101bfe,2021-10-20_10h50.20.371,forced_choiceRT,2021.1.2,Win32,59.95203837,,,,,,,,7,Ontime,h,0,2.071,2,2,10,3,1,,,,,
,0.92,,,,,,,,,h.PNG,h,614ca7f8fc7cba1b74101bfe,2021-10-20_10h50.20.371,forced_choiceRT,2021.1.2,Win32,59.95203837,,,,,,,,7,Ontime,h,1,1.955,2,3,11,2,1,,,,,
,0.24,,,,,,,,,g.PNG,g,614ca7f8fc7cba1b74101bfe,2021-10-20_10h50.20.371,forced_choiceRT,2021.1.2,Win32,59.95203837,,,,,,,,7,Ontime,g,1,1.925,3,0,12,1,1,,,,,
,1.69,,,,,,,,,g.PNG,g,614ca7f8fc7cba1b74101bfe,2021-10-20_10h50.20.371,forced_choiceRT,2021.1.2,Win32,59.95203837,,,,,,,,7,Ontime,h,0,2.051,3,1,13,1,1,,,,,
,0.49,,,,,,,,,j.PNG,j,614ca7f8fc7cba1b74101bfe,2021-10-20_10h50.20.371,forced_choiceRT,2021.1.2,Win32,59.95203837,,,,,,,,7,Ontime,j,1,1.985,3,2,14,3,1,,,,,
,0.27,,,,,,,,,f.PNG,f,614ca7f8fc7cba1b74101bfe,2021-10-20_10h50.20.371,forced_choiceRT,2021.1.2,Win32,59.95203837,,,,,,,,7,Ontime,f,1,1.936,3,3,15,0,1,,,,,
,1.72,,,,,,,,,f.PNG,f,614ca7f8fc7cba1b74101bfe,2021-10-20_10h50.20.371,forced_choiceRT,2021.1.2,Win32,59.95203837,,,,,,,,7,Ontime,g,0,2.005,4,0,16,0,1,,,,,
,1.89,,,,,,,,,j.PNG,j,614ca7f8fc7cba1b74101bfe,2021-10-20_10h50.20.371,forced_choiceRT,2021.1.2,Win32,59.95203837,,,,,,,,7,Ontime,g,0,2.019,4,1,17,3,1,,,,,
,0.82,,,,,,,,,h.PNG,h,614ca7f8fc7cba1b74101bfe,2021-10-20_10h50.20.371,forced_choiceRT,2021.1.2,Win32,59.95203837,,,,,,,,7,Ontime,h,1,1.935,4,2,18,2,1,,,,,
,0.16,,,,,,,,,f.PNG,f,614ca7f8fc7cba1b74101bfe,2021-10-20_10h50.20.371,forced_choiceRT,2021.1.2,Win32,59.95203837,,,,,,,,7,Ontime,f,1,1.938,4,3,19,0,1,,,,,
,1.61,,,,,,,,,g.PNG,g,614ca7f8fc7cba1b74101bfe,2021-10-20_10h50.20.371,forced_choiceRT,2021.1.2,Win32,59.95203837,,,,,,,,7,Ontime,f,0,2.004,5,0,20,1,1,,,,,
,0.64,,,,,,,,,f.PNG,f,614ca7f8fc7cba1b74101bfe,2021-10-20_10h50.20.371,forced_choiceRT,2021.1.2,Win32,59.95203837,,,,,,,,7,Ontime,f,1,1.99,5,1,21,0,1,,,,,
,1.42,,,,,,,,,h.PNG,h,614ca7f8fc7cba1b74101bfe,2021-10-20_10h50.20.371,forced_choiceRT,2021.1.2,Win32,59.95203837,,,,,,,,7,Ontime,h,1,2.018,5,2,22,2,1,,,,,
,1.17,,,,,,,,,j.PNG,j,614ca7f8fc7cba1b74101bfe,2021-10-20_10h50.20.371,forced_choiceRT,2021.1.2,Win32,59.95203837,,,,,,,,7,Ontime,j,1,1.917,5,3,23,3,1,,,,,
,1.01,,,,,,,,,j.PNG,j,614ca7f8fc7cba1b74101bfe,2021-10-20_10h50.20.371,forced_choiceRT,2021.1.2,Win32,59.95203837,,,,,,,,7,Ontime,j,1,2.002,6,0,24,3,1,,,,,
,1.3,,,,,,,,,g.PNG,g,614ca7f8fc7cba1b74101bfe,2021-10-20_10h50.20.371,forced_choiceRT,2021.1.2,Win32,59.95203837,,,,,,,,7,Ontime,g,1,2.005,6,1,25,1,1,,,,,
,0.08,,,,,,,,,g.PNG,g,614ca7f8fc7cba1b74101bfe,2021-10-20_10h50.20.371,forced_choiceRT,2021.1.2,Win32,59.95203837,,,,,,,,7,Ontime,g,1,1.955,6,2,26,1,1,,,,,
,0.07,,,,,,,,,f.PNG,f,614ca7f8fc7cba1b74101bfe,2021-10-20_10h50.20.371,forced_choiceRT,2021.1.2,Win32,59.95203837,,,,,,,,7,Ontime,f,1,2.019,6,3,27,0,1,,,,,
,0.37,,,,,,,,,h.PNG,h,614ca7f8fc7cba1b74101bfe,2021-10-20_10h50.20.371,forced_choiceRT,2021.1.2,Win32,59.95203837,,,,,,,,7,Ontime,h,1,1.968,7,0,28,2,1,,,,,
,1.45,,,,,,,,,f.PNG,f,614ca7f8fc7cba1b74101bfe,2021-10-20_10h50.20.371,forced_choiceRT,2021.1.2,Win32,59.95203837,,,,,,,,7,Ontime,f,1,2.033,7,1,29,0,1,,,,,
,0.91,,,,,,,,,g.PNG,g,614ca7f8fc7cba1b74101bfe,2021-10-20_10h50.20.371,forced_choiceRT,2021.1.2,Win32,59.95203837,,,,,,,,7,Ontime,g,1,1.993,7,2,30,1,1,,,,,
,1.74,,,,,,,,,j.PNG,j,614ca7f8fc7cba1b74101bfe,2021-10-20_10h50.20.371,forced_choiceRT,2021.1.2,Win32,59.95203837,,,,,,,,7,Ontime,g,0,2.002,7,3,31,3,1,,,,,
,1.23,,,,,,,,,g.PNG,g,614ca7f8fc7cba1b74101bfe,2021-10-20_10h50.20.371,forced_choiceRT,2021.1.2,Win32,59.95203837,,,,,,,,7,Ontime,g,1,1.934,8,0,32,1,1,,,,,
,1.63,,,,,,,,,f.PNG,f,614ca7f8fc7cba1b74101bfe,2021-10-20_10h50.20.371,forced_choiceRT,2021.1.2,Win32,59.95203837,,,,,,,,7,Ontime,h,0,1.958,8,1,33,0,1,,,,,
,1.63,,,,,,,,,j.PNG,j,614ca7f8fc7cba1b74101bfe,2021-10-20_10h50.20.371,forced_choiceRT,2021.1.2,Win32,59.95203837,,,,,,,,7,Ontime,f,0,2.002,8,2,34,3,1,,,,,
,0.35,,,,,,,,,j.PNG,j,614ca7f8fc7cba1b74101bfe,2021-10-20_10h50.20.371,forced_choiceRT,2021.1.2,Win32,59.95203837,,,,,,,,7,Ontime,j,1,2.039,8,3,35,3,1,,,,,
,1.25,,,,,,,,,h.PNG,h,614ca7f8fc7cba1b74101bfe,2021-10-20_10h50.20.371,forced_choiceRT,2021.1.2,Win32,59.95203837,,,,,,,,7,Ontime,h,1,1.944,9,0,36,2,1,,,,,
,0.1,,,,,,,,,f.PNG,f,614ca7f8fc7cba1b74101bfe,2021-10-20_10h50.20.371,forced_choiceRT,2021.1.2,Win32,59.95203837,,,,,,,,7,Ontime,f,1,1.927,9,1,37,0,1,,,,,
,0.24,,,,,,,,,h.PNG,h,614ca7f8fc7cba1b74101bfe,2021-10-20_10h50.20.371,forced_choiceRT,2021.1.2,Win32,59.95203837,,,,,,,,7,Ontime,h,1,1.935,9,2,38,2,1,,,,,
,1.19,,,,,,,,,f.PNG,f,614ca7f8fc7cba1b74101bfe,2021-10-20_10h50.20.371,forced_choiceRT,2021.1.2,Win32,59.95203837,,,,,,,,7,Ontime,f,1,1.985,9,3,39,0,1,,,,,
,,,,,,,,,,,,614ca7f8fc7cba1b74101bfe,2021-10-20_10h50.20.371,forced_choiceRT,2021.1.2,Win32,59.95203837,,,,,,,,,,,,,,,,,,6,0,6,0,1
,1.51,,,,,,,,,j.PNG,j,614ca7f8fc7cba1b74101bfe,2021-10-20_10h50.20.371,forced_choiceRT,2021.1.2,Win32,59.95203837,,,,,,,,8,Ontime,j,1,2.097,0,0,0,3,1,,,,,
,0.39,,,,,,,,,j.PNG,j,614ca7f8fc7cba1b74101bfe,2021-10-20_10h50.20.371,forced_choiceRT,2021.1.2,Win32,59.95203837,,,,,,,,8,Ontime,j,1,1.953,0,1,1,3,1,,,,,
,1.35,,,,,,,,,j.PNG,j,614ca7f8fc7cba1b74101bfe,2021-10-20_10h50.20.371,forced_choiceRT,2021.1.2,Win32,59.95203837,,,,,,,,8,Ontime,j,1,1.97,0,2,2,3,1,,,,,
,0.67,,,,,,,,,f.PNG,f,614ca7f8fc7cba1b74101bfe,2021-10-20_10h50.20.371,forced_choiceRT,2021.1.2,Win32,59.95203837,,,,,,,,8,Ontime,f,1,1.986,0,3,3,0,1,,,,,
,1.39,,,,,,,,,g.PNG,g,614ca7f8fc7cba1b74101bfe,2021-10-20_10h50.20.371,forced_choiceRT,2021.1.2,Win32,59.95203837,,,,,,,,8,Ontime,g,1,2.052,1,0,4,1,1,,,,,
,0.89,,,,,,,,,f.PNG,f,614ca7f8fc7cba1b74101bfe,2021-10-20_10h50.20.371,forced_choiceRT,2021.1.2,Win32,59.95203837,,,,,,,,8,Ontime,f,1,2.05,1,1,5,0,1,,,,,
,1.09,,,,,,,,,f.PNG,f,614ca7f8fc7cba1b74101bfe,2021-10-20_10h50.20.371,forced_choiceRT,2021.1.2,Win32,59.95203837,,,,,,,,8,Ontime,f,1,2.034,1,2,6,0,1,,,,,
,1.99,,,,,,,,,j.PNG,j,614ca7f8fc7cba1b74101bfe,2021-10-20_10h50.20.371,forced_choiceRT,2021.1.2,Win32,59.95203837,,,,,,,,8,Ontime,f,0,2.07,1,3,7,3,1,,,,,
,1.22,,,,,,,,,h.PNG,h,614ca7f8fc7cba1b74101bfe,2021-10-20_10h50.20.371,forced_choiceRT,2021.1.2,Win32,59.95203837,,,,,,,,8,Ontime,h,1,2.059,2,0,8,2,1,,,,,
,0.37,,,,,,,,,f.PNG,f,614ca7f8fc7cba1b74101bfe,2021-10-20_10h50.20.371,forced_choiceRT,2021.1.2,Win32,59.95203837,,,,,,,,8,Ontime,f,1,2.019,2,1,9,0,1,,,,,
,0.38,,,,,,,,,g.PNG,g,614ca7f8fc7cba1b74101bfe,2021-10-20_10h50.20.371,forced_choiceRT,2021.1.2,Win32,59.95203837,,,,,,,,8,Ontime,g,1,1.973,2,2,10,1,1,,,,,
,0.62,,,,,,,,,h.PNG,h,614ca7f8fc7cba1b74101bfe,2021-10-20_10h50.20.371,forced_choiceRT,2021.1.2,Win32,59.95203837,,,,,,,,8,Ontime,h,1,2.018,2,3,11,2,1,,,,,
,0.22,,,,,,,,,f.PNG,f,614ca7f8fc7cba1b74101bfe,2021-10-20_10h50.20.371,forced_choiceRT,2021.1.2,Win32,59.95203837,,,,,,,,8,Ontime,f,1,2.025,3,0,12,0,1,,,,,
,1.78,,,,,,,,,g.PNG,g,614ca7f8fc7cba1b74101bfe,2021-10-20_10h50.20.371,forced_choiceRT,2021.1.2,Win32,59.95203837,,,,,,,,8,Ontime,h,0,2.006,3,1,13,1,1,,,,,
,0.35,,,,,,,,,g.PNG,g,614ca7f8fc7cba1b74101bfe,2021-10-20_10h50.20.371,forced_choiceRT,2021.1.2,Win32,59.95203837,,,,,,,,8,Ontime,g,1,1.917,3,2,14,1,1,,,,,
,0.54,,,,,,,,,g.PNG,g,614ca7f8fc7cba1b74101bfe,2021-10-20_10h50.20.371,forced_choiceRT,2021.1.2,Win32,59.95203837,,,,,,,,8,Ontime,g,1,1.993,3,3,15,1,1,,,,,
,1.44,,,,,,,,,j.PNG,j,614ca7f8fc7cba1b74101bfe,2021-10-20_10h50.20.371,forced_choiceRT,2021.1.2,Win32,59.95203837,,,,,,,,8,Ontime,j,1,2.049,4,0,16,3,1,,,,,
,0.71,,,,,,,,,g.PNG,g,614ca7f8fc7cba1b74101bfe,2021-10-20_10h50.20.371,forced_choiceRT,2021.1.2,Win32,59.95203837,,,,,,,,8,Ontime,g,1,1.988,4,1,17,1,1,,,,,
,0.68,,,,,,,,,j.PNG,j,614ca7f8fc7cba1b74101bfe,2021-10-20_10h50.20.371,forced_choiceRT,2021.1.2,Win32,59.95203837,,,,,,,,8,Ontime,j,1,1.939,4,2,18,3,1,,,,,
,1.6,,,,,,,,,h.PNG,h,614ca7f8fc7cba1b74101bfe,2021-10-20_10h50.20.371,forced_choiceRT,2021.1.2,Win32,59.95203837,,,,,,,,8,Slow,h,1,2.121,4,3,19,2,1,,,,,
,1.96,,,,,,,,,f.PNG,f,614ca7f8fc7cba1b74101bfe,2021-10-20_10h50.20.371,forced_choiceRT,2021.1.2,Win32,59.95203837,,,,,,,,8,Ontime,h,0,1.984,5,0,20,0,1,,,,,
,1.52,,,,,,,,,f.PNG,f,614ca7f8fc7cba1b74101bfe,2021-10-20_10h50.20.371,forced_choiceRT,2021.1.2,Win32,59.95203837,,,,,,,,8,Ontime,f,1,2.031,5,1,21,0,1,,,,,
,0.09,,,,,,,,,g.PNG,g,614ca7f8fc7cba1b74101bfe,2021-10-20_10h50.20.371,forced_choiceRT,2021.1.2,Win32,59.95203837,,,,,,,,8,Ontime,g,1,2.001,5,2,22,1,1,,,,,
,0.82,,,,,,,,,f.PNG,f,614ca7f8fc7cba1b74101bfe,2021-10-20_10h50.20.371,forced_choiceRT,2021.1.2,Win32,59.95203837,,,,,,,,8,Ontime,f,1,2.002,5,3,23,0,1,,,,,
,1.67,,,,,,,,,h.PNG,h,614ca7f8fc7cba1b74101bfe,2021-10-20_10h50.20.371,forced_choiceRT,2021.1.2,Win32,59.95203837,,,,,,,,8,Ontime,f,0,1.974,6,0,24,2,1,,,,,
,1.12,,,,,,,,,j.PNG,j,614ca7f8fc7cba1b74101bfe,2021-10-20_10h50.20.371,forced_choiceRT,2021.1.2,Win32,59.95203837,,,,,,,,8,Ontime,j,1,2.023,6,1,25,3,1,,,,,
,0.92,,,,,,,,,j.PNG,j,614ca7f8fc7cba1b74101bfe,2021-10-20_10h50.20.371,forced_choiceRT,2021.1.2,Win32,59.95203837,,,,,,,,8,Ontime,j,1,2.005,6,2,26,3,1,,,,,
,1.69,,,,,,,,,h.PNG,h,614ca7f8fc7cba1b74101bfe,2021-10-20_10h50.20.371,forced_choiceRT,2021.1.2,Win32,59.95203837,,,,,,,,8,Ontime,j,0,2,6,3,27,2,1,,,,,
,0.06,,,,,,,,,h.PNG,h,614ca7f8fc7cba1b74101bfe,2021-10-20_10h50.20.371,forced_choiceRT,2021.1.2,Win32,59.95203837,,,,,,,,8,Ontime,h,1,2.01,7,0,28,2,1,,,,,
,0.46,,,,,,,,,j.PNG,j,614ca7f8fc7cba1b74101bfe,2021-10-20_10h50.20.371,forced_choiceRT,2021.1.2,Win32,59.95203837,,,,,,,,8,Ontime,j,1,2.009,7,1,29,3,1,,,,,
,0.9,,,,,,,,,f.PNG,f,614ca7f8fc7cba1b74101bfe,2021-10-20_10h50.20.371,forced_choiceRT,2021.1.2,Win32,59.95203837,,,,,,,,8,Ontime,f,1,2.035,7,2,30,0,1,,,,,
,1.88,,,,,,,,,g.PNG,g,614ca7f8fc7cba1b74101bfe,2021-10-20_10h50.20.371,forced_choiceRT,2021.1.2,Win32,59.95203837,,,,,,,,8,Ontime,f,0,2.033,7,3,31,1,1,,,,,
,0.74,,,,,,,,,h.PNG,h,614ca7f8fc7cba1b74101bfe,2021-10-20_10h50.20.371,forced_choiceRT,2021.1.2,Win32,59.95203837,,,,,,,,8,Ontime,h,1,1.942,8,0,32,2,1,,,,,
,1.03,,,,,,,,,f.PNG,f,614ca7f8fc7cba1b74101bfe,2021-10-20_10h50.20.371,forced_choiceRT,2021.1.2,Win32,59.95203837,,,,,,,,8,Ontime,f,1,2.035,8,1,33,0,1,,,,,
,0.69,,,,,,,,,h.PNG,h,614ca7f8fc7cba1b74101bfe,2021-10-20_10h50.20.371,forced_choiceRT,2021.1.2,Win32,59.95203837,,,,,,,,8,Ontime,h,1,1.954,8,2,34,2,1,,,,,
,1.9,,,,,,,,,g.PNG,g,614ca7f8fc7cba1b74101bfe,2021-10-20_10h50.20.371,forced_choiceRT,2021.1.2,Win32,59.95203837,,,,,,,,8,Ontime,h,0,2.004,8,3,35,1,1,,,,,
,1.78,,,,,,,,,j.PNG,j,614ca7f8fc7cba1b74101bfe,2021-10-20_10h50.20.371,forced_choiceRT,2021.1.2,Win32,59.95203837,,,,,,,,8,Ontime,h,0,2.061,9,0,36,3,1,,,,,
,1.08,,,,,,,,,h.PNG,h,614ca7f8fc7cba1b74101bfe,2021-10-20_10h50.20.371,forced_choiceRT,2021.1.2,Win32,59.95203837,,,,,,,,8,Ontime,h,1,2.002,9,1,37,2,1,,,,,
,0.5,,,,,,,,,h.PNG,h,614ca7f8fc7cba1b74101bfe,2021-10-20_10h50.20.371,forced_choiceRT,2021.1.2,Win32,59.95203837,,,,,,,,8,Ontime,h,1,2.035,9,2,38,2,1,,,,,
,0.79,,,,,,,,,g.PNG,g,614ca7f8fc7cba1b74101bfe,2021-10-20_10h50.20.371,forced_choiceRT,2021.1.2,Win32,59.95203837,,,,,,,,8,Ontime,g,1,2.051,9,3,39,1,1,,,,,
,,,,,,,,,,,,614ca7f8fc7cba1b74101bfe,2021-10-20_10h50.20.371,forced_choiceRT,2021.1.2,Win32,59.95203837,,,,,,,,,,,,,,,,,,7,0,7,0,1
,0.32,,,,,,,,,f.PNG,f,614ca7f8fc7cba1b74101bfe,2021-10-20_10h50.20.371,forced_choiceRT,2021.1.2,Win32,59.95203837,,,,,,,,9,Ontime,f,1,1.949,0,0,0,0,1,,,,,
,1.15,,,,,,,,,h.PNG,h,614ca7f8fc7cba1b74101bfe,2021-10-20_10h50.20.371,forced_choiceRT,2021.1.2,Win32,59.95203837,,,,,,,,9,Ontime,h,1,2.018,0,1,1,2,1,,,,,
,1.64,,,,,,,,,g.PNG,g,614ca7f8fc7cba1b74101bfe,2021-10-20_10h50.20.371,forced_choiceRT,2021.1.2,Win32,59.95203837,,,,,,,,9,Ontime,g,1,2.037,0,2,2,1,1,,,,,
,0.81,,,,,,,,,j.PNG,j,614ca7f8fc7cba1b74101bfe,2021-10-20_10h50.20.371,forced_choiceRT,2021.1.2,Win32,59.95203837,,,,,,,,9,Ontime,j,1,2.009,0,3,3,3,1,,,,,
,0.19,,,,,,,,,j.PNG,j,614ca7f8fc7cba1b74101bfe,2021-10-20_10h50.20.371,forced_choiceRT,2021.1.2,Win32,59.95203837,,,,,,,,9,Ontime,j,1,2.077,1,0,4,3,1,,,,,
,1.87,,,,,,,,,h.PNG,h,614ca7f8fc7cba1b74101bfe,2021-10-20_10h50.20.371,forced_choiceRT,2021.1.2,Win32,59.95203837,,,,,,,,9,Ontime,h,1,2.038,1,1,5,2,1,,,,,
,1.99,,,,,,,,,j.PNG,j,614ca7f8fc7cba1b74101bfe,2021-10-20_10h50.20.371,forced_choiceRT,2021.1.2,Win32,59.95203837,,,,,,,,9,Ontime,h,0,2.056,1,2,6,3,1,,,,,
,0.38,,,,,,,,,f.PNG,f,614ca7f8fc7cba1b74101bfe,2021-10-20_10h50.20.371,forced_choiceRT,2021.1.2,Win32,59.95203837,,,,,,,,9,Ontime,f,1,1.99,1,3,7,0,1,,,,,
,0.21,,,,,,,,,f.PNG,f,614ca7f8fc7cba1b74101bfe,2021-10-20_10h50.20.371,forced_choiceRT,2021.1.2,Win32,59.95203837,,,,,,,,9,Ontime,f,1,2.018,2,0,8,0,1,,,,,
,0.99,,,,,,,,,g.PNG,g,614ca7f8fc7cba1b74101bfe,2021-10-20_10h50.20.371,forced_choiceRT,2021.1.2,Win32,59.95203837,,,,,,,,9,Ontime,g,1,2.002,2,1,9,1,1,,,,,
,1.61,,,,,,,,,h.PNG,h,614ca7f8fc7cba1b74101bfe,2021-10-20_10h50.20.371,forced_choiceRT,2021.1.2,Win32,59.95203837,,,,,,,,9,Ontime,g,0,1.968,2,2,10,2,1,,,,,
,1.41,,,,,,,,,f.PNG,f,614ca7f8fc7cba1b74101bfe,2021-10-20_10h50.20.371,forced_choiceRT,2021.1.2,Win32,59.95203837,,,,,,,,9,Ontime,f,1,2.07,2,3,11,0,1,,,,,
,0.67,,,,,,,,,j.PNG,j,614ca7f8fc7cba1b74101bfe,2021-10-20_10h50.20.371,forced_choiceRT,2021.1.2,Win32,59.95203837,,,,,,,,9,Ontime,j,1,1.958,3,0,12,3,1,,,,,
,0.54,,,,,,,,,j.PNG,j,614ca7f8fc7cba1b74101bfe,2021-10-20_10h50.20.371,forced_choiceRT,2021.1.2,Win32,59.95203837,,,,,,,,9,Ontime,j,1,1.95,3,1,13,3,1,,,,,
,1.84,,,,,,,,,j.PNG,j,614ca7f8fc7cba1b74101bfe,2021-10-20_10h50.20.371,forced_choiceRT,2021.1.2,Win32,59.95203837,,,,,,,,9,Ontime,h,0,2.017,3,2,14,3,1,,,,,
,1.94,,,,,,,,,h.PNG,h,614ca7f8fc7cba1b74101bfe,2021-10-20_10h50.20.371,forced_choiceRT,2021.1.2,Win32,59.95203837,,,,,,,,9,Ontime,h,1,2.035,3,3,15,2,1,,,,,
,1.25,,,,,,,,,h.PNG,h,614ca7f8fc7cba1b74101bfe,2021-10-20_10h50.20.371,forced_choiceRT,2021.1.2,Win32,59.95203837,,,,,,,,9,Ontime,h,1,1.941,4,0,16,2,1,,,,,
,0.07,,,,,,,,,g.PNG,g,614ca7f8fc7cba1b74101bfe,2021-10-20_10h50.20.371,forced_choiceRT,2021.1.2,Win32,59.95203837,,,,,,,,9,Ontime,g,1,1.988,4,1,17,1,1,,,,,
,1.08,,,,,,,,,f.PNG,f,614ca7f8fc7cba1b74101bfe,2021-10-20_10h50.20.371,forced_choiceRT,2021.1.2,Win32,59.95203837,,,,,,,,9,Ontime,f,1,2.062,4,2,18,0,1,,,,,
,0.23,,,,,,,,,h.PNG,h,614ca7f8fc7cba1b74101bfe,2021-10-20_10h50.20.371,forced_choiceRT,2021.1.2,Win32,59.95203837,,,,,,,,9,Ontime,h,1,1.967,4,3,19,2,1,,,,,
,1.01,,,,,,,,,f.PNG,f,614ca7f8fc7cba1b74101bfe,2021-10-20_10h50.20.371,forced_choiceRT,2021.1.2,Win32,59.95203837,,,,,,,,9,Ontime,f,1,2.051,5,0,20,0,1,,,,,
,1.12,,,,,,,,,g.PNG,g,614ca7f8fc7cba1b74101bfe,2021-10-20_10h50.20.371,forced_choiceRT,2021.1.2,Win32,59.95203837,,,,,,,,9,Ontime,g,1,2.057,5,1,21,1,1,,,,,
,0.39,,,,,,,,,j.PNG,j,614ca7f8fc7cba1b74101bfe,2021-10-20_10h50.20.371,forced_choiceRT,2021.1.2,Win32,59.95203837,,,,,,,,9,Ontime,j,1,1.909,5,2,22,3,1,,,,,
,0.12,,,,,,,,,h.PNG,h,614ca7f8fc7cba1b74101bfe,2021-10-20_10h50.20.371,forced_choiceRT,2021.1.2,Win32,59.95203837,,,,,,,,9,Ontime,h,1,1.95,5,3,23,2,1,,,,,
,0.95,,,,,,,,,h.PNG,h,614ca7f8fc7cba1b74101bfe,2021-10-20_10h50.20.371,forced_choiceRT,2021.1.2,Win32,59.95203837,,,,,,,,9,Ontime,h,1,1.991,6,0,24,2,1,,,,,
,0.49,,,,,,,,,h.PNG,h,614ca7f8fc7cba1b74101bfe,2021-10-20_10h50.20.371,forced_choiceRT,2021.1.2,Win32,59.95203837,,,,,,,,9,Fast,h,1,1.889,6,1,25,2,1,,,,,
,0.36,,,,,,,,,f.PNG,f,614ca7f8fc7cba1b74101bfe,2021-10-20_10h50.20.371,forced_choiceRT,2021.1.2,Win32,59.95203837,,,,,,,,9,Ontime,f,1,1.935,6,2,26,0,1,,,,,
,0.44,,,,,,,,,g.PNG,g,614ca7f8fc7cba1b74101bfe,2021-10-20_10h50.20.371,forced_choiceRT,2021.1.2,Win32,59.95203837,,,,,,,,9,Ontime,g,1,1.991,6,3,27,1,1,,,,,
,0.58,,,,,,,,,f.PNG,f,614ca7f8fc7cba1b74101bfe,2021-10-20_10h50.20.371,forced_choiceRT,2021.1.2,Win32,59.95203837,,,,,,,,9,Ontime,f,1,1.985,7,0,28,0,1,,,,,
,0.4,,,,,,,,,g.PNG,g,614ca7f8fc7cba1b74101bfe,2021-10-20_10h50.20.371,forced_choiceRT,2021.1.2,Win32,59.95203837,,,,,,,,9,Ontime,g,1,1.952,7,1,29,1,1,,,,,
,1.31,,,,,,,,,j.PNG,j,614ca7f8fc7cba1b74101bfe,2021-10-20_10h50.20.371,forced_choiceRT,2021.1.2,Win32,59.95203837,,,,,,,,9,Ontime,j,1,2.036,7,2,30,3,1,,,,,
,1.31,,,,,,,,,g.PNG,g,614ca7f8fc7cba1b74101bfe,2021-10-20_10h50.20.371,forced_choiceRT,2021.1.2,Win32,59.95203837,,,,,,,,9,Ontime,g,1,2.037,7,3,31,1,1,,,,,
,1.11,,,,,,,,,g.PNG,g,614ca7f8fc7cba1b74101bfe,2021-10-20_10h50.20.371,forced_choiceRT,2021.1.2,Win32,59.95203837,,,,,,,,9,Ontime,g,1,1.989,8,0,32,1,1,,,,,
,0.95,,,,,,,,,f.PNG,f,614ca7f8fc7cba1b74101bfe,2021-10-20_10h50.20.371,forced_choiceRT,2021.1.2,Win32,59.95203837,,,,,,,,9,Ontime,f,1,1.976,8,1,33,0,1,,,,,
,1.66,,,,,,,,,j.PNG,j,614ca7f8fc7cba1b74101bfe,2021-10-20_10h50.20.371,forced_choiceRT,2021.1.2,Win32,59.95203837,,,,,,,,9,Ontime,g,0,2.005,8,2,34,3,1,,,,,
,0.74,,,,,,,,,h.PNG,h,614ca7f8fc7cba1b74101bfe,2021-10-20_10h50.20.371,forced_choiceRT,2021.1.2,Win32,59.95203837,,,,,,,,9,Fast,h,1,1.882,8,3,35,2,1,,,,,
,1.04,,,,,,,,,f.PNG,f,614ca7f8fc7cba1b74101bfe,2021-10-20_10h50.20.371,forced_choiceRT,2021.1.2,Win32,59.95203837,,,,,,,,9,Ontime,f,1,2.038,9,0,36,0,1,,,,,
,1.83,,,,,,,,,g.PNG,g,614ca7f8fc7cba1b74101bfe,2021-10-20_10h50.20.371,forced_choiceRT,2021.1.2,Win32,59.95203837,,,,,,,,9,Ontime,f,0,2.068,9,1,37,1,1,,,,,
,1.58,,,,,,,,,g.PNG,g,614ca7f8fc7cba1b74101bfe,2021-10-20_10h50.20.371,forced_choiceRT,2021.1.2,Win32,59.95203837,,,,,,,,9,Ontime,g,1,2.087,9,2,38,1,1,,,,,
,1.8,,,,,,,,,j.PNG,j,614ca7f8fc7cba1b74101bfe,2021-10-20_10h50.20.371,forced_choiceRT,2021.1.2,Win32,59.95203837,,,,,,,,9,Ontime,g,0,2.061,9,3,39,3,1,,,,,
,,,,,,,,,,,,614ca7f8fc7cba1b74101bfe,2021-10-20_10h50.20.371,forced_choiceRT,2021.1.2,Win32,59.95203837,,,,,,,,,,,,,,,,,,8,0,8,0,1
,0.16,,,,,,,,,f.PNG,f,614ca7f8fc7cba1b74101bfe,2021-10-20_10h50.20.371,forced_choiceRT,2021.1.2,Win32,59.95203837,,,,,,,,10,Ontime,f,1,2.028,0,0,0,0,1,,,,,
,1.51,,,,,,,,,g.PNG,g,614ca7f8fc7cba1b74101bfe,2021-10-20_10h50.20.371,forced_choiceRT,2021.1.2,Win32,59.95203837,,,,,,,,10,Ontime,g,1,2.057,0,1,1,1,1,,,,,
,0.45,,,,,,,,,j.PNG,j,614ca7f8fc7cba1b74101bfe,2021-10-20_10h50.20.371,forced_choiceRT,2021.1.2,Win32,59.95203837,,,,,,,,10,Ontime,j,1,2.018,0,2,2,3,1,,,,,
,0.96,,,,,,,,,j.PNG,j,614ca7f8fc7cba1b74101bfe,2021-10-20_10h50.20.371,forced_choiceRT,2021.1.2,Win32,59.95203837,,,,,,,,10,Ontime,j,1,2.023,0,3,3,3,1,,,,,
,0.4,,,,,,,,,f.PNG,f,614ca7f8fc7cba1b74101bfe,2021-10-20_10h50.20.371,forced_choiceRT,2021.1.2,Win32,59.95203837,,,,,,,,10,Ontime,f,1,2.033,1,0,4,0,1,,,,,
,1.01,,,,,,,,,j.PNG,j,614ca7f8fc7cba1b74101bfe,2021-10-20_10h50.20.371,forced_choiceRT,2021.1.2,Win32,59.95203837,,,,,,,,10,Ontime,j,1,1.919,1,1,5,3,1,,,,,
,1.29,,,,,,,,,h.PNG,h,614ca7f8fc7cba1b74101bfe,2021-10-20_10h50.20.371,forced_choiceRT,2021.1.2,Win32,59.95203837,,,,,,,,10,Ontime,h,1,1.966,1,2,6,2,1,,,,,
,0.93,,,,,,,,,f.PNG,f,614ca7f8fc7cba1b74101bfe,2021-10-20_10h50.20.371,forced_choiceRT,2021.1.2,Win32,59.95203837,,,,,,,,10,Ontime,f,1,2.017,1,3,7,0,1,,,,,
,1.59,,,,,,,,,g.PNG,g,614ca7f8fc7cba1b74101bfe,2021-10-20_10h50.20.371,forced_choiceRT,2021.1.2,Win32,59.95203837,,,,,,,,10,Ontime,g,1,1.987,2,0,8,1,1,,,,,
,1.27,,,,,,,,,j.PNG,j,614ca7f8fc7cba1b74101bfe,2021-10-20_10h50.20.371,forced_choiceRT,2021.1.2,Win32,59.95203837,,,,,,,,10,Ontime,j,1,1.952,2,1,9,3,1,,,,,
,0.92,,,,,,,,,f.PNG,f,614ca7f8fc7cba1b74101bfe,2021-10-20_10h50.20.371,forced_choiceRT,2021.1.2,Win32,59.95203837,,,,,,,,10,Ontime,f,1,1.993,2,2,10,0,1,,,,,
,0.17,,,,,,,,,f.PNG,f,614ca7f8fc7cba1b74101bfe,2021-10-20_10h50.20.371,forced_choiceRT,2021.1.2,Win32,59.95203837,,,,,,,,10,Ontime,f,1,2.021,2,3,11,0,1,,,,,
,1.42,,,,,,,,,f.PNG,f,614ca7f8fc7cba1b74101bfe,2021-10-20_10h50.20.371,forced_choiceRT,2021.1.2,Win32,59.95203837,,,,,,,,10,Ontime,f,1,2.064,3,0,12,0,1,,,,,
,0.5,,,,,,,,,j.PNG,j,614ca7f8fc7cba1b74101bfe,2021-10-20_10h50.20.371,forced_choiceRT,2021.1.2,Win32,59.95203837,,,,,,,,10,Ontime,j,1,1.951,3,1,13,3,1,,,,,
,0.55,,,,,,,,,j.PNG,j,614ca7f8fc7cba1b74101bfe,2021-10-20_10h50.20.371,forced_choiceRT,2021.1.2,Win32,59.95203837,,,,,,,,10,Ontime,j,1,2.009,3,2,14,3,1,,,,,
,0.56,,,,,,,,,h.PNG,h,614ca7f8fc7cba1b74101bfe,2021-10-20_10h50.20.371,forced_choiceRT,2021.1.2,Win32,59.95203837,,,,,,,,10,Ontime,h,1,1.937,3,3,15,2,1,,,,,
,1.15,,,,,,,,,h.PNG,h,614ca7f8fc7cba1b74101bfe,2021-10-20_10h50.20.371,forced_choiceRT,2021.1.2,Win32,59.95203837,,,,,,,,10,Ontime,h,1,2.018,4,0,16,2,1,,,,,
,0,,,,,,,,,h.PNG,h,614ca7f8fc7cba1b74101bfe,2021-10-20_10h50.20.371,forced_choiceRT,2021.1.2,Win32,59.95203837,,,,,,,,10,Ontime,h,1,2.053,4,1,17,2,1,,,,,
,0.69,,,,,,,,,g.PNG,g,614ca7f8fc7cba1b74101bfe,2021-10-20_10h50.20.371,forced_choiceRT,2021.1.2,Win32,59.95203837,,,,,,,,10,Ontime,g,1,2.051,4,2,18,1,1,,,,,
,0.65,,,,,,,,,g.PNG,g,614ca7f8fc7cba1b74101bfe,2021-10-20_10h50.20.371,forced_choiceRT,2021.1.2,Win32,59.95203837,,,,,,,,10,Ontime,g,1,1.986,4,3,19,1,1,,,,,
,0.3,,,,,,,,,f.PNG,f,614ca7f8fc7cba1b74101bfe,2021-10-20_10h50.20.371,forced_choiceRT,2021.1.2,Win32,59.95203837,,,,,,,,10,Ontime,f,1,2.036,5,0,20,0,1,,,,,
,0.92,,,,,,,,,g.PNG,g,614ca7f8fc7cba1b74101bfe,2021-10-20_10h50.20.371,forced_choiceRT,2021.1.2,Win32,59.95203837,,,,,,,,10,Ontime,g,1,1.961,5,1,21,1,1,,,,,
,0.27,,,,,,,,,g.PNG,g,614ca7f8fc7cba1b74101bfe,2021-10-20_10h50.20.371,forced_choiceRT,2021.1.2,Win32,59.95203837,,,,,,,,10,Ontime,g,1,1.997,5,2,22,1,1,,,,,
,0.04,,,,,,,,,h.PNG,h,614ca7f8fc7cba1b74101bfe,2021-10-20_10h50.20.371,forced_choiceRT,2021.1.2,Win32,59.95203837,,,,,,,,10,Ontime,h,1,1.984,5,3,23,2,1,,,,,
,1.06,,,,,,,,,h.PNG,h,614ca7f8fc7cba1b74101bfe,2021-10-20_10h50.20.371,forced_choiceRT,2021.1.2,Win32,59.95203837,,,,,,,,10,Ontime,h,1,1.967,6,0,24,2,1,,,,,
,1.28,,,,,,,,,h.PNG,h,614ca7f8fc7cba1b74101bfe,2021-10-20_10h50.20.371,forced_choiceRT,2021.1.2,Win32,59.95203837,,,,,,,,10,Ontime,h,1,2.002,6,1,25,2,1,,,,,
,1.25,,,,,,,,,g.PNG,g,614ca7f8fc7cba1b74101bfe,2021-10-20_10h50.20.371,forced_choiceRT,2021.1.2,Win32,59.95203837,,,,,,,,10,Ontime,g,1,2.001,6,2,26,1,1,,,,,
,0.37,,,,,,,,,j.PNG,j,614ca7f8fc7cba1b74101bfe,2021-10-20_10h50.20.371,forced_choiceRT,2021.1.2,Win32,59.95203837,,,,,,,,10,Ontime,j,1,2.067,6,3,27,3,1,,,,,
,0.55,,,,,,,,,h.PNG,h,614ca7f8fc7cba1b74101bfe,2021-10-20_10h50.20.371,forced_choiceRT,2021.1.2,Win32,59.95203837,,,,,,,,10,Ontime,h,1,1.951,7,0,28,2,1,,,,,
,0.21,,,,,,,,,g.PNG,g,614ca7f8fc7cba1b74101bfe,2021-10-20_10h50.20.371,forced_choiceRT,2021.1.2,Win32,59.95203837,,,,,,,,10,Ontime,g,1,1.977,7,1,29,1,1,,,,,
,0.73,,,,,,,,,h.PNG,h,614ca7f8fc7cba1b74101bfe,2021-10-20_10h50.20.371,forced_choiceRT,2021.1.2,Win32,59.95203837,,,,,,,,10,Ontime,h,1,1.956,7,2,30,2,1,,,,,
,1.14,,,,,,,,,h.PNG,h,614ca7f8fc7cba1b74101bfe,2021-10-20_10h50.20.371,forced_choiceRT,2021.1.2,Win32,59.95203837,,,,,,,,10,Ontime,h,1,1.95,7,3,31,2,1,,,,,
,1.67,,,,,,,,,f.PNG,f,614ca7f8fc7cba1b74101bfe,2021-10-20_10h50.20.371,forced_choiceRT,2021.1.2,Win32,59.95203837,,,,,,,,10,Ontime,h,0,1.954,8,0,32,0,1,,,,,
,0.95,,,,,,,,,j.PNG,j,614ca7f8fc7cba1b74101bfe,2021-10-20_10h50.20.371,forced_choiceRT,2021.1.2,Win32,59.95203837,,,,,,,,10,Ontime,j,1,1.905,8,1,33,3,1,,,,,
,0.49,,,,,,,,,f.PNG,f,614ca7f8fc7cba1b74101bfe,2021-10-20_10h50.20.371,forced_choiceRT,2021.1.2,Win32,59.95203837,,,,,,,,10,Ontime,f,1,1.985,8,2,34,0,1,,,,,
,0.43,,,,,,,,,g.PNG,g,614ca7f8fc7cba1b74101bfe,2021-10-20_10h50.20.371,forced_choiceRT,2021.1.2,Win32,59.95203837,,,,,,,,10,Fast,g,1,1.834,8,3,35,1,1,,,,,
,1.25,,,,,,,,,j.PNG,j,614ca7f8fc7cba1b74101bfe,2021-10-20_10h50.20.371,forced_choiceRT,2021.1.2,Win32,59.95203837,,,,,,,,10,Ontime,j,1,2.052,9,0,36,3,1,,,,,
,0.25,,,,,,,,,g.PNG,g,614ca7f8fc7cba1b74101bfe,2021-10-20_10h50.20.371,forced_choiceRT,2021.1.2,Win32,59.95203837,,,,,,,,10,Ontime,g,1,2.002,9,1,37,1,1,,,,,
,0.71,,,,,,,,,f.PNG,f,614ca7f8fc7cba1b74101bfe,2021-10-20_10h50.20.371,forced_choiceRT,2021.1.2,Win32,59.95203837,,,,,,,,10,Ontime,f,1,1.951,9,2,38,0,1,,,,,
,1.88,,,,,,,,,j.PNG,j,614ca7f8fc7cba1b74101bfe,2021-10-20_10h50.20.371,forced_choiceRT,2021.1.2,Win32,59.95203837,,,,,,,,10,Ontime,g,0,2.066,9,3,39,3,1,,,,,
,,,,,,,,,,,,614ca7f8fc7cba1b74101bfe,2021-10-20_10h50.20.371,forced_choiceRT,2021.1.2,Win32,59.95203837,,,,,,,,,,,,,,,,,,9,0,9,0,1
