IP_Addresss,target_onset,trial_resp_sp.keys,trial_resp_sp.corr,trial_resp_sp.rt,trials_train_loop.thisRepN,trials_train_loop.thisTrialN,trials_train_loop.thisN,trials_train_loop.thisIndex,trials_train_loop.ran,pic,correct_key,participant,date,expName,psychopyVersion,OS,frameRate,trial_resp_timing.keys,trial_resp_timing.rt,trials_train_timing.thisRepN,trials_train_timing.thisTrialN,trials_train_timing.thisN,trials_train_timing.thisIndex,trials_train_timing.ran,block_id,ontime,forcedRT_resp.keys,forcedRT_resp.corr,forcedRT_resp.rt,trials.thisRepN,trials.thisTrialN,trials.thisN,trials.thisIndex,trials.ran,blocks.thisRepN,blocks.thisTrialN,blocks.thisN,blocks.thisIndex,blocks.ran
173.211.218.162,0,g,1,2.0024,0,0,0,1,1,g.PNG,g,614dff99a7df5de140464ec3,2021-10-19_15h53.52.340,forced_choiceRT,2021.1.2,Win32,59.326056,,,,,,,,,,,,,,,,,,,,,,
,0,g,1,1.151,0,1,1,1,1,g.PNG,g,614dff99a7df5de140464ec3,2021-10-19_15h53.52.340,forced_choiceRT,2021.1.2,Win32,59.326056,,,,,,,,,,,,,,,,,,,,,,
,0,h,1,1.1344,0,2,2,2,1,h.PNG,h,614dff99a7df5de140464ec3,2021-10-19_15h53.52.340,forced_choiceRT,2021.1.2,Win32,59.326056,,,,,,,,,,,,,,,,,,,,,,
,0,h,1,0.9677,0,3,3,2,1,h.PNG,h,614dff99a7df5de140464ec3,2021-10-19_15h53.52.340,forced_choiceRT,2021.1.2,Win32,59.326056,,,,,,,,,,,,,,,,,,,,,,
,0,j,1,0.9667,1,0,4,3,1,j.PNG,j,614dff99a7df5de140464ec3,2021-10-19_15h53.52.340,forced_choiceRT,2021.1.2,Win32,59.326056,,,,,,,,,,,,,,,,,,,,,,
,0,j,1,0.6265,1,1,5,3,1,j.PNG,j,614dff99a7df5de140464ec3,2021-10-19_15h53.52.340,forced_choiceRT,2021.1.2,Win32,59.326056,,,,,,,,,,,,,,,,,,,,,,
,0,h,1,0.9634,1,2,6,2,1,h.PNG,h,614dff99a7df5de140464ec3,2021-10-19_15h53.52.340,forced_choiceRT,2021.1.2,Win32,59.326056,,,,,,,,,,,,,,,,,,,,,,
,0,g,1,1.0999,1,3,7,1,1,g.PNG,g,614dff99a7df5de140464ec3,2021-10-19_15h53.52.340,forced_choiceRT,2021.1.2,Win32,59.326056,,,,,,,,,,,,,,,,,,,,,,
,0,h,1,1.2326,2,0,8,2,1,h.PNG,h,614dff99a7df5de140464ec3,2021-10-19_15h53.52.340,forced_choiceRT,2021.1.2,Win32,59.326056,,,,,,,,,,,,,,,,,,,,,,
,0,j,1,0.7868,2,1,9,3,1,j.PNG,j,614dff99a7df5de140464ec3,2021-10-19_15h53.52.340,forced_choiceRT,2021.1.2,Win32,59.326056,,,,,,,,,,,,,,,,,,,,,,
,0,f,1,0.8475,2,2,10,0,1,f.PNG,f,614dff99a7df5de140464ec3,2021-10-19_15h53.52.340,forced_choiceRT,2021.1.2,Win32,59.326056,,,,,,,,,,,,,,,,,,,,,,
,0,g,1,1.2127,2,3,11,1,1,g.PNG,g,614dff99a7df5de140464ec3,2021-10-19_15h53.52.340,forced_choiceRT,2021.1.2,Win32,59.326056,,,,,,,,,,,,,,,,,,,,,,
,0,g,1,0.8669,3,0,12,1,1,g.PNG,g,614dff99a7df5de140464ec3,2021-10-19_15h53.52.340,forced_choiceRT,2021.1.2,Win32,59.326056,,,,,,,,,,,,,,,,,,,,,,
,0,j,1,0.8663,3,1,13,3,1,j.PNG,j,614dff99a7df5de140464ec3,2021-10-19_15h53.52.340,forced_choiceRT,2021.1.2,Win32,59.326056,,,,,,,,,,,,,,,,,,,,,,
,0,f,1,0.8329,3,2,14,0,1,f.PNG,f,614dff99a7df5de140464ec3,2021-10-19_15h53.52.340,forced_choiceRT,2021.1.2,Win32,59.326056,,,,,,,,,,,,,,,,,,,,,,
,0,h,1,1.0211,3,3,15,2,1,h.PNG,h,614dff99a7df5de140464ec3,2021-10-19_15h53.52.340,forced_choiceRT,2021.1.2,Win32,59.326056,,,,,,,,,,,,,,,,,,,,,,
,0,f,1,0.7498,4,0,16,0,1,f.PNG,f,614dff99a7df5de140464ec3,2021-10-19_15h53.52.340,forced_choiceRT,2021.1.2,Win32,59.326056,,,,,,,,,,,,,,,,,,,,,,
,0,j,1,0.9626,4,1,17,3,1,j.PNG,j,614dff99a7df5de140464ec3,2021-10-19_15h53.52.340,forced_choiceRT,2021.1.2,Win32,59.326056,,,,,,,,,,,,,,,,,,,,,,
,0,f,1,0.9993,4,2,18,0,1,f.PNG,f,614dff99a7df5de140464ec3,2021-10-19_15h53.52.340,forced_choiceRT,2021.1.2,Win32,59.326056,,,,,,,,,,,,,,,,,,,,,,
,0,g,1,0.8998,4,3,19,1,1,g.PNG,g,614dff99a7df5de140464ec3,2021-10-19_15h53.52.340,forced_choiceRT,2021.1.2,Win32,59.326056,,,,,,,,,,,,,,,,,,,,,,
,0,j,1,0.9007,5,0,20,3,1,j.PNG,j,614dff99a7df5de140464ec3,2021-10-19_15h53.52.340,forced_choiceRT,2021.1.2,Win32,59.326056,,,,,,,,,,,,,,,,,,,,,,
,0,f,0,0.9538,5,1,21,1,1,g.PNG,g,614dff99a7df5de140464ec3,2021-10-19_15h53.52.340,forced_choiceRT,2021.1.2,Win32,59.326056,,,,,,,,,,,,,,,,,,,,,,
,0,h,1,1.2461,5,2,22,2,1,h.PNG,h,614dff99a7df5de140464ec3,2021-10-19_15h53.52.340,forced_choiceRT,2021.1.2,Win32,59.326056,,,,,,,,,,,,,,,,,,,,,,
,0,f,1,1.2671,5,3,23,0,1,f.PNG,f,614dff99a7df5de140464ec3,2021-10-19_15h53.52.340,forced_choiceRT,2021.1.2,Win32,59.326056,,,,,,,,,,,,,,,,,,,,,,
,0,h,1,1.0665,6,0,24,2,1,h.PNG,h,614dff99a7df5de140464ec3,2021-10-19_15h53.52.340,forced_choiceRT,2021.1.2,Win32,59.326056,,,,,,,,,,,,,,,,,,,,,,
,0,f,1,0.9909,6,1,25,0,1,f.PNG,f,614dff99a7df5de140464ec3,2021-10-19_15h53.52.340,forced_choiceRT,2021.1.2,Win32,59.326056,,,,,,,,,,,,,,,,,,,,,,
,0,j,1,0.8322,6,2,26,3,1,j.PNG,j,614dff99a7df5de140464ec3,2021-10-19_15h53.52.340,forced_choiceRT,2021.1.2,Win32,59.326056,,,,,,,,,,,,,,,,,,,,,,
,0,g,1,0.9292,6,3,27,1,1,g.PNG,g,614dff99a7df5de140464ec3,2021-10-19_15h53.52.340,forced_choiceRT,2021.1.2,Win32,59.326056,,,,,,,,,,,,,,,,,,,,,,
,0,f,1,0.8325,7,0,28,0,1,f.PNG,f,614dff99a7df5de140464ec3,2021-10-19_15h53.52.340,forced_choiceRT,2021.1.2,Win32,59.326056,,,,,,,,,,,,,,,,,,,,,,
,0,f,1,0.9338,7,1,29,0,1,f.PNG,f,614dff99a7df5de140464ec3,2021-10-19_15h53.52.340,forced_choiceRT,2021.1.2,Win32,59.326056,,,,,,,,,,,,,,,,,,,,,,
,0,j,1,0.7671,7,2,30,3,1,j.PNG,j,614dff99a7df5de140464ec3,2021-10-19_15h53.52.340,forced_choiceRT,2021.1.2,Win32,59.326056,,,,,,,,,,,,,,,,,,,,,,
,0,h,1,0.6352,7,3,31,2,1,h.PNG,h,614dff99a7df5de140464ec3,2021-10-19_15h53.52.340,forced_choiceRT,2021.1.2,Win32,59.326056,,,,,,,,,,,,,,,,,,,,,,
,0,j,1,0.8504,8,0,32,3,1,j.PNG,j,614dff99a7df5de140464ec3,2021-10-19_15h53.52.340,forced_choiceRT,2021.1.2,Win32,59.326056,,,,,,,,,,,,,,,,,,,,,,
,0,j,1,0.796,8,1,33,3,1,j.PNG,j,614dff99a7df5de140464ec3,2021-10-19_15h53.52.340,forced_choiceRT,2021.1.2,Win32,59.326056,,,,,,,,,,,,,,,,,,,,,,
,0,h,1,0.6659,8,2,34,2,1,h.PNG,h,614dff99a7df5de140464ec3,2021-10-19_15h53.52.340,forced_choiceRT,2021.1.2,Win32,59.326056,,,,,,,,,,,,,,,,,,,,,,
,0,h,1,0.7011,8,3,35,2,1,h.PNG,h,614dff99a7df5de140464ec3,2021-10-19_15h53.52.340,forced_choiceRT,2021.1.2,Win32,59.326056,,,,,,,,,,,,,,,,,,,,,,
,0,j,1,0.7673,9,0,36,3,1,j.PNG,j,614dff99a7df5de140464ec3,2021-10-19_15h53.52.340,forced_choiceRT,2021.1.2,Win32,59.326056,,,,,,,,,,,,,,,,,,,,,,
,0,j,1,0.7935,9,1,37,3,1,j.PNG,j,614dff99a7df5de140464ec3,2021-10-19_15h53.52.340,forced_choiceRT,2021.1.2,Win32,59.326056,,,,,,,,,,,,,,,,,,,,,,
,0,f,0,0.8212,9,2,38,1,1,g.PNG,g,614dff99a7df5de140464ec3,2021-10-19_15h53.52.340,forced_choiceRT,2021.1.2,Win32,59.326056,,,,,,,,,,,,,,,,,,,,,,
,0,g,1,0.9953,9,3,39,1,1,g.PNG,g,614dff99a7df5de140464ec3,2021-10-19_15h53.52.340,forced_choiceRT,2021.1.2,Win32,59.326056,,,,,,,,,,,,,,,,,,,,,,
,0,h,1,0.7996,10,0,40,2,1,h.PNG,h,614dff99a7df5de140464ec3,2021-10-19_15h53.52.340,forced_choiceRT,2021.1.2,Win32,59.326056,,,,,,,,,,,,,,,,,,,,,,
,0,g,1,0.7003,10,1,41,1,1,g.PNG,g,614dff99a7df5de140464ec3,2021-10-19_15h53.52.340,forced_choiceRT,2021.1.2,Win32,59.326056,,,,,,,,,,,,,,,,,,,,,,
,0,g,1,0.9013,10,2,42,1,1,g.PNG,g,614dff99a7df5de140464ec3,2021-10-19_15h53.52.340,forced_choiceRT,2021.1.2,Win32,59.326056,,,,,,,,,,,,,,,,,,,,,,
,0,h,1,0.9644,10,3,43,2,1,h.PNG,h,614dff99a7df5de140464ec3,2021-10-19_15h53.52.340,forced_choiceRT,2021.1.2,Win32,59.326056,,,,,,,,,,,,,,,,,,,,,,
,0,f,1,0.6668,11,0,44,0,1,f.PNG,f,614dff99a7df5de140464ec3,2021-10-19_15h53.52.340,forced_choiceRT,2021.1.2,Win32,59.326056,,,,,,,,,,,,,,,,,,,,,,
,0,f,1,0.8455,11,1,45,0,1,f.PNG,f,614dff99a7df5de140464ec3,2021-10-19_15h53.52.340,forced_choiceRT,2021.1.2,Win32,59.326056,,,,,,,,,,,,,,,,,,,,,,
,0,g,1,0.8999,11,2,46,1,1,g.PNG,g,614dff99a7df5de140464ec3,2021-10-19_15h53.52.340,forced_choiceRT,2021.1.2,Win32,59.326056,,,,,,,,,,,,,,,,,,,,,,
,0,j,1,0.8337,11,3,47,3,1,j.PNG,j,614dff99a7df5de140464ec3,2021-10-19_15h53.52.340,forced_choiceRT,2021.1.2,Win32,59.326056,,,,,,,,,,,,,,,,,,,,,,
,0,f,1,0.7665,12,0,48,0,1,f.PNG,f,614dff99a7df5de140464ec3,2021-10-19_15h53.52.340,forced_choiceRT,2021.1.2,Win32,59.326056,,,,,,,,,,,,,,,,,,,,,,
,0,h,1,0.7293,12,1,49,2,1,h.PNG,h,614dff99a7df5de140464ec3,2021-10-19_15h53.52.340,forced_choiceRT,2021.1.2,Win32,59.326056,,,,,,,,,,,,,,,,,,,,,,
,0,g,1,1.468,12,2,50,1,1,g.PNG,g,614dff99a7df5de140464ec3,2021-10-19_15h53.52.340,forced_choiceRT,2021.1.2,Win32,59.326056,,,,,,,,,,,,,,,,,,,,,,
,0,j,1,0.7998,12,3,51,3,1,j.PNG,j,614dff99a7df5de140464ec3,2021-10-19_15h53.52.340,forced_choiceRT,2021.1.2,Win32,59.326056,,,,,,,,,,,,,,,,,,,,,,
,0,h,1,0.6666,13,0,52,2,1,h.PNG,h,614dff99a7df5de140464ec3,2021-10-19_15h53.52.340,forced_choiceRT,2021.1.2,Win32,59.326056,,,,,,,,,,,,,,,,,,,,,,
,0,h,1,0.867,13,1,53,2,1,h.PNG,h,614dff99a7df5de140464ec3,2021-10-19_15h53.52.340,forced_choiceRT,2021.1.2,Win32,59.326056,,,,,,,,,,,,,,,,,,,,,,
,0,g,1,1.1005,13,2,54,1,1,g.PNG,g,614dff99a7df5de140464ec3,2021-10-19_15h53.52.340,forced_choiceRT,2021.1.2,Win32,59.326056,,,,,,,,,,,,,,,,,,,,,,
,0,f,1,0.6323,13,3,55,0,1,f.PNG,f,614dff99a7df5de140464ec3,2021-10-19_15h53.52.340,forced_choiceRT,2021.1.2,Win32,59.326056,,,,,,,,,,,,,,,,,,,,,,
,0,f,1,0.5492,14,0,56,0,1,f.PNG,f,614dff99a7df5de140464ec3,2021-10-19_15h53.52.340,forced_choiceRT,2021.1.2,Win32,59.326056,,,,,,,,,,,,,,,,,,,,,,
,0,f,1,0.5667,14,1,57,0,1,f.PNG,f,614dff99a7df5de140464ec3,2021-10-19_15h53.52.340,forced_choiceRT,2021.1.2,Win32,59.326056,,,,,,,,,,,,,,,,,,,,,,
,0,j,1,0.7668,14,2,58,3,1,j.PNG,j,614dff99a7df5de140464ec3,2021-10-19_15h53.52.340,forced_choiceRT,2021.1.2,Win32,59.326056,,,,,,,,,,,,,,,,,,,,,,
,0,f,1,0.8323,14,3,59,0,1,f.PNG,f,614dff99a7df5de140464ec3,2021-10-19_15h53.52.340,forced_choiceRT,2021.1.2,Win32,59.326056,,,,,,,,,,,,,,,,,,,,,,
,,,,,,,,,,,,614dff99a7df5de140464ec3,2021-10-19_15h53.52.340,forced_choiceRT,2021.1.2,Win32,59.326056,f,2.3363,0,0,0,0,1,,,,,,,,,,,,,,,
,,,,,,,,,,,,614dff99a7df5de140464ec3,2021-10-19_15h53.52.340,forced_choiceRT,2021.1.2,Win32,59.326056,f,2.0655,1,0,1,0,1,,,,,,,,,,,,,,,
,,,,,,,,,,,,614dff99a7df5de140464ec3,2021-10-19_15h53.52.340,forced_choiceRT,2021.1.2,Win32,59.326056,g,2.0663,2,0,2,0,1,,,,,,,,,,,,,,,
,,,,,,,,,,,,614dff99a7df5de140464ec3,2021-10-19_15h53.52.340,forced_choiceRT,2021.1.2,Win32,59.326056,h,2.0366,3,0,3,0,1,,,,,,,,,,,,,,,
,,,,,,,,,,,,614dff99a7df5de140464ec3,2021-10-19_15h53.52.340,forced_choiceRT,2021.1.2,Win32,59.326056,j,2.1621,4,0,4,0,1,,,,,,,,,,,,,,,
,,,,,,,,,,,,614dff99a7df5de140464ec3,2021-10-19_15h53.52.340,forced_choiceRT,2021.1.2,Win32,59.326056,f,2.1328,5,0,5,0,1,,,,,,,,,,,,,,,
,,,,,,,,,,,,614dff99a7df5de140464ec3,2021-10-19_15h53.52.340,forced_choiceRT,2021.1.2,Win32,59.326056,f,2.0666,6,0,6,0,1,,,,,,,,,,,,,,,
,,,,,,,,,,,,614dff99a7df5de140464ec3,2021-10-19_15h53.52.340,forced_choiceRT,2021.1.2,Win32,59.326056,h,2.1993,7,0,7,0,1,,,,,,,,,,,,,,,
,,,,,,,,,,,,614dff99a7df5de140464ec3,2021-10-19_15h53.52.340,forced_choiceRT,2021.1.2,Win32,59.326056,j,1.9995,8,0,8,0,1,,,,,,,,,,,,,,,
,,,,,,,,,,,,614dff99a7df5de140464ec3,2021-10-19_15h53.52.340,forced_choiceRT,2021.1.2,Win32,59.326056,h,2.0663,9,0,9,0,1,,,,,,,,,,,,,,,
,,,,,,,,,,,,614dff99a7df5de140464ec3,2021-10-19_15h53.52.340,forced_choiceRT,2021.1.2,Win32,59.326056,g,1.9371,10,0,10,0,1,,,,,,,,,,,,,,,
,,,,,,,,,,,,614dff99a7df5de140464ec3,2021-10-19_15h53.52.340,forced_choiceRT,2021.1.2,Win32,59.326056,f,2.0791,11,0,11,0,1,,,,,,,,,,,,,,,
,,,,,,,,,,,,614dff99a7df5de140464ec3,2021-10-19_15h53.52.340,forced_choiceRT,2021.1.2,Win32,59.326056,h,2.0669,12,0,12,0,1,,,,,,,,,,,,,,,
,,,,,,,,,,,,614dff99a7df5de140464ec3,2021-10-19_15h53.52.340,forced_choiceRT,2021.1.2,Win32,59.326056,j,2.0842,13,0,13,0,1,,,,,,,,,,,,,,,
,,,,,,,,,,,,614dff99a7df5de140464ec3,2021-10-19_15h53.52.340,forced_choiceRT,2021.1.2,Win32,59.326056,h,2.1003,14,0,14,0,1,,,,,,,,,,,,,,,
,,,,,,,,,,,,614dff99a7df5de140464ec3,2021-10-19_15h53.52.340,forced_choiceRT,2021.1.2,Win32,59.326056,h,2.0727,15,0,15,0,1,,,,,,,,,,,,,,,
,,,,,,,,,,,,614dff99a7df5de140464ec3,2021-10-19_15h53.52.340,forced_choiceRT,2021.1.2,Win32,59.326056,j,1.962,16,0,16,0,1,,,,,,,,,,,,,,,
,,,,,,,,,,,,614dff99a7df5de140464ec3,2021-10-19_15h53.52.340,forced_choiceRT,2021.1.2,Win32,59.326056,j,2.0728,17,0,17,0,1,,,,,,,,,,,,,,,
,,,,,,,,,,,,614dff99a7df5de140464ec3,2021-10-19_15h53.52.340,forced_choiceRT,2021.1.2,Win32,59.326056,f,2.1123,18,0,18,0,1,,,,,,,,,,,,,,,
,,,,,,,,,,,,614dff99a7df5de140464ec3,2021-10-19_15h53.52.340,forced_choiceRT,2021.1.2,Win32,59.326056,f,2.0333,19,0,19,0,1,,,,,,,,,,,,,,,
,0.54,,,,,,,,,f.PNG,f,614dff99a7df5de140464ec3,2021-10-19_15h53.52.340,forced_choiceRT,2021.1.2,Win32,59.326056,,,,,,,,1,Slow,f,1,2.1569,0,0,0,0,1,,,,,
,0.65,,,,,,,,,h.PNG,h,614dff99a7df5de140464ec3,2021-10-19_15h53.52.340,forced_choiceRT,2021.1.2,Win32,59.326056,,,,,,,,1,Slow,h,1,2.1753,0,1,1,2,1,,,,,
,1.29,,,,,,,,,g.PNG,g,614dff99a7df5de140464ec3,2021-10-19_15h53.52.340,forced_choiceRT,2021.1.2,Win32,59.326056,,,,,,,,1,Ontime,g,1,2.095,0,2,2,1,1,,,,,
,1.2,,,,,,,,,h.PNG,h,614dff99a7df5de140464ec3,2021-10-19_15h53.52.340,forced_choiceRT,2021.1.2,Win32,59.326056,,,,,,,,1,Ontime,h,1,2.0209,0,3,3,2,1,,,,,
,1.87,,,,,,,,,j.PNG,j,614dff99a7df5de140464ec3,2021-10-19_15h53.52.340,forced_choiceRT,2021.1.2,Win32,59.326056,,,,,,,,1,Slow,j,1,2.3372,1,0,4,3,1,,,,,
,0.89,,,,,,,,,h.PNG,h,614dff99a7df5de140464ec3,2021-10-19_15h53.52.340,forced_choiceRT,2021.1.2,Win32,59.326056,,,,,,,,1,Fast,h,1,1.8682,1,1,5,2,1,,,,,
,0,,,,,,,,,h.PNG,h,614dff99a7df5de140464ec3,2021-10-19_15h53.52.340,forced_choiceRT,2021.1.2,Win32,59.326056,,,,,,,,1,Ontime,h,1,1.9986,1,2,6,2,1,,,,,
,1.45,,,,,,,,,f.PNG,f,614dff99a7df5de140464ec3,2021-10-19_15h53.52.340,forced_choiceRT,2021.1.2,Win32,59.326056,,,,,,,,1,Slow,f,1,2.1611,1,3,7,0,1,,,,,
,0.79,,,,,,,,,f.PNG,f,614dff99a7df5de140464ec3,2021-10-19_15h53.52.340,forced_choiceRT,2021.1.2,Win32,59.326056,,,,,,,,1,Ontime,f,1,2.0004,2,0,8,0,1,,,,,
,1.78,,,,,,,,,h.PNG,h,614dff99a7df5de140464ec3,2021-10-19_15h53.52.340,forced_choiceRT,2021.1.2,Win32,59.326056,,,,,,,,1,Slow,f,0,2.1282,2,1,9,2,1,,,,,
,1,,,,,,,,,h.PNG,h,614dff99a7df5de140464ec3,2021-10-19_15h53.52.340,forced_choiceRT,2021.1.2,Win32,59.326056,,,,,,,,1,Ontime,j,0,2.0738,2,2,10,2,1,,,,,
,1.51,,,,,,,,,g.PNG,g,614dff99a7df5de140464ec3,2021-10-19_15h53.52.340,forced_choiceRT,2021.1.2,Win32,59.326056,,,,,,,,1,Slow,g,1,2.1459,2,3,11,1,1,,,,,
,0.23,,,,,,,,,j.PNG,j,614dff99a7df5de140464ec3,2021-10-19_15h53.52.340,forced_choiceRT,2021.1.2,Win32,59.326056,,,,,,,,1,Ontime,j,1,1.9331,3,0,12,3,1,,,,,
,0.24,,,,,,,,,g.PNG,g,614dff99a7df5de140464ec3,2021-10-19_15h53.52.340,forced_choiceRT,2021.1.2,Win32,59.326056,,,,,,,,1,Fast,g,1,1.8335,3,1,13,1,1,,,,,
,1.53,,,,,,,,,j.PNG,j,614dff99a7df5de140464ec3,2021-10-19_15h53.52.340,forced_choiceRT,2021.1.2,Win32,59.326056,,,,,,,,1,Slow,j,1,2.3194,3,2,14,3,1,,,,,
,0.91,,,,,,,,,g.PNG,g,614dff99a7df5de140464ec3,2021-10-19_15h53.52.340,forced_choiceRT,2021.1.2,Win32,59.326056,,,,,,,,1,Ontime,g,1,2.0003,3,3,15,1,1,,,,,
,1.04,,,,,,,,,g.PNG,g,614dff99a7df5de140464ec3,2021-10-19_15h53.52.340,forced_choiceRT,2021.1.2,Win32,59.326056,,,,,,,,1,Ontime,g,1,2.0653,4,0,16,1,1,,,,,
,0.76,,,,,,,,,g.PNG,g,614dff99a7df5de140464ec3,2021-10-19_15h53.52.340,forced_choiceRT,2021.1.2,Win32,59.326056,,,,,,,,1,Ontime,g,1,2.034,4,1,17,1,1,,,,,
,0.04,,,,,,,,,h.PNG,h,614dff99a7df5de140464ec3,2021-10-19_15h53.52.340,forced_choiceRT,2021.1.2,Win32,59.326056,,,,,,,,1,Ontime,h,1,2.0632,4,2,18,2,1,,,,,
,1.36,,,,,,,,,f.PNG,f,614dff99a7df5de140464ec3,2021-10-19_15h53.52.340,forced_choiceRT,2021.1.2,Win32,59.326056,,,,,,,,1,Ontime,f,1,2.0998,4,3,19,0,1,,,,,
,0.59,,,,,,,,,j.PNG,j,614dff99a7df5de140464ec3,2021-10-19_15h53.52.340,forced_choiceRT,2021.1.2,Win32,59.326056,,,,,,,,1,Ontime,j,1,2.03,5,0,20,3,1,,,,,
,0.12,,,,,,,,,f.PNG,f,614dff99a7df5de140464ec3,2021-10-19_15h53.52.340,forced_choiceRT,2021.1.2,Win32,59.326056,,,,,,,,1,Fast,f,1,1.7035,5,1,21,0,1,,,,,
,0.88,,,,,,,,,j.PNG,j,614dff99a7df5de140464ec3,2021-10-19_15h53.52.340,forced_choiceRT,2021.1.2,Win32,59.326056,,,,,,,,1,Slow,j,1,2.1117,5,2,22,3,1,,,,,
,0.17,,,,,,,,,j.PNG,j,614dff99a7df5de140464ec3,2021-10-19_15h53.52.340,forced_choiceRT,2021.1.2,Win32,59.326056,,,,,,,,1,Ontime,j,1,2.0695,5,3,23,3,1,,,,,
,0.06,,,,,,,,,g.PNG,g,614dff99a7df5de140464ec3,2021-10-19_15h53.52.340,forced_choiceRT,2021.1.2,Win32,59.326056,,,,,,,,1,Ontime,f,0,2.099,6,0,24,1,1,,,,,
,1.28,,,,,,,,,f.PNG,f,614dff99a7df5de140464ec3,2021-10-19_15h53.52.340,forced_choiceRT,2021.1.2,Win32,59.326056,,,,,,,,1,Slow,f,1,2.1151,6,1,25,0,1,,,,,
,1.65,,,,,,,,,h.PNG,h,614dff99a7df5de140464ec3,2021-10-19_15h53.52.340,forced_choiceRT,2021.1.2,Win32,59.326056,,,,,,,,1,Slow,h,1,2.2654,6,2,26,2,1,,,,,
,1.4,,,,,,,,,f.PNG,f,614dff99a7df5de140464ec3,2021-10-19_15h53.52.340,forced_choiceRT,2021.1.2,Win32,59.326056,,,,,,,,1,Slow,f,1,2.1285,6,3,27,0,1,,,,,
,1.54,,,,,,,,,j.PNG,j,614dff99a7df5de140464ec3,2021-10-19_15h53.52.340,forced_choiceRT,2021.1.2,Win32,59.326056,,,,,,,,1,Slow,j,1,2.4198,7,0,28,3,1,,,,,
,0.19,,,,,,,,,j.PNG,j,614dff99a7df5de140464ec3,2021-10-19_15h53.52.340,forced_choiceRT,2021.1.2,Win32,59.326056,,,,,,,,1,Ontime,j,1,2.029,7,1,29,3,1,,,,,
,0.69,,,,,,,,,f.PNG,f,614dff99a7df5de140464ec3,2021-10-19_15h53.52.340,forced_choiceRT,2021.1.2,Win32,59.326056,,,,,,,,1,Ontime,f,1,1.9402,7,2,30,0,1,,,,,
,1.09,,,,,,,,,f.PNG,f,614dff99a7df5de140464ec3,2021-10-19_15h53.52.340,forced_choiceRT,2021.1.2,Win32,59.326056,,,,,,,,1,Ontime,f,1,1.9667,7,3,31,0,1,,,,,
,0.77,,,,,,,,,j.PNG,j,614dff99a7df5de140464ec3,2021-10-19_15h53.52.340,forced_choiceRT,2021.1.2,Win32,59.326056,,,,,,,,1,Ontime,j,1,1.9524,8,0,32,3,1,,,,,
,0.36,,,,,,,,,g.PNG,g,614dff99a7df5de140464ec3,2021-10-19_15h53.52.340,forced_choiceRT,2021.1.2,Win32,59.326056,,,,,,,,1,Fast,g,1,1.8668,8,1,33,1,1,,,,,
,1.22,,,,,,,,,g.PNG,g,614dff99a7df5de140464ec3,2021-10-19_15h53.52.340,forced_choiceRT,2021.1.2,Win32,59.326056,,,,,,,,1,Slow,f,0,2.154,8,2,34,1,1,,,,,
,0.14,,,,,,,,,g.PNG,g,614dff99a7df5de140464ec3,2021-10-19_15h53.52.340,forced_choiceRT,2021.1.2,Win32,59.326056,,,,,,,,1,Ontime,g,1,2.0996,8,3,35,1,1,,,,,
,1.67,,,,,,,,,h.PNG,h,614dff99a7df5de140464ec3,2021-10-19_15h53.52.340,forced_choiceRT,2021.1.2,Win32,59.326056,,,,,,,,1,Slow,h,1,2.2289,9,0,36,2,1,,,,,
,0.92,,,,,,,,,h.PNG,h,614dff99a7df5de140464ec3,2021-10-19_15h53.52.340,forced_choiceRT,2021.1.2,Win32,59.326056,,,,,,,,1,Slow,h,1,2.1659,9,1,37,2,1,,,,,
,0.44,,,,,,,,,f.PNG,f,614dff99a7df5de140464ec3,2021-10-19_15h53.52.340,forced_choiceRT,2021.1.2,Win32,59.326056,,,,,,,,1,Ontime,f,1,2.0792,9,2,38,0,1,,,,,
,0.14,,,,,,,,,j.PNG,j,614dff99a7df5de140464ec3,2021-10-19_15h53.52.340,forced_choiceRT,2021.1.2,Win32,59.326056,,,,,,,,1,Ontime,j,1,2.0052,9,3,39,3,1,,,,,
,,,,,,,,,,,,614dff99a7df5de140464ec3,2021-10-19_15h53.52.340,forced_choiceRT,2021.1.2,Win32,59.326056,,,,,,,,,,,,,,,,,,0,0,0,0,1
,1.46,,,,,,,,,j.PNG,j,614dff99a7df5de140464ec3,2021-10-19_15h53.52.340,forced_choiceRT,2021.1.2,Win32,59.326056,,,,,,,,2,Slow,j,1,2.1129,0,0,0,3,1,,,,,
,0.77,,,,,,,,,h.PNG,h,614dff99a7df5de140464ec3,2021-10-19_15h53.52.340,forced_choiceRT,2021.1.2,Win32,59.326056,,,,,,,,2,Slow,h,1,2.1397,0,1,1,2,1,,,,,
,1.59,,,,,,,,,h.PNG,h,614dff99a7df5de140464ec3,2021-10-19_15h53.52.340,forced_choiceRT,2021.1.2,Win32,59.326056,,,,,,,,2,Slow,h,1,2.1953,0,2,2,2,1,,,,,
,1.83,,,,,,,,,h.PNG,h,614dff99a7df5de140464ec3,2021-10-19_15h53.52.340,forced_choiceRT,2021.1.2,Win32,59.326056,,,,,,,,2,Fast,h,1,1.8879,0,3,3,2,1,,,,,
,1.83,,,,,,,,,h.PNG,h,614dff99a7df5de140464ec3,2021-10-19_15h53.52.340,forced_choiceRT,2021.1.2,Win32,59.326056,,,,,,,,2,Slow,j,0,2.2322,1,0,4,2,1,,,,,
,1.26,,,,,,,,,g.PNG,g,614dff99a7df5de140464ec3,2021-10-19_15h53.52.340,forced_choiceRT,2021.1.2,Win32,59.326056,,,,,,,,2,Ontime,f,0,1.9995,1,1,5,1,1,,,,,
,1.91,,,,,,,,,g.PNG,g,614dff99a7df5de140464ec3,2021-10-19_15h53.52.340,forced_choiceRT,2021.1.2,Win32,59.326056,,,,,,,,2,Slow,h,0,2.4502,1,2,6,1,1,,,,,
,1.04,,,,,,,,,g.PNG,g,614dff99a7df5de140464ec3,2021-10-19_15h53.52.340,forced_choiceRT,2021.1.2,Win32,59.326056,,,,,,,,2,Ontime,g,1,1.9615,1,3,7,1,1,,,,,
,0.88,,,,,,,,,f.PNG,f,614dff99a7df5de140464ec3,2021-10-19_15h53.52.340,forced_choiceRT,2021.1.2,Win32,59.326056,,,,,,,,2,Ontime,f,1,1.9833,2,0,8,0,1,,,,,
,1.57,,,,,,,,,h.PNG,h,614dff99a7df5de140464ec3,2021-10-19_15h53.52.340,forced_choiceRT,2021.1.2,Win32,59.326056,,,,,,,,2,Ontime,g,0,2.0121,2,1,9,2,1,,,,,
,1.3,,,,,,,,,j.PNG,j,614dff99a7df5de140464ec3,2021-10-19_15h53.52.340,forced_choiceRT,2021.1.2,Win32,59.326056,,,,,,,,2,Slow,j,1,2.1038,2,2,10,3,1,,,,,
,0.42,,,,,,,,,h.PNG,h,614dff99a7df5de140464ec3,2021-10-19_15h53.52.340,forced_choiceRT,2021.1.2,Win32,59.326056,,,,,,,,2,Slow,h,1,2.1116,2,3,11,2,1,,,,,
,1.4,,,,,,,,,h.PNG,h,614dff99a7df5de140464ec3,2021-10-19_15h53.52.340,forced_choiceRT,2021.1.2,Win32,59.326056,,,,,,,,2,Ontime,h,1,2.0169,3,0,12,2,1,,,,,
,0.62,,,,,,,,,j.PNG,j,614dff99a7df5de140464ec3,2021-10-19_15h53.52.340,forced_choiceRT,2021.1.2,Win32,59.326056,,,,,,,,2,Fast,j,1,1.7997,3,1,13,3,1,,,,,
,0.77,,,,,,,,,f.PNG,f,614dff99a7df5de140464ec3,2021-10-19_15h53.52.340,forced_choiceRT,2021.1.2,Win32,59.326056,,,,,,,,2,Ontime,g,0,2.0373,3,2,14,0,1,,,,,
,1.72,,,,,,,,,f.PNG,f,614dff99a7df5de140464ec3,2021-10-19_15h53.52.340,forced_choiceRT,2021.1.2,Win32,59.326056,,,,,,,,2,Slow,f,1,2.2323,3,3,15,0,1,,,,,
,1.81,,,,,,,,,j.PNG,j,614dff99a7df5de140464ec3,2021-10-19_15h53.52.340,forced_choiceRT,2021.1.2,Win32,59.326056,,,,,,,,2,Slow,f,0,2.1946,4,0,16,3,1,,,,,
,0.75,,,,,,,,,j.PNG,j,614dff99a7df5de140464ec3,2021-10-19_15h53.52.340,forced_choiceRT,2021.1.2,Win32,59.326056,,,,,,,,2,Ontime,j,1,1.9665,4,1,17,3,1,,,,,
,1.28,,,,,,,,,j.PNG,j,614dff99a7df5de140464ec3,2021-10-19_15h53.52.340,forced_choiceRT,2021.1.2,Win32,59.326056,,,,,,,,2,Ontime,j,1,2.0953,4,2,18,3,1,,,,,
,1.83,,,,,,,,,f.PNG,f,614dff99a7df5de140464ec3,2021-10-19_15h53.52.340,forced_choiceRT,2021.1.2,Win32,59.326056,,,,,,,,2,Slow,h,0,5.497,4,3,19,0,1,,,,,
,0.42,,,,,,,,,f.PNG,f,614dff99a7df5de140464ec3,2021-10-19_15h53.52.340,forced_choiceRT,2021.1.2,Win32,59.326056,,,,,,,,2,Ontime,f,1,2.0622,5,0,20,0,1,,,,,
,1.98,,,,,,,,,h.PNG,h,614dff99a7df5de140464ec3,2021-10-19_15h53.52.340,forced_choiceRT,2021.1.2,Win32,59.326056,,,,,,,,2,Slow,j,0,2.3111,5,1,21,2,1,,,,,
,0.84,,,,,,,,,j.PNG,j,614dff99a7df5de140464ec3,2021-10-19_15h53.52.340,forced_choiceRT,2021.1.2,Win32,59.326056,,,,,,,,2,Ontime,j,1,1.9913,5,2,22,3,1,,,,,
,1.63,,,,,,,,,g.PNG,g,614dff99a7df5de140464ec3,2021-10-19_15h53.52.340,forced_choiceRT,2021.1.2,Win32,59.326056,,,,,,,,2,Slow,j,0,2.1998,5,3,23,1,1,,,,,
,0.94,,,,,,,,,g.PNG,g,614dff99a7df5de140464ec3,2021-10-19_15h53.52.340,forced_choiceRT,2021.1.2,Win32,59.326056,,,,,,,,2,Ontime,g,1,1.9001,6,0,24,1,1,,,,,
,1.85,,,,,,,,,g.PNG,g,614dff99a7df5de140464ec3,2021-10-19_15h53.52.340,forced_choiceRT,2021.1.2,Win32,59.326056,,,,,,,,2,Slow,g,1,2.341,6,1,25,1,1,,,,,
,1.92,,,,,,,,,j.PNG,j,614dff99a7df5de140464ec3,2021-10-19_15h53.52.340,forced_choiceRT,2021.1.2,Win32,59.326056,,,,,,,,2,Ontime,h,0,2.0446,6,2,26,3,1,,,,,
,1.39,,,,,,,,,g.PNG,g,614dff99a7df5de140464ec3,2021-10-19_15h53.52.340,forced_choiceRT,2021.1.2,Win32,59.326056,,,,,,,,2,Ontime,h,0,2.0664,6,3,27,1,1,,,,,
,1.36,,,,,,,,,f.PNG,f,614dff99a7df5de140464ec3,2021-10-19_15h53.52.340,forced_choiceRT,2021.1.2,Win32,59.326056,,,,,,,,2,Slow,f,1,2.2283,7,0,28,0,1,,,,,
,1.31,,,,,,,,,f.PNG,f,614dff99a7df5de140464ec3,2021-10-19_15h53.52.340,forced_choiceRT,2021.1.2,Win32,59.326056,,,,,,,,2,Ontime,f,1,2.0219,7,1,29,0,1,,,,,
,1.25,,,,,,,,,j.PNG,j,614dff99a7df5de140464ec3,2021-10-19_15h53.52.340,forced_choiceRT,2021.1.2,Win32,59.326056,,,,,,,,2,Ontime,j,1,2.0995,7,2,30,3,1,,,,,
,0.42,,,,,,,,,g.PNG,g,614dff99a7df5de140464ec3,2021-10-19_15h53.52.340,forced_choiceRT,2021.1.2,Win32,59.326056,,,,,,,,2,Ontime,g,1,1.9217,7,3,31,1,1,,,,,
,1.17,,,,,,,,,f.PNG,f,614dff99a7df5de140464ec3,2021-10-19_15h53.52.340,forced_choiceRT,2021.1.2,Win32,59.326056,,,,,,,,2,Ontime,f,1,1.9998,8,0,32,0,1,,,,,
,0.07,,,,,,,,,g.PNG,g,614dff99a7df5de140464ec3,2021-10-19_15h53.52.340,forced_choiceRT,2021.1.2,Win32,59.326056,,,,,,,,2,Ontime,g,1,1.9653,8,1,33,1,1,,,,,
,1.29,,,,,,,,,h.PNG,h,614dff99a7df5de140464ec3,2021-10-19_15h53.52.340,forced_choiceRT,2021.1.2,Win32,59.326056,,,,,,,,2,Ontime,h,1,2.099,8,2,34,2,1,,,,,
,0.31,,,,,,,,,f.PNG,f,614dff99a7df5de140464ec3,2021-10-19_15h53.52.340,forced_choiceRT,2021.1.2,Win32,59.326056,,,,,,,,2,Ontime,f,1,2.0622,8,3,35,0,1,,,,,
,1.91,,,,,,,,,j.PNG,j,614dff99a7df5de140464ec3,2021-10-19_15h53.52.340,forced_choiceRT,2021.1.2,Win32,59.326056,,,,,,,,2,Slow,g,0,2.2988,9,0,36,3,1,,,,,
,0.18,,,,,,,,,g.PNG,g,614dff99a7df5de140464ec3,2021-10-19_15h53.52.340,forced_choiceRT,2021.1.2,Win32,59.326056,,,,,,,,2,Slow,g,1,2.1789,9,1,37,1,1,,,,,
,1.47,,,,,,,,,f.PNG,f,614dff99a7df5de140464ec3,2021-10-19_15h53.52.340,forced_choiceRT,2021.1.2,Win32,59.326056,,,,,,,,2,Ontime,f,1,2.0192,9,2,38,0,1,,,,,
,0.47,,,,,,,,,h.PNG,h,614dff99a7df5de140464ec3,2021-10-19_15h53.52.340,forced_choiceRT,2021.1.2,Win32,59.326056,,,,,,,,2,Slow,h,1,2.1442,9,3,39,2,1,,,,,
,,,,,,,,,,,,614dff99a7df5de140464ec3,2021-10-19_15h53.52.340,forced_choiceRT,2021.1.2,Win32,59.326056,,,,,,,,,,,,,,,,,,1,0,1,0,1
,0.31,,,,,,,,,h.PNG,h,614dff99a7df5de140464ec3,2021-10-19_15h53.52.340,forced_choiceRT,2021.1.2,Win32,59.326056,,,,,,,,3,Slow,h,1,2.1132,0,0,0,2,1,,,,,
,0.79,,,,,,,,,f.PNG,f,614dff99a7df5de140464ec3,2021-10-19_15h53.52.340,forced_choiceRT,2021.1.2,Win32,59.326056,,,,,,,,3,Ontime,f,1,1.9697,0,1,1,0,1,,,,,
,1.79,,,,,,,,,h.PNG,h,614dff99a7df5de140464ec3,2021-10-19_15h53.52.340,forced_choiceRT,2021.1.2,Win32,59.326056,,,,,,,,3,Slow,h,1,2.1938,0,2,2,2,1,,,,,
,0.69,,,,,,,,,j.PNG,j,614dff99a7df5de140464ec3,2021-10-19_15h53.52.340,forced_choiceRT,2021.1.2,Win32,59.326056,,,,,,,,3,Fast,j,1,1.8183,0,3,3,3,1,,,,,
,1.74,,,,,,,,,j.PNG,j,614dff99a7df5de140464ec3,2021-10-19_15h53.52.340,forced_choiceRT,2021.1.2,Win32,59.326056,,,,,,,,3,Ontime,h,0,2.0995,1,0,4,3,1,,,,,
,1.43,,,,,,,,,g.PNG,g,614dff99a7df5de140464ec3,2021-10-19_15h53.52.340,forced_choiceRT,2021.1.2,Win32,59.326056,,,,,,,,3,Slow,f,0,2.1031,1,1,5,1,1,,,,,
,1.04,,,,,,,,,j.PNG,j,614dff99a7df5de140464ec3,2021-10-19_15h53.52.340,forced_choiceRT,2021.1.2,Win32,59.326056,,,,,,,,3,Ontime,j,1,2.0994,1,2,6,3,1,,,,,
,0.64,,,,,,,,,h.PNG,h,614dff99a7df5de140464ec3,2021-10-19_15h53.52.340,forced_choiceRT,2021.1.2,Win32,59.326056,,,,,,,,3,Ontime,h,1,2.0289,1,3,7,2,1,,,,,
,0.81,,,,,,,,,g.PNG,g,614dff99a7df5de140464ec3,2021-10-19_15h53.52.340,forced_choiceRT,2021.1.2,Win32,59.326056,,,,,,,,3,Ontime,g,1,2.0331,2,0,8,1,1,,,,,
,1.04,,,,,,,,,h.PNG,h,614dff99a7df5de140464ec3,2021-10-19_15h53.52.340,forced_choiceRT,2021.1.2,Win32,59.326056,,,,,,,,3,Slow,h,1,2.1283,2,1,9,2,1,,,,,
,0.12,,,,,,,,,j.PNG,j,614dff99a7df5de140464ec3,2021-10-19_15h53.52.340,forced_choiceRT,2021.1.2,Win32,59.326056,,,,,,,,3,Ontime,j,1,2.0082,2,2,10,3,1,,,,,
,1.04,,,,,,,,,j.PNG,j,614dff99a7df5de140464ec3,2021-10-19_15h53.52.340,forced_choiceRT,2021.1.2,Win32,59.326056,,,,,,,,3,Ontime,j,1,2.0288,2,3,11,3,1,,,,,
,0.02,,,,,,,,,g.PNG,g,614dff99a7df5de140464ec3,2021-10-19_15h53.52.340,forced_choiceRT,2021.1.2,Win32,59.326056,,,,,,,,3,Ontime,g,1,1.9334,3,0,12,1,1,,,,,
,1.29,,,,,,,,,f.PNG,f,614dff99a7df5de140464ec3,2021-10-19_15h53.52.340,forced_choiceRT,2021.1.2,Win32,59.326056,,,,,,,,3,Ontime,f,1,1.9997,3,1,13,0,1,,,,,
,0.06,,,,,,,,,g.PNG,g,614dff99a7df5de140464ec3,2021-10-19_15h53.52.340,forced_choiceRT,2021.1.2,Win32,59.326056,,,,,,,,3,Ontime,g,1,1.9393,3,2,14,1,1,,,,,
,1.19,,,,,,,,,f.PNG,f,614dff99a7df5de140464ec3,2021-10-19_15h53.52.340,forced_choiceRT,2021.1.2,Win32,59.326056,,,,,,,,3,Ontime,f,1,1.9998,3,3,15,0,1,,,,,
,1.32,,,,,,,,,g.PNG,g,614dff99a7df5de140464ec3,2021-10-19_15h53.52.340,forced_choiceRT,2021.1.2,Win32,59.326056,,,,,,,,3,Ontime,f,0,1.9798,4,0,16,1,1,,,,,
,0.54,,,,,,,,,j.PNG,j,614dff99a7df5de140464ec3,2021-10-19_15h53.52.340,forced_choiceRT,2021.1.2,Win32,59.326056,,,,,,,,3,Slow,j,1,2.1334,4,1,17,3,1,,,,,
,0.56,,,,,,,,,g.PNG,g,614dff99a7df5de140464ec3,2021-10-19_15h53.52.340,forced_choiceRT,2021.1.2,Win32,59.326056,,,,,,,,3,Ontime,g,1,2.0291,4,2,18,1,1,,,,,
,1.38,,,,,,,,,f.PNG,f,614dff99a7df5de140464ec3,2021-10-19_15h53.52.340,forced_choiceRT,2021.1.2,Win32,59.326056,,,,,,,,3,Ontime,f,1,2.0986,4,3,19,0,1,,,,,
,1.58,,,,,,,,,f.PNG,f,614dff99a7df5de140464ec3,2021-10-19_15h53.52.340,forced_choiceRT,2021.1.2,Win32,59.326056,,,,,,,,3,Ontime,h,0,2.0446,5,0,20,0,1,,,,,
,0.51,,,,,,,,,h.PNG,h,614dff99a7df5de140464ec3,2021-10-19_15h53.52.340,forced_choiceRT,2021.1.2,Win32,59.326056,,,,,,,,3,Fast,h,1,1.8534,5,1,21,2,1,,,,,
,0.12,,,,,,,,,f.PNG,f,614dff99a7df5de140464ec3,2021-10-19_15h53.52.340,forced_choiceRT,2021.1.2,Win32,59.326056,,,,,,,,3,Fast,f,1,1.8292,5,2,22,0,1,,,,,
,1.39,,,,,,,,,h.PNG,h,614dff99a7df5de140464ec3,2021-10-19_15h53.52.340,forced_choiceRT,2021.1.2,Win32,59.326056,,,,,,,,3,Ontime,h,1,2.0589,5,3,23,2,1,,,,,
,1.53,,,,,,,,,g.PNG,g,614dff99a7df5de140464ec3,2021-10-19_15h53.52.340,forced_choiceRT,2021.1.2,Win32,59.326056,,,,,,,,3,Slow,h,0,2.2657,6,0,24,1,1,,,,,
,0.38,,,,,,,,,g.PNG,g,614dff99a7df5de140464ec3,2021-10-19_15h53.52.340,forced_choiceRT,2021.1.2,Win32,59.326056,,,,,,,,3,Ontime,g,1,2.0207,6,1,25,1,1,,,,,
,0.51,,,,,,,,,j.PNG,j,614dff99a7df5de140464ec3,2021-10-19_15h53.52.340,forced_choiceRT,2021.1.2,Win32,59.326056,,,,,,,,3,Ontime,j,1,2.0994,6,2,26,3,1,,,,,
,1.18,,,,,,,,,h.PNG,h,614dff99a7df5de140464ec3,2021-10-19_15h53.52.340,forced_choiceRT,2021.1.2,Win32,59.326056,,,,,,,,3,Slow,h,1,2.1162,6,3,27,2,1,,,,,
,1.54,,,,,,,,,j.PNG,j,614dff99a7df5de140464ec3,2021-10-19_15h53.52.340,forced_choiceRT,2021.1.2,Win32,59.326056,,,,,,,,3,Slow,h,0,2.1659,7,0,28,3,1,,,,,
,1.92,,,,,,,,,h.PNG,h,614dff99a7df5de140464ec3,2021-10-19_15h53.52.340,forced_choiceRT,2021.1.2,Win32,59.326056,,,,,,,,3,Slow,f,0,2.2616,7,1,29,2,1,,,,,
,1.14,,,,,,,,,f.PNG,f,614dff99a7df5de140464ec3,2021-10-19_15h53.52.340,forced_choiceRT,2021.1.2,Win32,59.326056,,,,,,,,3,Ontime,f,1,2.0219,7,2,30,0,1,,,,,
,1.51,,,,,,,,,g.PNG,g,614dff99a7df5de140464ec3,2021-10-19_15h53.52.340,forced_choiceRT,2021.1.2,Win32,59.326056,,,,,,,,3,Ontime,g,1,2.0791,7,3,31,1,1,,,,,
,1.2,,,,,,,,,h.PNG,h,614dff99a7df5de140464ec3,2021-10-19_15h53.52.340,forced_choiceRT,2021.1.2,Win32,59.326056,,,,,,,,3,Fast,h,1,1.7038,8,0,32,2,1,,,,,
,1.25,,,,,,,,,g.PNG,g,614dff99a7df5de140464ec3,2021-10-19_15h53.52.340,forced_choiceRT,2021.1.2,Win32,59.326056,,,,,,,,3,Slow,g,1,2.1668,8,1,33,1,1,,,,,
,0.82,,,,,,,,,f.PNG,f,614dff99a7df5de140464ec3,2021-10-19_15h53.52.340,forced_choiceRT,2021.1.2,Win32,59.326056,,,,,,,,3,Ontime,f,1,1.9038,8,2,34,0,1,,,,,
,0.21,,,,,,,,,f.PNG,f,614dff99a7df5de140464ec3,2021-10-19_15h53.52.340,forced_choiceRT,2021.1.2,Win32,59.326056,,,,,,,,3,Ontime,f,1,2.0994,8,3,35,0,1,,,,,
,1.22,,,,,,,,,h.PNG,h,614dff99a7df5de140464ec3,2021-10-19_15h53.52.340,forced_choiceRT,2021.1.2,Win32,59.326056,,,,,,,,3,Ontime,h,1,1.9657,9,0,36,2,1,,,,,
,0.42,,,,,,,,,j.PNG,j,614dff99a7df5de140464ec3,2021-10-19_15h53.52.340,forced_choiceRT,2021.1.2,Win32,59.326056,,,,,,,,3,Ontime,j,1,2.0996,9,1,37,3,1,,,,,
,1.49,,,,,,,,,f.PNG,f,614dff99a7df5de140464ec3,2021-10-19_15h53.52.340,forced_choiceRT,2021.1.2,Win32,59.326056,,,,,,,,3,Slow,f,1,2.1622,9,2,38,0,1,,,,,
,1.58,,,,,,,,,j.PNG,j,614dff99a7df5de140464ec3,2021-10-19_15h53.52.340,forced_choiceRT,2021.1.2,Win32,59.326056,,,,,,,,3,Slow,h,0,2.133,9,3,39,3,1,,,,,
,,,,,,,,,,,,614dff99a7df5de140464ec3,2021-10-19_15h53.52.340,forced_choiceRT,2021.1.2,Win32,59.326056,,,,,,,,,,,,,,,,,,2,0,2,0,1
,1.58,,,,,,,,,f.PNG,f,614dff99a7df5de140464ec3,2021-10-19_15h53.52.340,forced_choiceRT,2021.1.2,Win32,59.326056,,,,,,,,4,Slow,f,1,2.1991,0,0,0,0,1,,,,,
,1.61,,,,,,,,,f.PNG,f,614dff99a7df5de140464ec3,2021-10-19_15h53.52.340,forced_choiceRT,2021.1.2,Win32,59.326056,,,,,,,,4,Slow,f,1,2.278,0,1,1,0,1,,,,,
,1.6,,,,,,,,,g.PNG,g,614dff99a7df5de140464ec3,2021-10-19_15h53.52.340,forced_choiceRT,2021.1.2,Win32,59.326056,,,,,,,,4,Slow,f,0,2.1093,0,2,2,1,1,,,,,
,0.06,,,,,,,,,h.PNG,h,614dff99a7df5de140464ec3,2021-10-19_15h53.52.340,forced_choiceRT,2021.1.2,Win32,59.326056,,,,,,,,4,Ontime,h,1,1.9995,0,3,3,2,1,,,,,
,1.71,,,,,,,,,h.PNG,h,614dff99a7df5de140464ec3,2021-10-19_15h53.52.340,forced_choiceRT,2021.1.2,Win32,59.326056,,,,,,,,4,Ontime,j,0,2.0013,1,0,4,2,1,,,,,
,0.91,,,,,,,,,j.PNG,j,614dff99a7df5de140464ec3,2021-10-19_15h53.52.340,forced_choiceRT,2021.1.2,Win32,59.326056,,,,,,,,4,Ontime,j,1,1.9665,1,1,5,3,1,,,,,
,0.17,,,,,,,,,g.PNG,g,614dff99a7df5de140464ec3,2021-10-19_15h53.52.340,forced_choiceRT,2021.1.2,Win32,59.326056,,,,,,,,4,Slow,g,1,2.1131,1,2,6,1,1,,,,,
,1.52,,,,,,,,,h.PNG,h,614dff99a7df5de140464ec3,2021-10-19_15h53.52.340,forced_choiceRT,2021.1.2,Win32,59.326056,,,,,,,,4,Slow,h,1,2.1995,1,3,7,2,1,,,,,
,1.46,,,,,,,,,j.PNG,j,614dff99a7df5de140464ec3,2021-10-19_15h53.52.340,forced_choiceRT,2021.1.2,Win32,59.326056,,,,,,,,4,Slow,j,1,2.1293,2,0,8,3,1,,,,,
,0.49,,,,,,,,,f.PNG,f,614dff99a7df5de140464ec3,2021-10-19_15h53.52.340,forced_choiceRT,2021.1.2,Win32,59.326056,,,,,,,,4,Ontime,f,1,2.0332,2,1,9,0,1,,,,,
,1.27,,,,,,,,,h.PNG,h,614dff99a7df5de140464ec3,2021-10-19_15h53.52.340,forced_choiceRT,2021.1.2,Win32,59.326056,,,,,,,,4,Slow,h,1,2.112,2,2,10,2,1,,,,,
,0.38,,,,,,,,,h.PNG,h,614dff99a7df5de140464ec3,2021-10-19_15h53.52.340,forced_choiceRT,2021.1.2,Win32,59.326056,,,,,,,,4,Ontime,h,1,2.0398,2,3,11,2,1,,,,,
,1.78,,,,,,,,,g.PNG,g,614dff99a7df5de140464ec3,2021-10-19_15h53.52.340,forced_choiceRT,2021.1.2,Win32,59.326056,,,,,,,,4,Slow,j,0,2.2115,3,0,12,1,1,,,,,
,0.1,,,,,,,,,j.PNG,j,614dff99a7df5de140464ec3,2021-10-19_15h53.52.340,forced_choiceRT,2021.1.2,Win32,59.326056,,,,,,,,4,Ontime,j,1,1.9542,3,1,13,3,1,,,,,
,1.97,,,,,,,,,h.PNG,h,614dff99a7df5de140464ec3,2021-10-19_15h53.52.340,forced_choiceRT,2021.1.2,Win32,59.326056,,,,,,,,4,Slow,f,0,2.1993,3,2,14,2,1,,,,,
,0.03,,,,,,,,,f.PNG,f,614dff99a7df5de140464ec3,2021-10-19_15h53.52.340,forced_choiceRT,2021.1.2,Win32,59.326056,,,,,,,,4,Ontime,f,1,1.9846,3,3,15,0,1,,,,,
,0.69,,,,,,,,,j.PNG,j,614dff99a7df5de140464ec3,2021-10-19_15h53.52.340,forced_choiceRT,2021.1.2,Win32,59.326056,,,,,,,,4,Ontime,j,1,2.0994,4,0,16,3,1,,,,,
,1.74,,,,,,,,,f.PNG,f,614dff99a7df5de140464ec3,2021-10-19_15h53.52.340,forced_choiceRT,2021.1.2,Win32,59.326056,,,,,,,,4,Slow,h,0,2.1796,4,1,17,0,1,,,,,
,1.01,,,,,,,,,j.PNG,j,614dff99a7df5de140464ec3,2021-10-19_15h53.52.340,forced_choiceRT,2021.1.2,Win32,59.326056,,,,,,,,4,Slow,j,1,2.1332,4,2,18,3,1,,,,,
,1.9,,,,,,,,,g.PNG,g,614dff99a7df5de140464ec3,2021-10-19_15h53.52.340,forced_choiceRT,2021.1.2,Win32,59.326056,,,,,,,,4,Slow,j,0,2.1027,4,3,19,1,1,,,,,
,1.33,,,,,,,,,j.PNG,j,614dff99a7df5de140464ec3,2021-10-19_15h53.52.340,forced_choiceRT,2021.1.2,Win32,59.326056,,,,,,,,4,Ontime,j,1,1.9756,5,0,20,3,1,,,,,
,0.21,,,,,,,,,j.PNG,j,614dff99a7df5de140464ec3,2021-10-19_15h53.52.340,forced_choiceRT,2021.1.2,Win32,59.326056,,,,,,,,4,Ontime,j,1,1.9328,5,1,21,3,1,,,,,
,0.48,,,,,,,,,f.PNG,f,614dff99a7df5de140464ec3,2021-10-19_15h53.52.340,forced_choiceRT,2021.1.2,Win32,59.326056,,,,,,,,4,Ontime,f,1,1.9002,5,2,22,0,1,,,,,
,0.39,,,,,,,,,g.PNG,g,614dff99a7df5de140464ec3,2021-10-19_15h53.52.340,forced_choiceRT,2021.1.2,Win32,59.326056,,,,,,,,4,Ontime,g,1,2.066,5,3,23,1,1,,,,,
,0.97,,,,,,,,,g.PNG,g,614dff99a7df5de140464ec3,2021-10-19_15h53.52.340,forced_choiceRT,2021.1.2,Win32,59.326056,,,,,,,,4,Ontime,g,1,2.0377,6,0,24,1,1,,,,,
,0.49,,,,,,,,,j.PNG,j,614dff99a7df5de140464ec3,2021-10-19_15h53.52.340,forced_choiceRT,2021.1.2,Win32,59.326056,,,,,,,,4,Ontime,j,1,2.0333,6,1,25,3,1,,,,,
,0.53,,,,,,,,,j.PNG,j,614dff99a7df5de140464ec3,2021-10-19_15h53.52.340,forced_choiceRT,2021.1.2,Win32,59.326056,,,,,,,,4,Ontime,j,1,2.0293,6,2,26,3,1,,,,,
,0.03,,,,,,,,,g.PNG,g,614dff99a7df5de140464ec3,2021-10-19_15h53.52.340,forced_choiceRT,2021.1.2,Win32,59.326056,,,,,,,,4,Ontime,g,1,2.0999,6,3,27,1,1,,,,,
,1.27,,,,,,,,,f.PNG,f,614dff99a7df5de140464ec3,2021-10-19_15h53.52.340,forced_choiceRT,2021.1.2,Win32,59.326056,,,,,,,,4,Ontime,f,1,2.0294,7,0,28,0,1,,,,,
,1.46,,,,,,,,,h.PNG,h,614dff99a7df5de140464ec3,2021-10-19_15h53.52.340,forced_choiceRT,2021.1.2,Win32,59.326056,,,,,,,,4,Slow,g,0,2.1904,7,1,29,2,1,,,,,
,1,,,,,,,,,g.PNG,g,614dff99a7df5de140464ec3,2021-10-19_15h53.52.340,forced_choiceRT,2021.1.2,Win32,59.326056,,,,,,,,4,Ontime,g,1,2.0287,7,2,30,1,1,,,,,
,1.92,,,,,,,,,f.PNG,f,614dff99a7df5de140464ec3,2021-10-19_15h53.52.340,forced_choiceRT,2021.1.2,Win32,59.326056,,,,,,,,4,Slow,h,0,2.1649,7,3,31,0,1,,,,,
,0.46,,,,,,,,,h.PNG,h,614dff99a7df5de140464ec3,2021-10-19_15h53.52.340,forced_choiceRT,2021.1.2,Win32,59.326056,,,,,,,,4,Ontime,h,1,2.0334,8,0,32,2,1,,,,,
,1.63,,,,,,,,,h.PNG,h,614dff99a7df5de140464ec3,2021-10-19_15h53.52.340,forced_choiceRT,2021.1.2,Win32,59.326056,,,,,,,,4,Slow,h,1,2.2691,8,1,33,2,1,,,,,
,0.51,,,,,,,,,j.PNG,j,614dff99a7df5de140464ec3,2021-10-19_15h53.52.340,forced_choiceRT,2021.1.2,Win32,59.326056,,,,,,,,4,Ontime,j,1,2.0674,8,2,34,3,1,,,,,
,1.94,,,,,,,,,g.PNG,g,614dff99a7df5de140464ec3,2021-10-19_15h53.52.340,forced_choiceRT,2021.1.2,Win32,59.326056,,,,,,,,4,Slow,j,0,2.1617,8,3,35,1,1,,,,,
,0.32,,,,,,,,,f.PNG,f,614dff99a7df5de140464ec3,2021-10-19_15h53.52.340,forced_choiceRT,2021.1.2,Win32,59.326056,,,,,,,,4,Slow,f,1,2.1003,9,0,36,0,1,,,,,
,0.27,,,,,,,,,f.PNG,f,614dff99a7df5de140464ec3,2021-10-19_15h53.52.340,forced_choiceRT,2021.1.2,Win32,59.326056,,,,,,,,4,Ontime,f,1,2.0798,9,1,37,0,1,,,,,
,1.16,,,,,,,,,h.PNG,h,614dff99a7df5de140464ec3,2021-10-19_15h53.52.340,forced_choiceRT,2021.1.2,Win32,59.326056,,,,,,,,4,Ontime,h,1,2.0355,9,2,38,2,1,,,,,
,0.58,,,,,,,,,g.PNG,g,614dff99a7df5de140464ec3,2021-10-19_15h53.52.340,forced_choiceRT,2021.1.2,Win32,59.326056,,,,,,,,4,Ontime,g,1,1.9284,9,3,39,1,1,,,,,
,,,,,,,,,,,,614dff99a7df5de140464ec3,2021-10-19_15h53.52.340,forced_choiceRT,2021.1.2,Win32,59.326056,,,,,,,,,,,,,,,,,,3,0,3,0,1
,0.94,,,,,,,,,j.PNG,j,614dff99a7df5de140464ec3,2021-10-19_15h53.52.340,forced_choiceRT,2021.1.2,Win32,59.326056,,,,,,,,5,Ontime,j,1,2.0795,0,0,0,3,1,,,,,
,0.81,,,,,,,,,f.PNG,f,614dff99a7df5de140464ec3,2021-10-19_15h53.52.340,forced_choiceRT,2021.1.2,Win32,59.326056,,,,,,,,5,Fast,f,1,1.6465,0,1,1,0,1,,,,,
,1.27,,,,,,,,,j.PNG,j,614dff99a7df5de140464ec3,2021-10-19_15h53.52.340,forced_choiceRT,2021.1.2,Win32,59.326056,,,,,,,,5,Ontime,j,1,2.0675,0,2,2,3,1,,,,,
,0.11,,,,,,,,,g.PNG,g,614dff99a7df5de140464ec3,2021-10-19_15h53.52.340,forced_choiceRT,2021.1.2,Win32,59.326056,,,,,,,,5,Fast,g,1,1.654,0,3,3,1,1,,,,,
,0.23,,,,,,,,,h.PNG,h,614dff99a7df5de140464ec3,2021-10-19_15h53.52.340,forced_choiceRT,2021.1.2,Win32,59.326056,,,,,,,,5,Slow,h,1,2.1334,1,0,4,2,1,,,,,
,1.63,,,,,,,,,h.PNG,h,614dff99a7df5de140464ec3,2021-10-19_15h53.52.340,forced_choiceRT,2021.1.2,Win32,59.326056,,,,,,,,5,Ontime,h,1,2.0375,1,1,5,2,1,,,,,
,0.93,,,,,,,,,f.PNG,f,614dff99a7df5de140464ec3,2021-10-19_15h53.52.340,forced_choiceRT,2021.1.2,Win32,59.326056,,,,,,,,5,Ontime,f,1,2.0662,1,2,6,0,1,,,,,
,1.23,,,,,,,,,h.PNG,h,614dff99a7df5de140464ec3,2021-10-19_15h53.52.340,forced_choiceRT,2021.1.2,Win32,59.326056,,,,,,,,5,Ontime,h,1,1.9944,1,3,7,2,1,,,,,
,0.09,,,,,,,,,j.PNG,j,614dff99a7df5de140464ec3,2021-10-19_15h53.52.340,forced_choiceRT,2021.1.2,Win32,59.326056,,,,,,,,5,Ontime,j,1,2.0334,2,0,8,3,1,,,,,
,1.1,,,,,,,,,h.PNG,h,614dff99a7df5de140464ec3,2021-10-19_15h53.52.340,forced_choiceRT,2021.1.2,Win32,59.326056,,,,,,,,5,Slow,h,1,2.1284,2,1,9,2,1,,,,,
,1.24,,,,,,,,,j.PNG,j,614dff99a7df5de140464ec3,2021-10-19_15h53.52.340,forced_choiceRT,2021.1.2,Win32,59.326056,,,,,,,,5,Ontime,j,1,1.9999,2,2,10,3,1,,,,,
,0.98,,,,,,,,,f.PNG,f,614dff99a7df5de140464ec3,2021-10-19_15h53.52.340,forced_choiceRT,2021.1.2,Win32,59.326056,,,,,,,,5,Slow,f,1,2.1458,2,3,11,0,1,,,,,
,0.46,,,,,,,,,g.PNG,g,614dff99a7df5de140464ec3,2021-10-19_15h53.52.340,forced_choiceRT,2021.1.2,Win32,59.326056,,,,,,,,5,Ontime,g,1,2.059,3,0,12,1,1,,,,,
,1.34,,,,,,,,,g.PNG,g,614dff99a7df5de140464ec3,2021-10-19_15h53.52.340,forced_choiceRT,2021.1.2,Win32,59.326056,,,,,,,,5,Ontime,g,1,2.0996,3,1,13,1,1,,,,,
,1.48,,,,,,,,,f.PNG,f,614dff99a7df5de140464ec3,2021-10-19_15h53.52.340,forced_choiceRT,2021.1.2,Win32,59.326056,,,,,,,,5,Ontime,f,1,2.0205,3,2,14,0,1,,,,,
,1.58,,,,,,,,,g.PNG,g,614dff99a7df5de140464ec3,2021-10-19_15h53.52.340,forced_choiceRT,2021.1.2,Win32,59.326056,,,,,,,,5,Slow,g,1,2.1325,3,3,15,1,1,,,,,
,1.16,,,,,,,,,j.PNG,j,614dff99a7df5de140464ec3,2021-10-19_15h53.52.340,forced_choiceRT,2021.1.2,Win32,59.326056,,,,,,,,5,Ontime,j,1,1.9999,4,0,16,3,1,,,,,
,0.64,,,,,,,,,j.PNG,j,614dff99a7df5de140464ec3,2021-10-19_15h53.52.340,forced_choiceRT,2021.1.2,Win32,59.326056,,,,,,,,5,Slow,j,1,2.1337,4,1,17,3,1,,,,,
,1.32,,,,,,,,,h.PNG,h,614dff99a7df5de140464ec3,2021-10-19_15h53.52.340,forced_choiceRT,2021.1.2,Win32,59.326056,,,,,,,,5,Ontime,h,1,2.096,4,2,18,2,1,,,,,
,1.41,,,,,,,,,g.PNG,g,614dff99a7df5de140464ec3,2021-10-19_15h53.52.340,forced_choiceRT,2021.1.2,Win32,59.326056,,,,,,,,5,Ontime,g,1,2.0335,4,3,19,1,1,,,,,
,0.16,,,,,,,,,f.PNG,f,614dff99a7df5de140464ec3,2021-10-19_15h53.52.340,forced_choiceRT,2021.1.2,Win32,59.326056,,,,,,,,5,Slow,f,1,2.1951,5,0,20,0,1,,,,,
,0.16,,,,,,,,,h.PNG,h,614dff99a7df5de140464ec3,2021-10-19_15h53.52.340,forced_choiceRT,2021.1.2,Win32,59.326056,,,,,,,,5,Ontime,h,1,1.9872,5,1,21,2,1,,,,,
,1.76,,,,,,,,,g.PNG,g,614dff99a7df5de140464ec3,2021-10-19_15h53.52.340,forced_choiceRT,2021.1.2,Win32,59.326056,,,,,,,,5,Slow,j,0,2.1325,5,2,22,1,1,,,,,
,0.59,,,,,,,,,f.PNG,f,614dff99a7df5de140464ec3,2021-10-19_15h53.52.340,forced_choiceRT,2021.1.2,Win32,59.326056,,,,,,,,5,Ontime,f,1,1.9386,5,3,23,0,1,,,,,
,0.3,,,,,,,,,f.PNG,f,614dff99a7df5de140464ec3,2021-10-19_15h53.52.340,forced_choiceRT,2021.1.2,Win32,59.326056,,,,,,,,5,Slow,f,1,2.1325,6,0,24,0,1,,,,,
,1.79,,,,,,,,,j.PNG,j,614dff99a7df5de140464ec3,2021-10-19_15h53.52.340,forced_choiceRT,2021.1.2,Win32,59.326056,,,,,,,,5,Slow,j,1,3.0937,6,1,25,3,1,,,,,
,1.44,,,,,,,,,h.PNG,h,614dff99a7df5de140464ec3,2021-10-19_15h53.52.340,forced_choiceRT,2021.1.2,Win32,59.326056,,,,,,,,5,Slow,h,1,2.1027,6,2,26,2,1,,,,,
,1.92,,,,,,,,,h.PNG,h,614dff99a7df5de140464ec3,2021-10-19_15h53.52.340,forced_choiceRT,2021.1.2,Win32,59.326056,,,,,,,,5,Slow,j,0,2.2118,6,3,27,2,1,,,,,
,0.2,,,,,,,,,g.PNG,g,614dff99a7df5de140464ec3,2021-10-19_15h53.52.340,forced_choiceRT,2021.1.2,Win32,59.326056,,,,,,,,5,Ontime,g,1,2.0215,7,0,28,1,1,,,,,
,1.55,,,,,,,,,j.PNG,j,614dff99a7df5de140464ec3,2021-10-19_15h53.52.340,forced_choiceRT,2021.1.2,Win32,59.326056,,,,,,,,5,Slow,j,1,2.1671,7,1,29,3,1,,,,,
,1.17,,,,,,,,,f.PNG,f,614dff99a7df5de140464ec3,2021-10-19_15h53.52.340,forced_choiceRT,2021.1.2,Win32,59.326056,,,,,,,,5,Ontime,f,1,1.9205,7,2,30,0,1,,,,,
,0.6,,,,,,,,,f.PNG,f,614dff99a7df5de140464ec3,2021-10-19_15h53.52.340,forced_choiceRT,2021.1.2,Win32,59.326056,,,,,,,,5,Ontime,f,1,2,7,3,31,0,1,,,,,
,0.49,,,,,,,,,h.PNG,h,614dff99a7df5de140464ec3,2021-10-19_15h53.52.340,forced_choiceRT,2021.1.2,Win32,59.326056,,,,,,,,5,Ontime,h,1,2.0328,8,0,32,2,1,,,,,
,1.2,,,,,,,,,g.PNG,g,614dff99a7df5de140464ec3,2021-10-19_15h53.52.340,forced_choiceRT,2021.1.2,Win32,59.326056,,,,,,,,5,Ontime,g,1,2.0668,8,1,33,1,1,,,,,
,1.47,,,,,,,,,h.PNG,h,614dff99a7df5de140464ec3,2021-10-19_15h53.52.340,forced_choiceRT,2021.1.2,Win32,59.326056,,,,,,,,5,Slow,h,1,2.1122,8,2,34,2,1,,,,,
,1.63,,,,,,,,,f.PNG,f,614dff99a7df5de140464ec3,2021-10-19_15h53.52.340,forced_choiceRT,2021.1.2,Win32,59.326056,,,,,,,,5,Slow,h,0,2.2033,8,3,35,0,1,,,,,
,1.89,,,,,,,,,g.PNG,g,614dff99a7df5de140464ec3,2021-10-19_15h53.52.340,forced_choiceRT,2021.1.2,Win32,59.326056,,,,,,,,5,Slow,g,1,3.0943,9,0,36,1,1,,,,,
,1.78,,,,,,,,,g.PNG,g,614dff99a7df5de140464ec3,2021-10-19_15h53.52.340,forced_choiceRT,2021.1.2,Win32,59.326056,,,,,,,,5,Slow,f,0,2.1358,9,1,37,1,1,,,,,
,1.73,,,,,,,,,j.PNG,j,614dff99a7df5de140464ec3,2021-10-19_15h53.52.340,forced_choiceRT,2021.1.2,Win32,59.326056,,,,,,,,5,Slow,h,0,2.1323,9,2,38,3,1,,,,,
,0.25,,,,,,,,,j.PNG,j,614dff99a7df5de140464ec3,2021-10-19_15h53.52.340,forced_choiceRT,2021.1.2,Win32,59.326056,,,,,,,,5,Ontime,j,1,2.0627,9,3,39,3,1,,,,,
,,,,,,,,,,,,614dff99a7df5de140464ec3,2021-10-19_15h53.52.340,forced_choiceRT,2021.1.2,Win32,59.326056,,,,,,,,,,,,,,,,,,4,0,4,0,1
,1.51,,,,,,,,,h.PNG,h,614dff99a7df5de140464ec3,2021-10-19_15h53.52.340,forced_choiceRT,2021.1.2,Win32,59.326056,,,,,,,,6,Ontime,h,1,2.0056,0,0,0,2,1,,,,,
,0.21,,,,,,,,,j.PNG,j,614dff99a7df5de140464ec3,2021-10-19_15h53.52.340,forced_choiceRT,2021.1.2,Win32,59.326056,,,,,,,,6,Ontime,j,1,1.9663,0,1,1,3,1,,,,,
,1.09,,,,,,,,,j.PNG,j,614dff99a7df5de140464ec3,2021-10-19_15h53.52.340,forced_choiceRT,2021.1.2,Win32,59.326056,,,,,,,,6,Fast,j,1,1.887,0,2,2,3,1,,,,,
,0.71,,,,,,,,,j.PNG,j,614dff99a7df5de140464ec3,2021-10-19_15h53.52.340,forced_choiceRT,2021.1.2,Win32,59.326056,,,,,,,,6,Ontime,j,1,1.9666,0,3,3,3,1,,,,,
,1.37,,,,,,,,,f.PNG,f,614dff99a7df5de140464ec3,2021-10-19_15h53.52.340,forced_choiceRT,2021.1.2,Win32,59.326056,,,,,,,,6,Slow,f,1,2.1152,1,0,4,0,1,,,,,
,0.88,,,,,,,,,g.PNG,g,614dff99a7df5de140464ec3,2021-10-19_15h53.52.340,forced_choiceRT,2021.1.2,Win32,59.326056,,,,,,,,6,Slow,g,1,2.1662,1,1,5,1,1,,,,,
,0.05,,,,,,,,,h.PNG,h,614dff99a7df5de140464ec3,2021-10-19_15h53.52.340,forced_choiceRT,2021.1.2,Win32,59.326056,,,,,,,,6,Ontime,h,1,2.0624,1,2,6,2,1,,,,,
,1.43,,,,,,,,,f.PNG,f,614dff99a7df5de140464ec3,2021-10-19_15h53.52.340,forced_choiceRT,2021.1.2,Win32,59.326056,,,,,,,,6,Ontime,f,1,2.0999,1,3,7,0,1,,,,,
,0.79,,,,,,,,,j.PNG,j,614dff99a7df5de140464ec3,2021-10-19_15h53.52.340,forced_choiceRT,2021.1.2,Win32,59.326056,,,,,,,,6,Slow,j,1,2.1119,2,0,8,3,1,,,,,
,1.38,,,,,,,,,g.PNG,g,614dff99a7df5de140464ec3,2021-10-19_15h53.52.340,forced_choiceRT,2021.1.2,Win32,59.326056,,,,,,,,6,Ontime,h,0,2.0375,2,1,9,1,1,,,,,
,0.48,,,,,,,,,g.PNG,g,614dff99a7df5de140464ec3,2021-10-19_15h53.52.340,forced_choiceRT,2021.1.2,Win32,59.326056,,,,,,,,6,Ontime,g,1,1.9942,2,2,10,1,1,,,,,
,1.42,,,,,,,,,g.PNG,g,614dff99a7df5de140464ec3,2021-10-19_15h53.52.340,forced_choiceRT,2021.1.2,Win32,59.326056,,,,,,,,6,Ontime,g,1,1.9219,2,3,11,1,1,,,,,
,1.41,,,,,,,,,j.PNG,j,614dff99a7df5de140464ec3,2021-10-19_15h53.52.340,forced_choiceRT,2021.1.2,Win32,59.326056,,,,,,,,6,Ontime,h,0,2.0995,3,0,12,3,1,,,,,
,0.68,,,,,,,,,j.PNG,j,614dff99a7df5de140464ec3,2021-10-19_15h53.52.340,forced_choiceRT,2021.1.2,Win32,59.326056,,,,,,,,6,Fast,j,1,1.8869,3,1,13,3,1,,,,,
,0.59,,,,,,,,,g.PNG,g,614dff99a7df5de140464ec3,2021-10-19_15h53.52.340,forced_choiceRT,2021.1.2,Win32,59.326056,,,,,,,,6,Ontime,g,1,2.0003,3,2,14,1,1,,,,,
,1.76,,,,,,,,,g.PNG,g,614dff99a7df5de140464ec3,2021-10-19_15h53.52.340,forced_choiceRT,2021.1.2,Win32,59.326056,,,,,,,,6,Slow,g,1,2.2149,3,3,15,1,1,,,,,
,1.97,,,,,,,,,j.PNG,j,614dff99a7df5de140464ec3,2021-10-19_15h53.52.340,forced_choiceRT,2021.1.2,Win32,59.326056,,,,,,,,6,Slow,g,0,2.1995,4,0,16,3,1,,,,,
,0.56,,,,,,,,,h.PNG,h,614dff99a7df5de140464ec3,2021-10-19_15h53.52.340,forced_choiceRT,2021.1.2,Win32,59.326056,,,,,,,,6,Ontime,h,1,1.9957,4,1,17,2,1,,,,,
,0.16,,,,,,,,,j.PNG,j,614dff99a7df5de140464ec3,2021-10-19_15h53.52.340,forced_choiceRT,2021.1.2,Win32,59.326056,,,,,,,,6,Ontime,j,1,2.0004,4,2,18,3,1,,,,,
,0.57,,,,,,,,,f.PNG,f,614dff99a7df5de140464ec3,2021-10-19_15h53.52.340,forced_choiceRT,2021.1.2,Win32,59.326056,,,,,,,,6,Ontime,f,1,1.979,4,3,19,0,1,,,,,
,1.28,,,,,,,,,f.PNG,f,614dff99a7df5de140464ec3,2021-10-19_15h53.52.340,forced_choiceRT,2021.1.2,Win32,59.326056,,,,,,,,6,Slow,f,1,3.1529,5,0,20,0,1,,,,,
,1.38,,,,,,,,,h.PNG,h,614dff99a7df5de140464ec3,2021-10-19_15h53.52.340,forced_choiceRT,2021.1.2,Win32,59.326056,,,,,,,,6,Slow,g,0,4.519,5,1,21,2,1,,,,,
,0.62,,,,,,,,,h.PNG,h,614dff99a7df5de140464ec3,2021-10-19_15h53.52.340,forced_choiceRT,2021.1.2,Win32,59.326056,,,,,,,,6,Ontime,h,1,1.9998,5,2,22,2,1,,,,,
,0.75,,,,,,,,,f.PNG,f,614dff99a7df5de140464ec3,2021-10-19_15h53.52.340,forced_choiceRT,2021.1.2,Win32,59.326056,,,,,,,,6,Fast,f,1,1.8369,5,3,23,0,1,,,,,
,1.75,,,,,,,,,h.PNG,h,614dff99a7df5de140464ec3,2021-10-19_15h53.52.340,forced_choiceRT,2021.1.2,Win32,59.326056,,,,,,,,6,Slow,g,0,2.1995,6,0,24,2,1,,,,,
,1.88,,,,,,,,,h.PNG,h,614dff99a7df5de140464ec3,2021-10-19_15h53.52.340,forced_choiceRT,2021.1.2,Win32,59.326056,,,,,,,,6,Slow,j,0,2.1277,6,1,25,2,1,,,,,
,0.75,,,,,,,,,j.PNG,j,614dff99a7df5de140464ec3,2021-10-19_15h53.52.340,forced_choiceRT,2021.1.2,Win32,59.326056,,,,,,,,6,Ontime,j,1,2.0323,6,2,26,3,1,,,,,
,1.81,,,,,,,,,f.PNG,f,614dff99a7df5de140464ec3,2021-10-19_15h53.52.340,forced_choiceRT,2021.1.2,Win32,59.326056,,,,,,,,6,Slow,h,0,2.2292,6,3,27,0,1,,,,,
,0.61,,,,,,,,,h.PNG,h,614dff99a7df5de140464ec3,2021-10-19_15h53.52.340,forced_choiceRT,2021.1.2,Win32,59.326056,,,,,,,,6,Ontime,h,1,2.0077,7,0,28,2,1,,,,,
,1.52,,,,,,,,,f.PNG,f,614dff99a7df5de140464ec3,2021-10-19_15h53.52.340,forced_choiceRT,2021.1.2,Win32,59.326056,,,,,,,,6,Slow,g,0,2.1948,7,1,29,0,1,,,,,
,0.72,,,,,,,,,j.PNG,j,614dff99a7df5de140464ec3,2021-10-19_15h53.52.340,forced_choiceRT,2021.1.2,Win32,59.326056,,,,,,,,6,Ontime,j,1,2.0326,7,2,30,3,1,,,,,
,0.08,,,,,,,,,g.PNG,g,614dff99a7df5de140464ec3,2021-10-19_15h53.52.340,forced_choiceRT,2021.1.2,Win32,59.326056,,,,,,,,6,Fast,g,1,1.533,7,3,31,1,1,,,,,
,0.29,,,,,,,,,f.PNG,f,614dff99a7df5de140464ec3,2021-10-19_15h53.52.340,forced_choiceRT,2021.1.2,Win32,59.326056,,,,,,,,6,Fast,f,1,1.8727,8,0,32,0,1,,,,,
,1.13,,,,,,,,,h.PNG,h,614dff99a7df5de140464ec3,2021-10-19_15h53.52.340,forced_choiceRT,2021.1.2,Win32,59.326056,,,,,,,,6,Slow,h,1,2.147,8,1,33,2,1,,,,,
,0.17,,,,,,,,,h.PNG,h,614dff99a7df5de140464ec3,2021-10-19_15h53.52.340,forced_choiceRT,2021.1.2,Win32,59.326056,,,,,,,,6,Ontime,h,1,2.0369,8,2,34,2,1,,,,,
,0.48,,,,,,,,,f.PNG,f,614dff99a7df5de140464ec3,2021-10-19_15h53.52.340,forced_choiceRT,2021.1.2,Win32,59.326056,,,,,,,,6,Ontime,f,1,1.9996,8,3,35,0,1,,,,,
,0.25,,,,,,,,,g.PNG,g,614dff99a7df5de140464ec3,2021-10-19_15h53.52.340,forced_choiceRT,2021.1.2,Win32,59.326056,,,,,,,,6,Ontime,g,1,1.9153,9,0,36,1,1,,,,,
,1.82,,,,,,,,,g.PNG,g,614dff99a7df5de140464ec3,2021-10-19_15h53.52.340,forced_choiceRT,2021.1.2,Win32,59.326056,,,,,,,,6,Slow,h,0,2.1658,9,1,37,1,1,,,,,
,0.68,,,,,,,,,f.PNG,f,614dff99a7df5de140464ec3,2021-10-19_15h53.52.340,forced_choiceRT,2021.1.2,Win32,59.326056,,,,,,,,6,Ontime,f,1,1.9632,9,2,38,0,1,,,,,
,0.3,,,,,,,,,g.PNG,g,614dff99a7df5de140464ec3,2021-10-19_15h53.52.340,forced_choiceRT,2021.1.2,Win32,59.326056,,,,,,,,6,Ontime,g,1,2.0331,9,3,39,1,1,,,,,
,,,,,,,,,,,,614dff99a7df5de140464ec3,2021-10-19_15h53.52.340,forced_choiceRT,2021.1.2,Win32,59.326056,,,,,,,,,,,,,,,,,,5,0,5,0,1
,1.74,,,,,,,,,j.PNG,j,614dff99a7df5de140464ec3,2021-10-19_15h53.52.340,forced_choiceRT,2021.1.2,Win32,59.326056,,,,,,,,7,Ontime,h,0,2.0988,0,0,0,3,1,,,,,
,1.1,,,,,,,,,h.PNG,h,614dff99a7df5de140464ec3,2021-10-19_15h53.52.340,forced_choiceRT,2021.1.2,Win32,59.326056,,,,,,,,7,Ontime,h,1,2.0541,0,1,1,2,1,,,,,
,1.04,,,,,,,,,f.PNG,f,614dff99a7df5de140464ec3,2021-10-19_15h53.52.340,forced_choiceRT,2021.1.2,Win32,59.326056,,,,,,,,7,Ontime,f,1,2.034,0,2,2,0,1,,,,,
,0.6,,,,,,,,,j.PNG,j,614dff99a7df5de140464ec3,2021-10-19_15h53.52.340,forced_choiceRT,2021.1.2,Win32,59.326056,,,,,,,,7,Ontime,j,1,1.9492,0,3,3,3,1,,,,,
,1.85,,,,,,,,,f.PNG,f,614dff99a7df5de140464ec3,2021-10-19_15h53.52.340,forced_choiceRT,2021.1.2,Win32,59.326056,,,,,,,,7,Slow,g,0,2.3644,1,0,4,0,1,,,,,
,1.85,,,,,,,,,h.PNG,h,614dff99a7df5de140464ec3,2021-10-19_15h53.52.340,forced_choiceRT,2021.1.2,Win32,59.326056,,,,,,,,7,Slow,h,1,2.2604,1,1,5,2,1,,,,,
,1.45,,,,,,,,,g.PNG,g,614dff99a7df5de140464ec3,2021-10-19_15h53.52.340,forced_choiceRT,2021.1.2,Win32,59.326056,,,,,,,,7,Slow,h,0,2.1372,1,2,6,1,1,,,,,
,1.49,,,,,,,,,h.PNG,h,614dff99a7df5de140464ec3,2021-10-19_15h53.52.340,forced_choiceRT,2021.1.2,Win32,59.326056,,,,,,,,7,Slow,h,1,2.1941,1,3,7,2,1,,,,,
,0.2,,,,,,,,,j.PNG,j,614dff99a7df5de140464ec3,2021-10-19_15h53.52.340,forced_choiceRT,2021.1.2,Win32,59.326056,,,,,,,,7,Ontime,j,1,1.9053,2,0,8,3,1,,,,,
,1.44,,,,,,,,,f.PNG,f,614dff99a7df5de140464ec3,2021-10-19_15h53.52.340,forced_choiceRT,2021.1.2,Win32,59.326056,,,,,,,,7,Ontime,f,1,1.9664,2,1,9,0,1,,,,,
,1.65,,,,,,,,,g.PNG,g,614dff99a7df5de140464ec3,2021-10-19_15h53.52.340,forced_choiceRT,2021.1.2,Win32,59.326056,,,,,,,,7,Ontime,h,0,2.0876,2,2,10,1,1,,,,,
,0.24,,,,,,,,,f.PNG,f,614dff99a7df5de140464ec3,2021-10-19_15h53.52.340,forced_choiceRT,2021.1.2,Win32,59.326056,,,,,,,,7,Ontime,f,1,1.9338,2,3,11,0,1,,,,,
,1.8,,,,,,,,,h.PNG,h,614dff99a7df5de140464ec3,2021-10-19_15h53.52.340,forced_choiceRT,2021.1.2,Win32,59.326056,,,,,,,,7,Ontime,h,1,2.061,3,0,12,2,1,,,,,
,1.35,,,,,,,,,f.PNG,f,614dff99a7df5de140464ec3,2021-10-19_15h53.52.340,forced_choiceRT,2021.1.2,Win32,59.326056,,,,,,,,7,Ontime,f,1,1.9998,3,1,13,0,1,,,,,
,0.37,,,,,,,,,j.PNG,j,614dff99a7df5de140464ec3,2021-10-19_15h53.52.340,forced_choiceRT,2021.1.2,Win32,59.326056,,,,,,,,7,Ontime,j,1,1.9292,3,2,14,3,1,,,,,
,1.51,,,,,,,,,h.PNG,h,614dff99a7df5de140464ec3,2021-10-19_15h53.52.340,forced_choiceRT,2021.1.2,Win32,59.326056,,,,,,,,7,Slow,h,1,2.1668,3,3,15,2,1,,,,,
,1.38,,,,,,,,,h.PNG,h,614dff99a7df5de140464ec3,2021-10-19_15h53.52.340,forced_choiceRT,2021.1.2,Win32,59.326056,,,,,,,,7,Ontime,h,1,2.0619,4,0,16,2,1,,,,,
,1.58,,,,,,,,,f.PNG,f,614dff99a7df5de140464ec3,2021-10-19_15h53.52.340,forced_choiceRT,2021.1.2,Win32,59.326056,,,,,,,,7,Slow,f,1,2.144,4,1,17,0,1,,,,,
,1.46,,,,,,,,,j.PNG,j,614dff99a7df5de140464ec3,2021-10-19_15h53.52.340,forced_choiceRT,2021.1.2,Win32,59.326056,,,,,,,,7,Ontime,h,0,2.0332,4,2,18,3,1,,,,,
,1.93,,,,,,,,,h.PNG,h,614dff99a7df5de140464ec3,2021-10-19_15h53.52.340,forced_choiceRT,2021.1.2,Win32,59.326056,,,,,,,,7,Slow,j,0,2.1201,4,3,19,2,1,,,,,
,1.32,,,,,,,,,g.PNG,g,614dff99a7df5de140464ec3,2021-10-19_15h53.52.340,forced_choiceRT,2021.1.2,Win32,59.326056,,,,,,,,7,Slow,g,1,2.1003,5,0,20,1,1,,,,,
,1.27,,,,,,,,,g.PNG,g,614dff99a7df5de140464ec3,2021-10-19_15h53.52.340,forced_choiceRT,2021.1.2,Win32,59.326056,,,,,,,,7,Ontime,g,1,2.0497,5,1,21,1,1,,,,,
,1.25,,,,,,,,,j.PNG,j,614dff99a7df5de140464ec3,2021-10-19_15h53.52.340,forced_choiceRT,2021.1.2,Win32,59.326056,,,,,,,,7,Fast,h,0,1.867,5,2,22,3,1,,,,,
,0.85,,,,,,,,,j.PNG,j,614dff99a7df5de140464ec3,2021-10-19_15h53.52.340,forced_choiceRT,2021.1.2,Win32,59.326056,,,,,,,,7,Fast,j,1,1.4824,5,3,23,3,1,,,,,
,1.82,,,,,,,,,j.PNG,j,614dff99a7df5de140464ec3,2021-10-19_15h53.52.340,forced_choiceRT,2021.1.2,Win32,59.326056,,,,,,,,7,Slow,j,1,2.1657,6,0,24,3,1,,,,,
,1.83,,,,,,,,,h.PNG,h,614dff99a7df5de140464ec3,2021-10-19_15h53.52.340,forced_choiceRT,2021.1.2,Win32,59.326056,,,,,,,,7,Slow,h,1,2.4299,6,1,25,2,1,,,,,
,1.25,,,,,,,,,f.PNG,f,614dff99a7df5de140464ec3,2021-10-19_15h53.52.340,forced_choiceRT,2021.1.2,Win32,59.326056,,,,,,,,7,Ontime,f,1,1.9761,6,2,26,0,1,,,,,
,1.38,,,,,,,,,g.PNG,g,614dff99a7df5de140464ec3,2021-10-19_15h53.52.340,forced_choiceRT,2021.1.2,Win32,59.326056,,,,,,,,7,Ontime,g,1,2.0959,6,3,27,1,1,,,,,
,0.3,,,,,,,,,j.PNG,j,614dff99a7df5de140464ec3,2021-10-19_15h53.52.340,forced_choiceRT,2021.1.2,Win32,59.326056,,,,,,,,7,Ontime,j,1,2.0212,7,0,28,3,1,,,,,
,1.81,,,,,,,,,f.PNG,f,614dff99a7df5de140464ec3,2021-10-19_15h53.52.340,forced_choiceRT,2021.1.2,Win32,59.326056,,,,,,,,7,Ontime,h,0,2.0336,7,1,29,0,1,,,,,
,1.33,,,,,,,,,g.PNG,g,614dff99a7df5de140464ec3,2021-10-19_15h53.52.340,forced_choiceRT,2021.1.2,Win32,59.326056,,,,,,,,7,Ontime,f,0,1.9241,7,2,30,1,1,,,,,
,0.91,,,,,,,,,h.PNG,h,614dff99a7df5de140464ec3,2021-10-19_15h53.52.340,forced_choiceRT,2021.1.2,Win32,59.326056,,,,,,,,7,Fast,h,1,1.8669,7,3,31,2,1,,,,,
,0.67,,,,,,,,,f.PNG,f,614dff99a7df5de140464ec3,2021-10-19_15h53.52.340,forced_choiceRT,2021.1.2,Win32,59.326056,,,,,,,,7,Fast,f,1,1.5542,8,0,32,0,1,,,,,
,0.01,,,,,,,,,g.PNG,g,614dff99a7df5de140464ec3,2021-10-19_15h53.52.340,forced_choiceRT,2021.1.2,Win32,59.326056,,,,,,,,7,Ontime,g,1,1.933,8,1,33,1,1,,,,,
,1.04,,,,,,,,,f.PNG,f,614dff99a7df5de140464ec3,2021-10-19_15h53.52.340,forced_choiceRT,2021.1.2,Win32,59.326056,,,,,,,,7,Ontime,f,1,1.9158,8,2,34,0,1,,,,,
,0.12,,,,,,,,,g.PNG,g,614dff99a7df5de140464ec3,2021-10-19_15h53.52.340,forced_choiceRT,2021.1.2,Win32,59.326056,,,,,,,,7,Fast,g,1,1.8334,8,3,35,1,1,,,,,
,1.27,,,,,,,,,g.PNG,g,614dff99a7df5de140464ec3,2021-10-19_15h53.52.340,forced_choiceRT,2021.1.2,Win32,59.326056,,,,,,,,7,Slow,g,1,2.1614,9,0,36,1,1,,,,,
,1.55,,,,,,,,,h.PNG,h,614dff99a7df5de140464ec3,2021-10-19_15h53.52.340,forced_choiceRT,2021.1.2,Win32,59.326056,,,,,,,,7,Slow,h,1,2.2648,9,1,37,2,1,,,,,
,0.83,,,,,,,,,g.PNG,g,614dff99a7df5de140464ec3,2021-10-19_15h53.52.340,forced_choiceRT,2021.1.2,Win32,59.326056,,,,,,,,7,Ontime,g,1,2.0127,9,2,38,1,1,,,,,
,1.31,,,,,,,,,j.PNG,j,614dff99a7df5de140464ec3,2021-10-19_15h53.52.340,forced_choiceRT,2021.1.2,Win32,59.326056,,,,,,,,7,Ontime,j,1,2.0877,9,3,39,3,1,,,,,
,,,,,,,,,,,,614dff99a7df5de140464ec3,2021-10-19_15h53.52.340,forced_choiceRT,2021.1.2,Win32,59.326056,,,,,,,,,,,,,,,,,,6,0,6,0,1
,0.88,,,,,,,,,h.PNG,h,614dff99a7df5de140464ec3,2021-10-19_15h53.52.340,forced_choiceRT,2021.1.2,Win32,59.326056,,,,,,,,8,Ontime,g,0,2.0661,0,0,0,2,1,,,,,
,0.76,,,,,,,,,g.PNG,g,614dff99a7df5de140464ec3,2021-10-19_15h53.52.340,forced_choiceRT,2021.1.2,Win32,59.326056,,,,,,,,8,Fast,g,1,1.8773,0,1,1,1,1,,,,,
,1.97,,,,,,,,,h.PNG,h,614dff99a7df5de140464ec3,2021-10-19_15h53.52.340,forced_choiceRT,2021.1.2,Win32,59.326056,,,,,,,,8,Slow,g,0,2.1329,0,2,2,2,1,,,,,
,1.46,,,,,,,,,j.PNG,j,614dff99a7df5de140464ec3,2021-10-19_15h53.52.340,forced_choiceRT,2021.1.2,Win32,59.326056,,,,,,,,8,Ontime,j,1,2.0329,0,3,3,3,1,,,,,
,1.56,,,,,,,,,f.PNG,f,614dff99a7df5de140464ec3,2021-10-19_15h53.52.340,forced_choiceRT,2021.1.2,Win32,59.326056,,,,,,,,8,Slow,g,0,2.1996,1,0,4,0,1,,,,,
,1.13,,,,,,,,,j.PNG,j,614dff99a7df5de140464ec3,2021-10-19_15h53.52.340,forced_choiceRT,2021.1.2,Win32,59.326056,,,,,,,,8,Ontime,j,1,1.9613,1,1,5,3,1,,,,,
,1.95,,,,,,,,,f.PNG,f,614dff99a7df5de140464ec3,2021-10-19_15h53.52.340,forced_choiceRT,2021.1.2,Win32,59.326056,,,,,,,,8,Slow,h,0,2.1351,1,2,6,0,1,,,,,
,1.74,,,,,,,,,f.PNG,f,614dff99a7df5de140464ec3,2021-10-19_15h53.52.340,forced_choiceRT,2021.1.2,Win32,59.326056,,,,,,,,8,Slow,f,1,2.1954,1,3,7,0,1,,,,,
,1.36,,,,,,,,,g.PNG,g,614dff99a7df5de140464ec3,2021-10-19_15h53.52.340,forced_choiceRT,2021.1.2,Win32,59.326056,,,,,,,,8,Ontime,g,1,2.038,2,0,8,1,1,,,,,
,0.11,,,,,,,,,j.PNG,j,614dff99a7df5de140464ec3,2021-10-19_15h53.52.340,forced_choiceRT,2021.1.2,Win32,59.326056,,,,,,,,8,Ontime,j,1,2.0323,2,1,9,3,1,,,,,
,1.47,,,,,,,,,f.PNG,f,614dff99a7df5de140464ec3,2021-10-19_15h53.52.340,forced_choiceRT,2021.1.2,Win32,59.326056,,,,,,,,8,Ontime,g,0,2.0555,2,2,10,0,1,,,,,
,0.43,,,,,,,,,h.PNG,h,614dff99a7df5de140464ec3,2021-10-19_15h53.52.340,forced_choiceRT,2021.1.2,Win32,59.326056,,,,,,,,8,Ontime,h,1,2.0673,2,3,11,2,1,,,,,
,0.2,,,,,,,,,h.PNG,h,614dff99a7df5de140464ec3,2021-10-19_15h53.52.340,forced_choiceRT,2021.1.2,Win32,59.326056,,,,,,,,8,Ontime,g,0,1.9492,3,0,12,2,1,,,,,
,1.96,,,,,,,,,h.PNG,h,614dff99a7df5de140464ec3,2021-10-19_15h53.52.340,forced_choiceRT,2021.1.2,Win32,59.326056,,,,,,,,8,Slow,h,1,2.1321,3,1,13,2,1,,,,,
,1.22,,,,,,,,,g.PNG,g,614dff99a7df5de140464ec3,2021-10-19_15h53.52.340,forced_choiceRT,2021.1.2,Win32,59.326056,,,,,,,,8,Ontime,f,0,2.0957,3,2,14,1,1,,,,,
,1.76,,,,,,,,,h.PNG,h,614dff99a7df5de140464ec3,2021-10-19_15h53.52.340,forced_choiceRT,2021.1.2,Win32,59.326056,,,,,,,,8,Ontime,j,0,2.0993,3,3,15,2,1,,,,,
,0.56,,,,,,,,,g.PNG,g,614dff99a7df5de140464ec3,2021-10-19_15h53.52.340,forced_choiceRT,2021.1.2,Win32,59.326056,,,,,,,,8,Ontime,g,1,2.0455,4,0,16,1,1,,,,,
,0.5,,,,,,,,,j.PNG,j,614dff99a7df5de140464ec3,2021-10-19_15h53.52.340,forced_choiceRT,2021.1.2,Win32,59.326056,,,,,,,,8,Slow,j,1,2.1042,4,1,17,3,1,,,,,
,1.28,,,,,,,,,j.PNG,j,614dff99a7df5de140464ec3,2021-10-19_15h53.52.340,forced_choiceRT,2021.1.2,Win32,59.326056,,,,,,,,8,Ontime,j,1,2.0994,4,2,18,3,1,,,,,
,0.16,,,,,,,,,g.PNG,g,614dff99a7df5de140464ec3,2021-10-19_15h53.52.340,forced_choiceRT,2021.1.2,Win32,59.326056,,,,,,,,8,Fast,g,1,1.7159,4,3,19,1,1,,,,,
,0.08,,,,,,,,,h.PNG,h,614dff99a7df5de140464ec3,2021-10-19_15h53.52.340,forced_choiceRT,2021.1.2,Win32,59.326056,,,,,,,,8,Ontime,h,1,1.9665,5,0,20,2,1,,,,,
,1.78,,,,,,,,,f.PNG,f,614dff99a7df5de140464ec3,2021-10-19_15h53.52.340,forced_choiceRT,2021.1.2,Win32,59.326056,,,,,,,,8,Fast,g,0,1.8869,5,1,21,0,1,,,,,
,1.3,,,,,,,,,f.PNG,f,614dff99a7df5de140464ec3,2021-10-19_15h53.52.340,forced_choiceRT,2021.1.2,Win32,59.326056,,,,,,,,8,Ontime,f,1,2.0334,5,2,22,0,1,,,,,
,0.79,,,,,,,,,f.PNG,f,614dff99a7df5de140464ec3,2021-10-19_15h53.52.340,forced_choiceRT,2021.1.2,Win32,59.326056,,,,,,,,8,Fast,f,1,1.6152,5,3,23,0,1,,,,,
,0.03,,,,,,,,,f.PNG,f,614dff99a7df5de140464ec3,2021-10-19_15h53.52.340,forced_choiceRT,2021.1.2,Win32,59.326056,,,,,,,,8,Ontime,f,1,2,6,0,24,0,1,,,,,
,1.88,,,,,,,,,f.PNG,f,614dff99a7df5de140464ec3,2021-10-19_15h53.52.340,forced_choiceRT,2021.1.2,Win32,59.326056,,,,,,,,8,Ontime,h,0,2.0833,6,1,25,0,1,,,,,
,1.72,,,,,,,,,h.PNG,h,614dff99a7df5de140464ec3,2021-10-19_15h53.52.340,forced_choiceRT,2021.1.2,Win32,59.326056,,,,,,,,8,Ontime,f,0,2.0998,6,2,26,2,1,,,,,
,1.6,,,,,,,,,g.PNG,g,614dff99a7df5de140464ec3,2021-10-19_15h53.52.340,forced_choiceRT,2021.1.2,Win32,59.326056,,,,,,,,8,Slow,g,1,2.2947,6,3,27,1,1,,,,,
,0.36,,,,,,,,,g.PNG,g,614dff99a7df5de140464ec3,2021-10-19_15h53.52.340,forced_choiceRT,2021.1.2,Win32,59.326056,,,,,,,,8,Ontime,g,1,2.0713,7,0,28,1,1,,,,,
,1.65,,,,,,,,,f.PNG,f,614dff99a7df5de140464ec3,2021-10-19_15h53.52.340,forced_choiceRT,2021.1.2,Win32,59.326056,,,,,,,,8,Ontime,h,0,2.0272,7,1,29,0,1,,,,,
,0.95,,,,,,,,,g.PNG,g,614dff99a7df5de140464ec3,2021-10-19_15h53.52.340,forced_choiceRT,2021.1.2,Win32,59.326056,,,,,,,,8,Fast,g,1,1.8044,7,2,30,1,1,,,,,
,0.49,,,,,,,,,h.PNG,h,614dff99a7df5de140464ec3,2021-10-19_15h53.52.340,forced_choiceRT,2021.1.2,Win32,59.326056,,,,,,,,8,Ontime,h,1,1.9328,7,3,31,2,1,,,,,
,1.54,,,,,,,,,j.PNG,j,614dff99a7df5de140464ec3,2021-10-19_15h53.52.340,forced_choiceRT,2021.1.2,Win32,59.326056,,,,,,,,8,Ontime,j,1,2.0552,8,0,32,3,1,,,,,
,1.8,,,,,,,,,j.PNG,j,614dff99a7df5de140464ec3,2021-10-19_15h53.52.340,forced_choiceRT,2021.1.2,Win32,59.326056,,,,,,,,8,Ontime,h,0,2.0998,8,1,33,3,1,,,,,
,0.52,,,,,,,,,g.PNG,g,614dff99a7df5de140464ec3,2021-10-19_15h53.52.340,forced_choiceRT,2021.1.2,Win32,59.326056,,,,,,,,8,Fast,g,1,1.8673,8,2,34,1,1,,,,,
,1.79,,,,,,,,,g.PNG,g,614dff99a7df5de140464ec3,2021-10-19_15h53.52.340,forced_choiceRT,2021.1.2,Win32,59.326056,,,,,,,,8,Ontime,h,0,2.0329,8,3,35,1,1,,,,,
,0.39,,,,,,,,,j.PNG,j,614dff99a7df5de140464ec3,2021-10-19_15h53.52.340,forced_choiceRT,2021.1.2,Win32,59.326056,,,,,,,,8,Fast,j,1,1.5823,9,0,36,3,1,,,,,
,0.78,,,,,,,,,j.PNG,j,614dff99a7df5de140464ec3,2021-10-19_15h53.52.340,forced_choiceRT,2021.1.2,Win32,59.326056,,,,,,,,8,Ontime,j,1,2.0667,9,1,37,3,1,,,,,
,1.86,,,,,,,,,h.PNG,h,614dff99a7df5de140464ec3,2021-10-19_15h53.52.340,forced_choiceRT,2021.1.2,Win32,59.326056,,,,,,,,8,Slow,j,0,2.2279,9,2,38,2,1,,,,,
,0.32,,,,,,,,,j.PNG,j,614dff99a7df5de140464ec3,2021-10-19_15h53.52.340,forced_choiceRT,2021.1.2,Win32,59.326056,,,,,,,,8,Ontime,j,1,2.0002,9,3,39,3,1,,,,,
,,,,,,,,,,,,614dff99a7df5de140464ec3,2021-10-19_15h53.52.340,forced_choiceRT,2021.1.2,Win32,59.326056,,,,,,,,,,,,,,,,,,7,0,7,0,1
,1.72,,,,,,,,,f.PNG,f,614dff99a7df5de140464ec3,2021-10-19_15h53.52.340,forced_choiceRT,2021.1.2,Win32,59.326056,,,,,,,,9,Slow,j,0,2.1986,0,0,0,0,1,,,,,
,1.13,,,,,,,,,g.PNG,g,614dff99a7df5de140464ec3,2021-10-19_15h53.52.340,forced_choiceRT,2021.1.2,Win32,59.326056,,,,,,,,9,Ontime,g,1,1.9671,0,1,1,1,1,,,,,
,0.44,,,,,,,,,g.PNG,g,614dff99a7df5de140464ec3,2021-10-19_15h53.52.340,forced_choiceRT,2021.1.2,Win32,59.326056,,,,,,,,9,Fast,g,1,1.8665,0,2,2,1,1,,,,,
,0.91,,,,,,,,,j.PNG,j,614dff99a7df5de140464ec3,2021-10-19_15h53.52.340,forced_choiceRT,2021.1.2,Win32,59.326056,,,,,,,,9,Ontime,j,1,1.9283,0,3,3,3,1,,,,,
,1.16,,,,,,,,,f.PNG,f,614dff99a7df5de140464ec3,2021-10-19_15h53.52.340,forced_choiceRT,2021.1.2,Win32,59.326056,,,,,,,,9,Ontime,f,1,1.9999,1,0,4,0,1,,,,,
,1.95,,,,,,,,,j.PNG,j,614dff99a7df5de140464ec3,2021-10-19_15h53.52.340,forced_choiceRT,2021.1.2,Win32,59.326056,,,,,,,,9,Slow,g,0,2.3681,1,1,5,3,1,,,,,
,0.53,,,,,,,,,f.PNG,f,614dff99a7df5de140464ec3,2021-10-19_15h53.52.340,forced_choiceRT,2021.1.2,Win32,59.326056,,,,,,,,9,Ontime,f,1,1.9044,1,2,6,0,1,,,,,
,1.71,,,,,,,,,f.PNG,f,614dff99a7df5de140464ec3,2021-10-19_15h53.52.340,forced_choiceRT,2021.1.2,Win32,59.326056,,,,,,,,9,Slow,g,0,2.195,1,3,7,0,1,,,,,
,0.9,,,,,,,,,j.PNG,j,614dff99a7df5de140464ec3,2021-10-19_15h53.52.340,forced_choiceRT,2021.1.2,Win32,59.326056,,,,,,,,9,Ontime,j,1,1.9379,2,0,8,3,1,,,,,
,0.03,,,,,,,,,g.PNG,g,614dff99a7df5de140464ec3,2021-10-19_15h53.52.340,forced_choiceRT,2021.1.2,Win32,59.326056,,,,,,,,9,Fast,g,1,1.8331,2,1,9,1,1,,,,,
,0.68,,,,,,,,,h.PNG,h,614dff99a7df5de140464ec3,2021-10-19_15h53.52.340,forced_choiceRT,2021.1.2,Win32,59.326056,,,,,,,,9,Fast,h,1,1.7601,2,2,10,2,1,,,,,
,0.44,,,,,,,,,h.PNG,h,614dff99a7df5de140464ec3,2021-10-19_15h53.52.340,forced_choiceRT,2021.1.2,Win32,59.326056,,,,,,,,9,Ontime,h,1,1.9335,2,3,11,2,1,,,,,
,0.77,,,,,,,,,g.PNG,g,614dff99a7df5de140464ec3,2021-10-19_15h53.52.340,forced_choiceRT,2021.1.2,Win32,59.326056,,,,,,,,9,Fast,g,1,1.8155,3,0,12,1,1,,,,,
,1.86,,,,,,,,,h.PNG,h,614dff99a7df5de140464ec3,2021-10-19_15h53.52.340,forced_choiceRT,2021.1.2,Win32,59.326056,,,,,,,,9,Slow,h,1,2.1326,3,1,13,2,1,,,,,
,1.37,,,,,,,,,h.PNG,h,614dff99a7df5de140464ec3,2021-10-19_15h53.52.340,forced_choiceRT,2021.1.2,Win32,59.326056,,,,,,,,9,Ontime,j,0,2.0969,3,2,14,2,1,,,,,
,0.95,,,,,,,,,j.PNG,j,614dff99a7df5de140464ec3,2021-10-19_15h53.52.340,forced_choiceRT,2021.1.2,Win32,59.326056,,,,,,,,9,Ontime,j,1,1.9667,3,3,15,3,1,,,,,
,1.86,,,,,,,,,j.PNG,j,614dff99a7df5de140464ec3,2021-10-19_15h53.52.340,forced_choiceRT,2021.1.2,Win32,59.326056,,,,,,,,9,Slow,j,1,2.9608,4,0,16,3,1,,,,,
,1.37,,,,,,,,,f.PNG,f,614dff99a7df5de140464ec3,2021-10-19_15h53.52.340,forced_choiceRT,2021.1.2,Win32,59.326056,,,,,,,,9,Ontime,f,1,2.0213,4,1,17,0,1,,,,,
,1.48,,,,,,,,,g.PNG,g,614dff99a7df5de140464ec3,2021-10-19_15h53.52.340,forced_choiceRT,2021.1.2,Win32,59.326056,,,,,,,,9,Slow,g,1,2.1327,4,2,18,1,1,,,,,
,1.14,,,,,,,,,f.PNG,f,614dff99a7df5de140464ec3,2021-10-19_15h53.52.340,forced_choiceRT,2021.1.2,Win32,59.326056,,,,,,,,9,Ontime,f,1,1.9196,4,3,19,0,1,,,,,
,1.57,,,,,,,,,f.PNG,f,614dff99a7df5de140464ec3,2021-10-19_15h53.52.340,forced_choiceRT,2021.1.2,Win32,59.326056,,,,,,,,9,Ontime,g,0,2.0324,5,0,20,0,1,,,,,
,1.56,,,,,,,,,h.PNG,h,614dff99a7df5de140464ec3,2021-10-19_15h53.52.340,forced_choiceRT,2021.1.2,Win32,59.326056,,,,,,,,9,Slow,g,0,2.1343,5,1,21,2,1,,,,,
,0.06,,,,,,,,,h.PNG,h,614dff99a7df5de140464ec3,2021-10-19_15h53.52.340,forced_choiceRT,2021.1.2,Win32,59.326056,,,,,,,,9,Fast,h,1,1.8328,5,2,22,2,1,,,,,
,1.19,,,,,,,,,f.PNG,f,614dff99a7df5de140464ec3,2021-10-19_15h53.52.340,forced_choiceRT,2021.1.2,Win32,59.326056,,,,,,,,9,Ontime,f,1,1.9626,5,3,23,0,1,,,,,
,0.81,,,,,,,,,g.PNG,g,614dff99a7df5de140464ec3,2021-10-19_15h53.52.340,forced_choiceRT,2021.1.2,Win32,59.326056,,,,,,,,9,Slow,g,1,2.1325,6,0,24,1,1,,,,,
,1.89,,,,,,,,,g.PNG,g,614dff99a7df5de140464ec3,2021-10-19_15h53.52.340,forced_choiceRT,2021.1.2,Win32,59.326056,,,,,,,,9,Slow,f,0,2.1117,6,1,25,1,1,,,,,
,1.45,,,,,,,,,j.PNG,j,614dff99a7df5de140464ec3,2021-10-19_15h53.52.340,forced_choiceRT,2021.1.2,Win32,59.326056,,,,,,,,9,Slow,j,1,2.1202,6,2,26,3,1,,,,,
,0.23,,,,,,,,,f.PNG,f,614dff99a7df5de140464ec3,2021-10-19_15h53.52.340,forced_choiceRT,2021.1.2,Win32,59.326056,,,,,,,,9,Fast,f,1,1.7669,6,3,27,0,1,,,,,
,0.14,,,,,,,,,j.PNG,j,614dff99a7df5de140464ec3,2021-10-19_15h53.52.340,forced_choiceRT,2021.1.2,Win32,59.326056,,,,,,,,9,Fast,j,1,1.8932,7,0,28,3,1,,,,,
,0.09,,,,,,,,,h.PNG,h,614dff99a7df5de140464ec3,2021-10-19_15h53.52.340,forced_choiceRT,2021.1.2,Win32,59.326056,,,,,,,,9,Fast,h,1,1.8996,7,1,29,2,1,,,,,
,1.23,,,,,,,,,h.PNG,h,614dff99a7df5de140464ec3,2021-10-19_15h53.52.340,forced_choiceRT,2021.1.2,Win32,59.326056,,,,,,,,9,Ontime,h,1,2.0868,7,2,30,2,1,,,,,
,1.3,,,,,,,,,f.PNG,f,614dff99a7df5de140464ec3,2021-10-19_15h53.52.340,forced_choiceRT,2021.1.2,Win32,59.326056,,,,,,,,9,Slow,f,1,2.1324,7,3,31,0,1,,,,,
,1.63,,,,,,,,,g.PNG,g,614dff99a7df5de140464ec3,2021-10-19_15h53.52.340,forced_choiceRT,2021.1.2,Win32,59.326056,,,,,,,,9,Slow,g,1,2.2614,8,0,32,1,1,,,,,
,0.14,,,,,,,,,h.PNG,h,614dff99a7df5de140464ec3,2021-10-19_15h53.52.340,forced_choiceRT,2021.1.2,Win32,59.326056,,,,,,,,9,Ontime,h,1,2.033,8,1,33,2,1,,,,,
,1.83,,,,,,,,,g.PNG,g,614dff99a7df5de140464ec3,2021-10-19_15h53.52.340,forced_choiceRT,2021.1.2,Win32,59.326056,,,,,,,,9,Slow,j,0,2.1621,8,2,34,1,1,,,,,
,1.32,,,,,,,,,j.PNG,j,614dff99a7df5de140464ec3,2021-10-19_15h53.52.340,forced_choiceRT,2021.1.2,Win32,59.326056,,,,,,,,9,Ontime,h,0,2.0204,8,3,35,3,1,,,,,
,0.15,,,,,,,,,j.PNG,j,614dff99a7df5de140464ec3,2021-10-19_15h53.52.340,forced_choiceRT,2021.1.2,Win32,59.326056,,,,,,,,9,Ontime,j,1,1.9625,9,0,36,3,1,,,,,
,1.49,,,,,,,,,g.PNG,g,614dff99a7df5de140464ec3,2021-10-19_15h53.52.340,forced_choiceRT,2021.1.2,Win32,59.326056,,,,,,,,9,Slow,g,1,2.109,9,1,37,1,1,,,,,
,0.11,,,,,,,,,j.PNG,j,614dff99a7df5de140464ec3,2021-10-19_15h53.52.340,forced_choiceRT,2021.1.2,Win32,59.326056,,,,,,,,9,Ontime,j,1,2.0665,9,2,38,3,1,,,,,
,0.81,,,,,,,,,h.PNG,h,614dff99a7df5de140464ec3,2021-10-19_15h53.52.340,forced_choiceRT,2021.1.2,Win32,59.326056,,,,,,,,9,Ontime,h,1,1.9369,9,3,39,2,1,,,,,
,,,,,,,,,,,,614dff99a7df5de140464ec3,2021-10-19_15h53.52.340,forced_choiceRT,2021.1.2,Win32,59.326056,,,,,,,,,,,,,,,,,,8,0,8,0,1
,1.4,,,,,,,,,g.PNG,g,614dff99a7df5de140464ec3,2021-10-19_15h53.52.340,forced_choiceRT,2021.1.2,Win32,59.326056,,,,,,,,10,Slow,h,0,2.1621,0,0,0,1,1,,,,,
,1.09,,,,,,,,,j.PNG,j,614dff99a7df5de140464ec3,2021-10-19_15h53.52.340,forced_choiceRT,2021.1.2,Win32,59.326056,,,,,,,,10,Slow,j,1,2.1327,0,1,1,3,1,,,,,
,0.18,,,,,,,,,g.PNG,g,614dff99a7df5de140464ec3,2021-10-19_15h53.52.340,forced_choiceRT,2021.1.2,Win32,59.326056,,,,,,,,10,Ontime,g,1,2.0614,0,2,2,1,1,,,,,
,1.17,,,,,,,,,j.PNG,j,614dff99a7df5de140464ec3,2021-10-19_15h53.52.340,forced_choiceRT,2021.1.2,Win32,59.326056,,,,,,,,10,Ontime,j,1,2.0497,0,3,3,3,1,,,,,
,1.87,,,,,,,,,h.PNG,h,614dff99a7df5de140464ec3,2021-10-19_15h53.52.340,forced_choiceRT,2021.1.2,Win32,59.326056,,,,,,,,10,Slow,g,0,2.211,1,0,4,2,1,,,,,
,1.31,,,,,,,,,h.PNG,h,614dff99a7df5de140464ec3,2021-10-19_15h53.52.340,forced_choiceRT,2021.1.2,Win32,59.326056,,,,,,,,10,Ontime,h,1,1.9876,1,1,5,2,1,,,,,
,1.98,,,,,,,,,h.PNG,h,614dff99a7df5de140464ec3,2021-10-19_15h53.52.340,forced_choiceRT,2021.1.2,Win32,59.326056,,,,,,,,10,Slow,g,0,2.1435,1,2,6,2,1,,,,,
,1.15,,,,,,,,,h.PNG,h,614dff99a7df5de140464ec3,2021-10-19_15h53.52.340,forced_choiceRT,2021.1.2,Win32,59.326056,,,,,,,,10,Ontime,h,1,1.9034,1,3,7,2,1,,,,,
,0.19,,,,,,,,,j.PNG,j,614dff99a7df5de140464ec3,2021-10-19_15h53.52.340,forced_choiceRT,2021.1.2,Win32,59.326056,,,,,,,,10,Ontime,j,1,2.0333,2,0,8,3,1,,,,,
,0.66,,,,,,,,,g.PNG,g,614dff99a7df5de140464ec3,2021-10-19_15h53.52.340,forced_choiceRT,2021.1.2,Win32,59.326056,,,,,,,,10,Ontime,g,1,1.9834,2,1,9,1,1,,,,,
,0.89,,,,,,,,,f.PNG,f,614dff99a7df5de140464ec3,2021-10-19_15h53.52.340,forced_choiceRT,2021.1.2,Win32,59.326056,,,,,,,,10,Slow,f,1,2.1329,2,2,10,0,1,,,,,
,0.96,,,,,,,,,g.PNG,g,614dff99a7df5de140464ec3,2021-10-19_15h53.52.340,forced_choiceRT,2021.1.2,Win32,59.326056,,,,,,,,10,Ontime,g,1,2.029,2,3,11,1,1,,,,,
,0.33,,,,,,,,,g.PNG,g,614dff99a7df5de140464ec3,2021-10-19_15h53.52.340,forced_choiceRT,2021.1.2,Win32,59.326056,,,,,,,,10,Ontime,g,1,2.0667,3,0,12,1,1,,,,,
,0.06,,,,,,,,,h.PNG,h,614dff99a7df5de140464ec3,2021-10-19_15h53.52.340,forced_choiceRT,2021.1.2,Win32,59.326056,,,,,,,,10,Ontime,h,1,1.9956,3,1,13,2,1,,,,,
,1.23,,,,,,,,,j.PNG,j,614dff99a7df5de140464ec3,2021-10-19_15h53.52.340,forced_choiceRT,2021.1.2,Win32,59.326056,,,,,,,,10,Ontime,j,1,1.9908,3,2,14,3,1,,,,,
,1.39,,,,,,,,,j.PNG,j,614dff99a7df5de140464ec3,2021-10-19_15h53.52.340,forced_choiceRT,2021.1.2,Win32,59.326056,,,,,,,,10,Ontime,j,1,1.9996,3,3,15,3,1,,,,,
,0.04,,,,,,,,,h.PNG,h,614dff99a7df5de140464ec3,2021-10-19_15h53.52.340,forced_choiceRT,2021.1.2,Win32,59.326056,,,,,,,,10,Ontime,h,1,1.9671,4,0,16,2,1,,,,,
,0.01,,,,,,,,,h.PNG,h,614dff99a7df5de140464ec3,2021-10-19_15h53.52.340,forced_choiceRT,2021.1.2,Win32,59.326056,,,,,,,,10,Ontime,h,1,2.0341,4,1,17,2,1,,,,,
,1.96,,,,,,,,,g.PNG,g,614dff99a7df5de140464ec3,2021-10-19_15h53.52.340,forced_choiceRT,2021.1.2,Win32,59.326056,,,,,,,,10,Ontime,g,1,2.0708,4,2,18,1,1,,,,,
,0.88,,,,,,,,,f.PNG,f,614dff99a7df5de140464ec3,2021-10-19_15h53.52.340,forced_choiceRT,2021.1.2,Win32,59.326056,,,,,,,,10,Ontime,f,1,2.0665,4,3,19,0,1,,,,,
,0.87,,,,,,,,,j.PNG,j,614dff99a7df5de140464ec3,2021-10-19_15h53.52.340,forced_choiceRT,2021.1.2,Win32,59.326056,,,,,,,,10,Ontime,j,1,2.0605,5,0,20,3,1,,,,,
,0.45,,,,,,,,,g.PNG,g,614dff99a7df5de140464ec3,2021-10-19_15h53.52.340,forced_choiceRT,2021.1.2,Win32,59.326056,,,,,,,,10,Ontime,g,1,1.9996,5,1,21,1,1,,,,,
,0.54,,,,,,,,,f.PNG,f,614dff99a7df5de140464ec3,2021-10-19_15h53.52.340,forced_choiceRT,2021.1.2,Win32,59.326056,,,,,,,,10,Ontime,f,1,2.0955,5,2,22,0,1,,,,,
,0.07,,,,,,,,,j.PNG,j,614dff99a7df5de140464ec3,2021-10-19_15h53.52.340,forced_choiceRT,2021.1.2,Win32,59.326056,,,,,,,,10,Ontime,j,1,2.006,5,3,23,3,1,,,,,
,0.7,,,,,,,,,g.PNG,g,614dff99a7df5de140464ec3,2021-10-19_15h53.52.340,forced_choiceRT,2021.1.2,Win32,59.326056,,,,,,,,10,Ontime,g,1,2.0293,6,0,24,1,1,,,,,
,0.98,,,,,,,,,h.PNG,h,614dff99a7df5de140464ec3,2021-10-19_15h53.52.340,forced_choiceRT,2021.1.2,Win32,59.326056,,,,,,,,10,Ontime,h,1,2.0209,6,1,25,2,1,,,,,
,1.98,,,,,,,,,f.PNG,f,614dff99a7df5de140464ec3,2021-10-19_15h53.52.340,forced_choiceRT,2021.1.2,Win32,59.326056,,,,,,,,10,Ontime,g,0,2.0334,6,2,26,0,1,,,,,
,1.07,,,,,,,,,j.PNG,j,614dff99a7df5de140464ec3,2021-10-19_15h53.52.340,forced_choiceRT,2021.1.2,Win32,59.326056,,,,,,,,10,Ontime,j,1,1.9208,6,3,27,3,1,,,,,
,0.1,,,,,,,,,f.PNG,f,614dff99a7df5de140464ec3,2021-10-19_15h53.52.340,forced_choiceRT,2021.1.2,Win32,59.326056,,,,,,,,10,Ontime,f,1,1.9997,7,0,28,0,1,,,,,
,0.66,,,,,,,,,f.PNG,f,614dff99a7df5de140464ec3,2021-10-19_15h53.52.340,forced_choiceRT,2021.1.2,Win32,59.326056,,,,,,,,10,Ontime,f,1,2.015,7,1,29,0,1,,,,,
,0.89,,,,,,,,,f.PNG,f,614dff99a7df5de140464ec3,2021-10-19_15h53.52.340,forced_choiceRT,2021.1.2,Win32,59.326056,,,,,,,,10,Ontime,f,1,1.9995,7,2,30,0,1,,,,,
,0.09,,,,,,,,,f.PNG,f,614dff99a7df5de140464ec3,2021-10-19_15h53.52.340,forced_choiceRT,2021.1.2,Win32,59.326056,,,,,,,,10,Fast,f,1,1.6492,7,3,31,0,1,,,,,
,1.76,,,,,,,,,j.PNG,j,614dff99a7df5de140464ec3,2021-10-19_15h53.52.340,forced_choiceRT,2021.1.2,Win32,59.326056,,,,,,,,10,Slow,h,0,2.3742,8,0,32,3,1,,,,,
,0.74,,,,,,,,,f.PNG,f,614dff99a7df5de140464ec3,2021-10-19_15h53.52.340,forced_choiceRT,2021.1.2,Win32,59.326056,,,,,,,,10,Slow,f,1,2.1119,8,1,33,0,1,,,,,
,1.97,,,,,,,,,h.PNG,h,614dff99a7df5de140464ec3,2021-10-19_15h53.52.340,forced_choiceRT,2021.1.2,Win32,59.326056,,,,,,,,10,Slow,g,0,2.1405,8,2,34,2,1,,,,,
,0,,,,,,,,,f.PNG,f,614dff99a7df5de140464ec3,2021-10-19_15h53.52.340,forced_choiceRT,2021.1.2,Win32,59.326056,,,,,,,,10,Ontime,f,1,2.0608,8,3,35,0,1,,,,,
,1.53,,,,,,,,,g.PNG,g,614dff99a7df5de140464ec3,2021-10-19_15h53.52.340,forced_choiceRT,2021.1.2,Win32,59.326056,,,,,,,,10,Ontime,h,0,2.0945,9,0,36,1,1,,,,,
,0.87,,,,,,,,,j.PNG,j,614dff99a7df5de140464ec3,2021-10-19_15h53.52.340,forced_choiceRT,2021.1.2,Win32,59.326056,,,,,,,,10,Ontime,j,1,2.0997,9,1,37,3,1,,,,,
,0.33,,,,,,,,,g.PNG,g,614dff99a7df5de140464ec3,2021-10-19_15h53.52.340,forced_choiceRT,2021.1.2,Win32,59.326056,,,,,,,,10,Ontime,g,1,1.9538,9,2,38,1,1,,,,,
,0.38,,,,,,,,,h.PNG,h,614dff99a7df5de140464ec3,2021-10-19_15h53.52.340,forced_choiceRT,2021.1.2,Win32,59.326056,,,,,,,,10,Slow,h,1,2.1004,9,3,39,2,1,,,,,
,,,,,,,,,,,,614dff99a7df5de140464ec3,2021-10-19_15h53.52.340,forced_choiceRT,2021.1.2,Win32,59.326056,,,,,,,,,,,,,,,,,,9,0,9,0,1
