IP_Addresss,target_onset,trial_resp_sp.keys,trial_resp_sp.corr,trial_resp_sp.rt,trials_train_loop.thisRepN,trials_train_loop.thisTrialN,trials_train_loop.thisN,trials_train_loop.thisIndex,trials_train_loop.ran,pic,correct_key,participant,date,expName,psychopyVersion,OS,frameRate,trial_resp_timing.keys,trial_resp_timing.rt,trials_train_timing.thisRepN,trials_train_timing.thisTrialN,trials_train_timing.thisN,trials_train_timing.thisIndex,trials_train_timing.ran,block_id,ontime,forcedRT_resp.keys,forcedRT_resp.corr,forcedRT_resp.rt,trials.thisRepN,trials.thisTrialN,trials.thisN,trials.thisIndex,trials.ran,blocks.thisRepN,blocks.thisTrialN,blocks.thisN,blocks.thisIndex,blocks.ran
104.8.118.163,0,h,1,6.5584,0,0,0,2,1,h.PNG,h,6150c10799b5a7741caf1dec,2021-10-19_14h46.01.393,forced_choiceRT,2021.1.2,Win32,59.94125757,,,,,,,,,,,,,,,,,,,,,,
,0,g,1,1.7647,0,1,1,1,1,g.PNG,g,6150c10799b5a7741caf1dec,2021-10-19_14h46.01.393,forced_choiceRT,2021.1.2,Win32,59.94125757,,,,,,,,,,,,,,,,,,,,,,
,0,g,1,2.6083,0,2,2,1,1,g.PNG,g,6150c10799b5a7741caf1dec,2021-10-19_14h46.01.393,forced_choiceRT,2021.1.2,Win32,59.94125757,,,,,,,,,,,,,,,,,,,,,,
,0,f,1,2.8356,0,3,3,0,1,f.PNG,f,6150c10799b5a7741caf1dec,2021-10-19_14h46.01.393,forced_choiceRT,2021.1.2,Win32,59.94125757,,,,,,,,,,,,,,,,,,,,,,
,0,f,1,1.6029,1,0,4,0,1,f.PNG,f,6150c10799b5a7741caf1dec,2021-10-19_14h46.01.393,forced_choiceRT,2021.1.2,Win32,59.94125757,,,,,,,,,,,,,,,,,,,,,,
,0,h,1,2.5141,1,1,5,2,1,h.PNG,h,6150c10799b5a7741caf1dec,2021-10-19_14h46.01.393,forced_choiceRT,2021.1.2,Win32,59.94125757,,,,,,,,,,,,,,,,,,,,,,
,0,g,1,2.6289,1,2,6,1,1,g.PNG,g,6150c10799b5a7741caf1dec,2021-10-19_14h46.01.393,forced_choiceRT,2021.1.2,Win32,59.94125757,,,,,,,,,,,,,,,,,,,,,,
,0,f,1,2.2012,1,3,7,0,1,f.PNG,f,6150c10799b5a7741caf1dec,2021-10-19_14h46.01.393,forced_choiceRT,2021.1.2,Win32,59.94125757,,,,,,,,,,,,,,,,,,,,,,
,0,j,1,2.5458,2,0,8,3,1,j.PNG,j,6150c10799b5a7741caf1dec,2021-10-19_14h46.01.393,forced_choiceRT,2021.1.2,Win32,59.94125757,,,,,,,,,,,,,,,,,,,,,,
,0,f,1,11.7178,2,1,9,0,1,f.PNG,f,6150c10799b5a7741caf1dec,2021-10-19_14h46.01.393,forced_choiceRT,2021.1.2,Win32,59.94125757,,,,,,,,,,,,,,,,,,,,,,
,0,h,1,1.2935,2,2,10,2,1,h.PNG,h,6150c10799b5a7741caf1dec,2021-10-19_14h46.01.393,forced_choiceRT,2021.1.2,Win32,59.94125757,,,,,,,,,,,,,,,,,,,,,,
,0,j,1,0.6339,2,3,11,3,1,j.PNG,j,6150c10799b5a7741caf1dec,2021-10-19_14h46.01.393,forced_choiceRT,2021.1.2,Win32,59.94125757,,,,,,,,,,,,,,,,,,,,,,
,0,h,1,0.7517,3,0,12,2,1,h.PNG,h,6150c10799b5a7741caf1dec,2021-10-19_14h46.01.393,forced_choiceRT,2021.1.2,Win32,59.94125757,,,,,,,,,,,,,,,,,,,,,,
,0,h,1,0.6152,3,1,13,2,1,h.PNG,h,6150c10799b5a7741caf1dec,2021-10-19_14h46.01.393,forced_choiceRT,2021.1.2,Win32,59.94125757,,,,,,,,,,,,,,,,,,,,,,
,0,f,1,1.2571,3,2,14,0,1,f.PNG,f,6150c10799b5a7741caf1dec,2021-10-19_14h46.01.393,forced_choiceRT,2021.1.2,Win32,59.94125757,,,,,,,,,,,,,,,,,,,,,,
,0,j,1,1.2577,3,3,15,3,1,j.PNG,j,6150c10799b5a7741caf1dec,2021-10-19_14h46.01.393,forced_choiceRT,2021.1.2,Win32,59.94125757,,,,,,,,,,,,,,,,,,,,,,
,0,f,1,1.3334,4,0,16,0,1,f.PNG,f,6150c10799b5a7741caf1dec,2021-10-19_14h46.01.393,forced_choiceRT,2021.1.2,Win32,59.94125757,,,,,,,,,,,,,,,,,,,,,,
,0,j,1,1.2088,4,1,17,3,1,j.PNG,j,6150c10799b5a7741caf1dec,2021-10-19_14h46.01.393,forced_choiceRT,2021.1.2,Win32,59.94125757,,,,,,,,,,,,,,,,,,,,,,
,0,f,1,1.4697,4,2,18,0,1,f.PNG,f,6150c10799b5a7741caf1dec,2021-10-19_14h46.01.393,forced_choiceRT,2021.1.2,Win32,59.94125757,,,,,,,,,,,,,,,,,,,,,,
,0,h,1,1.2949,4,3,19,2,1,h.PNG,h,6150c10799b5a7741caf1dec,2021-10-19_14h46.01.393,forced_choiceRT,2021.1.2,Win32,59.94125757,,,,,,,,,,,,,,,,,,,,,,
,0,h,1,1.7481,5,0,20,2,1,h.PNG,h,6150c10799b5a7741caf1dec,2021-10-19_14h46.01.393,forced_choiceRT,2021.1.2,Win32,59.94125757,,,,,,,,,,,,,,,,,,,,,,
,0,f,1,1.6912,5,1,21,0,1,f.PNG,f,6150c10799b5a7741caf1dec,2021-10-19_14h46.01.393,forced_choiceRT,2021.1.2,Win32,59.94125757,,,,,,,,,,,,,,,,,,,,,,
,0,h,1,1.6945,5,2,22,2,1,h.PNG,h,6150c10799b5a7741caf1dec,2021-10-19_14h46.01.393,forced_choiceRT,2021.1.2,Win32,59.94125757,,,,,,,,,,,,,,,,,,,,,,
,0,f,1,6.1297,5,3,23,0,1,f.PNG,f,6150c10799b5a7741caf1dec,2021-10-19_14h46.01.393,forced_choiceRT,2021.1.2,Win32,59.94125757,,,,,,,,,,,,,,,,,,,,,,
,0,g,1,1.119,6,0,24,1,1,g.PNG,g,6150c10799b5a7741caf1dec,2021-10-19_14h46.01.393,forced_choiceRT,2021.1.2,Win32,59.94125757,,,,,,,,,,,,,,,,,,,,,,
,0,g,1,1.0745,6,1,25,1,1,g.PNG,g,6150c10799b5a7741caf1dec,2021-10-19_14h46.01.393,forced_choiceRT,2021.1.2,Win32,59.94125757,,,,,,,,,,,,,,,,,,,,,,
,0,g,1,0.684,6,2,26,1,1,g.PNG,g,6150c10799b5a7741caf1dec,2021-10-19_14h46.01.393,forced_choiceRT,2021.1.2,Win32,59.94125757,,,,,,,,,,,,,,,,,,,,,,
,0,h,1,1.2239,6,3,27,2,1,h.PNG,h,6150c10799b5a7741caf1dec,2021-10-19_14h46.01.393,forced_choiceRT,2021.1.2,Win32,59.94125757,,,,,,,,,,,,,,,,,,,,,,
,0,h,1,1.1677,7,0,28,2,1,h.PNG,h,6150c10799b5a7741caf1dec,2021-10-19_14h46.01.393,forced_choiceRT,2021.1.2,Win32,59.94125757,,,,,,,,,,,,,,,,,,,,,,
,0,j,1,1.9099,7,1,29,3,1,j.PNG,j,6150c10799b5a7741caf1dec,2021-10-19_14h46.01.393,forced_choiceRT,2021.1.2,Win32,59.94125757,,,,,,,,,,,,,,,,,,,,,,
,0,g,1,1.3909,7,2,30,1,1,g.PNG,g,6150c10799b5a7741caf1dec,2021-10-19_14h46.01.393,forced_choiceRT,2021.1.2,Win32,59.94125757,,,,,,,,,,,,,,,,,,,,,,
,0,g,1,1.3491,7,3,31,1,1,g.PNG,g,6150c10799b5a7741caf1dec,2021-10-19_14h46.01.393,forced_choiceRT,2021.1.2,Win32,59.94125757,,,,,,,,,,,,,,,,,,,,,,
,0,g,1,0.806,8,0,32,1,1,g.PNG,g,6150c10799b5a7741caf1dec,2021-10-19_14h46.01.393,forced_choiceRT,2021.1.2,Win32,59.94125757,,,,,,,,,,,,,,,,,,,,,,
,0,h,1,1.7908,8,1,33,2,1,h.PNG,h,6150c10799b5a7741caf1dec,2021-10-19_14h46.01.393,forced_choiceRT,2021.1.2,Win32,59.94125757,,,,,,,,,,,,,,,,,,,,,,
,0,f,1,1.5378,8,2,34,0,1,f.PNG,f,6150c10799b5a7741caf1dec,2021-10-19_14h46.01.393,forced_choiceRT,2021.1.2,Win32,59.94125757,,,,,,,,,,,,,,,,,,,,,,
,0,j,1,4.3374,8,3,35,3,1,j.PNG,j,6150c10799b5a7741caf1dec,2021-10-19_14h46.01.393,forced_choiceRT,2021.1.2,Win32,59.94125757,,,,,,,,,,,,,,,,,,,,,,
,0,j,1,1.5696,9,0,36,3,1,j.PNG,j,6150c10799b5a7741caf1dec,2021-10-19_14h46.01.393,forced_choiceRT,2021.1.2,Win32,59.94125757,,,,,,,,,,,,,,,,,,,,,,
,0,f,1,1.2076,9,1,37,0,1,f.PNG,f,6150c10799b5a7741caf1dec,2021-10-19_14h46.01.393,forced_choiceRT,2021.1.2,Win32,59.94125757,,,,,,,,,,,,,,,,,,,,,,
,0,j,1,1.0396,9,2,38,3,1,j.PNG,j,6150c10799b5a7741caf1dec,2021-10-19_14h46.01.393,forced_choiceRT,2021.1.2,Win32,59.94125757,,,,,,,,,,,,,,,,,,,,,,
,0,g,1,1.0818,9,3,39,1,1,g.PNG,g,6150c10799b5a7741caf1dec,2021-10-19_14h46.01.393,forced_choiceRT,2021.1.2,Win32,59.94125757,,,,,,,,,,,,,,,,,,,,,,
,0,j,1,0.756,10,0,40,3,1,j.PNG,j,6150c10799b5a7741caf1dec,2021-10-19_14h46.01.393,forced_choiceRT,2021.1.2,Win32,59.94125757,,,,,,,,,,,,,,,,,,,,,,
,0,j,1,0.5112,10,1,41,3,1,j.PNG,j,6150c10799b5a7741caf1dec,2021-10-19_14h46.01.393,forced_choiceRT,2021.1.2,Win32,59.94125757,,,,,,,,,,,,,,,,,,,,,,
,0,f,1,1.1257,10,2,42,0,1,f.PNG,f,6150c10799b5a7741caf1dec,2021-10-19_14h46.01.393,forced_choiceRT,2021.1.2,Win32,59.94125757,,,,,,,,,,,,,,,,,,,,,,
,0,g,1,1.5598,10,3,43,1,1,g.PNG,g,6150c10799b5a7741caf1dec,2021-10-19_14h46.01.393,forced_choiceRT,2021.1.2,Win32,59.94125757,,,,,,,,,,,,,,,,,,,,,,
,0,h,1,1.082,11,0,44,2,1,h.PNG,h,6150c10799b5a7741caf1dec,2021-10-19_14h46.01.393,forced_choiceRT,2021.1.2,Win32,59.94125757,,,,,,,,,,,,,,,,,,,,,,
,0,j,1,1.8726,11,1,45,3,1,j.PNG,j,6150c10799b5a7741caf1dec,2021-10-19_14h46.01.393,forced_choiceRT,2021.1.2,Win32,59.94125757,,,,,,,,,,,,,,,,,,,,,,
,0,g,1,1.0865,11,2,46,1,1,g.PNG,g,6150c10799b5a7741caf1dec,2021-10-19_14h46.01.393,forced_choiceRT,2021.1.2,Win32,59.94125757,,,,,,,,,,,,,,,,,,,,,,
,0,h,1,1.5782,11,3,47,2,1,h.PNG,h,6150c10799b5a7741caf1dec,2021-10-19_14h46.01.393,forced_choiceRT,2021.1.2,Win32,59.94125757,,,,,,,,,,,,,,,,,,,,,,
,0,j,1,0.864,12,0,48,3,1,j.PNG,j,6150c10799b5a7741caf1dec,2021-10-19_14h46.01.393,forced_choiceRT,2021.1.2,Win32,59.94125757,,,,,,,,,,,,,,,,,,,,,,
,0,j,1,0.5198,12,1,49,3,1,j.PNG,j,6150c10799b5a7741caf1dec,2021-10-19_14h46.01.393,forced_choiceRT,2021.1.2,Win32,59.94125757,,,,,,,,,,,,,,,,,,,,,,
,0,f,1,0.8012,12,2,50,0,1,f.PNG,f,6150c10799b5a7741caf1dec,2021-10-19_14h46.01.393,forced_choiceRT,2021.1.2,Win32,59.94125757,,,,,,,,,,,,,,,,,,,,,,
,0,g,1,1.0823,12,3,51,1,1,g.PNG,g,6150c10799b5a7741caf1dec,2021-10-19_14h46.01.393,forced_choiceRT,2021.1.2,Win32,59.94125757,,,,,,,,,,,,,,,,,,,,,,
,0,g,1,0.873,13,0,52,1,1,g.PNG,g,6150c10799b5a7741caf1dec,2021-10-19_14h46.01.393,forced_choiceRT,2021.1.2,Win32,59.94125757,,,,,,,,,,,,,,,,,,,,,,
,0,j,1,0.8454,13,1,53,3,1,j.PNG,j,6150c10799b5a7741caf1dec,2021-10-19_14h46.01.393,forced_choiceRT,2021.1.2,Win32,59.94125757,,,,,,,,,,,,,,,,,,,,,,
,0,f,1,2.3845,13,2,54,0,1,f.PNG,f,6150c10799b5a7741caf1dec,2021-10-19_14h46.01.393,forced_choiceRT,2021.1.2,Win32,59.94125757,,,,,,,,,,,,,,,,,,,,,,
,0,j,1,0.8871,13,3,55,3,1,j.PNG,j,6150c10799b5a7741caf1dec,2021-10-19_14h46.01.393,forced_choiceRT,2021.1.2,Win32,59.94125757,,,,,,,,,,,,,,,,,,,,,,
,0,h,1,1.1661,14,0,56,2,1,h.PNG,h,6150c10799b5a7741caf1dec,2021-10-19_14h46.01.393,forced_choiceRT,2021.1.2,Win32,59.94125757,,,,,,,,,,,,,,,,,,,,,,
,0,g,1,0.9374,14,1,57,1,1,g.PNG,g,6150c10799b5a7741caf1dec,2021-10-19_14h46.01.393,forced_choiceRT,2021.1.2,Win32,59.94125757,,,,,,,,,,,,,,,,,,,,,,
,0,h,1,1.0052,14,2,58,2,1,h.PNG,h,6150c10799b5a7741caf1dec,2021-10-19_14h46.01.393,forced_choiceRT,2021.1.2,Win32,59.94125757,,,,,,,,,,,,,,,,,,,,,,
,0,f,1,0.914,14,3,59,0,1,f.PNG,f,6150c10799b5a7741caf1dec,2021-10-19_14h46.01.393,forced_choiceRT,2021.1.2,Win32,59.94125757,,,,,,,,,,,,,,,,,,,,,,
,,,,,,,,,,,,6150c10799b5a7741caf1dec,2021-10-19_14h46.01.393,forced_choiceRT,2021.1.2,Win32,59.94125757,h,5.9922,0,0,0,0,1,,,,,,,,,,,,,,,
,,,,,,,,,,,,6150c10799b5a7741caf1dec,2021-10-19_14h46.01.393,forced_choiceRT,2021.1.2,Win32,59.94125757,h,2.3777,1,0,1,0,1,,,,,,,,,,,,,,,
,,,,,,,,,,,,6150c10799b5a7741caf1dec,2021-10-19_14h46.01.393,forced_choiceRT,2021.1.2,Win32,59.94125757,h,1.8088,2,0,2,0,1,,,,,,,,,,,,,,,
,,,,,,,,,,,,6150c10799b5a7741caf1dec,2021-10-19_14h46.01.393,forced_choiceRT,2021.1.2,Win32,59.94125757,h,2.3204,3,0,3,0,1,,,,,,,,,,,,,,,
,,,,,,,,,,,,6150c10799b5a7741caf1dec,2021-10-19_14h46.01.393,forced_choiceRT,2021.1.2,Win32,59.94125757,h,2.2901,4,0,4,0,1,,,,,,,,,,,,,,,
,,,,,,,,,,,,6150c10799b5a7741caf1dec,2021-10-19_14h46.01.393,forced_choiceRT,2021.1.2,Win32,59.94125757,h,1.822,5,0,5,0,1,,,,,,,,,,,,,,,
,,,,,,,,,,,,6150c10799b5a7741caf1dec,2021-10-19_14h46.01.393,forced_choiceRT,2021.1.2,Win32,59.94125757,h,2.344,6,0,6,0,1,,,,,,,,,,,,,,,
,,,,,,,,,,,,6150c10799b5a7741caf1dec,2021-10-19_14h46.01.393,forced_choiceRT,2021.1.2,Win32,59.94125757,h,2.3288,7,0,7,0,1,,,,,,,,,,,,,,,
,,,,,,,,,,,,6150c10799b5a7741caf1dec,2021-10-19_14h46.01.393,forced_choiceRT,2021.1.2,Win32,59.94125757,h,2.3066,8,0,8,0,1,,,,,,,,,,,,,,,
,,,,,,,,,,,,6150c10799b5a7741caf1dec,2021-10-19_14h46.01.393,forced_choiceRT,2021.1.2,Win32,59.94125757,h,2.159,9,0,9,0,1,,,,,,,,,,,,,,,
,,,,,,,,,,,,6150c10799b5a7741caf1dec,2021-10-19_14h46.01.393,forced_choiceRT,2021.1.2,Win32,59.94125757,h,2.0962,10,0,10,0,1,,,,,,,,,,,,,,,
,,,,,,,,,,,,6150c10799b5a7741caf1dec,2021-10-19_14h46.01.393,forced_choiceRT,2021.1.2,Win32,59.94125757,h,1.7518,11,0,11,0,1,,,,,,,,,,,,,,,
,,,,,,,,,,,,6150c10799b5a7741caf1dec,2021-10-19_14h46.01.393,forced_choiceRT,2021.1.2,Win32,59.94125757,h,2.1362,12,0,12,0,1,,,,,,,,,,,,,,,
,,,,,,,,,,,,6150c10799b5a7741caf1dec,2021-10-19_14h46.01.393,forced_choiceRT,2021.1.2,Win32,59.94125757,h,2.0101,13,0,13,0,1,,,,,,,,,,,,,,,
,,,,,,,,,,,,6150c10799b5a7741caf1dec,2021-10-19_14h46.01.393,forced_choiceRT,2021.1.2,Win32,59.94125757,h,1.9614,14,0,14,0,1,,,,,,,,,,,,,,,
,,,,,,,,,,,,6150c10799b5a7741caf1dec,2021-10-19_14h46.01.393,forced_choiceRT,2021.1.2,Win32,59.94125757,h,2.0144,15,0,15,0,1,,,,,,,,,,,,,,,
,,,,,,,,,,,,6150c10799b5a7741caf1dec,2021-10-19_14h46.01.393,forced_choiceRT,2021.1.2,Win32,59.94125757,h,1.8565,16,0,16,0,1,,,,,,,,,,,,,,,
,,,,,,,,,,,,6150c10799b5a7741caf1dec,2021-10-19_14h46.01.393,forced_choiceRT,2021.1.2,Win32,59.94125757,h,1.9512,17,0,17,0,1,,,,,,,,,,,,,,,
,,,,,,,,,,,,6150c10799b5a7741caf1dec,2021-10-19_14h46.01.393,forced_choiceRT,2021.1.2,Win32,59.94125757,h,1.9848,18,0,18,0,1,,,,,,,,,,,,,,,
,,,,,,,,,,,,6150c10799b5a7741caf1dec,2021-10-19_14h46.01.393,forced_choiceRT,2021.1.2,Win32,59.94125757,h,1.9076,19,0,19,0,1,,,,,,,,,,,,,,,
,1.33,,,,,,,,,h.PNG,h,6150c10799b5a7741caf1dec,2021-10-19_14h46.01.393,forced_choiceRT,2021.1.2,Win32,59.94125757,,,,,,,,1,Slow,h,1,2.797,0,0,0,2,1,,,,,
,0.92,,,,,,,,,g.PNG,g,6150c10799b5a7741caf1dec,2021-10-19_14h46.01.393,forced_choiceRT,2021.1.2,Win32,59.94125757,,,,,,,,1,Slow,g,1,2.2395,0,1,1,1,1,,,,,
,0.02,,,,,,,,,f.PNG,f,6150c10799b5a7741caf1dec,2021-10-19_14h46.01.393,forced_choiceRT,2021.1.2,Win32,59.94125757,,,,,,,,1,Fast,f,1,1.8863,0,2,2,0,1,,,,,
,0.01,,,,,,,,,f.PNG,f,6150c10799b5a7741caf1dec,2021-10-19_14h46.01.393,forced_choiceRT,2021.1.2,Win32,59.94125757,,,,,,,,1,Slow,f,1,2.1449,0,3,3,0,1,,,,,
,1.04,,,,,,,,,h.PNG,h,6150c10799b5a7741caf1dec,2021-10-19_14h46.01.393,forced_choiceRT,2021.1.2,Win32,59.94125757,,,,,,,,1,Fast,j,0,1.831,1,0,4,2,1,,,,,
,0.36,,,,,,,,,j.PNG,j,6150c10799b5a7741caf1dec,2021-10-19_14h46.01.393,forced_choiceRT,2021.1.2,Win32,59.94125757,,,,,,,,1,Slow,j,1,2.1331,1,1,5,3,1,,,,,
,1.38,,,,,,,,,g.PNG,g,6150c10799b5a7741caf1dec,2021-10-19_14h46.01.393,forced_choiceRT,2021.1.2,Win32,59.94125757,,,,,,,,1,Slow,g,1,2.1712,1,2,6,1,1,,,,,
,0.99,,,,,,,,,h.PNG,h,6150c10799b5a7741caf1dec,2021-10-19_14h46.01.393,forced_choiceRT,2021.1.2,Win32,59.94125757,,,,,,,,1,Ontime,h,1,2.0163,1,3,7,2,1,,,,,
,1.17,,,,,,,,,j.PNG,j,6150c10799b5a7741caf1dec,2021-10-19_14h46.01.393,forced_choiceRT,2021.1.2,Win32,59.94125757,,,,,,,,1,Fast,j,1,1.8992,2,0,8,3,1,,,,,
,0.88,,,,,,,,,h.PNG,h,6150c10799b5a7741caf1dec,2021-10-19_14h46.01.393,forced_choiceRT,2021.1.2,Win32,59.94125757,,,,,,,,1,Fast,h,1,1.8499,2,1,9,2,1,,,,,
,0.28,,,,,,,,,h.PNG,h,6150c10799b5a7741caf1dec,2021-10-19_14h46.01.393,forced_choiceRT,2021.1.2,Win32,59.94125757,,,,,,,,1,Slow,h,1,2.1235,2,2,10,2,1,,,,,
,1.52,,,,,,,,,g.PNG,g,6150c10799b5a7741caf1dec,2021-10-19_14h46.01.393,forced_choiceRT,2021.1.2,Win32,59.94125757,,,,,,,,1,Ontime,g,1,2.0475,2,3,11,1,1,,,,,
,1.76,,,,,,,,,h.PNG,h,6150c10799b5a7741caf1dec,2021-10-19_14h46.01.393,forced_choiceRT,2021.1.2,Win32,59.94125757,,,,,,,,1,Slow,j,0,2.42,3,0,12,2,1,,,,,
,0.22,,,,,,,,,g.PNG,g,6150c10799b5a7741caf1dec,2021-10-19_14h46.01.393,forced_choiceRT,2021.1.2,Win32,59.94125757,,,,,,,,1,Ontime,g,1,2.0046,3,1,13,1,1,,,,,
,1.71,,,,,,,,,g.PNG,g,6150c10799b5a7741caf1dec,2021-10-19_14h46.01.393,forced_choiceRT,2021.1.2,Win32,59.94125757,,,,,,,,1,Slow,h,0,2.1642,3,2,14,1,1,,,,,
,1.89,,,,,,,,,h.PNG,h,6150c10799b5a7741caf1dec,2021-10-19_14h46.01.393,forced_choiceRT,2021.1.2,Win32,59.94125757,,,,,,,,1,Slow,h,1,2.4899,3,3,15,2,1,,,,,
,1.29,,,,,,,,,j.PNG,j,6150c10799b5a7741caf1dec,2021-10-19_14h46.01.393,forced_choiceRT,2021.1.2,Win32,59.94125757,,,,,,,,1,Ontime,j,1,2.0823,4,0,16,3,1,,,,,
,1.75,,,,,,,,,j.PNG,j,6150c10799b5a7741caf1dec,2021-10-19_14h46.01.393,forced_choiceRT,2021.1.2,Win32,59.94125757,,,,,,,,1,Slow,h,0,2.2761,4,1,17,3,1,,,,,
,1.99,,,,,,,,,h.PNG,h,6150c10799b5a7741caf1dec,2021-10-19_14h46.01.393,forced_choiceRT,2021.1.2,Win32,59.94125757,,,,,,,,1,Slow,h,1,4.8771,4,2,18,2,1,,,,,
,1.52,,,,,,,,,f.PNG,f,6150c10799b5a7741caf1dec,2021-10-19_14h46.01.393,forced_choiceRT,2021.1.2,Win32,59.94125757,,,,,,,,1,Ontime,j,0,1.9648,4,3,19,0,1,,,,,
,1.09,,,,,,,,,f.PNG,f,6150c10799b5a7741caf1dec,2021-10-19_14h46.01.393,forced_choiceRT,2021.1.2,Win32,59.94125757,,,,,,,,1,Ontime,f,1,1.9809,5,0,20,0,1,,,,,
,0.2,,,,,,,,,f.PNG,f,6150c10799b5a7741caf1dec,2021-10-19_14h46.01.393,forced_choiceRT,2021.1.2,Win32,59.94125757,,,,,,,,1,Fast,f,1,1.8828,5,1,21,0,1,,,,,
,1.54,,,,,,,,,g.PNG,g,6150c10799b5a7741caf1dec,2021-10-19_14h46.01.393,forced_choiceRT,2021.1.2,Win32,59.94125757,,,,,,,,1,Slow,h,0,2.2864,5,2,22,1,1,,,,,
,1,,,,,,,,,g.PNG,g,6150c10799b5a7741caf1dec,2021-10-19_14h46.01.393,forced_choiceRT,2021.1.2,Win32,59.94125757,,,,,,,,1,Ontime,g,1,2.0327,5,3,23,1,1,,,,,
,0.79,,,,,,,,,j.PNG,j,6150c10799b5a7741caf1dec,2021-10-19_14h46.01.393,forced_choiceRT,2021.1.2,Win32,59.94125757,,,,,,,,1,Fast,j,1,1.8171,6,0,24,3,1,,,,,
,1.79,,,,,,,,,g.PNG,g,6150c10799b5a7741caf1dec,2021-10-19_14h46.01.393,forced_choiceRT,2021.1.2,Win32,59.94125757,,,,,,,,1,Slow,g,1,2.4183,6,1,25,1,1,,,,,
,0.76,,,,,,,,,h.PNG,h,6150c10799b5a7741caf1dec,2021-10-19_14h46.01.393,forced_choiceRT,2021.1.2,Win32,59.94125757,,,,,,,,1,Fast,h,1,1.8793,6,2,26,2,1,,,,,
,1.94,,,,,,,,,f.PNG,f,6150c10799b5a7741caf1dec,2021-10-19_14h46.01.393,forced_choiceRT,2021.1.2,Win32,59.94125757,,,,,,,,1,Slow,f,1,2.4271,6,3,27,0,1,,,,,
,1.43,,,,,,,,,j.PNG,j,6150c10799b5a7741caf1dec,2021-10-19_14h46.01.393,forced_choiceRT,2021.1.2,Win32,59.94125757,,,,,,,,1,Ontime,h,0,2.082,7,0,28,3,1,,,,,
,1.17,,,,,,,,,h.PNG,h,6150c10799b5a7741caf1dec,2021-10-19_14h46.01.393,forced_choiceRT,2021.1.2,Win32,59.94125757,,,,,,,,1,Fast,h,1,1.8632,7,1,29,2,1,,,,,
,0.83,,,,,,,,,g.PNG,g,6150c10799b5a7741caf1dec,2021-10-19_14h46.01.393,forced_choiceRT,2021.1.2,Win32,59.94125757,,,,,,,,1,Fast,f,0,1.676,7,2,30,1,1,,,,,
,1.26,,,,,,,,,f.PNG,f,6150c10799b5a7741caf1dec,2021-10-19_14h46.01.393,forced_choiceRT,2021.1.2,Win32,59.94125757,,,,,,,,1,Slow,h,0,2.1133,7,3,31,0,1,,,,,
,0.22,,,,,,,,,f.PNG,f,6150c10799b5a7741caf1dec,2021-10-19_14h46.01.393,forced_choiceRT,2021.1.2,Win32,59.94125757,,,,,,,,1,Ontime,f,1,1.9082,8,0,32,0,1,,,,,
,1.48,,,,,,,,,j.PNG,j,6150c10799b5a7741caf1dec,2021-10-19_14h46.01.393,forced_choiceRT,2021.1.2,Win32,59.94125757,,,,,,,,1,Slow,j,1,2.3262,8,1,33,3,1,,,,,
,1.17,,,,,,,,,j.PNG,j,6150c10799b5a7741caf1dec,2021-10-19_14h46.01.393,forced_choiceRT,2021.1.2,Win32,59.94125757,,,,,,,,1,Ontime,j,1,2.0479,8,2,34,3,1,,,,,
,0.99,,,,,,,,,j.PNG,j,6150c10799b5a7741caf1dec,2021-10-19_14h46.01.393,forced_choiceRT,2021.1.2,Win32,59.94125757,,,,,,,,1,Ontime,j,1,2.092,8,3,35,3,1,,,,,
,1.59,,,,,,,,,f.PNG,f,6150c10799b5a7741caf1dec,2021-10-19_14h46.01.393,forced_choiceRT,2021.1.2,Win32,59.94125757,,,,,,,,1,Slow,g,0,2.3564,9,0,36,0,1,,,,,
,0.98,,,,,,,,,f.PNG,f,6150c10799b5a7741caf1dec,2021-10-19_14h46.01.393,forced_choiceRT,2021.1.2,Win32,59.94125757,,,,,,,,1,Slow,f,1,2.2922,9,1,37,0,1,,,,,
,0.03,,,,,,,,,j.PNG,j,6150c10799b5a7741caf1dec,2021-10-19_14h46.01.393,forced_choiceRT,2021.1.2,Win32,59.94125757,,,,,,,,1,Fast,j,1,1.8177,9,2,38,3,1,,,,,
,0.33,,,,,,,,,g.PNG,g,6150c10799b5a7741caf1dec,2021-10-19_14h46.01.393,forced_choiceRT,2021.1.2,Win32,59.94125757,,,,,,,,1,Slow,g,1,2.1056,9,3,39,1,1,,,,,
,,,,,,,,,,,,6150c10799b5a7741caf1dec,2021-10-19_14h46.01.393,forced_choiceRT,2021.1.2,Win32,59.94125757,,,,,,,,,,,,,,,,,,0,0,0,0,1
,0.69,,,,,,,,,h.PNG,h,6150c10799b5a7741caf1dec,2021-10-19_14h46.01.393,forced_choiceRT,2021.1.2,Win32,59.94125757,,,,,,,,2,Fast,h,1,1.7442,0,0,0,2,1,,,,,
,0.34,,,,,,,,,h.PNG,h,6150c10799b5a7741caf1dec,2021-10-19_14h46.01.393,forced_choiceRT,2021.1.2,Win32,59.94125757,,,,,,,,2,Fast,h,1,1.8258,0,1,1,2,1,,,,,
,0.76,,,,,,,,,f.PNG,f,6150c10799b5a7741caf1dec,2021-10-19_14h46.01.393,forced_choiceRT,2021.1.2,Win32,59.94125757,,,,,,,,2,Slow,f,1,2.1038,0,2,2,0,1,,,,,
,1.4,,,,,,,,,g.PNG,g,6150c10799b5a7741caf1dec,2021-10-19_14h46.01.393,forced_choiceRT,2021.1.2,Win32,59.94125757,,,,,,,,2,Slow,f,0,2.168,0,3,3,1,1,,,,,
,1.11,,,,,,,,,h.PNG,h,6150c10799b5a7741caf1dec,2021-10-19_14h46.01.393,forced_choiceRT,2021.1.2,Win32,59.94125757,,,,,,,,2,Fast,j,0,1.84,1,0,4,2,1,,,,,
,1.83,,,,,,,,,j.PNG,j,6150c10799b5a7741caf1dec,2021-10-19_14h46.01.393,forced_choiceRT,2021.1.2,Win32,59.94125757,,,,,,,,2,Slow,g,0,2.2925,1,1,5,3,1,,,,,
,0.22,,,,,,,,,f.PNG,f,6150c10799b5a7741caf1dec,2021-10-19_14h46.01.393,forced_choiceRT,2021.1.2,Win32,59.94125757,,,,,,,,2,Ontime,f,1,2.0879,1,2,6,0,1,,,,,
,1.07,,,,,,,,,f.PNG,f,6150c10799b5a7741caf1dec,2021-10-19_14h46.01.393,forced_choiceRT,2021.1.2,Win32,59.94125757,,,,,,,,2,Slow,f,1,3.5682,1,3,7,0,1,,,,,
,1.43,,,,,,,,,f.PNG,f,6150c10799b5a7741caf1dec,2021-10-19_14h46.01.393,forced_choiceRT,2021.1.2,Win32,59.94125757,,,,,,,,2,Slow,f,1,2.1664,2,0,8,0,1,,,,,
,1.85,,,,,,,,,f.PNG,f,6150c10799b5a7741caf1dec,2021-10-19_14h46.01.393,forced_choiceRT,2021.1.2,Win32,59.94125757,,,,,,,,2,Slow,g,0,2.3201,2,1,9,0,1,,,,,
,0.97,,,,,,,,,f.PNG,f,6150c10799b5a7741caf1dec,2021-10-19_14h46.01.393,forced_choiceRT,2021.1.2,Win32,59.94125757,,,,,,,,2,Fast,f,1,1.821,2,2,10,0,1,,,,,
,0.93,,,,,,,,,f.PNG,f,6150c10799b5a7741caf1dec,2021-10-19_14h46.01.393,forced_choiceRT,2021.1.2,Win32,59.94125757,,,,,,,,2,Ontime,f,1,2.0653,2,3,11,0,1,,,,,
,0.97,,,,,,,,,j.PNG,j,6150c10799b5a7741caf1dec,2021-10-19_14h46.01.393,forced_choiceRT,2021.1.2,Win32,59.94125757,,,,,,,,2,Ontime,j,1,1.9652,3,0,12,3,1,,,,,
,1.83,,,,,,,,,h.PNG,h,6150c10799b5a7741caf1dec,2021-10-19_14h46.01.393,forced_choiceRT,2021.1.2,Win32,59.94125757,,,,,,,,2,Slow,h,1,2.3952,3,1,13,2,1,,,,,
,0.42,,,,,,,,,j.PNG,j,6150c10799b5a7741caf1dec,2021-10-19_14h46.01.393,forced_choiceRT,2021.1.2,Win32,59.94125757,,,,,,,,2,Fast,j,1,1.7709,3,2,14,3,1,,,,,
,0.86,,,,,,,,,g.PNG,g,6150c10799b5a7741caf1dec,2021-10-19_14h46.01.393,forced_choiceRT,2021.1.2,Win32,59.94125757,,,,,,,,2,Slow,g,1,2.2184,3,3,15,1,1,,,,,
,1.35,,,,,,,,,j.PNG,j,6150c10799b5a7741caf1dec,2021-10-19_14h46.01.393,forced_choiceRT,2021.1.2,Win32,59.94125757,,,,,,,,2,Ontime,j,1,2.0292,4,0,16,3,1,,,,,
,1.47,,,,,,,,,h.PNG,h,6150c10799b5a7741caf1dec,2021-10-19_14h46.01.393,forced_choiceRT,2021.1.2,Win32,59.94125757,,,,,,,,2,Slow,j,0,2.1228,4,1,17,2,1,,,,,
,0.27,,,,,,,,,h.PNG,h,6150c10799b5a7741caf1dec,2021-10-19_14h46.01.393,forced_choiceRT,2021.1.2,Win32,59.94125757,,,,,,,,2,Fast,h,1,1.776,4,2,18,2,1,,,,,
,1.74,,,,,,,,,g.PNG,g,6150c10799b5a7741caf1dec,2021-10-19_14h46.01.393,forced_choiceRT,2021.1.2,Win32,59.94125757,,,,,,,,2,Slow,j,0,2.2951,4,3,19,1,1,,,,,
,1.71,,,,,,,,,g.PNG,g,6150c10799b5a7741caf1dec,2021-10-19_14h46.01.393,forced_choiceRT,2021.1.2,Win32,59.94125757,,,,,,,,2,Slow,h,0,2.4962,5,0,20,1,1,,,,,
,0.04,,,,,,,,,j.PNG,j,6150c10799b5a7741caf1dec,2021-10-19_14h46.01.393,forced_choiceRT,2021.1.2,Win32,59.94125757,,,,,,,,2,Ontime,j,1,1.9361,5,1,21,3,1,,,,,
,1.09,,,,,,,,,f.PNG,f,6150c10799b5a7741caf1dec,2021-10-19_14h46.01.393,forced_choiceRT,2021.1.2,Win32,59.94125757,,,,,,,,2,Ontime,f,1,2.0988,5,2,22,0,1,,,,,
,1.92,,,,,,,,,j.PNG,j,6150c10799b5a7741caf1dec,2021-10-19_14h46.01.393,forced_choiceRT,2021.1.2,Win32,59.94125757,,,,,,,,2,Slow,f,0,2.4665,5,3,23,3,1,,,,,
,1.98,,,,,,,,,g.PNG,g,6150c10799b5a7741caf1dec,2021-10-19_14h46.01.393,forced_choiceRT,2021.1.2,Win32,59.94125757,,,,,,,,2,Slow,g,1,4.5232,6,0,24,1,1,,,,,
,1.62,,,,,,,,,g.PNG,g,6150c10799b5a7741caf1dec,2021-10-19_14h46.01.393,forced_choiceRT,2021.1.2,Win32,59.94125757,,,,,,,,2,Slow,g,1,2.265,6,1,25,1,1,,,,,
,1.34,,,,,,,,,j.PNG,j,6150c10799b5a7741caf1dec,2021-10-19_14h46.01.393,forced_choiceRT,2021.1.2,Win32,59.94125757,,,,,,,,2,Slow,j,1,2.1643,6,2,26,3,1,,,,,
,1.56,,,,,,,,,f.PNG,f,6150c10799b5a7741caf1dec,2021-10-19_14h46.01.393,forced_choiceRT,2021.1.2,Win32,59.94125757,,,,,,,,2,Slow,g,0,2.15,6,3,27,0,1,,,,,
,1.46,,,,,,,,,g.PNG,g,6150c10799b5a7741caf1dec,2021-10-19_14h46.01.393,forced_choiceRT,2021.1.2,Win32,59.94125757,,,,,,,,2,Slow,f,0,2.2971,7,0,28,1,1,,,,,
,0.72,,,,,,,,,g.PNG,g,6150c10799b5a7741caf1dec,2021-10-19_14h46.01.393,forced_choiceRT,2021.1.2,Win32,59.94125757,,,,,,,,2,Fast,g,1,1.5318,7,1,29,1,1,,,,,
,0.56,,,,,,,,,j.PNG,j,6150c10799b5a7741caf1dec,2021-10-19_14h46.01.393,forced_choiceRT,2021.1.2,Win32,59.94125757,,,,,,,,2,Ontime,j,1,1.9114,7,2,30,3,1,,,,,
,1.55,,,,,,,,,h.PNG,h,6150c10799b5a7741caf1dec,2021-10-19_14h46.01.393,forced_choiceRT,2021.1.2,Win32,59.94125757,,,,,,,,2,Slow,g,0,2.2415,7,3,31,2,1,,,,,
,1.81,,,,,,,,,h.PNG,h,6150c10799b5a7741caf1dec,2021-10-19_14h46.01.393,forced_choiceRT,2021.1.2,Win32,59.94125757,,,,,,,,2,Slow,f,0,2.1894,8,0,32,2,1,,,,,
,0.29,,,,,,,,,j.PNG,j,6150c10799b5a7741caf1dec,2021-10-19_14h46.01.393,forced_choiceRT,2021.1.2,Win32,59.94125757,,,,,,,,2,Ontime,h,0,1.9062,8,1,33,3,1,,,,,
,1.11,,,,,,,,,g.PNG,g,6150c10799b5a7741caf1dec,2021-10-19_14h46.01.393,forced_choiceRT,2021.1.2,Win32,59.94125757,,,,,,,,2,Fast,g,1,1.8893,8,2,34,1,1,,,,,
,1.21,,,,,,,,,j.PNG,j,6150c10799b5a7741caf1dec,2021-10-19_14h46.01.393,forced_choiceRT,2021.1.2,Win32,59.94125757,,,,,,,,2,Slow,h,0,2.3028,8,3,35,3,1,,,,,
,0.53,,,,,,,,,h.PNG,h,6150c10799b5a7741caf1dec,2021-10-19_14h46.01.393,forced_choiceRT,2021.1.2,Win32,59.94125757,,,,,,,,2,Fast,h,1,1.8218,9,0,36,2,1,,,,,
,1.89,,,,,,,,,f.PNG,f,6150c10799b5a7741caf1dec,2021-10-19_14h46.01.393,forced_choiceRT,2021.1.2,Win32,59.94125757,,,,,,,,2,Slow,g,0,2.4701,9,1,37,0,1,,,,,
,0.47,,,,,,,,,h.PNG,h,6150c10799b5a7741caf1dec,2021-10-19_14h46.01.393,forced_choiceRT,2021.1.2,Win32,59.94125757,,,,,,,,2,Fast,h,1,1.7908,9,2,38,2,1,,,,,
,1.56,,,,,,,,,g.PNG,g,6150c10799b5a7741caf1dec,2021-10-19_14h46.01.393,forced_choiceRT,2021.1.2,Win32,59.94125757,,,,,,,,2,Slow,g,1,2.1698,9,3,39,1,1,,,,,
,,,,,,,,,,,,6150c10799b5a7741caf1dec,2021-10-19_14h46.01.393,forced_choiceRT,2021.1.2,Win32,59.94125757,,,,,,,,,,,,,,,,,,1,0,1,0,1
,0.06,,,,,,,,,j.PNG,j,6150c10799b5a7741caf1dec,2021-10-19_14h46.01.393,forced_choiceRT,2021.1.2,Win32,59.94125757,,,,,,,,3,Ontime,j,1,2.0611,0,0,0,3,1,,,,,
,1.97,,,,,,,,,h.PNG,h,6150c10799b5a7741caf1dec,2021-10-19_14h46.01.393,forced_choiceRT,2021.1.2,Win32,59.94125757,,,,,,,,3,Slow,h,1,3.0669,0,1,1,2,1,,,,,
,0.5,,,,,,,,,h.PNG,h,6150c10799b5a7741caf1dec,2021-10-19_14h46.01.393,forced_choiceRT,2021.1.2,Win32,59.94125757,,,,,,,,3,Ontime,h,1,2.0412,0,2,2,2,1,,,,,
,1.17,,,,,,,,,f.PNG,f,6150c10799b5a7741caf1dec,2021-10-19_14h46.01.393,forced_choiceRT,2021.1.2,Win32,59.94125757,,,,,,,,3,Slow,f,1,2.2708,0,3,3,0,1,,,,,
,1.64,,,,,,,,,g.PNG,g,6150c10799b5a7741caf1dec,2021-10-19_14h46.01.393,forced_choiceRT,2021.1.2,Win32,59.94125757,,,,,,,,3,Slow,g,1,2.2488,1,0,4,1,1,,,,,
,0.25,,,,,,,,,j.PNG,j,6150c10799b5a7741caf1dec,2021-10-19_14h46.01.393,forced_choiceRT,2021.1.2,Win32,59.94125757,,,,,,,,3,Fast,h,0,1.8177,1,1,5,3,1,,,,,
,0.42,,,,,,,,,f.PNG,f,6150c10799b5a7741caf1dec,2021-10-19_14h46.01.393,forced_choiceRT,2021.1.2,Win32,59.94125757,,,,,,,,3,Ontime,f,1,2.0766,1,2,6,0,1,,,,,
,0.77,,,,,,,,,g.PNG,g,6150c10799b5a7741caf1dec,2021-10-19_14h46.01.393,forced_choiceRT,2021.1.2,Win32,59.94125757,,,,,,,,3,Fast,g,1,1.7857,1,3,7,1,1,,,,,
,1.28,,,,,,,,,f.PNG,f,6150c10799b5a7741caf1dec,2021-10-19_14h46.01.393,forced_choiceRT,2021.1.2,Win32,59.94125757,,,,,,,,3,Slow,f,1,2.1277,2,0,8,0,1,,,,,
,0.95,,,,,,,,,h.PNG,h,6150c10799b5a7741caf1dec,2021-10-19_14h46.01.393,forced_choiceRT,2021.1.2,Win32,59.94125757,,,,,,,,3,Slow,h,1,2.1188,2,1,9,2,1,,,,,
,0.33,,,,,,,,,g.PNG,g,6150c10799b5a7741caf1dec,2021-10-19_14h46.01.393,forced_choiceRT,2021.1.2,Win32,59.94125757,,,,,,,,3,Ontime,g,1,2.0343,2,2,10,1,1,,,,,
,1.56,,,,,,,,,h.PNG,h,6150c10799b5a7741caf1dec,2021-10-19_14h46.01.393,forced_choiceRT,2021.1.2,Win32,59.94125757,,,,,,,,3,Slow,j,0,2.1798,2,3,11,2,1,,,,,
,1.78,,,,,,,,,j.PNG,j,6150c10799b5a7741caf1dec,2021-10-19_14h46.01.393,forced_choiceRT,2021.1.2,Win32,59.94125757,,,,,,,,3,Slow,g,0,2.2869,3,0,12,3,1,,,,,
,0.92,,,,,,,,,j.PNG,j,6150c10799b5a7741caf1dec,2021-10-19_14h46.01.393,forced_choiceRT,2021.1.2,Win32,59.94125757,,,,,,,,3,Ontime,j,1,2.0364,3,1,13,3,1,,,,,
,0.34,,,,,,,,,j.PNG,j,6150c10799b5a7741caf1dec,2021-10-19_14h46.01.393,forced_choiceRT,2021.1.2,Win32,59.94125757,,,,,,,,3,Slow,j,1,2.1132,3,2,14,3,1,,,,,
,0.79,,,,,,,,,g.PNG,g,6150c10799b5a7741caf1dec,2021-10-19_14h46.01.393,forced_choiceRT,2021.1.2,Win32,59.94125757,,,,,,,,3,Ontime,g,1,1.9619,3,3,15,1,1,,,,,
,0.77,,,,,,,,,f.PNG,f,6150c10799b5a7741caf1dec,2021-10-19_14h46.01.393,forced_choiceRT,2021.1.2,Win32,59.94125757,,,,,,,,3,Ontime,f,1,1.9366,4,0,16,0,1,,,,,
,0.68,,,,,,,,,h.PNG,h,6150c10799b5a7741caf1dec,2021-10-19_14h46.01.393,forced_choiceRT,2021.1.2,Win32,59.94125757,,,,,,,,3,Ontime,j,0,1.981,4,1,17,2,1,,,,,
,0.19,,,,,,,,,j.PNG,j,6150c10799b5a7741caf1dec,2021-10-19_14h46.01.393,forced_choiceRT,2021.1.2,Win32,59.94125757,,,,,,,,3,Fast,j,1,1.8863,4,2,18,3,1,,,,,
,0.91,,,,,,,,,f.PNG,f,6150c10799b5a7741caf1dec,2021-10-19_14h46.01.393,forced_choiceRT,2021.1.2,Win32,59.94125757,,,,,,,,3,Ontime,f,1,1.9923,4,3,19,0,1,,,,,
,0.51,,,,,,,,,j.PNG,j,6150c10799b5a7741caf1dec,2021-10-19_14h46.01.393,forced_choiceRT,2021.1.2,Win32,59.94125757,,,,,,,,3,Ontime,j,1,1.9432,5,0,20,3,1,,,,,
,0.44,,,,,,,,,f.PNG,f,6150c10799b5a7741caf1dec,2021-10-19_14h46.01.393,forced_choiceRT,2021.1.2,Win32,59.94125757,,,,,,,,3,Fast,f,1,1.8684,5,1,21,0,1,,,,,
,0.26,,,,,,,,,f.PNG,f,6150c10799b5a7741caf1dec,2021-10-19_14h46.01.393,forced_choiceRT,2021.1.2,Win32,59.94125757,,,,,,,,3,Ontime,f,1,2.0636,5,2,22,0,1,,,,,
,0.33,,,,,,,,,f.PNG,f,6150c10799b5a7741caf1dec,2021-10-19_14h46.01.393,forced_choiceRT,2021.1.2,Win32,59.94125757,,,,,,,,3,Ontime,f,1,2.0138,5,3,23,0,1,,,,,
,1.49,,,,,,,,,j.PNG,j,6150c10799b5a7741caf1dec,2021-10-19_14h46.01.393,forced_choiceRT,2021.1.2,Win32,59.94125757,,,,,,,,3,Slow,j,1,2.1333,6,0,24,3,1,,,,,
,1.86,,,,,,,,,h.PNG,h,6150c10799b5a7741caf1dec,2021-10-19_14h46.01.393,forced_choiceRT,2021.1.2,Win32,59.94125757,,,,,,,,3,Slow,j,0,2.368,6,1,25,2,1,,,,,
,1.47,,,,,,,,,g.PNG,g,6150c10799b5a7741caf1dec,2021-10-19_14h46.01.393,forced_choiceRT,2021.1.2,Win32,59.94125757,,,,,,,,3,Slow,g,1,2.24,6,2,26,1,1,,,,,
,1.15,,,,,,,,,g.PNG,g,6150c10799b5a7741caf1dec,2021-10-19_14h46.01.393,forced_choiceRT,2021.1.2,Win32,59.94125757,,,,,,,,3,Slow,h,0,2.5052,6,3,27,1,1,,,,,
,1.11,,,,,,,,,f.PNG,f,6150c10799b5a7741caf1dec,2021-10-19_14h46.01.393,forced_choiceRT,2021.1.2,Win32,59.94125757,,,,,,,,3,Ontime,f,1,1.9761,7,0,28,0,1,,,,,
,1.24,,,,,,,,,h.PNG,h,6150c10799b5a7741caf1dec,2021-10-19_14h46.01.393,forced_choiceRT,2021.1.2,Win32,59.94125757,,,,,,,,3,Slow,h,1,2.2785,7,1,29,2,1,,,,,
,0.22,,,,,,,,,g.PNG,g,6150c10799b5a7741caf1dec,2021-10-19_14h46.01.393,forced_choiceRT,2021.1.2,Win32,59.94125757,,,,,,,,3,Fast,g,1,1.843,7,2,30,1,1,,,,,
,1.54,,,,,,,,,f.PNG,f,6150c10799b5a7741caf1dec,2021-10-19_14h46.01.393,forced_choiceRT,2021.1.2,Win32,59.94125757,,,,,,,,3,Slow,f,1,2.3508,7,3,31,0,1,,,,,
,0.51,,,,,,,,,h.PNG,h,6150c10799b5a7741caf1dec,2021-10-19_14h46.01.393,forced_choiceRT,2021.1.2,Win32,59.94125757,,,,,,,,3,Slow,f,0,433.1916,8,0,32,2,1,,,,,
,0.54,,,,,,,,,j.PNG,j,6150c10799b5a7741caf1dec,2021-10-19_14h46.01.393,forced_choiceRT,2021.1.2,Win32,59.94125757,,,,,,,,3,Fast,h,0,1.6063,8,1,33,3,1,,,,,
,1.8,,,,,,,,,h.PNG,h,6150c10799b5a7741caf1dec,2021-10-19_14h46.01.393,forced_choiceRT,2021.1.2,Win32,59.94125757,,,,,,,,3,Slow,f,0,2.2657,8,2,34,2,1,,,,,
,1.52,,,,,,,,,g.PNG,g,6150c10799b5a7741caf1dec,2021-10-19_14h46.01.393,forced_choiceRT,2021.1.2,Win32,59.94125757,,,,,,,,3,Slow,g,1,2.2118,8,3,35,1,1,,,,,
,1.48,,,,,,,,,h.PNG,h,6150c10799b5a7741caf1dec,2021-10-19_14h46.01.393,forced_choiceRT,2021.1.2,Win32,59.94125757,,,,,,,,3,Slow,h,1,2.1185,9,0,36,2,1,,,,,
,0.85,,,,,,,,,g.PNG,g,6150c10799b5a7741caf1dec,2021-10-19_14h46.01.393,forced_choiceRT,2021.1.2,Win32,59.94125757,,,,,,,,3,Ontime,f,0,2.0801,9,1,37,1,1,,,,,
,1.26,,,,,,,,,j.PNG,j,6150c10799b5a7741caf1dec,2021-10-19_14h46.01.393,forced_choiceRT,2021.1.2,Win32,59.94125757,,,,,,,,3,Slow,h,0,2.2005,9,2,38,3,1,,,,,
,1.2,,,,,,,,,g.PNG,g,6150c10799b5a7741caf1dec,2021-10-19_14h46.01.393,forced_choiceRT,2021.1.2,Win32,59.94125757,,,,,,,,3,Ontime,f,0,1.994,9,3,39,1,1,,,,,
,,,,,,,,,,,,6150c10799b5a7741caf1dec,2021-10-19_14h46.01.393,forced_choiceRT,2021.1.2,Win32,59.94125757,,,,,,,,,,,,,,,,,,2,0,2,0,1
,1.42,,,,,,,,,f.PNG,f,6150c10799b5a7741caf1dec,2021-10-19_14h46.01.393,forced_choiceRT,2021.1.2,Win32,59.94125757,,,,,,,,4,Slow,h,0,2.5113,0,0,0,0,1,,,,,
,0.29,,,,,,,,,f.PNG,f,6150c10799b5a7741caf1dec,2021-10-19_14h46.01.393,forced_choiceRT,2021.1.2,Win32,59.94125757,,,,,,,,4,Fast,f,1,1.8726,0,1,1,0,1,,,,,
,0.51,,,,,,,,,g.PNG,g,6150c10799b5a7741caf1dec,2021-10-19_14h46.01.393,forced_choiceRT,2021.1.2,Win32,59.94125757,,,,,,,,4,Slow,g,1,2.2203,0,2,2,1,1,,,,,
,1.69,,,,,,,,,g.PNG,g,6150c10799b5a7741caf1dec,2021-10-19_14h46.01.393,forced_choiceRT,2021.1.2,Win32,59.94125757,,,,,,,,4,Slow,g,1,2.705,0,3,3,1,1,,,,,
,1.43,,,,,,,,,h.PNG,h,6150c10799b5a7741caf1dec,2021-10-19_14h46.01.393,forced_choiceRT,2021.1.2,Win32,59.94125757,,,,,,,,4,Slow,h,1,3.4655,1,0,4,2,1,,,,,
,1.24,,,,,,,,,f.PNG,f,6150c10799b5a7741caf1dec,2021-10-19_14h46.01.393,forced_choiceRT,2021.1.2,Win32,59.94125757,,,,,,,,4,Slow,f,1,2.4846,1,1,5,0,1,,,,,
,1.91,,,,,,,,,f.PNG,f,6150c10799b5a7741caf1dec,2021-10-19_14h46.01.393,forced_choiceRT,2021.1.2,Win32,59.94125757,,,,,,,,4,Slow,f,1,2.727,1,2,6,0,1,,,,,
,1.5,,,,,,,,,f.PNG,f,6150c10799b5a7741caf1dec,2021-10-19_14h46.01.393,forced_choiceRT,2021.1.2,Win32,59.94125757,,,,,,,,4,Slow,f,1,2.9518,1,3,7,0,1,,,,,
,1.59,,,,,,,,,h.PNG,h,6150c10799b5a7741caf1dec,2021-10-19_14h46.01.393,forced_choiceRT,2021.1.2,Win32,59.94125757,,,,,,,,4,Slow,g,0,2.1192,2,0,8,2,1,,,,,
,1.32,,,,,,,,,f.PNG,f,6150c10799b5a7741caf1dec,2021-10-19_14h46.01.393,forced_choiceRT,2021.1.2,Win32,59.94125757,,,,,,,,4,Slow,f,1,2.3943,2,1,9,0,1,,,,,
,0.78,,,,,,,,,g.PNG,g,6150c10799b5a7741caf1dec,2021-10-19_14h46.01.393,forced_choiceRT,2021.1.2,Win32,59.94125757,,,,,,,,4,Slow,g,1,2.2678,2,2,10,1,1,,,,,
,1.63,,,,,,,,,j.PNG,j,6150c10799b5a7741caf1dec,2021-10-19_14h46.01.393,forced_choiceRT,2021.1.2,Win32,59.94125757,,,,,,,,4,Slow,h,0,2.207,2,3,11,3,1,,,,,
,0.5,,,,,,,,,j.PNG,j,6150c10799b5a7741caf1dec,2021-10-19_14h46.01.393,forced_choiceRT,2021.1.2,Win32,59.94125757,,,,,,,,4,Fast,j,1,1.7145,3,0,12,3,1,,,,,
,0.64,,,,,,,,,f.PNG,f,6150c10799b5a7741caf1dec,2021-10-19_14h46.01.393,forced_choiceRT,2021.1.2,Win32,59.94125757,,,,,,,,4,Ontime,g,0,2.085,3,1,13,0,1,,,,,
,1.16,,,,,,,,,g.PNG,g,6150c10799b5a7741caf1dec,2021-10-19_14h46.01.393,forced_choiceRT,2021.1.2,Win32,59.94125757,,,,,,,,4,Slow,g,1,2.1312,3,2,14,1,1,,,,,
,0.7,,,,,,,,,g.PNG,g,6150c10799b5a7741caf1dec,2021-10-19_14h46.01.393,forced_choiceRT,2021.1.2,Win32,59.94125757,,,,,,,,4,Fast,g,1,1.6991,3,3,15,1,1,,,,,
,0.08,,,,,,,,,j.PNG,j,6150c10799b5a7741caf1dec,2021-10-19_14h46.01.393,forced_choiceRT,2021.1.2,Win32,59.94125757,,,,,,,,4,Slow,j,1,2.2173,4,0,16,3,1,,,,,
,0.21,,,,,,,,,h.PNG,h,6150c10799b5a7741caf1dec,2021-10-19_14h46.01.393,forced_choiceRT,2021.1.2,Win32,59.94125757,,,,,,,,4,Slow,h,1,2.2024,4,1,17,2,1,,,,,
,1.68,,,,,,,,,h.PNG,h,6150c10799b5a7741caf1dec,2021-10-19_14h46.01.393,forced_choiceRT,2021.1.2,Win32,59.94125757,,,,,,,,4,Slow,h,1,2.4288,4,2,18,2,1,,,,,
,0.68,,,,,,,,,j.PNG,j,6150c10799b5a7741caf1dec,2021-10-19_14h46.01.393,forced_choiceRT,2021.1.2,Win32,59.94125757,,,,,,,,4,Fast,j,1,1.8943,4,3,19,3,1,,,,,
,1.75,,,,,,,,,f.PNG,f,6150c10799b5a7741caf1dec,2021-10-19_14h46.01.393,forced_choiceRT,2021.1.2,Win32,59.94125757,,,,,,,,4,Slow,f,1,2.5841,5,0,20,0,1,,,,,
,1.45,,,,,,,,,g.PNG,g,6150c10799b5a7741caf1dec,2021-10-19_14h46.01.393,forced_choiceRT,2021.1.2,Win32,59.94125757,,,,,,,,4,Slow,f,0,2.3215,5,1,21,1,1,,,,,
,1.78,,,,,,,,,g.PNG,g,6150c10799b5a7741caf1dec,2021-10-19_14h46.01.393,forced_choiceRT,2021.1.2,Win32,59.94125757,,,,,,,,4,Slow,g,1,2.8317,5,2,22,1,1,,,,,
,1.04,,,,,,,,,h.PNG,h,6150c10799b5a7741caf1dec,2021-10-19_14h46.01.393,forced_choiceRT,2021.1.2,Win32,59.94125757,,,,,,,,4,Ontime,h,1,1.9225,5,3,23,2,1,,,,,
,0.83,,,,,,,,,j.PNG,j,6150c10799b5a7741caf1dec,2021-10-19_14h46.01.393,forced_choiceRT,2021.1.2,Win32,59.94125757,,,,,,,,4,Ontime,h,0,1.964,6,0,24,3,1,,,,,
,0.99,,,,,,,,,f.PNG,f,6150c10799b5a7741caf1dec,2021-10-19_14h46.01.393,forced_choiceRT,2021.1.2,Win32,59.94125757,,,,,,,,4,Fast,f,1,1.8491,6,1,25,0,1,,,,,
,1.97,,,,,,,,,f.PNG,f,6150c10799b5a7741caf1dec,2021-10-19_14h46.01.393,forced_choiceRT,2021.1.2,Win32,59.94125757,,,,,,,,4,Slow,g,0,2.7568,6,2,26,0,1,,,,,
,1.45,,,,,,,,,j.PNG,j,6150c10799b5a7741caf1dec,2021-10-19_14h46.01.393,forced_choiceRT,2021.1.2,Win32,59.94125757,,,,,,,,4,Slow,j,1,2.3384,6,3,27,3,1,,,,,
,1.62,,,,,,,,,j.PNG,j,6150c10799b5a7741caf1dec,2021-10-19_14h46.01.393,forced_choiceRT,2021.1.2,Win32,59.94125757,,,,,,,,4,Slow,j,1,2.3012,7,0,28,3,1,,,,,
,0.43,,,,,,,,,h.PNG,h,6150c10799b5a7741caf1dec,2021-10-19_14h46.01.393,forced_choiceRT,2021.1.2,Win32,59.94125757,,,,,,,,4,Ontime,h,1,1.9946,7,1,29,2,1,,,,,
,0.78,,,,,,,,,h.PNG,h,6150c10799b5a7741caf1dec,2021-10-19_14h46.01.393,forced_choiceRT,2021.1.2,Win32,59.94125757,,,,,,,,4,Fast,h,1,1.8663,7,2,30,2,1,,,,,
,1.69,,,,,,,,,g.PNG,g,6150c10799b5a7741caf1dec,2021-10-19_14h46.01.393,forced_choiceRT,2021.1.2,Win32,59.94125757,,,,,,,,4,Slow,g,1,2.3598,7,3,31,1,1,,,,,
,0.85,,,,,,,,,h.PNG,h,6150c10799b5a7741caf1dec,2021-10-19_14h46.01.393,forced_choiceRT,2021.1.2,Win32,59.94125757,,,,,,,,4,Ontime,h,1,1.9365,8,0,32,2,1,,,,,
,1.22,,,,,,,,,h.PNG,h,6150c10799b5a7741caf1dec,2021-10-19_14h46.01.393,forced_choiceRT,2021.1.2,Win32,59.94125757,,,,,,,,4,Ontime,h,1,2.0143,8,1,33,2,1,,,,,
,1.64,,,,,,,,,j.PNG,j,6150c10799b5a7741caf1dec,2021-10-19_14h46.01.393,forced_choiceRT,2021.1.2,Win32,59.94125757,,,,,,,,4,Slow,h,0,2.3515,8,2,34,3,1,,,,,
,1.58,,,,,,,,,g.PNG,g,6150c10799b5a7741caf1dec,2021-10-19_14h46.01.393,forced_choiceRT,2021.1.2,Win32,59.94125757,,,,,,,,4,Slow,g,1,2.3164,8,3,35,1,1,,,,,
,1.61,,,,,,,,,j.PNG,j,6150c10799b5a7741caf1dec,2021-10-19_14h46.01.393,forced_choiceRT,2021.1.2,Win32,59.94125757,,,,,,,,4,Slow,j,1,2.2809,9,0,36,3,1,,,,,
,0.38,,,,,,,,,g.PNG,g,6150c10799b5a7741caf1dec,2021-10-19_14h46.01.393,forced_choiceRT,2021.1.2,Win32,59.94125757,,,,,,,,4,Fast,g,1,1.8278,9,1,37,1,1,,,,,
,1.25,,,,,,,,,j.PNG,j,6150c10799b5a7741caf1dec,2021-10-19_14h46.01.393,forced_choiceRT,2021.1.2,Win32,59.94125757,,,,,,,,4,Slow,j,1,2.222,9,2,38,3,1,,,,,
,0.4,,,,,,,,,h.PNG,h,6150c10799b5a7741caf1dec,2021-10-19_14h46.01.393,forced_choiceRT,2021.1.2,Win32,59.94125757,,,,,,,,4,Ontime,h,1,1.972,9,3,39,2,1,,,,,
,,,,,,,,,,,,6150c10799b5a7741caf1dec,2021-10-19_14h46.01.393,forced_choiceRT,2021.1.2,Win32,59.94125757,,,,,,,,,,,,,,,,,,3,0,3,0,1
,1.76,,,,,,,,,j.PNG,j,6150c10799b5a7741caf1dec,2021-10-19_14h46.01.393,forced_choiceRT,2021.1.2,Win32,59.94125757,,,,,,,,5,Slow,j,1,2.6139,0,0,0,3,1,,,,,
,0.28,,,,,,,,,j.PNG,j,6150c10799b5a7741caf1dec,2021-10-19_14h46.01.393,forced_choiceRT,2021.1.2,Win32,59.94125757,,,,,,,,5,Fast,j,1,1.8569,0,1,1,3,1,,,,,
,1.31,,,,,,,,,h.PNG,h,6150c10799b5a7741caf1dec,2021-10-19_14h46.01.393,forced_choiceRT,2021.1.2,Win32,59.94125757,,,,,,,,5,Slow,h,1,2.152,0,2,2,2,1,,,,,
,1.1,,,,,,,,,j.PNG,j,6150c10799b5a7741caf1dec,2021-10-19_14h46.01.393,forced_choiceRT,2021.1.2,Win32,59.94125757,,,,,,,,5,Ontime,j,1,2.0743,0,3,3,3,1,,,,,
,0.15,,,,,,,,,g.PNG,g,6150c10799b5a7741caf1dec,2021-10-19_14h46.01.393,forced_choiceRT,2021.1.2,Win32,59.94125757,,,,,,,,5,Ontime,g,1,2.0323,1,0,4,1,1,,,,,
,0.06,,,,,,,,,f.PNG,f,6150c10799b5a7741caf1dec,2021-10-19_14h46.01.393,forced_choiceRT,2021.1.2,Win32,59.94125757,,,,,,,,5,Ontime,f,1,2.0406,1,1,5,0,1,,,,,
,1.86,,,,,,,,,f.PNG,f,6150c10799b5a7741caf1dec,2021-10-19_14h46.01.393,forced_choiceRT,2021.1.2,Win32,59.94125757,,,,,,,,5,Slow,j,0,2.3051,1,2,6,0,1,,,,,
,1.62,,,,,,,,,h.PNG,h,6150c10799b5a7741caf1dec,2021-10-19_14h46.01.393,forced_choiceRT,2021.1.2,Win32,59.94125757,,,,,,,,5,Slow,h,1,2.2561,1,3,7,2,1,,,,,
,0,,,,,,,,,h.PNG,h,6150c10799b5a7741caf1dec,2021-10-19_14h46.01.393,forced_choiceRT,2021.1.2,Win32,59.94125757,,,,,,,,5,Ontime,h,1,2.0195,2,0,8,2,1,,,,,
,0.93,,,,,,,,,g.PNG,g,6150c10799b5a7741caf1dec,2021-10-19_14h46.01.393,forced_choiceRT,2021.1.2,Win32,59.94125757,,,,,,,,5,Ontime,f,0,2.0948,2,1,9,1,1,,,,,
,1.58,,,,,,,,,h.PNG,h,6150c10799b5a7741caf1dec,2021-10-19_14h46.01.393,forced_choiceRT,2021.1.2,Win32,59.94125757,,,,,,,,5,Slow,h,1,2.2016,2,2,10,2,1,,,,,
,1.62,,,,,,,,,h.PNG,h,6150c10799b5a7741caf1dec,2021-10-19_14h46.01.393,forced_choiceRT,2021.1.2,Win32,59.94125757,,,,,,,,5,Slow,h,1,2.1751,2,3,11,2,1,,,,,
,1.97,,,,,,,,,f.PNG,f,6150c10799b5a7741caf1dec,2021-10-19_14h46.01.393,forced_choiceRT,2021.1.2,Win32,59.94125757,,,,,,,,5,Slow,g,0,2.627,3,0,12,0,1,,,,,
,1.54,,,,,,,,,h.PNG,h,6150c10799b5a7741caf1dec,2021-10-19_14h46.01.393,forced_choiceRT,2021.1.2,Win32,59.94125757,,,,,,,,5,Slow,h,1,3.7011,3,1,13,2,1,,,,,
,1.1,,,,,,,,,j.PNG,j,6150c10799b5a7741caf1dec,2021-10-19_14h46.01.393,forced_choiceRT,2021.1.2,Win32,59.94125757,,,,,,,,5,Ontime,j,1,1.9569,3,2,14,3,1,,,,,
,0.53,,,,,,,,,g.PNG,g,6150c10799b5a7741caf1dec,2021-10-19_14h46.01.393,forced_choiceRT,2021.1.2,Win32,59.94125757,,,,,,,,5,Fast,f,0,1.8997,3,3,15,1,1,,,,,
,1.63,,,,,,,,,g.PNG,g,6150c10799b5a7741caf1dec,2021-10-19_14h46.01.393,forced_choiceRT,2021.1.2,Win32,59.94125757,,,,,,,,5,Slow,h,0,2.2848,4,0,16,1,1,,,,,
,1.49,,,,,,,,,j.PNG,j,6150c10799b5a7741caf1dec,2021-10-19_14h46.01.393,forced_choiceRT,2021.1.2,Win32,59.94125757,,,,,,,,5,Slow,j,1,2.1853,4,1,17,3,1,,,,,
,1.99,,,,,,,,,f.PNG,f,6150c10799b5a7741caf1dec,2021-10-19_14h46.01.393,forced_choiceRT,2021.1.2,Win32,59.94125757,,,,,,,,5,Slow,h,0,2.4853,4,2,18,0,1,,,,,
,0.56,,,,,,,,,f.PNG,f,6150c10799b5a7741caf1dec,2021-10-19_14h46.01.393,forced_choiceRT,2021.1.2,Win32,59.94125757,,,,,,,,5,Slow,f,1,2.5821,4,3,19,0,1,,,,,
,1.57,,,,,,,,,g.PNG,g,6150c10799b5a7741caf1dec,2021-10-19_14h46.01.393,forced_choiceRT,2021.1.2,Win32,59.94125757,,,,,,,,5,Slow,g,1,2.4638,5,0,20,1,1,,,,,
,1.13,,,,,,,,,f.PNG,f,6150c10799b5a7741caf1dec,2021-10-19_14h46.01.393,forced_choiceRT,2021.1.2,Win32,59.94125757,,,,,,,,5,Slow,h,0,7.096,5,1,21,0,1,,,,,
,1.3,,,,,,,,,h.PNG,h,6150c10799b5a7741caf1dec,2021-10-19_14h46.01.393,forced_choiceRT,2021.1.2,Win32,59.94125757,,,,,,,,5,Slow,h,1,2.1787,5,2,22,2,1,,,,,
,1.81,,,,,,,,,g.PNG,g,6150c10799b5a7741caf1dec,2021-10-19_14h46.01.393,forced_choiceRT,2021.1.2,Win32,59.94125757,,,,,,,,5,Slow,g,1,3.0628,5,3,23,1,1,,,,,
,1.48,,,,,,,,,f.PNG,f,6150c10799b5a7741caf1dec,2021-10-19_14h46.01.393,forced_choiceRT,2021.1.2,Win32,59.94125757,,,,,,,,5,Slow,f,1,2.4919,6,0,24,0,1,,,,,
,0.11,,,,,,,,,j.PNG,j,6150c10799b5a7741caf1dec,2021-10-19_14h46.01.393,forced_choiceRT,2021.1.2,Win32,59.94125757,,,,,,,,5,Ontime,j,1,1.9567,6,1,25,3,1,,,,,
,1.57,,,,,,,,,h.PNG,h,6150c10799b5a7741caf1dec,2021-10-19_14h46.01.393,forced_choiceRT,2021.1.2,Win32,59.94125757,,,,,,,,5,Slow,h,1,2.2865,6,2,26,2,1,,,,,
,0.55,,,,,,,,,f.PNG,f,6150c10799b5a7741caf1dec,2021-10-19_14h46.01.393,forced_choiceRT,2021.1.2,Win32,59.94125757,,,,,,,,5,Slow,g,0,2.1377,6,3,27,0,1,,,,,
,1.85,,,,,,,,,j.PNG,j,6150c10799b5a7741caf1dec,2021-10-19_14h46.01.393,forced_choiceRT,2021.1.2,Win32,59.94125757,,,,,,,,5,Slow,j,1,2.8956,7,0,28,3,1,,,,,
,1.85,,,,,,,,,f.PNG,f,6150c10799b5a7741caf1dec,2021-10-19_14h46.01.393,forced_choiceRT,2021.1.2,Win32,59.94125757,,,,,,,,5,Slow,f,1,2.7911,7,1,29,0,1,,,,,
,1.07,,,,,,,,,h.PNG,h,6150c10799b5a7741caf1dec,2021-10-19_14h46.01.393,forced_choiceRT,2021.1.2,Win32,59.94125757,,,,,,,,5,Ontime,j,0,2.0064,7,2,30,2,1,,,,,
,1.43,,,,,,,,,g.PNG,g,6150c10799b5a7741caf1dec,2021-10-19_14h46.01.393,forced_choiceRT,2021.1.2,Win32,59.94125757,,,,,,,,5,Slow,g,1,2.117,7,3,31,1,1,,,,,
,1.44,,,,,,,,,j.PNG,j,6150c10799b5a7741caf1dec,2021-10-19_14h46.01.393,forced_choiceRT,2021.1.2,Win32,59.94125757,,,,,,,,5,Slow,h,0,2.1494,8,0,32,3,1,,,,,
,0.33,,,,,,,,,g.PNG,g,6150c10799b5a7741caf1dec,2021-10-19_14h46.01.393,forced_choiceRT,2021.1.2,Win32,59.94125757,,,,,,,,5,Ontime,g,1,2.0867,8,1,33,1,1,,,,,
,1.64,,,,,,,,,f.PNG,f,6150c10799b5a7741caf1dec,2021-10-19_14h46.01.393,forced_choiceRT,2021.1.2,Win32,59.94125757,,,,,,,,5,Slow,f,1,2.6865,8,2,34,0,1,,,,,
,0.3,,,,,,,,,g.PNG,g,6150c10799b5a7741caf1dec,2021-10-19_14h46.01.393,forced_choiceRT,2021.1.2,Win32,59.94125757,,,,,,,,5,Ontime,g,1,1.9252,8,3,35,1,1,,,,,
,1.35,,,,,,,,,h.PNG,h,6150c10799b5a7741caf1dec,2021-10-19_14h46.01.393,forced_choiceRT,2021.1.2,Win32,59.94125757,,,,,,,,5,Ontime,h,1,2.0571,9,0,36,2,1,,,,,
,0.97,,,,,,,,,g.PNG,g,6150c10799b5a7741caf1dec,2021-10-19_14h46.01.393,forced_choiceRT,2021.1.2,Win32,59.94125757,,,,,,,,5,Slow,g,1,2.129,9,1,37,1,1,,,,,
,1.48,,,,,,,,,j.PNG,j,6150c10799b5a7741caf1dec,2021-10-19_14h46.01.393,forced_choiceRT,2021.1.2,Win32,59.94125757,,,,,,,,5,Slow,h,0,2.472,9,2,38,3,1,,,,,
,1.13,,,,,,,,,j.PNG,j,6150c10799b5a7741caf1dec,2021-10-19_14h46.01.393,forced_choiceRT,2021.1.2,Win32,59.94125757,,,,,,,,5,Slow,j,1,2.525,9,3,39,3,1,,,,,
,,,,,,,,,,,,6150c10799b5a7741caf1dec,2021-10-19_14h46.01.393,forced_choiceRT,2021.1.2,Win32,59.94125757,,,,,,,,,,,,,,,,,,4,0,4,0,1
,1.11,,,,,,,,,j.PNG,j,6150c10799b5a7741caf1dec,2021-10-19_14h46.01.393,forced_choiceRT,2021.1.2,Win32,59.94125757,,,,,,,,6,Slow,j,1,2.4749,0,0,0,3,1,,,,,
,0.55,,,,,,,,,j.PNG,j,6150c10799b5a7741caf1dec,2021-10-19_14h46.01.393,forced_choiceRT,2021.1.2,Win32,59.94125757,,,,,,,,6,Fast,j,1,1.5077,0,1,1,3,1,,,,,
,0.61,,,,,,,,,g.PNG,g,6150c10799b5a7741caf1dec,2021-10-19_14h46.01.393,forced_choiceRT,2021.1.2,Win32,59.94125757,,,,,,,,6,Ontime,g,1,2.0534,0,2,2,1,1,,,,,
,1.23,,,,,,,,,j.PNG,j,6150c10799b5a7741caf1dec,2021-10-19_14h46.01.393,forced_choiceRT,2021.1.2,Win32,59.94125757,,,,,,,,6,Ontime,j,1,1.9922,0,3,3,3,1,,,,,
,1.9,,,,,,,,,f.PNG,f,6150c10799b5a7741caf1dec,2021-10-19_14h46.01.393,forced_choiceRT,2021.1.2,Win32,59.94125757,,,,,,,,6,Slow,f,1,2.8389,1,0,4,0,1,,,,,
,1.6,,,,,,,,,g.PNG,g,6150c10799b5a7741caf1dec,2021-10-19_14h46.01.393,forced_choiceRT,2021.1.2,Win32,59.94125757,,,,,,,,6,Slow,g,1,2.3881,1,1,5,1,1,,,,,
,0.87,,,,,,,,,j.PNG,j,6150c10799b5a7741caf1dec,2021-10-19_14h46.01.393,forced_choiceRT,2021.1.2,Win32,59.94125757,,,,,,,,6,Fast,j,1,1.8459,1,2,6,3,1,,,,,
,1.03,,,,,,,,,j.PNG,j,6150c10799b5a7741caf1dec,2021-10-19_14h46.01.393,forced_choiceRT,2021.1.2,Win32,59.94125757,,,,,,,,6,Slow,j,1,2.2612,1,3,7,3,1,,,,,
,1.44,,,,,,,,,f.PNG,f,6150c10799b5a7741caf1dec,2021-10-19_14h46.01.393,forced_choiceRT,2021.1.2,Win32,59.94125757,,,,,,,,6,Slow,g,0,2.303,2,0,8,0,1,,,,,
,1.63,,,,,,,,,f.PNG,f,6150c10799b5a7741caf1dec,2021-10-19_14h46.01.393,forced_choiceRT,2021.1.2,Win32,59.94125757,,,,,,,,6,Slow,f,1,2.4531,2,1,9,0,1,,,,,
,1.36,,,,,,,,,h.PNG,h,6150c10799b5a7741caf1dec,2021-10-19_14h46.01.393,forced_choiceRT,2021.1.2,Win32,59.94125757,,,,,,,,6,Slow,h,1,3.7789,2,2,10,2,1,,,,,
,1.62,,,,,,,,,h.PNG,h,6150c10799b5a7741caf1dec,2021-10-19_14h46.01.393,forced_choiceRT,2021.1.2,Win32,59.94125757,,,,,,,,6,Slow,h,1,2.5153,2,3,11,2,1,,,,,
,1.11,,,,,,,,,f.PNG,f,6150c10799b5a7741caf1dec,2021-10-19_14h46.01.393,forced_choiceRT,2021.1.2,Win32,59.94125757,,,,,,,,6,Ontime,f,1,2.0997,3,0,12,0,1,,,,,
,1.18,,,,,,,,,h.PNG,h,6150c10799b5a7741caf1dec,2021-10-19_14h46.01.393,forced_choiceRT,2021.1.2,Win32,59.94125757,,,,,,,,6,Slow,h,1,2.4468,3,1,13,2,1,,,,,
,0.27,,,,,,,,,h.PNG,h,6150c10799b5a7741caf1dec,2021-10-19_14h46.01.393,forced_choiceRT,2021.1.2,Win32,59.94125757,,,,,,,,6,Fast,h,1,1.5469,3,2,14,2,1,,,,,
,0.55,,,,,,,,,f.PNG,f,6150c10799b5a7741caf1dec,2021-10-19_14h46.01.393,forced_choiceRT,2021.1.2,Win32,59.94125757,,,,,,,,6,Ontime,f,1,2.0423,3,3,15,0,1,,,,,
,0.15,,,,,,,,,h.PNG,h,6150c10799b5a7741caf1dec,2021-10-19_14h46.01.393,forced_choiceRT,2021.1.2,Win32,59.94125757,,,,,,,,6,Ontime,h,1,1.963,4,0,16,2,1,,,,,
,1.74,,,,,,,,,j.PNG,j,6150c10799b5a7741caf1dec,2021-10-19_14h46.01.393,forced_choiceRT,2021.1.2,Win32,59.94125757,,,,,,,,6,Slow,h,0,2.4053,4,1,17,3,1,,,,,
,1.2,,,,,,,,,f.PNG,f,6150c10799b5a7741caf1dec,2021-10-19_14h46.01.393,forced_choiceRT,2021.1.2,Win32,59.94125757,,,,,,,,6,Slow,f,1,2.4728,4,2,18,0,1,,,,,
,1.66,,,,,,,,,f.PNG,f,6150c10799b5a7741caf1dec,2021-10-19_14h46.01.393,forced_choiceRT,2021.1.2,Win32,59.94125757,,,,,,,,6,Slow,f,1,3.19,4,3,19,0,1,,,,,
,1.39,,,,,,,,,f.PNG,f,6150c10799b5a7741caf1dec,2021-10-19_14h46.01.393,forced_choiceRT,2021.1.2,Win32,59.94125757,,,,,,,,6,Ontime,f,1,2.0893,5,0,20,0,1,,,,,
,0.12,,,,,,,,,g.PNG,g,6150c10799b5a7741caf1dec,2021-10-19_14h46.01.393,forced_choiceRT,2021.1.2,Win32,59.94125757,,,,,,,,6,Ontime,g,1,2.0215,5,1,21,1,1,,,,,
,0.22,,,,,,,,,g.PNG,g,6150c10799b5a7741caf1dec,2021-10-19_14h46.01.393,forced_choiceRT,2021.1.2,Win32,59.94125757,,,,,,,,6,Ontime,g,1,1.9074,5,2,22,1,1,,,,,
,0.56,,,,,,,,,g.PNG,g,6150c10799b5a7741caf1dec,2021-10-19_14h46.01.393,forced_choiceRT,2021.1.2,Win32,59.94125757,,,,,,,,6,Ontime,g,1,1.958,5,3,23,1,1,,,,,
,0.57,,,,,,,,,h.PNG,h,6150c10799b5a7741caf1dec,2021-10-19_14h46.01.393,forced_choiceRT,2021.1.2,Win32,59.94125757,,,,,,,,6,Fast,h,1,1.8016,6,0,24,2,1,,,,,
,1.64,,,,,,,,,j.PNG,j,6150c10799b5a7741caf1dec,2021-10-19_14h46.01.393,forced_choiceRT,2021.1.2,Win32,59.94125757,,,,,,,,6,Slow,j,1,2.3332,6,1,25,3,1,,,,,
,1.02,,,,,,,,,f.PNG,f,6150c10799b5a7741caf1dec,2021-10-19_14h46.01.393,forced_choiceRT,2021.1.2,Win32,59.94125757,,,,,,,,6,Slow,f,1,2.4879,6,2,26,0,1,,,,,
,1.54,,,,,,,,,g.PNG,g,6150c10799b5a7741caf1dec,2021-10-19_14h46.01.393,forced_choiceRT,2021.1.2,Win32,59.94125757,,,,,,,,6,Slow,g,1,2.2166,6,3,27,1,1,,,,,
,1.69,,,,,,,,,f.PNG,f,6150c10799b5a7741caf1dec,2021-10-19_14h46.01.393,forced_choiceRT,2021.1.2,Win32,59.94125757,,,,,,,,6,Slow,f,1,2.9627,7,0,28,0,1,,,,,
,1.87,,,,,,,,,h.PNG,h,6150c10799b5a7741caf1dec,2021-10-19_14h46.01.393,forced_choiceRT,2021.1.2,Win32,59.94125757,,,,,,,,6,Slow,h,1,2.5915,7,1,29,2,1,,,,,
,0.9,,,,,,,,,j.PNG,j,6150c10799b5a7741caf1dec,2021-10-19_14h46.01.393,forced_choiceRT,2021.1.2,Win32,59.94125757,,,,,,,,6,Ontime,j,1,2.052,7,2,30,3,1,,,,,
,0.02,,,,,,,,,g.PNG,g,6150c10799b5a7741caf1dec,2021-10-19_14h46.01.393,forced_choiceRT,2021.1.2,Win32,59.94125757,,,,,,,,6,Ontime,g,1,2.0447,7,3,31,1,1,,,,,
,0.69,,,,,,,,,g.PNG,g,6150c10799b5a7741caf1dec,2021-10-19_14h46.01.393,forced_choiceRT,2021.1.2,Win32,59.94125757,,,,,,,,6,Ontime,g,1,1.981,8,0,32,1,1,,,,,
,1.65,,,,,,,,,g.PNG,g,6150c10799b5a7741caf1dec,2021-10-19_14h46.01.393,forced_choiceRT,2021.1.2,Win32,59.94125757,,,,,,,,6,Slow,g,1,2.2729,8,1,33,1,1,,,,,
,1.25,,,,,,,,,g.PNG,g,6150c10799b5a7741caf1dec,2021-10-19_14h46.01.393,forced_choiceRT,2021.1.2,Win32,59.94125757,,,,,,,,6,Slow,g,1,2.2473,8,2,34,1,1,,,,,
,0.19,,,,,,,,,h.PNG,h,6150c10799b5a7741caf1dec,2021-10-19_14h46.01.393,forced_choiceRT,2021.1.2,Win32,59.94125757,,,,,,,,6,Fast,h,1,1.7139,8,3,35,2,1,,,,,
,0.36,,,,,,,,,h.PNG,h,6150c10799b5a7741caf1dec,2021-10-19_14h46.01.393,forced_choiceRT,2021.1.2,Win32,59.94125757,,,,,,,,6,Fast,h,1,1.8811,9,0,36,2,1,,,,,
,0.44,,,,,,,,,j.PNG,j,6150c10799b5a7741caf1dec,2021-10-19_14h46.01.393,forced_choiceRT,2021.1.2,Win32,59.94125757,,,,,,,,6,Fast,j,1,1.8508,9,1,37,3,1,,,,,
,0.25,,,,,,,,,j.PNG,j,6150c10799b5a7741caf1dec,2021-10-19_14h46.01.393,forced_choiceRT,2021.1.2,Win32,59.94125757,,,,,,,,6,Slow,j,1,2.7275,9,2,38,3,1,,,,,
,0.86,,,,,,,,,h.PNG,h,6150c10799b5a7741caf1dec,2021-10-19_14h46.01.393,forced_choiceRT,2021.1.2,Win32,59.94125757,,,,,,,,6,Fast,h,1,1.7203,9,3,39,2,1,,,,,
,,,,,,,,,,,,6150c10799b5a7741caf1dec,2021-10-19_14h46.01.393,forced_choiceRT,2021.1.2,Win32,59.94125757,,,,,,,,,,,,,,,,,,5,0,5,0,1
,1.97,,,,,,,,,j.PNG,j,6150c10799b5a7741caf1dec,2021-10-19_14h46.01.393,forced_choiceRT,2021.1.2,Win32,59.94125757,,,,,,,,7,Slow,j,1,2.8481,0,0,0,3,1,,,,,
,0.97,,,,,,,,,g.PNG,g,6150c10799b5a7741caf1dec,2021-10-19_14h46.01.393,forced_choiceRT,2021.1.2,Win32,59.94125757,,,,,,,,7,Ontime,g,1,1.9789,0,1,1,1,1,,,,,
,1.71,,,,,,,,,f.PNG,f,6150c10799b5a7741caf1dec,2021-10-19_14h46.01.393,forced_choiceRT,2021.1.2,Win32,59.94125757,,,,,,,,7,Slow,f,1,2.37,0,2,2,0,1,,,,,
,1.23,,,,,,,,,g.PNG,g,6150c10799b5a7741caf1dec,2021-10-19_14h46.01.393,forced_choiceRT,2021.1.2,Win32,59.94125757,,,,,,,,7,Ontime,g,1,2.023,0,3,3,1,1,,,,,
,1.25,,,,,,,,,f.PNG,f,6150c10799b5a7741caf1dec,2021-10-19_14h46.01.393,forced_choiceRT,2021.1.2,Win32,59.94125757,,,,,,,,7,Slow,f,1,2.4126,1,0,4,0,1,,,,,
,0.51,,,,,,,,,g.PNG,g,6150c10799b5a7741caf1dec,2021-10-19_14h46.01.393,forced_choiceRT,2021.1.2,Win32,59.94125757,,,,,,,,7,Ontime,g,1,2.0346,1,1,5,1,1,,,,,
,0.18,,,,,,,,,j.PNG,j,6150c10799b5a7741caf1dec,2021-10-19_14h46.01.393,forced_choiceRT,2021.1.2,Win32,59.94125757,,,,,,,,7,Fast,j,1,1.7592,1,2,6,3,1,,,,,
,0.91,,,,,,,,,j.PNG,j,6150c10799b5a7741caf1dec,2021-10-19_14h46.01.393,forced_choiceRT,2021.1.2,Win32,59.94125757,,,,,,,,7,Ontime,j,1,2.0703,1,3,7,3,1,,,,,
,0.5,,,,,,,,,g.PNG,g,6150c10799b5a7741caf1dec,2021-10-19_14h46.01.393,forced_choiceRT,2021.1.2,Win32,59.94125757,,,,,,,,7,Ontime,g,1,2.0919,2,0,8,1,1,,,,,
,1.29,,,,,,,,,f.PNG,f,6150c10799b5a7741caf1dec,2021-10-19_14h46.01.393,forced_choiceRT,2021.1.2,Win32,59.94125757,,,,,,,,7,Slow,f,1,2.3689,2,1,9,0,1,,,,,
,1.32,,,,,,,,,g.PNG,g,6150c10799b5a7741caf1dec,2021-10-19_14h46.01.393,forced_choiceRT,2021.1.2,Win32,59.94125757,,,,,,,,7,Slow,g,1,2.1148,2,2,10,1,1,,,,,
,0.05,,,,,,,,,j.PNG,j,6150c10799b5a7741caf1dec,2021-10-19_14h46.01.393,forced_choiceRT,2021.1.2,Win32,59.94125757,,,,,,,,7,Fast,j,1,1.8096,2,3,11,3,1,,,,,
,1.5,,,,,,,,,f.PNG,f,6150c10799b5a7741caf1dec,2021-10-19_14h46.01.393,forced_choiceRT,2021.1.2,Win32,59.94125757,,,,,,,,7,Slow,f,1,2.332,3,0,12,0,1,,,,,
,1.19,,,,,,,,,h.PNG,h,6150c10799b5a7741caf1dec,2021-10-19_14h46.01.393,forced_choiceRT,2021.1.2,Win32,59.94125757,,,,,,,,7,Ontime,h,1,2.0186,3,1,13,2,1,,,,,
,1.77,,,,,,,,,h.PNG,h,6150c10799b5a7741caf1dec,2021-10-19_14h46.01.393,forced_choiceRT,2021.1.2,Win32,59.94125757,,,,,,,,7,Slow,h,1,2.954,3,2,14,2,1,,,,,
,0.37,,,,,,,,,g.PNG,g,6150c10799b5a7741caf1dec,2021-10-19_14h46.01.393,forced_choiceRT,2021.1.2,Win32,59.94125757,,,,,,,,7,Fast,g,1,1.4472,3,3,15,1,1,,,,,
,0.27,,,,,,,,,f.PNG,f,6150c10799b5a7741caf1dec,2021-10-19_14h46.01.393,forced_choiceRT,2021.1.2,Win32,59.94125757,,,,,,,,7,Fast,f,1,1.8745,4,0,16,0,1,,,,,
,0.77,,,,,,,,,j.PNG,j,6150c10799b5a7741caf1dec,2021-10-19_14h46.01.393,forced_choiceRT,2021.1.2,Win32,59.94125757,,,,,,,,7,Fast,j,1,1.772,4,1,17,3,1,,,,,
,0.37,,,,,,,,,h.PNG,h,6150c10799b5a7741caf1dec,2021-10-19_14h46.01.393,forced_choiceRT,2021.1.2,Win32,59.94125757,,,,,,,,7,Ontime,g,0,1.9908,4,2,18,2,1,,,,,
,1.79,,,,,,,,,f.PNG,f,6150c10799b5a7741caf1dec,2021-10-19_14h46.01.393,forced_choiceRT,2021.1.2,Win32,59.94125757,,,,,,,,7,Slow,f,1,2.43,4,3,19,0,1,,,,,
,0.43,,,,,,,,,j.PNG,j,6150c10799b5a7741caf1dec,2021-10-19_14h46.01.393,forced_choiceRT,2021.1.2,Win32,59.94125757,,,,,,,,7,Ontime,j,1,2.0024,5,0,20,3,1,,,,,
,0.65,,,,,,,,,f.PNG,f,6150c10799b5a7741caf1dec,2021-10-19_14h46.01.393,forced_choiceRT,2021.1.2,Win32,59.94125757,,,,,,,,7,Ontime,f,1,2.0405,5,1,21,0,1,,,,,
,1.34,,,,,,,,,g.PNG,g,6150c10799b5a7741caf1dec,2021-10-19_14h46.01.393,forced_choiceRT,2021.1.2,Win32,59.94125757,,,,,,,,7,Slow,g,1,2.1844,5,2,22,1,1,,,,,
,0.73,,,,,,,,,f.PNG,f,6150c10799b5a7741caf1dec,2021-10-19_14h46.01.393,forced_choiceRT,2021.1.2,Win32,59.94125757,,,,,,,,7,Ontime,f,1,2.0022,5,3,23,0,1,,,,,
,0.96,,,,,,,,,h.PNG,h,6150c10799b5a7741caf1dec,2021-10-19_14h46.01.393,forced_choiceRT,2021.1.2,Win32,59.94125757,,,,,,,,7,Ontime,h,1,1.9309,6,0,24,2,1,,,,,
,1.84,,,,,,,,,f.PNG,f,6150c10799b5a7741caf1dec,2021-10-19_14h46.01.393,forced_choiceRT,2021.1.2,Win32,59.94125757,,,,,,,,7,Slow,f,1,2.403,6,1,25,0,1,,,,,
,0.69,,,,,,,,,h.PNG,h,6150c10799b5a7741caf1dec,2021-10-19_14h46.01.393,forced_choiceRT,2021.1.2,Win32,59.94125757,,,,,,,,7,Ontime,h,1,2.0557,6,2,26,2,1,,,,,
,0.27,,,,,,,,,h.PNG,h,6150c10799b5a7741caf1dec,2021-10-19_14h46.01.393,forced_choiceRT,2021.1.2,Win32,59.94125757,,,,,,,,7,Ontime,h,1,1.9589,6,3,27,2,1,,,,,
,0.79,,,,,,,,,j.PNG,j,6150c10799b5a7741caf1dec,2021-10-19_14h46.01.393,forced_choiceRT,2021.1.2,Win32,59.94125757,,,,,,,,7,Slow,j,1,2.1039,7,0,28,3,1,,,,,
,1.46,,,,,,,,,j.PNG,j,6150c10799b5a7741caf1dec,2021-10-19_14h46.01.393,forced_choiceRT,2021.1.2,Win32,59.94125757,,,,,,,,7,Slow,j,1,2.1588,7,1,29,3,1,,,,,
,0.17,,,,,,,,,h.PNG,h,6150c10799b5a7741caf1dec,2021-10-19_14h46.01.393,forced_choiceRT,2021.1.2,Win32,59.94125757,,,,,,,,7,Ontime,h,1,2.032,7,2,30,2,1,,,,,
,0.84,,,,,,,,,g.PNG,g,6150c10799b5a7741caf1dec,2021-10-19_14h46.01.393,forced_choiceRT,2021.1.2,Win32,59.94125757,,,,,,,,7,Slow,g,1,2.1011,7,3,31,1,1,,,,,
,0.77,,,,,,,,,h.PNG,h,6150c10799b5a7741caf1dec,2021-10-19_14h46.01.393,forced_choiceRT,2021.1.2,Win32,59.94125757,,,,,,,,7,Ontime,h,1,2.0804,8,0,32,2,1,,,,,
,0.15,,,,,,,,,h.PNG,h,6150c10799b5a7741caf1dec,2021-10-19_14h46.01.393,forced_choiceRT,2021.1.2,Win32,59.94125757,,,,,,,,7,Fast,h,1,1.8548,8,1,33,2,1,,,,,
,1.76,,,,,,,,,h.PNG,h,6150c10799b5a7741caf1dec,2021-10-19_14h46.01.393,forced_choiceRT,2021.1.2,Win32,59.94125757,,,,,,,,7,Slow,h,1,2.3573,8,2,34,2,1,,,,,
,0.29,,,,,,,,,g.PNG,g,6150c10799b5a7741caf1dec,2021-10-19_14h46.01.393,forced_choiceRT,2021.1.2,Win32,59.94125757,,,,,,,,7,Fast,g,1,1.894,8,3,35,1,1,,,,,
,1.44,,,,,,,,,f.PNG,f,6150c10799b5a7741caf1dec,2021-10-19_14h46.01.393,forced_choiceRT,2021.1.2,Win32,59.94125757,,,,,,,,7,Slow,f,1,2.3558,9,0,36,0,1,,,,,
,1.21,,,,,,,,,g.PNG,g,6150c10799b5a7741caf1dec,2021-10-19_14h46.01.393,forced_choiceRT,2021.1.2,Win32,59.94125757,,,,,,,,7,Slow,g,1,2.1662,9,1,37,1,1,,,,,
,1.92,,,,,,,,,j.PNG,j,6150c10799b5a7741caf1dec,2021-10-19_14h46.01.393,forced_choiceRT,2021.1.2,Win32,59.94125757,,,,,,,,7,Slow,h,0,3.4748,9,2,38,3,1,,,,,
,0.52,,,,,,,,,j.PNG,j,6150c10799b5a7741caf1dec,2021-10-19_14h46.01.393,forced_choiceRT,2021.1.2,Win32,59.94125757,,,,,,,,7,Fast,j,1,1.8937,9,3,39,3,1,,,,,
,,,,,,,,,,,,6150c10799b5a7741caf1dec,2021-10-19_14h46.01.393,forced_choiceRT,2021.1.2,Win32,59.94125757,,,,,,,,,,,,,,,,,,6,0,6,0,1
,0.28,,,,,,,,,h.PNG,h,6150c10799b5a7741caf1dec,2021-10-19_14h46.01.393,forced_choiceRT,2021.1.2,Win32,59.94125757,,,,,,,,8,Fast,h,1,1.5064,0,0,0,2,1,,,,,
,0.72,,,,,,,,,f.PNG,f,6150c10799b5a7741caf1dec,2021-10-19_14h46.01.393,forced_choiceRT,2021.1.2,Win32,59.94125757,,,,,,,,8,Slow,f,1,2.1127,0,1,1,0,1,,,,,
,1.48,,,,,,,,,j.PNG,j,6150c10799b5a7741caf1dec,2021-10-19_14h46.01.393,forced_choiceRT,2021.1.2,Win32,59.94125757,,,,,,,,8,Slow,j,1,2.496,0,2,2,3,1,,,,,
,0.57,,,,,,,,,g.PNG,g,6150c10799b5a7741caf1dec,2021-10-19_14h46.01.393,forced_choiceRT,2021.1.2,Win32,59.94125757,,,,,,,,8,Ontime,g,1,2.0801,0,3,3,1,1,,,,,
,1.4,,,,,,,,,f.PNG,f,6150c10799b5a7741caf1dec,2021-10-19_14h46.01.393,forced_choiceRT,2021.1.2,Win32,59.94125757,,,,,,,,8,Slow,g,0,2.2243,1,0,4,0,1,,,,,
,1.84,,,,,,,,,j.PNG,j,6150c10799b5a7741caf1dec,2021-10-19_14h46.01.393,forced_choiceRT,2021.1.2,Win32,59.94125757,,,,,,,,8,Slow,j,1,2.6868,1,1,5,3,1,,,,,
,1.61,,,,,,,,,f.PNG,f,6150c10799b5a7741caf1dec,2021-10-19_14h46.01.393,forced_choiceRT,2021.1.2,Win32,59.94125757,,,,,,,,8,Slow,f,1,2.6597,1,2,6,0,1,,,,,
,0.01,,,,,,,,,f.PNG,f,6150c10799b5a7741caf1dec,2021-10-19_14h46.01.393,forced_choiceRT,2021.1.2,Win32,59.94125757,,,,,,,,8,Ontime,f,1,1.9953,1,3,7,0,1,,,,,
,0.98,,,,,,,,,h.PNG,h,6150c10799b5a7741caf1dec,2021-10-19_14h46.01.393,forced_choiceRT,2021.1.2,Win32,59.94125757,,,,,,,,8,Slow,h,1,2.3203,2,0,8,2,1,,,,,
,1.16,,,,,,,,,h.PNG,h,6150c10799b5a7741caf1dec,2021-10-19_14h46.01.393,forced_choiceRT,2021.1.2,Win32,59.94125757,,,,,,,,8,Ontime,h,1,2.0883,2,1,9,2,1,,,,,
,0.88,,,,,,,,,f.PNG,f,6150c10799b5a7741caf1dec,2021-10-19_14h46.01.393,forced_choiceRT,2021.1.2,Win32,59.94125757,,,,,,,,8,Ontime,f,1,2.0932,2,2,10,0,1,,,,,
,0.19,,,,,,,,,h.PNG,h,6150c10799b5a7741caf1dec,2021-10-19_14h46.01.393,forced_choiceRT,2021.1.2,Win32,59.94125757,,,,,,,,8,Fast,h,1,1.7398,2,3,11,2,1,,,,,
,1.55,,,,,,,,,j.PNG,j,6150c10799b5a7741caf1dec,2021-10-19_14h46.01.393,forced_choiceRT,2021.1.2,Win32,59.94125757,,,,,,,,8,Slow,j,1,2.2529,3,0,12,3,1,,,,,
,0.98,,,,,,,,,g.PNG,g,6150c10799b5a7741caf1dec,2021-10-19_14h46.01.393,forced_choiceRT,2021.1.2,Win32,59.94125757,,,,,,,,8,Fast,g,1,1.8004,3,1,13,1,1,,,,,
,1.19,,,,,,,,,f.PNG,f,6150c10799b5a7741caf1dec,2021-10-19_14h46.01.393,forced_choiceRT,2021.1.2,Win32,59.94125757,,,,,,,,8,Ontime,f,1,2.0182,3,2,14,0,1,,,,,
,1.44,,,,,,,,,f.PNG,f,6150c10799b5a7741caf1dec,2021-10-19_14h46.01.393,forced_choiceRT,2021.1.2,Win32,59.94125757,,,,,,,,8,Slow,f,1,2.3195,3,3,15,0,1,,,,,
,1.4,,,,,,,,,h.PNG,h,6150c10799b5a7741caf1dec,2021-10-19_14h46.01.393,forced_choiceRT,2021.1.2,Win32,59.94125757,,,,,,,,8,Slow,j,0,2.1393,4,0,16,2,1,,,,,
,0.47,,,,,,,,,j.PNG,j,6150c10799b5a7741caf1dec,2021-10-19_14h46.01.393,forced_choiceRT,2021.1.2,Win32,59.94125757,,,,,,,,8,Ontime,j,1,1.9833,4,1,17,3,1,,,,,
,1.73,,,,,,,,,f.PNG,f,6150c10799b5a7741caf1dec,2021-10-19_14h46.01.393,forced_choiceRT,2021.1.2,Win32,59.94125757,,,,,,,,8,Slow,f,1,2.5276,4,2,18,0,1,,,,,
,1.25,,,,,,,,,h.PNG,h,6150c10799b5a7741caf1dec,2021-10-19_14h46.01.393,forced_choiceRT,2021.1.2,Win32,59.94125757,,,,,,,,8,Ontime,h,1,2.0699,4,3,19,2,1,,,,,
,0.44,,,,,,,,,f.PNG,f,6150c10799b5a7741caf1dec,2021-10-19_14h46.01.393,forced_choiceRT,2021.1.2,Win32,59.94125757,,,,,,,,8,Ontime,f,1,1.9525,5,0,20,0,1,,,,,
,1.75,,,,,,,,,g.PNG,g,6150c10799b5a7741caf1dec,2021-10-19_14h46.01.393,forced_choiceRT,2021.1.2,Win32,59.94125757,,,,,,,,8,Slow,g,1,2.5776,5,1,21,1,1,,,,,
,1.11,,,,,,,,,j.PNG,j,6150c10799b5a7741caf1dec,2021-10-19_14h46.01.393,forced_choiceRT,2021.1.2,Win32,59.94125757,,,,,,,,8,Ontime,f,0,1.9216,5,2,22,3,1,,,,,
,0.82,,,,,,,,,h.PNG,h,6150c10799b5a7741caf1dec,2021-10-19_14h46.01.393,forced_choiceRT,2021.1.2,Win32,59.94125757,,,,,,,,8,Fast,h,1,1.79,5,3,23,2,1,,,,,
,1.97,,,,,,,,,f.PNG,f,6150c10799b5a7741caf1dec,2021-10-19_14h46.01.393,forced_choiceRT,2021.1.2,Win32,59.94125757,,,,,,,,8,Slow,f,1,2.745,6,0,24,0,1,,,,,
,1.36,,,,,,,,,g.PNG,g,6150c10799b5a7741caf1dec,2021-10-19_14h46.01.393,forced_choiceRT,2021.1.2,Win32,59.94125757,,,,,,,,8,Slow,g,1,2.282,6,1,25,1,1,,,,,
,0.5,,,,,,,,,g.PNG,g,6150c10799b5a7741caf1dec,2021-10-19_14h46.01.393,forced_choiceRT,2021.1.2,Win32,59.94125757,,,,,,,,8,Ontime,g,1,2.0131,6,2,26,1,1,,,,,
,1.66,,,,,,,,,h.PNG,h,6150c10799b5a7741caf1dec,2021-10-19_14h46.01.393,forced_choiceRT,2021.1.2,Win32,59.94125757,,,,,,,,8,Slow,f,0,2.334,6,3,27,2,1,,,,,
,0.07,,,,,,,,,g.PNG,g,6150c10799b5a7741caf1dec,2021-10-19_14h46.01.393,forced_choiceRT,2021.1.2,Win32,59.94125757,,,,,,,,8,Fast,g,1,1.7325,7,0,28,1,1,,,,,
,1.65,,,,,,,,,g.PNG,g,6150c10799b5a7741caf1dec,2021-10-19_14h46.01.393,forced_choiceRT,2021.1.2,Win32,59.94125757,,,,,,,,8,Slow,g,1,2.2443,7,1,29,1,1,,,,,
,1.33,,,,,,,,,j.PNG,j,6150c10799b5a7741caf1dec,2021-10-19_14h46.01.393,forced_choiceRT,2021.1.2,Win32,59.94125757,,,,,,,,8,Slow,j,1,2.1246,7,2,30,3,1,,,,,
,0.27,,,,,,,,,h.PNG,h,6150c10799b5a7741caf1dec,2021-10-19_14h46.01.393,forced_choiceRT,2021.1.2,Win32,59.94125757,,,,,,,,8,Fast,h,1,1.8106,7,3,31,2,1,,,,,
,1.71,,,,,,,,,j.PNG,j,6150c10799b5a7741caf1dec,2021-10-19_14h46.01.393,forced_choiceRT,2021.1.2,Win32,59.94125757,,,,,,,,8,Slow,h,0,2.317,8,0,32,3,1,,,,,
,1.8,,,,,,,,,g.PNG,g,6150c10799b5a7741caf1dec,2021-10-19_14h46.01.393,forced_choiceRT,2021.1.2,Win32,59.94125757,,,,,,,,8,Slow,g,1,2.5255,8,1,33,1,1,,,,,
,0.14,,,,,,,,,j.PNG,j,6150c10799b5a7741caf1dec,2021-10-19_14h46.01.393,forced_choiceRT,2021.1.2,Win32,59.94125757,,,,,,,,8,Ontime,j,1,2.0079,8,2,34,3,1,,,,,
,0.59,,,,,,,,,g.PNG,g,6150c10799b5a7741caf1dec,2021-10-19_14h46.01.393,forced_choiceRT,2021.1.2,Win32,59.94125757,,,,,,,,8,Ontime,g,1,2.0516,8,3,35,1,1,,,,,
,0.64,,,,,,,,,j.PNG,j,6150c10799b5a7741caf1dec,2021-10-19_14h46.01.393,forced_choiceRT,2021.1.2,Win32,59.94125757,,,,,,,,8,Ontime,j,1,1.9341,9,0,36,3,1,,,,,
,1.86,,,,,,,,,j.PNG,j,6150c10799b5a7741caf1dec,2021-10-19_14h46.01.393,forced_choiceRT,2021.1.2,Win32,59.94125757,,,,,,,,8,Slow,j,1,2.6109,9,1,37,3,1,,,,,
,0.77,,,,,,,,,g.PNG,g,6150c10799b5a7741caf1dec,2021-10-19_14h46.01.393,forced_choiceRT,2021.1.2,Win32,59.94125757,,,,,,,,8,Ontime,g,1,2.0493,9,2,38,1,1,,,,,
,1.09,,,,,,,,,h.PNG,h,6150c10799b5a7741caf1dec,2021-10-19_14h46.01.393,forced_choiceRT,2021.1.2,Win32,59.94125757,,,,,,,,8,Slow,h,1,2.1441,9,3,39,2,1,,,,,
,,,,,,,,,,,,6150c10799b5a7741caf1dec,2021-10-19_14h46.01.393,forced_choiceRT,2021.1.2,Win32,59.94125757,,,,,,,,,,,,,,,,,,7,0,7,0,1
,0.8,,,,,,,,,j.PNG,j,6150c10799b5a7741caf1dec,2021-10-19_14h46.01.393,forced_choiceRT,2021.1.2,Win32,59.94125757,,,,,,,,9,Slow,j,1,2.1705,0,0,0,3,1,,,,,
,0.39,,,,,,,,,f.PNG,f,6150c10799b5a7741caf1dec,2021-10-19_14h46.01.393,forced_choiceRT,2021.1.2,Win32,59.94125757,,,,,,,,9,Ontime,f,1,2.0126,0,1,1,0,1,,,,,
,0.36,,,,,,,,,f.PNG,f,6150c10799b5a7741caf1dec,2021-10-19_14h46.01.393,forced_choiceRT,2021.1.2,Win32,59.94125757,,,,,,,,9,Fast,f,1,1.8924,0,2,2,0,1,,,,,
,0.68,,,,,,,,,j.PNG,j,6150c10799b5a7741caf1dec,2021-10-19_14h46.01.393,forced_choiceRT,2021.1.2,Win32,59.94125757,,,,,,,,9,Fast,j,1,1.6244,0,3,3,3,1,,,,,
,0.51,,,,,,,,,f.PNG,f,6150c10799b5a7741caf1dec,2021-10-19_14h46.01.393,forced_choiceRT,2021.1.2,Win32,59.94125757,,,,,,,,9,Ontime,f,1,2.0436,1,0,4,0,1,,,,,
,0.25,,,,,,,,,g.PNG,g,6150c10799b5a7741caf1dec,2021-10-19_14h46.01.393,forced_choiceRT,2021.1.2,Win32,59.94125757,,,,,,,,9,Ontime,g,1,2.0412,1,1,5,1,1,,,,,
,0.13,,,,,,,,,f.PNG,f,6150c10799b5a7741caf1dec,2021-10-19_14h46.01.393,forced_choiceRT,2021.1.2,Win32,59.94125757,,,,,,,,9,Ontime,f,1,2.0859,1,2,6,0,1,,,,,
,1.13,,,,,,,,,j.PNG,j,6150c10799b5a7741caf1dec,2021-10-19_14h46.01.393,forced_choiceRT,2021.1.2,Win32,59.94125757,,,,,,,,9,Slow,j,1,2.2743,1,3,7,3,1,,,,,
,0.54,,,,,,,,,h.PNG,h,6150c10799b5a7741caf1dec,2021-10-19_14h46.01.393,forced_choiceRT,2021.1.2,Win32,59.94125757,,,,,,,,9,Fast,j,0,1.6878,2,0,8,2,1,,,,,
,1.97,,,,,,,,,g.PNG,g,6150c10799b5a7741caf1dec,2021-10-19_14h46.01.393,forced_choiceRT,2021.1.2,Win32,59.94125757,,,,,,,,9,Slow,g,1,3.0183,2,1,9,1,1,,,,,
,0.23,,,,,,,,,h.PNG,h,6150c10799b5a7741caf1dec,2021-10-19_14h46.01.393,forced_choiceRT,2021.1.2,Win32,59.94125757,,,,,,,,9,Slow,h,1,3.433,2,2,10,2,1,,,,,
,0.7,,,,,,,,,j.PNG,j,6150c10799b5a7741caf1dec,2021-10-19_14h46.01.393,forced_choiceRT,2021.1.2,Win32,59.94125757,,,,,,,,9,Fast,j,1,1.7665,2,3,11,3,1,,,,,
,1.49,,,,,,,,,j.PNG,j,6150c10799b5a7741caf1dec,2021-10-19_14h46.01.393,forced_choiceRT,2021.1.2,Win32,59.94125757,,,,,,,,9,Slow,h,0,2.9836,3,0,12,3,1,,,,,
,0.09,,,,,,,,,f.PNG,f,6150c10799b5a7741caf1dec,2021-10-19_14h46.01.393,forced_choiceRT,2021.1.2,Win32,59.94125757,,,,,,,,9,Slow,f,1,2.3435,3,1,13,0,1,,,,,
,0.88,,,,,,,,,h.PNG,h,6150c10799b5a7741caf1dec,2021-10-19_14h46.01.393,forced_choiceRT,2021.1.2,Win32,59.94125757,,,,,,,,9,Ontime,h,1,1.9623,3,2,14,2,1,,,,,
,1.99,,,,,,,,,h.PNG,h,6150c10799b5a7741caf1dec,2021-10-19_14h46.01.393,forced_choiceRT,2021.1.2,Win32,59.94125757,,,,,,,,9,Slow,h,1,2.6052,3,3,15,2,1,,,,,
,0.11,,,,,,,,,h.PNG,h,6150c10799b5a7741caf1dec,2021-10-19_14h46.01.393,forced_choiceRT,2021.1.2,Win32,59.94125757,,,,,,,,9,Fast,h,1,1.7626,4,0,16,2,1,,,,,
,1.01,,,,,,,,,g.PNG,g,6150c10799b5a7741caf1dec,2021-10-19_14h46.01.393,forced_choiceRT,2021.1.2,Win32,59.94125757,,,,,,,,9,Slow,g,1,2.1178,4,1,17,1,1,,,,,
,0.74,,,,,,,,,g.PNG,g,6150c10799b5a7741caf1dec,2021-10-19_14h46.01.393,forced_choiceRT,2021.1.2,Win32,59.94125757,,,,,,,,9,Fast,g,1,1.7541,4,2,18,1,1,,,,,
,0.56,,,,,,,,,h.PNG,h,6150c10799b5a7741caf1dec,2021-10-19_14h46.01.393,forced_choiceRT,2021.1.2,Win32,59.94125757,,,,,,,,9,Ontime,h,1,1.9205,4,3,19,2,1,,,,,
,0.83,,,,,,,,,h.PNG,h,6150c10799b5a7741caf1dec,2021-10-19_14h46.01.393,forced_choiceRT,2021.1.2,Win32,59.94125757,,,,,,,,9,Ontime,h,1,1.9283,5,0,20,2,1,,,,,
,1.41,,,,,,,,,g.PNG,g,6150c10799b5a7741caf1dec,2021-10-19_14h46.01.393,forced_choiceRT,2021.1.2,Win32,59.94125757,,,,,,,,9,Slow,g,1,2.2173,5,1,21,1,1,,,,,
,1.14,,,,,,,,,f.PNG,f,6150c10799b5a7741caf1dec,2021-10-19_14h46.01.393,forced_choiceRT,2021.1.2,Win32,59.94125757,,,,,,,,9,Slow,f,1,2.1106,5,2,22,0,1,,,,,
,0.18,,,,,,,,,j.PNG,j,6150c10799b5a7741caf1dec,2021-10-19_14h46.01.393,forced_choiceRT,2021.1.2,Win32,59.94125757,,,,,,,,9,Fast,j,1,1.8938,5,3,23,3,1,,,,,
,1.9,,,,,,,,,j.PNG,j,6150c10799b5a7741caf1dec,2021-10-19_14h46.01.393,forced_choiceRT,2021.1.2,Win32,59.94125757,,,,,,,,9,Slow,j,1,2.598,6,0,24,3,1,,,,,
,0.99,,,,,,,,,f.PNG,f,6150c10799b5a7741caf1dec,2021-10-19_14h46.01.393,forced_choiceRT,2021.1.2,Win32,59.94125757,,,,,,,,9,Ontime,f,1,2.0558,6,1,25,0,1,,,,,
,1.58,,,,,,,,,g.PNG,g,6150c10799b5a7741caf1dec,2021-10-19_14h46.01.393,forced_choiceRT,2021.1.2,Win32,59.94125757,,,,,,,,9,Slow,h,0,2.2456,6,2,26,1,1,,,,,
,0.89,,,,,,,,,g.PNG,g,6150c10799b5a7741caf1dec,2021-10-19_14h46.01.393,forced_choiceRT,2021.1.2,Win32,59.94125757,,,,,,,,9,Ontime,g,1,2.0354,6,3,27,1,1,,,,,
,1.02,,,,,,,,,j.PNG,j,6150c10799b5a7741caf1dec,2021-10-19_14h46.01.393,forced_choiceRT,2021.1.2,Win32,59.94125757,,,,,,,,9,Ontime,j,1,2.0817,7,0,28,3,1,,,,,
,0.86,,,,,,,,,j.PNG,j,6150c10799b5a7741caf1dec,2021-10-19_14h46.01.393,forced_choiceRT,2021.1.2,Win32,59.94125757,,,,,,,,9,Fast,j,1,1.875,7,1,29,3,1,,,,,
,0.03,,,,,,,,,h.PNG,h,6150c10799b5a7741caf1dec,2021-10-19_14h46.01.393,forced_choiceRT,2021.1.2,Win32,59.94125757,,,,,,,,9,Ontime,h,1,2.0278,7,2,30,2,1,,,,,
,0.29,,,,,,,,,h.PNG,h,6150c10799b5a7741caf1dec,2021-10-19_14h46.01.393,forced_choiceRT,2021.1.2,Win32,59.94125757,,,,,,,,9,Fast,h,1,1.8981,7,3,31,2,1,,,,,
,0.11,,,,,,,,,f.PNG,f,6150c10799b5a7741caf1dec,2021-10-19_14h46.01.393,forced_choiceRT,2021.1.2,Win32,59.94125757,,,,,,,,9,Slow,f,1,2.4263,8,0,32,0,1,,,,,
,1.64,,,,,,,,,h.PNG,h,6150c10799b5a7741caf1dec,2021-10-19_14h46.01.393,forced_choiceRT,2021.1.2,Win32,59.94125757,,,,,,,,9,Slow,j,0,2.3764,8,1,33,2,1,,,,,
,1.73,,,,,,,,,f.PNG,f,6150c10799b5a7741caf1dec,2021-10-19_14h46.01.393,forced_choiceRT,2021.1.2,Win32,59.94125757,,,,,,,,9,Slow,g,0,2.4099,8,2,34,0,1,,,,,
,1.96,,,,,,,,,g.PNG,g,6150c10799b5a7741caf1dec,2021-10-19_14h46.01.393,forced_choiceRT,2021.1.2,Win32,59.94125757,,,,,,,,9,Slow,g,1,2.7129,8,3,35,1,1,,,,,
,1.03,,,,,,,,,j.PNG,j,6150c10799b5a7741caf1dec,2021-10-19_14h46.01.393,forced_choiceRT,2021.1.2,Win32,59.94125757,,,,,,,,9,Slow,h,0,5.7024,9,0,36,3,1,,,,,
,0.05,,,,,,,,,f.PNG,f,6150c10799b5a7741caf1dec,2021-10-19_14h46.01.393,forced_choiceRT,2021.1.2,Win32,59.94125757,,,,,,,,9,Fast,f,1,1.8828,9,1,37,0,1,,,,,
,1.59,,,,,,,,,g.PNG,g,6150c10799b5a7741caf1dec,2021-10-19_14h46.01.393,forced_choiceRT,2021.1.2,Win32,59.94125757,,,,,,,,9,Slow,g,1,2.4354,9,2,38,1,1,,,,,
,1.12,,,,,,,,,g.PNG,g,6150c10799b5a7741caf1dec,2021-10-19_14h46.01.393,forced_choiceRT,2021.1.2,Win32,59.94125757,,,,,,,,9,Slow,g,1,2.1219,9,3,39,1,1,,,,,
,,,,,,,,,,,,6150c10799b5a7741caf1dec,2021-10-19_14h46.01.393,forced_choiceRT,2021.1.2,Win32,59.94125757,,,,,,,,,,,,,,,,,,8,0,8,0,1
,0.49,,,,,,,,,h.PNG,h,6150c10799b5a7741caf1dec,2021-10-19_14h46.01.393,forced_choiceRT,2021.1.2,Win32,59.94125757,,,,,,,,10,Ontime,h,1,2.0836,0,0,0,2,1,,,,,
,0.09,,,,,,,,,f.PNG,f,6150c10799b5a7741caf1dec,2021-10-19_14h46.01.393,forced_choiceRT,2021.1.2,Win32,59.94125757,,,,,,,,10,Ontime,f,1,2.0264,0,1,1,0,1,,,,,
,1.1,,,,,,,,,h.PNG,h,6150c10799b5a7741caf1dec,2021-10-19_14h46.01.393,forced_choiceRT,2021.1.2,Win32,59.94125757,,,,,,,,10,Slow,h,1,2.1747,0,2,2,2,1,,,,,
,0.8,,,,,,,,,j.PNG,j,6150c10799b5a7741caf1dec,2021-10-19_14h46.01.393,forced_choiceRT,2021.1.2,Win32,59.94125757,,,,,,,,10,Ontime,j,1,2.0177,0,3,3,3,1,,,,,
,0.02,,,,,,,,,h.PNG,h,6150c10799b5a7741caf1dec,2021-10-19_14h46.01.393,forced_choiceRT,2021.1.2,Win32,59.94125757,,,,,,,,10,Fast,h,1,1.8905,1,0,4,2,1,,,,,
,1.61,,,,,,,,,f.PNG,f,6150c10799b5a7741caf1dec,2021-10-19_14h46.01.393,forced_choiceRT,2021.1.2,Win32,59.94125757,,,,,,,,10,Slow,f,1,2.6298,1,1,5,0,1,,,,,
,1.14,,,,,,,,,j.PNG,j,6150c10799b5a7741caf1dec,2021-10-19_14h46.01.393,forced_choiceRT,2021.1.2,Win32,59.94125757,,,,,,,,10,Ontime,j,1,1.9532,1,2,6,3,1,,,,,
,1.2,,,,,,,,,f.PNG,f,6150c10799b5a7741caf1dec,2021-10-19_14h46.01.393,forced_choiceRT,2021.1.2,Win32,59.94125757,,,,,,,,10,Ontime,f,1,1.94,1,3,7,0,1,,,,,
,1.41,,,,,,,,,h.PNG,h,6150c10799b5a7741caf1dec,2021-10-19_14h46.01.393,forced_choiceRT,2021.1.2,Win32,59.94125757,,,,,,,,10,Slow,j,0,2.3014,2,0,8,2,1,,,,,
,0.81,,,,,,,,,h.PNG,h,6150c10799b5a7741caf1dec,2021-10-19_14h46.01.393,forced_choiceRT,2021.1.2,Win32,59.94125757,,,,,,,,10,Fast,h,1,1.7785,2,1,9,2,1,,,,,
,1.27,,,,,,,,,j.PNG,j,6150c10799b5a7741caf1dec,2021-10-19_14h46.01.393,forced_choiceRT,2021.1.2,Win32,59.94125757,,,,,,,,10,Slow,j,1,2.3031,2,2,10,3,1,,,,,
,0.56,,,,,,,,,g.PNG,g,6150c10799b5a7741caf1dec,2021-10-19_14h46.01.393,forced_choiceRT,2021.1.2,Win32,59.94125757,,,,,,,,10,Ontime,g,1,1.959,2,3,11,1,1,,,,,
,1.15,,,,,,,,,h.PNG,h,6150c10799b5a7741caf1dec,2021-10-19_14h46.01.393,forced_choiceRT,2021.1.2,Win32,59.94125757,,,,,,,,10,Ontime,h,1,1.9112,3,0,12,2,1,,,,,
,0.49,,,,,,,,,g.PNG,g,6150c10799b5a7741caf1dec,2021-10-19_14h46.01.393,forced_choiceRT,2021.1.2,Win32,59.94125757,,,,,,,,10,Ontime,g,1,1.9453,3,1,13,1,1,,,,,
,0.8,,,,,,,,,j.PNG,j,6150c10799b5a7741caf1dec,2021-10-19_14h46.01.393,forced_choiceRT,2021.1.2,Win32,59.94125757,,,,,,,,10,Ontime,j,1,1.9825,3,2,14,3,1,,,,,
,1.99,,,,,,,,,f.PNG,f,6150c10799b5a7741caf1dec,2021-10-19_14h46.01.393,forced_choiceRT,2021.1.2,Win32,59.94125757,,,,,,,,10,Slow,f,1,2.8379,3,3,15,0,1,,,,,
,0.49,,,,,,,,,g.PNG,g,6150c10799b5a7741caf1dec,2021-10-19_14h46.01.393,forced_choiceRT,2021.1.2,Win32,59.94125757,,,,,,,,10,Slow,g,1,2.1571,4,0,16,1,1,,,,,
,1.65,,,,,,,,,g.PNG,g,6150c10799b5a7741caf1dec,2021-10-19_14h46.01.393,forced_choiceRT,2021.1.2,Win32,59.94125757,,,,,,,,10,Slow,g,1,2.6497,4,1,17,1,1,,,,,
,1.74,,,,,,,,,f.PNG,f,6150c10799b5a7741caf1dec,2021-10-19_14h46.01.393,forced_choiceRT,2021.1.2,Win32,59.94125757,,,,,,,,10,Slow,f,1,2.5442,4,2,18,0,1,,,,,
,1.85,,,,,,,,,g.PNG,g,6150c10799b5a7741caf1dec,2021-10-19_14h46.01.393,forced_choiceRT,2021.1.2,Win32,59.94125757,,,,,,,,10,Slow,g,1,2.5074,4,3,19,1,1,,,,,
,1.39,,,,,,,,,f.PNG,f,6150c10799b5a7741caf1dec,2021-10-19_14h46.01.393,forced_choiceRT,2021.1.2,Win32,59.94125757,,,,,,,,10,Slow,f,1,2.2027,5,0,20,0,1,,,,,
,1.9,,,,,,,,,f.PNG,f,6150c10799b5a7741caf1dec,2021-10-19_14h46.01.393,forced_choiceRT,2021.1.2,Win32,59.94125757,,,,,,,,10,Slow,f,1,2.6387,5,1,21,0,1,,,,,
,1.47,,,,,,,,,g.PNG,g,6150c10799b5a7741caf1dec,2021-10-19_14h46.01.393,forced_choiceRT,2021.1.2,Win32,59.94125757,,,,,,,,10,Slow,g,1,2.312,5,2,22,1,1,,,,,
,1.29,,,,,,,,,g.PNG,g,6150c10799b5a7741caf1dec,2021-10-19_14h46.01.393,forced_choiceRT,2021.1.2,Win32,59.94125757,,,,,,,,10,Ontime,g,1,2.022,5,3,23,1,1,,,,,
,1.21,,,,,,,,,g.PNG,g,6150c10799b5a7741caf1dec,2021-10-19_14h46.01.393,forced_choiceRT,2021.1.2,Win32,59.94125757,,,,,,,,10,Fast,g,1,1.8753,6,0,24,1,1,,,,,
,1.13,,,,,,,,,f.PNG,f,6150c10799b5a7741caf1dec,2021-10-19_14h46.01.393,forced_choiceRT,2021.1.2,Win32,59.94125757,,,,,,,,10,Slow,g,0,2.2002,6,1,25,0,1,,,,,
,1.47,,,,,,,,,h.PNG,h,6150c10799b5a7741caf1dec,2021-10-19_14h46.01.393,forced_choiceRT,2021.1.2,Win32,59.94125757,,,,,,,,10,Slow,j,0,2.1259,6,2,26,2,1,,,,,
,1.45,,,,,,,,,f.PNG,f,6150c10799b5a7741caf1dec,2021-10-19_14h46.01.393,forced_choiceRT,2021.1.2,Win32,59.94125757,,,,,,,,10,Slow,h,0,2.1184,6,3,27,0,1,,,,,
,0.49,,,,,,,,,j.PNG,j,6150c10799b5a7741caf1dec,2021-10-19_14h46.01.393,forced_choiceRT,2021.1.2,Win32,59.94125757,,,,,,,,10,Ontime,j,1,2.047,7,0,28,3,1,,,,,
,1.64,,,,,,,,,h.PNG,h,6150c10799b5a7741caf1dec,2021-10-19_14h46.01.393,forced_choiceRT,2021.1.2,Win32,59.94125757,,,,,,,,10,Slow,h,1,2.4786,7,1,29,2,1,,,,,
,1.47,,,,,,,,,j.PNG,j,6150c10799b5a7741caf1dec,2021-10-19_14h46.01.393,forced_choiceRT,2021.1.2,Win32,59.94125757,,,,,,,,10,Slow,j,1,2.5501,7,2,30,3,1,,,,,
,1.31,,,,,,,,,j.PNG,j,6150c10799b5a7741caf1dec,2021-10-19_14h46.01.393,forced_choiceRT,2021.1.2,Win32,59.94125757,,,,,,,,10,Slow,j,1,2.1308,7,3,31,3,1,,,,,
,1.52,,,,,,,,,j.PNG,j,6150c10799b5a7741caf1dec,2021-10-19_14h46.01.393,forced_choiceRT,2021.1.2,Win32,59.94125757,,,,,,,,10,Slow,j,1,2.499,8,0,32,3,1,,,,,
,0.17,,,,,,,,,h.PNG,h,6150c10799b5a7741caf1dec,2021-10-19_14h46.01.393,forced_choiceRT,2021.1.2,Win32,59.94125757,,,,,,,,10,Slow,j,0,9.2443,8,1,33,2,1,,,,,
,0.53,,,,,,,,,h.PNG,h,6150c10799b5a7741caf1dec,2021-10-19_14h46.01.393,forced_choiceRT,2021.1.2,Win32,59.94125757,,,,,,,,10,Fast,h,1,1.8686,8,2,34,2,1,,,,,
,1.92,,,,,,,,,j.PNG,j,6150c10799b5a7741caf1dec,2021-10-19_14h46.01.393,forced_choiceRT,2021.1.2,Win32,59.94125757,,,,,,,,10,Slow,j,1,2.716,8,3,35,3,1,,,,,
,1.77,,,,,,,,,j.PNG,j,6150c10799b5a7741caf1dec,2021-10-19_14h46.01.393,forced_choiceRT,2021.1.2,Win32,59.94125757,,,,,,,,10,Slow,j,1,2.8115,9,0,36,3,1,,,,,
,1.54,,,,,,,,,g.PNG,g,6150c10799b5a7741caf1dec,2021-10-19_14h46.01.393,forced_choiceRT,2021.1.2,Win32,59.94125757,,,,,,,,10,Slow,g,1,2.5231,9,1,37,1,1,,,,,
,1.55,,,,,,,,,g.PNG,g,6150c10799b5a7741caf1dec,2021-10-19_14h46.01.393,forced_choiceRT,2021.1.2,Win32,59.94125757,,,,,,,,10,Slow,g,1,2.3234,9,2,38,1,1,,,,,
,1.38,,,,,,,,,f.PNG,f,6150c10799b5a7741caf1dec,2021-10-19_14h46.01.393,forced_choiceRT,2021.1.2,Win32,59.94125757,,,,,,,,10,Slow,f,1,2.2819,9,3,39,0,1,,,,,
,,,,,,,,,,,,6150c10799b5a7741caf1dec,2021-10-19_14h46.01.393,forced_choiceRT,2021.1.2,Win32,59.94125757,,,,,,,,,,,,,,,,,,9,0,9,0,1
