IP_Addresss,target_onset,trial_resp_sp.keys,trial_resp_sp.corr,trial_resp_sp.rt,trials_train_loop.thisRepN,trials_train_loop.thisTrialN,trials_train_loop.thisN,trials_train_loop.thisIndex,trials_train_loop.ran,pic,correct_key,participant,date,expName,psychopyVersion,OS,frameRate,trial_resp_timing.keys,trial_resp_timing.rt,trials_train_timing.thisRepN,trials_train_timing.thisTrialN,trials_train_timing.thisN,trials_train_timing.thisIndex,trials_train_timing.ran,block_id,ontime,forcedRT_resp.keys,forcedRT_resp.corr,forcedRT_resp.rt,trials.thisRepN,trials.thisTrialN,trials.thisN,trials.thisIndex,trials.ran,blocks.thisRepN,blocks.thisTrialN,blocks.thisN,blocks.thisIndex,blocks.ran
73.176.147.78,0,f,1,4.5294,0,0,0,0,1,f.PNG,f,6152555256f6a092ea9a4ff4,2021-10-19_20h16.39.173,forced_choiceRT,2021.1.2,Win32,30.00120005,,,,,,,,,,,,,,,,,,,,,,
,0,f,1,2.2757,0,1,1,0,1,f.PNG,f,6152555256f6a092ea9a4ff4,2021-10-19_20h16.39.173,forced_choiceRT,2021.1.2,Win32,30.00120005,,,,,,,,,,,,,,,,,,,,,,
,0,f,1,0.6906,0,2,2,0,1,f.PNG,f,6152555256f6a092ea9a4ff4,2021-10-19_20h16.39.173,forced_choiceRT,2021.1.2,Win32,30.00120005,,,,,,,,,,,,,,,,,,,,,,
,0,j,1,3.8572,0,3,3,3,1,j.PNG,j,6152555256f6a092ea9a4ff4,2021-10-19_20h16.39.173,forced_choiceRT,2021.1.2,Win32,30.00120005,,,,,,,,,,,,,,,,,,,,,,
,0,j,1,2.1504,1,0,4,3,1,j.PNG,j,6152555256f6a092ea9a4ff4,2021-10-19_20h16.39.173,forced_choiceRT,2021.1.2,Win32,30.00120005,,,,,,,,,,,,,,,,,,,,,,
,0,g,1,1.299,1,1,5,1,1,g.PNG,g,6152555256f6a092ea9a4ff4,2021-10-19_20h16.39.173,forced_choiceRT,2021.1.2,Win32,30.00120005,,,,,,,,,,,,,,,,,,,,,,
,0,g,1,0.9639,1,2,6,1,1,g.PNG,g,6152555256f6a092ea9a4ff4,2021-10-19_20h16.39.173,forced_choiceRT,2021.1.2,Win32,30.00120005,,,,,,,,,,,,,,,,,,,,,,
,0,g,1,0.7729,1,3,7,1,1,g.PNG,g,6152555256f6a092ea9a4ff4,2021-10-19_20h16.39.173,forced_choiceRT,2021.1.2,Win32,30.00120005,,,,,,,,,,,,,,,,,,,,,,
,0,h,0,0.4087,2,0,8,3,1,j.PNG,j,6152555256f6a092ea9a4ff4,2021-10-19_20h16.39.173,forced_choiceRT,2021.1.2,Win32,30.00120005,,,,,,,,,,,,,,,,,,,,,,
,0,f,1,0.855,2,1,9,0,1,f.PNG,f,6152555256f6a092ea9a4ff4,2021-10-19_20h16.39.173,forced_choiceRT,2021.1.2,Win32,30.00120005,,,,,,,,,,,,,,,,,,,,,,
,0,j,0,0.8019,2,2,10,2,1,h.PNG,h,6152555256f6a092ea9a4ff4,2021-10-19_20h16.39.173,forced_choiceRT,2021.1.2,Win32,30.00120005,,,,,,,,,,,,,,,,,,,,,,
,0,f,1,1.9615,2,3,11,0,1,f.PNG,f,6152555256f6a092ea9a4ff4,2021-10-19_20h16.39.173,forced_choiceRT,2021.1.2,Win32,30.00120005,,,,,,,,,,,,,,,,,,,,,,
,0,g,1,0.9333,3,0,12,1,1,g.PNG,g,6152555256f6a092ea9a4ff4,2021-10-19_20h16.39.173,forced_choiceRT,2021.1.2,Win32,30.00120005,,,,,,,,,,,,,,,,,,,,,,
,0,h,1,0.9757,3,1,13,2,1,h.PNG,h,6152555256f6a092ea9a4ff4,2021-10-19_20h16.39.173,forced_choiceRT,2021.1.2,Win32,30.00120005,,,,,,,,,,,,,,,,,,,,,,
,0,h,1,0.8527,3,2,14,2,1,h.PNG,h,6152555256f6a092ea9a4ff4,2021-10-19_20h16.39.173,forced_choiceRT,2021.1.2,Win32,30.00120005,,,,,,,,,,,,,,,,,,,,,,
,0,j,1,0.5632,3,3,15,3,1,j.PNG,j,6152555256f6a092ea9a4ff4,2021-10-19_20h16.39.173,forced_choiceRT,2021.1.2,Win32,30.00120005,,,,,,,,,,,,,,,,,,,,,,
,0,g,1,1.0044,4,0,16,1,1,g.PNG,g,6152555256f6a092ea9a4ff4,2021-10-19_20h16.39.173,forced_choiceRT,2021.1.2,Win32,30.00120005,,,,,,,,,,,,,,,,,,,,,,
,0,j,1,1.5275,4,1,17,3,1,j.PNG,j,6152555256f6a092ea9a4ff4,2021-10-19_20h16.39.173,forced_choiceRT,2021.1.2,Win32,30.00120005,,,,,,,,,,,,,,,,,,,,,,
,0,f,1,13.981,4,2,18,0,1,f.PNG,f,6152555256f6a092ea9a4ff4,2021-10-19_20h16.39.173,forced_choiceRT,2021.1.2,Win32,30.00120005,,,,,,,,,,,,,,,,,,,,,,
,0,j,1,0.7269,4,3,19,3,1,j.PNG,j,6152555256f6a092ea9a4ff4,2021-10-19_20h16.39.173,forced_choiceRT,2021.1.2,Win32,30.00120005,,,,,,,,,,,,,,,,,,,,,,
,0,h,1,0.8018,5,0,20,2,1,h.PNG,h,6152555256f6a092ea9a4ff4,2021-10-19_20h16.39.173,forced_choiceRT,2021.1.2,Win32,30.00120005,,,,,,,,,,,,,,,,,,,,,,
,0,j,0,0.6959,5,1,21,2,1,h.PNG,h,6152555256f6a092ea9a4ff4,2021-10-19_20h16.39.173,forced_choiceRT,2021.1.2,Win32,30.00120005,,,,,,,,,,,,,,,,,,,,,,
,0,f,1,0.9675,5,2,22,0,1,f.PNG,f,6152555256f6a092ea9a4ff4,2021-10-19_20h16.39.173,forced_choiceRT,2021.1.2,Win32,30.00120005,,,,,,,,,,,,,,,,,,,,,,
,0,g,1,0.9698,5,3,23,1,1,g.PNG,g,6152555256f6a092ea9a4ff4,2021-10-19_20h16.39.173,forced_choiceRT,2021.1.2,Win32,30.00120005,,,,,,,,,,,,,,,,,,,,,,
,0,j,0,1.2466,6,0,24,1,1,g.PNG,g,6152555256f6a092ea9a4ff4,2021-10-19_20h16.39.173,forced_choiceRT,2021.1.2,Win32,30.00120005,,,,,,,,,,,,,,,,,,,,,,
,0,h,1,2.2631,6,1,25,2,1,h.PNG,h,6152555256f6a092ea9a4ff4,2021-10-19_20h16.39.173,forced_choiceRT,2021.1.2,Win32,30.00120005,,,,,,,,,,,,,,,,,,,,,,
,0,h,1,0.8289,6,2,26,2,1,h.PNG,h,6152555256f6a092ea9a4ff4,2021-10-19_20h16.39.173,forced_choiceRT,2021.1.2,Win32,30.00120005,,,,,,,,,,,,,,,,,,,,,,
,0,h,1,0.6181,6,3,27,2,1,h.PNG,h,6152555256f6a092ea9a4ff4,2021-10-19_20h16.39.173,forced_choiceRT,2021.1.2,Win32,30.00120005,,,,,,,,,,,,,,,,,,,,,,
,0,j,1,0.8773,7,0,28,3,1,j.PNG,j,6152555256f6a092ea9a4ff4,2021-10-19_20h16.39.173,forced_choiceRT,2021.1.2,Win32,30.00120005,,,,,,,,,,,,,,,,,,,,,,
,0,j,1,0.8457,7,1,29,3,1,j.PNG,j,6152555256f6a092ea9a4ff4,2021-10-19_20h16.39.173,forced_choiceRT,2021.1.2,Win32,30.00120005,,,,,,,,,,,,,,,,,,,,,,
,0,f,1,0.7243,7,2,30,0,1,f.PNG,f,6152555256f6a092ea9a4ff4,2021-10-19_20h16.39.173,forced_choiceRT,2021.1.2,Win32,30.00120005,,,,,,,,,,,,,,,,,,,,,,
,0,f,1,1.187,7,3,31,0,1,f.PNG,f,6152555256f6a092ea9a4ff4,2021-10-19_20h16.39.173,forced_choiceRT,2021.1.2,Win32,30.00120005,,,,,,,,,,,,,,,,,,,,,,
,0,j,1,1.2328,8,0,32,3,1,j.PNG,j,6152555256f6a092ea9a4ff4,2021-10-19_20h16.39.173,forced_choiceRT,2021.1.2,Win32,30.00120005,,,,,,,,,,,,,,,,,,,,,,
,0,f,1,0.7753,8,1,33,0,1,f.PNG,f,6152555256f6a092ea9a4ff4,2021-10-19_20h16.39.173,forced_choiceRT,2021.1.2,Win32,30.00120005,,,,,,,,,,,,,,,,,,,,,,
,0,h,1,1.2274,8,2,34,2,1,h.PNG,h,6152555256f6a092ea9a4ff4,2021-10-19_20h16.39.173,forced_choiceRT,2021.1.2,Win32,30.00120005,,,,,,,,,,,,,,,,,,,,,,
,0,h,1,0.6134,8,3,35,2,1,h.PNG,h,6152555256f6a092ea9a4ff4,2021-10-19_20h16.39.173,forced_choiceRT,2021.1.2,Win32,30.00120005,,,,,,,,,,,,,,,,,,,,,,
,0,j,1,1.081,9,0,36,3,1,j.PNG,j,6152555256f6a092ea9a4ff4,2021-10-19_20h16.39.173,forced_choiceRT,2021.1.2,Win32,30.00120005,,,,,,,,,,,,,,,,,,,,,,
,0,h,1,1.3517,9,1,37,2,1,h.PNG,h,6152555256f6a092ea9a4ff4,2021-10-19_20h16.39.173,forced_choiceRT,2021.1.2,Win32,30.00120005,,,,,,,,,,,,,,,,,,,,,,
,0,f,1,0.6477,9,2,38,0,1,f.PNG,f,6152555256f6a092ea9a4ff4,2021-10-19_20h16.39.173,forced_choiceRT,2021.1.2,Win32,30.00120005,,,,,,,,,,,,,,,,,,,,,,
,0,f,1,0.6872,9,3,39,0,1,f.PNG,f,6152555256f6a092ea9a4ff4,2021-10-19_20h16.39.173,forced_choiceRT,2021.1.2,Win32,30.00120005,,,,,,,,,,,,,,,,,,,,,,
,0,g,1,0.8106,10,0,40,1,1,g.PNG,g,6152555256f6a092ea9a4ff4,2021-10-19_20h16.39.173,forced_choiceRT,2021.1.2,Win32,30.00120005,,,,,,,,,,,,,,,,,,,,,,
,0,j,1,0.7334,10,1,41,3,1,j.PNG,j,6152555256f6a092ea9a4ff4,2021-10-19_20h16.39.173,forced_choiceRT,2021.1.2,Win32,30.00120005,,,,,,,,,,,,,,,,,,,,,,
,0,j,1,0.654,10,2,42,3,1,j.PNG,j,6152555256f6a092ea9a4ff4,2021-10-19_20h16.39.173,forced_choiceRT,2021.1.2,Win32,30.00120005,,,,,,,,,,,,,,,,,,,,,,
,0,j,1,0.5805,10,3,43,3,1,j.PNG,j,6152555256f6a092ea9a4ff4,2021-10-19_20h16.39.173,forced_choiceRT,2021.1.2,Win32,30.00120005,,,,,,,,,,,,,,,,,,,,,,
,0,j,1,0.4983,11,0,44,3,1,j.PNG,j,6152555256f6a092ea9a4ff4,2021-10-19_20h16.39.173,forced_choiceRT,2021.1.2,Win32,30.00120005,,,,,,,,,,,,,,,,,,,,,,
,0,g,1,1.4279,11,1,45,1,1,g.PNG,g,6152555256f6a092ea9a4ff4,2021-10-19_20h16.39.173,forced_choiceRT,2021.1.2,Win32,30.00120005,,,,,,,,,,,,,,,,,,,,,,
,0,h,1,1.0615,11,2,46,2,1,h.PNG,h,6152555256f6a092ea9a4ff4,2021-10-19_20h16.39.173,forced_choiceRT,2021.1.2,Win32,30.00120005,,,,,,,,,,,,,,,,,,,,,,
,0,g,1,1.0009,11,3,47,1,1,g.PNG,g,6152555256f6a092ea9a4ff4,2021-10-19_20h16.39.173,forced_choiceRT,2021.1.2,Win32,30.00120005,,,,,,,,,,,,,,,,,,,,,,
,0,f,1,0.698,12,0,48,0,1,f.PNG,f,6152555256f6a092ea9a4ff4,2021-10-19_20h16.39.173,forced_choiceRT,2021.1.2,Win32,30.00120005,,,,,,,,,,,,,,,,,,,,,,
,0,f,1,0.6987,12,1,49,0,1,f.PNG,f,6152555256f6a092ea9a4ff4,2021-10-19_20h16.39.173,forced_choiceRT,2021.1.2,Win32,30.00120005,,,,,,,,,,,,,,,,,,,,,,
,0,j,1,1.3045,12,2,50,3,1,j.PNG,j,6152555256f6a092ea9a4ff4,2021-10-19_20h16.39.173,forced_choiceRT,2021.1.2,Win32,30.00120005,,,,,,,,,,,,,,,,,,,,,,
,0,g,1,0.9366,12,3,51,1,1,g.PNG,g,6152555256f6a092ea9a4ff4,2021-10-19_20h16.39.173,forced_choiceRT,2021.1.2,Win32,30.00120005,,,,,,,,,,,,,,,,,,,,,,
,0,h,1,1.7005,13,0,52,2,1,h.PNG,h,6152555256f6a092ea9a4ff4,2021-10-19_20h16.39.173,forced_choiceRT,2021.1.2,Win32,30.00120005,,,,,,,,,,,,,,,,,,,,,,
,0,g,1,2.3544,13,1,53,1,1,g.PNG,g,6152555256f6a092ea9a4ff4,2021-10-19_20h16.39.173,forced_choiceRT,2021.1.2,Win32,30.00120005,,,,,,,,,,,,,,,,,,,,,,
,0,h,1,0.9196,13,2,54,2,1,h.PNG,h,6152555256f6a092ea9a4ff4,2021-10-19_20h16.39.173,forced_choiceRT,2021.1.2,Win32,30.00120005,,,,,,,,,,,,,,,,,,,,,,
,0,g,1,2.1315,13,3,55,1,1,g.PNG,g,6152555256f6a092ea9a4ff4,2021-10-19_20h16.39.173,forced_choiceRT,2021.1.2,Win32,30.00120005,,,,,,,,,,,,,,,,,,,,,,
,0,g,1,0.6924,14,0,56,1,1,g.PNG,g,6152555256f6a092ea9a4ff4,2021-10-19_20h16.39.173,forced_choiceRT,2021.1.2,Win32,30.00120005,,,,,,,,,,,,,,,,,,,,,,
,0,h,1,1.1404,14,1,57,2,1,h.PNG,h,6152555256f6a092ea9a4ff4,2021-10-19_20h16.39.173,forced_choiceRT,2021.1.2,Win32,30.00120005,,,,,,,,,,,,,,,,,,,,,,
,0,f,1,0.8505,14,2,58,0,1,f.PNG,f,6152555256f6a092ea9a4ff4,2021-10-19_20h16.39.173,forced_choiceRT,2021.1.2,Win32,30.00120005,,,,,,,,,,,,,,,,,,,,,,
,0,g,1,1.2078,14,3,59,1,1,g.PNG,g,6152555256f6a092ea9a4ff4,2021-10-19_20h16.39.173,forced_choiceRT,2021.1.2,Win32,30.00120005,,,,,,,,,,,,,,,,,,,,,,
,,,,,,,,,,,,6152555256f6a092ea9a4ff4,2021-10-19_20h16.39.173,forced_choiceRT,2021.1.2,Win32,30.00120005,h,7.915,0,0,0,0,1,,,,,,,,,,,,,,,
,,,,,,,,,,,,6152555256f6a092ea9a4ff4,2021-10-19_20h16.39.173,forced_choiceRT,2021.1.2,Win32,30.00120005,f,2.5428,1,0,1,0,1,,,,,,,,,,,,,,,
,,,,,,,,,,,,6152555256f6a092ea9a4ff4,2021-10-19_20h16.39.173,forced_choiceRT,2021.1.2,Win32,30.00120005,f,0.59,2,0,2,0,1,,,,,,,,,,,,,,,
,,,,,,,,,,,,6152555256f6a092ea9a4ff4,2021-10-19_20h16.39.173,forced_choiceRT,2021.1.2,Win32,30.00120005,h,0.9453,3,0,3,0,1,,,,,,,,,,,,,,,
,,,,,,,,,,,,6152555256f6a092ea9a4ff4,2021-10-19_20h16.39.173,forced_choiceRT,2021.1.2,Win32,30.00120005,g,0.9252,4,0,4,0,1,,,,,,,,,,,,,,,
,,,,,,,,,,,,6152555256f6a092ea9a4ff4,2021-10-19_20h16.39.173,forced_choiceRT,2021.1.2,Win32,30.00120005,j,7.2205,5,0,5,0,1,,,,,,,,,,,,,,,
,,,,,,,,,,,,6152555256f6a092ea9a4ff4,2021-10-19_20h16.39.173,forced_choiceRT,2021.1.2,Win32,30.00120005,g,2.3485,6,0,6,0,1,,,,,,,,,,,,,,,
,,,,,,,,,,,,6152555256f6a092ea9a4ff4,2021-10-19_20h16.39.173,forced_choiceRT,2021.1.2,Win32,30.00120005,f,2.1007,7,0,7,0,1,,,,,,,,,,,,,,,
,,,,,,,,,,,,6152555256f6a092ea9a4ff4,2021-10-19_20h16.39.173,forced_choiceRT,2021.1.2,Win32,30.00120005,g,1.213,8,0,8,0,1,,,,,,,,,,,,,,,
,,,,,,,,,,,,6152555256f6a092ea9a4ff4,2021-10-19_20h16.39.173,forced_choiceRT,2021.1.2,Win32,30.00120005,h,1.2437,9,0,9,0,1,,,,,,,,,,,,,,,
,,,,,,,,,,,,6152555256f6a092ea9a4ff4,2021-10-19_20h16.39.173,forced_choiceRT,2021.1.2,Win32,30.00120005,g,1.3833,10,0,10,0,1,,,,,,,,,,,,,,,
,,,,,,,,,,,,6152555256f6a092ea9a4ff4,2021-10-19_20h16.39.173,forced_choiceRT,2021.1.2,Win32,30.00120005,g,0.3083,11,0,11,0,1,,,,,,,,,,,,,,,
,,,,,,,,,,,,6152555256f6a092ea9a4ff4,2021-10-19_20h16.39.173,forced_choiceRT,2021.1.2,Win32,30.00120005,g,0.284,12,0,12,0,1,,,,,,,,,,,,,,,
,,,,,,,,,,,,6152555256f6a092ea9a4ff4,2021-10-19_20h16.39.173,forced_choiceRT,2021.1.2,Win32,30.00120005,g,1.0957,13,0,13,0,1,,,,,,,,,,,,,,,
,,,,,,,,,,,,6152555256f6a092ea9a4ff4,2021-10-19_20h16.39.173,forced_choiceRT,2021.1.2,Win32,30.00120005,g,2.1962,14,0,14,0,1,,,,,,,,,,,,,,,
,,,,,,,,,,,,6152555256f6a092ea9a4ff4,2021-10-19_20h16.39.173,forced_choiceRT,2021.1.2,Win32,30.00120005,f,0.9721,15,0,15,0,1,,,,,,,,,,,,,,,
,,,,,,,,,,,,6152555256f6a092ea9a4ff4,2021-10-19_20h16.39.173,forced_choiceRT,2021.1.2,Win32,30.00120005,j,1.0604,16,0,16,0,1,,,,,,,,,,,,,,,
,,,,,,,,,,,,6152555256f6a092ea9a4ff4,2021-10-19_20h16.39.173,forced_choiceRT,2021.1.2,Win32,30.00120005,h,0.8131,17,0,17,0,1,,,,,,,,,,,,,,,
,,,,,,,,,,,,6152555256f6a092ea9a4ff4,2021-10-19_20h16.39.173,forced_choiceRT,2021.1.2,Win32,30.00120005,j,15.1115,18,0,18,0,1,,,,,,,,,,,,,,,
,,,,,,,,,,,,6152555256f6a092ea9a4ff4,2021-10-19_20h16.39.173,forced_choiceRT,2021.1.2,Win32,30.00120005,h,7.6607,19,0,19,0,1,,,,,,,,,,,,,,,
,0.09,,,,,,,,,g.PNG,g,6152555256f6a092ea9a4ff4,2021-10-19_20h16.39.173,forced_choiceRT,2021.1.2,Win32,30.00120005,,,,,,,,1,Fast,g,1,1.7692,0,0,0,1,1,,,,,
,1.34,,,,,,,,,h.PNG,h,6152555256f6a092ea9a4ff4,2021-10-19_20h16.39.173,forced_choiceRT,2021.1.2,Win32,30.00120005,,,,,,,,1,Slow,h,1,2.2409,0,1,1,2,1,,,,,
,1.83,,,,,,,,,h.PNG,h,6152555256f6a092ea9a4ff4,2021-10-19_20h16.39.173,forced_choiceRT,2021.1.2,Win32,30.00120005,,,,,,,,1,Slow,g,0,2.2698,0,2,2,2,1,,,,,
,1.59,,,,,,,,,j.PNG,j,6152555256f6a092ea9a4ff4,2021-10-19_20h16.39.173,forced_choiceRT,2021.1.2,Win32,30.00120005,,,,,,,,1,Slow,j,1,2.275,0,3,3,3,1,,,,,
,1.15,,,,,,,,,h.PNG,h,6152555256f6a092ea9a4ff4,2021-10-19_20h16.39.173,forced_choiceRT,2021.1.2,Win32,30.00120005,,,,,,,,1,Fast,f,0,1.6298,1,0,4,2,1,,,,,
,0.43,,,,,,,,,j.PNG,j,6152555256f6a092ea9a4ff4,2021-10-19_20h16.39.173,forced_choiceRT,2021.1.2,Win32,30.00120005,,,,,,,,1,Fast,j,1,1.5366,1,1,5,3,1,,,,,
,0.07,,,,,,,,,h.PNG,h,6152555256f6a092ea9a4ff4,2021-10-19_20h16.39.173,forced_choiceRT,2021.1.2,Win32,30.00120005,,,,,,,,1,Slow,h,1,2.1716,1,2,6,2,1,,,,,
,0.24,,,,,,,,,f.PNG,f,6152555256f6a092ea9a4ff4,2021-10-19_20h16.39.173,forced_choiceRT,2021.1.2,Win32,30.00120005,,,,,,,,1,Fast,f,1,1.069,1,3,7,0,1,,,,,
,0.89,,,,,,,,,f.PNG,f,6152555256f6a092ea9a4ff4,2021-10-19_20h16.39.173,forced_choiceRT,2021.1.2,Win32,30.00120005,,,,,,,,1,Fast,f,1,1.7059,2,0,8,0,1,,,,,
,0.85,,,,,,,,,h.PNG,h,6152555256f6a092ea9a4ff4,2021-10-19_20h16.39.173,forced_choiceRT,2021.1.2,Win32,30.00120005,,,,,,,,1,Fast,h,1,1.7118,2,1,9,2,1,,,,,
,1.95,,,,,,,,,h.PNG,h,6152555256f6a092ea9a4ff4,2021-10-19_20h16.39.173,forced_choiceRT,2021.1.2,Win32,30.00120005,,,,,,,,1,Slow,h,1,2.4001,2,2,10,2,1,,,,,
,1.23,,,,,,,,,j.PNG,j,6152555256f6a092ea9a4ff4,2021-10-19_20h16.39.173,forced_choiceRT,2021.1.2,Win32,30.00120005,,,,,,,,1,Slow,j,1,2.8708,2,3,11,3,1,,,,,
,1.21,,,,,,,,,g.PNG,g,6152555256f6a092ea9a4ff4,2021-10-19_20h16.39.173,forced_choiceRT,2021.1.2,Win32,30.00120005,,,,,,,,1,Ontime,g,1,1.9895,3,0,12,1,1,,,,,
,1.26,,,,,,,,,f.PNG,f,6152555256f6a092ea9a4ff4,2021-10-19_20h16.39.173,forced_choiceRT,2021.1.2,Win32,30.00120005,,,,,,,,1,Fast,g,0,1.7954,3,1,13,0,1,,,,,
,1.7,,,,,,,,,f.PNG,f,6152555256f6a092ea9a4ff4,2021-10-19_20h16.39.173,forced_choiceRT,2021.1.2,Win32,30.00120005,,,,,,,,1,Slow,f,1,2.3033,3,2,14,0,1,,,,,
,0.79,,,,,,,,,j.PNG,j,6152555256f6a092ea9a4ff4,2021-10-19_20h16.39.173,forced_choiceRT,2021.1.2,Win32,30.00120005,,,,,,,,1,Fast,h,0,1.4521,3,3,15,3,1,,,,,
,1.54,,,,,,,,,g.PNG,g,6152555256f6a092ea9a4ff4,2021-10-19_20h16.39.173,forced_choiceRT,2021.1.2,Win32,30.00120005,,,,,,,,1,Slow,j,0,2.171,4,0,16,1,1,,,,,
,1.9,,,,,,,,,g.PNG,g,6152555256f6a092ea9a4ff4,2021-10-19_20h16.39.173,forced_choiceRT,2021.1.2,Win32,30.00120005,,,,,,,,1,Slow,f,0,2.3411,4,1,17,1,1,,,,,
,1.99,,,,,,,,,j.PNG,j,6152555256f6a092ea9a4ff4,2021-10-19_20h16.39.173,forced_choiceRT,2021.1.2,Win32,30.00120005,,,,,,,,1,Slow,g,0,8.8358,4,2,18,3,1,,,,,
,0.64,,,,,,,,,g.PNG,g,6152555256f6a092ea9a4ff4,2021-10-19_20h16.39.173,forced_choiceRT,2021.1.2,Win32,30.00120005,,,,,,,,1,Fast,f,0,1.416,4,3,19,1,1,,,,,
,1.29,,,,,,,,,f.PNG,f,6152555256f6a092ea9a4ff4,2021-10-19_20h16.39.173,forced_choiceRT,2021.1.2,Win32,30.00120005,,,,,,,,1,Fast,f,1,1.8675,5,0,20,0,1,,,,,
,0.34,,,,,,,,,f.PNG,f,6152555256f6a092ea9a4ff4,2021-10-19_20h16.39.173,forced_choiceRT,2021.1.2,Win32,30.00120005,,,,,,,,1,Fast,f,1,1.555,5,1,21,0,1,,,,,
,0.49,,,,,,,,,g.PNG,g,6152555256f6a092ea9a4ff4,2021-10-19_20h16.39.173,forced_choiceRT,2021.1.2,Win32,30.00120005,,,,,,,,1,Ontime,g,1,2.0226,5,2,22,1,1,,,,,
,1.28,,,,,,,,,g.PNG,g,6152555256f6a092ea9a4ff4,2021-10-19_20h16.39.173,forced_choiceRT,2021.1.2,Win32,30.00120005,,,,,,,,1,Ontime,j,0,1.9838,5,3,23,1,1,,,,,
,0.43,,,,,,,,,j.PNG,j,6152555256f6a092ea9a4ff4,2021-10-19_20h16.39.173,forced_choiceRT,2021.1.2,Win32,30.00120005,,,,,,,,1,Slow,j,1,2.1012,6,0,24,3,1,,,,,
,0.02,,,,,,,,,g.PNG,g,6152555256f6a092ea9a4ff4,2021-10-19_20h16.39.173,forced_choiceRT,2021.1.2,Win32,30.00120005,,,,,,,,1,Ontime,g,1,1.9216,6,1,25,1,1,,,,,
,0.79,,,,,,,,,f.PNG,f,6152555256f6a092ea9a4ff4,2021-10-19_20h16.39.173,forced_choiceRT,2021.1.2,Win32,30.00120005,,,,,,,,1,Ontime,f,1,2.0008,6,2,26,0,1,,,,,
,0.75,,,,,,,,,j.PNG,j,6152555256f6a092ea9a4ff4,2021-10-19_20h16.39.173,forced_choiceRT,2021.1.2,Win32,30.00120005,,,,,,,,1,Fast,h,0,1.7071,6,3,27,3,1,,,,,
,1.41,,,,,,,,,h.PNG,h,6152555256f6a092ea9a4ff4,2021-10-19_20h16.39.173,forced_choiceRT,2021.1.2,Win32,30.00120005,,,,,,,,1,Ontime,h,1,1.9937,7,0,28,2,1,,,,,
,1.1,,,,,,,,,j.PNG,j,6152555256f6a092ea9a4ff4,2021-10-19_20h16.39.173,forced_choiceRT,2021.1.2,Win32,30.00120005,,,,,,,,1,Fast,j,1,1.8622,7,1,29,3,1,,,,,
,0.09,,,,,,,,,f.PNG,f,6152555256f6a092ea9a4ff4,2021-10-19_20h16.39.173,forced_choiceRT,2021.1.2,Win32,30.00120005,,,,,,,,1,Fast,f,1,1.8054,7,2,30,0,1,,,,,
,1.9,,,,,,,,,j.PNG,j,6152555256f6a092ea9a4ff4,2021-10-19_20h16.39.173,forced_choiceRT,2021.1.2,Win32,30.00120005,,,,,,,,1,Slow,j,1,4.1567,7,3,31,3,1,,,,,
,1.6,,,,,,,,,f.PNG,f,6152555256f6a092ea9a4ff4,2021-10-19_20h16.39.173,forced_choiceRT,2021.1.2,Win32,30.00120005,,,,,,,,1,Ontime,g,0,2.0377,8,0,32,0,1,,,,,
,0.15,,,,,,,,,h.PNG,h,6152555256f6a092ea9a4ff4,2021-10-19_20h16.39.173,forced_choiceRT,2021.1.2,Win32,30.00120005,,,,,,,,1,Fast,h,1,1.7767,8,1,33,2,1,,,,,
,1.22,,,,,,,,,h.PNG,h,6152555256f6a092ea9a4ff4,2021-10-19_20h16.39.173,forced_choiceRT,2021.1.2,Win32,30.00120005,,,,,,,,1,Ontime,h,1,2.003,8,2,34,2,1,,,,,
,0.96,,,,,,,,,f.PNG,f,6152555256f6a092ea9a4ff4,2021-10-19_20h16.39.173,forced_choiceRT,2021.1.2,Win32,30.00120005,,,,,,,,1,Ontime,f,1,1.9635,8,3,35,0,1,,,,,
,1.16,,,,,,,,,j.PNG,j,6152555256f6a092ea9a4ff4,2021-10-19_20h16.39.173,forced_choiceRT,2021.1.2,Win32,30.00120005,,,,,,,,1,Ontime,j,1,1.9569,9,0,36,3,1,,,,,
,0.6,,,,,,,,,g.PNG,g,6152555256f6a092ea9a4ff4,2021-10-19_20h16.39.173,forced_choiceRT,2021.1.2,Win32,30.00120005,,,,,,,,1,Ontime,g,1,1.9366,9,1,37,1,1,,,,,
,0,,,,,,,,,h.PNG,h,6152555256f6a092ea9a4ff4,2021-10-19_20h16.39.173,forced_choiceRT,2021.1.2,Win32,30.00120005,,,,,,,,1,Ontime,h,1,1.9101,9,2,38,2,1,,,,,
,0.6,,,,,,,,,g.PNG,g,6152555256f6a092ea9a4ff4,2021-10-19_20h16.39.173,forced_choiceRT,2021.1.2,Win32,30.00120005,,,,,,,,1,Fast,g,1,1.8124,9,3,39,1,1,,,,,
,,,,,,,,,,,,6152555256f6a092ea9a4ff4,2021-10-19_20h16.39.173,forced_choiceRT,2021.1.2,Win32,30.00120005,,,,,,,,,,,,,,,,,,0,0,0,0,1
,1.68,,,,,,,,,h.PNG,h,6152555256f6a092ea9a4ff4,2021-10-19_20h16.39.173,forced_choiceRT,2021.1.2,Win32,30.00120005,,,,,,,,2,Slow,h,1,4.9969,0,0,0,2,1,,,,,
,1.01,,,,,,,,,h.PNG,h,6152555256f6a092ea9a4ff4,2021-10-19_20h16.39.173,forced_choiceRT,2021.1.2,Win32,30.00120005,,,,,,,,2,Fast,h,1,1.8133,0,1,1,2,1,,,,,
,1.66,,,,,,,,,f.PNG,f,6152555256f6a092ea9a4ff4,2021-10-19_20h16.39.173,forced_choiceRT,2021.1.2,Win32,30.00120005,,,,,,,,2,Slow,f,1,2.2279,0,2,2,0,1,,,,,
,0.08,,,,,,,,,h.PNG,h,6152555256f6a092ea9a4ff4,2021-10-19_20h16.39.173,forced_choiceRT,2021.1.2,Win32,30.00120005,,,,,,,,2,Fast,h,1,1.7228,0,3,3,2,1,,,,,
,0.95,,,,,,,,,f.PNG,f,6152555256f6a092ea9a4ff4,2021-10-19_20h16.39.173,forced_choiceRT,2021.1.2,Win32,30.00120005,,,,,,,,2,Fast,f,1,1.8962,1,0,4,0,1,,,,,
,0.1,,,,,,,,,g.PNG,g,6152555256f6a092ea9a4ff4,2021-10-19_20h16.39.173,forced_choiceRT,2021.1.2,Win32,30.00120005,,,,,,,,2,Ontime,g,1,2.055,1,1,5,1,1,,,,,
,0.6,,,,,,,,,g.PNG,g,6152555256f6a092ea9a4ff4,2021-10-19_20h16.39.173,forced_choiceRT,2021.1.2,Win32,30.00120005,,,,,,,,2,Ontime,g,1,1.9071,1,2,6,1,1,,,,,
,1.73,,,,,,,,,j.PNG,j,6152555256f6a092ea9a4ff4,2021-10-19_20h16.39.173,forced_choiceRT,2021.1.2,Win32,30.00120005,,,,,,,,2,Slow,h,0,2.3123,1,3,7,3,1,,,,,
,0.93,,,,,,,,,f.PNG,f,6152555256f6a092ea9a4ff4,2021-10-19_20h16.39.173,forced_choiceRT,2021.1.2,Win32,30.00120005,,,,,,,,2,Ontime,f,1,2.0198,2,0,8,0,1,,,,,
,0.48,,,,,,,,,f.PNG,f,6152555256f6a092ea9a4ff4,2021-10-19_20h16.39.173,forced_choiceRT,2021.1.2,Win32,30.00120005,,,,,,,,2,Ontime,f,1,2.0986,2,1,9,0,1,,,,,
,1.94,,,,,,,,,j.PNG,j,6152555256f6a092ea9a4ff4,2021-10-19_20h16.39.173,forced_choiceRT,2021.1.2,Win32,30.00120005,,,,,,,,2,Slow,h,0,2.4136,2,2,10,3,1,,,,,
,1.46,,,,,,,,,j.PNG,j,6152555256f6a092ea9a4ff4,2021-10-19_20h16.39.173,forced_choiceRT,2021.1.2,Win32,30.00120005,,,,,,,,2,Fast,j,1,1.8916,2,3,11,3,1,,,,,
,1.55,,,,,,,,,g.PNG,g,6152555256f6a092ea9a4ff4,2021-10-19_20h16.39.173,forced_choiceRT,2021.1.2,Win32,30.00120005,,,,,,,,2,Slow,g,1,2.2569,3,0,12,1,1,,,,,
,0.13,,,,,,,,,j.PNG,j,6152555256f6a092ea9a4ff4,2021-10-19_20h16.39.173,forced_choiceRT,2021.1.2,Win32,30.00120005,,,,,,,,2,Fast,j,1,1.8783,3,1,13,3,1,,,,,
,0.83,,,,,,,,,j.PNG,j,6152555256f6a092ea9a4ff4,2021-10-19_20h16.39.173,forced_choiceRT,2021.1.2,Win32,30.00120005,,,,,,,,2,Ontime,j,1,1.935,3,2,14,3,1,,,,,
,0.94,,,,,,,,,g.PNG,g,6152555256f6a092ea9a4ff4,2021-10-19_20h16.39.173,forced_choiceRT,2021.1.2,Win32,30.00120005,,,,,,,,2,Fast,g,1,1.8899,3,3,15,1,1,,,,,
,1.08,,,,,,,,,j.PNG,j,6152555256f6a092ea9a4ff4,2021-10-19_20h16.39.173,forced_choiceRT,2021.1.2,Win32,30.00120005,,,,,,,,2,Ontime,f,0,2.044,4,0,16,3,1,,,,,
,1.41,,,,,,,,,g.PNG,g,6152555256f6a092ea9a4ff4,2021-10-19_20h16.39.173,forced_choiceRT,2021.1.2,Win32,30.00120005,,,,,,,,2,Ontime,g,1,2.0099,4,1,17,1,1,,,,,
,0.71,,,,,,,,,j.PNG,j,6152555256f6a092ea9a4ff4,2021-10-19_20h16.39.173,forced_choiceRT,2021.1.2,Win32,30.00120005,,,,,,,,2,Ontime,j,1,2.0573,4,2,18,3,1,,,,,
,0.04,,,,,,,,,f.PNG,f,6152555256f6a092ea9a4ff4,2021-10-19_20h16.39.173,forced_choiceRT,2021.1.2,Win32,30.00120005,,,,,,,,2,Slow,f,1,2.13,4,3,19,0,1,,,,,
,0.72,,,,,,,,,h.PNG,h,6152555256f6a092ea9a4ff4,2021-10-19_20h16.39.173,forced_choiceRT,2021.1.2,Win32,30.00120005,,,,,,,,2,Fast,h,1,1.8697,5,0,20,2,1,,,,,
,1.32,,,,,,,,,h.PNG,h,6152555256f6a092ea9a4ff4,2021-10-19_20h16.39.173,forced_choiceRT,2021.1.2,Win32,30.00120005,,,,,,,,2,Slow,h,1,2.2339,5,1,21,2,1,,,,,
,1.17,,,,,,,,,f.PNG,f,6152555256f6a092ea9a4ff4,2021-10-19_20h16.39.173,forced_choiceRT,2021.1.2,Win32,30.00120005,,,,,,,,2,Ontime,f,1,2.0861,5,2,22,0,1,,,,,
,0.55,,,,,,,,,f.PNG,f,6152555256f6a092ea9a4ff4,2021-10-19_20h16.39.173,forced_choiceRT,2021.1.2,Win32,30.00120005,,,,,,,,2,Ontime,f,1,2.0604,5,3,23,0,1,,,,,
,1.47,,,,,,,,,j.PNG,j,6152555256f6a092ea9a4ff4,2021-10-19_20h16.39.173,forced_choiceRT,2021.1.2,Win32,30.00120005,,,,,,,,2,Slow,j,1,2.2632,6,0,24,3,1,,,,,
,0.07,,,,,,,,,f.PNG,f,6152555256f6a092ea9a4ff4,2021-10-19_20h16.39.173,forced_choiceRT,2021.1.2,Win32,30.00120005,,,,,,,,2,Ontime,f,1,2.0219,6,1,25,0,1,,,,,
,0.72,,,,,,,,,h.PNG,h,6152555256f6a092ea9a4ff4,2021-10-19_20h16.39.173,forced_choiceRT,2021.1.2,Win32,30.00120005,,,,,,,,2,Ontime,h,1,2.0044,6,2,26,2,1,,,,,
,1.37,,,,,,,,,h.PNG,h,6152555256f6a092ea9a4ff4,2021-10-19_20h16.39.173,forced_choiceRT,2021.1.2,Win32,30.00120005,,,,,,,,2,Slow,h,1,2.1606,6,3,27,2,1,,,,,
,1.91,,,,,,,,,g.PNG,g,6152555256f6a092ea9a4ff4,2021-10-19_20h16.39.173,forced_choiceRT,2021.1.2,Win32,30.00120005,,,,,,,,2,Slow,f,0,2.34,7,0,28,1,1,,,,,
,0.83,,,,,,,,,f.PNG,f,6152555256f6a092ea9a4ff4,2021-10-19_20h16.39.173,forced_choiceRT,2021.1.2,Win32,30.00120005,,,,,,,,2,Ontime,f,1,2.0209,7,1,29,0,1,,,,,
,1.3,,,,,,,,,h.PNG,h,6152555256f6a092ea9a4ff4,2021-10-19_20h16.39.173,forced_choiceRT,2021.1.2,Win32,30.00120005,,,,,,,,2,Slow,h,1,2.1,7,2,30,2,1,,,,,
,0.03,,,,,,,,,h.PNG,h,6152555256f6a092ea9a4ff4,2021-10-19_20h16.39.173,forced_choiceRT,2021.1.2,Win32,30.00120005,,,,,,,,2,Ontime,h,1,2.0703,7,3,31,2,1,,,,,
,1.61,,,,,,,,,j.PNG,j,6152555256f6a092ea9a4ff4,2021-10-19_20h16.39.173,forced_choiceRT,2021.1.2,Win32,30.00120005,,,,,,,,2,Slow,j,1,2.2471,8,0,32,3,1,,,,,
,1.24,,,,,,,,,g.PNG,g,6152555256f6a092ea9a4ff4,2021-10-19_20h16.39.173,forced_choiceRT,2021.1.2,Win32,30.00120005,,,,,,,,2,Ontime,f,0,1.9455,8,1,33,1,1,,,,,
,1.05,,,,,,,,,g.PNG,g,6152555256f6a092ea9a4ff4,2021-10-19_20h16.39.173,forced_choiceRT,2021.1.2,Win32,30.00120005,,,,,,,,2,Ontime,g,1,2.009,8,2,34,1,1,,,,,
,0.38,,,,,,,,,h.PNG,h,6152555256f6a092ea9a4ff4,2021-10-19_20h16.39.173,forced_choiceRT,2021.1.2,Win32,30.00120005,,,,,,,,2,Fast,h,1,1.7025,8,3,35,2,1,,,,,
,0.45,,,,,,,,,g.PNG,g,6152555256f6a092ea9a4ff4,2021-10-19_20h16.39.173,forced_choiceRT,2021.1.2,Win32,30.00120005,,,,,,,,2,Ontime,g,1,2.0717,9,0,36,1,1,,,,,
,1.66,,,,,,,,,j.PNG,j,6152555256f6a092ea9a4ff4,2021-10-19_20h16.39.173,forced_choiceRT,2021.1.2,Win32,30.00120005,,,,,,,,2,Slow,j,1,2.3062,9,1,37,3,1,,,,,
,1.64,,,,,,,,,g.PNG,g,6152555256f6a092ea9a4ff4,2021-10-19_20h16.39.173,forced_choiceRT,2021.1.2,Win32,30.00120005,,,,,,,,2,Slow,g,1,2.2025,9,2,38,1,1,,,,,
,0.31,,,,,,,,,f.PNG,f,6152555256f6a092ea9a4ff4,2021-10-19_20h16.39.173,forced_choiceRT,2021.1.2,Win32,30.00120005,,,,,,,,2,Ontime,f,1,2.0007,9,3,39,0,1,,,,,
,,,,,,,,,,,,6152555256f6a092ea9a4ff4,2021-10-19_20h16.39.173,forced_choiceRT,2021.1.2,Win32,30.00120005,,,,,,,,,,,,,,,,,,1,0,1,0,1
,1.55,,,,,,,,,h.PNG,h,6152555256f6a092ea9a4ff4,2021-10-19_20h16.39.173,forced_choiceRT,2021.1.2,Win32,30.00120005,,,,,,,,3,Slow,h,1,9.2416,0,0,0,2,1,,,,,
,0.21,,,,,,,,,h.PNG,h,6152555256f6a092ea9a4ff4,2021-10-19_20h16.39.173,forced_choiceRT,2021.1.2,Win32,30.00120005,,,,,,,,3,Fast,h,1,1.7508,0,1,1,2,1,,,,,
,0.64,,,,,,,,,h.PNG,h,6152555256f6a092ea9a4ff4,2021-10-19_20h16.39.173,forced_choiceRT,2021.1.2,Win32,30.00120005,,,,,,,,3,Ontime,h,1,2.0489,0,2,2,2,1,,,,,
,1.32,,,,,,,,,j.PNG,j,6152555256f6a092ea9a4ff4,2021-10-19_20h16.39.173,forced_choiceRT,2021.1.2,Win32,30.00120005,,,,,,,,3,Ontime,j,1,1.9568,0,3,3,3,1,,,,,
,0.63,,,,,,,,,g.PNG,g,6152555256f6a092ea9a4ff4,2021-10-19_20h16.39.173,forced_choiceRT,2021.1.2,Win32,30.00120005,,,,,,,,3,Ontime,g,1,1.9907,1,0,4,1,1,,,,,
,0.26,,,,,,,,,j.PNG,j,6152555256f6a092ea9a4ff4,2021-10-19_20h16.39.173,forced_choiceRT,2021.1.2,Win32,30.00120005,,,,,,,,3,Ontime,j,1,2.0848,1,1,5,3,1,,,,,
,1.05,,,,,,,,,g.PNG,g,6152555256f6a092ea9a4ff4,2021-10-19_20h16.39.173,forced_choiceRT,2021.1.2,Win32,30.00120005,,,,,,,,3,Slow,g,1,2.1098,1,2,6,1,1,,,,,
,1.94,,,,,,,,,h.PNG,h,6152555256f6a092ea9a4ff4,2021-10-19_20h16.39.173,forced_choiceRT,2021.1.2,Win32,30.00120005,,,,,,,,3,Slow,f,0,2.3645,1,3,7,2,1,,,,,
,1.53,,,,,,,,,f.PNG,f,6152555256f6a092ea9a4ff4,2021-10-19_20h16.39.173,forced_choiceRT,2021.1.2,Win32,30.00120005,,,,,,,,3,Ontime,j,0,1.9501,2,0,8,0,1,,,,,
,1.86,,,,,,,,,f.PNG,f,6152555256f6a092ea9a4ff4,2021-10-19_20h16.39.173,forced_choiceRT,2021.1.2,Win32,30.00120005,,,,,,,,3,Slow,f,1,2.2028,2,1,9,0,1,,,,,
,1.03,,,,,,,,,g.PNG,g,6152555256f6a092ea9a4ff4,2021-10-19_20h16.39.173,forced_choiceRT,2021.1.2,Win32,30.00120005,,,,,,,,3,Ontime,g,1,1.9874,2,2,10,1,1,,,,,
,1.12,,,,,,,,,h.PNG,h,6152555256f6a092ea9a4ff4,2021-10-19_20h16.39.173,forced_choiceRT,2021.1.2,Win32,30.00120005,,,,,,,,3,Ontime,g,0,1.9391,2,3,11,2,1,,,,,
,1.69,,,,,,,,,f.PNG,f,6152555256f6a092ea9a4ff4,2021-10-19_20h16.39.173,forced_choiceRT,2021.1.2,Win32,30.00120005,,,,,,,,3,Ontime,j,0,2.0648,3,0,12,0,1,,,,,
,1.85,,,,,,,,,h.PNG,h,6152555256f6a092ea9a4ff4,2021-10-19_20h16.39.173,forced_choiceRT,2021.1.2,Win32,30.00120005,,,,,,,,3,Slow,f,0,2.1727,3,1,13,2,1,,,,,
,0.24,,,,,,,,,j.PNG,j,6152555256f6a092ea9a4ff4,2021-10-19_20h16.39.173,forced_choiceRT,2021.1.2,Win32,30.00120005,,,,,,,,3,Ontime,j,1,1.9857,3,2,14,3,1,,,,,
,0.47,,,,,,,,,f.PNG,f,6152555256f6a092ea9a4ff4,2021-10-19_20h16.39.173,forced_choiceRT,2021.1.2,Win32,30.00120005,,,,,,,,3,Ontime,f,1,1.9396,3,3,15,0,1,,,,,
,1.23,,,,,,,,,j.PNG,j,6152555256f6a092ea9a4ff4,2021-10-19_20h16.39.173,forced_choiceRT,2021.1.2,Win32,30.00120005,,,,,,,,3,Fast,j,1,1.7915,4,0,16,3,1,,,,,
,1.98,,,,,,,,,g.PNG,g,6152555256f6a092ea9a4ff4,2021-10-19_20h16.39.173,forced_choiceRT,2021.1.2,Win32,30.00120005,,,,,,,,3,Slow,f,0,2.4474,4,1,17,1,1,,,,,
,1.29,,,,,,,,,f.PNG,f,6152555256f6a092ea9a4ff4,2021-10-19_20h16.39.173,forced_choiceRT,2021.1.2,Win32,30.00120005,,,,,,,,3,Fast,f,1,1.8529,4,2,18,0,1,,,,,
,0.01,,,,,,,,,g.PNG,g,6152555256f6a092ea9a4ff4,2021-10-19_20h16.39.173,forced_choiceRT,2021.1.2,Win32,30.00120005,,,,,,,,3,Ontime,g,1,2.0447,4,3,19,1,1,,,,,
,0.6,,,,,,,,,j.PNG,j,6152555256f6a092ea9a4ff4,2021-10-19_20h16.39.173,forced_choiceRT,2021.1.2,Win32,30.00120005,,,,,,,,3,Ontime,j,1,2.0471,5,0,20,3,1,,,,,
,0.13,,,,,,,,,g.PNG,g,6152555256f6a092ea9a4ff4,2021-10-19_20h16.39.173,forced_choiceRT,2021.1.2,Win32,30.00120005,,,,,,,,3,Fast,g,1,1.8592,5,1,21,1,1,,,,,
,0.31,,,,,,,,,f.PNG,f,6152555256f6a092ea9a4ff4,2021-10-19_20h16.39.173,forced_choiceRT,2021.1.2,Win32,30.00120005,,,,,,,,3,Slow,f,1,2.1139,5,2,22,0,1,,,,,
,1.41,,,,,,,,,f.PNG,f,6152555256f6a092ea9a4ff4,2021-10-19_20h16.39.173,forced_choiceRT,2021.1.2,Win32,30.00120005,,,,,,,,3,Slow,f,1,2.1677,5,3,23,0,1,,,,,
,0.41,,,,,,,,,f.PNG,f,6152555256f6a092ea9a4ff4,2021-10-19_20h16.39.173,forced_choiceRT,2021.1.2,Win32,30.00120005,,,,,,,,3,Ontime,f,1,2.0218,6,0,24,0,1,,,,,
,0.61,,,,,,,,,f.PNG,f,6152555256f6a092ea9a4ff4,2021-10-19_20h16.39.173,forced_choiceRT,2021.1.2,Win32,30.00120005,,,,,,,,3,Slow,f,1,2.1091,6,1,25,0,1,,,,,
,0.06,,,,,,,,,h.PNG,h,6152555256f6a092ea9a4ff4,2021-10-19_20h16.39.173,forced_choiceRT,2021.1.2,Win32,30.00120005,,,,,,,,3,Slow,h,1,2.1233,6,2,26,2,1,,,,,
,0.34,,,,,,,,,h.PNG,h,6152555256f6a092ea9a4ff4,2021-10-19_20h16.39.173,forced_choiceRT,2021.1.2,Win32,30.00120005,,,,,,,,3,Ontime,h,1,1.9976,6,3,27,2,1,,,,,
,1.5,,,,,,,,,j.PNG,j,6152555256f6a092ea9a4ff4,2021-10-19_20h16.39.173,forced_choiceRT,2021.1.2,Win32,30.00120005,,,,,,,,3,Slow,j,1,2.2542,7,0,28,3,1,,,,,
,1.45,,,,,,,,,g.PNG,g,6152555256f6a092ea9a4ff4,2021-10-19_20h16.39.173,forced_choiceRT,2021.1.2,Win32,30.00120005,,,,,,,,3,Slow,f,0,2.1088,7,1,29,1,1,,,,,
,0.16,,,,,,,,,g.PNG,g,6152555256f6a092ea9a4ff4,2021-10-19_20h16.39.173,forced_choiceRT,2021.1.2,Win32,30.00120005,,,,,,,,3,Ontime,g,1,1.9749,7,2,30,1,1,,,,,
,1.42,,,,,,,,,g.PNG,g,6152555256f6a092ea9a4ff4,2021-10-19_20h16.39.173,forced_choiceRT,2021.1.2,Win32,30.00120005,,,,,,,,3,Slow,g,1,2.1558,7,3,31,1,1,,,,,
,0.95,,,,,,,,,j.PNG,j,6152555256f6a092ea9a4ff4,2021-10-19_20h16.39.173,forced_choiceRT,2021.1.2,Win32,30.00120005,,,,,,,,3,Fast,j,1,1.89,8,0,32,3,1,,,,,
,0.2,,,,,,,,,j.PNG,j,6152555256f6a092ea9a4ff4,2021-10-19_20h16.39.173,forced_choiceRT,2021.1.2,Win32,30.00120005,,,,,,,,3,Ontime,j,1,2.0046,8,1,33,3,1,,,,,
,0.93,,,,,,,,,j.PNG,j,6152555256f6a092ea9a4ff4,2021-10-19_20h16.39.173,forced_choiceRT,2021.1.2,Win32,30.00120005,,,,,,,,3,Ontime,j,1,1.9812,8,2,34,3,1,,,,,
,0.9,,,,,,,,,j.PNG,j,6152555256f6a092ea9a4ff4,2021-10-19_20h16.39.173,forced_choiceRT,2021.1.2,Win32,30.00120005,,,,,,,,3,Slow,j,1,2.1555,8,3,35,3,1,,,,,
,1.39,,,,,,,,,g.PNG,g,6152555256f6a092ea9a4ff4,2021-10-19_20h16.39.173,forced_choiceRT,2021.1.2,Win32,30.00120005,,,,,,,,3,Ontime,f,0,1.9956,9,0,36,1,1,,,,,
,0.43,,,,,,,,,h.PNG,h,6152555256f6a092ea9a4ff4,2021-10-19_20h16.39.173,forced_choiceRT,2021.1.2,Win32,30.00120005,,,,,,,,3,Fast,h,1,1.8853,9,1,37,2,1,,,,,
,1.63,,,,,,,,,f.PNG,f,6152555256f6a092ea9a4ff4,2021-10-19_20h16.39.173,forced_choiceRT,2021.1.2,Win32,30.00120005,,,,,,,,3,Slow,f,1,2.3493,9,2,38,0,1,,,,,
,0.03,,,,,,,,,h.PNG,h,6152555256f6a092ea9a4ff4,2021-10-19_20h16.39.173,forced_choiceRT,2021.1.2,Win32,30.00120005,,,,,,,,3,Ontime,h,1,1.9549,9,3,39,2,1,,,,,
,,,,,,,,,,,,6152555256f6a092ea9a4ff4,2021-10-19_20h16.39.173,forced_choiceRT,2021.1.2,Win32,30.00120005,,,,,,,,,,,,,,,,,,2,0,2,0,1
,0.32,,,,,,,,,g.PNG,g,6152555256f6a092ea9a4ff4,2021-10-19_20h16.39.173,forced_choiceRT,2021.1.2,Win32,30.00120005,,,,,,,,4,Ontime,g,1,1.9902,0,0,0,1,1,,,,,
,1.63,,,,,,,,,f.PNG,f,6152555256f6a092ea9a4ff4,2021-10-19_20h16.39.173,forced_choiceRT,2021.1.2,Win32,30.00120005,,,,,,,,4,Slow,g,0,2.1804,0,1,1,0,1,,,,,
,1.46,,,,,,,,,j.PNG,j,6152555256f6a092ea9a4ff4,2021-10-19_20h16.39.173,forced_choiceRT,2021.1.2,Win32,30.00120005,,,,,,,,4,Ontime,f,0,2.0219,0,2,2,3,1,,,,,
,1.96,,,,,,,,,j.PNG,j,6152555256f6a092ea9a4ff4,2021-10-19_20h16.39.173,forced_choiceRT,2021.1.2,Win32,30.00120005,,,,,,,,4,Slow,f,0,2.2581,0,3,3,3,1,,,,,
,0.17,,,,,,,,,f.PNG,f,6152555256f6a092ea9a4ff4,2021-10-19_20h16.39.173,forced_choiceRT,2021.1.2,Win32,30.00120005,,,,,,,,4,Fast,f,1,1.8965,1,0,4,0,1,,,,,
,1.49,,,,,,,,,h.PNG,h,6152555256f6a092ea9a4ff4,2021-10-19_20h16.39.173,forced_choiceRT,2021.1.2,Win32,30.00120005,,,,,,,,4,Ontime,h,1,2.0938,1,1,5,2,1,,,,,
,0.37,,,,,,,,,g.PNG,g,6152555256f6a092ea9a4ff4,2021-10-19_20h16.39.173,forced_choiceRT,2021.1.2,Win32,30.00120005,,,,,,,,4,Ontime,g,1,2.1,1,2,6,1,1,,,,,
,0.76,,,,,,,,,f.PNG,f,6152555256f6a092ea9a4ff4,2021-10-19_20h16.39.173,forced_choiceRT,2021.1.2,Win32,30.00120005,,,,,,,,4,Ontime,f,1,2.0931,1,3,7,0,1,,,,,
,0.57,,,,,,,,,f.PNG,f,6152555256f6a092ea9a4ff4,2021-10-19_20h16.39.173,forced_choiceRT,2021.1.2,Win32,30.00120005,,,,,,,,4,Ontime,f,1,2.0625,2,0,8,0,1,,,,,
,1.05,,,,,,,,,h.PNG,h,6152555256f6a092ea9a4ff4,2021-10-19_20h16.39.173,forced_choiceRT,2021.1.2,Win32,30.00120005,,,,,,,,4,Ontime,h,1,2.0024,2,1,9,2,1,,,,,
,1.25,,,,,,,,,j.PNG,j,6152555256f6a092ea9a4ff4,2021-10-19_20h16.39.173,forced_choiceRT,2021.1.2,Win32,30.00120005,,,,,,,,4,Ontime,j,1,2.0712,2,2,10,3,1,,,,,
,0.46,,,,,,,,,j.PNG,j,6152555256f6a092ea9a4ff4,2021-10-19_20h16.39.173,forced_choiceRT,2021.1.2,Win32,30.00120005,,,,,,,,4,Ontime,j,1,2.0659,2,3,11,3,1,,,,,
,0.57,,,,,,,,,g.PNG,g,6152555256f6a092ea9a4ff4,2021-10-19_20h16.39.173,forced_choiceRT,2021.1.2,Win32,30.00120005,,,,,,,,4,Slow,g,1,2.1286,3,0,12,1,1,,,,,
,0.15,,,,,,,,,g.PNG,g,6152555256f6a092ea9a4ff4,2021-10-19_20h16.39.173,forced_choiceRT,2021.1.2,Win32,30.00120005,,,,,,,,4,Ontime,g,1,2.056,3,1,13,1,1,,,,,
,0.93,,,,,,,,,g.PNG,g,6152555256f6a092ea9a4ff4,2021-10-19_20h16.39.173,forced_choiceRT,2021.1.2,Win32,30.00120005,,,,,,,,4,Slow,g,1,2.121,3,2,14,1,1,,,,,
,0.36,,,,,,,,,j.PNG,j,6152555256f6a092ea9a4ff4,2021-10-19_20h16.39.173,forced_choiceRT,2021.1.2,Win32,30.00120005,,,,,,,,4,Ontime,j,1,1.9863,3,3,15,3,1,,,,,
,0.74,,,,,,,,,j.PNG,j,6152555256f6a092ea9a4ff4,2021-10-19_20h16.39.173,forced_choiceRT,2021.1.2,Win32,30.00120005,,,,,,,,4,Slow,j,1,2.1099,4,0,16,3,1,,,,,
,1.85,,,,,,,,,h.PNG,h,6152555256f6a092ea9a4ff4,2021-10-19_20h16.39.173,forced_choiceRT,2021.1.2,Win32,30.00120005,,,,,,,,4,Slow,h,1,2.172,4,1,17,2,1,,,,,
,1.78,,,,,,,,,h.PNG,h,6152555256f6a092ea9a4ff4,2021-10-19_20h16.39.173,forced_choiceRT,2021.1.2,Win32,30.00120005,,,,,,,,4,Slow,h,1,2.1517,4,2,18,2,1,,,,,
,1.47,,,,,,,,,f.PNG,f,6152555256f6a092ea9a4ff4,2021-10-19_20h16.39.173,forced_choiceRT,2021.1.2,Win32,30.00120005,,,,,,,,4,Ontime,f,1,2.0611,4,3,19,0,1,,,,,
,1.13,,,,,,,,,g.PNG,g,6152555256f6a092ea9a4ff4,2021-10-19_20h16.39.173,forced_choiceRT,2021.1.2,Win32,30.00120005,,,,,,,,4,Ontime,g,1,2.0653,5,0,20,1,1,,,,,
,1.92,,,,,,,,,g.PNG,g,6152555256f6a092ea9a4ff4,2021-10-19_20h16.39.173,forced_choiceRT,2021.1.2,Win32,30.00120005,,,,,,,,4,Slow,h,0,2.284,5,1,21,1,1,,,,,
,0.53,,,,,,,,,f.PNG,f,6152555256f6a092ea9a4ff4,2021-10-19_20h16.39.173,forced_choiceRT,2021.1.2,Win32,30.00120005,,,,,,,,4,Ontime,f,1,1.9933,5,2,22,0,1,,,,,
,1.73,,,,,,,,,g.PNG,g,6152555256f6a092ea9a4ff4,2021-10-19_20h16.39.173,forced_choiceRT,2021.1.2,Win32,30.00120005,,,,,,,,4,Slow,f,0,2.2866,5,3,23,1,1,,,,,
,1.83,,,,,,,,,j.PNG,j,6152555256f6a092ea9a4ff4,2021-10-19_20h16.39.173,forced_choiceRT,2021.1.2,Win32,30.00120005,,,,,,,,4,Slow,h,0,2.2025,6,0,24,3,1,,,,,
,1.75,,,,,,,,,h.PNG,h,6152555256f6a092ea9a4ff4,2021-10-19_20h16.39.173,forced_choiceRT,2021.1.2,Win32,30.00120005,,,,,,,,4,Slow,j,0,2.1979,6,1,25,2,1,,,,,
,1.48,,,,,,,,,f.PNG,f,6152555256f6a092ea9a4ff4,2021-10-19_20h16.39.173,forced_choiceRT,2021.1.2,Win32,30.00120005,,,,,,,,4,Ontime,f,1,2.0772,6,2,26,0,1,,,,,
,0.26,,,,,,,,,j.PNG,j,6152555256f6a092ea9a4ff4,2021-10-19_20h16.39.173,forced_choiceRT,2021.1.2,Win32,30.00120005,,,,,,,,4,Ontime,j,1,2.0389,6,3,27,3,1,,,,,
,1.94,,,,,,,,,f.PNG,f,6152555256f6a092ea9a4ff4,2021-10-19_20h16.39.173,forced_choiceRT,2021.1.2,Win32,30.00120005,,,,,,,,4,Slow,g,0,2.3687,7,0,28,0,1,,,,,
,0.49,,,,,,,,,g.PNG,g,6152555256f6a092ea9a4ff4,2021-10-19_20h16.39.173,forced_choiceRT,2021.1.2,Win32,30.00120005,,,,,,,,4,Ontime,g,1,1.9458,7,1,29,1,1,,,,,
,0.8,,,,,,,,,h.PNG,h,6152555256f6a092ea9a4ff4,2021-10-19_20h16.39.173,forced_choiceRT,2021.1.2,Win32,30.00120005,,,,,,,,4,Ontime,h,1,2.0888,7,2,30,2,1,,,,,
,0.13,,,,,,,,,h.PNG,h,6152555256f6a092ea9a4ff4,2021-10-19_20h16.39.173,forced_choiceRT,2021.1.2,Win32,30.00120005,,,,,,,,4,Ontime,h,1,2.0628,7,3,31,2,1,,,,,
,1.79,,,,,,,,,f.PNG,f,6152555256f6a092ea9a4ff4,2021-10-19_20h16.39.173,forced_choiceRT,2021.1.2,Win32,30.00120005,,,,,,,,4,Slow,f,1,2.248,8,0,32,0,1,,,,,
,0.72,,,,,,,,,f.PNG,f,6152555256f6a092ea9a4ff4,2021-10-19_20h16.39.173,forced_choiceRT,2021.1.2,Win32,30.00120005,,,,,,,,4,Ontime,f,1,2.0309,8,1,33,0,1,,,,,
,0.44,,,,,,,,,h.PNG,h,6152555256f6a092ea9a4ff4,2021-10-19_20h16.39.173,forced_choiceRT,2021.1.2,Win32,30.00120005,,,,,,,,4,Ontime,h,1,2.0621,8,2,34,2,1,,,,,
,1.48,,,,,,,,,g.PNG,g,6152555256f6a092ea9a4ff4,2021-10-19_20h16.39.173,forced_choiceRT,2021.1.2,Win32,30.00120005,,,,,,,,4,Slow,f,0,2.101,8,3,35,1,1,,,,,
,0.59,,,,,,,,,h.PNG,h,6152555256f6a092ea9a4ff4,2021-10-19_20h16.39.173,forced_choiceRT,2021.1.2,Win32,30.00120005,,,,,,,,4,Ontime,h,1,2.0516,9,0,36,2,1,,,,,
,0.81,,,,,,,,,j.PNG,j,6152555256f6a092ea9a4ff4,2021-10-19_20h16.39.173,forced_choiceRT,2021.1.2,Win32,30.00120005,,,,,,,,4,Slow,j,1,2.1002,9,1,37,3,1,,,,,
,1.84,,,,,,,,,j.PNG,j,6152555256f6a092ea9a4ff4,2021-10-19_20h16.39.173,forced_choiceRT,2021.1.2,Win32,30.00120005,,,,,,,,4,Slow,j,1,2.4642,9,2,38,3,1,,,,,
,1.55,,,,,,,,,h.PNG,h,6152555256f6a092ea9a4ff4,2021-10-19_20h16.39.173,forced_choiceRT,2021.1.2,Win32,30.00120005,,,,,,,,4,Slow,h,1,2.1782,9,3,39,2,1,,,,,
,,,,,,,,,,,,6152555256f6a092ea9a4ff4,2021-10-19_20h16.39.173,forced_choiceRT,2021.1.2,Win32,30.00120005,,,,,,,,,,,,,,,,,,3,0,3,0,1
,1.52,,,,,,,,,g.PNG,g,6152555256f6a092ea9a4ff4,2021-10-19_20h16.39.173,forced_choiceRT,2021.1.2,Win32,30.00120005,,,,,,,,5,Ontime,g,1,2.0489,0,0,0,1,1,,,,,
,1.47,,,,,,,,,f.PNG,f,6152555256f6a092ea9a4ff4,2021-10-19_20h16.39.173,forced_choiceRT,2021.1.2,Win32,30.00120005,,,,,,,,5,Ontime,g,0,1.9275,0,1,1,0,1,,,,,
,0.14,,,,,,,,,g.PNG,g,6152555256f6a092ea9a4ff4,2021-10-19_20h16.39.173,forced_choiceRT,2021.1.2,Win32,30.00120005,,,,,,,,5,Fast,g,1,1.8253,0,2,2,1,1,,,,,
,0.57,,,,,,,,,j.PNG,j,6152555256f6a092ea9a4ff4,2021-10-19_20h16.39.173,forced_choiceRT,2021.1.2,Win32,30.00120005,,,,,,,,5,Ontime,j,1,1.9185,0,3,3,3,1,,,,,
,1.58,,,,,,,,,f.PNG,f,6152555256f6a092ea9a4ff4,2021-10-19_20h16.39.173,forced_choiceRT,2021.1.2,Win32,30.00120005,,,,,,,,5,Slow,f,1,2.1344,1,0,4,0,1,,,,,
,1.2,,,,,,,,,g.PNG,g,6152555256f6a092ea9a4ff4,2021-10-19_20h16.39.173,forced_choiceRT,2021.1.2,Win32,30.00120005,,,,,,,,5,Fast,g,1,1.8577,1,1,5,1,1,,,,,
,0.78,,,,,,,,,h.PNG,h,6152555256f6a092ea9a4ff4,2021-10-19_20h16.39.173,forced_choiceRT,2021.1.2,Win32,30.00120005,,,,,,,,5,Slow,h,1,2.1465,1,2,6,2,1,,,,,
,0.62,,,,,,,,,j.PNG,j,6152555256f6a092ea9a4ff4,2021-10-19_20h16.39.173,forced_choiceRT,2021.1.2,Win32,30.00120005,,,,,,,,5,Slow,j,1,2.1349,1,3,7,3,1,,,,,
,1.77,,,,,,,,,g.PNG,g,6152555256f6a092ea9a4ff4,2021-10-19_20h16.39.173,forced_choiceRT,2021.1.2,Win32,30.00120005,,,,,,,,5,Slow,f,0,2.1685,2,0,8,1,1,,,,,
,0.87,,,,,,,,,h.PNG,h,6152555256f6a092ea9a4ff4,2021-10-19_20h16.39.173,forced_choiceRT,2021.1.2,Win32,30.00120005,,,,,,,,5,Ontime,j,0,1.9544,2,1,9,2,1,,,,,
,1.24,,,,,,,,,f.PNG,f,6152555256f6a092ea9a4ff4,2021-10-19_20h16.39.173,forced_choiceRT,2021.1.2,Win32,30.00120005,,,,,,,,5,Ontime,f,1,1.9712,2,2,10,0,1,,,,,
,0.94,,,,,,,,,h.PNG,h,6152555256f6a092ea9a4ff4,2021-10-19_20h16.39.173,forced_choiceRT,2021.1.2,Win32,30.00120005,,,,,,,,5,Slow,h,1,2.1172,2,3,11,2,1,,,,,
,0.21,,,,,,,,,h.PNG,h,6152555256f6a092ea9a4ff4,2021-10-19_20h16.39.173,forced_choiceRT,2021.1.2,Win32,30.00120005,,,,,,,,5,Fast,h,1,1.7684,3,0,12,2,1,,,,,
,0.1,,,,,,,,,f.PNG,f,6152555256f6a092ea9a4ff4,2021-10-19_20h16.39.173,forced_choiceRT,2021.1.2,Win32,30.00120005,,,,,,,,5,Slow,f,1,2.1517,3,1,13,0,1,,,,,
,0.22,,,,,,,,,g.PNG,g,6152555256f6a092ea9a4ff4,2021-10-19_20h16.39.173,forced_choiceRT,2021.1.2,Win32,30.00120005,,,,,,,,5,Ontime,g,1,1.9656,3,2,14,1,1,,,,,
,0.47,,,,,,,,,h.PNG,h,6152555256f6a092ea9a4ff4,2021-10-19_20h16.39.173,forced_choiceRT,2021.1.2,Win32,30.00120005,,,,,,,,5,Slow,h,1,2.1184,3,3,15,2,1,,,,,
,0.52,,,,,,,,,h.PNG,h,6152555256f6a092ea9a4ff4,2021-10-19_20h16.39.173,forced_choiceRT,2021.1.2,Win32,30.00120005,,,,,,,,5,Ontime,h,1,1.93,4,0,16,2,1,,,,,
,1.23,,,,,,,,,g.PNG,g,6152555256f6a092ea9a4ff4,2021-10-19_20h16.39.173,forced_choiceRT,2021.1.2,Win32,30.00120005,,,,,,,,5,Ontime,g,1,1.9472,4,1,17,1,1,,,,,
,0.32,,,,,,,,,h.PNG,h,6152555256f6a092ea9a4ff4,2021-10-19_20h16.39.173,forced_choiceRT,2021.1.2,Win32,30.00120005,,,,,,,,5,Ontime,h,1,1.9105,4,2,18,2,1,,,,,
,1.36,,,,,,,,,j.PNG,j,6152555256f6a092ea9a4ff4,2021-10-19_20h16.39.173,forced_choiceRT,2021.1.2,Win32,30.00120005,,,,,,,,5,Slow,j,1,2.1088,4,3,19,3,1,,,,,
,0,,,,,,,,,h.PNG,h,6152555256f6a092ea9a4ff4,2021-10-19_20h16.39.173,forced_choiceRT,2021.1.2,Win32,30.00120005,,,,,,,,5,Ontime,h,1,1.9588,5,0,20,2,1,,,,,
,1.95,,,,,,,,,j.PNG,j,6152555256f6a092ea9a4ff4,2021-10-19_20h16.39.173,forced_choiceRT,2021.1.2,Win32,30.00120005,,,,,,,,5,Slow,f,0,2.3365,5,1,21,3,1,,,,,
,1.39,,,,,,,,,j.PNG,j,6152555256f6a092ea9a4ff4,2021-10-19_20h16.39.173,forced_choiceRT,2021.1.2,Win32,30.00120005,,,,,,,,5,Ontime,j,1,1.932,5,2,22,3,1,,,,,
,1.07,,,,,,,,,f.PNG,f,6152555256f6a092ea9a4ff4,2021-10-19_20h16.39.173,forced_choiceRT,2021.1.2,Win32,30.00120005,,,,,,,,5,Slow,f,1,2.1428,5,3,23,0,1,,,,,
,1.25,,,,,,,,,g.PNG,g,6152555256f6a092ea9a4ff4,2021-10-19_20h16.39.173,forced_choiceRT,2021.1.2,Win32,30.00120005,,,,,,,,5,Ontime,h,0,1.9602,6,0,24,1,1,,,,,
,0.92,,,,,,,,,g.PNG,g,6152555256f6a092ea9a4ff4,2021-10-19_20h16.39.173,forced_choiceRT,2021.1.2,Win32,30.00120005,,,,,,,,5,Ontime,g,1,1.9719,6,1,25,1,1,,,,,
,0.05,,,,,,,,,f.PNG,f,6152555256f6a092ea9a4ff4,2021-10-19_20h16.39.173,forced_choiceRT,2021.1.2,Win32,30.00120005,,,,,,,,5,Ontime,f,1,1.9995,6,2,26,0,1,,,,,
,0.64,,,,,,,,,g.PNG,g,6152555256f6a092ea9a4ff4,2021-10-19_20h16.39.173,forced_choiceRT,2021.1.2,Win32,30.00120005,,,,,,,,5,Ontime,g,1,1.9613,6,3,27,1,1,,,,,
,0.54,,,,,,,,,f.PNG,f,6152555256f6a092ea9a4ff4,2021-10-19_20h16.39.173,forced_choiceRT,2021.1.2,Win32,30.00120005,,,,,,,,5,Ontime,f,1,1.9957,7,0,28,0,1,,,,,
,0.8,,,,,,,,,f.PNG,f,6152555256f6a092ea9a4ff4,2021-10-19_20h16.39.173,forced_choiceRT,2021.1.2,Win32,30.00120005,,,,,,,,5,Slow,g,0,2.1751,7,1,29,0,1,,,,,
,0.89,,,,,,,,,g.PNG,g,6152555256f6a092ea9a4ff4,2021-10-19_20h16.39.173,forced_choiceRT,2021.1.2,Win32,30.00120005,,,,,,,,5,Ontime,g,1,1.9147,7,2,30,1,1,,,,,
,0.16,,,,,,,,,j.PNG,j,6152555256f6a092ea9a4ff4,2021-10-19_20h16.39.173,forced_choiceRT,2021.1.2,Win32,30.00120005,,,,,,,,5,Ontime,j,1,2.0681,7,3,31,3,1,,,,,
,1.05,,,,,,,,,h.PNG,h,6152555256f6a092ea9a4ff4,2021-10-19_20h16.39.173,forced_choiceRT,2021.1.2,Win32,30.00120005,,,,,,,,5,Slow,h,1,2.111,8,0,32,2,1,,,,,
,0.64,,,,,,,,,f.PNG,f,6152555256f6a092ea9a4ff4,2021-10-19_20h16.39.173,forced_choiceRT,2021.1.2,Win32,30.00120005,,,,,,,,5,Ontime,f,1,2.0015,8,1,33,0,1,,,,,
,0.8,,,,,,,,,j.PNG,j,6152555256f6a092ea9a4ff4,2021-10-19_20h16.39.173,forced_choiceRT,2021.1.2,Win32,30.00120005,,,,,,,,5,Ontime,j,1,2.0235,8,2,34,3,1,,,,,
,0.61,,,,,,,,,f.PNG,f,6152555256f6a092ea9a4ff4,2021-10-19_20h16.39.173,forced_choiceRT,2021.1.2,Win32,30.00120005,,,,,,,,5,Ontime,f,1,2.0581,8,3,35,0,1,,,,,
,0.45,,,,,,,,,j.PNG,j,6152555256f6a092ea9a4ff4,2021-10-19_20h16.39.173,forced_choiceRT,2021.1.2,Win32,30.00120005,,,,,,,,5,Ontime,j,1,1.9673,9,0,36,3,1,,,,,
,1.12,,,,,,,,,j.PNG,j,6152555256f6a092ea9a4ff4,2021-10-19_20h16.39.173,forced_choiceRT,2021.1.2,Win32,30.00120005,,,,,,,,5,Ontime,j,1,2.027,9,1,37,3,1,,,,,
,1.88,,,,,,,,,j.PNG,j,6152555256f6a092ea9a4ff4,2021-10-19_20h16.39.173,forced_choiceRT,2021.1.2,Win32,30.00120005,,,,,,,,5,Slow,f,0,2.2798,9,2,38,3,1,,,,,
,0.64,,,,,,,,,h.PNG,h,6152555256f6a092ea9a4ff4,2021-10-19_20h16.39.173,forced_choiceRT,2021.1.2,Win32,30.00120005,,,,,,,,5,Ontime,h,1,1.9948,9,3,39,2,1,,,,,
,,,,,,,,,,,,6152555256f6a092ea9a4ff4,2021-10-19_20h16.39.173,forced_choiceRT,2021.1.2,Win32,30.00120005,,,,,,,,,,,,,,,,,,4,0,4,0,1
,1.48,,,,,,,,,h.PNG,h,6152555256f6a092ea9a4ff4,2021-10-19_20h16.39.173,forced_choiceRT,2021.1.2,Win32,30.00120005,,,,,,,,6,Slow,j,0,2.1362,0,0,0,2,1,,,,,
,1.14,,,,,,,,,f.PNG,f,6152555256f6a092ea9a4ff4,2021-10-19_20h16.39.173,forced_choiceRT,2021.1.2,Win32,30.00120005,,,,,,,,6,Ontime,f,1,2.024,0,1,1,0,1,,,,,
,0.57,,,,,,,,,h.PNG,h,6152555256f6a092ea9a4ff4,2021-10-19_20h16.39.173,forced_choiceRT,2021.1.2,Win32,30.00120005,,,,,,,,6,Fast,h,1,1.8548,0,2,2,2,1,,,,,
,0.49,,,,,,,,,g.PNG,g,6152555256f6a092ea9a4ff4,2021-10-19_20h16.39.173,forced_choiceRT,2021.1.2,Win32,30.00120005,,,,,,,,6,Ontime,g,1,1.9522,0,3,3,1,1,,,,,
,1.25,,,,,,,,,g.PNG,g,6152555256f6a092ea9a4ff4,2021-10-19_20h16.39.173,forced_choiceRT,2021.1.2,Win32,30.00120005,,,,,,,,6,Ontime,g,1,1.9356,1,0,4,1,1,,,,,
,1.73,,,,,,,,,f.PNG,f,6152555256f6a092ea9a4ff4,2021-10-19_20h16.39.173,forced_choiceRT,2021.1.2,Win32,30.00120005,,,,,,,,6,Slow,j,0,2.1248,1,1,5,0,1,,,,,
,0.66,,,,,,,,,j.PNG,j,6152555256f6a092ea9a4ff4,2021-10-19_20h16.39.173,forced_choiceRT,2021.1.2,Win32,30.00120005,,,,,,,,6,Fast,j,1,1.8594,1,2,6,3,1,,,,,
,0.29,,,,,,,,,g.PNG,g,6152555256f6a092ea9a4ff4,2021-10-19_20h16.39.173,forced_choiceRT,2021.1.2,Win32,30.00120005,,,,,,,,6,Ontime,g,1,2.0114,1,3,7,1,1,,,,,
,0.58,,,,,,,,,h.PNG,h,6152555256f6a092ea9a4ff4,2021-10-19_20h16.39.173,forced_choiceRT,2021.1.2,Win32,30.00120005,,,,,,,,6,Ontime,h,1,1.9831,2,0,8,2,1,,,,,
,0.6,,,,,,,,,g.PNG,g,6152555256f6a092ea9a4ff4,2021-10-19_20h16.39.173,forced_choiceRT,2021.1.2,Win32,30.00120005,,,,,,,,6,Ontime,g,1,2.0046,2,1,9,1,1,,,,,
,1.88,,,,,,,,,h.PNG,h,6152555256f6a092ea9a4ff4,2021-10-19_20h16.39.173,forced_choiceRT,2021.1.2,Win32,30.00120005,,,,,,,,6,Slow,j,0,2.1808,2,2,10,2,1,,,,,
,0.01,,,,,,,,,g.PNG,g,6152555256f6a092ea9a4ff4,2021-10-19_20h16.39.173,forced_choiceRT,2021.1.2,Win32,30.00120005,,,,,,,,6,Fast,g,1,1.7846,2,3,11,1,1,,,,,
,0.21,,,,,,,,,j.PNG,j,6152555256f6a092ea9a4ff4,2021-10-19_20h16.39.173,forced_choiceRT,2021.1.2,Win32,30.00120005,,,,,,,,6,Ontime,j,1,2.0077,3,0,12,3,1,,,,,
,1.39,,,,,,,,,f.PNG,f,6152555256f6a092ea9a4ff4,2021-10-19_20h16.39.173,forced_choiceRT,2021.1.2,Win32,30.00120005,,,,,,,,6,Ontime,f,1,2.0272,3,1,13,0,1,,,,,
,1.91,,,,,,,,,g.PNG,g,6152555256f6a092ea9a4ff4,2021-10-19_20h16.39.173,forced_choiceRT,2021.1.2,Win32,30.00120005,,,,,,,,6,Slow,h,0,2.2816,3,2,14,1,1,,,,,
,1.89,,,,,,,,,f.PNG,f,6152555256f6a092ea9a4ff4,2021-10-19_20h16.39.173,forced_choiceRT,2021.1.2,Win32,30.00120005,,,,,,,,6,Ontime,g,0,1.9407,3,3,15,0,1,,,,,
,0.62,,,,,,,,,j.PNG,j,6152555256f6a092ea9a4ff4,2021-10-19_20h16.39.173,forced_choiceRT,2021.1.2,Win32,30.00120005,,,,,,,,6,Fast,j,1,1.8782,4,0,16,3,1,,,,,
,1.17,,,,,,,,,f.PNG,f,6152555256f6a092ea9a4ff4,2021-10-19_20h16.39.173,forced_choiceRT,2021.1.2,Win32,30.00120005,,,,,,,,6,Slow,f,1,2.2664,4,1,17,0,1,,,,,
,1.38,,,,,,,,,j.PNG,j,6152555256f6a092ea9a4ff4,2021-10-19_20h16.39.173,forced_choiceRT,2021.1.2,Win32,30.00120005,,,,,,,,6,Ontime,f,0,1.9652,4,2,18,3,1,,,,,
,1.51,,,,,,,,,h.PNG,h,6152555256f6a092ea9a4ff4,2021-10-19_20h16.39.173,forced_choiceRT,2021.1.2,Win32,30.00120005,,,,,,,,6,Ontime,g,0,2.0302,4,3,19,2,1,,,,,
,0.83,,,,,,,,,h.PNG,h,6152555256f6a092ea9a4ff4,2021-10-19_20h16.39.173,forced_choiceRT,2021.1.2,Win32,30.00120005,,,,,,,,6,Ontime,h,1,2.0701,5,0,20,2,1,,,,,
,0.6,,,,,,,,,h.PNG,h,6152555256f6a092ea9a4ff4,2021-10-19_20h16.39.173,forced_choiceRT,2021.1.2,Win32,30.00120005,,,,,,,,6,Ontime,h,1,2.0278,5,1,21,2,1,,,,,
,1.81,,,,,,,,,f.PNG,f,6152555256f6a092ea9a4ff4,2021-10-19_20h16.39.173,forced_choiceRT,2021.1.2,Win32,30.00120005,,,,,,,,6,Slow,f,1,2.308,5,2,22,0,1,,,,,
,1.31,,,,,,,,,f.PNG,f,6152555256f6a092ea9a4ff4,2021-10-19_20h16.39.173,forced_choiceRT,2021.1.2,Win32,30.00120005,,,,,,,,6,Slow,f,1,2.1187,5,3,23,0,1,,,,,
,0.59,,,,,,,,,f.PNG,f,6152555256f6a092ea9a4ff4,2021-10-19_20h16.39.173,forced_choiceRT,2021.1.2,Win32,30.00120005,,,,,,,,6,Ontime,f,1,1.9271,6,0,24,0,1,,,,,
,0.92,,,,,,,,,h.PNG,h,6152555256f6a092ea9a4ff4,2021-10-19_20h16.39.173,forced_choiceRT,2021.1.2,Win32,30.00120005,,,,,,,,6,Slow,h,1,2.1101,6,1,25,2,1,,,,,
,1.23,,,,,,,,,g.PNG,g,6152555256f6a092ea9a4ff4,2021-10-19_20h16.39.173,forced_choiceRT,2021.1.2,Win32,30.00120005,,,,,,,,6,Slow,g,1,2.1365,6,2,26,1,1,,,,,
,1.31,,,,,,,,,f.PNG,f,6152555256f6a092ea9a4ff4,2021-10-19_20h16.39.173,forced_choiceRT,2021.1.2,Win32,30.00120005,,,,,,,,6,Fast,g,0,1.8972,6,3,27,0,1,,,,,
,0.83,,,,,,,,,j.PNG,j,6152555256f6a092ea9a4ff4,2021-10-19_20h16.39.173,forced_choiceRT,2021.1.2,Win32,30.00120005,,,,,,,,6,Ontime,j,1,1.9431,7,0,28,3,1,,,,,
,1.19,,,,,,,,,f.PNG,f,6152555256f6a092ea9a4ff4,2021-10-19_20h16.39.173,forced_choiceRT,2021.1.2,Win32,30.00120005,,,,,,,,6,Slow,f,1,2.1255,7,1,29,0,1,,,,,
,0.39,,,,,,,,,j.PNG,j,6152555256f6a092ea9a4ff4,2021-10-19_20h16.39.173,forced_choiceRT,2021.1.2,Win32,30.00120005,,,,,,,,6,Ontime,j,1,1.9195,7,2,30,3,1,,,,,
,0.52,,,,,,,,,j.PNG,j,6152555256f6a092ea9a4ff4,2021-10-19_20h16.39.173,forced_choiceRT,2021.1.2,Win32,30.00120005,,,,,,,,6,Ontime,j,1,1.9372,7,3,31,3,1,,,,,
,1.08,,,,,,,,,h.PNG,h,6152555256f6a092ea9a4ff4,2021-10-19_20h16.39.173,forced_choiceRT,2021.1.2,Win32,30.00120005,,,,,,,,6,Ontime,h,1,1.9895,8,0,32,2,1,,,,,
,0.68,,,,,,,,,g.PNG,g,6152555256f6a092ea9a4ff4,2021-10-19_20h16.39.173,forced_choiceRT,2021.1.2,Win32,30.00120005,,,,,,,,6,Ontime,g,1,2.0051,8,1,33,1,1,,,,,
,0.98,,,,,,,,,j.PNG,j,6152555256f6a092ea9a4ff4,2021-10-19_20h16.39.173,forced_choiceRT,2021.1.2,Win32,30.00120005,,,,,,,,6,Ontime,j,1,2.0357,8,2,34,3,1,,,,,
,1.49,,,,,,,,,h.PNG,h,6152555256f6a092ea9a4ff4,2021-10-19_20h16.39.173,forced_choiceRT,2021.1.2,Win32,30.00120005,,,,,,,,6,Ontime,h,1,2.0332,8,3,35,2,1,,,,,
,1.31,,,,,,,,,j.PNG,j,6152555256f6a092ea9a4ff4,2021-10-19_20h16.39.173,forced_choiceRT,2021.1.2,Win32,30.00120005,,,,,,,,6,Ontime,j,1,2.0538,9,0,36,3,1,,,,,
,0.47,,,,,,,,,j.PNG,j,6152555256f6a092ea9a4ff4,2021-10-19_20h16.39.173,forced_choiceRT,2021.1.2,Win32,30.00120005,,,,,,,,6,Ontime,j,1,2.0239,9,1,37,3,1,,,,,
,0.69,,,,,,,,,g.PNG,g,6152555256f6a092ea9a4ff4,2021-10-19_20h16.39.173,forced_choiceRT,2021.1.2,Win32,30.00120005,,,,,,,,6,Fast,g,1,1.8707,9,2,38,1,1,,,,,
,0.61,,,,,,,,,g.PNG,g,6152555256f6a092ea9a4ff4,2021-10-19_20h16.39.173,forced_choiceRT,2021.1.2,Win32,30.00120005,,,,,,,,6,Ontime,g,1,1.9757,9,3,39,1,1,,,,,
,,,,,,,,,,,,6152555256f6a092ea9a4ff4,2021-10-19_20h16.39.173,forced_choiceRT,2021.1.2,Win32,30.00120005,,,,,,,,,,,,,,,,,,5,0,5,0,1
,0.9,,,,,,,,,g.PNG,g,6152555256f6a092ea9a4ff4,2021-10-19_20h16.39.173,forced_choiceRT,2021.1.2,Win32,30.00120005,,,,,,,,7,Ontime,g,1,2.0128,0,0,0,1,1,,,,,
,0.14,,,,,,,,,g.PNG,g,6152555256f6a092ea9a4ff4,2021-10-19_20h16.39.173,forced_choiceRT,2021.1.2,Win32,30.00120005,,,,,,,,7,Fast,g,1,1.8464,0,1,1,1,1,,,,,
,0.37,,,,,,,,,h.PNG,h,6152555256f6a092ea9a4ff4,2021-10-19_20h16.39.173,forced_choiceRT,2021.1.2,Win32,30.00120005,,,,,,,,7,Ontime,h,1,2.0419,0,2,2,2,1,,,,,
,0.02,,,,,,,,,g.PNG,g,6152555256f6a092ea9a4ff4,2021-10-19_20h16.39.173,forced_choiceRT,2021.1.2,Win32,30.00120005,,,,,,,,7,Ontime,g,1,1.9895,0,3,3,1,1,,,,,
,1.46,,,,,,,,,f.PNG,f,6152555256f6a092ea9a4ff4,2021-10-19_20h16.39.173,forced_choiceRT,2021.1.2,Win32,30.00120005,,,,,,,,7,Slow,f,1,2.1481,1,0,4,0,1,,,,,
,0.23,,,,,,,,,g.PNG,g,6152555256f6a092ea9a4ff4,2021-10-19_20h16.39.173,forced_choiceRT,2021.1.2,Win32,30.00120005,,,,,,,,7,Ontime,f,0,2.0524,1,1,5,1,1,,,,,
,0.32,,,,,,,,,h.PNG,h,6152555256f6a092ea9a4ff4,2021-10-19_20h16.39.173,forced_choiceRT,2021.1.2,Win32,30.00120005,,,,,,,,7,Ontime,h,1,2.0439,1,2,6,2,1,,,,,
,0.84,,,,,,,,,f.PNG,f,6152555256f6a092ea9a4ff4,2021-10-19_20h16.39.173,forced_choiceRT,2021.1.2,Win32,30.00120005,,,,,,,,7,Slow,f,1,2.1268,1,3,7,0,1,,,,,
,1.14,,,,,,,,,f.PNG,f,6152555256f6a092ea9a4ff4,2021-10-19_20h16.39.173,forced_choiceRT,2021.1.2,Win32,30.00120005,,,,,,,,7,Ontime,f,1,1.9114,2,0,8,0,1,,,,,
,1.69,,,,,,,,,j.PNG,j,6152555256f6a092ea9a4ff4,2021-10-19_20h16.39.173,forced_choiceRT,2021.1.2,Win32,30.00120005,,,,,,,,7,Ontime,j,1,2.0856,2,1,9,3,1,,,,,
,1.73,,,,,,,,,j.PNG,j,6152555256f6a092ea9a4ff4,2021-10-19_20h16.39.173,forced_choiceRT,2021.1.2,Win32,30.00120005,,,,,,,,7,Slow,j,1,2.2311,2,2,10,3,1,,,,,
,0.19,,,,,,,,,h.PNG,h,6152555256f6a092ea9a4ff4,2021-10-19_20h16.39.173,forced_choiceRT,2021.1.2,Win32,30.00120005,,,,,,,,7,Ontime,h,1,2.0032,2,3,11,2,1,,,,,
,1.11,,,,,,,,,j.PNG,j,6152555256f6a092ea9a4ff4,2021-10-19_20h16.39.173,forced_choiceRT,2021.1.2,Win32,30.00120005,,,,,,,,7,Ontime,j,1,1.901,3,0,12,3,1,,,,,
,1.21,,,,,,,,,f.PNG,f,6152555256f6a092ea9a4ff4,2021-10-19_20h16.39.173,forced_choiceRT,2021.1.2,Win32,30.00120005,,,,,,,,7,Ontime,f,1,2.0102,3,1,13,0,1,,,,,
,0.66,,,,,,,,,g.PNG,g,6152555256f6a092ea9a4ff4,2021-10-19_20h16.39.173,forced_choiceRT,2021.1.2,Win32,30.00120005,,,,,,,,7,Ontime,g,1,2.0291,3,2,14,1,1,,,,,
,1.31,,,,,,,,,f.PNG,f,6152555256f6a092ea9a4ff4,2021-10-19_20h16.39.173,forced_choiceRT,2021.1.2,Win32,30.00120005,,,,,,,,7,Slow,g,0,2.2454,3,3,15,0,1,,,,,
,0.39,,,,,,,,,f.PNG,f,6152555256f6a092ea9a4ff4,2021-10-19_20h16.39.173,forced_choiceRT,2021.1.2,Win32,30.00120005,,,,,,,,7,Ontime,f,1,2.0165,4,0,16,0,1,,,,,
,0.2,,,,,,,,,j.PNG,j,6152555256f6a092ea9a4ff4,2021-10-19_20h16.39.173,forced_choiceRT,2021.1.2,Win32,30.00120005,,,,,,,,7,Ontime,j,1,1.9706,4,1,17,3,1,,,,,
,0.25,,,,,,,,,j.PNG,j,6152555256f6a092ea9a4ff4,2021-10-19_20h16.39.173,forced_choiceRT,2021.1.2,Win32,30.00120005,,,,,,,,7,Ontime,j,1,2.0221,4,2,18,3,1,,,,,
,0.42,,,,,,,,,g.PNG,g,6152555256f6a092ea9a4ff4,2021-10-19_20h16.39.173,forced_choiceRT,2021.1.2,Win32,30.00120005,,,,,,,,7,Ontime,g,1,2.0066,4,3,19,1,1,,,,,
,1.63,,,,,,,,,h.PNG,h,6152555256f6a092ea9a4ff4,2021-10-19_20h16.39.173,forced_choiceRT,2021.1.2,Win32,30.00120005,,,,,,,,7,Slow,f,0,2.1578,5,0,20,2,1,,,,,
,1.4,,,,,,,,,h.PNG,h,6152555256f6a092ea9a4ff4,2021-10-19_20h16.39.173,forced_choiceRT,2021.1.2,Win32,30.00120005,,,,,,,,7,Slow,h,1,2.1296,5,1,21,2,1,,,,,
,1.25,,,,,,,,,h.PNG,h,6152555256f6a092ea9a4ff4,2021-10-19_20h16.39.173,forced_choiceRT,2021.1.2,Win32,30.00120005,,,,,,,,7,Slow,h,1,2.1265,5,2,22,2,1,,,,,
,1.07,,,,,,,,,h.PNG,h,6152555256f6a092ea9a4ff4,2021-10-19_20h16.39.173,forced_choiceRT,2021.1.2,Win32,30.00120005,,,,,,,,7,Ontime,h,1,2.0478,5,3,23,2,1,,,,,
,1.11,,,,,,,,,h.PNG,h,6152555256f6a092ea9a4ff4,2021-10-19_20h16.39.173,forced_choiceRT,2021.1.2,Win32,30.00120005,,,,,,,,7,Ontime,h,1,1.9882,6,0,24,2,1,,,,,
,0.01,,,,,,,,,j.PNG,j,6152555256f6a092ea9a4ff4,2021-10-19_20h16.39.173,forced_choiceRT,2021.1.2,Win32,30.00120005,,,,,,,,7,Ontime,j,1,1.9071,6,1,25,3,1,,,,,
,0.47,,,,,,,,,j.PNG,j,6152555256f6a092ea9a4ff4,2021-10-19_20h16.39.173,forced_choiceRT,2021.1.2,Win32,30.00120005,,,,,,,,7,Ontime,j,1,1.9839,6,2,26,3,1,,,,,
,0.97,,,,,,,,,f.PNG,f,6152555256f6a092ea9a4ff4,2021-10-19_20h16.39.173,forced_choiceRT,2021.1.2,Win32,30.00120005,,,,,,,,7,Ontime,f,1,2.0844,6,3,27,0,1,,,,,
,1.57,,,,,,,,,f.PNG,f,6152555256f6a092ea9a4ff4,2021-10-19_20h16.39.173,forced_choiceRT,2021.1.2,Win32,30.00120005,,,,,,,,7,Slow,f,1,2.4154,7,0,28,0,1,,,,,
,1.4,,,,,,,,,j.PNG,j,6152555256f6a092ea9a4ff4,2021-10-19_20h16.39.173,forced_choiceRT,2021.1.2,Win32,30.00120005,,,,,,,,7,Ontime,j,1,1.9695,7,1,29,3,1,,,,,
,0.8,,,,,,,,,g.PNG,g,6152555256f6a092ea9a4ff4,2021-10-19_20h16.39.173,forced_choiceRT,2021.1.2,Win32,30.00120005,,,,,,,,7,Ontime,g,1,2.0842,7,2,30,1,1,,,,,
,0.74,,,,,,,,,j.PNG,j,6152555256f6a092ea9a4ff4,2021-10-19_20h16.39.173,forced_choiceRT,2021.1.2,Win32,30.00120005,,,,,,,,7,Ontime,j,1,2.0716,7,3,31,3,1,,,,,
,1.31,,,,,,,,,g.PNG,g,6152555256f6a092ea9a4ff4,2021-10-19_20h16.39.173,forced_choiceRT,2021.1.2,Win32,30.00120005,,,,,,,,7,Ontime,g,1,2.0614,8,0,32,1,1,,,,,
,0.51,,,,,,,,,h.PNG,h,6152555256f6a092ea9a4ff4,2021-10-19_20h16.39.173,forced_choiceRT,2021.1.2,Win32,30.00120005,,,,,,,,7,Ontime,h,1,1.9792,8,1,33,2,1,,,,,
,1.13,,,,,,,,,g.PNG,g,6152555256f6a092ea9a4ff4,2021-10-19_20h16.39.173,forced_choiceRT,2021.1.2,Win32,30.00120005,,,,,,,,7,Ontime,g,1,2.0475,8,2,34,1,1,,,,,
,1.67,,,,,,,,,g.PNG,g,6152555256f6a092ea9a4ff4,2021-10-19_20h16.39.173,forced_choiceRT,2021.1.2,Win32,30.00120005,,,,,,,,7,Slow,h,0,2.2115,8,3,35,1,1,,,,,
,0.44,,,,,,,,,f.PNG,f,6152555256f6a092ea9a4ff4,2021-10-19_20h16.39.173,forced_choiceRT,2021.1.2,Win32,30.00120005,,,,,,,,7,Ontime,f,1,2.041,9,0,36,0,1,,,,,
,0.93,,,,,,,,,f.PNG,f,6152555256f6a092ea9a4ff4,2021-10-19_20h16.39.173,forced_choiceRT,2021.1.2,Win32,30.00120005,,,,,,,,7,Slow,f,1,2.1106,9,1,37,0,1,,,,,
,0.67,,,,,,,,,j.PNG,j,6152555256f6a092ea9a4ff4,2021-10-19_20h16.39.173,forced_choiceRT,2021.1.2,Win32,30.00120005,,,,,,,,7,Ontime,j,1,1.9638,9,2,38,3,1,,,,,
,1.11,,,,,,,,,h.PNG,h,6152555256f6a092ea9a4ff4,2021-10-19_20h16.39.173,forced_choiceRT,2021.1.2,Win32,30.00120005,,,,,,,,7,Slow,h,1,2.1868,9,3,39,2,1,,,,,
,,,,,,,,,,,,6152555256f6a092ea9a4ff4,2021-10-19_20h16.39.173,forced_choiceRT,2021.1.2,Win32,30.00120005,,,,,,,,,,,,,,,,,,6,0,6,0,1
,1.2,,,,,,,,,j.PNG,j,6152555256f6a092ea9a4ff4,2021-10-19_20h16.39.173,forced_choiceRT,2021.1.2,Win32,30.00120005,,,,,,,,8,Ontime,j,1,1.937,0,0,0,3,1,,,,,
,1,,,,,,,,,g.PNG,g,6152555256f6a092ea9a4ff4,2021-10-19_20h16.39.173,forced_choiceRT,2021.1.2,Win32,30.00120005,,,,,,,,8,Fast,f,0,1.7398,0,1,1,1,1,,,,,
,1.55,,,,,,,,,g.PNG,g,6152555256f6a092ea9a4ff4,2021-10-19_20h16.39.173,forced_choiceRT,2021.1.2,Win32,30.00120005,,,,,,,,8,Ontime,g,1,2.0122,0,2,2,1,1,,,,,
,1.93,,,,,,,,,g.PNG,g,6152555256f6a092ea9a4ff4,2021-10-19_20h16.39.173,forced_choiceRT,2021.1.2,Win32,30.00120005,,,,,,,,8,Slow,j,0,2.3179,0,3,3,1,1,,,,,
,0.62,,,,,,,,,g.PNG,g,6152555256f6a092ea9a4ff4,2021-10-19_20h16.39.173,forced_choiceRT,2021.1.2,Win32,30.00120005,,,,,,,,8,Ontime,g,1,1.9263,1,0,4,1,1,,,,,
,1.75,,,,,,,,,g.PNG,g,6152555256f6a092ea9a4ff4,2021-10-19_20h16.39.173,forced_choiceRT,2021.1.2,Win32,30.00120005,,,,,,,,8,Ontime,g,1,2.0198,1,1,5,1,1,,,,,
,1.3,,,,,,,,,j.PNG,j,6152555256f6a092ea9a4ff4,2021-10-19_20h16.39.173,forced_choiceRT,2021.1.2,Win32,30.00120005,,,,,,,,8,Fast,j,1,1.8555,1,2,6,3,1,,,,,
,0.2,,,,,,,,,g.PNG,g,6152555256f6a092ea9a4ff4,2021-10-19_20h16.39.173,forced_choiceRT,2021.1.2,Win32,30.00120005,,,,,,,,8,Ontime,g,1,1.9289,1,3,7,1,1,,,,,
,1.02,,,,,,,,,j.PNG,j,6152555256f6a092ea9a4ff4,2021-10-19_20h16.39.173,forced_choiceRT,2021.1.2,Win32,30.00120005,,,,,,,,8,Fast,j,1,1.8732,2,0,8,3,1,,,,,
,0.66,,,,,,,,,h.PNG,h,6152555256f6a092ea9a4ff4,2021-10-19_20h16.39.173,forced_choiceRT,2021.1.2,Win32,30.00120005,,,,,,,,8,Ontime,h,1,2.0482,2,1,9,2,1,,,,,
,1.02,,,,,,,,,j.PNG,j,6152555256f6a092ea9a4ff4,2021-10-19_20h16.39.173,forced_choiceRT,2021.1.2,Win32,30.00120005,,,,,,,,8,Ontime,j,1,1.9067,2,2,10,3,1,,,,,
,0.88,,,,,,,,,h.PNG,h,6152555256f6a092ea9a4ff4,2021-10-19_20h16.39.173,forced_choiceRT,2021.1.2,Win32,30.00120005,,,,,,,,8,Ontime,h,1,1.9294,2,3,11,2,1,,,,,
,0.26,,,,,,,,,h.PNG,h,6152555256f6a092ea9a4ff4,2021-10-19_20h16.39.173,forced_choiceRT,2021.1.2,Win32,30.00120005,,,,,,,,8,Ontime,h,1,1.923,3,0,12,2,1,,,,,
,0.97,,,,,,,,,f.PNG,f,6152555256f6a092ea9a4ff4,2021-10-19_20h16.39.173,forced_choiceRT,2021.1.2,Win32,30.00120005,,,,,,,,8,Ontime,f,1,2.0254,3,1,13,0,1,,,,,
,1.01,,,,,,,,,h.PNG,h,6152555256f6a092ea9a4ff4,2021-10-19_20h16.39.173,forced_choiceRT,2021.1.2,Win32,30.00120005,,,,,,,,8,Ontime,h,1,1.9153,3,2,14,2,1,,,,,
,1.07,,,,,,,,,j.PNG,j,6152555256f6a092ea9a4ff4,2021-10-19_20h16.39.173,forced_choiceRT,2021.1.2,Win32,30.00120005,,,,,,,,8,Ontime,j,1,1.9953,3,3,15,3,1,,,,,
,0.49,,,,,,,,,h.PNG,h,6152555256f6a092ea9a4ff4,2021-10-19_20h16.39.173,forced_choiceRT,2021.1.2,Win32,30.00120005,,,,,,,,8,Ontime,h,1,1.9893,4,0,16,2,1,,,,,
,0.94,,,,,,,,,f.PNG,f,6152555256f6a092ea9a4ff4,2021-10-19_20h16.39.173,forced_choiceRT,2021.1.2,Win32,30.00120005,,,,,,,,8,Slow,f,1,2.1669,4,1,17,0,1,,,,,
,0.96,,,,,,,,,j.PNG,j,6152555256f6a092ea9a4ff4,2021-10-19_20h16.39.173,forced_choiceRT,2021.1.2,Win32,30.00120005,,,,,,,,8,Fast,j,1,1.7997,4,2,18,3,1,,,,,
,1.23,,,,,,,,,f.PNG,f,6152555256f6a092ea9a4ff4,2021-10-19_20h16.39.173,forced_choiceRT,2021.1.2,Win32,30.00120005,,,,,,,,8,Ontime,f,1,1.9931,4,3,19,0,1,,,,,
,0.78,,,,,,,,,j.PNG,j,6152555256f6a092ea9a4ff4,2021-10-19_20h16.39.173,forced_choiceRT,2021.1.2,Win32,30.00120005,,,,,,,,8,Ontime,j,1,1.9853,5,0,20,3,1,,,,,
,1.48,,,,,,,,,j.PNG,j,6152555256f6a092ea9a4ff4,2021-10-19_20h16.39.173,forced_choiceRT,2021.1.2,Win32,30.00120005,,,,,,,,8,Ontime,j,1,2.0497,5,1,21,3,1,,,,,
,1.33,,,,,,,,,j.PNG,j,6152555256f6a092ea9a4ff4,2021-10-19_20h16.39.173,forced_choiceRT,2021.1.2,Win32,30.00120005,,,,,,,,8,Ontime,j,1,2.0429,5,2,22,3,1,,,,,
,1.18,,,,,,,,,j.PNG,j,6152555256f6a092ea9a4ff4,2021-10-19_20h16.39.173,forced_choiceRT,2021.1.2,Win32,30.00120005,,,,,,,,8,Ontime,j,1,1.9322,5,3,23,3,1,,,,,
,0.86,,,,,,,,,f.PNG,f,6152555256f6a092ea9a4ff4,2021-10-19_20h16.39.173,forced_choiceRT,2021.1.2,Win32,30.00120005,,,,,,,,8,Ontime,f,1,1.9359,6,0,24,0,1,,,,,
,0.82,,,,,,,,,f.PNG,f,6152555256f6a092ea9a4ff4,2021-10-19_20h16.39.173,forced_choiceRT,2021.1.2,Win32,30.00120005,,,,,,,,8,Ontime,f,1,1.9862,6,1,25,0,1,,,,,
,1.55,,,,,,,,,h.PNG,h,6152555256f6a092ea9a4ff4,2021-10-19_20h16.39.173,forced_choiceRT,2021.1.2,Win32,30.00120005,,,,,,,,8,Slow,h,1,2.2482,6,2,26,2,1,,,,,
,0.32,,,,,,,,,h.PNG,h,6152555256f6a092ea9a4ff4,2021-10-19_20h16.39.173,forced_choiceRT,2021.1.2,Win32,30.00120005,,,,,,,,8,Fast,h,1,1.1791,6,3,27,2,1,,,,,
,0.85,,,,,,,,,g.PNG,g,6152555256f6a092ea9a4ff4,2021-10-19_20h16.39.173,forced_choiceRT,2021.1.2,Win32,30.00120005,,,,,,,,8,Fast,g,1,1.7173,7,0,28,1,1,,,,,
,1.36,,,,,,,,,f.PNG,f,6152555256f6a092ea9a4ff4,2021-10-19_20h16.39.173,forced_choiceRT,2021.1.2,Win32,30.00120005,,,,,,,,8,Ontime,f,1,2.0408,7,1,29,0,1,,,,,
,1.56,,,,,,,,,f.PNG,f,6152555256f6a092ea9a4ff4,2021-10-19_20h16.39.173,forced_choiceRT,2021.1.2,Win32,30.00120005,,,,,,,,8,Slow,f,1,2.1568,7,2,30,0,1,,,,,
,0.74,,,,,,,,,f.PNG,f,6152555256f6a092ea9a4ff4,2021-10-19_20h16.39.173,forced_choiceRT,2021.1.2,Win32,30.00120005,,,,,,,,8,Ontime,f,1,1.9968,7,3,31,0,1,,,,,
,1.62,,,,,,,,,h.PNG,h,6152555256f6a092ea9a4ff4,2021-10-19_20h16.39.173,forced_choiceRT,2021.1.2,Win32,30.00120005,,,,,,,,8,Slow,h,1,2.1929,8,0,32,2,1,,,,,
,1.73,,,,,,,,,h.PNG,h,6152555256f6a092ea9a4ff4,2021-10-19_20h16.39.173,forced_choiceRT,2021.1.2,Win32,30.00120005,,,,,,,,8,Slow,h,1,2.2897,8,1,33,2,1,,,,,
,1.35,,,,,,,,,g.PNG,g,6152555256f6a092ea9a4ff4,2021-10-19_20h16.39.173,forced_choiceRT,2021.1.2,Win32,30.00120005,,,,,,,,8,Ontime,g,1,2.067,8,2,34,1,1,,,,,
,0.24,,,,,,,,,g.PNG,g,6152555256f6a092ea9a4ff4,2021-10-19_20h16.39.173,forced_choiceRT,2021.1.2,Win32,30.00120005,,,,,,,,8,Fast,g,1,1.6756,8,3,35,1,1,,,,,
,0.6,,,,,,,,,f.PNG,f,6152555256f6a092ea9a4ff4,2021-10-19_20h16.39.173,forced_choiceRT,2021.1.2,Win32,30.00120005,,,,,,,,8,Ontime,f,1,1.9602,9,0,36,0,1,,,,,
,0.87,,,,,,,,,g.PNG,g,6152555256f6a092ea9a4ff4,2021-10-19_20h16.39.173,forced_choiceRT,2021.1.2,Win32,30.00120005,,,,,,,,8,Ontime,g,1,2.0281,9,1,37,1,1,,,,,
,1.05,,,,,,,,,h.PNG,h,6152555256f6a092ea9a4ff4,2021-10-19_20h16.39.173,forced_choiceRT,2021.1.2,Win32,30.00120005,,,,,,,,8,Fast,h,1,1.832,9,2,38,2,1,,,,,
,0.2,,,,,,,,,f.PNG,f,6152555256f6a092ea9a4ff4,2021-10-19_20h16.39.173,forced_choiceRT,2021.1.2,Win32,30.00120005,,,,,,,,8,Ontime,f,1,1.9273,9,3,39,0,1,,,,,
,,,,,,,,,,,,6152555256f6a092ea9a4ff4,2021-10-19_20h16.39.173,forced_choiceRT,2021.1.2,Win32,30.00120005,,,,,,,,,,,,,,,,,,7,0,7,0,1
,1.57,,,,,,,,,h.PNG,h,6152555256f6a092ea9a4ff4,2021-10-19_20h16.39.173,forced_choiceRT,2021.1.2,Win32,30.00120005,,,,,,,,9,Slow,h,1,2.1319,0,0,0,2,1,,,,,
,0.93,,,,,,,,,j.PNG,j,6152555256f6a092ea9a4ff4,2021-10-19_20h16.39.173,forced_choiceRT,2021.1.2,Win32,30.00120005,,,,,,,,9,Ontime,j,1,2.0113,0,1,1,3,1,,,,,
,0.95,,,,,,,,,g.PNG,g,6152555256f6a092ea9a4ff4,2021-10-19_20h16.39.173,forced_choiceRT,2021.1.2,Win32,30.00120005,,,,,,,,9,Ontime,g,1,1.9178,0,2,2,1,1,,,,,
,1.09,,,,,,,,,j.PNG,j,6152555256f6a092ea9a4ff4,2021-10-19_20h16.39.173,forced_choiceRT,2021.1.2,Win32,30.00120005,,,,,,,,9,Fast,j,1,1.8677,0,3,3,3,1,,,,,
,1.37,,,,,,,,,h.PNG,h,6152555256f6a092ea9a4ff4,2021-10-19_20h16.39.173,forced_choiceRT,2021.1.2,Win32,30.00120005,,,,,,,,9,Ontime,h,1,2.0426,1,0,4,2,1,,,,,
,1.56,,,,,,,,,j.PNG,j,6152555256f6a092ea9a4ff4,2021-10-19_20h16.39.173,forced_choiceRT,2021.1.2,Win32,30.00120005,,,,,,,,9,Slow,j,1,2.151,1,1,5,3,1,,,,,
,0.85,,,,,,,,,f.PNG,f,6152555256f6a092ea9a4ff4,2021-10-19_20h16.39.173,forced_choiceRT,2021.1.2,Win32,30.00120005,,,,,,,,9,Ontime,f,1,2.0158,1,2,6,0,1,,,,,
,0.36,,,,,,,,,f.PNG,f,6152555256f6a092ea9a4ff4,2021-10-19_20h16.39.173,forced_choiceRT,2021.1.2,Win32,30.00120005,,,,,,,,9,Ontime,f,1,1.9752,1,3,7,0,1,,,,,
,0.83,,,,,,,,,h.PNG,h,6152555256f6a092ea9a4ff4,2021-10-19_20h16.39.173,forced_choiceRT,2021.1.2,Win32,30.00120005,,,,,,,,9,Fast,h,1,1.881,2,0,8,2,1,,,,,
,1.46,,,,,,,,,j.PNG,j,6152555256f6a092ea9a4ff4,2021-10-19_20h16.39.173,forced_choiceRT,2021.1.2,Win32,30.00120005,,,,,,,,9,Ontime,j,1,2.0461,2,1,9,3,1,,,,,
,1.41,,,,,,,,,h.PNG,h,6152555256f6a092ea9a4ff4,2021-10-19_20h16.39.173,forced_choiceRT,2021.1.2,Win32,30.00120005,,,,,,,,9,Ontime,h,1,2.0891,2,2,10,2,1,,,,,
,0.89,,,,,,,,,f.PNG,f,6152555256f6a092ea9a4ff4,2021-10-19_20h16.39.173,forced_choiceRT,2021.1.2,Win32,30.00120005,,,,,,,,9,Ontime,f,1,1.9514,2,3,11,0,1,,,,,
,0.16,,,,,,,,,h.PNG,h,6152555256f6a092ea9a4ff4,2021-10-19_20h16.39.173,forced_choiceRT,2021.1.2,Win32,30.00120005,,,,,,,,9,Ontime,h,1,1.9389,3,0,12,2,1,,,,,
,1.14,,,,,,,,,j.PNG,j,6152555256f6a092ea9a4ff4,2021-10-19_20h16.39.173,forced_choiceRT,2021.1.2,Win32,30.00120005,,,,,,,,9,Ontime,j,1,1.9232,3,1,13,3,1,,,,,
,0.45,,,,,,,,,j.PNG,j,6152555256f6a092ea9a4ff4,2021-10-19_20h16.39.173,forced_choiceRT,2021.1.2,Win32,30.00120005,,,,,,,,9,Fast,j,1,1.8474,3,2,14,3,1,,,,,
,1.75,,,,,,,,,g.PNG,g,6152555256f6a092ea9a4ff4,2021-10-19_20h16.39.173,forced_choiceRT,2021.1.2,Win32,30.00120005,,,,,,,,9,Slow,g,1,2.2903,3,3,15,1,1,,,,,
,0.86,,,,,,,,,f.PNG,f,6152555256f6a092ea9a4ff4,2021-10-19_20h16.39.173,forced_choiceRT,2021.1.2,Win32,30.00120005,,,,,,,,9,Ontime,f,1,1.9778,4,0,16,0,1,,,,,
,1.63,,,,,,,,,h.PNG,h,6152555256f6a092ea9a4ff4,2021-10-19_20h16.39.173,forced_choiceRT,2021.1.2,Win32,30.00120005,,,,,,,,9,Slow,h,1,2.3362,4,1,17,2,1,,,,,
,1.18,,,,,,,,,g.PNG,g,6152555256f6a092ea9a4ff4,2021-10-19_20h16.39.173,forced_choiceRT,2021.1.2,Win32,30.00120005,,,,,,,,9,Ontime,g,1,1.9565,4,2,18,1,1,,,,,
,1.24,,,,,,,,,g.PNG,g,6152555256f6a092ea9a4ff4,2021-10-19_20h16.39.173,forced_choiceRT,2021.1.2,Win32,30.00120005,,,,,,,,9,Ontime,h,0,1.9922,4,3,19,1,1,,,,,
,0.23,,,,,,,,,j.PNG,j,6152555256f6a092ea9a4ff4,2021-10-19_20h16.39.173,forced_choiceRT,2021.1.2,Win32,30.00120005,,,,,,,,9,Ontime,j,1,1.97,5,0,20,3,1,,,,,
,1.19,,,,,,,,,g.PNG,g,6152555256f6a092ea9a4ff4,2021-10-19_20h16.39.173,forced_choiceRT,2021.1.2,Win32,30.00120005,,,,,,,,9,Ontime,g,1,1.9379,5,1,21,1,1,,,,,
,0.03,,,,,,,,,h.PNG,h,6152555256f6a092ea9a4ff4,2021-10-19_20h16.39.173,forced_choiceRT,2021.1.2,Win32,30.00120005,,,,,,,,9,Ontime,h,1,2.0506,5,2,22,2,1,,,,,
,1.31,,,,,,,,,g.PNG,g,6152555256f6a092ea9a4ff4,2021-10-19_20h16.39.173,forced_choiceRT,2021.1.2,Win32,30.00120005,,,,,,,,9,Slow,g,1,2.1496,5,3,23,1,1,,,,,
,1.74,,,,,,,,,f.PNG,f,6152555256f6a092ea9a4ff4,2021-10-19_20h16.39.173,forced_choiceRT,2021.1.2,Win32,30.00120005,,,,,,,,9,Slow,g,0,2.1821,6,0,24,0,1,,,,,
,1.88,,,,,,,,,f.PNG,f,6152555256f6a092ea9a4ff4,2021-10-19_20h16.39.173,forced_choiceRT,2021.1.2,Win32,30.00120005,,,,,,,,9,Slow,f,1,2.3585,6,1,25,0,1,,,,,
,0.25,,,,,,,,,g.PNG,g,6152555256f6a092ea9a4ff4,2021-10-19_20h16.39.173,forced_choiceRT,2021.1.2,Win32,30.00120005,,,,,,,,9,Fast,g,1,1.7194,6,2,26,1,1,,,,,
,1.05,,,,,,,,,f.PNG,f,6152555256f6a092ea9a4ff4,2021-10-19_20h16.39.173,forced_choiceRT,2021.1.2,Win32,30.00120005,,,,,,,,9,Ontime,f,1,1.9702,6,3,27,0,1,,,,,
,1.02,,,,,,,,,h.PNG,h,6152555256f6a092ea9a4ff4,2021-10-19_20h16.39.173,forced_choiceRT,2021.1.2,Win32,30.00120005,,,,,,,,9,Fast,g,0,1.5825,7,0,28,2,1,,,,,
,0.01,,,,,,,,,g.PNG,g,6152555256f6a092ea9a4ff4,2021-10-19_20h16.39.173,forced_choiceRT,2021.1.2,Win32,30.00120005,,,,,,,,9,Fast,g,1,1.8016,7,1,29,1,1,,,,,
,0.84,,,,,,,,,f.PNG,f,6152555256f6a092ea9a4ff4,2021-10-19_20h16.39.173,forced_choiceRT,2021.1.2,Win32,30.00120005,,,,,,,,9,Ontime,f,1,1.98,7,2,30,0,1,,,,,
,0.83,,,,,,,,,f.PNG,f,6152555256f6a092ea9a4ff4,2021-10-19_20h16.39.173,forced_choiceRT,2021.1.2,Win32,30.00120005,,,,,,,,9,Ontime,f,1,2.0443,7,3,31,0,1,,,,,
,0.37,,,,,,,,,g.PNG,g,6152555256f6a092ea9a4ff4,2021-10-19_20h16.39.173,forced_choiceRT,2021.1.2,Win32,30.00120005,,,,,,,,9,Ontime,g,1,1.9226,8,0,32,1,1,,,,,
,0.61,,,,,,,,,j.PNG,j,6152555256f6a092ea9a4ff4,2021-10-19_20h16.39.173,forced_choiceRT,2021.1.2,Win32,30.00120005,,,,,,,,9,Fast,j,1,1.8024,8,1,33,3,1,,,,,
,0.02,,,,,,,,,f.PNG,f,6152555256f6a092ea9a4ff4,2021-10-19_20h16.39.173,forced_choiceRT,2021.1.2,Win32,30.00120005,,,,,,,,9,Ontime,f,1,1.9227,8,2,34,0,1,,,,,
,1.22,,,,,,,,,h.PNG,h,6152555256f6a092ea9a4ff4,2021-10-19_20h16.39.173,forced_choiceRT,2021.1.2,Win32,30.00120005,,,,,,,,9,Ontime,h,1,2.0179,8,3,35,2,1,,,,,
,1.04,,,,,,,,,g.PNG,g,6152555256f6a092ea9a4ff4,2021-10-19_20h16.39.173,forced_choiceRT,2021.1.2,Win32,30.00120005,,,,,,,,9,Ontime,g,1,1.9039,9,0,36,1,1,,,,,
,0.3,,,,,,,,,j.PNG,j,6152555256f6a092ea9a4ff4,2021-10-19_20h16.39.173,forced_choiceRT,2021.1.2,Win32,30.00120005,,,,,,,,9,Ontime,j,1,1.946,9,1,37,3,1,,,,,
,0,,,,,,,,,h.PNG,h,6152555256f6a092ea9a4ff4,2021-10-19_20h16.39.173,forced_choiceRT,2021.1.2,Win32,30.00120005,,,,,,,,9,Slow,h,1,2.2796,9,2,38,2,1,,,,,
,1.12,,,,,,,,,j.PNG,j,6152555256f6a092ea9a4ff4,2021-10-19_20h16.39.173,forced_choiceRT,2021.1.2,Win32,30.00120005,,,,,,,,9,Ontime,j,1,2.0409,9,3,39,3,1,,,,,
,,,,,,,,,,,,6152555256f6a092ea9a4ff4,2021-10-19_20h16.39.173,forced_choiceRT,2021.1.2,Win32,30.00120005,,,,,,,,,,,,,,,,,,8,0,8,0,1
,0.72,,,,,,,,,g.PNG,g,6152555256f6a092ea9a4ff4,2021-10-19_20h16.39.173,forced_choiceRT,2021.1.2,Win32,30.00120005,,,,,,,,10,Ontime,g,1,1.9707,0,0,0,1,1,,,,,
,1.48,,,,,,,,,f.PNG,f,6152555256f6a092ea9a4ff4,2021-10-19_20h16.39.173,forced_choiceRT,2021.1.2,Win32,30.00120005,,,,,,,,10,Slow,f,1,2.1242,0,1,1,0,1,,,,,
,0.46,,,,,,,,,g.PNG,g,6152555256f6a092ea9a4ff4,2021-10-19_20h16.39.173,forced_choiceRT,2021.1.2,Win32,30.00120005,,,,,,,,10,Fast,g,1,1.8958,0,2,2,1,1,,,,,
,1.4,,,,,,,,,g.PNG,g,6152555256f6a092ea9a4ff4,2021-10-19_20h16.39.173,forced_choiceRT,2021.1.2,Win32,30.00120005,,,,,,,,10,Ontime,g,1,1.9436,0,3,3,1,1,,,,,
,0.93,,,,,,,,,j.PNG,j,6152555256f6a092ea9a4ff4,2021-10-19_20h16.39.173,forced_choiceRT,2021.1.2,Win32,30.00120005,,,,,,,,10,Ontime,j,1,2.0126,1,0,4,3,1,,,,,
,0.26,,,,,,,,,f.PNG,f,6152555256f6a092ea9a4ff4,2021-10-19_20h16.39.173,forced_choiceRT,2021.1.2,Win32,30.00120005,,,,,,,,10,Ontime,f,1,2.0046,1,1,5,0,1,,,,,
,1.59,,,,,,,,,j.PNG,j,6152555256f6a092ea9a4ff4,2021-10-19_20h16.39.173,forced_choiceRT,2021.1.2,Win32,30.00120005,,,,,,,,10,Slow,j,1,2.139,1,2,6,3,1,,,,,
,0.73,,,,,,,,,j.PNG,j,6152555256f6a092ea9a4ff4,2021-10-19_20h16.39.173,forced_choiceRT,2021.1.2,Win32,30.00120005,,,,,,,,10,Fast,j,1,1.8574,1,3,7,3,1,,,,,
,0.66,,,,,,,,,g.PNG,g,6152555256f6a092ea9a4ff4,2021-10-19_20h16.39.173,forced_choiceRT,2021.1.2,Win32,30.00120005,,,,,,,,10,Fast,g,1,1.8031,2,0,8,1,1,,,,,
,1.37,,,,,,,,,f.PNG,f,6152555256f6a092ea9a4ff4,2021-10-19_20h16.39.173,forced_choiceRT,2021.1.2,Win32,30.00120005,,,,,,,,10,Ontime,f,1,2.028,2,1,9,0,1,,,,,
,1.49,,,,,,,,,j.PNG,j,6152555256f6a092ea9a4ff4,2021-10-19_20h16.39.173,forced_choiceRT,2021.1.2,Win32,30.00120005,,,,,,,,10,Slow,j,1,2.1318,2,2,10,3,1,,,,,
,0.53,,,,,,,,,h.PNG,h,6152555256f6a092ea9a4ff4,2021-10-19_20h16.39.173,forced_choiceRT,2021.1.2,Win32,30.00120005,,,,,,,,10,Ontime,h,1,2.0253,2,3,11,2,1,,,,,
,0.18,,,,,,,,,j.PNG,j,6152555256f6a092ea9a4ff4,2021-10-19_20h16.39.173,forced_choiceRT,2021.1.2,Win32,30.00120005,,,,,,,,10,Ontime,j,1,1.9265,3,0,12,3,1,,,,,
,0.84,,,,,,,,,f.PNG,f,6152555256f6a092ea9a4ff4,2021-10-19_20h16.39.173,forced_choiceRT,2021.1.2,Win32,30.00120005,,,,,,,,10,Ontime,f,1,2.0323,3,1,13,0,1,,,,,
,1.31,,,,,,,,,j.PNG,j,6152555256f6a092ea9a4ff4,2021-10-19_20h16.39.173,forced_choiceRT,2021.1.2,Win32,30.00120005,,,,,,,,10,Slow,j,1,2.1271,3,2,14,3,1,,,,,
,1.6,,,,,,,,,f.PNG,f,6152555256f6a092ea9a4ff4,2021-10-19_20h16.39.173,forced_choiceRT,2021.1.2,Win32,30.00120005,,,,,,,,10,Slow,g,0,2.3741,3,3,15,0,1,,,,,
,1.45,,,,,,,,,f.PNG,f,6152555256f6a092ea9a4ff4,2021-10-19_20h16.39.173,forced_choiceRT,2021.1.2,Win32,30.00120005,,,,,,,,10,Fast,h,0,0.4935,4,0,16,0,1,,,,,
,1.17,,,,,,,,,g.PNG,g,6152555256f6a092ea9a4ff4,2021-10-19_20h16.39.173,forced_choiceRT,2021.1.2,Win32,30.00120005,,,,,,,,10,Fast,g,1,1.8576,4,1,17,1,1,,,,,
,0.19,,,,,,,,,f.PNG,f,6152555256f6a092ea9a4ff4,2021-10-19_20h16.39.173,forced_choiceRT,2021.1.2,Win32,30.00120005,,,,,,,,10,Ontime,f,1,1.9761,4,2,18,0,1,,,,,
,0.09,,,,,,,,,g.PNG,g,6152555256f6a092ea9a4ff4,2021-10-19_20h16.39.173,forced_choiceRT,2021.1.2,Win32,30.00120005,,,,,,,,10,Slow,g,1,2.1277,4,3,19,1,1,,,,,
,0.03,,,,,,,,,j.PNG,j,6152555256f6a092ea9a4ff4,2021-10-19_20h16.39.173,forced_choiceRT,2021.1.2,Win32,30.00120005,,,,,,,,10,Ontime,j,1,1.9917,5,0,20,3,1,,,,,
,1.88,,,,,,,,,g.PNG,g,6152555256f6a092ea9a4ff4,2021-10-19_20h16.39.173,forced_choiceRT,2021.1.2,Win32,30.00120005,,,,,,,,10,Slow,g,1,2.3434,5,1,21,1,1,,,,,
,0.82,,,,,,,,,g.PNG,g,6152555256f6a092ea9a4ff4,2021-10-19_20h16.39.173,forced_choiceRT,2021.1.2,Win32,30.00120005,,,,,,,,10,Ontime,g,1,2.0315,5,2,22,1,1,,,,,
,0.89,,,,,,,,,h.PNG,h,6152555256f6a092ea9a4ff4,2021-10-19_20h16.39.173,forced_choiceRT,2021.1.2,Win32,30.00120005,,,,,,,,10,Ontime,h,1,1.9391,5,3,23,2,1,,,,,
,0.08,,,,,,,,,h.PNG,h,6152555256f6a092ea9a4ff4,2021-10-19_20h16.39.173,forced_choiceRT,2021.1.2,Win32,30.00120005,,,,,,,,10,Slow,h,1,2.221,6,0,24,2,1,,,,,
,1.62,,,,,,,,,g.PNG,g,6152555256f6a092ea9a4ff4,2021-10-19_20h16.39.173,forced_choiceRT,2021.1.2,Win32,30.00120005,,,,,,,,10,Ontime,g,1,2.0681,6,1,25,1,1,,,,,
,0.47,,,,,,,,,h.PNG,h,6152555256f6a092ea9a4ff4,2021-10-19_20h16.39.173,forced_choiceRT,2021.1.2,Win32,30.00120005,,,,,,,,10,Ontime,h,1,1.9473,6,2,26,2,1,,,,,
,0.3,,,,,,,,,h.PNG,h,6152555256f6a092ea9a4ff4,2021-10-19_20h16.39.173,forced_choiceRT,2021.1.2,Win32,30.00120005,,,,,,,,10,Ontime,h,1,1.9421,6,3,27,2,1,,,,,
,1.75,,,,,,,,,h.PNG,h,6152555256f6a092ea9a4ff4,2021-10-19_20h16.39.173,forced_choiceRT,2021.1.2,Win32,30.00120005,,,,,,,,10,Slow,g,0,2.1896,7,0,28,2,1,,,,,
,0.27,,,,,,,,,h.PNG,h,6152555256f6a092ea9a4ff4,2021-10-19_20h16.39.173,forced_choiceRT,2021.1.2,Win32,30.00120005,,,,,,,,10,Fast,h,1,1.8863,7,1,29,2,1,,,,,
,0.61,,,,,,,,,f.PNG,f,6152555256f6a092ea9a4ff4,2021-10-19_20h16.39.173,forced_choiceRT,2021.1.2,Win32,30.00120005,,,,,,,,10,Ontime,f,1,1.9564,7,2,30,0,1,,,,,
,1.34,,,,,,,,,f.PNG,f,6152555256f6a092ea9a4ff4,2021-10-19_20h16.39.173,forced_choiceRT,2021.1.2,Win32,30.00120005,,,,,,,,10,Slow,f,1,2.1195,7,3,31,0,1,,,,,
,0.03,,,,,,,,,j.PNG,j,6152555256f6a092ea9a4ff4,2021-10-19_20h16.39.173,forced_choiceRT,2021.1.2,Win32,30.00120005,,,,,,,,10,Ontime,j,1,2.0111,8,0,32,3,1,,,,,
,0.46,,,,,,,,,h.PNG,h,6152555256f6a092ea9a4ff4,2021-10-19_20h16.39.173,forced_choiceRT,2021.1.2,Win32,30.00120005,,,,,,,,10,Ontime,h,1,2.012,8,1,33,2,1,,,,,
,0.73,,,,,,,,,f.PNG,f,6152555256f6a092ea9a4ff4,2021-10-19_20h16.39.173,forced_choiceRT,2021.1.2,Win32,30.00120005,,,,,,,,10,Ontime,f,1,2.0499,8,2,34,0,1,,,,,
,1.17,,,,,,,,,h.PNG,h,6152555256f6a092ea9a4ff4,2021-10-19_20h16.39.173,forced_choiceRT,2021.1.2,Win32,30.00120005,,,,,,,,10,Ontime,g,0,2.0098,8,3,35,2,1,,,,,
,1.21,,,,,,,,,h.PNG,h,6152555256f6a092ea9a4ff4,2021-10-19_20h16.39.173,forced_choiceRT,2021.1.2,Win32,30.00120005,,,,,,,,10,Ontime,h,1,2.0309,9,0,36,2,1,,,,,
,1.85,,,,,,,,,g.PNG,g,6152555256f6a092ea9a4ff4,2021-10-19_20h16.39.173,forced_choiceRT,2021.1.2,Win32,30.00120005,,,,,,,,10,Slow,f,0,2.3781,9,1,37,1,1,,,,,
,0.22,,,,,,,,,j.PNG,j,6152555256f6a092ea9a4ff4,2021-10-19_20h16.39.173,forced_choiceRT,2021.1.2,Win32,30.00120005,,,,,,,,10,Ontime,j,1,2.0686,9,2,38,3,1,,,,,
,1.97,,,,,,,,,j.PNG,j,6152555256f6a092ea9a4ff4,2021-10-19_20h16.39.173,forced_choiceRT,2021.1.2,Win32,30.00120005,,,,,,,,10,Slow,j,1,2.1096,9,3,39,3,1,,,,,
,,,,,,,,,,,,6152555256f6a092ea9a4ff4,2021-10-19_20h16.39.173,forced_choiceRT,2021.1.2,Win32,30.00120005,,,,,,,,,,,,,,,,,,9,0,9,0,1
