IP_Addresss,target_onset,trial_resp_sp.keys,trial_resp_sp.corr,trial_resp_sp.rt,trials_train_loop.thisRepN,trials_train_loop.thisTrialN,trials_train_loop.thisN,trials_train_loop.thisIndex,trials_train_loop.ran,pic,correct_key,participant,date,expName,psychopyVersion,OS,frameRate,trial_resp_timing.keys,trial_resp_timing.rt,trials_train_timing.thisRepN,trials_train_timing.thisTrialN,trials_train_timing.thisN,trials_train_timing.thisIndex,trials_train_timing.ran,block_id,ontime,forcedRT_resp.keys,forcedRT_resp.corr,forcedRT_resp.rt,trials.thisRepN,trials.thisTrialN,trials.thisN,trials.thisIndex,trials.ran,blocks.thisRepN,blocks.thisTrialN,blocks.thisN,blocks.thisIndex,blocks.ran
73.98.62.56,0,f,1,1.455,0,0,0,0,1,f.PNG,f,61589a4cf5deaf0be63bf31e,2021-10-19_19h14.52.691,forced_choiceRT,2021.1.2,MacIntel,59.99160118,,,,,,,,,,,,,,,,,,,,,,
,0,g,1,1.5692,0,1,1,1,1,g.PNG,g,61589a4cf5deaf0be63bf31e,2021-10-19_19h14.52.691,forced_choiceRT,2021.1.2,MacIntel,59.99160118,,,,,,,,,,,,,,,,,,,,,,
,0,f,1,1.5862,0,2,2,0,1,f.PNG,f,61589a4cf5deaf0be63bf31e,2021-10-19_19h14.52.691,forced_choiceRT,2021.1.2,MacIntel,59.99160118,,,,,,,,,,,,,,,,,,,,,,
,0,h,1,1.2475,0,3,3,2,1,h.PNG,h,61589a4cf5deaf0be63bf31e,2021-10-19_19h14.52.691,forced_choiceRT,2021.1.2,MacIntel,59.99160118,,,,,,,,,,,,,,,,,,,,,,
,0,g,1,2.7185,1,0,4,1,1,g.PNG,g,61589a4cf5deaf0be63bf31e,2021-10-19_19h14.52.691,forced_choiceRT,2021.1.2,MacIntel,59.99160118,,,,,,,,,,,,,,,,,,,,,,
,0,h,1,2.3689,1,1,5,2,1,h.PNG,h,61589a4cf5deaf0be63bf31e,2021-10-19_19h14.52.691,forced_choiceRT,2021.1.2,MacIntel,59.99160118,,,,,,,,,,,,,,,,,,,,,,
,0,j,1,1.5527,1,2,6,3,1,j.PNG,j,61589a4cf5deaf0be63bf31e,2021-10-19_19h14.52.691,forced_choiceRT,2021.1.2,MacIntel,59.99160118,,,,,,,,,,,,,,,,,,,,,,
,0,g,1,1.433,1,3,7,1,1,g.PNG,g,61589a4cf5deaf0be63bf31e,2021-10-19_19h14.52.691,forced_choiceRT,2021.1.2,MacIntel,59.99160118,,,,,,,,,,,,,,,,,,,,,,
,0,g,1,1.1366,2,0,8,1,1,g.PNG,g,61589a4cf5deaf0be63bf31e,2021-10-19_19h14.52.691,forced_choiceRT,2021.1.2,MacIntel,59.99160118,,,,,,,,,,,,,,,,,,,,,,
,0,f,1,0.7939,2,1,9,0,1,f.PNG,f,61589a4cf5deaf0be63bf31e,2021-10-19_19h14.52.691,forced_choiceRT,2021.1.2,MacIntel,59.99160118,,,,,,,,,,,,,,,,,,,,,,
,0,j,1,2.3844,2,2,10,3,1,j.PNG,j,61589a4cf5deaf0be63bf31e,2021-10-19_19h14.52.691,forced_choiceRT,2021.1.2,MacIntel,59.99160118,,,,,,,,,,,,,,,,,,,,,,
,0,h,1,1.065,2,3,11,2,1,h.PNG,h,61589a4cf5deaf0be63bf31e,2021-10-19_19h14.52.691,forced_choiceRT,2021.1.2,MacIntel,59.99160118,,,,,,,,,,,,,,,,,,,,,,
,0,g,1,0.9837,3,0,12,1,1,g.PNG,g,61589a4cf5deaf0be63bf31e,2021-10-19_19h14.52.691,forced_choiceRT,2021.1.2,MacIntel,59.99160118,,,,,,,,,,,,,,,,,,,,,,
,0,j,1,1.2062,3,1,13,3,1,j.PNG,j,61589a4cf5deaf0be63bf31e,2021-10-19_19h14.52.691,forced_choiceRT,2021.1.2,MacIntel,59.99160118,,,,,,,,,,,,,,,,,,,,,,
,0,j,1,1.0034,3,2,14,3,1,j.PNG,j,61589a4cf5deaf0be63bf31e,2021-10-19_19h14.52.691,forced_choiceRT,2021.1.2,MacIntel,59.99160118,,,,,,,,,,,,,,,,,,,,,,
,0,h,1,0.9774,3,3,15,2,1,h.PNG,h,61589a4cf5deaf0be63bf31e,2021-10-19_19h14.52.691,forced_choiceRT,2021.1.2,MacIntel,59.99160118,,,,,,,,,,,,,,,,,,,,,,
,0,h,1,1.5652,4,0,16,2,1,h.PNG,h,61589a4cf5deaf0be63bf31e,2021-10-19_19h14.52.691,forced_choiceRT,2021.1.2,MacIntel,59.99160118,,,,,,,,,,,,,,,,,,,,,,
,0,h,1,1.7948,4,1,17,2,1,h.PNG,h,61589a4cf5deaf0be63bf31e,2021-10-19_19h14.52.691,forced_choiceRT,2021.1.2,MacIntel,59.99160118,,,,,,,,,,,,,,,,,,,,,,
,0,g,1,1.2272,4,2,18,1,1,g.PNG,g,61589a4cf5deaf0be63bf31e,2021-10-19_19h14.52.691,forced_choiceRT,2021.1.2,MacIntel,59.99160118,,,,,,,,,,,,,,,,,,,,,,
,0,g,1,1.151,4,3,19,1,1,g.PNG,g,61589a4cf5deaf0be63bf31e,2021-10-19_19h14.52.691,forced_choiceRT,2021.1.2,MacIntel,59.99160118,,,,,,,,,,,,,,,,,,,,,,
,0,h,1,1.148,5,0,20,2,1,h.PNG,h,61589a4cf5deaf0be63bf31e,2021-10-19_19h14.52.691,forced_choiceRT,2021.1.2,MacIntel,59.99160118,,,,,,,,,,,,,,,,,,,,,,
,0,f,1,1.0009,5,1,21,0,1,f.PNG,f,61589a4cf5deaf0be63bf31e,2021-10-19_19h14.52.691,forced_choiceRT,2021.1.2,MacIntel,59.99160118,,,,,,,,,,,,,,,,,,,,,,
,0,h,1,0.9628,5,2,22,2,1,h.PNG,h,61589a4cf5deaf0be63bf31e,2021-10-19_19h14.52.691,forced_choiceRT,2021.1.2,MacIntel,59.99160118,,,,,,,,,,,,,,,,,,,,,,
,0,h,1,0.7112,5,3,23,2,1,h.PNG,h,61589a4cf5deaf0be63bf31e,2021-10-19_19h14.52.691,forced_choiceRT,2021.1.2,MacIntel,59.99160118,,,,,,,,,,,,,,,,,,,,,,
,0,h,1,0.5873,6,0,24,2,1,h.PNG,h,61589a4cf5deaf0be63bf31e,2021-10-19_19h14.52.691,forced_choiceRT,2021.1.2,MacIntel,59.99160118,,,,,,,,,,,,,,,,,,,,,,
,0,f,1,0.6015,6,1,25,0,1,f.PNG,f,61589a4cf5deaf0be63bf31e,2021-10-19_19h14.52.691,forced_choiceRT,2021.1.2,MacIntel,59.99160118,,,,,,,,,,,,,,,,,,,,,,
,0,f,1,0.6,6,2,26,0,1,f.PNG,f,61589a4cf5deaf0be63bf31e,2021-10-19_19h14.52.691,forced_choiceRT,2021.1.2,MacIntel,59.99160118,,,,,,,,,,,,,,,,,,,,,,
,0,j,1,1.1294,6,3,27,3,1,j.PNG,j,61589a4cf5deaf0be63bf31e,2021-10-19_19h14.52.691,forced_choiceRT,2021.1.2,MacIntel,59.99160118,,,,,,,,,,,,,,,,,,,,,,
,0,f,1,0.8211,7,0,28,0,1,f.PNG,f,61589a4cf5deaf0be63bf31e,2021-10-19_19h14.52.691,forced_choiceRT,2021.1.2,MacIntel,59.99160118,,,,,,,,,,,,,,,,,,,,,,
,0,j,1,0.9678,7,1,29,3,1,j.PNG,j,61589a4cf5deaf0be63bf31e,2021-10-19_19h14.52.691,forced_choiceRT,2021.1.2,MacIntel,59.99160118,,,,,,,,,,,,,,,,,,,,,,
,0,f,1,0.7149,7,2,30,0,1,f.PNG,f,61589a4cf5deaf0be63bf31e,2021-10-19_19h14.52.691,forced_choiceRT,2021.1.2,MacIntel,59.99160118,,,,,,,,,,,,,,,,,,,,,,
,0,g,1,0.8993,7,3,31,1,1,g.PNG,g,61589a4cf5deaf0be63bf31e,2021-10-19_19h14.52.691,forced_choiceRT,2021.1.2,MacIntel,59.99160118,,,,,,,,,,,,,,,,,,,,,,
,0,j,1,1.2278,8,0,32,3,1,j.PNG,j,61589a4cf5deaf0be63bf31e,2021-10-19_19h14.52.691,forced_choiceRT,2021.1.2,MacIntel,59.99160118,,,,,,,,,,,,,,,,,,,,,,
,0,j,1,0.7122,8,1,33,3,1,j.PNG,j,61589a4cf5deaf0be63bf31e,2021-10-19_19h14.52.691,forced_choiceRT,2021.1.2,MacIntel,59.99160118,,,,,,,,,,,,,,,,,,,,,,
,0,g,1,0.9841,8,2,34,1,1,g.PNG,g,61589a4cf5deaf0be63bf31e,2021-10-19_19h14.52.691,forced_choiceRT,2021.1.2,MacIntel,59.99160118,,,,,,,,,,,,,,,,,,,,,,
,0,j,1,0.9937,8,3,35,3,1,j.PNG,j,61589a4cf5deaf0be63bf31e,2021-10-19_19h14.52.691,forced_choiceRT,2021.1.2,MacIntel,59.99160118,,,,,,,,,,,,,,,,,,,,,,
,0,f,1,0.9601,9,0,36,0,1,f.PNG,f,61589a4cf5deaf0be63bf31e,2021-10-19_19h14.52.691,forced_choiceRT,2021.1.2,MacIntel,59.99160118,,,,,,,,,,,,,,,,,,,,,,
,0,f,1,1.1342,9,1,37,0,1,f.PNG,f,61589a4cf5deaf0be63bf31e,2021-10-19_19h14.52.691,forced_choiceRT,2021.1.2,MacIntel,59.99160118,,,,,,,,,,,,,,,,,,,,,,
,0,j,1,0.934,9,2,38,3,1,j.PNG,j,61589a4cf5deaf0be63bf31e,2021-10-19_19h14.52.691,forced_choiceRT,2021.1.2,MacIntel,59.99160118,,,,,,,,,,,,,,,,,,,,,,
,0,j,1,0.847,9,3,39,3,1,j.PNG,j,61589a4cf5deaf0be63bf31e,2021-10-19_19h14.52.691,forced_choiceRT,2021.1.2,MacIntel,59.99160118,,,,,,,,,,,,,,,,,,,,,,
,0,j,1,0.7376,10,0,40,3,1,j.PNG,j,61589a4cf5deaf0be63bf31e,2021-10-19_19h14.52.691,forced_choiceRT,2021.1.2,MacIntel,59.99160118,,,,,,,,,,,,,,,,,,,,,,
,0,f,1,0.828,10,1,41,0,1,f.PNG,f,61589a4cf5deaf0be63bf31e,2021-10-19_19h14.52.691,forced_choiceRT,2021.1.2,MacIntel,59.99160118,,,,,,,,,,,,,,,,,,,,,,
,0,g,1,1.0836,10,2,42,1,1,g.PNG,g,61589a4cf5deaf0be63bf31e,2021-10-19_19h14.52.691,forced_choiceRT,2021.1.2,MacIntel,59.99160118,,,,,,,,,,,,,,,,,,,,,,
,0,f,1,0.6609,10,3,43,0,1,f.PNG,f,61589a4cf5deaf0be63bf31e,2021-10-19_19h14.52.691,forced_choiceRT,2021.1.2,MacIntel,59.99160118,,,,,,,,,,,,,,,,,,,,,,
,0,j,1,0.881,11,0,44,3,1,j.PNG,j,61589a4cf5deaf0be63bf31e,2021-10-19_19h14.52.691,forced_choiceRT,2021.1.2,MacIntel,59.99160118,,,,,,,,,,,,,,,,,,,,,,
,0,j,1,0.7765,11,1,45,3,1,j.PNG,j,61589a4cf5deaf0be63bf31e,2021-10-19_19h14.52.691,forced_choiceRT,2021.1.2,MacIntel,59.99160118,,,,,,,,,,,,,,,,,,,,,,
,0,g,1,1.1605,11,2,46,1,1,g.PNG,g,61589a4cf5deaf0be63bf31e,2021-10-19_19h14.52.691,forced_choiceRT,2021.1.2,MacIntel,59.99160118,,,,,,,,,,,,,,,,,,,,,,
,0,g,1,1.3782,11,3,47,1,1,g.PNG,g,61589a4cf5deaf0be63bf31e,2021-10-19_19h14.52.691,forced_choiceRT,2021.1.2,MacIntel,59.99160118,,,,,,,,,,,,,,,,,,,,,,
,0,j,0,0.7171,12,0,48,2,1,h.PNG,h,61589a4cf5deaf0be63bf31e,2021-10-19_19h14.52.691,forced_choiceRT,2021.1.2,MacIntel,59.99160118,,,,,,,,,,,,,,,,,,,,,,
,0,f,1,0.8464,12,1,49,0,1,f.PNG,f,61589a4cf5deaf0be63bf31e,2021-10-19_19h14.52.691,forced_choiceRT,2021.1.2,MacIntel,59.99160118,,,,,,,,,,,,,,,,,,,,,,
,0,h,1,1.7112,12,2,50,2,1,h.PNG,h,61589a4cf5deaf0be63bf31e,2021-10-19_19h14.52.691,forced_choiceRT,2021.1.2,MacIntel,59.99160118,,,,,,,,,,,,,,,,,,,,,,
,0,f,1,0.7356,12,3,51,0,1,f.PNG,f,61589a4cf5deaf0be63bf31e,2021-10-19_19h14.52.691,forced_choiceRT,2021.1.2,MacIntel,59.99160118,,,,,,,,,,,,,,,,,,,,,,
,0,g,1,0.8954,13,0,52,1,1,g.PNG,g,61589a4cf5deaf0be63bf31e,2021-10-19_19h14.52.691,forced_choiceRT,2021.1.2,MacIntel,59.99160118,,,,,,,,,,,,,,,,,,,,,,
,0,h,1,1.1708,13,1,53,2,1,h.PNG,h,61589a4cf5deaf0be63bf31e,2021-10-19_19h14.52.691,forced_choiceRT,2021.1.2,MacIntel,59.99160118,,,,,,,,,,,,,,,,,,,,,,
,0,g,1,1.0503,13,2,54,1,1,g.PNG,g,61589a4cf5deaf0be63bf31e,2021-10-19_19h14.52.691,forced_choiceRT,2021.1.2,MacIntel,59.99160118,,,,,,,,,,,,,,,,,,,,,,
,0,j,1,0.9017,13,3,55,3,1,j.PNG,j,61589a4cf5deaf0be63bf31e,2021-10-19_19h14.52.691,forced_choiceRT,2021.1.2,MacIntel,59.99160118,,,,,,,,,,,,,,,,,,,,,,
,0,h,1,0.846,14,0,56,2,1,h.PNG,h,61589a4cf5deaf0be63bf31e,2021-10-19_19h14.52.691,forced_choiceRT,2021.1.2,MacIntel,59.99160118,,,,,,,,,,,,,,,,,,,,,,
,0,f,1,0.748,14,1,57,0,1,f.PNG,f,61589a4cf5deaf0be63bf31e,2021-10-19_19h14.52.691,forced_choiceRT,2021.1.2,MacIntel,59.99160118,,,,,,,,,,,,,,,,,,,,,,
,0,h,1,0.9626,14,2,58,2,1,h.PNG,h,61589a4cf5deaf0be63bf31e,2021-10-19_19h14.52.691,forced_choiceRT,2021.1.2,MacIntel,59.99160118,,,,,,,,,,,,,,,,,,,,,,
,0,g,1,1.1026,14,3,59,1,1,g.PNG,g,61589a4cf5deaf0be63bf31e,2021-10-19_19h14.52.691,forced_choiceRT,2021.1.2,MacIntel,59.99160118,,,,,,,,,,,,,,,,,,,,,,
,,,,,,,,,,,,61589a4cf5deaf0be63bf31e,2021-10-19_19h14.52.691,forced_choiceRT,2021.1.2,MacIntel,59.99160118,f,6.4065,0,0,0,0,1,,,,,,,,,,,,,,,
,,,,,,,,,,,,61589a4cf5deaf0be63bf31e,2021-10-19_19h14.52.691,forced_choiceRT,2021.1.2,MacIntel,59.99160118,g,2.3479,1,0,1,0,1,,,,,,,,,,,,,,,
,,,,,,,,,,,,61589a4cf5deaf0be63bf31e,2021-10-19_19h14.52.691,forced_choiceRT,2021.1.2,MacIntel,59.99160118,j,2.349,2,0,2,0,1,,,,,,,,,,,,,,,
,,,,,,,,,,,,61589a4cf5deaf0be63bf31e,2021-10-19_19h14.52.691,forced_choiceRT,2021.1.2,MacIntel,59.99160118,j,1.0691,3,0,3,0,1,,,,,,,,,,,,,,,
,,,,,,,,,,,,61589a4cf5deaf0be63bf31e,2021-10-19_19h14.52.691,forced_choiceRT,2021.1.2,MacIntel,59.99160118,h,0.2954,4,0,4,0,1,,,,,,,,,,,,,,,
,,,,,,,,,,,,61589a4cf5deaf0be63bf31e,2021-10-19_19h14.52.691,forced_choiceRT,2021.1.2,MacIntel,59.99160118,h,1.9814,5,0,5,0,1,,,,,,,,,,,,,,,
,,,,,,,,,,,,61589a4cf5deaf0be63bf31e,2021-10-19_19h14.52.691,forced_choiceRT,2021.1.2,MacIntel,59.99160118,f,1.7644,6,0,6,0,1,,,,,,,,,,,,,,,
,,,,,,,,,,,,61589a4cf5deaf0be63bf31e,2021-10-19_19h14.52.691,forced_choiceRT,2021.1.2,MacIntel,59.99160118,g,1.9654,7,0,7,0,1,,,,,,,,,,,,,,,
,,,,,,,,,,,,61589a4cf5deaf0be63bf31e,2021-10-19_19h14.52.691,forced_choiceRT,2021.1.2,MacIntel,59.99160118,h,1.8702,8,0,8,0,1,,,,,,,,,,,,,,,
,,,,,,,,,,,,61589a4cf5deaf0be63bf31e,2021-10-19_19h14.52.691,forced_choiceRT,2021.1.2,MacIntel,59.99160118,j,2.0289,9,0,9,0,1,,,,,,,,,,,,,,,
,,,,,,,,,,,,61589a4cf5deaf0be63bf31e,2021-10-19_19h14.52.691,forced_choiceRT,2021.1.2,MacIntel,59.99160118,f,2.0539,10,0,10,0,1,,,,,,,,,,,,,,,
,,,,,,,,,,,,61589a4cf5deaf0be63bf31e,2021-10-19_19h14.52.691,forced_choiceRT,2021.1.2,MacIntel,59.99160118,g,2.0023,11,0,11,0,1,,,,,,,,,,,,,,,
,,,,,,,,,,,,61589a4cf5deaf0be63bf31e,2021-10-19_19h14.52.691,forced_choiceRT,2021.1.2,MacIntel,59.99160118,h,2.1378,12,0,12,0,1,,,,,,,,,,,,,,,
,,,,,,,,,,,,61589a4cf5deaf0be63bf31e,2021-10-19_19h14.52.691,forced_choiceRT,2021.1.2,MacIntel,59.99160118,j,2.036,13,0,13,0,1,,,,,,,,,,,,,,,
,,,,,,,,,,,,61589a4cf5deaf0be63bf31e,2021-10-19_19h14.52.691,forced_choiceRT,2021.1.2,MacIntel,59.99160118,f,2.0657,14,0,14,0,1,,,,,,,,,,,,,,,
,,,,,,,,,,,,61589a4cf5deaf0be63bf31e,2021-10-19_19h14.52.691,forced_choiceRT,2021.1.2,MacIntel,59.99160118,g,1.9771,15,0,15,0,1,,,,,,,,,,,,,,,
,,,,,,,,,,,,61589a4cf5deaf0be63bf31e,2021-10-19_19h14.52.691,forced_choiceRT,2021.1.2,MacIntel,59.99160118,h,2.036,16,0,16,0,1,,,,,,,,,,,,,,,
,,,,,,,,,,,,61589a4cf5deaf0be63bf31e,2021-10-19_19h14.52.691,forced_choiceRT,2021.1.2,MacIntel,59.99160118,j,2.0811,17,0,17,0,1,,,,,,,,,,,,,,,
,,,,,,,,,,,,61589a4cf5deaf0be63bf31e,2021-10-19_19h14.52.691,forced_choiceRT,2021.1.2,MacIntel,59.99160118,f,2.0772,18,0,18,0,1,,,,,,,,,,,,,,,
,,,,,,,,,,,,61589a4cf5deaf0be63bf31e,2021-10-19_19h14.52.691,forced_choiceRT,2021.1.2,MacIntel,59.99160118,g,2.1629,19,0,19,0,1,,,,,,,,,,,,,,,
,0.07,,,,,,,,,g.PNG,g,61589a4cf5deaf0be63bf31e,2021-10-19_19h14.52.691,forced_choiceRT,2021.1.2,MacIntel,59.99160118,,,,,,,,1,Slow,f,0,2.371,0,0,0,1,1,,,,,
,1.2,,,,,,,,,g.PNG,g,61589a4cf5deaf0be63bf31e,2021-10-19_19h14.52.691,forced_choiceRT,2021.1.2,MacIntel,59.99160118,,,,,,,,1,Slow,g,1,2.244,0,1,1,1,1,,,,,
,1.11,,,,,,,,,j.PNG,j,61589a4cf5deaf0be63bf31e,2021-10-19_19h14.52.691,forced_choiceRT,2021.1.2,MacIntel,59.99160118,,,,,,,,1,Slow,j,1,2.171,0,2,2,3,1,,,,,
,1.65,,,,,,,,,h.PNG,h,61589a4cf5deaf0be63bf31e,2021-10-19_19h14.52.691,forced_choiceRT,2021.1.2,MacIntel,59.99160118,,,,,,,,1,Slow,h,1,2.3458,0,3,3,2,1,,,,,
,0.67,,,,,,,,,h.PNG,h,61589a4cf5deaf0be63bf31e,2021-10-19_19h14.52.691,forced_choiceRT,2021.1.2,MacIntel,59.99160118,,,,,,,,1,Ontime,h,1,2.0957,1,0,4,2,1,,,,,
,0.36,,,,,,,,,f.PNG,f,61589a4cf5deaf0be63bf31e,2021-10-19_19h14.52.691,forced_choiceRT,2021.1.2,MacIntel,59.99160118,,,,,,,,1,Ontime,f,1,1.9678,1,1,5,0,1,,,,,
,0,,,,,,,,,h.PNG,h,61589a4cf5deaf0be63bf31e,2021-10-19_19h14.52.691,forced_choiceRT,2021.1.2,MacIntel,59.99160118,,,,,,,,1,Ontime,h,1,1.9554,1,2,6,2,1,,,,,
,1.83,,,,,,,,,h.PNG,h,61589a4cf5deaf0be63bf31e,2021-10-19_19h14.52.691,forced_choiceRT,2021.1.2,MacIntel,59.99160118,,,,,,,,1,Slow,g,0,2.3101,1,3,7,2,1,,,,,
,0.94,,,,,,,,,h.PNG,h,61589a4cf5deaf0be63bf31e,2021-10-19_19h14.52.691,forced_choiceRT,2021.1.2,MacIntel,59.99160118,,,,,,,,1,Slow,j,0,2.1673,2,0,8,2,1,,,,,
,1.54,,,,,,,,,j.PNG,j,61589a4cf5deaf0be63bf31e,2021-10-19_19h14.52.691,forced_choiceRT,2021.1.2,MacIntel,59.99160118,,,,,,,,1,Slow,j,1,2.3964,2,1,9,3,1,,,,,
,1.45,,,,,,,,,f.PNG,f,61589a4cf5deaf0be63bf31e,2021-10-19_19h14.52.691,forced_choiceRT,2021.1.2,MacIntel,59.99160118,,,,,,,,1,Ontime,f,1,2.034,2,2,10,0,1,,,,,
,1.68,,,,,,,,,h.PNG,h,61589a4cf5deaf0be63bf31e,2021-10-19_19h14.52.691,forced_choiceRT,2021.1.2,MacIntel,59.99160118,,,,,,,,1,Slow,j,0,2.2163,2,3,11,2,1,,,,,
,1.33,,,,,,,,,f.PNG,f,61589a4cf5deaf0be63bf31e,2021-10-19_19h14.52.691,forced_choiceRT,2021.1.2,MacIntel,59.99160118,,,,,,,,1,Slow,f,1,2.1088,3,0,12,0,1,,,,,
,1.9,,,,,,,,,h.PNG,h,61589a4cf5deaf0be63bf31e,2021-10-19_19h14.52.691,forced_choiceRT,2021.1.2,MacIntel,59.99160118,,,,,,,,1,Slow,j,0,2.2446,3,1,13,2,1,,,,,
,0.05,,,,,,,,,j.PNG,j,61589a4cf5deaf0be63bf31e,2021-10-19_19h14.52.691,forced_choiceRT,2021.1.2,MacIntel,59.99160118,,,,,,,,1,Ontime,j,1,1.9472,3,2,14,3,1,,,,,
,1.88,,,,,,,,,g.PNG,g,61589a4cf5deaf0be63bf31e,2021-10-19_19h14.52.691,forced_choiceRT,2021.1.2,MacIntel,59.99160118,,,,,,,,1,Slow,h,0,2.4001,3,3,15,1,1,,,,,
,1.1,,,,,,,,,f.PNG,f,61589a4cf5deaf0be63bf31e,2021-10-19_19h14.52.691,forced_choiceRT,2021.1.2,MacIntel,59.99160118,,,,,,,,1,Fast,f,1,1.8545,4,0,16,0,1,,,,,
,1.26,,,,,,,,,g.PNG,g,61589a4cf5deaf0be63bf31e,2021-10-19_19h14.52.691,forced_choiceRT,2021.1.2,MacIntel,59.99160118,,,,,,,,1,Ontime,f,0,2.0036,4,1,17,1,1,,,,,
,0.58,,,,,,,,,h.PNG,h,61589a4cf5deaf0be63bf31e,2021-10-19_19h14.52.691,forced_choiceRT,2021.1.2,MacIntel,59.99160118,,,,,,,,1,Ontime,h,1,1.9932,4,2,18,2,1,,,,,
,1.21,,,,,,,,,h.PNG,h,61589a4cf5deaf0be63bf31e,2021-10-19_19h14.52.691,forced_choiceRT,2021.1.2,MacIntel,59.99160118,,,,,,,,1,Ontime,h,1,2.0167,4,3,19,2,1,,,,,
,0.29,,,,,,,,,g.PNG,g,61589a4cf5deaf0be63bf31e,2021-10-19_19h14.52.691,forced_choiceRT,2021.1.2,MacIntel,59.99160118,,,,,,,,1,Ontime,g,1,1.968,5,0,20,1,1,,,,,
,1.4,,,,,,,,,j.PNG,j,61589a4cf5deaf0be63bf31e,2021-10-19_19h14.52.691,forced_choiceRT,2021.1.2,MacIntel,59.99160118,,,,,,,,1,Slow,j,1,2.3695,5,1,21,3,1,,,,,
,1.16,,,,,,,,,h.PNG,h,61589a4cf5deaf0be63bf31e,2021-10-19_19h14.52.691,forced_choiceRT,2021.1.2,MacIntel,59.99160118,,,,,,,,1,Slow,h,1,2.152,5,2,22,2,1,,,,,
,1.28,,,,,,,,,f.PNG,f,61589a4cf5deaf0be63bf31e,2021-10-19_19h14.52.691,forced_choiceRT,2021.1.2,MacIntel,59.99160118,,,,,,,,1,Slow,f,1,2.2448,5,3,23,0,1,,,,,
,0.58,,,,,,,,,f.PNG,f,61589a4cf5deaf0be63bf31e,2021-10-19_19h14.52.691,forced_choiceRT,2021.1.2,MacIntel,59.99160118,,,,,,,,1,Fast,f,1,1.807,6,0,24,0,1,,,,,
,1.44,,,,,,,,,j.PNG,j,61589a4cf5deaf0be63bf31e,2021-10-19_19h14.52.691,forced_choiceRT,2021.1.2,MacIntel,59.99160118,,,,,,,,1,Slow,j,1,2.2649,6,1,25,3,1,,,,,
,0.93,,,,,,,,,g.PNG,g,61589a4cf5deaf0be63bf31e,2021-10-19_19h14.52.691,forced_choiceRT,2021.1.2,MacIntel,59.99160118,,,,,,,,1,Ontime,g,1,1.9346,6,2,26,1,1,,,,,
,0.84,,,,,,,,,f.PNG,f,61589a4cf5deaf0be63bf31e,2021-10-19_19h14.52.691,forced_choiceRT,2021.1.2,MacIntel,59.99160118,,,,,,,,1,Ontime,f,1,1.9279,6,3,27,0,1,,,,,
,0.73,,,,,,,,,g.PNG,g,61589a4cf5deaf0be63bf31e,2021-10-19_19h14.52.691,forced_choiceRT,2021.1.2,MacIntel,59.99160118,,,,,,,,1,Slow,j,0,2.192,7,0,28,1,1,,,,,
,0.94,,,,,,,,,f.PNG,f,61589a4cf5deaf0be63bf31e,2021-10-19_19h14.52.691,forced_choiceRT,2021.1.2,MacIntel,59.99160118,,,,,,,,1,Ontime,f,1,2.0436,7,1,29,0,1,,,,,
,0.76,,,,,,,,,j.PNG,j,61589a4cf5deaf0be63bf31e,2021-10-19_19h14.52.691,forced_choiceRT,2021.1.2,MacIntel,59.99160118,,,,,,,,1,Fast,j,1,1.8836,7,2,30,3,1,,,,,
,1.06,,,,,,,,,j.PNG,j,61589a4cf5deaf0be63bf31e,2021-10-19_19h14.52.691,forced_choiceRT,2021.1.2,MacIntel,59.99160118,,,,,,,,1,Ontime,j,1,2.0954,7,3,31,3,1,,,,,
,1.88,,,,,,,,,g.PNG,g,61589a4cf5deaf0be63bf31e,2021-10-19_19h14.52.691,forced_choiceRT,2021.1.2,MacIntel,59.99160118,,,,,,,,1,Slow,j,0,4.5116,8,0,32,1,1,,,,,
,1.52,,,,,,,,,j.PNG,j,61589a4cf5deaf0be63bf31e,2021-10-19_19h14.52.691,forced_choiceRT,2021.1.2,MacIntel,59.99160118,,,,,,,,1,Slow,j,1,2.2335,8,1,33,3,1,,,,,
,0.95,,,,,,,,,f.PNG,f,61589a4cf5deaf0be63bf31e,2021-10-19_19h14.52.691,forced_choiceRT,2021.1.2,MacIntel,59.99160118,,,,,,,,1,Ontime,f,1,1.9017,8,2,34,0,1,,,,,
,0.04,,,,,,,,,f.PNG,f,61589a4cf5deaf0be63bf31e,2021-10-19_19h14.52.691,forced_choiceRT,2021.1.2,MacIntel,59.99160118,,,,,,,,1,Fast,f,1,1.8189,8,3,35,0,1,,,,,
,0.81,,,,,,,,,j.PNG,j,61589a4cf5deaf0be63bf31e,2021-10-19_19h14.52.691,forced_choiceRT,2021.1.2,MacIntel,59.99160118,,,,,,,,1,Fast,j,1,1.8862,9,0,36,3,1,,,,,
,1.85,,,,,,,,,j.PNG,j,61589a4cf5deaf0be63bf31e,2021-10-19_19h14.52.691,forced_choiceRT,2021.1.2,MacIntel,59.99160118,,,,,,,,1,Slow,j,1,2.4362,9,1,37,3,1,,,,,
,0.46,,,,,,,,,g.PNG,g,61589a4cf5deaf0be63bf31e,2021-10-19_19h14.52.691,forced_choiceRT,2021.1.2,MacIntel,59.99160118,,,,,,,,1,Ontime,g,1,1.9843,9,2,38,1,1,,,,,
,0.2,,,,,,,,,g.PNG,g,61589a4cf5deaf0be63bf31e,2021-10-19_19h14.52.691,forced_choiceRT,2021.1.2,MacIntel,59.99160118,,,,,,,,1,Ontime,g,1,2.0275,9,3,39,1,1,,,,,
,,,,,,,,,,,,61589a4cf5deaf0be63bf31e,2021-10-19_19h14.52.691,forced_choiceRT,2021.1.2,MacIntel,59.99160118,,,,,,,,,,,,,,,,,,0,0,0,0,1
,0.24,,,,,,,,,g.PNG,g,61589a4cf5deaf0be63bf31e,2021-10-19_19h14.52.691,forced_choiceRT,2021.1.2,MacIntel,59.99160118,,,,,,,,2,Slow,g,1,2.3113,0,0,0,1,1,,,,,
,0.64,,,,,,,,,g.PNG,g,61589a4cf5deaf0be63bf31e,2021-10-19_19h14.52.691,forced_choiceRT,2021.1.2,MacIntel,59.99160118,,,,,,,,2,Slow,g,1,2.1793,0,1,1,1,1,,,,,
,0.03,,,,,,,,,g.PNG,g,61589a4cf5deaf0be63bf31e,2021-10-19_19h14.52.691,forced_choiceRT,2021.1.2,MacIntel,59.99160118,,,,,,,,2,Slow,g,1,2.1374,0,2,2,1,1,,,,,
,1.39,,,,,,,,,h.PNG,h,61589a4cf5deaf0be63bf31e,2021-10-19_19h14.52.691,forced_choiceRT,2021.1.2,MacIntel,59.99160118,,,,,,,,2,Ontime,g,0,1.9014,0,3,3,2,1,,,,,
,1.07,,,,,,,,,j.PNG,j,61589a4cf5deaf0be63bf31e,2021-10-19_19h14.52.691,forced_choiceRT,2021.1.2,MacIntel,59.99160118,,,,,,,,2,Slow,j,1,2.1307,1,0,4,3,1,,,,,
,1.64,,,,,,,,,f.PNG,f,61589a4cf5deaf0be63bf31e,2021-10-19_19h14.52.691,forced_choiceRT,2021.1.2,MacIntel,59.99160118,,,,,,,,2,Slow,f,1,2.471,1,1,5,0,1,,,,,
,0.91,,,,,,,,,f.PNG,f,61589a4cf5deaf0be63bf31e,2021-10-19_19h14.52.691,forced_choiceRT,2021.1.2,MacIntel,59.99160118,,,,,,,,2,Ontime,f,1,2.0155,1,2,6,0,1,,,,,
,0.08,,,,,,,,,g.PNG,g,61589a4cf5deaf0be63bf31e,2021-10-19_19h14.52.691,forced_choiceRT,2021.1.2,MacIntel,59.99160118,,,,,,,,2,Ontime,g,1,2.0999,1,3,7,1,1,,,,,
,0.63,,,,,,,,,f.PNG,f,61589a4cf5deaf0be63bf31e,2021-10-19_19h14.52.691,forced_choiceRT,2021.1.2,MacIntel,59.99160118,,,,,,,,2,Ontime,f,1,2.0495,2,0,8,0,1,,,,,
,1.41,,,,,,,,,j.PNG,j,61589a4cf5deaf0be63bf31e,2021-10-19_19h14.52.691,forced_choiceRT,2021.1.2,MacIntel,59.99160118,,,,,,,,2,Slow,j,1,2.1169,2,1,9,3,1,,,,,
,0.55,,,,,,,,,h.PNG,h,61589a4cf5deaf0be63bf31e,2021-10-19_19h14.52.691,forced_choiceRT,2021.1.2,MacIntel,59.99160118,,,,,,,,2,Fast,h,1,1.7146,2,2,10,2,1,,,,,
,1.24,,,,,,,,,f.PNG,f,61589a4cf5deaf0be63bf31e,2021-10-19_19h14.52.691,forced_choiceRT,2021.1.2,MacIntel,59.99160118,,,,,,,,2,Ontime,f,1,2.0375,2,3,11,0,1,,,,,
,1.11,,,,,,,,,g.PNG,g,61589a4cf5deaf0be63bf31e,2021-10-19_19h14.52.691,forced_choiceRT,2021.1.2,MacIntel,59.99160118,,,,,,,,2,Slow,g,1,2.315,3,0,12,1,1,,,,,
,1.51,,,,,,,,,g.PNG,g,61589a4cf5deaf0be63bf31e,2021-10-19_19h14.52.691,forced_choiceRT,2021.1.2,MacIntel,59.99160118,,,,,,,,2,Slow,g,1,2.4431,3,1,13,1,1,,,,,
,1.74,,,,,,,,,g.PNG,g,61589a4cf5deaf0be63bf31e,2021-10-19_19h14.52.691,forced_choiceRT,2021.1.2,MacIntel,59.99160118,,,,,,,,2,Slow,g,1,2.4289,3,2,14,1,1,,,,,
,1.4,,,,,,,,,h.PNG,h,61589a4cf5deaf0be63bf31e,2021-10-19_19h14.52.691,forced_choiceRT,2021.1.2,MacIntel,59.99160118,,,,,,,,2,Ontime,h,1,2.0106,3,3,15,2,1,,,,,
,1.09,,,,,,,,,j.PNG,j,61589a4cf5deaf0be63bf31e,2021-10-19_19h14.52.691,forced_choiceRT,2021.1.2,MacIntel,59.99160118,,,,,,,,2,Ontime,j,1,2.0501,4,0,16,3,1,,,,,
,1.05,,,,,,,,,h.PNG,h,61589a4cf5deaf0be63bf31e,2021-10-19_19h14.52.691,forced_choiceRT,2021.1.2,MacIntel,59.99160118,,,,,,,,2,Ontime,h,1,2.017,4,1,17,2,1,,,,,
,0.41,,,,,,,,,f.PNG,f,61589a4cf5deaf0be63bf31e,2021-10-19_19h14.52.691,forced_choiceRT,2021.1.2,MacIntel,59.99160118,,,,,,,,2,Ontime,f,1,2.0473,4,2,18,0,1,,,,,
,0.74,,,,,,,,,h.PNG,h,61589a4cf5deaf0be63bf31e,2021-10-19_19h14.52.691,forced_choiceRT,2021.1.2,MacIntel,59.99160118,,,,,,,,2,Ontime,h,1,2.0947,4,3,19,2,1,,,,,
,1.08,,,,,,,,,f.PNG,f,61589a4cf5deaf0be63bf31e,2021-10-19_19h14.52.691,forced_choiceRT,2021.1.2,MacIntel,59.99160118,,,,,,,,2,Ontime,f,1,2.0548,5,0,20,0,1,,,,,
,1.83,,,,,,,,,j.PNG,j,61589a4cf5deaf0be63bf31e,2021-10-19_19h14.52.691,forced_choiceRT,2021.1.2,MacIntel,59.99160118,,,,,,,,2,Slow,j,1,2.3826,5,1,21,3,1,,,,,
,1.33,,,,,,,,,j.PNG,j,61589a4cf5deaf0be63bf31e,2021-10-19_19h14.52.691,forced_choiceRT,2021.1.2,MacIntel,59.99160118,,,,,,,,2,Ontime,j,1,2.0352,5,2,22,3,1,,,,,
,0.1,,,,,,,,,j.PNG,j,61589a4cf5deaf0be63bf31e,2021-10-19_19h14.52.691,forced_choiceRT,2021.1.2,MacIntel,59.99160118,,,,,,,,2,Ontime,j,1,2.0485,5,3,23,3,1,,,,,
,1.62,,,,,,,,,g.PNG,g,61589a4cf5deaf0be63bf31e,2021-10-19_19h14.52.691,forced_choiceRT,2021.1.2,MacIntel,59.99160118,,,,,,,,2,Slow,j,0,2.9798,6,0,24,1,1,,,,,
,1.62,,,,,,,,,f.PNG,f,61589a4cf5deaf0be63bf31e,2021-10-19_19h14.52.691,forced_choiceRT,2021.1.2,MacIntel,59.99160118,,,,,,,,2,Slow,f,1,2.2253,6,1,25,0,1,,,,,
,1.53,,,,,,,,,h.PNG,h,61589a4cf5deaf0be63bf31e,2021-10-19_19h14.52.691,forced_choiceRT,2021.1.2,MacIntel,59.99160118,,,,,,,,2,Slow,j,0,2.1782,6,2,26,2,1,,,,,
,0.2,,,,,,,,,g.PNG,g,61589a4cf5deaf0be63bf31e,2021-10-19_19h14.52.691,forced_choiceRT,2021.1.2,MacIntel,59.99160118,,,,,,,,2,Ontime,g,1,2.0032,6,3,27,1,1,,,,,
,1.61,,,,,,,,,j.PNG,j,61589a4cf5deaf0be63bf31e,2021-10-19_19h14.52.691,forced_choiceRT,2021.1.2,MacIntel,59.99160118,,,,,,,,2,Slow,j,1,2.2862,7,0,28,3,1,,,,,
,0.85,,,,,,,,,f.PNG,f,61589a4cf5deaf0be63bf31e,2021-10-19_19h14.52.691,forced_choiceRT,2021.1.2,MacIntel,59.99160118,,,,,,,,2,Ontime,f,1,2.0283,7,1,29,0,1,,,,,
,0.47,,,,,,,,,h.PNG,h,61589a4cf5deaf0be63bf31e,2021-10-19_19h14.52.691,forced_choiceRT,2021.1.2,MacIntel,59.99160118,,,,,,,,2,Slow,h,1,2.2459,7,2,30,2,1,,,,,
,0.32,,,,,,,,,h.PNG,h,61589a4cf5deaf0be63bf31e,2021-10-19_19h14.52.691,forced_choiceRT,2021.1.2,MacIntel,59.99160118,,,,,,,,2,Ontime,h,1,1.9619,7,3,31,2,1,,,,,
,0.26,,,,,,,,,h.PNG,h,61589a4cf5deaf0be63bf31e,2021-10-19_19h14.52.691,forced_choiceRT,2021.1.2,MacIntel,59.99160118,,,,,,,,2,Ontime,h,1,2.0849,8,0,32,2,1,,,,,
,0.95,,,,,,,,,j.PNG,j,61589a4cf5deaf0be63bf31e,2021-10-19_19h14.52.691,forced_choiceRT,2021.1.2,MacIntel,59.99160118,,,,,,,,2,Ontime,j,1,2.0989,8,1,33,3,1,,,,,
,1.68,,,,,,,,,j.PNG,j,61589a4cf5deaf0be63bf31e,2021-10-19_19h14.52.691,forced_choiceRT,2021.1.2,MacIntel,59.99160118,,,,,,,,2,Slow,j,1,2.3495,8,2,34,3,1,,,,,
,0.86,,,,,,,,,j.PNG,j,61589a4cf5deaf0be63bf31e,2021-10-19_19h14.52.691,forced_choiceRT,2021.1.2,MacIntel,59.99160118,,,,,,,,2,Ontime,j,1,1.9289,8,3,35,3,1,,,,,
,0.63,,,,,,,,,h.PNG,h,61589a4cf5deaf0be63bf31e,2021-10-19_19h14.52.691,forced_choiceRT,2021.1.2,MacIntel,59.99160118,,,,,,,,2,Ontime,h,1,2.0001,9,0,36,2,1,,,,,
,1.85,,,,,,,,,f.PNG,f,61589a4cf5deaf0be63bf31e,2021-10-19_19h14.52.691,forced_choiceRT,2021.1.2,MacIntel,59.99160118,,,,,,,,2,Slow,f,1,2.4632,9,1,37,0,1,,,,,
,1.94,,,,,,,,,g.PNG,g,61589a4cf5deaf0be63bf31e,2021-10-19_19h14.52.691,forced_choiceRT,2021.1.2,MacIntel,59.99160118,,,,,,,,2,Slow,f,0,2.5199,9,2,38,1,1,,,,,
,1.6,,,,,,,,,f.PNG,f,61589a4cf5deaf0be63bf31e,2021-10-19_19h14.52.691,forced_choiceRT,2021.1.2,MacIntel,59.99160118,,,,,,,,2,Slow,g,0,2.111,9,3,39,0,1,,,,,
,,,,,,,,,,,,61589a4cf5deaf0be63bf31e,2021-10-19_19h14.52.691,forced_choiceRT,2021.1.2,MacIntel,59.99160118,,,,,,,,,,,,,,,,,,1,0,1,0,1
,0.17,,,,,,,,,g.PNG,g,61589a4cf5deaf0be63bf31e,2021-10-19_19h14.52.691,forced_choiceRT,2021.1.2,MacIntel,59.99160118,,,,,,,,3,Fast,g,1,1.1226,0,0,0,1,1,,,,,
,0.13,,,,,,,,,j.PNG,j,61589a4cf5deaf0be63bf31e,2021-10-19_19h14.52.691,forced_choiceRT,2021.1.2,MacIntel,59.99160118,,,,,,,,3,Fast,j,1,1.787,0,1,1,3,1,,,,,
,0.94,,,,,,,,,f.PNG,f,61589a4cf5deaf0be63bf31e,2021-10-19_19h14.52.691,forced_choiceRT,2021.1.2,MacIntel,59.99160118,,,,,,,,3,Ontime,f,1,1.9097,0,2,2,0,1,,,,,
,0.17,,,,,,,,,f.PNG,f,61589a4cf5deaf0be63bf31e,2021-10-19_19h14.52.691,forced_choiceRT,2021.1.2,MacIntel,59.99160118,,,,,,,,3,Ontime,f,1,2.0939,0,3,3,0,1,,,,,
,1.33,,,,,,,,,g.PNG,g,61589a4cf5deaf0be63bf31e,2021-10-19_19h14.52.691,forced_choiceRT,2021.1.2,MacIntel,59.99160118,,,,,,,,3,Slow,g,1,2.1134,1,0,4,1,1,,,,,
,1.75,,,,,,,,,g.PNG,g,61589a4cf5deaf0be63bf31e,2021-10-19_19h14.52.691,forced_choiceRT,2021.1.2,MacIntel,59.99160118,,,,,,,,3,Slow,f,0,2.2804,1,1,5,1,1,,,,,
,0.14,,,,,,,,,h.PNG,h,61589a4cf5deaf0be63bf31e,2021-10-19_19h14.52.691,forced_choiceRT,2021.1.2,MacIntel,59.99160118,,,,,,,,3,Slow,h,1,2.3046,1,2,6,2,1,,,,,
,0.64,,,,,,,,,h.PNG,h,61589a4cf5deaf0be63bf31e,2021-10-19_19h14.52.691,forced_choiceRT,2021.1.2,MacIntel,59.99160118,,,,,,,,3,Slow,h,1,2.1844,1,3,7,2,1,,,,,
,0.56,,,,,,,,,g.PNG,g,61589a4cf5deaf0be63bf31e,2021-10-19_19h14.52.691,forced_choiceRT,2021.1.2,MacIntel,59.99160118,,,,,,,,3,Slow,g,1,2.2024,2,0,8,1,1,,,,,
,0.3,,,,,,,,,h.PNG,h,61589a4cf5deaf0be63bf31e,2021-10-19_19h14.52.691,forced_choiceRT,2021.1.2,MacIntel,59.99160118,,,,,,,,3,Fast,h,1,1.8324,2,1,9,2,1,,,,,
,1.96,,,,,,,,,g.PNG,g,61589a4cf5deaf0be63bf31e,2021-10-19_19h14.52.691,forced_choiceRT,2021.1.2,MacIntel,59.99160118,,,,,,,,3,Slow,g,1,2.886,2,2,10,1,1,,,,,
,1.35,,,,,,,,,h.PNG,h,61589a4cf5deaf0be63bf31e,2021-10-19_19h14.52.691,forced_choiceRT,2021.1.2,MacIntel,59.99160118,,,,,,,,3,Slow,h,1,2.2281,2,3,11,2,1,,,,,
,1.83,,,,,,,,,f.PNG,f,61589a4cf5deaf0be63bf31e,2021-10-19_19h14.52.691,forced_choiceRT,2021.1.2,MacIntel,59.99160118,,,,,,,,3,Slow,g,0,2.2654,3,0,12,0,1,,,,,
,0.39,,,,,,,,,j.PNG,j,61589a4cf5deaf0be63bf31e,2021-10-19_19h14.52.691,forced_choiceRT,2021.1.2,MacIntel,59.99160118,,,,,,,,3,Ontime,j,1,2.0542,3,1,13,3,1,,,,,
,0.16,,,,,,,,,g.PNG,g,61589a4cf5deaf0be63bf31e,2021-10-19_19h14.52.691,forced_choiceRT,2021.1.2,MacIntel,59.99160118,,,,,,,,3,Fast,g,1,1.8804,3,2,14,1,1,,,,,
,0.62,,,,,,,,,f.PNG,f,61589a4cf5deaf0be63bf31e,2021-10-19_19h14.52.691,forced_choiceRT,2021.1.2,MacIntel,59.99160118,,,,,,,,3,Ontime,f,1,2.0463,3,3,15,0,1,,,,,
,0.23,,,,,,,,,j.PNG,j,61589a4cf5deaf0be63bf31e,2021-10-19_19h14.52.691,forced_choiceRT,2021.1.2,MacIntel,59.99160118,,,,,,,,3,Ontime,j,1,2.084,4,0,16,3,1,,,,,
,0.92,,,,,,,,,j.PNG,j,61589a4cf5deaf0be63bf31e,2021-10-19_19h14.52.691,forced_choiceRT,2021.1.2,MacIntel,59.99160118,,,,,,,,3,Ontime,j,1,1.965,4,1,17,3,1,,,,,
,0.35,,,,,,,,,f.PNG,f,61589a4cf5deaf0be63bf31e,2021-10-19_19h14.52.691,forced_choiceRT,2021.1.2,MacIntel,59.99160118,,,,,,,,3,Ontime,f,1,2.0485,4,2,18,0,1,,,,,
,0.14,,,,,,,,,f.PNG,f,61589a4cf5deaf0be63bf31e,2021-10-19_19h14.52.691,forced_choiceRT,2021.1.2,MacIntel,59.99160118,,,,,,,,3,Fast,f,1,1.8496,4,3,19,0,1,,,,,
,0.39,,,,,,,,,h.PNG,h,61589a4cf5deaf0be63bf31e,2021-10-19_19h14.52.691,forced_choiceRT,2021.1.2,MacIntel,59.99160118,,,,,,,,3,Slow,h,1,2.1981,5,0,20,2,1,,,,,
,1.54,,,,,,,,,h.PNG,h,61589a4cf5deaf0be63bf31e,2021-10-19_19h14.52.691,forced_choiceRT,2021.1.2,MacIntel,59.99160118,,,,,,,,3,Slow,h,1,2.3823,5,1,21,2,1,,,,,
,0.2,,,,,,,,,h.PNG,h,61589a4cf5deaf0be63bf31e,2021-10-19_19h14.52.691,forced_choiceRT,2021.1.2,MacIntel,59.99160118,,,,,,,,3,Fast,h,1,1.8849,5,2,22,2,1,,,,,
,0.17,,,,,,,,,f.PNG,f,61589a4cf5deaf0be63bf31e,2021-10-19_19h14.52.691,forced_choiceRT,2021.1.2,MacIntel,59.99160118,,,,,,,,3,Slow,f,1,2.1285,5,3,23,0,1,,,,,
,0.15,,,,,,,,,h.PNG,h,61589a4cf5deaf0be63bf31e,2021-10-19_19h14.52.691,forced_choiceRT,2021.1.2,MacIntel,59.99160118,,,,,,,,3,Ontime,h,1,2.0537,6,0,24,2,1,,,,,
,0.73,,,,,,,,,j.PNG,j,61589a4cf5deaf0be63bf31e,2021-10-19_19h14.52.691,forced_choiceRT,2021.1.2,MacIntel,59.99160118,,,,,,,,3,Slow,j,1,2.1983,6,1,25,3,1,,,,,
,1.9,,,,,,,,,g.PNG,g,61589a4cf5deaf0be63bf31e,2021-10-19_19h14.52.691,forced_choiceRT,2021.1.2,MacIntel,59.99160118,,,,,,,,3,Slow,h,0,2.4791,6,2,26,1,1,,,,,
,0.38,,,,,,,,,j.PNG,j,61589a4cf5deaf0be63bf31e,2021-10-19_19h14.52.691,forced_choiceRT,2021.1.2,MacIntel,59.99160118,,,,,,,,3,Ontime,j,1,1.9181,6,3,27,3,1,,,,,
,1.29,,,,,,,,,j.PNG,j,61589a4cf5deaf0be63bf31e,2021-10-19_19h14.52.691,forced_choiceRT,2021.1.2,MacIntel,59.99160118,,,,,,,,3,Slow,j,1,2.1268,7,0,28,3,1,,,,,
,1.97,,,,,,,,,j.PNG,j,61589a4cf5deaf0be63bf31e,2021-10-19_19h14.52.691,forced_choiceRT,2021.1.2,MacIntel,59.99160118,,,,,,,,3,Slow,j,1,2.6386,7,1,29,3,1,,,,,
,0.07,,,,,,,,,f.PNG,f,61589a4cf5deaf0be63bf31e,2021-10-19_19h14.52.691,forced_choiceRT,2021.1.2,MacIntel,59.99160118,,,,,,,,3,Ontime,f,1,1.9482,7,2,30,0,1,,,,,
,1.7,,,,,,,,,f.PNG,f,61589a4cf5deaf0be63bf31e,2021-10-19_19h14.52.691,forced_choiceRT,2021.1.2,MacIntel,59.99160118,,,,,,,,3,Slow,f,1,2.2213,7,3,31,0,1,,,,,
,0.11,,,,,,,,,h.PNG,h,61589a4cf5deaf0be63bf31e,2021-10-19_19h14.52.691,forced_choiceRT,2021.1.2,MacIntel,59.99160118,,,,,,,,3,Ontime,h,1,2.0839,8,0,32,2,1,,,,,
,0.67,,,,,,,,,f.PNG,f,61589a4cf5deaf0be63bf31e,2021-10-19_19h14.52.691,forced_choiceRT,2021.1.2,MacIntel,59.99160118,,,,,,,,3,Ontime,f,1,2.0366,8,1,33,0,1,,,,,
,1.95,,,,,,,,,h.PNG,h,61589a4cf5deaf0be63bf31e,2021-10-19_19h14.52.691,forced_choiceRT,2021.1.2,MacIntel,59.99160118,,,,,,,,3,Slow,f,0,2.3666,8,2,34,2,1,,,,,
,0.53,,,,,,,,,j.PNG,j,61589a4cf5deaf0be63bf31e,2021-10-19_19h14.52.691,forced_choiceRT,2021.1.2,MacIntel,59.99160118,,,,,,,,3,Slow,j,1,2.1178,8,3,35,3,1,,,,,
,1.65,,,,,,,,,g.PNG,g,61589a4cf5deaf0be63bf31e,2021-10-19_19h14.52.691,forced_choiceRT,2021.1.2,MacIntel,59.99160118,,,,,,,,3,Slow,f,0,2.2328,9,0,36,1,1,,,,,
,0.37,,,,,,,,,g.PNG,g,61589a4cf5deaf0be63bf31e,2021-10-19_19h14.52.691,forced_choiceRT,2021.1.2,MacIntel,59.99160118,,,,,,,,3,Ontime,g,1,1.9709,9,1,37,1,1,,,,,
,1.79,,,,,,,,,g.PNG,g,61589a4cf5deaf0be63bf31e,2021-10-19_19h14.52.691,forced_choiceRT,2021.1.2,MacIntel,59.99160118,,,,,,,,3,Slow,g,1,2.2025,9,2,38,1,1,,,,,
,1.87,,,,,,,,,j.PNG,j,61589a4cf5deaf0be63bf31e,2021-10-19_19h14.52.691,forced_choiceRT,2021.1.2,MacIntel,59.99160118,,,,,,,,3,Slow,g,0,2.1507,9,3,39,3,1,,,,,
,,,,,,,,,,,,61589a4cf5deaf0be63bf31e,2021-10-19_19h14.52.691,forced_choiceRT,2021.1.2,MacIntel,59.99160118,,,,,,,,,,,,,,,,,,2,0,2,0,1
,1.73,,,,,,,,,g.PNG,g,61589a4cf5deaf0be63bf31e,2021-10-19_19h14.52.691,forced_choiceRT,2021.1.2,MacIntel,59.99160118,,,,,,,,4,Slow,g,1,2.3446,0,0,0,1,1,,,,,
,0.92,,,,,,,,,h.PNG,h,61589a4cf5deaf0be63bf31e,2021-10-19_19h14.52.691,forced_choiceRT,2021.1.2,MacIntel,59.99160118,,,,,,,,4,Fast,h,1,1.7775,0,1,1,2,1,,,,,
,1.47,,,,,,,,,f.PNG,f,61589a4cf5deaf0be63bf31e,2021-10-19_19h14.52.691,forced_choiceRT,2021.1.2,MacIntel,59.99160118,,,,,,,,4,Slow,f,1,2.2013,0,2,2,0,1,,,,,
,0.46,,,,,,,,,j.PNG,j,61589a4cf5deaf0be63bf31e,2021-10-19_19h14.52.691,forced_choiceRT,2021.1.2,MacIntel,59.99160118,,,,,,,,4,Fast,j,1,1.8421,0,3,3,3,1,,,,,
,1.71,,,,,,,,,f.PNG,f,61589a4cf5deaf0be63bf31e,2021-10-19_19h14.52.691,forced_choiceRT,2021.1.2,MacIntel,59.99160118,,,,,,,,4,Slow,f,1,2.329,1,0,4,0,1,,,,,
,1.01,,,,,,,,,j.PNG,j,61589a4cf5deaf0be63bf31e,2021-10-19_19h14.52.691,forced_choiceRT,2021.1.2,MacIntel,59.99160118,,,,,,,,4,Ontime,j,1,2.0527,1,1,5,3,1,,,,,
,0.87,,,,,,,,,g.PNG,g,61589a4cf5deaf0be63bf31e,2021-10-19_19h14.52.691,forced_choiceRT,2021.1.2,MacIntel,59.99160118,,,,,,,,4,Ontime,g,1,1.9099,1,2,6,1,1,,,,,
,1.96,,,,,,,,,j.PNG,j,61589a4cf5deaf0be63bf31e,2021-10-19_19h14.52.691,forced_choiceRT,2021.1.2,MacIntel,59.99160118,,,,,,,,4,Slow,j,1,2.6141,1,3,7,3,1,,,,,
,1.47,,,,,,,,,f.PNG,f,61589a4cf5deaf0be63bf31e,2021-10-19_19h14.52.691,forced_choiceRT,2021.1.2,MacIntel,59.99160118,,,,,,,,4,Slow,f,1,2.1524,2,0,8,0,1,,,,,
,0.69,,,,,,,,,f.PNG,f,61589a4cf5deaf0be63bf31e,2021-10-19_19h14.52.691,forced_choiceRT,2021.1.2,MacIntel,59.99160118,,,,,,,,4,Fast,f,1,1.8516,2,1,9,0,1,,,,,
,1.42,,,,,,,,,g.PNG,g,61589a4cf5deaf0be63bf31e,2021-10-19_19h14.52.691,forced_choiceRT,2021.1.2,MacIntel,59.99160118,,,,,,,,4,Slow,g,1,2.2268,2,2,10,1,1,,,,,
,1.58,,,,,,,,,f.PNG,f,61589a4cf5deaf0be63bf31e,2021-10-19_19h14.52.691,forced_choiceRT,2021.1.2,MacIntel,59.99160118,,,,,,,,4,Slow,f,1,2.1488,2,3,11,0,1,,,,,
,0.79,,,,,,,,,h.PNG,h,61589a4cf5deaf0be63bf31e,2021-10-19_19h14.52.691,forced_choiceRT,2021.1.2,MacIntel,59.99160118,,,,,,,,4,Ontime,h,1,1.9833,3,0,12,2,1,,,,,
,1.24,,,,,,,,,g.PNG,g,61589a4cf5deaf0be63bf31e,2021-10-19_19h14.52.691,forced_choiceRT,2021.1.2,MacIntel,59.99160118,,,,,,,,4,Slow,g,1,2.3271,3,1,13,1,1,,,,,
,1.65,,,,,,,,,h.PNG,h,61589a4cf5deaf0be63bf31e,2021-10-19_19h14.52.691,forced_choiceRT,2021.1.2,MacIntel,59.99160118,,,,,,,,4,Slow,h,1,2.4512,3,2,14,2,1,,,,,
,0.64,,,,,,,,,f.PNG,f,61589a4cf5deaf0be63bf31e,2021-10-19_19h14.52.691,forced_choiceRT,2021.1.2,MacIntel,59.99160118,,,,,,,,4,Slow,f,1,2.1119,3,3,15,0,1,,,,,
,1.89,,,,,,,,,g.PNG,g,61589a4cf5deaf0be63bf31e,2021-10-19_19h14.52.691,forced_choiceRT,2021.1.2,MacIntel,59.99160118,,,,,,,,4,Slow,g,1,2.6349,4,0,16,1,1,,,,,
,0.76,,,,,,,,,g.PNG,g,61589a4cf5deaf0be63bf31e,2021-10-19_19h14.52.691,forced_choiceRT,2021.1.2,MacIntel,59.99160118,,,,,,,,4,Slow,g,1,2.22,4,1,17,1,1,,,,,
,1.52,,,,,,,,,j.PNG,j,61589a4cf5deaf0be63bf31e,2021-10-19_19h14.52.691,forced_choiceRT,2021.1.2,MacIntel,59.99160118,,,,,,,,4,Slow,h,0,2.3016,4,2,18,3,1,,,,,
,1.1,,,,,,,,,f.PNG,f,61589a4cf5deaf0be63bf31e,2021-10-19_19h14.52.691,forced_choiceRT,2021.1.2,MacIntel,59.99160118,,,,,,,,4,Ontime,f,1,2.0809,4,3,19,0,1,,,,,
,1.93,,,,,,,,,g.PNG,g,61589a4cf5deaf0be63bf31e,2021-10-19_19h14.52.691,forced_choiceRT,2021.1.2,MacIntel,59.99160118,,,,,,,,4,Slow,g,1,2.2195,5,0,20,1,1,,,,,
,0.26,,,,,,,,,h.PNG,h,61589a4cf5deaf0be63bf31e,2021-10-19_19h14.52.691,forced_choiceRT,2021.1.2,MacIntel,59.99160118,,,,,,,,4,Ontime,h,1,1.9855,5,1,21,2,1,,,,,
,1.32,,,,,,,,,h.PNG,h,61589a4cf5deaf0be63bf31e,2021-10-19_19h14.52.691,forced_choiceRT,2021.1.2,MacIntel,59.99160118,,,,,,,,4,Slow,f,0,2.3124,5,2,22,2,1,,,,,
,1.85,,,,,,,,,j.PNG,j,61589a4cf5deaf0be63bf31e,2021-10-19_19h14.52.691,forced_choiceRT,2021.1.2,MacIntel,59.99160118,,,,,,,,4,Slow,j,1,2.5259,5,3,23,3,1,,,,,
,1.22,,,,,,,,,j.PNG,j,61589a4cf5deaf0be63bf31e,2021-10-19_19h14.52.691,forced_choiceRT,2021.1.2,MacIntel,59.99160118,,,,,,,,4,Ontime,j,1,1.9772,6,0,24,3,1,,,,,
,1.56,,,,,,,,,j.PNG,j,61589a4cf5deaf0be63bf31e,2021-10-19_19h14.52.691,forced_choiceRT,2021.1.2,MacIntel,59.99160118,,,,,,,,4,Slow,j,1,2.2681,6,1,25,3,1,,,,,
,1.62,,,,,,,,,f.PNG,f,61589a4cf5deaf0be63bf31e,2021-10-19_19h14.52.691,forced_choiceRT,2021.1.2,MacIntel,59.99160118,,,,,,,,4,Slow,f,1,2.2956,6,2,26,0,1,,,,,
,1.89,,,,,,,,,h.PNG,h,61589a4cf5deaf0be63bf31e,2021-10-19_19h14.52.691,forced_choiceRT,2021.1.2,MacIntel,59.99160118,,,,,,,,4,Slow,j,0,2.4808,6,3,27,2,1,,,,,
,0.18,,,,,,,,,f.PNG,f,61589a4cf5deaf0be63bf31e,2021-10-19_19h14.52.691,forced_choiceRT,2021.1.2,MacIntel,59.99160118,,,,,,,,4,Fast,f,1,1.8602,7,0,28,0,1,,,,,
,0.27,,,,,,,,,h.PNG,h,61589a4cf5deaf0be63bf31e,2021-10-19_19h14.52.691,forced_choiceRT,2021.1.2,MacIntel,59.99160118,,,,,,,,4,Fast,h,1,1.8794,7,1,29,2,1,,,,,
,0.11,,,,,,,,,f.PNG,f,61589a4cf5deaf0be63bf31e,2021-10-19_19h14.52.691,forced_choiceRT,2021.1.2,MacIntel,59.99160118,,,,,,,,4,Ontime,f,1,2.0552,7,2,30,0,1,,,,,
,0.67,,,,,,,,,g.PNG,g,61589a4cf5deaf0be63bf31e,2021-10-19_19h14.52.691,forced_choiceRT,2021.1.2,MacIntel,59.99160118,,,,,,,,4,Slow,g,1,2.2183,7,3,31,1,1,,,,,
,1.43,,,,,,,,,j.PNG,j,61589a4cf5deaf0be63bf31e,2021-10-19_19h14.52.691,forced_choiceRT,2021.1.2,MacIntel,59.99160118,,,,,,,,4,Slow,j,1,2.1502,8,0,32,3,1,,,,,
,0.7,,,,,,,,,h.PNG,h,61589a4cf5deaf0be63bf31e,2021-10-19_19h14.52.691,forced_choiceRT,2021.1.2,MacIntel,59.99160118,,,,,,,,4,Slow,h,1,2.1157,8,1,33,2,1,,,,,
,1.19,,,,,,,,,g.PNG,g,61589a4cf5deaf0be63bf31e,2021-10-19_19h14.52.691,forced_choiceRT,2021.1.2,MacIntel,59.99160118,,,,,,,,4,Slow,g,1,2.2379,8,2,34,1,1,,,,,
,1.42,,,,,,,,,j.PNG,j,61589a4cf5deaf0be63bf31e,2021-10-19_19h14.52.691,forced_choiceRT,2021.1.2,MacIntel,59.99160118,,,,,,,,4,Slow,j,1,2.1371,8,3,35,3,1,,,,,
,0.64,,,,,,,,,g.PNG,g,61589a4cf5deaf0be63bf31e,2021-10-19_19h14.52.691,forced_choiceRT,2021.1.2,MacIntel,59.99160118,,,,,,,,4,Ontime,g,1,1.9999,9,0,36,1,1,,,,,
,0.36,,,,,,,,,h.PNG,h,61589a4cf5deaf0be63bf31e,2021-10-19_19h14.52.691,forced_choiceRT,2021.1.2,MacIntel,59.99160118,,,,,,,,4,Ontime,h,1,2.0527,9,1,37,2,1,,,,,
,1.98,,,,,,,,,j.PNG,j,61589a4cf5deaf0be63bf31e,2021-10-19_19h14.52.691,forced_choiceRT,2021.1.2,MacIntel,59.99160118,,,,,,,,4,Slow,j,1,2.5484,9,2,38,3,1,,,,,
,1.09,,,,,,,,,h.PNG,h,61589a4cf5deaf0be63bf31e,2021-10-19_19h14.52.691,forced_choiceRT,2021.1.2,MacIntel,59.99160118,,,,,,,,4,Fast,h,1,1.8456,9,3,39,2,1,,,,,
,,,,,,,,,,,,61589a4cf5deaf0be63bf31e,2021-10-19_19h14.52.691,forced_choiceRT,2021.1.2,MacIntel,59.99160118,,,,,,,,,,,,,,,,,,3,0,3,0,1
,1.76,,,,,,,,,j.PNG,j,61589a4cf5deaf0be63bf31e,2021-10-19_19h14.52.691,forced_choiceRT,2021.1.2,MacIntel,59.99160118,,,,,,,,5,Slow,j,1,2.4128,0,0,0,3,1,,,,,
,1.85,,,,,,,,,g.PNG,g,61589a4cf5deaf0be63bf31e,2021-10-19_19h14.52.691,forced_choiceRT,2021.1.2,MacIntel,59.99160118,,,,,,,,5,Slow,g,1,2.3815,0,1,1,1,1,,,,,
,1.17,,,,,,,,,g.PNG,g,61589a4cf5deaf0be63bf31e,2021-10-19_19h14.52.691,forced_choiceRT,2021.1.2,MacIntel,59.99160118,,,,,,,,5,Ontime,g,1,1.9563,0,2,2,1,1,,,,,
,1.37,,,,,,,,,h.PNG,h,61589a4cf5deaf0be63bf31e,2021-10-19_19h14.52.691,forced_choiceRT,2021.1.2,MacIntel,59.99160118,,,,,,,,5,Slow,h,1,2.1828,0,3,3,2,1,,,,,
,0.84,,,,,,,,,h.PNG,h,61589a4cf5deaf0be63bf31e,2021-10-19_19h14.52.691,forced_choiceRT,2021.1.2,MacIntel,59.99160118,,,,,,,,5,Ontime,h,1,2.0653,1,0,4,2,1,,,,,
,1.77,,,,,,,,,j.PNG,j,61589a4cf5deaf0be63bf31e,2021-10-19_19h14.52.691,forced_choiceRT,2021.1.2,MacIntel,59.99160118,,,,,,,,5,Slow,j,1,2.1575,1,1,5,3,1,,,,,
,1.45,,,,,,,,,f.PNG,f,61589a4cf5deaf0be63bf31e,2021-10-19_19h14.52.691,forced_choiceRT,2021.1.2,MacIntel,59.99160118,,,,,,,,5,Ontime,f,1,2.0622,1,2,6,0,1,,,,,
,0.17,,,,,,,,,h.PNG,h,61589a4cf5deaf0be63bf31e,2021-10-19_19h14.52.691,forced_choiceRT,2021.1.2,MacIntel,59.99160118,,,,,,,,5,Fast,h,1,1.8979,1,3,7,2,1,,,,,
,1.52,,,,,,,,,g.PNG,g,61589a4cf5deaf0be63bf31e,2021-10-19_19h14.52.691,forced_choiceRT,2021.1.2,MacIntel,59.99160118,,,,,,,,5,Slow,g,1,2.291,2,0,8,1,1,,,,,
,0.73,,,,,,,,,h.PNG,h,61589a4cf5deaf0be63bf31e,2021-10-19_19h14.52.691,forced_choiceRT,2021.1.2,MacIntel,59.99160118,,,,,,,,5,Ontime,h,1,1.9789,2,1,9,2,1,,,,,
,1.13,,,,,,,,,j.PNG,j,61589a4cf5deaf0be63bf31e,2021-10-19_19h14.52.691,forced_choiceRT,2021.1.2,MacIntel,59.99160118,,,,,,,,5,Fast,j,1,1.8403,2,2,10,3,1,,,,,
,0.63,,,,,,,,,j.PNG,j,61589a4cf5deaf0be63bf31e,2021-10-19_19h14.52.691,forced_choiceRT,2021.1.2,MacIntel,59.99160118,,,,,,,,5,Slow,j,1,2.1614,2,3,11,3,1,,,,,
,1.48,,,,,,,,,f.PNG,f,61589a4cf5deaf0be63bf31e,2021-10-19_19h14.52.691,forced_choiceRT,2021.1.2,MacIntel,59.99160118,,,,,,,,5,Slow,f,1,2.2915,3,0,12,0,1,,,,,
,1.66,,,,,,,,,j.PNG,j,61589a4cf5deaf0be63bf31e,2021-10-19_19h14.52.691,forced_choiceRT,2021.1.2,MacIntel,59.99160118,,,,,,,,5,Slow,j,1,2.2254,3,1,13,3,1,,,,,
,1.41,,,,,,,,,g.PNG,g,61589a4cf5deaf0be63bf31e,2021-10-19_19h14.52.691,forced_choiceRT,2021.1.2,MacIntel,59.99160118,,,,,,,,5,Slow,g,1,2.2467,3,2,14,1,1,,,,,
,1.34,,,,,,,,,h.PNG,h,61589a4cf5deaf0be63bf31e,2021-10-19_19h14.52.691,forced_choiceRT,2021.1.2,MacIntel,59.99160118,,,,,,,,5,Slow,j,0,2.2495,3,3,15,2,1,,,,,
,0.11,,,,,,,,,f.PNG,f,61589a4cf5deaf0be63bf31e,2021-10-19_19h14.52.691,forced_choiceRT,2021.1.2,MacIntel,59.99160118,,,,,,,,5,Ontime,f,1,2.0756,4,0,16,0,1,,,,,
,1.77,,,,,,,,,j.PNG,j,61589a4cf5deaf0be63bf31e,2021-10-19_19h14.52.691,forced_choiceRT,2021.1.2,MacIntel,59.99160118,,,,,,,,5,Slow,h,0,2.5016,4,1,17,3,1,,,,,
,1,,,,,,,,,f.PNG,f,61589a4cf5deaf0be63bf31e,2021-10-19_19h14.52.691,forced_choiceRT,2021.1.2,MacIntel,59.99160118,,,,,,,,5,Ontime,f,1,1.9586,4,2,18,0,1,,,,,
,0.82,,,,,,,,,f.PNG,f,61589a4cf5deaf0be63bf31e,2021-10-19_19h14.52.691,forced_choiceRT,2021.1.2,MacIntel,59.99160118,,,,,,,,5,Ontime,f,1,2.0578,4,3,19,0,1,,,,,
,0.54,,,,,,,,,g.PNG,g,61589a4cf5deaf0be63bf31e,2021-10-19_19h14.52.691,forced_choiceRT,2021.1.2,MacIntel,59.99160118,,,,,,,,5,Slow,g,1,2.1213,5,0,20,1,1,,,,,
,1.18,,,,,,,,,f.PNG,f,61589a4cf5deaf0be63bf31e,2021-10-19_19h14.52.691,forced_choiceRT,2021.1.2,MacIntel,59.99160118,,,,,,,,5,Ontime,f,1,2.0672,5,1,21,0,1,,,,,
,1.49,,,,,,,,,f.PNG,f,61589a4cf5deaf0be63bf31e,2021-10-19_19h14.52.691,forced_choiceRT,2021.1.2,MacIntel,59.99160118,,,,,,,,5,Slow,f,1,2.1319,5,2,22,0,1,,,,,
,1.41,,,,,,,,,g.PNG,g,61589a4cf5deaf0be63bf31e,2021-10-19_19h14.52.691,forced_choiceRT,2021.1.2,MacIntel,59.99160118,,,,,,,,5,Slow,g,1,2.1674,5,3,23,1,1,,,,,
,0.04,,,,,,,,,g.PNG,g,61589a4cf5deaf0be63bf31e,2021-10-19_19h14.52.691,forced_choiceRT,2021.1.2,MacIntel,59.99160118,,,,,,,,5,Ontime,g,1,1.9798,6,0,24,1,1,,,,,
,0.54,,,,,,,,,j.PNG,j,61589a4cf5deaf0be63bf31e,2021-10-19_19h14.52.691,forced_choiceRT,2021.1.2,MacIntel,59.99160118,,,,,,,,5,Fast,j,1,1.8347,6,1,25,3,1,,,,,
,1.35,,,,,,,,,h.PNG,h,61589a4cf5deaf0be63bf31e,2021-10-19_19h14.52.691,forced_choiceRT,2021.1.2,MacIntel,59.99160118,,,,,,,,5,Slow,h,1,2.2256,6,2,26,2,1,,,,,
,0.99,,,,,,,,,g.PNG,g,61589a4cf5deaf0be63bf31e,2021-10-19_19h14.52.691,forced_choiceRT,2021.1.2,MacIntel,59.99160118,,,,,,,,5,Slow,g,1,2.1031,6,3,27,1,1,,,,,
,1.25,,,,,,,,,f.PNG,f,61589a4cf5deaf0be63bf31e,2021-10-19_19h14.52.691,forced_choiceRT,2021.1.2,MacIntel,59.99160118,,,,,,,,5,Ontime,f,1,2.03,7,0,28,0,1,,,,,
,0.96,,,,,,,,,h.PNG,h,61589a4cf5deaf0be63bf31e,2021-10-19_19h14.52.691,forced_choiceRT,2021.1.2,MacIntel,59.99160118,,,,,,,,5,Fast,h,1,1.8892,7,1,29,2,1,,,,,
,1.99,,,,,,,,,j.PNG,j,61589a4cf5deaf0be63bf31e,2021-10-19_19h14.52.691,forced_choiceRT,2021.1.2,MacIntel,59.99160118,,,,,,,,5,Slow,j,1,2.5298,7,2,30,3,1,,,,,
,0.43,,,,,,,,,j.PNG,j,61589a4cf5deaf0be63bf31e,2021-10-19_19h14.52.691,forced_choiceRT,2021.1.2,MacIntel,59.99160118,,,,,,,,5,Slow,j,1,2.2018,7,3,31,3,1,,,,,
,1.04,,,,,,,,,f.PNG,f,61589a4cf5deaf0be63bf31e,2021-10-19_19h14.52.691,forced_choiceRT,2021.1.2,MacIntel,59.99160118,,,,,,,,5,Fast,f,1,1.8089,8,0,32,0,1,,,,,
,1.13,,,,,,,,,j.PNG,j,61589a4cf5deaf0be63bf31e,2021-10-19_19h14.52.691,forced_choiceRT,2021.1.2,MacIntel,59.99160118,,,,,,,,5,Fast,j,1,1.8759,8,1,33,3,1,,,,,
,0.91,,,,,,,,,h.PNG,h,61589a4cf5deaf0be63bf31e,2021-10-19_19h14.52.691,forced_choiceRT,2021.1.2,MacIntel,59.99160118,,,,,,,,5,Ontime,h,1,2.0049,8,2,34,2,1,,,,,
,1.29,,,,,,,,,h.PNG,h,61589a4cf5deaf0be63bf31e,2021-10-19_19h14.52.691,forced_choiceRT,2021.1.2,MacIntel,59.99160118,,,,,,,,5,Slow,h,1,2.1255,8,3,35,2,1,,,,,
,0.54,,,,,,,,,h.PNG,h,61589a4cf5deaf0be63bf31e,2021-10-19_19h14.52.691,forced_choiceRT,2021.1.2,MacIntel,59.99160118,,,,,,,,5,Slow,h,1,2.1642,9,0,36,2,1,,,,,
,0.93,,,,,,,,,g.PNG,g,61589a4cf5deaf0be63bf31e,2021-10-19_19h14.52.691,forced_choiceRT,2021.1.2,MacIntel,59.99160118,,,,,,,,5,Ontime,g,1,1.9161,9,1,37,1,1,,,,,
,0.22,,,,,,,,,g.PNG,g,61589a4cf5deaf0be63bf31e,2021-10-19_19h14.52.691,forced_choiceRT,2021.1.2,MacIntel,59.99160118,,,,,,,,5,Ontime,g,1,2.0677,9,2,38,1,1,,,,,
,0.25,,,,,,,,,f.PNG,f,61589a4cf5deaf0be63bf31e,2021-10-19_19h14.52.691,forced_choiceRT,2021.1.2,MacIntel,59.99160118,,,,,,,,5,Ontime,f,1,2.0005,9,3,39,0,1,,,,,
,,,,,,,,,,,,61589a4cf5deaf0be63bf31e,2021-10-19_19h14.52.691,forced_choiceRT,2021.1.2,MacIntel,59.99160118,,,,,,,,,,,,,,,,,,4,0,4,0,1
,1.16,,,,,,,,,j.PNG,j,61589a4cf5deaf0be63bf31e,2021-10-19_19h14.52.691,forced_choiceRT,2021.1.2,MacIntel,59.99160118,,,,,,,,6,Ontime,j,1,2.0271,0,0,0,3,1,,,,,
,0.98,,,,,,,,,h.PNG,h,61589a4cf5deaf0be63bf31e,2021-10-19_19h14.52.691,forced_choiceRT,2021.1.2,MacIntel,59.99160118,,,,,,,,6,Slow,h,1,2.1381,0,1,1,2,1,,,,,
,1.36,,,,,,,,,f.PNG,f,61589a4cf5deaf0be63bf31e,2021-10-19_19h14.52.691,forced_choiceRT,2021.1.2,MacIntel,59.99160118,,,,,,,,6,Ontime,f,1,2.0982,0,2,2,0,1,,,,,
,1.75,,,,,,,,,j.PNG,j,61589a4cf5deaf0be63bf31e,2021-10-19_19h14.52.691,forced_choiceRT,2021.1.2,MacIntel,59.99160118,,,,,,,,6,Slow,j,1,2.153,0,3,3,3,1,,,,,
,0.33,,,,,,,,,g.PNG,g,61589a4cf5deaf0be63bf31e,2021-10-19_19h14.52.691,forced_choiceRT,2021.1.2,MacIntel,59.99160118,,,,,,,,6,Ontime,g,1,2.0371,1,0,4,1,1,,,,,
,0.23,,,,,,,,,g.PNG,g,61589a4cf5deaf0be63bf31e,2021-10-19_19h14.52.691,forced_choiceRT,2021.1.2,MacIntel,59.99160118,,,,,,,,6,Fast,g,1,1.8731,1,1,5,1,1,,,,,
,1.16,,,,,,,,,j.PNG,j,61589a4cf5deaf0be63bf31e,2021-10-19_19h14.52.691,forced_choiceRT,2021.1.2,MacIntel,59.99160118,,,,,,,,6,Ontime,j,1,2.0119,1,2,6,3,1,,,,,
,0.7,,,,,,,,,g.PNG,g,61589a4cf5deaf0be63bf31e,2021-10-19_19h14.52.691,forced_choiceRT,2021.1.2,MacIntel,59.99160118,,,,,,,,6,Ontime,g,1,2.0776,1,3,7,1,1,,,,,
,0.36,,,,,,,,,h.PNG,h,61589a4cf5deaf0be63bf31e,2021-10-19_19h14.52.691,forced_choiceRT,2021.1.2,MacIntel,59.99160118,,,,,,,,6,Ontime,h,1,1.9956,2,0,8,2,1,,,,,
,1.19,,,,,,,,,g.PNG,g,61589a4cf5deaf0be63bf31e,2021-10-19_19h14.52.691,forced_choiceRT,2021.1.2,MacIntel,59.99160118,,,,,,,,6,Slow,g,1,2.1293,2,1,9,1,1,,,,,
,1.12,,,,,,,,,f.PNG,f,61589a4cf5deaf0be63bf31e,2021-10-19_19h14.52.691,forced_choiceRT,2021.1.2,MacIntel,59.99160118,,,,,,,,6,Slow,f,1,2.1929,2,2,10,0,1,,,,,
,1.38,,,,,,,,,j.PNG,j,61589a4cf5deaf0be63bf31e,2021-10-19_19h14.52.691,forced_choiceRT,2021.1.2,MacIntel,59.99160118,,,,,,,,6,Ontime,j,1,2.086,2,3,11,3,1,,,,,
,0.64,,,,,,,,,j.PNG,j,61589a4cf5deaf0be63bf31e,2021-10-19_19h14.52.691,forced_choiceRT,2021.1.2,MacIntel,59.99160118,,,,,,,,6,Ontime,j,1,1.9325,3,0,12,3,1,,,,,
,0.51,,,,,,,,,h.PNG,h,61589a4cf5deaf0be63bf31e,2021-10-19_19h14.52.691,forced_choiceRT,2021.1.2,MacIntel,59.99160118,,,,,,,,6,Slow,h,1,2.2753,3,1,13,2,1,,,,,
,1.09,,,,,,,,,h.PNG,h,61589a4cf5deaf0be63bf31e,2021-10-19_19h14.52.691,forced_choiceRT,2021.1.2,MacIntel,59.99160118,,,,,,,,6,Ontime,h,1,2.0939,3,2,14,2,1,,,,,
,1.43,,,,,,,,,f.PNG,f,61589a4cf5deaf0be63bf31e,2021-10-19_19h14.52.691,forced_choiceRT,2021.1.2,MacIntel,59.99160118,,,,,,,,6,Slow,f,1,2.1317,3,3,15,0,1,,,,,
,0.42,,,,,,,,,h.PNG,h,61589a4cf5deaf0be63bf31e,2021-10-19_19h14.52.691,forced_choiceRT,2021.1.2,MacIntel,59.99160118,,,,,,,,6,Ontime,h,1,2.0653,4,0,16,2,1,,,,,
,1.53,,,,,,,,,f.PNG,f,61589a4cf5deaf0be63bf31e,2021-10-19_19h14.52.691,forced_choiceRT,2021.1.2,MacIntel,59.99160118,,,,,,,,6,Slow,f,1,2.1922,4,1,17,0,1,,,,,
,0.41,,,,,,,,,h.PNG,h,61589a4cf5deaf0be63bf31e,2021-10-19_19h14.52.691,forced_choiceRT,2021.1.2,MacIntel,59.99160118,,,,,,,,6,Ontime,h,1,2.0583,4,2,18,2,1,,,,,
,1.36,,,,,,,,,j.PNG,j,61589a4cf5deaf0be63bf31e,2021-10-19_19h14.52.691,forced_choiceRT,2021.1.2,MacIntel,59.99160118,,,,,,,,6,Slow,j,1,2.1329,4,3,19,3,1,,,,,
,1.72,,,,,,,,,f.PNG,f,61589a4cf5deaf0be63bf31e,2021-10-19_19h14.52.691,forced_choiceRT,2021.1.2,MacIntel,59.99160118,,,,,,,,6,Slow,f,1,2.2463,5,0,20,0,1,,,,,
,0.66,,,,,,,,,g.PNG,g,61589a4cf5deaf0be63bf31e,2021-10-19_19h14.52.691,forced_choiceRT,2021.1.2,MacIntel,59.99160118,,,,,,,,6,Ontime,g,1,2.0565,5,1,21,1,1,,,,,
,1.52,,,,,,,,,g.PNG,g,61589a4cf5deaf0be63bf31e,2021-10-19_19h14.52.691,forced_choiceRT,2021.1.2,MacIntel,59.99160118,,,,,,,,6,Slow,f,0,3.0421,5,2,22,1,1,,,,,
,0.56,,,,,,,,,g.PNG,g,61589a4cf5deaf0be63bf31e,2021-10-19_19h14.52.691,forced_choiceRT,2021.1.2,MacIntel,59.99160118,,,,,,,,6,Ontime,g,1,1.9508,5,3,23,1,1,,,,,
,0.99,,,,,,,,,g.PNG,g,61589a4cf5deaf0be63bf31e,2021-10-19_19h14.52.691,forced_choiceRT,2021.1.2,MacIntel,59.99160118,,,,,,,,6,Ontime,g,1,2.0941,6,0,24,1,1,,,,,
,1.83,,,,,,,,,g.PNG,g,61589a4cf5deaf0be63bf31e,2021-10-19_19h14.52.691,forced_choiceRT,2021.1.2,MacIntel,59.99160118,,,,,,,,6,Ontime,j,0,1.954,6,1,25,1,1,,,,,
,1.45,,,,,,,,,h.PNG,h,61589a4cf5deaf0be63bf31e,2021-10-19_19h14.52.691,forced_choiceRT,2021.1.2,MacIntel,59.99160118,,,,,,,,6,Fast,j,0,1.8475,6,2,26,2,1,,,,,
,0.41,,,,,,,,,g.PNG,g,61589a4cf5deaf0be63bf31e,2021-10-19_19h14.52.691,forced_choiceRT,2021.1.2,MacIntel,59.99160118,,,,,,,,6,Ontime,g,1,2.0439,6,3,27,1,1,,,,,
,1.67,,,,,,,,,j.PNG,j,61589a4cf5deaf0be63bf31e,2021-10-19_19h14.52.691,forced_choiceRT,2021.1.2,MacIntel,59.99160118,,,,,,,,6,Ontime,g,0,2.0859,7,0,28,3,1,,,,,
,1.9,,,,,,,,,h.PNG,h,61589a4cf5deaf0be63bf31e,2021-10-19_19h14.52.691,forced_choiceRT,2021.1.2,MacIntel,59.99160118,,,,,,,,6,Fast,j,0,1.8337,7,1,29,2,1,,,,,
,1.68,,,,,,,,,f.PNG,f,61589a4cf5deaf0be63bf31e,2021-10-19_19h14.52.691,forced_choiceRT,2021.1.2,MacIntel,59.99160118,,,,,,,,6,Ontime,j,0,2.0924,7,2,30,0,1,,,,,
,1.19,,,,,,,,,f.PNG,f,61589a4cf5deaf0be63bf31e,2021-10-19_19h14.52.691,forced_choiceRT,2021.1.2,MacIntel,59.99160118,,,,,,,,6,Ontime,f,1,2.0334,7,3,31,0,1,,,,,
,1.45,,,,,,,,,j.PNG,j,61589a4cf5deaf0be63bf31e,2021-10-19_19h14.52.691,forced_choiceRT,2021.1.2,MacIntel,59.99160118,,,,,,,,6,Slow,j,1,2.168,8,0,32,3,1,,,,,
,1.07,,,,,,,,,f.PNG,f,61589a4cf5deaf0be63bf31e,2021-10-19_19h14.52.691,forced_choiceRT,2021.1.2,MacIntel,59.99160118,,,,,,,,6,Fast,f,1,1.8865,8,1,33,0,1,,,,,
,0.91,,,,,,,,,f.PNG,f,61589a4cf5deaf0be63bf31e,2021-10-19_19h14.52.691,forced_choiceRT,2021.1.2,MacIntel,59.99160118,,,,,,,,6,Ontime,f,1,2.0758,8,2,34,0,1,,,,,
,0.34,,,,,,,,,f.PNG,f,61589a4cf5deaf0be63bf31e,2021-10-19_19h14.52.691,forced_choiceRT,2021.1.2,MacIntel,59.99160118,,,,,,,,6,Ontime,f,1,2.0323,8,3,35,0,1,,,,,
,0.86,,,,,,,,,j.PNG,j,61589a4cf5deaf0be63bf31e,2021-10-19_19h14.52.691,forced_choiceRT,2021.1.2,MacIntel,59.99160118,,,,,,,,6,Ontime,j,1,2.0671,9,0,36,3,1,,,,,
,0.48,,,,,,,,,h.PNG,h,61589a4cf5deaf0be63bf31e,2021-10-19_19h14.52.691,forced_choiceRT,2021.1.2,MacIntel,59.99160118,,,,,,,,6,Slow,h,1,2.1159,9,1,37,2,1,,,,,
,1.2,,,,,,,,,h.PNG,h,61589a4cf5deaf0be63bf31e,2021-10-19_19h14.52.691,forced_choiceRT,2021.1.2,MacIntel,59.99160118,,,,,,,,6,Slow,h,1,2.2501,9,2,38,2,1,,,,,
,1.99,,,,,,,,,j.PNG,j,61589a4cf5deaf0be63bf31e,2021-10-19_19h14.52.691,forced_choiceRT,2021.1.2,MacIntel,59.99160118,,,,,,,,6,Ontime,j,1,2.0567,9,3,39,3,1,,,,,
,,,,,,,,,,,,61589a4cf5deaf0be63bf31e,2021-10-19_19h14.52.691,forced_choiceRT,2021.1.2,MacIntel,59.99160118,,,,,,,,,,,,,,,,,,5,0,5,0,1
,1.68,,,,,,,,,j.PNG,j,61589a4cf5deaf0be63bf31e,2021-10-19_19h14.52.691,forced_choiceRT,2021.1.2,MacIntel,59.99160118,,,,,,,,7,Ontime,j,1,2.0349,0,0,0,3,1,,,,,
,1.33,,,,,,,,,h.PNG,h,61589a4cf5deaf0be63bf31e,2021-10-19_19h14.52.691,forced_choiceRT,2021.1.2,MacIntel,59.99160118,,,,,,,,7,Fast,f,0,1.7146,0,1,1,2,1,,,,,
,1.96,,,,,,,,,g.PNG,g,61589a4cf5deaf0be63bf31e,2021-10-19_19h14.52.691,forced_choiceRT,2021.1.2,MacIntel,59.99160118,,,,,,,,7,Ontime,h,0,2.0658,0,2,2,1,1,,,,,
,0.45,,,,,,,,,f.PNG,f,61589a4cf5deaf0be63bf31e,2021-10-19_19h14.52.691,forced_choiceRT,2021.1.2,MacIntel,59.99160118,,,,,,,,7,Ontime,f,1,1.9178,0,3,3,0,1,,,,,
,0.14,,,,,,,,,h.PNG,h,61589a4cf5deaf0be63bf31e,2021-10-19_19h14.52.691,forced_choiceRT,2021.1.2,MacIntel,59.99160118,,,,,,,,7,Ontime,h,1,2.0148,1,0,4,2,1,,,,,
,0.67,,,,,,,,,j.PNG,j,61589a4cf5deaf0be63bf31e,2021-10-19_19h14.52.691,forced_choiceRT,2021.1.2,MacIntel,59.99160118,,,,,,,,7,Slow,j,1,2.1017,1,1,5,3,1,,,,,
,0.89,,,,,,,,,f.PNG,f,61589a4cf5deaf0be63bf31e,2021-10-19_19h14.52.691,forced_choiceRT,2021.1.2,MacIntel,59.99160118,,,,,,,,7,Ontime,f,1,2.0784,1,2,6,0,1,,,,,
,1.29,,,,,,,,,f.PNG,f,61589a4cf5deaf0be63bf31e,2021-10-19_19h14.52.691,forced_choiceRT,2021.1.2,MacIntel,59.99160118,,,,,,,,7,Slow,f,1,2.1141,1,3,7,0,1,,,,,
,1.37,,,,,,,,,g.PNG,g,61589a4cf5deaf0be63bf31e,2021-10-19_19h14.52.691,forced_choiceRT,2021.1.2,MacIntel,59.99160118,,,,,,,,7,Slow,g,1,2.2518,2,0,8,1,1,,,,,
,1.26,,,,,,,,,g.PNG,g,61589a4cf5deaf0be63bf31e,2021-10-19_19h14.52.691,forced_choiceRT,2021.1.2,MacIntel,59.99160118,,,,,,,,7,Slow,g,1,2.2496,2,1,9,1,1,,,,,
,0.34,,,,,,,,,j.PNG,j,61589a4cf5deaf0be63bf31e,2021-10-19_19h14.52.691,forced_choiceRT,2021.1.2,MacIntel,59.99160118,,,,,,,,7,Ontime,j,1,2.0207,2,2,10,3,1,,,,,
,1.64,,,,,,,,,g.PNG,g,61589a4cf5deaf0be63bf31e,2021-10-19_19h14.52.691,forced_choiceRT,2021.1.2,MacIntel,59.99160118,,,,,,,,7,Fast,h,0,1.8968,2,3,11,1,1,,,,,
,0.2,,,,,,,,,h.PNG,h,61589a4cf5deaf0be63bf31e,2021-10-19_19h14.52.691,forced_choiceRT,2021.1.2,MacIntel,59.99160118,,,,,,,,7,Ontime,h,1,2.0867,3,0,12,2,1,,,,,
,0.98,,,,,,,,,f.PNG,f,61589a4cf5deaf0be63bf31e,2021-10-19_19h14.52.691,forced_choiceRT,2021.1.2,MacIntel,59.99160118,,,,,,,,7,Ontime,f,1,1.9652,3,1,13,0,1,,,,,
,1.81,,,,,,,,,f.PNG,f,61589a4cf5deaf0be63bf31e,2021-10-19_19h14.52.691,forced_choiceRT,2021.1.2,MacIntel,59.99160118,,,,,,,,7,Slow,g,0,2.114,3,2,14,0,1,,,,,
,1.46,,,,,,,,,j.PNG,j,61589a4cf5deaf0be63bf31e,2021-10-19_19h14.52.691,forced_choiceRT,2021.1.2,MacIntel,59.99160118,,,,,,,,7,Slow,j,1,2.1995,3,3,15,3,1,,,,,
,1.01,,,,,,,,,g.PNG,g,61589a4cf5deaf0be63bf31e,2021-10-19_19h14.52.691,forced_choiceRT,2021.1.2,MacIntel,59.99160118,,,,,,,,7,Ontime,g,1,1.9993,4,0,16,1,1,,,,,
,1.9,,,,,,,,,j.PNG,j,61589a4cf5deaf0be63bf31e,2021-10-19_19h14.52.691,forced_choiceRT,2021.1.2,MacIntel,59.99160118,,,,,,,,7,Slow,j,1,2.2273,4,1,17,3,1,,,,,
,1.44,,,,,,,,,j.PNG,j,61589a4cf5deaf0be63bf31e,2021-10-19_19h14.52.691,forced_choiceRT,2021.1.2,MacIntel,59.99160118,,,,,,,,7,Ontime,j,1,2.0373,4,2,18,3,1,,,,,
,1.66,,,,,,,,,g.PNG,g,61589a4cf5deaf0be63bf31e,2021-10-19_19h14.52.691,forced_choiceRT,2021.1.2,MacIntel,59.99160118,,,,,,,,7,Fast,g,1,1.7922,4,3,19,1,1,,,,,
,0.55,,,,,,,,,f.PNG,f,61589a4cf5deaf0be63bf31e,2021-10-19_19h14.52.691,forced_choiceRT,2021.1.2,MacIntel,59.99160118,,,,,,,,7,Fast,f,1,1.8203,5,0,20,0,1,,,,,
,0.95,,,,,,,,,h.PNG,h,61589a4cf5deaf0be63bf31e,2021-10-19_19h14.52.691,forced_choiceRT,2021.1.2,MacIntel,59.99160118,,,,,,,,7,Fast,h,1,1.8139,5,1,21,2,1,,,,,
,1.91,,,,,,,,,h.PNG,h,61589a4cf5deaf0be63bf31e,2021-10-19_19h14.52.691,forced_choiceRT,2021.1.2,MacIntel,59.99160118,,,,,,,,7,Slow,j,0,2.1494,5,2,22,2,1,,,,,
,1.84,,,,,,,,,h.PNG,h,61589a4cf5deaf0be63bf31e,2021-10-19_19h14.52.691,forced_choiceRT,2021.1.2,MacIntel,59.99160118,,,,,,,,7,Ontime,j,0,1.9991,5,3,23,2,1,,,,,
,0.89,,,,,,,,,g.PNG,g,61589a4cf5deaf0be63bf31e,2021-10-19_19h14.52.691,forced_choiceRT,2021.1.2,MacIntel,59.99160118,,,,,,,,7,Slow,g,1,2.1842,6,0,24,1,1,,,,,
,0.56,,,,,,,,,j.PNG,j,61589a4cf5deaf0be63bf31e,2021-10-19_19h14.52.691,forced_choiceRT,2021.1.2,MacIntel,59.99160118,,,,,,,,7,Ontime,j,1,2.0639,6,1,25,3,1,,,,,
,0.66,,,,,,,,,h.PNG,h,61589a4cf5deaf0be63bf31e,2021-10-19_19h14.52.691,forced_choiceRT,2021.1.2,MacIntel,59.99160118,,,,,,,,7,Ontime,h,1,2.0831,6,2,26,2,1,,,,,
,0.16,,,,,,,,,j.PNG,j,61589a4cf5deaf0be63bf31e,2021-10-19_19h14.52.691,forced_choiceRT,2021.1.2,MacIntel,59.99160118,,,,,,,,7,Fast,j,1,1.8619,6,3,27,3,1,,,,,
,1.1,,,,,,,,,f.PNG,f,61589a4cf5deaf0be63bf31e,2021-10-19_19h14.52.691,forced_choiceRT,2021.1.2,MacIntel,59.99160118,,,,,,,,7,Ontime,f,1,1.9178,7,0,28,0,1,,,,,
,0.31,,,,,,,,,j.PNG,j,61589a4cf5deaf0be63bf31e,2021-10-19_19h14.52.691,forced_choiceRT,2021.1.2,MacIntel,59.99160118,,,,,,,,7,Ontime,j,1,2.0521,7,1,29,3,1,,,,,
,1.26,,,,,,,,,h.PNG,h,61589a4cf5deaf0be63bf31e,2021-10-19_19h14.52.691,forced_choiceRT,2021.1.2,MacIntel,59.99160118,,,,,,,,7,Slow,h,1,2.1414,7,2,30,2,1,,,,,
,0.97,,,,,,,,,g.PNG,g,61589a4cf5deaf0be63bf31e,2021-10-19_19h14.52.691,forced_choiceRT,2021.1.2,MacIntel,59.99160118,,,,,,,,7,Ontime,g,1,1.9824,7,3,31,1,1,,,,,
,0.31,,,,,,,,,f.PNG,f,61589a4cf5deaf0be63bf31e,2021-10-19_19h14.52.691,forced_choiceRT,2021.1.2,MacIntel,59.99160118,,,,,,,,7,Fast,f,1,1.8499,8,0,32,0,1,,,,,
,1.71,,,,,,,,,f.PNG,f,61589a4cf5deaf0be63bf31e,2021-10-19_19h14.52.691,forced_choiceRT,2021.1.2,MacIntel,59.99160118,,,,,,,,7,Ontime,g,0,2.0208,8,1,33,0,1,,,,,
,1.5,,,,,,,,,g.PNG,g,61589a4cf5deaf0be63bf31e,2021-10-19_19h14.52.691,forced_choiceRT,2021.1.2,MacIntel,59.99160118,,,,,,,,7,Slow,g,1,2.2909,8,2,34,1,1,,,,,
,0.02,,,,,,,,,h.PNG,h,61589a4cf5deaf0be63bf31e,2021-10-19_19h14.52.691,forced_choiceRT,2021.1.2,MacIntel,59.99160118,,,,,,,,7,Ontime,h,1,1.9358,8,3,35,2,1,,,,,
,1.77,,,,,,,,,h.PNG,h,61589a4cf5deaf0be63bf31e,2021-10-19_19h14.52.691,forced_choiceRT,2021.1.2,MacIntel,59.99160118,,,,,,,,7,Slow,j,0,2.2163,9,0,36,2,1,,,,,
,1.96,,,,,,,,,g.PNG,g,61589a4cf5deaf0be63bf31e,2021-10-19_19h14.52.691,forced_choiceRT,2021.1.2,MacIntel,59.99160118,,,,,,,,7,Slow,g,1,2.2337,9,1,37,1,1,,,,,
,0.55,,,,,,,,,f.PNG,f,61589a4cf5deaf0be63bf31e,2021-10-19_19h14.52.691,forced_choiceRT,2021.1.2,MacIntel,59.99160118,,,,,,,,7,Ontime,f,1,2.0341,9,2,38,0,1,,,,,
,1.52,,,,,,,,,j.PNG,j,61589a4cf5deaf0be63bf31e,2021-10-19_19h14.52.691,forced_choiceRT,2021.1.2,MacIntel,59.99160118,,,,,,,,7,Slow,j,1,2.1734,9,3,39,3,1,,,,,
,,,,,,,,,,,,61589a4cf5deaf0be63bf31e,2021-10-19_19h14.52.691,forced_choiceRT,2021.1.2,MacIntel,59.99160118,,,,,,,,,,,,,,,,,,6,0,6,0,1
,1.19,,,,,,,,,h.PNG,h,61589a4cf5deaf0be63bf31e,2021-10-19_19h14.52.691,forced_choiceRT,2021.1.2,MacIntel,59.99160118,,,,,,,,8,Ontime,h,1,1.9817,0,0,0,2,1,,,,,
,0.14,,,,,,,,,h.PNG,h,61589a4cf5deaf0be63bf31e,2021-10-19_19h14.52.691,forced_choiceRT,2021.1.2,MacIntel,59.99160118,,,,,,,,8,Ontime,h,1,2.0383,0,1,1,2,1,,,,,
,1.13,,,,,,,,,f.PNG,f,61589a4cf5deaf0be63bf31e,2021-10-19_19h14.52.691,forced_choiceRT,2021.1.2,MacIntel,59.99160118,,,,,,,,8,Ontime,f,1,1.9299,0,2,2,0,1,,,,,
,1.93,,,,,,,,,g.PNG,g,61589a4cf5deaf0be63bf31e,2021-10-19_19h14.52.691,forced_choiceRT,2021.1.2,MacIntel,59.99160118,,,,,,,,8,Slow,j,0,2.2077,0,3,3,1,1,,,,,
,1.3,,,,,,,,,g.PNG,g,61589a4cf5deaf0be63bf31e,2021-10-19_19h14.52.691,forced_choiceRT,2021.1.2,MacIntel,59.99160118,,,,,,,,8,Ontime,g,1,2.0985,1,0,4,1,1,,,,,
,1.02,,,,,,,,,g.PNG,g,61589a4cf5deaf0be63bf31e,2021-10-19_19h14.52.691,forced_choiceRT,2021.1.2,MacIntel,59.99160118,,,,,,,,8,Ontime,g,1,1.959,1,1,5,1,1,,,,,
,1.62,,,,,,,,,j.PNG,j,61589a4cf5deaf0be63bf31e,2021-10-19_19h14.52.691,forced_choiceRT,2021.1.2,MacIntel,59.99160118,,,,,,,,8,Slow,j,1,2.2471,1,2,6,3,1,,,,,
,0.42,,,,,,,,,g.PNG,g,61589a4cf5deaf0be63bf31e,2021-10-19_19h14.52.691,forced_choiceRT,2021.1.2,MacIntel,59.99160118,,,,,,,,8,Slow,g,1,2.2879,1,3,7,1,1,,,,,
,1.14,,,,,,,,,h.PNG,h,61589a4cf5deaf0be63bf31e,2021-10-19_19h14.52.691,forced_choiceRT,2021.1.2,MacIntel,59.99160118,,,,,,,,8,Slow,h,1,2.1509,2,0,8,2,1,,,,,
,0.73,,,,,,,,,j.PNG,j,61589a4cf5deaf0be63bf31e,2021-10-19_19h14.52.691,forced_choiceRT,2021.1.2,MacIntel,59.99160118,,,,,,,,8,Ontime,j,1,1.9372,2,1,9,3,1,,,,,
,1.32,,,,,,,,,h.PNG,h,61589a4cf5deaf0be63bf31e,2021-10-19_19h14.52.691,forced_choiceRT,2021.1.2,MacIntel,59.99160118,,,,,,,,8,Slow,h,1,2.104,2,2,10,2,1,,,,,
,0.39,,,,,,,,,j.PNG,j,61589a4cf5deaf0be63bf31e,2021-10-19_19h14.52.691,forced_choiceRT,2021.1.2,MacIntel,59.99160118,,,,,,,,8,Fast,j,1,1.8748,2,3,11,3,1,,,,,
,0.23,,,,,,,,,h.PNG,h,61589a4cf5deaf0be63bf31e,2021-10-19_19h14.52.691,forced_choiceRT,2021.1.2,MacIntel,59.99160118,,,,,,,,8,Slow,h,1,2.1151,3,0,12,2,1,,,,,
,0.04,,,,,,,,,h.PNG,h,61589a4cf5deaf0be63bf31e,2021-10-19_19h14.52.691,forced_choiceRT,2021.1.2,MacIntel,59.99160118,,,,,,,,8,Ontime,h,1,2.0009,3,1,13,2,1,,,,,
,1.06,,,,,,,,,g.PNG,g,61589a4cf5deaf0be63bf31e,2021-10-19_19h14.52.691,forced_choiceRT,2021.1.2,MacIntel,59.99160118,,,,,,,,8,Slow,g,1,2.1006,3,2,14,1,1,,,,,
,1.23,,,,,,,,,f.PNG,f,61589a4cf5deaf0be63bf31e,2021-10-19_19h14.52.691,forced_choiceRT,2021.1.2,MacIntel,59.99160118,,,,,,,,8,Ontime,f,1,1.9818,3,3,15,0,1,,,,,
,1.85,,,,,,,,,h.PNG,h,61589a4cf5deaf0be63bf31e,2021-10-19_19h14.52.691,forced_choiceRT,2021.1.2,MacIntel,59.99160118,,,,,,,,8,Slow,h,1,2.47,4,0,16,2,1,,,,,
,0.07,,,,,,,,,f.PNG,f,61589a4cf5deaf0be63bf31e,2021-10-19_19h14.52.691,forced_choiceRT,2021.1.2,MacIntel,59.99160118,,,,,,,,8,Fast,f,1,1.8867,4,1,17,0,1,,,,,
,1.23,,,,,,,,,g.PNG,g,61589a4cf5deaf0be63bf31e,2021-10-19_19h14.52.691,forced_choiceRT,2021.1.2,MacIntel,59.99160118,,,,,,,,8,Ontime,f,0,1.9478,4,2,18,1,1,,,,,
,1.01,,,,,,,,,j.PNG,j,61589a4cf5deaf0be63bf31e,2021-10-19_19h14.52.691,forced_choiceRT,2021.1.2,MacIntel,59.99160118,,,,,,,,8,Ontime,j,1,2.0194,4,3,19,3,1,,,,,
,1.25,,,,,,,,,f.PNG,f,61589a4cf5deaf0be63bf31e,2021-10-19_19h14.52.691,forced_choiceRT,2021.1.2,MacIntel,59.99160118,,,,,,,,8,Ontime,f,1,2.0543,5,0,20,0,1,,,,,
,0.71,,,,,,,,,g.PNG,g,61589a4cf5deaf0be63bf31e,2021-10-19_19h14.52.691,forced_choiceRT,2021.1.2,MacIntel,59.99160118,,,,,,,,8,Fast,g,1,1.8269,5,1,21,1,1,,,,,
,0.76,,,,,,,,,j.PNG,j,61589a4cf5deaf0be63bf31e,2021-10-19_19h14.52.691,forced_choiceRT,2021.1.2,MacIntel,59.99160118,,,,,,,,8,Ontime,j,1,2.032,5,2,22,3,1,,,,,
,1.18,,,,,,,,,g.PNG,g,61589a4cf5deaf0be63bf31e,2021-10-19_19h14.52.691,forced_choiceRT,2021.1.2,MacIntel,59.99160118,,,,,,,,8,Slow,g,1,2.1521,5,3,23,1,1,,,,,
,1.16,,,,,,,,,g.PNG,g,61589a4cf5deaf0be63bf31e,2021-10-19_19h14.52.691,forced_choiceRT,2021.1.2,MacIntel,59.99160118,,,,,,,,8,Ontime,g,1,2.0348,6,0,24,1,1,,,,,
,0.46,,,,,,,,,j.PNG,j,61589a4cf5deaf0be63bf31e,2021-10-19_19h14.52.691,forced_choiceRT,2021.1.2,MacIntel,59.99160118,,,,,,,,8,Ontime,j,1,2.0434,6,1,25,3,1,,,,,
,1.63,,,,,,,,,f.PNG,f,61589a4cf5deaf0be63bf31e,2021-10-19_19h14.52.691,forced_choiceRT,2021.1.2,MacIntel,59.99160118,,,,,,,,8,Slow,f,1,2.2007,6,2,26,0,1,,,,,
,0.74,,,,,,,,,h.PNG,h,61589a4cf5deaf0be63bf31e,2021-10-19_19h14.52.691,forced_choiceRT,2021.1.2,MacIntel,59.99160118,,,,,,,,8,Ontime,j,0,2.02,6,3,27,2,1,,,,,
,1.41,,,,,,,,,j.PNG,j,61589a4cf5deaf0be63bf31e,2021-10-19_19h14.52.691,forced_choiceRT,2021.1.2,MacIntel,59.99160118,,,,,,,,8,Fast,j,1,1.8278,7,0,28,3,1,,,,,
,1.01,,,,,,,,,g.PNG,g,61589a4cf5deaf0be63bf31e,2021-10-19_19h14.52.691,forced_choiceRT,2021.1.2,MacIntel,59.99160118,,,,,,,,8,Ontime,h,0,2.0018,7,1,29,1,1,,,,,
,1.09,,,,,,,,,h.PNG,h,61589a4cf5deaf0be63bf31e,2021-10-19_19h14.52.691,forced_choiceRT,2021.1.2,MacIntel,59.99160118,,,,,,,,8,Slow,h,1,2.2797,7,2,30,2,1,,,,,
,1.63,,,,,,,,,h.PNG,h,61589a4cf5deaf0be63bf31e,2021-10-19_19h14.52.691,forced_choiceRT,2021.1.2,MacIntel,59.99160118,,,,,,,,8,Ontime,j,0,2.019,7,3,31,2,1,,,,,
,0.98,,,,,,,,,f.PNG,f,61589a4cf5deaf0be63bf31e,2021-10-19_19h14.52.691,forced_choiceRT,2021.1.2,MacIntel,59.99160118,,,,,,,,8,Fast,f,1,1.8254,8,0,32,0,1,,,,,
,1.92,,,,,,,,,f.PNG,f,61589a4cf5deaf0be63bf31e,2021-10-19_19h14.52.691,forced_choiceRT,2021.1.2,MacIntel,59.99160118,,,,,,,,8,Slow,j,0,2.1139,8,1,33,0,1,,,,,
,1.28,,,,,,,,,f.PNG,f,61589a4cf5deaf0be63bf31e,2021-10-19_19h14.52.691,forced_choiceRT,2021.1.2,MacIntel,59.99160118,,,,,,,,8,Slow,f,1,2.1938,8,2,34,0,1,,,,,
,1.75,,,,,,,,,j.PNG,j,61589a4cf5deaf0be63bf31e,2021-10-19_19h14.52.691,forced_choiceRT,2021.1.2,MacIntel,59.99160118,,,,,,,,8,Slow,j,1,2.1404,8,3,35,3,1,,,,,
,1.83,,,,,,,,,j.PNG,j,61589a4cf5deaf0be63bf31e,2021-10-19_19h14.52.691,forced_choiceRT,2021.1.2,MacIntel,59.99160118,,,,,,,,8,Ontime,j,1,1.9632,9,0,36,3,1,,,,,
,0.82,,,,,,,,,j.PNG,j,61589a4cf5deaf0be63bf31e,2021-10-19_19h14.52.691,forced_choiceRT,2021.1.2,MacIntel,59.99160118,,,,,,,,8,Fast,j,1,1.8396,9,1,37,3,1,,,,,
,0.56,,,,,,,,,f.PNG,f,61589a4cf5deaf0be63bf31e,2021-10-19_19h14.52.691,forced_choiceRT,2021.1.2,MacIntel,59.99160118,,,,,,,,8,Ontime,f,1,2.0908,9,2,38,0,1,,,,,
,1.72,,,,,,,,,f.PNG,f,61589a4cf5deaf0be63bf31e,2021-10-19_19h14.52.691,forced_choiceRT,2021.1.2,MacIntel,59.99160118,,,,,,,,8,Ontime,j,0,1.9418,9,3,39,0,1,,,,,
,,,,,,,,,,,,61589a4cf5deaf0be63bf31e,2021-10-19_19h14.52.691,forced_choiceRT,2021.1.2,MacIntel,59.99160118,,,,,,,,,,,,,,,,,,7,0,7,0,1
,0.59,,,,,,,,,j.PNG,j,61589a4cf5deaf0be63bf31e,2021-10-19_19h14.52.691,forced_choiceRT,2021.1.2,MacIntel,59.99160118,,,,,,,,9,Ontime,j,1,1.9763,0,0,0,3,1,,,,,
,0.78,,,,,,,,,f.PNG,f,61589a4cf5deaf0be63bf31e,2021-10-19_19h14.52.691,forced_choiceRT,2021.1.2,MacIntel,59.99160118,,,,,,,,9,Ontime,f,1,2.0575,0,1,1,0,1,,,,,
,1.12,,,,,,,,,h.PNG,h,61589a4cf5deaf0be63bf31e,2021-10-19_19h14.52.691,forced_choiceRT,2021.1.2,MacIntel,59.99160118,,,,,,,,9,Slow,h,1,2.2739,0,2,2,2,1,,,,,
,0.91,,,,,,,,,f.PNG,f,61589a4cf5deaf0be63bf31e,2021-10-19_19h14.52.691,forced_choiceRT,2021.1.2,MacIntel,59.99160118,,,,,,,,9,Ontime,f,1,1.9485,0,3,3,0,1,,,,,
,0.64,,,,,,,,,h.PNG,h,61589a4cf5deaf0be63bf31e,2021-10-19_19h14.52.691,forced_choiceRT,2021.1.2,MacIntel,59.99160118,,,,,,,,9,Ontime,h,1,2.0615,1,0,4,2,1,,,,,
,0.35,,,,,,,,,h.PNG,h,61589a4cf5deaf0be63bf31e,2021-10-19_19h14.52.691,forced_choiceRT,2021.1.2,MacIntel,59.99160118,,,,,,,,9,Ontime,h,1,1.9977,1,1,5,2,1,,,,,
,0.69,,,,,,,,,f.PNG,f,61589a4cf5deaf0be63bf31e,2021-10-19_19h14.52.691,forced_choiceRT,2021.1.2,MacIntel,59.99160118,,,,,,,,9,Fast,f,1,1.8634,1,2,6,0,1,,,,,
,1.34,,,,,,,,,j.PNG,j,61589a4cf5deaf0be63bf31e,2021-10-19_19h14.52.691,forced_choiceRT,2021.1.2,MacIntel,59.99160118,,,,,,,,9,Slow,j,1,2.2372,1,3,7,3,1,,,,,
,0.65,,,,,,,,,j.PNG,j,61589a4cf5deaf0be63bf31e,2021-10-19_19h14.52.691,forced_choiceRT,2021.1.2,MacIntel,59.99160118,,,,,,,,9,Ontime,j,1,2.0421,2,0,8,3,1,,,,,
,0.55,,,,,,,,,h.PNG,h,61589a4cf5deaf0be63bf31e,2021-10-19_19h14.52.691,forced_choiceRT,2021.1.2,MacIntel,59.99160118,,,,,,,,9,Ontime,h,1,2.077,2,1,9,2,1,,,,,
,1.37,,,,,,,,,f.PNG,f,61589a4cf5deaf0be63bf31e,2021-10-19_19h14.52.691,forced_choiceRT,2021.1.2,MacIntel,59.99160118,,,,,,,,9,Ontime,j,0,1.9657,2,2,10,0,1,,,,,
,0.83,,,,,,,,,g.PNG,g,61589a4cf5deaf0be63bf31e,2021-10-19_19h14.52.691,forced_choiceRT,2021.1.2,MacIntel,59.99160118,,,,,,,,9,Fast,g,1,1.8575,2,3,11,1,1,,,,,
,0.13,,,,,,,,,f.PNG,f,61589a4cf5deaf0be63bf31e,2021-10-19_19h14.52.691,forced_choiceRT,2021.1.2,MacIntel,59.99160118,,,,,,,,9,Ontime,f,1,1.9175,3,0,12,0,1,,,,,
,1.2,,,,,,,,,h.PNG,h,61589a4cf5deaf0be63bf31e,2021-10-19_19h14.52.691,forced_choiceRT,2021.1.2,MacIntel,59.99160118,,,,,,,,9,Slow,h,1,2.2152,3,1,13,2,1,,,,,
,0.38,,,,,,,,,h.PNG,h,61589a4cf5deaf0be63bf31e,2021-10-19_19h14.52.691,forced_choiceRT,2021.1.2,MacIntel,59.99160118,,,,,,,,9,Ontime,h,1,1.9993,3,2,14,2,1,,,,,
,1.57,,,,,,,,,g.PNG,g,61589a4cf5deaf0be63bf31e,2021-10-19_19h14.52.691,forced_choiceRT,2021.1.2,MacIntel,59.99160118,,,,,,,,9,Fast,h,0,1.8694,3,3,15,1,1,,,,,
,0.23,,,,,,,,,f.PNG,f,61589a4cf5deaf0be63bf31e,2021-10-19_19h14.52.691,forced_choiceRT,2021.1.2,MacIntel,59.99160118,,,,,,,,9,Fast,f,1,1.8172,4,0,16,0,1,,,,,
,0.03,,,,,,,,,h.PNG,h,61589a4cf5deaf0be63bf31e,2021-10-19_19h14.52.691,forced_choiceRT,2021.1.2,MacIntel,59.99160118,,,,,,,,9,Ontime,h,1,2.033,4,1,17,2,1,,,,,
,0.1,,,,,,,,,j.PNG,j,61589a4cf5deaf0be63bf31e,2021-10-19_19h14.52.691,forced_choiceRT,2021.1.2,MacIntel,59.99160118,,,,,,,,9,Ontime,j,1,2.0509,4,2,18,3,1,,,,,
,1.4,,,,,,,,,g.PNG,g,61589a4cf5deaf0be63bf31e,2021-10-19_19h14.52.691,forced_choiceRT,2021.1.2,MacIntel,59.99160118,,,,,,,,9,Slow,g,1,2.331,4,3,19,1,1,,,,,
,0.59,,,,,,,,,j.PNG,j,61589a4cf5deaf0be63bf31e,2021-10-19_19h14.52.691,forced_choiceRT,2021.1.2,MacIntel,59.99160118,,,,,,,,9,Slow,j,1,2.1774,5,0,20,3,1,,,,,
,1.66,,,,,,,,,g.PNG,g,61589a4cf5deaf0be63bf31e,2021-10-19_19h14.52.691,forced_choiceRT,2021.1.2,MacIntel,59.99160118,,,,,,,,9,Ontime,j,0,2.0008,5,1,21,1,1,,,,,
,0.96,,,,,,,,,f.PNG,f,61589a4cf5deaf0be63bf31e,2021-10-19_19h14.52.691,forced_choiceRT,2021.1.2,MacIntel,59.99160118,,,,,,,,9,Ontime,f,1,1.9179,5,2,22,0,1,,,,,
,0.56,,,,,,,,,g.PNG,g,61589a4cf5deaf0be63bf31e,2021-10-19_19h14.52.691,forced_choiceRT,2021.1.2,MacIntel,59.99160118,,,,,,,,9,Ontime,g,1,2.0335,5,3,23,1,1,,,,,
,0.83,,,,,,,,,j.PNG,j,61589a4cf5deaf0be63bf31e,2021-10-19_19h14.52.691,forced_choiceRT,2021.1.2,MacIntel,59.99160118,,,,,,,,9,Ontime,j,1,2.0198,6,0,24,3,1,,,,,
,0.21,,,,,,,,,f.PNG,f,61589a4cf5deaf0be63bf31e,2021-10-19_19h14.52.691,forced_choiceRT,2021.1.2,MacIntel,59.99160118,,,,,,,,9,Ontime,f,1,1.9839,6,1,25,0,1,,,,,
,0.23,,,,,,,,,g.PNG,g,61589a4cf5deaf0be63bf31e,2021-10-19_19h14.52.691,forced_choiceRT,2021.1.2,MacIntel,59.99160118,,,,,,,,9,Ontime,g,1,2.0635,6,2,26,1,1,,,,,
,0.21,,,,,,,,,j.PNG,j,61589a4cf5deaf0be63bf31e,2021-10-19_19h14.52.691,forced_choiceRT,2021.1.2,MacIntel,59.99160118,,,,,,,,9,Ontime,j,1,2.0916,6,3,27,3,1,,,,,
,1.36,,,,,,,,,j.PNG,j,61589a4cf5deaf0be63bf31e,2021-10-19_19h14.52.691,forced_choiceRT,2021.1.2,MacIntel,59.99160118,,,,,,,,9,Slow,j,1,2.1389,7,0,28,3,1,,,,,
,1.85,,,,,,,,,h.PNG,h,61589a4cf5deaf0be63bf31e,2021-10-19_19h14.52.691,forced_choiceRT,2021.1.2,MacIntel,59.99160118,,,,,,,,9,Slow,j,0,2.1126,7,1,29,2,1,,,,,
,1.82,,,,,,,,,h.PNG,h,61589a4cf5deaf0be63bf31e,2021-10-19_19h14.52.691,forced_choiceRT,2021.1.2,MacIntel,59.99160118,,,,,,,,9,Ontime,j,0,1.9682,7,2,30,2,1,,,,,
,1.32,,,,,,,,,h.PNG,h,61589a4cf5deaf0be63bf31e,2021-10-19_19h14.52.691,forced_choiceRT,2021.1.2,MacIntel,59.99160118,,,,,,,,9,Ontime,h,1,2.0943,7,3,31,2,1,,,,,
,0.26,,,,,,,,,g.PNG,g,61589a4cf5deaf0be63bf31e,2021-10-19_19h14.52.691,forced_choiceRT,2021.1.2,MacIntel,59.99160118,,,,,,,,9,Fast,g,1,1.8867,8,0,32,1,1,,,,,
,1.08,,,,,,,,,g.PNG,g,61589a4cf5deaf0be63bf31e,2021-10-19_19h14.52.691,forced_choiceRT,2021.1.2,MacIntel,59.99160118,,,,,,,,9,Ontime,g,1,1.9661,8,1,33,1,1,,,,,
,1.54,,,,,,,,,f.PNG,f,61589a4cf5deaf0be63bf31e,2021-10-19_19h14.52.691,forced_choiceRT,2021.1.2,MacIntel,59.99160118,,,,,,,,9,Slow,f,1,2.1851,8,2,34,0,1,,,,,
,0.76,,,,,,,,,g.PNG,g,61589a4cf5deaf0be63bf31e,2021-10-19_19h14.52.691,forced_choiceRT,2021.1.2,MacIntel,59.99160118,,,,,,,,9,Slow,g,1,2.1094,8,3,35,1,1,,,,,
,1.22,,,,,,,,,g.PNG,g,61589a4cf5deaf0be63bf31e,2021-10-19_19h14.52.691,forced_choiceRT,2021.1.2,MacIntel,59.99160118,,,,,,,,9,Slow,g,1,2.1171,9,0,36,1,1,,,,,
,1.19,,,,,,,,,f.PNG,f,61589a4cf5deaf0be63bf31e,2021-10-19_19h14.52.691,forced_choiceRT,2021.1.2,MacIntel,59.99160118,,,,,,,,9,Fast,f,1,1.8942,9,1,37,0,1,,,,,
,0.23,,,,,,,,,j.PNG,j,61589a4cf5deaf0be63bf31e,2021-10-19_19h14.52.691,forced_choiceRT,2021.1.2,MacIntel,59.99160118,,,,,,,,9,Ontime,j,1,2.0693,9,2,38,3,1,,,,,
,0.48,,,,,,,,,j.PNG,j,61589a4cf5deaf0be63bf31e,2021-10-19_19h14.52.691,forced_choiceRT,2021.1.2,MacIntel,59.99160118,,,,,,,,9,Fast,j,1,1.8647,9,3,39,3,1,,,,,
,,,,,,,,,,,,61589a4cf5deaf0be63bf31e,2021-10-19_19h14.52.691,forced_choiceRT,2021.1.2,MacIntel,59.99160118,,,,,,,,,,,,,,,,,,8,0,8,0,1
,0.85,,,,,,,,,g.PNG,g,61589a4cf5deaf0be63bf31e,2021-10-19_19h14.52.691,forced_choiceRT,2021.1.2,MacIntel,59.99160118,,,,,,,,10,Fast,g,1,1.8655,0,0,0,1,1,,,,,
,0.34,,,,,,,,,g.PNG,g,61589a4cf5deaf0be63bf31e,2021-10-19_19h14.52.691,forced_choiceRT,2021.1.2,MacIntel,59.99160118,,,,,,,,10,Ontime,g,1,2.0606,0,1,1,1,1,,,,,
,0.98,,,,,,,,,f.PNG,f,61589a4cf5deaf0be63bf31e,2021-10-19_19h14.52.691,forced_choiceRT,2021.1.2,MacIntel,59.99160118,,,,,,,,10,Ontime,f,1,2.033,0,2,2,0,1,,,,,
,1.89,,,,,,,,,j.PNG,j,61589a4cf5deaf0be63bf31e,2021-10-19_19h14.52.691,forced_choiceRT,2021.1.2,MacIntel,59.99160118,,,,,,,,10,Ontime,j,1,2.082,0,3,3,3,1,,,,,
,0.05,,,,,,,,,j.PNG,j,61589a4cf5deaf0be63bf31e,2021-10-19_19h14.52.691,forced_choiceRT,2021.1.2,MacIntel,59.99160118,,,,,,,,10,Ontime,j,1,1.9595,1,0,4,3,1,,,,,
,1.62,,,,,,,,,j.PNG,j,61589a4cf5deaf0be63bf31e,2021-10-19_19h14.52.691,forced_choiceRT,2021.1.2,MacIntel,59.99160118,,,,,,,,10,Ontime,j,1,1.9108,1,1,5,3,1,,,,,
,1.47,,,,,,,,,f.PNG,f,61589a4cf5deaf0be63bf31e,2021-10-19_19h14.52.691,forced_choiceRT,2021.1.2,MacIntel,59.99160118,,,,,,,,10,Ontime,j,0,2.0052,1,2,6,0,1,,,,,
,1.14,,,,,,,,,h.PNG,h,61589a4cf5deaf0be63bf31e,2021-10-19_19h14.52.691,forced_choiceRT,2021.1.2,MacIntel,59.99160118,,,,,,,,10,Slow,h,1,2.1485,1,3,7,2,1,,,,,
,0.5,,,,,,,,,h.PNG,h,61589a4cf5deaf0be63bf31e,2021-10-19_19h14.52.691,forced_choiceRT,2021.1.2,MacIntel,59.99160118,,,,,,,,10,Ontime,h,1,1.9362,2,0,8,2,1,,,,,
,1.8,,,,,,,,,g.PNG,g,61589a4cf5deaf0be63bf31e,2021-10-19_19h14.52.691,forced_choiceRT,2021.1.2,MacIntel,59.99160118,,,,,,,,10,Slow,j,0,2.1958,2,1,9,1,1,,,,,
,0.29,,,,,,,,,g.PNG,g,61589a4cf5deaf0be63bf31e,2021-10-19_19h14.52.691,forced_choiceRT,2021.1.2,MacIntel,59.99160118,,,,,,,,10,Ontime,g,1,2.0166,2,2,10,1,1,,,,,
,1.38,,,,,,,,,h.PNG,h,61589a4cf5deaf0be63bf31e,2021-10-19_19h14.52.691,forced_choiceRT,2021.1.2,MacIntel,59.99160118,,,,,,,,10,Slow,h,1,2.2349,2,3,11,2,1,,,,,
,1.39,,,,,,,,,h.PNG,h,61589a4cf5deaf0be63bf31e,2021-10-19_19h14.52.691,forced_choiceRT,2021.1.2,MacIntel,59.99160118,,,,,,,,10,Slow,j,0,2.217,3,0,12,2,1,,,,,
,0.58,,,,,,,,,g.PNG,g,61589a4cf5deaf0be63bf31e,2021-10-19_19h14.52.691,forced_choiceRT,2021.1.2,MacIntel,59.99160118,,,,,,,,10,Slow,g,1,2.2931,3,1,13,1,1,,,,,
,0.65,,,,,,,,,g.PNG,g,61589a4cf5deaf0be63bf31e,2021-10-19_19h14.52.691,forced_choiceRT,2021.1.2,MacIntel,59.99160118,,,,,,,,10,Slow,g,1,2.1284,3,2,14,1,1,,,,,
,0.1,,,,,,,,,g.PNG,g,61589a4cf5deaf0be63bf31e,2021-10-19_19h14.52.691,forced_choiceRT,2021.1.2,MacIntel,59.99160118,,,,,,,,10,Ontime,g,1,2.0743,3,3,15,1,1,,,,,
,0.45,,,,,,,,,j.PNG,j,61589a4cf5deaf0be63bf31e,2021-10-19_19h14.52.691,forced_choiceRT,2021.1.2,MacIntel,59.99160118,,,,,,,,10,Ontime,j,1,1.9746,4,0,16,3,1,,,,,
,0.59,,,,,,,,,g.PNG,g,61589a4cf5deaf0be63bf31e,2021-10-19_19h14.52.691,forced_choiceRT,2021.1.2,MacIntel,59.99160118,,,,,,,,10,Ontime,g,1,2.0631,4,1,17,1,1,,,,,
,0.12,,,,,,,,,g.PNG,g,61589a4cf5deaf0be63bf31e,2021-10-19_19h14.52.691,forced_choiceRT,2021.1.2,MacIntel,59.99160118,,,,,,,,10,Ontime,g,1,1.9471,4,2,18,1,1,,,,,
,0.96,,,,,,,,,j.PNG,j,61589a4cf5deaf0be63bf31e,2021-10-19_19h14.52.691,forced_choiceRT,2021.1.2,MacIntel,59.99160118,,,,,,,,10,Ontime,j,1,1.9893,4,3,19,3,1,,,,,
,1.83,,,,,,,,,g.PNG,g,61589a4cf5deaf0be63bf31e,2021-10-19_19h14.52.691,forced_choiceRT,2021.1.2,MacIntel,59.99160118,,,,,,,,10,Slow,j,0,2.2307,5,0,20,1,1,,,,,
,1.18,,,,,,,,,f.PNG,f,61589a4cf5deaf0be63bf31e,2021-10-19_19h14.52.691,forced_choiceRT,2021.1.2,MacIntel,59.99160118,,,,,,,,10,Ontime,f,1,2.0851,5,1,21,0,1,,,,,
,1.04,,,,,,,,,h.PNG,h,61589a4cf5deaf0be63bf31e,2021-10-19_19h14.52.691,forced_choiceRT,2021.1.2,MacIntel,59.99160118,,,,,,,,10,Ontime,h,1,2.0634,5,2,22,2,1,,,,,
,1.35,,,,,,,,,f.PNG,f,61589a4cf5deaf0be63bf31e,2021-10-19_19h14.52.691,forced_choiceRT,2021.1.2,MacIntel,59.99160118,,,,,,,,10,Fast,f,1,1.7338,5,3,23,0,1,,,,,
,1.91,,,,,,,,,j.PNG,j,61589a4cf5deaf0be63bf31e,2021-10-19_19h14.52.691,forced_choiceRT,2021.1.2,MacIntel,59.99160118,,,,,,,,10,Fast,j,1,1.8996,6,0,24,3,1,,,,,
,1.26,,,,,,,,,h.PNG,h,61589a4cf5deaf0be63bf31e,2021-10-19_19h14.52.691,forced_choiceRT,2021.1.2,MacIntel,59.99160118,,,,,,,,10,Ontime,h,1,2.0918,6,1,25,2,1,,,,,
,1.13,,,,,,,,,h.PNG,h,61589a4cf5deaf0be63bf31e,2021-10-19_19h14.52.691,forced_choiceRT,2021.1.2,MacIntel,59.99160118,,,,,,,,10,Fast,h,1,1.8184,6,2,26,2,1,,,,,
,0.58,,,,,,,,,f.PNG,f,61589a4cf5deaf0be63bf31e,2021-10-19_19h14.52.691,forced_choiceRT,2021.1.2,MacIntel,59.99160118,,,,,,,,10,Ontime,f,1,2.0964,6,3,27,0,1,,,,,
,0.27,,,,,,,,,f.PNG,f,61589a4cf5deaf0be63bf31e,2021-10-19_19h14.52.691,forced_choiceRT,2021.1.2,MacIntel,59.99160118,,,,,,,,10,Slow,f,1,2.1487,7,0,28,0,1,,,,,
,0.26,,,,,,,,,j.PNG,j,61589a4cf5deaf0be63bf31e,2021-10-19_19h14.52.691,forced_choiceRT,2021.1.2,MacIntel,59.99160118,,,,,,,,10,Ontime,j,1,1.9668,7,1,29,3,1,,,,,
,0.67,,,,,,,,,j.PNG,j,61589a4cf5deaf0be63bf31e,2021-10-19_19h14.52.691,forced_choiceRT,2021.1.2,MacIntel,59.99160118,,,,,,,,10,Ontime,j,1,2.0967,7,2,30,3,1,,,,,
,0.9,,,,,,,,,f.PNG,f,61589a4cf5deaf0be63bf31e,2021-10-19_19h14.52.691,forced_choiceRT,2021.1.2,MacIntel,59.99160118,,,,,,,,10,Ontime,f,1,1.9747,7,3,31,0,1,,,,,
,1.96,,,,,,,,,f.PNG,f,61589a4cf5deaf0be63bf31e,2021-10-19_19h14.52.691,forced_choiceRT,2021.1.2,MacIntel,59.99160118,,,,,,,,10,Slow,j,0,2.4359,8,0,32,0,1,,,,,
,0.18,,,,,,,,,h.PNG,h,61589a4cf5deaf0be63bf31e,2021-10-19_19h14.52.691,forced_choiceRT,2021.1.2,MacIntel,59.99160118,,,,,,,,10,Ontime,h,1,2.016,8,1,33,2,1,,,,,
,0.06,,,,,,,,,h.PNG,h,61589a4cf5deaf0be63bf31e,2021-10-19_19h14.52.691,forced_choiceRT,2021.1.2,MacIntel,59.99160118,,,,,,,,10,Ontime,h,1,1.9653,8,2,34,2,1,,,,,
,1.65,,,,,,,,,j.PNG,j,61589a4cf5deaf0be63bf31e,2021-10-19_19h14.52.691,forced_choiceRT,2021.1.2,MacIntel,59.99160118,,,,,,,,10,Slow,j,1,2.2626,8,3,35,3,1,,,,,
,1.18,,,,,,,,,f.PNG,f,61589a4cf5deaf0be63bf31e,2021-10-19_19h14.52.691,forced_choiceRT,2021.1.2,MacIntel,59.99160118,,,,,,,,10,Ontime,f,1,2.0547,9,0,36,0,1,,,,,
,1.69,,,,,,,,,f.PNG,f,61589a4cf5deaf0be63bf31e,2021-10-19_19h14.52.691,forced_choiceRT,2021.1.2,MacIntel,59.99160118,,,,,,,,10,Slow,f,1,2.23,9,1,37,0,1,,,,,
,0.79,,,,,,,,,j.PNG,j,61589a4cf5deaf0be63bf31e,2021-10-19_19h14.52.691,forced_choiceRT,2021.1.2,MacIntel,59.99160118,,,,,,,,10,Ontime,j,1,1.9646,9,2,38,3,1,,,,,
,1.7,,,,,,,,,h.PNG,h,61589a4cf5deaf0be63bf31e,2021-10-19_19h14.52.691,forced_choiceRT,2021.1.2,MacIntel,59.99160118,,,,,,,,10,Ontime,j,0,1.9456,9,3,39,2,1,,,,,
,,,,,,,,,,,,61589a4cf5deaf0be63bf31e,2021-10-19_19h14.52.691,forced_choiceRT,2021.1.2,MacIntel,59.99160118,,,,,,,,,,,,,,,,,,9,0,9,0,1
