IP_Addresss,target_onset,trial_resp_sp.keys,trial_resp_sp.corr,trial_resp_sp.rt,trials_train_loop.thisRepN,trials_train_loop.thisTrialN,trials_train_loop.thisN,trials_train_loop.thisIndex,trials_train_loop.ran,pic,correct_key,participant,date,expName,psychopyVersion,OS,frameRate,trial_resp_timing.keys,trial_resp_timing.rt,trials_train_timing.thisRepN,trials_train_timing.thisTrialN,trials_train_timing.thisN,trials_train_timing.thisIndex,trials_train_timing.ran,block_id,ontime,forcedRT_resp.keys,forcedRT_resp.corr,forcedRT_resp.rt,trials.thisRepN,trials.thisTrialN,trials.thisN,trials.thisIndex,trials.ran,blocks.thisRepN,blocks.thisTrialN,blocks.thisN,blocks.thisIndex,blocks.ran
47.28.249.119,0,g,1,1.7002,0,0,0,1,1,g.PNG,g,615ddab1e4f013092538b6c5,2021-10-20_09h08.24.493,forced_choiceRT,2021.1.2,Win32,141.8439716,,,,,,,,,,,,,,,,,,,,,,
,0,j,1,1.5377,0,1,1,3,1,j.PNG,j,615ddab1e4f013092538b6c5,2021-10-20_09h08.24.493,forced_choiceRT,2021.1.2,Win32,141.8439716,,,,,,,,,,,,,,,,,,,,,,
,0,g,1,1.5607,0,2,2,1,1,g.PNG,g,615ddab1e4f013092538b6c5,2021-10-20_09h08.24.493,forced_choiceRT,2021.1.2,Win32,141.8439716,,,,,,,,,,,,,,,,,,,,,,
,0,j,0,4.5515,0,3,3,2,1,h.PNG,h,615ddab1e4f013092538b6c5,2021-10-20_09h08.24.493,forced_choiceRT,2021.1.2,Win32,141.8439716,,,,,,,,,,,,,,,,,,,,,,
,0,j,1,1.0141,1,0,4,3,1,j.PNG,j,615ddab1e4f013092538b6c5,2021-10-20_09h08.24.493,forced_choiceRT,2021.1.2,Win32,141.8439716,,,,,,,,,,,,,,,,,,,,,,
,0,g,1,1.132,1,1,5,1,1,g.PNG,g,615ddab1e4f013092538b6c5,2021-10-20_09h08.24.493,forced_choiceRT,2021.1.2,Win32,141.8439716,,,,,,,,,,,,,,,,,,,,,,
,0,f,1,1.3769,1,2,6,0,1,f.PNG,f,615ddab1e4f013092538b6c5,2021-10-20_09h08.24.493,forced_choiceRT,2021.1.2,Win32,141.8439716,,,,,,,,,,,,,,,,,,,,,,
,0,g,0,1.3525,1,3,7,2,1,h.PNG,h,615ddab1e4f013092538b6c5,2021-10-20_09h08.24.493,forced_choiceRT,2021.1.2,Win32,141.8439716,,,,,,,,,,,,,,,,,,,,,,
,0,h,1,1.0438,2,0,8,2,1,h.PNG,h,615ddab1e4f013092538b6c5,2021-10-20_09h08.24.493,forced_choiceRT,2021.1.2,Win32,141.8439716,,,,,,,,,,,,,,,,,,,,,,
,0,j,1,1.2221,2,1,9,3,1,j.PNG,j,615ddab1e4f013092538b6c5,2021-10-20_09h08.24.493,forced_choiceRT,2021.1.2,Win32,141.8439716,,,,,,,,,,,,,,,,,,,,,,
,0,f,1,1.0916,2,2,10,0,1,f.PNG,f,615ddab1e4f013092538b6c5,2021-10-20_09h08.24.493,forced_choiceRT,2021.1.2,Win32,141.8439716,,,,,,,,,,,,,,,,,,,,,,
,0,f,1,0.7815,2,3,11,0,1,f.PNG,f,615ddab1e4f013092538b6c5,2021-10-20_09h08.24.493,forced_choiceRT,2021.1.2,Win32,141.8439716,,,,,,,,,,,,,,,,,,,,,,
,0,f,1,0.5362,3,0,12,0,1,f.PNG,f,615ddab1e4f013092538b6c5,2021-10-20_09h08.24.493,forced_choiceRT,2021.1.2,Win32,141.8439716,,,,,,,,,,,,,,,,,,,,,,
,0,g,1,1.2522,3,1,13,1,1,g.PNG,g,615ddab1e4f013092538b6c5,2021-10-20_09h08.24.493,forced_choiceRT,2021.1.2,Win32,141.8439716,,,,,,,,,,,,,,,,,,,,,,
,0,h,1,1.0029,3,2,14,2,1,h.PNG,h,615ddab1e4f013092538b6c5,2021-10-20_09h08.24.493,forced_choiceRT,2021.1.2,Win32,141.8439716,,,,,,,,,,,,,,,,,,,,,,
,0,f,1,1.2926,3,3,15,0,1,f.PNG,f,615ddab1e4f013092538b6c5,2021-10-20_09h08.24.493,forced_choiceRT,2021.1.2,Win32,141.8439716,,,,,,,,,,,,,,,,,,,,,,
,0,j,1,1.2299,4,0,16,3,1,j.PNG,j,615ddab1e4f013092538b6c5,2021-10-20_09h08.24.493,forced_choiceRT,2021.1.2,Win32,141.8439716,,,,,,,,,,,,,,,,,,,,,,
,0,g,1,1.042,4,1,17,1,1,g.PNG,g,615ddab1e4f013092538b6c5,2021-10-20_09h08.24.493,forced_choiceRT,2021.1.2,Win32,141.8439716,,,,,,,,,,,,,,,,,,,,,,
,0,j,1,1.0937,4,2,18,3,1,j.PNG,j,615ddab1e4f013092538b6c5,2021-10-20_09h08.24.493,forced_choiceRT,2021.1.2,Win32,141.8439716,,,,,,,,,,,,,,,,,,,,,,
,0,j,1,0.6124,4,3,19,3,1,j.PNG,j,615ddab1e4f013092538b6c5,2021-10-20_09h08.24.493,forced_choiceRT,2021.1.2,Win32,141.8439716,,,,,,,,,,,,,,,,,,,,,,
,0,f,1,1.0698,5,0,20,0,1,f.PNG,f,615ddab1e4f013092538b6c5,2021-10-20_09h08.24.493,forced_choiceRT,2021.1.2,Win32,141.8439716,,,,,,,,,,,,,,,,,,,,,,
,0,f,1,0.6618,5,1,21,0,1,f.PNG,f,615ddab1e4f013092538b6c5,2021-10-20_09h08.24.493,forced_choiceRT,2021.1.2,Win32,141.8439716,,,,,,,,,,,,,,,,,,,,,,
,0,g,1,0.759,5,2,22,1,1,g.PNG,g,615ddab1e4f013092538b6c5,2021-10-20_09h08.24.493,forced_choiceRT,2021.1.2,Win32,141.8439716,,,,,,,,,,,,,,,,,,,,,,
,0,j,1,0.9283,5,3,23,3,1,j.PNG,j,615ddab1e4f013092538b6c5,2021-10-20_09h08.24.493,forced_choiceRT,2021.1.2,Win32,141.8439716,,,,,,,,,,,,,,,,,,,,,,
,0,j,1,0.656,6,0,24,3,1,j.PNG,j,615ddab1e4f013092538b6c5,2021-10-20_09h08.24.493,forced_choiceRT,2021.1.2,Win32,141.8439716,,,,,,,,,,,,,,,,,,,,,,
,0,h,1,1.1337,6,1,25,2,1,h.PNG,h,615ddab1e4f013092538b6c5,2021-10-20_09h08.24.493,forced_choiceRT,2021.1.2,Win32,141.8439716,,,,,,,,,,,,,,,,,,,,,,
,0,g,1,1.2251,6,2,26,1,1,g.PNG,g,615ddab1e4f013092538b6c5,2021-10-20_09h08.24.493,forced_choiceRT,2021.1.2,Win32,141.8439716,,,,,,,,,,,,,,,,,,,,,,
,0,g,0,3.1389,6,3,27,2,1,h.PNG,h,615ddab1e4f013092538b6c5,2021-10-20_09h08.24.493,forced_choiceRT,2021.1.2,Win32,141.8439716,,,,,,,,,,,,,,,,,,,,,,
,0,g,1,0.7084,7,0,28,1,1,g.PNG,g,615ddab1e4f013092538b6c5,2021-10-20_09h08.24.493,forced_choiceRT,2021.1.2,Win32,141.8439716,,,,,,,,,,,,,,,,,,,,,,
,0,g,1,0.6749,7,1,29,1,1,g.PNG,g,615ddab1e4f013092538b6c5,2021-10-20_09h08.24.493,forced_choiceRT,2021.1.2,Win32,141.8439716,,,,,,,,,,,,,,,,,,,,,,
,0,g,1,0.6043,7,2,30,1,1,g.PNG,g,615ddab1e4f013092538b6c5,2021-10-20_09h08.24.493,forced_choiceRT,2021.1.2,Win32,141.8439716,,,,,,,,,,,,,,,,,,,,,,
,0,f,1,1.3015,7,3,31,0,1,f.PNG,f,615ddab1e4f013092538b6c5,2021-10-20_09h08.24.493,forced_choiceRT,2021.1.2,Win32,141.8439716,,,,,,,,,,,,,,,,,,,,,,
,0,f,1,0.6807,8,0,32,0,1,f.PNG,f,615ddab1e4f013092538b6c5,2021-10-20_09h08.24.493,forced_choiceRT,2021.1.2,Win32,141.8439716,,,,,,,,,,,,,,,,,,,,,,
,0,j,1,0.9643,8,1,33,3,1,j.PNG,j,615ddab1e4f013092538b6c5,2021-10-20_09h08.24.493,forced_choiceRT,2021.1.2,Win32,141.8439716,,,,,,,,,,,,,,,,,,,,,,
,0,j,1,0.6083,8,2,34,3,1,j.PNG,j,615ddab1e4f013092538b6c5,2021-10-20_09h08.24.493,forced_choiceRT,2021.1.2,Win32,141.8439716,,,,,,,,,,,,,,,,,,,,,,
,0,j,1,0.6599,8,3,35,3,1,j.PNG,j,615ddab1e4f013092538b6c5,2021-10-20_09h08.24.493,forced_choiceRT,2021.1.2,Win32,141.8439716,,,,,,,,,,,,,,,,,,,,,,
,0,h,1,1.1272,9,0,36,2,1,h.PNG,h,615ddab1e4f013092538b6c5,2021-10-20_09h08.24.493,forced_choiceRT,2021.1.2,Win32,141.8439716,,,,,,,,,,,,,,,,,,,,,,
,0,j,1,0.8392,9,1,37,3,1,j.PNG,j,615ddab1e4f013092538b6c5,2021-10-20_09h08.24.493,forced_choiceRT,2021.1.2,Win32,141.8439716,,,,,,,,,,,,,,,,,,,,,,
,0,h,1,0.7719,9,2,38,2,1,h.PNG,h,615ddab1e4f013092538b6c5,2021-10-20_09h08.24.493,forced_choiceRT,2021.1.2,Win32,141.8439716,,,,,,,,,,,,,,,,,,,,,,
,0,f,1,0.8622,9,3,39,0,1,f.PNG,f,615ddab1e4f013092538b6c5,2021-10-20_09h08.24.493,forced_choiceRT,2021.1.2,Win32,141.8439716,,,,,,,,,,,,,,,,,,,,,,
,0,h,1,1.1317,10,0,40,2,1,h.PNG,h,615ddab1e4f013092538b6c5,2021-10-20_09h08.24.493,forced_choiceRT,2021.1.2,Win32,141.8439716,,,,,,,,,,,,,,,,,,,,,,
,0,g,1,1.0832,10,1,41,1,1,g.PNG,g,615ddab1e4f013092538b6c5,2021-10-20_09h08.24.493,forced_choiceRT,2021.1.2,Win32,141.8439716,,,,,,,,,,,,,,,,,,,,,,
,0,g,1,0.6181,10,2,42,1,1,g.PNG,g,615ddab1e4f013092538b6c5,2021-10-20_09h08.24.493,forced_choiceRT,2021.1.2,Win32,141.8439716,,,,,,,,,,,,,,,,,,,,,,
,0,g,1,0.5846,10,3,43,1,1,g.PNG,g,615ddab1e4f013092538b6c5,2021-10-20_09h08.24.493,forced_choiceRT,2021.1.2,Win32,141.8439716,,,,,,,,,,,,,,,,,,,,,,
,0,j,1,0.9317,11,0,44,3,1,j.PNG,j,615ddab1e4f013092538b6c5,2021-10-20_09h08.24.493,forced_choiceRT,2021.1.2,Win32,141.8439716,,,,,,,,,,,,,,,,,,,,,,
,0,g,1,0.9305,11,1,45,1,1,g.PNG,g,615ddab1e4f013092538b6c5,2021-10-20_09h08.24.493,forced_choiceRT,2021.1.2,Win32,141.8439716,,,,,,,,,,,,,,,,,,,,,,
,0,f,1,0.8315,11,2,46,0,1,f.PNG,f,615ddab1e4f013092538b6c5,2021-10-20_09h08.24.493,forced_choiceRT,2021.1.2,Win32,141.8439716,,,,,,,,,,,,,,,,,,,,,,
,0,h,1,1.0371,11,3,47,2,1,h.PNG,h,615ddab1e4f013092538b6c5,2021-10-20_09h08.24.493,forced_choiceRT,2021.1.2,Win32,141.8439716,,,,,,,,,,,,,,,,,,,,,,
,0,h,1,0.5526,12,0,48,2,1,h.PNG,h,615ddab1e4f013092538b6c5,2021-10-20_09h08.24.493,forced_choiceRT,2021.1.2,Win32,141.8439716,,,,,,,,,,,,,,,,,,,,,,
,0,f,1,1.1099,12,1,49,0,1,f.PNG,f,615ddab1e4f013092538b6c5,2021-10-20_09h08.24.493,forced_choiceRT,2021.1.2,Win32,141.8439716,,,,,,,,,,,,,,,,,,,,,,
,0,h,1,0.8262,12,2,50,2,1,h.PNG,h,615ddab1e4f013092538b6c5,2021-10-20_09h08.24.493,forced_choiceRT,2021.1.2,Win32,141.8439716,,,,,,,,,,,,,,,,,,,,,,
,0,j,1,0.9145,12,3,51,3,1,j.PNG,j,615ddab1e4f013092538b6c5,2021-10-20_09h08.24.493,forced_choiceRT,2021.1.2,Win32,141.8439716,,,,,,,,,,,,,,,,,,,,,,
,0,f,1,0.7449,13,0,52,0,1,f.PNG,f,615ddab1e4f013092538b6c5,2021-10-20_09h08.24.493,forced_choiceRT,2021.1.2,Win32,141.8439716,,,,,,,,,,,,,,,,,,,,,,
,0,h,1,0.7588,13,1,53,2,1,h.PNG,h,615ddab1e4f013092538b6c5,2021-10-20_09h08.24.493,forced_choiceRT,2021.1.2,Win32,141.8439716,,,,,,,,,,,,,,,,,,,,,,
,0,f,1,1.1001,13,2,54,0,1,f.PNG,f,615ddab1e4f013092538b6c5,2021-10-20_09h08.24.493,forced_choiceRT,2021.1.2,Win32,141.8439716,,,,,,,,,,,,,,,,,,,,,,
,0,f,1,0.5359,13,3,55,0,1,f.PNG,f,615ddab1e4f013092538b6c5,2021-10-20_09h08.24.493,forced_choiceRT,2021.1.2,Win32,141.8439716,,,,,,,,,,,,,,,,,,,,,,
,0,g,1,1.2388,14,0,56,1,1,g.PNG,g,615ddab1e4f013092538b6c5,2021-10-20_09h08.24.493,forced_choiceRT,2021.1.2,Win32,141.8439716,,,,,,,,,,,,,,,,,,,,,,
,0,j,1,1.0937,14,1,57,3,1,j.PNG,j,615ddab1e4f013092538b6c5,2021-10-20_09h08.24.493,forced_choiceRT,2021.1.2,Win32,141.8439716,,,,,,,,,,,,,,,,,,,,,,
,0,h,1,0.9033,14,2,58,2,1,h.PNG,h,615ddab1e4f013092538b6c5,2021-10-20_09h08.24.493,forced_choiceRT,2021.1.2,Win32,141.8439716,,,,,,,,,,,,,,,,,,,,,,
,0,h,1,0.6666,14,3,59,2,1,h.PNG,h,615ddab1e4f013092538b6c5,2021-10-20_09h08.24.493,forced_choiceRT,2021.1.2,Win32,141.8439716,,,,,,,,,,,,,,,,,,,,,,
,,,,,,,,,,,,615ddab1e4f013092538b6c5,2021-10-20_09h08.24.493,forced_choiceRT,2021.1.2,Win32,141.8439716,f,2.2153,0,0,0,0,1,,,,,,,,,,,,,,,
,,,,,,,,,,,,615ddab1e4f013092538b6c5,2021-10-20_09h08.24.493,forced_choiceRT,2021.1.2,Win32,141.8439716,j,2.1008,1,0,1,0,1,,,,,,,,,,,,,,,
,,,,,,,,,,,,615ddab1e4f013092538b6c5,2021-10-20_09h08.24.493,forced_choiceRT,2021.1.2,Win32,141.8439716,f,2.2512,2,0,2,0,1,,,,,,,,,,,,,,,
,,,,,,,,,,,,615ddab1e4f013092538b6c5,2021-10-20_09h08.24.493,forced_choiceRT,2021.1.2,Win32,141.8439716,j,1.7501,3,0,3,0,1,,,,,,,,,,,,,,,
,,,,,,,,,,,,615ddab1e4f013092538b6c5,2021-10-20_09h08.24.493,forced_choiceRT,2021.1.2,Win32,141.8439716,j,2.0137,4,0,4,0,1,,,,,,,,,,,,,,,
,,,,,,,,,,,,615ddab1e4f013092538b6c5,2021-10-20_09h08.24.493,forced_choiceRT,2021.1.2,Win32,141.8439716,j,2.0364,5,0,5,0,1,,,,,,,,,,,,,,,
,,,,,,,,,,,,615ddab1e4f013092538b6c5,2021-10-20_09h08.24.493,forced_choiceRT,2021.1.2,Win32,141.8439716,j,2.0438,6,0,6,0,1,,,,,,,,,,,,,,,
,,,,,,,,,,,,615ddab1e4f013092538b6c5,2021-10-20_09h08.24.493,forced_choiceRT,2021.1.2,Win32,141.8439716,j,1.947,7,0,7,0,1,,,,,,,,,,,,,,,
,,,,,,,,,,,,615ddab1e4f013092538b6c5,2021-10-20_09h08.24.493,forced_choiceRT,2021.1.2,Win32,141.8439716,j,1.9897,8,0,8,0,1,,,,,,,,,,,,,,,
,,,,,,,,,,,,615ddab1e4f013092538b6c5,2021-10-20_09h08.24.493,forced_choiceRT,2021.1.2,Win32,141.8439716,j,2.0697,9,0,9,0,1,,,,,,,,,,,,,,,
,,,,,,,,,,,,615ddab1e4f013092538b6c5,2021-10-20_09h08.24.493,forced_choiceRT,2021.1.2,Win32,141.8439716,j,2.0706,10,0,10,0,1,,,,,,,,,,,,,,,
,,,,,,,,,,,,615ddab1e4f013092538b6c5,2021-10-20_09h08.24.493,forced_choiceRT,2021.1.2,Win32,141.8439716,j,1.9397,11,0,11,0,1,,,,,,,,,,,,,,,
,,,,,,,,,,,,615ddab1e4f013092538b6c5,2021-10-20_09h08.24.493,forced_choiceRT,2021.1.2,Win32,141.8439716,j,1.875,12,0,12,0,1,,,,,,,,,,,,,,,
,,,,,,,,,,,,615ddab1e4f013092538b6c5,2021-10-20_09h08.24.493,forced_choiceRT,2021.1.2,Win32,141.8439716,j,2.0611,13,0,13,0,1,,,,,,,,,,,,,,,
,,,,,,,,,,,,615ddab1e4f013092538b6c5,2021-10-20_09h08.24.493,forced_choiceRT,2021.1.2,Win32,141.8439716,j,1.8641,14,0,14,0,1,,,,,,,,,,,,,,,
,,,,,,,,,,,,615ddab1e4f013092538b6c5,2021-10-20_09h08.24.493,forced_choiceRT,2021.1.2,Win32,141.8439716,j,2.0035,15,0,15,0,1,,,,,,,,,,,,,,,
,,,,,,,,,,,,615ddab1e4f013092538b6c5,2021-10-20_09h08.24.493,forced_choiceRT,2021.1.2,Win32,141.8439716,j,1.8856,16,0,16,0,1,,,,,,,,,,,,,,,
,,,,,,,,,,,,615ddab1e4f013092538b6c5,2021-10-20_09h08.24.493,forced_choiceRT,2021.1.2,Win32,141.8439716,j,2.0488,17,0,17,0,1,,,,,,,,,,,,,,,
,,,,,,,,,,,,615ddab1e4f013092538b6c5,2021-10-20_09h08.24.493,forced_choiceRT,2021.1.2,Win32,141.8439716,j,2.0476,18,0,18,0,1,,,,,,,,,,,,,,,
,,,,,,,,,,,,615ddab1e4f013092538b6c5,2021-10-20_09h08.24.493,forced_choiceRT,2021.1.2,Win32,141.8439716,j,2.0026,19,0,19,0,1,,,,,,,,,,,,,,,
,1.03,,,,,,,,,g.PNG,g,615ddab1e4f013092538b6c5,2021-10-20_09h08.24.493,forced_choiceRT,2021.1.2,Win32,141.8439716,,,,,,,,1,Slow,f,0,14.4031,0,0,0,1,1,,,,,
,1.22,,,,,,,,,f.PNG,f,615ddab1e4f013092538b6c5,2021-10-20_09h08.24.493,forced_choiceRT,2021.1.2,Win32,141.8439716,,,,,,,,1,Slow,g,0,30.2855,0,1,1,0,1,,,,,
,0.01,,,,,,,,,f.PNG,f,615ddab1e4f013092538b6c5,2021-10-20_09h08.24.493,forced_choiceRT,2021.1.2,Win32,141.8439716,,,,,,,,1,Fast,g,0,0.9098,0,2,2,0,1,,,,,
,1.86,,,,,,,,,j.PNG,j,615ddab1e4f013092538b6c5,2021-10-20_09h08.24.493,forced_choiceRT,2021.1.2,Win32,141.8439716,,,,,,,,1,Slow,g,0,7.9306,0,3,3,3,1,,,,,
,1.05,,,,,,,,,g.PNG,g,615ddab1e4f013092538b6c5,2021-10-20_09h08.24.493,forced_choiceRT,2021.1.2,Win32,141.8439716,,,,,,,,1,Slow,g,1,2.2848,1,0,4,1,1,,,,,
,1.32,,,,,,,,,h.PNG,h,615ddab1e4f013092538b6c5,2021-10-20_09h08.24.493,forced_choiceRT,2021.1.2,Win32,141.8439716,,,,,,,,1,Slow,h,1,2.4067,1,1,5,2,1,,,,,
,1.39,,,,,,,,,f.PNG,f,615ddab1e4f013092538b6c5,2021-10-20_09h08.24.493,forced_choiceRT,2021.1.2,Win32,141.8439716,,,,,,,,1,Slow,h,0,2.2023,1,2,6,0,1,,,,,
,0.58,,,,,,,,,j.PNG,j,615ddab1e4f013092538b6c5,2021-10-20_09h08.24.493,forced_choiceRT,2021.1.2,Win32,141.8439716,,,,,,,,1,Slow,j,1,5.6739,1,3,7,3,1,,,,,
,1.85,,,,,,,,,f.PNG,f,615ddab1e4f013092538b6c5,2021-10-20_09h08.24.493,forced_choiceRT,2021.1.2,Win32,141.8439716,,,,,,,,1,Slow,j,0,2.2037,2,0,8,0,1,,,,,
,1.75,,,,,,,,,h.PNG,h,615ddab1e4f013092538b6c5,2021-10-20_09h08.24.493,forced_choiceRT,2021.1.2,Win32,141.8439716,,,,,,,,1,Ontime,j,0,1.9328,2,1,9,2,1,,,,,
,0.44,,,,,,,,,j.PNG,j,615ddab1e4f013092538b6c5,2021-10-20_09h08.24.493,forced_choiceRT,2021.1.2,Win32,141.8439716,,,,,,,,1,Ontime,j,1,2.0473,2,2,10,3,1,,,,,
,0.2,,,,,,,,,g.PNG,g,615ddab1e4f013092538b6c5,2021-10-20_09h08.24.493,forced_choiceRT,2021.1.2,Win32,141.8439716,,,,,,,,1,Ontime,j,0,2.0804,2,3,11,1,1,,,,,
,1.41,,,,,,,,,f.PNG,f,615ddab1e4f013092538b6c5,2021-10-20_09h08.24.493,forced_choiceRT,2021.1.2,Win32,141.8439716,,,,,,,,1,Slow,j,0,2.1752,3,0,12,0,1,,,,,
,0.52,,,,,,,,,f.PNG,f,615ddab1e4f013092538b6c5,2021-10-20_09h08.24.493,forced_choiceRT,2021.1.2,Win32,141.8439716,,,,,,,,1,Ontime,j,0,2.0074,3,1,13,0,1,,,,,
,0.75,,,,,,,,,h.PNG,h,615ddab1e4f013092538b6c5,2021-10-20_09h08.24.493,forced_choiceRT,2021.1.2,Win32,141.8439716,,,,,,,,1,Ontime,j,0,2.0072,3,2,14,2,1,,,,,
,0.05,,,,,,,,,h.PNG,h,615ddab1e4f013092538b6c5,2021-10-20_09h08.24.493,forced_choiceRT,2021.1.2,Win32,141.8439716,,,,,,,,1,Ontime,j,0,2.0217,3,3,15,2,1,,,,,
,1.52,,,,,,,,,j.PNG,j,615ddab1e4f013092538b6c5,2021-10-20_09h08.24.493,forced_choiceRT,2021.1.2,Win32,141.8439716,,,,,,,,1,Ontime,j,1,2.0076,4,0,16,3,1,,,,,
,1.75,,,,,,,,,g.PNG,g,615ddab1e4f013092538b6c5,2021-10-20_09h08.24.493,forced_choiceRT,2021.1.2,Win32,141.8439716,,,,,,,,1,Ontime,j,0,1.9887,4,1,17,1,1,,,,,
,1.67,,,,,,,,,g.PNG,g,615ddab1e4f013092538b6c5,2021-10-20_09h08.24.493,forced_choiceRT,2021.1.2,Win32,141.8439716,,,,,,,,1,Ontime,j,0,1.9931,4,2,18,1,1,,,,,
,1.86,,,,,,,,,h.PNG,h,615ddab1e4f013092538b6c5,2021-10-20_09h08.24.493,forced_choiceRT,2021.1.2,Win32,141.8439716,,,,,,,,1,Slow,j,0,2.1252,4,3,19,2,1,,,,,
,1.84,,,,,,,,,g.PNG,g,615ddab1e4f013092538b6c5,2021-10-20_09h08.24.493,forced_choiceRT,2021.1.2,Win32,141.8439716,,,,,,,,1,Ontime,j,0,2.0321,5,0,20,1,1,,,,,
,1.48,,,,,,,,,g.PNG,g,615ddab1e4f013092538b6c5,2021-10-20_09h08.24.493,forced_choiceRT,2021.1.2,Win32,141.8439716,,,,,,,,1,Ontime,j,0,2.0834,5,1,21,1,1,,,,,
,0.56,,,,,,,,,h.PNG,h,615ddab1e4f013092538b6c5,2021-10-20_09h08.24.493,forced_choiceRT,2021.1.2,Win32,141.8439716,,,,,,,,1,Slow,j,0,2.1459,5,2,22,2,1,,,,,
,1.44,,,,,,,,,j.PNG,j,615ddab1e4f013092538b6c5,2021-10-20_09h08.24.493,forced_choiceRT,2021.1.2,Win32,141.8439716,,,,,,,,1,Ontime,j,1,2.0407,5,3,23,3,1,,,,,
,0.64,,,,,,,,,h.PNG,h,615ddab1e4f013092538b6c5,2021-10-20_09h08.24.493,forced_choiceRT,2021.1.2,Win32,141.8439716,,,,,,,,1,Slow,j,0,2.1321,6,0,24,2,1,,,,,
,1.46,,,,,,,,,g.PNG,g,615ddab1e4f013092538b6c5,2021-10-20_09h08.24.493,forced_choiceRT,2021.1.2,Win32,141.8439716,,,,,,,,1,Ontime,j,0,2.0266,6,1,25,1,1,,,,,
,0.04,,,,,,,,,j.PNG,j,615ddab1e4f013092538b6c5,2021-10-20_09h08.24.493,forced_choiceRT,2021.1.2,Win32,141.8439716,,,,,,,,1,Fast,h,0,1.5696,6,2,26,3,1,,,,,
,1.04,,,,,,,,,g.PNG,g,615ddab1e4f013092538b6c5,2021-10-20_09h08.24.493,forced_choiceRT,2021.1.2,Win32,141.8439716,,,,,,,,1,Fast,g,1,1.7652,6,3,27,1,1,,,,,
,1.55,,,,,,,,,j.PNG,j,615ddab1e4f013092538b6c5,2021-10-20_09h08.24.493,forced_choiceRT,2021.1.2,Win32,141.8439716,,,,,,,,1,Fast,g,0,1.7895,7,0,28,3,1,,,,,
,1.13,,,,,,,,,f.PNG,f,615ddab1e4f013092538b6c5,2021-10-20_09h08.24.493,forced_choiceRT,2021.1.2,Win32,141.8439716,,,,,,,,1,Ontime,j,0,2.0836,7,1,29,0,1,,,,,
,1.29,,,,,,,,,g.PNG,g,615ddab1e4f013092538b6c5,2021-10-20_09h08.24.493,forced_choiceRT,2021.1.2,Win32,141.8439716,,,,,,,,1,Slow,j,0,2.1011,7,2,30,1,1,,,,,
,1.8,,,,,,,,,f.PNG,f,615ddab1e4f013092538b6c5,2021-10-20_09h08.24.493,forced_choiceRT,2021.1.2,Win32,141.8439716,,,,,,,,1,Ontime,j,0,2.0002,7,3,31,0,1,,,,,
,1.07,,,,,,,,,h.PNG,h,615ddab1e4f013092538b6c5,2021-10-20_09h08.24.493,forced_choiceRT,2021.1.2,Win32,141.8439716,,,,,,,,1,Ontime,j,0,2.0673,8,0,32,2,1,,,,,
,1.52,,,,,,,,,j.PNG,j,615ddab1e4f013092538b6c5,2021-10-20_09h08.24.493,forced_choiceRT,2021.1.2,Win32,141.8439716,,,,,,,,1,Ontime,j,1,1.9815,8,1,33,3,1,,,,,
,1.73,,,,,,,,,h.PNG,h,615ddab1e4f013092538b6c5,2021-10-20_09h08.24.493,forced_choiceRT,2021.1.2,Win32,141.8439716,,,,,,,,1,Ontime,j,0,2.0083,8,2,34,2,1,,,,,
,0.89,,,,,,,,,j.PNG,j,615ddab1e4f013092538b6c5,2021-10-20_09h08.24.493,forced_choiceRT,2021.1.2,Win32,141.8439716,,,,,,,,1,Ontime,j,1,2.0179,8,3,35,3,1,,,,,
,1.22,,,,,,,,,f.PNG,f,615ddab1e4f013092538b6c5,2021-10-20_09h08.24.493,forced_choiceRT,2021.1.2,Win32,141.8439716,,,,,,,,1,Ontime,j,0,2.0638,9,0,36,0,1,,,,,
,0.31,,,,,,,,,h.PNG,h,615ddab1e4f013092538b6c5,2021-10-20_09h08.24.493,forced_choiceRT,2021.1.2,Win32,141.8439716,,,,,,,,1,Ontime,j,0,1.9794,9,1,37,2,1,,,,,
,1.24,,,,,,,,,j.PNG,j,615ddab1e4f013092538b6c5,2021-10-20_09h08.24.493,forced_choiceRT,2021.1.2,Win32,141.8439716,,,,,,,,1,Ontime,j,1,2.02,9,2,38,3,1,,,,,
,0.09,,,,,,,,,f.PNG,f,615ddab1e4f013092538b6c5,2021-10-20_09h08.24.493,forced_choiceRT,2021.1.2,Win32,141.8439716,,,,,,,,1,Ontime,j,0,2.0696,9,3,39,0,1,,,,,
,,,,,,,,,,,,615ddab1e4f013092538b6c5,2021-10-20_09h08.24.493,forced_choiceRT,2021.1.2,Win32,141.8439716,,,,,,,,,,,,,,,,,,0,0,0,0,1
,1.88,,,,,,,,,f.PNG,f,615ddab1e4f013092538b6c5,2021-10-20_09h08.24.493,forced_choiceRT,2021.1.2,Win32,141.8439716,,,,,,,,2,Slow,g,0,2.1185,0,0,0,0,1,,,,,
,0.61,,,,,,,,,f.PNG,f,615ddab1e4f013092538b6c5,2021-10-20_09h08.24.493,forced_choiceRT,2021.1.2,Win32,141.8439716,,,,,,,,2,Slow,h,0,8.3289,0,1,1,0,1,,,,,
,1.29,,,,,,,,,g.PNG,g,615ddab1e4f013092538b6c5,2021-10-20_09h08.24.493,forced_choiceRT,2021.1.2,Win32,141.8439716,,,,,,,,2,Ontime,j,0,1.9055,0,2,2,1,1,,,,,
,1.35,,,,,,,,,j.PNG,j,615ddab1e4f013092538b6c5,2021-10-20_09h08.24.493,forced_choiceRT,2021.1.2,Win32,141.8439716,,,,,,,,2,Slow,j,1,2.3125,0,3,3,3,1,,,,,
,0.19,,,,,,,,,h.PNG,h,615ddab1e4f013092538b6c5,2021-10-20_09h08.24.493,forced_choiceRT,2021.1.2,Win32,141.8439716,,,,,,,,2,Fast,j,0,1.785,1,0,4,2,1,,,,,
,1.39,,,,,,,,,h.PNG,h,615ddab1e4f013092538b6c5,2021-10-20_09h08.24.493,forced_choiceRT,2021.1.2,Win32,141.8439716,,,,,,,,2,Slow,j,0,2.1912,1,1,5,2,1,,,,,
,1.68,,,,,,,,,f.PNG,f,615ddab1e4f013092538b6c5,2021-10-20_09h08.24.493,forced_choiceRT,2021.1.2,Win32,141.8439716,,,,,,,,2,Slow,j,0,2.1634,1,2,6,0,1,,,,,
,0.7,,,,,,,,,g.PNG,g,615ddab1e4f013092538b6c5,2021-10-20_09h08.24.493,forced_choiceRT,2021.1.2,Win32,141.8439716,,,,,,,,2,Ontime,j,0,2.0267,1,3,7,1,1,,,,,
,1.23,,,,,,,,,g.PNG,g,615ddab1e4f013092538b6c5,2021-10-20_09h08.24.493,forced_choiceRT,2021.1.2,Win32,141.8439716,,,,,,,,2,Ontime,j,0,2.028,2,0,8,1,1,,,,,
,1.48,,,,,,,,,f.PNG,f,615ddab1e4f013092538b6c5,2021-10-20_09h08.24.493,forced_choiceRT,2021.1.2,Win32,141.8439716,,,,,,,,2,Ontime,j,0,2.0638,2,1,9,0,1,,,,,
,1.77,,,,,,,,,f.PNG,f,615ddab1e4f013092538b6c5,2021-10-20_09h08.24.493,forced_choiceRT,2021.1.2,Win32,141.8439716,,,,,,,,2,Ontime,j,0,1.9816,2,2,10,0,1,,,,,
,0,,,,,,,,,f.PNG,f,615ddab1e4f013092538b6c5,2021-10-20_09h08.24.493,forced_choiceRT,2021.1.2,Win32,141.8439716,,,,,,,,2,Ontime,j,0,2.0011,2,3,11,0,1,,,,,
,0.64,,,,,,,,,j.PNG,j,615ddab1e4f013092538b6c5,2021-10-20_09h08.24.493,forced_choiceRT,2021.1.2,Win32,141.8439716,,,,,,,,2,Slow,j,1,2.1562,3,0,12,3,1,,,,,
,1.73,,,,,,,,,j.PNG,j,615ddab1e4f013092538b6c5,2021-10-20_09h08.24.493,forced_choiceRT,2021.1.2,Win32,141.8439716,,,,,,,,2,Ontime,j,1,1.9931,3,1,13,3,1,,,,,
,1,,,,,,,,,g.PNG,g,615ddab1e4f013092538b6c5,2021-10-20_09h08.24.493,forced_choiceRT,2021.1.2,Win32,141.8439716,,,,,,,,2,Ontime,j,0,2.0061,3,2,14,1,1,,,,,
,0.74,,,,,,,,,h.PNG,h,615ddab1e4f013092538b6c5,2021-10-20_09h08.24.493,forced_choiceRT,2021.1.2,Win32,141.8439716,,,,,,,,2,Slow,j,0,2.1072,3,3,15,2,1,,,,,
,0.98,,,,,,,,,h.PNG,h,615ddab1e4f013092538b6c5,2021-10-20_09h08.24.493,forced_choiceRT,2021.1.2,Win32,141.8439716,,,,,,,,2,Ontime,j,0,1.9169,4,0,16,2,1,,,,,
,0.35,,,,,,,,,j.PNG,j,615ddab1e4f013092538b6c5,2021-10-20_09h08.24.493,forced_choiceRT,2021.1.2,Win32,141.8439716,,,,,,,,2,Ontime,j,1,1.9963,4,1,17,3,1,,,,,
,0.13,,,,,,,,,g.PNG,g,615ddab1e4f013092538b6c5,2021-10-20_09h08.24.493,forced_choiceRT,2021.1.2,Win32,141.8439716,,,,,,,,2,Ontime,g,1,2.0324,4,2,18,1,1,,,,,
,1.36,,,,,,,,,f.PNG,f,615ddab1e4f013092538b6c5,2021-10-20_09h08.24.493,forced_choiceRT,2021.1.2,Win32,141.8439716,,,,,,,,2,Ontime,g,0,2.0207,4,3,19,0,1,,,,,
,1.49,,,,,,,,,j.PNG,j,615ddab1e4f013092538b6c5,2021-10-20_09h08.24.493,forced_choiceRT,2021.1.2,Win32,141.8439716,,,,,,,,2,Ontime,f,0,2.0786,5,0,20,3,1,,,,,
,0.68,,,,,,,,,f.PNG,f,615ddab1e4f013092538b6c5,2021-10-20_09h08.24.493,forced_choiceRT,2021.1.2,Win32,141.8439716,,,,,,,,2,Ontime,f,1,2.0985,5,1,21,0,1,,,,,
,0.18,,,,,,,,,j.PNG,j,615ddab1e4f013092538b6c5,2021-10-20_09h08.24.493,forced_choiceRT,2021.1.2,Win32,141.8439716,,,,,,,,2,Ontime,j,1,2.0309,5,2,22,3,1,,,,,
,0.26,,,,,,,,,j.PNG,j,615ddab1e4f013092538b6c5,2021-10-20_09h08.24.493,forced_choiceRT,2021.1.2,Win32,141.8439716,,,,,,,,2,Ontime,j,1,2.0563,5,3,23,3,1,,,,,
,0.92,,,,,,,,,f.PNG,f,615ddab1e4f013092538b6c5,2021-10-20_09h08.24.493,forced_choiceRT,2021.1.2,Win32,141.8439716,,,,,,,,2,Ontime,g,0,2.0014,6,0,24,0,1,,,,,
,1.37,,,,,,,,,j.PNG,j,615ddab1e4f013092538b6c5,2021-10-20_09h08.24.493,forced_choiceRT,2021.1.2,Win32,141.8439716,,,,,,,,2,Slow,j,1,2.1844,6,1,25,3,1,,,,,
,1.74,,,,,,,,,f.PNG,f,615ddab1e4f013092538b6c5,2021-10-20_09h08.24.493,forced_choiceRT,2021.1.2,Win32,141.8439716,,,,,,,,2,Ontime,g,0,2.0625,6,2,26,0,1,,,,,
,1.38,,,,,,,,,g.PNG,g,615ddab1e4f013092538b6c5,2021-10-20_09h08.24.493,forced_choiceRT,2021.1.2,Win32,141.8439716,,,,,,,,2,Ontime,j,0,1.994,6,3,27,1,1,,,,,
,0.69,,,,,,,,,g.PNG,g,615ddab1e4f013092538b6c5,2021-10-20_09h08.24.493,forced_choiceRT,2021.1.2,Win32,141.8439716,,,,,,,,2,Slow,g,1,2.1044,7,0,28,1,1,,,,,
,0.79,,,,,,,,,h.PNG,h,615ddab1e4f013092538b6c5,2021-10-20_09h08.24.493,forced_choiceRT,2021.1.2,Win32,141.8439716,,,,,,,,2,Fast,h,1,1.8625,7,1,29,2,1,,,,,
,0.1,,,,,,,,,h.PNG,h,615ddab1e4f013092538b6c5,2021-10-20_09h08.24.493,forced_choiceRT,2021.1.2,Win32,141.8439716,,,,,,,,2,Ontime,h,1,2.0967,7,2,30,2,1,,,,,
,0.97,,,,,,,,,h.PNG,h,615ddab1e4f013092538b6c5,2021-10-20_09h08.24.493,forced_choiceRT,2021.1.2,Win32,141.8439716,,,,,,,,2,Ontime,h,1,2.0211,7,3,31,2,1,,,,,
,0.43,,,,,,,,,g.PNG,g,615ddab1e4f013092538b6c5,2021-10-20_09h08.24.493,forced_choiceRT,2021.1.2,Win32,141.8439716,,,,,,,,2,Slow,g,1,2.1244,8,0,32,1,1,,,,,
,1.5,,,,,,,,,h.PNG,h,615ddab1e4f013092538b6c5,2021-10-20_09h08.24.493,forced_choiceRT,2021.1.2,Win32,141.8439716,,,,,,,,2,Ontime,g,0,2.0199,8,1,33,2,1,,,,,
,0.92,,,,,,,,,h.PNG,h,615ddab1e4f013092538b6c5,2021-10-20_09h08.24.493,forced_choiceRT,2021.1.2,Win32,141.8439716,,,,,,,,2,Ontime,h,1,2.0766,8,2,34,2,1,,,,,
,1.06,,,,,,,,,g.PNG,g,615ddab1e4f013092538b6c5,2021-10-20_09h08.24.493,forced_choiceRT,2021.1.2,Win32,141.8439716,,,,,,,,2,Fast,g,1,1.8908,8,3,35,1,1,,,,,
,0.94,,,,,,,,,h.PNG,h,615ddab1e4f013092538b6c5,2021-10-20_09h08.24.493,forced_choiceRT,2021.1.2,Win32,141.8439716,,,,,,,,2,Fast,g,0,1.8206,9,0,36,2,1,,,,,
,1.54,,,,,,,,,j.PNG,j,615ddab1e4f013092538b6c5,2021-10-20_09h08.24.493,forced_choiceRT,2021.1.2,Win32,141.8439716,,,,,,,,2,Slow,j,1,2.2374,9,1,37,3,1,,,,,
,1.29,,,,,,,,,g.PNG,g,615ddab1e4f013092538b6c5,2021-10-20_09h08.24.493,forced_choiceRT,2021.1.2,Win32,141.8439716,,,,,,,,2,Slow,g,1,2.1328,9,2,38,1,1,,,,,
,0.32,,,,,,,,,j.PNG,j,615ddab1e4f013092538b6c5,2021-10-20_09h08.24.493,forced_choiceRT,2021.1.2,Win32,141.8439716,,,,,,,,2,Ontime,j,1,2.0104,9,3,39,3,1,,,,,
,,,,,,,,,,,,615ddab1e4f013092538b6c5,2021-10-20_09h08.24.493,forced_choiceRT,2021.1.2,Win32,141.8439716,,,,,,,,,,,,,,,,,,1,0,1,0,1
,0.13,,,,,,,,,f.PNG,f,615ddab1e4f013092538b6c5,2021-10-20_09h08.24.493,forced_choiceRT,2021.1.2,Win32,141.8439716,,,,,,,,3,Fast,f,1,1.5629,0,0,0,0,1,,,,,
,0.69,,,,,,,,,h.PNG,h,615ddab1e4f013092538b6c5,2021-10-20_09h08.24.493,forced_choiceRT,2021.1.2,Win32,141.8439716,,,,,,,,3,Fast,j,0,1.4802,0,1,1,2,1,,,,,
,1.89,,,,,,,,,f.PNG,f,615ddab1e4f013092538b6c5,2021-10-20_09h08.24.493,forced_choiceRT,2021.1.2,Win32,141.8439716,,,,,,,,3,Slow,h,0,2.2511,0,2,2,0,1,,,,,
,1.38,,,,,,,,,h.PNG,h,615ddab1e4f013092538b6c5,2021-10-20_09h08.24.493,forced_choiceRT,2021.1.2,Win32,141.8439716,,,,,,,,3,Slow,f,0,2.1452,0,3,3,2,1,,,,,
,0.54,,,,,,,,,j.PNG,j,615ddab1e4f013092538b6c5,2021-10-20_09h08.24.493,forced_choiceRT,2021.1.2,Win32,141.8439716,,,,,,,,3,Ontime,j,1,1.9245,1,0,4,3,1,,,,,
,1.77,,,,,,,,,g.PNG,g,615ddab1e4f013092538b6c5,2021-10-20_09h08.24.493,forced_choiceRT,2021.1.2,Win32,141.8439716,,,,,,,,3,Ontime,j,0,1.9572,1,1,5,1,1,,,,,
,1.28,,,,,,,,,g.PNG,g,615ddab1e4f013092538b6c5,2021-10-20_09h08.24.493,forced_choiceRT,2021.1.2,Win32,141.8439716,,,,,,,,3,Ontime,j,0,2.0001,1,2,6,1,1,,,,,
,1.57,,,,,,,,,f.PNG,f,615ddab1e4f013092538b6c5,2021-10-20_09h08.24.493,forced_choiceRT,2021.1.2,Win32,141.8439716,,,,,,,,3,Ontime,j,0,1.9023,1,3,7,0,1,,,,,
,0.22,,,,,,,,,j.PNG,j,615ddab1e4f013092538b6c5,2021-10-20_09h08.24.493,forced_choiceRT,2021.1.2,Win32,141.8439716,,,,,,,,3,Ontime,j,1,1.9863,2,0,8,3,1,,,,,
,1.82,,,,,,,,,j.PNG,j,615ddab1e4f013092538b6c5,2021-10-20_09h08.24.493,forced_choiceRT,2021.1.2,Win32,141.8439716,,,,,,,,3,Ontime,j,1,1.9526,2,1,9,3,1,,,,,
,0.23,,,,,,,,,h.PNG,h,615ddab1e4f013092538b6c5,2021-10-20_09h08.24.493,forced_choiceRT,2021.1.2,Win32,141.8439716,,,,,,,,3,Ontime,j,0,2.0279,2,2,10,2,1,,,,,
,1.98,,,,,,,,,j.PNG,j,615ddab1e4f013092538b6c5,2021-10-20_09h08.24.493,forced_choiceRT,2021.1.2,Win32,141.8439716,,,,,,,,3,Ontime,j,1,2.0441,2,3,11,3,1,,,,,
,0.35,,,,,,,,,f.PNG,f,615ddab1e4f013092538b6c5,2021-10-20_09h08.24.493,forced_choiceRT,2021.1.2,Win32,141.8439716,,,,,,,,3,Ontime,f,1,2.0372,3,0,12,0,1,,,,,
,0.78,,,,,,,,,g.PNG,g,615ddab1e4f013092538b6c5,2021-10-20_09h08.24.493,forced_choiceRT,2021.1.2,Win32,141.8439716,,,,,,,,3,Ontime,j,0,2.0417,3,1,13,1,1,,,,,
,0.15,,,,,,,,,g.PNG,g,615ddab1e4f013092538b6c5,2021-10-20_09h08.24.493,forced_choiceRT,2021.1.2,Win32,141.8439716,,,,,,,,3,Ontime,f,0,2.0881,3,2,14,1,1,,,,,
,1.78,,,,,,,,,j.PNG,j,615ddab1e4f013092538b6c5,2021-10-20_09h08.24.493,forced_choiceRT,2021.1.2,Win32,141.8439716,,,,,,,,3,Ontime,j,1,2.0071,3,3,15,3,1,,,,,
,0.1,,,,,,,,,f.PNG,f,615ddab1e4f013092538b6c5,2021-10-20_09h08.24.493,forced_choiceRT,2021.1.2,Win32,141.8439716,,,,,,,,3,Ontime,f,1,1.9942,4,0,16,0,1,,,,,
,0.69,,,,,,,,,j.PNG,j,615ddab1e4f013092538b6c5,2021-10-20_09h08.24.493,forced_choiceRT,2021.1.2,Win32,141.8439716,,,,,,,,3,Ontime,j,1,2.02,4,1,17,3,1,,,,,
,1.83,,,,,,,,,g.PNG,g,615ddab1e4f013092538b6c5,2021-10-20_09h08.24.493,forced_choiceRT,2021.1.2,Win32,141.8439716,,,,,,,,3,Slow,f,0,2.3404,4,2,18,1,1,,,,,
,0.69,,,,,,,,,j.PNG,j,615ddab1e4f013092538b6c5,2021-10-20_09h08.24.493,forced_choiceRT,2021.1.2,Win32,141.8439716,,,,,,,,3,Ontime,j,1,1.9101,4,3,19,3,1,,,,,
,0.97,,,,,,,,,h.PNG,h,615ddab1e4f013092538b6c5,2021-10-20_09h08.24.493,forced_choiceRT,2021.1.2,Win32,141.8439716,,,,,,,,3,Ontime,f,0,2.0603,5,0,20,2,1,,,,,
,1.61,,,,,,,,,g.PNG,g,615ddab1e4f013092538b6c5,2021-10-20_09h08.24.493,forced_choiceRT,2021.1.2,Win32,141.8439716,,,,,,,,3,Ontime,j,0,1.9724,5,1,21,1,1,,,,,
,1.19,,,,,,,,,g.PNG,g,615ddab1e4f013092538b6c5,2021-10-20_09h08.24.493,forced_choiceRT,2021.1.2,Win32,141.8439716,,,,,,,,3,Slow,f,0,2.1282,5,2,22,1,1,,,,,
,1.93,,,,,,,,,j.PNG,j,615ddab1e4f013092538b6c5,2021-10-20_09h08.24.493,forced_choiceRT,2021.1.2,Win32,141.8439716,,,,,,,,3,Ontime,j,1,1.9167,5,3,23,3,1,,,,,
,1.37,,,,,,,,,g.PNG,g,615ddab1e4f013092538b6c5,2021-10-20_09h08.24.493,forced_choiceRT,2021.1.2,Win32,141.8439716,,,,,,,,3,Slow,f,0,2.11,6,0,24,1,1,,,,,
,1.72,,,,,,,,,j.PNG,j,615ddab1e4f013092538b6c5,2021-10-20_09h08.24.493,forced_choiceRT,2021.1.2,Win32,141.8439716,,,,,,,,3,Ontime,j,1,1.9182,6,1,25,3,1,,,,,
,1.65,,,,,,,,,h.PNG,h,615ddab1e4f013092538b6c5,2021-10-20_09h08.24.493,forced_choiceRT,2021.1.2,Win32,141.8439716,,,,,,,,3,Fast,j,0,1.8891,6,2,26,2,1,,,,,
,1.09,,,,,,,,,f.PNG,f,615ddab1e4f013092538b6c5,2021-10-20_09h08.24.493,forced_choiceRT,2021.1.2,Win32,141.8439716,,,,,,,,3,Ontime,f,1,2.014,6,3,27,0,1,,,,,
,0.1,,,,,,,,,h.PNG,h,615ddab1e4f013092538b6c5,2021-10-20_09h08.24.493,forced_choiceRT,2021.1.2,Win32,141.8439716,,,,,,,,3,Ontime,j,0,2.0036,7,0,28,2,1,,,,,
,1.08,,,,,,,,,f.PNG,f,615ddab1e4f013092538b6c5,2021-10-20_09h08.24.493,forced_choiceRT,2021.1.2,Win32,141.8439716,,,,,,,,3,Ontime,f,1,1.983,7,1,29,0,1,,,,,
,1.52,,,,,,,,,h.PNG,h,615ddab1e4f013092538b6c5,2021-10-20_09h08.24.493,forced_choiceRT,2021.1.2,Win32,141.8439716,,,,,,,,3,Slow,j,0,2.1194,7,2,30,2,1,,,,,
,1.23,,,,,,,,,h.PNG,h,615ddab1e4f013092538b6c5,2021-10-20_09h08.24.493,forced_choiceRT,2021.1.2,Win32,141.8439716,,,,,,,,3,Slow,j,0,2.1834,7,3,31,2,1,,,,,
,0.21,,,,,,,,,j.PNG,j,615ddab1e4f013092538b6c5,2021-10-20_09h08.24.493,forced_choiceRT,2021.1.2,Win32,141.8439716,,,,,,,,3,Ontime,j,1,2.0002,8,0,32,3,1,,,,,
,1.45,,,,,,,,,h.PNG,h,615ddab1e4f013092538b6c5,2021-10-20_09h08.24.493,forced_choiceRT,2021.1.2,Win32,141.8439716,,,,,,,,3,Ontime,f,0,1.9532,8,1,33,2,1,,,,,
,1.23,,,,,,,,,h.PNG,h,615ddab1e4f013092538b6c5,2021-10-20_09h08.24.493,forced_choiceRT,2021.1.2,Win32,141.8439716,,,,,,,,3,Ontime,f,0,2.0927,8,2,34,2,1,,,,,
,0.16,,,,,,,,,g.PNG,g,615ddab1e4f013092538b6c5,2021-10-20_09h08.24.493,forced_choiceRT,2021.1.2,Win32,141.8439716,,,,,,,,3,Ontime,f,0,2.0156,8,3,35,1,1,,,,,
,0.41,,,,,,,,,f.PNG,f,615ddab1e4f013092538b6c5,2021-10-20_09h08.24.493,forced_choiceRT,2021.1.2,Win32,141.8439716,,,,,,,,3,Ontime,j,0,2.0286,9,0,36,0,1,,,,,
,1.31,,,,,,,,,g.PNG,g,615ddab1e4f013092538b6c5,2021-10-20_09h08.24.493,forced_choiceRT,2021.1.2,Win32,141.8439716,,,,,,,,3,Ontime,j,0,2.042,9,1,37,1,1,,,,,
,0.56,,,,,,,,,f.PNG,f,615ddab1e4f013092538b6c5,2021-10-20_09h08.24.493,forced_choiceRT,2021.1.2,Win32,141.8439716,,,,,,,,3,Slow,j,0,2.1321,9,2,38,0,1,,,,,
,1.38,,,,,,,,,f.PNG,f,615ddab1e4f013092538b6c5,2021-10-20_09h08.24.493,forced_choiceRT,2021.1.2,Win32,141.8439716,,,,,,,,3,Ontime,h,0,1.993,9,3,39,0,1,,,,,
,,,,,,,,,,,,615ddab1e4f013092538b6c5,2021-10-20_09h08.24.493,forced_choiceRT,2021.1.2,Win32,141.8439716,,,,,,,,,,,,,,,,,,2,0,2,0,1
,1.34,,,,,,,,,h.PNG,h,615ddab1e4f013092538b6c5,2021-10-20_09h08.24.493,forced_choiceRT,2021.1.2,Win32,141.8439716,,,,,,,,4,Ontime,j,0,1.9335,0,0,0,2,1,,,,,
,0.77,,,,,,,,,f.PNG,f,615ddab1e4f013092538b6c5,2021-10-20_09h08.24.493,forced_choiceRT,2021.1.2,Win32,141.8439716,,,,,,,,4,Ontime,j,0,1.9373,0,1,1,0,1,,,,,
,0.38,,,,,,,,,f.PNG,f,615ddab1e4f013092538b6c5,2021-10-20_09h08.24.493,forced_choiceRT,2021.1.2,Win32,141.8439716,,,,,,,,4,Ontime,g,0,2.0001,0,2,2,0,1,,,,,
,0.17,,,,,,,,,j.PNG,j,615ddab1e4f013092538b6c5,2021-10-20_09h08.24.493,forced_choiceRT,2021.1.2,Win32,141.8439716,,,,,,,,4,Fast,h,0,1.89,0,3,3,3,1,,,,,
,0.62,,,,,,,,,h.PNG,h,615ddab1e4f013092538b6c5,2021-10-20_09h08.24.493,forced_choiceRT,2021.1.2,Win32,141.8439716,,,,,,,,4,Ontime,g,0,1.9862,1,0,4,2,1,,,,,
,0.26,,,,,,,,,h.PNG,h,615ddab1e4f013092538b6c5,2021-10-20_09h08.24.493,forced_choiceRT,2021.1.2,Win32,141.8439716,,,,,,,,4,Ontime,g,0,1.9575,1,1,5,2,1,,,,,
,1.66,,,,,,,,,j.PNG,j,615ddab1e4f013092538b6c5,2021-10-20_09h08.24.493,forced_choiceRT,2021.1.2,Win32,141.8439716,,,,,,,,4,Ontime,g,0,1.9238,1,2,6,3,1,,,,,
,1.16,,,,,,,,,g.PNG,g,615ddab1e4f013092538b6c5,2021-10-20_09h08.24.493,forced_choiceRT,2021.1.2,Win32,141.8439716,,,,,,,,4,Ontime,g,1,2.0974,1,3,7,1,1,,,,,
,0.46,,,,,,,,,h.PNG,h,615ddab1e4f013092538b6c5,2021-10-20_09h08.24.493,forced_choiceRT,2021.1.2,Win32,141.8439716,,,,,,,,4,Fast,j,0,1.848,2,0,8,2,1,,,,,
,1.37,,,,,,,,,g.PNG,g,615ddab1e4f013092538b6c5,2021-10-20_09h08.24.493,forced_choiceRT,2021.1.2,Win32,141.8439716,,,,,,,,4,Ontime,g,1,1.9807,2,1,9,1,1,,,,,
,1.39,,,,,,,,,f.PNG,f,615ddab1e4f013092538b6c5,2021-10-20_09h08.24.493,forced_choiceRT,2021.1.2,Win32,141.8439716,,,,,,,,4,Ontime,g,0,1.9813,2,2,10,0,1,,,,,
,1.31,,,,,,,,,j.PNG,j,615ddab1e4f013092538b6c5,2021-10-20_09h08.24.493,forced_choiceRT,2021.1.2,Win32,141.8439716,,,,,,,,4,Ontime,g,0,1.9526,2,3,11,3,1,,,,,
,1.94,,,,,,,,,g.PNG,g,615ddab1e4f013092538b6c5,2021-10-20_09h08.24.493,forced_choiceRT,2021.1.2,Win32,141.8439716,,,,,,,,4,Ontime,g,1,1.9491,3,0,12,1,1,,,,,
,1.9,,,,,,,,,g.PNG,g,615ddab1e4f013092538b6c5,2021-10-20_09h08.24.493,forced_choiceRT,2021.1.2,Win32,141.8439716,,,,,,,,4,Ontime,g,1,2.0138,3,1,13,1,1,,,,,
,1.2,,,,,,,,,h.PNG,h,615ddab1e4f013092538b6c5,2021-10-20_09h08.24.493,forced_choiceRT,2021.1.2,Win32,141.8439716,,,,,,,,4,Ontime,g,0,2.0233,3,2,14,2,1,,,,,
,1.49,,,,,,,,,h.PNG,h,615ddab1e4f013092538b6c5,2021-10-20_09h08.24.493,forced_choiceRT,2021.1.2,Win32,141.8439716,,,,,,,,4,Fast,h,1,1.8888,3,3,15,2,1,,,,,
,1.35,,,,,,,,,j.PNG,j,615ddab1e4f013092538b6c5,2021-10-20_09h08.24.493,forced_choiceRT,2021.1.2,Win32,141.8439716,,,,,,,,4,Ontime,h,0,2.0429,4,0,16,3,1,,,,,
,1.37,,,,,,,,,f.PNG,f,615ddab1e4f013092538b6c5,2021-10-20_09h08.24.493,forced_choiceRT,2021.1.2,Win32,141.8439716,,,,,,,,4,Ontime,g,0,2.0012,4,1,17,0,1,,,,,
,0.22,,,,,,,,,g.PNG,g,615ddab1e4f013092538b6c5,2021-10-20_09h08.24.493,forced_choiceRT,2021.1.2,Win32,141.8439716,,,,,,,,4,Fast,g,1,1.8947,4,2,18,1,1,,,,,
,1.73,,,,,,,,,j.PNG,j,615ddab1e4f013092538b6c5,2021-10-20_09h08.24.493,forced_choiceRT,2021.1.2,Win32,141.8439716,,,,,,,,4,Ontime,h,0,1.9608,4,3,19,3,1,,,,,
,1.42,,,,,,,,,j.PNG,j,615ddab1e4f013092538b6c5,2021-10-20_09h08.24.493,forced_choiceRT,2021.1.2,Win32,141.8439716,,,,,,,,4,Ontime,g,0,1.9793,5,0,20,3,1,,,,,
,1.94,,,,,,,,,j.PNG,j,615ddab1e4f013092538b6c5,2021-10-20_09h08.24.493,forced_choiceRT,2021.1.2,Win32,141.8439716,,,,,,,,4,Ontime,h,0,1.9098,5,1,21,3,1,,,,,
,1.58,,,,,,,,,f.PNG,f,615ddab1e4f013092538b6c5,2021-10-20_09h08.24.493,forced_choiceRT,2021.1.2,Win32,141.8439716,,,,,,,,4,Ontime,f,1,1.9098,5,2,22,0,1,,,,,
,1.71,,,,,,,,,h.PNG,h,615ddab1e4f013092538b6c5,2021-10-20_09h08.24.493,forced_choiceRT,2021.1.2,Win32,141.8439716,,,,,,,,4,Ontime,j,0,1.9208,5,3,23,2,1,,,,,
,0.18,,,,,,,,,j.PNG,j,615ddab1e4f013092538b6c5,2021-10-20_09h08.24.493,forced_choiceRT,2021.1.2,Win32,141.8439716,,,,,,,,4,Ontime,j,1,2.004,6,0,24,3,1,,,,,
,0.99,,,,,,,,,h.PNG,h,615ddab1e4f013092538b6c5,2021-10-20_09h08.24.493,forced_choiceRT,2021.1.2,Win32,141.8439716,,,,,,,,4,Ontime,h,1,2.0279,6,1,25,2,1,,,,,
,1.2,,,,,,,,,f.PNG,f,615ddab1e4f013092538b6c5,2021-10-20_09h08.24.493,forced_choiceRT,2021.1.2,Win32,141.8439716,,,,,,,,4,Ontime,f,1,1.9963,6,2,26,0,1,,,,,
,1.98,,,,,,,,,g.PNG,g,615ddab1e4f013092538b6c5,2021-10-20_09h08.24.493,forced_choiceRT,2021.1.2,Win32,141.8439716,,,,,,,,4,Ontime,g,1,1.9931,6,3,27,1,1,,,,,
,0.36,,,,,,,,,f.PNG,f,615ddab1e4f013092538b6c5,2021-10-20_09h08.24.493,forced_choiceRT,2021.1.2,Win32,141.8439716,,,,,,,,4,Slow,f,1,2.1447,7,0,28,0,1,,,,,
,0.36,,,,,,,,,f.PNG,f,615ddab1e4f013092538b6c5,2021-10-20_09h08.24.493,forced_choiceRT,2021.1.2,Win32,141.8439716,,,,,,,,4,Ontime,f,1,1.9395,7,1,29,0,1,,,,,
,1.75,,,,,,,,,f.PNG,f,615ddab1e4f013092538b6c5,2021-10-20_09h08.24.493,forced_choiceRT,2021.1.2,Win32,141.8439716,,,,,,,,4,Ontime,g,0,1.9112,7,2,30,0,1,,,,,
,1.37,,,,,,,,,g.PNG,g,615ddab1e4f013092538b6c5,2021-10-20_09h08.24.493,forced_choiceRT,2021.1.2,Win32,141.8439716,,,,,,,,4,Ontime,g,1,1.9446,7,3,31,1,1,,,,,
,0.14,,,,,,,,,h.PNG,h,615ddab1e4f013092538b6c5,2021-10-20_09h08.24.493,forced_choiceRT,2021.1.2,Win32,141.8439716,,,,,,,,4,Ontime,h,1,1.9244,8,0,32,2,1,,,,,
,0.33,,,,,,,,,g.PNG,g,615ddab1e4f013092538b6c5,2021-10-20_09h08.24.493,forced_choiceRT,2021.1.2,Win32,141.8439716,,,,,,,,4,Ontime,g,1,1.9392,8,1,33,1,1,,,,,
,1.09,,,,,,,,,g.PNG,g,615ddab1e4f013092538b6c5,2021-10-20_09h08.24.493,forced_choiceRT,2021.1.2,Win32,141.8439716,,,,,,,,4,Ontime,g,1,2.0571,8,2,34,1,1,,,,,
,1.52,,,,,,,,,g.PNG,g,615ddab1e4f013092538b6c5,2021-10-20_09h08.24.493,forced_choiceRT,2021.1.2,Win32,141.8439716,,,,,,,,4,Ontime,f,0,2.0914,8,3,35,1,1,,,,,
,0.41,,,,,,,,,j.PNG,j,615ddab1e4f013092538b6c5,2021-10-20_09h08.24.493,forced_choiceRT,2021.1.2,Win32,141.8439716,,,,,,,,4,Ontime,h,0,2.0022,9,0,36,3,1,,,,,
,1.42,,,,,,,,,h.PNG,h,615ddab1e4f013092538b6c5,2021-10-20_09h08.24.493,forced_choiceRT,2021.1.2,Win32,141.8439716,,,,,,,,4,Ontime,j,0,1.9375,9,1,37,2,1,,,,,
,1.96,,,,,,,,,j.PNG,j,615ddab1e4f013092538b6c5,2021-10-20_09h08.24.493,forced_choiceRT,2021.1.2,Win32,141.8439716,,,,,,,,4,Ontime,g,0,2.0178,9,2,38,3,1,,,,,
,1.37,,,,,,,,,f.PNG,f,615ddab1e4f013092538b6c5,2021-10-20_09h08.24.493,forced_choiceRT,2021.1.2,Win32,141.8439716,,,,,,,,4,Slow,f,1,2.2004,9,3,39,0,1,,,,,
,,,,,,,,,,,,615ddab1e4f013092538b6c5,2021-10-20_09h08.24.493,forced_choiceRT,2021.1.2,Win32,141.8439716,,,,,,,,,,,,,,,,,,3,0,3,0,1
,0.71,,,,,,,,,g.PNG,g,615ddab1e4f013092538b6c5,2021-10-20_09h08.24.493,forced_choiceRT,2021.1.2,Win32,141.8439716,,,,,,,,5,Fast,j,0,0.4734,0,0,0,1,1,,,,,
,0.49,,,,,,,,,h.PNG,h,615ddab1e4f013092538b6c5,2021-10-20_09h08.24.493,forced_choiceRT,2021.1.2,Win32,141.8439716,,,,,,,,5,Ontime,j,0,2.0596,0,1,1,2,1,,,,,
,1.03,,,,,,,,,f.PNG,f,615ddab1e4f013092538b6c5,2021-10-20_09h08.24.493,forced_choiceRT,2021.1.2,Win32,141.8439716,,,,,,,,5,Slow,f,1,2.1262,0,2,2,0,1,,,,,
,0.72,,,,,,,,,h.PNG,h,615ddab1e4f013092538b6c5,2021-10-20_09h08.24.493,forced_choiceRT,2021.1.2,Win32,141.8439716,,,,,,,,5,Ontime,g,0,2.0724,0,3,3,2,1,,,,,
,0.67,,,,,,,,,j.PNG,j,615ddab1e4f013092538b6c5,2021-10-20_09h08.24.493,forced_choiceRT,2021.1.2,Win32,141.8439716,,,,,,,,5,Ontime,j,1,2.0764,1,0,4,3,1,,,,,
,0.22,,,,,,,,,j.PNG,j,615ddab1e4f013092538b6c5,2021-10-20_09h08.24.493,forced_choiceRT,2021.1.2,Win32,141.8439716,,,,,,,,5,Ontime,j,1,1.9852,1,1,5,3,1,,,,,
,1.32,,,,,,,,,h.PNG,h,615ddab1e4f013092538b6c5,2021-10-20_09h08.24.493,forced_choiceRT,2021.1.2,Win32,141.8439716,,,,,,,,5,Ontime,f,0,2.0804,1,2,6,2,1,,,,,
,0.32,,,,,,,,,g.PNG,g,615ddab1e4f013092538b6c5,2021-10-20_09h08.24.493,forced_choiceRT,2021.1.2,Win32,141.8439716,,,,,,,,5,Ontime,h,0,2.0281,1,3,7,1,1,,,,,
,0.39,,,,,,,,,f.PNG,f,615ddab1e4f013092538b6c5,2021-10-20_09h08.24.493,forced_choiceRT,2021.1.2,Win32,141.8439716,,,,,,,,5,Ontime,f,1,1.9482,2,0,8,0,1,,,,,
,1.53,,,,,,,,,j.PNG,j,615ddab1e4f013092538b6c5,2021-10-20_09h08.24.493,forced_choiceRT,2021.1.2,Win32,141.8439716,,,,,,,,5,Fast,f,0,1.8432,2,1,9,3,1,,,,,
,1.22,,,,,,,,,f.PNG,f,615ddab1e4f013092538b6c5,2021-10-20_09h08.24.493,forced_choiceRT,2021.1.2,Win32,141.8439716,,,,,,,,5,Ontime,f,1,1.9249,2,2,10,0,1,,,,,
,1.8,,,,,,,,,h.PNG,h,615ddab1e4f013092538b6c5,2021-10-20_09h08.24.493,forced_choiceRT,2021.1.2,Win32,141.8439716,,,,,,,,5,Ontime,h,1,1.9375,2,3,11,2,1,,,,,
,0.32,,,,,,,,,j.PNG,j,615ddab1e4f013092538b6c5,2021-10-20_09h08.24.493,forced_choiceRT,2021.1.2,Win32,141.8439716,,,,,,,,5,Ontime,j,1,2.0209,3,0,12,3,1,,,,,
,1.47,,,,,,,,,j.PNG,j,615ddab1e4f013092538b6c5,2021-10-20_09h08.24.493,forced_choiceRT,2021.1.2,Win32,141.8439716,,,,,,,,5,Ontime,h,0,1.954,3,1,13,3,1,,,,,
,0.88,,,,,,,,,f.PNG,f,615ddab1e4f013092538b6c5,2021-10-20_09h08.24.493,forced_choiceRT,2021.1.2,Win32,141.8439716,,,,,,,,5,Ontime,f,1,2.0107,3,2,14,0,1,,,,,
,1.21,,,,,,,,,j.PNG,j,615ddab1e4f013092538b6c5,2021-10-20_09h08.24.493,forced_choiceRT,2021.1.2,Win32,141.8439716,,,,,,,,5,Ontime,h,0,1.9977,3,3,15,3,1,,,,,
,1.78,,,,,,,,,h.PNG,h,615ddab1e4f013092538b6c5,2021-10-20_09h08.24.493,forced_choiceRT,2021.1.2,Win32,141.8439716,,,,,,,,5,Fast,h,1,1.8364,4,0,16,2,1,,,,,
,0.31,,,,,,,,,g.PNG,g,615ddab1e4f013092538b6c5,2021-10-20_09h08.24.493,forced_choiceRT,2021.1.2,Win32,141.8439716,,,,,,,,5,Ontime,g,1,2.049,4,1,17,1,1,,,,,
,1.5,,,,,,,,,f.PNG,f,615ddab1e4f013092538b6c5,2021-10-20_09h08.24.493,forced_choiceRT,2021.1.2,Win32,141.8439716,,,,,,,,5,Ontime,h,0,1.9574,4,2,18,0,1,,,,,
,0.97,,,,,,,,,h.PNG,h,615ddab1e4f013092538b6c5,2021-10-20_09h08.24.493,forced_choiceRT,2021.1.2,Win32,141.8439716,,,,,,,,5,Ontime,j,0,2.0626,4,3,19,2,1,,,,,
,1.58,,,,,,,,,j.PNG,j,615ddab1e4f013092538b6c5,2021-10-20_09h08.24.493,forced_choiceRT,2021.1.2,Win32,141.8439716,,,,,,,,5,Fast,h,0,1.8418,5,0,20,3,1,,,,,
,1.57,,,,,,,,,f.PNG,f,615ddab1e4f013092538b6c5,2021-10-20_09h08.24.493,forced_choiceRT,2021.1.2,Win32,141.8439716,,,,,,,,5,Fast,j,0,1.8879,5,1,21,0,1,,,,,
,1.25,,,,,,,,,f.PNG,f,615ddab1e4f013092538b6c5,2021-10-20_09h08.24.493,forced_choiceRT,2021.1.2,Win32,141.8439716,,,,,,,,5,Ontime,h,0,2.0005,5,2,22,0,1,,,,,
,0.85,,,,,,,,,g.PNG,g,615ddab1e4f013092538b6c5,2021-10-20_09h08.24.493,forced_choiceRT,2021.1.2,Win32,141.8439716,,,,,,,,5,Ontime,j,0,1.9858,5,3,23,1,1,,,,,
,1.61,,,,,,,,,f.PNG,f,615ddab1e4f013092538b6c5,2021-10-20_09h08.24.493,forced_choiceRT,2021.1.2,Win32,141.8439716,,,,,,,,5,Ontime,g,0,1.9377,6,0,24,0,1,,,,,
,0.28,,,,,,,,,j.PNG,j,615ddab1e4f013092538b6c5,2021-10-20_09h08.24.493,forced_choiceRT,2021.1.2,Win32,141.8439716,,,,,,,,5,Ontime,j,1,1.9553,6,1,25,3,1,,,,,
,0.16,,,,,,,,,g.PNG,g,615ddab1e4f013092538b6c5,2021-10-20_09h08.24.493,forced_choiceRT,2021.1.2,Win32,141.8439716,,,,,,,,5,Ontime,f,0,2.0068,6,2,26,1,1,,,,,
,0.3,,,,,,,,,h.PNG,h,615ddab1e4f013092538b6c5,2021-10-20_09h08.24.493,forced_choiceRT,2021.1.2,Win32,141.8439716,,,,,,,,5,Fast,h,1,1.785,6,3,27,2,1,,,,,
,1.5,,,,,,,,,g.PNG,g,615ddab1e4f013092538b6c5,2021-10-20_09h08.24.493,forced_choiceRT,2021.1.2,Win32,141.8439716,,,,,,,,5,Ontime,j,0,1.9517,7,0,28,1,1,,,,,
,0.13,,,,,,,,,g.PNG,g,615ddab1e4f013092538b6c5,2021-10-20_09h08.24.493,forced_choiceRT,2021.1.2,Win32,141.8439716,,,,,,,,5,Slow,g,1,2.107,7,1,29,1,1,,,,,
,0.57,,,,,,,,,g.PNG,g,615ddab1e4f013092538b6c5,2021-10-20_09h08.24.493,forced_choiceRT,2021.1.2,Win32,141.8439716,,,,,,,,5,Ontime,g,1,2.0775,7,2,30,1,1,,,,,
,0.3,,,,,,,,,g.PNG,g,615ddab1e4f013092538b6c5,2021-10-20_09h08.24.493,forced_choiceRT,2021.1.2,Win32,141.8439716,,,,,,,,5,Ontime,g,1,1.9445,7,3,31,1,1,,,,,
,0.69,,,,,,,,,h.PNG,h,615ddab1e4f013092538b6c5,2021-10-20_09h08.24.493,forced_choiceRT,2021.1.2,Win32,141.8439716,,,,,,,,5,Fast,j,0,1.7583,8,0,32,2,1,,,,,
,0.21,,,,,,,,,f.PNG,f,615ddab1e4f013092538b6c5,2021-10-20_09h08.24.493,forced_choiceRT,2021.1.2,Win32,141.8439716,,,,,,,,5,Ontime,g,0,1.9408,8,1,33,0,1,,,,,
,0.54,,,,,,,,,f.PNG,f,615ddab1e4f013092538b6c5,2021-10-20_09h08.24.493,forced_choiceRT,2021.1.2,Win32,141.8439716,,,,,,,,5,Ontime,g,0,1.9238,8,2,34,0,1,,,,,
,0.74,,,,,,,,,h.PNG,h,615ddab1e4f013092538b6c5,2021-10-20_09h08.24.493,forced_choiceRT,2021.1.2,Win32,141.8439716,,,,,,,,5,Ontime,j,0,1.9991,8,3,35,2,1,,,,,
,1.97,,,,,,,,,j.PNG,j,615ddab1e4f013092538b6c5,2021-10-20_09h08.24.493,forced_choiceRT,2021.1.2,Win32,141.8439716,,,,,,,,5,Ontime,j,1,1.9307,9,0,36,3,1,,,,,
,1.1,,,,,,,,,j.PNG,j,615ddab1e4f013092538b6c5,2021-10-20_09h08.24.493,forced_choiceRT,2021.1.2,Win32,141.8439716,,,,,,,,5,Ontime,j,1,2.0433,9,1,37,3,1,,,,,
,0.69,,,,,,,,,h.PNG,h,615ddab1e4f013092538b6c5,2021-10-20_09h08.24.493,forced_choiceRT,2021.1.2,Win32,141.8439716,,,,,,,,5,Ontime,h,1,1.9748,9,2,38,2,1,,,,,
,0.56,,,,,,,,,g.PNG,g,615ddab1e4f013092538b6c5,2021-10-20_09h08.24.493,forced_choiceRT,2021.1.2,Win32,141.8439716,,,,,,,,5,Ontime,g,1,1.9712,9,3,39,1,1,,,,,
,,,,,,,,,,,,615ddab1e4f013092538b6c5,2021-10-20_09h08.24.493,forced_choiceRT,2021.1.2,Win32,141.8439716,,,,,,,,,,,,,,,,,,4,0,4,0,1
,1.78,,,,,,,,,j.PNG,j,615ddab1e4f013092538b6c5,2021-10-20_09h08.24.493,forced_choiceRT,2021.1.2,Win32,141.8439716,,,,,,,,6,Ontime,j,1,1.9893,0,0,0,3,1,,,,,
,0.67,,,,,,,,,f.PNG,f,615ddab1e4f013092538b6c5,2021-10-20_09h08.24.493,forced_choiceRT,2021.1.2,Win32,141.8439716,,,,,,,,6,Ontime,f,1,2.0339,0,1,1,0,1,,,,,
,1.49,,,,,,,,,h.PNG,h,615ddab1e4f013092538b6c5,2021-10-20_09h08.24.493,forced_choiceRT,2021.1.2,Win32,141.8439716,,,,,,,,6,Ontime,j,0,1.9584,0,2,2,2,1,,,,,
,0.48,,,,,,,,,j.PNG,j,615ddab1e4f013092538b6c5,2021-10-20_09h08.24.493,forced_choiceRT,2021.1.2,Win32,141.8439716,,,,,,,,6,Ontime,j,1,1.9017,0,3,3,3,1,,,,,
,0.21,,,,,,,,,j.PNG,j,615ddab1e4f013092538b6c5,2021-10-20_09h08.24.493,forced_choiceRT,2021.1.2,Win32,141.8439716,,,,,,,,6,Fast,j,1,1.8336,1,0,4,3,1,,,,,
,1.15,,,,,,,,,j.PNG,j,615ddab1e4f013092538b6c5,2021-10-20_09h08.24.493,forced_choiceRT,2021.1.2,Win32,141.8439716,,,,,,,,6,Ontime,h,0,1.9606,1,1,5,3,1,,,,,
,0.27,,,,,,,,,f.PNG,f,615ddab1e4f013092538b6c5,2021-10-20_09h08.24.493,forced_choiceRT,2021.1.2,Win32,141.8439716,,,,,,,,6,Ontime,f,1,2.0576,1,2,6,0,1,,,,,
,1.41,,,,,,,,,g.PNG,g,615ddab1e4f013092538b6c5,2021-10-20_09h08.24.493,forced_choiceRT,2021.1.2,Win32,141.8439716,,,,,,,,6,Ontime,j,0,2.0567,1,3,7,1,1,,,,,
,0.67,,,,,,,,,f.PNG,f,615ddab1e4f013092538b6c5,2021-10-20_09h08.24.493,forced_choiceRT,2021.1.2,Win32,141.8439716,,,,,,,,6,Ontime,f,1,1.9507,2,0,8,0,1,,,,,
,1.78,,,,,,,,,h.PNG,h,615ddab1e4f013092538b6c5,2021-10-20_09h08.24.493,forced_choiceRT,2021.1.2,Win32,141.8439716,,,,,,,,6,Ontime,j,0,1.9654,2,1,9,2,1,,,,,
,1.5,,,,,,,,,h.PNG,h,615ddab1e4f013092538b6c5,2021-10-20_09h08.24.493,forced_choiceRT,2021.1.2,Win32,141.8439716,,,,,,,,6,Ontime,f,0,1.9792,2,2,10,2,1,,,,,
,0.17,,,,,,,,,h.PNG,h,615ddab1e4f013092538b6c5,2021-10-20_09h08.24.493,forced_choiceRT,2021.1.2,Win32,141.8439716,,,,,,,,6,Ontime,f,0,2.0616,2,3,11,2,1,,,,,
,1.51,,,,,,,,,f.PNG,f,615ddab1e4f013092538b6c5,2021-10-20_09h08.24.493,forced_choiceRT,2021.1.2,Win32,141.8439716,,,,,,,,6,Slow,f,1,2.153,3,0,12,0,1,,,,,
,0.18,,,,,,,,,j.PNG,j,615ddab1e4f013092538b6c5,2021-10-20_09h08.24.493,forced_choiceRT,2021.1.2,Win32,141.8439716,,,,,,,,6,Ontime,j,1,1.9595,3,1,13,3,1,,,,,
,1.88,,,,,,,,,h.PNG,h,615ddab1e4f013092538b6c5,2021-10-20_09h08.24.493,forced_choiceRT,2021.1.2,Win32,141.8439716,,,,,,,,6,Ontime,j,0,1.9445,3,2,14,2,1,,,,,
,1.54,,,,,,,,,g.PNG,g,615ddab1e4f013092538b6c5,2021-10-20_09h08.24.493,forced_choiceRT,2021.1.2,Win32,141.8439716,,,,,,,,6,Ontime,j,0,2.0181,3,3,15,1,1,,,,,
,1.88,,,,,,,,,f.PNG,f,615ddab1e4f013092538b6c5,2021-10-20_09h08.24.493,forced_choiceRT,2021.1.2,Win32,141.8439716,,,,,,,,6,Ontime,f,1,1.9445,4,0,16,0,1,,,,,
,1.32,,,,,,,,,g.PNG,g,615ddab1e4f013092538b6c5,2021-10-20_09h08.24.493,forced_choiceRT,2021.1.2,Win32,141.8439716,,,,,,,,6,Ontime,f,0,2.0336,4,1,17,1,1,,,,,
,0.78,,,,,,,,,j.PNG,j,615ddab1e4f013092538b6c5,2021-10-20_09h08.24.493,forced_choiceRT,2021.1.2,Win32,141.8439716,,,,,,,,6,Ontime,j,1,1.9514,4,2,18,3,1,,,,,
,0.71,,,,,,,,,g.PNG,g,615ddab1e4f013092538b6c5,2021-10-20_09h08.24.493,forced_choiceRT,2021.1.2,Win32,141.8439716,,,,,,,,6,Ontime,f,0,2.0475,4,3,19,1,1,,,,,
,1.2,,,,,,,,,g.PNG,g,615ddab1e4f013092538b6c5,2021-10-20_09h08.24.493,forced_choiceRT,2021.1.2,Win32,141.8439716,,,,,,,,6,Ontime,f,0,2.0279,5,0,20,1,1,,,,,
,0.33,,,,,,,,,g.PNG,g,615ddab1e4f013092538b6c5,2021-10-20_09h08.24.493,forced_choiceRT,2021.1.2,Win32,141.8439716,,,,,,,,6,Ontime,f,0,1.9741,5,1,21,1,1,,,,,
,1.93,,,,,,,,,j.PNG,j,615ddab1e4f013092538b6c5,2021-10-20_09h08.24.493,forced_choiceRT,2021.1.2,Win32,141.8439716,,,,,,,,6,Ontime,j,1,1.9311,5,2,22,3,1,,,,,
,1.72,,,,,,,,,f.PNG,f,615ddab1e4f013092538b6c5,2021-10-20_09h08.24.493,forced_choiceRT,2021.1.2,Win32,141.8439716,,,,,,,,6,Ontime,j,0,1.9387,5,3,23,0,1,,,,,
,0.53,,,,,,,,,f.PNG,f,615ddab1e4f013092538b6c5,2021-10-20_09h08.24.493,forced_choiceRT,2021.1.2,Win32,141.8439716,,,,,,,,6,Ontime,f,1,1.9792,6,0,24,0,1,,,,,
,1.95,,,,,,,,,f.PNG,f,615ddab1e4f013092538b6c5,2021-10-20_09h08.24.493,forced_choiceRT,2021.1.2,Win32,141.8439716,,,,,,,,6,Ontime,f,1,2.0648,6,1,25,0,1,,,,,
,0.84,,,,,,,,,j.PNG,j,615ddab1e4f013092538b6c5,2021-10-20_09h08.24.493,forced_choiceRT,2021.1.2,Win32,141.8439716,,,,,,,,6,Ontime,h,0,2.0707,6,2,26,3,1,,,,,
,0.47,,,,,,,,,h.PNG,h,615ddab1e4f013092538b6c5,2021-10-20_09h08.24.493,forced_choiceRT,2021.1.2,Win32,141.8439716,,,,,,,,6,Ontime,j,0,1.9174,6,3,27,2,1,,,,,
,0.74,,,,,,,,,h.PNG,h,615ddab1e4f013092538b6c5,2021-10-20_09h08.24.493,forced_choiceRT,2021.1.2,Win32,141.8439716,,,,,,,,6,Ontime,h,1,2.0717,7,0,28,2,1,,,,,
,1.18,,,,,,,,,h.PNG,h,615ddab1e4f013092538b6c5,2021-10-20_09h08.24.493,forced_choiceRT,2021.1.2,Win32,141.8439716,,,,,,,,6,Ontime,h,1,2.003,7,1,29,2,1,,,,,
,0.5,,,,,,,,,j.PNG,j,615ddab1e4f013092538b6c5,2021-10-20_09h08.24.493,forced_choiceRT,2021.1.2,Win32,141.8439716,,,,,,,,6,Fast,j,1,1.8307,7,2,30,3,1,,,,,
,1.53,,,,,,,,,f.PNG,f,615ddab1e4f013092538b6c5,2021-10-20_09h08.24.493,forced_choiceRT,2021.1.2,Win32,141.8439716,,,,,,,,6,Fast,h,0,1.8862,7,3,31,0,1,,,,,
,1.13,,,,,,,,,g.PNG,g,615ddab1e4f013092538b6c5,2021-10-20_09h08.24.493,forced_choiceRT,2021.1.2,Win32,141.8439716,,,,,,,,6,Ontime,f,0,2.0023,8,0,32,1,1,,,,,
,0.01,,,,,,,,,g.PNG,g,615ddab1e4f013092538b6c5,2021-10-20_09h08.24.493,forced_choiceRT,2021.1.2,Win32,141.8439716,,,,,,,,6,Ontime,f,0,1.9444,8,1,33,1,1,,,,,
,1.49,,,,,,,,,g.PNG,g,615ddab1e4f013092538b6c5,2021-10-20_09h08.24.493,forced_choiceRT,2021.1.2,Win32,141.8439716,,,,,,,,6,Ontime,h,0,1.9585,8,2,34,1,1,,,,,
,0.95,,,,,,,,,j.PNG,j,615ddab1e4f013092538b6c5,2021-10-20_09h08.24.493,forced_choiceRT,2021.1.2,Win32,141.8439716,,,,,,,,6,Ontime,j,1,1.9988,8,3,35,3,1,,,,,
,0.35,,,,,,,,,f.PNG,f,615ddab1e4f013092538b6c5,2021-10-20_09h08.24.493,forced_choiceRT,2021.1.2,Win32,141.8439716,,,,,,,,6,Ontime,f,1,2.0174,9,0,36,0,1,,,,,
,0.37,,,,,,,,,h.PNG,h,615ddab1e4f013092538b6c5,2021-10-20_09h08.24.493,forced_choiceRT,2021.1.2,Win32,141.8439716,,,,,,,,6,Fast,f,0,1.8058,9,1,37,2,1,,,,,
,1.2,,,,,,,,,h.PNG,h,615ddab1e4f013092538b6c5,2021-10-20_09h08.24.493,forced_choiceRT,2021.1.2,Win32,141.8439716,,,,,,,,6,Ontime,f,0,2.0664,9,2,38,2,1,,,,,
,1.74,,,,,,,,,g.PNG,g,615ddab1e4f013092538b6c5,2021-10-20_09h08.24.493,forced_choiceRT,2021.1.2,Win32,141.8439716,,,,,,,,6,Fast,j,0,1.8751,9,3,39,1,1,,,,,
,,,,,,,,,,,,615ddab1e4f013092538b6c5,2021-10-20_09h08.24.493,forced_choiceRT,2021.1.2,Win32,141.8439716,,,,,,,,,,,,,,,,,,5,0,5,0,1
,0.21,,,,,,,,,h.PNG,h,615ddab1e4f013092538b6c5,2021-10-20_09h08.24.493,forced_choiceRT,2021.1.2,Win32,141.8439716,,,,,,,,7,Fast,f,0,1.6021,0,0,0,2,1,,,,,
,1.12,,,,,,,,,h.PNG,h,615ddab1e4f013092538b6c5,2021-10-20_09h08.24.493,forced_choiceRT,2021.1.2,Win32,141.8439716,,,,,,,,7,Ontime,h,1,2.0835,0,1,1,2,1,,,,,
,0.72,,,,,,,,,h.PNG,h,615ddab1e4f013092538b6c5,2021-10-20_09h08.24.493,forced_choiceRT,2021.1.2,Win32,141.8439716,,,,,,,,7,Ontime,g,0,2.0497,0,2,2,2,1,,,,,
,0.5,,,,,,,,,j.PNG,j,615ddab1e4f013092538b6c5,2021-10-20_09h08.24.493,forced_choiceRT,2021.1.2,Win32,141.8439716,,,,,,,,7,Ontime,h,0,1.9168,0,3,3,3,1,,,,,
,1.4,,,,,,,,,f.PNG,f,615ddab1e4f013092538b6c5,2021-10-20_09h08.24.493,forced_choiceRT,2021.1.2,Win32,141.8439716,,,,,,,,7,Ontime,h,0,2.0575,1,0,4,0,1,,,,,
,0.74,,,,,,,,,f.PNG,f,615ddab1e4f013092538b6c5,2021-10-20_09h08.24.493,forced_choiceRT,2021.1.2,Win32,141.8439716,,,,,,,,7,Ontime,f,1,2.0454,1,1,5,0,1,,,,,
,0.12,,,,,,,,,j.PNG,j,615ddab1e4f013092538b6c5,2021-10-20_09h08.24.493,forced_choiceRT,2021.1.2,Win32,141.8439716,,,,,,,,7,Ontime,h,0,1.9457,1,2,6,3,1,,,,,
,0.08,,,,,,,,,g.PNG,g,615ddab1e4f013092538b6c5,2021-10-20_09h08.24.493,forced_choiceRT,2021.1.2,Win32,141.8439716,,,,,,,,7,Ontime,f,0,2.0918,1,3,7,1,1,,,,,
,1,,,,,,,,,g.PNG,g,615ddab1e4f013092538b6c5,2021-10-20_09h08.24.493,forced_choiceRT,2021.1.2,Win32,141.8439716,,,,,,,,7,Ontime,f,0,2.0349,2,0,8,1,1,,,,,
,0.33,,,,,,,,,g.PNG,g,615ddab1e4f013092538b6c5,2021-10-20_09h08.24.493,forced_choiceRT,2021.1.2,Win32,141.8439716,,,,,,,,7,Ontime,f,0,1.9462,2,1,9,1,1,,,,,
,1.47,,,,,,,,,j.PNG,j,615ddab1e4f013092538b6c5,2021-10-20_09h08.24.493,forced_choiceRT,2021.1.2,Win32,141.8439716,,,,,,,,7,Ontime,h,0,2.0903,2,2,10,3,1,,,,,
,0.05,,,,,,,,,f.PNG,f,615ddab1e4f013092538b6c5,2021-10-20_09h08.24.493,forced_choiceRT,2021.1.2,Win32,141.8439716,,,,,,,,7,Ontime,f,1,2.0354,2,3,11,0,1,,,,,
,1.84,,,,,,,,,h.PNG,h,615ddab1e4f013092538b6c5,2021-10-20_09h08.24.493,forced_choiceRT,2021.1.2,Win32,141.8439716,,,,,,,,7,Ontime,h,1,1.9307,3,0,12,2,1,,,,,
,0.46,,,,,,,,,j.PNG,j,615ddab1e4f013092538b6c5,2021-10-20_09h08.24.493,forced_choiceRT,2021.1.2,Win32,141.8439716,,,,,,,,7,Ontime,h,0,1.9945,3,1,13,3,1,,,,,
,0.91,,,,,,,,,f.PNG,f,615ddab1e4f013092538b6c5,2021-10-20_09h08.24.493,forced_choiceRT,2021.1.2,Win32,141.8439716,,,,,,,,7,Ontime,f,1,1.9389,3,2,14,0,1,,,,,
,1.57,,,,,,,,,j.PNG,j,615ddab1e4f013092538b6c5,2021-10-20_09h08.24.493,forced_choiceRT,2021.1.2,Win32,141.8439716,,,,,,,,7,Fast,h,0,1.8971,3,3,15,3,1,,,,,
,0.96,,,,,,,,,g.PNG,g,615ddab1e4f013092538b6c5,2021-10-20_09h08.24.493,forced_choiceRT,2021.1.2,Win32,141.8439716,,,,,,,,7,Ontime,f,0,2.0529,4,0,16,1,1,,,,,
,1.46,,,,,,,,,g.PNG,g,615ddab1e4f013092538b6c5,2021-10-20_09h08.24.493,forced_choiceRT,2021.1.2,Win32,141.8439716,,,,,,,,7,Ontime,f,0,1.9731,4,1,17,1,1,,,,,
,1.75,,,,,,,,,h.PNG,h,615ddab1e4f013092538b6c5,2021-10-20_09h08.24.493,forced_choiceRT,2021.1.2,Win32,141.8439716,,,,,,,,7,Ontime,f,0,1.9447,4,2,18,2,1,,,,,
,0.28,,,,,,,,,j.PNG,j,615ddab1e4f013092538b6c5,2021-10-20_09h08.24.493,forced_choiceRT,2021.1.2,Win32,141.8439716,,,,,,,,7,Ontime,h,0,2.0408,4,3,19,3,1,,,,,
,1.88,,,,,,,,,h.PNG,h,615ddab1e4f013092538b6c5,2021-10-20_09h08.24.493,forced_choiceRT,2021.1.2,Win32,141.8439716,,,,,,,,7,Ontime,h,1,1.9447,5,0,20,2,1,,,,,
,0.21,,,,,,,,,f.PNG,f,615ddab1e4f013092538b6c5,2021-10-20_09h08.24.493,forced_choiceRT,2021.1.2,Win32,141.8439716,,,,,,,,7,Ontime,f,1,1.9458,5,1,21,0,1,,,,,
,1.97,,,,,,,,,h.PNG,h,615ddab1e4f013092538b6c5,2021-10-20_09h08.24.493,forced_choiceRT,2021.1.2,Win32,141.8439716,,,,,,,,7,Ontime,f,0,1.9475,5,2,22,2,1,,,,,
,0.85,,,,,,,,,f.PNG,f,615ddab1e4f013092538b6c5,2021-10-20_09h08.24.493,forced_choiceRT,2021.1.2,Win32,141.8439716,,,,,,,,7,Ontime,f,1,1.9226,5,3,23,0,1,,,,,
,0.27,,,,,,,,,f.PNG,f,615ddab1e4f013092538b6c5,2021-10-20_09h08.24.493,forced_choiceRT,2021.1.2,Win32,141.8439716,,,,,,,,7,Ontime,f,1,1.9813,6,0,24,0,1,,,,,
,1.69,,,,,,,,,g.PNG,g,615ddab1e4f013092538b6c5,2021-10-20_09h08.24.493,forced_choiceRT,2021.1.2,Win32,141.8439716,,,,,,,,7,Ontime,h,0,1.9737,6,1,25,1,1,,,,,
,0.34,,,,,,,,,h.PNG,h,615ddab1e4f013092538b6c5,2021-10-20_09h08.24.493,forced_choiceRT,2021.1.2,Win32,141.8439716,,,,,,,,7,Ontime,g,0,1.9659,6,2,26,2,1,,,,,
,1.7,,,,,,,,,g.PNG,g,615ddab1e4f013092538b6c5,2021-10-20_09h08.24.493,forced_choiceRT,2021.1.2,Win32,141.8439716,,,,,,,,7,Ontime,h,0,2.0011,6,3,27,1,1,,,,,
,1.07,,,,,,,,,f.PNG,f,615ddab1e4f013092538b6c5,2021-10-20_09h08.24.493,forced_choiceRT,2021.1.2,Win32,141.8439716,,,,,,,,7,Ontime,f,1,2.0139,7,0,28,0,1,,,,,
,1.17,,,,,,,,,j.PNG,j,615ddab1e4f013092538b6c5,2021-10-20_09h08.24.493,forced_choiceRT,2021.1.2,Win32,141.8439716,,,,,,,,7,Ontime,h,0,2.073,7,1,29,3,1,,,,,
,0.45,,,,,,,,,h.PNG,h,615ddab1e4f013092538b6c5,2021-10-20_09h08.24.493,forced_choiceRT,2021.1.2,Win32,141.8439716,,,,,,,,7,Ontime,g,0,2.0131,7,2,30,2,1,,,,,
,0.84,,,,,,,,,j.PNG,j,615ddab1e4f013092538b6c5,2021-10-20_09h08.24.493,forced_choiceRT,2021.1.2,Win32,141.8439716,,,,,,,,7,Ontime,h,0,1.9973,7,3,31,3,1,,,,,
,0.05,,,,,,,,,f.PNG,f,615ddab1e4f013092538b6c5,2021-10-20_09h08.24.493,forced_choiceRT,2021.1.2,Win32,141.8439716,,,,,,,,7,Ontime,f,1,1.9621,8,0,32,0,1,,,,,
,1.3,,,,,,,,,j.PNG,j,615ddab1e4f013092538b6c5,2021-10-20_09h08.24.493,forced_choiceRT,2021.1.2,Win32,141.8439716,,,,,,,,7,Ontime,h,0,2.0059,8,1,33,3,1,,,,,
,1.81,,,,,,,,,g.PNG,g,615ddab1e4f013092538b6c5,2021-10-20_09h08.24.493,forced_choiceRT,2021.1.2,Win32,141.8439716,,,,,,,,7,Ontime,h,0,1.9655,8,2,34,1,1,,,,,
,0.06,,,,,,,,,g.PNG,g,615ddab1e4f013092538b6c5,2021-10-20_09h08.24.493,forced_choiceRT,2021.1.2,Win32,141.8439716,,,,,,,,7,Ontime,f,0,2.0286,8,3,35,1,1,,,,,
,0.13,,,,,,,,,g.PNG,g,615ddab1e4f013092538b6c5,2021-10-20_09h08.24.493,forced_choiceRT,2021.1.2,Win32,141.8439716,,,,,,,,7,Ontime,f,0,1.9725,9,0,36,1,1,,,,,
,1.13,,,,,,,,,f.PNG,f,615ddab1e4f013092538b6c5,2021-10-20_09h08.24.493,forced_choiceRT,2021.1.2,Win32,141.8439716,,,,,,,,7,Ontime,f,1,2.0349,9,1,37,0,1,,,,,
,0.72,,,,,,,,,h.PNG,h,615ddab1e4f013092538b6c5,2021-10-20_09h08.24.493,forced_choiceRT,2021.1.2,Win32,141.8439716,,,,,,,,7,Fast,h,1,1.8324,9,2,38,2,1,,,,,
,1.67,,,,,,,,,j.PNG,j,615ddab1e4f013092538b6c5,2021-10-20_09h08.24.493,forced_choiceRT,2021.1.2,Win32,141.8439716,,,,,,,,7,Ontime,g,0,1.9619,9,3,39,3,1,,,,,
,,,,,,,,,,,,615ddab1e4f013092538b6c5,2021-10-20_09h08.24.493,forced_choiceRT,2021.1.2,Win32,141.8439716,,,,,,,,,,,,,,,,,,6,0,6,0,1
,0.09,,,,,,,,,j.PNG,j,615ddab1e4f013092538b6c5,2021-10-20_09h08.24.493,forced_choiceRT,2021.1.2,Win32,141.8439716,,,,,,,,8,Fast,h,0,1.6394,0,0,0,3,1,,,,,
,0.35,,,,,,,,,h.PNG,h,615ddab1e4f013092538b6c5,2021-10-20_09h08.24.493,forced_choiceRT,2021.1.2,Win32,141.8439716,,,,,,,,8,Ontime,g,0,2.0163,0,1,1,2,1,,,,,
,0.99,,,,,,,,,f.PNG,f,615ddab1e4f013092538b6c5,2021-10-20_09h08.24.493,forced_choiceRT,2021.1.2,Win32,141.8439716,,,,,,,,8,Ontime,f,1,2.0438,0,2,2,0,1,,,,,
,0.88,,,,,,,,,h.PNG,h,615ddab1e4f013092538b6c5,2021-10-20_09h08.24.493,forced_choiceRT,2021.1.2,Win32,141.8439716,,,,,,,,8,Fast,f,0,1.6909,0,3,3,2,1,,,,,
,1.81,,,,,,,,,g.PNG,g,615ddab1e4f013092538b6c5,2021-10-20_09h08.24.493,forced_choiceRT,2021.1.2,Win32,141.8439716,,,,,,,,8,Ontime,h,0,2.0029,1,0,4,1,1,,,,,
,1.04,,,,,,,,,g.PNG,g,615ddab1e4f013092538b6c5,2021-10-20_09h08.24.493,forced_choiceRT,2021.1.2,Win32,141.8439716,,,,,,,,8,Slow,f,0,2.1062,1,1,5,1,1,,,,,
,1.93,,,,,,,,,g.PNG,g,615ddab1e4f013092538b6c5,2021-10-20_09h08.24.493,forced_choiceRT,2021.1.2,Win32,141.8439716,,,,,,,,8,Ontime,f,0,1.9407,1,2,6,1,1,,,,,
,1.01,,,,,,,,,h.PNG,h,615ddab1e4f013092538b6c5,2021-10-20_09h08.24.493,forced_choiceRT,2021.1.2,Win32,141.8439716,,,,,,,,8,Ontime,g,0,2.0429,1,3,7,2,1,,,,,
,0.04,,,,,,,,,g.PNG,g,615ddab1e4f013092538b6c5,2021-10-20_09h08.24.493,forced_choiceRT,2021.1.2,Win32,141.8439716,,,,,,,,8,Fast,f,0,1.8158,2,0,8,1,1,,,,,
,1.51,,,,,,,,,f.PNG,f,615ddab1e4f013092538b6c5,2021-10-20_09h08.24.493,forced_choiceRT,2021.1.2,Win32,141.8439716,,,,,,,,8,Ontime,f,1,2.0833,2,1,9,0,1,,,,,
,1.13,,,,,,,,,j.PNG,j,615ddab1e4f013092538b6c5,2021-10-20_09h08.24.493,forced_choiceRT,2021.1.2,Win32,141.8439716,,,,,,,,8,Ontime,h,0,2.099,2,2,10,3,1,,,,,
,1.3,,,,,,,,,g.PNG,g,615ddab1e4f013092538b6c5,2021-10-20_09h08.24.493,forced_choiceRT,2021.1.2,Win32,141.8439716,,,,,,,,8,Ontime,f,0,1.9654,2,3,11,1,1,,,,,
,0.7,,,,,,,,,j.PNG,j,615ddab1e4f013092538b6c5,2021-10-20_09h08.24.493,forced_choiceRT,2021.1.2,Win32,141.8439716,,,,,,,,8,Ontime,h,0,1.976,3,0,12,3,1,,,,,
,1.18,,,,,,,,,g.PNG,g,615ddab1e4f013092538b6c5,2021-10-20_09h08.24.493,forced_choiceRT,2021.1.2,Win32,141.8439716,,,,,,,,8,Ontime,f,0,1.9712,3,1,13,1,1,,,,,
,1.97,,,,,,,,,j.PNG,j,615ddab1e4f013092538b6c5,2021-10-20_09h08.24.493,forced_choiceRT,2021.1.2,Win32,141.8439716,,,,,,,,8,Ontime,h,0,2.021,3,2,14,3,1,,,,,
,0.15,,,,,,,,,f.PNG,f,615ddab1e4f013092538b6c5,2021-10-20_09h08.24.493,forced_choiceRT,2021.1.2,Win32,141.8439716,,,,,,,,8,Ontime,f,1,1.9416,3,3,15,0,1,,,,,
,0,,,,,,,,,j.PNG,j,615ddab1e4f013092538b6c5,2021-10-20_09h08.24.493,forced_choiceRT,2021.1.2,Win32,141.8439716,,,,,,,,8,Ontime,h,0,1.971,4,0,16,3,1,,,,,
,0.42,,,,,,,,,f.PNG,f,615ddab1e4f013092538b6c5,2021-10-20_09h08.24.493,forced_choiceRT,2021.1.2,Win32,141.8439716,,,,,,,,8,Ontime,f,1,1.9949,4,1,17,0,1,,,,,
,1.99,,,,,,,,,j.PNG,j,615ddab1e4f013092538b6c5,2021-10-20_09h08.24.493,forced_choiceRT,2021.1.2,Win32,141.8439716,,,,,,,,8,Ontime,h,0,1.9159,4,2,18,3,1,,,,,
,0.19,,,,,,,,,j.PNG,j,615ddab1e4f013092538b6c5,2021-10-20_09h08.24.493,forced_choiceRT,2021.1.2,Win32,141.8439716,,,,,,,,8,Ontime,h,0,1.9515,4,3,19,3,1,,,,,
,0.41,,,,,,,,,h.PNG,h,615ddab1e4f013092538b6c5,2021-10-20_09h08.24.493,forced_choiceRT,2021.1.2,Win32,141.8439716,,,,,,,,8,Ontime,f,0,2.0559,5,0,20,2,1,,,,,
,1.06,,,,,,,,,g.PNG,g,615ddab1e4f013092538b6c5,2021-10-20_09h08.24.493,forced_choiceRT,2021.1.2,Win32,141.8439716,,,,,,,,8,Ontime,f,0,2.0726,5,1,21,1,1,,,,,
,1.64,,,,,,,,,j.PNG,j,615ddab1e4f013092538b6c5,2021-10-20_09h08.24.493,forced_choiceRT,2021.1.2,Win32,141.8439716,,,,,,,,8,Fast,g,0,1.632,5,2,22,3,1,,,,,
,0.37,,,,,,,,,g.PNG,g,615ddab1e4f013092538b6c5,2021-10-20_09h08.24.493,forced_choiceRT,2021.1.2,Win32,141.8439716,,,,,,,,8,Ontime,f,0,1.9918,5,3,23,1,1,,,,,
,1.23,,,,,,,,,h.PNG,h,615ddab1e4f013092538b6c5,2021-10-20_09h08.24.493,forced_choiceRT,2021.1.2,Win32,141.8439716,,,,,,,,8,Ontime,h,1,2.042,6,0,24,2,1,,,,,
,0.62,,,,,,,,,f.PNG,f,615ddab1e4f013092538b6c5,2021-10-20_09h08.24.493,forced_choiceRT,2021.1.2,Win32,141.8439716,,,,,,,,8,Ontime,f,1,2.0173,6,1,25,0,1,,,,,
,0.52,,,,,,,,,h.PNG,h,615ddab1e4f013092538b6c5,2021-10-20_09h08.24.493,forced_choiceRT,2021.1.2,Win32,141.8439716,,,,,,,,8,Ontime,g,0,1.9389,6,2,26,2,1,,,,,
,0.22,,,,,,,,,h.PNG,h,615ddab1e4f013092538b6c5,2021-10-20_09h08.24.493,forced_choiceRT,2021.1.2,Win32,141.8439716,,,,,,,,8,Ontime,g,0,1.989,6,3,27,2,1,,,,,
,0.76,,,,,,,,,g.PNG,g,615ddab1e4f013092538b6c5,2021-10-20_09h08.24.493,forced_choiceRT,2021.1.2,Win32,141.8439716,,,,,,,,8,Fast,f,0,1.8266,7,0,28,1,1,,,,,
,0.69,,,,,,,,,f.PNG,f,615ddab1e4f013092538b6c5,2021-10-20_09h08.24.493,forced_choiceRT,2021.1.2,Win32,141.8439716,,,,,,,,8,Ontime,f,1,2.0905,7,1,29,0,1,,,,,
,1.87,,,,,,,,,f.PNG,f,615ddab1e4f013092538b6c5,2021-10-20_09h08.24.493,forced_choiceRT,2021.1.2,Win32,141.8439716,,,,,,,,8,Ontime,f,1,1.9366,7,2,30,0,1,,,,,
,0.27,,,,,,,,,f.PNG,f,615ddab1e4f013092538b6c5,2021-10-20_09h08.24.493,forced_choiceRT,2021.1.2,Win32,141.8439716,,,,,,,,8,Slow,g,0,5.7859,7,3,31,0,1,,,,,
,1.31,,,,,,,,,h.PNG,h,615ddab1e4f013092538b6c5,2021-10-20_09h08.24.493,forced_choiceRT,2021.1.2,Win32,141.8439716,,,,,,,,8,Ontime,g,0,2.0617,8,0,32,2,1,,,,,
,1.53,,,,,,,,,g.PNG,g,615ddab1e4f013092538b6c5,2021-10-20_09h08.24.493,forced_choiceRT,2021.1.2,Win32,141.8439716,,,,,,,,8,Ontime,f,0,2.0362,8,1,33,1,1,,,,,
,0.5,,,,,,,,,j.PNG,j,615ddab1e4f013092538b6c5,2021-10-20_09h08.24.493,forced_choiceRT,2021.1.2,Win32,141.8439716,,,,,,,,8,Ontime,h,0,2.0666,8,2,34,3,1,,,,,
,1.93,,,,,,,,,f.PNG,f,615ddab1e4f013092538b6c5,2021-10-20_09h08.24.493,forced_choiceRT,2021.1.2,Win32,141.8439716,,,,,,,,8,Ontime,h,0,1.9392,8,3,35,0,1,,,,,
,1.34,,,,,,,,,j.PNG,j,615ddab1e4f013092538b6c5,2021-10-20_09h08.24.493,forced_choiceRT,2021.1.2,Win32,141.8439716,,,,,,,,8,Ontime,h,0,2.0287,9,0,36,3,1,,,,,
,0.78,,,,,,,,,h.PNG,h,615ddab1e4f013092538b6c5,2021-10-20_09h08.24.493,forced_choiceRT,2021.1.2,Win32,141.8439716,,,,,,,,8,Ontime,g,0,1.9515,9,1,37,2,1,,,,,
,1.35,,,,,,,,,f.PNG,f,615ddab1e4f013092538b6c5,2021-10-20_09h08.24.493,forced_choiceRT,2021.1.2,Win32,141.8439716,,,,,,,,8,Ontime,f,1,1.9251,9,2,38,0,1,,,,,
,1.99,,,,,,,,,h.PNG,h,615ddab1e4f013092538b6c5,2021-10-20_09h08.24.493,forced_choiceRT,2021.1.2,Win32,141.8439716,,,,,,,,8,Ontime,h,1,1.948,9,3,39,2,1,,,,,
,,,,,,,,,,,,615ddab1e4f013092538b6c5,2021-10-20_09h08.24.493,forced_choiceRT,2021.1.2,Win32,141.8439716,,,,,,,,,,,,,,,,,,7,0,7,0,1
,0.44,,,,,,,,,f.PNG,f,615ddab1e4f013092538b6c5,2021-10-20_09h08.24.493,forced_choiceRT,2021.1.2,Win32,141.8439716,,,,,,,,9,Ontime,g,0,2.0909,0,0,0,0,1,,,,,
,0.53,,,,,,,,,j.PNG,j,615ddab1e4f013092538b6c5,2021-10-20_09h08.24.493,forced_choiceRT,2021.1.2,Win32,141.8439716,,,,,,,,9,Ontime,j,1,1.9862,0,1,1,3,1,,,,,
,0.04,,,,,,,,,j.PNG,j,615ddab1e4f013092538b6c5,2021-10-20_09h08.24.493,forced_choiceRT,2021.1.2,Win32,141.8439716,,,,,,,,9,Ontime,j,1,1.9736,0,2,2,3,1,,,,,
,0.97,,,,,,,,,g.PNG,g,615ddab1e4f013092538b6c5,2021-10-20_09h08.24.493,forced_choiceRT,2021.1.2,Win32,141.8439716,,,,,,,,9,Ontime,g,1,2.0002,0,3,3,1,1,,,,,
,0.72,,,,,,,,,j.PNG,j,615ddab1e4f013092538b6c5,2021-10-20_09h08.24.493,forced_choiceRT,2021.1.2,Win32,141.8439716,,,,,,,,9,Ontime,j,1,1.9483,1,0,4,3,1,,,,,
,0.94,,,,,,,,,f.PNG,f,615ddab1e4f013092538b6c5,2021-10-20_09h08.24.493,forced_choiceRT,2021.1.2,Win32,141.8439716,,,,,,,,9,Ontime,f,1,2.018,1,1,5,0,1,,,,,
,0.71,,,,,,,,,h.PNG,h,615ddab1e4f013092538b6c5,2021-10-20_09h08.24.493,forced_choiceRT,2021.1.2,Win32,141.8439716,,,,,,,,9,Ontime,h,1,1.9258,1,2,6,2,1,,,,,
,1.34,,,,,,,,,j.PNG,j,615ddab1e4f013092538b6c5,2021-10-20_09h08.24.493,forced_choiceRT,2021.1.2,Win32,141.8439716,,,,,,,,9,Ontime,g,0,2.0243,1,3,7,3,1,,,,,
,1.04,,,,,,,,,h.PNG,h,615ddab1e4f013092538b6c5,2021-10-20_09h08.24.493,forced_choiceRT,2021.1.2,Win32,141.8439716,,,,,,,,9,Ontime,h,1,1.9307,2,0,8,2,1,,,,,
,0.86,,,,,,,,,g.PNG,g,615ddab1e4f013092538b6c5,2021-10-20_09h08.24.493,forced_choiceRT,2021.1.2,Win32,141.8439716,,,,,,,,9,Ontime,g,1,1.9947,2,1,9,1,1,,,,,
,0,,,,,,,,,f.PNG,f,615ddab1e4f013092538b6c5,2021-10-20_09h08.24.493,forced_choiceRT,2021.1.2,Win32,141.8439716,,,,,,,,9,Ontime,f,1,2.0013,2,2,10,0,1,,,,,
,0.14,,,,,,,,,j.PNG,j,615ddab1e4f013092538b6c5,2021-10-20_09h08.24.493,forced_choiceRT,2021.1.2,Win32,141.8439716,,,,,,,,9,Fast,j,1,1.8754,2,3,11,3,1,,,,,
,1.26,,,,,,,,,g.PNG,g,615ddab1e4f013092538b6c5,2021-10-20_09h08.24.493,forced_choiceRT,2021.1.2,Win32,141.8439716,,,,,,,,9,Ontime,h,0,2.0372,3,0,12,1,1,,,,,
,1.02,,,,,,,,,h.PNG,h,615ddab1e4f013092538b6c5,2021-10-20_09h08.24.493,forced_choiceRT,2021.1.2,Win32,141.8439716,,,,,,,,9,Ontime,h,1,2.0626,3,1,13,2,1,,,,,
,1.91,,,,,,,,,g.PNG,g,615ddab1e4f013092538b6c5,2021-10-20_09h08.24.493,forced_choiceRT,2021.1.2,Win32,141.8439716,,,,,,,,9,Ontime,j,0,1.9259,3,2,14,1,1,,,,,
,1.49,,,,,,,,,g.PNG,g,615ddab1e4f013092538b6c5,2021-10-20_09h08.24.493,forced_choiceRT,2021.1.2,Win32,141.8439716,,,,,,,,9,Ontime,j,0,1.9712,3,3,15,1,1,,,,,
,0.71,,,,,,,,,h.PNG,h,615ddab1e4f013092538b6c5,2021-10-20_09h08.24.493,forced_choiceRT,2021.1.2,Win32,141.8439716,,,,,,,,9,Ontime,h,1,2.0139,4,0,16,2,1,,,,,
,0.66,,,,,,,,,g.PNG,g,615ddab1e4f013092538b6c5,2021-10-20_09h08.24.493,forced_choiceRT,2021.1.2,Win32,141.8439716,,,,,,,,9,Fast,g,1,1.7975,4,1,17,1,1,,,,,
,1.75,,,,,,,,,g.PNG,g,615ddab1e4f013092538b6c5,2021-10-20_09h08.24.493,forced_choiceRT,2021.1.2,Win32,141.8439716,,,,,,,,9,Ontime,j,0,1.9668,4,2,18,1,1,,,,,
,1.97,,,,,,,,,g.PNG,g,615ddab1e4f013092538b6c5,2021-10-20_09h08.24.493,forced_choiceRT,2021.1.2,Win32,141.8439716,,,,,,,,9,Ontime,j,0,1.9963,4,3,19,1,1,,,,,
,0.44,,,,,,,,,j.PNG,j,615ddab1e4f013092538b6c5,2021-10-20_09h08.24.493,forced_choiceRT,2021.1.2,Win32,141.8439716,,,,,,,,9,Ontime,j,1,1.9731,5,0,20,3,1,,,,,
,0.11,,,,,,,,,h.PNG,h,615ddab1e4f013092538b6c5,2021-10-20_09h08.24.493,forced_choiceRT,2021.1.2,Win32,141.8439716,,,,,,,,9,Ontime,h,1,2.0061,5,1,21,2,1,,,,,
,1.43,,,,,,,,,j.PNG,j,615ddab1e4f013092538b6c5,2021-10-20_09h08.24.493,forced_choiceRT,2021.1.2,Win32,141.8439716,,,,,,,,9,Ontime,j,1,1.9412,5,2,22,3,1,,,,,
,1.77,,,,,,,,,f.PNG,f,615ddab1e4f013092538b6c5,2021-10-20_09h08.24.493,forced_choiceRT,2021.1.2,Win32,141.8439716,,,,,,,,9,Fast,j,0,1.8921,5,3,23,0,1,,,,,
,0.36,,,,,,,,,g.PNG,g,615ddab1e4f013092538b6c5,2021-10-20_09h08.24.493,forced_choiceRT,2021.1.2,Win32,141.8439716,,,,,,,,9,Ontime,h,0,1.967,6,0,24,1,1,,,,,
,0.56,,,,,,,,,f.PNG,f,615ddab1e4f013092538b6c5,2021-10-20_09h08.24.493,forced_choiceRT,2021.1.2,Win32,141.8439716,,,,,,,,9,Ontime,f,1,2.0084,6,1,25,0,1,,,,,
,0.11,,,,,,,,,h.PNG,h,615ddab1e4f013092538b6c5,2021-10-20_09h08.24.493,forced_choiceRT,2021.1.2,Win32,141.8439716,,,,,,,,9,Ontime,h,1,1.9307,6,2,26,2,1,,,,,
,1.98,,,,,,,,,g.PNG,g,615ddab1e4f013092538b6c5,2021-10-20_09h08.24.493,forced_choiceRT,2021.1.2,Win32,141.8439716,,,,,,,,9,Ontime,j,0,1.9318,6,3,27,1,1,,,,,
,1.66,,,,,,,,,f.PNG,f,615ddab1e4f013092538b6c5,2021-10-20_09h08.24.493,forced_choiceRT,2021.1.2,Win32,141.8439716,,,,,,,,9,Ontime,j,0,1.9442,7,0,28,0,1,,,,,
,1.89,,,,,,,,,f.PNG,f,615ddab1e4f013092538b6c5,2021-10-20_09h08.24.493,forced_choiceRT,2021.1.2,Win32,141.8439716,,,,,,,,9,Fast,g,0,1.8821,7,1,29,0,1,,,,,
,1.34,,,,,,,,,f.PNG,f,615ddab1e4f013092538b6c5,2021-10-20_09h08.24.493,forced_choiceRT,2021.1.2,Win32,141.8439716,,,,,,,,9,Ontime,f,1,2.0292,7,2,30,0,1,,,,,
,1.65,,,,,,,,,h.PNG,h,615ddab1e4f013092538b6c5,2021-10-20_09h08.24.493,forced_choiceRT,2021.1.2,Win32,141.8439716,,,,,,,,9,Fast,g,0,1.8532,7,3,31,2,1,,,,,
,0.98,,,,,,,,,h.PNG,h,615ddab1e4f013092538b6c5,2021-10-20_09h08.24.493,forced_choiceRT,2021.1.2,Win32,141.8439716,,,,,,,,9,Ontime,j,0,1.966,8,0,32,2,1,,,,,
,1.46,,,,,,,,,j.PNG,j,615ddab1e4f013092538b6c5,2021-10-20_09h08.24.493,forced_choiceRT,2021.1.2,Win32,141.8439716,,,,,,,,9,Ontime,j,1,1.9712,8,1,33,3,1,,,,,
,1.3,,,,,,,,,h.PNG,h,615ddab1e4f013092538b6c5,2021-10-20_09h08.24.493,forced_choiceRT,2021.1.2,Win32,141.8439716,,,,,,,,9,Ontime,j,0,2.0172,8,2,34,2,1,,,,,
,0.44,,,,,,,,,h.PNG,h,615ddab1e4f013092538b6c5,2021-10-20_09h08.24.493,forced_choiceRT,2021.1.2,Win32,141.8439716,,,,,,,,9,Ontime,j,0,2.036,8,3,35,2,1,,,,,
,1.59,,,,,,,,,j.PNG,j,615ddab1e4f013092538b6c5,2021-10-20_09h08.24.493,forced_choiceRT,2021.1.2,Win32,141.8439716,,,,,,,,9,Ontime,j,1,1.9238,9,0,36,3,1,,,,,
,0.29,,,,,,,,,f.PNG,f,615ddab1e4f013092538b6c5,2021-10-20_09h08.24.493,forced_choiceRT,2021.1.2,Win32,141.8439716,,,,,,,,9,Fast,g,0,1.8696,9,1,37,0,1,,,,,
,0.79,,,,,,,,,f.PNG,f,615ddab1e4f013092538b6c5,2021-10-20_09h08.24.493,forced_choiceRT,2021.1.2,Win32,141.8439716,,,,,,,,9,Ontime,g,0,2.0904,9,2,38,0,1,,,,,
,0.92,,,,,,,,,j.PNG,j,615ddab1e4f013092538b6c5,2021-10-20_09h08.24.493,forced_choiceRT,2021.1.2,Win32,141.8439716,,,,,,,,9,Ontime,j,1,2.0304,9,3,39,3,1,,,,,
,,,,,,,,,,,,615ddab1e4f013092538b6c5,2021-10-20_09h08.24.493,forced_choiceRT,2021.1.2,Win32,141.8439716,,,,,,,,,,,,,,,,,,8,0,8,0,1
,1.69,,,,,,,,,g.PNG,g,615ddab1e4f013092538b6c5,2021-10-20_09h08.24.493,forced_choiceRT,2021.1.2,Win32,141.8439716,,,,,,,,10,Ontime,j,0,1.9952,0,0,0,1,1,,,,,
,1.34,,,,,,,,,h.PNG,h,615ddab1e4f013092538b6c5,2021-10-20_09h08.24.493,forced_choiceRT,2021.1.2,Win32,141.8439716,,,,,,,,10,Ontime,g,0,2.0279,0,1,1,2,1,,,,,
,1.09,,,,,,,,,f.PNG,f,615ddab1e4f013092538b6c5,2021-10-20_09h08.24.493,forced_choiceRT,2021.1.2,Win32,141.8439716,,,,,,,,10,Ontime,g,0,2.0149,0,2,2,0,1,,,,,
,0.38,,,,,,,,,j.PNG,j,615ddab1e4f013092538b6c5,2021-10-20_09h08.24.493,forced_choiceRT,2021.1.2,Win32,141.8439716,,,,,,,,10,Ontime,j,1,1.9239,0,3,3,3,1,,,,,
,1.56,,,,,,,,,g.PNG,g,615ddab1e4f013092538b6c5,2021-10-20_09h08.24.493,forced_choiceRT,2021.1.2,Win32,141.8439716,,,,,,,,10,Ontime,j,0,1.9546,1,0,4,1,1,,,,,
,0.05,,,,,,,,,g.PNG,g,615ddab1e4f013092538b6c5,2021-10-20_09h08.24.493,forced_choiceRT,2021.1.2,Win32,141.8439716,,,,,,,,10,Ontime,g,1,2.007,1,1,5,1,1,,,,,
,1.33,,,,,,,,,f.PNG,f,615ddab1e4f013092538b6c5,2021-10-20_09h08.24.493,forced_choiceRT,2021.1.2,Win32,141.8439716,,,,,,,,10,Ontime,f,1,2.0267,1,2,6,0,1,,,,,
,1.47,,,,,,,,,g.PNG,g,615ddab1e4f013092538b6c5,2021-10-20_09h08.24.493,forced_choiceRT,2021.1.2,Win32,141.8439716,,,,,,,,10,Ontime,g,1,2.0625,1,3,7,1,1,,,,,
,1.83,,,,,,,,,h.PNG,h,615ddab1e4f013092538b6c5,2021-10-20_09h08.24.493,forced_choiceRT,2021.1.2,Win32,141.8439716,,,,,,,,10,Ontime,g,0,2.0129,2,0,8,2,1,,,,,
,0.75,,,,,,,,,h.PNG,h,615ddab1e4f013092538b6c5,2021-10-20_09h08.24.493,forced_choiceRT,2021.1.2,Win32,141.8439716,,,,,,,,10,Ontime,j,0,2.0511,2,1,9,2,1,,,,,
,1.65,,,,,,,,,j.PNG,j,615ddab1e4f013092538b6c5,2021-10-20_09h08.24.493,forced_choiceRT,2021.1.2,Win32,141.8439716,,,,,,,,10,Ontime,j,1,2.016,2,2,10,3,1,,,,,
,1.95,,,,,,,,,h.PNG,h,615ddab1e4f013092538b6c5,2021-10-20_09h08.24.493,forced_choiceRT,2021.1.2,Win32,141.8439716,,,,,,,,10,Ontime,j,0,2.007,2,3,11,2,1,,,,,
,1.67,,,,,,,,,h.PNG,h,615ddab1e4f013092538b6c5,2021-10-20_09h08.24.493,forced_choiceRT,2021.1.2,Win32,141.8439716,,,,,,,,10,Ontime,g,0,1.932,3,0,12,2,1,,,,,
,1.54,,,,,,,,,f.PNG,f,615ddab1e4f013092538b6c5,2021-10-20_09h08.24.493,forced_choiceRT,2021.1.2,Win32,141.8439716,,,,,,,,10,Ontime,g,0,1.9333,3,1,13,0,1,,,,,
,1.32,,,,,,,,,j.PNG,j,615ddab1e4f013092538b6c5,2021-10-20_09h08.24.493,forced_choiceRT,2021.1.2,Win32,141.8439716,,,,,,,,10,Slow,j,1,2.1262,3,2,14,3,1,,,,,
,0.3,,,,,,,,,g.PNG,g,615ddab1e4f013092538b6c5,2021-10-20_09h08.24.493,forced_choiceRT,2021.1.2,Win32,141.8439716,,,,,,,,10,Ontime,g,1,1.9949,3,3,15,1,1,,,,,
,0.99,,,,,,,,,f.PNG,f,615ddab1e4f013092538b6c5,2021-10-20_09h08.24.493,forced_choiceRT,2021.1.2,Win32,141.8439716,,,,,,,,10,Ontime,f,1,2.0151,4,0,16,0,1,,,,,
,1.3,,,,,,,,,g.PNG,g,615ddab1e4f013092538b6c5,2021-10-20_09h08.24.493,forced_choiceRT,2021.1.2,Win32,141.8439716,,,,,,,,10,Ontime,h,0,2.0835,4,1,17,1,1,,,,,
,0.58,,,,,,,,,g.PNG,g,615ddab1e4f013092538b6c5,2021-10-20_09h08.24.493,forced_choiceRT,2021.1.2,Win32,141.8439716,,,,,,,,10,Ontime,j,0,1.9323,4,2,18,1,1,,,,,
,0.06,,,,,,,,,j.PNG,j,615ddab1e4f013092538b6c5,2021-10-20_09h08.24.493,forced_choiceRT,2021.1.2,Win32,141.8439716,,,,,,,,10,Ontime,j,1,1.9574,4,3,19,3,1,,,,,
,1.97,,,,,,,,,j.PNG,j,615ddab1e4f013092538b6c5,2021-10-20_09h08.24.493,forced_choiceRT,2021.1.2,Win32,141.8439716,,,,,,,,10,Fast,j,1,1.8853,5,0,20,3,1,,,,,
,1.33,,,,,,,,,h.PNG,h,615ddab1e4f013092538b6c5,2021-10-20_09h08.24.493,forced_choiceRT,2021.1.2,Win32,141.8439716,,,,,,,,10,Ontime,h,1,2.0685,5,1,21,2,1,,,,,
,0.27,,,,,,,,,h.PNG,h,615ddab1e4f013092538b6c5,2021-10-20_09h08.24.493,forced_choiceRT,2021.1.2,Win32,141.8439716,,,,,,,,10,Ontime,h,1,1.904,5,2,22,2,1,,,,,
,1.69,,,,,,,,,g.PNG,g,615ddab1e4f013092538b6c5,2021-10-20_09h08.24.493,forced_choiceRT,2021.1.2,Win32,141.8439716,,,,,,,,10,Ontime,h,0,2.0338,5,3,23,1,1,,,,,
,0.23,,,,,,,,,f.PNG,f,615ddab1e4f013092538b6c5,2021-10-20_09h08.24.493,forced_choiceRT,2021.1.2,Win32,141.8439716,,,,,,,,10,Ontime,g,0,1.907,6,0,24,0,1,,,,,
,0.87,,,,,,,,,j.PNG,j,615ddab1e4f013092538b6c5,2021-10-20_09h08.24.493,forced_choiceRT,2021.1.2,Win32,141.8439716,,,,,,,,10,Ontime,j,1,1.9916,6,1,25,3,1,,,,,
,1.74,,,,,,,,,f.PNG,f,615ddab1e4f013092538b6c5,2021-10-20_09h08.24.493,forced_choiceRT,2021.1.2,Win32,141.8439716,,,,,,,,10,Ontime,j,0,1.9409,6,2,26,0,1,,,,,
,0.17,,,,,,,,,j.PNG,j,615ddab1e4f013092538b6c5,2021-10-20_09h08.24.493,forced_choiceRT,2021.1.2,Win32,141.8439716,,,,,,,,10,Ontime,j,1,1.9965,6,3,27,3,1,,,,,
,0.03,,,,,,,,,j.PNG,j,615ddab1e4f013092538b6c5,2021-10-20_09h08.24.493,forced_choiceRT,2021.1.2,Win32,141.8439716,,,,,,,,10,Ontime,j,1,1.9863,7,0,28,3,1,,,,,
,1.2,,,,,,,,,f.PNG,f,615ddab1e4f013092538b6c5,2021-10-20_09h08.24.493,forced_choiceRT,2021.1.2,Win32,141.8439716,,,,,,,,10,Ontime,g,0,2.0201,7,1,29,0,1,,,,,
,1.23,,,,,,,,,h.PNG,h,615ddab1e4f013092538b6c5,2021-10-20_09h08.24.493,forced_choiceRT,2021.1.2,Win32,141.8439716,,,,,,,,10,Ontime,j,0,2.0434,7,2,30,2,1,,,,,
,1.18,,,,,,,,,f.PNG,f,615ddab1e4f013092538b6c5,2021-10-20_09h08.24.493,forced_choiceRT,2021.1.2,Win32,141.8439716,,,,,,,,10,Ontime,h,0,2.0221,7,3,31,0,1,,,,,
,0.32,,,,,,,,,g.PNG,g,615ddab1e4f013092538b6c5,2021-10-20_09h08.24.493,forced_choiceRT,2021.1.2,Win32,141.8439716,,,,,,,,10,Ontime,g,1,1.9557,8,0,32,1,1,,,,,
,0.72,,,,,,,,,h.PNG,h,615ddab1e4f013092538b6c5,2021-10-20_09h08.24.493,forced_choiceRT,2021.1.2,Win32,141.8439716,,,,,,,,10,Fast,h,1,1.695,8,1,33,2,1,,,,,
,1.95,,,,,,,,,j.PNG,j,615ddab1e4f013092538b6c5,2021-10-20_09h08.24.493,forced_choiceRT,2021.1.2,Win32,141.8439716,,,,,,,,10,Fast,j,1,1.8434,8,2,34,3,1,,,,,
,0.61,,,,,,,,,f.PNG,f,615ddab1e4f013092538b6c5,2021-10-20_09h08.24.493,forced_choiceRT,2021.1.2,Win32,141.8439716,,,,,,,,10,Ontime,g,0,2.0581,8,3,35,0,1,,,,,
,0.33,,,,,,,,,g.PNG,g,615ddab1e4f013092538b6c5,2021-10-20_09h08.24.493,forced_choiceRT,2021.1.2,Win32,141.8439716,,,,,,,,10,Ontime,g,1,1.9678,9,0,36,1,1,,,,,
,0.46,,,,,,,,,j.PNG,j,615ddab1e4f013092538b6c5,2021-10-20_09h08.24.493,forced_choiceRT,2021.1.2,Win32,141.8439716,,,,,,,,10,Ontime,j,1,1.9794,9,1,37,3,1,,,,,
,1.96,,,,,,,,,h.PNG,h,615ddab1e4f013092538b6c5,2021-10-20_09h08.24.493,forced_choiceRT,2021.1.2,Win32,141.8439716,,,,,,,,10,Ontime,h,1,1.9059,9,2,38,2,1,,,,,
,1.09,,,,,,,,,f.PNG,f,615ddab1e4f013092538b6c5,2021-10-20_09h08.24.493,forced_choiceRT,2021.1.2,Win32,141.8439716,,,,,,,,10,Ontime,g,0,2.0489,9,3,39,0,1,,,,,
,,,,,,,,,,,,615ddab1e4f013092538b6c5,2021-10-20_09h08.24.493,forced_choiceRT,2021.1.2,Win32,141.8439716,,,,,,,,,,,,,,,,,,9,0,9,0,1
