target_onset,trial_resp_sp.keys,trial_resp_sp.corr,trial_resp_sp.rt,trials_train_loop.thisRepN,trials_train_loop.thisTrialN,trials_train_loop.thisN,trials_train_loop.thisIndex,trials_train_loop.ran,pic,correct_key,participant,date,expName,psychopyVersion,OS,frameRate,trial_resp_timing.keys,trial_resp_timing.rt,trials_train_timing.thisRepN,trials_train_timing.thisTrialN,trials_train_timing.thisN,trials_train_timing.thisIndex,trials_train_timing.ran,block_id,ontime,forcedRT_resp.keys,forcedRT_resp.corr,forcedRT_resp.rt,trials.thisRepN,trials.thisTrialN,trials.thisN,trials.thisIndex,trials.ran,blocks.thisRepN,blocks.thisTrialN,blocks.thisN,blocks.thisIndex,blocks.ran
0,f,1,2.0862,0,0,0,0,1,f.PNG,f,616480e6749791ef8dcad5b3,2021-10-19_12h45.55.272,forced_choiceRT,2021.1.2,Win32,60.13229104,,,,,,,,,,,,,,,,,,,,,,
0,f,1,1.0809,0,1,1,0,1,f.PNG,f,616480e6749791ef8dcad5b3,2021-10-19_12h45.55.272,forced_choiceRT,2021.1.2,Win32,60.13229104,,,,,,,,,,,,,,,,,,,,,,
0,h,1,1.7069,0,2,2,2,1,h.PNG,h,616480e6749791ef8dcad5b3,2021-10-19_12h45.55.272,forced_choiceRT,2021.1.2,Win32,60.13229104,,,,,,,,,,,,,,,,,,,,,,
0,j,1,1.0334,0,3,3,3,1,j.PNG,j,616480e6749791ef8dcad5b3,2021-10-19_12h45.55.272,forced_choiceRT,2021.1.2,Win32,60.13229104,,,,,,,,,,,,,,,,,,,,,,
0,f,1,0.7358,1,0,4,0,1,f.PNG,f,616480e6749791ef8dcad5b3,2021-10-19_12h45.55.272,forced_choiceRT,2021.1.2,Win32,60.13229104,,,,,,,,,,,,,,,,,,,,,,
0,f,1,0.5653,1,1,5,0,1,f.PNG,f,616480e6749791ef8dcad5b3,2021-10-19_12h45.55.272,forced_choiceRT,2021.1.2,Win32,60.13229104,,,,,,,,,,,,,,,,,,,,,,
0,h,1,1.2237,1,2,6,2,1,h.PNG,h,616480e6749791ef8dcad5b3,2021-10-19_12h45.55.272,forced_choiceRT,2021.1.2,Win32,60.13229104,,,,,,,,,,,,,,,,,,,,,,
0,h,1,0.6118,1,3,7,2,1,h.PNG,h,616480e6749791ef8dcad5b3,2021-10-19_12h45.55.272,forced_choiceRT,2021.1.2,Win32,60.13229104,,,,,,,,,,,,,,,,,,,,,,
0,g,1,0.8846,2,0,8,1,1,g.PNG,g,616480e6749791ef8dcad5b3,2021-10-19_12h45.55.272,forced_choiceRT,2021.1.2,Win32,60.13229104,,,,,,,,,,,,,,,,,,,,,,
0,f,1,0.6999,2,1,9,0,1,f.PNG,f,616480e6749791ef8dcad5b3,2021-10-19_12h45.55.272,forced_choiceRT,2021.1.2,Win32,60.13229104,,,,,,,,,,,,,,,,,,,,,,
0,h,1,0.8868,2,2,10,2,1,h.PNG,h,616480e6749791ef8dcad5b3,2021-10-19_12h45.55.272,forced_choiceRT,2021.1.2,Win32,60.13229104,,,,,,,,,,,,,,,,,,,,,,
0,j,1,1.0659,2,3,11,3,1,j.PNG,j,616480e6749791ef8dcad5b3,2021-10-19_12h45.55.272,forced_choiceRT,2021.1.2,Win32,60.13229104,,,,,,,,,,,,,,,,,,,,,,
0,g,1,1.0119,3,0,12,1,1,g.PNG,g,616480e6749791ef8dcad5b3,2021-10-19_12h45.55.272,forced_choiceRT,2021.1.2,Win32,60.13229104,,,,,,,,,,,,,,,,,,,,,,
0,f,1,0.813,3,1,13,0,1,f.PNG,f,616480e6749791ef8dcad5b3,2021-10-19_12h45.55.272,forced_choiceRT,2021.1.2,Win32,60.13229104,,,,,,,,,,,,,,,,,,,,,,
0,g,1,0.7385,3,2,14,1,1,g.PNG,g,616480e6749791ef8dcad5b3,2021-10-19_12h45.55.272,forced_choiceRT,2021.1.2,Win32,60.13229104,,,,,,,,,,,,,,,,,,,,,,
0,j,1,1.0601,3,3,15,3,1,j.PNG,j,616480e6749791ef8dcad5b3,2021-10-19_12h45.55.272,forced_choiceRT,2021.1.2,Win32,60.13229104,,,,,,,,,,,,,,,,,,,,,,
0,h,1,0.6769,4,0,16,2,1,h.PNG,h,616480e6749791ef8dcad5b3,2021-10-19_12h45.55.272,forced_choiceRT,2021.1.2,Win32,60.13229104,,,,,,,,,,,,,,,,,,,,,,
0,f,1,0.7616,4,1,17,0,1,f.PNG,f,616480e6749791ef8dcad5b3,2021-10-19_12h45.55.272,forced_choiceRT,2021.1.2,Win32,60.13229104,,,,,,,,,,,,,,,,,,,,,,
0,j,1,0.7839,4,2,18,3,1,j.PNG,j,616480e6749791ef8dcad5b3,2021-10-19_12h45.55.272,forced_choiceRT,2021.1.2,Win32,60.13229104,,,,,,,,,,,,,,,,,,,,,,
0,h,1,1.0832,4,3,19,2,1,h.PNG,h,616480e6749791ef8dcad5b3,2021-10-19_12h45.55.272,forced_choiceRT,2021.1.2,Win32,60.13229104,,,,,,,,,,,,,,,,,,,,,,
0,g,1,0.5998,5,0,20,1,1,g.PNG,g,616480e6749791ef8dcad5b3,2021-10-19_12h45.55.272,forced_choiceRT,2021.1.2,Win32,60.13229104,,,,,,,,,,,,,,,,,,,,,,
0,j,1,0.8656,5,1,21,3,1,j.PNG,j,616480e6749791ef8dcad5b3,2021-10-19_12h45.55.272,forced_choiceRT,2021.1.2,Win32,60.13229104,,,,,,,,,,,,,,,,,,,,,,
0,h,0,0.9497,5,2,22,3,1,j.PNG,j,616480e6749791ef8dcad5b3,2021-10-19_12h45.55.272,forced_choiceRT,2021.1.2,Win32,60.13229104,,,,,,,,,,,,,,,,,,,,,,
0,f,1,1.0846,5,3,23,0,1,f.PNG,f,616480e6749791ef8dcad5b3,2021-10-19_12h45.55.272,forced_choiceRT,2021.1.2,Win32,60.13229104,,,,,,,,,,,,,,,,,,,,,,
0,h,1,0.9044,6,0,24,2,1,h.PNG,h,616480e6749791ef8dcad5b3,2021-10-19_12h45.55.272,forced_choiceRT,2021.1.2,Win32,60.13229104,,,,,,,,,,,,,,,,,,,,,,
0,f,1,0.7408,6,1,25,0,1,f.PNG,f,616480e6749791ef8dcad5b3,2021-10-19_12h45.55.272,forced_choiceRT,2021.1.2,Win32,60.13229104,,,,,,,,,,,,,,,,,,,,,,
0,h,1,1.1062,6,2,26,2,1,h.PNG,h,616480e6749791ef8dcad5b3,2021-10-19_12h45.55.272,forced_choiceRT,2021.1.2,Win32,60.13229104,,,,,,,,,,,,,,,,,,,,,,
0,h,1,0.6101,6,3,27,2,1,h.PNG,h,616480e6749791ef8dcad5b3,2021-10-19_12h45.55.272,forced_choiceRT,2021.1.2,Win32,60.13229104,,,,,,,,,,,,,,,,,,,,,,
0,j,1,1.0616,7,0,28,3,1,j.PNG,j,616480e6749791ef8dcad5b3,2021-10-19_12h45.55.272,forced_choiceRT,2021.1.2,Win32,60.13229104,,,,,,,,,,,,,,,,,,,,,,
0,g,1,0.7995,7,1,29,1,1,g.PNG,g,616480e6749791ef8dcad5b3,2021-10-19_12h45.55.272,forced_choiceRT,2021.1.2,Win32,60.13229104,,,,,,,,,,,,,,,,,,,,,,
0,g,1,0.554,7,2,30,1,1,g.PNG,g,616480e6749791ef8dcad5b3,2021-10-19_12h45.55.272,forced_choiceRT,2021.1.2,Win32,60.13229104,,,,,,,,,,,,,,,,,,,,,,
0,g,1,0.5625,7,3,31,1,1,g.PNG,g,616480e6749791ef8dcad5b3,2021-10-19_12h45.55.272,forced_choiceRT,2021.1.2,Win32,60.13229104,,,,,,,,,,,,,,,,,,,,,,
0,j,1,0.7095,8,0,32,3,1,j.PNG,j,616480e6749791ef8dcad5b3,2021-10-19_12h45.55.272,forced_choiceRT,2021.1.2,Win32,60.13229104,,,,,,,,,,,,,,,,,,,,,,
0,j,1,0.5223,8,1,33,3,1,j.PNG,j,616480e6749791ef8dcad5b3,2021-10-19_12h45.55.272,forced_choiceRT,2021.1.2,Win32,60.13229104,,,,,,,,,,,,,,,,,,,,,,
0,f,1,0.4629,8,2,34,0,1,f.PNG,f,616480e6749791ef8dcad5b3,2021-10-19_12h45.55.272,forced_choiceRT,2021.1.2,Win32,60.13229104,,,,,,,,,,,,,,,,,,,,,,
0,h,1,0.7011,8,3,35,2,1,h.PNG,h,616480e6749791ef8dcad5b3,2021-10-19_12h45.55.272,forced_choiceRT,2021.1.2,Win32,60.13229104,,,,,,,,,,,,,,,,,,,,,,
0,g,1,0.5954,9,0,36,1,1,g.PNG,g,616480e6749791ef8dcad5b3,2021-10-19_12h45.55.272,forced_choiceRT,2021.1.2,Win32,60.13229104,,,,,,,,,,,,,,,,,,,,,,
0,j,1,0.6269,9,1,37,3,1,j.PNG,j,616480e6749791ef8dcad5b3,2021-10-19_12h45.55.272,forced_choiceRT,2021.1.2,Win32,60.13229104,,,,,,,,,,,,,,,,,,,,,,
0,f,0,0.4065,9,2,38,1,1,g.PNG,g,616480e6749791ef8dcad5b3,2021-10-19_12h45.55.272,forced_choiceRT,2021.1.2,Win32,60.13229104,,,,,,,,,,,,,,,,,,,,,,
0,g,1,1.0898,9,3,39,1,1,g.PNG,g,616480e6749791ef8dcad5b3,2021-10-19_12h45.55.272,forced_choiceRT,2021.1.2,Win32,60.13229104,,,,,,,,,,,,,,,,,,,,,,
0,j,1,0.7662,10,0,40,3,1,j.PNG,j,616480e6749791ef8dcad5b3,2021-10-19_12h45.55.272,forced_choiceRT,2021.1.2,Win32,60.13229104,,,,,,,,,,,,,,,,,,,,,,
0,j,1,0.9349,10,1,41,3,1,j.PNG,j,616480e6749791ef8dcad5b3,2021-10-19_12h45.55.272,forced_choiceRT,2021.1.2,Win32,60.13229104,,,,,,,,,,,,,,,,,,,,,,
0,g,1,0.5411,10,2,42,1,1,g.PNG,g,616480e6749791ef8dcad5b3,2021-10-19_12h45.55.272,forced_choiceRT,2021.1.2,Win32,60.13229104,,,,,,,,,,,,,,,,,,,,,,
0,f,1,0.6808,10,3,43,0,1,f.PNG,f,616480e6749791ef8dcad5b3,2021-10-19_12h45.55.272,forced_choiceRT,2021.1.2,Win32,60.13229104,,,,,,,,,,,,,,,,,,,,,,
0,h,1,1.4092,11,0,44,2,1,h.PNG,h,616480e6749791ef8dcad5b3,2021-10-19_12h45.55.272,forced_choiceRT,2021.1.2,Win32,60.13229104,,,,,,,,,,,,,,,,,,,,,,
0,j,1,0.8833,11,1,45,3,1,j.PNG,j,616480e6749791ef8dcad5b3,2021-10-19_12h45.55.272,forced_choiceRT,2021.1.2,Win32,60.13229104,,,,,,,,,,,,,,,,,,,,,,
0,h,1,1.0265,11,2,46,2,1,h.PNG,h,616480e6749791ef8dcad5b3,2021-10-19_12h45.55.272,forced_choiceRT,2021.1.2,Win32,60.13229104,,,,,,,,,,,,,,,,,,,,,,
0,g,1,0.7531,11,3,47,1,1,g.PNG,g,616480e6749791ef8dcad5b3,2021-10-19_12h45.55.272,forced_choiceRT,2021.1.2,Win32,60.13229104,,,,,,,,,,,,,,,,,,,,,,
0,h,1,0.7607,12,0,48,2,1,h.PNG,h,616480e6749791ef8dcad5b3,2021-10-19_12h45.55.272,forced_choiceRT,2021.1.2,Win32,60.13229104,,,,,,,,,,,,,,,,,,,,,,
0,f,1,0.5359,12,1,49,0,1,f.PNG,f,616480e6749791ef8dcad5b3,2021-10-19_12h45.55.272,forced_choiceRT,2021.1.2,Win32,60.13229104,,,,,,,,,,,,,,,,,,,,,,
0,j,0,0.6771,12,2,50,2,1,h.PNG,h,616480e6749791ef8dcad5b3,2021-10-19_12h45.55.272,forced_choiceRT,2021.1.2,Win32,60.13229104,,,,,,,,,,,,,,,,,,,,,,
0,j,1,0.7222,12,3,51,3,1,j.PNG,j,616480e6749791ef8dcad5b3,2021-10-19_12h45.55.272,forced_choiceRT,2021.1.2,Win32,60.13229104,,,,,,,,,,,,,,,,,,,,,,
0,g,1,0.7213,13,0,52,1,1,g.PNG,g,616480e6749791ef8dcad5b3,2021-10-19_12h45.55.272,forced_choiceRT,2021.1.2,Win32,60.13229104,,,,,,,,,,,,,,,,,,,,,,
0,f,1,0.7269,13,1,53,0,1,f.PNG,f,616480e6749791ef8dcad5b3,2021-10-19_12h45.55.272,forced_choiceRT,2021.1.2,Win32,60.13229104,,,,,,,,,,,,,,,,,,,,,,
0,j,1,1.1209,13,2,54,3,1,j.PNG,j,616480e6749791ef8dcad5b3,2021-10-19_12h45.55.272,forced_choiceRT,2021.1.2,Win32,60.13229104,,,,,,,,,,,,,,,,,,,,,,
0,f,1,0.7001,13,3,55,0,1,f.PNG,f,616480e6749791ef8dcad5b3,2021-10-19_12h45.55.272,forced_choiceRT,2021.1.2,Win32,60.13229104,,,,,,,,,,,,,,,,,,,,,,
0,g,1,0.7939,14,0,56,1,1,g.PNG,g,616480e6749791ef8dcad5b3,2021-10-19_12h45.55.272,forced_choiceRT,2021.1.2,Win32,60.13229104,,,,,,,,,,,,,,,,,,,,,,
0,f,1,0.6888,14,1,57,0,1,f.PNG,f,616480e6749791ef8dcad5b3,2021-10-19_12h45.55.272,forced_choiceRT,2021.1.2,Win32,60.13229104,,,,,,,,,,,,,,,,,,,,,,
0,h,1,1.1426,14,2,58,2,1,h.PNG,h,616480e6749791ef8dcad5b3,2021-10-19_12h45.55.272,forced_choiceRT,2021.1.2,Win32,60.13229104,,,,,,,,,,,,,,,,,,,,,,
0,g,1,0.781,14,3,59,1,1,g.PNG,g,616480e6749791ef8dcad5b3,2021-10-19_12h45.55.272,forced_choiceRT,2021.1.2,Win32,60.13229104,,,,,,,,,,,,,,,,,,,,,,
,,,,,,,,,,,616480e6749791ef8dcad5b3,2021-10-19_12h45.55.272,forced_choiceRT,2021.1.2,Win32,60.13229104,g,2.2578,0,0,0,0,1,,,,,,,,,,,,,,,
,,,,,,,,,,,616480e6749791ef8dcad5b3,2021-10-19_12h45.55.272,forced_choiceRT,2021.1.2,Win32,60.13229104,g,1.7338,1,0,1,0,1,,,,,,,,,,,,,,,
,,,,,,,,,,,616480e6749791ef8dcad5b3,2021-10-19_12h45.55.272,forced_choiceRT,2021.1.2,Win32,60.13229104,g,2.2145,2,0,2,0,1,,,,,,,,,,,,,,,
,,,,,,,,,,,616480e6749791ef8dcad5b3,2021-10-19_12h45.55.272,forced_choiceRT,2021.1.2,Win32,60.13229104,h,2.0332,3,0,3,0,1,,,,,,,,,,,,,,,
,,,,,,,,,,,616480e6749791ef8dcad5b3,2021-10-19_12h45.55.272,forced_choiceRT,2021.1.2,Win32,60.13229104,h,2.0407,4,0,4,0,1,,,,,,,,,,,,,,,
,,,,,,,,,,,616480e6749791ef8dcad5b3,2021-10-19_12h45.55.272,forced_choiceRT,2021.1.2,Win32,60.13229104,h,2.0027,5,0,5,0,1,,,,,,,,,,,,,,,
,,,,,,,,,,,616480e6749791ef8dcad5b3,2021-10-19_12h45.55.272,forced_choiceRT,2021.1.2,Win32,60.13229104,h,2.0203,6,0,6,0,1,,,,,,,,,,,,,,,
,,,,,,,,,,,616480e6749791ef8dcad5b3,2021-10-19_12h45.55.272,forced_choiceRT,2021.1.2,Win32,60.13229104,h,1.9731,7,0,7,0,1,,,,,,,,,,,,,,,
,,,,,,,,,,,616480e6749791ef8dcad5b3,2021-10-19_12h45.55.272,forced_choiceRT,2021.1.2,Win32,60.13229104,h,1.9888,8,0,8,0,1,,,,,,,,,,,,,,,
,,,,,,,,,,,616480e6749791ef8dcad5b3,2021-10-19_12h45.55.272,forced_choiceRT,2021.1.2,Win32,60.13229104,h,2.0079,9,0,9,0,1,,,,,,,,,,,,,,,
,,,,,,,,,,,616480e6749791ef8dcad5b3,2021-10-19_12h45.55.272,forced_choiceRT,2021.1.2,Win32,60.13229104,h,2.0462,10,0,10,0,1,,,,,,,,,,,,,,,
,,,,,,,,,,,616480e6749791ef8dcad5b3,2021-10-19_12h45.55.272,forced_choiceRT,2021.1.2,Win32,60.13229104,h,1.9435,11,0,11,0,1,,,,,,,,,,,,,,,
,,,,,,,,,,,616480e6749791ef8dcad5b3,2021-10-19_12h45.55.272,forced_choiceRT,2021.1.2,Win32,60.13229104,h,2.1068,12,0,12,0,1,,,,,,,,,,,,,,,
,,,,,,,,,,,616480e6749791ef8dcad5b3,2021-10-19_12h45.55.272,forced_choiceRT,2021.1.2,Win32,60.13229104,h,2.0068,13,0,13,0,1,,,,,,,,,,,,,,,
,,,,,,,,,,,616480e6749791ef8dcad5b3,2021-10-19_12h45.55.272,forced_choiceRT,2021.1.2,Win32,60.13229104,h,2.0391,14,0,14,0,1,,,,,,,,,,,,,,,
,,,,,,,,,,,616480e6749791ef8dcad5b3,2021-10-19_12h45.55.272,forced_choiceRT,2021.1.2,Win32,60.13229104,h,2.0412,15,0,15,0,1,,,,,,,,,,,,,,,
,,,,,,,,,,,616480e6749791ef8dcad5b3,2021-10-19_12h45.55.272,forced_choiceRT,2021.1.2,Win32,60.13229104,h,2.002,16,0,16,0,1,,,,,,,,,,,,,,,
,,,,,,,,,,,616480e6749791ef8dcad5b3,2021-10-19_12h45.55.272,forced_choiceRT,2021.1.2,Win32,60.13229104,h,1.9672,17,0,17,0,1,,,,,,,,,,,,,,,
,,,,,,,,,,,616480e6749791ef8dcad5b3,2021-10-19_12h45.55.272,forced_choiceRT,2021.1.2,Win32,60.13229104,h,1.9609,18,0,18,0,1,,,,,,,,,,,,,,,
,,,,,,,,,,,616480e6749791ef8dcad5b3,2021-10-19_12h45.55.272,forced_choiceRT,2021.1.2,Win32,60.13229104,h,1.9349,19,0,19,0,1,,,,,,,,,,,,,,,
1.4,,,,,,,,,g.PNG,g,616480e6749791ef8dcad5b3,2021-10-19_12h45.55.272,forced_choiceRT,2021.1.2,Win32,60.13229104,,,,,,,,1,Slow,g,1,2.2195,0,0,0,1,1,,,,,
1.85,,,,,,,,,j.PNG,j,616480e6749791ef8dcad5b3,2021-10-19_12h45.55.272,forced_choiceRT,2021.1.2,Win32,60.13229104,,,,,,,,1,Slow,f,0,2.2096,0,1,1,3,1,,,,,
1.63,,,,,,,,,h.PNG,h,616480e6749791ef8dcad5b3,2021-10-19_12h45.55.272,forced_choiceRT,2021.1.2,Win32,60.13229104,,,,,,,,1,Ontime,g,0,1.9453,0,2,2,2,1,,,,,
1.66,,,,,,,,,h.PNG,h,616480e6749791ef8dcad5b3,2021-10-19_12h45.55.272,forced_choiceRT,2021.1.2,Win32,60.13229104,,,,,,,,1,Slow,h,1,2.2296,0,3,3,2,1,,,,,
0.89,,,,,,,,,g.PNG,g,616480e6749791ef8dcad5b3,2021-10-19_12h45.55.272,forced_choiceRT,2021.1.2,Win32,60.13229104,,,,,,,,1,Fast,g,1,1.8992,1,0,4,1,1,,,,,
1.01,,,,,,,,,f.PNG,f,616480e6749791ef8dcad5b3,2021-10-19_12h45.55.272,forced_choiceRT,2021.1.2,Win32,60.13229104,,,,,,,,1,Fast,f,1,1.8668,1,1,5,0,1,,,,,
0.19,,,,,,,,,g.PNG,g,616480e6749791ef8dcad5b3,2021-10-19_12h45.55.272,forced_choiceRT,2021.1.2,Win32,60.13229104,,,,,,,,1,Fast,h,0,1.7492,1,2,6,1,1,,,,,
0.41,,,,,,,,,j.PNG,j,616480e6749791ef8dcad5b3,2021-10-19_12h45.55.272,forced_choiceRT,2021.1.2,Win32,60.13229104,,,,,,,,1,Ontime,j,1,2.0117,1,3,7,3,1,,,,,
1.7,,,,,,,,,j.PNG,j,616480e6749791ef8dcad5b3,2021-10-19_12h45.55.272,forced_choiceRT,2021.1.2,Win32,60.13229104,,,,,,,,1,Slow,h,0,2.2753,2,0,8,3,1,,,,,
1.17,,,,,,,,,h.PNG,h,616480e6749791ef8dcad5b3,2021-10-19_12h45.55.272,forced_choiceRT,2021.1.2,Win32,60.13229104,,,,,,,,1,Ontime,h,1,2.0616,2,1,9,2,1,,,,,
1.78,,,,,,,,,j.PNG,j,616480e6749791ef8dcad5b3,2021-10-19_12h45.55.272,forced_choiceRT,2021.1.2,Win32,60.13229104,,,,,,,,1,Slow,j,1,2.3831,2,2,10,3,1,,,,,
0.55,,,,,,,,,f.PNG,f,616480e6749791ef8dcad5b3,2021-10-19_12h45.55.272,forced_choiceRT,2021.1.2,Win32,60.13229104,,,,,,,,1,Ontime,f,1,1.9776,2,3,11,0,1,,,,,
0.71,,,,,,,,,f.PNG,f,616480e6749791ef8dcad5b3,2021-10-19_12h45.55.272,forced_choiceRT,2021.1.2,Win32,60.13229104,,,,,,,,1,Ontime,f,1,2.041,3,0,12,0,1,,,,,
1.87,,,,,,,,,g.PNG,g,616480e6749791ef8dcad5b3,2021-10-19_12h45.55.272,forced_choiceRT,2021.1.2,Win32,60.13229104,,,,,,,,1,Slow,j,0,2.1715,3,1,13,1,1,,,,,
1.55,,,,,,,,,f.PNG,f,616480e6749791ef8dcad5b3,2021-10-19_12h45.55.272,forced_choiceRT,2021.1.2,Win32,60.13229104,,,,,,,,1,Slow,f,1,2.2006,3,2,14,0,1,,,,,
0.34,,,,,,,,,h.PNG,h,616480e6749791ef8dcad5b3,2021-10-19_12h45.55.272,forced_choiceRT,2021.1.2,Win32,60.13229104,,,,,,,,1,Fast,h,1,1.7398,3,3,15,2,1,,,,,
1.17,,,,,,,,,f.PNG,f,616480e6749791ef8dcad5b3,2021-10-19_12h45.55.272,forced_choiceRT,2021.1.2,Win32,60.13229104,,,,,,,,1,Ontime,f,1,1.9922,4,0,16,0,1,,,,,
0.18,,,,,,,,,h.PNG,h,616480e6749791ef8dcad5b3,2021-10-19_12h45.55.272,forced_choiceRT,2021.1.2,Win32,60.13229104,,,,,,,,1,Fast,h,1,1.7661,4,1,17,2,1,,,,,
0.2,,,,,,,,,f.PNG,f,616480e6749791ef8dcad5b3,2021-10-19_12h45.55.272,forced_choiceRT,2021.1.2,Win32,60.13229104,,,,,,,,1,Ontime,f,1,1.9668,4,2,18,0,1,,,,,
0.6,,,,,,,,,h.PNG,h,616480e6749791ef8dcad5b3,2021-10-19_12h45.55.272,forced_choiceRT,2021.1.2,Win32,60.13229104,,,,,,,,1,Ontime,h,1,1.9334,4,3,19,2,1,,,,,
1.5,,,,,,,,,j.PNG,j,616480e6749791ef8dcad5b3,2021-10-19_12h45.55.272,forced_choiceRT,2021.1.2,Win32,60.13229104,,,,,,,,1,Slow,j,1,2.1441,5,0,20,3,1,,,,,
1.18,,,,,,,,,g.PNG,g,616480e6749791ef8dcad5b3,2021-10-19_12h45.55.272,forced_choiceRT,2021.1.2,Win32,60.13229104,,,,,,,,1,Ontime,g,1,1.9537,5,1,21,1,1,,,,,
1.43,,,,,,,,,g.PNG,g,616480e6749791ef8dcad5b3,2021-10-19_12h45.55.272,forced_choiceRT,2021.1.2,Win32,60.13229104,,,,,,,,1,Ontime,g,1,2.045,5,2,22,1,1,,,,,
1.2,,,,,,,,,j.PNG,j,616480e6749791ef8dcad5b3,2021-10-19_12h45.55.272,forced_choiceRT,2021.1.2,Win32,60.13229104,,,,,,,,1,Ontime,j,1,1.9283,5,3,23,3,1,,,,,
1.79,,,,,,,,,j.PNG,j,616480e6749791ef8dcad5b3,2021-10-19_12h45.55.272,forced_choiceRT,2021.1.2,Win32,60.13229104,,,,,,,,1,Ontime,h,0,2.0978,6,0,24,3,1,,,,,
0.58,,,,,,,,,g.PNG,g,616480e6749791ef8dcad5b3,2021-10-19_12h45.55.272,forced_choiceRT,2021.1.2,Win32,60.13229104,,,,,,,,1,Fast,g,1,1.8613,6,1,25,1,1,,,,,
0.3,,,,,,,,,j.PNG,j,616480e6749791ef8dcad5b3,2021-10-19_12h45.55.272,forced_choiceRT,2021.1.2,Win32,60.13229104,,,,,,,,1,Ontime,j,1,1.9251,6,2,26,3,1,,,,,
0.83,,,,,,,,,f.PNG,f,616480e6749791ef8dcad5b3,2021-10-19_12h45.55.272,forced_choiceRT,2021.1.2,Win32,60.13229104,,,,,,,,1,Ontime,f,1,2.0092,6,3,27,0,1,,,,,
0.44,,,,,,,,,f.PNG,f,616480e6749791ef8dcad5b3,2021-10-19_12h45.55.272,forced_choiceRT,2021.1.2,Win32,60.13229104,,,,,,,,1,Ontime,f,1,1.9492,7,0,28,0,1,,,,,
1.23,,,,,,,,,h.PNG,h,616480e6749791ef8dcad5b3,2021-10-19_12h45.55.272,forced_choiceRT,2021.1.2,Win32,60.13229104,,,,,,,,1,Ontime,g,0,1.9187,7,1,29,2,1,,,,,
0.55,,,,,,,,,h.PNG,h,616480e6749791ef8dcad5b3,2021-10-19_12h45.55.272,forced_choiceRT,2021.1.2,Win32,60.13229104,,,,,,,,1,Ontime,h,1,2.0531,7,2,30,2,1,,,,,
1.13,,,,,,,,,h.PNG,h,616480e6749791ef8dcad5b3,2021-10-19_12h45.55.272,forced_choiceRT,2021.1.2,Win32,60.13229104,,,,,,,,1,Fast,g,0,1.8458,7,3,31,2,1,,,,,
1.63,,,,,,,,,g.PNG,g,616480e6749791ef8dcad5b3,2021-10-19_12h45.55.272,forced_choiceRT,2021.1.2,Win32,60.13229104,,,,,,,,1,Ontime,g,1,2.0225,8,0,32,1,1,,,,,
0.01,,,,,,,,,f.PNG,f,616480e6749791ef8dcad5b3,2021-10-19_12h45.55.272,forced_choiceRT,2021.1.2,Win32,60.13229104,,,,,,,,1,Slow,f,1,2.1068,8,1,33,0,1,,,,,
1.51,,,,,,,,,j.PNG,j,616480e6749791ef8dcad5b3,2021-10-19_12h45.55.272,forced_choiceRT,2021.1.2,Win32,60.13229104,,,,,,,,1,Slow,j,1,2.1471,8,2,34,3,1,,,,,
0.78,,,,,,,,,j.PNG,j,616480e6749791ef8dcad5b3,2021-10-19_12h45.55.272,forced_choiceRT,2021.1.2,Win32,60.13229104,,,,,,,,1,Fast,j,1,1.8332,8,3,35,3,1,,,,,
0.62,,,,,,,,,g.PNG,g,616480e6749791ef8dcad5b3,2021-10-19_12h45.55.272,forced_choiceRT,2021.1.2,Win32,60.13229104,,,,,,,,1,Fast,h,0,1.8613,9,0,36,1,1,,,,,
0.12,,,,,,,,,g.PNG,g,616480e6749791ef8dcad5b3,2021-10-19_12h45.55.272,forced_choiceRT,2021.1.2,Win32,60.13229104,,,,,,,,1,Ontime,h,0,2.0269,9,1,37,1,1,,,,,
1.34,,,,,,,,,f.PNG,f,616480e6749791ef8dcad5b3,2021-10-19_12h45.55.272,forced_choiceRT,2021.1.2,Win32,60.13229104,,,,,,,,1,Ontime,f,1,1.9618,9,2,38,0,1,,,,,
0.68,,,,,,,,,h.PNG,h,616480e6749791ef8dcad5b3,2021-10-19_12h45.55.272,forced_choiceRT,2021.1.2,Win32,60.13229104,,,,,,,,1,Ontime,h,1,2.0334,9,3,39,2,1,,,,,
,,,,,,,,,,,616480e6749791ef8dcad5b3,2021-10-19_12h45.55.272,forced_choiceRT,2021.1.2,Win32,60.13229104,,,,,,,,,,,,,,,,,,0,0,0,0,1
1.24,,,,,,,,,h.PNG,h,616480e6749791ef8dcad5b3,2021-10-19_12h45.55.272,forced_choiceRT,2021.1.2,Win32,60.13229104,,,,,,,,2,Fast,h,1,1.8452,0,0,0,2,1,,,,,
1.16,,,,,,,,,j.PNG,j,616480e6749791ef8dcad5b3,2021-10-19_12h45.55.272,forced_choiceRT,2021.1.2,Win32,60.13229104,,,,,,,,2,Slow,j,1,2.1132,0,1,1,3,1,,,,,
1.98,,,,,,,,,h.PNG,h,616480e6749791ef8dcad5b3,2021-10-19_12h45.55.272,forced_choiceRT,2021.1.2,Win32,60.13229104,,,,,,,,2,Slow,f,0,2.1165,0,2,2,2,1,,,,,
1.57,,,,,,,,,j.PNG,j,616480e6749791ef8dcad5b3,2021-10-19_12h45.55.272,forced_choiceRT,2021.1.2,Win32,60.13229104,,,,,,,,2,Ontime,h,0,1.9669,0,3,3,3,1,,,,,
1.88,,,,,,,,,j.PNG,j,616480e6749791ef8dcad5b3,2021-10-19_12h45.55.272,forced_choiceRT,2021.1.2,Win32,60.13229104,,,,,,,,2,Slow,h,0,2.1793,1,0,4,3,1,,,,,
0.45,,,,,,,,,j.PNG,j,616480e6749791ef8dcad5b3,2021-10-19_12h45.55.272,forced_choiceRT,2021.1.2,Win32,60.13229104,,,,,,,,2,Ontime,j,1,1.9774,1,1,5,3,1,,,,,
1.54,,,,,,,,,f.PNG,f,616480e6749791ef8dcad5b3,2021-10-19_12h45.55.272,forced_choiceRT,2021.1.2,Win32,60.13229104,,,,,,,,2,Ontime,f,1,2.0725,1,2,6,0,1,,,,,
1.81,,,,,,,,,f.PNG,f,616480e6749791ef8dcad5b3,2021-10-19_12h45.55.272,forced_choiceRT,2021.1.2,Win32,60.13229104,,,,,,,,2,Slow,g,0,2.1394,1,3,7,0,1,,,,,
0.26,,,,,,,,,h.PNG,h,616480e6749791ef8dcad5b3,2021-10-19_12h45.55.272,forced_choiceRT,2021.1.2,Win32,60.13229104,,,,,,,,2,Ontime,h,1,1.9323,2,0,8,2,1,,,,,
0.57,,,,,,,,,h.PNG,h,616480e6749791ef8dcad5b3,2021-10-19_12h45.55.272,forced_choiceRT,2021.1.2,Win32,60.13229104,,,,,,,,2,Ontime,h,1,2.0277,2,1,9,2,1,,,,,
0.7,,,,,,,,,f.PNG,f,616480e6749791ef8dcad5b3,2021-10-19_12h45.55.272,forced_choiceRT,2021.1.2,Win32,60.13229104,,,,,,,,2,Ontime,f,1,1.9254,2,2,10,0,1,,,,,
1.41,,,,,,,,,j.PNG,j,616480e6749791ef8dcad5b3,2021-10-19_12h45.55.272,forced_choiceRT,2021.1.2,Win32,60.13229104,,,,,,,,2,Fast,j,1,1.8833,2,3,11,3,1,,,,,
1.23,,,,,,,,,h.PNG,h,616480e6749791ef8dcad5b3,2021-10-19_12h45.55.272,forced_choiceRT,2021.1.2,Win32,60.13229104,,,,,,,,2,Fast,h,1,1.8826,3,0,12,2,1,,,,,
1.54,,,,,,,,,h.PNG,h,616480e6749791ef8dcad5b3,2021-10-19_12h45.55.272,forced_choiceRT,2021.1.2,Win32,60.13229104,,,,,,,,2,Ontime,h,1,2.0679,3,1,13,2,1,,,,,
0.62,,,,,,,,,f.PNG,f,616480e6749791ef8dcad5b3,2021-10-19_12h45.55.272,forced_choiceRT,2021.1.2,Win32,60.13229104,,,,,,,,2,Ontime,f,1,2.001,3,2,14,0,1,,,,,
0.19,,,,,,,,,f.PNG,f,616480e6749791ef8dcad5b3,2021-10-19_12h45.55.272,forced_choiceRT,2021.1.2,Win32,60.13229104,,,,,,,,2,Ontime,f,1,2.0168,3,3,15,0,1,,,,,
1.85,,,,,,,,,f.PNG,f,616480e6749791ef8dcad5b3,2021-10-19_12h45.55.272,forced_choiceRT,2021.1.2,Win32,60.13229104,,,,,,,,2,Ontime,j,0,2.0262,4,0,16,0,1,,,,,
1.99,,,,,,,,,g.PNG,g,616480e6749791ef8dcad5b3,2021-10-19_12h45.55.272,forced_choiceRT,2021.1.2,Win32,60.13229104,,,,,,,,2,Ontime,f,0,1.9563,4,1,17,1,1,,,,,
0.5,,,,,,,,,h.PNG,h,616480e6749791ef8dcad5b3,2021-10-19_12h45.55.272,forced_choiceRT,2021.1.2,Win32,60.13229104,,,,,,,,2,Ontime,h,1,1.9916,4,2,18,2,1,,,,,
0.68,,,,,,,,,g.PNG,g,616480e6749791ef8dcad5b3,2021-10-19_12h45.55.272,forced_choiceRT,2021.1.2,Win32,60.13229104,,,,,,,,2,Ontime,g,1,1.9255,4,3,19,1,1,,,,,
0.83,,,,,,,,,f.PNG,f,616480e6749791ef8dcad5b3,2021-10-19_12h45.55.272,forced_choiceRT,2021.1.2,Win32,60.13229104,,,,,,,,2,Ontime,f,1,1.9243,5,0,20,0,1,,,,,
0.33,,,,,,,,,j.PNG,j,616480e6749791ef8dcad5b3,2021-10-19_12h45.55.272,forced_choiceRT,2021.1.2,Win32,60.13229104,,,,,,,,2,Ontime,j,1,2.0468,5,1,21,3,1,,,,,
0.76,,,,,,,,,g.PNG,g,616480e6749791ef8dcad5b3,2021-10-19_12h45.55.272,forced_choiceRT,2021.1.2,Win32,60.13229104,,,,,,,,2,Ontime,g,1,1.925,5,2,22,1,1,,,,,
0.08,,,,,,,,,g.PNG,g,616480e6749791ef8dcad5b3,2021-10-19_12h45.55.272,forced_choiceRT,2021.1.2,Win32,60.13229104,,,,,,,,2,Slow,g,1,2.117,5,3,23,1,1,,,,,
0.61,,,,,,,,,h.PNG,h,616480e6749791ef8dcad5b3,2021-10-19_12h45.55.272,forced_choiceRT,2021.1.2,Win32,60.13229104,,,,,,,,2,Ontime,h,1,2.0217,6,0,24,2,1,,,,,
1.46,,,,,,,,,g.PNG,g,616480e6749791ef8dcad5b3,2021-10-19_12h45.55.272,forced_choiceRT,2021.1.2,Win32,60.13229104,,,,,,,,2,Ontime,j,0,1.9685,6,1,25,1,1,,,,,
1.7,,,,,,,,,h.PNG,h,616480e6749791ef8dcad5b3,2021-10-19_12h45.55.272,forced_choiceRT,2021.1.2,Win32,60.13229104,,,,,,,,2,Slow,h,1,2.135,6,2,26,2,1,,,,,
0.14,,,,,,,,,f.PNG,f,616480e6749791ef8dcad5b3,2021-10-19_12h45.55.272,forced_choiceRT,2021.1.2,Win32,60.13229104,,,,,,,,2,Ontime,f,1,1.9785,6,3,27,0,1,,,,,
1.88,,,,,,,,,j.PNG,j,616480e6749791ef8dcad5b3,2021-10-19_12h45.55.272,forced_choiceRT,2021.1.2,Win32,60.13229104,,,,,,,,2,Slow,g,0,2.2428,7,0,28,3,1,,,,,
0.23,,,,,,,,,g.PNG,g,616480e6749791ef8dcad5b3,2021-10-19_12h45.55.272,forced_choiceRT,2021.1.2,Win32,60.13229104,,,,,,,,2,Ontime,g,1,1.9952,7,1,29,1,1,,,,,
1.99,,,,,,,,,g.PNG,g,616480e6749791ef8dcad5b3,2021-10-19_12h45.55.272,forced_choiceRT,2021.1.2,Win32,60.13229104,,,,,,,,2,Slow,h,0,2.159,7,2,30,1,1,,,,,
0.16,,,,,,,,,f.PNG,f,616480e6749791ef8dcad5b3,2021-10-19_12h45.55.272,forced_choiceRT,2021.1.2,Win32,60.13229104,,,,,,,,2,Ontime,f,1,2.0505,7,3,31,0,1,,,,,
1.77,,,,,,,,,g.PNG,g,616480e6749791ef8dcad5b3,2021-10-19_12h45.55.272,forced_choiceRT,2021.1.2,Win32,60.13229104,,,,,,,,2,Slow,h,0,2.1269,8,0,32,1,1,,,,,
1.81,,,,,,,,,h.PNG,h,616480e6749791ef8dcad5b3,2021-10-19_12h45.55.272,forced_choiceRT,2021.1.2,Win32,60.13229104,,,,,,,,2,Ontime,g,0,1.9837,8,1,33,2,1,,,,,
1.31,,,,,,,,,g.PNG,g,616480e6749791ef8dcad5b3,2021-10-19_12h45.55.272,forced_choiceRT,2021.1.2,Win32,60.13229104,,,,,,,,2,Ontime,g,1,1.9094,8,2,34,1,1,,,,,
0.42,,,,,,,,,g.PNG,g,616480e6749791ef8dcad5b3,2021-10-19_12h45.55.272,forced_choiceRT,2021.1.2,Win32,60.13229104,,,,,,,,2,Ontime,g,1,2.0329,8,3,35,1,1,,,,,
1.99,,,,,,,,,f.PNG,f,616480e6749791ef8dcad5b3,2021-10-19_12h45.55.272,forced_choiceRT,2021.1.2,Win32,60.13229104,,,,,,,,2,Ontime,f,1,2.0162,9,0,36,0,1,,,,,
1.66,,,,,,,,,j.PNG,j,616480e6749791ef8dcad5b3,2021-10-19_12h45.55.272,forced_choiceRT,2021.1.2,Win32,60.13229104,,,,,,,,2,Ontime,h,0,1.9395,9,1,37,3,1,,,,,
1.74,,,,,,,,,j.PNG,j,616480e6749791ef8dcad5b3,2021-10-19_12h45.55.272,forced_choiceRT,2021.1.2,Win32,60.13229104,,,,,,,,2,Fast,j,1,1.8921,9,2,38,3,1,,,,,
1.28,,,,,,,,,j.PNG,j,616480e6749791ef8dcad5b3,2021-10-19_12h45.55.272,forced_choiceRT,2021.1.2,Win32,60.13229104,,,,,,,,2,Ontime,j,1,1.9515,9,3,39,3,1,,,,,
,,,,,,,,,,,616480e6749791ef8dcad5b3,2021-10-19_12h45.55.272,forced_choiceRT,2021.1.2,Win32,60.13229104,,,,,,,,,,,,,,,,,,1,0,1,0,1
1.79,,,,,,,,,g.PNG,g,616480e6749791ef8dcad5b3,2021-10-19_12h45.55.272,forced_choiceRT,2021.1.2,Win32,60.13229104,,,,,,,,3,Fast,g,1,1.7333,0,0,0,1,1,,,,,
1.77,,,,,,,,,j.PNG,j,616480e6749791ef8dcad5b3,2021-10-19_12h45.55.272,forced_choiceRT,2021.1.2,Win32,60.13229104,,,,,,,,3,Ontime,h,0,1.9828,0,1,1,3,1,,,,,
1.81,,,,,,,,,j.PNG,j,616480e6749791ef8dcad5b3,2021-10-19_12h45.55.272,forced_choiceRT,2021.1.2,Win32,60.13229104,,,,,,,,3,Ontime,f,0,1.9964,0,2,2,3,1,,,,,
1.84,,,,,,,,,g.PNG,g,616480e6749791ef8dcad5b3,2021-10-19_12h45.55.272,forced_choiceRT,2021.1.2,Win32,60.13229104,,,,,,,,3,Ontime,j,0,2.0284,0,3,3,1,1,,,,,
0.45,,,,,,,,,j.PNG,j,616480e6749791ef8dcad5b3,2021-10-19_12h45.55.272,forced_choiceRT,2021.1.2,Win32,60.13229104,,,,,,,,3,Ontime,j,1,1.9723,1,0,4,3,1,,,,,
1.38,,,,,,,,,g.PNG,g,616480e6749791ef8dcad5b3,2021-10-19_12h45.55.272,forced_choiceRT,2021.1.2,Win32,60.13229104,,,,,,,,3,Ontime,g,1,1.9631,1,1,5,1,1,,,,,
0.18,,,,,,,,,h.PNG,h,616480e6749791ef8dcad5b3,2021-10-19_12h45.55.272,forced_choiceRT,2021.1.2,Win32,60.13229104,,,,,,,,3,Ontime,h,1,1.9728,1,2,6,2,1,,,,,
1.05,,,,,,,,,j.PNG,j,616480e6749791ef8dcad5b3,2021-10-19_12h45.55.272,forced_choiceRT,2021.1.2,Win32,60.13229104,,,,,,,,3,Ontime,j,1,1.9605,1,3,7,3,1,,,,,
1.99,,,,,,,,,h.PNG,h,616480e6749791ef8dcad5b3,2021-10-19_12h45.55.272,forced_choiceRT,2021.1.2,Win32,60.13229104,,,,,,,,3,Slow,j,0,2.249,2,0,8,2,1,,,,,
1.18,,,,,,,,,g.PNG,g,616480e6749791ef8dcad5b3,2021-10-19_12h45.55.272,forced_choiceRT,2021.1.2,Win32,60.13229104,,,,,,,,3,Fast,g,1,1.849,2,1,9,1,1,,,,,
0.15,,,,,,,,,f.PNG,f,616480e6749791ef8dcad5b3,2021-10-19_12h45.55.272,forced_choiceRT,2021.1.2,Win32,60.13229104,,,,,,,,3,Ontime,f,1,1.9824,2,2,10,0,1,,,,,
0.89,,,,,,,,,g.PNG,g,616480e6749791ef8dcad5b3,2021-10-19_12h45.55.272,forced_choiceRT,2021.1.2,Win32,60.13229104,,,,,,,,3,Ontime,g,1,1.972,2,3,11,1,1,,,,,
1.53,,,,,,,,,f.PNG,f,616480e6749791ef8dcad5b3,2021-10-19_12h45.55.272,forced_choiceRT,2021.1.2,Win32,60.13229104,,,,,,,,3,Fast,f,1,1.801,3,0,12,0,1,,,,,
1.41,,,,,,,,,g.PNG,g,616480e6749791ef8dcad5b3,2021-10-19_12h45.55.272,forced_choiceRT,2021.1.2,Win32,60.13229104,,,,,,,,3,Ontime,h,0,1.9011,3,1,13,1,1,,,,,
0.83,,,,,,,,,h.PNG,h,616480e6749791ef8dcad5b3,2021-10-19_12h45.55.272,forced_choiceRT,2021.1.2,Win32,60.13229104,,,,,,,,3,Fast,h,1,1.7673,3,2,14,2,1,,,,,
1.68,,,,,,,,,f.PNG,f,616480e6749791ef8dcad5b3,2021-10-19_12h45.55.272,forced_choiceRT,2021.1.2,Win32,60.13229104,,,,,,,,3,Ontime,h,0,1.9325,3,3,15,0,1,,,,,
1.27,,,,,,,,,j.PNG,j,616480e6749791ef8dcad5b3,2021-10-19_12h45.55.272,forced_choiceRT,2021.1.2,Win32,60.13229104,,,,,,,,3,Ontime,h,0,1.9183,4,0,16,3,1,,,,,
0.38,,,,,,,,,h.PNG,h,616480e6749791ef8dcad5b3,2021-10-19_12h45.55.272,forced_choiceRT,2021.1.2,Win32,60.13229104,,,,,,,,3,Ontime,h,1,2.0565,4,1,17,2,1,,,,,
0.95,,,,,,,,,h.PNG,h,616480e6749791ef8dcad5b3,2021-10-19_12h45.55.272,forced_choiceRT,2021.1.2,Win32,60.13229104,,,,,,,,3,Fast,h,1,1.8188,4,2,18,2,1,,,,,
0.01,,,,,,,,,j.PNG,j,616480e6749791ef8dcad5b3,2021-10-19_12h45.55.272,forced_choiceRT,2021.1.2,Win32,60.13229104,,,,,,,,3,Ontime,j,1,2.0898,4,3,19,3,1,,,,,
0.89,,,,,,,,,f.PNG,f,616480e6749791ef8dcad5b3,2021-10-19_12h45.55.272,forced_choiceRT,2021.1.2,Win32,60.13229104,,,,,,,,3,Ontime,f,1,2.0237,5,0,20,0,1,,,,,
0.44,,,,,,,,,h.PNG,h,616480e6749791ef8dcad5b3,2021-10-19_12h45.55.272,forced_choiceRT,2021.1.2,Win32,60.13229104,,,,,,,,3,Ontime,h,1,2.0992,5,1,21,2,1,,,,,
1.88,,,,,,,,,g.PNG,g,616480e6749791ef8dcad5b3,2021-10-19_12h45.55.272,forced_choiceRT,2021.1.2,Win32,60.13229104,,,,,,,,3,Slow,f,0,2.1086,5,2,22,1,1,,,,,
1.06,,,,,,,,,j.PNG,j,616480e6749791ef8dcad5b3,2021-10-19_12h45.55.272,forced_choiceRT,2021.1.2,Win32,60.13229104,,,,,,,,3,Ontime,j,1,2.0332,5,3,23,3,1,,,,,
0.39,,,,,,,,,h.PNG,h,616480e6749791ef8dcad5b3,2021-10-19_12h45.55.272,forced_choiceRT,2021.1.2,Win32,60.13229104,,,,,,,,3,Ontime,h,1,2.0667,6,0,24,2,1,,,,,
1.01,,,,,,,,,h.PNG,h,616480e6749791ef8dcad5b3,2021-10-19_12h45.55.272,forced_choiceRT,2021.1.2,Win32,60.13229104,,,,,,,,3,Ontime,h,1,1.9697,6,1,25,2,1,,,,,
0.04,,,,,,,,,f.PNG,f,616480e6749791ef8dcad5b3,2021-10-19_12h45.55.272,forced_choiceRT,2021.1.2,Win32,60.13229104,,,,,,,,3,Ontime,f,1,2.026,6,2,26,0,1,,,,,
1.87,,,,,,,,,g.PNG,g,616480e6749791ef8dcad5b3,2021-10-19_12h45.55.272,forced_choiceRT,2021.1.2,Win32,60.13229104,,,,,,,,3,Ontime,h,0,1.9525,6,3,27,1,1,,,,,
1.53,,,,,,,,,g.PNG,g,616480e6749791ef8dcad5b3,2021-10-19_12h45.55.272,forced_choiceRT,2021.1.2,Win32,60.13229104,,,,,,,,3,Ontime,g,1,2.007,7,0,28,1,1,,,,,
0.51,,,,,,,,,f.PNG,f,616480e6749791ef8dcad5b3,2021-10-19_12h45.55.272,forced_choiceRT,2021.1.2,Win32,60.13229104,,,,,,,,3,Ontime,f,1,1.9722,7,1,29,0,1,,,,,
0.77,,,,,,,,,g.PNG,g,616480e6749791ef8dcad5b3,2021-10-19_12h45.55.272,forced_choiceRT,2021.1.2,Win32,60.13229104,,,,,,,,3,Ontime,g,1,1.9171,7,2,30,1,1,,,,,
1.91,,,,,,,,,h.PNG,h,616480e6749791ef8dcad5b3,2021-10-19_12h45.55.272,forced_choiceRT,2021.1.2,Win32,60.13229104,,,,,,,,3,Ontime,f,0,1.9599,7,3,31,2,1,,,,,
0.02,,,,,,,,,j.PNG,j,616480e6749791ef8dcad5b3,2021-10-19_12h45.55.272,forced_choiceRT,2021.1.2,Win32,60.13229104,,,,,,,,3,Ontime,j,1,2.045,8,0,32,3,1,,,,,
0.37,,,,,,,,,f.PNG,f,616480e6749791ef8dcad5b3,2021-10-19_12h45.55.272,forced_choiceRT,2021.1.2,Win32,60.13229104,,,,,,,,3,Ontime,f,1,1.9794,8,1,33,0,1,,,,,
1.5,,,,,,,,,h.PNG,h,616480e6749791ef8dcad5b3,2021-10-19_12h45.55.272,forced_choiceRT,2021.1.2,Win32,60.13229104,,,,,,,,3,Ontime,f,0,1.9232,8,2,34,2,1,,,,,
1.76,,,,,,,,,f.PNG,f,616480e6749791ef8dcad5b3,2021-10-19_12h45.55.272,forced_choiceRT,2021.1.2,Win32,60.13229104,,,,,,,,3,Ontime,h,0,1.9631,8,3,35,0,1,,,,,
0.71,,,,,,,,,f.PNG,f,616480e6749791ef8dcad5b3,2021-10-19_12h45.55.272,forced_choiceRT,2021.1.2,Win32,60.13229104,,,,,,,,3,Ontime,f,1,2.0192,9,0,36,0,1,,,,,
0.98,,,,,,,,,j.PNG,j,616480e6749791ef8dcad5b3,2021-10-19_12h45.55.272,forced_choiceRT,2021.1.2,Win32,60.13229104,,,,,,,,3,Fast,j,1,1.8863,9,1,37,3,1,,,,,
1.56,,,,,,,,,f.PNG,f,616480e6749791ef8dcad5b3,2021-10-19_12h45.55.272,forced_choiceRT,2021.1.2,Win32,60.13229104,,,,,,,,3,Fast,f,1,1.8259,9,2,38,0,1,,,,,
1.84,,,,,,,,,j.PNG,j,616480e6749791ef8dcad5b3,2021-10-19_12h45.55.272,forced_choiceRT,2021.1.2,Win32,60.13229104,,,,,,,,3,Slow,j,1,2.1612,9,3,39,3,1,,,,,
,,,,,,,,,,,616480e6749791ef8dcad5b3,2021-10-19_12h45.55.272,forced_choiceRT,2021.1.2,Win32,60.13229104,,,,,,,,,,,,,,,,,,2,0,2,0,1
0.97,,,,,,,,,h.PNG,h,616480e6749791ef8dcad5b3,2021-10-19_12h45.55.272,forced_choiceRT,2021.1.2,Win32,60.13229104,,,,,,,,4,Fast,h,1,1.8041,0,0,0,2,1,,,,,
0.55,,,,,,,,,f.PNG,f,616480e6749791ef8dcad5b3,2021-10-19_12h45.55.272,forced_choiceRT,2021.1.2,Win32,60.13229104,,,,,,,,4,Ontime,f,1,2.0336,0,1,1,0,1,,,,,
1.1,,,,,,,,,g.PNG,g,616480e6749791ef8dcad5b3,2021-10-19_12h45.55.272,forced_choiceRT,2021.1.2,Win32,60.13229104,,,,,,,,4,Fast,g,1,1.8557,0,2,2,1,1,,,,,
1.94,,,,,,,,,g.PNG,g,616480e6749791ef8dcad5b3,2021-10-19_12h45.55.272,forced_choiceRT,2021.1.2,Win32,60.13229104,,,,,,,,4,Ontime,f,0,2.0693,0,3,3,1,1,,,,,
0.41,,,,,,,,,g.PNG,g,616480e6749791ef8dcad5b3,2021-10-19_12h45.55.272,forced_choiceRT,2021.1.2,Win32,60.13229104,,,,,,,,4,Ontime,g,1,2.0557,1,0,4,1,1,,,,,
0.77,,,,,,,,,f.PNG,f,616480e6749791ef8dcad5b3,2021-10-19_12h45.55.272,forced_choiceRT,2021.1.2,Win32,60.13229104,,,,,,,,4,Ontime,f,1,2.0691,1,1,5,0,1,,,,,
1.8,,,,,,,,,j.PNG,j,616480e6749791ef8dcad5b3,2021-10-19_12h45.55.272,forced_choiceRT,2021.1.2,Win32,60.13229104,,,,,,,,4,Ontime,h,0,2.0044,1,2,6,3,1,,,,,
0.77,,,,,,,,,j.PNG,j,616480e6749791ef8dcad5b3,2021-10-19_12h45.55.272,forced_choiceRT,2021.1.2,Win32,60.13229104,,,,,,,,4,Fast,j,1,1.8825,1,3,7,3,1,,,,,
1.9,,,,,,,,,j.PNG,j,616480e6749791ef8dcad5b3,2021-10-19_12h45.55.272,forced_choiceRT,2021.1.2,Win32,60.13229104,,,,,,,,4,Ontime,j,1,2.0614,2,0,8,3,1,,,,,
1.88,,,,,,,,,f.PNG,f,616480e6749791ef8dcad5b3,2021-10-19_12h45.55.272,forced_choiceRT,2021.1.2,Win32,60.13229104,,,,,,,,4,Ontime,g,0,2.062,2,1,9,0,1,,,,,
1.9,,,,,,,,,h.PNG,h,616480e6749791ef8dcad5b3,2021-10-19_12h45.55.272,forced_choiceRT,2021.1.2,Win32,60.13229104,,,,,,,,4,Ontime,h,1,2.0147,2,2,10,2,1,,,,,
0.32,,,,,,,,,f.PNG,f,616480e6749791ef8dcad5b3,2021-10-19_12h45.55.272,forced_choiceRT,2021.1.2,Win32,60.13229104,,,,,,,,4,Ontime,f,1,2.0006,2,3,11,0,1,,,,,
0.68,,,,,,,,,g.PNG,g,616480e6749791ef8dcad5b3,2021-10-19_12h45.55.272,forced_choiceRT,2021.1.2,Win32,60.13229104,,,,,,,,4,Ontime,g,1,2.0081,3,0,12,1,1,,,,,
0.24,,,,,,,,,f.PNG,f,616480e6749791ef8dcad5b3,2021-10-19_12h45.55.272,forced_choiceRT,2021.1.2,Win32,60.13229104,,,,,,,,4,Ontime,f,1,1.9193,3,1,13,0,1,,,,,
1.46,,,,,,,,,h.PNG,h,616480e6749791ef8dcad5b3,2021-10-19_12h45.55.272,forced_choiceRT,2021.1.2,Win32,60.13229104,,,,,,,,4,Ontime,g,0,1.9567,3,2,14,2,1,,,,,
0.64,,,,,,,,,h.PNG,h,616480e6749791ef8dcad5b3,2021-10-19_12h45.55.272,forced_choiceRT,2021.1.2,Win32,60.13229104,,,,,,,,4,Ontime,h,1,2.0229,3,3,15,2,1,,,,,
0.95,,,,,,,,,j.PNG,j,616480e6749791ef8dcad5b3,2021-10-19_12h45.55.272,forced_choiceRT,2021.1.2,Win32,60.13229104,,,,,,,,4,Ontime,j,1,2.0271,4,0,16,3,1,,,,,
0.62,,,,,,,,,j.PNG,j,616480e6749791ef8dcad5b3,2021-10-19_12h45.55.272,forced_choiceRT,2021.1.2,Win32,60.13229104,,,,,,,,4,Ontime,j,1,2.0723,4,1,17,3,1,,,,,
0.99,,,,,,,,,h.PNG,h,616480e6749791ef8dcad5b3,2021-10-19_12h45.55.272,forced_choiceRT,2021.1.2,Win32,60.13229104,,,,,,,,4,Slow,h,1,2.1492,4,2,18,2,1,,,,,
0.85,,,,,,,,,g.PNG,g,616480e6749791ef8dcad5b3,2021-10-19_12h45.55.272,forced_choiceRT,2021.1.2,Win32,60.13229104,,,,,,,,4,Ontime,g,1,1.9645,4,3,19,1,1,,,,,
0.45,,,,,,,,,f.PNG,f,616480e6749791ef8dcad5b3,2021-10-19_12h45.55.272,forced_choiceRT,2021.1.2,Win32,60.13229104,,,,,,,,4,Ontime,f,1,2.056,5,0,20,0,1,,,,,
1.75,,,,,,,,,j.PNG,j,616480e6749791ef8dcad5b3,2021-10-19_12h45.55.272,forced_choiceRT,2021.1.2,Win32,60.13229104,,,,,,,,4,Ontime,j,1,1.9559,5,1,21,3,1,,,,,
1.36,,,,,,,,,g.PNG,g,616480e6749791ef8dcad5b3,2021-10-19_12h45.55.272,forced_choiceRT,2021.1.2,Win32,60.13229104,,,,,,,,4,Fast,h,0,1.8154,5,2,22,1,1,,,,,
0.98,,,,,,,,,f.PNG,f,616480e6749791ef8dcad5b3,2021-10-19_12h45.55.272,forced_choiceRT,2021.1.2,Win32,60.13229104,,,,,,,,4,Ontime,f,1,1.9728,5,3,23,0,1,,,,,
0.7,,,,,,,,,g.PNG,g,616480e6749791ef8dcad5b3,2021-10-19_12h45.55.272,forced_choiceRT,2021.1.2,Win32,60.13229104,,,,,,,,4,Ontime,g,1,1.9734,6,0,24,1,1,,,,,
1.79,,,,,,,,,g.PNG,g,616480e6749791ef8dcad5b3,2021-10-19_12h45.55.272,forced_choiceRT,2021.1.2,Win32,60.13229104,,,,,,,,4,Ontime,f,0,1.9954,6,1,25,1,1,,,,,
0.6,,,,,,,,,h.PNG,h,616480e6749791ef8dcad5b3,2021-10-19_12h45.55.272,forced_choiceRT,2021.1.2,Win32,60.13229104,,,,,,,,4,Ontime,h,1,2.0448,6,2,26,2,1,,,,,
0.57,,,,,,,,,h.PNG,h,616480e6749791ef8dcad5b3,2021-10-19_12h45.55.272,forced_choiceRT,2021.1.2,Win32,60.13229104,,,,,,,,4,Ontime,h,1,2.0765,6,3,27,2,1,,,,,
0.47,,,,,,,,,j.PNG,j,616480e6749791ef8dcad5b3,2021-10-19_12h45.55.272,forced_choiceRT,2021.1.2,Win32,60.13229104,,,,,,,,4,Ontime,j,1,2.064,7,0,28,3,1,,,,,
1.47,,,,,,,,,f.PNG,f,616480e6749791ef8dcad5b3,2021-10-19_12h45.55.272,forced_choiceRT,2021.1.2,Win32,60.13229104,,,,,,,,4,Ontime,g,0,1.964,7,1,29,0,1,,,,,
0.53,,,,,,,,,f.PNG,f,616480e6749791ef8dcad5b3,2021-10-19_12h45.55.272,forced_choiceRT,2021.1.2,Win32,60.13229104,,,,,,,,4,Ontime,f,1,2.0502,7,2,30,0,1,,,,,
0.08,,,,,,,,,j.PNG,j,616480e6749791ef8dcad5b3,2021-10-19_12h45.55.272,forced_choiceRT,2021.1.2,Win32,60.13229104,,,,,,,,4,Ontime,j,1,2.0019,7,3,31,3,1,,,,,
1.87,,,,,,,,,g.PNG,g,616480e6749791ef8dcad5b3,2021-10-19_12h45.55.272,forced_choiceRT,2021.1.2,Win32,60.13229104,,,,,,,,4,Slow,h,0,2.1748,8,0,32,1,1,,,,,
1.87,,,,,,,,,h.PNG,h,616480e6749791ef8dcad5b3,2021-10-19_12h45.55.272,forced_choiceRT,2021.1.2,Win32,60.13229104,,,,,,,,4,Ontime,f,0,1.9518,8,1,33,2,1,,,,,
1.11,,,,,,,,,g.PNG,g,616480e6749791ef8dcad5b3,2021-10-19_12h45.55.272,forced_choiceRT,2021.1.2,Win32,60.13229104,,,,,,,,4,Ontime,g,1,1.9338,8,2,34,1,1,,,,,
0.32,,,,,,,,,f.PNG,f,616480e6749791ef8dcad5b3,2021-10-19_12h45.55.272,forced_choiceRT,2021.1.2,Win32,60.13229104,,,,,,,,4,Ontime,f,1,1.9564,8,3,35,0,1,,,,,
1.82,,,,,,,,,h.PNG,h,616480e6749791ef8dcad5b3,2021-10-19_12h45.55.272,forced_choiceRT,2021.1.2,Win32,60.13229104,,,,,,,,4,Slow,f,0,2.1727,9,0,36,2,1,,,,,
1.34,,,,,,,,,j.PNG,j,616480e6749791ef8dcad5b3,2021-10-19_12h45.55.272,forced_choiceRT,2021.1.2,Win32,60.13229104,,,,,,,,4,Ontime,j,1,1.9652,9,1,37,3,1,,,,,
0.38,,,,,,,,,j.PNG,j,616480e6749791ef8dcad5b3,2021-10-19_12h45.55.272,forced_choiceRT,2021.1.2,Win32,60.13229104,,,,,,,,4,Ontime,j,1,2.0654,9,2,38,3,1,,,,,
1.41,,,,,,,,,h.PNG,h,616480e6749791ef8dcad5b3,2021-10-19_12h45.55.272,forced_choiceRT,2021.1.2,Win32,60.13229104,,,,,,,,4,Ontime,h,1,2.0757,9,3,39,2,1,,,,,
,,,,,,,,,,,616480e6749791ef8dcad5b3,2021-10-19_12h45.55.272,forced_choiceRT,2021.1.2,Win32,60.13229104,,,,,,,,,,,,,,,,,,3,0,3,0,1
0.44,,,,,,,,,j.PNG,j,616480e6749791ef8dcad5b3,2021-10-19_12h45.55.272,forced_choiceRT,2021.1.2,Win32,60.13229104,,,,,,,,5,Ontime,j,1,2.0328,0,0,0,3,1,,,,,
1.56,,,,,,,,,h.PNG,h,616480e6749791ef8dcad5b3,2021-10-19_12h45.55.272,forced_choiceRT,2021.1.2,Win32,60.13229104,,,,,,,,5,Ontime,f,0,1.9507,0,1,1,2,1,,,,,
0.69,,,,,,,,,j.PNG,j,616480e6749791ef8dcad5b3,2021-10-19_12h45.55.272,forced_choiceRT,2021.1.2,Win32,60.13229104,,,,,,,,5,Slow,j,1,2.1004,0,2,2,3,1,,,,,
1.55,,,,,,,,,f.PNG,f,616480e6749791ef8dcad5b3,2021-10-19_12h45.55.272,forced_choiceRT,2021.1.2,Win32,60.13229104,,,,,,,,5,Ontime,g,0,2.0451,0,3,3,0,1,,,,,
0.95,,,,,,,,,f.PNG,f,616480e6749791ef8dcad5b3,2021-10-19_12h45.55.272,forced_choiceRT,2021.1.2,Win32,60.13229104,,,,,,,,5,Ontime,f,1,2.0215,1,0,4,0,1,,,,,
1.99,,,,,,,,,g.PNG,g,616480e6749791ef8dcad5b3,2021-10-19_12h45.55.272,forced_choiceRT,2021.1.2,Win32,60.13229104,,,,,,,,5,Ontime,j,0,2.0839,1,1,5,1,1,,,,,
1.8,,,,,,,,,j.PNG,j,616480e6749791ef8dcad5b3,2021-10-19_12h45.55.272,forced_choiceRT,2021.1.2,Win32,60.13229104,,,,,,,,5,Ontime,f,0,1.9846,1,2,6,3,1,,,,,
0.92,,,,,,,,,f.PNG,f,616480e6749791ef8dcad5b3,2021-10-19_12h45.55.272,forced_choiceRT,2021.1.2,Win32,60.13229104,,,,,,,,5,Ontime,f,1,1.9893,1,3,7,0,1,,,,,
1.22,,,,,,,,,j.PNG,j,616480e6749791ef8dcad5b3,2021-10-19_12h45.55.272,forced_choiceRT,2021.1.2,Win32,60.13229104,,,,,,,,5,Ontime,j,1,1.9336,2,0,8,3,1,,,,,
1.13,,,,,,,,,g.PNG,g,616480e6749791ef8dcad5b3,2021-10-19_12h45.55.272,forced_choiceRT,2021.1.2,Win32,60.13229104,,,,,,,,5,Ontime,g,1,1.9021,2,1,9,1,1,,,,,
0.93,,,,,,,,,j.PNG,j,616480e6749791ef8dcad5b3,2021-10-19_12h45.55.272,forced_choiceRT,2021.1.2,Win32,60.13229104,,,,,,,,5,Ontime,j,1,1.9883,2,2,10,3,1,,,,,
0.02,,,,,,,,,f.PNG,f,616480e6749791ef8dcad5b3,2021-10-19_12h45.55.272,forced_choiceRT,2021.1.2,Win32,60.13229104,,,,,,,,5,Ontime,f,1,2.0145,2,3,11,0,1,,,,,
0.78,,,,,,,,,h.PNG,h,616480e6749791ef8dcad5b3,2021-10-19_12h45.55.272,forced_choiceRT,2021.1.2,Win32,60.13229104,,,,,,,,5,Ontime,h,1,2.0478,3,0,12,2,1,,,,,
1.26,,,,,,,,,g.PNG,g,616480e6749791ef8dcad5b3,2021-10-19_12h45.55.272,forced_choiceRT,2021.1.2,Win32,60.13229104,,,,,,,,5,Ontime,g,1,1.987,3,1,13,1,1,,,,,
1.93,,,,,,,,,h.PNG,h,616480e6749791ef8dcad5b3,2021-10-19_12h45.55.272,forced_choiceRT,2021.1.2,Win32,60.13229104,,,,,,,,5,Ontime,f,0,1.9508,3,2,14,2,1,,,,,
0.56,,,,,,,,,f.PNG,f,616480e6749791ef8dcad5b3,2021-10-19_12h45.55.272,forced_choiceRT,2021.1.2,Win32,60.13229104,,,,,,,,5,Ontime,f,1,1.9843,3,3,15,0,1,,,,,
1.31,,,,,,,,,f.PNG,f,616480e6749791ef8dcad5b3,2021-10-19_12h45.55.272,forced_choiceRT,2021.1.2,Win32,60.13229104,,,,,,,,5,Ontime,f,1,1.931,4,0,16,0,1,,,,,
0.4,,,,,,,,,g.PNG,g,616480e6749791ef8dcad5b3,2021-10-19_12h45.55.272,forced_choiceRT,2021.1.2,Win32,60.13229104,,,,,,,,5,Ontime,g,1,1.9682,4,1,17,1,1,,,,,
0.34,,,,,,,,,h.PNG,h,616480e6749791ef8dcad5b3,2021-10-19_12h45.55.272,forced_choiceRT,2021.1.2,Win32,60.13229104,,,,,,,,5,Ontime,h,1,2.0512,4,2,18,2,1,,,,,
0.29,,,,,,,,,h.PNG,h,616480e6749791ef8dcad5b3,2021-10-19_12h45.55.272,forced_choiceRT,2021.1.2,Win32,60.13229104,,,,,,,,5,Ontime,h,1,2.0086,4,3,19,2,1,,,,,
0.53,,,,,,,,,j.PNG,j,616480e6749791ef8dcad5b3,2021-10-19_12h45.55.272,forced_choiceRT,2021.1.2,Win32,60.13229104,,,,,,,,5,Ontime,j,1,2.0292,5,0,20,3,1,,,,,
1.58,,,,,,,,,h.PNG,h,616480e6749791ef8dcad5b3,2021-10-19_12h45.55.272,forced_choiceRT,2021.1.2,Win32,60.13229104,,,,,,,,5,Ontime,h,1,2.0804,5,1,21,2,1,,,,,
0.27,,,,,,,,,f.PNG,f,616480e6749791ef8dcad5b3,2021-10-19_12h45.55.272,forced_choiceRT,2021.1.2,Win32,60.13229104,,,,,,,,5,Ontime,f,1,2.0164,5,2,22,0,1,,,,,
0.85,,,,,,,,,g.PNG,g,616480e6749791ef8dcad5b3,2021-10-19_12h45.55.272,forced_choiceRT,2021.1.2,Win32,60.13229104,,,,,,,,5,Ontime,g,1,1.9837,5,3,23,1,1,,,,,
1.59,,,,,,,,,h.PNG,h,616480e6749791ef8dcad5b3,2021-10-19_12h45.55.272,forced_choiceRT,2021.1.2,Win32,60.13229104,,,,,,,,5,Ontime,f,0,2.056,6,0,24,2,1,,,,,
0.83,,,,,,,,,f.PNG,f,616480e6749791ef8dcad5b3,2021-10-19_12h45.55.272,forced_choiceRT,2021.1.2,Win32,60.13229104,,,,,,,,5,Ontime,f,1,2.0178,6,1,25,0,1,,,,,
0.94,,,,,,,,,g.PNG,g,616480e6749791ef8dcad5b3,2021-10-19_12h45.55.272,forced_choiceRT,2021.1.2,Win32,60.13229104,,,,,,,,5,Ontime,g,1,2.0362,6,2,26,1,1,,,,,
1.49,,,,,,,,,h.PNG,h,616480e6749791ef8dcad5b3,2021-10-19_12h45.55.272,forced_choiceRT,2021.1.2,Win32,60.13229104,,,,,,,,5,Fast,h,1,1.8158,6,3,27,2,1,,,,,
1.79,,,,,,,,,g.PNG,g,616480e6749791ef8dcad5b3,2021-10-19_12h45.55.272,forced_choiceRT,2021.1.2,Win32,60.13229104,,,,,,,,5,Ontime,j,0,2.0403,7,0,28,1,1,,,,,
1.54,,,,,,,,,f.PNG,f,616480e6749791ef8dcad5b3,2021-10-19_12h45.55.272,forced_choiceRT,2021.1.2,Win32,60.13229104,,,,,,,,5,Ontime,f,1,2.018,7,1,29,0,1,,,,,
0.08,,,,,,,,,g.PNG,g,616480e6749791ef8dcad5b3,2021-10-19_12h45.55.272,forced_choiceRT,2021.1.2,Win32,60.13229104,,,,,,,,5,Ontime,g,1,1.945,7,2,30,1,1,,,,,
1.79,,,,,,,,,g.PNG,g,616480e6749791ef8dcad5b3,2021-10-19_12h45.55.272,forced_choiceRT,2021.1.2,Win32,60.13229104,,,,,,,,5,Slow,g,1,2.1068,7,3,31,1,1,,,,,
1.58,,,,,,,,,j.PNG,j,616480e6749791ef8dcad5b3,2021-10-19_12h45.55.272,forced_choiceRT,2021.1.2,Win32,60.13229104,,,,,,,,5,Slow,j,1,2.1926,8,0,32,3,1,,,,,
0.71,,,,,,,,,h.PNG,h,616480e6749791ef8dcad5b3,2021-10-19_12h45.55.272,forced_choiceRT,2021.1.2,Win32,60.13229104,,,,,,,,5,Ontime,h,1,1.9833,8,1,33,2,1,,,,,
1.15,,,,,,,,,j.PNG,j,616480e6749791ef8dcad5b3,2021-10-19_12h45.55.272,forced_choiceRT,2021.1.2,Win32,60.13229104,,,,,,,,5,Ontime,j,1,1.9796,8,2,34,3,1,,,,,
0.87,,,,,,,,,g.PNG,g,616480e6749791ef8dcad5b3,2021-10-19_12h45.55.272,forced_choiceRT,2021.1.2,Win32,60.13229104,,,,,,,,5,Ontime,g,1,2.0434,8,3,35,1,1,,,,,
1.32,,,,,,,,,h.PNG,h,616480e6749791ef8dcad5b3,2021-10-19_12h45.55.272,forced_choiceRT,2021.1.2,Win32,60.13229104,,,,,,,,5,Ontime,j,0,1.9457,9,0,36,2,1,,,,,
0.85,,,,,,,,,j.PNG,j,616480e6749791ef8dcad5b3,2021-10-19_12h45.55.272,forced_choiceRT,2021.1.2,Win32,60.13229104,,,,,,,,5,Ontime,j,1,2.017,9,1,37,3,1,,,,,
1.53,,,,,,,,,j.PNG,j,616480e6749791ef8dcad5b3,2021-10-19_12h45.55.272,forced_choiceRT,2021.1.2,Win32,60.13229104,,,,,,,,5,Ontime,h,0,2.067,9,2,38,3,1,,,,,
0.73,,,,,,,,,f.PNG,f,616480e6749791ef8dcad5b3,2021-10-19_12h45.55.272,forced_choiceRT,2021.1.2,Win32,60.13229104,,,,,,,,5,Ontime,f,1,2.0367,9,3,39,0,1,,,,,
,,,,,,,,,,,616480e6749791ef8dcad5b3,2021-10-19_12h45.55.272,forced_choiceRT,2021.1.2,Win32,60.13229104,,,,,,,,,,,,,,,,,,4,0,4,0,1
1.96,,,,,,,,,j.PNG,j,616480e6749791ef8dcad5b3,2021-10-19_12h45.55.272,forced_choiceRT,2021.1.2,Win32,60.13229104,,,,,,,,6,Ontime,g,0,1.9279,0,0,0,3,1,,,,,
1.58,,,,,,,,,f.PNG,f,616480e6749791ef8dcad5b3,2021-10-19_12h45.55.272,forced_choiceRT,2021.1.2,Win32,60.13229104,,,,,,,,6,Slow,f,1,2.1751,0,1,1,0,1,,,,,
1.78,,,,,,,,,f.PNG,f,616480e6749791ef8dcad5b3,2021-10-19_12h45.55.272,forced_choiceRT,2021.1.2,Win32,60.13229104,,,,,,,,6,Ontime,g,0,2.0765,0,2,2,0,1,,,,,
0.95,,,,,,,,,g.PNG,g,616480e6749791ef8dcad5b3,2021-10-19_12h45.55.272,forced_choiceRT,2021.1.2,Win32,60.13229104,,,,,,,,6,Fast,g,1,1.846,0,3,3,1,1,,,,,
0.83,,,,,,,,,j.PNG,j,616480e6749791ef8dcad5b3,2021-10-19_12h45.55.272,forced_choiceRT,2021.1.2,Win32,60.13229104,,,,,,,,6,Slow,j,1,2.1594,1,0,4,3,1,,,,,
1.32,,,,,,,,,g.PNG,g,616480e6749791ef8dcad5b3,2021-10-19_12h45.55.272,forced_choiceRT,2021.1.2,Win32,60.13229104,,,,,,,,6,Ontime,g,1,2.0163,1,1,5,1,1,,,,,
0.59,,,,,,,,,g.PNG,g,616480e6749791ef8dcad5b3,2021-10-19_12h45.55.272,forced_choiceRT,2021.1.2,Win32,60.13229104,,,,,,,,6,Ontime,g,1,2.0302,1,2,6,1,1,,,,,
0.35,,,,,,,,,f.PNG,f,616480e6749791ef8dcad5b3,2021-10-19_12h45.55.272,forced_choiceRT,2021.1.2,Win32,60.13229104,,,,,,,,6,Ontime,f,1,1.9919,1,3,7,0,1,,,,,
1.13,,,,,,,,,f.PNG,f,616480e6749791ef8dcad5b3,2021-10-19_12h45.55.272,forced_choiceRT,2021.1.2,Win32,60.13229104,,,,,,,,6,Ontime,f,1,1.976,2,0,8,0,1,,,,,
0,,,,,,,,,j.PNG,j,616480e6749791ef8dcad5b3,2021-10-19_12h45.55.272,forced_choiceRT,2021.1.2,Win32,60.13229104,,,,,,,,6,Ontime,j,1,1.9378,2,1,9,3,1,,,,,
1.17,,,,,,,,,f.PNG,f,616480e6749791ef8dcad5b3,2021-10-19_12h45.55.272,forced_choiceRT,2021.1.2,Win32,60.13229104,,,,,,,,6,Ontime,f,1,1.9736,2,2,10,0,1,,,,,
1.25,,,,,,,,,h.PNG,h,616480e6749791ef8dcad5b3,2021-10-19_12h45.55.272,forced_choiceRT,2021.1.2,Win32,60.13229104,,,,,,,,6,Fast,h,1,1.8961,2,3,11,2,1,,,,,
1.63,,,,,,,,,g.PNG,g,616480e6749791ef8dcad5b3,2021-10-19_12h45.55.272,forced_choiceRT,2021.1.2,Win32,60.13229104,,,,,,,,6,Slow,g,1,2.217,3,0,12,1,1,,,,,
1.59,,,,,,,,,h.PNG,h,616480e6749791ef8dcad5b3,2021-10-19_12h45.55.272,forced_choiceRT,2021.1.2,Win32,60.13229104,,,,,,,,6,Fast,f,0,1.8517,3,1,13,2,1,,,,,
1.84,,,,,,,,,j.PNG,j,616480e6749791ef8dcad5b3,2021-10-19_12h45.55.272,forced_choiceRT,2021.1.2,Win32,60.13229104,,,,,,,,6,Ontime,g,0,2.0091,3,2,14,3,1,,,,,
1.44,,,,,,,,,h.PNG,h,616480e6749791ef8dcad5b3,2021-10-19_12h45.55.272,forced_choiceRT,2021.1.2,Win32,60.13229104,,,,,,,,6,Ontime,h,1,1.9335,3,3,15,2,1,,,,,
1.69,,,,,,,,,g.PNG,g,616480e6749791ef8dcad5b3,2021-10-19_12h45.55.272,forced_choiceRT,2021.1.2,Win32,60.13229104,,,,,,,,6,Slow,g,1,2.1867,4,0,16,1,1,,,,,
1.76,,,,,,,,,g.PNG,g,616480e6749791ef8dcad5b3,2021-10-19_12h45.55.272,forced_choiceRT,2021.1.2,Win32,60.13229104,,,,,,,,6,Ontime,g,1,1.919,4,1,17,1,1,,,,,
0.11,,,,,,,,,j.PNG,j,616480e6749791ef8dcad5b3,2021-10-19_12h45.55.272,forced_choiceRT,2021.1.2,Win32,60.13229104,,,,,,,,6,Ontime,j,1,1.9444,4,2,18,3,1,,,,,
1.31,,,,,,,,,j.PNG,j,616480e6749791ef8dcad5b3,2021-10-19_12h45.55.272,forced_choiceRT,2021.1.2,Win32,60.13229104,,,,,,,,6,Ontime,j,1,1.9161,4,3,19,3,1,,,,,
1.36,,,,,,,,,f.PNG,f,616480e6749791ef8dcad5b3,2021-10-19_12h45.55.272,forced_choiceRT,2021.1.2,Win32,60.13229104,,,,,,,,6,Ontime,f,1,1.9749,5,0,20,0,1,,,,,
0.89,,,,,,,,,f.PNG,f,616480e6749791ef8dcad5b3,2021-10-19_12h45.55.272,forced_choiceRT,2021.1.2,Win32,60.13229104,,,,,,,,6,Ontime,f,1,2.0534,5,1,21,0,1,,,,,
1.02,,,,,,,,,h.PNG,h,616480e6749791ef8dcad5b3,2021-10-19_12h45.55.272,forced_choiceRT,2021.1.2,Win32,60.13229104,,,,,,,,6,Fast,h,1,1.8238,5,2,22,2,1,,,,,
1.32,,,,,,,,,j.PNG,j,616480e6749791ef8dcad5b3,2021-10-19_12h45.55.272,forced_choiceRT,2021.1.2,Win32,60.13229104,,,,,,,,6,Ontime,h,0,1.9751,5,3,23,3,1,,,,,
0.07,,,,,,,,,h.PNG,h,616480e6749791ef8dcad5b3,2021-10-19_12h45.55.272,forced_choiceRT,2021.1.2,Win32,60.13229104,,,,,,,,6,Ontime,h,1,2.05,6,0,24,2,1,,,,,
1.37,,,,,,,,,g.PNG,g,616480e6749791ef8dcad5b3,2021-10-19_12h45.55.272,forced_choiceRT,2021.1.2,Win32,60.13229104,,,,,,,,6,Ontime,g,1,1.9557,6,1,25,1,1,,,,,
1.39,,,,,,,,,h.PNG,h,616480e6749791ef8dcad5b3,2021-10-19_12h45.55.272,forced_choiceRT,2021.1.2,Win32,60.13229104,,,,,,,,6,Ontime,h,1,1.9237,6,2,26,2,1,,,,,
0.85,,,,,,,,,h.PNG,h,616480e6749791ef8dcad5b3,2021-10-19_12h45.55.272,forced_choiceRT,2021.1.2,Win32,60.13229104,,,,,,,,6,Ontime,h,1,2.0162,6,3,27,2,1,,,,,
0.49,,,,,,,,,j.PNG,j,616480e6749791ef8dcad5b3,2021-10-19_12h45.55.272,forced_choiceRT,2021.1.2,Win32,60.13229104,,,,,,,,6,Ontime,j,1,1.9703,7,0,28,3,1,,,,,
0,,,,,,,,,f.PNG,f,616480e6749791ef8dcad5b3,2021-10-19_12h45.55.272,forced_choiceRT,2021.1.2,Win32,60.13229104,,,,,,,,6,Ontime,f,1,1.9753,7,1,29,0,1,,,,,
0.22,,,,,,,,,h.PNG,h,616480e6749791ef8dcad5b3,2021-10-19_12h45.55.272,forced_choiceRT,2021.1.2,Win32,60.13229104,,,,,,,,6,Ontime,h,1,1.9801,7,2,30,2,1,,,,,
0.44,,,,,,,,,j.PNG,j,616480e6749791ef8dcad5b3,2021-10-19_12h45.55.272,forced_choiceRT,2021.1.2,Win32,60.13229104,,,,,,,,6,Ontime,j,1,2.0047,7,3,31,3,1,,,,,
1.84,,,,,,,,,g.PNG,g,616480e6749791ef8dcad5b3,2021-10-19_12h45.55.272,forced_choiceRT,2021.1.2,Win32,60.13229104,,,,,,,,6,Slow,f,0,2.2373,8,0,32,1,1,,,,,
1.68,,,,,,,,,j.PNG,j,616480e6749791ef8dcad5b3,2021-10-19_12h45.55.272,forced_choiceRT,2021.1.2,Win32,60.13229104,,,,,,,,6,Fast,h,0,1.8923,8,1,33,3,1,,,,,
1.76,,,,,,,,,f.PNG,f,616480e6749791ef8dcad5b3,2021-10-19_12h45.55.272,forced_choiceRT,2021.1.2,Win32,60.13229104,,,,,,,,6,Slow,g,0,2.185,8,2,34,0,1,,,,,
1.04,,,,,,,,,h.PNG,h,616480e6749791ef8dcad5b3,2021-10-19_12h45.55.272,forced_choiceRT,2021.1.2,Win32,60.13229104,,,,,,,,6,Ontime,j,0,1.9563,8,3,35,2,1,,,,,
1.94,,,,,,,,,f.PNG,f,616480e6749791ef8dcad5b3,2021-10-19_12h45.55.272,forced_choiceRT,2021.1.2,Win32,60.13229104,,,,,,,,6,Ontime,g,0,2.0235,9,0,36,0,1,,,,,
0.47,,,,,,,,,g.PNG,g,616480e6749791ef8dcad5b3,2021-10-19_12h45.55.272,forced_choiceRT,2021.1.2,Win32,60.13229104,,,,,,,,6,Fast,g,1,1.8594,9,1,37,1,1,,,,,
1.71,,,,,,,,,g.PNG,g,616480e6749791ef8dcad5b3,2021-10-19_12h45.55.272,forced_choiceRT,2021.1.2,Win32,60.13229104,,,,,,,,6,Ontime,g,1,2.0121,9,2,38,1,1,,,,,
1.83,,,,,,,,,h.PNG,h,616480e6749791ef8dcad5b3,2021-10-19_12h45.55.272,forced_choiceRT,2021.1.2,Win32,60.13229104,,,,,,,,6,Ontime,f,0,2.0556,9,3,39,2,1,,,,,
,,,,,,,,,,,616480e6749791ef8dcad5b3,2021-10-19_12h45.55.272,forced_choiceRT,2021.1.2,Win32,60.13229104,,,,,,,,,,,,,,,,,,5,0,5,0,1
1.16,,,,,,,,,g.PNG,g,616480e6749791ef8dcad5b3,2021-10-19_12h45.55.272,forced_choiceRT,2021.1.2,Win32,60.13229104,,,,,,,,7,Ontime,g,1,2.0987,0,0,0,1,1,,,,,
0.56,,,,,,,,,j.PNG,j,616480e6749791ef8dcad5b3,2021-10-19_12h45.55.272,forced_choiceRT,2021.1.2,Win32,60.13229104,,,,,,,,7,Ontime,j,1,2.0226,0,1,1,3,1,,,,,
0.1,,,,,,,,,f.PNG,f,616480e6749791ef8dcad5b3,2021-10-19_12h45.55.272,forced_choiceRT,2021.1.2,Win32,60.13229104,,,,,,,,7,Ontime,f,1,1.9232,0,2,2,0,1,,,,,
0.66,,,,,,,,,g.PNG,g,616480e6749791ef8dcad5b3,2021-10-19_12h45.55.272,forced_choiceRT,2021.1.2,Win32,60.13229104,,,,,,,,7,Ontime,g,1,1.9381,0,3,3,1,1,,,,,
0.15,,,,,,,,,f.PNG,f,616480e6749791ef8dcad5b3,2021-10-19_12h45.55.272,forced_choiceRT,2021.1.2,Win32,60.13229104,,,,,,,,7,Ontime,f,1,1.9276,1,0,4,0,1,,,,,
0.34,,,,,,,,,j.PNG,j,616480e6749791ef8dcad5b3,2021-10-19_12h45.55.272,forced_choiceRT,2021.1.2,Win32,60.13229104,,,,,,,,7,Ontime,j,1,1.9227,1,1,5,3,1,,,,,
0.66,,,,,,,,,h.PNG,h,616480e6749791ef8dcad5b3,2021-10-19_12h45.55.272,forced_choiceRT,2021.1.2,Win32,60.13229104,,,,,,,,7,Ontime,h,1,2.083,1,2,6,2,1,,,,,
1.02,,,,,,,,,f.PNG,f,616480e6749791ef8dcad5b3,2021-10-19_12h45.55.272,forced_choiceRT,2021.1.2,Win32,60.13229104,,,,,,,,7,Ontime,f,1,1.9714,1,3,7,0,1,,,,,
1.05,,,,,,,,,j.PNG,j,616480e6749791ef8dcad5b3,2021-10-19_12h45.55.272,forced_choiceRT,2021.1.2,Win32,60.13229104,,,,,,,,7,Ontime,j,1,1.9894,2,0,8,3,1,,,,,
0.1,,,,,,,,,f.PNG,f,616480e6749791ef8dcad5b3,2021-10-19_12h45.55.272,forced_choiceRT,2021.1.2,Win32,60.13229104,,,,,,,,7,Ontime,f,1,2.0236,2,1,9,0,1,,,,,
0.31,,,,,,,,,h.PNG,h,616480e6749791ef8dcad5b3,2021-10-19_12h45.55.272,forced_choiceRT,2021.1.2,Win32,60.13229104,,,,,,,,7,Slow,h,1,2.1332,2,2,10,2,1,,,,,
0.89,,,,,,,,,g.PNG,g,616480e6749791ef8dcad5b3,2021-10-19_12h45.55.272,forced_choiceRT,2021.1.2,Win32,60.13229104,,,,,,,,7,Fast,f,0,1.7924,2,3,11,1,1,,,,,
1.1,,,,,,,,,f.PNG,f,616480e6749791ef8dcad5b3,2021-10-19_12h45.55.272,forced_choiceRT,2021.1.2,Win32,60.13229104,,,,,,,,7,Ontime,f,1,2.0875,3,0,12,0,1,,,,,
0.28,,,,,,,,,j.PNG,j,616480e6749791ef8dcad5b3,2021-10-19_12h45.55.272,forced_choiceRT,2021.1.2,Win32,60.13229104,,,,,,,,7,Ontime,j,1,2.0196,3,1,13,3,1,,,,,
0.17,,,,,,,,,j.PNG,j,616480e6749791ef8dcad5b3,2021-10-19_12h45.55.272,forced_choiceRT,2021.1.2,Win32,60.13229104,,,,,,,,7,Ontime,j,1,1.9953,3,2,14,3,1,,,,,
0.88,,,,,,,,,f.PNG,f,616480e6749791ef8dcad5b3,2021-10-19_12h45.55.272,forced_choiceRT,2021.1.2,Win32,60.13229104,,,,,,,,7,Ontime,f,1,2.0213,3,3,15,0,1,,,,,
1.05,,,,,,,,,h.PNG,h,616480e6749791ef8dcad5b3,2021-10-19_12h45.55.272,forced_choiceRT,2021.1.2,Win32,60.13229104,,,,,,,,7,Fast,h,1,1.7845,4,0,16,2,1,,,,,
1.11,,,,,,,,,h.PNG,h,616480e6749791ef8dcad5b3,2021-10-19_12h45.55.272,forced_choiceRT,2021.1.2,Win32,60.13229104,,,,,,,,7,Ontime,h,1,2.0506,4,1,17,2,1,,,,,
0.94,,,,,,,,,h.PNG,h,616480e6749791ef8dcad5b3,2021-10-19_12h45.55.272,forced_choiceRT,2021.1.2,Win32,60.13229104,,,,,,,,7,Ontime,h,1,2.0098,4,2,18,2,1,,,,,
0.69,,,,,,,,,f.PNG,f,616480e6749791ef8dcad5b3,2021-10-19_12h45.55.272,forced_choiceRT,2021.1.2,Win32,60.13229104,,,,,,,,7,Ontime,f,1,1.9956,4,3,19,0,1,,,,,
0.6,,,,,,,,,h.PNG,h,616480e6749791ef8dcad5b3,2021-10-19_12h45.55.272,forced_choiceRT,2021.1.2,Win32,60.13229104,,,,,,,,7,Ontime,h,1,2.0525,5,0,20,2,1,,,,,
1.12,,,,,,,,,j.PNG,j,616480e6749791ef8dcad5b3,2021-10-19_12h45.55.272,forced_choiceRT,2021.1.2,Win32,60.13229104,,,,,,,,7,Ontime,j,1,2.0595,5,1,21,3,1,,,,,
0.52,,,,,,,,,g.PNG,g,616480e6749791ef8dcad5b3,2021-10-19_12h45.55.272,forced_choiceRT,2021.1.2,Win32,60.13229104,,,,,,,,7,Ontime,g,1,2.0057,5,2,22,1,1,,,,,
1.85,,,,,,,,,h.PNG,h,616480e6749791ef8dcad5b3,2021-10-19_12h45.55.272,forced_choiceRT,2021.1.2,Win32,60.13229104,,,,,,,,7,Slow,f,0,2.2578,5,3,23,2,1,,,,,
1.42,,,,,,,,,g.PNG,g,616480e6749791ef8dcad5b3,2021-10-19_12h45.55.272,forced_choiceRT,2021.1.2,Win32,60.13229104,,,,,,,,7,Ontime,f,0,1.9502,6,0,24,1,1,,,,,
1.97,,,,,,,,,f.PNG,f,616480e6749791ef8dcad5b3,2021-10-19_12h45.55.272,forced_choiceRT,2021.1.2,Win32,60.13229104,,,,,,,,7,Ontime,g,0,1.9329,6,1,25,0,1,,,,,
0.52,,,,,,,,,h.PNG,h,616480e6749791ef8dcad5b3,2021-10-19_12h45.55.272,forced_choiceRT,2021.1.2,Win32,60.13229104,,,,,,,,7,Ontime,h,1,2.0294,6,2,26,2,1,,,,,
0.12,,,,,,,,,f.PNG,f,616480e6749791ef8dcad5b3,2021-10-19_12h45.55.272,forced_choiceRT,2021.1.2,Win32,60.13229104,,,,,,,,7,Ontime,f,1,1.9336,6,3,27,0,1,,,,,
0.64,,,,,,,,,g.PNG,g,616480e6749791ef8dcad5b3,2021-10-19_12h45.55.272,forced_choiceRT,2021.1.2,Win32,60.13229104,,,,,,,,7,Ontime,g,1,1.9421,7,0,28,1,1,,,,,
0.2,,,,,,,,,j.PNG,j,616480e6749791ef8dcad5b3,2021-10-19_12h45.55.272,forced_choiceRT,2021.1.2,Win32,60.13229104,,,,,,,,7,Ontime,j,1,1.9844,7,1,29,3,1,,,,,
0.04,,,,,,,,,j.PNG,j,616480e6749791ef8dcad5b3,2021-10-19_12h45.55.272,forced_choiceRT,2021.1.2,Win32,60.13229104,,,,,,,,7,Ontime,j,1,1.9592,7,2,30,3,1,,,,,
0.29,,,,,,,,,f.PNG,f,616480e6749791ef8dcad5b3,2021-10-19_12h45.55.272,forced_choiceRT,2021.1.2,Win32,60.13229104,,,,,,,,7,Ontime,f,1,2.0033,7,3,31,0,1,,,,,
0.92,,,,,,,,,h.PNG,h,616480e6749791ef8dcad5b3,2021-10-19_12h45.55.272,forced_choiceRT,2021.1.2,Win32,60.13229104,,,,,,,,7,Fast,h,1,1.8771,8,0,32,2,1,,,,,
1.17,,,,,,,,,g.PNG,g,616480e6749791ef8dcad5b3,2021-10-19_12h45.55.272,forced_choiceRT,2021.1.2,Win32,60.13229104,,,,,,,,7,Ontime,g,1,1.9209,8,1,33,1,1,,,,,
1.63,,,,,,,,,j.PNG,j,616480e6749791ef8dcad5b3,2021-10-19_12h45.55.272,forced_choiceRT,2021.1.2,Win32,60.13229104,,,,,,,,7,Ontime,g,0,2.0427,8,2,34,3,1,,,,,
0.01,,,,,,,,,h.PNG,h,616480e6749791ef8dcad5b3,2021-10-19_12h45.55.272,forced_choiceRT,2021.1.2,Win32,60.13229104,,,,,,,,7,Ontime,h,1,2.084,8,3,35,2,1,,,,,
1.68,,,,,,,,,g.PNG,g,616480e6749791ef8dcad5b3,2021-10-19_12h45.55.272,forced_choiceRT,2021.1.2,Win32,60.13229104,,,,,,,,7,Slow,g,1,2.1154,9,0,36,1,1,,,,,
0.91,,,,,,,,,j.PNG,j,616480e6749791ef8dcad5b3,2021-10-19_12h45.55.272,forced_choiceRT,2021.1.2,Win32,60.13229104,,,,,,,,7,Ontime,j,1,2.0506,9,1,37,3,1,,,,,
0.61,,,,,,,,,g.PNG,g,616480e6749791ef8dcad5b3,2021-10-19_12h45.55.272,forced_choiceRT,2021.1.2,Win32,60.13229104,,,,,,,,7,Ontime,g,1,1.9672,9,2,38,1,1,,,,,
0.38,,,,,,,,,g.PNG,g,616480e6749791ef8dcad5b3,2021-10-19_12h45.55.272,forced_choiceRT,2021.1.2,Win32,60.13229104,,,,,,,,7,Ontime,g,1,1.9838,9,3,39,1,1,,,,,
,,,,,,,,,,,616480e6749791ef8dcad5b3,2021-10-19_12h45.55.272,forced_choiceRT,2021.1.2,Win32,60.13229104,,,,,,,,,,,,,,,,,,6,0,6,0,1
0.32,,,,,,,,,j.PNG,j,616480e6749791ef8dcad5b3,2021-10-19_12h45.55.272,forced_choiceRT,2021.1.2,Win32,60.13229104,,,,,,,,8,Ontime,j,1,2.0503,0,0,0,3,1,,,,,
1.86,,,,,,,,,g.PNG,g,616480e6749791ef8dcad5b3,2021-10-19_12h45.55.272,forced_choiceRT,2021.1.2,Win32,60.13229104,,,,,,,,8,Slow,g,1,2.1338,0,1,1,1,1,,,,,
0.18,,,,,,,,,g.PNG,g,616480e6749791ef8dcad5b3,2021-10-19_12h45.55.272,forced_choiceRT,2021.1.2,Win32,60.13229104,,,,,,,,8,Ontime,g,1,1.9837,0,2,2,1,1,,,,,
1.26,,,,,,,,,f.PNG,f,616480e6749791ef8dcad5b3,2021-10-19_12h45.55.272,forced_choiceRT,2021.1.2,Win32,60.13229104,,,,,,,,8,Ontime,f,1,1.9003,0,3,3,0,1,,,,,
0.98,,,,,,,,,h.PNG,h,616480e6749791ef8dcad5b3,2021-10-19_12h45.55.272,forced_choiceRT,2021.1.2,Win32,60.13229104,,,,,,,,8,Ontime,h,1,2.0671,1,0,4,2,1,,,,,
1.28,,,,,,,,,f.PNG,f,616480e6749791ef8dcad5b3,2021-10-19_12h45.55.272,forced_choiceRT,2021.1.2,Win32,60.13229104,,,,,,,,8,Ontime,f,1,2.0005,1,1,5,0,1,,,,,
1.32,,,,,,,,,g.PNG,g,616480e6749791ef8dcad5b3,2021-10-19_12h45.55.272,forced_choiceRT,2021.1.2,Win32,60.13229104,,,,,,,,8,Ontime,g,1,2.0171,1,2,6,1,1,,,,,
1.62,,,,,,,,,f.PNG,f,616480e6749791ef8dcad5b3,2021-10-19_12h45.55.272,forced_choiceRT,2021.1.2,Win32,60.13229104,,,,,,,,8,Slow,f,1,2.1672,1,3,7,0,1,,,,,
0.26,,,,,,,,,g.PNG,g,616480e6749791ef8dcad5b3,2021-10-19_12h45.55.272,forced_choiceRT,2021.1.2,Win32,60.13229104,,,,,,,,8,Ontime,g,1,2.0338,2,0,8,1,1,,,,,
0.85,,,,,,,,,g.PNG,g,616480e6749791ef8dcad5b3,2021-10-19_12h45.55.272,forced_choiceRT,2021.1.2,Win32,60.13229104,,,,,,,,8,Ontime,g,1,2.0505,2,1,9,1,1,,,,,
1.7,,,,,,,,,f.PNG,f,616480e6749791ef8dcad5b3,2021-10-19_12h45.55.272,forced_choiceRT,2021.1.2,Win32,60.13229104,,,,,,,,8,Ontime,h,0,1.9668,2,2,10,0,1,,,,,
0.59,,,,,,,,,g.PNG,g,616480e6749791ef8dcad5b3,2021-10-19_12h45.55.272,forced_choiceRT,2021.1.2,Win32,60.13229104,,,,,,,,8,Ontime,g,1,2.0504,2,3,11,1,1,,,,,
0.15,,,,,,,,,h.PNG,h,616480e6749791ef8dcad5b3,2021-10-19_12h45.55.272,forced_choiceRT,2021.1.2,Win32,60.13229104,,,,,,,,8,Ontime,h,1,2.084,3,0,12,2,1,,,,,
1.53,,,,,,,,,h.PNG,h,616480e6749791ef8dcad5b3,2021-10-19_12h45.55.272,forced_choiceRT,2021.1.2,Win32,60.13229104,,,,,,,,8,Slow,h,1,2.1336,3,1,13,2,1,,,,,
1.23,,,,,,,,,f.PNG,f,616480e6749791ef8dcad5b3,2021-10-19_12h45.55.272,forced_choiceRT,2021.1.2,Win32,60.13229104,,,,,,,,8,Ontime,f,1,2.0003,3,2,14,0,1,,,,,
1.87,,,,,,,,,h.PNG,h,616480e6749791ef8dcad5b3,2021-10-19_12h45.55.272,forced_choiceRT,2021.1.2,Win32,60.13229104,,,,,,,,8,Ontime,f,0,1.9171,3,3,15,2,1,,,,,
0.79,,,,,,,,,f.PNG,f,616480e6749791ef8dcad5b3,2021-10-19_12h45.55.272,forced_choiceRT,2021.1.2,Win32,60.13229104,,,,,,,,8,Slow,f,1,2.1337,4,0,16,0,1,,,,,
1.18,,,,,,,,,j.PNG,j,616480e6749791ef8dcad5b3,2021-10-19_12h45.55.272,forced_choiceRT,2021.1.2,Win32,60.13229104,,,,,,,,8,Ontime,j,1,1.9339,4,1,17,3,1,,,,,
1.45,,,,,,,,,h.PNG,h,616480e6749791ef8dcad5b3,2021-10-19_12h45.55.272,forced_choiceRT,2021.1.2,Win32,60.13229104,,,,,,,,8,Ontime,h,1,2.034,4,2,18,2,1,,,,,
1.1,,,,,,,,,h.PNG,h,616480e6749791ef8dcad5b3,2021-10-19_12h45.55.272,forced_choiceRT,2021.1.2,Win32,60.13229104,,,,,,,,8,Ontime,h,1,2.0337,4,3,19,2,1,,,,,
0.45,,,,,,,,,j.PNG,j,616480e6749791ef8dcad5b3,2021-10-19_12h45.55.272,forced_choiceRT,2021.1.2,Win32,60.13229104,,,,,,,,8,Ontime,j,1,2.0387,5,0,20,3,1,,,,,
1.98,,,,,,,,,j.PNG,j,616480e6749791ef8dcad5b3,2021-10-19_12h45.55.272,forced_choiceRT,2021.1.2,Win32,60.13229104,,,,,,,,8,Ontime,g,0,2.0693,5,1,21,3,1,,,,,
1.02,,,,,,,,,j.PNG,j,616480e6749791ef8dcad5b3,2021-10-19_12h45.55.272,forced_choiceRT,2021.1.2,Win32,60.13229104,,,,,,,,8,Ontime,j,1,2.0508,5,2,22,3,1,,,,,
0.63,,,,,,,,,j.PNG,j,616480e6749791ef8dcad5b3,2021-10-19_12h45.55.272,forced_choiceRT,2021.1.2,Win32,60.13229104,,,,,,,,8,Ontime,j,1,2.0673,5,3,23,3,1,,,,,
0.13,,,,,,,,,f.PNG,f,616480e6749791ef8dcad5b3,2021-10-19_12h45.55.272,forced_choiceRT,2021.1.2,Win32,60.13229104,,,,,,,,8,Fast,f,1,1.8669,6,0,24,0,1,,,,,
1.12,,,,,,,,,j.PNG,j,616480e6749791ef8dcad5b3,2021-10-19_12h45.55.272,forced_choiceRT,2021.1.2,Win32,60.13229104,,,,,,,,8,Ontime,j,1,1.9953,6,1,25,3,1,,,,,
0,,,,,,,,,g.PNG,g,616480e6749791ef8dcad5b3,2021-10-19_12h45.55.272,forced_choiceRT,2021.1.2,Win32,60.13229104,,,,,,,,8,Ontime,g,1,2.0098,6,2,26,1,1,,,,,
1.08,,,,,,,,,g.PNG,g,616480e6749791ef8dcad5b3,2021-10-19_12h45.55.272,forced_choiceRT,2021.1.2,Win32,60.13229104,,,,,,,,8,Ontime,g,1,1.9651,6,3,27,1,1,,,,,
0.63,,,,,,,,,f.PNG,f,616480e6749791ef8dcad5b3,2021-10-19_12h45.55.272,forced_choiceRT,2021.1.2,Win32,60.13229104,,,,,,,,8,Ontime,f,1,1.9415,7,0,28,0,1,,,,,
1.05,,,,,,,,,g.PNG,g,616480e6749791ef8dcad5b3,2021-10-19_12h45.55.272,forced_choiceRT,2021.1.2,Win32,60.13229104,,,,,,,,8,Fast,g,1,1.8908,7,1,29,1,1,,,,,
1.6,,,,,,,,,f.PNG,f,616480e6749791ef8dcad5b3,2021-10-19_12h45.55.272,forced_choiceRT,2021.1.2,Win32,60.13229104,,,,,,,,8,Slow,f,1,2.2045,7,2,30,0,1,,,,,
1.7,,,,,,,,,h.PNG,h,616480e6749791ef8dcad5b3,2021-10-19_12h45.55.272,forced_choiceRT,2021.1.2,Win32,60.13229104,,,,,,,,8,Ontime,g,0,2.0543,7,3,31,2,1,,,,,
1.73,,,,,,,,,h.PNG,h,616480e6749791ef8dcad5b3,2021-10-19_12h45.55.272,forced_choiceRT,2021.1.2,Win32,60.13229104,,,,,,,,8,Ontime,h,1,1.9779,8,0,32,2,1,,,,,
1.51,,,,,,,,,h.PNG,h,616480e6749791ef8dcad5b3,2021-10-19_12h45.55.272,forced_choiceRT,2021.1.2,Win32,60.13229104,,,,,,,,8,Ontime,h,1,1.9453,8,1,33,2,1,,,,,
1.03,,,,,,,,,g.PNG,g,616480e6749791ef8dcad5b3,2021-10-19_12h45.55.272,forced_choiceRT,2021.1.2,Win32,60.13229104,,,,,,,,8,Fast,g,1,1.7748,8,2,34,1,1,,,,,
0.03,,,,,,,,,j.PNG,j,616480e6749791ef8dcad5b3,2021-10-19_12h45.55.272,forced_choiceRT,2021.1.2,Win32,60.13229104,,,,,,,,8,Ontime,j,1,1.9793,8,3,35,3,1,,,,,
1.33,,,,,,,,,h.PNG,h,616480e6749791ef8dcad5b3,2021-10-19_12h45.55.272,forced_choiceRT,2021.1.2,Win32,60.13229104,,,,,,,,8,Ontime,h,1,1.9505,9,0,36,2,1,,,,,
0.21,,,,,,,,,j.PNG,j,616480e6749791ef8dcad5b3,2021-10-19_12h45.55.272,forced_choiceRT,2021.1.2,Win32,60.13229104,,,,,,,,8,Ontime,j,1,1.9541,9,1,37,3,1,,,,,
0.61,,,,,,,,,f.PNG,f,616480e6749791ef8dcad5b3,2021-10-19_12h45.55.272,forced_choiceRT,2021.1.2,Win32,60.13229104,,,,,,,,8,Ontime,f,1,2.0146,9,2,38,0,1,,,,,
1.77,,,,,,,,,j.PNG,j,616480e6749791ef8dcad5b3,2021-10-19_12h45.55.272,forced_choiceRT,2021.1.2,Win32,60.13229104,,,,,,,,8,Ontime,f,0,2.03,9,3,39,3,1,,,,,
,,,,,,,,,,,616480e6749791ef8dcad5b3,2021-10-19_12h45.55.272,forced_choiceRT,2021.1.2,Win32,60.13229104,,,,,,,,,,,,,,,,,,7,0,7,0,1
1.87,,,,,,,,,g.PNG,g,616480e6749791ef8dcad5b3,2021-10-19_12h45.55.272,forced_choiceRT,2021.1.2,Win32,60.13229104,,,,,,,,9,Ontime,f,0,1.9503,0,0,0,1,1,,,,,
1.5,,,,,,,,,f.PNG,f,616480e6749791ef8dcad5b3,2021-10-19_12h45.55.272,forced_choiceRT,2021.1.2,Win32,60.13229104,,,,,,,,9,Fast,h,0,1.8337,0,1,1,0,1,,,,,
0.94,,,,,,,,,f.PNG,f,616480e6749791ef8dcad5b3,2021-10-19_12h45.55.272,forced_choiceRT,2021.1.2,Win32,60.13229104,,,,,,,,9,Ontime,f,1,2.0171,0,2,2,0,1,,,,,
1.61,,,,,,,,,g.PNG,g,616480e6749791ef8dcad5b3,2021-10-19_12h45.55.272,forced_choiceRT,2021.1.2,Win32,60.13229104,,,,,,,,9,Ontime,f,0,2.0126,0,3,3,1,1,,,,,
0.02,,,,,,,,,h.PNG,h,616480e6749791ef8dcad5b3,2021-10-19_12h45.55.272,forced_choiceRT,2021.1.2,Win32,60.13229104,,,,,,,,9,Fast,g,0,1.7793,1,0,4,2,1,,,,,
0.07,,,,,,,,,g.PNG,g,616480e6749791ef8dcad5b3,2021-10-19_12h45.55.272,forced_choiceRT,2021.1.2,Win32,60.13229104,,,,,,,,9,Slow,g,1,2.1491,1,1,5,1,1,,,,,
0.65,,,,,,,,,g.PNG,g,616480e6749791ef8dcad5b3,2021-10-19_12h45.55.272,forced_choiceRT,2021.1.2,Win32,60.13229104,,,,,,,,9,Ontime,g,1,1.9243,1,2,6,1,1,,,,,
1.85,,,,,,,,,h.PNG,h,616480e6749791ef8dcad5b3,2021-10-19_12h45.55.272,forced_choiceRT,2021.1.2,Win32,60.13229104,,,,,,,,9,Ontime,g,0,1.9303,1,3,7,2,1,,,,,
0.24,,,,,,,,,f.PNG,f,616480e6749791ef8dcad5b3,2021-10-19_12h45.55.272,forced_choiceRT,2021.1.2,Win32,60.13229104,,,,,,,,9,Ontime,f,1,1.9539,2,0,8,0,1,,,,,
1.64,,,,,,,,,f.PNG,f,616480e6749791ef8dcad5b3,2021-10-19_12h45.55.272,forced_choiceRT,2021.1.2,Win32,60.13229104,,,,,,,,9,Ontime,g,0,2.0797,2,1,9,0,1,,,,,
1.71,,,,,,,,,f.PNG,f,616480e6749791ef8dcad5b3,2021-10-19_12h45.55.272,forced_choiceRT,2021.1.2,Win32,60.13229104,,,,,,,,9,Ontime,f,1,1.9345,2,2,10,0,1,,,,,
0.68,,,,,,,,,j.PNG,j,616480e6749791ef8dcad5b3,2021-10-19_12h45.55.272,forced_choiceRT,2021.1.2,Win32,60.13229104,,,,,,,,9,Ontime,j,1,1.9926,2,3,11,3,1,,,,,
0.07,,,,,,,,,g.PNG,g,616480e6749791ef8dcad5b3,2021-10-19_12h45.55.272,forced_choiceRT,2021.1.2,Win32,60.13229104,,,,,,,,9,Ontime,g,1,2.0222,3,0,12,1,1,,,,,
0.59,,,,,,,,,h.PNG,h,616480e6749791ef8dcad5b3,2021-10-19_12h45.55.272,forced_choiceRT,2021.1.2,Win32,60.13229104,,,,,,,,9,Ontime,h,1,2.0779,3,1,13,2,1,,,,,
0.27,,,,,,,,,g.PNG,g,616480e6749791ef8dcad5b3,2021-10-19_12h45.55.272,forced_choiceRT,2021.1.2,Win32,60.13229104,,,,,,,,9,Ontime,g,1,1.9518,3,2,14,1,1,,,,,
0.19,,,,,,,,,h.PNG,h,616480e6749791ef8dcad5b3,2021-10-19_12h45.55.272,forced_choiceRT,2021.1.2,Win32,60.13229104,,,,,,,,9,Ontime,h,1,2.0313,3,3,15,2,1,,,,,
0.76,,,,,,,,,j.PNG,j,616480e6749791ef8dcad5b3,2021-10-19_12h45.55.272,forced_choiceRT,2021.1.2,Win32,60.13229104,,,,,,,,9,Ontime,j,1,2.0857,4,0,16,3,1,,,,,
1.09,,,,,,,,,h.PNG,h,616480e6749791ef8dcad5b3,2021-10-19_12h45.55.272,forced_choiceRT,2021.1.2,Win32,60.13229104,,,,,,,,9,Fast,h,1,1.6839,4,1,17,2,1,,,,,
0.91,,,,,,,,,g.PNG,g,616480e6749791ef8dcad5b3,2021-10-19_12h45.55.272,forced_choiceRT,2021.1.2,Win32,60.13229104,,,,,,,,9,Ontime,g,1,2.0257,4,2,18,1,1,,,,,
1.57,,,,,,,,,g.PNG,g,616480e6749791ef8dcad5b3,2021-10-19_12h45.55.272,forced_choiceRT,2021.1.2,Win32,60.13229104,,,,,,,,9,Ontime,g,1,2.0464,4,3,19,1,1,,,,,
0.03,,,,,,,,,g.PNG,g,616480e6749791ef8dcad5b3,2021-10-19_12h45.55.272,forced_choiceRT,2021.1.2,Win32,60.13229104,,,,,,,,9,Ontime,g,1,1.9761,5,0,20,1,1,,,,,
0.52,,,,,,,,,f.PNG,f,616480e6749791ef8dcad5b3,2021-10-19_12h45.55.272,forced_choiceRT,2021.1.2,Win32,60.13229104,,,,,,,,9,Ontime,f,1,1.9839,5,1,21,0,1,,,,,
0.78,,,,,,,,,f.PNG,f,616480e6749791ef8dcad5b3,2021-10-19_12h45.55.272,forced_choiceRT,2021.1.2,Win32,60.13229104,,,,,,,,9,Ontime,f,1,1.9596,5,2,22,0,1,,,,,
1.71,,,,,,,,,j.PNG,j,616480e6749791ef8dcad5b3,2021-10-19_12h45.55.272,forced_choiceRT,2021.1.2,Win32,60.13229104,,,,,,,,9,Ontime,f,0,2.097,5,3,23,3,1,,,,,
0.39,,,,,,,,,h.PNG,h,616480e6749791ef8dcad5b3,2021-10-19_12h45.55.272,forced_choiceRT,2021.1.2,Win32,60.13229104,,,,,,,,9,Ontime,h,1,2.0672,6,0,24,2,1,,,,,
1.4,,,,,,,,,h.PNG,h,616480e6749791ef8dcad5b3,2021-10-19_12h45.55.272,forced_choiceRT,2021.1.2,Win32,60.13229104,,,,,,,,9,Ontime,h,1,1.977,6,1,25,2,1,,,,,
1.03,,,,,,,,,h.PNG,h,616480e6749791ef8dcad5b3,2021-10-19_12h45.55.272,forced_choiceRT,2021.1.2,Win32,60.13229104,,,,,,,,9,Ontime,h,1,2.0899,6,2,26,2,1,,,,,
0.65,,,,,,,,,j.PNG,j,616480e6749791ef8dcad5b3,2021-10-19_12h45.55.272,forced_choiceRT,2021.1.2,Win32,60.13229104,,,,,,,,9,Ontime,j,1,1.9839,6,3,27,3,1,,,,,
0.31,,,,,,,,,g.PNG,g,616480e6749791ef8dcad5b3,2021-10-19_12h45.55.272,forced_choiceRT,2021.1.2,Win32,60.13229104,,,,,,,,9,Ontime,g,1,1.9338,7,0,28,1,1,,,,,
0.37,,,,,,,,,j.PNG,j,616480e6749791ef8dcad5b3,2021-10-19_12h45.55.272,forced_choiceRT,2021.1.2,Win32,60.13229104,,,,,,,,9,Ontime,j,1,1.9838,7,1,29,3,1,,,,,
1.55,,,,,,,,,j.PNG,j,616480e6749791ef8dcad5b3,2021-10-19_12h45.55.272,forced_choiceRT,2021.1.2,Win32,60.13229104,,,,,,,,9,Ontime,j,1,2.0547,7,2,30,3,1,,,,,
1.22,,,,,,,,,f.PNG,f,616480e6749791ef8dcad5b3,2021-10-19_12h45.55.272,forced_choiceRT,2021.1.2,Win32,60.13229104,,,,,,,,9,Fast,f,1,1.8711,7,3,31,0,1,,,,,
0.58,,,,,,,,,f.PNG,f,616480e6749791ef8dcad5b3,2021-10-19_12h45.55.272,forced_choiceRT,2021.1.2,Win32,60.13229104,,,,,,,,9,Fast,f,1,1.7595,8,0,32,0,1,,,,,
1.47,,,,,,,,,j.PNG,j,616480e6749791ef8dcad5b3,2021-10-19_12h45.55.272,forced_choiceRT,2021.1.2,Win32,60.13229104,,,,,,,,9,Ontime,f,0,1.9248,8,1,33,3,1,,,,,
1.45,,,,,,,,,j.PNG,j,616480e6749791ef8dcad5b3,2021-10-19_12h45.55.272,forced_choiceRT,2021.1.2,Win32,60.13229104,,,,,,,,9,Fast,j,1,1.8233,8,2,34,3,1,,,,,
1.02,,,,,,,,,j.PNG,j,616480e6749791ef8dcad5b3,2021-10-19_12h45.55.272,forced_choiceRT,2021.1.2,Win32,60.13229104,,,,,,,,9,Ontime,j,1,2.025,8,3,35,3,1,,,,,
1.5,,,,,,,,,j.PNG,j,616480e6749791ef8dcad5b3,2021-10-19_12h45.55.272,forced_choiceRT,2021.1.2,Win32,60.13229104,,,,,,,,9,Ontime,j,1,2.0522,9,0,36,3,1,,,,,
0.62,,,,,,,,,h.PNG,h,616480e6749791ef8dcad5b3,2021-10-19_12h45.55.272,forced_choiceRT,2021.1.2,Win32,60.13229104,,,,,,,,9,Ontime,h,1,2.0303,9,1,37,2,1,,,,,
0.51,,,,,,,,,h.PNG,h,616480e6749791ef8dcad5b3,2021-10-19_12h45.55.272,forced_choiceRT,2021.1.2,Win32,60.13229104,,,,,,,,9,Ontime,h,1,2.0881,9,2,38,2,1,,,,,
1.54,,,,,,,,,f.PNG,f,616480e6749791ef8dcad5b3,2021-10-19_12h45.55.272,forced_choiceRT,2021.1.2,Win32,60.13229104,,,,,,,,9,Slow,f,1,2.1017,9,3,39,0,1,,,,,
,,,,,,,,,,,616480e6749791ef8dcad5b3,2021-10-19_12h45.55.272,forced_choiceRT,2021.1.2,Win32,60.13229104,,,,,,,,,,,,,,,,,,8,0,8,0,1
1.01,,,,,,,,,h.PNG,h,616480e6749791ef8dcad5b3,2021-10-19_12h45.55.272,forced_choiceRT,2021.1.2,Win32,60.13229104,,,,,,,,10,Fast,h,1,1.7173,0,0,0,2,1,,,,,
1.13,,,,,,,,,g.PNG,g,616480e6749791ef8dcad5b3,2021-10-19_12h45.55.272,forced_choiceRT,2021.1.2,Win32,60.13229104,,,,,,,,10,Slow,g,1,2.1216,0,1,1,1,1,,,,,
0.68,,,,,,,,,g.PNG,g,616480e6749791ef8dcad5b3,2021-10-19_12h45.55.272,forced_choiceRT,2021.1.2,Win32,60.13229104,,,,,,,,10,Ontime,g,1,2.0503,0,2,2,1,1,,,,,
0.56,,,,,,,,,j.PNG,j,616480e6749791ef8dcad5b3,2021-10-19_12h45.55.272,forced_choiceRT,2021.1.2,Win32,60.13229104,,,,,,,,10,Slow,j,1,2.2171,0,3,3,3,1,,,,,
1.95,,,,,,,,,j.PNG,j,616480e6749791ef8dcad5b3,2021-10-19_12h45.55.272,forced_choiceRT,2021.1.2,Win32,60.13229104,,,,,,,,10,Slow,g,0,12.262,1,0,4,3,1,,,,,
1.15,,,,,,,,,j.PNG,j,616480e6749791ef8dcad5b3,2021-10-19_12h45.55.272,forced_choiceRT,2021.1.2,Win32,60.13229104,,,,,,,,10,Fast,j,1,1.8357,1,1,5,3,1,,,,,
1.74,,,,,,,,,h.PNG,h,616480e6749791ef8dcad5b3,2021-10-19_12h45.55.272,forced_choiceRT,2021.1.2,Win32,60.13229104,,,,,,,,10,Slow,h,1,5.2748,1,2,6,2,1,,,,,
1.43,,,,,,,,,h.PNG,h,616480e6749791ef8dcad5b3,2021-10-19_12h45.55.272,forced_choiceRT,2021.1.2,Win32,60.13229104,,,,,,,,10,Ontime,h,1,2.0172,1,3,7,2,1,,,,,
0.12,,,,,,,,,h.PNG,h,616480e6749791ef8dcad5b3,2021-10-19_12h45.55.272,forced_choiceRT,2021.1.2,Win32,60.13229104,,,,,,,,10,Ontime,h,1,2.0503,2,0,8,2,1,,,,,
0.15,,,,,,,,,f.PNG,f,616480e6749791ef8dcad5b3,2021-10-19_12h45.55.272,forced_choiceRT,2021.1.2,Win32,60.13229104,,,,,,,,10,Ontime,f,1,1.9436,2,1,9,0,1,,,,,
0.3,,,,,,,,,f.PNG,f,616480e6749791ef8dcad5b3,2021-10-19_12h45.55.272,forced_choiceRT,2021.1.2,Win32,60.13229104,,,,,,,,10,Fast,f,1,1.8967,2,2,10,0,1,,,,,
1.41,,,,,,,,,j.PNG,j,616480e6749791ef8dcad5b3,2021-10-19_12h45.55.272,forced_choiceRT,2021.1.2,Win32,60.13229104,,,,,,,,10,Ontime,j,1,2.0237,2,3,11,3,1,,,,,
1.66,,,,,,,,,g.PNG,g,616480e6749791ef8dcad5b3,2021-10-19_12h45.55.272,forced_choiceRT,2021.1.2,Win32,60.13229104,,,,,,,,10,Slow,j,0,2.1036,3,0,12,1,1,,,,,
1.78,,,,,,,,,j.PNG,j,616480e6749791ef8dcad5b3,2021-10-19_12h45.55.272,forced_choiceRT,2021.1.2,Win32,60.13229104,,,,,,,,10,Ontime,g,0,1.9062,3,1,13,3,1,,,,,
0.37,,,,,,,,,h.PNG,h,616480e6749791ef8dcad5b3,2021-10-19_12h45.55.272,forced_choiceRT,2021.1.2,Win32,60.13229104,,,,,,,,10,Fast,h,1,1.8815,3,2,14,2,1,,,,,
1.66,,,,,,,,,f.PNG,f,616480e6749791ef8dcad5b3,2021-10-19_12h45.55.272,forced_choiceRT,2021.1.2,Win32,60.13229104,,,,,,,,10,Slow,f,1,2.217,3,3,15,0,1,,,,,
0.94,,,,,,,,,h.PNG,h,616480e6749791ef8dcad5b3,2021-10-19_12h45.55.272,forced_choiceRT,2021.1.2,Win32,60.13229104,,,,,,,,10,Slow,h,1,2.242,4,0,16,2,1,,,,,
1.07,,,,,,,,,j.PNG,j,616480e6749791ef8dcad5b3,2021-10-19_12h45.55.272,forced_choiceRT,2021.1.2,Win32,60.13229104,,,,,,,,10,Fast,j,1,1.8072,4,1,17,3,1,,,,,
0.44,,,,,,,,,f.PNG,f,616480e6749791ef8dcad5b3,2021-10-19_12h45.55.272,forced_choiceRT,2021.1.2,Win32,60.13229104,,,,,,,,10,Ontime,f,1,2.0223,4,2,18,0,1,,,,,
1.66,,,,,,,,,f.PNG,f,616480e6749791ef8dcad5b3,2021-10-19_12h45.55.272,forced_choiceRT,2021.1.2,Win32,60.13229104,,,,,,,,10,Ontime,f,1,1.9838,4,3,19,0,1,,,,,
1,,,,,,,,,h.PNG,h,616480e6749791ef8dcad5b3,2021-10-19_12h45.55.272,forced_choiceRT,2021.1.2,Win32,60.13229104,,,,,,,,10,Ontime,h,1,2.0474,5,0,20,2,1,,,,,
0.11,,,,,,,,,f.PNG,f,616480e6749791ef8dcad5b3,2021-10-19_12h45.55.272,forced_choiceRT,2021.1.2,Win32,60.13229104,,,,,,,,10,Ontime,f,1,2.0198,5,1,21,0,1,,,,,
0,,,,,,,,,g.PNG,g,616480e6749791ef8dcad5b3,2021-10-19_12h45.55.272,forced_choiceRT,2021.1.2,Win32,60.13229104,,,,,,,,10,Ontime,g,1,2.0338,5,2,22,1,1,,,,,
1.49,,,,,,,,,j.PNG,j,616480e6749791ef8dcad5b3,2021-10-19_12h45.55.272,forced_choiceRT,2021.1.2,Win32,60.13229104,,,,,,,,10,Fast,h,0,1.771,5,3,23,3,1,,,,,
0.21,,,,,,,,,j.PNG,j,616480e6749791ef8dcad5b3,2021-10-19_12h45.55.272,forced_choiceRT,2021.1.2,Win32,60.13229104,,,,,,,,10,Ontime,j,1,2.0006,6,0,24,3,1,,,,,
1.03,,,,,,,,,g.PNG,g,616480e6749791ef8dcad5b3,2021-10-19_12h45.55.272,forced_choiceRT,2021.1.2,Win32,60.13229104,,,,,,,,10,Ontime,g,1,2.0296,6,1,25,1,1,,,,,
1.51,,,,,,,,,g.PNG,g,616480e6749791ef8dcad5b3,2021-10-19_12h45.55.272,forced_choiceRT,2021.1.2,Win32,60.13229104,,,,,,,,10,Ontime,f,0,1.9388,6,2,26,1,1,,,,,
0.02,,,,,,,,,h.PNG,h,616480e6749791ef8dcad5b3,2021-10-19_12h45.55.272,forced_choiceRT,2021.1.2,Win32,60.13229104,,,,,,,,10,Ontime,h,1,2.0924,6,3,27,2,1,,,,,
0.02,,,,,,,,,g.PNG,g,616480e6749791ef8dcad5b3,2021-10-19_12h45.55.272,forced_choiceRT,2021.1.2,Win32,60.13229104,,,,,,,,10,Ontime,g,1,2.0012,7,0,28,1,1,,,,,
1.83,,,,,,,,,f.PNG,f,616480e6749791ef8dcad5b3,2021-10-19_12h45.55.272,forced_choiceRT,2021.1.2,Win32,60.13229104,,,,,,,,10,Ontime,f,1,2.0502,7,1,29,0,1,,,,,
1.78,,,,,,,,,f.PNG,f,616480e6749791ef8dcad5b3,2021-10-19_12h45.55.272,forced_choiceRT,2021.1.2,Win32,60.13229104,,,,,,,,10,Ontime,g,0,2.0991,7,2,30,0,1,,,,,
0.46,,,,,,,,,j.PNG,j,616480e6749791ef8dcad5b3,2021-10-19_12h45.55.272,forced_choiceRT,2021.1.2,Win32,60.13229104,,,,,,,,10,Ontime,j,1,2.0629,7,3,31,3,1,,,,,
0.38,,,,,,,,,h.PNG,h,616480e6749791ef8dcad5b3,2021-10-19_12h45.55.272,forced_choiceRT,2021.1.2,Win32,60.13229104,,,,,,,,10,Slow,h,1,2.1647,8,0,32,2,1,,,,,
1.13,,,,,,,,,g.PNG,g,616480e6749791ef8dcad5b3,2021-10-19_12h45.55.272,forced_choiceRT,2021.1.2,Win32,60.13229104,,,,,,,,10,Ontime,g,1,2.0169,8,1,33,1,1,,,,,
1.63,,,,,,,,,g.PNG,g,616480e6749791ef8dcad5b3,2021-10-19_12h45.55.272,forced_choiceRT,2021.1.2,Win32,60.13229104,,,,,,,,10,Slow,g,1,2.1171,8,2,34,1,1,,,,,
1.24,,,,,,,,,h.PNG,h,616480e6749791ef8dcad5b3,2021-10-19_12h45.55.272,forced_choiceRT,2021.1.2,Win32,60.13229104,,,,,,,,10,Fast,h,1,1.8842,8,3,35,2,1,,,,,
1.19,,,,,,,,,j.PNG,j,616480e6749791ef8dcad5b3,2021-10-19_12h45.55.272,forced_choiceRT,2021.1.2,Win32,60.13229104,,,,,,,,10,Ontime,j,1,2.0373,9,0,36,3,1,,,,,
1.18,,,,,,,,,g.PNG,g,616480e6749791ef8dcad5b3,2021-10-19_12h45.55.272,forced_choiceRT,2021.1.2,Win32,60.13229104,,,,,,,,10,Ontime,g,1,2.0339,9,1,37,1,1,,,,,
1.54,,,,,,,,,f.PNG,f,616480e6749791ef8dcad5b3,2021-10-19_12h45.55.272,forced_choiceRT,2021.1.2,Win32,60.13229104,,,,,,,,10,Ontime,g,0,2.0253,9,2,38,0,1,,,,,
0.93,,,,,,,,,f.PNG,f,616480e6749791ef8dcad5b3,2021-10-19_12h45.55.272,forced_choiceRT,2021.1.2,Win32,60.13229104,,,,,,,,10,Ontime,f,1,2.067,9,3,39,0,1,,,,,
,,,,,,,,,,,616480e6749791ef8dcad5b3,2021-10-19_12h45.55.272,forced_choiceRT,2021.1.2,Win32,60.13229104,,,,,,,,,,,,,,,,,,9,0,9,0,1
