IP_Addresss,target_onset,trial_resp_sp.keys,trial_resp_sp.corr,trial_resp_sp.rt,trials_train_loop.thisRepN,trials_train_loop.thisTrialN,trials_train_loop.thisN,trials_train_loop.thisIndex,trials_train_loop.ran,pic,correct_key,participant,date,expName,psychopyVersion,OS,frameRate,trial_resp_timing.keys,trial_resp_timing.rt,trials_train_timing.thisRepN,trials_train_timing.thisTrialN,trials_train_timing.thisN,trials_train_timing.thisIndex,trials_train_timing.ran,block_id,ontime,forcedRT_resp.keys,forcedRT_resp.corr,forcedRT_resp.rt,trials.thisRepN,trials.thisTrialN,trials.thisN,trials.thisIndex,trials.ran,blocks.thisRepN,blocks.thisTrialN,blocks.thisN,blocks.thisIndex,blocks.ran
174.49.99.71,0,g,1,1.4445,0,0,0,1,1,g.PNG,g,6165a8ee6dde7ff6f4b22e6f,2021-10-19_15h45.45.530,forced_choiceRT,2021.1.2,Win32,59.89099838,,,,,,,,,,,,,,,,,,,,,,
,0,f,1,0.9471,0,1,1,0,1,f.PNG,f,6165a8ee6dde7ff6f4b22e6f,2021-10-19_15h45.45.530,forced_choiceRT,2021.1.2,Win32,59.89099838,,,,,,,,,,,,,,,,,,,,,,
,0,g,1,0.9992,0,2,2,1,1,g.PNG,g,6165a8ee6dde7ff6f4b22e6f,2021-10-19_15h45.45.530,forced_choiceRT,2021.1.2,Win32,59.89099838,,,,,,,,,,,,,,,,,,,,,,
,0,h,1,0.7848,0,3,3,2,1,h.PNG,h,6165a8ee6dde7ff6f4b22e6f,2021-10-19_15h45.45.530,forced_choiceRT,2021.1.2,Win32,59.89099838,,,,,,,,,,,,,,,,,,,,,,
,0,j,1,0.6808,1,0,4,3,1,j.PNG,j,6165a8ee6dde7ff6f4b22e6f,2021-10-19_15h45.45.530,forced_choiceRT,2021.1.2,Win32,59.89099838,,,,,,,,,,,,,,,,,,,,,,
,0,g,1,1.0097,1,1,5,1,1,g.PNG,g,6165a8ee6dde7ff6f4b22e6f,2021-10-19_15h45.45.530,forced_choiceRT,2021.1.2,Win32,59.89099838,,,,,,,,,,,,,,,,,,,,,,
,0,g,1,0.5571,1,2,6,1,1,g.PNG,g,6165a8ee6dde7ff6f4b22e6f,2021-10-19_15h45.45.530,forced_choiceRT,2021.1.2,Win32,59.89099838,,,,,,,,,,,,,,,,,,,,,,
,0,f,1,0.6983,1,3,7,0,1,f.PNG,f,6165a8ee6dde7ff6f4b22e6f,2021-10-19_15h45.45.530,forced_choiceRT,2021.1.2,Win32,59.89099838,,,,,,,,,,,,,,,,,,,,,,
,0,j,1,0.7466,2,0,8,3,1,j.PNG,j,6165a8ee6dde7ff6f4b22e6f,2021-10-19_15h45.45.530,forced_choiceRT,2021.1.2,Win32,59.89099838,,,,,,,,,,,,,,,,,,,,,,
,0,j,1,0.6318,2,1,9,3,1,j.PNG,j,6165a8ee6dde7ff6f4b22e6f,2021-10-19_15h45.45.530,forced_choiceRT,2021.1.2,Win32,59.89099838,,,,,,,,,,,,,,,,,,,,,,
,0,f,1,0.6707,2,2,10,0,1,f.PNG,f,6165a8ee6dde7ff6f4b22e6f,2021-10-19_15h45.45.530,forced_choiceRT,2021.1.2,Win32,59.89099838,,,,,,,,,,,,,,,,,,,,,,
,0,j,1,0.7034,2,3,11,3,1,j.PNG,j,6165a8ee6dde7ff6f4b22e6f,2021-10-19_15h45.45.530,forced_choiceRT,2021.1.2,Win32,59.89099838,,,,,,,,,,,,,,,,,,,,,,
,0,f,0,0.7006,3,0,12,1,1,g.PNG,g,6165a8ee6dde7ff6f4b22e6f,2021-10-19_15h45.45.530,forced_choiceRT,2021.1.2,Win32,59.89099838,,,,,,,,,,,,,,,,,,,,,,
,0,h,1,1.22,3,1,13,2,1,h.PNG,h,6165a8ee6dde7ff6f4b22e6f,2021-10-19_15h45.45.530,forced_choiceRT,2021.1.2,Win32,59.89099838,,,,,,,,,,,,,,,,,,,,,,
,0,g,1,0.8917,3,2,14,1,1,g.PNG,g,6165a8ee6dde7ff6f4b22e6f,2021-10-19_15h45.45.530,forced_choiceRT,2021.1.2,Win32,59.89099838,,,,,,,,,,,,,,,,,,,,,,
,0,f,1,0.8285,3,3,15,0,1,f.PNG,f,6165a8ee6dde7ff6f4b22e6f,2021-10-19_15h45.45.530,forced_choiceRT,2021.1.2,Win32,59.89099838,,,,,,,,,,,,,,,,,,,,,,
,0,f,1,0.7066,4,0,16,0,1,f.PNG,f,6165a8ee6dde7ff6f4b22e6f,2021-10-19_15h45.45.530,forced_choiceRT,2021.1.2,Win32,59.89099838,,,,,,,,,,,,,,,,,,,,,,
,0,j,1,0.6557,4,1,17,3,1,j.PNG,j,6165a8ee6dde7ff6f4b22e6f,2021-10-19_15h45.45.530,forced_choiceRT,2021.1.2,Win32,59.89099838,,,,,,,,,,,,,,,,,,,,,,
,0,j,1,0.733,4,2,18,3,1,j.PNG,j,6165a8ee6dde7ff6f4b22e6f,2021-10-19_15h45.45.530,forced_choiceRT,2021.1.2,Win32,59.89099838,,,,,,,,,,,,,,,,,,,,,,
,0,f,1,0.659,4,3,19,0,1,f.PNG,f,6165a8ee6dde7ff6f4b22e6f,2021-10-19_15h45.45.530,forced_choiceRT,2021.1.2,Win32,59.89099838,,,,,,,,,,,,,,,,,,,,,,
,0,h,1,0.9108,5,0,20,2,1,h.PNG,h,6165a8ee6dde7ff6f4b22e6f,2021-10-19_15h45.45.530,forced_choiceRT,2021.1.2,Win32,59.89099838,,,,,,,,,,,,,,,,,,,,,,
,0,g,1,0.6442,5,1,21,1,1,g.PNG,g,6165a8ee6dde7ff6f4b22e6f,2021-10-19_15h45.45.530,forced_choiceRT,2021.1.2,Win32,59.89099838,,,,,,,,,,,,,,,,,,,,,,
,0,h,1,0.7315,5,2,22,2,1,h.PNG,h,6165a8ee6dde7ff6f4b22e6f,2021-10-19_15h45.45.530,forced_choiceRT,2021.1.2,Win32,59.89099838,,,,,,,,,,,,,,,,,,,,,,
,0,j,1,0.6882,5,3,23,3,1,j.PNG,j,6165a8ee6dde7ff6f4b22e6f,2021-10-19_15h45.45.530,forced_choiceRT,2021.1.2,Win32,59.89099838,,,,,,,,,,,,,,,,,,,,,,
,0,f,1,0.6183,6,0,24,0,1,f.PNG,f,6165a8ee6dde7ff6f4b22e6f,2021-10-19_15h45.45.530,forced_choiceRT,2021.1.2,Win32,59.89099838,,,,,,,,,,,,,,,,,,,,,,
,0,j,1,0.6509,6,1,25,3,1,j.PNG,j,6165a8ee6dde7ff6f4b22e6f,2021-10-19_15h45.45.530,forced_choiceRT,2021.1.2,Win32,59.89099838,,,,,,,,,,,,,,,,,,,,,,
,0,f,1,0.6359,6,2,26,0,1,f.PNG,f,6165a8ee6dde7ff6f4b22e6f,2021-10-19_15h45.45.530,forced_choiceRT,2021.1.2,Win32,59.89099838,,,,,,,,,,,,,,,,,,,,,,
,0,h,1,0.8706,6,3,27,2,1,h.PNG,h,6165a8ee6dde7ff6f4b22e6f,2021-10-19_15h45.45.530,forced_choiceRT,2021.1.2,Win32,59.89099838,,,,,,,,,,,,,,,,,,,,,,
,0,f,1,0.8286,7,0,28,0,1,f.PNG,f,6165a8ee6dde7ff6f4b22e6f,2021-10-19_15h45.45.530,forced_choiceRT,2021.1.2,Win32,59.89099838,,,,,,,,,,,,,,,,,,,,,,
,0,h,1,0.8769,7,1,29,2,1,h.PNG,h,6165a8ee6dde7ff6f4b22e6f,2021-10-19_15h45.45.530,forced_choiceRT,2021.1.2,Win32,59.89099838,,,,,,,,,,,,,,,,,,,,,,
,0,g,1,1.0895,7,2,30,1,1,g.PNG,g,6165a8ee6dde7ff6f4b22e6f,2021-10-19_15h45.45.530,forced_choiceRT,2021.1.2,Win32,59.89099838,,,,,,,,,,,,,,,,,,,,,,
,0,h,1,0.8389,7,3,31,2,1,h.PNG,h,6165a8ee6dde7ff6f4b22e6f,2021-10-19_15h45.45.530,forced_choiceRT,2021.1.2,Win32,59.89099838,,,,,,,,,,,,,,,,,,,,,,
,0,j,1,0.8373,8,0,32,3,1,j.PNG,j,6165a8ee6dde7ff6f4b22e6f,2021-10-19_15h45.45.530,forced_choiceRT,2021.1.2,Win32,59.89099838,,,,,,,,,,,,,,,,,,,,,,
,0,f,1,0.9073,8,1,33,0,1,f.PNG,f,6165a8ee6dde7ff6f4b22e6f,2021-10-19_15h45.45.530,forced_choiceRT,2021.1.2,Win32,59.89099838,,,,,,,,,,,,,,,,,,,,,,
,0,g,1,1.0461,8,2,34,1,1,g.PNG,g,6165a8ee6dde7ff6f4b22e6f,2021-10-19_15h45.45.530,forced_choiceRT,2021.1.2,Win32,59.89099838,,,,,,,,,,,,,,,,,,,,,,
,0,h,1,1.4365,8,3,35,2,1,h.PNG,h,6165a8ee6dde7ff6f4b22e6f,2021-10-19_15h45.45.530,forced_choiceRT,2021.1.2,Win32,59.89099838,,,,,,,,,,,,,,,,,,,,,,
,0,j,1,0.744,9,0,36,3,1,j.PNG,j,6165a8ee6dde7ff6f4b22e6f,2021-10-19_15h45.45.530,forced_choiceRT,2021.1.2,Win32,59.89099838,,,,,,,,,,,,,,,,,,,,,,
,0,g,1,1.4372,9,1,37,1,1,g.PNG,g,6165a8ee6dde7ff6f4b22e6f,2021-10-19_15h45.45.530,forced_choiceRT,2021.1.2,Win32,59.89099838,,,,,,,,,,,,,,,,,,,,,,
,0,f,1,0.9457,9,2,38,0,1,f.PNG,f,6165a8ee6dde7ff6f4b22e6f,2021-10-19_15h45.45.530,forced_choiceRT,2021.1.2,Win32,59.89099838,,,,,,,,,,,,,,,,,,,,,,
,0,f,0,0.5708,9,3,39,2,1,h.PNG,h,6165a8ee6dde7ff6f4b22e6f,2021-10-19_15h45.45.530,forced_choiceRT,2021.1.2,Win32,59.89099838,,,,,,,,,,,,,,,,,,,,,,
,0,g,1,1.0434,10,0,40,1,1,g.PNG,g,6165a8ee6dde7ff6f4b22e6f,2021-10-19_15h45.45.530,forced_choiceRT,2021.1.2,Win32,59.89099838,,,,,,,,,,,,,,,,,,,,,,
,0,h,1,0.979,10,1,41,2,1,h.PNG,h,6165a8ee6dde7ff6f4b22e6f,2021-10-19_15h45.45.530,forced_choiceRT,2021.1.2,Win32,59.89099838,,,,,,,,,,,,,,,,,,,,,,
,0,h,1,0.5721,10,2,42,2,1,h.PNG,h,6165a8ee6dde7ff6f4b22e6f,2021-10-19_15h45.45.530,forced_choiceRT,2021.1.2,Win32,59.89099838,,,,,,,,,,,,,,,,,,,,,,
,0,h,1,0.8331,10,3,43,2,1,h.PNG,h,6165a8ee6dde7ff6f4b22e6f,2021-10-19_15h45.45.530,forced_choiceRT,2021.1.2,Win32,59.89099838,,,,,,,,,,,,,,,,,,,,,,
,0,j,1,0.6612,11,0,44,3,1,j.PNG,j,6165a8ee6dde7ff6f4b22e6f,2021-10-19_15h45.45.530,forced_choiceRT,2021.1.2,Win32,59.89099838,,,,,,,,,,,,,,,,,,,,,,
,0,g,1,0.9513,11,1,45,1,1,g.PNG,g,6165a8ee6dde7ff6f4b22e6f,2021-10-19_15h45.45.530,forced_choiceRT,2021.1.2,Win32,59.89099838,,,,,,,,,,,,,,,,,,,,,,
,0,g,1,0.6884,11,2,46,1,1,g.PNG,g,6165a8ee6dde7ff6f4b22e6f,2021-10-19_15h45.45.530,forced_choiceRT,2021.1.2,Win32,59.89099838,,,,,,,,,,,,,,,,,,,,,,
,0,h,1,0.648,11,3,47,2,1,h.PNG,h,6165a8ee6dde7ff6f4b22e6f,2021-10-19_15h45.45.530,forced_choiceRT,2021.1.2,Win32,59.89099838,,,,,,,,,,,,,,,,,,,,,,
,0,f,1,0.752,12,0,48,0,1,f.PNG,f,6165a8ee6dde7ff6f4b22e6f,2021-10-19_15h45.45.530,forced_choiceRT,2021.1.2,Win32,59.89099838,,,,,,,,,,,,,,,,,,,,,,
,0,j,1,0.6764,12,1,49,3,1,j.PNG,j,6165a8ee6dde7ff6f4b22e6f,2021-10-19_15h45.45.530,forced_choiceRT,2021.1.2,Win32,59.89099838,,,,,,,,,,,,,,,,,,,,,,
,0,f,1,0.9793,12,2,50,0,1,f.PNG,f,6165a8ee6dde7ff6f4b22e6f,2021-10-19_15h45.45.530,forced_choiceRT,2021.1.2,Win32,59.89099838,,,,,,,,,,,,,,,,,,,,,,
,0,f,1,0.7264,12,3,51,0,1,f.PNG,f,6165a8ee6dde7ff6f4b22e6f,2021-10-19_15h45.45.530,forced_choiceRT,2021.1.2,Win32,59.89099838,,,,,,,,,,,,,,,,,,,,,,
,0,h,1,1.0143,13,0,52,2,1,h.PNG,h,6165a8ee6dde7ff6f4b22e6f,2021-10-19_15h45.45.530,forced_choiceRT,2021.1.2,Win32,59.89099838,,,,,,,,,,,,,,,,,,,,,,
,0,g,1,0.6914,13,1,53,1,1,g.PNG,g,6165a8ee6dde7ff6f4b22e6f,2021-10-19_15h45.45.530,forced_choiceRT,2021.1.2,Win32,59.89099838,,,,,,,,,,,,,,,,,,,,,,
,0,h,0,0.6356,13,2,54,3,1,j.PNG,j,6165a8ee6dde7ff6f4b22e6f,2021-10-19_15h45.45.530,forced_choiceRT,2021.1.2,Win32,59.89099838,,,,,,,,,,,,,,,,,,,,,,
,0,g,1,1.2594,13,3,55,1,1,g.PNG,g,6165a8ee6dde7ff6f4b22e6f,2021-10-19_15h45.45.530,forced_choiceRT,2021.1.2,Win32,59.89099838,,,,,,,,,,,,,,,,,,,,,,
,0,j,1,0.7173,14,0,56,3,1,j.PNG,j,6165a8ee6dde7ff6f4b22e6f,2021-10-19_15h45.45.530,forced_choiceRT,2021.1.2,Win32,59.89099838,,,,,,,,,,,,,,,,,,,,,,
,0,f,1,0.6266,14,1,57,0,1,f.PNG,f,6165a8ee6dde7ff6f4b22e6f,2021-10-19_15h45.45.530,forced_choiceRT,2021.1.2,Win32,59.89099838,,,,,,,,,,,,,,,,,,,,,,
,0,h,1,0.6909,14,2,58,2,1,h.PNG,h,6165a8ee6dde7ff6f4b22e6f,2021-10-19_15h45.45.530,forced_choiceRT,2021.1.2,Win32,59.89099838,,,,,,,,,,,,,,,,,,,,,,
,0,j,1,0.7284,14,3,59,3,1,j.PNG,j,6165a8ee6dde7ff6f4b22e6f,2021-10-19_15h45.45.530,forced_choiceRT,2021.1.2,Win32,59.89099838,,,,,,,,,,,,,,,,,,,,,,
,,,,,,,,,,,,6165a8ee6dde7ff6f4b22e6f,2021-10-19_15h45.45.530,forced_choiceRT,2021.1.2,Win32,59.89099838,g,2.563,0,0,0,0,1,,,,,,,,,,,,,,,
,,,,,,,,,,,,6165a8ee6dde7ff6f4b22e6f,2021-10-19_15h45.45.530,forced_choiceRT,2021.1.2,Win32,59.89099838,f,2.0153,1,0,1,0,1,,,,,,,,,,,,,,,
,,,,,,,,,,,,6165a8ee6dde7ff6f4b22e6f,2021-10-19_15h45.45.530,forced_choiceRT,2021.1.2,Win32,59.89099838,g,2.1806,2,0,2,0,1,,,,,,,,,,,,,,,
,,,,,,,,,,,,6165a8ee6dde7ff6f4b22e6f,2021-10-19_15h45.45.530,forced_choiceRT,2021.1.2,Win32,59.89099838,f,1.9862,3,0,3,0,1,,,,,,,,,,,,,,,
,,,,,,,,,,,,6165a8ee6dde7ff6f4b22e6f,2021-10-19_15h45.45.530,forced_choiceRT,2021.1.2,Win32,59.89099838,g,2.0213,4,0,4,0,1,,,,,,,,,,,,,,,
,,,,,,,,,,,,6165a8ee6dde7ff6f4b22e6f,2021-10-19_15h45.45.530,forced_choiceRT,2021.1.2,Win32,59.89099838,h,2.038,5,0,5,0,1,,,,,,,,,,,,,,,
,,,,,,,,,,,,6165a8ee6dde7ff6f4b22e6f,2021-10-19_15h45.45.530,forced_choiceRT,2021.1.2,Win32,59.89099838,j,2.05,6,0,6,0,1,,,,,,,,,,,,,,,
,,,,,,,,,,,,6165a8ee6dde7ff6f4b22e6f,2021-10-19_15h45.45.530,forced_choiceRT,2021.1.2,Win32,59.89099838,f,2.0142,7,0,7,0,1,,,,,,,,,,,,,,,
,,,,,,,,,,,,6165a8ee6dde7ff6f4b22e6f,2021-10-19_15h45.45.530,forced_choiceRT,2021.1.2,Win32,59.89099838,g,2.0227,8,0,8,0,1,,,,,,,,,,,,,,,
,,,,,,,,,,,,6165a8ee6dde7ff6f4b22e6f,2021-10-19_15h45.45.530,forced_choiceRT,2021.1.2,Win32,59.89099838,f,2.0113,9,0,9,0,1,,,,,,,,,,,,,,,
,,,,,,,,,,,,6165a8ee6dde7ff6f4b22e6f,2021-10-19_15h45.45.530,forced_choiceRT,2021.1.2,Win32,59.89099838,h,2.0176,10,0,10,0,1,,,,,,,,,,,,,,,
,,,,,,,,,,,,6165a8ee6dde7ff6f4b22e6f,2021-10-19_15h45.45.530,forced_choiceRT,2021.1.2,Win32,59.89099838,j,2.0474,11,0,11,0,1,,,,,,,,,,,,,,,
,,,,,,,,,,,,6165a8ee6dde7ff6f4b22e6f,2021-10-19_15h45.45.530,forced_choiceRT,2021.1.2,Win32,59.89099838,f,2.0018,12,0,12,0,1,,,,,,,,,,,,,,,
,,,,,,,,,,,,6165a8ee6dde7ff6f4b22e6f,2021-10-19_15h45.45.530,forced_choiceRT,2021.1.2,Win32,59.89099838,g,1.9919,13,0,13,0,1,,,,,,,,,,,,,,,
,,,,,,,,,,,,6165a8ee6dde7ff6f4b22e6f,2021-10-19_15h45.45.530,forced_choiceRT,2021.1.2,Win32,59.89099838,f,2.0925,14,0,14,0,1,,,,,,,,,,,,,,,
,,,,,,,,,,,,6165a8ee6dde7ff6f4b22e6f,2021-10-19_15h45.45.530,forced_choiceRT,2021.1.2,Win32,59.89099838,f,2.0416,15,0,15,0,1,,,,,,,,,,,,,,,
,,,,,,,,,,,,6165a8ee6dde7ff6f4b22e6f,2021-10-19_15h45.45.530,forced_choiceRT,2021.1.2,Win32,59.89099838,g,2.0547,16,0,16,0,1,,,,,,,,,,,,,,,
,,,,,,,,,,,,6165a8ee6dde7ff6f4b22e6f,2021-10-19_15h45.45.530,forced_choiceRT,2021.1.2,Win32,59.89099838,h,2.0547,17,0,17,0,1,,,,,,,,,,,,,,,
,,,,,,,,,,,,6165a8ee6dde7ff6f4b22e6f,2021-10-19_15h45.45.530,forced_choiceRT,2021.1.2,Win32,59.89099838,j,2.0182,18,0,18,0,1,,,,,,,,,,,,,,,
,,,,,,,,,,,,6165a8ee6dde7ff6f4b22e6f,2021-10-19_15h45.45.530,forced_choiceRT,2021.1.2,Win32,59.89099838,f,1.9693,19,0,19,0,1,,,,,,,,,,,,,,,
,0.5,,,,,,,,,j.PNG,j,6165a8ee6dde7ff6f4b22e6f,2021-10-19_15h45.45.530,forced_choiceRT,2021.1.2,Win32,59.89099838,,,,,,,,1,Fast,j,1,1.524,0,0,0,3,1,,,,,
,0.39,,,,,,,,,f.PNG,f,6165a8ee6dde7ff6f4b22e6f,2021-10-19_15h45.45.530,forced_choiceRT,2021.1.2,Win32,59.89099838,,,,,,,,1,Ontime,f,1,2.0261,0,1,1,0,1,,,,,
,0.65,,,,,,,,,g.PNG,g,6165a8ee6dde7ff6f4b22e6f,2021-10-19_15h45.45.530,forced_choiceRT,2021.1.2,Win32,59.89099838,,,,,,,,1,Ontime,g,1,2.0421,0,2,2,1,1,,,,,
,0.31,,,,,,,,,f.PNG,f,6165a8ee6dde7ff6f4b22e6f,2021-10-19_15h45.45.530,forced_choiceRT,2021.1.2,Win32,59.89099838,,,,,,,,1,Ontime,f,1,2.0312,0,3,3,0,1,,,,,
,1.21,,,,,,,,,h.PNG,h,6165a8ee6dde7ff6f4b22e6f,2021-10-19_15h45.45.530,forced_choiceRT,2021.1.2,Win32,59.89099838,,,,,,,,1,Slow,h,1,2.1494,1,0,4,2,1,,,,,
,1.32,,,,,,,,,g.PNG,g,6165a8ee6dde7ff6f4b22e6f,2021-10-19_15h45.45.530,forced_choiceRT,2021.1.2,Win32,59.89099838,,,,,,,,1,Ontime,f,0,1.9678,1,1,5,1,1,,,,,
,0.77,,,,,,,,,j.PNG,j,6165a8ee6dde7ff6f4b22e6f,2021-10-19_15h45.45.530,forced_choiceRT,2021.1.2,Win32,59.89099838,,,,,,,,1,Ontime,j,1,1.9512,1,2,6,3,1,,,,,
,1.45,,,,,,,,,h.PNG,h,6165a8ee6dde7ff6f4b22e6f,2021-10-19_15h45.45.530,forced_choiceRT,2021.1.2,Win32,59.89099838,,,,,,,,1,Ontime,h,1,2.0843,1,3,7,2,1,,,,,
,0.57,,,,,,,,,f.PNG,f,6165a8ee6dde7ff6f4b22e6f,2021-10-19_15h45.45.530,forced_choiceRT,2021.1.2,Win32,59.89099838,,,,,,,,1,Ontime,f,1,2.0278,2,0,8,0,1,,,,,
,1.08,,,,,,,,,f.PNG,f,6165a8ee6dde7ff6f4b22e6f,2021-10-19_15h45.45.530,forced_choiceRT,2021.1.2,Win32,59.89099838,,,,,,,,1,Ontime,f,1,2.0449,2,1,9,0,1,,,,,
,1.53,,,,,,,,,f.PNG,f,6165a8ee6dde7ff6f4b22e6f,2021-10-19_15h45.45.530,forced_choiceRT,2021.1.2,Win32,59.89099838,,,,,,,,1,Slow,g,0,2.1869,2,2,10,0,1,,,,,
,0.43,,,,,,,,,j.PNG,j,6165a8ee6dde7ff6f4b22e6f,2021-10-19_15h45.45.530,forced_choiceRT,2021.1.2,Win32,59.89099838,,,,,,,,1,Ontime,j,1,1.9677,2,3,11,3,1,,,,,
,0.03,,,,,,,,,j.PNG,j,6165a8ee6dde7ff6f4b22e6f,2021-10-19_15h45.45.530,forced_choiceRT,2021.1.2,Win32,59.89099838,,,,,,,,1,Ontime,j,1,2.0258,3,0,12,3,1,,,,,
,0.74,,,,,,,,,h.PNG,h,6165a8ee6dde7ff6f4b22e6f,2021-10-19_15h45.45.530,forced_choiceRT,2021.1.2,Win32,59.89099838,,,,,,,,1,Ontime,h,1,1.9511,3,1,13,2,1,,,,,
,0.43,,,,,,,,,j.PNG,j,6165a8ee6dde7ff6f4b22e6f,2021-10-19_15h45.45.530,forced_choiceRT,2021.1.2,Win32,59.89099838,,,,,,,,1,Ontime,j,1,2.001,3,2,14,3,1,,,,,
,0.05,,,,,,,,,g.PNG,g,6165a8ee6dde7ff6f4b22e6f,2021-10-19_15h45.45.530,forced_choiceRT,2021.1.2,Win32,59.89099838,,,,,,,,1,Ontime,g,1,2.0593,3,3,15,1,1,,,,,
,1.17,,,,,,,,,g.PNG,g,6165a8ee6dde7ff6f4b22e6f,2021-10-19_15h45.45.530,forced_choiceRT,2021.1.2,Win32,59.89099838,,,,,,,,1,Ontime,g,1,2.0647,4,0,16,1,1,,,,,
,1.17,,,,,,,,,h.PNG,h,6165a8ee6dde7ff6f4b22e6f,2021-10-19_15h45.45.530,forced_choiceRT,2021.1.2,Win32,59.89099838,,,,,,,,1,Slow,h,1,2.1094,4,1,17,2,1,,,,,
,0.3,,,,,,,,,g.PNG,g,6165a8ee6dde7ff6f4b22e6f,2021-10-19_15h45.45.530,forced_choiceRT,2021.1.2,Win32,59.89099838,,,,,,,,1,Ontime,g,1,1.9434,4,2,18,1,1,,,,,
,1.08,,,,,,,,,g.PNG,g,6165a8ee6dde7ff6f4b22e6f,2021-10-19_15h45.45.530,forced_choiceRT,2021.1.2,Win32,59.89099838,,,,,,,,1,Slow,g,1,2.1376,4,3,19,1,1,,,,,
,0,,,,,,,,,h.PNG,h,6165a8ee6dde7ff6f4b22e6f,2021-10-19_15h45.45.530,forced_choiceRT,2021.1.2,Win32,59.89099838,,,,,,,,1,Ontime,h,1,1.9687,5,0,20,2,1,,,,,
,1.09,,,,,,,,,g.PNG,g,6165a8ee6dde7ff6f4b22e6f,2021-10-19_15h45.45.530,forced_choiceRT,2021.1.2,Win32,59.89099838,,,,,,,,1,Ontime,g,1,1.9692,5,1,21,1,1,,,,,
,1.33,,,,,,,,,g.PNG,g,6165a8ee6dde7ff6f4b22e6f,2021-10-19_15h45.45.530,forced_choiceRT,2021.1.2,Win32,59.89099838,,,,,,,,1,Ontime,g,1,2.0562,5,2,22,1,1,,,,,
,1.39,,,,,,,,,g.PNG,g,6165a8ee6dde7ff6f4b22e6f,2021-10-19_15h45.45.530,forced_choiceRT,2021.1.2,Win32,59.89099838,,,,,,,,1,Ontime,g,1,1.9148,5,3,23,1,1,,,,,
,0.65,,,,,,,,,h.PNG,h,6165a8ee6dde7ff6f4b22e6f,2021-10-19_15h45.45.530,forced_choiceRT,2021.1.2,Win32,59.89099838,,,,,,,,1,Ontime,h,1,2.0009,6,0,24,2,1,,,,,
,0.66,,,,,,,,,h.PNG,h,6165a8ee6dde7ff6f4b22e6f,2021-10-19_15h45.45.530,forced_choiceRT,2021.1.2,Win32,59.89099838,,,,,,,,1,Ontime,h,1,2.0141,6,1,25,2,1,,,,,
,0.33,,,,,,,,,j.PNG,j,6165a8ee6dde7ff6f4b22e6f,2021-10-19_15h45.45.530,forced_choiceRT,2021.1.2,Win32,59.89099838,,,,,,,,1,Ontime,j,1,1.9458,6,2,26,3,1,,,,,
,0.34,,,,,,,,,g.PNG,g,6165a8ee6dde7ff6f4b22e6f,2021-10-19_15h45.45.530,forced_choiceRT,2021.1.2,Win32,59.89099838,,,,,,,,1,Fast,g,1,1.2515,6,3,27,1,1,,,,,
,0.32,,,,,,,,,j.PNG,j,6165a8ee6dde7ff6f4b22e6f,2021-10-19_15h45.45.530,forced_choiceRT,2021.1.2,Win32,59.89099838,,,,,,,,1,Ontime,j,1,1.9186,7,0,28,3,1,,,,,
,0.62,,,,,,,,,h.PNG,h,6165a8ee6dde7ff6f4b22e6f,2021-10-19_15h45.45.530,forced_choiceRT,2021.1.2,Win32,59.89099838,,,,,,,,1,Ontime,h,1,1.9869,7,1,29,2,1,,,,,
,1.6,,,,,,,,,f.PNG,f,6165a8ee6dde7ff6f4b22e6f,2021-10-19_15h45.45.530,forced_choiceRT,2021.1.2,Win32,59.89099838,,,,,,,,1,Slow,f,1,2.274,7,2,30,0,1,,,,,
,1.9,,,,,,,,,f.PNG,f,6165a8ee6dde7ff6f4b22e6f,2021-10-19_15h45.45.530,forced_choiceRT,2021.1.2,Win32,59.89099838,,,,,,,,1,Slow,g,0,2.4047,7,3,31,0,1,,,,,
,0.68,,,,,,,,,j.PNG,j,6165a8ee6dde7ff6f4b22e6f,2021-10-19_15h45.45.530,forced_choiceRT,2021.1.2,Win32,59.89099838,,,,,,,,1,Fast,j,1,1.8988,8,0,32,3,1,,,,,
,0.31,,,,,,,,,h.PNG,h,6165a8ee6dde7ff6f4b22e6f,2021-10-19_15h45.45.530,forced_choiceRT,2021.1.2,Win32,59.89099838,,,,,,,,1,Ontime,h,1,1.9349,8,1,33,2,1,,,,,
,1.81,,,,,,,,,f.PNG,f,6165a8ee6dde7ff6f4b22e6f,2021-10-19_15h45.45.530,forced_choiceRT,2021.1.2,Win32,59.89099838,,,,,,,,1,Slow,f,1,2.1982,8,2,34,0,1,,,,,
,1.48,,,,,,,,,f.PNG,f,6165a8ee6dde7ff6f4b22e6f,2021-10-19_15h45.45.530,forced_choiceRT,2021.1.2,Win32,59.89099838,,,,,,,,1,Ontime,f,1,1.9099,8,3,35,0,1,,,,,
,1.13,,,,,,,,,f.PNG,f,6165a8ee6dde7ff6f4b22e6f,2021-10-19_15h45.45.530,forced_choiceRT,2021.1.2,Win32,59.89099838,,,,,,,,1,Fast,f,1,1.6728,9,0,36,0,1,,,,,
,0.5,,,,,,,,,j.PNG,j,6165a8ee6dde7ff6f4b22e6f,2021-10-19_15h45.45.530,forced_choiceRT,2021.1.2,Win32,59.89099838,,,,,,,,1,Ontime,j,1,1.95,9,1,37,3,1,,,,,
,1.93,,,,,,,,,h.PNG,h,6165a8ee6dde7ff6f4b22e6f,2021-10-19_15h45.45.530,forced_choiceRT,2021.1.2,Win32,59.89099838,,,,,,,,1,Slow,f,0,2.2487,9,2,38,2,1,,,,,
,0.53,,,,,,,,,j.PNG,j,6165a8ee6dde7ff6f4b22e6f,2021-10-19_15h45.45.530,forced_choiceRT,2021.1.2,Win32,59.89099838,,,,,,,,1,Ontime,j,1,1.9268,9,3,39,3,1,,,,,
,,,,,,,,,,,,6165a8ee6dde7ff6f4b22e6f,2021-10-19_15h45.45.530,forced_choiceRT,2021.1.2,Win32,59.89099838,,,,,,,,,,,,,,,,,,0,0,0,0,1
,0.19,,,,,,,,,h.PNG,h,6165a8ee6dde7ff6f4b22e6f,2021-10-19_15h45.45.530,forced_choiceRT,2021.1.2,Win32,59.89099838,,,,,,,,2,Ontime,h,1,1.9502,0,0,0,2,1,,,,,
,0.26,,,,,,,,,j.PNG,j,6165a8ee6dde7ff6f4b22e6f,2021-10-19_15h45.45.530,forced_choiceRT,2021.1.2,Win32,59.89099838,,,,,,,,2,Fast,j,1,1.8968,0,1,1,3,1,,,,,
,1.37,,,,,,,,,j.PNG,j,6165a8ee6dde7ff6f4b22e6f,2021-10-19_15h45.45.530,forced_choiceRT,2021.1.2,Win32,59.89099838,,,,,,,,2,Ontime,j,1,2.0356,0,2,2,3,1,,,,,
,0.92,,,,,,,,,j.PNG,j,6165a8ee6dde7ff6f4b22e6f,2021-10-19_15h45.45.530,forced_choiceRT,2021.1.2,Win32,59.89099838,,,,,,,,2,Ontime,j,1,2.0348,0,3,3,3,1,,,,,
,0.91,,,,,,,,,g.PNG,g,6165a8ee6dde7ff6f4b22e6f,2021-10-19_15h45.45.530,forced_choiceRT,2021.1.2,Win32,59.89099838,,,,,,,,2,Ontime,f,0,2.015,1,0,4,1,1,,,,,
,0.45,,,,,,,,,g.PNG,g,6165a8ee6dde7ff6f4b22e6f,2021-10-19_15h45.45.530,forced_choiceRT,2021.1.2,Win32,59.89099838,,,,,,,,2,Ontime,g,1,1.9558,1,1,5,1,1,,,,,
,1.23,,,,,,,,,f.PNG,f,6165a8ee6dde7ff6f4b22e6f,2021-10-19_15h45.45.530,forced_choiceRT,2021.1.2,Win32,59.89099838,,,,,,,,2,Ontime,f,1,2.0789,1,2,6,0,1,,,,,
,1.84,,,,,,,,,f.PNG,f,6165a8ee6dde7ff6f4b22e6f,2021-10-19_15h45.45.530,forced_choiceRT,2021.1.2,Win32,59.89099838,,,,,,,,2,Slow,f,1,2.259,1,3,7,0,1,,,,,
,0.7,,,,,,,,,h.PNG,h,6165a8ee6dde7ff6f4b22e6f,2021-10-19_15h45.45.530,forced_choiceRT,2021.1.2,Win32,59.89099838,,,,,,,,2,Ontime,h,1,1.9711,2,0,8,2,1,,,,,
,1,,,,,,,,,g.PNG,g,6165a8ee6dde7ff6f4b22e6f,2021-10-19_15h45.45.530,forced_choiceRT,2021.1.2,Win32,59.89099838,,,,,,,,2,Ontime,g,1,2.0434,2,1,9,1,1,,,,,
,0.01,,,,,,,,,j.PNG,j,6165a8ee6dde7ff6f4b22e6f,2021-10-19_15h45.45.530,forced_choiceRT,2021.1.2,Win32,59.89099838,,,,,,,,2,Ontime,j,1,1.9212,2,2,10,3,1,,,,,
,0.91,,,,,,,,,h.PNG,h,6165a8ee6dde7ff6f4b22e6f,2021-10-19_15h45.45.530,forced_choiceRT,2021.1.2,Win32,59.89099838,,,,,,,,2,Ontime,h,1,2.0156,2,3,11,2,1,,,,,
,0.75,,,,,,,,,h.PNG,h,6165a8ee6dde7ff6f4b22e6f,2021-10-19_15h45.45.530,forced_choiceRT,2021.1.2,Win32,59.89099838,,,,,,,,2,Ontime,h,1,1.9895,3,0,12,2,1,,,,,
,0.04,,,,,,,,,j.PNG,j,6165a8ee6dde7ff6f4b22e6f,2021-10-19_15h45.45.530,forced_choiceRT,2021.1.2,Win32,59.89099838,,,,,,,,2,Ontime,j,1,1.9194,3,1,13,3,1,,,,,
,1.32,,,,,,,,,j.PNG,j,6165a8ee6dde7ff6f4b22e6f,2021-10-19_15h45.45.530,forced_choiceRT,2021.1.2,Win32,59.89099838,,,,,,,,2,Ontime,j,1,1.9776,3,2,14,3,1,,,,,
,0.51,,,,,,,,,j.PNG,j,6165a8ee6dde7ff6f4b22e6f,2021-10-19_15h45.45.530,forced_choiceRT,2021.1.2,Win32,59.89099838,,,,,,,,2,Ontime,j,1,1.9398,3,3,15,3,1,,,,,
,0.19,,,,,,,,,h.PNG,h,6165a8ee6dde7ff6f4b22e6f,2021-10-19_15h45.45.530,forced_choiceRT,2021.1.2,Win32,59.89099838,,,,,,,,2,Ontime,h,1,2.0574,4,0,16,2,1,,,,,
,1.29,,,,,,,,,g.PNG,g,6165a8ee6dde7ff6f4b22e6f,2021-10-19_15h45.45.530,forced_choiceRT,2021.1.2,Win32,59.89099838,,,,,,,,2,Ontime,g,1,2.088,4,1,17,1,1,,,,,
,1.34,,,,,,,,,j.PNG,j,6165a8ee6dde7ff6f4b22e6f,2021-10-19_15h45.45.530,forced_choiceRT,2021.1.2,Win32,59.89099838,,,,,,,,2,Ontime,j,1,1.9444,4,2,18,3,1,,,,,
,0.5,,,,,,,,,g.PNG,g,6165a8ee6dde7ff6f4b22e6f,2021-10-19_15h45.45.530,forced_choiceRT,2021.1.2,Win32,59.89099838,,,,,,,,2,Ontime,g,1,1.9471,4,3,19,1,1,,,,,
,1.07,,,,,,,,,j.PNG,j,6165a8ee6dde7ff6f4b22e6f,2021-10-19_15h45.45.530,forced_choiceRT,2021.1.2,Win32,59.89099838,,,,,,,,2,Ontime,j,1,1.9784,5,0,20,3,1,,,,,
,0.4,,,,,,,,,g.PNG,g,6165a8ee6dde7ff6f4b22e6f,2021-10-19_15h45.45.530,forced_choiceRT,2021.1.2,Win32,59.89099838,,,,,,,,2,Ontime,g,1,1.9795,5,1,21,1,1,,,,,
,1.44,,,,,,,,,f.PNG,f,6165a8ee6dde7ff6f4b22e6f,2021-10-19_15h45.45.530,forced_choiceRT,2021.1.2,Win32,59.89099838,,,,,,,,2,Ontime,f,1,2.0539,5,2,22,0,1,,,,,
,0.18,,,,,,,,,f.PNG,f,6165a8ee6dde7ff6f4b22e6f,2021-10-19_15h45.45.530,forced_choiceRT,2021.1.2,Win32,59.89099838,,,,,,,,2,Fast,f,1,1.8907,5,3,23,0,1,,,,,
,0.36,,,,,,,,,f.PNG,f,6165a8ee6dde7ff6f4b22e6f,2021-10-19_15h45.45.530,forced_choiceRT,2021.1.2,Win32,59.89099838,,,,,,,,2,Ontime,f,1,2.0176,6,0,24,0,1,,,,,
,0.27,,,,,,,,,f.PNG,f,6165a8ee6dde7ff6f4b22e6f,2021-10-19_15h45.45.530,forced_choiceRT,2021.1.2,Win32,59.89099838,,,,,,,,2,Ontime,f,1,2.0058,6,1,25,0,1,,,,,
,1.9,,,,,,,,,h.PNG,h,6165a8ee6dde7ff6f4b22e6f,2021-10-19_15h45.45.530,forced_choiceRT,2021.1.2,Win32,59.89099838,,,,,,,,2,Slow,f,0,2.3491,6,2,26,2,1,,,,,
,0.97,,,,,,,,,h.PNG,h,6165a8ee6dde7ff6f4b22e6f,2021-10-19_15h45.45.530,forced_choiceRT,2021.1.2,Win32,59.89099838,,,,,,,,2,Ontime,h,1,1.9516,6,3,27,2,1,,,,,
,1.91,,,,,,,,,f.PNG,f,6165a8ee6dde7ff6f4b22e6f,2021-10-19_15h45.45.530,forced_choiceRT,2021.1.2,Win32,59.89099838,,,,,,,,2,Slow,f,1,2.2651,7,0,28,0,1,,,,,
,1.13,,,,,,,,,g.PNG,g,6165a8ee6dde7ff6f4b22e6f,2021-10-19_15h45.45.530,forced_choiceRT,2021.1.2,Win32,59.89099838,,,,,,,,2,Ontime,g,1,1.9677,7,1,29,1,1,,,,,
,0.33,,,,,,,,,f.PNG,f,6165a8ee6dde7ff6f4b22e6f,2021-10-19_15h45.45.530,forced_choiceRT,2021.1.2,Win32,59.89099838,,,,,,,,2,Ontime,f,1,1.9851,7,2,30,0,1,,,,,
,1.75,,,,,,,,,g.PNG,g,6165a8ee6dde7ff6f4b22e6f,2021-10-19_15h45.45.530,forced_choiceRT,2021.1.2,Win32,59.89099838,,,,,,,,2,Slow,f,0,2.2287,7,3,31,1,1,,,,,
,1.64,,,,,,,,,h.PNG,h,6165a8ee6dde7ff6f4b22e6f,2021-10-19_15h45.45.530,forced_choiceRT,2021.1.2,Win32,59.89099838,,,,,,,,2,Slow,j,0,2.2522,8,0,32,2,1,,,,,
,0.16,,,,,,,,,j.PNG,j,6165a8ee6dde7ff6f4b22e6f,2021-10-19_15h45.45.530,forced_choiceRT,2021.1.2,Win32,59.89099838,,,,,,,,2,Ontime,j,1,1.9734,8,1,33,3,1,,,,,
,1.01,,,,,,,,,f.PNG,f,6165a8ee6dde7ff6f4b22e6f,2021-10-19_15h45.45.530,forced_choiceRT,2021.1.2,Win32,59.89099838,,,,,,,,2,Ontime,f,1,2.0555,8,2,34,0,1,,,,,
,0.85,,,,,,,,,g.PNG,g,6165a8ee6dde7ff6f4b22e6f,2021-10-19_15h45.45.530,forced_choiceRT,2021.1.2,Win32,59.89099838,,,,,,,,2,Ontime,g,1,2.0101,8,3,35,1,1,,,,,
,1.29,,,,,,,,,h.PNG,h,6165a8ee6dde7ff6f4b22e6f,2021-10-19_15h45.45.530,forced_choiceRT,2021.1.2,Win32,59.89099838,,,,,,,,2,Ontime,h,1,2.0453,9,0,36,2,1,,,,,
,1.75,,,,,,,,,f.PNG,f,6165a8ee6dde7ff6f4b22e6f,2021-10-19_15h45.45.530,forced_choiceRT,2021.1.2,Win32,59.89099838,,,,,,,,2,Slow,f,1,2.2142,9,1,37,0,1,,,,,
,1.12,,,,,,,,,h.PNG,h,6165a8ee6dde7ff6f4b22e6f,2021-10-19_15h45.45.530,forced_choiceRT,2021.1.2,Win32,59.89099838,,,,,,,,2,Ontime,h,1,2.0105,9,2,38,2,1,,,,,
,0.92,,,,,,,,,g.PNG,g,6165a8ee6dde7ff6f4b22e6f,2021-10-19_15h45.45.530,forced_choiceRT,2021.1.2,Win32,59.89099838,,,,,,,,2,Ontime,g,1,2.0148,9,3,39,1,1,,,,,
,,,,,,,,,,,,6165a8ee6dde7ff6f4b22e6f,2021-10-19_15h45.45.530,forced_choiceRT,2021.1.2,Win32,59.89099838,,,,,,,,,,,,,,,,,,1,0,1,0,1
,1.27,,,,,,,,,f.PNG,f,6165a8ee6dde7ff6f4b22e6f,2021-10-19_15h45.45.530,forced_choiceRT,2021.1.2,Win32,59.89099838,,,,,,,,3,Ontime,f,1,1.9496,0,0,0,0,1,,,,,
,1.83,,,,,,,,,g.PNG,g,6165a8ee6dde7ff6f4b22e6f,2021-10-19_15h45.45.530,forced_choiceRT,2021.1.2,Win32,59.89099838,,,,,,,,3,Slow,g,1,2.382,0,1,1,1,1,,,,,
,0.69,,,,,,,,,f.PNG,f,6165a8ee6dde7ff6f4b22e6f,2021-10-19_15h45.45.530,forced_choiceRT,2021.1.2,Win32,59.89099838,,,,,,,,3,Ontime,f,1,1.9356,0,2,2,0,1,,,,,
,0.1,,,,,,,,,h.PNG,h,6165a8ee6dde7ff6f4b22e6f,2021-10-19_15h45.45.530,forced_choiceRT,2021.1.2,Win32,59.89099838,,,,,,,,3,Ontime,h,1,1.9937,0,3,3,2,1,,,,,
,0.19,,,,,,,,,f.PNG,f,6165a8ee6dde7ff6f4b22e6f,2021-10-19_15h45.45.530,forced_choiceRT,2021.1.2,Win32,59.89099838,,,,,,,,3,Ontime,f,1,2.0335,1,0,4,0,1,,,,,
,1.86,,,,,,,,,h.PNG,h,6165a8ee6dde7ff6f4b22e6f,2021-10-19_15h45.45.530,forced_choiceRT,2021.1.2,Win32,59.89099838,,,,,,,,3,Slow,f,0,2.1522,1,1,5,2,1,,,,,
,0.3,,,,,,,,,j.PNG,j,6165a8ee6dde7ff6f4b22e6f,2021-10-19_15h45.45.530,forced_choiceRT,2021.1.2,Win32,59.89099838,,,,,,,,3,Ontime,j,1,1.9503,1,2,6,3,1,,,,,
,0.31,,,,,,,,,g.PNG,g,6165a8ee6dde7ff6f4b22e6f,2021-10-19_15h45.45.530,forced_choiceRT,2021.1.2,Win32,59.89099838,,,,,,,,3,Ontime,g,1,2.0195,1,3,7,1,1,,,,,
,0.85,,,,,,,,,h.PNG,h,6165a8ee6dde7ff6f4b22e6f,2021-10-19_15h45.45.530,forced_choiceRT,2021.1.2,Win32,59.89099838,,,,,,,,3,Ontime,h,1,1.9994,2,0,8,2,1,,,,,
,1.82,,,,,,,,,h.PNG,h,6165a8ee6dde7ff6f4b22e6f,2021-10-19_15h45.45.530,forced_choiceRT,2021.1.2,Win32,59.89099838,,,,,,,,3,Slow,f,0,2.1107,2,1,9,2,1,,,,,
,1.29,,,,,,,,,h.PNG,h,6165a8ee6dde7ff6f4b22e6f,2021-10-19_15h45.45.530,forced_choiceRT,2021.1.2,Win32,59.89099838,,,,,,,,3,Fast,h,1,1.8121,2,2,10,2,1,,,,,
,0.62,,,,,,,,,j.PNG,j,6165a8ee6dde7ff6f4b22e6f,2021-10-19_15h45.45.530,forced_choiceRT,2021.1.2,Win32,59.89099838,,,,,,,,3,Ontime,j,1,1.9899,2,3,11,3,1,,,,,
,1.6,,,,,,,,,j.PNG,j,6165a8ee6dde7ff6f4b22e6f,2021-10-19_15h45.45.530,forced_choiceRT,2021.1.2,Win32,59.89099838,,,,,,,,3,Slow,j,1,2.1167,3,0,12,3,1,,,,,
,0.16,,,,,,,,,j.PNG,j,6165a8ee6dde7ff6f4b22e6f,2021-10-19_15h45.45.530,forced_choiceRT,2021.1.2,Win32,59.89099838,,,,,,,,3,Fast,j,1,1.8533,3,1,13,3,1,,,,,
,0.19,,,,,,,,,f.PNG,f,6165a8ee6dde7ff6f4b22e6f,2021-10-19_15h45.45.530,forced_choiceRT,2021.1.2,Win32,59.89099838,,,,,,,,3,Ontime,f,1,2.0723,3,2,14,0,1,,,,,
,1.86,,,,,,,,,f.PNG,f,6165a8ee6dde7ff6f4b22e6f,2021-10-19_15h45.45.530,forced_choiceRT,2021.1.2,Win32,59.89099838,,,,,,,,3,Slow,h,0,2.1773,3,3,15,0,1,,,,,
,0.09,,,,,,,,,h.PNG,h,6165a8ee6dde7ff6f4b22e6f,2021-10-19_15h45.45.530,forced_choiceRT,2021.1.2,Win32,59.89099838,,,,,,,,3,Ontime,h,1,2.006,4,0,16,2,1,,,,,
,0.15,,,,,,,,,g.PNG,g,6165a8ee6dde7ff6f4b22e6f,2021-10-19_15h45.45.530,forced_choiceRT,2021.1.2,Win32,59.89099838,,,,,,,,3,Ontime,g,1,1.9645,4,1,17,1,1,,,,,
,1.13,,,,,,,,,j.PNG,j,6165a8ee6dde7ff6f4b22e6f,2021-10-19_15h45.45.530,forced_choiceRT,2021.1.2,Win32,59.89099838,,,,,,,,3,Ontime,j,1,2.0329,4,2,18,3,1,,,,,
,0.49,,,,,,,,,f.PNG,f,6165a8ee6dde7ff6f4b22e6f,2021-10-19_15h45.45.530,forced_choiceRT,2021.1.2,Win32,59.89099838,,,,,,,,3,Ontime,f,1,1.9663,4,3,19,0,1,,,,,
,1.32,,,,,,,,,j.PNG,j,6165a8ee6dde7ff6f4b22e6f,2021-10-19_15h45.45.530,forced_choiceRT,2021.1.2,Win32,59.89099838,,,,,,,,3,Ontime,j,1,2.0555,5,0,20,3,1,,,,,
,1.1,,,,,,,,,j.PNG,j,6165a8ee6dde7ff6f4b22e6f,2021-10-19_15h45.45.530,forced_choiceRT,2021.1.2,Win32,59.89099838,,,,,,,,3,Ontime,j,1,2.0342,5,1,21,3,1,,,,,
,0.69,,,,,,,,,g.PNG,g,6165a8ee6dde7ff6f4b22e6f,2021-10-19_15h45.45.530,forced_choiceRT,2021.1.2,Win32,59.89099838,,,,,,,,3,Ontime,g,1,2.0343,5,2,22,1,1,,,,,
,1.4,,,,,,,,,f.PNG,f,6165a8ee6dde7ff6f4b22e6f,2021-10-19_15h45.45.530,forced_choiceRT,2021.1.2,Win32,59.89099838,,,,,,,,3,Ontime,f,1,2.069,5,3,23,0,1,,,,,
,0.85,,,,,,,,,g.PNG,g,6165a8ee6dde7ff6f4b22e6f,2021-10-19_15h45.45.530,forced_choiceRT,2021.1.2,Win32,59.89099838,,,,,,,,3,Ontime,g,1,1.9424,6,0,24,1,1,,,,,
,0.5,,,,,,,,,j.PNG,j,6165a8ee6dde7ff6f4b22e6f,2021-10-19_15h45.45.530,forced_choiceRT,2021.1.2,Win32,59.89099838,,,,,,,,3,Ontime,j,1,1.982,6,1,25,3,1,,,,,
,0.62,,,,,,,,,g.PNG,g,6165a8ee6dde7ff6f4b22e6f,2021-10-19_15h45.45.530,forced_choiceRT,2021.1.2,Win32,59.89099838,,,,,,,,3,Ontime,g,1,1.9889,6,2,26,1,1,,,,,
,0.75,,,,,,,,,f.PNG,f,6165a8ee6dde7ff6f4b22e6f,2021-10-19_15h45.45.530,forced_choiceRT,2021.1.2,Win32,59.89099838,,,,,,,,3,Ontime,f,1,1.9437,6,3,27,0,1,,,,,
,1.85,,,,,,,,,g.PNG,g,6165a8ee6dde7ff6f4b22e6f,2021-10-19_15h45.45.530,forced_choiceRT,2021.1.2,Win32,59.89099838,,,,,,,,3,Slow,f,0,2.2452,7,0,28,1,1,,,,,
,1.87,,,,,,,,,h.PNG,h,6165a8ee6dde7ff6f4b22e6f,2021-10-19_15h45.45.530,forced_choiceRT,2021.1.2,Win32,59.89099838,,,,,,,,3,Slow,g,0,2.2425,7,1,29,2,1,,,,,
,1.74,,,,,,,,,h.PNG,h,6165a8ee6dde7ff6f4b22e6f,2021-10-19_15h45.45.530,forced_choiceRT,2021.1.2,Win32,59.89099838,,,,,,,,3,Ontime,j,0,2.0097,7,2,30,2,1,,,,,
,1.93,,,,,,,,,f.PNG,f,6165a8ee6dde7ff6f4b22e6f,2021-10-19_15h45.45.530,forced_choiceRT,2021.1.2,Win32,59.89099838,,,,,,,,3,Ontime,g,0,2.0369,7,3,31,0,1,,,,,
,0.69,,,,,,,,,g.PNG,g,6165a8ee6dde7ff6f4b22e6f,2021-10-19_15h45.45.530,forced_choiceRT,2021.1.2,Win32,59.89099838,,,,,,,,3,Ontime,g,1,1.9052,8,0,32,1,1,,,,,
,0.47,,,,,,,,,f.PNG,f,6165a8ee6dde7ff6f4b22e6f,2021-10-19_15h45.45.530,forced_choiceRT,2021.1.2,Win32,59.89099838,,,,,,,,3,Ontime,f,1,1.9767,8,1,33,0,1,,,,,
,1.16,,,,,,,,,h.PNG,h,6165a8ee6dde7ff6f4b22e6f,2021-10-19_15h45.45.530,forced_choiceRT,2021.1.2,Win32,59.89099838,,,,,,,,3,Slow,g,0,2.1346,8,2,34,2,1,,,,,
,1.42,,,,,,,,,j.PNG,j,6165a8ee6dde7ff6f4b22e6f,2021-10-19_15h45.45.530,forced_choiceRT,2021.1.2,Win32,59.89099838,,,,,,,,3,Slow,j,1,2.1141,8,3,35,3,1,,,,,
,0.44,,,,,,,,,g.PNG,g,6165a8ee6dde7ff6f4b22e6f,2021-10-19_15h45.45.530,forced_choiceRT,2021.1.2,Win32,59.89099838,,,,,,,,3,Ontime,g,1,1.9343,9,0,36,1,1,,,,,
,0.17,,,,,,,,,g.PNG,g,6165a8ee6dde7ff6f4b22e6f,2021-10-19_15h45.45.530,forced_choiceRT,2021.1.2,Win32,59.89099838,,,,,,,,3,Ontime,g,1,2.0612,9,1,37,1,1,,,,,
,1.13,,,,,,,,,h.PNG,h,6165a8ee6dde7ff6f4b22e6f,2021-10-19_15h45.45.530,forced_choiceRT,2021.1.2,Win32,59.89099838,,,,,,,,3,Ontime,h,1,2.0207,9,2,38,2,1,,,,,
,1.3,,,,,,,,,j.PNG,j,6165a8ee6dde7ff6f4b22e6f,2021-10-19_15h45.45.530,forced_choiceRT,2021.1.2,Win32,59.89099838,,,,,,,,3,Ontime,j,1,2.0145,9,3,39,3,1,,,,,
,,,,,,,,,,,,6165a8ee6dde7ff6f4b22e6f,2021-10-19_15h45.45.530,forced_choiceRT,2021.1.2,Win32,59.89099838,,,,,,,,,,,,,,,,,,2,0,2,0,1
,1.06,,,,,,,,,f.PNG,f,6165a8ee6dde7ff6f4b22e6f,2021-10-19_15h45.45.530,forced_choiceRT,2021.1.2,Win32,59.89099838,,,,,,,,4,Ontime,f,1,1.9395,0,0,0,0,1,,,,,
,1.83,,,,,,,,,f.PNG,f,6165a8ee6dde7ff6f4b22e6f,2021-10-19_15h45.45.530,forced_choiceRT,2021.1.2,Win32,59.89099838,,,,,,,,4,Slow,f,1,2.1278,0,1,1,0,1,,,,,
,0.8,,,,,,,,,f.PNG,f,6165a8ee6dde7ff6f4b22e6f,2021-10-19_15h45.45.530,forced_choiceRT,2021.1.2,Win32,59.89099838,,,,,,,,4,Ontime,f,1,1.9687,0,2,2,0,1,,,,,
,1.74,,,,,,,,,j.PNG,j,6165a8ee6dde7ff6f4b22e6f,2021-10-19_15h45.45.530,forced_choiceRT,2021.1.2,Win32,59.89099838,,,,,,,,4,Slow,f,0,2.1878,0,3,3,3,1,,,,,
,1.31,,,,,,,,,j.PNG,j,6165a8ee6dde7ff6f4b22e6f,2021-10-19_15h45.45.530,forced_choiceRT,2021.1.2,Win32,59.89099838,,,,,,,,4,Ontime,j,1,1.9925,1,0,4,3,1,,,,,
,0.72,,,,,,,,,g.PNG,g,6165a8ee6dde7ff6f4b22e6f,2021-10-19_15h45.45.530,forced_choiceRT,2021.1.2,Win32,59.89099838,,,,,,,,4,Ontime,g,1,2.0146,1,1,5,1,1,,,,,
,1.42,,,,,,,,,g.PNG,g,6165a8ee6dde7ff6f4b22e6f,2021-10-19_15h45.45.530,forced_choiceRT,2021.1.2,Win32,59.89099838,,,,,,,,4,Slow,g,1,2.101,1,2,6,1,1,,,,,
,0.87,,,,,,,,,j.PNG,j,6165a8ee6dde7ff6f4b22e6f,2021-10-19_15h45.45.530,forced_choiceRT,2021.1.2,Win32,59.89099838,,,,,,,,4,Ontime,j,1,2.0015,1,3,7,3,1,,,,,
,1.02,,,,,,,,,h.PNG,h,6165a8ee6dde7ff6f4b22e6f,2021-10-19_15h45.45.530,forced_choiceRT,2021.1.2,Win32,59.89099838,,,,,,,,4,Ontime,h,1,1.925,2,0,8,2,1,,,,,
,1.08,,,,,,,,,h.PNG,h,6165a8ee6dde7ff6f4b22e6f,2021-10-19_15h45.45.530,forced_choiceRT,2021.1.2,Win32,59.89099838,,,,,,,,4,Ontime,h,1,1.9896,2,1,9,2,1,,,,,
,1.43,,,,,,,,,g.PNG,g,6165a8ee6dde7ff6f4b22e6f,2021-10-19_15h45.45.530,forced_choiceRT,2021.1.2,Win32,59.89099838,,,,,,,,4,Ontime,g,1,2.0812,2,2,10,1,1,,,,,
,0.21,,,,,,,,,h.PNG,h,6165a8ee6dde7ff6f4b22e6f,2021-10-19_15h45.45.530,forced_choiceRT,2021.1.2,Win32,59.89099838,,,,,,,,4,Ontime,h,1,1.9593,2,3,11,2,1,,,,,
,1.17,,,,,,,,,h.PNG,h,6165a8ee6dde7ff6f4b22e6f,2021-10-19_15h45.45.530,forced_choiceRT,2021.1.2,Win32,59.89099838,,,,,,,,4,Ontime,h,1,2.0196,3,0,12,2,1,,,,,
,1.5,,,,,,,,,j.PNG,j,6165a8ee6dde7ff6f4b22e6f,2021-10-19_15h45.45.530,forced_choiceRT,2021.1.2,Win32,59.89099838,,,,,,,,4,Slow,h,0,2.2196,3,1,13,3,1,,,,,
,1.61,,,,,,,,,f.PNG,f,6165a8ee6dde7ff6f4b22e6f,2021-10-19_15h45.45.530,forced_choiceRT,2021.1.2,Win32,59.89099838,,,,,,,,4,Slow,g,0,2.216,3,2,14,0,1,,,,,
,1.38,,,,,,,,,h.PNG,h,6165a8ee6dde7ff6f4b22e6f,2021-10-19_15h45.45.530,forced_choiceRT,2021.1.2,Win32,59.89099838,,,,,,,,4,Ontime,h,1,2.0156,3,3,15,2,1,,,,,
,0.3,,,,,,,,,f.PNG,f,6165a8ee6dde7ff6f4b22e6f,2021-10-19_15h45.45.530,forced_choiceRT,2021.1.2,Win32,59.89099838,,,,,,,,4,Ontime,f,1,1.9631,4,0,16,0,1,,,,,
,0.24,,,,,,,,,g.PNG,g,6165a8ee6dde7ff6f4b22e6f,2021-10-19_15h45.45.530,forced_choiceRT,2021.1.2,Win32,59.89099838,,,,,,,,4,Ontime,g,1,1.9803,4,1,17,1,1,,,,,
,1.38,,,,,,,,,g.PNG,g,6165a8ee6dde7ff6f4b22e6f,2021-10-19_15h45.45.530,forced_choiceRT,2021.1.2,Win32,59.89099838,,,,,,,,4,Ontime,g,1,2.0137,4,2,18,1,1,,,,,
,0.06,,,,,,,,,h.PNG,h,6165a8ee6dde7ff6f4b22e6f,2021-10-19_15h45.45.530,forced_choiceRT,2021.1.2,Win32,59.89099838,,,,,,,,4,Ontime,h,1,2.0702,4,3,19,2,1,,,,,
,1.12,,,,,,,,,g.PNG,g,6165a8ee6dde7ff6f4b22e6f,2021-10-19_15h45.45.530,forced_choiceRT,2021.1.2,Win32,59.89099838,,,,,,,,4,Ontime,g,1,2.0355,5,0,20,1,1,,,,,
,1.27,,,,,,,,,f.PNG,f,6165a8ee6dde7ff6f4b22e6f,2021-10-19_15h45.45.530,forced_choiceRT,2021.1.2,Win32,59.89099838,,,,,,,,4,Ontime,f,1,1.9926,5,1,21,0,1,,,,,
,1.15,,,,,,,,,f.PNG,f,6165a8ee6dde7ff6f4b22e6f,2021-10-19_15h45.45.530,forced_choiceRT,2021.1.2,Win32,59.89099838,,,,,,,,4,Ontime,f,1,1.9786,5,2,22,0,1,,,,,
,1,,,,,,,,,h.PNG,h,6165a8ee6dde7ff6f4b22e6f,2021-10-19_15h45.45.530,forced_choiceRT,2021.1.2,Win32,59.89099838,,,,,,,,4,Ontime,h,1,2.0546,5,3,23,2,1,,,,,
,1.91,,,,,,,,,j.PNG,j,6165a8ee6dde7ff6f4b22e6f,2021-10-19_15h45.45.530,forced_choiceRT,2021.1.2,Win32,59.89099838,,,,,,,,4,Slow,j,1,2.3803,6,0,24,3,1,,,,,
,1.11,,,,,,,,,g.PNG,g,6165a8ee6dde7ff6f4b22e6f,2021-10-19_15h45.45.530,forced_choiceRT,2021.1.2,Win32,59.89099838,,,,,,,,4,Ontime,g,1,1.9846,6,1,25,1,1,,,,,
,1,,,,,,,,,j.PNG,j,6165a8ee6dde7ff6f4b22e6f,2021-10-19_15h45.45.530,forced_choiceRT,2021.1.2,Win32,59.89099838,,,,,,,,4,Ontime,j,1,1.9933,6,2,26,3,1,,,,,
,0.83,,,,,,,,,h.PNG,h,6165a8ee6dde7ff6f4b22e6f,2021-10-19_15h45.45.530,forced_choiceRT,2021.1.2,Win32,59.89099838,,,,,,,,4,Ontime,h,1,1.9541,6,3,27,2,1,,,,,
,0.3,,,,,,,,,h.PNG,h,6165a8ee6dde7ff6f4b22e6f,2021-10-19_15h45.45.530,forced_choiceRT,2021.1.2,Win32,59.89099838,,,,,,,,4,Ontime,h,1,1.9697,7,0,28,2,1,,,,,
,0.49,,,,,,,,,f.PNG,f,6165a8ee6dde7ff6f4b22e6f,2021-10-19_15h45.45.530,forced_choiceRT,2021.1.2,Win32,59.89099838,,,,,,,,4,Ontime,f,1,1.9759,7,1,29,0,1,,,,,
,1.88,,,,,,,,,g.PNG,g,6165a8ee6dde7ff6f4b22e6f,2021-10-19_15h45.45.530,forced_choiceRT,2021.1.2,Win32,59.89099838,,,,,,,,4,Slow,f,0,2.2231,7,2,30,1,1,,,,,
,0.12,,,,,,,,,g.PNG,g,6165a8ee6dde7ff6f4b22e6f,2021-10-19_15h45.45.530,forced_choiceRT,2021.1.2,Win32,59.89099838,,,,,,,,4,Ontime,g,1,2.0036,7,3,31,1,1,,,,,
,1.34,,,,,,,,,g.PNG,g,6165a8ee6dde7ff6f4b22e6f,2021-10-19_15h45.45.530,forced_choiceRT,2021.1.2,Win32,59.89099838,,,,,,,,4,Ontime,g,1,1.9975,8,0,32,1,1,,,,,
,0.08,,,,,,,,,j.PNG,j,6165a8ee6dde7ff6f4b22e6f,2021-10-19_15h45.45.530,forced_choiceRT,2021.1.2,Win32,59.89099838,,,,,,,,4,Ontime,j,1,1.9712,8,1,33,3,1,,,,,
,0.6,,,,,,,,,f.PNG,f,6165a8ee6dde7ff6f4b22e6f,2021-10-19_15h45.45.530,forced_choiceRT,2021.1.2,Win32,59.89099838,,,,,,,,4,Ontime,f,1,2.0146,8,2,34,0,1,,,,,
,0.6,,,,,,,,,j.PNG,j,6165a8ee6dde7ff6f4b22e6f,2021-10-19_15h45.45.530,forced_choiceRT,2021.1.2,Win32,59.89099838,,,,,,,,4,Ontime,j,1,1.9649,8,3,35,3,1,,,,,
,0.94,,,,,,,,,j.PNG,j,6165a8ee6dde7ff6f4b22e6f,2021-10-19_15h45.45.530,forced_choiceRT,2021.1.2,Win32,59.89099838,,,,,,,,4,Ontime,j,1,2.0222,9,0,36,3,1,,,,,
,0.7,,,,,,,,,f.PNG,f,6165a8ee6dde7ff6f4b22e6f,2021-10-19_15h45.45.530,forced_choiceRT,2021.1.2,Win32,59.89099838,,,,,,,,4,Ontime,f,1,1.9533,9,1,37,0,1,,,,,
,0.6,,,,,,,,,j.PNG,j,6165a8ee6dde7ff6f4b22e6f,2021-10-19_15h45.45.530,forced_choiceRT,2021.1.2,Win32,59.89099838,,,,,,,,4,Ontime,j,1,1.9845,9,2,38,3,1,,,,,
,0.44,,,,,,,,,h.PNG,h,6165a8ee6dde7ff6f4b22e6f,2021-10-19_15h45.45.530,forced_choiceRT,2021.1.2,Win32,59.89099838,,,,,,,,4,Ontime,h,1,2.0001,9,3,39,2,1,,,,,
,,,,,,,,,,,,6165a8ee6dde7ff6f4b22e6f,2021-10-19_15h45.45.530,forced_choiceRT,2021.1.2,Win32,59.89099838,,,,,,,,,,,,,,,,,,3,0,3,0,1
,0.29,,,,,,,,,h.PNG,h,6165a8ee6dde7ff6f4b22e6f,2021-10-19_15h45.45.530,forced_choiceRT,2021.1.2,Win32,59.89099838,,,,,,,,5,Ontime,h,1,2.0295,0,0,0,2,1,,,,,
,0.07,,,,,,,,,f.PNG,f,6165a8ee6dde7ff6f4b22e6f,2021-10-19_15h45.45.530,forced_choiceRT,2021.1.2,Win32,59.89099838,,,,,,,,5,Ontime,f,1,1.9972,0,1,1,0,1,,,,,
,0.79,,,,,,,,,f.PNG,f,6165a8ee6dde7ff6f4b22e6f,2021-10-19_15h45.45.530,forced_choiceRT,2021.1.2,Win32,59.89099838,,,,,,,,5,Ontime,f,1,2.0885,0,2,2,0,1,,,,,
,1.45,,,,,,,,,h.PNG,h,6165a8ee6dde7ff6f4b22e6f,2021-10-19_15h45.45.530,forced_choiceRT,2021.1.2,Win32,59.89099838,,,,,,,,5,Slow,h,1,2.1019,0,3,3,2,1,,,,,
,0.6,,,,,,,,,h.PNG,h,6165a8ee6dde7ff6f4b22e6f,2021-10-19_15h45.45.530,forced_choiceRT,2021.1.2,Win32,59.89099838,,,,,,,,5,Fast,h,1,1.8684,1,0,4,2,1,,,,,
,1.23,,,,,,,,,f.PNG,f,6165a8ee6dde7ff6f4b22e6f,2021-10-19_15h45.45.530,forced_choiceRT,2021.1.2,Win32,59.89099838,,,,,,,,5,Ontime,f,1,2.0167,1,1,5,0,1,,,,,
,0.41,,,,,,,,,g.PNG,g,6165a8ee6dde7ff6f4b22e6f,2021-10-19_15h45.45.530,forced_choiceRT,2021.1.2,Win32,59.89099838,,,,,,,,5,Ontime,g,1,1.9589,1,2,6,1,1,,,,,
,1.44,,,,,,,,,g.PNG,g,6165a8ee6dde7ff6f4b22e6f,2021-10-19_15h45.45.530,forced_choiceRT,2021.1.2,Win32,59.89099838,,,,,,,,5,Ontime,g,1,1.9986,1,3,7,1,1,,,,,
,1.44,,,,,,,,,j.PNG,j,6165a8ee6dde7ff6f4b22e6f,2021-10-19_15h45.45.530,forced_choiceRT,2021.1.2,Win32,59.89099838,,,,,,,,5,Ontime,j,1,2.0927,2,0,8,3,1,,,,,
,1.59,,,,,,,,,g.PNG,g,6165a8ee6dde7ff6f4b22e6f,2021-10-19_15h45.45.530,forced_choiceRT,2021.1.2,Win32,59.89099838,,,,,,,,5,Ontime,f,0,2.0816,2,1,9,1,1,,,,,
,0.89,,,,,,,,,j.PNG,j,6165a8ee6dde7ff6f4b22e6f,2021-10-19_15h45.45.530,forced_choiceRT,2021.1.2,Win32,59.89099838,,,,,,,,5,Ontime,j,1,1.9643,2,2,10,3,1,,,,,
,1.35,,,,,,,,,j.PNG,j,6165a8ee6dde7ff6f4b22e6f,2021-10-19_15h45.45.530,forced_choiceRT,2021.1.2,Win32,59.89099838,,,,,,,,5,Ontime,j,1,1.9943,2,3,11,3,1,,,,,
,1.01,,,,,,,,,j.PNG,j,6165a8ee6dde7ff6f4b22e6f,2021-10-19_15h45.45.530,forced_choiceRT,2021.1.2,Win32,59.89099838,,,,,,,,5,Ontime,j,1,2.0138,3,0,12,3,1,,,,,
,1.43,,,,,,,,,h.PNG,h,6165a8ee6dde7ff6f4b22e6f,2021-10-19_15h45.45.530,forced_choiceRT,2021.1.2,Win32,59.89099838,,,,,,,,5,Ontime,h,1,1.9995,3,1,13,2,1,,,,,
,1.74,,,,,,,,,h.PNG,h,6165a8ee6dde7ff6f4b22e6f,2021-10-19_15h45.45.530,forced_choiceRT,2021.1.2,Win32,59.89099838,,,,,,,,5,Slow,j,0,2.2495,3,2,14,2,1,,,,,
,1.66,,,,,,,,,j.PNG,j,6165a8ee6dde7ff6f4b22e6f,2021-10-19_15h45.45.530,forced_choiceRT,2021.1.2,Win32,59.89099838,,,,,,,,5,Slow,h,0,2.2312,3,3,15,3,1,,,,,
,0.91,,,,,,,,,h.PNG,h,6165a8ee6dde7ff6f4b22e6f,2021-10-19_15h45.45.530,forced_choiceRT,2021.1.2,Win32,59.89099838,,,,,,,,5,Ontime,h,1,1.9391,4,0,16,2,1,,,,,
,0.73,,,,,,,,,g.PNG,g,6165a8ee6dde7ff6f4b22e6f,2021-10-19_15h45.45.530,forced_choiceRT,2021.1.2,Win32,59.89099838,,,,,,,,5,Ontime,g,1,2.0382,4,1,17,1,1,,,,,
,1.51,,,,,,,,,g.PNG,g,6165a8ee6dde7ff6f4b22e6f,2021-10-19_15h45.45.530,forced_choiceRT,2021.1.2,Win32,59.89099838,,,,,,,,5,Ontime,h,0,2.0009,4,2,18,1,1,,,,,
,0.11,,,,,,,,,h.PNG,h,6165a8ee6dde7ff6f4b22e6f,2021-10-19_15h45.45.530,forced_choiceRT,2021.1.2,Win32,59.89099838,,,,,,,,5,Ontime,h,1,1.9847,4,3,19,2,1,,,,,
,0.07,,,,,,,,,g.PNG,g,6165a8ee6dde7ff6f4b22e6f,2021-10-19_15h45.45.530,forced_choiceRT,2021.1.2,Win32,59.89099838,,,,,,,,5,Ontime,g,1,2.0815,5,0,20,1,1,,,,,
,0.5,,,,,,,,,j.PNG,j,6165a8ee6dde7ff6f4b22e6f,2021-10-19_15h45.45.530,forced_choiceRT,2021.1.2,Win32,59.89099838,,,,,,,,5,Ontime,j,1,1.9365,5,1,21,3,1,,,,,
,1.19,,,,,,,,,f.PNG,f,6165a8ee6dde7ff6f4b22e6f,2021-10-19_15h45.45.530,forced_choiceRT,2021.1.2,Win32,59.89099838,,,,,,,,5,Ontime,f,1,2.0219,5,2,22,0,1,,,,,
,0.47,,,,,,,,,h.PNG,h,6165a8ee6dde7ff6f4b22e6f,2021-10-19_15h45.45.530,forced_choiceRT,2021.1.2,Win32,59.89099838,,,,,,,,5,Ontime,h,1,1.9785,5,3,23,2,1,,,,,
,1.71,,,,,,,,,f.PNG,f,6165a8ee6dde7ff6f4b22e6f,2021-10-19_15h45.45.530,forced_choiceRT,2021.1.2,Win32,59.89099838,,,,,,,,5,Slow,g,0,2.1878,6,0,24,0,1,,,,,
,0.47,,,,,,,,,h.PNG,h,6165a8ee6dde7ff6f4b22e6f,2021-10-19_15h45.45.530,forced_choiceRT,2021.1.2,Win32,59.89099838,,,,,,,,5,Ontime,h,1,1.9923,6,1,25,2,1,,,,,
,1.71,,,,,,,,,f.PNG,f,6165a8ee6dde7ff6f4b22e6f,2021-10-19_15h45.45.530,forced_choiceRT,2021.1.2,Win32,59.89099838,,,,,,,,5,Slow,f,1,2.3051,6,2,26,0,1,,,,,
,1.47,,,,,,,,,j.PNG,j,6165a8ee6dde7ff6f4b22e6f,2021-10-19_15h45.45.530,forced_choiceRT,2021.1.2,Win32,59.89099838,,,,,,,,5,Slow,j,1,2.1454,6,3,27,3,1,,,,,
,1.86,,,,,,,,,f.PNG,f,6165a8ee6dde7ff6f4b22e6f,2021-10-19_15h45.45.530,forced_choiceRT,2021.1.2,Win32,59.89099838,,,,,,,,5,Slow,j,0,2.2302,7,0,28,0,1,,,,,
,0.13,,,,,,,,,h.PNG,h,6165a8ee6dde7ff6f4b22e6f,2021-10-19_15h45.45.530,forced_choiceRT,2021.1.2,Win32,59.89099838,,,,,,,,5,Ontime,h,1,1.9335,7,1,29,2,1,,,,,
,0.83,,,,,,,,,j.PNG,j,6165a8ee6dde7ff6f4b22e6f,2021-10-19_15h45.45.530,forced_choiceRT,2021.1.2,Win32,59.89099838,,,,,,,,5,Ontime,j,1,1.9559,7,2,30,3,1,,,,,
,1.12,,,,,,,,,f.PNG,f,6165a8ee6dde7ff6f4b22e6f,2021-10-19_15h45.45.530,forced_choiceRT,2021.1.2,Win32,59.89099838,,,,,,,,5,Ontime,f,1,1.9884,7,3,31,0,1,,,,,
,0.89,,,,,,,,,g.PNG,g,6165a8ee6dde7ff6f4b22e6f,2021-10-19_15h45.45.530,forced_choiceRT,2021.1.2,Win32,59.89099838,,,,,,,,5,Ontime,g,1,2.0171,8,0,32,1,1,,,,,
,0.93,,,,,,,,,f.PNG,f,6165a8ee6dde7ff6f4b22e6f,2021-10-19_15h45.45.530,forced_choiceRT,2021.1.2,Win32,59.89099838,,,,,,,,5,Ontime,f,1,1.9386,8,1,33,0,1,,,,,
,0.55,,,,,,,,,g.PNG,g,6165a8ee6dde7ff6f4b22e6f,2021-10-19_15h45.45.530,forced_choiceRT,2021.1.2,Win32,59.89099838,,,,,,,,5,Ontime,g,1,1.9602,8,2,34,1,1,,,,,
,1.14,,,,,,,,,g.PNG,g,6165a8ee6dde7ff6f4b22e6f,2021-10-19_15h45.45.530,forced_choiceRT,2021.1.2,Win32,59.89099838,,,,,,,,5,Ontime,g,1,2.0181,8,3,35,1,1,,,,,
,0.25,,,,,,,,,f.PNG,f,6165a8ee6dde7ff6f4b22e6f,2021-10-19_15h45.45.530,forced_choiceRT,2021.1.2,Win32,59.89099838,,,,,,,,5,Ontime,f,1,1.9912,9,0,36,0,1,,,,,
,1.28,,,,,,,,,j.PNG,j,6165a8ee6dde7ff6f4b22e6f,2021-10-19_15h45.45.530,forced_choiceRT,2021.1.2,Win32,59.89099838,,,,,,,,5,Ontime,j,1,2.076,9,1,37,3,1,,,,,
,0.16,,,,,,,,,g.PNG,g,6165a8ee6dde7ff6f4b22e6f,2021-10-19_15h45.45.530,forced_choiceRT,2021.1.2,Win32,59.89099838,,,,,,,,5,Fast,g,1,1.8679,9,2,38,1,1,,,,,
,0.1,,,,,,,,,j.PNG,j,6165a8ee6dde7ff6f4b22e6f,2021-10-19_15h45.45.530,forced_choiceRT,2021.1.2,Win32,59.89099838,,,,,,,,5,Ontime,j,1,1.9515,9,3,39,3,1,,,,,
,,,,,,,,,,,,6165a8ee6dde7ff6f4b22e6f,2021-10-19_15h45.45.530,forced_choiceRT,2021.1.2,Win32,59.89099838,,,,,,,,,,,,,,,,,,4,0,4,0,1
,1.51,,,,,,,,,j.PNG,j,6165a8ee6dde7ff6f4b22e6f,2021-10-19_15h45.45.530,forced_choiceRT,2021.1.2,Win32,59.89099838,,,,,,,,6,Slow,j,1,2.1006,0,0,0,3,1,,,,,
,0.31,,,,,,,,,f.PNG,f,6165a8ee6dde7ff6f4b22e6f,2021-10-19_15h45.45.530,forced_choiceRT,2021.1.2,Win32,59.89099838,,,,,,,,6,Ontime,f,1,1.9215,0,1,1,0,1,,,,,
,0.35,,,,,,,,,f.PNG,f,6165a8ee6dde7ff6f4b22e6f,2021-10-19_15h45.45.530,forced_choiceRT,2021.1.2,Win32,59.89099838,,,,,,,,6,Ontime,f,1,1.9175,0,2,2,0,1,,,,,
,0.23,,,,,,,,,g.PNG,g,6165a8ee6dde7ff6f4b22e6f,2021-10-19_15h45.45.530,forced_choiceRT,2021.1.2,Win32,59.89099838,,,,,,,,6,Ontime,g,1,1.9197,0,3,3,1,1,,,,,
,0.93,,,,,,,,,h.PNG,h,6165a8ee6dde7ff6f4b22e6f,2021-10-19_15h45.45.530,forced_choiceRT,2021.1.2,Win32,59.89099838,,,,,,,,6,Ontime,h,1,2.0255,1,0,4,2,1,,,,,
,1.55,,,,,,,,,f.PNG,f,6165a8ee6dde7ff6f4b22e6f,2021-10-19_15h45.45.530,forced_choiceRT,2021.1.2,Win32,59.89099838,,,,,,,,6,Slow,f,1,2.1178,1,1,5,0,1,,,,,
,1.71,,,,,,,,,g.PNG,g,6165a8ee6dde7ff6f4b22e6f,2021-10-19_15h45.45.530,forced_choiceRT,2021.1.2,Win32,59.89099838,,,,,,,,6,Slow,h,0,2.1471,1,2,6,1,1,,,,,
,1.74,,,,,,,,,h.PNG,h,6165a8ee6dde7ff6f4b22e6f,2021-10-19_15h45.45.530,forced_choiceRT,2021.1.2,Win32,59.89099838,,,,,,,,6,Slow,f,0,2.1718,1,3,7,2,1,,,,,
,1.12,,,,,,,,,h.PNG,h,6165a8ee6dde7ff6f4b22e6f,2021-10-19_15h45.45.530,forced_choiceRT,2021.1.2,Win32,59.89099838,,,,,,,,6,Ontime,h,1,1.9643,2,0,8,2,1,,,,,
,1.27,,,,,,,,,j.PNG,j,6165a8ee6dde7ff6f4b22e6f,2021-10-19_15h45.45.530,forced_choiceRT,2021.1.2,Win32,59.89099838,,,,,,,,6,Ontime,j,1,1.9911,2,1,9,3,1,,,,,
,1.04,,,,,,,,,h.PNG,h,6165a8ee6dde7ff6f4b22e6f,2021-10-19_15h45.45.530,forced_choiceRT,2021.1.2,Win32,59.89099838,,,,,,,,6,Ontime,h,1,2.0557,2,2,10,2,1,,,,,
,1.39,,,,,,,,,g.PNG,g,6165a8ee6dde7ff6f4b22e6f,2021-10-19_15h45.45.530,forced_choiceRT,2021.1.2,Win32,59.89099838,,,,,,,,6,Ontime,g,1,1.9463,2,3,11,1,1,,,,,
,1.13,,,,,,,,,j.PNG,j,6165a8ee6dde7ff6f4b22e6f,2021-10-19_15h45.45.530,forced_choiceRT,2021.1.2,Win32,59.89099838,,,,,,,,6,Ontime,j,1,2.0445,3,0,12,3,1,,,,,
,1.29,,,,,,,,,g.PNG,g,6165a8ee6dde7ff6f4b22e6f,2021-10-19_15h45.45.530,forced_choiceRT,2021.1.2,Win32,59.89099838,,,,,,,,6,Ontime,g,1,1.9999,3,1,13,1,1,,,,,
,0.16,,,,,,,,,j.PNG,j,6165a8ee6dde7ff6f4b22e6f,2021-10-19_15h45.45.530,forced_choiceRT,2021.1.2,Win32,59.89099838,,,,,,,,6,Slow,g,0,12.1143,3,2,14,3,1,,,,,
,1.8,,,,,,,,,j.PNG,j,6165a8ee6dde7ff6f4b22e6f,2021-10-19_15h45.45.530,forced_choiceRT,2021.1.2,Win32,59.89099838,,,,,,,,6,Slow,j,1,2.347,3,3,15,3,1,,,,,
,0.5,,,,,,,,,g.PNG,g,6165a8ee6dde7ff6f4b22e6f,2021-10-19_15h45.45.530,forced_choiceRT,2021.1.2,Win32,59.89099838,,,,,,,,6,Ontime,f,0,2.0715,4,0,16,1,1,,,,,
,1.31,,,,,,,,,h.PNG,h,6165a8ee6dde7ff6f4b22e6f,2021-10-19_15h45.45.530,forced_choiceRT,2021.1.2,Win32,59.89099838,,,,,,,,6,Ontime,h,1,2.055,4,1,17,2,1,,,,,
,1.58,,,,,,,,,h.PNG,h,6165a8ee6dde7ff6f4b22e6f,2021-10-19_15h45.45.530,forced_choiceRT,2021.1.2,Win32,59.89099838,,,,,,,,6,Slow,h,1,2.1516,4,2,18,2,1,,,,,
,0.92,,,,,,,,,g.PNG,g,6165a8ee6dde7ff6f4b22e6f,2021-10-19_15h45.45.530,forced_choiceRT,2021.1.2,Win32,59.89099838,,,,,,,,6,Ontime,g,1,1.9951,4,3,19,1,1,,,,,
,1.74,,,,,,,,,f.PNG,f,6165a8ee6dde7ff6f4b22e6f,2021-10-19_15h45.45.530,forced_choiceRT,2021.1.2,Win32,59.89099838,,,,,,,,6,Slow,f,1,2.3194,5,0,20,0,1,,,,,
,0.2,,,,,,,,,h.PNG,h,6165a8ee6dde7ff6f4b22e6f,2021-10-19_15h45.45.530,forced_choiceRT,2021.1.2,Win32,59.89099838,,,,,,,,6,Ontime,h,1,1.9464,5,1,21,2,1,,,,,
,1.04,,,,,,,,,f.PNG,f,6165a8ee6dde7ff6f4b22e6f,2021-10-19_15h45.45.530,forced_choiceRT,2021.1.2,Win32,59.89099838,,,,,,,,6,Ontime,f,1,1.9843,5,2,22,0,1,,,,,
,0.6,,,,,,,,,j.PNG,j,6165a8ee6dde7ff6f4b22e6f,2021-10-19_15h45.45.530,forced_choiceRT,2021.1.2,Win32,59.89099838,,,,,,,,6,Ontime,j,1,1.9307,5,3,23,3,1,,,,,
,1.15,,,,,,,,,h.PNG,h,6165a8ee6dde7ff6f4b22e6f,2021-10-19_15h45.45.530,forced_choiceRT,2021.1.2,Win32,59.89099838,,,,,,,,6,Ontime,h,1,1.984,6,0,24,2,1,,,,,
,0.38,,,,,,,,,h.PNG,h,6165a8ee6dde7ff6f4b22e6f,2021-10-19_15h45.45.530,forced_choiceRT,2021.1.2,Win32,59.89099838,,,,,,,,6,Ontime,h,1,1.9012,6,1,25,2,1,,,,,
,1.71,,,,,,,,,f.PNG,f,6165a8ee6dde7ff6f4b22e6f,2021-10-19_15h45.45.530,forced_choiceRT,2021.1.2,Win32,59.89099838,,,,,,,,6,Ontime,f,1,2.0786,6,2,26,0,1,,,,,
,0.19,,,,,,,,,f.PNG,f,6165a8ee6dde7ff6f4b22e6f,2021-10-19_15h45.45.530,forced_choiceRT,2021.1.2,Win32,59.89099838,,,,,,,,6,Ontime,f,1,1.9927,6,3,27,0,1,,,,,
,0,,,,,,,,,g.PNG,g,6165a8ee6dde7ff6f4b22e6f,2021-10-19_15h45.45.530,forced_choiceRT,2021.1.2,Win32,59.89099838,,,,,,,,6,Ontime,g,1,1.9485,7,0,28,1,1,,,,,
,0.65,,,,,,,,,f.PNG,f,6165a8ee6dde7ff6f4b22e6f,2021-10-19_15h45.45.530,forced_choiceRT,2021.1.2,Win32,59.89099838,,,,,,,,6,Ontime,f,1,1.9855,7,1,29,0,1,,,,,
,0.17,,,,,,,,,h.PNG,h,6165a8ee6dde7ff6f4b22e6f,2021-10-19_15h45.45.530,forced_choiceRT,2021.1.2,Win32,59.89099838,,,,,,,,6,Ontime,h,1,2.0035,7,2,30,2,1,,,,,
,0.47,,,,,,,,,f.PNG,f,6165a8ee6dde7ff6f4b22e6f,2021-10-19_15h45.45.530,forced_choiceRT,2021.1.2,Win32,59.89099838,,,,,,,,6,Ontime,f,1,1.9701,7,3,31,0,1,,,,,
,0.66,,,,,,,,,g.PNG,g,6165a8ee6dde7ff6f4b22e6f,2021-10-19_15h45.45.530,forced_choiceRT,2021.1.2,Win32,59.89099838,,,,,,,,6,Ontime,g,1,2.0238,8,0,32,1,1,,,,,
,1.19,,,,,,,,,j.PNG,j,6165a8ee6dde7ff6f4b22e6f,2021-10-19_15h45.45.530,forced_choiceRT,2021.1.2,Win32,59.89099838,,,,,,,,6,Ontime,j,1,2.0139,8,1,33,3,1,,,,,
,1.55,,,,,,,,,g.PNG,g,6165a8ee6dde7ff6f4b22e6f,2021-10-19_15h45.45.530,forced_choiceRT,2021.1.2,Win32,59.89099838,,,,,,,,6,Ontime,f,0,1.9772,8,2,34,1,1,,,,,
,1.71,,,,,,,,,g.PNG,g,6165a8ee6dde7ff6f4b22e6f,2021-10-19_15h45.45.530,forced_choiceRT,2021.1.2,Win32,59.89099838,,,,,,,,6,Ontime,g,1,2.065,8,3,35,1,1,,,,,
,0.75,,,,,,,,,j.PNG,j,6165a8ee6dde7ff6f4b22e6f,2021-10-19_15h45.45.530,forced_choiceRT,2021.1.2,Win32,59.89099838,,,,,,,,6,Ontime,j,1,1.9159,9,0,36,3,1,,,,,
,0.91,,,,,,,,,f.PNG,f,6165a8ee6dde7ff6f4b22e6f,2021-10-19_15h45.45.530,forced_choiceRT,2021.1.2,Win32,59.89099838,,,,,,,,6,Ontime,f,1,2.0239,9,1,37,0,1,,,,,
,0.21,,,,,,,,,j.PNG,j,6165a8ee6dde7ff6f4b22e6f,2021-10-19_15h45.45.530,forced_choiceRT,2021.1.2,Win32,59.89099838,,,,,,,,6,Ontime,j,1,1.9123,9,2,38,3,1,,,,,
,0.49,,,,,,,,,j.PNG,j,6165a8ee6dde7ff6f4b22e6f,2021-10-19_15h45.45.530,forced_choiceRT,2021.1.2,Win32,59.89099838,,,,,,,,6,Ontime,h,0,1.9843,9,3,39,3,1,,,,,
,,,,,,,,,,,,6165a8ee6dde7ff6f4b22e6f,2021-10-19_15h45.45.530,forced_choiceRT,2021.1.2,Win32,59.89099838,,,,,,,,,,,,,,,,,,5,0,5,0,1
,1.27,,,,,,,,,j.PNG,j,6165a8ee6dde7ff6f4b22e6f,2021-10-19_15h45.45.530,forced_choiceRT,2021.1.2,Win32,59.89099838,,,,,,,,7,Ontime,j,1,2.067,0,0,0,3,1,,,,,
,1.31,,,,,,,,,h.PNG,h,6165a8ee6dde7ff6f4b22e6f,2021-10-19_15h45.45.530,forced_choiceRT,2021.1.2,Win32,59.89099838,,,,,,,,7,Ontime,h,1,2.0063,0,1,1,2,1,,,,,
,0.48,,,,,,,,,g.PNG,g,6165a8ee6dde7ff6f4b22e6f,2021-10-19_15h45.45.530,forced_choiceRT,2021.1.2,Win32,59.89099838,,,,,,,,7,Ontime,g,1,2.0315,0,2,2,1,1,,,,,
,1.18,,,,,,,,,j.PNG,j,6165a8ee6dde7ff6f4b22e6f,2021-10-19_15h45.45.530,forced_choiceRT,2021.1.2,Win32,59.89099838,,,,,,,,7,Ontime,j,1,2.0269,0,3,3,3,1,,,,,
,0.12,,,,,,,,,h.PNG,h,6165a8ee6dde7ff6f4b22e6f,2021-10-19_15h45.45.530,forced_choiceRT,2021.1.2,Win32,59.89099838,,,,,,,,7,Ontime,h,1,1.9305,1,0,4,2,1,,,,,
,0.88,,,,,,,,,g.PNG,g,6165a8ee6dde7ff6f4b22e6f,2021-10-19_15h45.45.530,forced_choiceRT,2021.1.2,Win32,59.89099838,,,,,,,,7,Ontime,g,1,1.9888,1,1,5,1,1,,,,,
,0.85,,,,,,,,,g.PNG,g,6165a8ee6dde7ff6f4b22e6f,2021-10-19_15h45.45.530,forced_choiceRT,2021.1.2,Win32,59.89099838,,,,,,,,7,Ontime,g,1,1.9813,1,2,6,1,1,,,,,
,1.4,,,,,,,,,f.PNG,f,6165a8ee6dde7ff6f4b22e6f,2021-10-19_15h45.45.530,forced_choiceRT,2021.1.2,Win32,59.89099838,,,,,,,,7,Ontime,f,1,2.0342,1,3,7,0,1,,,,,
,0.87,,,,,,,,,j.PNG,j,6165a8ee6dde7ff6f4b22e6f,2021-10-19_15h45.45.530,forced_choiceRT,2021.1.2,Win32,59.89099838,,,,,,,,7,Ontime,j,1,1.9247,2,0,8,3,1,,,,,
,1.93,,,,,,,,,g.PNG,g,6165a8ee6dde7ff6f4b22e6f,2021-10-19_15h45.45.530,forced_choiceRT,2021.1.2,Win32,59.89099838,,,,,,,,7,Slow,f,0,2.2001,2,1,9,1,1,,,,,
,1.54,,,,,,,,,h.PNG,h,6165a8ee6dde7ff6f4b22e6f,2021-10-19_15h45.45.530,forced_choiceRT,2021.1.2,Win32,59.89099838,,,,,,,,7,Ontime,h,1,2.0981,2,2,10,2,1,,,,,
,1.3,,,,,,,,,j.PNG,j,6165a8ee6dde7ff6f4b22e6f,2021-10-19_15h45.45.530,forced_choiceRT,2021.1.2,Win32,59.89099838,,,,,,,,7,Ontime,j,1,1.9698,2,3,11,3,1,,,,,
,0.57,,,,,,,,,j.PNG,j,6165a8ee6dde7ff6f4b22e6f,2021-10-19_15h45.45.530,forced_choiceRT,2021.1.2,Win32,59.89099838,,,,,,,,7,Ontime,j,1,1.9325,3,0,12,3,1,,,,,
,1.69,,,,,,,,,j.PNG,j,6165a8ee6dde7ff6f4b22e6f,2021-10-19_15h45.45.530,forced_choiceRT,2021.1.2,Win32,59.89099838,,,,,,,,7,Slow,g,0,2.1688,3,1,13,3,1,,,,,
,0.26,,,,,,,,,g.PNG,g,6165a8ee6dde7ff6f4b22e6f,2021-10-19_15h45.45.530,forced_choiceRT,2021.1.2,Win32,59.89099838,,,,,,,,7,Fast,g,1,1.892,3,2,14,1,1,,,,,
,0.42,,,,,,,,,f.PNG,f,6165a8ee6dde7ff6f4b22e6f,2021-10-19_15h45.45.530,forced_choiceRT,2021.1.2,Win32,59.89099838,,,,,,,,7,Ontime,f,1,1.9623,3,3,15,0,1,,,,,
,1.75,,,,,,,,,j.PNG,j,6165a8ee6dde7ff6f4b22e6f,2021-10-19_15h45.45.530,forced_choiceRT,2021.1.2,Win32,59.89099838,,,,,,,,7,Slow,f,0,2.12,4,0,16,3,1,,,,,
,0.62,,,,,,,,,h.PNG,h,6165a8ee6dde7ff6f4b22e6f,2021-10-19_15h45.45.530,forced_choiceRT,2021.1.2,Win32,59.89099838,,,,,,,,7,Fast,h,1,1.8765,4,1,17,2,1,,,,,
,0.24,,,,,,,,,j.PNG,j,6165a8ee6dde7ff6f4b22e6f,2021-10-19_15h45.45.530,forced_choiceRT,2021.1.2,Win32,59.89099838,,,,,,,,7,Slow,j,1,2.3488,4,2,18,3,1,,,,,
,0.38,,,,,,,,,f.PNG,f,6165a8ee6dde7ff6f4b22e6f,2021-10-19_15h45.45.530,forced_choiceRT,2021.1.2,Win32,59.89099838,,,,,,,,7,Ontime,f,1,1.9782,4,3,19,0,1,,,,,
,1.34,,,,,,,,,g.PNG,g,6165a8ee6dde7ff6f4b22e6f,2021-10-19_15h45.45.530,forced_choiceRT,2021.1.2,Win32,59.89099838,,,,,,,,7,Ontime,g,1,2.0746,5,0,20,1,1,,,,,
,0.63,,,,,,,,,h.PNG,h,6165a8ee6dde7ff6f4b22e6f,2021-10-19_15h45.45.530,forced_choiceRT,2021.1.2,Win32,59.89099838,,,,,,,,7,Ontime,h,1,1.9961,5,1,21,2,1,,,,,
,1.3,,,,,,,,,g.PNG,g,6165a8ee6dde7ff6f4b22e6f,2021-10-19_15h45.45.530,forced_choiceRT,2021.1.2,Win32,59.89099838,,,,,,,,7,Ontime,g,1,2.0907,5,2,22,1,1,,,,,
,1.78,,,,,,,,,h.PNG,h,6165a8ee6dde7ff6f4b22e6f,2021-10-19_15h45.45.530,forced_choiceRT,2021.1.2,Win32,59.89099838,,,,,,,,7,Slow,g,0,2.2573,5,3,23,2,1,,,,,
,1.4,,,,,,,,,j.PNG,j,6165a8ee6dde7ff6f4b22e6f,2021-10-19_15h45.45.530,forced_choiceRT,2021.1.2,Win32,59.89099838,,,,,,,,7,Ontime,j,1,2.0133,6,0,24,3,1,,,,,
,0.87,,,,,,,,,f.PNG,f,6165a8ee6dde7ff6f4b22e6f,2021-10-19_15h45.45.530,forced_choiceRT,2021.1.2,Win32,59.89099838,,,,,,,,7,Ontime,f,1,1.9262,6,1,25,0,1,,,,,
,0.06,,,,,,,,,h.PNG,h,6165a8ee6dde7ff6f4b22e6f,2021-10-19_15h45.45.530,forced_choiceRT,2021.1.2,Win32,59.89099838,,,,,,,,7,Ontime,h,1,1.9614,6,2,26,2,1,,,,,
,1.18,,,,,,,,,g.PNG,g,6165a8ee6dde7ff6f4b22e6f,2021-10-19_15h45.45.530,forced_choiceRT,2021.1.2,Win32,59.89099838,,,,,,,,7,Ontime,g,1,1.9509,6,3,27,1,1,,,,,
,1.26,,,,,,,,,f.PNG,f,6165a8ee6dde7ff6f4b22e6f,2021-10-19_15h45.45.530,forced_choiceRT,2021.1.2,Win32,59.89099838,,,,,,,,7,Ontime,f,1,2.0011,7,0,28,0,1,,,,,
,1.12,,,,,,,,,f.PNG,f,6165a8ee6dde7ff6f4b22e6f,2021-10-19_15h45.45.530,forced_choiceRT,2021.1.2,Win32,59.89099838,,,,,,,,7,Ontime,f,1,1.9591,7,1,29,0,1,,,,,
,1.55,,,,,,,,,h.PNG,h,6165a8ee6dde7ff6f4b22e6f,2021-10-19_15h45.45.530,forced_choiceRT,2021.1.2,Win32,59.89099838,,,,,,,,7,Slow,h,1,2.1295,7,2,30,2,1,,,,,
,0.58,,,,,,,,,f.PNG,f,6165a8ee6dde7ff6f4b22e6f,2021-10-19_15h45.45.530,forced_choiceRT,2021.1.2,Win32,59.89099838,,,,,,,,7,Ontime,f,1,2.026,7,3,31,0,1,,,,,
,1.47,,,,,,,,,g.PNG,g,6165a8ee6dde7ff6f4b22e6f,2021-10-19_15h45.45.530,forced_choiceRT,2021.1.2,Win32,59.89099838,,,,,,,,7,Ontime,g,1,2.0396,8,0,32,1,1,,,,,
,0.63,,,,,,,,,j.PNG,j,6165a8ee6dde7ff6f4b22e6f,2021-10-19_15h45.45.530,forced_choiceRT,2021.1.2,Win32,59.89099838,,,,,,,,7,Fast,j,1,1.8795,8,1,33,3,1,,,,,
,1.77,,,,,,,,,f.PNG,f,6165a8ee6dde7ff6f4b22e6f,2021-10-19_15h45.45.530,forced_choiceRT,2021.1.2,Win32,59.89099838,,,,,,,,7,Ontime,h,0,2.0807,8,2,34,0,1,,,,,
,1.07,,,,,,,,,h.PNG,h,6165a8ee6dde7ff6f4b22e6f,2021-10-19_15h45.45.530,forced_choiceRT,2021.1.2,Win32,59.89099838,,,,,,,,7,Ontime,h,1,2.0734,8,3,35,2,1,,,,,
,0.66,,,,,,,,,g.PNG,g,6165a8ee6dde7ff6f4b22e6f,2021-10-19_15h45.45.530,forced_choiceRT,2021.1.2,Win32,59.89099838,,,,,,,,7,Ontime,g,1,1.9847,9,0,36,1,1,,,,,
,0.14,,,,,,,,,f.PNG,f,6165a8ee6dde7ff6f4b22e6f,2021-10-19_15h45.45.530,forced_choiceRT,2021.1.2,Win32,59.89099838,,,,,,,,7,Ontime,f,1,2.0554,9,1,37,0,1,,,,,
,0.99,,,,,,,,,h.PNG,h,6165a8ee6dde7ff6f4b22e6f,2021-10-19_15h45.45.530,forced_choiceRT,2021.1.2,Win32,59.89099838,,,,,,,,7,Ontime,h,1,1.9449,9,2,38,2,1,,,,,
,0.16,,,,,,,,,f.PNG,f,6165a8ee6dde7ff6f4b22e6f,2021-10-19_15h45.45.530,forced_choiceRT,2021.1.2,Win32,59.89099838,,,,,,,,7,Ontime,f,1,1.9829,9,3,39,0,1,,,,,
,,,,,,,,,,,,6165a8ee6dde7ff6f4b22e6f,2021-10-19_15h45.45.530,forced_choiceRT,2021.1.2,Win32,59.89099838,,,,,,,,,,,,,,,,,,6,0,6,0,1
,0.72,,,,,,,,,g.PNG,g,6165a8ee6dde7ff6f4b22e6f,2021-10-19_15h45.45.530,forced_choiceRT,2021.1.2,Win32,59.89099838,,,,,,,,8,Ontime,g,1,1.9832,0,0,0,1,1,,,,,
,1.72,,,,,,,,,j.PNG,j,6165a8ee6dde7ff6f4b22e6f,2021-10-19_15h45.45.530,forced_choiceRT,2021.1.2,Win32,59.89099838,,,,,,,,8,Ontime,h,0,2.0824,0,1,1,3,1,,,,,
,1.32,,,,,,,,,f.PNG,f,6165a8ee6dde7ff6f4b22e6f,2021-10-19_15h45.45.530,forced_choiceRT,2021.1.2,Win32,59.89099838,,,,,,,,8,Ontime,f,1,2.0709,0,2,2,0,1,,,,,
,0.03,,,,,,,,,f.PNG,f,6165a8ee6dde7ff6f4b22e6f,2021-10-19_15h45.45.530,forced_choiceRT,2021.1.2,Win32,59.89099838,,,,,,,,8,Ontime,f,1,1.9604,0,3,3,0,1,,,,,
,1.46,,,,,,,,,h.PNG,h,6165a8ee6dde7ff6f4b22e6f,2021-10-19_15h45.45.530,forced_choiceRT,2021.1.2,Win32,59.89099838,,,,,,,,8,Ontime,h,1,2.035,1,0,4,2,1,,,,,
,0.91,,,,,,,,,f.PNG,f,6165a8ee6dde7ff6f4b22e6f,2021-10-19_15h45.45.530,forced_choiceRT,2021.1.2,Win32,59.89099838,,,,,,,,8,Ontime,f,1,1.9563,1,1,5,0,1,,,,,
,1.52,,,,,,,,,h.PNG,h,6165a8ee6dde7ff6f4b22e6f,2021-10-19_15h45.45.530,forced_choiceRT,2021.1.2,Win32,59.89099838,,,,,,,,8,Ontime,h,1,2.012,1,2,6,2,1,,,,,
,1.82,,,,,,,,,f.PNG,f,6165a8ee6dde7ff6f4b22e6f,2021-10-19_15h45.45.530,forced_choiceRT,2021.1.2,Win32,59.89099838,,,,,,,,8,Ontime,f,1,2.0682,1,3,7,0,1,,,,,
,0.41,,,,,,,,,h.PNG,h,6165a8ee6dde7ff6f4b22e6f,2021-10-19_15h45.45.530,forced_choiceRT,2021.1.2,Win32,59.89099838,,,,,,,,8,Ontime,h,1,1.9846,2,0,8,2,1,,,,,
,1.16,,,,,,,,,f.PNG,f,6165a8ee6dde7ff6f4b22e6f,2021-10-19_15h45.45.530,forced_choiceRT,2021.1.2,Win32,59.89099838,,,,,,,,8,Ontime,f,1,1.945,2,1,9,0,1,,,,,
,1.91,,,,,,,,,g.PNG,g,6165a8ee6dde7ff6f4b22e6f,2021-10-19_15h45.45.530,forced_choiceRT,2021.1.2,Win32,59.89099838,,,,,,,,8,Slow,f,0,2.1212,2,2,10,1,1,,,,,
,0.47,,,,,,,,,g.PNG,g,6165a8ee6dde7ff6f4b22e6f,2021-10-19_15h45.45.530,forced_choiceRT,2021.1.2,Win32,59.89099838,,,,,,,,8,Ontime,g,1,2.0146,2,3,11,1,1,,,,,
,1.54,,,,,,,,,h.PNG,h,6165a8ee6dde7ff6f4b22e6f,2021-10-19_15h45.45.530,forced_choiceRT,2021.1.2,Win32,59.89099838,,,,,,,,8,Ontime,g,0,1.9632,3,0,12,2,1,,,,,
,0.11,,,,,,,,,h.PNG,h,6165a8ee6dde7ff6f4b22e6f,2021-10-19_15h45.45.530,forced_choiceRT,2021.1.2,Win32,59.89099838,,,,,,,,8,Ontime,h,1,2.0057,3,1,13,2,1,,,,,
,1.88,,,,,,,,,f.PNG,f,6165a8ee6dde7ff6f4b22e6f,2021-10-19_15h45.45.530,forced_choiceRT,2021.1.2,Win32,59.89099838,,,,,,,,8,Ontime,h,0,2.0885,3,2,14,0,1,,,,,
,0.42,,,,,,,,,j.PNG,j,6165a8ee6dde7ff6f4b22e6f,2021-10-19_15h45.45.530,forced_choiceRT,2021.1.2,Win32,59.89099838,,,,,,,,8,Ontime,j,1,2.0508,3,3,15,3,1,,,,,
,0.93,,,,,,,,,g.PNG,g,6165a8ee6dde7ff6f4b22e6f,2021-10-19_15h45.45.530,forced_choiceRT,2021.1.2,Win32,59.89099838,,,,,,,,8,Ontime,g,1,2.0155,4,0,16,1,1,,,,,
,1.12,,,,,,,,,g.PNG,g,6165a8ee6dde7ff6f4b22e6f,2021-10-19_15h45.45.530,forced_choiceRT,2021.1.2,Win32,59.89099838,,,,,,,,8,Slow,g,1,2.1415,4,1,17,1,1,,,,,
,1.83,,,,,,,,,j.PNG,j,6165a8ee6dde7ff6f4b22e6f,2021-10-19_15h45.45.530,forced_choiceRT,2021.1.2,Win32,59.89099838,,,,,,,,8,Ontime,h,0,2.0952,4,2,18,3,1,,,,,
,1.57,,,,,,,,,g.PNG,g,6165a8ee6dde7ff6f4b22e6f,2021-10-19_15h45.45.530,forced_choiceRT,2021.1.2,Win32,59.89099838,,,,,,,,8,Ontime,g,1,2.0986,4,3,19,1,1,,,,,
,1.11,,,,,,,,,g.PNG,g,6165a8ee6dde7ff6f4b22e6f,2021-10-19_15h45.45.530,forced_choiceRT,2021.1.2,Win32,59.89099838,,,,,,,,8,Ontime,g,1,2.0207,5,0,20,1,1,,,,,
,0.53,,,,,,,,,j.PNG,j,6165a8ee6dde7ff6f4b22e6f,2021-10-19_15h45.45.530,forced_choiceRT,2021.1.2,Win32,59.89099838,,,,,,,,8,Ontime,j,1,1.9224,5,1,21,3,1,,,,,
,1.13,,,,,,,,,f.PNG,f,6165a8ee6dde7ff6f4b22e6f,2021-10-19_15h45.45.530,forced_choiceRT,2021.1.2,Win32,59.89099838,,,,,,,,8,Ontime,f,1,2.0312,5,2,22,0,1,,,,,
,1.19,,,,,,,,,f.PNG,f,6165a8ee6dde7ff6f4b22e6f,2021-10-19_15h45.45.530,forced_choiceRT,2021.1.2,Win32,59.89099838,,,,,,,,8,Slow,f,1,2.1411,5,3,23,0,1,,,,,
,1.47,,,,,,,,,j.PNG,j,6165a8ee6dde7ff6f4b22e6f,2021-10-19_15h45.45.530,forced_choiceRT,2021.1.2,Win32,59.89099838,,,,,,,,8,Ontime,h,0,1.9249,6,0,24,3,1,,,,,
,1.95,,,,,,,,,h.PNG,h,6165a8ee6dde7ff6f4b22e6f,2021-10-19_15h45.45.530,forced_choiceRT,2021.1.2,Win32,59.89099838,,,,,,,,8,Slow,j,0,2.1008,6,1,25,2,1,,,,,
,1,,,,,,,,,j.PNG,j,6165a8ee6dde7ff6f4b22e6f,2021-10-19_15h45.45.530,forced_choiceRT,2021.1.2,Win32,59.89099838,,,,,,,,8,Ontime,j,1,1.9464,6,2,26,3,1,,,,,
,0.21,,,,,,,,,g.PNG,g,6165a8ee6dde7ff6f4b22e6f,2021-10-19_15h45.45.530,forced_choiceRT,2021.1.2,Win32,59.89099838,,,,,,,,8,Ontime,g,1,2.0386,6,3,27,1,1,,,,,
,1.12,,,,,,,,,h.PNG,h,6165a8ee6dde7ff6f4b22e6f,2021-10-19_15h45.45.530,forced_choiceRT,2021.1.2,Win32,59.89099838,,,,,,,,8,Ontime,h,1,2.0428,7,0,28,2,1,,,,,
,1.02,,,,,,,,,h.PNG,h,6165a8ee6dde7ff6f4b22e6f,2021-10-19_15h45.45.530,forced_choiceRT,2021.1.2,Win32,59.89099838,,,,,,,,8,Ontime,h,1,1.973,7,1,29,2,1,,,,,
,1.98,,,,,,,,,j.PNG,j,6165a8ee6dde7ff6f4b22e6f,2021-10-19_15h45.45.530,forced_choiceRT,2021.1.2,Win32,59.89099838,,,,,,,,8,Ontime,h,0,2.0954,7,2,30,3,1,,,,,
,1,,,,,,,,,j.PNG,j,6165a8ee6dde7ff6f4b22e6f,2021-10-19_15h45.45.530,forced_choiceRT,2021.1.2,Win32,59.89099838,,,,,,,,8,Ontime,j,1,1.9906,7,3,31,3,1,,,,,
,1.49,,,,,,,,,j.PNG,j,6165a8ee6dde7ff6f4b22e6f,2021-10-19_15h45.45.530,forced_choiceRT,2021.1.2,Win32,59.89099838,,,,,,,,8,Ontime,f,0,1.9594,8,0,32,3,1,,,,,
,0.66,,,,,,,,,f.PNG,f,6165a8ee6dde7ff6f4b22e6f,2021-10-19_15h45.45.530,forced_choiceRT,2021.1.2,Win32,59.89099838,,,,,,,,8,Ontime,f,1,1.9836,8,1,33,0,1,,,,,
,1.11,,,,,,,,,g.PNG,g,6165a8ee6dde7ff6f4b22e6f,2021-10-19_15h45.45.530,forced_choiceRT,2021.1.2,Win32,59.89099838,,,,,,,,8,Ontime,g,1,2.0837,8,2,34,1,1,,,,,
,0.93,,,,,,,,,g.PNG,g,6165a8ee6dde7ff6f4b22e6f,2021-10-19_15h45.45.530,forced_choiceRT,2021.1.2,Win32,59.89099838,,,,,,,,8,Ontime,g,1,1.9812,8,3,35,1,1,,,,,
,1.78,,,,,,,,,f.PNG,f,6165a8ee6dde7ff6f4b22e6f,2021-10-19_15h45.45.530,forced_choiceRT,2021.1.2,Win32,59.89099838,,,,,,,,8,Ontime,h,0,2.022,9,0,36,0,1,,,,,
,0.46,,,,,,,,,h.PNG,h,6165a8ee6dde7ff6f4b22e6f,2021-10-19_15h45.45.530,forced_choiceRT,2021.1.2,Win32,59.89099838,,,,,,,,8,Ontime,h,1,2.077,9,1,37,2,1,,,,,
,0.13,,,,,,,,,j.PNG,j,6165a8ee6dde7ff6f4b22e6f,2021-10-19_15h45.45.530,forced_choiceRT,2021.1.2,Win32,59.89099838,,,,,,,,8,Ontime,j,1,1.9626,9,2,38,3,1,,,,,
,0.96,,,,,,,,,h.PNG,h,6165a8ee6dde7ff6f4b22e6f,2021-10-19_15h45.45.530,forced_choiceRT,2021.1.2,Win32,59.89099838,,,,,,,,8,Ontime,h,1,2.0085,9,3,39,2,1,,,,,
,,,,,,,,,,,,6165a8ee6dde7ff6f4b22e6f,2021-10-19_15h45.45.530,forced_choiceRT,2021.1.2,Win32,59.89099838,,,,,,,,,,,,,,,,,,7,0,7,0,1
,1.03,,,,,,,,,g.PNG,g,6165a8ee6dde7ff6f4b22e6f,2021-10-19_15h45.45.530,forced_choiceRT,2021.1.2,Win32,59.89099838,,,,,,,,9,Ontime,g,1,2.0384,0,0,0,1,1,,,,,
,1.95,,,,,,,,,j.PNG,j,6165a8ee6dde7ff6f4b22e6f,2021-10-19_15h45.45.530,forced_choiceRT,2021.1.2,Win32,59.89099838,,,,,,,,9,Ontime,h,0,2.0665,0,1,1,3,1,,,,,
,1.34,,,,,,,,,f.PNG,f,6165a8ee6dde7ff6f4b22e6f,2021-10-19_15h45.45.530,forced_choiceRT,2021.1.2,Win32,59.89099838,,,,,,,,9,Ontime,f,1,1.9779,0,2,2,0,1,,,,,
,1.85,,,,,,,,,g.PNG,g,6165a8ee6dde7ff6f4b22e6f,2021-10-19_15h45.45.530,forced_choiceRT,2021.1.2,Win32,59.89099838,,,,,,,,9,Ontime,g,1,2.0834,0,3,3,1,1,,,,,
,1.59,,,,,,,,,f.PNG,f,6165a8ee6dde7ff6f4b22e6f,2021-10-19_15h45.45.530,forced_choiceRT,2021.1.2,Win32,59.89099838,,,,,,,,9,Ontime,h,0,1.9989,1,0,4,0,1,,,,,
,1.78,,,,,,,,,f.PNG,f,6165a8ee6dde7ff6f4b22e6f,2021-10-19_15h45.45.530,forced_choiceRT,2021.1.2,Win32,59.89099838,,,,,,,,9,Ontime,f,1,2.0747,1,1,5,0,1,,,,,
,0.93,,,,,,,,,h.PNG,h,6165a8ee6dde7ff6f4b22e6f,2021-10-19_15h45.45.530,forced_choiceRT,2021.1.2,Win32,59.89099838,,,,,,,,9,Ontime,h,1,1.9846,1,2,6,2,1,,,,,
,0.36,,,,,,,,,g.PNG,g,6165a8ee6dde7ff6f4b22e6f,2021-10-19_15h45.45.530,forced_choiceRT,2021.1.2,Win32,59.89099838,,,,,,,,9,Ontime,g,1,1.9737,1,3,7,1,1,,,,,
,1.49,,,,,,,,,g.PNG,g,6165a8ee6dde7ff6f4b22e6f,2021-10-19_15h45.45.530,forced_choiceRT,2021.1.2,Win32,59.89099838,,,,,,,,9,Slow,g,1,2.1254,2,0,8,1,1,,,,,
,0.31,,,,,,,,,g.PNG,g,6165a8ee6dde7ff6f4b22e6f,2021-10-19_15h45.45.530,forced_choiceRT,2021.1.2,Win32,59.89099838,,,,,,,,9,Ontime,g,1,1.9501,2,1,9,1,1,,,,,
,0.06,,,,,,,,,j.PNG,j,6165a8ee6dde7ff6f4b22e6f,2021-10-19_15h45.45.530,forced_choiceRT,2021.1.2,Win32,59.89099838,,,,,,,,9,Ontime,j,1,1.9354,2,2,10,3,1,,,,,
,0.73,,,,,,,,,g.PNG,g,6165a8ee6dde7ff6f4b22e6f,2021-10-19_15h45.45.530,forced_choiceRT,2021.1.2,Win32,59.89099838,,,,,,,,9,Ontime,g,1,1.9592,2,3,11,1,1,,,,,
,1.18,,,,,,,,,g.PNG,g,6165a8ee6dde7ff6f4b22e6f,2021-10-19_15h45.45.530,forced_choiceRT,2021.1.2,Win32,59.89099838,,,,,,,,9,Ontime,g,1,2.0254,3,0,12,1,1,,,,,
,1.45,,,,,,,,,j.PNG,j,6165a8ee6dde7ff6f4b22e6f,2021-10-19_15h45.45.530,forced_choiceRT,2021.1.2,Win32,59.89099838,,,,,,,,9,Ontime,g,0,2.0933,3,1,13,3,1,,,,,
,1.48,,,,,,,,,h.PNG,h,6165a8ee6dde7ff6f4b22e6f,2021-10-19_15h45.45.530,forced_choiceRT,2021.1.2,Win32,59.89099838,,,,,,,,9,Ontime,j,0,1.9068,3,2,14,2,1,,,,,
,1.29,,,,,,,,,f.PNG,f,6165a8ee6dde7ff6f4b22e6f,2021-10-19_15h45.45.530,forced_choiceRT,2021.1.2,Win32,59.89099838,,,,,,,,9,Ontime,f,1,1.9527,3,3,15,0,1,,,,,
,1.25,,,,,,,,,j.PNG,j,6165a8ee6dde7ff6f4b22e6f,2021-10-19_15h45.45.530,forced_choiceRT,2021.1.2,Win32,59.89099838,,,,,,,,9,Slow,j,1,2.9788,4,0,16,3,1,,,,,
,1.46,,,,,,,,,h.PNG,h,6165a8ee6dde7ff6f4b22e6f,2021-10-19_15h45.45.530,forced_choiceRT,2021.1.2,Win32,59.89099838,,,,,,,,9,Ontime,g,0,2.0159,4,1,17,2,1,,,,,
,0.1,,,,,,,,,g.PNG,g,6165a8ee6dde7ff6f4b22e6f,2021-10-19_15h45.45.530,forced_choiceRT,2021.1.2,Win32,59.89099838,,,,,,,,9,Ontime,g,1,2.0059,4,2,18,1,1,,,,,
,0.56,,,,,,,,,f.PNG,f,6165a8ee6dde7ff6f4b22e6f,2021-10-19_15h45.45.530,forced_choiceRT,2021.1.2,Win32,59.89099838,,,,,,,,9,Ontime,f,1,1.9484,4,3,19,0,1,,,,,
,1.79,,,,,,,,,j.PNG,j,6165a8ee6dde7ff6f4b22e6f,2021-10-19_15h45.45.530,forced_choiceRT,2021.1.2,Win32,59.89099838,,,,,,,,9,Ontime,f,0,2.0473,5,0,20,3,1,,,,,
,1.2,,,,,,,,,j.PNG,j,6165a8ee6dde7ff6f4b22e6f,2021-10-19_15h45.45.530,forced_choiceRT,2021.1.2,Win32,59.89099838,,,,,,,,9,Ontime,j,1,1.9667,5,1,21,3,1,,,,,
,0.87,,,,,,,,,f.PNG,f,6165a8ee6dde7ff6f4b22e6f,2021-10-19_15h45.45.530,forced_choiceRT,2021.1.2,Win32,59.89099838,,,,,,,,9,Ontime,f,1,1.9648,5,2,22,0,1,,,,,
,0.08,,,,,,,,,j.PNG,j,6165a8ee6dde7ff6f4b22e6f,2021-10-19_15h45.45.530,forced_choiceRT,2021.1.2,Win32,59.89099838,,,,,,,,9,Ontime,j,1,1.9097,5,3,23,3,1,,,,,
,0.69,,,,,,,,,f.PNG,f,6165a8ee6dde7ff6f4b22e6f,2021-10-19_15h45.45.530,forced_choiceRT,2021.1.2,Win32,59.89099838,,,,,,,,9,Ontime,f,1,1.956,6,0,24,0,1,,,,,
,0.4,,,,,,,,,h.PNG,h,6165a8ee6dde7ff6f4b22e6f,2021-10-19_15h45.45.530,forced_choiceRT,2021.1.2,Win32,59.89099838,,,,,,,,9,Ontime,h,1,2.0092,6,1,25,2,1,,,,,
,1.1,,,,,,,,,j.PNG,j,6165a8ee6dde7ff6f4b22e6f,2021-10-19_15h45.45.530,forced_choiceRT,2021.1.2,Win32,59.89099838,,,,,,,,9,Ontime,j,1,1.9843,6,2,26,3,1,,,,,
,1.23,,,,,,,,,j.PNG,j,6165a8ee6dde7ff6f4b22e6f,2021-10-19_15h45.45.530,forced_choiceRT,2021.1.2,Win32,59.89099838,,,,,,,,9,Ontime,j,1,1.9739,6,3,27,3,1,,,,,
,1.7,,,,,,,,,h.PNG,h,6165a8ee6dde7ff6f4b22e6f,2021-10-19_15h45.45.530,forced_choiceRT,2021.1.2,Win32,59.89099838,,,,,,,,9,Slow,h,1,2.1942,7,0,28,2,1,,,,,
,1.44,,,,,,,,,h.PNG,h,6165a8ee6dde7ff6f4b22e6f,2021-10-19_15h45.45.530,forced_choiceRT,2021.1.2,Win32,59.89099838,,,,,,,,9,Ontime,h,1,1.9171,7,1,29,2,1,,,,,
,1.19,,,,,,,,,h.PNG,h,6165a8ee6dde7ff6f4b22e6f,2021-10-19_15h45.45.530,forced_choiceRT,2021.1.2,Win32,59.89099838,,,,,,,,9,Fast,h,1,1.8394,7,2,30,2,1,,,,,
,0.76,,,,,,,,,f.PNG,f,6165a8ee6dde7ff6f4b22e6f,2021-10-19_15h45.45.530,forced_choiceRT,2021.1.2,Win32,59.89099838,,,,,,,,9,Ontime,f,1,1.9476,7,3,31,0,1,,,,,
,1.02,,,,,,,,,g.PNG,g,6165a8ee6dde7ff6f4b22e6f,2021-10-19_15h45.45.530,forced_choiceRT,2021.1.2,Win32,59.89099838,,,,,,,,9,Ontime,g,1,2.0492,8,0,32,1,1,,,,,
,1.44,,,,,,,,,h.PNG,h,6165a8ee6dde7ff6f4b22e6f,2021-10-19_15h45.45.530,forced_choiceRT,2021.1.2,Win32,59.89099838,,,,,,,,9,Ontime,h,1,2.0918,8,1,33,2,1,,,,,
,0.37,,,,,,,,,h.PNG,h,6165a8ee6dde7ff6f4b22e6f,2021-10-19_15h45.45.530,forced_choiceRT,2021.1.2,Win32,59.89099838,,,,,,,,9,Ontime,h,1,1.9506,8,2,34,2,1,,,,,
,1.74,,,,,,,,,g.PNG,g,6165a8ee6dde7ff6f4b22e6f,2021-10-19_15h45.45.530,forced_choiceRT,2021.1.2,Win32,59.89099838,,,,,,,,9,Ontime,g,1,2.0225,8,3,35,1,1,,,,,
,1.24,,,,,,,,,f.PNG,f,6165a8ee6dde7ff6f4b22e6f,2021-10-19_15h45.45.530,forced_choiceRT,2021.1.2,Win32,59.89099838,,,,,,,,9,Ontime,f,1,1.9714,9,0,36,0,1,,,,,
,1.94,,,,,,,,,j.PNG,j,6165a8ee6dde7ff6f4b22e6f,2021-10-19_15h45.45.530,forced_choiceRT,2021.1.2,Win32,59.89099838,,,,,,,,9,Ontime,f,0,2.0979,9,1,37,3,1,,,,,
,1.29,,,,,,,,,f.PNG,f,6165a8ee6dde7ff6f4b22e6f,2021-10-19_15h45.45.530,forced_choiceRT,2021.1.2,Win32,59.89099838,,,,,,,,9,Ontime,f,1,1.9934,9,2,38,0,1,,,,,
,0.33,,,,,,,,,h.PNG,h,6165a8ee6dde7ff6f4b22e6f,2021-10-19_15h45.45.530,forced_choiceRT,2021.1.2,Win32,59.89099838,,,,,,,,9,Ontime,h,1,2.0324,9,3,39,2,1,,,,,
,,,,,,,,,,,,6165a8ee6dde7ff6f4b22e6f,2021-10-19_15h45.45.530,forced_choiceRT,2021.1.2,Win32,59.89099838,,,,,,,,,,,,,,,,,,8,0,8,0,1
,1.2,,,,,,,,,g.PNG,g,6165a8ee6dde7ff6f4b22e6f,2021-10-19_15h45.45.530,forced_choiceRT,2021.1.2,Win32,59.89099838,,,,,,,,10,Slow,g,1,2.1077,0,0,0,1,1,,,,,
,0.42,,,,,,,,,h.PNG,h,6165a8ee6dde7ff6f4b22e6f,2021-10-19_15h45.45.530,forced_choiceRT,2021.1.2,Win32,59.89099838,,,,,,,,10,Ontime,h,1,1.9218,0,1,1,2,1,,,,,
,1.69,,,,,,,,,f.PNG,f,6165a8ee6dde7ff6f4b22e6f,2021-10-19_15h45.45.530,forced_choiceRT,2021.1.2,Win32,59.89099838,,,,,,,,10,Ontime,f,1,1.9748,0,2,2,0,1,,,,,
,1.81,,,,,,,,,g.PNG,g,6165a8ee6dde7ff6f4b22e6f,2021-10-19_15h45.45.530,forced_choiceRT,2021.1.2,Win32,59.89099838,,,,,,,,10,Ontime,g,1,2.025,0,3,3,1,1,,,,,
,0.9,,,,,,,,,f.PNG,f,6165a8ee6dde7ff6f4b22e6f,2021-10-19_15h45.45.530,forced_choiceRT,2021.1.2,Win32,59.89099838,,,,,,,,10,Ontime,f,1,2.0358,1,0,4,0,1,,,,,
,0.35,,,,,,,,,j.PNG,j,6165a8ee6dde7ff6f4b22e6f,2021-10-19_15h45.45.530,forced_choiceRT,2021.1.2,Win32,59.89099838,,,,,,,,10,Ontime,j,1,1.9646,1,1,5,3,1,,,,,
,1.31,,,,,,,,,g.PNG,g,6165a8ee6dde7ff6f4b22e6f,2021-10-19_15h45.45.530,forced_choiceRT,2021.1.2,Win32,59.89099838,,,,,,,,10,Ontime,g,1,2.0038,1,2,6,1,1,,,,,
,1.27,,,,,,,,,g.PNG,g,6165a8ee6dde7ff6f4b22e6f,2021-10-19_15h45.45.530,forced_choiceRT,2021.1.2,Win32,59.89099838,,,,,,,,10,Ontime,g,1,1.9845,1,3,7,1,1,,,,,
,0.61,,,,,,,,,h.PNG,h,6165a8ee6dde7ff6f4b22e6f,2021-10-19_15h45.45.530,forced_choiceRT,2021.1.2,Win32,59.89099838,,,,,,,,10,Ontime,h,1,2.0316,2,0,8,2,1,,,,,
,0.09,,,,,,,,,j.PNG,j,6165a8ee6dde7ff6f4b22e6f,2021-10-19_15h45.45.530,forced_choiceRT,2021.1.2,Win32,59.89099838,,,,,,,,10,Ontime,j,1,1.9185,2,1,9,3,1,,,,,
,1.21,,,,,,,,,f.PNG,f,6165a8ee6dde7ff6f4b22e6f,2021-10-19_15h45.45.530,forced_choiceRT,2021.1.2,Win32,59.89099838,,,,,,,,10,Ontime,f,1,1.9623,2,2,10,0,1,,,,,
,1.58,,,,,,,,,g.PNG,g,6165a8ee6dde7ff6f4b22e6f,2021-10-19_15h45.45.530,forced_choiceRT,2021.1.2,Win32,59.89099838,,,,,,,,10,Ontime,f,0,2.0793,2,3,11,1,1,,,,,
,0.44,,,,,,,,,g.PNG,g,6165a8ee6dde7ff6f4b22e6f,2021-10-19_15h45.45.530,forced_choiceRT,2021.1.2,Win32,59.89099838,,,,,,,,10,Ontime,g,1,1.9657,3,0,12,1,1,,,,,
,1.43,,,,,,,,,h.PNG,h,6165a8ee6dde7ff6f4b22e6f,2021-10-19_15h45.45.530,forced_choiceRT,2021.1.2,Win32,59.89099838,,,,,,,,10,Ontime,f,0,1.9559,3,1,13,2,1,,,,,
,1.68,,,,,,,,,g.PNG,g,6165a8ee6dde7ff6f4b22e6f,2021-10-19_15h45.45.530,forced_choiceRT,2021.1.2,Win32,59.89099838,,,,,,,,10,Ontime,h,0,1.9717,3,2,14,1,1,,,,,
,1.19,,,,,,,,,f.PNG,f,6165a8ee6dde7ff6f4b22e6f,2021-10-19_15h45.45.530,forced_choiceRT,2021.1.2,Win32,59.89099838,,,,,,,,10,Ontime,f,1,2.0416,3,3,15,0,1,,,,,
,1.18,,,,,,,,,j.PNG,j,6165a8ee6dde7ff6f4b22e6f,2021-10-19_15h45.45.530,forced_choiceRT,2021.1.2,Win32,59.89099838,,,,,,,,10,Ontime,j,1,2.0437,4,0,16,3,1,,,,,
,1.79,,,,,,,,,h.PNG,h,6165a8ee6dde7ff6f4b22e6f,2021-10-19_15h45.45.530,forced_choiceRT,2021.1.2,Win32,59.89099838,,,,,,,,10,Ontime,f,0,2.0156,4,1,17,2,1,,,,,
,1.92,,,,,,,,,h.PNG,h,6165a8ee6dde7ff6f4b22e6f,2021-10-19_15h45.45.530,forced_choiceRT,2021.1.2,Win32,59.89099838,,,,,,,,10,Ontime,h,1,2.0743,4,2,18,2,1,,,,,
,0.06,,,,,,,,,f.PNG,f,6165a8ee6dde7ff6f4b22e6f,2021-10-19_15h45.45.530,forced_choiceRT,2021.1.2,Win32,59.89099838,,,,,,,,10,Ontime,f,1,1.95,4,3,19,0,1,,,,,
,1.28,,,,,,,,,h.PNG,h,6165a8ee6dde7ff6f4b22e6f,2021-10-19_15h45.45.530,forced_choiceRT,2021.1.2,Win32,59.89099838,,,,,,,,10,Ontime,h,1,2.0343,5,0,20,2,1,,,,,
,0.15,,,,,,,,,f.PNG,f,6165a8ee6dde7ff6f4b22e6f,2021-10-19_15h45.45.530,forced_choiceRT,2021.1.2,Win32,59.89099838,,,,,,,,10,Ontime,f,1,1.9047,5,1,21,0,1,,,,,
,0.64,,,,,,,,,f.PNG,f,6165a8ee6dde7ff6f4b22e6f,2021-10-19_15h45.45.530,forced_choiceRT,2021.1.2,Win32,59.89099838,,,,,,,,10,Ontime,f,1,1.9788,5,2,22,0,1,,,,,
,1.95,,,,,,,,,h.PNG,h,6165a8ee6dde7ff6f4b22e6f,2021-10-19_15h45.45.530,forced_choiceRT,2021.1.2,Win32,59.89099838,,,,,,,,10,Ontime,g,0,2.0904,5,3,23,2,1,,,,,
,1.27,,,,,,,,,j.PNG,j,6165a8ee6dde7ff6f4b22e6f,2021-10-19_15h45.45.530,forced_choiceRT,2021.1.2,Win32,59.89099838,,,,,,,,10,Ontime,j,1,2.0797,6,0,24,3,1,,,,,
,1.25,,,,,,,,,j.PNG,j,6165a8ee6dde7ff6f4b22e6f,2021-10-19_15h45.45.530,forced_choiceRT,2021.1.2,Win32,59.89099838,,,,,,,,10,Ontime,j,1,2.0261,6,1,25,3,1,,,,,
,1.39,,,,,,,,,h.PNG,h,6165a8ee6dde7ff6f4b22e6f,2021-10-19_15h45.45.530,forced_choiceRT,2021.1.2,Win32,59.89099838,,,,,,,,10,Ontime,h,1,2.0514,6,2,26,2,1,,,,,
,1.91,,,,,,,,,f.PNG,f,6165a8ee6dde7ff6f4b22e6f,2021-10-19_15h45.45.530,forced_choiceRT,2021.1.2,Win32,59.89099838,,,,,,,,10,Fast,f,1,1.8775,6,3,27,0,1,,,,,
,0.76,,,,,,,,,j.PNG,j,6165a8ee6dde7ff6f4b22e6f,2021-10-19_15h45.45.530,forced_choiceRT,2021.1.2,Win32,59.89099838,,,,,,,,10,Ontime,j,1,1.9669,7,0,28,3,1,,,,,
,0.41,,,,,,,,,f.PNG,f,6165a8ee6dde7ff6f4b22e6f,2021-10-19_15h45.45.530,forced_choiceRT,2021.1.2,Win32,59.89099838,,,,,,,,10,Fast,f,1,1.8483,7,1,29,0,1,,,,,
,1.58,,,,,,,,,g.PNG,g,6165a8ee6dde7ff6f4b22e6f,2021-10-19_15h45.45.530,forced_choiceRT,2021.1.2,Win32,59.89099838,,,,,,,,10,Ontime,f,0,2.0193,7,2,30,1,1,,,,,
,1.89,,,,,,,,,g.PNG,g,6165a8ee6dde7ff6f4b22e6f,2021-10-19_15h45.45.530,forced_choiceRT,2021.1.2,Win32,59.89099838,,,,,,,,10,Slow,f,0,2.1331,7,3,31,1,1,,,,,
,1.99,,,,,,,,,h.PNG,h,6165a8ee6dde7ff6f4b22e6f,2021-10-19_15h45.45.530,forced_choiceRT,2021.1.2,Win32,59.89099838,,,,,,,,10,Ontime,f,0,2.0567,8,0,32,2,1,,,,,
,1.21,,,,,,,,,j.PNG,j,6165a8ee6dde7ff6f4b22e6f,2021-10-19_15h45.45.530,forced_choiceRT,2021.1.2,Win32,59.89099838,,,,,,,,10,Ontime,j,1,1.9847,8,1,33,3,1,,,,,
,0.96,,,,,,,,,j.PNG,j,6165a8ee6dde7ff6f4b22e6f,2021-10-19_15h45.45.530,forced_choiceRT,2021.1.2,Win32,59.89099838,,,,,,,,10,Ontime,j,1,2.0754,8,2,34,3,1,,,,,
,1.29,,,,,,,,,j.PNG,j,6165a8ee6dde7ff6f4b22e6f,2021-10-19_15h45.45.530,forced_choiceRT,2021.1.2,Win32,59.89099838,,,,,,,,10,Ontime,j,1,1.9456,8,3,35,3,1,,,,,
,0.68,,,,,,,,,g.PNG,g,6165a8ee6dde7ff6f4b22e6f,2021-10-19_15h45.45.530,forced_choiceRT,2021.1.2,Win32,59.89099838,,,,,,,,10,Ontime,g,1,2.0172,9,0,36,1,1,,,,,
,0.15,,,,,,,,,j.PNG,j,6165a8ee6dde7ff6f4b22e6f,2021-10-19_15h45.45.530,forced_choiceRT,2021.1.2,Win32,59.89099838,,,,,,,,10,Ontime,j,1,1.9731,9,1,37,3,1,,,,,
,0.34,,,,,,,,,h.PNG,h,6165a8ee6dde7ff6f4b22e6f,2021-10-19_15h45.45.530,forced_choiceRT,2021.1.2,Win32,59.89099838,,,,,,,,10,Ontime,h,1,2.0343,9,2,38,2,1,,,,,
,1.83,,,,,,,,,f.PNG,f,6165a8ee6dde7ff6f4b22e6f,2021-10-19_15h45.45.530,forced_choiceRT,2021.1.2,Win32,59.89099838,,,,,,,,10,Slow,f,1,2.1079,9,3,39,0,1,,,,,
,,,,,,,,,,,,6165a8ee6dde7ff6f4b22e6f,2021-10-19_15h45.45.530,forced_choiceRT,2021.1.2,Win32,59.89099838,,,,,,,,,,,,,,,,,,9,0,9,0,1
