IP_Addresss,target_onset,trial_resp_sp.keys,trial_resp_sp.corr,trial_resp_sp.rt,trials_train_loop.thisRepN,trials_train_loop.thisTrialN,trials_train_loop.thisN,trials_train_loop.thisIndex,trials_train_loop.ran,correct_key,color,participant,date,expName,psychopyVersion,OS,frameRate,trial_resp_timing.keys,trial_resp_timing.rt,trials_train_timing.thisRepN,trials_train_timing.thisTrialN,trials_train_timing.thisN,trials_train_timing.thisIndex,trials_train_timing.ran,block_id,ontime,feedback_cond,forcedRT_resp.keys,forcedRT_resp.corr,forcedRT_resp.rt,trials.thisRepN,trials.thisTrialN,trials.thisN,trials.thisIndex,trials.ran,blocks.thisRepN,blocks.thisTrialN,blocks.thisN,blocks.thisIndex,blocks.ran
71.57.81.230,0,j,1,1.87,0,0,0,2,1,j,red,558812eefdf99b14f004b722,2021-09-27_16h11.00.912,forced_choiceRT_color,2021.2.3,Win32,30.0120048,,,,,,,,,,,,,,,,,,,,,,,
,0,k,1,14.996,0,1,1,3,1,k,purple,558812eefdf99b14f004b722,2021-09-27_16h11.00.912,forced_choiceRT_color,2021.2.3,Win32,30.0120048,,,,,,,,,,,,,,,,,,,,,,,
,0,j,1,35.872,0,2,2,2,1,j,red,558812eefdf99b14f004b722,2021-09-27_16h11.00.912,forced_choiceRT_color,2021.2.3,Win32,30.0120048,,,,,,,,,,,,,,,,,,,,,,,
,0,f,1,1.372,0,3,3,1,1,f,blue,558812eefdf99b14f004b722,2021-09-27_16h11.00.912,forced_choiceRT_color,2021.2.3,Win32,30.0120048,,,,,,,,,,,,,,,,,,,,,,,
,0,k,1,0.948,1,0,4,3,1,k,purple,558812eefdf99b14f004b722,2021-09-27_16h11.00.912,forced_choiceRT_color,2021.2.3,Win32,30.0120048,,,,,,,,,,,,,,,,,,,,,,,
,0,j,1,1.308,1,1,5,2,1,j,red,558812eefdf99b14f004b722,2021-09-27_16h11.00.912,forced_choiceRT_color,2021.2.3,Win32,30.0120048,,,,,,,,,,,,,,,,,,,,,,,
,0,d,1,0.829,1,2,6,0,1,d,orange,558812eefdf99b14f004b722,2021-09-27_16h11.00.912,forced_choiceRT_color,2021.2.3,Win32,30.0120048,,,,,,,,,,,,,,,,,,,,,,,
,0,k,1,0.989,1,3,7,3,1,k,purple,558812eefdf99b14f004b722,2021-09-27_16h11.00.912,forced_choiceRT_color,2021.2.3,Win32,30.0120048,,,,,,,,,,,,,,,,,,,,,,,
,0,f,1,1.919,2,0,8,1,1,f,blue,558812eefdf99b14f004b722,2021-09-27_16h11.00.912,forced_choiceRT_color,2021.2.3,Win32,30.0120048,,,,,,,,,,,,,,,,,,,,,,,
,0,d,1,0.761,2,1,9,0,1,d,orange,558812eefdf99b14f004b722,2021-09-27_16h11.00.912,forced_choiceRT_color,2021.2.3,Win32,30.0120048,,,,,,,,,,,,,,,,,,,,,,,
,0,f,1,1.193,2,2,10,1,1,f,blue,558812eefdf99b14f004b722,2021-09-27_16h11.00.912,forced_choiceRT_color,2021.2.3,Win32,30.0120048,,,,,,,,,,,,,,,,,,,,,,,
,0,f,1,2.476,2,3,11,1,1,f,blue,558812eefdf99b14f004b722,2021-09-27_16h11.00.912,forced_choiceRT_color,2021.2.3,Win32,30.0120048,,,,,,,,,,,,,,,,,,,,,,,
,0,k,1,0.929,3,0,12,3,1,k,purple,558812eefdf99b14f004b722,2021-09-27_16h11.00.912,forced_choiceRT_color,2021.2.3,Win32,30.0120048,,,,,,,,,,,,,,,,,,,,,,,
,0,d,1,0.773,3,1,13,0,1,d,orange,558812eefdf99b14f004b722,2021-09-27_16h11.00.912,forced_choiceRT_color,2021.2.3,Win32,30.0120048,,,,,,,,,,,,,,,,,,,,,,,
,0,j,1,0.953,3,2,14,2,1,j,red,558812eefdf99b14f004b722,2021-09-27_16h11.00.912,forced_choiceRT_color,2021.2.3,Win32,30.0120048,,,,,,,,,,,,,,,,,,,,,,,
,0,d,1,1.003,3,3,15,0,1,d,orange,558812eefdf99b14f004b722,2021-09-27_16h11.00.912,forced_choiceRT_color,2021.2.3,Win32,30.0120048,,,,,,,,,,,,,,,,,,,,,,,
,0,f,1,0.898,4,0,16,1,1,f,blue,558812eefdf99b14f004b722,2021-09-27_16h11.00.912,forced_choiceRT_color,2021.2.3,Win32,30.0120048,,,,,,,,,,,,,,,,,,,,,,,
,0,j,1,1.486,4,1,17,2,1,j,red,558812eefdf99b14f004b722,2021-09-27_16h11.00.912,forced_choiceRT_color,2021.2.3,Win32,30.0120048,,,,,,,,,,,,,,,,,,,,,,,
,0,j,1,0.587,4,2,18,2,1,j,red,558812eefdf99b14f004b722,2021-09-27_16h11.00.912,forced_choiceRT_color,2021.2.3,Win32,30.0120048,,,,,,,,,,,,,,,,,,,,,,,
,0,k,1,0.801,4,3,19,3,1,k,purple,558812eefdf99b14f004b722,2021-09-27_16h11.00.912,forced_choiceRT_color,2021.2.3,Win32,30.0120048,,,,,,,,,,,,,,,,,,,,,,,
,0,k,1,0.684,5,0,20,3,1,k,purple,558812eefdf99b14f004b722,2021-09-27_16h11.00.912,forced_choiceRT_color,2021.2.3,Win32,30.0120048,,,,,,,,,,,,,,,,,,,,,,,
,0,f,1,0.888,5,1,21,1,1,f,blue,558812eefdf99b14f004b722,2021-09-27_16h11.00.912,forced_choiceRT_color,2021.2.3,Win32,30.0120048,,,,,,,,,,,,,,,,,,,,,,,
,0,j,1,0.676,5,2,22,2,1,j,red,558812eefdf99b14f004b722,2021-09-27_16h11.00.912,forced_choiceRT_color,2021.2.3,Win32,30.0120048,,,,,,,,,,,,,,,,,,,,,,,
,0,d,1,0.522,5,3,23,0,1,d,orange,558812eefdf99b14f004b722,2021-09-27_16h11.00.912,forced_choiceRT_color,2021.2.3,Win32,30.0120048,,,,,,,,,,,,,,,,,,,,,,,
,0,j,1,0.772,6,0,24,2,1,j,red,558812eefdf99b14f004b722,2021-09-27_16h11.00.912,forced_choiceRT_color,2021.2.3,Win32,30.0120048,,,,,,,,,,,,,,,,,,,,,,,
,0,k,1,0.819,6,1,25,3,1,k,purple,558812eefdf99b14f004b722,2021-09-27_16h11.00.912,forced_choiceRT_color,2021.2.3,Win32,30.0120048,,,,,,,,,,,,,,,,,,,,,,,
,0,d,1,0.766,6,2,26,0,1,d,orange,558812eefdf99b14f004b722,2021-09-27_16h11.00.912,forced_choiceRT_color,2021.2.3,Win32,30.0120048,,,,,,,,,,,,,,,,,,,,,,,
,0,k,1,0.675,6,3,27,3,1,k,purple,558812eefdf99b14f004b722,2021-09-27_16h11.00.912,forced_choiceRT_color,2021.2.3,Win32,30.0120048,,,,,,,,,,,,,,,,,,,,,,,
,0,j,1,0.769,7,0,28,2,1,j,red,558812eefdf99b14f004b722,2021-09-27_16h11.00.912,forced_choiceRT_color,2021.2.3,Win32,30.0120048,,,,,,,,,,,,,,,,,,,,,,,
,0,f,1,0.725,7,1,29,1,1,f,blue,558812eefdf99b14f004b722,2021-09-27_16h11.00.912,forced_choiceRT_color,2021.2.3,Win32,30.0120048,,,,,,,,,,,,,,,,,,,,,,,
,0,j,1,0.895,7,2,30,2,1,j,red,558812eefdf99b14f004b722,2021-09-27_16h11.00.912,forced_choiceRT_color,2021.2.3,Win32,30.0120048,,,,,,,,,,,,,,,,,,,,,,,
,0,d,1,0.718,7,3,31,0,1,d,orange,558812eefdf99b14f004b722,2021-09-27_16h11.00.912,forced_choiceRT_color,2021.2.3,Win32,30.0120048,,,,,,,,,,,,,,,,,,,,,,,
,0,f,1,0.892,8,0,32,1,1,f,blue,558812eefdf99b14f004b722,2021-09-27_16h11.00.912,forced_choiceRT_color,2021.2.3,Win32,30.0120048,,,,,,,,,,,,,,,,,,,,,,,
,0,k,1,1.475,8,1,33,3,1,k,purple,558812eefdf99b14f004b722,2021-09-27_16h11.00.912,forced_choiceRT_color,2021.2.3,Win32,30.0120048,,,,,,,,,,,,,,,,,,,,,,,
,0,j,1,0.713,8,2,34,2,1,j,red,558812eefdf99b14f004b722,2021-09-27_16h11.00.912,forced_choiceRT_color,2021.2.3,Win32,30.0120048,,,,,,,,,,,,,,,,,,,,,,,
,0,k,1,0.772,8,3,35,3,1,k,purple,558812eefdf99b14f004b722,2021-09-27_16h11.00.912,forced_choiceRT_color,2021.2.3,Win32,30.0120048,,,,,,,,,,,,,,,,,,,,,,,
,0,j,1,0.777,9,0,36,2,1,j,red,558812eefdf99b14f004b722,2021-09-27_16h11.00.912,forced_choiceRT_color,2021.2.3,Win32,30.0120048,,,,,,,,,,,,,,,,,,,,,,,
,0,f,1,1.37,9,1,37,1,1,f,blue,558812eefdf99b14f004b722,2021-09-27_16h11.00.912,forced_choiceRT_color,2021.2.3,Win32,30.0120048,,,,,,,,,,,,,,,,,,,,,,,
,0,f,1,0.583,9,2,38,1,1,f,blue,558812eefdf99b14f004b722,2021-09-27_16h11.00.912,forced_choiceRT_color,2021.2.3,Win32,30.0120048,,,,,,,,,,,,,,,,,,,,,,,
,0,d,1,0.524,9,3,39,0,1,d,orange,558812eefdf99b14f004b722,2021-09-27_16h11.00.912,forced_choiceRT_color,2021.2.3,Win32,30.0120048,,,,,,,,,,,,,,,,,,,,,,,
,0,d,1,0.909,10,0,40,0,1,d,orange,558812eefdf99b14f004b722,2021-09-27_16h11.00.912,forced_choiceRT_color,2021.2.3,Win32,30.0120048,,,,,,,,,,,,,,,,,,,,,,,
,0,f,1,1.011,10,1,41,1,1,f,blue,558812eefdf99b14f004b722,2021-09-27_16h11.00.912,forced_choiceRT_color,2021.2.3,Win32,30.0120048,,,,,,,,,,,,,,,,,,,,,,,
,0,k,1,0.87,10,2,42,3,1,k,purple,558812eefdf99b14f004b722,2021-09-27_16h11.00.912,forced_choiceRT_color,2021.2.3,Win32,30.0120048,,,,,,,,,,,,,,,,,,,,,,,
,0,f,1,1.051,10,3,43,1,1,f,blue,558812eefdf99b14f004b722,2021-09-27_16h11.00.912,forced_choiceRT_color,2021.2.3,Win32,30.0120048,,,,,,,,,,,,,,,,,,,,,,,
,0,d,1,0.78,11,0,44,0,1,d,orange,558812eefdf99b14f004b722,2021-09-27_16h11.00.912,forced_choiceRT_color,2021.2.3,Win32,30.0120048,,,,,,,,,,,,,,,,,,,,,,,
,0,f,1,0.818,11,1,45,1,1,f,blue,558812eefdf99b14f004b722,2021-09-27_16h11.00.912,forced_choiceRT_color,2021.2.3,Win32,30.0120048,,,,,,,,,,,,,,,,,,,,,,,
,0,j,1,0.475,11,2,46,2,1,j,red,558812eefdf99b14f004b722,2021-09-27_16h11.00.912,forced_choiceRT_color,2021.2.3,Win32,30.0120048,,,,,,,,,,,,,,,,,,,,,,,
,0,f,1,0.754,11,3,47,1,1,f,blue,558812eefdf99b14f004b722,2021-09-27_16h11.00.912,forced_choiceRT_color,2021.2.3,Win32,30.0120048,,,,,,,,,,,,,,,,,,,,,,,
,0,j,1,0.699,12,0,48,2,1,j,red,558812eefdf99b14f004b722,2021-09-27_16h11.00.912,forced_choiceRT_color,2021.2.3,Win32,30.0120048,,,,,,,,,,,,,,,,,,,,,,,
,0,d,1,0.773,12,1,49,0,1,d,orange,558812eefdf99b14f004b722,2021-09-27_16h11.00.912,forced_choiceRT_color,2021.2.3,Win32,30.0120048,,,,,,,,,,,,,,,,,,,,,,,
,0,j,1,0.865,12,2,50,2,1,j,red,558812eefdf99b14f004b722,2021-09-27_16h11.00.912,forced_choiceRT_color,2021.2.3,Win32,30.0120048,,,,,,,,,,,,,,,,,,,,,,,
,0,k,1,0.637,12,3,51,3,1,k,purple,558812eefdf99b14f004b722,2021-09-27_16h11.00.912,forced_choiceRT_color,2021.2.3,Win32,30.0120048,,,,,,,,,,,,,,,,,,,,,,,
,0,d,1,0.811,13,0,52,0,1,d,orange,558812eefdf99b14f004b722,2021-09-27_16h11.00.912,forced_choiceRT_color,2021.2.3,Win32,30.0120048,,,,,,,,,,,,,,,,,,,,,,,
,0,k,1,0.775,13,1,53,3,1,k,purple,558812eefdf99b14f004b722,2021-09-27_16h11.00.912,forced_choiceRT_color,2021.2.3,Win32,30.0120048,,,,,,,,,,,,,,,,,,,,,,,
,0,k,1,0.529,13,2,54,3,1,k,purple,558812eefdf99b14f004b722,2021-09-27_16h11.00.912,forced_choiceRT_color,2021.2.3,Win32,30.0120048,,,,,,,,,,,,,,,,,,,,,,,
,0,d,1,0.577,13,3,55,0,1,d,orange,558812eefdf99b14f004b722,2021-09-27_16h11.00.912,forced_choiceRT_color,2021.2.3,Win32,30.0120048,,,,,,,,,,,,,,,,,,,,,,,
,0,d,1,0.526,14,0,56,0,1,d,orange,558812eefdf99b14f004b722,2021-09-27_16h11.00.912,forced_choiceRT_color,2021.2.3,Win32,30.0120048,,,,,,,,,,,,,,,,,,,,,,,
,0,k,1,0.627,14,1,57,3,1,k,purple,558812eefdf99b14f004b722,2021-09-27_16h11.00.912,forced_choiceRT_color,2021.2.3,Win32,30.0120048,,,,,,,,,,,,,,,,,,,,,,,
,0,d,1,0.646,14,2,58,0,1,d,orange,558812eefdf99b14f004b722,2021-09-27_16h11.00.912,forced_choiceRT_color,2021.2.3,Win32,30.0120048,,,,,,,,,,,,,,,,,,,,,,,
,0,f,1,0.71,14,3,59,1,1,f,blue,558812eefdf99b14f004b722,2021-09-27_16h11.00.912,forced_choiceRT_color,2021.2.3,Win32,30.0120048,,,,,,,,,,,,,,,,,,,,,,,
,,,,,,,,,,,,558812eefdf99b14f004b722,2021-09-27_16h11.00.912,forced_choiceRT_color,2021.2.3,Win32,30.0120048,j,2.299,0,0,0,0,1,,,,,,,,,,,,,,,,
,,,,,,,,,,,,558812eefdf99b14f004b722,2021-09-27_16h11.00.912,forced_choiceRT_color,2021.2.3,Win32,30.0120048,j,2.195,1,0,1,0,1,,,,,,,,,,,,,,,,
,,,,,,,,,,,,558812eefdf99b14f004b722,2021-09-27_16h11.00.912,forced_choiceRT_color,2021.2.3,Win32,30.0120048,j,2.027,2,0,2,0,1,,,,,,,,,,,,,,,,
,,,,,,,,,,,,558812eefdf99b14f004b722,2021-09-27_16h11.00.912,forced_choiceRT_color,2021.2.3,Win32,30.0120048,j,2.061,3,0,3,0,1,,,,,,,,,,,,,,,,
,,,,,,,,,,,,558812eefdf99b14f004b722,2021-09-27_16h11.00.912,forced_choiceRT_color,2021.2.3,Win32,30.0120048,j,2.102,4,0,4,0,1,,,,,,,,,,,,,,,,
,,,,,,,,,,,,558812eefdf99b14f004b722,2021-09-27_16h11.00.912,forced_choiceRT_color,2021.2.3,Win32,30.0120048,j,2.069,5,0,5,0,1,,,,,,,,,,,,,,,,
,,,,,,,,,,,,558812eefdf99b14f004b722,2021-09-27_16h11.00.912,forced_choiceRT_color,2021.2.3,Win32,30.0120048,j,2.05,6,0,6,0,1,,,,,,,,,,,,,,,,
,,,,,,,,,,,,558812eefdf99b14f004b722,2021-09-27_16h11.00.912,forced_choiceRT_color,2021.2.3,Win32,30.0120048,j,1.991,7,0,7,0,1,,,,,,,,,,,,,,,,
,,,,,,,,,,,,558812eefdf99b14f004b722,2021-09-27_16h11.00.912,forced_choiceRT_color,2021.2.3,Win32,30.0120048,j,2.11,8,0,8,0,1,,,,,,,,,,,,,,,,
,,,,,,,,,,,,558812eefdf99b14f004b722,2021-09-27_16h11.00.912,forced_choiceRT_color,2021.2.3,Win32,30.0120048,j,2.099,9,0,9,0,1,,,,,,,,,,,,,,,,
,,,,,,,,,,,,558812eefdf99b14f004b722,2021-09-27_16h11.00.912,forced_choiceRT_color,2021.2.3,Win32,30.0120048,j,2.004,10,0,10,0,1,,,,,,,,,,,,,,,,
,,,,,,,,,,,,558812eefdf99b14f004b722,2021-09-27_16h11.00.912,forced_choiceRT_color,2021.2.3,Win32,30.0120048,j,1.979,11,0,11,0,1,,,,,,,,,,,,,,,,
,,,,,,,,,,,,558812eefdf99b14f004b722,2021-09-27_16h11.00.912,forced_choiceRT_color,2021.2.3,Win32,30.0120048,j,2.044,12,0,12,0,1,,,,,,,,,,,,,,,,
,,,,,,,,,,,,558812eefdf99b14f004b722,2021-09-27_16h11.00.912,forced_choiceRT_color,2021.2.3,Win32,30.0120048,j,2.079,13,0,13,0,1,,,,,,,,,,,,,,,,
,,,,,,,,,,,,558812eefdf99b14f004b722,2021-09-27_16h11.00.912,forced_choiceRT_color,2021.2.3,Win32,30.0120048,d,2.056,14,0,14,0,1,,,,,,,,,,,,,,,,
,,,,,,,,,,,,558812eefdf99b14f004b722,2021-09-27_16h11.00.912,forced_choiceRT_color,2021.2.3,Win32,30.0120048,f,2.067,15,0,15,0,1,,,,,,,,,,,,,,,,
,,,,,,,,,,,,558812eefdf99b14f004b722,2021-09-27_16h11.00.912,forced_choiceRT_color,2021.2.3,Win32,30.0120048,k,2.052,16,0,16,0,1,,,,,,,,,,,,,,,,
,,,,,,,,,,,,558812eefdf99b14f004b722,2021-09-27_16h11.00.912,forced_choiceRT_color,2021.2.3,Win32,30.0120048,k,2.151,17,0,17,0,1,,,,,,,,,,,,,,,,
,,,,,,,,,,,,558812eefdf99b14f004b722,2021-09-27_16h11.00.912,forced_choiceRT_color,2021.2.3,Win32,30.0120048,k,2.064,18,0,18,0,1,,,,,,,,,,,,,,,,
,,,,,,,,,,,,558812eefdf99b14f004b722,2021-09-27_16h11.00.912,forced_choiceRT_color,2021.2.3,Win32,30.0120048,k,2.181,19,0,19,0,1,,,,,,,,,,,,,,,,
,1.81,,,,,,,,,d,orange,558812eefdf99b14f004b722,2021-09-27_16h11.00.912,forced_choiceRT_color,2021.2.3,Win32,30.0120048,,,,,,,,1,Ontime,short,k,0,2.057,0,0,0,0,1,,,,,
,1.1,,,,,,,,,k,purple,558812eefdf99b14f004b722,2021-09-27_16h11.00.912,forced_choiceRT_color,2021.2.3,Win32,30.0120048,,,,,,,,1,Slow,short,k,1,2.148,0,1,1,3,1,,,,,
,1.88,,,,,,,,,k,purple,558812eefdf99b14f004b722,2021-09-27_16h11.00.912,forced_choiceRT_color,2021.2.3,Win32,30.0120048,,,,,,,,1,Slow,short,d,0,2.352,0,2,2,3,1,,,,,
,1.1,,,,,,,,,d,orange,558812eefdf99b14f004b722,2021-09-27_16h11.00.912,forced_choiceRT_color,2021.2.3,Win32,30.0120048,,,,,,,,1,Ontime,short,d,1,2.03,0,3,3,0,1,,,,,
,1.72,,,,,,,,,f,blue,558812eefdf99b14f004b722,2021-09-27_16h11.00.912,forced_choiceRT_color,2021.2.3,Win32,30.0120048,,,,,,,,1,Slow,short,k,0,2.245,1,0,4,1,1,,,,,
,0.35,,,,,,,,,j,red,558812eefdf99b14f004b722,2021-09-27_16h11.00.912,forced_choiceRT_color,2021.2.3,Win32,30.0120048,,,,,,,,1,Ontime,short,j,1,1.997,1,1,5,2,1,,,,,
,1.15,,,,,,,,,d,orange,558812eefdf99b14f004b722,2021-09-27_16h11.00.912,forced_choiceRT_color,2021.2.3,Win32,30.0120048,,,,,,,,1,Ontime,short,d,1,2.015,1,2,6,0,1,,,,,
,1.91,,,,,,,,,f,blue,558812eefdf99b14f004b722,2021-09-27_16h11.00.912,forced_choiceRT_color,2021.2.3,Win32,30.0120048,,,,,,,,1,Slow,short,k,0,2.211,1,3,7,1,1,,,,,
,0.65,,,,,,,,,k,purple,558812eefdf99b14f004b722,2021-09-27_16h11.00.912,forced_choiceRT_color,2021.2.3,Win32,30.0120048,,,,,,,,1,Ontime,short,k,1,2.057,2,0,8,3,1,,,,,
,1.7,,,,,,,,,k,purple,558812eefdf99b14f004b722,2021-09-27_16h11.00.912,forced_choiceRT_color,2021.2.3,Win32,30.0120048,,,,,,,,1,Slow,short,k,1,2.167,2,1,9,3,1,,,,,
,1.05,,,,,,,,,j,red,558812eefdf99b14f004b722,2021-09-27_16h11.00.912,forced_choiceRT_color,2021.2.3,Win32,30.0120048,,,,,,,,1,Ontime,short,j,1,2.036,2,2,10,2,1,,,,,
,0.2,,,,,,,,,d,orange,558812eefdf99b14f004b722,2021-09-27_16h11.00.912,forced_choiceRT_color,2021.2.3,Win32,30.0120048,,,,,,,,1,Ontime,short,d,1,2.047,2,3,11,0,1,,,,,
,1.17,,,,,,,,,d,orange,558812eefdf99b14f004b722,2021-09-27_16h11.00.912,forced_choiceRT_color,2021.2.3,Win32,30.0120048,,,,,,,,1,Ontime,short,d,1,1.964,3,0,12,0,1,,,,,
,1.57,,,,,,,,,f,blue,558812eefdf99b14f004b722,2021-09-27_16h11.00.912,forced_choiceRT_color,2021.2.3,Win32,30.0120048,,,,,,,,1,Slow,short,k,0,2.244,3,1,13,1,1,,,,,
,1.75,,,,,,,,,k,purple,558812eefdf99b14f004b722,2021-09-27_16h11.00.912,forced_choiceRT_color,2021.2.3,Win32,30.0120048,,,,,,,,1,Slow,short,k,1,2.284,3,2,14,3,1,,,,,
,1.74,,,,,,,,,k,purple,558812eefdf99b14f004b722,2021-09-27_16h11.00.912,forced_choiceRT_color,2021.2.3,Win32,30.0120048,,,,,,,,1,Slow,short,f,0,2.241,3,3,15,3,1,,,,,
,0.61,,,,,,,,,f,blue,558812eefdf99b14f004b722,2021-09-27_16h11.00.912,forced_choiceRT_color,2021.2.3,Win32,30.0120048,,,,,,,,1,Ontime,short,f,1,2.095,4,0,16,1,1,,,,,
,1.83,,,,,,,,,k,purple,558812eefdf99b14f004b722,2021-09-27_16h11.00.912,forced_choiceRT_color,2021.2.3,Win32,30.0120048,,,,,,,,1,Slow,short,d,0,2.235,4,1,17,3,1,,,,,
,1.74,,,,,,,,,k,purple,558812eefdf99b14f004b722,2021-09-27_16h11.00.912,forced_choiceRT_color,2021.2.3,Win32,30.0120048,,,,,,,,1,Ontime,short,k,1,2.045,4,2,18,3,1,,,,,
,0.25,,,,,,,,,f,blue,558812eefdf99b14f004b722,2021-09-27_16h11.00.912,forced_choiceRT_color,2021.2.3,Win32,30.0120048,,,,,,,,1,Slow,short,f,1,2.119,4,3,19,1,1,,,,,
,0.26,,,,,,,,,f,blue,558812eefdf99b14f004b722,2021-09-27_16h11.00.912,forced_choiceRT_color,2021.2.3,Win32,30.0120048,,,,,,,,1,Ontime,short,f,1,1.967,5,0,20,1,1,,,,,
,1.95,,,,,,,,,f,blue,558812eefdf99b14f004b722,2021-09-27_16h11.00.912,forced_choiceRT_color,2021.2.3,Win32,30.0120048,,,,,,,,1,Ontime,short,f,1,2.055,5,1,21,1,1,,,,,
,1.77,,,,,,,,,f,blue,558812eefdf99b14f004b722,2021-09-27_16h11.00.912,forced_choiceRT_color,2021.2.3,Win32,30.0120048,,,,,,,,1,Slow,short,f,1,2.249,5,2,22,1,1,,,,,
,0.29,,,,,,,,,j,red,558812eefdf99b14f004b722,2021-09-27_16h11.00.912,forced_choiceRT_color,2021.2.3,Win32,30.0120048,,,,,,,,1,Ontime,short,j,1,1.992,5,3,23,2,1,,,,,
,0.72,,,,,,,,,k,purple,558812eefdf99b14f004b722,2021-09-27_16h11.00.912,forced_choiceRT_color,2021.2.3,Win32,30.0120048,,,,,,,,1,Ontime,short,k,1,2.061,6,0,24,3,1,,,,,
,1.15,,,,,,,,,d,orange,558812eefdf99b14f004b722,2021-09-27_16h11.00.912,forced_choiceRT_color,2021.2.3,Win32,30.0120048,,,,,,,,1,Ontime,short,d,1,1.957,6,1,25,0,1,,,,,
,0.85,,,,,,,,,d,orange,558812eefdf99b14f004b722,2021-09-27_16h11.00.912,forced_choiceRT_color,2021.2.3,Win32,30.0120048,,,,,,,,1,Slow,short,d,1,2.112,6,2,26,0,1,,,,,
,0.2,,,,,,,,,j,red,558812eefdf99b14f004b722,2021-09-27_16h11.00.912,forced_choiceRT_color,2021.2.3,Win32,30.0120048,,,,,,,,1,Ontime,short,j,1,2.049,6,3,27,2,1,,,,,
,0.06,,,,,,,,,j,red,558812eefdf99b14f004b722,2021-09-27_16h11.00.912,forced_choiceRT_color,2021.2.3,Win32,30.0120048,,,,,,,,1,Ontime,short,j,1,1.963,7,0,28,2,1,,,,,
,0.59,,,,,,,,,d,orange,558812eefdf99b14f004b722,2021-09-27_16h11.00.912,forced_choiceRT_color,2021.2.3,Win32,30.0120048,,,,,,,,1,Ontime,short,d,1,1.964,7,1,29,0,1,,,,,
,1.05,,,,,,,,,d,orange,558812eefdf99b14f004b722,2021-09-27_16h11.00.912,forced_choiceRT_color,2021.2.3,Win32,30.0120048,,,,,,,,1,Ontime,short,d,1,1.973,7,2,30,0,1,,,,,
,0.44,,,,,,,,,j,red,558812eefdf99b14f004b722,2021-09-27_16h11.00.912,forced_choiceRT_color,2021.2.3,Win32,30.0120048,,,,,,,,1,Ontime,short,j,1,2.009,7,3,31,2,1,,,,,
,1.02,,,,,,,,,f,blue,558812eefdf99b14f004b722,2021-09-27_16h11.00.912,forced_choiceRT_color,2021.2.3,Win32,30.0120048,,,,,,,,1,Slow,short,f,1,2.11,8,0,32,1,1,,,,,
,0.12,,,,,,,,,f,blue,558812eefdf99b14f004b722,2021-09-27_16h11.00.912,forced_choiceRT_color,2021.2.3,Win32,30.0120048,,,,,,,,1,Ontime,short,f,1,1.934,8,1,33,1,1,,,,,
,0.71,,,,,,,,,k,purple,558812eefdf99b14f004b722,2021-09-27_16h11.00.912,forced_choiceRT_color,2021.2.3,Win32,30.0120048,,,,,,,,1,Ontime,short,k,1,1.976,8,2,34,3,1,,,,,
,1.53,,,,,,,,,j,red,558812eefdf99b14f004b722,2021-09-27_16h11.00.912,forced_choiceRT_color,2021.2.3,Win32,30.0120048,,,,,,,,1,Ontime,short,d,0,2.073,8,3,35,2,1,,,,,
,1.93,,,,,,,,,j,red,558812eefdf99b14f004b722,2021-09-27_16h11.00.912,forced_choiceRT_color,2021.2.3,Win32,30.0120048,,,,,,,,1,Slow,short,f,0,2.345,9,0,36,2,1,,,,,
,0.2,,,,,,,,,j,red,558812eefdf99b14f004b722,2021-09-27_16h11.00.912,forced_choiceRT_color,2021.2.3,Win32,30.0120048,,,,,,,,1,Ontime,short,j,1,1.981,9,1,37,2,1,,,,,
,1.01,,,,,,,,,d,orange,558812eefdf99b14f004b722,2021-09-27_16h11.00.912,forced_choiceRT_color,2021.2.3,Win32,30.0120048,,,,,,,,1,Ontime,short,d,1,2.01,9,2,38,0,1,,,,,
,0.79,,,,,,,,,j,red,558812eefdf99b14f004b722,2021-09-27_16h11.00.912,forced_choiceRT_color,2021.2.3,Win32,30.0120048,,,,,,,,1,Ontime,short,j,1,2.014,9,3,39,2,1,,,,,
,,,,,,,,,,,,558812eefdf99b14f004b722,2021-09-27_16h11.00.912,forced_choiceRT_color,2021.2.3,Win32,30.0120048,,,,,,,,,,,,,,,,,,,0,0,0,0,1
,1.36,,,,,,,,,j,red,558812eefdf99b14f004b722,2021-09-27_16h11.00.912,forced_choiceRT_color,2021.2.3,Win32,30.0120048,,,,,,,,2,Slow,short,j,1,2.145,0,0,0,2,1,,,,,
,0.65,,,,,,,,,f,blue,558812eefdf99b14f004b722,2021-09-27_16h11.00.912,forced_choiceRT_color,2021.2.3,Win32,30.0120048,,,,,,,,2,Ontime,short,f,1,2.011,0,1,1,1,1,,,,,
,1.88,,,,,,,,,j,red,558812eefdf99b14f004b722,2021-09-27_16h11.00.912,forced_choiceRT_color,2021.2.3,Win32,30.0120048,,,,,,,,2,Ontime,short,d,0,2.086,0,2,2,2,1,,,,,
,1.23,,,,,,,,,f,blue,558812eefdf99b14f004b722,2021-09-27_16h11.00.912,forced_choiceRT_color,2021.2.3,Win32,30.0120048,,,,,,,,2,Ontime,short,d,0,2.069,0,3,3,1,1,,,,,
,1.95,,,,,,,,,j,red,558812eefdf99b14f004b722,2021-09-27_16h11.00.912,forced_choiceRT_color,2021.2.3,Win32,30.0120048,,,,,,,,2,Fast,short,j,1,0.039,1,0,4,2,1,,,,,
,1.59,,,,,,,,,d,orange,558812eefdf99b14f004b722,2021-09-27_16h11.00.912,forced_choiceRT_color,2021.2.3,Win32,30.0120048,,,,,,,,2,Ontime,short,d,1,1.987,1,1,5,0,1,,,,,
,1.45,,,,,,,,,k,purple,558812eefdf99b14f004b722,2021-09-27_16h11.00.912,forced_choiceRT_color,2021.2.3,Win32,30.0120048,,,,,,,,2,Ontime,short,j,0,1.974,1,2,6,3,1,,,,,
,0.09,,,,,,,,,j,red,558812eefdf99b14f004b722,2021-09-27_16h11.00.912,forced_choiceRT_color,2021.2.3,Win32,30.0120048,,,,,,,,2,Fast,short,k,0,0.047,1,3,7,2,1,,,,,
,0.62,,,,,,,,,k,purple,558812eefdf99b14f004b722,2021-09-27_16h11.00.912,forced_choiceRT_color,2021.2.3,Win32,30.0120048,,,,,,,,2,Ontime,short,k,1,2.006,2,0,8,3,1,,,,,
,1.01,,,,,,,,,f,blue,558812eefdf99b14f004b722,2021-09-27_16h11.00.912,forced_choiceRT_color,2021.2.3,Win32,30.0120048,,,,,,,,2,Ontime,short,j,0,2.089,2,1,9,1,1,,,,,
,0.96,,,,,,,,,f,blue,558812eefdf99b14f004b722,2021-09-27_16h11.00.912,forced_choiceRT_color,2021.2.3,Win32,30.0120048,,,,,,,,2,Ontime,short,f,1,2.029,2,2,10,1,1,,,,,
,1.05,,,,,,,,,f,blue,558812eefdf99b14f004b722,2021-09-27_16h11.00.912,forced_choiceRT_color,2021.2.3,Win32,30.0120048,,,,,,,,2,Ontime,short,f,1,1.96,2,3,11,1,1,,,,,
,1.5,,,,,,,,,d,orange,558812eefdf99b14f004b722,2021-09-27_16h11.00.912,forced_choiceRT_color,2021.2.3,Win32,30.0120048,,,,,,,,2,Ontime,short,k,0,1.999,3,0,12,0,1,,,,,
,1.39,,,,,,,,,d,orange,558812eefdf99b14f004b722,2021-09-27_16h11.00.912,forced_choiceRT_color,2021.2.3,Win32,30.0120048,,,,,,,,2,Fast,short,f,0,0.05,3,1,13,0,1,,,,,
,1.8,,,,,,,,,j,red,558812eefdf99b14f004b722,2021-09-27_16h11.00.912,forced_choiceRT_color,2021.2.3,Win32,30.0120048,,,,,,,,2,Ontime,short,d,0,2.092,3,2,14,2,1,,,,,
,0.13,,,,,,,,,f,blue,558812eefdf99b14f004b722,2021-09-27_16h11.00.912,forced_choiceRT_color,2021.2.3,Win32,30.0120048,,,,,,,,2,Ontime,short,f,1,1.981,3,3,15,1,1,,,,,
,1.09,,,,,,,,,k,purple,558812eefdf99b14f004b722,2021-09-27_16h11.00.912,forced_choiceRT_color,2021.2.3,Win32,30.0120048,,,,,,,,2,Ontime,short,k,1,2.08,4,0,16,3,1,,,,,
,1.96,,,,,,,,,j,red,558812eefdf99b14f004b722,2021-09-27_16h11.00.912,forced_choiceRT_color,2021.2.3,Win32,30.0120048,,,,,,,,2,Slow,short,k,0,2.135,4,1,17,2,1,,,,,
,0.9,,,,,,,,,d,orange,558812eefdf99b14f004b722,2021-09-27_16h11.00.912,forced_choiceRT_color,2021.2.3,Win32,30.0120048,,,,,,,,2,Ontime,short,d,1,1.98,4,2,18,0,1,,,,,
,1.43,,,,,,,,,k,purple,558812eefdf99b14f004b722,2021-09-27_16h11.00.912,forced_choiceRT_color,2021.2.3,Win32,30.0120048,,,,,,,,2,Ontime,short,k,1,2.017,4,3,19,3,1,,,,,
,0.74,,,,,,,,,d,orange,558812eefdf99b14f004b722,2021-09-27_16h11.00.912,forced_choiceRT_color,2021.2.3,Win32,30.0120048,,,,,,,,2,Ontime,short,d,1,1.97,5,0,20,0,1,,,,,
,0.23,,,,,,,,,f,blue,558812eefdf99b14f004b722,2021-09-27_16h11.00.912,forced_choiceRT_color,2021.2.3,Win32,30.0120048,,,,,,,,2,Ontime,short,k,0,2.032,5,1,21,1,1,,,,,
,0.02,,,,,,,,,j,red,558812eefdf99b14f004b722,2021-09-27_16h11.00.912,forced_choiceRT_color,2021.2.3,Win32,30.0120048,,,,,,,,2,Ontime,short,j,1,1.919,5,2,22,2,1,,,,,
,1.15,,,,,,,,,f,blue,558812eefdf99b14f004b722,2021-09-27_16h11.00.912,forced_choiceRT_color,2021.2.3,Win32,30.0120048,,,,,,,,2,Ontime,short,f,1,2.025,5,3,23,1,1,,,,,
,1.42,,,,,,,,,k,purple,558812eefdf99b14f004b722,2021-09-27_16h11.00.912,forced_choiceRT_color,2021.2.3,Win32,30.0120048,,,,,,,,2,Ontime,short,k,1,2.057,6,0,24,3,1,,,,,
,1.1,,,,,,,,,d,orange,558812eefdf99b14f004b722,2021-09-27_16h11.00.912,forced_choiceRT_color,2021.2.3,Win32,30.0120048,,,,,,,,2,Ontime,short,d,1,1.96,6,1,25,0,1,,,,,
,1.4,,,,,,,,,j,red,558812eefdf99b14f004b722,2021-09-27_16h11.00.912,forced_choiceRT_color,2021.2.3,Win32,30.0120048,,,,,,,,2,Ontime,short,j,1,2.013,6,2,26,2,1,,,,,
,1.9,,,,,,,,,f,blue,558812eefdf99b14f004b722,2021-09-27_16h11.00.912,forced_choiceRT_color,2021.2.3,Win32,30.0120048,,,,,,,,2,Slow,short,k,0,2.154,6,3,27,1,1,,,,,
,0.19,,,,,,,,,k,purple,558812eefdf99b14f004b722,2021-09-27_16h11.00.912,forced_choiceRT_color,2021.2.3,Win32,30.0120048,,,,,,,,2,Ontime,short,k,1,1.942,7,0,28,3,1,,,,,
,1.22,,,,,,,,,d,orange,558812eefdf99b14f004b722,2021-09-27_16h11.00.912,forced_choiceRT_color,2021.2.3,Win32,30.0120048,,,,,,,,2,Ontime,short,d,1,2.04,7,1,29,0,1,,,,,
,0.32,,,,,,,,,j,red,558812eefdf99b14f004b722,2021-09-27_16h11.00.912,forced_choiceRT_color,2021.2.3,Win32,30.0120048,,,,,,,,2,Ontime,short,j,1,1.922,7,2,30,2,1,,,,,
,1.63,,,,,,,,,k,purple,558812eefdf99b14f004b722,2021-09-27_16h11.00.912,forced_choiceRT_color,2021.2.3,Win32,30.0120048,,,,,,,,2,Slow,short,k,1,2.236,7,3,31,3,1,,,,,
,1.56,,,,,,,,,k,purple,558812eefdf99b14f004b722,2021-09-27_16h11.00.912,forced_choiceRT_color,2021.2.3,Win32,30.0120048,,,,,,,,2,Slow,short,k,1,2.17,8,0,32,3,1,,,,,
,0.74,,,,,,,,,f,blue,558812eefdf99b14f004b722,2021-09-27_16h11.00.912,forced_choiceRT_color,2021.2.3,Win32,30.0120048,,,,,,,,2,Ontime,short,j,0,1.972,8,1,33,1,1,,,,,
,0.02,,,,,,,,,k,purple,558812eefdf99b14f004b722,2021-09-27_16h11.00.912,forced_choiceRT_color,2021.2.3,Win32,30.0120048,,,,,,,,2,Ontime,short,k,1,1.998,8,2,34,3,1,,,,,
,1.57,,,,,,,,,k,purple,558812eefdf99b14f004b722,2021-09-27_16h11.00.912,forced_choiceRT_color,2021.2.3,Win32,30.0120048,,,,,,,,2,Ontime,short,k,1,2.004,8,3,35,3,1,,,,,
,1.01,,,,,,,,,d,orange,558812eefdf99b14f004b722,2021-09-27_16h11.00.912,forced_choiceRT_color,2021.2.3,Win32,30.0120048,,,,,,,,2,Ontime,short,d,1,1.995,9,0,36,0,1,,,,,
,0.28,,,,,,,,,j,red,558812eefdf99b14f004b722,2021-09-27_16h11.00.912,forced_choiceRT_color,2021.2.3,Win32,30.0120048,,,,,,,,2,Ontime,short,j,1,1.918,9,1,37,2,1,,,,,
,0.84,,,,,,,,,d,orange,558812eefdf99b14f004b722,2021-09-27_16h11.00.912,forced_choiceRT_color,2021.2.3,Win32,30.0120048,,,,,,,,2,Fast,short,d,1,1.891,9,2,38,0,1,,,,,
,1.51,,,,,,,,,d,orange,558812eefdf99b14f004b722,2021-09-27_16h11.00.912,forced_choiceRT_color,2021.2.3,Win32,30.0120048,,,,,,,,2,Ontime,short,d,1,2.04,9,3,39,0,1,,,,,
,,,,,,,,,,,,558812eefdf99b14f004b722,2021-09-27_16h11.00.912,forced_choiceRT_color,2021.2.3,Win32,30.0120048,,,,,,,,,,,,,,,,,,,1,0,1,0,1
,0.36,,,,,,,,,k,purple,558812eefdf99b14f004b722,2021-09-27_16h11.00.912,forced_choiceRT_color,2021.2.3,Win32,30.0120048,,,,,,,,3,Ontime,short,k,1,2.071,0,0,0,3,1,,,,,
,1.32,,,,,,,,,d,orange,558812eefdf99b14f004b722,2021-09-27_16h11.00.912,forced_choiceRT_color,2021.2.3,Win32,30.0120048,,,,,,,,3,Ontime,short,d,1,2.067,0,1,1,0,1,,,,,
,1.59,,,,,,,,,k,purple,558812eefdf99b14f004b722,2021-09-27_16h11.00.912,forced_choiceRT_color,2021.2.3,Win32,30.0120048,,,,,,,,3,Slow,short,k,1,2.185,0,2,2,3,1,,,,,
,0.18,,,,,,,,,k,purple,558812eefdf99b14f004b722,2021-09-27_16h11.00.912,forced_choiceRT_color,2021.2.3,Win32,30.0120048,,,,,,,,3,Ontime,short,k,1,1.954,0,3,3,3,1,,,,,
,1.18,,,,,,,,,k,purple,558812eefdf99b14f004b722,2021-09-27_16h11.00.912,forced_choiceRT_color,2021.2.3,Win32,30.0120048,,,,,,,,3,Fast,short,k,1,1.895,1,0,4,3,1,,,,,
,1.41,,,,,,,,,d,orange,558812eefdf99b14f004b722,2021-09-27_16h11.00.912,forced_choiceRT_color,2021.2.3,Win32,30.0120048,,,,,,,,3,Ontime,short,d,1,1.967,1,1,5,0,1,,,,,
,0.87,,,,,,,,,j,red,558812eefdf99b14f004b722,2021-09-27_16h11.00.912,forced_choiceRT_color,2021.2.3,Win32,30.0120048,,,,,,,,3,Fast,short,j,1,0.048,1,2,6,2,1,,,,,
,0.05,,,,,,,,,d,orange,558812eefdf99b14f004b722,2021-09-27_16h11.00.912,forced_choiceRT_color,2021.2.3,Win32,30.0120048,,,,,,,,3,Ontime,short,d,1,1.955,1,3,7,0,1,,,,,
,1.2,,,,,,,,,f,blue,558812eefdf99b14f004b722,2021-09-27_16h11.00.912,forced_choiceRT_color,2021.2.3,Win32,30.0120048,,,,,,,,3,Slow,short,k,0,2.143,2,0,8,1,1,,,,,
,0.62,,,,,,,,,f,blue,558812eefdf99b14f004b722,2021-09-27_16h11.00.912,forced_choiceRT_color,2021.2.3,Win32,30.0120048,,,,,,,,3,Ontime,short,f,1,1.952,2,1,9,1,1,,,,,
,0.78,,,,,,,,,j,red,558812eefdf99b14f004b722,2021-09-27_16h11.00.912,forced_choiceRT_color,2021.2.3,Win32,30.0120048,,,,,,,,3,Ontime,short,j,1,1.989,2,2,10,2,1,,,,,
,0.16,,,,,,,,,j,red,558812eefdf99b14f004b722,2021-09-27_16h11.00.912,forced_choiceRT_color,2021.2.3,Win32,30.0120048,,,,,,,,3,Fast,short,j,1,1.898,2,3,11,2,1,,,,,
,0.73,,,,,,,,,d,orange,558812eefdf99b14f004b722,2021-09-27_16h11.00.912,forced_choiceRT_color,2021.2.3,Win32,30.0120048,,,,,,,,3,Slow,short,d,1,2.128,3,0,12,0,1,,,,,
,1.48,,,,,,,,,f,blue,558812eefdf99b14f004b722,2021-09-27_16h11.00.912,forced_choiceRT_color,2021.2.3,Win32,30.0120048,,,,,,,,3,Slow,short,j,0,2.156,3,1,13,1,1,,,,,
,1.17,,,,,,,,,f,blue,558812eefdf99b14f004b722,2021-09-27_16h11.00.912,forced_choiceRT_color,2021.2.3,Win32,30.0120048,,,,,,,,3,Ontime,short,j,0,1.97,3,2,14,1,1,,,,,
,1.15,,,,,,,,,j,red,558812eefdf99b14f004b722,2021-09-27_16h11.00.912,forced_choiceRT_color,2021.2.3,Win32,30.0120048,,,,,,,,3,Fast,short,d,0,0.083,3,3,15,2,1,,,,,
,1,,,,,,,,,k,purple,558812eefdf99b14f004b722,2021-09-27_16h11.00.912,forced_choiceRT_color,2021.2.3,Win32,30.0120048,,,,,,,,3,Ontime,short,k,1,2.038,4,0,16,3,1,,,,,
,0.2,,,,,,,,,j,red,558812eefdf99b14f004b722,2021-09-27_16h11.00.912,forced_choiceRT_color,2021.2.3,Win32,30.0120048,,,,,,,,3,Ontime,short,j,1,2.006,4,1,17,2,1,,,,,
,0.01,,,,,,,,,f,blue,558812eefdf99b14f004b722,2021-09-27_16h11.00.912,forced_choiceRT_color,2021.2.3,Win32,30.0120048,,,,,,,,3,Ontime,short,f,1,2.019,4,2,18,1,1,,,,,
,1.25,,,,,,,,,j,red,558812eefdf99b14f004b722,2021-09-27_16h11.00.912,forced_choiceRT_color,2021.2.3,Win32,30.0120048,,,,,,,,3,Ontime,short,d,0,2.022,4,3,19,2,1,,,,,
,1.59,,,,,,,,,f,blue,558812eefdf99b14f004b722,2021-09-27_16h11.00.912,forced_choiceRT_color,2021.2.3,Win32,30.0120048,,,,,,,,3,Ontime,short,d,0,2.085,5,0,20,1,1,,,,,
,0.23,,,,,,,,,k,purple,558812eefdf99b14f004b722,2021-09-27_16h11.00.912,forced_choiceRT_color,2021.2.3,Win32,30.0120048,,,,,,,,3,Ontime,short,k,1,2.032,5,1,21,3,1,,,,,
,1.18,,,,,,,,,d,orange,558812eefdf99b14f004b722,2021-09-27_16h11.00.912,forced_choiceRT_color,2021.2.3,Win32,30.0120048,,,,,,,,3,Ontime,short,j,0,2.03,5,2,22,0,1,,,,,
,0.46,,,,,,,,,d,orange,558812eefdf99b14f004b722,2021-09-27_16h11.00.912,forced_choiceRT_color,2021.2.3,Win32,30.0120048,,,,,,,,3,Ontime,short,d,1,1.979,5,3,23,0,1,,,,,
,0.68,,,,,,,,,k,purple,558812eefdf99b14f004b722,2021-09-27_16h11.00.912,forced_choiceRT_color,2021.2.3,Win32,30.0120048,,,,,,,,3,Ontime,short,k,1,1.997,6,0,24,3,1,,,,,
,0.78,,,,,,,,,f,blue,558812eefdf99b14f004b722,2021-09-27_16h11.00.912,forced_choiceRT_color,2021.2.3,Win32,30.0120048,,,,,,,,3,Fast,short,j,0,1.888,6,1,25,1,1,,,,,
,0.72,,,,,,,,,j,red,558812eefdf99b14f004b722,2021-09-27_16h11.00.912,forced_choiceRT_color,2021.2.3,Win32,30.0120048,,,,,,,,3,Ontime,short,j,1,2.06,6,2,26,2,1,,,,,
,0.44,,,,,,,,,k,purple,558812eefdf99b14f004b722,2021-09-27_16h11.00.912,forced_choiceRT_color,2021.2.3,Win32,30.0120048,,,,,,,,3,Ontime,short,k,1,2.093,6,3,27,3,1,,,,,
,1.84,,,,,,,,,j,red,558812eefdf99b14f004b722,2021-09-27_16h11.00.912,forced_choiceRT_color,2021.2.3,Win32,30.0120048,,,,,,,,3,Slow,short,k,0,2.134,7,0,28,2,1,,,,,
,0.83,,,,,,,,,f,blue,558812eefdf99b14f004b722,2021-09-27_16h11.00.912,forced_choiceRT_color,2021.2.3,Win32,30.0120048,,,,,,,,3,Ontime,short,f,1,1.917,7,1,29,1,1,,,,,
,1.87,,,,,,,,,k,purple,558812eefdf99b14f004b722,2021-09-27_16h11.00.912,forced_choiceRT_color,2021.2.3,Win32,30.0120048,,,,,,,,3,Ontime,short,d,0,2.021,7,2,30,3,1,,,,,
,1.58,,,,,,,,,k,purple,558812eefdf99b14f004b722,2021-09-27_16h11.00.912,forced_choiceRT_color,2021.2.3,Win32,30.0120048,,,,,,,,3,Ontime,short,k,1,1.959,7,3,31,3,1,,,,,
,1.42,,,,,,,,,d,orange,558812eefdf99b14f004b722,2021-09-27_16h11.00.912,forced_choiceRT_color,2021.2.3,Win32,30.0120048,,,,,,,,3,Ontime,short,f,0,1.961,8,0,32,0,1,,,,,
,0.9,,,,,,,,,f,blue,558812eefdf99b14f004b722,2021-09-27_16h11.00.912,forced_choiceRT_color,2021.2.3,Win32,30.0120048,,,,,,,,3,Ontime,short,f,1,2.072,8,1,33,1,1,,,,,
,1.43,,,,,,,,,d,orange,558812eefdf99b14f004b722,2021-09-27_16h11.00.912,forced_choiceRT_color,2021.2.3,Win32,30.0120048,,,,,,,,3,Slow,short,d,1,2.165,8,2,34,0,1,,,,,
,1.13,,,,,,,,,d,orange,558812eefdf99b14f004b722,2021-09-27_16h11.00.912,forced_choiceRT_color,2021.2.3,Win32,30.0120048,,,,,,,,3,Ontime,short,d,1,2.028,8,3,35,0,1,,,,,
,1.19,,,,,,,,,j,red,558812eefdf99b14f004b722,2021-09-27_16h11.00.912,forced_choiceRT_color,2021.2.3,Win32,30.0120048,,,,,,,,3,Ontime,short,j,1,2.097,9,0,36,2,1,,,,,
,0.78,,,,,,,,,f,blue,558812eefdf99b14f004b722,2021-09-27_16h11.00.912,forced_choiceRT_color,2021.2.3,Win32,30.0120048,,,,,,,,3,Slow,short,f,1,2.101,9,1,37,1,1,,,,,
,0.64,,,,,,,,,d,orange,558812eefdf99b14f004b722,2021-09-27_16h11.00.912,forced_choiceRT_color,2021.2.3,Win32,30.0120048,,,,,,,,3,Ontime,short,d,1,2.041,9,2,38,0,1,,,,,
,1.19,,,,,,,,,j,red,558812eefdf99b14f004b722,2021-09-27_16h11.00.912,forced_choiceRT_color,2021.2.3,Win32,30.0120048,,,,,,,,3,Ontime,short,k,0,2.088,9,3,39,2,1,,,,,
,,,,,,,,,,,,558812eefdf99b14f004b722,2021-09-27_16h11.00.912,forced_choiceRT_color,2021.2.3,Win32,30.0120048,,,,,,,,,,,,,,,,,,,2,0,2,0,1
,1.17,,,,,,,,,f,blue,558812eefdf99b14f004b722,2021-09-27_16h11.00.912,forced_choiceRT_color,2021.2.3,Win32,30.0120048,,,,,,,,4,Ontime,short,f,1,2.015,0,0,0,1,1,,,,,
,0.13,,,,,,,,,f,blue,558812eefdf99b14f004b722,2021-09-27_16h11.00.912,forced_choiceRT_color,2021.2.3,Win32,30.0120048,,,,,,,,4,Ontime,short,f,1,1.992,0,1,1,1,1,,,,,
,1.04,,,,,,,,,j,red,558812eefdf99b14f004b722,2021-09-27_16h11.00.912,forced_choiceRT_color,2021.2.3,Win32,30.0120048,,,,,,,,4,Ontime,short,j,1,2.034,0,2,2,2,1,,,,,
,0.3,,,,,,,,,d,orange,558812eefdf99b14f004b722,2021-09-27_16h11.00.912,forced_choiceRT_color,2021.2.3,Win32,30.0120048,,,,,,,,4,Ontime,short,d,1,2.023,0,3,3,0,1,,,,,
,1.66,,,,,,,,,k,purple,558812eefdf99b14f004b722,2021-09-27_16h11.00.912,forced_choiceRT_color,2021.2.3,Win32,30.0120048,,,,,,,,4,Slow,short,k,1,2.105,1,0,4,3,1,,,,,
,1.62,,,,,,,,,j,red,558812eefdf99b14f004b722,2021-09-27_16h11.00.912,forced_choiceRT_color,2021.2.3,Win32,30.0120048,,,,,,,,4,Slow,short,k,0,2.11,1,1,5,2,1,,,,,
,0.67,,,,,,,,,k,purple,558812eefdf99b14f004b722,2021-09-27_16h11.00.912,forced_choiceRT_color,2021.2.3,Win32,30.0120048,,,,,,,,4,Ontime,short,f,0,2.014,1,2,6,3,1,,,,,
,1.64,,,,,,,,,d,orange,558812eefdf99b14f004b722,2021-09-27_16h11.00.912,forced_choiceRT_color,2021.2.3,Win32,30.0120048,,,,,,,,4,Slow,short,k,0,2.148,1,3,7,0,1,,,,,
,0.59,,,,,,,,,f,blue,558812eefdf99b14f004b722,2021-09-27_16h11.00.912,forced_choiceRT_color,2021.2.3,Win32,30.0120048,,,,,,,,4,Ontime,short,f,1,2.013,2,0,8,1,1,,,,,
,0.9,,,,,,,,,k,purple,558812eefdf99b14f004b722,2021-09-27_16h11.00.912,forced_choiceRT_color,2021.2.3,Win32,30.0120048,,,,,,,,4,Ontime,short,k,1,1.995,2,1,9,3,1,,,,,
,1.86,,,,,,,,,k,purple,558812eefdf99b14f004b722,2021-09-27_16h11.00.912,forced_choiceRT_color,2021.2.3,Win32,30.0120048,,,,,,,,4,Ontime,short,d,0,2.099,2,2,10,3,1,,,,,
,1.17,,,,,,,,,f,blue,558812eefdf99b14f004b722,2021-09-27_16h11.00.912,forced_choiceRT_color,2021.2.3,Win32,30.0120048,,,,,,,,4,Ontime,short,j,0,2.03,2,3,11,1,1,,,,,
,1.42,,,,,,,,,j,red,558812eefdf99b14f004b722,2021-09-27_16h11.00.912,forced_choiceRT_color,2021.2.3,Win32,30.0120048,,,,,,,,4,Ontime,short,j,1,2.052,3,0,12,2,1,,,,,
,1.59,,,,,,,,,j,red,558812eefdf99b14f004b722,2021-09-27_16h11.00.912,forced_choiceRT_color,2021.2.3,Win32,30.0120048,,,,,,,,4,Slow,short,j,1,2.122,3,1,13,2,1,,,,,
,0.26,,,,,,,,,d,orange,558812eefdf99b14f004b722,2021-09-27_16h11.00.912,forced_choiceRT_color,2021.2.3,Win32,30.0120048,,,,,,,,4,Ontime,short,d,1,2.045,3,2,14,0,1,,,,,
,0.56,,,,,,,,,d,orange,558812eefdf99b14f004b722,2021-09-27_16h11.00.912,forced_choiceRT_color,2021.2.3,Win32,30.0120048,,,,,,,,4,Ontime,short,d,1,2.042,3,3,15,0,1,,,,,
,0.92,,,,,,,,,k,purple,558812eefdf99b14f004b722,2021-09-27_16h11.00.912,forced_choiceRT_color,2021.2.3,Win32,30.0120048,,,,,,,,4,Ontime,short,k,1,2.054,4,0,16,3,1,,,,,
,1.02,,,,,,,,,f,blue,558812eefdf99b14f004b722,2021-09-27_16h11.00.912,forced_choiceRT_color,2021.2.3,Win32,30.0120048,,,,,,,,4,Ontime,short,f,1,2.064,4,1,17,1,1,,,,,
,1.58,,,,,,,,,f,blue,558812eefdf99b14f004b722,2021-09-27_16h11.00.912,forced_choiceRT_color,2021.2.3,Win32,30.0120048,,,,,,,,4,Slow,short,f,1,2.103,4,2,18,1,1,,,,,
,1.48,,,,,,,,,k,purple,558812eefdf99b14f004b722,2021-09-27_16h11.00.912,forced_choiceRT_color,2021.2.3,Win32,30.0120048,,,,,,,,4,Slow,short,k,1,2.131,4,3,19,3,1,,,,,
,0.58,,,,,,,,,f,blue,558812eefdf99b14f004b722,2021-09-27_16h11.00.912,forced_choiceRT_color,2021.2.3,Win32,30.0120048,,,,,,,,4,Fast,short,f,1,1.898,5,0,20,1,1,,,,,
,1.98,,,,,,,,,k,purple,558812eefdf99b14f004b722,2021-09-27_16h11.00.912,forced_choiceRT_color,2021.2.3,Win32,30.0120048,,,,,,,,4,Ontime,short,f,0,2.019,5,1,21,3,1,,,,,
,1.65,,,,,,,,,f,blue,558812eefdf99b14f004b722,2021-09-27_16h11.00.912,forced_choiceRT_color,2021.2.3,Win32,30.0120048,,,,,,,,4,Ontime,short,k,0,2.068,5,2,22,1,1,,,,,
,0.85,,,,,,,,,d,orange,558812eefdf99b14f004b722,2021-09-27_16h11.00.912,forced_choiceRT_color,2021.2.3,Win32,30.0120048,,,,,,,,4,Slow,short,d,1,2.416,5,3,23,0,1,,,,,
,1.29,,,,,,,,,d,orange,558812eefdf99b14f004b722,2021-09-27_16h11.00.912,forced_choiceRT_color,2021.2.3,Win32,30.0120048,,,,,,,,4,Ontime,short,d,1,1.966,6,0,24,0,1,,,,,
,0.02,,,,,,,,,k,purple,558812eefdf99b14f004b722,2021-09-27_16h11.00.912,forced_choiceRT_color,2021.2.3,Win32,30.0120048,,,,,,,,4,Ontime,short,k,1,2.072,6,1,25,3,1,,,,,
,0.72,,,,,,,,,d,orange,558812eefdf99b14f004b722,2021-09-27_16h11.00.912,forced_choiceRT_color,2021.2.3,Win32,30.0120048,,,,,,,,4,Ontime,short,d,1,2.018,6,2,26,0,1,,,,,
,1.05,,,,,,,,,d,orange,558812eefdf99b14f004b722,2021-09-27_16h11.00.912,forced_choiceRT_color,2021.2.3,Win32,30.0120048,,,,,,,,4,Ontime,short,d,1,2.039,6,3,27,0,1,,,,,
,1.14,,,,,,,,,j,red,558812eefdf99b14f004b722,2021-09-27_16h11.00.912,forced_choiceRT_color,2021.2.3,Win32,30.0120048,,,,,,,,4,Slow,short,j,1,2.121,7,0,28,2,1,,,,,
,0.38,,,,,,,,,j,red,558812eefdf99b14f004b722,2021-09-27_16h11.00.912,forced_choiceRT_color,2021.2.3,Win32,30.0120048,,,,,,,,4,Ontime,short,j,1,1.998,7,1,29,2,1,,,,,
,0.35,,,,,,,,,d,orange,558812eefdf99b14f004b722,2021-09-27_16h11.00.912,forced_choiceRT_color,2021.2.3,Win32,30.0120048,,,,,,,,4,Slow,short,d,1,2.122,7,2,30,0,1,,,,,
,1.69,,,,,,,,,j,red,558812eefdf99b14f004b722,2021-09-27_16h11.00.912,forced_choiceRT_color,2021.2.3,Win32,30.0120048,,,,,,,,4,Ontime,short,k,0,2.058,7,3,31,2,1,,,,,
,1.84,,,,,,,,,k,purple,558812eefdf99b14f004b722,2021-09-27_16h11.00.912,forced_choiceRT_color,2021.2.3,Win32,30.0120048,,,,,,,,4,Slow,short,k,1,2.188,8,0,32,3,1,,,,,
,1.02,,,,,,,,,f,blue,558812eefdf99b14f004b722,2021-09-27_16h11.00.912,forced_choiceRT_color,2021.2.3,Win32,30.0120048,,,,,,,,4,Ontime,short,f,1,2.018,8,1,33,1,1,,,,,
,1.6,,,,,,,,,j,red,558812eefdf99b14f004b722,2021-09-27_16h11.00.912,forced_choiceRT_color,2021.2.3,Win32,30.0120048,,,,,,,,4,Slow,short,k,0,2.105,8,2,34,2,1,,,,,
,0.28,,,,,,,,,f,blue,558812eefdf99b14f004b722,2021-09-27_16h11.00.912,forced_choiceRT_color,2021.2.3,Win32,30.0120048,,,,,,,,4,Ontime,short,f,1,2.008,8,3,35,1,1,,,,,
,1.14,,,,,,,,,j,red,558812eefdf99b14f004b722,2021-09-27_16h11.00.912,forced_choiceRT_color,2021.2.3,Win32,30.0120048,,,,,,,,4,Ontime,short,j,1,1.979,9,0,36,2,1,,,,,
,0.1,,,,,,,,,k,purple,558812eefdf99b14f004b722,2021-09-27_16h11.00.912,forced_choiceRT_color,2021.2.3,Win32,30.0120048,,,,,,,,4,Ontime,short,k,1,2.083,9,1,37,3,1,,,,,
,0.66,,,,,,,,,d,orange,558812eefdf99b14f004b722,2021-09-27_16h11.00.912,forced_choiceRT_color,2021.2.3,Win32,30.0120048,,,,,,,,4,Ontime,short,d,1,2.026,9,2,38,0,1,,,,,
,0.73,,,,,,,,,j,red,558812eefdf99b14f004b722,2021-09-27_16h11.00.912,forced_choiceRT_color,2021.2.3,Win32,30.0120048,,,,,,,,4,Ontime,short,j,1,2.085,9,3,39,2,1,,,,,
,,,,,,,,,,,,558812eefdf99b14f004b722,2021-09-27_16h11.00.912,forced_choiceRT_color,2021.2.3,Win32,30.0120048,,,,,,,,,,,,,,,,,,,3,0,3,0,1
,0.79,,,,,,,,,d,orange,558812eefdf99b14f004b722,2021-09-27_16h11.00.912,forced_choiceRT_color,2021.2.3,Win32,30.0120048,,,,,,,,5,Ontime,short,d,1,2.098,0,0,0,0,1,,,,,
,0.6,,,,,,,,,d,orange,558812eefdf99b14f004b722,2021-09-27_16h11.00.912,forced_choiceRT_color,2021.2.3,Win32,30.0120048,,,,,,,,5,Slow,short,d,1,2.102,0,1,1,0,1,,,,,
,0.99,,,,,,,,,k,purple,558812eefdf99b14f004b722,2021-09-27_16h11.00.912,forced_choiceRT_color,2021.2.3,Win32,30.0120048,,,,,,,,5,Ontime,short,f,0,2.001,0,2,2,3,1,,,,,
,1.3,,,,,,,,,d,orange,558812eefdf99b14f004b722,2021-09-27_16h11.00.912,forced_choiceRT_color,2021.2.3,Win32,30.0120048,,,,,,,,5,Ontime,short,d,1,2.049,0,3,3,0,1,,,,,
,0.54,,,,,,,,,k,purple,558812eefdf99b14f004b722,2021-09-27_16h11.00.912,forced_choiceRT_color,2021.2.3,Win32,30.0120048,,,,,,,,5,Ontime,short,k,1,2.056,1,0,4,3,1,,,,,
,0.03,,,,,,,,,j,red,558812eefdf99b14f004b722,2021-09-27_16h11.00.912,forced_choiceRT_color,2021.2.3,Win32,30.0120048,,,,,,,,5,Ontime,short,j,1,2.022,1,1,5,2,1,,,,,
,1.45,,,,,,,,,f,blue,558812eefdf99b14f004b722,2021-09-27_16h11.00.912,forced_choiceRT_color,2021.2.3,Win32,30.0120048,,,,,,,,5,Ontime,short,f,1,2.092,1,2,6,1,1,,,,,
,1.94,,,,,,,,,f,blue,558812eefdf99b14f004b722,2021-09-27_16h11.00.912,forced_choiceRT_color,2021.2.3,Win32,30.0120048,,,,,,,,5,Slow,short,d,0,2.12,1,3,7,1,1,,,,,
,1.01,,,,,,,,,j,red,558812eefdf99b14f004b722,2021-09-27_16h11.00.912,forced_choiceRT_color,2021.2.3,Win32,30.0120048,,,,,,,,5,Ontime,short,j,1,1.999,2,0,8,2,1,,,,,
,1.3,,,,,,,,,k,purple,558812eefdf99b14f004b722,2021-09-27_16h11.00.912,forced_choiceRT_color,2021.2.3,Win32,30.0120048,,,,,,,,5,Ontime,short,k,1,2.041,2,1,9,3,1,,,,,
,1.41,,,,,,,,,d,orange,558812eefdf99b14f004b722,2021-09-27_16h11.00.912,forced_choiceRT_color,2021.2.3,Win32,30.0120048,,,,,,,,5,Ontime,short,f,0,2.097,2,2,10,0,1,,,,,
,0.91,,,,,,,,,f,blue,558812eefdf99b14f004b722,2021-09-27_16h11.00.912,forced_choiceRT_color,2021.2.3,Win32,30.0120048,,,,,,,,5,Ontime,short,f,1,2.06,2,3,11,1,1,,,,,
,1.94,,,,,,,,,f,blue,558812eefdf99b14f004b722,2021-09-27_16h11.00.912,forced_choiceRT_color,2021.2.3,Win32,30.0120048,,,,,,,,5,Slow,short,f,1,2.1,3,0,12,1,1,,,,,
,1.21,,,,,,,,,j,red,558812eefdf99b14f004b722,2021-09-27_16h11.00.912,forced_choiceRT_color,2021.2.3,Win32,30.0120048,,,,,,,,5,Ontime,short,k,0,2.009,3,1,13,2,1,,,,,
,1.4,,,,,,,,,d,orange,558812eefdf99b14f004b722,2021-09-27_16h11.00.912,forced_choiceRT_color,2021.2.3,Win32,30.0120048,,,,,,,,5,Ontime,short,f,0,2.062,3,2,14,0,1,,,,,
,1.72,,,,,,,,,f,blue,558812eefdf99b14f004b722,2021-09-27_16h11.00.912,forced_choiceRT_color,2021.2.3,Win32,30.0120048,,,,,,,,5,Fast,short,d,0,0.042,3,3,15,1,1,,,,,
,0.15,,,,,,,,,f,blue,558812eefdf99b14f004b722,2021-09-27_16h11.00.912,forced_choiceRT_color,2021.2.3,Win32,30.0120048,,,,,,,,5,Ontime,short,f,1,1.918,4,0,16,1,1,,,,,
,1.14,,,,,,,,,k,purple,558812eefdf99b14f004b722,2021-09-27_16h11.00.912,forced_choiceRT_color,2021.2.3,Win32,30.0120048,,,,,,,,5,Ontime,short,j,0,2.073,4,1,17,3,1,,,,,
,0.2,,,,,,,,,j,red,558812eefdf99b14f004b722,2021-09-27_16h11.00.912,forced_choiceRT_color,2021.2.3,Win32,30.0120048,,,,,,,,5,Ontime,short,j,1,2.039,4,2,18,2,1,,,,,
,0.43,,,,,,,,,k,purple,558812eefdf99b14f004b722,2021-09-27_16h11.00.912,forced_choiceRT_color,2021.2.3,Win32,30.0120048,,,,,,,,5,Ontime,short,k,1,1.938,4,3,19,3,1,,,,,
,1.94,,,,,,,,,d,orange,558812eefdf99b14f004b722,2021-09-27_16h11.00.912,forced_choiceRT_color,2021.2.3,Win32,30.0120048,,,,,,,,5,Ontime,short,k,0,2.016,5,0,20,0,1,,,,,
,0.45,,,,,,,,,f,blue,558812eefdf99b14f004b722,2021-09-27_16h11.00.912,forced_choiceRT_color,2021.2.3,Win32,30.0120048,,,,,,,,5,Ontime,short,f,1,2.076,5,1,21,1,1,,,,,
,0.86,,,,,,,,,j,red,558812eefdf99b14f004b722,2021-09-27_16h11.00.912,forced_choiceRT_color,2021.2.3,Win32,30.0120048,,,,,,,,5,Slow,short,j,1,2.131,5,2,22,2,1,,,,,
,1.36,,,,,,,,,k,purple,558812eefdf99b14f004b722,2021-09-27_16h11.00.912,forced_choiceRT_color,2021.2.3,Win32,30.0120048,,,,,,,,5,Slow,short,k,1,2.116,5,3,23,3,1,,,,,
,1.35,,,,,,,,,d,orange,558812eefdf99b14f004b722,2021-09-27_16h11.00.912,forced_choiceRT_color,2021.2.3,Win32,30.0120048,,,,,,,,5,Ontime,short,d,1,2.008,6,0,24,0,1,,,,,
,0.44,,,,,,,,,d,orange,558812eefdf99b14f004b722,2021-09-27_16h11.00.912,forced_choiceRT_color,2021.2.3,Win32,30.0120048,,,,,,,,5,Ontime,short,d,1,1.918,6,1,25,0,1,,,,,
,0.45,,,,,,,,,f,blue,558812eefdf99b14f004b722,2021-09-27_16h11.00.912,forced_choiceRT_color,2021.2.3,Win32,30.0120048,,,,,,,,5,Ontime,short,j,0,2.047,6,2,26,1,1,,,,,
,0.05,,,,,,,,,d,orange,558812eefdf99b14f004b722,2021-09-27_16h11.00.912,forced_choiceRT_color,2021.2.3,Win32,30.0120048,,,,,,,,5,Fast,short,d,1,1.866,6,3,27,0,1,,,,,
,0.37,,,,,,,,,d,orange,558812eefdf99b14f004b722,2021-09-27_16h11.00.912,forced_choiceRT_color,2021.2.3,Win32,30.0120048,,,,,,,,5,Ontime,short,d,1,1.996,7,0,28,0,1,,,,,
,1.45,,,,,,,,,k,purple,558812eefdf99b14f004b722,2021-09-27_16h11.00.912,forced_choiceRT_color,2021.2.3,Win32,30.0120048,,,,,,,,5,Ontime,short,j,0,1.994,7,1,29,3,1,,,,,
,1.48,,,,,,,,,f,blue,558812eefdf99b14f004b722,2021-09-27_16h11.00.912,forced_choiceRT_color,2021.2.3,Win32,30.0120048,,,,,,,,5,Slow,short,f,1,2.102,7,2,30,1,1,,,,,
,1.96,,,,,,,,,j,red,558812eefdf99b14f004b722,2021-09-27_16h11.00.912,forced_choiceRT_color,2021.2.3,Win32,30.0120048,,,,,,,,5,Slow,short,k,0,2.137,7,3,31,2,1,,,,,
,0.42,,,,,,,,,k,purple,558812eefdf99b14f004b722,2021-09-27_16h11.00.912,forced_choiceRT_color,2021.2.3,Win32,30.0120048,,,,,,,,5,Ontime,short,j,0,1.96,8,0,32,3,1,,,,,
,0.74,,,,,,,,,j,red,558812eefdf99b14f004b722,2021-09-27_16h11.00.912,forced_choiceRT_color,2021.2.3,Win32,30.0120048,,,,,,,,5,Ontime,short,j,1,2.039,8,1,33,2,1,,,,,
,0.61,,,,,,,,,k,purple,558812eefdf99b14f004b722,2021-09-27_16h11.00.912,forced_choiceRT_color,2021.2.3,Win32,30.0120048,,,,,,,,5,Ontime,short,k,1,1.993,8,2,34,3,1,,,,,
,0.63,,,,,,,,,k,purple,558812eefdf99b14f004b722,2021-09-27_16h11.00.912,forced_choiceRT_color,2021.2.3,Win32,30.0120048,,,,,,,,5,Ontime,short,k,1,2.02,8,3,35,3,1,,,,,
,0.33,,,,,,,,,j,red,558812eefdf99b14f004b722,2021-09-27_16h11.00.912,forced_choiceRT_color,2021.2.3,Win32,30.0120048,,,,,,,,5,Ontime,short,j,1,1.931,9,0,36,2,1,,,,,
,0.11,,,,,,,,,j,red,558812eefdf99b14f004b722,2021-09-27_16h11.00.912,forced_choiceRT_color,2021.2.3,Win32,30.0120048,,,,,,,,5,Ontime,short,j,1,1.981,9,1,37,2,1,,,,,
,1.4,,,,,,,,,j,red,558812eefdf99b14f004b722,2021-09-27_16h11.00.912,forced_choiceRT_color,2021.2.3,Win32,30.0120048,,,,,,,,5,Ontime,short,j,1,2.043,9,2,38,2,1,,,,,
,0.38,,,,,,,,,f,blue,558812eefdf99b14f004b722,2021-09-27_16h11.00.912,forced_choiceRT_color,2021.2.3,Win32,30.0120048,,,,,,,,5,Ontime,short,f,1,1.986,9,3,39,1,1,,,,,
,,,,,,,,,,,,558812eefdf99b14f004b722,2021-09-27_16h11.00.912,forced_choiceRT_color,2021.2.3,Win32,30.0120048,,,,,,,,,,,,,,,,,,,4,0,4,0,1
,0.27,,,,,,,,,k,purple,558812eefdf99b14f004b722,2021-09-27_16h11.00.912,forced_choiceRT_color,2021.2.3,Win32,30.0120048,,,,,,,,6,Ontime,short,k,1,1.963,0,0,0,3,1,,,,,
,1.94,,,,,,,,,f,blue,558812eefdf99b14f004b722,2021-09-27_16h11.00.912,forced_choiceRT_color,2021.2.3,Win32,30.0120048,,,,,,,,6,Slow,short,j,0,2.163,0,1,1,1,1,,,,,
,0.1,,,,,,,,,j,red,558812eefdf99b14f004b722,2021-09-27_16h11.00.912,forced_choiceRT_color,2021.2.3,Win32,30.0120048,,,,,,,,6,Ontime,short,j,1,1.992,0,2,2,2,1,,,,,
,0.1,,,,,,,,,j,red,558812eefdf99b14f004b722,2021-09-27_16h11.00.912,forced_choiceRT_color,2021.2.3,Win32,30.0120048,,,,,,,,6,Ontime,short,j,1,1.996,0,3,3,2,1,,,,,
,0.5,,,,,,,,,d,orange,558812eefdf99b14f004b722,2021-09-27_16h11.00.912,forced_choiceRT_color,2021.2.3,Win32,30.0120048,,,,,,,,6,Ontime,short,d,1,1.965,1,0,4,0,1,,,,,
,1.88,,,,,,,,,k,purple,558812eefdf99b14f004b722,2021-09-27_16h11.00.912,forced_choiceRT_color,2021.2.3,Win32,30.0120048,,,,,,,,6,Ontime,short,d,0,2.071,1,1,5,3,1,,,,,
,1.75,,,,,,,,,d,orange,558812eefdf99b14f004b722,2021-09-27_16h11.00.912,forced_choiceRT_color,2021.2.3,Win32,30.0120048,,,,,,,,6,Slow,short,k,0,2.142,1,2,6,0,1,,,,,
,0.29,,,,,,,,,k,purple,558812eefdf99b14f004b722,2021-09-27_16h11.00.912,forced_choiceRT_color,2021.2.3,Win32,30.0120048,,,,,,,,6,Ontime,short,f,0,1.946,1,3,7,3,1,,,,,
,1.91,,,,,,,,,k,purple,558812eefdf99b14f004b722,2021-09-27_16h11.00.912,forced_choiceRT_color,2021.2.3,Win32,30.0120048,,,,,,,,6,Ontime,short,f,0,2.056,2,0,8,3,1,,,,,
,1.59,,,,,,,,,f,blue,558812eefdf99b14f004b722,2021-09-27_16h11.00.912,forced_choiceRT_color,2021.2.3,Win32,30.0120048,,,,,,,,6,Ontime,short,f,1,1.996,2,1,9,1,1,,,,,
,0.17,,,,,,,,,d,orange,558812eefdf99b14f004b722,2021-09-27_16h11.00.912,forced_choiceRT_color,2021.2.3,Win32,30.0120048,,,,,,,,6,Fast,short,d,1,1.817,2,2,10,0,1,,,,,
,1.69,,,,,,,,,j,red,558812eefdf99b14f004b722,2021-09-27_16h11.00.912,forced_choiceRT_color,2021.2.3,Win32,30.0120048,,,,,,,,6,Fast,short,d,0,1,2,3,11,2,1,,,,,
,1.22,,,,,,,,,f,blue,558812eefdf99b14f004b722,2021-09-27_16h11.00.912,forced_choiceRT_color,2021.2.3,Win32,30.0120048,,,,,,,,6,Ontime,short,f,1,1.984,3,0,12,1,1,,,,,
,1.61,,,,,,,,,j,red,558812eefdf99b14f004b722,2021-09-27_16h11.00.912,forced_choiceRT_color,2021.2.3,Win32,30.0120048,,,,,,,,6,Ontime,short,k,0,1.935,3,1,13,2,1,,,,,
,1.86,,,,,,,,,k,purple,558812eefdf99b14f004b722,2021-09-27_16h11.00.912,forced_choiceRT_color,2021.2.3,Win32,30.0120048,,,,,,,,6,Slow,short,k,1,2.122,3,2,14,3,1,,,,,
,0.76,,,,,,,,,j,red,558812eefdf99b14f004b722,2021-09-27_16h11.00.912,forced_choiceRT_color,2021.2.3,Win32,30.0120048,,,,,,,,6,Ontime,short,j,1,1.945,3,3,15,2,1,,,,,
,0.97,,,,,,,,,d,orange,558812eefdf99b14f004b722,2021-09-27_16h11.00.912,forced_choiceRT_color,2021.2.3,Win32,30.0120048,,,,,,,,6,Ontime,short,d,1,1.987,4,0,16,0,1,,,,,
,1.11,,,,,,,,,f,blue,558812eefdf99b14f004b722,2021-09-27_16h11.00.912,forced_choiceRT_color,2021.2.3,Win32,30.0120048,,,,,,,,6,Ontime,short,f,1,2.029,4,1,17,1,1,,,,,
,0.35,,,,,,,,,f,blue,558812eefdf99b14f004b722,2021-09-27_16h11.00.912,forced_choiceRT_color,2021.2.3,Win32,30.0120048,,,,,,,,6,Ontime,short,f,1,2.031,4,2,18,1,1,,,,,
,0.35,,,,,,,,,k,purple,558812eefdf99b14f004b722,2021-09-27_16h11.00.912,forced_choiceRT_color,2021.2.3,Win32,30.0120048,,,,,,,,6,Ontime,short,k,1,1.987,4,3,19,3,1,,,,,
,0.87,,,,,,,,,f,blue,558812eefdf99b14f004b722,2021-09-27_16h11.00.912,forced_choiceRT_color,2021.2.3,Win32,30.0120048,,,,,,,,6,Ontime,short,f,1,1.932,5,0,20,1,1,,,,,
,1.27,,,,,,,,,f,blue,558812eefdf99b14f004b722,2021-09-27_16h11.00.912,forced_choiceRT_color,2021.2.3,Win32,30.0120048,,,,,,,,6,Ontime,short,f,1,2.049,5,1,21,1,1,,,,,
,1.55,,,,,,,,,f,blue,558812eefdf99b14f004b722,2021-09-27_16h11.00.912,forced_choiceRT_color,2021.2.3,Win32,30.0120048,,,,,,,,6,Ontime,short,f,1,2.025,5,2,22,1,1,,,,,
,1.8,,,,,,,,,j,red,558812eefdf99b14f004b722,2021-09-27_16h11.00.912,forced_choiceRT_color,2021.2.3,Win32,30.0120048,,,,,,,,6,Ontime,short,f,0,2.027,5,3,23,2,1,,,,,
,1.31,,,,,,,,,f,blue,558812eefdf99b14f004b722,2021-09-27_16h11.00.912,forced_choiceRT_color,2021.2.3,Win32,30.0120048,,,,,,,,6,Ontime,short,f,1,1.904,6,0,24,1,1,,,,,
,1.4,,,,,,,,,k,purple,558812eefdf99b14f004b722,2021-09-27_16h11.00.912,forced_choiceRT_color,2021.2.3,Win32,30.0120048,,,,,,,,6,Ontime,short,k,1,1.963,6,1,25,3,1,,,,,
,1.57,,,,,,,,,f,blue,558812eefdf99b14f004b722,2021-09-27_16h11.00.912,forced_choiceRT_color,2021.2.3,Win32,30.0120048,,,,,,,,6,Ontime,short,j,0,1.959,6,2,26,1,1,,,,,
,1,,,,,,,,,d,orange,558812eefdf99b14f004b722,2021-09-27_16h11.00.912,forced_choiceRT_color,2021.2.3,Win32,30.0120048,,,,,,,,6,Slow,short,d,1,2.134,6,3,27,0,1,,,,,
,1.86,,,,,,,,,d,orange,558812eefdf99b14f004b722,2021-09-27_16h11.00.912,forced_choiceRT_color,2021.2.3,Win32,30.0120048,,,,,,,,6,Ontime,short,f,0,1.959,7,0,28,0,1,,,,,
,0.04,,,,,,,,,d,orange,558812eefdf99b14f004b722,2021-09-27_16h11.00.912,forced_choiceRT_color,2021.2.3,Win32,30.0120048,,,,,,,,6,Ontime,short,d,1,1.984,7,1,29,0,1,,,,,
,0.44,,,,,,,,,j,red,558812eefdf99b14f004b722,2021-09-27_16h11.00.912,forced_choiceRT_color,2021.2.3,Win32,30.0120048,,,,,,,,6,Ontime,short,j,1,1.969,7,2,30,2,1,,,,,
,0.95,,,,,,,,,k,purple,558812eefdf99b14f004b722,2021-09-27_16h11.00.912,forced_choiceRT_color,2021.2.3,Win32,30.0120048,,,,,,,,6,Ontime,short,k,1,1.981,7,3,31,3,1,,,,,
,0.72,,,,,,,,,d,orange,558812eefdf99b14f004b722,2021-09-27_16h11.00.912,forced_choiceRT_color,2021.2.3,Win32,30.0120048,,,,,,,,6,Fast,short,d,1,1.842,8,0,32,0,1,,,,,
,0.04,,,,,,,,,k,purple,558812eefdf99b14f004b722,2021-09-27_16h11.00.912,forced_choiceRT_color,2021.2.3,Win32,30.0120048,,,,,,,,6,Ontime,short,k,1,2.061,8,1,33,3,1,,,,,
,1.61,,,,,,,,,j,red,558812eefdf99b14f004b722,2021-09-27_16h11.00.912,forced_choiceRT_color,2021.2.3,Win32,30.0120048,,,,,,,,6,Ontime,short,d,0,1.989,8,2,34,2,1,,,,,
,0.76,,,,,,,,,k,purple,558812eefdf99b14f004b722,2021-09-27_16h11.00.912,forced_choiceRT_color,2021.2.3,Win32,30.0120048,,,,,,,,6,Ontime,short,k,1,1.991,8,3,35,3,1,,,,,
,1.21,,,,,,,,,j,red,558812eefdf99b14f004b722,2021-09-27_16h11.00.912,forced_choiceRT_color,2021.2.3,Win32,30.0120048,,,,,,,,6,Ontime,short,j,1,1.952,9,0,36,2,1,,,,,
,0.87,,,,,,,,,d,orange,558812eefdf99b14f004b722,2021-09-27_16h11.00.912,forced_choiceRT_color,2021.2.3,Win32,30.0120048,,,,,,,,6,Ontime,short,d,1,2.035,9,1,37,0,1,,,,,
,0.95,,,,,,,,,j,red,558812eefdf99b14f004b722,2021-09-27_16h11.00.912,forced_choiceRT_color,2021.2.3,Win32,30.0120048,,,,,,,,6,Ontime,short,j,1,2.005,9,2,38,2,1,,,,,
,1.35,,,,,,,,,d,orange,558812eefdf99b14f004b722,2021-09-27_16h11.00.912,forced_choiceRT_color,2021.2.3,Win32,30.0120048,,,,,,,,6,Ontime,short,d,1,1.987,9,3,39,0,1,,,,,
,,,,,,,,,,,,558812eefdf99b14f004b722,2021-09-27_16h11.00.912,forced_choiceRT_color,2021.2.3,Win32,30.0120048,,,,,,,,,,,,,,,,,,,5,0,5,0,1
,1.73,,,,,,,,,d,orange,558812eefdf99b14f004b722,2021-09-27_16h11.00.912,forced_choiceRT_color,2021.2.3,Win32,30.0120048,,,,,,,,7,Slow,short,j,0,2.112,0,0,0,0,1,,,,,
,0.41,,,,,,,,,k,purple,558812eefdf99b14f004b722,2021-09-27_16h11.00.912,forced_choiceRT_color,2021.2.3,Win32,30.0120048,,,,,,,,7,Ontime,short,k,1,1.966,0,1,1,3,1,,,,,
,0.14,,,,,,,,,j,red,558812eefdf99b14f004b722,2021-09-27_16h11.00.912,forced_choiceRT_color,2021.2.3,Win32,30.0120048,,,,,,,,7,Ontime,short,j,1,1.969,0,2,2,2,1,,,,,
,1.61,,,,,,,,,f,blue,558812eefdf99b14f004b722,2021-09-27_16h11.00.912,forced_choiceRT_color,2021.2.3,Win32,30.0120048,,,,,,,,7,Ontime,short,j,0,2.063,0,3,3,1,1,,,,,
,1.68,,,,,,,,,d,orange,558812eefdf99b14f004b722,2021-09-27_16h11.00.912,forced_choiceRT_color,2021.2.3,Win32,30.0120048,,,,,,,,7,Ontime,short,j,0,2.044,1,0,4,0,1,,,,,
,0.84,,,,,,,,,f,blue,558812eefdf99b14f004b722,2021-09-27_16h11.00.912,forced_choiceRT_color,2021.2.3,Win32,30.0120048,,,,,,,,7,Ontime,short,f,1,1.975,1,1,5,1,1,,,,,
,1.4,,,,,,,,,k,purple,558812eefdf99b14f004b722,2021-09-27_16h11.00.912,forced_choiceRT_color,2021.2.3,Win32,30.0120048,,,,,,,,7,Ontime,short,f,0,2.043,1,2,6,3,1,,,,,
,1.65,,,,,,,,,f,blue,558812eefdf99b14f004b722,2021-09-27_16h11.00.912,forced_choiceRT_color,2021.2.3,Win32,30.0120048,,,,,,,,7,Ontime,short,k,0,2.051,1,3,7,1,1,,,,,
,1.21,,,,,,,,,d,orange,558812eefdf99b14f004b722,2021-09-27_16h11.00.912,forced_choiceRT_color,2021.2.3,Win32,30.0120048,,,,,,,,7,Ontime,short,d,1,2.097,2,0,8,0,1,,,,,
,0.66,,,,,,,,,k,purple,558812eefdf99b14f004b722,2021-09-27_16h11.00.912,forced_choiceRT_color,2021.2.3,Win32,30.0120048,,,,,,,,7,Slow,short,k,1,2.122,2,1,9,3,1,,,,,
,0.27,,,,,,,,,j,red,558812eefdf99b14f004b722,2021-09-27_16h11.00.912,forced_choiceRT_color,2021.2.3,Win32,30.0120048,,,,,,,,7,Slow,short,j,1,2.129,2,2,10,2,1,,,,,
,0.08,,,,,,,,,k,purple,558812eefdf99b14f004b722,2021-09-27_16h11.00.912,forced_choiceRT_color,2021.2.3,Win32,30.0120048,,,,,,,,7,Ontime,short,f,0,2.036,2,3,11,3,1,,,,,
,0,,,,,,,,,j,red,558812eefdf99b14f004b722,2021-09-27_16h11.00.912,forced_choiceRT_color,2021.2.3,Win32,30.0120048,,,,,,,,7,Ontime,short,j,1,2.013,3,0,12,2,1,,,,,
,1.52,,,,,,,,,f,blue,558812eefdf99b14f004b722,2021-09-27_16h11.00.912,forced_choiceRT_color,2021.2.3,Win32,30.0120048,,,,,,,,7,Ontime,short,k,0,1.948,3,1,13,1,1,,,,,
,0.03,,,,,,,,,d,orange,558812eefdf99b14f004b722,2021-09-27_16h11.00.912,forced_choiceRT_color,2021.2.3,Win32,30.0120048,,,,,,,,7,Ontime,short,d,1,1.982,3,2,14,0,1,,,,,
,0.65,,,,,,,,,j,red,558812eefdf99b14f004b722,2021-09-27_16h11.00.912,forced_choiceRT_color,2021.2.3,Win32,30.0120048,,,,,,,,7,Ontime,short,j,1,1.996,3,3,15,2,1,,,,,
,0.12,,,,,,,,,f,blue,558812eefdf99b14f004b722,2021-09-27_16h11.00.912,forced_choiceRT_color,2021.2.3,Win32,30.0120048,,,,,,,,7,Slow,short,f,1,2.104,4,0,16,1,1,,,,,
,1.83,,,,,,,,,f,blue,558812eefdf99b14f004b722,2021-09-27_16h11.00.912,forced_choiceRT_color,2021.2.3,Win32,30.0120048,,,,,,,,7,Ontime,short,d,0,2.005,4,1,17,1,1,,,,,
,1.27,,,,,,,,,d,orange,558812eefdf99b14f004b722,2021-09-27_16h11.00.912,forced_choiceRT_color,2021.2.3,Win32,30.0120048,,,,,,,,7,Slow,short,f,0,2.123,4,2,18,0,1,,,,,
,1.49,,,,,,,,,j,red,558812eefdf99b14f004b722,2021-09-27_16h11.00.912,forced_choiceRT_color,2021.2.3,Win32,30.0120048,,,,,,,,7,Ontime,short,d,0,2.022,4,3,19,2,1,,,,,
,1.47,,,,,,,,,j,red,558812eefdf99b14f004b722,2021-09-27_16h11.00.912,forced_choiceRT_color,2021.2.3,Win32,30.0120048,,,,,,,,7,Fast,short,j,1,0.039,5,0,20,2,1,,,,,
,0.76,,,,,,,,,j,red,558812eefdf99b14f004b722,2021-09-27_16h11.00.912,forced_choiceRT_color,2021.2.3,Win32,30.0120048,,,,,,,,7,Ontime,short,j,1,1.982,5,1,21,2,1,,,,,
,0.53,,,,,,,,,k,purple,558812eefdf99b14f004b722,2021-09-27_16h11.00.912,forced_choiceRT_color,2021.2.3,Win32,30.0120048,,,,,,,,7,Ontime,short,k,1,2.024,5,2,22,3,1,,,,,
,1.18,,,,,,,,,f,blue,558812eefdf99b14f004b722,2021-09-27_16h11.00.912,forced_choiceRT_color,2021.2.3,Win32,30.0120048,,,,,,,,7,Ontime,short,f,1,1.961,5,3,23,1,1,,,,,
,0.43,,,,,,,,,k,purple,558812eefdf99b14f004b722,2021-09-27_16h11.00.912,forced_choiceRT_color,2021.2.3,Win32,30.0120048,,,,,,,,7,Ontime,short,k,1,1.975,6,0,24,3,1,,,,,
,1.26,,,,,,,,,k,purple,558812eefdf99b14f004b722,2021-09-27_16h11.00.912,forced_choiceRT_color,2021.2.3,Win32,30.0120048,,,,,,,,7,Ontime,short,k,1,1.954,6,1,25,3,1,,,,,
,1.98,,,,,,,,,k,purple,558812eefdf99b14f004b722,2021-09-27_16h11.00.912,forced_choiceRT_color,2021.2.3,Win32,30.0120048,,,,,,,,7,Slow,short,k,1,2.196,6,2,26,3,1,,,,,
,0.04,,,,,,,,,j,red,558812eefdf99b14f004b722,2021-09-27_16h11.00.912,forced_choiceRT_color,2021.2.3,Win32,30.0120048,,,,,,,,7,Ontime,short,j,1,1.998,6,3,27,2,1,,,,,
,1.79,,,,,,,,,d,orange,558812eefdf99b14f004b722,2021-09-27_16h11.00.912,forced_choiceRT_color,2021.2.3,Win32,30.0120048,,,,,,,,7,Ontime,short,j,0,1.996,7,0,28,0,1,,,,,
,1.34,,,,,,,,,d,orange,558812eefdf99b14f004b722,2021-09-27_16h11.00.912,forced_choiceRT_color,2021.2.3,Win32,30.0120048,,,,,,,,7,Fast,short,f,0,1.894,7,1,29,0,1,,,,,
,0.78,,,,,,,,,f,blue,558812eefdf99b14f004b722,2021-09-27_16h11.00.912,forced_choiceRT_color,2021.2.3,Win32,30.0120048,,,,,,,,7,Ontime,short,j,0,1.913,7,2,30,1,1,,,,,
,1.44,,,,,,,,,f,blue,558812eefdf99b14f004b722,2021-09-27_16h11.00.912,forced_choiceRT_color,2021.2.3,Win32,30.0120048,,,,,,,,7,Ontime,short,k,0,1.989,7,3,31,1,1,,,,,
,0.28,,,,,,,,,k,purple,558812eefdf99b14f004b722,2021-09-27_16h11.00.912,forced_choiceRT_color,2021.2.3,Win32,30.0120048,,,,,,,,7,Fast,short,k,1,1.876,8,0,32,3,1,,,,,
,0.54,,,,,,,,,k,purple,558812eefdf99b14f004b722,2021-09-27_16h11.00.912,forced_choiceRT_color,2021.2.3,Win32,30.0120048,,,,,,,,7,Ontime,short,k,1,1.975,8,1,33,3,1,,,,,
,0.91,,,,,,,,,j,red,558812eefdf99b14f004b722,2021-09-27_16h11.00.912,forced_choiceRT_color,2021.2.3,Win32,30.0120048,,,,,,,,7,Ontime,short,d,0,1.985,8,2,34,2,1,,,,,
,1.62,,,,,,,,,d,orange,558812eefdf99b14f004b722,2021-09-27_16h11.00.912,forced_choiceRT_color,2021.2.3,Win32,30.0120048,,,,,,,,7,Ontime,short,k,0,2.024,8,3,35,0,1,,,,,
,1.78,,,,,,,,,d,orange,558812eefdf99b14f004b722,2021-09-27_16h11.00.912,forced_choiceRT_color,2021.2.3,Win32,30.0120048,,,,,,,,7,Ontime,short,d,1,2.051,9,0,36,0,1,,,,,
,0.74,,,,,,,,,f,blue,558812eefdf99b14f004b722,2021-09-27_16h11.00.912,forced_choiceRT_color,2021.2.3,Win32,30.0120048,,,,,,,,7,Ontime,short,f,1,1.93,9,1,37,1,1,,,,,
,0.14,,,,,,,,,j,red,558812eefdf99b14f004b722,2021-09-27_16h11.00.912,forced_choiceRT_color,2021.2.3,Win32,30.0120048,,,,,,,,7,Ontime,short,j,1,1.933,9,2,38,2,1,,,,,
,1.53,,,,,,,,,d,orange,558812eefdf99b14f004b722,2021-09-27_16h11.00.912,forced_choiceRT_color,2021.2.3,Win32,30.0120048,,,,,,,,7,Ontime,short,k,0,2.009,9,3,39,0,1,,,,,
,,,,,,,,,,,,558812eefdf99b14f004b722,2021-09-27_16h11.00.912,forced_choiceRT_color,2021.2.3,Win32,30.0120048,,,,,,,,,,,,,,,,,,,6,0,6,0,1
,1.8,,,,,,,,,k,purple,558812eefdf99b14f004b722,2021-09-27_16h11.00.912,forced_choiceRT_color,2021.2.3,Win32,30.0120048,,,,,,,,8,Ontime,short,d,0,1.989,0,0,0,3,1,,,,,
,1.46,,,,,,,,,f,blue,558812eefdf99b14f004b722,2021-09-27_16h11.00.912,forced_choiceRT_color,2021.2.3,Win32,30.0120048,,,,,,,,8,Ontime,short,k,0,1.98,0,1,1,1,1,,,,,
,1.62,,,,,,,,,j,red,558812eefdf99b14f004b722,2021-09-27_16h11.00.912,forced_choiceRT_color,2021.2.3,Win32,30.0120048,,,,,,,,8,Ontime,short,f,0,1.971,0,2,2,2,1,,,,,
,1.93,,,,,,,,,f,blue,558812eefdf99b14f004b722,2021-09-27_16h11.00.912,forced_choiceRT_color,2021.2.3,Win32,30.0120048,,,,,,,,8,Ontime,short,j,0,1.931,0,3,3,1,1,,,,,
,0.72,,,,,,,,,d,orange,558812eefdf99b14f004b722,2021-09-27_16h11.00.912,forced_choiceRT_color,2021.2.3,Win32,30.0120048,,,,,,,,8,Fast,short,d,1,1.841,1,0,4,0,1,,,,,
,1.38,,,,,,,,,k,purple,558812eefdf99b14f004b722,2021-09-27_16h11.00.912,forced_choiceRT_color,2021.2.3,Win32,30.0120048,,,,,,,,8,Fast,short,d,0,1.882,1,1,5,3,1,,,,,
,0.76,,,,,,,,,d,orange,558812eefdf99b14f004b722,2021-09-27_16h11.00.912,forced_choiceRT_color,2021.2.3,Win32,30.0120048,,,,,,,,8,Ontime,short,d,1,1.996,1,2,6,0,1,,,,,
,1.07,,,,,,,,,f,blue,558812eefdf99b14f004b722,2021-09-27_16h11.00.912,forced_choiceRT_color,2021.2.3,Win32,30.0120048,,,,,,,,8,Ontime,short,f,1,2.046,1,3,7,1,1,,,,,
,1.17,,,,,,,,,f,blue,558812eefdf99b14f004b722,2021-09-27_16h11.00.912,forced_choiceRT_color,2021.2.3,Win32,30.0120048,,,,,,,,8,Ontime,short,f,1,2.01,2,0,8,1,1,,,,,
,1,,,,,,,,,f,blue,558812eefdf99b14f004b722,2021-09-27_16h11.00.912,forced_choiceRT_color,2021.2.3,Win32,30.0120048,,,,,,,,8,Ontime,short,f,1,2.07,2,1,9,1,1,,,,,
,1.68,,,,,,,,,d,orange,558812eefdf99b14f004b722,2021-09-27_16h11.00.912,forced_choiceRT_color,2021.2.3,Win32,30.0120048,,,,,,,,8,Ontime,short,k,0,2.076,2,2,10,0,1,,,,,
,0.36,,,,,,,,,f,blue,558812eefdf99b14f004b722,2021-09-27_16h11.00.912,forced_choiceRT_color,2021.2.3,Win32,30.0120048,,,,,,,,8,Ontime,short,f,1,1.966,2,3,11,1,1,,,,,
,0.85,,,,,,,,,d,orange,558812eefdf99b14f004b722,2021-09-27_16h11.00.912,forced_choiceRT_color,2021.2.3,Win32,30.0120048,,,,,,,,8,Ontime,short,d,1,2.023,3,0,12,0,1,,,,,
,0.04,,,,,,,,,k,purple,558812eefdf99b14f004b722,2021-09-27_16h11.00.912,forced_choiceRT_color,2021.2.3,Win32,30.0120048,,,,,,,,8,Ontime,short,k,1,2.031,3,1,13,3,1,,,,,
,0.31,,,,,,,,,k,purple,558812eefdf99b14f004b722,2021-09-27_16h11.00.912,forced_choiceRT_color,2021.2.3,Win32,30.0120048,,,,,,,,8,Ontime,short,k,1,1.941,3,2,14,3,1,,,,,
,1.94,,,,,,,,,j,red,558812eefdf99b14f004b722,2021-09-27_16h11.00.912,forced_choiceRT_color,2021.2.3,Win32,30.0120048,,,,,,,,8,Ontime,short,k,0,1.973,3,3,15,2,1,,,,,
,1.82,,,,,,,,,j,red,558812eefdf99b14f004b722,2021-09-27_16h11.00.912,forced_choiceRT_color,2021.2.3,Win32,30.0120048,,,,,,,,8,Ontime,short,k,0,2.072,4,0,16,2,1,,,,,
,0.36,,,,,,,,,d,orange,558812eefdf99b14f004b722,2021-09-27_16h11.00.912,forced_choiceRT_color,2021.2.3,Win32,30.0120048,,,,,,,,8,Ontime,short,d,1,1.972,4,1,17,0,1,,,,,
,0.27,,,,,,,,,f,blue,558812eefdf99b14f004b722,2021-09-27_16h11.00.912,forced_choiceRT_color,2021.2.3,Win32,30.0120048,,,,,,,,8,Ontime,short,f,1,2.061,4,2,18,1,1,,,,,
,0.97,,,,,,,,,k,purple,558812eefdf99b14f004b722,2021-09-27_16h11.00.912,forced_choiceRT_color,2021.2.3,Win32,30.0120048,,,,,,,,8,Ontime,short,k,1,1.971,4,3,19,3,1,,,,,
,1.98,,,,,,,,,k,purple,558812eefdf99b14f004b722,2021-09-27_16h11.00.912,forced_choiceRT_color,2021.2.3,Win32,30.0120048,,,,,,,,8,Ontime,short,j,0,2.019,5,0,20,3,1,,,,,
,1.96,,,,,,,,,k,purple,558812eefdf99b14f004b722,2021-09-27_16h11.00.912,forced_choiceRT_color,2021.2.3,Win32,30.0120048,,,,,,,,8,Ontime,short,j,0,1.952,5,1,21,3,1,,,,,
,0.63,,,,,,,,,d,orange,558812eefdf99b14f004b722,2021-09-27_16h11.00.912,forced_choiceRT_color,2021.2.3,Win32,30.0120048,,,,,,,,8,Ontime,short,d,1,1.971,5,2,22,0,1,,,,,
,0.05,,,,,,,,,d,orange,558812eefdf99b14f004b722,2021-09-27_16h11.00.912,forced_choiceRT_color,2021.2.3,Win32,30.0120048,,,,,,,,8,Ontime,short,d,1,2.004,5,3,23,0,1,,,,,
,0.15,,,,,,,,,k,purple,558812eefdf99b14f004b722,2021-09-27_16h11.00.912,forced_choiceRT_color,2021.2.3,Win32,30.0120048,,,,,,,,8,Ontime,short,k,1,2.026,6,0,24,3,1,,,,,
,1.22,,,,,,,,,j,red,558812eefdf99b14f004b722,2021-09-27_16h11.00.912,forced_choiceRT_color,2021.2.3,Win32,30.0120048,,,,,,,,8,Ontime,short,j,1,2.005,6,1,25,2,1,,,,,
,1.3,,,,,,,,,j,red,558812eefdf99b14f004b722,2021-09-27_16h11.00.912,forced_choiceRT_color,2021.2.3,Win32,30.0120048,,,,,,,,8,Ontime,short,j,1,1.989,6,2,26,2,1,,,,,
,1.7,,,,,,,,,f,blue,558812eefdf99b14f004b722,2021-09-27_16h11.00.912,forced_choiceRT_color,2021.2.3,Win32,30.0120048,,,,,,,,8,Ontime,short,j,0,1.965,6,3,27,1,1,,,,,
,1.39,,,,,,,,,j,red,558812eefdf99b14f004b722,2021-09-27_16h11.00.912,forced_choiceRT_color,2021.2.3,Win32,30.0120048,,,,,,,,8,Slow,short,j,1,2.109,7,0,28,2,1,,,,,
,1.67,,,,,,,,,j,red,558812eefdf99b14f004b722,2021-09-27_16h11.00.912,forced_choiceRT_color,2021.2.3,Win32,30.0120048,,,,,,,,8,Ontime,short,k,0,2.023,7,1,29,2,1,,,,,
,0.49,,,,,,,,,f,blue,558812eefdf99b14f004b722,2021-09-27_16h11.00.912,forced_choiceRT_color,2021.2.3,Win32,30.0120048,,,,,,,,8,Slow,short,f,1,2.1,7,2,30,1,1,,,,,
,0.84,,,,,,,,,j,red,558812eefdf99b14f004b722,2021-09-27_16h11.00.912,forced_choiceRT_color,2021.2.3,Win32,30.0120048,,,,,,,,8,Ontime,short,j,1,1.959,7,3,31,2,1,,,,,
,0.88,,,,,,,,,d,orange,558812eefdf99b14f004b722,2021-09-27_16h11.00.912,forced_choiceRT_color,2021.2.3,Win32,30.0120048,,,,,,,,8,Ontime,short,d,1,1.984,8,0,32,0,1,,,,,
,1.74,,,,,,,,,f,blue,558812eefdf99b14f004b722,2021-09-27_16h11.00.912,forced_choiceRT_color,2021.2.3,Win32,30.0120048,,,,,,,,8,Ontime,short,d,0,1.939,8,1,33,1,1,,,,,
,0.77,,,,,,,,,j,red,558812eefdf99b14f004b722,2021-09-27_16h11.00.912,forced_choiceRT_color,2021.2.3,Win32,30.0120048,,,,,,,,8,Ontime,short,j,1,1.961,8,2,34,2,1,,,,,
,1.93,,,,,,,,,d,orange,558812eefdf99b14f004b722,2021-09-27_16h11.00.912,forced_choiceRT_color,2021.2.3,Win32,30.0120048,,,,,,,,8,Ontime,short,j,0,1.948,8,3,35,0,1,,,,,
,1.48,,,,,,,,,k,purple,558812eefdf99b14f004b722,2021-09-27_16h11.00.912,forced_choiceRT_color,2021.2.3,Win32,30.0120048,,,,,,,,8,Ontime,short,k,1,2.017,9,0,36,3,1,,,,,
,0.14,,,,,,,,,d,orange,558812eefdf99b14f004b722,2021-09-27_16h11.00.912,forced_choiceRT_color,2021.2.3,Win32,30.0120048,,,,,,,,8,Fast,short,d,1,1.883,9,1,37,0,1,,,,,
,0.97,,,,,,,,,j,red,558812eefdf99b14f004b722,2021-09-27_16h11.00.912,forced_choiceRT_color,2021.2.3,Win32,30.0120048,,,,,,,,8,Ontime,short,j,1,1.947,9,2,38,2,1,,,,,
,1.92,,,,,,,,,k,purple,558812eefdf99b14f004b722,2021-09-27_16h11.00.912,forced_choiceRT_color,2021.2.3,Win32,30.0120048,,,,,,,,8,Ontime,short,j,0,2.011,9,3,39,3,1,,,,,
,,,,,,,,,,,,558812eefdf99b14f004b722,2021-09-27_16h11.00.912,forced_choiceRT_color,2021.2.3,Win32,30.0120048,,,,,,,,,,,,,,,,,,,7,0,7,0,1
,0.17,,,,,,,,,d,orange,558812eefdf99b14f004b722,2021-09-27_16h11.00.912,forced_choiceRT_color,2021.2.3,Win32,30.0120048,,,,,,,,9,Slow,short,d,1,2.128,0,0,0,0,1,,,,,
,0.89,,,,,,,,,d,orange,558812eefdf99b14f004b722,2021-09-27_16h11.00.912,forced_choiceRT_color,2021.2.3,Win32,30.0120048,,,,,,,,9,Ontime,short,d,1,2.056,0,1,1,0,1,,,,,
,0.28,,,,,,,,,f,blue,558812eefdf99b14f004b722,2021-09-27_16h11.00.912,forced_choiceRT_color,2021.2.3,Win32,30.0120048,,,,,,,,9,Ontime,short,f,1,1.994,0,2,2,1,1,,,,,
,0.33,,,,,,,,,f,blue,558812eefdf99b14f004b722,2021-09-27_16h11.00.912,forced_choiceRT_color,2021.2.3,Win32,30.0120048,,,,,,,,9,Ontime,short,f,1,1.959,0,3,3,1,1,,,,,
,1.3,,,,,,,,,d,orange,558812eefdf99b14f004b722,2021-09-27_16h11.00.912,forced_choiceRT_color,2021.2.3,Win32,30.0120048,,,,,,,,9,Fast,short,d,1,1.895,1,0,4,0,1,,,,,
,1.37,,,,,,,,,d,orange,558812eefdf99b14f004b722,2021-09-27_16h11.00.912,forced_choiceRT_color,2021.2.3,Win32,30.0120048,,,,,,,,9,Ontime,short,d,1,1.97,1,1,5,0,1,,,,,
,1.43,,,,,,,,,d,orange,558812eefdf99b14f004b722,2021-09-27_16h11.00.912,forced_choiceRT_color,2021.2.3,Win32,30.0120048,,,,,,,,9,Ontime,short,d,1,2.067,1,2,6,0,1,,,,,
,1.64,,,,,,,,,f,blue,558812eefdf99b14f004b722,2021-09-27_16h11.00.912,forced_choiceRT_color,2021.2.3,Win32,30.0120048,,,,,,,,9,Ontime,short,d,0,2.054,1,3,7,1,1,,,,,
,1.18,,,,,,,,,k,purple,558812eefdf99b14f004b722,2021-09-27_16h11.00.912,forced_choiceRT_color,2021.2.3,Win32,30.0120048,,,,,,,,9,Fast,short,f,0,0.049,2,0,8,3,1,,,,,
,0.9,,,,,,,,,k,purple,558812eefdf99b14f004b722,2021-09-27_16h11.00.912,forced_choiceRT_color,2021.2.3,Win32,30.0120048,,,,,,,,9,Ontime,short,k,1,2.034,2,1,9,3,1,,,,,
,1.27,,,,,,,,,f,blue,558812eefdf99b14f004b722,2021-09-27_16h11.00.912,forced_choiceRT_color,2021.2.3,Win32,30.0120048,,,,,,,,9,Ontime,short,j,0,2.088,2,2,10,1,1,,,,,
,0.27,,,,,,,,,f,blue,558812eefdf99b14f004b722,2021-09-27_16h11.00.912,forced_choiceRT_color,2021.2.3,Win32,30.0120048,,,,,,,,9,Ontime,short,f,1,2.057,2,3,11,1,1,,,,,
,1.21,,,,,,,,,k,purple,558812eefdf99b14f004b722,2021-09-27_16h11.00.912,forced_choiceRT_color,2021.2.3,Win32,30.0120048,,,,,,,,9,Ontime,short,k,1,2.049,3,0,12,3,1,,,,,
,0.45,,,,,,,,,k,purple,558812eefdf99b14f004b722,2021-09-27_16h11.00.912,forced_choiceRT_color,2021.2.3,Win32,30.0120048,,,,,,,,9,Ontime,short,k,1,2.056,3,1,13,3,1,,,,,
,1.14,,,,,,,,,j,red,558812eefdf99b14f004b722,2021-09-27_16h11.00.912,forced_choiceRT_color,2021.2.3,Win32,30.0120048,,,,,,,,9,Ontime,short,j,1,2.059,3,2,14,2,1,,,,,
,0.24,,,,,,,,,j,red,558812eefdf99b14f004b722,2021-09-27_16h11.00.912,forced_choiceRT_color,2021.2.3,Win32,30.0120048,,,,,,,,9,Ontime,short,j,1,2.001,3,3,15,2,1,,,,,
,1.02,,,,,,,,,f,blue,558812eefdf99b14f004b722,2021-09-27_16h11.00.912,forced_choiceRT_color,2021.2.3,Win32,30.0120048,,,,,,,,9,Ontime,short,f,1,1.908,4,0,16,1,1,,,,,
,1.48,,,,,,,,,f,blue,558812eefdf99b14f004b722,2021-09-27_16h11.00.912,forced_choiceRT_color,2021.2.3,Win32,30.0120048,,,,,,,,9,Ontime,short,f,1,2.015,4,1,17,1,1,,,,,
,1.1,,,,,,,,,d,orange,558812eefdf99b14f004b722,2021-09-27_16h11.00.912,forced_choiceRT_color,2021.2.3,Win32,30.0120048,,,,,,,,9,Ontime,short,d,1,2.039,4,2,18,0,1,,,,,
,1.88,,,,,,,,,j,red,558812eefdf99b14f004b722,2021-09-27_16h11.00.912,forced_choiceRT_color,2021.2.3,Win32,30.0120048,,,,,,,,9,Ontime,short,f,0,2.051,4,3,19,2,1,,,,,
,1.35,,,,,,,,,j,red,558812eefdf99b14f004b722,2021-09-27_16h11.00.912,forced_choiceRT_color,2021.2.3,Win32,30.0120048,,,,,,,,9,Ontime,short,j,1,2.084,5,0,20,2,1,,,,,
,1.97,,,,,,,,,k,purple,558812eefdf99b14f004b722,2021-09-27_16h11.00.912,forced_choiceRT_color,2021.2.3,Win32,30.0120048,,,,,,,,9,Fast,short,f,0,0.039,5,1,21,3,1,,,,,
,0.63,,,,,,,,,k,purple,558812eefdf99b14f004b722,2021-09-27_16h11.00.912,forced_choiceRT_color,2021.2.3,Win32,30.0120048,,,,,,,,9,Ontime,short,k,1,2.049,5,2,22,3,1,,,,,
,0.36,,,,,,,,,j,red,558812eefdf99b14f004b722,2021-09-27_16h11.00.912,forced_choiceRT_color,2021.2.3,Win32,30.0120048,,,,,,,,9,Ontime,short,j,1,2.058,5,3,23,2,1,,,,,
,1.41,,,,,,,,,f,blue,558812eefdf99b14f004b722,2021-09-27_16h11.00.912,forced_choiceRT_color,2021.2.3,Win32,30.0120048,,,,,,,,9,Ontime,short,d,0,2.018,6,0,24,1,1,,,,,
,0.77,,,,,,,,,f,blue,558812eefdf99b14f004b722,2021-09-27_16h11.00.912,forced_choiceRT_color,2021.2.3,Win32,30.0120048,,,,,,,,9,Fast,short,k,0,0.04,6,1,25,1,1,,,,,
,0.14,,,,,,,,,f,blue,558812eefdf99b14f004b722,2021-09-27_16h11.00.912,forced_choiceRT_color,2021.2.3,Win32,30.0120048,,,,,,,,9,Ontime,short,f,1,2.078,6,2,26,1,1,,,,,
,1.23,,,,,,,,,d,orange,558812eefdf99b14f004b722,2021-09-27_16h11.00.912,forced_choiceRT_color,2021.2.3,Win32,30.0120048,,,,,,,,9,Ontime,short,d,1,1.994,6,3,27,0,1,,,,,
,0.87,,,,,,,,,j,red,558812eefdf99b14f004b722,2021-09-27_16h11.00.912,forced_choiceRT_color,2021.2.3,Win32,30.0120048,,,,,,,,9,Ontime,short,j,1,2.056,7,0,28,2,1,,,,,
,1.4,,,,,,,,,j,red,558812eefdf99b14f004b722,2021-09-27_16h11.00.912,forced_choiceRT_color,2021.2.3,Win32,30.0120048,,,,,,,,9,Ontime,short,f,0,2.011,7,1,29,2,1,,,,,
,1.19,,,,,,,,,j,red,558812eefdf99b14f004b722,2021-09-27_16h11.00.912,forced_choiceRT_color,2021.2.3,Win32,30.0120048,,,,,,,,9,Fast,short,j,1,0.102,7,2,30,2,1,,,,,
,0.32,,,,,,,,,k,purple,558812eefdf99b14f004b722,2021-09-27_16h11.00.912,forced_choiceRT_color,2021.2.3,Win32,30.0120048,,,,,,,,9,Ontime,short,k,1,1.963,7,3,31,3,1,,,,,
,0.41,,,,,,,,,j,red,558812eefdf99b14f004b722,2021-09-27_16h11.00.912,forced_choiceRT_color,2021.2.3,Win32,30.0120048,,,,,,,,9,Ontime,short,j,1,1.959,8,0,32,2,1,,,,,
,0.87,,,,,,,,,k,purple,558812eefdf99b14f004b722,2021-09-27_16h11.00.912,forced_choiceRT_color,2021.2.3,Win32,30.0120048,,,,,,,,9,Ontime,short,k,1,1.916,8,1,33,3,1,,,,,
,0.43,,,,,,,,,k,purple,558812eefdf99b14f004b722,2021-09-27_16h11.00.912,forced_choiceRT_color,2021.2.3,Win32,30.0120048,,,,,,,,9,Ontime,short,k,1,1.948,8,2,34,3,1,,,,,
,1.65,,,,,,,,,d,orange,558812eefdf99b14f004b722,2021-09-27_16h11.00.912,forced_choiceRT_color,2021.2.3,Win32,30.0120048,,,,,,,,9,Ontime,short,k,0,1.997,8,3,35,0,1,,,,,
,0,,,,,,,,,j,red,558812eefdf99b14f004b722,2021-09-27_16h11.00.912,forced_choiceRT_color,2021.2.3,Win32,30.0120048,,,,,,,,9,Slow,short,j,1,2.138,9,0,36,2,1,,,,,
,0.31,,,,,,,,,d,orange,558812eefdf99b14f004b722,2021-09-27_16h11.00.912,forced_choiceRT_color,2021.2.3,Win32,30.0120048,,,,,,,,9,Slow,short,d,1,2.154,9,1,37,0,1,,,,,
,0.6,,,,,,,,,d,orange,558812eefdf99b14f004b722,2021-09-27_16h11.00.912,forced_choiceRT_color,2021.2.3,Win32,30.0120048,,,,,,,,9,Ontime,short,d,1,2.071,9,2,38,0,1,,,,,
,1.99,,,,,,,,,k,purple,558812eefdf99b14f004b722,2021-09-27_16h11.00.912,forced_choiceRT_color,2021.2.3,Win32,30.0120048,,,,,,,,9,Ontime,short,d,0,2.063,9,3,39,3,1,,,,,
,,,,,,,,,,,,558812eefdf99b14f004b722,2021-09-27_16h11.00.912,forced_choiceRT_color,2021.2.3,Win32,30.0120048,,,,,,,,,,,,,,,,,,,8,0,8,0,1
,1.36,,,,,,,,,d,orange,558812eefdf99b14f004b722,2021-09-27_16h11.00.912,forced_choiceRT_color,2021.2.3,Win32,30.0120048,,,,,,,,10,Ontime,short,d,1,2.061,0,0,0,0,1,,,,,
,1.22,,,,,,,,,f,blue,558812eefdf99b14f004b722,2021-09-27_16h11.00.912,forced_choiceRT_color,2021.2.3,Win32,30.0120048,,,,,,,,10,Ontime,short,k,0,2.09,0,1,1,1,1,,,,,
,0.13,,,,,,,,,f,blue,558812eefdf99b14f004b722,2021-09-27_16h11.00.912,forced_choiceRT_color,2021.2.3,Win32,30.0120048,,,,,,,,10,Ontime,short,f,1,1.994,0,2,2,1,1,,,,,
,0.2,,,,,,,,,j,red,558812eefdf99b14f004b722,2021-09-27_16h11.00.912,forced_choiceRT_color,2021.2.3,Win32,30.0120048,,,,,,,,10,Ontime,short,j,1,2.006,0,3,3,2,1,,,,,
,0.48,,,,,,,,,k,purple,558812eefdf99b14f004b722,2021-09-27_16h11.00.912,forced_choiceRT_color,2021.2.3,Win32,30.0120048,,,,,,,,10,Ontime,short,k,1,1.998,1,0,4,3,1,,,,,
,0.54,,,,,,,,,j,red,558812eefdf99b14f004b722,2021-09-27_16h11.00.912,forced_choiceRT_color,2021.2.3,Win32,30.0120048,,,,,,,,10,Ontime,short,j,1,1.95,1,1,5,2,1,,,,,
,0.96,,,,,,,,,f,blue,558812eefdf99b14f004b722,2021-09-27_16h11.00.912,forced_choiceRT_color,2021.2.3,Win32,30.0120048,,,,,,,,10,Ontime,short,f,1,1.937,1,2,6,1,1,,,,,
,1.1,,,,,,,,,k,purple,558812eefdf99b14f004b722,2021-09-27_16h11.00.912,forced_choiceRT_color,2021.2.3,Win32,30.0120048,,,,,,,,10,Ontime,short,k,1,1.965,1,3,7,3,1,,,,,
,0.7,,,,,,,,,f,blue,558812eefdf99b14f004b722,2021-09-27_16h11.00.912,forced_choiceRT_color,2021.2.3,Win32,30.0120048,,,,,,,,10,Ontime,short,f,1,1.976,2,0,8,1,1,,,,,
,0.23,,,,,,,,,f,blue,558812eefdf99b14f004b722,2021-09-27_16h11.00.912,forced_choiceRT_color,2021.2.3,Win32,30.0120048,,,,,,,,10,Ontime,short,f,1,1.94,2,1,9,1,1,,,,,
,0.89,,,,,,,,,f,blue,558812eefdf99b14f004b722,2021-09-27_16h11.00.912,forced_choiceRT_color,2021.2.3,Win32,30.0120048,,,,,,,,10,Ontime,short,f,1,2.028,2,2,10,1,1,,,,,
,0.72,,,,,,,,,j,red,558812eefdf99b14f004b722,2021-09-27_16h11.00.912,forced_choiceRT_color,2021.2.3,Win32,30.0120048,,,,,,,,10,Ontime,short,j,1,1.919,2,3,11,2,1,,,,,
,0.12,,,,,,,,,f,blue,558812eefdf99b14f004b722,2021-09-27_16h11.00.912,forced_choiceRT_color,2021.2.3,Win32,30.0120048,,,,,,,,10,Ontime,short,f,1,2.018,3,0,12,1,1,,,,,
,1.62,,,,,,,,,k,purple,558812eefdf99b14f004b722,2021-09-27_16h11.00.912,forced_choiceRT_color,2021.2.3,Win32,30.0120048,,,,,,,,10,Fast,short,f,0,1.859,3,1,13,3,1,,,,,
,0.93,,,,,,,,,d,orange,558812eefdf99b14f004b722,2021-09-27_16h11.00.912,forced_choiceRT_color,2021.2.3,Win32,30.0120048,,,,,,,,10,Slow,short,d,1,2.151,3,2,14,0,1,,,,,
,1.14,,,,,,,,,k,purple,558812eefdf99b14f004b722,2021-09-27_16h11.00.912,forced_choiceRT_color,2021.2.3,Win32,30.0120048,,,,,,,,10,Ontime,short,k,1,2.083,3,3,15,3,1,,,,,
,0.5,,,,,,,,,d,orange,558812eefdf99b14f004b722,2021-09-27_16h11.00.912,forced_choiceRT_color,2021.2.3,Win32,30.0120048,,,,,,,,10,Ontime,short,d,1,1.981,4,0,16,0,1,,,,,
,0.18,,,,,,,,,k,purple,558812eefdf99b14f004b722,2021-09-27_16h11.00.912,forced_choiceRT_color,2021.2.3,Win32,30.0120048,,,,,,,,10,Ontime,short,k,1,1.973,4,1,17,3,1,,,,,
,0.12,,,,,,,,,k,purple,558812eefdf99b14f004b722,2021-09-27_16h11.00.912,forced_choiceRT_color,2021.2.3,Win32,30.0120048,,,,,,,,10,Ontime,short,k,1,1.98,4,2,18,3,1,,,,,
,0.93,,,,,,,,,j,red,558812eefdf99b14f004b722,2021-09-27_16h11.00.912,forced_choiceRT_color,2021.2.3,Win32,30.0120048,,,,,,,,10,Ontime,short,j,1,1.965,4,3,19,2,1,,,,,
,0.93,,,,,,,,,k,purple,558812eefdf99b14f004b722,2021-09-27_16h11.00.912,forced_choiceRT_color,2021.2.3,Win32,30.0120048,,,,,,,,10,Ontime,short,k,1,1.942,5,0,20,3,1,,,,,
,1.96,,,,,,,,,f,blue,558812eefdf99b14f004b722,2021-09-27_16h11.00.912,forced_choiceRT_color,2021.2.3,Win32,30.0120048,,,,,,,,10,Fast,short,k,0,1.842,5,1,21,1,1,,,,,
,1.08,,,,,,,,,j,red,558812eefdf99b14f004b722,2021-09-27_16h11.00.912,forced_choiceRT_color,2021.2.3,Win32,30.0120048,,,,,,,,10,Ontime,short,j,1,1.974,5,2,22,2,1,,,,,
,1.48,,,,,,,,,k,purple,558812eefdf99b14f004b722,2021-09-27_16h11.00.912,forced_choiceRT_color,2021.2.3,Win32,30.0120048,,,,,,,,10,Fast,short,j,0,1.825,5,3,23,3,1,,,,,
,1.61,,,,,,,,,d,orange,558812eefdf99b14f004b722,2021-09-27_16h11.00.912,forced_choiceRT_color,2021.2.3,Win32,30.0120048,,,,,,,,10,Ontime,short,j,0,2.068,6,0,24,0,1,,,,,
,1.83,,,,,,,,,d,orange,558812eefdf99b14f004b722,2021-09-27_16h11.00.912,forced_choiceRT_color,2021.2.3,Win32,30.0120048,,,,,,,,10,Ontime,short,j,0,1.969,6,1,25,0,1,,,,,
,1.69,,,,,,,,,f,blue,558812eefdf99b14f004b722,2021-09-27_16h11.00.912,forced_choiceRT_color,2021.2.3,Win32,30.0120048,,,,,,,,10,Ontime,short,j,0,1.962,6,2,26,1,1,,,,,
,1.54,,,,,,,,,j,red,558812eefdf99b14f004b722,2021-09-27_16h11.00.912,forced_choiceRT_color,2021.2.3,Win32,30.0120048,,,,,,,,10,Ontime,short,k,0,1.921,6,3,27,2,1,,,,,
,0.32,,,,,,,,,k,purple,558812eefdf99b14f004b722,2021-09-27_16h11.00.912,forced_choiceRT_color,2021.2.3,Win32,30.0120048,,,,,,,,10,Fast,short,f,0,1.554,7,0,28,3,1,,,,,
,1.91,,,,,,,,,d,orange,558812eefdf99b14f004b722,2021-09-27_16h11.00.912,forced_choiceRT_color,2021.2.3,Win32,30.0120048,,,,,,,,10,Ontime,short,d,1,1.936,7,1,29,0,1,,,,,
,1.18,,,,,,,,,d,orange,558812eefdf99b14f004b722,2021-09-27_16h11.00.912,forced_choiceRT_color,2021.2.3,Win32,30.0120048,,,,,,,,10,Ontime,short,d,1,1.984,7,2,30,0,1,,,,,
,1.85,,,,,,,,,d,orange,558812eefdf99b14f004b722,2021-09-27_16h11.00.912,forced_choiceRT_color,2021.2.3,Win32,30.0120048,,,,,,,,10,Fast,short,d,1,1.866,7,3,31,0,1,,,,,
,0.68,,,,,,,,,j,red,558812eefdf99b14f004b722,2021-09-27_16h11.00.912,forced_choiceRT_color,2021.2.3,Win32,30.0120048,,,,,,,,10,Fast,short,d,0,1.275,8,0,32,2,1,,,,,
,1.9,,,,,,,,,f,blue,558812eefdf99b14f004b722,2021-09-27_16h11.00.912,forced_choiceRT_color,2021.2.3,Win32,30.0120048,,,,,,,,10,Ontime,short,k,0,1.964,8,1,33,1,1,,,,,
,0.83,,,,,,,,,j,red,558812eefdf99b14f004b722,2021-09-27_16h11.00.912,forced_choiceRT_color,2021.2.3,Win32,30.0120048,,,,,,,,10,Ontime,short,f,0,2,8,2,34,2,1,,,,,
,1.54,,,,,,,,,j,red,558812eefdf99b14f004b722,2021-09-27_16h11.00.912,forced_choiceRT_color,2021.2.3,Win32,30.0120048,,,,,,,,10,Fast,short,j,1,0.095,8,3,35,2,1,,,,,
,1.83,,,,,,,,,d,orange,558812eefdf99b14f004b722,2021-09-27_16h11.00.912,forced_choiceRT_color,2021.2.3,Win32,30.0120048,,,,,,,,10,Slow,short,j,0,2.11,9,0,36,0,1,,,,,
,1.38,,,,,,,,,j,red,558812eefdf99b14f004b722,2021-09-27_16h11.00.912,forced_choiceRT_color,2021.2.3,Win32,30.0120048,,,,,,,,10,Ontime,short,j,1,1.982,9,1,37,2,1,,,,,
,0.93,,,,,,,,,d,orange,558812eefdf99b14f004b722,2021-09-27_16h11.00.912,forced_choiceRT_color,2021.2.3,Win32,30.0120048,,,,,,,,10,Ontime,short,f,0,2.014,9,2,38,0,1,,,,,
,1.73,,,,,,,,,k,purple,558812eefdf99b14f004b722,2021-09-27_16h11.00.912,forced_choiceRT_color,2021.2.3,Win32,30.0120048,,,,,,,,10,Ontime,short,d,0,2.066,9,3,39,3,1,,,,,
,,,,,,,,,,,,558812eefdf99b14f004b722,2021-09-27_16h11.00.912,forced_choiceRT_color,2021.2.3,Win32,30.0120048,,,,,,,,,,,,,,,,,,,9,0,9,0,1
