IP_Addresss,target_onset,trial_resp_sp.keys,trial_resp_sp.corr,trial_resp_sp.rt,trials_train_loop.thisRepN,trials_train_loop.thisTrialN,trials_train_loop.thisN,trials_train_loop.thisIndex,trials_train_loop.ran,correct_key,color,participant,date,expName,psychopyVersion,OS,frameRate,trial_resp_timing.keys,trial_resp_timing.rt,trials_train_timing.thisRepN,trials_train_timing.thisTrialN,trials_train_timing.thisN,trials_train_timing.thisIndex,trials_train_timing.ran,block_id,ontime,feedback_cond,forcedRT_resp.keys,forcedRT_resp.corr,forcedRT_resp.rt,trials.thisRepN,trials.thisTrialN,trials.thisN,trials.thisIndex,trials.ran,blocks.thisRepN,blocks.thisTrialN,blocks.thisN,blocks.thisIndex,blocks.ran
172.56.23.202,0,j,1,1.1901,0,0,0,2,1,j,red,56d9ee15610fc00005b71979,2021-09-27_17h24.28.384,forced_choiceRT_color,2021.2.3,Win32,60.08171113,,,,,,,,,,,,,,,,,,,,,,,
,0,j,1,0.5341,0,1,1,2,1,j,red,56d9ee15610fc00005b71979,2021-09-27_17h24.28.384,forced_choiceRT_color,2021.2.3,Win32,60.08171113,,,,,,,,,,,,,,,,,,,,,,,
,0,k,1,0.534,0,2,2,3,1,k,purple,56d9ee15610fc00005b71979,2021-09-27_17h24.28.384,forced_choiceRT_color,2021.2.3,Win32,60.08171113,,,,,,,,,,,,,,,,,,,,,,,
,0,d,1,0.584,0,3,3,0,1,d,orange,56d9ee15610fc00005b71979,2021-09-27_17h24.28.384,forced_choiceRT_color,2021.2.3,Win32,60.08171113,,,,,,,,,,,,,,,,,,,,,,,
,0,j,1,0.6673,1,0,4,2,1,j,red,56d9ee15610fc00005b71979,2021-09-27_17h24.28.384,forced_choiceRT_color,2021.2.3,Win32,60.08171113,,,,,,,,,,,,,,,,,,,,,,,
,0,f,1,0.7008,1,1,5,1,1,f,blue,56d9ee15610fc00005b71979,2021-09-27_17h24.28.384,forced_choiceRT_color,2021.2.3,Win32,60.08171113,,,,,,,,,,,,,,,,,,,,,,,
,0,d,1,0.6339,1,2,6,0,1,d,orange,56d9ee15610fc00005b71979,2021-09-27_17h24.28.384,forced_choiceRT_color,2021.2.3,Win32,60.08171113,,,,,,,,,,,,,,,,,,,,,,,
,0,d,1,0.5842,1,3,7,0,1,d,orange,56d9ee15610fc00005b71979,2021-09-27_17h24.28.384,forced_choiceRT_color,2021.2.3,Win32,60.08171113,,,,,,,,,,,,,,,,,,,,,,,
,0,f,1,0.5337,2,0,8,1,1,f,blue,56d9ee15610fc00005b71979,2021-09-27_17h24.28.384,forced_choiceRT_color,2021.2.3,Win32,60.08171113,,,,,,,,,,,,,,,,,,,,,,,
,0,d,1,0.5843,2,1,9,0,1,d,orange,56d9ee15610fc00005b71979,2021-09-27_17h24.28.384,forced_choiceRT_color,2021.2.3,Win32,60.08171113,,,,,,,,,,,,,,,,,,,,,,,
,0,d,1,0.4507,2,2,10,0,1,d,orange,56d9ee15610fc00005b71979,2021-09-27_17h24.28.384,forced_choiceRT_color,2021.2.3,Win32,60.08171113,,,,,,,,,,,,,,,,,,,,,,,
,0,j,1,0.7838,2,3,11,2,1,j,red,56d9ee15610fc00005b71979,2021-09-27_17h24.28.384,forced_choiceRT_color,2021.2.3,Win32,60.08171113,,,,,,,,,,,,,,,,,,,,,,,
,0,k,1,0.3678,3,0,12,3,1,k,purple,56d9ee15610fc00005b71979,2021-09-27_17h24.28.384,forced_choiceRT_color,2021.2.3,Win32,60.08171113,,,,,,,,,,,,,,,,,,,,,,,
,0,j,0,0.4169,3,1,13,1,1,f,blue,56d9ee15610fc00005b71979,2021-09-27_17h24.28.384,forced_choiceRT_color,2021.2.3,Win32,60.08171113,,,,,,,,,,,,,,,,,,,,,,,
,0,d,1,0.6675,3,2,14,0,1,d,orange,56d9ee15610fc00005b71979,2021-09-27_17h24.28.384,forced_choiceRT_color,2021.2.3,Win32,60.08171113,,,,,,,,,,,,,,,,,,,,,,,
,0,d,1,0.384,3,3,15,0,1,d,orange,56d9ee15610fc00005b71979,2021-09-27_17h24.28.384,forced_choiceRT_color,2021.2.3,Win32,60.08171113,,,,,,,,,,,,,,,,,,,,,,,
,0,d,1,0.4841,4,0,16,0,1,d,orange,56d9ee15610fc00005b71979,2021-09-27_17h24.28.384,forced_choiceRT_color,2021.2.3,Win32,60.08171113,,,,,,,,,,,,,,,,,,,,,,,
,0,j,1,0.6004,4,1,17,2,1,j,red,56d9ee15610fc00005b71979,2021-09-27_17h24.28.384,forced_choiceRT_color,2021.2.3,Win32,60.08171113,,,,,,,,,,,,,,,,,,,,,,,
,0,f,1,0.7006,4,2,18,1,1,f,blue,56d9ee15610fc00005b71979,2021-09-27_17h24.28.384,forced_choiceRT_color,2021.2.3,Win32,60.08171113,,,,,,,,,,,,,,,,,,,,,,,
,0,f,1,0.4345,4,3,19,1,1,f,blue,56d9ee15610fc00005b71979,2021-09-27_17h24.28.384,forced_choiceRT_color,2021.2.3,Win32,60.08171113,,,,,,,,,,,,,,,,,,,,,,,
,0,f,1,0.3673,5,0,20,1,1,f,blue,56d9ee15610fc00005b71979,2021-09-27_17h24.28.384,forced_choiceRT_color,2021.2.3,Win32,60.08171113,,,,,,,,,,,,,,,,,,,,,,,
,0,j,1,0.6507,5,1,21,2,1,j,red,56d9ee15610fc00005b71979,2021-09-27_17h24.28.384,forced_choiceRT_color,2021.2.3,Win32,60.08171113,,,,,,,,,,,,,,,,,,,,,,,
,0,f,1,0.6342,5,2,22,1,1,f,blue,56d9ee15610fc00005b71979,2021-09-27_17h24.28.384,forced_choiceRT_color,2021.2.3,Win32,60.08171113,,,,,,,,,,,,,,,,,,,,,,,
,0,j,1,0.5004,5,3,23,2,1,j,red,56d9ee15610fc00005b71979,2021-09-27_17h24.28.384,forced_choiceRT_color,2021.2.3,Win32,60.08171113,,,,,,,,,,,,,,,,,,,,,,,
,0,k,1,0.6343,6,0,24,3,1,k,purple,56d9ee15610fc00005b71979,2021-09-27_17h24.28.384,forced_choiceRT_color,2021.2.3,Win32,60.08171113,,,,,,,,,,,,,,,,,,,,,,,
,0,k,1,0.4008,6,1,25,3,1,k,purple,56d9ee15610fc00005b71979,2021-09-27_17h24.28.384,forced_choiceRT_color,2021.2.3,Win32,60.08171113,,,,,,,,,,,,,,,,,,,,,,,
,0,j,1,0.6172,6,2,26,2,1,j,red,56d9ee15610fc00005b71979,2021-09-27_17h24.28.384,forced_choiceRT_color,2021.2.3,Win32,60.08171113,,,,,,,,,,,,,,,,,,,,,,,
,0,k,1,0.5073,6,3,27,3,1,k,purple,56d9ee15610fc00005b71979,2021-09-27_17h24.28.384,forced_choiceRT_color,2021.2.3,Win32,60.08171113,,,,,,,,,,,,,,,,,,,,,,,
,0,k,1,0.7833,7,0,28,3,1,k,purple,56d9ee15610fc00005b71979,2021-09-27_17h24.28.384,forced_choiceRT_color,2021.2.3,Win32,60.08171113,,,,,,,,,,,,,,,,,,,,,,,
,0,d,0,0.6839,7,1,29,1,1,f,blue,56d9ee15610fc00005b71979,2021-09-27_17h24.28.384,forced_choiceRT_color,2021.2.3,Win32,60.08171113,,,,,,,,,,,,,,,,,,,,,,,
,0,k,1,0.6838,7,2,30,3,1,k,purple,56d9ee15610fc00005b71979,2021-09-27_17h24.28.384,forced_choiceRT_color,2021.2.3,Win32,60.08171113,,,,,,,,,,,,,,,,,,,,,,,
,0,d,1,0.6161,7,3,31,0,1,d,orange,56d9ee15610fc00005b71979,2021-09-27_17h24.28.384,forced_choiceRT_color,2021.2.3,Win32,60.08171113,,,,,,,,,,,,,,,,,,,,,,,
,0,f,1,0.7026,8,0,32,1,1,f,blue,56d9ee15610fc00005b71979,2021-09-27_17h24.28.384,forced_choiceRT_color,2021.2.3,Win32,60.08171113,,,,,,,,,,,,,,,,,,,,,,,
,0,d,1,0.6008,8,1,33,0,1,d,orange,56d9ee15610fc00005b71979,2021-09-27_17h24.28.384,forced_choiceRT_color,2021.2.3,Win32,60.08171113,,,,,,,,,,,,,,,,,,,,,,,
,0,k,1,0.6174,8,2,34,3,1,k,purple,56d9ee15610fc00005b71979,2021-09-27_17h24.28.384,forced_choiceRT_color,2021.2.3,Win32,60.08171113,,,,,,,,,,,,,,,,,,,,,,,
,0,d,1,0.6324,8,3,35,0,1,d,orange,56d9ee15610fc00005b71979,2021-09-27_17h24.28.384,forced_choiceRT_color,2021.2.3,Win32,60.08171113,,,,,,,,,,,,,,,,,,,,,,,
,0,f,0,0.467,9,0,36,2,1,j,red,56d9ee15610fc00005b71979,2021-09-27_17h24.28.384,forced_choiceRT_color,2021.2.3,Win32,60.08171113,,,,,,,,,,,,,,,,,,,,,,,
,0,f,1,0.5842,9,1,37,1,1,f,blue,56d9ee15610fc00005b71979,2021-09-27_17h24.28.384,forced_choiceRT_color,2021.2.3,Win32,60.08171113,,,,,,,,,,,,,,,,,,,,,,,
,0,f,1,0.3838,9,2,38,1,1,f,blue,56d9ee15610fc00005b71979,2021-09-27_17h24.28.384,forced_choiceRT_color,2021.2.3,Win32,60.08171113,,,,,,,,,,,,,,,,,,,,,,,
,0,f,1,0.356,9,3,39,1,1,f,blue,56d9ee15610fc00005b71979,2021-09-27_17h24.28.384,forced_choiceRT_color,2021.2.3,Win32,60.08171113,,,,,,,,,,,,,,,,,,,,,,,
,0,j,1,0.5672,10,0,40,2,1,j,red,56d9ee15610fc00005b71979,2021-09-27_17h24.28.384,forced_choiceRT_color,2021.2.3,Win32,60.08171113,,,,,,,,,,,,,,,,,,,,,,,
,0,j,1,0.3006,10,1,41,2,1,j,red,56d9ee15610fc00005b71979,2021-09-27_17h24.28.384,forced_choiceRT_color,2021.2.3,Win32,60.08171113,,,,,,,,,,,,,,,,,,,,,,,
,0,k,1,0.4334,10,2,42,3,1,k,purple,56d9ee15610fc00005b71979,2021-09-27_17h24.28.384,forced_choiceRT_color,2021.2.3,Win32,60.08171113,,,,,,,,,,,,,,,,,,,,,,,
,0,j,0,0.5339,10,3,43,1,1,f,blue,56d9ee15610fc00005b71979,2021-09-27_17h24.28.384,forced_choiceRT_color,2021.2.3,Win32,60.08171113,,,,,,,,,,,,,,,,,,,,,,,
,0,k,1,0.5373,11,0,44,3,1,k,purple,56d9ee15610fc00005b71979,2021-09-27_17h24.28.384,forced_choiceRT_color,2021.2.3,Win32,60.08171113,,,,,,,,,,,,,,,,,,,,,,,
,0,d,1,0.6172,11,1,45,0,1,d,orange,56d9ee15610fc00005b71979,2021-09-27_17h24.28.384,forced_choiceRT_color,2021.2.3,Win32,60.08171113,,,,,,,,,,,,,,,,,,,,,,,
,0,j,1,0.5506,11,2,46,2,1,j,red,56d9ee15610fc00005b71979,2021-09-27_17h24.28.384,forced_choiceRT_color,2021.2.3,Win32,60.08171113,,,,,,,,,,,,,,,,,,,,,,,
,0,k,1,0.5008,11,3,47,3,1,k,purple,56d9ee15610fc00005b71979,2021-09-27_17h24.28.384,forced_choiceRT_color,2021.2.3,Win32,60.08171113,,,,,,,,,,,,,,,,,,,,,,,
,0,f,1,0.6005,12,0,48,1,1,f,blue,56d9ee15610fc00005b71979,2021-09-27_17h24.28.384,forced_choiceRT_color,2021.2.3,Win32,60.08171113,,,,,,,,,,,,,,,,,,,,,,,
,0,k,1,0.4841,12,1,49,3,1,k,purple,56d9ee15610fc00005b71979,2021-09-27_17h24.28.384,forced_choiceRT_color,2021.2.3,Win32,60.08171113,,,,,,,,,,,,,,,,,,,,,,,
,0,k,1,0.3847,12,2,50,3,1,k,purple,56d9ee15610fc00005b71979,2021-09-27_17h24.28.384,forced_choiceRT_color,2021.2.3,Win32,60.08171113,,,,,,,,,,,,,,,,,,,,,,,
,0,f,1,0.4838,12,3,51,1,1,f,blue,56d9ee15610fc00005b71979,2021-09-27_17h24.28.384,forced_choiceRT_color,2021.2.3,Win32,60.08171113,,,,,,,,,,,,,,,,,,,,,,,
,0,k,1,0.5697,13,0,52,3,1,k,purple,56d9ee15610fc00005b71979,2021-09-27_17h24.28.384,forced_choiceRT_color,2021.2.3,Win32,60.08171113,,,,,,,,,,,,,,,,,,,,,,,
,0,d,1,0.8051,13,1,53,0,1,d,orange,56d9ee15610fc00005b71979,2021-09-27_17h24.28.384,forced_choiceRT_color,2021.2.3,Win32,60.08171113,,,,,,,,,,,,,,,,,,,,,,,
,0,j,1,0.4256,13,2,54,2,1,j,red,56d9ee15610fc00005b71979,2021-09-27_17h24.28.384,forced_choiceRT_color,2021.2.3,Win32,60.08171113,,,,,,,,,,,,,,,,,,,,,,,
,0,d,1,0.5206,13,3,55,0,1,d,orange,56d9ee15610fc00005b71979,2021-09-27_17h24.28.384,forced_choiceRT_color,2021.2.3,Win32,60.08171113,,,,,,,,,,,,,,,,,,,,,,,
,0,j,1,0.5506,14,0,56,2,1,j,red,56d9ee15610fc00005b71979,2021-09-27_17h24.28.384,forced_choiceRT_color,2021.2.3,Win32,60.08171113,,,,,,,,,,,,,,,,,,,,,,,
,0,d,1,0.5841,14,1,57,0,1,d,orange,56d9ee15610fc00005b71979,2021-09-27_17h24.28.384,forced_choiceRT_color,2021.2.3,Win32,60.08171113,,,,,,,,,,,,,,,,,,,,,,,
,0,k,1,0.5508,14,2,58,3,1,k,purple,56d9ee15610fc00005b71979,2021-09-27_17h24.28.384,forced_choiceRT_color,2021.2.3,Win32,60.08171113,,,,,,,,,,,,,,,,,,,,,,,
,0,j,1,0.5172,14,3,59,2,1,j,red,56d9ee15610fc00005b71979,2021-09-27_17h24.28.384,forced_choiceRT_color,2021.2.3,Win32,60.08171113,,,,,,,,,,,,,,,,,,,,,,,
,,,,,,,,,,,,56d9ee15610fc00005b71979,2021-09-27_17h24.28.384,forced_choiceRT_color,2021.2.3,Win32,60.08171113,j,2.2487,0,0,0,0,1,,,,,,,,,,,,,,,,
,,,,,,,,,,,,56d9ee15610fc00005b71979,2021-09-27_17h24.28.384,forced_choiceRT_color,2021.2.3,Win32,60.08171113,f,2.001,1,0,1,0,1,,,,,,,,,,,,,,,,
,,,,,,,,,,,,56d9ee15610fc00005b71979,2021-09-27_17h24.28.384,forced_choiceRT_color,2021.2.3,Win32,60.08171113,j,1.9012,2,0,2,0,1,,,,,,,,,,,,,,,,
,,,,,,,,,,,,56d9ee15610fc00005b71979,2021-09-27_17h24.28.384,forced_choiceRT_color,2021.2.3,Win32,60.08171113,k,1.8847,3,0,3,0,1,,,,,,,,,,,,,,,,
,,,,,,,,,,,,56d9ee15610fc00005b71979,2021-09-27_17h24.28.384,forced_choiceRT_color,2021.2.3,Win32,60.08171113,d,1.9333,4,0,4,0,1,,,,,,,,,,,,,,,,
,,,,,,,,,,,,56d9ee15610fc00005b71979,2021-09-27_17h24.28.384,forced_choiceRT_color,2021.2.3,Win32,60.08171113,j,1.9347,5,0,5,0,1,,,,,,,,,,,,,,,,
,,,,,,,,,,,,56d9ee15610fc00005b71979,2021-09-27_17h24.28.384,forced_choiceRT_color,2021.2.3,Win32,60.08171113,f,1.8344,6,0,6,0,1,,,,,,,,,,,,,,,,
,,,,,,,,,,,,56d9ee15610fc00005b71979,2021-09-27_17h24.28.384,forced_choiceRT_color,2021.2.3,Win32,60.08171113,f,1.9845,7,0,7,0,1,,,,,,,,,,,,,,,,
,,,,,,,,,,,,56d9ee15610fc00005b71979,2021-09-27_17h24.28.384,forced_choiceRT_color,2021.2.3,Win32,60.08171113,j,1.818,8,0,8,0,1,,,,,,,,,,,,,,,,
,,,,,,,,,,,,56d9ee15610fc00005b71979,2021-09-27_17h24.28.384,forced_choiceRT_color,2021.2.3,Win32,60.08171113,k,1.9501,9,0,9,0,1,,,,,,,,,,,,,,,,
,,,,,,,,,,,,56d9ee15610fc00005b71979,2021-09-27_17h24.28.384,forced_choiceRT_color,2021.2.3,Win32,60.08171113,k,1.863,10,0,10,0,1,,,,,,,,,,,,,,,,
,,,,,,,,,,,,56d9ee15610fc00005b71979,2021-09-27_17h24.28.384,forced_choiceRT_color,2021.2.3,Win32,60.08171113,j,1.935,11,0,11,0,1,,,,,,,,,,,,,,,,
,,,,,,,,,,,,56d9ee15610fc00005b71979,2021-09-27_17h24.28.384,forced_choiceRT_color,2021.2.3,Win32,60.08171113,f,1.8747,12,0,12,0,1,,,,,,,,,,,,,,,,
,,,,,,,,,,,,56d9ee15610fc00005b71979,2021-09-27_17h24.28.384,forced_choiceRT_color,2021.2.3,Win32,60.08171113,f,2.0689,13,0,13,0,1,,,,,,,,,,,,,,,,
,,,,,,,,,,,,56d9ee15610fc00005b71979,2021-09-27_17h24.28.384,forced_choiceRT_color,2021.2.3,Win32,60.08171113,f,2.0169,14,0,14,0,1,,,,,,,,,,,,,,,,
,,,,,,,,,,,,56d9ee15610fc00005b71979,2021-09-27_17h24.28.384,forced_choiceRT_color,2021.2.3,Win32,60.08171113,j,1.9682,15,0,15,0,1,,,,,,,,,,,,,,,,
,,,,,,,,,,,,56d9ee15610fc00005b71979,2021-09-27_17h24.28.384,forced_choiceRT_color,2021.2.3,Win32,60.08171113,d,2.0421,16,0,16,0,1,,,,,,,,,,,,,,,,
,,,,,,,,,,,,56d9ee15610fc00005b71979,2021-09-27_17h24.28.384,forced_choiceRT_color,2021.2.3,Win32,60.08171113,k,2.0666,17,0,17,0,1,,,,,,,,,,,,,,,,
,,,,,,,,,,,,56d9ee15610fc00005b71979,2021-09-27_17h24.28.384,forced_choiceRT_color,2021.2.3,Win32,60.08171113,j,2.0859,18,0,18,0,1,,,,,,,,,,,,,,,,
,,,,,,,,,,,,56d9ee15610fc00005b71979,2021-09-27_17h24.28.384,forced_choiceRT_color,2021.2.3,Win32,60.08171113,f,2.0234,19,0,19,0,1,,,,,,,,,,,,,,,,
,1.51,,,,,,,,,j,red,56d9ee15610fc00005b71979,2021-09-27_17h24.28.384,forced_choiceRT_color,2021.2.3,Win32,60.08171113,,,,,,,,1,Slow,long,j,1,2.2455,0,0,0,2,1,,,,,
,1.45,,,,,,,,,f,blue,56d9ee15610fc00005b71979,2021-09-27_17h24.28.384,forced_choiceRT_color,2021.2.3,Win32,60.08171113,,,,,,,,1,Slow,long,f,1,2.2844,0,1,1,1,1,,,,,
,1.79,,,,,,,,,d,orange,56d9ee15610fc00005b71979,2021-09-27_17h24.28.384,forced_choiceRT_color,2021.2.3,Win32,60.08171113,,,,,,,,1,Slow,long,d,1,2.1842,0,2,2,0,1,,,,,
,1.3,,,,,,,,,f,blue,56d9ee15610fc00005b71979,2021-09-27_17h24.28.384,forced_choiceRT_color,2021.2.3,Win32,60.08171113,,,,,,,,1,Slow,long,f,1,2.101,0,3,3,1,1,,,,,
,0.44,,,,,,,,,f,blue,56d9ee15610fc00005b71979,2021-09-27_17h24.28.384,forced_choiceRT_color,2021.2.3,Win32,60.08171113,,,,,,,,1,Slow,long,f,1,2.1012,1,0,4,1,1,,,,,
,1.8,,,,,,,,,d,orange,56d9ee15610fc00005b71979,2021-09-27_17h24.28.384,forced_choiceRT_color,2021.2.3,Win32,60.08171113,,,,,,,,1,Slow,long,d,1,2.1677,1,1,5,0,1,,,,,
,1.65,,,,,,,,,j,red,56d9ee15610fc00005b71979,2021-09-27_17h24.28.384,forced_choiceRT_color,2021.2.3,Win32,60.08171113,,,,,,,,1,Slow,long,j,1,2.101,1,2,6,2,1,,,,,
,1.55,,,,,,,,,j,red,56d9ee15610fc00005b71979,2021-09-27_17h24.28.384,forced_choiceRT_color,2021.2.3,Win32,60.08171113,,,,,,,,1,Ontime,long,j,1,1.9832,1,3,7,2,1,,,,,
,0.54,,,,,,,,,j,red,56d9ee15610fc00005b71979,2021-09-27_17h24.28.384,forced_choiceRT_color,2021.2.3,Win32,60.08171113,,,,,,,,1,Ontime,long,j,1,2.0676,2,0,8,2,1,,,,,
,0.77,,,,,,,,,f,blue,56d9ee15610fc00005b71979,2021-09-27_17h24.28.384,forced_choiceRT_color,2021.2.3,Win32,60.08171113,,,,,,,,1,Fast,long,f,1,1.8178,2,1,9,1,1,,,,,
,0.96,,,,,,,,,j,red,56d9ee15610fc00005b71979,2021-09-27_17h24.28.384,forced_choiceRT_color,2021.2.3,Win32,60.08171113,,,,,,,,1,Ontime,long,j,1,2.0181,2,2,10,2,1,,,,,
,0.26,,,,,,,,,d,orange,56d9ee15610fc00005b71979,2021-09-27_17h24.28.384,forced_choiceRT_color,2021.2.3,Win32,60.08171113,,,,,,,,1,Ontime,long,d,1,2.0681,2,3,11,0,1,,,,,
,1.44,,,,,,,,,k,purple,56d9ee15610fc00005b71979,2021-09-27_17h24.28.384,forced_choiceRT_color,2021.2.3,Win32,60.08171113,,,,,,,,1,Slow,long,k,1,2.1181,3,0,12,3,1,,,,,
,0.94,,,,,,,,,k,purple,56d9ee15610fc00005b71979,2021-09-27_17h24.28.384,forced_choiceRT_color,2021.2.3,Win32,60.08171113,,,,,,,,1,Ontime,long,k,1,2.0344,3,1,13,3,1,,,,,
,1.83,,,,,,,,,k,purple,56d9ee15610fc00005b71979,2021-09-27_17h24.28.384,forced_choiceRT_color,2021.2.3,Win32,60.08171113,,,,,,,,1,Slow,long,k,1,2.4011,3,2,14,3,1,,,,,
,0.05,,,,,,,,,k,purple,56d9ee15610fc00005b71979,2021-09-27_17h24.28.384,forced_choiceRT_color,2021.2.3,Win32,60.08171113,,,,,,,,1,Ontime,long,k,1,2.0703,3,3,15,3,1,,,,,
,1.3,,,,,,,,,k,purple,56d9ee15610fc00005b71979,2021-09-27_17h24.28.384,forced_choiceRT_color,2021.2.3,Win32,60.08171113,,,,,,,,1,Ontime,long,k,1,2.0203,4,0,16,3,1,,,,,
,0.91,,,,,,,,,d,orange,56d9ee15610fc00005b71979,2021-09-27_17h24.28.384,forced_choiceRT_color,2021.2.3,Win32,60.08171113,,,,,,,,1,Ontime,long,d,1,2.0176,4,1,17,0,1,,,,,
,1.54,,,,,,,,,d,orange,56d9ee15610fc00005b71979,2021-09-27_17h24.28.384,forced_choiceRT_color,2021.2.3,Win32,60.08171113,,,,,,,,1,Slow,long,d,1,2.2842,4,2,18,0,1,,,,,
,0.63,,,,,,,,,d,orange,56d9ee15610fc00005b71979,2021-09-27_17h24.28.384,forced_choiceRT_color,2021.2.3,Win32,60.08171113,,,,,,,,1,Ontime,long,d,1,2.0012,4,3,19,0,1,,,,,
,0.22,,,,,,,,,d,orange,56d9ee15610fc00005b71979,2021-09-27_17h24.28.384,forced_choiceRT_color,2021.2.3,Win32,60.08171113,,,,,,,,1,Ontime,long,d,1,2.0512,5,0,20,0,1,,,,,
,1.1,,,,,,,,,d,orange,56d9ee15610fc00005b71979,2021-09-27_17h24.28.384,forced_choiceRT_color,2021.2.3,Win32,60.08171113,,,,,,,,1,Ontime,long,d,1,2.0345,5,1,21,0,1,,,,,
,1.24,,,,,,,,,j,red,56d9ee15610fc00005b71979,2021-09-27_17h24.28.384,forced_choiceRT_color,2021.2.3,Win32,60.08171113,,,,,,,,1,Slow,long,j,1,2.1009,5,2,22,2,1,,,,,
,0.1,,,,,,,,,k,purple,56d9ee15610fc00005b71979,2021-09-27_17h24.28.384,forced_choiceRT_color,2021.2.3,Win32,60.08171113,,,,,,,,1,Ontime,long,k,1,1.9511,5,3,23,3,1,,,,,
,0.34,,,,,,,,,k,purple,56d9ee15610fc00005b71979,2021-09-27_17h24.28.384,forced_choiceRT_color,2021.2.3,Win32,60.08171113,,,,,,,,1,Ontime,long,k,1,2.0846,6,0,24,3,1,,,,,
,0.68,,,,,,,,,f,blue,56d9ee15610fc00005b71979,2021-09-27_17h24.28.384,forced_choiceRT_color,2021.2.3,Win32,60.08171113,,,,,,,,1,Ontime,long,f,1,2.0343,6,1,25,1,1,,,,,
,0.27,,,,,,,,,j,red,56d9ee15610fc00005b71979,2021-09-27_17h24.28.384,forced_choiceRT_color,2021.2.3,Win32,60.08171113,,,,,,,,1,Ontime,long,j,1,1.9844,6,2,26,2,1,,,,,
,0.72,,,,,,,,,f,blue,56d9ee15610fc00005b71979,2021-09-27_17h24.28.384,forced_choiceRT_color,2021.2.3,Win32,60.08171113,,,,,,,,1,Ontime,long,j,0,2.0013,6,3,27,1,1,,,,,
,0.72,,,,,,,,,j,red,56d9ee15610fc00005b71979,2021-09-27_17h24.28.384,forced_choiceRT_color,2021.2.3,Win32,60.08171113,,,,,,,,1,Ontime,long,j,1,2.0691,7,0,28,2,1,,,,,
,0.73,,,,,,,,,f,blue,56d9ee15610fc00005b71979,2021-09-27_17h24.28.384,forced_choiceRT_color,2021.2.3,Win32,60.08171113,,,,,,,,1,Ontime,long,f,1,2.051,7,1,29,1,1,,,,,
,1.98,,,,,,,,,f,blue,56d9ee15610fc00005b71979,2021-09-27_17h24.28.384,forced_choiceRT_color,2021.2.3,Win32,60.08171113,,,,,,,,1,Slow,long,f,1,2.3368,7,2,30,1,1,,,,,
,0.62,,,,,,,,,d,orange,56d9ee15610fc00005b71979,2021-09-27_17h24.28.384,forced_choiceRT_color,2021.2.3,Win32,60.08171113,,,,,,,,1,Ontime,long,d,1,1.9677,7,3,31,0,1,,,,,
,0.69,,,,,,,,,k,purple,56d9ee15610fc00005b71979,2021-09-27_17h24.28.384,forced_choiceRT_color,2021.2.3,Win32,60.08171113,,,,,,,,1,Ontime,long,k,1,2.0185,8,0,32,3,1,,,,,
,1.18,,,,,,,,,k,purple,56d9ee15610fc00005b71979,2021-09-27_17h24.28.384,forced_choiceRT_color,2021.2.3,Win32,60.08171113,,,,,,,,1,Ontime,long,k,1,2.0512,8,1,33,3,1,,,,,
,1.63,,,,,,,,,f,blue,56d9ee15610fc00005b71979,2021-09-27_17h24.28.384,forced_choiceRT_color,2021.2.3,Win32,60.08171113,,,,,,,,1,Slow,long,j,0,2.2509,8,2,34,1,1,,,,,
,1.32,,,,,,,,,j,red,56d9ee15610fc00005b71979,2021-09-27_17h24.28.384,forced_choiceRT_color,2021.2.3,Win32,60.08171113,,,,,,,,1,Ontime,long,j,1,2.0552,8,3,35,2,1,,,,,
,0.97,,,,,,,,,d,orange,56d9ee15610fc00005b71979,2021-09-27_17h24.28.384,forced_choiceRT_color,2021.2.3,Win32,60.08171113,,,,,,,,1,Ontime,long,d,1,2.0346,9,0,36,0,1,,,,,
,1.25,,,,,,,,,j,red,56d9ee15610fc00005b71979,2021-09-27_17h24.28.384,forced_choiceRT_color,2021.2.3,Win32,60.08171113,,,,,,,,1,Ontime,long,j,1,2.0178,9,1,37,2,1,,,,,
,0.64,,,,,,,,,f,blue,56d9ee15610fc00005b71979,2021-09-27_17h24.28.384,forced_choiceRT_color,2021.2.3,Win32,60.08171113,,,,,,,,1,Ontime,long,f,1,2.0514,9,2,38,1,1,,,,,
,1.29,,,,,,,,,k,purple,56d9ee15610fc00005b71979,2021-09-27_17h24.28.384,forced_choiceRT_color,2021.2.3,Win32,60.08171113,,,,,,,,1,Slow,long,j,0,2.1177,9,3,39,3,1,,,,,
,,,,,,,,,,,,56d9ee15610fc00005b71979,2021-09-27_17h24.28.384,forced_choiceRT_color,2021.2.3,Win32,60.08171113,,,,,,,,,,,,,,,,,,,0,0,0,0,1
,1.22,,,,,,,,,f,blue,56d9ee15610fc00005b71979,2021-09-27_17h24.28.384,forced_choiceRT_color,2021.2.3,Win32,60.08171113,,,,,,,,2,Slow,long,j,0,2.1508,0,0,0,1,1,,,,,
,1.95,,,,,,,,,d,orange,56d9ee15610fc00005b71979,2021-09-27_17h24.28.384,forced_choiceRT_color,2021.2.3,Win32,60.08171113,,,,,,,,2,Slow,long,d,1,2.3845,0,1,1,0,1,,,,,
,1.25,,,,,,,,,d,orange,56d9ee15610fc00005b71979,2021-09-27_17h24.28.384,forced_choiceRT_color,2021.2.3,Win32,60.08171113,,,,,,,,2,Ontime,long,d,1,2.0178,0,2,2,0,1,,,,,
,0.01,,,,,,,,,j,red,56d9ee15610fc00005b71979,2021-09-27_17h24.28.384,forced_choiceRT_color,2021.2.3,Win32,60.08171113,,,,,,,,2,Ontime,long,j,1,2.0013,0,3,3,2,1,,,,,
,1.88,,,,,,,,,k,purple,56d9ee15610fc00005b71979,2021-09-27_17h24.28.384,forced_choiceRT_color,2021.2.3,Win32,60.08171113,,,,,,,,2,Slow,long,k,1,2.1303,1,0,4,3,1,,,,,
,1.11,,,,,,,,,k,purple,56d9ee15610fc00005b71979,2021-09-27_17h24.28.384,forced_choiceRT_color,2021.2.3,Win32,60.08171113,,,,,,,,2,Ontime,long,k,1,2.0441,1,1,5,3,1,,,,,
,0.16,,,,,,,,,d,orange,56d9ee15610fc00005b71979,2021-09-27_17h24.28.384,forced_choiceRT_color,2021.2.3,Win32,60.08171113,,,,,,,,2,Ontime,long,d,1,2.0346,1,2,6,0,1,,,,,
,1.52,,,,,,,,,f,blue,56d9ee15610fc00005b71979,2021-09-27_17h24.28.384,forced_choiceRT_color,2021.2.3,Win32,60.08171113,,,,,,,,2,Slow,long,j,0,2.101,1,3,7,1,1,,,,,
,0.25,,,,,,,,,d,orange,56d9ee15610fc00005b71979,2021-09-27_17h24.28.384,forced_choiceRT_color,2021.2.3,Win32,60.08171113,,,,,,,,2,Ontime,long,d,1,2.0179,2,0,8,0,1,,,,,
,1.91,,,,,,,,,k,purple,56d9ee15610fc00005b71979,2021-09-27_17h24.28.384,forced_choiceRT_color,2021.2.3,Win32,60.08171113,,,,,,,,2,Slow,long,j,0,2.318,2,1,9,3,1,,,,,
,0.32,,,,,,,,,j,red,56d9ee15610fc00005b71979,2021-09-27_17h24.28.384,forced_choiceRT_color,2021.2.3,Win32,60.08171113,,,,,,,,2,Ontime,long,j,1,1.9179,2,2,10,2,1,,,,,
,1,,,,,,,,,j,red,56d9ee15610fc00005b71979,2021-09-27_17h24.28.384,forced_choiceRT_color,2021.2.3,Win32,60.08171113,,,,,,,,2,Slow,long,j,1,2.1845,2,3,11,2,1,,,,,
,1.83,,,,,,,,,k,purple,56d9ee15610fc00005b71979,2021-09-27_17h24.28.384,forced_choiceRT_color,2021.2.3,Win32,60.08171113,,,,,,,,2,Slow,long,k,1,2.1342,3,0,12,3,1,,,,,
,1.13,,,,,,,,,f,blue,56d9ee15610fc00005b71979,2021-09-27_17h24.28.384,forced_choiceRT_color,2021.2.3,Win32,60.08171113,,,,,,,,2,Ontime,long,f,1,2.0331,3,1,13,1,1,,,,,
,0.97,,,,,,,,,f,blue,56d9ee15610fc00005b71979,2021-09-27_17h24.28.384,forced_choiceRT_color,2021.2.3,Win32,60.08171113,,,,,,,,2,Slow,long,f,1,2.12,3,2,14,1,1,,,,,
,1.65,,,,,,,,,d,orange,56d9ee15610fc00005b71979,2021-09-27_17h24.28.384,forced_choiceRT_color,2021.2.3,Win32,60.08171113,,,,,,,,2,Slow,long,d,1,2.2343,3,3,15,0,1,,,,,
,0.36,,,,,,,,,k,purple,56d9ee15610fc00005b71979,2021-09-27_17h24.28.384,forced_choiceRT_color,2021.2.3,Win32,60.08171113,,,,,,,,2,Ontime,long,k,1,1.9846,4,0,16,3,1,,,,,
,1.28,,,,,,,,,d,orange,56d9ee15610fc00005b71979,2021-09-27_17h24.28.384,forced_choiceRT_color,2021.2.3,Win32,60.08171113,,,,,,,,2,Slow,long,d,1,2.1512,4,1,17,0,1,,,,,
,0.27,,,,,,,,,j,red,56d9ee15610fc00005b71979,2021-09-27_17h24.28.384,forced_choiceRT_color,2021.2.3,Win32,60.08171113,,,,,,,,2,Ontime,long,j,1,2.0009,4,2,18,2,1,,,,,
,1.69,,,,,,,,,d,orange,56d9ee15610fc00005b71979,2021-09-27_17h24.28.384,forced_choiceRT_color,2021.2.3,Win32,60.08171113,,,,,,,,2,Slow,long,f,0,2.2342,4,3,19,0,1,,,,,
,0.18,,,,,,,,,f,blue,56d9ee15610fc00005b71979,2021-09-27_17h24.28.384,forced_choiceRT_color,2021.2.3,Win32,60.08171113,,,,,,,,2,Ontime,long,f,1,2.0512,5,0,20,1,1,,,,,
,0.64,,,,,,,,,j,red,56d9ee15610fc00005b71979,2021-09-27_17h24.28.384,forced_choiceRT_color,2021.2.3,Win32,60.08171113,,,,,,,,2,Ontime,long,j,1,2.0343,5,1,21,2,1,,,,,
,1.44,,,,,,,,,k,purple,56d9ee15610fc00005b71979,2021-09-27_17h24.28.384,forced_choiceRT_color,2021.2.3,Win32,60.08171113,,,,,,,,2,Slow,long,k,1,2.2011,5,2,22,3,1,,,,,
,1.14,,,,,,,,,f,blue,56d9ee15610fc00005b71979,2021-09-27_17h24.28.384,forced_choiceRT_color,2021.2.3,Win32,60.08171113,,,,,,,,2,Ontime,long,f,1,2.0542,5,3,23,1,1,,,,,
,0.94,,,,,,,,,f,blue,56d9ee15610fc00005b71979,2021-09-27_17h24.28.384,forced_choiceRT_color,2021.2.3,Win32,60.08171113,,,,,,,,2,Ontime,long,f,1,1.9344,6,0,24,1,1,,,,,
,1.81,,,,,,,,,d,orange,56d9ee15610fc00005b71979,2021-09-27_17h24.28.384,forced_choiceRT_color,2021.2.3,Win32,60.08171113,,,,,,,,2,Slow,long,d,1,2.3175,6,1,25,0,1,,,,,
,1.71,,,,,,,,,j,red,56d9ee15610fc00005b71979,2021-09-27_17h24.28.384,forced_choiceRT_color,2021.2.3,Win32,60.08171113,,,,,,,,2,Slow,long,k,0,2.1342,6,2,26,2,1,,,,,
,0.41,,,,,,,,,k,purple,56d9ee15610fc00005b71979,2021-09-27_17h24.28.384,forced_choiceRT_color,2021.2.3,Win32,60.08171113,,,,,,,,2,Ontime,long,k,1,1.9844,6,3,27,3,1,,,,,
,0,,,,,,,,,d,orange,56d9ee15610fc00005b71979,2021-09-27_17h24.28.384,forced_choiceRT_color,2021.2.3,Win32,60.08171113,,,,,,,,2,Ontime,long,d,1,1.9866,7,0,28,0,1,,,,,
,1.93,,,,,,,,,f,blue,56d9ee15610fc00005b71979,2021-09-27_17h24.28.384,forced_choiceRT_color,2021.2.3,Win32,60.08171113,,,,,,,,2,Slow,long,k,0,2.1514,7,1,29,1,1,,,,,
,0.58,,,,,,,,,j,red,56d9ee15610fc00005b71979,2021-09-27_17h24.28.384,forced_choiceRT_color,2021.2.3,Win32,60.08171113,,,,,,,,2,Ontime,long,j,1,1.9844,7,2,30,2,1,,,,,
,0.19,,,,,,,,,j,red,56d9ee15610fc00005b71979,2021-09-27_17h24.28.384,forced_choiceRT_color,2021.2.3,Win32,60.08171113,,,,,,,,2,Ontime,long,j,1,2.0845,7,3,31,2,1,,,,,
,0.53,,,,,,,,,f,blue,56d9ee15610fc00005b71979,2021-09-27_17h24.28.384,forced_choiceRT_color,2021.2.3,Win32,60.08171113,,,,,,,,2,Ontime,long,f,1,1.9341,8,0,32,1,1,,,,,
,1.39,,,,,,,,,k,purple,56d9ee15610fc00005b71979,2021-09-27_17h24.28.384,forced_choiceRT_color,2021.2.3,Win32,60.08171113,,,,,,,,2,Slow,long,k,1,2.1174,8,1,33,3,1,,,,,
,0.75,,,,,,,,,j,red,56d9ee15610fc00005b71979,2021-09-27_17h24.28.384,forced_choiceRT_color,2021.2.3,Win32,60.08171113,,,,,,,,2,Ontime,long,j,1,2.0011,8,2,34,2,1,,,,,
,0.68,,,,,,,,,d,orange,56d9ee15610fc00005b71979,2021-09-27_17h24.28.384,forced_choiceRT_color,2021.2.3,Win32,60.08171113,,,,,,,,2,Ontime,long,d,1,1.9515,8,3,35,0,1,,,,,
,1.35,,,,,,,,,f,blue,56d9ee15610fc00005b71979,2021-09-27_17h24.28.384,forced_choiceRT_color,2021.2.3,Win32,60.08171113,,,,,,,,2,Slow,long,f,1,2.1015,9,0,36,1,1,,,,,
,0.7,,,,,,,,,j,red,56d9ee15610fc00005b71979,2021-09-27_17h24.28.384,forced_choiceRT_color,2021.2.3,Win32,60.08171113,,,,,,,,2,Ontime,long,j,1,1.9511,9,1,37,2,1,,,,,
,1.11,,,,,,,,,k,purple,56d9ee15610fc00005b71979,2021-09-27_17h24.28.384,forced_choiceRT_color,2021.2.3,Win32,60.08171113,,,,,,,,2,Ontime,long,k,1,2.0177,9,2,38,3,1,,,,,
,0.72,,,,,,,,,k,purple,56d9ee15610fc00005b71979,2021-09-27_17h24.28.384,forced_choiceRT_color,2021.2.3,Win32,60.08171113,,,,,,,,2,Ontime,long,k,1,1.9368,9,3,39,3,1,,,,,
,,,,,,,,,,,,56d9ee15610fc00005b71979,2021-09-27_17h24.28.384,forced_choiceRT_color,2021.2.3,Win32,60.08171113,,,,,,,,,,,,,,,,,,,1,0,1,0,1
,0.54,,,,,,,,,d,orange,56d9ee15610fc00005b71979,2021-09-27_17h24.28.384,forced_choiceRT_color,2021.2.3,Win32,60.08171113,,,,,,,,3,Ontime,long,d,1,2.0063,0,0,0,0,1,,,,,
,1.73,,,,,,,,,k,purple,56d9ee15610fc00005b71979,2021-09-27_17h24.28.384,forced_choiceRT_color,2021.2.3,Win32,60.08171113,,,,,,,,3,Slow,long,j,0,2.1493,0,1,1,3,1,,,,,
,1.4,,,,,,,,,j,red,56d9ee15610fc00005b71979,2021-09-27_17h24.28.384,forced_choiceRT_color,2021.2.3,Win32,60.08171113,,,,,,,,3,Ontime,long,j,1,2.0497,0,2,2,2,1,,,,,
,1.44,,,,,,,,,k,purple,56d9ee15610fc00005b71979,2021-09-27_17h24.28.384,forced_choiceRT_color,2021.2.3,Win32,60.08171113,,,,,,,,3,Slow,long,k,1,2.1525,0,3,3,3,1,,,,,
,1.61,,,,,,,,,j,red,56d9ee15610fc00005b71979,2021-09-27_17h24.28.384,forced_choiceRT_color,2021.2.3,Win32,60.08171113,,,,,,,,3,Ontime,long,f,0,2.0664,1,0,4,2,1,,,,,
,1.7,,,,,,,,,j,red,56d9ee15610fc00005b71979,2021-09-27_17h24.28.384,forced_choiceRT_color,2021.2.3,Win32,60.08171113,,,,,,,,3,Slow,long,j,1,2.1167,1,1,5,2,1,,,,,
,1.79,,,,,,,,,d,orange,56d9ee15610fc00005b71979,2021-09-27_17h24.28.384,forced_choiceRT_color,2021.2.3,Win32,60.08171113,,,,,,,,3,Slow,long,d,1,2.2883,1,2,6,0,1,,,,,
,0.86,,,,,,,,,k,purple,56d9ee15610fc00005b71979,2021-09-27_17h24.28.384,forced_choiceRT_color,2021.2.3,Win32,60.08171113,,,,,,,,3,Ontime,long,k,1,1.9501,1,3,7,3,1,,,,,
,0.67,,,,,,,,,f,blue,56d9ee15610fc00005b71979,2021-09-27_17h24.28.384,forced_choiceRT_color,2021.2.3,Win32,60.08171113,,,,,,,,3,Fast,long,f,1,1.8886,2,0,8,1,1,,,,,
,1.67,,,,,,,,,d,orange,56d9ee15610fc00005b71979,2021-09-27_17h24.28.384,forced_choiceRT_color,2021.2.3,Win32,60.08171113,,,,,,,,3,Ontime,long,d,1,1.9664,2,1,9,0,1,,,,,
,0.13,,,,,,,,,k,purple,56d9ee15610fc00005b71979,2021-09-27_17h24.28.384,forced_choiceRT_color,2021.2.3,Win32,60.08171113,,,,,,,,3,Ontime,long,k,1,1.9745,2,2,10,3,1,,,,,
,0.52,,,,,,,,,d,orange,56d9ee15610fc00005b71979,2021-09-27_17h24.28.384,forced_choiceRT_color,2021.2.3,Win32,60.08171113,,,,,,,,3,Ontime,long,d,1,2.0661,2,3,11,0,1,,,,,
,1.22,,,,,,,,,j,red,56d9ee15610fc00005b71979,2021-09-27_17h24.28.384,forced_choiceRT_color,2021.2.3,Win32,60.08171113,,,,,,,,3,Ontime,long,f,0,1.9829,3,0,12,2,1,,,,,
,1.31,,,,,,,,,d,orange,56d9ee15610fc00005b71979,2021-09-27_17h24.28.384,forced_choiceRT_color,2021.2.3,Win32,60.08171113,,,,,,,,3,Ontime,long,d,1,2.05,3,1,13,0,1,,,,,
,0.98,,,,,,,,,k,purple,56d9ee15610fc00005b71979,2021-09-27_17h24.28.384,forced_choiceRT_color,2021.2.3,Win32,60.08171113,,,,,,,,3,Ontime,long,k,1,1.9662,3,2,14,3,1,,,,,
,1.63,,,,,,,,,f,blue,56d9ee15610fc00005b71979,2021-09-27_17h24.28.384,forced_choiceRT_color,2021.2.3,Win32,60.08171113,,,,,,,,3,Slow,long,j,0,2.1329,3,3,15,1,1,,,,,
,1.8,,,,,,,,,k,purple,56d9ee15610fc00005b71979,2021-09-27_17h24.28.384,forced_choiceRT_color,2021.2.3,Win32,60.08171113,,,,,,,,3,Slow,long,j,0,2.3001,4,0,16,3,1,,,,,
,0.11,,,,,,,,,k,purple,56d9ee15610fc00005b71979,2021-09-27_17h24.28.384,forced_choiceRT_color,2021.2.3,Win32,60.08171113,,,,,,,,3,Ontime,long,k,1,1.9813,4,1,17,3,1,,,,,
,1.42,,,,,,,,,f,blue,56d9ee15610fc00005b71979,2021-09-27_17h24.28.384,forced_choiceRT_color,2021.2.3,Win32,60.08171113,,,,,,,,3,Ontime,long,f,1,2.0166,4,2,18,1,1,,,,,
,0.85,,,,,,,,,d,orange,56d9ee15610fc00005b71979,2021-09-27_17h24.28.384,forced_choiceRT_color,2021.2.3,Win32,60.08171113,,,,,,,,3,Ontime,long,d,1,2.0002,4,3,19,0,1,,,,,
,1.95,,,,,,,,,k,purple,56d9ee15610fc00005b71979,2021-09-27_17h24.28.384,forced_choiceRT_color,2021.2.3,Win32,60.08171113,,,,,,,,3,Slow,long,k,1,2.4334,5,0,20,3,1,,,,,
,0.73,,,,,,,,,j,red,56d9ee15610fc00005b71979,2021-09-27_17h24.28.384,forced_choiceRT_color,2021.2.3,Win32,60.08171113,,,,,,,,3,Ontime,long,j,1,2.0381,5,1,21,2,1,,,,,
,0.06,,,,,,,,,j,red,56d9ee15610fc00005b71979,2021-09-27_17h24.28.384,forced_choiceRT_color,2021.2.3,Win32,60.08171113,,,,,,,,3,Ontime,long,j,1,2.0006,5,2,22,2,1,,,,,
,1.44,,,,,,,,,f,blue,56d9ee15610fc00005b71979,2021-09-27_17h24.28.384,forced_choiceRT_color,2021.2.3,Win32,60.08171113,,,,,,,,3,Ontime,long,f,1,2.0168,5,3,23,1,1,,,,,
,0.32,,,,,,,,,j,red,56d9ee15610fc00005b71979,2021-09-27_17h24.28.384,forced_choiceRT_color,2021.2.3,Win32,60.08171113,,,,,,,,3,Ontime,long,j,1,2.0503,6,0,24,2,1,,,,,
,1.74,,,,,,,,,j,red,56d9ee15610fc00005b71979,2021-09-27_17h24.28.384,forced_choiceRT_color,2021.2.3,Win32,60.08171113,,,,,,,,3,Slow,long,j,1,2.2162,6,1,25,2,1,,,,,
,0.85,,,,,,,,,f,blue,56d9ee15610fc00005b71979,2021-09-27_17h24.28.384,forced_choiceRT_color,2021.2.3,Win32,60.08171113,,,,,,,,3,Ontime,long,f,1,2.0208,6,2,26,1,1,,,,,
,0.07,,,,,,,,,f,blue,56d9ee15610fc00005b71979,2021-09-27_17h24.28.384,forced_choiceRT_color,2021.2.3,Win32,60.08171113,,,,,,,,3,Ontime,long,f,1,2.0207,6,3,27,1,1,,,,,
,0.11,,,,,,,,,d,orange,56d9ee15610fc00005b71979,2021-09-27_17h24.28.384,forced_choiceRT_color,2021.2.3,Win32,60.08171113,,,,,,,,3,Ontime,long,d,1,2.0935,7,0,28,0,1,,,,,
,1.91,,,,,,,,,d,orange,56d9ee15610fc00005b71979,2021-09-27_17h24.28.384,forced_choiceRT_color,2021.2.3,Win32,60.08171113,,,,,,,,3,Slow,long,j,0,2.1822,7,1,29,0,1,,,,,
,0.27,,,,,,,,,k,purple,56d9ee15610fc00005b71979,2021-09-27_17h24.28.384,forced_choiceRT_color,2021.2.3,Win32,60.08171113,,,,,,,,3,Ontime,long,k,1,2.0328,7,2,30,3,1,,,,,
,1.01,,,,,,,,,f,blue,56d9ee15610fc00005b71979,2021-09-27_17h24.28.384,forced_choiceRT_color,2021.2.3,Win32,60.08171113,,,,,,,,3,Ontime,long,f,1,1.9665,7,3,31,1,1,,,,,
,0.02,,,,,,,,,f,blue,56d9ee15610fc00005b71979,2021-09-27_17h24.28.384,forced_choiceRT_color,2021.2.3,Win32,60.08171113,,,,,,,,3,Ontime,long,f,1,2.0179,8,0,32,1,1,,,,,
,0.8,,,,,,,,,k,purple,56d9ee15610fc00005b71979,2021-09-27_17h24.28.384,forced_choiceRT_color,2021.2.3,Win32,60.08171113,,,,,,,,3,Ontime,long,k,1,2.0737,8,1,33,3,1,,,,,
,1.04,,,,,,,,,j,red,56d9ee15610fc00005b71979,2021-09-27_17h24.28.384,forced_choiceRT_color,2021.2.3,Win32,60.08171113,,,,,,,,3,Ontime,long,f,0,1.9996,8,2,34,2,1,,,,,
,0.93,,,,,,,,,d,orange,56d9ee15610fc00005b71979,2021-09-27_17h24.28.384,forced_choiceRT_color,2021.2.3,Win32,60.08171113,,,,,,,,3,Ontime,long,d,1,2.0331,8,3,35,0,1,,,,,
,0.23,,,,,,,,,f,blue,56d9ee15610fc00005b71979,2021-09-27_17h24.28.384,forced_choiceRT_color,2021.2.3,Win32,60.08171113,,,,,,,,3,Ontime,long,f,1,2.0497,9,0,36,1,1,,,,,
,1.07,,,,,,,,,d,orange,56d9ee15610fc00005b71979,2021-09-27_17h24.28.384,forced_choiceRT_color,2021.2.3,Win32,60.08171113,,,,,,,,3,Ontime,long,d,1,2.0242,9,1,37,0,1,,,,,
,1.88,,,,,,,,,f,blue,56d9ee15610fc00005b71979,2021-09-27_17h24.28.384,forced_choiceRT_color,2021.2.3,Win32,60.08171113,,,,,,,,3,Ontime,long,f,1,2.0661,9,2,38,1,1,,,,,
,1.71,,,,,,,,,j,red,56d9ee15610fc00005b71979,2021-09-27_17h24.28.384,forced_choiceRT_color,2021.2.3,Win32,60.08171113,,,,,,,,3,Ontime,long,k,0,1.9338,9,3,39,2,1,,,,,
,,,,,,,,,,,,56d9ee15610fc00005b71979,2021-09-27_17h24.28.384,forced_choiceRT_color,2021.2.3,Win32,60.08171113,,,,,,,,,,,,,,,,,,,2,0,2,0,1
,0.25,,,,,,,,,d,orange,56d9ee15610fc00005b71979,2021-09-27_17h24.28.384,forced_choiceRT_color,2021.2.3,Win32,60.08171113,,,,,,,,4,Ontime,long,d,1,2.0666,0,0,0,0,1,,,,,
,1.76,,,,,,,,,f,blue,56d9ee15610fc00005b71979,2021-09-27_17h24.28.384,forced_choiceRT_color,2021.2.3,Win32,60.08171113,,,,,,,,4,Ontime,long,f,1,2.0178,0,1,1,1,1,,,,,
,1.75,,,,,,,,,d,orange,56d9ee15610fc00005b71979,2021-09-27_17h24.28.384,forced_choiceRT_color,2021.2.3,Win32,60.08171113,,,,,,,,4,Slow,long,j,0,2.1513,0,2,2,0,1,,,,,
,0.56,,,,,,,,,j,red,56d9ee15610fc00005b71979,2021-09-27_17h24.28.384,forced_choiceRT_color,2021.2.3,Win32,60.08171113,,,,,,,,4,Ontime,long,j,1,2.068,0,3,3,2,1,,,,,
,1.5,,,,,,,,,k,purple,56d9ee15610fc00005b71979,2021-09-27_17h24.28.384,forced_choiceRT_color,2021.2.3,Win32,60.08171113,,,,,,,,4,Slow,long,k,1,2.1343,1,0,4,3,1,,,,,
,1.05,,,,,,,,,f,blue,56d9ee15610fc00005b71979,2021-09-27_17h24.28.384,forced_choiceRT_color,2021.2.3,Win32,60.08171113,,,,,,,,4,Ontime,long,j,0,2.0512,1,1,5,1,1,,,,,
,0.73,,,,,,,,,d,orange,56d9ee15610fc00005b71979,2021-09-27_17h24.28.384,forced_choiceRT_color,2021.2.3,Win32,60.08171113,,,,,,,,4,Ontime,long,d,1,2.0181,1,2,6,0,1,,,,,
,0.81,,,,,,,,,f,blue,56d9ee15610fc00005b71979,2021-09-27_17h24.28.384,forced_choiceRT_color,2021.2.3,Win32,60.08171113,,,,,,,,4,Ontime,long,f,1,1.9679,1,3,7,1,1,,,,,
,0.5,,,,,,,,,j,red,56d9ee15610fc00005b71979,2021-09-27_17h24.28.384,forced_choiceRT_color,2021.2.3,Win32,60.08171113,,,,,,,,4,Ontime,long,j,1,2.0678,2,0,8,2,1,,,,,
,1.65,,,,,,,,,k,purple,56d9ee15610fc00005b71979,2021-09-27_17h24.28.384,forced_choiceRT_color,2021.2.3,Win32,60.08171113,,,,,,,,4,Ontime,long,k,1,2.0511,2,1,9,3,1,,,,,
,1.25,,,,,,,,,k,purple,56d9ee15610fc00005b71979,2021-09-27_17h24.28.384,forced_choiceRT_color,2021.2.3,Win32,60.08171113,,,,,,,,4,Ontime,long,k,1,2.0845,2,2,10,3,1,,,,,
,0.53,,,,,,,,,k,purple,56d9ee15610fc00005b71979,2021-09-27_17h24.28.384,forced_choiceRT_color,2021.2.3,Win32,60.08171113,,,,,,,,4,Ontime,long,k,1,1.968,2,3,11,3,1,,,,,
,0.15,,,,,,,,,k,purple,56d9ee15610fc00005b71979,2021-09-27_17h24.28.384,forced_choiceRT_color,2021.2.3,Win32,60.08171113,,,,,,,,4,Ontime,long,k,1,1.9593,3,0,12,3,1,,,,,
,0.38,,,,,,,,,k,purple,56d9ee15610fc00005b71979,2021-09-27_17h24.28.384,forced_choiceRT_color,2021.2.3,Win32,60.08171113,,,,,,,,4,Ontime,long,k,1,1.9679,3,1,13,3,1,,,,,
,1.46,,,,,,,,,j,red,56d9ee15610fc00005b71979,2021-09-27_17h24.28.384,forced_choiceRT_color,2021.2.3,Win32,60.08171113,,,,,,,,4,Ontime,long,j,1,2.0737,3,2,14,2,1,,,,,
,1.55,,,,,,,,,d,orange,56d9ee15610fc00005b71979,2021-09-27_17h24.28.384,forced_choiceRT_color,2021.2.3,Win32,60.08171113,,,,,,,,4,Slow,long,d,1,2.1345,3,3,15,0,1,,,,,
,1.19,,,,,,,,,f,blue,56d9ee15610fc00005b71979,2021-09-27_17h24.28.384,forced_choiceRT_color,2021.2.3,Win32,60.08171113,,,,,,,,4,Ontime,long,f,1,2.0595,4,0,16,1,1,,,,,
,0.18,,,,,,,,,j,red,56d9ee15610fc00005b71979,2021-09-27_17h24.28.384,forced_choiceRT_color,2021.2.3,Win32,60.08171113,,,,,,,,4,Ontime,long,j,1,2.0541,4,1,17,2,1,,,,,
,0.01,,,,,,,,,f,blue,56d9ee15610fc00005b71979,2021-09-27_17h24.28.384,forced_choiceRT_color,2021.2.3,Win32,60.08171113,,,,,,,,4,Ontime,long,f,1,2.0843,4,2,18,1,1,,,,,
,1.4,,,,,,,,,d,orange,56d9ee15610fc00005b71979,2021-09-27_17h24.28.384,forced_choiceRT_color,2021.2.3,Win32,60.08171113,,,,,,,,4,Ontime,long,d,1,2.0353,4,3,19,0,1,,,,,
,0.17,,,,,,,,,k,purple,56d9ee15610fc00005b71979,2021-09-27_17h24.28.384,forced_choiceRT_color,2021.2.3,Win32,60.08171113,,,,,,,,4,Ontime,long,k,1,2.0678,5,0,20,3,1,,,,,
,0.15,,,,,,,,,f,blue,56d9ee15610fc00005b71979,2021-09-27_17h24.28.384,forced_choiceRT_color,2021.2.3,Win32,60.08171113,,,,,,,,4,Ontime,long,f,1,2.0848,5,1,21,1,1,,,,,
,1.17,,,,,,,,,d,orange,56d9ee15610fc00005b71979,2021-09-27_17h24.28.384,forced_choiceRT_color,2021.2.3,Win32,60.08171113,,,,,,,,4,Slow,long,d,1,2.1167,5,2,22,0,1,,,,,
,1.53,,,,,,,,,j,red,56d9ee15610fc00005b71979,2021-09-27_17h24.28.384,forced_choiceRT_color,2021.2.3,Win32,60.08171113,,,,,,,,4,Slow,long,j,1,2.1512,5,3,23,2,1,,,,,
,0.08,,,,,,,,,f,blue,56d9ee15610fc00005b71979,2021-09-27_17h24.28.384,forced_choiceRT_color,2021.2.3,Win32,60.08171113,,,,,,,,4,Ontime,long,f,1,2.0178,6,0,24,1,1,,,,,
,0.74,,,,,,,,,j,red,56d9ee15610fc00005b71979,2021-09-27_17h24.28.384,forced_choiceRT_color,2021.2.3,Win32,60.08171113,,,,,,,,4,Ontime,long,j,1,1.9511,6,1,25,2,1,,,,,
,0.99,,,,,,,,,j,red,56d9ee15610fc00005b71979,2021-09-27_17h24.28.384,forced_choiceRT_color,2021.2.3,Win32,60.08171113,,,,,,,,4,Ontime,long,j,1,1.9514,6,2,26,2,1,,,,,
,0.44,,,,,,,,,k,purple,56d9ee15610fc00005b71979,2021-09-27_17h24.28.384,forced_choiceRT_color,2021.2.3,Win32,60.08171113,,,,,,,,4,Ontime,long,k,1,1.9848,6,3,27,3,1,,,,,
,0,,,,,,,,,j,red,56d9ee15610fc00005b71979,2021-09-27_17h24.28.384,forced_choiceRT_color,2021.2.3,Win32,60.08171113,,,,,,,,4,Ontime,long,j,1,1.9847,7,0,28,2,1,,,,,
,0.4,,,,,,,,,f,blue,56d9ee15610fc00005b71979,2021-09-27_17h24.28.384,forced_choiceRT_color,2021.2.3,Win32,60.08171113,,,,,,,,4,Ontime,long,f,1,1.9344,7,1,29,1,1,,,,,
,1.78,,,,,,,,,j,red,56d9ee15610fc00005b71979,2021-09-27_17h24.28.384,forced_choiceRT_color,2021.2.3,Win32,60.08171113,,,,,,,,4,Slow,long,f,0,2.2194,7,2,30,2,1,,,,,
,1.46,,,,,,,,,d,orange,56d9ee15610fc00005b71979,2021-09-27_17h24.28.384,forced_choiceRT_color,2021.2.3,Win32,60.08171113,,,,,,,,4,Ontime,long,d,1,2.0178,7,3,31,0,1,,,,,
,1.37,,,,,,,,,k,purple,56d9ee15610fc00005b71979,2021-09-27_17h24.28.384,forced_choiceRT_color,2021.2.3,Win32,60.08171113,,,,,,,,4,Ontime,long,k,1,1.9846,8,0,32,3,1,,,,,
,1.91,,,,,,,,,j,red,56d9ee15610fc00005b71979,2021-09-27_17h24.28.384,forced_choiceRT_color,2021.2.3,Win32,60.08171113,,,,,,,,4,Ontime,long,j,1,1.9434,8,1,33,2,1,,,,,
,0.28,,,,,,,,,f,blue,56d9ee15610fc00005b71979,2021-09-27_17h24.28.384,forced_choiceRT_color,2021.2.3,Win32,60.08171113,,,,,,,,4,Ontime,long,f,1,2.0184,8,2,34,1,1,,,,,
,1.99,,,,,,,,,d,orange,56d9ee15610fc00005b71979,2021-09-27_17h24.28.384,forced_choiceRT_color,2021.2.3,Win32,60.08171113,,,,,,,,4,Ontime,long,d,1,2.0679,8,3,35,0,1,,,,,
,0.65,,,,,,,,,d,orange,56d9ee15610fc00005b71979,2021-09-27_17h24.28.384,forced_choiceRT_color,2021.2.3,Win32,60.08171113,,,,,,,,4,Ontime,long,d,1,2.0012,9,0,36,0,1,,,,,
,0.1,,,,,,,,,d,orange,56d9ee15610fc00005b71979,2021-09-27_17h24.28.384,forced_choiceRT_color,2021.2.3,Win32,60.08171113,,,,,,,,4,Ontime,long,d,1,1.978,9,1,37,0,1,,,,,
,0.87,,,,,,,,,f,blue,56d9ee15610fc00005b71979,2021-09-27_17h24.28.384,forced_choiceRT_color,2021.2.3,Win32,60.08171113,,,,,,,,4,Ontime,long,f,1,2.0181,9,2,38,1,1,,,,,
,0.81,,,,,,,,,k,purple,56d9ee15610fc00005b71979,2021-09-27_17h24.28.384,forced_choiceRT_color,2021.2.3,Win32,60.08171113,,,,,,,,4,Ontime,long,k,1,1.9679,9,3,39,3,1,,,,,
,,,,,,,,,,,,56d9ee15610fc00005b71979,2021-09-27_17h24.28.384,forced_choiceRT_color,2021.2.3,Win32,60.08171113,,,,,,,,,,,,,,,,,,,3,0,3,0,1
,1.1,,,,,,,,,f,blue,56d9ee15610fc00005b71979,2021-09-27_17h24.28.384,forced_choiceRT_color,2021.2.3,Win32,60.08171113,,,,,,,,5,Ontime,long,f,1,1.9792,0,0,0,1,1,,,,,
,1.04,,,,,,,,,j,red,56d9ee15610fc00005b71979,2021-09-27_17h24.28.384,forced_choiceRT_color,2021.2.3,Win32,60.08171113,,,,,,,,5,Slow,long,j,1,2.1218,0,1,1,2,1,,,,,
,0.5,,,,,,,,,f,blue,56d9ee15610fc00005b71979,2021-09-27_17h24.28.384,forced_choiceRT_color,2021.2.3,Win32,60.08171113,,,,,,,,5,Ontime,long,f,1,1.9671,0,2,2,1,1,,,,,
,1.72,,,,,,,,,d,orange,56d9ee15610fc00005b71979,2021-09-27_17h24.28.384,forced_choiceRT_color,2021.2.3,Win32,60.08171113,,,,,,,,5,Slow,long,f,0,2.2724,0,3,3,0,1,,,,,
,1.42,,,,,,,,,j,red,56d9ee15610fc00005b71979,2021-09-27_17h24.28.384,forced_choiceRT_color,2021.2.3,Win32,60.08171113,,,,,,,,5,Ontime,long,f,0,1.9832,1,0,4,2,1,,,,,
,0.93,,,,,,,,,k,purple,56d9ee15610fc00005b71979,2021-09-27_17h24.28.384,forced_choiceRT_color,2021.2.3,Win32,60.08171113,,,,,,,,5,Ontime,long,k,1,1.9834,1,1,5,3,1,,,,,
,1.76,,,,,,,,,j,red,56d9ee15610fc00005b71979,2021-09-27_17h24.28.384,forced_choiceRT_color,2021.2.3,Win32,60.08171113,,,,,,,,5,Slow,long,j,1,2.7834,1,2,6,2,1,,,,,
,0.33,,,,,,,,,d,orange,56d9ee15610fc00005b71979,2021-09-27_17h24.28.384,forced_choiceRT_color,2021.2.3,Win32,60.08171113,,,,,,,,5,Slow,long,d,1,2.1838,1,3,7,0,1,,,,,
,1.94,,,,,,,,,j,red,56d9ee15610fc00005b71979,2021-09-27_17h24.28.384,forced_choiceRT_color,2021.2.3,Win32,60.08171113,,,,,,,,5,Slow,long,f,0,2.1332,2,0,8,2,1,,,,,
,1.43,,,,,,,,,f,blue,56d9ee15610fc00005b71979,2021-09-27_17h24.28.384,forced_choiceRT_color,2021.2.3,Win32,60.08171113,,,,,,,,5,Fast,long,f,1,1.7678,2,1,9,1,1,,,,,
,1.8,,,,,,,,,j,red,56d9ee15610fc00005b71979,2021-09-27_17h24.28.384,forced_choiceRT_color,2021.2.3,Win32,60.08171113,,,,,,,,5,Slow,long,d,0,2.1833,2,2,10,2,1,,,,,
,0.86,,,,,,,,,d,orange,56d9ee15610fc00005b71979,2021-09-27_17h24.28.384,forced_choiceRT_color,2021.2.3,Win32,60.08171113,,,,,,,,5,Ontime,long,d,1,1.9003,2,3,11,0,1,,,,,
,0.22,,,,,,,,,k,purple,56d9ee15610fc00005b71979,2021-09-27_17h24.28.384,forced_choiceRT_color,2021.2.3,Win32,60.08171113,,,,,,,,5,Fast,long,k,1,1.8998,3,0,12,3,1,,,,,
,0.43,,,,,,,,,d,orange,56d9ee15610fc00005b71979,2021-09-27_17h24.28.384,forced_choiceRT_color,2021.2.3,Win32,60.08171113,,,,,,,,5,Ontime,long,d,1,2.0162,3,1,13,0,1,,,,,
,0.04,,,,,,,,,d,orange,56d9ee15610fc00005b71979,2021-09-27_17h24.28.384,forced_choiceRT_color,2021.2.3,Win32,60.08171113,,,,,,,,5,Slow,long,d,1,2.1335,3,2,14,0,1,,,,,
,0.53,,,,,,,,,d,orange,56d9ee15610fc00005b71979,2021-09-27_17h24.28.384,forced_choiceRT_color,2021.2.3,Win32,60.08171113,,,,,,,,5,Fast,long,d,1,1.853,3,3,15,0,1,,,,,
,1.83,,,,,,,,,f,blue,56d9ee15610fc00005b71979,2021-09-27_17h24.28.384,forced_choiceRT_color,2021.2.3,Win32,60.08171113,,,,,,,,5,Ontime,long,k,0,2.0056,4,0,16,1,1,,,,,
,1.17,,,,,,,,,k,purple,56d9ee15610fc00005b71979,2021-09-27_17h24.28.384,forced_choiceRT_color,2021.2.3,Win32,60.08171113,,,,,,,,5,Ontime,long,k,1,2.0532,4,1,17,3,1,,,,,
,1.67,,,,,,,,,d,orange,56d9ee15610fc00005b71979,2021-09-27_17h24.28.384,forced_choiceRT_color,2021.2.3,Win32,60.08171113,,,,,,,,5,Slow,long,f,0,2.1333,4,2,18,0,1,,,,,
,0.63,,,,,,,,,k,purple,56d9ee15610fc00005b71979,2021-09-27_17h24.28.384,forced_choiceRT_color,2021.2.3,Win32,60.08171113,,,,,,,,5,Ontime,long,k,1,2.077,4,3,19,3,1,,,,,
,0.42,,,,,,,,,k,purple,56d9ee15610fc00005b71979,2021-09-27_17h24.28.384,forced_choiceRT_color,2021.2.3,Win32,60.08171113,,,,,,,,5,Ontime,long,k,1,1.9998,5,0,20,3,1,,,,,
,0.83,,,,,,,,,f,blue,56d9ee15610fc00005b71979,2021-09-27_17h24.28.384,forced_choiceRT_color,2021.2.3,Win32,60.08171113,,,,,,,,5,Ontime,long,f,1,2.0168,5,1,21,1,1,,,,,
,1.68,,,,,,,,,j,red,56d9ee15610fc00005b71979,2021-09-27_17h24.28.384,forced_choiceRT_color,2021.2.3,Win32,60.08171113,,,,,,,,5,Ontime,long,j,1,2.0253,5,2,22,2,1,,,,,
,0.31,,,,,,,,,f,blue,56d9ee15610fc00005b71979,2021-09-27_17h24.28.384,forced_choiceRT_color,2021.2.3,Win32,60.08171113,,,,,,,,5,Ontime,long,f,1,2.0043,5,3,23,1,1,,,,,
,0.67,,,,,,,,,f,blue,56d9ee15610fc00005b71979,2021-09-27_17h24.28.384,forced_choiceRT_color,2021.2.3,Win32,60.08171113,,,,,,,,5,Ontime,long,f,1,1.9861,6,0,24,1,1,,,,,
,0.42,,,,,,,,,k,purple,56d9ee15610fc00005b71979,2021-09-27_17h24.28.384,forced_choiceRT_color,2021.2.3,Win32,60.08171113,,,,,,,,5,Ontime,long,k,1,2.0332,6,1,25,3,1,,,,,
,1.79,,,,,,,,,k,purple,56d9ee15610fc00005b71979,2021-09-27_17h24.28.384,forced_choiceRT_color,2021.2.3,Win32,60.08171113,,,,,,,,5,Ontime,long,j,0,2.0206,6,2,26,3,1,,,,,
,0.24,,,,,,,,,k,purple,56d9ee15610fc00005b71979,2021-09-27_17h24.28.384,forced_choiceRT_color,2021.2.3,Win32,60.08171113,,,,,,,,5,Ontime,long,k,1,2.02,6,3,27,3,1,,,,,
,0.36,,,,,,,,,j,red,56d9ee15610fc00005b71979,2021-09-27_17h24.28.384,forced_choiceRT_color,2021.2.3,Win32,60.08171113,,,,,,,,5,Slow,long,j,1,2.1162,7,0,28,2,1,,,,,
,1.78,,,,,,,,,k,purple,56d9ee15610fc00005b71979,2021-09-27_17h24.28.384,forced_choiceRT_color,2021.2.3,Win32,60.08171113,,,,,,,,5,Ontime,long,k,1,1.9851,7,1,29,3,1,,,,,
,1.18,,,,,,,,,f,blue,56d9ee15610fc00005b71979,2021-09-27_17h24.28.384,forced_choiceRT_color,2021.2.3,Win32,60.08171113,,,,,,,,5,Ontime,long,d,0,2.0334,7,2,30,1,1,,,,,
,0.1,,,,,,,,,d,orange,56d9ee15610fc00005b71979,2021-09-27_17h24.28.384,forced_choiceRT_color,2021.2.3,Win32,60.08171113,,,,,,,,5,Ontime,long,d,1,1.9664,7,3,31,0,1,,,,,
,0.12,,,,,,,,,j,red,56d9ee15610fc00005b71979,2021-09-27_17h24.28.384,forced_choiceRT_color,2021.2.3,Win32,60.08171113,,,,,,,,5,Ontime,long,j,1,1.9556,8,0,32,2,1,,,,,
,1.77,,,,,,,,,j,red,56d9ee15610fc00005b71979,2021-09-27_17h24.28.384,forced_choiceRT_color,2021.2.3,Win32,60.08171113,,,,,,,,5,Slow,long,j,1,2.1665,8,1,33,2,1,,,,,
,1.82,,,,,,,,,j,red,56d9ee15610fc00005b71979,2021-09-27_17h24.28.384,forced_choiceRT_color,2021.2.3,Win32,60.08171113,,,,,,,,5,Slow,long,j,1,2.1164,8,2,34,2,1,,,,,
,0.14,,,,,,,,,k,purple,56d9ee15610fc00005b71979,2021-09-27_17h24.28.384,forced_choiceRT_color,2021.2.3,Win32,60.08171113,,,,,,,,5,Ontime,long,k,1,1.9667,8,3,35,3,1,,,,,
,1.87,,,,,,,,,f,blue,56d9ee15610fc00005b71979,2021-09-27_17h24.28.384,forced_choiceRT_color,2021.2.3,Win32,60.08171113,,,,,,,,5,Ontime,long,j,0,1.9513,9,0,36,1,1,,,,,
,0.39,,,,,,,,,d,orange,56d9ee15610fc00005b71979,2021-09-27_17h24.28.384,forced_choiceRT_color,2021.2.3,Win32,60.08171113,,,,,,,,5,Ontime,long,d,1,2.0062,9,1,37,0,1,,,,,
,1,,,,,,,,,f,blue,56d9ee15610fc00005b71979,2021-09-27_17h24.28.384,forced_choiceRT_color,2021.2.3,Win32,60.08171113,,,,,,,,5,Ontime,long,f,1,1.9832,9,2,38,1,1,,,,,
,0.31,,,,,,,,,d,orange,56d9ee15610fc00005b71979,2021-09-27_17h24.28.384,forced_choiceRT_color,2021.2.3,Win32,60.08171113,,,,,,,,5,Ontime,long,d,1,1.9514,9,3,39,0,1,,,,,
,,,,,,,,,,,,56d9ee15610fc00005b71979,2021-09-27_17h24.28.384,forced_choiceRT_color,2021.2.3,Win32,60.08171113,,,,,,,,,,,,,,,,,,,4,0,4,0,1
,1.08,,,,,,,,,f,blue,56d9ee15610fc00005b71979,2021-09-27_17h24.28.384,forced_choiceRT_color,2021.2.3,Win32,60.08171113,,,,,,,,6,Ontime,long,j,0,1.9329,0,0,0,1,1,,,,,
,1.2,,,,,,,,,f,blue,56d9ee15610fc00005b71979,2021-09-27_17h24.28.384,forced_choiceRT_color,2021.2.3,Win32,60.08171113,,,,,,,,6,Ontime,long,j,0,2.0511,0,1,1,1,1,,,,,
,0.79,,,,,,,,,k,purple,56d9ee15610fc00005b71979,2021-09-27_17h24.28.384,forced_choiceRT_color,2021.2.3,Win32,60.08171113,,,,,,,,6,Ontime,long,k,1,2.0511,0,2,2,3,1,,,,,
,0.65,,,,,,,,,d,orange,56d9ee15610fc00005b71979,2021-09-27_17h24.28.384,forced_choiceRT_color,2021.2.3,Win32,60.08171113,,,,,,,,6,Slow,long,d,1,2.1013,0,3,3,0,1,,,,,
,1.51,,,,,,,,,j,red,56d9ee15610fc00005b71979,2021-09-27_17h24.28.384,forced_choiceRT_color,2021.2.3,Win32,60.08171113,,,,,,,,6,Slow,long,f,0,2.2346,1,0,4,2,1,,,,,
,0.14,,,,,,,,,f,blue,56d9ee15610fc00005b71979,2021-09-27_17h24.28.384,forced_choiceRT_color,2021.2.3,Win32,60.08171113,,,,,,,,6,Ontime,long,f,1,2.0679,1,1,5,1,1,,,,,
,0.21,,,,,,,,,d,orange,56d9ee15610fc00005b71979,2021-09-27_17h24.28.384,forced_choiceRT_color,2021.2.3,Win32,60.08171113,,,,,,,,6,Ontime,long,d,1,2.001,1,2,6,0,1,,,,,
,0.17,,,,,,,,,d,orange,56d9ee15610fc00005b71979,2021-09-27_17h24.28.384,forced_choiceRT_color,2021.2.3,Win32,60.08171113,,,,,,,,6,Ontime,long,d,1,1.9847,1,3,7,0,1,,,,,
,0.74,,,,,,,,,j,red,56d9ee15610fc00005b71979,2021-09-27_17h24.28.384,forced_choiceRT_color,2021.2.3,Win32,60.08171113,,,,,,,,6,Ontime,long,j,1,2.0014,2,0,8,2,1,,,,,
,1.21,,,,,,,,,d,orange,56d9ee15610fc00005b71979,2021-09-27_17h24.28.384,forced_choiceRT_color,2021.2.3,Win32,60.08171113,,,,,,,,6,Ontime,long,d,1,2.0513,2,1,9,0,1,,,,,
,1.83,,,,,,,,,d,orange,56d9ee15610fc00005b71979,2021-09-27_17h24.28.384,forced_choiceRT_color,2021.2.3,Win32,60.08171113,,,,,,,,6,Slow,long,d,1,2.2919,2,2,10,0,1,,,,,
,1.07,,,,,,,,,k,purple,56d9ee15610fc00005b71979,2021-09-27_17h24.28.384,forced_choiceRT_color,2021.2.3,Win32,60.08171113,,,,,,,,6,Ontime,long,j,0,1.9684,2,3,11,3,1,,,,,
,1.66,,,,,,,,,f,blue,56d9ee15610fc00005b71979,2021-09-27_17h24.28.384,forced_choiceRT_color,2021.2.3,Win32,60.08171113,,,,,,,,6,Ontime,long,k,0,2.0679,3,0,12,1,1,,,,,
,0.99,,,,,,,,,d,orange,56d9ee15610fc00005b71979,2021-09-27_17h24.28.384,forced_choiceRT_color,2021.2.3,Win32,60.08171113,,,,,,,,6,Ontime,long,d,1,2.0011,3,1,13,0,1,,,,,
,1.86,,,,,,,,,k,purple,56d9ee15610fc00005b71979,2021-09-27_17h24.28.384,forced_choiceRT_color,2021.2.3,Win32,60.08171113,,,,,,,,6,Ontime,long,f,0,2.0846,3,2,14,3,1,,,,,
,1.31,,,,,,,,,j,red,56d9ee15610fc00005b71979,2021-09-27_17h24.28.384,forced_choiceRT_color,2021.2.3,Win32,60.08171113,,,,,,,,6,Ontime,long,j,1,1.9843,3,3,15,2,1,,,,,
,0.87,,,,,,,,,k,purple,56d9ee15610fc00005b71979,2021-09-27_17h24.28.384,forced_choiceRT_color,2021.2.3,Win32,60.08171113,,,,,,,,6,Ontime,long,k,1,2.0512,4,0,16,3,1,,,,,
,1.07,,,,,,,,,j,red,56d9ee15610fc00005b71979,2021-09-27_17h24.28.384,forced_choiceRT_color,2021.2.3,Win32,60.08171113,,,,,,,,6,Ontime,long,j,1,2.001,4,1,17,2,1,,,,,
,1.01,,,,,,,,,d,orange,56d9ee15610fc00005b71979,2021-09-27_17h24.28.384,forced_choiceRT_color,2021.2.3,Win32,60.08171113,,,,,,,,6,Ontime,long,d,1,2.035,4,2,18,0,1,,,,,
,1.44,,,,,,,,,f,blue,56d9ee15610fc00005b71979,2021-09-27_17h24.28.384,forced_choiceRT_color,2021.2.3,Win32,60.08171113,,,,,,,,6,Slow,long,j,0,2.1102,4,3,19,1,1,,,,,
,0.05,,,,,,,,,d,orange,56d9ee15610fc00005b71979,2021-09-27_17h24.28.384,forced_choiceRT_color,2021.2.3,Win32,60.08171113,,,,,,,,6,Ontime,long,d,1,1.9347,5,0,20,0,1,,,,,
,1.12,,,,,,,,,k,purple,56d9ee15610fc00005b71979,2021-09-27_17h24.28.384,forced_choiceRT_color,2021.2.3,Win32,60.08171113,,,,,,,,6,Ontime,long,k,1,1.9678,5,1,21,3,1,,,,,
,1.35,,,,,,,,,f,blue,56d9ee15610fc00005b71979,2021-09-27_17h24.28.384,forced_choiceRT_color,2021.2.3,Win32,60.08171113,,,,,,,,6,Ontime,long,f,1,1.9844,5,2,22,1,1,,,,,
,0.98,,,,,,,,,d,orange,56d9ee15610fc00005b71979,2021-09-27_17h24.28.384,forced_choiceRT_color,2021.2.3,Win32,60.08171113,,,,,,,,6,Ontime,long,d,1,2.0349,5,3,23,0,1,,,,,
,1.56,,,,,,,,,j,red,56d9ee15610fc00005b71979,2021-09-27_17h24.28.384,forced_choiceRT_color,2021.2.3,Win32,60.08171113,,,,,,,,6,Ontime,long,j,1,1.9511,6,0,24,2,1,,,,,
,0.49,,,,,,,,,k,purple,56d9ee15610fc00005b71979,2021-09-27_17h24.28.384,forced_choiceRT_color,2021.2.3,Win32,60.08171113,,,,,,,,6,Ontime,long,k,1,2.0675,6,1,25,3,1,,,,,
,0.54,,,,,,,,,k,purple,56d9ee15610fc00005b71979,2021-09-27_17h24.28.384,forced_choiceRT_color,2021.2.3,Win32,60.08171113,,,,,,,,6,Ontime,long,k,1,1.9843,6,2,26,3,1,,,,,
,1.04,,,,,,,,,f,blue,56d9ee15610fc00005b71979,2021-09-27_17h24.28.384,forced_choiceRT_color,2021.2.3,Win32,60.08171113,,,,,,,,6,Ontime,long,f,1,1.9343,6,3,27,1,1,,,,,
,0.94,,,,,,,,,k,purple,56d9ee15610fc00005b71979,2021-09-27_17h24.28.384,forced_choiceRT_color,2021.2.3,Win32,60.08171113,,,,,,,,6,Ontime,long,k,1,1.9679,7,0,28,3,1,,,,,
,1.49,,,,,,,,,k,purple,56d9ee15610fc00005b71979,2021-09-27_17h24.28.384,forced_choiceRT_color,2021.2.3,Win32,60.08171113,,,,,,,,6,Ontime,long,k,1,2.0186,7,1,29,3,1,,,,,
,1.24,,,,,,,,,d,orange,56d9ee15610fc00005b71979,2021-09-27_17h24.28.384,forced_choiceRT_color,2021.2.3,Win32,60.08171113,,,,,,,,6,Ontime,long,d,1,2.0012,7,2,30,0,1,,,,,
,0.73,,,,,,,,,k,purple,56d9ee15610fc00005b71979,2021-09-27_17h24.28.384,forced_choiceRT_color,2021.2.3,Win32,60.08171113,,,,,,,,6,Ontime,long,k,1,2.0179,7,3,31,3,1,,,,,
,1.23,,,,,,,,,j,red,56d9ee15610fc00005b71979,2021-09-27_17h24.28.384,forced_choiceRT_color,2021.2.3,Win32,60.08171113,,,,,,,,6,Slow,long,j,1,2.1011,8,0,32,2,1,,,,,
,1.16,,,,,,,,,f,blue,56d9ee15610fc00005b71979,2021-09-27_17h24.28.384,forced_choiceRT_color,2021.2.3,Win32,60.08171113,,,,,,,,6,Fast,long,f,1,1.8177,8,1,33,1,1,,,,,
,0.8,,,,,,,,,j,red,56d9ee15610fc00005b71979,2021-09-27_17h24.28.384,forced_choiceRT_color,2021.2.3,Win32,60.08171113,,,,,,,,6,Ontime,long,j,1,2.0511,8,2,34,2,1,,,,,
,0.79,,,,,,,,,f,blue,56d9ee15610fc00005b71979,2021-09-27_17h24.28.384,forced_choiceRT_color,2021.2.3,Win32,60.08171113,,,,,,,,6,Ontime,long,k,0,1.9012,8,3,35,1,1,,,,,
,0.35,,,,,,,,,f,blue,56d9ee15610fc00005b71979,2021-09-27_17h24.28.384,forced_choiceRT_color,2021.2.3,Win32,60.08171113,,,,,,,,6,Ontime,long,f,1,1.9345,9,0,36,1,1,,,,,
,1.08,,,,,,,,,j,red,56d9ee15610fc00005b71979,2021-09-27_17h24.28.384,forced_choiceRT_color,2021.2.3,Win32,60.08171113,,,,,,,,6,Ontime,long,j,1,2.0179,9,1,37,2,1,,,,,
,0.22,,,,,,,,,j,red,56d9ee15610fc00005b71979,2021-09-27_17h24.28.384,forced_choiceRT_color,2021.2.3,Win32,60.08171113,,,,,,,,6,Ontime,long,j,1,1.968,9,2,38,2,1,,,,,
,0.24,,,,,,,,,j,red,56d9ee15610fc00005b71979,2021-09-27_17h24.28.384,forced_choiceRT_color,2021.2.3,Win32,60.08171113,,,,,,,,6,Ontime,long,j,1,1.9346,9,3,39,2,1,,,,,
,,,,,,,,,,,,56d9ee15610fc00005b71979,2021-09-27_17h24.28.384,forced_choiceRT_color,2021.2.3,Win32,60.08171113,,,,,,,,,,,,,,,,,,,5,0,5,0,1
,1.31,,,,,,,,,f,blue,56d9ee15610fc00005b71979,2021-09-27_17h24.28.384,forced_choiceRT_color,2021.2.3,Win32,60.08171113,,,,,,,,7,Ontime,long,k,0,1.9794,0,0,0,1,1,,,,,
,0.35,,,,,,,,,k,purple,56d9ee15610fc00005b71979,2021-09-27_17h24.28.384,forced_choiceRT_color,2021.2.3,Win32,60.08171113,,,,,,,,7,Fast,long,k,1,1.8998,0,1,1,3,1,,,,,
,0.81,,,,,,,,,f,blue,56d9ee15610fc00005b71979,2021-09-27_17h24.28.384,forced_choiceRT_color,2021.2.3,Win32,60.08171113,,,,,,,,7,Ontime,long,f,1,1.9665,0,2,2,1,1,,,,,
,0.41,,,,,,,,,k,purple,56d9ee15610fc00005b71979,2021-09-27_17h24.28.384,forced_choiceRT_color,2021.2.3,Win32,60.08171113,,,,,,,,7,Ontime,long,k,1,1.9997,0,3,3,3,1,,,,,
,0.24,,,,,,,,,d,orange,56d9ee15610fc00005b71979,2021-09-27_17h24.28.384,forced_choiceRT_color,2021.2.3,Win32,60.08171113,,,,,,,,7,Ontime,long,d,1,1.9556,1,0,4,0,1,,,,,
,0.84,,,,,,,,,d,orange,56d9ee15610fc00005b71979,2021-09-27_17h24.28.384,forced_choiceRT_color,2021.2.3,Win32,60.08171113,,,,,,,,7,Ontime,long,d,1,2.0498,1,1,5,0,1,,,,,
,0.34,,,,,,,,,j,red,56d9ee15610fc00005b71979,2021-09-27_17h24.28.384,forced_choiceRT_color,2021.2.3,Win32,60.08171113,,,,,,,,7,Ontime,long,j,1,1.9832,1,2,6,2,1,,,,,
,1.18,,,,,,,,,k,purple,56d9ee15610fc00005b71979,2021-09-27_17h24.28.384,forced_choiceRT_color,2021.2.3,Win32,60.08171113,,,,,,,,7,Ontime,long,k,1,2.0247,1,3,7,3,1,,,,,
,0.35,,,,,,,,,f,blue,56d9ee15610fc00005b71979,2021-09-27_17h24.28.384,forced_choiceRT_color,2021.2.3,Win32,60.08171113,,,,,,,,7,Ontime,long,f,1,2.0181,2,0,8,1,1,,,,,
,1.16,,,,,,,,,f,blue,56d9ee15610fc00005b71979,2021-09-27_17h24.28.384,forced_choiceRT_color,2021.2.3,Win32,60.08171113,,,,,,,,7,Ontime,long,j,0,1.9668,2,1,9,1,1,,,,,
,1.54,,,,,,,,,j,red,56d9ee15610fc00005b71979,2021-09-27_17h24.28.384,forced_choiceRT_color,2021.2.3,Win32,60.08171113,,,,,,,,7,Slow,long,j,1,2.1053,2,2,10,2,1,,,,,
,0.94,,,,,,,,,d,orange,56d9ee15610fc00005b71979,2021-09-27_17h24.28.384,forced_choiceRT_color,2021.2.3,Win32,60.08171113,,,,,,,,7,Ontime,long,d,1,1.9997,2,3,11,0,1,,,,,
,0.19,,,,,,,,,k,purple,56d9ee15610fc00005b71979,2021-09-27_17h24.28.384,forced_choiceRT_color,2021.2.3,Win32,60.08171113,,,,,,,,7,Ontime,long,k,1,1.9375,3,0,12,3,1,,,,,
,0.46,,,,,,,,,j,red,56d9ee15610fc00005b71979,2021-09-27_17h24.28.384,forced_choiceRT_color,2021.2.3,Win32,60.08171113,,,,,,,,7,Ontime,long,j,1,1.9076,3,1,13,2,1,,,,,
,1.66,,,,,,,,,f,blue,56d9ee15610fc00005b71979,2021-09-27_17h24.28.384,forced_choiceRT_color,2021.2.3,Win32,60.08171113,,,,,,,,7,Slow,long,k,0,2.633,3,2,14,1,1,,,,,
,0.39,,,,,,,,,f,blue,56d9ee15610fc00005b71979,2021-09-27_17h24.28.384,forced_choiceRT_color,2021.2.3,Win32,60.08171113,,,,,,,,7,Ontime,long,f,1,1.9678,3,3,15,1,1,,,,,
,1.66,,,,,,,,,j,red,56d9ee15610fc00005b71979,2021-09-27_17h24.28.384,forced_choiceRT_color,2021.2.3,Win32,60.08171113,,,,,,,,7,Slow,long,f,0,2.1498,4,0,16,2,1,,,,,
,1.5,,,,,,,,,k,purple,56d9ee15610fc00005b71979,2021-09-27_17h24.28.384,forced_choiceRT_color,2021.2.3,Win32,60.08171113,,,,,,,,7,Ontime,long,j,0,1.9335,4,1,17,3,1,,,,,
,0.48,,,,,,,,,f,blue,56d9ee15610fc00005b71979,2021-09-27_17h24.28.384,forced_choiceRT_color,2021.2.3,Win32,60.08171113,,,,,,,,7,Ontime,long,f,1,1.9543,4,2,18,1,1,,,,,
,0.5,,,,,,,,,d,orange,56d9ee15610fc00005b71979,2021-09-27_17h24.28.384,forced_choiceRT_color,2021.2.3,Win32,60.08171113,,,,,,,,7,Ontime,long,d,1,1.9839,4,3,19,0,1,,,,,
,1.61,,,,,,,,,d,orange,56d9ee15610fc00005b71979,2021-09-27_17h24.28.384,forced_choiceRT_color,2021.2.3,Win32,60.08171113,,,,,,,,7,Slow,long,d,1,2.1168,5,0,20,0,1,,,,,
,1.21,,,,,,,,,k,purple,56d9ee15610fc00005b71979,2021-09-27_17h24.28.384,forced_choiceRT_color,2021.2.3,Win32,60.08171113,,,,,,,,7,Ontime,long,k,1,1.9515,5,1,21,3,1,,,,,
,1.86,,,,,,,,,j,red,56d9ee15610fc00005b71979,2021-09-27_17h24.28.384,forced_choiceRT_color,2021.2.3,Win32,60.08171113,,,,,,,,7,Ontime,long,j,1,2.0335,5,2,22,2,1,,,,,
,0.81,,,,,,,,,d,orange,56d9ee15610fc00005b71979,2021-09-27_17h24.28.384,forced_choiceRT_color,2021.2.3,Win32,60.08171113,,,,,,,,7,Ontime,long,d,1,2.0573,5,3,23,0,1,,,,,
,1.06,,,,,,,,,j,red,56d9ee15610fc00005b71979,2021-09-27_17h24.28.384,forced_choiceRT_color,2021.2.3,Win32,60.08171113,,,,,,,,7,Ontime,long,j,1,2.05,6,0,24,2,1,,,,,
,0.12,,,,,,,,,j,red,56d9ee15610fc00005b71979,2021-09-27_17h24.28.384,forced_choiceRT_color,2021.2.3,Win32,60.08171113,,,,,,,,7,Ontime,long,j,1,1.9332,6,1,25,2,1,,,,,
,0.78,,,,,,,,,j,red,56d9ee15610fc00005b71979,2021-09-27_17h24.28.384,forced_choiceRT_color,2021.2.3,Win32,60.08171113,,,,,,,,7,Ontime,long,j,1,1.9998,6,2,26,2,1,,,,,
,0.33,,,,,,,,,d,orange,56d9ee15610fc00005b71979,2021-09-27_17h24.28.384,forced_choiceRT_color,2021.2.3,Win32,60.08171113,,,,,,,,7,Fast,long,d,1,1.8839,6,3,27,0,1,,,,,
,0.45,,,,,,,,,j,red,56d9ee15610fc00005b71979,2021-09-27_17h24.28.384,forced_choiceRT_color,2021.2.3,Win32,60.08171113,,,,,,,,7,Ontime,long,j,1,1.9358,7,0,28,2,1,,,,,
,1.33,,,,,,,,,d,orange,56d9ee15610fc00005b71979,2021-09-27_17h24.28.384,forced_choiceRT_color,2021.2.3,Win32,60.08171113,,,,,,,,7,Ontime,long,d,1,1.985,7,1,29,0,1,,,,,
,0.25,,,,,,,,,k,purple,56d9ee15610fc00005b71979,2021-09-27_17h24.28.384,forced_choiceRT_color,2021.2.3,Win32,60.08171113,,,,,,,,7,Ontime,long,k,1,2.0166,7,2,30,3,1,,,,,
,1.14,,,,,,,,,d,orange,56d9ee15610fc00005b71979,2021-09-27_17h24.28.384,forced_choiceRT_color,2021.2.3,Win32,60.08171113,,,,,,,,7,Ontime,long,d,1,2.0679,7,3,31,0,1,,,,,
,0.07,,,,,,,,,k,purple,56d9ee15610fc00005b71979,2021-09-27_17h24.28.384,forced_choiceRT_color,2021.2.3,Win32,60.08171113,,,,,,,,7,Ontime,long,k,1,2.0495,8,0,32,3,1,,,,,
,0.55,,,,,,,,,k,purple,56d9ee15610fc00005b71979,2021-09-27_17h24.28.384,forced_choiceRT_color,2021.2.3,Win32,60.08171113,,,,,,,,7,Ontime,long,k,1,2.0503,8,1,33,3,1,,,,,
,1.98,,,,,,,,,f,blue,56d9ee15610fc00005b71979,2021-09-27_17h24.28.384,forced_choiceRT_color,2021.2.3,Win32,60.08171113,,,,,,,,7,Ontime,long,j,0,2.0167,8,2,34,1,1,,,,,
,0.25,,,,,,,,,k,purple,56d9ee15610fc00005b71979,2021-09-27_17h24.28.384,forced_choiceRT_color,2021.2.3,Win32,60.08171113,,,,,,,,7,Ontime,long,k,1,1.9699,8,3,35,3,1,,,,,
,1.95,,,,,,,,,f,blue,56d9ee15610fc00005b71979,2021-09-27_17h24.28.384,forced_choiceRT_color,2021.2.3,Win32,60.08171113,,,,,,,,7,Ontime,long,d,0,1.9539,9,0,36,1,1,,,,,
,1.1,,,,,,,,,d,orange,56d9ee15610fc00005b71979,2021-09-27_17h24.28.384,forced_choiceRT_color,2021.2.3,Win32,60.08171113,,,,,,,,7,Ontime,long,d,1,2.005,9,1,37,0,1,,,,,
,1.08,,,,,,,,,f,blue,56d9ee15610fc00005b71979,2021-09-27_17h24.28.384,forced_choiceRT_color,2021.2.3,Win32,60.08171113,,,,,,,,7,Ontime,long,f,1,1.9509,9,2,38,1,1,,,,,
,1.11,,,,,,,,,j,red,56d9ee15610fc00005b71979,2021-09-27_17h24.28.384,forced_choiceRT_color,2021.2.3,Win32,60.08171113,,,,,,,,7,Fast,long,j,1,1.8178,9,3,39,2,1,,,,,
,,,,,,,,,,,,56d9ee15610fc00005b71979,2021-09-27_17h24.28.384,forced_choiceRT_color,2021.2.3,Win32,60.08171113,,,,,,,,,,,,,,,,,,,6,0,6,0,1
,0.81,,,,,,,,,k,purple,56d9ee15610fc00005b71979,2021-09-27_17h24.28.384,forced_choiceRT_color,2021.2.3,Win32,60.08171113,,,,,,,,8,Ontime,long,k,1,1.9489,0,0,0,3,1,,,,,
,1.74,,,,,,,,,f,blue,56d9ee15610fc00005b71979,2021-09-27_17h24.28.384,forced_choiceRT_color,2021.2.3,Win32,60.08171113,,,,,,,,8,Slow,long,j,0,2.1167,0,1,1,1,1,,,,,
,1.01,,,,,,,,,k,purple,56d9ee15610fc00005b71979,2021-09-27_17h24.28.384,forced_choiceRT_color,2021.2.3,Win32,60.08171113,,,,,,,,8,Ontime,long,k,1,2,0,2,2,3,1,,,,,
,1.01,,,,,,,,,k,purple,56d9ee15610fc00005b71979,2021-09-27_17h24.28.384,forced_choiceRT_color,2021.2.3,Win32,60.08171113,,,,,,,,8,Ontime,long,k,1,1.9828,0,3,3,3,1,,,,,
,1.74,,,,,,,,,k,purple,56d9ee15610fc00005b71979,2021-09-27_17h24.28.384,forced_choiceRT_color,2021.2.3,Win32,60.08171113,,,,,,,,8,Ontime,long,f,0,2.0996,1,0,4,3,1,,,,,
,1.47,,,,,,,,,k,purple,56d9ee15610fc00005b71979,2021-09-27_17h24.28.384,forced_choiceRT_color,2021.2.3,Win32,60.08171113,,,,,,,,8,Fast,long,k,1,1.8217,1,1,5,3,1,,,,,
,0.81,,,,,,,,,f,blue,56d9ee15610fc00005b71979,2021-09-27_17h24.28.384,forced_choiceRT_color,2021.2.3,Win32,60.08171113,,,,,,,,8,Ontime,long,f,1,2.0027,1,2,6,1,1,,,,,
,0.56,,,,,,,,,j,red,56d9ee15610fc00005b71979,2021-09-27_17h24.28.384,forced_choiceRT_color,2021.2.3,Win32,60.08171113,,,,,,,,8,Ontime,long,j,1,2.0169,1,3,7,2,1,,,,,
,0.85,,,,,,,,,f,blue,56d9ee15610fc00005b71979,2021-09-27_17h24.28.384,forced_choiceRT_color,2021.2.3,Win32,60.08171113,,,,,,,,8,Ontime,long,f,1,1.9383,2,0,8,1,1,,,,,
,0.97,,,,,,,,,j,red,56d9ee15610fc00005b71979,2021-09-27_17h24.28.384,forced_choiceRT_color,2021.2.3,Win32,60.08171113,,,,,,,,8,Ontime,long,j,1,2.0164,2,1,9,2,1,,,,,
,1.95,,,,,,,,,d,orange,56d9ee15610fc00005b71979,2021-09-27_17h24.28.384,forced_choiceRT_color,2021.2.3,Win32,60.08171113,,,,,,,,8,Ontime,long,j,0,1.9831,2,2,10,0,1,,,,,
,0.32,,,,,,,,,d,orange,56d9ee15610fc00005b71979,2021-09-27_17h24.28.384,forced_choiceRT_color,2021.2.3,Win32,60.08171113,,,,,,,,8,Ontime,long,d,1,2.0337,2,3,11,0,1,,,,,
,1.72,,,,,,,,,j,red,56d9ee15610fc00005b71979,2021-09-27_17h24.28.384,forced_choiceRT_color,2021.2.3,Win32,60.08171113,,,,,,,,8,Ontime,long,f,0,2.0017,3,0,12,2,1,,,,,
,0.94,,,,,,,,,d,orange,56d9ee15610fc00005b71979,2021-09-27_17h24.28.384,forced_choiceRT_color,2021.2.3,Win32,60.08171113,,,,,,,,8,Fast,long,d,1,1.8329,3,1,13,0,1,,,,,
,0.49,,,,,,,,,d,orange,56d9ee15610fc00005b71979,2021-09-27_17h24.28.384,forced_choiceRT_color,2021.2.3,Win32,60.08171113,,,,,,,,8,Ontime,long,d,1,2.0892,3,2,14,0,1,,,,,
,1.97,,,,,,,,,d,orange,56d9ee15610fc00005b71979,2021-09-27_17h24.28.384,forced_choiceRT_color,2021.2.3,Win32,60.08171113,,,,,,,,8,Slow,long,f,0,2.183,3,3,15,0,1,,,,,
,0.39,,,,,,,,,k,purple,56d9ee15610fc00005b71979,2021-09-27_17h24.28.384,forced_choiceRT_color,2021.2.3,Win32,60.08171113,,,,,,,,8,Ontime,long,k,1,2.0164,4,0,16,3,1,,,,,
,1.84,,,,,,,,,j,red,56d9ee15610fc00005b71979,2021-09-27_17h24.28.384,forced_choiceRT_color,2021.2.3,Win32,60.08171113,,,,,,,,8,Slow,long,f,0,2.1664,4,1,17,2,1,,,,,
,1.2,,,,,,,,,j,red,56d9ee15610fc00005b71979,2021-09-27_17h24.28.384,forced_choiceRT_color,2021.2.3,Win32,60.08171113,,,,,,,,8,Ontime,long,j,1,2.0732,4,2,18,2,1,,,,,
,0.49,,,,,,,,,d,orange,56d9ee15610fc00005b71979,2021-09-27_17h24.28.384,forced_choiceRT_color,2021.2.3,Win32,60.08171113,,,,,,,,8,Ontime,long,d,1,2.0329,4,3,19,0,1,,,,,
,0.84,,,,,,,,,f,blue,56d9ee15610fc00005b71979,2021-09-27_17h24.28.384,forced_choiceRT_color,2021.2.3,Win32,60.08171113,,,,,,,,8,Ontime,long,j,0,1.9831,5,0,20,1,1,,,,,
,1.09,,,,,,,,,d,orange,56d9ee15610fc00005b71979,2021-09-27_17h24.28.384,forced_choiceRT_color,2021.2.3,Win32,60.08171113,,,,,,,,8,Slow,long,d,1,2.1826,5,1,21,0,1,,,,,
,0.13,,,,,,,,,f,blue,56d9ee15610fc00005b71979,2021-09-27_17h24.28.384,forced_choiceRT_color,2021.2.3,Win32,60.08171113,,,,,,,,8,Ontime,long,f,1,1.9036,5,2,22,1,1,,,,,
,1.23,,,,,,,,,j,red,56d9ee15610fc00005b71979,2021-09-27_17h24.28.384,forced_choiceRT_color,2021.2.3,Win32,60.08171113,,,,,,,,8,Ontime,long,j,1,1.9669,5,3,23,2,1,,,,,
,1.5,,,,,,,,,k,purple,56d9ee15610fc00005b71979,2021-09-27_17h24.28.384,forced_choiceRT_color,2021.2.3,Win32,60.08171113,,,,,,,,8,Ontime,long,j,0,1.9831,6,0,24,3,1,,,,,
,0.51,,,,,,,,,k,purple,56d9ee15610fc00005b71979,2021-09-27_17h24.28.384,forced_choiceRT_color,2021.2.3,Win32,60.08171113,,,,,,,,8,Ontime,long,k,1,1.9542,6,1,25,3,1,,,,,
,1.7,,,,,,,,,f,blue,56d9ee15610fc00005b71979,2021-09-27_17h24.28.384,forced_choiceRT_color,2021.2.3,Win32,60.08171113,,,,,,,,8,Ontime,long,f,1,1.9499,6,2,26,1,1,,,,,
,0.87,,,,,,,,,d,orange,56d9ee15610fc00005b71979,2021-09-27_17h24.28.384,forced_choiceRT_color,2021.2.3,Win32,60.08171113,,,,,,,,8,Ontime,long,d,1,2.0854,6,3,27,0,1,,,,,
,0.17,,,,,,,,,d,orange,56d9ee15610fc00005b71979,2021-09-27_17h24.28.384,forced_choiceRT_color,2021.2.3,Win32,60.08171113,,,,,,,,8,Ontime,long,d,1,1.9334,7,0,28,0,1,,,,,
,0.34,,,,,,,,,j,red,56d9ee15610fc00005b71979,2021-09-27_17h24.28.384,forced_choiceRT_color,2021.2.3,Win32,60.08171113,,,,,,,,8,Ontime,long,j,1,1.9678,7,1,29,2,1,,,,,
,1.98,,,,,,,,,f,blue,56d9ee15610fc00005b71979,2021-09-27_17h24.28.384,forced_choiceRT_color,2021.2.3,Win32,60.08171113,,,,,,,,8,Ontime,long,j,0,2.0349,7,2,30,1,1,,,,,
,1.71,,,,,,,,,f,blue,56d9ee15610fc00005b71979,2021-09-27_17h24.28.384,forced_choiceRT_color,2021.2.3,Win32,60.08171113,,,,,,,,8,Ontime,long,f,1,2.068,7,3,31,1,1,,,,,
,0.91,,,,,,,,,k,purple,56d9ee15610fc00005b71979,2021-09-27_17h24.28.384,forced_choiceRT_color,2021.2.3,Win32,60.08171113,,,,,,,,8,Ontime,long,k,1,2.0348,8,0,32,3,1,,,,,
,1.08,,,,,,,,,f,blue,56d9ee15610fc00005b71979,2021-09-27_17h24.28.384,forced_choiceRT_color,2021.2.3,Win32,60.08171113,,,,,,,,8,Ontime,long,k,0,2.0236,8,1,33,1,1,,,,,
,0.67,,,,,,,,,j,red,56d9ee15610fc00005b71979,2021-09-27_17h24.28.384,forced_choiceRT_color,2021.2.3,Win32,60.08171113,,,,,,,,8,Ontime,long,j,1,2.0347,8,2,34,2,1,,,,,
,1.68,,,,,,,,,k,purple,56d9ee15610fc00005b71979,2021-09-27_17h24.28.384,forced_choiceRT_color,2021.2.3,Win32,60.08171113,,,,,,,,8,Slow,long,j,0,2.1674,8,3,35,3,1,,,,,
,0.95,,,,,,,,,j,red,56d9ee15610fc00005b71979,2021-09-27_17h24.28.384,forced_choiceRT_color,2021.2.3,Win32,60.08171113,,,,,,,,8,Ontime,long,j,1,2.0012,9,0,36,2,1,,,,,
,0.43,,,,,,,,,j,red,56d9ee15610fc00005b71979,2021-09-27_17h24.28.384,forced_choiceRT_color,2021.2.3,Win32,60.08171113,,,,,,,,8,Ontime,long,j,1,1.9344,9,1,37,2,1,,,,,
,0.66,,,,,,,,,f,blue,56d9ee15610fc00005b71979,2021-09-27_17h24.28.384,forced_choiceRT_color,2021.2.3,Win32,60.08171113,,,,,,,,8,Slow,long,f,1,2.1011,9,2,38,1,1,,,,,
,0.61,,,,,,,,,d,orange,56d9ee15610fc00005b71979,2021-09-27_17h24.28.384,forced_choiceRT_color,2021.2.3,Win32,60.08171113,,,,,,,,8,Ontime,long,d,1,1.9677,9,3,39,0,1,,,,,
,,,,,,,,,,,,56d9ee15610fc00005b71979,2021-09-27_17h24.28.384,forced_choiceRT_color,2021.2.3,Win32,60.08171113,,,,,,,,,,,,,,,,,,,7,0,7,0,1
,0.63,,,,,,,,,k,purple,56d9ee15610fc00005b71979,2021-09-27_17h24.28.384,forced_choiceRT_color,2021.2.3,Win32,60.08171113,,,,,,,,9,Ontime,long,k,1,1.9624,0,0,0,3,1,,,,,
,0.45,,,,,,,,,f,blue,56d9ee15610fc00005b71979,2021-09-27_17h24.28.384,forced_choiceRT_color,2021.2.3,Win32,60.08171113,,,,,,,,9,Ontime,long,f,1,2.0003,0,1,1,1,1,,,,,
,0.88,,,,,,,,,f,blue,56d9ee15610fc00005b71979,2021-09-27_17h24.28.384,forced_choiceRT_color,2021.2.3,Win32,60.08171113,,,,,,,,9,Ontime,long,f,1,1.9833,0,2,2,1,1,,,,,
,0.06,,,,,,,,,f,blue,56d9ee15610fc00005b71979,2021-09-27_17h24.28.384,forced_choiceRT_color,2021.2.3,Win32,60.08171113,,,,,,,,9,Ontime,long,f,1,1.9665,0,3,3,1,1,,,,,
,1.17,,,,,,,,,k,purple,56d9ee15610fc00005b71979,2021-09-27_17h24.28.384,forced_choiceRT_color,2021.2.3,Win32,60.08171113,,,,,,,,9,Ontime,long,k,1,2,1,0,4,3,1,,,,,
,1.17,,,,,,,,,f,blue,56d9ee15610fc00005b71979,2021-09-27_17h24.28.384,forced_choiceRT_color,2021.2.3,Win32,60.08171113,,,,,,,,9,Fast,long,f,1,1.8214,1,1,5,1,1,,,,,
,0.72,,,,,,,,,d,orange,56d9ee15610fc00005b71979,2021-09-27_17h24.28.384,forced_choiceRT_color,2021.2.3,Win32,60.08171113,,,,,,,,9,Ontime,long,d,1,2.0059,1,2,6,0,1,,,,,
,0.92,,,,,,,,,f,blue,56d9ee15610fc00005b71979,2021-09-27_17h24.28.384,forced_choiceRT_color,2021.2.3,Win32,60.08171113,,,,,,,,9,Slow,long,f,1,2.1368,1,3,7,1,1,,,,,
,1.41,,,,,,,,,j,red,56d9ee15610fc00005b71979,2021-09-27_17h24.28.384,forced_choiceRT_color,2021.2.3,Win32,60.08171113,,,,,,,,9,Ontime,long,j,1,2.0162,2,0,8,2,1,,,,,
,0.72,,,,,,,,,k,purple,56d9ee15610fc00005b71979,2021-09-27_17h24.28.384,forced_choiceRT_color,2021.2.3,Win32,60.08171113,,,,,,,,9,Ontime,long,k,1,1.9997,2,1,9,3,1,,,,,
,0.97,,,,,,,,,j,red,56d9ee15610fc00005b71979,2021-09-27_17h24.28.384,forced_choiceRT_color,2021.2.3,Win32,60.08171113,,,,,,,,9,Ontime,long,j,1,2.0077,2,2,10,2,1,,,,,
,0.53,,,,,,,,,j,red,56d9ee15610fc00005b71979,2021-09-27_17h24.28.384,forced_choiceRT_color,2021.2.3,Win32,60.08171113,,,,,,,,9,Ontime,long,j,1,1.9008,2,3,11,2,1,,,,,
,1.69,,,,,,,,,k,purple,56d9ee15610fc00005b71979,2021-09-27_17h24.28.384,forced_choiceRT_color,2021.2.3,Win32,60.08171113,,,,,,,,9,Slow,long,k,1,2.1379,3,0,12,3,1,,,,,
,1.03,,,,,,,,,j,red,56d9ee15610fc00005b71979,2021-09-27_17h24.28.384,forced_choiceRT_color,2021.2.3,Win32,60.08171113,,,,,,,,9,Ontime,long,j,1,2.0669,3,1,13,2,1,,,,,
,0.94,,,,,,,,,d,orange,56d9ee15610fc00005b71979,2021-09-27_17h24.28.384,forced_choiceRT_color,2021.2.3,Win32,60.08171113,,,,,,,,9,Fast,long,d,1,1.8268,3,2,14,0,1,,,,,
,1.9,,,,,,,,,j,red,56d9ee15610fc00005b71979,2021-09-27_17h24.28.384,forced_choiceRT_color,2021.2.3,Win32,60.08171113,,,,,,,,9,Ontime,long,f,0,1.9887,3,3,15,2,1,,,,,
,1.18,,,,,,,,,j,red,56d9ee15610fc00005b71979,2021-09-27_17h24.28.384,forced_choiceRT_color,2021.2.3,Win32,60.08171113,,,,,,,,9,Ontime,long,j,1,2.0008,4,0,16,2,1,,,,,
,1.03,,,,,,,,,d,orange,56d9ee15610fc00005b71979,2021-09-27_17h24.28.384,forced_choiceRT_color,2021.2.3,Win32,60.08171113,,,,,,,,9,Ontime,long,d,1,1.9196,4,1,17,0,1,,,,,
,0.4,,,,,,,,,f,blue,56d9ee15610fc00005b71979,2021-09-27_17h24.28.384,forced_choiceRT_color,2021.2.3,Win32,60.08171113,,,,,,,,9,Ontime,long,f,1,1.9002,4,2,18,1,1,,,,,
,0.75,,,,,,,,,k,purple,56d9ee15610fc00005b71979,2021-09-27_17h24.28.384,forced_choiceRT_color,2021.2.3,Win32,60.08171113,,,,,,,,9,Fast,long,k,1,1.6331,4,3,19,3,1,,,,,
,0.11,,,,,,,,,k,purple,56d9ee15610fc00005b71979,2021-09-27_17h24.28.384,forced_choiceRT_color,2021.2.3,Win32,60.08171113,,,,,,,,9,Ontime,long,k,1,1.9334,5,0,20,3,1,,,,,
,1.2,,,,,,,,,k,purple,56d9ee15610fc00005b71979,2021-09-27_17h24.28.384,forced_choiceRT_color,2021.2.3,Win32,60.08171113,,,,,,,,9,Ontime,long,k,1,1.9498,5,1,21,3,1,,,,,
,1.78,,,,,,,,,k,purple,56d9ee15610fc00005b71979,2021-09-27_17h24.28.384,forced_choiceRT_color,2021.2.3,Win32,60.08171113,,,,,,,,9,Ontime,long,j,0,1.9499,5,2,22,3,1,,,,,
,1.18,,,,,,,,,j,red,56d9ee15610fc00005b71979,2021-09-27_17h24.28.384,forced_choiceRT_color,2021.2.3,Win32,60.08171113,,,,,,,,9,Ontime,long,j,1,2.0104,5,3,23,2,1,,,,,
,1.57,,,,,,,,,d,orange,56d9ee15610fc00005b71979,2021-09-27_17h24.28.384,forced_choiceRT_color,2021.2.3,Win32,60.08171113,,,,,,,,9,Ontime,long,f,0,2.0498,6,0,24,0,1,,,,,
,1,,,,,,,,,f,blue,56d9ee15610fc00005b71979,2021-09-27_17h24.28.384,forced_choiceRT_color,2021.2.3,Win32,60.08171113,,,,,,,,9,Fast,long,j,0,1.6332,6,1,25,1,1,,,,,
,0.08,,,,,,,,,d,orange,56d9ee15610fc00005b71979,2021-09-27_17h24.28.384,forced_choiceRT_color,2021.2.3,Win32,60.08171113,,,,,,,,9,Ontime,long,d,1,2.0495,6,2,26,0,1,,,,,
,0.87,,,,,,,,,j,red,56d9ee15610fc00005b71979,2021-09-27_17h24.28.384,forced_choiceRT_color,2021.2.3,Win32,60.08171113,,,,,,,,9,Ontime,long,j,1,2.0001,6,3,27,2,1,,,,,
,1.52,,,,,,,,,d,orange,56d9ee15610fc00005b71979,2021-09-27_17h24.28.384,forced_choiceRT_color,2021.2.3,Win32,60.08171113,,,,,,,,9,Slow,long,d,1,2.1999,7,0,28,0,1,,,,,
,1.3,,,,,,,,,k,purple,56d9ee15610fc00005b71979,2021-09-27_17h24.28.384,forced_choiceRT_color,2021.2.3,Win32,60.08171113,,,,,,,,9,Ontime,long,j,0,2.0411,7,1,29,3,1,,,,,
,0,,,,,,,,,f,blue,56d9ee15610fc00005b71979,2021-09-27_17h24.28.384,forced_choiceRT_color,2021.2.3,Win32,60.08171113,,,,,,,,9,Fast,long,f,1,1.3512,7,2,30,1,1,,,,,
,1.31,,,,,,,,,j,red,56d9ee15610fc00005b71979,2021-09-27_17h24.28.384,forced_choiceRT_color,2021.2.3,Win32,60.08171113,,,,,,,,9,Ontime,long,j,1,1.9032,7,3,31,2,1,,,,,
,0.35,,,,,,,,,d,orange,56d9ee15610fc00005b71979,2021-09-27_17h24.28.384,forced_choiceRT_color,2021.2.3,Win32,60.08171113,,,,,,,,9,Ontime,long,d,1,1.9665,8,0,32,0,1,,,,,
,0.08,,,,,,,,,d,orange,56d9ee15610fc00005b71979,2021-09-27_17h24.28.384,forced_choiceRT_color,2021.2.3,Win32,60.08171113,,,,,,,,9,Fast,long,d,1,1.7903,8,1,33,0,1,,,,,
,1.31,,,,,,,,,k,purple,56d9ee15610fc00005b71979,2021-09-27_17h24.28.384,forced_choiceRT_color,2021.2.3,Win32,60.08171113,,,,,,,,9,Ontime,long,k,1,2.0669,8,2,34,3,1,,,,,
,1.14,,,,,,,,,f,blue,56d9ee15610fc00005b71979,2021-09-27_17h24.28.384,forced_choiceRT_color,2021.2.3,Win32,60.08171113,,,,,,,,9,Ontime,long,f,1,2.0835,8,3,35,1,1,,,,,
,1.77,,,,,,,,,d,orange,56d9ee15610fc00005b71979,2021-09-27_17h24.28.384,forced_choiceRT_color,2021.2.3,Win32,60.08171113,,,,,,,,9,Slow,long,j,0,2.433,9,0,36,0,1,,,,,
,1.65,,,,,,,,,d,orange,56d9ee15610fc00005b71979,2021-09-27_17h24.28.384,forced_choiceRT_color,2021.2.3,Win32,60.08171113,,,,,,,,9,Slow,long,d,1,2.5672,9,1,37,0,1,,,,,
,1.17,,,,,,,,,f,blue,56d9ee15610fc00005b71979,2021-09-27_17h24.28.384,forced_choiceRT_color,2021.2.3,Win32,60.08171113,,,,,,,,9,Ontime,long,j,0,2.0001,9,2,38,1,1,,,,,
,1.96,,,,,,,,,j,red,56d9ee15610fc00005b71979,2021-09-27_17h24.28.384,forced_choiceRT_color,2021.2.3,Win32,60.08171113,,,,,,,,9,Slow,long,d,0,2.1661,9,3,39,2,1,,,,,
,,,,,,,,,,,,56d9ee15610fc00005b71979,2021-09-27_17h24.28.384,forced_choiceRT_color,2021.2.3,Win32,60.08171113,,,,,,,,,,,,,,,,,,,8,0,8,0,1
,0.05,,,,,,,,,f,blue,56d9ee15610fc00005b71979,2021-09-27_17h24.28.384,forced_choiceRT_color,2021.2.3,Win32,60.08171113,,,,,,,,10,Ontime,long,f,1,2.0828,0,0,0,1,1,,,,,
,0.34,,,,,,,,,f,blue,56d9ee15610fc00005b71979,2021-09-27_17h24.28.384,forced_choiceRT_color,2021.2.3,Win32,60.08171113,,,,,,,,10,Slow,long,f,1,2.1347,0,1,1,1,1,,,,,
,0.48,,,,,,,,,d,orange,56d9ee15610fc00005b71979,2021-09-27_17h24.28.384,forced_choiceRT_color,2021.2.3,Win32,60.08171113,,,,,,,,10,Ontime,long,d,1,2.0012,0,2,2,0,1,,,,,
,0.62,,,,,,,,,d,orange,56d9ee15610fc00005b71979,2021-09-27_17h24.28.384,forced_choiceRT_color,2021.2.3,Win32,60.08171113,,,,,,,,10,Slow,long,d,1,2.1677,0,3,3,0,1,,,,,
,0.66,,,,,,,,,f,blue,56d9ee15610fc00005b71979,2021-09-27_17h24.28.384,forced_choiceRT_color,2021.2.3,Win32,60.08171113,,,,,,,,10,Ontime,long,f,1,1.9345,1,0,4,1,1,,,,,
,1.73,,,,,,,,,d,orange,56d9ee15610fc00005b71979,2021-09-27_17h24.28.384,forced_choiceRT_color,2021.2.3,Win32,60.08171113,,,,,,,,10,Slow,long,f,0,2.2183,1,1,5,0,1,,,,,
,1.36,,,,,,,,,d,orange,56d9ee15610fc00005b71979,2021-09-27_17h24.28.384,forced_choiceRT_color,2021.2.3,Win32,60.08171113,,,,,,,,10,Fast,long,d,1,1.818,1,2,6,0,1,,,,,
,1.1,,,,,,,,,d,orange,56d9ee15610fc00005b71979,2021-09-27_17h24.28.384,forced_choiceRT_color,2021.2.3,Win32,60.08171113,,,,,,,,10,Ontime,long,d,1,1.9695,1,3,7,0,1,,,,,
,1.96,,,,,,,,,f,blue,56d9ee15610fc00005b71979,2021-09-27_17h24.28.384,forced_choiceRT_color,2021.2.3,Win32,60.08171113,,,,,,,,10,Slow,long,f,1,2.1265,2,0,8,1,1,,,,,
,1.63,,,,,,,,,j,red,56d9ee15610fc00005b71979,2021-09-27_17h24.28.384,forced_choiceRT_color,2021.2.3,Win32,60.08171113,,,,,,,,10,Slow,long,k,0,2.2832,2,1,9,2,1,,,,,
,1.18,,,,,,,,,j,red,56d9ee15610fc00005b71979,2021-09-27_17h24.28.384,forced_choiceRT_color,2021.2.3,Win32,60.08171113,,,,,,,,10,Ontime,long,j,1,2.0497,2,2,10,2,1,,,,,
,1.3,,,,,,,,,k,purple,56d9ee15610fc00005b71979,2021-09-27_17h24.28.384,forced_choiceRT_color,2021.2.3,Win32,60.08171113,,,,,,,,10,Ontime,long,k,1,2.0268,2,3,11,3,1,,,,,
,0.07,,,,,,,,,k,purple,56d9ee15610fc00005b71979,2021-09-27_17h24.28.384,forced_choiceRT_color,2021.2.3,Win32,60.08171113,,,,,,,,10,Slow,long,k,1,2.4667,3,0,12,3,1,,,,,
,0.42,,,,,,,,,j,red,56d9ee15610fc00005b71979,2021-09-27_17h24.28.384,forced_choiceRT_color,2021.2.3,Win32,60.08171113,,,,,,,,10,Fast,long,j,1,1.8715,3,1,13,2,1,,,,,
,0.58,,,,,,,,,f,blue,56d9ee15610fc00005b71979,2021-09-27_17h24.28.384,forced_choiceRT_color,2021.2.3,Win32,60.08171113,,,,,,,,10,Ontime,long,f,1,2.0834,3,2,14,1,1,,,,,
,1.63,,,,,,,,,f,blue,56d9ee15610fc00005b71979,2021-09-27_17h24.28.384,forced_choiceRT_color,2021.2.3,Win32,60.08171113,,,,,,,,10,Ontime,long,f,1,2.0996,3,3,15,1,1,,,,,
,1.47,,,,,,,,,j,red,56d9ee15610fc00005b71979,2021-09-27_17h24.28.384,forced_choiceRT_color,2021.2.3,Win32,60.08171113,,,,,,,,10,Ontime,long,f,0,2.0832,4,0,16,2,1,,,,,
,1.47,,,,,,,,,k,purple,56d9ee15610fc00005b71979,2021-09-27_17h24.28.384,forced_choiceRT_color,2021.2.3,Win32,60.08171113,,,,,,,,10,Ontime,long,k,1,2.0183,4,1,17,3,1,,,,,
,0.25,,,,,,,,,f,blue,56d9ee15610fc00005b71979,2021-09-27_17h24.28.384,forced_choiceRT_color,2021.2.3,Win32,60.08171113,,,,,,,,10,Ontime,long,f,1,2.0531,4,2,18,1,1,,,,,
,0.35,,,,,,,,,j,red,56d9ee15610fc00005b71979,2021-09-27_17h24.28.384,forced_choiceRT_color,2021.2.3,Win32,60.08171113,,,,,,,,10,Fast,long,j,1,1.867,4,3,19,2,1,,,,,
,1.46,,,,,,,,,j,red,56d9ee15610fc00005b71979,2021-09-27_17h24.28.384,forced_choiceRT_color,2021.2.3,Win32,60.08171113,,,,,,,,10,Ontime,long,j,1,2.084,5,0,20,2,1,,,,,
,1.91,,,,,,,,,k,purple,56d9ee15610fc00005b71979,2021-09-27_17h24.28.384,forced_choiceRT_color,2021.2.3,Win32,60.08171113,,,,,,,,10,Slow,long,j,0,2.3334,5,1,21,3,1,,,,,
,0.55,,,,,,,,,d,orange,56d9ee15610fc00005b71979,2021-09-27_17h24.28.384,forced_choiceRT_color,2021.2.3,Win32,60.08171113,,,,,,,,10,Slow,long,d,1,2.1045,5,2,22,0,1,,,,,
,1.95,,,,,,,,,k,purple,56d9ee15610fc00005b71979,2021-09-27_17h24.28.384,forced_choiceRT_color,2021.2.3,Win32,60.08171113,,,,,,,,10,Slow,long,j,0,2.5167,5,3,23,3,1,,,,,
,0.32,,,,,,,,,j,red,56d9ee15610fc00005b71979,2021-09-27_17h24.28.384,forced_choiceRT_color,2021.2.3,Win32,60.08171113,,,,,,,,10,Ontime,long,j,1,1.9539,6,0,24,2,1,,,,,
,1.38,,,,,,,,,k,purple,56d9ee15610fc00005b71979,2021-09-27_17h24.28.384,forced_choiceRT_color,2021.2.3,Win32,60.08171113,,,,,,,,10,Ontime,long,k,1,2.0833,6,1,25,3,1,,,,,
,0.61,,,,,,,,,k,purple,56d9ee15610fc00005b71979,2021-09-27_17h24.28.384,forced_choiceRT_color,2021.2.3,Win32,60.08171113,,,,,,,,10,Ontime,long,k,1,2.0995,6,2,26,3,1,,,,,
,1.67,,,,,,,,,d,orange,56d9ee15610fc00005b71979,2021-09-27_17h24.28.384,forced_choiceRT_color,2021.2.3,Win32,60.08171113,,,,,,,,10,Slow,long,d,1,2.2562,6,3,27,0,1,,,,,
,1.52,,,,,,,,,j,red,56d9ee15610fc00005b71979,2021-09-27_17h24.28.384,forced_choiceRT_color,2021.2.3,Win32,60.08171113,,,,,,,,10,Slow,long,j,1,2.1199,7,0,28,2,1,,,,,
,1.32,,,,,,,,,j,red,56d9ee15610fc00005b71979,2021-09-27_17h24.28.384,forced_choiceRT_color,2021.2.3,Win32,60.08171113,,,,,,,,10,Ontime,long,j,1,1.9564,7,1,29,2,1,,,,,
,1.56,,,,,,,,,f,blue,56d9ee15610fc00005b71979,2021-09-27_17h24.28.384,forced_choiceRT_color,2021.2.3,Win32,60.08171113,,,,,,,,10,Slow,long,f,1,2.2362,7,2,30,1,1,,,,,
,1,,,,,,,,,d,orange,56d9ee15610fc00005b71979,2021-09-27_17h24.28.384,forced_choiceRT_color,2021.2.3,Win32,60.08171113,,,,,,,,10,Ontime,long,d,1,2.0163,7,3,31,0,1,,,,,
,0.67,,,,,,,,,d,orange,56d9ee15610fc00005b71979,2021-09-27_17h24.28.384,forced_choiceRT_color,2021.2.3,Win32,60.08171113,,,,,,,,10,Fast,long,d,1,1.3824,8,0,32,0,1,,,,,
,1.2,,,,,,,,,k,purple,56d9ee15610fc00005b71979,2021-09-27_17h24.28.384,forced_choiceRT_color,2021.2.3,Win32,60.08171113,,,,,,,,10,Ontime,long,k,1,1.9833,8,1,33,3,1,,,,,
,1.01,,,,,,,,,f,blue,56d9ee15610fc00005b71979,2021-09-27_17h24.28.384,forced_choiceRT_color,2021.2.3,Win32,60.08171113,,,,,,,,10,Slow,long,f,1,2.116,8,2,34,1,1,,,,,
,1.09,,,,,,,,,j,red,56d9ee15610fc00005b71979,2021-09-27_17h24.28.384,forced_choiceRT_color,2021.2.3,Win32,60.08171113,,,,,,,,10,Ontime,long,j,1,1.9903,8,3,35,2,1,,,,,
,1.61,,,,,,,,,f,blue,56d9ee15610fc00005b71979,2021-09-27_17h24.28.384,forced_choiceRT_color,2021.2.3,Win32,60.08171113,,,,,,,,10,Slow,long,f,1,2.3167,9,0,36,1,1,,,,,
,1.29,,,,,,,,,d,orange,56d9ee15610fc00005b71979,2021-09-27_17h24.28.384,forced_choiceRT_color,2021.2.3,Win32,60.08171113,,,,,,,,10,Ontime,long,d,1,2.0347,9,1,37,0,1,,,,,
,1,,,,,,,,,k,purple,56d9ee15610fc00005b71979,2021-09-27_17h24.28.384,forced_choiceRT_color,2021.2.3,Win32,60.08171113,,,,,,,,10,Ontime,long,j,0,2.0345,9,2,38,3,1,,,,,
,1.74,,,,,,,,,k,purple,56d9ee15610fc00005b71979,2021-09-27_17h24.28.384,forced_choiceRT_color,2021.2.3,Win32,60.08171113,,,,,,,,10,Ontime,long,f,0,2.0345,9,3,39,3,1,,,,,
,,,,,,,,,,,,56d9ee15610fc00005b71979,2021-09-27_17h24.28.384,forced_choiceRT_color,2021.2.3,Win32,60.08171113,,,,,,,,,,,,,,,,,,,9,0,9,0,1
