IP_Addresss,target_onset,trial_resp_sp.keys,trial_resp_sp.corr,trial_resp_sp.rt,trials_train_loop.thisRepN,trials_train_loop.thisTrialN,trials_train_loop.thisN,trials_train_loop.thisIndex,trials_train_loop.ran,correct_key,color,participant,date,expName,psychopyVersion,OS,frameRate,trial_resp_timing.keys,trial_resp_timing.rt,trials_train_timing.thisRepN,trials_train_timing.thisTrialN,trials_train_timing.thisN,trials_train_timing.thisIndex,trials_train_timing.ran,block_id,ontime,feedback_cond,forcedRT_resp.keys,forcedRT_resp.corr,forcedRT_resp.rt,trials.thisRepN,trials.thisTrialN,trials.thisN,trials.thisIndex,trials.ran,blocks.thisRepN,blocks.thisTrialN,blocks.thisN,blocks.thisIndex,blocks.ran
71.236.17.98,0,j,1,2.2508,0,0,0,2,1,j,red,5788cc99c9abeb0001af20a7,2021-09-27_17h23.59.018,forced_choiceRT_color,2021.2.3,Win32,60.06366749,,,,,,,,,,,,,,,,,,,,,,,
,0,j,1,1.8504,0,1,1,2,1,j,red,5788cc99c9abeb0001af20a7,2021-09-27_17h23.59.018,forced_choiceRT_color,2021.2.3,Win32,60.06366749,,,,,,,,,,,,,,,,,,,,,,,
,0,f,1,1.3507,0,2,2,1,1,f,blue,5788cc99c9abeb0001af20a7,2021-09-27_17h23.59.018,forced_choiceRT_color,2021.2.3,Win32,60.06366749,,,,,,,,,,,,,,,,,,,,,,,
,0,k,1,3.6169,0,3,3,3,1,k,purple,5788cc99c9abeb0001af20a7,2021-09-27_17h23.59.018,forced_choiceRT_color,2021.2.3,Win32,60.06366749,,,,,,,,,,,,,,,,,,,,,,,
,0,k,1,0.8051,1,0,4,3,1,k,purple,5788cc99c9abeb0001af20a7,2021-09-27_17h23.59.018,forced_choiceRT_color,2021.2.3,Win32,60.06366749,,,,,,,,,,,,,,,,,,,,,,,
,0,k,1,0.5007,1,1,5,3,1,k,purple,5788cc99c9abeb0001af20a7,2021-09-27_17h23.59.018,forced_choiceRT_color,2021.2.3,Win32,60.06366749,,,,,,,,,,,,,,,,,,,,,,,
,0,k,1,0.5509,1,2,6,3,1,k,purple,5788cc99c9abeb0001af20a7,2021-09-27_17h23.59.018,forced_choiceRT_color,2021.2.3,Win32,60.06366749,,,,,,,,,,,,,,,,,,,,,,,
,0,k,1,0.4508,1,3,7,3,1,k,purple,5788cc99c9abeb0001af20a7,2021-09-27_17h23.59.018,forced_choiceRT_color,2021.2.3,Win32,60.06366749,,,,,,,,,,,,,,,,,,,,,,,
,0,d,1,0.9724,2,0,8,0,1,d,orange,5788cc99c9abeb0001af20a7,2021-09-27_17h23.59.018,forced_choiceRT_color,2021.2.3,Win32,60.06366749,,,,,,,,,,,,,,,,,,,,,,,
,0,k,1,0.6337,2,1,9,3,1,k,purple,5788cc99c9abeb0001af20a7,2021-09-27_17h23.59.018,forced_choiceRT_color,2021.2.3,Win32,60.06366749,,,,,,,,,,,,,,,,,,,,,,,
,0,j,1,0.8018,2,2,10,2,1,j,red,5788cc99c9abeb0001af20a7,2021-09-27_17h23.59.018,forced_choiceRT_color,2021.2.3,Win32,60.06366749,,,,,,,,,,,,,,,,,,,,,,,
,0,k,1,0.6666,2,3,11,3,1,k,purple,5788cc99c9abeb0001af20a7,2021-09-27_17h23.59.018,forced_choiceRT_color,2021.2.3,Win32,60.06366749,,,,,,,,,,,,,,,,,,,,,,,
,0,k,1,0.517,3,0,12,3,1,k,purple,5788cc99c9abeb0001af20a7,2021-09-27_17h23.59.018,forced_choiceRT_color,2021.2.3,Win32,60.06366749,,,,,,,,,,,,,,,,,,,,,,,
,0,d,1,0.835,3,1,13,0,1,d,orange,5788cc99c9abeb0001af20a7,2021-09-27_17h23.59.018,forced_choiceRT_color,2021.2.3,Win32,60.06366749,,,,,,,,,,,,,,,,,,,,,,,
,0,d,1,0.4668,3,2,14,0,1,d,orange,5788cc99c9abeb0001af20a7,2021-09-27_17h23.59.018,forced_choiceRT_color,2021.2.3,Win32,60.06366749,,,,,,,,,,,,,,,,,,,,,,,
,0,f,1,0.9503,3,3,15,1,1,f,blue,5788cc99c9abeb0001af20a7,2021-09-27_17h23.59.018,forced_choiceRT_color,2021.2.3,Win32,60.06366749,,,,,,,,,,,,,,,,,,,,,,,
,0,k,1,0.6338,4,0,16,3,1,k,purple,5788cc99c9abeb0001af20a7,2021-09-27_17h23.59.018,forced_choiceRT_color,2021.2.3,Win32,60.06366749,,,,,,,,,,,,,,,,,,,,,,,
,0,d,1,0.835,4,1,17,0,1,d,orange,5788cc99c9abeb0001af20a7,2021-09-27_17h23.59.018,forced_choiceRT_color,2021.2.3,Win32,60.06366749,,,,,,,,,,,,,,,,,,,,,,,
,0,j,1,0.75,4,2,18,2,1,j,red,5788cc99c9abeb0001af20a7,2021-09-27_17h23.59.018,forced_choiceRT_color,2021.2.3,Win32,60.06366749,,,,,,,,,,,,,,,,,,,,,,,
,0,f,1,1.0505,4,3,19,1,1,f,blue,5788cc99c9abeb0001af20a7,2021-09-27_17h23.59.018,forced_choiceRT_color,2021.2.3,Win32,60.06366749,,,,,,,,,,,,,,,,,,,,,,,
,0,d,1,0.7337,5,0,20,0,1,d,orange,5788cc99c9abeb0001af20a7,2021-09-27_17h23.59.018,forced_choiceRT_color,2021.2.3,Win32,60.06366749,,,,,,,,,,,,,,,,,,,,,,,
,0,j,1,0.7669,5,1,21,2,1,j,red,5788cc99c9abeb0001af20a7,2021-09-27_17h23.59.018,forced_choiceRT_color,2021.2.3,Win32,60.06366749,,,,,,,,,,,,,,,,,,,,,,,
,0,j,1,0.6208,5,2,22,2,1,j,red,5788cc99c9abeb0001af20a7,2021-09-27_17h23.59.018,forced_choiceRT_color,2021.2.3,Win32,60.06366749,,,,,,,,,,,,,,,,,,,,,,,
,0,d,0,0.8003,5,3,23,1,1,f,blue,5788cc99c9abeb0001af20a7,2021-09-27_17h23.59.018,forced_choiceRT_color,2021.2.3,Win32,60.06366749,,,,,,,,,,,,,,,,,,,,,,,
,0,f,1,0.9505,6,0,24,1,1,f,blue,5788cc99c9abeb0001af20a7,2021-09-27_17h23.59.018,forced_choiceRT_color,2021.2.3,Win32,60.06366749,,,,,,,,,,,,,,,,,,,,,,,
,0,d,1,0.9836,6,1,25,0,1,d,orange,5788cc99c9abeb0001af20a7,2021-09-27_17h23.59.018,forced_choiceRT_color,2021.2.3,Win32,60.06366749,,,,,,,,,,,,,,,,,,,,,,,
,0,f,1,0.7863,6,2,26,1,1,f,blue,5788cc99c9abeb0001af20a7,2021-09-27_17h23.59.018,forced_choiceRT_color,2021.2.3,Win32,60.06366749,,,,,,,,,,,,,,,,,,,,,,,
,0,d,1,0.5836,6,3,27,0,1,d,orange,5788cc99c9abeb0001af20a7,2021-09-27_17h23.59.018,forced_choiceRT_color,2021.2.3,Win32,60.06366749,,,,,,,,,,,,,,,,,,,,,,,
,0,d,1,0.4671,7,0,28,0,1,d,orange,5788cc99c9abeb0001af20a7,2021-09-27_17h23.59.018,forced_choiceRT_color,2021.2.3,Win32,60.06366749,,,,,,,,,,,,,,,,,,,,,,,
,0,k,1,0.6334,7,1,29,3,1,k,purple,5788cc99c9abeb0001af20a7,2021-09-27_17h23.59.018,forced_choiceRT_color,2021.2.3,Win32,60.06366749,,,,,,,,,,,,,,,,,,,,,,,
,0,f,1,0.9389,7,2,30,1,1,f,blue,5788cc99c9abeb0001af20a7,2021-09-27_17h23.59.018,forced_choiceRT_color,2021.2.3,Win32,60.06366749,,,,,,,,,,,,,,,,,,,,,,,
,0,f,1,0.5045,7,3,31,1,1,f,blue,5788cc99c9abeb0001af20a7,2021-09-27_17h23.59.018,forced_choiceRT_color,2021.2.3,Win32,60.06366749,,,,,,,,,,,,,,,,,,,,,,,
,0,d,1,0.5505,8,0,32,0,1,d,orange,5788cc99c9abeb0001af20a7,2021-09-27_17h23.59.018,forced_choiceRT_color,2021.2.3,Win32,60.06366749,,,,,,,,,,,,,,,,,,,,,,,
,0,k,1,0.5673,8,1,33,3,1,k,purple,5788cc99c9abeb0001af20a7,2021-09-27_17h23.59.018,forced_choiceRT_color,2021.2.3,Win32,60.06366749,,,,,,,,,,,,,,,,,,,,,,,
,0,d,1,1.4503,8,2,34,0,1,d,orange,5788cc99c9abeb0001af20a7,2021-09-27_17h23.59.018,forced_choiceRT_color,2021.2.3,Win32,60.06366749,,,,,,,,,,,,,,,,,,,,,,,
,0,j,1,0.7668,8,3,35,2,1,j,red,5788cc99c9abeb0001af20a7,2021-09-27_17h23.59.018,forced_choiceRT_color,2021.2.3,Win32,60.06366749,,,,,,,,,,,,,,,,,,,,,,,
,0,j,1,0.5893,9,0,36,2,1,j,red,5788cc99c9abeb0001af20a7,2021-09-27_17h23.59.018,forced_choiceRT_color,2021.2.3,Win32,60.06366749,,,,,,,,,,,,,,,,,,,,,,,
,0,j,1,0.4837,9,1,37,2,1,j,red,5788cc99c9abeb0001af20a7,2021-09-27_17h23.59.018,forced_choiceRT_color,2021.2.3,Win32,60.06366749,,,,,,,,,,,,,,,,,,,,,,,
,0,j,1,0.4671,9,2,38,2,1,j,red,5788cc99c9abeb0001af20a7,2021-09-27_17h23.59.018,forced_choiceRT_color,2021.2.3,Win32,60.06366749,,,,,,,,,,,,,,,,,,,,,,,
,0,f,1,0.9198,9,3,39,1,1,f,blue,5788cc99c9abeb0001af20a7,2021-09-27_17h23.59.018,forced_choiceRT_color,2021.2.3,Win32,60.06366749,,,,,,,,,,,,,,,,,,,,,,,
,0,j,1,0.8057,10,0,40,2,1,j,red,5788cc99c9abeb0001af20a7,2021-09-27_17h23.59.018,forced_choiceRT_color,2021.2.3,Win32,60.06366749,,,,,,,,,,,,,,,,,,,,,,,
,0,d,1,0.6725,10,1,41,0,1,d,orange,5788cc99c9abeb0001af20a7,2021-09-27_17h23.59.018,forced_choiceRT_color,2021.2.3,Win32,60.06366749,,,,,,,,,,,,,,,,,,,,,,,
,0,f,1,1.0505,10,2,42,1,1,f,blue,5788cc99c9abeb0001af20a7,2021-09-27_17h23.59.018,forced_choiceRT_color,2021.2.3,Win32,60.06366749,,,,,,,,,,,,,,,,,,,,,,,
,0,j,1,0.7532,10,3,43,2,1,j,red,5788cc99c9abeb0001af20a7,2021-09-27_17h23.59.018,forced_choiceRT_color,2021.2.3,Win32,60.06366749,,,,,,,,,,,,,,,,,,,,,,,
,0,k,1,0.6056,11,0,44,3,1,k,purple,5788cc99c9abeb0001af20a7,2021-09-27_17h23.59.018,forced_choiceRT_color,2021.2.3,Win32,60.06366749,,,,,,,,,,,,,,,,,,,,,,,
,0,d,1,0.7045,11,1,45,0,1,d,orange,5788cc99c9abeb0001af20a7,2021-09-27_17h23.59.018,forced_choiceRT_color,2021.2.3,Win32,60.06366749,,,,,,,,,,,,,,,,,,,,,,,
,0,f,1,0.526,11,2,46,1,1,f,blue,5788cc99c9abeb0001af20a7,2021-09-27_17h23.59.018,forced_choiceRT_color,2021.2.3,Win32,60.06366749,,,,,,,,,,,,,,,,,,,,,,,
,0,d,1,0.4592,11,3,47,0,1,d,orange,5788cc99c9abeb0001af20a7,2021-09-27_17h23.59.018,forced_choiceRT_color,2021.2.3,Win32,60.06366749,,,,,,,,,,,,,,,,,,,,,,,
,0,f,1,0.4696,12,0,48,1,1,f,blue,5788cc99c9abeb0001af20a7,2021-09-27_17h23.59.018,forced_choiceRT_color,2021.2.3,Win32,60.06366749,,,,,,,,,,,,,,,,,,,,,,,
,0,f,1,0.4839,12,1,49,1,1,f,blue,5788cc99c9abeb0001af20a7,2021-09-27_17h23.59.018,forced_choiceRT_color,2021.2.3,Win32,60.06366749,,,,,,,,,,,,,,,,,,,,,,,
,0,k,1,0.6615,12,2,50,3,1,k,purple,5788cc99c9abeb0001af20a7,2021-09-27_17h23.59.018,forced_choiceRT_color,2021.2.3,Win32,60.06366749,,,,,,,,,,,,,,,,,,,,,,,
,0,j,1,0.6382,12,3,51,2,1,j,red,5788cc99c9abeb0001af20a7,2021-09-27_17h23.59.018,forced_choiceRT_color,2021.2.3,Win32,60.06366749,,,,,,,,,,,,,,,,,,,,,,,
,0,f,1,1.0354,13,0,52,1,1,f,blue,5788cc99c9abeb0001af20a7,2021-09-27_17h23.59.018,forced_choiceRT_color,2021.2.3,Win32,60.06366749,,,,,,,,,,,,,,,,,,,,,,,
,0,k,0,0.7247,13,1,53,2,1,j,red,5788cc99c9abeb0001af20a7,2021-09-27_17h23.59.018,forced_choiceRT_color,2021.2.3,Win32,60.06366749,,,,,,,,,,,,,,,,,,,,,,,
,0,k,1,0.7376,13,2,54,3,1,k,purple,5788cc99c9abeb0001af20a7,2021-09-27_17h23.59.018,forced_choiceRT_color,2021.2.3,Win32,60.06366749,,,,,,,,,,,,,,,,,,,,,,,
,0,j,1,1.2349,13,3,55,2,1,j,red,5788cc99c9abeb0001af20a7,2021-09-27_17h23.59.018,forced_choiceRT_color,2021.2.3,Win32,60.06366749,,,,,,,,,,,,,,,,,,,,,,,
,0,f,1,0.7836,14,0,56,1,1,f,blue,5788cc99c9abeb0001af20a7,2021-09-27_17h23.59.018,forced_choiceRT_color,2021.2.3,Win32,60.06366749,,,,,,,,,,,,,,,,,,,,,,,
,0,d,1,0.7002,14,1,57,0,1,d,orange,5788cc99c9abeb0001af20a7,2021-09-27_17h23.59.018,forced_choiceRT_color,2021.2.3,Win32,60.06366749,,,,,,,,,,,,,,,,,,,,,,,
,0,k,1,0.6841,14,2,58,3,1,k,purple,5788cc99c9abeb0001af20a7,2021-09-27_17h23.59.018,forced_choiceRT_color,2021.2.3,Win32,60.06366749,,,,,,,,,,,,,,,,,,,,,,,
,0,d,1,0.717,14,3,59,0,1,d,orange,5788cc99c9abeb0001af20a7,2021-09-27_17h23.59.018,forced_choiceRT_color,2021.2.3,Win32,60.06366749,,,,,,,,,,,,,,,,,,,,,,,
,,,,,,,,,,,,5788cc99c9abeb0001af20a7,2021-09-27_17h23.59.018,forced_choiceRT_color,2021.2.3,Win32,60.06366749,d,2.3532,0,0,0,0,1,,,,,,,,,,,,,,,,
,,,,,,,,,,,,5788cc99c9abeb0001af20a7,2021-09-27_17h23.59.018,forced_choiceRT_color,2021.2.3,Win32,60.06366749,d,0.967,1,0,1,0,1,,,,,,,,,,,,,,,,
,,,,,,,,,,,,5788cc99c9abeb0001af20a7,2021-09-27_17h23.59.018,forced_choiceRT_color,2021.2.3,Win32,60.06366749,d,2.2735,2,0,2,0,1,,,,,,,,,,,,,,,,
,,,,,,,,,,,,5788cc99c9abeb0001af20a7,2021-09-27_17h23.59.018,forced_choiceRT_color,2021.2.3,Win32,60.06366749,d,1.8336,3,0,3,0,1,,,,,,,,,,,,,,,,
,,,,,,,,,,,,5788cc99c9abeb0001af20a7,2021-09-27_17h23.59.018,forced_choiceRT_color,2021.2.3,Win32,60.06366749,d,1.8839,4,0,4,0,1,,,,,,,,,,,,,,,,
,,,,,,,,,,,,5788cc99c9abeb0001af20a7,2021-09-27_17h23.59.018,forced_choiceRT_color,2021.2.3,Win32,60.06366749,d,2.2669,5,0,5,0,1,,,,,,,,,,,,,,,,
,,,,,,,,,,,,5788cc99c9abeb0001af20a7,2021-09-27_17h23.59.018,forced_choiceRT_color,2021.2.3,Win32,60.06366749,d,2.2183,6,0,6,0,1,,,,,,,,,,,,,,,,
,,,,,,,,,,,,5788cc99c9abeb0001af20a7,2021-09-27_17h23.59.018,forced_choiceRT_color,2021.2.3,Win32,60.06366749,d,2.2008,7,0,7,0,1,,,,,,,,,,,,,,,,
,,,,,,,,,,,,5788cc99c9abeb0001af20a7,2021-09-27_17h23.59.018,forced_choiceRT_color,2021.2.3,Win32,60.06366749,d,2.0004,8,0,8,0,1,,,,,,,,,,,,,,,,
,,,,,,,,,,,,5788cc99c9abeb0001af20a7,2021-09-27_17h23.59.018,forced_choiceRT_color,2021.2.3,Win32,60.06366749,d,2.2669,9,0,9,0,1,,,,,,,,,,,,,,,,
,,,,,,,,,,,,5788cc99c9abeb0001af20a7,2021-09-27_17h23.59.018,forced_choiceRT_color,2021.2.3,Win32,60.06366749,d,2.1836,10,0,10,0,1,,,,,,,,,,,,,,,,
,,,,,,,,,,,,5788cc99c9abeb0001af20a7,2021-09-27_17h23.59.018,forced_choiceRT_color,2021.2.3,Win32,60.06366749,d,2.2667,11,0,11,0,1,,,,,,,,,,,,,,,,
,,,,,,,,,,,,5788cc99c9abeb0001af20a7,2021-09-27_17h23.59.018,forced_choiceRT_color,2021.2.3,Win32,60.06366749,d,2.0504,12,0,12,0,1,,,,,,,,,,,,,,,,
,,,,,,,,,,,,5788cc99c9abeb0001af20a7,2021-09-27_17h23.59.018,forced_choiceRT_color,2021.2.3,Win32,60.06366749,d,2.0503,13,0,13,0,1,,,,,,,,,,,,,,,,
,,,,,,,,,,,,5788cc99c9abeb0001af20a7,2021-09-27_17h23.59.018,forced_choiceRT_color,2021.2.3,Win32,60.06366749,d,2.0837,14,0,14,0,1,,,,,,,,,,,,,,,,
,,,,,,,,,,,,5788cc99c9abeb0001af20a7,2021-09-27_17h23.59.018,forced_choiceRT_color,2021.2.3,Win32,60.06366749,d,2.0057,15,0,15,0,1,,,,,,,,,,,,,,,,
,,,,,,,,,,,,5788cc99c9abeb0001af20a7,2021-09-27_17h23.59.018,forced_choiceRT_color,2021.2.3,Win32,60.06366749,d,1.9525,16,0,16,0,1,,,,,,,,,,,,,,,,
,,,,,,,,,,,,5788cc99c9abeb0001af20a7,2021-09-27_17h23.59.018,forced_choiceRT_color,2021.2.3,Win32,60.06366749,d,1.8369,17,0,17,0,1,,,,,,,,,,,,,,,,
,,,,,,,,,,,,5788cc99c9abeb0001af20a7,2021-09-27_17h23.59.018,forced_choiceRT_color,2021.2.3,Win32,60.06366749,d,2.1023,18,0,18,0,1,,,,,,,,,,,,,,,,
,,,,,,,,,,,,5788cc99c9abeb0001af20a7,2021-09-27_17h23.59.018,forced_choiceRT_color,2021.2.3,Win32,60.06366749,d,2.017,19,0,19,0,1,,,,,,,,,,,,,,,,
,0.93,,,,,,,,,d,orange,5788cc99c9abeb0001af20a7,2021-09-27_17h23.59.018,forced_choiceRT_color,2021.2.3,Win32,60.06366749,,,,,,,,1,Ontime,long,d,1,1.9763,0,0,0,0,1,,,,,
,0.01,,,,,,,,,k,purple,5788cc99c9abeb0001af20a7,2021-09-27_17h23.59.018,forced_choiceRT_color,2021.2.3,Win32,60.06366749,,,,,,,,1,Fast,long,k,1,1.8443,0,1,1,3,1,,,,,
,0.31,,,,,,,,,k,purple,5788cc99c9abeb0001af20a7,2021-09-27_17h23.59.018,forced_choiceRT_color,2021.2.3,Win32,60.06366749,,,,,,,,1,Ontime,long,k,1,1.9894,0,2,2,3,1,,,,,
,1.26,,,,,,,,,j,red,5788cc99c9abeb0001af20a7,2021-09-27_17h23.59.018,forced_choiceRT_color,2021.2.3,Win32,60.06366749,,,,,,,,1,Slow,long,j,1,2.1003,0,3,3,2,1,,,,,
,1.36,,,,,,,,,j,red,5788cc99c9abeb0001af20a7,2021-09-27_17h23.59.018,forced_choiceRT_color,2021.2.3,Win32,60.06366749,,,,,,,,1,Fast,long,j,1,1.8846,1,0,4,2,1,,,,,
,1.78,,,,,,,,,k,purple,5788cc99c9abeb0001af20a7,2021-09-27_17h23.59.018,forced_choiceRT_color,2021.2.3,Win32,60.06366749,,,,,,,,1,Slow,long,k,1,2.3169,1,1,5,3,1,,,,,
,0.71,,,,,,,,,f,blue,5788cc99c9abeb0001af20a7,2021-09-27_17h23.59.018,forced_choiceRT_color,2021.2.3,Win32,60.06366749,,,,,,,,1,Slow,long,d,0,2.2917,1,2,6,1,1,,,,,
,1.28,,,,,,,,,j,red,5788cc99c9abeb0001af20a7,2021-09-27_17h23.59.018,forced_choiceRT_color,2021.2.3,Win32,60.06366749,,,,,,,,1,Ontime,long,j,1,2.0268,1,3,7,2,1,,,,,
,1.8,,,,,,,,,d,orange,5788cc99c9abeb0001af20a7,2021-09-27_17h23.59.018,forced_choiceRT_color,2021.2.3,Win32,60.06366749,,,,,,,,1,Slow,long,d,1,3.3051,2,0,8,0,1,,,,,
,1.72,,,,,,,,,f,blue,5788cc99c9abeb0001af20a7,2021-09-27_17h23.59.018,forced_choiceRT_color,2021.2.3,Win32,60.06366749,,,,,,,,1,Slow,long,j,0,2.2163,2,1,9,1,1,,,,,
,1.16,,,,,,,,,d,orange,5788cc99c9abeb0001af20a7,2021-09-27_17h23.59.018,forced_choiceRT_color,2021.2.3,Win32,60.06366749,,,,,,,,1,Ontime,long,d,1,1.9793,2,2,10,0,1,,,,,
,1.05,,,,,,,,,j,red,5788cc99c9abeb0001af20a7,2021-09-27_17h23.59.018,forced_choiceRT_color,2021.2.3,Win32,60.06366749,,,,,,,,1,Ontime,long,j,1,1.9395,2,3,11,2,1,,,,,
,1.71,,,,,,,,,j,red,5788cc99c9abeb0001af20a7,2021-09-27_17h23.59.018,forced_choiceRT_color,2021.2.3,Win32,60.06366749,,,,,,,,1,Slow,long,j,1,2.1838,3,0,12,2,1,,,,,
,0.76,,,,,,,,,f,blue,5788cc99c9abeb0001af20a7,2021-09-27_17h23.59.018,forced_choiceRT_color,2021.2.3,Win32,60.06366749,,,,,,,,1,Fast,long,f,1,1.7693,3,1,13,1,1,,,,,
,1.77,,,,,,,,,k,purple,5788cc99c9abeb0001af20a7,2021-09-27_17h23.59.018,forced_choiceRT_color,2021.2.3,Win32,60.06366749,,,,,,,,1,Slow,long,k,1,2.3504,3,2,14,3,1,,,,,
,1.2,,,,,,,,,k,purple,5788cc99c9abeb0001af20a7,2021-09-27_17h23.59.018,forced_choiceRT_color,2021.2.3,Win32,60.06366749,,,,,,,,1,Fast,long,k,1,1.7079,3,3,15,3,1,,,,,
,0.06,,,,,,,,,f,blue,5788cc99c9abeb0001af20a7,2021-09-27_17h23.59.018,forced_choiceRT_color,2021.2.3,Win32,60.06366749,,,,,,,,1,Fast,long,f,1,1.7702,4,0,16,1,1,,,,,
,0.76,,,,,,,,,d,orange,5788cc99c9abeb0001af20a7,2021-09-27_17h23.59.018,forced_choiceRT_color,2021.2.3,Win32,60.06366749,,,,,,,,1,Fast,long,d,1,1.8079,4,1,17,0,1,,,,,
,0.62,,,,,,,,,d,orange,5788cc99c9abeb0001af20a7,2021-09-27_17h23.59.018,forced_choiceRT_color,2021.2.3,Win32,60.06366749,,,,,,,,1,Ontime,long,d,1,2.0675,4,2,18,0,1,,,,,
,0.45,,,,,,,,,k,purple,5788cc99c9abeb0001af20a7,2021-09-27_17h23.59.018,forced_choiceRT_color,2021.2.3,Win32,60.06366749,,,,,,,,1,Slow,long,k,1,2.2462,4,3,19,3,1,,,,,
,1.22,,,,,,,,,f,blue,5788cc99c9abeb0001af20a7,2021-09-27_17h23.59.018,forced_choiceRT_color,2021.2.3,Win32,60.06366749,,,,,,,,1,Ontime,long,d,0,2.0962,5,0,20,1,1,,,,,
,1.93,,,,,,,,,j,red,5788cc99c9abeb0001af20a7,2021-09-27_17h23.59.018,forced_choiceRT_color,2021.2.3,Win32,60.06366749,,,,,,,,1,Slow,long,d,0,2.3312,5,1,21,2,1,,,,,
,1.35,,,,,,,,,d,orange,5788cc99c9abeb0001af20a7,2021-09-27_17h23.59.018,forced_choiceRT_color,2021.2.3,Win32,60.06366749,,,,,,,,1,Ontime,long,d,1,2.0586,5,2,22,0,1,,,,,
,0.26,,,,,,,,,k,purple,5788cc99c9abeb0001af20a7,2021-09-27_17h23.59.018,forced_choiceRT_color,2021.2.3,Win32,60.06366749,,,,,,,,1,Fast,long,k,1,1.8172,5,3,23,3,1,,,,,
,0.04,,,,,,,,,k,purple,5788cc99c9abeb0001af20a7,2021-09-27_17h23.59.018,forced_choiceRT_color,2021.2.3,Win32,60.06366749,,,,,,,,1,Fast,long,k,1,1.7688,6,0,24,3,1,,,,,
,0.82,,,,,,,,,j,red,5788cc99c9abeb0001af20a7,2021-09-27_17h23.59.018,forced_choiceRT_color,2021.2.3,Win32,60.06366749,,,,,,,,1,Slow,long,j,1,2.1176,6,1,25,2,1,,,,,
,1.77,,,,,,,,,d,orange,5788cc99c9abeb0001af20a7,2021-09-27_17h23.59.018,forced_choiceRT_color,2021.2.3,Win32,60.06366749,,,,,,,,1,Slow,long,d,1,2.2925,6,2,26,0,1,,,,,
,1.68,,,,,,,,,d,orange,5788cc99c9abeb0001af20a7,2021-09-27_17h23.59.018,forced_choiceRT_color,2021.2.3,Win32,60.06366749,,,,,,,,1,Slow,long,d,1,2.1878,6,3,27,0,1,,,,,
,0.93,,,,,,,,,f,blue,5788cc99c9abeb0001af20a7,2021-09-27_17h23.59.018,forced_choiceRT_color,2021.2.3,Win32,60.06366749,,,,,,,,1,Fast,long,f,1,1.4338,7,0,28,1,1,,,,,
,1.47,,,,,,,,,d,orange,5788cc99c9abeb0001af20a7,2021-09-27_17h23.59.018,forced_choiceRT_color,2021.2.3,Win32,60.06366749,,,,,,,,1,Slow,long,j,0,2.3622,7,1,29,0,1,,,,,
,0.81,,,,,,,,,f,blue,5788cc99c9abeb0001af20a7,2021-09-27_17h23.59.018,forced_choiceRT_color,2021.2.3,Win32,60.06366749,,,,,,,,1,Ontime,long,f,1,1.9426,7,2,30,1,1,,,,,
,0.55,,,,,,,,,f,blue,5788cc99c9abeb0001af20a7,2021-09-27_17h23.59.018,forced_choiceRT_color,2021.2.3,Win32,60.06366749,,,,,,,,1,Fast,long,f,1,1.8244,7,3,31,1,1,,,,,
,0.23,,,,,,,,,j,red,5788cc99c9abeb0001af20a7,2021-09-27_17h23.59.018,forced_choiceRT_color,2021.2.3,Win32,60.06366749,,,,,,,,1,Fast,long,j,1,1.8343,8,0,32,2,1,,,,,
,0.56,,,,,,,,,j,red,5788cc99c9abeb0001af20a7,2021-09-27_17h23.59.018,forced_choiceRT_color,2021.2.3,Win32,60.06366749,,,,,,,,1,Slow,long,j,1,2.1481,8,1,33,2,1,,,,,
,1.46,,,,,,,,,f,blue,5788cc99c9abeb0001af20a7,2021-09-27_17h23.59.018,forced_choiceRT_color,2021.2.3,Win32,60.06366749,,,,,,,,1,Slow,long,d,0,2.3057,8,2,34,1,1,,,,,
,0.15,,,,,,,,,k,purple,5788cc99c9abeb0001af20a7,2021-09-27_17h23.59.018,forced_choiceRT_color,2021.2.3,Win32,60.06366749,,,,,,,,1,Ontime,long,k,1,1.9694,8,3,35,3,1,,,,,
,1.51,,,,,,,,,d,orange,5788cc99c9abeb0001af20a7,2021-09-27_17h23.59.018,forced_choiceRT_color,2021.2.3,Win32,60.06366749,,,,,,,,1,Slow,long,d,1,2.1458,9,0,36,0,1,,,,,
,0.6,,,,,,,,,f,blue,5788cc99c9abeb0001af20a7,2021-09-27_17h23.59.018,forced_choiceRT_color,2021.2.3,Win32,60.06366749,,,,,,,,1,Slow,long,f,1,2.1591,9,1,37,1,1,,,,,
,1.69,,,,,,,,,j,red,5788cc99c9abeb0001af20a7,2021-09-27_17h23.59.018,forced_choiceRT_color,2021.2.3,Win32,60.06366749,,,,,,,,1,Slow,long,j,1,2.3481,9,2,38,2,1,,,,,
,1.42,,,,,,,,,k,purple,5788cc99c9abeb0001af20a7,2021-09-27_17h23.59.018,forced_choiceRT_color,2021.2.3,Win32,60.06366749,,,,,,,,1,Fast,long,k,1,1.8174,9,3,39,3,1,,,,,
,,,,,,,,,,,,5788cc99c9abeb0001af20a7,2021-09-27_17h23.59.018,forced_choiceRT_color,2021.2.3,Win32,60.06366749,,,,,,,,,,,,,,,,,,,0,0,0,0,1
,1.38,,,,,,,,,j,red,5788cc99c9abeb0001af20a7,2021-09-27_17h23.59.018,forced_choiceRT_color,2021.2.3,Win32,60.06366749,,,,,,,,2,Ontime,long,j,1,2.0001,0,0,0,2,1,,,,,
,0.59,,,,,,,,,j,red,5788cc99c9abeb0001af20a7,2021-09-27_17h23.59.018,forced_choiceRT_color,2021.2.3,Win32,60.06366749,,,,,,,,2,Fast,long,j,1,1.2344,0,1,1,2,1,,,,,
,1.88,,,,,,,,,k,purple,5788cc99c9abeb0001af20a7,2021-09-27_17h23.59.018,forced_choiceRT_color,2021.2.3,Win32,60.06366749,,,,,,,,2,Slow,long,j,0,2.4004,0,2,2,3,1,,,,,
,1.2,,,,,,,,,d,orange,5788cc99c9abeb0001af20a7,2021-09-27_17h23.59.018,forced_choiceRT_color,2021.2.3,Win32,60.06366749,,,,,,,,2,Fast,long,d,1,1.8367,0,3,3,0,1,,,,,
,0.8,,,,,,,,,k,purple,5788cc99c9abeb0001af20a7,2021-09-27_17h23.59.018,forced_choiceRT_color,2021.2.3,Win32,60.06366749,,,,,,,,2,Slow,long,k,1,2.1901,1,0,4,3,1,,,,,
,0.22,,,,,,,,,d,orange,5788cc99c9abeb0001af20a7,2021-09-27_17h23.59.018,forced_choiceRT_color,2021.2.3,Win32,60.06366749,,,,,,,,2,Ontime,long,d,1,2.0171,1,1,5,0,1,,,,,
,1.21,,,,,,,,,f,blue,5788cc99c9abeb0001af20a7,2021-09-27_17h23.59.018,forced_choiceRT_color,2021.2.3,Win32,60.06366749,,,,,,,,2,Ontime,long,f,1,2.0716,1,2,6,1,1,,,,,
,1.83,,,,,,,,,f,blue,5788cc99c9abeb0001af20a7,2021-09-27_17h23.59.018,forced_choiceRT_color,2021.2.3,Win32,60.06366749,,,,,,,,2,Slow,long,f,1,2.4504,1,3,7,1,1,,,,,
,1.34,,,,,,,,,d,orange,5788cc99c9abeb0001af20a7,2021-09-27_17h23.59.018,forced_choiceRT_color,2021.2.3,Win32,60.06366749,,,,,,,,2,Ontime,long,d,1,1.9671,2,0,8,0,1,,,,,
,1.12,,,,,,,,,j,red,5788cc99c9abeb0001af20a7,2021-09-27_17h23.59.018,forced_choiceRT_color,2021.2.3,Win32,60.06366749,,,,,,,,2,Ontime,long,j,1,1.9338,2,1,9,2,1,,,,,
,0.23,,,,,,,,,k,purple,5788cc99c9abeb0001af20a7,2021-09-27_17h23.59.018,forced_choiceRT_color,2021.2.3,Win32,60.06366749,,,,,,,,2,Ontime,long,k,1,2.0224,2,2,10,3,1,,,,,
,0.74,,,,,,,,,j,red,5788cc99c9abeb0001af20a7,2021-09-27_17h23.59.018,forced_choiceRT_color,2021.2.3,Win32,60.06366749,,,,,,,,2,Ontime,long,j,1,1.9673,2,3,11,2,1,,,,,
,1.72,,,,,,,,,f,blue,5788cc99c9abeb0001af20a7,2021-09-27_17h23.59.018,forced_choiceRT_color,2021.2.3,Win32,60.06366749,,,,,,,,2,Slow,long,k,0,2.2052,3,0,12,1,1,,,,,
,0.96,,,,,,,,,d,orange,5788cc99c9abeb0001af20a7,2021-09-27_17h23.59.018,forced_choiceRT_color,2021.2.3,Win32,60.06366749,,,,,,,,2,Fast,long,d,1,1.5171,3,1,13,0,1,,,,,
,0.62,,,,,,,,,d,orange,5788cc99c9abeb0001af20a7,2021-09-27_17h23.59.018,forced_choiceRT_color,2021.2.3,Win32,60.06366749,,,,,,,,2,Slow,long,d,1,2.1185,3,2,14,0,1,,,,,
,1.43,,,,,,,,,k,purple,5788cc99c9abeb0001af20a7,2021-09-27_17h23.59.018,forced_choiceRT_color,2021.2.3,Win32,60.06366749,,,,,,,,2,Slow,long,k,1,2.3171,3,3,15,3,1,,,,,
,1.05,,,,,,,,,d,orange,5788cc99c9abeb0001af20a7,2021-09-27_17h23.59.018,forced_choiceRT_color,2021.2.3,Win32,60.06366749,,,,,,,,2,Ontime,long,d,1,1.9005,4,0,16,0,1,,,,,
,1.8,,,,,,,,,f,blue,5788cc99c9abeb0001af20a7,2021-09-27_17h23.59.018,forced_choiceRT_color,2021.2.3,Win32,60.06366749,,,,,,,,2,Slow,long,d,0,2.3732,4,1,17,1,1,,,,,
,0.06,,,,,,,,,k,purple,5788cc99c9abeb0001af20a7,2021-09-27_17h23.59.018,forced_choiceRT_color,2021.2.3,Win32,60.06366749,,,,,,,,2,Ontime,long,k,1,2.0006,4,2,18,3,1,,,,,
,1.43,,,,,,,,,j,red,5788cc99c9abeb0001af20a7,2021-09-27_17h23.59.018,forced_choiceRT_color,2021.2.3,Win32,60.06366749,,,,,,,,2,Slow,long,j,1,2.217,4,3,19,2,1,,,,,
,0.86,,,,,,,,,j,red,5788cc99c9abeb0001af20a7,2021-09-27_17h23.59.018,forced_choiceRT_color,2021.2.3,Win32,60.06366749,,,,,,,,2,Fast,long,j,1,1.6003,5,0,20,2,1,,,,,
,1.55,,,,,,,,,d,orange,5788cc99c9abeb0001af20a7,2021-09-27_17h23.59.018,forced_choiceRT_color,2021.2.3,Win32,60.06366749,,,,,,,,2,Slow,long,k,0,2.2213,5,1,21,0,1,,,,,
,1.67,,,,,,,,,j,red,5788cc99c9abeb0001af20a7,2021-09-27_17h23.59.018,forced_choiceRT_color,2021.2.3,Win32,60.06366749,,,,,,,,2,Slow,long,j,1,2.1503,5,2,22,2,1,,,,,
,1.19,,,,,,,,,f,blue,5788cc99c9abeb0001af20a7,2021-09-27_17h23.59.018,forced_choiceRT_color,2021.2.3,Win32,60.06366749,,,,,,,,2,Ontime,long,f,1,2.0524,5,3,23,1,1,,,,,
,0.19,,,,,,,,,k,purple,5788cc99c9abeb0001af20a7,2021-09-27_17h23.59.018,forced_choiceRT_color,2021.2.3,Win32,60.06366749,,,,,,,,2,Ontime,long,k,1,1.9836,6,0,24,3,1,,,,,
,1.93,,,,,,,,,f,blue,5788cc99c9abeb0001af20a7,2021-09-27_17h23.59.018,forced_choiceRT_color,2021.2.3,Win32,60.06366749,,,,,,,,2,Slow,long,d,0,2.4503,6,1,25,1,1,,,,,
,0.39,,,,,,,,,j,red,5788cc99c9abeb0001af20a7,2021-09-27_17h23.59.018,forced_choiceRT_color,2021.2.3,Win32,60.06366749,,,,,,,,2,Ontime,long,j,1,1.9506,6,2,26,2,1,,,,,
,0.89,,,,,,,,,f,blue,5788cc99c9abeb0001af20a7,2021-09-27_17h23.59.018,forced_choiceRT_color,2021.2.3,Win32,60.06366749,,,,,,,,2,Fast,long,f,1,1.834,6,3,27,1,1,,,,,
,1.56,,,,,,,,,d,orange,5788cc99c9abeb0001af20a7,2021-09-27_17h23.59.018,forced_choiceRT_color,2021.2.3,Win32,60.06366749,,,,,,,,2,Slow,long,d,1,2.1335,7,0,28,0,1,,,,,
,1.12,,,,,,,,,f,blue,5788cc99c9abeb0001af20a7,2021-09-27_17h23.59.018,forced_choiceRT_color,2021.2.3,Win32,60.06366749,,,,,,,,2,Ontime,long,d,0,1.9005,7,1,29,1,1,,,,,
,1.61,,,,,,,,,j,red,5788cc99c9abeb0001af20a7,2021-09-27_17h23.59.018,forced_choiceRT_color,2021.2.3,Win32,60.06366749,,,,,,,,2,Slow,long,j,1,2.2669,7,2,30,2,1,,,,,
,1.35,,,,,,,,,j,red,5788cc99c9abeb0001af20a7,2021-09-27_17h23.59.018,forced_choiceRT_color,2021.2.3,Win32,60.06366749,,,,,,,,2,Ontime,long,j,1,1.9395,7,3,31,2,1,,,,,
,0.82,,,,,,,,,k,purple,5788cc99c9abeb0001af20a7,2021-09-27_17h23.59.018,forced_choiceRT_color,2021.2.3,Win32,60.06366749,,,,,,,,2,Fast,long,k,1,1.5732,8,0,32,3,1,,,,,
,1.58,,,,,,,,,d,orange,5788cc99c9abeb0001af20a7,2021-09-27_17h23.59.018,forced_choiceRT_color,2021.2.3,Win32,60.06366749,,,,,,,,2,Slow,long,d,1,2.2003,8,1,33,0,1,,,,,
,1.28,,,,,,,,,d,orange,5788cc99c9abeb0001af20a7,2021-09-27_17h23.59.018,forced_choiceRT_color,2021.2.3,Win32,60.06366749,,,,,,,,2,Ontime,long,d,1,1.9397,8,2,34,0,1,,,,,
,1.34,,,,,,,,,k,purple,5788cc99c9abeb0001af20a7,2021-09-27_17h23.59.018,forced_choiceRT_color,2021.2.3,Win32,60.06366749,,,,,,,,2,Slow,long,k,1,2.1336,8,3,35,3,1,,,,,
,0.55,,,,,,,,,f,blue,5788cc99c9abeb0001af20a7,2021-09-27_17h23.59.018,forced_choiceRT_color,2021.2.3,Win32,60.06366749,,,,,,,,2,Fast,long,f,1,1.5225,9,0,36,1,1,,,,,
,1.14,,,,,,,,,f,blue,5788cc99c9abeb0001af20a7,2021-09-27_17h23.59.018,forced_choiceRT_color,2021.2.3,Win32,60.06366749,,,,,,,,2,Fast,long,f,1,1.5365,9,1,37,1,1,,,,,
,0.65,,,,,,,,,k,purple,5788cc99c9abeb0001af20a7,2021-09-27_17h23.59.018,forced_choiceRT_color,2021.2.3,Win32,60.06366749,,,,,,,,2,Fast,long,k,1,1.8671,9,2,38,3,1,,,,,
,1.36,,,,,,,,,k,purple,5788cc99c9abeb0001af20a7,2021-09-27_17h23.59.018,forced_choiceRT_color,2021.2.3,Win32,60.06366749,,,,,,,,2,Fast,long,k,1,1.886,9,3,39,3,1,,,,,
,,,,,,,,,,,,5788cc99c9abeb0001af20a7,2021-09-27_17h23.59.018,forced_choiceRT_color,2021.2.3,Win32,60.06366749,,,,,,,,,,,,,,,,,,,1,0,1,0,1
,0.67,,,,,,,,,j,red,5788cc99c9abeb0001af20a7,2021-09-27_17h23.59.018,forced_choiceRT_color,2021.2.3,Win32,60.06366749,,,,,,,,3,Fast,long,j,1,1.7338,0,0,0,2,1,,,,,
,1.66,,,,,,,,,f,blue,5788cc99c9abeb0001af20a7,2021-09-27_17h23.59.018,forced_choiceRT_color,2021.2.3,Win32,60.06366749,,,,,,,,3,Slow,long,j,0,2.1677,0,1,1,1,1,,,,,
,0.3,,,,,,,,,f,blue,5788cc99c9abeb0001af20a7,2021-09-27_17h23.59.018,forced_choiceRT_color,2021.2.3,Win32,60.06366749,,,,,,,,3,Ontime,long,f,1,2.0505,0,2,2,1,1,,,,,
,0.64,,,,,,,,,d,orange,5788cc99c9abeb0001af20a7,2021-09-27_17h23.59.018,forced_choiceRT_color,2021.2.3,Win32,60.06366749,,,,,,,,3,Ontime,long,d,1,2.0337,0,3,3,0,1,,,,,
,1.98,,,,,,,,,f,blue,5788cc99c9abeb0001af20a7,2021-09-27_17h23.59.018,forced_choiceRT_color,2021.2.3,Win32,60.06366749,,,,,,,,3,Slow,long,d,0,2.4337,1,0,4,1,1,,,,,
,1.76,,,,,,,,,k,purple,5788cc99c9abeb0001af20a7,2021-09-27_17h23.59.018,forced_choiceRT_color,2021.2.3,Win32,60.06366749,,,,,,,,3,Slow,long,k,1,2.4838,1,1,5,3,1,,,,,
,0.12,,,,,,,,,f,blue,5788cc99c9abeb0001af20a7,2021-09-27_17h23.59.018,forced_choiceRT_color,2021.2.3,Win32,60.06366749,,,,,,,,3,Fast,long,d,0,0.7338,1,2,6,1,1,,,,,
,0,,,,,,,,,d,orange,5788cc99c9abeb0001af20a7,2021-09-27_17h23.59.018,forced_choiceRT_color,2021.2.3,Win32,60.06366749,,,,,,,,3,Slow,long,d,1,2.1003,1,3,7,0,1,,,,,
,0.81,,,,,,,,,j,red,5788cc99c9abeb0001af20a7,2021-09-27_17h23.59.018,forced_choiceRT_color,2021.2.3,Win32,60.06366749,,,,,,,,3,Fast,long,j,1,1.7507,2,0,8,2,1,,,,,
,1.1,,,,,,,,,f,blue,5788cc99c9abeb0001af20a7,2021-09-27_17h23.59.018,forced_choiceRT_color,2021.2.3,Win32,60.06366749,,,,,,,,3,Ontime,long,f,1,2.0173,2,1,9,1,1,,,,,
,0.32,,,,,,,,,f,blue,5788cc99c9abeb0001af20a7,2021-09-27_17h23.59.018,forced_choiceRT_color,2021.2.3,Win32,60.06366749,,,,,,,,3,Ontime,long,f,1,2.0216,2,2,10,1,1,,,,,
,1.08,,,,,,,,,j,red,5788cc99c9abeb0001af20a7,2021-09-27_17h23.59.018,forced_choiceRT_color,2021.2.3,Win32,60.06366749,,,,,,,,3,Fast,long,j,1,1.8841,2,3,11,2,1,,,,,
,1.47,,,,,,,,,k,purple,5788cc99c9abeb0001af20a7,2021-09-27_17h23.59.018,forced_choiceRT_color,2021.2.3,Win32,60.06366749,,,,,,,,3,Ontime,long,k,1,2.0672,3,0,12,3,1,,,,,
,1.69,,,,,,,,,d,orange,5788cc99c9abeb0001af20a7,2021-09-27_17h23.59.018,forced_choiceRT_color,2021.2.3,Win32,60.06366749,,,,,,,,3,Slow,long,d,1,2.2234,3,1,13,0,1,,,,,
,1.3,,,,,,,,,f,blue,5788cc99c9abeb0001af20a7,2021-09-27_17h23.59.018,forced_choiceRT_color,2021.2.3,Win32,60.06366749,,,,,,,,3,Fast,long,f,1,1.7171,3,2,14,1,1,,,,,
,0.26,,,,,,,,,k,purple,5788cc99c9abeb0001af20a7,2021-09-27_17h23.59.018,forced_choiceRT_color,2021.2.3,Win32,60.06366749,,,,,,,,3,Ontime,long,k,1,2.0348,3,3,15,3,1,,,,,
,0.85,,,,,,,,,d,orange,5788cc99c9abeb0001af20a7,2021-09-27_17h23.59.018,forced_choiceRT_color,2021.2.3,Win32,60.06366749,,,,,,,,3,Ontime,long,d,1,1.9838,4,0,16,0,1,,,,,
,1.39,,,,,,,,,d,orange,5788cc99c9abeb0001af20a7,2021-09-27_17h23.59.018,forced_choiceRT_color,2021.2.3,Win32,60.06366749,,,,,,,,3,Fast,long,d,1,1.8544,4,1,17,0,1,,,,,
,1.07,,,,,,,,,f,blue,5788cc99c9abeb0001af20a7,2021-09-27_17h23.59.018,forced_choiceRT_color,2021.2.3,Win32,60.06366749,,,,,,,,3,Ontime,long,f,1,2.0339,4,2,18,1,1,,,,,
,1.5,,,,,,,,,j,red,5788cc99c9abeb0001af20a7,2021-09-27_17h23.59.018,forced_choiceRT_color,2021.2.3,Win32,60.06366749,,,,,,,,3,Slow,long,j,1,2.253,4,3,19,2,1,,,,,
,0.1,,,,,,,,,j,red,5788cc99c9abeb0001af20a7,2021-09-27_17h23.59.018,forced_choiceRT_color,2021.2.3,Win32,60.06366749,,,,,,,,3,Ontime,long,j,1,2.0838,5,0,20,2,1,,,,,
,1.26,,,,,,,,,d,orange,5788cc99c9abeb0001af20a7,2021-09-27_17h23.59.018,forced_choiceRT_color,2021.2.3,Win32,60.06366749,,,,,,,,3,Slow,long,d,1,2.2171,5,1,21,0,1,,,,,
,1.73,,,,,,,,,k,purple,5788cc99c9abeb0001af20a7,2021-09-27_17h23.59.018,forced_choiceRT_color,2021.2.3,Win32,60.06366749,,,,,,,,3,Ontime,long,f,0,2.0672,5,2,22,3,1,,,,,
,0.91,,,,,,,,,f,blue,5788cc99c9abeb0001af20a7,2021-09-27_17h23.59.018,forced_choiceRT_color,2021.2.3,Win32,60.06366749,,,,,,,,3,Ontime,long,f,1,2.0395,5,3,23,1,1,,,,,
,1.86,,,,,,,,,k,purple,5788cc99c9abeb0001af20a7,2021-09-27_17h23.59.018,forced_choiceRT_color,2021.2.3,Win32,60.06366749,,,,,,,,3,Slow,long,j,0,2.3338,6,0,24,3,1,,,,,
,1.03,,,,,,,,,j,red,5788cc99c9abeb0001af20a7,2021-09-27_17h23.59.018,forced_choiceRT_color,2021.2.3,Win32,60.06366749,,,,,,,,3,Fast,long,j,1,1.7862,6,1,25,2,1,,,,,
,1.14,,,,,,,,,d,orange,5788cc99c9abeb0001af20a7,2021-09-27_17h23.59.018,forced_choiceRT_color,2021.2.3,Win32,60.06366749,,,,,,,,3,Fast,long,j,0,1.684,6,2,26,0,1,,,,,
,0.88,,,,,,,,,d,orange,5788cc99c9abeb0001af20a7,2021-09-27_17h23.59.018,forced_choiceRT_color,2021.2.3,Win32,60.06366749,,,,,,,,3,Fast,long,d,1,1.4005,6,3,27,0,1,,,,,
,1.12,,,,,,,,,k,purple,5788cc99c9abeb0001af20a7,2021-09-27_17h23.59.018,forced_choiceRT_color,2021.2.3,Win32,60.06366749,,,,,,,,3,Fast,long,j,0,1.673,7,0,28,3,1,,,,,
,0.61,,,,,,,,,j,red,5788cc99c9abeb0001af20a7,2021-09-27_17h23.59.018,forced_choiceRT_color,2021.2.3,Win32,60.06366749,,,,,,,,3,Ontime,long,j,1,1.9533,7,1,29,2,1,,,,,
,1.77,,,,,,,,,k,purple,5788cc99c9abeb0001af20a7,2021-09-27_17h23.59.018,forced_choiceRT_color,2021.2.3,Win32,60.06366749,,,,,,,,3,Slow,long,j,0,2.3379,7,2,30,3,1,,,,,
,0.8,,,,,,,,,k,purple,5788cc99c9abeb0001af20a7,2021-09-27_17h23.59.018,forced_choiceRT_color,2021.2.3,Win32,60.06366749,,,,,,,,3,Fast,long,j,0,1.4234,7,3,31,3,1,,,,,
,1.37,,,,,,,,,k,purple,5788cc99c9abeb0001af20a7,2021-09-27_17h23.59.018,forced_choiceRT_color,2021.2.3,Win32,60.06366749,,,,,,,,3,Fast,long,j,0,1.8668,8,0,32,3,1,,,,,
,1.81,,,,,,,,,f,blue,5788cc99c9abeb0001af20a7,2021-09-27_17h23.59.018,forced_choiceRT_color,2021.2.3,Win32,60.06366749,,,,,,,,3,Slow,long,j,0,2.3374,8,1,33,1,1,,,,,
,1,,,,,,,,,j,red,5788cc99c9abeb0001af20a7,2021-09-27_17h23.59.018,forced_choiceRT_color,2021.2.3,Win32,60.06366749,,,,,,,,3,Ontime,long,j,1,2.0867,8,2,34,2,1,,,,,
,0.85,,,,,,,,,d,orange,5788cc99c9abeb0001af20a7,2021-09-27_17h23.59.018,forced_choiceRT_color,2021.2.3,Win32,60.06366749,,,,,,,,3,Ontime,long,d,1,1.9384,8,3,35,0,1,,,,,
,1.55,,,,,,,,,j,red,5788cc99c9abeb0001af20a7,2021-09-27_17h23.59.018,forced_choiceRT_color,2021.2.3,Win32,60.06366749,,,,,,,,3,Ontime,long,j,1,2.0671,9,0,36,2,1,,,,,
,1.94,,,,,,,,,j,red,5788cc99c9abeb0001af20a7,2021-09-27_17h23.59.018,forced_choiceRT_color,2021.2.3,Win32,60.06366749,,,,,,,,3,Slow,long,j,1,2.3502,9,1,37,2,1,,,,,
,0.62,,,,,,,,,d,orange,5788cc99c9abeb0001af20a7,2021-09-27_17h23.59.018,forced_choiceRT_color,2021.2.3,Win32,60.06366749,,,,,,,,3,Fast,long,j,0,1.2004,9,2,38,0,1,,,,,
,0.53,,,,,,,,,k,purple,5788cc99c9abeb0001af20a7,2021-09-27_17h23.59.018,forced_choiceRT_color,2021.2.3,Win32,60.06366749,,,,,,,,3,Ontime,long,k,1,2.0503,9,3,39,3,1,,,,,
,,,,,,,,,,,,5788cc99c9abeb0001af20a7,2021-09-27_17h23.59.018,forced_choiceRT_color,2021.2.3,Win32,60.06366749,,,,,,,,,,,,,,,,,,,2,0,2,0,1
,0.92,,,,,,,,,j,red,5788cc99c9abeb0001af20a7,2021-09-27_17h23.59.018,forced_choiceRT_color,2021.2.3,Win32,60.06366749,,,,,,,,4,Slow,long,j,1,2.2671,0,0,0,2,1,,,,,
,0.56,,,,,,,,,k,purple,5788cc99c9abeb0001af20a7,2021-09-27_17h23.59.018,forced_choiceRT_color,2021.2.3,Win32,60.06366749,,,,,,,,4,Ontime,long,k,1,2.0207,0,1,1,3,1,,,,,
,1.01,,,,,,,,,k,purple,5788cc99c9abeb0001af20a7,2021-09-27_17h23.59.018,forced_choiceRT_color,2021.2.3,Win32,60.06366749,,,,,,,,4,Fast,long,k,1,1.619,0,2,2,3,1,,,,,
,0.88,,,,,,,,,d,orange,5788cc99c9abeb0001af20a7,2021-09-27_17h23.59.018,forced_choiceRT_color,2021.2.3,Win32,60.06366749,,,,,,,,4,Fast,long,d,1,1.4005,0,3,3,0,1,,,,,
,0.67,,,,,,,,,d,orange,5788cc99c9abeb0001af20a7,2021-09-27_17h23.59.018,forced_choiceRT_color,2021.2.3,Win32,60.06366749,,,,,,,,4,Slow,long,d,1,2.1836,1,0,4,0,1,,,,,
,1.48,,,,,,,,,d,orange,5788cc99c9abeb0001af20a7,2021-09-27_17h23.59.018,forced_choiceRT_color,2021.2.3,Win32,60.06366749,,,,,,,,4,Ontime,long,d,1,2.0191,1,1,5,0,1,,,,,
,0.45,,,,,,,,,k,purple,5788cc99c9abeb0001af20a7,2021-09-27_17h23.59.018,forced_choiceRT_color,2021.2.3,Win32,60.06366749,,,,,,,,4,Ontime,long,k,1,2.0679,1,2,6,3,1,,,,,
,0.54,,,,,,,,,d,orange,5788cc99c9abeb0001af20a7,2021-09-27_17h23.59.018,forced_choiceRT_color,2021.2.3,Win32,60.06366749,,,,,,,,4,Slow,long,d,1,2.2172,1,3,7,0,1,,,,,
,1.66,,,,,,,,,f,blue,5788cc99c9abeb0001af20a7,2021-09-27_17h23.59.018,forced_choiceRT_color,2021.2.3,Win32,60.06366749,,,,,,,,4,Slow,long,d,0,2.1339,2,0,8,1,1,,,,,
,1.52,,,,,,,,,f,blue,5788cc99c9abeb0001af20a7,2021-09-27_17h23.59.018,forced_choiceRT_color,2021.2.3,Win32,60.06366749,,,,,,,,4,Ontime,long,f,1,1.9835,2,1,9,1,1,,,,,
,1.29,,,,,,,,,j,red,5788cc99c9abeb0001af20a7,2021-09-27_17h23.59.018,forced_choiceRT_color,2021.2.3,Win32,60.06366749,,,,,,,,4,Ontime,long,j,1,2.0668,2,2,10,2,1,,,,,
,1.01,,,,,,,,,d,orange,5788cc99c9abeb0001af20a7,2021-09-27_17h23.59.018,forced_choiceRT_color,2021.2.3,Win32,60.06366749,,,,,,,,4,Slow,long,d,1,2.217,2,3,11,0,1,,,,,
,1.87,,,,,,,,,j,red,5788cc99c9abeb0001af20a7,2021-09-27_17h23.59.018,forced_choiceRT_color,2021.2.3,Win32,60.06366749,,,,,,,,4,Slow,long,d,0,2.4004,3,0,12,2,1,,,,,
,1.02,,,,,,,,,d,orange,5788cc99c9abeb0001af20a7,2021-09-27_17h23.59.018,forced_choiceRT_color,2021.2.3,Win32,60.06366749,,,,,,,,4,Fast,long,d,1,1.6789,3,1,13,0,1,,,,,
,1.85,,,,,,,,,k,purple,5788cc99c9abeb0001af20a7,2021-09-27_17h23.59.018,forced_choiceRT_color,2021.2.3,Win32,60.06366749,,,,,,,,4,Slow,long,k,1,2.3742,3,2,14,3,1,,,,,
,1.39,,,,,,,,,f,blue,5788cc99c9abeb0001af20a7,2021-09-27_17h23.59.018,forced_choiceRT_color,2021.2.3,Win32,60.06366749,,,,,,,,4,Ontime,long,d,0,1.9673,3,3,15,1,1,,,,,
,1.78,,,,,,,,,j,red,5788cc99c9abeb0001af20a7,2021-09-27_17h23.59.018,forced_choiceRT_color,2021.2.3,Win32,60.06366749,,,,,,,,4,Slow,long,d,0,2.203,4,0,16,2,1,,,,,
,1.35,,,,,,,,,d,orange,5788cc99c9abeb0001af20a7,2021-09-27_17h23.59.018,forced_choiceRT_color,2021.2.3,Win32,60.06366749,,,,,,,,4,Fast,long,d,1,1.8855,4,1,17,0,1,,,,,
,1.54,,,,,,,,,f,blue,5788cc99c9abeb0001af20a7,2021-09-27_17h23.59.018,forced_choiceRT_color,2021.2.3,Win32,60.06366749,,,,,,,,4,Ontime,long,f,1,1.9505,4,2,18,1,1,,,,,
,1.49,,,,,,,,,d,orange,5788cc99c9abeb0001af20a7,2021-09-27_17h23.59.018,forced_choiceRT_color,2021.2.3,Win32,60.06366749,,,,,,,,4,Slow,long,j,0,8.5832,4,3,19,0,1,,,,,
,1.31,,,,,,,,,k,purple,5788cc99c9abeb0001af20a7,2021-09-27_17h23.59.018,forced_choiceRT_color,2021.2.3,Win32,60.06366749,,,,,,,,4,Slow,long,k,1,2.2172,5,0,20,3,1,,,,,
,0.99,,,,,,,,,f,blue,5788cc99c9abeb0001af20a7,2021-09-27_17h23.59.018,forced_choiceRT_color,2021.2.3,Win32,60.06366749,,,,,,,,4,Fast,long,f,1,1.8507,5,1,21,1,1,,,,,
,0.42,,,,,,,,,d,orange,5788cc99c9abeb0001af20a7,2021-09-27_17h23.59.018,forced_choiceRT_color,2021.2.3,Win32,60.06366749,,,,,,,,4,Fast,long,d,1,1.3339,5,2,22,0,1,,,,,
,0.58,,,,,,,,,j,red,5788cc99c9abeb0001af20a7,2021-09-27_17h23.59.018,forced_choiceRT_color,2021.2.3,Win32,60.06366749,,,,,,,,4,Fast,long,j,1,1.3173,5,3,23,2,1,,,,,
,0.7,,,,,,,,,d,orange,5788cc99c9abeb0001af20a7,2021-09-27_17h23.59.018,forced_choiceRT_color,2021.2.3,Win32,60.06366749,,,,,,,,4,Fast,long,d,1,1.7518,6,0,24,0,1,,,,,
,1.13,,,,,,,,,k,purple,5788cc99c9abeb0001af20a7,2021-09-27_17h23.59.018,forced_choiceRT_color,2021.2.3,Win32,60.06366749,,,,,,,,4,Slow,long,k,1,2.2338,6,1,25,3,1,,,,,
,1.07,,,,,,,,,j,red,5788cc99c9abeb0001af20a7,2021-09-27_17h23.59.018,forced_choiceRT_color,2021.2.3,Win32,60.06366749,,,,,,,,4,Ontime,long,j,1,2.0836,6,2,26,2,1,,,,,
,0.59,,,,,,,,,j,red,5788cc99c9abeb0001af20a7,2021-09-27_17h23.59.018,forced_choiceRT_color,2021.2.3,Win32,60.06366749,,,,,,,,4,Fast,long,j,1,1.7694,6,3,27,2,1,,,,,
,1.79,,,,,,,,,f,blue,5788cc99c9abeb0001af20a7,2021-09-27_17h23.59.018,forced_choiceRT_color,2021.2.3,Win32,60.06366749,,,,,,,,4,Slow,long,d,0,2.302,7,0,28,1,1,,,,,
,1.1,,,,,,,,,f,blue,5788cc99c9abeb0001af20a7,2021-09-27_17h23.59.018,forced_choiceRT_color,2021.2.3,Win32,60.06366749,,,,,,,,4,Fast,long,f,1,1.7719,7,1,29,1,1,,,,,
,1.46,,,,,,,,,f,blue,5788cc99c9abeb0001af20a7,2021-09-27_17h23.59.018,forced_choiceRT_color,2021.2.3,Win32,60.06366749,,,,,,,,4,Fast,long,f,1,1.8726,7,2,30,1,1,,,,,
,1.77,,,,,,,,,f,blue,5788cc99c9abeb0001af20a7,2021-09-27_17h23.59.018,forced_choiceRT_color,2021.2.3,Win32,60.06366749,,,,,,,,4,Slow,long,f,1,2.217,7,3,31,1,1,,,,,
,1.28,,,,,,,,,f,blue,5788cc99c9abeb0001af20a7,2021-09-27_17h23.59.018,forced_choiceRT_color,2021.2.3,Win32,60.06366749,,,,,,,,4,Fast,long,f,1,1.8338,8,0,32,1,1,,,,,
,0.99,,,,,,,,,j,red,5788cc99c9abeb0001af20a7,2021-09-27_17h23.59.018,forced_choiceRT_color,2021.2.3,Win32,60.06366749,,,,,,,,4,Ontime,long,j,1,1.9504,8,1,33,2,1,,,,,
,1.29,,,,,,,,,k,purple,5788cc99c9abeb0001af20a7,2021-09-27_17h23.59.018,forced_choiceRT_color,2021.2.3,Win32,60.06366749,,,,,,,,4,Slow,long,k,1,2.1503,8,2,34,3,1,,,,,
,1.64,,,,,,,,,k,purple,5788cc99c9abeb0001af20a7,2021-09-27_17h23.59.018,forced_choiceRT_color,2021.2.3,Win32,60.06366749,,,,,,,,4,Ontime,long,d,0,1.9839,8,3,35,3,1,,,,,
,0.22,,,,,,,,,j,red,5788cc99c9abeb0001af20a7,2021-09-27_17h23.59.018,forced_choiceRT_color,2021.2.3,Win32,60.06366749,,,,,,,,4,Ontime,long,j,1,1.9854,9,0,36,2,1,,,,,
,0.62,,,,,,,,,j,red,5788cc99c9abeb0001af20a7,2021-09-27_17h23.59.018,forced_choiceRT_color,2021.2.3,Win32,60.06366749,,,,,,,,4,Fast,long,j,1,1.1689,9,1,37,2,1,,,,,
,1.85,,,,,,,,,k,purple,5788cc99c9abeb0001af20a7,2021-09-27_17h23.59.018,forced_choiceRT_color,2021.2.3,Win32,60.06366749,,,,,,,,4,Slow,long,k,1,2.3501,9,2,38,3,1,,,,,
,1.78,,,,,,,,,k,purple,5788cc99c9abeb0001af20a7,2021-09-27_17h23.59.018,forced_choiceRT_color,2021.2.3,Win32,60.06366749,,,,,,,,4,Slow,long,d,0,2.1669,9,3,39,3,1,,,,,
,,,,,,,,,,,,5788cc99c9abeb0001af20a7,2021-09-27_17h23.59.018,forced_choiceRT_color,2021.2.3,Win32,60.06366749,,,,,,,,,,,,,,,,,,,3,0,3,0,1
,0.43,,,,,,,,,d,orange,5788cc99c9abeb0001af20a7,2021-09-27_17h23.59.018,forced_choiceRT_color,2021.2.3,Win32,60.06366749,,,,,,,,5,Ontime,long,d,1,1.9673,0,0,0,0,1,,,,,
,1.48,,,,,,,,,j,red,5788cc99c9abeb0001af20a7,2021-09-27_17h23.59.018,forced_choiceRT_color,2021.2.3,Win32,60.06366749,,,,,,,,5,Slow,long,j,1,2.1339,0,1,1,2,1,,,,,
,0.64,,,,,,,,,k,purple,5788cc99c9abeb0001af20a7,2021-09-27_17h23.59.018,forced_choiceRT_color,2021.2.3,Win32,60.06366749,,,,,,,,5,Fast,long,k,1,1.8505,0,2,2,3,1,,,,,
,1.24,,,,,,,,,k,purple,5788cc99c9abeb0001af20a7,2021-09-27_17h23.59.018,forced_choiceRT_color,2021.2.3,Win32,60.06366749,,,,,,,,5,Fast,long,k,1,1.7004,0,3,3,3,1,,,,,
,0.43,,,,,,,,,f,blue,5788cc99c9abeb0001af20a7,2021-09-27_17h23.59.018,forced_choiceRT_color,2021.2.3,Win32,60.06366749,,,,,,,,5,Ontime,long,f,1,2.0506,1,0,4,1,1,,,,,
,1.34,,,,,,,,,j,red,5788cc99c9abeb0001af20a7,2021-09-27_17h23.59.018,forced_choiceRT_color,2021.2.3,Win32,60.06366749,,,,,,,,5,Slow,long,j,1,2.2857,1,1,5,2,1,,,,,
,0.75,,,,,,,,,d,orange,5788cc99c9abeb0001af20a7,2021-09-27_17h23.59.018,forced_choiceRT_color,2021.2.3,Win32,60.06366749,,,,,,,,5,Ontime,long,d,1,1.9173,1,2,6,0,1,,,,,
,1.54,,,,,,,,,f,blue,5788cc99c9abeb0001af20a7,2021-09-27_17h23.59.018,forced_choiceRT_color,2021.2.3,Win32,60.06366749,,,,,,,,5,Ontime,long,f,1,1.9181,1,3,7,1,1,,,,,
,1.92,,,,,,,,,f,blue,5788cc99c9abeb0001af20a7,2021-09-27_17h23.59.018,forced_choiceRT_color,2021.2.3,Win32,60.06366749,,,,,,,,5,Slow,long,f,1,2.3369,2,0,8,1,1,,,,,
,1.31,,,,,,,,,d,orange,5788cc99c9abeb0001af20a7,2021-09-27_17h23.59.018,forced_choiceRT_color,2021.2.3,Win32,60.06366749,,,,,,,,5,Ontime,long,d,1,1.934,2,1,9,0,1,,,,,
,0.33,,,,,,,,,k,purple,5788cc99c9abeb0001af20a7,2021-09-27_17h23.59.018,forced_choiceRT_color,2021.2.3,Win32,60.06366749,,,,,,,,5,Slow,long,k,1,2.1035,2,2,10,3,1,,,,,
,1.29,,,,,,,,,j,red,5788cc99c9abeb0001af20a7,2021-09-27_17h23.59.018,forced_choiceRT_color,2021.2.3,Win32,60.06366749,,,,,,,,5,Slow,long,j,1,2.1835,2,3,11,2,1,,,,,
,0,,,,,,,,,k,purple,5788cc99c9abeb0001af20a7,2021-09-27_17h23.59.018,forced_choiceRT_color,2021.2.3,Win32,60.06366749,,,,,,,,5,Fast,long,k,1,1.8339,3,0,12,3,1,,,,,
,1.34,,,,,,,,,d,orange,5788cc99c9abeb0001af20a7,2021-09-27_17h23.59.018,forced_choiceRT_color,2021.2.3,Win32,60.06366749,,,,,,,,5,Fast,long,k,0,1.7876,3,1,13,0,1,,,,,
,1.86,,,,,,,,,d,orange,5788cc99c9abeb0001af20a7,2021-09-27_17h23.59.018,forced_choiceRT_color,2021.2.3,Win32,60.06366749,,,,,,,,5,Slow,long,d,1,2.3503,3,2,14,0,1,,,,,
,0,,,,,,,,,f,blue,5788cc99c9abeb0001af20a7,2021-09-27_17h23.59.018,forced_choiceRT_color,2021.2.3,Win32,60.06366749,,,,,,,,5,Fast,long,f,1,1.8836,3,3,15,1,1,,,,,
,1.58,,,,,,,,,k,purple,5788cc99c9abeb0001af20a7,2021-09-27_17h23.59.018,forced_choiceRT_color,2021.2.3,Win32,60.06366749,,,,,,,,5,Slow,long,k,1,2.1836,4,0,16,3,1,,,,,
,1.87,,,,,,,,,j,red,5788cc99c9abeb0001af20a7,2021-09-27_17h23.59.018,forced_choiceRT_color,2021.2.3,Win32,60.06366749,,,,,,,,5,Slow,long,j,1,2.2337,4,1,17,2,1,,,,,
,0.17,,,,,,,,,d,orange,5788cc99c9abeb0001af20a7,2021-09-27_17h23.59.018,forced_choiceRT_color,2021.2.3,Win32,60.06366749,,,,,,,,5,Fast,long,d,1,1.8726,4,2,18,0,1,,,,,
,0.36,,,,,,,,,j,red,5788cc99c9abeb0001af20a7,2021-09-27_17h23.59.018,forced_choiceRT_color,2021.2.3,Win32,60.06366749,,,,,,,,5,Slow,long,j,1,2.1338,4,3,19,2,1,,,,,
,1.26,,,,,,,,,j,red,5788cc99c9abeb0001af20a7,2021-09-27_17h23.59.018,forced_choiceRT_color,2021.2.3,Win32,60.06366749,,,,,,,,5,Fast,long,j,1,1.8505,5,0,20,2,1,,,,,
,1.16,,,,,,,,,k,purple,5788cc99c9abeb0001af20a7,2021-09-27_17h23.59.018,forced_choiceRT_color,2021.2.3,Win32,60.06366749,,,,,,,,5,Fast,long,k,1,1.7837,5,1,21,3,1,,,,,
,0.81,,,,,,,,,f,blue,5788cc99c9abeb0001af20a7,2021-09-27_17h23.59.018,forced_choiceRT_color,2021.2.3,Win32,60.06366749,,,,,,,,5,Ontime,long,f,1,2.0837,5,2,22,1,1,,,,,
,0.21,,,,,,,,,f,blue,5788cc99c9abeb0001af20a7,2021-09-27_17h23.59.018,forced_choiceRT_color,2021.2.3,Win32,60.06366749,,,,,,,,5,Ontime,long,f,1,2.0004,5,3,23,1,1,,,,,
,1.02,,,,,,,,,d,orange,5788cc99c9abeb0001af20a7,2021-09-27_17h23.59.018,forced_choiceRT_color,2021.2.3,Win32,60.06366749,,,,,,,,5,Slow,long,d,1,2.1503,6,0,24,0,1,,,,,
,0.22,,,,,,,,,d,orange,5788cc99c9abeb0001af20a7,2021-09-27_17h23.59.018,forced_choiceRT_color,2021.2.3,Win32,60.06366749,,,,,,,,5,Fast,long,d,1,1.8838,6,1,25,0,1,,,,,
,1.06,,,,,,,,,j,red,5788cc99c9abeb0001af20a7,2021-09-27_17h23.59.018,forced_choiceRT_color,2021.2.3,Win32,60.06366749,,,,,,,,5,Fast,long,j,1,1.4179,6,2,26,2,1,,,,,
,1.11,,,,,,,,,d,orange,5788cc99c9abeb0001af20a7,2021-09-27_17h23.59.018,forced_choiceRT_color,2021.2.3,Win32,60.06366749,,,,,,,,5,Ontime,long,d,1,1.9345,6,3,27,0,1,,,,,
,0.57,,,,,,,,,f,blue,5788cc99c9abeb0001af20a7,2021-09-27_17h23.59.018,forced_choiceRT_color,2021.2.3,Win32,60.06366749,,,,,,,,5,Fast,long,f,1,1.8693,7,0,28,1,1,,,,,
,1.4,,,,,,,,,f,blue,5788cc99c9abeb0001af20a7,2021-09-27_17h23.59.018,forced_choiceRT_color,2021.2.3,Win32,60.06366749,,,,,,,,5,Slow,long,f,1,2.1504,7,1,29,1,1,,,,,
,1.85,,,,,,,,,f,blue,5788cc99c9abeb0001af20a7,2021-09-27_17h23.59.018,forced_choiceRT_color,2021.2.3,Win32,60.06366749,,,,,,,,5,Slow,long,f,1,2.317,7,2,30,1,1,,,,,
,0.73,,,,,,,,,k,purple,5788cc99c9abeb0001af20a7,2021-09-27_17h23.59.018,forced_choiceRT_color,2021.2.3,Win32,60.06366749,,,,,,,,5,Fast,long,k,1,1.8732,7,3,31,3,1,,,,,
,1.51,,,,,,,,,d,orange,5788cc99c9abeb0001af20a7,2021-09-27_17h23.59.018,forced_choiceRT_color,2021.2.3,Win32,60.06366749,,,,,,,,5,Slow,long,d,1,2.2013,8,0,32,0,1,,,,,
,0.05,,,,,,,,,j,red,5788cc99c9abeb0001af20a7,2021-09-27_17h23.59.018,forced_choiceRT_color,2021.2.3,Win32,60.06366749,,,,,,,,5,Fast,long,j,1,1.8198,8,1,33,2,1,,,,,
,1.28,,,,,,,,,k,purple,5788cc99c9abeb0001af20a7,2021-09-27_17h23.59.018,forced_choiceRT_color,2021.2.3,Win32,60.06366749,,,,,,,,5,Ontime,long,k,1,1.9019,8,2,34,3,1,,,,,
,1.69,,,,,,,,,k,purple,5788cc99c9abeb0001af20a7,2021-09-27_17h23.59.018,forced_choiceRT_color,2021.2.3,Win32,60.06366749,,,,,,,,5,Ontime,long,j,0,2.0888,8,3,35,3,1,,,,,
,0.01,,,,,,,,,j,red,5788cc99c9abeb0001af20a7,2021-09-27_17h23.59.018,forced_choiceRT_color,2021.2.3,Win32,60.06366749,,,,,,,,5,Ontime,long,j,1,2.0005,9,0,36,2,1,,,,,
,1.54,,,,,,,,,k,purple,5788cc99c9abeb0001af20a7,2021-09-27_17h23.59.018,forced_choiceRT_color,2021.2.3,Win32,60.06366749,,,,,,,,5,Slow,long,j,0,2.3336,9,1,37,3,1,,,,,
,0.43,,,,,,,,,j,red,5788cc99c9abeb0001af20a7,2021-09-27_17h23.59.018,forced_choiceRT_color,2021.2.3,Win32,60.06366749,,,,,,,,5,Ontime,long,j,1,1.9673,9,2,38,2,1,,,,,
,0.62,,,,,,,,,f,blue,5788cc99c9abeb0001af20a7,2021-09-27_17h23.59.018,forced_choiceRT_color,2021.2.3,Win32,60.06366749,,,,,,,,5,Fast,long,f,1,1.8837,9,3,39,1,1,,,,,
,,,,,,,,,,,,5788cc99c9abeb0001af20a7,2021-09-27_17h23.59.018,forced_choiceRT_color,2021.2.3,Win32,60.06366749,,,,,,,,,,,,,,,,,,,4,0,4,0,1
,1.49,,,,,,,,,f,blue,5788cc99c9abeb0001af20a7,2021-09-27_17h23.59.018,forced_choiceRT_color,2021.2.3,Win32,60.06366749,,,,,,,,6,Ontime,long,j,0,2.0168,0,0,0,1,1,,,,,
,0.85,,,,,,,,,j,red,5788cc99c9abeb0001af20a7,2021-09-27_17h23.59.018,forced_choiceRT_color,2021.2.3,Win32,60.06366749,,,,,,,,6,Slow,long,j,1,2.1344,0,1,1,2,1,,,,,
,1.68,,,,,,,,,d,orange,5788cc99c9abeb0001af20a7,2021-09-27_17h23.59.018,forced_choiceRT_color,2021.2.3,Win32,60.06366749,,,,,,,,6,Slow,long,d,1,2.217,0,2,2,0,1,,,,,
,1.07,,,,,,,,,f,blue,5788cc99c9abeb0001af20a7,2021-09-27_17h23.59.018,forced_choiceRT_color,2021.2.3,Win32,60.06366749,,,,,,,,6,Fast,long,f,1,1.5171,0,3,3,1,1,,,,,
,0.94,,,,,,,,,f,blue,5788cc99c9abeb0001af20a7,2021-09-27_17h23.59.018,forced_choiceRT_color,2021.2.3,Win32,60.06366749,,,,,,,,6,Fast,long,f,1,1.4005,1,0,4,1,1,,,,,
,1.91,,,,,,,,,d,orange,5788cc99c9abeb0001af20a7,2021-09-27_17h23.59.018,forced_choiceRT_color,2021.2.3,Win32,60.06366749,,,,,,,,6,Slow,long,d,1,2.4183,1,1,5,0,1,,,,,
,0.27,,,,,,,,,f,blue,5788cc99c9abeb0001af20a7,2021-09-27_17h23.59.018,forced_choiceRT_color,2021.2.3,Win32,60.06366749,,,,,,,,6,Fast,long,f,1,1.8506,1,2,6,1,1,,,,,
,0.44,,,,,,,,,j,red,5788cc99c9abeb0001af20a7,2021-09-27_17h23.59.018,forced_choiceRT_color,2021.2.3,Win32,60.06366749,,,,,,,,6,Ontime,long,j,1,1.9173,1,3,7,2,1,,,,,
,0.57,,,,,,,,,k,purple,5788cc99c9abeb0001af20a7,2021-09-27_17h23.59.018,forced_choiceRT_color,2021.2.3,Win32,60.06366749,,,,,,,,6,Fast,long,k,1,1.8342,2,0,8,3,1,,,,,
,0.33,,,,,,,,,f,blue,5788cc99c9abeb0001af20a7,2021-09-27_17h23.59.018,forced_choiceRT_color,2021.2.3,Win32,60.06366749,,,,,,,,6,Ontime,long,f,1,2.0172,2,1,9,1,1,,,,,
,1.18,,,,,,,,,j,red,5788cc99c9abeb0001af20a7,2021-09-27_17h23.59.018,forced_choiceRT_color,2021.2.3,Win32,60.06366749,,,,,,,,6,Slow,long,j,1,2.1502,2,2,10,2,1,,,,,
,0.48,,,,,,,,,j,red,5788cc99c9abeb0001af20a7,2021-09-27_17h23.59.018,forced_choiceRT_color,2021.2.3,Win32,60.06366749,,,,,,,,6,Slow,long,j,1,2.1012,2,3,11,2,1,,,,,
,0.31,,,,,,,,,j,red,5788cc99c9abeb0001af20a7,2021-09-27_17h23.59.018,forced_choiceRT_color,2021.2.3,Win32,60.06366749,,,,,,,,6,Ontime,long,j,1,2.0839,3,0,12,2,1,,,,,
,0.97,,,,,,,,,d,orange,5788cc99c9abeb0001af20a7,2021-09-27_17h23.59.018,forced_choiceRT_color,2021.2.3,Win32,60.06366749,,,,,,,,6,Ontime,long,d,1,2.0173,3,1,13,0,1,,,,,
,1.77,,,,,,,,,d,orange,5788cc99c9abeb0001af20a7,2021-09-27_17h23.59.018,forced_choiceRT_color,2021.2.3,Win32,60.06366749,,,,,,,,6,Slow,long,f,0,2.2227,3,2,14,0,1,,,,,
,0.94,,,,,,,,,k,purple,5788cc99c9abeb0001af20a7,2021-09-27_17h23.59.018,forced_choiceRT_color,2021.2.3,Win32,60.06366749,,,,,,,,6,Ontime,long,k,1,1.9845,3,3,15,3,1,,,,,
,1.43,,,,,,,,,d,orange,5788cc99c9abeb0001af20a7,2021-09-27_17h23.59.018,forced_choiceRT_color,2021.2.3,Win32,60.06366749,,,,,,,,6,Ontime,long,d,1,2.0672,4,0,16,0,1,,,,,
,0.8,,,,,,,,,d,orange,5788cc99c9abeb0001af20a7,2021-09-27_17h23.59.018,forced_choiceRT_color,2021.2.3,Win32,60.06366749,,,,,,,,6,Ontime,long,d,1,2.0365,4,1,17,0,1,,,,,
,1.39,,,,,,,,,k,purple,5788cc99c9abeb0001af20a7,2021-09-27_17h23.59.018,forced_choiceRT_color,2021.2.3,Win32,60.06366749,,,,,,,,6,Slow,long,k,1,2.1214,4,2,18,3,1,,,,,
,0.08,,,,,,,,,f,blue,5788cc99c9abeb0001af20a7,2021-09-27_17h23.59.018,forced_choiceRT_color,2021.2.3,Win32,60.06366749,,,,,,,,6,Ontime,long,f,1,2.0007,4,3,19,1,1,,,,,
,1.43,,,,,,,,,d,orange,5788cc99c9abeb0001af20a7,2021-09-27_17h23.59.018,forced_choiceRT_color,2021.2.3,Win32,60.06366749,,,,,,,,6,Ontime,long,d,1,2.0391,5,0,20,0,1,,,,,
,0.58,,,,,,,,,j,red,5788cc99c9abeb0001af20a7,2021-09-27_17h23.59.018,forced_choiceRT_color,2021.2.3,Win32,60.06366749,,,,,,,,6,Ontime,long,j,1,2.0336,5,1,21,2,1,,,,,
,1.95,,,,,,,,,d,orange,5788cc99c9abeb0001af20a7,2021-09-27_17h23.59.018,forced_choiceRT_color,2021.2.3,Win32,60.06366749,,,,,,,,6,Slow,long,d,1,2.3173,5,2,22,0,1,,,,,
,0.72,,,,,,,,,d,orange,5788cc99c9abeb0001af20a7,2021-09-27_17h23.59.018,forced_choiceRT_color,2021.2.3,Win32,60.06366749,,,,,,,,6,Fast,long,d,1,1.2673,5,3,23,0,1,,,,,
,0.27,,,,,,,,,k,purple,5788cc99c9abeb0001af20a7,2021-09-27_17h23.59.018,forced_choiceRT_color,2021.2.3,Win32,60.06366749,,,,,,,,6,Ontime,long,f,0,1.917,6,0,24,3,1,,,,,
,0.31,,,,,,,,,k,purple,5788cc99c9abeb0001af20a7,2021-09-27_17h23.59.018,forced_choiceRT_color,2021.2.3,Win32,60.06366749,,,,,,,,6,Slow,long,k,1,2.1339,6,1,25,3,1,,,,,
,1.11,,,,,,,,,f,blue,5788cc99c9abeb0001af20a7,2021-09-27_17h23.59.018,forced_choiceRT_color,2021.2.3,Win32,60.06366749,,,,,,,,6,Fast,long,f,1,1.5173,6,2,26,1,1,,,,,
,1.78,,,,,,,,,k,purple,5788cc99c9abeb0001af20a7,2021-09-27_17h23.59.018,forced_choiceRT_color,2021.2.3,Win32,60.06366749,,,,,,,,6,Slow,long,k,1,2.3841,6,3,27,3,1,,,,,
,0.03,,,,,,,,,f,blue,5788cc99c9abeb0001af20a7,2021-09-27_17h23.59.018,forced_choiceRT_color,2021.2.3,Win32,60.06366749,,,,,,,,6,Slow,long,f,1,2.1171,7,0,28,1,1,,,,,
,0.03,,,,,,,,,j,red,5788cc99c9abeb0001af20a7,2021-09-27_17h23.59.018,forced_choiceRT_color,2021.2.3,Win32,60.06366749,,,,,,,,6,Ontime,long,j,1,1.9339,7,1,29,2,1,,,,,
,0.76,,,,,,,,,k,purple,5788cc99c9abeb0001af20a7,2021-09-27_17h23.59.018,forced_choiceRT_color,2021.2.3,Win32,60.06366749,,,,,,,,6,Ontime,long,k,1,2.0005,7,2,30,3,1,,,,,
,0.19,,,,,,,,,j,red,5788cc99c9abeb0001af20a7,2021-09-27_17h23.59.018,forced_choiceRT_color,2021.2.3,Win32,60.06366749,,,,,,,,6,Ontime,long,j,1,1.9839,7,3,31,2,1,,,,,
,0.7,,,,,,,,,k,purple,5788cc99c9abeb0001af20a7,2021-09-27_17h23.59.018,forced_choiceRT_color,2021.2.3,Win32,60.06366749,,,,,,,,6,Ontime,long,k,1,2.0668,8,0,32,3,1,,,,,
,1.49,,,,,,,,,f,blue,5788cc99c9abeb0001af20a7,2021-09-27_17h23.59.018,forced_choiceRT_color,2021.2.3,Win32,60.06366749,,,,,,,,6,Slow,long,f,1,2.1685,8,1,33,1,1,,,,,
,1.69,,,,,,,,,d,orange,5788cc99c9abeb0001af20a7,2021-09-27_17h23.59.018,forced_choiceRT_color,2021.2.3,Win32,60.06366749,,,,,,,,6,Ontime,long,f,0,2.067,8,2,34,0,1,,,,,
,1.03,,,,,,,,,k,purple,5788cc99c9abeb0001af20a7,2021-09-27_17h23.59.018,forced_choiceRT_color,2021.2.3,Win32,60.06366749,,,,,,,,6,Ontime,long,k,1,1.9506,8,3,35,3,1,,,,,
,0.17,,,,,,,,,f,blue,5788cc99c9abeb0001af20a7,2021-09-27_17h23.59.018,forced_choiceRT_color,2021.2.3,Win32,60.06366749,,,,,,,,6,Ontime,long,f,1,1.9338,9,0,36,1,1,,,,,
,1.59,,,,,,,,,k,purple,5788cc99c9abeb0001af20a7,2021-09-27_17h23.59.018,forced_choiceRT_color,2021.2.3,Win32,60.06366749,,,,,,,,6,Ontime,long,j,0,2.0027,9,1,37,3,1,,,,,
,0.36,,,,,,,,,j,red,5788cc99c9abeb0001af20a7,2021-09-27_17h23.59.018,forced_choiceRT_color,2021.2.3,Win32,60.06366749,,,,,,,,6,Slow,long,j,1,2.1171,9,2,38,2,1,,,,,
,1.77,,,,,,,,,j,red,5788cc99c9abeb0001af20a7,2021-09-27_17h23.59.018,forced_choiceRT_color,2021.2.3,Win32,60.06366749,,,,,,,,6,Slow,long,d,0,2.2337,9,3,39,2,1,,,,,
,,,,,,,,,,,,5788cc99c9abeb0001af20a7,2021-09-27_17h23.59.018,forced_choiceRT_color,2021.2.3,Win32,60.06366749,,,,,,,,,,,,,,,,,,,5,0,5,0,1
,0.44,,,,,,,,,d,orange,5788cc99c9abeb0001af20a7,2021-09-27_17h23.59.018,forced_choiceRT_color,2021.2.3,Win32,60.06366749,,,,,,,,7,Fast,long,d,1,1.8026,0,0,0,0,1,,,,,
,1.69,,,,,,,,,f,blue,5788cc99c9abeb0001af20a7,2021-09-27_17h23.59.018,forced_choiceRT_color,2021.2.3,Win32,60.06366749,,,,,,,,7,Slow,long,f,1,2.1676,0,1,1,1,1,,,,,
,0.66,,,,,,,,,f,blue,5788cc99c9abeb0001af20a7,2021-09-27_17h23.59.018,forced_choiceRT_color,2021.2.3,Win32,60.06366749,,,,,,,,7,Fast,long,f,1,1.1504,0,2,2,1,1,,,,,
,1.6,,,,,,,,,j,red,5788cc99c9abeb0001af20a7,2021-09-27_17h23.59.018,forced_choiceRT_color,2021.2.3,Win32,60.06366749,,,,,,,,7,Slow,long,f,0,2.1337,0,3,3,2,1,,,,,
,1.13,,,,,,,,,f,blue,5788cc99c9abeb0001af20a7,2021-09-27_17h23.59.018,forced_choiceRT_color,2021.2.3,Win32,60.06366749,,,,,,,,7,Fast,long,d,0,1.7004,1,0,4,1,1,,,,,
,1.39,,,,,,,,,k,purple,5788cc99c9abeb0001af20a7,2021-09-27_17h23.59.018,forced_choiceRT_color,2021.2.3,Win32,60.06366749,,,,,,,,7,Ontime,long,k,1,2.0672,1,1,5,3,1,,,,,
,1.82,,,,,,,,,d,orange,5788cc99c9abeb0001af20a7,2021-09-27_17h23.59.018,forced_choiceRT_color,2021.2.3,Win32,60.06366749,,,,,,,,7,Slow,long,d,1,2.3505,1,2,6,0,1,,,,,
,1.43,,,,,,,,,j,red,5788cc99c9abeb0001af20a7,2021-09-27_17h23.59.018,forced_choiceRT_color,2021.2.3,Win32,60.06366749,,,,,,,,7,Ontime,long,k,0,1.9339,1,3,7,2,1,,,,,
,1.8,,,,,,,,,f,blue,5788cc99c9abeb0001af20a7,2021-09-27_17h23.59.018,forced_choiceRT_color,2021.2.3,Win32,60.06366749,,,,,,,,7,Slow,long,j,0,2.2503,2,0,8,1,1,,,,,
,1.42,,,,,,,,,d,orange,5788cc99c9abeb0001af20a7,2021-09-27_17h23.59.018,forced_choiceRT_color,2021.2.3,Win32,60.06366749,,,,,,,,7,Ontime,long,d,1,1.9172,2,1,9,0,1,,,,,
,1.18,,,,,,,,,d,orange,5788cc99c9abeb0001af20a7,2021-09-27_17h23.59.018,forced_choiceRT_color,2021.2.3,Win32,60.06366749,,,,,,,,7,Fast,long,f,0,1.6671,2,2,10,0,1,,,,,
,0.49,,,,,,,,,f,blue,5788cc99c9abeb0001af20a7,2021-09-27_17h23.59.018,forced_choiceRT_color,2021.2.3,Win32,60.06366749,,,,,,,,7,Ontime,long,f,1,1.9679,2,3,11,1,1,,,,,
,0.43,,,,,,,,,j,red,5788cc99c9abeb0001af20a7,2021-09-27_17h23.59.018,forced_choiceRT_color,2021.2.3,Win32,60.06366749,,,,,,,,7,Slow,long,j,1,2.1004,3,0,12,2,1,,,,,
,1.81,,,,,,,,,f,blue,5788cc99c9abeb0001af20a7,2021-09-27_17h23.59.018,forced_choiceRT_color,2021.2.3,Win32,60.06366749,,,,,,,,7,Slow,long,j,0,2.2002,3,1,13,1,1,,,,,
,0.49,,,,,,,,,f,blue,5788cc99c9abeb0001af20a7,2021-09-27_17h23.59.018,forced_choiceRT_color,2021.2.3,Win32,60.06366749,,,,,,,,7,Ontime,long,f,1,1.9374,3,2,14,1,1,,,,,
,1.73,,,,,,,,,f,blue,5788cc99c9abeb0001af20a7,2021-09-27_17h23.59.018,forced_choiceRT_color,2021.2.3,Win32,60.06366749,,,,,,,,7,Slow,long,f,1,2.1337,3,3,15,1,1,,,,,
,0.79,,,,,,,,,k,purple,5788cc99c9abeb0001af20a7,2021-09-27_17h23.59.018,forced_choiceRT_color,2021.2.3,Win32,60.06366749,,,,,,,,7,Fast,long,k,1,1.8339,4,0,16,3,1,,,,,
,0.33,,,,,,,,,j,red,5788cc99c9abeb0001af20a7,2021-09-27_17h23.59.018,forced_choiceRT_color,2021.2.3,Win32,60.06366749,,,,,,,,7,Ontime,long,j,1,1.9171,4,1,17,2,1,,,,,
,1.13,,,,,,,,,k,purple,5788cc99c9abeb0001af20a7,2021-09-27_17h23.59.018,forced_choiceRT_color,2021.2.3,Win32,60.06366749,,,,,,,,7,Ontime,long,k,1,1.9336,4,2,18,3,1,,,,,
,1.08,,,,,,,,,d,orange,5788cc99c9abeb0001af20a7,2021-09-27_17h23.59.018,forced_choiceRT_color,2021.2.3,Win32,60.06366749,,,,,,,,7,Ontime,long,f,0,2.0231,4,3,19,0,1,,,,,
,0.67,,,,,,,,,d,orange,5788cc99c9abeb0001af20a7,2021-09-27_17h23.59.018,forced_choiceRT_color,2021.2.3,Win32,60.06366749,,,,,,,,7,Fast,long,d,1,1.7729,5,0,20,0,1,,,,,
,0.26,,,,,,,,,d,orange,5788cc99c9abeb0001af20a7,2021-09-27_17h23.59.018,forced_choiceRT_color,2021.2.3,Win32,60.06366749,,,,,,,,7,Fast,long,d,1,1.8171,5,1,21,0,1,,,,,
,0.63,,,,,,,,,j,red,5788cc99c9abeb0001af20a7,2021-09-27_17h23.59.018,forced_choiceRT_color,2021.2.3,Win32,60.06366749,,,,,,,,7,Slow,long,j,1,2.234,5,2,22,2,1,,,,,
,0.14,,,,,,,,,j,red,5788cc99c9abeb0001af20a7,2021-09-27_17h23.59.018,forced_choiceRT_color,2021.2.3,Win32,60.06366749,,,,,,,,7,Ontime,long,j,1,2.0172,5,3,23,2,1,,,,,
,1.34,,,,,,,,,d,orange,5788cc99c9abeb0001af20a7,2021-09-27_17h23.59.018,forced_choiceRT_color,2021.2.3,Win32,60.06366749,,,,,,,,7,Slow,long,d,1,2.1884,6,0,24,0,1,,,,,
,0.67,,,,,,,,,k,purple,5788cc99c9abeb0001af20a7,2021-09-27_17h23.59.018,forced_choiceRT_color,2021.2.3,Win32,60.06366749,,,,,,,,7,Ontime,long,k,1,1.9682,6,1,25,3,1,,,,,
,0.19,,,,,,,,,k,purple,5788cc99c9abeb0001af20a7,2021-09-27_17h23.59.018,forced_choiceRT_color,2021.2.3,Win32,60.06366749,,,,,,,,7,Fast,long,k,1,1.8507,6,2,26,3,1,,,,,
,0.79,,,,,,,,,k,purple,5788cc99c9abeb0001af20a7,2021-09-27_17h23.59.018,forced_choiceRT_color,2021.2.3,Win32,60.06366749,,,,,,,,7,Ontime,long,k,1,1.9698,6,3,27,3,1,,,,,
,1.79,,,,,,,,,k,purple,5788cc99c9abeb0001af20a7,2021-09-27_17h23.59.018,forced_choiceRT_color,2021.2.3,Win32,60.06366749,,,,,,,,7,Slow,long,k,1,2.1505,7,0,28,3,1,,,,,
,0.92,,,,,,,,,d,orange,5788cc99c9abeb0001af20a7,2021-09-27_17h23.59.018,forced_choiceRT_color,2021.2.3,Win32,60.06366749,,,,,,,,7,Ontime,long,d,1,2.0174,7,1,29,0,1,,,,,
,1.4,,,,,,,,,j,red,5788cc99c9abeb0001af20a7,2021-09-27_17h23.59.018,forced_choiceRT_color,2021.2.3,Win32,60.06366749,,,,,,,,7,Ontime,long,d,0,2.0171,7,2,30,2,1,,,,,
,1.17,,,,,,,,,j,red,5788cc99c9abeb0001af20a7,2021-09-27_17h23.59.018,forced_choiceRT_color,2021.2.3,Win32,60.06366749,,,,,,,,7,Fast,long,j,1,1.6519,7,3,31,2,1,,,,,
,0.86,,,,,,,,,f,blue,5788cc99c9abeb0001af20a7,2021-09-27_17h23.59.018,forced_choiceRT_color,2021.2.3,Win32,60.06366749,,,,,,,,7,Ontime,long,f,1,2.0339,8,0,32,1,1,,,,,
,1.74,,,,,,,,,j,red,5788cc99c9abeb0001af20a7,2021-09-27_17h23.59.018,forced_choiceRT_color,2021.2.3,Win32,60.06366749,,,,,,,,7,Slow,long,f,0,2.1835,8,1,33,2,1,,,,,
,0.59,,,,,,,,,k,purple,5788cc99c9abeb0001af20a7,2021-09-27_17h23.59.018,forced_choiceRT_color,2021.2.3,Win32,60.06366749,,,,,,,,7,Ontime,long,k,1,1.9838,8,2,34,3,1,,,,,
,0.46,,,,,,,,,f,blue,5788cc99c9abeb0001af20a7,2021-09-27_17h23.59.018,forced_choiceRT_color,2021.2.3,Win32,60.06366749,,,,,,,,7,Ontime,long,f,1,1.9504,8,3,35,1,1,,,,,
,1.94,,,,,,,,,d,orange,5788cc99c9abeb0001af20a7,2021-09-27_17h23.59.018,forced_choiceRT_color,2021.2.3,Win32,60.06366749,,,,,,,,7,Slow,long,d,1,2.2391,9,0,36,0,1,,,,,
,0.3,,,,,,,,,k,purple,5788cc99c9abeb0001af20a7,2021-09-27_17h23.59.018,forced_choiceRT_color,2021.2.3,Win32,60.06366749,,,,,,,,7,Ontime,long,k,1,1.9337,9,1,37,3,1,,,,,
,0.38,,,,,,,,,k,purple,5788cc99c9abeb0001af20a7,2021-09-27_17h23.59.018,forced_choiceRT_color,2021.2.3,Win32,60.06366749,,,,,,,,7,Ontime,long,k,1,2.0183,9,2,38,3,1,,,,,
,0.16,,,,,,,,,j,red,5788cc99c9abeb0001af20a7,2021-09-27_17h23.59.018,forced_choiceRT_color,2021.2.3,Win32,60.06366749,,,,,,,,7,Slow,long,j,1,2.1358,9,3,39,2,1,,,,,
,,,,,,,,,,,,5788cc99c9abeb0001af20a7,2021-09-27_17h23.59.018,forced_choiceRT_color,2021.2.3,Win32,60.06366749,,,,,,,,,,,,,,,,,,,6,0,6,0,1
,0.29,,,,,,,,,f,blue,5788cc99c9abeb0001af20a7,2021-09-27_17h23.59.018,forced_choiceRT_color,2021.2.3,Win32,60.06366749,,,,,,,,8,Slow,long,f,1,2.1004,0,0,0,1,1,,,,,
,0.7,,,,,,,,,f,blue,5788cc99c9abeb0001af20a7,2021-09-27_17h23.59.018,forced_choiceRT_color,2021.2.3,Win32,60.06366749,,,,,,,,8,Ontime,long,f,1,2.0347,0,1,1,1,1,,,,,
,1,,,,,,,,,d,orange,5788cc99c9abeb0001af20a7,2021-09-27_17h23.59.018,forced_choiceRT_color,2021.2.3,Win32,60.06366749,,,,,,,,8,Slow,long,d,1,2.1193,0,2,2,0,1,,,,,
,0.06,,,,,,,,,d,orange,5788cc99c9abeb0001af20a7,2021-09-27_17h23.59.018,forced_choiceRT_color,2021.2.3,Win32,60.06366749,,,,,,,,8,Fast,long,d,1,1.8535,0,3,3,0,1,,,,,
,1.63,,,,,,,,,j,red,5788cc99c9abeb0001af20a7,2021-09-27_17h23.59.018,forced_choiceRT_color,2021.2.3,Win32,60.06366749,,,,,,,,8,Ontime,long,d,0,1.9838,1,0,4,2,1,,,,,
,1.82,,,,,,,,,f,blue,5788cc99c9abeb0001af20a7,2021-09-27_17h23.59.018,forced_choiceRT_color,2021.2.3,Win32,60.06366749,,,,,,,,8,Slow,long,j,0,2.2671,1,1,5,1,1,,,,,
,0.02,,,,,,,,,d,orange,5788cc99c9abeb0001af20a7,2021-09-27_17h23.59.018,forced_choiceRT_color,2021.2.3,Win32,60.06366749,,,,,,,,8,Ontime,long,d,1,1.9024,1,2,6,0,1,,,,,
,1.23,,,,,,,,,d,orange,5788cc99c9abeb0001af20a7,2021-09-27_17h23.59.018,forced_choiceRT_color,2021.2.3,Win32,60.06366749,,,,,,,,8,Fast,long,d,1,1.7339,1,3,7,0,1,,,,,
,1.84,,,,,,,,,f,blue,5788cc99c9abeb0001af20a7,2021-09-27_17h23.59.018,forced_choiceRT_color,2021.2.3,Win32,60.06366749,,,,,,,,8,Slow,long,j,0,2.417,2,0,8,1,1,,,,,
,0.39,,,,,,,,,k,purple,5788cc99c9abeb0001af20a7,2021-09-27_17h23.59.018,forced_choiceRT_color,2021.2.3,Win32,60.06366749,,,,,,,,8,Slow,long,k,1,2.1051,2,1,9,3,1,,,,,
,0.19,,,,,,,,,k,purple,5788cc99c9abeb0001af20a7,2021-09-27_17h23.59.018,forced_choiceRT_color,2021.2.3,Win32,60.06366749,,,,,,,,8,Fast,long,k,1,1.8172,2,2,10,3,1,,,,,
,1.52,,,,,,,,,d,orange,5788cc99c9abeb0001af20a7,2021-09-27_17h23.59.018,forced_choiceRT_color,2021.2.3,Win32,60.06366749,,,,,,,,8,Slow,long,d,1,2.117,2,3,11,0,1,,,,,
,1.6,,,,,,,,,j,red,5788cc99c9abeb0001af20a7,2021-09-27_17h23.59.018,forced_choiceRT_color,2021.2.3,Win32,60.06366749,,,,,,,,8,Ontime,long,d,0,1.9504,3,0,12,2,1,,,,,
,1.33,,,,,,,,,j,red,5788cc99c9abeb0001af20a7,2021-09-27_17h23.59.018,forced_choiceRT_color,2021.2.3,Win32,60.06366749,,,,,,,,8,Fast,long,j,1,1.7224,3,1,13,2,1,,,,,
,0.3,,,,,,,,,k,purple,5788cc99c9abeb0001af20a7,2021-09-27_17h23.59.018,forced_choiceRT_color,2021.2.3,Win32,60.06366749,,,,,,,,8,Ontime,long,k,1,2.0562,3,2,14,3,1,,,,,
,1.35,,,,,,,,,k,purple,5788cc99c9abeb0001af20a7,2021-09-27_17h23.59.018,forced_choiceRT_color,2021.2.3,Win32,60.06366749,,,,,,,,8,Fast,long,k,1,1.7504,3,3,15,3,1,,,,,
,0.46,,,,,,,,,k,purple,5788cc99c9abeb0001af20a7,2021-09-27_17h23.59.018,forced_choiceRT_color,2021.2.3,Win32,60.06366749,,,,,,,,8,Slow,long,k,1,2.1669,4,0,16,3,1,,,,,
,0.93,,,,,,,,,f,blue,5788cc99c9abeb0001af20a7,2021-09-27_17h23.59.018,forced_choiceRT_color,2021.2.3,Win32,60.06366749,,,,,,,,8,Fast,long,f,1,1.8383,4,1,17,1,1,,,,,
,1.03,,,,,,,,,k,purple,5788cc99c9abeb0001af20a7,2021-09-27_17h23.59.018,forced_choiceRT_color,2021.2.3,Win32,60.06366749,,,,,,,,8,Ontime,long,k,1,1.967,4,2,18,3,1,,,,,
,0.92,,,,,,,,,k,purple,5788cc99c9abeb0001af20a7,2021-09-27_17h23.59.018,forced_choiceRT_color,2021.2.3,Win32,60.06366749,,,,,,,,8,Slow,long,k,1,2.1207,4,3,19,3,1,,,,,
,1.6,,,,,,,,,d,orange,5788cc99c9abeb0001af20a7,2021-09-27_17h23.59.018,forced_choiceRT_color,2021.2.3,Win32,60.06366749,,,,,,,,8,Slow,long,k,0,2.1504,5,0,20,0,1,,,,,
,0.82,,,,,,,,,j,red,5788cc99c9abeb0001af20a7,2021-09-27_17h23.59.018,forced_choiceRT_color,2021.2.3,Win32,60.06366749,,,,,,,,8,Ontime,long,j,1,1.9672,5,1,21,2,1,,,,,
,0.83,,,,,,,,,j,red,5788cc99c9abeb0001af20a7,2021-09-27_17h23.59.018,forced_choiceRT_color,2021.2.3,Win32,60.06366749,,,,,,,,8,Fast,long,j,1,1.8838,5,2,22,2,1,,,,,
,0.59,,,,,,,,,d,orange,5788cc99c9abeb0001af20a7,2021-09-27_17h23.59.018,forced_choiceRT_color,2021.2.3,Win32,60.06366749,,,,,,,,8,Ontime,long,d,1,1.9004,5,3,23,0,1,,,,,
,0.65,,,,,,,,,d,orange,5788cc99c9abeb0001af20a7,2021-09-27_17h23.59.018,forced_choiceRT_color,2021.2.3,Win32,60.06366749,,,,,,,,8,Ontime,long,d,1,2.0391,6,0,24,0,1,,,,,
,0.16,,,,,,,,,j,red,5788cc99c9abeb0001af20a7,2021-09-27_17h23.59.018,forced_choiceRT_color,2021.2.3,Win32,60.06366749,,,,,,,,8,Ontime,long,j,1,2.0171,6,1,25,2,1,,,,,
,1.35,,,,,,,,,d,orange,5788cc99c9abeb0001af20a7,2021-09-27_17h23.59.018,forced_choiceRT_color,2021.2.3,Win32,60.06366749,,,,,,,,8,Ontime,long,d,1,1.9336,6,2,26,0,1,,,,,
,1.71,,,,,,,,,f,blue,5788cc99c9abeb0001af20a7,2021-09-27_17h23.59.018,forced_choiceRT_color,2021.2.3,Win32,60.06366749,,,,,,,,8,Slow,long,f,1,2.1173,6,3,27,1,1,,,,,
,1.93,,,,,,,,,f,blue,5788cc99c9abeb0001af20a7,2021-09-27_17h23.59.018,forced_choiceRT_color,2021.2.3,Win32,60.06366749,,,,,,,,8,Slow,long,d,0,2.2361,7,0,28,1,1,,,,,
,0.64,,,,,,,,,f,blue,5788cc99c9abeb0001af20a7,2021-09-27_17h23.59.018,forced_choiceRT_color,2021.2.3,Win32,60.06366749,,,,,,,,8,Fast,long,f,1,1.1661,7,1,29,1,1,,,,,
,1.78,,,,,,,,,j,red,5788cc99c9abeb0001af20a7,2021-09-27_17h23.59.018,forced_choiceRT_color,2021.2.3,Win32,60.06366749,,,,,,,,8,Slow,long,j,1,2.3139,7,2,30,2,1,,,,,
,1.67,,,,,,,,,j,red,5788cc99c9abeb0001af20a7,2021-09-27_17h23.59.018,forced_choiceRT_color,2021.2.3,Win32,60.06366749,,,,,,,,8,Slow,long,j,1,2.6169,7,3,31,2,1,,,,,
,0.3,,,,,,,,,j,red,5788cc99c9abeb0001af20a7,2021-09-27_17h23.59.018,forced_choiceRT_color,2021.2.3,Win32,60.06366749,,,,,,,,8,Ontime,long,j,1,1.9875,8,0,32,2,1,,,,,
,1.8,,,,,,,,,k,purple,5788cc99c9abeb0001af20a7,2021-09-27_17h23.59.018,forced_choiceRT_color,2021.2.3,Win32,60.06366749,,,,,,,,8,Slow,long,j,0,2.1475,8,1,33,3,1,,,,,
,1.2,,,,,,,,,k,purple,5788cc99c9abeb0001af20a7,2021-09-27_17h23.59.018,forced_choiceRT_color,2021.2.3,Win32,60.06366749,,,,,,,,8,Fast,long,j,0,1.6011,8,2,34,3,1,,,,,
,0.96,,,,,,,,,f,blue,5788cc99c9abeb0001af20a7,2021-09-27_17h23.59.018,forced_choiceRT_color,2021.2.3,Win32,60.06366749,,,,,,,,8,Fast,long,f,1,1.6603,8,3,35,1,1,,,,,
,0.18,,,,,,,,,d,orange,5788cc99c9abeb0001af20a7,2021-09-27_17h23.59.018,forced_choiceRT_color,2021.2.3,Win32,60.06366749,,,,,,,,8,Fast,long,d,1,1.3412,9,0,36,0,1,,,,,
,1.35,,,,,,,,,f,blue,5788cc99c9abeb0001af20a7,2021-09-27_17h23.59.018,forced_choiceRT_color,2021.2.3,Win32,60.06366749,,,,,,,,8,Ontime,long,f,1,1.9467,9,1,37,1,1,,,,,
,0.6,,,,,,,,,j,red,5788cc99c9abeb0001af20a7,2021-09-27_17h23.59.018,forced_choiceRT_color,2021.2.3,Win32,60.06366749,,,,,,,,8,Ontime,long,j,1,2.0518,9,2,38,2,1,,,,,
,1.71,,,,,,,,,k,purple,5788cc99c9abeb0001af20a7,2021-09-27_17h23.59.018,forced_choiceRT_color,2021.2.3,Win32,60.06366749,,,,,,,,8,Slow,long,j,0,2.1612,9,3,39,3,1,,,,,
,,,,,,,,,,,,5788cc99c9abeb0001af20a7,2021-09-27_17h23.59.018,forced_choiceRT_color,2021.2.3,Win32,60.06366749,,,,,,,,,,,,,,,,,,,7,0,7,0,1
,0.24,,,,,,,,,j,red,5788cc99c9abeb0001af20a7,2021-09-27_17h23.59.018,forced_choiceRT_color,2021.2.3,Win32,60.06366749,,,,,,,,9,Fast,long,j,1,1.8115,0,0,0,2,1,,,,,
,0.77,,,,,,,,,j,red,5788cc99c9abeb0001af20a7,2021-09-27_17h23.59.018,forced_choiceRT_color,2021.2.3,Win32,60.06366749,,,,,,,,9,Ontime,long,j,1,2.0922,0,1,1,2,1,,,,,
,1.04,,,,,,,,,j,red,5788cc99c9abeb0001af20a7,2021-09-27_17h23.59.018,forced_choiceRT_color,2021.2.3,Win32,60.06366749,,,,,,,,9,Ontime,long,j,1,1.9596,0,2,2,2,1,,,,,
,0.92,,,,,,,,,k,purple,5788cc99c9abeb0001af20a7,2021-09-27_17h23.59.018,forced_choiceRT_color,2021.2.3,Win32,60.06366749,,,,,,,,9,Fast,long,k,1,1.8082,0,3,3,3,1,,,,,
,0.7,,,,,,,,,d,orange,5788cc99c9abeb0001af20a7,2021-09-27_17h23.59.018,forced_choiceRT_color,2021.2.3,Win32,60.06366749,,,,,,,,9,Fast,long,d,1,1.731,1,0,4,0,1,,,,,
,0.25,,,,,,,,,d,orange,5788cc99c9abeb0001af20a7,2021-09-27_17h23.59.018,forced_choiceRT_color,2021.2.3,Win32,60.06366749,,,,,,,,9,Ontime,long,d,1,2.0093,1,1,5,0,1,,,,,
,0.7,,,,,,,,,f,blue,5788cc99c9abeb0001af20a7,2021-09-27_17h23.59.018,forced_choiceRT_color,2021.2.3,Win32,60.06366749,,,,,,,,9,Slow,long,f,1,2.1117,1,2,6,1,1,,,,,
,1.45,,,,,,,,,k,purple,5788cc99c9abeb0001af20a7,2021-09-27_17h23.59.018,forced_choiceRT_color,2021.2.3,Win32,60.06366749,,,,,,,,9,Ontime,long,k,1,1.9983,1,3,7,3,1,,,,,
,0.9,,,,,,,,,k,purple,5788cc99c9abeb0001af20a7,2021-09-27_17h23.59.018,forced_choiceRT_color,2021.2.3,Win32,60.06366749,,,,,,,,9,Fast,long,k,1,1.8541,2,0,8,3,1,,,,,
,1.98,,,,,,,,,f,blue,5788cc99c9abeb0001af20a7,2021-09-27_17h23.59.018,forced_choiceRT_color,2021.2.3,Win32,60.06366749,,,,,,,,9,Slow,long,k,0,2.4553,2,1,9,1,1,,,,,
,1.74,,,,,,,,,k,purple,5788cc99c9abeb0001af20a7,2021-09-27_17h23.59.018,forced_choiceRT_color,2021.2.3,Win32,60.06366749,,,,,,,,9,Slow,long,k,1,2.3607,2,2,10,3,1,,,,,
,0.25,,,,,,,,,k,purple,5788cc99c9abeb0001af20a7,2021-09-27_17h23.59.018,forced_choiceRT_color,2021.2.3,Win32,60.06366749,,,,,,,,9,Fast,long,k,1,1.8377,2,3,11,3,1,,,,,
,1.64,,,,,,,,,d,orange,5788cc99c9abeb0001af20a7,2021-09-27_17h23.59.018,forced_choiceRT_color,2021.2.3,Win32,60.06366749,,,,,,,,9,Ontime,long,j,0,2.0716,3,0,12,0,1,,,,,
,0.31,,,,,,,,,j,red,5788cc99c9abeb0001af20a7,2021-09-27_17h23.59.018,forced_choiceRT_color,2021.2.3,Win32,60.06366749,,,,,,,,9,Ontime,long,j,1,2.0445,3,1,13,2,1,,,,,
,0.78,,,,,,,,,d,orange,5788cc99c9abeb0001af20a7,2021-09-27_17h23.59.018,forced_choiceRT_color,2021.2.3,Win32,60.06366749,,,,,,,,9,Ontime,long,d,1,2.0818,3,2,14,0,1,,,,,
,0.55,,,,,,,,,j,red,5788cc99c9abeb0001af20a7,2021-09-27_17h23.59.018,forced_choiceRT_color,2021.2.3,Win32,60.06366749,,,,,,,,9,Slow,long,j,1,2.1417,3,3,15,2,1,,,,,
,1.1,,,,,,,,,f,blue,5788cc99c9abeb0001af20a7,2021-09-27_17h23.59.018,forced_choiceRT_color,2021.2.3,Win32,60.06366749,,,,,,,,9,Ontime,long,j,0,1.9393,4,0,16,1,1,,,,,
,1.48,,,,,,,,,j,red,5788cc99c9abeb0001af20a7,2021-09-27_17h23.59.018,forced_choiceRT_color,2021.2.3,Win32,60.06366749,,,,,,,,9,Slow,long,j,1,2.1653,4,1,17,2,1,,,,,
,0.71,,,,,,,,,f,blue,5788cc99c9abeb0001af20a7,2021-09-27_17h23.59.018,forced_choiceRT_color,2021.2.3,Win32,60.06366749,,,,,,,,9,Ontime,long,f,1,1.9699,4,2,18,1,1,,,,,
,0.69,,,,,,,,,f,blue,5788cc99c9abeb0001af20a7,2021-09-27_17h23.59.018,forced_choiceRT_color,2021.2.3,Win32,60.06366749,,,,,,,,9,Slow,long,f,1,2.1246,4,3,19,1,1,,,,,
,1.2,,,,,,,,,d,orange,5788cc99c9abeb0001af20a7,2021-09-27_17h23.59.018,forced_choiceRT_color,2021.2.3,Win32,60.06366749,,,,,,,,9,Ontime,long,j,0,1.9048,5,0,20,0,1,,,,,
,0.3,,,,,,,,,f,blue,5788cc99c9abeb0001af20a7,2021-09-27_17h23.59.018,forced_choiceRT_color,2021.2.3,Win32,60.06366749,,,,,,,,9,Fast,long,f,1,1.7881,5,1,21,1,1,,,,,
,0.41,,,,,,,,,k,purple,5788cc99c9abeb0001af20a7,2021-09-27_17h23.59.018,forced_choiceRT_color,2021.2.3,Win32,60.06366749,,,,,,,,9,Ontime,long,k,1,2.0725,5,2,22,3,1,,,,,
,1.26,,,,,,,,,f,blue,5788cc99c9abeb0001af20a7,2021-09-27_17h23.59.018,forced_choiceRT_color,2021.2.3,Win32,60.06366749,,,,,,,,9,Ontime,long,f,1,1.9493,5,3,23,1,1,,,,,
,0.33,,,,,,,,,f,blue,5788cc99c9abeb0001af20a7,2021-09-27_17h23.59.018,forced_choiceRT_color,2021.2.3,Win32,60.06366749,,,,,,,,9,Ontime,long,f,1,2.0864,6,0,24,1,1,,,,,
,0.77,,,,,,,,,k,purple,5788cc99c9abeb0001af20a7,2021-09-27_17h23.59.018,forced_choiceRT_color,2021.2.3,Win32,60.06366749,,,,,,,,9,Ontime,long,k,1,1.9866,6,1,25,3,1,,,,,
,1.19,,,,,,,,,d,orange,5788cc99c9abeb0001af20a7,2021-09-27_17h23.59.018,forced_choiceRT_color,2021.2.3,Win32,60.06366749,,,,,,,,9,Slow,long,d,1,2.2188,6,2,26,0,1,,,,,
,1,,,,,,,,,d,orange,5788cc99c9abeb0001af20a7,2021-09-27_17h23.59.018,forced_choiceRT_color,2021.2.3,Win32,60.06366749,,,,,,,,9,Fast,long,d,1,1.8341,6,3,27,0,1,,,,,
,0.45,,,,,,,,,j,red,5788cc99c9abeb0001af20a7,2021-09-27_17h23.59.018,forced_choiceRT_color,2021.2.3,Win32,60.06366749,,,,,,,,9,Ontime,long,j,1,2.0339,7,0,28,2,1,,,,,
,1.01,,,,,,,,,f,blue,5788cc99c9abeb0001af20a7,2021-09-27_17h23.59.018,forced_choiceRT_color,2021.2.3,Win32,60.06366749,,,,,,,,9,Ontime,long,f,1,2.0005,7,1,29,1,1,,,,,
,0.29,,,,,,,,,k,purple,5788cc99c9abeb0001af20a7,2021-09-27_17h23.59.018,forced_choiceRT_color,2021.2.3,Win32,60.06366749,,,,,,,,9,Slow,long,k,1,2.2688,7,2,30,3,1,,,,,
,0.79,,,,,,,,,k,purple,5788cc99c9abeb0001af20a7,2021-09-27_17h23.59.018,forced_choiceRT_color,2021.2.3,Win32,60.06366749,,,,,,,,9,Fast,long,k,1,1.8294,7,3,31,3,1,,,,,
,1.24,,,,,,,,,f,blue,5788cc99c9abeb0001af20a7,2021-09-27_17h23.59.018,forced_choiceRT_color,2021.2.3,Win32,60.06366749,,,,,,,,9,Ontime,long,f,1,2.0637,8,0,32,1,1,,,,,
,0.72,,,,,,,,,d,orange,5788cc99c9abeb0001af20a7,2021-09-27_17h23.59.018,forced_choiceRT_color,2021.2.3,Win32,60.06366749,,,,,,,,9,Fast,long,d,1,1.8443,8,1,33,0,1,,,,,
,1.15,,,,,,,,,j,red,5788cc99c9abeb0001af20a7,2021-09-27_17h23.59.018,forced_choiceRT_color,2021.2.3,Win32,60.06366749,,,,,,,,9,Fast,long,j,1,1.8537,8,2,34,2,1,,,,,
,1.63,,,,,,,,,k,purple,5788cc99c9abeb0001af20a7,2021-09-27_17h23.59.018,forced_choiceRT_color,2021.2.3,Win32,60.06366749,,,,,,,,9,Slow,long,k,1,2.2081,8,3,35,3,1,,,,,
,1.82,,,,,,,,,j,red,5788cc99c9abeb0001af20a7,2021-09-27_17h23.59.018,forced_choiceRT_color,2021.2.3,Win32,60.06366749,,,,,,,,9,Slow,long,j,1,2.4978,9,0,36,2,1,,,,,
,1.89,,,,,,,,,j,red,5788cc99c9abeb0001af20a7,2021-09-27_17h23.59.018,forced_choiceRT_color,2021.2.3,Win32,60.06366749,,,,,,,,9,Slow,long,j,1,2.2415,9,1,37,2,1,,,,,
,1.59,,,,,,,,,d,orange,5788cc99c9abeb0001af20a7,2021-09-27_17h23.59.018,forced_choiceRT_color,2021.2.3,Win32,60.06366749,,,,,,,,9,Ontime,long,k,0,1.9468,9,2,38,0,1,,,,,
,1.65,,,,,,,,,d,orange,5788cc99c9abeb0001af20a7,2021-09-27_17h23.59.018,forced_choiceRT_color,2021.2.3,Win32,60.06366749,,,,,,,,9,Slow,long,d,1,2.1002,9,3,39,0,1,,,,,
,,,,,,,,,,,,5788cc99c9abeb0001af20a7,2021-09-27_17h23.59.018,forced_choiceRT_color,2021.2.3,Win32,60.06366749,,,,,,,,,,,,,,,,,,,8,0,8,0,1
,1.09,,,,,,,,,f,blue,5788cc99c9abeb0001af20a7,2021-09-27_17h23.59.018,forced_choiceRT_color,2021.2.3,Win32,60.06366749,,,,,,,,10,Fast,long,d,0,1.6641,0,0,0,1,1,,,,,
,0.44,,,,,,,,,j,red,5788cc99c9abeb0001af20a7,2021-09-27_17h23.59.018,forced_choiceRT_color,2021.2.3,Win32,60.06366749,,,,,,,,10,Ontime,long,j,1,1.971,0,1,1,2,1,,,,,
,1.24,,,,,,,,,f,blue,5788cc99c9abeb0001af20a7,2021-09-27_17h23.59.018,forced_choiceRT_color,2021.2.3,Win32,60.06366749,,,,,,,,10,Slow,long,f,1,2.1496,0,2,2,1,1,,,,,
,0.73,,,,,,,,,d,orange,5788cc99c9abeb0001af20a7,2021-09-27_17h23.59.018,forced_choiceRT_color,2021.2.3,Win32,60.06366749,,,,,,,,10,Ontime,long,d,1,1.9006,0,3,3,0,1,,,,,
,0.75,,,,,,,,,f,blue,5788cc99c9abeb0001af20a7,2021-09-27_17h23.59.018,forced_choiceRT_color,2021.2.3,Win32,60.06366749,,,,,,,,10,Fast,long,f,1,1.8172,1,0,4,1,1,,,,,
,0.07,,,,,,,,,f,blue,5788cc99c9abeb0001af20a7,2021-09-27_17h23.59.018,forced_choiceRT_color,2021.2.3,Win32,60.06366749,,,,,,,,10,Ontime,long,f,1,2.0174,1,1,5,1,1,,,,,
,1.5,,,,,,,,,j,red,5788cc99c9abeb0001af20a7,2021-09-27_17h23.59.018,forced_choiceRT_color,2021.2.3,Win32,60.06366749,,,,,,,,10,Fast,long,j,1,1.8687,1,2,6,2,1,,,,,
,1.74,,,,,,,,,k,purple,5788cc99c9abeb0001af20a7,2021-09-27_17h23.59.018,forced_choiceRT_color,2021.2.3,Win32,60.06366749,,,,,,,,10,Slow,long,k,1,2.317,1,3,7,3,1,,,,,
,1.31,,,,,,,,,f,blue,5788cc99c9abeb0001af20a7,2021-09-27_17h23.59.018,forced_choiceRT_color,2021.2.3,Win32,60.06366749,,,,,,,,10,Slow,long,f,1,2.1002,2,0,8,1,1,,,,,
,0.65,,,,,,,,,j,red,5788cc99c9abeb0001af20a7,2021-09-27_17h23.59.018,forced_choiceRT_color,2021.2.3,Win32,60.06366749,,,,,,,,10,Fast,long,j,1,1.7548,2,1,9,2,1,,,,,
,0.87,,,,,,,,,j,red,5788cc99c9abeb0001af20a7,2021-09-27_17h23.59.018,forced_choiceRT_color,2021.2.3,Win32,60.06366749,,,,,,,,10,Fast,long,j,1,1.8672,2,2,10,2,1,,,,,
,0.78,,,,,,,,,d,orange,5788cc99c9abeb0001af20a7,2021-09-27_17h23.59.018,forced_choiceRT_color,2021.2.3,Win32,60.06366749,,,,,,,,10,Fast,long,d,1,1.7671,2,3,11,0,1,,,,,
,0.41,,,,,,,,,j,red,5788cc99c9abeb0001af20a7,2021-09-27_17h23.59.018,forced_choiceRT_color,2021.2.3,Win32,60.06366749,,,,,,,,10,Slow,long,j,1,2.1506,3,0,12,2,1,,,,,
,0.97,,,,,,,,,d,orange,5788cc99c9abeb0001af20a7,2021-09-27_17h23.59.018,forced_choiceRT_color,2021.2.3,Win32,60.06366749,,,,,,,,10,Slow,long,d,1,2.2336,3,1,13,0,1,,,,,
,1.47,,,,,,,,,k,purple,5788cc99c9abeb0001af20a7,2021-09-27_17h23.59.018,forced_choiceRT_color,2021.2.3,Win32,60.06366749,,,,,,,,10,Slow,long,k,1,2.1505,3,2,14,3,1,,,,,
,0.86,,,,,,,,,d,orange,5788cc99c9abeb0001af20a7,2021-09-27_17h23.59.018,forced_choiceRT_color,2021.2.3,Win32,60.06366749,,,,,,,,10,Fast,long,d,1,1.672,3,3,15,0,1,,,,,
,0.08,,,,,,,,,d,orange,5788cc99c9abeb0001af20a7,2021-09-27_17h23.59.018,forced_choiceRT_color,2021.2.3,Win32,60.06366749,,,,,,,,10,Ontime,long,d,1,1.9673,4,0,16,0,1,,,,,
,0.02,,,,,,,,,f,blue,5788cc99c9abeb0001af20a7,2021-09-27_17h23.59.018,forced_choiceRT_color,2021.2.3,Win32,60.06366749,,,,,,,,10,Fast,long,f,1,1.7674,4,1,17,1,1,,,,,
,1.65,,,,,,,,,k,purple,5788cc99c9abeb0001af20a7,2021-09-27_17h23.59.018,forced_choiceRT_color,2021.2.3,Win32,60.06366749,,,,,,,,10,Slow,long,k,1,2.3005,4,2,18,3,1,,,,,
,1.76,,,,,,,,,k,purple,5788cc99c9abeb0001af20a7,2021-09-27_17h23.59.018,forced_choiceRT_color,2021.2.3,Win32,60.06366749,,,,,,,,10,Slow,long,k,1,2.2504,4,3,19,3,1,,,,,
,1.62,,,,,,,,,d,orange,5788cc99c9abeb0001af20a7,2021-09-27_17h23.59.018,forced_choiceRT_color,2021.2.3,Win32,60.06366749,,,,,,,,10,Ontime,long,d,1,1.9671,5,0,20,0,1,,,,,
,1.42,,,,,,,,,f,blue,5788cc99c9abeb0001af20a7,2021-09-27_17h23.59.018,forced_choiceRT_color,2021.2.3,Win32,60.06366749,,,,,,,,10,Fast,long,f,1,1.8338,5,1,21,1,1,,,,,
,1.81,,,,,,,,,k,purple,5788cc99c9abeb0001af20a7,2021-09-27_17h23.59.018,forced_choiceRT_color,2021.2.3,Win32,60.06366749,,,,,,,,10,Slow,long,j,0,2.2004,5,2,22,3,1,,,,,
,1.39,,,,,,,,,d,orange,5788cc99c9abeb0001af20a7,2021-09-27_17h23.59.018,forced_choiceRT_color,2021.2.3,Win32,60.06366749,,,,,,,,10,Fast,long,d,1,1.7372,5,3,23,0,1,,,,,
,0.76,,,,,,,,,k,purple,5788cc99c9abeb0001af20a7,2021-09-27_17h23.59.018,forced_choiceRT_color,2021.2.3,Win32,60.06366749,,,,,,,,10,Ontime,long,k,1,1.9176,6,0,24,3,1,,,,,
,0.37,,,,,,,,,k,purple,5788cc99c9abeb0001af20a7,2021-09-27_17h23.59.018,forced_choiceRT_color,2021.2.3,Win32,60.06366749,,,,,,,,10,Ontime,long,k,1,1.9848,6,1,25,3,1,,,,,
,1.64,,,,,,,,,k,purple,5788cc99c9abeb0001af20a7,2021-09-27_17h23.59.018,forced_choiceRT_color,2021.2.3,Win32,60.06366749,,,,,,,,10,Ontime,long,k,1,2.0174,6,2,26,3,1,,,,,
,1.71,,,,,,,,,k,purple,5788cc99c9abeb0001af20a7,2021-09-27_17h23.59.018,forced_choiceRT_color,2021.2.3,Win32,60.06366749,,,,,,,,10,Slow,long,j,0,2.2003,6,3,27,3,1,,,,,
,0.54,,,,,,,,,d,orange,5788cc99c9abeb0001af20a7,2021-09-27_17h23.59.018,forced_choiceRT_color,2021.2.3,Win32,60.06366749,,,,,,,,10,Ontime,long,d,1,2.0171,7,0,28,0,1,,,,,
,0.89,,,,,,,,,j,red,5788cc99c9abeb0001af20a7,2021-09-27_17h23.59.018,forced_choiceRT_color,2021.2.3,Win32,60.06366749,,,,,,,,10,Ontime,long,j,1,2.0011,7,1,29,2,1,,,,,
,0,,,,,,,,,d,orange,5788cc99c9abeb0001af20a7,2021-09-27_17h23.59.018,forced_choiceRT_color,2021.2.3,Win32,60.06366749,,,,,,,,10,Slow,long,d,1,2.1198,7,2,30,0,1,,,,,
,1.32,,,,,,,,,j,red,5788cc99c9abeb0001af20a7,2021-09-27_17h23.59.018,forced_choiceRT_color,2021.2.3,Win32,60.06366749,,,,,,,,10,Fast,long,j,1,1.8503,7,3,31,2,1,,,,,
,0.22,,,,,,,,,f,blue,5788cc99c9abeb0001af20a7,2021-09-27_17h23.59.018,forced_choiceRT_color,2021.2.3,Win32,60.06366749,,,,,,,,10,Ontime,long,f,1,1.9836,8,0,32,1,1,,,,,
,0.77,,,,,,,,,j,red,5788cc99c9abeb0001af20a7,2021-09-27_17h23.59.018,forced_choiceRT_color,2021.2.3,Win32,60.06366749,,,,,,,,10,Ontime,long,j,1,2.0699,8,1,33,2,1,,,,,
,1.13,,,,,,,,,k,purple,5788cc99c9abeb0001af20a7,2021-09-27_17h23.59.018,forced_choiceRT_color,2021.2.3,Win32,60.06366749,,,,,,,,10,Slow,long,k,1,2.1004,8,2,34,3,1,,,,,
,1.31,,,,,,,,,j,red,5788cc99c9abeb0001af20a7,2021-09-27_17h23.59.018,forced_choiceRT_color,2021.2.3,Win32,60.06366749,,,,,,,,10,Ontime,long,j,1,1.9339,8,3,35,2,1,,,,,
,1.43,,,,,,,,,j,red,5788cc99c9abeb0001af20a7,2021-09-27_17h23.59.018,forced_choiceRT_color,2021.2.3,Win32,60.06366749,,,,,,,,10,Fast,long,j,1,1.8508,9,0,36,2,1,,,,,
,1.27,,,,,,,,,f,blue,5788cc99c9abeb0001af20a7,2021-09-27_17h23.59.018,forced_choiceRT_color,2021.2.3,Win32,60.06366749,,,,,,,,10,Slow,long,f,1,2.1004,9,1,37,1,1,,,,,
,1.31,,,,,,,,,f,blue,5788cc99c9abeb0001af20a7,2021-09-27_17h23.59.018,forced_choiceRT_color,2021.2.3,Win32,60.06366749,,,,,,,,10,Ontime,long,f,1,1.9384,9,2,38,1,1,,,,,
,1.11,,,,,,,,,d,orange,5788cc99c9abeb0001af20a7,2021-09-27_17h23.59.018,forced_choiceRT_color,2021.2.3,Win32,60.06366749,,,,,,,,10,Fast,long,d,1,1.7671,9,3,39,0,1,,,,,
,,,,,,,,,,,,5788cc99c9abeb0001af20a7,2021-09-27_17h23.59.018,forced_choiceRT_color,2021.2.3,Win32,60.06366749,,,,,,,,,,,,,,,,,,,9,0,9,0,1
