target_onset,trial_resp_sp.keys,trial_resp_sp.corr,trial_resp_sp.rt,trials_train_loop.thisRepN,trials_train_loop.thisTrialN,trials_train_loop.thisN,trials_train_loop.thisIndex,trials_train_loop.ran,correct_key,color,participant,date,expName,psychopyVersion,OS,frameRate,trial_resp_timing.keys,trial_resp_timing.rt,trials_train_timing.thisRepN,trials_train_timing.thisTrialN,trials_train_timing.thisN,trials_train_timing.thisIndex,trials_train_timing.ran,block_id,ontime,feedback_cond,forcedRT_resp.keys,forcedRT_resp.corr,forcedRT_resp.rt,trials.thisRepN,trials.thisTrialN,trials.thisN,trials.thisIndex,trials.ran,blocks.thisRepN,blocks.thisTrialN,blocks.thisN,blocks.thisIndex,blocks.ran
0,f,1,1.2415,0,0,0,1,1,f,blue,57bdccc4761a3a0001a7d098,2021-09-28_12h51.49.044,forced_choiceRT_color,2021.2.3,Win32,59.93766483,,,,,,,,,,,,,,,,,,,,,,,
0,d,1,0.9039,0,1,1,0,1,d,orange,57bdccc4761a3a0001a7d098,2021-09-28_12h51.49.044,forced_choiceRT_color,2021.2.3,Win32,59.93766483,,,,,,,,,,,,,,,,,,,,,,,
0,d,1,1.069,0,2,2,0,1,d,orange,57bdccc4761a3a0001a7d098,2021-09-28_12h51.49.044,forced_choiceRT_color,2021.2.3,Win32,59.93766483,,,,,,,,,,,,,,,,,,,,,,,
0,j,1,0.7563,0,3,3,2,1,j,red,57bdccc4761a3a0001a7d098,2021-09-28_12h51.49.044,forced_choiceRT_color,2021.2.3,Win32,59.93766483,,,,,,,,,,,,,,,,,,,,,,,
0,d,1,0.8944,1,0,4,0,1,d,orange,57bdccc4761a3a0001a7d098,2021-09-28_12h51.49.044,forced_choiceRT_color,2021.2.3,Win32,59.93766483,,,,,,,,,,,,,,,,,,,,,,,
0,d,1,0.6843,1,1,5,0,1,d,orange,57bdccc4761a3a0001a7d098,2021-09-28_12h51.49.044,forced_choiceRT_color,2021.2.3,Win32,59.93766483,,,,,,,,,,,,,,,,,,,,,,,
0,d,1,0.6186,1,2,6,0,1,d,orange,57bdccc4761a3a0001a7d098,2021-09-28_12h51.49.044,forced_choiceRT_color,2021.2.3,Win32,59.93766483,,,,,,,,,,,,,,,,,,,,,,,
0,f,1,0.643,1,3,7,1,1,f,blue,57bdccc4761a3a0001a7d098,2021-09-28_12h51.49.044,forced_choiceRT_color,2021.2.3,Win32,59.93766483,,,,,,,,,,,,,,,,,,,,,,,
0,j,1,0.8125,2,0,8,2,1,j,red,57bdccc4761a3a0001a7d098,2021-09-28_12h51.49.044,forced_choiceRT_color,2021.2.3,Win32,59.93766483,,,,,,,,,,,,,,,,,,,,,,,
0,f,1,0.8032,2,1,9,1,1,f,blue,57bdccc4761a3a0001a7d098,2021-09-28_12h51.49.044,forced_choiceRT_color,2021.2.3,Win32,59.93766483,,,,,,,,,,,,,,,,,,,,,,,
0,k,1,0.6498,2,2,10,3,1,k,purple,57bdccc4761a3a0001a7d098,2021-09-28_12h51.49.044,forced_choiceRT_color,2021.2.3,Win32,59.93766483,,,,,,,,,,,,,,,,,,,,,,,
0,d,1,0.9557,2,3,11,0,1,d,orange,57bdccc4761a3a0001a7d098,2021-09-28_12h51.49.044,forced_choiceRT_color,2021.2.3,Win32,59.93766483,,,,,,,,,,,,,,,,,,,,,,,
0,k,1,0.8025,3,0,12,3,1,k,purple,57bdccc4761a3a0001a7d098,2021-09-28_12h51.49.044,forced_choiceRT_color,2021.2.3,Win32,59.93766483,,,,,,,,,,,,,,,,,,,,,,,
0,f,1,0.9308,3,1,13,1,1,f,blue,57bdccc4761a3a0001a7d098,2021-09-28_12h51.49.044,forced_choiceRT_color,2021.2.3,Win32,59.93766483,,,,,,,,,,,,,,,,,,,,,,,
0,d,1,0.7009,3,2,14,0,1,d,orange,57bdccc4761a3a0001a7d098,2021-09-28_12h51.49.044,forced_choiceRT_color,2021.2.3,Win32,59.93766483,,,,,,,,,,,,,,,,,,,,,,,
0,k,1,1.1188,3,3,15,3,1,k,purple,57bdccc4761a3a0001a7d098,2021-09-28_12h51.49.044,forced_choiceRT_color,2021.2.3,Win32,59.93766483,,,,,,,,,,,,,,,,,,,,,,,
0,f,1,0.6853,4,0,16,1,1,f,blue,57bdccc4761a3a0001a7d098,2021-09-28_12h51.49.044,forced_choiceRT_color,2021.2.3,Win32,59.93766483,,,,,,,,,,,,,,,,,,,,,,,
0,k,1,0.7606,4,1,17,3,1,k,purple,57bdccc4761a3a0001a7d098,2021-09-28_12h51.49.044,forced_choiceRT_color,2021.2.3,Win32,59.93766483,,,,,,,,,,,,,,,,,,,,,,,
0,d,1,0.8154,4,2,18,0,1,d,orange,57bdccc4761a3a0001a7d098,2021-09-28_12h51.49.044,forced_choiceRT_color,2021.2.3,Win32,59.93766483,,,,,,,,,,,,,,,,,,,,,,,
0,k,1,0.7161,4,3,19,3,1,k,purple,57bdccc4761a3a0001a7d098,2021-09-28_12h51.49.044,forced_choiceRT_color,2021.2.3,Win32,59.93766483,,,,,,,,,,,,,,,,,,,,,,,
0,j,1,0.7913,5,0,20,2,1,j,red,57bdccc4761a3a0001a7d098,2021-09-28_12h51.49.044,forced_choiceRT_color,2021.2.3,Win32,59.93766483,,,,,,,,,,,,,,,,,,,,,,,
0,d,1,0.7665,5,1,21,0,1,d,orange,57bdccc4761a3a0001a7d098,2021-09-28_12h51.49.044,forced_choiceRT_color,2021.2.3,Win32,59.93766483,,,,,,,,,,,,,,,,,,,,,,,
0,k,1,0.7199,5,2,22,3,1,k,purple,57bdccc4761a3a0001a7d098,2021-09-28_12h51.49.044,forced_choiceRT_color,2021.2.3,Win32,59.93766483,,,,,,,,,,,,,,,,,,,,,,,
0,k,1,0.7248,5,3,23,3,1,k,purple,57bdccc4761a3a0001a7d098,2021-09-28_12h51.49.044,forced_choiceRT_color,2021.2.3,Win32,59.93766483,,,,,,,,,,,,,,,,,,,,,,,
0,j,1,1.3553,6,0,24,2,1,j,red,57bdccc4761a3a0001a7d098,2021-09-28_12h51.49.044,forced_choiceRT_color,2021.2.3,Win32,59.93766483,,,,,,,,,,,,,,,,,,,,,,,
0,j,1,0.6185,6,1,25,2,1,j,red,57bdccc4761a3a0001a7d098,2021-09-28_12h51.49.044,forced_choiceRT_color,2021.2.3,Win32,59.93766483,,,,,,,,,,,,,,,,,,,,,,,
0,k,1,0.6641,6,2,26,3,1,k,purple,57bdccc4761a3a0001a7d098,2021-09-28_12h51.49.044,forced_choiceRT_color,2021.2.3,Win32,59.93766483,,,,,,,,,,,,,,,,,,,,,,,
0,k,1,0.6584,6,3,27,3,1,k,purple,57bdccc4761a3a0001a7d098,2021-09-28_12h51.49.044,forced_choiceRT_color,2021.2.3,Win32,59.93766483,,,,,,,,,,,,,,,,,,,,,,,
0,f,1,0.8732,7,0,28,1,1,f,blue,57bdccc4761a3a0001a7d098,2021-09-28_12h51.49.044,forced_choiceRT_color,2021.2.3,Win32,59.93766483,,,,,,,,,,,,,,,,,,,,,,,
0,f,1,0.7097,7,1,29,1,1,f,blue,57bdccc4761a3a0001a7d098,2021-09-28_12h51.49.044,forced_choiceRT_color,2021.2.3,Win32,59.93766483,,,,,,,,,,,,,,,,,,,,,,,
0,j,1,0.8423,7,2,30,2,1,j,red,57bdccc4761a3a0001a7d098,2021-09-28_12h51.49.044,forced_choiceRT_color,2021.2.3,Win32,59.93766483,,,,,,,,,,,,,,,,,,,,,,,
0,j,1,0.5673,7,3,31,2,1,j,red,57bdccc4761a3a0001a7d098,2021-09-28_12h51.49.044,forced_choiceRT_color,2021.2.3,Win32,59.93766483,,,,,,,,,,,,,,,,,,,,,,,
0,d,1,0.6374,8,0,32,0,1,d,orange,57bdccc4761a3a0001a7d098,2021-09-28_12h51.49.044,forced_choiceRT_color,2021.2.3,Win32,59.93766483,,,,,,,,,,,,,,,,,,,,,,,
0,j,1,0.6851,8,1,33,2,1,j,red,57bdccc4761a3a0001a7d098,2021-09-28_12h51.49.044,forced_choiceRT_color,2021.2.3,Win32,59.93766483,,,,,,,,,,,,,,,,,,,,,,,
0,k,1,0.559,8,2,34,3,1,k,purple,57bdccc4761a3a0001a7d098,2021-09-28_12h51.49.044,forced_choiceRT_color,2021.2.3,Win32,59.93766483,,,,,,,,,,,,,,,,,,,,,,,
0,k,1,0.738,8,3,35,3,1,k,purple,57bdccc4761a3a0001a7d098,2021-09-28_12h51.49.044,forced_choiceRT_color,2021.2.3,Win32,59.93766483,,,,,,,,,,,,,,,,,,,,,,,
0,d,1,0.6923,9,0,36,0,1,d,orange,57bdccc4761a3a0001a7d098,2021-09-28_12h51.49.044,forced_choiceRT_color,2021.2.3,Win32,59.93766483,,,,,,,,,,,,,,,,,,,,,,,
0,j,1,0.7219,9,1,37,2,1,j,red,57bdccc4761a3a0001a7d098,2021-09-28_12h51.49.044,forced_choiceRT_color,2021.2.3,Win32,59.93766483,,,,,,,,,,,,,,,,,,,,,,,
0,f,1,0.7498,9,2,38,1,1,f,blue,57bdccc4761a3a0001a7d098,2021-09-28_12h51.49.044,forced_choiceRT_color,2021.2.3,Win32,59.93766483,,,,,,,,,,,,,,,,,,,,,,,
0,k,1,0.5505,9,3,39,3,1,k,purple,57bdccc4761a3a0001a7d098,2021-09-28_12h51.49.044,forced_choiceRT_color,2021.2.3,Win32,59.93766483,,,,,,,,,,,,,,,,,,,,,,,
0,k,1,0.5706,10,0,40,3,1,k,purple,57bdccc4761a3a0001a7d098,2021-09-28_12h51.49.044,forced_choiceRT_color,2021.2.3,Win32,59.93766483,,,,,,,,,,,,,,,,,,,,,,,
0,d,1,0.7692,10,1,41,0,1,d,orange,57bdccc4761a3a0001a7d098,2021-09-28_12h51.49.044,forced_choiceRT_color,2021.2.3,Win32,59.93766483,,,,,,,,,,,,,,,,,,,,,,,
0,k,1,0.657,10,2,42,3,1,k,purple,57bdccc4761a3a0001a7d098,2021-09-28_12h51.49.044,forced_choiceRT_color,2021.2.3,Win32,59.93766483,,,,,,,,,,,,,,,,,,,,,,,
0,j,1,0.6689,10,3,43,2,1,j,red,57bdccc4761a3a0001a7d098,2021-09-28_12h51.49.044,forced_choiceRT_color,2021.2.3,Win32,59.93766483,,,,,,,,,,,,,,,,,,,,,,,
0,f,1,0.6056,11,0,44,1,1,f,blue,57bdccc4761a3a0001a7d098,2021-09-28_12h51.49.044,forced_choiceRT_color,2021.2.3,Win32,59.93766483,,,,,,,,,,,,,,,,,,,,,,,
0,f,1,0.5588,11,1,45,1,1,f,blue,57bdccc4761a3a0001a7d098,2021-09-28_12h51.49.044,forced_choiceRT_color,2021.2.3,Win32,59.93766483,,,,,,,,,,,,,,,,,,,,,,,
0,j,1,0.6951,11,2,46,2,1,j,red,57bdccc4761a3a0001a7d098,2021-09-28_12h51.49.044,forced_choiceRT_color,2021.2.3,Win32,59.93766483,,,,,,,,,,,,,,,,,,,,,,,
0,d,1,0.6906,11,3,47,0,1,d,orange,57bdccc4761a3a0001a7d098,2021-09-28_12h51.49.044,forced_choiceRT_color,2021.2.3,Win32,59.93766483,,,,,,,,,,,,,,,,,,,,,,,
0,f,1,0.6555,12,0,48,1,1,f,blue,57bdccc4761a3a0001a7d098,2021-09-28_12h51.49.044,forced_choiceRT_color,2021.2.3,Win32,59.93766483,,,,,,,,,,,,,,,,,,,,,,,
0,j,1,0.9047,12,1,49,2,1,j,red,57bdccc4761a3a0001a7d098,2021-09-28_12h51.49.044,forced_choiceRT_color,2021.2.3,Win32,59.93766483,,,,,,,,,,,,,,,,,,,,,,,
0,f,1,0.7948,12,2,50,1,1,f,blue,57bdccc4761a3a0001a7d098,2021-09-28_12h51.49.044,forced_choiceRT_color,2021.2.3,Win32,59.93766483,,,,,,,,,,,,,,,,,,,,,,,
0,f,1,0.6251,12,3,51,1,1,f,blue,57bdccc4761a3a0001a7d098,2021-09-28_12h51.49.044,forced_choiceRT_color,2021.2.3,Win32,59.93766483,,,,,,,,,,,,,,,,,,,,,,,
0,f,1,0.5993,13,0,52,1,1,f,blue,57bdccc4761a3a0001a7d098,2021-09-28_12h51.49.044,forced_choiceRT_color,2021.2.3,Win32,59.93766483,,,,,,,,,,,,,,,,,,,,,,,
0,d,1,0.6623,13,1,53,0,1,d,orange,57bdccc4761a3a0001a7d098,2021-09-28_12h51.49.044,forced_choiceRT_color,2021.2.3,Win32,59.93766483,,,,,,,,,,,,,,,,,,,,,,,
0,j,1,0.6705,13,2,54,2,1,j,red,57bdccc4761a3a0001a7d098,2021-09-28_12h51.49.044,forced_choiceRT_color,2021.2.3,Win32,59.93766483,,,,,,,,,,,,,,,,,,,,,,,
0,k,1,0.5263,13,3,55,3,1,k,purple,57bdccc4761a3a0001a7d098,2021-09-28_12h51.49.044,forced_choiceRT_color,2021.2.3,Win32,59.93766483,,,,,,,,,,,,,,,,,,,,,,,
0,j,1,0.6889,14,0,56,2,1,j,red,57bdccc4761a3a0001a7d098,2021-09-28_12h51.49.044,forced_choiceRT_color,2021.2.3,Win32,59.93766483,,,,,,,,,,,,,,,,,,,,,,,
0,j,1,0.5089,14,1,57,2,1,j,red,57bdccc4761a3a0001a7d098,2021-09-28_12h51.49.044,forced_choiceRT_color,2021.2.3,Win32,59.93766483,,,,,,,,,,,,,,,,,,,,,,,
0,f,1,0.5613,14,2,58,1,1,f,blue,57bdccc4761a3a0001a7d098,2021-09-28_12h51.49.044,forced_choiceRT_color,2021.2.3,Win32,59.93766483,,,,,,,,,,,,,,,,,,,,,,,
0,d,1,0.6631,14,3,59,0,1,d,orange,57bdccc4761a3a0001a7d098,2021-09-28_12h51.49.044,forced_choiceRT_color,2021.2.3,Win32,59.93766483,,,,,,,,,,,,,,,,,,,,,,,
,,,,,,,,,,,57bdccc4761a3a0001a7d098,2021-09-28_12h51.49.044,forced_choiceRT_color,2021.2.3,Win32,59.93766483,d,4.0856,0,0,0,0,1,,,,,,,,,,,,,,,,
,,,,,,,,,,,57bdccc4761a3a0001a7d098,2021-09-28_12h51.49.044,forced_choiceRT_color,2021.2.3,Win32,59.93766483,f,0.9065,1,0,1,0,1,,,,,,,,,,,,,,,,
,,,,,,,,,,,57bdccc4761a3a0001a7d098,2021-09-28_12h51.49.044,forced_choiceRT_color,2021.2.3,Win32,59.93766483,j,0.6691,2,0,2,0,1,,,,,,,,,,,,,,,,
,,,,,,,,,,,57bdccc4761a3a0001a7d098,2021-09-28_12h51.49.044,forced_choiceRT_color,2021.2.3,Win32,59.93766483,j,1.2842,3,0,3,0,1,,,,,,,,,,,,,,,,
,,,,,,,,,,,57bdccc4761a3a0001a7d098,2021-09-28_12h51.49.044,forced_choiceRT_color,2021.2.3,Win32,59.93766483,k,1.6128,4,0,4,0,1,,,,,,,,,,,,,,,,
,,,,,,,,,,,57bdccc4761a3a0001a7d098,2021-09-28_12h51.49.044,forced_choiceRT_color,2021.2.3,Win32,59.93766483,d,1.572,5,0,5,0,1,,,,,,,,,,,,,,,,
,,,,,,,,,,,57bdccc4761a3a0001a7d098,2021-09-28_12h51.49.044,forced_choiceRT_color,2021.2.3,Win32,59.93766483,f,1.6806,6,0,6,0,1,,,,,,,,,,,,,,,,
,,,,,,,,,,,57bdccc4761a3a0001a7d098,2021-09-28_12h51.49.044,forced_choiceRT_color,2021.2.3,Win32,59.93766483,j,2.7358,7,0,7,0,1,,,,,,,,,,,,,,,,
,,,,,,,,,,,57bdccc4761a3a0001a7d098,2021-09-28_12h51.49.044,forced_choiceRT_color,2021.2.3,Win32,59.93766483,k,1.7847,8,0,8,0,1,,,,,,,,,,,,,,,,
,,,,,,,,,,,57bdccc4761a3a0001a7d098,2021-09-28_12h51.49.044,forced_choiceRT_color,2021.2.3,Win32,59.93766483,f,1.8281,9,0,9,0,1,,,,,,,,,,,,,,,,
,,,,,,,,,,,57bdccc4761a3a0001a7d098,2021-09-28_12h51.49.044,forced_choiceRT_color,2021.2.3,Win32,59.93766483,d,1.869,10,0,10,0,1,,,,,,,,,,,,,,,,
,,,,,,,,,,,57bdccc4761a3a0001a7d098,2021-09-28_12h51.49.044,forced_choiceRT_color,2021.2.3,Win32,59.93766483,j,1.9703,11,0,11,0,1,,,,,,,,,,,,,,,,
,,,,,,,,,,,57bdccc4761a3a0001a7d098,2021-09-28_12h51.49.044,forced_choiceRT_color,2021.2.3,Win32,59.93766483,j,1.9639,12,0,12,0,1,,,,,,,,,,,,,,,,
,,,,,,,,,,,57bdccc4761a3a0001a7d098,2021-09-28_12h51.49.044,forced_choiceRT_color,2021.2.3,Win32,59.93766483,j,1.8355,13,0,13,0,1,,,,,,,,,,,,,,,,
,,,,,,,,,,,57bdccc4761a3a0001a7d098,2021-09-28_12h51.49.044,forced_choiceRT_color,2021.2.3,Win32,59.93766483,k,1.6699,14,0,14,0,1,,,,,,,,,,,,,,,,
,,,,,,,,,,,57bdccc4761a3a0001a7d098,2021-09-28_12h51.49.044,forced_choiceRT_color,2021.2.3,Win32,59.93766483,j,2.0602,15,0,15,0,1,,,,,,,,,,,,,,,,
,,,,,,,,,,,57bdccc4761a3a0001a7d098,2021-09-28_12h51.49.044,forced_choiceRT_color,2021.2.3,Win32,59.93766483,k,1.9755,16,0,16,0,1,,,,,,,,,,,,,,,,
,,,,,,,,,,,57bdccc4761a3a0001a7d098,2021-09-28_12h51.49.044,forced_choiceRT_color,2021.2.3,Win32,59.93766483,j,2.0834,17,0,17,0,1,,,,,,,,,,,,,,,,
,,,,,,,,,,,57bdccc4761a3a0001a7d098,2021-09-28_12h51.49.044,forced_choiceRT_color,2021.2.3,Win32,59.93766483,d,2.0676,18,0,18,0,1,,,,,,,,,,,,,,,,
,,,,,,,,,,,57bdccc4761a3a0001a7d098,2021-09-28_12h51.49.044,forced_choiceRT_color,2021.2.3,Win32,59.93766483,f,2.1405,19,0,19,0,1,,,,,,,,,,,,,,,,
1.5,,,,,,,,,d,orange,57bdccc4761a3a0001a7d098,2021-09-28_12h51.49.044,forced_choiceRT_color,2021.2.3,Win32,59.93766483,,,,,,,,1,Ontime,long,f,0,1.9703,0,0,0,0,1,,,,,
1.62,,,,,,,,,f,blue,57bdccc4761a3a0001a7d098,2021-09-28_12h51.49.044,forced_choiceRT_color,2021.2.3,Win32,59.93766483,,,,,,,,1,Slow,long,f,1,2.1338,0,1,1,1,1,,,,,
1.88,,,,,,,,,j,red,57bdccc4761a3a0001a7d098,2021-09-28_12h51.49.044,forced_choiceRT_color,2021.2.3,Win32,59.93766483,,,,,,,,1,Slow,long,j,1,2.2434,0,2,2,2,1,,,,,
1.46,,,,,,,,,k,purple,57bdccc4761a3a0001a7d098,2021-09-28_12h51.49.044,forced_choiceRT_color,2021.2.3,Win32,59.93766483,,,,,,,,1,Ontime,long,k,1,1.9765,0,3,3,3,1,,,,,
1.07,,,,,,,,,j,red,57bdccc4761a3a0001a7d098,2021-09-28_12h51.49.044,forced_choiceRT_color,2021.2.3,Win32,59.93766483,,,,,,,,1,Fast,long,j,1,1.8735,1,0,4,2,1,,,,,
0.29,,,,,,,,,k,purple,57bdccc4761a3a0001a7d098,2021-09-28_12h51.49.044,forced_choiceRT_color,2021.2.3,Win32,59.93766483,,,,,,,,1,Slow,long,k,1,2.1009,1,1,5,3,1,,,,,
1.15,,,,,,,,,f,blue,57bdccc4761a3a0001a7d098,2021-09-28_12h51.49.044,forced_choiceRT_color,2021.2.3,Win32,59.93766483,,,,,,,,1,Fast,long,d,0,1.8666,1,2,6,1,1,,,,,
1.48,,,,,,,,,j,red,57bdccc4761a3a0001a7d098,2021-09-28_12h51.49.044,forced_choiceRT_color,2021.2.3,Win32,59.93766483,,,,,,,,1,Ontime,long,j,1,2.0035,1,3,7,2,1,,,,,
0.48,,,,,,,,,d,orange,57bdccc4761a3a0001a7d098,2021-09-28_12h51.49.044,forced_choiceRT_color,2021.2.3,Win32,59.93766483,,,,,,,,1,Fast,long,d,1,1.8986,2,0,8,0,1,,,,,
1.9,,,,,,,,,d,orange,57bdccc4761a3a0001a7d098,2021-09-28_12h51.49.044,forced_choiceRT_color,2021.2.3,Win32,59.93766483,,,,,,,,1,Slow,long,f,0,2.2888,2,1,9,0,1,,,,,
1.51,,,,,,,,,d,orange,57bdccc4761a3a0001a7d098,2021-09-28_12h51.49.044,forced_choiceRT_color,2021.2.3,Win32,59.93766483,,,,,,,,1,Fast,long,d,1,1.8751,2,2,10,0,1,,,,,
1.51,,,,,,,,,j,red,57bdccc4761a3a0001a7d098,2021-09-28_12h51.49.044,forced_choiceRT_color,2021.2.3,Win32,59.93766483,,,,,,,,1,Ontime,long,f,0,2.0328,2,3,11,2,1,,,,,
1.67,,,,,,,,,f,blue,57bdccc4761a3a0001a7d098,2021-09-28_12h51.49.044,forced_choiceRT_color,2021.2.3,Win32,59.93766483,,,,,,,,1,Slow,long,j,0,2.1521,3,0,12,1,1,,,,,
0.52,,,,,,,,,d,orange,57bdccc4761a3a0001a7d098,2021-09-28_12h51.49.044,forced_choiceRT_color,2021.2.3,Win32,59.93766483,,,,,,,,1,Ontime,long,d,1,1.9957,3,1,13,0,1,,,,,
0.98,,,,,,,,,k,purple,57bdccc4761a3a0001a7d098,2021-09-28_12h51.49.044,forced_choiceRT_color,2021.2.3,Win32,59.93766483,,,,,,,,1,Ontime,long,k,1,1.9681,3,2,14,3,1,,,,,
0.82,,,,,,,,,k,purple,57bdccc4761a3a0001a7d098,2021-09-28_12h51.49.044,forced_choiceRT_color,2021.2.3,Win32,59.93766483,,,,,,,,1,Fast,long,k,1,1.8682,3,3,15,3,1,,,,,
0.84,,,,,,,,,d,orange,57bdccc4761a3a0001a7d098,2021-09-28_12h51.49.044,forced_choiceRT_color,2021.2.3,Win32,59.93766483,,,,,,,,1,Ontime,long,d,1,1.9897,4,0,16,0,1,,,,,
1.26,,,,,,,,,k,purple,57bdccc4761a3a0001a7d098,2021-09-28_12h51.49.044,forced_choiceRT_color,2021.2.3,Win32,59.93766483,,,,,,,,1,Ontime,long,k,1,1.9244,4,1,17,3,1,,,,,
0.38,,,,,,,,,j,red,57bdccc4761a3a0001a7d098,2021-09-28_12h51.49.044,forced_choiceRT_color,2021.2.3,Win32,59.93766483,,,,,,,,1,Ontime,long,j,1,1.9219,4,2,18,2,1,,,,,
0.42,,,,,,,,,f,blue,57bdccc4761a3a0001a7d098,2021-09-28_12h51.49.044,forced_choiceRT_color,2021.2.3,Win32,59.93766483,,,,,,,,1,Ontime,long,f,1,1.9553,4,3,19,1,1,,,,,
1.28,,,,,,,,,k,purple,57bdccc4761a3a0001a7d098,2021-09-28_12h51.49.044,forced_choiceRT_color,2021.2.3,Win32,59.93766483,,,,,,,,1,Fast,long,k,1,1.8941,5,0,20,3,1,,,,,
1.19,,,,,,,,,f,blue,57bdccc4761a3a0001a7d098,2021-09-28_12h51.49.044,forced_choiceRT_color,2021.2.3,Win32,59.93766483,,,,,,,,1,Ontime,long,j,0,2.0013,5,1,21,1,1,,,,,
0.94,,,,,,,,,f,blue,57bdccc4761a3a0001a7d098,2021-09-28_12h51.49.044,forced_choiceRT_color,2021.2.3,Win32,59.93766483,,,,,,,,1,Fast,long,f,1,1.8677,5,2,22,1,1,,,,,
0.37,,,,,,,,,k,purple,57bdccc4761a3a0001a7d098,2021-09-28_12h51.49.044,forced_choiceRT_color,2021.2.3,Win32,59.93766483,,,,,,,,1,Ontime,long,k,1,1.973,5,3,23,3,1,,,,,
0.54,,,,,,,,,f,blue,57bdccc4761a3a0001a7d098,2021-09-28_12h51.49.044,forced_choiceRT_color,2021.2.3,Win32,59.93766483,,,,,,,,1,Ontime,long,j,0,2.019,6,0,24,1,1,,,,,
1.33,,,,,,,,,d,orange,57bdccc4761a3a0001a7d098,2021-09-28_12h51.49.044,forced_choiceRT_color,2021.2.3,Win32,59.93766483,,,,,,,,1,Ontime,long,d,1,1.9341,6,1,25,0,1,,,,,
0.31,,,,,,,,,j,red,57bdccc4761a3a0001a7d098,2021-09-28_12h51.49.044,forced_choiceRT_color,2021.2.3,Win32,59.93766483,,,,,,,,1,Fast,long,f,0,1.8602,6,2,26,2,1,,,,,
1.95,,,,,,,,,j,red,57bdccc4761a3a0001a7d098,2021-09-28_12h51.49.044,forced_choiceRT_color,2021.2.3,Win32,59.93766483,,,,,,,,1,Slow,long,f,0,2.4224,6,3,27,2,1,,,,,
0.04,,,,,,,,,f,blue,57bdccc4761a3a0001a7d098,2021-09-28_12h51.49.044,forced_choiceRT_color,2021.2.3,Win32,59.93766483,,,,,,,,1,Ontime,long,j,0,1.9636,7,0,28,1,1,,,,,
0.12,,,,,,,,,f,blue,57bdccc4761a3a0001a7d098,2021-09-28_12h51.49.044,forced_choiceRT_color,2021.2.3,Win32,59.93766483,,,,,,,,1,Ontime,long,j,0,2.0391,7,1,29,1,1,,,,,
0.53,,,,,,,,,d,orange,57bdccc4761a3a0001a7d098,2021-09-28_12h51.49.044,forced_choiceRT_color,2021.2.3,Win32,59.93766483,,,,,,,,1,Ontime,long,d,1,2.0267,7,2,30,0,1,,,,,
0,,,,,,,,,j,red,57bdccc4761a3a0001a7d098,2021-09-28_12h51.49.044,forced_choiceRT_color,2021.2.3,Win32,59.93766483,,,,,,,,1,Ontime,long,f,0,1.9812,7,3,31,2,1,,,,,
0.47,,,,,,,,,k,purple,57bdccc4761a3a0001a7d098,2021-09-28_12h51.49.044,forced_choiceRT_color,2021.2.3,Win32,59.93766483,,,,,,,,1,Slow,long,k,1,2.1075,8,0,32,3,1,,,,,
1.22,,,,,,,,,k,purple,57bdccc4761a3a0001a7d098,2021-09-28_12h51.49.044,forced_choiceRT_color,2021.2.3,Win32,59.93766483,,,,,,,,1,Ontime,long,k,1,1.9052,8,1,33,3,1,,,,,
0.35,,,,,,,,,d,orange,57bdccc4761a3a0001a7d098,2021-09-28_12h51.49.044,forced_choiceRT_color,2021.2.3,Win32,59.93766483,,,,,,,,1,Fast,long,d,1,1.7599,8,2,34,0,1,,,,,
1.83,,,,,,,,,j,red,57bdccc4761a3a0001a7d098,2021-09-28_12h51.49.044,forced_choiceRT_color,2021.2.3,Win32,59.93766483,,,,,,,,1,Slow,long,j,1,2.2668,8,3,35,2,1,,,,,
0.3,,,,,,,,,d,orange,57bdccc4761a3a0001a7d098,2021-09-28_12h51.49.044,forced_choiceRT_color,2021.2.3,Win32,59.93766483,,,,,,,,1,Ontime,long,d,1,2.0024,9,0,36,0,1,,,,,
0.65,,,,,,,,,k,purple,57bdccc4761a3a0001a7d098,2021-09-28_12h51.49.044,forced_choiceRT_color,2021.2.3,Win32,59.93766483,,,,,,,,1,Ontime,long,k,1,2.0155,9,1,37,3,1,,,,,
0.86,,,,,,,,,f,blue,57bdccc4761a3a0001a7d098,2021-09-28_12h51.49.044,forced_choiceRT_color,2021.2.3,Win32,59.93766483,,,,,,,,1,Ontime,long,j,0,2.0247,9,2,38,1,1,,,,,
1.52,,,,,,,,,j,red,57bdccc4761a3a0001a7d098,2021-09-28_12h51.49.044,forced_choiceRT_color,2021.2.3,Win32,59.93766483,,,,,,,,1,Ontime,long,f,0,2.0115,9,3,39,2,1,,,,,
,,,,,,,,,,,57bdccc4761a3a0001a7d098,2021-09-28_12h51.49.044,forced_choiceRT_color,2021.2.3,Win32,59.93766483,,,,,,,,,,,,,,,,,,,0,0,0,0,1
1.27,,,,,,,,,f,blue,57bdccc4761a3a0001a7d098,2021-09-28_12h51.49.044,forced_choiceRT_color,2021.2.3,Win32,59.93766483,,,,,,,,2,Ontime,long,f,1,1.9191,0,0,0,1,1,,,,,
1.74,,,,,,,,,j,red,57bdccc4761a3a0001a7d098,2021-09-28_12h51.49.044,forced_choiceRT_color,2021.2.3,Win32,59.93766483,,,,,,,,2,Slow,long,d,0,2.1516,0,1,1,2,1,,,,,
1.08,,,,,,,,,k,purple,57bdccc4761a3a0001a7d098,2021-09-28_12h51.49.044,forced_choiceRT_color,2021.2.3,Win32,59.93766483,,,,,,,,2,Ontime,long,k,1,1.9662,0,2,2,3,1,,,,,
0.25,,,,,,,,,j,red,57bdccc4761a3a0001a7d098,2021-09-28_12h51.49.044,forced_choiceRT_color,2021.2.3,Win32,59.93766483,,,,,,,,2,Ontime,long,j,1,2.049,0,3,3,2,1,,,,,
0.05,,,,,,,,,d,orange,57bdccc4761a3a0001a7d098,2021-09-28_12h51.49.044,forced_choiceRT_color,2021.2.3,Win32,59.93766483,,,,,,,,2,Ontime,long,d,1,1.9885,1,0,4,0,1,,,,,
0.02,,,,,,,,,f,blue,57bdccc4761a3a0001a7d098,2021-09-28_12h51.49.044,forced_choiceRT_color,2021.2.3,Win32,59.93766483,,,,,,,,2,Ontime,long,f,1,1.9808,1,1,5,1,1,,,,,
0.92,,,,,,,,,k,purple,57bdccc4761a3a0001a7d098,2021-09-28_12h51.49.044,forced_choiceRT_color,2021.2.3,Win32,59.93766483,,,,,,,,2,Slow,long,k,1,2.1339,1,2,6,3,1,,,,,
0.45,,,,,,,,,d,orange,57bdccc4761a3a0001a7d098,2021-09-28_12h51.49.044,forced_choiceRT_color,2021.2.3,Win32,59.93766483,,,,,,,,2,Ontime,long,d,1,1.9412,1,3,7,0,1,,,,,
1.52,,,,,,,,,k,purple,57bdccc4761a3a0001a7d098,2021-09-28_12h51.49.044,forced_choiceRT_color,2021.2.3,Win32,59.93766483,,,,,,,,2,Ontime,long,j,0,2.0219,2,0,8,3,1,,,,,
1.88,,,,,,,,,j,red,57bdccc4761a3a0001a7d098,2021-09-28_12h51.49.044,forced_choiceRT_color,2021.2.3,Win32,59.93766483,,,,,,,,2,Slow,long,f,0,2.9421,2,1,9,2,1,,,,,
1.67,,,,,,,,,k,purple,57bdccc4761a3a0001a7d098,2021-09-28_12h51.49.044,forced_choiceRT_color,2021.2.3,Win32,59.93766483,,,,,,,,2,Ontime,long,f,0,1.9401,2,2,10,3,1,,,,,
1.53,,,,,,,,,j,red,57bdccc4761a3a0001a7d098,2021-09-28_12h51.49.044,forced_choiceRT_color,2021.2.3,Win32,59.93766483,,,,,,,,2,Ontime,long,f,0,1.9575,2,3,11,2,1,,,,,
0.36,,,,,,,,,j,red,57bdccc4761a3a0001a7d098,2021-09-28_12h51.49.044,forced_choiceRT_color,2021.2.3,Win32,59.93766483,,,,,,,,2,Ontime,long,f,0,1.9897,3,0,12,2,1,,,,,
0.99,,,,,,,,,d,orange,57bdccc4761a3a0001a7d098,2021-09-28_12h51.49.044,forced_choiceRT_color,2021.2.3,Win32,59.93766483,,,,,,,,2,Ontime,long,d,1,2.0128,3,1,13,0,1,,,,,
0.06,,,,,,,,,k,purple,57bdccc4761a3a0001a7d098,2021-09-28_12h51.49.044,forced_choiceRT_color,2021.2.3,Win32,59.93766483,,,,,,,,2,Ontime,long,k,1,2.0062,3,2,14,3,1,,,,,
1.04,,,,,,,,,f,blue,57bdccc4761a3a0001a7d098,2021-09-28_12h51.49.044,forced_choiceRT_color,2021.2.3,Win32,59.93766483,,,,,,,,2,Ontime,long,j,0,2.0786,3,3,15,1,1,,,,,
0.3,,,,,,,,,d,orange,57bdccc4761a3a0001a7d098,2021-09-28_12h51.49.044,forced_choiceRT_color,2021.2.3,Win32,59.93766483,,,,,,,,2,Ontime,long,d,1,2.0026,4,0,16,0,1,,,,,
0.43,,,,,,,,,j,red,57bdccc4761a3a0001a7d098,2021-09-28_12h51.49.044,forced_choiceRT_color,2021.2.3,Win32,59.93766483,,,,,,,,2,Ontime,long,f,0,1.9368,4,1,17,2,1,,,,,
1.67,,,,,,,,,j,red,57bdccc4761a3a0001a7d098,2021-09-28_12h51.49.044,forced_choiceRT_color,2021.2.3,Win32,59.93766483,,,,,,,,2,Ontime,long,j,1,2.0576,4,2,18,2,1,,,,,
1.41,,,,,,,,,j,red,57bdccc4761a3a0001a7d098,2021-09-28_12h51.49.044,forced_choiceRT_color,2021.2.3,Win32,59.93766483,,,,,,,,2,Fast,long,j,1,1.8508,4,3,19,2,1,,,,,
1.73,,,,,,,,,f,blue,57bdccc4761a3a0001a7d098,2021-09-28_12h51.49.044,forced_choiceRT_color,2021.2.3,Win32,59.93766483,,,,,,,,2,Slow,long,j,0,2.1386,5,0,20,1,1,,,,,
0.34,,,,,,,,,k,purple,57bdccc4761a3a0001a7d098,2021-09-28_12h51.49.044,forced_choiceRT_color,2021.2.3,Win32,59.93766483,,,,,,,,2,Ontime,long,k,1,2.0751,5,1,21,3,1,,,,,
1.81,,,,,,,,,d,orange,57bdccc4761a3a0001a7d098,2021-09-28_12h51.49.044,forced_choiceRT_color,2021.2.3,Win32,59.93766483,,,,,,,,2,Slow,long,k,0,2.232,5,2,22,0,1,,,,,
1.84,,,,,,,,,k,purple,57bdccc4761a3a0001a7d098,2021-09-28_12h51.49.044,forced_choiceRT_color,2021.2.3,Win32,59.93766483,,,,,,,,2,Slow,long,j,0,2.3347,5,3,23,3,1,,,,,
0.83,,,,,,,,,k,purple,57bdccc4761a3a0001a7d098,2021-09-28_12h51.49.044,forced_choiceRT_color,2021.2.3,Win32,59.93766483,,,,,,,,2,Slow,long,k,1,2.1052,6,0,24,3,1,,,,,
0.34,,,,,,,,,d,orange,57bdccc4761a3a0001a7d098,2021-09-28_12h51.49.044,forced_choiceRT_color,2021.2.3,Win32,59.93766483,,,,,,,,2,Ontime,long,d,1,1.9512,6,1,25,0,1,,,,,
1.23,,,,,,,,,d,orange,57bdccc4761a3a0001a7d098,2021-09-28_12h51.49.044,forced_choiceRT_color,2021.2.3,Win32,59.93766483,,,,,,,,2,Ontime,long,d,1,1.9906,6,2,26,0,1,,,,,
0.2,,,,,,,,,k,purple,57bdccc4761a3a0001a7d098,2021-09-28_12h51.49.044,forced_choiceRT_color,2021.2.3,Win32,59.93766483,,,,,,,,2,Ontime,long,k,1,1.9855,6,3,27,3,1,,,,,
1.76,,,,,,,,,d,orange,57bdccc4761a3a0001a7d098,2021-09-28_12h51.49.044,forced_choiceRT_color,2021.2.3,Win32,59.93766483,,,,,,,,2,Slow,long,j,0,2.1705,7,0,28,0,1,,,,,
0.59,,,,,,,,,f,blue,57bdccc4761a3a0001a7d098,2021-09-28_12h51.49.044,forced_choiceRT_color,2021.2.3,Win32,59.93766483,,,,,,,,2,Ontime,long,f,1,2.0838,7,1,29,1,1,,,,,
1.48,,,,,,,,,k,purple,57bdccc4761a3a0001a7d098,2021-09-28_12h51.49.044,forced_choiceRT_color,2021.2.3,Win32,59.93766483,,,,,,,,2,Slow,long,k,1,2.1231,7,2,30,3,1,,,,,
0.48,,,,,,,,,f,blue,57bdccc4761a3a0001a7d098,2021-09-28_12h51.49.044,forced_choiceRT_color,2021.2.3,Win32,59.93766483,,,,,,,,2,Ontime,long,f,1,2.0512,7,3,31,1,1,,,,,
1.31,,,,,,,,,d,orange,57bdccc4761a3a0001a7d098,2021-09-28_12h51.49.044,forced_choiceRT_color,2021.2.3,Win32,59.93766483,,,,,,,,2,Ontime,long,d,1,2.0711,8,0,32,0,1,,,,,
1.34,,,,,,,,,f,blue,57bdccc4761a3a0001a7d098,2021-09-28_12h51.49.044,forced_choiceRT_color,2021.2.3,Win32,59.93766483,,,,,,,,2,Ontime,long,f,1,1.918,8,1,33,1,1,,,,,
0.91,,,,,,,,,f,blue,57bdccc4761a3a0001a7d098,2021-09-28_12h51.49.044,forced_choiceRT_color,2021.2.3,Win32,59.93766483,,,,,,,,2,Ontime,long,f,1,1.9841,8,2,34,1,1,,,,,
1.51,,,,,,,,,f,blue,57bdccc4761a3a0001a7d098,2021-09-28_12h51.49.044,forced_choiceRT_color,2021.2.3,Win32,59.93766483,,,,,,,,2,Ontime,long,f,1,1.9419,8,3,35,1,1,,,,,
1.88,,,,,,,,,j,red,57bdccc4761a3a0001a7d098,2021-09-28_12h51.49.044,forced_choiceRT_color,2021.2.3,Win32,59.93766483,,,,,,,,2,Slow,long,k,0,2.5851,9,0,36,2,1,,,,,
0.53,,,,,,,,,d,orange,57bdccc4761a3a0001a7d098,2021-09-28_12h51.49.044,forced_choiceRT_color,2021.2.3,Win32,59.93766483,,,,,,,,2,Ontime,long,d,1,2.0966,9,1,37,0,1,,,,,
0.87,,,,,,,,,f,blue,57bdccc4761a3a0001a7d098,2021-09-28_12h51.49.044,forced_choiceRT_color,2021.2.3,Win32,59.93766483,,,,,,,,2,Ontime,long,f,1,2.0647,9,2,38,1,1,,,,,
0.22,,,,,,,,,j,red,57bdccc4761a3a0001a7d098,2021-09-28_12h51.49.044,forced_choiceRT_color,2021.2.3,Win32,59.93766483,,,,,,,,2,Ontime,long,d,0,1.9005,9,3,39,2,1,,,,,
,,,,,,,,,,,57bdccc4761a3a0001a7d098,2021-09-28_12h51.49.044,forced_choiceRT_color,2021.2.3,Win32,59.93766483,,,,,,,,,,,,,,,,,,,1,0,1,0,1
1.89,,,,,,,,,j,red,57bdccc4761a3a0001a7d098,2021-09-28_12h51.49.044,forced_choiceRT_color,2021.2.3,Win32,59.93766483,,,,,,,,3,Slow,long,j,1,2.7871,0,0,0,2,1,,,,,
1.14,,,,,,,,,j,red,57bdccc4761a3a0001a7d098,2021-09-28_12h51.49.044,forced_choiceRT_color,2021.2.3,Win32,59.93766483,,,,,,,,3,Fast,long,j,1,1.7098,0,1,1,2,1,,,,,
1.93,,,,,,,,,f,blue,57bdccc4761a3a0001a7d098,2021-09-28_12h51.49.044,forced_choiceRT_color,2021.2.3,Win32,59.93766483,,,,,,,,3,Slow,long,f,1,2.6491,0,2,2,1,1,,,,,
1.23,,,,,,,,,k,purple,57bdccc4761a3a0001a7d098,2021-09-28_12h51.49.044,forced_choiceRT_color,2021.2.3,Win32,59.93766483,,,,,,,,3,Ontime,long,k,1,1.9324,0,3,3,3,1,,,,,
1.64,,,,,,,,,j,red,57bdccc4761a3a0001a7d098,2021-09-28_12h51.49.044,forced_choiceRT_color,2021.2.3,Win32,59.93766483,,,,,,,,3,Slow,long,j,1,2.3439,1,0,4,2,1,,,,,
0.58,,,,,,,,,f,blue,57bdccc4761a3a0001a7d098,2021-09-28_12h51.49.044,forced_choiceRT_color,2021.2.3,Win32,59.93766483,,,,,,,,3,Ontime,long,f,1,2.0111,1,1,5,1,1,,,,,
1.66,,,,,,,,,f,blue,57bdccc4761a3a0001a7d098,2021-09-28_12h51.49.044,forced_choiceRT_color,2021.2.3,Win32,59.93766483,,,,,,,,3,Slow,long,f,1,2.1603,1,2,6,1,1,,,,,
0.19,,,,,,,,,k,purple,57bdccc4761a3a0001a7d098,2021-09-28_12h51.49.044,forced_choiceRT_color,2021.2.3,Win32,59.93766483,,,,,,,,3,Ontime,long,k,1,1.9655,1,3,7,3,1,,,,,
1.14,,,,,,,,,j,red,57bdccc4761a3a0001a7d098,2021-09-28_12h51.49.044,forced_choiceRT_color,2021.2.3,Win32,59.93766483,,,,,,,,3,Ontime,long,f,0,2.0123,2,0,8,2,1,,,,,
0.82,,,,,,,,,d,orange,57bdccc4761a3a0001a7d098,2021-09-28_12h51.49.044,forced_choiceRT_color,2021.2.3,Win32,59.93766483,,,,,,,,3,Ontime,long,d,1,2.0677,2,1,9,0,1,,,,,
0.67,,,,,,,,,f,blue,57bdccc4761a3a0001a7d098,2021-09-28_12h51.49.044,forced_choiceRT_color,2021.2.3,Win32,59.93766483,,,,,,,,3,Ontime,long,f,1,1.9494,2,2,10,1,1,,,,,
0.85,,,,,,,,,k,purple,57bdccc4761a3a0001a7d098,2021-09-28_12h51.49.044,forced_choiceRT_color,2021.2.3,Win32,59.93766483,,,,,,,,3,Ontime,long,k,1,2.011,2,3,11,3,1,,,,,
1.01,,,,,,,,,j,red,57bdccc4761a3a0001a7d098,2021-09-28_12h51.49.044,forced_choiceRT_color,2021.2.3,Win32,59.93766483,,,,,,,,3,Ontime,long,j,1,2.0847,3,0,12,2,1,,,,,
1.18,,,,,,,,,d,orange,57bdccc4761a3a0001a7d098,2021-09-28_12h51.49.044,forced_choiceRT_color,2021.2.3,Win32,59.93766483,,,,,,,,3,Ontime,long,f,0,1.9384,3,1,13,0,1,,,,,
1.83,,,,,,,,,f,blue,57bdccc4761a3a0001a7d098,2021-09-28_12h51.49.044,forced_choiceRT_color,2021.2.3,Win32,59.93766483,,,,,,,,3,Slow,long,f,1,2.2969,3,2,14,1,1,,,,,
1.43,,,,,,,,,k,purple,57bdccc4761a3a0001a7d098,2021-09-28_12h51.49.044,forced_choiceRT_color,2021.2.3,Win32,59.93766483,,,,,,,,3,Ontime,long,k,1,2.0729,3,3,15,3,1,,,,,
0.75,,,,,,,,,d,orange,57bdccc4761a3a0001a7d098,2021-09-28_12h51.49.044,forced_choiceRT_color,2021.2.3,Win32,59.93766483,,,,,,,,3,Ontime,long,d,1,2.0595,4,0,16,0,1,,,,,
1.06,,,,,,,,,k,purple,57bdccc4761a3a0001a7d098,2021-09-28_12h51.49.044,forced_choiceRT_color,2021.2.3,Win32,59.93766483,,,,,,,,3,Ontime,long,f,0,2.0609,4,1,17,3,1,,,,,
0.8,,,,,,,,,k,purple,57bdccc4761a3a0001a7d098,2021-09-28_12h51.49.044,forced_choiceRT_color,2021.2.3,Win32,59.93766483,,,,,,,,3,Ontime,long,k,1,2.0163,4,2,18,3,1,,,,,
0.12,,,,,,,,,f,blue,57bdccc4761a3a0001a7d098,2021-09-28_12h51.49.044,forced_choiceRT_color,2021.2.3,Win32,59.93766483,,,,,,,,3,Ontime,long,f,1,1.9613,4,3,19,1,1,,,,,
1.69,,,,,,,,,j,red,57bdccc4761a3a0001a7d098,2021-09-28_12h51.49.044,forced_choiceRT_color,2021.2.3,Win32,59.93766483,,,,,,,,3,Slow,long,d,0,2.2854,5,0,20,2,1,,,,,
1.63,,,,,,,,,d,orange,57bdccc4761a3a0001a7d098,2021-09-28_12h51.49.044,forced_choiceRT_color,2021.2.3,Win32,59.93766483,,,,,,,,3,Slow,long,j,0,2.1174,5,1,21,0,1,,,,,
0.86,,,,,,,,,k,purple,57bdccc4761a3a0001a7d098,2021-09-28_12h51.49.044,forced_choiceRT_color,2021.2.3,Win32,59.93766483,,,,,,,,3,Ontime,long,k,1,2.0285,5,2,22,3,1,,,,,
1.46,,,,,,,,,f,blue,57bdccc4761a3a0001a7d098,2021-09-28_12h51.49.044,forced_choiceRT_color,2021.2.3,Win32,59.93766483,,,,,,,,3,Slow,long,f,1,2.1111,5,3,23,1,1,,,,,
0.67,,,,,,,,,d,orange,57bdccc4761a3a0001a7d098,2021-09-28_12h51.49.044,forced_choiceRT_color,2021.2.3,Win32,59.93766483,,,,,,,,3,Fast,long,f,0,1.8793,6,0,24,0,1,,,,,
1.78,,,,,,,,,f,blue,57bdccc4761a3a0001a7d098,2021-09-28_12h51.49.044,forced_choiceRT_color,2021.2.3,Win32,59.93766483,,,,,,,,3,Slow,long,f,1,2.3764,6,1,25,1,1,,,,,
0.74,,,,,,,,,j,red,57bdccc4761a3a0001a7d098,2021-09-28_12h51.49.044,forced_choiceRT_color,2021.2.3,Win32,59.93766483,,,,,,,,3,Ontime,long,j,1,1.9454,6,2,26,2,1,,,,,
1.93,,,,,,,,,d,orange,57bdccc4761a3a0001a7d098,2021-09-28_12h51.49.044,forced_choiceRT_color,2021.2.3,Win32,59.93766483,,,,,,,,3,Slow,long,d,1,2.5865,6,3,27,0,1,,,,,
1.98,,,,,,,,,j,red,57bdccc4761a3a0001a7d098,2021-09-28_12h51.49.044,forced_choiceRT_color,2021.2.3,Win32,59.93766483,,,,,,,,3,Slow,long,j,1,2.6385,7,0,28,2,1,,,,,
0.7,,,,,,,,,j,red,57bdccc4761a3a0001a7d098,2021-09-28_12h51.49.044,forced_choiceRT_color,2021.2.3,Win32,59.93766483,,,,,,,,3,Ontime,long,j,1,2.0194,7,1,29,2,1,,,,,
0.12,,,,,,,,,j,red,57bdccc4761a3a0001a7d098,2021-09-28_12h51.49.044,forced_choiceRT_color,2021.2.3,Win32,59.93766483,,,,,,,,3,Ontime,long,j,1,2.0099,7,2,30,2,1,,,,,
0.17,,,,,,,,,k,purple,57bdccc4761a3a0001a7d098,2021-09-28_12h51.49.044,forced_choiceRT_color,2021.2.3,Win32,59.93766483,,,,,,,,3,Ontime,long,k,1,1.9467,7,3,31,3,1,,,,,
1.09,,,,,,,,,f,blue,57bdccc4761a3a0001a7d098,2021-09-28_12h51.49.044,forced_choiceRT_color,2021.2.3,Win32,59.93766483,,,,,,,,3,Fast,long,f,1,1.8357,8,0,32,1,1,,,,,
0.42,,,,,,,,,d,orange,57bdccc4761a3a0001a7d098,2021-09-28_12h51.49.044,forced_choiceRT_color,2021.2.3,Win32,59.93766483,,,,,,,,3,Ontime,long,d,1,2.0155,8,1,33,0,1,,,,,
0.14,,,,,,,,,f,blue,57bdccc4761a3a0001a7d098,2021-09-28_12h51.49.044,forced_choiceRT_color,2021.2.3,Win32,59.93766483,,,,,,,,3,Ontime,long,f,1,1.9768,8,2,34,1,1,,,,,
0.76,,,,,,,,,d,orange,57bdccc4761a3a0001a7d098,2021-09-28_12h51.49.044,forced_choiceRT_color,2021.2.3,Win32,59.93766483,,,,,,,,3,Fast,long,d,1,1.8642,8,3,35,0,1,,,,,
1.49,,,,,,,,,d,orange,57bdccc4761a3a0001a7d098,2021-09-28_12h51.49.044,forced_choiceRT_color,2021.2.3,Win32,59.93766483,,,,,,,,3,Ontime,long,d,1,2.0471,9,0,36,0,1,,,,,
0.39,,,,,,,,,k,purple,57bdccc4761a3a0001a7d098,2021-09-28_12h51.49.044,forced_choiceRT_color,2021.2.3,Win32,59.93766483,,,,,,,,3,Ontime,long,k,1,2.0814,9,1,37,3,1,,,,,
1.63,,,,,,,,,d,orange,57bdccc4761a3a0001a7d098,2021-09-28_12h51.49.044,forced_choiceRT_color,2021.2.3,Win32,59.93766483,,,,,,,,3,Slow,long,d,1,2.2304,9,2,38,0,1,,,,,
1.95,,,,,,,,,k,purple,57bdccc4761a3a0001a7d098,2021-09-28_12h51.49.044,forced_choiceRT_color,2021.2.3,Win32,59.93766483,,,,,,,,3,Slow,long,j,0,2.4583,9,3,39,3,1,,,,,
,,,,,,,,,,,57bdccc4761a3a0001a7d098,2021-09-28_12h51.49.044,forced_choiceRT_color,2021.2.3,Win32,59.93766483,,,,,,,,,,,,,,,,,,,2,0,2,0,1
0.9,,,,,,,,,k,purple,57bdccc4761a3a0001a7d098,2021-09-28_12h51.49.044,forced_choiceRT_color,2021.2.3,Win32,59.93766483,,,,,,,,4,Ontime,long,k,1,1.9553,0,0,0,3,1,,,,,
1.14,,,,,,,,,f,blue,57bdccc4761a3a0001a7d098,2021-09-28_12h51.49.044,forced_choiceRT_color,2021.2.3,Win32,59.93766483,,,,,,,,4,Ontime,long,f,1,1.9783,0,1,1,1,1,,,,,
0.66,,,,,,,,,j,red,57bdccc4761a3a0001a7d098,2021-09-28_12h51.49.044,forced_choiceRT_color,2021.2.3,Win32,59.93766483,,,,,,,,4,Ontime,long,j,1,1.9268,0,2,2,2,1,,,,,
1.52,,,,,,,,,d,orange,57bdccc4761a3a0001a7d098,2021-09-28_12h51.49.044,forced_choiceRT_color,2021.2.3,Win32,59.93766483,,,,,,,,4,Slow,long,d,1,2.1363,0,3,3,0,1,,,,,
1.88,,,,,,,,,f,blue,57bdccc4761a3a0001a7d098,2021-09-28_12h51.49.044,forced_choiceRT_color,2021.2.3,Win32,59.93766483,,,,,,,,4,Slow,long,f,1,2.4873,1,0,4,1,1,,,,,
1.42,,,,,,,,,f,blue,57bdccc4761a3a0001a7d098,2021-09-28_12h51.49.044,forced_choiceRT_color,2021.2.3,Win32,59.93766483,,,,,,,,4,Fast,long,f,1,1.8105,1,1,5,1,1,,,,,
1.32,,,,,,,,,k,purple,57bdccc4761a3a0001a7d098,2021-09-28_12h51.49.044,forced_choiceRT_color,2021.2.3,Win32,59.93766483,,,,,,,,4,Ontime,long,k,1,1.9292,1,2,6,3,1,,,,,
0.59,,,,,,,,,f,blue,57bdccc4761a3a0001a7d098,2021-09-28_12h51.49.044,forced_choiceRT_color,2021.2.3,Win32,59.93766483,,,,,,,,4,Ontime,long,f,1,1.9572,1,3,7,1,1,,,,,
1.64,,,,,,,,,d,orange,57bdccc4761a3a0001a7d098,2021-09-28_12h51.49.044,forced_choiceRT_color,2021.2.3,Win32,59.93766483,,,,,,,,4,Slow,long,f,0,2.1857,2,0,8,0,1,,,,,
0.27,,,,,,,,,k,purple,57bdccc4761a3a0001a7d098,2021-09-28_12h51.49.044,forced_choiceRT_color,2021.2.3,Win32,59.93766483,,,,,,,,4,Ontime,long,k,1,2.035,2,1,9,3,1,,,,,
1.88,,,,,,,,,d,orange,57bdccc4761a3a0001a7d098,2021-09-28_12h51.49.044,forced_choiceRT_color,2021.2.3,Win32,59.93766483,,,,,,,,4,Slow,long,d,1,2.4729,2,2,10,0,1,,,,,
0.27,,,,,,,,,j,red,57bdccc4761a3a0001a7d098,2021-09-28_12h51.49.044,forced_choiceRT_color,2021.2.3,Win32,59.93766483,,,,,,,,4,Ontime,long,j,1,2.0427,2,3,11,2,1,,,,,
1.42,,,,,,,,,f,blue,57bdccc4761a3a0001a7d098,2021-09-28_12h51.49.044,forced_choiceRT_color,2021.2.3,Win32,59.93766483,,,,,,,,4,Slow,long,f,1,2.149,3,0,12,1,1,,,,,
0.96,,,,,,,,,d,orange,57bdccc4761a3a0001a7d098,2021-09-28_12h51.49.044,forced_choiceRT_color,2021.2.3,Win32,59.93766483,,,,,,,,4,Ontime,long,d,1,1.9556,3,1,13,0,1,,,,,
1.53,,,,,,,,,k,purple,57bdccc4761a3a0001a7d098,2021-09-28_12h51.49.044,forced_choiceRT_color,2021.2.3,Win32,59.93766483,,,,,,,,4,Ontime,long,k,1,2.0285,3,2,14,3,1,,,,,
0.71,,,,,,,,,k,purple,57bdccc4761a3a0001a7d098,2021-09-28_12h51.49.044,forced_choiceRT_color,2021.2.3,Win32,59.93766483,,,,,,,,4,Ontime,long,k,1,1.9794,3,3,15,3,1,,,,,
1.33,,,,,,,,,d,orange,57bdccc4761a3a0001a7d098,2021-09-28_12h51.49.044,forced_choiceRT_color,2021.2.3,Win32,59.93766483,,,,,,,,4,Ontime,long,f,0,1.9231,4,0,16,0,1,,,,,
1.66,,,,,,,,,k,purple,57bdccc4761a3a0001a7d098,2021-09-28_12h51.49.044,forced_choiceRT_color,2021.2.3,Win32,59.93766483,,,,,,,,4,Slow,long,k,1,2.1682,4,1,17,3,1,,,,,
1.72,,,,,,,,,d,orange,57bdccc4761a3a0001a7d098,2021-09-28_12h51.49.044,forced_choiceRT_color,2021.2.3,Win32,59.93766483,,,,,,,,4,Slow,long,d,1,2.2286,4,2,18,0,1,,,,,
0.87,,,,,,,,,d,orange,57bdccc4761a3a0001a7d098,2021-09-28_12h51.49.044,forced_choiceRT_color,2021.2.3,Win32,59.93766483,,,,,,,,4,Fast,long,d,1,1.8606,4,3,19,0,1,,,,,
0.27,,,,,,,,,j,red,57bdccc4761a3a0001a7d098,2021-09-28_12h51.49.044,forced_choiceRT_color,2021.2.3,Win32,59.93766483,,,,,,,,4,Ontime,long,j,1,2.0356,5,0,20,2,1,,,,,
1.79,,,,,,,,,k,purple,57bdccc4761a3a0001a7d098,2021-09-28_12h51.49.044,forced_choiceRT_color,2021.2.3,Win32,59.93766483,,,,,,,,4,Slow,long,k,1,2.3223,5,1,21,3,1,,,,,
0.66,,,,,,,,,d,orange,57bdccc4761a3a0001a7d098,2021-09-28_12h51.49.044,forced_choiceRT_color,2021.2.3,Win32,59.93766483,,,,,,,,4,Ontime,long,d,1,2.0082,5,2,22,0,1,,,,,
1.36,,,,,,,,,f,blue,57bdccc4761a3a0001a7d098,2021-09-28_12h51.49.044,forced_choiceRT_color,2021.2.3,Win32,59.93766483,,,,,,,,4,Ontime,long,k,0,2.0369,5,3,23,1,1,,,,,
1.73,,,,,,,,,j,red,57bdccc4761a3a0001a7d098,2021-09-28_12h51.49.044,forced_choiceRT_color,2021.2.3,Win32,59.93766483,,,,,,,,4,Slow,long,j,1,2.4601,6,0,24,2,1,,,,,
0.07,,,,,,,,,f,blue,57bdccc4761a3a0001a7d098,2021-09-28_12h51.49.044,forced_choiceRT_color,2021.2.3,Win32,59.93766483,,,,,,,,4,Ontime,long,f,1,2.0474,6,1,25,1,1,,,,,
1.12,,,,,,,,,j,red,57bdccc4761a3a0001a7d098,2021-09-28_12h51.49.044,forced_choiceRT_color,2021.2.3,Win32,59.93766483,,,,,,,,4,Ontime,long,j,1,1.9709,6,2,26,2,1,,,,,
1.07,,,,,,,,,j,red,57bdccc4761a3a0001a7d098,2021-09-28_12h51.49.044,forced_choiceRT_color,2021.2.3,Win32,59.93766483,,,,,,,,4,Ontime,long,j,1,2.0517,6,3,27,2,1,,,,,
0.69,,,,,,,,,d,orange,57bdccc4761a3a0001a7d098,2021-09-28_12h51.49.044,forced_choiceRT_color,2021.2.3,Win32,59.93766483,,,,,,,,4,Ontime,long,d,1,1.9679,7,0,28,0,1,,,,,
0.4,,,,,,,,,j,red,57bdccc4761a3a0001a7d098,2021-09-28_12h51.49.044,forced_choiceRT_color,2021.2.3,Win32,59.93766483,,,,,,,,4,Ontime,long,j,1,2.0506,7,1,29,2,1,,,,,
0.51,,,,,,,,,f,blue,57bdccc4761a3a0001a7d098,2021-09-28_12h51.49.044,forced_choiceRT_color,2021.2.3,Win32,59.93766483,,,,,,,,4,Ontime,long,f,1,1.9897,7,2,30,1,1,,,,,
1.77,,,,,,,,,f,blue,57bdccc4761a3a0001a7d098,2021-09-28_12h51.49.044,forced_choiceRT_color,2021.2.3,Win32,59.93766483,,,,,,,,4,Slow,long,f,1,2.2514,7,3,31,1,1,,,,,
1.83,,,,,,,,,k,purple,57bdccc4761a3a0001a7d098,2021-09-28_12h51.49.044,forced_choiceRT_color,2021.2.3,Win32,59.93766483,,,,,,,,4,Slow,long,k,1,2.3952,8,0,32,3,1,,,,,
1.57,,,,,,,,,k,purple,57bdccc4761a3a0001a7d098,2021-09-28_12h51.49.044,forced_choiceRT_color,2021.2.3,Win32,59.93766483,,,,,,,,4,Ontime,long,k,1,2.0385,8,1,33,3,1,,,,,
1.23,,,,,,,,,j,red,57bdccc4761a3a0001a7d098,2021-09-28_12h51.49.044,forced_choiceRT_color,2021.2.3,Win32,59.93766483,,,,,,,,4,Ontime,long,j,1,1.9602,8,2,34,2,1,,,,,
0.84,,,,,,,,,j,red,57bdccc4761a3a0001a7d098,2021-09-28_12h51.49.044,forced_choiceRT_color,2021.2.3,Win32,59.93766483,,,,,,,,4,Fast,long,j,1,1.6736,8,3,35,2,1,,,,,
1.38,,,,,,,,,f,blue,57bdccc4761a3a0001a7d098,2021-09-28_12h51.49.044,forced_choiceRT_color,2021.2.3,Win32,59.93766483,,,,,,,,4,Ontime,long,f,1,1.9797,9,0,36,1,1,,,,,
0.78,,,,,,,,,k,purple,57bdccc4761a3a0001a7d098,2021-09-28_12h51.49.044,forced_choiceRT_color,2021.2.3,Win32,59.93766483,,,,,,,,4,Slow,long,k,1,2.1454,9,1,37,3,1,,,,,
1.82,,,,,,,,,j,red,57bdccc4761a3a0001a7d098,2021-09-28_12h51.49.044,forced_choiceRT_color,2021.2.3,Win32,59.93766483,,,,,,,,4,Slow,long,f,0,2.6448,9,2,38,2,1,,,,,
1.97,,,,,,,,,d,orange,57bdccc4761a3a0001a7d098,2021-09-28_12h51.49.044,forced_choiceRT_color,2021.2.3,Win32,59.93766483,,,,,,,,4,Slow,long,d,1,2.6504,9,3,39,0,1,,,,,
,,,,,,,,,,,57bdccc4761a3a0001a7d098,2021-09-28_12h51.49.044,forced_choiceRT_color,2021.2.3,Win32,59.93766483,,,,,,,,,,,,,,,,,,,3,0,3,0,1
0.62,,,,,,,,,f,blue,57bdccc4761a3a0001a7d098,2021-09-28_12h51.49.044,forced_choiceRT_color,2021.2.3,Win32,59.93766483,,,,,,,,5,Ontime,long,f,1,2.0283,0,0,0,1,1,,,,,
0.62,,,,,,,,,f,blue,57bdccc4761a3a0001a7d098,2021-09-28_12h51.49.044,forced_choiceRT_color,2021.2.3,Win32,59.93766483,,,,,,,,5,Ontime,long,f,1,2.043,0,1,1,1,1,,,,,
1.79,,,,,,,,,f,blue,57bdccc4761a3a0001a7d098,2021-09-28_12h51.49.044,forced_choiceRT_color,2021.2.3,Win32,59.93766483,,,,,,,,5,Slow,long,f,1,2.246,0,2,2,1,1,,,,,
0.22,,,,,,,,,d,orange,57bdccc4761a3a0001a7d098,2021-09-28_12h51.49.044,forced_choiceRT_color,2021.2.3,Win32,59.93766483,,,,,,,,5,Fast,long,d,1,1.8932,0,3,3,0,1,,,,,
1.67,,,,,,,,,k,purple,57bdccc4761a3a0001a7d098,2021-09-28_12h51.49.044,forced_choiceRT_color,2021.2.3,Win32,59.93766483,,,,,,,,5,Slow,long,k,1,2.2508,1,0,4,3,1,,,,,
0.46,,,,,,,,,j,red,57bdccc4761a3a0001a7d098,2021-09-28_12h51.49.044,forced_choiceRT_color,2021.2.3,Win32,59.93766483,,,,,,,,5,Ontime,long,j,1,2.0295,1,1,5,2,1,,,,,
1.42,,,,,,,,,d,orange,57bdccc4761a3a0001a7d098,2021-09-28_12h51.49.044,forced_choiceRT_color,2021.2.3,Win32,59.93766483,,,,,,,,5,Ontime,long,d,1,1.9974,1,2,6,0,1,,,,,
0.1,,,,,,,,,f,blue,57bdccc4761a3a0001a7d098,2021-09-28_12h51.49.044,forced_choiceRT_color,2021.2.3,Win32,59.93766483,,,,,,,,5,Ontime,long,f,1,1.9527,1,3,7,1,1,,,,,
1.16,,,,,,,,,f,blue,57bdccc4761a3a0001a7d098,2021-09-28_12h51.49.044,forced_choiceRT_color,2021.2.3,Win32,59.93766483,,,,,,,,5,Ontime,long,f,1,1.9167,2,0,8,1,1,,,,,
0.15,,,,,,,,,j,red,57bdccc4761a3a0001a7d098,2021-09-28_12h51.49.044,forced_choiceRT_color,2021.2.3,Win32,59.93766483,,,,,,,,5,Fast,long,j,1,1.892,2,1,9,2,1,,,,,
1.19,,,,,,,,,j,red,57bdccc4761a3a0001a7d098,2021-09-28_12h51.49.044,forced_choiceRT_color,2021.2.3,Win32,59.93766483,,,,,,,,5,Ontime,long,j,1,1.9806,2,2,10,2,1,,,,,
1.43,,,,,,,,,d,orange,57bdccc4761a3a0001a7d098,2021-09-28_12h51.49.044,forced_choiceRT_color,2021.2.3,Win32,59.93766483,,,,,,,,5,Ontime,long,d,1,2.0311,2,3,11,0,1,,,,,
1.02,,,,,,,,,k,purple,57bdccc4761a3a0001a7d098,2021-09-28_12h51.49.044,forced_choiceRT_color,2021.2.3,Win32,59.93766483,,,,,,,,5,Slow,long,j,0,2.1081,3,0,12,3,1,,,,,
1.04,,,,,,,,,k,purple,57bdccc4761a3a0001a7d098,2021-09-28_12h51.49.044,forced_choiceRT_color,2021.2.3,Win32,59.93766483,,,,,,,,5,Fast,long,k,1,1.8658,3,1,13,3,1,,,,,
0.97,,,,,,,,,f,blue,57bdccc4761a3a0001a7d098,2021-09-28_12h51.49.044,forced_choiceRT_color,2021.2.3,Win32,59.93766483,,,,,,,,5,Ontime,long,j,0,1.935,3,2,14,1,1,,,,,
1.25,,,,,,,,,j,red,57bdccc4761a3a0001a7d098,2021-09-28_12h51.49.044,forced_choiceRT_color,2021.2.3,Win32,59.93766483,,,,,,,,5,Ontime,long,j,1,2.0497,3,3,15,2,1,,,,,
0,,,,,,,,,k,purple,57bdccc4761a3a0001a7d098,2021-09-28_12h51.49.044,forced_choiceRT_color,2021.2.3,Win32,59.93766483,,,,,,,,5,Ontime,long,k,1,2.031,4,0,16,3,1,,,,,
0.9,,,,,,,,,d,orange,57bdccc4761a3a0001a7d098,2021-09-28_12h51.49.044,forced_choiceRT_color,2021.2.3,Win32,59.93766483,,,,,,,,5,Ontime,long,d,1,2.0567,4,1,17,0,1,,,,,
0.52,,,,,,,,,k,purple,57bdccc4761a3a0001a7d098,2021-09-28_12h51.49.044,forced_choiceRT_color,2021.2.3,Win32,59.93766483,,,,,,,,5,Ontime,long,k,1,1.9802,4,2,18,3,1,,,,,
0.77,,,,,,,,,d,orange,57bdccc4761a3a0001a7d098,2021-09-28_12h51.49.044,forced_choiceRT_color,2021.2.3,Win32,59.93766483,,,,,,,,5,Ontime,long,d,1,2.0192,4,3,19,0,1,,,,,
0.07,,,,,,,,,j,red,57bdccc4761a3a0001a7d098,2021-09-28_12h51.49.044,forced_choiceRT_color,2021.2.3,Win32,59.93766483,,,,,,,,5,Ontime,long,j,1,1.9852,5,0,20,2,1,,,,,
1.64,,,,,,,,,f,blue,57bdccc4761a3a0001a7d098,2021-09-28_12h51.49.044,forced_choiceRT_color,2021.2.3,Win32,59.93766483,,,,,,,,5,Slow,long,d,0,2.2125,5,1,21,1,1,,,,,
1.7,,,,,,,,,j,red,57bdccc4761a3a0001a7d098,2021-09-28_12h51.49.044,forced_choiceRT_color,2021.2.3,Win32,59.93766483,,,,,,,,5,Slow,long,d,0,2.1589,5,2,22,2,1,,,,,
1.27,,,,,,,,,k,purple,57bdccc4761a3a0001a7d098,2021-09-28_12h51.49.044,forced_choiceRT_color,2021.2.3,Win32,59.93766483,,,,,,,,5,Ontime,long,k,1,1.9047,5,3,23,3,1,,,,,
1.67,,,,,,,,,k,purple,57bdccc4761a3a0001a7d098,2021-09-28_12h51.49.044,forced_choiceRT_color,2021.2.3,Win32,59.93766483,,,,,,,,5,Slow,long,k,1,2.2956,6,0,24,3,1,,,,,
1.56,,,,,,,,,d,orange,57bdccc4761a3a0001a7d098,2021-09-28_12h51.49.044,forced_choiceRT_color,2021.2.3,Win32,59.93766483,,,,,,,,5,Slow,long,d,1,2.3596,6,1,25,0,1,,,,,
1.72,,,,,,,,,d,orange,57bdccc4761a3a0001a7d098,2021-09-28_12h51.49.044,forced_choiceRT_color,2021.2.3,Win32,59.93766483,,,,,,,,5,Slow,long,d,1,2.1645,6,2,26,0,1,,,,,
1.02,,,,,,,,,k,purple,57bdccc4761a3a0001a7d098,2021-09-28_12h51.49.044,forced_choiceRT_color,2021.2.3,Win32,59.93766483,,,,,,,,5,Ontime,long,k,1,1.9377,6,3,27,3,1,,,,,
1.19,,,,,,,,,d,orange,57bdccc4761a3a0001a7d098,2021-09-28_12h51.49.044,forced_choiceRT_color,2021.2.3,Win32,59.93766483,,,,,,,,5,Ontime,long,d,1,1.9509,7,0,28,0,1,,,,,
1.09,,,,,,,,,j,red,57bdccc4761a3a0001a7d098,2021-09-28_12h51.49.044,forced_choiceRT_color,2021.2.3,Win32,59.93766483,,,,,,,,5,Ontime,long,f,0,1.9936,7,1,29,2,1,,,,,
0.25,,,,,,,,,d,orange,57bdccc4761a3a0001a7d098,2021-09-28_12h51.49.044,forced_choiceRT_color,2021.2.3,Win32,59.93766483,,,,,,,,5,Ontime,long,d,1,1.9772,7,2,30,0,1,,,,,
1.42,,,,,,,,,f,blue,57bdccc4761a3a0001a7d098,2021-09-28_12h51.49.044,forced_choiceRT_color,2021.2.3,Win32,59.93766483,,,,,,,,5,Ontime,long,f,1,1.9811,7,3,31,1,1,,,,,
0.72,,,,,,,,,f,blue,57bdccc4761a3a0001a7d098,2021-09-28_12h51.49.044,forced_choiceRT_color,2021.2.3,Win32,59.93766483,,,,,,,,5,Ontime,long,f,1,1.9494,8,0,32,1,1,,,,,
1.98,,,,,,,,,k,purple,57bdccc4761a3a0001a7d098,2021-09-28_12h51.49.044,forced_choiceRT_color,2021.2.3,Win32,59.93766483,,,,,,,,5,Slow,long,k,1,2.4937,8,1,33,3,1,,,,,
0.6,,,,,,,,,k,purple,57bdccc4761a3a0001a7d098,2021-09-28_12h51.49.044,forced_choiceRT_color,2021.2.3,Win32,59.93766483,,,,,,,,5,Ontime,long,k,1,2.0463,8,2,34,3,1,,,,,
1.57,,,,,,,,,d,orange,57bdccc4761a3a0001a7d098,2021-09-28_12h51.49.044,forced_choiceRT_color,2021.2.3,Win32,59.93766483,,,,,,,,5,Slow,long,d,1,2.2061,8,3,35,0,1,,,,,
1.96,,,,,,,,,j,red,57bdccc4761a3a0001a7d098,2021-09-28_12h51.49.044,forced_choiceRT_color,2021.2.3,Win32,59.93766483,,,,,,,,5,Slow,long,j,1,2.5175,9,0,36,2,1,,,,,
1.21,,,,,,,,,j,red,57bdccc4761a3a0001a7d098,2021-09-28_12h51.49.044,forced_choiceRT_color,2021.2.3,Win32,59.93766483,,,,,,,,5,Fast,long,j,1,1.8959,9,1,37,2,1,,,,,
1.98,,,,,,,,,f,blue,57bdccc4761a3a0001a7d098,2021-09-28_12h51.49.044,forced_choiceRT_color,2021.2.3,Win32,59.93766483,,,,,,,,5,Slow,long,f,1,2.615,9,2,38,1,1,,,,,
0.84,,,,,,,,,j,red,57bdccc4761a3a0001a7d098,2021-09-28_12h51.49.044,forced_choiceRT_color,2021.2.3,Win32,59.93766483,,,,,,,,5,Ontime,long,j,1,1.9203,9,3,39,2,1,,,,,
,,,,,,,,,,,57bdccc4761a3a0001a7d098,2021-09-28_12h51.49.044,forced_choiceRT_color,2021.2.3,Win32,59.93766483,,,,,,,,,,,,,,,,,,,4,0,4,0,1
0.96,,,,,,,,,j,red,57bdccc4761a3a0001a7d098,2021-09-28_12h51.49.044,forced_choiceRT_color,2021.2.3,Win32,59.93766483,,,,,,,,6,Slow,long,j,1,2.1102,0,0,0,2,1,,,,,
1.76,,,,,,,,,k,purple,57bdccc4761a3a0001a7d098,2021-09-28_12h51.49.044,forced_choiceRT_color,2021.2.3,Win32,59.93766483,,,,,,,,6,Ontime,long,k,1,2.0569,0,1,1,3,1,,,,,
1.72,,,,,,,,,j,red,57bdccc4761a3a0001a7d098,2021-09-28_12h51.49.044,forced_choiceRT_color,2021.2.3,Win32,59.93766483,,,,,,,,6,Slow,long,f,0,2.2569,0,2,2,2,1,,,,,
0.58,,,,,,,,,k,purple,57bdccc4761a3a0001a7d098,2021-09-28_12h51.49.044,forced_choiceRT_color,2021.2.3,Win32,59.93766483,,,,,,,,6,Ontime,long,k,1,1.9689,0,3,3,3,1,,,,,
0.81,,,,,,,,,d,orange,57bdccc4761a3a0001a7d098,2021-09-28_12h51.49.044,forced_choiceRT_color,2021.2.3,Win32,59.93766483,,,,,,,,6,Ontime,long,d,1,1.9706,1,0,4,0,1,,,,,
0.12,,,,,,,,,f,blue,57bdccc4761a3a0001a7d098,2021-09-28_12h51.49.044,forced_choiceRT_color,2021.2.3,Win32,59.93766483,,,,,,,,6,Ontime,long,f,1,1.9987,1,1,5,1,1,,,,,
0.51,,,,,,,,,k,purple,57bdccc4761a3a0001a7d098,2021-09-28_12h51.49.044,forced_choiceRT_color,2021.2.3,Win32,59.93766483,,,,,,,,6,Ontime,long,k,1,1.9512,1,2,6,3,1,,,,,
0.92,,,,,,,,,d,orange,57bdccc4761a3a0001a7d098,2021-09-28_12h51.49.044,forced_choiceRT_color,2021.2.3,Win32,59.93766483,,,,,,,,6,Ontime,long,d,1,2.0169,1,3,7,0,1,,,,,
0.01,,,,,,,,,f,blue,57bdccc4761a3a0001a7d098,2021-09-28_12h51.49.044,forced_choiceRT_color,2021.2.3,Win32,59.93766483,,,,,,,,6,Ontime,long,f,1,2.0651,2,0,8,1,1,,,,,
0.98,,,,,,,,,d,orange,57bdccc4761a3a0001a7d098,2021-09-28_12h51.49.044,forced_choiceRT_color,2021.2.3,Win32,59.93766483,,,,,,,,6,Ontime,long,d,1,2.0158,2,1,9,0,1,,,,,
1.08,,,,,,,,,k,purple,57bdccc4761a3a0001a7d098,2021-09-28_12h51.49.044,forced_choiceRT_color,2021.2.3,Win32,59.93766483,,,,,,,,6,Ontime,long,k,1,2.016,2,2,10,3,1,,,,,
1.88,,,,,,,,,k,purple,57bdccc4761a3a0001a7d098,2021-09-28_12h51.49.044,forced_choiceRT_color,2021.2.3,Win32,59.93766483,,,,,,,,6,Slow,long,j,0,2.3002,2,3,11,3,1,,,,,
0.02,,,,,,,,,k,purple,57bdccc4761a3a0001a7d098,2021-09-28_12h51.49.044,forced_choiceRT_color,2021.2.3,Win32,59.93766483,,,,,,,,6,Ontime,long,k,1,2.0187,3,0,12,3,1,,,,,
0.4,,,,,,,,,f,blue,57bdccc4761a3a0001a7d098,2021-09-28_12h51.49.044,forced_choiceRT_color,2021.2.3,Win32,59.93766483,,,,,,,,6,Ontime,long,f,1,2.0005,3,1,13,1,1,,,,,
0.8,,,,,,,,,d,orange,57bdccc4761a3a0001a7d098,2021-09-28_12h51.49.044,forced_choiceRT_color,2021.2.3,Win32,59.93766483,,,,,,,,6,Ontime,long,d,1,1.9337,3,2,14,0,1,,,,,
1.1,,,,,,,,,d,orange,57bdccc4761a3a0001a7d098,2021-09-28_12h51.49.044,forced_choiceRT_color,2021.2.3,Win32,59.93766483,,,,,,,,6,Ontime,long,d,1,2.051,3,3,15,0,1,,,,,
1.8,,,,,,,,,d,orange,57bdccc4761a3a0001a7d098,2021-09-28_12h51.49.044,forced_choiceRT_color,2021.2.3,Win32,59.93766483,,,,,,,,6,Slow,long,d,1,2.267,4,0,16,0,1,,,,,
1.86,,,,,,,,,j,red,57bdccc4761a3a0001a7d098,2021-09-28_12h51.49.044,forced_choiceRT_color,2021.2.3,Win32,59.93766483,,,,,,,,6,Slow,long,j,1,2.2494,4,1,17,2,1,,,,,
0.06,,,,,,,,,d,orange,57bdccc4761a3a0001a7d098,2021-09-28_12h51.49.044,forced_choiceRT_color,2021.2.3,Win32,59.93766483,,,,,,,,6,Ontime,long,d,1,1.9001,4,2,18,0,1,,,,,
0.02,,,,,,,,,j,red,57bdccc4761a3a0001a7d098,2021-09-28_12h51.49.044,forced_choiceRT_color,2021.2.3,Win32,59.93766483,,,,,,,,6,Ontime,long,j,1,2.0335,4,3,19,2,1,,,,,
1.96,,,,,,,,,k,purple,57bdccc4761a3a0001a7d098,2021-09-28_12h51.49.044,forced_choiceRT_color,2021.2.3,Win32,59.93766483,,,,,,,,6,Slow,long,k,1,2.3343,5,0,20,3,1,,,,,
0.62,,,,,,,,,f,blue,57bdccc4761a3a0001a7d098,2021-09-28_12h51.49.044,forced_choiceRT_color,2021.2.3,Win32,59.93766483,,,,,,,,6,Ontime,long,f,1,1.9336,5,1,21,1,1,,,,,
1.6,,,,,,,,,j,red,57bdccc4761a3a0001a7d098,2021-09-28_12h51.49.044,forced_choiceRT_color,2021.2.3,Win32,59.93766483,,,,,,,,6,Slow,long,j,1,2.2831,5,2,22,2,1,,,,,
1.98,,,,,,,,,k,purple,57bdccc4761a3a0001a7d098,2021-09-28_12h51.49.044,forced_choiceRT_color,2021.2.3,Win32,59.93766483,,,,,,,,6,Slow,long,j,0,2.5499,5,3,23,3,1,,,,,
1.75,,,,,,,,,j,red,57bdccc4761a3a0001a7d098,2021-09-28_12h51.49.044,forced_choiceRT_color,2021.2.3,Win32,59.93766483,,,,,,,,6,Slow,long,j,1,2.2335,6,0,24,2,1,,,,,
0.19,,,,,,,,,j,red,57bdccc4761a3a0001a7d098,2021-09-28_12h51.49.044,forced_choiceRT_color,2021.2.3,Win32,59.93766483,,,,,,,,6,Ontime,long,j,1,2.0847,6,1,25,2,1,,,,,
0.14,,,,,,,,,f,blue,57bdccc4761a3a0001a7d098,2021-09-28_12h51.49.044,forced_choiceRT_color,2021.2.3,Win32,59.93766483,,,,,,,,6,Ontime,long,f,1,2.0185,6,2,26,1,1,,,,,
0.01,,,,,,,,,j,red,57bdccc4761a3a0001a7d098,2021-09-28_12h51.49.044,forced_choiceRT_color,2021.2.3,Win32,59.93766483,,,,,,,,6,Ontime,long,j,1,2.0338,6,3,27,2,1,,,,,
0.12,,,,,,,,,k,purple,57bdccc4761a3a0001a7d098,2021-09-28_12h51.49.044,forced_choiceRT_color,2021.2.3,Win32,59.93766483,,,,,,,,6,Ontime,long,k,1,2.0162,7,0,28,3,1,,,,,
0.77,,,,,,,,,d,orange,57bdccc4761a3a0001a7d098,2021-09-28_12h51.49.044,forced_choiceRT_color,2021.2.3,Win32,59.93766483,,,,,,,,6,Ontime,long,d,1,2.0341,7,1,29,0,1,,,,,
0.37,,,,,,,,,f,blue,57bdccc4761a3a0001a7d098,2021-09-28_12h51.49.044,forced_choiceRT_color,2021.2.3,Win32,59.93766483,,,,,,,,6,Ontime,long,f,1,2.0336,7,2,30,1,1,,,,,
1.78,,,,,,,,,f,blue,57bdccc4761a3a0001a7d098,2021-09-28_12h51.49.044,forced_choiceRT_color,2021.2.3,Win32,59.93766483,,,,,,,,6,Slow,long,f,1,2.316,7,3,31,1,1,,,,,
1.18,,,,,,,,,j,red,57bdccc4761a3a0001a7d098,2021-09-28_12h51.49.044,forced_choiceRT_color,2021.2.3,Win32,59.93766483,,,,,,,,6,Fast,long,j,1,1.8994,8,0,32,2,1,,,,,
0.07,,,,,,,,,j,red,57bdccc4761a3a0001a7d098,2021-09-28_12h51.49.044,forced_choiceRT_color,2021.2.3,Win32,59.93766483,,,,,,,,6,Ontime,long,j,1,2.0181,8,1,33,2,1,,,,,
0.24,,,,,,,,,d,orange,57bdccc4761a3a0001a7d098,2021-09-28_12h51.49.044,forced_choiceRT_color,2021.2.3,Win32,59.93766483,,,,,,,,6,Ontime,long,d,1,2.0003,8,2,34,0,1,,,,,
0.78,,,,,,,,,k,purple,57bdccc4761a3a0001a7d098,2021-09-28_12h51.49.044,forced_choiceRT_color,2021.2.3,Win32,59.93766483,,,,,,,,6,Ontime,long,k,1,2.0489,8,3,35,3,1,,,,,
0.34,,,,,,,,,f,blue,57bdccc4761a3a0001a7d098,2021-09-28_12h51.49.044,forced_choiceRT_color,2021.2.3,Win32,59.93766483,,,,,,,,6,Ontime,long,f,1,2.0005,9,0,36,1,1,,,,,
1.8,,,,,,,,,d,orange,57bdccc4761a3a0001a7d098,2021-09-28_12h51.49.044,forced_choiceRT_color,2021.2.3,Win32,59.93766483,,,,,,,,6,Slow,long,j,0,2.2849,9,1,37,0,1,,,,,
1.21,,,,,,,,,f,blue,57bdccc4761a3a0001a7d098,2021-09-28_12h51.49.044,forced_choiceRT_color,2021.2.3,Win32,59.93766483,,,,,,,,6,Ontime,long,f,1,1.9341,9,2,38,1,1,,,,,
1.01,,,,,,,,,f,blue,57bdccc4761a3a0001a7d098,2021-09-28_12h51.49.044,forced_choiceRT_color,2021.2.3,Win32,59.93766483,,,,,,,,6,Ontime,long,f,1,1.9671,9,3,39,1,1,,,,,
,,,,,,,,,,,57bdccc4761a3a0001a7d098,2021-09-28_12h51.49.044,forced_choiceRT_color,2021.2.3,Win32,59.93766483,,,,,,,,,,,,,,,,,,,5,0,5,0,1
1.53,,,,,,,,,j,red,57bdccc4761a3a0001a7d098,2021-09-28_12h51.49.044,forced_choiceRT_color,2021.2.3,Win32,59.93766483,,,,,,,,7,Ontime,long,j,1,2.0509,0,0,0,2,1,,,,,
0.6,,,,,,,,,f,blue,57bdccc4761a3a0001a7d098,2021-09-28_12h51.49.044,forced_choiceRT_color,2021.2.3,Win32,59.93766483,,,,,,,,7,Ontime,long,f,1,1.9339,0,1,1,1,1,,,,,
0.66,,,,,,,,,k,purple,57bdccc4761a3a0001a7d098,2021-09-28_12h51.49.044,forced_choiceRT_color,2021.2.3,Win32,59.93766483,,,,,,,,7,Ontime,long,k,1,2.0825,0,2,2,3,1,,,,,
1.78,,,,,,,,,j,red,57bdccc4761a3a0001a7d098,2021-09-28_12h51.49.044,forced_choiceRT_color,2021.2.3,Win32,59.93766483,,,,,,,,7,Slow,long,f,0,2.2162,0,3,3,2,1,,,,,
1.68,,,,,,,,,d,orange,57bdccc4761a3a0001a7d098,2021-09-28_12h51.49.044,forced_choiceRT_color,2021.2.3,Win32,59.93766483,,,,,,,,7,Slow,long,j,0,2.1635,1,0,4,0,1,,,,,
1.64,,,,,,,,,j,red,57bdccc4761a3a0001a7d098,2021-09-28_12h51.49.044,forced_choiceRT_color,2021.2.3,Win32,59.93766483,,,,,,,,7,Slow,long,j,1,2.1007,1,1,5,2,1,,,,,
1.91,,,,,,,,,d,orange,57bdccc4761a3a0001a7d098,2021-09-28_12h51.49.044,forced_choiceRT_color,2021.2.3,Win32,59.93766483,,,,,,,,7,Slow,long,f,0,2.4386,1,2,6,0,1,,,,,
1.46,,,,,,,,,j,red,57bdccc4761a3a0001a7d098,2021-09-28_12h51.49.044,forced_choiceRT_color,2021.2.3,Win32,59.93766483,,,,,,,,7,Ontime,long,j,1,2.0051,1,3,7,2,1,,,,,
0.74,,,,,,,,,j,red,57bdccc4761a3a0001a7d098,2021-09-28_12h51.49.044,forced_choiceRT_color,2021.2.3,Win32,59.93766483,,,,,,,,7,Ontime,long,j,1,1.9593,2,0,8,2,1,,,,,
1.56,,,,,,,,,d,orange,57bdccc4761a3a0001a7d098,2021-09-28_12h51.49.044,forced_choiceRT_color,2021.2.3,Win32,59.93766483,,,,,,,,7,Ontime,long,d,1,2.0006,2,1,9,0,1,,,,,
1.1,,,,,,,,,f,blue,57bdccc4761a3a0001a7d098,2021-09-28_12h51.49.044,forced_choiceRT_color,2021.2.3,Win32,59.93766483,,,,,,,,7,Ontime,long,j,0,1.9941,2,2,10,1,1,,,,,
0.8,,,,,,,,,f,blue,57bdccc4761a3a0001a7d098,2021-09-28_12h51.49.044,forced_choiceRT_color,2021.2.3,Win32,59.93766483,,,,,,,,7,Ontime,long,j,0,1.9677,2,3,11,1,1,,,,,
1.76,,,,,,,,,k,purple,57bdccc4761a3a0001a7d098,2021-09-28_12h51.49.044,forced_choiceRT_color,2021.2.3,Win32,59.93766483,,,,,,,,7,Slow,long,k,1,2.2382,3,0,12,3,1,,,,,
0.65,,,,,,,,,d,orange,57bdccc4761a3a0001a7d098,2021-09-28_12h51.49.044,forced_choiceRT_color,2021.2.3,Win32,59.93766483,,,,,,,,7,Ontime,long,d,1,1.9625,3,1,13,0,1,,,,,
1.65,,,,,,,,,f,blue,57bdccc4761a3a0001a7d098,2021-09-28_12h51.49.044,forced_choiceRT_color,2021.2.3,Win32,59.93766483,,,,,,,,7,Slow,long,j,0,2.2651,3,2,14,1,1,,,,,
1.45,,,,,,,,,f,blue,57bdccc4761a3a0001a7d098,2021-09-28_12h51.49.044,forced_choiceRT_color,2021.2.3,Win32,59.93766483,,,,,,,,7,Ontime,long,f,1,1.9841,3,3,15,1,1,,,,,
1.17,,,,,,,,,j,red,57bdccc4761a3a0001a7d098,2021-09-28_12h51.49.044,forced_choiceRT_color,2021.2.3,Win32,59.93766483,,,,,,,,7,Ontime,long,j,1,1.967,4,0,16,2,1,,,,,
1.78,,,,,,,,,j,red,57bdccc4761a3a0001a7d098,2021-09-28_12h51.49.044,forced_choiceRT_color,2021.2.3,Win32,59.93766483,,,,,,,,7,Slow,long,j,1,2.183,4,1,17,2,1,,,,,
0.67,,,,,,,,,d,orange,57bdccc4761a3a0001a7d098,2021-09-28_12h51.49.044,forced_choiceRT_color,2021.2.3,Win32,59.93766483,,,,,,,,7,Ontime,long,d,1,1.9834,4,2,18,0,1,,,,,
0.14,,,,,,,,,f,blue,57bdccc4761a3a0001a7d098,2021-09-28_12h51.49.044,forced_choiceRT_color,2021.2.3,Win32,59.93766483,,,,,,,,7,Ontime,long,f,1,1.9579,4,3,19,1,1,,,,,
0,,,,,,,,,j,red,57bdccc4761a3a0001a7d098,2021-09-28_12h51.49.044,forced_choiceRT_color,2021.2.3,Win32,59.93766483,,,,,,,,7,Ontime,long,j,1,1.9862,5,0,20,2,1,,,,,
0.07,,,,,,,,,d,orange,57bdccc4761a3a0001a7d098,2021-09-28_12h51.49.044,forced_choiceRT_color,2021.2.3,Win32,59.93766483,,,,,,,,7,Ontime,long,d,1,1.9725,5,1,21,0,1,,,,,
1.28,,,,,,,,,k,purple,57bdccc4761a3a0001a7d098,2021-09-28_12h51.49.044,forced_choiceRT_color,2021.2.3,Win32,59.93766483,,,,,,,,7,Ontime,long,k,1,2.099,5,2,22,3,1,,,,,
1.29,,,,,,,,,k,purple,57bdccc4761a3a0001a7d098,2021-09-28_12h51.49.044,forced_choiceRT_color,2021.2.3,Win32,59.93766483,,,,,,,,7,Ontime,long,k,1,1.9726,5,3,23,3,1,,,,,
1.3,,,,,,,,,k,purple,57bdccc4761a3a0001a7d098,2021-09-28_12h51.49.044,forced_choiceRT_color,2021.2.3,Win32,59.93766483,,,,,,,,7,Ontime,long,k,1,2.0664,6,0,24,3,1,,,,,
0.16,,,,,,,,,f,blue,57bdccc4761a3a0001a7d098,2021-09-28_12h51.49.044,forced_choiceRT_color,2021.2.3,Win32,59.93766483,,,,,,,,7,Ontime,long,f,1,1.985,6,1,25,1,1,,,,,
0.61,,,,,,,,,d,orange,57bdccc4761a3a0001a7d098,2021-09-28_12h51.49.044,forced_choiceRT_color,2021.2.3,Win32,59.93766483,,,,,,,,7,Ontime,long,d,1,2.0066,6,2,26,0,1,,,,,
1.91,,,,,,,,,j,red,57bdccc4761a3a0001a7d098,2021-09-28_12h51.49.044,forced_choiceRT_color,2021.2.3,Win32,59.93766483,,,,,,,,7,Slow,long,f,0,2.3597,6,3,27,2,1,,,,,
0.3,,,,,,,,,k,purple,57bdccc4761a3a0001a7d098,2021-09-28_12h51.49.044,forced_choiceRT_color,2021.2.3,Win32,59.93766483,,,,,,,,7,Ontime,long,k,1,1.9339,7,0,28,3,1,,,,,
1.1,,,,,,,,,f,blue,57bdccc4761a3a0001a7d098,2021-09-28_12h51.49.044,forced_choiceRT_color,2021.2.3,Win32,59.93766483,,,,,,,,7,Ontime,long,j,0,2.034,7,1,29,1,1,,,,,
0.34,,,,,,,,,k,purple,57bdccc4761a3a0001a7d098,2021-09-28_12h51.49.044,forced_choiceRT_color,2021.2.3,Win32,59.93766483,,,,,,,,7,Ontime,long,k,1,2.034,7,2,30,3,1,,,,,
0.57,,,,,,,,,k,purple,57bdccc4761a3a0001a7d098,2021-09-28_12h51.49.044,forced_choiceRT_color,2021.2.3,Win32,59.93766483,,,,,,,,7,Ontime,long,k,1,1.9357,7,3,31,3,1,,,,,
0.65,,,,,,,,,k,purple,57bdccc4761a3a0001a7d098,2021-09-28_12h51.49.044,forced_choiceRT_color,2021.2.3,Win32,59.93766483,,,,,,,,7,Ontime,long,k,1,1.9676,8,0,32,3,1,,,,,
0.41,,,,,,,,,d,orange,57bdccc4761a3a0001a7d098,2021-09-28_12h51.49.044,forced_choiceRT_color,2021.2.3,Win32,59.93766483,,,,,,,,7,Ontime,long,d,1,1.9723,8,1,33,0,1,,,,,
0.79,,,,,,,,,d,orange,57bdccc4761a3a0001a7d098,2021-09-28_12h51.49.044,forced_choiceRT_color,2021.2.3,Win32,59.93766483,,,,,,,,7,Ontime,long,d,1,1.9509,8,2,34,0,1,,,,,
1.97,,,,,,,,,f,blue,57bdccc4761a3a0001a7d098,2021-09-28_12h51.49.044,forced_choiceRT_color,2021.2.3,Win32,59.93766483,,,,,,,,7,Slow,long,f,1,3.7822,8,3,35,1,1,,,,,
1.56,,,,,,,,,f,blue,57bdccc4761a3a0001a7d098,2021-09-28_12h51.49.044,forced_choiceRT_color,2021.2.3,Win32,59.93766483,,,,,,,,7,Ontime,long,f,1,2.0126,9,0,36,1,1,,,,,
1.95,,,,,,,,,j,red,57bdccc4761a3a0001a7d098,2021-09-28_12h51.49.044,forced_choiceRT_color,2021.2.3,Win32,59.93766483,,,,,,,,7,Fast,long,j,1,0.2696,9,1,37,2,1,,,,,
1.38,,,,,,,,,d,orange,57bdccc4761a3a0001a7d098,2021-09-28_12h51.49.044,forced_choiceRT_color,2021.2.3,Win32,59.93766483,,,,,,,,7,Ontime,long,d,1,2.0096,9,2,38,0,1,,,,,
0.62,,,,,,,,,k,purple,57bdccc4761a3a0001a7d098,2021-09-28_12h51.49.044,forced_choiceRT_color,2021.2.3,Win32,59.93766483,,,,,,,,7,Ontime,long,k,1,2.013,9,3,39,3,1,,,,,
,,,,,,,,,,,57bdccc4761a3a0001a7d098,2021-09-28_12h51.49.044,forced_choiceRT_color,2021.2.3,Win32,59.93766483,,,,,,,,,,,,,,,,,,,6,0,6,0,1
0.03,,,,,,,,,d,orange,57bdccc4761a3a0001a7d098,2021-09-28_12h51.49.044,forced_choiceRT_color,2021.2.3,Win32,59.93766483,,,,,,,,8,Ontime,long,d,1,1.9192,0,0,0,0,1,,,,,
0,,,,,,,,,k,purple,57bdccc4761a3a0001a7d098,2021-09-28_12h51.49.044,forced_choiceRT_color,2021.2.3,Win32,59.93766483,,,,,,,,8,Ontime,long,k,1,1.9882,0,1,1,3,1,,,,,
1.29,,,,,,,,,j,red,57bdccc4761a3a0001a7d098,2021-09-28_12h51.49.044,forced_choiceRT_color,2021.2.3,Win32,59.93766483,,,,,,,,8,Ontime,long,j,1,2.0706,0,2,2,2,1,,,,,
0.94,,,,,,,,,f,blue,57bdccc4761a3a0001a7d098,2021-09-28_12h51.49.044,forced_choiceRT_color,2021.2.3,Win32,59.93766483,,,,,,,,8,Ontime,long,f,1,2.0505,0,3,3,1,1,,,,,
0.06,,,,,,,,,j,red,57bdccc4761a3a0001a7d098,2021-09-28_12h51.49.044,forced_choiceRT_color,2021.2.3,Win32,59.93766483,,,,,,,,8,Ontime,long,j,1,1.997,1,0,4,2,1,,,,,
0.69,,,,,,,,,d,orange,57bdccc4761a3a0001a7d098,2021-09-28_12h51.49.044,forced_choiceRT_color,2021.2.3,Win32,59.93766483,,,,,,,,8,Ontime,long,d,1,2.0374,1,1,5,0,1,,,,,
1.75,,,,,,,,,d,orange,57bdccc4761a3a0001a7d098,2021-09-28_12h51.49.044,forced_choiceRT_color,2021.2.3,Win32,59.93766483,,,,,,,,8,Slow,long,d,1,2.1211,1,2,6,0,1,,,,,
0.21,,,,,,,,,f,blue,57bdccc4761a3a0001a7d098,2021-09-28_12h51.49.044,forced_choiceRT_color,2021.2.3,Win32,59.93766483,,,,,,,,8,Ontime,long,f,1,2.0676,1,3,7,1,1,,,,,
1.82,,,,,,,,,j,red,57bdccc4761a3a0001a7d098,2021-09-28_12h51.49.044,forced_choiceRT_color,2021.2.3,Win32,59.93766483,,,,,,,,8,Slow,long,j,1,2.3394,2,0,8,2,1,,,,,
1.9,,,,,,,,,j,red,57bdccc4761a3a0001a7d098,2021-09-28_12h51.49.044,forced_choiceRT_color,2021.2.3,Win32,59.93766483,,,,,,,,8,Slow,long,j,1,2.2505,2,1,9,2,1,,,,,
1.06,,,,,,,,,k,purple,57bdccc4761a3a0001a7d098,2021-09-28_12h51.49.044,forced_choiceRT_color,2021.2.3,Win32,59.93766483,,,,,,,,8,Ontime,long,k,1,2.0499,2,2,10,3,1,,,,,
1.17,,,,,,,,,k,purple,57bdccc4761a3a0001a7d098,2021-09-28_12h51.49.044,forced_choiceRT_color,2021.2.3,Win32,59.93766483,,,,,,,,8,Fast,long,k,1,1.8165,2,3,11,3,1,,,,,
0.68,,,,,,,,,d,orange,57bdccc4761a3a0001a7d098,2021-09-28_12h51.49.044,forced_choiceRT_color,2021.2.3,Win32,59.93766483,,,,,,,,8,Slow,long,d,1,2.9665,3,0,12,0,1,,,,,
0.3,,,,,,,,,j,red,57bdccc4761a3a0001a7d098,2021-09-28_12h51.49.044,forced_choiceRT_color,2021.2.3,Win32,59.93766483,,,,,,,,8,Slow,long,j,1,2.1337,3,1,13,2,1,,,,,
0.59,,,,,,,,,d,orange,57bdccc4761a3a0001a7d098,2021-09-28_12h51.49.044,forced_choiceRT_color,2021.2.3,Win32,59.93766483,,,,,,,,8,Ontime,long,d,1,1.9503,3,2,14,0,1,,,,,
1.4,,,,,,,,,j,red,57bdccc4761a3a0001a7d098,2021-09-28_12h51.49.044,forced_choiceRT_color,2021.2.3,Win32,59.93766483,,,,,,,,8,Ontime,long,f,0,1.9216,3,3,15,2,1,,,,,
0.54,,,,,,,,,f,blue,57bdccc4761a3a0001a7d098,2021-09-28_12h51.49.044,forced_choiceRT_color,2021.2.3,Win32,59.93766483,,,,,,,,8,Ontime,long,f,1,1.967,4,0,16,1,1,,,,,
0.89,,,,,,,,,d,orange,57bdccc4761a3a0001a7d098,2021-09-28_12h51.49.044,forced_choiceRT_color,2021.2.3,Win32,59.93766483,,,,,,,,8,Slow,long,d,1,2.108,4,1,17,0,1,,,,,
1.49,,,,,,,,,k,purple,57bdccc4761a3a0001a7d098,2021-09-28_12h51.49.044,forced_choiceRT_color,2021.2.3,Win32,59.93766483,,,,,,,,8,Ontime,long,j,0,1.9298,4,2,18,3,1,,,,,
1.48,,,,,,,,,f,blue,57bdccc4761a3a0001a7d098,2021-09-28_12h51.49.044,forced_choiceRT_color,2021.2.3,Win32,59.93766483,,,,,,,,8,Ontime,long,j,0,2.0064,4,3,19,1,1,,,,,
0.1,,,,,,,,,k,purple,57bdccc4761a3a0001a7d098,2021-09-28_12h51.49.044,forced_choiceRT_color,2021.2.3,Win32,59.93766483,,,,,,,,8,Ontime,long,k,1,2.0003,5,0,20,3,1,,,,,
1.16,,,,,,,,,f,blue,57bdccc4761a3a0001a7d098,2021-09-28_12h51.49.044,forced_choiceRT_color,2021.2.3,Win32,59.93766483,,,,,,,,8,Ontime,long,f,1,2.0829,5,1,21,1,1,,,,,
0.36,,,,,,,,,f,blue,57bdccc4761a3a0001a7d098,2021-09-28_12h51.49.044,forced_choiceRT_color,2021.2.3,Win32,59.93766483,,,,,,,,8,Ontime,long,f,1,1.971,5,2,22,1,1,,,,,
0.91,,,,,,,,,d,orange,57bdccc4761a3a0001a7d098,2021-09-28_12h51.49.044,forced_choiceRT_color,2021.2.3,Win32,59.93766483,,,,,,,,8,Ontime,long,d,1,1.9939,5,3,23,0,1,,,,,
0.55,,,,,,,,,d,orange,57bdccc4761a3a0001a7d098,2021-09-28_12h51.49.044,forced_choiceRT_color,2021.2.3,Win32,59.93766483,,,,,,,,8,Ontime,long,d,1,1.969,6,0,24,0,1,,,,,
0.01,,,,,,,,,j,red,57bdccc4761a3a0001a7d098,2021-09-28_12h51.49.044,forced_choiceRT_color,2021.2.3,Win32,59.93766483,,,,,,,,8,Ontime,long,j,1,1.9891,6,1,25,2,1,,,,,
1.85,,,,,,,,,f,blue,57bdccc4761a3a0001a7d098,2021-09-28_12h51.49.044,forced_choiceRT_color,2021.2.3,Win32,59.93766483,,,,,,,,8,Slow,long,f,1,2.5713,6,2,26,1,1,,,,,
1.46,,,,,,,,,f,blue,57bdccc4761a3a0001a7d098,2021-09-28_12h51.49.044,forced_choiceRT_color,2021.2.3,Win32,59.93766483,,,,,,,,8,Ontime,long,f,1,2.0125,6,3,27,1,1,,,,,
1.5,,,,,,,,,d,orange,57bdccc4761a3a0001a7d098,2021-09-28_12h51.49.044,forced_choiceRT_color,2021.2.3,Win32,59.93766483,,,,,,,,8,Ontime,long,f,0,2.0672,7,0,28,0,1,,,,,
1.55,,,,,,,,,k,purple,57bdccc4761a3a0001a7d098,2021-09-28_12h51.49.044,forced_choiceRT_color,2021.2.3,Win32,59.93766483,,,,,,,,8,Ontime,long,k,1,2.0835,7,1,29,3,1,,,,,
0.85,,,,,,,,,k,purple,57bdccc4761a3a0001a7d098,2021-09-28_12h51.49.044,forced_choiceRT_color,2021.2.3,Win32,59.93766483,,,,,,,,8,Ontime,long,k,1,1.9847,7,2,30,3,1,,,,,
0.21,,,,,,,,,k,purple,57bdccc4761a3a0001a7d098,2021-09-28_12h51.49.044,forced_choiceRT_color,2021.2.3,Win32,59.93766483,,,,,,,,8,Ontime,long,k,1,1.968,7,3,31,3,1,,,,,
1.02,,,,,,,,,k,purple,57bdccc4761a3a0001a7d098,2021-09-28_12h51.49.044,forced_choiceRT_color,2021.2.3,Win32,59.93766483,,,,,,,,8,Ontime,long,k,1,2.0639,8,0,32,3,1,,,,,
0.84,,,,,,,,,f,blue,57bdccc4761a3a0001a7d098,2021-09-28_12h51.49.044,forced_choiceRT_color,2021.2.3,Win32,59.93766483,,,,,,,,8,Slow,long,f,1,2.134,8,1,33,1,1,,,,,
1.96,,,,,,,,,k,purple,57bdccc4761a3a0001a7d098,2021-09-28_12h51.49.044,forced_choiceRT_color,2021.2.3,Win32,59.93766483,,,,,,,,8,Fast,long,j,0,0.2231,8,2,34,3,1,,,,,
0.84,,,,,,,,,j,red,57bdccc4761a3a0001a7d098,2021-09-28_12h51.49.044,forced_choiceRT_color,2021.2.3,Win32,59.93766483,,,,,,,,8,Fast,long,j,1,1.7668,8,3,35,2,1,,,,,
1.31,,,,,,,,,d,orange,57bdccc4761a3a0001a7d098,2021-09-28_12h51.49.044,forced_choiceRT_color,2021.2.3,Win32,59.93766483,,,,,,,,8,Ontime,long,d,1,1.9835,9,0,36,0,1,,,,,
0.81,,,,,,,,,f,blue,57bdccc4761a3a0001a7d098,2021-09-28_12h51.49.044,forced_choiceRT_color,2021.2.3,Win32,59.93766483,,,,,,,,8,Ontime,long,j,0,1.9682,9,1,37,1,1,,,,,
1.52,,,,,,,,,j,red,57bdccc4761a3a0001a7d098,2021-09-28_12h51.49.044,forced_choiceRT_color,2021.2.3,Win32,59.93766483,,,,,,,,8,Ontime,long,f,0,2.0794,9,2,38,2,1,,,,,
1.48,,,,,,,,,j,red,57bdccc4761a3a0001a7d098,2021-09-28_12h51.49.044,forced_choiceRT_color,2021.2.3,Win32,59.93766483,,,,,,,,8,Ontime,long,j,1,2.0311,9,3,39,2,1,,,,,
,,,,,,,,,,,57bdccc4761a3a0001a7d098,2021-09-28_12h51.49.044,forced_choiceRT_color,2021.2.3,Win32,59.93766483,,,,,,,,,,,,,,,,,,,7,0,7,0,1
1.08,,,,,,,,,j,red,57bdccc4761a3a0001a7d098,2021-09-28_12h51.49.044,forced_choiceRT_color,2021.2.3,Win32,59.93766483,,,,,,,,9,Fast,long,j,1,1.7337,0,0,0,2,1,,,,,
1.15,,,,,,,,,f,blue,57bdccc4761a3a0001a7d098,2021-09-28_12h51.49.044,forced_choiceRT_color,2021.2.3,Win32,59.93766483,,,,,,,,9,Ontime,long,f,1,1.9358,0,1,1,1,1,,,,,
0.21,,,,,,,,,j,red,57bdccc4761a3a0001a7d098,2021-09-28_12h51.49.044,forced_choiceRT_color,2021.2.3,Win32,59.93766483,,,,,,,,9,Ontime,long,j,1,1.9831,0,2,2,2,1,,,,,
0.73,,,,,,,,,k,purple,57bdccc4761a3a0001a7d098,2021-09-28_12h51.49.044,forced_choiceRT_color,2021.2.3,Win32,59.93766483,,,,,,,,9,Ontime,long,k,1,1.9835,0,3,3,3,1,,,,,
0.26,,,,,,,,,k,purple,57bdccc4761a3a0001a7d098,2021-09-28_12h51.49.044,forced_choiceRT_color,2021.2.3,Win32,59.93766483,,,,,,,,9,Ontime,long,k,1,1.9838,1,0,4,3,1,,,,,
1.96,,,,,,,,,d,orange,57bdccc4761a3a0001a7d098,2021-09-28_12h51.49.044,forced_choiceRT_color,2021.2.3,Win32,59.93766483,,,,,,,,9,Slow,long,f,0,2.5144,1,1,5,0,1,,,,,
0.61,,,,,,,,,j,red,57bdccc4761a3a0001a7d098,2021-09-28_12h51.49.044,forced_choiceRT_color,2021.2.3,Win32,59.93766483,,,,,,,,9,Ontime,long,j,1,2.0039,1,2,6,2,1,,,,,
1.06,,,,,,,,,d,orange,57bdccc4761a3a0001a7d098,2021-09-28_12h51.49.044,forced_choiceRT_color,2021.2.3,Win32,59.93766483,,,,,,,,9,Ontime,long,d,1,2.0014,1,3,7,0,1,,,,,
1.35,,,,,,,,,f,blue,57bdccc4761a3a0001a7d098,2021-09-28_12h51.49.044,forced_choiceRT_color,2021.2.3,Win32,59.93766483,,,,,,,,9,Ontime,long,j,0,1.9257,2,0,8,1,1,,,,,
0.09,,,,,,,,,d,orange,57bdccc4761a3a0001a7d098,2021-09-28_12h51.49.044,forced_choiceRT_color,2021.2.3,Win32,59.93766483,,,,,,,,9,Ontime,long,d,1,1.9041,2,1,9,0,1,,,,,
0.33,,,,,,,,,d,orange,57bdccc4761a3a0001a7d098,2021-09-28_12h51.49.044,forced_choiceRT_color,2021.2.3,Win32,59.93766483,,,,,,,,9,Ontime,long,d,1,2.0392,2,2,10,0,1,,,,,
0.23,,,,,,,,,f,blue,57bdccc4761a3a0001a7d098,2021-09-28_12h51.49.044,forced_choiceRT_color,2021.2.3,Win32,59.93766483,,,,,,,,9,Ontime,long,f,1,2.0079,2,3,11,1,1,,,,,
1.39,,,,,,,,,f,blue,57bdccc4761a3a0001a7d098,2021-09-28_12h51.49.044,forced_choiceRT_color,2021.2.3,Win32,59.93766483,,,,,,,,9,Ontime,long,f,1,1.908,3,0,12,1,1,,,,,
0,,,,,,,,,k,purple,57bdccc4761a3a0001a7d098,2021-09-28_12h51.49.044,forced_choiceRT_color,2021.2.3,Win32,59.93766483,,,,,,,,9,Ontime,long,k,1,2.0014,3,1,13,3,1,,,,,
0.94,,,,,,,,,j,red,57bdccc4761a3a0001a7d098,2021-09-28_12h51.49.044,forced_choiceRT_color,2021.2.3,Win32,59.93766483,,,,,,,,9,Ontime,long,j,1,1.9107,3,2,14,2,1,,,,,
1.24,,,,,,,,,k,purple,57bdccc4761a3a0001a7d098,2021-09-28_12h51.49.044,forced_choiceRT_color,2021.2.3,Win32,59.93766483,,,,,,,,9,Fast,long,k,1,1.8994,3,3,15,3,1,,,,,
1.09,,,,,,,,,d,orange,57bdccc4761a3a0001a7d098,2021-09-28_12h51.49.044,forced_choiceRT_color,2021.2.3,Win32,59.93766483,,,,,,,,9,Fast,long,d,1,1.8671,4,0,16,0,1,,,,,
0.93,,,,,,,,,f,blue,57bdccc4761a3a0001a7d098,2021-09-28_12h51.49.044,forced_choiceRT_color,2021.2.3,Win32,59.93766483,,,,,,,,9,Slow,long,f,1,2.1551,4,1,17,1,1,,,,,
0.85,,,,,,,,,k,purple,57bdccc4761a3a0001a7d098,2021-09-28_12h51.49.044,forced_choiceRT_color,2021.2.3,Win32,59.93766483,,,,,,,,9,Ontime,long,k,1,2.0006,4,2,18,3,1,,,,,
1.55,,,,,,,,,j,red,57bdccc4761a3a0001a7d098,2021-09-28_12h51.49.044,forced_choiceRT_color,2021.2.3,Win32,59.93766483,,,,,,,,9,Slow,long,f,0,2.35,4,3,19,2,1,,,,,
1.84,,,,,,,,,f,blue,57bdccc4761a3a0001a7d098,2021-09-28_12h51.49.044,forced_choiceRT_color,2021.2.3,Win32,59.93766483,,,,,,,,9,Slow,long,f,1,2.4602,5,0,20,1,1,,,,,
0.79,,,,,,,,,f,blue,57bdccc4761a3a0001a7d098,2021-09-28_12h51.49.044,forced_choiceRT_color,2021.2.3,Win32,59.93766483,,,,,,,,9,Ontime,long,f,1,1.9687,5,1,21,1,1,,,,,
1.25,,,,,,,,,f,blue,57bdccc4761a3a0001a7d098,2021-09-28_12h51.49.044,forced_choiceRT_color,2021.2.3,Win32,59.93766483,,,,,,,,9,Ontime,long,f,1,1.9698,5,2,22,1,1,,,,,
1.81,,,,,,,,,j,red,57bdccc4761a3a0001a7d098,2021-09-28_12h51.49.044,forced_choiceRT_color,2021.2.3,Win32,59.93766483,,,,,,,,9,Slow,long,j,1,2.334,5,3,23,2,1,,,,,
1.26,,,,,,,,,k,purple,57bdccc4761a3a0001a7d098,2021-09-28_12h51.49.044,forced_choiceRT_color,2021.2.3,Win32,59.93766483,,,,,,,,9,Ontime,long,k,1,1.9842,6,0,24,3,1,,,,,
1.81,,,,,,,,,k,purple,57bdccc4761a3a0001a7d098,2021-09-28_12h51.49.044,forced_choiceRT_color,2021.2.3,Win32,59.93766483,,,,,,,,9,Slow,long,k,1,2.2618,6,1,25,3,1,,,,,
1.97,,,,,,,,,j,red,57bdccc4761a3a0001a7d098,2021-09-28_12h51.49.044,forced_choiceRT_color,2021.2.3,Win32,59.93766483,,,,,,,,9,Slow,long,f,0,2.4685,6,2,26,2,1,,,,,
1.85,,,,,,,,,d,orange,57bdccc4761a3a0001a7d098,2021-09-28_12h51.49.044,forced_choiceRT_color,2021.2.3,Win32,59.93766483,,,,,,,,9,Slow,long,d,1,2.3878,6,3,27,0,1,,,,,
1.94,,,,,,,,,j,red,57bdccc4761a3a0001a7d098,2021-09-28_12h51.49.044,forced_choiceRT_color,2021.2.3,Win32,59.93766483,,,,,,,,9,Slow,long,f,0,2.4741,7,0,28,2,1,,,,,
0.16,,,,,,,,,k,purple,57bdccc4761a3a0001a7d098,2021-09-28_12h51.49.044,forced_choiceRT_color,2021.2.3,Win32,59.93766483,,,,,,,,9,Ontime,long,k,1,2.0338,7,1,29,3,1,,,,,
0.17,,,,,,,,,d,orange,57bdccc4761a3a0001a7d098,2021-09-28_12h51.49.044,forced_choiceRT_color,2021.2.3,Win32,59.93766483,,,,,,,,9,Ontime,long,d,1,1.9311,7,2,30,0,1,,,,,
1.89,,,,,,,,,k,purple,57bdccc4761a3a0001a7d098,2021-09-28_12h51.49.044,forced_choiceRT_color,2021.2.3,Win32,59.93766483,,,,,,,,9,Slow,long,k,1,2.4781,7,3,31,3,1,,,,,
1.84,,,,,,,,,k,purple,57bdccc4761a3a0001a7d098,2021-09-28_12h51.49.044,forced_choiceRT_color,2021.2.3,Win32,59.93766483,,,,,,,,9,Slow,long,k,1,2.2562,8,0,32,3,1,,,,,
0.81,,,,,,,,,j,red,57bdccc4761a3a0001a7d098,2021-09-28_12h51.49.044,forced_choiceRT_color,2021.2.3,Win32,59.93766483,,,,,,,,9,Fast,long,j,1,1.7269,8,1,33,2,1,,,,,
1.19,,,,,,,,,d,orange,57bdccc4761a3a0001a7d098,2021-09-28_12h51.49.044,forced_choiceRT_color,2021.2.3,Win32,59.93766483,,,,,,,,9,Fast,long,d,1,1.7892,8,2,34,0,1,,,,,
1.48,,,,,,,,,j,red,57bdccc4761a3a0001a7d098,2021-09-28_12h51.49.044,forced_choiceRT_color,2021.2.3,Win32,59.93766483,,,,,,,,9,Ontime,long,j,1,2.049,8,3,35,2,1,,,,,
0.07,,,,,,,,,f,blue,57bdccc4761a3a0001a7d098,2021-09-28_12h51.49.044,forced_choiceRT_color,2021.2.3,Win32,59.93766483,,,,,,,,9,Ontime,long,f,1,1.9168,9,0,36,1,1,,,,,
0.48,,,,,,,,,f,blue,57bdccc4761a3a0001a7d098,2021-09-28_12h51.49.044,forced_choiceRT_color,2021.2.3,Win32,59.93766483,,,,,,,,9,Ontime,long,f,1,2.0062,9,1,37,1,1,,,,,
1.12,,,,,,,,,d,orange,57bdccc4761a3a0001a7d098,2021-09-28_12h51.49.044,forced_choiceRT_color,2021.2.3,Win32,59.93766483,,,,,,,,9,Fast,long,d,1,1.834,9,2,38,0,1,,,,,
0.64,,,,,,,,,d,orange,57bdccc4761a3a0001a7d098,2021-09-28_12h51.49.044,forced_choiceRT_color,2021.2.3,Win32,59.93766483,,,,,,,,9,Ontime,long,d,1,1.9688,9,3,39,0,1,,,,,
,,,,,,,,,,,57bdccc4761a3a0001a7d098,2021-09-28_12h51.49.044,forced_choiceRT_color,2021.2.3,Win32,59.93766483,,,,,,,,,,,,,,,,,,,8,0,8,0,1
0.48,,,,,,,,,j,red,57bdccc4761a3a0001a7d098,2021-09-28_12h51.49.044,forced_choiceRT_color,2021.2.3,Win32,59.93766483,,,,,,,,10,Ontime,long,j,1,2.034,0,0,0,2,1,,,,,
0.48,,,,,,,,,f,blue,57bdccc4761a3a0001a7d098,2021-09-28_12h51.49.044,forced_choiceRT_color,2021.2.3,Win32,59.93766483,,,,,,,,10,Ontime,long,f,1,2.0515,0,1,1,1,1,,,,,
1.37,,,,,,,,,f,blue,57bdccc4761a3a0001a7d098,2021-09-28_12h51.49.044,forced_choiceRT_color,2021.2.3,Win32,59.93766483,,,,,,,,10,Fast,long,f,1,1.8851,0,2,2,1,1,,,,,
0.17,,,,,,,,,d,orange,57bdccc4761a3a0001a7d098,2021-09-28_12h51.49.044,forced_choiceRT_color,2021.2.3,Win32,59.93766483,,,,,,,,10,Ontime,long,d,1,2.0069,0,3,3,0,1,,,,,
0.35,,,,,,,,,k,purple,57bdccc4761a3a0001a7d098,2021-09-28_12h51.49.044,forced_choiceRT_color,2021.2.3,Win32,59.93766483,,,,,,,,10,Ontime,long,k,1,2.0103,1,0,4,3,1,,,,,
0.39,,,,,,,,,f,blue,57bdccc4761a3a0001a7d098,2021-09-28_12h51.49.044,forced_choiceRT_color,2021.2.3,Win32,59.93766483,,,,,,,,10,Ontime,long,f,1,2.0377,1,1,5,1,1,,,,,
0.11,,,,,,,,,k,purple,57bdccc4761a3a0001a7d098,2021-09-28_12h51.49.044,forced_choiceRT_color,2021.2.3,Win32,59.93766483,,,,,,,,10,Ontime,long,k,1,2.0475,1,2,6,3,1,,,,,
1.77,,,,,,,,,k,purple,57bdccc4761a3a0001a7d098,2021-09-28_12h51.49.044,forced_choiceRT_color,2021.2.3,Win32,59.93766483,,,,,,,,10,Slow,long,j,0,2.2687,1,3,7,3,1,,,,,
0.16,,,,,,,,,j,red,57bdccc4761a3a0001a7d098,2021-09-28_12h51.49.044,forced_choiceRT_color,2021.2.3,Win32,59.93766483,,,,,,,,10,Ontime,long,j,1,1.9909,2,0,8,2,1,,,,,
0.67,,,,,,,,,k,purple,57bdccc4761a3a0001a7d098,2021-09-28_12h51.49.044,forced_choiceRT_color,2021.2.3,Win32,59.93766483,,,,,,,,10,Ontime,long,k,1,1.9738,2,1,9,3,1,,,,,
1.53,,,,,,,,,k,purple,57bdccc4761a3a0001a7d098,2021-09-28_12h51.49.044,forced_choiceRT_color,2021.2.3,Win32,59.93766483,,,,,,,,10,Ontime,long,k,1,2.0005,2,2,10,3,1,,,,,
1.32,,,,,,,,,d,orange,57bdccc4761a3a0001a7d098,2021-09-28_12h51.49.044,forced_choiceRT_color,2021.2.3,Win32,59.93766483,,,,,,,,10,Ontime,long,d,1,1.9497,2,3,11,0,1,,,,,
1.07,,,,,,,,,d,orange,57bdccc4761a3a0001a7d098,2021-09-28_12h51.49.044,forced_choiceRT_color,2021.2.3,Win32,59.93766483,,,,,,,,10,Ontime,long,d,1,2.0901,3,0,12,0,1,,,,,
1.52,,,,,,,,,j,red,57bdccc4761a3a0001a7d098,2021-09-28_12h51.49.044,forced_choiceRT_color,2021.2.3,Win32,59.93766483,,,,,,,,10,Slow,long,j,1,2.1701,3,1,13,2,1,,,,,
1.8,,,,,,,,,f,blue,57bdccc4761a3a0001a7d098,2021-09-28_12h51.49.044,forced_choiceRT_color,2021.2.3,Win32,59.93766483,,,,,,,,10,Slow,long,f,1,2.3664,3,2,14,1,1,,,,,
0.12,,,,,,,,,d,orange,57bdccc4761a3a0001a7d098,2021-09-28_12h51.49.044,forced_choiceRT_color,2021.2.3,Win32,59.93766483,,,,,,,,10,Slow,long,d,1,2.1168,3,3,15,0,1,,,,,
0.87,,,,,,,,,j,red,57bdccc4761a3a0001a7d098,2021-09-28_12h51.49.044,forced_choiceRT_color,2021.2.3,Win32,59.93766483,,,,,,,,10,Slow,long,f,0,2.2245,4,0,16,2,1,,,,,
1.04,,,,,,,,,k,purple,57bdccc4761a3a0001a7d098,2021-09-28_12h51.49.044,forced_choiceRT_color,2021.2.3,Win32,59.93766483,,,,,,,,10,Ontime,long,k,1,2.0841,4,1,17,3,1,,,,,
1.91,,,,,,,,,d,orange,57bdccc4761a3a0001a7d098,2021-09-28_12h51.49.044,forced_choiceRT_color,2021.2.3,Win32,59.93766483,,,,,,,,10,Slow,long,j,0,2.3619,4,2,18,0,1,,,,,
0.26,,,,,,,,,j,red,57bdccc4761a3a0001a7d098,2021-09-28_12h51.49.044,forced_choiceRT_color,2021.2.3,Win32,59.93766483,,,,,,,,10,Ontime,long,j,1,2.0148,4,3,19,2,1,,,,,
0.85,,,,,,,,,d,orange,57bdccc4761a3a0001a7d098,2021-09-28_12h51.49.044,forced_choiceRT_color,2021.2.3,Win32,59.93766483,,,,,,,,10,Ontime,long,d,1,1.9451,5,0,20,0,1,,,,,
0.89,,,,,,,,,d,orange,57bdccc4761a3a0001a7d098,2021-09-28_12h51.49.044,forced_choiceRT_color,2021.2.3,Win32,59.93766483,,,,,,,,10,Ontime,long,d,1,1.9262,5,1,21,0,1,,,,,
1.97,,,,,,,,,d,orange,57bdccc4761a3a0001a7d098,2021-09-28_12h51.49.044,forced_choiceRT_color,2021.2.3,Win32,59.93766483,,,,,,,,10,Slow,long,j,0,2.3383,5,2,22,0,1,,,,,
1.81,,,,,,,,,j,red,57bdccc4761a3a0001a7d098,2021-09-28_12h51.49.044,forced_choiceRT_color,2021.2.3,Win32,59.93766483,,,,,,,,10,Slow,long,j,1,2.295,5,3,23,2,1,,,,,
0.57,,,,,,,,,j,red,57bdccc4761a3a0001a7d098,2021-09-28_12h51.49.044,forced_choiceRT_color,2021.2.3,Win32,59.93766483,,,,,,,,10,Ontime,long,j,1,1.9004,6,0,24,2,1,,,,,
1.37,,,,,,,,,f,blue,57bdccc4761a3a0001a7d098,2021-09-28_12h51.49.044,forced_choiceRT_color,2021.2.3,Win32,59.93766483,,,,,,,,10,Ontime,long,f,1,2.0013,6,1,25,1,1,,,,,
0.08,,,,,,,,,f,blue,57bdccc4761a3a0001a7d098,2021-09-28_12h51.49.044,forced_choiceRT_color,2021.2.3,Win32,59.93766483,,,,,,,,10,Ontime,long,f,1,1.9486,6,2,26,1,1,,,,,
1.41,,,,,,,,,f,blue,57bdccc4761a3a0001a7d098,2021-09-28_12h51.49.044,forced_choiceRT_color,2021.2.3,Win32,59.93766483,,,,,,,,10,Slow,long,f,1,2.1218,6,3,27,1,1,,,,,
0.4,,,,,,,,,j,red,57bdccc4761a3a0001a7d098,2021-09-28_12h51.49.044,forced_choiceRT_color,2021.2.3,Win32,59.93766483,,,,,,,,10,Fast,long,j,1,1.7551,7,0,28,2,1,,,,,
1.25,,,,,,,,,f,blue,57bdccc4761a3a0001a7d098,2021-09-28_12h51.49.044,forced_choiceRT_color,2021.2.3,Win32,59.93766483,,,,,,,,10,Slow,long,d,0,2.3,7,1,29,1,1,,,,,
0.06,,,,,,,,,k,purple,57bdccc4761a3a0001a7d098,2021-09-28_12h51.49.044,forced_choiceRT_color,2021.2.3,Win32,59.93766483,,,,,,,,10,Ontime,long,k,1,2.0007,7,2,30,3,1,,,,,
1.19,,,,,,,,,d,orange,57bdccc4761a3a0001a7d098,2021-09-28_12h51.49.044,forced_choiceRT_color,2021.2.3,Win32,59.93766483,,,,,,,,10,Ontime,long,d,1,1.9144,7,3,31,0,1,,,,,
0.67,,,,,,,,,f,blue,57bdccc4761a3a0001a7d098,2021-09-28_12h51.49.044,forced_choiceRT_color,2021.2.3,Win32,59.93766483,,,,,,,,10,Fast,long,j,0,1.8656,8,0,32,1,1,,,,,
0.15,,,,,,,,,k,purple,57bdccc4761a3a0001a7d098,2021-09-28_12h51.49.044,forced_choiceRT_color,2021.2.3,Win32,59.93766483,,,,,,,,10,Ontime,long,k,1,2,8,1,33,3,1,,,,,
0.87,,,,,,,,,k,purple,57bdccc4761a3a0001a7d098,2021-09-28_12h51.49.044,forced_choiceRT_color,2021.2.3,Win32,59.93766483,,,,,,,,10,Ontime,long,j,0,1.9003,8,2,34,3,1,,,,,
1.21,,,,,,,,,j,red,57bdccc4761a3a0001a7d098,2021-09-28_12h51.49.044,forced_choiceRT_color,2021.2.3,Win32,59.93766483,,,,,,,,10,Ontime,long,j,1,1.9199,8,3,35,2,1,,,,,
0.56,,,,,,,,,d,orange,57bdccc4761a3a0001a7d098,2021-09-28_12h51.49.044,forced_choiceRT_color,2021.2.3,Win32,59.93766483,,,,,,,,10,Ontime,long,d,1,2.051,9,0,36,0,1,,,,,
0.02,,,,,,,,,f,blue,57bdccc4761a3a0001a7d098,2021-09-28_12h51.49.044,forced_choiceRT_color,2021.2.3,Win32,59.93766483,,,,,,,,10,Ontime,long,f,1,2.0668,9,1,37,1,1,,,,,
0.87,,,,,,,,,j,red,57bdccc4761a3a0001a7d098,2021-09-28_12h51.49.044,forced_choiceRT_color,2021.2.3,Win32,59.93766483,,,,,,,,10,Fast,long,j,1,1.8976,9,2,38,2,1,,,,,
1.93,,,,,,,,,k,purple,57bdccc4761a3a0001a7d098,2021-09-28_12h51.49.044,forced_choiceRT_color,2021.2.3,Win32,59.93766483,,,,,,,,10,Slow,long,k,1,2.4355,9,3,39,3,1,,,,,
,,,,,,,,,,,57bdccc4761a3a0001a7d098,2021-09-28_12h51.49.044,forced_choiceRT_color,2021.2.3,Win32,59.93766483,,,,,,,,,,,,,,,,,,,9,0,9,0,1
