target_onset,trial_resp_sp.keys,trial_resp_sp.corr,trial_resp_sp.rt,trials_train_loop.thisRepN,trials_train_loop.thisTrialN,trials_train_loop.thisN,trials_train_loop.thisIndex,trials_train_loop.ran,correct_key,color,participant,date,expName,psychopyVersion,OS,frameRate,trial_resp_timing.keys,trial_resp_timing.rt,trials_train_timing.thisRepN,trials_train_timing.thisTrialN,trials_train_timing.thisN,trials_train_timing.thisIndex,trials_train_timing.ran,block_id,ontime,feedback_cond,forcedRT_resp.keys,forcedRT_resp.corr,forcedRT_resp.rt,trials.thisRepN,trials.thisTrialN,trials.thisN,trials.thisIndex,trials.ran,blocks.thisRepN,blocks.thisTrialN,blocks.thisN,blocks.thisIndex,blocks.ran
0,j,1,1.5379,0,0,0,2,1,j,red,582ee44408b46b00010dbb07,2021-10-22_14h02.39.969,forced_choiceRT_color,2021.2.3,Win32,143.9884809,,,,,,,,,,,,,,,,,,,,,,,
0,k,1,0.7244,0,1,1,3,1,k,purple,582ee44408b46b00010dbb07,2021-10-22_14h02.39.969,forced_choiceRT_color,2021.2.3,Win32,143.9884809,,,,,,,,,,,,,,,,,,,,,,,
0,j,1,0.7038,0,2,2,2,1,j,red,582ee44408b46b00010dbb07,2021-10-22_14h02.39.969,forced_choiceRT_color,2021.2.3,Win32,143.9884809,,,,,,,,,,,,,,,,,,,,,,,
0,d,1,1.2301,0,3,3,0,1,d,orange,582ee44408b46b00010dbb07,2021-10-22_14h02.39.969,forced_choiceRT_color,2021.2.3,Win32,143.9884809,,,,,,,,,,,,,,,,,,,,,,,
0,f,1,0.6267,1,0,4,1,1,f,blue,582ee44408b46b00010dbb07,2021-10-22_14h02.39.969,forced_choiceRT_color,2021.2.3,Win32,143.9884809,,,,,,,,,,,,,,,,,,,,,,,
0,d,1,0.6781,1,1,5,0,1,d,orange,582ee44408b46b00010dbb07,2021-10-22_14h02.39.969,forced_choiceRT_color,2021.2.3,Win32,143.9884809,,,,,,,,,,,,,,,,,,,,,,,
0,f,1,0.5639,1,2,6,1,1,f,blue,582ee44408b46b00010dbb07,2021-10-22_14h02.39.969,forced_choiceRT_color,2021.2.3,Win32,143.9884809,,,,,,,,,,,,,,,,,,,,,,,
0,d,1,0.6257,1,3,7,0,1,d,orange,582ee44408b46b00010dbb07,2021-10-22_14h02.39.969,forced_choiceRT_color,2021.2.3,Win32,143.9884809,,,,,,,,,,,,,,,,,,,,,,,
0,j,1,0.5571,2,0,8,2,1,j,red,582ee44408b46b00010dbb07,2021-10-22_14h02.39.969,forced_choiceRT_color,2021.2.3,Win32,143.9884809,,,,,,,,,,,,,,,,,,,,,,,
0,j,1,0.563,2,1,9,2,1,j,red,582ee44408b46b00010dbb07,2021-10-22_14h02.39.969,forced_choiceRT_color,2021.2.3,Win32,143.9884809,,,,,,,,,,,,,,,,,,,,,,,
0,j,1,0.5129,2,2,10,2,1,j,red,582ee44408b46b00010dbb07,2021-10-22_14h02.39.969,forced_choiceRT_color,2021.2.3,Win32,143.9884809,,,,,,,,,,,,,,,,,,,,,,,
0,f,1,0.8005,2,3,11,1,1,f,blue,582ee44408b46b00010dbb07,2021-10-22_14h02.39.969,forced_choiceRT_color,2021.2.3,Win32,143.9884809,,,,,,,,,,,,,,,,,,,,,,,
0,f,1,0.5198,3,0,12,1,1,f,blue,582ee44408b46b00010dbb07,2021-10-22_14h02.39.969,forced_choiceRT_color,2021.2.3,Win32,143.9884809,,,,,,,,,,,,,,,,,,,,,,,
0,k,1,0.5911,3,1,13,3,1,k,purple,582ee44408b46b00010dbb07,2021-10-22_14h02.39.969,forced_choiceRT_color,2021.2.3,Win32,143.9884809,,,,,,,,,,,,,,,,,,,,,,,
0,j,1,0.5476,3,2,14,2,1,j,red,582ee44408b46b00010dbb07,2021-10-22_14h02.39.969,forced_choiceRT_color,2021.2.3,Win32,143.9884809,,,,,,,,,,,,,,,,,,,,,,,
0,f,1,0.7569,3,3,15,1,1,f,blue,582ee44408b46b00010dbb07,2021-10-22_14h02.39.969,forced_choiceRT_color,2021.2.3,Win32,143.9884809,,,,,,,,,,,,,,,,,,,,,,,
0,j,1,0.6333,4,0,16,2,1,j,red,582ee44408b46b00010dbb07,2021-10-22_14h02.39.969,forced_choiceRT_color,2021.2.3,Win32,143.9884809,,,,,,,,,,,,,,,,,,,,,,,
0,f,1,0.6953,4,1,17,1,1,f,blue,582ee44408b46b00010dbb07,2021-10-22_14h02.39.969,forced_choiceRT_color,2021.2.3,Win32,143.9884809,,,,,,,,,,,,,,,,,,,,,,,
0,k,1,0.5973,4,2,18,3,1,k,purple,582ee44408b46b00010dbb07,2021-10-22_14h02.39.969,forced_choiceRT_color,2021.2.3,Win32,143.9884809,,,,,,,,,,,,,,,,,,,,,,,
0,f,1,0.6857,4,3,19,1,1,f,blue,582ee44408b46b00010dbb07,2021-10-22_14h02.39.969,forced_choiceRT_color,2021.2.3,Win32,143.9884809,,,,,,,,,,,,,,,,,,,,,,,
0,j,1,0.5706,5,0,20,2,1,j,red,582ee44408b46b00010dbb07,2021-10-22_14h02.39.969,forced_choiceRT_color,2021.2.3,Win32,143.9884809,,,,,,,,,,,,,,,,,,,,,,,
0,d,1,0.5924,5,1,21,0,1,d,orange,582ee44408b46b00010dbb07,2021-10-22_14h02.39.969,forced_choiceRT_color,2021.2.3,Win32,143.9884809,,,,,,,,,,,,,,,,,,,,,,,
0,k,1,0.5769,5,2,22,3,1,k,purple,582ee44408b46b00010dbb07,2021-10-22_14h02.39.969,forced_choiceRT_color,2021.2.3,Win32,143.9884809,,,,,,,,,,,,,,,,,,,,,,,
0,f,1,0.6937,5,3,23,1,1,f,blue,582ee44408b46b00010dbb07,2021-10-22_14h02.39.969,forced_choiceRT_color,2021.2.3,Win32,143.9884809,,,,,,,,,,,,,,,,,,,,,,,
0,f,1,0.4815,6,0,24,1,1,f,blue,582ee44408b46b00010dbb07,2021-10-22_14h02.39.969,forced_choiceRT_color,2021.2.3,Win32,143.9884809,,,,,,,,,,,,,,,,,,,,,,,
0,k,1,0.4969,6,1,25,3,1,k,purple,582ee44408b46b00010dbb07,2021-10-22_14h02.39.969,forced_choiceRT_color,2021.2.3,Win32,143.9884809,,,,,,,,,,,,,,,,,,,,,,,
0,d,1,0.6004,6,2,26,0,1,d,orange,582ee44408b46b00010dbb07,2021-10-22_14h02.39.969,forced_choiceRT_color,2021.2.3,Win32,143.9884809,,,,,,,,,,,,,,,,,,,,,,,
0,k,1,0.5623,6,3,27,3,1,k,purple,582ee44408b46b00010dbb07,2021-10-22_14h02.39.969,forced_choiceRT_color,2021.2.3,Win32,143.9884809,,,,,,,,,,,,,,,,,,,,,,,
0,k,1,0.5131,7,0,28,3,1,k,purple,582ee44408b46b00010dbb07,2021-10-22_14h02.39.969,forced_choiceRT_color,2021.2.3,Win32,143.9884809,,,,,,,,,,,,,,,,,,,,,,,
0,d,1,0.5366,7,1,29,0,1,d,orange,582ee44408b46b00010dbb07,2021-10-22_14h02.39.969,forced_choiceRT_color,2021.2.3,Win32,143.9884809,,,,,,,,,,,,,,,,,,,,,,,
0,d,1,0.4455,7,2,30,0,1,d,orange,582ee44408b46b00010dbb07,2021-10-22_14h02.39.969,forced_choiceRT_color,2021.2.3,Win32,143.9884809,,,,,,,,,,,,,,,,,,,,,,,
0,f,1,0.3822,7,3,31,1,1,f,blue,582ee44408b46b00010dbb07,2021-10-22_14h02.39.969,forced_choiceRT_color,2021.2.3,Win32,143.9884809,,,,,,,,,,,,,,,,,,,,,,,
0,k,1,0.6521,8,0,32,3,1,k,purple,582ee44408b46b00010dbb07,2021-10-22_14h02.39.969,forced_choiceRT_color,2021.2.3,Win32,143.9884809,,,,,,,,,,,,,,,,,,,,,,,
0,j,1,0.3848,8,1,33,2,1,j,red,582ee44408b46b00010dbb07,2021-10-22_14h02.39.969,forced_choiceRT_color,2021.2.3,Win32,143.9884809,,,,,,,,,,,,,,,,,,,,,,,
0,k,1,0.4047,8,2,34,3,1,k,purple,582ee44408b46b00010dbb07,2021-10-22_14h02.39.969,forced_choiceRT_color,2021.2.3,Win32,143.9884809,,,,,,,,,,,,,,,,,,,,,,,
0,j,1,0.4458,8,3,35,2,1,j,red,582ee44408b46b00010dbb07,2021-10-22_14h02.39.969,forced_choiceRT_color,2021.2.3,Win32,143.9884809,,,,,,,,,,,,,,,,,,,,,,,
0,d,1,0.4974,9,0,36,0,1,d,orange,582ee44408b46b00010dbb07,2021-10-22_14h02.39.969,forced_choiceRT_color,2021.2.3,Win32,143.9884809,,,,,,,,,,,,,,,,,,,,,,,
0,k,1,0.4764,9,1,37,3,1,k,purple,582ee44408b46b00010dbb07,2021-10-22_14h02.39.969,forced_choiceRT_color,2021.2.3,Win32,143.9884809,,,,,,,,,,,,,,,,,,,,,,,
0,d,1,0.5954,9,2,38,0,1,d,orange,582ee44408b46b00010dbb07,2021-10-22_14h02.39.969,forced_choiceRT_color,2021.2.3,Win32,143.9884809,,,,,,,,,,,,,,,,,,,,,,,
0,k,1,0.6262,9,3,39,3,1,k,purple,582ee44408b46b00010dbb07,2021-10-22_14h02.39.969,forced_choiceRT_color,2021.2.3,Win32,143.9884809,,,,,,,,,,,,,,,,,,,,,,,
0,d,1,0.709,10,0,40,0,1,d,orange,582ee44408b46b00010dbb07,2021-10-22_14h02.39.969,forced_choiceRT_color,2021.2.3,Win32,143.9884809,,,,,,,,,,,,,,,,,,,,,,,
0,f,1,0.4312,10,1,41,1,1,f,blue,582ee44408b46b00010dbb07,2021-10-22_14h02.39.969,forced_choiceRT_color,2021.2.3,Win32,143.9884809,,,,,,,,,,,,,,,,,,,,,,,
0,j,1,0.5263,10,2,42,2,1,j,red,582ee44408b46b00010dbb07,2021-10-22_14h02.39.969,forced_choiceRT_color,2021.2.3,Win32,143.9884809,,,,,,,,,,,,,,,,,,,,,,,
0,j,1,0.4003,10,3,43,2,1,j,red,582ee44408b46b00010dbb07,2021-10-22_14h02.39.969,forced_choiceRT_color,2021.2.3,Win32,143.9884809,,,,,,,,,,,,,,,,,,,,,,,
0,f,1,0.652,11,0,44,1,1,f,blue,582ee44408b46b00010dbb07,2021-10-22_14h02.39.969,forced_choiceRT_color,2021.2.3,Win32,143.9884809,,,,,,,,,,,,,,,,,,,,,,,
0,k,1,0.4737,11,1,45,3,1,k,purple,582ee44408b46b00010dbb07,2021-10-22_14h02.39.969,forced_choiceRT_color,2021.2.3,Win32,143.9884809,,,,,,,,,,,,,,,,,,,,,,,
0,k,1,0.4808,11,2,46,3,1,k,purple,582ee44408b46b00010dbb07,2021-10-22_14h02.39.969,forced_choiceRT_color,2021.2.3,Win32,143.9884809,,,,,,,,,,,,,,,,,,,,,,,
0,k,1,0.4175,11,3,47,3,1,k,purple,582ee44408b46b00010dbb07,2021-10-22_14h02.39.969,forced_choiceRT_color,2021.2.3,Win32,143.9884809,,,,,,,,,,,,,,,,,,,,,,,
0,j,1,0.501,12,0,48,2,1,j,red,582ee44408b46b00010dbb07,2021-10-22_14h02.39.969,forced_choiceRT_color,2021.2.3,Win32,143.9884809,,,,,,,,,,,,,,,,,,,,,,,
0,d,1,0.5606,12,1,49,0,1,d,orange,582ee44408b46b00010dbb07,2021-10-22_14h02.39.969,forced_choiceRT_color,2021.2.3,Win32,143.9884809,,,,,,,,,,,,,,,,,,,,,,,
0,d,1,0.3803,12,2,50,0,1,d,orange,582ee44408b46b00010dbb07,2021-10-22_14h02.39.969,forced_choiceRT_color,2021.2.3,Win32,143.9884809,,,,,,,,,,,,,,,,,,,,,,,
0,k,1,0.4704,12,3,51,3,1,k,purple,582ee44408b46b00010dbb07,2021-10-22_14h02.39.969,forced_choiceRT_color,2021.2.3,Win32,143.9884809,,,,,,,,,,,,,,,,,,,,,,,
0,d,1,0.5603,13,0,52,0,1,d,orange,582ee44408b46b00010dbb07,2021-10-22_14h02.39.969,forced_choiceRT_color,2021.2.3,Win32,143.9884809,,,,,,,,,,,,,,,,,,,,,,,
0,j,1,0.8148,13,1,53,2,1,j,red,582ee44408b46b00010dbb07,2021-10-22_14h02.39.969,forced_choiceRT_color,2021.2.3,Win32,143.9884809,,,,,,,,,,,,,,,,,,,,,,,
0,d,1,0.8669,13,2,54,0,1,d,orange,582ee44408b46b00010dbb07,2021-10-22_14h02.39.969,forced_choiceRT_color,2021.2.3,Win32,143.9884809,,,,,,,,,,,,,,,,,,,,,,,
0,f,1,0.4615,13,3,55,1,1,f,blue,582ee44408b46b00010dbb07,2021-10-22_14h02.39.969,forced_choiceRT_color,2021.2.3,Win32,143.9884809,,,,,,,,,,,,,,,,,,,,,,,
0,f,1,0.3843,14,0,56,1,1,f,blue,582ee44408b46b00010dbb07,2021-10-22_14h02.39.969,forced_choiceRT_color,2021.2.3,Win32,143.9884809,,,,,,,,,,,,,,,,,,,,,,,
0,d,1,0.548,14,1,57,0,1,d,orange,582ee44408b46b00010dbb07,2021-10-22_14h02.39.969,forced_choiceRT_color,2021.2.3,Win32,143.9884809,,,,,,,,,,,,,,,,,,,,,,,
0,f,1,0.7057,14,2,58,1,1,f,blue,582ee44408b46b00010dbb07,2021-10-22_14h02.39.969,forced_choiceRT_color,2021.2.3,Win32,143.9884809,,,,,,,,,,,,,,,,,,,,,,,
0,j,1,0.5419,14,3,59,2,1,j,red,582ee44408b46b00010dbb07,2021-10-22_14h02.39.969,forced_choiceRT_color,2021.2.3,Win32,143.9884809,,,,,,,,,,,,,,,,,,,,,,,
,,,,,,,,,,,582ee44408b46b00010dbb07,2021-10-22_14h02.39.969,forced_choiceRT_color,2021.2.3,Win32,143.9884809,d,2.2358,0,0,0,0,1,,,,,,,,,,,,,,,,
,,,,,,,,,,,582ee44408b46b00010dbb07,2021-10-22_14h02.39.969,forced_choiceRT_color,2021.2.3,Win32,143.9884809,d,2.0503,1,0,1,0,1,,,,,,,,,,,,,,,,
,,,,,,,,,,,582ee44408b46b00010dbb07,2021-10-22_14h02.39.969,forced_choiceRT_color,2021.2.3,Win32,143.9884809,f,1.9632,2,0,2,0,1,,,,,,,,,,,,,,,,
,,,,,,,,,,,582ee44408b46b00010dbb07,2021-10-22_14h02.39.969,forced_choiceRT_color,2021.2.3,Win32,143.9884809,j,1.9245,3,0,3,0,1,,,,,,,,,,,,,,,,
,,,,,,,,,,,582ee44408b46b00010dbb07,2021-10-22_14h02.39.969,forced_choiceRT_color,2021.2.3,Win32,143.9884809,k,1.9453,4,0,4,0,1,,,,,,,,,,,,,,,,
,,,,,,,,,,,582ee44408b46b00010dbb07,2021-10-22_14h02.39.969,forced_choiceRT_color,2021.2.3,Win32,143.9884809,d,1.8503,5,0,5,0,1,,,,,,,,,,,,,,,,
,,,,,,,,,,,582ee44408b46b00010dbb07,2021-10-22_14h02.39.969,forced_choiceRT_color,2021.2.3,Win32,143.9884809,f,1.9307,6,0,6,0,1,,,,,,,,,,,,,,,,
,,,,,,,,,,,582ee44408b46b00010dbb07,2021-10-22_14h02.39.969,forced_choiceRT_color,2021.2.3,Win32,143.9884809,j,2.0122,7,0,7,0,1,,,,,,,,,,,,,,,,
,,,,,,,,,,,582ee44408b46b00010dbb07,2021-10-22_14h02.39.969,forced_choiceRT_color,2021.2.3,Win32,143.9884809,k,2.0433,8,0,8,0,1,,,,,,,,,,,,,,,,
,,,,,,,,,,,582ee44408b46b00010dbb07,2021-10-22_14h02.39.969,forced_choiceRT_color,2021.2.3,Win32,143.9884809,d,1.9931,9,0,9,0,1,,,,,,,,,,,,,,,,
,,,,,,,,,,,582ee44408b46b00010dbb07,2021-10-22_14h02.39.969,forced_choiceRT_color,2021.2.3,Win32,143.9884809,f,1.9825,10,0,10,0,1,,,,,,,,,,,,,,,,
,,,,,,,,,,,582ee44408b46b00010dbb07,2021-10-22_14h02.39.969,forced_choiceRT_color,2021.2.3,Win32,143.9884809,j,2.0142,11,0,11,0,1,,,,,,,,,,,,,,,,
,,,,,,,,,,,582ee44408b46b00010dbb07,2021-10-22_14h02.39.969,forced_choiceRT_color,2021.2.3,Win32,143.9884809,k,2.0079,12,0,12,0,1,,,,,,,,,,,,,,,,
,,,,,,,,,,,582ee44408b46b00010dbb07,2021-10-22_14h02.39.969,forced_choiceRT_color,2021.2.3,Win32,143.9884809,d,2.0571,13,0,13,0,1,,,,,,,,,,,,,,,,
,,,,,,,,,,,582ee44408b46b00010dbb07,2021-10-22_14h02.39.969,forced_choiceRT_color,2021.2.3,Win32,143.9884809,f,2.0595,14,0,14,0,1,,,,,,,,,,,,,,,,
,,,,,,,,,,,582ee44408b46b00010dbb07,2021-10-22_14h02.39.969,forced_choiceRT_color,2021.2.3,Win32,143.9884809,j,2.0964,15,0,15,0,1,,,,,,,,,,,,,,,,
,,,,,,,,,,,582ee44408b46b00010dbb07,2021-10-22_14h02.39.969,forced_choiceRT_color,2021.2.3,Win32,143.9884809,k,2.0797,16,0,16,0,1,,,,,,,,,,,,,,,,
,,,,,,,,,,,582ee44408b46b00010dbb07,2021-10-22_14h02.39.969,forced_choiceRT_color,2021.2.3,Win32,143.9884809,d,2.066,17,0,17,0,1,,,,,,,,,,,,,,,,
,,,,,,,,,,,582ee44408b46b00010dbb07,2021-10-22_14h02.39.969,forced_choiceRT_color,2021.2.3,Win32,143.9884809,f,2.0292,18,0,18,0,1,,,,,,,,,,,,,,,,
,,,,,,,,,,,582ee44408b46b00010dbb07,2021-10-22_14h02.39.969,forced_choiceRT_color,2021.2.3,Win32,143.9884809,j,2.0786,19,0,19,0,1,,,,,,,,,,,,,,,,
0.8,,,,,,,,,f,blue,582ee44408b46b00010dbb07,2021-10-22_14h02.39.969,forced_choiceRT_color,2021.2.3,Win32,143.9884809,,,,,,,,1,Ontime,short,f,1,2.0558,0,0,0,1,1,,,,,
1.7,,,,,,,,,k,purple,582ee44408b46b00010dbb07,2021-10-22_14h02.39.969,forced_choiceRT_color,2021.2.3,Win32,143.9884809,,,,,,,,1,Slow,short,k,1,2.155,0,1,1,3,1,,,,,
0.22,,,,,,,,,d,orange,582ee44408b46b00010dbb07,2021-10-22_14h02.39.969,forced_choiceRT_color,2021.2.3,Win32,143.9884809,,,,,,,,1,Ontime,short,d,1,2.0641,0,2,2,0,1,,,,,
0.83,,,,,,,,,k,purple,582ee44408b46b00010dbb07,2021-10-22_14h02.39.969,forced_choiceRT_color,2021.2.3,Win32,143.9884809,,,,,,,,1,Ontime,short,k,1,2.0395,0,3,3,3,1,,,,,
0.48,,,,,,,,,j,red,582ee44408b46b00010dbb07,2021-10-22_14h02.39.969,forced_choiceRT_color,2021.2.3,Win32,143.9884809,,,,,,,,1,Ontime,short,j,1,2.0003,1,0,4,2,1,,,,,
1.34,,,,,,,,,f,blue,582ee44408b46b00010dbb07,2021-10-22_14h02.39.969,forced_choiceRT_color,2021.2.3,Win32,143.9884809,,,,,,,,1,Ontime,short,f,1,2.0054,1,1,5,1,1,,,,,
1.23,,,,,,,,,k,purple,582ee44408b46b00010dbb07,2021-10-22_14h02.39.969,forced_choiceRT_color,2021.2.3,Win32,143.9884809,,,,,,,,1,Ontime,short,k,1,2.0154,1,2,6,3,1,,,,,
1.67,,,,,,,,,j,red,582ee44408b46b00010dbb07,2021-10-22_14h02.39.969,forced_choiceRT_color,2021.2.3,Win32,143.9884809,,,,,,,,1,Slow,short,j,1,2.1802,1,3,7,2,1,,,,,
1.82,,,,,,,,,f,blue,582ee44408b46b00010dbb07,2021-10-22_14h02.39.969,forced_choiceRT_color,2021.2.3,Win32,143.9884809,,,,,,,,1,Slow,short,f,1,2.3411,2,0,8,1,1,,,,,
0.07,,,,,,,,,k,purple,582ee44408b46b00010dbb07,2021-10-22_14h02.39.969,forced_choiceRT_color,2021.2.3,Win32,143.9884809,,,,,,,,1,Ontime,short,k,1,2.0727,2,1,9,3,1,,,,,
1.25,,,,,,,,,d,orange,582ee44408b46b00010dbb07,2021-10-22_14h02.39.969,forced_choiceRT_color,2021.2.3,Win32,143.9884809,,,,,,,,1,Ontime,short,d,1,2.0507,2,2,10,0,1,,,,,
1.34,,,,,,,,,k,purple,582ee44408b46b00010dbb07,2021-10-22_14h02.39.969,forced_choiceRT_color,2021.2.3,Win32,143.9884809,,,,,,,,1,Slow,short,k,1,2.1192,2,3,11,3,1,,,,,
0.86,,,,,,,,,d,orange,582ee44408b46b00010dbb07,2021-10-22_14h02.39.969,forced_choiceRT_color,2021.2.3,Win32,143.9884809,,,,,,,,1,Ontime,short,d,1,2.0709,3,0,12,0,1,,,,,
0.71,,,,,,,,,j,red,582ee44408b46b00010dbb07,2021-10-22_14h02.39.969,forced_choiceRT_color,2021.2.3,Win32,143.9884809,,,,,,,,1,Slow,short,j,1,2.1497,3,1,13,2,1,,,,,
1.88,,,,,,,,,f,blue,582ee44408b46b00010dbb07,2021-10-22_14h02.39.969,forced_choiceRT_color,2021.2.3,Win32,143.9884809,,,,,,,,1,Slow,short,d,0,2.2098,3,2,14,1,1,,,,,
1.89,,,,,,,,,j,red,582ee44408b46b00010dbb07,2021-10-22_14h02.39.969,forced_choiceRT_color,2021.2.3,Win32,143.9884809,,,,,,,,1,Slow,short,k,0,2.1002,3,3,15,2,1,,,,,
0.74,,,,,,,,,d,orange,582ee44408b46b00010dbb07,2021-10-22_14h02.39.969,forced_choiceRT_color,2021.2.3,Win32,143.9884809,,,,,,,,1,Ontime,short,d,1,2.0263,4,0,16,0,1,,,,,
0.15,,,,,,,,,f,blue,582ee44408b46b00010dbb07,2021-10-22_14h02.39.969,forced_choiceRT_color,2021.2.3,Win32,143.9884809,,,,,,,,1,Ontime,short,f,1,2.0558,4,1,17,1,1,,,,,
1.48,,,,,,,,,d,orange,582ee44408b46b00010dbb07,2021-10-22_14h02.39.969,forced_choiceRT_color,2021.2.3,Win32,143.9884809,,,,,,,,1,Slow,short,d,1,2.1044,4,2,18,0,1,,,,,
1.43,,,,,,,,,k,purple,582ee44408b46b00010dbb07,2021-10-22_14h02.39.969,forced_choiceRT_color,2021.2.3,Win32,143.9884809,,,,,,,,1,Slow,short,k,1,2.1068,4,3,19,3,1,,,,,
0.24,,,,,,,,,f,blue,582ee44408b46b00010dbb07,2021-10-22_14h02.39.969,forced_choiceRT_color,2021.2.3,Win32,143.9884809,,,,,,,,1,Ontime,short,f,1,2.0476,5,0,20,1,1,,,,,
0.83,,,,,,,,,f,blue,582ee44408b46b00010dbb07,2021-10-22_14h02.39.969,forced_choiceRT_color,2021.2.3,Win32,143.9884809,,,,,,,,1,Ontime,short,f,1,2.0688,5,1,21,1,1,,,,,
0.05,,,,,,,,,d,orange,582ee44408b46b00010dbb07,2021-10-22_14h02.39.969,forced_choiceRT_color,2021.2.3,Win32,143.9884809,,,,,,,,1,Ontime,short,d,1,1.9811,5,2,22,0,1,,,,,
1.74,,,,,,,,,f,blue,582ee44408b46b00010dbb07,2021-10-22_14h02.39.969,forced_choiceRT_color,2021.2.3,Win32,143.9884809,,,,,,,,1,Slow,short,f,1,2.1003,5,3,23,1,1,,,,,
1.42,,,,,,,,,d,orange,582ee44408b46b00010dbb07,2021-10-22_14h02.39.969,forced_choiceRT_color,2021.2.3,Win32,143.9884809,,,,,,,,1,Ontime,short,d,1,2.0124,6,0,24,0,1,,,,,
1.13,,,,,,,,,d,orange,582ee44408b46b00010dbb07,2021-10-22_14h02.39.969,forced_choiceRT_color,2021.2.3,Win32,143.9884809,,,,,,,,1,Ontime,short,d,1,2.0712,6,1,25,0,1,,,,,
0.37,,,,,,,,,j,red,582ee44408b46b00010dbb07,2021-10-22_14h02.39.969,forced_choiceRT_color,2021.2.3,Win32,143.9884809,,,,,,,,1,Ontime,short,j,1,2.0337,6,2,26,2,1,,,,,
1.96,,,,,,,,,d,orange,582ee44408b46b00010dbb07,2021-10-22_14h02.39.969,forced_choiceRT_color,2021.2.3,Win32,143.9884809,,,,,,,,1,Slow,short,d,1,2.8504,6,3,27,0,1,,,,,
1.06,,,,,,,,,k,purple,582ee44408b46b00010dbb07,2021-10-22_14h02.39.969,forced_choiceRT_color,2021.2.3,Win32,143.9884809,,,,,,,,1,Ontime,short,k,1,2.0554,7,0,28,3,1,,,,,
0.8,,,,,,,,,f,blue,582ee44408b46b00010dbb07,2021-10-22_14h02.39.969,forced_choiceRT_color,2021.2.3,Win32,143.9884809,,,,,,,,1,Ontime,short,f,1,2.04,7,1,29,1,1,,,,,
1.2,,,,,,,,,d,orange,582ee44408b46b00010dbb07,2021-10-22_14h02.39.969,forced_choiceRT_color,2021.2.3,Win32,143.9884809,,,,,,,,1,Slow,short,d,1,2.1125,7,2,30,0,1,,,,,
0.96,,,,,,,,,f,blue,582ee44408b46b00010dbb07,2021-10-22_14h02.39.969,forced_choiceRT_color,2021.2.3,Win32,143.9884809,,,,,,,,1,Ontime,short,f,1,2.021,7,3,31,1,1,,,,,
1.77,,,,,,,,,k,purple,582ee44408b46b00010dbb07,2021-10-22_14h02.39.969,forced_choiceRT_color,2021.2.3,Win32,143.9884809,,,,,,,,1,Ontime,short,k,1,2.0631,8,0,32,3,1,,,,,
0.37,,,,,,,,,k,purple,582ee44408b46b00010dbb07,2021-10-22_14h02.39.969,forced_choiceRT_color,2021.2.3,Win32,143.9884809,,,,,,,,1,Ontime,short,k,1,2.0135,8,1,33,3,1,,,,,
0.99,,,,,,,,,j,red,582ee44408b46b00010dbb07,2021-10-22_14h02.39.969,forced_choiceRT_color,2021.2.3,Win32,143.9884809,,,,,,,,1,Ontime,short,j,1,2.0468,8,2,34,2,1,,,,,
0.22,,,,,,,,,j,red,582ee44408b46b00010dbb07,2021-10-22_14h02.39.969,forced_choiceRT_color,2021.2.3,Win32,143.9884809,,,,,,,,1,Ontime,short,j,1,2.0087,8,3,35,2,1,,,,,
0.04,,,,,,,,,k,purple,582ee44408b46b00010dbb07,2021-10-22_14h02.39.969,forced_choiceRT_color,2021.2.3,Win32,143.9884809,,,,,,,,1,Ontime,short,k,1,1.9815,9,0,36,3,1,,,,,
0.23,,,,,,,,,j,red,582ee44408b46b00010dbb07,2021-10-22_14h02.39.969,forced_choiceRT_color,2021.2.3,Win32,143.9884809,,,,,,,,1,Ontime,short,j,1,1.9695,9,1,37,2,1,,,,,
1.32,,,,,,,,,j,red,582ee44408b46b00010dbb07,2021-10-22_14h02.39.969,forced_choiceRT_color,2021.2.3,Win32,143.9884809,,,,,,,,1,Ontime,short,j,1,2.0694,9,2,38,2,1,,,,,
0.06,,,,,,,,,j,red,582ee44408b46b00010dbb07,2021-10-22_14h02.39.969,forced_choiceRT_color,2021.2.3,Win32,143.9884809,,,,,,,,1,Ontime,short,j,1,2.0814,9,3,39,2,1,,,,,
,,,,,,,,,,,582ee44408b46b00010dbb07,2021-10-22_14h02.39.969,forced_choiceRT_color,2021.2.3,Win32,143.9884809,,,,,,,,,,,,,,,,,,,0,0,0,0,1
0.55,,,,,,,,,f,blue,582ee44408b46b00010dbb07,2021-10-22_14h02.39.969,forced_choiceRT_color,2021.2.3,Win32,143.9884809,,,,,,,,2,Ontime,short,f,1,2.0406,0,0,0,1,1,,,,,
0.69,,,,,,,,,d,orange,582ee44408b46b00010dbb07,2021-10-22_14h02.39.969,forced_choiceRT_color,2021.2.3,Win32,143.9884809,,,,,,,,2,Ontime,short,d,1,2.071,0,1,1,0,1,,,,,
0.27,,,,,,,,,f,blue,582ee44408b46b00010dbb07,2021-10-22_14h02.39.969,forced_choiceRT_color,2021.2.3,Win32,143.9884809,,,,,,,,2,Ontime,short,f,1,2.0084,0,2,2,1,1,,,,,
1.25,,,,,,,,,f,blue,582ee44408b46b00010dbb07,2021-10-22_14h02.39.969,forced_choiceRT_color,2021.2.3,Win32,143.9884809,,,,,,,,2,Ontime,short,f,1,2.026,0,3,3,1,1,,,,,
1.69,,,,,,,,,d,orange,582ee44408b46b00010dbb07,2021-10-22_14h02.39.969,forced_choiceRT_color,2021.2.3,Win32,143.9884809,,,,,,,,2,Slow,short,d,1,2.1521,1,0,4,0,1,,,,,
0.78,,,,,,,,,k,purple,582ee44408b46b00010dbb07,2021-10-22_14h02.39.969,forced_choiceRT_color,2021.2.3,Win32,143.9884809,,,,,,,,2,Ontime,short,k,1,2.0166,1,1,5,3,1,,,,,
0.03,,,,,,,,,k,purple,582ee44408b46b00010dbb07,2021-10-22_14h02.39.969,forced_choiceRT_color,2021.2.3,Win32,143.9884809,,,,,,,,2,Ontime,short,k,1,2.0188,1,2,6,3,1,,,,,
1.22,,,,,,,,,f,blue,582ee44408b46b00010dbb07,2021-10-22_14h02.39.969,forced_choiceRT_color,2021.2.3,Win32,143.9884809,,,,,,,,2,Ontime,short,f,1,1.9689,1,3,7,1,1,,,,,
0.79,,,,,,,,,d,orange,582ee44408b46b00010dbb07,2021-10-22_14h02.39.969,forced_choiceRT_color,2021.2.3,Win32,143.9884809,,,,,,,,2,Ontime,short,d,1,1.9584,2,0,8,0,1,,,,,
0.6,,,,,,,,,k,purple,582ee44408b46b00010dbb07,2021-10-22_14h02.39.969,forced_choiceRT_color,2021.2.3,Win32,143.9884809,,,,,,,,2,Ontime,short,k,1,1.9828,2,1,9,3,1,,,,,
0.2,,,,,,,,,j,red,582ee44408b46b00010dbb07,2021-10-22_14h02.39.969,forced_choiceRT_color,2021.2.3,Win32,143.9884809,,,,,,,,2,Ontime,short,j,1,1.9725,2,2,10,2,1,,,,,
1.99,,,,,,,,,f,blue,582ee44408b46b00010dbb07,2021-10-22_14h02.39.969,forced_choiceRT_color,2021.2.3,Win32,143.9884809,,,,,,,,2,Slow,short,f,1,2.2114,2,3,11,1,1,,,,,
1.3,,,,,,,,,f,blue,582ee44408b46b00010dbb07,2021-10-22_14h02.39.969,forced_choiceRT_color,2021.2.3,Win32,143.9884809,,,,,,,,2,Ontime,short,f,1,1.9836,3,0,12,1,1,,,,,
1.02,,,,,,,,,j,red,582ee44408b46b00010dbb07,2021-10-22_14h02.39.969,forced_choiceRT_color,2021.2.3,Win32,143.9884809,,,,,,,,2,Ontime,short,j,1,2.01,3,1,13,2,1,,,,,
1.25,,,,,,,,,f,blue,582ee44408b46b00010dbb07,2021-10-22_14h02.39.969,forced_choiceRT_color,2021.2.3,Win32,143.9884809,,,,,,,,2,Ontime,short,f,1,1.9279,3,2,14,1,1,,,,,
0.49,,,,,,,,,d,orange,582ee44408b46b00010dbb07,2021-10-22_14h02.39.969,forced_choiceRT_color,2021.2.3,Win32,143.9884809,,,,,,,,2,Ontime,short,d,1,1.9327,3,3,15,0,1,,,,,
0.62,,,,,,,,,j,red,582ee44408b46b00010dbb07,2021-10-22_14h02.39.969,forced_choiceRT_color,2021.2.3,Win32,143.9884809,,,,,,,,2,Ontime,short,j,1,1.9507,4,0,16,2,1,,,,,
0.87,,,,,,,,,d,orange,582ee44408b46b00010dbb07,2021-10-22_14h02.39.969,forced_choiceRT_color,2021.2.3,Win32,143.9884809,,,,,,,,2,Ontime,short,f,0,1.9809,4,1,17,0,1,,,,,
1.46,,,,,,,,,d,orange,582ee44408b46b00010dbb07,2021-10-22_14h02.39.969,forced_choiceRT_color,2021.2.3,Win32,143.9884809,,,,,,,,2,Ontime,short,f,0,2.045,4,2,18,0,1,,,,,
1.43,,,,,,,,,k,purple,582ee44408b46b00010dbb07,2021-10-22_14h02.39.969,forced_choiceRT_color,2021.2.3,Win32,143.9884809,,,,,,,,2,Ontime,short,j,0,2.0621,4,3,19,3,1,,,,,
0.81,,,,,,,,,k,purple,582ee44408b46b00010dbb07,2021-10-22_14h02.39.969,forced_choiceRT_color,2021.2.3,Win32,143.9884809,,,,,,,,2,Ontime,short,k,1,1.9528,5,0,20,3,1,,,,,
0.07,,,,,,,,,d,orange,582ee44408b46b00010dbb07,2021-10-22_14h02.39.969,forced_choiceRT_color,2021.2.3,Win32,143.9884809,,,,,,,,2,Ontime,short,d,1,1.9254,5,1,21,0,1,,,,,
1.44,,,,,,,,,d,orange,582ee44408b46b00010dbb07,2021-10-22_14h02.39.969,forced_choiceRT_color,2021.2.3,Win32,143.9884809,,,,,,,,2,Ontime,short,d,1,1.9388,5,2,22,0,1,,,,,
0.06,,,,,,,,,j,red,582ee44408b46b00010dbb07,2021-10-22_14h02.39.969,forced_choiceRT_color,2021.2.3,Win32,143.9884809,,,,,,,,2,Ontime,short,j,1,1.994,5,3,23,2,1,,,,,
1.1,,,,,,,,,k,purple,582ee44408b46b00010dbb07,2021-10-22_14h02.39.969,forced_choiceRT_color,2021.2.3,Win32,143.9884809,,,,,,,,2,Ontime,short,k,1,1.9584,6,0,24,3,1,,,,,
0.78,,,,,,,,,j,red,582ee44408b46b00010dbb07,2021-10-22_14h02.39.969,forced_choiceRT_color,2021.2.3,Win32,143.9884809,,,,,,,,2,Ontime,short,j,1,1.9943,6,1,25,2,1,,,,,
0.89,,,,,,,,,d,orange,582ee44408b46b00010dbb07,2021-10-22_14h02.39.969,forced_choiceRT_color,2021.2.3,Win32,143.9884809,,,,,,,,2,Ontime,short,d,1,1.9691,6,2,26,0,1,,,,,
1.79,,,,,,,,,k,purple,582ee44408b46b00010dbb07,2021-10-22_14h02.39.969,forced_choiceRT_color,2021.2.3,Win32,143.9884809,,,,,,,,2,Slow,short,j,0,2.1404,6,3,27,3,1,,,,,
0,,,,,,,,,j,red,582ee44408b46b00010dbb07,2021-10-22_14h02.39.969,forced_choiceRT_color,2021.2.3,Win32,143.9884809,,,,,,,,2,Ontime,short,j,1,1.9877,7,0,28,2,1,,,,,
0.17,,,,,,,,,k,purple,582ee44408b46b00010dbb07,2021-10-22_14h02.39.969,forced_choiceRT_color,2021.2.3,Win32,143.9884809,,,,,,,,2,Ontime,short,k,1,1.9427,7,1,29,3,1,,,,,
0.2,,,,,,,,,j,red,582ee44408b46b00010dbb07,2021-10-22_14h02.39.969,forced_choiceRT_color,2021.2.3,Win32,143.9884809,,,,,,,,2,Ontime,short,j,1,1.9149,7,2,30,2,1,,,,,
0.63,,,,,,,,,f,blue,582ee44408b46b00010dbb07,2021-10-22_14h02.39.969,forced_choiceRT_color,2021.2.3,Win32,143.9884809,,,,,,,,2,Fast,short,f,1,1.8751,7,3,31,1,1,,,,,
0.54,,,,,,,,,j,red,582ee44408b46b00010dbb07,2021-10-22_14h02.39.969,forced_choiceRT_color,2021.2.3,Win32,143.9884809,,,,,,,,2,Ontime,short,j,1,1.9237,8,0,32,2,1,,,,,
0.19,,,,,,,,,f,blue,582ee44408b46b00010dbb07,2021-10-22_14h02.39.969,forced_choiceRT_color,2021.2.3,Win32,143.9884809,,,,,,,,2,Fast,short,f,1,1.891,8,1,33,1,1,,,,,
0.21,,,,,,,,,j,red,582ee44408b46b00010dbb07,2021-10-22_14h02.39.969,forced_choiceRT_color,2021.2.3,Win32,143.9884809,,,,,,,,2,Ontime,short,j,1,1.9696,8,2,34,2,1,,,,,
0.06,,,,,,,,,d,orange,582ee44408b46b00010dbb07,2021-10-22_14h02.39.969,forced_choiceRT_color,2021.2.3,Win32,143.9884809,,,,,,,,2,Ontime,short,d,1,1.9321,8,3,35,0,1,,,,,
0.36,,,,,,,,,j,red,582ee44408b46b00010dbb07,2021-10-22_14h02.39.969,forced_choiceRT_color,2021.2.3,Win32,143.9884809,,,,,,,,2,Ontime,short,j,1,2.012,9,0,36,2,1,,,,,
0.99,,,,,,,,,k,purple,582ee44408b46b00010dbb07,2021-10-22_14h02.39.969,forced_choiceRT_color,2021.2.3,Win32,143.9884809,,,,,,,,2,Ontime,short,k,1,2.0417,9,1,37,3,1,,,,,
1.87,,,,,,,,,k,purple,582ee44408b46b00010dbb07,2021-10-22_14h02.39.969,forced_choiceRT_color,2021.2.3,Win32,143.9884809,,,,,,,,2,Slow,short,k,1,2.3347,9,2,38,3,1,,,,,
1.09,,,,,,,,,f,blue,582ee44408b46b00010dbb07,2021-10-22_14h02.39.969,forced_choiceRT_color,2021.2.3,Win32,143.9884809,,,,,,,,2,Ontime,short,f,1,1.9441,9,3,39,1,1,,,,,
,,,,,,,,,,,582ee44408b46b00010dbb07,2021-10-22_14h02.39.969,forced_choiceRT_color,2021.2.3,Win32,143.9884809,,,,,,,,,,,,,,,,,,,1,0,1,0,1
0.28,,,,,,,,,f,blue,582ee44408b46b00010dbb07,2021-10-22_14h02.39.969,forced_choiceRT_color,2021.2.3,Win32,143.9884809,,,,,,,,3,Ontime,short,f,1,1.97,0,0,0,1,1,,,,,
0.54,,,,,,,,,d,orange,582ee44408b46b00010dbb07,2021-10-22_14h02.39.969,forced_choiceRT_color,2021.2.3,Win32,143.9884809,,,,,,,,3,Ontime,short,d,1,1.9658,0,1,1,0,1,,,,,
1.92,,,,,,,,,j,red,582ee44408b46b00010dbb07,2021-10-22_14h02.39.969,forced_choiceRT_color,2021.2.3,Win32,143.9884809,,,,,,,,3,Ontime,short,j,1,1.9806,0,2,2,2,1,,,,,
1.05,,,,,,,,,f,blue,582ee44408b46b00010dbb07,2021-10-22_14h02.39.969,forced_choiceRT_color,2021.2.3,Win32,143.9884809,,,,,,,,3,Ontime,short,f,1,2.0062,0,3,3,1,1,,,,,
0.03,,,,,,,,,f,blue,582ee44408b46b00010dbb07,2021-10-22_14h02.39.969,forced_choiceRT_color,2021.2.3,Win32,143.9884809,,,,,,,,3,Ontime,short,f,1,2.0221,1,0,4,1,1,,,,,
0.85,,,,,,,,,k,purple,582ee44408b46b00010dbb07,2021-10-22_14h02.39.969,forced_choiceRT_color,2021.2.3,Win32,143.9884809,,,,,,,,3,Ontime,short,k,1,2.0329,1,1,5,3,1,,,,,
1.41,,,,,,,,,j,red,582ee44408b46b00010dbb07,2021-10-22_14h02.39.969,forced_choiceRT_color,2021.2.3,Win32,143.9884809,,,,,,,,3,Ontime,short,j,1,2.013,1,2,6,2,1,,,,,
0.87,,,,,,,,,k,purple,582ee44408b46b00010dbb07,2021-10-22_14h02.39.969,forced_choiceRT_color,2021.2.3,Win32,143.9884809,,,,,,,,3,Ontime,short,k,1,2.018,1,3,7,3,1,,,,,
1.74,,,,,,,,,k,purple,582ee44408b46b00010dbb07,2021-10-22_14h02.39.969,forced_choiceRT_color,2021.2.3,Win32,143.9884809,,,,,,,,3,Ontime,short,j,0,2.096,2,0,8,3,1,,,,,
1.11,,,,,,,,,k,purple,582ee44408b46b00010dbb07,2021-10-22_14h02.39.969,forced_choiceRT_color,2021.2.3,Win32,143.9884809,,,,,,,,3,Ontime,short,k,1,1.9755,2,1,9,3,1,,,,,
0.96,,,,,,,,,k,purple,582ee44408b46b00010dbb07,2021-10-22_14h02.39.969,forced_choiceRT_color,2021.2.3,Win32,143.9884809,,,,,,,,3,Ontime,short,k,1,1.9958,2,2,10,3,1,,,,,
1.33,,,,,,,,,j,red,582ee44408b46b00010dbb07,2021-10-22_14h02.39.969,forced_choiceRT_color,2021.2.3,Win32,143.9884809,,,,,,,,3,Ontime,short,d,0,1.9859,2,3,11,2,1,,,,,
1.8,,,,,,,,,j,red,582ee44408b46b00010dbb07,2021-10-22_14h02.39.969,forced_choiceRT_color,2021.2.3,Win32,143.9884809,,,,,,,,3,Ontime,short,d,0,2.0643,3,0,12,2,1,,,,,
1.18,,,,,,,,,f,blue,582ee44408b46b00010dbb07,2021-10-22_14h02.39.969,forced_choiceRT_color,2021.2.3,Win32,143.9884809,,,,,,,,3,Ontime,short,f,1,1.9375,3,1,13,1,1,,,,,
1.15,,,,,,,,,k,purple,582ee44408b46b00010dbb07,2021-10-22_14h02.39.969,forced_choiceRT_color,2021.2.3,Win32,143.9884809,,,,,,,,3,Ontime,short,k,1,2.0153,3,2,14,3,1,,,,,
0.38,,,,,,,,,d,orange,582ee44408b46b00010dbb07,2021-10-22_14h02.39.969,forced_choiceRT_color,2021.2.3,Win32,143.9884809,,,,,,,,3,Ontime,short,d,1,1.9806,3,3,15,0,1,,,,,
1.32,,,,,,,,,k,purple,582ee44408b46b00010dbb07,2021-10-22_14h02.39.969,forced_choiceRT_color,2021.2.3,Win32,143.9884809,,,,,,,,3,Ontime,short,k,1,1.9101,4,0,16,3,1,,,,,
0.5,,,,,,,,,k,purple,582ee44408b46b00010dbb07,2021-10-22_14h02.39.969,forced_choiceRT_color,2021.2.3,Win32,143.9884809,,,,,,,,3,Ontime,short,k,1,1.9614,4,1,17,3,1,,,,,
1.08,,,,,,,,,d,orange,582ee44408b46b00010dbb07,2021-10-22_14h02.39.969,forced_choiceRT_color,2021.2.3,Win32,143.9884809,,,,,,,,3,Ontime,short,d,1,2.0108,4,2,18,0,1,,,,,
1.73,,,,,,,,,d,orange,582ee44408b46b00010dbb07,2021-10-22_14h02.39.969,forced_choiceRT_color,2021.2.3,Win32,143.9884809,,,,,,,,3,Ontime,short,d,1,2.0948,4,3,19,0,1,,,,,
0.74,,,,,,,,,j,red,582ee44408b46b00010dbb07,2021-10-22_14h02.39.969,forced_choiceRT_color,2021.2.3,Win32,143.9884809,,,,,,,,3,Ontime,short,j,1,1.9459,5,0,20,2,1,,,,,
1.47,,,,,,,,,f,blue,582ee44408b46b00010dbb07,2021-10-22_14h02.39.969,forced_choiceRT_color,2021.2.3,Win32,143.9884809,,,,,,,,3,Ontime,short,f,1,2.0418,5,1,21,1,1,,,,,
1.18,,,,,,,,,j,red,582ee44408b46b00010dbb07,2021-10-22_14h02.39.969,forced_choiceRT_color,2021.2.3,Win32,143.9884809,,,,,,,,3,Ontime,short,j,1,1.9467,5,2,22,2,1,,,,,
1.24,,,,,,,,,j,red,582ee44408b46b00010dbb07,2021-10-22_14h02.39.969,forced_choiceRT_color,2021.2.3,Win32,143.9884809,,,,,,,,3,Fast,short,j,1,1.8834,5,3,23,2,1,,,,,
0.74,,,,,,,,,d,orange,582ee44408b46b00010dbb07,2021-10-22_14h02.39.969,forced_choiceRT_color,2021.2.3,Win32,143.9884809,,,,,,,,3,Ontime,short,d,1,1.9743,6,0,24,0,1,,,,,
1.73,,,,,,,,,d,orange,582ee44408b46b00010dbb07,2021-10-22_14h02.39.969,forced_choiceRT_color,2021.2.3,Win32,143.9884809,,,,,,,,3,Ontime,short,d,1,2.0986,6,1,25,0,1,,,,,
0.52,,,,,,,,,j,red,582ee44408b46b00010dbb07,2021-10-22_14h02.39.969,forced_choiceRT_color,2021.2.3,Win32,143.9884809,,,,,,,,3,Ontime,short,j,1,2.0402,6,2,26,2,1,,,,,
1.89,,,,,,,,,k,purple,582ee44408b46b00010dbb07,2021-10-22_14h02.39.969,forced_choiceRT_color,2021.2.3,Win32,143.9884809,,,,,,,,3,Slow,short,j,0,2.1403,6,3,27,3,1,,,,,
0.65,,,,,,,,,f,blue,582ee44408b46b00010dbb07,2021-10-22_14h02.39.969,forced_choiceRT_color,2021.2.3,Win32,143.9884809,,,,,,,,3,Ontime,short,f,1,1.9978,7,0,28,1,1,,,,,
1.79,,,,,,,,,d,orange,582ee44408b46b00010dbb07,2021-10-22_14h02.39.969,forced_choiceRT_color,2021.2.3,Win32,143.9884809,,,,,,,,3,Ontime,short,k,0,2.0358,7,1,29,0,1,,,,,
0.91,,,,,,,,,d,orange,582ee44408b46b00010dbb07,2021-10-22_14h02.39.969,forced_choiceRT_color,2021.2.3,Win32,143.9884809,,,,,,,,3,Ontime,short,d,1,2.0763,7,2,30,0,1,,,,,
1.19,,,,,,,,,k,purple,582ee44408b46b00010dbb07,2021-10-22_14h02.39.969,forced_choiceRT_color,2021.2.3,Win32,143.9884809,,,,,,,,3,Ontime,short,k,1,1.9985,7,3,31,3,1,,,,,
1.58,,,,,,,,,f,blue,582ee44408b46b00010dbb07,2021-10-22_14h02.39.969,forced_choiceRT_color,2021.2.3,Win32,143.9884809,,,,,,,,3,Ontime,short,f,1,1.9268,8,0,32,1,1,,,,,
0.38,,,,,,,,,d,orange,582ee44408b46b00010dbb07,2021-10-22_14h02.39.969,forced_choiceRT_color,2021.2.3,Win32,143.9884809,,,,,,,,3,Ontime,short,d,1,2.0393,8,1,33,0,1,,,,,
1.68,,,,,,,,,f,blue,582ee44408b46b00010dbb07,2021-10-22_14h02.39.969,forced_choiceRT_color,2021.2.3,Win32,143.9884809,,,,,,,,3,Ontime,short,f,1,2.064,8,2,34,1,1,,,,,
0.14,,,,,,,,,d,orange,582ee44408b46b00010dbb07,2021-10-22_14h02.39.969,forced_choiceRT_color,2021.2.3,Win32,143.9884809,,,,,,,,3,Ontime,short,d,1,2.0449,8,3,35,0,1,,,,,
1.05,,,,,,,,,f,blue,582ee44408b46b00010dbb07,2021-10-22_14h02.39.969,forced_choiceRT_color,2021.2.3,Win32,143.9884809,,,,,,,,3,Ontime,short,f,1,1.9882,9,0,36,1,1,,,,,
0.93,,,,,,,,,j,red,582ee44408b46b00010dbb07,2021-10-22_14h02.39.969,forced_choiceRT_color,2021.2.3,Win32,143.9884809,,,,,,,,3,Ontime,short,j,1,2.0579,9,1,37,2,1,,,,,
0.13,,,,,,,,,f,blue,582ee44408b46b00010dbb07,2021-10-22_14h02.39.969,forced_choiceRT_color,2021.2.3,Win32,143.9884809,,,,,,,,3,Ontime,short,f,1,2.0071,9,2,38,1,1,,,,,
0.49,,,,,,,,,j,red,582ee44408b46b00010dbb07,2021-10-22_14h02.39.969,forced_choiceRT_color,2021.2.3,Win32,143.9884809,,,,,,,,3,Ontime,short,j,1,2.0415,9,3,39,2,1,,,,,
,,,,,,,,,,,582ee44408b46b00010dbb07,2021-10-22_14h02.39.969,forced_choiceRT_color,2021.2.3,Win32,143.9884809,,,,,,,,,,,,,,,,,,,2,0,2,0,1
0,,,,,,,,,k,purple,582ee44408b46b00010dbb07,2021-10-22_14h02.39.969,forced_choiceRT_color,2021.2.3,Win32,143.9884809,,,,,,,,4,Ontime,short,k,1,2.0022,0,0,0,3,1,,,,,
1.88,,,,,,,,,d,orange,582ee44408b46b00010dbb07,2021-10-22_14h02.39.969,forced_choiceRT_color,2021.2.3,Win32,143.9884809,,,,,,,,4,Slow,short,d,1,2.1057,0,1,1,0,1,,,,,
0.57,,,,,,,,,f,blue,582ee44408b46b00010dbb07,2021-10-22_14h02.39.969,forced_choiceRT_color,2021.2.3,Win32,143.9884809,,,,,,,,4,Ontime,short,f,1,2.028,0,2,2,1,1,,,,,
0.4,,,,,,,,,f,blue,582ee44408b46b00010dbb07,2021-10-22_14h02.39.969,forced_choiceRT_color,2021.2.3,Win32,143.9884809,,,,,,,,4,Ontime,short,f,1,2.064,0,3,3,1,1,,,,,
1.59,,,,,,,,,d,orange,582ee44408b46b00010dbb07,2021-10-22_14h02.39.969,forced_choiceRT_color,2021.2.3,Win32,143.9884809,,,,,,,,4,Ontime,short,f,0,2.0748,1,0,4,0,1,,,,,
1.09,,,,,,,,,f,blue,582ee44408b46b00010dbb07,2021-10-22_14h02.39.969,forced_choiceRT_color,2021.2.3,Win32,143.9884809,,,,,,,,4,Fast,short,d,0,0.0627,1,1,5,1,1,,,,,
0.91,,,,,,,,,d,orange,582ee44408b46b00010dbb07,2021-10-22_14h02.39.969,forced_choiceRT_color,2021.2.3,Win32,143.9884809,,,,,,,,4,Ontime,short,d,1,2.0014,1,2,6,0,1,,,,,
0.47,,,,,,,,,f,blue,582ee44408b46b00010dbb07,2021-10-22_14h02.39.969,forced_choiceRT_color,2021.2.3,Win32,143.9884809,,,,,,,,4,Ontime,short,f,1,2.0152,1,3,7,1,1,,,,,
1.23,,,,,,,,,j,red,582ee44408b46b00010dbb07,2021-10-22_14h02.39.969,forced_choiceRT_color,2021.2.3,Win32,143.9884809,,,,,,,,4,Ontime,short,j,1,2.0385,2,0,8,2,1,,,,,
0.36,,,,,,,,,f,blue,582ee44408b46b00010dbb07,2021-10-22_14h02.39.969,forced_choiceRT_color,2021.2.3,Win32,143.9884809,,,,,,,,4,Ontime,short,f,1,1.9792,2,1,9,1,1,,,,,
0.44,,,,,,,,,k,purple,582ee44408b46b00010dbb07,2021-10-22_14h02.39.969,forced_choiceRT_color,2021.2.3,Win32,143.9884809,,,,,,,,4,Ontime,short,k,1,2.0751,2,2,10,3,1,,,,,
1.77,,,,,,,,,f,blue,582ee44408b46b00010dbb07,2021-10-22_14h02.39.969,forced_choiceRT_color,2021.2.3,Win32,143.9884809,,,,,,,,4,Ontime,short,k,0,2.0255,2,3,11,1,1,,,,,
0.37,,,,,,,,,j,red,582ee44408b46b00010dbb07,2021-10-22_14h02.39.969,forced_choiceRT_color,2021.2.3,Win32,143.9884809,,,,,,,,4,Ontime,short,j,1,2.0694,3,0,12,2,1,,,,,
1.13,,,,,,,,,j,red,582ee44408b46b00010dbb07,2021-10-22_14h02.39.969,forced_choiceRT_color,2021.2.3,Win32,143.9884809,,,,,,,,4,Ontime,short,j,1,2.0489,3,1,13,2,1,,,,,
1.81,,,,,,,,,k,purple,582ee44408b46b00010dbb07,2021-10-22_14h02.39.969,forced_choiceRT_color,2021.2.3,Win32,143.9884809,,,,,,,,4,Slow,short,d,0,2.1032,3,2,14,3,1,,,,,
1.16,,,,,,,,,d,orange,582ee44408b46b00010dbb07,2021-10-22_14h02.39.969,forced_choiceRT_color,2021.2.3,Win32,143.9884809,,,,,,,,4,Ontime,short,d,1,2.0234,3,3,15,0,1,,,,,
1.63,,,,,,,,,f,blue,582ee44408b46b00010dbb07,2021-10-22_14h02.39.969,forced_choiceRT_color,2021.2.3,Win32,143.9884809,,,,,,,,4,Slow,short,f,1,2.1104,4,0,16,1,1,,,,,
1.71,,,,,,,,,f,blue,582ee44408b46b00010dbb07,2021-10-22_14h02.39.969,forced_choiceRT_color,2021.2.3,Win32,143.9884809,,,,,,,,4,Ontime,short,j,0,2.0817,4,1,17,1,1,,,,,
0.98,,,,,,,,,d,orange,582ee44408b46b00010dbb07,2021-10-22_14h02.39.969,forced_choiceRT_color,2021.2.3,Win32,143.9884809,,,,,,,,4,Ontime,short,d,1,2.025,4,2,18,0,1,,,,,
1.07,,,,,,,,,j,red,582ee44408b46b00010dbb07,2021-10-22_14h02.39.969,forced_choiceRT_color,2021.2.3,Win32,143.9884809,,,,,,,,4,Ontime,short,j,1,2.0432,4,3,19,2,1,,,,,
1.95,,,,,,,,,j,red,582ee44408b46b00010dbb07,2021-10-22_14h02.39.969,forced_choiceRT_color,2021.2.3,Win32,143.9884809,,,,,,,,4,Ontime,short,d,0,2.0594,5,0,20,2,1,,,,,
1.64,,,,,,,,,k,purple,582ee44408b46b00010dbb07,2021-10-22_14h02.39.969,forced_choiceRT_color,2021.2.3,Win32,143.9884809,,,,,,,,4,Ontime,short,d,0,1.9842,5,1,21,3,1,,,,,
0.35,,,,,,,,,d,orange,582ee44408b46b00010dbb07,2021-10-22_14h02.39.969,forced_choiceRT_color,2021.2.3,Win32,143.9884809,,,,,,,,4,Ontime,short,d,1,2.0733,5,2,22,0,1,,,,,
0.91,,,,,,,,,k,purple,582ee44408b46b00010dbb07,2021-10-22_14h02.39.969,forced_choiceRT_color,2021.2.3,Win32,143.9884809,,,,,,,,4,Slow,short,k,1,2.1127,5,3,23,3,1,,,,,
1.49,,,,,,,,,d,orange,582ee44408b46b00010dbb07,2021-10-22_14h02.39.969,forced_choiceRT_color,2021.2.3,Win32,143.9884809,,,,,,,,4,Slow,short,f,0,2.1188,6,0,24,0,1,,,,,
0.99,,,,,,,,,k,purple,582ee44408b46b00010dbb07,2021-10-22_14h02.39.969,forced_choiceRT_color,2021.2.3,Win32,143.9884809,,,,,,,,4,Ontime,short,k,1,2.0528,6,1,25,3,1,,,,,
1.58,,,,,,,,,k,purple,582ee44408b46b00010dbb07,2021-10-22_14h02.39.969,forced_choiceRT_color,2021.2.3,Win32,143.9884809,,,,,,,,4,Ontime,short,k,1,2.0017,6,2,26,3,1,,,,,
1.95,,,,,,,,,f,blue,582ee44408b46b00010dbb07,2021-10-22_14h02.39.969,forced_choiceRT_color,2021.2.3,Win32,143.9884809,,,,,,,,4,Ontime,short,j,0,2.0404,6,3,27,1,1,,,,,
0.63,,,,,,,,,k,purple,582ee44408b46b00010dbb07,2021-10-22_14h02.39.969,forced_choiceRT_color,2021.2.3,Win32,143.9884809,,,,,,,,4,Ontime,short,k,1,2.0432,7,0,28,3,1,,,,,
0.02,,,,,,,,,j,red,582ee44408b46b00010dbb07,2021-10-22_14h02.39.969,forced_choiceRT_color,2021.2.3,Win32,143.9884809,,,,,,,,4,Ontime,short,f,0,2.0449,7,1,29,2,1,,,,,
1.86,,,,,,,,,j,red,582ee44408b46b00010dbb07,2021-10-22_14h02.39.969,forced_choiceRT_color,2021.2.3,Win32,143.9884809,,,,,,,,4,Ontime,short,f,0,2.091,7,2,30,2,1,,,,,
0.99,,,,,,,,,d,orange,582ee44408b46b00010dbb07,2021-10-22_14h02.39.969,forced_choiceRT_color,2021.2.3,Win32,143.9884809,,,,,,,,4,Ontime,short,d,1,2.0477,7,3,31,0,1,,,,,
1.79,,,,,,,,,f,blue,582ee44408b46b00010dbb07,2021-10-22_14h02.39.969,forced_choiceRT_color,2021.2.3,Win32,143.9884809,,,,,,,,4,Ontime,short,j,0,2.0732,8,0,32,1,1,,,,,
0.84,,,,,,,,,j,red,582ee44408b46b00010dbb07,2021-10-22_14h02.39.969,forced_choiceRT_color,2021.2.3,Win32,143.9884809,,,,,,,,4,Ontime,short,j,1,2.0974,8,1,33,2,1,,,,,
1.14,,,,,,,,,d,orange,582ee44408b46b00010dbb07,2021-10-22_14h02.39.969,forced_choiceRT_color,2021.2.3,Win32,143.9884809,,,,,,,,4,Ontime,short,d,1,1.9699,8,2,34,0,1,,,,,
0.94,,,,,,,,,k,purple,582ee44408b46b00010dbb07,2021-10-22_14h02.39.969,forced_choiceRT_color,2021.2.3,Win32,143.9884809,,,,,,,,4,Fast,short,f,0,0.0767,8,3,35,3,1,,,,,
0.81,,,,,,,,,d,orange,582ee44408b46b00010dbb07,2021-10-22_14h02.39.969,forced_choiceRT_color,2021.2.3,Win32,143.9884809,,,,,,,,4,Ontime,short,d,1,2.0633,9,0,36,0,1,,,,,
1.88,,,,,,,,,k,purple,582ee44408b46b00010dbb07,2021-10-22_14h02.39.969,forced_choiceRT_color,2021.2.3,Win32,143.9884809,,,,,,,,4,Ontime,short,j,0,2.084,9,1,37,3,1,,,,,
1.44,,,,,,,,,j,red,582ee44408b46b00010dbb07,2021-10-22_14h02.39.969,forced_choiceRT_color,2021.2.3,Win32,143.9884809,,,,,,,,4,Ontime,short,j,1,1.9709,9,2,38,2,1,,,,,
0.78,,,,,,,,,j,red,582ee44408b46b00010dbb07,2021-10-22_14h02.39.969,forced_choiceRT_color,2021.2.3,Win32,143.9884809,,,,,,,,4,Ontime,short,j,1,2.0177,9,3,39,2,1,,,,,
,,,,,,,,,,,582ee44408b46b00010dbb07,2021-10-22_14h02.39.969,forced_choiceRT_color,2021.2.3,Win32,143.9884809,,,,,,,,,,,,,,,,,,,3,0,3,0,1
1.71,,,,,,,,,f,blue,582ee44408b46b00010dbb07,2021-10-22_14h02.39.969,forced_choiceRT_color,2021.2.3,Win32,143.9884809,,,,,,,,5,Slow,short,d,0,7.9306,0,0,0,1,1,,,,,
1.23,,,,,,,,,j,red,582ee44408b46b00010dbb07,2021-10-22_14h02.39.969,forced_choiceRT_color,2021.2.3,Win32,143.9884809,,,,,,,,5,Ontime,short,j,1,2.0848,0,1,1,2,1,,,,,
0.75,,,,,,,,,k,purple,582ee44408b46b00010dbb07,2021-10-22_14h02.39.969,forced_choiceRT_color,2021.2.3,Win32,143.9884809,,,,,,,,5,Slow,short,k,1,2.1335,0,2,2,3,1,,,,,
0.55,,,,,,,,,j,red,582ee44408b46b00010dbb07,2021-10-22_14h02.39.969,forced_choiceRT_color,2021.2.3,Win32,143.9884809,,,,,,,,5,Ontime,short,j,1,2.0593,0,3,3,2,1,,,,,
1.72,,,,,,,,,j,red,582ee44408b46b00010dbb07,2021-10-22_14h02.39.969,forced_choiceRT_color,2021.2.3,Win32,143.9884809,,,,,,,,5,Ontime,short,j,1,2.0278,1,0,4,2,1,,,,,
0.7,,,,,,,,,f,blue,582ee44408b46b00010dbb07,2021-10-22_14h02.39.969,forced_choiceRT_color,2021.2.3,Win32,143.9884809,,,,,,,,5,Ontime,short,d,0,2.0036,1,1,5,1,1,,,,,
0.58,,,,,,,,,j,red,582ee44408b46b00010dbb07,2021-10-22_14h02.39.969,forced_choiceRT_color,2021.2.3,Win32,143.9884809,,,,,,,,5,Ontime,short,j,1,2.0248,1,2,6,2,1,,,,,
1.31,,,,,,,,,d,orange,582ee44408b46b00010dbb07,2021-10-22_14h02.39.969,forced_choiceRT_color,2021.2.3,Win32,143.9884809,,,,,,,,5,Slow,short,d,1,4.9246,1,3,7,0,1,,,,,
1.03,,,,,,,,,f,blue,582ee44408b46b00010dbb07,2021-10-22_14h02.39.969,forced_choiceRT_color,2021.2.3,Win32,143.9884809,,,,,,,,5,Ontime,short,d,0,2.0599,2,0,8,1,1,,,,,
0.51,,,,,,,,,f,blue,582ee44408b46b00010dbb07,2021-10-22_14h02.39.969,forced_choiceRT_color,2021.2.3,Win32,143.9884809,,,,,,,,5,Ontime,short,f,1,2.0416,2,1,9,1,1,,,,,
1.82,,,,,,,,,j,red,582ee44408b46b00010dbb07,2021-10-22_14h02.39.969,forced_choiceRT_color,2021.2.3,Win32,143.9884809,,,,,,,,5,Slow,short,f,0,2.1443,2,2,10,2,1,,,,,
0.58,,,,,,,,,k,purple,582ee44408b46b00010dbb07,2021-10-22_14h02.39.969,forced_choiceRT_color,2021.2.3,Win32,143.9884809,,,,,,,,5,Ontime,short,k,1,2.043,2,3,11,3,1,,,,,
0.49,,,,,,,,,d,orange,582ee44408b46b00010dbb07,2021-10-22_14h02.39.969,forced_choiceRT_color,2021.2.3,Win32,143.9884809,,,,,,,,5,Ontime,short,d,1,1.963,3,0,12,0,1,,,,,
1.84,,,,,,,,,k,purple,582ee44408b46b00010dbb07,2021-10-22_14h02.39.969,forced_choiceRT_color,2021.2.3,Win32,143.9884809,,,,,,,,5,Ontime,short,j,0,2.0094,3,1,13,3,1,,,,,
1.37,,,,,,,,,f,blue,582ee44408b46b00010dbb07,2021-10-22_14h02.39.969,forced_choiceRT_color,2021.2.3,Win32,143.9884809,,,,,,,,5,Ontime,short,f,1,1.981,3,2,14,1,1,,,,,
1.75,,,,,,,,,k,purple,582ee44408b46b00010dbb07,2021-10-22_14h02.39.969,forced_choiceRT_color,2021.2.3,Win32,143.9884809,,,,,,,,5,Ontime,short,k,1,2.0571,3,3,15,3,1,,,,,
0.68,,,,,,,,,d,orange,582ee44408b46b00010dbb07,2021-10-22_14h02.39.969,forced_choiceRT_color,2021.2.3,Win32,143.9884809,,,,,,,,5,Ontime,short,d,1,2.0934,4,0,16,0,1,,,,,
1.39,,,,,,,,,f,blue,582ee44408b46b00010dbb07,2021-10-22_14h02.39.969,forced_choiceRT_color,2021.2.3,Win32,143.9884809,,,,,,,,5,Ontime,short,f,1,2.0363,4,1,17,1,1,,,,,
0.65,,,,,,,,,k,purple,582ee44408b46b00010dbb07,2021-10-22_14h02.39.969,forced_choiceRT_color,2021.2.3,Win32,143.9884809,,,,,,,,5,Ontime,short,k,1,2.0554,4,2,18,3,1,,,,,
1.26,,,,,,,,,d,orange,582ee44408b46b00010dbb07,2021-10-22_14h02.39.969,forced_choiceRT_color,2021.2.3,Win32,143.9884809,,,,,,,,5,Ontime,short,d,1,2.0102,4,3,19,0,1,,,,,
1.8,,,,,,,,,f,blue,582ee44408b46b00010dbb07,2021-10-22_14h02.39.969,forced_choiceRT_color,2021.2.3,Win32,143.9884809,,,,,,,,5,Slow,short,f,1,2.1577,5,0,20,1,1,,,,,
0.24,,,,,,,,,k,purple,582ee44408b46b00010dbb07,2021-10-22_14h02.39.969,forced_choiceRT_color,2021.2.3,Win32,143.9884809,,,,,,,,5,Ontime,short,k,1,2.0363,5,1,21,3,1,,,,,
1.75,,,,,,,,,k,purple,582ee44408b46b00010dbb07,2021-10-22_14h02.39.969,forced_choiceRT_color,2021.2.3,Win32,143.9884809,,,,,,,,5,Ontime,short,j,0,1.9998,5,2,22,3,1,,,,,
0.77,,,,,,,,,f,blue,582ee44408b46b00010dbb07,2021-10-22_14h02.39.969,forced_choiceRT_color,2021.2.3,Win32,143.9884809,,,,,,,,5,Ontime,short,f,1,2.0086,5,3,23,1,1,,,,,
0.92,,,,,,,,,f,blue,582ee44408b46b00010dbb07,2021-10-22_14h02.39.969,forced_choiceRT_color,2021.2.3,Win32,143.9884809,,,,,,,,5,Ontime,short,f,1,2.0062,6,0,24,1,1,,,,,
1.68,,,,,,,,,j,red,582ee44408b46b00010dbb07,2021-10-22_14h02.39.969,forced_choiceRT_color,2021.2.3,Win32,143.9884809,,,,,,,,5,Ontime,short,j,1,2.0109,6,1,25,2,1,,,,,
0.55,,,,,,,,,k,purple,582ee44408b46b00010dbb07,2021-10-22_14h02.39.969,forced_choiceRT_color,2021.2.3,Win32,143.9884809,,,,,,,,5,Ontime,short,k,1,2.0415,6,2,26,3,1,,,,,
0.23,,,,,,,,,d,orange,582ee44408b46b00010dbb07,2021-10-22_14h02.39.969,forced_choiceRT_color,2021.2.3,Win32,143.9884809,,,,,,,,5,Ontime,short,d,1,2.0431,6,3,27,0,1,,,,,
1.57,,,,,,,,,d,orange,582ee44408b46b00010dbb07,2021-10-22_14h02.39.969,forced_choiceRT_color,2021.2.3,Win32,143.9884809,,,,,,,,5,Slow,short,d,1,2.1349,7,0,28,0,1,,,,,
0.34,,,,,,,,,j,red,582ee44408b46b00010dbb07,2021-10-22_14h02.39.969,forced_choiceRT_color,2021.2.3,Win32,143.9884809,,,,,,,,5,Ontime,short,j,1,2.0786,7,1,29,2,1,,,,,
0.85,,,,,,,,,d,orange,582ee44408b46b00010dbb07,2021-10-22_14h02.39.969,forced_choiceRT_color,2021.2.3,Win32,143.9884809,,,,,,,,5,Ontime,short,d,1,2.022,7,2,30,0,1,,,,,
0.24,,,,,,,,,d,orange,582ee44408b46b00010dbb07,2021-10-22_14h02.39.969,forced_choiceRT_color,2021.2.3,Win32,143.9884809,,,,,,,,5,Ontime,short,d,1,2.0173,7,3,31,0,1,,,,,
0.49,,,,,,,,,d,orange,582ee44408b46b00010dbb07,2021-10-22_14h02.39.969,forced_choiceRT_color,2021.2.3,Win32,143.9884809,,,,,,,,5,Ontime,short,d,1,1.969,8,0,32,0,1,,,,,
1.72,,,,,,,,,j,red,582ee44408b46b00010dbb07,2021-10-22_14h02.39.969,forced_choiceRT_color,2021.2.3,Win32,143.9884809,,,,,,,,5,Ontime,short,j,1,2.0597,8,1,33,2,1,,,,,
1.36,,,,,,,,,j,red,582ee44408b46b00010dbb07,2021-10-22_14h02.39.969,forced_choiceRT_color,2021.2.3,Win32,143.9884809,,,,,,,,5,Ontime,short,j,1,2.0239,8,2,34,2,1,,,,,
0.09,,,,,,,,,d,orange,582ee44408b46b00010dbb07,2021-10-22_14h02.39.969,forced_choiceRT_color,2021.2.3,Win32,143.9884809,,,,,,,,5,Ontime,short,d,1,2.0376,8,3,35,0,1,,,,,
1.02,,,,,,,,,k,purple,582ee44408b46b00010dbb07,2021-10-22_14h02.39.969,forced_choiceRT_color,2021.2.3,Win32,143.9884809,,,,,,,,5,Ontime,short,k,1,2.0538,9,0,36,3,1,,,,,
1.36,,,,,,,,,f,blue,582ee44408b46b00010dbb07,2021-10-22_14h02.39.969,forced_choiceRT_color,2021.2.3,Win32,143.9884809,,,,,,,,5,Slow,short,f,1,2.5852,9,1,37,1,1,,,,,
0.48,,,,,,,,,j,red,582ee44408b46b00010dbb07,2021-10-22_14h02.39.969,forced_choiceRT_color,2021.2.3,Win32,143.9884809,,,,,,,,5,Ontime,short,j,1,2.0557,9,2,38,2,1,,,,,
0.94,,,,,,,,,k,purple,582ee44408b46b00010dbb07,2021-10-22_14h02.39.969,forced_choiceRT_color,2021.2.3,Win32,143.9884809,,,,,,,,5,Ontime,short,k,1,2.0856,9,3,39,3,1,,,,,
,,,,,,,,,,,582ee44408b46b00010dbb07,2021-10-22_14h02.39.969,forced_choiceRT_color,2021.2.3,Win32,143.9884809,,,,,,,,,,,,,,,,,,,4,0,4,0,1
0.86,,,,,,,,,j,red,582ee44408b46b00010dbb07,2021-10-22_14h02.39.969,forced_choiceRT_color,2021.2.3,Win32,143.9884809,,,,,,,,6,Ontime,short,j,1,2.0284,0,0,0,2,1,,,,,
1.37,,,,,,,,,d,orange,582ee44408b46b00010dbb07,2021-10-22_14h02.39.969,forced_choiceRT_color,2021.2.3,Win32,143.9884809,,,,,,,,6,Ontime,short,f,0,2.0121,0,1,1,0,1,,,,,
1.48,,,,,,,,,d,orange,582ee44408b46b00010dbb07,2021-10-22_14h02.39.969,forced_choiceRT_color,2021.2.3,Win32,143.9884809,,,,,,,,6,Ontime,short,d,1,2.0357,0,2,2,0,1,,,,,
1.96,,,,,,,,,j,red,582ee44408b46b00010dbb07,2021-10-22_14h02.39.969,forced_choiceRT_color,2021.2.3,Win32,143.9884809,,,,,,,,6,Slow,short,j,1,2.3773,0,3,3,2,1,,,,,
0.96,,,,,,,,,k,purple,582ee44408b46b00010dbb07,2021-10-22_14h02.39.969,forced_choiceRT_color,2021.2.3,Win32,143.9884809,,,,,,,,6,Ontime,short,k,1,2.0371,1,0,4,3,1,,,,,
1.84,,,,,,,,,f,blue,582ee44408b46b00010dbb07,2021-10-22_14h02.39.969,forced_choiceRT_color,2021.2.3,Win32,143.9884809,,,,,,,,6,Slow,short,f,1,2.6289,1,1,5,1,1,,,,,
0.05,,,,,,,,,k,purple,582ee44408b46b00010dbb07,2021-10-22_14h02.39.969,forced_choiceRT_color,2021.2.3,Win32,143.9884809,,,,,,,,6,Ontime,short,k,1,2.0155,1,2,6,3,1,,,,,
0.99,,,,,,,,,j,red,582ee44408b46b00010dbb07,2021-10-22_14h02.39.969,forced_choiceRT_color,2021.2.3,Win32,143.9884809,,,,,,,,6,Ontime,short,j,1,2.0602,1,3,7,2,1,,,,,
0.3,,,,,,,,,f,blue,582ee44408b46b00010dbb07,2021-10-22_14h02.39.969,forced_choiceRT_color,2021.2.3,Win32,143.9884809,,,,,,,,6,Ontime,short,f,1,1.9669,2,0,8,1,1,,,,,
0.46,,,,,,,,,k,purple,582ee44408b46b00010dbb07,2021-10-22_14h02.39.969,forced_choiceRT_color,2021.2.3,Win32,143.9884809,,,,,,,,6,Ontime,short,k,1,1.994,2,1,9,3,1,,,,,
1.03,,,,,,,,,f,blue,582ee44408b46b00010dbb07,2021-10-22_14h02.39.969,forced_choiceRT_color,2021.2.3,Win32,143.9884809,,,,,,,,6,Ontime,short,j,0,1.9945,2,2,10,1,1,,,,,
1.43,,,,,,,,,f,blue,582ee44408b46b00010dbb07,2021-10-22_14h02.39.969,forced_choiceRT_color,2021.2.3,Win32,143.9884809,,,,,,,,6,Ontime,short,f,1,1.9752,2,3,11,1,1,,,,,
0.37,,,,,,,,,f,blue,582ee44408b46b00010dbb07,2021-10-22_14h02.39.969,forced_choiceRT_color,2021.2.3,Win32,143.9884809,,,,,,,,6,Ontime,short,f,1,1.9958,3,0,12,1,1,,,,,
1.49,,,,,,,,,d,orange,582ee44408b46b00010dbb07,2021-10-22_14h02.39.969,forced_choiceRT_color,2021.2.3,Win32,143.9884809,,,,,,,,6,Slow,short,d,1,2.1167,3,1,13,0,1,,,,,
1.01,,,,,,,,,d,orange,582ee44408b46b00010dbb07,2021-10-22_14h02.39.969,forced_choiceRT_color,2021.2.3,Win32,143.9884809,,,,,,,,6,Ontime,short,d,1,2.0849,3,2,14,0,1,,,,,
0.72,,,,,,,,,k,purple,582ee44408b46b00010dbb07,2021-10-22_14h02.39.969,forced_choiceRT_color,2021.2.3,Win32,143.9884809,,,,,,,,6,Ontime,short,k,1,2.0433,3,3,15,3,1,,,,,
1.03,,,,,,,,,d,orange,582ee44408b46b00010dbb07,2021-10-22_14h02.39.969,forced_choiceRT_color,2021.2.3,Win32,143.9884809,,,,,,,,6,Ontime,short,d,1,1.993,4,0,16,0,1,,,,,
0.08,,,,,,,,,d,orange,582ee44408b46b00010dbb07,2021-10-22_14h02.39.969,forced_choiceRT_color,2021.2.3,Win32,143.9884809,,,,,,,,6,Ontime,short,d,1,1.9825,4,1,17,0,1,,,,,
1.25,,,,,,,,,d,orange,582ee44408b46b00010dbb07,2021-10-22_14h02.39.969,forced_choiceRT_color,2021.2.3,Win32,143.9884809,,,,,,,,6,Ontime,short,d,1,2.078,4,2,18,0,1,,,,,
1.14,,,,,,,,,f,blue,582ee44408b46b00010dbb07,2021-10-22_14h02.39.969,forced_choiceRT_color,2021.2.3,Win32,143.9884809,,,,,,,,6,Ontime,short,f,1,2.071,4,3,19,1,1,,,,,
0.29,,,,,,,,,d,orange,582ee44408b46b00010dbb07,2021-10-22_14h02.39.969,forced_choiceRT_color,2021.2.3,Win32,143.9884809,,,,,,,,6,Ontime,short,d,1,2.056,5,0,20,0,1,,,,,
1.5,,,,,,,,,k,purple,582ee44408b46b00010dbb07,2021-10-22_14h02.39.969,forced_choiceRT_color,2021.2.3,Win32,143.9884809,,,,,,,,6,Slow,short,k,1,2.1212,5,1,21,3,1,,,,,
1.64,,,,,,,,,k,purple,582ee44408b46b00010dbb07,2021-10-22_14h02.39.969,forced_choiceRT_color,2021.2.3,Win32,143.9884809,,,,,,,,6,Ontime,short,k,1,2.0186,5,2,22,3,1,,,,,
0.32,,,,,,,,,k,purple,582ee44408b46b00010dbb07,2021-10-22_14h02.39.969,forced_choiceRT_color,2021.2.3,Win32,143.9884809,,,,,,,,6,Ontime,short,k,1,2.0235,5,3,23,3,1,,,,,
0.84,,,,,,,,,d,orange,582ee44408b46b00010dbb07,2021-10-22_14h02.39.969,forced_choiceRT_color,2021.2.3,Win32,143.9884809,,,,,,,,6,Ontime,short,d,1,2.0008,6,0,24,0,1,,,,,
0.47,,,,,,,,,j,red,582ee44408b46b00010dbb07,2021-10-22_14h02.39.969,forced_choiceRT_color,2021.2.3,Win32,143.9884809,,,,,,,,6,Ontime,short,j,1,1.9946,6,1,25,2,1,,,,,
1.54,,,,,,,,,j,red,582ee44408b46b00010dbb07,2021-10-22_14h02.39.969,forced_choiceRT_color,2021.2.3,Win32,143.9884809,,,,,,,,6,Ontime,short,j,1,2.05,6,2,26,2,1,,,,,
0.27,,,,,,,,,j,red,582ee44408b46b00010dbb07,2021-10-22_14h02.39.969,forced_choiceRT_color,2021.2.3,Win32,143.9884809,,,,,,,,6,Ontime,short,j,1,2.0365,6,3,27,2,1,,,,,
1.08,,,,,,,,,f,blue,582ee44408b46b00010dbb07,2021-10-22_14h02.39.969,forced_choiceRT_color,2021.2.3,Win32,143.9884809,,,,,,,,6,Ontime,short,f,1,2.0151,7,0,28,1,1,,,,,
1.77,,,,,,,,,k,purple,582ee44408b46b00010dbb07,2021-10-22_14h02.39.969,forced_choiceRT_color,2021.2.3,Win32,143.9884809,,,,,,,,6,Slow,short,k,1,2.2018,7,1,29,3,1,,,,,
0.46,,,,,,,,,d,orange,582ee44408b46b00010dbb07,2021-10-22_14h02.39.969,forced_choiceRT_color,2021.2.3,Win32,143.9884809,,,,,,,,6,Ontime,short,d,1,1.9555,7,2,30,0,1,,,,,
0.5,,,,,,,,,j,red,582ee44408b46b00010dbb07,2021-10-22_14h02.39.969,forced_choiceRT_color,2021.2.3,Win32,143.9884809,,,,,,,,6,Ontime,short,j,1,2.0262,7,3,31,2,1,,,,,
1.45,,,,,,,,,f,blue,582ee44408b46b00010dbb07,2021-10-22_14h02.39.969,forced_choiceRT_color,2021.2.3,Win32,143.9884809,,,,,,,,6,Slow,short,f,1,2.1141,8,0,32,1,1,,,,,
1.92,,,,,,,,,j,red,582ee44408b46b00010dbb07,2021-10-22_14h02.39.969,forced_choiceRT_color,2021.2.3,Win32,143.9884809,,,,,,,,6,Slow,short,j,1,2.5046,8,1,33,2,1,,,,,
1.93,,,,,,,,,f,blue,582ee44408b46b00010dbb07,2021-10-22_14h02.39.969,forced_choiceRT_color,2021.2.3,Win32,143.9884809,,,,,,,,6,Slow,short,f,1,2.8353,8,2,34,1,1,,,,,
0.28,,,,,,,,,j,red,582ee44408b46b00010dbb07,2021-10-22_14h02.39.969,forced_choiceRT_color,2021.2.3,Win32,143.9884809,,,,,,,,6,Ontime,short,j,1,2.0432,8,3,35,2,1,,,,,
1.49,,,,,,,,,f,blue,582ee44408b46b00010dbb07,2021-10-22_14h02.39.969,forced_choiceRT_color,2021.2.3,Win32,143.9884809,,,,,,,,6,Slow,short,f,1,2.1265,9,0,36,1,1,,,,,
0.77,,,,,,,,,k,purple,582ee44408b46b00010dbb07,2021-10-22_14h02.39.969,forced_choiceRT_color,2021.2.3,Win32,143.9884809,,,,,,,,6,Ontime,short,k,1,2.078,9,1,37,3,1,,,,,
0.51,,,,,,,,,j,red,582ee44408b46b00010dbb07,2021-10-22_14h02.39.969,forced_choiceRT_color,2021.2.3,Win32,143.9884809,,,,,,,,6,Ontime,short,j,1,2.0613,9,2,38,2,1,,,,,
1.93,,,,,,,,,k,purple,582ee44408b46b00010dbb07,2021-10-22_14h02.39.969,forced_choiceRT_color,2021.2.3,Win32,143.9884809,,,,,,,,6,Slow,short,k,1,2.4394,9,3,39,3,1,,,,,
,,,,,,,,,,,582ee44408b46b00010dbb07,2021-10-22_14h02.39.969,forced_choiceRT_color,2021.2.3,Win32,143.9884809,,,,,,,,,,,,,,,,,,,5,0,5,0,1
1.41,,,,,,,,,j,red,582ee44408b46b00010dbb07,2021-10-22_14h02.39.969,forced_choiceRT_color,2021.2.3,Win32,143.9884809,,,,,,,,7,Ontime,short,j,1,2.0088,0,0,0,2,1,,,,,
0.13,,,,,,,,,k,purple,582ee44408b46b00010dbb07,2021-10-22_14h02.39.969,forced_choiceRT_color,2021.2.3,Win32,143.9884809,,,,,,,,7,Ontime,short,k,1,2.0555,0,1,1,3,1,,,,,
1.58,,,,,,,,,j,red,582ee44408b46b00010dbb07,2021-10-22_14h02.39.969,forced_choiceRT_color,2021.2.3,Win32,143.9884809,,,,,,,,7,Ontime,short,j,1,2.0972,0,2,2,2,1,,,,,
1.27,,,,,,,,,k,purple,582ee44408b46b00010dbb07,2021-10-22_14h02.39.969,forced_choiceRT_color,2021.2.3,Win32,143.9884809,,,,,,,,7,Ontime,short,k,1,2.0931,0,3,3,3,1,,,,,
0.2,,,,,,,,,j,red,582ee44408b46b00010dbb07,2021-10-22_14h02.39.969,forced_choiceRT_color,2021.2.3,Win32,143.9884809,,,,,,,,7,Ontime,short,j,1,2.0585,1,0,4,2,1,,,,,
0.98,,,,,,,,,d,orange,582ee44408b46b00010dbb07,2021-10-22_14h02.39.969,forced_choiceRT_color,2021.2.3,Win32,143.9884809,,,,,,,,7,Ontime,short,d,1,2.064,1,1,5,0,1,,,,,
0.08,,,,,,,,,d,orange,582ee44408b46b00010dbb07,2021-10-22_14h02.39.969,forced_choiceRT_color,2021.2.3,Win32,143.9884809,,,,,,,,7,Ontime,short,d,1,2.0963,1,2,6,0,1,,,,,
1.01,,,,,,,,,d,orange,582ee44408b46b00010dbb07,2021-10-22_14h02.39.969,forced_choiceRT_color,2021.2.3,Win32,143.9884809,,,,,,,,7,Ontime,short,d,1,2.0242,1,3,7,0,1,,,,,
0.61,,,,,,,,,f,blue,582ee44408b46b00010dbb07,2021-10-22_14h02.39.969,forced_choiceRT_color,2021.2.3,Win32,143.9884809,,,,,,,,7,Ontime,short,f,1,2.0174,2,0,8,1,1,,,,,
0.5,,,,,,,,,d,orange,582ee44408b46b00010dbb07,2021-10-22_14h02.39.969,forced_choiceRT_color,2021.2.3,Win32,143.9884809,,,,,,,,7,Ontime,short,d,1,2.0434,2,1,9,0,1,,,,,
1.38,,,,,,,,,j,red,582ee44408b46b00010dbb07,2021-10-22_14h02.39.969,forced_choiceRT_color,2021.2.3,Win32,143.9884809,,,,,,,,7,Ontime,short,j,1,2.0159,2,2,10,2,1,,,,,
0.21,,,,,,,,,j,red,582ee44408b46b00010dbb07,2021-10-22_14h02.39.969,forced_choiceRT_color,2021.2.3,Win32,143.9884809,,,,,,,,7,Ontime,short,j,1,2.0584,2,3,11,2,1,,,,,
0.65,,,,,,,,,d,orange,582ee44408b46b00010dbb07,2021-10-22_14h02.39.969,forced_choiceRT_color,2021.2.3,Win32,143.9884809,,,,,,,,7,Ontime,short,d,1,2.0664,3,0,12,0,1,,,,,
1.91,,,,,,,,,f,blue,582ee44408b46b00010dbb07,2021-10-22_14h02.39.969,forced_choiceRT_color,2021.2.3,Win32,143.9884809,,,,,,,,7,Slow,short,j,0,2.2113,3,1,13,1,1,,,,,
0.43,,,,,,,,,k,purple,582ee44408b46b00010dbb07,2021-10-22_14h02.39.969,forced_choiceRT_color,2021.2.3,Win32,143.9884809,,,,,,,,7,Ontime,short,k,1,2.087,3,2,14,3,1,,,,,
1.78,,,,,,,,,k,purple,582ee44408b46b00010dbb07,2021-10-22_14h02.39.969,forced_choiceRT_color,2021.2.3,Win32,143.9884809,,,,,,,,7,Slow,short,k,1,2.3495,3,3,15,3,1,,,,,
0.02,,,,,,,,,j,red,582ee44408b46b00010dbb07,2021-10-22_14h02.39.969,forced_choiceRT_color,2021.2.3,Win32,143.9884809,,,,,,,,7,Ontime,short,j,1,2.0711,4,0,16,2,1,,,,,
0.91,,,,,,,,,d,orange,582ee44408b46b00010dbb07,2021-10-22_14h02.39.969,forced_choiceRT_color,2021.2.3,Win32,143.9884809,,,,,,,,7,Ontime,short,d,1,2.0615,4,1,17,0,1,,,,,
1.71,,,,,,,,,f,blue,582ee44408b46b00010dbb07,2021-10-22_14h02.39.969,forced_choiceRT_color,2021.2.3,Win32,143.9884809,,,,,,,,7,Slow,short,f,1,2.1698,4,2,18,1,1,,,,,
0.36,,,,,,,,,j,red,582ee44408b46b00010dbb07,2021-10-22_14h02.39.969,forced_choiceRT_color,2021.2.3,Win32,143.9884809,,,,,,,,7,Ontime,short,j,1,2.0485,4,3,19,2,1,,,,,
1.05,,,,,,,,,f,blue,582ee44408b46b00010dbb07,2021-10-22_14h02.39.969,forced_choiceRT_color,2021.2.3,Win32,143.9884809,,,,,,,,7,Ontime,short,f,1,2.0483,5,0,20,1,1,,,,,
1.15,,,,,,,,,d,orange,582ee44408b46b00010dbb07,2021-10-22_14h02.39.969,forced_choiceRT_color,2021.2.3,Win32,143.9884809,,,,,,,,7,Ontime,short,d,1,2.0419,5,1,21,0,1,,,,,
1.86,,,,,,,,,k,purple,582ee44408b46b00010dbb07,2021-10-22_14h02.39.969,forced_choiceRT_color,2021.2.3,Win32,143.9884809,,,,,,,,7,Slow,short,k,1,2.3767,5,2,22,3,1,,,,,
1.65,,,,,,,,,j,red,582ee44408b46b00010dbb07,2021-10-22_14h02.39.969,forced_choiceRT_color,2021.2.3,Win32,143.9884809,,,,,,,,7,Ontime,short,j,1,2.0205,5,3,23,2,1,,,,,
1.15,,,,,,,,,j,red,582ee44408b46b00010dbb07,2021-10-22_14h02.39.969,forced_choiceRT_color,2021.2.3,Win32,143.9884809,,,,,,,,7,Ontime,short,j,1,2.0244,6,0,24,2,1,,,,,
0.35,,,,,,,,,k,purple,582ee44408b46b00010dbb07,2021-10-22_14h02.39.969,forced_choiceRT_color,2021.2.3,Win32,143.9884809,,,,,,,,7,Ontime,short,k,1,2.0514,6,1,25,3,1,,,,,
1.86,,,,,,,,,f,blue,582ee44408b46b00010dbb07,2021-10-22_14h02.39.969,forced_choiceRT_color,2021.2.3,Win32,143.9884809,,,,,,,,7,Slow,short,f,1,2.4535,6,2,26,1,1,,,,,
1.85,,,,,,,,,d,orange,582ee44408b46b00010dbb07,2021-10-22_14h02.39.969,forced_choiceRT_color,2021.2.3,Win32,143.9884809,,,,,,,,7,Slow,short,d,1,2.1862,6,3,27,0,1,,,,,
0.9,,,,,,,,,d,orange,582ee44408b46b00010dbb07,2021-10-22_14h02.39.969,forced_choiceRT_color,2021.2.3,Win32,143.9884809,,,,,,,,7,Ontime,short,d,1,2.0554,7,0,28,0,1,,,,,
0.26,,,,,,,,,f,blue,582ee44408b46b00010dbb07,2021-10-22_14h02.39.969,forced_choiceRT_color,2021.2.3,Win32,143.9884809,,,,,,,,7,Ontime,short,f,1,2.0655,7,1,29,1,1,,,,,
1.25,,,,,,,,,k,purple,582ee44408b46b00010dbb07,2021-10-22_14h02.39.969,forced_choiceRT_color,2021.2.3,Win32,143.9884809,,,,,,,,7,Ontime,short,k,1,2.0189,7,2,30,3,1,,,,,
1.48,,,,,,,,,f,blue,582ee44408b46b00010dbb07,2021-10-22_14h02.39.969,forced_choiceRT_color,2021.2.3,Win32,143.9884809,,,,,,,,7,Ontime,short,f,1,2.0639,7,3,31,1,1,,,,,
0.9,,,,,,,,,k,purple,582ee44408b46b00010dbb07,2021-10-22_14h02.39.969,forced_choiceRT_color,2021.2.3,Win32,143.9884809,,,,,,,,7,Ontime,short,k,1,2.0667,8,0,32,3,1,,,,,
1.77,,,,,,,,,j,red,582ee44408b46b00010dbb07,2021-10-22_14h02.39.969,forced_choiceRT_color,2021.2.3,Win32,143.9884809,,,,,,,,7,Slow,short,j,1,2.1045,8,1,33,2,1,,,,,
0.79,,,,,,,,,f,blue,582ee44408b46b00010dbb07,2021-10-22_14h02.39.969,forced_choiceRT_color,2021.2.3,Win32,143.9884809,,,,,,,,7,Ontime,short,f,1,1.9806,8,2,34,1,1,,,,,
1.36,,,,,,,,,f,blue,582ee44408b46b00010dbb07,2021-10-22_14h02.39.969,forced_choiceRT_color,2021.2.3,Win32,143.9884809,,,,,,,,7,Ontime,short,f,1,2.0957,8,3,35,1,1,,,,,
0.59,,,,,,,,,f,blue,582ee44408b46b00010dbb07,2021-10-22_14h02.39.969,forced_choiceRT_color,2021.2.3,Win32,143.9884809,,,,,,,,7,Ontime,short,f,1,2.0413,9,0,36,1,1,,,,,
0.38,,,,,,,,,d,orange,582ee44408b46b00010dbb07,2021-10-22_14h02.39.969,forced_choiceRT_color,2021.2.3,Win32,143.9884809,,,,,,,,7,Ontime,short,d,1,2.0778,9,1,37,0,1,,,,,
1.97,,,,,,,,,k,purple,582ee44408b46b00010dbb07,2021-10-22_14h02.39.969,forced_choiceRT_color,2021.2.3,Win32,143.9884809,,,,,,,,7,Slow,short,k,1,2.4187,9,2,38,3,1,,,,,
0.7,,,,,,,,,k,purple,582ee44408b46b00010dbb07,2021-10-22_14h02.39.969,forced_choiceRT_color,2021.2.3,Win32,143.9884809,,,,,,,,7,Ontime,short,k,1,2.0083,9,3,39,3,1,,,,,
,,,,,,,,,,,582ee44408b46b00010dbb07,2021-10-22_14h02.39.969,forced_choiceRT_color,2021.2.3,Win32,143.9884809,,,,,,,,,,,,,,,,,,,6,0,6,0,1
0,,,,,,,,,k,purple,582ee44408b46b00010dbb07,2021-10-22_14h02.39.969,forced_choiceRT_color,2021.2.3,Win32,143.9884809,,,,,,,,8,Ontime,short,k,1,2.0671,0,0,0,3,1,,,,,
0.62,,,,,,,,,d,orange,582ee44408b46b00010dbb07,2021-10-22_14h02.39.969,forced_choiceRT_color,2021.2.3,Win32,143.9884809,,,,,,,,8,Ontime,short,d,1,2.0806,0,1,1,0,1,,,,,
0.48,,,,,,,,,f,blue,582ee44408b46b00010dbb07,2021-10-22_14h02.39.969,forced_choiceRT_color,2021.2.3,Win32,143.9884809,,,,,,,,8,Ontime,short,f,1,2.0791,0,2,2,1,1,,,,,
1.93,,,,,,,,,j,red,582ee44408b46b00010dbb07,2021-10-22_14h02.39.969,forced_choiceRT_color,2021.2.3,Win32,143.9884809,,,,,,,,8,Slow,short,j,1,2.3806,0,3,3,2,1,,,,,
1.57,,,,,,,,,k,purple,582ee44408b46b00010dbb07,2021-10-22_14h02.39.969,forced_choiceRT_color,2021.2.3,Win32,143.9884809,,,,,,,,8,Slow,short,k,1,2.1712,1,0,4,3,1,,,,,
1.41,,,,,,,,,k,purple,582ee44408b46b00010dbb07,2021-10-22_14h02.39.969,forced_choiceRT_color,2021.2.3,Win32,143.9884809,,,,,,,,8,Ontime,short,k,1,2.0957,1,1,5,3,1,,,,,
0.68,,,,,,,,,k,purple,582ee44408b46b00010dbb07,2021-10-22_14h02.39.969,forced_choiceRT_color,2021.2.3,Win32,143.9884809,,,,,,,,8,Ontime,short,k,1,2.0361,1,2,6,3,1,,,,,
0.98,,,,,,,,,d,orange,582ee44408b46b00010dbb07,2021-10-22_14h02.39.969,forced_choiceRT_color,2021.2.3,Win32,143.9884809,,,,,,,,8,Ontime,short,d,1,2.0503,1,3,7,0,1,,,,,
1.34,,,,,,,,,j,red,582ee44408b46b00010dbb07,2021-10-22_14h02.39.969,forced_choiceRT_color,2021.2.3,Win32,143.9884809,,,,,,,,8,Ontime,short,j,1,2.0989,2,0,8,2,1,,,,,
1.4,,,,,,,,,k,purple,582ee44408b46b00010dbb07,2021-10-22_14h02.39.969,forced_choiceRT_color,2021.2.3,Win32,143.9884809,,,,,,,,8,Ontime,short,k,1,2.0999,2,1,9,3,1,,,,,
0.08,,,,,,,,,k,purple,582ee44408b46b00010dbb07,2021-10-22_14h02.39.969,forced_choiceRT_color,2021.2.3,Win32,143.9884809,,,,,,,,8,Ontime,short,k,1,2.0299,2,2,10,3,1,,,,,
0.9,,,,,,,,,d,orange,582ee44408b46b00010dbb07,2021-10-22_14h02.39.969,forced_choiceRT_color,2021.2.3,Win32,143.9884809,,,,,,,,8,Ontime,short,d,1,2.0432,2,3,11,0,1,,,,,
1.15,,,,,,,,,d,orange,582ee44408b46b00010dbb07,2021-10-22_14h02.39.969,forced_choiceRT_color,2021.2.3,Win32,143.9884809,,,,,,,,8,Ontime,short,d,1,2.05,3,0,12,0,1,,,,,
1.93,,,,,,,,,k,purple,582ee44408b46b00010dbb07,2021-10-22_14h02.39.969,forced_choiceRT_color,2021.2.3,Win32,143.9884809,,,,,,,,8,Slow,short,k,1,2.5131,3,1,13,3,1,,,,,
1.22,,,,,,,,,f,blue,582ee44408b46b00010dbb07,2021-10-22_14h02.39.969,forced_choiceRT_color,2021.2.3,Win32,143.9884809,,,,,,,,8,Ontime,short,f,1,2.0863,3,2,14,1,1,,,,,
0.39,,,,,,,,,f,blue,582ee44408b46b00010dbb07,2021-10-22_14h02.39.969,forced_choiceRT_color,2021.2.3,Win32,143.9884809,,,,,,,,8,Ontime,short,f,1,2.0526,3,3,15,1,1,,,,,
1.06,,,,,,,,,j,red,582ee44408b46b00010dbb07,2021-10-22_14h02.39.969,forced_choiceRT_color,2021.2.3,Win32,143.9884809,,,,,,,,8,Ontime,short,j,1,2.092,4,0,16,2,1,,,,,
1.27,,,,,,,,,d,orange,582ee44408b46b00010dbb07,2021-10-22_14h02.39.969,forced_choiceRT_color,2021.2.3,Win32,143.9884809,,,,,,,,8,Ontime,short,d,1,2.0044,4,1,17,0,1,,,,,
0.99,,,,,,,,,j,red,582ee44408b46b00010dbb07,2021-10-22_14h02.39.969,forced_choiceRT_color,2021.2.3,Win32,143.9884809,,,,,,,,8,Ontime,short,j,1,2.0456,4,2,18,2,1,,,,,
1.02,,,,,,,,,j,red,582ee44408b46b00010dbb07,2021-10-22_14h02.39.969,forced_choiceRT_color,2021.2.3,Win32,143.9884809,,,,,,,,8,Ontime,short,j,1,2.05,4,3,19,2,1,,,,,
0.85,,,,,,,,,d,orange,582ee44408b46b00010dbb07,2021-10-22_14h02.39.969,forced_choiceRT_color,2021.2.3,Win32,143.9884809,,,,,,,,8,Ontime,short,d,1,2.0049,5,0,20,0,1,,,,,
0.53,,,,,,,,,d,orange,582ee44408b46b00010dbb07,2021-10-22_14h02.39.969,forced_choiceRT_color,2021.2.3,Win32,143.9884809,,,,,,,,8,Ontime,short,d,1,2.0431,5,1,21,0,1,,,,,
1.93,,,,,,,,,j,red,582ee44408b46b00010dbb07,2021-10-22_14h02.39.969,forced_choiceRT_color,2021.2.3,Win32,143.9884809,,,,,,,,8,Slow,short,f,0,2.3839,5,2,22,2,1,,,,,
1.64,,,,,,,,,d,orange,582ee44408b46b00010dbb07,2021-10-22_14h02.39.969,forced_choiceRT_color,2021.2.3,Win32,143.9884809,,,,,,,,8,Slow,short,d,1,2.126,5,3,23,0,1,,,,,
0.66,,,,,,,,,f,blue,582ee44408b46b00010dbb07,2021-10-22_14h02.39.969,forced_choiceRT_color,2021.2.3,Win32,143.9884809,,,,,,,,8,Ontime,short,f,1,2.0307,6,0,24,1,1,,,,,
1.06,,,,,,,,,f,blue,582ee44408b46b00010dbb07,2021-10-22_14h02.39.969,forced_choiceRT_color,2021.2.3,Win32,143.9884809,,,,,,,,8,Ontime,short,f,1,2.0263,6,1,25,1,1,,,,,
1.47,,,,,,,,,d,orange,582ee44408b46b00010dbb07,2021-10-22_14h02.39.969,forced_choiceRT_color,2021.2.3,Win32,143.9884809,,,,,,,,8,Ontime,short,d,1,2.0924,6,2,26,0,1,,,,,
0.83,,,,,,,,,d,orange,582ee44408b46b00010dbb07,2021-10-22_14h02.39.969,forced_choiceRT_color,2021.2.3,Win32,143.9884809,,,,,,,,8,Slow,short,d,1,2.1006,6,3,27,0,1,,,,,
0.55,,,,,,,,,k,purple,582ee44408b46b00010dbb07,2021-10-22_14h02.39.969,forced_choiceRT_color,2021.2.3,Win32,143.9884809,,,,,,,,8,Ontime,short,k,1,2.0249,7,0,28,3,1,,,,,
1.31,,,,,,,,,f,blue,582ee44408b46b00010dbb07,2021-10-22_14h02.39.969,forced_choiceRT_color,2021.2.3,Win32,143.9884809,,,,,,,,8,Ontime,short,f,1,2.0138,7,1,29,1,1,,,,,
1.67,,,,,,,,,k,purple,582ee44408b46b00010dbb07,2021-10-22_14h02.39.969,forced_choiceRT_color,2021.2.3,Win32,143.9884809,,,,,,,,8,Ontime,short,k,1,2.0767,7,2,30,3,1,,,,,
1.58,,,,,,,,,j,red,582ee44408b46b00010dbb07,2021-10-22_14h02.39.969,forced_choiceRT_color,2021.2.3,Win32,143.9884809,,,,,,,,8,Ontime,short,j,1,2.0761,7,3,31,2,1,,,,,
1.64,,,,,,,,,j,red,582ee44408b46b00010dbb07,2021-10-22_14h02.39.969,forced_choiceRT_color,2021.2.3,Win32,143.9884809,,,,,,,,8,Ontime,short,k,0,2.0222,8,0,32,2,1,,,,,
0.03,,,,,,,,,f,blue,582ee44408b46b00010dbb07,2021-10-22_14h02.39.969,forced_choiceRT_color,2021.2.3,Win32,143.9884809,,,,,,,,8,Ontime,short,f,1,2.0087,8,1,33,1,1,,,,,
1.4,,,,,,,,,j,red,582ee44408b46b00010dbb07,2021-10-22_14h02.39.969,forced_choiceRT_color,2021.2.3,Win32,143.9884809,,,,,,,,8,Ontime,short,j,1,2.078,8,2,34,2,1,,,,,
0.15,,,,,,,,,k,purple,582ee44408b46b00010dbb07,2021-10-22_14h02.39.969,forced_choiceRT_color,2021.2.3,Win32,143.9884809,,,,,,,,8,Ontime,short,k,1,2.0224,8,3,35,3,1,,,,,
1.66,,,,,,,,,f,blue,582ee44408b46b00010dbb07,2021-10-22_14h02.39.969,forced_choiceRT_color,2021.2.3,Win32,143.9884809,,,,,,,,8,Slow,short,d,0,2.2031,9,0,36,1,1,,,,,
0.78,,,,,,,,,f,blue,582ee44408b46b00010dbb07,2021-10-22_14h02.39.969,forced_choiceRT_color,2021.2.3,Win32,143.9884809,,,,,,,,8,Ontime,short,f,1,1.9628,9,1,37,1,1,,,,,
1.64,,,,,,,,,f,blue,582ee44408b46b00010dbb07,2021-10-22_14h02.39.969,forced_choiceRT_color,2021.2.3,Win32,143.9884809,,,,,,,,8,Ontime,short,f,1,2.05,9,2,38,1,1,,,,,
1.43,,,,,,,,,j,red,582ee44408b46b00010dbb07,2021-10-22_14h02.39.969,forced_choiceRT_color,2021.2.3,Win32,143.9884809,,,,,,,,8,Ontime,short,j,1,2.0976,9,3,39,2,1,,,,,
,,,,,,,,,,,582ee44408b46b00010dbb07,2021-10-22_14h02.39.969,forced_choiceRT_color,2021.2.3,Win32,143.9884809,,,,,,,,,,,,,,,,,,,7,0,7,0,1
1.1,,,,,,,,,k,purple,582ee44408b46b00010dbb07,2021-10-22_14h02.39.969,forced_choiceRT_color,2021.2.3,Win32,143.9884809,,,,,,,,9,Ontime,short,k,1,1.9868,0,0,0,3,1,,,,,
0.22,,,,,,,,,k,purple,582ee44408b46b00010dbb07,2021-10-22_14h02.39.969,forced_choiceRT_color,2021.2.3,Win32,143.9884809,,,,,,,,9,Ontime,short,k,1,2.0167,0,1,1,3,1,,,,,
1.35,,,,,,,,,d,orange,582ee44408b46b00010dbb07,2021-10-22_14h02.39.969,forced_choiceRT_color,2021.2.3,Win32,143.9884809,,,,,,,,9,Ontime,short,d,1,1.9479,0,2,2,0,1,,,,,
0.88,,,,,,,,,j,red,582ee44408b46b00010dbb07,2021-10-22_14h02.39.969,forced_choiceRT_color,2021.2.3,Win32,143.9884809,,,,,,,,9,Ontime,short,j,1,1.9738,0,3,3,2,1,,,,,
0.97,,,,,,,,,f,blue,582ee44408b46b00010dbb07,2021-10-22_14h02.39.969,forced_choiceRT_color,2021.2.3,Win32,143.9884809,,,,,,,,9,Ontime,short,f,1,2,1,0,4,1,1,,,,,
1.7,,,,,,,,,j,red,582ee44408b46b00010dbb07,2021-10-22_14h02.39.969,forced_choiceRT_color,2021.2.3,Win32,143.9884809,,,,,,,,9,Ontime,short,j,1,2.0292,1,1,5,2,1,,,,,
1.83,,,,,,,,,f,blue,582ee44408b46b00010dbb07,2021-10-22_14h02.39.969,forced_choiceRT_color,2021.2.3,Win32,143.9884809,,,,,,,,9,Slow,short,f,1,2.3005,1,2,6,1,1,,,,,
0.37,,,,,,,,,d,orange,582ee44408b46b00010dbb07,2021-10-22_14h02.39.969,forced_choiceRT_color,2021.2.3,Win32,143.9884809,,,,,,,,9,Ontime,short,d,1,1.9542,1,3,7,0,1,,,,,
0.54,,,,,,,,,j,red,582ee44408b46b00010dbb07,2021-10-22_14h02.39.969,forced_choiceRT_color,2021.2.3,Win32,143.9884809,,,,,,,,9,Ontime,short,j,1,2.0172,2,0,8,2,1,,,,,
0.41,,,,,,,,,d,orange,582ee44408b46b00010dbb07,2021-10-22_14h02.39.969,forced_choiceRT_color,2021.2.3,Win32,143.9884809,,,,,,,,9,Ontime,short,d,1,2.0223,2,1,9,0,1,,,,,
1.77,,,,,,,,,d,orange,582ee44408b46b00010dbb07,2021-10-22_14h02.39.969,forced_choiceRT_color,2021.2.3,Win32,143.9884809,,,,,,,,9,Slow,short,d,1,2.2043,2,2,10,0,1,,,,,
0.39,,,,,,,,,f,blue,582ee44408b46b00010dbb07,2021-10-22_14h02.39.969,forced_choiceRT_color,2021.2.3,Win32,143.9884809,,,,,,,,9,Ontime,short,f,1,2.0482,2,3,11,1,1,,,,,
1.27,,,,,,,,,k,purple,582ee44408b46b00010dbb07,2021-10-22_14h02.39.969,forced_choiceRT_color,2021.2.3,Win32,143.9884809,,,,,,,,9,Ontime,short,k,1,2.0501,3,0,12,3,1,,,,,
0.6,,,,,,,,,f,blue,582ee44408b46b00010dbb07,2021-10-22_14h02.39.969,forced_choiceRT_color,2021.2.3,Win32,143.9884809,,,,,,,,9,Ontime,short,f,1,2.0384,3,1,13,1,1,,,,,
0.62,,,,,,,,,f,blue,582ee44408b46b00010dbb07,2021-10-22_14h02.39.969,forced_choiceRT_color,2021.2.3,Win32,143.9884809,,,,,,,,9,Ontime,short,f,1,1.976,3,2,14,1,1,,,,,
0.58,,,,,,,,,j,red,582ee44408b46b00010dbb07,2021-10-22_14h02.39.969,forced_choiceRT_color,2021.2.3,Win32,143.9884809,,,,,,,,9,Ontime,short,j,1,2.0237,3,3,15,2,1,,,,,
1.05,,,,,,,,,j,red,582ee44408b46b00010dbb07,2021-10-22_14h02.39.969,forced_choiceRT_color,2021.2.3,Win32,143.9884809,,,,,,,,9,Ontime,short,j,1,1.9807,4,0,16,2,1,,,,,
0.82,,,,,,,,,d,orange,582ee44408b46b00010dbb07,2021-10-22_14h02.39.969,forced_choiceRT_color,2021.2.3,Win32,143.9884809,,,,,,,,9,Ontime,short,d,1,1.9738,4,1,17,0,1,,,,,
1.73,,,,,,,,,d,orange,582ee44408b46b00010dbb07,2021-10-22_14h02.39.969,forced_choiceRT_color,2021.2.3,Win32,143.9884809,,,,,,,,9,Slow,short,d,1,2.1893,4,2,18,0,1,,,,,
0.16,,,,,,,,,f,blue,582ee44408b46b00010dbb07,2021-10-22_14h02.39.969,forced_choiceRT_color,2021.2.3,Win32,143.9884809,,,,,,,,9,Ontime,short,f,1,2.0229,4,3,19,1,1,,,,,
1.25,,,,,,,,,d,orange,582ee44408b46b00010dbb07,2021-10-22_14h02.39.969,forced_choiceRT_color,2021.2.3,Win32,143.9884809,,,,,,,,9,Ontime,short,d,1,2.0617,5,0,20,0,1,,,,,
0.85,,,,,,,,,j,red,582ee44408b46b00010dbb07,2021-10-22_14h02.39.969,forced_choiceRT_color,2021.2.3,Win32,143.9884809,,,,,,,,9,Ontime,short,j,1,2.0846,5,1,21,2,1,,,,,
0.15,,,,,,,,,j,red,582ee44408b46b00010dbb07,2021-10-22_14h02.39.969,forced_choiceRT_color,2021.2.3,Win32,143.9884809,,,,,,,,9,Ontime,short,j,1,2.0622,5,2,22,2,1,,,,,
1.09,,,,,,,,,d,orange,582ee44408b46b00010dbb07,2021-10-22_14h02.39.969,forced_choiceRT_color,2021.2.3,Win32,143.9884809,,,,,,,,9,Ontime,short,d,1,2.038,5,3,23,0,1,,,,,
1.48,,,,,,,,,d,orange,582ee44408b46b00010dbb07,2021-10-22_14h02.39.969,forced_choiceRT_color,2021.2.3,Win32,143.9884809,,,,,,,,9,Ontime,short,d,1,2.0646,6,0,24,0,1,,,,,
1.77,,,,,,,,,j,red,582ee44408b46b00010dbb07,2021-10-22_14h02.39.969,forced_choiceRT_color,2021.2.3,Win32,143.9884809,,,,,,,,9,Slow,short,j,1,2.1653,6,1,25,2,1,,,,,
1.73,,,,,,,,,k,purple,582ee44408b46b00010dbb07,2021-10-22_14h02.39.969,forced_choiceRT_color,2021.2.3,Win32,143.9884809,,,,,,,,9,Slow,short,k,1,2.2794,6,2,26,3,1,,,,,
0.51,,,,,,,,,k,purple,582ee44408b46b00010dbb07,2021-10-22_14h02.39.969,forced_choiceRT_color,2021.2.3,Win32,143.9884809,,,,,,,,9,Ontime,short,k,1,2.0431,6,3,27,3,1,,,,,
1.96,,,,,,,,,j,red,582ee44408b46b00010dbb07,2021-10-22_14h02.39.969,forced_choiceRT_color,2021.2.3,Win32,143.9884809,,,,,,,,9,Slow,short,j,1,2.1557,7,0,28,2,1,,,,,
0.54,,,,,,,,,k,purple,582ee44408b46b00010dbb07,2021-10-22_14h02.39.969,forced_choiceRT_color,2021.2.3,Win32,143.9884809,,,,,,,,9,Ontime,short,k,1,2.0084,7,1,29,3,1,,,,,
1.82,,,,,,,,,k,purple,582ee44408b46b00010dbb07,2021-10-22_14h02.39.969,forced_choiceRT_color,2021.2.3,Win32,143.9884809,,,,,,,,9,Ontime,short,j,0,2.0292,7,2,30,3,1,,,,,
1.65,,,,,,,,,k,purple,582ee44408b46b00010dbb07,2021-10-22_14h02.39.969,forced_choiceRT_color,2021.2.3,Win32,143.9884809,,,,,,,,9,Ontime,short,k,1,2.0275,7,3,31,3,1,,,,,
0.18,,,,,,,,,d,orange,582ee44408b46b00010dbb07,2021-10-22_14h02.39.969,forced_choiceRT_color,2021.2.3,Win32,143.9884809,,,,,,,,9,Ontime,short,d,1,2.0151,8,0,32,0,1,,,,,
1.93,,,,,,,,,j,red,582ee44408b46b00010dbb07,2021-10-22_14h02.39.969,forced_choiceRT_color,2021.2.3,Win32,143.9884809,,,,,,,,9,Slow,short,j,1,2.2939,8,1,33,2,1,,,,,
1.1,,,,,,,,,f,blue,582ee44408b46b00010dbb07,2021-10-22_14h02.39.969,forced_choiceRT_color,2021.2.3,Win32,143.9884809,,,,,,,,9,Slow,short,f,1,2.1127,8,2,34,1,1,,,,,
1.12,,,,,,,,,k,purple,582ee44408b46b00010dbb07,2021-10-22_14h02.39.969,forced_choiceRT_color,2021.2.3,Win32,143.9884809,,,,,,,,9,Ontime,short,k,1,2.0246,8,3,35,3,1,,,,,
1.2,,,,,,,,,f,blue,582ee44408b46b00010dbb07,2021-10-22_14h02.39.969,forced_choiceRT_color,2021.2.3,Win32,143.9884809,,,,,,,,9,Ontime,short,f,1,2.0764,9,0,36,1,1,,,,,
0.35,,,,,,,,,k,purple,582ee44408b46b00010dbb07,2021-10-22_14h02.39.969,forced_choiceRT_color,2021.2.3,Win32,143.9884809,,,,,,,,9,Ontime,short,k,1,2.0275,9,1,37,3,1,,,,,
0.79,,,,,,,,,f,blue,582ee44408b46b00010dbb07,2021-10-22_14h02.39.969,forced_choiceRT_color,2021.2.3,Win32,143.9884809,,,,,,,,9,Ontime,short,f,1,2.0849,9,2,38,1,1,,,,,
0.17,,,,,,,,,f,blue,582ee44408b46b00010dbb07,2021-10-22_14h02.39.969,forced_choiceRT_color,2021.2.3,Win32,143.9884809,,,,,,,,9,Ontime,short,f,1,2.0058,9,3,39,1,1,,,,,
,,,,,,,,,,,582ee44408b46b00010dbb07,2021-10-22_14h02.39.969,forced_choiceRT_color,2021.2.3,Win32,143.9884809,,,,,,,,,,,,,,,,,,,8,0,8,0,1
0.35,,,,,,,,,j,red,582ee44408b46b00010dbb07,2021-10-22_14h02.39.969,forced_choiceRT_color,2021.2.3,Win32,143.9884809,,,,,,,,10,Ontime,short,j,1,2.0403,0,0,0,2,1,,,,,
1.97,,,,,,,,,j,red,582ee44408b46b00010dbb07,2021-10-22_14h02.39.969,forced_choiceRT_color,2021.2.3,Win32,143.9884809,,,,,,,,10,Slow,short,j,1,2.3074,0,1,1,2,1,,,,,
1.27,,,,,,,,,k,purple,582ee44408b46b00010dbb07,2021-10-22_14h02.39.969,forced_choiceRT_color,2021.2.3,Win32,143.9884809,,,,,,,,10,Ontime,short,k,1,2.0537,0,2,2,3,1,,,,,
0.1,,,,,,,,,j,red,582ee44408b46b00010dbb07,2021-10-22_14h02.39.969,forced_choiceRT_color,2021.2.3,Win32,143.9884809,,,,,,,,10,Ontime,short,j,1,2.0378,0,3,3,2,1,,,,,
0.88,,,,,,,,,j,red,582ee44408b46b00010dbb07,2021-10-22_14h02.39.969,forced_choiceRT_color,2021.2.3,Win32,143.9884809,,,,,,,,10,Ontime,short,j,1,2.0447,1,0,4,2,1,,,,,
1.77,,,,,,,,,k,purple,582ee44408b46b00010dbb07,2021-10-22_14h02.39.969,forced_choiceRT_color,2021.2.3,Win32,143.9884809,,,,,,,,10,Slow,short,k,1,2.1763,1,1,5,3,1,,,,,
1.1,,,,,,,,,f,blue,582ee44408b46b00010dbb07,2021-10-22_14h02.39.969,forced_choiceRT_color,2021.2.3,Win32,143.9884809,,,,,,,,10,Ontime,short,f,1,2.0363,1,2,6,1,1,,,,,
0.4,,,,,,,,,d,orange,582ee44408b46b00010dbb07,2021-10-22_14h02.39.969,forced_choiceRT_color,2021.2.3,Win32,143.9884809,,,,,,,,10,Ontime,short,d,1,2.0762,1,3,7,0,1,,,,,
0.73,,,,,,,,,f,blue,582ee44408b46b00010dbb07,2021-10-22_14h02.39.969,forced_choiceRT_color,2021.2.3,Win32,143.9884809,,,,,,,,10,Ontime,short,f,1,2.0446,2,0,8,1,1,,,,,
1.68,,,,,,,,,f,blue,582ee44408b46b00010dbb07,2021-10-22_14h02.39.969,forced_choiceRT_color,2021.2.3,Win32,143.9884809,,,,,,,,10,Slow,short,f,1,2.1128,2,1,9,1,1,,,,,
1.29,,,,,,,,,j,red,582ee44408b46b00010dbb07,2021-10-22_14h02.39.969,forced_choiceRT_color,2021.2.3,Win32,143.9884809,,,,,,,,10,Ontime,short,j,1,2.096,2,2,10,2,1,,,,,
0.45,,,,,,,,,k,purple,582ee44408b46b00010dbb07,2021-10-22_14h02.39.969,forced_choiceRT_color,2021.2.3,Win32,143.9884809,,,,,,,,10,Ontime,short,k,1,1.9926,2,3,11,3,1,,,,,
1.81,,,,,,,,,j,red,582ee44408b46b00010dbb07,2021-10-22_14h02.39.969,forced_choiceRT_color,2021.2.3,Win32,143.9884809,,,,,,,,10,Slow,short,j,1,2.1543,3,0,12,2,1,,,,,
0.03,,,,,,,,,f,blue,582ee44408b46b00010dbb07,2021-10-22_14h02.39.969,forced_choiceRT_color,2021.2.3,Win32,143.9884809,,,,,,,,10,Ontime,short,f,1,2.0709,3,1,13,1,1,,,,,
1.64,,,,,,,,,f,blue,582ee44408b46b00010dbb07,2021-10-22_14h02.39.969,forced_choiceRT_color,2021.2.3,Win32,143.9884809,,,,,,,,10,Ontime,short,f,1,2.0223,3,2,14,1,1,,,,,
0.72,,,,,,,,,k,purple,582ee44408b46b00010dbb07,2021-10-22_14h02.39.969,forced_choiceRT_color,2021.2.3,Win32,143.9884809,,,,,,,,10,Ontime,short,k,1,2.0451,3,3,15,3,1,,,,,
1.38,,,,,,,,,k,purple,582ee44408b46b00010dbb07,2021-10-22_14h02.39.969,forced_choiceRT_color,2021.2.3,Win32,143.9884809,,,,,,,,10,Ontime,short,k,1,2.0646,4,0,16,3,1,,,,,
0.3,,,,,,,,,f,blue,582ee44408b46b00010dbb07,2021-10-22_14h02.39.969,forced_choiceRT_color,2021.2.3,Win32,143.9884809,,,,,,,,10,Ontime,short,f,1,1.9667,4,1,17,1,1,,,,,
1.15,,,,,,,,,d,orange,582ee44408b46b00010dbb07,2021-10-22_14h02.39.969,forced_choiceRT_color,2021.2.3,Win32,143.9884809,,,,,,,,10,Ontime,short,d,1,1.9956,4,2,18,0,1,,,,,
1.25,,,,,,,,,d,orange,582ee44408b46b00010dbb07,2021-10-22_14h02.39.969,forced_choiceRT_color,2021.2.3,Win32,143.9884809,,,,,,,,10,Ontime,short,d,1,2.0443,4,3,19,0,1,,,,,
0.16,,,,,,,,,j,red,582ee44408b46b00010dbb07,2021-10-22_14h02.39.969,forced_choiceRT_color,2021.2.3,Win32,143.9884809,,,,,,,,10,Ontime,short,j,1,2.0044,5,0,20,2,1,,,,,
0.38,,,,,,,,,f,blue,582ee44408b46b00010dbb07,2021-10-22_14h02.39.969,forced_choiceRT_color,2021.2.3,Win32,143.9884809,,,,,,,,10,Ontime,short,f,1,2.0154,5,1,21,1,1,,,,,
0.54,,,,,,,,,f,blue,582ee44408b46b00010dbb07,2021-10-22_14h02.39.969,forced_choiceRT_color,2021.2.3,Win32,143.9884809,,,,,,,,10,Ontime,short,f,1,2.0362,5,2,22,1,1,,,,,
1.65,,,,,,,,,j,red,582ee44408b46b00010dbb07,2021-10-22_14h02.39.969,forced_choiceRT_color,2021.2.3,Win32,143.9884809,,,,,,,,10,Ontime,short,j,1,2.0656,5,3,23,2,1,,,,,
1,,,,,,,,,k,purple,582ee44408b46b00010dbb07,2021-10-22_14h02.39.969,forced_choiceRT_color,2021.2.3,Win32,143.9884809,,,,,,,,10,Ontime,short,k,1,2.0944,6,0,24,3,1,,,,,
0.03,,,,,,,,,k,purple,582ee44408b46b00010dbb07,2021-10-22_14h02.39.969,forced_choiceRT_color,2021.2.3,Win32,143.9884809,,,,,,,,10,Ontime,short,k,1,2.0452,6,1,25,3,1,,,,,
1.9,,,,,,,,,d,orange,582ee44408b46b00010dbb07,2021-10-22_14h02.39.969,forced_choiceRT_color,2021.2.3,Win32,143.9884809,,,,,,,,10,Slow,short,j,0,2.1656,6,2,26,0,1,,,,,
0.35,,,,,,,,,k,purple,582ee44408b46b00010dbb07,2021-10-22_14h02.39.969,forced_choiceRT_color,2021.2.3,Win32,143.9884809,,,,,,,,10,Ontime,short,k,1,2.0917,6,3,27,3,1,,,,,
0.86,,,,,,,,,f,blue,582ee44408b46b00010dbb07,2021-10-22_14h02.39.969,forced_choiceRT_color,2021.2.3,Win32,143.9884809,,,,,,,,10,Ontime,short,f,1,2.0657,7,0,28,1,1,,,,,
1.63,,,,,,,,,k,purple,582ee44408b46b00010dbb07,2021-10-22_14h02.39.969,forced_choiceRT_color,2021.2.3,Win32,143.9884809,,,,,,,,10,Ontime,short,j,0,2.0861,7,1,29,3,1,,,,,
0.96,,,,,,,,,f,blue,582ee44408b46b00010dbb07,2021-10-22_14h02.39.969,forced_choiceRT_color,2021.2.3,Win32,143.9884809,,,,,,,,10,Ontime,short,f,1,2.0293,7,2,30,1,1,,,,,
1.07,,,,,,,,,j,red,582ee44408b46b00010dbb07,2021-10-22_14h02.39.969,forced_choiceRT_color,2021.2.3,Win32,143.9884809,,,,,,,,10,Ontime,short,j,1,2.0957,7,3,31,2,1,,,,,
1.37,,,,,,,,,k,purple,582ee44408b46b00010dbb07,2021-10-22_14h02.39.969,forced_choiceRT_color,2021.2.3,Win32,143.9884809,,,,,,,,10,Ontime,short,k,1,2.0976,8,0,32,3,1,,,,,
0.6,,,,,,,,,d,orange,582ee44408b46b00010dbb07,2021-10-22_14h02.39.969,forced_choiceRT_color,2021.2.3,Win32,143.9884809,,,,,,,,10,Ontime,short,d,1,2.0769,8,1,33,0,1,,,,,
0.58,,,,,,,,,d,orange,582ee44408b46b00010dbb07,2021-10-22_14h02.39.969,forced_choiceRT_color,2021.2.3,Win32,143.9884809,,,,,,,,10,Ontime,short,d,1,2.0838,8,2,34,0,1,,,,,
1.37,,,,,,,,,d,orange,582ee44408b46b00010dbb07,2021-10-22_14h02.39.969,forced_choiceRT_color,2021.2.3,Win32,143.9884809,,,,,,,,10,Ontime,short,d,1,2.0745,8,3,35,0,1,,,,,
1.58,,,,,,,,,d,orange,582ee44408b46b00010dbb07,2021-10-22_14h02.39.969,forced_choiceRT_color,2021.2.3,Win32,143.9884809,,,,,,,,10,Ontime,short,d,1,2.0378,9,0,36,0,1,,,,,
0.42,,,,,,,,,j,red,582ee44408b46b00010dbb07,2021-10-22_14h02.39.969,forced_choiceRT_color,2021.2.3,Win32,143.9884809,,,,,,,,10,Ontime,short,j,1,2.0312,9,1,37,2,1,,,,,
0.55,,,,,,,,,d,orange,582ee44408b46b00010dbb07,2021-10-22_14h02.39.969,forced_choiceRT_color,2021.2.3,Win32,143.9884809,,,,,,,,10,Ontime,short,d,1,2.0844,9,2,38,0,1,,,,,
1.59,,,,,,,,,d,orange,582ee44408b46b00010dbb07,2021-10-22_14h02.39.969,forced_choiceRT_color,2021.2.3,Win32,143.9884809,,,,,,,,10,Slow,short,d,1,2.1646,9,3,39,0,1,,,,,
,,,,,,,,,,,582ee44408b46b00010dbb07,2021-10-22_14h02.39.969,forced_choiceRT_color,2021.2.3,Win32,143.9884809,,,,,,,,,,,,,,,,,,,9,0,9,0,1
