IP_Addresss,target_onset,trial_resp_sp.keys,trial_resp_sp.corr,trial_resp_sp.rt,trials_train_loop.thisRepN,trials_train_loop.thisTrialN,trials_train_loop.thisN,trials_train_loop.thisIndex,trials_train_loop.ran,correct_key,color,participant,date,expName,psychopyVersion,OS,frameRate,trial_resp_timing.keys,trial_resp_timing.rt,trials_train_timing.thisRepN,trials_train_timing.thisTrialN,trials_train_timing.thisN,trials_train_timing.thisIndex,trials_train_timing.ran,block_id,ontime,feedback_cond,forcedRT_resp.keys,forcedRT_resp.corr,forcedRT_resp.rt,trials.thisRepN,trials.thisTrialN,trials.thisN,trials.thisIndex,trials.ran,blocks.thisRepN,blocks.thisTrialN,blocks.thisN,blocks.thisIndex,blocks.ran
69.242.43.160,0,j,1,1.7057,0,0,0,2,1,j,red,58a477c660cd820001e9a5d6,2021-09-27_17h20.36.887,forced_choiceRT_color,2021.2.3,Win32,29.86501015,,,,,,,,,,,,,,,,,,,,,,,
,0,d,1,1.3895,0,1,1,0,1,d,orange,58a477c660cd820001e9a5d6,2021-09-27_17h20.36.887,forced_choiceRT_color,2021.2.3,Win32,29.86501015,,,,,,,,,,,,,,,,,,,,,,,
,0,d,1,0.9568,0,2,2,0,1,d,orange,58a477c660cd820001e9a5d6,2021-09-27_17h20.36.887,forced_choiceRT_color,2021.2.3,Win32,29.86501015,,,,,,,,,,,,,,,,,,,,,,,
,0,d,1,1.1896,0,3,3,0,1,d,orange,58a477c660cd820001e9a5d6,2021-09-27_17h20.36.887,forced_choiceRT_color,2021.2.3,Win32,29.86501015,,,,,,,,,,,,,,,,,,,,,,,
,0,k,1,2.0724,1,0,4,3,1,k,purple,58a477c660cd820001e9a5d6,2021-09-27_17h20.36.887,forced_choiceRT_color,2021.2.3,Win32,29.86501015,,,,,,,,,,,,,,,,,,,,,,,
,0,d,1,0.9039,1,1,5,0,1,d,orange,58a477c660cd820001e9a5d6,2021-09-27_17h20.36.887,forced_choiceRT_color,2021.2.3,Win32,29.86501015,,,,,,,,,,,,,,,,,,,,,,,
,0,k,1,1.033,1,2,6,3,1,k,purple,58a477c660cd820001e9a5d6,2021-09-27_17h20.36.887,forced_choiceRT_color,2021.2.3,Win32,29.86501015,,,,,,,,,,,,,,,,,,,,,,,
,0,k,1,0.6916,1,3,7,3,1,k,purple,58a477c660cd820001e9a5d6,2021-09-27_17h20.36.887,forced_choiceRT_color,2021.2.3,Win32,29.86501015,,,,,,,,,,,,,,,,,,,,,,,
,0,k,1,0.7575,2,0,8,3,1,k,purple,58a477c660cd820001e9a5d6,2021-09-27_17h20.36.887,forced_choiceRT_color,2021.2.3,Win32,29.86501015,,,,,,,,,,,,,,,,,,,,,,,
,0,j,1,1.1786,2,1,9,2,1,j,red,58a477c660cd820001e9a5d6,2021-09-27_17h20.36.887,forced_choiceRT_color,2021.2.3,Win32,29.86501015,,,,,,,,,,,,,,,,,,,,,,,
,0,k,1,1.01,2,2,10,3,1,k,purple,58a477c660cd820001e9a5d6,2021-09-27_17h20.36.887,forced_choiceRT_color,2021.2.3,Win32,29.86501015,,,,,,,,,,,,,,,,,,,,,,,
,0,k,1,0.8533,2,3,11,3,1,k,purple,58a477c660cd820001e9a5d6,2021-09-27_17h20.36.887,forced_choiceRT_color,2021.2.3,Win32,29.86501015,,,,,,,,,,,,,,,,,,,,,,,
,0,j,1,1.5262,3,0,12,2,1,j,red,58a477c660cd820001e9a5d6,2021-09-27_17h20.36.887,forced_choiceRT_color,2021.2.3,Win32,29.86501015,,,,,,,,,,,,,,,,,,,,,,,
,0,d,1,1.0779,3,1,13,0,1,d,orange,58a477c660cd820001e9a5d6,2021-09-27_17h20.36.887,forced_choiceRT_color,2021.2.3,Win32,29.86501015,,,,,,,,,,,,,,,,,,,,,,,
,0,f,1,0.9036,3,2,14,1,1,f,blue,58a477c660cd820001e9a5d6,2021-09-27_17h20.36.887,forced_choiceRT_color,2021.2.3,Win32,29.86501015,,,,,,,,,,,,,,,,,,,,,,,
,0,k,1,1.7583,3,3,15,3,1,k,purple,58a477c660cd820001e9a5d6,2021-09-27_17h20.36.887,forced_choiceRT_color,2021.2.3,Win32,29.86501015,,,,,,,,,,,,,,,,,,,,,,,
,0,j,1,1.0419,4,0,16,2,1,j,red,58a477c660cd820001e9a5d6,2021-09-27_17h20.36.887,forced_choiceRT_color,2021.2.3,Win32,29.86501015,,,,,,,,,,,,,,,,,,,,,,,
,0,f,1,1.3468,4,1,17,1,1,f,blue,58a477c660cd820001e9a5d6,2021-09-27_17h20.36.887,forced_choiceRT_color,2021.2.3,Win32,29.86501015,,,,,,,,,,,,,,,,,,,,,,,
,0,f,1,1.0669,4,2,18,1,1,f,blue,58a477c660cd820001e9a5d6,2021-09-27_17h20.36.887,forced_choiceRT_color,2021.2.3,Win32,29.86501015,,,,,,,,,,,,,,,,,,,,,,,
,0,k,1,1.4424,4,3,19,3,1,k,purple,58a477c660cd820001e9a5d6,2021-09-27_17h20.36.887,forced_choiceRT_color,2021.2.3,Win32,29.86501015,,,,,,,,,,,,,,,,,,,,,,,
,0,f,1,0.9041,5,0,20,1,1,f,blue,58a477c660cd820001e9a5d6,2021-09-27_17h20.36.887,forced_choiceRT_color,2021.2.3,Win32,29.86501015,,,,,,,,,,,,,,,,,,,,,,,
,0,f,1,0.8193,5,1,21,1,1,f,blue,58a477c660cd820001e9a5d6,2021-09-27_17h20.36.887,forced_choiceRT_color,2021.2.3,Win32,29.86501015,,,,,,,,,,,,,,,,,,,,,,,
,0,f,1,0.7885,5,2,22,1,1,f,blue,58a477c660cd820001e9a5d6,2021-09-27_17h20.36.887,forced_choiceRT_color,2021.2.3,Win32,29.86501015,,,,,,,,,,,,,,,,,,,,,,,
,0,j,1,1.5509,5,3,23,2,1,j,red,58a477c660cd820001e9a5d6,2021-09-27_17h20.36.887,forced_choiceRT_color,2021.2.3,Win32,29.86501015,,,,,,,,,,,,,,,,,,,,,,,
,0,j,1,0.8037,6,0,24,2,1,j,red,58a477c660cd820001e9a5d6,2021-09-27_17h20.36.887,forced_choiceRT_color,2021.2.3,Win32,29.86501015,,,,,,,,,,,,,,,,,,,,,,,
,0,d,1,1.6293,6,1,25,0,1,d,orange,58a477c660cd820001e9a5d6,2021-09-27_17h20.36.887,forced_choiceRT_color,2021.2.3,Win32,29.86501015,,,,,,,,,,,,,,,,,,,,,,,
,0,j,1,1.3751,6,2,26,2,1,j,red,58a477c660cd820001e9a5d6,2021-09-27_17h20.36.887,forced_choiceRT_color,2021.2.3,Win32,29.86501015,,,,,,,,,,,,,,,,,,,,,,,
,0,f,1,2.0853,6,3,27,1,1,f,blue,58a477c660cd820001e9a5d6,2021-09-27_17h20.36.887,forced_choiceRT_color,2021.2.3,Win32,29.86501015,,,,,,,,,,,,,,,,,,,,,,,
,0,k,1,1.3121,7,0,28,3,1,k,purple,58a477c660cd820001e9a5d6,2021-09-27_17h20.36.887,forced_choiceRT_color,2021.2.3,Win32,29.86501015,,,,,,,,,,,,,,,,,,,,,,,
,0,d,1,1.4987,7,1,29,0,1,d,orange,58a477c660cd820001e9a5d6,2021-09-27_17h20.36.887,forced_choiceRT_color,2021.2.3,Win32,29.86501015,,,,,,,,,,,,,,,,,,,,,,,
,0,f,1,1.1936,7,2,30,1,1,f,blue,58a477c660cd820001e9a5d6,2021-09-27_17h20.36.887,forced_choiceRT_color,2021.2.3,Win32,29.86501015,,,,,,,,,,,,,,,,,,,,,,,
,0,k,1,1.1753,7,3,31,3,1,k,purple,58a477c660cd820001e9a5d6,2021-09-27_17h20.36.887,forced_choiceRT_color,2021.2.3,Win32,29.86501015,,,,,,,,,,,,,,,,,,,,,,,
,0,d,1,1.5489,8,0,32,0,1,d,orange,58a477c660cd820001e9a5d6,2021-09-27_17h20.36.887,forced_choiceRT_color,2021.2.3,Win32,29.86501015,,,,,,,,,,,,,,,,,,,,,,,
,0,j,1,1.4201,8,1,33,2,1,j,red,58a477c660cd820001e9a5d6,2021-09-27_17h20.36.887,forced_choiceRT_color,2021.2.3,Win32,29.86501015,,,,,,,,,,,,,,,,,,,,,,,
,0,d,1,1.0594,8,2,34,0,1,d,orange,58a477c660cd820001e9a5d6,2021-09-27_17h20.36.887,forced_choiceRT_color,2021.2.3,Win32,29.86501015,,,,,,,,,,,,,,,,,,,,,,,
,0,k,1,1.3967,8,3,35,3,1,k,purple,58a477c660cd820001e9a5d6,2021-09-27_17h20.36.887,forced_choiceRT_color,2021.2.3,Win32,29.86501015,,,,,,,,,,,,,,,,,,,,,,,
,0,f,1,1.278,9,0,36,1,1,f,blue,58a477c660cd820001e9a5d6,2021-09-27_17h20.36.887,forced_choiceRT_color,2021.2.3,Win32,29.86501015,,,,,,,,,,,,,,,,,,,,,,,
,0,f,1,0.8325,9,1,37,1,1,f,blue,58a477c660cd820001e9a5d6,2021-09-27_17h20.36.887,forced_choiceRT_color,2021.2.3,Win32,29.86501015,,,,,,,,,,,,,,,,,,,,,,,
,0,k,1,1.0256,9,2,38,3,1,k,purple,58a477c660cd820001e9a5d6,2021-09-27_17h20.36.887,forced_choiceRT_color,2021.2.3,Win32,29.86501015,,,,,,,,,,,,,,,,,,,,,,,
,0,k,1,0.8631,9,3,39,3,1,k,purple,58a477c660cd820001e9a5d6,2021-09-27_17h20.36.887,forced_choiceRT_color,2021.2.3,Win32,29.86501015,,,,,,,,,,,,,,,,,,,,,,,
,0,d,1,1.552,10,0,40,0,1,d,orange,58a477c660cd820001e9a5d6,2021-09-27_17h20.36.887,forced_choiceRT_color,2021.2.3,Win32,29.86501015,,,,,,,,,,,,,,,,,,,,,,,
,0,j,1,1.9346,10,1,41,2,1,j,red,58a477c660cd820001e9a5d6,2021-09-27_17h20.36.887,forced_choiceRT_color,2021.2.3,Win32,29.86501015,,,,,,,,,,,,,,,,,,,,,,,
,0,f,1,1.2563,10,2,42,1,1,f,blue,58a477c660cd820001e9a5d6,2021-09-27_17h20.36.887,forced_choiceRT_color,2021.2.3,Win32,29.86501015,,,,,,,,,,,,,,,,,,,,,,,
,0,d,1,1.2942,10,3,43,0,1,d,orange,58a477c660cd820001e9a5d6,2021-09-27_17h20.36.887,forced_choiceRT_color,2021.2.3,Win32,29.86501015,,,,,,,,,,,,,,,,,,,,,,,
,0,j,1,1.3235,11,0,44,2,1,j,red,58a477c660cd820001e9a5d6,2021-09-27_17h20.36.887,forced_choiceRT_color,2021.2.3,Win32,29.86501015,,,,,,,,,,,,,,,,,,,,,,,
,0,j,1,1.2983,11,1,45,2,1,j,red,58a477c660cd820001e9a5d6,2021-09-27_17h20.36.887,forced_choiceRT_color,2021.2.3,Win32,29.86501015,,,,,,,,,,,,,,,,,,,,,,,
,0,d,1,1.1115,11,2,46,0,1,d,orange,58a477c660cd820001e9a5d6,2021-09-27_17h20.36.887,forced_choiceRT_color,2021.2.3,Win32,29.86501015,,,,,,,,,,,,,,,,,,,,,,,
,0,k,1,1.2898,11,3,47,3,1,k,purple,58a477c660cd820001e9a5d6,2021-09-27_17h20.36.887,forced_choiceRT_color,2021.2.3,Win32,29.86501015,,,,,,,,,,,,,,,,,,,,,,,
,0,j,1,1.1589,12,0,48,2,1,j,red,58a477c660cd820001e9a5d6,2021-09-27_17h20.36.887,forced_choiceRT_color,2021.2.3,Win32,29.86501015,,,,,,,,,,,,,,,,,,,,,,,
,0,f,1,1.2747,12,1,49,1,1,f,blue,58a477c660cd820001e9a5d6,2021-09-27_17h20.36.887,forced_choiceRT_color,2021.2.3,Win32,29.86501015,,,,,,,,,,,,,,,,,,,,,,,
,0,j,1,1.0947,12,2,50,2,1,j,red,58a477c660cd820001e9a5d6,2021-09-27_17h20.36.887,forced_choiceRT_color,2021.2.3,Win32,29.86501015,,,,,,,,,,,,,,,,,,,,,,,
,0,d,1,1.073,12,3,51,0,1,d,orange,58a477c660cd820001e9a5d6,2021-09-27_17h20.36.887,forced_choiceRT_color,2021.2.3,Win32,29.86501015,,,,,,,,,,,,,,,,,,,,,,,
,0,j,1,1.8104,13,0,52,2,1,j,red,58a477c660cd820001e9a5d6,2021-09-27_17h20.36.887,forced_choiceRT_color,2021.2.3,Win32,29.86501015,,,,,,,,,,,,,,,,,,,,,,,
,0,j,1,1.1512,13,1,53,2,1,j,red,58a477c660cd820001e9a5d6,2021-09-27_17h20.36.887,forced_choiceRT_color,2021.2.3,Win32,29.86501015,,,,,,,,,,,,,,,,,,,,,,,
,0,k,1,0.8279,13,2,54,3,1,k,purple,58a477c660cd820001e9a5d6,2021-09-27_17h20.36.887,forced_choiceRT_color,2021.2.3,Win32,29.86501015,,,,,,,,,,,,,,,,,,,,,,,
,0,d,1,1.1074,13,3,55,0,1,d,orange,58a477c660cd820001e9a5d6,2021-09-27_17h20.36.887,forced_choiceRT_color,2021.2.3,Win32,29.86501015,,,,,,,,,,,,,,,,,,,,,,,
,0,d,1,0.9079,14,0,56,0,1,d,orange,58a477c660cd820001e9a5d6,2021-09-27_17h20.36.887,forced_choiceRT_color,2021.2.3,Win32,29.86501015,,,,,,,,,,,,,,,,,,,,,,,
,0,f,1,0.9731,14,1,57,1,1,f,blue,58a477c660cd820001e9a5d6,2021-09-27_17h20.36.887,forced_choiceRT_color,2021.2.3,Win32,29.86501015,,,,,,,,,,,,,,,,,,,,,,,
,0,f,1,0.8191,14,2,58,1,1,f,blue,58a477c660cd820001e9a5d6,2021-09-27_17h20.36.887,forced_choiceRT_color,2021.2.3,Win32,29.86501015,,,,,,,,,,,,,,,,,,,,,,,
,0,f,1,0.6693,14,3,59,1,1,f,blue,58a477c660cd820001e9a5d6,2021-09-27_17h20.36.887,forced_choiceRT_color,2021.2.3,Win32,29.86501015,,,,,,,,,,,,,,,,,,,,,,,
,,,,,,,,,,,,58a477c660cd820001e9a5d6,2021-09-27_17h20.36.887,forced_choiceRT_color,2021.2.3,Win32,29.86501015,d,2.3704,0,0,0,0,1,,,,,,,,,,,,,,,,
,,,,,,,,,,,,58a477c660cd820001e9a5d6,2021-09-27_17h20.36.887,forced_choiceRT_color,2021.2.3,Win32,29.86501015,f,0.417,1,0,1,0,1,,,,,,,,,,,,,,,,
,,,,,,,,,,,,58a477c660cd820001e9a5d6,2021-09-27_17h20.36.887,forced_choiceRT_color,2021.2.3,Win32,29.86501015,f,1.8135,2,0,2,0,1,,,,,,,,,,,,,,,,
,,,,,,,,,,,,58a477c660cd820001e9a5d6,2021-09-27_17h20.36.887,forced_choiceRT_color,2021.2.3,Win32,29.86501015,f,2.4153,3,0,3,0,1,,,,,,,,,,,,,,,,
,,,,,,,,,,,,58a477c660cd820001e9a5d6,2021-09-27_17h20.36.887,forced_choiceRT_color,2021.2.3,Win32,29.86501015,f,2.2531,4,0,4,0,1,,,,,,,,,,,,,,,,
,,,,,,,,,,,,58a477c660cd820001e9a5d6,2021-09-27_17h20.36.887,forced_choiceRT_color,2021.2.3,Win32,29.86501015,k,2.2061,5,0,5,0,1,,,,,,,,,,,,,,,,
,,,,,,,,,,,,58a477c660cd820001e9a5d6,2021-09-27_17h20.36.887,forced_choiceRT_color,2021.2.3,Win32,29.86501015,d,1.9625,6,0,6,0,1,,,,,,,,,,,,,,,,
,,,,,,,,,,,,58a477c660cd820001e9a5d6,2021-09-27_17h20.36.887,forced_choiceRT_color,2021.2.3,Win32,29.86501015,f,2.1582,7,0,7,0,1,,,,,,,,,,,,,,,,
,,,,,,,,,,,,58a477c660cd820001e9a5d6,2021-09-27_17h20.36.887,forced_choiceRT_color,2021.2.3,Win32,29.86501015,f,2.2812,8,0,8,0,1,,,,,,,,,,,,,,,,
,,,,,,,,,,,,58a477c660cd820001e9a5d6,2021-09-27_17h20.36.887,forced_choiceRT_color,2021.2.3,Win32,29.86501015,f,2.2421,9,0,9,0,1,,,,,,,,,,,,,,,,
,,,,,,,,,,,,58a477c660cd820001e9a5d6,2021-09-27_17h20.36.887,forced_choiceRT_color,2021.2.3,Win32,29.86501015,f,2.1153,10,0,10,0,1,,,,,,,,,,,,,,,,
,,,,,,,,,,,,58a477c660cd820001e9a5d6,2021-09-27_17h20.36.887,forced_choiceRT_color,2021.2.3,Win32,29.86501015,d,1.8418,11,0,11,0,1,,,,,,,,,,,,,,,,
,,,,,,,,,,,,58a477c660cd820001e9a5d6,2021-09-27_17h20.36.887,forced_choiceRT_color,2021.2.3,Win32,29.86501015,f,2.24,12,0,12,0,1,,,,,,,,,,,,,,,,
,,,,,,,,,,,,58a477c660cd820001e9a5d6,2021-09-27_17h20.36.887,forced_choiceRT_color,2021.2.3,Win32,29.86501015,f,1.9411,13,0,13,0,1,,,,,,,,,,,,,,,,
,,,,,,,,,,,,58a477c660cd820001e9a5d6,2021-09-27_17h20.36.887,forced_choiceRT_color,2021.2.3,Win32,29.86501015,f,1.893,14,0,14,0,1,,,,,,,,,,,,,,,,
,,,,,,,,,,,,58a477c660cd820001e9a5d6,2021-09-27_17h20.36.887,forced_choiceRT_color,2021.2.3,Win32,29.86501015,f,2.1819,15,0,15,0,1,,,,,,,,,,,,,,,,
,,,,,,,,,,,,58a477c660cd820001e9a5d6,2021-09-27_17h20.36.887,forced_choiceRT_color,2021.2.3,Win32,29.86501015,f,2.0845,16,0,16,0,1,,,,,,,,,,,,,,,,
,,,,,,,,,,,,58a477c660cd820001e9a5d6,2021-09-27_17h20.36.887,forced_choiceRT_color,2021.2.3,Win32,29.86501015,f,1.8482,17,0,17,0,1,,,,,,,,,,,,,,,,
,,,,,,,,,,,,58a477c660cd820001e9a5d6,2021-09-27_17h20.36.887,forced_choiceRT_color,2021.2.3,Win32,29.86501015,f,2.1217,18,0,18,0,1,,,,,,,,,,,,,,,,
,,,,,,,,,,,,58a477c660cd820001e9a5d6,2021-09-27_17h20.36.887,forced_choiceRT_color,2021.2.3,Win32,29.86501015,f,2.1275,19,0,19,0,1,,,,,,,,,,,,,,,,
,1.69,,,,,,,,,k,purple,58a477c660cd820001e9a5d6,2021-09-27_17h20.36.887,forced_choiceRT_color,2021.2.3,Win32,29.86501015,,,,,,,,1,Slow,long,k,1,2.1111,0,0,0,3,1,,,,,
,1.05,,,,,,,,,f,blue,58a477c660cd820001e9a5d6,2021-09-27_17h20.36.887,forced_choiceRT_color,2021.2.3,Win32,29.86501015,,,,,,,,1,Slow,long,f,1,2.25,0,1,1,1,1,,,,,
,1.62,,,,,,,,,f,blue,58a477c660cd820001e9a5d6,2021-09-27_17h20.36.887,forced_choiceRT_color,2021.2.3,Win32,29.86501015,,,,,,,,1,Slow,long,f,1,2.3751,0,2,2,1,1,,,,,
,0.77,,,,,,,,,k,purple,58a477c660cd820001e9a5d6,2021-09-27_17h20.36.887,forced_choiceRT_color,2021.2.3,Win32,29.86501015,,,,,,,,1,Ontime,long,k,1,2.0858,0,3,3,3,1,,,,,
,1.62,,,,,,,,,k,purple,58a477c660cd820001e9a5d6,2021-09-27_17h20.36.887,forced_choiceRT_color,2021.2.3,Win32,29.86501015,,,,,,,,1,Slow,long,k,1,2.2439,1,0,4,3,1,,,,,
,1.79,,,,,,,,,d,orange,58a477c660cd820001e9a5d6,2021-09-27_17h20.36.887,forced_choiceRT_color,2021.2.3,Win32,29.86501015,,,,,,,,1,Slow,long,d,1,2.5201,1,1,5,0,1,,,,,
,1.48,,,,,,,,,k,purple,58a477c660cd820001e9a5d6,2021-09-27_17h20.36.887,forced_choiceRT_color,2021.2.3,Win32,29.86501015,,,,,,,,1,Slow,long,k,1,2.1781,1,2,6,3,1,,,,,
,1.24,,,,,,,,,j,red,58a477c660cd820001e9a5d6,2021-09-27_17h20.36.887,forced_choiceRT_color,2021.2.3,Win32,29.86501015,,,,,,,,1,Ontime,long,f,0,1.9807,1,3,7,2,1,,,,,
,0.8,,,,,,,,,f,blue,58a477c660cd820001e9a5d6,2021-09-27_17h20.36.887,forced_choiceRT_color,2021.2.3,Win32,29.86501015,,,,,,,,1,Slow,long,k,0,4.2113,2,0,8,1,1,,,,,
,0.4,,,,,,,,,f,blue,58a477c660cd820001e9a5d6,2021-09-27_17h20.36.887,forced_choiceRT_color,2021.2.3,Win32,29.86501015,,,,,,,,1,Slow,long,d,0,2.6444,2,1,9,1,1,,,,,
,1.3,,,,,,,,,d,orange,58a477c660cd820001e9a5d6,2021-09-27_17h20.36.887,forced_choiceRT_color,2021.2.3,Win32,29.86501015,,,,,,,,1,Slow,long,j,0,2.2872,2,2,10,0,1,,,,,
,0.74,,,,,,,,,k,purple,58a477c660cd820001e9a5d6,2021-09-27_17h20.36.887,forced_choiceRT_color,2021.2.3,Win32,29.86501015,,,,,,,,1,Fast,long,k,1,1.6106,2,3,11,3,1,,,,,
,0.48,,,,,,,,,d,orange,58a477c660cd820001e9a5d6,2021-09-27_17h20.36.887,forced_choiceRT_color,2021.2.3,Win32,29.86501015,,,,,,,,1,Fast,long,d,1,1.7804,3,0,12,0,1,,,,,
,0.88,,,,,,,,,k,purple,58a477c660cd820001e9a5d6,2021-09-27_17h20.36.887,forced_choiceRT_color,2021.2.3,Win32,29.86501015,,,,,,,,1,Fast,long,k,1,1.6553,3,1,13,3,1,,,,,
,0.5,,,,,,,,,j,red,58a477c660cd820001e9a5d6,2021-09-27_17h20.36.887,forced_choiceRT_color,2021.2.3,Win32,29.86501015,,,,,,,,1,Slow,long,j,1,2.9247,3,2,14,2,1,,,,,
,1.47,,,,,,,,,d,orange,58a477c660cd820001e9a5d6,2021-09-27_17h20.36.887,forced_choiceRT_color,2021.2.3,Win32,29.86501015,,,,,,,,1,Slow,long,d,1,2.2178,3,3,15,0,1,,,,,
,1.87,,,,,,,,,k,purple,58a477c660cd820001e9a5d6,2021-09-27_17h20.36.887,forced_choiceRT_color,2021.2.3,Win32,29.86501015,,,,,,,,1,Slow,long,k,1,2.3069,4,0,16,3,1,,,,,
,0.31,,,,,,,,,f,blue,58a477c660cd820001e9a5d6,2021-09-27_17h20.36.887,forced_choiceRT_color,2021.2.3,Win32,29.86501015,,,,,,,,1,Slow,long,f,1,2.1473,4,1,17,1,1,,,,,
,1.34,,,,,,,,,j,red,58a477c660cd820001e9a5d6,2021-09-27_17h20.36.887,forced_choiceRT_color,2021.2.3,Win32,29.86501015,,,,,,,,1,Ontime,long,d,0,1.9598,4,2,18,2,1,,,,,
,0.18,,,,,,,,,d,orange,58a477c660cd820001e9a5d6,2021-09-27_17h20.36.887,forced_choiceRT_color,2021.2.3,Win32,29.86501015,,,,,,,,1,Fast,long,f,0,1.3073,4,3,19,0,1,,,,,
,0.07,,,,,,,,,d,orange,58a477c660cd820001e9a5d6,2021-09-27_17h20.36.887,forced_choiceRT_color,2021.2.3,Win32,29.86501015,,,,,,,,1,Fast,long,f,0,0.8146,5,0,20,0,1,,,,,
,0.99,,,,,,,,,f,blue,58a477c660cd820001e9a5d6,2021-09-27_17h20.36.887,forced_choiceRT_color,2021.2.3,Win32,29.86501015,,,,,,,,1,Ontime,long,f,1,1.9853,5,1,21,1,1,,,,,
,0.85,,,,,,,,,f,blue,58a477c660cd820001e9a5d6,2021-09-27_17h20.36.887,forced_choiceRT_color,2021.2.3,Win32,29.86501015,,,,,,,,1,Fast,long,d,0,1.8004,5,2,22,1,1,,,,,
,0.51,,,,,,,,,j,red,58a477c660cd820001e9a5d6,2021-09-27_17h20.36.887,forced_choiceRT_color,2021.2.3,Win32,29.86501015,,,,,,,,1,Slow,long,j,1,2.9441,5,3,23,2,1,,,,,
,0.56,,,,,,,,,f,blue,58a477c660cd820001e9a5d6,2021-09-27_17h20.36.887,forced_choiceRT_color,2021.2.3,Win32,29.86501015,,,,,,,,1,Fast,long,d,0,1.6084,6,0,24,1,1,,,,,
,1.51,,,,,,,,,d,orange,58a477c660cd820001e9a5d6,2021-09-27_17h20.36.887,forced_choiceRT_color,2021.2.3,Win32,29.86501015,,,,,,,,1,Slow,long,d,1,2.2512,6,1,25,0,1,,,,,
,1.6,,,,,,,,,k,purple,58a477c660cd820001e9a5d6,2021-09-27_17h20.36.887,forced_choiceRT_color,2021.2.3,Win32,29.86501015,,,,,,,,1,Ontime,long,k,1,2.0206,6,2,26,3,1,,,,,
,1.04,,,,,,,,,j,red,58a477c660cd820001e9a5d6,2021-09-27_17h20.36.887,forced_choiceRT_color,2021.2.3,Win32,29.86501015,,,,,,,,1,Slow,long,j,1,2.5925,6,3,27,2,1,,,,,
,1.19,,,,,,,,,d,orange,58a477c660cd820001e9a5d6,2021-09-27_17h20.36.887,forced_choiceRT_color,2021.2.3,Win32,29.86501015,,,,,,,,1,Ontime,long,d,1,2.0977,7,0,28,0,1,,,,,
,0.68,,,,,,,,,f,blue,58a477c660cd820001e9a5d6,2021-09-27_17h20.36.887,forced_choiceRT_color,2021.2.3,Win32,29.86501015,,,,,,,,1,Fast,long,f,1,1.4269,7,1,29,1,1,,,,,
,1.37,,,,,,,,,d,orange,58a477c660cd820001e9a5d6,2021-09-27_17h20.36.887,forced_choiceRT_color,2021.2.3,Win32,29.86501015,,,,,,,,1,Ontime,long,f,0,2.0825,7,2,30,0,1,,,,,
,1.52,,,,,,,,,k,purple,58a477c660cd820001e9a5d6,2021-09-27_17h20.36.887,forced_choiceRT_color,2021.2.3,Win32,29.86501015,,,,,,,,1,Slow,long,k,1,2.1783,7,3,31,3,1,,,,,
,1.21,,,,,,,,,j,red,58a477c660cd820001e9a5d6,2021-09-27_17h20.36.887,forced_choiceRT_color,2021.2.3,Win32,29.86501015,,,,,,,,1,Slow,long,d,0,2.221,8,0,32,2,1,,,,,
,0.68,,,,,,,,,k,purple,58a477c660cd820001e9a5d6,2021-09-27_17h20.36.887,forced_choiceRT_color,2021.2.3,Win32,29.86501015,,,,,,,,1,Fast,long,k,1,1.3919,8,1,33,3,1,,,,,
,0,,,,,,,,,j,red,58a477c660cd820001e9a5d6,2021-09-27_17h20.36.887,forced_choiceRT_color,2021.2.3,Win32,29.86501015,,,,,,,,1,Fast,long,j,1,1.8269,8,2,34,2,1,,,,,
,1.9,,,,,,,,,d,orange,58a477c660cd820001e9a5d6,2021-09-27_17h20.36.887,forced_choiceRT_color,2021.2.3,Win32,29.86501015,,,,,,,,1,Slow,long,d,1,2.6365,8,3,35,0,1,,,,,
,1.32,,,,,,,,,f,blue,58a477c660cd820001e9a5d6,2021-09-27_17h20.36.887,forced_choiceRT_color,2021.2.3,Win32,29.86501015,,,,,,,,1,Ontime,long,f,1,2.0935,9,0,36,1,1,,,,,
,1.33,,,,,,,,,j,red,58a477c660cd820001e9a5d6,2021-09-27_17h20.36.887,forced_choiceRT_color,2021.2.3,Win32,29.86501015,,,,,,,,1,Slow,long,d,0,2.1976,9,1,37,2,1,,,,,
,1.63,,,,,,,,,j,red,58a477c660cd820001e9a5d6,2021-09-27_17h20.36.887,forced_choiceRT_color,2021.2.3,Win32,29.86501015,,,,,,,,1,Slow,long,j,1,2.3977,9,2,38,2,1,,,,,
,0.31,,,,,,,,,j,red,58a477c660cd820001e9a5d6,2021-09-27_17h20.36.887,forced_choiceRT_color,2021.2.3,Win32,29.86501015,,,,,,,,1,Fast,long,j,1,0.9561,9,3,39,2,1,,,,,
,,,,,,,,,,,,58a477c660cd820001e9a5d6,2021-09-27_17h20.36.887,forced_choiceRT_color,2021.2.3,Win32,29.86501015,,,,,,,,,,,,,,,,,,,0,0,0,0,1
,1.57,,,,,,,,,k,purple,58a477c660cd820001e9a5d6,2021-09-27_17h20.36.887,forced_choiceRT_color,2021.2.3,Win32,29.86501015,,,,,,,,2,Slow,long,k,1,3.1732,0,0,0,3,1,,,,,
,0.22,,,,,,,,,f,blue,58a477c660cd820001e9a5d6,2021-09-27_17h20.36.887,forced_choiceRT_color,2021.2.3,Win32,29.86501015,,,,,,,,2,Ontime,long,f,1,1.9634,0,1,1,1,1,,,,,
,1.04,,,,,,,,,f,blue,58a477c660cd820001e9a5d6,2021-09-27_17h20.36.887,forced_choiceRT_color,2021.2.3,Win32,29.86501015,,,,,,,,2,Fast,long,f,1,1.733,0,2,2,1,1,,,,,
,1.19,,,,,,,,,j,red,58a477c660cd820001e9a5d6,2021-09-27_17h20.36.887,forced_choiceRT_color,2021.2.3,Win32,29.86501015,,,,,,,,2,Slow,long,j,1,2.4729,0,3,3,2,1,,,,,
,1.28,,,,,,,,,d,orange,58a477c660cd820001e9a5d6,2021-09-27_17h20.36.887,forced_choiceRT_color,2021.2.3,Win32,29.86501015,,,,,,,,2,Slow,long,d,1,2.2641,1,0,4,0,1,,,,,
,0.96,,,,,,,,,k,purple,58a477c660cd820001e9a5d6,2021-09-27_17h20.36.887,forced_choiceRT_color,2021.2.3,Win32,29.86501015,,,,,,,,2,Fast,long,k,1,1.7239,1,1,5,3,1,,,,,
,0.54,,,,,,,,,j,red,58a477c660cd820001e9a5d6,2021-09-27_17h20.36.887,forced_choiceRT_color,2021.2.3,Win32,29.86501015,,,,,,,,2,Slow,long,j,1,2.1907,1,2,6,2,1,,,,,
,1.35,,,,,,,,,j,red,58a477c660cd820001e9a5d6,2021-09-27_17h20.36.887,forced_choiceRT_color,2021.2.3,Win32,29.86501015,,,,,,,,2,Ontime,long,j,1,2.0343,1,3,7,2,1,,,,,
,1.09,,,,,,,,,f,blue,58a477c660cd820001e9a5d6,2021-09-27_17h20.36.887,forced_choiceRT_color,2021.2.3,Win32,29.86501015,,,,,,,,2,Slow,long,d,0,2.1669,2,0,8,1,1,,,,,
,0.24,,,,,,,,,j,red,58a477c660cd820001e9a5d6,2021-09-27_17h20.36.887,forced_choiceRT_color,2021.2.3,Win32,29.86501015,,,,,,,,2,Ontime,long,j,1,2.0337,2,1,9,2,1,,,,,
,0.01,,,,,,,,,k,purple,58a477c660cd820001e9a5d6,2021-09-27_17h20.36.887,forced_choiceRT_color,2021.2.3,Win32,29.86501015,,,,,,,,2,Ontime,long,k,1,1.9447,2,2,10,3,1,,,,,
,0.96,,,,,,,,,d,orange,58a477c660cd820001e9a5d6,2021-09-27_17h20.36.887,forced_choiceRT_color,2021.2.3,Win32,29.86501015,,,,,,,,2,Slow,long,d,1,2.4856,2,3,11,0,1,,,,,
,0.02,,,,,,,,,j,red,58a477c660cd820001e9a5d6,2021-09-27_17h20.36.887,forced_choiceRT_color,2021.2.3,Win32,29.86501015,,,,,,,,2,Ontime,long,j,1,2.0848,3,0,12,2,1,,,,,
,1.68,,,,,,,,,j,red,58a477c660cd820001e9a5d6,2021-09-27_17h20.36.887,forced_choiceRT_color,2021.2.3,Win32,29.86501015,,,,,,,,2,Slow,long,j,1,2.4052,3,1,13,2,1,,,,,
,1.54,,,,,,,,,j,red,58a477c660cd820001e9a5d6,2021-09-27_17h20.36.887,forced_choiceRT_color,2021.2.3,Win32,29.86501015,,,,,,,,2,Slow,long,j,1,2.1953,3,2,14,2,1,,,,,
,1.11,,,,,,,,,k,purple,58a477c660cd820001e9a5d6,2021-09-27_17h20.36.887,forced_choiceRT_color,2021.2.3,Win32,29.86501015,,,,,,,,2,Fast,long,k,1,1.7984,3,3,15,3,1,,,,,
,1.05,,,,,,,,,f,blue,58a477c660cd820001e9a5d6,2021-09-27_17h20.36.887,forced_choiceRT_color,2021.2.3,Win32,29.86501015,,,,,,,,2,Ontime,long,d,0,2.0324,4,0,16,1,1,,,,,
,0.16,,,,,,,,,k,purple,58a477c660cd820001e9a5d6,2021-09-27_17h20.36.887,forced_choiceRT_color,2021.2.3,Win32,29.86501015,,,,,,,,2,Fast,long,k,1,1.858,4,1,17,3,1,,,,,
,1.93,,,,,,,,,f,blue,58a477c660cd820001e9a5d6,2021-09-27_17h20.36.887,forced_choiceRT_color,2021.2.3,Win32,29.86501015,,,,,,,,2,Slow,long,d,0,2.6652,4,2,18,1,1,,,,,
,0.49,,,,,,,,,d,orange,58a477c660cd820001e9a5d6,2021-09-27_17h20.36.887,forced_choiceRT_color,2021.2.3,Win32,29.86501015,,,,,,,,2,Slow,long,k,0,2.2657,4,3,19,0,1,,,,,
,0.63,,,,,,,,,f,blue,58a477c660cd820001e9a5d6,2021-09-27_17h20.36.887,forced_choiceRT_color,2021.2.3,Win32,29.86501015,,,,,,,,2,Fast,long,d,0,1.8115,5,0,20,1,1,,,,,
,0.25,,,,,,,,,d,orange,58a477c660cd820001e9a5d6,2021-09-27_17h20.36.887,forced_choiceRT_color,2021.2.3,Win32,29.86501015,,,,,,,,2,Ontime,long,d,1,1.9381,5,1,21,0,1,,,,,
,0.71,,,,,,,,,j,red,58a477c660cd820001e9a5d6,2021-09-27_17h20.36.887,forced_choiceRT_color,2021.2.3,Win32,29.86501015,,,,,,,,2,Ontime,long,j,1,2.0001,5,2,22,2,1,,,,,
,1.26,,,,,,,,,k,purple,58a477c660cd820001e9a5d6,2021-09-27_17h20.36.887,forced_choiceRT_color,2021.2.3,Win32,29.86501015,,,,,,,,2,Slow,long,k,1,2.1426,5,3,23,3,1,,,,,
,0.85,,,,,,,,,k,purple,58a477c660cd820001e9a5d6,2021-09-27_17h20.36.887,forced_choiceRT_color,2021.2.3,Win32,29.86501015,,,,,,,,2,Ontime,long,k,1,2.0833,6,0,24,3,1,,,,,
,1.14,,,,,,,,,f,blue,58a477c660cd820001e9a5d6,2021-09-27_17h20.36.887,forced_choiceRT_color,2021.2.3,Win32,29.86501015,,,,,,,,2,Ontime,long,d,0,1.9962,6,1,25,1,1,,,,,
,0.32,,,,,,,,,d,orange,58a477c660cd820001e9a5d6,2021-09-27_17h20.36.887,forced_choiceRT_color,2021.2.3,Win32,29.86501015,,,,,,,,2,Ontime,long,d,1,2.0577,6,2,26,0,1,,,,,
,0.78,,,,,,,,,f,blue,58a477c660cd820001e9a5d6,2021-09-27_17h20.36.887,forced_choiceRT_color,2021.2.3,Win32,29.86501015,,,,,,,,2,Ontime,long,f,1,1.9791,6,3,27,1,1,,,,,
,1.42,,,,,,,,,d,orange,58a477c660cd820001e9a5d6,2021-09-27_17h20.36.887,forced_choiceRT_color,2021.2.3,Win32,29.86501015,,,,,,,,2,Slow,long,d,1,2.2173,7,0,28,0,1,,,,,
,0.15,,,,,,,,,d,orange,58a477c660cd820001e9a5d6,2021-09-27_17h20.36.887,forced_choiceRT_color,2021.2.3,Win32,29.86501015,,,,,,,,2,Ontime,long,d,1,1.9707,7,1,29,0,1,,,,,
,0.18,,,,,,,,,j,red,58a477c660cd820001e9a5d6,2021-09-27_17h20.36.887,forced_choiceRT_color,2021.2.3,Win32,29.86501015,,,,,,,,2,Ontime,long,j,1,1.9547,7,2,30,2,1,,,,,
,1.59,,,,,,,,,d,orange,58a477c660cd820001e9a5d6,2021-09-27_17h20.36.887,forced_choiceRT_color,2021.2.3,Win32,29.86501015,,,,,,,,2,Slow,long,d,1,2.1838,7,3,31,0,1,,,,,
,1.09,,,,,,,,,k,purple,58a477c660cd820001e9a5d6,2021-09-27_17h20.36.887,forced_choiceRT_color,2021.2.3,Win32,29.86501015,,,,,,,,2,Ontime,long,k,1,1.9538,8,0,32,3,1,,,,,
,1.55,,,,,,,,,k,purple,58a477c660cd820001e9a5d6,2021-09-27_17h20.36.887,forced_choiceRT_color,2021.2.3,Win32,29.86501015,,,,,,,,2,Slow,long,k,1,2.2269,8,1,33,3,1,,,,,
,1.59,,,,,,,,,d,orange,58a477c660cd820001e9a5d6,2021-09-27_17h20.36.887,forced_choiceRT_color,2021.2.3,Win32,29.86501015,,,,,,,,2,Slow,long,d,1,2.1308,8,2,34,0,1,,,,,
,1.61,,,,,,,,,d,orange,58a477c660cd820001e9a5d6,2021-09-27_17h20.36.887,forced_choiceRT_color,2021.2.3,Win32,29.86501015,,,,,,,,2,Slow,long,d,1,2.2408,8,3,35,0,1,,,,,
,0.2,,,,,,,,,f,blue,58a477c660cd820001e9a5d6,2021-09-27_17h20.36.887,forced_choiceRT_color,2021.2.3,Win32,29.86501015,,,,,,,,2,Fast,long,d,0,1.7613,9,0,36,1,1,,,,,
,1.64,,,,,,,,,j,red,58a477c660cd820001e9a5d6,2021-09-27_17h20.36.887,forced_choiceRT_color,2021.2.3,Win32,29.86501015,,,,,,,,2,Slow,long,j,1,2.4366,9,1,37,2,1,,,,,
,1.61,,,,,,,,,f,blue,58a477c660cd820001e9a5d6,2021-09-27_17h20.36.887,forced_choiceRT_color,2021.2.3,Win32,29.86501015,,,,,,,,2,Slow,long,d,0,2.3482,9,2,38,1,1,,,,,
,0.26,,,,,,,,,k,purple,58a477c660cd820001e9a5d6,2021-09-27_17h20.36.887,forced_choiceRT_color,2021.2.3,Win32,29.86501015,,,,,,,,2,Fast,long,k,1,1.7477,9,3,39,3,1,,,,,
,,,,,,,,,,,,58a477c660cd820001e9a5d6,2021-09-27_17h20.36.887,forced_choiceRT_color,2021.2.3,Win32,29.86501015,,,,,,,,,,,,,,,,,,,1,0,1,0,1
,0.66,,,,,,,,,d,orange,58a477c660cd820001e9a5d6,2021-09-27_17h20.36.887,forced_choiceRT_color,2021.2.3,Win32,29.86501015,,,,,,,,3,Slow,long,d,1,2.295,0,0,0,0,1,,,,,
,0.54,,,,,,,,,j,red,58a477c660cd820001e9a5d6,2021-09-27_17h20.36.887,forced_choiceRT_color,2021.2.3,Win32,29.86501015,,,,,,,,3,Fast,long,j,1,1.82,0,1,1,2,1,,,,,
,0.41,,,,,,,,,f,blue,58a477c660cd820001e9a5d6,2021-09-27_17h20.36.887,forced_choiceRT_color,2021.2.3,Win32,29.86501015,,,,,,,,3,Ontime,long,d,0,2.0056,0,2,2,1,1,,,,,
,1.15,,,,,,,,,d,orange,58a477c660cd820001e9a5d6,2021-09-27_17h20.36.887,forced_choiceRT_color,2021.2.3,Win32,29.86501015,,,,,,,,3,Ontime,long,f,0,1.9908,0,3,3,0,1,,,,,
,1.55,,,,,,,,,k,purple,58a477c660cd820001e9a5d6,2021-09-27_17h20.36.887,forced_choiceRT_color,2021.2.3,Win32,29.86501015,,,,,,,,3,Slow,long,k,1,2.1059,1,0,4,3,1,,,,,
,1.9,,,,,,,,,k,purple,58a477c660cd820001e9a5d6,2021-09-27_17h20.36.887,forced_choiceRT_color,2021.2.3,Win32,29.86501015,,,,,,,,3,Slow,long,k,1,2.4855,1,1,5,3,1,,,,,
,1.83,,,,,,,,,f,blue,58a477c660cd820001e9a5d6,2021-09-27_17h20.36.887,forced_choiceRT_color,2021.2.3,Win32,29.86501015,,,,,,,,3,Slow,long,d,0,2.4071,1,2,6,1,1,,,,,
,1.4,,,,,,,,,j,red,58a477c660cd820001e9a5d6,2021-09-27_17h20.36.887,forced_choiceRT_color,2021.2.3,Win32,29.86501015,,,,,,,,3,Ontime,long,k,0,1.9429,1,3,7,2,1,,,,,
,0.35,,,,,,,,,j,red,58a477c660cd820001e9a5d6,2021-09-27_17h20.36.887,forced_choiceRT_color,2021.2.3,Win32,29.86501015,,,,,,,,3,Fast,long,j,1,0.9688,2,0,8,2,1,,,,,
,1.04,,,,,,,,,j,red,58a477c660cd820001e9a5d6,2021-09-27_17h20.36.887,forced_choiceRT_color,2021.2.3,Win32,29.86501015,,,,,,,,3,Fast,long,j,1,1.7426,2,1,9,2,1,,,,,
,0.99,,,,,,,,,k,purple,58a477c660cd820001e9a5d6,2021-09-27_17h20.36.887,forced_choiceRT_color,2021.2.3,Win32,29.86501015,,,,,,,,3,Ontime,long,k,1,2.0117,2,2,10,3,1,,,,,
,1.03,,,,,,,,,k,purple,58a477c660cd820001e9a5d6,2021-09-27_17h20.36.887,forced_choiceRT_color,2021.2.3,Win32,29.86501015,,,,,,,,3,Ontime,long,k,1,1.9531,2,3,11,3,1,,,,,
,0.97,,,,,,,,,k,purple,58a477c660cd820001e9a5d6,2021-09-27_17h20.36.887,forced_choiceRT_color,2021.2.3,Win32,29.86501015,,,,,,,,3,Fast,long,k,1,1.8797,3,0,12,3,1,,,,,
,0.49,,,,,,,,,j,red,58a477c660cd820001e9a5d6,2021-09-27_17h20.36.887,forced_choiceRT_color,2021.2.3,Win32,29.86501015,,,,,,,,3,Fast,long,j,1,1.885,3,1,13,2,1,,,,,
,0.7,,,,,,,,,f,blue,58a477c660cd820001e9a5d6,2021-09-27_17h20.36.887,forced_choiceRT_color,2021.2.3,Win32,29.86501015,,,,,,,,3,Ontime,long,f,1,1.9648,3,2,14,1,1,,,,,
,0.14,,,,,,,,,f,blue,58a477c660cd820001e9a5d6,2021-09-27_17h20.36.887,forced_choiceRT_color,2021.2.3,Win32,29.86501015,,,,,,,,3,Ontime,long,f,1,1.9517,3,3,15,1,1,,,,,
,0.4,,,,,,,,,f,blue,58a477c660cd820001e9a5d6,2021-09-27_17h20.36.887,forced_choiceRT_color,2021.2.3,Win32,29.86501015,,,,,,,,3,Ontime,long,f,1,2.0492,4,0,16,1,1,,,,,
,0.14,,,,,,,,,k,purple,58a477c660cd820001e9a5d6,2021-09-27_17h20.36.887,forced_choiceRT_color,2021.2.3,Win32,29.86501015,,,,,,,,3,Slow,long,k,1,2.1086,4,1,17,3,1,,,,,
,1.51,,,,,,,,,d,orange,58a477c660cd820001e9a5d6,2021-09-27_17h20.36.887,forced_choiceRT_color,2021.2.3,Win32,29.86501015,,,,,,,,3,Slow,long,j,0,2.2033,4,2,18,0,1,,,,,
,0.75,,,,,,,,,d,orange,58a477c660cd820001e9a5d6,2021-09-27_17h20.36.887,forced_choiceRT_color,2021.2.3,Win32,29.86501015,,,,,,,,3,Ontime,long,d,1,1.9515,4,3,19,0,1,,,,,
,0.91,,,,,,,,,j,red,58a477c660cd820001e9a5d6,2021-09-27_17h20.36.887,forced_choiceRT_color,2021.2.3,Win32,29.86501015,,,,,,,,3,Ontime,long,j,1,1.947,5,0,20,2,1,,,,,
,1.73,,,,,,,,,d,orange,58a477c660cd820001e9a5d6,2021-09-27_17h20.36.887,forced_choiceRT_color,2021.2.3,Win32,29.86501015,,,,,,,,3,Slow,long,d,1,2.4285,5,1,21,0,1,,,,,
,0.57,,,,,,,,,j,red,58a477c660cd820001e9a5d6,2021-09-27_17h20.36.887,forced_choiceRT_color,2021.2.3,Win32,29.86501015,,,,,,,,3,Ontime,long,j,1,2.0601,5,2,22,2,1,,,,,
,1.57,,,,,,,,,d,orange,58a477c660cd820001e9a5d6,2021-09-27_17h20.36.887,forced_choiceRT_color,2021.2.3,Win32,29.86501015,,,,,,,,3,Slow,long,f,0,2.2687,5,3,23,0,1,,,,,
,1.31,,,,,,,,,d,orange,58a477c660cd820001e9a5d6,2021-09-27_17h20.36.887,forced_choiceRT_color,2021.2.3,Win32,29.86501015,,,,,,,,3,Ontime,long,d,1,1.998,6,0,24,0,1,,,,,
,0.57,,,,,,,,,k,purple,58a477c660cd820001e9a5d6,2021-09-27_17h20.36.887,forced_choiceRT_color,2021.2.3,Win32,29.86501015,,,,,,,,3,Ontime,long,k,1,2.0508,6,1,25,3,1,,,,,
,0.83,,,,,,,,,d,orange,58a477c660cd820001e9a5d6,2021-09-27_17h20.36.887,forced_choiceRT_color,2021.2.3,Win32,29.86501015,,,,,,,,3,Fast,long,d,1,1.8991,6,2,26,0,1,,,,,
,0.7,,,,,,,,,k,purple,58a477c660cd820001e9a5d6,2021-09-27_17h20.36.887,forced_choiceRT_color,2021.2.3,Win32,29.86501015,,,,,,,,3,Slow,long,k,1,2.1315,6,3,27,3,1,,,,,
,1.46,,,,,,,,,f,blue,58a477c660cd820001e9a5d6,2021-09-27_17h20.36.887,forced_choiceRT_color,2021.2.3,Win32,29.86501015,,,,,,,,3,Slow,long,f,1,2.1339,7,0,28,1,1,,,,,
,1.57,,,,,,,,,j,red,58a477c660cd820001e9a5d6,2021-09-27_17h20.36.887,forced_choiceRT_color,2021.2.3,Win32,29.86501015,,,,,,,,3,Slow,long,j,1,2.2069,7,1,29,2,1,,,,,
,0.94,,,,,,,,,d,orange,58a477c660cd820001e9a5d6,2021-09-27_17h20.36.887,forced_choiceRT_color,2021.2.3,Win32,29.86501015,,,,,,,,3,Ontime,long,k,0,1.9878,7,2,30,0,1,,,,,
,0.84,,,,,,,,,k,purple,58a477c660cd820001e9a5d6,2021-09-27_17h20.36.887,forced_choiceRT_color,2021.2.3,Win32,29.86501015,,,,,,,,3,Ontime,long,k,1,1.9847,7,3,31,3,1,,,,,
,1.18,,,,,,,,,f,blue,58a477c660cd820001e9a5d6,2021-09-27_17h20.36.887,forced_choiceRT_color,2021.2.3,Win32,29.86501015,,,,,,,,3,Ontime,long,d,0,2.0748,8,0,32,1,1,,,,,
,0.94,,,,,,,,,f,blue,58a477c660cd820001e9a5d6,2021-09-27_17h20.36.887,forced_choiceRT_color,2021.2.3,Win32,29.86501015,,,,,,,,3,Ontime,long,f,1,1.9427,8,1,33,1,1,,,,,
,0.28,,,,,,,,,f,blue,58a477c660cd820001e9a5d6,2021-09-27_17h20.36.887,forced_choiceRT_color,2021.2.3,Win32,29.86501015,,,,,,,,3,Ontime,long,f,1,1.9277,8,2,34,1,1,,,,,
,0.65,,,,,,,,,k,purple,58a477c660cd820001e9a5d6,2021-09-27_17h20.36.887,forced_choiceRT_color,2021.2.3,Win32,29.86501015,,,,,,,,3,Ontime,long,k,1,2.0386,8,3,35,3,1,,,,,
,0.35,,,,,,,,,d,orange,58a477c660cd820001e9a5d6,2021-09-27_17h20.36.887,forced_choiceRT_color,2021.2.3,Win32,29.86501015,,,,,,,,3,Ontime,long,f,0,1.9184,9,0,36,0,1,,,,,
,0.88,,,,,,,,,j,red,58a477c660cd820001e9a5d6,2021-09-27_17h20.36.887,forced_choiceRT_color,2021.2.3,Win32,29.86501015,,,,,,,,3,Ontime,long,j,1,2.0023,9,1,37,2,1,,,,,
,1.78,,,,,,,,,f,blue,58a477c660cd820001e9a5d6,2021-09-27_17h20.36.887,forced_choiceRT_color,2021.2.3,Win32,29.86501015,,,,,,,,3,Slow,long,d,0,2.2411,9,2,38,1,1,,,,,
,0.99,,,,,,,,,j,red,58a477c660cd820001e9a5d6,2021-09-27_17h20.36.887,forced_choiceRT_color,2021.2.3,Win32,29.86501015,,,,,,,,3,Ontime,long,j,1,2.0314,9,3,39,2,1,,,,,
,,,,,,,,,,,,58a477c660cd820001e9a5d6,2021-09-27_17h20.36.887,forced_choiceRT_color,2021.2.3,Win32,29.86501015,,,,,,,,,,,,,,,,,,,2,0,2,0,1
,0.35,,,,,,,,,f,blue,58a477c660cd820001e9a5d6,2021-09-27_17h20.36.887,forced_choiceRT_color,2021.2.3,Win32,29.86501015,,,,,,,,4,Ontime,long,d,0,1.9552,0,0,0,1,1,,,,,
,0.89,,,,,,,,,j,red,58a477c660cd820001e9a5d6,2021-09-27_17h20.36.887,forced_choiceRT_color,2021.2.3,Win32,29.86501015,,,,,,,,4,Ontime,long,j,1,1.9486,0,1,1,2,1,,,,,
,0.36,,,,,,,,,d,orange,58a477c660cd820001e9a5d6,2021-09-27_17h20.36.887,forced_choiceRT_color,2021.2.3,Win32,29.86501015,,,,,,,,4,Ontime,long,f,0,1.9443,0,2,2,0,1,,,,,
,0.49,,,,,,,,,d,orange,58a477c660cd820001e9a5d6,2021-09-27_17h20.36.887,forced_choiceRT_color,2021.2.3,Win32,29.86501015,,,,,,,,4,Fast,long,d,1,1.89,0,3,3,0,1,,,,,
,1.14,,,,,,,,,j,red,58a477c660cd820001e9a5d6,2021-09-27_17h20.36.887,forced_choiceRT_color,2021.2.3,Win32,29.86501015,,,,,,,,4,Ontime,long,j,1,2.0668,1,0,4,2,1,,,,,
,1.38,,,,,,,,,d,orange,58a477c660cd820001e9a5d6,2021-09-27_17h20.36.887,forced_choiceRT_color,2021.2.3,Win32,29.86501015,,,,,,,,4,Slow,long,j,0,2.1516,1,1,5,0,1,,,,,
,0.72,,,,,,,,,f,blue,58a477c660cd820001e9a5d6,2021-09-27_17h20.36.887,forced_choiceRT_color,2021.2.3,Win32,29.86501015,,,,,,,,4,Fast,long,d,0,1.8926,1,2,6,1,1,,,,,
,0.11,,,,,,,,,j,red,58a477c660cd820001e9a5d6,2021-09-27_17h20.36.887,forced_choiceRT_color,2021.2.3,Win32,29.86501015,,,,,,,,4,Ontime,long,j,1,2.0038,1,3,7,2,1,,,,,
,0.36,,,,,,,,,k,purple,58a477c660cd820001e9a5d6,2021-09-27_17h20.36.887,forced_choiceRT_color,2021.2.3,Win32,29.86501015,,,,,,,,4,Ontime,long,k,1,1.9564,2,0,8,3,1,,,,,
,0.51,,,,,,,,,j,red,58a477c660cd820001e9a5d6,2021-09-27_17h20.36.887,forced_choiceRT_color,2021.2.3,Win32,29.86501015,,,,,,,,4,Fast,long,j,1,1.8983,2,1,9,2,1,,,,,
,0.39,,,,,,,,,k,purple,58a477c660cd820001e9a5d6,2021-09-27_17h20.36.887,forced_choiceRT_color,2021.2.3,Win32,29.86501015,,,,,,,,4,Ontime,long,k,1,1.9805,2,2,10,3,1,,,,,
,0.81,,,,,,,,,j,red,58a477c660cd820001e9a5d6,2021-09-27_17h20.36.887,forced_choiceRT_color,2021.2.3,Win32,29.86501015,,,,,,,,4,Ontime,long,j,1,1.9845,2,3,11,2,1,,,,,
,0.79,,,,,,,,,f,blue,58a477c660cd820001e9a5d6,2021-09-27_17h20.36.887,forced_choiceRT_color,2021.2.3,Win32,29.86501015,,,,,,,,4,Ontime,long,f,1,1.952,3,0,12,1,1,,,,,
,0.94,,,,,,,,,f,blue,58a477c660cd820001e9a5d6,2021-09-27_17h20.36.887,forced_choiceRT_color,2021.2.3,Win32,29.86501015,,,,,,,,4,Ontime,long,f,1,1.9367,3,1,13,1,1,,,,,
,0.32,,,,,,,,,f,blue,58a477c660cd820001e9a5d6,2021-09-27_17h20.36.887,forced_choiceRT_color,2021.2.3,Win32,29.86501015,,,,,,,,4,Ontime,long,f,1,2.0464,3,2,14,1,1,,,,,
,0.17,,,,,,,,,j,red,58a477c660cd820001e9a5d6,2021-09-27_17h20.36.887,forced_choiceRT_color,2021.2.3,Win32,29.86501015,,,,,,,,4,Slow,long,j,1,2.1685,3,3,15,2,1,,,,,
,1.68,,,,,,,,,d,orange,58a477c660cd820001e9a5d6,2021-09-27_17h20.36.887,forced_choiceRT_color,2021.2.3,Win32,29.86501015,,,,,,,,4,Slow,long,f,0,2.4168,4,0,16,0,1,,,,,
,0.89,,,,,,,,,d,orange,58a477c660cd820001e9a5d6,2021-09-27_17h20.36.887,forced_choiceRT_color,2021.2.3,Win32,29.86501015,,,,,,,,4,Ontime,long,d,1,1.978,4,1,17,0,1,,,,,
,0.19,,,,,,,,,k,purple,58a477c660cd820001e9a5d6,2021-09-27_17h20.36.887,forced_choiceRT_color,2021.2.3,Win32,29.86501015,,,,,,,,4,Ontime,long,k,1,2.0057,4,2,18,3,1,,,,,
,1.88,,,,,,,,,d,orange,58a477c660cd820001e9a5d6,2021-09-27_17h20.36.887,forced_choiceRT_color,2021.2.3,Win32,29.86501015,,,,,,,,4,Slow,long,d,1,2.3098,4,3,19,0,1,,,,,
,1.68,,,,,,,,,k,purple,58a477c660cd820001e9a5d6,2021-09-27_17h20.36.887,forced_choiceRT_color,2021.2.3,Win32,29.86501015,,,,,,,,4,Slow,long,k,1,2.3155,5,0,20,3,1,,,,,
,0.59,,,,,,,,,j,red,58a477c660cd820001e9a5d6,2021-09-27_17h20.36.887,forced_choiceRT_color,2021.2.3,Win32,29.86501015,,,,,,,,4,Ontime,long,j,1,1.9497,5,1,21,2,1,,,,,
,1.08,,,,,,,,,f,blue,58a477c660cd820001e9a5d6,2021-09-27_17h20.36.887,forced_choiceRT_color,2021.2.3,Win32,29.86501015,,,,,,,,4,Ontime,long,f,1,2.0164,5,2,22,1,1,,,,,
,1.19,,,,,,,,,k,purple,58a477c660cd820001e9a5d6,2021-09-27_17h20.36.887,forced_choiceRT_color,2021.2.3,Win32,29.86501015,,,,,,,,4,Ontime,long,k,1,2.0586,5,3,23,3,1,,,,,
,0.01,,,,,,,,,f,blue,58a477c660cd820001e9a5d6,2021-09-27_17h20.36.887,forced_choiceRT_color,2021.2.3,Win32,29.86501015,,,,,,,,4,Ontime,long,f,1,2.0522,6,0,24,1,1,,,,,
,0.99,,,,,,,,,k,purple,58a477c660cd820001e9a5d6,2021-09-27_17h20.36.887,forced_choiceRT_color,2021.2.3,Win32,29.86501015,,,,,,,,4,Ontime,long,k,1,1.9926,6,1,25,3,1,,,,,
,1.93,,,,,,,,,k,purple,58a477c660cd820001e9a5d6,2021-09-27_17h20.36.887,forced_choiceRT_color,2021.2.3,Win32,29.86501015,,,,,,,,4,Slow,long,k,1,2.5169,6,2,26,3,1,,,,,
,0.41,,,,,,,,,d,orange,58a477c660cd820001e9a5d6,2021-09-27_17h20.36.887,forced_choiceRT_color,2021.2.3,Win32,29.86501015,,,,,,,,4,Ontime,long,f,0,1.9098,6,3,27,0,1,,,,,
,1.57,,,,,,,,,f,blue,58a477c660cd820001e9a5d6,2021-09-27_17h20.36.887,forced_choiceRT_color,2021.2.3,Win32,29.86501015,,,,,,,,4,Slow,long,f,1,2.163,7,0,28,1,1,,,,,
,0.02,,,,,,,,,d,orange,58a477c660cd820001e9a5d6,2021-09-27_17h20.36.887,forced_choiceRT_color,2021.2.3,Win32,29.86501015,,,,,,,,4,Fast,long,d,1,1.8194,7,1,29,0,1,,,,,
,1.2,,,,,,,,,d,orange,58a477c660cd820001e9a5d6,2021-09-27_17h20.36.887,forced_choiceRT_color,2021.2.3,Win32,29.86501015,,,,,,,,4,Slow,long,d,1,2.116,7,2,30,0,1,,,,,
,1.77,,,,,,,,,f,blue,58a477c660cd820001e9a5d6,2021-09-27_17h20.36.887,forced_choiceRT_color,2021.2.3,Win32,29.86501015,,,,,,,,4,Slow,long,f,1,2.4953,7,3,31,1,1,,,,,
,0,,,,,,,,,k,purple,58a477c660cd820001e9a5d6,2021-09-27_17h20.36.887,forced_choiceRT_color,2021.2.3,Win32,29.86501015,,,,,,,,4,Fast,long,k,1,1.8246,8,0,32,3,1,,,,,
,1.26,,,,,,,,,k,purple,58a477c660cd820001e9a5d6,2021-09-27_17h20.36.887,forced_choiceRT_color,2021.2.3,Win32,29.86501015,,,,,,,,4,Ontime,long,k,1,2.0258,8,1,33,3,1,,,,,
,0.53,,,,,,,,,j,red,58a477c660cd820001e9a5d6,2021-09-27_17h20.36.887,forced_choiceRT_color,2021.2.3,Win32,29.86501015,,,,,,,,4,Ontime,long,j,1,2.0367,8,2,34,2,1,,,,,
,0.64,,,,,,,,,j,red,58a477c660cd820001e9a5d6,2021-09-27_17h20.36.887,forced_choiceRT_color,2021.2.3,Win32,29.86501015,,,,,,,,4,Slow,long,j,1,2.1085,8,3,35,2,1,,,,,
,0.72,,,,,,,,,j,red,58a477c660cd820001e9a5d6,2021-09-27_17h20.36.887,forced_choiceRT_color,2021.2.3,Win32,29.86501015,,,,,,,,4,Ontime,long,j,1,1.9043,9,0,36,2,1,,,,,
,0.31,,,,,,,,,k,purple,58a477c660cd820001e9a5d6,2021-09-27_17h20.36.887,forced_choiceRT_color,2021.2.3,Win32,29.86501015,,,,,,,,4,Ontime,long,k,1,2.0197,9,1,37,3,1,,,,,
,0.23,,,,,,,,,f,blue,58a477c660cd820001e9a5d6,2021-09-27_17h20.36.887,forced_choiceRT_color,2021.2.3,Win32,29.86501015,,,,,,,,4,Ontime,long,f,1,1.9781,9,2,38,1,1,,,,,
,0.48,,,,,,,,,d,orange,58a477c660cd820001e9a5d6,2021-09-27_17h20.36.887,forced_choiceRT_color,2021.2.3,Win32,29.86501015,,,,,,,,4,Ontime,long,d,1,2.0284,9,3,39,0,1,,,,,
,,,,,,,,,,,,58a477c660cd820001e9a5d6,2021-09-27_17h20.36.887,forced_choiceRT_color,2021.2.3,Win32,29.86501015,,,,,,,,,,,,,,,,,,,3,0,3,0,1
,0.61,,,,,,,,,k,purple,58a477c660cd820001e9a5d6,2021-09-27_17h20.36.887,forced_choiceRT_color,2021.2.3,Win32,29.86501015,,,,,,,,5,Ontime,long,k,1,1.9651,0,0,0,3,1,,,,,
,1.22,,,,,,,,,j,red,58a477c660cd820001e9a5d6,2021-09-27_17h20.36.887,forced_choiceRT_color,2021.2.3,Win32,29.86501015,,,,,,,,5,Ontime,long,j,1,2.0651,0,1,1,2,1,,,,,
,0.41,,,,,,,,,f,blue,58a477c660cd820001e9a5d6,2021-09-27_17h20.36.887,forced_choiceRT_color,2021.2.3,Win32,29.86501015,,,,,,,,5,Ontime,long,f,1,1.9903,0,2,2,1,1,,,,,
,0.87,,,,,,,,,d,orange,58a477c660cd820001e9a5d6,2021-09-27_17h20.36.887,forced_choiceRT_color,2021.2.3,Win32,29.86501015,,,,,,,,5,Ontime,long,d,1,2.0295,0,3,3,0,1,,,,,
,0.77,,,,,,,,,k,purple,58a477c660cd820001e9a5d6,2021-09-27_17h20.36.887,forced_choiceRT_color,2021.2.3,Win32,29.86501015,,,,,,,,5,Ontime,long,k,1,1.9516,1,0,4,3,1,,,,,
,1.17,,,,,,,,,d,orange,58a477c660cd820001e9a5d6,2021-09-27_17h20.36.887,forced_choiceRT_color,2021.2.3,Win32,29.86501015,,,,,,,,5,Ontime,long,d,1,1.9884,1,1,5,0,1,,,,,
,0.11,,,,,,,,,j,red,58a477c660cd820001e9a5d6,2021-09-27_17h20.36.887,forced_choiceRT_color,2021.2.3,Win32,29.86501015,,,,,,,,5,Fast,long,j,1,1.5329,1,2,6,2,1,,,,,
,0.32,,,,,,,,,d,orange,58a477c660cd820001e9a5d6,2021-09-27_17h20.36.887,forced_choiceRT_color,2021.2.3,Win32,29.86501015,,,,,,,,5,Ontime,long,d,1,2.0806,1,3,7,0,1,,,,,
,1.45,,,,,,,,,k,purple,58a477c660cd820001e9a5d6,2021-09-27_17h20.36.887,forced_choiceRT_color,2021.2.3,Win32,29.86501015,,,,,,,,5,Ontime,long,k,1,2.0864,2,0,8,3,1,,,,,
,0.32,,,,,,,,,k,purple,58a477c660cd820001e9a5d6,2021-09-27_17h20.36.887,forced_choiceRT_color,2021.2.3,Win32,29.86501015,,,,,,,,5,Ontime,long,k,1,1.97,2,1,9,3,1,,,,,
,1.15,,,,,,,,,k,purple,58a477c660cd820001e9a5d6,2021-09-27_17h20.36.887,forced_choiceRT_color,2021.2.3,Win32,29.86501015,,,,,,,,5,Ontime,long,k,1,2.0381,2,2,10,3,1,,,,,
,1.04,,,,,,,,,j,red,58a477c660cd820001e9a5d6,2021-09-27_17h20.36.887,forced_choiceRT_color,2021.2.3,Win32,29.86501015,,,,,,,,5,Ontime,long,j,1,1.9292,2,3,11,2,1,,,,,
,0.35,,,,,,,,,d,orange,58a477c660cd820001e9a5d6,2021-09-27_17h20.36.887,forced_choiceRT_color,2021.2.3,Win32,29.86501015,,,,,,,,5,Ontime,long,d,1,2.0608,3,0,12,0,1,,,,,
,0.27,,,,,,,,,j,red,58a477c660cd820001e9a5d6,2021-09-27_17h20.36.887,forced_choiceRT_color,2021.2.3,Win32,29.86501015,,,,,,,,5,Ontime,long,j,1,2.0623,3,1,13,2,1,,,,,
,0.46,,,,,,,,,f,blue,58a477c660cd820001e9a5d6,2021-09-27_17h20.36.887,forced_choiceRT_color,2021.2.3,Win32,29.86501015,,,,,,,,5,Ontime,long,f,1,1.9643,3,2,14,1,1,,,,,
,0.18,,,,,,,,,f,blue,58a477c660cd820001e9a5d6,2021-09-27_17h20.36.887,forced_choiceRT_color,2021.2.3,Win32,29.86501015,,,,,,,,5,Ontime,long,f,1,1.9818,3,3,15,1,1,,,,,
,0.34,,,,,,,,,j,red,58a477c660cd820001e9a5d6,2021-09-27_17h20.36.887,forced_choiceRT_color,2021.2.3,Win32,29.86501015,,,,,,,,5,Ontime,long,j,1,1.971,4,0,16,2,1,,,,,
,0.02,,,,,,,,,d,orange,58a477c660cd820001e9a5d6,2021-09-27_17h20.36.887,forced_choiceRT_color,2021.2.3,Win32,29.86501015,,,,,,,,5,Ontime,long,f,0,1.9657,4,1,17,0,1,,,,,
,1.84,,,,,,,,,d,orange,58a477c660cd820001e9a5d6,2021-09-27_17h20.36.887,forced_choiceRT_color,2021.2.3,Win32,29.86501015,,,,,,,,5,Slow,long,d,1,2.2951,4,2,18,0,1,,,,,
,1.15,,,,,,,,,j,red,58a477c660cd820001e9a5d6,2021-09-27_17h20.36.887,forced_choiceRT_color,2021.2.3,Win32,29.86501015,,,,,,,,5,Ontime,long,j,1,2.0313,4,3,19,2,1,,,,,
,0.09,,,,,,,,,f,blue,58a477c660cd820001e9a5d6,2021-09-27_17h20.36.887,forced_choiceRT_color,2021.2.3,Win32,29.86501015,,,,,,,,5,Ontime,long,f,1,2.0401,5,0,20,1,1,,,,,
,0.91,,,,,,,,,f,blue,58a477c660cd820001e9a5d6,2021-09-27_17h20.36.887,forced_choiceRT_color,2021.2.3,Win32,29.86501015,,,,,,,,5,Ontime,long,f,1,1.9676,5,1,21,1,1,,,,,
,0.04,,,,,,,,,d,orange,58a477c660cd820001e9a5d6,2021-09-27_17h20.36.887,forced_choiceRT_color,2021.2.3,Win32,29.86501015,,,,,,,,5,Ontime,long,d,1,1.9901,5,2,22,0,1,,,,,
,1.24,,,,,,,,,f,blue,58a477c660cd820001e9a5d6,2021-09-27_17h20.36.887,forced_choiceRT_color,2021.2.3,Win32,29.86501015,,,,,,,,5,Ontime,long,f,1,2.0426,5,3,23,1,1,,,,,
,0.3,,,,,,,,,j,red,58a477c660cd820001e9a5d6,2021-09-27_17h20.36.887,forced_choiceRT_color,2021.2.3,Win32,29.86501015,,,,,,,,5,Ontime,long,j,1,2.0004,6,0,24,2,1,,,,,
,0.1,,,,,,,,,f,blue,58a477c660cd820001e9a5d6,2021-09-27_17h20.36.887,forced_choiceRT_color,2021.2.3,Win32,29.86501015,,,,,,,,5,Ontime,long,f,1,2.0279,6,1,25,1,1,,,,,
,0.65,,,,,,,,,j,red,58a477c660cd820001e9a5d6,2021-09-27_17h20.36.887,forced_choiceRT_color,2021.2.3,Win32,29.86501015,,,,,,,,5,Fast,long,j,1,1.8771,6,2,26,2,1,,,,,
,1.37,,,,,,,,,d,orange,58a477c660cd820001e9a5d6,2021-09-27_17h20.36.887,forced_choiceRT_color,2021.2.3,Win32,29.86501015,,,,,,,,5,Slow,long,f,0,2.1994,6,3,27,0,1,,,,,
,0.32,,,,,,,,,d,orange,58a477c660cd820001e9a5d6,2021-09-27_17h20.36.887,forced_choiceRT_color,2021.2.3,Win32,29.86501015,,,,,,,,5,Ontime,long,d,1,1.9433,7,0,28,0,1,,,,,
,1.62,,,,,,,,,k,purple,58a477c660cd820001e9a5d6,2021-09-27_17h20.36.887,forced_choiceRT_color,2021.2.3,Win32,29.86501015,,,,,,,,5,Slow,long,k,1,2.4645,7,1,29,3,1,,,,,
,1.37,,,,,,,,,f,blue,58a477c660cd820001e9a5d6,2021-09-27_17h20.36.887,forced_choiceRT_color,2021.2.3,Win32,29.86501015,,,,,,,,5,Slow,long,d,0,2.163,7,2,30,1,1,,,,,
,1.6,,,,,,,,,j,red,58a477c660cd820001e9a5d6,2021-09-27_17h20.36.887,forced_choiceRT_color,2021.2.3,Win32,29.86501015,,,,,,,,5,Slow,long,j,1,2.3555,7,3,31,2,1,,,,,
,1.44,,,,,,,,,k,purple,58a477c660cd820001e9a5d6,2021-09-27_17h20.36.887,forced_choiceRT_color,2021.2.3,Win32,29.86501015,,,,,,,,5,Ontime,long,k,1,2.039,8,0,32,3,1,,,,,
,0.3,,,,,,,,,f,blue,58a477c660cd820001e9a5d6,2021-09-27_17h20.36.887,forced_choiceRT_color,2021.2.3,Win32,29.86501015,,,,,,,,5,Fast,long,d,0,1.8913,8,1,33,1,1,,,,,
,1.49,,,,,,,,,k,purple,58a477c660cd820001e9a5d6,2021-09-27_17h20.36.887,forced_choiceRT_color,2021.2.3,Win32,29.86501015,,,,,,,,5,Slow,long,k,1,2.2174,8,2,34,3,1,,,,,
,0.64,,,,,,,,,d,orange,58a477c660cd820001e9a5d6,2021-09-27_17h20.36.887,forced_choiceRT_color,2021.2.3,Win32,29.86501015,,,,,,,,5,Ontime,long,f,0,1.9934,8,3,35,0,1,,,,,
,0.32,,,,,,,,,j,red,58a477c660cd820001e9a5d6,2021-09-27_17h20.36.887,forced_choiceRT_color,2021.2.3,Win32,29.86501015,,,,,,,,5,Ontime,long,j,1,1.9328,9,0,36,2,1,,,,,
,0.64,,,,,,,,,k,purple,58a477c660cd820001e9a5d6,2021-09-27_17h20.36.887,forced_choiceRT_color,2021.2.3,Win32,29.86501015,,,,,,,,5,Ontime,long,k,1,1.9132,9,1,37,3,1,,,,,
,1.96,,,,,,,,,f,blue,58a477c660cd820001e9a5d6,2021-09-27_17h20.36.887,forced_choiceRT_color,2021.2.3,Win32,29.86501015,,,,,,,,5,Slow,long,k,0,2.4799,9,2,38,1,1,,,,,
,0.12,,,,,,,,,k,purple,58a477c660cd820001e9a5d6,2021-09-27_17h20.36.887,forced_choiceRT_color,2021.2.3,Win32,29.86501015,,,,,,,,5,Fast,long,k,1,1.8342,9,3,39,3,1,,,,,
,,,,,,,,,,,,58a477c660cd820001e9a5d6,2021-09-27_17h20.36.887,forced_choiceRT_color,2021.2.3,Win32,29.86501015,,,,,,,,,,,,,,,,,,,4,0,4,0,1
,1.62,,,,,,,,,j,red,58a477c660cd820001e9a5d6,2021-09-27_17h20.36.887,forced_choiceRT_color,2021.2.3,Win32,29.86501015,,,,,,,,6,Slow,long,j,1,2.2046,0,0,0,2,1,,,,,
,0.1,,,,,,,,,j,red,58a477c660cd820001e9a5d6,2021-09-27_17h20.36.887,forced_choiceRT_color,2021.2.3,Win32,29.86501015,,,,,,,,6,Ontime,long,j,1,1.9458,0,1,1,2,1,,,,,
,1.83,,,,,,,,,f,blue,58a477c660cd820001e9a5d6,2021-09-27_17h20.36.887,forced_choiceRT_color,2021.2.3,Win32,29.86501015,,,,,,,,6,Slow,long,d,0,2.5408,0,2,2,1,1,,,,,
,1.66,,,,,,,,,k,purple,58a477c660cd820001e9a5d6,2021-09-27_17h20.36.887,forced_choiceRT_color,2021.2.3,Win32,29.86501015,,,,,,,,6,Slow,long,k,1,2.3708,0,3,3,3,1,,,,,
,0.63,,,,,,,,,f,blue,58a477c660cd820001e9a5d6,2021-09-27_17h20.36.887,forced_choiceRT_color,2021.2.3,Win32,29.86501015,,,,,,,,6,Ontime,long,f,1,1.9675,1,0,4,1,1,,,,,
,1.64,,,,,,,,,j,red,58a477c660cd820001e9a5d6,2021-09-27_17h20.36.887,forced_choiceRT_color,2021.2.3,Win32,29.86501015,,,,,,,,6,Slow,long,k,0,2.2447,1,1,5,2,1,,,,,
,1.8,,,,,,,,,d,orange,58a477c660cd820001e9a5d6,2021-09-27_17h20.36.887,forced_choiceRT_color,2021.2.3,Win32,29.86501015,,,,,,,,6,Slow,long,j,0,2.3754,1,2,6,0,1,,,,,
,1.09,,,,,,,,,j,red,58a477c660cd820001e9a5d6,2021-09-27_17h20.36.887,forced_choiceRT_color,2021.2.3,Win32,29.86501015,,,,,,,,6,Ontime,long,j,1,2.0321,1,3,7,2,1,,,,,
,1.59,,,,,,,,,d,orange,58a477c660cd820001e9a5d6,2021-09-27_17h20.36.887,forced_choiceRT_color,2021.2.3,Win32,29.86501015,,,,,,,,6,Slow,long,f,0,2.4429,2,0,8,0,1,,,,,
,1.73,,,,,,,,,k,purple,58a477c660cd820001e9a5d6,2021-09-27_17h20.36.887,forced_choiceRT_color,2021.2.3,Win32,29.86501015,,,,,,,,6,Slow,long,k,1,2.4047,2,1,9,3,1,,,,,
,1.47,,,,,,,,,d,orange,58a477c660cd820001e9a5d6,2021-09-27_17h20.36.887,forced_choiceRT_color,2021.2.3,Win32,29.86501015,,,,,,,,6,Slow,long,j,0,2.4359,2,2,10,0,1,,,,,
,1.77,,,,,,,,,j,red,58a477c660cd820001e9a5d6,2021-09-27_17h20.36.887,forced_choiceRT_color,2021.2.3,Win32,29.86501015,,,,,,,,6,Slow,long,j,1,2.4196,2,3,11,2,1,,,,,
,1.98,,,,,,,,,k,purple,58a477c660cd820001e9a5d6,2021-09-27_17h20.36.887,forced_choiceRT_color,2021.2.3,Win32,29.86501015,,,,,,,,6,Slow,long,k,1,2.586,3,0,12,3,1,,,,,
,0.65,,,,,,,,,k,purple,58a477c660cd820001e9a5d6,2021-09-27_17h20.36.887,forced_choiceRT_color,2021.2.3,Win32,29.86501015,,,,,,,,6,Fast,long,k,1,1.3704,3,1,13,3,1,,,,,
,0.13,,,,,,,,,j,red,58a477c660cd820001e9a5d6,2021-09-27_17h20.36.887,forced_choiceRT_color,2021.2.3,Win32,29.86501015,,,,,,,,6,Fast,long,j,1,1.5513,3,2,14,2,1,,,,,
,1.87,,,,,,,,,k,purple,58a477c660cd820001e9a5d6,2021-09-27_17h20.36.887,forced_choiceRT_color,2021.2.3,Win32,29.86501015,,,,,,,,6,Slow,long,k,1,2.4018,3,3,15,3,1,,,,,
,1.21,,,,,,,,,f,blue,58a477c660cd820001e9a5d6,2021-09-27_17h20.36.887,forced_choiceRT_color,2021.2.3,Win32,29.86501015,,,,,,,,6,Ontime,long,f,1,2.087,4,0,16,1,1,,,,,
,0.31,,,,,,,,,j,red,58a477c660cd820001e9a5d6,2021-09-27_17h20.36.887,forced_choiceRT_color,2021.2.3,Win32,29.86501015,,,,,,,,6,Ontime,long,j,1,2.003,4,1,17,2,1,,,,,
,0.87,,,,,,,,,f,blue,58a477c660cd820001e9a5d6,2021-09-27_17h20.36.887,forced_choiceRT_color,2021.2.3,Win32,29.86501015,,,,,,,,6,Ontime,long,f,1,1.9989,4,2,18,1,1,,,,,
,1.57,,,,,,,,,k,purple,58a477c660cd820001e9a5d6,2021-09-27_17h20.36.887,forced_choiceRT_color,2021.2.3,Win32,29.86501015,,,,,,,,6,Ontime,long,k,1,2.059,4,3,19,3,1,,,,,
,0.52,,,,,,,,,f,blue,58a477c660cd820001e9a5d6,2021-09-27_17h20.36.887,forced_choiceRT_color,2021.2.3,Win32,29.86501015,,,,,,,,6,Ontime,long,f,1,2.0646,5,0,20,1,1,,,,,
,0.17,,,,,,,,,k,purple,58a477c660cd820001e9a5d6,2021-09-27_17h20.36.887,forced_choiceRT_color,2021.2.3,Win32,29.86501015,,,,,,,,6,Ontime,long,k,1,1.9347,5,1,21,3,1,,,,,
,1.71,,,,,,,,,j,red,58a477c660cd820001e9a5d6,2021-09-27_17h20.36.887,forced_choiceRT_color,2021.2.3,Win32,29.86501015,,,,,,,,6,Slow,long,j,1,2.2124,5,2,22,2,1,,,,,
,1.88,,,,,,,,,k,purple,58a477c660cd820001e9a5d6,2021-09-27_17h20.36.887,forced_choiceRT_color,2021.2.3,Win32,29.86501015,,,,,,,,6,Slow,long,k,1,2.5301,5,3,23,3,1,,,,,
,0.41,,,,,,,,,d,orange,58a477c660cd820001e9a5d6,2021-09-27_17h20.36.887,forced_choiceRT_color,2021.2.3,Win32,29.86501015,,,,,,,,6,Ontime,long,f,0,1.9346,6,0,24,0,1,,,,,
,0.82,,,,,,,,,d,orange,58a477c660cd820001e9a5d6,2021-09-27_17h20.36.887,forced_choiceRT_color,2021.2.3,Win32,29.86501015,,,,,,,,6,Ontime,long,f,0,1.9915,6,1,25,0,1,,,,,
,1.82,,,,,,,,,d,orange,58a477c660cd820001e9a5d6,2021-09-27_17h20.36.887,forced_choiceRT_color,2021.2.3,Win32,29.86501015,,,,,,,,6,Slow,long,f,0,2.3673,6,2,26,0,1,,,,,
,1.55,,,,,,,,,k,purple,58a477c660cd820001e9a5d6,2021-09-27_17h20.36.887,forced_choiceRT_color,2021.2.3,Win32,29.86501015,,,,,,,,6,Slow,long,k,1,2.1511,6,3,27,3,1,,,,,
,1.45,,,,,,,,,d,orange,58a477c660cd820001e9a5d6,2021-09-27_17h20.36.887,forced_choiceRT_color,2021.2.3,Win32,29.86501015,,,,,,,,6,Slow,long,f,0,2.235,7,0,28,0,1,,,,,
,1.79,,,,,,,,,f,blue,58a477c660cd820001e9a5d6,2021-09-27_17h20.36.887,forced_choiceRT_color,2021.2.3,Win32,29.86501015,,,,,,,,6,Slow,long,f,1,2.7242,7,1,29,1,1,,,,,
,1.89,,,,,,,,,f,blue,58a477c660cd820001e9a5d6,2021-09-27_17h20.36.887,forced_choiceRT_color,2021.2.3,Win32,29.86501015,,,,,,,,6,Slow,long,f,1,2.6094,7,2,30,1,1,,,,,
,0.53,,,,,,,,,d,orange,58a477c660cd820001e9a5d6,2021-09-27_17h20.36.887,forced_choiceRT_color,2021.2.3,Win32,29.86501015,,,,,,,,6,Ontime,long,d,1,1.9439,7,3,31,0,1,,,,,
,1.69,,,,,,,,,j,red,58a477c660cd820001e9a5d6,2021-09-27_17h20.36.887,forced_choiceRT_color,2021.2.3,Win32,29.86501015,,,,,,,,6,Slow,long,j,1,2.4153,8,0,32,2,1,,,,,
,1.23,,,,,,,,,d,orange,58a477c660cd820001e9a5d6,2021-09-27_17h20.36.887,forced_choiceRT_color,2021.2.3,Win32,29.86501015,,,,,,,,6,Slow,long,j,0,2.1029,8,1,33,0,1,,,,,
,0.47,,,,,,,,,f,blue,58a477c660cd820001e9a5d6,2021-09-27_17h20.36.887,forced_choiceRT_color,2021.2.3,Win32,29.86501015,,,,,,,,6,Ontime,long,f,1,1.984,8,2,34,1,1,,,,,
,1.36,,,,,,,,,d,orange,58a477c660cd820001e9a5d6,2021-09-27_17h20.36.887,forced_choiceRT_color,2021.2.3,Win32,29.86501015,,,,,,,,6,Fast,long,d,1,1.7974,8,3,35,0,1,,,,,
,0.83,,,,,,,,,j,red,58a477c660cd820001e9a5d6,2021-09-27_17h20.36.887,forced_choiceRT_color,2021.2.3,Win32,29.86501015,,,,,,,,6,Ontime,long,j,1,1.9703,9,0,36,2,1,,,,,
,0.72,,,,,,,,,f,blue,58a477c660cd820001e9a5d6,2021-09-27_17h20.36.887,forced_choiceRT_color,2021.2.3,Win32,29.86501015,,,,,,,,6,Ontime,long,f,1,2.059,9,1,37,1,1,,,,,
,0.01,,,,,,,,,f,blue,58a477c660cd820001e9a5d6,2021-09-27_17h20.36.887,forced_choiceRT_color,2021.2.3,Win32,29.86501015,,,,,,,,6,Ontime,long,f,1,1.9986,9,2,38,1,1,,,,,
,1.28,,,,,,,,,k,purple,58a477c660cd820001e9a5d6,2021-09-27_17h20.36.887,forced_choiceRT_color,2021.2.3,Win32,29.86501015,,,,,,,,6,Ontime,long,k,1,2.0198,9,3,39,3,1,,,,,
,,,,,,,,,,,,58a477c660cd820001e9a5d6,2021-09-27_17h20.36.887,forced_choiceRT_color,2021.2.3,Win32,29.86501015,,,,,,,,,,,,,,,,,,,5,0,5,0,1
,1.54,,,,,,,,,d,orange,58a477c660cd820001e9a5d6,2021-09-27_17h20.36.887,forced_choiceRT_color,2021.2.3,Win32,29.86501015,,,,,,,,7,Slow,long,f,0,2.2471,0,0,0,0,1,,,,,
,0.48,,,,,,,,,f,blue,58a477c660cd820001e9a5d6,2021-09-27_17h20.36.887,forced_choiceRT_color,2021.2.3,Win32,29.86501015,,,,,,,,7,Ontime,long,d,0,2.0667,0,1,1,1,1,,,,,
,1.48,,,,,,,,,k,purple,58a477c660cd820001e9a5d6,2021-09-27_17h20.36.887,forced_choiceRT_color,2021.2.3,Win32,29.86501015,,,,,,,,7,Slow,long,k,1,2.1252,0,2,2,3,1,,,,,
,0.2,,,,,,,,,j,red,58a477c660cd820001e9a5d6,2021-09-27_17h20.36.887,forced_choiceRT_color,2021.2.3,Win32,29.86501015,,,,,,,,7,Ontime,long,j,1,1.9147,0,3,3,2,1,,,,,
,1.15,,,,,,,,,d,orange,58a477c660cd820001e9a5d6,2021-09-27_17h20.36.887,forced_choiceRT_color,2021.2.3,Win32,29.86501015,,,,,,,,7,Ontime,long,d,1,2.0863,1,0,4,0,1,,,,,
,1.89,,,,,,,,,d,orange,58a477c660cd820001e9a5d6,2021-09-27_17h20.36.887,forced_choiceRT_color,2021.2.3,Win32,29.86501015,,,,,,,,7,Slow,long,d,1,2.4911,1,1,5,0,1,,,,,
,1.02,,,,,,,,,k,purple,58a477c660cd820001e9a5d6,2021-09-27_17h20.36.887,forced_choiceRT_color,2021.2.3,Win32,29.86501015,,,,,,,,7,Ontime,long,k,1,2.0526,1,2,6,3,1,,,,,
,1.57,,,,,,,,,k,purple,58a477c660cd820001e9a5d6,2021-09-27_17h20.36.887,forced_choiceRT_color,2021.2.3,Win32,29.86501015,,,,,,,,7,Ontime,long,k,1,2.0859,1,3,7,3,1,,,,,
,0.99,,,,,,,,,k,purple,58a477c660cd820001e9a5d6,2021-09-27_17h20.36.887,forced_choiceRT_color,2021.2.3,Win32,29.86501015,,,,,,,,7,Ontime,long,k,1,1.9511,2,0,8,3,1,,,,,
,1.03,,,,,,,,,f,blue,58a477c660cd820001e9a5d6,2021-09-27_17h20.36.887,forced_choiceRT_color,2021.2.3,Win32,29.86501015,,,,,,,,7,Slow,long,d,0,2.131,2,1,9,1,1,,,,,
,1.84,,,,,,,,,d,orange,58a477c660cd820001e9a5d6,2021-09-27_17h20.36.887,forced_choiceRT_color,2021.2.3,Win32,29.86501015,,,,,,,,7,Slow,long,d,1,2.3206,2,2,10,0,1,,,,,
,0.55,,,,,,,,,d,orange,58a477c660cd820001e9a5d6,2021-09-27_17h20.36.887,forced_choiceRT_color,2021.2.3,Win32,29.86501015,,,,,,,,7,Ontime,long,d,1,1.9249,2,3,11,0,1,,,,,
,0.51,,,,,,,,,d,orange,58a477c660cd820001e9a5d6,2021-09-27_17h20.36.887,forced_choiceRT_color,2021.2.3,Win32,29.86501015,,,,,,,,7,Fast,long,d,1,1.8675,3,0,12,0,1,,,,,
,1.17,,,,,,,,,j,red,58a477c660cd820001e9a5d6,2021-09-27_17h20.36.887,forced_choiceRT_color,2021.2.3,Win32,29.86501015,,,,,,,,7,Ontime,long,j,1,2.0666,3,1,13,2,1,,,,,
,0.09,,,,,,,,,j,red,58a477c660cd820001e9a5d6,2021-09-27_17h20.36.887,forced_choiceRT_color,2021.2.3,Win32,29.86501015,,,,,,,,7,Fast,long,j,1,1.6997,3,2,14,2,1,,,,,
,0.2,,,,,,,,,j,red,58a477c660cd820001e9a5d6,2021-09-27_17h20.36.887,forced_choiceRT_color,2021.2.3,Win32,29.86501015,,,,,,,,7,Ontime,long,j,1,2.0329,3,3,15,2,1,,,,,
,1.81,,,,,,,,,j,red,58a477c660cd820001e9a5d6,2021-09-27_17h20.36.887,forced_choiceRT_color,2021.2.3,Win32,29.86501015,,,,,,,,7,Slow,long,k,0,2.3467,4,0,16,2,1,,,,,
,0.19,,,,,,,,,k,purple,58a477c660cd820001e9a5d6,2021-09-27_17h20.36.887,forced_choiceRT_color,2021.2.3,Win32,29.86501015,,,,,,,,7,Fast,long,k,1,1.8983,4,1,17,3,1,,,,,
,1.67,,,,,,,,,f,blue,58a477c660cd820001e9a5d6,2021-09-27_17h20.36.887,forced_choiceRT_color,2021.2.3,Win32,29.86501015,,,,,,,,7,Slow,long,f,1,2.4354,4,2,18,1,1,,,,,
,1.97,,,,,,,,,j,red,58a477c660cd820001e9a5d6,2021-09-27_17h20.36.887,forced_choiceRT_color,2021.2.3,Win32,29.86501015,,,,,,,,7,Slow,long,k,0,2.5812,4,3,19,2,1,,,,,
,1.64,,,,,,,,,j,red,58a477c660cd820001e9a5d6,2021-09-27_17h20.36.887,forced_choiceRT_color,2021.2.3,Win32,29.86501015,,,,,,,,7,Slow,long,j,1,2.1906,5,0,20,2,1,,,,,
,0.55,,,,,,,,,j,red,58a477c660cd820001e9a5d6,2021-09-27_17h20.36.887,forced_choiceRT_color,2021.2.3,Win32,29.86501015,,,,,,,,7,Ontime,long,j,1,2.0036,5,1,21,2,1,,,,,
,0.37,,,,,,,,,k,purple,58a477c660cd820001e9a5d6,2021-09-27_17h20.36.887,forced_choiceRT_color,2021.2.3,Win32,29.86501015,,,,,,,,7,Ontime,long,k,1,1.9165,5,2,22,3,1,,,,,
,1.92,,,,,,,,,f,blue,58a477c660cd820001e9a5d6,2021-09-27_17h20.36.887,forced_choiceRT_color,2021.2.3,Win32,29.86501015,,,,,,,,7,Slow,long,f,1,2.7025,5,3,23,1,1,,,,,
,0.45,,,,,,,,,f,blue,58a477c660cd820001e9a5d6,2021-09-27_17h20.36.887,forced_choiceRT_color,2021.2.3,Win32,29.86501015,,,,,,,,7,Ontime,long,f,1,1.9122,6,0,24,1,1,,,,,
,0.68,,,,,,,,,d,orange,58a477c660cd820001e9a5d6,2021-09-27_17h20.36.887,forced_choiceRT_color,2021.2.3,Win32,29.86501015,,,,,,,,7,Ontime,long,d,1,1.943,6,1,25,0,1,,,,,
,1.85,,,,,,,,,k,purple,58a477c660cd820001e9a5d6,2021-09-27_17h20.36.887,forced_choiceRT_color,2021.2.3,Win32,29.86501015,,,,,,,,7,Slow,long,k,1,2.3444,6,2,26,3,1,,,,,
,1.45,,,,,,,,,f,blue,58a477c660cd820001e9a5d6,2021-09-27_17h20.36.887,forced_choiceRT_color,2021.2.3,Win32,29.86501015,,,,,,,,7,Slow,long,j,0,2.1203,6,3,27,1,1,,,,,
,0.76,,,,,,,,,k,purple,58a477c660cd820001e9a5d6,2021-09-27_17h20.36.887,forced_choiceRT_color,2021.2.3,Win32,29.86501015,,,,,,,,7,Ontime,long,k,1,1.9812,7,0,28,3,1,,,,,
,1.27,,,,,,,,,j,red,58a477c660cd820001e9a5d6,2021-09-27_17h20.36.887,forced_choiceRT_color,2021.2.3,Win32,29.86501015,,,,,,,,7,Slow,long,j,1,2.1044,7,1,29,2,1,,,,,
,0.69,,,,,,,,,k,purple,58a477c660cd820001e9a5d6,2021-09-27_17h20.36.887,forced_choiceRT_color,2021.2.3,Win32,29.86501015,,,,,,,,7,Ontime,long,k,1,1.9778,7,2,30,3,1,,,,,
,1.4,,,,,,,,,f,blue,58a477c660cd820001e9a5d6,2021-09-27_17h20.36.887,forced_choiceRT_color,2021.2.3,Win32,29.86501015,,,,,,,,7,Slow,long,f,1,2.2873,7,3,31,1,1,,,,,
,1.45,,,,,,,,,j,red,58a477c660cd820001e9a5d6,2021-09-27_17h20.36.887,forced_choiceRT_color,2021.2.3,Win32,29.86501015,,,,,,,,7,Slow,long,d,0,2.1401,8,0,32,2,1,,,,,
,0.27,,,,,,,,,f,blue,58a477c660cd820001e9a5d6,2021-09-27_17h20.36.887,forced_choiceRT_color,2021.2.3,Win32,29.86501015,,,,,,,,7,Ontime,long,f,1,1.9159,8,1,33,1,1,,,,,
,1.8,,,,,,,,,k,purple,58a477c660cd820001e9a5d6,2021-09-27_17h20.36.887,forced_choiceRT_color,2021.2.3,Win32,29.86501015,,,,,,,,7,Slow,long,k,1,2.4104,8,2,34,3,1,,,,,
,1.86,,,,,,,,,d,orange,58a477c660cd820001e9a5d6,2021-09-27_17h20.36.887,forced_choiceRT_color,2021.2.3,Win32,29.86501015,,,,,,,,7,Slow,long,d,1,2.5027,8,3,35,0,1,,,,,
,1.43,,,,,,,,,f,blue,58a477c660cd820001e9a5d6,2021-09-27_17h20.36.887,forced_choiceRT_color,2021.2.3,Win32,29.86501015,,,,,,,,7,Slow,long,j,0,2.2397,9,0,36,1,1,,,,,
,1.07,,,,,,,,,d,orange,58a477c660cd820001e9a5d6,2021-09-27_17h20.36.887,forced_choiceRT_color,2021.2.3,Win32,29.86501015,,,,,,,,7,Ontime,long,d,1,2.0836,9,1,37,0,1,,,,,
,0.12,,,,,,,,,d,orange,58a477c660cd820001e9a5d6,2021-09-27_17h20.36.887,forced_choiceRT_color,2021.2.3,Win32,29.86501015,,,,,,,,7,Ontime,long,d,1,2.001,9,2,38,0,1,,,,,
,0.7,,,,,,,,,f,blue,58a477c660cd820001e9a5d6,2021-09-27_17h20.36.887,forced_choiceRT_color,2021.2.3,Win32,29.86501015,,,,,,,,7,Slow,long,j,0,2.1644,9,3,39,1,1,,,,,
,,,,,,,,,,,,58a477c660cd820001e9a5d6,2021-09-27_17h20.36.887,forced_choiceRT_color,2021.2.3,Win32,29.86501015,,,,,,,,,,,,,,,,,,,6,0,6,0,1
,1,,,,,,,,,d,orange,58a477c660cd820001e9a5d6,2021-09-27_17h20.36.887,forced_choiceRT_color,2021.2.3,Win32,29.86501015,,,,,,,,8,Slow,long,d,1,2.1588,0,0,0,0,1,,,,,
,1.36,,,,,,,,,k,purple,58a477c660cd820001e9a5d6,2021-09-27_17h20.36.887,forced_choiceRT_color,2021.2.3,Win32,29.86501015,,,,,,,,8,Ontime,long,k,1,2.0376,0,1,1,3,1,,,,,
,1.22,,,,,,,,,k,purple,58a477c660cd820001e9a5d6,2021-09-27_17h20.36.887,forced_choiceRT_color,2021.2.3,Win32,29.86501015,,,,,,,,8,Ontime,long,k,1,2.037,0,2,2,3,1,,,,,
,0.61,,,,,,,,,k,purple,58a477c660cd820001e9a5d6,2021-09-27_17h20.36.887,forced_choiceRT_color,2021.2.3,Win32,29.86501015,,,,,,,,8,Ontime,long,k,1,1.9304,0,3,3,3,1,,,,,
,1.37,,,,,,,,,f,blue,58a477c660cd820001e9a5d6,2021-09-27_17h20.36.887,forced_choiceRT_color,2021.2.3,Win32,29.86501015,,,,,,,,8,Ontime,long,d,0,2.0487,1,0,4,1,1,,,,,
,1.78,,,,,,,,,j,red,58a477c660cd820001e9a5d6,2021-09-27_17h20.36.887,forced_choiceRT_color,2021.2.3,Win32,29.86501015,,,,,,,,8,Slow,long,f,0,2.4948,1,1,5,2,1,,,,,
,0.23,,,,,,,,,d,orange,58a477c660cd820001e9a5d6,2021-09-27_17h20.36.887,forced_choiceRT_color,2021.2.3,Win32,29.86501015,,,,,,,,8,Fast,long,d,1,1.8895,1,2,6,0,1,,,,,
,0.59,,,,,,,,,f,blue,58a477c660cd820001e9a5d6,2021-09-27_17h20.36.887,forced_choiceRT_color,2021.2.3,Win32,29.86501015,,,,,,,,8,Ontime,long,f,1,2.0426,1,3,7,1,1,,,,,
,0.79,,,,,,,,,k,purple,58a477c660cd820001e9a5d6,2021-09-27_17h20.36.887,forced_choiceRT_color,2021.2.3,Win32,29.86501015,,,,,,,,8,Ontime,long,k,1,1.9452,2,0,8,3,1,,,,,
,1.57,,,,,,,,,f,blue,58a477c660cd820001e9a5d6,2021-09-27_17h20.36.887,forced_choiceRT_color,2021.2.3,Win32,29.86501015,,,,,,,,8,Slow,long,f,1,2.6798,2,1,9,1,1,,,,,
,1.42,,,,,,,,,f,blue,58a477c660cd820001e9a5d6,2021-09-27_17h20.36.887,forced_choiceRT_color,2021.2.3,Win32,29.86501015,,,,,,,,8,Ontime,long,f,1,2.0508,2,2,10,1,1,,,,,
,1.16,,,,,,,,,d,orange,58a477c660cd820001e9a5d6,2021-09-27_17h20.36.887,forced_choiceRT_color,2021.2.3,Win32,29.86501015,,,,,,,,8,Ontime,long,d,1,1.9284,2,3,11,0,1,,,,,
,1.26,,,,,,,,,f,blue,58a477c660cd820001e9a5d6,2021-09-27_17h20.36.887,forced_choiceRT_color,2021.2.3,Win32,29.86501015,,,,,,,,8,Ontime,long,f,1,2.0817,3,0,12,1,1,,,,,
,1.02,,,,,,,,,j,red,58a477c660cd820001e9a5d6,2021-09-27_17h20.36.887,forced_choiceRT_color,2021.2.3,Win32,29.86501015,,,,,,,,8,Ontime,long,j,1,2.096,3,1,13,2,1,,,,,
,0.21,,,,,,,,,f,blue,58a477c660cd820001e9a5d6,2021-09-27_17h20.36.887,forced_choiceRT_color,2021.2.3,Win32,29.86501015,,,,,,,,8,Slow,long,f,1,2.1146,3,2,14,1,1,,,,,
,0.42,,,,,,,,,f,blue,58a477c660cd820001e9a5d6,2021-09-27_17h20.36.887,forced_choiceRT_color,2021.2.3,Win32,29.86501015,,,,,,,,8,Ontime,long,f,1,1.9839,3,3,15,1,1,,,,,
,1.48,,,,,,,,,j,red,58a477c660cd820001e9a5d6,2021-09-27_17h20.36.887,forced_choiceRT_color,2021.2.3,Win32,29.86501015,,,,,,,,8,Ontime,long,j,1,2.062,4,0,16,2,1,,,,,
,1.21,,,,,,,,,f,blue,58a477c660cd820001e9a5d6,2021-09-27_17h20.36.887,forced_choiceRT_color,2021.2.3,Win32,29.86501015,,,,,,,,8,Ontime,long,f,1,2.0787,4,1,17,1,1,,,,,
,0.86,,,,,,,,,j,red,58a477c660cd820001e9a5d6,2021-09-27_17h20.36.887,forced_choiceRT_color,2021.2.3,Win32,29.86501015,,,,,,,,8,Ontime,long,j,1,2.0234,4,2,18,2,1,,,,,
,0.13,,,,,,,,,k,purple,58a477c660cd820001e9a5d6,2021-09-27_17h20.36.887,forced_choiceRT_color,2021.2.3,Win32,29.86501015,,,,,,,,8,Ontime,long,k,1,1.9158,4,3,19,3,1,,,,,
,0.93,,,,,,,,,j,red,58a477c660cd820001e9a5d6,2021-09-27_17h20.36.887,forced_choiceRT_color,2021.2.3,Win32,29.86501015,,,,,,,,8,Ontime,long,j,1,1.9796,5,0,20,2,1,,,,,
,1.02,,,,,,,,,k,purple,58a477c660cd820001e9a5d6,2021-09-27_17h20.36.887,forced_choiceRT_color,2021.2.3,Win32,29.86501015,,,,,,,,8,Ontime,long,k,1,1.9221,5,1,21,3,1,,,,,
,1.38,,,,,,,,,j,red,58a477c660cd820001e9a5d6,2021-09-27_17h20.36.887,forced_choiceRT_color,2021.2.3,Win32,29.86501015,,,,,,,,8,Slow,long,j,1,2.1074,5,2,22,2,1,,,,,
,1.91,,,,,,,,,f,blue,58a477c660cd820001e9a5d6,2021-09-27_17h20.36.887,forced_choiceRT_color,2021.2.3,Win32,29.86501015,,,,,,,,8,Slow,long,f,1,2.5722,5,3,23,1,1,,,,,
,1.02,,,,,,,,,j,red,58a477c660cd820001e9a5d6,2021-09-27_17h20.36.887,forced_choiceRT_color,2021.2.3,Win32,29.86501015,,,,,,,,8,Ontime,long,j,1,2.0359,6,0,24,2,1,,,,,
,0.7,,,,,,,,,k,purple,58a477c660cd820001e9a5d6,2021-09-27_17h20.36.887,forced_choiceRT_color,2021.2.3,Win32,29.86501015,,,,,,,,8,Ontime,long,k,1,1.9453,6,1,25,3,1,,,,,
,0.98,,,,,,,,,k,purple,58a477c660cd820001e9a5d6,2021-09-27_17h20.36.887,forced_choiceRT_color,2021.2.3,Win32,29.86501015,,,,,,,,8,Ontime,long,k,1,1.9857,6,2,26,3,1,,,,,
,0.93,,,,,,,,,d,orange,58a477c660cd820001e9a5d6,2021-09-27_17h20.36.887,forced_choiceRT_color,2021.2.3,Win32,29.86501015,,,,,,,,8,Ontime,long,d,1,1.981,6,3,27,0,1,,,,,
,1.51,,,,,,,,,f,blue,58a477c660cd820001e9a5d6,2021-09-27_17h20.36.887,forced_choiceRT_color,2021.2.3,Win32,29.86501015,,,,,,,,8,Slow,long,j,0,2.169,7,0,28,1,1,,,,,
,0.27,,,,,,,,,d,orange,58a477c660cd820001e9a5d6,2021-09-27_17h20.36.887,forced_choiceRT_color,2021.2.3,Win32,29.86501015,,,,,,,,8,Ontime,long,d,1,1.9358,7,1,29,0,1,,,,,
,1.13,,,,,,,,,d,orange,58a477c660cd820001e9a5d6,2021-09-27_17h20.36.887,forced_choiceRT_color,2021.2.3,Win32,29.86501015,,,,,,,,8,Ontime,long,d,1,1.9488,7,2,30,0,1,,,,,
,0.05,,,,,,,,,d,orange,58a477c660cd820001e9a5d6,2021-09-27_17h20.36.887,forced_choiceRT_color,2021.2.3,Win32,29.86501015,,,,,,,,8,Ontime,long,d,1,2.0174,7,3,31,0,1,,,,,
,0.01,,,,,,,,,j,red,58a477c660cd820001e9a5d6,2021-09-27_17h20.36.887,forced_choiceRT_color,2021.2.3,Win32,29.86501015,,,,,,,,8,Ontime,long,j,1,1.9692,8,0,32,2,1,,,,,
,1.97,,,,,,,,,d,orange,58a477c660cd820001e9a5d6,2021-09-27_17h20.36.887,forced_choiceRT_color,2021.2.3,Win32,29.86501015,,,,,,,,8,Slow,long,f,0,2.6794,8,1,33,0,1,,,,,
,1.27,,,,,,,,,j,red,58a477c660cd820001e9a5d6,2021-09-27_17h20.36.887,forced_choiceRT_color,2021.2.3,Win32,29.86501015,,,,,,,,8,Slow,long,j,1,2.1043,8,2,34,2,1,,,,,
,1.41,,,,,,,,,k,purple,58a477c660cd820001e9a5d6,2021-09-27_17h20.36.887,forced_choiceRT_color,2021.2.3,Win32,29.86501015,,,,,,,,8,Ontime,long,k,1,1.9405,8,3,35,3,1,,,,,
,1.28,,,,,,,,,d,orange,58a477c660cd820001e9a5d6,2021-09-27_17h20.36.887,forced_choiceRT_color,2021.2.3,Win32,29.86501015,,,,,,,,8,Ontime,long,d,1,1.9419,9,0,36,0,1,,,,,
,0.08,,,,,,,,,d,orange,58a477c660cd820001e9a5d6,2021-09-27_17h20.36.887,forced_choiceRT_color,2021.2.3,Win32,29.86501015,,,,,,,,8,Ontime,long,d,1,2.0558,9,1,37,0,1,,,,,
,1.91,,,,,,,,,j,red,58a477c660cd820001e9a5d6,2021-09-27_17h20.36.887,forced_choiceRT_color,2021.2.3,Win32,29.86501015,,,,,,,,8,Slow,long,k,0,2.4014,9,2,38,2,1,,,,,
,1.7,,,,,,,,,k,purple,58a477c660cd820001e9a5d6,2021-09-27_17h20.36.887,forced_choiceRT_color,2021.2.3,Win32,29.86501015,,,,,,,,8,Slow,long,k,1,2.2725,9,3,39,3,1,,,,,
,,,,,,,,,,,,58a477c660cd820001e9a5d6,2021-09-27_17h20.36.887,forced_choiceRT_color,2021.2.3,Win32,29.86501015,,,,,,,,,,,,,,,,,,,7,0,7,0,1
,1.6,,,,,,,,,k,purple,58a477c660cd820001e9a5d6,2021-09-27_17h20.36.887,forced_choiceRT_color,2021.2.3,Win32,29.86501015,,,,,,,,9,Slow,long,k,1,2.1173,0,0,0,3,1,,,,,
,0.98,,,,,,,,,j,red,58a477c660cd820001e9a5d6,2021-09-27_17h20.36.887,forced_choiceRT_color,2021.2.3,Win32,29.86501015,,,,,,,,9,Ontime,long,j,1,2.0508,0,1,1,2,1,,,,,
,0.51,,,,,,,,,j,red,58a477c660cd820001e9a5d6,2021-09-27_17h20.36.887,forced_choiceRT_color,2021.2.3,Win32,29.86501015,,,,,,,,9,Ontime,long,j,1,1.9667,0,2,2,2,1,,,,,
,1.75,,,,,,,,,f,blue,58a477c660cd820001e9a5d6,2021-09-27_17h20.36.887,forced_choiceRT_color,2021.2.3,Win32,29.86501015,,,,,,,,9,Slow,long,f,1,2.6027,0,3,3,1,1,,,,,
,1.47,,,,,,,,,d,orange,58a477c660cd820001e9a5d6,2021-09-27_17h20.36.887,forced_choiceRT_color,2021.2.3,Win32,29.86501015,,,,,,,,9,Slow,long,d,1,2.2595,1,0,4,0,1,,,,,
,0.8,,,,,,,,,d,orange,58a477c660cd820001e9a5d6,2021-09-27_17h20.36.887,forced_choiceRT_color,2021.2.3,Win32,29.86501015,,,,,,,,9,Ontime,long,d,1,1.9062,1,1,5,0,1,,,,,
,0.98,,,,,,,,,k,purple,58a477c660cd820001e9a5d6,2021-09-27_17h20.36.887,forced_choiceRT_color,2021.2.3,Win32,29.86501015,,,,,,,,9,Ontime,long,k,1,1.9429,1,2,6,3,1,,,,,
,1.48,,,,,,,,,f,blue,58a477c660cd820001e9a5d6,2021-09-27_17h20.36.887,forced_choiceRT_color,2021.2.3,Win32,29.86501015,,,,,,,,9,Slow,long,f,1,2.1528,1,3,7,1,1,,,,,
,0.17,,,,,,,,,k,purple,58a477c660cd820001e9a5d6,2021-09-27_17h20.36.887,forced_choiceRT_color,2021.2.3,Win32,29.86501015,,,,,,,,9,Ontime,long,k,1,1.9203,2,0,8,3,1,,,,,
,0.66,,,,,,,,,k,purple,58a477c660cd820001e9a5d6,2021-09-27_17h20.36.887,forced_choiceRT_color,2021.2.3,Win32,29.86501015,,,,,,,,9,Ontime,long,k,1,2.0006,2,1,9,3,1,,,,,
,1.23,,,,,,,,,f,blue,58a477c660cd820001e9a5d6,2021-09-27_17h20.36.887,forced_choiceRT_color,2021.2.3,Win32,29.86501015,,,,,,,,9,Slow,long,f,1,2.1021,2,2,10,1,1,,,,,
,1.68,,,,,,,,,f,blue,58a477c660cd820001e9a5d6,2021-09-27_17h20.36.887,forced_choiceRT_color,2021.2.3,Win32,29.86501015,,,,,,,,9,Slow,long,f,1,2.109,2,3,11,1,1,,,,,
,0.76,,,,,,,,,d,orange,58a477c660cd820001e9a5d6,2021-09-27_17h20.36.887,forced_choiceRT_color,2021.2.3,Win32,29.86501015,,,,,,,,9,Ontime,long,d,1,1.9959,3,0,12,0,1,,,,,
,0.01,,,,,,,,,k,purple,58a477c660cd820001e9a5d6,2021-09-27_17h20.36.887,forced_choiceRT_color,2021.2.3,Win32,29.86501015,,,,,,,,9,Ontime,long,k,1,1.9435,3,1,13,3,1,,,,,
,1.05,,,,,,,,,d,orange,58a477c660cd820001e9a5d6,2021-09-27_17h20.36.887,forced_choiceRT_color,2021.2.3,Win32,29.86501015,,,,,,,,9,Ontime,long,d,1,2.03,3,2,14,0,1,,,,,
,1.45,,,,,,,,,k,purple,58a477c660cd820001e9a5d6,2021-09-27_17h20.36.887,forced_choiceRT_color,2021.2.3,Win32,29.86501015,,,,,,,,9,Slow,long,k,1,2.1999,3,3,15,3,1,,,,,
,0.36,,,,,,,,,f,blue,58a477c660cd820001e9a5d6,2021-09-27_17h20.36.887,forced_choiceRT_color,2021.2.3,Win32,29.86501015,,,,,,,,9,Ontime,long,f,1,1.9545,4,0,16,1,1,,,,,
,1.05,,,,,,,,,d,orange,58a477c660cd820001e9a5d6,2021-09-27_17h20.36.887,forced_choiceRT_color,2021.2.3,Win32,29.86501015,,,,,,,,9,Ontime,long,d,1,2.0383,4,1,17,0,1,,,,,
,0.56,,,,,,,,,k,purple,58a477c660cd820001e9a5d6,2021-09-27_17h20.36.887,forced_choiceRT_color,2021.2.3,Win32,29.86501015,,,,,,,,9,Ontime,long,k,1,1.9499,4,2,18,3,1,,,,,
,1.48,,,,,,,,,k,purple,58a477c660cd820001e9a5d6,2021-09-27_17h20.36.887,forced_choiceRT_color,2021.2.3,Win32,29.86501015,,,,,,,,9,Ontime,long,k,1,1.9414,4,3,19,3,1,,,,,
,0.16,,,,,,,,,j,red,58a477c660cd820001e9a5d6,2021-09-27_17h20.36.887,forced_choiceRT_color,2021.2.3,Win32,29.86501015,,,,,,,,9,Ontime,long,j,1,1.9247,5,0,20,2,1,,,,,
,0.4,,,,,,,,,f,blue,58a477c660cd820001e9a5d6,2021-09-27_17h20.36.887,forced_choiceRT_color,2021.2.3,Win32,29.86501015,,,,,,,,9,Ontime,long,f,1,1.9663,5,1,21,1,1,,,,,
,0.7,,,,,,,,,f,blue,58a477c660cd820001e9a5d6,2021-09-27_17h20.36.887,forced_choiceRT_color,2021.2.3,Win32,29.86501015,,,,,,,,9,Ontime,long,f,1,1.9909,5,2,22,1,1,,,,,
,1.09,,,,,,,,,k,purple,58a477c660cd820001e9a5d6,2021-09-27_17h20.36.887,forced_choiceRT_color,2021.2.3,Win32,29.86501015,,,,,,,,9,Ontime,long,k,1,2.0433,5,3,23,3,1,,,,,
,1.57,,,,,,,,,f,blue,58a477c660cd820001e9a5d6,2021-09-27_17h20.36.887,forced_choiceRT_color,2021.2.3,Win32,29.86501015,,,,,,,,9,Slow,long,f,1,2.3189,6,0,24,1,1,,,,,
,0.88,,,,,,,,,d,orange,58a477c660cd820001e9a5d6,2021-09-27_17h20.36.887,forced_choiceRT_color,2021.2.3,Win32,29.86501015,,,,,,,,9,Fast,long,d,1,1.8954,6,1,25,0,1,,,,,
,0.5,,,,,,,,,k,purple,58a477c660cd820001e9a5d6,2021-09-27_17h20.36.887,forced_choiceRT_color,2021.2.3,Win32,29.86501015,,,,,,,,9,Ontime,long,k,1,1.9809,6,2,26,3,1,,,,,
,1.02,,,,,,,,,d,orange,58a477c660cd820001e9a5d6,2021-09-27_17h20.36.887,forced_choiceRT_color,2021.2.3,Win32,29.86501015,,,,,,,,9,Ontime,long,k,0,2.0723,6,3,27,0,1,,,,,
,0.69,,,,,,,,,d,orange,58a477c660cd820001e9a5d6,2021-09-27_17h20.36.887,forced_choiceRT_color,2021.2.3,Win32,29.86501015,,,,,,,,9,Ontime,long,d,1,2.0024,7,0,28,0,1,,,,,
,1.95,,,,,,,,,j,red,58a477c660cd820001e9a5d6,2021-09-27_17h20.36.887,forced_choiceRT_color,2021.2.3,Win32,29.86501015,,,,,,,,9,Slow,long,f,0,2.6428,7,1,29,2,1,,,,,
,0.45,,,,,,,,,j,red,58a477c660cd820001e9a5d6,2021-09-27_17h20.36.887,forced_choiceRT_color,2021.2.3,Win32,29.86501015,,,,,,,,9,Ontime,long,j,1,1.936,7,2,30,2,1,,,,,
,0.44,,,,,,,,,f,blue,58a477c660cd820001e9a5d6,2021-09-27_17h20.36.887,forced_choiceRT_color,2021.2.3,Win32,29.86501015,,,,,,,,9,Fast,long,f,1,1.8961,7,3,31,1,1,,,,,
,0.79,,,,,,,,,j,red,58a477c660cd820001e9a5d6,2021-09-27_17h20.36.887,forced_choiceRT_color,2021.2.3,Win32,29.86501015,,,,,,,,9,Slow,long,f,0,2.1676,8,0,32,2,1,,,,,
,1.09,,,,,,,,,j,red,58a477c660cd820001e9a5d6,2021-09-27_17h20.36.887,forced_choiceRT_color,2021.2.3,Win32,29.86501015,,,,,,,,9,Ontime,long,j,1,2.0104,8,1,33,2,1,,,,,
,1.67,,,,,,,,,j,red,58a477c660cd820001e9a5d6,2021-09-27_17h20.36.887,forced_choiceRT_color,2021.2.3,Win32,29.86501015,,,,,,,,9,Slow,long,j,1,2.2732,8,2,34,2,1,,,,,
,0.37,,,,,,,,,d,orange,58a477c660cd820001e9a5d6,2021-09-27_17h20.36.887,forced_choiceRT_color,2021.2.3,Win32,29.86501015,,,,,,,,9,Ontime,long,d,1,1.9478,8,3,35,0,1,,,,,
,1.03,,,,,,,,,j,red,58a477c660cd820001e9a5d6,2021-09-27_17h20.36.887,forced_choiceRT_color,2021.2.3,Win32,29.86501015,,,,,,,,9,Ontime,long,j,1,2.0331,9,0,36,2,1,,,,,
,1.08,,,,,,,,,j,red,58a477c660cd820001e9a5d6,2021-09-27_17h20.36.887,forced_choiceRT_color,2021.2.3,Win32,29.86501015,,,,,,,,9,Ontime,long,j,1,2.0029,9,1,37,2,1,,,,,
,1.44,,,,,,,,,d,orange,58a477c660cd820001e9a5d6,2021-09-27_17h20.36.887,forced_choiceRT_color,2021.2.3,Win32,29.86501015,,,,,,,,9,Ontime,long,d,1,2.0481,9,2,38,0,1,,,,,
,0.26,,,,,,,,,f,blue,58a477c660cd820001e9a5d6,2021-09-27_17h20.36.887,forced_choiceRT_color,2021.2.3,Win32,29.86501015,,,,,,,,9,Ontime,long,f,1,2.0173,9,3,39,1,1,,,,,
,,,,,,,,,,,,58a477c660cd820001e9a5d6,2021-09-27_17h20.36.887,forced_choiceRT_color,2021.2.3,Win32,29.86501015,,,,,,,,,,,,,,,,,,,8,0,8,0,1
,0.68,,,,,,,,,f,blue,58a477c660cd820001e9a5d6,2021-09-27_17h20.36.887,forced_choiceRT_color,2021.2.3,Win32,29.86501015,,,,,,,,10,Ontime,long,f,1,1.9903,0,0,0,1,1,,,,,
,0,,,,,,,,,k,purple,58a477c660cd820001e9a5d6,2021-09-27_17h20.36.887,forced_choiceRT_color,2021.2.3,Win32,29.86501015,,,,,,,,10,Ontime,long,k,1,1.9329,0,1,1,3,1,,,,,
,1.92,,,,,,,,,f,blue,58a477c660cd820001e9a5d6,2021-09-27_17h20.36.887,forced_choiceRT_color,2021.2.3,Win32,29.86501015,,,,,,,,10,Slow,long,f,1,2.7178,0,2,2,1,1,,,,,
,1.78,,,,,,,,,d,orange,58a477c660cd820001e9a5d6,2021-09-27_17h20.36.887,forced_choiceRT_color,2021.2.3,Win32,29.86501015,,,,,,,,10,Slow,long,d,1,2.174,0,3,3,0,1,,,,,
,1.1,,,,,,,,,d,orange,58a477c660cd820001e9a5d6,2021-09-27_17h20.36.887,forced_choiceRT_color,2021.2.3,Win32,29.86501015,,,,,,,,10,Ontime,long,d,1,1.9127,1,0,4,0,1,,,,,
,0.76,,,,,,,,,d,orange,58a477c660cd820001e9a5d6,2021-09-27_17h20.36.887,forced_choiceRT_color,2021.2.3,Win32,29.86501015,,,,,,,,10,Ontime,long,d,1,1.9156,1,1,5,0,1,,,,,
,1.13,,,,,,,,,j,red,58a477c660cd820001e9a5d6,2021-09-27_17h20.36.887,forced_choiceRT_color,2021.2.3,Win32,29.86501015,,,,,,,,10,Ontime,long,j,1,2.0364,1,2,6,2,1,,,,,
,1.12,,,,,,,,,j,red,58a477c660cd820001e9a5d6,2021-09-27_17h20.36.887,forced_choiceRT_color,2021.2.3,Win32,29.86501015,,,,,,,,10,Ontime,long,j,1,2.0515,1,3,7,2,1,,,,,
,1.31,,,,,,,,,d,orange,58a477c660cd820001e9a5d6,2021-09-27_17h20.36.887,forced_choiceRT_color,2021.2.3,Win32,29.86501015,,,,,,,,10,Ontime,long,d,1,2.0516,2,0,8,0,1,,,,,
,1.4,,,,,,,,,j,red,58a477c660cd820001e9a5d6,2021-09-27_17h20.36.887,forced_choiceRT_color,2021.2.3,Win32,29.86501015,,,,,,,,10,Slow,long,j,1,2.15,2,1,9,2,1,,,,,
,0.83,,,,,,,,,d,orange,58a477c660cd820001e9a5d6,2021-09-27_17h20.36.887,forced_choiceRT_color,2021.2.3,Win32,29.86501015,,,,,,,,10,Fast,long,d,1,1.8625,2,2,10,0,1,,,,,
,0.18,,,,,,,,,f,blue,58a477c660cd820001e9a5d6,2021-09-27_17h20.36.887,forced_choiceRT_color,2021.2.3,Win32,29.86501015,,,,,,,,10,Ontime,long,f,1,2.0703,2,3,11,1,1,,,,,
,1.02,,,,,,,,,f,blue,58a477c660cd820001e9a5d6,2021-09-27_17h20.36.887,forced_choiceRT_color,2021.2.3,Win32,29.86501015,,,,,,,,10,Ontime,long,f,1,2.0114,3,0,12,1,1,,,,,
,1.56,,,,,,,,,j,red,58a477c660cd820001e9a5d6,2021-09-27_17h20.36.887,forced_choiceRT_color,2021.2.3,Win32,29.86501015,,,,,,,,10,Slow,long,j,1,2.156,3,1,13,2,1,,,,,
,1.43,,,,,,,,,d,orange,58a477c660cd820001e9a5d6,2021-09-27_17h20.36.887,forced_choiceRT_color,2021.2.3,Win32,29.86501015,,,,,,,,10,Ontime,long,d,1,1.9258,3,2,14,0,1,,,,,
,1.66,,,,,,,,,k,purple,58a477c660cd820001e9a5d6,2021-09-27_17h20.36.887,forced_choiceRT_color,2021.2.3,Win32,29.86501015,,,,,,,,10,Slow,long,k,1,2.1058,3,3,15,3,1,,,,,
,1.51,,,,,,,,,k,purple,58a477c660cd820001e9a5d6,2021-09-27_17h20.36.887,forced_choiceRT_color,2021.2.3,Win32,29.86501015,,,,,,,,10,Slow,long,k,1,2.1366,4,0,16,3,1,,,,,
,0,,,,,,,,,f,blue,58a477c660cd820001e9a5d6,2021-09-27_17h20.36.887,forced_choiceRT_color,2021.2.3,Win32,29.86501015,,,,,,,,10,Ontime,long,f,1,2.0027,4,1,17,1,1,,,,,
,1.94,,,,,,,,,k,purple,58a477c660cd820001e9a5d6,2021-09-27_17h20.36.887,forced_choiceRT_color,2021.2.3,Win32,29.86501015,,,,,,,,10,Slow,long,f,0,2.4695,4,2,18,3,1,,,,,
,0.11,,,,,,,,,k,purple,58a477c660cd820001e9a5d6,2021-09-27_17h20.36.887,forced_choiceRT_color,2021.2.3,Win32,29.86501015,,,,,,,,10,Ontime,long,k,1,2.0136,4,3,19,3,1,,,,,
,0.51,,,,,,,,,k,purple,58a477c660cd820001e9a5d6,2021-09-27_17h20.36.887,forced_choiceRT_color,2021.2.3,Win32,29.86501015,,,,,,,,10,Ontime,long,k,1,1.918,5,0,20,3,1,,,,,
,0.99,,,,,,,,,f,blue,58a477c660cd820001e9a5d6,2021-09-27_17h20.36.887,forced_choiceRT_color,2021.2.3,Win32,29.86501015,,,,,,,,10,Ontime,long,f,1,2.0975,5,1,21,1,1,,,,,
,1.07,,,,,,,,,j,red,58a477c660cd820001e9a5d6,2021-09-27_17h20.36.887,forced_choiceRT_color,2021.2.3,Win32,29.86501015,,,,,,,,10,Ontime,long,j,1,2.0408,5,2,22,2,1,,,,,
,1.51,,,,,,,,,j,red,58a477c660cd820001e9a5d6,2021-09-27_17h20.36.887,forced_choiceRT_color,2021.2.3,Win32,29.86501015,,,,,,,,10,Slow,long,j,1,2.1166,5,3,23,2,1,,,,,
,1.59,,,,,,,,,f,blue,58a477c660cd820001e9a5d6,2021-09-27_17h20.36.887,forced_choiceRT_color,2021.2.3,Win32,29.86501015,,,,,,,,10,Slow,long,f,1,2.3556,6,0,24,1,1,,,,,
,1.84,,,,,,,,,d,orange,58a477c660cd820001e9a5d6,2021-09-27_17h20.36.887,forced_choiceRT_color,2021.2.3,Win32,29.86501015,,,,,,,,10,Slow,long,f,0,2.3052,6,1,25,0,1,,,,,
,0.6,,,,,,,,,f,blue,58a477c660cd820001e9a5d6,2021-09-27_17h20.36.887,forced_choiceRT_color,2021.2.3,Win32,29.86501015,,,,,,,,10,Ontime,long,f,1,2.0819,6,2,26,1,1,,,,,
,1.07,,,,,,,,,f,blue,58a477c660cd820001e9a5d6,2021-09-27_17h20.36.887,forced_choiceRT_color,2021.2.3,Win32,29.86501015,,,,,,,,10,Ontime,long,f,1,1.994,6,3,27,1,1,,,,,
,0.31,,,,,,,,,d,orange,58a477c660cd820001e9a5d6,2021-09-27_17h20.36.887,forced_choiceRT_color,2021.2.3,Win32,29.86501015,,,,,,,,10,Ontime,long,d,1,1.9159,7,0,28,0,1,,,,,
,0.35,,,,,,,,,k,purple,58a477c660cd820001e9a5d6,2021-09-27_17h20.36.887,forced_choiceRT_color,2021.2.3,Win32,29.86501015,,,,,,,,10,Ontime,long,k,1,2.0551,7,1,29,3,1,,,,,
,0.59,,,,,,,,,j,red,58a477c660cd820001e9a5d6,2021-09-27_17h20.36.887,forced_choiceRT_color,2021.2.3,Win32,29.86501015,,,,,,,,10,Ontime,long,j,1,1.9472,7,2,30,2,1,,,,,
,1.81,,,,,,,,,k,purple,58a477c660cd820001e9a5d6,2021-09-27_17h20.36.887,forced_choiceRT_color,2021.2.3,Win32,29.86501015,,,,,,,,10,Slow,long,k,1,2.2891,7,3,31,3,1,,,,,
,0.86,,,,,,,,,j,red,58a477c660cd820001e9a5d6,2021-09-27_17h20.36.887,forced_choiceRT_color,2021.2.3,Win32,29.86501015,,,,,,,,10,Ontime,long,j,1,2.0466,8,0,32,2,1,,,,,
,0.53,,,,,,,,,d,orange,58a477c660cd820001e9a5d6,2021-09-27_17h20.36.887,forced_choiceRT_color,2021.2.3,Win32,29.86501015,,,,,,,,10,Ontime,long,d,1,1.9887,8,1,33,0,1,,,,,
,0.45,,,,,,,,,j,red,58a477c660cd820001e9a5d6,2021-09-27_17h20.36.887,forced_choiceRT_color,2021.2.3,Win32,29.86501015,,,,,,,,10,Ontime,long,j,1,1.9468,8,2,34,2,1,,,,,
,1.33,,,,,,,,,j,red,58a477c660cd820001e9a5d6,2021-09-27_17h20.36.887,forced_choiceRT_color,2021.2.3,Win32,29.86501015,,,,,,,,10,Ontime,long,j,1,2.0358,8,3,35,2,1,,,,,
,1.07,,,,,,,,,d,orange,58a477c660cd820001e9a5d6,2021-09-27_17h20.36.887,forced_choiceRT_color,2021.2.3,Win32,29.86501015,,,,,,,,10,Ontime,long,d,1,1.9698,9,0,36,0,1,,,,,
,0.27,,,,,,,,,f,blue,58a477c660cd820001e9a5d6,2021-09-27_17h20.36.887,forced_choiceRT_color,2021.2.3,Win32,29.86501015,,,,,,,,10,Ontime,long,f,1,1.9241,9,1,37,1,1,,,,,
,0.27,,,,,,,,,k,purple,58a477c660cd820001e9a5d6,2021-09-27_17h20.36.887,forced_choiceRT_color,2021.2.3,Win32,29.86501015,,,,,,,,10,Ontime,long,k,1,1.9277,9,2,38,3,1,,,,,
,1.41,,,,,,,,,k,purple,58a477c660cd820001e9a5d6,2021-09-27_17h20.36.887,forced_choiceRT_color,2021.2.3,Win32,29.86501015,,,,,,,,10,Ontime,long,k,1,2.0122,9,3,39,3,1,,,,,
,,,,,,,,,,,,58a477c660cd820001e9a5d6,2021-09-27_17h20.36.887,forced_choiceRT_color,2021.2.3,Win32,29.86501015,,,,,,,,,,,,,,,,,,,9,0,9,0,1
