IP_Addresss,target_onset,trial_resp_sp.keys,trial_resp_sp.corr,trial_resp_sp.rt,trials_train_loop.thisRepN,trials_train_loop.thisTrialN,trials_train_loop.thisN,trials_train_loop.thisIndex,trials_train_loop.ran,correct_key,color,participant,date,expName,psychopyVersion,OS,frameRate,trial_resp_timing.keys,trial_resp_timing.rt,trials_train_timing.thisRepN,trials_train_timing.thisTrialN,trials_train_timing.thisN,trials_train_timing.thisIndex,trials_train_timing.ran,block_id,ontime,feedback_cond,forcedRT_resp.keys,forcedRT_resp.corr,forcedRT_resp.rt,trials.thisRepN,trials.thisTrialN,trials.thisN,trials.thisIndex,trials.ran,blocks.thisRepN,blocks.thisTrialN,blocks.thisN,blocks.thisIndex,blocks.ran
73.177.197.55,0,d,1,7.307,0,0,0,0,1,d,orange,58fd1e751178370001dd35bb,2021-09-27_17h06.33.301,forced_choiceRT_color,2021.2.3,Win32,20.00080003,,,,,,,,,,,,,,,,,,,,,,,
,0,k,1,1.674,0,1,1,3,1,k,purple,58fd1e751178370001dd35bb,2021-09-27_17h06.33.301,forced_choiceRT_color,2021.2.3,Win32,20.00080003,,,,,,,,,,,,,,,,,,,,,,,
,0,f,1,1.659,0,2,2,1,1,f,blue,58fd1e751178370001dd35bb,2021-09-27_17h06.33.301,forced_choiceRT_color,2021.2.3,Win32,20.00080003,,,,,,,,,,,,,,,,,,,,,,,
,0,j,1,1.589,0,3,3,2,1,j,red,58fd1e751178370001dd35bb,2021-09-27_17h06.33.301,forced_choiceRT_color,2021.2.3,Win32,20.00080003,,,,,,,,,,,,,,,,,,,,,,,
,0,d,1,2.942,1,0,4,0,1,d,orange,58fd1e751178370001dd35bb,2021-09-27_17h06.33.301,forced_choiceRT_color,2021.2.3,Win32,20.00080003,,,,,,,,,,,,,,,,,,,,,,,
,0,f,0,1.571,1,1,5,2,1,j,red,58fd1e751178370001dd35bb,2021-09-27_17h06.33.301,forced_choiceRT_color,2021.2.3,Win32,20.00080003,,,,,,,,,,,,,,,,,,,,,,,
,0,k,1,1.666,1,2,6,3,1,k,purple,58fd1e751178370001dd35bb,2021-09-27_17h06.33.301,forced_choiceRT_color,2021.2.3,Win32,20.00080003,,,,,,,,,,,,,,,,,,,,,,,
,0,f,1,1.575,1,3,7,1,1,f,blue,58fd1e751178370001dd35bb,2021-09-27_17h06.33.301,forced_choiceRT_color,2021.2.3,Win32,20.00080003,,,,,,,,,,,,,,,,,,,,,,,
,0,f,1,1.125,2,0,8,1,1,f,blue,58fd1e751178370001dd35bb,2021-09-27_17h06.33.301,forced_choiceRT_color,2021.2.3,Win32,20.00080003,,,,,,,,,,,,,,,,,,,,,,,
,0,d,1,1.213,2,1,9,0,1,d,orange,58fd1e751178370001dd35bb,2021-09-27_17h06.33.301,forced_choiceRT_color,2021.2.3,Win32,20.00080003,,,,,,,,,,,,,,,,,,,,,,,
,0,f,0,0.848,2,2,10,3,1,k,purple,58fd1e751178370001dd35bb,2021-09-27_17h06.33.301,forced_choiceRT_color,2021.2.3,Win32,20.00080003,,,,,,,,,,,,,,,,,,,,,,,
,0,k,1,5.909,2,3,11,3,1,k,purple,58fd1e751178370001dd35bb,2021-09-27_17h06.33.301,forced_choiceRT_color,2021.2.3,Win32,20.00080003,,,,,,,,,,,,,,,,,,,,,,,
,0,k,1,0.953,3,0,12,3,1,k,purple,58fd1e751178370001dd35bb,2021-09-27_17h06.33.301,forced_choiceRT_color,2021.2.3,Win32,20.00080003,,,,,,,,,,,,,,,,,,,,,,,
,0,d,1,1.723,3,1,13,0,1,d,orange,58fd1e751178370001dd35bb,2021-09-27_17h06.33.301,forced_choiceRT_color,2021.2.3,Win32,20.00080003,,,,,,,,,,,,,,,,,,,,,,,
,0,d,1,0.868,3,2,14,0,1,d,orange,58fd1e751178370001dd35bb,2021-09-27_17h06.33.301,forced_choiceRT_color,2021.2.3,Win32,20.00080003,,,,,,,,,,,,,,,,,,,,,,,
,0,d,1,0.859,3,3,15,0,1,d,orange,58fd1e751178370001dd35bb,2021-09-27_17h06.33.301,forced_choiceRT_color,2021.2.3,Win32,20.00080003,,,,,,,,,,,,,,,,,,,,,,,
,0,j,1,1.545,4,0,16,2,1,j,red,58fd1e751178370001dd35bb,2021-09-27_17h06.33.301,forced_choiceRT_color,2021.2.3,Win32,20.00080003,,,,,,,,,,,,,,,,,,,,,,,
,0,j,1,0.866,4,1,17,2,1,j,red,58fd1e751178370001dd35bb,2021-09-27_17h06.33.301,forced_choiceRT_color,2021.2.3,Win32,20.00080003,,,,,,,,,,,,,,,,,,,,,,,
,0,j,1,0.76,4,2,18,2,1,j,red,58fd1e751178370001dd35bb,2021-09-27_17h06.33.301,forced_choiceRT_color,2021.2.3,Win32,20.00080003,,,,,,,,,,,,,,,,,,,,,,,
,0,k,1,2.379,4,3,19,3,1,k,purple,58fd1e751178370001dd35bb,2021-09-27_17h06.33.301,forced_choiceRT_color,2021.2.3,Win32,20.00080003,,,,,,,,,,,,,,,,,,,,,,,
,0,f,1,1.568,5,0,20,1,1,f,blue,58fd1e751178370001dd35bb,2021-09-27_17h06.33.301,forced_choiceRT_color,2021.2.3,Win32,20.00080003,,,,,,,,,,,,,,,,,,,,,,,
,0,j,1,1.486,5,1,21,2,1,j,red,58fd1e751178370001dd35bb,2021-09-27_17h06.33.301,forced_choiceRT_color,2021.2.3,Win32,20.00080003,,,,,,,,,,,,,,,,,,,,,,,
,0,f,1,1.474,5,2,22,1,1,f,blue,58fd1e751178370001dd35bb,2021-09-27_17h06.33.301,forced_choiceRT_color,2021.2.3,Win32,20.00080003,,,,,,,,,,,,,,,,,,,,,,,
,0,d,1,1.105,5,3,23,0,1,d,orange,58fd1e751178370001dd35bb,2021-09-27_17h06.33.301,forced_choiceRT_color,2021.2.3,Win32,20.00080003,,,,,,,,,,,,,,,,,,,,,,,
,0,f,1,1.119,6,0,24,1,1,f,blue,58fd1e751178370001dd35bb,2021-09-27_17h06.33.301,forced_choiceRT_color,2021.2.3,Win32,20.00080003,,,,,,,,,,,,,,,,,,,,,,,
,0,j,1,0.756,6,1,25,2,1,j,red,58fd1e751178370001dd35bb,2021-09-27_17h06.33.301,forced_choiceRT_color,2021.2.3,Win32,20.00080003,,,,,,,,,,,,,,,,,,,,,,,
,0,k,1,1.516,6,2,26,3,1,k,purple,58fd1e751178370001dd35bb,2021-09-27_17h06.33.301,forced_choiceRT_color,2021.2.3,Win32,20.00080003,,,,,,,,,,,,,,,,,,,,,,,
,0,j,1,1.66,6,3,27,2,1,j,red,58fd1e751178370001dd35bb,2021-09-27_17h06.33.301,forced_choiceRT_color,2021.2.3,Win32,20.00080003,,,,,,,,,,,,,,,,,,,,,,,
,0,j,1,1.022,7,0,28,2,1,j,red,58fd1e751178370001dd35bb,2021-09-27_17h06.33.301,forced_choiceRT_color,2021.2.3,Win32,20.00080003,,,,,,,,,,,,,,,,,,,,,,,
,0,k,1,0.941,7,1,29,3,1,k,purple,58fd1e751178370001dd35bb,2021-09-27_17h06.33.301,forced_choiceRT_color,2021.2.3,Win32,20.00080003,,,,,,,,,,,,,,,,,,,,,,,
,0,f,1,0.928,7,2,30,1,1,f,blue,58fd1e751178370001dd35bb,2021-09-27_17h06.33.301,forced_choiceRT_color,2021.2.3,Win32,20.00080003,,,,,,,,,,,,,,,,,,,,,,,
,0,d,1,0.84,7,3,31,0,1,d,orange,58fd1e751178370001dd35bb,2021-09-27_17h06.33.301,forced_choiceRT_color,2021.2.3,Win32,20.00080003,,,,,,,,,,,,,,,,,,,,,,,
,0,f,1,0.858,8,0,32,1,1,f,blue,58fd1e751178370001dd35bb,2021-09-27_17h06.33.301,forced_choiceRT_color,2021.2.3,Win32,20.00080003,,,,,,,,,,,,,,,,,,,,,,,
,0,k,1,1.026,8,1,33,3,1,k,purple,58fd1e751178370001dd35bb,2021-09-27_17h06.33.301,forced_choiceRT_color,2021.2.3,Win32,20.00080003,,,,,,,,,,,,,,,,,,,,,,,
,0,j,1,0.943,8,2,34,2,1,j,red,58fd1e751178370001dd35bb,2021-09-27_17h06.33.301,forced_choiceRT_color,2021.2.3,Win32,20.00080003,,,,,,,,,,,,,,,,,,,,,,,
,0,k,1,1.014,8,3,35,3,1,k,purple,58fd1e751178370001dd35bb,2021-09-27_17h06.33.301,forced_choiceRT_color,2021.2.3,Win32,20.00080003,,,,,,,,,,,,,,,,,,,,,,,
,0,d,1,0.854,9,0,36,0,1,d,orange,58fd1e751178370001dd35bb,2021-09-27_17h06.33.301,forced_choiceRT_color,2021.2.3,Win32,20.00080003,,,,,,,,,,,,,,,,,,,,,,,
,0,j,1,1.11,9,1,37,2,1,j,red,58fd1e751178370001dd35bb,2021-09-27_17h06.33.301,forced_choiceRT_color,2021.2.3,Win32,20.00080003,,,,,,,,,,,,,,,,,,,,,,,
,0,k,1,0.75,9,2,38,3,1,k,purple,58fd1e751178370001dd35bb,2021-09-27_17h06.33.301,forced_choiceRT_color,2021.2.3,Win32,20.00080003,,,,,,,,,,,,,,,,,,,,,,,
,0,f,1,0.937,9,3,39,1,1,f,blue,58fd1e751178370001dd35bb,2021-09-27_17h06.33.301,forced_choiceRT_color,2021.2.3,Win32,20.00080003,,,,,,,,,,,,,,,,,,,,,,,
,0,j,1,1.105,10,0,40,2,1,j,red,58fd1e751178370001dd35bb,2021-09-27_17h06.33.301,forced_choiceRT_color,2021.2.3,Win32,20.00080003,,,,,,,,,,,,,,,,,,,,,,,
,0,d,1,0.937,10,1,41,0,1,d,orange,58fd1e751178370001dd35bb,2021-09-27_17h06.33.301,forced_choiceRT_color,2021.2.3,Win32,20.00080003,,,,,,,,,,,,,,,,,,,,,,,
,0,d,1,0.753,10,2,42,0,1,d,orange,58fd1e751178370001dd35bb,2021-09-27_17h06.33.301,forced_choiceRT_color,2021.2.3,Win32,20.00080003,,,,,,,,,,,,,,,,,,,,,,,
,0,j,1,1.39,10,3,43,2,1,j,red,58fd1e751178370001dd35bb,2021-09-27_17h06.33.301,forced_choiceRT_color,2021.2.3,Win32,20.00080003,,,,,,,,,,,,,,,,,,,,,,,
,0,k,0,1.369,11,0,44,1,1,f,blue,58fd1e751178370001dd35bb,2021-09-27_17h06.33.301,forced_choiceRT_color,2021.2.3,Win32,20.00080003,,,,,,,,,,,,,,,,,,,,,,,
,0,k,1,0.842,11,1,45,3,1,k,purple,58fd1e751178370001dd35bb,2021-09-27_17h06.33.301,forced_choiceRT_color,2021.2.3,Win32,20.00080003,,,,,,,,,,,,,,,,,,,,,,,
,0,f,1,0.84,11,2,46,1,1,f,blue,58fd1e751178370001dd35bb,2021-09-27_17h06.33.301,forced_choiceRT_color,2021.2.3,Win32,20.00080003,,,,,,,,,,,,,,,,,,,,,,,
,0,j,1,0.957,11,3,47,2,1,j,red,58fd1e751178370001dd35bb,2021-09-27_17h06.33.301,forced_choiceRT_color,2021.2.3,Win32,20.00080003,,,,,,,,,,,,,,,,,,,,,,,
,0,f,1,0.937,12,0,48,1,1,f,blue,58fd1e751178370001dd35bb,2021-09-27_17h06.33.301,forced_choiceRT_color,2021.2.3,Win32,20.00080003,,,,,,,,,,,,,,,,,,,,,,,
,0,d,1,0.834,12,1,49,0,1,d,orange,58fd1e751178370001dd35bb,2021-09-27_17h06.33.301,forced_choiceRT_color,2021.2.3,Win32,20.00080003,,,,,,,,,,,,,,,,,,,,,,,
,0,j,1,1.209,12,2,50,2,1,j,red,58fd1e751178370001dd35bb,2021-09-27_17h06.33.301,forced_choiceRT_color,2021.2.3,Win32,20.00080003,,,,,,,,,,,,,,,,,,,,,,,
,0,f,1,1.11,12,3,51,1,1,f,blue,58fd1e751178370001dd35bb,2021-09-27_17h06.33.301,forced_choiceRT_color,2021.2.3,Win32,20.00080003,,,,,,,,,,,,,,,,,,,,,,,
,0,d,1,1.071,13,0,52,0,1,d,orange,58fd1e751178370001dd35bb,2021-09-27_17h06.33.301,forced_choiceRT_color,2021.2.3,Win32,20.00080003,,,,,,,,,,,,,,,,,,,,,,,
,0,d,1,1.02,13,1,53,0,1,d,orange,58fd1e751178370001dd35bb,2021-09-27_17h06.33.301,forced_choiceRT_color,2021.2.3,Win32,20.00080003,,,,,,,,,,,,,,,,,,,,,,,
,0,k,1,1.909,13,2,54,3,1,k,purple,58fd1e751178370001dd35bb,2021-09-27_17h06.33.301,forced_choiceRT_color,2021.2.3,Win32,20.00080003,,,,,,,,,,,,,,,,,,,,,,,
,0,k,1,0.871,13,3,55,3,1,k,purple,58fd1e751178370001dd35bb,2021-09-27_17h06.33.301,forced_choiceRT_color,2021.2.3,Win32,20.00080003,,,,,,,,,,,,,,,,,,,,,,,
,0,f,1,1.502,14,0,56,1,1,f,blue,58fd1e751178370001dd35bb,2021-09-27_17h06.33.301,forced_choiceRT_color,2021.2.3,Win32,20.00080003,,,,,,,,,,,,,,,,,,,,,,,
,0,f,1,0.848,14,1,57,1,1,f,blue,58fd1e751178370001dd35bb,2021-09-27_17h06.33.301,forced_choiceRT_color,2021.2.3,Win32,20.00080003,,,,,,,,,,,,,,,,,,,,,,,
,0,k,1,0.855,14,2,58,3,1,k,purple,58fd1e751178370001dd35bb,2021-09-27_17h06.33.301,forced_choiceRT_color,2021.2.3,Win32,20.00080003,,,,,,,,,,,,,,,,,,,,,,,
,0,d,1,0.859,14,3,59,0,1,d,orange,58fd1e751178370001dd35bb,2021-09-27_17h06.33.301,forced_choiceRT_color,2021.2.3,Win32,20.00080003,,,,,,,,,,,,,,,,,,,,,,,
,,,,,,,,,,,,58fd1e751178370001dd35bb,2021-09-27_17h06.33.301,forced_choiceRT_color,2021.2.3,Win32,20.00080003,j,5.268,0,0,0,0,1,,,,,,,,,,,,,,,,
,,,,,,,,,,,,58fd1e751178370001dd35bb,2021-09-27_17h06.33.301,forced_choiceRT_color,2021.2.3,Win32,20.00080003,k,1.522,1,0,1,0,1,,,,,,,,,,,,,,,,
,,,,,,,,,,,,58fd1e751178370001dd35bb,2021-09-27_17h06.33.301,forced_choiceRT_color,2021.2.3,Win32,20.00080003,j,3.177,2,0,2,0,1,,,,,,,,,,,,,,,,
,,,,,,,,,,,,58fd1e751178370001dd35bb,2021-09-27_17h06.33.301,forced_choiceRT_color,2021.2.3,Win32,20.00080003,k,1.912,3,0,3,0,1,,,,,,,,,,,,,,,,
,,,,,,,,,,,,58fd1e751178370001dd35bb,2021-09-27_17h06.33.301,forced_choiceRT_color,2021.2.3,Win32,20.00080003,k,2.118,4,0,4,0,1,,,,,,,,,,,,,,,,
,,,,,,,,,,,,58fd1e751178370001dd35bb,2021-09-27_17h06.33.301,forced_choiceRT_color,2021.2.3,Win32,20.00080003,k,2.047,5,0,5,0,1,,,,,,,,,,,,,,,,
,,,,,,,,,,,,58fd1e751178370001dd35bb,2021-09-27_17h06.33.301,forced_choiceRT_color,2021.2.3,Win32,20.00080003,k,2.22,6,0,6,0,1,,,,,,,,,,,,,,,,
,,,,,,,,,,,,58fd1e751178370001dd35bb,2021-09-27_17h06.33.301,forced_choiceRT_color,2021.2.3,Win32,20.00080003,k,1.953,7,0,7,0,1,,,,,,,,,,,,,,,,
,,,,,,,,,,,,58fd1e751178370001dd35bb,2021-09-27_17h06.33.301,forced_choiceRT_color,2021.2.3,Win32,20.00080003,k,2.05,8,0,8,0,1,,,,,,,,,,,,,,,,
,,,,,,,,,,,,58fd1e751178370001dd35bb,2021-09-27_17h06.33.301,forced_choiceRT_color,2021.2.3,Win32,20.00080003,k,2.032,9,0,9,0,1,,,,,,,,,,,,,,,,
,,,,,,,,,,,,58fd1e751178370001dd35bb,2021-09-27_17h06.33.301,forced_choiceRT_color,2021.2.3,Win32,20.00080003,k,1.993,10,0,10,0,1,,,,,,,,,,,,,,,,
,,,,,,,,,,,,58fd1e751178370001dd35bb,2021-09-27_17h06.33.301,forced_choiceRT_color,2021.2.3,Win32,20.00080003,k,2.035,11,0,11,0,1,,,,,,,,,,,,,,,,
,,,,,,,,,,,,58fd1e751178370001dd35bb,2021-09-27_17h06.33.301,forced_choiceRT_color,2021.2.3,Win32,20.00080003,j,2.241,12,0,12,0,1,,,,,,,,,,,,,,,,
,,,,,,,,,,,,58fd1e751178370001dd35bb,2021-09-27_17h06.33.301,forced_choiceRT_color,2021.2.3,Win32,20.00080003,j,1.966,13,0,13,0,1,,,,,,,,,,,,,,,,
,,,,,,,,,,,,58fd1e751178370001dd35bb,2021-09-27_17h06.33.301,forced_choiceRT_color,2021.2.3,Win32,20.00080003,j,1.897,14,0,14,0,1,,,,,,,,,,,,,,,,
,,,,,,,,,,,,58fd1e751178370001dd35bb,2021-09-27_17h06.33.301,forced_choiceRT_color,2021.2.3,Win32,20.00080003,j,2.02,15,0,15,0,1,,,,,,,,,,,,,,,,
,,,,,,,,,,,,58fd1e751178370001dd35bb,2021-09-27_17h06.33.301,forced_choiceRT_color,2021.2.3,Win32,20.00080003,j,1.983,16,0,16,0,1,,,,,,,,,,,,,,,,
,,,,,,,,,,,,58fd1e751178370001dd35bb,2021-09-27_17h06.33.301,forced_choiceRT_color,2021.2.3,Win32,20.00080003,j,1.996,17,0,17,0,1,,,,,,,,,,,,,,,,
,,,,,,,,,,,,58fd1e751178370001dd35bb,2021-09-27_17h06.33.301,forced_choiceRT_color,2021.2.3,Win32,20.00080003,j,2.148,18,0,18,0,1,,,,,,,,,,,,,,,,
,,,,,,,,,,,,58fd1e751178370001dd35bb,2021-09-27_17h06.33.301,forced_choiceRT_color,2021.2.3,Win32,20.00080003,j,2.006,19,0,19,0,1,,,,,,,,,,,,,,,,
,1.88,,,,,,,,,f,blue,58fd1e751178370001dd35bb,2021-09-27_17h06.33.301,forced_choiceRT_color,2021.2.3,Win32,20.00080003,,,,,,,,1,Ontime,short,j,0,1.939,0,0,0,1,1,,,,,
,0.3,,,,,,,,,d,orange,58fd1e751178370001dd35bb,2021-09-27_17h06.33.301,forced_choiceRT_color,2021.2.3,Win32,20.00080003,,,,,,,,1,Ontime,short,f,0,2.014,0,1,1,0,1,,,,,
,1.37,,,,,,,,,k,purple,58fd1e751178370001dd35bb,2021-09-27_17h06.33.301,forced_choiceRT_color,2021.2.3,Win32,20.00080003,,,,,,,,1,Slow,short,k,1,2.176,0,2,2,3,1,,,,,
,1.55,,,,,,,,,j,red,58fd1e751178370001dd35bb,2021-09-27_17h06.33.301,forced_choiceRT_color,2021.2.3,Win32,20.00080003,,,,,,,,1,Ontime,short,k,0,2.089,0,3,3,2,1,,,,,
,1.55,,,,,,,,,d,orange,58fd1e751178370001dd35bb,2021-09-27_17h06.33.301,forced_choiceRT_color,2021.2.3,Win32,20.00080003,,,,,,,,1,Ontime,short,j,0,2.027,1,0,4,0,1,,,,,
,1.78,,,,,,,,,k,purple,58fd1e751178370001dd35bb,2021-09-27_17h06.33.301,forced_choiceRT_color,2021.2.3,Win32,20.00080003,,,,,,,,1,Ontime,short,k,1,1.958,1,1,5,3,1,,,,,
,1.21,,,,,,,,,d,orange,58fd1e751178370001dd35bb,2021-09-27_17h06.33.301,forced_choiceRT_color,2021.2.3,Win32,20.00080003,,,,,,,,1,Ontime,short,d,1,2.026,1,2,6,0,1,,,,,
,1.37,,,,,,,,,k,purple,58fd1e751178370001dd35bb,2021-09-27_17h06.33.301,forced_choiceRT_color,2021.2.3,Win32,20.00080003,,,,,,,,1,Fast,short,k,1,1.82,1,3,7,3,1,,,,,
,0.2,,,,,,,,,k,purple,58fd1e751178370001dd35bb,2021-09-27_17h06.33.301,forced_choiceRT_color,2021.2.3,Win32,20.00080003,,,,,,,,1,Fast,short,k,1,1.552,2,0,8,3,1,,,,,
,1.24,,,,,,,,,f,blue,58fd1e751178370001dd35bb,2021-09-27_17h06.33.301,forced_choiceRT_color,2021.2.3,Win32,20.00080003,,,,,,,,1,Slow,short,f,1,2.229,2,1,9,1,1,,,,,
,0.59,,,,,,,,,f,blue,58fd1e751178370001dd35bb,2021-09-27_17h06.33.301,forced_choiceRT_color,2021.2.3,Win32,20.00080003,,,,,,,,1,Fast,short,f,1,1.293,2,2,10,1,1,,,,,
,0.86,,,,,,,,,d,orange,58fd1e751178370001dd35bb,2021-09-27_17h06.33.301,forced_choiceRT_color,2021.2.3,Win32,20.00080003,,,,,,,,1,Fast,short,d,1,1.797,2,3,11,0,1,,,,,
,0.73,,,,,,,,,j,red,58fd1e751178370001dd35bb,2021-09-27_17h06.33.301,forced_choiceRT_color,2021.2.3,Win32,20.00080003,,,,,,,,1,Slow,short,k,0,2.158,3,0,12,2,1,,,,,
,0.56,,,,,,,,,f,blue,58fd1e751178370001dd35bb,2021-09-27_17h06.33.301,forced_choiceRT_color,2021.2.3,Win32,20.00080003,,,,,,,,1,Ontime,short,d,0,2.074,3,1,13,1,1,,,,,
,1.56,,,,,,,,,f,blue,58fd1e751178370001dd35bb,2021-09-27_17h06.33.301,forced_choiceRT_color,2021.2.3,Win32,20.00080003,,,,,,,,1,Slow,short,f,1,2.558,3,2,14,1,1,,,,,
,1.83,,,,,,,,,f,blue,58fd1e751178370001dd35bb,2021-09-27_17h06.33.301,forced_choiceRT_color,2021.2.3,Win32,20.00080003,,,,,,,,1,Slow,short,f,1,3.109,3,3,15,1,1,,,,,
,0.91,,,,,,,,,f,blue,58fd1e751178370001dd35bb,2021-09-27_17h06.33.301,forced_choiceRT_color,2021.2.3,Win32,20.00080003,,,,,,,,1,Fast,short,f,1,1.65,4,0,16,1,1,,,,,
,0.83,,,,,,,,,k,purple,58fd1e751178370001dd35bb,2021-09-27_17h06.33.301,forced_choiceRT_color,2021.2.3,Win32,20.00080003,,,,,,,,1,Fast,short,k,1,1.706,4,1,17,3,1,,,,,
,0.35,,,,,,,,,d,orange,58fd1e751178370001dd35bb,2021-09-27_17h06.33.301,forced_choiceRT_color,2021.2.3,Win32,20.00080003,,,,,,,,1,Fast,short,d,1,1.581,4,2,18,0,1,,,,,
,0.3,,,,,,,,,j,red,58fd1e751178370001dd35bb,2021-09-27_17h06.33.301,forced_choiceRT_color,2021.2.3,Win32,20.00080003,,,,,,,,1,Slow,short,j,1,2.201,4,3,19,2,1,,,,,
,0.11,,,,,,,,,k,purple,58fd1e751178370001dd35bb,2021-09-27_17h06.33.301,forced_choiceRT_color,2021.2.3,Win32,20.00080003,,,,,,,,1,Ontime,short,k,1,1.975,5,0,20,3,1,,,,,
,1.72,,,,,,,,,j,red,58fd1e751178370001dd35bb,2021-09-27_17h06.33.301,forced_choiceRT_color,2021.2.3,Win32,20.00080003,,,,,,,,1,Ontime,short,f,0,2.099,5,1,21,2,1,,,,,
,0.73,,,,,,,,,k,purple,58fd1e751178370001dd35bb,2021-09-27_17h06.33.301,forced_choiceRT_color,2021.2.3,Win32,20.00080003,,,,,,,,1,Fast,short,f,0,0.052,5,2,22,3,1,,,,,
,0.11,,,,,,,,,k,purple,58fd1e751178370001dd35bb,2021-09-27_17h06.33.301,forced_choiceRT_color,2021.2.3,Win32,20.00080003,,,,,,,,1,Fast,short,k,1,1.796,5,3,23,3,1,,,,,
,1.02,,,,,,,,,d,orange,58fd1e751178370001dd35bb,2021-09-27_17h06.33.301,forced_choiceRT_color,2021.2.3,Win32,20.00080003,,,,,,,,1,Slow,short,f,0,2.208,6,0,24,0,1,,,,,
,0.64,,,,,,,,,k,purple,58fd1e751178370001dd35bb,2021-09-27_17h06.33.301,forced_choiceRT_color,2021.2.3,Win32,20.00080003,,,,,,,,1,Ontime,short,k,1,2.047,6,1,25,3,1,,,,,
,0.84,,,,,,,,,j,red,58fd1e751178370001dd35bb,2021-09-27_17h06.33.301,forced_choiceRT_color,2021.2.3,Win32,20.00080003,,,,,,,,1,Ontime,short,j,1,2.099,6,2,26,2,1,,,,,
,0.92,,,,,,,,,j,red,58fd1e751178370001dd35bb,2021-09-27_17h06.33.301,forced_choiceRT_color,2021.2.3,Win32,20.00080003,,,,,,,,1,Slow,short,j,1,2.213,6,3,27,2,1,,,,,
,1.71,,,,,,,,,f,blue,58fd1e751178370001dd35bb,2021-09-27_17h06.33.301,forced_choiceRT_color,2021.2.3,Win32,20.00080003,,,,,,,,1,Slow,short,d,0,3.863,7,0,28,1,1,,,,,
,0.5,,,,,,,,,d,orange,58fd1e751178370001dd35bb,2021-09-27_17h06.33.301,forced_choiceRT_color,2021.2.3,Win32,20.00080003,,,,,,,,1,Slow,short,f,0,2.254,7,1,29,0,1,,,,,
,1.08,,,,,,,,,f,blue,58fd1e751178370001dd35bb,2021-09-27_17h06.33.301,forced_choiceRT_color,2021.2.3,Win32,20.00080003,,,,,,,,1,Slow,short,d,0,2.379,7,2,30,1,1,,,,,
,0.6,,,,,,,,,j,red,58fd1e751178370001dd35bb,2021-09-27_17h06.33.301,forced_choiceRT_color,2021.2.3,Win32,20.00080003,,,,,,,,1,Ontime,short,j,1,2.08,7,3,31,2,1,,,,,
,1.64,,,,,,,,,d,orange,58fd1e751178370001dd35bb,2021-09-27_17h06.33.301,forced_choiceRT_color,2021.2.3,Win32,20.00080003,,,,,,,,1,Slow,short,d,1,2.494,8,0,32,0,1,,,,,
,0.04,,,,,,,,,j,red,58fd1e751178370001dd35bb,2021-09-27_17h06.33.301,forced_choiceRT_color,2021.2.3,Win32,20.00080003,,,,,,,,1,Ontime,short,f,0,2.076,8,1,33,2,1,,,,,
,1.4,,,,,,,,,j,red,58fd1e751178370001dd35bb,2021-09-27_17h06.33.301,forced_choiceRT_color,2021.2.3,Win32,20.00080003,,,,,,,,1,Fast,short,f,0,0.115,8,2,34,2,1,,,,,
,0.42,,,,,,,,,d,orange,58fd1e751178370001dd35bb,2021-09-27_17h06.33.301,forced_choiceRT_color,2021.2.3,Win32,20.00080003,,,,,,,,1,Ontime,short,d,1,2.05,8,3,35,0,1,,,,,
,1.39,,,,,,,,,d,orange,58fd1e751178370001dd35bb,2021-09-27_17h06.33.301,forced_choiceRT_color,2021.2.3,Win32,20.00080003,,,,,,,,1,Slow,short,d,1,2.179,9,0,36,0,1,,,,,
,1.47,,,,,,,,,j,red,58fd1e751178370001dd35bb,2021-09-27_17h06.33.301,forced_choiceRT_color,2021.2.3,Win32,20.00080003,,,,,,,,1,Slow,short,k,0,2.181,9,1,37,2,1,,,,,
,1.2,,,,,,,,,k,purple,58fd1e751178370001dd35bb,2021-09-27_17h06.33.301,forced_choiceRT_color,2021.2.3,Win32,20.00080003,,,,,,,,1,Fast,short,j,0,1.768,9,2,38,3,1,,,,,
,0.35,,,,,,,,,f,blue,58fd1e751178370001dd35bb,2021-09-27_17h06.33.301,forced_choiceRT_color,2021.2.3,Win32,20.00080003,,,,,,,,1,Slow,short,f,1,3.335,9,3,39,1,1,,,,,
,,,,,,,,,,,,58fd1e751178370001dd35bb,2021-09-27_17h06.33.301,forced_choiceRT_color,2021.2.3,Win32,20.00080003,,,,,,,,,,,,,,,,,,,0,0,0,0,1
,0.28,,,,,,,,,k,purple,58fd1e751178370001dd35bb,2021-09-27_17h06.33.301,forced_choiceRT_color,2021.2.3,Win32,20.00080003,,,,,,,,2,Slow,short,k,1,2.393,0,0,0,3,1,,,,,
,0.05,,,,,,,,,k,purple,58fd1e751178370001dd35bb,2021-09-27_17h06.33.301,forced_choiceRT_color,2021.2.3,Win32,20.00080003,,,,,,,,2,Ontime,short,k,1,2.084,0,1,1,3,1,,,,,
,1.56,,,,,,,,,j,red,58fd1e751178370001dd35bb,2021-09-27_17h06.33.301,forced_choiceRT_color,2021.2.3,Win32,20.00080003,,,,,,,,2,Slow,short,j,1,2.633,0,2,2,2,1,,,,,
,0.85,,,,,,,,,f,blue,58fd1e751178370001dd35bb,2021-09-27_17h06.33.301,forced_choiceRT_color,2021.2.3,Win32,20.00080003,,,,,,,,2,Fast,short,f,1,1.785,0,3,3,1,1,,,,,
,0.65,,,,,,,,,j,red,58fd1e751178370001dd35bb,2021-09-27_17h06.33.301,forced_choiceRT_color,2021.2.3,Win32,20.00080003,,,,,,,,2,Fast,short,k,0,1.831,1,0,4,2,1,,,,,
,0.15,,,,,,,,,f,blue,58fd1e751178370001dd35bb,2021-09-27_17h06.33.301,forced_choiceRT_color,2021.2.3,Win32,20.00080003,,,,,,,,2,Fast,short,f,1,1.428,1,1,5,1,1,,,,,
,0.99,,,,,,,,,j,red,58fd1e751178370001dd35bb,2021-09-27_17h06.33.301,forced_choiceRT_color,2021.2.3,Win32,20.00080003,,,,,,,,2,Slow,short,j,1,2.161,1,2,6,2,1,,,,,
,1.96,,,,,,,,,d,orange,58fd1e751178370001dd35bb,2021-09-27_17h06.33.301,forced_choiceRT_color,2021.2.3,Win32,20.00080003,,,,,,,,2,Slow,short,j,0,2.463,1,3,7,0,1,,,,,
,1.5,,,,,,,,,d,orange,58fd1e751178370001dd35bb,2021-09-27_17h06.33.301,forced_choiceRT_color,2021.2.3,Win32,20.00080003,,,,,,,,2,Slow,short,d,1,2.484,2,0,8,0,1,,,,,
,1.88,,,,,,,,,j,red,58fd1e751178370001dd35bb,2021-09-27_17h06.33.301,forced_choiceRT_color,2021.2.3,Win32,20.00080003,,,,,,,,2,Slow,short,j,1,2.941,2,1,9,2,1,,,,,
,0.87,,,,,,,,,d,orange,58fd1e751178370001dd35bb,2021-09-27_17h06.33.301,forced_choiceRT_color,2021.2.3,Win32,20.00080003,,,,,,,,2,Slow,short,d,1,3.366,2,2,10,0,1,,,,,
,0.72,,,,,,,,,f,blue,58fd1e751178370001dd35bb,2021-09-27_17h06.33.301,forced_choiceRT_color,2021.2.3,Win32,20.00080003,,,,,,,,2,Fast,short,f,1,1.763,2,3,11,1,1,,,,,
,1.67,,,,,,,,,k,purple,58fd1e751178370001dd35bb,2021-09-27_17h06.33.301,forced_choiceRT_color,2021.2.3,Win32,20.00080003,,,,,,,,2,Slow,short,k,1,2.484,3,0,12,3,1,,,,,
,0.16,,,,,,,,,j,red,58fd1e751178370001dd35bb,2021-09-27_17h06.33.301,forced_choiceRT_color,2021.2.3,Win32,20.00080003,,,,,,,,2,Ontime,short,j,1,1.984,3,1,13,2,1,,,,,
,0.41,,,,,,,,,f,blue,58fd1e751178370001dd35bb,2021-09-27_17h06.33.301,forced_choiceRT_color,2021.2.3,Win32,20.00080003,,,,,,,,2,Slow,short,d,0,2.279,3,2,14,1,1,,,,,
,0.72,,,,,,,,,f,blue,58fd1e751178370001dd35bb,2021-09-27_17h06.33.301,forced_choiceRT_color,2021.2.3,Win32,20.00080003,,,,,,,,2,Slow,short,f,1,2.177,3,3,15,1,1,,,,,
,1.59,,,,,,,,,k,purple,58fd1e751178370001dd35bb,2021-09-27_17h06.33.301,forced_choiceRT_color,2021.2.3,Win32,20.00080003,,,,,,,,2,Slow,short,k,1,2.198,4,0,16,3,1,,,,,
,1.58,,,,,,,,,k,purple,58fd1e751178370001dd35bb,2021-09-27_17h06.33.301,forced_choiceRT_color,2021.2.3,Win32,20.00080003,,,,,,,,2,Ontime,short,k,1,2.087,4,1,17,3,1,,,,,
,1.1,,,,,,,,,d,orange,58fd1e751178370001dd35bb,2021-09-27_17h06.33.301,forced_choiceRT_color,2021.2.3,Win32,20.00080003,,,,,,,,2,Slow,short,d,1,2.202,4,2,18,0,1,,,,,
,1.42,,,,,,,,,d,orange,58fd1e751178370001dd35bb,2021-09-27_17h06.33.301,forced_choiceRT_color,2021.2.3,Win32,20.00080003,,,,,,,,2,Fast,short,d,1,1.858,4,3,19,0,1,,,,,
,0.78,,,,,,,,,d,orange,58fd1e751178370001dd35bb,2021-09-27_17h06.33.301,forced_choiceRT_color,2021.2.3,Win32,20.00080003,,,,,,,,2,Fast,short,d,1,1.726,5,0,20,0,1,,,,,
,0.52,,,,,,,,,j,red,58fd1e751178370001dd35bb,2021-09-27_17h06.33.301,forced_choiceRT_color,2021.2.3,Win32,20.00080003,,,,,,,,2,Fast,short,j,1,1.749,5,1,21,2,1,,,,,
,0,,,,,,,,,d,orange,58fd1e751178370001dd35bb,2021-09-27_17h06.33.301,forced_choiceRT_color,2021.2.3,Win32,20.00080003,,,,,,,,2,Fast,short,d,1,1.688,5,2,22,0,1,,,,,
,0.91,,,,,,,,,j,red,58fd1e751178370001dd35bb,2021-09-27_17h06.33.301,forced_choiceRT_color,2021.2.3,Win32,20.00080003,,,,,,,,2,Fast,short,k,0,1.799,5,3,23,2,1,,,,,
,1.81,,,,,,,,,k,purple,58fd1e751178370001dd35bb,2021-09-27_17h06.33.301,forced_choiceRT_color,2021.2.3,Win32,20.00080003,,,,,,,,2,Slow,short,j,0,2.329,6,0,24,3,1,,,,,
,0.11,,,,,,,,,j,red,58fd1e751178370001dd35bb,2021-09-27_17h06.33.301,forced_choiceRT_color,2021.2.3,Win32,20.00080003,,,,,,,,2,Ontime,short,j,1,2.065,6,1,25,2,1,,,,,
,1.55,,,,,,,,,f,blue,58fd1e751178370001dd35bb,2021-09-27_17h06.33.301,forced_choiceRT_color,2021.2.3,Win32,20.00080003,,,,,,,,2,Slow,short,d,0,2.501,6,2,26,1,1,,,,,
,1.96,,,,,,,,,d,orange,58fd1e751178370001dd35bb,2021-09-27_17h06.33.301,forced_choiceRT_color,2021.2.3,Win32,20.00080003,,,,,,,,2,Slow,short,f,0,2.658,6,3,27,0,1,,,,,
,0.57,,,,,,,,,f,blue,58fd1e751178370001dd35bb,2021-09-27_17h06.33.301,forced_choiceRT_color,2021.2.3,Win32,20.00080003,,,,,,,,2,Slow,short,f,1,2.423,7,0,28,1,1,,,,,
,1.81,,,,,,,,,j,red,58fd1e751178370001dd35bb,2021-09-27_17h06.33.301,forced_choiceRT_color,2021.2.3,Win32,20.00080003,,,,,,,,2,Slow,short,j,1,2.472,7,1,29,2,1,,,,,
,1.33,,,,,,,,,k,purple,58fd1e751178370001dd35bb,2021-09-27_17h06.33.301,forced_choiceRT_color,2021.2.3,Win32,20.00080003,,,,,,,,2,Slow,short,k,1,2.338,7,2,30,3,1,,,,,
,1.59,,,,,,,,,f,blue,58fd1e751178370001dd35bb,2021-09-27_17h06.33.301,forced_choiceRT_color,2021.2.3,Win32,20.00080003,,,,,,,,2,Slow,short,f,1,2.809,7,3,31,1,1,,,,,
,0.05,,,,,,,,,d,orange,58fd1e751178370001dd35bb,2021-09-27_17h06.33.301,forced_choiceRT_color,2021.2.3,Win32,20.00080003,,,,,,,,2,Fast,short,d,1,1.82,8,0,32,0,1,,,,,
,0.65,,,,,,,,,j,red,58fd1e751178370001dd35bb,2021-09-27_17h06.33.301,forced_choiceRT_color,2021.2.3,Win32,20.00080003,,,,,,,,2,Slow,short,j,1,2.155,8,1,33,2,1,,,,,
,1.42,,,,,,,,,d,orange,58fd1e751178370001dd35bb,2021-09-27_17h06.33.301,forced_choiceRT_color,2021.2.3,Win32,20.00080003,,,,,,,,2,Slow,short,d,1,2.23,8,2,34,0,1,,,,,
,0.85,,,,,,,,,k,purple,58fd1e751178370001dd35bb,2021-09-27_17h06.33.301,forced_choiceRT_color,2021.2.3,Win32,20.00080003,,,,,,,,2,Slow,short,k,1,2.181,8,3,35,3,1,,,,,
,0.91,,,,,,,,,f,blue,58fd1e751178370001dd35bb,2021-09-27_17h06.33.301,forced_choiceRT_color,2021.2.3,Win32,20.00080003,,,,,,,,2,Slow,short,f,1,2.179,9,0,36,1,1,,,,,
,1.89,,,,,,,,,f,blue,58fd1e751178370001dd35bb,2021-09-27_17h06.33.301,forced_choiceRT_color,2021.2.3,Win32,20.00080003,,,,,,,,2,Slow,short,f,1,2.487,9,1,37,1,1,,,,,
,0.1,,,,,,,,,k,purple,58fd1e751178370001dd35bb,2021-09-27_17h06.33.301,forced_choiceRT_color,2021.2.3,Win32,20.00080003,,,,,,,,2,Fast,short,k,1,1.889,9,2,38,3,1,,,,,
,1.76,,,,,,,,,k,purple,58fd1e751178370001dd35bb,2021-09-27_17h06.33.301,forced_choiceRT_color,2021.2.3,Win32,20.00080003,,,,,,,,2,Slow,short,k,1,2.422,9,3,39,3,1,,,,,
,,,,,,,,,,,,58fd1e751178370001dd35bb,2021-09-27_17h06.33.301,forced_choiceRT_color,2021.2.3,Win32,20.00080003,,,,,,,,,,,,,,,,,,,1,0,1,0,1
,1.51,,,,,,,,,k,purple,58fd1e751178370001dd35bb,2021-09-27_17h06.33.301,forced_choiceRT_color,2021.2.3,Win32,20.00080003,,,,,,,,3,Slow,short,j,0,2.616,0,0,0,3,1,,,,,
,0.75,,,,,,,,,f,blue,58fd1e751178370001dd35bb,2021-09-27_17h06.33.301,forced_choiceRT_color,2021.2.3,Win32,20.00080003,,,,,,,,3,Fast,short,f,1,1.444,0,1,1,1,1,,,,,
,0.48,,,,,,,,,k,purple,58fd1e751178370001dd35bb,2021-09-27_17h06.33.301,forced_choiceRT_color,2021.2.3,Win32,20.00080003,,,,,,,,3,Fast,short,k,1,1.569,0,2,2,3,1,,,,,
,1.82,,,,,,,,,d,orange,58fd1e751178370001dd35bb,2021-09-27_17h06.33.301,forced_choiceRT_color,2021.2.3,Win32,20.00080003,,,,,,,,3,Slow,short,d,1,2.718,0,3,3,0,1,,,,,
,1.57,,,,,,,,,d,orange,58fd1e751178370001dd35bb,2021-09-27_17h06.33.301,forced_choiceRT_color,2021.2.3,Win32,20.00080003,,,,,,,,3,Slow,short,d,1,2.336,1,0,4,0,1,,,,,
,1.11,,,,,,,,,f,blue,58fd1e751178370001dd35bb,2021-09-27_17h06.33.301,forced_choiceRT_color,2021.2.3,Win32,20.00080003,,,,,,,,3,Fast,short,d,0,1.773,1,1,5,1,1,,,,,
,0.52,,,,,,,,,f,blue,58fd1e751178370001dd35bb,2021-09-27_17h06.33.301,forced_choiceRT_color,2021.2.3,Win32,20.00080003,,,,,,,,3,Ontime,short,f,1,2.03,1,2,6,1,1,,,,,
,0.96,,,,,,,,,d,orange,58fd1e751178370001dd35bb,2021-09-27_17h06.33.301,forced_choiceRT_color,2021.2.3,Win32,20.00080003,,,,,,,,3,Slow,short,d,1,2.155,1,3,7,0,1,,,,,
,0.96,,,,,,,,,f,blue,58fd1e751178370001dd35bb,2021-09-27_17h06.33.301,forced_choiceRT_color,2021.2.3,Win32,20.00080003,,,,,,,,3,Slow,short,d,0,2.249,2,0,8,1,1,,,,,
,1.78,,,,,,,,,k,purple,58fd1e751178370001dd35bb,2021-09-27_17h06.33.301,forced_choiceRT_color,2021.2.3,Win32,20.00080003,,,,,,,,3,Slow,short,k,1,2.677,2,1,9,3,1,,,,,
,1.4,,,,,,,,,d,orange,58fd1e751178370001dd35bb,2021-09-27_17h06.33.301,forced_choiceRT_color,2021.2.3,Win32,20.00080003,,,,,,,,3,Slow,short,f,0,2.362,2,2,10,0,1,,,,,
,0.2,,,,,,,,,f,blue,58fd1e751178370001dd35bb,2021-09-27_17h06.33.301,forced_choiceRT_color,2021.2.3,Win32,20.00080003,,,,,,,,3,Fast,short,f,1,1.531,2,3,11,1,1,,,,,
,1.46,,,,,,,,,k,purple,58fd1e751178370001dd35bb,2021-09-27_17h06.33.301,forced_choiceRT_color,2021.2.3,Win32,20.00080003,,,,,,,,3,Slow,short,k,1,2.341,3,0,12,3,1,,,,,
,0.02,,,,,,,,,f,blue,58fd1e751178370001dd35bb,2021-09-27_17h06.33.301,forced_choiceRT_color,2021.2.3,Win32,20.00080003,,,,,,,,3,Ontime,short,f,1,1.905,3,1,13,1,1,,,,,
,0.01,,,,,,,,,d,orange,58fd1e751178370001dd35bb,2021-09-27_17h06.33.301,forced_choiceRT_color,2021.2.3,Win32,20.00080003,,,,,,,,3,Fast,short,d,1,1.699,3,2,14,0,1,,,,,
,1.82,,,,,,,,,j,red,58fd1e751178370001dd35bb,2021-09-27_17h06.33.301,forced_choiceRT_color,2021.2.3,Win32,20.00080003,,,,,,,,3,Slow,short,k,0,2.729,3,3,15,2,1,,,,,
,1.52,,,,,,,,,k,purple,58fd1e751178370001dd35bb,2021-09-27_17h06.33.301,forced_choiceRT_color,2021.2.3,Win32,20.00080003,,,,,,,,3,Slow,short,k,1,2.331,4,0,16,3,1,,,,,
,1.1,,,,,,,,,d,orange,58fd1e751178370001dd35bb,2021-09-27_17h06.33.301,forced_choiceRT_color,2021.2.3,Win32,20.00080003,,,,,,,,3,Slow,short,d,1,2.124,4,1,17,0,1,,,,,
,0.81,,,,,,,,,j,red,58fd1e751178370001dd35bb,2021-09-27_17h06.33.301,forced_choiceRT_color,2021.2.3,Win32,20.00080003,,,,,,,,3,Ontime,short,j,1,2,4,2,18,2,1,,,,,
,0.81,,,,,,,,,k,purple,58fd1e751178370001dd35bb,2021-09-27_17h06.33.301,forced_choiceRT_color,2021.2.3,Win32,20.00080003,,,,,,,,3,Slow,short,k,1,2.188,4,3,19,3,1,,,,,
,1.44,,,,,,,,,j,red,58fd1e751178370001dd35bb,2021-09-27_17h06.33.301,forced_choiceRT_color,2021.2.3,Win32,20.00080003,,,,,,,,3,Slow,short,j,1,2.353,5,0,20,2,1,,,,,
,0.21,,,,,,,,,k,purple,58fd1e751178370001dd35bb,2021-09-27_17h06.33.301,forced_choiceRT_color,2021.2.3,Win32,20.00080003,,,,,,,,3,Ontime,short,k,1,1.973,5,1,21,3,1,,,,,
,0.39,,,,,,,,,d,orange,58fd1e751178370001dd35bb,2021-09-27_17h06.33.301,forced_choiceRT_color,2021.2.3,Win32,20.00080003,,,,,,,,3,Ontime,short,d,1,1.966,5,2,22,0,1,,,,,
,0.52,,,,,,,,,j,red,58fd1e751178370001dd35bb,2021-09-27_17h06.33.301,forced_choiceRT_color,2021.2.3,Win32,20.00080003,,,,,,,,3,Ontime,short,j,1,2.025,5,3,23,2,1,,,,,
,0.2,,,,,,,,,d,orange,58fd1e751178370001dd35bb,2021-09-27_17h06.33.301,forced_choiceRT_color,2021.2.3,Win32,20.00080003,,,,,,,,3,Fast,short,d,1,1.788,6,0,24,0,1,,,,,
,0.17,,,,,,,,,j,red,58fd1e751178370001dd35bb,2021-09-27_17h06.33.301,forced_choiceRT_color,2021.2.3,Win32,20.00080003,,,,,,,,3,Ontime,short,j,1,2.08,6,1,25,2,1,,,,,
,1.18,,,,,,,,,j,red,58fd1e751178370001dd35bb,2021-09-27_17h06.33.301,forced_choiceRT_color,2021.2.3,Win32,20.00080003,,,,,,,,3,Ontime,short,j,1,1.957,6,2,26,2,1,,,,,
,0.46,,,,,,,,,d,orange,58fd1e751178370001dd35bb,2021-09-27_17h06.33.301,forced_choiceRT_color,2021.2.3,Win32,20.00080003,,,,,,,,3,Ontime,short,d,1,2.099,6,3,27,0,1,,,,,
,0.66,,,,,,,,,j,red,58fd1e751178370001dd35bb,2021-09-27_17h06.33.301,forced_choiceRT_color,2021.2.3,Win32,20.00080003,,,,,,,,3,Ontime,short,j,1,2.007,7,0,28,2,1,,,,,
,1.12,,,,,,,,,f,blue,58fd1e751178370001dd35bb,2021-09-27_17h06.33.301,forced_choiceRT_color,2021.2.3,Win32,20.00080003,,,,,,,,3,Ontime,short,f,1,1.949,7,1,29,1,1,,,,,
,1.89,,,,,,,,,j,red,58fd1e751178370001dd35bb,2021-09-27_17h06.33.301,forced_choiceRT_color,2021.2.3,Win32,20.00080003,,,,,,,,3,Slow,short,j,1,2.386,7,2,30,2,1,,,,,
,1.41,,,,,,,,,j,red,58fd1e751178370001dd35bb,2021-09-27_17h06.33.301,forced_choiceRT_color,2021.2.3,Win32,20.00080003,,,,,,,,3,Ontime,short,j,1,1.97,7,3,31,2,1,,,,,
,1.69,,,,,,,,,f,blue,58fd1e751178370001dd35bb,2021-09-27_17h06.33.301,forced_choiceRT_color,2021.2.3,Win32,20.00080003,,,,,,,,3,Slow,short,j,0,2.178,8,0,32,1,1,,,,,
,0.43,,,,,,,,,f,blue,58fd1e751178370001dd35bb,2021-09-27_17h06.33.301,forced_choiceRT_color,2021.2.3,Win32,20.00080003,,,,,,,,3,Fast,short,f,1,1.726,8,1,33,1,1,,,,,
,0.03,,,,,,,,,k,purple,58fd1e751178370001dd35bb,2021-09-27_17h06.33.301,forced_choiceRT_color,2021.2.3,Win32,20.00080003,,,,,,,,3,Fast,short,k,1,1.819,8,2,34,3,1,,,,,
,0.23,,,,,,,,,k,purple,58fd1e751178370001dd35bb,2021-09-27_17h06.33.301,forced_choiceRT_color,2021.2.3,Win32,20.00080003,,,,,,,,3,Fast,short,k,1,1.876,8,3,35,3,1,,,,,
,1.71,,,,,,,,,k,purple,58fd1e751178370001dd35bb,2021-09-27_17h06.33.301,forced_choiceRT_color,2021.2.3,Win32,20.00080003,,,,,,,,3,Slow,short,k,1,2.268,9,0,36,3,1,,,,,
,0.27,,,,,,,,,j,red,58fd1e751178370001dd35bb,2021-09-27_17h06.33.301,forced_choiceRT_color,2021.2.3,Win32,20.00080003,,,,,,,,3,Ontime,short,j,1,2.093,9,1,37,2,1,,,,,
,1.06,,,,,,,,,f,blue,58fd1e751178370001dd35bb,2021-09-27_17h06.33.301,forced_choiceRT_color,2021.2.3,Win32,20.00080003,,,,,,,,3,Ontime,short,f,1,2.09,9,2,38,1,1,,,,,
,0.64,,,,,,,,,d,orange,58fd1e751178370001dd35bb,2021-09-27_17h06.33.301,forced_choiceRT_color,2021.2.3,Win32,20.00080003,,,,,,,,3,Ontime,short,d,1,2.056,9,3,39,0,1,,,,,
,,,,,,,,,,,,58fd1e751178370001dd35bb,2021-09-27_17h06.33.301,forced_choiceRT_color,2021.2.3,Win32,20.00080003,,,,,,,,,,,,,,,,,,,2,0,2,0,1
,1.62,,,,,,,,,d,orange,58fd1e751178370001dd35bb,2021-09-27_17h06.33.301,forced_choiceRT_color,2021.2.3,Win32,20.00080003,,,,,,,,4,Slow,short,f,0,2.432,0,0,0,0,1,,,,,
,1.29,,,,,,,,,f,blue,58fd1e751178370001dd35bb,2021-09-27_17h06.33.301,forced_choiceRT_color,2021.2.3,Win32,20.00080003,,,,,,,,4,Ontime,short,j,0,2.042,0,1,1,1,1,,,,,
,1.57,,,,,,,,,f,blue,58fd1e751178370001dd35bb,2021-09-27_17h06.33.301,forced_choiceRT_color,2021.2.3,Win32,20.00080003,,,,,,,,4,Fast,short,f,1,0.042,0,2,2,1,1,,,,,
,0.1,,,,,,,,,j,red,58fd1e751178370001dd35bb,2021-09-27_17h06.33.301,forced_choiceRT_color,2021.2.3,Win32,20.00080003,,,,,,,,4,Ontime,short,j,1,1.975,0,3,3,2,1,,,,,
,1.16,,,,,,,,,j,red,58fd1e751178370001dd35bb,2021-09-27_17h06.33.301,forced_choiceRT_color,2021.2.3,Win32,20.00080003,,,,,,,,4,Fast,short,j,1,1.868,1,0,4,2,1,,,,,
,1.13,,,,,,,,,k,purple,58fd1e751178370001dd35bb,2021-09-27_17h06.33.301,forced_choiceRT_color,2021.2.3,Win32,20.00080003,,,,,,,,4,Fast,short,k,1,1.878,1,1,5,3,1,,,,,
,0.93,,,,,,,,,d,orange,58fd1e751178370001dd35bb,2021-09-27_17h06.33.301,forced_choiceRT_color,2021.2.3,Win32,20.00080003,,,,,,,,4,Ontime,short,d,1,1.957,1,2,6,0,1,,,,,
,1.53,,,,,,,,,d,orange,58fd1e751178370001dd35bb,2021-09-27_17h06.33.301,forced_choiceRT_color,2021.2.3,Win32,20.00080003,,,,,,,,4,Slow,short,d,1,3.035,1,3,7,0,1,,,,,
,1.26,,,,,,,,,k,purple,58fd1e751178370001dd35bb,2021-09-27_17h06.33.301,forced_choiceRT_color,2021.2.3,Win32,20.00080003,,,,,,,,4,Slow,short,k,1,2.141,2,0,8,3,1,,,,,
,1.18,,,,,,,,,d,orange,58fd1e751178370001dd35bb,2021-09-27_17h06.33.301,forced_choiceRT_color,2021.2.3,Win32,20.00080003,,,,,,,,4,Slow,short,d,1,2.215,2,1,9,0,1,,,,,
,0.51,,,,,,,,,j,red,58fd1e751178370001dd35bb,2021-09-27_17h06.33.301,forced_choiceRT_color,2021.2.3,Win32,20.00080003,,,,,,,,4,Ontime,short,j,1,1.932,2,2,10,2,1,,,,,
,1.96,,,,,,,,,f,blue,58fd1e751178370001dd35bb,2021-09-27_17h06.33.301,forced_choiceRT_color,2021.2.3,Win32,20.00080003,,,,,,,,4,Slow,short,f,1,3.036,2,3,11,1,1,,,,,
,1.33,,,,,,,,,j,red,58fd1e751178370001dd35bb,2021-09-27_17h06.33.301,forced_choiceRT_color,2021.2.3,Win32,20.00080003,,,,,,,,4,Slow,short,j,1,2.305,3,0,12,2,1,,,,,
,1.76,,,,,,,,,j,red,58fd1e751178370001dd35bb,2021-09-27_17h06.33.301,forced_choiceRT_color,2021.2.3,Win32,20.00080003,,,,,,,,4,Slow,short,j,1,2.486,3,1,13,2,1,,,,,
,0,,,,,,,,,d,orange,58fd1e751178370001dd35bb,2021-09-27_17h06.33.301,forced_choiceRT_color,2021.2.3,Win32,20.00080003,,,,,,,,4,Fast,short,d,1,1.697,3,2,14,0,1,,,,,
,1.13,,,,,,,,,k,purple,58fd1e751178370001dd35bb,2021-09-27_17h06.33.301,forced_choiceRT_color,2021.2.3,Win32,20.00080003,,,,,,,,4,Ontime,short,k,1,2.063,3,3,15,3,1,,,,,
,0.34,,,,,,,,,f,blue,58fd1e751178370001dd35bb,2021-09-27_17h06.33.301,forced_choiceRT_color,2021.2.3,Win32,20.00080003,,,,,,,,4,Ontime,short,f,1,1.952,4,0,16,1,1,,,,,
,0.6,,,,,,,,,k,purple,58fd1e751178370001dd35bb,2021-09-27_17h06.33.301,forced_choiceRT_color,2021.2.3,Win32,20.00080003,,,,,,,,4,Ontime,short,k,1,2.022,4,1,17,3,1,,,,,
,1.44,,,,,,,,,f,blue,58fd1e751178370001dd35bb,2021-09-27_17h06.33.301,forced_choiceRT_color,2021.2.3,Win32,20.00080003,,,,,,,,4,Slow,short,f,1,2.308,4,2,18,1,1,,,,,
,0.9,,,,,,,,,j,red,58fd1e751178370001dd35bb,2021-09-27_17h06.33.301,forced_choiceRT_color,2021.2.3,Win32,20.00080003,,,,,,,,4,Ontime,short,j,1,2.002,4,3,19,2,1,,,,,
,1.83,,,,,,,,,j,red,58fd1e751178370001dd35bb,2021-09-27_17h06.33.301,forced_choiceRT_color,2021.2.3,Win32,20.00080003,,,,,,,,4,Slow,short,j,1,2.42,5,0,20,2,1,,,,,
,0.97,,,,,,,,,j,red,58fd1e751178370001dd35bb,2021-09-27_17h06.33.301,forced_choiceRT_color,2021.2.3,Win32,20.00080003,,,,,,,,4,Ontime,short,j,1,2.065,5,1,21,2,1,,,,,
,0.71,,,,,,,,,f,blue,58fd1e751178370001dd35bb,2021-09-27_17h06.33.301,forced_choiceRT_color,2021.2.3,Win32,20.00080003,,,,,,,,4,Ontime,short,f,1,2.014,5,2,22,1,1,,,,,
,1.09,,,,,,,,,j,red,58fd1e751178370001dd35bb,2021-09-27_17h06.33.301,forced_choiceRT_color,2021.2.3,Win32,20.00080003,,,,,,,,4,Fast,short,j,1,1.792,5,3,23,2,1,,,,,
,0.77,,,,,,,,,f,blue,58fd1e751178370001dd35bb,2021-09-27_17h06.33.301,forced_choiceRT_color,2021.2.3,Win32,20.00080003,,,,,,,,4,Ontime,short,f,1,2.073,6,0,24,1,1,,,,,
,1.52,,,,,,,,,k,purple,58fd1e751178370001dd35bb,2021-09-27_17h06.33.301,forced_choiceRT_color,2021.2.3,Win32,20.00080003,,,,,,,,4,Slow,short,k,1,2.405,6,1,25,3,1,,,,,
,0.71,,,,,,,,,f,blue,58fd1e751178370001dd35bb,2021-09-27_17h06.33.301,forced_choiceRT_color,2021.2.3,Win32,20.00080003,,,,,,,,4,Ontime,short,f,1,2.091,6,2,26,1,1,,,,,
,0.37,,,,,,,,,j,red,58fd1e751178370001dd35bb,2021-09-27_17h06.33.301,forced_choiceRT_color,2021.2.3,Win32,20.00080003,,,,,,,,4,Slow,short,j,1,2.119,6,3,27,2,1,,,,,
,0.98,,,,,,,,,f,blue,58fd1e751178370001dd35bb,2021-09-27_17h06.33.301,forced_choiceRT_color,2021.2.3,Win32,20.00080003,,,,,,,,4,Slow,short,f,1,2.15,7,0,28,1,1,,,,,
,0.45,,,,,,,,,d,orange,58fd1e751178370001dd35bb,2021-09-27_17h06.33.301,forced_choiceRT_color,2021.2.3,Win32,20.00080003,,,,,,,,4,Ontime,short,d,1,2.006,7,1,29,0,1,,,,,
,0.99,,,,,,,,,k,purple,58fd1e751178370001dd35bb,2021-09-27_17h06.33.301,forced_choiceRT_color,2021.2.3,Win32,20.00080003,,,,,,,,4,Ontime,short,k,1,2.068,7,2,30,3,1,,,,,
,1.12,,,,,,,,,d,orange,58fd1e751178370001dd35bb,2021-09-27_17h06.33.301,forced_choiceRT_color,2021.2.3,Win32,20.00080003,,,,,,,,4,Fast,short,d,1,1.888,7,3,31,0,1,,,,,
,0.88,,,,,,,,,f,blue,58fd1e751178370001dd35bb,2021-09-27_17h06.33.301,forced_choiceRT_color,2021.2.3,Win32,20.00080003,,,,,,,,4,Fast,short,f,1,1.707,8,0,32,1,1,,,,,
,0.44,,,,,,,,,k,purple,58fd1e751178370001dd35bb,2021-09-27_17h06.33.301,forced_choiceRT_color,2021.2.3,Win32,20.00080003,,,,,,,,4,Ontime,short,k,1,2.037,8,1,33,3,1,,,,,
,1.65,,,,,,,,,d,orange,58fd1e751178370001dd35bb,2021-09-27_17h06.33.301,forced_choiceRT_color,2021.2.3,Win32,20.00080003,,,,,,,,4,Slow,short,f,0,2.418,8,2,34,0,1,,,,,
,0.99,,,,,,,,,d,orange,58fd1e751178370001dd35bb,2021-09-27_17h06.33.301,forced_choiceRT_color,2021.2.3,Win32,20.00080003,,,,,,,,4,Slow,short,d,1,2.236,8,3,35,0,1,,,,,
,1.76,,,,,,,,,k,purple,58fd1e751178370001dd35bb,2021-09-27_17h06.33.301,forced_choiceRT_color,2021.2.3,Win32,20.00080003,,,,,,,,4,Slow,short,k,1,2.486,9,0,36,3,1,,,,,
,0.72,,,,,,,,,k,purple,58fd1e751178370001dd35bb,2021-09-27_17h06.33.301,forced_choiceRT_color,2021.2.3,Win32,20.00080003,,,,,,,,4,Fast,short,k,1,1.714,9,1,37,3,1,,,,,
,1.84,,,,,,,,,k,purple,58fd1e751178370001dd35bb,2021-09-27_17h06.33.301,forced_choiceRT_color,2021.2.3,Win32,20.00080003,,,,,,,,4,Slow,short,k,1,2.673,9,2,38,3,1,,,,,
,1.71,,,,,,,,,d,orange,58fd1e751178370001dd35bb,2021-09-27_17h06.33.301,forced_choiceRT_color,2021.2.3,Win32,20.00080003,,,,,,,,4,Slow,short,f,0,2.469,9,3,39,0,1,,,,,
,,,,,,,,,,,,58fd1e751178370001dd35bb,2021-09-27_17h06.33.301,forced_choiceRT_color,2021.2.3,Win32,20.00080003,,,,,,,,,,,,,,,,,,,3,0,3,0,1
,0.24,,,,,,,,,d,orange,58fd1e751178370001dd35bb,2021-09-27_17h06.33.301,forced_choiceRT_color,2021.2.3,Win32,20.00080003,,,,,,,,5,Ontime,short,d,1,2.033,0,0,0,0,1,,,,,
,1.56,,,,,,,,,k,purple,58fd1e751178370001dd35bb,2021-09-27_17h06.33.301,forced_choiceRT_color,2021.2.3,Win32,20.00080003,,,,,,,,5,Slow,short,k,1,2.467,0,1,1,3,1,,,,,
,1.72,,,,,,,,,j,red,58fd1e751178370001dd35bb,2021-09-27_17h06.33.301,forced_choiceRT_color,2021.2.3,Win32,20.00080003,,,,,,,,5,Slow,short,j,1,2.554,0,2,2,2,1,,,,,
,0.25,,,,,,,,,f,blue,58fd1e751178370001dd35bb,2021-09-27_17h06.33.301,forced_choiceRT_color,2021.2.3,Win32,20.00080003,,,,,,,,5,Fast,short,f,1,1.799,0,3,3,1,1,,,,,
,0.27,,,,,,,,,j,red,58fd1e751178370001dd35bb,2021-09-27_17h06.33.301,forced_choiceRT_color,2021.2.3,Win32,20.00080003,,,,,,,,5,Ontime,short,j,1,2.089,1,0,4,2,1,,,,,
,0.74,,,,,,,,,j,red,58fd1e751178370001dd35bb,2021-09-27_17h06.33.301,forced_choiceRT_color,2021.2.3,Win32,20.00080003,,,,,,,,5,Fast,short,j,1,1.46,1,1,5,2,1,,,,,
,1.33,,,,,,,,,f,blue,58fd1e751178370001dd35bb,2021-09-27_17h06.33.301,forced_choiceRT_color,2021.2.3,Win32,20.00080003,,,,,,,,5,Slow,short,f,1,2.356,1,2,6,1,1,,,,,
,0.91,,,,,,,,,f,blue,58fd1e751178370001dd35bb,2021-09-27_17h06.33.301,forced_choiceRT_color,2021.2.3,Win32,20.00080003,,,,,,,,5,Fast,short,f,1,1.7,1,3,7,1,1,,,,,
,0.43,,,,,,,,,j,red,58fd1e751178370001dd35bb,2021-09-27_17h06.33.301,forced_choiceRT_color,2021.2.3,Win32,20.00080003,,,,,,,,5,Ontime,short,j,1,2.03,2,0,8,2,1,,,,,
,0.42,,,,,,,,,f,blue,58fd1e751178370001dd35bb,2021-09-27_17h06.33.301,forced_choiceRT_color,2021.2.3,Win32,20.00080003,,,,,,,,5,Slow,short,f,1,2.108,2,1,9,1,1,,,,,
,1.96,,,,,,,,,d,orange,58fd1e751178370001dd35bb,2021-09-27_17h06.33.301,forced_choiceRT_color,2021.2.3,Win32,20.00080003,,,,,,,,5,Slow,short,j,0,2.562,2,2,10,0,1,,,,,
,1.33,,,,,,,,,f,blue,58fd1e751178370001dd35bb,2021-09-27_17h06.33.301,forced_choiceRT_color,2021.2.3,Win32,20.00080003,,,,,,,,5,Slow,short,f,1,2.341,2,3,11,1,1,,,,,
,1.31,,,,,,,,,j,red,58fd1e751178370001dd35bb,2021-09-27_17h06.33.301,forced_choiceRT_color,2021.2.3,Win32,20.00080003,,,,,,,,5,Ontime,short,j,1,1.954,3,0,12,2,1,,,,,
,0.73,,,,,,,,,d,orange,58fd1e751178370001dd35bb,2021-09-27_17h06.33.301,forced_choiceRT_color,2021.2.3,Win32,20.00080003,,,,,,,,5,Ontime,short,d,1,2.09,3,1,13,0,1,,,,,
,0.73,,,,,,,,,d,orange,58fd1e751178370001dd35bb,2021-09-27_17h06.33.301,forced_choiceRT_color,2021.2.3,Win32,20.00080003,,,,,,,,5,Ontime,short,d,1,2.086,3,2,14,0,1,,,,,
,0.99,,,,,,,,,f,blue,58fd1e751178370001dd35bb,2021-09-27_17h06.33.301,forced_choiceRT_color,2021.2.3,Win32,20.00080003,,,,,,,,5,Ontime,short,f,1,2.092,3,3,15,1,1,,,,,
,1.08,,,,,,,,,d,orange,58fd1e751178370001dd35bb,2021-09-27_17h06.33.301,forced_choiceRT_color,2021.2.3,Win32,20.00080003,,,,,,,,5,Slow,short,d,1,2.136,4,0,16,0,1,,,,,
,0.93,,,,,,,,,k,purple,58fd1e751178370001dd35bb,2021-09-27_17h06.33.301,forced_choiceRT_color,2021.2.3,Win32,20.00080003,,,,,,,,5,Fast,short,k,1,1.786,4,1,17,3,1,,,,,
,1.34,,,,,,,,,k,purple,58fd1e751178370001dd35bb,2021-09-27_17h06.33.301,forced_choiceRT_color,2021.2.3,Win32,20.00080003,,,,,,,,5,Ontime,short,k,1,2.03,4,2,18,3,1,,,,,
,1.24,,,,,,,,,f,blue,58fd1e751178370001dd35bb,2021-09-27_17h06.33.301,forced_choiceRT_color,2021.2.3,Win32,20.00080003,,,,,,,,5,Ontime,short,j,0,2.062,4,3,19,1,1,,,,,
,0.29,,,,,,,,,k,purple,58fd1e751178370001dd35bb,2021-09-27_17h06.33.301,forced_choiceRT_color,2021.2.3,Win32,20.00080003,,,,,,,,5,Ontime,short,k,1,1.966,5,0,20,3,1,,,,,
,1.53,,,,,,,,,d,orange,58fd1e751178370001dd35bb,2021-09-27_17h06.33.301,forced_choiceRT_color,2021.2.3,Win32,20.00080003,,,,,,,,5,Slow,short,f,0,2.407,5,1,21,0,1,,,,,
,0.25,,,,,,,,,k,purple,58fd1e751178370001dd35bb,2021-09-27_17h06.33.301,forced_choiceRT_color,2021.2.3,Win32,20.00080003,,,,,,,,5,Ontime,short,k,1,2.069,5,2,22,3,1,,,,,
,1.5,,,,,,,,,j,red,58fd1e751178370001dd35bb,2021-09-27_17h06.33.301,forced_choiceRT_color,2021.2.3,Win32,20.00080003,,,,,,,,5,Slow,short,j,1,2.989,5,3,23,2,1,,,,,
,1.1,,,,,,,,,j,red,58fd1e751178370001dd35bb,2021-09-27_17h06.33.301,forced_choiceRT_color,2021.2.3,Win32,20.00080003,,,,,,,,5,Ontime,short,j,1,1.985,6,0,24,2,1,,,,,
,1.26,,,,,,,,,k,purple,58fd1e751178370001dd35bb,2021-09-27_17h06.33.301,forced_choiceRT_color,2021.2.3,Win32,20.00080003,,,,,,,,5,Slow,short,k,1,2.521,6,1,25,3,1,,,,,
,1.56,,,,,,,,,k,purple,58fd1e751178370001dd35bb,2021-09-27_17h06.33.301,forced_choiceRT_color,2021.2.3,Win32,20.00080003,,,,,,,,5,Slow,short,k,1,2.413,6,2,26,3,1,,,,,
,1.98,,,,,,,,,k,purple,58fd1e751178370001dd35bb,2021-09-27_17h06.33.301,forced_choiceRT_color,2021.2.3,Win32,20.00080003,,,,,,,,5,Slow,short,k,1,2.609,6,3,27,3,1,,,,,
,1.79,,,,,,,,,j,red,58fd1e751178370001dd35bb,2021-09-27_17h06.33.301,forced_choiceRT_color,2021.2.3,Win32,20.00080003,,,,,,,,5,Slow,short,j,1,2.817,7,0,28,2,1,,,,,
,0.11,,,,,,,,,k,purple,58fd1e751178370001dd35bb,2021-09-27_17h06.33.301,forced_choiceRT_color,2021.2.3,Win32,20.00080003,,,,,,,,5,Fast,short,k,1,0.89,7,1,29,3,1,,,,,
,0.67,,,,,,,,,j,red,58fd1e751178370001dd35bb,2021-09-27_17h06.33.301,forced_choiceRT_color,2021.2.3,Win32,20.00080003,,,,,,,,5,Fast,short,j,1,1.358,7,2,30,2,1,,,,,
,1.16,,,,,,,,,f,blue,58fd1e751178370001dd35bb,2021-09-27_17h06.33.301,forced_choiceRT_color,2021.2.3,Win32,20.00080003,,,,,,,,5,Ontime,short,f,1,2.053,7,3,31,1,1,,,,,
,1.69,,,,,,,,,d,orange,58fd1e751178370001dd35bb,2021-09-27_17h06.33.301,forced_choiceRT_color,2021.2.3,Win32,20.00080003,,,,,,,,5,Slow,short,d,1,2.397,8,0,32,0,1,,,,,
,1.82,,,,,,,,,d,orange,58fd1e751178370001dd35bb,2021-09-27_17h06.33.301,forced_choiceRT_color,2021.2.3,Win32,20.00080003,,,,,,,,5,Slow,short,d,1,2.776,8,1,33,0,1,,,,,
,1.79,,,,,,,,,j,red,58fd1e751178370001dd35bb,2021-09-27_17h06.33.301,forced_choiceRT_color,2021.2.3,Win32,20.00080003,,,,,,,,5,Slow,short,j,1,2.856,8,2,34,2,1,,,,,
,1.97,,,,,,,,,d,orange,58fd1e751178370001dd35bb,2021-09-27_17h06.33.301,forced_choiceRT_color,2021.2.3,Win32,20.00080003,,,,,,,,5,Slow,short,d,1,2.873,8,3,35,0,1,,,,,
,1.29,,,,,,,,,f,blue,58fd1e751178370001dd35bb,2021-09-27_17h06.33.301,forced_choiceRT_color,2021.2.3,Win32,20.00080003,,,,,,,,5,Slow,short,f,1,2.128,9,0,36,1,1,,,,,
,0.45,,,,,,,,,k,purple,58fd1e751178370001dd35bb,2021-09-27_17h06.33.301,forced_choiceRT_color,2021.2.3,Win32,20.00080003,,,,,,,,5,Ontime,short,k,1,1.919,9,1,37,3,1,,,,,
,0.25,,,,,,,,,f,blue,58fd1e751178370001dd35bb,2021-09-27_17h06.33.301,forced_choiceRT_color,2021.2.3,Win32,20.00080003,,,,,,,,5,Ontime,short,f,1,1.964,9,2,38,1,1,,,,,
,0.77,,,,,,,,,d,orange,58fd1e751178370001dd35bb,2021-09-27_17h06.33.301,forced_choiceRT_color,2021.2.3,Win32,20.00080003,,,,,,,,5,Ontime,short,d,1,2.066,9,3,39,0,1,,,,,
,,,,,,,,,,,,58fd1e751178370001dd35bb,2021-09-27_17h06.33.301,forced_choiceRT_color,2021.2.3,Win32,20.00080003,,,,,,,,,,,,,,,,,,,4,0,4,0,1
,1.18,,,,,,,,,d,orange,58fd1e751178370001dd35bb,2021-09-27_17h06.33.301,forced_choiceRT_color,2021.2.3,Win32,20.00080003,,,,,,,,6,Ontime,short,d,1,2.014,0,0,0,0,1,,,,,
,1.06,,,,,,,,,d,orange,58fd1e751178370001dd35bb,2021-09-27_17h06.33.301,forced_choiceRT_color,2021.2.3,Win32,20.00080003,,,,,,,,6,Fast,short,d,1,1.774,0,1,1,0,1,,,,,
,0.19,,,,,,,,,f,blue,58fd1e751178370001dd35bb,2021-09-27_17h06.33.301,forced_choiceRT_color,2021.2.3,Win32,20.00080003,,,,,,,,6,Fast,short,f,1,1.781,0,2,2,1,1,,,,,
,0.53,,,,,,,,,k,purple,58fd1e751178370001dd35bb,2021-09-27_17h06.33.301,forced_choiceRT_color,2021.2.3,Win32,20.00080003,,,,,,,,6,Ontime,short,k,1,1.904,0,3,3,3,1,,,,,
,0.05,,,,,,,,,d,orange,58fd1e751178370001dd35bb,2021-09-27_17h06.33.301,forced_choiceRT_color,2021.2.3,Win32,20.00080003,,,,,,,,6,Fast,short,d,1,1.529,1,0,4,0,1,,,,,
,0.04,,,,,,,,,j,red,58fd1e751178370001dd35bb,2021-09-27_17h06.33.301,forced_choiceRT_color,2021.2.3,Win32,20.00080003,,,,,,,,6,Ontime,short,j,1,2.079,1,1,5,2,1,,,,,
,1.17,,,,,,,,,j,red,58fd1e751178370001dd35bb,2021-09-27_17h06.33.301,forced_choiceRT_color,2021.2.3,Win32,20.00080003,,,,,,,,6,Ontime,short,j,1,1.959,1,2,6,2,1,,,,,
,1.44,,,,,,,,,d,orange,58fd1e751178370001dd35bb,2021-09-27_17h06.33.301,forced_choiceRT_color,2021.2.3,Win32,20.00080003,,,,,,,,6,Slow,short,d,1,2.249,1,3,7,0,1,,,,,
,0.62,,,,,,,,,k,purple,58fd1e751178370001dd35bb,2021-09-27_17h06.33.301,forced_choiceRT_color,2021.2.3,Win32,20.00080003,,,,,,,,6,Fast,short,k,1,1.534,2,0,8,3,1,,,,,
,1.37,,,,,,,,,k,purple,58fd1e751178370001dd35bb,2021-09-27_17h06.33.301,forced_choiceRT_color,2021.2.3,Win32,20.00080003,,,,,,,,6,Ontime,short,k,1,1.927,2,1,9,3,1,,,,,
,0.01,,,,,,,,,j,red,58fd1e751178370001dd35bb,2021-09-27_17h06.33.301,forced_choiceRT_color,2021.2.3,Win32,20.00080003,,,,,,,,6,Fast,short,j,1,1.618,2,2,10,2,1,,,,,
,1.1,,,,,,,,,f,blue,58fd1e751178370001dd35bb,2021-09-27_17h06.33.301,forced_choiceRT_color,2021.2.3,Win32,20.00080003,,,,,,,,6,Slow,short,f,1,2.214,2,3,11,1,1,,,,,
,0.68,,,,,,,,,k,purple,58fd1e751178370001dd35bb,2021-09-27_17h06.33.301,forced_choiceRT_color,2021.2.3,Win32,20.00080003,,,,,,,,6,Fast,short,k,1,1.449,3,0,12,3,1,,,,,
,0.02,,,,,,,,,k,purple,58fd1e751178370001dd35bb,2021-09-27_17h06.33.301,forced_choiceRT_color,2021.2.3,Win32,20.00080003,,,,,,,,6,Fast,short,k,1,1.569,3,1,13,3,1,,,,,
,0.48,,,,,,,,,k,purple,58fd1e751178370001dd35bb,2021-09-27_17h06.33.301,forced_choiceRT_color,2021.2.3,Win32,20.00080003,,,,,,,,6,Ontime,short,k,1,2.028,3,2,14,3,1,,,,,
,0.96,,,,,,,,,d,orange,58fd1e751178370001dd35bb,2021-09-27_17h06.33.301,forced_choiceRT_color,2021.2.3,Win32,20.00080003,,,,,,,,6,Ontime,short,d,1,2.084,3,3,15,0,1,,,,,
,0,,,,,,,,,f,blue,58fd1e751178370001dd35bb,2021-09-27_17h06.33.301,forced_choiceRT_color,2021.2.3,Win32,20.00080003,,,,,,,,6,Fast,short,f,1,1.891,4,0,16,1,1,,,,,
,0.67,,,,,,,,,k,purple,58fd1e751178370001dd35bb,2021-09-27_17h06.33.301,forced_choiceRT_color,2021.2.3,Win32,20.00080003,,,,,,,,6,Fast,short,k,1,1.452,4,1,17,3,1,,,,,
,1.35,,,,,,,,,d,orange,58fd1e751178370001dd35bb,2021-09-27_17h06.33.301,forced_choiceRT_color,2021.2.3,Win32,20.00080003,,,,,,,,6,Slow,short,d,1,2.183,4,2,18,0,1,,,,,
,0.34,,,,,,,,,d,orange,58fd1e751178370001dd35bb,2021-09-27_17h06.33.301,forced_choiceRT_color,2021.2.3,Win32,20.00080003,,,,,,,,6,Fast,short,d,1,1.767,4,3,19,0,1,,,,,
,0.15,,,,,,,,,j,red,58fd1e751178370001dd35bb,2021-09-27_17h06.33.301,forced_choiceRT_color,2021.2.3,Win32,20.00080003,,,,,,,,6,Fast,short,j,1,1.712,5,0,20,2,1,,,,,
,1.98,,,,,,,,,j,red,58fd1e751178370001dd35bb,2021-09-27_17h06.33.301,forced_choiceRT_color,2021.2.3,Win32,20.00080003,,,,,,,,6,Slow,short,j,1,2.62,5,1,21,2,1,,,,,
,0.38,,,,,,,,,f,blue,58fd1e751178370001dd35bb,2021-09-27_17h06.33.301,forced_choiceRT_color,2021.2.3,Win32,20.00080003,,,,,,,,6,Ontime,short,f,1,1.943,5,2,22,1,1,,,,,
,1.73,,,,,,,,,d,orange,58fd1e751178370001dd35bb,2021-09-27_17h06.33.301,forced_choiceRT_color,2021.2.3,Win32,20.00080003,,,,,,,,6,Slow,short,d,1,2.6,5,3,23,0,1,,,,,
,1.6,,,,,,,,,j,red,58fd1e751178370001dd35bb,2021-09-27_17h06.33.301,forced_choiceRT_color,2021.2.3,Win32,20.00080003,,,,,,,,6,Slow,short,k,0,2.32,6,0,24,2,1,,,,,
,0.76,,,,,,,,,f,blue,58fd1e751178370001dd35bb,2021-09-27_17h06.33.301,forced_choiceRT_color,2021.2.3,Win32,20.00080003,,,,,,,,6,Fast,short,f,1,1.689,6,1,25,1,1,,,,,
,1.9,,,,,,,,,j,red,58fd1e751178370001dd35bb,2021-09-27_17h06.33.301,forced_choiceRT_color,2021.2.3,Win32,20.00080003,,,,,,,,6,Slow,short,j,1,2.645,6,2,26,2,1,,,,,
,0.87,,,,,,,,,f,blue,58fd1e751178370001dd35bb,2021-09-27_17h06.33.301,forced_choiceRT_color,2021.2.3,Win32,20.00080003,,,,,,,,6,Fast,short,f,1,1.709,6,3,27,1,1,,,,,
,0.54,,,,,,,,,k,purple,58fd1e751178370001dd35bb,2021-09-27_17h06.33.301,forced_choiceRT_color,2021.2.3,Win32,20.00080003,,,,,,,,6,Slow,short,k,1,2.343,7,0,28,3,1,,,,,
,1.27,,,,,,,,,f,blue,58fd1e751178370001dd35bb,2021-09-27_17h06.33.301,forced_choiceRT_color,2021.2.3,Win32,20.00080003,,,,,,,,6,Ontime,short,j,0,1.933,7,1,29,1,1,,,,,
,0.53,,,,,,,,,j,red,58fd1e751178370001dd35bb,2021-09-27_17h06.33.301,forced_choiceRT_color,2021.2.3,Win32,20.00080003,,,,,,,,6,Slow,short,j,1,2.18,7,2,30,2,1,,,,,
,0.56,,,,,,,,,d,orange,58fd1e751178370001dd35bb,2021-09-27_17h06.33.301,forced_choiceRT_color,2021.2.3,Win32,20.00080003,,,,,,,,6,Slow,short,d,1,2.104,7,3,31,0,1,,,,,
,1.42,,,,,,,,,f,blue,58fd1e751178370001dd35bb,2021-09-27_17h06.33.301,forced_choiceRT_color,2021.2.3,Win32,20.00080003,,,,,,,,6,Slow,short,f,1,2.416,8,0,32,1,1,,,,,
,0.57,,,,,,,,,k,purple,58fd1e751178370001dd35bb,2021-09-27_17h06.33.301,forced_choiceRT_color,2021.2.3,Win32,20.00080003,,,,,,,,6,Ontime,short,k,1,2.005,8,1,33,3,1,,,,,
,0.86,,,,,,,,,j,red,58fd1e751178370001dd35bb,2021-09-27_17h06.33.301,forced_choiceRT_color,2021.2.3,Win32,20.00080003,,,,,,,,6,Fast,short,j,1,1.801,8,2,34,2,1,,,,,
,0.8,,,,,,,,,f,blue,58fd1e751178370001dd35bb,2021-09-27_17h06.33.301,forced_choiceRT_color,2021.2.3,Win32,20.00080003,,,,,,,,6,Fast,short,f,1,1.618,8,3,35,1,1,,,,,
,1.14,,,,,,,,,f,blue,58fd1e751178370001dd35bb,2021-09-27_17h06.33.301,forced_choiceRT_color,2021.2.3,Win32,20.00080003,,,,,,,,6,Fast,short,f,1,1.767,9,0,36,1,1,,,,,
,0.57,,,,,,,,,d,orange,58fd1e751178370001dd35bb,2021-09-27_17h06.33.301,forced_choiceRT_color,2021.2.3,Win32,20.00080003,,,,,,,,6,Fast,short,d,1,1.365,9,1,37,0,1,,,,,
,1.85,,,,,,,,,j,red,58fd1e751178370001dd35bb,2021-09-27_17h06.33.301,forced_choiceRT_color,2021.2.3,Win32,20.00080003,,,,,,,,6,Slow,short,j,1,2.389,9,2,38,2,1,,,,,
,0.58,,,,,,,,,k,purple,58fd1e751178370001dd35bb,2021-09-27_17h06.33.301,forced_choiceRT_color,2021.2.3,Win32,20.00080003,,,,,,,,6,Fast,short,k,1,1.546,9,3,39,3,1,,,,,
,,,,,,,,,,,,58fd1e751178370001dd35bb,2021-09-27_17h06.33.301,forced_choiceRT_color,2021.2.3,Win32,20.00080003,,,,,,,,,,,,,,,,,,,5,0,5,0,1
,0.55,,,,,,,,,j,red,58fd1e751178370001dd35bb,2021-09-27_17h06.33.301,forced_choiceRT_color,2021.2.3,Win32,20.00080003,,,,,,,,7,Ontime,short,j,1,2.1,0,0,0,2,1,,,,,
,1.99,,,,,,,,,k,purple,58fd1e751178370001dd35bb,2021-09-27_17h06.33.301,forced_choiceRT_color,2021.2.3,Win32,20.00080003,,,,,,,,7,Slow,short,k,1,2.677,0,1,1,3,1,,,,,
,1.78,,,,,,,,,f,blue,58fd1e751178370001dd35bb,2021-09-27_17h06.33.301,forced_choiceRT_color,2021.2.3,Win32,20.00080003,,,,,,,,7,Slow,short,f,1,2.333,0,2,2,1,1,,,,,
,1.72,,,,,,,,,k,purple,58fd1e751178370001dd35bb,2021-09-27_17h06.33.301,forced_choiceRT_color,2021.2.3,Win32,20.00080003,,,,,,,,7,Slow,short,k,1,2.77,0,3,3,3,1,,,,,
,1.81,,,,,,,,,k,purple,58fd1e751178370001dd35bb,2021-09-27_17h06.33.301,forced_choiceRT_color,2021.2.3,Win32,20.00080003,,,,,,,,7,Slow,short,k,1,2.511,1,0,4,3,1,,,,,
,0.76,,,,,,,,,j,red,58fd1e751178370001dd35bb,2021-09-27_17h06.33.301,forced_choiceRT_color,2021.2.3,Win32,20.00080003,,,,,,,,7,Ontime,short,j,1,1.943,1,1,5,2,1,,,,,
,1.8,,,,,,,,,d,orange,58fd1e751178370001dd35bb,2021-09-27_17h06.33.301,forced_choiceRT_color,2021.2.3,Win32,20.00080003,,,,,,,,7,Slow,short,d,1,2.677,1,2,6,0,1,,,,,
,0.32,,,,,,,,,j,red,58fd1e751178370001dd35bb,2021-09-27_17h06.33.301,forced_choiceRT_color,2021.2.3,Win32,20.00080003,,,,,,,,7,Ontime,short,j,1,1.976,1,3,7,2,1,,,,,
,1.61,,,,,,,,,d,orange,58fd1e751178370001dd35bb,2021-09-27_17h06.33.301,forced_choiceRT_color,2021.2.3,Win32,20.00080003,,,,,,,,7,Slow,short,d,1,2.586,2,0,8,0,1,,,,,
,1.53,,,,,,,,,k,purple,58fd1e751178370001dd35bb,2021-09-27_17h06.33.301,forced_choiceRT_color,2021.2.3,Win32,20.00080003,,,,,,,,7,Slow,short,k,1,2.263,2,1,9,3,1,,,,,
,0.21,,,,,,,,,f,blue,58fd1e751178370001dd35bb,2021-09-27_17h06.33.301,forced_choiceRT_color,2021.2.3,Win32,20.00080003,,,,,,,,7,Fast,short,f,1,1.719,2,2,10,1,1,,,,,
,0.83,,,,,,,,,k,purple,58fd1e751178370001dd35bb,2021-09-27_17h06.33.301,forced_choiceRT_color,2021.2.3,Win32,20.00080003,,,,,,,,7,Slow,short,k,1,2.185,2,3,11,3,1,,,,,
,1.71,,,,,,,,,j,red,58fd1e751178370001dd35bb,2021-09-27_17h06.33.301,forced_choiceRT_color,2021.2.3,Win32,20.00080003,,,,,,,,7,Slow,short,j,1,2.9,3,0,12,2,1,,,,,
,0.69,,,,,,,,,k,purple,58fd1e751178370001dd35bb,2021-09-27_17h06.33.301,forced_choiceRT_color,2021.2.3,Win32,20.00080003,,,,,,,,7,Slow,short,k,1,2.247,3,1,13,3,1,,,,,
,0.27,,,,,,,,,f,blue,58fd1e751178370001dd35bb,2021-09-27_17h06.33.301,forced_choiceRT_color,2021.2.3,Win32,20.00080003,,,,,,,,7,Fast,short,f,1,1.62,3,2,14,1,1,,,,,
,1.53,,,,,,,,,d,orange,58fd1e751178370001dd35bb,2021-09-27_17h06.33.301,forced_choiceRT_color,2021.2.3,Win32,20.00080003,,,,,,,,7,Slow,short,d,1,2.354,3,3,15,0,1,,,,,
,1.41,,,,,,,,,j,red,58fd1e751178370001dd35bb,2021-09-27_17h06.33.301,forced_choiceRT_color,2021.2.3,Win32,20.00080003,,,,,,,,7,Slow,short,j,1,2.572,4,0,16,2,1,,,,,
,0.29,,,,,,,,,d,orange,58fd1e751178370001dd35bb,2021-09-27_17h06.33.301,forced_choiceRT_color,2021.2.3,Win32,20.00080003,,,,,,,,7,Ontime,short,d,1,2.054,4,1,17,0,1,,,,,
,0.47,,,,,,,,,f,blue,58fd1e751178370001dd35bb,2021-09-27_17h06.33.301,forced_choiceRT_color,2021.2.3,Win32,20.00080003,,,,,,,,7,Slow,short,f,1,2.19,4,2,18,1,1,,,,,
,1.85,,,,,,,,,d,orange,58fd1e751178370001dd35bb,2021-09-27_17h06.33.301,forced_choiceRT_color,2021.2.3,Win32,20.00080003,,,,,,,,7,Slow,short,d,1,2.787,4,3,19,0,1,,,,,
,0.26,,,,,,,,,f,blue,58fd1e751178370001dd35bb,2021-09-27_17h06.33.301,forced_choiceRT_color,2021.2.3,Win32,20.00080003,,,,,,,,7,Ontime,short,f,1,1.985,5,0,20,1,1,,,,,
,1.72,,,,,,,,,j,red,58fd1e751178370001dd35bb,2021-09-27_17h06.33.301,forced_choiceRT_color,2021.2.3,Win32,20.00080003,,,,,,,,7,Slow,short,j,1,2.56,5,1,21,2,1,,,,,
,1.84,,,,,,,,,k,purple,58fd1e751178370001dd35bb,2021-09-27_17h06.33.301,forced_choiceRT_color,2021.2.3,Win32,20.00080003,,,,,,,,7,Slow,short,k,1,2.886,5,2,22,3,1,,,,,
,1.43,,,,,,,,,f,blue,58fd1e751178370001dd35bb,2021-09-27_17h06.33.301,forced_choiceRT_color,2021.2.3,Win32,20.00080003,,,,,,,,7,Slow,short,f,1,2.423,5,3,23,1,1,,,,,
,0.03,,,,,,,,,d,orange,58fd1e751178370001dd35bb,2021-09-27_17h06.33.301,forced_choiceRT_color,2021.2.3,Win32,20.00080003,,,,,,,,7,Fast,short,d,1,1.731,6,0,24,0,1,,,,,
,0.4,,,,,,,,,j,red,58fd1e751178370001dd35bb,2021-09-27_17h06.33.301,forced_choiceRT_color,2021.2.3,Win32,20.00080003,,,,,,,,7,Ontime,short,j,1,2.029,6,1,25,2,1,,,,,
,0.43,,,,,,,,,j,red,58fd1e751178370001dd35bb,2021-09-27_17h06.33.301,forced_choiceRT_color,2021.2.3,Win32,20.00080003,,,,,,,,7,Slow,short,j,1,2.14,6,2,26,2,1,,,,,
,1.19,,,,,,,,,d,orange,58fd1e751178370001dd35bb,2021-09-27_17h06.33.301,forced_choiceRT_color,2021.2.3,Win32,20.00080003,,,,,,,,7,Ontime,short,d,1,1.952,6,3,27,0,1,,,,,
,0.32,,,,,,,,,f,blue,58fd1e751178370001dd35bb,2021-09-27_17h06.33.301,forced_choiceRT_color,2021.2.3,Win32,20.00080003,,,,,,,,7,Fast,short,f,1,1.86,7,0,28,1,1,,,,,
,1.83,,,,,,,,,j,red,58fd1e751178370001dd35bb,2021-09-27_17h06.33.301,forced_choiceRT_color,2021.2.3,Win32,20.00080003,,,,,,,,7,Slow,short,j,1,2.689,7,1,29,2,1,,,,,
,0.14,,,,,,,,,f,blue,58fd1e751178370001dd35bb,2021-09-27_17h06.33.301,forced_choiceRT_color,2021.2.3,Win32,20.00080003,,,,,,,,7,Fast,short,f,1,1.681,7,2,30,1,1,,,,,
,0.78,,,,,,,,,d,orange,58fd1e751178370001dd35bb,2021-09-27_17h06.33.301,forced_choiceRT_color,2021.2.3,Win32,20.00080003,,,,,,,,7,Ontime,short,d,1,2.08,7,3,31,0,1,,,,,
,1.73,,,,,,,,,k,purple,58fd1e751178370001dd35bb,2021-09-27_17h06.33.301,forced_choiceRT_color,2021.2.3,Win32,20.00080003,,,,,,,,7,Slow,short,j,0,2.648,8,0,32,3,1,,,,,
,1.07,,,,,,,,,f,blue,58fd1e751178370001dd35bb,2021-09-27_17h06.33.301,forced_choiceRT_color,2021.2.3,Win32,20.00080003,,,,,,,,7,Fast,short,f,1,1.853,8,1,33,1,1,,,,,
,0.88,,,,,,,,,f,blue,58fd1e751178370001dd35bb,2021-09-27_17h06.33.301,forced_choiceRT_color,2021.2.3,Win32,20.00080003,,,,,,,,7,Ontime,short,f,1,2.09,8,2,34,1,1,,,,,
,1.67,,,,,,,,,d,orange,58fd1e751178370001dd35bb,2021-09-27_17h06.33.301,forced_choiceRT_color,2021.2.3,Win32,20.00080003,,,,,,,,7,Slow,short,d,1,2.949,8,3,35,0,1,,,,,
,0.56,,,,,,,,,d,orange,58fd1e751178370001dd35bb,2021-09-27_17h06.33.301,forced_choiceRT_color,2021.2.3,Win32,20.00080003,,,,,,,,7,Ontime,short,d,1,1.926,9,0,36,0,1,,,,,
,0.86,,,,,,,,,k,purple,58fd1e751178370001dd35bb,2021-09-27_17h06.33.301,forced_choiceRT_color,2021.2.3,Win32,20.00080003,,,,,,,,7,Ontime,short,k,1,2.069,9,1,37,3,1,,,,,
,1.67,,,,,,,,,j,red,58fd1e751178370001dd35bb,2021-09-27_17h06.33.301,forced_choiceRT_color,2021.2.3,Win32,20.00080003,,,,,,,,7,Slow,short,j,1,2.339,9,2,38,2,1,,,,,
,1.41,,,,,,,,,k,purple,58fd1e751178370001dd35bb,2021-09-27_17h06.33.301,forced_choiceRT_color,2021.2.3,Win32,20.00080003,,,,,,,,7,Slow,short,d,0,2.188,9,3,39,3,1,,,,,
,,,,,,,,,,,,58fd1e751178370001dd35bb,2021-09-27_17h06.33.301,forced_choiceRT_color,2021.2.3,Win32,20.00080003,,,,,,,,,,,,,,,,,,,6,0,6,0,1
,0.64,,,,,,,,,k,purple,58fd1e751178370001dd35bb,2021-09-27_17h06.33.301,forced_choiceRT_color,2021.2.3,Win32,20.00080003,,,,,,,,8,Slow,short,k,1,3.642,0,0,0,3,1,,,,,
,1.42,,,,,,,,,j,red,58fd1e751178370001dd35bb,2021-09-27_17h06.33.301,forced_choiceRT_color,2021.2.3,Win32,20.00080003,,,,,,,,8,Slow,short,j,1,2.345,0,1,1,2,1,,,,,
,0.93,,,,,,,,,f,blue,58fd1e751178370001dd35bb,2021-09-27_17h06.33.301,forced_choiceRT_color,2021.2.3,Win32,20.00080003,,,,,,,,8,Fast,short,f,1,1.801,0,2,2,1,1,,,,,
,1.76,,,,,,,,,k,purple,58fd1e751178370001dd35bb,2021-09-27_17h06.33.301,forced_choiceRT_color,2021.2.3,Win32,20.00080003,,,,,,,,8,Slow,short,j,0,2.651,0,3,3,3,1,,,,,
,0.96,,,,,,,,,k,purple,58fd1e751178370001dd35bb,2021-09-27_17h06.33.301,forced_choiceRT_color,2021.2.3,Win32,20.00080003,,,,,,,,8,Fast,short,k,1,1.7,1,0,4,3,1,,,,,
,1.39,,,,,,,,,k,purple,58fd1e751178370001dd35bb,2021-09-27_17h06.33.301,forced_choiceRT_color,2021.2.3,Win32,20.00080003,,,,,,,,8,Ontime,short,k,1,2.032,1,1,5,3,1,,,,,
,0.6,,,,,,,,,d,orange,58fd1e751178370001dd35bb,2021-09-27_17h06.33.301,forced_choiceRT_color,2021.2.3,Win32,20.00080003,,,,,,,,8,Fast,short,d,1,1.758,1,2,6,0,1,,,,,
,1.22,,,,,,,,,d,orange,58fd1e751178370001dd35bb,2021-09-27_17h06.33.301,forced_choiceRT_color,2021.2.3,Win32,20.00080003,,,,,,,,8,Fast,short,d,1,1.86,1,3,7,0,1,,,,,
,1.73,,,,,,,,,d,orange,58fd1e751178370001dd35bb,2021-09-27_17h06.33.301,forced_choiceRT_color,2021.2.3,Win32,20.00080003,,,,,,,,8,Slow,short,d,1,2.473,2,0,8,0,1,,,,,
,1.5,,,,,,,,,d,orange,58fd1e751178370001dd35bb,2021-09-27_17h06.33.301,forced_choiceRT_color,2021.2.3,Win32,20.00080003,,,,,,,,8,Slow,short,d,1,2.369,2,1,9,0,1,,,,,
,1.43,,,,,,,,,f,blue,58fd1e751178370001dd35bb,2021-09-27_17h06.33.301,forced_choiceRT_color,2021.2.3,Win32,20.00080003,,,,,,,,8,Slow,short,f,1,2.217,2,2,10,1,1,,,,,
,1.74,,,,,,,,,j,red,58fd1e751178370001dd35bb,2021-09-27_17h06.33.301,forced_choiceRT_color,2021.2.3,Win32,20.00080003,,,,,,,,8,Slow,short,j,1,2.332,2,3,11,2,1,,,,,
,0.29,,,,,,,,,f,blue,58fd1e751178370001dd35bb,2021-09-27_17h06.33.301,forced_choiceRT_color,2021.2.3,Win32,20.00080003,,,,,,,,8,Fast,short,f,1,1.695,3,0,12,1,1,,,,,
,1.05,,,,,,,,,j,red,58fd1e751178370001dd35bb,2021-09-27_17h06.33.301,forced_choiceRT_color,2021.2.3,Win32,20.00080003,,,,,,,,8,Fast,short,j,1,1.878,3,1,13,2,1,,,,,
,1.49,,,,,,,,,d,orange,58fd1e751178370001dd35bb,2021-09-27_17h06.33.301,forced_choiceRT_color,2021.2.3,Win32,20.00080003,,,,,,,,8,Slow,short,d,1,2.359,3,2,14,0,1,,,,,
,1.37,,,,,,,,,d,orange,58fd1e751178370001dd35bb,2021-09-27_17h06.33.301,forced_choiceRT_color,2021.2.3,Win32,20.00080003,,,,,,,,8,Ontime,short,d,1,2.023,3,3,15,0,1,,,,,
,0.11,,,,,,,,,k,purple,58fd1e751178370001dd35bb,2021-09-27_17h06.33.301,forced_choiceRT_color,2021.2.3,Win32,20.00080003,,,,,,,,8,Fast,short,k,1,1.611,4,0,16,3,1,,,,,
,0.39,,,,,,,,,k,purple,58fd1e751178370001dd35bb,2021-09-27_17h06.33.301,forced_choiceRT_color,2021.2.3,Win32,20.00080003,,,,,,,,8,Fast,short,k,1,1.85,4,1,17,3,1,,,,,
,0.23,,,,,,,,,k,purple,58fd1e751178370001dd35bb,2021-09-27_17h06.33.301,forced_choiceRT_color,2021.2.3,Win32,20.00080003,,,,,,,,8,Ontime,short,k,1,1.961,4,2,18,3,1,,,,,
,0.88,,,,,,,,,d,orange,58fd1e751178370001dd35bb,2021-09-27_17h06.33.301,forced_choiceRT_color,2021.2.3,Win32,20.00080003,,,,,,,,8,Slow,short,d,1,2.135,4,3,19,0,1,,,,,
,0.68,,,,,,,,,f,blue,58fd1e751178370001dd35bb,2021-09-27_17h06.33.301,forced_choiceRT_color,2021.2.3,Win32,20.00080003,,,,,,,,8,Ontime,short,f,1,1.908,5,0,20,1,1,,,,,
,1.85,,,,,,,,,d,orange,58fd1e751178370001dd35bb,2021-09-27_17h06.33.301,forced_choiceRT_color,2021.2.3,Win32,20.00080003,,,,,,,,8,Slow,short,d,1,2.77,5,1,21,0,1,,,,,
,1.18,,,,,,,,,f,blue,58fd1e751178370001dd35bb,2021-09-27_17h06.33.301,forced_choiceRT_color,2021.2.3,Win32,20.00080003,,,,,,,,8,Ontime,short,f,1,2.077,5,2,22,1,1,,,,,
,0.71,,,,,,,,,k,purple,58fd1e751178370001dd35bb,2021-09-27_17h06.33.301,forced_choiceRT_color,2021.2.3,Win32,20.00080003,,,,,,,,8,Slow,short,j,0,2.165,5,3,23,3,1,,,,,
,0.42,,,,,,,,,f,blue,58fd1e751178370001dd35bb,2021-09-27_17h06.33.301,forced_choiceRT_color,2021.2.3,Win32,20.00080003,,,,,,,,8,Slow,short,f,1,2.125,6,0,24,1,1,,,,,
,1.24,,,,,,,,,k,purple,58fd1e751178370001dd35bb,2021-09-27_17h06.33.301,forced_choiceRT_color,2021.2.3,Win32,20.00080003,,,,,,,,8,Slow,short,k,1,2.116,6,1,25,3,1,,,,,
,1.53,,,,,,,,,f,blue,58fd1e751178370001dd35bb,2021-09-27_17h06.33.301,forced_choiceRT_color,2021.2.3,Win32,20.00080003,,,,,,,,8,Slow,short,f,1,2.34,6,2,26,1,1,,,,,
,1.54,,,,,,,,,j,red,58fd1e751178370001dd35bb,2021-09-27_17h06.33.301,forced_choiceRT_color,2021.2.3,Win32,20.00080003,,,,,,,,8,Slow,short,j,1,2.269,6,3,27,2,1,,,,,
,1.81,,,,,,,,,j,red,58fd1e751178370001dd35bb,2021-09-27_17h06.33.301,forced_choiceRT_color,2021.2.3,Win32,20.00080003,,,,,,,,8,Slow,short,j,1,2.711,7,0,28,2,1,,,,,
,0.87,,,,,,,,,j,red,58fd1e751178370001dd35bb,2021-09-27_17h06.33.301,forced_choiceRT_color,2021.2.3,Win32,20.00080003,,,,,,,,8,Fast,short,j,1,1.619,7,1,29,2,1,,,,,
,0.24,,,,,,,,,f,blue,58fd1e751178370001dd35bb,2021-09-27_17h06.33.301,forced_choiceRT_color,2021.2.3,Win32,20.00080003,,,,,,,,8,Ontime,short,f,1,1.989,7,2,30,1,1,,,,,
,0.5,,,,,,,,,j,red,58fd1e751178370001dd35bb,2021-09-27_17h06.33.301,forced_choiceRT_color,2021.2.3,Win32,20.00080003,,,,,,,,8,Slow,short,j,1,2.327,7,3,31,2,1,,,,,
,0.32,,,,,,,,,d,orange,58fd1e751178370001dd35bb,2021-09-27_17h06.33.301,forced_choiceRT_color,2021.2.3,Win32,20.00080003,,,,,,,,8,Slow,short,d,1,2.281,8,0,32,0,1,,,,,
,1.02,,,,,,,,,f,blue,58fd1e751178370001dd35bb,2021-09-27_17h06.33.301,forced_choiceRT_color,2021.2.3,Win32,20.00080003,,,,,,,,8,Slow,short,f,1,2.456,8,1,33,1,1,,,,,
,1.38,,,,,,,,,d,orange,58fd1e751178370001dd35bb,2021-09-27_17h06.33.301,forced_choiceRT_color,2021.2.3,Win32,20.00080003,,,,,,,,8,Slow,short,d,1,2.26,8,2,34,0,1,,,,,
,0.61,,,,,,,,,f,blue,58fd1e751178370001dd35bb,2021-09-27_17h06.33.301,forced_choiceRT_color,2021.2.3,Win32,20.00080003,,,,,,,,8,Fast,short,f,1,1.368,8,3,35,1,1,,,,,
,1.06,,,,,,,,,j,red,58fd1e751178370001dd35bb,2021-09-27_17h06.33.301,forced_choiceRT_color,2021.2.3,Win32,20.00080003,,,,,,,,8,Fast,short,k,0,1.715,9,0,36,2,1,,,,,
,1.34,,,,,,,,,k,purple,58fd1e751178370001dd35bb,2021-09-27_17h06.33.301,forced_choiceRT_color,2021.2.3,Win32,20.00080003,,,,,,,,8,Slow,short,k,1,2.13,9,1,37,3,1,,,,,
,1.68,,,,,,,,,j,red,58fd1e751178370001dd35bb,2021-09-27_17h06.33.301,forced_choiceRT_color,2021.2.3,Win32,20.00080003,,,,,,,,8,Slow,short,j,1,2.284,9,2,38,2,1,,,,,
,1.06,,,,,,,,,j,red,58fd1e751178370001dd35bb,2021-09-27_17h06.33.301,forced_choiceRT_color,2021.2.3,Win32,20.00080003,,,,,,,,8,Fast,short,j,1,1.851,9,3,39,2,1,,,,,
,,,,,,,,,,,,58fd1e751178370001dd35bb,2021-09-27_17h06.33.301,forced_choiceRT_color,2021.2.3,Win32,20.00080003,,,,,,,,,,,,,,,,,,,7,0,7,0,1
,1.12,,,,,,,,,d,orange,58fd1e751178370001dd35bb,2021-09-27_17h06.33.301,forced_choiceRT_color,2021.2.3,Win32,20.00080003,,,,,,,,9,Slow,short,d,1,2.351,0,0,0,0,1,,,,,
,1.35,,,,,,,,,k,purple,58fd1e751178370001dd35bb,2021-09-27_17h06.33.301,forced_choiceRT_color,2021.2.3,Win32,20.00080003,,,,,,,,9,Slow,short,k,1,2.286,0,1,1,3,1,,,,,
,1.44,,,,,,,,,k,purple,58fd1e751178370001dd35bb,2021-09-27_17h06.33.301,forced_choiceRT_color,2021.2.3,Win32,20.00080003,,,,,,,,9,Slow,short,k,1,2.211,0,2,2,3,1,,,,,
,0.81,,,,,,,,,j,red,58fd1e751178370001dd35bb,2021-09-27_17h06.33.301,forced_choiceRT_color,2021.2.3,Win32,20.00080003,,,,,,,,9,Fast,short,j,1,1.643,0,3,3,2,1,,,,,
,0.62,,,,,,,,,f,blue,58fd1e751178370001dd35bb,2021-09-27_17h06.33.301,forced_choiceRT_color,2021.2.3,Win32,20.00080003,,,,,,,,9,Fast,short,f,1,1.455,1,0,4,1,1,,,,,
,1.72,,,,,,,,,d,orange,58fd1e751178370001dd35bb,2021-09-27_17h06.33.301,forced_choiceRT_color,2021.2.3,Win32,20.00080003,,,,,,,,9,Slow,short,d,1,2.504,1,1,5,0,1,,,,,
,0.08,,,,,,,,,j,red,58fd1e751178370001dd35bb,2021-09-27_17h06.33.301,forced_choiceRT_color,2021.2.3,Win32,20.00080003,,,,,,,,9,Fast,short,j,1,1.606,1,2,6,2,1,,,,,
,0.7,,,,,,,,,d,orange,58fd1e751178370001dd35bb,2021-09-27_17h06.33.301,forced_choiceRT_color,2021.2.3,Win32,20.00080003,,,,,,,,9,Ontime,short,d,1,1.91,1,3,7,0,1,,,,,
,0.44,,,,,,,,,k,purple,58fd1e751178370001dd35bb,2021-09-27_17h06.33.301,forced_choiceRT_color,2021.2.3,Win32,20.00080003,,,,,,,,9,Ontime,short,k,1,2.09,2,0,8,3,1,,,,,
,0.53,,,,,,,,,k,purple,58fd1e751178370001dd35bb,2021-09-27_17h06.33.301,forced_choiceRT_color,2021.2.3,Win32,20.00080003,,,,,,,,9,Slow,short,k,1,2.184,2,1,9,3,1,,,,,
,1.18,,,,,,,,,d,orange,58fd1e751178370001dd35bb,2021-09-27_17h06.33.301,forced_choiceRT_color,2021.2.3,Win32,20.00080003,,,,,,,,9,Ontime,short,f,0,2.052,2,2,10,0,1,,,,,
,0.61,,,,,,,,,k,purple,58fd1e751178370001dd35bb,2021-09-27_17h06.33.301,forced_choiceRT_color,2021.2.3,Win32,20.00080003,,,,,,,,9,Ontime,short,k,1,2.023,2,3,11,3,1,,,,,
,1.51,,,,,,,,,d,orange,58fd1e751178370001dd35bb,2021-09-27_17h06.33.301,forced_choiceRT_color,2021.2.3,Win32,20.00080003,,,,,,,,9,Slow,short,d,1,2.175,3,0,12,0,1,,,,,
,0.17,,,,,,,,,d,orange,58fd1e751178370001dd35bb,2021-09-27_17h06.33.301,forced_choiceRT_color,2021.2.3,Win32,20.00080003,,,,,,,,9,Fast,short,d,1,1.871,3,1,13,0,1,,,,,
,0.74,,,,,,,,,k,purple,58fd1e751178370001dd35bb,2021-09-27_17h06.33.301,forced_choiceRT_color,2021.2.3,Win32,20.00080003,,,,,,,,9,Fast,short,k,1,1.89,3,2,14,3,1,,,,,
,0.7,,,,,,,,,k,purple,58fd1e751178370001dd35bb,2021-09-27_17h06.33.301,forced_choiceRT_color,2021.2.3,Win32,20.00080003,,,,,,,,9,Ontime,short,k,1,1.993,3,3,15,3,1,,,,,
,1.08,,,,,,,,,f,blue,58fd1e751178370001dd35bb,2021-09-27_17h06.33.301,forced_choiceRT_color,2021.2.3,Win32,20.00080003,,,,,,,,9,Slow,short,f,1,2.176,4,0,16,1,1,,,,,
,0.44,,,,,,,,,f,blue,58fd1e751178370001dd35bb,2021-09-27_17h06.33.301,forced_choiceRT_color,2021.2.3,Win32,20.00080003,,,,,,,,9,Fast,short,f,1,1.741,4,1,17,1,1,,,,,
,1.45,,,,,,,,,f,blue,58fd1e751178370001dd35bb,2021-09-27_17h06.33.301,forced_choiceRT_color,2021.2.3,Win32,20.00080003,,,,,,,,9,Slow,short,f,1,2.256,4,2,18,1,1,,,,,
,1.31,,,,,,,,,f,blue,58fd1e751178370001dd35bb,2021-09-27_17h06.33.301,forced_choiceRT_color,2021.2.3,Win32,20.00080003,,,,,,,,9,Ontime,short,f,1,2.033,4,3,19,1,1,,,,,
,1.24,,,,,,,,,f,blue,58fd1e751178370001dd35bb,2021-09-27_17h06.33.301,forced_choiceRT_color,2021.2.3,Win32,20.00080003,,,,,,,,9,Fast,short,f,1,1.883,5,0,20,1,1,,,,,
,0.59,,,,,,,,,j,red,58fd1e751178370001dd35bb,2021-09-27_17h06.33.301,forced_choiceRT_color,2021.2.3,Win32,20.00080003,,,,,,,,9,Fast,short,j,1,1.809,5,1,21,2,1,,,,,
,0.3,,,,,,,,,k,purple,58fd1e751178370001dd35bb,2021-09-27_17h06.33.301,forced_choiceRT_color,2021.2.3,Win32,20.00080003,,,,,,,,9,Fast,short,k,1,1.858,5,2,22,3,1,,,,,
,0.51,,,,,,,,,f,blue,58fd1e751178370001dd35bb,2021-09-27_17h06.33.301,forced_choiceRT_color,2021.2.3,Win32,20.00080003,,,,,,,,9,Fast,short,f,1,1.839,5,3,23,1,1,,,,,
,1.09,,,,,,,,,k,purple,58fd1e751178370001dd35bb,2021-09-27_17h06.33.301,forced_choiceRT_color,2021.2.3,Win32,20.00080003,,,,,,,,9,Slow,short,k,1,2.231,6,0,24,3,1,,,,,
,1.63,,,,,,,,,f,blue,58fd1e751178370001dd35bb,2021-09-27_17h06.33.301,forced_choiceRT_color,2021.2.3,Win32,20.00080003,,,,,,,,9,Slow,short,f,1,2.508,6,1,25,1,1,,,,,
,0.12,,,,,,,,,d,orange,58fd1e751178370001dd35bb,2021-09-27_17h06.33.301,forced_choiceRT_color,2021.2.3,Win32,20.00080003,,,,,,,,9,Fast,short,d,1,1.794,6,2,26,0,1,,,,,
,1.1,,,,,,,,,j,red,58fd1e751178370001dd35bb,2021-09-27_17h06.33.301,forced_choiceRT_color,2021.2.3,Win32,20.00080003,,,,,,,,9,Ontime,short,j,1,1.948,6,3,27,2,1,,,,,
,1.27,,,,,,,,,j,red,58fd1e751178370001dd35bb,2021-09-27_17h06.33.301,forced_choiceRT_color,2021.2.3,Win32,20.00080003,,,,,,,,9,Ontime,short,j,1,1.945,7,0,28,2,1,,,,,
,1.07,,,,,,,,,f,blue,58fd1e751178370001dd35bb,2021-09-27_17h06.33.301,forced_choiceRT_color,2021.2.3,Win32,20.00080003,,,,,,,,9,Fast,short,f,1,1.872,7,1,29,1,1,,,,,
,0.44,,,,,,,,,j,red,58fd1e751178370001dd35bb,2021-09-27_17h06.33.301,forced_choiceRT_color,2021.2.3,Win32,20.00080003,,,,,,,,9,Fast,short,j,1,1.192,7,2,30,2,1,,,,,
,1.36,,,,,,,,,d,orange,58fd1e751178370001dd35bb,2021-09-27_17h06.33.301,forced_choiceRT_color,2021.2.3,Win32,20.00080003,,,,,,,,9,Slow,short,d,1,2.104,7,3,31,0,1,,,,,
,1.2,,,,,,,,,j,red,58fd1e751178370001dd35bb,2021-09-27_17h06.33.301,forced_choiceRT_color,2021.2.3,Win32,20.00080003,,,,,,,,9,Slow,short,j,1,2.123,8,0,32,2,1,,,,,
,1.28,,,,,,,,,f,blue,58fd1e751178370001dd35bb,2021-09-27_17h06.33.301,forced_choiceRT_color,2021.2.3,Win32,20.00080003,,,,,,,,9,Slow,short,f,1,2.196,8,1,33,1,1,,,,,
,1.5,,,,,,,,,d,orange,58fd1e751178370001dd35bb,2021-09-27_17h06.33.301,forced_choiceRT_color,2021.2.3,Win32,20.00080003,,,,,,,,9,Slow,short,d,1,2.965,8,2,34,0,1,,,,,
,1.83,,,,,,,,,k,purple,58fd1e751178370001dd35bb,2021-09-27_17h06.33.301,forced_choiceRT_color,2021.2.3,Win32,20.00080003,,,,,,,,9,Slow,short,k,1,2.401,8,3,35,3,1,,,,,
,1.66,,,,,,,,,j,red,58fd1e751178370001dd35bb,2021-09-27_17h06.33.301,forced_choiceRT_color,2021.2.3,Win32,20.00080003,,,,,,,,9,Slow,short,j,1,2.569,9,0,36,2,1,,,,,
,0.84,,,,,,,,,j,red,58fd1e751178370001dd35bb,2021-09-27_17h06.33.301,forced_choiceRT_color,2021.2.3,Win32,20.00080003,,,,,,,,9,Ontime,short,j,1,2.079,9,1,37,2,1,,,,,
,0.43,,,,,,,,,j,red,58fd1e751178370001dd35bb,2021-09-27_17h06.33.301,forced_choiceRT_color,2021.2.3,Win32,20.00080003,,,,,,,,9,Fast,short,j,1,1.867,9,2,38,2,1,,,,,
,0.23,,,,,,,,,d,orange,58fd1e751178370001dd35bb,2021-09-27_17h06.33.301,forced_choiceRT_color,2021.2.3,Win32,20.00080003,,,,,,,,9,Ontime,short,d,1,1.911,9,3,39,0,1,,,,,
,,,,,,,,,,,,58fd1e751178370001dd35bb,2021-09-27_17h06.33.301,forced_choiceRT_color,2021.2.3,Win32,20.00080003,,,,,,,,,,,,,,,,,,,8,0,8,0,1
,0.02,,,,,,,,,k,purple,58fd1e751178370001dd35bb,2021-09-27_17h06.33.301,forced_choiceRT_color,2021.2.3,Win32,20.00080003,,,,,,,,10,Fast,short,k,1,1.668,0,0,0,3,1,,,,,
,0.38,,,,,,,,,d,orange,58fd1e751178370001dd35bb,2021-09-27_17h06.33.301,forced_choiceRT_color,2021.2.3,Win32,20.00080003,,,,,,,,10,Fast,short,d,1,1.835,0,1,1,0,1,,,,,
,0.52,,,,,,,,,f,blue,58fd1e751178370001dd35bb,2021-09-27_17h06.33.301,forced_choiceRT_color,2021.2.3,Win32,20.00080003,,,,,,,,10,Fast,short,f,1,1.431,0,2,2,1,1,,,,,
,1.76,,,,,,,,,k,purple,58fd1e751178370001dd35bb,2021-09-27_17h06.33.301,forced_choiceRT_color,2021.2.3,Win32,20.00080003,,,,,,,,10,Slow,short,k,1,2.588,0,3,3,3,1,,,,,
,1.46,,,,,,,,,j,red,58fd1e751178370001dd35bb,2021-09-27_17h06.33.301,forced_choiceRT_color,2021.2.3,Win32,20.00080003,,,,,,,,10,Ontime,short,j,1,2.02,1,0,4,2,1,,,,,
,0.74,,,,,,,,,f,blue,58fd1e751178370001dd35bb,2021-09-27_17h06.33.301,forced_choiceRT_color,2021.2.3,Win32,20.00080003,,,,,,,,10,Ontime,short,f,1,2.018,1,1,5,1,1,,,,,
,0.79,,,,,,,,,k,purple,58fd1e751178370001dd35bb,2021-09-27_17h06.33.301,forced_choiceRT_color,2021.2.3,Win32,20.00080003,,,,,,,,10,Ontime,short,k,1,2.015,1,2,6,3,1,,,,,
,1.1,,,,,,,,,f,blue,58fd1e751178370001dd35bb,2021-09-27_17h06.33.301,forced_choiceRT_color,2021.2.3,Win32,20.00080003,,,,,,,,10,Fast,short,f,1,1.827,1,3,7,1,1,,,,,
,0.32,,,,,,,,,d,orange,58fd1e751178370001dd35bb,2021-09-27_17h06.33.301,forced_choiceRT_color,2021.2.3,Win32,20.00080003,,,,,,,,10,Fast,short,d,1,1.822,2,0,8,0,1,,,,,
,0.09,,,,,,,,,f,blue,58fd1e751178370001dd35bb,2021-09-27_17h06.33.301,forced_choiceRT_color,2021.2.3,Win32,20.00080003,,,,,,,,10,Fast,short,f,1,1.766,2,1,9,1,1,,,,,
,1,,,,,,,,,d,orange,58fd1e751178370001dd35bb,2021-09-27_17h06.33.301,forced_choiceRT_color,2021.2.3,Win32,20.00080003,,,,,,,,10,Slow,short,d,1,2.412,2,2,10,0,1,,,,,
,1.22,,,,,,,,,d,orange,58fd1e751178370001dd35bb,2021-09-27_17h06.33.301,forced_choiceRT_color,2021.2.3,Win32,20.00080003,,,,,,,,10,Ontime,short,d,1,2.063,2,3,11,0,1,,,,,
,1.07,,,,,,,,,j,red,58fd1e751178370001dd35bb,2021-09-27_17h06.33.301,forced_choiceRT_color,2021.2.3,Win32,20.00080003,,,,,,,,10,Ontime,short,j,1,2.063,3,0,12,2,1,,,,,
,1.64,,,,,,,,,f,blue,58fd1e751178370001dd35bb,2021-09-27_17h06.33.301,forced_choiceRT_color,2021.2.3,Win32,20.00080003,,,,,,,,10,Slow,short,f,1,2.334,3,1,13,1,1,,,,,
,1.55,,,,,,,,,d,orange,58fd1e751178370001dd35bb,2021-09-27_17h06.33.301,forced_choiceRT_color,2021.2.3,Win32,20.00080003,,,,,,,,10,Slow,short,d,1,2.345,3,2,14,0,1,,,,,
,1.16,,,,,,,,,j,red,58fd1e751178370001dd35bb,2021-09-27_17h06.33.301,forced_choiceRT_color,2021.2.3,Win32,20.00080003,,,,,,,,10,Ontime,short,j,1,1.97,3,3,15,2,1,,,,,
,1.91,,,,,,,,,j,red,58fd1e751178370001dd35bb,2021-09-27_17h06.33.301,forced_choiceRT_color,2021.2.3,Win32,20.00080003,,,,,,,,10,Slow,short,j,1,2.499,4,0,16,2,1,,,,,
,1.55,,,,,,,,,k,purple,58fd1e751178370001dd35bb,2021-09-27_17h06.33.301,forced_choiceRT_color,2021.2.3,Win32,20.00080003,,,,,,,,10,Slow,short,k,1,2.103,4,1,17,3,1,,,,,
,0.16,,,,,,,,,d,orange,58fd1e751178370001dd35bb,2021-09-27_17h06.33.301,forced_choiceRT_color,2021.2.3,Win32,20.00080003,,,,,,,,10,Ontime,short,d,1,1.959,4,2,18,0,1,,,,,
,1.64,,,,,,,,,j,red,58fd1e751178370001dd35bb,2021-09-27_17h06.33.301,forced_choiceRT_color,2021.2.3,Win32,20.00080003,,,,,,,,10,Slow,short,k,0,2.419,4,3,19,2,1,,,,,
,1.07,,,,,,,,,k,purple,58fd1e751178370001dd35bb,2021-09-27_17h06.33.301,forced_choiceRT_color,2021.2.3,Win32,20.00080003,,,,,,,,10,Fast,short,j,0,1.711,5,0,20,3,1,,,,,
,1.1,,,,,,,,,k,purple,58fd1e751178370001dd35bb,2021-09-27_17h06.33.301,forced_choiceRT_color,2021.2.3,Win32,20.00080003,,,,,,,,10,Fast,short,k,1,1.766,5,1,21,3,1,,,,,
,0.42,,,,,,,,,j,red,58fd1e751178370001dd35bb,2021-09-27_17h06.33.301,forced_choiceRT_color,2021.2.3,Win32,20.00080003,,,,,,,,10,Fast,short,j,1,1.474,5,2,22,2,1,,,,,
,0.25,,,,,,,,,f,blue,58fd1e751178370001dd35bb,2021-09-27_17h06.33.301,forced_choiceRT_color,2021.2.3,Win32,20.00080003,,,,,,,,10,Fast,short,f,1,1.354,5,3,23,1,1,,,,,
,1.21,,,,,,,,,d,orange,58fd1e751178370001dd35bb,2021-09-27_17h06.33.301,forced_choiceRT_color,2021.2.3,Win32,20.00080003,,,,,,,,10,Ontime,short,d,1,2.05,6,0,24,0,1,,,,,
,1.21,,,,,,,,,f,blue,58fd1e751178370001dd35bb,2021-09-27_17h06.33.301,forced_choiceRT_color,2021.2.3,Win32,20.00080003,,,,,,,,10,Fast,short,f,1,1.855,6,1,25,1,1,,,,,
,1.71,,,,,,,,,k,purple,58fd1e751178370001dd35bb,2021-09-27_17h06.33.301,forced_choiceRT_color,2021.2.3,Win32,20.00080003,,,,,,,,10,Slow,short,k,1,2.627,6,2,26,3,1,,,,,
,0.87,,,,,,,,,d,orange,58fd1e751178370001dd35bb,2021-09-27_17h06.33.301,forced_choiceRT_color,2021.2.3,Win32,20.00080003,,,,,,,,10,Ontime,short,f,0,1.986,6,3,27,0,1,,,,,
,0.51,,,,,,,,,j,red,58fd1e751178370001dd35bb,2021-09-27_17h06.33.301,forced_choiceRT_color,2021.2.3,Win32,20.00080003,,,,,,,,10,Slow,short,j,1,2.107,7,0,28,2,1,,,,,
,1.51,,,,,,,,,f,blue,58fd1e751178370001dd35bb,2021-09-27_17h06.33.301,forced_choiceRT_color,2021.2.3,Win32,20.00080003,,,,,,,,10,Slow,short,f,1,2.793,7,1,29,1,1,,,,,
,0.3,,,,,,,,,j,red,58fd1e751178370001dd35bb,2021-09-27_17h06.33.301,forced_choiceRT_color,2021.2.3,Win32,20.00080003,,,,,,,,10,Fast,short,j,1,1.852,7,2,30,2,1,,,,,
,1.23,,,,,,,,,j,red,58fd1e751178370001dd35bb,2021-09-27_17h06.33.301,forced_choiceRT_color,2021.2.3,Win32,20.00080003,,,,,,,,10,Slow,short,j,1,2.597,7,3,31,2,1,,,,,
,1.78,,,,,,,,,k,purple,58fd1e751178370001dd35bb,2021-09-27_17h06.33.301,forced_choiceRT_color,2021.2.3,Win32,20.00080003,,,,,,,,10,Slow,short,k,1,2.931,8,0,32,3,1,,,,,
,0.67,,,,,,,,,f,blue,58fd1e751178370001dd35bb,2021-09-27_17h06.33.301,forced_choiceRT_color,2021.2.3,Win32,20.00080003,,,,,,,,10,Fast,short,f,1,1.649,8,1,33,1,1,,,,,
,1.75,,,,,,,,,k,purple,58fd1e751178370001dd35bb,2021-09-27_17h06.33.301,forced_choiceRT_color,2021.2.3,Win32,20.00080003,,,,,,,,10,Slow,short,k,1,2.563,8,2,34,3,1,,,,,
,1.93,,,,,,,,,f,blue,58fd1e751178370001dd35bb,2021-09-27_17h06.33.301,forced_choiceRT_color,2021.2.3,Win32,20.00080003,,,,,,,,10,Slow,short,f,1,2.857,8,3,35,1,1,,,,,
,1.61,,,,,,,,,d,orange,58fd1e751178370001dd35bb,2021-09-27_17h06.33.301,forced_choiceRT_color,2021.2.3,Win32,20.00080003,,,,,,,,10,Slow,short,d,1,2.315,9,0,36,0,1,,,,,
,1.44,,,,,,,,,j,red,58fd1e751178370001dd35bb,2021-09-27_17h06.33.301,forced_choiceRT_color,2021.2.3,Win32,20.00080003,,,,,,,,10,Slow,short,k,0,2.266,9,1,37,2,1,,,,,
,0.14,,,,,,,,,k,purple,58fd1e751178370001dd35bb,2021-09-27_17h06.33.301,forced_choiceRT_color,2021.2.3,Win32,20.00080003,,,,,,,,10,Fast,short,k,1,1.685,9,2,38,3,1,,,,,
,1.5,,,,,,,,,d,orange,58fd1e751178370001dd35bb,2021-09-27_17h06.33.301,forced_choiceRT_color,2021.2.3,Win32,20.00080003,,,,,,,,10,Slow,short,d,1,2.402,9,3,39,0,1,,,,,
,,,,,,,,,,,,58fd1e751178370001dd35bb,2021-09-27_17h06.33.301,forced_choiceRT_color,2021.2.3,Win32,20.00080003,,,,,,,,,,,,,,,,,,,9,0,9,0,1
