target_onset,trial_resp_sp.keys,trial_resp_sp.corr,trial_resp_sp.rt,trials_train_loop.thisRepN,trials_train_loop.thisTrialN,trials_train_loop.thisN,trials_train_loop.thisIndex,trials_train_loop.ran,correct_key,color,participant,date,expName,psychopyVersion,OS,frameRate,trial_resp_timing.keys,trial_resp_timing.rt,trials_train_timing.thisRepN,trials_train_timing.thisTrialN,trials_train_timing.thisN,trials_train_timing.thisIndex,trials_train_timing.ran,block_id,ontime,feedback_cond,forcedRT_resp.keys,forcedRT_resp.corr,forcedRT_resp.rt,trials.thisRepN,trials.thisTrialN,trials.thisN,trials.thisIndex,trials.ran,blocks.thisRepN,blocks.thisTrialN,blocks.thisN,blocks.thisIndex,blocks.ran
0,k,1,2.1503,0,0,0,3,1,k,purple,596cf4aae2a6a700014cade1,2021-09-27_11h15.14.986,forced_choiceRT_color,2021.2.3,Win32,59.97001499,,,,,,,,,,,,,,,,,,,,,,,
0,d,1,0.8273,0,1,1,0,1,d,orange,596cf4aae2a6a700014cade1,2021-09-27_11h15.14.986,forced_choiceRT_color,2021.2.3,Win32,59.97001499,,,,,,,,,,,,,,,,,,,,,,,
0,j,1,1.2307,0,2,2,2,1,j,red,596cf4aae2a6a700014cade1,2021-09-27_11h15.14.986,forced_choiceRT_color,2021.2.3,Win32,59.97001499,,,,,,,,,,,,,,,,,,,,,,,
0,f,1,0.7518,0,3,3,1,1,f,blue,596cf4aae2a6a700014cade1,2021-09-27_11h15.14.986,forced_choiceRT_color,2021.2.3,Win32,59.97001499,,,,,,,,,,,,,,,,,,,,,,,
0,d,1,0.6725,1,0,4,0,1,d,orange,596cf4aae2a6a700014cade1,2021-09-27_11h15.14.986,forced_choiceRT_color,2021.2.3,Win32,59.97001499,,,,,,,,,,,,,,,,,,,,,,,
0,k,1,0.7593,1,1,5,3,1,k,purple,596cf4aae2a6a700014cade1,2021-09-27_11h15.14.986,forced_choiceRT_color,2021.2.3,Win32,59.97001499,,,,,,,,,,,,,,,,,,,,,,,
0,k,1,0.5736,1,2,6,3,1,k,purple,596cf4aae2a6a700014cade1,2021-09-27_11h15.14.986,forced_choiceRT_color,2021.2.3,Win32,59.97001499,,,,,,,,,,,,,,,,,,,,,,,
0,d,1,0.7028,1,3,7,0,1,d,orange,596cf4aae2a6a700014cade1,2021-09-27_11h15.14.986,forced_choiceRT_color,2021.2.3,Win32,59.97001499,,,,,,,,,,,,,,,,,,,,,,,
0,d,1,0.5748,2,0,8,0,1,d,orange,596cf4aae2a6a700014cade1,2021-09-27_11h15.14.986,forced_choiceRT_color,2021.2.3,Win32,59.97001499,,,,,,,,,,,,,,,,,,,,,,,
0,k,1,0.7351,2,1,9,3,1,k,purple,596cf4aae2a6a700014cade1,2021-09-27_11h15.14.986,forced_choiceRT_color,2021.2.3,Win32,59.97001499,,,,,,,,,,,,,,,,,,,,,,,
0,f,1,0.7448,2,2,10,1,1,f,blue,596cf4aae2a6a700014cade1,2021-09-27_11h15.14.986,forced_choiceRT_color,2021.2.3,Win32,59.97001499,,,,,,,,,,,,,,,,,,,,,,,
0,d,1,0.718,2,3,11,0,1,d,orange,596cf4aae2a6a700014cade1,2021-09-27_11h15.14.986,forced_choiceRT_color,2021.2.3,Win32,59.97001499,,,,,,,,,,,,,,,,,,,,,,,
0,f,1,0.7097,3,0,12,1,1,f,blue,596cf4aae2a6a700014cade1,2021-09-27_11h15.14.986,forced_choiceRT_color,2021.2.3,Win32,59.97001499,,,,,,,,,,,,,,,,,,,,,,,
0,d,1,0.6388,3,1,13,0,1,d,orange,596cf4aae2a6a700014cade1,2021-09-27_11h15.14.986,forced_choiceRT_color,2021.2.3,Win32,59.97001499,,,,,,,,,,,,,,,,,,,,,,,
0,k,1,0.7233,3,2,14,3,1,k,purple,596cf4aae2a6a700014cade1,2021-09-27_11h15.14.986,forced_choiceRT_color,2021.2.3,Win32,59.97001499,,,,,,,,,,,,,,,,,,,,,,,
0,k,1,0.5523,3,3,15,3,1,k,purple,596cf4aae2a6a700014cade1,2021-09-27_11h15.14.986,forced_choiceRT_color,2021.2.3,Win32,59.97001499,,,,,,,,,,,,,,,,,,,,,,,
0,f,1,1.0546,4,0,16,1,1,f,blue,596cf4aae2a6a700014cade1,2021-09-27_11h15.14.986,forced_choiceRT_color,2021.2.3,Win32,59.97001499,,,,,,,,,,,,,,,,,,,,,,,
0,d,1,0.6321,4,1,17,0,1,d,orange,596cf4aae2a6a700014cade1,2021-09-27_11h15.14.986,forced_choiceRT_color,2021.2.3,Win32,59.97001499,,,,,,,,,,,,,,,,,,,,,,,
0,j,1,1.071,4,2,18,2,1,j,red,596cf4aae2a6a700014cade1,2021-09-27_11h15.14.986,forced_choiceRT_color,2021.2.3,Win32,59.97001499,,,,,,,,,,,,,,,,,,,,,,,
0,k,1,0.5997,4,3,19,3,1,k,purple,596cf4aae2a6a700014cade1,2021-09-27_11h15.14.986,forced_choiceRT_color,2021.2.3,Win32,59.97001499,,,,,,,,,,,,,,,,,,,,,,,
0,k,1,0.5361,5,0,20,3,1,k,purple,596cf4aae2a6a700014cade1,2021-09-27_11h15.14.986,forced_choiceRT_color,2021.2.3,Win32,59.97001499,,,,,,,,,,,,,,,,,,,,,,,
0,d,1,0.6486,5,1,21,0,1,d,orange,596cf4aae2a6a700014cade1,2021-09-27_11h15.14.986,forced_choiceRT_color,2021.2.3,Win32,59.97001499,,,,,,,,,,,,,,,,,,,,,,,
0,f,1,0.6562,5,2,22,1,1,f,blue,596cf4aae2a6a700014cade1,2021-09-27_11h15.14.986,forced_choiceRT_color,2021.2.3,Win32,59.97001499,,,,,,,,,,,,,,,,,,,,,,,
0,f,1,0.5932,5,3,23,1,1,f,blue,596cf4aae2a6a700014cade1,2021-09-27_11h15.14.986,forced_choiceRT_color,2021.2.3,Win32,59.97001499,,,,,,,,,,,,,,,,,,,,,,,
0,j,1,1.0375,6,0,24,2,1,j,red,596cf4aae2a6a700014cade1,2021-09-27_11h15.14.986,forced_choiceRT_color,2021.2.3,Win32,59.97001499,,,,,,,,,,,,,,,,,,,,,,,
0,f,1,1.0183,6,1,25,1,1,f,blue,596cf4aae2a6a700014cade1,2021-09-27_11h15.14.986,forced_choiceRT_color,2021.2.3,Win32,59.97001499,,,,,,,,,,,,,,,,,,,,,,,
0,k,1,0.6759,6,2,26,3,1,k,purple,596cf4aae2a6a700014cade1,2021-09-27_11h15.14.986,forced_choiceRT_color,2021.2.3,Win32,59.97001499,,,,,,,,,,,,,,,,,,,,,,,
0,j,1,1.0036,6,3,27,2,1,j,red,596cf4aae2a6a700014cade1,2021-09-27_11h15.14.986,forced_choiceRT_color,2021.2.3,Win32,59.97001499,,,,,,,,,,,,,,,,,,,,,,,
0,d,1,0.6367,7,0,28,0,1,d,orange,596cf4aae2a6a700014cade1,2021-09-27_11h15.14.986,forced_choiceRT_color,2021.2.3,Win32,59.97001499,,,,,,,,,,,,,,,,,,,,,,,
0,f,1,0.6192,7,1,29,1,1,f,blue,596cf4aae2a6a700014cade1,2021-09-27_11h15.14.986,forced_choiceRT_color,2021.2.3,Win32,59.97001499,,,,,,,,,,,,,,,,,,,,,,,
0,d,1,0.5823,7,2,30,0,1,d,orange,596cf4aae2a6a700014cade1,2021-09-27_11h15.14.986,forced_choiceRT_color,2021.2.3,Win32,59.97001499,,,,,,,,,,,,,,,,,,,,,,,
0,j,1,0.8194,7,3,31,2,1,j,red,596cf4aae2a6a700014cade1,2021-09-27_11h15.14.986,forced_choiceRT_color,2021.2.3,Win32,59.97001499,,,,,,,,,,,,,,,,,,,,,,,
0,k,1,0.6209,8,0,32,3,1,k,purple,596cf4aae2a6a700014cade1,2021-09-27_11h15.14.986,forced_choiceRT_color,2021.2.3,Win32,59.97001499,,,,,,,,,,,,,,,,,,,,,,,
0,k,1,0.5846,8,1,33,3,1,k,purple,596cf4aae2a6a700014cade1,2021-09-27_11h15.14.986,forced_choiceRT_color,2021.2.3,Win32,59.97001499,,,,,,,,,,,,,,,,,,,,,,,
0,f,1,0.6381,8,2,34,1,1,f,blue,596cf4aae2a6a700014cade1,2021-09-27_11h15.14.986,forced_choiceRT_color,2021.2.3,Win32,59.97001499,,,,,,,,,,,,,,,,,,,,,,,
0,k,1,0.6043,8,3,35,3,1,k,purple,596cf4aae2a6a700014cade1,2021-09-27_11h15.14.986,forced_choiceRT_color,2021.2.3,Win32,59.97001499,,,,,,,,,,,,,,,,,,,,,,,
0,d,1,0.5828,9,0,36,0,1,d,orange,596cf4aae2a6a700014cade1,2021-09-27_11h15.14.986,forced_choiceRT_color,2021.2.3,Win32,59.97001499,,,,,,,,,,,,,,,,,,,,,,,
0,d,1,0.5367,9,1,37,0,1,d,orange,596cf4aae2a6a700014cade1,2021-09-27_11h15.14.986,forced_choiceRT_color,2021.2.3,Win32,59.97001499,,,,,,,,,,,,,,,,,,,,,,,
0,k,1,0.6743,9,2,38,3,1,k,purple,596cf4aae2a6a700014cade1,2021-09-27_11h15.14.986,forced_choiceRT_color,2021.2.3,Win32,59.97001499,,,,,,,,,,,,,,,,,,,,,,,
0,j,1,0.788,9,3,39,2,1,j,red,596cf4aae2a6a700014cade1,2021-09-27_11h15.14.986,forced_choiceRT_color,2021.2.3,Win32,59.97001499,,,,,,,,,,,,,,,,,,,,,,,
0,j,1,0.5518,10,0,40,2,1,j,red,596cf4aae2a6a700014cade1,2021-09-27_11h15.14.986,forced_choiceRT_color,2021.2.3,Win32,59.97001499,,,,,,,,,,,,,,,,,,,,,,,
0,j,1,0.4971,10,1,41,2,1,j,red,596cf4aae2a6a700014cade1,2021-09-27_11h15.14.986,forced_choiceRT_color,2021.2.3,Win32,59.97001499,,,,,,,,,,,,,,,,,,,,,,,
0,d,1,0.6016,10,2,42,0,1,d,orange,596cf4aae2a6a700014cade1,2021-09-27_11h15.14.986,forced_choiceRT_color,2021.2.3,Win32,59.97001499,,,,,,,,,,,,,,,,,,,,,,,
0,j,1,0.6744,10,3,43,2,1,j,red,596cf4aae2a6a700014cade1,2021-09-27_11h15.14.986,forced_choiceRT_color,2021.2.3,Win32,59.97001499,,,,,,,,,,,,,,,,,,,,,,,
0,j,1,0.5514,11,0,44,2,1,j,red,596cf4aae2a6a700014cade1,2021-09-27_11h15.14.986,forced_choiceRT_color,2021.2.3,Win32,59.97001499,,,,,,,,,,,,,,,,,,,,,,,
0,f,1,0.8023,11,1,45,1,1,f,blue,596cf4aae2a6a700014cade1,2021-09-27_11h15.14.986,forced_choiceRT_color,2021.2.3,Win32,59.97001499,,,,,,,,,,,,,,,,,,,,,,,
0,k,1,0.7038,11,2,46,3,1,k,purple,596cf4aae2a6a700014cade1,2021-09-27_11h15.14.986,forced_choiceRT_color,2021.2.3,Win32,59.97001499,,,,,,,,,,,,,,,,,,,,,,,
0,k,1,0.5205,11,3,47,3,1,k,purple,596cf4aae2a6a700014cade1,2021-09-27_11h15.14.986,forced_choiceRT_color,2021.2.3,Win32,59.97001499,,,,,,,,,,,,,,,,,,,,,,,
0,f,1,0.705,12,0,48,1,1,f,blue,596cf4aae2a6a700014cade1,2021-09-27_11h15.14.986,forced_choiceRT_color,2021.2.3,Win32,59.97001499,,,,,,,,,,,,,,,,,,,,,,,
0,j,1,0.8167,12,1,49,2,1,j,red,596cf4aae2a6a700014cade1,2021-09-27_11h15.14.986,forced_choiceRT_color,2021.2.3,Win32,59.97001499,,,,,,,,,,,,,,,,,,,,,,,
0,j,1,0.5738,12,2,50,2,1,j,red,596cf4aae2a6a700014cade1,2021-09-27_11h15.14.986,forced_choiceRT_color,2021.2.3,Win32,59.97001499,,,,,,,,,,,,,,,,,,,,,,,
0,f,1,0.8318,12,3,51,1,1,f,blue,596cf4aae2a6a700014cade1,2021-09-27_11h15.14.986,forced_choiceRT_color,2021.2.3,Win32,59.97001499,,,,,,,,,,,,,,,,,,,,,,,
0,f,1,0.5513,13,0,52,1,1,f,blue,596cf4aae2a6a700014cade1,2021-09-27_11h15.14.986,forced_choiceRT_color,2021.2.3,Win32,59.97001499,,,,,,,,,,,,,,,,,,,,,,,
0,j,1,0.6852,13,1,53,2,1,j,red,596cf4aae2a6a700014cade1,2021-09-27_11h15.14.986,forced_choiceRT_color,2021.2.3,Win32,59.97001499,,,,,,,,,,,,,,,,,,,,,,,
0,f,1,0.6201,13,2,54,1,1,f,blue,596cf4aae2a6a700014cade1,2021-09-27_11h15.14.986,forced_choiceRT_color,2021.2.3,Win32,59.97001499,,,,,,,,,,,,,,,,,,,,,,,
0,d,1,0.5833,13,3,55,0,1,d,orange,596cf4aae2a6a700014cade1,2021-09-27_11h15.14.986,forced_choiceRT_color,2021.2.3,Win32,59.97001499,,,,,,,,,,,,,,,,,,,,,,,
0,j,1,0.8283,14,0,56,2,1,j,red,596cf4aae2a6a700014cade1,2021-09-27_11h15.14.986,forced_choiceRT_color,2021.2.3,Win32,59.97001499,,,,,,,,,,,,,,,,,,,,,,,
0,j,1,0.6004,14,1,57,2,1,j,red,596cf4aae2a6a700014cade1,2021-09-27_11h15.14.986,forced_choiceRT_color,2021.2.3,Win32,59.97001499,,,,,,,,,,,,,,,,,,,,,,,
0,d,1,0.6355,14,2,58,0,1,d,orange,596cf4aae2a6a700014cade1,2021-09-27_11h15.14.986,forced_choiceRT_color,2021.2.3,Win32,59.97001499,,,,,,,,,,,,,,,,,,,,,,,
0,f,1,0.5924,14,3,59,1,1,f,blue,596cf4aae2a6a700014cade1,2021-09-27_11h15.14.986,forced_choiceRT_color,2021.2.3,Win32,59.97001499,,,,,,,,,,,,,,,,,,,,,,,
,,,,,,,,,,,596cf4aae2a6a700014cade1,2021-09-27_11h15.14.986,forced_choiceRT_color,2021.2.3,Win32,59.97001499,j,2.2754,0,0,0,0,1,,,,,,,,,,,,,,,,
,,,,,,,,,,,596cf4aae2a6a700014cade1,2021-09-27_11h15.14.986,forced_choiceRT_color,2021.2.3,Win32,59.97001499,j,2.1548,1,0,1,0,1,,,,,,,,,,,,,,,,
,,,,,,,,,,,596cf4aae2a6a700014cade1,2021-09-27_11h15.14.986,forced_choiceRT_color,2021.2.3,Win32,59.97001499,j,2.0784,2,0,2,0,1,,,,,,,,,,,,,,,,
,,,,,,,,,,,596cf4aae2a6a700014cade1,2021-09-27_11h15.14.986,forced_choiceRT_color,2021.2.3,Win32,59.97001499,j,2.1068,3,0,3,0,1,,,,,,,,,,,,,,,,
,,,,,,,,,,,596cf4aae2a6a700014cade1,2021-09-27_11h15.14.986,forced_choiceRT_color,2021.2.3,Win32,59.97001499,j,2.098,4,0,4,0,1,,,,,,,,,,,,,,,,
,,,,,,,,,,,596cf4aae2a6a700014cade1,2021-09-27_11h15.14.986,forced_choiceRT_color,2021.2.3,Win32,59.97001499,j,2.1192,5,0,5,0,1,,,,,,,,,,,,,,,,
,,,,,,,,,,,596cf4aae2a6a700014cade1,2021-09-27_11h15.14.986,forced_choiceRT_color,2021.2.3,Win32,59.97001499,j,2.0739,6,0,6,0,1,,,,,,,,,,,,,,,,
,,,,,,,,,,,596cf4aae2a6a700014cade1,2021-09-27_11h15.14.986,forced_choiceRT_color,2021.2.3,Win32,59.97001499,j,2.1143,7,0,7,0,1,,,,,,,,,,,,,,,,
,,,,,,,,,,,596cf4aae2a6a700014cade1,2021-09-27_11h15.14.986,forced_choiceRT_color,2021.2.3,Win32,59.97001499,j,2.0221,8,0,8,0,1,,,,,,,,,,,,,,,,
,,,,,,,,,,,596cf4aae2a6a700014cade1,2021-09-27_11h15.14.986,forced_choiceRT_color,2021.2.3,Win32,59.97001499,j,2.1118,9,0,9,0,1,,,,,,,,,,,,,,,,
,,,,,,,,,,,596cf4aae2a6a700014cade1,2021-09-27_11h15.14.986,forced_choiceRT_color,2021.2.3,Win32,59.97001499,j,2.0113,10,0,10,0,1,,,,,,,,,,,,,,,,
,,,,,,,,,,,596cf4aae2a6a700014cade1,2021-09-27_11h15.14.986,forced_choiceRT_color,2021.2.3,Win32,59.97001499,j,2.0525,11,0,11,0,1,,,,,,,,,,,,,,,,
,,,,,,,,,,,596cf4aae2a6a700014cade1,2021-09-27_11h15.14.986,forced_choiceRT_color,2021.2.3,Win32,59.97001499,j,1.985,12,0,12,0,1,,,,,,,,,,,,,,,,
,,,,,,,,,,,596cf4aae2a6a700014cade1,2021-09-27_11h15.14.986,forced_choiceRT_color,2021.2.3,Win32,59.97001499,j,2.04,13,0,13,0,1,,,,,,,,,,,,,,,,
,,,,,,,,,,,596cf4aae2a6a700014cade1,2021-09-27_11h15.14.986,forced_choiceRT_color,2021.2.3,Win32,59.97001499,j,2.0252,14,0,14,0,1,,,,,,,,,,,,,,,,
,,,,,,,,,,,596cf4aae2a6a700014cade1,2021-09-27_11h15.14.986,forced_choiceRT_color,2021.2.3,Win32,59.97001499,j,2.0027,15,0,15,0,1,,,,,,,,,,,,,,,,
,,,,,,,,,,,596cf4aae2a6a700014cade1,2021-09-27_11h15.14.986,forced_choiceRT_color,2021.2.3,Win32,59.97001499,j,2.0466,16,0,16,0,1,,,,,,,,,,,,,,,,
,,,,,,,,,,,596cf4aae2a6a700014cade1,2021-09-27_11h15.14.986,forced_choiceRT_color,2021.2.3,Win32,59.97001499,j,2.057,17,0,17,0,1,,,,,,,,,,,,,,,,
,,,,,,,,,,,596cf4aae2a6a700014cade1,2021-09-27_11h15.14.986,forced_choiceRT_color,2021.2.3,Win32,59.97001499,j,2.0257,18,0,18,0,1,,,,,,,,,,,,,,,,
,,,,,,,,,,,596cf4aae2a6a700014cade1,2021-09-27_11h15.14.986,forced_choiceRT_color,2021.2.3,Win32,59.97001499,j,2.0431,19,0,19,0,1,,,,,,,,,,,,,,,,
1,,,,,,,,,k,purple,596cf4aae2a6a700014cade1,2021-09-27_11h15.14.986,forced_choiceRT_color,2021.2.3,Win32,59.97001499,,,,,,,,1,Ontime,short,k,1,1.9445,0,0,0,3,1,,,,,
0.47,,,,,,,,,f,blue,596cf4aae2a6a700014cade1,2021-09-27_11h15.14.986,forced_choiceRT_color,2021.2.3,Win32,59.97001499,,,,,,,,1,Ontime,short,d,0,1.9757,0,1,1,1,1,,,,,
0.83,,,,,,,,,k,purple,596cf4aae2a6a700014cade1,2021-09-27_11h15.14.986,forced_choiceRT_color,2021.2.3,Win32,59.97001499,,,,,,,,1,Ontime,short,k,1,1.9927,0,2,2,3,1,,,,,
0.32,,,,,,,,,k,purple,596cf4aae2a6a700014cade1,2021-09-27_11h15.14.986,forced_choiceRT_color,2021.2.3,Win32,59.97001499,,,,,,,,1,Ontime,short,k,1,2.0025,0,3,3,3,1,,,,,
1.65,,,,,,,,,f,blue,596cf4aae2a6a700014cade1,2021-09-27_11h15.14.986,forced_choiceRT_color,2021.2.3,Win32,59.97001499,,,,,,,,1,Ontime,short,k,0,1.9532,1,0,4,1,1,,,,,
0.92,,,,,,,,,j,red,596cf4aae2a6a700014cade1,2021-09-27_11h15.14.986,forced_choiceRT_color,2021.2.3,Win32,59.97001499,,,,,,,,1,Ontime,short,f,0,1.9523,1,1,5,2,1,,,,,
0.51,,,,,,,,,d,orange,596cf4aae2a6a700014cade1,2021-09-27_11h15.14.986,forced_choiceRT_color,2021.2.3,Win32,59.97001499,,,,,,,,1,Ontime,short,d,1,2.0369,1,2,6,0,1,,,,,
0.1,,,,,,,,,k,purple,596cf4aae2a6a700014cade1,2021-09-27_11h15.14.986,forced_choiceRT_color,2021.2.3,Win32,59.97001499,,,,,,,,1,Ontime,short,k,1,1.9638,1,3,7,3,1,,,,,
1.23,,,,,,,,,d,orange,596cf4aae2a6a700014cade1,2021-09-27_11h15.14.986,forced_choiceRT_color,2021.2.3,Win32,59.97001499,,,,,,,,1,Ontime,short,f,0,2.0686,2,0,8,0,1,,,,,
0.74,,,,,,,,,k,purple,596cf4aae2a6a700014cade1,2021-09-27_11h15.14.986,forced_choiceRT_color,2021.2.3,Win32,59.97001499,,,,,,,,1,Ontime,short,k,1,1.9866,2,1,9,3,1,,,,,
1.97,,,,,,,,,d,orange,596cf4aae2a6a700014cade1,2021-09-27_11h15.14.986,forced_choiceRT_color,2021.2.3,Win32,59.97001499,,,,,,,,1,Slow,short,k,0,2.2426,2,2,10,0,1,,,,,
0.67,,,,,,,,,f,blue,596cf4aae2a6a700014cade1,2021-09-27_11h15.14.986,forced_choiceRT_color,2021.2.3,Win32,59.97001499,,,,,,,,1,Ontime,short,j,0,2.0202,2,3,11,1,1,,,,,
1.07,,,,,,,,,d,orange,596cf4aae2a6a700014cade1,2021-09-27_11h15.14.986,forced_choiceRT_color,2021.2.3,Win32,59.97001499,,,,,,,,1,Slow,short,d,1,2.1083,3,0,12,0,1,,,,,
1.31,,,,,,,,,j,red,596cf4aae2a6a700014cade1,2021-09-27_11h15.14.986,forced_choiceRT_color,2021.2.3,Win32,59.97001499,,,,,,,,1,Ontime,short,f,0,2.0528,3,1,13,2,1,,,,,
0.1,,,,,,,,,j,red,596cf4aae2a6a700014cade1,2021-09-27_11h15.14.986,forced_choiceRT_color,2021.2.3,Win32,59.97001499,,,,,,,,1,Ontime,short,f,0,1.9359,3,2,14,2,1,,,,,
0.87,,,,,,,,,d,orange,596cf4aae2a6a700014cade1,2021-09-27_11h15.14.986,forced_choiceRT_color,2021.2.3,Win32,59.97001499,,,,,,,,1,Ontime,short,d,1,2.0357,3,3,15,0,1,,,,,
1.28,,,,,,,,,f,blue,596cf4aae2a6a700014cade1,2021-09-27_11h15.14.986,forced_choiceRT_color,2021.2.3,Win32,59.97001499,,,,,,,,1,Slow,short,j,0,2.1365,4,0,16,1,1,,,,,
0.96,,,,,,,,,k,purple,596cf4aae2a6a700014cade1,2021-09-27_11h15.14.986,forced_choiceRT_color,2021.2.3,Win32,59.97001499,,,,,,,,1,Ontime,short,k,1,1.944,4,1,17,3,1,,,,,
1.32,,,,,,,,,f,blue,596cf4aae2a6a700014cade1,2021-09-27_11h15.14.986,forced_choiceRT_color,2021.2.3,Win32,59.97001499,,,,,,,,1,Ontime,short,j,0,2.0395,4,2,18,1,1,,,,,
1,,,,,,,,,j,red,596cf4aae2a6a700014cade1,2021-09-27_11h15.14.986,forced_choiceRT_color,2021.2.3,Win32,59.97001499,,,,,,,,1,Ontime,short,d,0,1.9053,4,3,19,2,1,,,,,
1.63,,,,,,,,,f,blue,596cf4aae2a6a700014cade1,2021-09-27_11h15.14.986,forced_choiceRT_color,2021.2.3,Win32,59.97001499,,,,,,,,1,Ontime,short,f,1,2.0955,5,0,20,1,1,,,,,
1.42,,,,,,,,,k,purple,596cf4aae2a6a700014cade1,2021-09-27_11h15.14.986,forced_choiceRT_color,2021.2.3,Win32,59.97001499,,,,,,,,1,Ontime,short,k,1,1.9362,5,1,21,3,1,,,,,
1.44,,,,,,,,,f,blue,596cf4aae2a6a700014cade1,2021-09-27_11h15.14.986,forced_choiceRT_color,2021.2.3,Win32,59.97001499,,,,,,,,1,Ontime,short,f,1,2.0254,5,2,22,1,1,,,,,
0.56,,,,,,,,,j,red,596cf4aae2a6a700014cade1,2021-09-27_11h15.14.986,forced_choiceRT_color,2021.2.3,Win32,59.97001499,,,,,,,,1,Fast,short,j,1,0.0511,5,3,23,2,1,,,,,
0.06,,,,,,,,,d,orange,596cf4aae2a6a700014cade1,2021-09-27_11h15.14.986,forced_choiceRT_color,2021.2.3,Win32,59.97001499,,,,,,,,1,Ontime,short,d,1,1.9187,6,0,24,0,1,,,,,
1.34,,,,,,,,,f,blue,596cf4aae2a6a700014cade1,2021-09-27_11h15.14.986,forced_choiceRT_color,2021.2.3,Win32,59.97001499,,,,,,,,1,Slow,short,j,0,2.1015,6,1,25,1,1,,,,,
1.62,,,,,,,,,d,orange,596cf4aae2a6a700014cade1,2021-09-27_11h15.14.986,forced_choiceRT_color,2021.2.3,Win32,59.97001499,,,,,,,,1,Slow,short,k,0,2.1188,6,2,26,0,1,,,,,
1.1,,,,,,,,,j,red,596cf4aae2a6a700014cade1,2021-09-27_11h15.14.986,forced_choiceRT_color,2021.2.3,Win32,59.97001499,,,,,,,,1,Ontime,short,f,0,2.0506,6,3,27,2,1,,,,,
0.24,,,,,,,,,j,red,596cf4aae2a6a700014cade1,2021-09-27_11h15.14.986,forced_choiceRT_color,2021.2.3,Win32,59.97001499,,,,,,,,1,Fast,short,f,0,1.8083,7,0,28,2,1,,,,,
0.33,,,,,,,,,j,red,596cf4aae2a6a700014cade1,2021-09-27_11h15.14.986,forced_choiceRT_color,2021.2.3,Win32,59.97001499,,,,,,,,1,Ontime,short,f,0,1.9194,7,1,29,2,1,,,,,
0.99,,,,,,,,,j,red,596cf4aae2a6a700014cade1,2021-09-27_11h15.14.986,forced_choiceRT_color,2021.2.3,Win32,59.97001499,,,,,,,,1,Ontime,short,f,0,1.9246,7,2,30,2,1,,,,,
1.44,,,,,,,,,j,red,596cf4aae2a6a700014cade1,2021-09-27_11h15.14.986,forced_choiceRT_color,2021.2.3,Win32,59.97001499,,,,,,,,1,Ontime,short,f,0,1.9105,7,3,31,2,1,,,,,
1.3,,,,,,,,,k,purple,596cf4aae2a6a700014cade1,2021-09-27_11h15.14.986,forced_choiceRT_color,2021.2.3,Win32,59.97001499,,,,,,,,1,Ontime,short,k,1,2.0034,8,0,32,3,1,,,,,
0.83,,,,,,,,,f,blue,596cf4aae2a6a700014cade1,2021-09-27_11h15.14.986,forced_choiceRT_color,2021.2.3,Win32,59.97001499,,,,,,,,1,Ontime,short,j,0,1.9613,8,1,33,1,1,,,,,
1.33,,,,,,,,,k,purple,596cf4aae2a6a700014cade1,2021-09-27_11h15.14.986,forced_choiceRT_color,2021.2.3,Win32,59.97001499,,,,,,,,1,Ontime,short,k,1,1.9596,8,2,34,3,1,,,,,
0.01,,,,,,,,,d,orange,596cf4aae2a6a700014cade1,2021-09-27_11h15.14.986,forced_choiceRT_color,2021.2.3,Win32,59.97001499,,,,,,,,1,Ontime,short,d,1,2.0199,8,3,35,0,1,,,,,
0.8,,,,,,,,,k,purple,596cf4aae2a6a700014cade1,2021-09-27_11h15.14.986,forced_choiceRT_color,2021.2.3,Win32,59.97001499,,,,,,,,1,Fast,short,k,1,1.8525,9,0,36,3,1,,,,,
0.18,,,,,,,,,d,orange,596cf4aae2a6a700014cade1,2021-09-27_11h15.14.986,forced_choiceRT_color,2021.2.3,Win32,59.97001499,,,,,,,,1,Fast,short,d,1,1.8865,9,1,37,0,1,,,,,
0.22,,,,,,,,,f,blue,596cf4aae2a6a700014cade1,2021-09-27_11h15.14.986,forced_choiceRT_color,2021.2.3,Win32,59.97001499,,,,,,,,1,Ontime,short,j,0,1.9031,9,2,38,1,1,,,,,
1.85,,,,,,,,,d,orange,596cf4aae2a6a700014cade1,2021-09-27_11h15.14.986,forced_choiceRT_color,2021.2.3,Win32,59.97001499,,,,,,,,1,Slow,short,f,0,2.2363,9,3,39,0,1,,,,,
,,,,,,,,,,,596cf4aae2a6a700014cade1,2021-09-27_11h15.14.986,forced_choiceRT_color,2021.2.3,Win32,59.97001499,,,,,,,,,,,,,,,,,,,0,0,0,0,1
1.41,,,,,,,,,j,red,596cf4aae2a6a700014cade1,2021-09-27_11h15.14.986,forced_choiceRT_color,2021.2.3,Win32,59.97001499,,,,,,,,2,Slow,short,f,0,2.1004,0,0,0,2,1,,,,,
0.98,,,,,,,,,k,purple,596cf4aae2a6a700014cade1,2021-09-27_11h15.14.986,forced_choiceRT_color,2021.2.3,Win32,59.97001499,,,,,,,,2,Fast,short,k,1,1.8694,0,1,1,3,1,,,,,
0.37,,,,,,,,,f,blue,596cf4aae2a6a700014cade1,2021-09-27_11h15.14.986,forced_choiceRT_color,2021.2.3,Win32,59.97001499,,,,,,,,2,Fast,short,f,1,1.7957,0,2,2,1,1,,,,,
0.96,,,,,,,,,f,blue,596cf4aae2a6a700014cade1,2021-09-27_11h15.14.986,forced_choiceRT_color,2021.2.3,Win32,59.97001499,,,,,,,,2,Fast,short,f,1,1.8297,0,3,3,1,1,,,,,
1.24,,,,,,,,,f,blue,596cf4aae2a6a700014cade1,2021-09-27_11h15.14.986,forced_choiceRT_color,2021.2.3,Win32,59.97001499,,,,,,,,2,Ontime,short,f,1,2.0125,1,0,4,1,1,,,,,
1.96,,,,,,,,,f,blue,596cf4aae2a6a700014cade1,2021-09-27_11h15.14.986,forced_choiceRT_color,2021.2.3,Win32,59.97001499,,,,,,,,2,Slow,short,j,0,2.3291,1,1,5,1,1,,,,,
0.08,,,,,,,,,f,blue,596cf4aae2a6a700014cade1,2021-09-27_11h15.14.986,forced_choiceRT_color,2021.2.3,Win32,59.97001499,,,,,,,,2,Fast,short,f,1,1.8895,1,2,6,1,1,,,,,
1.76,,,,,,,,,f,blue,596cf4aae2a6a700014cade1,2021-09-27_11h15.14.986,forced_choiceRT_color,2021.2.3,Win32,59.97001499,,,,,,,,2,Slow,short,f,1,2.208,1,3,7,1,1,,,,,
1.97,,,,,,,,,k,purple,596cf4aae2a6a700014cade1,2021-09-27_11h15.14.986,forced_choiceRT_color,2021.2.3,Win32,59.97001499,,,,,,,,2,Slow,short,j,0,2.3868,2,0,8,3,1,,,,,
1.73,,,,,,,,,d,orange,596cf4aae2a6a700014cade1,2021-09-27_11h15.14.986,forced_choiceRT_color,2021.2.3,Win32,59.97001499,,,,,,,,2,Slow,short,d,1,2.3762,2,1,9,0,1,,,,,
1.7,,,,,,,,,d,orange,596cf4aae2a6a700014cade1,2021-09-27_11h15.14.986,forced_choiceRT_color,2021.2.3,Win32,59.97001499,,,,,,,,2,Slow,short,d,1,2.1498,2,2,10,0,1,,,,,
0.81,,,,,,,,,j,red,596cf4aae2a6a700014cade1,2021-09-27_11h15.14.986,forced_choiceRT_color,2021.2.3,Win32,59.97001499,,,,,,,,2,Ontime,short,k,0,2.0512,2,3,11,2,1,,,,,
1.87,,,,,,,,,j,red,596cf4aae2a6a700014cade1,2021-09-27_11h15.14.986,forced_choiceRT_color,2021.2.3,Win32,59.97001499,,,,,,,,2,Fast,short,j,1,0.0772,3,0,12,2,1,,,,,
0.63,,,,,,,,,k,purple,596cf4aae2a6a700014cade1,2021-09-27_11h15.14.986,forced_choiceRT_color,2021.2.3,Win32,59.97001499,,,,,,,,2,Ontime,short,k,1,1.9563,3,1,13,3,1,,,,,
0.87,,,,,,,,,d,orange,596cf4aae2a6a700014cade1,2021-09-27_11h15.14.986,forced_choiceRT_color,2021.2.3,Win32,59.97001499,,,,,,,,2,Ontime,short,d,1,1.9363,3,2,14,0,1,,,,,
1.02,,,,,,,,,d,orange,596cf4aae2a6a700014cade1,2021-09-27_11h15.14.986,forced_choiceRT_color,2021.2.3,Win32,59.97001499,,,,,,,,2,Ontime,short,d,1,1.9044,3,3,15,0,1,,,,,
1.44,,,,,,,,,k,purple,596cf4aae2a6a700014cade1,2021-09-27_11h15.14.986,forced_choiceRT_color,2021.2.3,Win32,59.97001499,,,,,,,,2,Slow,short,k,1,2.13,4,0,16,3,1,,,,,
0.26,,,,,,,,,d,orange,596cf4aae2a6a700014cade1,2021-09-27_11h15.14.986,forced_choiceRT_color,2021.2.3,Win32,59.97001499,,,,,,,,2,Ontime,short,d,1,1.9565,4,1,17,0,1,,,,,
0.47,,,,,,,,,d,orange,596cf4aae2a6a700014cade1,2021-09-27_11h15.14.986,forced_choiceRT_color,2021.2.3,Win32,59.97001499,,,,,,,,2,Ontime,short,d,1,1.9338,4,2,18,0,1,,,,,
1.8,,,,,,,,,j,red,596cf4aae2a6a700014cade1,2021-09-27_11h15.14.986,forced_choiceRT_color,2021.2.3,Win32,59.97001499,,,,,,,,2,Ontime,short,f,0,2.0256,4,3,19,2,1,,,,,
1.7,,,,,,,,,k,purple,596cf4aae2a6a700014cade1,2021-09-27_11h15.14.986,forced_choiceRT_color,2021.2.3,Win32,59.97001499,,,,,,,,2,Slow,short,k,1,2.2298,5,0,20,3,1,,,,,
0.36,,,,,,,,,d,orange,596cf4aae2a6a700014cade1,2021-09-27_11h15.14.986,forced_choiceRT_color,2021.2.3,Win32,59.97001499,,,,,,,,2,Ontime,short,d,1,1.957,5,1,21,0,1,,,,,
1.69,,,,,,,,,j,red,596cf4aae2a6a700014cade1,2021-09-27_11h15.14.986,forced_choiceRT_color,2021.2.3,Win32,59.97001499,,,,,,,,2,Slow,short,j,1,2.183,5,2,22,2,1,,,,,
1.04,,,,,,,,,d,orange,596cf4aae2a6a700014cade1,2021-09-27_11h15.14.986,forced_choiceRT_color,2021.2.3,Win32,59.97001499,,,,,,,,2,Ontime,short,d,1,1.9744,5,3,23,0,1,,,,,
1.02,,,,,,,,,f,blue,596cf4aae2a6a700014cade1,2021-09-27_11h15.14.986,forced_choiceRT_color,2021.2.3,Win32,59.97001499,,,,,,,,2,Ontime,short,f,1,1.9846,6,0,24,1,1,,,,,
1.88,,,,,,,,,j,red,596cf4aae2a6a700014cade1,2021-09-27_11h15.14.986,forced_choiceRT_color,2021.2.3,Win32,59.97001499,,,,,,,,2,Slow,short,d,0,2.2031,6,1,25,2,1,,,,,
1.24,,,,,,,,,j,red,596cf4aae2a6a700014cade1,2021-09-27_11h15.14.986,forced_choiceRT_color,2021.2.3,Win32,59.97001499,,,,,,,,2,Fast,short,j,1,1.8729,6,2,26,2,1,,,,,
1.62,,,,,,,,,k,purple,596cf4aae2a6a700014cade1,2021-09-27_11h15.14.986,forced_choiceRT_color,2021.2.3,Win32,59.97001499,,,,,,,,2,Ontime,short,k,1,2.0197,6,3,27,3,1,,,,,
0.25,,,,,,,,,j,red,596cf4aae2a6a700014cade1,2021-09-27_11h15.14.986,forced_choiceRT_color,2021.2.3,Win32,59.97001499,,,,,,,,2,Ontime,short,j,1,1.9051,7,0,28,2,1,,,,,
0.66,,,,,,,,,j,red,596cf4aae2a6a700014cade1,2021-09-27_11h15.14.986,forced_choiceRT_color,2021.2.3,Win32,59.97001499,,,,,,,,2,Fast,short,j,1,1.8654,7,1,29,2,1,,,,,
1.47,,,,,,,,,d,orange,596cf4aae2a6a700014cade1,2021-09-27_11h15.14.986,forced_choiceRT_color,2021.2.3,Win32,59.97001499,,,,,,,,2,Ontime,short,k,0,1.9552,7,2,30,0,1,,,,,
0.85,,,,,,,,,j,red,596cf4aae2a6a700014cade1,2021-09-27_11h15.14.986,forced_choiceRT_color,2021.2.3,Win32,59.97001499,,,,,,,,2,Ontime,short,j,1,1.9881,7,3,31,2,1,,,,,
1.07,,,,,,,,,k,purple,596cf4aae2a6a700014cade1,2021-09-27_11h15.14.986,forced_choiceRT_color,2021.2.3,Win32,59.97001499,,,,,,,,2,Ontime,short,k,1,1.9428,8,0,32,3,1,,,,,
1.02,,,,,,,,,f,blue,596cf4aae2a6a700014cade1,2021-09-27_11h15.14.986,forced_choiceRT_color,2021.2.3,Win32,59.97001499,,,,,,,,2,Ontime,short,f,1,1.9512,8,1,33,1,1,,,,,
0.4,,,,,,,,,k,purple,596cf4aae2a6a700014cade1,2021-09-27_11h15.14.986,forced_choiceRT_color,2021.2.3,Win32,59.97001499,,,,,,,,2,Fast,short,k,1,1.8895,8,2,34,3,1,,,,,
1.65,,,,,,,,,f,blue,596cf4aae2a6a700014cade1,2021-09-27_11h15.14.986,forced_choiceRT_color,2021.2.3,Win32,59.97001499,,,,,,,,2,Ontime,short,j,0,2.0737,8,3,35,1,1,,,,,
1.83,,,,,,,,,k,purple,596cf4aae2a6a700014cade1,2021-09-27_11h15.14.986,forced_choiceRT_color,2021.2.3,Win32,59.97001499,,,,,,,,2,Slow,short,k,1,2.1683,9,0,36,3,1,,,,,
0.67,,,,,,,,,f,blue,596cf4aae2a6a700014cade1,2021-09-27_11h15.14.986,forced_choiceRT_color,2021.2.3,Win32,59.97001499,,,,,,,,2,Fast,short,f,1,1.8941,9,1,37,1,1,,,,,
0.85,,,,,,,,,k,purple,596cf4aae2a6a700014cade1,2021-09-27_11h15.14.986,forced_choiceRT_color,2021.2.3,Win32,59.97001499,,,,,,,,2,Ontime,short,k,1,1.9709,9,2,38,3,1,,,,,
1.96,,,,,,,,,d,orange,596cf4aae2a6a700014cade1,2021-09-27_11h15.14.986,forced_choiceRT_color,2021.2.3,Win32,59.97001499,,,,,,,,2,Slow,short,d,1,2.2357,9,3,39,0,1,,,,,
,,,,,,,,,,,596cf4aae2a6a700014cade1,2021-09-27_11h15.14.986,forced_choiceRT_color,2021.2.3,Win32,59.97001499,,,,,,,,,,,,,,,,,,,1,0,1,0,1
0.57,,,,,,,,,f,blue,596cf4aae2a6a700014cade1,2021-09-27_11h15.14.986,forced_choiceRT_color,2021.2.3,Win32,59.97001499,,,,,,,,3,Fast,short,f,1,1.8943,0,0,0,1,1,,,,,
1.18,,,,,,,,,j,red,596cf4aae2a6a700014cade1,2021-09-27_11h15.14.986,forced_choiceRT_color,2021.2.3,Win32,59.97001499,,,,,,,,3,Ontime,short,k,0,1.991,0,1,1,2,1,,,,,
0.99,,,,,,,,,d,orange,596cf4aae2a6a700014cade1,2021-09-27_11h15.14.986,forced_choiceRT_color,2021.2.3,Win32,59.97001499,,,,,,,,3,Ontime,short,d,1,1.9678,0,2,2,0,1,,,,,
1.21,,,,,,,,,j,red,596cf4aae2a6a700014cade1,2021-09-27_11h15.14.986,forced_choiceRT_color,2021.2.3,Win32,59.97001499,,,,,,,,3,Ontime,short,j,1,1.9693,0,3,3,2,1,,,,,
0.79,,,,,,,,,f,blue,596cf4aae2a6a700014cade1,2021-09-27_11h15.14.986,forced_choiceRT_color,2021.2.3,Win32,59.97001499,,,,,,,,3,Fast,short,f,1,1.882,1,0,4,1,1,,,,,
1.26,,,,,,,,,f,blue,596cf4aae2a6a700014cade1,2021-09-27_11h15.14.986,forced_choiceRT_color,2021.2.3,Win32,59.97001499,,,,,,,,3,Ontime,short,f,1,1.9566,1,1,5,1,1,,,,,
1.6,,,,,,,,,j,red,596cf4aae2a6a700014cade1,2021-09-27_11h15.14.986,forced_choiceRT_color,2021.2.3,Win32,59.97001499,,,,,,,,3,Slow,short,k,0,2.1521,1,2,6,2,1,,,,,
0.66,,,,,,,,,k,purple,596cf4aae2a6a700014cade1,2021-09-27_11h15.14.986,forced_choiceRT_color,2021.2.3,Win32,59.97001499,,,,,,,,3,Ontime,short,k,1,1.9589,1,3,7,3,1,,,,,
0.12,,,,,,,,,j,red,596cf4aae2a6a700014cade1,2021-09-27_11h15.14.986,forced_choiceRT_color,2021.2.3,Win32,59.97001499,,,,,,,,3,Fast,short,j,1,1.8007,2,0,8,2,1,,,,,
0.61,,,,,,,,,d,orange,596cf4aae2a6a700014cade1,2021-09-27_11h15.14.986,forced_choiceRT_color,2021.2.3,Win32,59.97001499,,,,,,,,3,Fast,short,d,1,1.8175,2,1,9,0,1,,,,,
0.26,,,,,,,,,f,blue,596cf4aae2a6a700014cade1,2021-09-27_11h15.14.986,forced_choiceRT_color,2021.2.3,Win32,59.97001499,,,,,,,,3,Ontime,short,f,1,1.9526,2,2,10,1,1,,,,,
1.3,,,,,,,,,d,orange,596cf4aae2a6a700014cade1,2021-09-27_11h15.14.986,forced_choiceRT_color,2021.2.3,Win32,59.97001499,,,,,,,,3,Ontime,short,d,1,1.9787,2,3,11,0,1,,,,,
0.75,,,,,,,,,k,purple,596cf4aae2a6a700014cade1,2021-09-27_11h15.14.986,forced_choiceRT_color,2021.2.3,Win32,59.97001499,,,,,,,,3,Ontime,short,k,1,2.0854,3,0,12,3,1,,,,,
1.8,,,,,,,,,j,red,596cf4aae2a6a700014cade1,2021-09-27_11h15.14.986,forced_choiceRT_color,2021.2.3,Win32,59.97001499,,,,,,,,3,Slow,short,f,0,2.2116,3,1,13,2,1,,,,,
0.26,,,,,,,,,f,blue,596cf4aae2a6a700014cade1,2021-09-27_11h15.14.986,forced_choiceRT_color,2021.2.3,Win32,59.97001499,,,,,,,,3,Ontime,short,f,1,1.9435,3,2,14,1,1,,,,,
1.92,,,,,,,,,j,red,596cf4aae2a6a700014cade1,2021-09-27_11h15.14.986,forced_choiceRT_color,2021.2.3,Win32,59.97001499,,,,,,,,3,Slow,short,k,0,2.1627,3,3,15,2,1,,,,,
1.79,,,,,,,,,k,purple,596cf4aae2a6a700014cade1,2021-09-27_11h15.14.986,forced_choiceRT_color,2021.2.3,Win32,59.97001499,,,,,,,,3,Ontime,short,j,0,2.0367,4,0,16,3,1,,,,,
0.42,,,,,,,,,k,purple,596cf4aae2a6a700014cade1,2021-09-27_11h15.14.986,forced_choiceRT_color,2021.2.3,Win32,59.97001499,,,,,,,,3,Ontime,short,k,1,1.9724,4,1,17,3,1,,,,,
1.52,,,,,,,,,d,orange,596cf4aae2a6a700014cade1,2021-09-27_11h15.14.986,forced_choiceRT_color,2021.2.3,Win32,59.97001499,,,,,,,,3,Ontime,short,d,1,2.0531,4,2,18,0,1,,,,,
0.64,,,,,,,,,f,blue,596cf4aae2a6a700014cade1,2021-09-27_11h15.14.986,forced_choiceRT_color,2021.2.3,Win32,59.97001499,,,,,,,,3,Slow,short,f,1,2.1016,4,3,19,1,1,,,,,
0.93,,,,,,,,,k,purple,596cf4aae2a6a700014cade1,2021-09-27_11h15.14.986,forced_choiceRT_color,2021.2.3,Win32,59.97001499,,,,,,,,3,Fast,short,j,0,1.6346,5,0,20,3,1,,,,,
0.03,,,,,,,,,k,purple,596cf4aae2a6a700014cade1,2021-09-27_11h15.14.986,forced_choiceRT_color,2021.2.3,Win32,59.97001499,,,,,,,,3,Ontime,short,k,1,1.9435,5,1,21,3,1,,,,,
0.32,,,,,,,,,d,orange,596cf4aae2a6a700014cade1,2021-09-27_11h15.14.986,forced_choiceRT_color,2021.2.3,Win32,59.97001499,,,,,,,,3,Ontime,short,d,1,2,5,2,22,0,1,,,,,
1.87,,,,,,,,,f,blue,596cf4aae2a6a700014cade1,2021-09-27_11h15.14.986,forced_choiceRT_color,2021.2.3,Win32,59.97001499,,,,,,,,3,Ontime,short,f,1,2.0116,5,3,23,1,1,,,,,
1.39,,,,,,,,,d,orange,596cf4aae2a6a700014cade1,2021-09-27_11h15.14.986,forced_choiceRT_color,2021.2.3,Win32,59.97001499,,,,,,,,3,Slow,short,d,1,2.1961,6,0,24,0,1,,,,,
0.87,,,,,,,,,j,red,596cf4aae2a6a700014cade1,2021-09-27_11h15.14.986,forced_choiceRT_color,2021.2.3,Win32,59.97001499,,,,,,,,3,Ontime,short,j,1,1.9667,6,1,25,2,1,,,,,
1.99,,,,,,,,,k,purple,596cf4aae2a6a700014cade1,2021-09-27_11h15.14.986,forced_choiceRT_color,2021.2.3,Win32,59.97001499,,,,,,,,3,Ontime,short,f,0,2.0816,6,2,26,3,1,,,,,
0.68,,,,,,,,,j,red,596cf4aae2a6a700014cade1,2021-09-27_11h15.14.986,forced_choiceRT_color,2021.2.3,Win32,59.97001499,,,,,,,,3,Ontime,short,f,0,1.9901,6,3,27,2,1,,,,,
1.81,,,,,,,,,k,purple,596cf4aae2a6a700014cade1,2021-09-27_11h15.14.986,forced_choiceRT_color,2021.2.3,Win32,59.97001499,,,,,,,,3,Slow,short,d,0,2.1581,7,0,28,3,1,,,,,
0.33,,,,,,,,,j,red,596cf4aae2a6a700014cade1,2021-09-27_11h15.14.986,forced_choiceRT_color,2021.2.3,Win32,59.97001499,,,,,,,,3,Fast,short,j,1,1.7232,7,1,29,2,1,,,,,
0.01,,,,,,,,,d,orange,596cf4aae2a6a700014cade1,2021-09-27_11h15.14.986,forced_choiceRT_color,2021.2.3,Win32,59.97001499,,,,,,,,3,Ontime,short,d,1,1.9302,7,2,30,0,1,,,,,
1.95,,,,,,,,,k,purple,596cf4aae2a6a700014cade1,2021-09-27_11h15.14.986,forced_choiceRT_color,2021.2.3,Win32,59.97001499,,,,,,,,3,Ontime,short,k,1,2.0112,7,3,31,3,1,,,,,
1.7,,,,,,,,,j,red,596cf4aae2a6a700014cade1,2021-09-27_11h15.14.986,forced_choiceRT_color,2021.2.3,Win32,59.97001499,,,,,,,,3,Slow,short,f,0,2.1593,8,0,32,2,1,,,,,
1.01,,,,,,,,,d,orange,596cf4aae2a6a700014cade1,2021-09-27_11h15.14.986,forced_choiceRT_color,2021.2.3,Win32,59.97001499,,,,,,,,3,Fast,short,d,1,1.8854,8,1,33,0,1,,,,,
1.56,,,,,,,,,d,orange,596cf4aae2a6a700014cade1,2021-09-27_11h15.14.986,forced_choiceRT_color,2021.2.3,Win32,59.97001499,,,,,,,,3,Ontime,short,d,1,2.053,8,2,34,0,1,,,,,
1.58,,,,,,,,,f,blue,596cf4aae2a6a700014cade1,2021-09-27_11h15.14.986,forced_choiceRT_color,2021.2.3,Win32,59.97001499,,,,,,,,3,Slow,short,k,0,2.192,8,3,35,1,1,,,,,
1.27,,,,,,,,,f,blue,596cf4aae2a6a700014cade1,2021-09-27_11h15.14.986,forced_choiceRT_color,2021.2.3,Win32,59.97001499,,,,,,,,3,Fast,short,j,0,1.777,9,0,36,1,1,,,,,
1.6,,,,,,,,,f,blue,596cf4aae2a6a700014cade1,2021-09-27_11h15.14.986,forced_choiceRT_color,2021.2.3,Win32,59.97001499,,,,,,,,3,Ontime,short,j,0,2.0395,9,1,37,1,1,,,,,
1.86,,,,,,,,,k,purple,596cf4aae2a6a700014cade1,2021-09-27_11h15.14.986,forced_choiceRT_color,2021.2.3,Win32,59.97001499,,,,,,,,3,Slow,short,k,1,2.2164,9,2,38,3,1,,,,,
1.39,,,,,,,,,d,orange,596cf4aae2a6a700014cade1,2021-09-27_11h15.14.986,forced_choiceRT_color,2021.2.3,Win32,59.97001499,,,,,,,,3,Ontime,short,f,0,1.9546,9,3,39,0,1,,,,,
,,,,,,,,,,,596cf4aae2a6a700014cade1,2021-09-27_11h15.14.986,forced_choiceRT_color,2021.2.3,Win32,59.97001499,,,,,,,,,,,,,,,,,,,2,0,2,0,1
0.28,,,,,,,,,j,red,596cf4aae2a6a700014cade1,2021-09-27_11h15.14.986,forced_choiceRT_color,2021.2.3,Win32,59.97001499,,,,,,,,4,Fast,short,f,0,1.8424,0,0,0,2,1,,,,,
1.97,,,,,,,,,j,red,596cf4aae2a6a700014cade1,2021-09-27_11h15.14.986,forced_choiceRT_color,2021.2.3,Win32,59.97001499,,,,,,,,4,Slow,short,j,1,2.2346,0,1,1,2,1,,,,,
1.17,,,,,,,,,d,orange,596cf4aae2a6a700014cade1,2021-09-27_11h15.14.986,forced_choiceRT_color,2021.2.3,Win32,59.97001499,,,,,,,,4,Ontime,short,d,1,1.9534,0,2,2,0,1,,,,,
0.63,,,,,,,,,k,purple,596cf4aae2a6a700014cade1,2021-09-27_11h15.14.986,forced_choiceRT_color,2021.2.3,Win32,59.97001499,,,,,,,,4,Ontime,short,k,1,1.9834,0,3,3,3,1,,,,,
1.34,,,,,,,,,d,orange,596cf4aae2a6a700014cade1,2021-09-27_11h15.14.986,forced_choiceRT_color,2021.2.3,Win32,59.97001499,,,,,,,,4,Ontime,short,f,0,2.0395,1,0,4,0,1,,,,,
0.29,,,,,,,,,d,orange,596cf4aae2a6a700014cade1,2021-09-27_11h15.14.986,forced_choiceRT_color,2021.2.3,Win32,59.97001499,,,,,,,,4,Fast,short,d,1,1.8483,1,1,5,0,1,,,,,
0.96,,,,,,,,,f,blue,596cf4aae2a6a700014cade1,2021-09-27_11h15.14.986,forced_choiceRT_color,2021.2.3,Win32,59.97001499,,,,,,,,4,Ontime,short,j,0,2.005,1,2,6,1,1,,,,,
0.71,,,,,,,,,d,orange,596cf4aae2a6a700014cade1,2021-09-27_11h15.14.986,forced_choiceRT_color,2021.2.3,Win32,59.97001499,,,,,,,,4,Fast,short,d,1,1.8822,1,3,7,0,1,,,,,
0.68,,,,,,,,,j,red,596cf4aae2a6a700014cade1,2021-09-27_11h15.14.986,forced_choiceRT_color,2021.2.3,Win32,59.97001499,,,,,,,,4,Ontime,short,j,1,1.9502,2,0,8,2,1,,,,,
0.9,,,,,,,,,f,blue,596cf4aae2a6a700014cade1,2021-09-27_11h15.14.986,forced_choiceRT_color,2021.2.3,Win32,59.97001499,,,,,,,,4,Ontime,short,f,1,1.9223,2,1,9,1,1,,,,,
1.67,,,,,,,,,j,red,596cf4aae2a6a700014cade1,2021-09-27_11h15.14.986,forced_choiceRT_color,2021.2.3,Win32,59.97001499,,,,,,,,4,Slow,short,d,0,2.1705,2,2,10,2,1,,,,,
0.95,,,,,,,,,k,purple,596cf4aae2a6a700014cade1,2021-09-27_11h15.14.986,forced_choiceRT_color,2021.2.3,Win32,59.97001499,,,,,,,,4,Ontime,short,k,1,1.9858,2,3,11,3,1,,,,,
1.89,,,,,,,,,d,orange,596cf4aae2a6a700014cade1,2021-09-27_11h15.14.986,forced_choiceRT_color,2021.2.3,Win32,59.97001499,,,,,,,,4,Ontime,short,f,0,2.0283,3,0,12,0,1,,,,,
1.46,,,,,,,,,j,red,596cf4aae2a6a700014cade1,2021-09-27_11h15.14.986,forced_choiceRT_color,2021.2.3,Win32,59.97001499,,,,,,,,4,Slow,short,j,1,2.1688,3,1,13,2,1,,,,,
0.84,,,,,,,,,f,blue,596cf4aae2a6a700014cade1,2021-09-27_11h15.14.986,forced_choiceRT_color,2021.2.3,Win32,59.97001499,,,,,,,,4,Fast,short,j,0,1.8813,3,2,14,1,1,,,,,
1.89,,,,,,,,,f,blue,596cf4aae2a6a700014cade1,2021-09-27_11h15.14.986,forced_choiceRT_color,2021.2.3,Win32,59.97001499,,,,,,,,4,Ontime,short,f,1,2.0395,3,3,15,1,1,,,,,
0.88,,,,,,,,,k,purple,596cf4aae2a6a700014cade1,2021-09-27_11h15.14.986,forced_choiceRT_color,2021.2.3,Win32,59.97001499,,,,,,,,4,Ontime,short,k,1,1.9312,4,0,16,3,1,,,,,
0.1,,,,,,,,,j,red,596cf4aae2a6a700014cade1,2021-09-27_11h15.14.986,forced_choiceRT_color,2021.2.3,Win32,59.97001499,,,,,,,,4,Ontime,short,j,1,1.9123,4,1,17,2,1,,,,,
1.48,,,,,,,,,k,purple,596cf4aae2a6a700014cade1,2021-09-27_11h15.14.986,forced_choiceRT_color,2021.2.3,Win32,59.97001499,,,,,,,,4,Ontime,short,j,0,2.0031,4,2,18,3,1,,,,,
0.77,,,,,,,,,d,orange,596cf4aae2a6a700014cade1,2021-09-27_11h15.14.986,forced_choiceRT_color,2021.2.3,Win32,59.97001499,,,,,,,,4,Fast,short,k,0,0.0699,4,3,19,0,1,,,,,
1.38,,,,,,,,,f,blue,596cf4aae2a6a700014cade1,2021-09-27_11h15.14.986,forced_choiceRT_color,2021.2.3,Win32,59.97001499,,,,,,,,4,Ontime,short,f,1,1.939,5,0,20,1,1,,,,,
1.94,,,,,,,,,f,blue,596cf4aae2a6a700014cade1,2021-09-27_11h15.14.986,forced_choiceRT_color,2021.2.3,Win32,59.97001499,,,,,,,,4,Ontime,short,d,0,2.0259,5,1,21,1,1,,,,,
1.84,,,,,,,,,j,red,596cf4aae2a6a700014cade1,2021-09-27_11h15.14.986,forced_choiceRT_color,2021.2.3,Win32,59.97001499,,,,,,,,4,Ontime,short,f,0,2.025,5,2,22,2,1,,,,,
1.36,,,,,,,,,f,blue,596cf4aae2a6a700014cade1,2021-09-27_11h15.14.986,forced_choiceRT_color,2021.2.3,Win32,59.97001499,,,,,,,,4,Ontime,short,f,1,1.9736,5,3,23,1,1,,,,,
1.2,,,,,,,,,d,orange,596cf4aae2a6a700014cade1,2021-09-27_11h15.14.986,forced_choiceRT_color,2021.2.3,Win32,59.97001499,,,,,,,,4,Ontime,short,j,0,2.0085,6,0,24,0,1,,,,,
0.21,,,,,,,,,k,purple,596cf4aae2a6a700014cade1,2021-09-27_11h15.14.986,forced_choiceRT_color,2021.2.3,Win32,59.97001499,,,,,,,,4,Fast,short,k,1,1.8451,6,1,25,3,1,,,,,
0.16,,,,,,,,,d,orange,596cf4aae2a6a700014cade1,2021-09-27_11h15.14.986,forced_choiceRT_color,2021.2.3,Win32,59.97001499,,,,,,,,4,Ontime,short,d,1,1.9957,6,2,26,0,1,,,,,
0.6,,,,,,,,,f,blue,596cf4aae2a6a700014cade1,2021-09-27_11h15.14.986,forced_choiceRT_color,2021.2.3,Win32,59.97001499,,,,,,,,4,Fast,short,f,1,1.8567,6,3,27,1,1,,,,,
0.01,,,,,,,,,f,blue,596cf4aae2a6a700014cade1,2021-09-27_11h15.14.986,forced_choiceRT_color,2021.2.3,Win32,59.97001499,,,,,,,,4,Ontime,short,f,1,1.9394,7,0,28,1,1,,,,,
0.59,,,,,,,,,k,purple,596cf4aae2a6a700014cade1,2021-09-27_11h15.14.986,forced_choiceRT_color,2021.2.3,Win32,59.97001499,,,,,,,,4,Fast,short,k,1,1.8371,7,1,29,3,1,,,,,
1.25,,,,,,,,,k,purple,596cf4aae2a6a700014cade1,2021-09-27_11h15.14.986,forced_choiceRT_color,2021.2.3,Win32,59.97001499,,,,,,,,4,Ontime,short,k,1,1.9437,7,2,30,3,1,,,,,
0.97,,,,,,,,,d,orange,596cf4aae2a6a700014cade1,2021-09-27_11h15.14.986,forced_choiceRT_color,2021.2.3,Win32,59.97001499,,,,,,,,4,Ontime,short,d,1,1.9844,7,3,31,0,1,,,,,
0.7,,,,,,,,,j,red,596cf4aae2a6a700014cade1,2021-09-27_11h15.14.986,forced_choiceRT_color,2021.2.3,Win32,59.97001499,,,,,,,,4,Ontime,short,j,1,2.0773,8,0,32,2,1,,,,,
1.67,,,,,,,,,j,red,596cf4aae2a6a700014cade1,2021-09-27_11h15.14.986,forced_choiceRT_color,2021.2.3,Win32,59.97001499,,,,,,,,4,Slow,short,f,0,2.1242,8,1,33,2,1,,,,,
1.74,,,,,,,,,j,red,596cf4aae2a6a700014cade1,2021-09-27_11h15.14.986,forced_choiceRT_color,2021.2.3,Win32,59.97001499,,,,,,,,4,Slow,short,j,1,2.1042,8,2,34,2,1,,,,,
1.41,,,,,,,,,k,purple,596cf4aae2a6a700014cade1,2021-09-27_11h15.14.986,forced_choiceRT_color,2021.2.3,Win32,59.97001499,,,,,,,,4,Slow,short,d,0,2.128,8,3,35,3,1,,,,,
0.17,,,,,,,,,d,orange,596cf4aae2a6a700014cade1,2021-09-27_11h15.14.986,forced_choiceRT_color,2021.2.3,Win32,59.97001499,,,,,,,,4,Ontime,short,d,1,1.9508,9,0,36,0,1,,,,,
1.55,,,,,,,,,k,purple,596cf4aae2a6a700014cade1,2021-09-27_11h15.14.986,forced_choiceRT_color,2021.2.3,Win32,59.97001499,,,,,,,,4,Ontime,short,j,0,2.0074,9,1,37,3,1,,,,,
0.01,,,,,,,,,f,blue,596cf4aae2a6a700014cade1,2021-09-27_11h15.14.986,forced_choiceRT_color,2021.2.3,Win32,59.97001499,,,,,,,,4,Ontime,short,f,1,1.9395,9,2,38,1,1,,,,,
1.01,,,,,,,,,k,purple,596cf4aae2a6a700014cade1,2021-09-27_11h15.14.986,forced_choiceRT_color,2021.2.3,Win32,59.97001499,,,,,,,,4,Ontime,short,k,1,1.9856,9,3,39,3,1,,,,,
,,,,,,,,,,,596cf4aae2a6a700014cade1,2021-09-27_11h15.14.986,forced_choiceRT_color,2021.2.3,Win32,59.97001499,,,,,,,,,,,,,,,,,,,3,0,3,0,1
0.58,,,,,,,,,d,orange,596cf4aae2a6a700014cade1,2021-09-27_11h15.14.986,forced_choiceRT_color,2021.2.3,Win32,59.97001499,,,,,,,,5,Ontime,short,d,1,1.9087,0,0,0,0,1,,,,,
0.69,,,,,,,,,j,red,596cf4aae2a6a700014cade1,2021-09-27_11h15.14.986,forced_choiceRT_color,2021.2.3,Win32,59.97001499,,,,,,,,5,Fast,short,j,1,1.8217,0,1,1,2,1,,,,,
0.58,,,,,,,,,k,purple,596cf4aae2a6a700014cade1,2021-09-27_11h15.14.986,forced_choiceRT_color,2021.2.3,Win32,59.97001499,,,,,,,,5,Ontime,short,k,1,1.9464,0,2,2,3,1,,,,,
1.19,,,,,,,,,f,blue,596cf4aae2a6a700014cade1,2021-09-27_11h15.14.986,forced_choiceRT_color,2021.2.3,Win32,59.97001499,,,,,,,,5,Ontime,short,f,1,1.9697,0,3,3,1,1,,,,,
0.54,,,,,,,,,f,blue,596cf4aae2a6a700014cade1,2021-09-27_11h15.14.986,forced_choiceRT_color,2021.2.3,Win32,59.97001499,,,,,,,,5,Ontime,short,f,1,1.9025,1,0,4,1,1,,,,,
0.73,,,,,,,,,j,red,596cf4aae2a6a700014cade1,2021-09-27_11h15.14.986,forced_choiceRT_color,2021.2.3,Win32,59.97001499,,,,,,,,5,Ontime,short,j,1,1.9727,1,1,5,2,1,,,,,
0.1,,,,,,,,,f,blue,596cf4aae2a6a700014cade1,2021-09-27_11h15.14.986,forced_choiceRT_color,2021.2.3,Win32,59.97001499,,,,,,,,5,Fast,short,f,1,1.8197,1,2,6,1,1,,,,,
0.28,,,,,,,,,j,red,596cf4aae2a6a700014cade1,2021-09-27_11h15.14.986,forced_choiceRT_color,2021.2.3,Win32,59.97001499,,,,,,,,5,Ontime,short,j,1,1.9062,1,3,7,2,1,,,,,
1.69,,,,,,,,,j,red,596cf4aae2a6a700014cade1,2021-09-27_11h15.14.986,forced_choiceRT_color,2021.2.3,Win32,59.97001499,,,,,,,,5,Ontime,short,k,0,2.0899,2,0,8,2,1,,,,,
0.02,,,,,,,,,k,purple,596cf4aae2a6a700014cade1,2021-09-27_11h15.14.986,forced_choiceRT_color,2021.2.3,Win32,59.97001499,,,,,,,,5,Fast,short,f,0,0.0443,2,1,9,3,1,,,,,
1.47,,,,,,,,,f,blue,596cf4aae2a6a700014cade1,2021-09-27_11h15.14.986,forced_choiceRT_color,2021.2.3,Win32,59.97001499,,,,,,,,5,Ontime,short,f,1,2.0697,2,2,10,1,1,,,,,
1.74,,,,,,,,,k,purple,596cf4aae2a6a700014cade1,2021-09-27_11h15.14.986,forced_choiceRT_color,2021.2.3,Win32,59.97001499,,,,,,,,5,Slow,short,j,0,2.1529,2,3,11,3,1,,,,,
0.91,,,,,,,,,j,red,596cf4aae2a6a700014cade1,2021-09-27_11h15.14.986,forced_choiceRT_color,2021.2.3,Win32,59.97001499,,,,,,,,5,Ontime,short,j,1,2.068,3,0,12,2,1,,,,,
0.61,,,,,,,,,k,purple,596cf4aae2a6a700014cade1,2021-09-27_11h15.14.986,forced_choiceRT_color,2021.2.3,Win32,59.97001499,,,,,,,,5,Ontime,short,k,1,2.0361,3,1,13,3,1,,,,,
1.09,,,,,,,,,d,orange,596cf4aae2a6a700014cade1,2021-09-27_11h15.14.986,forced_choiceRT_color,2021.2.3,Win32,59.97001499,,,,,,,,5,Ontime,short,d,1,2.0578,3,2,14,0,1,,,,,
0.17,,,,,,,,,f,blue,596cf4aae2a6a700014cade1,2021-09-27_11h15.14.986,forced_choiceRT_color,2021.2.3,Win32,59.97001499,,,,,,,,5,Ontime,short,f,1,2.0031,3,3,15,1,1,,,,,
1.85,,,,,,,,,d,orange,596cf4aae2a6a700014cade1,2021-09-27_11h15.14.986,forced_choiceRT_color,2021.2.3,Win32,59.97001499,,,,,,,,5,Slow,short,j,0,2.2285,4,0,16,0,1,,,,,
1.74,,,,,,,,,f,blue,596cf4aae2a6a700014cade1,2021-09-27_11h15.14.986,forced_choiceRT_color,2021.2.3,Win32,59.97001499,,,,,,,,5,Slow,short,k,0,2.2531,4,1,17,1,1,,,,,
0.34,,,,,,,,,j,red,596cf4aae2a6a700014cade1,2021-09-27_11h15.14.986,forced_choiceRT_color,2021.2.3,Win32,59.97001499,,,,,,,,5,Fast,short,j,1,1.8502,4,2,18,2,1,,,,,
0.6,,,,,,,,,f,blue,596cf4aae2a6a700014cade1,2021-09-27_11h15.14.986,forced_choiceRT_color,2021.2.3,Win32,59.97001499,,,,,,,,5,Ontime,short,f,1,2.0032,4,3,19,1,1,,,,,
0.1,,,,,,,,,j,red,596cf4aae2a6a700014cade1,2021-09-27_11h15.14.986,forced_choiceRT_color,2021.2.3,Win32,59.97001499,,,,,,,,5,Ontime,short,j,1,2.0131,5,0,20,2,1,,,,,
1.57,,,,,,,,,d,orange,596cf4aae2a6a700014cade1,2021-09-27_11h15.14.986,forced_choiceRT_color,2021.2.3,Win32,59.97001499,,,,,,,,5,Ontime,short,j,0,2.0194,5,1,21,0,1,,,,,
0.53,,,,,,,,,j,red,596cf4aae2a6a700014cade1,2021-09-27_11h15.14.986,forced_choiceRT_color,2021.2.3,Win32,59.97001499,,,,,,,,5,Fast,short,f,0,0.0763,5,2,22,2,1,,,,,
0.22,,,,,,,,,f,blue,596cf4aae2a6a700014cade1,2021-09-27_11h15.14.986,forced_choiceRT_color,2021.2.3,Win32,59.97001499,,,,,,,,5,Ontime,short,f,1,1.9107,5,3,23,1,1,,,,,
0.69,,,,,,,,,d,orange,596cf4aae2a6a700014cade1,2021-09-27_11h15.14.986,forced_choiceRT_color,2021.2.3,Win32,59.97001499,,,,,,,,5,Ontime,short,d,1,2.0195,6,0,24,0,1,,,,,
0.08,,,,,,,,,f,blue,596cf4aae2a6a700014cade1,2021-09-27_11h15.14.986,forced_choiceRT_color,2021.2.3,Win32,59.97001499,,,,,,,,5,Ontime,short,f,1,1.9532,6,1,25,1,1,,,,,
0.69,,,,,,,,,k,purple,596cf4aae2a6a700014cade1,2021-09-27_11h15.14.986,forced_choiceRT_color,2021.2.3,Win32,59.97001499,,,,,,,,5,Slow,short,k,1,2.1963,6,2,26,3,1,,,,,
1.15,,,,,,,,,k,purple,596cf4aae2a6a700014cade1,2021-09-27_11h15.14.986,forced_choiceRT_color,2021.2.3,Win32,59.97001499,,,,,,,,5,Ontime,short,k,1,1.9209,6,3,27,3,1,,,,,
0.71,,,,,,,,,d,orange,596cf4aae2a6a700014cade1,2021-09-27_11h15.14.986,forced_choiceRT_color,2021.2.3,Win32,59.97001499,,,,,,,,5,Slow,short,d,1,2.103,7,0,28,0,1,,,,,
1.01,,,,,,,,,j,red,596cf4aae2a6a700014cade1,2021-09-27_11h15.14.986,forced_choiceRT_color,2021.2.3,Win32,59.97001499,,,,,,,,5,Fast,short,j,1,1.7338,7,1,29,2,1,,,,,
0.88,,,,,,,,,d,orange,596cf4aae2a6a700014cade1,2021-09-27_11h15.14.986,forced_choiceRT_color,2021.2.3,Win32,59.97001499,,,,,,,,5,Ontime,short,d,1,1.9807,7,2,30,0,1,,,,,
0.52,,,,,,,,,d,orange,596cf4aae2a6a700014cade1,2021-09-27_11h15.14.986,forced_choiceRT_color,2021.2.3,Win32,59.97001499,,,,,,,,5,Ontime,short,d,1,2.0332,7,3,31,0,1,,,,,
0.09,,,,,,,,,d,orange,596cf4aae2a6a700014cade1,2021-09-27_11h15.14.986,forced_choiceRT_color,2021.2.3,Win32,59.97001499,,,,,,,,5,Ontime,short,d,1,2.0621,8,0,32,0,1,,,,,
1.02,,,,,,,,,k,purple,596cf4aae2a6a700014cade1,2021-09-27_11h15.14.986,forced_choiceRT_color,2021.2.3,Win32,59.97001499,,,,,,,,5,Ontime,short,k,1,2.0036,8,1,33,3,1,,,,,
0.25,,,,,,,,,f,blue,596cf4aae2a6a700014cade1,2021-09-27_11h15.14.986,forced_choiceRT_color,2021.2.3,Win32,59.97001499,,,,,,,,5,Fast,short,f,1,1.8864,8,2,34,1,1,,,,,
0.34,,,,,,,,,k,purple,596cf4aae2a6a700014cade1,2021-09-27_11h15.14.986,forced_choiceRT_color,2021.2.3,Win32,59.97001499,,,,,,,,5,Ontime,short,k,1,2.0174,8,3,35,3,1,,,,,
1.23,,,,,,,,,k,purple,596cf4aae2a6a700014cade1,2021-09-27_11h15.14.986,forced_choiceRT_color,2021.2.3,Win32,59.97001499,,,,,,,,5,Ontime,short,k,1,2.0369,9,0,36,3,1,,,,,
0.36,,,,,,,,,j,red,596cf4aae2a6a700014cade1,2021-09-27_11h15.14.986,forced_choiceRT_color,2021.2.3,Win32,59.97001499,,,,,,,,5,Ontime,short,j,1,2.0244,9,1,37,2,1,,,,,
1.78,,,,,,,,,d,orange,596cf4aae2a6a700014cade1,2021-09-27_11h15.14.986,forced_choiceRT_color,2021.2.3,Win32,59.97001499,,,,,,,,5,Slow,short,j,0,2.1922,9,2,38,0,1,,,,,
1.04,,,,,,,,,k,purple,596cf4aae2a6a700014cade1,2021-09-27_11h15.14.986,forced_choiceRT_color,2021.2.3,Win32,59.97001499,,,,,,,,5,Ontime,short,k,1,2.0575,9,3,39,3,1,,,,,
,,,,,,,,,,,596cf4aae2a6a700014cade1,2021-09-27_11h15.14.986,forced_choiceRT_color,2021.2.3,Win32,59.97001499,,,,,,,,,,,,,,,,,,,4,0,4,0,1
0.23,,,,,,,,,k,purple,596cf4aae2a6a700014cade1,2021-09-27_11h15.14.986,forced_choiceRT_color,2021.2.3,Win32,59.97001499,,,,,,,,6,Fast,short,k,1,1.8851,0,0,0,3,1,,,,,
0.62,,,,,,,,,j,red,596cf4aae2a6a700014cade1,2021-09-27_11h15.14.986,forced_choiceRT_color,2021.2.3,Win32,59.97001499,,,,,,,,6,Ontime,short,f,0,1.9029,0,1,1,2,1,,,,,
0.37,,,,,,,,,k,purple,596cf4aae2a6a700014cade1,2021-09-27_11h15.14.986,forced_choiceRT_color,2021.2.3,Win32,59.97001499,,,,,,,,6,Fast,short,k,1,1.7692,0,2,2,3,1,,,,,
1.75,,,,,,,,,f,blue,596cf4aae2a6a700014cade1,2021-09-27_11h15.14.986,forced_choiceRT_color,2021.2.3,Win32,59.97001499,,,,,,,,6,Ontime,short,j,0,2.0197,0,3,3,1,1,,,,,
0.85,,,,,,,,,d,orange,596cf4aae2a6a700014cade1,2021-09-27_11h15.14.986,forced_choiceRT_color,2021.2.3,Win32,59.97001499,,,,,,,,6,Ontime,short,d,1,1.9058,1,0,4,0,1,,,,,
1.11,,,,,,,,,f,blue,596cf4aae2a6a700014cade1,2021-09-27_11h15.14.986,forced_choiceRT_color,2021.2.3,Win32,59.97001499,,,,,,,,6,Ontime,short,f,1,1.9196,1,1,5,1,1,,,,,
0.63,,,,,,,,,d,orange,596cf4aae2a6a700014cade1,2021-09-27_11h15.14.986,forced_choiceRT_color,2021.2.3,Win32,59.97001499,,,,,,,,6,Ontime,short,d,1,1.9429,1,2,6,0,1,,,,,
1.73,,,,,,,,,d,orange,596cf4aae2a6a700014cade1,2021-09-27_11h15.14.986,forced_choiceRT_color,2021.2.3,Win32,59.97001499,,,,,,,,6,Slow,short,d,1,2.6722,1,3,7,0,1,,,,,
1.84,,,,,,,,,k,purple,596cf4aae2a6a700014cade1,2021-09-27_11h15.14.986,forced_choiceRT_color,2021.2.3,Win32,59.97001499,,,,,,,,6,Slow,short,d,0,2.1162,2,0,8,3,1,,,,,
0.1,,,,,,,,,j,red,596cf4aae2a6a700014cade1,2021-09-27_11h15.14.986,forced_choiceRT_color,2021.2.3,Win32,59.97001499,,,,,,,,6,Fast,short,j,1,1.6763,2,1,9,2,1,,,,,
1.91,,,,,,,,,f,blue,596cf4aae2a6a700014cade1,2021-09-27_11h15.14.986,forced_choiceRT_color,2021.2.3,Win32,59.97001499,,,,,,,,6,Slow,short,j,0,2.1085,2,2,10,1,1,,,,,
0.48,,,,,,,,,d,orange,596cf4aae2a6a700014cade1,2021-09-27_11h15.14.986,forced_choiceRT_color,2021.2.3,Win32,59.97001499,,,,,,,,6,Ontime,short,d,1,1.9338,2,3,11,0,1,,,,,
1.92,,,,,,,,,j,red,596cf4aae2a6a700014cade1,2021-09-27_11h15.14.986,forced_choiceRT_color,2021.2.3,Win32,59.97001499,,,,,,,,6,Slow,short,d,0,2.3363,3,0,12,2,1,,,,,
0.39,,,,,,,,,d,orange,596cf4aae2a6a700014cade1,2021-09-27_11h15.14.986,forced_choiceRT_color,2021.2.3,Win32,59.97001499,,,,,,,,6,Fast,short,d,1,1.8866,3,1,13,0,1,,,,,
1.87,,,,,,,,,f,blue,596cf4aae2a6a700014cade1,2021-09-27_11h15.14.986,forced_choiceRT_color,2021.2.3,Win32,59.97001499,,,,,,,,6,Slow,short,j,0,2.2488,3,2,14,1,1,,,,,
1.9,,,,,,,,,j,red,596cf4aae2a6a700014cade1,2021-09-27_11h15.14.986,forced_choiceRT_color,2021.2.3,Win32,59.97001499,,,,,,,,6,Slow,short,f,0,2.1909,3,3,15,2,1,,,,,
1.8,,,,,,,,,d,orange,596cf4aae2a6a700014cade1,2021-09-27_11h15.14.986,forced_choiceRT_color,2021.2.3,Win32,59.97001499,,,,,,,,6,Slow,short,d,1,2.3098,4,0,16,0,1,,,,,
1.21,,,,,,,,,f,blue,596cf4aae2a6a700014cade1,2021-09-27_11h15.14.986,forced_choiceRT_color,2021.2.3,Win32,59.97001499,,,,,,,,6,Ontime,short,j,0,1.9789,4,1,17,1,1,,,,,
1.49,,,,,,,,,k,purple,596cf4aae2a6a700014cade1,2021-09-27_11h15.14.986,forced_choiceRT_color,2021.2.3,Win32,59.97001499,,,,,,,,6,Ontime,short,k,1,2.0563,4,2,18,3,1,,,,,
0.21,,,,,,,,,k,purple,596cf4aae2a6a700014cade1,2021-09-27_11h15.14.986,forced_choiceRT_color,2021.2.3,Win32,59.97001499,,,,,,,,6,Ontime,short,k,1,1.9325,4,3,19,3,1,,,,,
1.19,,,,,,,,,d,orange,596cf4aae2a6a700014cade1,2021-09-27_11h15.14.986,forced_choiceRT_color,2021.2.3,Win32,59.97001499,,,,,,,,6,Ontime,short,d,1,1.952,5,0,20,0,1,,,,,
1.17,,,,,,,,,d,orange,596cf4aae2a6a700014cade1,2021-09-27_11h15.14.986,forced_choiceRT_color,2021.2.3,Win32,59.97001499,,,,,,,,6,Ontime,short,d,1,1.9366,5,1,21,0,1,,,,,
0.2,,,,,,,,,f,blue,596cf4aae2a6a700014cade1,2021-09-27_11h15.14.986,forced_choiceRT_color,2021.2.3,Win32,59.97001499,,,,,,,,6,Fast,short,f,1,1.8711,5,2,22,1,1,,,,,
0.04,,,,,,,,,j,red,596cf4aae2a6a700014cade1,2021-09-27_11h15.14.986,forced_choiceRT_color,2021.2.3,Win32,59.97001499,,,,,,,,6,Ontime,short,j,1,2.016,5,3,23,2,1,,,,,
0,,,,,,,,,f,blue,596cf4aae2a6a700014cade1,2021-09-27_11h15.14.986,forced_choiceRT_color,2021.2.3,Win32,59.97001499,,,,,,,,6,Ontime,short,f,1,1.9126,6,0,24,1,1,,,,,
1.91,,,,,,,,,j,red,596cf4aae2a6a700014cade1,2021-09-27_11h15.14.986,forced_choiceRT_color,2021.2.3,Win32,59.97001499,,,,,,,,6,Ontime,short,d,0,2.0479,6,1,25,2,1,,,,,
1.25,,,,,,,,,f,blue,596cf4aae2a6a700014cade1,2021-09-27_11h15.14.986,forced_choiceRT_color,2021.2.3,Win32,59.97001499,,,,,,,,6,Ontime,short,f,1,1.9767,6,2,26,1,1,,,,,
1.42,,,,,,,,,k,purple,596cf4aae2a6a700014cade1,2021-09-27_11h15.14.986,forced_choiceRT_color,2021.2.3,Win32,59.97001499,,,,,,,,6,Ontime,short,k,1,2.0692,6,3,27,3,1,,,,,
1.92,,,,,,,,,j,red,596cf4aae2a6a700014cade1,2021-09-27_11h15.14.986,forced_choiceRT_color,2021.2.3,Win32,59.97001499,,,,,,,,6,Slow,short,f,0,2.2704,7,0,28,2,1,,,,,
1.3,,,,,,,,,f,blue,596cf4aae2a6a700014cade1,2021-09-27_11h15.14.986,forced_choiceRT_color,2021.2.3,Win32,59.97001499,,,,,,,,6,Slow,short,j,0,2.1563,7,1,29,1,1,,,,,
1.68,,,,,,,,,j,red,596cf4aae2a6a700014cade1,2021-09-27_11h15.14.986,forced_choiceRT_color,2021.2.3,Win32,59.97001499,,,,,,,,6,Slow,short,f,0,2.1735,7,2,30,2,1,,,,,
0.76,,,,,,,,,k,purple,596cf4aae2a6a700014cade1,2021-09-27_11h15.14.986,forced_choiceRT_color,2021.2.3,Win32,59.97001499,,,,,,,,6,Ontime,short,k,1,2.0668,7,3,31,3,1,,,,,
1.39,,,,,,,,,k,purple,596cf4aae2a6a700014cade1,2021-09-27_11h15.14.986,forced_choiceRT_color,2021.2.3,Win32,59.97001499,,,,,,,,6,Ontime,short,k,1,2.0231,8,0,32,3,1,,,,,
0.54,,,,,,,,,k,purple,596cf4aae2a6a700014cade1,2021-09-27_11h15.14.986,forced_choiceRT_color,2021.2.3,Win32,59.97001499,,,,,,,,6,Ontime,short,k,1,2.0037,8,1,33,3,1,,,,,
1.06,,,,,,,,,k,purple,596cf4aae2a6a700014cade1,2021-09-27_11h15.14.986,forced_choiceRT_color,2021.2.3,Win32,59.97001499,,,,,,,,6,Ontime,short,k,1,1.9863,8,2,34,3,1,,,,,
1.26,,,,,,,,,d,orange,596cf4aae2a6a700014cade1,2021-09-27_11h15.14.986,forced_choiceRT_color,2021.2.3,Win32,59.97001499,,,,,,,,6,Ontime,short,d,1,2.0378,8,3,35,0,1,,,,,
1.05,,,,,,,,,f,blue,596cf4aae2a6a700014cade1,2021-09-27_11h15.14.986,forced_choiceRT_color,2021.2.3,Win32,59.97001499,,,,,,,,6,Ontime,short,j,0,1.9357,9,0,36,1,1,,,,,
0.85,,,,,,,,,d,orange,596cf4aae2a6a700014cade1,2021-09-27_11h15.14.986,forced_choiceRT_color,2021.2.3,Win32,59.97001499,,,,,,,,6,Fast,short,d,1,1.8854,9,1,37,0,1,,,,,
0.58,,,,,,,,,j,red,596cf4aae2a6a700014cade1,2021-09-27_11h15.14.986,forced_choiceRT_color,2021.2.3,Win32,59.97001499,,,,,,,,6,Ontime,short,j,1,1.936,9,2,38,2,1,,,,,
1.56,,,,,,,,,j,red,596cf4aae2a6a700014cade1,2021-09-27_11h15.14.986,forced_choiceRT_color,2021.2.3,Win32,59.97001499,,,,,,,,6,Ontime,short,j,1,2.0529,9,3,39,2,1,,,,,
,,,,,,,,,,,596cf4aae2a6a700014cade1,2021-09-27_11h15.14.986,forced_choiceRT_color,2021.2.3,Win32,59.97001499,,,,,,,,,,,,,,,,,,,5,0,5,0,1
0.1,,,,,,,,,d,orange,596cf4aae2a6a700014cade1,2021-09-27_11h15.14.986,forced_choiceRT_color,2021.2.3,Win32,59.97001499,,,,,,,,7,Fast,short,d,1,1.895,0,0,0,0,1,,,,,
0.28,,,,,,,,,j,red,596cf4aae2a6a700014cade1,2021-09-27_11h15.14.986,forced_choiceRT_color,2021.2.3,Win32,59.97001499,,,,,,,,7,Ontime,short,j,1,1.9531,0,1,1,2,1,,,,,
1.97,,,,,,,,,j,red,596cf4aae2a6a700014cade1,2021-09-27_11h15.14.986,forced_choiceRT_color,2021.2.3,Win32,59.97001499,,,,,,,,7,Slow,short,j,1,2.1812,0,2,2,2,1,,,,,
1.2,,,,,,,,,j,red,596cf4aae2a6a700014cade1,2021-09-27_11h15.14.986,forced_choiceRT_color,2021.2.3,Win32,59.97001499,,,,,,,,7,Ontime,short,j,1,2.0593,0,3,3,2,1,,,,,
0.42,,,,,,,,,j,red,596cf4aae2a6a700014cade1,2021-09-27_11h15.14.986,forced_choiceRT_color,2021.2.3,Win32,59.97001499,,,,,,,,7,Ontime,short,j,1,1.9475,1,0,4,2,1,,,,,
1.38,,,,,,,,,f,blue,596cf4aae2a6a700014cade1,2021-09-27_11h15.14.986,forced_choiceRT_color,2021.2.3,Win32,59.97001499,,,,,,,,7,Ontime,short,f,1,1.9863,1,1,5,1,1,,,,,
1.48,,,,,,,,,d,orange,596cf4aae2a6a700014cade1,2021-09-27_11h15.14.986,forced_choiceRT_color,2021.2.3,Win32,59.97001499,,,,,,,,7,Ontime,short,d,1,2.0363,1,2,6,0,1,,,,,
0.34,,,,,,,,,k,purple,596cf4aae2a6a700014cade1,2021-09-27_11h15.14.986,forced_choiceRT_color,2021.2.3,Win32,59.97001499,,,,,,,,7,Ontime,short,k,1,1.9448,1,3,7,3,1,,,,,
1.03,,,,,,,,,k,purple,596cf4aae2a6a700014cade1,2021-09-27_11h15.14.986,forced_choiceRT_color,2021.2.3,Win32,59.97001499,,,,,,,,7,Ontime,short,k,1,1.9866,2,0,8,3,1,,,,,
1.69,,,,,,,,,f,blue,596cf4aae2a6a700014cade1,2021-09-27_11h15.14.986,forced_choiceRT_color,2021.2.3,Win32,59.97001499,,,,,,,,7,Ontime,short,f,1,2.086,2,1,9,1,1,,,,,
1.33,,,,,,,,,f,blue,596cf4aae2a6a700014cade1,2021-09-27_11h15.14.986,forced_choiceRT_color,2021.2.3,Win32,59.97001499,,,,,,,,7,Ontime,short,f,1,2.009,2,2,10,1,1,,,,,
0.82,,,,,,,,,f,blue,596cf4aae2a6a700014cade1,2021-09-27_11h15.14.986,forced_choiceRT_color,2021.2.3,Win32,59.97001499,,,,,,,,7,Slow,short,f,1,2.1026,2,3,11,1,1,,,,,
1.16,,,,,,,,,k,purple,596cf4aae2a6a700014cade1,2021-09-27_11h15.14.986,forced_choiceRT_color,2021.2.3,Win32,59.97001499,,,,,,,,7,Ontime,short,k,1,1.9732,3,0,12,3,1,,,,,
0.53,,,,,,,,,j,red,596cf4aae2a6a700014cade1,2021-09-27_11h15.14.986,forced_choiceRT_color,2021.2.3,Win32,59.97001499,,,,,,,,7,Ontime,short,j,1,1.9358,3,1,13,2,1,,,,,
1.95,,,,,,,,,d,orange,596cf4aae2a6a700014cade1,2021-09-27_11h15.14.986,forced_choiceRT_color,2021.2.3,Win32,59.97001499,,,,,,,,7,Slow,short,j,0,2.2364,3,2,14,0,1,,,,,
0.47,,,,,,,,,k,purple,596cf4aae2a6a700014cade1,2021-09-27_11h15.14.986,forced_choiceRT_color,2021.2.3,Win32,59.97001499,,,,,,,,7,Ontime,short,k,1,2.0331,3,3,15,3,1,,,,,
0.88,,,,,,,,,d,orange,596cf4aae2a6a700014cade1,2021-09-27_11h15.14.986,forced_choiceRT_color,2021.2.3,Win32,59.97001499,,,,,,,,7,Ontime,short,d,1,2.0862,4,0,16,0,1,,,,,
1.34,,,,,,,,,j,red,596cf4aae2a6a700014cade1,2021-09-27_11h15.14.986,forced_choiceRT_color,2021.2.3,Win32,59.97001499,,,,,,,,7,Ontime,short,f,0,2.0697,4,1,17,2,1,,,,,
1.3,,,,,,,,,d,orange,596cf4aae2a6a700014cade1,2021-09-27_11h15.14.986,forced_choiceRT_color,2021.2.3,Win32,59.97001499,,,,,,,,7,Ontime,short,d,1,2.0029,4,2,18,0,1,,,,,
0.01,,,,,,,,,f,blue,596cf4aae2a6a700014cade1,2021-09-27_11h15.14.986,forced_choiceRT_color,2021.2.3,Win32,59.97001499,,,,,,,,7,Ontime,short,f,1,2.0362,4,3,19,1,1,,,,,
0.27,,,,,,,,,k,purple,596cf4aae2a6a700014cade1,2021-09-27_11h15.14.986,forced_choiceRT_color,2021.2.3,Win32,59.97001499,,,,,,,,7,Ontime,short,k,1,1.9527,5,0,20,3,1,,,,,
0.02,,,,,,,,,f,blue,596cf4aae2a6a700014cade1,2021-09-27_11h15.14.986,forced_choiceRT_color,2021.2.3,Win32,59.97001499,,,,,,,,7,Ontime,short,f,1,2.0365,5,1,21,1,1,,,,,
1.53,,,,,,,,,k,purple,596cf4aae2a6a700014cade1,2021-09-27_11h15.14.986,forced_choiceRT_color,2021.2.3,Win32,59.97001499,,,,,,,,7,Slow,short,k,1,2.1208,5,2,22,3,1,,,,,
1.36,,,,,,,,,d,orange,596cf4aae2a6a700014cade1,2021-09-27_11h15.14.986,forced_choiceRT_color,2021.2.3,Win32,59.97001499,,,,,,,,7,Slow,short,d,1,2.1947,5,3,23,0,1,,,,,
0.34,,,,,,,,,d,orange,596cf4aae2a6a700014cade1,2021-09-27_11h15.14.986,forced_choiceRT_color,2021.2.3,Win32,59.97001499,,,,,,,,7,Ontime,short,d,1,1.9833,6,0,24,0,1,,,,,
0.26,,,,,,,,,f,blue,596cf4aae2a6a700014cade1,2021-09-27_11h15.14.986,forced_choiceRT_color,2021.2.3,Win32,59.97001499,,,,,,,,7,Ontime,short,f,1,1.9043,6,1,25,1,1,,,,,
0.92,,,,,,,,,k,purple,596cf4aae2a6a700014cade1,2021-09-27_11h15.14.986,forced_choiceRT_color,2021.2.3,Win32,59.97001499,,,,,,,,7,Fast,short,d,0,1.8751,6,2,26,3,1,,,,,
1.29,,,,,,,,,f,blue,596cf4aae2a6a700014cade1,2021-09-27_11h15.14.986,forced_choiceRT_color,2021.2.3,Win32,59.97001499,,,,,,,,7,Ontime,short,d,0,1.9875,6,3,27,1,1,,,,,
0.67,,,,,,,,,j,red,596cf4aae2a6a700014cade1,2021-09-27_11h15.14.986,forced_choiceRT_color,2021.2.3,Win32,59.97001499,,,,,,,,7,Ontime,short,j,1,2.052,7,0,28,2,1,,,,,
1.36,,,,,,,,,d,orange,596cf4aae2a6a700014cade1,2021-09-27_11h15.14.986,forced_choiceRT_color,2021.2.3,Win32,59.97001499,,,,,,,,7,Ontime,short,d,1,2.088,7,1,29,0,1,,,,,
0.68,,,,,,,,,j,red,596cf4aae2a6a700014cade1,2021-09-27_11h15.14.986,forced_choiceRT_color,2021.2.3,Win32,59.97001499,,,,,,,,7,Ontime,short,j,1,1.9988,7,2,30,2,1,,,,,
0.32,,,,,,,,,j,red,596cf4aae2a6a700014cade1,2021-09-27_11h15.14.986,forced_choiceRT_color,2021.2.3,Win32,59.97001499,,,,,,,,7,Ontime,short,j,1,1.9197,7,3,31,2,1,,,,,
0.69,,,,,,,,,k,purple,596cf4aae2a6a700014cade1,2021-09-27_11h15.14.986,forced_choiceRT_color,2021.2.3,Win32,59.97001499,,,,,,,,7,Ontime,short,k,1,1.9026,8,0,32,3,1,,,,,
0.3,,,,,,,,,k,purple,596cf4aae2a6a700014cade1,2021-09-27_11h15.14.986,forced_choiceRT_color,2021.2.3,Win32,59.97001499,,,,,,,,7,Ontime,short,k,1,1.9074,8,1,33,3,1,,,,,
1.77,,,,,,,,,k,purple,596cf4aae2a6a700014cade1,2021-09-27_11h15.14.986,forced_choiceRT_color,2021.2.3,Win32,59.97001499,,,,,,,,7,Slow,short,k,1,2.1812,8,2,34,3,1,,,,,
0.07,,,,,,,,,d,orange,596cf4aae2a6a700014cade1,2021-09-27_11h15.14.986,forced_choiceRT_color,2021.2.3,Win32,59.97001499,,,,,,,,7,Ontime,short,d,1,1.9696,8,3,35,0,1,,,,,
1.41,,,,,,,,,f,blue,596cf4aae2a6a700014cade1,2021-09-27_11h15.14.986,forced_choiceRT_color,2021.2.3,Win32,59.97001499,,,,,,,,7,Slow,short,j,0,2.1292,9,0,36,1,1,,,,,
1.46,,,,,,,,,j,red,596cf4aae2a6a700014cade1,2021-09-27_11h15.14.986,forced_choiceRT_color,2021.2.3,Win32,59.97001499,,,,,,,,7,Ontime,short,j,1,1.9981,9,1,37,2,1,,,,,
1.92,,,,,,,,,d,orange,596cf4aae2a6a700014cade1,2021-09-27_11h15.14.986,forced_choiceRT_color,2021.2.3,Win32,59.97001499,,,,,,,,7,Slow,short,d,1,2.2905,9,2,38,0,1,,,,,
0.18,,,,,,,,,f,blue,596cf4aae2a6a700014cade1,2021-09-27_11h15.14.986,forced_choiceRT_color,2021.2.3,Win32,59.97001499,,,,,,,,7,Ontime,short,f,1,1.945,9,3,39,1,1,,,,,
,,,,,,,,,,,596cf4aae2a6a700014cade1,2021-09-27_11h15.14.986,forced_choiceRT_color,2021.2.3,Win32,59.97001499,,,,,,,,,,,,,,,,,,,6,0,6,0,1
1.58,,,,,,,,,k,purple,596cf4aae2a6a700014cade1,2021-09-27_11h15.14.986,forced_choiceRT_color,2021.2.3,Win32,59.97001499,,,,,,,,8,Ontime,short,k,1,2.0499,0,0,0,3,1,,,,,
1.98,,,,,,,,,j,red,596cf4aae2a6a700014cade1,2021-09-27_11h15.14.986,forced_choiceRT_color,2021.2.3,Win32,59.97001499,,,,,,,,8,Slow,short,k,0,2.1364,0,1,1,2,1,,,,,
1.04,,,,,,,,,d,orange,596cf4aae2a6a700014cade1,2021-09-27_11h15.14.986,forced_choiceRT_color,2021.2.3,Win32,59.97001499,,,,,,,,8,Ontime,short,d,1,1.9428,0,2,2,0,1,,,,,
0.64,,,,,,,,,d,orange,596cf4aae2a6a700014cade1,2021-09-27_11h15.14.986,forced_choiceRT_color,2021.2.3,Win32,59.97001499,,,,,,,,8,Ontime,short,d,1,1.9561,0,3,3,0,1,,,,,
0.82,,,,,,,,,f,blue,596cf4aae2a6a700014cade1,2021-09-27_11h15.14.986,forced_choiceRT_color,2021.2.3,Win32,59.97001499,,,,,,,,8,Ontime,short,f,1,1.909,1,0,4,1,1,,,,,
1.85,,,,,,,,,f,blue,596cf4aae2a6a700014cade1,2021-09-27_11h15.14.986,forced_choiceRT_color,2021.2.3,Win32,59.97001499,,,,,,,,8,Slow,short,j,0,2.1203,1,1,5,1,1,,,,,
0.64,,,,,,,,,d,orange,596cf4aae2a6a700014cade1,2021-09-27_11h15.14.986,forced_choiceRT_color,2021.2.3,Win32,59.97001499,,,,,,,,8,Fast,short,d,1,1.8544,1,2,6,0,1,,,,,
0.32,,,,,,,,,k,purple,596cf4aae2a6a700014cade1,2021-09-27_11h15.14.986,forced_choiceRT_color,2021.2.3,Win32,59.97001499,,,,,,,,8,Ontime,short,k,1,1.9396,1,3,7,3,1,,,,,
0.37,,,,,,,,,f,blue,596cf4aae2a6a700014cade1,2021-09-27_11h15.14.986,forced_choiceRT_color,2021.2.3,Win32,59.97001499,,,,,,,,8,Fast,short,f,1,1.8695,2,0,8,1,1,,,,,
1.07,,,,,,,,,j,red,596cf4aae2a6a700014cade1,2021-09-27_11h15.14.986,forced_choiceRT_color,2021.2.3,Win32,59.97001499,,,,,,,,8,Ontime,short,j,1,1.9672,2,1,9,2,1,,,,,
1.81,,,,,,,,,d,orange,596cf4aae2a6a700014cade1,2021-09-27_11h15.14.986,forced_choiceRT_color,2021.2.3,Win32,59.97001499,,,,,,,,8,Ontime,short,d,1,2.0694,2,2,10,0,1,,,,,
0.94,,,,,,,,,f,blue,596cf4aae2a6a700014cade1,2021-09-27_11h15.14.986,forced_choiceRT_color,2021.2.3,Win32,59.97001499,,,,,,,,8,Ontime,short,f,1,2.0151,2,3,11,1,1,,,,,
0.42,,,,,,,,,j,red,596cf4aae2a6a700014cade1,2021-09-27_11h15.14.986,forced_choiceRT_color,2021.2.3,Win32,59.97001499,,,,,,,,8,Ontime,short,j,1,1.9692,3,0,12,2,1,,,,,
0.36,,,,,,,,,k,purple,596cf4aae2a6a700014cade1,2021-09-27_11h15.14.986,forced_choiceRT_color,2021.2.3,Win32,59.97001499,,,,,,,,8,Ontime,short,k,1,1.9011,3,1,13,3,1,,,,,
0.06,,,,,,,,,k,purple,596cf4aae2a6a700014cade1,2021-09-27_11h15.14.986,forced_choiceRT_color,2021.2.3,Win32,59.97001499,,,,,,,,8,Ontime,short,k,1,1.9211,3,2,14,3,1,,,,,
1.75,,,,,,,,,j,red,596cf4aae2a6a700014cade1,2021-09-27_11h15.14.986,forced_choiceRT_color,2021.2.3,Win32,59.97001499,,,,,,,,8,Slow,short,f,0,2.4793,3,3,15,2,1,,,,,
1.54,,,,,,,,,f,blue,596cf4aae2a6a700014cade1,2021-09-27_11h15.14.986,forced_choiceRT_color,2021.2.3,Win32,59.97001499,,,,,,,,8,Ontime,short,f,1,2.0461,4,0,16,1,1,,,,,
0.88,,,,,,,,,f,blue,596cf4aae2a6a700014cade1,2021-09-27_11h15.14.986,forced_choiceRT_color,2021.2.3,Win32,59.97001499,,,,,,,,8,Ontime,short,f,1,2.0364,4,1,17,1,1,,,,,
0.61,,,,,,,,,f,blue,596cf4aae2a6a700014cade1,2021-09-27_11h15.14.986,forced_choiceRT_color,2021.2.3,Win32,59.97001499,,,,,,,,8,Ontime,short,f,1,2.0163,4,2,18,1,1,,,,,
0.93,,,,,,,,,k,purple,596cf4aae2a6a700014cade1,2021-09-27_11h15.14.986,forced_choiceRT_color,2021.2.3,Win32,59.97001499,,,,,,,,8,Ontime,short,k,1,1.9694,4,3,19,3,1,,,,,
1.44,,,,,,,,,k,purple,596cf4aae2a6a700014cade1,2021-09-27_11h15.14.986,forced_choiceRT_color,2021.2.3,Win32,59.97001499,,,,,,,,8,Ontime,short,k,1,2.0032,5,0,20,3,1,,,,,
1.09,,,,,,,,,k,purple,596cf4aae2a6a700014cade1,2021-09-27_11h15.14.986,forced_choiceRT_color,2021.2.3,Win32,59.97001499,,,,,,,,8,Ontime,short,k,1,2.0038,5,1,21,3,1,,,,,
0.96,,,,,,,,,j,red,596cf4aae2a6a700014cade1,2021-09-27_11h15.14.986,forced_choiceRT_color,2021.2.3,Win32,59.97001499,,,,,,,,8,Ontime,short,j,1,2.0033,5,2,22,2,1,,,,,
0.15,,,,,,,,,f,blue,596cf4aae2a6a700014cade1,2021-09-27_11h15.14.986,forced_choiceRT_color,2021.2.3,Win32,59.97001499,,,,,,,,8,Ontime,short,f,1,1.9268,5,3,23,1,1,,,,,
0.83,,,,,,,,,d,orange,596cf4aae2a6a700014cade1,2021-09-27_11h15.14.986,forced_choiceRT_color,2021.2.3,Win32,59.97001499,,,,,,,,8,Ontime,short,d,1,1.9498,6,0,24,0,1,,,,,
0.51,,,,,,,,,j,red,596cf4aae2a6a700014cade1,2021-09-27_11h15.14.986,forced_choiceRT_color,2021.2.3,Win32,59.97001499,,,,,,,,8,Ontime,short,j,1,1.9038,6,1,25,2,1,,,,,
1.8,,,,,,,,,j,red,596cf4aae2a6a700014cade1,2021-09-27_11h15.14.986,forced_choiceRT_color,2021.2.3,Win32,59.97001499,,,,,,,,8,Ontime,short,f,0,2.0238,6,2,26,2,1,,,,,
0.87,,,,,,,,,k,purple,596cf4aae2a6a700014cade1,2021-09-27_11h15.14.986,forced_choiceRT_color,2021.2.3,Win32,59.97001499,,,,,,,,8,Ontime,short,k,1,1.936,6,3,27,3,1,,,,,
0.89,,,,,,,,,d,orange,596cf4aae2a6a700014cade1,2021-09-27_11h15.14.986,forced_choiceRT_color,2021.2.3,Win32,59.97001499,,,,,,,,8,Ontime,short,d,1,1.9479,7,0,28,0,1,,,,,
0.24,,,,,,,,,j,red,596cf4aae2a6a700014cade1,2021-09-27_11h15.14.986,forced_choiceRT_color,2021.2.3,Win32,59.97001499,,,,,,,,8,Ontime,short,j,1,1.9997,7,1,29,2,1,,,,,
0.9,,,,,,,,,f,blue,596cf4aae2a6a700014cade1,2021-09-27_11h15.14.986,forced_choiceRT_color,2021.2.3,Win32,59.97001499,,,,,,,,8,Ontime,short,f,1,1.975,7,2,30,1,1,,,,,
1.23,,,,,,,,,d,orange,596cf4aae2a6a700014cade1,2021-09-27_11h15.14.986,forced_choiceRT_color,2021.2.3,Win32,59.97001499,,,,,,,,8,Ontime,short,d,1,1.9316,7,3,31,0,1,,,,,
1.01,,,,,,,,,d,orange,596cf4aae2a6a700014cade1,2021-09-27_11h15.14.986,forced_choiceRT_color,2021.2.3,Win32,59.97001499,,,,,,,,8,Ontime,short,d,1,1.9861,8,0,32,0,1,,,,,
1.55,,,,,,,,,j,red,596cf4aae2a6a700014cade1,2021-09-27_11h15.14.986,forced_choiceRT_color,2021.2.3,Win32,59.97001499,,,,,,,,8,Ontime,short,k,0,1.9877,8,1,33,2,1,,,,,
0.89,,,,,,,,,d,orange,596cf4aae2a6a700014cade1,2021-09-27_11h15.14.986,forced_choiceRT_color,2021.2.3,Win32,59.97001499,,,,,,,,8,Ontime,short,d,1,1.9866,8,2,34,0,1,,,,,
1.43,,,,,,,,,j,red,596cf4aae2a6a700014cade1,2021-09-27_11h15.14.986,forced_choiceRT_color,2021.2.3,Win32,59.97001499,,,,,,,,8,Slow,short,j,1,2.1032,8,3,35,2,1,,,,,
0.27,,,,,,,,,k,purple,596cf4aae2a6a700014cade1,2021-09-27_11h15.14.986,forced_choiceRT_color,2021.2.3,Win32,59.97001499,,,,,,,,8,Ontime,short,k,1,1.9025,9,0,36,3,1,,,,,
0.22,,,,,,,,,f,blue,596cf4aae2a6a700014cade1,2021-09-27_11h15.14.986,forced_choiceRT_color,2021.2.3,Win32,59.97001499,,,,,,,,8,Ontime,short,f,1,1.9528,9,1,37,1,1,,,,,
1.07,,,,,,,,,k,purple,596cf4aae2a6a700014cade1,2021-09-27_11h15.14.986,forced_choiceRT_color,2021.2.3,Win32,59.97001499,,,,,,,,8,Ontime,short,k,1,1.9889,9,2,38,3,1,,,,,
0.4,,,,,,,,,d,orange,596cf4aae2a6a700014cade1,2021-09-27_11h15.14.986,forced_choiceRT_color,2021.2.3,Win32,59.97001499,,,,,,,,8,Ontime,short,d,1,1.9359,9,3,39,0,1,,,,,
,,,,,,,,,,,596cf4aae2a6a700014cade1,2021-09-27_11h15.14.986,forced_choiceRT_color,2021.2.3,Win32,59.97001499,,,,,,,,,,,,,,,,,,,7,0,7,0,1
0.61,,,,,,,,,k,purple,596cf4aae2a6a700014cade1,2021-09-27_11h15.14.986,forced_choiceRT_color,2021.2.3,Win32,59.97001499,,,,,,,,9,Ontime,short,k,1,1.9506,0,0,0,3,1,,,,,
0.97,,,,,,,,,j,red,596cf4aae2a6a700014cade1,2021-09-27_11h15.14.986,forced_choiceRT_color,2021.2.3,Win32,59.97001499,,,,,,,,9,Ontime,short,f,0,2.0028,0,1,1,2,1,,,,,
1.52,,,,,,,,,j,red,596cf4aae2a6a700014cade1,2021-09-27_11h15.14.986,forced_choiceRT_color,2021.2.3,Win32,59.97001499,,,,,,,,9,Slow,short,j,1,2.1363,0,2,2,2,1,,,,,
1.65,,,,,,,,,d,orange,596cf4aae2a6a700014cade1,2021-09-27_11h15.14.986,forced_choiceRT_color,2021.2.3,Win32,59.97001499,,,,,,,,9,Slow,short,d,1,2.1684,0,3,3,0,1,,,,,
1.5,,,,,,,,,k,purple,596cf4aae2a6a700014cade1,2021-09-27_11h15.14.986,forced_choiceRT_color,2021.2.3,Win32,59.97001499,,,,,,,,9,Slow,short,k,1,2.2583,1,0,4,3,1,,,,,
1.11,,,,,,,,,d,orange,596cf4aae2a6a700014cade1,2021-09-27_11h15.14.986,forced_choiceRT_color,2021.2.3,Win32,59.97001499,,,,,,,,9,Ontime,short,d,1,1.9725,1,1,5,0,1,,,,,
1.51,,,,,,,,,f,blue,596cf4aae2a6a700014cade1,2021-09-27_11h15.14.986,forced_choiceRT_color,2021.2.3,Win32,59.97001499,,,,,,,,9,Ontime,short,k,0,2.0701,1,2,6,1,1,,,,,
0.9,,,,,,,,,k,purple,596cf4aae2a6a700014cade1,2021-09-27_11h15.14.986,forced_choiceRT_color,2021.2.3,Win32,59.97001499,,,,,,,,9,Fast,short,k,1,1.8961,1,3,7,3,1,,,,,
1.02,,,,,,,,,j,red,596cf4aae2a6a700014cade1,2021-09-27_11h15.14.986,forced_choiceRT_color,2021.2.3,Win32,59.97001499,,,,,,,,9,Slow,short,j,1,2.1074,2,0,8,2,1,,,,,
1.47,,,,,,,,,d,orange,596cf4aae2a6a700014cade1,2021-09-27_11h15.14.986,forced_choiceRT_color,2021.2.3,Win32,59.97001499,,,,,,,,9,Ontime,short,d,1,2.0349,2,1,9,0,1,,,,,
0.58,,,,,,,,,j,red,596cf4aae2a6a700014cade1,2021-09-27_11h15.14.986,forced_choiceRT_color,2021.2.3,Win32,59.97001499,,,,,,,,9,Ontime,short,j,1,1.9716,2,2,10,2,1,,,,,
1.24,,,,,,,,,j,red,596cf4aae2a6a700014cade1,2021-09-27_11h15.14.986,forced_choiceRT_color,2021.2.3,Win32,59.97001499,,,,,,,,9,Ontime,short,j,1,1.9451,2,3,11,2,1,,,,,
1.64,,,,,,,,,f,blue,596cf4aae2a6a700014cade1,2021-09-27_11h15.14.986,forced_choiceRT_color,2021.2.3,Win32,59.97001499,,,,,,,,9,Ontime,short,f,1,2.0196,3,0,12,1,1,,,,,
1.66,,,,,,,,,d,orange,596cf4aae2a6a700014cade1,2021-09-27_11h15.14.986,forced_choiceRT_color,2021.2.3,Win32,59.97001499,,,,,,,,9,Ontime,short,j,0,1.9886,3,1,13,0,1,,,,,
1.95,,,,,,,,,k,purple,596cf4aae2a6a700014cade1,2021-09-27_11h15.14.986,forced_choiceRT_color,2021.2.3,Win32,59.97001499,,,,,,,,9,Fast,short,f,0,0.0345,3,2,14,3,1,,,,,
0.15,,,,,,,,,k,purple,596cf4aae2a6a700014cade1,2021-09-27_11h15.14.986,forced_choiceRT_color,2021.2.3,Win32,59.97001499,,,,,,,,9,Ontime,short,k,1,1.9026,3,3,15,3,1,,,,,
1.59,,,,,,,,,j,red,596cf4aae2a6a700014cade1,2021-09-27_11h15.14.986,forced_choiceRT_color,2021.2.3,Win32,59.97001499,,,,,,,,9,Ontime,short,d,0,2.0226,4,0,16,2,1,,,,,
1.34,,,,,,,,,f,blue,596cf4aae2a6a700014cade1,2021-09-27_11h15.14.986,forced_choiceRT_color,2021.2.3,Win32,59.97001499,,,,,,,,9,Slow,short,f,1,2.121,4,1,17,1,1,,,,,
0.48,,,,,,,,,f,blue,596cf4aae2a6a700014cade1,2021-09-27_11h15.14.986,forced_choiceRT_color,2021.2.3,Win32,59.97001499,,,,,,,,9,Ontime,short,f,1,2.0105,4,2,18,1,1,,,,,
0.57,,,,,,,,,f,blue,596cf4aae2a6a700014cade1,2021-09-27_11h15.14.986,forced_choiceRT_color,2021.2.3,Win32,59.97001499,,,,,,,,9,Ontime,short,f,1,1.9354,4,3,19,1,1,,,,,
1.49,,,,,,,,,d,orange,596cf4aae2a6a700014cade1,2021-09-27_11h15.14.986,forced_choiceRT_color,2021.2.3,Win32,59.97001499,,,,,,,,9,Ontime,short,j,0,1.9454,5,0,20,0,1,,,,,
0.02,,,,,,,,,f,blue,596cf4aae2a6a700014cade1,2021-09-27_11h15.14.986,forced_choiceRT_color,2021.2.3,Win32,59.97001499,,,,,,,,9,Ontime,short,f,1,1.9197,5,1,21,1,1,,,,,
1.37,,,,,,,,,f,blue,596cf4aae2a6a700014cade1,2021-09-27_11h15.14.986,forced_choiceRT_color,2021.2.3,Win32,59.97001499,,,,,,,,9,Ontime,short,f,1,2.0024,5,2,22,1,1,,,,,
0.57,,,,,,,,,j,red,596cf4aae2a6a700014cade1,2021-09-27_11h15.14.986,forced_choiceRT_color,2021.2.3,Win32,59.97001499,,,,,,,,9,Ontime,short,j,1,1.957,5,3,23,2,1,,,,,
1.99,,,,,,,,,d,orange,596cf4aae2a6a700014cade1,2021-09-27_11h15.14.986,forced_choiceRT_color,2021.2.3,Win32,59.97001499,,,,,,,,9,Ontime,short,d,1,2.0027,6,0,24,0,1,,,,,
1.89,,,,,,,,,d,orange,596cf4aae2a6a700014cade1,2021-09-27_11h15.14.986,forced_choiceRT_color,2021.2.3,Win32,59.97001499,,,,,,,,9,Ontime,short,k,0,2.0322,6,1,25,0,1,,,,,
0.78,,,,,,,,,d,orange,596cf4aae2a6a700014cade1,2021-09-27_11h15.14.986,forced_choiceRT_color,2021.2.3,Win32,59.97001499,,,,,,,,9,Ontime,short,d,1,1.9679,6,2,26,0,1,,,,,
0.24,,,,,,,,,k,purple,596cf4aae2a6a700014cade1,2021-09-27_11h15.14.986,forced_choiceRT_color,2021.2.3,Win32,59.97001499,,,,,,,,9,Ontime,short,k,1,1.9377,6,3,27,3,1,,,,,
1.79,,,,,,,,,k,purple,596cf4aae2a6a700014cade1,2021-09-27_11h15.14.986,forced_choiceRT_color,2021.2.3,Win32,59.97001499,,,,,,,,9,Slow,short,k,1,2.103,7,0,28,3,1,,,,,
0.86,,,,,,,,,j,red,596cf4aae2a6a700014cade1,2021-09-27_11h15.14.986,forced_choiceRT_color,2021.2.3,Win32,59.97001499,,,,,,,,9,Ontime,short,j,1,1.9363,7,1,29,2,1,,,,,
0.68,,,,,,,,,f,blue,596cf4aae2a6a700014cade1,2021-09-27_11h15.14.986,forced_choiceRT_color,2021.2.3,Win32,59.97001499,,,,,,,,9,Ontime,short,f,1,2.0193,7,2,30,1,1,,,,,
0.3,,,,,,,,,f,blue,596cf4aae2a6a700014cade1,2021-09-27_11h15.14.986,forced_choiceRT_color,2021.2.3,Win32,59.97001499,,,,,,,,9,Ontime,short,f,1,1.9759,7,3,31,1,1,,,,,
1.35,,,,,,,,,k,purple,596cf4aae2a6a700014cade1,2021-09-27_11h15.14.986,forced_choiceRT_color,2021.2.3,Win32,59.97001499,,,,,,,,9,Ontime,short,j,0,2.0451,8,0,32,3,1,,,,,
1.78,,,,,,,,,k,purple,596cf4aae2a6a700014cade1,2021-09-27_11h15.14.986,forced_choiceRT_color,2021.2.3,Win32,59.97001499,,,,,,,,9,Fast,short,k,1,0.059,8,1,33,3,1,,,,,
0.37,,,,,,,,,d,orange,596cf4aae2a6a700014cade1,2021-09-27_11h15.14.986,forced_choiceRT_color,2021.2.3,Win32,59.97001499,,,,,,,,9,Ontime,short,d,1,1.981,8,2,34,0,1,,,,,
0.95,,,,,,,,,d,orange,596cf4aae2a6a700014cade1,2021-09-27_11h15.14.986,forced_choiceRT_color,2021.2.3,Win32,59.97001499,,,,,,,,9,Ontime,short,d,1,1.9858,8,3,35,0,1,,,,,
1.77,,,,,,,,,j,red,596cf4aae2a6a700014cade1,2021-09-27_11h15.14.986,forced_choiceRT_color,2021.2.3,Win32,59.97001499,,,,,,,,9,Slow,short,k,0,2.1381,9,0,36,2,1,,,,,
1.06,,,,,,,,,f,blue,596cf4aae2a6a700014cade1,2021-09-27_11h15.14.986,forced_choiceRT_color,2021.2.3,Win32,59.97001499,,,,,,,,9,Ontime,short,f,1,2.0295,9,1,37,1,1,,,,,
0.31,,,,,,,,,j,red,596cf4aae2a6a700014cade1,2021-09-27_11h15.14.986,forced_choiceRT_color,2021.2.3,Win32,59.97001499,,,,,,,,9,Ontime,short,j,1,1.9391,9,2,38,2,1,,,,,
0.08,,,,,,,,,k,purple,596cf4aae2a6a700014cade1,2021-09-27_11h15.14.986,forced_choiceRT_color,2021.2.3,Win32,59.97001499,,,,,,,,9,Fast,short,k,1,1.856,9,3,39,3,1,,,,,
,,,,,,,,,,,596cf4aae2a6a700014cade1,2021-09-27_11h15.14.986,forced_choiceRT_color,2021.2.3,Win32,59.97001499,,,,,,,,,,,,,,,,,,,8,0,8,0,1
1.51,,,,,,,,,f,blue,596cf4aae2a6a700014cade1,2021-09-27_11h15.14.986,forced_choiceRT_color,2021.2.3,Win32,59.97001499,,,,,,,,10,Slow,short,k,0,2.1201,0,0,0,1,1,,,,,
0.03,,,,,,,,,d,orange,596cf4aae2a6a700014cade1,2021-09-27_11h15.14.986,forced_choiceRT_color,2021.2.3,Win32,59.97001499,,,,,,,,10,Ontime,short,d,1,1.9057,0,1,1,0,1,,,,,
1.77,,,,,,,,,k,purple,596cf4aae2a6a700014cade1,2021-09-27_11h15.14.986,forced_choiceRT_color,2021.2.3,Win32,59.97001499,,,,,,,,10,Slow,short,f,0,2.1871,0,2,2,3,1,,,,,
0,,,,,,,,,j,red,596cf4aae2a6a700014cade1,2021-09-27_11h15.14.986,forced_choiceRT_color,2021.2.3,Win32,59.97001499,,,,,,,,10,Fast,short,j,1,1.8193,0,3,3,2,1,,,,,
1.03,,,,,,,,,f,blue,596cf4aae2a6a700014cade1,2021-09-27_11h15.14.986,forced_choiceRT_color,2021.2.3,Win32,59.97001499,,,,,,,,10,Ontime,short,f,1,2.0985,1,0,4,1,1,,,,,
1.61,,,,,,,,,j,red,596cf4aae2a6a700014cade1,2021-09-27_11h15.14.986,forced_choiceRT_color,2021.2.3,Win32,59.97001499,,,,,,,,10,Slow,short,j,1,2.3212,1,1,5,2,1,,,,,
0.75,,,,,,,,,f,blue,596cf4aae2a6a700014cade1,2021-09-27_11h15.14.986,forced_choiceRT_color,2021.2.3,Win32,59.97001499,,,,,,,,10,Ontime,short,f,1,2.0528,1,2,6,1,1,,,,,
0,,,,,,,,,f,blue,596cf4aae2a6a700014cade1,2021-09-27_11h15.14.986,forced_choiceRT_color,2021.2.3,Win32,59.97001499,,,,,,,,10,Fast,short,f,1,1.8859,1,3,7,1,1,,,,,
1.97,,,,,,,,,k,purple,596cf4aae2a6a700014cade1,2021-09-27_11h15.14.986,forced_choiceRT_color,2021.2.3,Win32,59.97001499,,,,,,,,10,Slow,short,k,1,2.1305,2,0,8,3,1,,,,,
1.21,,,,,,,,,j,red,596cf4aae2a6a700014cade1,2021-09-27_11h15.14.986,forced_choiceRT_color,2021.2.3,Win32,59.97001499,,,,,,,,10,Ontime,short,f,0,2.0507,2,1,9,2,1,,,,,
1.25,,,,,,,,,f,blue,596cf4aae2a6a700014cade1,2021-09-27_11h15.14.986,forced_choiceRT_color,2021.2.3,Win32,59.97001499,,,,,,,,10,Ontime,short,f,1,2.0926,2,2,10,1,1,,,,,
0.14,,,,,,,,,f,blue,596cf4aae2a6a700014cade1,2021-09-27_11h15.14.986,forced_choiceRT_color,2021.2.3,Win32,59.97001499,,,,,,,,10,Ontime,short,f,1,2.041,2,3,11,1,1,,,,,
1.15,,,,,,,,,j,red,596cf4aae2a6a700014cade1,2021-09-27_11h15.14.986,forced_choiceRT_color,2021.2.3,Win32,59.97001499,,,,,,,,10,Ontime,short,j,1,1.9528,3,0,12,2,1,,,,,
1.6,,,,,,,,,k,purple,596cf4aae2a6a700014cade1,2021-09-27_11h15.14.986,forced_choiceRT_color,2021.2.3,Win32,59.97001499,,,,,,,,10,Ontime,short,j,0,2.0573,3,1,13,3,1,,,,,
0.39,,,,,,,,,d,orange,596cf4aae2a6a700014cade1,2021-09-27_11h15.14.986,forced_choiceRT_color,2021.2.3,Win32,59.97001499,,,,,,,,10,Fast,short,k,0,0.114,3,2,14,0,1,,,,,
0.34,,,,,,,,,k,purple,596cf4aae2a6a700014cade1,2021-09-27_11h15.14.986,forced_choiceRT_color,2021.2.3,Win32,59.97001499,,,,,,,,10,Ontime,short,k,1,1.9196,3,3,15,3,1,,,,,
0.44,,,,,,,,,f,blue,596cf4aae2a6a700014cade1,2021-09-27_11h15.14.986,forced_choiceRT_color,2021.2.3,Win32,59.97001499,,,,,,,,10,Ontime,short,f,1,1.9691,4,0,16,1,1,,,,,
0.59,,,,,,,,,k,purple,596cf4aae2a6a700014cade1,2021-09-27_11h15.14.986,forced_choiceRT_color,2021.2.3,Win32,59.97001499,,,,,,,,10,Ontime,short,k,1,1.9528,4,1,17,3,1,,,,,
0.08,,,,,,,,,j,red,596cf4aae2a6a700014cade1,2021-09-27_11h15.14.986,forced_choiceRT_color,2021.2.3,Win32,59.97001499,,,,,,,,10,Ontime,short,j,1,1.9194,4,2,18,2,1,,,,,
0.08,,,,,,,,,d,orange,596cf4aae2a6a700014cade1,2021-09-27_11h15.14.986,forced_choiceRT_color,2021.2.3,Win32,59.97001499,,,,,,,,10,Ontime,short,d,1,1.9693,4,3,19,0,1,,,,,
0.04,,,,,,,,,k,purple,596cf4aae2a6a700014cade1,2021-09-27_11h15.14.986,forced_choiceRT_color,2021.2.3,Win32,59.97001499,,,,,,,,10,Ontime,short,k,1,1.9789,5,0,20,3,1,,,,,
1.67,,,,,,,,,d,orange,596cf4aae2a6a700014cade1,2021-09-27_11h15.14.986,forced_choiceRT_color,2021.2.3,Win32,59.97001499,,,,,,,,10,Ontime,short,d,1,2.0199,5,1,21,0,1,,,,,
0.79,,,,,,,,,f,blue,596cf4aae2a6a700014cade1,2021-09-27_11h15.14.986,forced_choiceRT_color,2021.2.3,Win32,59.97001499,,,,,,,,10,Ontime,short,j,0,1.9697,5,2,22,1,1,,,,,
1.84,,,,,,,,,d,orange,596cf4aae2a6a700014cade1,2021-09-27_11h15.14.986,forced_choiceRT_color,2021.2.3,Win32,59.97001499,,,,,,,,10,Slow,short,k,0,2.3201,5,3,23,0,1,,,,,
1.94,,,,,,,,,k,purple,596cf4aae2a6a700014cade1,2021-09-27_11h15.14.986,forced_choiceRT_color,2021.2.3,Win32,59.97001499,,,,,,,,10,Slow,short,k,1,2.4398,6,0,24,3,1,,,,,
0.68,,,,,,,,,j,red,596cf4aae2a6a700014cade1,2021-09-27_11h15.14.986,forced_choiceRT_color,2021.2.3,Win32,59.97001499,,,,,,,,10,Ontime,short,j,1,1.9697,6,1,25,2,1,,,,,
0.86,,,,,,,,,k,purple,596cf4aae2a6a700014cade1,2021-09-27_11h15.14.986,forced_choiceRT_color,2021.2.3,Win32,59.97001499,,,,,,,,10,Ontime,short,k,1,1.9144,6,2,26,3,1,,,,,
0.59,,,,,,,,,d,orange,596cf4aae2a6a700014cade1,2021-09-27_11h15.14.986,forced_choiceRT_color,2021.2.3,Win32,59.97001499,,,,,,,,10,Fast,short,d,1,1.8859,6,3,27,0,1,,,,,
1.13,,,,,,,,,d,orange,596cf4aae2a6a700014cade1,2021-09-27_11h15.14.986,forced_choiceRT_color,2021.2.3,Win32,59.97001499,,,,,,,,10,Ontime,short,d,1,1.9533,7,0,28,0,1,,,,,
0.57,,,,,,,,,k,purple,596cf4aae2a6a700014cade1,2021-09-27_11h15.14.986,forced_choiceRT_color,2021.2.3,Win32,59.97001499,,,,,,,,10,Ontime,short,k,1,1.9444,7,1,29,3,1,,,,,
1.91,,,,,,,,,d,orange,596cf4aae2a6a700014cade1,2021-09-27_11h15.14.986,forced_choiceRT_color,2021.2.3,Win32,59.97001499,,,,,,,,10,Slow,short,j,0,2.2371,7,2,30,0,1,,,,,
0.41,,,,,,,,,j,red,596cf4aae2a6a700014cade1,2021-09-27_11h15.14.986,forced_choiceRT_color,2021.2.3,Win32,59.97001499,,,,,,,,10,Ontime,short,j,1,1.9062,7,3,31,2,1,,,,,
1.46,,,,,,,,,d,orange,596cf4aae2a6a700014cade1,2021-09-27_11h15.14.986,forced_choiceRT_color,2021.2.3,Win32,59.97001499,,,,,,,,10,Ontime,short,d,1,1.9362,8,0,32,0,1,,,,,
1.24,,,,,,,,,j,red,596cf4aae2a6a700014cade1,2021-09-27_11h15.14.986,forced_choiceRT_color,2021.2.3,Win32,59.97001499,,,,,,,,10,Ontime,short,j,1,2.036,8,1,33,2,1,,,,,
0.11,,,,,,,,,f,blue,596cf4aae2a6a700014cade1,2021-09-27_11h15.14.986,forced_choiceRT_color,2021.2.3,Win32,59.97001499,,,,,,,,10,Ontime,short,f,1,1.9064,8,2,34,1,1,,,,,
1.59,,,,,,,,,f,blue,596cf4aae2a6a700014cade1,2021-09-27_11h15.14.986,forced_choiceRT_color,2021.2.3,Win32,59.97001499,,,,,,,,10,Ontime,short,k,0,2.003,8,3,35,1,1,,,,,
1.99,,,,,,,,,k,purple,596cf4aae2a6a700014cade1,2021-09-27_11h15.14.986,forced_choiceRT_color,2021.2.3,Win32,59.97001499,,,,,,,,10,Slow,short,k,1,2.4364,9,0,36,3,1,,,,,
0.04,,,,,,,,,j,red,596cf4aae2a6a700014cade1,2021-09-27_11h15.14.986,forced_choiceRT_color,2021.2.3,Win32,59.97001499,,,,,,,,10,Ontime,short,j,1,1.9191,9,1,37,2,1,,,,,
0.02,,,,,,,,,j,red,596cf4aae2a6a700014cade1,2021-09-27_11h15.14.986,forced_choiceRT_color,2021.2.3,Win32,59.97001499,,,,,,,,10,Fast,short,j,1,1.8539,9,2,38,2,1,,,,,
0.46,,,,,,,,,d,orange,596cf4aae2a6a700014cade1,2021-09-27_11h15.14.986,forced_choiceRT_color,2021.2.3,Win32,59.97001499,,,,,,,,10,Ontime,short,d,1,1.9258,9,3,39,0,1,,,,,
,,,,,,,,,,,596cf4aae2a6a700014cade1,2021-09-27_11h15.14.986,forced_choiceRT_color,2021.2.3,Win32,59.97001499,,,,,,,,,,,,,,,,,,,9,0,9,0,1
