IP_Addresss,target_onset,trial_resp_sp.keys,trial_resp_sp.corr,trial_resp_sp.rt,trials_train_loop.thisRepN,trials_train_loop.thisTrialN,trials_train_loop.thisN,trials_train_loop.thisIndex,trials_train_loop.ran,correct_key,color,participant,date,expName,psychopyVersion,OS,frameRate,trial_resp_timing.keys,trial_resp_timing.rt,trials_train_timing.thisRepN,trials_train_timing.thisTrialN,trials_train_timing.thisN,trials_train_timing.thisIndex,trials_train_timing.ran,block_id,ontime,feedback_cond,forcedRT_resp.keys,forcedRT_resp.corr,forcedRT_resp.rt,trials.thisRepN,trials.thisTrialN,trials.thisN,trials.thisIndex,trials.ran,blocks.thisRepN,blocks.thisTrialN,blocks.thisN,blocks.thisIndex,blocks.ran
50.67.93.139,0,d,1,0.921,0,0,0,0,1,d,orange,596f003434773e0001fc0d28,2021-09-27_14h12.01.651,forced_choiceRT_color,2021.2.3,MacIntel,59.31198102,,,,,,,,,,,,,,,,,,,,,,,
,0,d,1,0.767,0,1,1,0,1,d,orange,596f003434773e0001fc0d28,2021-09-27_14h12.01.651,forced_choiceRT_color,2021.2.3,MacIntel,59.31198102,,,,,,,,,,,,,,,,,,,,,,,
,0,d,1,0.729,0,2,2,0,1,d,orange,596f003434773e0001fc0d28,2021-09-27_14h12.01.651,forced_choiceRT_color,2021.2.3,MacIntel,59.31198102,,,,,,,,,,,,,,,,,,,,,,,
,0,d,1,0.462,0,3,3,0,1,d,orange,596f003434773e0001fc0d28,2021-09-27_14h12.01.651,forced_choiceRT_color,2021.2.3,MacIntel,59.31198102,,,,,,,,,,,,,,,,,,,,,,,
,0,k,1,0.674,1,0,4,3,1,k,purple,596f003434773e0001fc0d28,2021-09-27_14h12.01.651,forced_choiceRT_color,2021.2.3,MacIntel,59.31198102,,,,,,,,,,,,,,,,,,,,,,,
,0,j,1,0.773,1,1,5,2,1,j,red,596f003434773e0001fc0d28,2021-09-27_14h12.01.651,forced_choiceRT_color,2021.2.3,MacIntel,59.31198102,,,,,,,,,,,,,,,,,,,,,,,
,0,f,1,1.151,1,2,6,1,1,f,blue,596f003434773e0001fc0d28,2021-09-27_14h12.01.651,forced_choiceRT_color,2021.2.3,MacIntel,59.31198102,,,,,,,,,,,,,,,,,,,,,,,
,0,f,1,0.475,1,3,7,1,1,f,blue,596f003434773e0001fc0d28,2021-09-27_14h12.01.651,forced_choiceRT_color,2021.2.3,MacIntel,59.31198102,,,,,,,,,,,,,,,,,,,,,,,
,0,k,1,0.635,2,0,8,3,1,k,purple,596f003434773e0001fc0d28,2021-09-27_14h12.01.651,forced_choiceRT_color,2021.2.3,MacIntel,59.31198102,,,,,,,,,,,,,,,,,,,,,,,
,0,k,1,0.433,2,1,9,3,1,k,purple,596f003434773e0001fc0d28,2021-09-27_14h12.01.651,forced_choiceRT_color,2021.2.3,MacIntel,59.31198102,,,,,,,,,,,,,,,,,,,,,,,
,0,k,1,0.405,2,2,10,3,1,k,purple,596f003434773e0001fc0d28,2021-09-27_14h12.01.651,forced_choiceRT_color,2021.2.3,MacIntel,59.31198102,,,,,,,,,,,,,,,,,,,,,,,
,0,j,1,0.758,2,3,11,2,1,j,red,596f003434773e0001fc0d28,2021-09-27_14h12.01.651,forced_choiceRT_color,2021.2.3,MacIntel,59.31198102,,,,,,,,,,,,,,,,,,,,,,,
,0,f,1,0.908,3,0,12,1,1,f,blue,596f003434773e0001fc0d28,2021-09-27_14h12.01.651,forced_choiceRT_color,2021.2.3,MacIntel,59.31198102,,,,,,,,,,,,,,,,,,,,,,,
,0,j,1,0.826,3,1,13,2,1,j,red,596f003434773e0001fc0d28,2021-09-27_14h12.01.651,forced_choiceRT_color,2021.2.3,MacIntel,59.31198102,,,,,,,,,,,,,,,,,,,,,,,
,0,j,1,0.434,3,2,14,2,1,j,red,596f003434773e0001fc0d28,2021-09-27_14h12.01.651,forced_choiceRT_color,2021.2.3,MacIntel,59.31198102,,,,,,,,,,,,,,,,,,,,,,,
,0,d,0,0.851,3,3,15,1,1,f,blue,596f003434773e0001fc0d28,2021-09-27_14h12.01.651,forced_choiceRT_color,2021.2.3,MacIntel,59.31198102,,,,,,,,,,,,,,,,,,,,,,,
,0,j,1,1.171,4,0,16,2,1,j,red,596f003434773e0001fc0d28,2021-09-27_14h12.01.651,forced_choiceRT_color,2021.2.3,MacIntel,59.31198102,,,,,,,,,,,,,,,,,,,,,,,
,0,j,1,0.646,4,1,17,2,1,j,red,596f003434773e0001fc0d28,2021-09-27_14h12.01.651,forced_choiceRT_color,2021.2.3,MacIntel,59.31198102,,,,,,,,,,,,,,,,,,,,,,,
,0,k,1,0.559,4,2,18,3,1,k,purple,596f003434773e0001fc0d28,2021-09-27_14h12.01.651,forced_choiceRT_color,2021.2.3,MacIntel,59.31198102,,,,,,,,,,,,,,,,,,,,,,,
,0,k,1,0.427,4,3,19,3,1,k,purple,596f003434773e0001fc0d28,2021-09-27_14h12.01.651,forced_choiceRT_color,2021.2.3,MacIntel,59.31198102,,,,,,,,,,,,,,,,,,,,,,,
,0,d,1,0.783,5,0,20,0,1,d,orange,596f003434773e0001fc0d28,2021-09-27_14h12.01.651,forced_choiceRT_color,2021.2.3,MacIntel,59.31198102,,,,,,,,,,,,,,,,,,,,,,,
,0,d,1,0.389,5,1,21,0,1,d,orange,596f003434773e0001fc0d28,2021-09-27_14h12.01.651,forced_choiceRT_color,2021.2.3,MacIntel,59.31198102,,,,,,,,,,,,,,,,,,,,,,,
,0,j,1,0.722,5,2,22,2,1,j,red,596f003434773e0001fc0d28,2021-09-27_14h12.01.651,forced_choiceRT_color,2021.2.3,MacIntel,59.31198102,,,,,,,,,,,,,,,,,,,,,,,
,0,f,1,0.888,5,3,23,1,1,f,blue,596f003434773e0001fc0d28,2021-09-27_14h12.01.651,forced_choiceRT_color,2021.2.3,MacIntel,59.31198102,,,,,,,,,,,,,,,,,,,,,,,
,0,f,1,0.374,6,0,24,1,1,f,blue,596f003434773e0001fc0d28,2021-09-27_14h12.01.651,forced_choiceRT_color,2021.2.3,MacIntel,59.31198102,,,,,,,,,,,,,,,,,,,,,,,
,0,f,1,0.506,6,1,25,1,1,f,blue,596f003434773e0001fc0d28,2021-09-27_14h12.01.651,forced_choiceRT_color,2021.2.3,MacIntel,59.31198102,,,,,,,,,,,,,,,,,,,,,,,
,0,f,1,0.464,6,2,26,1,1,f,blue,596f003434773e0001fc0d28,2021-09-27_14h12.01.651,forced_choiceRT_color,2021.2.3,MacIntel,59.31198102,,,,,,,,,,,,,,,,,,,,,,,
,0,j,1,0.545,6,3,27,2,1,j,red,596f003434773e0001fc0d28,2021-09-27_14h12.01.651,forced_choiceRT_color,2021.2.3,MacIntel,59.31198102,,,,,,,,,,,,,,,,,,,,,,,
,0,d,1,0.717,7,0,28,0,1,d,orange,596f003434773e0001fc0d28,2021-09-27_14h12.01.651,forced_choiceRT_color,2021.2.3,MacIntel,59.31198102,,,,,,,,,,,,,,,,,,,,,,,
,0,j,1,0.834,7,1,29,2,1,j,red,596f003434773e0001fc0d28,2021-09-27_14h12.01.651,forced_choiceRT_color,2021.2.3,MacIntel,59.31198102,,,,,,,,,,,,,,,,,,,,,,,
,0,j,0,0.578,7,2,30,0,1,d,orange,596f003434773e0001fc0d28,2021-09-27_14h12.01.651,forced_choiceRT_color,2021.2.3,MacIntel,59.31198102,,,,,,,,,,,,,,,,,,,,,,,
,0,f,1,0.895,7,3,31,1,1,f,blue,596f003434773e0001fc0d28,2021-09-27_14h12.01.651,forced_choiceRT_color,2021.2.3,MacIntel,59.31198102,,,,,,,,,,,,,,,,,,,,,,,
,0,f,1,0.515,8,0,32,1,1,f,blue,596f003434773e0001fc0d28,2021-09-27_14h12.01.651,forced_choiceRT_color,2021.2.3,MacIntel,59.31198102,,,,,,,,,,,,,,,,,,,,,,,
,0,k,1,0.554,8,1,33,3,1,k,purple,596f003434773e0001fc0d28,2021-09-27_14h12.01.651,forced_choiceRT_color,2021.2.3,MacIntel,59.31198102,,,,,,,,,,,,,,,,,,,,,,,
,0,j,1,0.718,8,2,34,2,1,j,red,596f003434773e0001fc0d28,2021-09-27_14h12.01.651,forced_choiceRT_color,2021.2.3,MacIntel,59.31198102,,,,,,,,,,,,,,,,,,,,,,,
,0,j,1,0.339,8,3,35,2,1,j,red,596f003434773e0001fc0d28,2021-09-27_14h12.01.651,forced_choiceRT_color,2021.2.3,MacIntel,59.31198102,,,,,,,,,,,,,,,,,,,,,,,
,0,d,1,0.801,9,0,36,0,1,d,orange,596f003434773e0001fc0d28,2021-09-27_14h12.01.651,forced_choiceRT_color,2021.2.3,MacIntel,59.31198102,,,,,,,,,,,,,,,,,,,,,,,
,0,f,1,0.779,9,1,37,1,1,f,blue,596f003434773e0001fc0d28,2021-09-27_14h12.01.651,forced_choiceRT_color,2021.2.3,MacIntel,59.31198102,,,,,,,,,,,,,,,,,,,,,,,
,0,d,1,0.87,9,2,38,0,1,d,orange,596f003434773e0001fc0d28,2021-09-27_14h12.01.651,forced_choiceRT_color,2021.2.3,MacIntel,59.31198102,,,,,,,,,,,,,,,,,,,,,,,
,0,j,1,0.741,9,3,39,2,1,j,red,596f003434773e0001fc0d28,2021-09-27_14h12.01.651,forced_choiceRT_color,2021.2.3,MacIntel,59.31198102,,,,,,,,,,,,,,,,,,,,,,,
,0,d,1,0.817,10,0,40,0,1,d,orange,596f003434773e0001fc0d28,2021-09-27_14h12.01.651,forced_choiceRT_color,2021.2.3,MacIntel,59.31198102,,,,,,,,,,,,,,,,,,,,,,,
,0,k,1,0.69,10,1,41,3,1,k,purple,596f003434773e0001fc0d28,2021-09-27_14h12.01.651,forced_choiceRT_color,2021.2.3,MacIntel,59.31198102,,,,,,,,,,,,,,,,,,,,,,,
,0,f,1,0.961,10,2,42,1,1,f,blue,596f003434773e0001fc0d28,2021-09-27_14h12.01.651,forced_choiceRT_color,2021.2.3,MacIntel,59.31198102,,,,,,,,,,,,,,,,,,,,,,,
,0,d,1,0.697,10,3,43,0,1,d,orange,596f003434773e0001fc0d28,2021-09-27_14h12.01.651,forced_choiceRT_color,2021.2.3,MacIntel,59.31198102,,,,,,,,,,,,,,,,,,,,,,,
,0,j,1,0.692,11,0,44,2,1,j,red,596f003434773e0001fc0d28,2021-09-27_14h12.01.651,forced_choiceRT_color,2021.2.3,MacIntel,59.31198102,,,,,,,,,,,,,,,,,,,,,,,
,0,d,1,0.643,11,1,45,0,1,d,orange,596f003434773e0001fc0d28,2021-09-27_14h12.01.651,forced_choiceRT_color,2021.2.3,MacIntel,59.31198102,,,,,,,,,,,,,,,,,,,,,,,
,0,j,1,0.937,11,2,46,2,1,j,red,596f003434773e0001fc0d28,2021-09-27_14h12.01.651,forced_choiceRT_color,2021.2.3,MacIntel,59.31198102,,,,,,,,,,,,,,,,,,,,,,,
,0,k,1,0.511,11,3,47,3,1,k,purple,596f003434773e0001fc0d28,2021-09-27_14h12.01.651,forced_choiceRT_color,2021.2.3,MacIntel,59.31198102,,,,,,,,,,,,,,,,,,,,,,,
,0,k,1,0.51,12,0,48,3,1,k,purple,596f003434773e0001fc0d28,2021-09-27_14h12.01.651,forced_choiceRT_color,2021.2.3,MacIntel,59.31198102,,,,,,,,,,,,,,,,,,,,,,,
,0,k,1,0.412,12,1,49,3,1,k,purple,596f003434773e0001fc0d28,2021-09-27_14h12.01.651,forced_choiceRT_color,2021.2.3,MacIntel,59.31198102,,,,,,,,,,,,,,,,,,,,,,,
,0,d,1,0.7,12,2,50,0,1,d,orange,596f003434773e0001fc0d28,2021-09-27_14h12.01.651,forced_choiceRT_color,2021.2.3,MacIntel,59.31198102,,,,,,,,,,,,,,,,,,,,,,,
,0,k,1,0.54,12,3,51,3,1,k,purple,596f003434773e0001fc0d28,2021-09-27_14h12.01.651,forced_choiceRT_color,2021.2.3,MacIntel,59.31198102,,,,,,,,,,,,,,,,,,,,,,,
,0,k,1,0.601,13,0,52,3,1,k,purple,596f003434773e0001fc0d28,2021-09-27_14h12.01.651,forced_choiceRT_color,2021.2.3,MacIntel,59.31198102,,,,,,,,,,,,,,,,,,,,,,,
,0,k,1,0.434,13,1,53,3,1,k,purple,596f003434773e0001fc0d28,2021-09-27_14h12.01.651,forced_choiceRT_color,2021.2.3,MacIntel,59.31198102,,,,,,,,,,,,,,,,,,,,,,,
,0,f,1,0.772,13,2,54,1,1,f,blue,596f003434773e0001fc0d28,2021-09-27_14h12.01.651,forced_choiceRT_color,2021.2.3,MacIntel,59.31198102,,,,,,,,,,,,,,,,,,,,,,,
,0,d,1,0.895,13,3,55,0,1,d,orange,596f003434773e0001fc0d28,2021-09-27_14h12.01.651,forced_choiceRT_color,2021.2.3,MacIntel,59.31198102,,,,,,,,,,,,,,,,,,,,,,,
,0,k,1,0.532,14,0,56,3,1,k,purple,596f003434773e0001fc0d28,2021-09-27_14h12.01.651,forced_choiceRT_color,2021.2.3,MacIntel,59.31198102,,,,,,,,,,,,,,,,,,,,,,,
,0,k,0,0.425,14,1,57,1,1,f,blue,596f003434773e0001fc0d28,2021-09-27_14h12.01.651,forced_choiceRT_color,2021.2.3,MacIntel,59.31198102,,,,,,,,,,,,,,,,,,,,,,,
,0,f,1,0.603,14,2,58,1,1,f,blue,596f003434773e0001fc0d28,2021-09-27_14h12.01.651,forced_choiceRT_color,2021.2.3,MacIntel,59.31198102,,,,,,,,,,,,,,,,,,,,,,,
,0,j,1,0.708,14,3,59,2,1,j,red,596f003434773e0001fc0d28,2021-09-27_14h12.01.651,forced_choiceRT_color,2021.2.3,MacIntel,59.31198102,,,,,,,,,,,,,,,,,,,,,,,
,,,,,,,,,,,,596f003434773e0001fc0d28,2021-09-27_14h12.01.651,forced_choiceRT_color,2021.2.3,MacIntel,59.31198102,j,2.254,0,0,0,0,1,,,,,,,,,,,,,,,,
,,,,,,,,,,,,596f003434773e0001fc0d28,2021-09-27_14h12.01.651,forced_choiceRT_color,2021.2.3,MacIntel,59.31198102,k,1.897,1,0,1,0,1,,,,,,,,,,,,,,,,
,,,,,,,,,,,,596f003434773e0001fc0d28,2021-09-27_14h12.01.651,forced_choiceRT_color,2021.2.3,MacIntel,59.31198102,j,2.238,2,0,2,0,1,,,,,,,,,,,,,,,,
,,,,,,,,,,,,596f003434773e0001fc0d28,2021-09-27_14h12.01.651,forced_choiceRT_color,2021.2.3,MacIntel,59.31198102,f,2.187,3,0,3,0,1,,,,,,,,,,,,,,,,
,,,,,,,,,,,,596f003434773e0001fc0d28,2021-09-27_14h12.01.651,forced_choiceRT_color,2021.2.3,MacIntel,59.31198102,f,1.805,4,0,4,0,1,,,,,,,,,,,,,,,,
,,,,,,,,,,,,596f003434773e0001fc0d28,2021-09-27_14h12.01.651,forced_choiceRT_color,2021.2.3,MacIntel,59.31198102,f,2.07,5,0,5,0,1,,,,,,,,,,,,,,,,
,,,,,,,,,,,,596f003434773e0001fc0d28,2021-09-27_14h12.01.651,forced_choiceRT_color,2021.2.3,MacIntel,59.31198102,f,1.814,6,0,6,0,1,,,,,,,,,,,,,,,,
,,,,,,,,,,,,596f003434773e0001fc0d28,2021-09-27_14h12.01.651,forced_choiceRT_color,2021.2.3,MacIntel,59.31198102,f,2.036,7,0,7,0,1,,,,,,,,,,,,,,,,
,,,,,,,,,,,,596f003434773e0001fc0d28,2021-09-27_14h12.01.651,forced_choiceRT_color,2021.2.3,MacIntel,59.31198102,f,2.203,8,0,8,0,1,,,,,,,,,,,,,,,,
,,,,,,,,,,,,596f003434773e0001fc0d28,2021-09-27_14h12.01.651,forced_choiceRT_color,2021.2.3,MacIntel,59.31198102,j,1.852,9,0,9,0,1,,,,,,,,,,,,,,,,
,,,,,,,,,,,,596f003434773e0001fc0d28,2021-09-27_14h12.01.651,forced_choiceRT_color,2021.2.3,MacIntel,59.31198102,k,2.075,10,0,10,0,1,,,,,,,,,,,,,,,,
,,,,,,,,,,,,596f003434773e0001fc0d28,2021-09-27_14h12.01.651,forced_choiceRT_color,2021.2.3,MacIntel,59.31198102,k,1.997,11,0,11,0,1,,,,,,,,,,,,,,,,
,,,,,,,,,,,,596f003434773e0001fc0d28,2021-09-27_14h12.01.651,forced_choiceRT_color,2021.2.3,MacIntel,59.31198102,k,2.097,12,0,12,0,1,,,,,,,,,,,,,,,,
,,,,,,,,,,,,596f003434773e0001fc0d28,2021-09-27_14h12.01.651,forced_choiceRT_color,2021.2.3,MacIntel,59.31198102,k,2.046,13,0,13,0,1,,,,,,,,,,,,,,,,
,,,,,,,,,,,,596f003434773e0001fc0d28,2021-09-27_14h12.01.651,forced_choiceRT_color,2021.2.3,MacIntel,59.31198102,k,1.926,14,0,14,0,1,,,,,,,,,,,,,,,,
,,,,,,,,,,,,596f003434773e0001fc0d28,2021-09-27_14h12.01.651,forced_choiceRT_color,2021.2.3,MacIntel,59.31198102,k,2.027,15,0,15,0,1,,,,,,,,,,,,,,,,
,,,,,,,,,,,,596f003434773e0001fc0d28,2021-09-27_14h12.01.651,forced_choiceRT_color,2021.2.3,MacIntel,59.31198102,k,2.02,16,0,16,0,1,,,,,,,,,,,,,,,,
,,,,,,,,,,,,596f003434773e0001fc0d28,2021-09-27_14h12.01.651,forced_choiceRT_color,2021.2.3,MacIntel,59.31198102,k,1.954,17,0,17,0,1,,,,,,,,,,,,,,,,
,,,,,,,,,,,,596f003434773e0001fc0d28,2021-09-27_14h12.01.651,forced_choiceRT_color,2021.2.3,MacIntel,59.31198102,k,1.93,18,0,18,0,1,,,,,,,,,,,,,,,,
,,,,,,,,,,,,596f003434773e0001fc0d28,2021-09-27_14h12.01.651,forced_choiceRT_color,2021.2.3,MacIntel,59.31198102,k,1.969,19,0,19,0,1,,,,,,,,,,,,,,,,
,1.59,,,,,,,,,k,purple,596f003434773e0001fc0d28,2021-09-27_14h12.01.651,forced_choiceRT_color,2021.2.3,MacIntel,59.31198102,,,,,,,,1,Fast,short,k,1,1.685,0,0,0,3,1,,,,,
,0.48,,,,,,,,,j,red,596f003434773e0001fc0d28,2021-09-27_14h12.01.651,forced_choiceRT_color,2021.2.3,MacIntel,59.31198102,,,,,,,,1,Fast,short,k,0,1.667,0,1,1,2,1,,,,,
,0.27,,,,,,,,,f,blue,596f003434773e0001fc0d28,2021-09-27_14h12.01.651,forced_choiceRT_color,2021.2.3,MacIntel,59.31198102,,,,,,,,1,Fast,short,f,1,1.852,0,2,2,1,1,,,,,
,1.4,,,,,,,,,j,red,596f003434773e0001fc0d28,2021-09-27_14h12.01.651,forced_choiceRT_color,2021.2.3,MacIntel,59.31198102,,,,,,,,1,Slow,short,j,1,2.225,0,3,3,2,1,,,,,
,0.23,,,,,,,,,f,blue,596f003434773e0001fc0d28,2021-09-27_14h12.01.651,forced_choiceRT_color,2021.2.3,MacIntel,59.31198102,,,,,,,,1,Fast,short,d,0,1.867,1,0,4,1,1,,,,,
,0.46,,,,,,,,,d,orange,596f003434773e0001fc0d28,2021-09-27_14h12.01.651,forced_choiceRT_color,2021.2.3,MacIntel,59.31198102,,,,,,,,1,Fast,short,d,1,1.855,1,1,5,0,1,,,,,
,1.56,,,,,,,,,j,red,596f003434773e0001fc0d28,2021-09-27_14h12.01.651,forced_choiceRT_color,2021.2.3,MacIntel,59.31198102,,,,,,,,1,Slow,short,f,0,2.263,1,2,6,2,1,,,,,
,1.33,,,,,,,,,f,blue,596f003434773e0001fc0d28,2021-09-27_14h12.01.651,forced_choiceRT_color,2021.2.3,MacIntel,59.31198102,,,,,,,,1,Ontime,short,d,0,1.918,1,3,7,1,1,,,,,
,1.02,,,,,,,,,d,orange,596f003434773e0001fc0d28,2021-09-27_14h12.01.651,forced_choiceRT_color,2021.2.3,MacIntel,59.31198102,,,,,,,,1,Fast,short,d,1,1.845,2,0,8,0,1,,,,,
,0.76,,,,,,,,,f,blue,596f003434773e0001fc0d28,2021-09-27_14h12.01.651,forced_choiceRT_color,2021.2.3,MacIntel,59.31198102,,,,,,,,1,Ontime,short,f,1,1.972,2,1,9,1,1,,,,,
,1.88,,,,,,,,,d,orange,596f003434773e0001fc0d28,2021-09-27_14h12.01.651,forced_choiceRT_color,2021.2.3,MacIntel,59.31198102,,,,,,,,1,Ontime,short,f,0,1.971,2,2,10,0,1,,,,,
,1.85,,,,,,,,,k,purple,596f003434773e0001fc0d28,2021-09-27_14h12.01.651,forced_choiceRT_color,2021.2.3,MacIntel,59.31198102,,,,,,,,1,Fast,short,d,0,1.81,2,3,11,3,1,,,,,
,1.59,,,,,,,,,d,orange,596f003434773e0001fc0d28,2021-09-27_14h12.01.651,forced_choiceRT_color,2021.2.3,MacIntel,59.31198102,,,,,,,,1,Ontime,short,j,0,1.922,3,0,12,0,1,,,,,
,0.98,,,,,,,,,f,blue,596f003434773e0001fc0d28,2021-09-27_14h12.01.651,forced_choiceRT_color,2021.2.3,MacIntel,59.31198102,,,,,,,,1,Fast,short,d,0,0.076,3,1,13,1,1,,,,,
,1.59,,,,,,,,,f,blue,596f003434773e0001fc0d28,2021-09-27_14h12.01.651,forced_choiceRT_color,2021.2.3,MacIntel,59.31198102,,,,,,,,1,Ontime,short,d,0,2.044,3,2,14,1,1,,,,,
,1.6,,,,,,,,,k,purple,596f003434773e0001fc0d28,2021-09-27_14h12.01.651,forced_choiceRT_color,2021.2.3,MacIntel,59.31198102,,,,,,,,1,Ontime,short,f,0,1.91,3,3,15,3,1,,,,,
,1.08,,,,,,,,,k,purple,596f003434773e0001fc0d28,2021-09-27_14h12.01.651,forced_choiceRT_color,2021.2.3,MacIntel,59.31198102,,,,,,,,1,Fast,short,k,1,1.752,4,0,16,3,1,,,,,
,1.58,,,,,,,,,j,red,596f003434773e0001fc0d28,2021-09-27_14h12.01.651,forced_choiceRT_color,2021.2.3,MacIntel,59.31198102,,,,,,,,1,Ontime,short,f,0,1.987,4,1,17,2,1,,,,,
,1.33,,,,,,,,,j,red,596f003434773e0001fc0d28,2021-09-27_14h12.01.651,forced_choiceRT_color,2021.2.3,MacIntel,59.31198102,,,,,,,,1,Fast,short,j,1,1.639,4,2,18,2,1,,,,,
,0.71,,,,,,,,,d,orange,596f003434773e0001fc0d28,2021-09-27_14h12.01.651,forced_choiceRT_color,2021.2.3,MacIntel,59.31198102,,,,,,,,1,Fast,short,d,1,1.835,4,3,19,0,1,,,,,
,1.62,,,,,,,,,k,purple,596f003434773e0001fc0d28,2021-09-27_14h12.01.651,forced_choiceRT_color,2021.2.3,MacIntel,59.31198102,,,,,,,,1,Slow,short,k,1,2.102,5,0,20,3,1,,,,,
,1.8,,,,,,,,,f,blue,596f003434773e0001fc0d28,2021-09-27_14h12.01.651,forced_choiceRT_color,2021.2.3,MacIntel,59.31198102,,,,,,,,1,Slow,short,d,0,2.178,5,1,21,1,1,,,,,
,0.23,,,,,,,,,j,red,596f003434773e0001fc0d28,2021-09-27_14h12.01.651,forced_choiceRT_color,2021.2.3,MacIntel,59.31198102,,,,,,,,1,Ontime,short,d,0,1.909,5,2,22,2,1,,,,,
,1.94,,,,,,,,,k,purple,596f003434773e0001fc0d28,2021-09-27_14h12.01.651,forced_choiceRT_color,2021.2.3,MacIntel,59.31198102,,,,,,,,1,Ontime,short,d,0,1.908,5,3,23,3,1,,,,,
,0.57,,,,,,,,,k,purple,596f003434773e0001fc0d28,2021-09-27_14h12.01.651,forced_choiceRT_color,2021.2.3,MacIntel,59.31198102,,,,,,,,1,Ontime,short,k,1,1.92,6,0,24,3,1,,,,,
,1.35,,,,,,,,,d,orange,596f003434773e0001fc0d28,2021-09-27_14h12.01.651,forced_choiceRT_color,2021.2.3,MacIntel,59.31198102,,,,,,,,1,Fast,short,d,1,1.751,6,1,25,0,1,,,,,
,1.57,,,,,,,,,k,purple,596f003434773e0001fc0d28,2021-09-27_14h12.01.651,forced_choiceRT_color,2021.2.3,MacIntel,59.31198102,,,,,,,,1,Ontime,short,d,0,2.01,6,2,26,3,1,,,,,
,1.41,,,,,,,,,f,blue,596f003434773e0001fc0d28,2021-09-27_14h12.01.651,forced_choiceRT_color,2021.2.3,MacIntel,59.31198102,,,,,,,,1,Fast,short,k,0,0.087,6,3,27,1,1,,,,,
,1,,,,,,,,,f,blue,596f003434773e0001fc0d28,2021-09-27_14h12.01.651,forced_choiceRT_color,2021.2.3,MacIntel,59.31198102,,,,,,,,1,Fast,short,f,1,1.696,7,0,28,1,1,,,,,
,0.13,,,,,,,,,k,purple,596f003434773e0001fc0d28,2021-09-27_14h12.01.651,forced_choiceRT_color,2021.2.3,MacIntel,59.31198102,,,,,,,,1,Ontime,short,k,1,1.948,7,1,29,3,1,,,,,
,0.71,,,,,,,,,j,red,596f003434773e0001fc0d28,2021-09-27_14h12.01.651,forced_choiceRT_color,2021.2.3,MacIntel,59.31198102,,,,,,,,1,Ontime,short,j,1,1.933,7,2,30,2,1,,,,,
,1.55,,,,,,,,,j,red,596f003434773e0001fc0d28,2021-09-27_14h12.01.651,forced_choiceRT_color,2021.2.3,MacIntel,59.31198102,,,,,,,,1,Ontime,short,j,1,1.908,7,3,31,2,1,,,,,
,0.31,,,,,,,,,d,orange,596f003434773e0001fc0d28,2021-09-27_14h12.01.651,forced_choiceRT_color,2021.2.3,MacIntel,59.31198102,,,,,,,,1,Ontime,short,d,1,1.959,8,0,32,0,1,,,,,
,1.23,,,,,,,,,d,orange,596f003434773e0001fc0d28,2021-09-27_14h12.01.651,forced_choiceRT_color,2021.2.3,MacIntel,59.31198102,,,,,,,,1,Fast,short,d,1,1.812,8,1,33,0,1,,,,,
,0.93,,,,,,,,,d,orange,596f003434773e0001fc0d28,2021-09-27_14h12.01.651,forced_choiceRT_color,2021.2.3,MacIntel,59.31198102,,,,,,,,1,Fast,short,d,1,1.813,8,2,34,0,1,,,,,
,0.05,,,,,,,,,d,orange,596f003434773e0001fc0d28,2021-09-27_14h12.01.651,forced_choiceRT_color,2021.2.3,MacIntel,59.31198102,,,,,,,,1,Slow,short,d,1,2.109,8,3,35,0,1,,,,,
,1.45,,,,,,,,,k,purple,596f003434773e0001fc0d28,2021-09-27_14h12.01.651,forced_choiceRT_color,2021.2.3,MacIntel,59.31198102,,,,,,,,1,Slow,short,k,1,2.131,9,0,36,3,1,,,,,
,1.42,,,,,,,,,j,red,596f003434773e0001fc0d28,2021-09-27_14h12.01.651,forced_choiceRT_color,2021.2.3,MacIntel,59.31198102,,,,,,,,1,Ontime,short,f,0,1.959,9,1,37,2,1,,,,,
,0.8,,,,,,,,,f,blue,596f003434773e0001fc0d28,2021-09-27_14h12.01.651,forced_choiceRT_color,2021.2.3,MacIntel,59.31198102,,,,,,,,1,Fast,short,f,1,1.837,9,2,38,1,1,,,,,
,1,,,,,,,,,j,red,596f003434773e0001fc0d28,2021-09-27_14h12.01.651,forced_choiceRT_color,2021.2.3,MacIntel,59.31198102,,,,,,,,1,Fast,short,d,0,1.828,9,3,39,2,1,,,,,
,,,,,,,,,,,,596f003434773e0001fc0d28,2021-09-27_14h12.01.651,forced_choiceRT_color,2021.2.3,MacIntel,59.31198102,,,,,,,,,,,,,,,,,,,0,0,0,0,1
,1.58,,,,,,,,,j,red,596f003434773e0001fc0d28,2021-09-27_14h12.01.651,forced_choiceRT_color,2021.2.3,MacIntel,59.31198102,,,,,,,,2,Slow,short,j,1,2.168,0,0,0,2,1,,,,,
,0.14,,,,,,,,,j,red,596f003434773e0001fc0d28,2021-09-27_14h12.01.651,forced_choiceRT_color,2021.2.3,MacIntel,59.31198102,,,,,,,,2,Ontime,short,j,1,1.952,0,1,1,2,1,,,,,
,0.23,,,,,,,,,j,red,596f003434773e0001fc0d28,2021-09-27_14h12.01.651,forced_choiceRT_color,2021.2.3,MacIntel,59.31198102,,,,,,,,2,Ontime,short,j,1,2.02,0,2,2,2,1,,,,,
,0.35,,,,,,,,,f,blue,596f003434773e0001fc0d28,2021-09-27_14h12.01.651,forced_choiceRT_color,2021.2.3,MacIntel,59.31198102,,,,,,,,2,Fast,short,f,1,1.809,0,3,3,1,1,,,,,
,1.54,,,,,,,,,f,blue,596f003434773e0001fc0d28,2021-09-27_14h12.01.651,forced_choiceRT_color,2021.2.3,MacIntel,59.31198102,,,,,,,,2,Ontime,short,f,1,2.026,1,0,4,1,1,,,,,
,1.22,,,,,,,,,j,red,596f003434773e0001fc0d28,2021-09-27_14h12.01.651,forced_choiceRT_color,2021.2.3,MacIntel,59.31198102,,,,,,,,2,Ontime,short,d,0,1.939,1,1,5,2,1,,,,,
,1.57,,,,,,,,,f,blue,596f003434773e0001fc0d28,2021-09-27_14h12.01.651,forced_choiceRT_color,2021.2.3,MacIntel,59.31198102,,,,,,,,2,Fast,short,j,0,1.878,1,2,6,1,1,,,,,
,0.15,,,,,,,,,k,purple,596f003434773e0001fc0d28,2021-09-27_14h12.01.651,forced_choiceRT_color,2021.2.3,MacIntel,59.31198102,,,,,,,,2,Ontime,short,k,1,1.94,1,3,7,3,1,,,,,
,1.86,,,,,,,,,d,orange,596f003434773e0001fc0d28,2021-09-27_14h12.01.651,forced_choiceRT_color,2021.2.3,MacIntel,59.31198102,,,,,,,,2,Ontime,short,k,0,2.092,2,0,8,0,1,,,,,
,1.83,,,,,,,,,k,purple,596f003434773e0001fc0d28,2021-09-27_14h12.01.651,forced_choiceRT_color,2021.2.3,MacIntel,59.31198102,,,,,,,,2,Ontime,short,d,0,2.045,2,1,9,3,1,,,,,
,1.65,,,,,,,,,f,blue,596f003434773e0001fc0d28,2021-09-27_14h12.01.651,forced_choiceRT_color,2021.2.3,MacIntel,59.31198102,,,,,,,,2,Fast,short,k,0,1.8,2,2,10,1,1,,,,,
,0.26,,,,,,,,,d,orange,596f003434773e0001fc0d28,2021-09-27_14h12.01.651,forced_choiceRT_color,2021.2.3,MacIntel,59.31198102,,,,,,,,2,Ontime,short,d,1,1.968,2,3,11,0,1,,,,,
,0.99,,,,,,,,,j,red,596f003434773e0001fc0d28,2021-09-27_14h12.01.651,forced_choiceRT_color,2021.2.3,MacIntel,59.31198102,,,,,,,,2,Ontime,short,k,0,1.944,3,0,12,2,1,,,,,
,0.78,,,,,,,,,j,red,596f003434773e0001fc0d28,2021-09-27_14h12.01.651,forced_choiceRT_color,2021.2.3,MacIntel,59.31198102,,,,,,,,2,Fast,short,j,1,1.721,3,1,13,2,1,,,,,
,1.17,,,,,,,,,k,purple,596f003434773e0001fc0d28,2021-09-27_14h12.01.651,forced_choiceRT_color,2021.2.3,MacIntel,59.31198102,,,,,,,,2,Fast,short,k,1,1.751,3,2,14,3,1,,,,,
,1,,,,,,,,,k,purple,596f003434773e0001fc0d28,2021-09-27_14h12.01.651,forced_choiceRT_color,2021.2.3,MacIntel,59.31198102,,,,,,,,2,Fast,short,k,1,1.817,3,3,15,3,1,,,,,
,1.59,,,,,,,,,f,blue,596f003434773e0001fc0d28,2021-09-27_14h12.01.651,forced_choiceRT_color,2021.2.3,MacIntel,59.31198102,,,,,,,,2,Slow,short,d,0,2.144,4,0,16,1,1,,,,,
,1.03,,,,,,,,,f,blue,596f003434773e0001fc0d28,2021-09-27_14h12.01.651,forced_choiceRT_color,2021.2.3,MacIntel,59.31198102,,,,,,,,2,Ontime,short,f,1,1.93,4,1,17,1,1,,,,,
,0.42,,,,,,,,,k,purple,596f003434773e0001fc0d28,2021-09-27_14h12.01.651,forced_choiceRT_color,2021.2.3,MacIntel,59.31198102,,,,,,,,2,Ontime,short,k,1,1.946,4,2,18,3,1,,,,,
,0.2,,,,,,,,,f,blue,596f003434773e0001fc0d28,2021-09-27_14h12.01.651,forced_choiceRT_color,2021.2.3,MacIntel,59.31198102,,,,,,,,2,Ontime,short,f,1,1.93,4,3,19,1,1,,,,,
,0.55,,,,,,,,,k,purple,596f003434773e0001fc0d28,2021-09-27_14h12.01.651,forced_choiceRT_color,2021.2.3,MacIntel,59.31198102,,,,,,,,2,Ontime,short,k,1,1.901,5,0,20,3,1,,,,,
,0.73,,,,,,,,,k,purple,596f003434773e0001fc0d28,2021-09-27_14h12.01.651,forced_choiceRT_color,2021.2.3,MacIntel,59.31198102,,,,,,,,2,Fast,short,k,1,1.765,5,1,21,3,1,,,,,
,0.98,,,,,,,,,d,orange,596f003434773e0001fc0d28,2021-09-27_14h12.01.651,forced_choiceRT_color,2021.2.3,MacIntel,59.31198102,,,,,,,,2,Ontime,short,d,1,1.969,5,2,22,0,1,,,,,
,0.61,,,,,,,,,f,blue,596f003434773e0001fc0d28,2021-09-27_14h12.01.651,forced_choiceRT_color,2021.2.3,MacIntel,59.31198102,,,,,,,,2,Ontime,short,j,0,1.942,5,3,23,1,1,,,,,
,1.16,,,,,,,,,d,orange,596f003434773e0001fc0d28,2021-09-27_14h12.01.651,forced_choiceRT_color,2021.2.3,MacIntel,59.31198102,,,,,,,,2,Fast,short,f,0,0.005,6,0,24,0,1,,,,,
,0.55,,,,,,,,,d,orange,596f003434773e0001fc0d28,2021-09-27_14h12.01.651,forced_choiceRT_color,2021.2.3,MacIntel,59.31198102,,,,,,,,2,Ontime,short,d,1,1.947,6,1,25,0,1,,,,,
,1.4,,,,,,,,,j,red,596f003434773e0001fc0d28,2021-09-27_14h12.01.651,forced_choiceRT_color,2021.2.3,MacIntel,59.31198102,,,,,,,,2,Ontime,short,k,0,1.992,6,2,26,2,1,,,,,
,0.57,,,,,,,,,j,red,596f003434773e0001fc0d28,2021-09-27_14h12.01.651,forced_choiceRT_color,2021.2.3,MacIntel,59.31198102,,,,,,,,2,Fast,short,j,1,1.806,6,3,27,2,1,,,,,
,0.13,,,,,,,,,f,blue,596f003434773e0001fc0d28,2021-09-27_14h12.01.651,forced_choiceRT_color,2021.2.3,MacIntel,59.31198102,,,,,,,,2,Ontime,short,f,1,1.942,7,0,28,1,1,,,,,
,1.64,,,,,,,,,k,purple,596f003434773e0001fc0d28,2021-09-27_14h12.01.651,forced_choiceRT_color,2021.2.3,MacIntel,59.31198102,,,,,,,,2,Ontime,short,j,0,2.086,7,1,29,3,1,,,,,
,0.21,,,,,,,,,d,orange,596f003434773e0001fc0d28,2021-09-27_14h12.01.651,forced_choiceRT_color,2021.2.3,MacIntel,59.31198102,,,,,,,,2,Ontime,short,d,1,1.96,7,2,30,0,1,,,,,
,0.13,,,,,,,,,f,blue,596f003434773e0001fc0d28,2021-09-27_14h12.01.651,forced_choiceRT_color,2021.2.3,MacIntel,59.31198102,,,,,,,,2,Fast,short,f,1,1.887,7,3,31,1,1,,,,,
,1.24,,,,,,,,,d,orange,596f003434773e0001fc0d28,2021-09-27_14h12.01.651,forced_choiceRT_color,2021.2.3,MacIntel,59.31198102,,,,,,,,2,Ontime,short,d,1,1.925,8,0,32,0,1,,,,,
,0.65,,,,,,,,,j,red,596f003434773e0001fc0d28,2021-09-27_14h12.01.651,forced_choiceRT_color,2021.2.3,MacIntel,59.31198102,,,,,,,,2,Ontime,short,j,1,2.036,8,1,33,2,1,,,,,
,0.43,,,,,,,,,k,purple,596f003434773e0001fc0d28,2021-09-27_14h12.01.651,forced_choiceRT_color,2021.2.3,MacIntel,59.31198102,,,,,,,,2,Ontime,short,k,1,1.92,8,2,34,3,1,,,,,
,1.82,,,,,,,,,d,orange,596f003434773e0001fc0d28,2021-09-27_14h12.01.651,forced_choiceRT_color,2021.2.3,MacIntel,59.31198102,,,,,,,,2,Ontime,short,k,0,2.058,8,3,35,0,1,,,,,
,1.91,,,,,,,,,j,red,596f003434773e0001fc0d28,2021-09-27_14h12.01.651,forced_choiceRT_color,2021.2.3,MacIntel,59.31198102,,,,,,,,2,Slow,short,d,0,2.14,9,0,36,2,1,,,,,
,0.33,,,,,,,,,d,orange,596f003434773e0001fc0d28,2021-09-27_14h12.01.651,forced_choiceRT_color,2021.2.3,MacIntel,59.31198102,,,,,,,,2,Ontime,short,d,1,2,9,1,37,0,1,,,,,
,0.48,,,,,,,,,d,orange,596f003434773e0001fc0d28,2021-09-27_14h12.01.651,forced_choiceRT_color,2021.2.3,MacIntel,59.31198102,,,,,,,,2,Fast,short,d,1,1.86,9,2,38,0,1,,,,,
,0.05,,,,,,,,,k,purple,596f003434773e0001fc0d28,2021-09-27_14h12.01.651,forced_choiceRT_color,2021.2.3,MacIntel,59.31198102,,,,,,,,2,Ontime,short,k,1,1.995,9,3,39,3,1,,,,,
,,,,,,,,,,,,596f003434773e0001fc0d28,2021-09-27_14h12.01.651,forced_choiceRT_color,2021.2.3,MacIntel,59.31198102,,,,,,,,,,,,,,,,,,,1,0,1,0,1
,0.23,,,,,,,,,k,purple,596f003434773e0001fc0d28,2021-09-27_14h12.01.651,forced_choiceRT_color,2021.2.3,MacIntel,59.31198102,,,,,,,,3,Fast,short,k,1,1.857,0,0,0,3,1,,,,,
,0.08,,,,,,,,,k,purple,596f003434773e0001fc0d28,2021-09-27_14h12.01.651,forced_choiceRT_color,2021.2.3,MacIntel,59.31198102,,,,,,,,3,Fast,short,k,1,1.792,0,1,1,3,1,,,,,
,1.15,,,,,,,,,k,purple,596f003434773e0001fc0d28,2021-09-27_14h12.01.651,forced_choiceRT_color,2021.2.3,MacIntel,59.31198102,,,,,,,,3,Ontime,short,k,1,1.922,0,2,2,3,1,,,,,
,0.29,,,,,,,,,f,blue,596f003434773e0001fc0d28,2021-09-27_14h12.01.651,forced_choiceRT_color,2021.2.3,MacIntel,59.31198102,,,,,,,,3,Ontime,short,f,1,2.001,0,3,3,1,1,,,,,
,1.11,,,,,,,,,d,orange,596f003434773e0001fc0d28,2021-09-27_14h12.01.651,forced_choiceRT_color,2021.2.3,MacIntel,59.31198102,,,,,,,,3,Ontime,short,d,1,1.927,1,0,4,0,1,,,,,
,1.47,,,,,,,,,d,orange,596f003434773e0001fc0d28,2021-09-27_14h12.01.651,forced_choiceRT_color,2021.2.3,MacIntel,59.31198102,,,,,,,,3,Fast,short,d,1,1.864,1,1,5,0,1,,,,,
,0.88,,,,,,,,,k,purple,596f003434773e0001fc0d28,2021-09-27_14h12.01.651,forced_choiceRT_color,2021.2.3,MacIntel,59.31198102,,,,,,,,3,Ontime,short,k,1,2.082,1,2,6,3,1,,,,,
,0.92,,,,,,,,,k,purple,596f003434773e0001fc0d28,2021-09-27_14h12.01.651,forced_choiceRT_color,2021.2.3,MacIntel,59.31198102,,,,,,,,3,Ontime,short,k,1,2.094,1,3,7,3,1,,,,,
,0.57,,,,,,,,,d,orange,596f003434773e0001fc0d28,2021-09-27_14h12.01.651,forced_choiceRT_color,2021.2.3,MacIntel,59.31198102,,,,,,,,3,Ontime,short,d,1,2.01,2,0,8,0,1,,,,,
,1.9,,,,,,,,,d,orange,596f003434773e0001fc0d28,2021-09-27_14h12.01.651,forced_choiceRT_color,2021.2.3,MacIntel,59.31198102,,,,,,,,3,Fast,short,d,1,1.83,2,1,9,0,1,,,,,
,0.06,,,,,,,,,f,blue,596f003434773e0001fc0d28,2021-09-27_14h12.01.651,forced_choiceRT_color,2021.2.3,MacIntel,59.31198102,,,,,,,,3,Ontime,short,f,1,1.919,2,2,10,1,1,,,,,
,0.35,,,,,,,,,d,orange,596f003434773e0001fc0d28,2021-09-27_14h12.01.651,forced_choiceRT_color,2021.2.3,MacIntel,59.31198102,,,,,,,,3,Fast,short,d,1,1.839,2,3,11,0,1,,,,,
,1.48,,,,,,,,,k,purple,596f003434773e0001fc0d28,2021-09-27_14h12.01.651,forced_choiceRT_color,2021.2.3,MacIntel,59.31198102,,,,,,,,3,Ontime,short,k,1,1.967,3,0,12,3,1,,,,,
,1.44,,,,,,,,,j,red,596f003434773e0001fc0d28,2021-09-27_14h12.01.651,forced_choiceRT_color,2021.2.3,MacIntel,59.31198102,,,,,,,,3,Ontime,short,f,0,2.036,3,1,13,2,1,,,,,
,1.42,,,,,,,,,j,red,596f003434773e0001fc0d28,2021-09-27_14h12.01.651,forced_choiceRT_color,2021.2.3,MacIntel,59.31198102,,,,,,,,3,Ontime,short,j,1,1.976,3,2,14,2,1,,,,,
,0.8,,,,,,,,,j,red,596f003434773e0001fc0d28,2021-09-27_14h12.01.651,forced_choiceRT_color,2021.2.3,MacIntel,59.31198102,,,,,,,,3,Fast,short,k,0,0.007,3,3,15,2,1,,,,,
,0.75,,,,,,,,,f,blue,596f003434773e0001fc0d28,2021-09-27_14h12.01.651,forced_choiceRT_color,2021.2.3,MacIntel,59.31198102,,,,,,,,3,Ontime,short,j,0,2.089,4,0,16,1,1,,,,,
,1,,,,,,,,,j,red,596f003434773e0001fc0d28,2021-09-27_14h12.01.651,forced_choiceRT_color,2021.2.3,MacIntel,59.31198102,,,,,,,,3,Fast,short,f,0,1.87,4,1,17,2,1,,,,,
,1.65,,,,,,,,,d,orange,596f003434773e0001fc0d28,2021-09-27_14h12.01.651,forced_choiceRT_color,2021.2.3,MacIntel,59.31198102,,,,,,,,3,Slow,short,f,0,2.145,4,2,18,0,1,,,,,
,1.33,,,,,,,,,f,blue,596f003434773e0001fc0d28,2021-09-27_14h12.01.651,forced_choiceRT_color,2021.2.3,MacIntel,59.31198102,,,,,,,,3,Ontime,short,d,0,1.926,4,3,19,1,1,,,,,
,0.07,,,,,,,,,f,blue,596f003434773e0001fc0d28,2021-09-27_14h12.01.651,forced_choiceRT_color,2021.2.3,MacIntel,59.31198102,,,,,,,,3,Fast,short,f,1,1.86,5,0,20,1,1,,,,,
,1.11,,,,,,,,,k,purple,596f003434773e0001fc0d28,2021-09-27_14h12.01.651,forced_choiceRT_color,2021.2.3,MacIntel,59.31198102,,,,,,,,3,Fast,short,k,1,1.701,5,1,21,3,1,,,,,
,0.03,,,,,,,,,k,purple,596f003434773e0001fc0d28,2021-09-27_14h12.01.651,forced_choiceRT_color,2021.2.3,MacIntel,59.31198102,,,,,,,,3,Fast,short,k,1,1.754,5,2,22,3,1,,,,,
,0.36,,,,,,,,,d,orange,596f003434773e0001fc0d28,2021-09-27_14h12.01.651,forced_choiceRT_color,2021.2.3,MacIntel,59.31198102,,,,,,,,3,Ontime,short,d,1,2.019,5,3,23,0,1,,,,,
,0.12,,,,,,,,,j,red,596f003434773e0001fc0d28,2021-09-27_14h12.01.651,forced_choiceRT_color,2021.2.3,MacIntel,59.31198102,,,,,,,,3,Ontime,short,j,1,1.944,6,0,24,2,1,,,,,
,0.62,,,,,,,,,f,blue,596f003434773e0001fc0d28,2021-09-27_14h12.01.651,forced_choiceRT_color,2021.2.3,MacIntel,59.31198102,,,,,,,,3,Fast,short,f,1,1.839,6,1,25,1,1,,,,,
,0.04,,,,,,,,,f,blue,596f003434773e0001fc0d28,2021-09-27_14h12.01.651,forced_choiceRT_color,2021.2.3,MacIntel,59.31198102,,,,,,,,3,Ontime,short,d,0,1.999,6,2,26,1,1,,,,,
,1.18,,,,,,,,,k,purple,596f003434773e0001fc0d28,2021-09-27_14h12.01.651,forced_choiceRT_color,2021.2.3,MacIntel,59.31198102,,,,,,,,3,Ontime,short,k,1,1.963,6,3,27,3,1,,,,,
,0.04,,,,,,,,,d,orange,596f003434773e0001fc0d28,2021-09-27_14h12.01.651,forced_choiceRT_color,2021.2.3,MacIntel,59.31198102,,,,,,,,3,Ontime,short,d,1,1.973,7,0,28,0,1,,,,,
,1.69,,,,,,,,,k,purple,596f003434773e0001fc0d28,2021-09-27_14h12.01.651,forced_choiceRT_color,2021.2.3,MacIntel,59.31198102,,,,,,,,3,Slow,short,k,1,2.162,7,1,29,3,1,,,,,
,0.06,,,,,,,,,j,red,596f003434773e0001fc0d28,2021-09-27_14h12.01.651,forced_choiceRT_color,2021.2.3,MacIntel,59.31198102,,,,,,,,3,Fast,short,j,1,1.396,7,2,30,2,1,,,,,
,1.01,,,,,,,,,j,red,596f003434773e0001fc0d28,2021-09-27_14h12.01.651,forced_choiceRT_color,2021.2.3,MacIntel,59.31198102,,,,,,,,3,Ontime,short,j,1,2.077,7,3,31,2,1,,,,,
,1.63,,,,,,,,,j,red,596f003434773e0001fc0d28,2021-09-27_14h12.01.651,forced_choiceRT_color,2021.2.3,MacIntel,59.31198102,,,,,,,,3,Ontime,short,j,1,1.967,8,0,32,2,1,,,,,
,1.48,,,,,,,,,j,red,596f003434773e0001fc0d28,2021-09-27_14h12.01.651,forced_choiceRT_color,2021.2.3,MacIntel,59.31198102,,,,,,,,3,Fast,short,k,0,1.887,8,1,33,2,1,,,,,
,0.01,,,,,,,,,d,orange,596f003434773e0001fc0d28,2021-09-27_14h12.01.651,forced_choiceRT_color,2021.2.3,MacIntel,59.31198102,,,,,,,,3,Fast,short,d,1,1.763,8,2,34,0,1,,,,,
,0.15,,,,,,,,,f,blue,596f003434773e0001fc0d28,2021-09-27_14h12.01.651,forced_choiceRT_color,2021.2.3,MacIntel,59.31198102,,,,,,,,3,Ontime,short,f,1,1.943,8,3,35,1,1,,,,,
,1.72,,,,,,,,,f,blue,596f003434773e0001fc0d28,2021-09-27_14h12.01.651,forced_choiceRT_color,2021.2.3,MacIntel,59.31198102,,,,,,,,3,Ontime,short,f,1,1.984,9,0,36,1,1,,,,,
,1.17,,,,,,,,,f,blue,596f003434773e0001fc0d28,2021-09-27_14h12.01.651,forced_choiceRT_color,2021.2.3,MacIntel,59.31198102,,,,,,,,3,Fast,short,f,1,1.812,9,1,37,1,1,,,,,
,0.93,,,,,,,,,j,red,596f003434773e0001fc0d28,2021-09-27_14h12.01.651,forced_choiceRT_color,2021.2.3,MacIntel,59.31198102,,,,,,,,3,Fast,short,j,1,1.846,9,2,38,2,1,,,,,
,0.39,,,,,,,,,d,orange,596f003434773e0001fc0d28,2021-09-27_14h12.01.651,forced_choiceRT_color,2021.2.3,MacIntel,59.31198102,,,,,,,,3,Ontime,short,d,1,2.037,9,3,39,0,1,,,,,
,,,,,,,,,,,,596f003434773e0001fc0d28,2021-09-27_14h12.01.651,forced_choiceRT_color,2021.2.3,MacIntel,59.31198102,,,,,,,,,,,,,,,,,,,2,0,2,0,1
,0.19,,,,,,,,,j,red,596f003434773e0001fc0d28,2021-09-27_14h12.01.651,forced_choiceRT_color,2021.2.3,MacIntel,59.31198102,,,,,,,,4,Ontime,short,j,1,1.949,0,0,0,2,1,,,,,
,1.42,,,,,,,,,k,purple,596f003434773e0001fc0d28,2021-09-27_14h12.01.651,forced_choiceRT_color,2021.2.3,MacIntel,59.31198102,,,,,,,,4,Ontime,short,k,1,1.906,0,1,1,3,1,,,,,
,1.76,,,,,,,,,f,blue,596f003434773e0001fc0d28,2021-09-27_14h12.01.651,forced_choiceRT_color,2021.2.3,MacIntel,59.31198102,,,,,,,,4,Ontime,short,d,0,2.087,0,2,2,1,1,,,,,
,0.29,,,,,,,,,j,red,596f003434773e0001fc0d28,2021-09-27_14h12.01.651,forced_choiceRT_color,2021.2.3,MacIntel,59.31198102,,,,,,,,4,Fast,short,j,1,1.838,0,3,3,2,1,,,,,
,0.54,,,,,,,,,d,orange,596f003434773e0001fc0d28,2021-09-27_14h12.01.651,forced_choiceRT_color,2021.2.3,MacIntel,59.31198102,,,,,,,,4,Slow,short,d,1,2.125,1,0,4,0,1,,,,,
,1.82,,,,,,,,,j,red,596f003434773e0001fc0d28,2021-09-27_14h12.01.651,forced_choiceRT_color,2021.2.3,MacIntel,59.31198102,,,,,,,,4,Ontime,short,k,0,2.056,1,1,5,2,1,,,,,
,0.16,,,,,,,,,d,orange,596f003434773e0001fc0d28,2021-09-27_14h12.01.651,forced_choiceRT_color,2021.2.3,MacIntel,59.31198102,,,,,,,,4,Ontime,short,d,1,1.948,1,2,6,0,1,,,,,
,0.19,,,,,,,,,f,blue,596f003434773e0001fc0d28,2021-09-27_14h12.01.651,forced_choiceRT_color,2021.2.3,MacIntel,59.31198102,,,,,,,,4,Ontime,short,f,1,1.932,1,3,7,1,1,,,,,
,0.1,,,,,,,,,j,red,596f003434773e0001fc0d28,2021-09-27_14h12.01.651,forced_choiceRT_color,2021.2.3,MacIntel,59.31198102,,,,,,,,4,Fast,short,j,1,1.898,2,0,8,2,1,,,,,
,0.56,,,,,,,,,k,purple,596f003434773e0001fc0d28,2021-09-27_14h12.01.651,forced_choiceRT_color,2021.2.3,MacIntel,59.31198102,,,,,,,,4,Ontime,short,k,1,2.073,2,1,9,3,1,,,,,
,1.76,,,,,,,,,j,red,596f003434773e0001fc0d28,2021-09-27_14h12.01.651,forced_choiceRT_color,2021.2.3,MacIntel,59.31198102,,,,,,,,4,Ontime,short,j,1,2.031,2,2,10,2,1,,,,,
,1.43,,,,,,,,,d,orange,596f003434773e0001fc0d28,2021-09-27_14h12.01.651,forced_choiceRT_color,2021.2.3,MacIntel,59.31198102,,,,,,,,4,Ontime,short,d,1,1.92,2,3,11,0,1,,,,,
,0.29,,,,,,,,,j,red,596f003434773e0001fc0d28,2021-09-27_14h12.01.651,forced_choiceRT_color,2021.2.3,MacIntel,59.31198102,,,,,,,,4,Ontime,short,j,1,1.912,3,0,12,2,1,,,,,
,1.07,,,,,,,,,k,purple,596f003434773e0001fc0d28,2021-09-27_14h12.01.651,forced_choiceRT_color,2021.2.3,MacIntel,59.31198102,,,,,,,,4,Fast,short,k,1,1.818,3,1,13,3,1,,,,,
,1.87,,,,,,,,,f,blue,596f003434773e0001fc0d28,2021-09-27_14h12.01.651,forced_choiceRT_color,2021.2.3,MacIntel,59.31198102,,,,,,,,4,Ontime,short,d,0,2.097,3,2,14,1,1,,,,,
,0.9,,,,,,,,,f,blue,596f003434773e0001fc0d28,2021-09-27_14h12.01.651,forced_choiceRT_color,2021.2.3,MacIntel,59.31198102,,,,,,,,4,Fast,short,f,1,1.587,3,3,15,1,1,,,,,
,1.47,,,,,,,,,k,purple,596f003434773e0001fc0d28,2021-09-27_14h12.01.651,forced_choiceRT_color,2021.2.3,MacIntel,59.31198102,,,,,,,,4,Ontime,short,k,1,2.036,4,0,16,3,1,,,,,
,1.61,,,,,,,,,d,orange,596f003434773e0001fc0d28,2021-09-27_14h12.01.651,forced_choiceRT_color,2021.2.3,MacIntel,59.31198102,,,,,,,,4,Ontime,short,k,0,1.911,4,1,17,0,1,,,,,
,1.96,,,,,,,,,j,red,596f003434773e0001fc0d28,2021-09-27_14h12.01.651,forced_choiceRT_color,2021.2.3,MacIntel,59.31198102,,,,,,,,4,Fast,short,j,1,1.868,4,2,18,2,1,,,,,
,0.34,,,,,,,,,j,red,596f003434773e0001fc0d28,2021-09-27_14h12.01.651,forced_choiceRT_color,2021.2.3,MacIntel,59.31198102,,,,,,,,4,Ontime,short,j,1,1.935,4,3,19,2,1,,,,,
,0.36,,,,,,,,,f,blue,596f003434773e0001fc0d28,2021-09-27_14h12.01.651,forced_choiceRT_color,2021.2.3,MacIntel,59.31198102,,,,,,,,4,Ontime,short,f,1,1.992,5,0,20,1,1,,,,,
,0.9,,,,,,,,,j,red,596f003434773e0001fc0d28,2021-09-27_14h12.01.651,forced_choiceRT_color,2021.2.3,MacIntel,59.31198102,,,,,,,,4,Ontime,short,j,1,2.036,5,1,21,2,1,,,,,
,0.75,,,,,,,,,d,orange,596f003434773e0001fc0d28,2021-09-27_14h12.01.651,forced_choiceRT_color,2021.2.3,MacIntel,59.31198102,,,,,,,,4,Ontime,short,d,1,2.072,5,2,22,0,1,,,,,
,0.42,,,,,,,,,d,orange,596f003434773e0001fc0d28,2021-09-27_14h12.01.651,forced_choiceRT_color,2021.2.3,MacIntel,59.31198102,,,,,,,,4,Ontime,short,d,1,2.01,5,3,23,0,1,,,,,
,1.05,,,,,,,,,d,orange,596f003434773e0001fc0d28,2021-09-27_14h12.01.651,forced_choiceRT_color,2021.2.3,MacIntel,59.31198102,,,,,,,,4,Slow,short,d,1,2.135,6,0,24,0,1,,,,,
,1.94,,,,,,,,,f,blue,596f003434773e0001fc0d28,2021-09-27_14h12.01.651,forced_choiceRT_color,2021.2.3,MacIntel,59.31198102,,,,,,,,4,Slow,short,d,0,2.907,6,1,25,1,1,,,,,
,0.38,,,,,,,,,k,purple,596f003434773e0001fc0d28,2021-09-27_14h12.01.651,forced_choiceRT_color,2021.2.3,MacIntel,59.31198102,,,,,,,,4,Ontime,short,k,1,1.991,6,2,26,3,1,,,,,
,0.2,,,,,,,,,j,red,596f003434773e0001fc0d28,2021-09-27_14h12.01.651,forced_choiceRT_color,2021.2.3,MacIntel,59.31198102,,,,,,,,4,Ontime,short,j,1,2.059,6,3,27,2,1,,,,,
,1.98,,,,,,,,,f,blue,596f003434773e0001fc0d28,2021-09-27_14h12.01.651,forced_choiceRT_color,2021.2.3,MacIntel,59.31198102,,,,,,,,4,Ontime,short,j,0,2.037,7,0,28,1,1,,,,,
,0.97,,,,,,,,,k,purple,596f003434773e0001fc0d28,2021-09-27_14h12.01.651,forced_choiceRT_color,2021.2.3,MacIntel,59.31198102,,,,,,,,4,Fast,short,k,1,1.892,7,1,29,3,1,,,,,
,1.41,,,,,,,,,f,blue,596f003434773e0001fc0d28,2021-09-27_14h12.01.651,forced_choiceRT_color,2021.2.3,MacIntel,59.31198102,,,,,,,,4,Ontime,short,d,0,2.095,7,2,30,1,1,,,,,
,1.37,,,,,,,,,f,blue,596f003434773e0001fc0d28,2021-09-27_14h12.01.651,forced_choiceRT_color,2021.2.3,MacIntel,59.31198102,,,,,,,,4,Fast,short,f,1,1.897,7,3,31,1,1,,,,,
,0.68,,,,,,,,,k,purple,596f003434773e0001fc0d28,2021-09-27_14h12.01.651,forced_choiceRT_color,2021.2.3,MacIntel,59.31198102,,,,,,,,4,Ontime,short,k,1,1.988,8,0,32,3,1,,,,,
,1.75,,,,,,,,,k,purple,596f003434773e0001fc0d28,2021-09-27_14h12.01.651,forced_choiceRT_color,2021.2.3,MacIntel,59.31198102,,,,,,,,4,Ontime,short,k,1,1.989,8,1,33,3,1,,,,,
,0.32,,,,,,,,,k,purple,596f003434773e0001fc0d28,2021-09-27_14h12.01.651,forced_choiceRT_color,2021.2.3,MacIntel,59.31198102,,,,,,,,4,Ontime,short,k,1,1.93,8,2,34,3,1,,,,,
,1.79,,,,,,,,,d,orange,596f003434773e0001fc0d28,2021-09-27_14h12.01.651,forced_choiceRT_color,2021.2.3,MacIntel,59.31198102,,,,,,,,4,Ontime,short,f,0,1.996,8,3,35,0,1,,,,,
,0.58,,,,,,,,,d,orange,596f003434773e0001fc0d28,2021-09-27_14h12.01.651,forced_choiceRT_color,2021.2.3,MacIntel,59.31198102,,,,,,,,4,Fast,short,d,1,1.322,9,0,36,0,1,,,,,
,1.25,,,,,,,,,k,purple,596f003434773e0001fc0d28,2021-09-27_14h12.01.651,forced_choiceRT_color,2021.2.3,MacIntel,59.31198102,,,,,,,,4,Ontime,short,k,1,2.005,9,1,37,3,1,,,,,
,0.7,,,,,,,,,f,blue,596f003434773e0001fc0d28,2021-09-27_14h12.01.651,forced_choiceRT_color,2021.2.3,MacIntel,59.31198102,,,,,,,,4,Ontime,short,f,1,1.931,9,2,38,1,1,,,,,
,0.31,,,,,,,,,d,orange,596f003434773e0001fc0d28,2021-09-27_14h12.01.651,forced_choiceRT_color,2021.2.3,MacIntel,59.31198102,,,,,,,,4,Ontime,short,d,1,1.988,9,3,39,0,1,,,,,
,,,,,,,,,,,,596f003434773e0001fc0d28,2021-09-27_14h12.01.651,forced_choiceRT_color,2021.2.3,MacIntel,59.31198102,,,,,,,,,,,,,,,,,,,3,0,3,0,1
,0.8,,,,,,,,,f,blue,596f003434773e0001fc0d28,2021-09-27_14h12.01.651,forced_choiceRT_color,2021.2.3,MacIntel,59.31198102,,,,,,,,5,Slow,short,f,1,2.107,0,0,0,1,1,,,,,
,0.88,,,,,,,,,d,orange,596f003434773e0001fc0d28,2021-09-27_14h12.01.651,forced_choiceRT_color,2021.2.3,MacIntel,59.31198102,,,,,,,,5,Ontime,short,d,1,1.988,0,1,1,0,1,,,,,
,0.32,,,,,,,,,j,red,596f003434773e0001fc0d28,2021-09-27_14h12.01.651,forced_choiceRT_color,2021.2.3,MacIntel,59.31198102,,,,,,,,5,Ontime,short,j,1,1.97,0,2,2,2,1,,,,,
,1.36,,,,,,,,,d,orange,596f003434773e0001fc0d28,2021-09-27_14h12.01.651,forced_choiceRT_color,2021.2.3,MacIntel,59.31198102,,,,,,,,5,Fast,short,d,1,1.874,0,3,3,0,1,,,,,
,0.04,,,,,,,,,j,red,596f003434773e0001fc0d28,2021-09-27_14h12.01.651,forced_choiceRT_color,2021.2.3,MacIntel,59.31198102,,,,,,,,5,Ontime,short,j,1,1.959,1,0,4,2,1,,,,,
,1.86,,,,,,,,,k,purple,596f003434773e0001fc0d28,2021-09-27_14h12.01.651,forced_choiceRT_color,2021.2.3,MacIntel,59.31198102,,,,,,,,5,Ontime,short,j,0,2.093,1,1,5,3,1,,,,,
,1.02,,,,,,,,,j,red,596f003434773e0001fc0d28,2021-09-27_14h12.01.651,forced_choiceRT_color,2021.2.3,MacIntel,59.31198102,,,,,,,,5,Fast,short,j,1,1.849,1,2,6,2,1,,,,,
,1.72,,,,,,,,,j,red,596f003434773e0001fc0d28,2021-09-27_14h12.01.651,forced_choiceRT_color,2021.2.3,MacIntel,59.31198102,,,,,,,,5,Ontime,short,k,0,1.96,1,3,7,2,1,,,,,
,0.5,,,,,,,,,d,orange,596f003434773e0001fc0d28,2021-09-27_14h12.01.651,forced_choiceRT_color,2021.2.3,MacIntel,59.31198102,,,,,,,,5,Ontime,short,d,1,2.037,2,0,8,0,1,,,,,
,1,,,,,,,,,f,blue,596f003434773e0001fc0d28,2021-09-27_14h12.01.651,forced_choiceRT_color,2021.2.3,MacIntel,59.31198102,,,,,,,,5,Fast,short,f,1,1.882,2,1,9,1,1,,,,,
,0.93,,,,,,,,,f,blue,596f003434773e0001fc0d28,2021-09-27_14h12.01.651,forced_choiceRT_color,2021.2.3,MacIntel,59.31198102,,,,,,,,5,Ontime,short,f,1,1.951,2,2,10,1,1,,,,,
,0.76,,,,,,,,,f,blue,596f003434773e0001fc0d28,2021-09-27_14h12.01.651,forced_choiceRT_color,2021.2.3,MacIntel,59.31198102,,,,,,,,5,Ontime,short,f,1,2.053,2,3,11,1,1,,,,,
,1.82,,,,,,,,,j,red,596f003434773e0001fc0d28,2021-09-27_14h12.01.651,forced_choiceRT_color,2021.2.3,MacIntel,59.31198102,,,,,,,,5,Slow,short,f,0,2.168,3,0,12,2,1,,,,,
,0.23,,,,,,,,,d,orange,596f003434773e0001fc0d28,2021-09-27_14h12.01.651,forced_choiceRT_color,2021.2.3,MacIntel,59.31198102,,,,,,,,5,Ontime,short,d,1,2.074,3,1,13,0,1,,,,,
,1.03,,,,,,,,,f,blue,596f003434773e0001fc0d28,2021-09-27_14h12.01.651,forced_choiceRT_color,2021.2.3,MacIntel,59.31198102,,,,,,,,5,Slow,short,f,1,2.102,3,2,14,1,1,,,,,
,1.28,,,,,,,,,j,red,596f003434773e0001fc0d28,2021-09-27_14h12.01.651,forced_choiceRT_color,2021.2.3,MacIntel,59.31198102,,,,,,,,5,Ontime,short,d,0,1.968,3,3,15,2,1,,,,,
,0.97,,,,,,,,,j,red,596f003434773e0001fc0d28,2021-09-27_14h12.01.651,forced_choiceRT_color,2021.2.3,MacIntel,59.31198102,,,,,,,,5,Fast,short,d,0,1.854,4,0,16,2,1,,,,,
,0.44,,,,,,,,,k,purple,596f003434773e0001fc0d28,2021-09-27_14h12.01.651,forced_choiceRT_color,2021.2.3,MacIntel,59.31198102,,,,,,,,5,Ontime,short,k,1,1.901,4,1,17,3,1,,,,,
,1.69,,,,,,,,,k,purple,596f003434773e0001fc0d28,2021-09-27_14h12.01.651,forced_choiceRT_color,2021.2.3,MacIntel,59.31198102,,,,,,,,5,Slow,short,k,1,2.118,4,2,18,3,1,,,,,
,0.63,,,,,,,,,d,orange,596f003434773e0001fc0d28,2021-09-27_14h12.01.651,forced_choiceRT_color,2021.2.3,MacIntel,59.31198102,,,,,,,,5,Fast,short,d,1,1.812,4,3,19,0,1,,,,,
,1,,,,,,,,,d,orange,596f003434773e0001fc0d28,2021-09-27_14h12.01.651,forced_choiceRT_color,2021.2.3,MacIntel,59.31198102,,,,,,,,5,Ontime,short,d,1,1.971,5,0,20,0,1,,,,,
,1.9,,,,,,,,,d,orange,596f003434773e0001fc0d28,2021-09-27_14h12.01.651,forced_choiceRT_color,2021.2.3,MacIntel,59.31198102,,,,,,,,5,Ontime,short,d,1,2.019,5,1,21,0,1,,,,,
,0.16,,,,,,,,,k,purple,596f003434773e0001fc0d28,2021-09-27_14h12.01.651,forced_choiceRT_color,2021.2.3,MacIntel,59.31198102,,,,,,,,5,Fast,short,k,1,1.848,5,2,22,3,1,,,,,
,1.52,,,,,,,,,f,blue,596f003434773e0001fc0d28,2021-09-27_14h12.01.651,forced_choiceRT_color,2021.2.3,MacIntel,59.31198102,,,,,,,,5,Slow,short,d,0,2.206,5,3,23,1,1,,,,,
,1.04,,,,,,,,,d,orange,596f003434773e0001fc0d28,2021-09-27_14h12.01.651,forced_choiceRT_color,2021.2.3,MacIntel,59.31198102,,,,,,,,5,Fast,short,d,1,1.863,6,0,24,0,1,,,,,
,1.73,,,,,,,,,d,orange,596f003434773e0001fc0d28,2021-09-27_14h12.01.651,forced_choiceRT_color,2021.2.3,MacIntel,59.31198102,,,,,,,,5,Fast,short,d,1,1.805,6,1,25,0,1,,,,,
,1.79,,,,,,,,,f,blue,596f003434773e0001fc0d28,2021-09-27_14h12.01.651,forced_choiceRT_color,2021.2.3,MacIntel,59.31198102,,,,,,,,5,Ontime,short,f,1,2.006,6,2,26,1,1,,,,,
,0.75,,,,,,,,,k,purple,596f003434773e0001fc0d28,2021-09-27_14h12.01.651,forced_choiceRT_color,2021.2.3,MacIntel,59.31198102,,,,,,,,5,Fast,short,k,1,1.888,6,3,27,3,1,,,,,
,0.29,,,,,,,,,k,purple,596f003434773e0001fc0d28,2021-09-27_14h12.01.651,forced_choiceRT_color,2021.2.3,MacIntel,59.31198102,,,,,,,,5,Ontime,short,k,1,2.072,7,0,28,3,1,,,,,
,0.2,,,,,,,,,d,orange,596f003434773e0001fc0d28,2021-09-27_14h12.01.651,forced_choiceRT_color,2021.2.3,MacIntel,59.31198102,,,,,,,,5,Ontime,short,d,1,2.015,7,1,29,0,1,,,,,
,1.12,,,,,,,,,j,red,596f003434773e0001fc0d28,2021-09-27_14h12.01.651,forced_choiceRT_color,2021.2.3,MacIntel,59.31198102,,,,,,,,5,Ontime,short,f,0,1.983,7,2,30,2,1,,,,,
,0.95,,,,,,,,,k,purple,596f003434773e0001fc0d28,2021-09-27_14h12.01.651,forced_choiceRT_color,2021.2.3,MacIntel,59.31198102,,,,,,,,5,Ontime,short,k,1,2.005,7,3,31,3,1,,,,,
,0.44,,,,,,,,,k,purple,596f003434773e0001fc0d28,2021-09-27_14h12.01.651,forced_choiceRT_color,2021.2.3,MacIntel,59.31198102,,,,,,,,5,Ontime,short,k,1,1.922,8,0,32,3,1,,,,,
,0.24,,,,,,,,,f,blue,596f003434773e0001fc0d28,2021-09-27_14h12.01.651,forced_choiceRT_color,2021.2.3,MacIntel,59.31198102,,,,,,,,5,Ontime,short,f,1,1.921,8,1,33,1,1,,,,,
,1.36,,,,,,,,,k,purple,596f003434773e0001fc0d28,2021-09-27_14h12.01.651,forced_choiceRT_color,2021.2.3,MacIntel,59.31198102,,,,,,,,5,Fast,short,k,1,1.844,8,2,34,3,1,,,,,
,0.07,,,,,,,,,j,red,596f003434773e0001fc0d28,2021-09-27_14h12.01.651,forced_choiceRT_color,2021.2.3,MacIntel,59.31198102,,,,,,,,5,Ontime,short,j,1,1.907,8,3,35,2,1,,,,,
,0.45,,,,,,,,,f,blue,596f003434773e0001fc0d28,2021-09-27_14h12.01.651,forced_choiceRT_color,2021.2.3,MacIntel,59.31198102,,,,,,,,5,Fast,short,f,1,1.788,9,0,36,1,1,,,,,
,1.44,,,,,,,,,j,red,596f003434773e0001fc0d28,2021-09-27_14h12.01.651,forced_choiceRT_color,2021.2.3,MacIntel,59.31198102,,,,,,,,5,Ontime,short,k,0,2.022,9,1,37,2,1,,,,,
,1.42,,,,,,,,,f,blue,596f003434773e0001fc0d28,2021-09-27_14h12.01.651,forced_choiceRT_color,2021.2.3,MacIntel,59.31198102,,,,,,,,5,Fast,short,k,0,1.897,9,2,38,1,1,,,,,
,1.51,,,,,,,,,k,purple,596f003434773e0001fc0d28,2021-09-27_14h12.01.651,forced_choiceRT_color,2021.2.3,MacIntel,59.31198102,,,,,,,,5,Ontime,short,f,0,1.92,9,3,39,3,1,,,,,
,,,,,,,,,,,,596f003434773e0001fc0d28,2021-09-27_14h12.01.651,forced_choiceRT_color,2021.2.3,MacIntel,59.31198102,,,,,,,,,,,,,,,,,,,4,0,4,0,1
,1.33,,,,,,,,,j,red,596f003434773e0001fc0d28,2021-09-27_14h12.01.651,forced_choiceRT_color,2021.2.3,MacIntel,59.31198102,,,,,,,,6,Ontime,short,f,0,2.004,0,0,0,2,1,,,,,
,0.23,,,,,,,,,f,blue,596f003434773e0001fc0d28,2021-09-27_14h12.01.651,forced_choiceRT_color,2021.2.3,MacIntel,59.31198102,,,,,,,,6,Ontime,short,f,1,1.911,0,1,1,1,1,,,,,
,0.02,,,,,,,,,j,red,596f003434773e0001fc0d28,2021-09-27_14h12.01.651,forced_choiceRT_color,2021.2.3,MacIntel,59.31198102,,,,,,,,6,Fast,short,j,1,1.752,0,2,2,2,1,,,,,
,0.46,,,,,,,,,j,red,596f003434773e0001fc0d28,2021-09-27_14h12.01.651,forced_choiceRT_color,2021.2.3,MacIntel,59.31198102,,,,,,,,6,Ontime,short,j,1,2.036,0,3,3,2,1,,,,,
,0.64,,,,,,,,,f,blue,596f003434773e0001fc0d28,2021-09-27_14h12.01.651,forced_choiceRT_color,2021.2.3,MacIntel,59.31198102,,,,,,,,6,Fast,short,f,1,1.806,1,0,4,1,1,,,,,
,1.67,,,,,,,,,k,purple,596f003434773e0001fc0d28,2021-09-27_14h12.01.651,forced_choiceRT_color,2021.2.3,MacIntel,59.31198102,,,,,,,,6,Ontime,short,k,1,1.911,1,1,5,3,1,,,,,
,1.23,,,,,,,,,k,purple,596f003434773e0001fc0d28,2021-09-27_14h12.01.651,forced_choiceRT_color,2021.2.3,MacIntel,59.31198102,,,,,,,,6,Ontime,short,k,1,1.904,1,2,6,3,1,,,,,
,1.74,,,,,,,,,d,orange,596f003434773e0001fc0d28,2021-09-27_14h12.01.651,forced_choiceRT_color,2021.2.3,MacIntel,59.31198102,,,,,,,,6,Fast,short,k,0,1.899,1,3,7,0,1,,,,,
,1.99,,,,,,,,,j,red,596f003434773e0001fc0d28,2021-09-27_14h12.01.651,forced_choiceRT_color,2021.2.3,MacIntel,59.31198102,,,,,,,,6,Ontime,short,d,0,1.919,2,0,8,2,1,,,,,
,1.4,,,,,,,,,f,blue,596f003434773e0001fc0d28,2021-09-27_14h12.01.651,forced_choiceRT_color,2021.2.3,MacIntel,59.31198102,,,,,,,,6,Fast,short,d,0,1.769,2,1,9,1,1,,,,,
,1.88,,,,,,,,,f,blue,596f003434773e0001fc0d28,2021-09-27_14h12.01.651,forced_choiceRT_color,2021.2.3,MacIntel,59.31198102,,,,,,,,6,Ontime,short,k,0,1.93,2,2,10,1,1,,,,,
,1.54,,,,,,,,,k,purple,596f003434773e0001fc0d28,2021-09-27_14h12.01.651,forced_choiceRT_color,2021.2.3,MacIntel,59.31198102,,,,,,,,6,Fast,short,k,1,1.867,2,3,11,3,1,,,,,
,1.91,,,,,,,,,d,orange,596f003434773e0001fc0d28,2021-09-27_14h12.01.651,forced_choiceRT_color,2021.2.3,MacIntel,59.31198102,,,,,,,,6,Ontime,short,f,0,1.985,3,0,12,0,1,,,,,
,0.85,,,,,,,,,k,purple,596f003434773e0001fc0d28,2021-09-27_14h12.01.651,forced_choiceRT_color,2021.2.3,MacIntel,59.31198102,,,,,,,,6,Ontime,short,k,1,1.975,3,1,13,3,1,,,,,
,1.26,,,,,,,,,j,red,596f003434773e0001fc0d28,2021-09-27_14h12.01.651,forced_choiceRT_color,2021.2.3,MacIntel,59.31198102,,,,,,,,6,Fast,short,d,0,1.86,3,2,14,2,1,,,,,
,0.25,,,,,,,,,f,blue,596f003434773e0001fc0d28,2021-09-27_14h12.01.651,forced_choiceRT_color,2021.2.3,MacIntel,59.31198102,,,,,,,,6,Ontime,short,f,1,1.922,3,3,15,1,1,,,,,
,0.31,,,,,,,,,f,blue,596f003434773e0001fc0d28,2021-09-27_14h12.01.651,forced_choiceRT_color,2021.2.3,MacIntel,59.31198102,,,,,,,,6,Ontime,short,f,1,2.002,4,0,16,1,1,,,,,
,0.56,,,,,,,,,f,blue,596f003434773e0001fc0d28,2021-09-27_14h12.01.651,forced_choiceRT_color,2021.2.3,MacIntel,59.31198102,,,,,,,,6,Ontime,short,f,1,1.993,4,1,17,1,1,,,,,
,1.68,,,,,,,,,j,red,596f003434773e0001fc0d28,2021-09-27_14h12.01.651,forced_choiceRT_color,2021.2.3,MacIntel,59.31198102,,,,,,,,6,Ontime,short,j,1,2.078,4,2,18,2,1,,,,,
,0.65,,,,,,,,,j,red,596f003434773e0001fc0d28,2021-09-27_14h12.01.651,forced_choiceRT_color,2021.2.3,MacIntel,59.31198102,,,,,,,,6,Ontime,short,j,1,2.04,4,3,19,2,1,,,,,
,1.88,,,,,,,,,j,red,596f003434773e0001fc0d28,2021-09-27_14h12.01.651,forced_choiceRT_color,2021.2.3,MacIntel,59.31198102,,,,,,,,6,Ontime,short,j,1,2.064,5,0,20,2,1,,,,,
,1.39,,,,,,,,,k,purple,596f003434773e0001fc0d28,2021-09-27_14h12.01.651,forced_choiceRT_color,2021.2.3,MacIntel,59.31198102,,,,,,,,6,Ontime,short,k,1,2.071,5,1,21,3,1,,,,,
,0.23,,,,,,,,,d,orange,596f003434773e0001fc0d28,2021-09-27_14h12.01.651,forced_choiceRT_color,2021.2.3,MacIntel,59.31198102,,,,,,,,6,Ontime,short,d,1,2.009,5,2,22,0,1,,,,,
,0.22,,,,,,,,,k,purple,596f003434773e0001fc0d28,2021-09-27_14h12.01.651,forced_choiceRT_color,2021.2.3,MacIntel,59.31198102,,,,,,,,6,Fast,short,k,1,1.785,5,3,23,3,1,,,,,
,0.34,,,,,,,,,d,orange,596f003434773e0001fc0d28,2021-09-27_14h12.01.651,forced_choiceRT_color,2021.2.3,MacIntel,59.31198102,,,,,,,,6,Ontime,short,d,1,2.079,6,0,24,0,1,,,,,
,1.47,,,,,,,,,f,blue,596f003434773e0001fc0d28,2021-09-27_14h12.01.651,forced_choiceRT_color,2021.2.3,MacIntel,59.31198102,,,,,,,,6,Ontime,short,k,0,1.962,6,1,25,1,1,,,,,
,1.46,,,,,,,,,d,orange,596f003434773e0001fc0d28,2021-09-27_14h12.01.651,forced_choiceRT_color,2021.2.3,MacIntel,59.31198102,,,,,,,,6,Fast,short,f,0,1.53,6,2,26,0,1,,,,,
,1.59,,,,,,,,,d,orange,596f003434773e0001fc0d28,2021-09-27_14h12.01.651,forced_choiceRT_color,2021.2.3,MacIntel,59.31198102,,,,,,,,6,Slow,short,f,0,2.185,6,3,27,0,1,,,,,
,1.36,,,,,,,,,d,orange,596f003434773e0001fc0d28,2021-09-27_14h12.01.651,forced_choiceRT_color,2021.2.3,MacIntel,59.31198102,,,,,,,,6,Ontime,short,d,1,2.002,7,0,28,0,1,,,,,
,0.95,,,,,,,,,f,blue,596f003434773e0001fc0d28,2021-09-27_14h12.01.651,forced_choiceRT_color,2021.2.3,MacIntel,59.31198102,,,,,,,,6,Slow,short,f,1,2.102,7,1,29,1,1,,,,,
,0.16,,,,,,,,,d,orange,596f003434773e0001fc0d28,2021-09-27_14h12.01.651,forced_choiceRT_color,2021.2.3,MacIntel,59.31198102,,,,,,,,6,Ontime,short,d,1,1.976,7,2,30,0,1,,,,,
,1.02,,,,,,,,,k,purple,596f003434773e0001fc0d28,2021-09-27_14h12.01.651,forced_choiceRT_color,2021.2.3,MacIntel,59.31198102,,,,,,,,6,Ontime,short,k,1,1.926,7,3,31,3,1,,,,,
,1.98,,,,,,,,,f,blue,596f003434773e0001fc0d28,2021-09-27_14h12.01.651,forced_choiceRT_color,2021.2.3,MacIntel,59.31198102,,,,,,,,6,Ontime,short,k,0,2.088,8,0,32,1,1,,,,,
,0.12,,,,,,,,,j,red,596f003434773e0001fc0d28,2021-09-27_14h12.01.651,forced_choiceRT_color,2021.2.3,MacIntel,59.31198102,,,,,,,,6,Ontime,short,j,1,1.928,8,1,33,2,1,,,,,
,0.79,,,,,,,,,k,purple,596f003434773e0001fc0d28,2021-09-27_14h12.01.651,forced_choiceRT_color,2021.2.3,MacIntel,59.31198102,,,,,,,,6,Ontime,short,k,1,2.021,8,2,34,3,1,,,,,
,0.95,,,,,,,,,k,purple,596f003434773e0001fc0d28,2021-09-27_14h12.01.651,forced_choiceRT_color,2021.2.3,MacIntel,59.31198102,,,,,,,,6,Fast,short,k,1,1.888,8,3,35,3,1,,,,,
,0.68,,,,,,,,,d,orange,596f003434773e0001fc0d28,2021-09-27_14h12.01.651,forced_choiceRT_color,2021.2.3,MacIntel,59.31198102,,,,,,,,6,Fast,short,f,0,1.886,9,0,36,0,1,,,,,
,0.75,,,,,,,,,k,purple,596f003434773e0001fc0d28,2021-09-27_14h12.01.651,forced_choiceRT_color,2021.2.3,MacIntel,59.31198102,,,,,,,,6,Ontime,short,j,0,1.953,9,1,37,3,1,,,,,
,0.61,,,,,,,,,j,red,596f003434773e0001fc0d28,2021-09-27_14h12.01.651,forced_choiceRT_color,2021.2.3,MacIntel,59.31198102,,,,,,,,6,Ontime,short,j,1,2.017,9,2,38,2,1,,,,,
,1.65,,,,,,,,,d,orange,596f003434773e0001fc0d28,2021-09-27_14h12.01.651,forced_choiceRT_color,2021.2.3,MacIntel,59.31198102,,,,,,,,6,Fast,short,k,0,1.893,9,3,39,0,1,,,,,
,,,,,,,,,,,,596f003434773e0001fc0d28,2021-09-27_14h12.01.651,forced_choiceRT_color,2021.2.3,MacIntel,59.31198102,,,,,,,,,,,,,,,,,,,5,0,5,0,1
,0.89,,,,,,,,,k,purple,596f003434773e0001fc0d28,2021-09-27_14h12.01.651,forced_choiceRT_color,2021.2.3,MacIntel,59.31198102,,,,,,,,7,Ontime,short,k,1,1.954,0,0,0,3,1,,,,,
,1.97,,,,,,,,,j,red,596f003434773e0001fc0d28,2021-09-27_14h12.01.651,forced_choiceRT_color,2021.2.3,MacIntel,59.31198102,,,,,,,,7,Slow,short,k,0,2.198,0,1,1,2,1,,,,,
,1.67,,,,,,,,,d,orange,596f003434773e0001fc0d28,2021-09-27_14h12.01.651,forced_choiceRT_color,2021.2.3,MacIntel,59.31198102,,,,,,,,7,Ontime,short,f,0,2.031,0,2,2,0,1,,,,,
,0.66,,,,,,,,,f,blue,596f003434773e0001fc0d28,2021-09-27_14h12.01.651,forced_choiceRT_color,2021.2.3,MacIntel,59.31198102,,,,,,,,7,Ontime,short,f,1,1.964,0,3,3,1,1,,,,,
,1.75,,,,,,,,,f,blue,596f003434773e0001fc0d28,2021-09-27_14h12.01.651,forced_choiceRT_color,2021.2.3,MacIntel,59.31198102,,,,,,,,7,Ontime,short,f,1,1.996,1,0,4,1,1,,,,,
,0.7,,,,,,,,,k,purple,596f003434773e0001fc0d28,2021-09-27_14h12.01.651,forced_choiceRT_color,2021.2.3,MacIntel,59.31198102,,,,,,,,7,Ontime,short,k,1,1.999,1,1,5,3,1,,,,,
,1.88,,,,,,,,,k,purple,596f003434773e0001fc0d28,2021-09-27_14h12.01.651,forced_choiceRT_color,2021.2.3,MacIntel,59.31198102,,,,,,,,7,Ontime,short,k,1,1.969,1,2,6,3,1,,,,,
,0.02,,,,,,,,,k,purple,596f003434773e0001fc0d28,2021-09-27_14h12.01.651,forced_choiceRT_color,2021.2.3,MacIntel,59.31198102,,,,,,,,7,Slow,short,k,1,2.164,1,3,7,3,1,,,,,
,0.02,,,,,,,,,k,purple,596f003434773e0001fc0d28,2021-09-27_14h12.01.651,forced_choiceRT_color,2021.2.3,MacIntel,59.31198102,,,,,,,,7,Ontime,short,k,1,2.071,2,0,8,3,1,,,,,
,0.71,,,,,,,,,d,orange,596f003434773e0001fc0d28,2021-09-27_14h12.01.651,forced_choiceRT_color,2021.2.3,MacIntel,59.31198102,,,,,,,,7,Ontime,short,d,1,1.97,2,1,9,0,1,,,,,
,1.19,,,,,,,,,f,blue,596f003434773e0001fc0d28,2021-09-27_14h12.01.651,forced_choiceRT_color,2021.2.3,MacIntel,59.31198102,,,,,,,,7,Fast,short,f,1,1.776,2,2,10,1,1,,,,,
,1.15,,,,,,,,,j,red,596f003434773e0001fc0d28,2021-09-27_14h12.01.651,forced_choiceRT_color,2021.2.3,MacIntel,59.31198102,,,,,,,,7,Ontime,short,j,1,1.946,2,3,11,2,1,,,,,
,1.67,,,,,,,,,k,purple,596f003434773e0001fc0d28,2021-09-27_14h12.01.651,forced_choiceRT_color,2021.2.3,MacIntel,59.31198102,,,,,,,,7,Ontime,short,j,0,1.953,3,0,12,3,1,,,,,
,0.91,,,,,,,,,f,blue,596f003434773e0001fc0d28,2021-09-27_14h12.01.651,forced_choiceRT_color,2021.2.3,MacIntel,59.31198102,,,,,,,,7,Fast,short,f,1,1.899,3,1,13,1,1,,,,,
,1.49,,,,,,,,,j,red,596f003434773e0001fc0d28,2021-09-27_14h12.01.651,forced_choiceRT_color,2021.2.3,MacIntel,59.31198102,,,,,,,,7,Ontime,short,f,0,1.927,3,2,14,2,1,,,,,
,1.19,,,,,,,,,j,red,596f003434773e0001fc0d28,2021-09-27_14h12.01.651,forced_choiceRT_color,2021.2.3,MacIntel,59.31198102,,,,,,,,7,Fast,short,j,1,1.832,3,3,15,2,1,,,,,
,0.99,,,,,,,,,d,orange,596f003434773e0001fc0d28,2021-09-27_14h12.01.651,forced_choiceRT_color,2021.2.3,MacIntel,59.31198102,,,,,,,,7,Ontime,short,d,1,1.975,4,0,16,0,1,,,,,
,1.68,,,,,,,,,k,purple,596f003434773e0001fc0d28,2021-09-27_14h12.01.651,forced_choiceRT_color,2021.2.3,MacIntel,59.31198102,,,,,,,,7,Ontime,short,d,0,2.013,4,1,17,3,1,,,,,
,0.23,,,,,,,,,d,orange,596f003434773e0001fc0d28,2021-09-27_14h12.01.651,forced_choiceRT_color,2021.2.3,MacIntel,59.31198102,,,,,,,,7,Fast,short,j,0,1.469,4,2,18,0,1,,,,,
,0.61,,,,,,,,,f,blue,596f003434773e0001fc0d28,2021-09-27_14h12.01.651,forced_choiceRT_color,2021.2.3,MacIntel,59.31198102,,,,,,,,7,Ontime,short,f,1,1.946,4,3,19,1,1,,,,,
,1.89,,,,,,,,,d,orange,596f003434773e0001fc0d28,2021-09-27_14h12.01.651,forced_choiceRT_color,2021.2.3,MacIntel,59.31198102,,,,,,,,7,Ontime,short,d,1,1.953,5,0,20,0,1,,,,,
,0.38,,,,,,,,,j,red,596f003434773e0001fc0d28,2021-09-27_14h12.01.651,forced_choiceRT_color,2021.2.3,MacIntel,59.31198102,,,,,,,,7,Fast,short,j,1,1.888,5,1,21,2,1,,,,,
,0.48,,,,,,,,,f,blue,596f003434773e0001fc0d28,2021-09-27_14h12.01.651,forced_choiceRT_color,2021.2.3,MacIntel,59.31198102,,,,,,,,7,Ontime,short,f,1,2.046,5,2,22,1,1,,,,,
,0.93,,,,,,,,,j,red,596f003434773e0001fc0d28,2021-09-27_14h12.01.651,forced_choiceRT_color,2021.2.3,MacIntel,59.31198102,,,,,,,,7,Ontime,short,j,1,1.993,5,3,23,2,1,,,,,
,1.87,,,,,,,,,d,orange,596f003434773e0001fc0d28,2021-09-27_14h12.01.651,forced_choiceRT_color,2021.2.3,MacIntel,59.31198102,,,,,,,,7,Ontime,short,k,0,2.079,6,0,24,0,1,,,,,
,0.68,,,,,,,,,j,red,596f003434773e0001fc0d28,2021-09-27_14h12.01.651,forced_choiceRT_color,2021.2.3,MacIntel,59.31198102,,,,,,,,7,Ontime,short,j,1,1.961,6,1,25,2,1,,,,,
,0.07,,,,,,,,,f,blue,596f003434773e0001fc0d28,2021-09-27_14h12.01.651,forced_choiceRT_color,2021.2.3,MacIntel,59.31198102,,,,,,,,7,Ontime,short,f,1,1.936,6,2,26,1,1,,,,,
,1.22,,,,,,,,,j,red,596f003434773e0001fc0d28,2021-09-27_14h12.01.651,forced_choiceRT_color,2021.2.3,MacIntel,59.31198102,,,,,,,,7,Ontime,short,j,1,1.935,6,3,27,2,1,,,,,
,1.93,,,,,,,,,d,orange,596f003434773e0001fc0d28,2021-09-27_14h12.01.651,forced_choiceRT_color,2021.2.3,MacIntel,59.31198102,,,,,,,,7,Ontime,short,j,0,1.921,7,0,28,0,1,,,,,
,0.6,,,,,,,,,d,orange,596f003434773e0001fc0d28,2021-09-27_14h12.01.651,forced_choiceRT_color,2021.2.3,MacIntel,59.31198102,,,,,,,,7,Ontime,short,d,1,1.987,7,1,29,0,1,,,,,
,0.77,,,,,,,,,k,purple,596f003434773e0001fc0d28,2021-09-27_14h12.01.651,forced_choiceRT_color,2021.2.3,MacIntel,59.31198102,,,,,,,,7,Ontime,short,k,1,2.07,7,2,30,3,1,,,,,
,1.27,,,,,,,,,f,blue,596f003434773e0001fc0d28,2021-09-27_14h12.01.651,forced_choiceRT_color,2021.2.3,MacIntel,59.31198102,,,,,,,,7,Ontime,short,d,0,2.019,7,3,31,1,1,,,,,
,1.04,,,,,,,,,j,red,596f003434773e0001fc0d28,2021-09-27_14h12.01.651,forced_choiceRT_color,2021.2.3,MacIntel,59.31198102,,,,,,,,7,Ontime,short,j,1,1.909,8,0,32,2,1,,,,,
,1.41,,,,,,,,,k,purple,596f003434773e0001fc0d28,2021-09-27_14h12.01.651,forced_choiceRT_color,2021.2.3,MacIntel,59.31198102,,,,,,,,7,Fast,short,k,1,1.894,8,1,33,3,1,,,,,
,1.88,,,,,,,,,k,purple,596f003434773e0001fc0d28,2021-09-27_14h12.01.651,forced_choiceRT_color,2021.2.3,MacIntel,59.31198102,,,,,,,,7,Ontime,short,f,0,2.07,8,2,34,3,1,,,,,
,0.67,,,,,,,,,d,orange,596f003434773e0001fc0d28,2021-09-27_14h12.01.651,forced_choiceRT_color,2021.2.3,MacIntel,59.31198102,,,,,,,,7,Ontime,short,d,1,2.038,8,3,35,0,1,,,,,
,1.01,,,,,,,,,j,red,596f003434773e0001fc0d28,2021-09-27_14h12.01.651,forced_choiceRT_color,2021.2.3,MacIntel,59.31198102,,,,,,,,7,Fast,short,j,1,1.852,9,0,36,2,1,,,,,
,0.43,,,,,,,,,f,blue,596f003434773e0001fc0d28,2021-09-27_14h12.01.651,forced_choiceRT_color,2021.2.3,MacIntel,59.31198102,,,,,,,,7,Slow,short,f,1,2.144,9,1,37,1,1,,,,,
,0.4,,,,,,,,,f,blue,596f003434773e0001fc0d28,2021-09-27_14h12.01.651,forced_choiceRT_color,2021.2.3,MacIntel,59.31198102,,,,,,,,7,Ontime,short,f,1,2.053,9,2,38,1,1,,,,,
,1.26,,,,,,,,,d,orange,596f003434773e0001fc0d28,2021-09-27_14h12.01.651,forced_choiceRT_color,2021.2.3,MacIntel,59.31198102,,,,,,,,7,Ontime,short,f,0,1.951,9,3,39,0,1,,,,,
,,,,,,,,,,,,596f003434773e0001fc0d28,2021-09-27_14h12.01.651,forced_choiceRT_color,2021.2.3,MacIntel,59.31198102,,,,,,,,,,,,,,,,,,,6,0,6,0,1
,0.18,,,,,,,,,k,purple,596f003434773e0001fc0d28,2021-09-27_14h12.01.651,forced_choiceRT_color,2021.2.3,MacIntel,59.31198102,,,,,,,,8,Ontime,short,k,1,2.002,0,0,0,3,1,,,,,
,0.31,,,,,,,,,d,orange,596f003434773e0001fc0d28,2021-09-27_14h12.01.651,forced_choiceRT_color,2021.2.3,MacIntel,59.31198102,,,,,,,,8,Slow,short,d,1,2.102,0,1,1,0,1,,,,,
,1.1,,,,,,,,,f,blue,596f003434773e0001fc0d28,2021-09-27_14h12.01.651,forced_choiceRT_color,2021.2.3,MacIntel,59.31198102,,,,,,,,8,Fast,short,f,1,1.842,0,2,2,1,1,,,,,
,1.81,,,,,,,,,j,red,596f003434773e0001fc0d28,2021-09-27_14h12.01.651,forced_choiceRT_color,2021.2.3,MacIntel,59.31198102,,,,,,,,8,Ontime,short,j,1,2.035,0,3,3,2,1,,,,,
,1.88,,,,,,,,,f,blue,596f003434773e0001fc0d28,2021-09-27_14h12.01.651,forced_choiceRT_color,2021.2.3,MacIntel,59.31198102,,,,,,,,8,Ontime,short,j,0,2.043,1,0,4,1,1,,,,,
,0.89,,,,,,,,,d,orange,596f003434773e0001fc0d28,2021-09-27_14h12.01.651,forced_choiceRT_color,2021.2.3,MacIntel,59.31198102,,,,,,,,8,Fast,short,d,1,1.855,1,1,5,0,1,,,,,
,1.79,,,,,,,,,f,blue,596f003434773e0001fc0d28,2021-09-27_14h12.01.651,forced_choiceRT_color,2021.2.3,MacIntel,59.31198102,,,,,,,,8,Ontime,short,k,0,1.943,1,2,6,1,1,,,,,
,1.83,,,,,,,,,d,orange,596f003434773e0001fc0d28,2021-09-27_14h12.01.651,forced_choiceRT_color,2021.2.3,MacIntel,59.31198102,,,,,,,,8,Ontime,short,d,1,1.968,1,3,7,0,1,,,,,
,0.5,,,,,,,,,k,purple,596f003434773e0001fc0d28,2021-09-27_14h12.01.651,forced_choiceRT_color,2021.2.3,MacIntel,59.31198102,,,,,,,,8,Ontime,short,k,1,1.903,2,0,8,3,1,,,,,
,1.09,,,,,,,,,j,red,596f003434773e0001fc0d28,2021-09-27_14h12.01.651,forced_choiceRT_color,2021.2.3,MacIntel,59.31198102,,,,,,,,8,Fast,short,j,1,1.87,2,1,9,2,1,,,,,
,0.65,,,,,,,,,j,red,596f003434773e0001fc0d28,2021-09-27_14h12.01.651,forced_choiceRT_color,2021.2.3,MacIntel,59.31198102,,,,,,,,8,Ontime,short,j,1,2.052,2,2,10,2,1,,,,,
,0.54,,,,,,,,,f,blue,596f003434773e0001fc0d28,2021-09-27_14h12.01.651,forced_choiceRT_color,2021.2.3,MacIntel,59.31198102,,,,,,,,8,Ontime,short,f,1,1.984,2,3,11,1,1,,,,,
,0.36,,,,,,,,,k,purple,596f003434773e0001fc0d28,2021-09-27_14h12.01.651,forced_choiceRT_color,2021.2.3,MacIntel,59.31198102,,,,,,,,8,Ontime,short,k,1,2.028,3,0,12,3,1,,,,,
,1.16,,,,,,,,,k,purple,596f003434773e0001fc0d28,2021-09-27_14h12.01.651,forced_choiceRT_color,2021.2.3,MacIntel,59.31198102,,,,,,,,8,Ontime,short,k,1,1.984,3,1,13,3,1,,,,,
,1.56,,,,,,,,,k,purple,596f003434773e0001fc0d28,2021-09-27_14h12.01.651,forced_choiceRT_color,2021.2.3,MacIntel,59.31198102,,,,,,,,8,Fast,short,k,1,1.838,3,2,14,3,1,,,,,
,0.19,,,,,,,,,j,red,596f003434773e0001fc0d28,2021-09-27_14h12.01.651,forced_choiceRT_color,2021.2.3,MacIntel,59.31198102,,,,,,,,8,Ontime,short,j,1,1.967,3,3,15,2,1,,,,,
,0.48,,,,,,,,,j,red,596f003434773e0001fc0d28,2021-09-27_14h12.01.651,forced_choiceRT_color,2021.2.3,MacIntel,59.31198102,,,,,,,,8,Fast,short,j,1,1.893,4,0,16,2,1,,,,,
,1.74,,,,,,,,,f,blue,596f003434773e0001fc0d28,2021-09-27_14h12.01.651,forced_choiceRT_color,2021.2.3,MacIntel,59.31198102,,,,,,,,8,Slow,short,k,0,2.161,4,1,17,1,1,,,,,
,1.22,,,,,,,,,f,blue,596f003434773e0001fc0d28,2021-09-27_14h12.01.651,forced_choiceRT_color,2021.2.3,MacIntel,59.31198102,,,,,,,,8,Ontime,short,d,0,2.028,4,2,18,1,1,,,,,
,1.98,,,,,,,,,d,orange,596f003434773e0001fc0d28,2021-09-27_14h12.01.651,forced_choiceRT_color,2021.2.3,MacIntel,59.31198102,,,,,,,,8,Ontime,short,f,0,2.036,4,3,19,0,1,,,,,
,1.09,,,,,,,,,k,purple,596f003434773e0001fc0d28,2021-09-27_14h12.01.651,forced_choiceRT_color,2021.2.3,MacIntel,59.31198102,,,,,,,,8,Fast,short,k,1,1.892,5,0,20,3,1,,,,,
,1.05,,,,,,,,,j,red,596f003434773e0001fc0d28,2021-09-27_14h12.01.651,forced_choiceRT_color,2021.2.3,MacIntel,59.31198102,,,,,,,,8,Ontime,short,j,1,1.946,5,1,21,2,1,,,,,
,0.22,,,,,,,,,f,blue,596f003434773e0001fc0d28,2021-09-27_14h12.01.651,forced_choiceRT_color,2021.2.3,MacIntel,59.31198102,,,,,,,,8,Fast,short,f,1,1.881,5,2,22,1,1,,,,,
,0.71,,,,,,,,,j,red,596f003434773e0001fc0d28,2021-09-27_14h12.01.651,forced_choiceRT_color,2021.2.3,MacIntel,59.31198102,,,,,,,,8,Fast,short,k,0,1.863,5,3,23,2,1,,,,,
,1.76,,,,,,,,,k,purple,596f003434773e0001fc0d28,2021-09-27_14h12.01.651,forced_choiceRT_color,2021.2.3,MacIntel,59.31198102,,,,,,,,8,Ontime,short,j,0,1.998,6,0,24,3,1,,,,,
,1.85,,,,,,,,,d,orange,596f003434773e0001fc0d28,2021-09-27_14h12.01.651,forced_choiceRT_color,2021.2.3,MacIntel,59.31198102,,,,,,,,8,Fast,short,k,0,0.004,6,1,25,0,1,,,,,
,0.26,,,,,,,,,f,blue,596f003434773e0001fc0d28,2021-09-27_14h12.01.651,forced_choiceRT_color,2021.2.3,MacIntel,59.31198102,,,,,,,,8,Ontime,short,f,1,2.031,6,2,26,1,1,,,,,
,0.74,,,,,,,,,j,red,596f003434773e0001fc0d28,2021-09-27_14h12.01.651,forced_choiceRT_color,2021.2.3,MacIntel,59.31198102,,,,,,,,8,Ontime,short,j,1,1.955,6,3,27,2,1,,,,,
,1.82,,,,,,,,,d,orange,596f003434773e0001fc0d28,2021-09-27_14h12.01.651,forced_choiceRT_color,2021.2.3,MacIntel,59.31198102,,,,,,,,8,Ontime,short,k,0,1.995,7,0,28,0,1,,,,,
,1.84,,,,,,,,,k,purple,596f003434773e0001fc0d28,2021-09-27_14h12.01.651,forced_choiceRT_color,2021.2.3,MacIntel,59.31198102,,,,,,,,8,Fast,short,k,1,1.856,7,1,29,3,1,,,,,
,1.35,,,,,,,,,d,orange,596f003434773e0001fc0d28,2021-09-27_14h12.01.651,forced_choiceRT_color,2021.2.3,MacIntel,59.31198102,,,,,,,,8,Ontime,short,f,0,2.048,7,2,30,0,1,,,,,
,0.97,,,,,,,,,j,red,596f003434773e0001fc0d28,2021-09-27_14h12.01.651,forced_choiceRT_color,2021.2.3,MacIntel,59.31198102,,,,,,,,8,Ontime,short,j,1,1.955,7,3,31,2,1,,,,,
,1.51,,,,,,,,,f,blue,596f003434773e0001fc0d28,2021-09-27_14h12.01.651,forced_choiceRT_color,2021.2.3,MacIntel,59.31198102,,,,,,,,8,Fast,short,j,0,1.851,8,0,32,1,1,,,,,
,1.88,,,,,,,,,k,purple,596f003434773e0001fc0d28,2021-09-27_14h12.01.651,forced_choiceRT_color,2021.2.3,MacIntel,59.31198102,,,,,,,,8,Fast,short,d,0,1.896,8,1,33,3,1,,,,,
,1.46,,,,,,,,,j,red,596f003434773e0001fc0d28,2021-09-27_14h12.01.651,forced_choiceRT_color,2021.2.3,MacIntel,59.31198102,,,,,,,,8,Ontime,short,d,0,2.005,8,2,34,2,1,,,,,
,0.24,,,,,,,,,d,orange,596f003434773e0001fc0d28,2021-09-27_14h12.01.651,forced_choiceRT_color,2021.2.3,MacIntel,59.31198102,,,,,,,,8,Ontime,short,d,1,1.969,8,3,35,0,1,,,,,
,0.61,,,,,,,,,k,purple,596f003434773e0001fc0d28,2021-09-27_14h12.01.651,forced_choiceRT_color,2021.2.3,MacIntel,59.31198102,,,,,,,,8,Ontime,short,k,1,1.981,9,0,36,3,1,,,,,
,1.69,,,,,,,,,d,orange,596f003434773e0001fc0d28,2021-09-27_14h12.01.651,forced_choiceRT_color,2021.2.3,MacIntel,59.31198102,,,,,,,,8,Ontime,short,k,0,2.01,9,1,37,0,1,,,,,
,0.13,,,,,,,,,f,blue,596f003434773e0001fc0d28,2021-09-27_14h12.01.651,forced_choiceRT_color,2021.2.3,MacIntel,59.31198102,,,,,,,,8,Fast,short,f,1,1.893,9,2,38,1,1,,,,,
,0.65,,,,,,,,,d,orange,596f003434773e0001fc0d28,2021-09-27_14h12.01.651,forced_choiceRT_color,2021.2.3,MacIntel,59.31198102,,,,,,,,8,Ontime,short,d,1,1.922,9,3,39,0,1,,,,,
,,,,,,,,,,,,596f003434773e0001fc0d28,2021-09-27_14h12.01.651,forced_choiceRT_color,2021.2.3,MacIntel,59.31198102,,,,,,,,,,,,,,,,,,,7,0,7,0,1
,1.14,,,,,,,,,f,blue,596f003434773e0001fc0d28,2021-09-27_14h12.01.651,forced_choiceRT_color,2021.2.3,MacIntel,59.31198102,,,,,,,,9,Ontime,short,f,1,2.063,0,0,0,1,1,,,,,
,0.17,,,,,,,,,d,orange,596f003434773e0001fc0d28,2021-09-27_14h12.01.651,forced_choiceRT_color,2021.2.3,MacIntel,59.31198102,,,,,,,,9,Ontime,short,d,1,2.049,0,1,1,0,1,,,,,
,1.38,,,,,,,,,j,red,596f003434773e0001fc0d28,2021-09-27_14h12.01.651,forced_choiceRT_color,2021.2.3,MacIntel,59.31198102,,,,,,,,9,Ontime,short,j,1,2.036,0,2,2,2,1,,,,,
,0.59,,,,,,,,,k,purple,596f003434773e0001fc0d28,2021-09-27_14h12.01.651,forced_choiceRT_color,2021.2.3,MacIntel,59.31198102,,,,,,,,9,Slow,short,k,1,2.203,0,3,3,3,1,,,,,
,1.69,,,,,,,,,k,purple,596f003434773e0001fc0d28,2021-09-27_14h12.01.651,forced_choiceRT_color,2021.2.3,MacIntel,59.31198102,,,,,,,,9,Slow,short,k,1,2.236,1,0,4,3,1,,,,,
,1.62,,,,,,,,,f,blue,596f003434773e0001fc0d28,2021-09-27_14h12.01.651,forced_choiceRT_color,2021.2.3,MacIntel,59.31198102,,,,,,,,9,Ontime,short,f,1,1.975,1,1,5,1,1,,,,,
,1.83,,,,,,,,,f,blue,596f003434773e0001fc0d28,2021-09-27_14h12.01.651,forced_choiceRT_color,2021.2.3,MacIntel,59.31198102,,,,,,,,9,Ontime,short,f,1,2.06,1,2,6,1,1,,,,,
,0.91,,,,,,,,,d,orange,596f003434773e0001fc0d28,2021-09-27_14h12.01.651,forced_choiceRT_color,2021.2.3,MacIntel,59.31198102,,,,,,,,9,Ontime,short,d,1,1.945,1,3,7,0,1,,,,,
,1.58,,,,,,,,,f,blue,596f003434773e0001fc0d28,2021-09-27_14h12.01.651,forced_choiceRT_color,2021.2.3,MacIntel,59.31198102,,,,,,,,9,Slow,short,d,0,2.121,2,0,8,1,1,,,,,
,1.88,,,,,,,,,k,purple,596f003434773e0001fc0d28,2021-09-27_14h12.01.651,forced_choiceRT_color,2021.2.3,MacIntel,59.31198102,,,,,,,,9,Slow,short,j,0,2.102,2,1,9,3,1,,,,,
,1.24,,,,,,,,,k,purple,596f003434773e0001fc0d28,2021-09-27_14h12.01.651,forced_choiceRT_color,2021.2.3,MacIntel,59.31198102,,,,,,,,9,Ontime,short,k,1,1.937,2,2,10,3,1,,,,,
,1.06,,,,,,,,,d,orange,596f003434773e0001fc0d28,2021-09-27_14h12.01.651,forced_choiceRT_color,2021.2.3,MacIntel,59.31198102,,,,,,,,9,Ontime,short,k,0,2.035,2,3,11,0,1,,,,,
,1.21,,,,,,,,,j,red,596f003434773e0001fc0d28,2021-09-27_14h12.01.651,forced_choiceRT_color,2021.2.3,MacIntel,59.31198102,,,,,,,,9,Ontime,short,f,0,1.987,3,0,12,2,1,,,,,
,0.44,,,,,,,,,k,purple,596f003434773e0001fc0d28,2021-09-27_14h12.01.651,forced_choiceRT_color,2021.2.3,MacIntel,59.31198102,,,,,,,,9,Fast,short,j,0,0.002,3,1,13,3,1,,,,,
,0.59,,,,,,,,,j,red,596f003434773e0001fc0d28,2021-09-27_14h12.01.651,forced_choiceRT_color,2021.2.3,MacIntel,59.31198102,,,,,,,,9,Ontime,short,j,1,2.02,3,2,14,2,1,,,,,
,0.96,,,,,,,,,d,orange,596f003434773e0001fc0d28,2021-09-27_14h12.01.651,forced_choiceRT_color,2021.2.3,MacIntel,59.31198102,,,,,,,,9,Ontime,short,d,1,2.066,3,3,15,0,1,,,,,
,0.59,,,,,,,,,k,purple,596f003434773e0001fc0d28,2021-09-27_14h12.01.651,forced_choiceRT_color,2021.2.3,MacIntel,59.31198102,,,,,,,,9,Ontime,short,k,1,1.987,4,0,16,3,1,,,,,
,0.36,,,,,,,,,k,purple,596f003434773e0001fc0d28,2021-09-27_14h12.01.651,forced_choiceRT_color,2021.2.3,MacIntel,59.31198102,,,,,,,,9,Ontime,short,k,1,1.978,4,1,17,3,1,,,,,
,0.01,,,,,,,,,d,orange,596f003434773e0001fc0d28,2021-09-27_14h12.01.651,forced_choiceRT_color,2021.2.3,MacIntel,59.31198102,,,,,,,,9,Ontime,short,d,1,1.943,4,2,18,0,1,,,,,
,0.82,,,,,,,,,j,red,596f003434773e0001fc0d28,2021-09-27_14h12.01.651,forced_choiceRT_color,2021.2.3,MacIntel,59.31198102,,,,,,,,9,Fast,short,j,1,1.896,4,3,19,2,1,,,,,
,0.26,,,,,,,,,f,blue,596f003434773e0001fc0d28,2021-09-27_14h12.01.651,forced_choiceRT_color,2021.2.3,MacIntel,59.31198102,,,,,,,,9,Slow,short,f,1,2.135,5,0,20,1,1,,,,,
,1.46,,,,,,,,,f,blue,596f003434773e0001fc0d28,2021-09-27_14h12.01.651,forced_choiceRT_color,2021.2.3,MacIntel,59.31198102,,,,,,,,9,Ontime,short,f,1,2.001,5,1,21,1,1,,,,,
,1.4,,,,,,,,,d,orange,596f003434773e0001fc0d28,2021-09-27_14h12.01.651,forced_choiceRT_color,2021.2.3,MacIntel,59.31198102,,,,,,,,9,Slow,short,f,0,2.11,5,2,22,0,1,,,,,
,1.61,,,,,,,,,f,blue,596f003434773e0001fc0d28,2021-09-27_14h12.01.651,forced_choiceRT_color,2021.2.3,MacIntel,59.31198102,,,,,,,,9,Ontime,short,d,0,1.92,5,3,23,1,1,,,,,
,1.56,,,,,,,,,k,purple,596f003434773e0001fc0d28,2021-09-27_14h12.01.651,forced_choiceRT_color,2021.2.3,MacIntel,59.31198102,,,,,,,,9,Fast,short,d,0,1.851,6,0,24,3,1,,,,,
,0.88,,,,,,,,,j,red,596f003434773e0001fc0d28,2021-09-27_14h12.01.651,forced_choiceRT_color,2021.2.3,MacIntel,59.31198102,,,,,,,,9,Fast,short,j,1,1.88,6,1,25,2,1,,,,,
,0.18,,,,,,,,,j,red,596f003434773e0001fc0d28,2021-09-27_14h12.01.651,forced_choiceRT_color,2021.2.3,MacIntel,59.31198102,,,,,,,,9,Ontime,short,j,1,1.935,6,2,26,2,1,,,,,
,0.12,,,,,,,,,d,orange,596f003434773e0001fc0d28,2021-09-27_14h12.01.651,forced_choiceRT_color,2021.2.3,MacIntel,59.31198102,,,,,,,,9,Ontime,short,d,1,1.979,6,3,27,0,1,,,,,
,0.88,,,,,,,,,j,red,596f003434773e0001fc0d28,2021-09-27_14h12.01.651,forced_choiceRT_color,2021.2.3,MacIntel,59.31198102,,,,,,,,9,Fast,short,j,1,1.852,7,0,28,2,1,,,,,
,0.39,,,,,,,,,k,purple,596f003434773e0001fc0d28,2021-09-27_14h12.01.651,forced_choiceRT_color,2021.2.3,MacIntel,59.31198102,,,,,,,,9,Ontime,short,k,1,2.028,7,1,29,3,1,,,,,
,1.04,,,,,,,,,k,purple,596f003434773e0001fc0d28,2021-09-27_14h12.01.651,forced_choiceRT_color,2021.2.3,MacIntel,59.31198102,,,,,,,,9,Fast,short,k,1,1.894,7,2,30,3,1,,,,,
,0.77,,,,,,,,,f,blue,596f003434773e0001fc0d28,2021-09-27_14h12.01.651,forced_choiceRT_color,2021.2.3,MacIntel,59.31198102,,,,,,,,9,Ontime,short,f,1,2.013,7,3,31,1,1,,,,,
,1.77,,,,,,,,,j,red,596f003434773e0001fc0d28,2021-09-27_14h12.01.651,forced_choiceRT_color,2021.2.3,MacIntel,59.31198102,,,,,,,,9,Ontime,short,f,0,2.034,8,0,32,2,1,,,,,
,0.31,,,,,,,,,f,blue,596f003434773e0001fc0d28,2021-09-27_14h12.01.651,forced_choiceRT_color,2021.2.3,MacIntel,59.31198102,,,,,,,,9,Ontime,short,f,1,1.958,8,1,33,1,1,,,,,
,0.2,,,,,,,,,j,red,596f003434773e0001fc0d28,2021-09-27_14h12.01.651,forced_choiceRT_color,2021.2.3,MacIntel,59.31198102,,,,,,,,9,Ontime,short,j,1,2.052,8,2,34,2,1,,,,,
,1.33,,,,,,,,,d,orange,596f003434773e0001fc0d28,2021-09-27_14h12.01.651,forced_choiceRT_color,2021.2.3,MacIntel,59.31198102,,,,,,,,9,Ontime,short,d,1,1.921,8,3,35,0,1,,,,,
,0.3,,,,,,,,,j,red,596f003434773e0001fc0d28,2021-09-27_14h12.01.651,forced_choiceRT_color,2021.2.3,MacIntel,59.31198102,,,,,,,,9,Fast,short,j,1,1.737,9,0,36,2,1,,,,,
,0.64,,,,,,,,,d,orange,596f003434773e0001fc0d28,2021-09-27_14h12.01.651,forced_choiceRT_color,2021.2.3,MacIntel,59.31198102,,,,,,,,9,Ontime,short,d,1,2.076,9,1,37,0,1,,,,,
,1.8,,,,,,,,,f,blue,596f003434773e0001fc0d28,2021-09-27_14h12.01.651,forced_choiceRT_color,2021.2.3,MacIntel,59.31198102,,,,,,,,9,Slow,short,d,0,2.109,9,2,38,1,1,,,,,
,0.57,,,,,,,,,d,orange,596f003434773e0001fc0d28,2021-09-27_14h12.01.651,forced_choiceRT_color,2021.2.3,MacIntel,59.31198102,,,,,,,,9,Ontime,short,d,1,1.987,9,3,39,0,1,,,,,
,,,,,,,,,,,,596f003434773e0001fc0d28,2021-09-27_14h12.01.651,forced_choiceRT_color,2021.2.3,MacIntel,59.31198102,,,,,,,,,,,,,,,,,,,8,0,8,0,1
,0.3,,,,,,,,,f,blue,596f003434773e0001fc0d28,2021-09-27_14h12.01.651,forced_choiceRT_color,2021.2.3,MacIntel,59.31198102,,,,,,,,10,Ontime,short,j,0,1.947,0,0,0,1,1,,,,,
,0.87,,,,,,,,,j,red,596f003434773e0001fc0d28,2021-09-27_14h12.01.651,forced_choiceRT_color,2021.2.3,MacIntel,59.31198102,,,,,,,,10,Fast,short,k,0,0.001,0,1,1,2,1,,,,,
,1.22,,,,,,,,,d,orange,596f003434773e0001fc0d28,2021-09-27_14h12.01.651,forced_choiceRT_color,2021.2.3,MacIntel,59.31198102,,,,,,,,10,Ontime,short,d,1,2.008,0,2,2,0,1,,,,,
,1.04,,,,,,,,,d,orange,596f003434773e0001fc0d28,2021-09-27_14h12.01.651,forced_choiceRT_color,2021.2.3,MacIntel,59.31198102,,,,,,,,10,Ontime,short,d,1,2.093,0,3,3,0,1,,,,,
,0.03,,,,,,,,,j,red,596f003434773e0001fc0d28,2021-09-27_14h12.01.651,forced_choiceRT_color,2021.2.3,MacIntel,59.31198102,,,,,,,,10,Ontime,short,j,1,2.063,1,0,4,2,1,,,,,
,0.06,,,,,,,,,j,red,596f003434773e0001fc0d28,2021-09-27_14h12.01.651,forced_choiceRT_color,2021.2.3,MacIntel,59.31198102,,,,,,,,10,Ontime,short,j,1,1.987,1,1,5,2,1,,,,,
,1.38,,,,,,,,,f,blue,596f003434773e0001fc0d28,2021-09-27_14h12.01.651,forced_choiceRT_color,2021.2.3,MacIntel,59.31198102,,,,,,,,10,Ontime,short,d,0,1.987,1,2,6,1,1,,,,,
,0.48,,,,,,,,,f,blue,596f003434773e0001fc0d28,2021-09-27_14h12.01.651,forced_choiceRT_color,2021.2.3,MacIntel,59.31198102,,,,,,,,10,Ontime,short,f,1,1.997,1,3,7,1,1,,,,,
,0.88,,,,,,,,,d,orange,596f003434773e0001fc0d28,2021-09-27_14h12.01.651,forced_choiceRT_color,2021.2.3,MacIntel,59.31198102,,,,,,,,10,Ontime,short,d,1,1.988,2,0,8,0,1,,,,,
,0.19,,,,,,,,,f,blue,596f003434773e0001fc0d28,2021-09-27_14h12.01.651,forced_choiceRT_color,2021.2.3,MacIntel,59.31198102,,,,,,,,10,Ontime,short,f,1,1.994,2,1,9,1,1,,,,,
,1.19,,,,,,,,,j,red,596f003434773e0001fc0d28,2021-09-27_14h12.01.651,forced_choiceRT_color,2021.2.3,MacIntel,59.31198102,,,,,,,,10,Fast,short,j,1,1.753,2,2,10,2,1,,,,,
,1.77,,,,,,,,,k,purple,596f003434773e0001fc0d28,2021-09-27_14h12.01.651,forced_choiceRT_color,2021.2.3,MacIntel,59.31198102,,,,,,,,10,Slow,short,j,0,2.114,2,3,11,3,1,,,,,
,1.12,,,,,,,,,j,red,596f003434773e0001fc0d28,2021-09-27_14h12.01.651,forced_choiceRT_color,2021.2.3,MacIntel,59.31198102,,,,,,,,10,Ontime,short,j,1,2.046,3,0,12,2,1,,,,,
,1.94,,,,,,,,,d,orange,596f003434773e0001fc0d28,2021-09-27_14h12.01.651,forced_choiceRT_color,2021.2.3,MacIntel,59.31198102,,,,,,,,10,Ontime,short,k,0,1.97,3,1,13,0,1,,,,,
,0.2,,,,,,,,,k,purple,596f003434773e0001fc0d28,2021-09-27_14h12.01.651,forced_choiceRT_color,2021.2.3,MacIntel,59.31198102,,,,,,,,10,Fast,short,k,1,1.841,3,2,14,3,1,,,,,
,1.96,,,,,,,,,k,purple,596f003434773e0001fc0d28,2021-09-27_14h12.01.651,forced_choiceRT_color,2021.2.3,MacIntel,59.31198102,,,,,,,,10,Ontime,short,k,1,1.959,3,3,15,3,1,,,,,
,0.46,,,,,,,,,k,purple,596f003434773e0001fc0d28,2021-09-27_14h12.01.651,forced_choiceRT_color,2021.2.3,MacIntel,59.31198102,,,,,,,,10,Ontime,short,k,1,2.001,4,0,16,3,1,,,,,
,1.46,,,,,,,,,d,orange,596f003434773e0001fc0d28,2021-09-27_14h12.01.651,forced_choiceRT_color,2021.2.3,MacIntel,59.31198102,,,,,,,,10,Slow,short,d,1,2.196,4,1,17,0,1,,,,,
,0.49,,,,,,,,,j,red,596f003434773e0001fc0d28,2021-09-27_14h12.01.651,forced_choiceRT_color,2021.2.3,MacIntel,59.31198102,,,,,,,,10,Ontime,short,j,1,1.989,4,2,18,2,1,,,,,
,1.17,,,,,,,,,f,blue,596f003434773e0001fc0d28,2021-09-27_14h12.01.651,forced_choiceRT_color,2021.2.3,MacIntel,59.31198102,,,,,,,,10,Ontime,short,d,0,1.903,4,3,19,1,1,,,,,
,1.67,,,,,,,,,f,blue,596f003434773e0001fc0d28,2021-09-27_14h12.01.651,forced_choiceRT_color,2021.2.3,MacIntel,59.31198102,,,,,,,,10,Ontime,short,f,1,1.93,5,0,20,1,1,,,,,
,0.21,,,,,,,,,k,purple,596f003434773e0001fc0d28,2021-09-27_14h12.01.651,forced_choiceRT_color,2021.2.3,MacIntel,59.31198102,,,,,,,,10,Ontime,short,k,1,1.957,5,1,21,3,1,,,,,
,1.98,,,,,,,,,d,orange,596f003434773e0001fc0d28,2021-09-27_14h12.01.651,forced_choiceRT_color,2021.2.3,MacIntel,59.31198102,,,,,,,,10,Ontime,short,k,0,1.919,5,2,22,0,1,,,,,
,0.1,,,,,,,,,d,orange,596f003434773e0001fc0d28,2021-09-27_14h12.01.651,forced_choiceRT_color,2021.2.3,MacIntel,59.31198102,,,,,,,,10,Ontime,short,f,0,1.927,5,3,23,0,1,,,,,
,0.2,,,,,,,,,j,red,596f003434773e0001fc0d28,2021-09-27_14h12.01.651,forced_choiceRT_color,2021.2.3,MacIntel,59.31198102,,,,,,,,10,Ontime,short,j,1,1.925,6,0,24,2,1,,,,,
,0.82,,,,,,,,,f,blue,596f003434773e0001fc0d28,2021-09-27_14h12.01.651,forced_choiceRT_color,2021.2.3,MacIntel,59.31198102,,,,,,,,10,Fast,short,f,1,1.838,6,1,25,1,1,,,,,
,1.42,,,,,,,,,j,red,596f003434773e0001fc0d28,2021-09-27_14h12.01.651,forced_choiceRT_color,2021.2.3,MacIntel,59.31198102,,,,,,,,10,Ontime,short,j,1,2.014,6,2,26,2,1,,,,,
,1.35,,,,,,,,,j,red,596f003434773e0001fc0d28,2021-09-27_14h12.01.651,forced_choiceRT_color,2021.2.3,MacIntel,59.31198102,,,,,,,,10,Slow,short,j,1,2.114,6,3,27,2,1,,,,,
,0.43,,,,,,,,,d,orange,596f003434773e0001fc0d28,2021-09-27_14h12.01.651,forced_choiceRT_color,2021.2.3,MacIntel,59.31198102,,,,,,,,10,Ontime,short,d,1,2.046,7,0,28,0,1,,,,,
,0.41,,,,,,,,,k,purple,596f003434773e0001fc0d28,2021-09-27_14h12.01.651,forced_choiceRT_color,2021.2.3,MacIntel,59.31198102,,,,,,,,10,Ontime,short,k,1,2.058,7,1,29,3,1,,,,,
,1.24,,,,,,,,,f,blue,596f003434773e0001fc0d28,2021-09-27_14h12.01.651,forced_choiceRT_color,2021.2.3,MacIntel,59.31198102,,,,,,,,10,Ontime,short,d,0,1.926,7,2,30,1,1,,,,,
,1.81,,,,,,,,,k,purple,596f003434773e0001fc0d28,2021-09-27_14h12.01.651,forced_choiceRT_color,2021.2.3,MacIntel,59.31198102,,,,,,,,10,Ontime,short,f,0,1.926,7,3,31,3,1,,,,,
,0.03,,,,,,,,,k,purple,596f003434773e0001fc0d28,2021-09-27_14h12.01.651,forced_choiceRT_color,2021.2.3,MacIntel,59.31198102,,,,,,,,10,Fast,short,k,1,1.887,8,0,32,3,1,,,,,
,0.62,,,,,,,,,j,red,596f003434773e0001fc0d28,2021-09-27_14h12.01.651,forced_choiceRT_color,2021.2.3,MacIntel,59.31198102,,,,,,,,10,Ontime,short,j,1,1.996,8,1,33,2,1,,,,,
,1.75,,,,,,,,,d,orange,596f003434773e0001fc0d28,2021-09-27_14h12.01.651,forced_choiceRT_color,2021.2.3,MacIntel,59.31198102,,,,,,,,10,Ontime,short,j,0,1.921,8,2,34,0,1,,,,,
,0.76,,,,,,,,,f,blue,596f003434773e0001fc0d28,2021-09-27_14h12.01.651,forced_choiceRT_color,2021.2.3,MacIntel,59.31198102,,,,,,,,10,Fast,short,d,0,1.837,8,3,35,1,1,,,,,
,0.99,,,,,,,,,d,orange,596f003434773e0001fc0d28,2021-09-27_14h12.01.651,forced_choiceRT_color,2021.2.3,MacIntel,59.31198102,,,,,,,,10,Ontime,short,d,1,1.994,9,0,36,0,1,,,,,
,0.26,,,,,,,,,k,purple,596f003434773e0001fc0d28,2021-09-27_14h12.01.651,forced_choiceRT_color,2021.2.3,MacIntel,59.31198102,,,,,,,,10,Slow,short,k,1,2.167,9,1,37,3,1,,,,,
,1.35,,,,,,,,,k,purple,596f003434773e0001fc0d28,2021-09-27_14h12.01.651,forced_choiceRT_color,2021.2.3,MacIntel,59.31198102,,,,,,,,10,Ontime,short,k,1,1.904,9,2,38,3,1,,,,,
,0.17,,,,,,,,,f,blue,596f003434773e0001fc0d28,2021-09-27_14h12.01.651,forced_choiceRT_color,2021.2.3,MacIntel,59.31198102,,,,,,,,10,Ontime,short,f,1,2.019,9,3,39,1,1,,,,,
,,,,,,,,,,,,596f003434773e0001fc0d28,2021-09-27_14h12.01.651,forced_choiceRT_color,2021.2.3,MacIntel,59.31198102,,,,,,,,,,,,,,,,,,,9,0,9,0,1
