IP_Addresss,target_onset,trial_resp_sp.keys,trial_resp_sp.corr,trial_resp_sp.rt,trials_train_loop.thisRepN,trials_train_loop.thisTrialN,trials_train_loop.thisN,trials_train_loop.thisIndex,trials_train_loop.ran,correct_key,color,participant,date,expName,psychopyVersion,OS,frameRate,trial_resp_timing.keys,trial_resp_timing.rt,trials_train_timing.thisRepN,trials_train_timing.thisTrialN,trials_train_timing.thisN,trials_train_timing.thisIndex,trials_train_timing.ran,block_id,ontime,feedback_cond,forcedRT_resp.keys,forcedRT_resp.corr,forcedRT_resp.rt,trials.thisRepN,trials.thisTrialN,trials.thisN,trials.thisIndex,trials.ran,blocks.thisRepN,blocks.thisTrialN,blocks.thisN,blocks.thisIndex,blocks.ran
173.72.207.227,0,k,1,1.6641,0,0,0,3,1,k,purple,59fdb129728b1b0001ad871d,2021-09-27_13h56.12.825,forced_choiceRT_color,2021.2.3,Win32,60.12506013,,,,,,,,,,,,,,,,,,,,,,,
,0,k,1,0.6581,0,1,1,3,1,k,purple,59fdb129728b1b0001ad871d,2021-09-27_13h56.12.825,forced_choiceRT_color,2021.2.3,Win32,60.12506013,,,,,,,,,,,,,,,,,,,,,,,
,0,d,1,1.1065,0,2,2,0,1,d,orange,59fdb129728b1b0001ad871d,2021-09-27_13h56.12.825,forced_choiceRT_color,2021.2.3,Win32,60.12506013,,,,,,,,,,,,,,,,,,,,,,,
,0,d,1,0.6681,0,3,3,0,1,d,orange,59fdb129728b1b0001ad871d,2021-09-27_13h56.12.825,forced_choiceRT_color,2021.2.3,Win32,60.12506013,,,,,,,,,,,,,,,,,,,,,,,
,0,j,1,0.9541,1,0,4,2,1,j,red,59fdb129728b1b0001ad871d,2021-09-27_13h56.12.825,forced_choiceRT_color,2021.2.3,Win32,60.12506013,,,,,,,,,,,,,,,,,,,,,,,
,0,d,1,0.7176,1,1,5,0,1,d,orange,59fdb129728b1b0001ad871d,2021-09-27_13h56.12.825,forced_choiceRT_color,2021.2.3,Win32,60.12506013,,,,,,,,,,,,,,,,,,,,,,,
,0,k,1,1.03,1,2,6,3,1,k,purple,59fdb129728b1b0001ad871d,2021-09-27_13h56.12.825,forced_choiceRT_color,2021.2.3,Win32,60.12506013,,,,,,,,,,,,,,,,,,,,,,,
,0,d,1,0.7163,1,3,7,0,1,d,orange,59fdb129728b1b0001ad871d,2021-09-27_13h56.12.825,forced_choiceRT_color,2021.2.3,Win32,60.12506013,,,,,,,,,,,,,,,,,,,,,,,
,0,k,1,0.8051,2,0,8,3,1,k,purple,59fdb129728b1b0001ad871d,2021-09-27_13h56.12.825,forced_choiceRT_color,2021.2.3,Win32,60.12506013,,,,,,,,,,,,,,,,,,,,,,,
,0,f,1,0.5866,2,1,9,1,1,f,blue,59fdb129728b1b0001ad871d,2021-09-27_13h56.12.825,forced_choiceRT_color,2021.2.3,Win32,60.12506013,,,,,,,,,,,,,,,,,,,,,,,
,0,f,1,0.4844,2,2,10,1,1,f,blue,59fdb129728b1b0001ad871d,2021-09-27_13h56.12.825,forced_choiceRT_color,2021.2.3,Win32,60.12506013,,,,,,,,,,,,,,,,,,,,,,,
,0,k,1,0.8915,2,3,11,3,1,k,purple,59fdb129728b1b0001ad871d,2021-09-27_13h56.12.825,forced_choiceRT_color,2021.2.3,Win32,60.12506013,,,,,,,,,,,,,,,,,,,,,,,
,0,j,1,0.5231,3,0,12,2,1,j,red,59fdb129728b1b0001ad871d,2021-09-27_13h56.12.825,forced_choiceRT_color,2021.2.3,Win32,60.12506013,,,,,,,,,,,,,,,,,,,,,,,
,0,k,1,0.995,3,1,13,3,1,k,purple,59fdb129728b1b0001ad871d,2021-09-27_13h56.12.825,forced_choiceRT_color,2021.2.3,Win32,60.12506013,,,,,,,,,,,,,,,,,,,,,,,
,0,d,1,0.8655,3,2,14,0,1,d,orange,59fdb129728b1b0001ad871d,2021-09-27_13h56.12.825,forced_choiceRT_color,2021.2.3,Win32,60.12506013,,,,,,,,,,,,,,,,,,,,,,,
,0,f,1,0.6349,3,3,15,1,1,f,blue,59fdb129728b1b0001ad871d,2021-09-27_13h56.12.825,forced_choiceRT_color,2021.2.3,Win32,60.12506013,,,,,,,,,,,,,,,,,,,,,,,
,0,k,1,0.8316,4,0,16,3,1,k,purple,59fdb129728b1b0001ad871d,2021-09-27_13h56.12.825,forced_choiceRT_color,2021.2.3,Win32,60.12506013,,,,,,,,,,,,,,,,,,,,,,,
,0,j,1,0.7047,4,1,17,2,1,j,red,59fdb129728b1b0001ad871d,2021-09-27_13h56.12.825,forced_choiceRT_color,2021.2.3,Win32,60.12506013,,,,,,,,,,,,,,,,,,,,,,,
,0,j,1,0.6348,4,2,18,2,1,j,red,59fdb129728b1b0001ad871d,2021-09-27_13h56.12.825,forced_choiceRT_color,2021.2.3,Win32,60.12506013,,,,,,,,,,,,,,,,,,,,,,,
,0,d,1,0.6686,4,3,19,0,1,d,orange,59fdb129728b1b0001ad871d,2021-09-27_13h56.12.825,forced_choiceRT_color,2021.2.3,Win32,60.12506013,,,,,,,,,,,,,,,,,,,,,,,
,0,j,1,0.6896,5,0,20,2,1,j,red,59fdb129728b1b0001ad871d,2021-09-27_13h56.12.825,forced_choiceRT_color,2021.2.3,Win32,60.12506013,,,,,,,,,,,,,,,,,,,,,,,
,0,f,1,0.785,5,1,21,1,1,f,blue,59fdb129728b1b0001ad871d,2021-09-27_13h56.12.825,forced_choiceRT_color,2021.2.3,Win32,60.12506013,,,,,,,,,,,,,,,,,,,,,,,
,0,j,1,0.6901,5,2,22,2,1,j,red,59fdb129728b1b0001ad871d,2021-09-27_13h56.12.825,forced_choiceRT_color,2021.2.3,Win32,60.12506013,,,,,,,,,,,,,,,,,,,,,,,
,0,j,1,0.5679,5,3,23,2,1,j,red,59fdb129728b1b0001ad871d,2021-09-27_13h56.12.825,forced_choiceRT_color,2021.2.3,Win32,60.12506013,,,,,,,,,,,,,,,,,,,,,,,
,0,k,1,0.7962,6,0,24,3,1,k,purple,59fdb129728b1b0001ad871d,2021-09-27_13h56.12.825,forced_choiceRT_color,2021.2.3,Win32,60.12506013,,,,,,,,,,,,,,,,,,,,,,,
,0,d,1,0.8904,6,1,25,0,1,d,orange,59fdb129728b1b0001ad871d,2021-09-27_13h56.12.825,forced_choiceRT_color,2021.2.3,Win32,60.12506013,,,,,,,,,,,,,,,,,,,,,,,
,0,f,1,1.1337,6,2,26,1,1,f,blue,59fdb129728b1b0001ad871d,2021-09-27_13h56.12.825,forced_choiceRT_color,2021.2.3,Win32,60.12506013,,,,,,,,,,,,,,,,,,,,,,,
,0,j,1,1.7183,6,3,27,2,1,j,red,59fdb129728b1b0001ad871d,2021-09-27_13h56.12.825,forced_choiceRT_color,2021.2.3,Win32,60.12506013,,,,,,,,,,,,,,,,,,,,,,,
,0,k,1,0.8084,7,0,28,3,1,k,purple,59fdb129728b1b0001ad871d,2021-09-27_13h56.12.825,forced_choiceRT_color,2021.2.3,Win32,60.12506013,,,,,,,,,,,,,,,,,,,,,,,
,0,f,1,1.0126,7,1,29,1,1,f,blue,59fdb129728b1b0001ad871d,2021-09-27_13h56.12.825,forced_choiceRT_color,2021.2.3,Win32,60.12506013,,,,,,,,,,,,,,,,,,,,,,,
,0,d,1,0.8469,7,2,30,0,1,d,orange,59fdb129728b1b0001ad871d,2021-09-27_13h56.12.825,forced_choiceRT_color,2021.2.3,Win32,60.12506013,,,,,,,,,,,,,,,,,,,,,,,
,0,f,1,1.5633,7,3,31,1,1,f,blue,59fdb129728b1b0001ad871d,2021-09-27_13h56.12.825,forced_choiceRT_color,2021.2.3,Win32,60.12506013,,,,,,,,,,,,,,,,,,,,,,,
,0,j,1,0.786,8,0,32,2,1,j,red,59fdb129728b1b0001ad871d,2021-09-27_13h56.12.825,forced_choiceRT_color,2021.2.3,Win32,60.12506013,,,,,,,,,,,,,,,,,,,,,,,
,0,j,1,0.9103,8,1,33,2,1,j,red,59fdb129728b1b0001ad871d,2021-09-27_13h56.12.825,forced_choiceRT_color,2021.2.3,Win32,60.12506013,,,,,,,,,,,,,,,,,,,,,,,
,0,j,1,0.8865,8,2,34,2,1,j,red,59fdb129728b1b0001ad871d,2021-09-27_13h56.12.825,forced_choiceRT_color,2021.2.3,Win32,60.12506013,,,,,,,,,,,,,,,,,,,,,,,
,0,k,1,1.0283,8,3,35,3,1,k,purple,59fdb129728b1b0001ad871d,2021-09-27_13h56.12.825,forced_choiceRT_color,2021.2.3,Win32,60.12506013,,,,,,,,,,,,,,,,,,,,,,,
,0,f,1,1.537,9,0,36,1,1,f,blue,59fdb129728b1b0001ad871d,2021-09-27_13h56.12.825,forced_choiceRT_color,2021.2.3,Win32,60.12506013,,,,,,,,,,,,,,,,,,,,,,,
,0,k,1,1.2437,9,1,37,3,1,k,purple,59fdb129728b1b0001ad871d,2021-09-27_13h56.12.825,forced_choiceRT_color,2021.2.3,Win32,60.12506013,,,,,,,,,,,,,,,,,,,,,,,
,0,d,1,1.2021,9,2,38,0,1,d,orange,59fdb129728b1b0001ad871d,2021-09-27_13h56.12.825,forced_choiceRT_color,2021.2.3,Win32,60.12506013,,,,,,,,,,,,,,,,,,,,,,,
,0,f,1,1.036,9,3,39,1,1,f,blue,59fdb129728b1b0001ad871d,2021-09-27_13h56.12.825,forced_choiceRT_color,2021.2.3,Win32,60.12506013,,,,,,,,,,,,,,,,,,,,,,,
,0,j,1,0.9338,10,0,40,2,1,j,red,59fdb129728b1b0001ad871d,2021-09-27_13h56.12.825,forced_choiceRT_color,2021.2.3,Win32,60.12506013,,,,,,,,,,,,,,,,,,,,,,,
,0,d,1,0.6866,10,1,41,0,1,d,orange,59fdb129728b1b0001ad871d,2021-09-27_13h56.12.825,forced_choiceRT_color,2021.2.3,Win32,60.12506013,,,,,,,,,,,,,,,,,,,,,,,
,0,k,1,1.0407,10,2,42,3,1,k,purple,59fdb129728b1b0001ad871d,2021-09-27_13h56.12.825,forced_choiceRT_color,2021.2.3,Win32,60.12506013,,,,,,,,,,,,,,,,,,,,,,,
,0,d,1,0.7393,10,3,43,0,1,d,orange,59fdb129728b1b0001ad871d,2021-09-27_13h56.12.825,forced_choiceRT_color,2021.2.3,Win32,60.12506013,,,,,,,,,,,,,,,,,,,,,,,
,0,f,1,0.668,11,0,44,1,1,f,blue,59fdb129728b1b0001ad871d,2021-09-27_13h56.12.825,forced_choiceRT_color,2021.2.3,Win32,60.12506013,,,,,,,,,,,,,,,,,,,,,,,
,0,f,1,0.584,11,1,45,1,1,f,blue,59fdb129728b1b0001ad871d,2021-09-27_13h56.12.825,forced_choiceRT_color,2021.2.3,Win32,60.12506013,,,,,,,,,,,,,,,,,,,,,,,
,0,k,1,0.8299,11,2,46,3,1,k,purple,59fdb129728b1b0001ad871d,2021-09-27_13h56.12.825,forced_choiceRT_color,2021.2.3,Win32,60.12506013,,,,,,,,,,,,,,,,,,,,,,,
,0,d,1,0.7345,11,3,47,0,1,d,orange,59fdb129728b1b0001ad871d,2021-09-27_13h56.12.825,forced_choiceRT_color,2021.2.3,Win32,60.12506013,,,,,,,,,,,,,,,,,,,,,,,
,0,d,1,0.522,12,0,48,0,1,d,orange,59fdb129728b1b0001ad871d,2021-09-27_13h56.12.825,forced_choiceRT_color,2021.2.3,Win32,60.12506013,,,,,,,,,,,,,,,,,,,,,,,
,0,f,1,0.6852,12,1,49,1,1,f,blue,59fdb129728b1b0001ad871d,2021-09-27_13h56.12.825,forced_choiceRT_color,2021.2.3,Win32,60.12506013,,,,,,,,,,,,,,,,,,,,,,,
,0,d,1,0.7445,12,2,50,0,1,d,orange,59fdb129728b1b0001ad871d,2021-09-27_13h56.12.825,forced_choiceRT_color,2021.2.3,Win32,60.12506013,,,,,,,,,,,,,,,,,,,,,,,
,0,k,0,0.8591,12,3,51,2,1,j,red,59fdb129728b1b0001ad871d,2021-09-27_13h56.12.825,forced_choiceRT_color,2021.2.3,Win32,60.12506013,,,,,,,,,,,,,,,,,,,,,,,
,0,f,1,0.9612,13,0,52,1,1,f,blue,59fdb129728b1b0001ad871d,2021-09-27_13h56.12.825,forced_choiceRT_color,2021.2.3,Win32,60.12506013,,,,,,,,,,,,,,,,,,,,,,,
,0,k,1,1.4018,13,1,53,3,1,k,purple,59fdb129728b1b0001ad871d,2021-09-27_13h56.12.825,forced_choiceRT_color,2021.2.3,Win32,60.12506013,,,,,,,,,,,,,,,,,,,,,,,
,0,k,1,0.6675,13,2,54,3,1,k,purple,59fdb129728b1b0001ad871d,2021-09-27_13h56.12.825,forced_choiceRT_color,2021.2.3,Win32,60.12506013,,,,,,,,,,,,,,,,,,,,,,,
,0,d,1,0.7526,13,3,55,0,1,d,orange,59fdb129728b1b0001ad871d,2021-09-27_13h56.12.825,forced_choiceRT_color,2021.2.3,Win32,60.12506013,,,,,,,,,,,,,,,,,,,,,,,
,0,f,1,0.7522,14,0,56,1,1,f,blue,59fdb129728b1b0001ad871d,2021-09-27_13h56.12.825,forced_choiceRT_color,2021.2.3,Win32,60.12506013,,,,,,,,,,,,,,,,,,,,,,,
,0,j,1,1.1012,14,1,57,2,1,j,red,59fdb129728b1b0001ad871d,2021-09-27_13h56.12.825,forced_choiceRT_color,2021.2.3,Win32,60.12506013,,,,,,,,,,,,,,,,,,,,,,,
,0,j,1,0.7667,14,2,58,2,1,j,red,59fdb129728b1b0001ad871d,2021-09-27_13h56.12.825,forced_choiceRT_color,2021.2.3,Win32,60.12506013,,,,,,,,,,,,,,,,,,,,,,,
,0,f,1,1.2765,14,3,59,1,1,f,blue,59fdb129728b1b0001ad871d,2021-09-27_13h56.12.825,forced_choiceRT_color,2021.2.3,Win32,60.12506013,,,,,,,,,,,,,,,,,,,,,,,
,,,,,,,,,,,,59fdb129728b1b0001ad871d,2021-09-27_13h56.12.825,forced_choiceRT_color,2021.2.3,Win32,60.12506013,k,1.9084,0,0,0,0,1,,,,,,,,,,,,,,,,
,,,,,,,,,,,,59fdb129728b1b0001ad871d,2021-09-27_13h56.12.825,forced_choiceRT_color,2021.2.3,Win32,60.12506013,k,2.0361,1,0,1,0,1,,,,,,,,,,,,,,,,
,,,,,,,,,,,,59fdb129728b1b0001ad871d,2021-09-27_13h56.12.825,forced_choiceRT_color,2021.2.3,Win32,60.12506013,k,2.3343,2,0,2,0,1,,,,,,,,,,,,,,,,
,,,,,,,,,,,,59fdb129728b1b0001ad871d,2021-09-27_13h56.12.825,forced_choiceRT_color,2021.2.3,Win32,60.12506013,f,1.9955,3,0,3,0,1,,,,,,,,,,,,,,,,
,,,,,,,,,,,,59fdb129728b1b0001ad871d,2021-09-27_13h56.12.825,forced_choiceRT_color,2021.2.3,Win32,60.12506013,f,2.0661,4,0,4,0,1,,,,,,,,,,,,,,,,
,,,,,,,,,,,,59fdb129728b1b0001ad871d,2021-09-27_13h56.12.825,forced_choiceRT_color,2021.2.3,Win32,60.12506013,f,2.0467,5,0,5,0,1,,,,,,,,,,,,,,,,
,,,,,,,,,,,,59fdb129728b1b0001ad871d,2021-09-27_13h56.12.825,forced_choiceRT_color,2021.2.3,Win32,60.12506013,f,2.0967,6,0,6,0,1,,,,,,,,,,,,,,,,
,,,,,,,,,,,,59fdb129728b1b0001ad871d,2021-09-27_13h56.12.825,forced_choiceRT_color,2021.2.3,Win32,60.12506013,f,1.9356,7,0,7,0,1,,,,,,,,,,,,,,,,
,,,,,,,,,,,,59fdb129728b1b0001ad871d,2021-09-27_13h56.12.825,forced_choiceRT_color,2021.2.3,Win32,60.12506013,d,1.5877,8,0,8,0,1,,,,,,,,,,,,,,,,
,,,,,,,,,,,,59fdb129728b1b0001ad871d,2021-09-27_13h56.12.825,forced_choiceRT_color,2021.2.3,Win32,60.12506013,d,1.8757,9,0,9,0,1,,,,,,,,,,,,,,,,
,,,,,,,,,,,,59fdb129728b1b0001ad871d,2021-09-27_13h56.12.825,forced_choiceRT_color,2021.2.3,Win32,60.12506013,d,1.9328,10,0,10,0,1,,,,,,,,,,,,,,,,
,,,,,,,,,,,,59fdb129728b1b0001ad871d,2021-09-27_13h56.12.825,forced_choiceRT_color,2021.2.3,Win32,60.12506013,d,1.7813,11,0,11,0,1,,,,,,,,,,,,,,,,
,,,,,,,,,,,,59fdb129728b1b0001ad871d,2021-09-27_13h56.12.825,forced_choiceRT_color,2021.2.3,Win32,60.12506013,d,2.1541,12,0,12,0,1,,,,,,,,,,,,,,,,
,,,,,,,,,,,,59fdb129728b1b0001ad871d,2021-09-27_13h56.12.825,forced_choiceRT_color,2021.2.3,Win32,60.12506013,k,2.151,13,0,13,0,1,,,,,,,,,,,,,,,,
,,,,,,,,,,,,59fdb129728b1b0001ad871d,2021-09-27_13h56.12.825,forced_choiceRT_color,2021.2.3,Win32,60.12506013,k,1.9522,14,0,14,0,1,,,,,,,,,,,,,,,,
,,,,,,,,,,,,59fdb129728b1b0001ad871d,2021-09-27_13h56.12.825,forced_choiceRT_color,2021.2.3,Win32,60.12506013,k,1.9222,15,0,15,0,1,,,,,,,,,,,,,,,,
,,,,,,,,,,,,59fdb129728b1b0001ad871d,2021-09-27_13h56.12.825,forced_choiceRT_color,2021.2.3,Win32,60.12506013,k,2.0644,16,0,16,0,1,,,,,,,,,,,,,,,,
,,,,,,,,,,,,59fdb129728b1b0001ad871d,2021-09-27_13h56.12.825,forced_choiceRT_color,2021.2.3,Win32,60.12506013,k,2.099,17,0,17,0,1,,,,,,,,,,,,,,,,
,,,,,,,,,,,,59fdb129728b1b0001ad871d,2021-09-27_13h56.12.825,forced_choiceRT_color,2021.2.3,Win32,60.12506013,k,2.2037,18,0,18,0,1,,,,,,,,,,,,,,,,
,,,,,,,,,,,,59fdb129728b1b0001ad871d,2021-09-27_13h56.12.825,forced_choiceRT_color,2021.2.3,Win32,60.12506013,k,1.9857,19,0,19,0,1,,,,,,,,,,,,,,,,
,1.2,,,,,,,,,k,purple,59fdb129728b1b0001ad871d,2021-09-27_13h56.12.825,forced_choiceRT_color,2021.2.3,Win32,60.12506013,,,,,,,,1,Slow,short,k,1,3.3249,0,0,0,3,1,,,,,
,1.18,,,,,,,,,j,red,59fdb129728b1b0001ad871d,2021-09-27_13h56.12.825,forced_choiceRT_color,2021.2.3,Win32,60.12506013,,,,,,,,1,Ontime,short,j,1,1.9918,0,1,1,2,1,,,,,
,0.81,,,,,,,,,d,orange,59fdb129728b1b0001ad871d,2021-09-27_13h56.12.825,forced_choiceRT_color,2021.2.3,Win32,60.12506013,,,,,,,,1,Fast,short,d,1,1.592,0,2,2,0,1,,,,,
,0.12,,,,,,,,,k,purple,59fdb129728b1b0001ad871d,2021-09-27_13h56.12.825,forced_choiceRT_color,2021.2.3,Win32,60.12506013,,,,,,,,1,Fast,short,k,1,1.8617,0,3,3,3,1,,,,,
,1.86,,,,,,,,,k,purple,59fdb129728b1b0001ad871d,2021-09-27_13h56.12.825,forced_choiceRT_color,2021.2.3,Win32,60.12506013,,,,,,,,1,Slow,short,k,1,2.3729,1,0,4,3,1,,,,,
,1.64,,,,,,,,,d,orange,59fdb129728b1b0001ad871d,2021-09-27_13h56.12.825,forced_choiceRT_color,2021.2.3,Win32,60.12506013,,,,,,,,1,Slow,short,d,1,2.3093,1,1,5,0,1,,,,,
,0.71,,,,,,,,,d,orange,59fdb129728b1b0001ad871d,2021-09-27_13h56.12.825,forced_choiceRT_color,2021.2.3,Win32,60.12506013,,,,,,,,1,Fast,short,d,1,1.405,1,2,6,0,1,,,,,
,1.4,,,,,,,,,d,orange,59fdb129728b1b0001ad871d,2021-09-27_13h56.12.825,forced_choiceRT_color,2021.2.3,Win32,60.12506013,,,,,,,,1,Fast,short,f,0,1.8259,1,3,7,0,1,,,,,
,1.06,,,,,,,,,f,blue,59fdb129728b1b0001ad871d,2021-09-27_13h56.12.825,forced_choiceRT_color,2021.2.3,Win32,60.12506013,,,,,,,,1,Fast,short,f,1,1.8088,2,0,8,1,1,,,,,
,1.14,,,,,,,,,d,orange,59fdb129728b1b0001ad871d,2021-09-27_13h56.12.825,forced_choiceRT_color,2021.2.3,Win32,60.12506013,,,,,,,,1,Fast,short,d,1,1.781,2,1,9,0,1,,,,,
,1.79,,,,,,,,,k,purple,59fdb129728b1b0001ad871d,2021-09-27_13h56.12.825,forced_choiceRT_color,2021.2.3,Win32,60.12506013,,,,,,,,1,Slow,short,k,1,2.5006,2,2,10,3,1,,,,,
,0.29,,,,,,,,,j,red,59fdb129728b1b0001ad871d,2021-09-27_13h56.12.825,forced_choiceRT_color,2021.2.3,Win32,60.12506013,,,,,,,,1,Fast,short,j,1,0.8515,2,3,11,2,1,,,,,
,1.07,,,,,,,,,k,purple,59fdb129728b1b0001ad871d,2021-09-27_13h56.12.825,forced_choiceRT_color,2021.2.3,Win32,60.12506013,,,,,,,,1,Slow,short,k,1,2.1181,3,0,12,3,1,,,,,
,0.17,,,,,,,,,d,orange,59fdb129728b1b0001ad871d,2021-09-27_13h56.12.825,forced_choiceRT_color,2021.2.3,Win32,60.12506013,,,,,,,,1,Fast,short,d,1,1.2032,3,1,13,0,1,,,,,
,0.7,,,,,,,,,k,purple,59fdb129728b1b0001ad871d,2021-09-27_13h56.12.825,forced_choiceRT_color,2021.2.3,Win32,60.12506013,,,,,,,,1,Ontime,short,k,1,1.9804,3,2,14,3,1,,,,,
,1.62,,,,,,,,,k,purple,59fdb129728b1b0001ad871d,2021-09-27_13h56.12.825,forced_choiceRT_color,2021.2.3,Win32,60.12506013,,,,,,,,1,Slow,short,k,1,2.2204,3,3,15,3,1,,,,,
,0.84,,,,,,,,,k,purple,59fdb129728b1b0001ad871d,2021-09-27_13h56.12.825,forced_choiceRT_color,2021.2.3,Win32,60.12506013,,,,,,,,1,Fast,short,k,1,1.3734,4,0,16,3,1,,,,,
,0.3,,,,,,,,,j,red,59fdb129728b1b0001ad871d,2021-09-27_13h56.12.825,forced_choiceRT_color,2021.2.3,Win32,60.12506013,,,,,,,,1,Fast,short,j,1,1.6392,4,1,17,2,1,,,,,
,0.38,,,,,,,,,d,orange,59fdb129728b1b0001ad871d,2021-09-27_13h56.12.825,forced_choiceRT_color,2021.2.3,Win32,60.12506013,,,,,,,,1,Slow,short,d,1,2.1235,4,2,18,0,1,,,,,
,0.91,,,,,,,,,j,red,59fdb129728b1b0001ad871d,2021-09-27_13h56.12.825,forced_choiceRT_color,2021.2.3,Win32,60.12506013,,,,,,,,1,Ontime,short,j,1,2.0598,4,3,19,2,1,,,,,
,1.7,,,,,,,,,k,purple,59fdb129728b1b0001ad871d,2021-09-27_13h56.12.825,forced_choiceRT_color,2021.2.3,Win32,60.12506013,,,,,,,,1,Slow,short,k,1,2.3104,5,0,20,3,1,,,,,
,1.73,,,,,,,,,j,red,59fdb129728b1b0001ad871d,2021-09-27_13h56.12.825,forced_choiceRT_color,2021.2.3,Win32,60.12506013,,,,,,,,1,Slow,short,j,1,2.4531,5,1,21,2,1,,,,,
,1.48,,,,,,,,,j,red,59fdb129728b1b0001ad871d,2021-09-27_13h56.12.825,forced_choiceRT_color,2021.2.3,Win32,60.12506013,,,,,,,,1,Ontime,short,j,1,2.0596,5,2,22,2,1,,,,,
,0.5,,,,,,,,,f,blue,59fdb129728b1b0001ad871d,2021-09-27_13h56.12.825,forced_choiceRT_color,2021.2.3,Win32,60.12506013,,,,,,,,1,Fast,short,f,1,1.3686,5,3,23,1,1,,,,,
,0.63,,,,,,,,,f,blue,59fdb129728b1b0001ad871d,2021-09-27_13h56.12.825,forced_choiceRT_color,2021.2.3,Win32,60.12506013,,,,,,,,1,Slow,short,f,1,2.1685,6,0,24,1,1,,,,,
,0.57,,,,,,,,,f,blue,59fdb129728b1b0001ad871d,2021-09-27_13h56.12.825,forced_choiceRT_color,2021.2.3,Win32,60.12506013,,,,,,,,1,Fast,short,f,1,1.7861,6,1,25,1,1,,,,,
,1.23,,,,,,,,,f,blue,59fdb129728b1b0001ad871d,2021-09-27_13h56.12.825,forced_choiceRT_color,2021.2.3,Win32,60.12506013,,,,,,,,1,Fast,short,f,1,1.851,6,2,26,1,1,,,,,
,1.27,,,,,,,,,j,red,59fdb129728b1b0001ad871d,2021-09-27_13h56.12.825,forced_choiceRT_color,2021.2.3,Win32,60.12506013,,,,,,,,1,Slow,short,j,1,2.336,6,3,27,2,1,,,,,
,1.84,,,,,,,,,j,red,59fdb129728b1b0001ad871d,2021-09-27_13h56.12.825,forced_choiceRT_color,2021.2.3,Win32,60.12506013,,,,,,,,1,Slow,short,j,1,2.4154,7,0,28,2,1,,,,,
,1.87,,,,,,,,,k,purple,59fdb129728b1b0001ad871d,2021-09-27_13h56.12.825,forced_choiceRT_color,2021.2.3,Win32,60.12506013,,,,,,,,1,Slow,short,j,0,2.4008,7,1,29,3,1,,,,,
,1.37,,,,,,,,,f,blue,59fdb129728b1b0001ad871d,2021-09-27_13h56.12.825,forced_choiceRT_color,2021.2.3,Win32,60.12506013,,,,,,,,1,Slow,short,f,1,2.1512,7,2,30,1,1,,,,,
,0.06,,,,,,,,,j,red,59fdb129728b1b0001ad871d,2021-09-27_13h56.12.825,forced_choiceRT_color,2021.2.3,Win32,60.12506013,,,,,,,,1,Ontime,short,j,1,2.0096,7,3,31,2,1,,,,,
,1.26,,,,,,,,,f,blue,59fdb129728b1b0001ad871d,2021-09-27_13h56.12.825,forced_choiceRT_color,2021.2.3,Win32,60.12506013,,,,,,,,1,Slow,short,f,1,2.2015,8,0,32,1,1,,,,,
,0.27,,,,,,,,,f,blue,59fdb129728b1b0001ad871d,2021-09-27_13h56.12.825,forced_choiceRT_color,2021.2.3,Win32,60.12506013,,,,,,,,1,Ontime,short,f,1,1.9925,8,1,33,1,1,,,,,
,1.32,,,,,,,,,d,orange,59fdb129728b1b0001ad871d,2021-09-27_13h56.12.825,forced_choiceRT_color,2021.2.3,Win32,60.12506013,,,,,,,,1,Fast,short,d,1,1.885,8,2,34,0,1,,,,,
,0.07,,,,,,,,,j,red,59fdb129728b1b0001ad871d,2021-09-27_13h56.12.825,forced_choiceRT_color,2021.2.3,Win32,60.12506013,,,,,,,,1,Ontime,short,j,1,2.0305,8,3,35,2,1,,,,,
,1.23,,,,,,,,,f,blue,59fdb129728b1b0001ad871d,2021-09-27_13h56.12.825,forced_choiceRT_color,2021.2.3,Win32,60.12506013,,,,,,,,1,Slow,short,f,1,2.1205,9,0,36,1,1,,,,,
,0.77,,,,,,,,,f,blue,59fdb129728b1b0001ad871d,2021-09-27_13h56.12.825,forced_choiceRT_color,2021.2.3,Win32,60.12506013,,,,,,,,1,Ontime,short,f,1,2.061,9,1,37,1,1,,,,,
,0.86,,,,,,,,,d,orange,59fdb129728b1b0001ad871d,2021-09-27_13h56.12.825,forced_choiceRT_color,2021.2.3,Win32,60.12506013,,,,,,,,1,Slow,short,d,1,2.2521,9,2,38,0,1,,,,,
,0.04,,,,,,,,,d,orange,59fdb129728b1b0001ad871d,2021-09-27_13h56.12.825,forced_choiceRT_color,2021.2.3,Win32,60.12506013,,,,,,,,1,Ontime,short,d,1,2.0072,9,3,39,0,1,,,,,
,,,,,,,,,,,,59fdb129728b1b0001ad871d,2021-09-27_13h56.12.825,forced_choiceRT_color,2021.2.3,Win32,60.12506013,,,,,,,,,,,,,,,,,,,0,0,0,0,1
,1.42,,,,,,,,,f,blue,59fdb129728b1b0001ad871d,2021-09-27_13h56.12.825,forced_choiceRT_color,2021.2.3,Win32,60.12506013,,,,,,,,2,Slow,short,f,1,2.1991,0,0,0,1,1,,,,,
,0.5,,,,,,,,,f,blue,59fdb129728b1b0001ad871d,2021-09-27_13h56.12.825,forced_choiceRT_color,2021.2.3,Win32,60.12506013,,,,,,,,2,Ontime,short,f,1,2.0855,0,1,1,1,1,,,,,
,1.23,,,,,,,,,j,red,59fdb129728b1b0001ad871d,2021-09-27_13h56.12.825,forced_choiceRT_color,2021.2.3,Win32,60.12506013,,,,,,,,2,Ontime,short,j,1,2.0565,0,2,2,2,1,,,,,
,1.31,,,,,,,,,j,red,59fdb129728b1b0001ad871d,2021-09-27_13h56.12.825,forced_choiceRT_color,2021.2.3,Win32,60.12506013,,,,,,,,2,Slow,short,j,1,2.3028,0,3,3,2,1,,,,,
,1.28,,,,,,,,,f,blue,59fdb129728b1b0001ad871d,2021-09-27_13h56.12.825,forced_choiceRT_color,2021.2.3,Win32,60.12506013,,,,,,,,2,Ontime,short,f,1,1.9424,1,0,4,1,1,,,,,
,1.79,,,,,,,,,j,red,59fdb129728b1b0001ad871d,2021-09-27_13h56.12.825,forced_choiceRT_color,2021.2.3,Win32,60.12506013,,,,,,,,2,Slow,short,j,1,2.6266,1,1,5,2,1,,,,,
,1.87,,,,,,,,,k,purple,59fdb129728b1b0001ad871d,2021-09-27_13h56.12.825,forced_choiceRT_color,2021.2.3,Win32,60.12506013,,,,,,,,2,Fast,short,j,0,1.8176,1,2,6,3,1,,,,,
,0.97,,,,,,,,,k,purple,59fdb129728b1b0001ad871d,2021-09-27_13h56.12.825,forced_choiceRT_color,2021.2.3,Win32,60.12506013,,,,,,,,2,Ontime,short,k,1,1.9358,1,3,7,3,1,,,,,
,0.88,,,,,,,,,k,purple,59fdb129728b1b0001ad871d,2021-09-27_13h56.12.825,forced_choiceRT_color,2021.2.3,Win32,60.12506013,,,,,,,,2,Fast,short,k,1,1.8681,2,0,8,3,1,,,,,
,0.78,,,,,,,,,j,red,59fdb129728b1b0001ad871d,2021-09-27_13h56.12.825,forced_choiceRT_color,2021.2.3,Win32,60.12506013,,,,,,,,2,Fast,short,j,1,1.7346,2,1,9,2,1,,,,,
,0.72,,,,,,,,,d,orange,59fdb129728b1b0001ad871d,2021-09-27_13h56.12.825,forced_choiceRT_color,2021.2.3,Win32,60.12506013,,,,,,,,2,Fast,short,d,1,1.5663,2,2,10,0,1,,,,,
,1.21,,,,,,,,,f,blue,59fdb129728b1b0001ad871d,2021-09-27_13h56.12.825,forced_choiceRT_color,2021.2.3,Win32,60.12506013,,,,,,,,2,Ontime,short,f,1,1.9753,2,3,11,1,1,,,,,
,1.17,,,,,,,,,f,blue,59fdb129728b1b0001ad871d,2021-09-27_13h56.12.825,forced_choiceRT_color,2021.2.3,Win32,60.12506013,,,,,,,,2,Fast,short,f,1,1.8606,3,0,12,1,1,,,,,
,0.52,,,,,,,,,k,purple,59fdb129728b1b0001ad871d,2021-09-27_13h56.12.825,forced_choiceRT_color,2021.2.3,Win32,60.12506013,,,,,,,,2,Ontime,short,k,1,2.0551,3,1,13,3,1,,,,,
,0.42,,,,,,,,,d,orange,59fdb129728b1b0001ad871d,2021-09-27_13h56.12.825,forced_choiceRT_color,2021.2.3,Win32,60.12506013,,,,,,,,2,Slow,short,d,1,2.2432,3,2,14,0,1,,,,,
,0.03,,,,,,,,,k,purple,59fdb129728b1b0001ad871d,2021-09-27_13h56.12.825,forced_choiceRT_color,2021.2.3,Win32,60.12506013,,,,,,,,2,Slow,short,k,1,2.1329,3,3,15,3,1,,,,,
,1.72,,,,,,,,,f,blue,59fdb129728b1b0001ad871d,2021-09-27_13h56.12.825,forced_choiceRT_color,2021.2.3,Win32,60.12506013,,,,,,,,2,Slow,short,f,1,2.2777,4,0,16,1,1,,,,,
,0.73,,,,,,,,,f,blue,59fdb129728b1b0001ad871d,2021-09-27_13h56.12.825,forced_choiceRT_color,2021.2.3,Win32,60.12506013,,,,,,,,2,Fast,short,f,1,1.2596,4,1,17,1,1,,,,,
,0.16,,,,,,,,,f,blue,59fdb129728b1b0001ad871d,2021-09-27_13h56.12.825,forced_choiceRT_color,2021.2.3,Win32,60.12506013,,,,,,,,2,Ontime,short,f,1,2.0347,4,2,18,1,1,,,,,
,1.9,,,,,,,,,j,red,59fdb129728b1b0001ad871d,2021-09-27_13h56.12.825,forced_choiceRT_color,2021.2.3,Win32,60.12506013,,,,,,,,2,Slow,short,j,1,2.536,4,3,19,2,1,,,,,
,1.2,,,,,,,,,k,purple,59fdb129728b1b0001ad871d,2021-09-27_13h56.12.825,forced_choiceRT_color,2021.2.3,Win32,60.12506013,,,,,,,,2,Fast,short,k,1,1.8844,5,0,20,3,1,,,,,
,0.29,,,,,,,,,j,red,59fdb129728b1b0001ad871d,2021-09-27_13h56.12.825,forced_choiceRT_color,2021.2.3,Win32,60.12506013,,,,,,,,2,Ontime,short,j,1,2.0634,5,1,21,2,1,,,,,
,1.73,,,,,,,,,d,orange,59fdb129728b1b0001ad871d,2021-09-27_13h56.12.825,forced_choiceRT_color,2021.2.3,Win32,60.12506013,,,,,,,,2,Slow,short,d,1,2.4345,5,2,22,0,1,,,,,
,0.37,,,,,,,,,d,orange,59fdb129728b1b0001ad871d,2021-09-27_13h56.12.825,forced_choiceRT_color,2021.2.3,Win32,60.12506013,,,,,,,,2,Fast,short,d,1,0.9307,5,3,23,0,1,,,,,
,0.62,,,,,,,,,d,orange,59fdb129728b1b0001ad871d,2021-09-27_13h56.12.825,forced_choiceRT_color,2021.2.3,Win32,60.12506013,,,,,,,,2,Ontime,short,d,1,1.9599,6,0,24,0,1,,,,,
,1.62,,,,,,,,,f,blue,59fdb129728b1b0001ad871d,2021-09-27_13h56.12.825,forced_choiceRT_color,2021.2.3,Win32,60.12506013,,,,,,,,2,Slow,short,f,1,2.1187,6,1,25,1,1,,,,,
,1.45,,,,,,,,,k,purple,59fdb129728b1b0001ad871d,2021-09-27_13h56.12.825,forced_choiceRT_color,2021.2.3,Win32,60.12506013,,,,,,,,2,Slow,short,k,1,2.1345,6,2,26,3,1,,,,,
,1.75,,,,,,,,,f,blue,59fdb129728b1b0001ad871d,2021-09-27_13h56.12.825,forced_choiceRT_color,2021.2.3,Win32,60.12506013,,,,,,,,2,Slow,short,f,1,2.4351,6,3,27,1,1,,,,,
,1.4,,,,,,,,,d,orange,59fdb129728b1b0001ad871d,2021-09-27_13h56.12.825,forced_choiceRT_color,2021.2.3,Win32,60.12506013,,,,,,,,2,Ontime,short,d,1,2.0179,7,0,28,0,1,,,,,
,1.8,,,,,,,,,d,orange,59fdb129728b1b0001ad871d,2021-09-27_13h56.12.825,forced_choiceRT_color,2021.2.3,Win32,60.12506013,,,,,,,,2,Slow,short,d,1,2.3681,7,1,29,0,1,,,,,
,1.56,,,,,,,,,d,orange,59fdb129728b1b0001ad871d,2021-09-27_13h56.12.825,forced_choiceRT_color,2021.2.3,Win32,60.12506013,,,,,,,,2,Slow,short,d,1,2.1399,7,2,30,0,1,,,,,
,0,,,,,,,,,k,purple,59fdb129728b1b0001ad871d,2021-09-27_13h56.12.825,forced_choiceRT_color,2021.2.3,Win32,60.12506013,,,,,,,,2,Slow,short,k,1,2.1159,7,3,31,3,1,,,,,
,0.83,,,,,,,,,j,red,59fdb129728b1b0001ad871d,2021-09-27_13h56.12.825,forced_choiceRT_color,2021.2.3,Win32,60.12506013,,,,,,,,2,Fast,short,j,1,1.8586,8,0,32,2,1,,,,,
,1.01,,,,,,,,,d,orange,59fdb129728b1b0001ad871d,2021-09-27_13h56.12.825,forced_choiceRT_color,2021.2.3,Win32,60.12506013,,,,,,,,2,Fast,short,d,1,1.6536,8,1,33,0,1,,,,,
,1.04,,,,,,,,,d,orange,59fdb129728b1b0001ad871d,2021-09-27_13h56.12.825,forced_choiceRT_color,2021.2.3,Win32,60.12506013,,,,,,,,2,Ontime,short,d,1,1.9332,8,2,34,0,1,,,,,
,0.98,,,,,,,,,k,purple,59fdb129728b1b0001ad871d,2021-09-27_13h56.12.825,forced_choiceRT_color,2021.2.3,Win32,60.12506013,,,,,,,,2,Ontime,short,k,1,1.9827,8,3,35,3,1,,,,,
,1.27,,,,,,,,,j,red,59fdb129728b1b0001ad871d,2021-09-27_13h56.12.825,forced_choiceRT_color,2021.2.3,Win32,60.12506013,,,,,,,,2,Ontime,short,j,1,2.058,9,0,36,2,1,,,,,
,1.35,,,,,,,,,k,purple,59fdb129728b1b0001ad871d,2021-09-27_13h56.12.825,forced_choiceRT_color,2021.2.3,Win32,60.12506013,,,,,,,,2,Ontime,short,k,1,1.9354,9,1,37,3,1,,,,,
,1.23,,,,,,,,,j,red,59fdb129728b1b0001ad871d,2021-09-27_13h56.12.825,forced_choiceRT_color,2021.2.3,Win32,60.12506013,,,,,,,,2,Ontime,short,j,1,2.0339,9,2,38,2,1,,,,,
,0.68,,,,,,,,,j,red,59fdb129728b1b0001ad871d,2021-09-27_13h56.12.825,forced_choiceRT_color,2021.2.3,Win32,60.12506013,,,,,,,,2,Ontime,short,j,1,1.9041,9,3,39,2,1,,,,,
,,,,,,,,,,,,59fdb129728b1b0001ad871d,2021-09-27_13h56.12.825,forced_choiceRT_color,2021.2.3,Win32,60.12506013,,,,,,,,,,,,,,,,,,,1,0,1,0,1
,1.49,,,,,,,,,f,blue,59fdb129728b1b0001ad871d,2021-09-27_13h56.12.825,forced_choiceRT_color,2021.2.3,Win32,60.12506013,,,,,,,,3,Ontime,short,f,1,1.997,0,0,0,1,1,,,,,
,0.92,,,,,,,,,k,purple,59fdb129728b1b0001ad871d,2021-09-27_13h56.12.825,forced_choiceRT_color,2021.2.3,Win32,60.12506013,,,,,,,,3,Fast,short,k,1,1.8974,0,1,1,3,1,,,,,
,0.7,,,,,,,,,d,orange,59fdb129728b1b0001ad871d,2021-09-27_13h56.12.825,forced_choiceRT_color,2021.2.3,Win32,60.12506013,,,,,,,,3,Fast,short,f,0,1.2648,0,2,2,0,1,,,,,
,1.51,,,,,,,,,f,blue,59fdb129728b1b0001ad871d,2021-09-27_13h56.12.825,forced_choiceRT_color,2021.2.3,Win32,60.12506013,,,,,,,,3,Slow,short,f,1,2.1505,0,3,3,1,1,,,,,
,1.06,,,,,,,,,f,blue,59fdb129728b1b0001ad871d,2021-09-27_13h56.12.825,forced_choiceRT_color,2021.2.3,Win32,60.12506013,,,,,,,,3,Fast,short,f,1,1.6664,1,0,4,1,1,,,,,
,1.01,,,,,,,,,k,purple,59fdb129728b1b0001ad871d,2021-09-27_13h56.12.825,forced_choiceRT_color,2021.2.3,Win32,60.12506013,,,,,,,,3,Fast,short,k,1,1.7007,1,1,5,3,1,,,,,
,0.66,,,,,,,,,f,blue,59fdb129728b1b0001ad871d,2021-09-27_13h56.12.825,forced_choiceRT_color,2021.2.3,Win32,60.12506013,,,,,,,,3,Fast,short,f,1,1.4034,1,2,6,1,1,,,,,
,1.83,,,,,,,,,d,orange,59fdb129728b1b0001ad871d,2021-09-27_13h56.12.825,forced_choiceRT_color,2021.2.3,Win32,60.12506013,,,,,,,,3,Slow,short,d,1,2.3864,1,3,7,0,1,,,,,
,1.32,,,,,,,,,j,red,59fdb129728b1b0001ad871d,2021-09-27_13h56.12.825,forced_choiceRT_color,2021.2.3,Win32,60.12506013,,,,,,,,3,Ontime,short,j,1,1.9972,2,0,8,2,1,,,,,
,1.73,,,,,,,,,j,red,59fdb129728b1b0001ad871d,2021-09-27_13h56.12.825,forced_choiceRT_color,2021.2.3,Win32,60.12506013,,,,,,,,3,Slow,short,j,1,2.4059,2,1,9,2,1,,,,,
,0.79,,,,,,,,,j,red,59fdb129728b1b0001ad871d,2021-09-27_13h56.12.825,forced_choiceRT_color,2021.2.3,Win32,60.12506013,,,,,,,,3,Ontime,short,j,1,2.0121,2,2,10,2,1,,,,,
,0.74,,,,,,,,,k,purple,59fdb129728b1b0001ad871d,2021-09-27_13h56.12.825,forced_choiceRT_color,2021.2.3,Win32,60.12506013,,,,,,,,3,Ontime,short,k,1,1.9967,2,3,11,3,1,,,,,
,1.78,,,,,,,,,k,purple,59fdb129728b1b0001ad871d,2021-09-27_13h56.12.825,forced_choiceRT_color,2021.2.3,Win32,60.12506013,,,,,,,,3,Slow,short,k,1,2.3391,3,0,12,3,1,,,,,
,1.58,,,,,,,,,d,orange,59fdb129728b1b0001ad871d,2021-09-27_13h56.12.825,forced_choiceRT_color,2021.2.3,Win32,60.12506013,,,,,,,,3,Slow,short,d,1,2.185,3,1,13,0,1,,,,,
,0.37,,,,,,,,,k,purple,59fdb129728b1b0001ad871d,2021-09-27_13h56.12.825,forced_choiceRT_color,2021.2.3,Win32,60.12506013,,,,,,,,3,Ontime,short,k,1,2.0858,3,2,14,3,1,,,,,
,1.34,,,,,,,,,j,red,59fdb129728b1b0001ad871d,2021-09-27_13h56.12.825,forced_choiceRT_color,2021.2.3,Win32,60.12506013,,,,,,,,3,Slow,short,j,1,2.3309,3,3,15,2,1,,,,,
,1.46,,,,,,,,,f,blue,59fdb129728b1b0001ad871d,2021-09-27_13h56.12.825,forced_choiceRT_color,2021.2.3,Win32,60.12506013,,,,,,,,3,Slow,short,f,1,2.2433,4,0,16,1,1,,,,,
,0.57,,,,,,,,,d,orange,59fdb129728b1b0001ad871d,2021-09-27_13h56.12.825,forced_choiceRT_color,2021.2.3,Win32,60.12506013,,,,,,,,3,Fast,short,d,1,1.1652,4,1,17,0,1,,,,,
,0.65,,,,,,,,,j,red,59fdb129728b1b0001ad871d,2021-09-27_13h56.12.825,forced_choiceRT_color,2021.2.3,Win32,60.12506013,,,,,,,,3,Fast,short,j,1,1.6676,4,2,18,2,1,,,,,
,0.86,,,,,,,,,f,blue,59fdb129728b1b0001ad871d,2021-09-27_13h56.12.825,forced_choiceRT_color,2021.2.3,Win32,60.12506013,,,,,,,,3,Fast,short,f,1,1.8429,4,3,19,1,1,,,,,
,1.24,,,,,,,,,j,red,59fdb129728b1b0001ad871d,2021-09-27_13h56.12.825,forced_choiceRT_color,2021.2.3,Win32,60.12506013,,,,,,,,3,Slow,short,j,1,2.1183,5,0,20,2,1,,,,,
,1.05,,,,,,,,,k,purple,59fdb129728b1b0001ad871d,2021-09-27_13h56.12.825,forced_choiceRT_color,2021.2.3,Win32,60.12506013,,,,,,,,3,Ontime,short,k,1,2.0839,5,1,21,3,1,,,,,
,1.33,,,,,,,,,f,blue,59fdb129728b1b0001ad871d,2021-09-27_13h56.12.825,forced_choiceRT_color,2021.2.3,Win32,60.12506013,,,,,,,,3,Ontime,short,f,1,2.0068,5,2,22,1,1,,,,,
,1.09,,,,,,,,,j,red,59fdb129728b1b0001ad871d,2021-09-27_13h56.12.825,forced_choiceRT_color,2021.2.3,Win32,60.12506013,,,,,,,,3,Fast,short,j,1,1.6607,5,3,23,2,1,,,,,
,1,,,,,,,,,k,purple,59fdb129728b1b0001ad871d,2021-09-27_13h56.12.825,forced_choiceRT_color,2021.2.3,Win32,60.12506013,,,,,,,,3,Fast,short,k,1,1.6673,6,0,24,3,1,,,,,
,0.94,,,,,,,,,f,blue,59fdb129728b1b0001ad871d,2021-09-27_13h56.12.825,forced_choiceRT_color,2021.2.3,Win32,60.12506013,,,,,,,,3,Fast,short,f,1,1.5878,6,1,25,1,1,,,,,
,1.05,,,,,,,,,d,orange,59fdb129728b1b0001ad871d,2021-09-27_13h56.12.825,forced_choiceRT_color,2021.2.3,Win32,60.12506013,,,,,,,,3,Fast,short,d,1,1.6552,6,2,26,0,1,,,,,
,0.05,,,,,,,,,f,blue,59fdb129728b1b0001ad871d,2021-09-27_13h56.12.825,forced_choiceRT_color,2021.2.3,Win32,60.12506013,,,,,,,,3,Fast,short,f,1,0.9855,6,3,27,1,1,,,,,
,0.91,,,,,,,,,j,red,59fdb129728b1b0001ad871d,2021-09-27_13h56.12.825,forced_choiceRT_color,2021.2.3,Win32,60.12506013,,,,,,,,3,Ontime,short,j,1,1.903,7,0,28,2,1,,,,,
,0.21,,,,,,,,,d,orange,59fdb129728b1b0001ad871d,2021-09-27_13h56.12.825,forced_choiceRT_color,2021.2.3,Win32,60.12506013,,,,,,,,3,Fast,short,d,1,1.8342,7,1,29,0,1,,,,,
,1.27,,,,,,,,,d,orange,59fdb129728b1b0001ad871d,2021-09-27_13h56.12.825,forced_choiceRT_color,2021.2.3,Win32,60.12506013,,,,,,,,3,Fast,short,d,1,1.8516,7,2,30,0,1,,,,,
,0.46,,,,,,,,,d,orange,59fdb129728b1b0001ad871d,2021-09-27_13h56.12.825,forced_choiceRT_color,2021.2.3,Win32,60.12506013,,,,,,,,3,Fast,short,d,1,1.8407,7,3,31,0,1,,,,,
,0.58,,,,,,,,,k,purple,59fdb129728b1b0001ad871d,2021-09-27_13h56.12.825,forced_choiceRT_color,2021.2.3,Win32,60.12506013,,,,,,,,3,Ontime,short,k,1,1.9192,8,0,32,3,1,,,,,
,1.83,,,,,,,,,j,red,59fdb129728b1b0001ad871d,2021-09-27_13h56.12.825,forced_choiceRT_color,2021.2.3,Win32,60.12506013,,,,,,,,3,Slow,short,j,1,2.3195,8,1,33,2,1,,,,,
,1.2,,,,,,,,,f,blue,59fdb129728b1b0001ad871d,2021-09-27_13h56.12.825,forced_choiceRT_color,2021.2.3,Win32,60.12506013,,,,,,,,3,Fast,short,f,1,1.8061,8,2,34,1,1,,,,,
,0.77,,,,,,,,,d,orange,59fdb129728b1b0001ad871d,2021-09-27_13h56.12.825,forced_choiceRT_color,2021.2.3,Win32,60.12506013,,,,,,,,3,Fast,short,d,1,1.4254,8,3,35,0,1,,,,,
,0.22,,,,,,,,,k,purple,59fdb129728b1b0001ad871d,2021-09-27_13h56.12.825,forced_choiceRT_color,2021.2.3,Win32,60.12506013,,,,,,,,3,Fast,short,k,1,1.8271,9,0,36,3,1,,,,,
,0.33,,,,,,,,,k,purple,59fdb129728b1b0001ad871d,2021-09-27_13h56.12.825,forced_choiceRT_color,2021.2.3,Win32,60.12506013,,,,,,,,3,Slow,short,k,1,2.1353,9,1,37,3,1,,,,,
,1.82,,,,,,,,,d,orange,59fdb129728b1b0001ad871d,2021-09-27_13h56.12.825,forced_choiceRT_color,2021.2.3,Win32,60.12506013,,,,,,,,3,Slow,short,f,0,2.2245,9,2,38,0,1,,,,,
,0.79,,,,,,,,,j,red,59fdb129728b1b0001ad871d,2021-09-27_13h56.12.825,forced_choiceRT_color,2021.2.3,Win32,60.12506013,,,,,,,,3,Fast,short,j,1,1.8233,9,3,39,2,1,,,,,
,,,,,,,,,,,,59fdb129728b1b0001ad871d,2021-09-27_13h56.12.825,forced_choiceRT_color,2021.2.3,Win32,60.12506013,,,,,,,,,,,,,,,,,,,2,0,2,0,1
,1.03,,,,,,,,,d,orange,59fdb129728b1b0001ad871d,2021-09-27_13h56.12.825,forced_choiceRT_color,2021.2.3,Win32,60.12506013,,,,,,,,4,Slow,short,d,1,2.3077,0,0,0,0,1,,,,,
,0.25,,,,,,,,,d,orange,59fdb129728b1b0001ad871d,2021-09-27_13h56.12.825,forced_choiceRT_color,2021.2.3,Win32,60.12506013,,,,,,,,4,Ontime,short,d,1,1.9852,0,1,1,0,1,,,,,
,0.47,,,,,,,,,k,purple,59fdb129728b1b0001ad871d,2021-09-27_13h56.12.825,forced_choiceRT_color,2021.2.3,Win32,60.12506013,,,,,,,,4,Ontime,short,k,1,1.9603,0,2,2,3,1,,,,,
,1.59,,,,,,,,,k,purple,59fdb129728b1b0001ad871d,2021-09-27_13h56.12.825,forced_choiceRT_color,2021.2.3,Win32,60.12506013,,,,,,,,4,Slow,short,k,1,2.1718,0,3,3,3,1,,,,,
,0.98,,,,,,,,,d,orange,59fdb129728b1b0001ad871d,2021-09-27_13h56.12.825,forced_choiceRT_color,2021.2.3,Win32,60.12506013,,,,,,,,4,Fast,short,d,1,1.6846,1,0,4,0,1,,,,,
,0.9,,,,,,,,,j,red,59fdb129728b1b0001ad871d,2021-09-27_13h56.12.825,forced_choiceRT_color,2021.2.3,Win32,60.12506013,,,,,,,,4,Fast,short,j,1,1.7684,1,1,5,2,1,,,,,
,1.61,,,,,,,,,d,orange,59fdb129728b1b0001ad871d,2021-09-27_13h56.12.825,forced_choiceRT_color,2021.2.3,Win32,60.12506013,,,,,,,,4,Slow,short,d,1,2.1702,1,2,6,0,1,,,,,
,1.53,,,,,,,,,d,orange,59fdb129728b1b0001ad871d,2021-09-27_13h56.12.825,forced_choiceRT_color,2021.2.3,Win32,60.12506013,,,,,,,,4,Ontime,short,d,1,1.9353,1,3,7,0,1,,,,,
,1.14,,,,,,,,,f,blue,59fdb129728b1b0001ad871d,2021-09-27_13h56.12.825,forced_choiceRT_color,2021.2.3,Win32,60.12506013,,,,,,,,4,Ontime,short,f,1,2.0525,2,0,8,1,1,,,,,
,1.14,,,,,,,,,j,red,59fdb129728b1b0001ad871d,2021-09-27_13h56.12.825,forced_choiceRT_color,2021.2.3,Win32,60.12506013,,,,,,,,4,Fast,short,j,1,1.77,2,1,9,2,1,,,,,
,1.79,,,,,,,,,j,red,59fdb129728b1b0001ad871d,2021-09-27_13h56.12.825,forced_choiceRT_color,2021.2.3,Win32,60.12506013,,,,,,,,4,Slow,short,j,1,2.1611,2,2,10,2,1,,,,,
,1.56,,,,,,,,,k,purple,59fdb129728b1b0001ad871d,2021-09-27_13h56.12.825,forced_choiceRT_color,2021.2.3,Win32,60.12506013,,,,,,,,4,Ontime,short,k,1,2.0683,2,3,11,3,1,,,,,
,1.48,,,,,,,,,j,red,59fdb129728b1b0001ad871d,2021-09-27_13h56.12.825,forced_choiceRT_color,2021.2.3,Win32,60.12506013,,,,,,,,4,Slow,short,j,1,2.2849,3,0,12,2,1,,,,,
,1.77,,,,,,,,,k,purple,59fdb129728b1b0001ad871d,2021-09-27_13h56.12.825,forced_choiceRT_color,2021.2.3,Win32,60.12506013,,,,,,,,4,Slow,short,k,1,2.3155,3,1,13,3,1,,,,,
,0.15,,,,,,,,,j,red,59fdb129728b1b0001ad871d,2021-09-27_13h56.12.825,forced_choiceRT_color,2021.2.3,Win32,60.12506013,,,,,,,,4,Ontime,short,j,1,1.9848,3,2,14,2,1,,,,,
,0.78,,,,,,,,,f,blue,59fdb129728b1b0001ad871d,2021-09-27_13h56.12.825,forced_choiceRT_color,2021.2.3,Win32,60.12506013,,,,,,,,4,Ontime,short,f,1,1.9533,3,3,15,1,1,,,,,
,0.33,,,,,,,,,k,purple,59fdb129728b1b0001ad871d,2021-09-27_13h56.12.825,forced_choiceRT_color,2021.2.3,Win32,60.12506013,,,,,,,,4,Ontime,short,k,1,2.0532,4,0,16,3,1,,,,,
,1.51,,,,,,,,,k,purple,59fdb129728b1b0001ad871d,2021-09-27_13h56.12.825,forced_choiceRT_color,2021.2.3,Win32,60.12506013,,,,,,,,4,Slow,short,k,1,2.3207,4,1,17,3,1,,,,,
,0.47,,,,,,,,,k,purple,59fdb129728b1b0001ad871d,2021-09-27_13h56.12.825,forced_choiceRT_color,2021.2.3,Win32,60.12506013,,,,,,,,4,Fast,short,k,1,1.7061,4,2,18,3,1,,,,,
,0.59,,,,,,,,,d,orange,59fdb129728b1b0001ad871d,2021-09-27_13h56.12.825,forced_choiceRT_color,2021.2.3,Win32,60.12506013,,,,,,,,4,Slow,short,d,1,2.2948,4,3,19,0,1,,,,,
,0.58,,,,,,,,,d,orange,59fdb129728b1b0001ad871d,2021-09-27_13h56.12.825,forced_choiceRT_color,2021.2.3,Win32,60.12506013,,,,,,,,4,Ontime,short,d,1,1.9336,5,0,20,0,1,,,,,
,0.56,,,,,,,,,f,blue,59fdb129728b1b0001ad871d,2021-09-27_13h56.12.825,forced_choiceRT_color,2021.2.3,Win32,60.12506013,,,,,,,,4,Ontime,short,f,1,1.9023,5,1,21,1,1,,,,,
,0.83,,,,,,,,,d,orange,59fdb129728b1b0001ad871d,2021-09-27_13h56.12.825,forced_choiceRT_color,2021.2.3,Win32,60.12506013,,,,,,,,4,Fast,short,d,1,1.7739,5,2,22,0,1,,,,,
,0,,,,,,,,,f,blue,59fdb129728b1b0001ad871d,2021-09-27_13h56.12.825,forced_choiceRT_color,2021.2.3,Win32,60.12506013,,,,,,,,4,Fast,short,f,1,1.7363,5,3,23,1,1,,,,,
,1.77,,,,,,,,,d,orange,59fdb129728b1b0001ad871d,2021-09-27_13h56.12.825,forced_choiceRT_color,2021.2.3,Win32,60.12506013,,,,,,,,4,Slow,short,d,1,2.2566,6,0,24,0,1,,,,,
,0.43,,,,,,,,,f,blue,59fdb129728b1b0001ad871d,2021-09-27_13h56.12.825,forced_choiceRT_color,2021.2.3,Win32,60.12506013,,,,,,,,4,Fast,short,f,1,1.8128,6,1,25,1,1,,,,,
,0.98,,,,,,,,,j,red,59fdb129728b1b0001ad871d,2021-09-27_13h56.12.825,forced_choiceRT_color,2021.2.3,Win32,60.12506013,,,,,,,,4,Fast,short,j,1,1.8877,6,2,26,2,1,,,,,
,0.23,,,,,,,,,f,blue,59fdb129728b1b0001ad871d,2021-09-27_13h56.12.825,forced_choiceRT_color,2021.2.3,Win32,60.12506013,,,,,,,,4,Fast,short,f,1,1.8885,6,3,27,1,1,,,,,
,1.82,,,,,,,,,f,blue,59fdb129728b1b0001ad871d,2021-09-27_13h56.12.825,forced_choiceRT_color,2021.2.3,Win32,60.12506013,,,,,,,,4,Slow,short,f,1,2.1968,7,0,28,1,1,,,,,
,0.19,,,,,,,,,k,purple,59fdb129728b1b0001ad871d,2021-09-27_13h56.12.825,forced_choiceRT_color,2021.2.3,Win32,60.12506013,,,,,,,,4,Fast,short,k,1,1.7351,7,1,29,3,1,,,,,
,0.49,,,,,,,,,j,red,59fdb129728b1b0001ad871d,2021-09-27_13h56.12.825,forced_choiceRT_color,2021.2.3,Win32,60.12506013,,,,,,,,4,Fast,short,j,1,1.8663,7,2,30,2,1,,,,,
,0.1,,,,,,,,,d,orange,59fdb129728b1b0001ad871d,2021-09-27_13h56.12.825,forced_choiceRT_color,2021.2.3,Win32,60.12506013,,,,,,,,4,Ontime,short,d,1,1.9026,7,3,31,0,1,,,,,
,1.88,,,,,,,,,j,red,59fdb129728b1b0001ad871d,2021-09-27_13h56.12.825,forced_choiceRT_color,2021.2.3,Win32,60.12506013,,,,,,,,4,Slow,short,f,0,2.4378,8,0,32,2,1,,,,,
,0.44,,,,,,,,,k,purple,59fdb129728b1b0001ad871d,2021-09-27_13h56.12.825,forced_choiceRT_color,2021.2.3,Win32,60.12506013,,,,,,,,4,Slow,short,k,1,2.271,8,1,33,3,1,,,,,
,0.56,,,,,,,,,j,red,59fdb129728b1b0001ad871d,2021-09-27_13h56.12.825,forced_choiceRT_color,2021.2.3,Win32,60.12506013,,,,,,,,4,Fast,short,j,1,1.8416,8,2,34,2,1,,,,,
,0.57,,,,,,,,,f,blue,59fdb129728b1b0001ad871d,2021-09-27_13h56.12.825,forced_choiceRT_color,2021.2.3,Win32,60.12506013,,,,,,,,4,Slow,short,f,1,2.1317,8,3,35,1,1,,,,,
,1.05,,,,,,,,,k,purple,59fdb129728b1b0001ad871d,2021-09-27_13h56.12.825,forced_choiceRT_color,2021.2.3,Win32,60.12506013,,,,,,,,4,Fast,short,k,1,1.7991,9,0,36,3,1,,,,,
,0.91,,,,,,,,,f,blue,59fdb129728b1b0001ad871d,2021-09-27_13h56.12.825,forced_choiceRT_color,2021.2.3,Win32,60.12506013,,,,,,,,4,Fast,short,f,1,1.6209,9,1,37,1,1,,,,,
,0.39,,,,,,,,,f,blue,59fdb129728b1b0001ad871d,2021-09-27_13h56.12.825,forced_choiceRT_color,2021.2.3,Win32,60.12506013,,,,,,,,4,Fast,short,f,1,1.1098,9,2,38,1,1,,,,,
,0.78,,,,,,,,,j,red,59fdb129728b1b0001ad871d,2021-09-27_13h56.12.825,forced_choiceRT_color,2021.2.3,Win32,60.12506013,,,,,,,,4,Ontime,short,j,1,2.0224,9,3,39,2,1,,,,,
,,,,,,,,,,,,59fdb129728b1b0001ad871d,2021-09-27_13h56.12.825,forced_choiceRT_color,2021.2.3,Win32,60.12506013,,,,,,,,,,,,,,,,,,,3,0,3,0,1
,1.12,,,,,,,,,d,orange,59fdb129728b1b0001ad871d,2021-09-27_13h56.12.825,forced_choiceRT_color,2021.2.3,Win32,60.12506013,,,,,,,,5,Ontime,short,d,1,1.923,0,0,0,0,1,,,,,
,0.4,,,,,,,,,k,purple,59fdb129728b1b0001ad871d,2021-09-27_13h56.12.825,forced_choiceRT_color,2021.2.3,Win32,60.12506013,,,,,,,,5,Ontime,short,k,1,2.0377,0,1,1,3,1,,,,,
,0.69,,,,,,,,,f,blue,59fdb129728b1b0001ad871d,2021-09-27_13h56.12.825,forced_choiceRT_color,2021.2.3,Win32,60.12506013,,,,,,,,5,Fast,short,f,1,1.8908,0,2,2,1,1,,,,,
,0.95,,,,,,,,,j,red,59fdb129728b1b0001ad871d,2021-09-27_13h56.12.825,forced_choiceRT_color,2021.2.3,Win32,60.12506013,,,,,,,,5,Ontime,short,j,1,1.9218,0,3,3,2,1,,,,,
,0.66,,,,,,,,,j,red,59fdb129728b1b0001ad871d,2021-09-27_13h56.12.825,forced_choiceRT_color,2021.2.3,Win32,60.12506013,,,,,,,,5,Fast,short,j,1,1.8629,1,0,4,2,1,,,,,
,0.74,,,,,,,,,k,purple,59fdb129728b1b0001ad871d,2021-09-27_13h56.12.825,forced_choiceRT_color,2021.2.3,Win32,60.12506013,,,,,,,,5,Fast,short,k,1,1.5492,1,1,5,3,1,,,,,
,0.82,,,,,,,,,k,purple,59fdb129728b1b0001ad871d,2021-09-27_13h56.12.825,forced_choiceRT_color,2021.2.3,Win32,60.12506013,,,,,,,,5,Ontime,short,k,1,1.9535,1,2,6,3,1,,,,,
,1.29,,,,,,,,,j,red,59fdb129728b1b0001ad871d,2021-09-27_13h56.12.825,forced_choiceRT_color,2021.2.3,Win32,60.12506013,,,,,,,,5,Fast,short,j,1,1.8981,1,3,7,2,1,,,,,
,1.89,,,,,,,,,d,orange,59fdb129728b1b0001ad871d,2021-09-27_13h56.12.825,forced_choiceRT_color,2021.2.3,Win32,60.12506013,,,,,,,,5,Slow,short,f,0,2.3815,2,0,8,0,1,,,,,
,0.6,,,,,,,,,f,blue,59fdb129728b1b0001ad871d,2021-09-27_13h56.12.825,forced_choiceRT_color,2021.2.3,Win32,60.12506013,,,,,,,,5,Fast,short,f,1,1.8679,2,1,9,1,1,,,,,
,1.8,,,,,,,,,k,purple,59fdb129728b1b0001ad871d,2021-09-27_13h56.12.825,forced_choiceRT_color,2021.2.3,Win32,60.12506013,,,,,,,,5,Slow,short,k,1,2.5209,2,2,10,3,1,,,,,
,0.71,,,,,,,,,d,orange,59fdb129728b1b0001ad871d,2021-09-27_13h56.12.825,forced_choiceRT_color,2021.2.3,Win32,60.12506013,,,,,,,,5,Fast,short,d,1,1.896,2,3,11,0,1,,,,,
,1.96,,,,,,,,,f,blue,59fdb129728b1b0001ad871d,2021-09-27_13h56.12.825,forced_choiceRT_color,2021.2.3,Win32,60.12506013,,,,,,,,5,Slow,short,f,1,2.4861,3,0,12,1,1,,,,,
,0.13,,,,,,,,,f,blue,59fdb129728b1b0001ad871d,2021-09-27_13h56.12.825,forced_choiceRT_color,2021.2.3,Win32,60.12506013,,,,,,,,5,Ontime,short,f,1,1.925,3,1,13,1,1,,,,,
,1.59,,,,,,,,,k,purple,59fdb129728b1b0001ad871d,2021-09-27_13h56.12.825,forced_choiceRT_color,2021.2.3,Win32,60.12506013,,,,,,,,5,Slow,short,k,1,2.5127,3,2,14,3,1,,,,,
,0.48,,,,,,,,,d,orange,59fdb129728b1b0001ad871d,2021-09-27_13h56.12.825,forced_choiceRT_color,2021.2.3,Win32,60.12506013,,,,,,,,5,Slow,short,d,1,2.2564,3,3,15,0,1,,,,,
,0.5,,,,,,,,,f,blue,59fdb129728b1b0001ad871d,2021-09-27_13h56.12.825,forced_choiceRT_color,2021.2.3,Win32,60.12506013,,,,,,,,5,Fast,short,f,1,1.8779,4,0,16,1,1,,,,,
,0.78,,,,,,,,,k,purple,59fdb129728b1b0001ad871d,2021-09-27_13h56.12.825,forced_choiceRT_color,2021.2.3,Win32,60.12506013,,,,,,,,5,Fast,short,k,1,1.8678,4,1,17,3,1,,,,,
,1.95,,,,,,,,,d,orange,59fdb129728b1b0001ad871d,2021-09-27_13h56.12.825,forced_choiceRT_color,2021.2.3,Win32,60.12506013,,,,,,,,5,Slow,short,d,1,2.4521,4,2,18,0,1,,,,,
,0.05,,,,,,,,,f,blue,59fdb129728b1b0001ad871d,2021-09-27_13h56.12.825,forced_choiceRT_color,2021.2.3,Win32,60.12506013,,,,,,,,5,Ontime,short,f,1,1.9201,4,3,19,1,1,,,,,
,0.05,,,,,,,,,k,purple,59fdb129728b1b0001ad871d,2021-09-27_13h56.12.825,forced_choiceRT_color,2021.2.3,Win32,60.12506013,,,,,,,,5,Slow,short,k,1,2.2846,5,0,20,3,1,,,,,
,0.91,,,,,,,,,f,blue,59fdb129728b1b0001ad871d,2021-09-27_13h56.12.825,forced_choiceRT_color,2021.2.3,Win32,60.12506013,,,,,,,,5,Ontime,short,f,1,1.9462,5,1,21,1,1,,,,,
,1.38,,,,,,,,,k,purple,59fdb129728b1b0001ad871d,2021-09-27_13h56.12.825,forced_choiceRT_color,2021.2.3,Win32,60.12506013,,,,,,,,5,Ontime,short,k,1,2.0017,5,2,22,3,1,,,,,
,0.87,,,,,,,,,k,purple,59fdb129728b1b0001ad871d,2021-09-27_13h56.12.825,forced_choiceRT_color,2021.2.3,Win32,60.12506013,,,,,,,,5,Ontime,short,k,1,1.9562,5,3,23,3,1,,,,,
,0.3,,,,,,,,,j,red,59fdb129728b1b0001ad871d,2021-09-27_13h56.12.825,forced_choiceRT_color,2021.2.3,Win32,60.12506013,,,,,,,,5,Ontime,short,j,1,1.9028,6,0,24,2,1,,,,,
,1.19,,,,,,,,,d,orange,59fdb129728b1b0001ad871d,2021-09-27_13h56.12.825,forced_choiceRT_color,2021.2.3,Win32,60.12506013,,,,,,,,5,Fast,short,d,1,1.868,6,1,25,0,1,,,,,
,1.92,,,,,,,,,d,orange,59fdb129728b1b0001ad871d,2021-09-27_13h56.12.825,forced_choiceRT_color,2021.2.3,Win32,60.12506013,,,,,,,,5,Slow,short,d,1,2.3615,6,2,26,0,1,,,,,
,0.96,,,,,,,,,d,orange,59fdb129728b1b0001ad871d,2021-09-27_13h56.12.825,forced_choiceRT_color,2021.2.3,Win32,60.12506013,,,,,,,,5,Fast,short,d,1,1.7684,6,3,27,0,1,,,,,
,0.39,,,,,,,,,j,red,59fdb129728b1b0001ad871d,2021-09-27_13h56.12.825,forced_choiceRT_color,2021.2.3,Win32,60.12506013,,,,,,,,5,Slow,short,j,1,2.1614,7,0,28,2,1,,,,,
,1.69,,,,,,,,,d,orange,59fdb129728b1b0001ad871d,2021-09-27_13h56.12.825,forced_choiceRT_color,2021.2.3,Win32,60.12506013,,,,,,,,5,Slow,short,d,1,2.2268,7,1,29,0,1,,,,,
,1.7,,,,,,,,,f,blue,59fdb129728b1b0001ad871d,2021-09-27_13h56.12.825,forced_choiceRT_color,2021.2.3,Win32,60.12506013,,,,,,,,5,Slow,short,f,1,2.1779,7,2,30,1,1,,,,,
,0.83,,,,,,,,,j,red,59fdb129728b1b0001ad871d,2021-09-27_13h56.12.825,forced_choiceRT_color,2021.2.3,Win32,60.12506013,,,,,,,,5,Fast,short,j,1,1.6882,7,3,31,2,1,,,,,
,0.75,,,,,,,,,j,red,59fdb129728b1b0001ad871d,2021-09-27_13h56.12.825,forced_choiceRT_color,2021.2.3,Win32,60.12506013,,,,,,,,5,Ontime,short,j,1,2.0199,8,0,32,2,1,,,,,
,0.97,,,,,,,,,k,purple,59fdb129728b1b0001ad871d,2021-09-27_13h56.12.825,forced_choiceRT_color,2021.2.3,Win32,60.12506013,,,,,,,,5,Ontime,short,k,1,2.014,8,1,33,3,1,,,,,
,1,,,,,,,,,d,orange,59fdb129728b1b0001ad871d,2021-09-27_13h56.12.825,forced_choiceRT_color,2021.2.3,Win32,60.12506013,,,,,,,,5,Ontime,short,d,1,1.9363,8,2,34,0,1,,,,,
,0.29,,,,,,,,,j,red,59fdb129728b1b0001ad871d,2021-09-27_13h56.12.825,forced_choiceRT_color,2021.2.3,Win32,60.12506013,,,,,,,,5,Fast,short,j,1,1.7532,8,3,35,2,1,,,,,
,1.43,,,,,,,,,f,blue,59fdb129728b1b0001ad871d,2021-09-27_13h56.12.825,forced_choiceRT_color,2021.2.3,Win32,60.12506013,,,,,,,,5,Fast,short,f,1,1.8877,9,0,36,1,1,,,,,
,1.53,,,,,,,,,f,blue,59fdb129728b1b0001ad871d,2021-09-27_13h56.12.825,forced_choiceRT_color,2021.2.3,Win32,60.12506013,,,,,,,,5,Ontime,short,f,1,1.9419,9,1,37,1,1,,,,,
,0,,,,,,,,,j,red,59fdb129728b1b0001ad871d,2021-09-27_13h56.12.825,forced_choiceRT_color,2021.2.3,Win32,60.12506013,,,,,,,,5,Ontime,short,j,1,1.9264,9,2,38,2,1,,,,,
,0.14,,,,,,,,,j,red,59fdb129728b1b0001ad871d,2021-09-27_13h56.12.825,forced_choiceRT_color,2021.2.3,Win32,60.12506013,,,,,,,,5,Ontime,short,j,1,2.0384,9,3,39,2,1,,,,,
,,,,,,,,,,,,59fdb129728b1b0001ad871d,2021-09-27_13h56.12.825,forced_choiceRT_color,2021.2.3,Win32,60.12506013,,,,,,,,,,,,,,,,,,,4,0,4,0,1
,0.61,,,,,,,,,k,purple,59fdb129728b1b0001ad871d,2021-09-27_13h56.12.825,forced_choiceRT_color,2021.2.3,Win32,60.12506013,,,,,,,,6,Slow,short,k,1,2.1854,0,0,0,3,1,,,,,
,1.75,,,,,,,,,d,orange,59fdb129728b1b0001ad871d,2021-09-27_13h56.12.825,forced_choiceRT_color,2021.2.3,Win32,60.12506013,,,,,,,,6,Slow,short,d,1,2.385,0,1,1,0,1,,,,,
,0.99,,,,,,,,,f,blue,59fdb129728b1b0001ad871d,2021-09-27_13h56.12.825,forced_choiceRT_color,2021.2.3,Win32,60.12506013,,,,,,,,6,Fast,short,f,1,1.6227,0,2,2,1,1,,,,,
,0.63,,,,,,,,,j,red,59fdb129728b1b0001ad871d,2021-09-27_13h56.12.825,forced_choiceRT_color,2021.2.3,Win32,60.12506013,,,,,,,,6,Fast,short,j,1,1.5205,0,3,3,2,1,,,,,
,0.15,,,,,,,,,f,blue,59fdb129728b1b0001ad871d,2021-09-27_13h56.12.825,forced_choiceRT_color,2021.2.3,Win32,60.12506013,,,,,,,,6,Slow,short,f,1,2.1683,1,0,4,1,1,,,,,
,0.46,,,,,,,,,f,blue,59fdb129728b1b0001ad871d,2021-09-27_13h56.12.825,forced_choiceRT_color,2021.2.3,Win32,60.12506013,,,,,,,,6,Fast,short,f,1,1.8662,1,1,5,1,1,,,,,
,1.71,,,,,,,,,f,blue,59fdb129728b1b0001ad871d,2021-09-27_13h56.12.825,forced_choiceRT_color,2021.2.3,Win32,60.12506013,,,,,,,,6,Ontime,short,f,1,2.037,1,2,6,1,1,,,,,
,1.31,,,,,,,,,d,orange,59fdb129728b1b0001ad871d,2021-09-27_13h56.12.825,forced_choiceRT_color,2021.2.3,Win32,60.12506013,,,,,,,,6,Fast,short,d,1,1.8929,1,3,7,0,1,,,,,
,1.85,,,,,,,,,f,blue,59fdb129728b1b0001ad871d,2021-09-27_13h56.12.825,forced_choiceRT_color,2021.2.3,Win32,60.12506013,,,,,,,,6,Slow,short,f,1,2.182,2,0,8,1,1,,,,,
,0.47,,,,,,,,,j,red,59fdb129728b1b0001ad871d,2021-09-27_13h56.12.825,forced_choiceRT_color,2021.2.3,Win32,60.12506013,,,,,,,,6,Fast,short,j,1,1.8854,2,1,9,2,1,,,,,
,1.62,,,,,,,,,k,purple,59fdb129728b1b0001ad871d,2021-09-27_13h56.12.825,forced_choiceRT_color,2021.2.3,Win32,60.12506013,,,,,,,,6,Slow,short,k,1,2.235,2,2,10,3,1,,,,,
,0.72,,,,,,,,,d,orange,59fdb129728b1b0001ad871d,2021-09-27_13h56.12.825,forced_choiceRT_color,2021.2.3,Win32,60.12506013,,,,,,,,6,Ontime,short,d,1,1.9803,2,3,11,0,1,,,,,
,0.64,,,,,,,,,f,blue,59fdb129728b1b0001ad871d,2021-09-27_13h56.12.825,forced_choiceRT_color,2021.2.3,Win32,60.12506013,,,,,,,,6,Ontime,short,f,1,1.9998,3,0,12,1,1,,,,,
,0.7,,,,,,,,,j,red,59fdb129728b1b0001ad871d,2021-09-27_13h56.12.825,forced_choiceRT_color,2021.2.3,Win32,60.12506013,,,,,,,,6,Ontime,short,j,1,1.9338,3,1,13,2,1,,,,,
,1.55,,,,,,,,,k,purple,59fdb129728b1b0001ad871d,2021-09-27_13h56.12.825,forced_choiceRT_color,2021.2.3,Win32,60.12506013,,,,,,,,6,Ontime,short,k,1,1.967,3,2,14,3,1,,,,,
,0.97,,,,,,,,,k,purple,59fdb129728b1b0001ad871d,2021-09-27_13h56.12.825,forced_choiceRT_color,2021.2.3,Win32,60.12506013,,,,,,,,6,Fast,short,k,1,1.823,3,3,15,3,1,,,,,
,0.94,,,,,,,,,k,purple,59fdb129728b1b0001ad871d,2021-09-27_13h56.12.825,forced_choiceRT_color,2021.2.3,Win32,60.12506013,,,,,,,,6,Fast,short,k,1,1.8497,4,0,16,3,1,,,,,
,0.81,,,,,,,,,d,orange,59fdb129728b1b0001ad871d,2021-09-27_13h56.12.825,forced_choiceRT_color,2021.2.3,Win32,60.12506013,,,,,,,,6,Fast,short,d,1,1.802,4,1,17,0,1,,,,,
,1.18,,,,,,,,,d,orange,59fdb129728b1b0001ad871d,2021-09-27_13h56.12.825,forced_choiceRT_color,2021.2.3,Win32,60.12506013,,,,,,,,6,Fast,short,d,1,1.6907,4,2,18,0,1,,,,,
,0.45,,,,,,,,,k,purple,59fdb129728b1b0001ad871d,2021-09-27_13h56.12.825,forced_choiceRT_color,2021.2.3,Win32,60.12506013,,,,,,,,6,Ontime,short,k,1,1.9351,4,3,19,3,1,,,,,
,0.88,,,,,,,,,d,orange,59fdb129728b1b0001ad871d,2021-09-27_13h56.12.825,forced_choiceRT_color,2021.2.3,Win32,60.12506013,,,,,,,,6,Ontime,short,d,1,1.9161,5,0,20,0,1,,,,,
,1.17,,,,,,,,,f,blue,59fdb129728b1b0001ad871d,2021-09-27_13h56.12.825,forced_choiceRT_color,2021.2.3,Win32,60.12506013,,,,,,,,6,Ontime,short,f,1,2.05,5,1,21,1,1,,,,,
,1.38,,,,,,,,,f,blue,59fdb129728b1b0001ad871d,2021-09-27_13h56.12.825,forced_choiceRT_color,2021.2.3,Win32,60.12506013,,,,,,,,6,Fast,short,f,1,1.8975,5,2,22,1,1,,,,,
,1.1,,,,,,,,,j,red,59fdb129728b1b0001ad871d,2021-09-27_13h56.12.825,forced_choiceRT_color,2021.2.3,Win32,60.12506013,,,,,,,,6,Fast,short,j,1,1.7509,5,3,23,2,1,,,,,
,1.61,,,,,,,,,d,orange,59fdb129728b1b0001ad871d,2021-09-27_13h56.12.825,forced_choiceRT_color,2021.2.3,Win32,60.12506013,,,,,,,,6,Slow,short,d,1,2.2174,6,0,24,0,1,,,,,
,1.72,,,,,,,,,k,purple,59fdb129728b1b0001ad871d,2021-09-27_13h56.12.825,forced_choiceRT_color,2021.2.3,Win32,60.12506013,,,,,,,,6,Slow,short,k,1,2.3868,6,1,25,3,1,,,,,
,0.15,,,,,,,,,f,blue,59fdb129728b1b0001ad871d,2021-09-27_13h56.12.825,forced_choiceRT_color,2021.2.3,Win32,60.12506013,,,,,,,,6,Slow,short,j,0,2.1512,6,2,26,1,1,,,,,
,0.05,,,,,,,,,j,red,59fdb129728b1b0001ad871d,2021-09-27_13h56.12.825,forced_choiceRT_color,2021.2.3,Win32,60.12506013,,,,,,,,6,Fast,short,d,0,1.8383,6,3,27,2,1,,,,,
,1.38,,,,,,,,,k,purple,59fdb129728b1b0001ad871d,2021-09-27_13h56.12.825,forced_choiceRT_color,2021.2.3,Win32,60.12506013,,,,,,,,6,Slow,short,j,0,2.1014,7,0,28,3,1,,,,,
,1.91,,,,,,,,,j,red,59fdb129728b1b0001ad871d,2021-09-27_13h56.12.825,forced_choiceRT_color,2021.2.3,Win32,60.12506013,,,,,,,,6,Slow,short,f,0,2.3145,7,1,29,2,1,,,,,
,1.35,,,,,,,,,j,red,59fdb129728b1b0001ad871d,2021-09-27_13h56.12.825,forced_choiceRT_color,2021.2.3,Win32,60.12506013,,,,,,,,6,Ontime,short,j,1,2.0582,7,2,30,2,1,,,,,
,0.51,,,,,,,,,d,orange,59fdb129728b1b0001ad871d,2021-09-27_13h56.12.825,forced_choiceRT_color,2021.2.3,Win32,60.12506013,,,,,,,,6,Slow,short,d,1,2.1687,7,3,31,0,1,,,,,
,0.25,,,,,,,,,k,purple,59fdb129728b1b0001ad871d,2021-09-27_13h56.12.825,forced_choiceRT_color,2021.2.3,Win32,60.12506013,,,,,,,,6,Ontime,short,k,1,2.0219,8,0,32,3,1,,,,,
,0.5,,,,,,,,,j,red,59fdb129728b1b0001ad871d,2021-09-27_13h56.12.825,forced_choiceRT_color,2021.2.3,Win32,60.12506013,,,,,,,,6,Ontime,short,j,1,1.9695,8,1,33,2,1,,,,,
,0.4,,,,,,,,,j,red,59fdb129728b1b0001ad871d,2021-09-27_13h56.12.825,forced_choiceRT_color,2021.2.3,Win32,60.12506013,,,,,,,,6,Slow,short,j,1,2.1209,8,2,34,2,1,,,,,
,0.26,,,,,,,,,f,blue,59fdb129728b1b0001ad871d,2021-09-27_13h56.12.825,forced_choiceRT_color,2021.2.3,Win32,60.12506013,,,,,,,,6,Ontime,short,f,1,2.0736,8,3,35,1,1,,,,,
,0.68,,,,,,,,,d,orange,59fdb129728b1b0001ad871d,2021-09-27_13h56.12.825,forced_choiceRT_color,2021.2.3,Win32,60.12506013,,,,,,,,6,Slow,short,d,1,2.2138,9,0,36,0,1,,,,,
,0.34,,,,,,,,,j,red,59fdb129728b1b0001ad871d,2021-09-27_13h56.12.825,forced_choiceRT_color,2021.2.3,Win32,60.12506013,,,,,,,,6,Ontime,short,j,1,2.0577,9,1,37,2,1,,,,,
,0.83,,,,,,,,,k,purple,59fdb129728b1b0001ad871d,2021-09-27_13h56.12.825,forced_choiceRT_color,2021.2.3,Win32,60.12506013,,,,,,,,6,Slow,short,k,1,2.2334,9,2,38,3,1,,,,,
,1.13,,,,,,,,,d,orange,59fdb129728b1b0001ad871d,2021-09-27_13h56.12.825,forced_choiceRT_color,2021.2.3,Win32,60.12506013,,,,,,,,6,Ontime,short,d,1,1.9782,9,3,39,0,1,,,,,
,,,,,,,,,,,,59fdb129728b1b0001ad871d,2021-09-27_13h56.12.825,forced_choiceRT_color,2021.2.3,Win32,60.12506013,,,,,,,,,,,,,,,,,,,5,0,5,0,1
,0.08,,,,,,,,,d,orange,59fdb129728b1b0001ad871d,2021-09-27_13h56.12.825,forced_choiceRT_color,2021.2.3,Win32,60.12506013,,,,,,,,7,Ontime,short,d,1,2.004,0,0,0,0,1,,,,,
,1.71,,,,,,,,,f,blue,59fdb129728b1b0001ad871d,2021-09-27_13h56.12.825,forced_choiceRT_color,2021.2.3,Win32,60.12506013,,,,,,,,7,Slow,short,f,1,2.3631,0,1,1,1,1,,,,,
,1.23,,,,,,,,,d,orange,59fdb129728b1b0001ad871d,2021-09-27_13h56.12.825,forced_choiceRT_color,2021.2.3,Win32,60.12506013,,,,,,,,7,Fast,short,d,1,1.8834,0,2,2,0,1,,,,,
,0.79,,,,,,,,,f,blue,59fdb129728b1b0001ad871d,2021-09-27_13h56.12.825,forced_choiceRT_color,2021.2.3,Win32,60.12506013,,,,,,,,7,Ontime,short,f,1,1.9902,0,3,3,1,1,,,,,
,0.38,,,,,,,,,k,purple,59fdb129728b1b0001ad871d,2021-09-27_13h56.12.825,forced_choiceRT_color,2021.2.3,Win32,60.12506013,,,,,,,,7,Ontime,short,k,1,2.0179,1,0,4,3,1,,,,,
,1.18,,,,,,,,,f,blue,59fdb129728b1b0001ad871d,2021-09-27_13h56.12.825,forced_choiceRT_color,2021.2.3,Win32,60.12506013,,,,,,,,7,Ontime,short,f,1,2.0216,1,1,5,1,1,,,,,
,1.88,,,,,,,,,k,purple,59fdb129728b1b0001ad871d,2021-09-27_13h56.12.825,forced_choiceRT_color,2021.2.3,Win32,60.12506013,,,,,,,,7,Slow,short,k,1,2.4042,1,2,6,3,1,,,,,
,1.84,,,,,,,,,d,orange,59fdb129728b1b0001ad871d,2021-09-27_13h56.12.825,forced_choiceRT_color,2021.2.3,Win32,60.12506013,,,,,,,,7,Slow,short,f,0,2.3218,1,3,7,0,1,,,,,
,0.83,,,,,,,,,j,red,59fdb129728b1b0001ad871d,2021-09-27_13h56.12.825,forced_choiceRT_color,2021.2.3,Win32,60.12506013,,,,,,,,7,Fast,short,j,1,1.8402,2,0,8,2,1,,,,,
,1.96,,,,,,,,,d,orange,59fdb129728b1b0001ad871d,2021-09-27_13h56.12.825,forced_choiceRT_color,2021.2.3,Win32,60.12506013,,,,,,,,7,Slow,short,j,0,2.4533,2,1,9,0,1,,,,,
,0.15,,,,,,,,,k,purple,59fdb129728b1b0001ad871d,2021-09-27_13h56.12.825,forced_choiceRT_color,2021.2.3,Win32,60.12506013,,,,,,,,7,Ontime,short,k,1,2.0197,2,2,10,3,1,,,,,
,1.15,,,,,,,,,f,blue,59fdb129728b1b0001ad871d,2021-09-27_13h56.12.825,forced_choiceRT_color,2021.2.3,Win32,60.12506013,,,,,,,,7,Ontime,short,f,1,2.0475,2,3,11,1,1,,,,,
,1.33,,,,,,,,,d,orange,59fdb129728b1b0001ad871d,2021-09-27_13h56.12.825,forced_choiceRT_color,2021.2.3,Win32,60.12506013,,,,,,,,7,Slow,short,d,1,2.1564,3,0,12,0,1,,,,,
,1.54,,,,,,,,,f,blue,59fdb129728b1b0001ad871d,2021-09-27_13h56.12.825,forced_choiceRT_color,2021.2.3,Win32,60.12506013,,,,,,,,7,Slow,short,f,1,2.2946,3,1,13,1,1,,,,,
,0.8,,,,,,,,,j,red,59fdb129728b1b0001ad871d,2021-09-27_13h56.12.825,forced_choiceRT_color,2021.2.3,Win32,60.12506013,,,,,,,,7,Fast,short,j,1,1.8353,3,2,14,2,1,,,,,
,1.32,,,,,,,,,k,purple,59fdb129728b1b0001ad871d,2021-09-27_13h56.12.825,forced_choiceRT_color,2021.2.3,Win32,60.12506013,,,,,,,,7,Ontime,short,k,1,2.0186,3,3,15,3,1,,,,,
,1.74,,,,,,,,,j,red,59fdb129728b1b0001ad871d,2021-09-27_13h56.12.825,forced_choiceRT_color,2021.2.3,Win32,60.12506013,,,,,,,,7,Slow,short,k,0,2.2838,4,0,16,2,1,,,,,
,1.27,,,,,,,,,d,orange,59fdb129728b1b0001ad871d,2021-09-27_13h56.12.825,forced_choiceRT_color,2021.2.3,Win32,60.12506013,,,,,,,,7,Slow,short,d,1,2.2286,4,1,17,0,1,,,,,
,1.52,,,,,,,,,j,red,59fdb129728b1b0001ad871d,2021-09-27_13h56.12.825,forced_choiceRT_color,2021.2.3,Win32,60.12506013,,,,,,,,7,Slow,short,j,1,2.1519,4,2,18,2,1,,,,,
,1.17,,,,,,,,,j,red,59fdb129728b1b0001ad871d,2021-09-27_13h56.12.825,forced_choiceRT_color,2021.2.3,Win32,60.12506013,,,,,,,,7,Fast,short,j,1,1.7869,4,3,19,2,1,,,,,
,0.16,,,,,,,,,d,orange,59fdb129728b1b0001ad871d,2021-09-27_13h56.12.825,forced_choiceRT_color,2021.2.3,Win32,60.12506013,,,,,,,,7,Slow,short,d,1,2.1182,5,0,20,0,1,,,,,
,1.07,,,,,,,,,d,orange,59fdb129728b1b0001ad871d,2021-09-27_13h56.12.825,forced_choiceRT_color,2021.2.3,Win32,60.12506013,,,,,,,,7,Ontime,short,d,1,2.0853,5,1,21,0,1,,,,,
,1.82,,,,,,,,,k,purple,59fdb129728b1b0001ad871d,2021-09-27_13h56.12.825,forced_choiceRT_color,2021.2.3,Win32,60.12506013,,,,,,,,7,Slow,short,j,0,2.3667,5,2,22,3,1,,,,,
,0.26,,,,,,,,,d,orange,59fdb129728b1b0001ad871d,2021-09-27_13h56.12.825,forced_choiceRT_color,2021.2.3,Win32,60.12506013,,,,,,,,7,Fast,short,d,1,1.8713,5,3,23,0,1,,,,,
,0.04,,,,,,,,,k,purple,59fdb129728b1b0001ad871d,2021-09-27_13h56.12.825,forced_choiceRT_color,2021.2.3,Win32,60.12506013,,,,,,,,7,Slow,short,k,1,2.2058,6,0,24,3,1,,,,,
,1.59,,,,,,,,,k,purple,59fdb129728b1b0001ad871d,2021-09-27_13h56.12.825,forced_choiceRT_color,2021.2.3,Win32,60.12506013,,,,,,,,7,Slow,short,k,1,2.256,6,1,25,3,1,,,,,
,1.42,,,,,,,,,f,blue,59fdb129728b1b0001ad871d,2021-09-27_13h56.12.825,forced_choiceRT_color,2021.2.3,Win32,60.12506013,,,,,,,,7,Slow,short,f,1,2.251,6,2,26,1,1,,,,,
,0.77,,,,,,,,,j,red,59fdb129728b1b0001ad871d,2021-09-27_13h56.12.825,forced_choiceRT_color,2021.2.3,Win32,60.12506013,,,,,,,,7,Ontime,short,j,1,1.9408,6,3,27,2,1,,,,,
,0.25,,,,,,,,,k,purple,59fdb129728b1b0001ad871d,2021-09-27_13h56.12.825,forced_choiceRT_color,2021.2.3,Win32,60.12506013,,,,,,,,7,Ontime,short,k,1,2.0516,7,0,28,3,1,,,,,
,1.36,,,,,,,,,k,purple,59fdb129728b1b0001ad871d,2021-09-27_13h56.12.825,forced_choiceRT_color,2021.2.3,Win32,60.12506013,,,,,,,,7,Fast,short,k,1,1.8707,7,1,29,3,1,,,,,
,1.36,,,,,,,,,j,red,59fdb129728b1b0001ad871d,2021-09-27_13h56.12.825,forced_choiceRT_color,2021.2.3,Win32,60.12506013,,,,,,,,7,Ontime,short,j,1,2.0512,7,2,30,2,1,,,,,
,1.66,,,,,,,,,j,red,59fdb129728b1b0001ad871d,2021-09-27_13h56.12.825,forced_choiceRT_color,2021.2.3,Win32,60.12506013,,,,,,,,7,Ontime,short,j,1,2.0995,7,3,31,2,1,,,,,
,1.47,,,,,,,,,f,blue,59fdb129728b1b0001ad871d,2021-09-27_13h56.12.825,forced_choiceRT_color,2021.2.3,Win32,60.12506013,,,,,,,,7,Slow,short,f,1,2.3681,8,0,32,1,1,,,,,
,1.56,,,,,,,,,j,red,59fdb129728b1b0001ad871d,2021-09-27_13h56.12.825,forced_choiceRT_color,2021.2.3,Win32,60.12506013,,,,,,,,7,Slow,short,j,1,2.1633,8,1,33,2,1,,,,,
,1.3,,,,,,,,,f,blue,59fdb129728b1b0001ad871d,2021-09-27_13h56.12.825,forced_choiceRT_color,2021.2.3,Win32,60.12506013,,,,,,,,7,Ontime,short,f,1,1.9026,8,2,34,1,1,,,,,
,1.82,,,,,,,,,f,blue,59fdb129728b1b0001ad871d,2021-09-27_13h56.12.825,forced_choiceRT_color,2021.2.3,Win32,60.12506013,,,,,,,,7,Slow,short,f,1,2.2676,8,3,35,1,1,,,,,
,1.11,,,,,,,,,d,orange,59fdb129728b1b0001ad871d,2021-09-27_13h56.12.825,forced_choiceRT_color,2021.2.3,Win32,60.12506013,,,,,,,,7,Fast,short,d,1,1.855,9,0,36,0,1,,,,,
,0.96,,,,,,,,,j,red,59fdb129728b1b0001ad871d,2021-09-27_13h56.12.825,forced_choiceRT_color,2021.2.3,Win32,60.12506013,,,,,,,,7,Fast,short,j,1,1.6218,9,1,37,2,1,,,,,
,0.97,,,,,,,,,f,blue,59fdb129728b1b0001ad871d,2021-09-27_13h56.12.825,forced_choiceRT_color,2021.2.3,Win32,60.12506013,,,,,,,,7,Ontime,short,f,1,2.0233,9,2,38,1,1,,,,,
,0.22,,,,,,,,,k,purple,59fdb129728b1b0001ad871d,2021-09-27_13h56.12.825,forced_choiceRT_color,2021.2.3,Win32,60.12506013,,,,,,,,7,Ontime,short,k,1,2.0651,9,3,39,3,1,,,,,
,,,,,,,,,,,,59fdb129728b1b0001ad871d,2021-09-27_13h56.12.825,forced_choiceRT_color,2021.2.3,Win32,60.12506013,,,,,,,,,,,,,,,,,,,6,0,6,0,1
,1.15,,,,,,,,,k,purple,59fdb129728b1b0001ad871d,2021-09-27_13h56.12.825,forced_choiceRT_color,2021.2.3,Win32,60.12506013,,,,,,,,8,Slow,short,k,1,3.0115,0,0,0,3,1,,,,,
,1.98,,,,,,,,,d,orange,59fdb129728b1b0001ad871d,2021-09-27_13h56.12.825,forced_choiceRT_color,2021.2.3,Win32,60.12506013,,,,,,,,8,Slow,short,d,1,2.606,0,1,1,0,1,,,,,
,0.38,,,,,,,,,f,blue,59fdb129728b1b0001ad871d,2021-09-27_13h56.12.825,forced_choiceRT_color,2021.2.3,Win32,60.12506013,,,,,,,,8,Slow,short,f,1,2.162,0,2,2,1,1,,,,,
,0.47,,,,,,,,,f,blue,59fdb129728b1b0001ad871d,2021-09-27_13h56.12.825,forced_choiceRT_color,2021.2.3,Win32,60.12506013,,,,,,,,8,Ontime,short,f,1,1.9217,0,3,3,1,1,,,,,
,0.71,,,,,,,,,d,orange,59fdb129728b1b0001ad871d,2021-09-27_13h56.12.825,forced_choiceRT_color,2021.2.3,Win32,60.12506013,,,,,,,,8,Slow,short,d,1,2.2851,1,0,4,0,1,,,,,
,0.31,,,,,,,,,d,orange,59fdb129728b1b0001ad871d,2021-09-27_13h56.12.825,forced_choiceRT_color,2021.2.3,Win32,60.12506013,,,,,,,,8,Ontime,short,d,1,1.963,1,1,5,0,1,,,,,
,0.03,,,,,,,,,d,orange,59fdb129728b1b0001ad871d,2021-09-27_13h56.12.825,forced_choiceRT_color,2021.2.3,Win32,60.12506013,,,,,,,,8,Slow,short,d,1,2.3011,1,2,6,0,1,,,,,
,0.25,,,,,,,,,f,blue,59fdb129728b1b0001ad871d,2021-09-27_13h56.12.825,forced_choiceRT_color,2021.2.3,Win32,60.12506013,,,,,,,,8,Slow,short,f,1,2.344,1,3,7,1,1,,,,,
,0.92,,,,,,,,,j,red,59fdb129728b1b0001ad871d,2021-09-27_13h56.12.825,forced_choiceRT_color,2021.2.3,Win32,60.12506013,,,,,,,,8,Slow,short,j,1,2.259,2,0,8,2,1,,,,,
,1.21,,,,,,,,,j,red,59fdb129728b1b0001ad871d,2021-09-27_13h56.12.825,forced_choiceRT_color,2021.2.3,Win32,60.12506013,,,,,,,,8,Slow,short,j,1,2.5671,2,1,9,2,1,,,,,
,1.2,,,,,,,,,d,orange,59fdb129728b1b0001ad871d,2021-09-27_13h56.12.825,forced_choiceRT_color,2021.2.3,Win32,60.12506013,,,,,,,,8,Slow,short,f,0,2.7514,2,2,10,0,1,,,,,
,1.07,,,,,,,,,f,blue,59fdb129728b1b0001ad871d,2021-09-27_13h56.12.825,forced_choiceRT_color,2021.2.3,Win32,60.12506013,,,,,,,,8,Ontime,short,f,1,1.9039,2,3,11,1,1,,,,,
,1.85,,,,,,,,,f,blue,59fdb129728b1b0001ad871d,2021-09-27_13h56.12.825,forced_choiceRT_color,2021.2.3,Win32,60.12506013,,,,,,,,8,Slow,short,f,1,2.2515,3,0,12,1,1,,,,,
,0.55,,,,,,,,,k,purple,59fdb129728b1b0001ad871d,2021-09-27_13h56.12.825,forced_choiceRT_color,2021.2.3,Win32,60.12506013,,,,,,,,8,Ontime,short,k,1,1.9151,3,1,13,3,1,,,,,
,1.56,,,,,,,,,f,blue,59fdb129728b1b0001ad871d,2021-09-27_13h56.12.825,forced_choiceRT_color,2021.2.3,Win32,60.12506013,,,,,,,,8,Slow,short,f,1,2.503,3,2,14,1,1,,,,,
,0.52,,,,,,,,,d,orange,59fdb129728b1b0001ad871d,2021-09-27_13h56.12.825,forced_choiceRT_color,2021.2.3,Win32,60.12506013,,,,,,,,8,Slow,short,d,1,2.1111,3,3,15,0,1,,,,,
,0.51,,,,,,,,,k,purple,59fdb129728b1b0001ad871d,2021-09-27_13h56.12.825,forced_choiceRT_color,2021.2.3,Win32,60.12506013,,,,,,,,8,Ontime,short,k,1,2.0345,4,0,16,3,1,,,,,
,1.42,,,,,,,,,f,blue,59fdb129728b1b0001ad871d,2021-09-27_13h56.12.825,forced_choiceRT_color,2021.2.3,Win32,60.12506013,,,,,,,,8,Slow,short,f,1,2.304,4,1,17,1,1,,,,,
,1.01,,,,,,,,,j,red,59fdb129728b1b0001ad871d,2021-09-27_13h56.12.825,forced_choiceRT_color,2021.2.3,Win32,60.12506013,,,,,,,,8,Ontime,short,j,1,2.0714,4,2,18,2,1,,,,,
,1.87,,,,,,,,,j,red,59fdb129728b1b0001ad871d,2021-09-27_13h56.12.825,forced_choiceRT_color,2021.2.3,Win32,60.12506013,,,,,,,,8,Slow,short,j,1,2.4027,4,3,19,2,1,,,,,
,0.13,,,,,,,,,d,orange,59fdb129728b1b0001ad871d,2021-09-27_13h56.12.825,forced_choiceRT_color,2021.2.3,Win32,60.12506013,,,,,,,,8,Fast,short,d,1,1.7327,5,0,20,0,1,,,,,
,1.56,,,,,,,,,j,red,59fdb129728b1b0001ad871d,2021-09-27_13h56.12.825,forced_choiceRT_color,2021.2.3,Win32,60.12506013,,,,,,,,8,Slow,short,j,1,3.7016,5,1,21,2,1,,,,,
,1.56,,,,,,,,,k,purple,59fdb129728b1b0001ad871d,2021-09-27_13h56.12.825,forced_choiceRT_color,2021.2.3,Win32,60.12506013,,,,,,,,8,Slow,short,k,1,2.2468,5,2,22,3,1,,,,,
,1.86,,,,,,,,,k,purple,59fdb129728b1b0001ad871d,2021-09-27_13h56.12.825,forced_choiceRT_color,2021.2.3,Win32,60.12506013,,,,,,,,8,Slow,short,k,1,2.2242,5,3,23,3,1,,,,,
,0.71,,,,,,,,,j,red,59fdb129728b1b0001ad871d,2021-09-27_13h56.12.825,forced_choiceRT_color,2021.2.3,Win32,60.12506013,,,,,,,,8,Ontime,short,j,1,1.9699,6,0,24,2,1,,,,,
,0.32,,,,,,,,,d,orange,59fdb129728b1b0001ad871d,2021-09-27_13h56.12.825,forced_choiceRT_color,2021.2.3,Win32,60.12506013,,,,,,,,8,Ontime,short,d,1,1.9697,6,1,25,0,1,,,,,
,0.76,,,,,,,,,d,orange,59fdb129728b1b0001ad871d,2021-09-27_13h56.12.825,forced_choiceRT_color,2021.2.3,Win32,60.12506013,,,,,,,,8,Slow,short,d,1,2.2365,6,2,26,0,1,,,,,
,1.75,,,,,,,,,j,red,59fdb129728b1b0001ad871d,2021-09-27_13h56.12.825,forced_choiceRT_color,2021.2.3,Win32,60.12506013,,,,,,,,8,Slow,short,d,0,2.121,6,3,27,2,1,,,,,
,0.07,,,,,,,,,k,purple,59fdb129728b1b0001ad871d,2021-09-27_13h56.12.825,forced_choiceRT_color,2021.2.3,Win32,60.12506013,,,,,,,,8,Ontime,short,k,1,1.9563,7,0,28,3,1,,,,,
,1.09,,,,,,,,,k,purple,59fdb129728b1b0001ad871d,2021-09-27_13h56.12.825,forced_choiceRT_color,2021.2.3,Win32,60.12506013,,,,,,,,8,Ontime,short,k,1,2.0682,7,1,29,3,1,,,,,
,1.04,,,,,,,,,f,blue,59fdb129728b1b0001ad871d,2021-09-27_13h56.12.825,forced_choiceRT_color,2021.2.3,Win32,60.12506013,,,,,,,,8,Ontime,short,f,1,1.9518,7,2,30,1,1,,,,,
,0.32,,,,,,,,,f,blue,59fdb129728b1b0001ad871d,2021-09-27_13h56.12.825,forced_choiceRT_color,2021.2.3,Win32,60.12506013,,,,,,,,8,Ontime,short,f,1,1.9835,7,3,31,1,1,,,,,
,0.63,,,,,,,,,j,red,59fdb129728b1b0001ad871d,2021-09-27_13h56.12.825,forced_choiceRT_color,2021.2.3,Win32,60.12506013,,,,,,,,8,Ontime,short,j,1,2.0219,8,0,32,2,1,,,,,
,0.01,,,,,,,,,j,red,59fdb129728b1b0001ad871d,2021-09-27_13h56.12.825,forced_choiceRT_color,2021.2.3,Win32,60.12506013,,,,,,,,8,Ontime,short,j,1,2.0171,8,1,33,2,1,,,,,
,0.58,,,,,,,,,k,purple,59fdb129728b1b0001ad871d,2021-09-27_13h56.12.825,forced_choiceRT_color,2021.2.3,Win32,60.12506013,,,,,,,,8,Ontime,short,k,1,1.903,8,2,34,3,1,,,,,
,1.22,,,,,,,,,d,orange,59fdb129728b1b0001ad871d,2021-09-27_13h56.12.825,forced_choiceRT_color,2021.2.3,Win32,60.12506013,,,,,,,,8,Slow,short,f,0,2.3864,8,3,35,0,1,,,,,
,0.44,,,,,,,,,j,red,59fdb129728b1b0001ad871d,2021-09-27_13h56.12.825,forced_choiceRT_color,2021.2.3,Win32,60.12506013,,,,,,,,8,Slow,short,j,1,2.1887,9,0,36,2,1,,,,,
,0.91,,,,,,,,,f,blue,59fdb129728b1b0001ad871d,2021-09-27_13h56.12.825,forced_choiceRT_color,2021.2.3,Win32,60.12506013,,,,,,,,8,Fast,short,f,1,1.8077,9,1,37,1,1,,,,,
,1.09,,,,,,,,,k,purple,59fdb129728b1b0001ad871d,2021-09-27_13h56.12.825,forced_choiceRT_color,2021.2.3,Win32,60.12506013,,,,,,,,8,Ontime,short,k,1,1.9597,9,2,38,3,1,,,,,
,0.27,,,,,,,,,k,purple,59fdb129728b1b0001ad871d,2021-09-27_13h56.12.825,forced_choiceRT_color,2021.2.3,Win32,60.12506013,,,,,,,,8,Fast,short,k,1,1.899,9,3,39,3,1,,,,,
,,,,,,,,,,,,59fdb129728b1b0001ad871d,2021-09-27_13h56.12.825,forced_choiceRT_color,2021.2.3,Win32,60.12506013,,,,,,,,,,,,,,,,,,,7,0,7,0,1
,1.65,,,,,,,,,f,blue,59fdb129728b1b0001ad871d,2021-09-27_13h56.12.825,forced_choiceRT_color,2021.2.3,Win32,60.12506013,,,,,,,,9,Slow,short,f,1,2.5101,0,0,0,1,1,,,,,
,1.79,,,,,,,,,j,red,59fdb129728b1b0001ad871d,2021-09-27_13h56.12.825,forced_choiceRT_color,2021.2.3,Win32,60.12506013,,,,,,,,9,Slow,short,j,1,2.4393,0,1,1,2,1,,,,,
,0.87,,,,,,,,,f,blue,59fdb129728b1b0001ad871d,2021-09-27_13h56.12.825,forced_choiceRT_color,2021.2.3,Win32,60.12506013,,,,,,,,9,Fast,short,f,1,1.7996,0,2,2,1,1,,,,,
,0.2,,,,,,,,,k,purple,59fdb129728b1b0001ad871d,2021-09-27_13h56.12.825,forced_choiceRT_color,2021.2.3,Win32,60.12506013,,,,,,,,9,Slow,short,k,1,2.2898,0,3,3,3,1,,,,,
,1.03,,,,,,,,,d,orange,59fdb129728b1b0001ad871d,2021-09-27_13h56.12.825,forced_choiceRT_color,2021.2.3,Win32,60.12506013,,,,,,,,9,Slow,short,d,1,2.1176,1,0,4,0,1,,,,,
,0.03,,,,,,,,,d,orange,59fdb129728b1b0001ad871d,2021-09-27_13h56.12.825,forced_choiceRT_color,2021.2.3,Win32,60.12506013,,,,,,,,9,Ontime,short,d,1,1.9669,1,1,5,0,1,,,,,
,0.12,,,,,,,,,j,red,59fdb129728b1b0001ad871d,2021-09-27_13h56.12.825,forced_choiceRT_color,2021.2.3,Win32,60.12506013,,,,,,,,9,Ontime,short,j,1,2.0512,1,2,6,2,1,,,,,
,1.26,,,,,,,,,f,blue,59fdb129728b1b0001ad871d,2021-09-27_13h56.12.825,forced_choiceRT_color,2021.2.3,Win32,60.12506013,,,,,,,,9,Slow,short,k,0,2.1045,1,3,7,1,1,,,,,
,1.83,,,,,,,,,k,purple,59fdb129728b1b0001ad871d,2021-09-27_13h56.12.825,forced_choiceRT_color,2021.2.3,Win32,60.12506013,,,,,,,,9,Slow,short,k,1,2.3539,2,0,8,3,1,,,,,
,1.18,,,,,,,,,d,orange,59fdb129728b1b0001ad871d,2021-09-27_13h56.12.825,forced_choiceRT_color,2021.2.3,Win32,60.12506013,,,,,,,,9,Ontime,short,d,1,2.0855,2,1,9,0,1,,,,,
,1.81,,,,,,,,,k,purple,59fdb129728b1b0001ad871d,2021-09-27_13h56.12.825,forced_choiceRT_color,2021.2.3,Win32,60.12506013,,,,,,,,9,Slow,short,k,1,2.4258,2,2,10,3,1,,,,,
,1.18,,,,,,,,,f,blue,59fdb129728b1b0001ad871d,2021-09-27_13h56.12.825,forced_choiceRT_color,2021.2.3,Win32,60.12506013,,,,,,,,9,Ontime,short,f,1,2.0923,2,3,11,1,1,,,,,
,1.52,,,,,,,,,k,purple,59fdb129728b1b0001ad871d,2021-09-27_13h56.12.825,forced_choiceRT_color,2021.2.3,Win32,60.12506013,,,,,,,,9,Slow,short,k,1,2.3912,3,0,12,3,1,,,,,
,0.76,,,,,,,,,k,purple,59fdb129728b1b0001ad871d,2021-09-27_13h56.12.825,forced_choiceRT_color,2021.2.3,Win32,60.12506013,,,,,,,,9,Ontime,short,k,1,2.0726,3,1,13,3,1,,,,,
,1.69,,,,,,,,,k,purple,59fdb129728b1b0001ad871d,2021-09-27_13h56.12.825,forced_choiceRT_color,2021.2.3,Win32,60.12506013,,,,,,,,9,Slow,short,k,1,2.1515,3,2,14,3,1,,,,,
,1.18,,,,,,,,,f,blue,59fdb129728b1b0001ad871d,2021-09-27_13h56.12.825,forced_choiceRT_color,2021.2.3,Win32,60.12506013,,,,,,,,9,Ontime,short,j,0,1.926,3,3,15,1,1,,,,,
,1.85,,,,,,,,,d,orange,59fdb129728b1b0001ad871d,2021-09-27_13h56.12.825,forced_choiceRT_color,2021.2.3,Win32,60.12506013,,,,,,,,9,Slow,short,d,1,2.4378,4,0,16,0,1,,,,,
,0.75,,,,,,,,,j,red,59fdb129728b1b0001ad871d,2021-09-27_13h56.12.825,forced_choiceRT_color,2021.2.3,Win32,60.12506013,,,,,,,,9,Ontime,short,j,1,1.9409,4,1,17,2,1,,,,,
,0.42,,,,,,,,,f,blue,59fdb129728b1b0001ad871d,2021-09-27_13h56.12.825,forced_choiceRT_color,2021.2.3,Win32,60.12506013,,,,,,,,9,Ontime,short,f,1,2.0016,4,2,18,1,1,,,,,
,1.47,,,,,,,,,j,red,59fdb129728b1b0001ad871d,2021-09-27_13h56.12.825,forced_choiceRT_color,2021.2.3,Win32,60.12506013,,,,,,,,9,Slow,short,j,1,2.4686,4,3,19,2,1,,,,,
,1.05,,,,,,,,,j,red,59fdb129728b1b0001ad871d,2021-09-27_13h56.12.825,forced_choiceRT_color,2021.2.3,Win32,60.12506013,,,,,,,,9,Ontime,short,j,1,2.0462,5,0,20,2,1,,,,,
,1.53,,,,,,,,,d,orange,59fdb129728b1b0001ad871d,2021-09-27_13h56.12.825,forced_choiceRT_color,2021.2.3,Win32,60.12506013,,,,,,,,9,Slow,short,d,1,2.1655,5,1,21,0,1,,,,,
,0.33,,,,,,,,,d,orange,59fdb129728b1b0001ad871d,2021-09-27_13h56.12.825,forced_choiceRT_color,2021.2.3,Win32,60.12506013,,,,,,,,9,Ontime,short,d,1,1.9511,5,2,22,0,1,,,,,
,0.9,,,,,,,,,f,blue,59fdb129728b1b0001ad871d,2021-09-27_13h56.12.825,forced_choiceRT_color,2021.2.3,Win32,60.12506013,,,,,,,,9,Slow,short,f,1,2.3544,5,3,23,1,1,,,,,
,1.94,,,,,,,,,k,purple,59fdb129728b1b0001ad871d,2021-09-27_13h56.12.825,forced_choiceRT_color,2021.2.3,Win32,60.12506013,,,,,,,,9,Slow,short,k,1,2.4508,6,0,24,3,1,,,,,
,0.1,,,,,,,,,f,blue,59fdb129728b1b0001ad871d,2021-09-27_13h56.12.825,forced_choiceRT_color,2021.2.3,Win32,60.12506013,,,,,,,,9,Ontime,short,f,1,1.9653,6,1,25,1,1,,,,,
,0.49,,,,,,,,,d,orange,59fdb129728b1b0001ad871d,2021-09-27_13h56.12.825,forced_choiceRT_color,2021.2.3,Win32,60.12506013,,,,,,,,9,Slow,short,d,1,2.3704,6,2,26,0,1,,,,,
,1.36,,,,,,,,,j,red,59fdb129728b1b0001ad871d,2021-09-27_13h56.12.825,forced_choiceRT_color,2021.2.3,Win32,60.12506013,,,,,,,,9,Slow,short,k,0,2.2809,6,3,27,2,1,,,,,
,0.78,,,,,,,,,f,blue,59fdb129728b1b0001ad871d,2021-09-27_13h56.12.825,forced_choiceRT_color,2021.2.3,Win32,60.12506013,,,,,,,,9,Ontime,short,f,1,2.0399,7,0,28,1,1,,,,,
,0.46,,,,,,,,,d,orange,59fdb129728b1b0001ad871d,2021-09-27_13h56.12.825,forced_choiceRT_color,2021.2.3,Win32,60.12506013,,,,,,,,9,Ontime,short,d,1,1.934,7,1,29,0,1,,,,,
,0.74,,,,,,,,,k,purple,59fdb129728b1b0001ad871d,2021-09-27_13h56.12.825,forced_choiceRT_color,2021.2.3,Win32,60.12506013,,,,,,,,9,Ontime,short,k,1,2.068,7,2,30,3,1,,,,,
,1,,,,,,,,,j,red,59fdb129728b1b0001ad871d,2021-09-27_13h56.12.825,forced_choiceRT_color,2021.2.3,Win32,60.12506013,,,,,,,,9,Slow,short,j,1,2.5028,7,3,31,2,1,,,,,
,0.35,,,,,,,,,j,red,59fdb129728b1b0001ad871d,2021-09-27_13h56.12.825,forced_choiceRT_color,2021.2.3,Win32,60.12506013,,,,,,,,9,Fast,short,j,1,1.8863,8,0,32,2,1,,,,,
,0.2,,,,,,,,,k,purple,59fdb129728b1b0001ad871d,2021-09-27_13h56.12.825,forced_choiceRT_color,2021.2.3,Win32,60.12506013,,,,,,,,9,Fast,short,k,1,1.8293,8,1,33,3,1,,,,,
,0.4,,,,,,,,,d,orange,59fdb129728b1b0001ad871d,2021-09-27_13h56.12.825,forced_choiceRT_color,2021.2.3,Win32,60.12506013,,,,,,,,9,Ontime,short,d,1,1.9842,8,2,34,0,1,,,,,
,1.69,,,,,,,,,d,orange,59fdb129728b1b0001ad871d,2021-09-27_13h56.12.825,forced_choiceRT_color,2021.2.3,Win32,60.12506013,,,,,,,,9,Slow,short,d,1,2.1491,8,3,35,0,1,,,,,
,0.17,,,,,,,,,f,blue,59fdb129728b1b0001ad871d,2021-09-27_13h56.12.825,forced_choiceRT_color,2021.2.3,Win32,60.12506013,,,,,,,,9,Ontime,short,f,1,1.952,9,0,36,1,1,,,,,
,0.46,,,,,,,,,j,red,59fdb129728b1b0001ad871d,2021-09-27_13h56.12.825,forced_choiceRT_color,2021.2.3,Win32,60.12506013,,,,,,,,9,Ontime,short,j,1,2.0152,9,1,37,2,1,,,,,
,0.23,,,,,,,,,j,red,59fdb129728b1b0001ad871d,2021-09-27_13h56.12.825,forced_choiceRT_color,2021.2.3,Win32,60.12506013,,,,,,,,9,Fast,short,j,1,1.8548,9,2,38,2,1,,,,,
,1.05,,,,,,,,,k,purple,59fdb129728b1b0001ad871d,2021-09-27_13h56.12.825,forced_choiceRT_color,2021.2.3,Win32,60.12506013,,,,,,,,9,Fast,short,k,1,1.8553,9,3,39,3,1,,,,,
,,,,,,,,,,,,59fdb129728b1b0001ad871d,2021-09-27_13h56.12.825,forced_choiceRT_color,2021.2.3,Win32,60.12506013,,,,,,,,,,,,,,,,,,,8,0,8,0,1
,0.12,,,,,,,,,d,orange,59fdb129728b1b0001ad871d,2021-09-27_13h56.12.825,forced_choiceRT_color,2021.2.3,Win32,60.12506013,,,,,,,,10,Ontime,short,d,1,1.9693,0,0,0,0,1,,,,,
,0.6,,,,,,,,,j,red,59fdb129728b1b0001ad871d,2021-09-27_13h56.12.825,forced_choiceRT_color,2021.2.3,Win32,60.12506013,,,,,,,,10,Ontime,short,j,1,1.9992,0,1,1,2,1,,,,,
,0.28,,,,,,,,,d,orange,59fdb129728b1b0001ad871d,2021-09-27_13h56.12.825,forced_choiceRT_color,2021.2.3,Win32,60.12506013,,,,,,,,10,Fast,short,d,1,1.8841,0,2,2,0,1,,,,,
,1.55,,,,,,,,,d,orange,59fdb129728b1b0001ad871d,2021-09-27_13h56.12.825,forced_choiceRT_color,2021.2.3,Win32,60.12506013,,,,,,,,10,Ontime,short,j,0,2.0259,0,3,3,0,1,,,,,
,0.17,,,,,,,,,f,blue,59fdb129728b1b0001ad871d,2021-09-27_13h56.12.825,forced_choiceRT_color,2021.2.3,Win32,60.12506013,,,,,,,,10,Slow,short,f,1,2.1168,1,0,4,1,1,,,,,
,1.51,,,,,,,,,d,orange,59fdb129728b1b0001ad871d,2021-09-27_13h56.12.825,forced_choiceRT_color,2021.2.3,Win32,60.12506013,,,,,,,,10,Slow,short,d,1,2.1321,1,1,5,0,1,,,,,
,0.96,,,,,,,,,j,red,59fdb129728b1b0001ad871d,2021-09-27_13h56.12.825,forced_choiceRT_color,2021.2.3,Win32,60.12506013,,,,,,,,10,Slow,short,j,1,2.1692,1,2,6,2,1,,,,,
,0.09,,,,,,,,,f,blue,59fdb129728b1b0001ad871d,2021-09-27_13h56.12.825,forced_choiceRT_color,2021.2.3,Win32,60.12506013,,,,,,,,10,Slow,short,f,1,2.1364,1,3,7,1,1,,,,,
,1.4,,,,,,,,,k,purple,59fdb129728b1b0001ad871d,2021-09-27_13h56.12.825,forced_choiceRT_color,2021.2.3,Win32,60.12506013,,,,,,,,10,Ontime,short,k,1,2.0369,2,0,8,3,1,,,,,
,0.29,,,,,,,,,d,orange,59fdb129728b1b0001ad871d,2021-09-27_13h56.12.825,forced_choiceRT_color,2021.2.3,Win32,60.12506013,,,,,,,,10,Ontime,short,d,1,2.0061,2,1,9,0,1,,,,,
,1.5,,,,,,,,,f,blue,59fdb129728b1b0001ad871d,2021-09-27_13h56.12.825,forced_choiceRT_color,2021.2.3,Win32,60.12506013,,,,,,,,10,Ontime,short,f,1,2.0966,2,2,10,1,1,,,,,
,1.48,,,,,,,,,d,orange,59fdb129728b1b0001ad871d,2021-09-27_13h56.12.825,forced_choiceRT_color,2021.2.3,Win32,60.12506013,,,,,,,,10,Slow,short,d,1,2.1733,2,3,11,0,1,,,,,
,0.09,,,,,,,,,f,blue,59fdb129728b1b0001ad871d,2021-09-27_13h56.12.825,forced_choiceRT_color,2021.2.3,Win32,60.12506013,,,,,,,,10,Ontime,short,f,1,1.9024,3,0,12,1,1,,,,,
,0.36,,,,,,,,,k,purple,59fdb129728b1b0001ad871d,2021-09-27_13h56.12.825,forced_choiceRT_color,2021.2.3,Win32,60.12506013,,,,,,,,10,Fast,short,k,1,1.8891,3,1,13,3,1,,,,,
,0.6,,,,,,,,,k,purple,59fdb129728b1b0001ad871d,2021-09-27_13h56.12.825,forced_choiceRT_color,2021.2.3,Win32,60.12506013,,,,,,,,10,Slow,short,k,1,2.1346,3,2,14,3,1,,,,,
,0.69,,,,,,,,,j,red,59fdb129728b1b0001ad871d,2021-09-27_13h56.12.825,forced_choiceRT_color,2021.2.3,Win32,60.12506013,,,,,,,,10,Ontime,short,j,1,2.0675,3,3,15,2,1,,,,,
,1.26,,,,,,,,,d,orange,59fdb129728b1b0001ad871d,2021-09-27_13h56.12.825,forced_choiceRT_color,2021.2.3,Win32,60.12506013,,,,,,,,10,Ontime,short,d,1,2.0541,4,0,16,0,1,,,,,
,0.12,,,,,,,,,j,red,59fdb129728b1b0001ad871d,2021-09-27_13h56.12.825,forced_choiceRT_color,2021.2.3,Win32,60.12506013,,,,,,,,10,Fast,short,j,1,1.8984,4,1,17,2,1,,,,,
,1.18,,,,,,,,,j,red,59fdb129728b1b0001ad871d,2021-09-27_13h56.12.825,forced_choiceRT_color,2021.2.3,Win32,60.12506013,,,,,,,,10,Ontime,short,j,1,2.0189,4,2,18,2,1,,,,,
,1.63,,,,,,,,,k,purple,59fdb129728b1b0001ad871d,2021-09-27_13h56.12.825,forced_choiceRT_color,2021.2.3,Win32,60.12506013,,,,,,,,10,Slow,short,f,0,2.2595,4,3,19,3,1,,,,,
,1.35,,,,,,,,,j,red,59fdb129728b1b0001ad871d,2021-09-27_13h56.12.825,forced_choiceRT_color,2021.2.3,Win32,60.12506013,,,,,,,,10,Slow,short,j,1,2.1086,5,0,20,2,1,,,,,
,0.95,,,,,,,,,j,red,59fdb129728b1b0001ad871d,2021-09-27_13h56.12.825,forced_choiceRT_color,2021.2.3,Win32,60.12506013,,,,,,,,10,Ontime,short,j,1,1.9348,5,1,21,2,1,,,,,
,0.99,,,,,,,,,f,blue,59fdb129728b1b0001ad871d,2021-09-27_13h56.12.825,forced_choiceRT_color,2021.2.3,Win32,60.12506013,,,,,,,,10,Ontime,short,f,1,1.9712,5,2,22,1,1,,,,,
,0.8,,,,,,,,,k,purple,59fdb129728b1b0001ad871d,2021-09-27_13h56.12.825,forced_choiceRT_color,2021.2.3,Win32,60.12506013,,,,,,,,10,Fast,short,k,1,1.8515,5,3,23,3,1,,,,,
,1.58,,,,,,,,,j,red,59fdb129728b1b0001ad871d,2021-09-27_13h56.12.825,forced_choiceRT_color,2021.2.3,Win32,60.12506013,,,,,,,,10,Slow,short,j,1,2.2406,6,0,24,2,1,,,,,
,1.53,,,,,,,,,f,blue,59fdb129728b1b0001ad871d,2021-09-27_13h56.12.825,forced_choiceRT_color,2021.2.3,Win32,60.12506013,,,,,,,,10,Slow,short,f,1,2.4749,6,1,25,1,1,,,,,
,1.49,,,,,,,,,f,blue,59fdb129728b1b0001ad871d,2021-09-27_13h56.12.825,forced_choiceRT_color,2021.2.3,Win32,60.12506013,,,,,,,,10,Ontime,short,f,1,2.0269,6,2,26,1,1,,,,,
,1.01,,,,,,,,,k,purple,59fdb129728b1b0001ad871d,2021-09-27_13h56.12.825,forced_choiceRT_color,2021.2.3,Win32,60.12506013,,,,,,,,10,Slow,short,k,1,2.253,6,3,27,3,1,,,,,
,1.04,,,,,,,,,f,blue,59fdb129728b1b0001ad871d,2021-09-27_13h56.12.825,forced_choiceRT_color,2021.2.3,Win32,60.12506013,,,,,,,,10,Fast,short,f,1,1.7861,7,0,28,1,1,,,,,
,0.61,,,,,,,,,f,blue,59fdb129728b1b0001ad871d,2021-09-27_13h56.12.825,forced_choiceRT_color,2021.2.3,Win32,60.12506013,,,,,,,,10,Ontime,short,f,1,1.9581,7,1,29,1,1,,,,,
,0.15,,,,,,,,,k,purple,59fdb129728b1b0001ad871d,2021-09-27_13h56.12.825,forced_choiceRT_color,2021.2.3,Win32,60.12506013,,,,,,,,10,Fast,short,k,1,1.7526,7,2,30,3,1,,,,,
,0.78,,,,,,,,,f,blue,59fdb129728b1b0001ad871d,2021-09-27_13h56.12.825,forced_choiceRT_color,2021.2.3,Win32,60.12506013,,,,,,,,10,Fast,short,f,1,1.7009,7,3,31,1,1,,,,,
,1.01,,,,,,,,,k,purple,59fdb129728b1b0001ad871d,2021-09-27_13h56.12.825,forced_choiceRT_color,2021.2.3,Win32,60.12506013,,,,,,,,10,Ontime,short,k,1,2.0177,8,0,32,3,1,,,,,
,1.18,,,,,,,,,k,purple,59fdb129728b1b0001ad871d,2021-09-27_13h56.12.825,forced_choiceRT_color,2021.2.3,Win32,60.12506013,,,,,,,,10,Slow,short,k,1,2.3229,8,1,33,3,1,,,,,
,0.48,,,,,,,,,j,red,59fdb129728b1b0001ad871d,2021-09-27_13h56.12.825,forced_choiceRT_color,2021.2.3,Win32,60.12506013,,,,,,,,10,Fast,short,j,1,1.5347,8,2,34,2,1,,,,,
,1.54,,,,,,,,,d,orange,59fdb129728b1b0001ad871d,2021-09-27_13h56.12.825,forced_choiceRT_color,2021.2.3,Win32,60.12506013,,,,,,,,10,Slow,short,f,0,2.1408,8,3,35,0,1,,,,,
,0.32,,,,,,,,,d,orange,59fdb129728b1b0001ad871d,2021-09-27_13h56.12.825,forced_choiceRT_color,2021.2.3,Win32,60.12506013,,,,,,,,10,Ontime,short,d,1,1.9324,9,0,36,0,1,,,,,
,0.69,,,,,,,,,j,red,59fdb129728b1b0001ad871d,2021-09-27_13h56.12.825,forced_choiceRT_color,2021.2.3,Win32,60.12506013,,,,,,,,10,Ontime,short,j,1,2.0247,9,1,37,2,1,,,,,
,0.03,,,,,,,,,k,purple,59fdb129728b1b0001ad871d,2021-09-27_13h56.12.825,forced_choiceRT_color,2021.2.3,Win32,60.12506013,,,,,,,,10,Ontime,short,k,1,2.0861,9,2,38,3,1,,,,,
,1.29,,,,,,,,,d,orange,59fdb129728b1b0001ad871d,2021-09-27_13h56.12.825,forced_choiceRT_color,2021.2.3,Win32,60.12506013,,,,,,,,10,Ontime,short,d,1,1.9395,9,3,39,0,1,,,,,
,,,,,,,,,,,,59fdb129728b1b0001ad871d,2021-09-27_13h56.12.825,forced_choiceRT_color,2021.2.3,Win32,60.12506013,,,,,,,,,,,,,,,,,,,9,0,9,0,1
