IP_Addresss,target_onset,trial_resp_sp.keys,trial_resp_sp.corr,trial_resp_sp.rt,trials_train_loop.thisRepN,trials_train_loop.thisTrialN,trials_train_loop.thisN,trials_train_loop.thisIndex,trials_train_loop.ran,correct_key,color,participant,date,expName,psychopyVersion,OS,frameRate,trial_resp_timing.keys,trial_resp_timing.rt,trials_train_timing.thisRepN,trials_train_timing.thisTrialN,trials_train_timing.thisN,trials_train_timing.thisIndex,trials_train_timing.ran,block_id,ontime,feedback_cond,forcedRT_resp.keys,forcedRT_resp.corr,forcedRT_resp.rt,trials.thisRepN,trials.thisTrialN,trials.thisN,trials.thisIndex,trials.ran,blocks.thisRepN,blocks.thisTrialN,blocks.thisN,blocks.thisIndex,blocks.ran
73.71.180.34,0,d,1,1.0594,0,0,0,0,1,d,orange,5a1e5764074b1900012532c2,2021-09-27_10h11.44.684,forced_choiceRT_color,2021.2.3,Win32,58.27166249,,,,,,,,,,,,,,,,,,,,,,,
,0,f,0,1.1215,0,1,1,0,1,d,orange,5a1e5764074b1900012532c2,2021-09-27_10h11.44.684,forced_choiceRT_color,2021.2.3,Win32,58.27166249,,,,,,,,,,,,,,,,,,,,,,,
,0,k,1,1.9735,0,2,2,3,1,k,purple,5a1e5764074b1900012532c2,2021-09-27_10h11.44.684,forced_choiceRT_color,2021.2.3,Win32,58.27166249,,,,,,,,,,,,,,,,,,,,,,,
,0,j,1,2.0296,0,3,3,2,1,j,red,5a1e5764074b1900012532c2,2021-09-27_10h11.44.684,forced_choiceRT_color,2021.2.3,Win32,58.27166249,,,,,,,,,,,,,,,,,,,,,,,
,0,d,1,0.9494,1,0,4,0,1,d,orange,5a1e5764074b1900012532c2,2021-09-27_10h11.44.684,forced_choiceRT_color,2021.2.3,Win32,58.27166249,,,,,,,,,,,,,,,,,,,,,,,
,0,k,1,1.071,1,1,5,3,1,k,purple,5a1e5764074b1900012532c2,2021-09-27_10h11.44.684,forced_choiceRT_color,2021.2.3,Win32,58.27166249,,,,,,,,,,,,,,,,,,,,,,,
,0,f,1,1.6473,1,2,6,1,1,f,blue,5a1e5764074b1900012532c2,2021-09-27_10h11.44.684,forced_choiceRT_color,2021.2.3,Win32,58.27166249,,,,,,,,,,,,,,,,,,,,,,,
,0,k,1,0.996,1,3,7,3,1,k,purple,5a1e5764074b1900012532c2,2021-09-27_10h11.44.684,forced_choiceRT_color,2021.2.3,Win32,58.27166249,,,,,,,,,,,,,,,,,,,,,,,
,0,f,1,1.2632,2,0,8,1,1,f,blue,5a1e5764074b1900012532c2,2021-09-27_10h11.44.684,forced_choiceRT_color,2021.2.3,Win32,58.27166249,,,,,,,,,,,,,,,,,,,,,,,
,0,d,1,0.9617,2,1,9,0,1,d,orange,5a1e5764074b1900012532c2,2021-09-27_10h11.44.684,forced_choiceRT_color,2021.2.3,Win32,58.27166249,,,,,,,,,,,,,,,,,,,,,,,
,0,j,1,1.6138,2,2,10,2,1,j,red,5a1e5764074b1900012532c2,2021-09-27_10h11.44.684,forced_choiceRT_color,2021.2.3,Win32,58.27166249,,,,,,,,,,,,,,,,,,,,,,,
,0,f,1,1.6829,2,3,11,1,1,f,blue,5a1e5764074b1900012532c2,2021-09-27_10h11.44.684,forced_choiceRT_color,2021.2.3,Win32,58.27166249,,,,,,,,,,,,,,,,,,,,,,,
,0,f,1,0.8329,3,0,12,1,1,f,blue,5a1e5764074b1900012532c2,2021-09-27_10h11.44.684,forced_choiceRT_color,2021.2.3,Win32,58.27166249,,,,,,,,,,,,,,,,,,,,,,,
,0,j,1,1.14,3,1,13,2,1,j,red,5a1e5764074b1900012532c2,2021-09-27_10h11.44.684,forced_choiceRT_color,2021.2.3,Win32,58.27166249,,,,,,,,,,,,,,,,,,,,,,,
,0,k,1,0.6543,3,2,14,3,1,k,purple,5a1e5764074b1900012532c2,2021-09-27_10h11.44.684,forced_choiceRT_color,2021.2.3,Win32,58.27166249,,,,,,,,,,,,,,,,,,,,,,,
,0,k,1,0.8268,3,3,15,3,1,k,purple,5a1e5764074b1900012532c2,2021-09-27_10h11.44.684,forced_choiceRT_color,2021.2.3,Win32,58.27166249,,,,,,,,,,,,,,,,,,,,,,,
,0,j,1,2.7061,4,0,16,2,1,j,red,5a1e5764074b1900012532c2,2021-09-27_10h11.44.684,forced_choiceRT_color,2021.2.3,Win32,58.27166249,,,,,,,,,,,,,,,,,,,,,,,
,0,d,1,0.9318,4,1,17,0,1,d,orange,5a1e5764074b1900012532c2,2021-09-27_10h11.44.684,forced_choiceRT_color,2021.2.3,Win32,58.27166249,,,,,,,,,,,,,,,,,,,,,,,
,0,j,1,1.0372,4,2,18,2,1,j,red,5a1e5764074b1900012532c2,2021-09-27_10h11.44.684,forced_choiceRT_color,2021.2.3,Win32,58.27166249,,,,,,,,,,,,,,,,,,,,,,,
,0,d,1,1.6529,4,3,19,0,1,d,orange,5a1e5764074b1900012532c2,2021-09-27_10h11.44.684,forced_choiceRT_color,2021.2.3,Win32,58.27166249,,,,,,,,,,,,,,,,,,,,,,,
,0,d,1,0.9324,5,0,20,0,1,d,orange,5a1e5764074b1900012532c2,2021-09-27_10h11.44.684,forced_choiceRT_color,2021.2.3,Win32,58.27166249,,,,,,,,,,,,,,,,,,,,,,,
,0,d,1,0.7319,5,1,21,0,1,d,orange,5a1e5764074b1900012532c2,2021-09-27_10h11.44.684,forced_choiceRT_color,2021.2.3,Win32,58.27166249,,,,,,,,,,,,,,,,,,,,,,,
,0,j,1,1.0174,5,2,22,2,1,j,red,5a1e5764074b1900012532c2,2021-09-27_10h11.44.684,forced_choiceRT_color,2021.2.3,Win32,58.27166249,,,,,,,,,,,,,,,,,,,,,,,
,0,j,1,0.9359,5,3,23,2,1,j,red,5a1e5764074b1900012532c2,2021-09-27_10h11.44.684,forced_choiceRT_color,2021.2.3,Win32,58.27166249,,,,,,,,,,,,,,,,,,,,,,,
,0,j,1,0.7311,6,0,24,2,1,j,red,5a1e5764074b1900012532c2,2021-09-27_10h11.44.684,forced_choiceRT_color,2021.2.3,Win32,58.27166249,,,,,,,,,,,,,,,,,,,,,,,
,0,k,1,0.8975,6,1,25,3,1,k,purple,5a1e5764074b1900012532c2,2021-09-27_10h11.44.684,forced_choiceRT_color,2021.2.3,Win32,58.27166249,,,,,,,,,,,,,,,,,,,,,,,
,0,k,1,0.5146,6,2,26,3,1,k,purple,5a1e5764074b1900012532c2,2021-09-27_10h11.44.684,forced_choiceRT_color,2021.2.3,Win32,58.27166249,,,,,,,,,,,,,,,,,,,,,,,
,0,d,1,0.953,6,3,27,0,1,d,orange,5a1e5764074b1900012532c2,2021-09-27_10h11.44.684,forced_choiceRT_color,2021.2.3,Win32,58.27166249,,,,,,,,,,,,,,,,,,,,,,,
,0,k,1,1.0086,7,0,28,3,1,k,purple,5a1e5764074b1900012532c2,2021-09-27_10h11.44.684,forced_choiceRT_color,2021.2.3,Win32,58.27166249,,,,,,,,,,,,,,,,,,,,,,,
,0,f,1,2.914,7,1,29,1,1,f,blue,5a1e5764074b1900012532c2,2021-09-27_10h11.44.684,forced_choiceRT_color,2021.2.3,Win32,58.27166249,,,,,,,,,,,,,,,,,,,,,,,
,0,d,1,0.8804,7,2,30,0,1,d,orange,5a1e5764074b1900012532c2,2021-09-27_10h11.44.684,forced_choiceRT_color,2021.2.3,Win32,58.27166249,,,,,,,,,,,,,,,,,,,,,,,
,0,f,1,1.514,7,3,31,1,1,f,blue,5a1e5764074b1900012532c2,2021-09-27_10h11.44.684,forced_choiceRT_color,2021.2.3,Win32,58.27166249,,,,,,,,,,,,,,,,,,,,,,,
,0,f,1,0.8196,8,0,32,1,1,f,blue,5a1e5764074b1900012532c2,2021-09-27_10h11.44.684,forced_choiceRT_color,2021.2.3,Win32,58.27166249,,,,,,,,,,,,,,,,,,,,,,,
,0,k,1,1.0229,8,1,33,3,1,k,purple,5a1e5764074b1900012532c2,2021-09-27_10h11.44.684,forced_choiceRT_color,2021.2.3,Win32,58.27166249,,,,,,,,,,,,,,,,,,,,,,,
,0,d,1,1.2172,8,2,34,0,1,d,orange,5a1e5764074b1900012532c2,2021-09-27_10h11.44.684,forced_choiceRT_color,2021.2.3,Win32,58.27166249,,,,,,,,,,,,,,,,,,,,,,,
,0,f,1,0.9194,8,3,35,1,1,f,blue,5a1e5764074b1900012532c2,2021-09-27_10h11.44.684,forced_choiceRT_color,2021.2.3,Win32,58.27166249,,,,,,,,,,,,,,,,,,,,,,,
,0,f,1,0.8263,9,0,36,1,1,f,blue,5a1e5764074b1900012532c2,2021-09-27_10h11.44.684,forced_choiceRT_color,2021.2.3,Win32,58.27166249,,,,,,,,,,,,,,,,,,,,,,,
,0,j,1,1.0909,9,1,37,2,1,j,red,5a1e5764074b1900012532c2,2021-09-27_10h11.44.684,forced_choiceRT_color,2021.2.3,Win32,58.27166249,,,,,,,,,,,,,,,,,,,,,,,
,0,j,1,0.6007,9,2,38,2,1,j,red,5a1e5764074b1900012532c2,2021-09-27_10h11.44.684,forced_choiceRT_color,2021.2.3,Win32,58.27166249,,,,,,,,,,,,,,,,,,,,,,,
,0,k,1,0.67,9,3,39,3,1,k,purple,5a1e5764074b1900012532c2,2021-09-27_10h11.44.684,forced_choiceRT_color,2021.2.3,Win32,58.27166249,,,,,,,,,,,,,,,,,,,,,,,
,0,k,0,0.4081,10,0,40,0,1,d,orange,5a1e5764074b1900012532c2,2021-09-27_10h11.44.684,forced_choiceRT_color,2021.2.3,Win32,58.27166249,,,,,,,,,,,,,,,,,,,,,,,
,0,f,1,1.4809,10,1,41,1,1,f,blue,5a1e5764074b1900012532c2,2021-09-27_10h11.44.684,forced_choiceRT_color,2021.2.3,Win32,58.27166249,,,,,,,,,,,,,,,,,,,,,,,
,0,k,1,1.0832,10,2,42,3,1,k,purple,5a1e5764074b1900012532c2,2021-09-27_10h11.44.684,forced_choiceRT_color,2021.2.3,Win32,58.27166249,,,,,,,,,,,,,,,,,,,,,,,
,0,f,1,1.07,10,3,43,1,1,f,blue,5a1e5764074b1900012532c2,2021-09-27_10h11.44.684,forced_choiceRT_color,2021.2.3,Win32,58.27166249,,,,,,,,,,,,,,,,,,,,,,,
,0,f,1,0.7478,11,0,44,1,1,f,blue,5a1e5764074b1900012532c2,2021-09-27_10h11.44.684,forced_choiceRT_color,2021.2.3,Win32,58.27166249,,,,,,,,,,,,,,,,,,,,,,,
,0,j,1,1.2732,11,1,45,2,1,j,red,5a1e5764074b1900012532c2,2021-09-27_10h11.44.684,forced_choiceRT_color,2021.2.3,Win32,58.27166249,,,,,,,,,,,,,,,,,,,,,,,
,0,d,1,0.9039,11,2,46,0,1,d,orange,5a1e5764074b1900012532c2,2021-09-27_10h11.44.684,forced_choiceRT_color,2021.2.3,Win32,58.27166249,,,,,,,,,,,,,,,,,,,,,,,
,0,f,1,0.8976,11,3,47,1,1,f,blue,5a1e5764074b1900012532c2,2021-09-27_10h11.44.684,forced_choiceRT_color,2021.2.3,Win32,58.27166249,,,,,,,,,,,,,,,,,,,,,,,
,0,j,1,1.0473,12,0,48,2,1,j,red,5a1e5764074b1900012532c2,2021-09-27_10h11.44.684,forced_choiceRT_color,2021.2.3,Win32,58.27166249,,,,,,,,,,,,,,,,,,,,,,,
,0,f,1,1.0834,12,1,49,1,1,f,blue,5a1e5764074b1900012532c2,2021-09-27_10h11.44.684,forced_choiceRT_color,2021.2.3,Win32,58.27166249,,,,,,,,,,,,,,,,,,,,,,,
,0,k,1,1.1405,12,2,50,3,1,k,purple,5a1e5764074b1900012532c2,2021-09-27_10h11.44.684,forced_choiceRT_color,2021.2.3,Win32,58.27166249,,,,,,,,,,,,,,,,,,,,,,,
,0,d,1,0.9146,12,3,51,0,1,d,orange,5a1e5764074b1900012532c2,2021-09-27_10h11.44.684,forced_choiceRT_color,2021.2.3,Win32,58.27166249,,,,,,,,,,,,,,,,,,,,,,,
,0,j,1,0.974,13,0,52,2,1,j,red,5a1e5764074b1900012532c2,2021-09-27_10h11.44.684,forced_choiceRT_color,2021.2.3,Win32,58.27166249,,,,,,,,,,,,,,,,,,,,,,,
,0,j,1,0.9175,13,1,53,2,1,j,red,5a1e5764074b1900012532c2,2021-09-27_10h11.44.684,forced_choiceRT_color,2021.2.3,Win32,58.27166249,,,,,,,,,,,,,,,,,,,,,,,
,0,j,1,1.1044,13,2,54,2,1,j,red,5a1e5764074b1900012532c2,2021-09-27_10h11.44.684,forced_choiceRT_color,2021.2.3,Win32,58.27166249,,,,,,,,,,,,,,,,,,,,,,,
,0,k,1,0.8472,13,3,55,3,1,k,purple,5a1e5764074b1900012532c2,2021-09-27_10h11.44.684,forced_choiceRT_color,2021.2.3,Win32,58.27166249,,,,,,,,,,,,,,,,,,,,,,,
,0,k,1,0.6642,14,0,56,3,1,k,purple,5a1e5764074b1900012532c2,2021-09-27_10h11.44.684,forced_choiceRT_color,2021.2.3,Win32,58.27166249,,,,,,,,,,,,,,,,,,,,,,,
,0,k,1,0.7812,14,1,57,3,1,k,purple,5a1e5764074b1900012532c2,2021-09-27_10h11.44.684,forced_choiceRT_color,2021.2.3,Win32,58.27166249,,,,,,,,,,,,,,,,,,,,,,,
,0,f,1,0.9827,14,2,58,1,1,f,blue,5a1e5764074b1900012532c2,2021-09-27_10h11.44.684,forced_choiceRT_color,2021.2.3,Win32,58.27166249,,,,,,,,,,,,,,,,,,,,,,,
,0,d,1,0.9733,14,3,59,0,1,d,orange,5a1e5764074b1900012532c2,2021-09-27_10h11.44.684,forced_choiceRT_color,2021.2.3,Win32,58.27166249,,,,,,,,,,,,,,,,,,,,,,,
,,,,,,,,,,,,5a1e5764074b1900012532c2,2021-09-27_10h11.44.684,forced_choiceRT_color,2021.2.3,Win32,58.27166249,j,0.154,0,0,0,0,1,,,,,,,,,,,,,,,,
,,,,,,,,,,,,5a1e5764074b1900012532c2,2021-09-27_10h11.44.684,forced_choiceRT_color,2021.2.3,Win32,58.27166249,d,1.8642,1,0,1,0,1,,,,,,,,,,,,,,,,
,,,,,,,,,,,,5a1e5764074b1900012532c2,2021-09-27_10h11.44.684,forced_choiceRT_color,2021.2.3,Win32,58.27166249,d,2.2566,2,0,2,0,1,,,,,,,,,,,,,,,,
,,,,,,,,,,,,5a1e5764074b1900012532c2,2021-09-27_10h11.44.684,forced_choiceRT_color,2021.2.3,Win32,58.27166249,f,1.7724,3,0,3,0,1,,,,,,,,,,,,,,,,
,,,,,,,,,,,,5a1e5764074b1900012532c2,2021-09-27_10h11.44.684,forced_choiceRT_color,2021.2.3,Win32,58.27166249,f,2.2654,4,0,4,0,1,,,,,,,,,,,,,,,,
,,,,,,,,,,,,5a1e5764074b1900012532c2,2021-09-27_10h11.44.684,forced_choiceRT_color,2021.2.3,Win32,58.27166249,d,1.7477,5,0,5,0,1,,,,,,,,,,,,,,,,
,,,,,,,,,,,,5a1e5764074b1900012532c2,2021-09-27_10h11.44.684,forced_choiceRT_color,2021.2.3,Win32,58.27166249,d,2.0142,6,0,6,0,1,,,,,,,,,,,,,,,,
,,,,,,,,,,,,5a1e5764074b1900012532c2,2021-09-27_10h11.44.684,forced_choiceRT_color,2021.2.3,Win32,58.27166249,d,1.9038,7,0,7,0,1,,,,,,,,,,,,,,,,
,,,,,,,,,,,,5a1e5764074b1900012532c2,2021-09-27_10h11.44.684,forced_choiceRT_color,2021.2.3,Win32,58.27166249,d,2.1287,8,0,8,0,1,,,,,,,,,,,,,,,,
,,,,,,,,,,,,5a1e5764074b1900012532c2,2021-09-27_10h11.44.684,forced_choiceRT_color,2021.2.3,Win32,58.27166249,f,2.1012,9,0,9,0,1,,,,,,,,,,,,,,,,
,,,,,,,,,,,,5a1e5764074b1900012532c2,2021-09-27_10h11.44.684,forced_choiceRT_color,2021.2.3,Win32,58.27166249,f,1.9325,10,0,10,0,1,,,,,,,,,,,,,,,,
,,,,,,,,,,,,5a1e5764074b1900012532c2,2021-09-27_10h11.44.684,forced_choiceRT_color,2021.2.3,Win32,58.27166249,f,1.7842,11,0,11,0,1,,,,,,,,,,,,,,,,
,,,,,,,,,,,,5a1e5764074b1900012532c2,2021-09-27_10h11.44.684,forced_choiceRT_color,2021.2.3,Win32,58.27166249,f,2.0002,12,0,12,0,1,,,,,,,,,,,,,,,,
,,,,,,,,,,,,5a1e5764074b1900012532c2,2021-09-27_10h11.44.684,forced_choiceRT_color,2021.2.3,Win32,58.27166249,f,1.8309,13,0,13,0,1,,,,,,,,,,,,,,,,
,,,,,,,,,,,,5a1e5764074b1900012532c2,2021-09-27_10h11.44.684,forced_choiceRT_color,2021.2.3,Win32,58.27166249,f,2.1971,14,0,14,0,1,,,,,,,,,,,,,,,,
,,,,,,,,,,,,5a1e5764074b1900012532c2,2021-09-27_10h11.44.684,forced_choiceRT_color,2021.2.3,Win32,58.27166249,f,1.7542,15,0,15,0,1,,,,,,,,,,,,,,,,
,,,,,,,,,,,,5a1e5764074b1900012532c2,2021-09-27_10h11.44.684,forced_choiceRT_color,2021.2.3,Win32,58.27166249,f,2.0806,16,0,16,0,1,,,,,,,,,,,,,,,,
,,,,,,,,,,,,5a1e5764074b1900012532c2,2021-09-27_10h11.44.684,forced_choiceRT_color,2021.2.3,Win32,58.27166249,f,2.0163,17,0,17,0,1,,,,,,,,,,,,,,,,
,,,,,,,,,,,,5a1e5764074b1900012532c2,2021-09-27_10h11.44.684,forced_choiceRT_color,2021.2.3,Win32,58.27166249,f,1.8698,18,0,18,0,1,,,,,,,,,,,,,,,,
,,,,,,,,,,,,5a1e5764074b1900012532c2,2021-09-27_10h11.44.684,forced_choiceRT_color,2021.2.3,Win32,58.27166249,f,1.8978,19,0,19,0,1,,,,,,,,,,,,,,,,
,0.19,,,,,,,,,d,orange,5a1e5764074b1900012532c2,2021-09-27_10h11.44.684,forced_choiceRT_color,2021.2.3,Win32,58.27166249,,,,,,,,1,Fast,short,d,1,1.8205,0,0,0,0,1,,,,,
,0.14,,,,,,,,,k,purple,5a1e5764074b1900012532c2,2021-09-27_10h11.44.684,forced_choiceRT_color,2021.2.3,Win32,58.27166249,,,,,,,,1,Fast,short,j,0,1.8388,0,1,1,3,1,,,,,
,1.39,,,,,,,,,d,orange,5a1e5764074b1900012532c2,2021-09-27_10h11.44.684,forced_choiceRT_color,2021.2.3,Win32,58.27166249,,,,,,,,1,Slow,short,d,1,2.3491,0,2,2,0,1,,,,,
,1.33,,,,,,,,,f,blue,5a1e5764074b1900012532c2,2021-09-27_10h11.44.684,forced_choiceRT_color,2021.2.3,Win32,58.27166249,,,,,,,,1,Slow,short,f,1,2.9669,0,3,3,1,1,,,,,
,0.78,,,,,,,,,d,orange,5a1e5764074b1900012532c2,2021-09-27_10h11.44.684,forced_choiceRT_color,2021.2.3,Win32,58.27166249,,,,,,,,1,Slow,short,d,1,2.1098,1,0,4,0,1,,,,,
,1.2,,,,,,,,,k,purple,5a1e5764074b1900012532c2,2021-09-27_10h11.44.684,forced_choiceRT_color,2021.2.3,Win32,58.27166249,,,,,,,,1,Slow,short,j,0,2.1641,1,1,5,3,1,,,,,
,1.22,,,,,,,,,j,red,5a1e5764074b1900012532c2,2021-09-27_10h11.44.684,forced_choiceRT_color,2021.2.3,Win32,58.27166249,,,,,,,,1,Slow,short,j,1,2.5645,1,2,6,2,1,,,,,
,0.64,,,,,,,,,f,blue,5a1e5764074b1900012532c2,2021-09-27_10h11.44.684,forced_choiceRT_color,2021.2.3,Win32,58.27166249,,,,,,,,1,Slow,short,f,1,2.2135,1,3,7,1,1,,,,,
,0.75,,,,,,,,,f,blue,5a1e5764074b1900012532c2,2021-09-27_10h11.44.684,forced_choiceRT_color,2021.2.3,Win32,58.27166249,,,,,,,,1,Fast,short,f,1,1.7807,2,0,8,1,1,,,,,
,1.88,,,,,,,,,f,blue,5a1e5764074b1900012532c2,2021-09-27_10h11.44.684,forced_choiceRT_color,2021.2.3,Win32,58.27166249,,,,,,,,1,Fast,short,f,1,1.5978,2,1,9,1,1,,,,,
,1.61,,,,,,,,,d,orange,5a1e5764074b1900012532c2,2021-09-27_10h11.44.684,forced_choiceRT_color,2021.2.3,Win32,58.27166249,,,,,,,,1,Fast,short,f,0,1.8724,2,2,10,0,1,,,,,
,1.07,,,,,,,,,d,orange,5a1e5764074b1900012532c2,2021-09-27_10h11.44.684,forced_choiceRT_color,2021.2.3,Win32,58.27166249,,,,,,,,1,Fast,short,d,1,1.498,2,3,11,0,1,,,,,
,1.27,,,,,,,,,d,orange,5a1e5764074b1900012532c2,2021-09-27_10h11.44.684,forced_choiceRT_color,2021.2.3,Win32,58.27166249,,,,,,,,1,Fast,short,d,1,1.7637,3,0,12,0,1,,,,,
,1.48,,,,,,,,,j,red,5a1e5764074b1900012532c2,2021-09-27_10h11.44.684,forced_choiceRT_color,2021.2.3,Win32,58.27166249,,,,,,,,1,Slow,short,f,0,2.1693,3,1,13,2,1,,,,,
,0.93,,,,,,,,,k,purple,5a1e5764074b1900012532c2,2021-09-27_10h11.44.684,forced_choiceRT_color,2021.2.3,Win32,58.27166249,,,,,,,,1,Slow,short,k,1,2.1728,3,2,14,3,1,,,,,
,1.67,,,,,,,,,k,purple,5a1e5764074b1900012532c2,2021-09-27_10h11.44.684,forced_choiceRT_color,2021.2.3,Win32,58.27166249,,,,,,,,1,Fast,short,k,1,1.8143,3,3,15,3,1,,,,,
,0.72,,,,,,,,,j,red,5a1e5764074b1900012532c2,2021-09-27_10h11.44.684,forced_choiceRT_color,2021.2.3,Win32,58.27166249,,,,,,,,1,Ontime,short,f,0,1.9176,4,0,16,2,1,,,,,
,1.27,,,,,,,,,f,blue,5a1e5764074b1900012532c2,2021-09-27_10h11.44.684,forced_choiceRT_color,2021.2.3,Win32,58.27166249,,,,,,,,1,Slow,short,f,1,2.2157,4,1,17,1,1,,,,,
,0.17,,,,,,,,,k,purple,5a1e5764074b1900012532c2,2021-09-27_10h11.44.684,forced_choiceRT_color,2021.2.3,Win32,58.27166249,,,,,,,,1,Ontime,short,j,0,1.9235,4,2,18,3,1,,,,,
,1.41,,,,,,,,,j,red,5a1e5764074b1900012532c2,2021-09-27_10h11.44.684,forced_choiceRT_color,2021.2.3,Win32,58.27166249,,,,,,,,1,Slow,short,k,0,2.4307,4,3,19,2,1,,,,,
,1.89,,,,,,,,,j,red,5a1e5764074b1900012532c2,2021-09-27_10h11.44.684,forced_choiceRT_color,2021.2.3,Win32,58.27166249,,,,,,,,1,Slow,short,j,1,2.1725,5,0,20,2,1,,,,,
,0.69,,,,,,,,,d,orange,5a1e5764074b1900012532c2,2021-09-27_10h11.44.684,forced_choiceRT_color,2021.2.3,Win32,58.27166249,,,,,,,,1,Fast,short,d,1,1.8992,5,1,21,0,1,,,,,
,0.29,,,,,,,,,f,blue,5a1e5764074b1900012532c2,2021-09-27_10h11.44.684,forced_choiceRT_color,2021.2.3,Win32,58.27166249,,,,,,,,1,Ontime,short,f,1,1.9174,5,2,22,1,1,,,,,
,1.87,,,,,,,,,j,red,5a1e5764074b1900012532c2,2021-09-27_10h11.44.684,forced_choiceRT_color,2021.2.3,Win32,58.27166249,,,,,,,,1,Slow,short,j,1,2.7134,5,3,23,2,1,,,,,
,0.62,,,,,,,,,d,orange,5a1e5764074b1900012532c2,2021-09-27_10h11.44.684,forced_choiceRT_color,2021.2.3,Win32,58.27166249,,,,,,,,1,Fast,short,d,1,1.8861,6,0,24,0,1,,,,,
,1.99,,,,,,,,,j,red,5a1e5764074b1900012532c2,2021-09-27_10h11.44.684,forced_choiceRT_color,2021.2.3,Win32,58.27166249,,,,,,,,1,Slow,short,d,0,2.7575,6,1,25,2,1,,,,,
,0.27,,,,,,,,,f,blue,5a1e5764074b1900012532c2,2021-09-27_10h11.44.684,forced_choiceRT_color,2021.2.3,Win32,58.27166249,,,,,,,,1,Slow,short,j,0,2.3358,6,2,26,1,1,,,,,
,0.04,,,,,,,,,k,purple,5a1e5764074b1900012532c2,2021-09-27_10h11.44.684,forced_choiceRT_color,2021.2.3,Win32,58.27166249,,,,,,,,1,Slow,short,k,1,2.9422,6,3,27,3,1,,,,,
,0.43,,,,,,,,,j,red,5a1e5764074b1900012532c2,2021-09-27_10h11.44.684,forced_choiceRT_color,2021.2.3,Win32,58.27166249,,,,,,,,1,Ontime,short,f,0,2.0721,7,0,28,2,1,,,,,
,0.01,,,,,,,,,d,orange,5a1e5764074b1900012532c2,2021-09-27_10h11.44.684,forced_choiceRT_color,2021.2.3,Win32,58.27166249,,,,,,,,1,Fast,short,d,1,1.8243,7,1,29,0,1,,,,,
,1.28,,,,,,,,,f,blue,5a1e5764074b1900012532c2,2021-09-27_10h11.44.684,forced_choiceRT_color,2021.2.3,Win32,58.27166249,,,,,,,,1,Slow,short,j,0,2.4518,7,2,30,1,1,,,,,
,0.84,,,,,,,,,f,blue,5a1e5764074b1900012532c2,2021-09-27_10h11.44.684,forced_choiceRT_color,2021.2.3,Win32,58.27166249,,,,,,,,1,Slow,short,k,0,2.2711,7,3,31,1,1,,,,,
,0.77,,,,,,,,,d,orange,5a1e5764074b1900012532c2,2021-09-27_10h11.44.684,forced_choiceRT_color,2021.2.3,Win32,58.27166249,,,,,,,,1,Fast,short,d,1,1.8177,8,0,32,0,1,,,,,
,1.9,,,,,,,,,k,purple,5a1e5764074b1900012532c2,2021-09-27_10h11.44.684,forced_choiceRT_color,2021.2.3,Win32,58.27166249,,,,,,,,1,Slow,short,k,1,2.9645,8,1,33,3,1,,,,,
,0.5,,,,,,,,,j,red,5a1e5764074b1900012532c2,2021-09-27_10h11.44.684,forced_choiceRT_color,2021.2.3,Win32,58.27166249,,,,,,,,1,Slow,short,j,1,11.0241,8,2,34,2,1,,,,,
,1.56,,,,,,,,,k,purple,5a1e5764074b1900012532c2,2021-09-27_10h11.44.684,forced_choiceRT_color,2021.2.3,Win32,58.27166249,,,,,,,,1,Slow,short,k,1,2.7973,8,3,35,3,1,,,,,
,0.08,,,,,,,,,k,purple,5a1e5764074b1900012532c2,2021-09-27_10h11.44.684,forced_choiceRT_color,2021.2.3,Win32,58.27166249,,,,,,,,1,Slow,short,k,1,2.2751,9,0,36,3,1,,,,,
,1.7,,,,,,,,,f,blue,5a1e5764074b1900012532c2,2021-09-27_10h11.44.684,forced_choiceRT_color,2021.2.3,Win32,58.27166249,,,,,,,,1,Slow,short,j,0,2.2133,9,1,37,1,1,,,,,
,1.8,,,,,,,,,k,purple,5a1e5764074b1900012532c2,2021-09-27_10h11.44.684,forced_choiceRT_color,2021.2.3,Win32,58.27166249,,,,,,,,1,Slow,short,k,1,2.4824,9,2,38,3,1,,,,,
,1.18,,,,,,,,,j,red,5a1e5764074b1900012532c2,2021-09-27_10h11.44.684,forced_choiceRT_color,2021.2.3,Win32,58.27166249,,,,,,,,1,Slow,short,f,0,2.1471,9,3,39,2,1,,,,,
,,,,,,,,,,,,5a1e5764074b1900012532c2,2021-09-27_10h11.44.684,forced_choiceRT_color,2021.2.3,Win32,58.27166249,,,,,,,,,,,,,,,,,,,0,0,0,0,1
,1.59,,,,,,,,,k,purple,5a1e5764074b1900012532c2,2021-09-27_10h11.44.684,forced_choiceRT_color,2021.2.3,Win32,58.27166249,,,,,,,,2,Slow,short,k,1,2.4157,0,0,0,3,1,,,,,
,1.22,,,,,,,,,k,purple,5a1e5764074b1900012532c2,2021-09-27_10h11.44.684,forced_choiceRT_color,2021.2.3,Win32,58.27166249,,,,,,,,2,Fast,short,k,1,1.7687,0,1,1,3,1,,,,,
,1.95,,,,,,,,,d,orange,5a1e5764074b1900012532c2,2021-09-27_10h11.44.684,forced_choiceRT_color,2021.2.3,Win32,58.27166249,,,,,,,,2,Ontime,short,k,0,2.0725,0,2,2,0,1,,,,,
,1.55,,,,,,,,,f,blue,5a1e5764074b1900012532c2,2021-09-27_10h11.44.684,forced_choiceRT_color,2021.2.3,Win32,58.27166249,,,,,,,,2,Slow,short,f,1,2.4169,0,3,3,1,1,,,,,
,0.95,,,,,,,,,d,orange,5a1e5764074b1900012532c2,2021-09-27_10h11.44.684,forced_choiceRT_color,2021.2.3,Win32,58.27166249,,,,,,,,2,Fast,short,d,1,1.6849,1,0,4,0,1,,,,,
,1.29,,,,,,,,,d,orange,5a1e5764074b1900012532c2,2021-09-27_10h11.44.684,forced_choiceRT_color,2021.2.3,Win32,58.27166249,,,,,,,,2,Ontime,short,d,1,1.9448,1,1,5,0,1,,,,,
,0.85,,,,,,,,,j,red,5a1e5764074b1900012532c2,2021-09-27_10h11.44.684,forced_choiceRT_color,2021.2.3,Win32,58.27166249,,,,,,,,2,Fast,short,j,1,1.7672,1,2,6,2,1,,,,,
,0.49,,,,,,,,,j,red,5a1e5764074b1900012532c2,2021-09-27_10h11.44.684,forced_choiceRT_color,2021.2.3,Win32,58.27166249,,,,,,,,2,Ontime,short,j,1,1.9885,1,3,7,2,1,,,,,
,1.73,,,,,,,,,j,red,5a1e5764074b1900012532c2,2021-09-27_10h11.44.684,forced_choiceRT_color,2021.2.3,Win32,58.27166249,,,,,,,,2,Ontime,short,f,0,1.962,2,0,8,2,1,,,,,
,0.8,,,,,,,,,k,purple,5a1e5764074b1900012532c2,2021-09-27_10h11.44.684,forced_choiceRT_color,2021.2.3,Win32,58.27166249,,,,,,,,2,Slow,short,k,1,2.2848,2,1,9,3,1,,,,,
,0.04,,,,,,,,,d,orange,5a1e5764074b1900012532c2,2021-09-27_10h11.44.684,forced_choiceRT_color,2021.2.3,Win32,58.27166249,,,,,,,,2,Ontime,short,d,1,1.9616,2,2,10,0,1,,,,,
,1.35,,,,,,,,,j,red,5a1e5764074b1900012532c2,2021-09-27_10h11.44.684,forced_choiceRT_color,2021.2.3,Win32,58.27166249,,,,,,,,2,Slow,short,f,0,2.1505,2,3,11,2,1,,,,,
,1.97,,,,,,,,,d,orange,5a1e5764074b1900012532c2,2021-09-27_10h11.44.684,forced_choiceRT_color,2021.2.3,Win32,58.27166249,,,,,,,,2,Slow,short,d,1,2.5669,3,0,12,0,1,,,,,
,1.45,,,,,,,,,f,blue,5a1e5764074b1900012532c2,2021-09-27_10h11.44.684,forced_choiceRT_color,2021.2.3,Win32,58.27166249,,,,,,,,2,Slow,short,j,0,2.3032,3,1,13,1,1,,,,,
,1.46,,,,,,,,,k,purple,5a1e5764074b1900012532c2,2021-09-27_10h11.44.684,forced_choiceRT_color,2021.2.3,Win32,58.27166249,,,,,,,,2,Slow,short,k,1,2.4035,3,2,14,3,1,,,,,
,0.22,,,,,,,,,d,orange,5a1e5764074b1900012532c2,2021-09-27_10h11.44.684,forced_choiceRT_color,2021.2.3,Win32,58.27166249,,,,,,,,2,Fast,short,d,1,1.7712,3,3,15,0,1,,,,,
,1.99,,,,,,,,,f,blue,5a1e5764074b1900012532c2,2021-09-27_10h11.44.684,forced_choiceRT_color,2021.2.3,Win32,58.27166249,,,,,,,,2,Ontime,short,f,1,2.0782,4,0,16,1,1,,,,,
,0.79,,,,,,,,,j,red,5a1e5764074b1900012532c2,2021-09-27_10h11.44.684,forced_choiceRT_color,2021.2.3,Win32,58.27166249,,,,,,,,2,Slow,short,j,1,2.1193,4,1,17,2,1,,,,,
,1.26,,,,,,,,,f,blue,5a1e5764074b1900012532c2,2021-09-27_10h11.44.684,forced_choiceRT_color,2021.2.3,Win32,58.27166249,,,,,,,,2,Ontime,short,f,1,1.9414,4,2,18,1,1,,,,,
,1.41,,,,,,,,,j,red,5a1e5764074b1900012532c2,2021-09-27_10h11.44.684,forced_choiceRT_color,2021.2.3,Win32,58.27166249,,,,,,,,2,Fast,short,d,0,1.8431,4,3,19,2,1,,,,,
,1.4,,,,,,,,,k,purple,5a1e5764074b1900012532c2,2021-09-27_10h11.44.684,forced_choiceRT_color,2021.2.3,Win32,58.27166249,,,,,,,,2,Fast,short,j,0,1.8369,5,0,20,3,1,,,,,
,1.72,,,,,,,,,k,purple,5a1e5764074b1900012532c2,2021-09-27_10h11.44.684,forced_choiceRT_color,2021.2.3,Win32,58.27166249,,,,,,,,2,Slow,short,k,1,2.1159,5,1,21,3,1,,,,,
,0.39,,,,,,,,,f,blue,5a1e5764074b1900012532c2,2021-09-27_10h11.44.684,forced_choiceRT_color,2021.2.3,Win32,58.27166249,,,,,,,,2,Fast,short,f,1,1.8727,5,2,22,1,1,,,,,
,0.68,,,,,,,,,f,blue,5a1e5764074b1900012532c2,2021-09-27_10h11.44.684,forced_choiceRT_color,2021.2.3,Win32,58.27166249,,,,,,,,2,Ontime,short,f,1,1.9248,5,3,23,1,1,,,,,
,0.74,,,,,,,,,k,purple,5a1e5764074b1900012532c2,2021-09-27_10h11.44.684,forced_choiceRT_color,2021.2.3,Win32,58.27166249,,,,,,,,2,Fast,short,k,1,1.7841,6,0,24,3,1,,,,,
,0.47,,,,,,,,,d,orange,5a1e5764074b1900012532c2,2021-09-27_10h11.44.684,forced_choiceRT_color,2021.2.3,Win32,58.27166249,,,,,,,,2,Ontime,short,f,0,2.0688,6,1,25,0,1,,,,,
,1.11,,,,,,,,,j,red,5a1e5764074b1900012532c2,2021-09-27_10h11.44.684,forced_choiceRT_color,2021.2.3,Win32,58.27166249,,,,,,,,2,Fast,short,f,0,1.8224,6,2,26,2,1,,,,,
,1.05,,,,,,,,,f,blue,5a1e5764074b1900012532c2,2021-09-27_10h11.44.684,forced_choiceRT_color,2021.2.3,Win32,58.27166249,,,,,,,,2,Slow,short,k,0,2.2087,6,3,27,1,1,,,,,
,1.07,,,,,,,,,d,orange,5a1e5764074b1900012532c2,2021-09-27_10h11.44.684,forced_choiceRT_color,2021.2.3,Win32,58.27166249,,,,,,,,2,Fast,short,d,1,1.6907,7,0,28,0,1,,,,,
,1.33,,,,,,,,,d,orange,5a1e5764074b1900012532c2,2021-09-27_10h11.44.684,forced_choiceRT_color,2021.2.3,Win32,58.27166249,,,,,,,,2,Fast,short,d,1,1.7573,7,1,29,0,1,,,,,
,0.04,,,,,,,,,d,orange,5a1e5764074b1900012532c2,2021-09-27_10h11.44.684,forced_choiceRT_color,2021.2.3,Win32,58.27166249,,,,,,,,2,Ontime,short,d,1,1.967,7,2,30,0,1,,,,,
,1.91,,,,,,,,,j,red,5a1e5764074b1900012532c2,2021-09-27_10h11.44.684,forced_choiceRT_color,2021.2.3,Win32,58.27166249,,,,,,,,2,Slow,short,f,0,2.4703,7,3,31,2,1,,,,,
,0,,,,,,,,,j,red,5a1e5764074b1900012532c2,2021-09-27_10h11.44.684,forced_choiceRT_color,2021.2.3,Win32,58.27166249,,,,,,,,2,Ontime,short,f,0,2.0674,8,0,32,2,1,,,,,
,0.93,,,,,,,,,k,purple,5a1e5764074b1900012532c2,2021-09-27_10h11.44.684,forced_choiceRT_color,2021.2.3,Win32,58.27166249,,,,,,,,2,Slow,short,k,1,2.2344,8,1,33,3,1,,,,,
,0.94,,,,,,,,,f,blue,5a1e5764074b1900012532c2,2021-09-27_10h11.44.684,forced_choiceRT_color,2021.2.3,Win32,58.27166249,,,,,,,,2,Ontime,short,j,0,1.9897,8,2,34,1,1,,,,,
,1.72,,,,,,,,,f,blue,5a1e5764074b1900012532c2,2021-09-27_10h11.44.684,forced_choiceRT_color,2021.2.3,Win32,58.27166249,,,,,,,,2,Fast,short,f,1,1.8366,8,3,35,1,1,,,,,
,1,,,,,,,,,f,blue,5a1e5764074b1900012532c2,2021-09-27_10h11.44.684,forced_choiceRT_color,2021.2.3,Win32,58.27166249,,,,,,,,2,Fast,short,f,1,1.8862,9,0,36,1,1,,,,,
,1.43,,,,,,,,,j,red,5a1e5764074b1900012532c2,2021-09-27_10h11.44.684,forced_choiceRT_color,2021.2.3,Win32,58.27166249,,,,,,,,2,Slow,short,j,1,2.2846,9,1,37,2,1,,,,,
,0.27,,,,,,,,,k,purple,5a1e5764074b1900012532c2,2021-09-27_10h11.44.684,forced_choiceRT_color,2021.2.3,Win32,58.27166249,,,,,,,,2,Fast,short,k,1,1.4257,9,2,38,3,1,,,,,
,1.52,,,,,,,,,k,purple,5a1e5764074b1900012532c2,2021-09-27_10h11.44.684,forced_choiceRT_color,2021.2.3,Win32,58.27166249,,,,,,,,2,Fast,short,d,0,1.8915,9,3,39,3,1,,,,,
,,,,,,,,,,,,5a1e5764074b1900012532c2,2021-09-27_10h11.44.684,forced_choiceRT_color,2021.2.3,Win32,58.27166249,,,,,,,,,,,,,,,,,,,1,0,1,0,1
,0.17,,,,,,,,,f,blue,5a1e5764074b1900012532c2,2021-09-27_10h11.44.684,forced_choiceRT_color,2021.2.3,Win32,58.27166249,,,,,,,,3,Fast,short,d,0,0.7349,0,0,0,1,1,,,,,
,1.69,,,,,,,,,k,purple,5a1e5764074b1900012532c2,2021-09-27_10h11.44.684,forced_choiceRT_color,2021.2.3,Win32,58.27166249,,,,,,,,3,Fast,short,f,0,1.8012,0,1,1,3,1,,,,,
,1.59,,,,,,,,,f,blue,5a1e5764074b1900012532c2,2021-09-27_10h11.44.684,forced_choiceRT_color,2021.2.3,Win32,58.27166249,,,,,,,,3,Slow,short,f,1,2.1875,0,2,2,1,1,,,,,
,0.28,,,,,,,,,j,red,5a1e5764074b1900012532c2,2021-09-27_10h11.44.684,forced_choiceRT_color,2021.2.3,Win32,58.27166249,,,,,,,,3,Fast,short,j,1,1.4505,0,3,3,2,1,,,,,
,1.01,,,,,,,,,k,purple,5a1e5764074b1900012532c2,2021-09-27_10h11.44.684,forced_choiceRT_color,2021.2.3,Win32,58.27166249,,,,,,,,3,Slow,short,k,1,2.1948,1,0,4,3,1,,,,,
,1.97,,,,,,,,,d,orange,5a1e5764074b1900012532c2,2021-09-27_10h11.44.684,forced_choiceRT_color,2021.2.3,Win32,58.27166249,,,,,,,,3,Slow,short,k,0,2.3216,1,1,5,0,1,,,,,
,0.27,,,,,,,,,k,purple,5a1e5764074b1900012532c2,2021-09-27_10h11.44.684,forced_choiceRT_color,2021.2.3,Win32,58.27166249,,,,,,,,3,Slow,short,k,1,2.111,1,2,6,3,1,,,,,
,0.76,,,,,,,,,f,blue,5a1e5764074b1900012532c2,2021-09-27_10h11.44.684,forced_choiceRT_color,2021.2.3,Win32,58.27166249,,,,,,,,3,Ontime,short,j,0,1.917,1,3,7,1,1,,,,,
,1.89,,,,,,,,,j,red,5a1e5764074b1900012532c2,2021-09-27_10h11.44.684,forced_choiceRT_color,2021.2.3,Win32,58.27166249,,,,,,,,3,Slow,short,f,0,2.5894,2,0,8,2,1,,,,,
,1.35,,,,,,,,,j,red,5a1e5764074b1900012532c2,2021-09-27_10h11.44.684,forced_choiceRT_color,2021.2.3,Win32,58.27166249,,,,,,,,3,Ontime,short,j,1,2.0105,2,1,9,2,1,,,,,
,0.73,,,,,,,,,k,purple,5a1e5764074b1900012532c2,2021-09-27_10h11.44.684,forced_choiceRT_color,2021.2.3,Win32,58.27166249,,,,,,,,3,Fast,short,f,0,0.0726,2,2,10,3,1,,,,,
,0.07,,,,,,,,,d,orange,5a1e5764074b1900012532c2,2021-09-27_10h11.44.684,forced_choiceRT_color,2021.2.3,Win32,58.27166249,,,,,,,,3,Slow,short,d,1,2.2506,2,3,11,0,1,,,,,
,1.3,,,,,,,,,k,purple,5a1e5764074b1900012532c2,2021-09-27_10h11.44.684,forced_choiceRT_color,2021.2.3,Win32,58.27166249,,,,,,,,3,Ontime,short,j,0,2.0339,3,0,12,3,1,,,,,
,0.95,,,,,,,,,d,orange,5a1e5764074b1900012532c2,2021-09-27_10h11.44.684,forced_choiceRT_color,2021.2.3,Win32,58.27166249,,,,,,,,3,Fast,short,k,0,0.0396,3,1,13,0,1,,,,,
,0.22,,,,,,,,,j,red,5a1e5764074b1900012532c2,2021-09-27_10h11.44.684,forced_choiceRT_color,2021.2.3,Win32,58.27166249,,,,,,,,3,Fast,short,f,0,1.8592,3,2,14,2,1,,,,,
,1.91,,,,,,,,,k,purple,5a1e5764074b1900012532c2,2021-09-27_10h11.44.684,forced_choiceRT_color,2021.2.3,Win32,58.27166249,,,,,,,,3,Slow,short,k,1,2.6002,3,3,15,3,1,,,,,
,1.33,,,,,,,,,d,orange,5a1e5764074b1900012532c2,2021-09-27_10h11.44.684,forced_choiceRT_color,2021.2.3,Win32,58.27166249,,,,,,,,3,Slow,short,d,1,2.309,4,0,16,0,1,,,,,
,0.79,,,,,,,,,f,blue,5a1e5764074b1900012532c2,2021-09-27_10h11.44.684,forced_choiceRT_color,2021.2.3,Win32,58.27166249,,,,,,,,3,Fast,short,j,0,1.8028,4,1,17,1,1,,,,,
,1.24,,,,,,,,,d,orange,5a1e5764074b1900012532c2,2021-09-27_10h11.44.684,forced_choiceRT_color,2021.2.3,Win32,58.27166249,,,,,,,,3,Fast,short,d,1,1.8513,4,2,18,0,1,,,,,
,1.86,,,,,,,,,k,purple,5a1e5764074b1900012532c2,2021-09-27_10h11.44.684,forced_choiceRT_color,2021.2.3,Win32,58.27166249,,,,,,,,3,Slow,short,d,0,2.1188,4,3,19,3,1,,,,,
,0.27,,,,,,,,,d,orange,5a1e5764074b1900012532c2,2021-09-27_10h11.44.684,forced_choiceRT_color,2021.2.3,Win32,58.27166249,,,,,,,,3,Fast,short,d,1,1.3214,5,0,20,0,1,,,,,
,0.52,,,,,,,,,d,orange,5a1e5764074b1900012532c2,2021-09-27_10h11.44.684,forced_choiceRT_color,2021.2.3,Win32,58.27166249,,,,,,,,3,Ontime,short,d,1,1.9081,5,1,21,0,1,,,,,
,0.85,,,,,,,,,d,orange,5a1e5764074b1900012532c2,2021-09-27_10h11.44.684,forced_choiceRT_color,2021.2.3,Win32,58.27166249,,,,,,,,3,Fast,short,d,1,1.7782,5,2,22,0,1,,,,,
,1.11,,,,,,,,,f,blue,5a1e5764074b1900012532c2,2021-09-27_10h11.44.684,forced_choiceRT_color,2021.2.3,Win32,58.27166249,,,,,,,,3,Fast,short,k,0,1.8383,5,3,23,1,1,,,,,
,1.96,,,,,,,,,j,red,5a1e5764074b1900012532c2,2021-09-27_10h11.44.684,forced_choiceRT_color,2021.2.3,Win32,58.27166249,,,,,,,,3,Slow,short,d,0,2.4503,6,0,24,2,1,,,,,
,0.58,,,,,,,,,f,blue,5a1e5764074b1900012532c2,2021-09-27_10h11.44.684,forced_choiceRT_color,2021.2.3,Win32,58.27166249,,,,,,,,3,Fast,short,j,0,1.8848,6,1,25,1,1,,,,,
,1.07,,,,,,,,,k,purple,5a1e5764074b1900012532c2,2021-09-27_10h11.44.684,forced_choiceRT_color,2021.2.3,Win32,58.27166249,,,,,,,,3,Slow,short,k,1,2.2509,6,2,26,3,1,,,,,
,1.43,,,,,,,,,f,blue,5a1e5764074b1900012532c2,2021-09-27_10h11.44.684,forced_choiceRT_color,2021.2.3,Win32,58.27166249,,,,,,,,3,Slow,short,j,0,2.2532,6,3,27,1,1,,,,,
,0.92,,,,,,,,,j,red,5a1e5764074b1900012532c2,2021-09-27_10h11.44.684,forced_choiceRT_color,2021.2.3,Win32,58.27166249,,,,,,,,3,Ontime,short,f,0,1.942,7,0,28,2,1,,,,,
,1.18,,,,,,,,,f,blue,5a1e5764074b1900012532c2,2021-09-27_10h11.44.684,forced_choiceRT_color,2021.2.3,Win32,58.27166249,,,,,,,,3,Ontime,short,f,1,1.9349,7,1,29,1,1,,,,,
,0.17,,,,,,,,,j,red,5a1e5764074b1900012532c2,2021-09-27_10h11.44.684,forced_choiceRT_color,2021.2.3,Win32,58.27166249,,,,,,,,3,Fast,short,j,1,0.0681,7,2,30,2,1,,,,,
,0.58,,,,,,,,,d,orange,5a1e5764074b1900012532c2,2021-09-27_10h11.44.684,forced_choiceRT_color,2021.2.3,Win32,58.27166249,,,,,,,,3,Ontime,short,d,1,1.9405,7,3,31,0,1,,,,,
,1.82,,,,,,,,,f,blue,5a1e5764074b1900012532c2,2021-09-27_10h11.44.684,forced_choiceRT_color,2021.2.3,Win32,58.27166249,,,,,,,,3,Slow,short,d,0,2.2062,8,0,32,1,1,,,,,
,0.65,,,,,,,,,j,red,5a1e5764074b1900012532c2,2021-09-27_10h11.44.684,forced_choiceRT_color,2021.2.3,Win32,58.27166249,,,,,,,,3,Slow,short,j,1,2.2003,8,1,33,2,1,,,,,
,1.47,,,,,,,,,k,purple,5a1e5764074b1900012532c2,2021-09-27_10h11.44.684,forced_choiceRT_color,2021.2.3,Win32,58.27166249,,,,,,,,3,Ontime,short,f,0,1.9337,8,2,34,3,1,,,,,
,1.73,,,,,,,,,f,blue,5a1e5764074b1900012532c2,2021-09-27_10h11.44.684,forced_choiceRT_color,2021.2.3,Win32,58.27166249,,,,,,,,3,Slow,short,k,0,2.2242,8,3,35,1,1,,,,,
,1.15,,,,,,,,,j,red,5a1e5764074b1900012532c2,2021-09-27_10h11.44.684,forced_choiceRT_color,2021.2.3,Win32,58.27166249,,,,,,,,3,Ontime,short,j,1,1.9839,9,0,36,2,1,,,,,
,0.75,,,,,,,,,k,purple,5a1e5764074b1900012532c2,2021-09-27_10h11.44.684,forced_choiceRT_color,2021.2.3,Win32,58.27166249,,,,,,,,3,Fast,short,k,1,0.0257,9,1,37,3,1,,,,,
,1.44,,,,,,,,,j,red,5a1e5764074b1900012532c2,2021-09-27_10h11.44.684,forced_choiceRT_color,2021.2.3,Win32,58.27166249,,,,,,,,3,Ontime,short,f,0,2.0772,9,2,38,2,1,,,,,
,0.01,,,,,,,,,d,orange,5a1e5764074b1900012532c2,2021-09-27_10h11.44.684,forced_choiceRT_color,2021.2.3,Win32,58.27166249,,,,,,,,3,Fast,short,d,1,1.6896,9,3,39,0,1,,,,,
,,,,,,,,,,,,5a1e5764074b1900012532c2,2021-09-27_10h11.44.684,forced_choiceRT_color,2021.2.3,Win32,58.27166249,,,,,,,,,,,,,,,,,,,2,0,2,0,1
,0.07,,,,,,,,,f,blue,5a1e5764074b1900012532c2,2021-09-27_10h11.44.684,forced_choiceRT_color,2021.2.3,Win32,58.27166249,,,,,,,,4,Fast,short,f,1,0.8609,0,0,0,1,1,,,,,
,1.39,,,,,,,,,j,red,5a1e5764074b1900012532c2,2021-09-27_10h11.44.684,forced_choiceRT_color,2021.2.3,Win32,58.27166249,,,,,,,,4,Fast,short,j,1,1.818,0,1,1,2,1,,,,,
,1.63,,,,,,,,,k,purple,5a1e5764074b1900012532c2,2021-09-27_10h11.44.684,forced_choiceRT_color,2021.2.3,Win32,58.27166249,,,,,,,,4,Ontime,short,k,1,2.0762,0,2,2,3,1,,,,,
,1.17,,,,,,,,,j,red,5a1e5764074b1900012532c2,2021-09-27_10h11.44.684,forced_choiceRT_color,2021.2.3,Win32,58.27166249,,,,,,,,4,Ontime,short,j,1,1.9176,0,3,3,2,1,,,,,
,1.61,,,,,,,,,d,orange,5a1e5764074b1900012532c2,2021-09-27_10h11.44.684,forced_choiceRT_color,2021.2.3,Win32,58.27166249,,,,,,,,4,Slow,short,d,1,2.1574,1,0,4,0,1,,,,,
,1.27,,,,,,,,,f,blue,5a1e5764074b1900012532c2,2021-09-27_10h11.44.684,forced_choiceRT_color,2021.2.3,Win32,58.27166249,,,,,,,,4,Ontime,short,j,0,1.9356,1,1,5,1,1,,,,,
,0.2,,,,,,,,,d,orange,5a1e5764074b1900012532c2,2021-09-27_10h11.44.684,forced_choiceRT_color,2021.2.3,Win32,58.27166249,,,,,,,,4,Fast,short,f,0,0.1952,1,2,6,0,1,,,,,
,0.71,,,,,,,,,j,red,5a1e5764074b1900012532c2,2021-09-27_10h11.44.684,forced_choiceRT_color,2021.2.3,Win32,58.27166249,,,,,,,,4,Ontime,short,j,1,1.9905,1,3,7,2,1,,,,,
,1.53,,,,,,,,,k,purple,5a1e5764074b1900012532c2,2021-09-27_10h11.44.684,forced_choiceRT_color,2021.2.3,Win32,58.27166249,,,,,,,,4,Slow,short,k,1,2.1039,2,0,8,3,1,,,,,
,0.45,,,,,,,,,f,blue,5a1e5764074b1900012532c2,2021-09-27_10h11.44.684,forced_choiceRT_color,2021.2.3,Win32,58.27166249,,,,,,,,4,Ontime,short,f,1,1.9273,2,1,9,1,1,,,,,
,1.11,,,,,,,,,f,blue,5a1e5764074b1900012532c2,2021-09-27_10h11.44.684,forced_choiceRT_color,2021.2.3,Win32,58.27166249,,,,,,,,4,Ontime,short,f,1,1.9171,2,2,10,1,1,,,,,
,1.51,,,,,,,,,k,purple,5a1e5764074b1900012532c2,2021-09-27_10h11.44.684,forced_choiceRT_color,2021.2.3,Win32,58.27166249,,,,,,,,4,Slow,short,k,1,2.1592,2,3,11,3,1,,,,,
,1.51,,,,,,,,,k,purple,5a1e5764074b1900012532c2,2021-09-27_10h11.44.684,forced_choiceRT_color,2021.2.3,Win32,58.27166249,,,,,,,,4,Slow,short,k,1,2.1228,3,0,12,3,1,,,,,
,1.85,,,,,,,,,f,blue,5a1e5764074b1900012532c2,2021-09-27_10h11.44.684,forced_choiceRT_color,2021.2.3,Win32,58.27166249,,,,,,,,4,Slow,short,f,1,2.4583,3,1,13,1,1,,,,,
,0.23,,,,,,,,,j,red,5a1e5764074b1900012532c2,2021-09-27_10h11.44.684,forced_choiceRT_color,2021.2.3,Win32,58.27166249,,,,,,,,4,Ontime,short,j,1,1.9565,3,2,14,2,1,,,,,
,0.94,,,,,,,,,j,red,5a1e5764074b1900012532c2,2021-09-27_10h11.44.684,forced_choiceRT_color,2021.2.3,Win32,58.27166249,,,,,,,,4,Ontime,short,j,1,1.9173,3,3,15,2,1,,,,,
,0.48,,,,,,,,,j,red,5a1e5764074b1900012532c2,2021-09-27_10h11.44.684,forced_choiceRT_color,2021.2.3,Win32,58.27166249,,,,,,,,4,Ontime,short,j,1,1.9005,4,0,16,2,1,,,,,
,0.49,,,,,,,,,j,red,5a1e5764074b1900012532c2,2021-09-27_10h11.44.684,forced_choiceRT_color,2021.2.3,Win32,58.27166249,,,,,,,,4,Ontime,short,j,1,1.9086,4,1,17,2,1,,,,,
,0.19,,,,,,,,,j,red,5a1e5764074b1900012532c2,2021-09-27_10h11.44.684,forced_choiceRT_color,2021.2.3,Win32,58.27166249,,,,,,,,4,Fast,short,j,1,1.7884,4,2,18,2,1,,,,,
,0.34,,,,,,,,,d,orange,5a1e5764074b1900012532c2,2021-09-27_10h11.44.684,forced_choiceRT_color,2021.2.3,Win32,58.27166249,,,,,,,,4,Fast,short,d,1,1.8077,4,3,19,0,1,,,,,
,0.5,,,,,,,,,k,purple,5a1e5764074b1900012532c2,2021-09-27_10h11.44.684,forced_choiceRT_color,2021.2.3,Win32,58.27166249,,,,,,,,4,Ontime,short,k,1,1.9504,5,0,20,3,1,,,,,
,1.42,,,,,,,,,k,purple,5a1e5764074b1900012532c2,2021-09-27_10h11.44.684,forced_choiceRT_color,2021.2.3,Win32,58.27166249,,,,,,,,4,Ontime,short,k,1,1.942,5,1,21,3,1,,,,,
,0.19,,,,,,,,,d,orange,5a1e5764074b1900012532c2,2021-09-27_10h11.44.684,forced_choiceRT_color,2021.2.3,Win32,58.27166249,,,,,,,,4,Fast,short,d,1,1.8044,5,2,22,0,1,,,,,
,1.36,,,,,,,,,d,orange,5a1e5764074b1900012532c2,2021-09-27_10h11.44.684,forced_choiceRT_color,2021.2.3,Win32,58.27166249,,,,,,,,4,Ontime,short,d,1,1.9729,5,3,23,0,1,,,,,
,1.07,,,,,,,,,d,orange,5a1e5764074b1900012532c2,2021-09-27_10h11.44.684,forced_choiceRT_color,2021.2.3,Win32,58.27166249,,,,,,,,4,Ontime,short,d,1,1.9222,6,0,24,0,1,,,,,
,0.92,,,,,,,,,j,red,5a1e5764074b1900012532c2,2021-09-27_10h11.44.684,forced_choiceRT_color,2021.2.3,Win32,58.27166249,,,,,,,,4,Slow,short,f,0,2.1532,6,1,25,2,1,,,,,
,0.49,,,,,,,,,k,purple,5a1e5764074b1900012532c2,2021-09-27_10h11.44.684,forced_choiceRT_color,2021.2.3,Win32,58.27166249,,,,,,,,4,Fast,short,k,1,1.8352,6,2,26,3,1,,,,,
,1.72,,,,,,,,,f,blue,5a1e5764074b1900012532c2,2021-09-27_10h11.44.684,forced_choiceRT_color,2021.2.3,Win32,58.27166249,,,,,,,,4,Slow,short,f,1,2.5245,6,3,27,1,1,,,,,
,0.9,,,,,,,,,k,purple,5a1e5764074b1900012532c2,2021-09-27_10h11.44.684,forced_choiceRT_color,2021.2.3,Win32,58.27166249,,,,,,,,4,Ontime,short,k,1,1.9672,7,0,28,3,1,,,,,
,0.76,,,,,,,,,d,orange,5a1e5764074b1900012532c2,2021-09-27_10h11.44.684,forced_choiceRT_color,2021.2.3,Win32,58.27166249,,,,,,,,4,Fast,short,d,1,1.6594,7,1,29,0,1,,,,,
,0.98,,,,,,,,,f,blue,5a1e5764074b1900012532c2,2021-09-27_10h11.44.684,forced_choiceRT_color,2021.2.3,Win32,58.27166249,,,,,,,,4,Fast,short,f,1,1.821,7,2,30,1,1,,,,,
,1.26,,,,,,,,,k,purple,5a1e5764074b1900012532c2,2021-09-27_10h11.44.684,forced_choiceRT_color,2021.2.3,Win32,58.27166249,,,,,,,,4,Ontime,short,k,1,2.0245,7,3,31,3,1,,,,,
,0.68,,,,,,,,,d,orange,5a1e5764074b1900012532c2,2021-09-27_10h11.44.684,forced_choiceRT_color,2021.2.3,Win32,58.27166249,,,,,,,,4,Fast,short,d,1,1.7571,8,0,32,0,1,,,,,
,1.39,,,,,,,,,k,purple,5a1e5764074b1900012532c2,2021-09-27_10h11.44.684,forced_choiceRT_color,2021.2.3,Win32,58.27166249,,,,,,,,4,Ontime,short,d,0,1.9839,8,1,33,3,1,,,,,
,1.67,,,,,,,,,j,red,5a1e5764074b1900012532c2,2021-09-27_10h11.44.684,forced_choiceRT_color,2021.2.3,Win32,58.27166249,,,,,,,,4,Fast,short,k,0,0.1179,8,2,34,2,1,,,,,
,1.26,,,,,,,,,d,orange,5a1e5764074b1900012532c2,2021-09-27_10h11.44.684,forced_choiceRT_color,2021.2.3,Win32,58.27166249,,,,,,,,4,Ontime,short,d,1,2.0078,8,3,35,0,1,,,,,
,1.22,,,,,,,,,d,orange,5a1e5764074b1900012532c2,2021-09-27_10h11.44.684,forced_choiceRT_color,2021.2.3,Win32,58.27166249,,,,,,,,4,Fast,short,d,1,1.8085,9,0,36,0,1,,,,,
,0,,,,,,,,,f,blue,5a1e5764074b1900012532c2,2021-09-27_10h11.44.684,forced_choiceRT_color,2021.2.3,Win32,58.27166249,,,,,,,,4,Ontime,short,f,1,1.9413,9,1,37,1,1,,,,,
,0.17,,,,,,,,,f,blue,5a1e5764074b1900012532c2,2021-09-27_10h11.44.684,forced_choiceRT_color,2021.2.3,Win32,58.27166249,,,,,,,,4,Ontime,short,f,1,1.9093,9,2,38,1,1,,,,,
,1.92,,,,,,,,,f,blue,5a1e5764074b1900012532c2,2021-09-27_10h11.44.684,forced_choiceRT_color,2021.2.3,Win32,58.27166249,,,,,,,,4,Ontime,short,f,1,2.0006,9,3,39,1,1,,,,,
,,,,,,,,,,,,5a1e5764074b1900012532c2,2021-09-27_10h11.44.684,forced_choiceRT_color,2021.2.3,Win32,58.27166249,,,,,,,,,,,,,,,,,,,3,0,3,0,1
,0.62,,,,,,,,,k,purple,5a1e5764074b1900012532c2,2021-09-27_10h11.44.684,forced_choiceRT_color,2021.2.3,Win32,58.27166249,,,,,,,,5,Fast,short,k,1,1.3678,0,0,0,3,1,,,,,
,1.52,,,,,,,,,d,orange,5a1e5764074b1900012532c2,2021-09-27_10h11.44.684,forced_choiceRT_color,2021.2.3,Win32,58.27166249,,,,,,,,5,Ontime,short,d,1,2.0768,0,1,1,0,1,,,,,
,0.53,,,,,,,,,k,purple,5a1e5764074b1900012532c2,2021-09-27_10h11.44.684,forced_choiceRT_color,2021.2.3,Win32,58.27166249,,,,,,,,5,Ontime,short,k,1,1.9241,0,2,2,3,1,,,,,
,1.65,,,,,,,,,d,orange,5a1e5764074b1900012532c2,2021-09-27_10h11.44.684,forced_choiceRT_color,2021.2.3,Win32,58.27166249,,,,,,,,5,Slow,short,d,1,2.2172,0,3,3,0,1,,,,,
,0.67,,,,,,,,,f,blue,5a1e5764074b1900012532c2,2021-09-27_10h11.44.684,forced_choiceRT_color,2021.2.3,Win32,58.27166249,,,,,,,,5,Fast,short,f,1,1.3838,1,0,4,1,1,,,,,
,0.43,,,,,,,,,j,red,5a1e5764074b1900012532c2,2021-09-27_10h11.44.684,forced_choiceRT_color,2021.2.3,Win32,58.27166249,,,,,,,,5,Ontime,short,j,1,1.9544,1,1,5,2,1,,,,,
,0.87,,,,,,,,,d,orange,5a1e5764074b1900012532c2,2021-09-27_10h11.44.684,forced_choiceRT_color,2021.2.3,Win32,58.27166249,,,,,,,,5,Ontime,short,d,1,1.9005,1,2,6,0,1,,,,,
,1.9,,,,,,,,,j,red,5a1e5764074b1900012532c2,2021-09-27_10h11.44.684,forced_choiceRT_color,2021.2.3,Win32,58.27166249,,,,,,,,5,Slow,short,d,0,2.3836,1,3,7,2,1,,,,,
,1.68,,,,,,,,,k,purple,5a1e5764074b1900012532c2,2021-09-27_10h11.44.684,forced_choiceRT_color,2021.2.3,Win32,58.27166249,,,,,,,,5,Slow,short,k,1,2.2217,2,0,8,3,1,,,,,
,0.24,,,,,,,,,j,red,5a1e5764074b1900012532c2,2021-09-27_10h11.44.684,forced_choiceRT_color,2021.2.3,Win32,58.27166249,,,,,,,,5,Ontime,short,j,1,2.0006,2,1,9,2,1,,,,,
,1.71,,,,,,,,,j,red,5a1e5764074b1900012532c2,2021-09-27_10h11.44.684,forced_choiceRT_color,2021.2.3,Win32,58.27166249,,,,,,,,5,Fast,short,j,1,1.8593,2,2,10,2,1,,,,,
,0.46,,,,,,,,,f,blue,5a1e5764074b1900012532c2,2021-09-27_10h11.44.684,forced_choiceRT_color,2021.2.3,Win32,58.27166249,,,,,,,,5,Fast,short,f,1,1.8877,2,3,11,1,1,,,,,
,1.77,,,,,,,,,k,purple,5a1e5764074b1900012532c2,2021-09-27_10h11.44.684,forced_choiceRT_color,2021.2.3,Win32,58.27166249,,,,,,,,5,Ontime,short,f,0,1.9932,3,0,12,3,1,,,,,
,1.45,,,,,,,,,d,orange,5a1e5764074b1900012532c2,2021-09-27_10h11.44.684,forced_choiceRT_color,2021.2.3,Win32,58.27166249,,,,,,,,5,Ontime,short,d,1,1.9859,3,1,13,0,1,,,,,
,1.69,,,,,,,,,k,purple,5a1e5764074b1900012532c2,2021-09-27_10h11.44.684,forced_choiceRT_color,2021.2.3,Win32,58.27166249,,,,,,,,5,Slow,short,k,1,2.2253,3,2,14,3,1,,,,,
,0.71,,,,,,,,,d,orange,5a1e5764074b1900012532c2,2021-09-27_10h11.44.684,forced_choiceRT_color,2021.2.3,Win32,58.27166249,,,,,,,,5,Slow,short,d,1,2.2045,3,3,15,0,1,,,,,
,1.51,,,,,,,,,f,blue,5a1e5764074b1900012532c2,2021-09-27_10h11.44.684,forced_choiceRT_color,2021.2.3,Win32,58.27166249,,,,,,,,5,Slow,short,j,0,2.3104,4,0,16,1,1,,,,,
,0.05,,,,,,,,,f,blue,5a1e5764074b1900012532c2,2021-09-27_10h11.44.684,forced_choiceRT_color,2021.2.3,Win32,58.27166249,,,,,,,,5,Fast,short,f,1,0.7713,4,1,17,1,1,,,,,
,1.89,,,,,,,,,d,orange,5a1e5764074b1900012532c2,2021-09-27_10h11.44.684,forced_choiceRT_color,2021.2.3,Win32,58.27166249,,,,,,,,5,Slow,short,d,1,2.6839,4,2,18,0,1,,,,,
,1.21,,,,,,,,,k,purple,5a1e5764074b1900012532c2,2021-09-27_10h11.44.684,forced_choiceRT_color,2021.2.3,Win32,58.27166249,,,,,,,,5,Slow,short,k,1,2.1192,4,3,19,3,1,,,,,
,1.7,,,,,,,,,d,orange,5a1e5764074b1900012532c2,2021-09-27_10h11.44.684,forced_choiceRT_color,2021.2.3,Win32,58.27166249,,,,,,,,5,Slow,short,d,1,2.3085,5,0,20,0,1,,,,,
,1.27,,,,,,,,,f,blue,5a1e5764074b1900012532c2,2021-09-27_10h11.44.684,forced_choiceRT_color,2021.2.3,Win32,58.27166249,,,,,,,,5,Ontime,short,j,0,2.0624,5,1,21,1,1,,,,,
,1.86,,,,,,,,,k,purple,5a1e5764074b1900012532c2,2021-09-27_10h11.44.684,forced_choiceRT_color,2021.2.3,Win32,58.27166249,,,,,,,,5,Slow,short,k,1,2.9111,5,2,22,3,1,,,,,
,0.64,,,,,,,,,j,red,5a1e5764074b1900012532c2,2021-09-27_10h11.44.684,forced_choiceRT_color,2021.2.3,Win32,58.27166249,,,,,,,,5,Fast,short,j,1,1.8385,5,3,23,2,1,,,,,
,1.88,,,,,,,,,k,purple,5a1e5764074b1900012532c2,2021-09-27_10h11.44.684,forced_choiceRT_color,2021.2.3,Win32,58.27166249,,,,,,,,5,Slow,short,k,1,2.5877,6,0,24,3,1,,,,,
,0.28,,,,,,,,,j,red,5a1e5764074b1900012532c2,2021-09-27_10h11.44.684,forced_choiceRT_color,2021.2.3,Win32,58.27166249,,,,,,,,5,Fast,short,j,1,1.1724,6,1,25,2,1,,,,,
,0.7,,,,,,,,,j,red,5a1e5764074b1900012532c2,2021-09-27_10h11.44.684,forced_choiceRT_color,2021.2.3,Win32,58.27166249,,,,,,,,5,Ontime,short,j,1,1.9245,6,2,26,2,1,,,,,
,1.36,,,,,,,,,f,blue,5a1e5764074b1900012532c2,2021-09-27_10h11.44.684,forced_choiceRT_color,2021.2.3,Win32,58.27166249,,,,,,,,5,Ontime,short,f,1,1.9691,6,3,27,1,1,,,,,
,1.76,,,,,,,,,f,blue,5a1e5764074b1900012532c2,2021-09-27_10h11.44.684,forced_choiceRT_color,2021.2.3,Win32,58.27166249,,,,,,,,5,Slow,short,f,1,2.2298,7,0,28,1,1,,,,,
,1.47,,,,,,,,,d,orange,5a1e5764074b1900012532c2,2021-09-27_10h11.44.684,forced_choiceRT_color,2021.2.3,Win32,58.27166249,,,,,,,,5,Ontime,short,d,1,2.0612,7,1,29,0,1,,,,,
,1.5,,,,,,,,,f,blue,5a1e5764074b1900012532c2,2021-09-27_10h11.44.684,forced_choiceRT_color,2021.2.3,Win32,58.27166249,,,,,,,,5,Slow,short,f,1,2.1338,7,2,30,1,1,,,,,
,0.99,,,,,,,,,d,orange,5a1e5764074b1900012532c2,2021-09-27_10h11.44.684,forced_choiceRT_color,2021.2.3,Win32,58.27166249,,,,,,,,5,Fast,short,d,1,1.6772,7,3,31,0,1,,,,,
,1.42,,,,,,,,,j,red,5a1e5764074b1900012532c2,2021-09-27_10h11.44.684,forced_choiceRT_color,2021.2.3,Win32,58.27166249,,,,,,,,5,Ontime,short,k,0,1.9557,8,0,32,2,1,,,,,
,1.01,,,,,,,,,k,purple,5a1e5764074b1900012532c2,2021-09-27_10h11.44.684,forced_choiceRT_color,2021.2.3,Win32,58.27166249,,,,,,,,5,Fast,short,j,0,0.124,8,1,33,3,1,,,,,
,1.96,,,,,,,,,f,blue,5a1e5764074b1900012532c2,2021-09-27_10h11.44.684,forced_choiceRT_color,2021.2.3,Win32,58.27166249,,,,,,,,5,Slow,short,d,0,2.2423,8,2,34,1,1,,,,,
,1.02,,,,,,,,,j,red,5a1e5764074b1900012532c2,2021-09-27_10h11.44.684,forced_choiceRT_color,2021.2.3,Win32,58.27166249,,,,,,,,5,Slow,short,j,1,2.1175,8,3,35,2,1,,,,,
,1.17,,,,,,,,,k,purple,5a1e5764074b1900012532c2,2021-09-27_10h11.44.684,forced_choiceRT_color,2021.2.3,Win32,58.27166249,,,,,,,,5,Fast,short,k,1,1.8342,9,0,36,3,1,,,,,
,1.04,,,,,,,,,j,red,5a1e5764074b1900012532c2,2021-09-27_10h11.44.684,forced_choiceRT_color,2021.2.3,Win32,58.27166249,,,,,,,,5,Fast,short,j,1,1.8045,9,1,37,2,1,,,,,
,0.51,,,,,,,,,d,orange,5a1e5764074b1900012532c2,2021-09-27_10h11.44.684,forced_choiceRT_color,2021.2.3,Win32,58.27166249,,,,,,,,5,Fast,short,d,1,1.8861,9,2,38,0,1,,,,,
,0.49,,,,,,,,,f,blue,5a1e5764074b1900012532c2,2021-09-27_10h11.44.684,forced_choiceRT_color,2021.2.3,Win32,58.27166249,,,,,,,,5,Slow,short,f,1,2.223,9,3,39,1,1,,,,,
,,,,,,,,,,,,5a1e5764074b1900012532c2,2021-09-27_10h11.44.684,forced_choiceRT_color,2021.2.3,Win32,58.27166249,,,,,,,,,,,,,,,,,,,4,0,4,0,1
,1.5,,,,,,,,,j,red,5a1e5764074b1900012532c2,2021-09-27_10h11.44.684,forced_choiceRT_color,2021.2.3,Win32,58.27166249,,,,,,,,6,Slow,short,j,1,2.1832,0,0,0,2,1,,,,,
,0.67,,,,,,,,,k,purple,5a1e5764074b1900012532c2,2021-09-27_10h11.44.684,forced_choiceRT_color,2021.2.3,Win32,58.27166249,,,,,,,,6,Fast,short,k,1,1.6108,0,1,1,3,1,,,,,
,0.59,,,,,,,,,k,purple,5a1e5764074b1900012532c2,2021-09-27_10h11.44.684,forced_choiceRT_color,2021.2.3,Win32,58.27166249,,,,,,,,6,Fast,short,k,1,1.878,0,2,2,3,1,,,,,
,0.8,,,,,,,,,j,red,5a1e5764074b1900012532c2,2021-09-27_10h11.44.684,forced_choiceRT_color,2021.2.3,Win32,58.27166249,,,,,,,,6,Ontime,short,j,1,2.0002,0,3,3,2,1,,,,,
,1.67,,,,,,,,,j,red,5a1e5764074b1900012532c2,2021-09-27_10h11.44.684,forced_choiceRT_color,2021.2.3,Win32,58.27166249,,,,,,,,6,Ontime,short,j,1,2.0879,1,0,4,2,1,,,,,
,1.93,,,,,,,,,j,red,5a1e5764074b1900012532c2,2021-09-27_10h11.44.684,forced_choiceRT_color,2021.2.3,Win32,58.27166249,,,,,,,,6,Slow,short,j,1,2.2167,1,1,5,2,1,,,,,
,0.72,,,,,,,,,f,blue,5a1e5764074b1900012532c2,2021-09-27_10h11.44.684,forced_choiceRT_color,2021.2.3,Win32,58.27166249,,,,,,,,6,Slow,short,f,1,2.1253,1,2,6,1,1,,,,,
,1.93,,,,,,,,,d,orange,5a1e5764074b1900012532c2,2021-09-27_10h11.44.684,forced_choiceRT_color,2021.2.3,Win32,58.27166249,,,,,,,,6,Slow,short,d,1,2.467,1,3,7,0,1,,,,,
,1.34,,,,,,,,,f,blue,5a1e5764074b1900012532c2,2021-09-27_10h11.44.684,forced_choiceRT_color,2021.2.3,Win32,58.27166249,,,,,,,,6,Ontime,short,f,1,1.9682,2,0,8,1,1,,,,,
,0.06,,,,,,,,,d,orange,5a1e5764074b1900012532c2,2021-09-27_10h11.44.684,forced_choiceRT_color,2021.2.3,Win32,58.27166249,,,,,,,,6,Fast,short,d,1,1.8418,2,1,9,0,1,,,,,
,1.47,,,,,,,,,k,purple,5a1e5764074b1900012532c2,2021-09-27_10h11.44.684,forced_choiceRT_color,2021.2.3,Win32,58.27166249,,,,,,,,6,Ontime,short,k,1,2.0343,2,2,10,3,1,,,,,
,1.32,,,,,,,,,d,orange,5a1e5764074b1900012532c2,2021-09-27_10h11.44.684,forced_choiceRT_color,2021.2.3,Win32,58.27166249,,,,,,,,6,Slow,short,d,1,2.2674,2,3,11,0,1,,,,,
,0.27,,,,,,,,,f,blue,5a1e5764074b1900012532c2,2021-09-27_10h11.44.684,forced_choiceRT_color,2021.2.3,Win32,58.27166249,,,,,,,,6,Ontime,short,f,1,2.0955,3,0,12,1,1,,,,,
,1.55,,,,,,,,,d,orange,5a1e5764074b1900012532c2,2021-09-27_10h11.44.684,forced_choiceRT_color,2021.2.3,Win32,58.27166249,,,,,,,,6,Ontime,short,d,1,2.0944,3,1,13,0,1,,,,,
,0.59,,,,,,,,,j,red,5a1e5764074b1900012532c2,2021-09-27_10h11.44.684,forced_choiceRT_color,2021.2.3,Win32,58.27166249,,,,,,,,6,Ontime,short,j,1,1.9887,3,2,14,2,1,,,,,
,0.36,,,,,,,,,f,blue,5a1e5764074b1900012532c2,2021-09-27_10h11.44.684,forced_choiceRT_color,2021.2.3,Win32,58.27166249,,,,,,,,6,Ontime,short,f,1,1.934,3,3,15,1,1,,,,,
,1.01,,,,,,,,,j,red,5a1e5764074b1900012532c2,2021-09-27_10h11.44.684,forced_choiceRT_color,2021.2.3,Win32,58.27166249,,,,,,,,6,Ontime,short,j,1,1.9505,4,0,16,2,1,,,,,
,0.21,,,,,,,,,k,purple,5a1e5764074b1900012532c2,2021-09-27_10h11.44.684,forced_choiceRT_color,2021.2.3,Win32,58.27166249,,,,,,,,6,Fast,short,k,1,1.6943,4,1,17,3,1,,,,,
,1.96,,,,,,,,,f,blue,5a1e5764074b1900012532c2,2021-09-27_10h11.44.684,forced_choiceRT_color,2021.2.3,Win32,58.27166249,,,,,,,,6,Slow,short,f,1,2.1918,4,2,18,1,1,,,,,
,1.38,,,,,,,,,j,red,5a1e5764074b1900012532c2,2021-09-27_10h11.44.684,forced_choiceRT_color,2021.2.3,Win32,58.27166249,,,,,,,,6,Slow,short,f,0,2.3335,4,3,19,2,1,,,,,
,1.13,,,,,,,,,j,red,5a1e5764074b1900012532c2,2021-09-27_10h11.44.684,forced_choiceRT_color,2021.2.3,Win32,58.27166249,,,,,,,,6,Fast,short,j,1,1.8838,5,0,20,2,1,,,,,
,1.64,,,,,,,,,f,blue,5a1e5764074b1900012532c2,2021-09-27_10h11.44.684,forced_choiceRT_color,2021.2.3,Win32,58.27166249,,,,,,,,6,Ontime,short,f,1,2.0899,5,1,21,1,1,,,,,
,0.74,,,,,,,,,d,orange,5a1e5764074b1900012532c2,2021-09-27_10h11.44.684,forced_choiceRT_color,2021.2.3,Win32,58.27166249,,,,,,,,6,Fast,short,d,1,1.8268,5,2,22,0,1,,,,,
,1.1,,,,,,,,,k,purple,5a1e5764074b1900012532c2,2021-09-27_10h11.44.684,forced_choiceRT_color,2021.2.3,Win32,58.27166249,,,,,,,,6,Ontime,short,k,1,1.9085,5,3,23,3,1,,,,,
,0.07,,,,,,,,,k,purple,5a1e5764074b1900012532c2,2021-09-27_10h11.44.684,forced_choiceRT_color,2021.2.3,Win32,58.27166249,,,,,,,,6,Fast,short,k,1,1.8171,6,0,24,3,1,,,,,
,0.01,,,,,,,,,f,blue,5a1e5764074b1900012532c2,2021-09-27_10h11.44.684,forced_choiceRT_color,2021.2.3,Win32,58.27166249,,,,,,,,6,Ontime,short,f,1,2.0408,6,1,25,1,1,,,,,
,1.18,,,,,,,,,d,orange,5a1e5764074b1900012532c2,2021-09-27_10h11.44.684,forced_choiceRT_color,2021.2.3,Win32,58.27166249,,,,,,,,6,Fast,short,d,1,1.8888,6,2,26,0,1,,,,,
,1.75,,,,,,,,,f,blue,5a1e5764074b1900012532c2,2021-09-27_10h11.44.684,forced_choiceRT_color,2021.2.3,Win32,58.27166249,,,,,,,,6,Slow,short,d,0,2.176,6,3,27,1,1,,,,,
,1.51,,,,,,,,,f,blue,5a1e5764074b1900012532c2,2021-09-27_10h11.44.684,forced_choiceRT_color,2021.2.3,Win32,58.27166249,,,,,,,,6,Ontime,short,f,1,2.0502,7,0,28,1,1,,,,,
,1.95,,,,,,,,,f,blue,5a1e5764074b1900012532c2,2021-09-27_10h11.44.684,forced_choiceRT_color,2021.2.3,Win32,58.27166249,,,,,,,,6,Slow,short,f,1,2.2413,7,1,29,1,1,,,,,
,0.94,,,,,,,,,k,purple,5a1e5764074b1900012532c2,2021-09-27_10h11.44.684,forced_choiceRT_color,2021.2.3,Win32,58.27166249,,,,,,,,6,Ontime,short,k,1,1.9011,7,2,30,3,1,,,,,
,0.05,,,,,,,,,d,orange,5a1e5764074b1900012532c2,2021-09-27_10h11.44.684,forced_choiceRT_color,2021.2.3,Win32,58.27166249,,,,,,,,6,Fast,short,d,1,1.8499,7,3,31,0,1,,,,,
,0.52,,,,,,,,,k,purple,5a1e5764074b1900012532c2,2021-09-27_10h11.44.684,forced_choiceRT_color,2021.2.3,Win32,58.27166249,,,,,,,,6,Ontime,short,k,1,2.0671,8,0,32,3,1,,,,,
,0.61,,,,,,,,,d,orange,5a1e5764074b1900012532c2,2021-09-27_10h11.44.684,forced_choiceRT_color,2021.2.3,Win32,58.27166249,,,,,,,,6,Ontime,short,d,1,1.9905,8,1,33,0,1,,,,,
,0.05,,,,,,,,,d,orange,5a1e5764074b1900012532c2,2021-09-27_10h11.44.684,forced_choiceRT_color,2021.2.3,Win32,58.27166249,,,,,,,,6,Ontime,short,d,1,2.0847,8,2,34,0,1,,,,,
,0.46,,,,,,,,,k,purple,5a1e5764074b1900012532c2,2021-09-27_10h11.44.684,forced_choiceRT_color,2021.2.3,Win32,58.27166249,,,,,,,,6,Ontime,short,k,1,1.9173,8,3,35,3,1,,,,,
,1.28,,,,,,,,,k,purple,5a1e5764074b1900012532c2,2021-09-27_10h11.44.684,forced_choiceRT_color,2021.2.3,Win32,58.27166249,,,,,,,,6,Fast,short,k,1,1.8568,9,0,36,3,1,,,,,
,0.2,,,,,,,,,j,red,5a1e5764074b1900012532c2,2021-09-27_10h11.44.684,forced_choiceRT_color,2021.2.3,Win32,58.27166249,,,,,,,,6,Ontime,short,j,1,1.9906,9,1,37,2,1,,,,,
,1.82,,,,,,,,,j,red,5a1e5764074b1900012532c2,2021-09-27_10h11.44.684,forced_choiceRT_color,2021.2.3,Win32,58.27166249,,,,,,,,6,Slow,short,j,1,2.1701,9,2,38,2,1,,,,,
,1.94,,,,,,,,,d,orange,5a1e5764074b1900012532c2,2021-09-27_10h11.44.684,forced_choiceRT_color,2021.2.3,Win32,58.27166249,,,,,,,,6,Slow,short,j,0,2.2183,9,3,39,0,1,,,,,
,,,,,,,,,,,,5a1e5764074b1900012532c2,2021-09-27_10h11.44.684,forced_choiceRT_color,2021.2.3,Win32,58.27166249,,,,,,,,,,,,,,,,,,,5,0,5,0,1
,1.41,,,,,,,,,f,blue,5a1e5764074b1900012532c2,2021-09-27_10h11.44.684,forced_choiceRT_color,2021.2.3,Win32,58.27166249,,,,,,,,7,Slow,short,f,1,2.3102,0,0,0,1,1,,,,,
,0.98,,,,,,,,,d,orange,5a1e5764074b1900012532c2,2021-09-27_10h11.44.684,forced_choiceRT_color,2021.2.3,Win32,58.27166249,,,,,,,,7,Fast,short,d,1,1.8217,0,1,1,0,1,,,,,
,0.66,,,,,,,,,d,orange,5a1e5764074b1900012532c2,2021-09-27_10h11.44.684,forced_choiceRT_color,2021.2.3,Win32,58.27166249,,,,,,,,7,Ontime,short,d,1,2.044,0,2,2,0,1,,,,,
,1.15,,,,,,,,,j,red,5a1e5764074b1900012532c2,2021-09-27_10h11.44.684,forced_choiceRT_color,2021.2.3,Win32,58.27166249,,,,,,,,7,Ontime,short,j,1,1.9771,0,3,3,2,1,,,,,
,1.65,,,,,,,,,j,red,5a1e5764074b1900012532c2,2021-09-27_10h11.44.684,forced_choiceRT_color,2021.2.3,Win32,58.27166249,,,,,,,,7,Slow,short,j,1,2.1336,1,0,4,2,1,,,,,
,1.41,,,,,,,,,f,blue,5a1e5764074b1900012532c2,2021-09-27_10h11.44.684,forced_choiceRT_color,2021.2.3,Win32,58.27166249,,,,,,,,7,Ontime,short,d,0,1.9732,1,1,5,1,1,,,,,
,0.05,,,,,,,,,f,blue,5a1e5764074b1900012532c2,2021-09-27_10h11.44.684,forced_choiceRT_color,2021.2.3,Win32,58.27166249,,,,,,,,7,Fast,short,f,1,0.0894,1,2,6,1,1,,,,,
,1.44,,,,,,,,,k,purple,5a1e5764074b1900012532c2,2021-09-27_10h11.44.684,forced_choiceRT_color,2021.2.3,Win32,58.27166249,,,,,,,,7,Slow,short,k,1,2.1611,1,3,7,3,1,,,,,
,1.67,,,,,,,,,d,orange,5a1e5764074b1900012532c2,2021-09-27_10h11.44.684,forced_choiceRT_color,2021.2.3,Win32,58.27166249,,,,,,,,7,Slow,short,d,1,2.3419,2,0,8,0,1,,,,,
,0.1,,,,,,,,,f,blue,5a1e5764074b1900012532c2,2021-09-27_10h11.44.684,forced_choiceRT_color,2021.2.3,Win32,58.27166249,,,,,,,,7,Slow,short,f,1,2.2852,2,1,9,1,1,,,,,
,0.37,,,,,,,,,j,red,5a1e5764074b1900012532c2,2021-09-27_10h11.44.684,forced_choiceRT_color,2021.2.3,Win32,58.27166249,,,,,,,,7,Fast,short,j,1,1.3877,2,2,10,2,1,,,,,
,1.57,,,,,,,,,k,purple,5a1e5764074b1900012532c2,2021-09-27_10h11.44.684,forced_choiceRT_color,2021.2.3,Win32,58.27166249,,,,,,,,7,Slow,short,j,0,10.8799,2,3,11,3,1,,,,,
,0.21,,,,,,,,,k,purple,5a1e5764074b1900012532c2,2021-09-27_10h11.44.684,forced_choiceRT_color,2021.2.3,Win32,58.27166249,,,,,,,,7,Ontime,short,k,1,1.9034,3,0,12,3,1,,,,,
,0.27,,,,,,,,,d,orange,5a1e5764074b1900012532c2,2021-09-27_10h11.44.684,forced_choiceRT_color,2021.2.3,Win32,58.27166249,,,,,,,,7,Ontime,short,d,1,2.0708,3,1,13,0,1,,,,,
,1.89,,,,,,,,,k,purple,5a1e5764074b1900012532c2,2021-09-27_10h11.44.684,forced_choiceRT_color,2021.2.3,Win32,58.27166249,,,,,,,,7,Ontime,short,f,0,2.0047,3,2,14,3,1,,,,,
,1.67,,,,,,,,,d,orange,5a1e5764074b1900012532c2,2021-09-27_10h11.44.684,forced_choiceRT_color,2021.2.3,Win32,58.27166249,,,,,,,,7,Slow,short,d,1,2.4168,3,3,15,0,1,,,,,
,1.98,,,,,,,,,d,orange,5a1e5764074b1900012532c2,2021-09-27_10h11.44.684,forced_choiceRT_color,2021.2.3,Win32,58.27166249,,,,,,,,7,Slow,short,d,1,2.5918,4,0,16,0,1,,,,,
,0.15,,,,,,,,,j,red,5a1e5764074b1900012532c2,2021-09-27_10h11.44.684,forced_choiceRT_color,2021.2.3,Win32,58.27166249,,,,,,,,7,Ontime,short,j,1,1.9379,4,1,17,2,1,,,,,
,1.52,,,,,,,,,f,blue,5a1e5764074b1900012532c2,2021-09-27_10h11.44.684,forced_choiceRT_color,2021.2.3,Win32,58.27166249,,,,,,,,7,Slow,short,f,1,2.1504,4,2,18,1,1,,,,,
,0.58,,,,,,,,,j,red,5a1e5764074b1900012532c2,2021-09-27_10h11.44.684,forced_choiceRT_color,2021.2.3,Win32,58.27166249,,,,,,,,7,Slow,short,j,1,2.2889,4,3,19,2,1,,,,,
,1.92,,,,,,,,,f,blue,5a1e5764074b1900012532c2,2021-09-27_10h11.44.684,forced_choiceRT_color,2021.2.3,Win32,58.27166249,,,,,,,,7,Slow,short,k,0,2.2671,5,0,20,1,1,,,,,
,0.89,,,,,,,,,d,orange,5a1e5764074b1900012532c2,2021-09-27_10h11.44.684,forced_choiceRT_color,2021.2.3,Win32,58.27166249,,,,,,,,7,Ontime,short,d,1,1.9426,5,1,21,0,1,,,,,
,0.73,,,,,,,,,f,blue,5a1e5764074b1900012532c2,2021-09-27_10h11.44.684,forced_choiceRT_color,2021.2.3,Win32,58.27166249,,,,,,,,7,Slow,short,f,1,2.2006,5,2,22,1,1,,,,,
,1.2,,,,,,,,,k,purple,5a1e5764074b1900012532c2,2021-09-27_10h11.44.684,forced_choiceRT_color,2021.2.3,Win32,58.27166249,,,,,,,,7,Ontime,short,k,1,1.9499,5,3,23,3,1,,,,,
,0.79,,,,,,,,,j,red,5a1e5764074b1900012532c2,2021-09-27_10h11.44.684,forced_choiceRT_color,2021.2.3,Win32,58.27166249,,,,,,,,7,Fast,short,f,0,1.8361,6,0,24,2,1,,,,,
,0.06,,,,,,,,,k,purple,5a1e5764074b1900012532c2,2021-09-27_10h11.44.684,forced_choiceRT_color,2021.2.3,Win32,58.27166249,,,,,,,,7,Ontime,short,k,1,2.0379,6,1,25,3,1,,,,,
,1.78,,,,,,,,,j,red,5a1e5764074b1900012532c2,2021-09-27_10h11.44.684,forced_choiceRT_color,2021.2.3,Win32,58.27166249,,,,,,,,7,Slow,short,f,0,2.3575,6,2,26,2,1,,,,,
,0.46,,,,,,,,,j,red,5a1e5764074b1900012532c2,2021-09-27_10h11.44.684,forced_choiceRT_color,2021.2.3,Win32,58.27166249,,,,,,,,7,Slow,short,j,1,2.2541,6,3,27,2,1,,,,,
,0.12,,,,,,,,,d,orange,5a1e5764074b1900012532c2,2021-09-27_10h11.44.684,forced_choiceRT_color,2021.2.3,Win32,58.27166249,,,,,,,,7,Slow,short,d,1,2.1895,7,0,28,0,1,,,,,
,1.2,,,,,,,,,k,purple,5a1e5764074b1900012532c2,2021-09-27_10h11.44.684,forced_choiceRT_color,2021.2.3,Win32,58.27166249,,,,,,,,7,Ontime,short,k,1,1.9446,7,1,29,3,1,,,,,
,0.56,,,,,,,,,k,purple,5a1e5764074b1900012532c2,2021-09-27_10h11.44.684,forced_choiceRT_color,2021.2.3,Win32,58.27166249,,,,,,,,7,Fast,short,k,1,1.8175,7,2,30,3,1,,,,,
,0.46,,,,,,,,,d,orange,5a1e5764074b1900012532c2,2021-09-27_10h11.44.684,forced_choiceRT_color,2021.2.3,Win32,58.27166249,,,,,,,,7,Fast,short,d,1,1.8419,7,3,31,0,1,,,,,
,1.61,,,,,,,,,k,purple,5a1e5764074b1900012532c2,2021-09-27_10h11.44.684,forced_choiceRT_color,2021.2.3,Win32,58.27166249,,,,,,,,7,Slow,short,k,1,2.2836,8,0,32,3,1,,,,,
,1.14,,,,,,,,,f,blue,5a1e5764074b1900012532c2,2021-09-27_10h11.44.684,forced_choiceRT_color,2021.2.3,Win32,58.27166249,,,,,,,,7,Slow,short,f,1,2.3521,8,1,33,1,1,,,,,
,0.02,,,,,,,,,j,red,5a1e5764074b1900012532c2,2021-09-27_10h11.44.684,forced_choiceRT_color,2021.2.3,Win32,58.27166249,,,,,,,,7,Slow,short,j,1,2.2744,8,2,34,2,1,,,,,
,0.89,,,,,,,,,f,blue,5a1e5764074b1900012532c2,2021-09-27_10h11.44.684,forced_choiceRT_color,2021.2.3,Win32,58.27166249,,,,,,,,7,Ontime,short,f,1,2.0006,8,3,35,1,1,,,,,
,0.62,,,,,,,,,k,purple,5a1e5764074b1900012532c2,2021-09-27_10h11.44.684,forced_choiceRT_color,2021.2.3,Win32,58.27166249,,,,,,,,7,Ontime,short,k,1,2.0273,9,0,36,3,1,,,,,
,1.98,,,,,,,,,f,blue,5a1e5764074b1900012532c2,2021-09-27_10h11.44.684,forced_choiceRT_color,2021.2.3,Win32,58.27166249,,,,,,,,7,Slow,short,f,1,2.8073,9,1,37,1,1,,,,,
,1.76,,,,,,,,,d,orange,5a1e5764074b1900012532c2,2021-09-27_10h11.44.684,forced_choiceRT_color,2021.2.3,Win32,58.27166249,,,,,,,,7,Slow,short,d,1,2.3698,9,2,38,0,1,,,,,
,1.21,,,,,,,,,j,red,5a1e5764074b1900012532c2,2021-09-27_10h11.44.684,forced_choiceRT_color,2021.2.3,Win32,58.27166249,,,,,,,,7,Slow,short,j,1,2.153,9,3,39,2,1,,,,,
,,,,,,,,,,,,5a1e5764074b1900012532c2,2021-09-27_10h11.44.684,forced_choiceRT_color,2021.2.3,Win32,58.27166249,,,,,,,,,,,,,,,,,,,6,0,6,0,1
,1.23,,,,,,,,,j,red,5a1e5764074b1900012532c2,2021-09-27_10h11.44.684,forced_choiceRT_color,2021.2.3,Win32,58.27166249,,,,,,,,8,Ontime,short,j,1,1.9906,0,0,0,2,1,,,,,
,0.09,,,,,,,,,j,red,5a1e5764074b1900012532c2,2021-09-27_10h11.44.684,forced_choiceRT_color,2021.2.3,Win32,58.27166249,,,,,,,,8,Fast,short,j,1,0.861,0,1,1,2,1,,,,,
,1.02,,,,,,,,,j,red,5a1e5764074b1900012532c2,2021-09-27_10h11.44.684,forced_choiceRT_color,2021.2.3,Win32,58.27166249,,,,,,,,8,Fast,short,j,1,1.7676,0,2,2,2,1,,,,,
,0.42,,,,,,,,,f,blue,5a1e5764074b1900012532c2,2021-09-27_10h11.44.684,forced_choiceRT_color,2021.2.3,Win32,58.27166249,,,,,,,,8,Slow,short,f,1,2.1505,0,3,3,1,1,,,,,
,1.92,,,,,,,,,k,purple,5a1e5764074b1900012532c2,2021-09-27_10h11.44.684,forced_choiceRT_color,2021.2.3,Win32,58.27166249,,,,,,,,8,Slow,short,k,1,2.5905,1,0,4,3,1,,,,,
,1.13,,,,,,,,,k,purple,5a1e5764074b1900012532c2,2021-09-27_10h11.44.684,forced_choiceRT_color,2021.2.3,Win32,58.27166249,,,,,,,,8,Ontime,short,k,1,2.0179,1,1,5,3,1,,,,,
,1.37,,,,,,,,,f,blue,5a1e5764074b1900012532c2,2021-09-27_10h11.44.684,forced_choiceRT_color,2021.2.3,Win32,58.27166249,,,,,,,,8,Ontime,short,k,0,2.0092,1,2,6,1,1,,,,,
,0.99,,,,,,,,,k,purple,5a1e5764074b1900012532c2,2021-09-27_10h11.44.684,forced_choiceRT_color,2021.2.3,Win32,58.27166249,,,,,,,,8,Ontime,short,k,1,1.9767,1,3,7,3,1,,,,,
,1.26,,,,,,,,,f,blue,5a1e5764074b1900012532c2,2021-09-27_10h11.44.684,forced_choiceRT_color,2021.2.3,Win32,58.27166249,,,,,,,,8,Slow,short,f,1,2.1572,2,0,8,1,1,,,,,
,0.89,,,,,,,,,j,red,5a1e5764074b1900012532c2,2021-09-27_10h11.44.684,forced_choiceRT_color,2021.2.3,Win32,58.27166249,,,,,,,,8,Ontime,short,j,1,2.0112,2,1,9,2,1,,,,,
,0.63,,,,,,,,,j,red,5a1e5764074b1900012532c2,2021-09-27_10h11.44.684,forced_choiceRT_color,2021.2.3,Win32,58.27166249,,,,,,,,8,Slow,short,j,1,2.1834,2,2,10,2,1,,,,,
,0.04,,,,,,,,,j,red,5a1e5764074b1900012532c2,2021-09-27_10h11.44.684,forced_choiceRT_color,2021.2.3,Win32,58.27166249,,,,,,,,8,Slow,short,j,1,2.2366,2,3,11,2,1,,,,,
,0.34,,,,,,,,,f,blue,5a1e5764074b1900012532c2,2021-09-27_10h11.44.684,forced_choiceRT_color,2021.2.3,Win32,58.27166249,,,,,,,,8,Fast,short,f,1,1.8854,3,0,12,1,1,,,,,
,1.62,,,,,,,,,d,orange,5a1e5764074b1900012532c2,2021-09-27_10h11.44.684,forced_choiceRT_color,2021.2.3,Win32,58.27166249,,,,,,,,8,Ontime,short,d,1,2.0115,3,1,13,0,1,,,,,
,0.89,,,,,,,,,k,purple,5a1e5764074b1900012532c2,2021-09-27_10h11.44.684,forced_choiceRT_color,2021.2.3,Win32,58.27166249,,,,,,,,8,Fast,short,k,1,1.8891,3,2,14,3,1,,,,,
,1.98,,,,,,,,,j,red,5a1e5764074b1900012532c2,2021-09-27_10h11.44.684,forced_choiceRT_color,2021.2.3,Win32,58.27166249,,,,,,,,8,Slow,short,j,1,3.7098,3,3,15,2,1,,,,,
,1,,,,,,,,,k,purple,5a1e5764074b1900012532c2,2021-09-27_10h11.44.684,forced_choiceRT_color,2021.2.3,Win32,58.27166249,,,,,,,,8,Ontime,short,k,1,1.9083,4,0,16,3,1,,,,,
,1.72,,,,,,,,,j,red,5a1e5764074b1900012532c2,2021-09-27_10h11.44.684,forced_choiceRT_color,2021.2.3,Win32,58.27166249,,,,,,,,8,Slow,short,j,1,2.3834,4,1,17,2,1,,,,,
,0.03,,,,,,,,,k,purple,5a1e5764074b1900012532c2,2021-09-27_10h11.44.684,forced_choiceRT_color,2021.2.3,Win32,58.27166249,,,,,,,,8,Ontime,short,k,1,2.0004,4,2,18,3,1,,,,,
,0.17,,,,,,,,,d,orange,5a1e5764074b1900012532c2,2021-09-27_10h11.44.684,forced_choiceRT_color,2021.2.3,Win32,58.27166249,,,,,,,,8,Fast,short,d,1,1.867,4,3,19,0,1,,,,,
,0.79,,,,,,,,,k,purple,5a1e5764074b1900012532c2,2021-09-27_10h11.44.684,forced_choiceRT_color,2021.2.3,Win32,58.27166249,,,,,,,,8,Ontime,short,k,1,2.0421,5,0,20,3,1,,,,,
,0.65,,,,,,,,,f,blue,5a1e5764074b1900012532c2,2021-09-27_10h11.44.684,forced_choiceRT_color,2021.2.3,Win32,58.27166249,,,,,,,,8,Slow,short,f,1,2.4021,5,1,21,1,1,,,,,
,0.51,,,,,,,,,d,orange,5a1e5764074b1900012532c2,2021-09-27_10h11.44.684,forced_choiceRT_color,2021.2.3,Win32,58.27166249,,,,,,,,8,Slow,short,d,1,2.2003,5,2,22,0,1,,,,,
,1.98,,,,,,,,,f,blue,5a1e5764074b1900012532c2,2021-09-27_10h11.44.684,forced_choiceRT_color,2021.2.3,Win32,58.27166249,,,,,,,,8,Slow,short,f,1,4.571,5,3,23,1,1,,,,,
,1.19,,,,,,,,,f,blue,5a1e5764074b1900012532c2,2021-09-27_10h11.44.684,forced_choiceRT_color,2021.2.3,Win32,58.27166249,,,,,,,,8,Slow,short,d,0,7.3159,6,0,24,1,1,,,,,
,1.03,,,,,,,,,f,blue,5a1e5764074b1900012532c2,2021-09-27_10h11.44.684,forced_choiceRT_color,2021.2.3,Win32,58.27166249,,,,,,,,8,Slow,short,f,1,2.2226,6,1,25,1,1,,,,,
,1.47,,,,,,,,,j,red,5a1e5764074b1900012532c2,2021-09-27_10h11.44.684,forced_choiceRT_color,2021.2.3,Win32,58.27166249,,,,,,,,8,Ontime,short,j,1,2.0844,6,2,26,2,1,,,,,
,1.92,,,,,,,,,d,orange,5a1e5764074b1900012532c2,2021-09-27_10h11.44.684,forced_choiceRT_color,2021.2.3,Win32,58.27166249,,,,,,,,8,Slow,short,d,1,2.6679,6,3,27,0,1,,,,,
,0.51,,,,,,,,,k,purple,5a1e5764074b1900012532c2,2021-09-27_10h11.44.684,forced_choiceRT_color,2021.2.3,Win32,58.27166249,,,,,,,,8,Slow,short,k,1,2.2336,7,0,28,3,1,,,,,
,0.69,,,,,,,,,d,orange,5a1e5764074b1900012532c2,2021-09-27_10h11.44.684,forced_choiceRT_color,2021.2.3,Win32,58.27166249,,,,,,,,8,Fast,short,d,1,1.8025,7,1,29,0,1,,,,,
,0.82,,,,,,,,,d,orange,5a1e5764074b1900012532c2,2021-09-27_10h11.44.684,forced_choiceRT_color,2021.2.3,Win32,58.27166249,,,,,,,,8,Ontime,short,d,1,2.0869,7,2,30,0,1,,,,,
,0.86,,,,,,,,,k,purple,5a1e5764074b1900012532c2,2021-09-27_10h11.44.684,forced_choiceRT_color,2021.2.3,Win32,58.27166249,,,,,,,,8,Ontime,short,k,1,2.0673,7,3,31,3,1,,,,,
,1.49,,,,,,,,,k,purple,5a1e5764074b1900012532c2,2021-09-27_10h11.44.684,forced_choiceRT_color,2021.2.3,Win32,58.27166249,,,,,,,,8,Ontime,short,k,1,2.0332,8,0,32,3,1,,,,,
,1.05,,,,,,,,,d,orange,5a1e5764074b1900012532c2,2021-09-27_10h11.44.684,forced_choiceRT_color,2021.2.3,Win32,58.27166249,,,,,,,,8,Ontime,short,d,1,2.094,8,1,33,0,1,,,,,
,0.45,,,,,,,,,d,orange,5a1e5764074b1900012532c2,2021-09-27_10h11.44.684,forced_choiceRT_color,2021.2.3,Win32,58.27166249,,,,,,,,8,Ontime,short,d,1,2.023,8,2,34,0,1,,,,,
,1.84,,,,,,,,,d,orange,5a1e5764074b1900012532c2,2021-09-27_10h11.44.684,forced_choiceRT_color,2021.2.3,Win32,58.27166249,,,,,,,,8,Ontime,short,d,1,1.9374,8,3,35,0,1,,,,,
,1.74,,,,,,,,,d,orange,5a1e5764074b1900012532c2,2021-09-27_10h11.44.684,forced_choiceRT_color,2021.2.3,Win32,58.27166249,,,,,,,,8,Slow,short,d,1,2.1214,9,0,36,0,1,,,,,
,0.28,,,,,,,,,f,blue,5a1e5764074b1900012532c2,2021-09-27_10h11.44.684,forced_choiceRT_color,2021.2.3,Win32,58.27166249,,,,,,,,8,Ontime,short,f,1,1.9287,9,1,37,1,1,,,,,
,0.93,,,,,,,,,f,blue,5a1e5764074b1900012532c2,2021-09-27_10h11.44.684,forced_choiceRT_color,2021.2.3,Win32,58.27166249,,,,,,,,8,Ontime,short,f,1,2.0235,9,2,38,1,1,,,,,
,0.47,,,,,,,,,j,red,5a1e5764074b1900012532c2,2021-09-27_10h11.44.684,forced_choiceRT_color,2021.2.3,Win32,58.27166249,,,,,,,,8,Fast,short,j,1,1.8165,9,3,39,2,1,,,,,
,,,,,,,,,,,,5a1e5764074b1900012532c2,2021-09-27_10h11.44.684,forced_choiceRT_color,2021.2.3,Win32,58.27166249,,,,,,,,,,,,,,,,,,,7,0,7,0,1
,0.59,,,,,,,,,f,blue,5a1e5764074b1900012532c2,2021-09-27_10h11.44.684,forced_choiceRT_color,2021.2.3,Win32,58.27166249,,,,,,,,9,Fast,short,f,1,1.7891,0,0,0,1,1,,,,,
,1.2,,,,,,,,,d,orange,5a1e5764074b1900012532c2,2021-09-27_10h11.44.684,forced_choiceRT_color,2021.2.3,Win32,58.27166249,,,,,,,,9,Ontime,short,d,1,1.9176,0,1,1,0,1,,,,,
,1.41,,,,,,,,,j,red,5a1e5764074b1900012532c2,2021-09-27_10h11.44.684,forced_choiceRT_color,2021.2.3,Win32,58.27166249,,,,,,,,9,Ontime,short,j,1,2.0245,0,2,2,2,1,,,,,
,1.04,,,,,,,,,d,orange,5a1e5764074b1900012532c2,2021-09-27_10h11.44.684,forced_choiceRT_color,2021.2.3,Win32,58.27166249,,,,,,,,9,Ontime,short,d,1,1.9241,0,3,3,0,1,,,,,
,0.19,,,,,,,,,f,blue,5a1e5764074b1900012532c2,2021-09-27_10h11.44.684,forced_choiceRT_color,2021.2.3,Win32,58.27166249,,,,,,,,9,Ontime,short,f,1,1.9685,1,0,4,1,1,,,,,
,0.99,,,,,,,,,k,purple,5a1e5764074b1900012532c2,2021-09-27_10h11.44.684,forced_choiceRT_color,2021.2.3,Win32,58.27166249,,,,,,,,9,Fast,short,k,1,1.8507,1,1,5,3,1,,,,,
,0.81,,,,,,,,,k,purple,5a1e5764074b1900012532c2,2021-09-27_10h11.44.684,forced_choiceRT_color,2021.2.3,Win32,58.27166249,,,,,,,,9,Fast,short,k,1,1.8673,1,2,6,3,1,,,,,
,0.94,,,,,,,,,j,red,5a1e5764074b1900012532c2,2021-09-27_10h11.44.684,forced_choiceRT_color,2021.2.3,Win32,58.27166249,,,,,,,,9,Ontime,short,f,0,2.0792,1,3,7,2,1,,,,,
,0.93,,,,,,,,,k,purple,5a1e5764074b1900012532c2,2021-09-27_10h11.44.684,forced_choiceRT_color,2021.2.3,Win32,58.27166249,,,,,,,,9,Fast,short,k,1,1.8363,2,0,8,3,1,,,,,
,1.24,,,,,,,,,j,red,5a1e5764074b1900012532c2,2021-09-27_10h11.44.684,forced_choiceRT_color,2021.2.3,Win32,58.27166249,,,,,,,,9,Ontime,short,j,1,1.9178,2,1,9,2,1,,,,,
,1,,,,,,,,,j,red,5a1e5764074b1900012532c2,2021-09-27_10h11.44.684,forced_choiceRT_color,2021.2.3,Win32,58.27166249,,,,,,,,9,Fast,short,j,1,1.8176,2,2,10,2,1,,,,,
,0.13,,,,,,,,,d,orange,5a1e5764074b1900012532c2,2021-09-27_10h11.44.684,forced_choiceRT_color,2021.2.3,Win32,58.27166249,,,,,,,,9,Ontime,short,d,1,2.0245,2,3,11,0,1,,,,,
,0,,,,,,,,,j,red,5a1e5764074b1900012532c2,2021-09-27_10h11.44.684,forced_choiceRT_color,2021.2.3,Win32,58.27166249,,,,,,,,9,Ontime,short,j,1,1.9003,3,0,12,2,1,,,,,
,1.3,,,,,,,,,d,orange,5a1e5764074b1900012532c2,2021-09-27_10h11.44.684,forced_choiceRT_color,2021.2.3,Win32,58.27166249,,,,,,,,9,Fast,short,j,0,1.6668,3,1,13,0,1,,,,,
,1.43,,,,,,,,,f,blue,5a1e5764074b1900012532c2,2021-09-27_10h11.44.684,forced_choiceRT_color,2021.2.3,Win32,58.27166249,,,,,,,,9,Slow,short,f,1,2.2835,3,2,14,1,1,,,,,
,1.83,,,,,,,,,f,blue,5a1e5764074b1900012532c2,2021-09-27_10h11.44.684,forced_choiceRT_color,2021.2.3,Win32,58.27166249,,,,,,,,9,Slow,short,j,0,2.2667,3,3,15,1,1,,,,,
,0.56,,,,,,,,,j,red,5a1e5764074b1900012532c2,2021-09-27_10h11.44.684,forced_choiceRT_color,2021.2.3,Win32,58.27166249,,,,,,,,9,Ontime,short,j,1,2.0003,4,0,16,2,1,,,,,
,1.89,,,,,,,,,k,purple,5a1e5764074b1900012532c2,2021-09-27_10h11.44.684,forced_choiceRT_color,2021.2.3,Win32,58.27166249,,,,,,,,9,Slow,short,k,1,2.368,4,1,17,3,1,,,,,
,0.57,,,,,,,,,d,orange,5a1e5764074b1900012532c2,2021-09-27_10h11.44.684,forced_choiceRT_color,2021.2.3,Win32,58.27166249,,,,,,,,9,Fast,short,d,1,1.6218,4,2,18,0,1,,,,,
,1.6,,,,,,,,,d,orange,5a1e5764074b1900012532c2,2021-09-27_10h11.44.684,forced_choiceRT_color,2021.2.3,Win32,58.27166249,,,,,,,,9,Ontime,short,d,1,2.1,4,3,19,0,1,,,,,
,0.33,,,,,,,,,k,purple,5a1e5764074b1900012532c2,2021-09-27_10h11.44.684,forced_choiceRT_color,2021.2.3,Win32,58.27166249,,,,,,,,9,Fast,short,k,1,1.6894,5,0,20,3,1,,,,,
,1.28,,,,,,,,,k,purple,5a1e5764074b1900012532c2,2021-09-27_10h11.44.684,forced_choiceRT_color,2021.2.3,Win32,58.27166249,,,,,,,,9,Ontime,short,k,1,1.9106,5,1,21,3,1,,,,,
,1.46,,,,,,,,,d,orange,5a1e5764074b1900012532c2,2021-09-27_10h11.44.684,forced_choiceRT_color,2021.2.3,Win32,58.27166249,,,,,,,,9,Ontime,short,d,1,2.0256,5,2,22,0,1,,,,,
,0.07,,,,,,,,,j,red,5a1e5764074b1900012532c2,2021-09-27_10h11.44.684,forced_choiceRT_color,2021.2.3,Win32,58.27166249,,,,,,,,9,Fast,short,j,1,1.8668,5,3,23,2,1,,,,,
,1.11,,,,,,,,,j,red,5a1e5764074b1900012532c2,2021-09-27_10h11.44.684,forced_choiceRT_color,2021.2.3,Win32,58.27166249,,,,,,,,9,Fast,short,j,1,1.7612,6,0,24,2,1,,,,,
,1.4,,,,,,,,,j,red,5a1e5764074b1900012532c2,2021-09-27_10h11.44.684,forced_choiceRT_color,2021.2.3,Win32,58.27166249,,,,,,,,9,Ontime,short,j,1,1.9291,6,1,25,2,1,,,,,
,1.19,,,,,,,,,k,purple,5a1e5764074b1900012532c2,2021-09-27_10h11.44.684,forced_choiceRT_color,2021.2.3,Win32,58.27166249,,,,,,,,9,Fast,short,k,1,1.8076,6,2,26,3,1,,,,,
,1.75,,,,,,,,,d,orange,5a1e5764074b1900012532c2,2021-09-27_10h11.44.684,forced_choiceRT_color,2021.2.3,Win32,58.27166249,,,,,,,,9,Slow,short,j,0,2.2379,6,3,27,0,1,,,,,
,0.3,,,,,,,,,f,blue,5a1e5764074b1900012532c2,2021-09-27_10h11.44.684,forced_choiceRT_color,2021.2.3,Win32,58.27166249,,,,,,,,9,Fast,short,f,1,1.8783,7,0,28,1,1,,,,,
,0.27,,,,,,,,,d,orange,5a1e5764074b1900012532c2,2021-09-27_10h11.44.684,forced_choiceRT_color,2021.2.3,Win32,58.27166249,,,,,,,,9,Ontime,short,d,1,2.0755,7,1,29,0,1,,,,,
,1.29,,,,,,,,,k,purple,5a1e5764074b1900012532c2,2021-09-27_10h11.44.684,forced_choiceRT_color,2021.2.3,Win32,58.27166249,,,,,,,,9,Slow,short,k,1,2.2615,7,2,30,3,1,,,,,
,0.29,,,,,,,,,k,purple,5a1e5764074b1900012532c2,2021-09-27_10h11.44.684,forced_choiceRT_color,2021.2.3,Win32,58.27166249,,,,,,,,9,Slow,short,k,1,2.284,7,3,31,3,1,,,,,
,0.39,,,,,,,,,f,blue,5a1e5764074b1900012532c2,2021-09-27_10h11.44.684,forced_choiceRT_color,2021.2.3,Win32,58.27166249,,,,,,,,9,Fast,short,f,1,1.8114,8,0,32,1,1,,,,,
,0.76,,,,,,,,,k,purple,5a1e5764074b1900012532c2,2021-09-27_10h11.44.684,forced_choiceRT_color,2021.2.3,Win32,58.27166249,,,,,,,,9,Ontime,short,k,1,1.9176,8,1,33,3,1,,,,,
,0.67,,,,,,,,,j,red,5a1e5764074b1900012532c2,2021-09-27_10h11.44.684,forced_choiceRT_color,2021.2.3,Win32,58.27166249,,,,,,,,9,Fast,short,j,1,1.8401,8,2,34,2,1,,,,,
,1.42,,,,,,,,,f,blue,5a1e5764074b1900012532c2,2021-09-27_10h11.44.684,forced_choiceRT_color,2021.2.3,Win32,58.27166249,,,,,,,,9,Slow,short,f,1,2.2113,8,3,35,1,1,,,,,
,0.85,,,,,,,,,f,blue,5a1e5764074b1900012532c2,2021-09-27_10h11.44.684,forced_choiceRT_color,2021.2.3,Win32,58.27166249,,,,,,,,9,Ontime,short,f,1,2.0899,9,0,36,1,1,,,,,
,1.35,,,,,,,,,f,blue,5a1e5764074b1900012532c2,2021-09-27_10h11.44.684,forced_choiceRT_color,2021.2.3,Win32,58.27166249,,,,,,,,9,Ontime,short,f,1,1.9177,9,1,37,1,1,,,,,
,1.53,,,,,,,,,f,blue,5a1e5764074b1900012532c2,2021-09-27_10h11.44.684,forced_choiceRT_color,2021.2.3,Win32,58.27166249,,,,,,,,9,Fast,short,f,1,1.8114,9,2,38,1,1,,,,,
,0.56,,,,,,,,,d,orange,5a1e5764074b1900012532c2,2021-09-27_10h11.44.684,forced_choiceRT_color,2021.2.3,Win32,58.27166249,,,,,,,,9,Fast,short,d,1,1.7246,9,3,39,0,1,,,,,
,,,,,,,,,,,,5a1e5764074b1900012532c2,2021-09-27_10h11.44.684,forced_choiceRT_color,2021.2.3,Win32,58.27166249,,,,,,,,,,,,,,,,,,,8,0,8,0,1
,1.45,,,,,,,,,f,blue,5a1e5764074b1900012532c2,2021-09-27_10h11.44.684,forced_choiceRT_color,2021.2.3,Win32,58.27166249,,,,,,,,10,Ontime,short,f,1,2.0919,0,0,0,1,1,,,,,
,1.13,,,,,,,,,j,red,5a1e5764074b1900012532c2,2021-09-27_10h11.44.684,forced_choiceRT_color,2021.2.3,Win32,58.27166249,,,,,,,,10,Fast,short,j,1,0.0012,0,1,1,2,1,,,,,
,1.06,,,,,,,,,k,purple,5a1e5764074b1900012532c2,2021-09-27_10h11.44.684,forced_choiceRT_color,2021.2.3,Win32,58.27166249,,,,,,,,10,Fast,short,k,1,1.8391,0,2,2,3,1,,,,,
,1.41,,,,,,,,,k,purple,5a1e5764074b1900012532c2,2021-09-27_10h11.44.684,forced_choiceRT_color,2021.2.3,Win32,58.27166249,,,,,,,,10,Fast,short,k,1,1.8735,0,3,3,3,1,,,,,
,1.44,,,,,,,,,f,blue,5a1e5764074b1900012532c2,2021-09-27_10h11.44.684,forced_choiceRT_color,2021.2.3,Win32,58.27166249,,,,,,,,10,Slow,short,k,0,2.2007,1,0,4,1,1,,,,,
,0.13,,,,,,,,,f,blue,5a1e5764074b1900012532c2,2021-09-27_10h11.44.684,forced_choiceRT_color,2021.2.3,Win32,58.27166249,,,,,,,,10,Fast,short,f,1,0.777,1,1,5,1,1,,,,,
,0.35,,,,,,,,,f,blue,5a1e5764074b1900012532c2,2021-09-27_10h11.44.684,forced_choiceRT_color,2021.2.3,Win32,58.27166249,,,,,,,,10,Ontime,short,f,1,1.917,1,2,6,1,1,,,,,
,1.07,,,,,,,,,k,purple,5a1e5764074b1900012532c2,2021-09-27_10h11.44.684,forced_choiceRT_color,2021.2.3,Win32,58.27166249,,,,,,,,10,Ontime,short,k,1,1.9017,1,3,7,3,1,,,,,
,0.23,,,,,,,,,k,purple,5a1e5764074b1900012532c2,2021-09-27_10h11.44.684,forced_choiceRT_color,2021.2.3,Win32,58.27166249,,,,,,,,10,Ontime,short,k,1,1.9185,2,0,8,3,1,,,,,
,0.56,,,,,,,,,f,blue,5a1e5764074b1900012532c2,2021-09-27_10h11.44.684,forced_choiceRT_color,2021.2.3,Win32,58.27166249,,,,,,,,10,Ontime,short,f,1,1.9342,2,1,9,1,1,,,,,
,1.69,,,,,,,,,d,orange,5a1e5764074b1900012532c2,2021-09-27_10h11.44.684,forced_choiceRT_color,2021.2.3,Win32,58.27166249,,,,,,,,10,Ontime,short,f,0,2.0113,2,2,10,0,1,,,,,
,0.32,,,,,,,,,k,purple,5a1e5764074b1900012532c2,2021-09-27_10h11.44.684,forced_choiceRT_color,2021.2.3,Win32,58.27166249,,,,,,,,10,Fast,short,d,0,0.2109,2,3,11,3,1,,,,,
,1.08,,,,,,,,,j,red,5a1e5764074b1900012532c2,2021-09-27_10h11.44.684,forced_choiceRT_color,2021.2.3,Win32,58.27166249,,,,,,,,10,Slow,short,j,1,2.1198,3,0,12,2,1,,,,,
,1.07,,,,,,,,,j,red,5a1e5764074b1900012532c2,2021-09-27_10h11.44.684,forced_choiceRT_color,2021.2.3,Win32,58.27166249,,,,,,,,10,Fast,short,j,1,1.8508,3,1,13,2,1,,,,,
,1.42,,,,,,,,,k,purple,5a1e5764074b1900012532c2,2021-09-27_10h11.44.684,forced_choiceRT_color,2021.2.3,Win32,58.27166249,,,,,,,,10,Ontime,short,k,1,2.0441,3,2,14,3,1,,,,,
,1.72,,,,,,,,,k,purple,5a1e5764074b1900012532c2,2021-09-27_10h11.44.684,forced_choiceRT_color,2021.2.3,Win32,58.27166249,,,,,,,,10,Slow,short,k,1,2.27,3,3,15,3,1,,,,,
,1.49,,,,,,,,,d,orange,5a1e5764074b1900012532c2,2021-09-27_10h11.44.684,forced_choiceRT_color,2021.2.3,Win32,58.27166249,,,,,,,,10,Slow,short,d,1,2.2245,4,0,16,0,1,,,,,
,0.86,,,,,,,,,f,blue,5a1e5764074b1900012532c2,2021-09-27_10h11.44.684,forced_choiceRT_color,2021.2.3,Win32,58.27166249,,,,,,,,10,Fast,short,f,1,1.7945,4,1,17,1,1,,,,,
,1.81,,,,,,,,,j,red,5a1e5764074b1900012532c2,2021-09-27_10h11.44.684,forced_choiceRT_color,2021.2.3,Win32,58.27166249,,,,,,,,10,Slow,short,j,1,3.1167,4,2,18,2,1,,,,,
,1.35,,,,,,,,,f,blue,5a1e5764074b1900012532c2,2021-09-27_10h11.44.684,forced_choiceRT_color,2021.2.3,Win32,58.27166249,,,,,,,,10,Ontime,short,f,1,2.0552,4,3,19,1,1,,,,,
,1.47,,,,,,,,,j,red,5a1e5764074b1900012532c2,2021-09-27_10h11.44.684,forced_choiceRT_color,2021.2.3,Win32,58.27166249,,,,,,,,10,Ontime,short,j,1,2.0526,5,0,20,2,1,,,,,
,1.84,,,,,,,,,f,blue,5a1e5764074b1900012532c2,2021-09-27_10h11.44.684,forced_choiceRT_color,2021.2.3,Win32,58.27166249,,,,,,,,10,Slow,short,f,1,2.3,5,1,21,1,1,,,,,
,0.98,,,,,,,,,d,orange,5a1e5764074b1900012532c2,2021-09-27_10h11.44.684,forced_choiceRT_color,2021.2.3,Win32,58.27166249,,,,,,,,10,Fast,short,d,1,1.7884,5,2,22,0,1,,,,,
,1.2,,,,,,,,,k,purple,5a1e5764074b1900012532c2,2021-09-27_10h11.44.684,forced_choiceRT_color,2021.2.3,Win32,58.27166249,,,,,,,,10,Fast,short,k,1,1.8379,5,3,23,3,1,,,,,
,0.74,,,,,,,,,d,orange,5a1e5764074b1900012532c2,2021-09-27_10h11.44.684,forced_choiceRT_color,2021.2.3,Win32,58.27166249,,,,,,,,10,Fast,short,d,1,1.417,6,0,24,0,1,,,,,
,0.28,,,,,,,,,j,red,5a1e5764074b1900012532c2,2021-09-27_10h11.44.684,forced_choiceRT_color,2021.2.3,Win32,58.27166249,,,,,,,,10,Fast,short,j,1,1.418,6,1,25,2,1,,,,,
,1.58,,,,,,,,,j,red,5a1e5764074b1900012532c2,2021-09-27_10h11.44.684,forced_choiceRT_color,2021.2.3,Win32,58.27166249,,,,,,,,10,Ontime,short,j,1,2.0506,6,2,26,2,1,,,,,
,0.53,,,,,,,,,d,orange,5a1e5764074b1900012532c2,2021-09-27_10h11.44.684,forced_choiceRT_color,2021.2.3,Win32,58.27166249,,,,,,,,10,Fast,short,d,1,1.784,6,3,27,0,1,,,,,
,0.35,,,,,,,,,f,blue,5a1e5764074b1900012532c2,2021-09-27_10h11.44.684,forced_choiceRT_color,2021.2.3,Win32,58.27166249,,,,,,,,10,Fast,short,f,1,1.8845,7,0,28,1,1,,,,,
,0.31,,,,,,,,,d,orange,5a1e5764074b1900012532c2,2021-09-27_10h11.44.684,forced_choiceRT_color,2021.2.3,Win32,58.27166249,,,,,,,,10,Ontime,short,d,1,2.0046,7,1,29,0,1,,,,,
,0.9,,,,,,,,,k,purple,5a1e5764074b1900012532c2,2021-09-27_10h11.44.684,forced_choiceRT_color,2021.2.3,Win32,58.27166249,,,,,,,,10,Ontime,short,k,1,1.9923,7,2,30,3,1,,,,,
,1.77,,,,,,,,,j,red,5a1e5764074b1900012532c2,2021-09-27_10h11.44.684,forced_choiceRT_color,2021.2.3,Win32,58.27166249,,,,,,,,10,Slow,short,f,0,2.1859,7,3,31,2,1,,,,,
,1.26,,,,,,,,,j,red,5a1e5764074b1900012532c2,2021-09-27_10h11.44.684,forced_choiceRT_color,2021.2.3,Win32,58.27166249,,,,,,,,10,Ontime,short,j,1,2.0066,8,0,32,2,1,,,,,
,1.65,,,,,,,,,f,blue,5a1e5764074b1900012532c2,2021-09-27_10h11.44.684,forced_choiceRT_color,2021.2.3,Win32,58.27166249,,,,,,,,10,Slow,short,f,1,2.2092,8,1,33,1,1,,,,,
,0.81,,,,,,,,,k,purple,5a1e5764074b1900012532c2,2021-09-27_10h11.44.684,forced_choiceRT_color,2021.2.3,Win32,58.27166249,,,,,,,,10,Fast,short,k,1,1.7836,8,2,34,3,1,,,,,
,0.59,,,,,,,,,d,orange,5a1e5764074b1900012532c2,2021-09-27_10h11.44.684,forced_choiceRT_color,2021.2.3,Win32,58.27166249,,,,,,,,10,Fast,short,d,1,1.5451,8,3,35,0,1,,,,,
,1.92,,,,,,,,,j,red,5a1e5764074b1900012532c2,2021-09-27_10h11.44.684,forced_choiceRT_color,2021.2.3,Win32,58.27166249,,,,,,,,10,Slow,short,d,0,2.1666,9,0,36,2,1,,,,,
,1.52,,,,,,,,,d,orange,5a1e5764074b1900012532c2,2021-09-27_10h11.44.684,forced_choiceRT_color,2021.2.3,Win32,58.27166249,,,,,,,,10,Slow,short,d,1,2.184,9,1,37,0,1,,,,,
,0.6,,,,,,,,,d,orange,5a1e5764074b1900012532c2,2021-09-27_10h11.44.684,forced_choiceRT_color,2021.2.3,Win32,58.27166249,,,,,,,,10,Fast,short,d,1,1.8763,9,2,38,0,1,,,,,
,0.37,,,,,,,,,d,orange,5a1e5764074b1900012532c2,2021-09-27_10h11.44.684,forced_choiceRT_color,2021.2.3,Win32,58.27166249,,,,,,,,10,Ontime,short,d,1,2.0744,9,3,39,0,1,,,,,
,,,,,,,,,,,,5a1e5764074b1900012532c2,2021-09-27_10h11.44.684,forced_choiceRT_color,2021.2.3,Win32,58.27166249,,,,,,,,,,,,,,,,,,,9,0,9,0,1
