IP_Addresss,target_onset,trial_resp_sp.keys,trial_resp_sp.corr,trial_resp_sp.rt,trials_train_loop.thisRepN,trials_train_loop.thisTrialN,trials_train_loop.thisN,trials_train_loop.thisIndex,trials_train_loop.ran,correct_key,color,participant,date,expName,psychopyVersion,OS,frameRate,trial_resp_timing.keys,trial_resp_timing.rt,trials_train_timing.thisRepN,trials_train_timing.thisTrialN,trials_train_timing.thisN,trials_train_timing.thisIndex,trials_train_timing.ran,block_id,ontime,feedback_cond,forcedRT_resp.keys,forcedRT_resp.corr,forcedRT_resp.rt,trials.thisRepN,trials.thisTrialN,trials.thisN,trials.thisIndex,trials.ran,blocks.thisRepN,blocks.thisTrialN,blocks.thisN,blocks.thisIndex,blocks.ran
104.139.20.92,0,j,1,1.685,0,0,0,2,1,j,red,5accdd6587e271000171be3e,2021-09-28_13h04.27.638,forced_choiceRT_color,2021.2.3,Win32,30.04175804,,,,,,,,,,,,,,,,,,,,,,,
,0,d,1,1.0196,0,1,1,0,1,d,orange,5accdd6587e271000171be3e,2021-09-28_13h04.27.638,forced_choiceRT_color,2021.2.3,Win32,30.04175804,,,,,,,,,,,,,,,,,,,,,,,
,0,k,1,0.6535,0,2,2,3,1,k,purple,5accdd6587e271000171be3e,2021-09-28_13h04.27.638,forced_choiceRT_color,2021.2.3,Win32,30.04175804,,,,,,,,,,,,,,,,,,,,,,,
,0,k,1,0.6559,0,3,3,3,1,k,purple,5accdd6587e271000171be3e,2021-09-28_13h04.27.638,forced_choiceRT_color,2021.2.3,Win32,30.04175804,,,,,,,,,,,,,,,,,,,,,,,
,0,f,1,0.7189,1,0,4,1,1,f,blue,5accdd6587e271000171be3e,2021-09-28_13h04.27.638,forced_choiceRT_color,2021.2.3,Win32,30.04175804,,,,,,,,,,,,,,,,,,,,,,,
,0,k,1,0.6341,1,1,5,3,1,k,purple,5accdd6587e271000171be3e,2021-09-28_13h04.27.638,forced_choiceRT_color,2021.2.3,Win32,30.04175804,,,,,,,,,,,,,,,,,,,,,,,
,0,f,1,0.7028,1,2,6,1,1,f,blue,5accdd6587e271000171be3e,2021-09-28_13h04.27.638,forced_choiceRT_color,2021.2.3,Win32,30.04175804,,,,,,,,,,,,,,,,,,,,,,,
,0,k,1,0.6563,1,3,7,3,1,k,purple,5accdd6587e271000171be3e,2021-09-28_13h04.27.638,forced_choiceRT_color,2021.2.3,Win32,30.04175804,,,,,,,,,,,,,,,,,,,,,,,
,0,d,1,0.5692,2,0,8,0,1,d,orange,5accdd6587e271000171be3e,2021-09-28_13h04.27.638,forced_choiceRT_color,2021.2.3,Win32,30.04175804,,,,,,,,,,,,,,,,,,,,,,,
,0,k,1,0.6005,2,1,9,3,1,k,purple,5accdd6587e271000171be3e,2021-09-28_13h04.27.638,forced_choiceRT_color,2021.2.3,Win32,30.04175804,,,,,,,,,,,,,,,,,,,,,,,
,0,k,1,0.5104,2,2,10,3,1,k,purple,5accdd6587e271000171be3e,2021-09-28_13h04.27.638,forced_choiceRT_color,2021.2.3,Win32,30.04175804,,,,,,,,,,,,,,,,,,,,,,,
,0,j,1,0.512,2,3,11,2,1,j,red,5accdd6587e271000171be3e,2021-09-28_13h04.27.638,forced_choiceRT_color,2021.2.3,Win32,30.04175804,,,,,,,,,,,,,,,,,,,,,,,
,0,j,1,0.5588,3,0,12,2,1,j,red,5accdd6587e271000171be3e,2021-09-28_13h04.27.638,forced_choiceRT_color,2021.2.3,Win32,30.04175804,,,,,,,,,,,,,,,,,,,,,,,
,0,f,1,0.531,3,1,13,1,1,f,blue,5accdd6587e271000171be3e,2021-09-28_13h04.27.638,forced_choiceRT_color,2021.2.3,Win32,30.04175804,,,,,,,,,,,,,,,,,,,,,,,
,0,f,1,0.6674,3,2,14,1,1,f,blue,5accdd6587e271000171be3e,2021-09-28_13h04.27.638,forced_choiceRT_color,2021.2.3,Win32,30.04175804,,,,,,,,,,,,,,,,,,,,,,,
,0,d,1,0.51,3,3,15,0,1,d,orange,5accdd6587e271000171be3e,2021-09-28_13h04.27.638,forced_choiceRT_color,2021.2.3,Win32,30.04175804,,,,,,,,,,,,,,,,,,,,,,,
,0,d,1,0.6046,4,0,16,0,1,d,orange,5accdd6587e271000171be3e,2021-09-28_13h04.27.638,forced_choiceRT_color,2021.2.3,Win32,30.04175804,,,,,,,,,,,,,,,,,,,,,,,
,0,k,1,0.5478,4,1,17,3,1,k,purple,5accdd6587e271000171be3e,2021-09-28_13h04.27.638,forced_choiceRT_color,2021.2.3,Win32,30.04175804,,,,,,,,,,,,,,,,,,,,,,,
,0,k,1,0.538,4,2,18,3,1,k,purple,5accdd6587e271000171be3e,2021-09-28_13h04.27.638,forced_choiceRT_color,2021.2.3,Win32,30.04175804,,,,,,,,,,,,,,,,,,,,,,,
,0,d,1,0.5343,4,3,19,0,1,d,orange,5accdd6587e271000171be3e,2021-09-28_13h04.27.638,forced_choiceRT_color,2021.2.3,Win32,30.04175804,,,,,,,,,,,,,,,,,,,,,,,
,0,j,1,0.5557,5,0,20,2,1,j,red,5accdd6587e271000171be3e,2021-09-28_13h04.27.638,forced_choiceRT_color,2021.2.3,Win32,30.04175804,,,,,,,,,,,,,,,,,,,,,,,
,0,j,1,0.5065,5,1,21,2,1,j,red,5accdd6587e271000171be3e,2021-09-28_13h04.27.638,forced_choiceRT_color,2021.2.3,Win32,30.04175804,,,,,,,,,,,,,,,,,,,,,,,
,0,j,1,0.5141,5,2,22,2,1,j,red,5accdd6587e271000171be3e,2021-09-28_13h04.27.638,forced_choiceRT_color,2021.2.3,Win32,30.04175804,,,,,,,,,,,,,,,,,,,,,,,
,0,k,1,0.5444,5,3,23,3,1,k,purple,5accdd6587e271000171be3e,2021-09-28_13h04.27.638,forced_choiceRT_color,2021.2.3,Win32,30.04175804,,,,,,,,,,,,,,,,,,,,,,,
,0,f,1,0.6366,6,0,24,1,1,f,blue,5accdd6587e271000171be3e,2021-09-28_13h04.27.638,forced_choiceRT_color,2021.2.3,Win32,30.04175804,,,,,,,,,,,,,,,,,,,,,,,
,0,f,1,0.547,6,1,25,1,1,f,blue,5accdd6587e271000171be3e,2021-09-28_13h04.27.638,forced_choiceRT_color,2021.2.3,Win32,30.04175804,,,,,,,,,,,,,,,,,,,,,,,
,0,k,0,0.5462,6,2,26,2,1,j,red,5accdd6587e271000171be3e,2021-09-28_13h04.27.638,forced_choiceRT_color,2021.2.3,Win32,30.04175804,,,,,,,,,,,,,,,,,,,,,,,
,0,k,1,0.6755,6,3,27,3,1,k,purple,5accdd6587e271000171be3e,2021-09-28_13h04.27.638,forced_choiceRT_color,2021.2.3,Win32,30.04175804,,,,,,,,,,,,,,,,,,,,,,,
,0,f,1,0.9529,7,0,28,1,1,f,blue,5accdd6587e271000171be3e,2021-09-28_13h04.27.638,forced_choiceRT_color,2021.2.3,Win32,30.04175804,,,,,,,,,,,,,,,,,,,,,,,
,0,d,1,0.6346,7,1,29,0,1,d,orange,5accdd6587e271000171be3e,2021-09-28_13h04.27.638,forced_choiceRT_color,2021.2.3,Win32,30.04175804,,,,,,,,,,,,,,,,,,,,,,,
,0,j,1,0.6511,7,2,30,2,1,j,red,5accdd6587e271000171be3e,2021-09-28_13h04.27.638,forced_choiceRT_color,2021.2.3,Win32,30.04175804,,,,,,,,,,,,,,,,,,,,,,,
,0,f,1,0.6322,7,3,31,1,1,f,blue,5accdd6587e271000171be3e,2021-09-28_13h04.27.638,forced_choiceRT_color,2021.2.3,Win32,30.04175804,,,,,,,,,,,,,,,,,,,,,,,
,0,j,1,0.5115,8,0,32,2,1,j,red,5accdd6587e271000171be3e,2021-09-28_13h04.27.638,forced_choiceRT_color,2021.2.3,Win32,30.04175804,,,,,,,,,,,,,,,,,,,,,,,
,0,f,1,0.7412,8,1,33,1,1,f,blue,5accdd6587e271000171be3e,2021-09-28_13h04.27.638,forced_choiceRT_color,2021.2.3,Win32,30.04175804,,,,,,,,,,,,,,,,,,,,,,,
,0,d,1,0.5801,8,2,34,0,1,d,orange,5accdd6587e271000171be3e,2021-09-28_13h04.27.638,forced_choiceRT_color,2021.2.3,Win32,30.04175804,,,,,,,,,,,,,,,,,,,,,,,
,0,f,1,0.5099,8,3,35,1,1,f,blue,5accdd6587e271000171be3e,2021-09-28_13h04.27.638,forced_choiceRT_color,2021.2.3,Win32,30.04175804,,,,,,,,,,,,,,,,,,,,,,,
,0,f,1,0.5509,9,0,36,1,1,f,blue,5accdd6587e271000171be3e,2021-09-28_13h04.27.638,forced_choiceRT_color,2021.2.3,Win32,30.04175804,,,,,,,,,,,,,,,,,,,,,,,
,0,f,1,0.5649,9,1,37,1,1,f,blue,5accdd6587e271000171be3e,2021-09-28_13h04.27.638,forced_choiceRT_color,2021.2.3,Win32,30.04175804,,,,,,,,,,,,,,,,,,,,,,,
,0,j,1,0.6552,9,2,38,2,1,j,red,5accdd6587e271000171be3e,2021-09-28_13h04.27.638,forced_choiceRT_color,2021.2.3,Win32,30.04175804,,,,,,,,,,,,,,,,,,,,,,,
,0,j,1,0.5079,9,3,39,2,1,j,red,5accdd6587e271000171be3e,2021-09-28_13h04.27.638,forced_choiceRT_color,2021.2.3,Win32,30.04175804,,,,,,,,,,,,,,,,,,,,,,,
,0,d,1,0.566,10,0,40,0,1,d,orange,5accdd6587e271000171be3e,2021-09-28_13h04.27.638,forced_choiceRT_color,2021.2.3,Win32,30.04175804,,,,,,,,,,,,,,,,,,,,,,,
,0,k,1,0.561,10,1,41,3,1,k,purple,5accdd6587e271000171be3e,2021-09-28_13h04.27.638,forced_choiceRT_color,2021.2.3,Win32,30.04175804,,,,,,,,,,,,,,,,,,,,,,,
,0,d,1,0.6035,10,2,42,0,1,d,orange,5accdd6587e271000171be3e,2021-09-28_13h04.27.638,forced_choiceRT_color,2021.2.3,Win32,30.04175804,,,,,,,,,,,,,,,,,,,,,,,
,0,k,1,0.5466,10,3,43,3,1,k,purple,5accdd6587e271000171be3e,2021-09-28_13h04.27.638,forced_choiceRT_color,2021.2.3,Win32,30.04175804,,,,,,,,,,,,,,,,,,,,,,,
,0,j,1,0.5065,11,0,44,2,1,j,red,5accdd6587e271000171be3e,2021-09-28_13h04.27.638,forced_choiceRT_color,2021.2.3,Win32,30.04175804,,,,,,,,,,,,,,,,,,,,,,,
,0,j,1,0.4919,11,1,45,2,1,j,red,5accdd6587e271000171be3e,2021-09-28_13h04.27.638,forced_choiceRT_color,2021.2.3,Win32,30.04175804,,,,,,,,,,,,,,,,,,,,,,,
,0,d,1,0.5868,11,2,46,0,1,d,orange,5accdd6587e271000171be3e,2021-09-28_13h04.27.638,forced_choiceRT_color,2021.2.3,Win32,30.04175804,,,,,,,,,,,,,,,,,,,,,,,
,0,f,1,0.5396,11,3,47,1,1,f,blue,5accdd6587e271000171be3e,2021-09-28_13h04.27.638,forced_choiceRT_color,2021.2.3,Win32,30.04175804,,,,,,,,,,,,,,,,,,,,,,,
,0,f,0,0.5635,12,0,48,0,1,d,orange,5accdd6587e271000171be3e,2021-09-28_13h04.27.638,forced_choiceRT_color,2021.2.3,Win32,30.04175804,,,,,,,,,,,,,,,,,,,,,,,
,0,j,1,0.6234,12,1,49,2,1,j,red,5accdd6587e271000171be3e,2021-09-28_13h04.27.638,forced_choiceRT_color,2021.2.3,Win32,30.04175804,,,,,,,,,,,,,,,,,,,,,,,
,0,d,1,0.6074,12,2,50,0,1,d,orange,5accdd6587e271000171be3e,2021-09-28_13h04.27.638,forced_choiceRT_color,2021.2.3,Win32,30.04175804,,,,,,,,,,,,,,,,,,,,,,,
,0,f,1,0.6561,12,3,51,1,1,f,blue,5accdd6587e271000171be3e,2021-09-28_13h04.27.638,forced_choiceRT_color,2021.2.3,Win32,30.04175804,,,,,,,,,,,,,,,,,,,,,,,
,0,k,1,0.6385,13,0,52,3,1,k,purple,5accdd6587e271000171be3e,2021-09-28_13h04.27.638,forced_choiceRT_color,2021.2.3,Win32,30.04175804,,,,,,,,,,,,,,,,,,,,,,,
,0,d,1,0.6536,13,1,53,0,1,d,orange,5accdd6587e271000171be3e,2021-09-28_13h04.27.638,forced_choiceRT_color,2021.2.3,Win32,30.04175804,,,,,,,,,,,,,,,,,,,,,,,
,0,f,1,0.5062,13,2,54,1,1,f,blue,5accdd6587e271000171be3e,2021-09-28_13h04.27.638,forced_choiceRT_color,2021.2.3,Win32,30.04175804,,,,,,,,,,,,,,,,,,,,,,,
,0,k,1,0.7474,13,3,55,3,1,k,purple,5accdd6587e271000171be3e,2021-09-28_13h04.27.638,forced_choiceRT_color,2021.2.3,Win32,30.04175804,,,,,,,,,,,,,,,,,,,,,,,
,0,d,1,0.6403,14,0,56,0,1,d,orange,5accdd6587e271000171be3e,2021-09-28_13h04.27.638,forced_choiceRT_color,2021.2.3,Win32,30.04175804,,,,,,,,,,,,,,,,,,,,,,,
,0,k,1,0.5576,14,1,57,3,1,k,purple,5accdd6587e271000171be3e,2021-09-28_13h04.27.638,forced_choiceRT_color,2021.2.3,Win32,30.04175804,,,,,,,,,,,,,,,,,,,,,,,
,0,d,1,0.534,14,2,58,0,1,d,orange,5accdd6587e271000171be3e,2021-09-28_13h04.27.638,forced_choiceRT_color,2021.2.3,Win32,30.04175804,,,,,,,,,,,,,,,,,,,,,,,
,0,j,1,0.4976,14,3,59,2,1,j,red,5accdd6587e271000171be3e,2021-09-28_13h04.27.638,forced_choiceRT_color,2021.2.3,Win32,30.04175804,,,,,,,,,,,,,,,,,,,,,,,
,,,,,,,,,,,,5accdd6587e271000171be3e,2021-09-28_13h04.27.638,forced_choiceRT_color,2021.2.3,Win32,30.04175804,j,2.2973,0,0,0,0,1,,,,,,,,,,,,,,,,
,,,,,,,,,,,,5accdd6587e271000171be3e,2021-09-28_13h04.27.638,forced_choiceRT_color,2021.2.3,Win32,30.04175804,j,1.9876,1,0,1,0,1,,,,,,,,,,,,,,,,
,,,,,,,,,,,,5accdd6587e271000171be3e,2021-09-28_13h04.27.638,forced_choiceRT_color,2021.2.3,Win32,30.04175804,k,2.0055,2,0,2,0,1,,,,,,,,,,,,,,,,
,,,,,,,,,,,,5accdd6587e271000171be3e,2021-09-28_13h04.27.638,forced_choiceRT_color,2021.2.3,Win32,30.04175804,f,1.9621,3,0,3,0,1,,,,,,,,,,,,,,,,
,,,,,,,,,,,,5accdd6587e271000171be3e,2021-09-28_13h04.27.638,forced_choiceRT_color,2021.2.3,Win32,30.04175804,d,2.0046,4,0,4,0,1,,,,,,,,,,,,,,,,
,,,,,,,,,,,,5accdd6587e271000171be3e,2021-09-28_13h04.27.638,forced_choiceRT_color,2021.2.3,Win32,30.04175804,j,2.031,5,0,5,0,1,,,,,,,,,,,,,,,,
,,,,,,,,,,,,5accdd6587e271000171be3e,2021-09-28_13h04.27.638,forced_choiceRT_color,2021.2.3,Win32,30.04175804,j,1.9383,6,0,6,0,1,,,,,,,,,,,,,,,,
,,,,,,,,,,,,5accdd6587e271000171be3e,2021-09-28_13h04.27.638,forced_choiceRT_color,2021.2.3,Win32,30.04175804,f,2.0071,7,0,7,0,1,,,,,,,,,,,,,,,,
,,,,,,,,,,,,5accdd6587e271000171be3e,2021-09-28_13h04.27.638,forced_choiceRT_color,2021.2.3,Win32,30.04175804,j,1.9703,8,0,8,0,1,,,,,,,,,,,,,,,,
,,,,,,,,,,,,5accdd6587e271000171be3e,2021-09-28_13h04.27.638,forced_choiceRT_color,2021.2.3,Win32,30.04175804,j,2.0054,9,0,9,0,1,,,,,,,,,,,,,,,,
,,,,,,,,,,,,5accdd6587e271000171be3e,2021-09-28_13h04.27.638,forced_choiceRT_color,2021.2.3,Win32,30.04175804,j,1.9375,10,0,10,0,1,,,,,,,,,,,,,,,,
,,,,,,,,,,,,5accdd6587e271000171be3e,2021-09-28_13h04.27.638,forced_choiceRT_color,2021.2.3,Win32,30.04175804,k,2.0122,11,0,11,0,1,,,,,,,,,,,,,,,,
,,,,,,,,,,,,5accdd6587e271000171be3e,2021-09-28_13h04.27.638,forced_choiceRT_color,2021.2.3,Win32,30.04175804,d,1.9896,12,0,12,0,1,,,,,,,,,,,,,,,,
,,,,,,,,,,,,5accdd6587e271000171be3e,2021-09-28_13h04.27.638,forced_choiceRT_color,2021.2.3,Win32,30.04175804,f,2.0517,13,0,13,0,1,,,,,,,,,,,,,,,,
,,,,,,,,,,,,5accdd6587e271000171be3e,2021-09-28_13h04.27.638,forced_choiceRT_color,2021.2.3,Win32,30.04175804,j,1.9176,14,0,14,0,1,,,,,,,,,,,,,,,,
,,,,,,,,,,,,5accdd6587e271000171be3e,2021-09-28_13h04.27.638,forced_choiceRT_color,2021.2.3,Win32,30.04175804,j,1.9974,15,0,15,0,1,,,,,,,,,,,,,,,,
,,,,,,,,,,,,5accdd6587e271000171be3e,2021-09-28_13h04.27.638,forced_choiceRT_color,2021.2.3,Win32,30.04175804,f,2.0016,16,0,16,0,1,,,,,,,,,,,,,,,,
,,,,,,,,,,,,5accdd6587e271000171be3e,2021-09-28_13h04.27.638,forced_choiceRT_color,2021.2.3,Win32,30.04175804,j,1.9029,17,0,17,0,1,,,,,,,,,,,,,,,,
,,,,,,,,,,,,5accdd6587e271000171be3e,2021-09-28_13h04.27.638,forced_choiceRT_color,2021.2.3,Win32,30.04175804,j,2.0316,18,0,18,0,1,,,,,,,,,,,,,,,,
,,,,,,,,,,,,5accdd6587e271000171be3e,2021-09-28_13h04.27.638,forced_choiceRT_color,2021.2.3,Win32,30.04175804,j,2.0314,19,0,19,0,1,,,,,,,,,,,,,,,,
,0.25,,,,,,,,,k,purple,5accdd6587e271000171be3e,2021-09-28_13h04.27.638,forced_choiceRT_color,2021.2.3,Win32,30.04175804,,,,,,,,1,Ontime,long,k,1,2.0038,0,0,0,3,1,,,,,
,0.15,,,,,,,,,f,blue,5accdd6587e271000171be3e,2021-09-28_13h04.27.638,forced_choiceRT_color,2021.2.3,Win32,30.04175804,,,,,,,,1,Ontime,long,f,1,2.0642,0,1,1,1,1,,,,,
,1.01,,,,,,,,,k,purple,5accdd6587e271000171be3e,2021-09-28_13h04.27.638,forced_choiceRT_color,2021.2.3,Win32,30.04175804,,,,,,,,1,Ontime,long,k,1,1.9906,0,2,2,3,1,,,,,
,1.94,,,,,,,,,k,purple,5accdd6587e271000171be3e,2021-09-28_13h04.27.638,forced_choiceRT_color,2021.2.3,Win32,30.04175804,,,,,,,,1,Slow,long,k,1,2.3943,0,3,3,3,1,,,,,
,0.79,,,,,,,,,k,purple,5accdd6587e271000171be3e,2021-09-28_13h04.27.638,forced_choiceRT_color,2021.2.3,Win32,30.04175804,,,,,,,,1,Ontime,long,k,1,1.9765,1,0,4,3,1,,,,,
,0.27,,,,,,,,,k,purple,5accdd6587e271000171be3e,2021-09-28_13h04.27.638,forced_choiceRT_color,2021.2.3,Win32,30.04175804,,,,,,,,1,Ontime,long,k,1,1.9513,1,1,5,3,1,,,,,
,1.25,,,,,,,,,j,red,5accdd6587e271000171be3e,2021-09-28_13h04.27.638,forced_choiceRT_color,2021.2.3,Win32,30.04175804,,,,,,,,1,Ontime,long,f,0,2.0933,1,2,6,2,1,,,,,
,0.41,,,,,,,,,d,orange,5accdd6587e271000171be3e,2021-09-28_13h04.27.638,forced_choiceRT_color,2021.2.3,Win32,30.04175804,,,,,,,,1,Ontime,long,d,1,1.9762,1,3,7,0,1,,,,,
,0.5,,,,,,,,,j,red,5accdd6587e271000171be3e,2021-09-28_13h04.27.638,forced_choiceRT_color,2021.2.3,Win32,30.04175804,,,,,,,,1,Ontime,long,j,1,1.9161,2,0,8,2,1,,,,,
,1.8,,,,,,,,,d,orange,5accdd6587e271000171be3e,2021-09-28_13h04.27.638,forced_choiceRT_color,2021.2.3,Win32,30.04175804,,,,,,,,1,Slow,long,j,0,2.2511,2,1,9,0,1,,,,,
,1.2,,,,,,,,,f,blue,5accdd6587e271000171be3e,2021-09-28_13h04.27.638,forced_choiceRT_color,2021.2.3,Win32,30.04175804,,,,,,,,1,Ontime,long,f,1,2.0174,2,2,10,1,1,,,,,
,0.89,,,,,,,,,k,purple,5accdd6587e271000171be3e,2021-09-28_13h04.27.638,forced_choiceRT_color,2021.2.3,Win32,30.04175804,,,,,,,,1,Ontime,long,k,1,2.0199,2,3,11,3,1,,,,,
,0.99,,,,,,,,,d,orange,5accdd6587e271000171be3e,2021-09-28_13h04.27.638,forced_choiceRT_color,2021.2.3,Win32,30.04175804,,,,,,,,1,Ontime,long,d,1,2.0219,3,0,12,0,1,,,,,
,1.25,,,,,,,,,j,red,5accdd6587e271000171be3e,2021-09-28_13h04.27.638,forced_choiceRT_color,2021.2.3,Win32,30.04175804,,,,,,,,1,Ontime,long,j,1,2.0978,3,1,13,2,1,,,,,
,0.11,,,,,,,,,f,blue,5accdd6587e271000171be3e,2021-09-28_13h04.27.638,forced_choiceRT_color,2021.2.3,Win32,30.04175804,,,,,,,,1,Ontime,long,f,1,2.018,3,2,14,1,1,,,,,
,0.25,,,,,,,,,j,red,5accdd6587e271000171be3e,2021-09-28_13h04.27.638,forced_choiceRT_color,2021.2.3,Win32,30.04175804,,,,,,,,1,Ontime,long,j,1,2.0445,3,3,15,2,1,,,,,
,0.91,,,,,,,,,k,purple,5accdd6587e271000171be3e,2021-09-28_13h04.27.638,forced_choiceRT_color,2021.2.3,Win32,30.04175804,,,,,,,,1,Ontime,long,k,1,2.0829,4,0,16,3,1,,,,,
,0.31,,,,,,,,,d,orange,5accdd6587e271000171be3e,2021-09-28_13h04.27.638,forced_choiceRT_color,2021.2.3,Win32,30.04175804,,,,,,,,1,Ontime,long,d,1,2.0183,4,1,17,0,1,,,,,
,1.74,,,,,,,,,j,red,5accdd6587e271000171be3e,2021-09-28_13h04.27.638,forced_choiceRT_color,2021.2.3,Win32,30.04175804,,,,,,,,1,Slow,long,j,1,2.1118,4,2,18,2,1,,,,,
,0.83,,,,,,,,,f,blue,5accdd6587e271000171be3e,2021-09-28_13h04.27.638,forced_choiceRT_color,2021.2.3,Win32,30.04175804,,,,,,,,1,Ontime,long,f,1,1.9947,4,3,19,1,1,,,,,
,0.6,,,,,,,,,d,orange,5accdd6587e271000171be3e,2021-09-28_13h04.27.638,forced_choiceRT_color,2021.2.3,Win32,30.04175804,,,,,,,,1,Ontime,long,d,1,1.997,5,0,20,0,1,,,,,
,1.82,,,,,,,,,j,red,5accdd6587e271000171be3e,2021-09-28_13h04.27.638,forced_choiceRT_color,2021.2.3,Win32,30.04175804,,,,,,,,1,Slow,long,j,1,2.3215,5,1,21,2,1,,,,,
,0.23,,,,,,,,,f,blue,5accdd6587e271000171be3e,2021-09-28_13h04.27.638,forced_choiceRT_color,2021.2.3,Win32,30.04175804,,,,,,,,1,Ontime,long,f,1,2.0185,5,2,22,1,1,,,,,
,0.36,,,,,,,,,d,orange,5accdd6587e271000171be3e,2021-09-28_13h04.27.638,forced_choiceRT_color,2021.2.3,Win32,30.04175804,,,,,,,,1,Ontime,long,d,1,2.0126,5,3,23,0,1,,,,,
,1.16,,,,,,,,,j,red,5accdd6587e271000171be3e,2021-09-28_13h04.27.638,forced_choiceRT_color,2021.2.3,Win32,30.04175804,,,,,,,,1,Ontime,long,j,1,2.0543,6,0,24,2,1,,,,,
,1.34,,,,,,,,,f,blue,5accdd6587e271000171be3e,2021-09-28_13h04.27.638,forced_choiceRT_color,2021.2.3,Win32,30.04175804,,,,,,,,1,Slow,long,f,1,2.1161,6,1,25,1,1,,,,,
,1.86,,,,,,,,,k,purple,5accdd6587e271000171be3e,2021-09-28_13h04.27.638,forced_choiceRT_color,2021.2.3,Win32,30.04175804,,,,,,,,1,Slow,long,j,0,2.2786,6,2,26,3,1,,,,,
,0.07,,,,,,,,,f,blue,5accdd6587e271000171be3e,2021-09-28_13h04.27.638,forced_choiceRT_color,2021.2.3,Win32,30.04175804,,,,,,,,1,Ontime,long,f,1,2.0519,6,3,27,1,1,,,,,
,1.92,,,,,,,,,d,orange,5accdd6587e271000171be3e,2021-09-28_13h04.27.638,forced_choiceRT_color,2021.2.3,Win32,30.04175804,,,,,,,,1,Slow,long,d,1,2.4352,7,0,28,0,1,,,,,
,1.95,,,,,,,,,d,orange,5accdd6587e271000171be3e,2021-09-28_13h04.27.638,forced_choiceRT_color,2021.2.3,Win32,30.04175804,,,,,,,,1,Slow,long,d,1,2.4888,7,1,29,0,1,,,,,
,1.02,,,,,,,,,d,orange,5accdd6587e271000171be3e,2021-09-28_13h04.27.638,forced_choiceRT_color,2021.2.3,Win32,30.04175804,,,,,,,,1,Ontime,long,d,1,2.0202,7,2,30,0,1,,,,,
,0.22,,,,,,,,,d,orange,5accdd6587e271000171be3e,2021-09-28_13h04.27.638,forced_choiceRT_color,2021.2.3,Win32,30.04175804,,,,,,,,1,Ontime,long,d,1,2.0814,7,3,31,0,1,,,,,
,1.07,,,,,,,,,j,red,5accdd6587e271000171be3e,2021-09-28_13h04.27.638,forced_choiceRT_color,2021.2.3,Win32,30.04175804,,,,,,,,1,Ontime,long,j,1,2.0421,8,0,32,2,1,,,,,
,0.92,,,,,,,,,j,red,5accdd6587e271000171be3e,2021-09-28_13h04.27.638,forced_choiceRT_color,2021.2.3,Win32,30.04175804,,,,,,,,1,Ontime,long,j,1,1.9053,8,1,33,2,1,,,,,
,1.3,,,,,,,,,f,blue,5accdd6587e271000171be3e,2021-09-28_13h04.27.638,forced_choiceRT_color,2021.2.3,Win32,30.04175804,,,,,,,,1,Ontime,long,f,1,2.0168,8,2,34,1,1,,,,,
,1.66,,,,,,,,,k,purple,5accdd6587e271000171be3e,2021-09-28_13h04.27.638,forced_choiceRT_color,2021.2.3,Win32,30.04175804,,,,,,,,1,Ontime,long,k,1,2.0899,8,3,35,3,1,,,,,
,0.31,,,,,,,,,j,red,5accdd6587e271000171be3e,2021-09-28_13h04.27.638,forced_choiceRT_color,2021.2.3,Win32,30.04175804,,,,,,,,1,Ontime,long,j,1,2.0558,9,0,36,2,1,,,,,
,1.16,,,,,,,,,f,blue,5accdd6587e271000171be3e,2021-09-28_13h04.27.638,forced_choiceRT_color,2021.2.3,Win32,30.04175804,,,,,,,,1,Ontime,long,f,1,2.0366,9,1,37,1,1,,,,,
,0.92,,,,,,,,,k,purple,5accdd6587e271000171be3e,2021-09-28_13h04.27.638,forced_choiceRT_color,2021.2.3,Win32,30.04175804,,,,,,,,1,Ontime,long,k,1,2.0969,9,2,38,3,1,,,,,
,0.18,,,,,,,,,f,blue,5accdd6587e271000171be3e,2021-09-28_13h04.27.638,forced_choiceRT_color,2021.2.3,Win32,30.04175804,,,,,,,,1,Ontime,long,f,1,1.9792,9,3,39,1,1,,,,,
,,,,,,,,,,,,5accdd6587e271000171be3e,2021-09-28_13h04.27.638,forced_choiceRT_color,2021.2.3,Win32,30.04175804,,,,,,,,,,,,,,,,,,,0,0,0,0,1
,1.45,,,,,,,,,d,orange,5accdd6587e271000171be3e,2021-09-28_13h04.27.638,forced_choiceRT_color,2021.2.3,Win32,30.04175804,,,,,,,,2,Slow,long,d,1,2.1453,0,0,0,0,1,,,,,
,1.42,,,,,,,,,d,orange,5accdd6587e271000171be3e,2021-09-28_13h04.27.638,forced_choiceRT_color,2021.2.3,Win32,30.04175804,,,,,,,,2,Ontime,long,d,1,1.9868,0,1,1,0,1,,,,,
,1.52,,,,,,,,,f,blue,5accdd6587e271000171be3e,2021-09-28_13h04.27.638,forced_choiceRT_color,2021.2.3,Win32,30.04175804,,,,,,,,2,Ontime,long,f,1,1.9882,0,2,2,1,1,,,,,
,0.51,,,,,,,,,f,blue,5accdd6587e271000171be3e,2021-09-28_13h04.27.638,forced_choiceRT_color,2021.2.3,Win32,30.04175804,,,,,,,,2,Ontime,long,f,1,2.0792,0,3,3,1,1,,,,,
,0.25,,,,,,,,,d,orange,5accdd6587e271000171be3e,2021-09-28_13h04.27.638,forced_choiceRT_color,2021.2.3,Win32,30.04175804,,,,,,,,2,Ontime,long,d,1,2.0016,1,0,4,0,1,,,,,
,0.52,,,,,,,,,d,orange,5accdd6587e271000171be3e,2021-09-28_13h04.27.638,forced_choiceRT_color,2021.2.3,Win32,30.04175804,,,,,,,,2,Ontime,long,d,1,1.9915,1,1,5,0,1,,,,,
,1.77,,,,,,,,,k,purple,5accdd6587e271000171be3e,2021-09-28_13h04.27.638,forced_choiceRT_color,2021.2.3,Win32,30.04175804,,,,,,,,2,Slow,long,k,1,2.2663,1,2,6,3,1,,,,,
,0.12,,,,,,,,,k,purple,5accdd6587e271000171be3e,2021-09-28_13h04.27.638,forced_choiceRT_color,2021.2.3,Win32,30.04175804,,,,,,,,2,Ontime,long,k,1,2.0833,1,3,7,3,1,,,,,
,0.09,,,,,,,,,k,purple,5accdd6587e271000171be3e,2021-09-28_13h04.27.638,forced_choiceRT_color,2021.2.3,Win32,30.04175804,,,,,,,,2,Ontime,long,k,1,2.0137,2,0,8,3,1,,,,,
,1.64,,,,,,,,,k,purple,5accdd6587e271000171be3e,2021-09-28_13h04.27.638,forced_choiceRT_color,2021.2.3,Win32,30.04175804,,,,,,,,2,Slow,long,k,1,2.1005,2,1,9,3,1,,,,,
,0.5,,,,,,,,,f,blue,5accdd6587e271000171be3e,2021-09-28_13h04.27.638,forced_choiceRT_color,2021.2.3,Win32,30.04175804,,,,,,,,2,Ontime,long,f,1,2.0293,2,2,10,1,1,,,,,
,0.08,,,,,,,,,d,orange,5accdd6587e271000171be3e,2021-09-28_13h04.27.638,forced_choiceRT_color,2021.2.3,Win32,30.04175804,,,,,,,,2,Slow,long,d,1,47.2936,2,3,11,0,1,,,,,
,0.76,,,,,,,,,k,purple,5accdd6587e271000171be3e,2021-09-28_13h04.27.638,forced_choiceRT_color,2021.2.3,Win32,30.04175804,,,,,,,,2,Slow,long,k,1,2.1108,3,0,12,3,1,,,,,
,1.37,,,,,,,,,j,red,5accdd6587e271000171be3e,2021-09-28_13h04.27.638,forced_choiceRT_color,2021.2.3,Win32,30.04175804,,,,,,,,2,Ontime,long,d,0,2.0682,3,1,13,2,1,,,,,
,1.31,,,,,,,,,d,orange,5accdd6587e271000171be3e,2021-09-28_13h04.27.638,forced_choiceRT_color,2021.2.3,Win32,30.04175804,,,,,,,,2,Slow,long,d,1,2.1114,3,2,14,0,1,,,,,
,1.25,,,,,,,,,d,orange,5accdd6587e271000171be3e,2021-09-28_13h04.27.638,forced_choiceRT_color,2021.2.3,Win32,30.04175804,,,,,,,,2,Fast,long,d,1,1.8506,3,3,15,0,1,,,,,
,1.86,,,,,,,,,j,red,5accdd6587e271000171be3e,2021-09-28_13h04.27.638,forced_choiceRT_color,2021.2.3,Win32,30.04175804,,,,,,,,2,Slow,long,d,0,2.1516,4,0,16,2,1,,,,,
,1.14,,,,,,,,,k,purple,5accdd6587e271000171be3e,2021-09-28_13h04.27.638,forced_choiceRT_color,2021.2.3,Win32,30.04175804,,,,,,,,2,Fast,long,k,1,1.7684,4,1,17,3,1,,,,,
,1.71,,,,,,,,,f,blue,5accdd6587e271000171be3e,2021-09-28_13h04.27.638,forced_choiceRT_color,2021.2.3,Win32,30.04175804,,,,,,,,2,Slow,long,j,0,2.1334,4,2,18,1,1,,,,,
,0.75,,,,,,,,,f,blue,5accdd6587e271000171be3e,2021-09-28_13h04.27.638,forced_choiceRT_color,2021.2.3,Win32,30.04175804,,,,,,,,2,Ontime,long,f,1,2.0554,4,3,19,1,1,,,,,
,1.5,,,,,,,,,d,orange,5accdd6587e271000171be3e,2021-09-28_13h04.27.638,forced_choiceRT_color,2021.2.3,Win32,30.04175804,,,,,,,,2,Ontime,long,d,1,2.0318,5,0,20,0,1,,,,,
,0.95,,,,,,,,,d,orange,5accdd6587e271000171be3e,2021-09-28_13h04.27.638,forced_choiceRT_color,2021.2.3,Win32,30.04175804,,,,,,,,2,Ontime,long,d,1,2.0577,5,1,21,0,1,,,,,
,0.09,,,,,,,,,k,purple,5accdd6587e271000171be3e,2021-09-28_13h04.27.638,forced_choiceRT_color,2021.2.3,Win32,30.04175804,,,,,,,,2,Ontime,long,k,1,2.0116,5,2,22,3,1,,,,,
,0.44,,,,,,,,,j,red,5accdd6587e271000171be3e,2021-09-28_13h04.27.638,forced_choiceRT_color,2021.2.3,Win32,30.04175804,,,,,,,,2,Ontime,long,j,1,1.9962,5,3,23,2,1,,,,,
,1.98,,,,,,,,,j,red,5accdd6587e271000171be3e,2021-09-28_13h04.27.638,forced_choiceRT_color,2021.2.3,Win32,30.04175804,,,,,,,,2,Slow,long,d,0,2.1885,6,0,24,2,1,,,,,
,1.23,,,,,,,,,j,red,5accdd6587e271000171be3e,2021-09-28_13h04.27.638,forced_choiceRT_color,2021.2.3,Win32,30.04175804,,,,,,,,2,Slow,long,j,1,2.1338,6,1,25,2,1,,,,,
,1.25,,,,,,,,,j,red,5accdd6587e271000171be3e,2021-09-28_13h04.27.638,forced_choiceRT_color,2021.2.3,Win32,30.04175804,,,,,,,,2,Fast,long,j,1,1.6956,6,2,26,2,1,,,,,
,0.41,,,,,,,,,d,orange,5accdd6587e271000171be3e,2021-09-28_13h04.27.638,forced_choiceRT_color,2021.2.3,Win32,30.04175804,,,,,,,,2,Ontime,long,d,1,1.9626,6,3,27,0,1,,,,,
,1.12,,,,,,,,,f,blue,5accdd6587e271000171be3e,2021-09-28_13h04.27.638,forced_choiceRT_color,2021.2.3,Win32,30.04175804,,,,,,,,2,Ontime,long,f,1,2.0744,7,0,28,1,1,,,,,
,0.79,,,,,,,,,j,red,5accdd6587e271000171be3e,2021-09-28_13h04.27.638,forced_choiceRT_color,2021.2.3,Win32,30.04175804,,,,,,,,2,Ontime,long,j,1,2.039,7,1,29,2,1,,,,,
,0.97,,,,,,,,,k,purple,5accdd6587e271000171be3e,2021-09-28_13h04.27.638,forced_choiceRT_color,2021.2.3,Win32,30.04175804,,,,,,,,2,Slow,long,k,1,2.1414,7,2,30,3,1,,,,,
,1.6,,,,,,,,,k,purple,5accdd6587e271000171be3e,2021-09-28_13h04.27.638,forced_choiceRT_color,2021.2.3,Win32,30.04175804,,,,,,,,2,Ontime,long,j,0,2.0607,7,3,31,3,1,,,,,
,1.29,,,,,,,,,f,blue,5accdd6587e271000171be3e,2021-09-28_13h04.27.638,forced_choiceRT_color,2021.2.3,Win32,30.04175804,,,,,,,,2,Fast,long,f,1,1.8799,8,0,32,1,1,,,,,
,1.66,,,,,,,,,j,red,5accdd6587e271000171be3e,2021-09-28_13h04.27.638,forced_choiceRT_color,2021.2.3,Win32,30.04175804,,,,,,,,2,Slow,long,j,1,2.1136,8,1,33,2,1,,,,,
,0.39,,,,,,,,,j,red,5accdd6587e271000171be3e,2021-09-28_13h04.27.638,forced_choiceRT_color,2021.2.3,Win32,30.04175804,,,,,,,,2,Ontime,long,j,1,2.0022,8,2,34,2,1,,,,,
,0.26,,,,,,,,,j,red,5accdd6587e271000171be3e,2021-09-28_13h04.27.638,forced_choiceRT_color,2021.2.3,Win32,30.04175804,,,,,,,,2,Ontime,long,j,1,1.9382,8,3,35,2,1,,,,,
,1.88,,,,,,,,,k,purple,5accdd6587e271000171be3e,2021-09-28_13h04.27.638,forced_choiceRT_color,2021.2.3,Win32,30.04175804,,,,,,,,2,Slow,long,k,1,2.209,9,0,36,3,1,,,,,
,0.28,,,,,,,,,f,blue,5accdd6587e271000171be3e,2021-09-28_13h04.27.638,forced_choiceRT_color,2021.2.3,Win32,30.04175804,,,,,,,,2,Ontime,long,f,1,1.9696,9,1,37,1,1,,,,,
,0.13,,,,,,,,,f,blue,5accdd6587e271000171be3e,2021-09-28_13h04.27.638,forced_choiceRT_color,2021.2.3,Win32,30.04175804,,,,,,,,2,Ontime,long,f,1,2.037,9,2,38,1,1,,,,,
,0.5,,,,,,,,,f,blue,5accdd6587e271000171be3e,2021-09-28_13h04.27.638,forced_choiceRT_color,2021.2.3,Win32,30.04175804,,,,,,,,2,Ontime,long,f,1,2.0915,9,3,39,1,1,,,,,
,,,,,,,,,,,,5accdd6587e271000171be3e,2021-09-28_13h04.27.638,forced_choiceRT_color,2021.2.3,Win32,30.04175804,,,,,,,,,,,,,,,,,,,1,0,1,0,1
,0.17,,,,,,,,,j,red,5accdd6587e271000171be3e,2021-09-28_13h04.27.638,forced_choiceRT_color,2021.2.3,Win32,30.04175804,,,,,,,,3,Ontime,long,j,1,2.0291,0,0,0,2,1,,,,,
,1.9,,,,,,,,,d,orange,5accdd6587e271000171be3e,2021-09-28_13h04.27.638,forced_choiceRT_color,2021.2.3,Win32,30.04175804,,,,,,,,3,Slow,long,d,1,2.3154,0,1,1,0,1,,,,,
,0.4,,,,,,,,,j,red,5accdd6587e271000171be3e,2021-09-28_13h04.27.638,forced_choiceRT_color,2021.2.3,Win32,30.04175804,,,,,,,,3,Ontime,long,j,1,1.9489,0,2,2,2,1,,,,,
,0.53,,,,,,,,,d,orange,5accdd6587e271000171be3e,2021-09-28_13h04.27.638,forced_choiceRT_color,2021.2.3,Win32,30.04175804,,,,,,,,3,Ontime,long,d,1,1.9105,0,3,3,0,1,,,,,
,0.17,,,,,,,,,d,orange,5accdd6587e271000171be3e,2021-09-28_13h04.27.638,forced_choiceRT_color,2021.2.3,Win32,30.04175804,,,,,,,,3,Ontime,long,d,1,1.9815,1,0,4,0,1,,,,,
,1.46,,,,,,,,,k,purple,5accdd6587e271000171be3e,2021-09-28_13h04.27.638,forced_choiceRT_color,2021.2.3,Win32,30.04175804,,,,,,,,3,Ontime,long,k,1,2.0198,1,1,5,3,1,,,,,
,1.16,,,,,,,,,j,red,5accdd6587e271000171be3e,2021-09-28_13h04.27.638,forced_choiceRT_color,2021.2.3,Win32,30.04175804,,,,,,,,3,Ontime,long,j,1,2.0374,1,2,6,2,1,,,,,
,1.66,,,,,,,,,j,red,5accdd6587e271000171be3e,2021-09-28_13h04.27.638,forced_choiceRT_color,2021.2.3,Win32,30.04175804,,,,,,,,3,Slow,long,j,1,2.3324,1,3,7,2,1,,,,,
,1.55,,,,,,,,,k,purple,5accdd6587e271000171be3e,2021-09-28_13h04.27.638,forced_choiceRT_color,2021.2.3,Win32,30.04175804,,,,,,,,3,Ontime,long,k,1,2.0662,2,0,8,3,1,,,,,
,0.49,,,,,,,,,k,purple,5accdd6587e271000171be3e,2021-09-28_13h04.27.638,forced_choiceRT_color,2021.2.3,Win32,30.04175804,,,,,,,,3,Ontime,long,k,1,1.9807,2,1,9,3,1,,,,,
,0.95,,,,,,,,,j,red,5accdd6587e271000171be3e,2021-09-28_13h04.27.638,forced_choiceRT_color,2021.2.3,Win32,30.04175804,,,,,,,,3,Ontime,long,j,1,1.9753,2,2,10,2,1,,,,,
,0.11,,,,,,,,,f,blue,5accdd6587e271000171be3e,2021-09-28_13h04.27.638,forced_choiceRT_color,2021.2.3,Win32,30.04175804,,,,,,,,3,Ontime,long,f,1,2,2,3,11,1,1,,,,,
,0.54,,,,,,,,,j,red,5accdd6587e271000171be3e,2021-09-28_13h04.27.638,forced_choiceRT_color,2021.2.3,Win32,30.04175804,,,,,,,,3,Ontime,long,j,1,1.964,3,0,12,2,1,,,,,
,0.15,,,,,,,,,f,blue,5accdd6587e271000171be3e,2021-09-28_13h04.27.638,forced_choiceRT_color,2021.2.3,Win32,30.04175804,,,,,,,,3,Ontime,long,f,1,1.9292,3,1,13,1,1,,,,,
,0.95,,,,,,,,,k,purple,5accdd6587e271000171be3e,2021-09-28_13h04.27.638,forced_choiceRT_color,2021.2.3,Win32,30.04175804,,,,,,,,3,Ontime,long,k,1,1.9682,3,2,14,3,1,,,,,
,1.75,,,,,,,,,f,blue,5accdd6587e271000171be3e,2021-09-28_13h04.27.638,forced_choiceRT_color,2021.2.3,Win32,30.04175804,,,,,,,,3,Slow,long,f,1,2.2854,3,3,15,1,1,,,,,
,1.33,,,,,,,,,f,blue,5accdd6587e271000171be3e,2021-09-28_13h04.27.638,forced_choiceRT_color,2021.2.3,Win32,30.04175804,,,,,,,,3,Fast,long,f,1,1.8916,4,0,16,1,1,,,,,
,1.68,,,,,,,,,d,orange,5accdd6587e271000171be3e,2021-09-28_13h04.27.638,forced_choiceRT_color,2021.2.3,Win32,30.04175804,,,,,,,,3,Ontime,long,f,0,2.0975,4,1,17,0,1,,,,,
,0.42,,,,,,,,,f,blue,5accdd6587e271000171be3e,2021-09-28_13h04.27.638,forced_choiceRT_color,2021.2.3,Win32,30.04175804,,,,,,,,3,Ontime,long,f,1,2.0088,4,2,18,1,1,,,,,
,0.46,,,,,,,,,j,red,5accdd6587e271000171be3e,2021-09-28_13h04.27.638,forced_choiceRT_color,2021.2.3,Win32,30.04175804,,,,,,,,3,Ontime,long,j,1,1.9466,4,3,19,2,1,,,,,
,1.57,,,,,,,,,k,purple,5accdd6587e271000171be3e,2021-09-28_13h04.27.638,forced_choiceRT_color,2021.2.3,Win32,30.04175804,,,,,,,,3,Ontime,long,k,1,1.9504,5,0,20,3,1,,,,,
,0.51,,,,,,,,,d,orange,5accdd6587e271000171be3e,2021-09-28_13h04.27.638,forced_choiceRT_color,2021.2.3,Win32,30.04175804,,,,,,,,3,Ontime,long,d,1,1.9614,5,1,21,0,1,,,,,
,1.93,,,,,,,,,k,purple,5accdd6587e271000171be3e,2021-09-28_13h04.27.638,forced_choiceRT_color,2021.2.3,Win32,30.04175804,,,,,,,,3,Slow,long,j,0,2.437,5,2,22,3,1,,,,,
,1.76,,,,,,,,,f,blue,5accdd6587e271000171be3e,2021-09-28_13h04.27.638,forced_choiceRT_color,2021.2.3,Win32,30.04175804,,,,,,,,3,Slow,long,f,1,2.2634,5,3,23,1,1,,,,,
,0.11,,,,,,,,,f,blue,5accdd6587e271000171be3e,2021-09-28_13h04.27.638,forced_choiceRT_color,2021.2.3,Win32,30.04175804,,,,,,,,3,Ontime,long,f,1,2.0328,6,0,24,1,1,,,,,
,1.68,,,,,,,,,f,blue,5accdd6587e271000171be3e,2021-09-28_13h04.27.638,forced_choiceRT_color,2021.2.3,Win32,30.04175804,,,,,,,,3,Slow,long,f,1,2.2166,6,1,25,1,1,,,,,
,1.98,,,,,,,,,f,blue,5accdd6587e271000171be3e,2021-09-28_13h04.27.638,forced_choiceRT_color,2021.2.3,Win32,30.04175804,,,,,,,,3,Slow,long,f,1,2.4048,6,2,26,1,1,,,,,
,1.17,,,,,,,,,j,red,5accdd6587e271000171be3e,2021-09-28_13h04.27.638,forced_choiceRT_color,2021.2.3,Win32,30.04175804,,,,,,,,3,Ontime,long,j,1,2.0115,6,3,27,2,1,,,,,
,0.34,,,,,,,,,k,purple,5accdd6587e271000171be3e,2021-09-28_13h04.27.638,forced_choiceRT_color,2021.2.3,Win32,30.04175804,,,,,,,,3,Ontime,long,k,1,1.9575,7,0,28,3,1,,,,,
,0.68,,,,,,,,,j,red,5accdd6587e271000171be3e,2021-09-28_13h04.27.638,forced_choiceRT_color,2021.2.3,Win32,30.04175804,,,,,,,,3,Fast,long,j,1,1.8896,7,1,29,2,1,,,,,
,0.78,,,,,,,,,j,red,5accdd6587e271000171be3e,2021-09-28_13h04.27.638,forced_choiceRT_color,2021.2.3,Win32,30.04175804,,,,,,,,3,Ontime,long,j,1,1.9663,7,2,30,2,1,,,,,
,0.36,,,,,,,,,d,orange,5accdd6587e271000171be3e,2021-09-28_13h04.27.638,forced_choiceRT_color,2021.2.3,Win32,30.04175804,,,,,,,,3,Fast,long,d,1,1.7918,7,3,31,0,1,,,,,
,0.46,,,,,,,,,d,orange,5accdd6587e271000171be3e,2021-09-28_13h04.27.638,forced_choiceRT_color,2021.2.3,Win32,30.04175804,,,,,,,,3,Ontime,long,d,1,1.9389,8,0,32,0,1,,,,,
,1.14,,,,,,,,,k,purple,5accdd6587e271000171be3e,2021-09-28_13h04.27.638,forced_choiceRT_color,2021.2.3,Win32,30.04175804,,,,,,,,3,Ontime,long,f,0,1.9516,8,1,33,3,1,,,,,
,1.74,,,,,,,,,k,purple,5accdd6587e271000171be3e,2021-09-28_13h04.27.638,forced_choiceRT_color,2021.2.3,Win32,30.04175804,,,,,,,,3,Slow,long,f,0,2.1856,8,2,34,3,1,,,,,
,0.8,,,,,,,,,k,purple,5accdd6587e271000171be3e,2021-09-28_13h04.27.638,forced_choiceRT_color,2021.2.3,Win32,30.04175804,,,,,,,,3,Ontime,long,k,1,2.0204,8,3,35,3,1,,,,,
,0.62,,,,,,,,,f,blue,5accdd6587e271000171be3e,2021-09-28_13h04.27.638,forced_choiceRT_color,2021.2.3,Win32,30.04175804,,,,,,,,3,Ontime,long,f,1,1.9814,9,0,36,1,1,,,,,
,1.89,,,,,,,,,d,orange,5accdd6587e271000171be3e,2021-09-28_13h04.27.638,forced_choiceRT_color,2021.2.3,Win32,30.04175804,,,,,,,,3,Slow,long,j,0,2.3092,9,1,37,0,1,,,,,
,1.94,,,,,,,,,d,orange,5accdd6587e271000171be3e,2021-09-28_13h04.27.638,forced_choiceRT_color,2021.2.3,Win32,30.04175804,,,,,,,,3,Slow,long,d,1,2.3539,9,2,38,0,1,,,,,
,1.61,,,,,,,,,d,orange,5accdd6587e271000171be3e,2021-09-28_13h04.27.638,forced_choiceRT_color,2021.2.3,Win32,30.04175804,,,,,,,,3,Ontime,long,d,1,2.0504,9,3,39,0,1,,,,,
,,,,,,,,,,,,5accdd6587e271000171be3e,2021-09-28_13h04.27.638,forced_choiceRT_color,2021.2.3,Win32,30.04175804,,,,,,,,,,,,,,,,,,,2,0,2,0,1
,1.91,,,,,,,,,f,blue,5accdd6587e271000171be3e,2021-09-28_13h04.27.638,forced_choiceRT_color,2021.2.3,Win32,30.04175804,,,,,,,,4,Slow,long,j,0,2.3083,0,0,0,1,1,,,,,
,1.96,,,,,,,,,j,red,5accdd6587e271000171be3e,2021-09-28_13h04.27.638,forced_choiceRT_color,2021.2.3,Win32,30.04175804,,,,,,,,4,Slow,long,d,0,2.315,0,1,1,2,1,,,,,
,1.7,,,,,,,,,k,purple,5accdd6587e271000171be3e,2021-09-28_13h04.27.638,forced_choiceRT_color,2021.2.3,Win32,30.04175804,,,,,,,,4,Slow,long,k,1,2.1831,0,2,2,3,1,,,,,
,0.92,,,,,,,,,j,red,5accdd6587e271000171be3e,2021-09-28_13h04.27.638,forced_choiceRT_color,2021.2.3,Win32,30.04175804,,,,,,,,4,Fast,long,j,1,1.7579,0,3,3,2,1,,,,,
,0.83,,,,,,,,,d,orange,5accdd6587e271000171be3e,2021-09-28_13h04.27.638,forced_choiceRT_color,2021.2.3,Win32,30.04175804,,,,,,,,4,Ontime,long,d,1,1.9821,1,0,4,0,1,,,,,
,0.74,,,,,,,,,k,purple,5accdd6587e271000171be3e,2021-09-28_13h04.27.638,forced_choiceRT_color,2021.2.3,Win32,30.04175804,,,,,,,,4,Ontime,long,k,1,2.0476,1,1,5,3,1,,,,,
,0.63,,,,,,,,,f,blue,5accdd6587e271000171be3e,2021-09-28_13h04.27.638,forced_choiceRT_color,2021.2.3,Win32,30.04175804,,,,,,,,4,Ontime,long,f,1,2.061,1,2,6,1,1,,,,,
,1.17,,,,,,,,,k,purple,5accdd6587e271000171be3e,2021-09-28_13h04.27.638,forced_choiceRT_color,2021.2.3,Win32,30.04175804,,,,,,,,4,Ontime,long,k,1,2.0255,1,3,7,3,1,,,,,
,1.06,,,,,,,,,j,red,5accdd6587e271000171be3e,2021-09-28_13h04.27.638,forced_choiceRT_color,2021.2.3,Win32,30.04175804,,,,,,,,4,Fast,long,j,1,1.5952,2,0,8,2,1,,,,,
,1.41,,,,,,,,,d,orange,5accdd6587e271000171be3e,2021-09-28_13h04.27.638,forced_choiceRT_color,2021.2.3,Win32,30.04175804,,,,,,,,4,Fast,long,d,1,1.8899,2,1,9,0,1,,,,,
,1.96,,,,,,,,,j,red,5accdd6587e271000171be3e,2021-09-28_13h04.27.638,forced_choiceRT_color,2021.2.3,Win32,30.04175804,,,,,,,,4,Slow,long,k,0,2.3667,2,2,10,2,1,,,,,
,1.05,,,,,,,,,f,blue,5accdd6587e271000171be3e,2021-09-28_13h04.27.638,forced_choiceRT_color,2021.2.3,Win32,30.04175804,,,,,,,,4,Fast,long,f,1,1.7172,2,3,11,1,1,,,,,
,0,,,,,,,,,f,blue,5accdd6587e271000171be3e,2021-09-28_13h04.27.638,forced_choiceRT_color,2021.2.3,Win32,30.04175804,,,,,,,,4,Ontime,long,f,1,2.0308,3,0,12,1,1,,,,,
,0.8,,,,,,,,,j,red,5accdd6587e271000171be3e,2021-09-28_13h04.27.638,forced_choiceRT_color,2021.2.3,Win32,30.04175804,,,,,,,,4,Ontime,long,j,1,1.9642,3,1,13,2,1,,,,,
,0.5,,,,,,,,,d,orange,5accdd6587e271000171be3e,2021-09-28_13h04.27.638,forced_choiceRT_color,2021.2.3,Win32,30.04175804,,,,,,,,4,Ontime,long,d,1,2.0724,3,2,14,0,1,,,,,
,1.04,,,,,,,,,d,orange,5accdd6587e271000171be3e,2021-09-28_13h04.27.638,forced_choiceRT_color,2021.2.3,Win32,30.04175804,,,,,,,,4,Ontime,long,d,1,2.0097,3,3,15,0,1,,,,,
,1.55,,,,,,,,,k,purple,5accdd6587e271000171be3e,2021-09-28_13h04.27.638,forced_choiceRT_color,2021.2.3,Win32,30.04175804,,,,,,,,4,Slow,long,k,1,2.118,4,0,16,3,1,,,,,
,0.06,,,,,,,,,k,purple,5accdd6587e271000171be3e,2021-09-28_13h04.27.638,forced_choiceRT_color,2021.2.3,Win32,30.04175804,,,,,,,,4,Ontime,long,k,1,2.0466,4,1,17,3,1,,,,,
,1.12,,,,,,,,,k,purple,5accdd6587e271000171be3e,2021-09-28_13h04.27.638,forced_choiceRT_color,2021.2.3,Win32,30.04175804,,,,,,,,4,Ontime,long,k,1,1.973,4,2,18,3,1,,,,,
,1.42,,,,,,,,,j,red,5accdd6587e271000171be3e,2021-09-28_13h04.27.638,forced_choiceRT_color,2021.2.3,Win32,30.04175804,,,,,,,,4,Slow,long,j,1,2.1168,4,3,19,2,1,,,,,
,0.32,,,,,,,,,f,blue,5accdd6587e271000171be3e,2021-09-28_13h04.27.638,forced_choiceRT_color,2021.2.3,Win32,30.04175804,,,,,,,,4,Ontime,long,f,1,1.9652,5,0,20,1,1,,,,,
,1.09,,,,,,,,,f,blue,5accdd6587e271000171be3e,2021-09-28_13h04.27.638,forced_choiceRT_color,2021.2.3,Win32,30.04175804,,,,,,,,4,Ontime,long,f,1,2.0171,5,1,21,1,1,,,,,
,1.73,,,,,,,,,d,orange,5accdd6587e271000171be3e,2021-09-28_13h04.27.638,forced_choiceRT_color,2021.2.3,Win32,30.04175804,,,,,,,,4,Slow,long,d,1,2.1204,5,2,22,0,1,,,,,
,1.93,,,,,,,,,j,red,5accdd6587e271000171be3e,2021-09-28_13h04.27.638,forced_choiceRT_color,2021.2.3,Win32,30.04175804,,,,,,,,4,Slow,long,d,0,2.268,5,3,23,2,1,,,,,
,1.46,,,,,,,,,k,purple,5accdd6587e271000171be3e,2021-09-28_13h04.27.638,forced_choiceRT_color,2021.2.3,Win32,30.04175804,,,,,,,,4,Ontime,long,k,1,1.9618,6,0,24,3,1,,,,,
,0.56,,,,,,,,,d,orange,5accdd6587e271000171be3e,2021-09-28_13h04.27.638,forced_choiceRT_color,2021.2.3,Win32,30.04175804,,,,,,,,4,Ontime,long,d,1,1.9874,6,1,25,0,1,,,,,
,0.7,,,,,,,,,j,red,5accdd6587e271000171be3e,2021-09-28_13h04.27.638,forced_choiceRT_color,2021.2.3,Win32,30.04175804,,,,,,,,4,Ontime,long,j,1,1.9245,6,2,26,2,1,,,,,
,0.78,,,,,,,,,f,blue,5accdd6587e271000171be3e,2021-09-28_13h04.27.638,forced_choiceRT_color,2021.2.3,Win32,30.04175804,,,,,,,,4,Fast,long,f,1,1.793,6,3,27,1,1,,,,,
,0.03,,,,,,,,,k,purple,5accdd6587e271000171be3e,2021-09-28_13h04.27.638,forced_choiceRT_color,2021.2.3,Win32,30.04175804,,,,,,,,4,Slow,long,k,1,2.1373,7,0,28,3,1,,,,,
,1.44,,,,,,,,,f,blue,5accdd6587e271000171be3e,2021-09-28_13h04.27.638,forced_choiceRT_color,2021.2.3,Win32,30.04175804,,,,,,,,4,Ontime,long,d,0,1.9162,7,1,29,1,1,,,,,
,1.71,,,,,,,,,j,red,5accdd6587e271000171be3e,2021-09-28_13h04.27.638,forced_choiceRT_color,2021.2.3,Win32,30.04175804,,,,,,,,4,Ontime,long,d,0,2.0305,7,2,30,2,1,,,,,
,0.99,,,,,,,,,k,purple,5accdd6587e271000171be3e,2021-09-28_13h04.27.638,forced_choiceRT_color,2021.2.3,Win32,30.04175804,,,,,,,,4,Ontime,long,k,1,2.0683,7,3,31,3,1,,,,,
,0.01,,,,,,,,,d,orange,5accdd6587e271000171be3e,2021-09-28_13h04.27.638,forced_choiceRT_color,2021.2.3,Win32,30.04175804,,,,,,,,4,Ontime,long,d,1,2.0121,8,0,32,0,1,,,,,
,0.24,,,,,,,,,d,orange,5accdd6587e271000171be3e,2021-09-28_13h04.27.638,forced_choiceRT_color,2021.2.3,Win32,30.04175804,,,,,,,,4,Ontime,long,d,1,2.0813,8,1,33,0,1,,,,,
,1.72,,,,,,,,,k,purple,5accdd6587e271000171be3e,2021-09-28_13h04.27.638,forced_choiceRT_color,2021.2.3,Win32,30.04175804,,,,,,,,4,Slow,long,k,1,2.193,8,2,34,3,1,,,,,
,0.46,,,,,,,,,d,orange,5accdd6587e271000171be3e,2021-09-28_13h04.27.638,forced_choiceRT_color,2021.2.3,Win32,30.04175804,,,,,,,,4,Ontime,long,d,1,2.0044,8,3,35,0,1,,,,,
,1.25,,,,,,,,,f,blue,5accdd6587e271000171be3e,2021-09-28_13h04.27.638,forced_choiceRT_color,2021.2.3,Win32,30.04175804,,,,,,,,4,Ontime,long,f,1,2.0149,9,0,36,1,1,,,,,
,0.77,,,,,,,,,j,red,5accdd6587e271000171be3e,2021-09-28_13h04.27.638,forced_choiceRT_color,2021.2.3,Win32,30.04175804,,,,,,,,4,Slow,long,j,1,2.1822,9,1,37,2,1,,,,,
,1.76,,,,,,,,,f,blue,5accdd6587e271000171be3e,2021-09-28_13h04.27.638,forced_choiceRT_color,2021.2.3,Win32,30.04175804,,,,,,,,4,Ontime,long,k,0,2.0764,9,2,38,1,1,,,,,
,1.46,,,,,,,,,d,orange,5accdd6587e271000171be3e,2021-09-28_13h04.27.638,forced_choiceRT_color,2021.2.3,Win32,30.04175804,,,,,,,,4,Ontime,long,d,1,2.091,9,3,39,0,1,,,,,
,,,,,,,,,,,,5accdd6587e271000171be3e,2021-09-28_13h04.27.638,forced_choiceRT_color,2021.2.3,Win32,30.04175804,,,,,,,,,,,,,,,,,,,3,0,3,0,1
,0.81,,,,,,,,,f,blue,5accdd6587e271000171be3e,2021-09-28_13h04.27.638,forced_choiceRT_color,2021.2.3,Win32,30.04175804,,,,,,,,5,Ontime,long,f,1,1.9713,0,0,0,1,1,,,,,
,0.69,,,,,,,,,k,purple,5accdd6587e271000171be3e,2021-09-28_13h04.27.638,forced_choiceRT_color,2021.2.3,Win32,30.04175804,,,,,,,,5,Ontime,long,k,1,1.9893,0,1,1,3,1,,,,,
,0.02,,,,,,,,,d,orange,5accdd6587e271000171be3e,2021-09-28_13h04.27.638,forced_choiceRT_color,2021.2.3,Win32,30.04175804,,,,,,,,5,Ontime,long,d,1,2.0048,0,2,2,0,1,,,,,
,1.28,,,,,,,,,j,red,5accdd6587e271000171be3e,2021-09-28_13h04.27.638,forced_choiceRT_color,2021.2.3,Win32,30.04175804,,,,,,,,5,Ontime,long,j,1,1.9744,0,3,3,2,1,,,,,
,0.38,,,,,,,,,j,red,5accdd6587e271000171be3e,2021-09-28_13h04.27.638,forced_choiceRT_color,2021.2.3,Win32,30.04175804,,,,,,,,5,Ontime,long,j,1,1.9838,1,0,4,2,1,,,,,
,0.8,,,,,,,,,k,purple,5accdd6587e271000171be3e,2021-09-28_13h04.27.638,forced_choiceRT_color,2021.2.3,Win32,30.04175804,,,,,,,,5,Ontime,long,k,1,1.9974,1,1,5,3,1,,,,,
,1.38,,,,,,,,,j,red,5accdd6587e271000171be3e,2021-09-28_13h04.27.638,forced_choiceRT_color,2021.2.3,Win32,30.04175804,,,,,,,,5,Fast,long,j,1,1.7905,1,2,6,2,1,,,,,
,0.73,,,,,,,,,f,blue,5accdd6587e271000171be3e,2021-09-28_13h04.27.638,forced_choiceRT_color,2021.2.3,Win32,30.04175804,,,,,,,,5,Ontime,long,f,1,1.9177,1,3,7,1,1,,,,,
,0.48,,,,,,,,,d,orange,5accdd6587e271000171be3e,2021-09-28_13h04.27.638,forced_choiceRT_color,2021.2.3,Win32,30.04175804,,,,,,,,5,Ontime,long,d,1,2.0027,2,0,8,0,1,,,,,
,1.82,,,,,,,,,f,blue,5accdd6587e271000171be3e,2021-09-28_13h04.27.638,forced_choiceRT_color,2021.2.3,Win32,30.04175804,,,,,,,,5,Slow,long,j,0,2.212,2,1,9,1,1,,,,,
,1.85,,,,,,,,,k,purple,5accdd6587e271000171be3e,2021-09-28_13h04.27.638,forced_choiceRT_color,2021.2.3,Win32,30.04175804,,,,,,,,5,Slow,long,k,1,2.2282,2,2,10,3,1,,,,,
,1.13,,,,,,,,,j,red,5accdd6587e271000171be3e,2021-09-28_13h04.27.638,forced_choiceRT_color,2021.2.3,Win32,30.04175804,,,,,,,,5,Ontime,long,j,1,1.9592,2,3,11,2,1,,,,,
,0.84,,,,,,,,,f,blue,5accdd6587e271000171be3e,2021-09-28_13h04.27.638,forced_choiceRT_color,2021.2.3,Win32,30.04175804,,,,,,,,5,Fast,long,f,1,1.7912,3,0,12,1,1,,,,,
,0.05,,,,,,,,,d,orange,5accdd6587e271000171be3e,2021-09-28_13h04.27.638,forced_choiceRT_color,2021.2.3,Win32,30.04175804,,,,,,,,5,Ontime,long,d,1,1.9849,3,1,13,0,1,,,,,
,1.38,,,,,,,,,k,purple,5accdd6587e271000171be3e,2021-09-28_13h04.27.638,forced_choiceRT_color,2021.2.3,Win32,30.04175804,,,,,,,,5,Ontime,long,k,1,2.051,3,2,14,3,1,,,,,
,0.99,,,,,,,,,f,blue,5accdd6587e271000171be3e,2021-09-28_13h04.27.638,forced_choiceRT_color,2021.2.3,Win32,30.04175804,,,,,,,,5,Ontime,long,f,1,2.0269,3,3,15,1,1,,,,,
,0.28,,,,,,,,,k,purple,5accdd6587e271000171be3e,2021-09-28_13h04.27.638,forced_choiceRT_color,2021.2.3,Win32,30.04175804,,,,,,,,5,Ontime,long,k,1,1.9199,4,0,16,3,1,,,,,
,1.22,,,,,,,,,j,red,5accdd6587e271000171be3e,2021-09-28_13h04.27.638,forced_choiceRT_color,2021.2.3,Win32,30.04175804,,,,,,,,5,Ontime,long,j,1,1.9088,4,1,17,2,1,,,,,
,1.52,,,,,,,,,j,red,5accdd6587e271000171be3e,2021-09-28_13h04.27.638,forced_choiceRT_color,2021.2.3,Win32,30.04175804,,,,,,,,5,Slow,long,j,1,2.1188,4,2,18,2,1,,,,,
,1.51,,,,,,,,,j,red,5accdd6587e271000171be3e,2021-09-28_13h04.27.638,forced_choiceRT_color,2021.2.3,Win32,30.04175804,,,,,,,,5,Ontime,long,j,1,2.0366,4,3,19,2,1,,,,,
,1.49,,,,,,,,,d,orange,5accdd6587e271000171be3e,2021-09-28_13h04.27.638,forced_choiceRT_color,2021.2.3,Win32,30.04175804,,,,,,,,5,Ontime,long,d,1,2.0929,5,0,20,0,1,,,,,
,1.05,,,,,,,,,j,red,5accdd6587e271000171be3e,2021-09-28_13h04.27.638,forced_choiceRT_color,2021.2.3,Win32,30.04175804,,,,,,,,5,Ontime,long,j,1,2.0127,5,1,21,2,1,,,,,
,0.29,,,,,,,,,k,purple,5accdd6587e271000171be3e,2021-09-28_13h04.27.638,forced_choiceRT_color,2021.2.3,Win32,30.04175804,,,,,,,,5,Ontime,long,k,1,2.0214,5,2,22,3,1,,,,,
,0.95,,,,,,,,,f,blue,5accdd6587e271000171be3e,2021-09-28_13h04.27.638,forced_choiceRT_color,2021.2.3,Win32,30.04175804,,,,,,,,5,Ontime,long,f,1,1.9626,5,3,23,1,1,,,,,
,1.66,,,,,,,,,d,orange,5accdd6587e271000171be3e,2021-09-28_13h04.27.638,forced_choiceRT_color,2021.2.3,Win32,30.04175804,,,,,,,,5,Slow,long,d,1,2.259,6,0,24,0,1,,,,,
,0.99,,,,,,,,,k,purple,5accdd6587e271000171be3e,2021-09-28_13h04.27.638,forced_choiceRT_color,2021.2.3,Win32,30.04175804,,,,,,,,5,Ontime,long,k,1,2.0107,6,1,25,3,1,,,,,
,1.07,,,,,,,,,d,orange,5accdd6587e271000171be3e,2021-09-28_13h04.27.638,forced_choiceRT_color,2021.2.3,Win32,30.04175804,,,,,,,,5,Ontime,long,d,1,1.9421,6,2,26,0,1,,,,,
,1.03,,,,,,,,,f,blue,5accdd6587e271000171be3e,2021-09-28_13h04.27.638,forced_choiceRT_color,2021.2.3,Win32,30.04175804,,,,,,,,5,Ontime,long,f,1,2.0009,6,3,27,1,1,,,,,
,0.78,,,,,,,,,j,red,5accdd6587e271000171be3e,2021-09-28_13h04.27.638,forced_choiceRT_color,2021.2.3,Win32,30.04175804,,,,,,,,5,Ontime,long,j,1,1.9921,7,0,28,2,1,,,,,
,0.42,,,,,,,,,j,red,5accdd6587e271000171be3e,2021-09-28_13h04.27.638,forced_choiceRT_color,2021.2.3,Win32,30.04175804,,,,,,,,5,Ontime,long,j,1,2.0214,7,1,29,2,1,,,,,
,0.6,,,,,,,,,f,blue,5accdd6587e271000171be3e,2021-09-28_13h04.27.638,forced_choiceRT_color,2021.2.3,Win32,30.04175804,,,,,,,,5,Ontime,long,f,1,1.9284,7,2,30,1,1,,,,,
,0.8,,,,,,,,,f,blue,5accdd6587e271000171be3e,2021-09-28_13h04.27.638,forced_choiceRT_color,2021.2.3,Win32,30.04175804,,,,,,,,5,Ontime,long,f,1,1.9535,7,3,31,1,1,,,,,
,0.19,,,,,,,,,d,orange,5accdd6587e271000171be3e,2021-09-28_13h04.27.638,forced_choiceRT_color,2021.2.3,Win32,30.04175804,,,,,,,,5,Ontime,long,d,1,1.9972,8,0,32,0,1,,,,,
,1.79,,,,,,,,,d,orange,5accdd6587e271000171be3e,2021-09-28_13h04.27.638,forced_choiceRT_color,2021.2.3,Win32,30.04175804,,,,,,,,5,Slow,long,d,1,2.3556,8,1,33,0,1,,,,,
,0.49,,,,,,,,,k,purple,5accdd6587e271000171be3e,2021-09-28_13h04.27.638,forced_choiceRT_color,2021.2.3,Win32,30.04175804,,,,,,,,5,Ontime,long,k,1,1.9537,8,2,34,3,1,,,,,
,1.31,,,,,,,,,f,blue,5accdd6587e271000171be3e,2021-09-28_13h04.27.638,forced_choiceRT_color,2021.2.3,Win32,30.04175804,,,,,,,,5,Slow,long,f,1,2.1544,8,3,35,1,1,,,,,
,1.25,,,,,,,,,d,orange,5accdd6587e271000171be3e,2021-09-28_13h04.27.638,forced_choiceRT_color,2021.2.3,Win32,30.04175804,,,,,,,,5,Ontime,long,d,1,2.0107,9,0,36,0,1,,,,,
,0.87,,,,,,,,,k,purple,5accdd6587e271000171be3e,2021-09-28_13h04.27.638,forced_choiceRT_color,2021.2.3,Win32,30.04175804,,,,,,,,5,Ontime,long,k,1,1.9766,9,1,37,3,1,,,,,
,1.41,,,,,,,,,d,orange,5accdd6587e271000171be3e,2021-09-28_13h04.27.638,forced_choiceRT_color,2021.2.3,Win32,30.04175804,,,,,,,,5,Ontime,long,d,1,2.0029,9,2,38,0,1,,,,,
,1.3,,,,,,,,,k,purple,5accdd6587e271000171be3e,2021-09-28_13h04.27.638,forced_choiceRT_color,2021.2.3,Win32,30.04175804,,,,,,,,5,Ontime,long,k,1,1.9962,9,3,39,3,1,,,,,
,,,,,,,,,,,,5accdd6587e271000171be3e,2021-09-28_13h04.27.638,forced_choiceRT_color,2021.2.3,Win32,30.04175804,,,,,,,,,,,,,,,,,,,4,0,4,0,1
,0.08,,,,,,,,,d,orange,5accdd6587e271000171be3e,2021-09-28_13h04.27.638,forced_choiceRT_color,2021.2.3,Win32,30.04175804,,,,,,,,6,Ontime,long,d,1,2.0541,0,0,0,0,1,,,,,
,1.26,,,,,,,,,f,blue,5accdd6587e271000171be3e,2021-09-28_13h04.27.638,forced_choiceRT_color,2021.2.3,Win32,30.04175804,,,,,,,,6,Ontime,long,f,1,2.0202,0,1,1,1,1,,,,,
,0.71,,,,,,,,,j,red,5accdd6587e271000171be3e,2021-09-28_13h04.27.638,forced_choiceRT_color,2021.2.3,Win32,30.04175804,,,,,,,,6,Ontime,long,j,1,1.9826,0,2,2,2,1,,,,,
,0.15,,,,,,,,,k,purple,5accdd6587e271000171be3e,2021-09-28_13h04.27.638,forced_choiceRT_color,2021.2.3,Win32,30.04175804,,,,,,,,6,Fast,long,k,1,1.8743,0,3,3,3,1,,,,,
,1.72,,,,,,,,,k,purple,5accdd6587e271000171be3e,2021-09-28_13h04.27.638,forced_choiceRT_color,2021.2.3,Win32,30.04175804,,,,,,,,6,Slow,long,k,1,2.1782,1,0,4,3,1,,,,,
,1.31,,,,,,,,,j,red,5accdd6587e271000171be3e,2021-09-28_13h04.27.638,forced_choiceRT_color,2021.2.3,Win32,30.04175804,,,,,,,,6,Ontime,long,j,1,1.9307,1,1,5,2,1,,,,,
,0.18,,,,,,,,,j,red,5accdd6587e271000171be3e,2021-09-28_13h04.27.638,forced_choiceRT_color,2021.2.3,Win32,30.04175804,,,,,,,,6,Ontime,long,j,1,1.9716,1,2,6,2,1,,,,,
,1.89,,,,,,,,,d,orange,5accdd6587e271000171be3e,2021-09-28_13h04.27.638,forced_choiceRT_color,2021.2.3,Win32,30.04175804,,,,,,,,6,Slow,long,d,1,2.4264,1,3,7,0,1,,,,,
,0.24,,,,,,,,,k,purple,5accdd6587e271000171be3e,2021-09-28_13h04.27.638,forced_choiceRT_color,2021.2.3,Win32,30.04175804,,,,,,,,6,Ontime,long,k,1,1.9449,2,0,8,3,1,,,,,
,1.95,,,,,,,,,d,orange,5accdd6587e271000171be3e,2021-09-28_13h04.27.638,forced_choiceRT_color,2021.2.3,Win32,30.04175804,,,,,,,,6,Slow,long,d,1,2.4988,2,1,9,0,1,,,,,
,0.37,,,,,,,,,f,blue,5accdd6587e271000171be3e,2021-09-28_13h04.27.638,forced_choiceRT_color,2021.2.3,Win32,30.04175804,,,,,,,,6,Fast,long,f,1,1.8198,2,2,10,1,1,,,,,
,0.55,,,,,,,,,k,purple,5accdd6587e271000171be3e,2021-09-28_13h04.27.638,forced_choiceRT_color,2021.2.3,Win32,30.04175804,,,,,,,,6,Ontime,long,k,1,2.0078,2,3,11,3,1,,,,,
,1.48,,,,,,,,,f,blue,5accdd6587e271000171be3e,2021-09-28_13h04.27.638,forced_choiceRT_color,2021.2.3,Win32,30.04175804,,,,,,,,6,Slow,long,f,1,2.2847,3,0,12,1,1,,,,,
,0.83,,,,,,,,,k,purple,5accdd6587e271000171be3e,2021-09-28_13h04.27.638,forced_choiceRT_color,2021.2.3,Win32,30.04175804,,,,,,,,6,Ontime,long,k,1,2.0632,3,1,13,3,1,,,,,
,1.85,,,,,,,,,d,orange,5accdd6587e271000171be3e,2021-09-28_13h04.27.638,forced_choiceRT_color,2021.2.3,Win32,30.04175804,,,,,,,,6,Slow,long,d,1,2.3156,3,2,14,0,1,,,,,
,1.09,,,,,,,,,j,red,5accdd6587e271000171be3e,2021-09-28_13h04.27.638,forced_choiceRT_color,2021.2.3,Win32,30.04175804,,,,,,,,6,Ontime,long,j,1,2.0042,3,3,15,2,1,,,,,
,1.96,,,,,,,,,j,red,5accdd6587e271000171be3e,2021-09-28_13h04.27.638,forced_choiceRT_color,2021.2.3,Win32,30.04175804,,,,,,,,6,Slow,long,j,1,2.7154,4,0,16,2,1,,,,,
,1.16,,,,,,,,,k,purple,5accdd6587e271000171be3e,2021-09-28_13h04.27.638,forced_choiceRT_color,2021.2.3,Win32,30.04175804,,,,,,,,6,Ontime,long,k,1,2.0851,4,1,17,3,1,,,,,
,0.21,,,,,,,,,k,purple,5accdd6587e271000171be3e,2021-09-28_13h04.27.638,forced_choiceRT_color,2021.2.3,Win32,30.04175804,,,,,,,,6,Ontime,long,k,1,1.9882,4,2,18,3,1,,,,,
,1.87,,,,,,,,,d,orange,5accdd6587e271000171be3e,2021-09-28_13h04.27.638,forced_choiceRT_color,2021.2.3,Win32,30.04175804,,,,,,,,6,Slow,long,d,1,2.3113,4,3,19,0,1,,,,,
,1.47,,,,,,,,,j,red,5accdd6587e271000171be3e,2021-09-28_13h04.27.638,forced_choiceRT_color,2021.2.3,Win32,30.04175804,,,,,,,,6,Slow,long,j,1,2.1972,5,0,20,2,1,,,,,
,1.49,,,,,,,,,j,red,5accdd6587e271000171be3e,2021-09-28_13h04.27.638,forced_choiceRT_color,2021.2.3,Win32,30.04175804,,,,,,,,6,Slow,long,j,1,2.1821,5,1,21,2,1,,,,,
,0.95,,,,,,,,,d,orange,5accdd6587e271000171be3e,2021-09-28_13h04.27.638,forced_choiceRT_color,2021.2.3,Win32,30.04175804,,,,,,,,6,Ontime,long,d,1,1.9863,5,2,22,0,1,,,,,
,1.72,,,,,,,,,f,blue,5accdd6587e271000171be3e,2021-09-28_13h04.27.638,forced_choiceRT_color,2021.2.3,Win32,30.04175804,,,,,,,,6,Slow,long,k,0,2.1219,5,3,23,1,1,,,,,
,1.82,,,,,,,,,j,red,5accdd6587e271000171be3e,2021-09-28_13h04.27.638,forced_choiceRT_color,2021.2.3,Win32,30.04175804,,,,,,,,6,Slow,long,j,1,2.3735,6,0,24,2,1,,,,,
,1.05,,,,,,,,,k,purple,5accdd6587e271000171be3e,2021-09-28_13h04.27.638,forced_choiceRT_color,2021.2.3,Win32,30.04175804,,,,,,,,6,Ontime,long,k,1,1.9549,6,1,25,3,1,,,,,
,0.76,,,,,,,,,j,red,5accdd6587e271000171be3e,2021-09-28_13h04.27.638,forced_choiceRT_color,2021.2.3,Win32,30.04175804,,,,,,,,6,Ontime,long,j,1,2.0095,6,2,26,2,1,,,,,
,0.6,,,,,,,,,d,orange,5accdd6587e271000171be3e,2021-09-28_13h04.27.638,forced_choiceRT_color,2021.2.3,Win32,30.04175804,,,,,,,,6,Ontime,long,d,1,2.0544,6,3,27,0,1,,,,,
,0.24,,,,,,,,,d,orange,5accdd6587e271000171be3e,2021-09-28_13h04.27.638,forced_choiceRT_color,2021.2.3,Win32,30.04175804,,,,,,,,6,Ontime,long,d,1,1.9954,7,0,28,0,1,,,,,
,0.9,,,,,,,,,f,blue,5accdd6587e271000171be3e,2021-09-28_13h04.27.638,forced_choiceRT_color,2021.2.3,Win32,30.04175804,,,,,,,,6,Ontime,long,f,1,1.942,7,1,29,1,1,,,,,
,0.47,,,,,,,,,k,purple,5accdd6587e271000171be3e,2021-09-28_13h04.27.638,forced_choiceRT_color,2021.2.3,Win32,30.04175804,,,,,,,,6,Ontime,long,k,1,2.0502,7,2,30,3,1,,,,,
,0.91,,,,,,,,,f,blue,5accdd6587e271000171be3e,2021-09-28_13h04.27.638,forced_choiceRT_color,2021.2.3,Win32,30.04175804,,,,,,,,6,Ontime,long,f,1,1.9988,7,3,31,1,1,,,,,
,0.14,,,,,,,,,f,blue,5accdd6587e271000171be3e,2021-09-28_13h04.27.638,forced_choiceRT_color,2021.2.3,Win32,30.04175804,,,,,,,,6,Ontime,long,f,1,2.0434,8,0,32,1,1,,,,,
,1.75,,,,,,,,,f,blue,5accdd6587e271000171be3e,2021-09-28_13h04.27.638,forced_choiceRT_color,2021.2.3,Win32,30.04175804,,,,,,,,6,Slow,long,j,0,2.2701,8,1,33,1,1,,,,,
,0.01,,,,,,,,,k,purple,5accdd6587e271000171be3e,2021-09-28_13h04.27.638,forced_choiceRT_color,2021.2.3,Win32,30.04175804,,,,,,,,6,Ontime,long,k,1,1.924,8,2,34,3,1,,,,,
,1.52,,,,,,,,,f,blue,5accdd6587e271000171be3e,2021-09-28_13h04.27.638,forced_choiceRT_color,2021.2.3,Win32,30.04175804,,,,,,,,6,Slow,long,f,1,2.1105,8,3,35,1,1,,,,,
,0.1,,,,,,,,,d,orange,5accdd6587e271000171be3e,2021-09-28_13h04.27.638,forced_choiceRT_color,2021.2.3,Win32,30.04175804,,,,,,,,6,Ontime,long,d,1,2.033,9,0,36,0,1,,,,,
,1.46,,,,,,,,,f,blue,5accdd6587e271000171be3e,2021-09-28_13h04.27.638,forced_choiceRT_color,2021.2.3,Win32,30.04175804,,,,,,,,6,Ontime,long,f,1,2.0551,9,1,37,1,1,,,,,
,0.88,,,,,,,,,j,red,5accdd6587e271000171be3e,2021-09-28_13h04.27.638,forced_choiceRT_color,2021.2.3,Win32,30.04175804,,,,,,,,6,Ontime,long,j,1,1.9593,9,2,38,2,1,,,,,
,1.75,,,,,,,,,d,orange,5accdd6587e271000171be3e,2021-09-28_13h04.27.638,forced_choiceRT_color,2021.2.3,Win32,30.04175804,,,,,,,,6,Slow,long,d,1,2.1177,9,3,39,0,1,,,,,
,,,,,,,,,,,,5accdd6587e271000171be3e,2021-09-28_13h04.27.638,forced_choiceRT_color,2021.2.3,Win32,30.04175804,,,,,,,,,,,,,,,,,,,5,0,5,0,1
,0.66,,,,,,,,,f,blue,5accdd6587e271000171be3e,2021-09-28_13h04.27.638,forced_choiceRT_color,2021.2.3,Win32,30.04175804,,,,,,,,7,Ontime,long,f,1,2.001,0,0,0,1,1,,,,,
,1.46,,,,,,,,,j,red,5accdd6587e271000171be3e,2021-09-28_13h04.27.638,forced_choiceRT_color,2021.2.3,Win32,30.04175804,,,,,,,,7,Ontime,long,j,1,2.008,0,1,1,2,1,,,,,
,1.26,,,,,,,,,j,red,5accdd6587e271000171be3e,2021-09-28_13h04.27.638,forced_choiceRT_color,2021.2.3,Win32,30.04175804,,,,,,,,7,Ontime,long,j,1,2.0365,0,2,2,2,1,,,,,
,1.9,,,,,,,,,k,purple,5accdd6587e271000171be3e,2021-09-28_13h04.27.638,forced_choiceRT_color,2021.2.3,Win32,30.04175804,,,,,,,,7,Slow,long,j,0,2.3446,0,3,3,3,1,,,,,
,0.1,,,,,,,,,d,orange,5accdd6587e271000171be3e,2021-09-28_13h04.27.638,forced_choiceRT_color,2021.2.3,Win32,30.04175804,,,,,,,,7,Ontime,long,d,1,1.967,1,0,4,0,1,,,,,
,0.61,,,,,,,,,f,blue,5accdd6587e271000171be3e,2021-09-28_13h04.27.638,forced_choiceRT_color,2021.2.3,Win32,30.04175804,,,,,,,,7,Ontime,long,f,1,2.0196,1,1,5,1,1,,,,,
,0.29,,,,,,,,,d,orange,5accdd6587e271000171be3e,2021-09-28_13h04.27.638,forced_choiceRT_color,2021.2.3,Win32,30.04175804,,,,,,,,7,Ontime,long,d,1,1.9756,1,2,6,0,1,,,,,
,0.34,,,,,,,,,k,purple,5accdd6587e271000171be3e,2021-09-28_13h04.27.638,forced_choiceRT_color,2021.2.3,Win32,30.04175804,,,,,,,,7,Ontime,long,k,1,1.9473,1,3,7,3,1,,,,,
,1.73,,,,,,,,,k,purple,5accdd6587e271000171be3e,2021-09-28_13h04.27.638,forced_choiceRT_color,2021.2.3,Win32,30.04175804,,,,,,,,7,Slow,long,k,1,2.1175,2,0,8,3,1,,,,,
,1.92,,,,,,,,,k,purple,5accdd6587e271000171be3e,2021-09-28_13h04.27.638,forced_choiceRT_color,2021.2.3,Win32,30.04175804,,,,,,,,7,Slow,long,k,1,2.3956,2,1,9,3,1,,,,,
,1.29,,,,,,,,,d,orange,5accdd6587e271000171be3e,2021-09-28_13h04.27.638,forced_choiceRT_color,2021.2.3,Win32,30.04175804,,,,,,,,7,Ontime,long,d,1,2.0806,2,2,10,0,1,,,,,
,0.94,,,,,,,,,j,red,5accdd6587e271000171be3e,2021-09-28_13h04.27.638,forced_choiceRT_color,2021.2.3,Win32,30.04175804,,,,,,,,7,Ontime,long,j,1,2.0595,2,3,11,2,1,,,,,
,1.38,,,,,,,,,d,orange,5accdd6587e271000171be3e,2021-09-28_13h04.27.638,forced_choiceRT_color,2021.2.3,Win32,30.04175804,,,,,,,,7,Ontime,long,d,1,2.0478,3,0,12,0,1,,,,,
,1.59,,,,,,,,,d,orange,5accdd6587e271000171be3e,2021-09-28_13h04.27.638,forced_choiceRT_color,2021.2.3,Win32,30.04175804,,,,,,,,7,Ontime,long,j,0,2.0412,3,1,13,0,1,,,,,
,1.29,,,,,,,,,k,purple,5accdd6587e271000171be3e,2021-09-28_13h04.27.638,forced_choiceRT_color,2021.2.3,Win32,30.04175804,,,,,,,,7,Ontime,long,k,1,2.0698,3,2,14,3,1,,,,,
,1.07,,,,,,,,,d,orange,5accdd6587e271000171be3e,2021-09-28_13h04.27.638,forced_choiceRT_color,2021.2.3,Win32,30.04175804,,,,,,,,7,Ontime,long,d,1,2.007,3,3,15,0,1,,,,,
,1.51,,,,,,,,,d,orange,5accdd6587e271000171be3e,2021-09-28_13h04.27.638,forced_choiceRT_color,2021.2.3,Win32,30.04175804,,,,,,,,7,Ontime,long,d,1,2.0142,4,0,16,0,1,,,,,
,0.3,,,,,,,,,k,purple,5accdd6587e271000171be3e,2021-09-28_13h04.27.638,forced_choiceRT_color,2021.2.3,Win32,30.04175804,,,,,,,,7,Ontime,long,k,1,1.9864,4,1,17,3,1,,,,,
,1.14,,,,,,,,,j,red,5accdd6587e271000171be3e,2021-09-28_13h04.27.638,forced_choiceRT_color,2021.2.3,Win32,30.04175804,,,,,,,,7,Ontime,long,j,1,2.0443,4,2,18,2,1,,,,,
,0.87,,,,,,,,,j,red,5accdd6587e271000171be3e,2021-09-28_13h04.27.638,forced_choiceRT_color,2021.2.3,Win32,30.04175804,,,,,,,,7,Ontime,long,j,1,1.9702,4,3,19,2,1,,,,,
,1.5,,,,,,,,,f,blue,5accdd6587e271000171be3e,2021-09-28_13h04.27.638,forced_choiceRT_color,2021.2.3,Win32,30.04175804,,,,,,,,7,Ontime,long,f,1,2.0943,5,0,20,1,1,,,,,
,1.02,,,,,,,,,d,orange,5accdd6587e271000171be3e,2021-09-28_13h04.27.638,forced_choiceRT_color,2021.2.3,Win32,30.04175804,,,,,,,,7,Ontime,long,d,1,1.9725,5,1,21,0,1,,,,,
,1.17,,,,,,,,,j,red,5accdd6587e271000171be3e,2021-09-28_13h04.27.638,forced_choiceRT_color,2021.2.3,Win32,30.04175804,,,,,,,,7,Ontime,long,f,0,2.0526,5,2,22,2,1,,,,,
,0.53,,,,,,,,,f,blue,5accdd6587e271000171be3e,2021-09-28_13h04.27.638,forced_choiceRT_color,2021.2.3,Win32,30.04175804,,,,,,,,7,Ontime,long,f,1,1.9791,5,3,23,1,1,,,,,
,1.05,,,,,,,,,d,orange,5accdd6587e271000171be3e,2021-09-28_13h04.27.638,forced_choiceRT_color,2021.2.3,Win32,30.04175804,,,,,,,,7,Ontime,long,d,1,1.9885,6,0,24,0,1,,,,,
,0.1,,,,,,,,,d,orange,5accdd6587e271000171be3e,2021-09-28_13h04.27.638,forced_choiceRT_color,2021.2.3,Win32,30.04175804,,,,,,,,7,Ontime,long,d,1,1.941,6,1,25,0,1,,,,,
,0.13,,,,,,,,,f,blue,5accdd6587e271000171be3e,2021-09-28_13h04.27.638,forced_choiceRT_color,2021.2.3,Win32,30.04175804,,,,,,,,7,Ontime,long,f,1,2.0395,6,2,26,1,1,,,,,
,1.41,,,,,,,,,f,blue,5accdd6587e271000171be3e,2021-09-28_13h04.27.638,forced_choiceRT_color,2021.2.3,Win32,30.04175804,,,,,,,,7,Ontime,long,f,1,2.04,6,3,27,1,1,,,,,
,0.65,,,,,,,,,j,red,5accdd6587e271000171be3e,2021-09-28_13h04.27.638,forced_choiceRT_color,2021.2.3,Win32,30.04175804,,,,,,,,7,Ontime,long,j,1,1.9527,7,0,28,2,1,,,,,
,0.68,,,,,,,,,j,red,5accdd6587e271000171be3e,2021-09-28_13h04.27.638,forced_choiceRT_color,2021.2.3,Win32,30.04175804,,,,,,,,7,Ontime,long,j,1,2.0936,7,1,29,2,1,,,,,
,1.89,,,,,,,,,j,red,5accdd6587e271000171be3e,2021-09-28_13h04.27.638,forced_choiceRT_color,2021.2.3,Win32,30.04175804,,,,,,,,7,Slow,long,j,1,2.3819,7,2,30,2,1,,,,,
,1.8,,,,,,,,,k,purple,5accdd6587e271000171be3e,2021-09-28_13h04.27.638,forced_choiceRT_color,2021.2.3,Win32,30.04175804,,,,,,,,7,Slow,long,k,1,2.2245,7,3,31,3,1,,,,,
,1.88,,,,,,,,,k,purple,5accdd6587e271000171be3e,2021-09-28_13h04.27.638,forced_choiceRT_color,2021.2.3,Win32,30.04175804,,,,,,,,7,Slow,long,k,1,2.3158,8,0,32,3,1,,,,,
,1.18,,,,,,,,,f,blue,5accdd6587e271000171be3e,2021-09-28_13h04.27.638,forced_choiceRT_color,2021.2.3,Win32,30.04175804,,,,,,,,7,Slow,long,k,0,2.1599,8,1,33,1,1,,,,,
,1.42,,,,,,,,,k,purple,5accdd6587e271000171be3e,2021-09-28_13h04.27.638,forced_choiceRT_color,2021.2.3,Win32,30.04175804,,,,,,,,7,Ontime,long,k,1,2.0767,8,2,34,3,1,,,,,
,1.4,,,,,,,,,f,blue,5accdd6587e271000171be3e,2021-09-28_13h04.27.638,forced_choiceRT_color,2021.2.3,Win32,30.04175804,,,,,,,,7,Slow,long,f,1,2.1661,8,3,35,1,1,,,,,
,0.1,,,,,,,,,f,blue,5accdd6587e271000171be3e,2021-09-28_13h04.27.638,forced_choiceRT_color,2021.2.3,Win32,30.04175804,,,,,,,,7,Ontime,long,f,1,2.0376,9,0,36,1,1,,,,,
,0.24,,,,,,,,,f,blue,5accdd6587e271000171be3e,2021-09-28_13h04.27.638,forced_choiceRT_color,2021.2.3,Win32,30.04175804,,,,,,,,7,Ontime,long,f,1,2.0152,9,1,37,1,1,,,,,
,0.11,,,,,,,,,j,red,5accdd6587e271000171be3e,2021-09-28_13h04.27.638,forced_choiceRT_color,2021.2.3,Win32,30.04175804,,,,,,,,7,Ontime,long,j,1,1.9348,9,2,38,2,1,,,,,
,0.72,,,,,,,,,k,purple,5accdd6587e271000171be3e,2021-09-28_13h04.27.638,forced_choiceRT_color,2021.2.3,Win32,30.04175804,,,,,,,,7,Ontime,long,k,1,2.0469,9,3,39,3,1,,,,,
,,,,,,,,,,,,5accdd6587e271000171be3e,2021-09-28_13h04.27.638,forced_choiceRT_color,2021.2.3,Win32,30.04175804,,,,,,,,,,,,,,,,,,,6,0,6,0,1
,1.29,,,,,,,,,d,orange,5accdd6587e271000171be3e,2021-09-28_13h04.27.638,forced_choiceRT_color,2021.2.3,Win32,30.04175804,,,,,,,,8,Ontime,long,d,1,2.0881,0,0,0,0,1,,,,,
,0.43,,,,,,,,,f,blue,5accdd6587e271000171be3e,2021-09-28_13h04.27.638,forced_choiceRT_color,2021.2.3,Win32,30.04175804,,,,,,,,8,Ontime,long,f,1,1.928,0,1,1,1,1,,,,,
,1.18,,,,,,,,,f,blue,5accdd6587e271000171be3e,2021-09-28_13h04.27.638,forced_choiceRT_color,2021.2.3,Win32,30.04175804,,,,,,,,8,Ontime,long,f,1,1.9955,0,2,2,1,1,,,,,
,1.35,,,,,,,,,d,orange,5accdd6587e271000171be3e,2021-09-28_13h04.27.638,forced_choiceRT_color,2021.2.3,Win32,30.04175804,,,,,,,,8,Ontime,long,d,1,1.9032,0,3,3,0,1,,,,,
,0.79,,,,,,,,,k,purple,5accdd6587e271000171be3e,2021-09-28_13h04.27.638,forced_choiceRT_color,2021.2.3,Win32,30.04175804,,,,,,,,8,Fast,long,k,1,1.6821,1,0,4,3,1,,,,,
,1.7,,,,,,,,,k,purple,5accdd6587e271000171be3e,2021-09-28_13h04.27.638,forced_choiceRT_color,2021.2.3,Win32,30.04175804,,,,,,,,8,Slow,long,k,1,2.1348,1,1,5,3,1,,,,,
,1.12,,,,,,,,,k,purple,5accdd6587e271000171be3e,2021-09-28_13h04.27.638,forced_choiceRT_color,2021.2.3,Win32,30.04175804,,,,,,,,8,Ontime,long,k,1,1.9712,1,2,6,3,1,,,,,
,1.43,,,,,,,,,j,red,5accdd6587e271000171be3e,2021-09-28_13h04.27.638,forced_choiceRT_color,2021.2.3,Win32,30.04175804,,,,,,,,8,Ontime,long,j,1,2.0871,1,3,7,2,1,,,,,
,1.27,,,,,,,,,j,red,5accdd6587e271000171be3e,2021-09-28_13h04.27.638,forced_choiceRT_color,2021.2.3,Win32,30.04175804,,,,,,,,8,Ontime,long,j,1,2.0447,2,0,8,2,1,,,,,
,0.06,,,,,,,,,f,blue,5accdd6587e271000171be3e,2021-09-28_13h04.27.638,forced_choiceRT_color,2021.2.3,Win32,30.04175804,,,,,,,,8,Ontime,long,f,1,2.0275,2,1,9,1,1,,,,,
,1.18,,,,,,,,,d,orange,5accdd6587e271000171be3e,2021-09-28_13h04.27.638,forced_choiceRT_color,2021.2.3,Win32,30.04175804,,,,,,,,8,Ontime,long,d,1,1.9955,2,2,10,0,1,,,,,
,1.98,,,,,,,,,j,red,5accdd6587e271000171be3e,2021-09-28_13h04.27.638,forced_choiceRT_color,2021.2.3,Win32,30.04175804,,,,,,,,8,Slow,long,j,1,2.5212,2,3,11,2,1,,,,,
,0.09,,,,,,,,,j,red,5accdd6587e271000171be3e,2021-09-28_13h04.27.638,forced_choiceRT_color,2021.2.3,Win32,30.04175804,,,,,,,,8,Ontime,long,j,1,1.9232,3,0,12,2,1,,,,,
,1.34,,,,,,,,,j,red,5accdd6587e271000171be3e,2021-09-28_13h04.27.638,forced_choiceRT_color,2021.2.3,Win32,30.04175804,,,,,,,,8,Ontime,long,j,1,2.0348,3,1,13,2,1,,,,,
,1.54,,,,,,,,,j,red,5accdd6587e271000171be3e,2021-09-28_13h04.27.638,forced_choiceRT_color,2021.2.3,Win32,30.04175804,,,,,,,,8,Ontime,long,j,1,2.0683,3,2,14,2,1,,,,,
,1.14,,,,,,,,,k,purple,5accdd6587e271000171be3e,2021-09-28_13h04.27.638,forced_choiceRT_color,2021.2.3,Win32,30.04175804,,,,,,,,8,Ontime,long,k,1,1.9366,3,3,15,3,1,,,,,
,1.86,,,,,,,,,f,blue,5accdd6587e271000171be3e,2021-09-28_13h04.27.638,forced_choiceRT_color,2021.2.3,Win32,30.04175804,,,,,,,,8,Slow,long,f,1,2.3739,4,0,16,1,1,,,,,
,1.54,,,,,,,,,j,red,5accdd6587e271000171be3e,2021-09-28_13h04.27.638,forced_choiceRT_color,2021.2.3,Win32,30.04175804,,,,,,,,8,Slow,long,j,1,2.1212,4,1,17,2,1,,,,,
,1.3,,,,,,,,,f,blue,5accdd6587e271000171be3e,2021-09-28_13h04.27.638,forced_choiceRT_color,2021.2.3,Win32,30.04175804,,,,,,,,8,Ontime,long,f,1,1.9291,4,2,18,1,1,,,,,
,0.21,,,,,,,,,d,orange,5accdd6587e271000171be3e,2021-09-28_13h04.27.638,forced_choiceRT_color,2021.2.3,Win32,30.04175804,,,,,,,,8,Ontime,long,d,1,1.9848,4,3,19,0,1,,,,,
,1.32,,,,,,,,,j,red,5accdd6587e271000171be3e,2021-09-28_13h04.27.638,forced_choiceRT_color,2021.2.3,Win32,30.04175804,,,,,,,,8,Ontime,long,j,1,2.0362,5,0,20,2,1,,,,,
,0.64,,,,,,,,,k,purple,5accdd6587e271000171be3e,2021-09-28_13h04.27.638,forced_choiceRT_color,2021.2.3,Win32,30.04175804,,,,,,,,8,Ontime,long,k,1,2.0993,5,1,21,3,1,,,,,
,0.48,,,,,,,,,k,purple,5accdd6587e271000171be3e,2021-09-28_13h04.27.638,forced_choiceRT_color,2021.2.3,Win32,30.04175804,,,,,,,,8,Ontime,long,k,1,2.0318,5,2,22,3,1,,,,,
,0.63,,,,,,,,,d,orange,5accdd6587e271000171be3e,2021-09-28_13h04.27.638,forced_choiceRT_color,2021.2.3,Win32,30.04175804,,,,,,,,8,Ontime,long,d,1,2.0407,5,3,23,0,1,,,,,
,0.45,,,,,,,,,d,orange,5accdd6587e271000171be3e,2021-09-28_13h04.27.638,forced_choiceRT_color,2021.2.3,Win32,30.04175804,,,,,,,,8,Ontime,long,d,1,2.0409,6,0,24,0,1,,,,,
,0.79,,,,,,,,,f,blue,5accdd6587e271000171be3e,2021-09-28_13h04.27.638,forced_choiceRT_color,2021.2.3,Win32,30.04175804,,,,,,,,8,Ontime,long,f,1,2.0632,6,1,25,1,1,,,,,
,1.01,,,,,,,,,f,blue,5accdd6587e271000171be3e,2021-09-28_13h04.27.638,forced_choiceRT_color,2021.2.3,Win32,30.04175804,,,,,,,,8,Ontime,long,f,1,1.9933,6,2,26,1,1,,,,,
,0.49,,,,,,,,,k,purple,5accdd6587e271000171be3e,2021-09-28_13h04.27.638,forced_choiceRT_color,2021.2.3,Win32,30.04175804,,,,,,,,8,Ontime,long,j,0,1.9187,6,3,27,3,1,,,,,
,0.33,,,,,,,,,d,orange,5accdd6587e271000171be3e,2021-09-28_13h04.27.638,forced_choiceRT_color,2021.2.3,Win32,30.04175804,,,,,,,,8,Ontime,long,d,1,1.9914,7,0,28,0,1,,,,,
,1.81,,,,,,,,,k,purple,5accdd6587e271000171be3e,2021-09-28_13h04.27.638,forced_choiceRT_color,2021.2.3,Win32,30.04175804,,,,,,,,8,Slow,long,k,1,2.2724,7,1,29,3,1,,,,,
,1.77,,,,,,,,,f,blue,5accdd6587e271000171be3e,2021-09-28_13h04.27.638,forced_choiceRT_color,2021.2.3,Win32,30.04175804,,,,,,,,8,Slow,long,f,1,2.2477,7,2,30,1,1,,,,,
,1.4,,,,,,,,,d,orange,5accdd6587e271000171be3e,2021-09-28_13h04.27.638,forced_choiceRT_color,2021.2.3,Win32,30.04175804,,,,,,,,8,Ontime,long,d,1,2.0051,7,3,31,0,1,,,,,
,0.23,,,,,,,,,f,blue,5accdd6587e271000171be3e,2021-09-28_13h04.27.638,forced_choiceRT_color,2021.2.3,Win32,30.04175804,,,,,,,,8,Ontime,long,f,1,1.9709,8,0,32,1,1,,,,,
,1.6,,,,,,,,,d,orange,5accdd6587e271000171be3e,2021-09-28_13h04.27.638,forced_choiceRT_color,2021.2.3,Win32,30.04175804,,,,,,,,8,Slow,long,d,1,2.2632,8,1,33,0,1,,,,,
,1.68,,,,,,,,,k,purple,5accdd6587e271000171be3e,2021-09-28_13h04.27.638,forced_choiceRT_color,2021.2.3,Win32,30.04175804,,,,,,,,8,Slow,long,k,1,2.1185,8,2,34,3,1,,,,,
,0.73,,,,,,,,,j,red,5accdd6587e271000171be3e,2021-09-28_13h04.27.638,forced_choiceRT_color,2021.2.3,Win32,30.04175804,,,,,,,,8,Ontime,long,j,1,1.9853,8,3,35,2,1,,,,,
,1.06,,,,,,,,,d,orange,5accdd6587e271000171be3e,2021-09-28_13h04.27.638,forced_choiceRT_color,2021.2.3,Win32,30.04175804,,,,,,,,8,Ontime,long,d,1,2.0408,9,0,36,0,1,,,,,
,1.5,,,,,,,,,k,purple,5accdd6587e271000171be3e,2021-09-28_13h04.27.638,forced_choiceRT_color,2021.2.3,Win32,30.04175804,,,,,,,,8,Ontime,long,k,1,2.0947,9,1,37,3,1,,,,,
,0.02,,,,,,,,,j,red,5accdd6587e271000171be3e,2021-09-28_13h04.27.638,forced_choiceRT_color,2021.2.3,Win32,30.04175804,,,,,,,,8,Ontime,long,j,1,1.9908,9,2,38,2,1,,,,,
,1.48,,,,,,,,,f,blue,5accdd6587e271000171be3e,2021-09-28_13h04.27.638,forced_choiceRT_color,2021.2.3,Win32,30.04175804,,,,,,,,8,Ontime,long,f,1,2.0003,9,3,39,1,1,,,,,
,,,,,,,,,,,,5accdd6587e271000171be3e,2021-09-28_13h04.27.638,forced_choiceRT_color,2021.2.3,Win32,30.04175804,,,,,,,,,,,,,,,,,,,7,0,7,0,1
,0.66,,,,,,,,,f,blue,5accdd6587e271000171be3e,2021-09-28_13h04.27.638,forced_choiceRT_color,2021.2.3,Win32,30.04175804,,,,,,,,9,Ontime,long,f,1,2.0703,0,0,0,1,1,,,,,
,0.64,,,,,,,,,d,orange,5accdd6587e271000171be3e,2021-09-28_13h04.27.638,forced_choiceRT_color,2021.2.3,Win32,30.04175804,,,,,,,,9,Ontime,long,d,1,1.9026,0,1,1,0,1,,,,,
,1.01,,,,,,,,,d,orange,5accdd6587e271000171be3e,2021-09-28_13h04.27.638,forced_choiceRT_color,2021.2.3,Win32,30.04175804,,,,,,,,9,Ontime,long,d,1,2.0212,0,2,2,0,1,,,,,
,1.94,,,,,,,,,j,red,5accdd6587e271000171be3e,2021-09-28_13h04.27.638,forced_choiceRT_color,2021.2.3,Win32,30.04175804,,,,,,,,9,Slow,long,j,1,2.3718,0,3,3,2,1,,,,,
,1.09,,,,,,,,,f,blue,5accdd6587e271000171be3e,2021-09-28_13h04.27.638,forced_choiceRT_color,2021.2.3,Win32,30.04175804,,,,,,,,9,Ontime,long,f,1,1.9762,1,0,4,1,1,,,,,
,1.65,,,,,,,,,f,blue,5accdd6587e271000171be3e,2021-09-28_13h04.27.638,forced_choiceRT_color,2021.2.3,Win32,30.04175804,,,,,,,,9,Ontime,long,f,1,2.0839,1,1,5,1,1,,,,,
,0.7,,,,,,,,,f,blue,5accdd6587e271000171be3e,2021-09-28_13h04.27.638,forced_choiceRT_color,2021.2.3,Win32,30.04175804,,,,,,,,9,Slow,long,f,1,2.1304,1,2,6,1,1,,,,,
,1.4,,,,,,,,,k,purple,5accdd6587e271000171be3e,2021-09-28_13h04.27.638,forced_choiceRT_color,2021.2.3,Win32,30.04175804,,,,,,,,9,Fast,long,k,1,1.8841,1,3,7,3,1,,,,,
,1.11,,,,,,,,,f,blue,5accdd6587e271000171be3e,2021-09-28_13h04.27.638,forced_choiceRT_color,2021.2.3,Win32,30.04175804,,,,,,,,9,Slow,long,f,1,2.1025,2,0,8,1,1,,,,,
,0.36,,,,,,,,,j,red,5accdd6587e271000171be3e,2021-09-28_13h04.27.638,forced_choiceRT_color,2021.2.3,Win32,30.04175804,,,,,,,,9,Ontime,long,j,1,1.954,2,1,9,2,1,,,,,
,0.23,,,,,,,,,d,orange,5accdd6587e271000171be3e,2021-09-28_13h04.27.638,forced_choiceRT_color,2021.2.3,Win32,30.04175804,,,,,,,,9,Ontime,long,d,1,1.9673,2,2,10,0,1,,,,,
,0.19,,,,,,,,,j,red,5accdd6587e271000171be3e,2021-09-28_13h04.27.638,forced_choiceRT_color,2021.2.3,Win32,30.04175804,,,,,,,,9,Ontime,long,j,1,2.0289,2,3,11,2,1,,,,,
,0.86,,,,,,,,,d,orange,5accdd6587e271000171be3e,2021-09-28_13h04.27.638,forced_choiceRT_color,2021.2.3,Win32,30.04175804,,,,,,,,9,Ontime,long,d,1,1.9929,3,0,12,0,1,,,,,
,1.27,,,,,,,,,d,orange,5accdd6587e271000171be3e,2021-09-28_13h04.27.638,forced_choiceRT_color,2021.2.3,Win32,30.04175804,,,,,,,,9,Ontime,long,d,1,2.0478,3,1,13,0,1,,,,,
,0.24,,,,,,,,,f,blue,5accdd6587e271000171be3e,2021-09-28_13h04.27.638,forced_choiceRT_color,2021.2.3,Win32,30.04175804,,,,,,,,9,Ontime,long,f,1,1.9024,3,2,14,1,1,,,,,
,0.28,,,,,,,,,j,red,5accdd6587e271000171be3e,2021-09-28_13h04.27.638,forced_choiceRT_color,2021.2.3,Win32,30.04175804,,,,,,,,9,Fast,long,j,1,1.868,3,3,15,2,1,,,,,
,1.56,,,,,,,,,d,orange,5accdd6587e271000171be3e,2021-09-28_13h04.27.638,forced_choiceRT_color,2021.2.3,Win32,30.04175804,,,,,,,,9,Ontime,long,d,1,2.0464,4,0,16,0,1,,,,,
,1.48,,,,,,,,,j,red,5accdd6587e271000171be3e,2021-09-28_13h04.27.638,forced_choiceRT_color,2021.2.3,Win32,30.04175804,,,,,,,,9,Ontime,long,j,1,2.0736,4,1,17,2,1,,,,,
,0.25,,,,,,,,,d,orange,5accdd6587e271000171be3e,2021-09-28_13h04.27.638,forced_choiceRT_color,2021.2.3,Win32,30.04175804,,,,,,,,9,Ontime,long,d,1,1.9798,4,2,18,0,1,,,,,
,1.23,,,,,,,,,k,purple,5accdd6587e271000171be3e,2021-09-28_13h04.27.638,forced_choiceRT_color,2021.2.3,Win32,30.04175804,,,,,,,,9,Ontime,long,k,1,1.9791,4,3,19,3,1,,,,,
,1.07,,,,,,,,,k,purple,5accdd6587e271000171be3e,2021-09-28_13h04.27.638,forced_choiceRT_color,2021.2.3,Win32,30.04175804,,,,,,,,9,Ontime,long,k,1,1.9083,5,0,20,3,1,,,,,
,1.32,,,,,,,,,f,blue,5accdd6587e271000171be3e,2021-09-28_13h04.27.638,forced_choiceRT_color,2021.2.3,Win32,30.04175804,,,,,,,,9,Ontime,long,f,1,2.0221,5,1,21,1,1,,,,,
,0.03,,,,,,,,,k,purple,5accdd6587e271000171be3e,2021-09-28_13h04.27.638,forced_choiceRT_color,2021.2.3,Win32,30.04175804,,,,,,,,9,Ontime,long,k,1,1.9159,5,2,22,3,1,,,,,
,0.02,,,,,,,,,d,orange,5accdd6587e271000171be3e,2021-09-28_13h04.27.638,forced_choiceRT_color,2021.2.3,Win32,30.04175804,,,,,,,,9,Ontime,long,d,1,1.9415,5,3,23,0,1,,,,,
,1.33,,,,,,,,,j,red,5accdd6587e271000171be3e,2021-09-28_13h04.27.638,forced_choiceRT_color,2021.2.3,Win32,30.04175804,,,,,,,,9,Ontime,long,j,1,2.0777,6,0,24,2,1,,,,,
,1.34,,,,,,,,,d,orange,5accdd6587e271000171be3e,2021-09-28_13h04.27.638,forced_choiceRT_color,2021.2.3,Win32,30.04175804,,,,,,,,9,Ontime,long,d,1,2.0309,6,1,25,0,1,,,,,
,1.73,,,,,,,,,k,purple,5accdd6587e271000171be3e,2021-09-28_13h04.27.638,forced_choiceRT_color,2021.2.3,Win32,30.04175804,,,,,,,,9,Slow,long,k,1,2.252,6,2,26,3,1,,,,,
,1.57,,,,,,,,,k,purple,5accdd6587e271000171be3e,2021-09-28_13h04.27.638,forced_choiceRT_color,2021.2.3,Win32,30.04175804,,,,,,,,9,Slow,long,k,1,2.2625,6,3,27,3,1,,,,,
,0.46,,,,,,,,,j,red,5accdd6587e271000171be3e,2021-09-28_13h04.27.638,forced_choiceRT_color,2021.2.3,Win32,30.04175804,,,,,,,,9,Ontime,long,j,1,1.941,7,0,28,2,1,,,,,
,0.72,,,,,,,,,j,red,5accdd6587e271000171be3e,2021-09-28_13h04.27.638,forced_choiceRT_color,2021.2.3,Win32,30.04175804,,,,,,,,9,Ontime,long,j,1,2.0048,7,1,29,2,1,,,,,
,0.74,,,,,,,,,j,red,5accdd6587e271000171be3e,2021-09-28_13h04.27.638,forced_choiceRT_color,2021.2.3,Win32,30.04175804,,,,,,,,9,Ontime,long,j,1,2.0795,7,2,30,2,1,,,,,
,0.38,,,,,,,,,f,blue,5accdd6587e271000171be3e,2021-09-28_13h04.27.638,forced_choiceRT_color,2021.2.3,Win32,30.04175804,,,,,,,,9,Ontime,long,f,1,1.9949,7,3,31,1,1,,,,,
,1.66,,,,,,,,,f,blue,5accdd6587e271000171be3e,2021-09-28_13h04.27.638,forced_choiceRT_color,2021.2.3,Win32,30.04175804,,,,,,,,9,Slow,long,f,1,2.1503,8,0,32,1,1,,,,,
,1.89,,,,,,,,,f,blue,5accdd6587e271000171be3e,2021-09-28_13h04.27.638,forced_choiceRT_color,2021.2.3,Win32,30.04175804,,,,,,,,9,Slow,long,f,1,2.2381,8,1,33,1,1,,,,,
,1.89,,,,,,,,,k,purple,5accdd6587e271000171be3e,2021-09-28_13h04.27.638,forced_choiceRT_color,2021.2.3,Win32,30.04175804,,,,,,,,9,Slow,long,k,1,2.3366,8,2,34,3,1,,,,,
,0.66,,,,,,,,,d,orange,5accdd6587e271000171be3e,2021-09-28_13h04.27.638,forced_choiceRT_color,2021.2.3,Win32,30.04175804,,,,,,,,9,Ontime,long,d,1,2.0338,8,3,35,0,1,,,,,
,1.15,,,,,,,,,k,purple,5accdd6587e271000171be3e,2021-09-28_13h04.27.638,forced_choiceRT_color,2021.2.3,Win32,30.04175804,,,,,,,,9,Ontime,long,k,1,1.971,9,0,36,3,1,,,,,
,0.11,,,,,,,,,k,purple,5accdd6587e271000171be3e,2021-09-28_13h04.27.638,forced_choiceRT_color,2021.2.3,Win32,30.04175804,,,,,,,,9,Ontime,long,k,1,1.9577,9,1,37,3,1,,,,,
,1.83,,,,,,,,,j,red,5accdd6587e271000171be3e,2021-09-28_13h04.27.638,forced_choiceRT_color,2021.2.3,Win32,30.04175804,,,,,,,,9,Slow,long,j,1,2.2283,9,2,38,2,1,,,,,
,1.09,,,,,,,,,k,purple,5accdd6587e271000171be3e,2021-09-28_13h04.27.638,forced_choiceRT_color,2021.2.3,Win32,30.04175804,,,,,,,,9,Ontime,long,k,1,1.9836,9,3,39,3,1,,,,,
,,,,,,,,,,,,5accdd6587e271000171be3e,2021-09-28_13h04.27.638,forced_choiceRT_color,2021.2.3,Win32,30.04175804,,,,,,,,,,,,,,,,,,,8,0,8,0,1
,1.22,,,,,,,,,d,orange,5accdd6587e271000171be3e,2021-09-28_13h04.27.638,forced_choiceRT_color,2021.2.3,Win32,30.04175804,,,,,,,,10,Ontime,long,d,1,2.0487,0,0,0,0,1,,,,,
,1.54,,,,,,,,,j,red,5accdd6587e271000171be3e,2021-09-28_13h04.27.638,forced_choiceRT_color,2021.2.3,Win32,30.04175804,,,,,,,,10,Slow,long,j,1,2.1142,0,1,1,2,1,,,,,
,0.15,,,,,,,,,j,red,5accdd6587e271000171be3e,2021-09-28_13h04.27.638,forced_choiceRT_color,2021.2.3,Win32,30.04175804,,,,,,,,10,Ontime,long,j,1,1.9445,0,2,2,2,1,,,,,
,0.45,,,,,,,,,k,purple,5accdd6587e271000171be3e,2021-09-28_13h04.27.638,forced_choiceRT_color,2021.2.3,Win32,30.04175804,,,,,,,,10,Ontime,long,k,1,2.0211,0,3,3,3,1,,,,,
,1.18,,,,,,,,,k,purple,5accdd6587e271000171be3e,2021-09-28_13h04.27.638,forced_choiceRT_color,2021.2.3,Win32,30.04175804,,,,,,,,10,Ontime,long,k,1,1.9392,1,0,4,3,1,,,,,
,0.58,,,,,,,,,d,orange,5accdd6587e271000171be3e,2021-09-28_13h04.27.638,forced_choiceRT_color,2021.2.3,Win32,30.04175804,,,,,,,,10,Ontime,long,d,1,2.0519,1,1,5,0,1,,,,,
,1.72,,,,,,,,,f,blue,5accdd6587e271000171be3e,2021-09-28_13h04.27.638,forced_choiceRT_color,2021.2.3,Win32,30.04175804,,,,,,,,10,Slow,long,j,0,2.179,1,2,6,1,1,,,,,
,1.76,,,,,,,,,f,blue,5accdd6587e271000171be3e,2021-09-28_13h04.27.638,forced_choiceRT_color,2021.2.3,Win32,30.04175804,,,,,,,,10,Slow,long,j,0,2.2302,1,3,7,1,1,,,,,
,0.69,,,,,,,,,f,blue,5accdd6587e271000171be3e,2021-09-28_13h04.27.638,forced_choiceRT_color,2021.2.3,Win32,30.04175804,,,,,,,,10,Ontime,long,f,1,1.935,2,0,8,1,1,,,,,
,0.78,,,,,,,,,d,orange,5accdd6587e271000171be3e,2021-09-28_13h04.27.638,forced_choiceRT_color,2021.2.3,Win32,30.04175804,,,,,,,,10,Ontime,long,d,1,1.9401,2,1,9,0,1,,,,,
,0.92,,,,,,,,,f,blue,5accdd6587e271000171be3e,2021-09-28_13h04.27.638,forced_choiceRT_color,2021.2.3,Win32,30.04175804,,,,,,,,10,Ontime,long,f,1,1.9503,2,2,10,1,1,,,,,
,0.36,,,,,,,,,k,purple,5accdd6587e271000171be3e,2021-09-28_13h04.27.638,forced_choiceRT_color,2021.2.3,Win32,30.04175804,,,,,,,,10,Ontime,long,k,1,2.0122,2,3,11,3,1,,,,,
,1.09,,,,,,,,,k,purple,5accdd6587e271000171be3e,2021-09-28_13h04.27.638,forced_choiceRT_color,2021.2.3,Win32,30.04175804,,,,,,,,10,Ontime,long,k,1,1.9049,3,0,12,3,1,,,,,
,0.67,,,,,,,,,j,red,5accdd6587e271000171be3e,2021-09-28_13h04.27.638,forced_choiceRT_color,2021.2.3,Win32,30.04175804,,,,,,,,10,Ontime,long,j,1,1.935,3,1,13,2,1,,,,,
,1.03,,,,,,,,,k,purple,5accdd6587e271000171be3e,2021-09-28_13h04.27.638,forced_choiceRT_color,2021.2.3,Win32,30.04175804,,,,,,,,10,Ontime,long,k,1,1.9026,3,2,14,3,1,,,,,
,0.44,,,,,,,,,j,red,5accdd6587e271000171be3e,2021-09-28_13h04.27.638,forced_choiceRT_color,2021.2.3,Win32,30.04175804,,,,,,,,10,Ontime,long,j,1,2.0355,3,3,15,2,1,,,,,
,1.67,,,,,,,,,d,orange,5accdd6587e271000171be3e,2021-09-28_13h04.27.638,forced_choiceRT_color,2021.2.3,Win32,30.04175804,,,,,,,,10,Slow,long,d,1,2.2172,4,0,16,0,1,,,,,
,0.02,,,,,,,,,j,red,5accdd6587e271000171be3e,2021-09-28_13h04.27.638,forced_choiceRT_color,2021.2.3,Win32,30.04175804,,,,,,,,10,Fast,long,j,1,1.8944,4,1,17,2,1,,,,,
,1.53,,,,,,,,,f,blue,5accdd6587e271000171be3e,2021-09-28_13h04.27.638,forced_choiceRT_color,2021.2.3,Win32,30.04175804,,,,,,,,10,Ontime,long,f,1,2.0546,4,2,18,1,1,,,,,
,1.67,,,,,,,,,f,blue,5accdd6587e271000171be3e,2021-09-28_13h04.27.638,forced_choiceRT_color,2021.2.3,Win32,30.04175804,,,,,,,,10,Ontime,long,f,1,2.0578,4,3,19,1,1,,,,,
,1.94,,,,,,,,,j,red,5accdd6587e271000171be3e,2021-09-28_13h04.27.638,forced_choiceRT_color,2021.2.3,Win32,30.04175804,,,,,,,,10,Slow,long,d,0,2.4439,5,0,20,2,1,,,,,
,0.61,,,,,,,,,f,blue,5accdd6587e271000171be3e,2021-09-28_13h04.27.638,forced_choiceRT_color,2021.2.3,Win32,30.04175804,,,,,,,,10,Ontime,long,f,1,2.0495,5,1,21,1,1,,,,,
,0.64,,,,,,,,,d,orange,5accdd6587e271000171be3e,2021-09-28_13h04.27.638,forced_choiceRT_color,2021.2.3,Win32,30.04175804,,,,,,,,10,Ontime,long,d,1,2.0098,5,2,22,0,1,,,,,
,0.64,,,,,,,,,k,purple,5accdd6587e271000171be3e,2021-09-28_13h04.27.638,forced_choiceRT_color,2021.2.3,Win32,30.04175804,,,,,,,,10,Slow,long,k,1,2.1075,5,3,23,3,1,,,,,
,1.77,,,,,,,,,k,purple,5accdd6587e271000171be3e,2021-09-28_13h04.27.638,forced_choiceRT_color,2021.2.3,Win32,30.04175804,,,,,,,,10,Slow,long,k,1,2.1673,6,0,24,3,1,,,,,
,1.85,,,,,,,,,f,blue,5accdd6587e271000171be3e,2021-09-28_13h04.27.638,forced_choiceRT_color,2021.2.3,Win32,30.04175804,,,,,,,,10,Slow,long,f,1,2.4736,6,1,25,1,1,,,,,
,0.5,,,,,,,,,d,orange,5accdd6587e271000171be3e,2021-09-28_13h04.27.638,forced_choiceRT_color,2021.2.3,Win32,30.04175804,,,,,,,,10,Ontime,long,d,1,1.9736,6,2,26,0,1,,,,,
,1.53,,,,,,,,,k,purple,5accdd6587e271000171be3e,2021-09-28_13h04.27.638,forced_choiceRT_color,2021.2.3,Win32,30.04175804,,,,,,,,10,Slow,long,k,1,2.2286,6,3,27,3,1,,,,,
,1.72,,,,,,,,,d,orange,5accdd6587e271000171be3e,2021-09-28_13h04.27.638,forced_choiceRT_color,2021.2.3,Win32,30.04175804,,,,,,,,10,Slow,long,d,1,2.1366,7,0,28,0,1,,,,,
,1.16,,,,,,,,,d,orange,5accdd6587e271000171be3e,2021-09-28_13h04.27.638,forced_choiceRT_color,2021.2.3,Win32,30.04175804,,,,,,,,10,Ontime,long,d,1,2.0377,7,1,29,0,1,,,,,
,0.01,,,,,,,,,k,purple,5accdd6587e271000171be3e,2021-09-28_13h04.27.638,forced_choiceRT_color,2021.2.3,Win32,30.04175804,,,,,,,,10,Ontime,long,k,1,2.0514,7,2,30,3,1,,,,,
,0.21,,,,,,,,,f,blue,5accdd6587e271000171be3e,2021-09-28_13h04.27.638,forced_choiceRT_color,2021.2.3,Win32,30.04175804,,,,,,,,10,Ontime,long,f,1,2.0513,7,3,31,1,1,,,,,
,1.94,,,,,,,,,j,red,5accdd6587e271000171be3e,2021-09-28_13h04.27.638,forced_choiceRT_color,2021.2.3,Win32,30.04175804,,,,,,,,10,Slow,long,j,1,2.3528,8,0,32,2,1,,,,,
,1.83,,,,,,,,,d,orange,5accdd6587e271000171be3e,2021-09-28_13h04.27.638,forced_choiceRT_color,2021.2.3,Win32,30.04175804,,,,,,,,10,Slow,long,f,0,2.2958,8,1,33,0,1,,,,,
,1.41,,,,,,,,,k,purple,5accdd6587e271000171be3e,2021-09-28_13h04.27.638,forced_choiceRT_color,2021.2.3,Win32,30.04175804,,,,,,,,10,Slow,long,j,0,2.1419,8,2,34,3,1,,,,,
,0.12,,,,,,,,,j,red,5accdd6587e271000171be3e,2021-09-28_13h04.27.638,forced_choiceRT_color,2021.2.3,Win32,30.04175804,,,,,,,,10,Ontime,long,j,1,1.9864,8,3,35,2,1,,,,,
,0,,,,,,,,,j,red,5accdd6587e271000171be3e,2021-09-28_13h04.27.638,forced_choiceRT_color,2021.2.3,Win32,30.04175804,,,,,,,,10,Ontime,long,j,1,2.0126,9,0,36,2,1,,,,,
,0.22,,,,,,,,,d,orange,5accdd6587e271000171be3e,2021-09-28_13h04.27.638,forced_choiceRT_color,2021.2.3,Win32,30.04175804,,,,,,,,10,Ontime,long,d,1,2.0443,9,1,37,0,1,,,,,
,1.08,,,,,,,,,j,red,5accdd6587e271000171be3e,2021-09-28_13h04.27.638,forced_choiceRT_color,2021.2.3,Win32,30.04175804,,,,,,,,10,Ontime,long,j,1,2.0114,9,2,38,2,1,,,,,
,0.32,,,,,,,,,f,blue,5accdd6587e271000171be3e,2021-09-28_13h04.27.638,forced_choiceRT_color,2021.2.3,Win32,30.04175804,,,,,,,,10,Ontime,long,f,1,2.0106,9,3,39,1,1,,,,,
,,,,,,,,,,,,5accdd6587e271000171be3e,2021-09-28_13h04.27.638,forced_choiceRT_color,2021.2.3,Win32,30.04175804,,,,,,,,,,,,,,,,,,,9,0,9,0,1
