target_onset,trial_resp_sp.keys,trial_resp_sp.corr,trial_resp_sp.rt,trials_train_loop.thisRepN,trials_train_loop.thisTrialN,trials_train_loop.thisN,trials_train_loop.thisIndex,trials_train_loop.ran,correct_key,color,participant,date,expName,psychopyVersion,OS,frameRate,trial_resp_timing.keys,trial_resp_timing.rt,trials_train_timing.thisRepN,trials_train_timing.thisTrialN,trials_train_timing.thisN,trials_train_timing.thisIndex,trials_train_timing.ran,block_id,ontime,feedback_cond,forcedRT_resp.keys,forcedRT_resp.corr,forcedRT_resp.rt,trials.thisRepN,trials.thisTrialN,trials.thisN,trials.thisIndex,trials.ran,blocks.thisRepN,blocks.thisTrialN,blocks.thisN,blocks.thisIndex,blocks.ran
0,d,1,1.1083,0,0,0,0,1,d,orange,5aea84c762ac0e0001096de0,2021-10-22_13h20.18.573,forced_choiceRT_color,2021.2.3,Win32,144.4251878,,,,,,,,,,,,,,,,,,,,,,,
0,j,1,1.0271,0,1,1,2,1,j,red,5aea84c762ac0e0001096de0,2021-10-22_13h20.18.573,forced_choiceRT_color,2021.2.3,Win32,144.4251878,,,,,,,,,,,,,,,,,,,,,,,
0,d,1,0.805,0,2,2,0,1,d,orange,5aea84c762ac0e0001096de0,2021-10-22_13h20.18.573,forced_choiceRT_color,2021.2.3,Win32,144.4251878,,,,,,,,,,,,,,,,,,,,,,,
0,k,1,0.59,0,3,3,3,1,k,purple,5aea84c762ac0e0001096de0,2021-10-22_13h20.18.573,forced_choiceRT_color,2021.2.3,Win32,144.4251878,,,,,,,,,,,,,,,,,,,,,,,
0,k,1,0.5992,1,0,4,3,1,k,purple,5aea84c762ac0e0001096de0,2021-10-22_13h20.18.573,forced_choiceRT_color,2021.2.3,Win32,144.4251878,,,,,,,,,,,,,,,,,,,,,,,
0,d,1,0.6386,1,1,5,0,1,d,orange,5aea84c762ac0e0001096de0,2021-10-22_13h20.18.573,forced_choiceRT_color,2021.2.3,Win32,144.4251878,,,,,,,,,,,,,,,,,,,,,,,
0,j,1,0.8676,1,2,6,2,1,j,red,5aea84c762ac0e0001096de0,2021-10-22_13h20.18.573,forced_choiceRT_color,2021.2.3,Win32,144.4251878,,,,,,,,,,,,,,,,,,,,,,,
0,d,1,0.8468,1,3,7,0,1,d,orange,5aea84c762ac0e0001096de0,2021-10-22_13h20.18.573,forced_choiceRT_color,2021.2.3,Win32,144.4251878,,,,,,,,,,,,,,,,,,,,,,,
0,j,1,0.569,2,0,8,2,1,j,red,5aea84c762ac0e0001096de0,2021-10-22_13h20.18.573,forced_choiceRT_color,2021.2.3,Win32,144.4251878,,,,,,,,,,,,,,,,,,,,,,,
0,k,1,0.4945,2,1,9,3,1,k,purple,5aea84c762ac0e0001096de0,2021-10-22_13h20.18.573,forced_choiceRT_color,2021.2.3,Win32,144.4251878,,,,,,,,,,,,,,,,,,,,,,,
0,d,1,0.4165,2,2,10,0,1,d,orange,5aea84c762ac0e0001096de0,2021-10-22_13h20.18.573,forced_choiceRT_color,2021.2.3,Win32,144.4251878,,,,,,,,,,,,,,,,,,,,,,,
0,f,1,0.7285,2,3,11,1,1,f,blue,5aea84c762ac0e0001096de0,2021-10-22_13h20.18.573,forced_choiceRT_color,2021.2.3,Win32,144.4251878,,,,,,,,,,,,,,,,,,,,,,,
0,j,1,0.5355,3,0,12,2,1,j,red,5aea84c762ac0e0001096de0,2021-10-22_13h20.18.573,forced_choiceRT_color,2021.2.3,Win32,144.4251878,,,,,,,,,,,,,,,,,,,,,,,
0,f,1,1.1891,3,1,13,1,1,f,blue,5aea84c762ac0e0001096de0,2021-10-22_13h20.18.573,forced_choiceRT_color,2021.2.3,Win32,144.4251878,,,,,,,,,,,,,,,,,,,,,,,
0,j,1,0.7499,3,2,14,2,1,j,red,5aea84c762ac0e0001096de0,2021-10-22_13h20.18.573,forced_choiceRT_color,2021.2.3,Win32,144.4251878,,,,,,,,,,,,,,,,,,,,,,,
0,d,1,0.5066,3,3,15,0,1,d,orange,5aea84c762ac0e0001096de0,2021-10-22_13h20.18.573,forced_choiceRT_color,2021.2.3,Win32,144.4251878,,,,,,,,,,,,,,,,,,,,,,,
0,f,1,0.6137,4,0,16,1,1,f,blue,5aea84c762ac0e0001096de0,2021-10-22_13h20.18.573,forced_choiceRT_color,2021.2.3,Win32,144.4251878,,,,,,,,,,,,,,,,,,,,,,,
0,d,1,0.6314,4,1,17,0,1,d,orange,5aea84c762ac0e0001096de0,2021-10-22_13h20.18.573,forced_choiceRT_color,2021.2.3,Win32,144.4251878,,,,,,,,,,,,,,,,,,,,,,,
0,k,1,0.6036,4,2,18,3,1,k,purple,5aea84c762ac0e0001096de0,2021-10-22_13h20.18.573,forced_choiceRT_color,2021.2.3,Win32,144.4251878,,,,,,,,,,,,,,,,,,,,,,,
0,f,1,0.834,4,3,19,1,1,f,blue,5aea84c762ac0e0001096de0,2021-10-22_13h20.18.573,forced_choiceRT_color,2021.2.3,Win32,144.4251878,,,,,,,,,,,,,,,,,,,,,,,
0,d,1,0.4249,5,0,20,0,1,d,orange,5aea84c762ac0e0001096de0,2021-10-22_13h20.18.573,forced_choiceRT_color,2021.2.3,Win32,144.4251878,,,,,,,,,,,,,,,,,,,,,,,
0,k,1,0.5,5,1,21,3,1,k,purple,5aea84c762ac0e0001096de0,2021-10-22_13h20.18.573,forced_choiceRT_color,2021.2.3,Win32,144.4251878,,,,,,,,,,,,,,,,,,,,,,,
0,j,1,0.5832,5,2,22,2,1,j,red,5aea84c762ac0e0001096de0,2021-10-22_13h20.18.573,forced_choiceRT_color,2021.2.3,Win32,144.4251878,,,,,,,,,,,,,,,,,,,,,,,
0,f,1,0.8202,5,3,23,1,1,f,blue,5aea84c762ac0e0001096de0,2021-10-22_13h20.18.573,forced_choiceRT_color,2021.2.3,Win32,144.4251878,,,,,,,,,,,,,,,,,,,,,,,
0,f,1,0.5304,6,0,24,1,1,f,blue,5aea84c762ac0e0001096de0,2021-10-22_13h20.18.573,forced_choiceRT_color,2021.2.3,Win32,144.4251878,,,,,,,,,,,,,,,,,,,,,,,
0,k,0,0.5002,6,1,25,2,1,j,red,5aea84c762ac0e0001096de0,2021-10-22_13h20.18.573,forced_choiceRT_color,2021.2.3,Win32,144.4251878,,,,,,,,,,,,,,,,,,,,,,,
0,f,1,2.1302,6,2,26,1,1,f,blue,5aea84c762ac0e0001096de0,2021-10-22_13h20.18.573,forced_choiceRT_color,2021.2.3,Win32,144.4251878,,,,,,,,,,,,,,,,,,,,,,,
0,k,1,0.5508,6,3,27,3,1,k,purple,5aea84c762ac0e0001096de0,2021-10-22_13h20.18.573,forced_choiceRT_color,2021.2.3,Win32,144.4251878,,,,,,,,,,,,,,,,,,,,,,,
0,f,1,0.7633,7,0,28,1,1,f,blue,5aea84c762ac0e0001096de0,2021-10-22_13h20.18.573,forced_choiceRT_color,2021.2.3,Win32,144.4251878,,,,,,,,,,,,,,,,,,,,,,,
0,d,1,0.4926,7,1,29,0,1,d,orange,5aea84c762ac0e0001096de0,2021-10-22_13h20.18.573,forced_choiceRT_color,2021.2.3,Win32,144.4251878,,,,,,,,,,,,,,,,,,,,,,,
0,f,1,0.7286,7,2,30,1,1,f,blue,5aea84c762ac0e0001096de0,2021-10-22_13h20.18.573,forced_choiceRT_color,2021.2.3,Win32,144.4251878,,,,,,,,,,,,,,,,,,,,,,,
0,f,1,0.4306,7,3,31,1,1,f,blue,5aea84c762ac0e0001096de0,2021-10-22_13h20.18.573,forced_choiceRT_color,2021.2.3,Win32,144.4251878,,,,,,,,,,,,,,,,,,,,,,,
0,k,1,0.5372,8,0,32,3,1,k,purple,5aea84c762ac0e0001096de0,2021-10-22_13h20.18.573,forced_choiceRT_color,2021.2.3,Win32,144.4251878,,,,,,,,,,,,,,,,,,,,,,,
0,k,1,0.5346,8,1,33,3,1,k,purple,5aea84c762ac0e0001096de0,2021-10-22_13h20.18.573,forced_choiceRT_color,2021.2.3,Win32,144.4251878,,,,,,,,,,,,,,,,,,,,,,,
0,k,1,0.4859,8,2,34,3,1,k,purple,5aea84c762ac0e0001096de0,2021-10-22_13h20.18.573,forced_choiceRT_color,2021.2.3,Win32,144.4251878,,,,,,,,,,,,,,,,,,,,,,,
0,j,1,0.4654,8,3,35,2,1,j,red,5aea84c762ac0e0001096de0,2021-10-22_13h20.18.573,forced_choiceRT_color,2021.2.3,Win32,144.4251878,,,,,,,,,,,,,,,,,,,,,,,
0,d,1,0.4335,9,0,36,0,1,d,orange,5aea84c762ac0e0001096de0,2021-10-22_13h20.18.573,forced_choiceRT_color,2021.2.3,Win32,144.4251878,,,,,,,,,,,,,,,,,,,,,,,
0,j,1,0.5786,9,1,37,2,1,j,red,5aea84c762ac0e0001096de0,2021-10-22_13h20.18.573,forced_choiceRT_color,2021.2.3,Win32,144.4251878,,,,,,,,,,,,,,,,,,,,,,,
0,j,1,0.4262,9,2,38,2,1,j,red,5aea84c762ac0e0001096de0,2021-10-22_13h20.18.573,forced_choiceRT_color,2021.2.3,Win32,144.4251878,,,,,,,,,,,,,,,,,,,,,,,
0,d,1,0.6488,9,3,39,0,1,d,orange,5aea84c762ac0e0001096de0,2021-10-22_13h20.18.573,forced_choiceRT_color,2021.2.3,Win32,144.4251878,,,,,,,,,,,,,,,,,,,,,,,
0,k,1,0.4872,10,0,40,3,1,k,purple,5aea84c762ac0e0001096de0,2021-10-22_13h20.18.573,forced_choiceRT_color,2021.2.3,Win32,144.4251878,,,,,,,,,,,,,,,,,,,,,,,
0,j,1,0.6594,10,1,41,2,1,j,red,5aea84c762ac0e0001096de0,2021-10-22_13h20.18.573,forced_choiceRT_color,2021.2.3,Win32,144.4251878,,,,,,,,,,,,,,,,,,,,,,,
0,f,1,0.4523,10,2,42,1,1,f,blue,5aea84c762ac0e0001096de0,2021-10-22_13h20.18.573,forced_choiceRT_color,2021.2.3,Win32,144.4251878,,,,,,,,,,,,,,,,,,,,,,,
0,f,1,0.4184,10,3,43,1,1,f,blue,5aea84c762ac0e0001096de0,2021-10-22_13h20.18.573,forced_choiceRT_color,2021.2.3,Win32,144.4251878,,,,,,,,,,,,,,,,,,,,,,,
0,k,1,0.5278,11,0,44,3,1,k,purple,5aea84c762ac0e0001096de0,2021-10-22_13h20.18.573,forced_choiceRT_color,2021.2.3,Win32,144.4251878,,,,,,,,,,,,,,,,,,,,,,,
0,k,1,0.4251,11,1,45,3,1,k,purple,5aea84c762ac0e0001096de0,2021-10-22_13h20.18.573,forced_choiceRT_color,2021.2.3,Win32,144.4251878,,,,,,,,,,,,,,,,,,,,,,,
0,f,1,0.6529,11,2,46,1,1,f,blue,5aea84c762ac0e0001096de0,2021-10-22_13h20.18.573,forced_choiceRT_color,2021.2.3,Win32,144.4251878,,,,,,,,,,,,,,,,,,,,,,,
0,j,0,0.4166,11,3,47,3,1,k,purple,5aea84c762ac0e0001096de0,2021-10-22_13h20.18.573,forced_choiceRT_color,2021.2.3,Win32,144.4251878,,,,,,,,,,,,,,,,,,,,,,,
0,f,1,0.704,12,0,48,1,1,f,blue,5aea84c762ac0e0001096de0,2021-10-22_13h20.18.573,forced_choiceRT_color,2021.2.3,Win32,144.4251878,,,,,,,,,,,,,,,,,,,,,,,
0,f,1,0.5553,12,1,49,1,1,f,blue,5aea84c762ac0e0001096de0,2021-10-22_13h20.18.573,forced_choiceRT_color,2021.2.3,Win32,144.4251878,,,,,,,,,,,,,,,,,,,,,,,
0,j,1,0.5485,12,2,50,2,1,j,red,5aea84c762ac0e0001096de0,2021-10-22_13h20.18.573,forced_choiceRT_color,2021.2.3,Win32,144.4251878,,,,,,,,,,,,,,,,,,,,,,,
0,j,1,0.3546,12,3,51,2,1,j,red,5aea84c762ac0e0001096de0,2021-10-22_13h20.18.573,forced_choiceRT_color,2021.2.3,Win32,144.4251878,,,,,,,,,,,,,,,,,,,,,,,
0,d,1,0.87,13,0,52,0,1,d,orange,5aea84c762ac0e0001096de0,2021-10-22_13h20.18.573,forced_choiceRT_color,2021.2.3,Win32,144.4251878,,,,,,,,,,,,,,,,,,,,,,,
0,d,1,0.354,13,1,53,0,1,d,orange,5aea84c762ac0e0001096de0,2021-10-22_13h20.18.573,forced_choiceRT_color,2021.2.3,Win32,144.4251878,,,,,,,,,,,,,,,,,,,,,,,
0,d,1,0.3471,13,2,54,0,1,d,orange,5aea84c762ac0e0001096de0,2021-10-22_13h20.18.573,forced_choiceRT_color,2021.2.3,Win32,144.4251878,,,,,,,,,,,,,,,,,,,,,,,
0,d,1,0.3225,13,3,55,0,1,d,orange,5aea84c762ac0e0001096de0,2021-10-22_13h20.18.573,forced_choiceRT_color,2021.2.3,Win32,144.4251878,,,,,,,,,,,,,,,,,,,,,,,
0,j,1,0.6198,14,0,56,2,1,j,red,5aea84c762ac0e0001096de0,2021-10-22_13h20.18.573,forced_choiceRT_color,2021.2.3,Win32,144.4251878,,,,,,,,,,,,,,,,,,,,,,,
0,k,1,0.3612,14,1,57,3,1,k,purple,5aea84c762ac0e0001096de0,2021-10-22_13h20.18.573,forced_choiceRT_color,2021.2.3,Win32,144.4251878,,,,,,,,,,,,,,,,,,,,,,,
0,j,1,0.424,14,2,58,2,1,j,red,5aea84c762ac0e0001096de0,2021-10-22_13h20.18.573,forced_choiceRT_color,2021.2.3,Win32,144.4251878,,,,,,,,,,,,,,,,,,,,,,,
0,k,1,0.3749,14,3,59,3,1,k,purple,5aea84c762ac0e0001096de0,2021-10-22_13h20.18.573,forced_choiceRT_color,2021.2.3,Win32,144.4251878,,,,,,,,,,,,,,,,,,,,,,,
,,,,,,,,,,,5aea84c762ac0e0001096de0,2021-10-22_13h20.18.573,forced_choiceRT_color,2021.2.3,Win32,144.4251878,j,2.2627,0,0,0,0,1,,,,,,,,,,,,,,,,
,,,,,,,,,,,5aea84c762ac0e0001096de0,2021-10-22_13h20.18.573,forced_choiceRT_color,2021.2.3,Win32,144.4251878,k,2.0607,1,0,1,0,1,,,,,,,,,,,,,,,,
,,,,,,,,,,,5aea84c762ac0e0001096de0,2021-10-22_13h20.18.573,forced_choiceRT_color,2021.2.3,Win32,144.4251878,d,2.0884,2,0,2,0,1,,,,,,,,,,,,,,,,
,,,,,,,,,,,5aea84c762ac0e0001096de0,2021-10-22_13h20.18.573,forced_choiceRT_color,2021.2.3,Win32,144.4251878,f,2.1228,3,0,3,0,1,,,,,,,,,,,,,,,,
,,,,,,,,,,,5aea84c762ac0e0001096de0,2021-10-22_13h20.18.573,forced_choiceRT_color,2021.2.3,Win32,144.4251878,k,2.0463,4,0,4,0,1,,,,,,,,,,,,,,,,
,,,,,,,,,,,5aea84c762ac0e0001096de0,2021-10-22_13h20.18.573,forced_choiceRT_color,2021.2.3,Win32,144.4251878,j,2.0479,5,0,5,0,1,,,,,,,,,,,,,,,,
,,,,,,,,,,,5aea84c762ac0e0001096de0,2021-10-22_13h20.18.573,forced_choiceRT_color,2021.2.3,Win32,144.4251878,k,2.0604,6,0,6,0,1,,,,,,,,,,,,,,,,
,,,,,,,,,,,5aea84c762ac0e0001096de0,2021-10-22_13h20.18.573,forced_choiceRT_color,2021.2.3,Win32,144.4251878,f,1.9896,7,0,7,0,1,,,,,,,,,,,,,,,,
,,,,,,,,,,,5aea84c762ac0e0001096de0,2021-10-22_13h20.18.573,forced_choiceRT_color,2021.2.3,Win32,144.4251878,d,2.0676,8,0,8,0,1,,,,,,,,,,,,,,,,
,,,,,,,,,,,5aea84c762ac0e0001096de0,2021-10-22_13h20.18.573,forced_choiceRT_color,2021.2.3,Win32,144.4251878,j,2.0743,9,0,9,0,1,,,,,,,,,,,,,,,,
,,,,,,,,,,,5aea84c762ac0e0001096de0,2021-10-22_13h20.18.573,forced_choiceRT_color,2021.2.3,Win32,144.4251878,k,2.0485,10,0,10,0,1,,,,,,,,,,,,,,,,
,,,,,,,,,,,5aea84c762ac0e0001096de0,2021-10-22_13h20.18.573,forced_choiceRT_color,2021.2.3,Win32,144.4251878,j,2.0381,11,0,11,0,1,,,,,,,,,,,,,,,,
,,,,,,,,,,,5aea84c762ac0e0001096de0,2021-10-22_13h20.18.573,forced_choiceRT_color,2021.2.3,Win32,144.4251878,f,1.9843,12,0,12,0,1,,,,,,,,,,,,,,,,
,,,,,,,,,,,5aea84c762ac0e0001096de0,2021-10-22_13h20.18.573,forced_choiceRT_color,2021.2.3,Win32,144.4251878,d,1.9913,13,0,13,0,1,,,,,,,,,,,,,,,,
,,,,,,,,,,,5aea84c762ac0e0001096de0,2021-10-22_13h20.18.573,forced_choiceRT_color,2021.2.3,Win32,144.4251878,f,2.0243,14,0,14,0,1,,,,,,,,,,,,,,,,
,,,,,,,,,,,5aea84c762ac0e0001096de0,2021-10-22_13h20.18.573,forced_choiceRT_color,2021.2.3,Win32,144.4251878,j,2.0405,15,0,15,0,1,,,,,,,,,,,,,,,,
,,,,,,,,,,,5aea84c762ac0e0001096de0,2021-10-22_13h20.18.573,forced_choiceRT_color,2021.2.3,Win32,144.4251878,k,2.0125,16,0,16,0,1,,,,,,,,,,,,,,,,
,,,,,,,,,,,5aea84c762ac0e0001096de0,2021-10-22_13h20.18.573,forced_choiceRT_color,2021.2.3,Win32,144.4251878,f,1.9571,17,0,17,0,1,,,,,,,,,,,,,,,,
,,,,,,,,,,,5aea84c762ac0e0001096de0,2021-10-22_13h20.18.573,forced_choiceRT_color,2021.2.3,Win32,144.4251878,d,1.9613,18,0,18,0,1,,,,,,,,,,,,,,,,
,,,,,,,,,,,5aea84c762ac0e0001096de0,2021-10-22_13h20.18.573,forced_choiceRT_color,2021.2.3,Win32,144.4251878,d,2.0188,19,0,19,0,1,,,,,,,,,,,,,,,,
1.09,,,,,,,,,d,orange,5aea84c762ac0e0001096de0,2021-10-22_13h20.18.573,forced_choiceRT_color,2021.2.3,Win32,144.4251878,,,,,,,,1,Ontime,short,d,1,2.0219,0,0,0,0,1,,,,,
1.84,,,,,,,,,k,purple,5aea84c762ac0e0001096de0,2021-10-22_13h20.18.573,forced_choiceRT_color,2021.2.3,Win32,144.4251878,,,,,,,,1,Ontime,short,d,0,2.0236,0,1,1,3,1,,,,,
0.29,,,,,,,,,j,red,5aea84c762ac0e0001096de0,2021-10-22_13h20.18.573,forced_choiceRT_color,2021.2.3,Win32,144.4251878,,,,,,,,1,Ontime,short,j,1,1.9914,0,2,2,2,1,,,,,
1.53,,,,,,,,,d,orange,5aea84c762ac0e0001096de0,2021-10-22_13h20.18.573,forced_choiceRT_color,2021.2.3,Win32,144.4251878,,,,,,,,1,Ontime,short,d,1,1.9978,0,3,3,0,1,,,,,
0.95,,,,,,,,,d,orange,5aea84c762ac0e0001096de0,2021-10-22_13h20.18.573,forced_choiceRT_color,2021.2.3,Win32,144.4251878,,,,,,,,1,Ontime,short,d,1,2.0615,1,0,4,0,1,,,,,
1.84,,,,,,,,,k,purple,5aea84c762ac0e0001096de0,2021-10-22_13h20.18.573,forced_choiceRT_color,2021.2.3,Win32,144.4251878,,,,,,,,1,Ontime,short,d,0,2.0392,1,1,5,3,1,,,,,
0.52,,,,,,,,,f,blue,5aea84c762ac0e0001096de0,2021-10-22_13h20.18.573,forced_choiceRT_color,2021.2.3,Win32,144.4251878,,,,,,,,1,Ontime,short,k,0,1.9229,1,2,6,1,1,,,,,
1.3,,,,,,,,,f,blue,5aea84c762ac0e0001096de0,2021-10-22_13h20.18.573,forced_choiceRT_color,2021.2.3,Win32,144.4251878,,,,,,,,1,Ontime,short,f,1,1.9285,1,3,7,1,1,,,,,
1.17,,,,,,,,,f,blue,5aea84c762ac0e0001096de0,2021-10-22_13h20.18.573,forced_choiceRT_color,2021.2.3,Win32,144.4251878,,,,,,,,1,Ontime,short,f,1,1.9012,2,0,8,1,1,,,,,
0.25,,,,,,,,,j,red,5aea84c762ac0e0001096de0,2021-10-22_13h20.18.573,forced_choiceRT_color,2021.2.3,Win32,144.4251878,,,,,,,,1,Ontime,short,j,1,1.9721,2,1,9,2,1,,,,,
1.97,,,,,,,,,f,blue,5aea84c762ac0e0001096de0,2021-10-22_13h20.18.573,forced_choiceRT_color,2021.2.3,Win32,144.4251878,,,,,,,,1,Slow,short,d,0,2.1992,2,2,10,1,1,,,,,
0.38,,,,,,,,,f,blue,5aea84c762ac0e0001096de0,2021-10-22_13h20.18.573,forced_choiceRT_color,2021.2.3,Win32,144.4251878,,,,,,,,1,Fast,short,f,1,1.7264,2,3,11,1,1,,,,,
1.61,,,,,,,,,d,orange,5aea84c762ac0e0001096de0,2021-10-22_13h20.18.573,forced_choiceRT_color,2021.2.3,Win32,144.4251878,,,,,,,,1,Slow,short,d,1,2.144,3,0,12,0,1,,,,,
0.1,,,,,,,,,d,orange,5aea84c762ac0e0001096de0,2021-10-22_13h20.18.573,forced_choiceRT_color,2021.2.3,Win32,144.4251878,,,,,,,,1,Ontime,short,d,1,2.0951,3,1,13,0,1,,,,,
0.65,,,,,,,,,k,purple,5aea84c762ac0e0001096de0,2021-10-22_13h20.18.573,forced_choiceRT_color,2021.2.3,Win32,144.4251878,,,,,,,,1,Ontime,short,k,1,2.0327,3,2,14,3,1,,,,,
1.79,,,,,,,,,k,purple,5aea84c762ac0e0001096de0,2021-10-22_13h20.18.573,forced_choiceRT_color,2021.2.3,Win32,144.4251878,,,,,,,,1,Slow,short,k,1,2.262,3,3,15,3,1,,,,,
0,,,,,,,,,j,red,5aea84c762ac0e0001096de0,2021-10-22_13h20.18.573,forced_choiceRT_color,2021.2.3,Win32,144.4251878,,,,,,,,1,Ontime,short,j,1,1.9617,4,0,16,2,1,,,,,
0.12,,,,,,,,,k,purple,5aea84c762ac0e0001096de0,2021-10-22_13h20.18.573,forced_choiceRT_color,2021.2.3,Win32,144.4251878,,,,,,,,1,Ontime,short,k,1,2.0137,4,1,17,3,1,,,,,
1.27,,,,,,,,,j,red,5aea84c762ac0e0001096de0,2021-10-22_13h20.18.573,forced_choiceRT_color,2021.2.3,Win32,144.4251878,,,,,,,,1,Ontime,short,j,1,1.9658,4,2,18,2,1,,,,,
1.15,,,,,,,,,k,purple,5aea84c762ac0e0001096de0,2021-10-22_13h20.18.573,forced_choiceRT_color,2021.2.3,Win32,144.4251878,,,,,,,,1,Fast,short,j,0,0.0985,4,3,19,3,1,,,,,
0.24,,,,,,,,,d,orange,5aea84c762ac0e0001096de0,2021-10-22_13h20.18.573,forced_choiceRT_color,2021.2.3,Win32,144.4251878,,,,,,,,1,Ontime,short,d,1,1.9703,5,0,20,0,1,,,,,
1.27,,,,,,,,,d,orange,5aea84c762ac0e0001096de0,2021-10-22_13h20.18.573,forced_choiceRT_color,2021.2.3,Win32,144.4251878,,,,,,,,1,Ontime,short,d,1,1.9999,5,1,21,0,1,,,,,
0.04,,,,,,,,,j,red,5aea84c762ac0e0001096de0,2021-10-22_13h20.18.573,forced_choiceRT_color,2021.2.3,Win32,144.4251878,,,,,,,,1,Ontime,short,j,1,2.0537,5,2,22,2,1,,,,,
1.74,,,,,,,,,j,red,5aea84c762ac0e0001096de0,2021-10-22_13h20.18.573,forced_choiceRT_color,2021.2.3,Win32,144.4251878,,,,,,,,1,Slow,short,j,1,2.2616,5,3,23,2,1,,,,,
0.91,,,,,,,,,f,blue,5aea84c762ac0e0001096de0,2021-10-22_13h20.18.573,forced_choiceRT_color,2021.2.3,Win32,144.4251878,,,,,,,,1,Ontime,short,f,1,1.9769,6,0,24,1,1,,,,,
1.58,,,,,,,,,k,purple,5aea84c762ac0e0001096de0,2021-10-22_13h20.18.573,forced_choiceRT_color,2021.2.3,Win32,144.4251878,,,,,,,,1,Slow,short,k,1,2.1368,6,1,25,3,1,,,,,
0.16,,,,,,,,,j,red,5aea84c762ac0e0001096de0,2021-10-22_13h20.18.573,forced_choiceRT_color,2021.2.3,Win32,144.4251878,,,,,,,,1,Ontime,short,j,1,2.0386,6,2,26,2,1,,,,,
1.4,,,,,,,,,f,blue,5aea84c762ac0e0001096de0,2021-10-22_13h20.18.573,forced_choiceRT_color,2021.2.3,Win32,144.4251878,,,,,,,,1,Ontime,short,f,1,2.0469,6,3,27,1,1,,,,,
1.75,,,,,,,,,f,blue,5aea84c762ac0e0001096de0,2021-10-22_13h20.18.573,forced_choiceRT_color,2021.2.3,Win32,144.4251878,,,,,,,,1,Slow,short,f,1,2.2681,7,0,28,1,1,,,,,
1.44,,,,,,,,,f,blue,5aea84c762ac0e0001096de0,2021-10-22_13h20.18.573,forced_choiceRT_color,2021.2.3,Win32,144.4251878,,,,,,,,1,Ontime,short,f,1,1.9868,7,1,29,1,1,,,,,
1.53,,,,,,,,,k,purple,5aea84c762ac0e0001096de0,2021-10-22_13h20.18.573,forced_choiceRT_color,2021.2.3,Win32,144.4251878,,,,,,,,1,Ontime,short,k,1,2.0398,7,2,30,3,1,,,,,
0.01,,,,,,,,,k,purple,5aea84c762ac0e0001096de0,2021-10-22_13h20.18.573,forced_choiceRT_color,2021.2.3,Win32,144.4251878,,,,,,,,1,Ontime,short,k,1,2.0978,7,3,31,3,1,,,,,
0.12,,,,,,,,,j,red,5aea84c762ac0e0001096de0,2021-10-22_13h20.18.573,forced_choiceRT_color,2021.2.3,Win32,144.4251878,,,,,,,,1,Ontime,short,j,1,2.0604,8,0,32,2,1,,,,,
1.26,,,,,,,,,d,orange,5aea84c762ac0e0001096de0,2021-10-22_13h20.18.573,forced_choiceRT_color,2021.2.3,Win32,144.4251878,,,,,,,,1,Ontime,short,d,1,2.0536,8,1,33,0,1,,,,,
1.94,,,,,,,,,d,orange,5aea84c762ac0e0001096de0,2021-10-22_13h20.18.573,forced_choiceRT_color,2021.2.3,Win32,144.4251878,,,,,,,,1,Slow,short,d,1,2.1866,8,2,34,0,1,,,,,
0.6,,,,,,,,,j,red,5aea84c762ac0e0001096de0,2021-10-22_13h20.18.573,forced_choiceRT_color,2021.2.3,Win32,144.4251878,,,,,,,,1,Ontime,short,j,1,1.9274,8,3,35,2,1,,,,,
0.8,,,,,,,,,k,purple,5aea84c762ac0e0001096de0,2021-10-22_13h20.18.573,forced_choiceRT_color,2021.2.3,Win32,144.4251878,,,,,,,,1,Ontime,short,k,1,2.0065,9,0,36,3,1,,,,,
0.95,,,,,,,,,f,blue,5aea84c762ac0e0001096de0,2021-10-22_13h20.18.573,forced_choiceRT_color,2021.2.3,Win32,144.4251878,,,,,,,,1,Ontime,short,f,1,2.0052,9,1,37,1,1,,,,,
0.42,,,,,,,,,d,orange,5aea84c762ac0e0001096de0,2021-10-22_13h20.18.573,forced_choiceRT_color,2021.2.3,Win32,144.4251878,,,,,,,,1,Ontime,short,d,1,1.9987,9,2,38,0,1,,,,,
0.25,,,,,,,,,j,red,5aea84c762ac0e0001096de0,2021-10-22_13h20.18.573,forced_choiceRT_color,2021.2.3,Win32,144.4251878,,,,,,,,1,Ontime,short,j,1,1.9567,9,3,39,2,1,,,,,
,,,,,,,,,,,5aea84c762ac0e0001096de0,2021-10-22_13h20.18.573,forced_choiceRT_color,2021.2.3,Win32,144.4251878,,,,,,,,,,,,,,,,,,,0,0,0,0,1
0.82,,,,,,,,,j,red,5aea84c762ac0e0001096de0,2021-10-22_13h20.18.573,forced_choiceRT_color,2021.2.3,Win32,144.4251878,,,,,,,,2,Ontime,short,j,1,1.9818,0,0,0,2,1,,,,,
0.45,,,,,,,,,f,blue,5aea84c762ac0e0001096de0,2021-10-22_13h20.18.573,forced_choiceRT_color,2021.2.3,Win32,144.4251878,,,,,,,,2,Ontime,short,f,1,1.9359,0,1,1,1,1,,,,,
0.67,,,,,,,,,d,orange,5aea84c762ac0e0001096de0,2021-10-22_13h20.18.573,forced_choiceRT_color,2021.2.3,Win32,144.4251878,,,,,,,,2,Ontime,short,d,1,1.9631,0,2,2,0,1,,,,,
0.55,,,,,,,,,d,orange,5aea84c762ac0e0001096de0,2021-10-22_13h20.18.573,forced_choiceRT_color,2021.2.3,Win32,144.4251878,,,,,,,,2,Ontime,short,d,1,1.9847,0,3,3,0,1,,,,,
1.44,,,,,,,,,f,blue,5aea84c762ac0e0001096de0,2021-10-22_13h20.18.573,forced_choiceRT_color,2021.2.3,Win32,144.4251878,,,,,,,,2,Ontime,short,f,1,2.0131,1,0,4,1,1,,,,,
1.51,,,,,,,,,f,blue,5aea84c762ac0e0001096de0,2021-10-22_13h20.18.573,forced_choiceRT_color,2021.2.3,Win32,144.4251878,,,,,,,,2,Ontime,short,f,1,2.0354,1,1,5,1,1,,,,,
0.72,,,,,,,,,f,blue,5aea84c762ac0e0001096de0,2021-10-22_13h20.18.573,forced_choiceRT_color,2021.2.3,Win32,144.4251878,,,,,,,,2,Ontime,short,f,1,2.0051,1,2,6,1,1,,,,,
0.2,,,,,,,,,k,purple,5aea84c762ac0e0001096de0,2021-10-22_13h20.18.573,forced_choiceRT_color,2021.2.3,Win32,144.4251878,,,,,,,,2,Ontime,short,k,1,2.0123,1,3,7,3,1,,,,,
1.16,,,,,,,,,f,blue,5aea84c762ac0e0001096de0,2021-10-22_13h20.18.573,forced_choiceRT_color,2021.2.3,Win32,144.4251878,,,,,,,,2,Ontime,short,f,1,2.0128,2,0,8,1,1,,,,,
0.95,,,,,,,,,d,orange,5aea84c762ac0e0001096de0,2021-10-22_13h20.18.573,forced_choiceRT_color,2021.2.3,Win32,144.4251878,,,,,,,,2,Ontime,short,d,1,2.0191,2,1,9,0,1,,,,,
0.97,,,,,,,,,f,blue,5aea84c762ac0e0001096de0,2021-10-22_13h20.18.573,forced_choiceRT_color,2021.2.3,Win32,144.4251878,,,,,,,,2,Ontime,short,f,1,1.9654,2,2,10,1,1,,,,,
1.02,,,,,,,,,k,purple,5aea84c762ac0e0001096de0,2021-10-22_13h20.18.573,forced_choiceRT_color,2021.2.3,Win32,144.4251878,,,,,,,,2,Ontime,short,k,1,1.9911,2,3,11,3,1,,,,,
0.96,,,,,,,,,d,orange,5aea84c762ac0e0001096de0,2021-10-22_13h20.18.573,forced_choiceRT_color,2021.2.3,Win32,144.4251878,,,,,,,,2,Ontime,short,d,1,1.9633,3,0,12,0,1,,,,,
1.71,,,,,,,,,d,orange,5aea84c762ac0e0001096de0,2021-10-22_13h20.18.573,forced_choiceRT_color,2021.2.3,Win32,144.4251878,,,,,,,,2,Slow,short,d,1,2.2018,3,1,13,0,1,,,,,
1.97,,,,,,,,,k,purple,5aea84c762ac0e0001096de0,2021-10-22_13h20.18.573,forced_choiceRT_color,2021.2.3,Win32,144.4251878,,,,,,,,2,Slow,short,d,0,2.2058,3,2,14,3,1,,,,,
0.88,,,,,,,,,j,red,5aea84c762ac0e0001096de0,2021-10-22_13h20.18.573,forced_choiceRT_color,2021.2.3,Win32,144.4251878,,,,,,,,2,Ontime,short,j,1,2.0454,3,3,15,2,1,,,,,
0.61,,,,,,,,,d,orange,5aea84c762ac0e0001096de0,2021-10-22_13h20.18.573,forced_choiceRT_color,2021.2.3,Win32,144.4251878,,,,,,,,2,Ontime,short,d,1,2.0262,4,0,16,0,1,,,,,
0.93,,,,,,,,,j,red,5aea84c762ac0e0001096de0,2021-10-22_13h20.18.573,forced_choiceRT_color,2021.2.3,Win32,144.4251878,,,,,,,,2,Ontime,short,j,1,2.055,4,1,17,2,1,,,,,
1.04,,,,,,,,,k,purple,5aea84c762ac0e0001096de0,2021-10-22_13h20.18.573,forced_choiceRT_color,2021.2.3,Win32,144.4251878,,,,,,,,2,Ontime,short,k,1,2.0742,4,2,18,3,1,,,,,
0.78,,,,,,,,,d,orange,5aea84c762ac0e0001096de0,2021-10-22_13h20.18.573,forced_choiceRT_color,2021.2.3,Win32,144.4251878,,,,,,,,2,Slow,short,d,1,2.1304,4,3,19,0,1,,,,,
0.51,,,,,,,,,j,red,5aea84c762ac0e0001096de0,2021-10-22_13h20.18.573,forced_choiceRT_color,2021.2.3,Win32,144.4251878,,,,,,,,2,Ontime,short,j,1,2.0056,5,0,20,2,1,,,,,
0.37,,,,,,,,,j,red,5aea84c762ac0e0001096de0,2021-10-22_13h20.18.573,forced_choiceRT_color,2021.2.3,Win32,144.4251878,,,,,,,,2,Ontime,short,j,1,1.9857,5,1,21,2,1,,,,,
0.02,,,,,,,,,k,purple,5aea84c762ac0e0001096de0,2021-10-22_13h20.18.573,forced_choiceRT_color,2021.2.3,Win32,144.4251878,,,,,,,,2,Ontime,short,k,1,2.0812,5,2,22,3,1,,,,,
1.6,,,,,,,,,k,purple,5aea84c762ac0e0001096de0,2021-10-22_13h20.18.573,forced_choiceRT_color,2021.2.3,Win32,144.4251878,,,,,,,,2,Slow,short,k,1,2.1576,5,3,23,3,1,,,,,
1.97,,,,,,,,,d,orange,5aea84c762ac0e0001096de0,2021-10-22_13h20.18.573,forced_choiceRT_color,2021.2.3,Win32,144.4251878,,,,,,,,2,Slow,short,d,1,2.1507,6,0,24,0,1,,,,,
0.66,,,,,,,,,d,orange,5aea84c762ac0e0001096de0,2021-10-22_13h20.18.573,forced_choiceRT_color,2021.2.3,Win32,144.4251878,,,,,,,,2,Ontime,short,d,1,1.9275,6,1,25,0,1,,,,,
0.31,,,,,,,,,k,purple,5aea84c762ac0e0001096de0,2021-10-22_13h20.18.573,forced_choiceRT_color,2021.2.3,Win32,144.4251878,,,,,,,,2,Ontime,short,k,1,2.0121,6,2,26,3,1,,,,,
1.62,,,,,,,,,f,blue,5aea84c762ac0e0001096de0,2021-10-22_13h20.18.573,forced_choiceRT_color,2021.2.3,Win32,144.4251878,,,,,,,,2,Slow,short,f,1,2.1022,6,3,27,1,1,,,,,
1.53,,,,,,,,,j,red,5aea84c762ac0e0001096de0,2021-10-22_13h20.18.573,forced_choiceRT_color,2021.2.3,Win32,144.4251878,,,,,,,,2,Ontime,short,j,1,2.0329,7,0,28,2,1,,,,,
0.95,,,,,,,,,d,orange,5aea84c762ac0e0001096de0,2021-10-22_13h20.18.573,forced_choiceRT_color,2021.2.3,Win32,144.4251878,,,,,,,,2,Ontime,short,d,1,1.9911,7,1,29,0,1,,,,,
1.37,,,,,,,,,j,red,5aea84c762ac0e0001096de0,2021-10-22_13h20.18.573,forced_choiceRT_color,2021.2.3,Win32,144.4251878,,,,,,,,2,Slow,short,j,1,2.1646,7,2,30,2,1,,,,,
1.36,,,,,,,,,j,red,5aea84c762ac0e0001096de0,2021-10-22_13h20.18.573,forced_choiceRT_color,2021.2.3,Win32,144.4251878,,,,,,,,2,Ontime,short,j,1,2.005,7,3,31,2,1,,,,,
0.89,,,,,,,,,j,red,5aea84c762ac0e0001096de0,2021-10-22_13h20.18.573,forced_choiceRT_color,2021.2.3,Win32,144.4251878,,,,,,,,2,Ontime,short,j,1,2.0401,8,0,32,2,1,,,,,
0.36,,,,,,,,,k,purple,5aea84c762ac0e0001096de0,2021-10-22_13h20.18.573,forced_choiceRT_color,2021.2.3,Win32,144.4251878,,,,,,,,2,Ontime,short,k,1,2.033,8,1,33,3,1,,,,,
1.6,,,,,,,,,f,blue,5aea84c762ac0e0001096de0,2021-10-22_13h20.18.573,forced_choiceRT_color,2021.2.3,Win32,144.4251878,,,,,,,,2,Slow,short,f,1,2.1216,8,2,34,1,1,,,,,
1.26,,,,,,,,,k,purple,5aea84c762ac0e0001096de0,2021-10-22_13h20.18.573,forced_choiceRT_color,2021.2.3,Win32,144.4251878,,,,,,,,2,Ontime,short,k,1,2.0537,8,3,35,3,1,,,,,
0.98,,,,,,,,,k,purple,5aea84c762ac0e0001096de0,2021-10-22_13h20.18.573,forced_choiceRT_color,2021.2.3,Win32,144.4251878,,,,,,,,2,Ontime,short,k,1,2.0397,9,0,36,3,1,,,,,
0.34,,,,,,,,,f,blue,5aea84c762ac0e0001096de0,2021-10-22_13h20.18.573,forced_choiceRT_color,2021.2.3,Win32,144.4251878,,,,,,,,2,Ontime,short,f,1,2.0766,9,1,37,1,1,,,,,
0.26,,,,,,,,,j,red,5aea84c762ac0e0001096de0,2021-10-22_13h20.18.573,forced_choiceRT_color,2021.2.3,Win32,144.4251878,,,,,,,,2,Slow,short,j,1,2.1032,9,2,38,2,1,,,,,
0.7,,,,,,,,,f,blue,5aea84c762ac0e0001096de0,2021-10-22_13h20.18.573,forced_choiceRT_color,2021.2.3,Win32,144.4251878,,,,,,,,2,Ontime,short,f,1,2.0465,9,3,39,1,1,,,,,
,,,,,,,,,,,5aea84c762ac0e0001096de0,2021-10-22_13h20.18.573,forced_choiceRT_color,2021.2.3,Win32,144.4251878,,,,,,,,,,,,,,,,,,,1,0,1,0,1
0.08,,,,,,,,,k,purple,5aea84c762ac0e0001096de0,2021-10-22_13h20.18.573,forced_choiceRT_color,2021.2.3,Win32,144.4251878,,,,,,,,3,Ontime,short,k,1,2.0286,0,0,0,3,1,,,,,
1.33,,,,,,,,,j,red,5aea84c762ac0e0001096de0,2021-10-22_13h20.18.573,forced_choiceRT_color,2021.2.3,Win32,144.4251878,,,,,,,,3,Ontime,short,j,1,2.0554,0,1,1,2,1,,,,,
0.26,,,,,,,,,f,blue,5aea84c762ac0e0001096de0,2021-10-22_13h20.18.573,forced_choiceRT_color,2021.2.3,Win32,144.4251878,,,,,,,,3,Ontime,short,f,1,2.0274,0,2,2,1,1,,,,,
0.76,,,,,,,,,d,orange,5aea84c762ac0e0001096de0,2021-10-22_13h20.18.573,forced_choiceRT_color,2021.2.3,Win32,144.4251878,,,,,,,,3,Ontime,short,d,1,1.9517,0,3,3,0,1,,,,,
0.76,,,,,,,,,d,orange,5aea84c762ac0e0001096de0,2021-10-22_13h20.18.573,forced_choiceRT_color,2021.2.3,Win32,144.4251878,,,,,,,,3,Ontime,short,d,1,1.989,1,0,4,0,1,,,,,
0.23,,,,,,,,,d,orange,5aea84c762ac0e0001096de0,2021-10-22_13h20.18.573,forced_choiceRT_color,2021.2.3,Win32,144.4251878,,,,,,,,3,Ontime,short,d,1,2.0266,1,1,5,0,1,,,,,
1.78,,,,,,,,,j,red,5aea84c762ac0e0001096de0,2021-10-22_13h20.18.573,forced_choiceRT_color,2021.2.3,Win32,144.4251878,,,,,,,,3,Slow,short,j,1,2.2247,1,2,6,2,1,,,,,
0.15,,,,,,,,,j,red,5aea84c762ac0e0001096de0,2021-10-22_13h20.18.573,forced_choiceRT_color,2021.2.3,Win32,144.4251878,,,,,,,,3,Ontime,short,j,1,2.0187,1,3,7,2,1,,,,,
1.43,,,,,,,,,j,red,5aea84c762ac0e0001096de0,2021-10-22_13h20.18.573,forced_choiceRT_color,2021.2.3,Win32,144.4251878,,,,,,,,3,Slow,short,j,1,2.138,2,0,8,2,1,,,,,
1.42,,,,,,,,,k,purple,5aea84c762ac0e0001096de0,2021-10-22_13h20.18.573,forced_choiceRT_color,2021.2.3,Win32,144.4251878,,,,,,,,3,Ontime,short,k,1,1.9427,2,1,9,3,1,,,,,
1.33,,,,,,,,,f,blue,5aea84c762ac0e0001096de0,2021-10-22_13h20.18.573,forced_choiceRT_color,2021.2.3,Win32,144.4251878,,,,,,,,3,Ontime,short,f,1,2.0702,2,2,10,1,1,,,,,
0.25,,,,,,,,,f,blue,5aea84c762ac0e0001096de0,2021-10-22_13h20.18.573,forced_choiceRT_color,2021.2.3,Win32,144.4251878,,,,,,,,3,Ontime,short,f,1,1.9288,2,3,11,1,1,,,,,
0.11,,,,,,,,,j,red,5aea84c762ac0e0001096de0,2021-10-22_13h20.18.573,forced_choiceRT_color,2021.2.3,Win32,144.4251878,,,,,,,,3,Ontime,short,j,1,2.0055,3,0,12,2,1,,,,,
0.35,,,,,,,,,f,blue,5aea84c762ac0e0001096de0,2021-10-22_13h20.18.573,forced_choiceRT_color,2021.2.3,Win32,144.4251878,,,,,,,,3,Ontime,short,f,1,2.0535,3,1,13,1,1,,,,,
0.24,,,,,,,,,j,red,5aea84c762ac0e0001096de0,2021-10-22_13h20.18.573,forced_choiceRT_color,2021.2.3,Win32,144.4251878,,,,,,,,3,Ontime,short,j,1,1.9496,3,2,14,2,1,,,,,
0.25,,,,,,,,,d,orange,5aea84c762ac0e0001096de0,2021-10-22_13h20.18.573,forced_choiceRT_color,2021.2.3,Win32,144.4251878,,,,,,,,3,Ontime,short,d,1,1.9217,3,3,15,0,1,,,,,
1.61,,,,,,,,,f,blue,5aea84c762ac0e0001096de0,2021-10-22_13h20.18.573,forced_choiceRT_color,2021.2.3,Win32,144.4251878,,,,,,,,3,Slow,short,f,1,2.1437,4,0,16,1,1,,,,,
0.92,,,,,,,,,f,blue,5aea84c762ac0e0001096de0,2021-10-22_13h20.18.573,forced_choiceRT_color,2021.2.3,Win32,144.4251878,,,,,,,,3,Ontime,short,f,1,1.9773,4,1,17,1,1,,,,,
1.56,,,,,,,,,d,orange,5aea84c762ac0e0001096de0,2021-10-22_13h20.18.573,forced_choiceRT_color,2021.2.3,Win32,144.4251878,,,,,,,,3,Ontime,short,d,1,2.0489,4,2,18,0,1,,,,,
0.75,,,,,,,,,k,purple,5aea84c762ac0e0001096de0,2021-10-22_13h20.18.573,forced_choiceRT_color,2021.2.3,Win32,144.4251878,,,,,,,,3,Ontime,short,k,1,1.9564,4,3,19,3,1,,,,,
1.97,,,,,,,,,k,purple,5aea84c762ac0e0001096de0,2021-10-22_13h20.18.573,forced_choiceRT_color,2021.2.3,Win32,144.4251878,,,,,,,,3,Slow,short,d,0,2.2201,5,0,20,3,1,,,,,
1.54,,,,,,,,,f,blue,5aea84c762ac0e0001096de0,2021-10-22_13h20.18.573,forced_choiceRT_color,2021.2.3,Win32,144.4251878,,,,,,,,3,Ontime,short,f,1,1.9994,5,1,21,1,1,,,,,
0.04,,,,,,,,,k,purple,5aea84c762ac0e0001096de0,2021-10-22_13h20.18.573,forced_choiceRT_color,2021.2.3,Win32,144.4251878,,,,,,,,3,Ontime,short,k,1,2.033,5,2,22,3,1,,,,,
0.71,,,,,,,,,d,orange,5aea84c762ac0e0001096de0,2021-10-22_13h20.18.573,forced_choiceRT_color,2021.2.3,Win32,144.4251878,,,,,,,,3,Ontime,short,d,1,2.0118,5,3,23,0,1,,,,,
0.78,,,,,,,,,k,purple,5aea84c762ac0e0001096de0,2021-10-22_13h20.18.573,forced_choiceRT_color,2021.2.3,Win32,144.4251878,,,,,,,,3,Ontime,short,k,1,2.0331,6,0,24,3,1,,,,,
1.23,,,,,,,,,j,red,5aea84c762ac0e0001096de0,2021-10-22_13h20.18.573,forced_choiceRT_color,2021.2.3,Win32,144.4251878,,,,,,,,3,Ontime,short,j,1,1.9936,6,1,25,2,1,,,,,
1.75,,,,,,,,,k,purple,5aea84c762ac0e0001096de0,2021-10-22_13h20.18.573,forced_choiceRT_color,2021.2.3,Win32,144.4251878,,,,,,,,3,Ontime,short,j,0,2.0341,6,2,26,3,1,,,,,
0.62,,,,,,,,,d,orange,5aea84c762ac0e0001096de0,2021-10-22_13h20.18.573,forced_choiceRT_color,2021.2.3,Win32,144.4251878,,,,,,,,3,Ontime,short,d,1,2.0002,6,3,27,0,1,,,,,
1.93,,,,,,,,,d,orange,5aea84c762ac0e0001096de0,2021-10-22_13h20.18.573,forced_choiceRT_color,2021.2.3,Win32,144.4251878,,,,,,,,3,Slow,short,d,1,2.2134,7,0,28,0,1,,,,,
1.87,,,,,,,,,k,purple,5aea84c762ac0e0001096de0,2021-10-22_13h20.18.573,forced_choiceRT_color,2021.2.3,Win32,144.4251878,,,,,,,,3,Slow,short,d,0,2.1161,7,1,29,3,1,,,,,
1.35,,,,,,,,,d,orange,5aea84c762ac0e0001096de0,2021-10-22_13h20.18.573,forced_choiceRT_color,2021.2.3,Win32,144.4251878,,,,,,,,3,Ontime,short,d,1,1.9295,7,2,30,0,1,,,,,
1.86,,,,,,,,,j,red,5aea84c762ac0e0001096de0,2021-10-22_13h20.18.573,forced_choiceRT_color,2021.2.3,Win32,144.4251878,,,,,,,,3,Slow,short,f,0,2.2408,7,3,31,2,1,,,,,
1.88,,,,,,,,,f,blue,5aea84c762ac0e0001096de0,2021-10-22_13h20.18.573,forced_choiceRT_color,2021.2.3,Win32,144.4251878,,,,,,,,3,Slow,short,j,0,2.1003,8,0,32,1,1,,,,,
1.86,,,,,,,,,d,orange,5aea84c762ac0e0001096de0,2021-10-22_13h20.18.573,forced_choiceRT_color,2021.2.3,Win32,144.4251878,,,,,,,,3,Slow,short,d,1,2.2225,8,1,33,0,1,,,,,
1.48,,,,,,,,,f,blue,5aea84c762ac0e0001096de0,2021-10-22_13h20.18.573,forced_choiceRT_color,2021.2.3,Win32,144.4251878,,,,,,,,3,Slow,short,j,0,2.1005,8,2,34,1,1,,,,,
1,,,,,,,,,j,red,5aea84c762ac0e0001096de0,2021-10-22_13h20.18.573,forced_choiceRT_color,2021.2.3,Win32,144.4251878,,,,,,,,3,Ontime,short,j,1,1.9218,8,3,35,2,1,,,,,
1.02,,,,,,,,,j,red,5aea84c762ac0e0001096de0,2021-10-22_13h20.18.573,forced_choiceRT_color,2021.2.3,Win32,144.4251878,,,,,,,,3,Ontime,short,j,1,2.0006,9,0,36,2,1,,,,,
0.21,,,,,,,,,k,purple,5aea84c762ac0e0001096de0,2021-10-22_13h20.18.573,forced_choiceRT_color,2021.2.3,Win32,144.4251878,,,,,,,,3,Ontime,short,k,1,2.0052,9,1,37,3,1,,,,,
0.33,,,,,,,,,k,purple,5aea84c762ac0e0001096de0,2021-10-22_13h20.18.573,forced_choiceRT_color,2021.2.3,Win32,144.4251878,,,,,,,,3,Ontime,short,k,1,1.9459,9,2,38,3,1,,,,,
0.07,,,,,,,,,f,blue,5aea84c762ac0e0001096de0,2021-10-22_13h20.18.573,forced_choiceRT_color,2021.2.3,Win32,144.4251878,,,,,,,,3,Ontime,short,f,1,2.0056,9,3,39,1,1,,,,,
,,,,,,,,,,,5aea84c762ac0e0001096de0,2021-10-22_13h20.18.573,forced_choiceRT_color,2021.2.3,Win32,144.4251878,,,,,,,,,,,,,,,,,,,2,0,2,0,1
1.95,,,,,,,,,f,blue,5aea84c762ac0e0001096de0,2021-10-22_13h20.18.573,forced_choiceRT_color,2021.2.3,Win32,144.4251878,,,,,,,,4,Slow,short,j,0,2.3958,0,0,0,1,1,,,,,
1.78,,,,,,,,,k,purple,5aea84c762ac0e0001096de0,2021-10-22_13h20.18.573,forced_choiceRT_color,2021.2.3,Win32,144.4251878,,,,,,,,4,Ontime,short,k,1,2.056,0,1,1,3,1,,,,,
1.63,,,,,,,,,k,purple,5aea84c762ac0e0001096de0,2021-10-22_13h20.18.573,forced_choiceRT_color,2021.2.3,Win32,144.4251878,,,,,,,,4,Slow,short,k,1,2.109,0,2,2,3,1,,,,,
1.42,,,,,,,,,d,orange,5aea84c762ac0e0001096de0,2021-10-22_13h20.18.573,forced_choiceRT_color,2021.2.3,Win32,144.4251878,,,,,,,,4,Ontime,short,d,1,1.9428,0,3,3,0,1,,,,,
0.59,,,,,,,,,f,blue,5aea84c762ac0e0001096de0,2021-10-22_13h20.18.573,forced_choiceRT_color,2021.2.3,Win32,144.4251878,,,,,,,,4,Ontime,short,f,1,1.9593,1,0,4,1,1,,,,,
1.49,,,,,,,,,f,blue,5aea84c762ac0e0001096de0,2021-10-22_13h20.18.573,forced_choiceRT_color,2021.2.3,Win32,144.4251878,,,,,,,,4,Ontime,short,f,1,2.0954,1,1,5,1,1,,,,,
1.25,,,,,,,,,j,red,5aea84c762ac0e0001096de0,2021-10-22_13h20.18.573,forced_choiceRT_color,2021.2.3,Win32,144.4251878,,,,,,,,4,Ontime,short,j,1,1.9859,1,2,6,2,1,,,,,
0.83,,,,,,,,,k,purple,5aea84c762ac0e0001096de0,2021-10-22_13h20.18.573,forced_choiceRT_color,2021.2.3,Win32,144.4251878,,,,,,,,4,Ontime,short,k,1,2.0213,1,3,7,3,1,,,,,
1.4,,,,,,,,,d,orange,5aea84c762ac0e0001096de0,2021-10-22_13h20.18.573,forced_choiceRT_color,2021.2.3,Win32,144.4251878,,,,,,,,4,Ontime,short,d,1,1.9424,2,0,8,0,1,,,,,
1.64,,,,,,,,,d,orange,5aea84c762ac0e0001096de0,2021-10-22_13h20.18.573,forced_choiceRT_color,2021.2.3,Win32,144.4251878,,,,,,,,4,Ontime,short,d,1,2.0265,2,1,9,0,1,,,,,
0.5,,,,,,,,,k,purple,5aea84c762ac0e0001096de0,2021-10-22_13h20.18.573,forced_choiceRT_color,2021.2.3,Win32,144.4251878,,,,,,,,4,Ontime,short,k,1,2.0096,2,2,10,3,1,,,,,
0.94,,,,,,,,,d,orange,5aea84c762ac0e0001096de0,2021-10-22_13h20.18.573,forced_choiceRT_color,2021.2.3,Win32,144.4251878,,,,,,,,4,Ontime,short,d,1,1.9564,2,3,11,0,1,,,,,
1.14,,,,,,,,,k,purple,5aea84c762ac0e0001096de0,2021-10-22_13h20.18.573,forced_choiceRT_color,2021.2.3,Win32,144.4251878,,,,,,,,4,Ontime,short,k,1,2.0122,3,0,12,3,1,,,,,
0.95,,,,,,,,,j,red,5aea84c762ac0e0001096de0,2021-10-22_13h20.18.573,forced_choiceRT_color,2021.2.3,Win32,144.4251878,,,,,,,,4,Ontime,short,j,1,1.9229,3,1,13,2,1,,,,,
0.77,,,,,,,,,f,blue,5aea84c762ac0e0001096de0,2021-10-22_13h20.18.573,forced_choiceRT_color,2021.2.3,Win32,144.4251878,,,,,,,,4,Ontime,short,f,1,1.9008,3,2,14,1,1,,,,,
0.67,,,,,,,,,f,blue,5aea84c762ac0e0001096de0,2021-10-22_13h20.18.573,forced_choiceRT_color,2021.2.3,Win32,144.4251878,,,,,,,,4,Ontime,short,f,1,1.9358,3,3,15,1,1,,,,,
0.58,,,,,,,,,j,red,5aea84c762ac0e0001096de0,2021-10-22_13h20.18.573,forced_choiceRT_color,2021.2.3,Win32,144.4251878,,,,,,,,4,Fast,short,j,1,1.853,4,0,16,2,1,,,,,
0.51,,,,,,,,,k,purple,5aea84c762ac0e0001096de0,2021-10-22_13h20.18.573,forced_choiceRT_color,2021.2.3,Win32,144.4251878,,,,,,,,4,Ontime,short,k,1,2.0376,4,1,17,3,1,,,,,
1.69,,,,,,,,,j,red,5aea84c762ac0e0001096de0,2021-10-22_13h20.18.573,forced_choiceRT_color,2021.2.3,Win32,144.4251878,,,,,,,,4,Slow,short,j,1,2.1943,4,2,18,2,1,,,,,
1.44,,,,,,,,,j,red,5aea84c762ac0e0001096de0,2021-10-22_13h20.18.573,forced_choiceRT_color,2021.2.3,Win32,144.4251878,,,,,,,,4,Ontime,short,j,1,2.0397,4,3,19,2,1,,,,,
1.89,,,,,,,,,j,red,5aea84c762ac0e0001096de0,2021-10-22_13h20.18.573,forced_choiceRT_color,2021.2.3,Win32,144.4251878,,,,,,,,4,Slow,short,j,1,2.2825,5,0,20,2,1,,,,,
1.24,,,,,,,,,j,red,5aea84c762ac0e0001096de0,2021-10-22_13h20.18.573,forced_choiceRT_color,2021.2.3,Win32,144.4251878,,,,,,,,4,Ontime,short,j,1,1.922,5,1,21,2,1,,,,,
0,,,,,,,,,f,blue,5aea84c762ac0e0001096de0,2021-10-22_13h20.18.573,forced_choiceRT_color,2021.2.3,Win32,144.4251878,,,,,,,,4,Ontime,short,f,1,1.9015,5,2,22,1,1,,,,,
0.43,,,,,,,,,d,orange,5aea84c762ac0e0001096de0,2021-10-22_13h20.18.573,forced_choiceRT_color,2021.2.3,Win32,144.4251878,,,,,,,,4,Ontime,short,d,1,1.9453,5,3,23,0,1,,,,,
0.65,,,,,,,,,f,blue,5aea84c762ac0e0001096de0,2021-10-22_13h20.18.573,forced_choiceRT_color,2021.2.3,Win32,144.4251878,,,,,,,,4,Fast,short,f,1,1.8667,6,0,24,1,1,,,,,
1.39,,,,,,,,,j,red,5aea84c762ac0e0001096de0,2021-10-22_13h20.18.573,forced_choiceRT_color,2021.2.3,Win32,144.4251878,,,,,,,,4,Ontime,short,j,1,1.9725,6,1,25,2,1,,,,,
1.36,,,,,,,,,k,purple,5aea84c762ac0e0001096de0,2021-10-22_13h20.18.573,forced_choiceRT_color,2021.2.3,Win32,144.4251878,,,,,,,,4,Fast,short,k,1,1.8734,6,2,26,3,1,,,,,
0.77,,,,,,,,,k,purple,5aea84c762ac0e0001096de0,2021-10-22_13h20.18.573,forced_choiceRT_color,2021.2.3,Win32,144.4251878,,,,,,,,4,Ontime,short,k,1,2.0172,6,3,27,3,1,,,,,
0.24,,,,,,,,,f,blue,5aea84c762ac0e0001096de0,2021-10-22_13h20.18.573,forced_choiceRT_color,2021.2.3,Win32,144.4251878,,,,,,,,4,Ontime,short,f,1,1.9423,7,0,28,1,1,,,,,
1.19,,,,,,,,,d,orange,5aea84c762ac0e0001096de0,2021-10-22_13h20.18.573,forced_choiceRT_color,2021.2.3,Win32,144.4251878,,,,,,,,4,Ontime,short,d,1,1.9358,7,1,29,0,1,,,,,
0.67,,,,,,,,,f,blue,5aea84c762ac0e0001096de0,2021-10-22_13h20.18.573,forced_choiceRT_color,2021.2.3,Win32,144.4251878,,,,,,,,4,Ontime,short,f,1,1.9245,7,2,30,1,1,,,,,
1.52,,,,,,,,,k,purple,5aea84c762ac0e0001096de0,2021-10-22_13h20.18.573,forced_choiceRT_color,2021.2.3,Win32,144.4251878,,,,,,,,4,Ontime,short,k,1,1.9774,7,3,31,3,1,,,,,
1.34,,,,,,,,,f,blue,5aea84c762ac0e0001096de0,2021-10-22_13h20.18.573,forced_choiceRT_color,2021.2.3,Win32,144.4251878,,,,,,,,4,Fast,short,f,1,1.839,8,0,32,1,1,,,,,
0.09,,,,,,,,,d,orange,5aea84c762ac0e0001096de0,2021-10-22_13h20.18.573,forced_choiceRT_color,2021.2.3,Win32,144.4251878,,,,,,,,4,Ontime,short,d,1,2.0465,8,1,33,0,1,,,,,
1.09,,,,,,,,,j,red,5aea84c762ac0e0001096de0,2021-10-22_13h20.18.573,forced_choiceRT_color,2021.2.3,Win32,144.4251878,,,,,,,,4,Ontime,short,j,1,1.9842,8,2,34,2,1,,,,,
1.86,,,,,,,,,d,orange,5aea84c762ac0e0001096de0,2021-10-22_13h20.18.573,forced_choiceRT_color,2021.2.3,Win32,144.4251878,,,,,,,,4,Slow,short,f,0,2.1438,8,3,35,0,1,,,,,
1.61,,,,,,,,,d,orange,5aea84c762ac0e0001096de0,2021-10-22_13h20.18.573,forced_choiceRT_color,2021.2.3,Win32,144.4251878,,,,,,,,4,Ontime,short,d,1,2.0429,9,0,36,0,1,,,,,
0.29,,,,,,,,,j,red,5aea84c762ac0e0001096de0,2021-10-22_13h20.18.573,forced_choiceRT_color,2021.2.3,Win32,144.4251878,,,,,,,,4,Ontime,short,j,1,2.0055,9,1,37,2,1,,,,,
0.71,,,,,,,,,d,orange,5aea84c762ac0e0001096de0,2021-10-22_13h20.18.573,forced_choiceRT_color,2021.2.3,Win32,144.4251878,,,,,,,,4,Ontime,short,d,1,1.9432,9,2,38,0,1,,,,,
0.12,,,,,,,,,k,purple,5aea84c762ac0e0001096de0,2021-10-22_13h20.18.573,forced_choiceRT_color,2021.2.3,Win32,144.4251878,,,,,,,,4,Fast,short,k,1,1.8387,9,3,39,3,1,,,,,
,,,,,,,,,,,5aea84c762ac0e0001096de0,2021-10-22_13h20.18.573,forced_choiceRT_color,2021.2.3,Win32,144.4251878,,,,,,,,,,,,,,,,,,,3,0,3,0,1
0.64,,,,,,,,,k,purple,5aea84c762ac0e0001096de0,2021-10-22_13h20.18.573,forced_choiceRT_color,2021.2.3,Win32,144.4251878,,,,,,,,5,Ontime,short,k,1,2.0542,0,0,0,3,1,,,,,
0.12,,,,,,,,,f,blue,5aea84c762ac0e0001096de0,2021-10-22_13h20.18.573,forced_choiceRT_color,2021.2.3,Win32,144.4251878,,,,,,,,5,Ontime,short,f,1,1.9724,0,1,1,1,1,,,,,
0.39,,,,,,,,,f,blue,5aea84c762ac0e0001096de0,2021-10-22_13h20.18.573,forced_choiceRT_color,2021.2.3,Win32,144.4251878,,,,,,,,5,Ontime,short,f,1,1.9357,0,2,2,1,1,,,,,
1.16,,,,,,,,,j,red,5aea84c762ac0e0001096de0,2021-10-22_13h20.18.573,forced_choiceRT_color,2021.2.3,Win32,144.4251878,,,,,,,,5,Ontime,short,j,1,1.9248,0,3,3,2,1,,,,,
0.12,,,,,,,,,k,purple,5aea84c762ac0e0001096de0,2021-10-22_13h20.18.573,forced_choiceRT_color,2021.2.3,Win32,144.4251878,,,,,,,,5,Fast,short,k,1,1.8683,1,0,4,3,1,,,,,
0.37,,,,,,,,,d,orange,5aea84c762ac0e0001096de0,2021-10-22_13h20.18.573,forced_choiceRT_color,2021.2.3,Win32,144.4251878,,,,,,,,5,Ontime,short,d,1,1.9565,1,1,5,0,1,,,,,
0.38,,,,,,,,,j,red,5aea84c762ac0e0001096de0,2021-10-22_13h20.18.573,forced_choiceRT_color,2021.2.3,Win32,144.4251878,,,,,,,,5,Ontime,short,j,1,1.9874,1,2,6,2,1,,,,,
0.2,,,,,,,,,d,orange,5aea84c762ac0e0001096de0,2021-10-22_13h20.18.573,forced_choiceRT_color,2021.2.3,Win32,144.4251878,,,,,,,,5,Ontime,short,d,1,1.9777,1,3,7,0,1,,,,,
0.79,,,,,,,,,k,purple,5aea84c762ac0e0001096de0,2021-10-22_13h20.18.573,forced_choiceRT_color,2021.2.3,Win32,144.4251878,,,,,,,,5,Ontime,short,k,1,1.9706,2,0,8,3,1,,,,,
0.84,,,,,,,,,k,purple,5aea84c762ac0e0001096de0,2021-10-22_13h20.18.573,forced_choiceRT_color,2021.2.3,Win32,144.4251878,,,,,,,,5,Ontime,short,k,1,1.9179,2,1,9,3,1,,,,,
0.9,,,,,,,,,f,blue,5aea84c762ac0e0001096de0,2021-10-22_13h20.18.573,forced_choiceRT_color,2021.2.3,Win32,144.4251878,,,,,,,,5,Fast,short,f,1,1.887,2,2,10,1,1,,,,,
1.35,,,,,,,,,f,blue,5aea84c762ac0e0001096de0,2021-10-22_13h20.18.573,forced_choiceRT_color,2021.2.3,Win32,144.4251878,,,,,,,,5,Ontime,short,f,1,1.9772,2,3,11,1,1,,,,,
1.7,,,,,,,,,f,blue,5aea84c762ac0e0001096de0,2021-10-22_13h20.18.573,forced_choiceRT_color,2021.2.3,Win32,144.4251878,,,,,,,,5,Slow,short,f,1,2.1785,3,0,12,1,1,,,,,
1.42,,,,,,,,,d,orange,5aea84c762ac0e0001096de0,2021-10-22_13h20.18.573,forced_choiceRT_color,2021.2.3,Win32,144.4251878,,,,,,,,5,Ontime,short,d,1,1.9156,3,1,13,0,1,,,,,
0.9,,,,,,,,,j,red,5aea84c762ac0e0001096de0,2021-10-22_13h20.18.573,forced_choiceRT_color,2021.2.3,Win32,144.4251878,,,,,,,,5,Ontime,short,j,1,1.9078,3,2,14,2,1,,,,,
0.42,,,,,,,,,d,orange,5aea84c762ac0e0001096de0,2021-10-22_13h20.18.573,forced_choiceRT_color,2021.2.3,Win32,144.4251878,,,,,,,,5,Ontime,short,d,1,1.9923,3,3,15,0,1,,,,,
1.43,,,,,,,,,d,orange,5aea84c762ac0e0001096de0,2021-10-22_13h20.18.573,forced_choiceRT_color,2021.2.3,Win32,144.4251878,,,,,,,,5,Slow,short,d,1,2.1372,4,0,16,0,1,,,,,
0.88,,,,,,,,,f,blue,5aea84c762ac0e0001096de0,2021-10-22_13h20.18.573,forced_choiceRT_color,2021.2.3,Win32,144.4251878,,,,,,,,5,Ontime,short,f,1,1.9428,4,1,17,1,1,,,,,
0.27,,,,,,,,,k,purple,5aea84c762ac0e0001096de0,2021-10-22_13h20.18.573,forced_choiceRT_color,2021.2.3,Win32,144.4251878,,,,,,,,5,Fast,short,k,1,1.8593,4,2,18,3,1,,,,,
1.95,,,,,,,,,k,purple,5aea84c762ac0e0001096de0,2021-10-22_13h20.18.573,forced_choiceRT_color,2021.2.3,Win32,144.4251878,,,,,,,,5,Slow,short,k,1,2.1714,4,3,19,3,1,,,,,
0.68,,,,,,,,,d,orange,5aea84c762ac0e0001096de0,2021-10-22_13h20.18.573,forced_choiceRT_color,2021.2.3,Win32,144.4251878,,,,,,,,5,Ontime,short,d,1,2.0536,5,0,20,0,1,,,,,
0.39,,,,,,,,,d,orange,5aea84c762ac0e0001096de0,2021-10-22_13h20.18.573,forced_choiceRT_color,2021.2.3,Win32,144.4251878,,,,,,,,5,Fast,short,d,1,1.8458,5,1,21,0,1,,,,,
0.96,,,,,,,,,j,red,5aea84c762ac0e0001096de0,2021-10-22_13h20.18.573,forced_choiceRT_color,2021.2.3,Win32,144.4251878,,,,,,,,5,Ontime,short,j,1,1.9845,5,2,22,2,1,,,,,
1.17,,,,,,,,,k,purple,5aea84c762ac0e0001096de0,2021-10-22_13h20.18.573,forced_choiceRT_color,2021.2.3,Win32,144.4251878,,,,,,,,5,Ontime,short,k,1,2.0399,5,3,23,3,1,,,,,
1.65,,,,,,,,,k,purple,5aea84c762ac0e0001096de0,2021-10-22_13h20.18.573,forced_choiceRT_color,2021.2.3,Win32,144.4251878,,,,,,,,5,Slow,short,k,1,2.2847,6,0,24,3,1,,,,,
1.04,,,,,,,,,j,red,5aea84c762ac0e0001096de0,2021-10-22_13h20.18.573,forced_choiceRT_color,2021.2.3,Win32,144.4251878,,,,,,,,5,Fast,short,j,1,1.8861,6,1,25,2,1,,,,,
1.29,,,,,,,,,k,purple,5aea84c762ac0e0001096de0,2021-10-22_13h20.18.573,forced_choiceRT_color,2021.2.3,Win32,144.4251878,,,,,,,,5,Ontime,short,k,1,1.9514,6,2,26,3,1,,,,,
1.34,,,,,,,,,j,red,5aea84c762ac0e0001096de0,2021-10-22_13h20.18.573,forced_choiceRT_color,2021.2.3,Win32,144.4251878,,,,,,,,5,Fast,short,f,0,1.8897,6,3,27,2,1,,,,,
1.53,,,,,,,,,d,orange,5aea84c762ac0e0001096de0,2021-10-22_13h20.18.573,forced_choiceRT_color,2021.2.3,Win32,144.4251878,,,,,,,,5,Ontime,short,d,1,1.9632,7,0,28,0,1,,,,,
1.93,,,,,,,,,d,orange,5aea84c762ac0e0001096de0,2021-10-22_13h20.18.573,forced_choiceRT_color,2021.2.3,Win32,144.4251878,,,,,,,,5,Slow,short,d,1,2.2414,7,1,29,0,1,,,,,
0.58,,,,,,,,,d,orange,5aea84c762ac0e0001096de0,2021-10-22_13h20.18.573,forced_choiceRT_color,2021.2.3,Win32,144.4251878,,,,,,,,5,Ontime,short,d,1,2.0932,7,2,30,0,1,,,,,
0.21,,,,,,,,,j,red,5aea84c762ac0e0001096de0,2021-10-22_13h20.18.573,forced_choiceRT_color,2021.2.3,Win32,144.4251878,,,,,,,,5,Ontime,short,j,1,2.0203,7,3,31,2,1,,,,,
0.02,,,,,,,,,f,blue,5aea84c762ac0e0001096de0,2021-10-22_13h20.18.573,forced_choiceRT_color,2021.2.3,Win32,144.4251878,,,,,,,,5,Ontime,short,f,1,2.0011,8,0,32,1,1,,,,,
0.46,,,,,,,,,f,blue,5aea84c762ac0e0001096de0,2021-10-22_13h20.18.573,forced_choiceRT_color,2021.2.3,Win32,144.4251878,,,,,,,,5,Ontime,short,f,1,1.998,8,1,33,1,1,,,,,
1.77,,,,,,,,,j,red,5aea84c762ac0e0001096de0,2021-10-22_13h20.18.573,forced_choiceRT_color,2021.2.3,Win32,144.4251878,,,,,,,,5,Slow,short,j,1,2.2207,8,2,34,2,1,,,,,
1.82,,,,,,,,,f,blue,5aea84c762ac0e0001096de0,2021-10-22_13h20.18.573,forced_choiceRT_color,2021.2.3,Win32,144.4251878,,,,,,,,5,Ontime,short,k,0,2.0539,8,3,35,1,1,,,,,
1.14,,,,,,,,,j,red,5aea84c762ac0e0001096de0,2021-10-22_13h20.18.573,forced_choiceRT_color,2021.2.3,Win32,144.4251878,,,,,,,,5,Fast,short,j,1,1.8039,9,0,36,2,1,,,,,
0.72,,,,,,,,,k,purple,5aea84c762ac0e0001096de0,2021-10-22_13h20.18.573,forced_choiceRT_color,2021.2.3,Win32,144.4251878,,,,,,,,5,Ontime,short,k,1,1.9981,9,1,37,3,1,,,,,
1.26,,,,,,,,,j,red,5aea84c762ac0e0001096de0,2021-10-22_13h20.18.573,forced_choiceRT_color,2021.2.3,Win32,144.4251878,,,,,,,,5,Ontime,short,j,1,1.9356,9,2,38,2,1,,,,,
0.43,,,,,,,,,f,blue,5aea84c762ac0e0001096de0,2021-10-22_13h20.18.573,forced_choiceRT_color,2021.2.3,Win32,144.4251878,,,,,,,,5,Ontime,short,f,1,1.9219,9,3,39,1,1,,,,,
,,,,,,,,,,,5aea84c762ac0e0001096de0,2021-10-22_13h20.18.573,forced_choiceRT_color,2021.2.3,Win32,144.4251878,,,,,,,,,,,,,,,,,,,4,0,4,0,1
1.85,,,,,,,,,j,red,5aea84c762ac0e0001096de0,2021-10-22_13h20.18.573,forced_choiceRT_color,2021.2.3,Win32,144.4251878,,,,,,,,6,Slow,short,j,1,2.1024,0,0,0,2,1,,,,,
0.22,,,,,,,,,f,blue,5aea84c762ac0e0001096de0,2021-10-22_13h20.18.573,forced_choiceRT_color,2021.2.3,Win32,144.4251878,,,,,,,,6,Ontime,short,f,1,1.9634,0,1,1,1,1,,,,,
1.56,,,,,,,,,k,purple,5aea84c762ac0e0001096de0,2021-10-22_13h20.18.573,forced_choiceRT_color,2021.2.3,Win32,144.4251878,,,,,,,,6,Ontime,short,k,1,2.0119,0,2,2,3,1,,,,,
1.78,,,,,,,,,j,red,5aea84c762ac0e0001096de0,2021-10-22_13h20.18.573,forced_choiceRT_color,2021.2.3,Win32,144.4251878,,,,,,,,6,Slow,short,j,1,2.2685,0,3,3,2,1,,,,,
0.24,,,,,,,,,d,orange,5aea84c762ac0e0001096de0,2021-10-22_13h20.18.573,forced_choiceRT_color,2021.2.3,Win32,144.4251878,,,,,,,,6,Ontime,short,d,1,1.9216,1,0,4,0,1,,,,,
0.5,,,,,,,,,j,red,5aea84c762ac0e0001096de0,2021-10-22_13h20.18.573,forced_choiceRT_color,2021.2.3,Win32,144.4251878,,,,,,,,6,Ontime,short,j,1,1.9776,1,1,5,2,1,,,,,
1.51,,,,,,,,,d,orange,5aea84c762ac0e0001096de0,2021-10-22_13h20.18.573,forced_choiceRT_color,2021.2.3,Win32,144.4251878,,,,,,,,6,Ontime,short,d,1,2.0189,1,2,6,0,1,,,,,
1.01,,,,,,,,,j,red,5aea84c762ac0e0001096de0,2021-10-22_13h20.18.573,forced_choiceRT_color,2021.2.3,Win32,144.4251878,,,,,,,,6,Ontime,short,j,1,1.901,1,3,7,2,1,,,,,
1.24,,,,,,,,,k,purple,5aea84c762ac0e0001096de0,2021-10-22_13h20.18.573,forced_choiceRT_color,2021.2.3,Win32,144.4251878,,,,,,,,6,Fast,short,k,1,1.8529,2,0,8,3,1,,,,,
0.65,,,,,,,,,k,purple,5aea84c762ac0e0001096de0,2021-10-22_13h20.18.573,forced_choiceRT_color,2021.2.3,Win32,144.4251878,,,,,,,,6,Ontime,short,k,1,1.9201,2,1,9,3,1,,,,,
1.77,,,,,,,,,j,red,5aea84c762ac0e0001096de0,2021-10-22_13h20.18.573,forced_choiceRT_color,2021.2.3,Win32,144.4251878,,,,,,,,6,Slow,short,d,0,2.1865,2,2,10,2,1,,,,,
0.01,,,,,,,,,d,orange,5aea84c762ac0e0001096de0,2021-10-22_13h20.18.573,forced_choiceRT_color,2021.2.3,Win32,144.4251878,,,,,,,,6,Ontime,short,d,1,1.9914,2,3,11,0,1,,,,,
0.4,,,,,,,,,d,orange,5aea84c762ac0e0001096de0,2021-10-22_13h20.18.573,forced_choiceRT_color,2021.2.3,Win32,144.4251878,,,,,,,,6,Ontime,short,d,1,1.9218,3,0,12,0,1,,,,,
1.97,,,,,,,,,d,orange,5aea84c762ac0e0001096de0,2021-10-22_13h20.18.573,forced_choiceRT_color,2021.2.3,Win32,144.4251878,,,,,,,,6,Slow,short,d,1,2.345,3,1,13,0,1,,,,,
1.89,,,,,,,,,k,purple,5aea84c762ac0e0001096de0,2021-10-22_13h20.18.573,forced_choiceRT_color,2021.2.3,Win32,144.4251878,,,,,,,,6,Slow,short,k,1,3.041,3,2,14,3,1,,,,,
1.19,,,,,,,,,k,purple,5aea84c762ac0e0001096de0,2021-10-22_13h20.18.573,forced_choiceRT_color,2021.2.3,Win32,144.4251878,,,,,,,,6,Ontime,short,k,1,1.9773,3,3,15,3,1,,,,,
1.25,,,,,,,,,j,red,5aea84c762ac0e0001096de0,2021-10-22_13h20.18.573,forced_choiceRT_color,2021.2.3,Win32,144.4251878,,,,,,,,6,Fast,short,j,1,1.7831,4,0,16,2,1,,,,,
0.98,,,,,,,,,k,purple,5aea84c762ac0e0001096de0,2021-10-22_13h20.18.573,forced_choiceRT_color,2021.2.3,Win32,144.4251878,,,,,,,,6,Ontime,short,k,1,1.9773,4,1,17,3,1,,,,,
0.62,,,,,,,,,f,blue,5aea84c762ac0e0001096de0,2021-10-22_13h20.18.573,forced_choiceRT_color,2021.2.3,Win32,144.4251878,,,,,,,,6,Ontime,short,f,1,2.0425,4,2,18,1,1,,,,,
1.8,,,,,,,,,k,purple,5aea84c762ac0e0001096de0,2021-10-22_13h20.18.573,forced_choiceRT_color,2021.2.3,Win32,144.4251878,,,,,,,,6,Slow,short,k,1,2.2893,4,3,19,3,1,,,,,
1.46,,,,,,,,,f,blue,5aea84c762ac0e0001096de0,2021-10-22_13h20.18.573,forced_choiceRT_color,2021.2.3,Win32,144.4251878,,,,,,,,6,Ontime,short,j,0,2.0102,5,0,20,1,1,,,,,
0.75,,,,,,,,,d,orange,5aea84c762ac0e0001096de0,2021-10-22_13h20.18.573,forced_choiceRT_color,2021.2.3,Win32,144.4251878,,,,,,,,6,Ontime,short,d,1,1.9705,5,1,21,0,1,,,,,
0.63,,,,,,,,,j,red,5aea84c762ac0e0001096de0,2021-10-22_13h20.18.573,forced_choiceRT_color,2021.2.3,Win32,144.4251878,,,,,,,,6,Ontime,short,j,1,1.9495,5,2,22,2,1,,,,,
1.41,,,,,,,,,f,blue,5aea84c762ac0e0001096de0,2021-10-22_13h20.18.573,forced_choiceRT_color,2021.2.3,Win32,144.4251878,,,,,,,,6,Ontime,short,f,1,1.9564,5,3,23,1,1,,,,,
1.34,,,,,,,,,d,orange,5aea84c762ac0e0001096de0,2021-10-22_13h20.18.573,forced_choiceRT_color,2021.2.3,Win32,144.4251878,,,,,,,,6,Fast,short,d,1,1.8323,6,0,24,0,1,,,,,
1.64,,,,,,,,,k,purple,5aea84c762ac0e0001096de0,2021-10-22_13h20.18.573,forced_choiceRT_color,2021.2.3,Win32,144.4251878,,,,,,,,6,Ontime,short,j,0,2.0007,6,1,25,3,1,,,,,
0.06,,,,,,,,,f,blue,5aea84c762ac0e0001096de0,2021-10-22_13h20.18.573,forced_choiceRT_color,2021.2.3,Win32,144.4251878,,,,,,,,6,Fast,short,f,1,0.8468,6,2,26,1,1,,,,,
1.25,,,,,,,,,d,orange,5aea84c762ac0e0001096de0,2021-10-22_13h20.18.573,forced_choiceRT_color,2021.2.3,Win32,144.4251878,,,,,,,,6,Ontime,short,d,1,1.9843,6,3,27,0,1,,,,,
0.61,,,,,,,,,j,red,5aea84c762ac0e0001096de0,2021-10-22_13h20.18.573,forced_choiceRT_color,2021.2.3,Win32,144.4251878,,,,,,,,6,Ontime,short,j,1,1.9794,7,0,28,2,1,,,,,
1.22,,,,,,,,,k,purple,5aea84c762ac0e0001096de0,2021-10-22_13h20.18.573,forced_choiceRT_color,2021.2.3,Win32,144.4251878,,,,,,,,6,Ontime,short,k,1,2.0261,7,1,29,3,1,,,,,
1.03,,,,,,,,,d,orange,5aea84c762ac0e0001096de0,2021-10-22_13h20.18.573,forced_choiceRT_color,2021.2.3,Win32,144.4251878,,,,,,,,6,Ontime,short,d,1,1.9286,7,2,30,0,1,,,,,
1.12,,,,,,,,,f,blue,5aea84c762ac0e0001096de0,2021-10-22_13h20.18.573,forced_choiceRT_color,2021.2.3,Win32,144.4251878,,,,,,,,6,Ontime,short,f,1,1.901,7,3,31,1,1,,,,,
0.98,,,,,,,,,f,blue,5aea84c762ac0e0001096de0,2021-10-22_13h20.18.573,forced_choiceRT_color,2021.2.3,Win32,144.4251878,,,,,,,,6,Fast,short,f,1,1.8334,8,0,32,1,1,,,,,
0.1,,,,,,,,,f,blue,5aea84c762ac0e0001096de0,2021-10-22_13h20.18.573,forced_choiceRT_color,2021.2.3,Win32,144.4251878,,,,,,,,6,Ontime,short,f,1,2.0262,8,1,33,1,1,,,,,
0.04,,,,,,,,,j,red,5aea84c762ac0e0001096de0,2021-10-22_13h20.18.573,forced_choiceRT_color,2021.2.3,Win32,144.4251878,,,,,,,,6,Ontime,short,j,1,1.9867,8,2,34,2,1,,,,,
0.47,,,,,,,,,f,blue,5aea84c762ac0e0001096de0,2021-10-22_13h20.18.573,forced_choiceRT_color,2021.2.3,Win32,144.4251878,,,,,,,,6,Ontime,short,f,1,1.9308,8,3,35,1,1,,,,,
1.94,,,,,,,,,d,orange,5aea84c762ac0e0001096de0,2021-10-22_13h20.18.573,forced_choiceRT_color,2021.2.3,Win32,144.4251878,,,,,,,,6,Slow,short,d,1,2.3242,9,0,36,0,1,,,,,
0.12,,,,,,,,,f,blue,5aea84c762ac0e0001096de0,2021-10-22_13h20.18.573,forced_choiceRT_color,2021.2.3,Win32,144.4251878,,,,,,,,6,Ontime,short,f,1,1.9214,9,1,37,1,1,,,,,
0.94,,,,,,,,,k,purple,5aea84c762ac0e0001096de0,2021-10-22_13h20.18.573,forced_choiceRT_color,2021.2.3,Win32,144.4251878,,,,,,,,6,Fast,short,k,1,1.8484,9,2,38,3,1,,,,,
0.35,,,,,,,,,j,red,5aea84c762ac0e0001096de0,2021-10-22_13h20.18.573,forced_choiceRT_color,2021.2.3,Win32,144.4251878,,,,,,,,6,Ontime,short,j,1,1.9508,9,3,39,2,1,,,,,
,,,,,,,,,,,5aea84c762ac0e0001096de0,2021-10-22_13h20.18.573,forced_choiceRT_color,2021.2.3,Win32,144.4251878,,,,,,,,,,,,,,,,,,,5,0,5,0,1
0.65,,,,,,,,,j,red,5aea84c762ac0e0001096de0,2021-10-22_13h20.18.573,forced_choiceRT_color,2021.2.3,Win32,144.4251878,,,,,,,,7,Ontime,short,j,1,1.9452,0,0,0,2,1,,,,,
1.64,,,,,,,,,j,red,5aea84c762ac0e0001096de0,2021-10-22_13h20.18.573,forced_choiceRT_color,2021.2.3,Win32,144.4251878,,,,,,,,7,Slow,short,j,1,2.1459,0,1,1,2,1,,,,,
0.05,,,,,,,,,j,red,5aea84c762ac0e0001096de0,2021-10-22_13h20.18.573,forced_choiceRT_color,2021.2.3,Win32,144.4251878,,,,,,,,7,Ontime,short,j,1,1.9619,0,2,2,2,1,,,,,
1.1,,,,,,,,,d,orange,5aea84c762ac0e0001096de0,2021-10-22_13h20.18.573,forced_choiceRT_color,2021.2.3,Win32,144.4251878,,,,,,,,7,Ontime,short,d,1,1.9008,0,3,3,0,1,,,,,
0.09,,,,,,,,,k,purple,5aea84c762ac0e0001096de0,2021-10-22_13h20.18.573,forced_choiceRT_color,2021.2.3,Win32,144.4251878,,,,,,,,7,Fast,short,k,1,1.853,1,0,4,3,1,,,,,
0.16,,,,,,,,,j,red,5aea84c762ac0e0001096de0,2021-10-22_13h20.18.573,forced_choiceRT_color,2021.2.3,Win32,144.4251878,,,,,,,,7,Ontime,short,j,1,1.9143,1,1,5,2,1,,,,,
1.86,,,,,,,,,k,purple,5aea84c762ac0e0001096de0,2021-10-22_13h20.18.573,forced_choiceRT_color,2021.2.3,Win32,144.4251878,,,,,,,,7,Slow,short,d,0,2.1299,1,2,6,3,1,,,,,
0.35,,,,,,,,,k,purple,5aea84c762ac0e0001096de0,2021-10-22_13h20.18.573,forced_choiceRT_color,2021.2.3,Win32,144.4251878,,,,,,,,7,Ontime,short,k,1,1.9147,1,3,7,3,1,,,,,
1.18,,,,,,,,,k,purple,5aea84c762ac0e0001096de0,2021-10-22_13h20.18.573,forced_choiceRT_color,2021.2.3,Win32,144.4251878,,,,,,,,7,Ontime,short,k,1,1.9592,2,0,8,3,1,,,,,
0.61,,,,,,,,,j,red,5aea84c762ac0e0001096de0,2021-10-22_13h20.18.573,forced_choiceRT_color,2021.2.3,Win32,144.4251878,,,,,,,,7,Ontime,short,j,1,1.9008,2,1,9,2,1,,,,,
1.73,,,,,,,,,d,orange,5aea84c762ac0e0001096de0,2021-10-22_13h20.18.573,forced_choiceRT_color,2021.2.3,Win32,144.4251878,,,,,,,,7,Slow,short,d,1,2.1798,2,2,10,0,1,,,,,
0.76,,,,,,,,,f,blue,5aea84c762ac0e0001096de0,2021-10-22_13h20.18.573,forced_choiceRT_color,2021.2.3,Win32,144.4251878,,,,,,,,7,Fast,short,f,1,1.8894,2,3,11,1,1,,,,,
1.19,,,,,,,,,k,purple,5aea84c762ac0e0001096de0,2021-10-22_13h20.18.573,forced_choiceRT_color,2021.2.3,Win32,144.4251878,,,,,,,,7,Fast,short,k,1,1.8996,3,0,12,3,1,,,,,
1.23,,,,,,,,,f,blue,5aea84c762ac0e0001096de0,2021-10-22_13h20.18.573,forced_choiceRT_color,2021.2.3,Win32,144.4251878,,,,,,,,7,Ontime,short,f,1,2.0466,3,1,13,1,1,,,,,
0.65,,,,,,,,,f,blue,5aea84c762ac0e0001096de0,2021-10-22_13h20.18.573,forced_choiceRT_color,2021.2.3,Win32,144.4251878,,,,,,,,7,Ontime,short,f,1,1.9216,3,2,14,1,1,,,,,
1.12,,,,,,,,,j,red,5aea84c762ac0e0001096de0,2021-10-22_13h20.18.573,forced_choiceRT_color,2021.2.3,Win32,144.4251878,,,,,,,,7,Ontime,short,j,1,1.9242,3,3,15,2,1,,,,,
1.6,,,,,,,,,f,blue,5aea84c762ac0e0001096de0,2021-10-22_13h20.18.573,forced_choiceRT_color,2021.2.3,Win32,144.4251878,,,,,,,,7,Slow,short,f,1,2.1923,4,0,16,1,1,,,,,
0.99,,,,,,,,,d,orange,5aea84c762ac0e0001096de0,2021-10-22_13h20.18.573,forced_choiceRT_color,2021.2.3,Win32,144.4251878,,,,,,,,7,Ontime,short,d,1,1.9979,4,1,17,0,1,,,,,
0.49,,,,,,,,,d,orange,5aea84c762ac0e0001096de0,2021-10-22_13h20.18.573,forced_choiceRT_color,2021.2.3,Win32,144.4251878,,,,,,,,7,Ontime,short,d,1,1.9564,4,2,18,0,1,,,,,
0.64,,,,,,,,,d,orange,5aea84c762ac0e0001096de0,2021-10-22_13h20.18.573,forced_choiceRT_color,2021.2.3,Win32,144.4251878,,,,,,,,7,Fast,short,d,1,1.8592,4,3,19,0,1,,,,,
0.31,,,,,,,,,f,blue,5aea84c762ac0e0001096de0,2021-10-22_13h20.18.573,forced_choiceRT_color,2021.2.3,Win32,144.4251878,,,,,,,,7,Ontime,short,f,1,1.9776,5,0,20,1,1,,,,,
1.84,,,,,,,,,d,orange,5aea84c762ac0e0001096de0,2021-10-22_13h20.18.573,forced_choiceRT_color,2021.2.3,Win32,144.4251878,,,,,,,,7,Slow,short,d,1,2.3036,5,1,21,0,1,,,,,
0.9,,,,,,,,,k,purple,5aea84c762ac0e0001096de0,2021-10-22_13h20.18.573,forced_choiceRT_color,2021.2.3,Win32,144.4251878,,,,,,,,7,Ontime,short,k,1,2.01,5,2,22,3,1,,,,,
0.03,,,,,,,,,f,blue,5aea84c762ac0e0001096de0,2021-10-22_13h20.18.573,forced_choiceRT_color,2021.2.3,Win32,144.4251878,,,,,,,,7,Ontime,short,f,1,1.9232,5,3,23,1,1,,,,,
0.25,,,,,,,,,f,blue,5aea84c762ac0e0001096de0,2021-10-22_13h20.18.573,forced_choiceRT_color,2021.2.3,Win32,144.4251878,,,,,,,,7,Ontime,short,f,1,1.9659,6,0,24,1,1,,,,,
0.68,,,,,,,,,k,purple,5aea84c762ac0e0001096de0,2021-10-22_13h20.18.573,forced_choiceRT_color,2021.2.3,Win32,144.4251878,,,,,,,,7,Fast,short,k,1,1.894,6,1,25,3,1,,,,,
0.99,,,,,,,,,f,blue,5aea84c762ac0e0001096de0,2021-10-22_13h20.18.573,forced_choiceRT_color,2021.2.3,Win32,144.4251878,,,,,,,,7,Fast,short,f,1,1.8735,6,2,26,1,1,,,,,
1.34,,,,,,,,,d,orange,5aea84c762ac0e0001096de0,2021-10-22_13h20.18.573,forced_choiceRT_color,2021.2.3,Win32,144.4251878,,,,,,,,7,Ontime,short,d,1,1.9565,6,3,27,0,1,,,,,
1.8,,,,,,,,,j,red,5aea84c762ac0e0001096de0,2021-10-22_13h20.18.573,forced_choiceRT_color,2021.2.3,Win32,144.4251878,,,,,,,,7,Slow,short,j,1,2.1091,7,0,28,2,1,,,,,
1.18,,,,,,,,,j,red,5aea84c762ac0e0001096de0,2021-10-22_13h20.18.573,forced_choiceRT_color,2021.2.3,Win32,144.4251878,,,,,,,,7,Ontime,short,j,1,1.9302,7,1,29,2,1,,,,,
1.24,,,,,,,,,d,orange,5aea84c762ac0e0001096de0,2021-10-22_13h20.18.573,forced_choiceRT_color,2021.2.3,Win32,144.4251878,,,,,,,,7,Ontime,short,d,1,1.9493,7,2,30,0,1,,,,,
0.98,,,,,,,,,j,red,5aea84c762ac0e0001096de0,2021-10-22_13h20.18.573,forced_choiceRT_color,2021.2.3,Win32,144.4251878,,,,,,,,7,Ontime,short,j,1,1.9286,7,3,31,2,1,,,,,
1.42,,,,,,,,,k,purple,5aea84c762ac0e0001096de0,2021-10-22_13h20.18.573,forced_choiceRT_color,2021.2.3,Win32,144.4251878,,,,,,,,7,Ontime,short,k,1,1.9844,8,0,32,3,1,,,,,
0.96,,,,,,,,,k,purple,5aea84c762ac0e0001096de0,2021-10-22_13h20.18.573,forced_choiceRT_color,2021.2.3,Win32,144.4251878,,,,,,,,7,Ontime,short,k,1,1.9588,8,1,33,3,1,,,,,
0.61,,,,,,,,,f,blue,5aea84c762ac0e0001096de0,2021-10-22_13h20.18.573,forced_choiceRT_color,2021.2.3,Win32,144.4251878,,,,,,,,7,Ontime,short,f,1,1.9217,8,2,34,1,1,,,,,
0.38,,,,,,,,,j,red,5aea84c762ac0e0001096de0,2021-10-22_13h20.18.573,forced_choiceRT_color,2021.2.3,Win32,144.4251878,,,,,,,,7,Ontime,short,j,1,1.9219,8,3,35,2,1,,,,,
0.81,,,,,,,,,d,orange,5aea84c762ac0e0001096de0,2021-10-22_13h20.18.573,forced_choiceRT_color,2021.2.3,Win32,144.4251878,,,,,,,,7,Ontime,short,d,1,1.9354,9,0,36,0,1,,,,,
1.46,,,,,,,,,k,purple,5aea84c762ac0e0001096de0,2021-10-22_13h20.18.573,forced_choiceRT_color,2021.2.3,Win32,144.4251878,,,,,,,,7,Ontime,short,k,1,1.9357,9,1,37,3,1,,,,,
1.33,,,,,,,,,f,blue,5aea84c762ac0e0001096de0,2021-10-22_13h20.18.573,forced_choiceRT_color,2021.2.3,Win32,144.4251878,,,,,,,,7,Ontime,short,f,1,1.9149,9,2,38,1,1,,,,,
1.59,,,,,,,,,d,orange,5aea84c762ac0e0001096de0,2021-10-22_13h20.18.573,forced_choiceRT_color,2021.2.3,Win32,144.4251878,,,,,,,,7,Ontime,short,d,1,2.005,9,3,39,0,1,,,,,
,,,,,,,,,,,5aea84c762ac0e0001096de0,2021-10-22_13h20.18.573,forced_choiceRT_color,2021.2.3,Win32,144.4251878,,,,,,,,,,,,,,,,,,,6,0,6,0,1
1.43,,,,,,,,,f,blue,5aea84c762ac0e0001096de0,2021-10-22_13h20.18.573,forced_choiceRT_color,2021.2.3,Win32,144.4251878,,,,,,,,8,Ontime,short,f,1,1.9729,0,0,0,1,1,,,,,
1.5,,,,,,,,,k,purple,5aea84c762ac0e0001096de0,2021-10-22_13h20.18.573,forced_choiceRT_color,2021.2.3,Win32,144.4251878,,,,,,,,8,Ontime,short,k,1,1.9706,0,1,1,3,1,,,,,
0.77,,,,,,,,,f,blue,5aea84c762ac0e0001096de0,2021-10-22_13h20.18.573,forced_choiceRT_color,2021.2.3,Win32,144.4251878,,,,,,,,8,Ontime,short,f,1,1.9428,0,2,2,1,1,,,,,
0.19,,,,,,,,,d,orange,5aea84c762ac0e0001096de0,2021-10-22_13h20.18.573,forced_choiceRT_color,2021.2.3,Win32,144.4251878,,,,,,,,8,Fast,short,d,1,1.887,0,3,3,0,1,,,,,
0.87,,,,,,,,,k,purple,5aea84c762ac0e0001096de0,2021-10-22_13h20.18.573,forced_choiceRT_color,2021.2.3,Win32,144.4251878,,,,,,,,8,Ontime,short,k,1,1.9091,1,0,4,3,1,,,,,
1.88,,,,,,,,,f,blue,5aea84c762ac0e0001096de0,2021-10-22_13h20.18.573,forced_choiceRT_color,2021.2.3,Win32,144.4251878,,,,,,,,8,Slow,short,d,0,2.1229,1,1,5,1,1,,,,,
0.33,,,,,,,,,k,purple,5aea84c762ac0e0001096de0,2021-10-22_13h20.18.573,forced_choiceRT_color,2021.2.3,Win32,144.4251878,,,,,,,,8,Ontime,short,k,1,1.9774,1,2,6,3,1,,,,,
1.98,,,,,,,,,j,red,5aea84c762ac0e0001096de0,2021-10-22_13h20.18.573,forced_choiceRT_color,2021.2.3,Win32,144.4251878,,,,,,,,8,Slow,short,j,1,2.6636,1,3,7,2,1,,,,,
0.19,,,,,,,,,f,blue,5aea84c762ac0e0001096de0,2021-10-22_13h20.18.573,forced_choiceRT_color,2021.2.3,Win32,144.4251878,,,,,,,,8,Ontime,short,f,1,2.0124,2,0,8,1,1,,,,,
0.53,,,,,,,,,f,blue,5aea84c762ac0e0001096de0,2021-10-22_13h20.18.573,forced_choiceRT_color,2021.2.3,Win32,144.4251878,,,,,,,,8,Ontime,short,f,1,2.0743,2,1,9,1,1,,,,,
0.1,,,,,,,,,k,purple,5aea84c762ac0e0001096de0,2021-10-22_13h20.18.573,forced_choiceRT_color,2021.2.3,Win32,144.4251878,,,,,,,,8,Ontime,short,k,1,2.0604,2,2,10,3,1,,,,,
1.54,,,,,,,,,j,red,5aea84c762ac0e0001096de0,2021-10-22_13h20.18.573,forced_choiceRT_color,2021.2.3,Win32,144.4251878,,,,,,,,8,Ontime,short,f,0,2.0074,2,3,11,2,1,,,,,
1.1,,,,,,,,,j,red,5aea84c762ac0e0001096de0,2021-10-22_13h20.18.573,forced_choiceRT_color,2021.2.3,Win32,144.4251878,,,,,,,,8,Ontime,short,j,1,1.9623,3,0,12,2,1,,,,,
0.44,,,,,,,,,d,orange,5aea84c762ac0e0001096de0,2021-10-22_13h20.18.573,forced_choiceRT_color,2021.2.3,Win32,144.4251878,,,,,,,,8,Ontime,short,d,1,1.9199,3,1,13,0,1,,,,,
0.74,,,,,,,,,d,orange,5aea84c762ac0e0001096de0,2021-10-22_13h20.18.573,forced_choiceRT_color,2021.2.3,Win32,144.4251878,,,,,,,,8,Ontime,short,d,1,1.9069,3,2,14,0,1,,,,,
1.89,,,,,,,,,f,blue,5aea84c762ac0e0001096de0,2021-10-22_13h20.18.573,forced_choiceRT_color,2021.2.3,Win32,144.4251878,,,,,,,,8,Slow,short,f,1,2.2965,3,3,15,1,1,,,,,
1.55,,,,,,,,,f,blue,5aea84c762ac0e0001096de0,2021-10-22_13h20.18.573,forced_choiceRT_color,2021.2.3,Win32,144.4251878,,,,,,,,8,Ontime,short,f,1,1.9566,4,0,16,1,1,,,,,
0.18,,,,,,,,,d,orange,5aea84c762ac0e0001096de0,2021-10-22_13h20.18.573,forced_choiceRT_color,2021.2.3,Win32,144.4251878,,,,,,,,8,Fast,short,d,1,1.8619,4,1,17,0,1,,,,,
0.92,,,,,,,,,k,purple,5aea84c762ac0e0001096de0,2021-10-22_13h20.18.573,forced_choiceRT_color,2021.2.3,Win32,144.4251878,,,,,,,,8,Ontime,short,k,1,1.9405,4,2,18,3,1,,,,,
0.87,,,,,,,,,k,purple,5aea84c762ac0e0001096de0,2021-10-22_13h20.18.573,forced_choiceRT_color,2021.2.3,Win32,144.4251878,,,,,,,,8,Ontime,short,k,1,1.9772,4,3,19,3,1,,,,,
0.55,,,,,,,,,j,red,5aea84c762ac0e0001096de0,2021-10-22_13h20.18.573,forced_choiceRT_color,2021.2.3,Win32,144.4251878,,,,,,,,8,Ontime,short,j,1,2.0281,5,0,20,2,1,,,,,
0.2,,,,,,,,,d,orange,5aea84c762ac0e0001096de0,2021-10-22_13h20.18.573,forced_choiceRT_color,2021.2.3,Win32,144.4251878,,,,,,,,8,Fast,short,d,1,1.8731,5,1,21,0,1,,,,,
0.24,,,,,,,,,j,red,5aea84c762ac0e0001096de0,2021-10-22_13h20.18.573,forced_choiceRT_color,2021.2.3,Win32,144.4251878,,,,,,,,8,Fast,short,j,1,1.8665,5,2,22,2,1,,,,,
0.93,,,,,,,,,d,orange,5aea84c762ac0e0001096de0,2021-10-22_13h20.18.573,forced_choiceRT_color,2021.2.3,Win32,144.4251878,,,,,,,,8,Ontime,short,d,1,1.9494,5,3,23,0,1,,,,,
1.36,,,,,,,,,k,purple,5aea84c762ac0e0001096de0,2021-10-22_13h20.18.573,forced_choiceRT_color,2021.2.3,Win32,144.4251878,,,,,,,,8,Ontime,short,k,1,1.9095,6,0,24,3,1,,,,,
0.53,,,,,,,,,k,purple,5aea84c762ac0e0001096de0,2021-10-22_13h20.18.573,forced_choiceRT_color,2021.2.3,Win32,144.4251878,,,,,,,,8,Ontime,short,k,1,1.9287,6,1,25,3,1,,,,,
1.95,,,,,,,,,j,red,5aea84c762ac0e0001096de0,2021-10-22_13h20.18.573,forced_choiceRT_color,2021.2.3,Win32,144.4251878,,,,,,,,8,Slow,short,f,0,2.3032,6,2,26,2,1,,,,,
0.74,,,,,,,,,d,orange,5aea84c762ac0e0001096de0,2021-10-22_13h20.18.573,forced_choiceRT_color,2021.2.3,Win32,144.4251878,,,,,,,,8,Ontime,short,d,1,1.9426,6,3,27,0,1,,,,,
0.71,,,,,,,,,k,purple,5aea84c762ac0e0001096de0,2021-10-22_13h20.18.573,forced_choiceRT_color,2021.2.3,Win32,144.4251878,,,,,,,,8,Ontime,short,k,1,2.0003,7,0,28,3,1,,,,,
0.81,,,,,,,,,f,blue,5aea84c762ac0e0001096de0,2021-10-22_13h20.18.573,forced_choiceRT_color,2021.2.3,Win32,144.4251878,,,,,,,,8,Slow,short,f,1,2.126,7,1,29,1,1,,,,,
1.36,,,,,,,,,k,purple,5aea84c762ac0e0001096de0,2021-10-22_13h20.18.573,forced_choiceRT_color,2021.2.3,Win32,144.4251878,,,,,,,,8,Ontime,short,k,1,1.9543,7,2,30,3,1,,,,,
1.16,,,,,,,,,d,orange,5aea84c762ac0e0001096de0,2021-10-22_13h20.18.573,forced_choiceRT_color,2021.2.3,Win32,144.4251878,,,,,,,,8,Ontime,short,d,1,1.9429,7,3,31,0,1,,,,,
0.87,,,,,,,,,j,red,5aea84c762ac0e0001096de0,2021-10-22_13h20.18.573,forced_choiceRT_color,2021.2.3,Win32,144.4251878,,,,,,,,8,Ontime,short,j,1,1.9426,8,0,32,2,1,,,,,
0.11,,,,,,,,,j,red,5aea84c762ac0e0001096de0,2021-10-22_13h20.18.573,forced_choiceRT_color,2021.2.3,Win32,144.4251878,,,,,,,,8,Fast,short,j,1,1.7298,8,1,33,2,1,,,,,
1.9,,,,,,,,,d,orange,5aea84c762ac0e0001096de0,2021-10-22_13h20.18.573,forced_choiceRT_color,2021.2.3,Win32,144.4251878,,,,,,,,8,Slow,short,d,1,2.1765,8,2,34,0,1,,,,,
0.46,,,,,,,,,f,blue,5aea84c762ac0e0001096de0,2021-10-22_13h20.18.573,forced_choiceRT_color,2021.2.3,Win32,144.4251878,,,,,,,,8,Ontime,short,f,1,1.9772,8,3,35,1,1,,,,,
0.19,,,,,,,,,j,red,5aea84c762ac0e0001096de0,2021-10-22_13h20.18.573,forced_choiceRT_color,2021.2.3,Win32,144.4251878,,,,,,,,8,Ontime,short,j,1,1.9085,9,0,36,2,1,,,,,
1.23,,,,,,,,,d,orange,5aea84c762ac0e0001096de0,2021-10-22_13h20.18.573,forced_choiceRT_color,2021.2.3,Win32,144.4251878,,,,,,,,8,Ontime,short,d,1,1.9494,9,1,37,0,1,,,,,
1.92,,,,,,,,,j,red,5aea84c762ac0e0001096de0,2021-10-22_13h20.18.573,forced_choiceRT_color,2021.2.3,Win32,144.4251878,,,,,,,,8,Ontime,short,d,0,2.0881,9,2,38,2,1,,,,,
1.43,,,,,,,,,f,blue,5aea84c762ac0e0001096de0,2021-10-22_13h20.18.573,forced_choiceRT_color,2021.2.3,Win32,144.4251878,,,,,,,,8,Ontime,short,f,1,1.9913,9,3,39,1,1,,,,,
,,,,,,,,,,,5aea84c762ac0e0001096de0,2021-10-22_13h20.18.573,forced_choiceRT_color,2021.2.3,Win32,144.4251878,,,,,,,,,,,,,,,,,,,7,0,7,0,1
1.51,,,,,,,,,f,blue,5aea84c762ac0e0001096de0,2021-10-22_13h20.18.573,forced_choiceRT_color,2021.2.3,Win32,144.4251878,,,,,,,,9,Fast,short,f,1,1.8879,0,0,0,1,1,,,,,
0.61,,,,,,,,,d,orange,5aea84c762ac0e0001096de0,2021-10-22_13h20.18.573,forced_choiceRT_color,2021.2.3,Win32,144.4251878,,,,,,,,9,Fast,short,d,1,1.874,0,1,1,0,1,,,,,
1.95,,,,,,,,,j,red,5aea84c762ac0e0001096de0,2021-10-22_13h20.18.573,forced_choiceRT_color,2021.2.3,Win32,144.4251878,,,,,,,,9,Slow,short,k,0,2.3587,0,2,2,2,1,,,,,
0.23,,,,,,,,,f,blue,5aea84c762ac0e0001096de0,2021-10-22_13h20.18.573,forced_choiceRT_color,2021.2.3,Win32,144.4251878,,,,,,,,9,Fast,short,f,1,1.8937,0,3,3,1,1,,,,,
1.28,,,,,,,,,j,red,5aea84c762ac0e0001096de0,2021-10-22_13h20.18.573,forced_choiceRT_color,2021.2.3,Win32,144.4251878,,,,,,,,9,Ontime,short,j,1,2.0344,1,0,4,2,1,,,,,
0.42,,,,,,,,,k,purple,5aea84c762ac0e0001096de0,2021-10-22_13h20.18.573,forced_choiceRT_color,2021.2.3,Win32,144.4251878,,,,,,,,9,Ontime,short,k,1,1.9427,1,1,5,3,1,,,,,
0.1,,,,,,,,,d,orange,5aea84c762ac0e0001096de0,2021-10-22_13h20.18.573,forced_choiceRT_color,2021.2.3,Win32,144.4251878,,,,,,,,9,Fast,short,d,1,1.8871,1,2,6,0,1,,,,,
0.37,,,,,,,,,k,purple,5aea84c762ac0e0001096de0,2021-10-22_13h20.18.573,forced_choiceRT_color,2021.2.3,Win32,144.4251878,,,,,,,,9,Ontime,short,k,1,1.9803,1,3,7,3,1,,,,,
0.84,,,,,,,,,f,blue,5aea84c762ac0e0001096de0,2021-10-22_13h20.18.573,forced_choiceRT_color,2021.2.3,Win32,144.4251878,,,,,,,,9,Fast,short,f,1,1.8663,2,0,8,1,1,,,,,
1.34,,,,,,,,,j,red,5aea84c762ac0e0001096de0,2021-10-22_13h20.18.573,forced_choiceRT_color,2021.2.3,Win32,144.4251878,,,,,,,,9,Ontime,short,j,1,1.9842,2,1,9,2,1,,,,,
0.11,,,,,,,,,k,purple,5aea84c762ac0e0001096de0,2021-10-22_13h20.18.573,forced_choiceRT_color,2021.2.3,Win32,144.4251878,,,,,,,,9,Fast,short,k,1,1.8943,2,2,10,3,1,,,,,
0.34,,,,,,,,,f,blue,5aea84c762ac0e0001096de0,2021-10-22_13h20.18.573,forced_choiceRT_color,2021.2.3,Win32,144.4251878,,,,,,,,9,Ontime,short,f,1,1.9806,2,3,11,1,1,,,,,
1.8,,,,,,,,,j,red,5aea84c762ac0e0001096de0,2021-10-22_13h20.18.573,forced_choiceRT_color,2021.2.3,Win32,144.4251878,,,,,,,,9,Slow,short,f,0,2.2618,3,0,12,2,1,,,,,
0.45,,,,,,,,,d,orange,5aea84c762ac0e0001096de0,2021-10-22_13h20.18.573,forced_choiceRT_color,2021.2.3,Win32,144.4251878,,,,,,,,9,Ontime,short,d,1,1.934,3,1,13,0,1,,,,,
1.05,,,,,,,,,d,orange,5aea84c762ac0e0001096de0,2021-10-22_13h20.18.573,forced_choiceRT_color,2021.2.3,Win32,144.4251878,,,,,,,,9,Ontime,short,d,1,1.9287,3,2,14,0,1,,,,,
0.88,,,,,,,,,d,orange,5aea84c762ac0e0001096de0,2021-10-22_13h20.18.573,forced_choiceRT_color,2021.2.3,Win32,144.4251878,,,,,,,,9,Ontime,short,d,1,2.0326,3,3,15,0,1,,,,,
1.68,,,,,,,,,j,red,5aea84c762ac0e0001096de0,2021-10-22_13h20.18.573,forced_choiceRT_color,2021.2.3,Win32,144.4251878,,,,,,,,9,Ontime,short,j,1,2.0067,4,0,16,2,1,,,,,
0.07,,,,,,,,,d,orange,5aea84c762ac0e0001096de0,2021-10-22_13h20.18.573,forced_choiceRT_color,2021.2.3,Win32,144.4251878,,,,,,,,9,Fast,short,d,1,1.8966,4,1,17,0,1,,,,,
1.1,,,,,,,,,k,purple,5aea84c762ac0e0001096de0,2021-10-22_13h20.18.573,forced_choiceRT_color,2021.2.3,Win32,144.4251878,,,,,,,,9,Ontime,short,k,1,1.9775,4,2,18,3,1,,,,,
1.08,,,,,,,,,k,purple,5aea84c762ac0e0001096de0,2021-10-22_13h20.18.573,forced_choiceRT_color,2021.2.3,Win32,144.4251878,,,,,,,,9,Ontime,short,k,1,2.0055,4,3,19,3,1,,,,,
1.36,,,,,,,,,k,purple,5aea84c762ac0e0001096de0,2021-10-22_13h20.18.573,forced_choiceRT_color,2021.2.3,Win32,144.4251878,,,,,,,,9,Ontime,short,k,1,1.9577,5,0,20,3,1,,,,,
0.83,,,,,,,,,d,orange,5aea84c762ac0e0001096de0,2021-10-22_13h20.18.573,forced_choiceRT_color,2021.2.3,Win32,144.4251878,,,,,,,,9,Ontime,short,d,1,1.9516,5,1,21,0,1,,,,,
1.69,,,,,,,,,f,blue,5aea84c762ac0e0001096de0,2021-10-22_13h20.18.573,forced_choiceRT_color,2021.2.3,Win32,144.4251878,,,,,,,,9,Slow,short,f,1,2.1644,5,2,22,1,1,,,,,
1.95,,,,,,,,,d,orange,5aea84c762ac0e0001096de0,2021-10-22_13h20.18.573,forced_choiceRT_color,2021.2.3,Win32,144.4251878,,,,,,,,9,Slow,short,j,0,2.1932,5,3,23,0,1,,,,,
0.03,,,,,,,,,k,purple,5aea84c762ac0e0001096de0,2021-10-22_13h20.18.573,forced_choiceRT_color,2021.2.3,Win32,144.4251878,,,,,,,,9,Fast,short,k,1,1.8455,6,0,24,3,1,,,,,
0.3,,,,,,,,,d,orange,5aea84c762ac0e0001096de0,2021-10-22_13h20.18.573,forced_choiceRT_color,2021.2.3,Win32,144.4251878,,,,,,,,9,Ontime,short,d,1,1.9069,6,1,25,0,1,,,,,
0.62,,,,,,,,,f,blue,5aea84c762ac0e0001096de0,2021-10-22_13h20.18.573,forced_choiceRT_color,2021.2.3,Win32,144.4251878,,,,,,,,9,Ontime,short,f,1,1.963,6,2,26,1,1,,,,,
1.71,,,,,,,,,f,blue,5aea84c762ac0e0001096de0,2021-10-22_13h20.18.573,forced_choiceRT_color,2021.2.3,Win32,144.4251878,,,,,,,,9,Slow,short,f,1,2.193,6,3,27,1,1,,,,,
0.24,,,,,,,,,f,blue,5aea84c762ac0e0001096de0,2021-10-22_13h20.18.573,forced_choiceRT_color,2021.2.3,Win32,144.4251878,,,,,,,,9,Ontime,short,f,1,2.0119,7,0,28,1,1,,,,,
1.37,,,,,,,,,j,red,5aea84c762ac0e0001096de0,2021-10-22_13h20.18.573,forced_choiceRT_color,2021.2.3,Win32,144.4251878,,,,,,,,9,Ontime,short,j,1,1.9728,7,1,29,2,1,,,,,
0.99,,,,,,,,,j,red,5aea84c762ac0e0001096de0,2021-10-22_13h20.18.573,forced_choiceRT_color,2021.2.3,Win32,144.4251878,,,,,,,,9,Ontime,short,j,1,2.04,7,2,30,2,1,,,,,
0.22,,,,,,,,,k,purple,5aea84c762ac0e0001096de0,2021-10-22_13h20.18.573,forced_choiceRT_color,2021.2.3,Win32,144.4251878,,,,,,,,9,Ontime,short,k,1,2.0121,7,3,31,3,1,,,,,
1.66,,,,,,,,,d,orange,5aea84c762ac0e0001096de0,2021-10-22_13h20.18.573,forced_choiceRT_color,2021.2.3,Win32,144.4251878,,,,,,,,9,Ontime,short,d,1,1.966,8,0,32,0,1,,,,,
1.92,,,,,,,,,j,red,5aea84c762ac0e0001096de0,2021-10-22_13h20.18.573,forced_choiceRT_color,2021.2.3,Win32,144.4251878,,,,,,,,9,Slow,short,k,0,2.3649,8,1,33,2,1,,,,,
0.74,,,,,,,,,k,purple,5aea84c762ac0e0001096de0,2021-10-22_13h20.18.573,forced_choiceRT_color,2021.2.3,Win32,144.4251878,,,,,,,,9,Ontime,short,k,1,2.0535,8,2,34,3,1,,,,,
0.51,,,,,,,,,f,blue,5aea84c762ac0e0001096de0,2021-10-22_13h20.18.573,forced_choiceRT_color,2021.2.3,Win32,144.4251878,,,,,,,,9,Ontime,short,f,1,1.9356,8,3,35,1,1,,,,,
1.98,,,,,,,,,f,blue,5aea84c762ac0e0001096de0,2021-10-22_13h20.18.573,forced_choiceRT_color,2021.2.3,Win32,144.4251878,,,,,,,,9,Slow,short,f,1,2.331,9,0,36,1,1,,,,,
1.72,,,,,,,,,j,red,5aea84c762ac0e0001096de0,2021-10-22_13h20.18.573,forced_choiceRT_color,2021.2.3,Win32,144.4251878,,,,,,,,9,Ontime,short,j,1,2.0974,9,1,37,2,1,,,,,
1.08,,,,,,,,,j,red,5aea84c762ac0e0001096de0,2021-10-22_13h20.18.573,forced_choiceRT_color,2021.2.3,Win32,144.4251878,,,,,,,,9,Fast,short,j,1,1.7695,9,2,38,2,1,,,,,
0.79,,,,,,,,,k,purple,5aea84c762ac0e0001096de0,2021-10-22_13h20.18.573,forced_choiceRT_color,2021.2.3,Win32,144.4251878,,,,,,,,9,Fast,short,k,1,1.8733,9,3,39,3,1,,,,,
,,,,,,,,,,,5aea84c762ac0e0001096de0,2021-10-22_13h20.18.573,forced_choiceRT_color,2021.2.3,Win32,144.4251878,,,,,,,,,,,,,,,,,,,8,0,8,0,1
1.97,,,,,,,,,k,purple,5aea84c762ac0e0001096de0,2021-10-22_13h20.18.573,forced_choiceRT_color,2021.2.3,Win32,144.4251878,,,,,,,,10,Slow,short,k,1,2.7973,0,0,0,3,1,,,,,
0.36,,,,,,,,,d,orange,5aea84c762ac0e0001096de0,2021-10-22_13h20.18.573,forced_choiceRT_color,2021.2.3,Win32,144.4251878,,,,,,,,10,Ontime,short,d,1,1.9284,0,1,1,0,1,,,,,
0.66,,,,,,,,,d,orange,5aea84c762ac0e0001096de0,2021-10-22_13h20.18.573,forced_choiceRT_color,2021.2.3,Win32,144.4251878,,,,,,,,10,Ontime,short,d,1,1.9022,0,2,2,0,1,,,,,
0.72,,,,,,,,,k,purple,5aea84c762ac0e0001096de0,2021-10-22_13h20.18.573,forced_choiceRT_color,2021.2.3,Win32,144.4251878,,,,,,,,10,Ontime,short,k,1,1.9427,0,3,3,3,1,,,,,
0.14,,,,,,,,,j,red,5aea84c762ac0e0001096de0,2021-10-22_13h20.18.573,forced_choiceRT_color,2021.2.3,Win32,144.4251878,,,,,,,,10,Ontime,short,j,1,1.9149,1,0,4,2,1,,,,,
0.14,,,,,,,,,j,red,5aea84c762ac0e0001096de0,2021-10-22_13h20.18.573,forced_choiceRT_color,2021.2.3,Win32,144.4251878,,,,,,,,10,Ontime,short,j,1,1.9496,1,1,5,2,1,,,,,
1.08,,,,,,,,,d,orange,5aea84c762ac0e0001096de0,2021-10-22_13h20.18.573,forced_choiceRT_color,2021.2.3,Win32,144.4251878,,,,,,,,10,Ontime,short,d,1,1.9635,1,2,6,0,1,,,,,
0.83,,,,,,,,,d,orange,5aea84c762ac0e0001096de0,2021-10-22_13h20.18.573,forced_choiceRT_color,2021.2.3,Win32,144.4251878,,,,,,,,10,Ontime,short,d,1,1.9429,1,3,7,0,1,,,,,
0.26,,,,,,,,,f,blue,5aea84c762ac0e0001096de0,2021-10-22_13h20.18.573,forced_choiceRT_color,2021.2.3,Win32,144.4251878,,,,,,,,10,Ontime,short,f,1,1.9245,2,0,8,1,1,,,,,
1.02,,,,,,,,,k,purple,5aea84c762ac0e0001096de0,2021-10-22_13h20.18.573,forced_choiceRT_color,2021.2.3,Win32,144.4251878,,,,,,,,10,Ontime,short,k,1,1.9633,2,1,9,3,1,,,,,
0.96,,,,,,,,,f,blue,5aea84c762ac0e0001096de0,2021-10-22_13h20.18.573,forced_choiceRT_color,2021.2.3,Win32,144.4251878,,,,,,,,10,Ontime,short,f,1,1.9912,2,2,10,1,1,,,,,
0.14,,,,,,,,,k,purple,5aea84c762ac0e0001096de0,2021-10-22_13h20.18.573,forced_choiceRT_color,2021.2.3,Win32,144.4251878,,,,,,,,10,Fast,short,k,1,1.8613,2,3,11,3,1,,,,,
1.26,,,,,,,,,j,red,5aea84c762ac0e0001096de0,2021-10-22_13h20.18.573,forced_choiceRT_color,2021.2.3,Win32,144.4251878,,,,,,,,10,Ontime,short,j,1,2.0537,3,0,12,2,1,,,,,
0.29,,,,,,,,,j,red,5aea84c762ac0e0001096de0,2021-10-22_13h20.18.573,forced_choiceRT_color,2021.2.3,Win32,144.4251878,,,,,,,,10,Ontime,short,j,1,1.9567,3,1,13,2,1,,,,,
1.47,,,,,,,,,f,blue,5aea84c762ac0e0001096de0,2021-10-22_13h20.18.573,forced_choiceRT_color,2021.2.3,Win32,144.4251878,,,,,,,,10,Slow,short,f,1,2.116,3,2,14,1,1,,,,,
1.02,,,,,,,,,d,orange,5aea84c762ac0e0001096de0,2021-10-22_13h20.18.573,forced_choiceRT_color,2021.2.3,Win32,144.4251878,,,,,,,,10,Ontime,short,d,1,1.902,3,3,15,0,1,,,,,
1.65,,,,,,,,,f,blue,5aea84c762ac0e0001096de0,2021-10-22_13h20.18.573,forced_choiceRT_color,2021.2.3,Win32,144.4251878,,,,,,,,10,Ontime,short,k,0,1.9911,4,0,16,1,1,,,,,
1.07,,,,,,,,,f,blue,5aea84c762ac0e0001096de0,2021-10-22_13h20.18.573,forced_choiceRT_color,2021.2.3,Win32,144.4251878,,,,,,,,10,Fast,short,f,1,1.8601,4,1,17,1,1,,,,,
0,,,,,,,,,f,blue,5aea84c762ac0e0001096de0,2021-10-22_13h20.18.573,forced_choiceRT_color,2021.2.3,Win32,144.4251878,,,,,,,,10,Ontime,short,f,1,1.9078,4,2,18,1,1,,,,,
0.44,,,,,,,,,d,orange,5aea84c762ac0e0001096de0,2021-10-22_13h20.18.573,forced_choiceRT_color,2021.2.3,Win32,144.4251878,,,,,,,,10,Ontime,short,d,1,1.9587,4,3,19,0,1,,,,,
1.25,,,,,,,,,f,blue,5aea84c762ac0e0001096de0,2021-10-22_13h20.18.573,forced_choiceRT_color,2021.2.3,Win32,144.4251878,,,,,,,,10,Ontime,short,f,1,1.9442,5,0,20,1,1,,,,,
1.83,,,,,,,,,k,purple,5aea84c762ac0e0001096de0,2021-10-22_13h20.18.573,forced_choiceRT_color,2021.2.3,Win32,144.4251878,,,,,,,,10,Ontime,short,d,0,2.0255,5,1,21,3,1,,,,,
0.88,,,,,,,,,j,red,5aea84c762ac0e0001096de0,2021-10-22_13h20.18.573,forced_choiceRT_color,2021.2.3,Win32,144.4251878,,,,,,,,10,Ontime,short,j,1,1.938,5,2,22,2,1,,,,,
1.66,,,,,,,,,j,red,5aea84c762ac0e0001096de0,2021-10-22_13h20.18.573,forced_choiceRT_color,2021.2.3,Win32,144.4251878,,,,,,,,10,Ontime,short,j,1,1.9578,5,3,23,2,1,,,,,
1.96,,,,,,,,,f,blue,5aea84c762ac0e0001096de0,2021-10-22_13h20.18.573,forced_choiceRT_color,2021.2.3,Win32,144.4251878,,,,,,,,10,Slow,short,f,1,2.4985,6,0,24,1,1,,,,,
1.53,,,,,,,,,j,red,5aea84c762ac0e0001096de0,2021-10-22_13h20.18.573,forced_choiceRT_color,2021.2.3,Win32,144.4251878,,,,,,,,10,Ontime,short,j,1,1.9637,6,1,25,2,1,,,,,
0.88,,,,,,,,,d,orange,5aea84c762ac0e0001096de0,2021-10-22_13h20.18.573,forced_choiceRT_color,2021.2.3,Win32,144.4251878,,,,,,,,10,Ontime,short,d,1,2.027,6,2,26,0,1,,,,,
1.99,,,,,,,,,k,purple,5aea84c762ac0e0001096de0,2021-10-22_13h20.18.573,forced_choiceRT_color,2021.2.3,Win32,144.4251878,,,,,,,,10,Slow,short,k,1,2.5257,6,3,27,3,1,,,,,
0.45,,,,,,,,,j,red,5aea84c762ac0e0001096de0,2021-10-22_13h20.18.573,forced_choiceRT_color,2021.2.3,Win32,144.4251878,,,,,,,,10,Ontime,short,j,1,2.0045,7,0,28,2,1,,,,,
1.28,,,,,,,,,f,blue,5aea84c762ac0e0001096de0,2021-10-22_13h20.18.573,forced_choiceRT_color,2021.2.3,Win32,144.4251878,,,,,,,,10,Ontime,short,f,1,1.9511,7,1,29,1,1,,,,,
0.82,,,,,,,,,k,purple,5aea84c762ac0e0001096de0,2021-10-22_13h20.18.573,forced_choiceRT_color,2021.2.3,Win32,144.4251878,,,,,,,,10,Ontime,short,k,1,2.0418,7,2,30,3,1,,,,,
0.04,,,,,,,,,k,purple,5aea84c762ac0e0001096de0,2021-10-22_13h20.18.573,forced_choiceRT_color,2021.2.3,Win32,144.4251878,,,,,,,,10,Ontime,short,k,1,1.9842,7,3,31,3,1,,,,,
1.49,,,,,,,,,d,orange,5aea84c762ac0e0001096de0,2021-10-22_13h20.18.573,forced_choiceRT_color,2021.2.3,Win32,144.4251878,,,,,,,,10,Slow,short,d,1,2.1297,8,0,32,0,1,,,,,
1.57,,,,,,,,,k,purple,5aea84c762ac0e0001096de0,2021-10-22_13h20.18.573,forced_choiceRT_color,2021.2.3,Win32,144.4251878,,,,,,,,10,Slow,short,k,1,2.1644,8,1,33,3,1,,,,,
0.74,,,,,,,,,d,orange,5aea84c762ac0e0001096de0,2021-10-22_13h20.18.573,forced_choiceRT_color,2021.2.3,Win32,144.4251878,,,,,,,,10,Ontime,short,d,1,1.9014,8,2,34,0,1,,,,,
1.94,,,,,,,,,k,purple,5aea84c762ac0e0001096de0,2021-10-22_13h20.18.573,forced_choiceRT_color,2021.2.3,Win32,144.4251878,,,,,,,,10,Slow,short,j,0,2.237,8,3,35,3,1,,,,,
1.56,,,,,,,,,d,orange,5aea84c762ac0e0001096de0,2021-10-22_13h20.18.573,forced_choiceRT_color,2021.2.3,Win32,144.4251878,,,,,,,,10,Ontime,short,d,1,2.0103,9,0,36,0,1,,,,,
0.04,,,,,,,,,f,blue,5aea84c762ac0e0001096de0,2021-10-22_13h20.18.573,forced_choiceRT_color,2021.2.3,Win32,144.4251878,,,,,,,,10,Ontime,short,f,1,2.0188,9,1,37,1,1,,,,,
0.58,,,,,,,,,j,red,5aea84c762ac0e0001096de0,2021-10-22_13h20.18.573,forced_choiceRT_color,2021.2.3,Win32,144.4251878,,,,,,,,10,Ontime,short,j,1,2.0188,9,2,38,2,1,,,,,
1.12,,,,,,,,,j,red,5aea84c762ac0e0001096de0,2021-10-22_13h20.18.573,forced_choiceRT_color,2021.2.3,Win32,144.4251878,,,,,,,,10,Ontime,short,j,1,1.9777,9,3,39,2,1,,,,,
,,,,,,,,,,,5aea84c762ac0e0001096de0,2021-10-22_13h20.18.573,forced_choiceRT_color,2021.2.3,Win32,144.4251878,,,,,,,,,,,,,,,,,,,9,0,9,0,1
