target_onset,trial_resp_sp.keys,trial_resp_sp.corr,trial_resp_sp.rt,trials_train_loop.thisRepN,trials_train_loop.thisTrialN,trials_train_loop.thisN,trials_train_loop.thisIndex,trials_train_loop.ran,correct_key,color,participant,date,expName,psychopyVersion,OS,frameRate,trial_resp_timing.keys,trial_resp_timing.rt,trials_train_timing.thisRepN,trials_train_timing.thisTrialN,trials_train_timing.thisN,trials_train_timing.thisIndex,trials_train_timing.ran,block_id,ontime,feedback_cond,forcedRT_resp.keys,forcedRT_resp.corr,forcedRT_resp.rt,trials.thisRepN,trials.thisTrialN,trials.thisN,trials.thisIndex,trials.ran,blocks.thisRepN,blocks.thisTrialN,blocks.thisN,blocks.thisIndex,blocks.ran
0,j,1,1.122,0,0,0,2,1,j,red,5b09da13641b1200010eab05,2021-11-03_11h47.26.591,forced_choiceRT_color,2021.2.3,Win32,144.092219,,,,,,,,,,,,,,,,,,,,,,,
0,f,1,0.736,0,1,1,1,1,f,blue,5b09da13641b1200010eab05,2021-11-03_11h47.26.591,forced_choiceRT_color,2021.2.3,Win32,144.092219,,,,,,,,,,,,,,,,,,,,,,,
0,k,1,0.655,0,2,2,3,1,k,purple,5b09da13641b1200010eab05,2021-11-03_11h47.26.591,forced_choiceRT_color,2021.2.3,Win32,144.092219,,,,,,,,,,,,,,,,,,,,,,,
0,k,1,0.565,0,3,3,3,1,k,purple,5b09da13641b1200010eab05,2021-11-03_11h47.26.591,forced_choiceRT_color,2021.2.3,Win32,144.092219,,,,,,,,,,,,,,,,,,,,,,,
0,k,1,0.778,1,0,4,3,1,k,purple,5b09da13641b1200010eab05,2021-11-03_11h47.26.591,forced_choiceRT_color,2021.2.3,Win32,144.092219,,,,,,,,,,,,,,,,,,,,,,,
0,d,1,0.784,1,1,5,0,1,d,orange,5b09da13641b1200010eab05,2021-11-03_11h47.26.591,forced_choiceRT_color,2021.2.3,Win32,144.092219,,,,,,,,,,,,,,,,,,,,,,,
0,d,1,0.48,1,2,6,0,1,d,orange,5b09da13641b1200010eab05,2021-11-03_11h47.26.591,forced_choiceRT_color,2021.2.3,Win32,144.092219,,,,,,,,,,,,,,,,,,,,,,,
0,d,1,0.537,1,3,7,0,1,d,orange,5b09da13641b1200010eab05,2021-11-03_11h47.26.591,forced_choiceRT_color,2021.2.3,Win32,144.092219,,,,,,,,,,,,,,,,,,,,,,,
0,j,1,0.633,2,0,8,2,1,j,red,5b09da13641b1200010eab05,2021-11-03_11h47.26.591,forced_choiceRT_color,2021.2.3,Win32,144.092219,,,,,,,,,,,,,,,,,,,,,,,
0,k,1,0.526,2,1,9,3,1,k,purple,5b09da13641b1200010eab05,2021-11-03_11h47.26.591,forced_choiceRT_color,2021.2.3,Win32,144.092219,,,,,,,,,,,,,,,,,,,,,,,
0,k,1,0.807,2,2,10,3,1,k,purple,5b09da13641b1200010eab05,2021-11-03_11h47.26.591,forced_choiceRT_color,2021.2.3,Win32,144.092219,,,,,,,,,,,,,,,,,,,,,,,
0,f,1,1.016,2,3,11,1,1,f,blue,5b09da13641b1200010eab05,2021-11-03_11h47.26.591,forced_choiceRT_color,2021.2.3,Win32,144.092219,,,,,,,,,,,,,,,,,,,,,,,
0,k,1,0.633,3,0,12,3,1,k,purple,5b09da13641b1200010eab05,2021-11-03_11h47.26.591,forced_choiceRT_color,2021.2.3,Win32,144.092219,,,,,,,,,,,,,,,,,,,,,,,
0,k,1,0.538,3,1,13,3,1,k,purple,5b09da13641b1200010eab05,2021-11-03_11h47.26.591,forced_choiceRT_color,2021.2.3,Win32,144.092219,,,,,,,,,,,,,,,,,,,,,,,
0,d,1,0.481,3,2,14,0,1,d,orange,5b09da13641b1200010eab05,2021-11-03_11h47.26.591,forced_choiceRT_color,2021.2.3,Win32,144.092219,,,,,,,,,,,,,,,,,,,,,,,
0,d,1,0.481,3,3,15,0,1,d,orange,5b09da13641b1200010eab05,2021-11-03_11h47.26.591,forced_choiceRT_color,2021.2.3,Win32,144.092219,,,,,,,,,,,,,,,,,,,,,,,
0,k,1,0.598,4,0,16,3,1,k,purple,5b09da13641b1200010eab05,2021-11-03_11h47.26.591,forced_choiceRT_color,2021.2.3,Win32,144.092219,,,,,,,,,,,,,,,,,,,,,,,
0,k,1,0.558,4,1,17,3,1,k,purple,5b09da13641b1200010eab05,2021-11-03_11h47.26.591,forced_choiceRT_color,2021.2.3,Win32,144.092219,,,,,,,,,,,,,,,,,,,,,,,
0,j,1,0.584,4,2,18,2,1,j,red,5b09da13641b1200010eab05,2021-11-03_11h47.26.591,forced_choiceRT_color,2021.2.3,Win32,144.092219,,,,,,,,,,,,,,,,,,,,,,,
0,f,1,0.599,4,3,19,1,1,f,blue,5b09da13641b1200010eab05,2021-11-03_11h47.26.591,forced_choiceRT_color,2021.2.3,Win32,144.092219,,,,,,,,,,,,,,,,,,,,,,,
0,k,1,0.524,5,0,20,3,1,k,purple,5b09da13641b1200010eab05,2021-11-03_11h47.26.591,forced_choiceRT_color,2021.2.3,Win32,144.092219,,,,,,,,,,,,,,,,,,,,,,,
0,d,1,0.519,5,1,21,0,1,d,orange,5b09da13641b1200010eab05,2021-11-03_11h47.26.591,forced_choiceRT_color,2021.2.3,Win32,144.092219,,,,,,,,,,,,,,,,,,,,,,,
0,d,1,0.515,5,2,22,0,1,d,orange,5b09da13641b1200010eab05,2021-11-03_11h47.26.591,forced_choiceRT_color,2021.2.3,Win32,144.092219,,,,,,,,,,,,,,,,,,,,,,,
0,d,1,0.578,5,3,23,0,1,d,orange,5b09da13641b1200010eab05,2021-11-03_11h47.26.591,forced_choiceRT_color,2021.2.3,Win32,144.092219,,,,,,,,,,,,,,,,,,,,,,,
0,f,1,0.607,6,0,24,1,1,f,blue,5b09da13641b1200010eab05,2021-11-03_11h47.26.591,forced_choiceRT_color,2021.2.3,Win32,144.092219,,,,,,,,,,,,,,,,,,,,,,,
0,d,1,0.501,6,1,25,0,1,d,orange,5b09da13641b1200010eab05,2021-11-03_11h47.26.591,forced_choiceRT_color,2021.2.3,Win32,144.092219,,,,,,,,,,,,,,,,,,,,,,,
0,j,1,0.651,6,2,26,2,1,j,red,5b09da13641b1200010eab05,2021-11-03_11h47.26.591,forced_choiceRT_color,2021.2.3,Win32,144.092219,,,,,,,,,,,,,,,,,,,,,,,
0,f,1,0.591,6,3,27,1,1,f,blue,5b09da13641b1200010eab05,2021-11-03_11h47.26.591,forced_choiceRT_color,2021.2.3,Win32,144.092219,,,,,,,,,,,,,,,,,,,,,,,
0,j,1,0.723,7,0,28,2,1,j,red,5b09da13641b1200010eab05,2021-11-03_11h47.26.591,forced_choiceRT_color,2021.2.3,Win32,144.092219,,,,,,,,,,,,,,,,,,,,,,,
0,k,1,0.557,7,1,29,3,1,k,purple,5b09da13641b1200010eab05,2021-11-03_11h47.26.591,forced_choiceRT_color,2021.2.3,Win32,144.092219,,,,,,,,,,,,,,,,,,,,,,,
0,j,1,0.605,7,2,30,2,1,j,red,5b09da13641b1200010eab05,2021-11-03_11h47.26.591,forced_choiceRT_color,2021.2.3,Win32,144.092219,,,,,,,,,,,,,,,,,,,,,,,
0,j,1,0.538,7,3,31,2,1,j,red,5b09da13641b1200010eab05,2021-11-03_11h47.26.591,forced_choiceRT_color,2021.2.3,Win32,144.092219,,,,,,,,,,,,,,,,,,,,,,,
0,d,1,0.48,8,0,32,0,1,d,orange,5b09da13641b1200010eab05,2021-11-03_11h47.26.591,forced_choiceRT_color,2021.2.3,Win32,144.092219,,,,,,,,,,,,,,,,,,,,,,,
0,j,1,0.539,8,1,33,2,1,j,red,5b09da13641b1200010eab05,2021-11-03_11h47.26.591,forced_choiceRT_color,2021.2.3,Win32,144.092219,,,,,,,,,,,,,,,,,,,,,,,
0,k,1,0.545,8,2,34,3,1,k,purple,5b09da13641b1200010eab05,2021-11-03_11h47.26.591,forced_choiceRT_color,2021.2.3,Win32,144.092219,,,,,,,,,,,,,,,,,,,,,,,
0,f,1,0.489,8,3,35,1,1,f,blue,5b09da13641b1200010eab05,2021-11-03_11h47.26.591,forced_choiceRT_color,2021.2.3,Win32,144.092219,,,,,,,,,,,,,,,,,,,,,,,
0,d,1,0.382,9,0,36,0,1,d,orange,5b09da13641b1200010eab05,2021-11-03_11h47.26.591,forced_choiceRT_color,2021.2.3,Win32,144.092219,,,,,,,,,,,,,,,,,,,,,,,
0,f,1,0.578,9,1,37,1,1,f,blue,5b09da13641b1200010eab05,2021-11-03_11h47.26.591,forced_choiceRT_color,2021.2.3,Win32,144.092219,,,,,,,,,,,,,,,,,,,,,,,
0,j,1,0.559,9,2,38,2,1,j,red,5b09da13641b1200010eab05,2021-11-03_11h47.26.591,forced_choiceRT_color,2021.2.3,Win32,144.092219,,,,,,,,,,,,,,,,,,,,,,,
0,f,1,0.501,9,3,39,1,1,f,blue,5b09da13641b1200010eab05,2021-11-03_11h47.26.591,forced_choiceRT_color,2021.2.3,Win32,144.092219,,,,,,,,,,,,,,,,,,,,,,,
0,f,1,0.462,10,0,40,1,1,f,blue,5b09da13641b1200010eab05,2021-11-03_11h47.26.591,forced_choiceRT_color,2021.2.3,Win32,144.092219,,,,,,,,,,,,,,,,,,,,,,,
0,f,1,0.448,10,1,41,1,1,f,blue,5b09da13641b1200010eab05,2021-11-03_11h47.26.591,forced_choiceRT_color,2021.2.3,Win32,144.092219,,,,,,,,,,,,,,,,,,,,,,,
0,d,1,0.393,10,2,42,0,1,d,orange,5b09da13641b1200010eab05,2021-11-03_11h47.26.591,forced_choiceRT_color,2021.2.3,Win32,144.092219,,,,,,,,,,,,,,,,,,,,,,,
0,k,1,0.652,10,3,43,3,1,k,purple,5b09da13641b1200010eab05,2021-11-03_11h47.26.591,forced_choiceRT_color,2021.2.3,Win32,144.092219,,,,,,,,,,,,,,,,,,,,,,,
0,j,1,0.689,11,0,44,2,1,j,red,5b09da13641b1200010eab05,2021-11-03_11h47.26.591,forced_choiceRT_color,2021.2.3,Win32,144.092219,,,,,,,,,,,,,,,,,,,,,,,
0,d,1,0.521,11,1,45,0,1,d,orange,5b09da13641b1200010eab05,2021-11-03_11h47.26.591,forced_choiceRT_color,2021.2.3,Win32,144.092219,,,,,,,,,,,,,,,,,,,,,,,
0,f,1,0.378,11,2,46,1,1,f,blue,5b09da13641b1200010eab05,2021-11-03_11h47.26.591,forced_choiceRT_color,2021.2.3,Win32,144.092219,,,,,,,,,,,,,,,,,,,,,,,
0,d,1,0.496,11,3,47,0,1,d,orange,5b09da13641b1200010eab05,2021-11-03_11h47.26.591,forced_choiceRT_color,2021.2.3,Win32,144.092219,,,,,,,,,,,,,,,,,,,,,,,
0,j,1,0.542,12,0,48,2,1,j,red,5b09da13641b1200010eab05,2021-11-03_11h47.26.591,forced_choiceRT_color,2021.2.3,Win32,144.092219,,,,,,,,,,,,,,,,,,,,,,,
0,f,1,0.564,12,1,49,1,1,f,blue,5b09da13641b1200010eab05,2021-11-03_11h47.26.591,forced_choiceRT_color,2021.2.3,Win32,144.092219,,,,,,,,,,,,,,,,,,,,,,,
0,f,1,0.445,12,2,50,1,1,f,blue,5b09da13641b1200010eab05,2021-11-03_11h47.26.591,forced_choiceRT_color,2021.2.3,Win32,144.092219,,,,,,,,,,,,,,,,,,,,,,,
0,d,1,0.356,12,3,51,0,1,d,orange,5b09da13641b1200010eab05,2021-11-03_11h47.26.591,forced_choiceRT_color,2021.2.3,Win32,144.092219,,,,,,,,,,,,,,,,,,,,,,,
0,j,1,0.675,13,0,52,2,1,j,red,5b09da13641b1200010eab05,2021-11-03_11h47.26.591,forced_choiceRT_color,2021.2.3,Win32,144.092219,,,,,,,,,,,,,,,,,,,,,,,
0,j,1,0.418,13,1,53,2,1,j,red,5b09da13641b1200010eab05,2021-11-03_11h47.26.591,forced_choiceRT_color,2021.2.3,Win32,144.092219,,,,,,,,,,,,,,,,,,,,,,,
0,j,1,0.46,13,2,54,2,1,j,red,5b09da13641b1200010eab05,2021-11-03_11h47.26.591,forced_choiceRT_color,2021.2.3,Win32,144.092219,,,,,,,,,,,,,,,,,,,,,,,
0,j,1,0.412,13,3,55,2,1,j,red,5b09da13641b1200010eab05,2021-11-03_11h47.26.591,forced_choiceRT_color,2021.2.3,Win32,144.092219,,,,,,,,,,,,,,,,,,,,,,,
0,k,1,0.409,14,0,56,3,1,k,purple,5b09da13641b1200010eab05,2021-11-03_11h47.26.591,forced_choiceRT_color,2021.2.3,Win32,144.092219,,,,,,,,,,,,,,,,,,,,,,,
0,f,1,0.571,14,1,57,1,1,f,blue,5b09da13641b1200010eab05,2021-11-03_11h47.26.591,forced_choiceRT_color,2021.2.3,Win32,144.092219,,,,,,,,,,,,,,,,,,,,,,,
0,f,1,0.431,14,2,58,1,1,f,blue,5b09da13641b1200010eab05,2021-11-03_11h47.26.591,forced_choiceRT_color,2021.2.3,Win32,144.092219,,,,,,,,,,,,,,,,,,,,,,,
0,k,1,0.675,14,3,59,3,1,k,purple,5b09da13641b1200010eab05,2021-11-03_11h47.26.591,forced_choiceRT_color,2021.2.3,Win32,144.092219,,,,,,,,,,,,,,,,,,,,,,,
,,,,,,,,,,,5b09da13641b1200010eab05,2021-11-03_11h47.26.591,forced_choiceRT_color,2021.2.3,Win32,144.092219,d,2.251,0,0,0,0,1,,,,,,,,,,,,,,,,
,,,,,,,,,,,5b09da13641b1200010eab05,2021-11-03_11h47.26.591,forced_choiceRT_color,2021.2.3,Win32,144.092219,d,2.14,1,0,1,0,1,,,,,,,,,,,,,,,,
,,,,,,,,,,,5b09da13641b1200010eab05,2021-11-03_11h47.26.591,forced_choiceRT_color,2021.2.3,Win32,144.092219,f,2.056,2,0,2,0,1,,,,,,,,,,,,,,,,
,,,,,,,,,,,5b09da13641b1200010eab05,2021-11-03_11h47.26.591,forced_choiceRT_color,2021.2.3,Win32,144.092219,f,2.065,3,0,3,0,1,,,,,,,,,,,,,,,,
,,,,,,,,,,,5b09da13641b1200010eab05,2021-11-03_11h47.26.591,forced_choiceRT_color,2021.2.3,Win32,144.092219,f,1.997,4,0,4,0,1,,,,,,,,,,,,,,,,
,,,,,,,,,,,5b09da13641b1200010eab05,2021-11-03_11h47.26.591,forced_choiceRT_color,2021.2.3,Win32,144.092219,f,2.051,5,0,5,0,1,,,,,,,,,,,,,,,,
,,,,,,,,,,,5b09da13641b1200010eab05,2021-11-03_11h47.26.591,forced_choiceRT_color,2021.2.3,Win32,144.092219,f,2.054,6,0,6,0,1,,,,,,,,,,,,,,,,
,,,,,,,,,,,5b09da13641b1200010eab05,2021-11-03_11h47.26.591,forced_choiceRT_color,2021.2.3,Win32,144.092219,j,2.134,7,0,7,0,1,,,,,,,,,,,,,,,,
,,,,,,,,,,,5b09da13641b1200010eab05,2021-11-03_11h47.26.591,forced_choiceRT_color,2021.2.3,Win32,144.092219,k,1.924,8,0,8,0,1,,,,,,,,,,,,,,,,
,,,,,,,,,,,5b09da13641b1200010eab05,2021-11-03_11h47.26.591,forced_choiceRT_color,2021.2.3,Win32,144.092219,f,1.93,9,0,9,0,1,,,,,,,,,,,,,,,,
,,,,,,,,,,,5b09da13641b1200010eab05,2021-11-03_11h47.26.591,forced_choiceRT_color,2021.2.3,Win32,144.092219,d,1.947,10,0,10,0,1,,,,,,,,,,,,,,,,
,,,,,,,,,,,5b09da13641b1200010eab05,2021-11-03_11h47.26.591,forced_choiceRT_color,2021.2.3,Win32,144.092219,k,2.079,11,0,11,0,1,,,,,,,,,,,,,,,,
,,,,,,,,,,,5b09da13641b1200010eab05,2021-11-03_11h47.26.591,forced_choiceRT_color,2021.2.3,Win32,144.092219,d,1.982,12,0,12,0,1,,,,,,,,,,,,,,,,
,,,,,,,,,,,5b09da13641b1200010eab05,2021-11-03_11h47.26.591,forced_choiceRT_color,2021.2.3,Win32,144.092219,k,1.976,13,0,13,0,1,,,,,,,,,,,,,,,,
,,,,,,,,,,,5b09da13641b1200010eab05,2021-11-03_11h47.26.591,forced_choiceRT_color,2021.2.3,Win32,144.092219,f,1.807,14,0,14,0,1,,,,,,,,,,,,,,,,
,,,,,,,,,,,5b09da13641b1200010eab05,2021-11-03_11h47.26.591,forced_choiceRT_color,2021.2.3,Win32,144.092219,f,2.096,15,0,15,0,1,,,,,,,,,,,,,,,,
,,,,,,,,,,,5b09da13641b1200010eab05,2021-11-03_11h47.26.591,forced_choiceRT_color,2021.2.3,Win32,144.092219,f,2.063,16,0,16,0,1,,,,,,,,,,,,,,,,
,,,,,,,,,,,5b09da13641b1200010eab05,2021-11-03_11h47.26.591,forced_choiceRT_color,2021.2.3,Win32,144.092219,j,2.086,17,0,17,0,1,,,,,,,,,,,,,,,,
,,,,,,,,,,,5b09da13641b1200010eab05,2021-11-03_11h47.26.591,forced_choiceRT_color,2021.2.3,Win32,144.092219,k,2.036,18,0,18,0,1,,,,,,,,,,,,,,,,
,,,,,,,,,,,5b09da13641b1200010eab05,2021-11-03_11h47.26.591,forced_choiceRT_color,2021.2.3,Win32,144.092219,d,2.017,19,0,19,0,1,,,,,,,,,,,,,,,,
1.7,,,,,,,,,k,purple,5b09da13641b1200010eab05,2021-11-03_11h47.26.591,forced_choiceRT_color,2021.2.3,Win32,144.092219,,,,,,,,1,Ontime,long,j,0,2,0,0,0,3,1,,,,,
0.44,,,,,,,,,k,purple,5b09da13641b1200010eab05,2021-11-03_11h47.26.591,forced_choiceRT_color,2021.2.3,Win32,144.092219,,,,,,,,1,Ontime,long,k,1,2.094,0,1,1,3,1,,,,,
0.09,,,,,,,,,d,orange,5b09da13641b1200010eab05,2021-11-03_11h47.26.591,forced_choiceRT_color,2021.2.3,Win32,144.092219,,,,,,,,1,Ontime,long,d,1,2.017,0,2,2,0,1,,,,,
1.81,,,,,,,,,j,red,5b09da13641b1200010eab05,2021-11-03_11h47.26.591,forced_choiceRT_color,2021.2.3,Win32,144.092219,,,,,,,,1,Slow,long,j,1,2.274,0,3,3,2,1,,,,,
0.12,,,,,,,,,k,purple,5b09da13641b1200010eab05,2021-11-03_11h47.26.591,forced_choiceRT_color,2021.2.3,Win32,144.092219,,,,,,,,1,Ontime,long,k,1,1.973,1,0,4,3,1,,,,,
1.94,,,,,,,,,f,blue,5b09da13641b1200010eab05,2021-11-03_11h47.26.591,forced_choiceRT_color,2021.2.3,Win32,144.092219,,,,,,,,1,Slow,long,f,1,2.21,1,1,5,1,1,,,,,
0.52,,,,,,,,,j,red,5b09da13641b1200010eab05,2021-11-03_11h47.26.591,forced_choiceRT_color,2021.2.3,Win32,144.092219,,,,,,,,1,Slow,long,j,1,2.141,1,2,6,2,1,,,,,
1.06,,,,,,,,,d,orange,5b09da13641b1200010eab05,2021-11-03_11h47.26.591,forced_choiceRT_color,2021.2.3,Win32,144.092219,,,,,,,,1,Ontime,long,d,1,1.967,1,3,7,0,1,,,,,
1.72,,,,,,,,,k,purple,5b09da13641b1200010eab05,2021-11-03_11h47.26.591,forced_choiceRT_color,2021.2.3,Win32,144.092219,,,,,,,,1,Slow,long,k,1,2.186,2,0,8,3,1,,,,,
0.24,,,,,,,,,d,orange,5b09da13641b1200010eab05,2021-11-03_11h47.26.591,forced_choiceRT_color,2021.2.3,Win32,144.092219,,,,,,,,1,Ontime,long,d,1,1.932,2,1,9,0,1,,,,,
0.15,,,,,,,,,d,orange,5b09da13641b1200010eab05,2021-11-03_11h47.26.591,forced_choiceRT_color,2021.2.3,Win32,144.092219,,,,,,,,1,Ontime,long,d,1,1.962,2,2,10,0,1,,,,,
0.26,,,,,,,,,f,blue,5b09da13641b1200010eab05,2021-11-03_11h47.26.591,forced_choiceRT_color,2021.2.3,Win32,144.092219,,,,,,,,1,Ontime,long,f,1,1.927,2,3,11,1,1,,,,,
1.81,,,,,,,,,k,purple,5b09da13641b1200010eab05,2021-11-03_11h47.26.591,forced_choiceRT_color,2021.2.3,Win32,144.092219,,,,,,,,1,Slow,long,k,1,2.273,3,0,12,3,1,,,,,
1.12,,,,,,,,,f,blue,5b09da13641b1200010eab05,2021-11-03_11h47.26.591,forced_choiceRT_color,2021.2.3,Win32,144.092219,,,,,,,,1,Ontime,long,f,1,1.924,3,1,13,1,1,,,,,
1.68,,,,,,,,,f,blue,5b09da13641b1200010eab05,2021-11-03_11h47.26.591,forced_choiceRT_color,2021.2.3,Win32,144.092219,,,,,,,,1,Slow,long,d,0,2.105,3,2,14,1,1,,,,,
1.1,,,,,,,,,j,red,5b09da13641b1200010eab05,2021-11-03_11h47.26.591,forced_choiceRT_color,2021.2.3,Win32,144.092219,,,,,,,,1,Ontime,long,j,1,1.939,3,3,15,2,1,,,,,
1.1,,,,,,,,,f,blue,5b09da13641b1200010eab05,2021-11-03_11h47.26.591,forced_choiceRT_color,2021.2.3,Win32,144.092219,,,,,,,,1,Ontime,long,f,1,1.963,4,0,16,1,1,,,,,
0.72,,,,,,,,,j,red,5b09da13641b1200010eab05,2021-11-03_11h47.26.591,forced_choiceRT_color,2021.2.3,Win32,144.092219,,,,,,,,1,Ontime,long,j,1,1.941,4,1,17,2,1,,,,,
1.12,,,,,,,,,d,orange,5b09da13641b1200010eab05,2021-11-03_11h47.26.591,forced_choiceRT_color,2021.2.3,Win32,144.092219,,,,,,,,1,Ontime,long,d,1,1.927,4,2,18,0,1,,,,,
1.39,,,,,,,,,f,blue,5b09da13641b1200010eab05,2021-11-03_11h47.26.591,forced_choiceRT_color,2021.2.3,Win32,144.092219,,,,,,,,1,Ontime,long,f,1,1.992,4,3,19,1,1,,,,,
0.37,,,,,,,,,k,purple,5b09da13641b1200010eab05,2021-11-03_11h47.26.591,forced_choiceRT_color,2021.2.3,Win32,144.092219,,,,,,,,1,Ontime,long,k,1,1.966,5,0,20,3,1,,,,,
0.72,,,,,,,,,d,orange,5b09da13641b1200010eab05,2021-11-03_11h47.26.591,forced_choiceRT_color,2021.2.3,Win32,144.092219,,,,,,,,1,Ontime,long,d,1,1.951,5,1,21,0,1,,,,,
0.07,,,,,,,,,d,orange,5b09da13641b1200010eab05,2021-11-03_11h47.26.591,forced_choiceRT_color,2021.2.3,Win32,144.092219,,,,,,,,1,Ontime,long,d,1,1.953,5,2,22,0,1,,,,,
0.13,,,,,,,,,k,purple,5b09da13641b1200010eab05,2021-11-03_11h47.26.591,forced_choiceRT_color,2021.2.3,Win32,144.092219,,,,,,,,1,Ontime,long,k,1,1.937,5,3,23,3,1,,,,,
0.33,,,,,,,,,f,blue,5b09da13641b1200010eab05,2021-11-03_11h47.26.591,forced_choiceRT_color,2021.2.3,Win32,144.092219,,,,,,,,1,Ontime,long,f,1,1.959,6,0,24,1,1,,,,,
0.01,,,,,,,,,d,orange,5b09da13641b1200010eab05,2021-11-03_11h47.26.591,forced_choiceRT_color,2021.2.3,Win32,144.092219,,,,,,,,1,Ontime,long,d,1,1.911,6,1,25,0,1,,,,,
1.89,,,,,,,,,j,red,5b09da13641b1200010eab05,2021-11-03_11h47.26.591,forced_choiceRT_color,2021.2.3,Win32,144.092219,,,,,,,,1,Slow,long,j,1,2.321,6,2,26,2,1,,,,,
0.19,,,,,,,,,j,red,5b09da13641b1200010eab05,2021-11-03_11h47.26.591,forced_choiceRT_color,2021.2.3,Win32,144.092219,,,,,,,,1,Ontime,long,j,1,1.976,6,3,27,2,1,,,,,
1.44,,,,,,,,,k,purple,5b09da13641b1200010eab05,2021-11-03_11h47.26.591,forced_choiceRT_color,2021.2.3,Win32,144.092219,,,,,,,,1,Ontime,long,k,1,2.08,7,0,28,3,1,,,,,
1.75,,,,,,,,,d,orange,5b09da13641b1200010eab05,2021-11-03_11h47.26.591,forced_choiceRT_color,2021.2.3,Win32,144.092219,,,,,,,,1,Slow,long,d,1,2.186,7,1,29,0,1,,,,,
1.12,,,,,,,,,f,blue,5b09da13641b1200010eab05,2021-11-03_11h47.26.591,forced_choiceRT_color,2021.2.3,Win32,144.092219,,,,,,,,1,Ontime,long,f,1,1.945,7,2,30,1,1,,,,,
1.63,,,,,,,,,k,purple,5b09da13641b1200010eab05,2021-11-03_11h47.26.591,forced_choiceRT_color,2021.2.3,Win32,144.092219,,,,,,,,1,Slow,long,k,1,2.176,7,3,31,3,1,,,,,
0.83,,,,,,,,,k,purple,5b09da13641b1200010eab05,2021-11-03_11h47.26.591,forced_choiceRT_color,2021.2.3,Win32,144.092219,,,,,,,,1,Ontime,long,k,1,1.962,8,0,32,3,1,,,,,
1.84,,,,,,,,,d,orange,5b09da13641b1200010eab05,2021-11-03_11h47.26.591,forced_choiceRT_color,2021.2.3,Win32,144.092219,,,,,,,,1,Slow,long,d,1,2.147,8,1,33,0,1,,,,,
0.13,,,,,,,,,j,red,5b09da13641b1200010eab05,2021-11-03_11h47.26.591,forced_choiceRT_color,2021.2.3,Win32,144.092219,,,,,,,,1,Ontime,long,f,0,1.947,8,2,34,2,1,,,,,
1.13,,,,,,,,,j,red,5b09da13641b1200010eab05,2021-11-03_11h47.26.591,forced_choiceRT_color,2021.2.3,Win32,144.092219,,,,,,,,1,Ontime,long,f,0,1.904,8,3,35,2,1,,,,,
1.14,,,,,,,,,j,red,5b09da13641b1200010eab05,2021-11-03_11h47.26.591,forced_choiceRT_color,2021.2.3,Win32,144.092219,,,,,,,,1,Ontime,long,f,0,1.938,9,0,36,2,1,,,,,
1.83,,,,,,,,,f,blue,5b09da13641b1200010eab05,2021-11-03_11h47.26.591,forced_choiceRT_color,2021.2.3,Win32,144.092219,,,,,,,,1,Slow,long,d,0,2.187,9,1,37,1,1,,,,,
0.67,,,,,,,,,f,blue,5b09da13641b1200010eab05,2021-11-03_11h47.26.591,forced_choiceRT_color,2021.2.3,Win32,144.092219,,,,,,,,1,Ontime,long,f,1,1.953,9,2,38,1,1,,,,,
1.53,,,,,,,,,j,red,5b09da13641b1200010eab05,2021-11-03_11h47.26.591,forced_choiceRT_color,2021.2.3,Win32,144.092219,,,,,,,,1,Ontime,long,j,1,2.018,9,3,39,2,1,,,,,
,,,,,,,,,,,5b09da13641b1200010eab05,2021-11-03_11h47.26.591,forced_choiceRT_color,2021.2.3,Win32,144.092219,,,,,,,,,,,,,,,,,,,0,0,0,0,1
1.62,,,,,,,,,d,orange,5b09da13641b1200010eab05,2021-11-03_11h47.26.591,forced_choiceRT_color,2021.2.3,Win32,144.092219,,,,,,,,2,Ontime,long,d,1,1.986,0,0,0,0,1,,,,,
1.07,,,,,,,,,d,orange,5b09da13641b1200010eab05,2021-11-03_11h47.26.591,forced_choiceRT_color,2021.2.3,Win32,144.092219,,,,,,,,2,Fast,long,d,1,1.856,0,1,1,0,1,,,,,
0.95,,,,,,,,,j,red,5b09da13641b1200010eab05,2021-11-03_11h47.26.591,forced_choiceRT_color,2021.2.3,Win32,144.092219,,,,,,,,2,Ontime,long,j,1,2.098,0,2,2,2,1,,,,,
0.04,,,,,,,,,f,blue,5b09da13641b1200010eab05,2021-11-03_11h47.26.591,forced_choiceRT_color,2021.2.3,Win32,144.092219,,,,,,,,2,Ontime,long,f,1,1.987,0,3,3,1,1,,,,,
0.12,,,,,,,,,j,red,5b09da13641b1200010eab05,2021-11-03_11h47.26.591,forced_choiceRT_color,2021.2.3,Win32,144.092219,,,,,,,,2,Ontime,long,j,1,1.998,1,0,4,2,1,,,,,
1.76,,,,,,,,,k,purple,5b09da13641b1200010eab05,2021-11-03_11h47.26.591,forced_choiceRT_color,2021.2.3,Win32,144.092219,,,,,,,,2,Slow,long,k,1,2.121,1,1,5,3,1,,,,,
1.9,,,,,,,,,k,purple,5b09da13641b1200010eab05,2021-11-03_11h47.26.591,forced_choiceRT_color,2021.2.3,Win32,144.092219,,,,,,,,2,Slow,long,k,1,2.262,1,2,6,3,1,,,,,
0.69,,,,,,,,,d,orange,5b09da13641b1200010eab05,2021-11-03_11h47.26.591,forced_choiceRT_color,2021.2.3,Win32,144.092219,,,,,,,,2,Ontime,long,d,1,2.029,1,3,7,0,1,,,,,
1.58,,,,,,,,,j,red,5b09da13641b1200010eab05,2021-11-03_11h47.26.591,forced_choiceRT_color,2021.2.3,Win32,144.092219,,,,,,,,2,Slow,long,j,1,2.129,2,0,8,2,1,,,,,
1.17,,,,,,,,,d,orange,5b09da13641b1200010eab05,2021-11-03_11h47.26.591,forced_choiceRT_color,2021.2.3,Win32,144.092219,,,,,,,,2,Ontime,long,d,1,1.987,2,1,9,0,1,,,,,
1.26,,,,,,,,,j,red,5b09da13641b1200010eab05,2021-11-03_11h47.26.591,forced_choiceRT_color,2021.2.3,Win32,144.092219,,,,,,,,2,Ontime,long,j,1,2.029,2,2,10,2,1,,,,,
1.77,,,,,,,,,j,red,5b09da13641b1200010eab05,2021-11-03_11h47.26.591,forced_choiceRT_color,2021.2.3,Win32,144.092219,,,,,,,,2,Slow,long,j,1,2.244,2,3,11,2,1,,,,,
1.79,,,,,,,,,f,blue,5b09da13641b1200010eab05,2021-11-03_11h47.26.591,forced_choiceRT_color,2021.2.3,Win32,144.092219,,,,,,,,2,Slow,long,d,0,2.217,3,0,12,1,1,,,,,
0.99,,,,,,,,,k,purple,5b09da13641b1200010eab05,2021-11-03_11h47.26.591,forced_choiceRT_color,2021.2.3,Win32,144.092219,,,,,,,,2,Ontime,long,k,1,2.002,3,1,13,3,1,,,,,
0.22,,,,,,,,,j,red,5b09da13641b1200010eab05,2021-11-03_11h47.26.591,forced_choiceRT_color,2021.2.3,Win32,144.092219,,,,,,,,2,Ontime,long,j,1,2.003,3,2,14,2,1,,,,,
1.14,,,,,,,,,d,orange,5b09da13641b1200010eab05,2021-11-03_11h47.26.591,forced_choiceRT_color,2021.2.3,Win32,144.092219,,,,,,,,2,Ontime,long,d,1,2.027,3,3,15,0,1,,,,,
1.45,,,,,,,,,j,red,5b09da13641b1200010eab05,2021-11-03_11h47.26.591,forced_choiceRT_color,2021.2.3,Win32,144.092219,,,,,,,,2,Ontime,long,j,1,2.025,4,0,16,2,1,,,,,
0.89,,,,,,,,,d,orange,5b09da13641b1200010eab05,2021-11-03_11h47.26.591,forced_choiceRT_color,2021.2.3,Win32,144.092219,,,,,,,,2,Ontime,long,d,1,2.064,4,1,17,0,1,,,,,
0.54,,,,,,,,,f,blue,5b09da13641b1200010eab05,2021-11-03_11h47.26.591,forced_choiceRT_color,2021.2.3,Win32,144.092219,,,,,,,,2,Ontime,long,f,1,1.964,4,2,18,1,1,,,,,
0.95,,,,,,,,,j,red,5b09da13641b1200010eab05,2021-11-03_11h47.26.591,forced_choiceRT_color,2021.2.3,Win32,144.092219,,,,,,,,2,Ontime,long,j,1,1.911,4,3,19,2,1,,,,,
1.29,,,,,,,,,j,red,5b09da13641b1200010eab05,2021-11-03_11h47.26.591,forced_choiceRT_color,2021.2.3,Win32,144.092219,,,,,,,,2,Ontime,long,j,1,2.074,5,0,20,2,1,,,,,
0.02,,,,,,,,,k,purple,5b09da13641b1200010eab05,2021-11-03_11h47.26.591,forced_choiceRT_color,2021.2.3,Win32,144.092219,,,,,,,,2,Ontime,long,k,1,1.973,5,1,21,3,1,,,,,
0.72,,,,,,,,,d,orange,5b09da13641b1200010eab05,2021-11-03_11h47.26.591,forced_choiceRT_color,2021.2.3,Win32,144.092219,,,,,,,,2,Ontime,long,d,1,1.962,5,2,22,0,1,,,,,
1.64,,,,,,,,,k,purple,5b09da13641b1200010eab05,2021-11-03_11h47.26.591,forced_choiceRT_color,2021.2.3,Win32,144.092219,,,,,,,,2,Slow,long,k,1,2.156,5,3,23,3,1,,,,,
1.59,,,,,,,,,f,blue,5b09da13641b1200010eab05,2021-11-03_11h47.26.591,forced_choiceRT_color,2021.2.3,Win32,144.092219,,,,,,,,2,Slow,long,f,1,2.134,6,0,24,1,1,,,,,
0.73,,,,,,,,,d,orange,5b09da13641b1200010eab05,2021-11-03_11h47.26.591,forced_choiceRT_color,2021.2.3,Win32,144.092219,,,,,,,,2,Ontime,long,d,1,1.987,6,1,25,0,1,,,,,
0.52,,,,,,,,,j,red,5b09da13641b1200010eab05,2021-11-03_11h47.26.591,forced_choiceRT_color,2021.2.3,Win32,144.092219,,,,,,,,2,Ontime,long,j,1,1.975,6,2,26,2,1,,,,,
0.42,,,,,,,,,k,purple,5b09da13641b1200010eab05,2021-11-03_11h47.26.591,forced_choiceRT_color,2021.2.3,Win32,144.092219,,,,,,,,2,Ontime,long,k,1,1.952,6,3,27,3,1,,,,,
1.64,,,,,,,,,f,blue,5b09da13641b1200010eab05,2021-11-03_11h47.26.591,forced_choiceRT_color,2021.2.3,Win32,144.092219,,,,,,,,2,Slow,long,f,1,2.119,7,0,28,1,1,,,,,
1.28,,,,,,,,,d,orange,5b09da13641b1200010eab05,2021-11-03_11h47.26.591,forced_choiceRT_color,2021.2.3,Win32,144.092219,,,,,,,,2,Ontime,long,d,1,2.043,7,1,29,0,1,,,,,
1.4,,,,,,,,,f,blue,5b09da13641b1200010eab05,2021-11-03_11h47.26.591,forced_choiceRT_color,2021.2.3,Win32,144.092219,,,,,,,,2,Fast,long,f,1,1.795,7,2,30,1,1,,,,,
1.75,,,,,,,,,f,blue,5b09da13641b1200010eab05,2021-11-03_11h47.26.591,forced_choiceRT_color,2021.2.3,Win32,144.092219,,,,,,,,2,Slow,long,f,1,2.267,7,3,31,1,1,,,,,
0.52,,,,,,,,,d,orange,5b09da13641b1200010eab05,2021-11-03_11h47.26.591,forced_choiceRT_color,2021.2.3,Win32,144.092219,,,,,,,,2,Ontime,long,d,1,2.093,8,0,32,0,1,,,,,
1.31,,,,,,,,,f,blue,5b09da13641b1200010eab05,2021-11-03_11h47.26.591,forced_choiceRT_color,2021.2.3,Win32,144.092219,,,,,,,,2,Ontime,long,f,1,2.076,8,1,33,1,1,,,,,
1.34,,,,,,,,,f,blue,5b09da13641b1200010eab05,2021-11-03_11h47.26.591,forced_choiceRT_color,2021.2.3,Win32,144.092219,,,,,,,,2,Ontime,long,f,1,2.081,8,2,34,1,1,,,,,
0.93,,,,,,,,,k,purple,5b09da13641b1200010eab05,2021-11-03_11h47.26.591,forced_choiceRT_color,2021.2.3,Win32,144.092219,,,,,,,,2,Ontime,long,k,1,1.973,8,3,35,3,1,,,,,
1.93,,,,,,,,,f,blue,5b09da13641b1200010eab05,2021-11-03_11h47.26.591,forced_choiceRT_color,2021.2.3,Win32,144.092219,,,,,,,,2,Slow,long,f,1,2.347,9,0,36,1,1,,,,,
1.91,,,,,,,,,k,purple,5b09da13641b1200010eab05,2021-11-03_11h47.26.591,forced_choiceRT_color,2021.2.3,Win32,144.092219,,,,,,,,2,Slow,long,d,0,2.425,9,1,37,3,1,,,,,
1.74,,,,,,,,,k,purple,5b09da13641b1200010eab05,2021-11-03_11h47.26.591,forced_choiceRT_color,2021.2.3,Win32,144.092219,,,,,,,,2,Slow,long,k,1,2.203,9,2,38,3,1,,,,,
0.72,,,,,,,,,k,purple,5b09da13641b1200010eab05,2021-11-03_11h47.26.591,forced_choiceRT_color,2021.2.3,Win32,144.092219,,,,,,,,2,Ontime,long,k,1,1.976,9,3,39,3,1,,,,,
,,,,,,,,,,,5b09da13641b1200010eab05,2021-11-03_11h47.26.591,forced_choiceRT_color,2021.2.3,Win32,144.092219,,,,,,,,,,,,,,,,,,,1,0,1,0,1
1.63,,,,,,,,,d,orange,5b09da13641b1200010eab05,2021-11-03_11h47.26.591,forced_choiceRT_color,2021.2.3,Win32,144.092219,,,,,,,,3,Ontime,long,d,1,2.064,0,0,0,0,1,,,,,
0.81,,,,,,,,,k,purple,5b09da13641b1200010eab05,2021-11-03_11h47.26.591,forced_choiceRT_color,2021.2.3,Win32,144.092219,,,,,,,,3,Ontime,long,k,1,2.012,0,1,1,3,1,,,,,
1.62,,,,,,,,,k,purple,5b09da13641b1200010eab05,2021-11-03_11h47.26.591,forced_choiceRT_color,2021.2.3,Win32,144.092219,,,,,,,,3,Ontime,long,k,1,2.065,0,2,2,3,1,,,,,
1.61,,,,,,,,,k,purple,5b09da13641b1200010eab05,2021-11-03_11h47.26.591,forced_choiceRT_color,2021.2.3,Win32,144.092219,,,,,,,,3,Ontime,long,k,1,2.015,0,3,3,3,1,,,,,
1.92,,,,,,,,,f,blue,5b09da13641b1200010eab05,2021-11-03_11h47.26.591,forced_choiceRT_color,2021.2.3,Win32,144.092219,,,,,,,,3,Slow,long,f,1,2.288,1,0,4,1,1,,,,,
0.68,,,,,,,,,f,blue,5b09da13641b1200010eab05,2021-11-03_11h47.26.591,forced_choiceRT_color,2021.2.3,Win32,144.092219,,,,,,,,3,Ontime,long,f,1,2.016,1,1,5,1,1,,,,,
0.73,,,,,,,,,j,red,5b09da13641b1200010eab05,2021-11-03_11h47.26.591,forced_choiceRT_color,2021.2.3,Win32,144.092219,,,,,,,,3,Ontime,long,j,1,2.056,1,2,6,2,1,,,,,
1.25,,,,,,,,,k,purple,5b09da13641b1200010eab05,2021-11-03_11h47.26.591,forced_choiceRT_color,2021.2.3,Win32,144.092219,,,,,,,,3,Ontime,long,k,1,1.912,1,3,7,3,1,,,,,
0.27,,,,,,,,,j,red,5b09da13641b1200010eab05,2021-11-03_11h47.26.591,forced_choiceRT_color,2021.2.3,Win32,144.092219,,,,,,,,3,Ontime,long,j,1,2.028,2,0,8,2,1,,,,,
0.27,,,,,,,,,f,blue,5b09da13641b1200010eab05,2021-11-03_11h47.26.591,forced_choiceRT_color,2021.2.3,Win32,144.092219,,,,,,,,3,Ontime,long,f,1,2.06,2,1,9,1,1,,,,,
1.44,,,,,,,,,j,red,5b09da13641b1200010eab05,2021-11-03_11h47.26.591,forced_choiceRT_color,2021.2.3,Win32,144.092219,,,,,,,,3,Slow,long,j,1,2.208,2,2,10,2,1,,,,,
0.49,,,,,,,,,k,purple,5b09da13641b1200010eab05,2021-11-03_11h47.26.591,forced_choiceRT_color,2021.2.3,Win32,144.092219,,,,,,,,3,Ontime,long,k,1,2.084,2,3,11,3,1,,,,,
1.79,,,,,,,,,d,orange,5b09da13641b1200010eab05,2021-11-03_11h47.26.591,forced_choiceRT_color,2021.2.3,Win32,144.092219,,,,,,,,3,Slow,long,d,1,2.159,3,0,12,0,1,,,,,
0.02,,,,,,,,,f,blue,5b09da13641b1200010eab05,2021-11-03_11h47.26.591,forced_choiceRT_color,2021.2.3,Win32,144.092219,,,,,,,,3,Ontime,long,f,1,2.001,3,1,13,1,1,,,,,
1.75,,,,,,,,,f,blue,5b09da13641b1200010eab05,2021-11-03_11h47.26.591,forced_choiceRT_color,2021.2.3,Win32,144.092219,,,,,,,,3,Slow,long,f,1,2.154,3,2,14,1,1,,,,,
1.49,,,,,,,,,j,red,5b09da13641b1200010eab05,2021-11-03_11h47.26.591,forced_choiceRT_color,2021.2.3,Win32,144.092219,,,,,,,,3,Slow,long,j,1,2.151,3,3,15,2,1,,,,,
0.09,,,,,,,,,d,orange,5b09da13641b1200010eab05,2021-11-03_11h47.26.591,forced_choiceRT_color,2021.2.3,Win32,144.092219,,,,,,,,3,Ontime,long,d,1,2.016,4,0,16,0,1,,,,,
0.13,,,,,,,,,j,red,5b09da13641b1200010eab05,2021-11-03_11h47.26.591,forced_choiceRT_color,2021.2.3,Win32,144.092219,,,,,,,,3,Ontime,long,j,1,1.938,4,1,17,2,1,,,,,
1.53,,,,,,,,,d,orange,5b09da13641b1200010eab05,2021-11-03_11h47.26.591,forced_choiceRT_color,2021.2.3,Win32,144.092219,,,,,,,,3,Slow,long,d,1,2.131,4,2,18,0,1,,,,,
0.91,,,,,,,,,f,blue,5b09da13641b1200010eab05,2021-11-03_11h47.26.591,forced_choiceRT_color,2021.2.3,Win32,144.092219,,,,,,,,3,Ontime,long,f,1,2.024,4,3,19,1,1,,,,,
1.91,,,,,,,,,f,blue,5b09da13641b1200010eab05,2021-11-03_11h47.26.591,forced_choiceRT_color,2021.2.3,Win32,144.092219,,,,,,,,3,Slow,long,f,1,2.245,5,0,20,1,1,,,,,
0.86,,,,,,,,,j,red,5b09da13641b1200010eab05,2021-11-03_11h47.26.591,forced_choiceRT_color,2021.2.3,Win32,144.092219,,,,,,,,3,Ontime,long,j,1,2.041,5,1,21,2,1,,,,,
0.74,,,,,,,,,d,orange,5b09da13641b1200010eab05,2021-11-03_11h47.26.591,forced_choiceRT_color,2021.2.3,Win32,144.092219,,,,,,,,3,Ontime,long,d,1,1.955,5,2,22,0,1,,,,,
1.47,,,,,,,,,f,blue,5b09da13641b1200010eab05,2021-11-03_11h47.26.591,forced_choiceRT_color,2021.2.3,Win32,144.092219,,,,,,,,3,Ontime,long,j,0,2.079,5,3,23,1,1,,,,,
0.05,,,,,,,,,k,purple,5b09da13641b1200010eab05,2021-11-03_11h47.26.591,forced_choiceRT_color,2021.2.3,Win32,144.092219,,,,,,,,3,Fast,long,k,1,1.668,6,0,24,3,1,,,,,
1.75,,,,,,,,,j,red,5b09da13641b1200010eab05,2021-11-03_11h47.26.591,forced_choiceRT_color,2021.2.3,Win32,144.092219,,,,,,,,3,Slow,long,f,0,2.183,6,1,25,2,1,,,,,
1.87,,,,,,,,,j,red,5b09da13641b1200010eab05,2021-11-03_11h47.26.591,forced_choiceRT_color,2021.2.3,Win32,144.092219,,,,,,,,3,Slow,long,j,1,2.536,6,2,26,2,1,,,,,
0.51,,,,,,,,,j,red,5b09da13641b1200010eab05,2021-11-03_11h47.26.591,forced_choiceRT_color,2021.2.3,Win32,144.092219,,,,,,,,3,Ontime,long,j,1,1.974,6,3,27,2,1,,,,,
0.96,,,,,,,,,j,red,5b09da13641b1200010eab05,2021-11-03_11h47.26.591,forced_choiceRT_color,2021.2.3,Win32,144.092219,,,,,,,,3,Ontime,long,j,1,2.017,7,0,28,2,1,,,,,
1.31,,,,,,,,,d,orange,5b09da13641b1200010eab05,2021-11-03_11h47.26.591,forced_choiceRT_color,2021.2.3,Win32,144.092219,,,,,,,,3,Ontime,long,d,1,2.045,7,1,29,0,1,,,,,
0.18,,,,,,,,,k,purple,5b09da13641b1200010eab05,2021-11-03_11h47.26.591,forced_choiceRT_color,2021.2.3,Win32,144.092219,,,,,,,,3,Ontime,long,k,1,2.035,7,2,30,3,1,,,,,
1.87,,,,,,,,,k,purple,5b09da13641b1200010eab05,2021-11-03_11h47.26.591,forced_choiceRT_color,2021.2.3,Win32,144.092219,,,,,,,,3,Slow,long,k,1,2.236,7,3,31,3,1,,,,,
1.56,,,,,,,,,f,blue,5b09da13641b1200010eab05,2021-11-03_11h47.26.591,forced_choiceRT_color,2021.2.3,Win32,144.092219,,,,,,,,3,Ontime,long,f,1,2.056,8,0,32,1,1,,,,,
0.38,,,,,,,,,d,orange,5b09da13641b1200010eab05,2021-11-03_11h47.26.591,forced_choiceRT_color,2021.2.3,Win32,144.092219,,,,,,,,3,Ontime,long,d,1,1.981,8,1,33,0,1,,,,,
1.04,,,,,,,,,k,purple,5b09da13641b1200010eab05,2021-11-03_11h47.26.591,forced_choiceRT_color,2021.2.3,Win32,144.092219,,,,,,,,3,Ontime,long,k,1,2.009,8,2,34,3,1,,,,,
0,,,,,,,,,d,orange,5b09da13641b1200010eab05,2021-11-03_11h47.26.591,forced_choiceRT_color,2021.2.3,Win32,144.092219,,,,,,,,3,Ontime,long,d,1,1.964,8,3,35,0,1,,,,,
0.17,,,,,,,,,k,purple,5b09da13641b1200010eab05,2021-11-03_11h47.26.591,forced_choiceRT_color,2021.2.3,Win32,144.092219,,,,,,,,3,Ontime,long,k,1,2.023,9,0,36,3,1,,,,,
1.31,,,,,,,,,d,orange,5b09da13641b1200010eab05,2021-11-03_11h47.26.591,forced_choiceRT_color,2021.2.3,Win32,144.092219,,,,,,,,3,Ontime,long,d,1,2.091,9,1,37,0,1,,,,,
1.16,,,,,,,,,f,blue,5b09da13641b1200010eab05,2021-11-03_11h47.26.591,forced_choiceRT_color,2021.2.3,Win32,144.092219,,,,,,,,3,Ontime,long,f,1,2.05,9,2,38,1,1,,,,,
1.95,,,,,,,,,d,orange,5b09da13641b1200010eab05,2021-11-03_11h47.26.591,forced_choiceRT_color,2021.2.3,Win32,144.092219,,,,,,,,3,Slow,long,d,1,2.37,9,3,39,0,1,,,,,
,,,,,,,,,,,5b09da13641b1200010eab05,2021-11-03_11h47.26.591,forced_choiceRT_color,2021.2.3,Win32,144.092219,,,,,,,,,,,,,,,,,,,2,0,2,0,1
0.68,,,,,,,,,k,purple,5b09da13641b1200010eab05,2021-11-03_11h47.26.591,forced_choiceRT_color,2021.2.3,Win32,144.092219,,,,,,,,4,Ontime,long,k,1,2.096,0,0,0,3,1,,,,,
0.93,,,,,,,,,j,red,5b09da13641b1200010eab05,2021-11-03_11h47.26.591,forced_choiceRT_color,2021.2.3,Win32,144.092219,,,,,,,,4,Slow,long,j,1,2.102,0,1,1,2,1,,,,,
0.66,,,,,,,,,j,red,5b09da13641b1200010eab05,2021-11-03_11h47.26.591,forced_choiceRT_color,2021.2.3,Win32,144.092219,,,,,,,,4,Ontime,long,j,1,1.987,0,2,2,2,1,,,,,
1.84,,,,,,,,,k,purple,5b09da13641b1200010eab05,2021-11-03_11h47.26.591,forced_choiceRT_color,2021.2.3,Win32,144.092219,,,,,,,,4,Slow,long,k,1,2.158,0,3,3,3,1,,,,,
1.19,,,,,,,,,j,red,5b09da13641b1200010eab05,2021-11-03_11h47.26.591,forced_choiceRT_color,2021.2.3,Win32,144.092219,,,,,,,,4,Ontime,long,j,1,1.932,1,0,4,2,1,,,,,
1.97,,,,,,,,,d,orange,5b09da13641b1200010eab05,2021-11-03_11h47.26.591,forced_choiceRT_color,2021.2.3,Win32,144.092219,,,,,,,,4,Slow,long,d,1,2.355,1,1,5,0,1,,,,,
1.53,,,,,,,,,j,red,5b09da13641b1200010eab05,2021-11-03_11h47.26.591,forced_choiceRT_color,2021.2.3,Win32,144.092219,,,,,,,,4,Slow,long,j,1,2.155,1,2,6,2,1,,,,,
0.01,,,,,,,,,f,blue,5b09da13641b1200010eab05,2021-11-03_11h47.26.591,forced_choiceRT_color,2021.2.3,Win32,144.092219,,,,,,,,4,Ontime,long,f,1,1.947,1,3,7,1,1,,,,,
0.49,,,,,,,,,k,purple,5b09da13641b1200010eab05,2021-11-03_11h47.26.591,forced_choiceRT_color,2021.2.3,Win32,144.092219,,,,,,,,4,Ontime,long,k,1,1.938,2,0,8,3,1,,,,,
1.57,,,,,,,,,f,blue,5b09da13641b1200010eab05,2021-11-03_11h47.26.591,forced_choiceRT_color,2021.2.3,Win32,144.092219,,,,,,,,4,Slow,long,j,0,2.141,2,1,9,1,1,,,,,
0.49,,,,,,,,,j,red,5b09da13641b1200010eab05,2021-11-03_11h47.26.591,forced_choiceRT_color,2021.2.3,Win32,144.092219,,,,,,,,4,Ontime,long,j,1,1.974,2,2,10,2,1,,,,,
0.58,,,,,,,,,j,red,5b09da13641b1200010eab05,2021-11-03_11h47.26.591,forced_choiceRT_color,2021.2.3,Win32,144.092219,,,,,,,,4,Ontime,long,j,1,1.903,2,3,11,2,1,,,,,
0.91,,,,,,,,,k,purple,5b09da13641b1200010eab05,2021-11-03_11h47.26.591,forced_choiceRT_color,2021.2.3,Win32,144.092219,,,,,,,,4,Ontime,long,k,1,1.952,3,0,12,3,1,,,,,
1.12,,,,,,,,,k,purple,5b09da13641b1200010eab05,2021-11-03_11h47.26.591,forced_choiceRT_color,2021.2.3,Win32,144.092219,,,,,,,,4,Ontime,long,k,1,1.948,3,1,13,3,1,,,,,
1.75,,,,,,,,,j,red,5b09da13641b1200010eab05,2021-11-03_11h47.26.591,forced_choiceRT_color,2021.2.3,Win32,144.092219,,,,,,,,4,Slow,long,d,0,2.154,3,2,14,2,1,,,,,
1.31,,,,,,,,,d,orange,5b09da13641b1200010eab05,2021-11-03_11h47.26.591,forced_choiceRT_color,2021.2.3,Win32,144.092219,,,,,,,,4,Ontime,long,d,1,2.059,3,3,15,0,1,,,,,
0.97,,,,,,,,,k,purple,5b09da13641b1200010eab05,2021-11-03_11h47.26.591,forced_choiceRT_color,2021.2.3,Win32,144.092219,,,,,,,,4,Ontime,long,k,1,2.005,4,0,16,3,1,,,,,
0.09,,,,,,,,,d,orange,5b09da13641b1200010eab05,2021-11-03_11h47.26.591,forced_choiceRT_color,2021.2.3,Win32,144.092219,,,,,,,,4,Ontime,long,d,1,1.954,4,1,17,0,1,,,,,
0.37,,,,,,,,,j,red,5b09da13641b1200010eab05,2021-11-03_11h47.26.591,forced_choiceRT_color,2021.2.3,Win32,144.092219,,,,,,,,4,Ontime,long,j,1,1.976,4,2,18,2,1,,,,,
1.53,,,,,,,,,k,purple,5b09da13641b1200010eab05,2021-11-03_11h47.26.591,forced_choiceRT_color,2021.2.3,Win32,144.092219,,,,,,,,4,Slow,long,k,1,2.168,4,3,19,3,1,,,,,
0.06,,,,,,,,,d,orange,5b09da13641b1200010eab05,2021-11-03_11h47.26.591,forced_choiceRT_color,2021.2.3,Win32,144.092219,,,,,,,,4,Ontime,long,d,1,1.939,5,0,20,0,1,,,,,
0.6,,,,,,,,,k,purple,5b09da13641b1200010eab05,2021-11-03_11h47.26.591,forced_choiceRT_color,2021.2.3,Win32,144.092219,,,,,,,,4,Ontime,long,k,1,1.922,5,1,21,3,1,,,,,
1.23,,,,,,,,,f,blue,5b09da13641b1200010eab05,2021-11-03_11h47.26.591,forced_choiceRT_color,2021.2.3,Win32,144.092219,,,,,,,,4,Ontime,long,f,1,2.03,5,2,22,1,1,,,,,
1.5,,,,,,,,,j,red,5b09da13641b1200010eab05,2021-11-03_11h47.26.591,forced_choiceRT_color,2021.2.3,Win32,144.092219,,,,,,,,4,Ontime,long,d,0,1.937,5,3,23,2,1,,,,,
1.31,,,,,,,,,f,blue,5b09da13641b1200010eab05,2021-11-03_11h47.26.591,forced_choiceRT_color,2021.2.3,Win32,144.092219,,,,,,,,4,Ontime,long,f,1,2.013,6,0,24,1,1,,,,,
0.29,,,,,,,,,j,red,5b09da13641b1200010eab05,2021-11-03_11h47.26.591,forced_choiceRT_color,2021.2.3,Win32,144.092219,,,,,,,,4,Ontime,long,j,1,1.956,6,1,25,2,1,,,,,
1.67,,,,,,,,,d,orange,5b09da13641b1200010eab05,2021-11-03_11h47.26.591,forced_choiceRT_color,2021.2.3,Win32,144.092219,,,,,,,,4,Ontime,long,d,1,2.078,6,2,26,0,1,,,,,
0.93,,,,,,,,,d,orange,5b09da13641b1200010eab05,2021-11-03_11h47.26.591,forced_choiceRT_color,2021.2.3,Win32,144.092219,,,,,,,,4,Ontime,long,d,1,1.947,6,3,27,0,1,,,,,
0.65,,,,,,,,,f,blue,5b09da13641b1200010eab05,2021-11-03_11h47.26.591,forced_choiceRT_color,2021.2.3,Win32,144.092219,,,,,,,,4,Ontime,long,f,1,1.955,7,0,28,1,1,,,,,
0.87,,,,,,,,,d,orange,5b09da13641b1200010eab05,2021-11-03_11h47.26.591,forced_choiceRT_color,2021.2.3,Win32,144.092219,,,,,,,,4,Ontime,long,d,1,1.948,7,1,29,0,1,,,,,
1.28,,,,,,,,,d,orange,5b09da13641b1200010eab05,2021-11-03_11h47.26.591,forced_choiceRT_color,2021.2.3,Win32,144.092219,,,,,,,,4,Ontime,long,d,1,2.02,7,2,30,0,1,,,,,
1.48,,,,,,,,,d,orange,5b09da13641b1200010eab05,2021-11-03_11h47.26.591,forced_choiceRT_color,2021.2.3,Win32,144.092219,,,,,,,,4,Fast,long,d,1,1.869,7,3,31,0,1,,,,,
0.54,,,,,,,,,f,blue,5b09da13641b1200010eab05,2021-11-03_11h47.26.591,forced_choiceRT_color,2021.2.3,Win32,144.092219,,,,,,,,4,Ontime,long,f,1,2.017,8,0,32,1,1,,,,,
0.24,,,,,,,,,d,orange,5b09da13641b1200010eab05,2021-11-03_11h47.26.591,forced_choiceRT_color,2021.2.3,Win32,144.092219,,,,,,,,4,Ontime,long,d,1,1.918,8,1,33,0,1,,,,,
1.31,,,,,,,,,k,purple,5b09da13641b1200010eab05,2021-11-03_11h47.26.591,forced_choiceRT_color,2021.2.3,Win32,144.092219,,,,,,,,4,Ontime,long,k,1,1.96,8,2,34,3,1,,,,,
1.31,,,,,,,,,f,blue,5b09da13641b1200010eab05,2021-11-03_11h47.26.591,forced_choiceRT_color,2021.2.3,Win32,144.092219,,,,,,,,4,Slow,long,f,1,2.101,8,3,35,1,1,,,,,
1.73,,,,,,,,,f,blue,5b09da13641b1200010eab05,2021-11-03_11h47.26.591,forced_choiceRT_color,2021.2.3,Win32,144.092219,,,,,,,,4,Slow,long,f,1,2.277,9,0,36,1,1,,,,,
0.81,,,,,,,,,f,blue,5b09da13641b1200010eab05,2021-11-03_11h47.26.591,forced_choiceRT_color,2021.2.3,Win32,144.092219,,,,,,,,4,Ontime,long,f,1,1.995,9,1,37,1,1,,,,,
1.13,,,,,,,,,f,blue,5b09da13641b1200010eab05,2021-11-03_11h47.26.591,forced_choiceRT_color,2021.2.3,Win32,144.092219,,,,,,,,4,Slow,long,f,1,2.106,9,2,38,1,1,,,,,
0.05,,,,,,,,,k,purple,5b09da13641b1200010eab05,2021-11-03_11h47.26.591,forced_choiceRT_color,2021.2.3,Win32,144.092219,,,,,,,,4,Ontime,long,k,1,1.988,9,3,39,3,1,,,,,
,,,,,,,,,,,5b09da13641b1200010eab05,2021-11-03_11h47.26.591,forced_choiceRT_color,2021.2.3,Win32,144.092219,,,,,,,,,,,,,,,,,,,3,0,3,0,1
0.31,,,,,,,,,k,purple,5b09da13641b1200010eab05,2021-11-03_11h47.26.591,forced_choiceRT_color,2021.2.3,Win32,144.092219,,,,,,,,5,Ontime,long,k,1,2.017,0,0,0,3,1,,,,,
0.29,,,,,,,,,f,blue,5b09da13641b1200010eab05,2021-11-03_11h47.26.591,forced_choiceRT_color,2021.2.3,Win32,144.092219,,,,,,,,5,Ontime,long,f,1,1.983,0,1,1,1,1,,,,,
1.81,,,,,,,,,f,blue,5b09da13641b1200010eab05,2021-11-03_11h47.26.591,forced_choiceRT_color,2021.2.3,Win32,144.092219,,,,,,,,5,Slow,long,f,1,2.163,0,2,2,1,1,,,,,
0,,,,,,,,,d,orange,5b09da13641b1200010eab05,2021-11-03_11h47.26.591,forced_choiceRT_color,2021.2.3,Win32,144.092219,,,,,,,,5,Ontime,long,d,1,2.008,0,3,3,0,1,,,,,
0.39,,,,,,,,,k,purple,5b09da13641b1200010eab05,2021-11-03_11h47.26.591,forced_choiceRT_color,2021.2.3,Win32,144.092219,,,,,,,,5,Ontime,long,k,1,1.98,1,0,4,3,1,,,,,
0.72,,,,,,,,,k,purple,5b09da13641b1200010eab05,2021-11-03_11h47.26.591,forced_choiceRT_color,2021.2.3,Win32,144.092219,,,,,,,,5,Ontime,long,k,1,2.009,1,1,5,3,1,,,,,
0.11,,,,,,,,,f,blue,5b09da13641b1200010eab05,2021-11-03_11h47.26.591,forced_choiceRT_color,2021.2.3,Win32,144.092219,,,,,,,,5,Ontime,long,f,1,2.002,1,2,6,1,1,,,,,
1.05,,,,,,,,,j,red,5b09da13641b1200010eab05,2021-11-03_11h47.26.591,forced_choiceRT_color,2021.2.3,Win32,144.092219,,,,,,,,5,Ontime,long,j,1,2.051,1,3,7,2,1,,,,,
0.47,,,,,,,,,k,purple,5b09da13641b1200010eab05,2021-11-03_11h47.26.591,forced_choiceRT_color,2021.2.3,Win32,144.092219,,,,,,,,5,Ontime,long,k,1,2.038,2,0,8,3,1,,,,,
1.51,,,,,,,,,d,orange,5b09da13641b1200010eab05,2021-11-03_11h47.26.591,forced_choiceRT_color,2021.2.3,Win32,144.092219,,,,,,,,5,Ontime,long,d,1,1.973,2,1,9,0,1,,,,,
0.16,,,,,,,,,f,blue,5b09da13641b1200010eab05,2021-11-03_11h47.26.591,forced_choiceRT_color,2021.2.3,Win32,144.092219,,,,,,,,5,Ontime,long,f,1,2.056,2,2,10,1,1,,,,,
0.47,,,,,,,,,k,purple,5b09da13641b1200010eab05,2021-11-03_11h47.26.591,forced_choiceRT_color,2021.2.3,Win32,144.092219,,,,,,,,5,Ontime,long,k,1,1.995,2,3,11,3,1,,,,,
1.19,,,,,,,,,f,blue,5b09da13641b1200010eab05,2021-11-03_11h47.26.591,forced_choiceRT_color,2021.2.3,Win32,144.092219,,,,,,,,5,Ontime,long,f,1,1.966,3,0,12,1,1,,,,,
1.24,,,,,,,,,f,blue,5b09da13641b1200010eab05,2021-11-03_11h47.26.591,forced_choiceRT_color,2021.2.3,Win32,144.092219,,,,,,,,5,Fast,long,f,1,1.619,3,1,13,1,1,,,,,
1.08,,,,,,,,,j,red,5b09da13641b1200010eab05,2021-11-03_11h47.26.591,forced_choiceRT_color,2021.2.3,Win32,144.092219,,,,,,,,5,Ontime,long,j,1,1.996,3,2,14,2,1,,,,,
1.79,,,,,,,,,f,blue,5b09da13641b1200010eab05,2021-11-03_11h47.26.591,forced_choiceRT_color,2021.2.3,Win32,144.092219,,,,,,,,5,Slow,long,k,0,2.107,3,3,15,1,1,,,,,
1.78,,,,,,,,,d,orange,5b09da13641b1200010eab05,2021-11-03_11h47.26.591,forced_choiceRT_color,2021.2.3,Win32,144.092219,,,,,,,,5,Ontime,long,f,0,2.001,4,0,16,0,1,,,,,
1.26,,,,,,,,,j,red,5b09da13641b1200010eab05,2021-11-03_11h47.26.591,forced_choiceRT_color,2021.2.3,Win32,144.092219,,,,,,,,5,Ontime,long,j,1,2.065,4,1,17,2,1,,,,,
1.17,,,,,,,,,j,red,5b09da13641b1200010eab05,2021-11-03_11h47.26.591,forced_choiceRT_color,2021.2.3,Win32,144.092219,,,,,,,,5,Ontime,long,j,1,2.002,4,2,18,2,1,,,,,
0.29,,,,,,,,,f,blue,5b09da13641b1200010eab05,2021-11-03_11h47.26.591,forced_choiceRT_color,2021.2.3,Win32,144.092219,,,,,,,,5,Ontime,long,f,1,1.997,4,3,19,1,1,,,,,
1.91,,,,,,,,,d,orange,5b09da13641b1200010eab05,2021-11-03_11h47.26.591,forced_choiceRT_color,2021.2.3,Win32,144.092219,,,,,,,,5,Ontime,long,d,1,2.008,5,0,20,0,1,,,,,
1.27,,,,,,,,,d,orange,5b09da13641b1200010eab05,2021-11-03_11h47.26.591,forced_choiceRT_color,2021.2.3,Win32,144.092219,,,,,,,,5,Ontime,long,d,1,2.085,5,1,21,0,1,,,,,
0.71,,,,,,,,,f,blue,5b09da13641b1200010eab05,2021-11-03_11h47.26.591,forced_choiceRT_color,2021.2.3,Win32,144.092219,,,,,,,,5,Ontime,long,f,1,1.994,5,2,22,1,1,,,,,
0.37,,,,,,,,,k,purple,5b09da13641b1200010eab05,2021-11-03_11h47.26.591,forced_choiceRT_color,2021.2.3,Win32,144.092219,,,,,,,,5,Ontime,long,k,1,2.001,5,3,23,3,1,,,,,
1.28,,,,,,,,,d,orange,5b09da13641b1200010eab05,2021-11-03_11h47.26.591,forced_choiceRT_color,2021.2.3,Win32,144.092219,,,,,,,,5,Ontime,long,d,1,2.051,6,0,24,0,1,,,,,
0.1,,,,,,,,,j,red,5b09da13641b1200010eab05,2021-11-03_11h47.26.591,forced_choiceRT_color,2021.2.3,Win32,144.092219,,,,,,,,5,Ontime,long,j,1,2.035,6,1,25,2,1,,,,,
1.16,,,,,,,,,k,purple,5b09da13641b1200010eab05,2021-11-03_11h47.26.591,forced_choiceRT_color,2021.2.3,Win32,144.092219,,,,,,,,5,Ontime,long,k,1,2.051,6,2,26,3,1,,,,,
0.89,,,,,,,,,d,orange,5b09da13641b1200010eab05,2021-11-03_11h47.26.591,forced_choiceRT_color,2021.2.3,Win32,144.092219,,,,,,,,5,Ontime,long,d,1,2.066,6,3,27,0,1,,,,,
0.7,,,,,,,,,j,red,5b09da13641b1200010eab05,2021-11-03_11h47.26.591,forced_choiceRT_color,2021.2.3,Win32,144.092219,,,,,,,,5,Ontime,long,j,1,1.999,7,0,28,2,1,,,,,
0.66,,,,,,,,,f,blue,5b09da13641b1200010eab05,2021-11-03_11h47.26.591,forced_choiceRT_color,2021.2.3,Win32,144.092219,,,,,,,,5,Ontime,long,f,1,2.04,7,1,29,1,1,,,,,
0.54,,,,,,,,,j,red,5b09da13641b1200010eab05,2021-11-03_11h47.26.591,forced_choiceRT_color,2021.2.3,Win32,144.092219,,,,,,,,5,Ontime,long,j,1,2,7,2,30,2,1,,,,,
0.3,,,,,,,,,d,orange,5b09da13641b1200010eab05,2021-11-03_11h47.26.591,forced_choiceRT_color,2021.2.3,Win32,144.092219,,,,,,,,5,Ontime,long,d,1,2.047,7,3,31,0,1,,,,,
1.26,,,,,,,,,j,red,5b09da13641b1200010eab05,2021-11-03_11h47.26.591,forced_choiceRT_color,2021.2.3,Win32,144.092219,,,,,,,,5,Ontime,long,j,1,2.037,8,0,32,2,1,,,,,
0.24,,,,,,,,,k,purple,5b09da13641b1200010eab05,2021-11-03_11h47.26.591,forced_choiceRT_color,2021.2.3,Win32,144.092219,,,,,,,,5,Ontime,long,k,1,1.93,8,1,33,3,1,,,,,
1.12,,,,,,,,,k,purple,5b09da13641b1200010eab05,2021-11-03_11h47.26.591,forced_choiceRT_color,2021.2.3,Win32,144.092219,,,,,,,,5,Ontime,long,k,1,1.967,8,2,34,3,1,,,,,
1.39,,,,,,,,,j,red,5b09da13641b1200010eab05,2021-11-03_11h47.26.591,forced_choiceRT_color,2021.2.3,Win32,144.092219,,,,,,,,5,Ontime,long,j,1,2.016,8,3,35,2,1,,,,,
1.21,,,,,,,,,j,red,5b09da13641b1200010eab05,2021-11-03_11h47.26.591,forced_choiceRT_color,2021.2.3,Win32,144.092219,,,,,,,,5,Ontime,long,j,1,2.043,9,0,36,2,1,,,,,
0.44,,,,,,,,,d,orange,5b09da13641b1200010eab05,2021-11-03_11h47.26.591,forced_choiceRT_color,2021.2.3,Win32,144.092219,,,,,,,,5,Ontime,long,d,1,2.022,9,1,37,0,1,,,,,
1.82,,,,,,,,,d,orange,5b09da13641b1200010eab05,2021-11-03_11h47.26.591,forced_choiceRT_color,2021.2.3,Win32,144.092219,,,,,,,,5,Ontime,long,d,1,1.989,9,2,38,0,1,,,,,
0.63,,,,,,,,,k,purple,5b09da13641b1200010eab05,2021-11-03_11h47.26.591,forced_choiceRT_color,2021.2.3,Win32,144.092219,,,,,,,,5,Ontime,long,k,1,2.009,9,3,39,3,1,,,,,
,,,,,,,,,,,5b09da13641b1200010eab05,2021-11-03_11h47.26.591,forced_choiceRT_color,2021.2.3,Win32,144.092219,,,,,,,,,,,,,,,,,,,4,0,4,0,1
0.23,,,,,,,,,d,orange,5b09da13641b1200010eab05,2021-11-03_11h47.26.591,forced_choiceRT_color,2021.2.3,Win32,144.092219,,,,,,,,6,Ontime,long,d,1,1.901,0,0,0,0,1,,,,,
1.46,,,,,,,,,j,red,5b09da13641b1200010eab05,2021-11-03_11h47.26.591,forced_choiceRT_color,2021.2.3,Win32,144.092219,,,,,,,,6,Fast,long,j,1,1.877,0,1,1,2,1,,,,,
1.74,,,,,,,,,j,red,5b09da13641b1200010eab05,2021-11-03_11h47.26.591,forced_choiceRT_color,2021.2.3,Win32,144.092219,,,,,,,,6,Ontime,long,j,1,1.995,0,2,2,2,1,,,,,
1.24,,,,,,,,,f,blue,5b09da13641b1200010eab05,2021-11-03_11h47.26.591,forced_choiceRT_color,2021.2.3,Win32,144.092219,,,,,,,,6,Ontime,long,f,1,1.981,0,3,3,1,1,,,,,
1.76,,,,,,,,,d,orange,5b09da13641b1200010eab05,2021-11-03_11h47.26.591,forced_choiceRT_color,2021.2.3,Win32,144.092219,,,,,,,,6,Ontime,long,d,1,2.098,1,0,4,0,1,,,,,
0.35,,,,,,,,,k,purple,5b09da13641b1200010eab05,2021-11-03_11h47.26.591,forced_choiceRT_color,2021.2.3,Win32,144.092219,,,,,,,,6,Ontime,long,k,1,2.05,1,1,5,3,1,,,,,
0.15,,,,,,,,,k,purple,5b09da13641b1200010eab05,2021-11-03_11h47.26.591,forced_choiceRT_color,2021.2.3,Win32,144.092219,,,,,,,,6,Ontime,long,k,1,2.015,1,2,6,3,1,,,,,
1.75,,,,,,,,,d,orange,5b09da13641b1200010eab05,2021-11-03_11h47.26.591,forced_choiceRT_color,2021.2.3,Win32,144.092219,,,,,,,,6,Slow,long,d,1,2.142,1,3,7,0,1,,,,,
1.34,,,,,,,,,k,purple,5b09da13641b1200010eab05,2021-11-03_11h47.26.591,forced_choiceRT_color,2021.2.3,Win32,144.092219,,,,,,,,6,Fast,long,j,0,1.766,2,0,8,3,1,,,,,
1.54,,,,,,,,,d,orange,5b09da13641b1200010eab05,2021-11-03_11h47.26.591,forced_choiceRT_color,2021.2.3,Win32,144.092219,,,,,,,,6,Ontime,long,d,1,2.057,2,1,9,0,1,,,,,
0.47,,,,,,,,,k,purple,5b09da13641b1200010eab05,2021-11-03_11h47.26.591,forced_choiceRT_color,2021.2.3,Win32,144.092219,,,,,,,,6,Ontime,long,k,1,1.995,2,2,10,3,1,,,,,
1.19,,,,,,,,,k,purple,5b09da13641b1200010eab05,2021-11-03_11h47.26.591,forced_choiceRT_color,2021.2.3,Win32,144.092219,,,,,,,,6,Ontime,long,k,1,2.043,2,3,11,3,1,,,,,
0.45,,,,,,,,,j,red,5b09da13641b1200010eab05,2021-11-03_11h47.26.591,forced_choiceRT_color,2021.2.3,Win32,144.092219,,,,,,,,6,Ontime,long,j,1,1.987,3,0,12,2,1,,,,,
0.66,,,,,,,,,j,red,5b09da13641b1200010eab05,2021-11-03_11h47.26.591,forced_choiceRT_color,2021.2.3,Win32,144.092219,,,,,,,,6,Ontime,long,j,1,1.911,3,1,13,2,1,,,,,
0.82,,,,,,,,,f,blue,5b09da13641b1200010eab05,2021-11-03_11h47.26.591,forced_choiceRT_color,2021.2.3,Win32,144.092219,,,,,,,,6,Ontime,long,f,1,1.938,3,2,14,1,1,,,,,
0.18,,,,,,,,,j,red,5b09da13641b1200010eab05,2021-11-03_11h47.26.591,forced_choiceRT_color,2021.2.3,Win32,144.092219,,,,,,,,6,Ontime,long,j,1,1.966,3,3,15,2,1,,,,,
1.96,,,,,,,,,d,orange,5b09da13641b1200010eab05,2021-11-03_11h47.26.591,forced_choiceRT_color,2021.2.3,Win32,144.092219,,,,,,,,6,Ontime,long,d,1,2.042,4,0,16,0,1,,,,,
1.04,,,,,,,,,f,blue,5b09da13641b1200010eab05,2021-11-03_11h47.26.591,forced_choiceRT_color,2021.2.3,Win32,144.092219,,,,,,,,6,Ontime,long,f,1,1.939,4,1,17,1,1,,,,,
1.04,,,,,,,,,f,blue,5b09da13641b1200010eab05,2021-11-03_11h47.26.591,forced_choiceRT_color,2021.2.3,Win32,144.092219,,,,,,,,6,Ontime,long,f,1,2.002,4,2,18,1,1,,,,,
0.84,,,,,,,,,j,red,5b09da13641b1200010eab05,2021-11-03_11h47.26.591,forced_choiceRT_color,2021.2.3,Win32,144.092219,,,,,,,,6,Ontime,long,j,1,1.966,4,3,19,2,1,,,,,
0.26,,,,,,,,,k,purple,5b09da13641b1200010eab05,2021-11-03_11h47.26.591,forced_choiceRT_color,2021.2.3,Win32,144.092219,,,,,,,,6,Ontime,long,k,1,1.957,5,0,20,3,1,,,,,
1.32,,,,,,,,,k,purple,5b09da13641b1200010eab05,2021-11-03_11h47.26.591,forced_choiceRT_color,2021.2.3,Win32,144.092219,,,,,,,,6,Ontime,long,k,1,1.983,5,1,21,3,1,,,,,
0.43,,,,,,,,,d,orange,5b09da13641b1200010eab05,2021-11-03_11h47.26.591,forced_choiceRT_color,2021.2.3,Win32,144.092219,,,,,,,,6,Ontime,long,d,1,1.918,5,2,22,0,1,,,,,
1.83,,,,,,,,,d,orange,5b09da13641b1200010eab05,2021-11-03_11h47.26.591,forced_choiceRT_color,2021.2.3,Win32,144.092219,,,,,,,,6,Ontime,long,j,0,1.952,5,3,23,0,1,,,,,
0.49,,,,,,,,,f,blue,5b09da13641b1200010eab05,2021-11-03_11h47.26.591,forced_choiceRT_color,2021.2.3,Win32,144.092219,,,,,,,,6,Slow,long,f,1,2.19,6,0,24,1,1,,,,,
0.1,,,,,,,,,j,red,5b09da13641b1200010eab05,2021-11-03_11h47.26.591,forced_choiceRT_color,2021.2.3,Win32,144.092219,,,,,,,,6,Ontime,long,j,1,1.983,6,1,25,2,1,,,,,
1.11,,,,,,,,,f,blue,5b09da13641b1200010eab05,2021-11-03_11h47.26.591,forced_choiceRT_color,2021.2.3,Win32,144.092219,,,,,,,,6,Ontime,long,f,1,2.036,6,2,26,1,1,,,,,
0.55,,,,,,,,,d,orange,5b09da13641b1200010eab05,2021-11-03_11h47.26.591,forced_choiceRT_color,2021.2.3,Win32,144.092219,,,,,,,,6,Ontime,long,d,1,2.02,6,3,27,0,1,,,,,
0.2,,,,,,,,,f,blue,5b09da13641b1200010eab05,2021-11-03_11h47.26.591,forced_choiceRT_color,2021.2.3,Win32,144.092219,,,,,,,,6,Ontime,long,f,1,2.029,7,0,28,1,1,,,,,
0.43,,,,,,,,,f,blue,5b09da13641b1200010eab05,2021-11-03_11h47.26.591,forced_choiceRT_color,2021.2.3,Win32,144.092219,,,,,,,,6,Ontime,long,f,1,1.975,7,1,29,1,1,,,,,
0.75,,,,,,,,,d,orange,5b09da13641b1200010eab05,2021-11-03_11h47.26.591,forced_choiceRT_color,2021.2.3,Win32,144.092219,,,,,,,,6,Ontime,long,d,1,2.043,7,2,30,0,1,,,,,
0.44,,,,,,,,,j,red,5b09da13641b1200010eab05,2021-11-03_11h47.26.591,forced_choiceRT_color,2021.2.3,Win32,144.092219,,,,,,,,6,Ontime,long,j,1,1.992,7,3,31,2,1,,,,,
1.34,,,,,,,,,f,blue,5b09da13641b1200010eab05,2021-11-03_11h47.26.591,forced_choiceRT_color,2021.2.3,Win32,144.092219,,,,,,,,6,Ontime,long,f,1,2.038,8,0,32,1,1,,,,,
1.78,,,,,,,,,k,purple,5b09da13641b1200010eab05,2021-11-03_11h47.26.591,forced_choiceRT_color,2021.2.3,Win32,144.092219,,,,,,,,6,Ontime,long,d,0,1.975,8,1,33,3,1,,,,,
1.22,,,,,,,,,k,purple,5b09da13641b1200010eab05,2021-11-03_11h47.26.591,forced_choiceRT_color,2021.2.3,Win32,144.092219,,,,,,,,6,Ontime,long,k,1,2.07,8,2,34,3,1,,,,,
1.45,,,,,,,,,k,purple,5b09da13641b1200010eab05,2021-11-03_11h47.26.591,forced_choiceRT_color,2021.2.3,Win32,144.092219,,,,,,,,6,Ontime,long,k,1,2.011,8,3,35,3,1,,,,,
0.7,,,,,,,,,j,red,5b09da13641b1200010eab05,2021-11-03_11h47.26.591,forced_choiceRT_color,2021.2.3,Win32,144.092219,,,,,,,,6,Ontime,long,j,1,1.918,9,0,36,2,1,,,,,
0.66,,,,,,,,,f,blue,5b09da13641b1200010eab05,2021-11-03_11h47.26.591,forced_choiceRT_color,2021.2.3,Win32,144.092219,,,,,,,,6,Ontime,long,f,1,1.951,9,1,37,1,1,,,,,
0.34,,,,,,,,,j,red,5b09da13641b1200010eab05,2021-11-03_11h47.26.591,forced_choiceRT_color,2021.2.3,Win32,144.092219,,,,,,,,6,Fast,long,j,1,1.883,9,2,38,2,1,,,,,
0.36,,,,,,,,,d,orange,5b09da13641b1200010eab05,2021-11-03_11h47.26.591,forced_choiceRT_color,2021.2.3,Win32,144.092219,,,,,,,,6,Ontime,long,d,1,2.074,9,3,39,0,1,,,,,
,,,,,,,,,,,5b09da13641b1200010eab05,2021-11-03_11h47.26.591,forced_choiceRT_color,2021.2.3,Win32,144.092219,,,,,,,,,,,,,,,,,,,5,0,5,0,1
0.43,,,,,,,,,j,red,5b09da13641b1200010eab05,2021-11-03_11h47.26.591,forced_choiceRT_color,2021.2.3,Win32,144.092219,,,,,,,,7,Ontime,long,j,1,1.965,0,0,0,2,1,,,,,
0.94,,,,,,,,,k,purple,5b09da13641b1200010eab05,2021-11-03_11h47.26.591,forced_choiceRT_color,2021.2.3,Win32,144.092219,,,,,,,,7,Fast,long,k,1,1.773,0,1,1,3,1,,,,,
0.54,,,,,,,,,d,orange,5b09da13641b1200010eab05,2021-11-03_11h47.26.591,forced_choiceRT_color,2021.2.3,Win32,144.092219,,,,,,,,7,Ontime,long,d,1,1.967,0,2,2,0,1,,,,,
1.6,,,,,,,,,d,orange,5b09da13641b1200010eab05,2021-11-03_11h47.26.591,forced_choiceRT_color,2021.2.3,Win32,144.092219,,,,,,,,7,Ontime,long,d,1,2.057,0,3,3,0,1,,,,,
1.74,,,,,,,,,f,blue,5b09da13641b1200010eab05,2021-11-03_11h47.26.591,forced_choiceRT_color,2021.2.3,Win32,144.092219,,,,,,,,7,Slow,long,j,0,2.141,1,0,4,1,1,,,,,
1.29,,,,,,,,,k,purple,5b09da13641b1200010eab05,2021-11-03_11h47.26.591,forced_choiceRT_color,2021.2.3,Win32,144.092219,,,,,,,,7,Ontime,long,k,1,2,1,1,5,3,1,,,,,
0.07,,,,,,,,,j,red,5b09da13641b1200010eab05,2021-11-03_11h47.26.591,forced_choiceRT_color,2021.2.3,Win32,144.092219,,,,,,,,7,Ontime,long,j,1,1.932,1,2,6,2,1,,,,,
1.09,,,,,,,,,k,purple,5b09da13641b1200010eab05,2021-11-03_11h47.26.591,forced_choiceRT_color,2021.2.3,Win32,144.092219,,,,,,,,7,Ontime,long,k,1,1.941,1,3,7,3,1,,,,,
1.17,,,,,,,,,j,red,5b09da13641b1200010eab05,2021-11-03_11h47.26.591,forced_choiceRT_color,2021.2.3,Win32,144.092219,,,,,,,,7,Slow,long,j,1,2.113,2,0,8,2,1,,,,,
1.23,,,,,,,,,f,blue,5b09da13641b1200010eab05,2021-11-03_11h47.26.591,forced_choiceRT_color,2021.2.3,Win32,144.092219,,,,,,,,7,Slow,long,f,1,2.105,2,1,9,1,1,,,,,
0.11,,,,,,,,,j,red,5b09da13641b1200010eab05,2021-11-03_11h47.26.591,forced_choiceRT_color,2021.2.3,Win32,144.092219,,,,,,,,7,Ontime,long,j,1,2.029,2,2,10,2,1,,,,,
1.45,,,,,,,,,f,blue,5b09da13641b1200010eab05,2021-11-03_11h47.26.591,forced_choiceRT_color,2021.2.3,Win32,144.092219,,,,,,,,7,Ontime,long,f,1,2.045,2,3,11,1,1,,,,,
1.98,,,,,,,,,k,purple,5b09da13641b1200010eab05,2021-11-03_11h47.26.591,forced_choiceRT_color,2021.2.3,Win32,144.092219,,,,,,,,7,Ontime,long,d,0,1.918,3,0,12,3,1,,,,,
1.07,,,,,,,,,k,purple,5b09da13641b1200010eab05,2021-11-03_11h47.26.591,forced_choiceRT_color,2021.2.3,Win32,144.092219,,,,,,,,7,Ontime,long,k,1,1.975,3,1,13,3,1,,,,,
0.91,,,,,,,,,j,red,5b09da13641b1200010eab05,2021-11-03_11h47.26.591,forced_choiceRT_color,2021.2.3,Win32,144.092219,,,,,,,,7,Ontime,long,j,1,2.085,3,2,14,2,1,,,,,
1.99,,,,,,,,,f,blue,5b09da13641b1200010eab05,2021-11-03_11h47.26.591,forced_choiceRT_color,2021.2.3,Win32,144.092219,,,,,,,,7,Ontime,long,d,0,1.925,3,3,15,1,1,,,,,
1.05,,,,,,,,,d,orange,5b09da13641b1200010eab05,2021-11-03_11h47.26.591,forced_choiceRT_color,2021.2.3,Win32,144.092219,,,,,,,,7,Fast,long,d,1,1.876,4,0,16,0,1,,,,,
1.06,,,,,,,,,f,blue,5b09da13641b1200010eab05,2021-11-03_11h47.26.591,forced_choiceRT_color,2021.2.3,Win32,144.092219,,,,,,,,7,Ontime,long,f,1,2.022,4,1,17,1,1,,,,,
0.86,,,,,,,,,j,red,5b09da13641b1200010eab05,2021-11-03_11h47.26.591,forced_choiceRT_color,2021.2.3,Win32,144.092219,,,,,,,,7,Ontime,long,j,1,1.967,4,2,18,2,1,,,,,
0.26,,,,,,,,,d,orange,5b09da13641b1200010eab05,2021-11-03_11h47.26.591,forced_choiceRT_color,2021.2.3,Win32,144.092219,,,,,,,,7,Ontime,long,d,1,1.938,4,3,19,0,1,,,,,
0.97,,,,,,,,,j,red,5b09da13641b1200010eab05,2021-11-03_11h47.26.591,forced_choiceRT_color,2021.2.3,Win32,144.092219,,,,,,,,7,Ontime,long,j,1,1.973,5,0,20,2,1,,,,,
0.04,,,,,,,,,d,orange,5b09da13641b1200010eab05,2021-11-03_11h47.26.591,forced_choiceRT_color,2021.2.3,Win32,144.092219,,,,,,,,7,Fast,long,d,1,1.82,5,1,21,0,1,,,,,
1.64,,,,,,,,,f,blue,5b09da13641b1200010eab05,2021-11-03_11h47.26.591,forced_choiceRT_color,2021.2.3,Win32,144.092219,,,,,,,,7,Slow,long,f,1,2.23,5,2,22,1,1,,,,,
1.19,,,,,,,,,d,orange,5b09da13641b1200010eab05,2021-11-03_11h47.26.591,forced_choiceRT_color,2021.2.3,Win32,144.092219,,,,,,,,7,Ontime,long,d,1,2.045,5,3,23,0,1,,,,,
1.12,,,,,,,,,k,purple,5b09da13641b1200010eab05,2021-11-03_11h47.26.591,forced_choiceRT_color,2021.2.3,Win32,144.092219,,,,,,,,7,Ontime,long,k,1,2.078,6,0,24,3,1,,,,,
1.35,,,,,,,,,d,orange,5b09da13641b1200010eab05,2021-11-03_11h47.26.591,forced_choiceRT_color,2021.2.3,Win32,144.092219,,,,,,,,7,Ontime,long,d,1,2.03,6,1,25,0,1,,,,,
1.25,,,,,,,,,f,blue,5b09da13641b1200010eab05,2021-11-03_11h47.26.591,forced_choiceRT_color,2021.2.3,Win32,144.092219,,,,,,,,7,Ontime,long,f,1,1.967,6,2,26,1,1,,,,,
0.99,,,,,,,,,k,purple,5b09da13641b1200010eab05,2021-11-03_11h47.26.591,forced_choiceRT_color,2021.2.3,Win32,144.092219,,,,,,,,7,Ontime,long,k,1,1.974,6,3,27,3,1,,,,,
0.29,,,,,,,,,f,blue,5b09da13641b1200010eab05,2021-11-03_11h47.26.591,forced_choiceRT_color,2021.2.3,Win32,144.092219,,,,,,,,7,Fast,long,f,1,1.852,7,0,28,1,1,,,,,
1.94,,,,,,,,,f,blue,5b09da13641b1200010eab05,2021-11-03_11h47.26.591,forced_choiceRT_color,2021.2.3,Win32,144.092219,,,,,,,,7,Slow,long,d,0,2.141,7,1,29,1,1,,,,,
0.86,,,,,,,,,k,purple,5b09da13641b1200010eab05,2021-11-03_11h47.26.591,forced_choiceRT_color,2021.2.3,Win32,144.092219,,,,,,,,7,Ontime,long,k,1,1.966,7,2,30,3,1,,,,,
1.26,,,,,,,,,j,red,5b09da13641b1200010eab05,2021-11-03_11h47.26.591,forced_choiceRT_color,2021.2.3,Win32,144.092219,,,,,,,,7,Ontime,long,f,0,2.019,7,3,31,2,1,,,,,
0.88,,,,,,,,,d,orange,5b09da13641b1200010eab05,2021-11-03_11h47.26.591,forced_choiceRT_color,2021.2.3,Win32,144.092219,,,,,,,,7,Fast,long,d,1,1.886,8,0,32,0,1,,,,,
1.79,,,,,,,,,k,purple,5b09da13641b1200010eab05,2021-11-03_11h47.26.591,forced_choiceRT_color,2021.2.3,Win32,144.092219,,,,,,,,7,Ontime,long,d,0,1.987,8,1,33,3,1,,,,,
0.16,,,,,,,,,j,red,5b09da13641b1200010eab05,2021-11-03_11h47.26.591,forced_choiceRT_color,2021.2.3,Win32,144.092219,,,,,,,,7,Ontime,long,j,1,1.975,8,2,34,2,1,,,,,
1.38,,,,,,,,,k,purple,5b09da13641b1200010eab05,2021-11-03_11h47.26.591,forced_choiceRT_color,2021.2.3,Win32,144.092219,,,,,,,,7,Ontime,long,k,1,1.946,8,3,35,3,1,,,,,
0.97,,,,,,,,,f,blue,5b09da13641b1200010eab05,2021-11-03_11h47.26.591,forced_choiceRT_color,2021.2.3,Win32,144.092219,,,,,,,,7,Ontime,long,f,1,2.063,9,0,36,1,1,,,,,
1.78,,,,,,,,,d,orange,5b09da13641b1200010eab05,2021-11-03_11h47.26.591,forced_choiceRT_color,2021.2.3,Win32,144.092219,,,,,,,,7,Slow,long,d,1,2.134,9,1,37,0,1,,,,,
1.6,,,,,,,,,j,red,5b09da13641b1200010eab05,2021-11-03_11h47.26.591,forced_choiceRT_color,2021.2.3,Win32,144.092219,,,,,,,,7,Ontime,long,k,0,2.077,9,2,38,2,1,,,,,
0.05,,,,,,,,,d,orange,5b09da13641b1200010eab05,2021-11-03_11h47.26.591,forced_choiceRT_color,2021.2.3,Win32,144.092219,,,,,,,,7,Ontime,long,d,1,1.935,9,3,39,0,1,,,,,
,,,,,,,,,,,5b09da13641b1200010eab05,2021-11-03_11h47.26.591,forced_choiceRT_color,2021.2.3,Win32,144.092219,,,,,,,,,,,,,,,,,,,6,0,6,0,1
1.01,,,,,,,,,k,purple,5b09da13641b1200010eab05,2021-11-03_11h47.26.591,forced_choiceRT_color,2021.2.3,Win32,144.092219,,,,,,,,8,Ontime,long,k,1,2.059,0,0,0,3,1,,,,,
1.54,,,,,,,,,k,purple,5b09da13641b1200010eab05,2021-11-03_11h47.26.591,forced_choiceRT_color,2021.2.3,Win32,144.092219,,,,,,,,8,Slow,long,k,1,2.23,0,1,1,3,1,,,,,
0.15,,,,,,,,,d,orange,5b09da13641b1200010eab05,2021-11-03_11h47.26.591,forced_choiceRT_color,2021.2.3,Win32,144.092219,,,,,,,,8,Ontime,long,d,1,1.931,0,2,2,0,1,,,,,
0.36,,,,,,,,,j,red,5b09da13641b1200010eab05,2021-11-03_11h47.26.591,forced_choiceRT_color,2021.2.3,Win32,144.092219,,,,,,,,8,Ontime,long,j,1,1.907,0,3,3,2,1,,,,,
1.64,,,,,,,,,j,red,5b09da13641b1200010eab05,2021-11-03_11h47.26.591,forced_choiceRT_color,2021.2.3,Win32,144.092219,,,,,,,,8,Slow,long,j,1,2.185,1,0,4,2,1,,,,,
1.69,,,,,,,,,d,orange,5b09da13641b1200010eab05,2021-11-03_11h47.26.591,forced_choiceRT_color,2021.2.3,Win32,144.092219,,,,,,,,8,Ontime,long,j,0,2.002,1,1,5,0,1,,,,,
1.76,,,,,,,,,j,red,5b09da13641b1200010eab05,2021-11-03_11h47.26.591,forced_choiceRT_color,2021.2.3,Win32,144.092219,,,,,,,,8,Ontime,long,d,0,1.965,1,2,6,2,1,,,,,
0.78,,,,,,,,,f,blue,5b09da13641b1200010eab05,2021-11-03_11h47.26.591,forced_choiceRT_color,2021.2.3,Win32,144.092219,,,,,,,,8,Ontime,long,f,1,1.913,1,3,7,1,1,,,,,
1.61,,,,,,,,,j,red,5b09da13641b1200010eab05,2021-11-03_11h47.26.591,forced_choiceRT_color,2021.2.3,Win32,144.092219,,,,,,,,8,Slow,long,j,1,2.107,2,0,8,2,1,,,,,
0.17,,,,,,,,,j,red,5b09da13641b1200010eab05,2021-11-03_11h47.26.591,forced_choiceRT_color,2021.2.3,Win32,144.092219,,,,,,,,8,Ontime,long,j,1,1.911,2,1,9,2,1,,,,,
1.17,,,,,,,,,j,red,5b09da13641b1200010eab05,2021-11-03_11h47.26.591,forced_choiceRT_color,2021.2.3,Win32,144.092219,,,,,,,,8,Ontime,long,j,1,1.919,2,2,10,2,1,,,,,
1.86,,,,,,,,,d,orange,5b09da13641b1200010eab05,2021-11-03_11h47.26.591,forced_choiceRT_color,2021.2.3,Win32,144.092219,,,,,,,,8,Ontime,long,d,1,1.994,2,3,11,0,1,,,,,
1.87,,,,,,,,,j,red,5b09da13641b1200010eab05,2021-11-03_11h47.26.591,forced_choiceRT_color,2021.2.3,Win32,144.092219,,,,,,,,8,Ontime,long,d,0,1.926,3,0,12,2,1,,,,,
0.89,,,,,,,,,k,purple,5b09da13641b1200010eab05,2021-11-03_11h47.26.591,forced_choiceRT_color,2021.2.3,Win32,144.092219,,,,,,,,8,Fast,long,k,1,1.879,3,1,13,3,1,,,,,
1.86,,,,,,,,,d,orange,5b09da13641b1200010eab05,2021-11-03_11h47.26.591,forced_choiceRT_color,2021.2.3,Win32,144.092219,,,,,,,,8,Slow,long,d,1,2.104,3,2,14,0,1,,,,,
1.52,,,,,,,,,d,orange,5b09da13641b1200010eab05,2021-11-03_11h47.26.591,forced_choiceRT_color,2021.2.3,Win32,144.092219,,,,,,,,8,Ontime,long,d,1,2.063,3,3,15,0,1,,,,,
0.7,,,,,,,,,j,red,5b09da13641b1200010eab05,2021-11-03_11h47.26.591,forced_choiceRT_color,2021.2.3,Win32,144.092219,,,,,,,,8,Ontime,long,j,1,1.973,4,0,16,2,1,,,,,
0.2,,,,,,,,,d,orange,5b09da13641b1200010eab05,2021-11-03_11h47.26.591,forced_choiceRT_color,2021.2.3,Win32,144.092219,,,,,,,,8,Fast,long,d,1,1.891,4,1,17,0,1,,,,,
1.84,,,,,,,,,f,blue,5b09da13641b1200010eab05,2021-11-03_11h47.26.591,forced_choiceRT_color,2021.2.3,Win32,144.092219,,,,,,,,8,Ontime,long,d,0,1.987,4,2,18,1,1,,,,,
0.15,,,,,,,,,f,blue,5b09da13641b1200010eab05,2021-11-03_11h47.26.591,forced_choiceRT_color,2021.2.3,Win32,144.092219,,,,,,,,8,Ontime,long,f,1,1.911,4,3,19,1,1,,,,,
1.48,,,,,,,,,f,blue,5b09da13641b1200010eab05,2021-11-03_11h47.26.591,forced_choiceRT_color,2021.2.3,Win32,144.092219,,,,,,,,8,Fast,long,f,1,1.884,5,0,20,1,1,,,,,
0.69,,,,,,,,,d,orange,5b09da13641b1200010eab05,2021-11-03_11h47.26.591,forced_choiceRT_color,2021.2.3,Win32,144.092219,,,,,,,,8,Ontime,long,d,1,1.918,5,1,21,0,1,,,,,
0.62,,,,,,,,,k,purple,5b09da13641b1200010eab05,2021-11-03_11h47.26.591,forced_choiceRT_color,2021.2.3,Win32,144.092219,,,,,,,,8,Ontime,long,k,1,1.932,5,2,22,3,1,,,,,
0.08,,,,,,,,,f,blue,5b09da13641b1200010eab05,2021-11-03_11h47.26.591,forced_choiceRT_color,2021.2.3,Win32,144.092219,,,,,,,,8,Fast,long,f,1,1.792,5,3,23,1,1,,,,,
0.05,,,,,,,,,f,blue,5b09da13641b1200010eab05,2021-11-03_11h47.26.591,forced_choiceRT_color,2021.2.3,Win32,144.092219,,,,,,,,8,Ontime,long,f,1,1.951,6,0,24,1,1,,,,,
1.42,,,,,,,,,d,orange,5b09da13641b1200010eab05,2021-11-03_11h47.26.591,forced_choiceRT_color,2021.2.3,Win32,144.092219,,,,,,,,8,Fast,long,d,1,1.753,6,1,25,0,1,,,,,
0.88,,,,,,,,,f,blue,5b09da13641b1200010eab05,2021-11-03_11h47.26.591,forced_choiceRT_color,2021.2.3,Win32,144.092219,,,,,,,,8,Ontime,long,f,1,1.994,6,2,26,1,1,,,,,
1.51,,,,,,,,,k,purple,5b09da13641b1200010eab05,2021-11-03_11h47.26.591,forced_choiceRT_color,2021.2.3,Win32,144.092219,,,,,,,,8,Ontime,long,k,1,2.007,6,3,27,3,1,,,,,
1.37,,,,,,,,,f,blue,5b09da13641b1200010eab05,2021-11-03_11h47.26.591,forced_choiceRT_color,2021.2.3,Win32,144.092219,,,,,,,,8,Ontime,long,f,1,2.099,7,0,28,1,1,,,,,
0.02,,,,,,,,,k,purple,5b09da13641b1200010eab05,2021-11-03_11h47.26.591,forced_choiceRT_color,2021.2.3,Win32,144.092219,,,,,,,,8,Ontime,long,k,1,2.023,7,1,29,3,1,,,,,
1.24,,,,,,,,,k,purple,5b09da13641b1200010eab05,2021-11-03_11h47.26.591,forced_choiceRT_color,2021.2.3,Win32,144.092219,,,,,,,,8,Ontime,long,k,1,2.029,7,2,30,3,1,,,,,
1.62,,,,,,,,,f,blue,5b09da13641b1200010eab05,2021-11-03_11h47.26.591,forced_choiceRT_color,2021.2.3,Win32,144.092219,,,,,,,,8,Ontime,long,f,1,2.025,7,3,31,1,1,,,,,
1.14,,,,,,,,,d,orange,5b09da13641b1200010eab05,2021-11-03_11h47.26.591,forced_choiceRT_color,2021.2.3,Win32,144.092219,,,,,,,,8,Ontime,long,d,1,1.938,8,0,32,0,1,,,,,
1.78,,,,,,,,,k,purple,5b09da13641b1200010eab05,2021-11-03_11h47.26.591,forced_choiceRT_color,2021.2.3,Win32,144.092219,,,,,,,,8,Ontime,long,d,0,1.979,8,1,33,3,1,,,,,
0.27,,,,,,,,,j,red,5b09da13641b1200010eab05,2021-11-03_11h47.26.591,forced_choiceRT_color,2021.2.3,Win32,144.092219,,,,,,,,8,Fast,long,j,1,1.735,8,2,34,2,1,,,,,
1.49,,,,,,,,,f,blue,5b09da13641b1200010eab05,2021-11-03_11h47.26.591,forced_choiceRT_color,2021.2.3,Win32,144.092219,,,,,,,,8,Ontime,long,f,1,2.043,8,3,35,1,1,,,,,
0.18,,,,,,,,,k,purple,5b09da13641b1200010eab05,2021-11-03_11h47.26.591,forced_choiceRT_color,2021.2.3,Win32,144.092219,,,,,,,,8,Ontime,long,k,1,1.932,9,0,36,3,1,,,,,
0.53,,,,,,,,,j,red,5b09da13641b1200010eab05,2021-11-03_11h47.26.591,forced_choiceRT_color,2021.2.3,Win32,144.092219,,,,,,,,8,Ontime,long,j,1,2.049,9,1,37,2,1,,,,,
0.9,,,,,,,,,k,purple,5b09da13641b1200010eab05,2021-11-03_11h47.26.591,forced_choiceRT_color,2021.2.3,Win32,144.092219,,,,,,,,8,Ontime,long,k,1,1.939,9,2,38,3,1,,,,,
1.22,,,,,,,,,d,orange,5b09da13641b1200010eab05,2021-11-03_11h47.26.591,forced_choiceRT_color,2021.2.3,Win32,144.092219,,,,,,,,8,Ontime,long,d,1,2.006,9,3,39,0,1,,,,,
,,,,,,,,,,,5b09da13641b1200010eab05,2021-11-03_11h47.26.591,forced_choiceRT_color,2021.2.3,Win32,144.092219,,,,,,,,,,,,,,,,,,,7,0,7,0,1
1.21,,,,,,,,,f,blue,5b09da13641b1200010eab05,2021-11-03_11h47.26.591,forced_choiceRT_color,2021.2.3,Win32,144.092219,,,,,,,,9,Ontime,long,f,1,2.065,0,0,0,1,1,,,,,
0.39,,,,,,,,,j,red,5b09da13641b1200010eab05,2021-11-03_11h47.26.591,forced_choiceRT_color,2021.2.3,Win32,144.092219,,,,,,,,9,Ontime,long,j,1,1.996,0,1,1,2,1,,,,,
1.15,,,,,,,,,j,red,5b09da13641b1200010eab05,2021-11-03_11h47.26.591,forced_choiceRT_color,2021.2.3,Win32,144.092219,,,,,,,,9,Ontime,long,j,1,1.96,0,2,2,2,1,,,,,
1.81,,,,,,,,,j,red,5b09da13641b1200010eab05,2021-11-03_11h47.26.591,forced_choiceRT_color,2021.2.3,Win32,144.092219,,,,,,,,9,Slow,long,j,1,2.114,0,3,3,2,1,,,,,
1.12,,,,,,,,,j,red,5b09da13641b1200010eab05,2021-11-03_11h47.26.591,forced_choiceRT_color,2021.2.3,Win32,144.092219,,,,,,,,9,Ontime,long,j,1,1.982,1,0,4,2,1,,,,,
0.48,,,,,,,,,d,orange,5b09da13641b1200010eab05,2021-11-03_11h47.26.591,forced_choiceRT_color,2021.2.3,Win32,144.092219,,,,,,,,9,Ontime,long,d,1,1.965,1,1,5,0,1,,,,,
0.1,,,,,,,,,k,purple,5b09da13641b1200010eab05,2021-11-03_11h47.26.591,forced_choiceRT_color,2021.2.3,Win32,144.092219,,,,,,,,9,Ontime,long,k,1,1.967,1,2,6,3,1,,,,,
1.2,,,,,,,,,j,red,5b09da13641b1200010eab05,2021-11-03_11h47.26.591,forced_choiceRT_color,2021.2.3,Win32,144.092219,,,,,,,,9,Ontime,long,j,1,2.014,1,3,7,2,1,,,,,
1.91,,,,,,,,,j,red,5b09da13641b1200010eab05,2021-11-03_11h47.26.591,forced_choiceRT_color,2021.2.3,Win32,144.092219,,,,,,,,9,Slow,long,j,1,2.174,2,0,8,2,1,,,,,
1.39,,,,,,,,,j,red,5b09da13641b1200010eab05,2021-11-03_11h47.26.591,forced_choiceRT_color,2021.2.3,Win32,144.092219,,,,,,,,9,Slow,long,j,1,2.167,2,1,9,2,1,,,,,
1.99,,,,,,,,,d,orange,5b09da13641b1200010eab05,2021-11-03_11h47.26.591,forced_choiceRT_color,2021.2.3,Win32,144.092219,,,,,,,,9,Ontime,long,j,0,1.959,2,2,10,0,1,,,,,
1.09,,,,,,,,,f,blue,5b09da13641b1200010eab05,2021-11-03_11h47.26.591,forced_choiceRT_color,2021.2.3,Win32,144.092219,,,,,,,,9,Ontime,long,f,1,2.016,2,3,11,1,1,,,,,
0.31,,,,,,,,,d,orange,5b09da13641b1200010eab05,2021-11-03_11h47.26.591,forced_choiceRT_color,2021.2.3,Win32,144.092219,,,,,,,,9,Ontime,long,d,1,1.921,3,0,12,0,1,,,,,
1.62,,,,,,,,,d,orange,5b09da13641b1200010eab05,2021-11-03_11h47.26.591,forced_choiceRT_color,2021.2.3,Win32,144.092219,,,,,,,,9,Ontime,long,d,1,1.933,3,1,13,0,1,,,,,
0.86,,,,,,,,,f,blue,5b09da13641b1200010eab05,2021-11-03_11h47.26.591,forced_choiceRT_color,2021.2.3,Win32,144.092219,,,,,,,,9,Ontime,long,f,1,1.939,3,2,14,1,1,,,,,
0.54,,,,,,,,,f,blue,5b09da13641b1200010eab05,2021-11-03_11h47.26.591,forced_choiceRT_color,2021.2.3,Win32,144.092219,,,,,,,,9,Ontime,long,f,1,1.976,3,3,15,1,1,,,,,
0.62,,,,,,,,,f,blue,5b09da13641b1200010eab05,2021-11-03_11h47.26.591,forced_choiceRT_color,2021.2.3,Win32,144.092219,,,,,,,,9,Ontime,long,f,1,1.948,4,0,16,1,1,,,,,
1.28,,,,,,,,,k,purple,5b09da13641b1200010eab05,2021-11-03_11h47.26.591,forced_choiceRT_color,2021.2.3,Win32,144.092219,,,,,,,,9,Ontime,long,k,1,1.966,4,1,17,3,1,,,,,
0.2,,,,,,,,,j,red,5b09da13641b1200010eab05,2021-11-03_11h47.26.591,forced_choiceRT_color,2021.2.3,Win32,144.092219,,,,,,,,9,Ontime,long,j,1,1.954,4,2,18,2,1,,,,,
0.39,,,,,,,,,j,red,5b09da13641b1200010eab05,2021-11-03_11h47.26.591,forced_choiceRT_color,2021.2.3,Win32,144.092219,,,,,,,,9,Ontime,long,j,1,1.977,4,3,19,2,1,,,,,
1.86,,,,,,,,,f,blue,5b09da13641b1200010eab05,2021-11-03_11h47.26.591,forced_choiceRT_color,2021.2.3,Win32,144.092219,,,,,,,,9,Ontime,long,j,0,2.035,5,0,20,1,1,,,,,
0.64,,,,,,,,,d,orange,5b09da13641b1200010eab05,2021-11-03_11h47.26.591,forced_choiceRT_color,2021.2.3,Win32,144.092219,,,,,,,,9,Ontime,long,d,1,1.956,5,1,21,0,1,,,,,
1.26,,,,,,,,,d,orange,5b09da13641b1200010eab05,2021-11-03_11h47.26.591,forced_choiceRT_color,2021.2.3,Win32,144.092219,,,,,,,,9,Ontime,long,d,1,1.97,5,2,22,0,1,,,,,
1.62,,,,,,,,,j,red,5b09da13641b1200010eab05,2021-11-03_11h47.26.591,forced_choiceRT_color,2021.2.3,Win32,144.092219,,,,,,,,9,Slow,long,j,1,2.1,5,3,23,2,1,,,,,
1.21,,,,,,,,,d,orange,5b09da13641b1200010eab05,2021-11-03_11h47.26.591,forced_choiceRT_color,2021.2.3,Win32,144.092219,,,,,,,,9,Ontime,long,d,1,1.937,6,0,24,0,1,,,,,
0.53,,,,,,,,,k,purple,5b09da13641b1200010eab05,2021-11-03_11h47.26.591,forced_choiceRT_color,2021.2.3,Win32,144.092219,,,,,,,,9,Ontime,long,k,1,1.924,6,1,25,3,1,,,,,
0.27,,,,,,,,,d,orange,5b09da13641b1200010eab05,2021-11-03_11h47.26.591,forced_choiceRT_color,2021.2.3,Win32,144.092219,,,,,,,,9,Ontime,long,d,1,1.998,6,2,26,0,1,,,,,
1.39,,,,,,,,,f,blue,5b09da13641b1200010eab05,2021-11-03_11h47.26.591,forced_choiceRT_color,2021.2.3,Win32,144.092219,,,,,,,,9,Ontime,long,f,1,2.004,6,3,27,1,1,,,,,
0.05,,,,,,,,,f,blue,5b09da13641b1200010eab05,2021-11-03_11h47.26.591,forced_choiceRT_color,2021.2.3,Win32,144.092219,,,,,,,,9,Ontime,long,f,1,1.954,7,0,28,1,1,,,,,
1.47,,,,,,,,,k,purple,5b09da13641b1200010eab05,2021-11-03_11h47.26.591,forced_choiceRT_color,2021.2.3,Win32,144.092219,,,,,,,,9,Ontime,long,k,1,2.035,7,1,29,3,1,,,,,
1.5,,,,,,,,,k,purple,5b09da13641b1200010eab05,2021-11-03_11h47.26.591,forced_choiceRT_color,2021.2.3,Win32,144.092219,,,,,,,,9,Ontime,long,k,1,1.94,7,2,30,3,1,,,,,
1.82,,,,,,,,,k,purple,5b09da13641b1200010eab05,2021-11-03_11h47.26.591,forced_choiceRT_color,2021.2.3,Win32,144.092219,,,,,,,,9,Slow,long,k,1,2.133,7,3,31,3,1,,,,,
1.2,,,,,,,,,k,purple,5b09da13641b1200010eab05,2021-11-03_11h47.26.591,forced_choiceRT_color,2021.2.3,Win32,144.092219,,,,,,,,9,Ontime,long,k,1,2.054,8,0,32,3,1,,,,,
1.76,,,,,,,,,k,purple,5b09da13641b1200010eab05,2021-11-03_11h47.26.591,forced_choiceRT_color,2021.2.3,Win32,144.092219,,,,,,,,9,Ontime,long,k,1,2.04,8,1,33,3,1,,,,,
1.82,,,,,,,,,k,purple,5b09da13641b1200010eab05,2021-11-03_11h47.26.591,forced_choiceRT_color,2021.2.3,Win32,144.092219,,,,,,,,9,Ontime,long,k,1,2.004,8,2,34,3,1,,,,,
0.94,,,,,,,,,k,purple,5b09da13641b1200010eab05,2021-11-03_11h47.26.591,forced_choiceRT_color,2021.2.3,Win32,144.092219,,,,,,,,9,Ontime,long,k,1,1.987,8,3,35,3,1,,,,,
1.08,,,,,,,,,d,orange,5b09da13641b1200010eab05,2021-11-03_11h47.26.591,forced_choiceRT_color,2021.2.3,Win32,144.092219,,,,,,,,9,Ontime,long,d,1,2.03,9,0,36,0,1,,,,,
0.1,,,,,,,,,f,blue,5b09da13641b1200010eab05,2021-11-03_11h47.26.591,forced_choiceRT_color,2021.2.3,Win32,144.092219,,,,,,,,9,Ontime,long,f,1,1.984,9,1,37,1,1,,,,,
0.76,,,,,,,,,f,blue,5b09da13641b1200010eab05,2021-11-03_11h47.26.591,forced_choiceRT_color,2021.2.3,Win32,144.092219,,,,,,,,9,Ontime,long,f,1,1.92,9,2,38,1,1,,,,,
1.45,,,,,,,,,d,orange,5b09da13641b1200010eab05,2021-11-03_11h47.26.591,forced_choiceRT_color,2021.2.3,Win32,144.092219,,,,,,,,9,Ontime,long,d,1,2.081,9,3,39,0,1,,,,,
,,,,,,,,,,,5b09da13641b1200010eab05,2021-11-03_11h47.26.591,forced_choiceRT_color,2021.2.3,Win32,144.092219,,,,,,,,,,,,,,,,,,,8,0,8,0,1
1.21,,,,,,,,,f,blue,5b09da13641b1200010eab05,2021-11-03_11h47.26.591,forced_choiceRT_color,2021.2.3,Win32,144.092219,,,,,,,,10,Ontime,long,f,1,2.039,0,0,0,1,1,,,,,
0.82,,,,,,,,,j,red,5b09da13641b1200010eab05,2021-11-03_11h47.26.591,forced_choiceRT_color,2021.2.3,Win32,144.092219,,,,,,,,10,Ontime,long,j,1,2.036,0,1,1,2,1,,,,,
1.56,,,,,,,,,f,blue,5b09da13641b1200010eab05,2021-11-03_11h47.26.591,forced_choiceRT_color,2021.2.3,Win32,144.092219,,,,,,,,10,Slow,long,f,1,2.208,0,2,2,1,1,,,,,
1.08,,,,,,,,,k,purple,5b09da13641b1200010eab05,2021-11-03_11h47.26.591,forced_choiceRT_color,2021.2.3,Win32,144.092219,,,,,,,,10,Fast,long,k,1,1.857,0,3,3,3,1,,,,,
1.1,,,,,,,,,k,purple,5b09da13641b1200010eab05,2021-11-03_11h47.26.591,forced_choiceRT_color,2021.2.3,Win32,144.092219,,,,,,,,10,Ontime,long,k,1,2.002,1,0,4,3,1,,,,,
1.62,,,,,,,,,d,orange,5b09da13641b1200010eab05,2021-11-03_11h47.26.591,forced_choiceRT_color,2021.2.3,Win32,144.092219,,,,,,,,10,Ontime,long,d,1,2.051,1,1,5,0,1,,,,,
1.69,,,,,,,,,k,purple,5b09da13641b1200010eab05,2021-11-03_11h47.26.591,forced_choiceRT_color,2021.2.3,Win32,144.092219,,,,,,,,10,Ontime,long,d,0,1.973,1,2,6,3,1,,,,,
0.84,,,,,,,,,d,orange,5b09da13641b1200010eab05,2021-11-03_11h47.26.591,forced_choiceRT_color,2021.2.3,Win32,144.092219,,,,,,,,10,Ontime,long,d,1,2.042,1,3,7,0,1,,,,,
0.27,,,,,,,,,f,blue,5b09da13641b1200010eab05,2021-11-03_11h47.26.591,forced_choiceRT_color,2021.2.3,Win32,144.092219,,,,,,,,10,Ontime,long,f,1,1.923,2,0,8,1,1,,,,,
0.15,,,,,,,,,k,purple,5b09da13641b1200010eab05,2021-11-03_11h47.26.591,forced_choiceRT_color,2021.2.3,Win32,144.092219,,,,,,,,10,Fast,long,k,1,1.793,2,1,9,3,1,,,,,
0,,,,,,,,,d,orange,5b09da13641b1200010eab05,2021-11-03_11h47.26.591,forced_choiceRT_color,2021.2.3,Win32,144.092219,,,,,,,,10,Ontime,long,d,1,1.953,2,2,10,0,1,,,,,
1.88,,,,,,,,,k,purple,5b09da13641b1200010eab05,2021-11-03_11h47.26.591,forced_choiceRT_color,2021.2.3,Win32,144.092219,,,,,,,,10,Slow,long,k,1,2.324,2,3,11,3,1,,,,,
1.91,,,,,,,,,f,blue,5b09da13641b1200010eab05,2021-11-03_11h47.26.591,forced_choiceRT_color,2021.2.3,Win32,144.092219,,,,,,,,10,Ontime,long,k,0,2.008,3,0,12,1,1,,,,,
0.35,,,,,,,,,f,blue,5b09da13641b1200010eab05,2021-11-03_11h47.26.591,forced_choiceRT_color,2021.2.3,Win32,144.092219,,,,,,,,10,Ontime,long,f,1,2.004,3,1,13,1,1,,,,,
0.5,,,,,,,,,d,orange,5b09da13641b1200010eab05,2021-11-03_11h47.26.591,forced_choiceRT_color,2021.2.3,Win32,144.092219,,,,,,,,10,Ontime,long,d,1,2.05,3,2,14,0,1,,,,,
1.26,,,,,,,,,k,purple,5b09da13641b1200010eab05,2021-11-03_11h47.26.591,forced_choiceRT_color,2021.2.3,Win32,144.092219,,,,,,,,10,Ontime,long,k,1,2.039,3,3,15,3,1,,,,,
0.02,,,,,,,,,j,red,5b09da13641b1200010eab05,2021-11-03_11h47.26.591,forced_choiceRT_color,2021.2.3,Win32,144.092219,,,,,,,,10,Ontime,long,j,1,1.971,4,0,16,2,1,,,,,
0.71,,,,,,,,,j,red,5b09da13641b1200010eab05,2021-11-03_11h47.26.591,forced_choiceRT_color,2021.2.3,Win32,144.092219,,,,,,,,10,Ontime,long,j,1,2.018,4,1,17,2,1,,,,,
0.53,,,,,,,,,j,red,5b09da13641b1200010eab05,2021-11-03_11h47.26.591,forced_choiceRT_color,2021.2.3,Win32,144.092219,,,,,,,,10,Ontime,long,j,1,2.075,4,2,18,2,1,,,,,
0.24,,,,,,,,,d,orange,5b09da13641b1200010eab05,2021-11-03_11h47.26.591,forced_choiceRT_color,2021.2.3,Win32,144.092219,,,,,,,,10,Ontime,long,d,1,1.94,4,3,19,0,1,,,,,
0.29,,,,,,,,,d,orange,5b09da13641b1200010eab05,2021-11-03_11h47.26.591,forced_choiceRT_color,2021.2.3,Win32,144.092219,,,,,,,,10,Ontime,long,d,1,1.925,5,0,20,0,1,,,,,
1.43,,,,,,,,,f,blue,5b09da13641b1200010eab05,2021-11-03_11h47.26.591,forced_choiceRT_color,2021.2.3,Win32,144.092219,,,,,,,,10,Ontime,long,f,1,1.981,5,1,21,1,1,,,,,
1.7,,,,,,,,,j,red,5b09da13641b1200010eab05,2021-11-03_11h47.26.591,forced_choiceRT_color,2021.2.3,Win32,144.092219,,,,,,,,10,Ontime,long,j,1,2.051,5,2,22,2,1,,,,,
0.65,,,,,,,,,d,orange,5b09da13641b1200010eab05,2021-11-03_11h47.26.591,forced_choiceRT_color,2021.2.3,Win32,144.092219,,,,,,,,10,Ontime,long,d,1,1.992,5,3,23,0,1,,,,,
1.05,,,,,,,,,f,blue,5b09da13641b1200010eab05,2021-11-03_11h47.26.591,forced_choiceRT_color,2021.2.3,Win32,144.092219,,,,,,,,10,Ontime,long,f,1,2.056,6,0,24,1,1,,,,,
1.48,,,,,,,,,f,blue,5b09da13641b1200010eab05,2021-11-03_11h47.26.591,forced_choiceRT_color,2021.2.3,Win32,144.092219,,,,,,,,10,Ontime,long,f,1,2.099,6,1,25,1,1,,,,,
1.26,,,,,,,,,d,orange,5b09da13641b1200010eab05,2021-11-03_11h47.26.591,forced_choiceRT_color,2021.2.3,Win32,144.092219,,,,,,,,10,Ontime,long,d,1,2.056,6,2,26,0,1,,,,,
1.46,,,,,,,,,k,purple,5b09da13641b1200010eab05,2021-11-03_11h47.26.591,forced_choiceRT_color,2021.2.3,Win32,144.092219,,,,,,,,10,Ontime,long,k,1,2.084,6,3,27,3,1,,,,,
1.19,,,,,,,,,j,red,5b09da13641b1200010eab05,2021-11-03_11h47.26.591,forced_choiceRT_color,2021.2.3,Win32,144.092219,,,,,,,,10,Ontime,long,j,1,1.98,7,0,28,2,1,,,,,
0.51,,,,,,,,,j,red,5b09da13641b1200010eab05,2021-11-03_11h47.26.591,forced_choiceRT_color,2021.2.3,Win32,144.092219,,,,,,,,10,Ontime,long,j,1,1.973,7,1,29,2,1,,,,,
1.58,,,,,,,,,k,purple,5b09da13641b1200010eab05,2021-11-03_11h47.26.591,forced_choiceRT_color,2021.2.3,Win32,144.092219,,,,,,,,10,Ontime,long,k,1,2.057,7,2,30,3,1,,,,,
1.92,,,,,,,,,k,purple,5b09da13641b1200010eab05,2021-11-03_11h47.26.591,forced_choiceRT_color,2021.2.3,Win32,144.092219,,,,,,,,10,Ontime,long,k,1,1.997,7,3,31,3,1,,,,,
0.27,,,,,,,,,j,red,5b09da13641b1200010eab05,2021-11-03_11h47.26.591,forced_choiceRT_color,2021.2.3,Win32,144.092219,,,,,,,,10,Ontime,long,j,1,2.079,8,0,32,2,1,,,,,
0.07,,,,,,,,,j,red,5b09da13641b1200010eab05,2021-11-03_11h47.26.591,forced_choiceRT_color,2021.2.3,Win32,144.092219,,,,,,,,10,Ontime,long,j,1,2.077,8,1,33,2,1,,,,,
1.29,,,,,,,,,f,blue,5b09da13641b1200010eab05,2021-11-03_11h47.26.591,forced_choiceRT_color,2021.2.3,Win32,144.092219,,,,,,,,10,Ontime,long,f,1,2.029,8,2,34,1,1,,,,,
0.03,,,,,,,,,f,blue,5b09da13641b1200010eab05,2021-11-03_11h47.26.591,forced_choiceRT_color,2021.2.3,Win32,144.092219,,,,,,,,10,Ontime,long,f,1,1.972,8,3,35,1,1,,,,,
1.06,,,,,,,,,k,purple,5b09da13641b1200010eab05,2021-11-03_11h47.26.591,forced_choiceRT_color,2021.2.3,Win32,144.092219,,,,,,,,10,Ontime,long,k,1,2.023,9,0,36,3,1,,,,,
0.12,,,,,,,,,d,orange,5b09da13641b1200010eab05,2021-11-03_11h47.26.591,forced_choiceRT_color,2021.2.3,Win32,144.092219,,,,,,,,10,Ontime,long,d,1,1.987,9,1,37,0,1,,,,,
0.01,,,,,,,,,d,orange,5b09da13641b1200010eab05,2021-11-03_11h47.26.591,forced_choiceRT_color,2021.2.3,Win32,144.092219,,,,,,,,10,Ontime,long,d,1,1.969,9,2,38,0,1,,,,,
0.48,,,,,,,,,j,red,5b09da13641b1200010eab05,2021-11-03_11h47.26.591,forced_choiceRT_color,2021.2.3,Win32,144.092219,,,,,,,,10,Ontime,long,j,1,2.064,9,3,39,2,1,,,,,
,,,,,,,,,,,5b09da13641b1200010eab05,2021-11-03_11h47.26.591,forced_choiceRT_color,2021.2.3,Win32,144.092219,,,,,,,,,,,,,,,,,,,9,0,9,0,1
