target_onset,trial_resp_sp.keys,trial_resp_sp.corr,trial_resp_sp.rt,trials_train_loop.thisRepN,trials_train_loop.thisTrialN,trials_train_loop.thisN,trials_train_loop.thisIndex,trials_train_loop.ran,correct_key,color,participant,date,expName,psychopyVersion,OS,frameRate,trial_resp_timing.keys,trial_resp_timing.rt,trials_train_timing.thisRepN,trials_train_timing.thisTrialN,trials_train_timing.thisN,trials_train_timing.thisIndex,trials_train_timing.ran,block_id,ontime,feedback_cond,forcedRT_resp.keys,forcedRT_resp.corr,forcedRT_resp.rt,trials.thisRepN,trials.thisTrialN,trials.thisN,trials.thisIndex,trials.ran,blocks.thisRepN,blocks.thisTrialN,blocks.thisN,blocks.thisIndex,blocks.ran
0,d,1,2.335,0,0,0,0,1,d,orange,5b3fdff9d67d210001d58ac5,2021-10-22_13h49.39.942,forced_choiceRT_color,2021.2.3,Win32,59.88023952,,,,,,,,,,,,,,,,,,,,,,,
0,f,1,1.128,0,1,1,1,1,f,blue,5b3fdff9d67d210001d58ac5,2021-10-22_13h49.39.942,forced_choiceRT_color,2021.2.3,Win32,59.88023952,,,,,,,,,,,,,,,,,,,,,,,
0,f,1,1.595,0,2,2,1,1,f,blue,5b3fdff9d67d210001d58ac5,2021-10-22_13h49.39.942,forced_choiceRT_color,2021.2.3,Win32,59.88023952,,,,,,,,,,,,,,,,,,,,,,,
0,k,1,1.022,0,3,3,3,1,k,purple,5b3fdff9d67d210001d58ac5,2021-10-22_13h49.39.942,forced_choiceRT_color,2021.2.3,Win32,59.88023952,,,,,,,,,,,,,,,,,,,,,,,
0,k,1,0.503,1,0,4,3,1,k,purple,5b3fdff9d67d210001d58ac5,2021-10-22_13h49.39.942,forced_choiceRT_color,2021.2.3,Win32,59.88023952,,,,,,,,,,,,,,,,,,,,,,,
0,d,1,0.81,1,1,5,0,1,d,orange,5b3fdff9d67d210001d58ac5,2021-10-22_13h49.39.942,forced_choiceRT_color,2021.2.3,Win32,59.88023952,,,,,,,,,,,,,,,,,,,,,,,
0,d,1,0.501,1,2,6,0,1,d,orange,5b3fdff9d67d210001d58ac5,2021-10-22_13h49.39.942,forced_choiceRT_color,2021.2.3,Win32,59.88023952,,,,,,,,,,,,,,,,,,,,,,,
0,j,1,0.97,1,3,7,2,1,j,red,5b3fdff9d67d210001d58ac5,2021-10-22_13h49.39.942,forced_choiceRT_color,2021.2.3,Win32,59.88023952,,,,,,,,,,,,,,,,,,,,,,,
0,j,1,1.003,2,0,8,2,1,j,red,5b3fdff9d67d210001d58ac5,2021-10-22_13h49.39.942,forced_choiceRT_color,2021.2.3,Win32,59.88023952,,,,,,,,,,,,,,,,,,,,,,,
0,f,1,1.731,2,1,9,1,1,f,blue,5b3fdff9d67d210001d58ac5,2021-10-22_13h49.39.942,forced_choiceRT_color,2021.2.3,Win32,59.88023952,,,,,,,,,,,,,,,,,,,,,,,
0,k,1,0.919,2,2,10,3,1,k,purple,5b3fdff9d67d210001d58ac5,2021-10-22_13h49.39.942,forced_choiceRT_color,2021.2.3,Win32,59.88023952,,,,,,,,,,,,,,,,,,,,,,,
0,j,1,0.826,2,3,11,2,1,j,red,5b3fdff9d67d210001d58ac5,2021-10-22_13h49.39.942,forced_choiceRT_color,2021.2.3,Win32,59.88023952,,,,,,,,,,,,,,,,,,,,,,,
0,j,1,0.97,3,0,12,2,1,j,red,5b3fdff9d67d210001d58ac5,2021-10-22_13h49.39.942,forced_choiceRT_color,2021.2.3,Win32,59.88023952,,,,,,,,,,,,,,,,,,,,,,,
0,j,1,0.554,3,1,13,2,1,j,red,5b3fdff9d67d210001d58ac5,2021-10-22_13h49.39.942,forced_choiceRT_color,2021.2.3,Win32,59.88023952,,,,,,,,,,,,,,,,,,,,,,,
0,j,1,0.454,3,2,14,2,1,j,red,5b3fdff9d67d210001d58ac5,2021-10-22_13h49.39.942,forced_choiceRT_color,2021.2.3,Win32,59.88023952,,,,,,,,,,,,,,,,,,,,,,,
0,k,1,0.527,3,3,15,3,1,k,purple,5b3fdff9d67d210001d58ac5,2021-10-22_13h49.39.942,forced_choiceRT_color,2021.2.3,Win32,59.88023952,,,,,,,,,,,,,,,,,,,,,,,
0,k,1,0.67,4,0,16,3,1,k,purple,5b3fdff9d67d210001d58ac5,2021-10-22_13h49.39.942,forced_choiceRT_color,2021.2.3,Win32,59.88023952,,,,,,,,,,,,,,,,,,,,,,,
0,k,1,0.393,4,1,17,3,1,k,purple,5b3fdff9d67d210001d58ac5,2021-10-22_13h49.39.942,forced_choiceRT_color,2021.2.3,Win32,59.88023952,,,,,,,,,,,,,,,,,,,,,,,
0,k,1,0.428,4,2,18,3,1,k,purple,5b3fdff9d67d210001d58ac5,2021-10-22_13h49.39.942,forced_choiceRT_color,2021.2.3,Win32,59.88023952,,,,,,,,,,,,,,,,,,,,,,,
0,f,1,0.919,4,3,19,1,1,f,blue,5b3fdff9d67d210001d58ac5,2021-10-22_13h49.39.942,forced_choiceRT_color,2021.2.3,Win32,59.88023952,,,,,,,,,,,,,,,,,,,,,,,
0,d,1,0.569,5,0,20,0,1,d,orange,5b3fdff9d67d210001d58ac5,2021-10-22_13h49.39.942,forced_choiceRT_color,2021.2.3,Win32,59.88023952,,,,,,,,,,,,,,,,,,,,,,,
0,f,1,0.66,5,1,21,1,1,f,blue,5b3fdff9d67d210001d58ac5,2021-10-22_13h49.39.942,forced_choiceRT_color,2021.2.3,Win32,59.88023952,,,,,,,,,,,,,,,,,,,,,,,
0,k,1,0.706,5,2,22,3,1,k,purple,5b3fdff9d67d210001d58ac5,2021-10-22_13h49.39.942,forced_choiceRT_color,2021.2.3,Win32,59.88023952,,,,,,,,,,,,,,,,,,,,,,,
0,j,1,0.6,5,3,23,2,1,j,red,5b3fdff9d67d210001d58ac5,2021-10-22_13h49.39.942,forced_choiceRT_color,2021.2.3,Win32,59.88023952,,,,,,,,,,,,,,,,,,,,,,,
0,j,1,0.656,6,0,24,2,1,j,red,5b3fdff9d67d210001d58ac5,2021-10-22_13h49.39.942,forced_choiceRT_color,2021.2.3,Win32,59.88023952,,,,,,,,,,,,,,,,,,,,,,,
0,f,1,0.607,6,1,25,1,1,f,blue,5b3fdff9d67d210001d58ac5,2021-10-22_13h49.39.942,forced_choiceRT_color,2021.2.3,Win32,59.88023952,,,,,,,,,,,,,,,,,,,,,,,
0,k,1,0.653,6,2,26,3,1,k,purple,5b3fdff9d67d210001d58ac5,2021-10-22_13h49.39.942,forced_choiceRT_color,2021.2.3,Win32,59.88023952,,,,,,,,,,,,,,,,,,,,,,,
0,d,1,0.719,6,3,27,0,1,d,orange,5b3fdff9d67d210001d58ac5,2021-10-22_13h49.39.942,forced_choiceRT_color,2021.2.3,Win32,59.88023952,,,,,,,,,,,,,,,,,,,,,,,
0,k,1,0.552,7,0,28,3,1,k,purple,5b3fdff9d67d210001d58ac5,2021-10-22_13h49.39.942,forced_choiceRT_color,2021.2.3,Win32,59.88023952,,,,,,,,,,,,,,,,,,,,,,,
0,f,1,0.92,7,1,29,1,1,f,blue,5b3fdff9d67d210001d58ac5,2021-10-22_13h49.39.942,forced_choiceRT_color,2021.2.3,Win32,59.88023952,,,,,,,,,,,,,,,,,,,,,,,
0,d,1,0.677,7,2,30,0,1,d,orange,5b3fdff9d67d210001d58ac5,2021-10-22_13h49.39.942,forced_choiceRT_color,2021.2.3,Win32,59.88023952,,,,,,,,,,,,,,,,,,,,,,,
0,f,1,0.547,7,3,31,1,1,f,blue,5b3fdff9d67d210001d58ac5,2021-10-22_13h49.39.942,forced_choiceRT_color,2021.2.3,Win32,59.88023952,,,,,,,,,,,,,,,,,,,,,,,
0,d,1,0.558,8,0,32,0,1,d,orange,5b3fdff9d67d210001d58ac5,2021-10-22_13h49.39.942,forced_choiceRT_color,2021.2.3,Win32,59.88023952,,,,,,,,,,,,,,,,,,,,,,,
0,k,1,0.522,8,1,33,3,1,k,purple,5b3fdff9d67d210001d58ac5,2021-10-22_13h49.39.942,forced_choiceRT_color,2021.2.3,Win32,59.88023952,,,,,,,,,,,,,,,,,,,,,,,
0,k,1,1.278,8,2,34,3,1,k,purple,5b3fdff9d67d210001d58ac5,2021-10-22_13h49.39.942,forced_choiceRT_color,2021.2.3,Win32,59.88023952,,,,,,,,,,,,,,,,,,,,,,,
0,j,1,0.988,8,3,35,2,1,j,red,5b3fdff9d67d210001d58ac5,2021-10-22_13h49.39.942,forced_choiceRT_color,2021.2.3,Win32,59.88023952,,,,,,,,,,,,,,,,,,,,,,,
0,d,1,0.569,9,0,36,0,1,d,orange,5b3fdff9d67d210001d58ac5,2021-10-22_13h49.39.942,forced_choiceRT_color,2021.2.3,Win32,59.88023952,,,,,,,,,,,,,,,,,,,,,,,
0,d,1,0.481,9,1,37,0,1,d,orange,5b3fdff9d67d210001d58ac5,2021-10-22_13h49.39.942,forced_choiceRT_color,2021.2.3,Win32,59.88023952,,,,,,,,,,,,,,,,,,,,,,,
0,f,1,0.393,9,2,38,1,1,f,blue,5b3fdff9d67d210001d58ac5,2021-10-22_13h49.39.942,forced_choiceRT_color,2021.2.3,Win32,59.88023952,,,,,,,,,,,,,,,,,,,,,,,
0,f,1,0.361,9,3,39,1,1,f,blue,5b3fdff9d67d210001d58ac5,2021-10-22_13h49.39.942,forced_choiceRT_color,2021.2.3,Win32,59.88023952,,,,,,,,,,,,,,,,,,,,,,,
0,j,0,0.431,10,0,40,0,1,d,orange,5b3fdff9d67d210001d58ac5,2021-10-22_13h49.39.942,forced_choiceRT_color,2021.2.3,Win32,59.88023952,,,,,,,,,,,,,,,,,,,,,,,
0,d,1,0.454,10,1,41,0,1,d,orange,5b3fdff9d67d210001d58ac5,2021-10-22_13h49.39.942,forced_choiceRT_color,2021.2.3,Win32,59.88023952,,,,,,,,,,,,,,,,,,,,,,,
0,f,1,0.806,10,2,42,1,1,f,blue,5b3fdff9d67d210001d58ac5,2021-10-22_13h49.39.942,forced_choiceRT_color,2021.2.3,Win32,59.88023952,,,,,,,,,,,,,,,,,,,,,,,
0,j,1,0.758,10,3,43,2,1,j,red,5b3fdff9d67d210001d58ac5,2021-10-22_13h49.39.942,forced_choiceRT_color,2021.2.3,Win32,59.88023952,,,,,,,,,,,,,,,,,,,,,,,
0,d,1,0.937,11,0,44,0,1,d,orange,5b3fdff9d67d210001d58ac5,2021-10-22_13h49.39.942,forced_choiceRT_color,2021.2.3,Win32,59.88023952,,,,,,,,,,,,,,,,,,,,,,,
0,k,1,0.781,11,1,45,3,1,k,purple,5b3fdff9d67d210001d58ac5,2021-10-22_13h49.39.942,forced_choiceRT_color,2021.2.3,Win32,59.88023952,,,,,,,,,,,,,,,,,,,,,,,
0,j,1,0.853,11,2,46,2,1,j,red,5b3fdff9d67d210001d58ac5,2021-10-22_13h49.39.942,forced_choiceRT_color,2021.2.3,Win32,59.88023952,,,,,,,,,,,,,,,,,,,,,,,
0,f,1,0.741,11,3,47,1,1,f,blue,5b3fdff9d67d210001d58ac5,2021-10-22_13h49.39.942,forced_choiceRT_color,2021.2.3,Win32,59.88023952,,,,,,,,,,,,,,,,,,,,,,,
0,j,1,0.689,12,0,48,2,1,j,red,5b3fdff9d67d210001d58ac5,2021-10-22_13h49.39.942,forced_choiceRT_color,2021.2.3,Win32,59.88023952,,,,,,,,,,,,,,,,,,,,,,,
0,d,1,0.655,12,1,49,0,1,d,orange,5b3fdff9d67d210001d58ac5,2021-10-22_13h49.39.942,forced_choiceRT_color,2021.2.3,Win32,59.88023952,,,,,,,,,,,,,,,,,,,,,,,
0,d,1,0.486,12,2,50,0,1,d,orange,5b3fdff9d67d210001d58ac5,2021-10-22_13h49.39.942,forced_choiceRT_color,2021.2.3,Win32,59.88023952,,,,,,,,,,,,,,,,,,,,,,,
0,f,1,0.62,12,3,51,1,1,f,blue,5b3fdff9d67d210001d58ac5,2021-10-22_13h49.39.942,forced_choiceRT_color,2021.2.3,Win32,59.88023952,,,,,,,,,,,,,,,,,,,,,,,
0,j,1,0.59,13,0,52,2,1,j,red,5b3fdff9d67d210001d58ac5,2021-10-22_13h49.39.942,forced_choiceRT_color,2021.2.3,Win32,59.88023952,,,,,,,,,,,,,,,,,,,,,,,
0,j,1,0.453,13,1,53,2,1,j,red,5b3fdff9d67d210001d58ac5,2021-10-22_13h49.39.942,forced_choiceRT_color,2021.2.3,Win32,59.88023952,,,,,,,,,,,,,,,,,,,,,,,
0,k,1,0.535,13,2,54,3,1,k,purple,5b3fdff9d67d210001d58ac5,2021-10-22_13h49.39.942,forced_choiceRT_color,2021.2.3,Win32,59.88023952,,,,,,,,,,,,,,,,,,,,,,,
0,f,1,1.036,13,3,55,1,1,f,blue,5b3fdff9d67d210001d58ac5,2021-10-22_13h49.39.942,forced_choiceRT_color,2021.2.3,Win32,59.88023952,,,,,,,,,,,,,,,,,,,,,,,
0,j,1,0.643,14,0,56,2,1,j,red,5b3fdff9d67d210001d58ac5,2021-10-22_13h49.39.942,forced_choiceRT_color,2021.2.3,Win32,59.88023952,,,,,,,,,,,,,,,,,,,,,,,
0,f,1,0.77,14,1,57,1,1,f,blue,5b3fdff9d67d210001d58ac5,2021-10-22_13h49.39.942,forced_choiceRT_color,2021.2.3,Win32,59.88023952,,,,,,,,,,,,,,,,,,,,,,,
0,k,1,0.66,14,2,58,3,1,k,purple,5b3fdff9d67d210001d58ac5,2021-10-22_13h49.39.942,forced_choiceRT_color,2021.2.3,Win32,59.88023952,,,,,,,,,,,,,,,,,,,,,,,
0,d,1,0.534,14,3,59,0,1,d,orange,5b3fdff9d67d210001d58ac5,2021-10-22_13h49.39.942,forced_choiceRT_color,2021.2.3,Win32,59.88023952,,,,,,,,,,,,,,,,,,,,,,,
,,,,,,,,,,,5b3fdff9d67d210001d58ac5,2021-10-22_13h49.39.942,forced_choiceRT_color,2021.2.3,Win32,59.88023952,f,1.587,0,0,0,0,1,,,,,,,,,,,,,,,,
,,,,,,,,,,,5b3fdff9d67d210001d58ac5,2021-10-22_13h49.39.942,forced_choiceRT_color,2021.2.3,Win32,59.88023952,f,1.957,1,0,1,0,1,,,,,,,,,,,,,,,,
,,,,,,,,,,,5b3fdff9d67d210001d58ac5,2021-10-22_13h49.39.942,forced_choiceRT_color,2021.2.3,Win32,59.88023952,f,1.712,2,0,2,0,1,,,,,,,,,,,,,,,,
,,,,,,,,,,,5b3fdff9d67d210001d58ac5,2021-10-22_13h49.39.942,forced_choiceRT_color,2021.2.3,Win32,59.88023952,j,1.854,3,0,3,0,1,,,,,,,,,,,,,,,,
,,,,,,,,,,,5b3fdff9d67d210001d58ac5,2021-10-22_13h49.39.942,forced_choiceRT_color,2021.2.3,Win32,59.88023952,k,2.032,4,0,4,0,1,,,,,,,,,,,,,,,,
,,,,,,,,,,,5b3fdff9d67d210001d58ac5,2021-10-22_13h49.39.942,forced_choiceRT_color,2021.2.3,Win32,59.88023952,k,2.022,5,0,5,0,1,,,,,,,,,,,,,,,,
,,,,,,,,,,,5b3fdff9d67d210001d58ac5,2021-10-22_13h49.39.942,forced_choiceRT_color,2021.2.3,Win32,59.88023952,k,2.091,6,0,6,0,1,,,,,,,,,,,,,,,,
,,,,,,,,,,,5b3fdff9d67d210001d58ac5,2021-10-22_13h49.39.942,forced_choiceRT_color,2021.2.3,Win32,59.88023952,j,2.144,7,0,7,0,1,,,,,,,,,,,,,,,,
,,,,,,,,,,,5b3fdff9d67d210001d58ac5,2021-10-22_13h49.39.942,forced_choiceRT_color,2021.2.3,Win32,59.88023952,f,2.063,8,0,8,0,1,,,,,,,,,,,,,,,,
,,,,,,,,,,,5b3fdff9d67d210001d58ac5,2021-10-22_13h49.39.942,forced_choiceRT_color,2021.2.3,Win32,59.88023952,d,2.021,9,0,9,0,1,,,,,,,,,,,,,,,,
,,,,,,,,,,,5b3fdff9d67d210001d58ac5,2021-10-22_13h49.39.942,forced_choiceRT_color,2021.2.3,Win32,59.88023952,j,2.038,10,0,10,0,1,,,,,,,,,,,,,,,,
,,,,,,,,,,,5b3fdff9d67d210001d58ac5,2021-10-22_13h49.39.942,forced_choiceRT_color,2021.2.3,Win32,59.88023952,k,2.04,11,0,11,0,1,,,,,,,,,,,,,,,,
,,,,,,,,,,,5b3fdff9d67d210001d58ac5,2021-10-22_13h49.39.942,forced_choiceRT_color,2021.2.3,Win32,59.88023952,d,2.014,12,0,12,0,1,,,,,,,,,,,,,,,,
,,,,,,,,,,,5b3fdff9d67d210001d58ac5,2021-10-22_13h49.39.942,forced_choiceRT_color,2021.2.3,Win32,59.88023952,f,2.059,13,0,13,0,1,,,,,,,,,,,,,,,,
,,,,,,,,,,,5b3fdff9d67d210001d58ac5,2021-10-22_13h49.39.942,forced_choiceRT_color,2021.2.3,Win32,59.88023952,j,2.064,14,0,14,0,1,,,,,,,,,,,,,,,,
,,,,,,,,,,,5b3fdff9d67d210001d58ac5,2021-10-22_13h49.39.942,forced_choiceRT_color,2021.2.3,Win32,59.88023952,k,2.261,15,0,15,0,1,,,,,,,,,,,,,,,,
,,,,,,,,,,,5b3fdff9d67d210001d58ac5,2021-10-22_13h49.39.942,forced_choiceRT_color,2021.2.3,Win32,59.88023952,f,2.026,16,0,16,0,1,,,,,,,,,,,,,,,,
,,,,,,,,,,,5b3fdff9d67d210001d58ac5,2021-10-22_13h49.39.942,forced_choiceRT_color,2021.2.3,Win32,59.88023952,j,2.039,17,0,17,0,1,,,,,,,,,,,,,,,,
,,,,,,,,,,,5b3fdff9d67d210001d58ac5,2021-10-22_13h49.39.942,forced_choiceRT_color,2021.2.3,Win32,59.88023952,k,2.077,18,0,18,0,1,,,,,,,,,,,,,,,,
,,,,,,,,,,,5b3fdff9d67d210001d58ac5,2021-10-22_13h49.39.942,forced_choiceRT_color,2021.2.3,Win32,59.88023952,d,1.848,19,0,19,0,1,,,,,,,,,,,,,,,,
0.28,,,,,,,,,k,purple,5b3fdff9d67d210001d58ac5,2021-10-22_13h49.39.942,forced_choiceRT_color,2021.2.3,Win32,59.88023952,,,,,,,,1,Slow,short,k,1,2.206,0,0,0,3,1,,,,,
0.47,,,,,,,,,j,red,5b3fdff9d67d210001d58ac5,2021-10-22_13h49.39.942,forced_choiceRT_color,2021.2.3,Win32,59.88023952,,,,,,,,1,Ontime,short,j,1,2.002,0,1,1,2,1,,,,,
0.83,,,,,,,,,f,blue,5b3fdff9d67d210001d58ac5,2021-10-22_13h49.39.942,forced_choiceRT_color,2021.2.3,Win32,59.88023952,,,,,,,,1,Ontime,short,f,1,2.008,0,2,2,1,1,,,,,
0.01,,,,,,,,,d,orange,5b3fdff9d67d210001d58ac5,2021-10-22_13h49.39.942,forced_choiceRT_color,2021.2.3,Win32,59.88023952,,,,,,,,1,Ontime,short,d,1,1.97,0,3,3,0,1,,,,,
0.41,,,,,,,,,d,orange,5b3fdff9d67d210001d58ac5,2021-10-22_13h49.39.942,forced_choiceRT_color,2021.2.3,Win32,59.88023952,,,,,,,,1,Ontime,short,d,1,2.025,1,0,4,0,1,,,,,
0.15,,,,,,,,,d,orange,5b3fdff9d67d210001d58ac5,2021-10-22_13h49.39.942,forced_choiceRT_color,2021.2.3,Win32,59.88023952,,,,,,,,1,Ontime,short,d,1,2.042,1,1,5,0,1,,,,,
1.86,,,,,,,,,d,orange,5b3fdff9d67d210001d58ac5,2021-10-22_13h49.39.942,forced_choiceRT_color,2021.2.3,Win32,59.88023952,,,,,,,,1,Slow,short,d,1,2.181,1,2,6,0,1,,,,,
0.6,,,,,,,,,j,red,5b3fdff9d67d210001d58ac5,2021-10-22_13h49.39.942,forced_choiceRT_color,2021.2.3,Win32,59.88023952,,,,,,,,1,Slow,short,j,1,2.105,1,3,7,2,1,,,,,
0.16,,,,,,,,,d,orange,5b3fdff9d67d210001d58ac5,2021-10-22_13h49.39.942,forced_choiceRT_color,2021.2.3,Win32,59.88023952,,,,,,,,1,Fast,short,d,1,1.881,2,0,8,0,1,,,,,
1.3,,,,,,,,,d,orange,5b3fdff9d67d210001d58ac5,2021-10-22_13h49.39.942,forced_choiceRT_color,2021.2.3,Win32,59.88023952,,,,,,,,1,Fast,short,d,1,1.815,2,1,9,0,1,,,,,
0.1,,,,,,,,,j,red,5b3fdff9d67d210001d58ac5,2021-10-22_13h49.39.942,forced_choiceRT_color,2021.2.3,Win32,59.88023952,,,,,,,,1,Slow,short,j,1,2.138,2,2,10,2,1,,,,,
1.01,,,,,,,,,f,blue,5b3fdff9d67d210001d58ac5,2021-10-22_13h49.39.942,forced_choiceRT_color,2021.2.3,Win32,59.88023952,,,,,,,,1,Ontime,short,f,1,2.054,2,3,11,1,1,,,,,
1.57,,,,,,,,,d,orange,5b3fdff9d67d210001d58ac5,2021-10-22_13h49.39.942,forced_choiceRT_color,2021.2.3,Win32,59.88023952,,,,,,,,1,Ontime,short,d,1,1.94,3,0,12,0,1,,,,,
0.24,,,,,,,,,f,blue,5b3fdff9d67d210001d58ac5,2021-10-22_13h49.39.942,forced_choiceRT_color,2021.2.3,Win32,59.88023952,,,,,,,,1,Fast,short,f,1,1.87,3,1,13,1,1,,,,,
0.93,,,,,,,,,f,blue,5b3fdff9d67d210001d58ac5,2021-10-22_13h49.39.942,forced_choiceRT_color,2021.2.3,Win32,59.88023952,,,,,,,,1,Ontime,short,f,1,2.032,3,2,14,1,1,,,,,
1.69,,,,,,,,,k,purple,5b3fdff9d67d210001d58ac5,2021-10-22_13h49.39.942,forced_choiceRT_color,2021.2.3,Win32,59.88023952,,,,,,,,1,Ontime,short,f,0,1.979,3,3,15,3,1,,,,,
1.81,,,,,,,,,f,blue,5b3fdff9d67d210001d58ac5,2021-10-22_13h49.39.942,forced_choiceRT_color,2021.2.3,Win32,59.88023952,,,,,,,,1,Slow,short,f,1,3.025,4,0,16,1,1,,,,,
0.15,,,,,,,,,k,purple,5b3fdff9d67d210001d58ac5,2021-10-22_13h49.39.942,forced_choiceRT_color,2021.2.3,Win32,59.88023952,,,,,,,,1,Fast,short,k,1,1.888,4,1,17,3,1,,,,,
0.73,,,,,,,,,j,red,5b3fdff9d67d210001d58ac5,2021-10-22_13h49.39.942,forced_choiceRT_color,2021.2.3,Win32,59.88023952,,,,,,,,1,Ontime,short,j,1,2.079,4,2,18,2,1,,,,,
0.07,,,,,,,,,k,purple,5b3fdff9d67d210001d58ac5,2021-10-22_13h49.39.942,forced_choiceRT_color,2021.2.3,Win32,59.88023952,,,,,,,,1,Ontime,short,k,1,2.057,4,3,19,3,1,,,,,
1.77,,,,,,,,,f,blue,5b3fdff9d67d210001d58ac5,2021-10-22_13h49.39.942,forced_choiceRT_color,2021.2.3,Win32,59.88023952,,,,,,,,1,Ontime,short,f,1,2.099,5,0,20,1,1,,,,,
0.34,,,,,,,,,j,red,5b3fdff9d67d210001d58ac5,2021-10-22_13h49.39.942,forced_choiceRT_color,2021.2.3,Win32,59.88023952,,,,,,,,1,Ontime,short,j,1,2.025,5,1,21,2,1,,,,,
0.78,,,,,,,,,f,blue,5b3fdff9d67d210001d58ac5,2021-10-22_13h49.39.942,forced_choiceRT_color,2021.2.3,Win32,59.88023952,,,,,,,,1,Ontime,short,f,1,2.088,5,2,22,1,1,,,,,
0.28,,,,,,,,,k,purple,5b3fdff9d67d210001d58ac5,2021-10-22_13h49.39.942,forced_choiceRT_color,2021.2.3,Win32,59.88023952,,,,,,,,1,Ontime,short,k,1,2.089,5,3,23,3,1,,,,,
1.79,,,,,,,,,k,purple,5b3fdff9d67d210001d58ac5,2021-10-22_13h49.39.942,forced_choiceRT_color,2021.2.3,Win32,59.88023952,,,,,,,,1,Slow,short,f,0,2.182,6,0,24,3,1,,,,,
1.95,,,,,,,,,f,blue,5b3fdff9d67d210001d58ac5,2021-10-22_13h49.39.942,forced_choiceRT_color,2021.2.3,Win32,59.88023952,,,,,,,,1,Slow,short,f,1,2.19,6,1,25,1,1,,,,,
1.49,,,,,,,,,k,purple,5b3fdff9d67d210001d58ac5,2021-10-22_13h49.39.942,forced_choiceRT_color,2021.2.3,Win32,59.88023952,,,,,,,,1,Fast,short,f,0,1.893,6,2,26,3,1,,,,,
0.63,,,,,,,,,d,orange,5b3fdff9d67d210001d58ac5,2021-10-22_13h49.39.942,forced_choiceRT_color,2021.2.3,Win32,59.88023952,,,,,,,,1,Ontime,short,d,1,2.064,6,3,27,0,1,,,,,
0.98,,,,,,,,,j,red,5b3fdff9d67d210001d58ac5,2021-10-22_13h49.39.942,forced_choiceRT_color,2021.2.3,Win32,59.88023952,,,,,,,,1,Ontime,short,j,1,2.074,7,0,28,2,1,,,,,
0.02,,,,,,,,,f,blue,5b3fdff9d67d210001d58ac5,2021-10-22_13h49.39.942,forced_choiceRT_color,2021.2.3,Win32,59.88023952,,,,,,,,1,Ontime,short,f,1,2.055,7,1,29,1,1,,,,,
1.6,,,,,,,,,j,red,5b3fdff9d67d210001d58ac5,2021-10-22_13h49.39.942,forced_choiceRT_color,2021.2.3,Win32,59.88023952,,,,,,,,1,Ontime,short,f,0,2.054,7,2,30,2,1,,,,,
0.66,,,,,,,,,f,blue,5b3fdff9d67d210001d58ac5,2021-10-22_13h49.39.942,forced_choiceRT_color,2021.2.3,Win32,59.88023952,,,,,,,,1,Fast,short,j,0,0.093,7,3,31,1,1,,,,,
0.29,,,,,,,,,j,red,5b3fdff9d67d210001d58ac5,2021-10-22_13h49.39.942,forced_choiceRT_color,2021.2.3,Win32,59.88023952,,,,,,,,1,Slow,short,j,1,2.105,8,0,32,2,1,,,,,
1.63,,,,,,,,,d,orange,5b3fdff9d67d210001d58ac5,2021-10-22_13h49.39.942,forced_choiceRT_color,2021.2.3,Win32,59.88023952,,,,,,,,1,Ontime,short,f,0,2.072,8,1,33,0,1,,,,,
1.62,,,,,,,,,j,red,5b3fdff9d67d210001d58ac5,2021-10-22_13h49.39.942,forced_choiceRT_color,2021.2.3,Win32,59.88023952,,,,,,,,1,Ontime,short,j,1,2.079,8,2,34,2,1,,,,,
0.48,,,,,,,,,k,purple,5b3fdff9d67d210001d58ac5,2021-10-22_13h49.39.942,forced_choiceRT_color,2021.2.3,Win32,59.88023952,,,,,,,,1,Slow,short,k,1,2.157,8,3,35,3,1,,,,,
0.48,,,,,,,,,k,purple,5b3fdff9d67d210001d58ac5,2021-10-22_13h49.39.942,forced_choiceRT_color,2021.2.3,Win32,59.88023952,,,,,,,,1,Fast,short,k,1,1.896,9,0,36,3,1,,,,,
0.74,,,,,,,,,d,orange,5b3fdff9d67d210001d58ac5,2021-10-22_13h49.39.942,forced_choiceRT_color,2021.2.3,Win32,59.88023952,,,,,,,,1,Ontime,short,f,0,2.075,9,1,37,0,1,,,,,
1.45,,,,,,,,,k,purple,5b3fdff9d67d210001d58ac5,2021-10-22_13h49.39.942,forced_choiceRT_color,2021.2.3,Win32,59.88023952,,,,,,,,1,Ontime,short,k,1,1.942,9,2,38,3,1,,,,,
0.94,,,,,,,,,j,red,5b3fdff9d67d210001d58ac5,2021-10-22_13h49.39.942,forced_choiceRT_color,2021.2.3,Win32,59.88023952,,,,,,,,1,Ontime,short,f,0,1.908,9,3,39,2,1,,,,,
,,,,,,,,,,,5b3fdff9d67d210001d58ac5,2021-10-22_13h49.39.942,forced_choiceRT_color,2021.2.3,Win32,59.88023952,,,,,,,,,,,,,,,,,,,0,0,0,0,1
1.75,,,,,,,,,f,blue,5b3fdff9d67d210001d58ac5,2021-10-22_13h49.39.942,forced_choiceRT_color,2021.2.3,Win32,59.88023952,,,,,,,,2,Slow,short,f,1,2.168,0,0,0,1,1,,,,,
1.86,,,,,,,,,d,orange,5b3fdff9d67d210001d58ac5,2021-10-22_13h49.39.942,forced_choiceRT_color,2021.2.3,Win32,59.88023952,,,,,,,,2,Slow,short,j,0,2.222,0,1,1,0,1,,,,,
0.12,,,,,,,,,j,red,5b3fdff9d67d210001d58ac5,2021-10-22_13h49.39.942,forced_choiceRT_color,2021.2.3,Win32,59.88023952,,,,,,,,2,Ontime,short,j,1,2.046,0,2,2,2,1,,,,,
1.34,,,,,,,,,j,red,5b3fdff9d67d210001d58ac5,2021-10-22_13h49.39.942,forced_choiceRT_color,2021.2.3,Win32,59.88023952,,,,,,,,2,Ontime,short,j,1,2.024,0,3,3,2,1,,,,,
0.3,,,,,,,,,d,orange,5b3fdff9d67d210001d58ac5,2021-10-22_13h49.39.942,forced_choiceRT_color,2021.2.3,Win32,59.88023952,,,,,,,,2,Ontime,short,d,1,2.092,1,0,4,0,1,,,,,
1.9,,,,,,,,,j,red,5b3fdff9d67d210001d58ac5,2021-10-22_13h49.39.942,forced_choiceRT_color,2021.2.3,Win32,59.88023952,,,,,,,,2,Slow,short,f,0,2.316,1,1,5,2,1,,,,,
0.56,,,,,,,,,d,orange,5b3fdff9d67d210001d58ac5,2021-10-22_13h49.39.942,forced_choiceRT_color,2021.2.3,Win32,59.88023952,,,,,,,,2,Ontime,short,d,1,2.072,1,2,6,0,1,,,,,
1.58,,,,,,,,,f,blue,5b3fdff9d67d210001d58ac5,2021-10-22_13h49.39.942,forced_choiceRT_color,2021.2.3,Win32,59.88023952,,,,,,,,2,Slow,short,f,1,2.19,1,3,7,1,1,,,,,
0.4,,,,,,,,,j,red,5b3fdff9d67d210001d58ac5,2021-10-22_13h49.39.942,forced_choiceRT_color,2021.2.3,Win32,59.88023952,,,,,,,,2,Slow,short,j,1,2.122,2,0,8,2,1,,,,,
0.15,,,,,,,,,d,orange,5b3fdff9d67d210001d58ac5,2021-10-22_13h49.39.942,forced_choiceRT_color,2021.2.3,Win32,59.88023952,,,,,,,,2,Slow,short,d,1,2.122,2,1,9,0,1,,,,,
0.47,,,,,,,,,f,blue,5b3fdff9d67d210001d58ac5,2021-10-22_13h49.39.942,forced_choiceRT_color,2021.2.3,Win32,59.88023952,,,,,,,,2,Ontime,short,f,1,2.05,2,2,10,1,1,,,,,
0.39,,,,,,,,,k,purple,5b3fdff9d67d210001d58ac5,2021-10-22_13h49.39.942,forced_choiceRT_color,2021.2.3,Win32,59.88023952,,,,,,,,2,Ontime,short,k,1,2.006,2,3,11,3,1,,,,,
0.7,,,,,,,,,k,purple,5b3fdff9d67d210001d58ac5,2021-10-22_13h49.39.942,forced_choiceRT_color,2021.2.3,Win32,59.88023952,,,,,,,,2,Ontime,short,k,1,1.922,3,0,12,3,1,,,,,
1.65,,,,,,,,,d,orange,5b3fdff9d67d210001d58ac5,2021-10-22_13h49.39.942,forced_choiceRT_color,2021.2.3,Win32,59.88023952,,,,,,,,2,Ontime,short,f,0,1.967,3,1,13,0,1,,,,,
0.65,,,,,,,,,k,purple,5b3fdff9d67d210001d58ac5,2021-10-22_13h49.39.942,forced_choiceRT_color,2021.2.3,Win32,59.88023952,,,,,,,,2,Fast,short,k,1,1.797,3,2,14,3,1,,,,,
0.06,,,,,,,,,d,orange,5b3fdff9d67d210001d58ac5,2021-10-22_13h49.39.942,forced_choiceRT_color,2021.2.3,Win32,59.88023952,,,,,,,,2,Ontime,short,d,1,2.044,3,3,15,0,1,,,,,
0.83,,,,,,,,,f,blue,5b3fdff9d67d210001d58ac5,2021-10-22_13h49.39.942,forced_choiceRT_color,2021.2.3,Win32,59.88023952,,,,,,,,2,Ontime,short,f,1,1.998,4,0,16,1,1,,,,,
1.83,,,,,,,,,j,red,5b3fdff9d67d210001d58ac5,2021-10-22_13h49.39.942,forced_choiceRT_color,2021.2.3,Win32,59.88023952,,,,,,,,2,Ontime,short,k,0,2.027,4,1,17,2,1,,,,,
0.03,,,,,,,,,k,purple,5b3fdff9d67d210001d58ac5,2021-10-22_13h49.39.942,forced_choiceRT_color,2021.2.3,Win32,59.88023952,,,,,,,,2,Ontime,short,k,1,2.037,4,2,18,3,1,,,,,
1.43,,,,,,,,,f,blue,5b3fdff9d67d210001d58ac5,2021-10-22_13h49.39.942,forced_choiceRT_color,2021.2.3,Win32,59.88023952,,,,,,,,2,Ontime,short,f,1,2.016,4,3,19,1,1,,,,,
1.28,,,,,,,,,f,blue,5b3fdff9d67d210001d58ac5,2021-10-22_13h49.39.942,forced_choiceRT_color,2021.2.3,Win32,59.88023952,,,,,,,,2,Ontime,short,f,1,1.955,5,0,20,1,1,,,,,
0.01,,,,,,,,,j,red,5b3fdff9d67d210001d58ac5,2021-10-22_13h49.39.942,forced_choiceRT_color,2021.2.3,Win32,59.88023952,,,,,,,,2,Ontime,short,j,1,1.992,5,1,21,2,1,,,,,
1.87,,,,,,,,,k,purple,5b3fdff9d67d210001d58ac5,2021-10-22_13h49.39.942,forced_choiceRT_color,2021.2.3,Win32,59.88023952,,,,,,,,2,Slow,short,k,1,2.255,5,2,22,3,1,,,,,
0.27,,,,,,,,,k,purple,5b3fdff9d67d210001d58ac5,2021-10-22_13h49.39.942,forced_choiceRT_color,2021.2.3,Win32,59.88023952,,,,,,,,2,Ontime,short,k,1,1.971,5,3,23,3,1,,,,,
0,,,,,,,,,d,orange,5b3fdff9d67d210001d58ac5,2021-10-22_13h49.39.942,forced_choiceRT_color,2021.2.3,Win32,59.88023952,,,,,,,,2,Ontime,short,d,1,2.039,6,0,24,0,1,,,,,
0.63,,,,,,,,,j,red,5b3fdff9d67d210001d58ac5,2021-10-22_13h49.39.942,forced_choiceRT_color,2021.2.3,Win32,59.88023952,,,,,,,,2,Fast,short,j,1,1.896,6,1,25,2,1,,,,,
1.53,,,,,,,,,f,blue,5b3fdff9d67d210001d58ac5,2021-10-22_13h49.39.942,forced_choiceRT_color,2021.2.3,Win32,59.88023952,,,,,,,,2,Ontime,short,f,1,2.013,6,2,26,1,1,,,,,
1.66,,,,,,,,,k,purple,5b3fdff9d67d210001d58ac5,2021-10-22_13h49.39.942,forced_choiceRT_color,2021.2.3,Win32,59.88023952,,,,,,,,2,Ontime,short,j,0,2.017,6,3,27,3,1,,,,,
1.65,,,,,,,,,k,purple,5b3fdff9d67d210001d58ac5,2021-10-22_13h49.39.942,forced_choiceRT_color,2021.2.3,Win32,59.88023952,,,,,,,,2,Ontime,short,j,0,2.022,7,0,28,3,1,,,,,
0.81,,,,,,,,,j,red,5b3fdff9d67d210001d58ac5,2021-10-22_13h49.39.942,forced_choiceRT_color,2021.2.3,Win32,59.88023952,,,,,,,,2,Fast,short,j,1,1.845,7,1,29,2,1,,,,,
1.29,,,,,,,,,j,red,5b3fdff9d67d210001d58ac5,2021-10-22_13h49.39.942,forced_choiceRT_color,2021.2.3,Win32,59.88023952,,,,,,,,2,Fast,short,j,1,1.748,7,2,30,2,1,,,,,
0.76,,,,,,,,,d,orange,5b3fdff9d67d210001d58ac5,2021-10-22_13h49.39.942,forced_choiceRT_color,2021.2.3,Win32,59.88023952,,,,,,,,2,Ontime,short,d,1,1.967,7,3,31,0,1,,,,,
1.91,,,,,,,,,j,red,5b3fdff9d67d210001d58ac5,2021-10-22_13h49.39.942,forced_choiceRT_color,2021.2.3,Win32,59.88023952,,,,,,,,2,Slow,short,j,1,2.189,8,0,32,2,1,,,,,
0.16,,,,,,,,,k,purple,5b3fdff9d67d210001d58ac5,2021-10-22_13h49.39.942,forced_choiceRT_color,2021.2.3,Win32,59.88023952,,,,,,,,2,Ontime,short,k,1,1.904,8,1,33,3,1,,,,,
1.55,,,,,,,,,k,purple,5b3fdff9d67d210001d58ac5,2021-10-22_13h49.39.942,forced_choiceRT_color,2021.2.3,Win32,59.88023952,,,,,,,,2,Slow,short,k,1,2.145,8,2,34,3,1,,,,,
1.87,,,,,,,,,d,orange,5b3fdff9d67d210001d58ac5,2021-10-22_13h49.39.942,forced_choiceRT_color,2021.2.3,Win32,59.88023952,,,,,,,,2,Ontime,short,j,0,2.091,8,3,35,0,1,,,,,
1.07,,,,,,,,,f,blue,5b3fdff9d67d210001d58ac5,2021-10-22_13h49.39.942,forced_choiceRT_color,2021.2.3,Win32,59.88023952,,,,,,,,2,Ontime,short,f,1,1.916,9,0,36,1,1,,,,,
1.16,,,,,,,,,f,blue,5b3fdff9d67d210001d58ac5,2021-10-22_13h49.39.942,forced_choiceRT_color,2021.2.3,Win32,59.88023952,,,,,,,,2,Fast,short,f,1,1.876,9,1,37,1,1,,,,,
0.81,,,,,,,,,d,orange,5b3fdff9d67d210001d58ac5,2021-10-22_13h49.39.942,forced_choiceRT_color,2021.2.3,Win32,59.88023952,,,,,,,,2,Ontime,short,d,1,1.954,9,2,38,0,1,,,,,
0.55,,,,,,,,,f,blue,5b3fdff9d67d210001d58ac5,2021-10-22_13h49.39.942,forced_choiceRT_color,2021.2.3,Win32,59.88023952,,,,,,,,2,Ontime,short,f,1,1.957,9,3,39,1,1,,,,,
,,,,,,,,,,,5b3fdff9d67d210001d58ac5,2021-10-22_13h49.39.942,forced_choiceRT_color,2021.2.3,Win32,59.88023952,,,,,,,,,,,,,,,,,,,1,0,1,0,1
1.13,,,,,,,,,f,blue,5b3fdff9d67d210001d58ac5,2021-10-22_13h49.39.942,forced_choiceRT_color,2021.2.3,Win32,59.88023952,,,,,,,,3,Fast,short,f,1,1.874,0,0,0,1,1,,,,,
0.47,,,,,,,,,j,red,5b3fdff9d67d210001d58ac5,2021-10-22_13h49.39.942,forced_choiceRT_color,2021.2.3,Win32,59.88023952,,,,,,,,3,Fast,short,j,1,1.692,0,1,1,2,1,,,,,
1.86,,,,,,,,,j,red,5b3fdff9d67d210001d58ac5,2021-10-22_13h49.39.942,forced_choiceRT_color,2021.2.3,Win32,59.88023952,,,,,,,,3,Slow,short,j,1,2.177,0,2,2,2,1,,,,,
1.08,,,,,,,,,k,purple,5b3fdff9d67d210001d58ac5,2021-10-22_13h49.39.942,forced_choiceRT_color,2021.2.3,Win32,59.88023952,,,,,,,,3,Fast,short,k,1,1.832,0,3,3,3,1,,,,,
0.47,,,,,,,,,k,purple,5b3fdff9d67d210001d58ac5,2021-10-22_13h49.39.942,forced_choiceRT_color,2021.2.3,Win32,59.88023952,,,,,,,,3,Ontime,short,k,1,1.921,1,0,4,3,1,,,,,
1.01,,,,,,,,,f,blue,5b3fdff9d67d210001d58ac5,2021-10-22_13h49.39.942,forced_choiceRT_color,2021.2.3,Win32,59.88023952,,,,,,,,3,Fast,short,f,1,1.862,1,1,5,1,1,,,,,
0.96,,,,,,,,,d,orange,5b3fdff9d67d210001d58ac5,2021-10-22_13h49.39.942,forced_choiceRT_color,2021.2.3,Win32,59.88023952,,,,,,,,3,Fast,short,d,1,1.756,1,2,6,0,1,,,,,
1.2,,,,,,,,,k,purple,5b3fdff9d67d210001d58ac5,2021-10-22_13h49.39.942,forced_choiceRT_color,2021.2.3,Win32,59.88023952,,,,,,,,3,Ontime,short,k,1,1.964,1,3,7,3,1,,,,,
1.8,,,,,,,,,f,blue,5b3fdff9d67d210001d58ac5,2021-10-22_13h49.39.942,forced_choiceRT_color,2021.2.3,Win32,59.88023952,,,,,,,,3,Ontime,short,j,0,1.977,2,0,8,1,1,,,,,
0,,,,,,,,,j,red,5b3fdff9d67d210001d58ac5,2021-10-22_13h49.39.942,forced_choiceRT_color,2021.2.3,Win32,59.88023952,,,,,,,,3,Fast,short,j,1,1.845,2,1,9,2,1,,,,,
0.11,,,,,,,,,k,purple,5b3fdff9d67d210001d58ac5,2021-10-22_13h49.39.942,forced_choiceRT_color,2021.2.3,Win32,59.88023952,,,,,,,,3,Ontime,short,k,1,1.947,2,2,10,3,1,,,,,
0.44,,,,,,,,,f,blue,5b3fdff9d67d210001d58ac5,2021-10-22_13h49.39.942,forced_choiceRT_color,2021.2.3,Win32,59.88023952,,,,,,,,3,Ontime,short,f,1,1.962,2,3,11,1,1,,,,,
1.91,,,,,,,,,k,purple,5b3fdff9d67d210001d58ac5,2021-10-22_13h49.39.942,forced_choiceRT_color,2021.2.3,Win32,59.88023952,,,,,,,,3,Ontime,short,j,0,1.988,3,0,12,3,1,,,,,
0.71,,,,,,,,,d,orange,5b3fdff9d67d210001d58ac5,2021-10-22_13h49.39.942,forced_choiceRT_color,2021.2.3,Win32,59.88023952,,,,,,,,3,Ontime,short,d,1,1.933,3,1,13,0,1,,,,,
0.91,,,,,,,,,k,purple,5b3fdff9d67d210001d58ac5,2021-10-22_13h49.39.942,forced_choiceRT_color,2021.2.3,Win32,59.88023952,,,,,,,,3,Fast,short,k,1,1.839,3,2,14,3,1,,,,,
1.28,,,,,,,,,f,blue,5b3fdff9d67d210001d58ac5,2021-10-22_13h49.39.942,forced_choiceRT_color,2021.2.3,Win32,59.88023952,,,,,,,,3,Ontime,short,k,0,1.937,3,3,15,1,1,,,,,
1.26,,,,,,,,,f,blue,5b3fdff9d67d210001d58ac5,2021-10-22_13h49.39.942,forced_choiceRT_color,2021.2.3,Win32,59.88023952,,,,,,,,3,Fast,short,f,1,1.753,4,0,16,1,1,,,,,
0.15,,,,,,,,,d,orange,5b3fdff9d67d210001d58ac5,2021-10-22_13h49.39.942,forced_choiceRT_color,2021.2.3,Win32,59.88023952,,,,,,,,3,Ontime,short,d,1,1.972,4,1,17,0,1,,,,,
0.95,,,,,,,,,d,orange,5b3fdff9d67d210001d58ac5,2021-10-22_13h49.39.942,forced_choiceRT_color,2021.2.3,Win32,59.88023952,,,,,,,,3,Ontime,short,d,1,1.95,4,2,18,0,1,,,,,
0.68,,,,,,,,,k,purple,5b3fdff9d67d210001d58ac5,2021-10-22_13h49.39.942,forced_choiceRT_color,2021.2.3,Win32,59.88023952,,,,,,,,3,Ontime,short,k,1,1.905,4,3,19,3,1,,,,,
1.51,,,,,,,,,d,orange,5b3fdff9d67d210001d58ac5,2021-10-22_13h49.39.942,forced_choiceRT_color,2021.2.3,Win32,59.88023952,,,,,,,,3,Fast,short,f,0,1.837,5,0,20,0,1,,,,,
0.31,,,,,,,,,k,purple,5b3fdff9d67d210001d58ac5,2021-10-22_13h49.39.942,forced_choiceRT_color,2021.2.3,Win32,59.88023952,,,,,,,,3,Fast,short,k,1,1.873,5,1,21,3,1,,,,,
1.01,,,,,,,,,f,blue,5b3fdff9d67d210001d58ac5,2021-10-22_13h49.39.942,forced_choiceRT_color,2021.2.3,Win32,59.88023952,,,,,,,,3,Fast,short,f,1,1.893,5,2,22,1,1,,,,,
0.76,,,,,,,,,j,red,5b3fdff9d67d210001d58ac5,2021-10-22_13h49.39.942,forced_choiceRT_color,2021.2.3,Win32,59.88023952,,,,,,,,3,Fast,short,j,1,1.788,5,3,23,2,1,,,,,
1.57,,,,,,,,,f,blue,5b3fdff9d67d210001d58ac5,2021-10-22_13h49.39.942,forced_choiceRT_color,2021.2.3,Win32,59.88023952,,,,,,,,3,Ontime,short,j,0,2.022,6,0,24,1,1,,,,,
0.58,,,,,,,,,j,red,5b3fdff9d67d210001d58ac5,2021-10-22_13h49.39.942,forced_choiceRT_color,2021.2.3,Win32,59.88023952,,,,,,,,3,Ontime,short,j,1,1.924,6,1,25,2,1,,,,,
0.95,,,,,,,,,f,blue,5b3fdff9d67d210001d58ac5,2021-10-22_13h49.39.942,forced_choiceRT_color,2021.2.3,Win32,59.88023952,,,,,,,,3,Ontime,short,f,1,1.947,6,2,26,1,1,,,,,
0.76,,,,,,,,,j,red,5b3fdff9d67d210001d58ac5,2021-10-22_13h49.39.942,forced_choiceRT_color,2021.2.3,Win32,59.88023952,,,,,,,,3,Fast,short,j,1,1.842,6,3,27,2,1,,,,,
1.33,,,,,,,,,d,orange,5b3fdff9d67d210001d58ac5,2021-10-22_13h49.39.942,forced_choiceRT_color,2021.2.3,Win32,59.88023952,,,,,,,,3,Fast,short,j,0,1.8,7,0,28,0,1,,,,,
1.1,,,,,,,,,j,red,5b3fdff9d67d210001d58ac5,2021-10-22_13h49.39.942,forced_choiceRT_color,2021.2.3,Win32,59.88023952,,,,,,,,3,Fast,short,j,1,1.864,7,1,29,2,1,,,,,
0.46,,,,,,,,,d,orange,5b3fdff9d67d210001d58ac5,2021-10-22_13h49.39.942,forced_choiceRT_color,2021.2.3,Win32,59.88023952,,,,,,,,3,Ontime,short,d,1,2.005,7,2,30,0,1,,,,,
0.79,,,,,,,,,d,orange,5b3fdff9d67d210001d58ac5,2021-10-22_13h49.39.942,forced_choiceRT_color,2021.2.3,Win32,59.88023952,,,,,,,,3,Ontime,short,d,1,1.922,7,3,31,0,1,,,,,
0.24,,,,,,,,,d,orange,5b3fdff9d67d210001d58ac5,2021-10-22_13h49.39.942,forced_choiceRT_color,2021.2.3,Win32,59.88023952,,,,,,,,3,Ontime,short,d,1,1.956,8,0,32,0,1,,,,,
1.94,,,,,,,,,d,orange,5b3fdff9d67d210001d58ac5,2021-10-22_13h49.39.942,forced_choiceRT_color,2021.2.3,Win32,59.88023952,,,,,,,,3,Slow,short,f,0,2.188,8,1,33,0,1,,,,,
0,,,,,,,,,j,red,5b3fdff9d67d210001d58ac5,2021-10-22_13h49.39.942,forced_choiceRT_color,2021.2.3,Win32,59.88023952,,,,,,,,3,Ontime,short,j,1,1.98,8,2,34,2,1,,,,,
1.32,,,,,,,,,j,red,5b3fdff9d67d210001d58ac5,2021-10-22_13h49.39.942,forced_choiceRT_color,2021.2.3,Win32,59.88023952,,,,,,,,3,Ontime,short,j,1,1.988,8,3,35,2,1,,,,,
1.91,,,,,,,,,k,purple,5b3fdff9d67d210001d58ac5,2021-10-22_13h49.39.942,forced_choiceRT_color,2021.2.3,Win32,59.88023952,,,,,,,,3,Fast,short,j,0,1.757,9,0,36,3,1,,,,,
1.95,,,,,,,,,j,red,5b3fdff9d67d210001d58ac5,2021-10-22_13h49.39.942,forced_choiceRT_color,2021.2.3,Win32,59.88023952,,,,,,,,3,Ontime,short,k,0,1.941,9,1,37,2,1,,,,,
1.94,,,,,,,,,k,purple,5b3fdff9d67d210001d58ac5,2021-10-22_13h49.39.942,forced_choiceRT_color,2021.2.3,Win32,59.88023952,,,,,,,,3,Fast,short,k,1,1.828,9,2,38,3,1,,,,,
0.77,,,,,,,,,f,blue,5b3fdff9d67d210001d58ac5,2021-10-22_13h49.39.942,forced_choiceRT_color,2021.2.3,Win32,59.88023952,,,,,,,,3,Fast,short,f,1,1.514,9,3,39,1,1,,,,,
,,,,,,,,,,,5b3fdff9d67d210001d58ac5,2021-10-22_13h49.39.942,forced_choiceRT_color,2021.2.3,Win32,59.88023952,,,,,,,,,,,,,,,,,,,2,0,2,0,1
0.81,,,,,,,,,f,blue,5b3fdff9d67d210001d58ac5,2021-10-22_13h49.39.942,forced_choiceRT_color,2021.2.3,Win32,59.88023952,,,,,,,,4,Slow,short,f,1,2.19,0,0,0,1,1,,,,,
0.71,,,,,,,,,j,red,5b3fdff9d67d210001d58ac5,2021-10-22_13h49.39.942,forced_choiceRT_color,2021.2.3,Win32,59.88023952,,,,,,,,4,Fast,short,j,1,1.837,0,1,1,2,1,,,,,
0.56,,,,,,,,,j,red,5b3fdff9d67d210001d58ac5,2021-10-22_13h49.39.942,forced_choiceRT_color,2021.2.3,Win32,59.88023952,,,,,,,,4,Ontime,short,j,1,2.032,0,2,2,2,1,,,,,
1.27,,,,,,,,,f,blue,5b3fdff9d67d210001d58ac5,2021-10-22_13h49.39.942,forced_choiceRT_color,2021.2.3,Win32,59.88023952,,,,,,,,4,Ontime,short,f,1,2.088,0,3,3,1,1,,,,,
1.15,,,,,,,,,f,blue,5b3fdff9d67d210001d58ac5,2021-10-22_13h49.39.942,forced_choiceRT_color,2021.2.3,Win32,59.88023952,,,,,,,,4,Ontime,short,f,1,2.077,1,0,4,1,1,,,,,
0.93,,,,,,,,,d,orange,5b3fdff9d67d210001d58ac5,2021-10-22_13h49.39.942,forced_choiceRT_color,2021.2.3,Win32,59.88023952,,,,,,,,4,Ontime,short,d,1,2.038,1,1,5,0,1,,,,,
0.09,,,,,,,,,k,purple,5b3fdff9d67d210001d58ac5,2021-10-22_13h49.39.942,forced_choiceRT_color,2021.2.3,Win32,59.88023952,,,,,,,,4,Ontime,short,k,1,2.04,1,2,6,3,1,,,,,
1.95,,,,,,,,,j,red,5b3fdff9d67d210001d58ac5,2021-10-22_13h49.39.942,forced_choiceRT_color,2021.2.3,Win32,59.88023952,,,,,,,,4,Slow,short,j,1,2.274,1,3,7,2,1,,,,,
1.91,,,,,,,,,d,orange,5b3fdff9d67d210001d58ac5,2021-10-22_13h49.39.942,forced_choiceRT_color,2021.2.3,Win32,59.88023952,,,,,,,,4,Ontime,short,j,0,2.037,2,0,8,0,1,,,,,
0.34,,,,,,,,,d,orange,5b3fdff9d67d210001d58ac5,2021-10-22_13h49.39.942,forced_choiceRT_color,2021.2.3,Win32,59.88023952,,,,,,,,4,Ontime,short,d,1,1.991,2,1,9,0,1,,,,,
0.53,,,,,,,,,k,purple,5b3fdff9d67d210001d58ac5,2021-10-22_13h49.39.942,forced_choiceRT_color,2021.2.3,Win32,59.88023952,,,,,,,,4,Ontime,short,k,1,2.029,2,2,10,3,1,,,,,
0.27,,,,,,,,,d,orange,5b3fdff9d67d210001d58ac5,2021-10-22_13h49.39.942,forced_choiceRT_color,2021.2.3,Win32,59.88023952,,,,,,,,4,Ontime,short,d,1,2.008,2,3,11,0,1,,,,,
1,,,,,,,,,j,red,5b3fdff9d67d210001d58ac5,2021-10-22_13h49.39.942,forced_choiceRT_color,2021.2.3,Win32,59.88023952,,,,,,,,4,Ontime,short,j,1,1.978,3,0,12,2,1,,,,,
0.28,,,,,,,,,f,blue,5b3fdff9d67d210001d58ac5,2021-10-22_13h49.39.942,forced_choiceRT_color,2021.2.3,Win32,59.88023952,,,,,,,,4,Ontime,short,f,1,2.056,3,1,13,1,1,,,,,
1.9,,,,,,,,,d,orange,5b3fdff9d67d210001d58ac5,2021-10-22_13h49.39.942,forced_choiceRT_color,2021.2.3,Win32,59.88023952,,,,,,,,4,Ontime,short,k,0,2.032,3,2,14,0,1,,,,,
0.46,,,,,,,,,j,red,5b3fdff9d67d210001d58ac5,2021-10-22_13h49.39.942,forced_choiceRT_color,2021.2.3,Win32,59.88023952,,,,,,,,4,Ontime,short,j,1,1.972,3,3,15,2,1,,,,,
1.02,,,,,,,,,f,blue,5b3fdff9d67d210001d58ac5,2021-10-22_13h49.39.942,forced_choiceRT_color,2021.2.3,Win32,59.88023952,,,,,,,,4,Ontime,short,f,1,1.988,4,0,16,1,1,,,,,
0.53,,,,,,,,,j,red,5b3fdff9d67d210001d58ac5,2021-10-22_13h49.39.942,forced_choiceRT_color,2021.2.3,Win32,59.88023952,,,,,,,,4,Ontime,short,j,1,2.077,4,1,17,2,1,,,,,
0.75,,,,,,,,,j,red,5b3fdff9d67d210001d58ac5,2021-10-22_13h49.39.942,forced_choiceRT_color,2021.2.3,Win32,59.88023952,,,,,,,,4,Ontime,short,j,1,2.03,4,2,18,2,1,,,,,
1.22,,,,,,,,,k,purple,5b3fdff9d67d210001d58ac5,2021-10-22_13h49.39.942,forced_choiceRT_color,2021.2.3,Win32,59.88023952,,,,,,,,4,Fast,short,k,1,1.897,4,3,19,3,1,,,,,
1.94,,,,,,,,,f,blue,5b3fdff9d67d210001d58ac5,2021-10-22_13h49.39.942,forced_choiceRT_color,2021.2.3,Win32,59.88023952,,,,,,,,4,Ontime,short,k,0,2.021,5,0,20,1,1,,,,,
0.41,,,,,,,,,j,red,5b3fdff9d67d210001d58ac5,2021-10-22_13h49.39.942,forced_choiceRT_color,2021.2.3,Win32,59.88023952,,,,,,,,4,Ontime,short,j,1,1.937,5,1,21,2,1,,,,,
0.37,,,,,,,,,d,orange,5b3fdff9d67d210001d58ac5,2021-10-22_13h49.39.942,forced_choiceRT_color,2021.2.3,Win32,59.88023952,,,,,,,,4,Ontime,short,d,1,1.958,5,2,22,0,1,,,,,
1.7,,,,,,,,,d,orange,5b3fdff9d67d210001d58ac5,2021-10-22_13h49.39.942,forced_choiceRT_color,2021.2.3,Win32,59.88023952,,,,,,,,4,Ontime,short,f,0,1.908,5,3,23,0,1,,,,,
1.83,,,,,,,,,d,orange,5b3fdff9d67d210001d58ac5,2021-10-22_13h49.39.942,forced_choiceRT_color,2021.2.3,Win32,59.88023952,,,,,,,,4,Ontime,short,f,0,1.971,6,0,24,0,1,,,,,
1.85,,,,,,,,,d,orange,5b3fdff9d67d210001d58ac5,2021-10-22_13h49.39.942,forced_choiceRT_color,2021.2.3,Win32,59.88023952,,,,,,,,4,Ontime,short,j,0,1.937,6,1,25,0,1,,,,,
1.08,,,,,,,,,j,red,5b3fdff9d67d210001d58ac5,2021-10-22_13h49.39.942,forced_choiceRT_color,2021.2.3,Win32,59.88023952,,,,,,,,4,Ontime,short,j,1,1.921,6,2,26,2,1,,,,,
0.97,,,,,,,,,f,blue,5b3fdff9d67d210001d58ac5,2021-10-22_13h49.39.942,forced_choiceRT_color,2021.2.3,Win32,59.88023952,,,,,,,,4,Fast,short,f,1,1.755,6,3,27,1,1,,,,,
1.49,,,,,,,,,j,red,5b3fdff9d67d210001d58ac5,2021-10-22_13h49.39.942,forced_choiceRT_color,2021.2.3,Win32,59.88023952,,,,,,,,4,Ontime,short,f,0,1.939,7,0,28,2,1,,,,,
0.3,,,,,,,,,f,blue,5b3fdff9d67d210001d58ac5,2021-10-22_13h49.39.942,forced_choiceRT_color,2021.2.3,Win32,59.88023952,,,,,,,,4,Ontime,short,f,1,1.996,7,1,29,1,1,,,,,
1.13,,,,,,,,,k,purple,5b3fdff9d67d210001d58ac5,2021-10-22_13h49.39.942,forced_choiceRT_color,2021.2.3,Win32,59.88023952,,,,,,,,4,Ontime,short,k,1,1.993,7,2,30,3,1,,,,,
0.58,,,,,,,,,k,purple,5b3fdff9d67d210001d58ac5,2021-10-22_13h49.39.942,forced_choiceRT_color,2021.2.3,Win32,59.88023952,,,,,,,,4,Fast,short,k,1,1.766,7,3,31,3,1,,,,,
0.74,,,,,,,,,f,blue,5b3fdff9d67d210001d58ac5,2021-10-22_13h49.39.942,forced_choiceRT_color,2021.2.3,Win32,59.88023952,,,,,,,,4,Fast,short,f,1,1.871,8,0,32,1,1,,,,,
1.13,,,,,,,,,k,purple,5b3fdff9d67d210001d58ac5,2021-10-22_13h49.39.942,forced_choiceRT_color,2021.2.3,Win32,59.88023952,,,,,,,,4,Fast,short,j,0,1.822,8,1,33,3,1,,,,,
0.19,,,,,,,,,k,purple,5b3fdff9d67d210001d58ac5,2021-10-22_13h49.39.942,forced_choiceRT_color,2021.2.3,Win32,59.88023952,,,,,,,,4,Fast,short,k,1,1.77,8,2,34,3,1,,,,,
1.44,,,,,,,,,k,purple,5b3fdff9d67d210001d58ac5,2021-10-22_13h49.39.942,forced_choiceRT_color,2021.2.3,Win32,59.88023952,,,,,,,,4,Ontime,short,k,1,1.955,8,3,35,3,1,,,,,
0.95,,,,,,,,,f,blue,5b3fdff9d67d210001d58ac5,2021-10-22_13h49.39.942,forced_choiceRT_color,2021.2.3,Win32,59.88023952,,,,,,,,4,Ontime,short,f,1,1.987,9,0,36,1,1,,,,,
0.84,,,,,,,,,d,orange,5b3fdff9d67d210001d58ac5,2021-10-22_13h49.39.942,forced_choiceRT_color,2021.2.3,Win32,59.88023952,,,,,,,,4,Fast,short,d,1,1.87,9,1,37,0,1,,,,,
1.11,,,,,,,,,k,purple,5b3fdff9d67d210001d58ac5,2021-10-22_13h49.39.942,forced_choiceRT_color,2021.2.3,Win32,59.88023952,,,,,,,,4,Ontime,short,k,1,2.081,9,2,38,3,1,,,,,
0.93,,,,,,,,,k,purple,5b3fdff9d67d210001d58ac5,2021-10-22_13h49.39.942,forced_choiceRT_color,2021.2.3,Win32,59.88023952,,,,,,,,4,Ontime,short,k,1,2.082,9,3,39,3,1,,,,,
,,,,,,,,,,,5b3fdff9d67d210001d58ac5,2021-10-22_13h49.39.942,forced_choiceRT_color,2021.2.3,Win32,59.88023952,,,,,,,,,,,,,,,,,,,3,0,3,0,1
1.77,,,,,,,,,d,orange,5b3fdff9d67d210001d58ac5,2021-10-22_13h49.39.942,forced_choiceRT_color,2021.2.3,Win32,59.88023952,,,,,,,,5,Slow,short,j,0,2.172,0,0,0,0,1,,,,,
1.9,,,,,,,,,d,orange,5b3fdff9d67d210001d58ac5,2021-10-22_13h49.39.942,forced_choiceRT_color,2021.2.3,Win32,59.88023952,,,,,,,,5,Ontime,short,d,1,2.041,0,1,1,0,1,,,,,
0.23,,,,,,,,,k,purple,5b3fdff9d67d210001d58ac5,2021-10-22_13h49.39.942,forced_choiceRT_color,2021.2.3,Win32,59.88023952,,,,,,,,5,Ontime,short,k,1,2.071,0,2,2,3,1,,,,,
1.69,,,,,,,,,f,blue,5b3fdff9d67d210001d58ac5,2021-10-22_13h49.39.942,forced_choiceRT_color,2021.2.3,Win32,59.88023952,,,,,,,,5,Ontime,short,k,0,1.987,0,3,3,1,1,,,,,
1.69,,,,,,,,,k,purple,5b3fdff9d67d210001d58ac5,2021-10-22_13h49.39.942,forced_choiceRT_color,2021.2.3,Win32,59.88023952,,,,,,,,5,Ontime,short,k,1,2.033,1,0,4,3,1,,,,,
0.74,,,,,,,,,f,blue,5b3fdff9d67d210001d58ac5,2021-10-22_13h49.39.942,forced_choiceRT_color,2021.2.3,Win32,59.88023952,,,,,,,,5,Ontime,short,f,1,2.074,1,1,5,1,1,,,,,
1.51,,,,,,,,,k,purple,5b3fdff9d67d210001d58ac5,2021-10-22_13h49.39.942,forced_choiceRT_color,2021.2.3,Win32,59.88023952,,,,,,,,5,Ontime,short,d,0,2.043,1,2,6,3,1,,,,,
1.31,,,,,,,,,d,orange,5b3fdff9d67d210001d58ac5,2021-10-22_13h49.39.942,forced_choiceRT_color,2021.2.3,Win32,59.88023952,,,,,,,,5,Fast,short,k,0,0.037,1,3,7,0,1,,,,,
0.01,,,,,,,,,f,blue,5b3fdff9d67d210001d58ac5,2021-10-22_13h49.39.942,forced_choiceRT_color,2021.2.3,Win32,59.88023952,,,,,,,,5,Ontime,short,f,1,1.938,2,0,8,1,1,,,,,
1.36,,,,,,,,,f,blue,5b3fdff9d67d210001d58ac5,2021-10-22_13h49.39.942,forced_choiceRT_color,2021.2.3,Win32,59.88023952,,,,,,,,5,Ontime,short,f,1,2.088,2,1,9,1,1,,,,,
1.69,,,,,,,,,f,blue,5b3fdff9d67d210001d58ac5,2021-10-22_13h49.39.942,forced_choiceRT_color,2021.2.3,Win32,59.88023952,,,,,,,,5,Slow,short,f,1,2.289,2,2,10,1,1,,,,,
1.3,,,,,,,,,f,blue,5b3fdff9d67d210001d58ac5,2021-10-22_13h49.39.942,forced_choiceRT_color,2021.2.3,Win32,59.88023952,,,,,,,,5,Ontime,short,f,1,1.993,2,3,11,1,1,,,,,
1.59,,,,,,,,,k,purple,5b3fdff9d67d210001d58ac5,2021-10-22_13h49.39.942,forced_choiceRT_color,2021.2.3,Win32,59.88023952,,,,,,,,5,Ontime,short,k,1,2.013,3,0,12,3,1,,,,,
1.44,,,,,,,,,d,orange,5b3fdff9d67d210001d58ac5,2021-10-22_13h49.39.942,forced_choiceRT_color,2021.2.3,Win32,59.88023952,,,,,,,,5,Slow,short,d,1,2.225,3,1,13,0,1,,,,,
0.16,,,,,,,,,d,orange,5b3fdff9d67d210001d58ac5,2021-10-22_13h49.39.942,forced_choiceRT_color,2021.2.3,Win32,59.88023952,,,,,,,,5,Ontime,short,d,1,1.973,3,2,14,0,1,,,,,
1.87,,,,,,,,,k,purple,5b3fdff9d67d210001d58ac5,2021-10-22_13h49.39.942,forced_choiceRT_color,2021.2.3,Win32,59.88023952,,,,,,,,5,Ontime,short,d,0,2.055,3,3,15,3,1,,,,,
1.11,,,,,,,,,f,blue,5b3fdff9d67d210001d58ac5,2021-10-22_13h49.39.942,forced_choiceRT_color,2021.2.3,Win32,59.88023952,,,,,,,,5,Ontime,short,f,1,1.916,4,0,16,1,1,,,,,
0.5,,,,,,,,,k,purple,5b3fdff9d67d210001d58ac5,2021-10-22_13h49.39.942,forced_choiceRT_color,2021.2.3,Win32,59.88023952,,,,,,,,5,Fast,short,k,1,1.888,4,1,17,3,1,,,,,
1.76,,,,,,,,,d,orange,5b3fdff9d67d210001d58ac5,2021-10-22_13h49.39.942,forced_choiceRT_color,2021.2.3,Win32,59.88023952,,,,,,,,5,Ontime,short,f,0,2.024,4,2,18,0,1,,,,,
0.32,,,,,,,,,j,red,5b3fdff9d67d210001d58ac5,2021-10-22_13h49.39.942,forced_choiceRT_color,2021.2.3,Win32,59.88023952,,,,,,,,5,Ontime,short,j,1,2.059,4,3,19,2,1,,,,,
1.99,,,,,,,,,j,red,5b3fdff9d67d210001d58ac5,2021-10-22_13h49.39.942,forced_choiceRT_color,2021.2.3,Win32,59.88023952,,,,,,,,5,Slow,short,k,0,2.239,5,0,20,2,1,,,,,
1.59,,,,,,,,,j,red,5b3fdff9d67d210001d58ac5,2021-10-22_13h49.39.942,forced_choiceRT_color,2021.2.3,Win32,59.88023952,,,,,,,,5,Fast,short,f,0,1.776,5,1,21,2,1,,,,,
1.8,,,,,,,,,j,red,5b3fdff9d67d210001d58ac5,2021-10-22_13h49.39.942,forced_choiceRT_color,2021.2.3,Win32,59.88023952,,,,,,,,5,Ontime,short,j,1,1.973,5,2,22,2,1,,,,,
1.96,,,,,,,,,f,blue,5b3fdff9d67d210001d58ac5,2021-10-22_13h49.39.942,forced_choiceRT_color,2021.2.3,Win32,59.88023952,,,,,,,,5,Ontime,short,k,0,1.99,5,3,23,1,1,,,,,
1,,,,,,,,,k,purple,5b3fdff9d67d210001d58ac5,2021-10-22_13h49.39.942,forced_choiceRT_color,2021.2.3,Win32,59.88023952,,,,,,,,5,Ontime,short,k,1,1.923,6,0,24,3,1,,,,,
0.42,,,,,,,,,j,red,5b3fdff9d67d210001d58ac5,2021-10-22_13h49.39.942,forced_choiceRT_color,2021.2.3,Win32,59.88023952,,,,,,,,5,Fast,short,f,0,1.746,6,1,25,2,1,,,,,
0.91,,,,,,,,,j,red,5b3fdff9d67d210001d58ac5,2021-10-22_13h49.39.942,forced_choiceRT_color,2021.2.3,Win32,59.88023952,,,,,,,,5,Ontime,short,f,0,1.996,6,2,26,2,1,,,,,
1.47,,,,,,,,,d,orange,5b3fdff9d67d210001d58ac5,2021-10-22_13h49.39.942,forced_choiceRT_color,2021.2.3,Win32,59.88023952,,,,,,,,5,Ontime,short,f,0,2.065,6,3,27,0,1,,,,,
0.06,,,,,,,,,k,purple,5b3fdff9d67d210001d58ac5,2021-10-22_13h49.39.942,forced_choiceRT_color,2021.2.3,Win32,59.88023952,,,,,,,,5,Ontime,short,k,1,1.93,7,0,28,3,1,,,,,
0.02,,,,,,,,,j,red,5b3fdff9d67d210001d58ac5,2021-10-22_13h49.39.942,forced_choiceRT_color,2021.2.3,Win32,59.88023952,,,,,,,,5,Ontime,short,j,1,1.993,7,1,29,2,1,,,,,
0.64,,,,,,,,,d,orange,5b3fdff9d67d210001d58ac5,2021-10-22_13h49.39.942,forced_choiceRT_color,2021.2.3,Win32,59.88023952,,,,,,,,5,Ontime,short,d,1,2.005,7,2,30,0,1,,,,,
1.16,,,,,,,,,k,purple,5b3fdff9d67d210001d58ac5,2021-10-22_13h49.39.942,forced_choiceRT_color,2021.2.3,Win32,59.88023952,,,,,,,,5,Ontime,short,k,1,2.015,7,3,31,3,1,,,,,
1.34,,,,,,,,,j,red,5b3fdff9d67d210001d58ac5,2021-10-22_13h49.39.942,forced_choiceRT_color,2021.2.3,Win32,59.88023952,,,,,,,,5,Slow,short,j,1,2.131,8,0,32,2,1,,,,,
0.98,,,,,,,,,j,red,5b3fdff9d67d210001d58ac5,2021-10-22_13h49.39.942,forced_choiceRT_color,2021.2.3,Win32,59.88023952,,,,,,,,5,Ontime,short,j,1,2.015,8,1,33,2,1,,,,,
0.62,,,,,,,,,f,blue,5b3fdff9d67d210001d58ac5,2021-10-22_13h49.39.942,forced_choiceRT_color,2021.2.3,Win32,59.88023952,,,,,,,,5,Ontime,short,f,1,1.944,8,2,34,1,1,,,,,
0.76,,,,,,,,,k,purple,5b3fdff9d67d210001d58ac5,2021-10-22_13h49.39.942,forced_choiceRT_color,2021.2.3,Win32,59.88023952,,,,,,,,5,Ontime,short,k,1,1.96,8,3,35,3,1,,,,,
1.61,,,,,,,,,j,red,5b3fdff9d67d210001d58ac5,2021-10-22_13h49.39.942,forced_choiceRT_color,2021.2.3,Win32,59.88023952,,,,,,,,5,Ontime,short,f,0,2.03,9,0,36,2,1,,,,,
1.46,,,,,,,,,d,orange,5b3fdff9d67d210001d58ac5,2021-10-22_13h49.39.942,forced_choiceRT_color,2021.2.3,Win32,59.88023952,,,,,,,,5,Fast,short,d,1,1.849,9,1,37,0,1,,,,,
1.62,,,,,,,,,d,orange,5b3fdff9d67d210001d58ac5,2021-10-22_13h49.39.942,forced_choiceRT_color,2021.2.3,Win32,59.88023952,,,,,,,,5,Fast,short,j,0,1.855,9,2,38,0,1,,,,,
1.57,,,,,,,,,f,blue,5b3fdff9d67d210001d58ac5,2021-10-22_13h49.39.942,forced_choiceRT_color,2021.2.3,Win32,59.88023952,,,,,,,,5,Fast,short,f,1,1.877,9,3,39,1,1,,,,,
,,,,,,,,,,,5b3fdff9d67d210001d58ac5,2021-10-22_13h49.39.942,forced_choiceRT_color,2021.2.3,Win32,59.88023952,,,,,,,,,,,,,,,,,,,4,0,4,0,1
0.58,,,,,,,,,f,blue,5b3fdff9d67d210001d58ac5,2021-10-22_13h49.39.942,forced_choiceRT_color,2021.2.3,Win32,59.88023952,,,,,,,,6,Ontime,short,f,1,2.034,0,0,0,1,1,,,,,
0.88,,,,,,,,,d,orange,5b3fdff9d67d210001d58ac5,2021-10-22_13h49.39.942,forced_choiceRT_color,2021.2.3,Win32,59.88023952,,,,,,,,6,Ontime,short,d,1,2.07,0,1,1,0,1,,,,,
1.47,,,,,,,,,k,purple,5b3fdff9d67d210001d58ac5,2021-10-22_13h49.39.942,forced_choiceRT_color,2021.2.3,Win32,59.88023952,,,,,,,,6,Slow,short,k,1,2.155,0,2,2,3,1,,,,,
1.02,,,,,,,,,d,orange,5b3fdff9d67d210001d58ac5,2021-10-22_13h49.39.942,forced_choiceRT_color,2021.2.3,Win32,59.88023952,,,,,,,,6,Ontime,short,d,1,2.079,0,3,3,0,1,,,,,
1.26,,,,,,,,,k,purple,5b3fdff9d67d210001d58ac5,2021-10-22_13h49.39.942,forced_choiceRT_color,2021.2.3,Win32,59.88023952,,,,,,,,6,Ontime,short,k,1,1.992,1,0,4,3,1,,,,,
1.68,,,,,,,,,f,blue,5b3fdff9d67d210001d58ac5,2021-10-22_13h49.39.942,forced_choiceRT_color,2021.2.3,Win32,59.88023952,,,,,,,,6,Ontime,short,f,1,2.093,1,1,5,1,1,,,,,
1.16,,,,,,,,,f,blue,5b3fdff9d67d210001d58ac5,2021-10-22_13h49.39.942,forced_choiceRT_color,2021.2.3,Win32,59.88023952,,,,,,,,6,Ontime,short,f,1,2.039,1,2,6,1,1,,,,,
1.32,,,,,,,,,j,red,5b3fdff9d67d210001d58ac5,2021-10-22_13h49.39.942,forced_choiceRT_color,2021.2.3,Win32,59.88023952,,,,,,,,6,Ontime,short,j,1,2.056,1,3,7,2,1,,,,,
1.1,,,,,,,,,f,blue,5b3fdff9d67d210001d58ac5,2021-10-22_13h49.39.942,forced_choiceRT_color,2021.2.3,Win32,59.88023952,,,,,,,,6,Ontime,short,f,1,2.065,2,0,8,1,1,,,,,
0.83,,,,,,,,,f,blue,5b3fdff9d67d210001d58ac5,2021-10-22_13h49.39.942,forced_choiceRT_color,2021.2.3,Win32,59.88023952,,,,,,,,6,Ontime,short,f,1,2.021,2,1,9,1,1,,,,,
1.17,,,,,,,,,k,purple,5b3fdff9d67d210001d58ac5,2021-10-22_13h49.39.942,forced_choiceRT_color,2021.2.3,Win32,59.88023952,,,,,,,,6,Ontime,short,k,1,2.03,2,2,10,3,1,,,,,
1.4,,,,,,,,,j,red,5b3fdff9d67d210001d58ac5,2021-10-22_13h49.39.942,forced_choiceRT_color,2021.2.3,Win32,59.88023952,,,,,,,,6,Ontime,short,j,1,1.938,2,3,11,2,1,,,,,
1.53,,,,,,,,,k,purple,5b3fdff9d67d210001d58ac5,2021-10-22_13h49.39.942,forced_choiceRT_color,2021.2.3,Win32,59.88023952,,,,,,,,6,Ontime,short,k,1,2.03,3,0,12,3,1,,,,,
0.02,,,,,,,,,j,red,5b3fdff9d67d210001d58ac5,2021-10-22_13h49.39.942,forced_choiceRT_color,2021.2.3,Win32,59.88023952,,,,,,,,6,Ontime,short,j,1,2.037,3,1,13,2,1,,,,,
1.37,,,,,,,,,d,orange,5b3fdff9d67d210001d58ac5,2021-10-22_13h49.39.942,forced_choiceRT_color,2021.2.3,Win32,59.88023952,,,,,,,,6,Ontime,short,d,1,2.039,3,2,14,0,1,,,,,
1.29,,,,,,,,,k,purple,5b3fdff9d67d210001d58ac5,2021-10-22_13h49.39.942,forced_choiceRT_color,2021.2.3,Win32,59.88023952,,,,,,,,6,Ontime,short,k,1,2.022,3,3,15,3,1,,,,,
0.33,,,,,,,,,f,blue,5b3fdff9d67d210001d58ac5,2021-10-22_13h49.39.942,forced_choiceRT_color,2021.2.3,Win32,59.88023952,,,,,,,,6,Ontime,short,f,1,2.021,4,0,16,1,1,,,,,
1.96,,,,,,,,,f,blue,5b3fdff9d67d210001d58ac5,2021-10-22_13h49.39.942,forced_choiceRT_color,2021.2.3,Win32,59.88023952,,,,,,,,6,Ontime,short,k,0,2.022,4,1,17,1,1,,,,,
0.17,,,,,,,,,j,red,5b3fdff9d67d210001d58ac5,2021-10-22_13h49.39.942,forced_choiceRT_color,2021.2.3,Win32,59.88023952,,,,,,,,6,Ontime,short,j,1,2.039,4,2,18,2,1,,,,,
0.64,,,,,,,,,k,purple,5b3fdff9d67d210001d58ac5,2021-10-22_13h49.39.942,forced_choiceRT_color,2021.2.3,Win32,59.88023952,,,,,,,,6,Ontime,short,k,1,2.082,4,3,19,3,1,,,,,
1.05,,,,,,,,,d,orange,5b3fdff9d67d210001d58ac5,2021-10-22_13h49.39.942,forced_choiceRT_color,2021.2.3,Win32,59.88023952,,,,,,,,6,Ontime,short,d,1,2.082,5,0,20,0,1,,,,,
0.47,,,,,,,,,j,red,5b3fdff9d67d210001d58ac5,2021-10-22_13h49.39.942,forced_choiceRT_color,2021.2.3,Win32,59.88023952,,,,,,,,6,Ontime,short,j,1,2.041,5,1,21,2,1,,,,,
0.06,,,,,,,,,d,orange,5b3fdff9d67d210001d58ac5,2021-10-22_13h49.39.942,forced_choiceRT_color,2021.2.3,Win32,59.88023952,,,,,,,,6,Ontime,short,d,1,2.071,5,2,22,0,1,,,,,
1.03,,,,,,,,,j,red,5b3fdff9d67d210001d58ac5,2021-10-22_13h49.39.942,forced_choiceRT_color,2021.2.3,Win32,59.88023952,,,,,,,,6,Ontime,short,j,1,2.078,5,3,23,2,1,,,,,
1.19,,,,,,,,,k,purple,5b3fdff9d67d210001d58ac5,2021-10-22_13h49.39.942,forced_choiceRT_color,2021.2.3,Win32,59.88023952,,,,,,,,6,Ontime,short,k,1,2.038,6,0,24,3,1,,,,,
1.78,,,,,,,,,f,blue,5b3fdff9d67d210001d58ac5,2021-10-22_13h49.39.942,forced_choiceRT_color,2021.2.3,Win32,59.88023952,,,,,,,,6,Ontime,short,d,0,1.993,6,1,25,1,1,,,,,
0.96,,,,,,,,,d,orange,5b3fdff9d67d210001d58ac5,2021-10-22_13h49.39.942,forced_choiceRT_color,2021.2.3,Win32,59.88023952,,,,,,,,6,Ontime,short,d,1,2.061,6,2,26,0,1,,,,,
0.33,,,,,,,,,d,orange,5b3fdff9d67d210001d58ac5,2021-10-22_13h49.39.942,forced_choiceRT_color,2021.2.3,Win32,59.88023952,,,,,,,,6,Ontime,short,d,1,2.039,6,3,27,0,1,,,,,
1.51,,,,,,,,,k,purple,5b3fdff9d67d210001d58ac5,2021-10-22_13h49.39.942,forced_choiceRT_color,2021.2.3,Win32,59.88023952,,,,,,,,6,Slow,short,k,1,2.172,7,0,28,3,1,,,,,
0.44,,,,,,,,,j,red,5b3fdff9d67d210001d58ac5,2021-10-22_13h49.39.942,forced_choiceRT_color,2021.2.3,Win32,59.88023952,,,,,,,,6,Ontime,short,j,1,2.081,7,1,29,2,1,,,,,
0.98,,,,,,,,,k,purple,5b3fdff9d67d210001d58ac5,2021-10-22_13h49.39.942,forced_choiceRT_color,2021.2.3,Win32,59.88023952,,,,,,,,6,Ontime,short,k,1,2.057,7,2,30,3,1,,,,,
0.53,,,,,,,,,j,red,5b3fdff9d67d210001d58ac5,2021-10-22_13h49.39.942,forced_choiceRT_color,2021.2.3,Win32,59.88023952,,,,,,,,6,Ontime,short,j,1,1.956,7,3,31,2,1,,,,,
0.3,,,,,,,,,d,orange,5b3fdff9d67d210001d58ac5,2021-10-22_13h49.39.942,forced_choiceRT_color,2021.2.3,Win32,59.88023952,,,,,,,,6,Ontime,short,d,1,2.04,8,0,32,0,1,,,,,
0.18,,,,,,,,,j,red,5b3fdff9d67d210001d58ac5,2021-10-22_13h49.39.942,forced_choiceRT_color,2021.2.3,Win32,59.88023952,,,,,,,,6,Ontime,short,j,1,2.059,8,1,33,2,1,,,,,
0.76,,,,,,,,,f,blue,5b3fdff9d67d210001d58ac5,2021-10-22_13h49.39.942,forced_choiceRT_color,2021.2.3,Win32,59.88023952,,,,,,,,6,Ontime,short,f,1,2.04,8,2,34,1,1,,,,,
1.29,,,,,,,,,j,red,5b3fdff9d67d210001d58ac5,2021-10-22_13h49.39.942,forced_choiceRT_color,2021.2.3,Win32,59.88023952,,,,,,,,6,Slow,short,j,1,2.105,8,3,35,2,1,,,,,
1.6,,,,,,,,,d,orange,5b3fdff9d67d210001d58ac5,2021-10-22_13h49.39.942,forced_choiceRT_color,2021.2.3,Win32,59.88023952,,,,,,,,6,Slow,short,d,1,2.155,9,0,36,0,1,,,,,
1.02,,,,,,,,,f,blue,5b3fdff9d67d210001d58ac5,2021-10-22_13h49.39.942,forced_choiceRT_color,2021.2.3,Win32,59.88023952,,,,,,,,6,Ontime,short,f,1,2.042,9,1,37,1,1,,,,,
0.42,,,,,,,,,k,purple,5b3fdff9d67d210001d58ac5,2021-10-22_13h49.39.942,forced_choiceRT_color,2021.2.3,Win32,59.88023952,,,,,,,,6,Ontime,short,k,1,2.054,9,2,38,3,1,,,,,
0.89,,,,,,,,,d,orange,5b3fdff9d67d210001d58ac5,2021-10-22_13h49.39.942,forced_choiceRT_color,2021.2.3,Win32,59.88023952,,,,,,,,6,Ontime,short,d,1,2.089,9,3,39,0,1,,,,,
,,,,,,,,,,,5b3fdff9d67d210001d58ac5,2021-10-22_13h49.39.942,forced_choiceRT_color,2021.2.3,Win32,59.88023952,,,,,,,,,,,,,,,,,,,5,0,5,0,1
0.67,,,,,,,,,d,orange,5b3fdff9d67d210001d58ac5,2021-10-22_13h49.39.942,forced_choiceRT_color,2021.2.3,Win32,59.88023952,,,,,,,,7,Ontime,short,d,1,2.1,0,0,0,0,1,,,,,
0.59,,,,,,,,,d,orange,5b3fdff9d67d210001d58ac5,2021-10-22_13h49.39.942,forced_choiceRT_color,2021.2.3,Win32,59.88023952,,,,,,,,7,Ontime,short,d,1,2.026,0,1,1,0,1,,,,,
1.45,,,,,,,,,d,orange,5b3fdff9d67d210001d58ac5,2021-10-22_13h49.39.942,forced_choiceRT_color,2021.2.3,Win32,59.88023952,,,,,,,,7,Slow,short,d,1,2.121,0,2,2,0,1,,,,,
1.88,,,,,,,,,f,blue,5b3fdff9d67d210001d58ac5,2021-10-22_13h49.39.942,forced_choiceRT_color,2021.2.3,Win32,59.88023952,,,,,,,,7,Ontime,short,f,1,2.056,0,3,3,1,1,,,,,
1.63,,,,,,,,,j,red,5b3fdff9d67d210001d58ac5,2021-10-22_13h49.39.942,forced_choiceRT_color,2021.2.3,Win32,59.88023952,,,,,,,,7,Ontime,short,j,1,2.065,1,0,4,2,1,,,,,
0.18,,,,,,,,,j,red,5b3fdff9d67d210001d58ac5,2021-10-22_13h49.39.942,forced_choiceRT_color,2021.2.3,Win32,59.88023952,,,,,,,,7,Ontime,short,j,1,2.074,1,1,5,2,1,,,,,
0.33,,,,,,,,,j,red,5b3fdff9d67d210001d58ac5,2021-10-22_13h49.39.942,forced_choiceRT_color,2021.2.3,Win32,59.88023952,,,,,,,,7,Ontime,short,j,1,2.043,1,2,6,2,1,,,,,
1.87,,,,,,,,,f,blue,5b3fdff9d67d210001d58ac5,2021-10-22_13h49.39.942,forced_choiceRT_color,2021.2.3,Win32,59.88023952,,,,,,,,7,Slow,short,k,0,2.122,1,3,7,1,1,,,,,
0.79,,,,,,,,,d,orange,5b3fdff9d67d210001d58ac5,2021-10-22_13h49.39.942,forced_choiceRT_color,2021.2.3,Win32,59.88023952,,,,,,,,7,Ontime,short,j,0,1.983,2,0,8,0,1,,,,,
0.09,,,,,,,,,f,blue,5b3fdff9d67d210001d58ac5,2021-10-22_13h49.39.942,forced_choiceRT_color,2021.2.3,Win32,59.88023952,,,,,,,,7,Ontime,short,f,1,2.043,2,1,9,1,1,,,,,
0.66,,,,,,,,,d,orange,5b3fdff9d67d210001d58ac5,2021-10-22_13h49.39.942,forced_choiceRT_color,2021.2.3,Win32,59.88023952,,,,,,,,7,Ontime,short,d,1,2.094,2,2,10,0,1,,,,,
1.52,,,,,,,,,d,orange,5b3fdff9d67d210001d58ac5,2021-10-22_13h49.39.942,forced_choiceRT_color,2021.2.3,Win32,59.88023952,,,,,,,,7,Ontime,short,d,1,2.006,2,3,11,0,1,,,,,
0.17,,,,,,,,,k,purple,5b3fdff9d67d210001d58ac5,2021-10-22_13h49.39.942,forced_choiceRT_color,2021.2.3,Win32,59.88023952,,,,,,,,7,Ontime,short,k,1,2.051,3,0,12,3,1,,,,,
0.94,,,,,,,,,d,orange,5b3fdff9d67d210001d58ac5,2021-10-22_13h49.39.942,forced_choiceRT_color,2021.2.3,Win32,59.88023952,,,,,,,,7,Ontime,short,d,1,2.045,3,1,13,0,1,,,,,
0.6,,,,,,,,,f,blue,5b3fdff9d67d210001d58ac5,2021-10-22_13h49.39.942,forced_choiceRT_color,2021.2.3,Win32,59.88023952,,,,,,,,7,Ontime,short,f,1,2.03,3,2,14,1,1,,,,,
1.05,,,,,,,,,k,purple,5b3fdff9d67d210001d58ac5,2021-10-22_13h49.39.942,forced_choiceRT_color,2021.2.3,Win32,59.88023952,,,,,,,,7,Ontime,short,k,1,2.05,3,3,15,3,1,,,,,
1.54,,,,,,,,,j,red,5b3fdff9d67d210001d58ac5,2021-10-22_13h49.39.942,forced_choiceRT_color,2021.2.3,Win32,59.88023952,,,,,,,,7,Ontime,short,d,0,2.038,4,0,16,2,1,,,,,
0.63,,,,,,,,,k,purple,5b3fdff9d67d210001d58ac5,2021-10-22_13h49.39.942,forced_choiceRT_color,2021.2.3,Win32,59.88023952,,,,,,,,7,Ontime,short,k,1,1.998,4,1,17,3,1,,,,,
1.71,,,,,,,,,k,purple,5b3fdff9d67d210001d58ac5,2021-10-22_13h49.39.942,forced_choiceRT_color,2021.2.3,Win32,59.88023952,,,,,,,,7,Fast,short,j,0,1.825,4,2,18,3,1,,,,,
0.5,,,,,,,,,d,orange,5b3fdff9d67d210001d58ac5,2021-10-22_13h49.39.942,forced_choiceRT_color,2021.2.3,Win32,59.88023952,,,,,,,,7,Ontime,short,d,1,2.072,4,3,19,0,1,,,,,
0.32,,,,,,,,,j,red,5b3fdff9d67d210001d58ac5,2021-10-22_13h49.39.942,forced_choiceRT_color,2021.2.3,Win32,59.88023952,,,,,,,,7,Slow,short,j,1,2.105,5,0,20,2,1,,,,,
1.35,,,,,,,,,d,orange,5b3fdff9d67d210001d58ac5,2021-10-22_13h49.39.942,forced_choiceRT_color,2021.2.3,Win32,59.88023952,,,,,,,,7,Ontime,short,d,1,2.076,5,1,21,0,1,,,,,
0.09,,,,,,,,,j,red,5b3fdff9d67d210001d58ac5,2021-10-22_13h49.39.942,forced_choiceRT_color,2021.2.3,Win32,59.88023952,,,,,,,,7,Ontime,short,j,1,2.045,5,2,22,2,1,,,,,
1.58,,,,,,,,,j,red,5b3fdff9d67d210001d58ac5,2021-10-22_13h49.39.942,forced_choiceRT_color,2021.2.3,Win32,59.88023952,,,,,,,,7,Ontime,short,j,1,1.943,5,3,23,2,1,,,,,
1.09,,,,,,,,,f,blue,5b3fdff9d67d210001d58ac5,2021-10-22_13h49.39.942,forced_choiceRT_color,2021.2.3,Win32,59.88023952,,,,,,,,7,Ontime,short,f,1,1.997,6,0,24,1,1,,,,,
1.73,,,,,,,,,f,blue,5b3fdff9d67d210001d58ac5,2021-10-22_13h49.39.942,forced_choiceRT_color,2021.2.3,Win32,59.88023952,,,,,,,,7,Ontime,short,d,0,2.025,6,1,25,1,1,,,,,
0.62,,,,,,,,,k,purple,5b3fdff9d67d210001d58ac5,2021-10-22_13h49.39.942,forced_choiceRT_color,2021.2.3,Win32,59.88023952,,,,,,,,7,Slow,short,k,1,2.124,6,2,26,3,1,,,,,
0.39,,,,,,,,,f,blue,5b3fdff9d67d210001d58ac5,2021-10-22_13h49.39.942,forced_choiceRT_color,2021.2.3,Win32,59.88023952,,,,,,,,7,Ontime,short,f,1,2.047,6,3,27,1,1,,,,,
0.83,,,,,,,,,f,blue,5b3fdff9d67d210001d58ac5,2021-10-22_13h49.39.942,forced_choiceRT_color,2021.2.3,Win32,59.88023952,,,,,,,,7,Ontime,short,f,1,2.088,7,0,28,1,1,,,,,
1.73,,,,,,,,,j,red,5b3fdff9d67d210001d58ac5,2021-10-22_13h49.39.942,forced_choiceRT_color,2021.2.3,Win32,59.88023952,,,,,,,,7,Ontime,short,f,0,2.004,7,1,29,2,1,,,,,
0.61,,,,,,,,,k,purple,5b3fdff9d67d210001d58ac5,2021-10-22_13h49.39.942,forced_choiceRT_color,2021.2.3,Win32,59.88023952,,,,,,,,7,Ontime,short,k,1,2.043,7,2,30,3,1,,,,,
0.84,,,,,,,,,j,red,5b3fdff9d67d210001d58ac5,2021-10-22_13h49.39.942,forced_choiceRT_color,2021.2.3,Win32,59.88023952,,,,,,,,7,Ontime,short,j,1,2.087,7,3,31,2,1,,,,,
1.29,,,,,,,,,d,orange,5b3fdff9d67d210001d58ac5,2021-10-22_13h49.39.942,forced_choiceRT_color,2021.2.3,Win32,59.88023952,,,,,,,,7,Slow,short,d,1,2.156,8,0,32,0,1,,,,,
1.95,,,,,,,,,k,purple,5b3fdff9d67d210001d58ac5,2021-10-22_13h49.39.942,forced_choiceRT_color,2021.2.3,Win32,59.88023952,,,,,,,,7,Ontime,short,f,0,2.056,8,1,33,3,1,,,,,
0.72,,,,,,,,,f,blue,5b3fdff9d67d210001d58ac5,2021-10-22_13h49.39.942,forced_choiceRT_color,2021.2.3,Win32,59.88023952,,,,,,,,7,Ontime,short,f,1,2.079,8,2,34,1,1,,,,,
0.02,,,,,,,,,j,red,5b3fdff9d67d210001d58ac5,2021-10-22_13h49.39.942,forced_choiceRT_color,2021.2.3,Win32,59.88023952,,,,,,,,7,Ontime,short,j,1,1.97,8,3,35,2,1,,,,,
0.51,,,,,,,,,k,purple,5b3fdff9d67d210001d58ac5,2021-10-22_13h49.39.942,forced_choiceRT_color,2021.2.3,Win32,59.88023952,,,,,,,,7,Ontime,short,k,1,2.031,9,0,36,3,1,,,,,
0.76,,,,,,,,,k,purple,5b3fdff9d67d210001d58ac5,2021-10-22_13h49.39.942,forced_choiceRT_color,2021.2.3,Win32,59.88023952,,,,,,,,7,Ontime,short,k,1,2.065,9,1,37,3,1,,,,,
1.25,,,,,,,,,f,blue,5b3fdff9d67d210001d58ac5,2021-10-22_13h49.39.942,forced_choiceRT_color,2021.2.3,Win32,59.88023952,,,,,,,,7,Fast,short,f,1,1.883,9,2,38,1,1,,,,,
0.74,,,,,,,,,k,purple,5b3fdff9d67d210001d58ac5,2021-10-22_13h49.39.942,forced_choiceRT_color,2021.2.3,Win32,59.88023952,,,,,,,,7,Slow,short,k,1,2.156,9,3,39,3,1,,,,,
,,,,,,,,,,,5b3fdff9d67d210001d58ac5,2021-10-22_13h49.39.942,forced_choiceRT_color,2021.2.3,Win32,59.88023952,,,,,,,,,,,,,,,,,,,6,0,6,0,1
0.34,,,,,,,,,d,orange,5b3fdff9d67d210001d58ac5,2021-10-22_13h49.39.942,forced_choiceRT_color,2021.2.3,Win32,59.88023952,,,,,,,,8,Ontime,short,d,1,2.034,0,0,0,0,1,,,,,
1.94,,,,,,,,,j,red,5b3fdff9d67d210001d58ac5,2021-10-22_13h49.39.942,forced_choiceRT_color,2021.2.3,Win32,59.88023952,,,,,,,,8,Slow,short,d,0,2.111,0,1,1,2,1,,,,,
0.57,,,,,,,,,f,blue,5b3fdff9d67d210001d58ac5,2021-10-22_13h49.39.942,forced_choiceRT_color,2021.2.3,Win32,59.88023952,,,,,,,,8,Fast,short,f,1,1.794,0,2,2,1,1,,,,,
1.09,,,,,,,,,d,orange,5b3fdff9d67d210001d58ac5,2021-10-22_13h49.39.942,forced_choiceRT_color,2021.2.3,Win32,59.88023952,,,,,,,,8,Ontime,short,d,1,2.073,0,3,3,0,1,,,,,
0.94,,,,,,,,,f,blue,5b3fdff9d67d210001d58ac5,2021-10-22_13h49.39.942,forced_choiceRT_color,2021.2.3,Win32,59.88023952,,,,,,,,8,Ontime,short,f,1,2.009,1,0,4,1,1,,,,,
0.35,,,,,,,,,k,purple,5b3fdff9d67d210001d58ac5,2021-10-22_13h49.39.942,forced_choiceRT_color,2021.2.3,Win32,59.88023952,,,,,,,,8,Ontime,short,k,1,2.029,1,1,5,3,1,,,,,
1.21,,,,,,,,,j,red,5b3fdff9d67d210001d58ac5,2021-10-22_13h49.39.942,forced_choiceRT_color,2021.2.3,Win32,59.88023952,,,,,,,,8,Ontime,short,j,1,1.988,1,2,6,2,1,,,,,
1.49,,,,,,,,,k,purple,5b3fdff9d67d210001d58ac5,2021-10-22_13h49.39.942,forced_choiceRT_color,2021.2.3,Win32,59.88023952,,,,,,,,8,Ontime,short,j,0,1.908,1,3,7,3,1,,,,,
0.98,,,,,,,,,k,purple,5b3fdff9d67d210001d58ac5,2021-10-22_13h49.39.942,forced_choiceRT_color,2021.2.3,Win32,59.88023952,,,,,,,,8,Ontime,short,k,1,1.908,2,0,8,3,1,,,,,
0.69,,,,,,,,,d,orange,5b3fdff9d67d210001d58ac5,2021-10-22_13h49.39.942,forced_choiceRT_color,2021.2.3,Win32,59.88023952,,,,,,,,8,Ontime,short,d,1,2.028,2,1,9,0,1,,,,,
0.3,,,,,,,,,j,red,5b3fdff9d67d210001d58ac5,2021-10-22_13h49.39.942,forced_choiceRT_color,2021.2.3,Win32,59.88023952,,,,,,,,8,Ontime,short,j,1,2.054,2,2,10,2,1,,,,,
1.57,,,,,,,,,k,purple,5b3fdff9d67d210001d58ac5,2021-10-22_13h49.39.942,forced_choiceRT_color,2021.2.3,Win32,59.88023952,,,,,,,,8,Ontime,short,k,1,2.056,2,3,11,3,1,,,,,
0.39,,,,,,,,,k,purple,5b3fdff9d67d210001d58ac5,2021-10-22_13h49.39.942,forced_choiceRT_color,2021.2.3,Win32,59.88023952,,,,,,,,8,Ontime,short,k,1,2.042,3,0,12,3,1,,,,,
1.28,,,,,,,,,k,purple,5b3fdff9d67d210001d58ac5,2021-10-22_13h49.39.942,forced_choiceRT_color,2021.2.3,Win32,59.88023952,,,,,,,,8,Slow,short,k,1,2.149,3,1,13,3,1,,,,,
0.86,,,,,,,,,d,orange,5b3fdff9d67d210001d58ac5,2021-10-22_13h49.39.942,forced_choiceRT_color,2021.2.3,Win32,59.88023952,,,,,,,,8,Ontime,short,d,1,2.062,3,2,14,0,1,,,,,
0.39,,,,,,,,,d,orange,5b3fdff9d67d210001d58ac5,2021-10-22_13h49.39.942,forced_choiceRT_color,2021.2.3,Win32,59.88023952,,,,,,,,8,Ontime,short,d,1,2.006,3,3,15,0,1,,,,,
1.93,,,,,,,,,j,red,5b3fdff9d67d210001d58ac5,2021-10-22_13h49.39.942,forced_choiceRT_color,2021.2.3,Win32,59.88023952,,,,,,,,8,Ontime,short,f,0,2.09,4,0,16,2,1,,,,,
1.24,,,,,,,,,k,purple,5b3fdff9d67d210001d58ac5,2021-10-22_13h49.39.942,forced_choiceRT_color,2021.2.3,Win32,59.88023952,,,,,,,,8,Ontime,short,k,1,2.082,4,1,17,3,1,,,,,
0.22,,,,,,,,,d,orange,5b3fdff9d67d210001d58ac5,2021-10-22_13h49.39.942,forced_choiceRT_color,2021.2.3,Win32,59.88023952,,,,,,,,8,Ontime,short,d,1,2.022,4,2,18,0,1,,,,,
0.38,,,,,,,,,d,orange,5b3fdff9d67d210001d58ac5,2021-10-22_13h49.39.942,forced_choiceRT_color,2021.2.3,Win32,59.88023952,,,,,,,,8,Slow,short,d,1,2.143,4,3,19,0,1,,,,,
0.2,,,,,,,,,j,red,5b3fdff9d67d210001d58ac5,2021-10-22_13h49.39.942,forced_choiceRT_color,2021.2.3,Win32,59.88023952,,,,,,,,8,Ontime,short,j,1,1.938,5,0,20,2,1,,,,,
1.09,,,,,,,,,j,red,5b3fdff9d67d210001d58ac5,2021-10-22_13h49.39.942,forced_choiceRT_color,2021.2.3,Win32,59.88023952,,,,,,,,8,Fast,short,j,1,1.889,5,1,21,2,1,,,,,
1.29,,,,,,,,,f,blue,5b3fdff9d67d210001d58ac5,2021-10-22_13h49.39.942,forced_choiceRT_color,2021.2.3,Win32,59.88023952,,,,,,,,8,Ontime,short,f,1,2.025,5,2,22,1,1,,,,,
1.56,,,,,,,,,j,red,5b3fdff9d67d210001d58ac5,2021-10-22_13h49.39.942,forced_choiceRT_color,2021.2.3,Win32,59.88023952,,,,,,,,8,Ontime,short,k,0,1.947,5,3,23,2,1,,,,,
1.84,,,,,,,,,k,purple,5b3fdff9d67d210001d58ac5,2021-10-22_13h49.39.942,forced_choiceRT_color,2021.2.3,Win32,59.88023952,,,,,,,,8,Ontime,short,k,1,2.027,6,0,24,3,1,,,,,
1.08,,,,,,,,,d,orange,5b3fdff9d67d210001d58ac5,2021-10-22_13h49.39.942,forced_choiceRT_color,2021.2.3,Win32,59.88023952,,,,,,,,8,Ontime,short,d,1,2.076,6,1,25,0,1,,,,,
0.28,,,,,,,,,f,blue,5b3fdff9d67d210001d58ac5,2021-10-22_13h49.39.942,forced_choiceRT_color,2021.2.3,Win32,59.88023952,,,,,,,,8,Ontime,short,f,1,1.953,6,2,26,1,1,,,,,
1.4,,,,,,,,,f,blue,5b3fdff9d67d210001d58ac5,2021-10-22_13h49.39.942,forced_choiceRT_color,2021.2.3,Win32,59.88023952,,,,,,,,8,Ontime,short,f,1,2.06,6,3,27,1,1,,,,,
0.73,,,,,,,,,j,red,5b3fdff9d67d210001d58ac5,2021-10-22_13h49.39.942,forced_choiceRT_color,2021.2.3,Win32,59.88023952,,,,,,,,8,Ontime,short,j,1,2.023,7,0,28,2,1,,,,,
0.3,,,,,,,,,k,purple,5b3fdff9d67d210001d58ac5,2021-10-22_13h49.39.942,forced_choiceRT_color,2021.2.3,Win32,59.88023952,,,,,,,,8,Ontime,short,k,1,1.937,7,1,29,3,1,,,,,
0.1,,,,,,,,,f,blue,5b3fdff9d67d210001d58ac5,2021-10-22_13h49.39.942,forced_choiceRT_color,2021.2.3,Win32,59.88023952,,,,,,,,8,Ontime,short,f,1,2.016,7,2,30,1,1,,,,,
0.19,,,,,,,,,f,blue,5b3fdff9d67d210001d58ac5,2021-10-22_13h49.39.942,forced_choiceRT_color,2021.2.3,Win32,59.88023952,,,,,,,,8,Ontime,short,f,1,1.972,7,3,31,1,1,,,,,
1.69,,,,,,,,,k,purple,5b3fdff9d67d210001d58ac5,2021-10-22_13h49.39.942,forced_choiceRT_color,2021.2.3,Win32,59.88023952,,,,,,,,8,Fast,short,d,0,1.864,8,0,32,3,1,,,,,
0.38,,,,,,,,,j,red,5b3fdff9d67d210001d58ac5,2021-10-22_13h49.39.942,forced_choiceRT_color,2021.2.3,Win32,59.88023952,,,,,,,,8,Ontime,short,j,1,1.949,8,1,33,2,1,,,,,
0.32,,,,,,,,,d,orange,5b3fdff9d67d210001d58ac5,2021-10-22_13h49.39.942,forced_choiceRT_color,2021.2.3,Win32,59.88023952,,,,,,,,8,Ontime,short,f,0,1.978,8,2,34,0,1,,,,,
0.31,,,,,,,,,f,blue,5b3fdff9d67d210001d58ac5,2021-10-22_13h49.39.942,forced_choiceRT_color,2021.2.3,Win32,59.88023952,,,,,,,,8,Fast,short,f,1,1.817,8,3,35,1,1,,,,,
0.37,,,,,,,,,j,red,5b3fdff9d67d210001d58ac5,2021-10-22_13h49.39.942,forced_choiceRT_color,2021.2.3,Win32,59.88023952,,,,,,,,8,Ontime,short,j,1,2.007,9,0,36,2,1,,,,,
1.48,,,,,,,,,f,blue,5b3fdff9d67d210001d58ac5,2021-10-22_13h49.39.942,forced_choiceRT_color,2021.2.3,Win32,59.88023952,,,,,,,,8,Fast,short,j,0,1.898,9,1,37,1,1,,,,,
0.83,,,,,,,,,f,blue,5b3fdff9d67d210001d58ac5,2021-10-22_13h49.39.942,forced_choiceRT_color,2021.2.3,Win32,59.88023952,,,,,,,,8,Ontime,short,f,1,2.057,9,2,38,1,1,,,,,
1.85,,,,,,,,,d,orange,5b3fdff9d67d210001d58ac5,2021-10-22_13h49.39.942,forced_choiceRT_color,2021.2.3,Win32,59.88023952,,,,,,,,8,Ontime,short,f,0,1.971,9,3,39,0,1,,,,,
,,,,,,,,,,,5b3fdff9d67d210001d58ac5,2021-10-22_13h49.39.942,forced_choiceRT_color,2021.2.3,Win32,59.88023952,,,,,,,,,,,,,,,,,,,7,0,7,0,1
1.29,,,,,,,,,k,purple,5b3fdff9d67d210001d58ac5,2021-10-22_13h49.39.942,forced_choiceRT_color,2021.2.3,Win32,59.88023952,,,,,,,,9,Ontime,short,k,1,1.949,0,0,0,3,1,,,,,
0.75,,,,,,,,,k,purple,5b3fdff9d67d210001d58ac5,2021-10-22_13h49.39.942,forced_choiceRT_color,2021.2.3,Win32,59.88023952,,,,,,,,9,Ontime,short,k,1,2.005,0,1,1,3,1,,,,,
0.57,,,,,,,,,f,blue,5b3fdff9d67d210001d58ac5,2021-10-22_13h49.39.942,forced_choiceRT_color,2021.2.3,Win32,59.88023952,,,,,,,,9,Ontime,short,f,1,2.005,0,2,2,1,1,,,,,
0.98,,,,,,,,,f,blue,5b3fdff9d67d210001d58ac5,2021-10-22_13h49.39.942,forced_choiceRT_color,2021.2.3,Win32,59.88023952,,,,,,,,9,Ontime,short,f,1,2.057,0,3,3,1,1,,,,,
1.19,,,,,,,,,d,orange,5b3fdff9d67d210001d58ac5,2021-10-22_13h49.39.942,forced_choiceRT_color,2021.2.3,Win32,59.88023952,,,,,,,,9,Ontime,short,d,1,2.074,1,0,4,0,1,,,,,
0.2,,,,,,,,,j,red,5b3fdff9d67d210001d58ac5,2021-10-22_13h49.39.942,forced_choiceRT_color,2021.2.3,Win32,59.88023952,,,,,,,,9,Ontime,short,j,1,2.004,1,1,5,2,1,,,,,
0.02,,,,,,,,,f,blue,5b3fdff9d67d210001d58ac5,2021-10-22_13h49.39.942,forced_choiceRT_color,2021.2.3,Win32,59.88023952,,,,,,,,9,Ontime,short,f,1,1.991,1,2,6,1,1,,,,,
0.89,,,,,,,,,d,orange,5b3fdff9d67d210001d58ac5,2021-10-22_13h49.39.942,forced_choiceRT_color,2021.2.3,Win32,59.88023952,,,,,,,,9,Ontime,short,d,1,1.963,1,3,7,0,1,,,,,
0.06,,,,,,,,,k,purple,5b3fdff9d67d210001d58ac5,2021-10-22_13h49.39.942,forced_choiceRT_color,2021.2.3,Win32,59.88023952,,,,,,,,9,Ontime,short,k,1,1.993,2,0,8,3,1,,,,,
0.16,,,,,,,,,k,purple,5b3fdff9d67d210001d58ac5,2021-10-22_13h49.39.942,forced_choiceRT_color,2021.2.3,Win32,59.88023952,,,,,,,,9,Fast,short,k,1,1.845,2,1,9,3,1,,,,,
0.02,,,,,,,,,j,red,5b3fdff9d67d210001d58ac5,2021-10-22_13h49.39.942,forced_choiceRT_color,2021.2.3,Win32,59.88023952,,,,,,,,9,Ontime,short,j,1,1.93,2,2,10,2,1,,,,,
1.75,,,,,,,,,d,orange,5b3fdff9d67d210001d58ac5,2021-10-22_13h49.39.942,forced_choiceRT_color,2021.2.3,Win32,59.88023952,,,,,,,,9,Fast,short,j,0,1.85,2,3,11,0,1,,,,,
0.74,,,,,,,,,k,purple,5b3fdff9d67d210001d58ac5,2021-10-22_13h49.39.942,forced_choiceRT_color,2021.2.3,Win32,59.88023952,,,,,,,,9,Ontime,short,k,1,1.938,3,0,12,3,1,,,,,
1.14,,,,,,,,,k,purple,5b3fdff9d67d210001d58ac5,2021-10-22_13h49.39.942,forced_choiceRT_color,2021.2.3,Win32,59.88023952,,,,,,,,9,Ontime,short,k,1,2.012,3,1,13,3,1,,,,,
0.56,,,,,,,,,j,red,5b3fdff9d67d210001d58ac5,2021-10-22_13h49.39.942,forced_choiceRT_color,2021.2.3,Win32,59.88023952,,,,,,,,9,Ontime,short,f,0,1.959,3,2,14,2,1,,,,,
1.79,,,,,,,,,d,orange,5b3fdff9d67d210001d58ac5,2021-10-22_13h49.39.942,forced_choiceRT_color,2021.2.3,Win32,59.88023952,,,,,,,,9,Ontime,short,f,0,1.921,3,3,15,0,1,,,,,
1.65,,,,,,,,,d,orange,5b3fdff9d67d210001d58ac5,2021-10-22_13h49.39.942,forced_choiceRT_color,2021.2.3,Win32,59.88023952,,,,,,,,9,Fast,short,d,1,1.854,4,0,16,0,1,,,,,
0.09,,,,,,,,,j,red,5b3fdff9d67d210001d58ac5,2021-10-22_13h49.39.942,forced_choiceRT_color,2021.2.3,Win32,59.88023952,,,,,,,,9,Ontime,short,j,1,1.961,4,1,17,2,1,,,,,
1.49,,,,,,,,,d,orange,5b3fdff9d67d210001d58ac5,2021-10-22_13h49.39.942,forced_choiceRT_color,2021.2.3,Win32,59.88023952,,,,,,,,9,Ontime,short,j,0,1.904,4,2,18,0,1,,,,,
1.15,,,,,,,,,k,purple,5b3fdff9d67d210001d58ac5,2021-10-22_13h49.39.942,forced_choiceRT_color,2021.2.3,Win32,59.88023952,,,,,,,,9,Fast,short,k,1,1.738,4,3,19,3,1,,,,,
0.34,,,,,,,,,f,blue,5b3fdff9d67d210001d58ac5,2021-10-22_13h49.39.942,forced_choiceRT_color,2021.2.3,Win32,59.88023952,,,,,,,,9,Ontime,short,f,1,1.945,5,0,20,1,1,,,,,
0.41,,,,,,,,,j,red,5b3fdff9d67d210001d58ac5,2021-10-22_13h49.39.942,forced_choiceRT_color,2021.2.3,Win32,59.88023952,,,,,,,,9,Ontime,short,j,1,1.971,5,1,21,2,1,,,,,
0.26,,,,,,,,,j,red,5b3fdff9d67d210001d58ac5,2021-10-22_13h49.39.942,forced_choiceRT_color,2021.2.3,Win32,59.88023952,,,,,,,,9,Ontime,short,j,1,1.942,5,2,22,2,1,,,,,
1.23,,,,,,,,,j,red,5b3fdff9d67d210001d58ac5,2021-10-22_13h49.39.942,forced_choiceRT_color,2021.2.3,Win32,59.88023952,,,,,,,,9,Fast,short,j,1,1.795,5,3,23,2,1,,,,,
1.06,,,,,,,,,k,purple,5b3fdff9d67d210001d58ac5,2021-10-22_13h49.39.942,forced_choiceRT_color,2021.2.3,Win32,59.88023952,,,,,,,,9,Fast,short,k,1,1.891,6,0,24,3,1,,,,,
0.79,,,,,,,,,f,blue,5b3fdff9d67d210001d58ac5,2021-10-22_13h49.39.942,forced_choiceRT_color,2021.2.3,Win32,59.88023952,,,,,,,,9,Ontime,short,f,1,2.04,6,1,25,1,1,,,,,
0.79,,,,,,,,,d,orange,5b3fdff9d67d210001d58ac5,2021-10-22_13h49.39.942,forced_choiceRT_color,2021.2.3,Win32,59.88023952,,,,,,,,9,Ontime,short,j,0,1.989,6,2,26,0,1,,,,,
1.74,,,,,,,,,j,red,5b3fdff9d67d210001d58ac5,2021-10-22_13h49.39.942,forced_choiceRT_color,2021.2.3,Win32,59.88023952,,,,,,,,9,Fast,short,j,1,1.845,6,3,27,2,1,,,,,
1.13,,,,,,,,,f,blue,5b3fdff9d67d210001d58ac5,2021-10-22_13h49.39.942,forced_choiceRT_color,2021.2.3,Win32,59.88023952,,,,,,,,9,Ontime,short,j,0,1.971,7,0,28,1,1,,,,,
1.53,,,,,,,,,k,purple,5b3fdff9d67d210001d58ac5,2021-10-22_13h49.39.942,forced_choiceRT_color,2021.2.3,Win32,59.88023952,,,,,,,,9,Ontime,short,k,1,1.96,7,1,29,3,1,,,,,
0.23,,,,,,,,,d,orange,5b3fdff9d67d210001d58ac5,2021-10-22_13h49.39.942,forced_choiceRT_color,2021.2.3,Win32,59.88023952,,,,,,,,9,Ontime,short,d,1,1.938,7,2,30,0,1,,,,,
0.28,,,,,,,,,f,blue,5b3fdff9d67d210001d58ac5,2021-10-22_13h49.39.942,forced_choiceRT_color,2021.2.3,Win32,59.88023952,,,,,,,,9,Ontime,short,f,1,2.036,7,3,31,1,1,,,,,
0.69,,,,,,,,,k,purple,5b3fdff9d67d210001d58ac5,2021-10-22_13h49.39.942,forced_choiceRT_color,2021.2.3,Win32,59.88023952,,,,,,,,9,Ontime,short,k,1,2.071,8,0,32,3,1,,,,,
0.38,,,,,,,,,j,red,5b3fdff9d67d210001d58ac5,2021-10-22_13h49.39.942,forced_choiceRT_color,2021.2.3,Win32,59.88023952,,,,,,,,9,Ontime,short,j,1,2.04,8,1,33,2,1,,,,,
1.57,,,,,,,,,d,orange,5b3fdff9d67d210001d58ac5,2021-10-22_13h49.39.942,forced_choiceRT_color,2021.2.3,Win32,59.88023952,,,,,,,,9,Ontime,short,j,0,1.955,8,2,34,0,1,,,,,
1.4,,,,,,,,,d,orange,5b3fdff9d67d210001d58ac5,2021-10-22_13h49.39.942,forced_choiceRT_color,2021.2.3,Win32,59.88023952,,,,,,,,9,Fast,short,d,1,1.799,8,3,35,0,1,,,,,
0.42,,,,,,,,,f,blue,5b3fdff9d67d210001d58ac5,2021-10-22_13h49.39.942,forced_choiceRT_color,2021.2.3,Win32,59.88023952,,,,,,,,9,Fast,short,f,1,1.83,9,0,36,1,1,,,,,
1.95,,,,,,,,,j,red,5b3fdff9d67d210001d58ac5,2021-10-22_13h49.39.942,forced_choiceRT_color,2021.2.3,Win32,59.88023952,,,,,,,,9,Ontime,short,j,1,2.045,9,1,37,2,1,,,,,
0.91,,,,,,,,,f,blue,5b3fdff9d67d210001d58ac5,2021-10-22_13h49.39.942,forced_choiceRT_color,2021.2.3,Win32,59.88023952,,,,,,,,9,Ontime,short,f,1,2.056,9,2,38,1,1,,,,,
1.94,,,,,,,,,f,blue,5b3fdff9d67d210001d58ac5,2021-10-22_13h49.39.942,forced_choiceRT_color,2021.2.3,Win32,59.88023952,,,,,,,,9,Ontime,short,f,1,2.026,9,3,39,1,1,,,,,
,,,,,,,,,,,5b3fdff9d67d210001d58ac5,2021-10-22_13h49.39.942,forced_choiceRT_color,2021.2.3,Win32,59.88023952,,,,,,,,,,,,,,,,,,,8,0,8,0,1
1.97,,,,,,,,,j,red,5b3fdff9d67d210001d58ac5,2021-10-22_13h49.39.942,forced_choiceRT_color,2021.2.3,Win32,59.88023952,,,,,,,,10,Ontime,short,k,0,2.089,0,0,0,2,1,,,,,
1.79,,,,,,,,,j,red,5b3fdff9d67d210001d58ac5,2021-10-22_13h49.39.942,forced_choiceRT_color,2021.2.3,Win32,59.88023952,,,,,,,,10,Slow,short,k,0,2.11,0,1,1,2,1,,,,,
0.25,,,,,,,,,k,purple,5b3fdff9d67d210001d58ac5,2021-10-22_13h49.39.942,forced_choiceRT_color,2021.2.3,Win32,59.88023952,,,,,,,,10,Ontime,short,k,1,1.989,0,2,2,3,1,,,,,
1.64,,,,,,,,,k,purple,5b3fdff9d67d210001d58ac5,2021-10-22_13h49.39.942,forced_choiceRT_color,2021.2.3,Win32,59.88023952,,,,,,,,10,Ontime,short,j,0,1.965,0,3,3,3,1,,,,,
1.33,,,,,,,,,j,red,5b3fdff9d67d210001d58ac5,2021-10-22_13h49.39.942,forced_choiceRT_color,2021.2.3,Win32,59.88023952,,,,,,,,10,Fast,short,f,0,1.859,1,0,4,2,1,,,,,
1.23,,,,,,,,,f,blue,5b3fdff9d67d210001d58ac5,2021-10-22_13h49.39.942,forced_choiceRT_color,2021.2.3,Win32,59.88023952,,,,,,,,10,Ontime,short,f,1,1.971,1,1,5,1,1,,,,,
0.28,,,,,,,,,k,purple,5b3fdff9d67d210001d58ac5,2021-10-22_13h49.39.942,forced_choiceRT_color,2021.2.3,Win32,59.88023952,,,,,,,,10,Ontime,short,k,1,1.949,1,2,6,3,1,,,,,
1.1,,,,,,,,,d,orange,5b3fdff9d67d210001d58ac5,2021-10-22_13h49.39.942,forced_choiceRT_color,2021.2.3,Win32,59.88023952,,,,,,,,10,Ontime,short,d,1,2.037,1,3,7,0,1,,,,,
1.9,,,,,,,,,d,orange,5b3fdff9d67d210001d58ac5,2021-10-22_13h49.39.942,forced_choiceRT_color,2021.2.3,Win32,59.88023952,,,,,,,,10,Fast,short,d,1,1.845,2,0,8,0,1,,,,,
1.18,,,,,,,,,k,purple,5b3fdff9d67d210001d58ac5,2021-10-22_13h49.39.942,forced_choiceRT_color,2021.2.3,Win32,59.88023952,,,,,,,,10,Slow,short,k,1,2.172,2,1,9,3,1,,,,,
0.56,,,,,,,,,f,blue,5b3fdff9d67d210001d58ac5,2021-10-22_13h49.39.942,forced_choiceRT_color,2021.2.3,Win32,59.88023952,,,,,,,,10,Ontime,short,f,1,2.043,2,2,10,1,1,,,,,
1.66,,,,,,,,,d,orange,5b3fdff9d67d210001d58ac5,2021-10-22_13h49.39.942,forced_choiceRT_color,2021.2.3,Win32,59.88023952,,,,,,,,10,Ontime,short,f,0,1.965,2,3,11,0,1,,,,,
1.85,,,,,,,,,j,red,5b3fdff9d67d210001d58ac5,2021-10-22_13h49.39.942,forced_choiceRT_color,2021.2.3,Win32,59.88023952,,,,,,,,10,Ontime,short,f,0,1.972,3,0,12,2,1,,,,,
0.05,,,,,,,,,f,blue,5b3fdff9d67d210001d58ac5,2021-10-22_13h49.39.942,forced_choiceRT_color,2021.2.3,Win32,59.88023952,,,,,,,,10,Ontime,short,f,1,1.939,3,1,13,1,1,,,,,
0.24,,,,,,,,,k,purple,5b3fdff9d67d210001d58ac5,2021-10-22_13h49.39.942,forced_choiceRT_color,2021.2.3,Win32,59.88023952,,,,,,,,10,Ontime,short,k,1,1.91,3,2,14,3,1,,,,,
0.14,,,,,,,,,f,blue,5b3fdff9d67d210001d58ac5,2021-10-22_13h49.39.942,forced_choiceRT_color,2021.2.3,Win32,59.88023952,,,,,,,,10,Fast,short,f,1,1.878,3,3,15,1,1,,,,,
0.66,,,,,,,,,k,purple,5b3fdff9d67d210001d58ac5,2021-10-22_13h49.39.942,forced_choiceRT_color,2021.2.3,Win32,59.88023952,,,,,,,,10,Ontime,short,k,1,1.93,4,0,16,3,1,,,,,
0.19,,,,,,,,,d,orange,5b3fdff9d67d210001d58ac5,2021-10-22_13h49.39.942,forced_choiceRT_color,2021.2.3,Win32,59.88023952,,,,,,,,10,Ontime,short,d,1,1.978,4,1,17,0,1,,,,,
0.2,,,,,,,,,k,purple,5b3fdff9d67d210001d58ac5,2021-10-22_13h49.39.942,forced_choiceRT_color,2021.2.3,Win32,59.88023952,,,,,,,,10,Ontime,short,k,1,1.943,4,2,18,3,1,,,,,
1.3,,,,,,,,,k,purple,5b3fdff9d67d210001d58ac5,2021-10-22_13h49.39.942,forced_choiceRT_color,2021.2.3,Win32,59.88023952,,,,,,,,10,Ontime,short,k,1,1.905,4,3,19,3,1,,,,,
1.45,,,,,,,,,f,blue,5b3fdff9d67d210001d58ac5,2021-10-22_13h49.39.942,forced_choiceRT_color,2021.2.3,Win32,59.88023952,,,,,,,,10,Fast,short,d,0,1.757,5,0,20,1,1,,,,,
0.84,,,,,,,,,d,orange,5b3fdff9d67d210001d58ac5,2021-10-22_13h49.39.942,forced_choiceRT_color,2021.2.3,Win32,59.88023952,,,,,,,,10,Ontime,short,d,1,1.91,5,1,21,0,1,,,,,
1.38,,,,,,,,,k,purple,5b3fdff9d67d210001d58ac5,2021-10-22_13h49.39.942,forced_choiceRT_color,2021.2.3,Win32,59.88023952,,,,,,,,10,Ontime,short,f,0,2.077,5,2,22,3,1,,,,,
1.54,,,,,,,,,d,orange,5b3fdff9d67d210001d58ac5,2021-10-22_13h49.39.942,forced_choiceRT_color,2021.2.3,Win32,59.88023952,,,,,,,,10,Fast,short,d,1,0.018,5,3,23,0,1,,,,,
1.4,,,,,,,,,j,red,5b3fdff9d67d210001d58ac5,2021-10-22_13h49.39.942,forced_choiceRT_color,2021.2.3,Win32,59.88023952,,,,,,,,10,Ontime,short,j,1,2.088,6,0,24,2,1,,,,,
1.49,,,,,,,,,f,blue,5b3fdff9d67d210001d58ac5,2021-10-22_13h49.39.942,forced_choiceRT_color,2021.2.3,Win32,59.88023952,,,,,,,,10,Ontime,short,j,0,2.016,6,1,25,1,1,,,,,
1.29,,,,,,,,,j,red,5b3fdff9d67d210001d58ac5,2021-10-22_13h49.39.942,forced_choiceRT_color,2021.2.3,Win32,59.88023952,,,,,,,,10,Ontime,short,j,1,2.07,6,2,26,2,1,,,,,
0.49,,,,,,,,,f,blue,5b3fdff9d67d210001d58ac5,2021-10-22_13h49.39.942,forced_choiceRT_color,2021.2.3,Win32,59.88023952,,,,,,,,10,Ontime,short,f,1,2.029,6,3,27,1,1,,,,,
1.28,,,,,,,,,f,blue,5b3fdff9d67d210001d58ac5,2021-10-22_13h49.39.942,forced_choiceRT_color,2021.2.3,Win32,59.88023952,,,,,,,,10,Fast,short,f,1,1.856,7,0,28,1,1,,,,,
1.86,,,,,,,,,d,orange,5b3fdff9d67d210001d58ac5,2021-10-22_13h49.39.942,forced_choiceRT_color,2021.2.3,Win32,59.88023952,,,,,,,,10,Ontime,short,f,0,1.98,7,1,29,0,1,,,,,
0.41,,,,,,,,,j,red,5b3fdff9d67d210001d58ac5,2021-10-22_13h49.39.942,forced_choiceRT_color,2021.2.3,Win32,59.88023952,,,,,,,,10,Ontime,short,j,1,1.977,7,2,30,2,1,,,,,
0.96,,,,,,,,,f,blue,5b3fdff9d67d210001d58ac5,2021-10-22_13h49.39.942,forced_choiceRT_color,2021.2.3,Win32,59.88023952,,,,,,,,10,Ontime,short,f,1,2.063,7,3,31,1,1,,,,,
1.76,,,,,,,,,k,purple,5b3fdff9d67d210001d58ac5,2021-10-22_13h49.39.942,forced_choiceRT_color,2021.2.3,Win32,59.88023952,,,,,,,,10,Ontime,short,f,0,2.081,8,0,32,3,1,,,,,
1.48,,,,,,,,,d,orange,5b3fdff9d67d210001d58ac5,2021-10-22_13h49.39.942,forced_choiceRT_color,2021.2.3,Win32,59.88023952,,,,,,,,10,Ontime,short,k,0,2.049,8,1,33,0,1,,,,,
1.38,,,,,,,,,j,red,5b3fdff9d67d210001d58ac5,2021-10-22_13h49.39.942,forced_choiceRT_color,2021.2.3,Win32,59.88023952,,,,,,,,10,Ontime,short,d,0,1.98,8,2,34,2,1,,,,,
0.26,,,,,,,,,d,orange,5b3fdff9d67d210001d58ac5,2021-10-22_13h49.39.942,forced_choiceRT_color,2021.2.3,Win32,59.88023952,,,,,,,,10,Ontime,short,d,1,1.944,8,3,35,0,1,,,,,
1.47,,,,,,,,,d,orange,5b3fdff9d67d210001d58ac5,2021-10-22_13h49.39.942,forced_choiceRT_color,2021.2.3,Win32,59.88023952,,,,,,,,10,Ontime,short,d,1,1.991,9,0,36,0,1,,,,,
1.34,,,,,,,,,j,red,5b3fdff9d67d210001d58ac5,2021-10-22_13h49.39.942,forced_choiceRT_color,2021.2.3,Win32,59.88023952,,,,,,,,10,Fast,short,j,1,1.871,9,1,37,2,1,,,,,
1.72,,,,,,,,,f,blue,5b3fdff9d67d210001d58ac5,2021-10-22_13h49.39.942,forced_choiceRT_color,2021.2.3,Win32,59.88023952,,,,,,,,10,Ontime,short,j,0,1.974,9,2,38,1,1,,,,,
1.93,,,,,,,,,j,red,5b3fdff9d67d210001d58ac5,2021-10-22_13h49.39.942,forced_choiceRT_color,2021.2.3,Win32,59.88023952,,,,,,,,10,Ontime,short,k,0,1.904,9,3,39,2,1,,,,,
,,,,,,,,,,,5b3fdff9d67d210001d58ac5,2021-10-22_13h49.39.942,forced_choiceRT_color,2021.2.3,Win32,59.88023952,,,,,,,,,,,,,,,,,,,9,0,9,0,1
