target_onset,trial_resp_sp.keys,trial_resp_sp.corr,trial_resp_sp.rt,trials_train_loop.thisRepN,trials_train_loop.thisTrialN,trials_train_loop.thisN,trials_train_loop.thisIndex,trials_train_loop.ran,correct_key,color,participant,date,expName,psychopyVersion,OS,frameRate,trial_resp_timing.keys,trial_resp_timing.rt,trials_train_timing.thisRepN,trials_train_timing.thisTrialN,trials_train_timing.thisN,trials_train_timing.thisIndex,trials_train_timing.ran,block_id,ontime,feedback_cond,forcedRT_resp.keys,forcedRT_resp.corr,forcedRT_resp.rt,trials.thisRepN,trials.thisTrialN,trials.thisN,trials.thisIndex,trials.ran,blocks.thisRepN,blocks.thisTrialN,blocks.thisN,blocks.thisIndex,blocks.ran
0,f,1,1.2821,0,0,0,1,1,f,blue,5b71c56d457b53000118dec7,2021-09-27_17h19.25.876,forced_choiceRT_color,2021.2.3,Win32,60.0276127,,,,,,,,,,,,,,,,,,,,,,,
0,f,1,0.5942,0,1,1,1,1,f,blue,5b71c56d457b53000118dec7,2021-09-27_17h19.25.876,forced_choiceRT_color,2021.2.3,Win32,60.0276127,,,,,,,,,,,,,,,,,,,,,,,
0,k,1,0.7138,0,2,2,3,1,k,purple,5b71c56d457b53000118dec7,2021-09-27_17h19.25.876,forced_choiceRT_color,2021.2.3,Win32,60.0276127,,,,,,,,,,,,,,,,,,,,,,,
0,k,1,0.5703,0,3,3,3,1,k,purple,5b71c56d457b53000118dec7,2021-09-27_17h19.25.876,forced_choiceRT_color,2021.2.3,Win32,60.0276127,,,,,,,,,,,,,,,,,,,,,,,
0,k,1,0.4176,1,0,4,3,1,k,purple,5b71c56d457b53000118dec7,2021-09-27_17h19.25.876,forced_choiceRT_color,2021.2.3,Win32,60.0276127,,,,,,,,,,,,,,,,,,,,,,,
0,k,1,0.3905,1,1,5,3,1,k,purple,5b71c56d457b53000118dec7,2021-09-27_17h19.25.876,forced_choiceRT_color,2021.2.3,Win32,60.0276127,,,,,,,,,,,,,,,,,,,,,,,
0,f,1,0.7814,1,2,6,1,1,f,blue,5b71c56d457b53000118dec7,2021-09-27_17h19.25.876,forced_choiceRT_color,2021.2.3,Win32,60.0276127,,,,,,,,,,,,,,,,,,,,,,,
0,k,1,0.6039,1,3,7,3,1,k,purple,5b71c56d457b53000118dec7,2021-09-27_17h19.25.876,forced_choiceRT_color,2021.2.3,Win32,60.0276127,,,,,,,,,,,,,,,,,,,,,,,
0,k,1,0.5756,2,0,8,3,1,k,purple,5b71c56d457b53000118dec7,2021-09-27_17h19.25.876,forced_choiceRT_color,2021.2.3,Win32,60.0276127,,,,,,,,,,,,,,,,,,,,,,,
0,d,1,0.671,2,1,9,0,1,d,orange,5b71c56d457b53000118dec7,2021-09-27_17h19.25.876,forced_choiceRT_color,2021.2.3,Win32,60.0276127,,,,,,,,,,,,,,,,,,,,,,,
0,f,1,0.643,2,2,10,1,1,f,blue,5b71c56d457b53000118dec7,2021-09-27_17h19.25.876,forced_choiceRT_color,2021.2.3,Win32,60.0276127,,,,,,,,,,,,,,,,,,,,,,,
0,d,1,0.5917,2,3,11,0,1,d,orange,5b71c56d457b53000118dec7,2021-09-27_17h19.25.876,forced_choiceRT_color,2021.2.3,Win32,60.0276127,,,,,,,,,,,,,,,,,,,,,,,
0,f,1,0.6311,3,0,12,1,1,f,blue,5b71c56d457b53000118dec7,2021-09-27_17h19.25.876,forced_choiceRT_color,2021.2.3,Win32,60.0276127,,,,,,,,,,,,,,,,,,,,,,,
0,d,1,0.59,3,1,13,0,1,d,orange,5b71c56d457b53000118dec7,2021-09-27_17h19.25.876,forced_choiceRT_color,2021.2.3,Win32,60.0276127,,,,,,,,,,,,,,,,,,,,,,,
0,k,1,0.6925,3,2,14,3,1,k,purple,5b71c56d457b53000118dec7,2021-09-27_17h19.25.876,forced_choiceRT_color,2021.2.3,Win32,60.0276127,,,,,,,,,,,,,,,,,,,,,,,
0,d,1,0.5091,3,3,15,0,1,d,orange,5b71c56d457b53000118dec7,2021-09-27_17h19.25.876,forced_choiceRT_color,2021.2.3,Win32,60.0276127,,,,,,,,,,,,,,,,,,,,,,,
0,k,1,0.6108,4,0,16,3,1,k,purple,5b71c56d457b53000118dec7,2021-09-27_17h19.25.876,forced_choiceRT_color,2021.2.3,Win32,60.0276127,,,,,,,,,,,,,,,,,,,,,,,
0,k,1,0.5837,4,1,17,3,1,k,purple,5b71c56d457b53000118dec7,2021-09-27_17h19.25.876,forced_choiceRT_color,2021.2.3,Win32,60.0276127,,,,,,,,,,,,,,,,,,,,,,,
0,j,1,0.6066,4,2,18,2,1,j,red,5b71c56d457b53000118dec7,2021-09-27_17h19.25.876,forced_choiceRT_color,2021.2.3,Win32,60.0276127,,,,,,,,,,,,,,,,,,,,,,,
0,d,1,0.5726,4,3,19,0,1,d,orange,5b71c56d457b53000118dec7,2021-09-27_17h19.25.876,forced_choiceRT_color,2021.2.3,Win32,60.0276127,,,,,,,,,,,,,,,,,,,,,,,
0,f,1,0.5699,5,0,20,1,1,f,blue,5b71c56d457b53000118dec7,2021-09-27_17h19.25.876,forced_choiceRT_color,2021.2.3,Win32,60.0276127,,,,,,,,,,,,,,,,,,,,,,,
0,d,1,0.567,5,1,21,0,1,d,orange,5b71c56d457b53000118dec7,2021-09-27_17h19.25.876,forced_choiceRT_color,2021.2.3,Win32,60.0276127,,,,,,,,,,,,,,,,,,,,,,,
0,d,1,0.4168,5,2,22,0,1,d,orange,5b71c56d457b53000118dec7,2021-09-27_17h19.25.876,forced_choiceRT_color,2021.2.3,Win32,60.0276127,,,,,,,,,,,,,,,,,,,,,,,
0,j,1,0.6137,5,3,23,2,1,j,red,5b71c56d457b53000118dec7,2021-09-27_17h19.25.876,forced_choiceRT_color,2021.2.3,Win32,60.0276127,,,,,,,,,,,,,,,,,,,,,,,
0,d,1,0.5426,6,0,24,0,1,d,orange,5b71c56d457b53000118dec7,2021-09-27_17h19.25.876,forced_choiceRT_color,2021.2.3,Win32,60.0276127,,,,,,,,,,,,,,,,,,,,,,,
0,k,1,0.6006,6,1,25,3,1,k,purple,5b71c56d457b53000118dec7,2021-09-27_17h19.25.876,forced_choiceRT_color,2021.2.3,Win32,60.0276127,,,,,,,,,,,,,,,,,,,,,,,
0,k,1,0.5284,6,2,26,3,1,k,purple,5b71c56d457b53000118dec7,2021-09-27_17h19.25.876,forced_choiceRT_color,2021.2.3,Win32,60.0276127,,,,,,,,,,,,,,,,,,,,,,,
0,j,1,0.6216,6,3,27,2,1,j,red,5b71c56d457b53000118dec7,2021-09-27_17h19.25.876,forced_choiceRT_color,2021.2.3,Win32,60.0276127,,,,,,,,,,,,,,,,,,,,,,,
0,f,1,0.6521,7,0,28,1,1,f,blue,5b71c56d457b53000118dec7,2021-09-27_17h19.25.876,forced_choiceRT_color,2021.2.3,Win32,60.0276127,,,,,,,,,,,,,,,,,,,,,,,
0,j,1,0.7932,7,1,29,2,1,j,red,5b71c56d457b53000118dec7,2021-09-27_17h19.25.876,forced_choiceRT_color,2021.2.3,Win32,60.0276127,,,,,,,,,,,,,,,,,,,,,,,
0,d,1,0.5412,7,2,30,0,1,d,orange,5b71c56d457b53000118dec7,2021-09-27_17h19.25.876,forced_choiceRT_color,2021.2.3,Win32,60.0276127,,,,,,,,,,,,,,,,,,,,,,,
0,j,1,0.6354,7,3,31,2,1,j,red,5b71c56d457b53000118dec7,2021-09-27_17h19.25.876,forced_choiceRT_color,2021.2.3,Win32,60.0276127,,,,,,,,,,,,,,,,,,,,,,,
0,f,1,0.6507,8,0,32,1,1,f,blue,5b71c56d457b53000118dec7,2021-09-27_17h19.25.876,forced_choiceRT_color,2021.2.3,Win32,60.0276127,,,,,,,,,,,,,,,,,,,,,,,
0,j,1,0.6779,8,1,33,2,1,j,red,5b71c56d457b53000118dec7,2021-09-27_17h19.25.876,forced_choiceRT_color,2021.2.3,Win32,60.0276127,,,,,,,,,,,,,,,,,,,,,,,
0,k,1,0.5437,8,2,34,3,1,k,purple,5b71c56d457b53000118dec7,2021-09-27_17h19.25.876,forced_choiceRT_color,2021.2.3,Win32,60.0276127,,,,,,,,,,,,,,,,,,,,,,,
0,j,1,0.6398,8,3,35,2,1,j,red,5b71c56d457b53000118dec7,2021-09-27_17h19.25.876,forced_choiceRT_color,2021.2.3,Win32,60.0276127,,,,,,,,,,,,,,,,,,,,,,,
0,f,1,0.6769,9,0,36,1,1,f,blue,5b71c56d457b53000118dec7,2021-09-27_17h19.25.876,forced_choiceRT_color,2021.2.3,Win32,60.0276127,,,,,,,,,,,,,,,,,,,,,,,
0,f,1,0.6275,9,1,37,1,1,f,blue,5b71c56d457b53000118dec7,2021-09-27_17h19.25.876,forced_choiceRT_color,2021.2.3,Win32,60.0276127,,,,,,,,,,,,,,,,,,,,,,,
0,j,1,0.6244,9,2,38,2,1,j,red,5b71c56d457b53000118dec7,2021-09-27_17h19.25.876,forced_choiceRT_color,2021.2.3,Win32,60.0276127,,,,,,,,,,,,,,,,,,,,,,,
0,j,1,0.4207,9,3,39,2,1,j,red,5b71c56d457b53000118dec7,2021-09-27_17h19.25.876,forced_choiceRT_color,2021.2.3,Win32,60.0276127,,,,,,,,,,,,,,,,,,,,,,,
0,k,1,0.5335,10,0,40,3,1,k,purple,5b71c56d457b53000118dec7,2021-09-27_17h19.25.876,forced_choiceRT_color,2021.2.3,Win32,60.0276127,,,,,,,,,,,,,,,,,,,,,,,
0,f,1,0.5721,10,1,41,1,1,f,blue,5b71c56d457b53000118dec7,2021-09-27_17h19.25.876,forced_choiceRT_color,2021.2.3,Win32,60.0276127,,,,,,,,,,,,,,,,,,,,,,,
0,f,1,0.4329,10,2,42,1,1,f,blue,5b71c56d457b53000118dec7,2021-09-27_17h19.25.876,forced_choiceRT_color,2021.2.3,Win32,60.0276127,,,,,,,,,,,,,,,,,,,,,,,
0,f,1,0.5672,10,3,43,1,1,f,blue,5b71c56d457b53000118dec7,2021-09-27_17h19.25.876,forced_choiceRT_color,2021.2.3,Win32,60.0276127,,,,,,,,,,,,,,,,,,,,,,,
0,k,1,0.5422,11,0,44,3,1,k,purple,5b71c56d457b53000118dec7,2021-09-27_17h19.25.876,forced_choiceRT_color,2021.2.3,Win32,60.0276127,,,,,,,,,,,,,,,,,,,,,,,
0,k,1,0.4682,11,1,45,3,1,k,purple,5b71c56d457b53000118dec7,2021-09-27_17h19.25.876,forced_choiceRT_color,2021.2.3,Win32,60.0276127,,,,,,,,,,,,,,,,,,,,,,,
0,j,1,0.6438,11,2,46,2,1,j,red,5b71c56d457b53000118dec7,2021-09-27_17h19.25.876,forced_choiceRT_color,2021.2.3,Win32,60.0276127,,,,,,,,,,,,,,,,,,,,,,,
0,j,1,0.4821,11,3,47,2,1,j,red,5b71c56d457b53000118dec7,2021-09-27_17h19.25.876,forced_choiceRT_color,2021.2.3,Win32,60.0276127,,,,,,,,,,,,,,,,,,,,,,,
0,j,1,0.5266,12,0,48,2,1,j,red,5b71c56d457b53000118dec7,2021-09-27_17h19.25.876,forced_choiceRT_color,2021.2.3,Win32,60.0276127,,,,,,,,,,,,,,,,,,,,,,,
0,d,1,0.6376,12,1,49,0,1,d,orange,5b71c56d457b53000118dec7,2021-09-27_17h19.25.876,forced_choiceRT_color,2021.2.3,Win32,60.0276127,,,,,,,,,,,,,,,,,,,,,,,
0,d,1,0.4061,12,2,50,0,1,d,orange,5b71c56d457b53000118dec7,2021-09-27_17h19.25.876,forced_choiceRT_color,2021.2.3,Win32,60.0276127,,,,,,,,,,,,,,,,,,,,,,,
0,j,1,0.5937,12,3,51,2,1,j,red,5b71c56d457b53000118dec7,2021-09-27_17h19.25.876,forced_choiceRT_color,2021.2.3,Win32,60.0276127,,,,,,,,,,,,,,,,,,,,,,,
0,d,1,0.6432,13,0,52,0,1,d,orange,5b71c56d457b53000118dec7,2021-09-27_17h19.25.876,forced_choiceRT_color,2021.2.3,Win32,60.0276127,,,,,,,,,,,,,,,,,,,,,,,
0,f,1,0.479,13,1,53,1,1,f,blue,5b71c56d457b53000118dec7,2021-09-27_17h19.25.876,forced_choiceRT_color,2021.2.3,Win32,60.0276127,,,,,,,,,,,,,,,,,,,,,,,
0,f,1,0.4527,13,2,54,1,1,f,blue,5b71c56d457b53000118dec7,2021-09-27_17h19.25.876,forced_choiceRT_color,2021.2.3,Win32,60.0276127,,,,,,,,,,,,,,,,,,,,,,,
0,d,1,0.6547,13,3,55,0,1,d,orange,5b71c56d457b53000118dec7,2021-09-27_17h19.25.876,forced_choiceRT_color,2021.2.3,Win32,60.0276127,,,,,,,,,,,,,,,,,,,,,,,
0,d,1,0.4686,14,0,56,0,1,d,orange,5b71c56d457b53000118dec7,2021-09-27_17h19.25.876,forced_choiceRT_color,2021.2.3,Win32,60.0276127,,,,,,,,,,,,,,,,,,,,,,,
0,j,1,0.7086,14,1,57,2,1,j,red,5b71c56d457b53000118dec7,2021-09-27_17h19.25.876,forced_choiceRT_color,2021.2.3,Win32,60.0276127,,,,,,,,,,,,,,,,,,,,,,,
0,d,1,0.5317,14,2,58,0,1,d,orange,5b71c56d457b53000118dec7,2021-09-27_17h19.25.876,forced_choiceRT_color,2021.2.3,Win32,60.0276127,,,,,,,,,,,,,,,,,,,,,,,
0,j,1,0.5123,14,3,59,2,1,j,red,5b71c56d457b53000118dec7,2021-09-27_17h19.25.876,forced_choiceRT_color,2021.2.3,Win32,60.0276127,,,,,,,,,,,,,,,,,,,,,,,
,,,,,,,,,,,5b71c56d457b53000118dec7,2021-09-27_17h19.25.876,forced_choiceRT_color,2021.2.3,Win32,60.0276127,d,2.2923,0,0,0,0,1,,,,,,,,,,,,,,,,
,,,,,,,,,,,5b71c56d457b53000118dec7,2021-09-27_17h19.25.876,forced_choiceRT_color,2021.2.3,Win32,60.0276127,f,1.7411,1,0,1,0,1,,,,,,,,,,,,,,,,
,,,,,,,,,,,5b71c56d457b53000118dec7,2021-09-27_17h19.25.876,forced_choiceRT_color,2021.2.3,Win32,60.0276127,j,2.0563,2,0,2,0,1,,,,,,,,,,,,,,,,
,,,,,,,,,,,5b71c56d457b53000118dec7,2021-09-27_17h19.25.876,forced_choiceRT_color,2021.2.3,Win32,60.0276127,k,2.2048,3,0,3,0,1,,,,,,,,,,,,,,,,
,,,,,,,,,,,5b71c56d457b53000118dec7,2021-09-27_17h19.25.876,forced_choiceRT_color,2021.2.3,Win32,60.0276127,d,1.8009,4,0,4,0,1,,,,,,,,,,,,,,,,
,,,,,,,,,,,5b71c56d457b53000118dec7,2021-09-27_17h19.25.876,forced_choiceRT_color,2021.2.3,Win32,60.0276127,f,2.1287,5,0,5,0,1,,,,,,,,,,,,,,,,
,,,,,,,,,,,5b71c56d457b53000118dec7,2021-09-27_17h19.25.876,forced_choiceRT_color,2021.2.3,Win32,60.0276127,j,2.0337,6,0,6,0,1,,,,,,,,,,,,,,,,
,,,,,,,,,,,5b71c56d457b53000118dec7,2021-09-27_17h19.25.876,forced_choiceRT_color,2021.2.3,Win32,60.0276127,d,2.1091,7,0,7,0,1,,,,,,,,,,,,,,,,
,,,,,,,,,,,5b71c56d457b53000118dec7,2021-09-27_17h19.25.876,forced_choiceRT_color,2021.2.3,Win32,60.0276127,f,2.0944,8,0,8,0,1,,,,,,,,,,,,,,,,
,,,,,,,,,,,5b71c56d457b53000118dec7,2021-09-27_17h19.25.876,forced_choiceRT_color,2021.2.3,Win32,60.0276127,j,2.1109,9,0,9,0,1,,,,,,,,,,,,,,,,
,,,,,,,,,,,5b71c56d457b53000118dec7,2021-09-27_17h19.25.876,forced_choiceRT_color,2021.2.3,Win32,60.0276127,d,2.0698,10,0,10,0,1,,,,,,,,,,,,,,,,
,,,,,,,,,,,5b71c56d457b53000118dec7,2021-09-27_17h19.25.876,forced_choiceRT_color,2021.2.3,Win32,60.0276127,k,2.1074,11,0,11,0,1,,,,,,,,,,,,,,,,
,,,,,,,,,,,5b71c56d457b53000118dec7,2021-09-27_17h19.25.876,forced_choiceRT_color,2021.2.3,Win32,60.0276127,f,2.1257,12,0,12,0,1,,,,,,,,,,,,,,,,
,,,,,,,,,,,5b71c56d457b53000118dec7,2021-09-27_17h19.25.876,forced_choiceRT_color,2021.2.3,Win32,60.0276127,j,2.0319,13,0,13,0,1,,,,,,,,,,,,,,,,
,,,,,,,,,,,5b71c56d457b53000118dec7,2021-09-27_17h19.25.876,forced_choiceRT_color,2021.2.3,Win32,60.0276127,d,2.0081,14,0,14,0,1,,,,,,,,,,,,,,,,
,,,,,,,,,,,5b71c56d457b53000118dec7,2021-09-27_17h19.25.876,forced_choiceRT_color,2021.2.3,Win32,60.0276127,f,1.9635,15,0,15,0,1,,,,,,,,,,,,,,,,
,,,,,,,,,,,5b71c56d457b53000118dec7,2021-09-27_17h19.25.876,forced_choiceRT_color,2021.2.3,Win32,60.0276127,j,2.0025,16,0,16,0,1,,,,,,,,,,,,,,,,
,,,,,,,,,,,5b71c56d457b53000118dec7,2021-09-27_17h19.25.876,forced_choiceRT_color,2021.2.3,Win32,60.0276127,k,2.0672,17,0,17,0,1,,,,,,,,,,,,,,,,
,,,,,,,,,,,5b71c56d457b53000118dec7,2021-09-27_17h19.25.876,forced_choiceRT_color,2021.2.3,Win32,60.0276127,d,1.9766,18,0,18,0,1,,,,,,,,,,,,,,,,
,,,,,,,,,,,5b71c56d457b53000118dec7,2021-09-27_17h19.25.876,forced_choiceRT_color,2021.2.3,Win32,60.0276127,f,1.9923,19,0,19,0,1,,,,,,,,,,,,,,,,
1.68,,,,,,,,,k,purple,5b71c56d457b53000118dec7,2021-09-27_17h19.25.876,forced_choiceRT_color,2021.2.3,Win32,60.0276127,,,,,,,,1,Ontime,short,d,0,2.0035,0,0,0,3,1,,,,,
0.07,,,,,,,,,k,purple,5b71c56d457b53000118dec7,2021-09-27_17h19.25.876,forced_choiceRT_color,2021.2.3,Win32,60.0276127,,,,,,,,1,Fast,short,k,1,1.7824,0,1,1,3,1,,,,,
0.59,,,,,,,,,d,orange,5b71c56d457b53000118dec7,2021-09-27_17h19.25.876,forced_choiceRT_color,2021.2.3,Win32,60.0276127,,,,,,,,1,Ontime,short,d,1,1.9376,0,2,2,0,1,,,,,
1.16,,,,,,,,,j,red,5b71c56d457b53000118dec7,2021-09-27_17h19.25.876,forced_choiceRT_color,2021.2.3,Win32,60.0276127,,,,,,,,1,Ontime,short,j,1,2.0284,0,3,3,2,1,,,,,
0.91,,,,,,,,,f,blue,5b71c56d457b53000118dec7,2021-09-27_17h19.25.876,forced_choiceRT_color,2021.2.3,Win32,60.0276127,,,,,,,,1,Fast,short,f,1,1.8722,1,0,4,1,1,,,,,
1.35,,,,,,,,,d,orange,5b71c56d457b53000118dec7,2021-09-27_17h19.25.876,forced_choiceRT_color,2021.2.3,Win32,60.0276127,,,,,,,,1,Fast,short,d,1,1.8546,1,1,5,0,1,,,,,
0.55,,,,,,,,,f,blue,5b71c56d457b53000118dec7,2021-09-27_17h19.25.876,forced_choiceRT_color,2021.2.3,Win32,60.0276127,,,,,,,,1,Ontime,short,f,1,1.986,1,2,6,1,1,,,,,
1.31,,,,,,,,,k,purple,5b71c56d457b53000118dec7,2021-09-27_17h19.25.876,forced_choiceRT_color,2021.2.3,Win32,60.0276127,,,,,,,,1,Ontime,short,k,1,2.018,1,3,7,3,1,,,,,
1.42,,,,,,,,,k,purple,5b71c56d457b53000118dec7,2021-09-27_17h19.25.876,forced_choiceRT_color,2021.2.3,Win32,60.0276127,,,,,,,,1,Ontime,short,k,1,2.0939,2,0,8,3,1,,,,,
1.73,,,,,,,,,j,red,5b71c56d457b53000118dec7,2021-09-27_17h19.25.876,forced_choiceRT_color,2021.2.3,Win32,60.0276127,,,,,,,,1,Slow,short,j,1,2.1294,2,1,9,2,1,,,,,
0.31,,,,,,,,,d,orange,5b71c56d457b53000118dec7,2021-09-27_17h19.25.876,forced_choiceRT_color,2021.2.3,Win32,60.0276127,,,,,,,,1,Fast,short,d,1,1.8165,2,2,10,0,1,,,,,
0.66,,,,,,,,,d,orange,5b71c56d457b53000118dec7,2021-09-27_17h19.25.876,forced_choiceRT_color,2021.2.3,Win32,60.0276127,,,,,,,,1,Ontime,short,d,1,1.9185,2,3,11,0,1,,,,,
1.03,,,,,,,,,j,red,5b71c56d457b53000118dec7,2021-09-27_17h19.25.876,forced_choiceRT_color,2021.2.3,Win32,60.0276127,,,,,,,,1,Fast,short,j,1,1.7754,3,0,12,2,1,,,,,
0.57,,,,,,,,,k,purple,5b71c56d457b53000118dec7,2021-09-27_17h19.25.876,forced_choiceRT_color,2021.2.3,Win32,60.0276127,,,,,,,,1,Ontime,short,k,1,1.9763,3,1,13,3,1,,,,,
0.93,,,,,,,,,d,orange,5b71c56d457b53000118dec7,2021-09-27_17h19.25.876,forced_choiceRT_color,2021.2.3,Win32,60.0276127,,,,,,,,1,Ontime,short,d,1,2.0259,3,2,14,0,1,,,,,
1.69,,,,,,,,,d,orange,5b71c56d457b53000118dec7,2021-09-27_17h19.25.876,forced_choiceRT_color,2021.2.3,Win32,60.0276127,,,,,,,,1,Ontime,short,f,0,2.0695,3,3,15,0,1,,,,,
0.64,,,,,,,,,j,red,5b71c56d457b53000118dec7,2021-09-27_17h19.25.876,forced_choiceRT_color,2021.2.3,Win32,60.0276127,,,,,,,,1,Fast,short,j,1,1.7574,4,0,16,2,1,,,,,
0.52,,,,,,,,,j,red,5b71c56d457b53000118dec7,2021-09-27_17h19.25.876,forced_choiceRT_color,2021.2.3,Win32,60.0276127,,,,,,,,1,Ontime,short,j,1,1.9776,4,1,17,2,1,,,,,
1.45,,,,,,,,,f,blue,5b71c56d457b53000118dec7,2021-09-27_17h19.25.876,forced_choiceRT_color,2021.2.3,Win32,60.0276127,,,,,,,,1,Ontime,short,f,1,2.0789,4,2,18,1,1,,,,,
0.11,,,,,,,,,k,purple,5b71c56d457b53000118dec7,2021-09-27_17h19.25.876,forced_choiceRT_color,2021.2.3,Win32,60.0276127,,,,,,,,1,Ontime,short,k,1,1.9306,4,3,19,3,1,,,,,
0.14,,,,,,,,,j,red,5b71c56d457b53000118dec7,2021-09-27_17h19.25.876,forced_choiceRT_color,2021.2.3,Win32,60.0276127,,,,,,,,1,Fast,short,j,1,1.8492,5,0,20,2,1,,,,,
1.92,,,,,,,,,j,red,5b71c56d457b53000118dec7,2021-09-27_17h19.25.876,forced_choiceRT_color,2021.2.3,Win32,60.0276127,,,,,,,,1,Slow,short,j,1,2.3319,5,1,21,2,1,,,,,
0.71,,,,,,,,,d,orange,5b71c56d457b53000118dec7,2021-09-27_17h19.25.876,forced_choiceRT_color,2021.2.3,Win32,60.0276127,,,,,,,,1,Ontime,short,d,1,1.9946,5,2,22,0,1,,,,,
0.63,,,,,,,,,j,red,5b71c56d457b53000118dec7,2021-09-27_17h19.25.876,forced_choiceRT_color,2021.2.3,Win32,60.0276127,,,,,,,,1,Ontime,short,j,1,2.0051,5,3,23,2,1,,,,,
0.09,,,,,,,,,f,blue,5b71c56d457b53000118dec7,2021-09-27_17h19.25.876,forced_choiceRT_color,2021.2.3,Win32,60.0276127,,,,,,,,1,Ontime,short,f,1,1.9549,6,0,24,1,1,,,,,
1.77,,,,,,,,,k,purple,5b71c56d457b53000118dec7,2021-09-27_17h19.25.876,forced_choiceRT_color,2021.2.3,Win32,60.0276127,,,,,,,,1,Slow,short,k,1,2.1155,6,1,25,3,1,,,,,
1.94,,,,,,,,,k,purple,5b71c56d457b53000118dec7,2021-09-27_17h19.25.876,forced_choiceRT_color,2021.2.3,Win32,60.0276127,,,,,,,,1,Slow,short,k,1,2.2697,6,2,26,3,1,,,,,
0.12,,,,,,,,,j,red,5b71c56d457b53000118dec7,2021-09-27_17h19.25.876,forced_choiceRT_color,2021.2.3,Win32,60.0276127,,,,,,,,1,Ontime,short,j,1,1.9196,6,3,27,2,1,,,,,
1.69,,,,,,,,,f,blue,5b71c56d457b53000118dec7,2021-09-27_17h19.25.876,forced_choiceRT_color,2021.2.3,Win32,60.0276127,,,,,,,,1,Ontime,short,k,0,2.0262,7,0,28,1,1,,,,,
1.19,,,,,,,,,k,purple,5b71c56d457b53000118dec7,2021-09-27_17h19.25.876,forced_choiceRT_color,2021.2.3,Win32,60.0276127,,,,,,,,1,Ontime,short,k,1,2.0332,7,1,29,3,1,,,,,
1.57,,,,,,,,,d,orange,5b71c56d457b53000118dec7,2021-09-27_17h19.25.876,forced_choiceRT_color,2021.2.3,Win32,60.0276127,,,,,,,,1,Slow,short,d,1,2.1267,7,2,30,0,1,,,,,
1.12,,,,,,,,,f,blue,5b71c56d457b53000118dec7,2021-09-27_17h19.25.876,forced_choiceRT_color,2021.2.3,Win32,60.0276127,,,,,,,,1,Fast,short,f,1,1.684,7,3,31,1,1,,,,,
0.74,,,,,,,,,d,orange,5b71c56d457b53000118dec7,2021-09-27_17h19.25.876,forced_choiceRT_color,2021.2.3,Win32,60.0276127,,,,,,,,1,Ontime,short,d,1,2,8,0,32,0,1,,,,,
1.16,,,,,,,,,f,blue,5b71c56d457b53000118dec7,2021-09-27_17h19.25.876,forced_choiceRT_color,2021.2.3,Win32,60.0276127,,,,,,,,1,Ontime,short,f,1,1.9356,8,1,33,1,1,,,,,
1.26,,,,,,,,,f,blue,5b71c56d457b53000118dec7,2021-09-27_17h19.25.876,forced_choiceRT_color,2021.2.3,Win32,60.0276127,,,,,,,,1,Fast,short,f,1,1.749,8,2,34,1,1,,,,,
1.84,,,,,,,,,j,red,5b71c56d457b53000118dec7,2021-09-27_17h19.25.876,forced_choiceRT_color,2021.2.3,Win32,60.0276127,,,,,,,,1,Slow,short,j,1,2.2181,8,3,35,2,1,,,,,
1.59,,,,,,,,,f,blue,5b71c56d457b53000118dec7,2021-09-27_17h19.25.876,forced_choiceRT_color,2021.2.3,Win32,60.0276127,,,,,,,,1,Ontime,short,j,0,2.0881,9,0,36,1,1,,,,,
1.99,,,,,,,,,k,purple,5b71c56d457b53000118dec7,2021-09-27_17h19.25.876,forced_choiceRT_color,2021.2.3,Win32,60.0276127,,,,,,,,1,Fast,short,f,0,0.0628,9,1,37,3,1,,,,,
1.76,,,,,,,,,f,blue,5b71c56d457b53000118dec7,2021-09-27_17h19.25.876,forced_choiceRT_color,2021.2.3,Win32,60.0276127,,,,,,,,1,Slow,short,f,1,2.1816,9,2,38,1,1,,,,,
0.28,,,,,,,,,d,orange,5b71c56d457b53000118dec7,2021-09-27_17h19.25.876,forced_choiceRT_color,2021.2.3,Win32,60.0276127,,,,,,,,1,Ontime,short,d,1,1.9934,9,3,39,0,1,,,,,
,,,,,,,,,,,5b71c56d457b53000118dec7,2021-09-27_17h19.25.876,forced_choiceRT_color,2021.2.3,Win32,60.0276127,,,,,,,,,,,,,,,,,,,0,0,0,0,1
1.17,,,,,,,,,k,purple,5b71c56d457b53000118dec7,2021-09-27_17h19.25.876,forced_choiceRT_color,2021.2.3,Win32,60.0276127,,,,,,,,2,Fast,short,k,1,1.8418,0,0,0,3,1,,,,,
0.93,,,,,,,,,k,purple,5b71c56d457b53000118dec7,2021-09-27_17h19.25.876,forced_choiceRT_color,2021.2.3,Win32,60.0276127,,,,,,,,2,Slow,short,k,1,2.1544,0,1,1,3,1,,,,,
1.15,,,,,,,,,j,red,5b71c56d457b53000118dec7,2021-09-27_17h19.25.876,forced_choiceRT_color,2021.2.3,Win32,60.0276127,,,,,,,,2,Ontime,short,j,1,2.0127,0,2,2,2,1,,,,,
1.85,,,,,,,,,k,purple,5b71c56d457b53000118dec7,2021-09-27_17h19.25.876,forced_choiceRT_color,2021.2.3,Win32,60.0276127,,,,,,,,2,Slow,short,j,0,2.3475,0,3,3,3,1,,,,,
0.21,,,,,,,,,j,red,5b71c56d457b53000118dec7,2021-09-27_17h19.25.876,forced_choiceRT_color,2021.2.3,Win32,60.0276127,,,,,,,,2,Ontime,short,j,1,1.9564,1,0,4,2,1,,,,,
1.08,,,,,,,,,f,blue,5b71c56d457b53000118dec7,2021-09-27_17h19.25.876,forced_choiceRT_color,2021.2.3,Win32,60.0276127,,,,,,,,2,Ontime,short,f,1,2.0299,1,1,5,1,1,,,,,
0.1,,,,,,,,,f,blue,5b71c56d457b53000118dec7,2021-09-27_17h19.25.876,forced_choiceRT_color,2021.2.3,Win32,60.0276127,,,,,,,,2,Ontime,short,f,1,1.9236,1,2,6,1,1,,,,,
1.82,,,,,,,,,f,blue,5b71c56d457b53000118dec7,2021-09-27_17h19.25.876,forced_choiceRT_color,2021.2.3,Win32,60.0276127,,,,,,,,2,Slow,short,k,0,2.2655,1,3,7,1,1,,,,,
0.79,,,,,,,,,k,purple,5b71c56d457b53000118dec7,2021-09-27_17h19.25.876,forced_choiceRT_color,2021.2.3,Win32,60.0276127,,,,,,,,2,Slow,short,k,1,2.1356,2,0,8,3,1,,,,,
1.86,,,,,,,,,f,blue,5b71c56d457b53000118dec7,2021-09-27_17h19.25.876,forced_choiceRT_color,2021.2.3,Win32,60.0276127,,,,,,,,2,Slow,short,f,1,2.4113,2,1,9,1,1,,,,,
0,,,,,,,,,d,orange,5b71c56d457b53000118dec7,2021-09-27_17h19.25.876,forced_choiceRT_color,2021.2.3,Win32,60.0276127,,,,,,,,2,Slow,short,d,1,2.1538,2,2,10,0,1,,,,,
0.06,,,,,,,,,d,orange,5b71c56d457b53000118dec7,2021-09-27_17h19.25.876,forced_choiceRT_color,2021.2.3,Win32,60.0276127,,,,,,,,2,Ontime,short,d,1,1.9274,2,3,11,0,1,,,,,
1.16,,,,,,,,,k,purple,5b71c56d457b53000118dec7,2021-09-27_17h19.25.876,forced_choiceRT_color,2021.2.3,Win32,60.0276127,,,,,,,,2,Ontime,short,k,1,1.9307,3,0,12,3,1,,,,,
0.95,,,,,,,,,f,blue,5b71c56d457b53000118dec7,2021-09-27_17h19.25.876,forced_choiceRT_color,2021.2.3,Win32,60.0276127,,,,,,,,2,Fast,short,f,1,1.8537,3,1,13,1,1,,,,,
1.12,,,,,,,,,j,red,5b71c56d457b53000118dec7,2021-09-27_17h19.25.876,forced_choiceRT_color,2021.2.3,Win32,60.0276127,,,,,,,,2,Ontime,short,j,1,1.9469,3,2,14,2,1,,,,,
1.77,,,,,,,,,j,red,5b71c56d457b53000118dec7,2021-09-27_17h19.25.876,forced_choiceRT_color,2021.2.3,Win32,60.0276127,,,,,,,,2,Slow,short,j,1,2.1807,3,3,15,2,1,,,,,
1.11,,,,,,,,,d,orange,5b71c56d457b53000118dec7,2021-09-27_17h19.25.876,forced_choiceRT_color,2021.2.3,Win32,60.0276127,,,,,,,,2,Slow,short,d,1,2.1464,4,0,16,0,1,,,,,
0.85,,,,,,,,,f,blue,5b71c56d457b53000118dec7,2021-09-27_17h19.25.876,forced_choiceRT_color,2021.2.3,Win32,60.0276127,,,,,,,,2,Ontime,short,f,1,2.0365,4,1,17,1,1,,,,,
1.94,,,,,,,,,k,purple,5b71c56d457b53000118dec7,2021-09-27_17h19.25.876,forced_choiceRT_color,2021.2.3,Win32,60.0276127,,,,,,,,2,Slow,short,k,1,2.3167,4,2,18,3,1,,,,,
0.74,,,,,,,,,f,blue,5b71c56d457b53000118dec7,2021-09-27_17h19.25.876,forced_choiceRT_color,2021.2.3,Win32,60.0276127,,,,,,,,2,Ontime,short,f,1,1.9478,4,3,19,1,1,,,,,
1.09,,,,,,,,,d,orange,5b71c56d457b53000118dec7,2021-09-27_17h19.25.876,forced_choiceRT_color,2021.2.3,Win32,60.0276127,,,,,,,,2,Fast,short,d,1,1.674,5,0,20,0,1,,,,,
0.04,,,,,,,,,f,blue,5b71c56d457b53000118dec7,2021-09-27_17h19.25.876,forced_choiceRT_color,2021.2.3,Win32,60.0276127,,,,,,,,2,Fast,short,f,1,1.8894,5,1,21,1,1,,,,,
1.48,,,,,,,,,j,red,5b71c56d457b53000118dec7,2021-09-27_17h19.25.876,forced_choiceRT_color,2021.2.3,Win32,60.0276127,,,,,,,,2,Ontime,short,j,1,1.979,5,2,22,2,1,,,,,
0.47,,,,,,,,,j,red,5b71c56d457b53000118dec7,2021-09-27_17h19.25.876,forced_choiceRT_color,2021.2.3,Win32,60.0276127,,,,,,,,2,Ontime,short,j,1,1.9206,5,3,23,2,1,,,,,
1.7,,,,,,,,,d,orange,5b71c56d457b53000118dec7,2021-09-27_17h19.25.876,forced_choiceRT_color,2021.2.3,Win32,60.0276127,,,,,,,,2,Ontime,short,j,0,2.061,6,0,24,0,1,,,,,
0.47,,,,,,,,,f,blue,5b71c56d457b53000118dec7,2021-09-27_17h19.25.876,forced_choiceRT_color,2021.2.3,Win32,60.0276127,,,,,,,,2,Ontime,short,f,1,1.9375,6,1,25,1,1,,,,,
1.02,,,,,,,,,d,orange,5b71c56d457b53000118dec7,2021-09-27_17h19.25.876,forced_choiceRT_color,2021.2.3,Win32,60.0276127,,,,,,,,2,Fast,short,d,1,1.7062,6,2,26,0,1,,,,,
1.79,,,,,,,,,k,purple,5b71c56d457b53000118dec7,2021-09-27_17h19.25.876,forced_choiceRT_color,2021.2.3,Win32,60.0276127,,,,,,,,2,Slow,short,k,1,2.2186,6,3,27,3,1,,,,,
1.88,,,,,,,,,d,orange,5b71c56d457b53000118dec7,2021-09-27_17h19.25.876,forced_choiceRT_color,2021.2.3,Win32,60.0276127,,,,,,,,2,Slow,short,k,0,2.3225,7,0,28,0,1,,,,,
0.4,,,,,,,,,j,red,5b71c56d457b53000118dec7,2021-09-27_17h19.25.876,forced_choiceRT_color,2021.2.3,Win32,60.0276127,,,,,,,,2,Ontime,short,j,1,2.0256,7,1,29,2,1,,,,,
1.48,,,,,,,,,j,red,5b71c56d457b53000118dec7,2021-09-27_17h19.25.876,forced_choiceRT_color,2021.2.3,Win32,60.0276127,,,,,,,,2,Fast,short,j,1,1.8845,7,2,30,2,1,,,,,
1.94,,,,,,,,,k,purple,5b71c56d457b53000118dec7,2021-09-27_17h19.25.876,forced_choiceRT_color,2021.2.3,Win32,60.0276127,,,,,,,,2,Slow,short,k,1,2.2905,7,3,31,3,1,,,,,
1.07,,,,,,,,,k,purple,5b71c56d457b53000118dec7,2021-09-27_17h19.25.876,forced_choiceRT_color,2021.2.3,Win32,60.0276127,,,,,,,,2,Ontime,short,k,1,1.9158,8,0,32,3,1,,,,,
0.67,,,,,,,,,d,orange,5b71c56d457b53000118dec7,2021-09-27_17h19.25.876,forced_choiceRT_color,2021.2.3,Win32,60.0276127,,,,,,,,2,Ontime,short,d,1,1.9142,8,1,33,0,1,,,,,
1.47,,,,,,,,,j,red,5b71c56d457b53000118dec7,2021-09-27_17h19.25.876,forced_choiceRT_color,2021.2.3,Win32,60.0276127,,,,,,,,2,Ontime,short,f,0,1.9103,8,2,34,2,1,,,,,
0.24,,,,,,,,,f,blue,5b71c56d457b53000118dec7,2021-09-27_17h19.25.876,forced_choiceRT_color,2021.2.3,Win32,60.0276127,,,,,,,,2,Fast,short,f,1,1.7328,8,3,35,1,1,,,,,
1.95,,,,,,,,,d,orange,5b71c56d457b53000118dec7,2021-09-27_17h19.25.876,forced_choiceRT_color,2021.2.3,Win32,60.0276127,,,,,,,,2,Slow,short,k,0,2.2023,9,0,36,0,1,,,,,
1.77,,,,,,,,,j,red,5b71c56d457b53000118dec7,2021-09-27_17h19.25.876,forced_choiceRT_color,2021.2.3,Win32,60.0276127,,,,,,,,2,Slow,short,j,1,2.2051,9,1,37,2,1,,,,,
1.46,,,,,,,,,k,purple,5b71c56d457b53000118dec7,2021-09-27_17h19.25.876,forced_choiceRT_color,2021.2.3,Win32,60.0276127,,,,,,,,2,Ontime,short,j,0,1.929,9,2,38,3,1,,,,,
1.6,,,,,,,,,d,orange,5b71c56d457b53000118dec7,2021-09-27_17h19.25.876,forced_choiceRT_color,2021.2.3,Win32,60.0276127,,,,,,,,2,Fast,short,k,0,0.0792,9,3,39,0,1,,,,,
,,,,,,,,,,,5b71c56d457b53000118dec7,2021-09-27_17h19.25.876,forced_choiceRT_color,2021.2.3,Win32,60.0276127,,,,,,,,,,,,,,,,,,,1,0,1,0,1
0.93,,,,,,,,,f,blue,5b71c56d457b53000118dec7,2021-09-27_17h19.25.876,forced_choiceRT_color,2021.2.3,Win32,60.0276127,,,,,,,,3,Fast,short,f,1,1.6714,0,0,0,1,1,,,,,
1.29,,,,,,,,,j,red,5b71c56d457b53000118dec7,2021-09-27_17h19.25.876,forced_choiceRT_color,2021.2.3,Win32,60.0276127,,,,,,,,3,Ontime,short,j,1,1.9719,0,1,1,2,1,,,,,
1.76,,,,,,,,,f,blue,5b71c56d457b53000118dec7,2021-09-27_17h19.25.876,forced_choiceRT_color,2021.2.3,Win32,60.0276127,,,,,,,,3,Slow,short,k,0,2.1383,0,2,2,1,1,,,,,
0.13,,,,,,,,,j,red,5b71c56d457b53000118dec7,2021-09-27_17h19.25.876,forced_choiceRT_color,2021.2.3,Win32,60.0276127,,,,,,,,3,Ontime,short,j,1,1.9042,0,3,3,2,1,,,,,
1.16,,,,,,,,,d,orange,5b71c56d457b53000118dec7,2021-09-27_17h19.25.876,forced_choiceRT_color,2021.2.3,Win32,60.0276127,,,,,,,,3,Fast,short,d,1,1.6574,1,0,4,0,1,,,,,
1.76,,,,,,,,,d,orange,5b71c56d457b53000118dec7,2021-09-27_17h19.25.876,forced_choiceRT_color,2021.2.3,Win32,60.0276127,,,,,,,,3,Slow,short,d,1,2.323,1,1,5,0,1,,,,,
0.68,,,,,,,,,j,red,5b71c56d457b53000118dec7,2021-09-27_17h19.25.876,forced_choiceRT_color,2021.2.3,Win32,60.0276127,,,,,,,,3,Ontime,short,j,1,1.9577,1,2,6,2,1,,,,,
1.8,,,,,,,,,f,blue,5b71c56d457b53000118dec7,2021-09-27_17h19.25.876,forced_choiceRT_color,2021.2.3,Win32,60.0276127,,,,,,,,3,Slow,short,f,1,2.29,1,3,7,1,1,,,,,
0.88,,,,,,,,,j,red,5b71c56d457b53000118dec7,2021-09-27_17h19.25.876,forced_choiceRT_color,2021.2.3,Win32,60.0276127,,,,,,,,3,Fast,short,j,1,1.779,2,0,8,2,1,,,,,
1.44,,,,,,,,,f,blue,5b71c56d457b53000118dec7,2021-09-27_17h19.25.876,forced_choiceRT_color,2021.2.3,Win32,60.0276127,,,,,,,,3,Ontime,short,f,1,2.0599,2,1,9,1,1,,,,,
0.66,,,,,,,,,k,purple,5b71c56d457b53000118dec7,2021-09-27_17h19.25.876,forced_choiceRT_color,2021.2.3,Win32,60.0276127,,,,,,,,3,Ontime,short,k,1,1.979,2,2,10,3,1,,,,,
0.3,,,,,,,,,j,red,5b71c56d457b53000118dec7,2021-09-27_17h19.25.876,forced_choiceRT_color,2021.2.3,Win32,60.0276127,,,,,,,,3,Fast,short,j,1,1.7939,2,3,11,2,1,,,,,
1.81,,,,,,,,,k,purple,5b71c56d457b53000118dec7,2021-09-27_17h19.25.876,forced_choiceRT_color,2021.2.3,Win32,60.0276127,,,,,,,,3,Slow,short,k,1,2.2736,3,0,12,3,1,,,,,
0.84,,,,,,,,,k,purple,5b71c56d457b53000118dec7,2021-09-27_17h19.25.876,forced_choiceRT_color,2021.2.3,Win32,60.0276127,,,,,,,,3,Ontime,short,k,1,1.9755,3,1,13,3,1,,,,,
1.14,,,,,,,,,k,purple,5b71c56d457b53000118dec7,2021-09-27_17h19.25.876,forced_choiceRT_color,2021.2.3,Win32,60.0276127,,,,,,,,3,Ontime,short,k,1,1.9489,3,2,14,3,1,,,,,
0.98,,,,,,,,,d,orange,5b71c56d457b53000118dec7,2021-09-27_17h19.25.876,forced_choiceRT_color,2021.2.3,Win32,60.0276127,,,,,,,,3,Fast,short,d,1,1.7976,3,3,15,0,1,,,,,
0.53,,,,,,,,,f,blue,5b71c56d457b53000118dec7,2021-09-27_17h19.25.876,forced_choiceRT_color,2021.2.3,Win32,60.0276127,,,,,,,,3,Fast,short,f,1,1.8851,4,0,16,1,1,,,,,
1.56,,,,,,,,,f,blue,5b71c56d457b53000118dec7,2021-09-27_17h19.25.876,forced_choiceRT_color,2021.2.3,Win32,60.0276127,,,,,,,,3,Slow,short,f,1,2.1204,4,1,17,1,1,,,,,
0.94,,,,,,,,,d,orange,5b71c56d457b53000118dec7,2021-09-27_17h19.25.876,forced_choiceRT_color,2021.2.3,Win32,60.0276127,,,,,,,,3,Ontime,short,d,1,1.997,4,2,18,0,1,,,,,
0.09,,,,,,,,,k,purple,5b71c56d457b53000118dec7,2021-09-27_17h19.25.876,forced_choiceRT_color,2021.2.3,Win32,60.0276127,,,,,,,,3,Ontime,short,k,1,1.94,4,3,19,3,1,,,,,
0.93,,,,,,,,,f,blue,5b71c56d457b53000118dec7,2021-09-27_17h19.25.876,forced_choiceRT_color,2021.2.3,Win32,60.0276127,,,,,,,,3,Ontime,short,f,1,1.9364,5,0,20,1,1,,,,,
1.95,,,,,,,,,k,purple,5b71c56d457b53000118dec7,2021-09-27_17h19.25.876,forced_choiceRT_color,2021.2.3,Win32,60.0276127,,,,,,,,3,Slow,short,k,1,2.3455,5,1,21,3,1,,,,,
1.85,,,,,,,,,k,purple,5b71c56d457b53000118dec7,2021-09-27_17h19.25.876,forced_choiceRT_color,2021.2.3,Win32,60.0276127,,,,,,,,3,Slow,short,k,1,2.2976,5,2,22,3,1,,,,,
1.27,,,,,,,,,j,red,5b71c56d457b53000118dec7,2021-09-27_17h19.25.876,forced_choiceRT_color,2021.2.3,Win32,60.0276127,,,,,,,,3,Fast,short,j,1,1.8274,5,3,23,2,1,,,,,
1.97,,,,,,,,,d,orange,5b71c56d457b53000118dec7,2021-09-27_17h19.25.876,forced_choiceRT_color,2021.2.3,Win32,60.0276127,,,,,,,,3,Slow,short,f,0,2.4292,6,0,24,0,1,,,,,
0.17,,,,,,,,,f,blue,5b71c56d457b53000118dec7,2021-09-27_17h19.25.876,forced_choiceRT_color,2021.2.3,Win32,60.0276127,,,,,,,,3,Ontime,short,f,1,1.9653,6,1,25,1,1,,,,,
0.9,,,,,,,,,j,red,5b71c56d457b53000118dec7,2021-09-27_17h19.25.876,forced_choiceRT_color,2021.2.3,Win32,60.0276127,,,,,,,,3,Ontime,short,j,1,1.9982,6,2,26,2,1,,,,,
1.49,,,,,,,,,k,purple,5b71c56d457b53000118dec7,2021-09-27_17h19.25.876,forced_choiceRT_color,2021.2.3,Win32,60.0276127,,,,,,,,3,Ontime,short,k,1,1.9891,6,3,27,3,1,,,,,
1.3,,,,,,,,,d,orange,5b71c56d457b53000118dec7,2021-09-27_17h19.25.876,forced_choiceRT_color,2021.2.3,Win32,60.0276127,,,,,,,,3,Slow,short,d,1,2.1226,7,0,28,0,1,,,,,
0,,,,,,,,,f,blue,5b71c56d457b53000118dec7,2021-09-27_17h19.25.876,forced_choiceRT_color,2021.2.3,Win32,60.0276127,,,,,,,,3,Ontime,short,f,1,2.0268,7,1,29,1,1,,,,,
0.64,,,,,,,,,k,purple,5b71c56d457b53000118dec7,2021-09-27_17h19.25.876,forced_choiceRT_color,2021.2.3,Win32,60.0276127,,,,,,,,3,Ontime,short,k,1,1.9383,7,2,30,3,1,,,,,
1.27,,,,,,,,,f,blue,5b71c56d457b53000118dec7,2021-09-27_17h19.25.876,forced_choiceRT_color,2021.2.3,Win32,60.0276127,,,,,,,,3,Fast,short,f,1,1.8866,7,3,31,1,1,,,,,
1.2,,,,,,,,,j,red,5b71c56d457b53000118dec7,2021-09-27_17h19.25.876,forced_choiceRT_color,2021.2.3,Win32,60.0276127,,,,,,,,3,Fast,short,j,1,1.7774,8,0,32,2,1,,,,,
0.16,,,,,,,,,d,orange,5b71c56d457b53000118dec7,2021-09-27_17h19.25.876,forced_choiceRT_color,2021.2.3,Win32,60.0276127,,,,,,,,3,Ontime,short,d,1,1.9098,8,1,33,0,1,,,,,
0.83,,,,,,,,,d,orange,5b71c56d457b53000118dec7,2021-09-27_17h19.25.876,forced_choiceRT_color,2021.2.3,Win32,60.0276127,,,,,,,,3,Ontime,short,d,1,1.994,8,2,34,0,1,,,,,
1.85,,,,,,,,,d,orange,5b71c56d457b53000118dec7,2021-09-27_17h19.25.876,forced_choiceRT_color,2021.2.3,Win32,60.0276127,,,,,,,,3,Slow,short,d,1,2.3127,8,3,35,0,1,,,,,
0.53,,,,,,,,,j,red,5b71c56d457b53000118dec7,2021-09-27_17h19.25.876,forced_choiceRT_color,2021.2.3,Win32,60.0276127,,,,,,,,3,Slow,short,j,1,2.1327,9,0,36,2,1,,,,,
0.14,,,,,,,,,d,orange,5b71c56d457b53000118dec7,2021-09-27_17h19.25.876,forced_choiceRT_color,2021.2.3,Win32,60.0276127,,,,,,,,3,Fast,short,d,1,1.7354,9,1,37,0,1,,,,,
0.47,,,,,,,,,k,purple,5b71c56d457b53000118dec7,2021-09-27_17h19.25.876,forced_choiceRT_color,2021.2.3,Win32,60.0276127,,,,,,,,3,Fast,short,k,1,1.8995,9,2,38,3,1,,,,,
0.53,,,,,,,,,j,red,5b71c56d457b53000118dec7,2021-09-27_17h19.25.876,forced_choiceRT_color,2021.2.3,Win32,60.0276127,,,,,,,,3,Ontime,short,j,1,1.9212,9,3,39,2,1,,,,,
,,,,,,,,,,,5b71c56d457b53000118dec7,2021-09-27_17h19.25.876,forced_choiceRT_color,2021.2.3,Win32,60.0276127,,,,,,,,,,,,,,,,,,,2,0,2,0,1
0.62,,,,,,,,,f,blue,5b71c56d457b53000118dec7,2021-09-27_17h19.25.876,forced_choiceRT_color,2021.2.3,Win32,60.0276127,,,,,,,,4,Fast,short,f,1,1.8456,0,0,0,1,1,,,,,
0.56,,,,,,,,,d,orange,5b71c56d457b53000118dec7,2021-09-27_17h19.25.876,forced_choiceRT_color,2021.2.3,Win32,60.0276127,,,,,,,,4,Ontime,short,d,1,2.0032,0,1,1,0,1,,,,,
1.78,,,,,,,,,d,orange,5b71c56d457b53000118dec7,2021-09-27_17h19.25.876,forced_choiceRT_color,2021.2.3,Win32,60.0276127,,,,,,,,4,Slow,short,d,1,2.1993,0,2,2,0,1,,,,,
0.67,,,,,,,,,f,blue,5b71c56d457b53000118dec7,2021-09-27_17h19.25.876,forced_choiceRT_color,2021.2.3,Win32,60.0276127,,,,,,,,4,Ontime,short,f,1,1.9905,0,3,3,1,1,,,,,
1.99,,,,,,,,,f,blue,5b71c56d457b53000118dec7,2021-09-27_17h19.25.876,forced_choiceRT_color,2021.2.3,Win32,60.0276127,,,,,,,,4,Slow,short,f,1,2.4033,1,0,4,1,1,,,,,
1.59,,,,,,,,,j,red,5b71c56d457b53000118dec7,2021-09-27_17h19.25.876,forced_choiceRT_color,2021.2.3,Win32,60.0276127,,,,,,,,4,Slow,short,j,1,2.1523,1,1,5,2,1,,,,,
0.51,,,,,,,,,k,purple,5b71c56d457b53000118dec7,2021-09-27_17h19.25.876,forced_choiceRT_color,2021.2.3,Win32,60.0276127,,,,,,,,4,Fast,short,k,1,1.8403,1,2,6,3,1,,,,,
1.3,,,,,,,,,k,purple,5b71c56d457b53000118dec7,2021-09-27_17h19.25.876,forced_choiceRT_color,2021.2.3,Win32,60.0276127,,,,,,,,4,Slow,short,k,1,2.117,1,3,7,3,1,,,,,
1.29,,,,,,,,,k,purple,5b71c56d457b53000118dec7,2021-09-27_17h19.25.876,forced_choiceRT_color,2021.2.3,Win32,60.0276127,,,,,,,,4,Ontime,short,k,1,1.954,2,0,8,3,1,,,,,
0.5,,,,,,,,,f,blue,5b71c56d457b53000118dec7,2021-09-27_17h19.25.876,forced_choiceRT_color,2021.2.3,Win32,60.0276127,,,,,,,,4,Ontime,short,f,1,1.9419,2,1,9,1,1,,,,,
1.26,,,,,,,,,d,orange,5b71c56d457b53000118dec7,2021-09-27_17h19.25.876,forced_choiceRT_color,2021.2.3,Win32,60.0276127,,,,,,,,4,Fast,short,d,1,1.8138,2,2,10,0,1,,,,,
0.31,,,,,,,,,d,orange,5b71c56d457b53000118dec7,2021-09-27_17h19.25.876,forced_choiceRT_color,2021.2.3,Win32,60.0276127,,,,,,,,4,Fast,short,d,1,1.8552,2,3,11,0,1,,,,,
1.59,,,,,,,,,j,red,5b71c56d457b53000118dec7,2021-09-27_17h19.25.876,forced_choiceRT_color,2021.2.3,Win32,60.0276127,,,,,,,,4,Slow,short,j,1,2.2332,3,0,12,2,1,,,,,
0.09,,,,,,,,,d,orange,5b71c56d457b53000118dec7,2021-09-27_17h19.25.876,forced_choiceRT_color,2021.2.3,Win32,60.0276127,,,,,,,,4,Ontime,short,d,1,1.918,3,1,13,0,1,,,,,
0.01,,,,,,,,,f,blue,5b71c56d457b53000118dec7,2021-09-27_17h19.25.876,forced_choiceRT_color,2021.2.3,Win32,60.0276127,,,,,,,,4,Fast,short,f,1,1.7995,3,2,14,1,1,,,,,
1.99,,,,,,,,,d,orange,5b71c56d457b53000118dec7,2021-09-27_17h19.25.876,forced_choiceRT_color,2021.2.3,Win32,60.0276127,,,,,,,,4,Slow,short,d,1,2.5427,3,3,15,0,1,,,,,
1.39,,,,,,,,,j,red,5b71c56d457b53000118dec7,2021-09-27_17h19.25.876,forced_choiceRT_color,2021.2.3,Win32,60.0276127,,,,,,,,4,Slow,short,j,1,2.1932,4,0,16,2,1,,,,,
1.12,,,,,,,,,f,blue,5b71c56d457b53000118dec7,2021-09-27_17h19.25.876,forced_choiceRT_color,2021.2.3,Win32,60.0276127,,,,,,,,4,Ontime,short,f,1,1.9693,4,1,17,1,1,,,,,
0.06,,,,,,,,,d,orange,5b71c56d457b53000118dec7,2021-09-27_17h19.25.876,forced_choiceRT_color,2021.2.3,Win32,60.0276127,,,,,,,,4,Ontime,short,d,1,1.9878,4,2,18,0,1,,,,,
1.64,,,,,,,,,k,purple,5b71c56d457b53000118dec7,2021-09-27_17h19.25.876,forced_choiceRT_color,2021.2.3,Win32,60.0276127,,,,,,,,4,Ontime,short,k,1,2.0346,4,3,19,3,1,,,,,
0.85,,,,,,,,,j,red,5b71c56d457b53000118dec7,2021-09-27_17h19.25.876,forced_choiceRT_color,2021.2.3,Win32,60.0276127,,,,,,,,4,Fast,short,j,1,1.8589,5,0,20,2,1,,,,,
1.66,,,,,,,,,k,purple,5b71c56d457b53000118dec7,2021-09-27_17h19.25.876,forced_choiceRT_color,2021.2.3,Win32,60.0276127,,,,,,,,4,Slow,short,k,1,2.1427,5,1,21,3,1,,,,,
0.06,,,,,,,,,j,red,5b71c56d457b53000118dec7,2021-09-27_17h19.25.876,forced_choiceRT_color,2021.2.3,Win32,60.0276127,,,,,,,,4,Ontime,short,j,1,1.9553,5,2,22,2,1,,,,,
0.65,,,,,,,,,d,orange,5b71c56d457b53000118dec7,2021-09-27_17h19.25.876,forced_choiceRT_color,2021.2.3,Win32,60.0276127,,,,,,,,4,Ontime,short,d,1,1.9484,5,3,23,0,1,,,,,
1.07,,,,,,,,,j,red,5b71c56d457b53000118dec7,2021-09-27_17h19.25.876,forced_choiceRT_color,2021.2.3,Win32,60.0276127,,,,,,,,4,Fast,short,j,1,1.854,6,0,24,2,1,,,,,
0.73,,,,,,,,,k,purple,5b71c56d457b53000118dec7,2021-09-27_17h19.25.876,forced_choiceRT_color,2021.2.3,Win32,60.0276127,,,,,,,,4,Ontime,short,k,1,1.9363,6,1,25,3,1,,,,,
0.67,,,,,,,,,f,blue,5b71c56d457b53000118dec7,2021-09-27_17h19.25.876,forced_choiceRT_color,2021.2.3,Win32,60.0276127,,,,,,,,4,Ontime,short,f,1,1.9535,6,2,26,1,1,,,,,
0.72,,,,,,,,,d,orange,5b71c56d457b53000118dec7,2021-09-27_17h19.25.876,forced_choiceRT_color,2021.2.3,Win32,60.0276127,,,,,,,,4,Ontime,short,d,1,1.9975,6,3,27,0,1,,,,,
0.37,,,,,,,,,j,red,5b71c56d457b53000118dec7,2021-09-27_17h19.25.876,forced_choiceRT_color,2021.2.3,Win32,60.0276127,,,,,,,,4,Ontime,short,j,1,1.9024,7,0,28,2,1,,,,,
1.95,,,,,,,,,j,red,5b71c56d457b53000118dec7,2021-09-27_17h19.25.876,forced_choiceRT_color,2021.2.3,Win32,60.0276127,,,,,,,,4,Slow,short,f,0,2.5248,7,1,29,2,1,,,,,
1.65,,,,,,,,,k,purple,5b71c56d457b53000118dec7,2021-09-27_17h19.25.876,forced_choiceRT_color,2021.2.3,Win32,60.0276127,,,,,,,,4,Ontime,short,k,1,2.093,7,2,30,3,1,,,,,
0.23,,,,,,,,,d,orange,5b71c56d457b53000118dec7,2021-09-27_17h19.25.876,forced_choiceRT_color,2021.2.3,Win32,60.0276127,,,,,,,,4,Ontime,short,d,1,1.962,7,3,31,0,1,,,,,
1.6,,,,,,,,,k,purple,5b71c56d457b53000118dec7,2021-09-27_17h19.25.876,forced_choiceRT_color,2021.2.3,Win32,60.0276127,,,,,,,,4,Slow,short,j,0,2.128,8,0,32,3,1,,,,,
1.47,,,,,,,,,f,blue,5b71c56d457b53000118dec7,2021-09-27_17h19.25.876,forced_choiceRT_color,2021.2.3,Win32,60.0276127,,,,,,,,4,Ontime,short,f,1,2.0616,8,1,33,1,1,,,,,
1.75,,,,,,,,,f,blue,5b71c56d457b53000118dec7,2021-09-27_17h19.25.876,forced_choiceRT_color,2021.2.3,Win32,60.0276127,,,,,,,,4,Slow,short,f,1,2.2629,8,2,34,1,1,,,,,
1.78,,,,,,,,,f,blue,5b71c56d457b53000118dec7,2021-09-27_17h19.25.876,forced_choiceRT_color,2021.2.3,Win32,60.0276127,,,,,,,,4,Slow,short,f,1,2.2191,8,3,35,1,1,,,,,
0.33,,,,,,,,,j,red,5b71c56d457b53000118dec7,2021-09-27_17h19.25.876,forced_choiceRT_color,2021.2.3,Win32,60.0276127,,,,,,,,4,Ontime,short,j,1,1.9333,9,0,36,2,1,,,,,
1.11,,,,,,,,,k,purple,5b71c56d457b53000118dec7,2021-09-27_17h19.25.876,forced_choiceRT_color,2021.2.3,Win32,60.0276127,,,,,,,,4,Ontime,short,k,1,1.9957,9,1,37,3,1,,,,,
0.14,,,,,,,,,j,red,5b71c56d457b53000118dec7,2021-09-27_17h19.25.876,forced_choiceRT_color,2021.2.3,Win32,60.0276127,,,,,,,,4,Fast,short,j,1,1.7832,9,2,38,2,1,,,,,
0.41,,,,,,,,,k,purple,5b71c56d457b53000118dec7,2021-09-27_17h19.25.876,forced_choiceRT_color,2021.2.3,Win32,60.0276127,,,,,,,,4,Ontime,short,k,1,1.982,9,3,39,3,1,,,,,
,,,,,,,,,,,5b71c56d457b53000118dec7,2021-09-27_17h19.25.876,forced_choiceRT_color,2021.2.3,Win32,60.0276127,,,,,,,,,,,,,,,,,,,3,0,3,0,1
0.43,,,,,,,,,d,orange,5b71c56d457b53000118dec7,2021-09-27_17h19.25.876,forced_choiceRT_color,2021.2.3,Win32,60.0276127,,,,,,,,5,Ontime,short,d,1,1.9891,0,0,0,0,1,,,,,
1.27,,,,,,,,,f,blue,5b71c56d457b53000118dec7,2021-09-27_17h19.25.876,forced_choiceRT_color,2021.2.3,Win32,60.0276127,,,,,,,,5,Fast,short,f,1,1.8684,0,1,1,1,1,,,,,
0.84,,,,,,,,,d,orange,5b71c56d457b53000118dec7,2021-09-27_17h19.25.876,forced_choiceRT_color,2021.2.3,Win32,60.0276127,,,,,,,,5,Ontime,short,d,1,2.0242,0,2,2,0,1,,,,,
0,,,,,,,,,d,orange,5b71c56d457b53000118dec7,2021-09-27_17h19.25.876,forced_choiceRT_color,2021.2.3,Win32,60.0276127,,,,,,,,5,Ontime,short,d,1,1.9575,0,3,3,0,1,,,,,
1.68,,,,,,,,,f,blue,5b71c56d457b53000118dec7,2021-09-27_17h19.25.876,forced_choiceRT_color,2021.2.3,Win32,60.0276127,,,,,,,,5,Slow,short,f,1,2.1712,1,0,4,1,1,,,,,
0.82,,,,,,,,,f,blue,5b71c56d457b53000118dec7,2021-09-27_17h19.25.876,forced_choiceRT_color,2021.2.3,Win32,60.0276127,,,,,,,,5,Slow,short,f,1,2.2452,1,1,5,1,1,,,,,
0.9,,,,,,,,,k,purple,5b71c56d457b53000118dec7,2021-09-27_17h19.25.876,forced_choiceRT_color,2021.2.3,Win32,60.0276127,,,,,,,,5,Ontime,short,k,1,2.0795,1,2,6,3,1,,,,,
0.7,,,,,,,,,j,red,5b71c56d457b53000118dec7,2021-09-27_17h19.25.876,forced_choiceRT_color,2021.2.3,Win32,60.0276127,,,,,,,,5,Ontime,short,j,1,1.9116,1,3,7,2,1,,,,,
0.07,,,,,,,,,k,purple,5b71c56d457b53000118dec7,2021-09-27_17h19.25.876,forced_choiceRT_color,2021.2.3,Win32,60.0276127,,,,,,,,5,Fast,short,k,1,1.6799,2,0,8,3,1,,,,,
1.28,,,,,,,,,f,blue,5b71c56d457b53000118dec7,2021-09-27_17h19.25.876,forced_choiceRT_color,2021.2.3,Win32,60.0276127,,,,,,,,5,Ontime,short,f,1,1.9909,2,1,9,1,1,,,,,
1.17,,,,,,,,,j,red,5b71c56d457b53000118dec7,2021-09-27_17h19.25.876,forced_choiceRT_color,2021.2.3,Win32,60.0276127,,,,,,,,5,Ontime,short,j,1,1.9655,2,2,10,2,1,,,,,
1.16,,,,,,,,,d,orange,5b71c56d457b53000118dec7,2021-09-27_17h19.25.876,forced_choiceRT_color,2021.2.3,Win32,60.0276127,,,,,,,,5,Fast,short,d,1,1.7918,2,3,11,0,1,,,,,
0.69,,,,,,,,,j,red,5b71c56d457b53000118dec7,2021-09-27_17h19.25.876,forced_choiceRT_color,2021.2.3,Win32,60.0276127,,,,,,,,5,Ontime,short,j,1,1.9343,3,0,12,2,1,,,,,
0.9,,,,,,,,,k,purple,5b71c56d457b53000118dec7,2021-09-27_17h19.25.876,forced_choiceRT_color,2021.2.3,Win32,60.0276127,,,,,,,,5,Ontime,short,k,1,1.9958,3,1,13,3,1,,,,,
0.75,,,,,,,,,j,red,5b71c56d457b53000118dec7,2021-09-27_17h19.25.876,forced_choiceRT_color,2021.2.3,Win32,60.0276127,,,,,,,,5,Ontime,short,j,1,1.982,3,2,14,2,1,,,,,
1.78,,,,,,,,,k,purple,5b71c56d457b53000118dec7,2021-09-27_17h19.25.876,forced_choiceRT_color,2021.2.3,Win32,60.0276127,,,,,,,,5,Slow,short,k,1,2.2452,3,3,15,3,1,,,,,
0.86,,,,,,,,,k,purple,5b71c56d457b53000118dec7,2021-09-27_17h19.25.876,forced_choiceRT_color,2021.2.3,Win32,60.0276127,,,,,,,,5,Ontime,short,k,1,1.9592,4,0,16,3,1,,,,,
1.22,,,,,,,,,j,red,5b71c56d457b53000118dec7,2021-09-27_17h19.25.876,forced_choiceRT_color,2021.2.3,Win32,60.0276127,,,,,,,,5,Ontime,short,j,1,1.9855,4,1,17,2,1,,,,,
0.68,,,,,,,,,d,orange,5b71c56d457b53000118dec7,2021-09-27_17h19.25.876,forced_choiceRT_color,2021.2.3,Win32,60.0276127,,,,,,,,5,Ontime,short,d,1,1.9726,4,2,18,0,1,,,,,
1.25,,,,,,,,,d,orange,5b71c56d457b53000118dec7,2021-09-27_17h19.25.876,forced_choiceRT_color,2021.2.3,Win32,60.0276127,,,,,,,,5,Ontime,short,d,1,1.9837,4,3,19,0,1,,,,,
0.75,,,,,,,,,f,blue,5b71c56d457b53000118dec7,2021-09-27_17h19.25.876,forced_choiceRT_color,2021.2.3,Win32,60.0276127,,,,,,,,5,Ontime,short,f,1,1.9455,5,0,20,1,1,,,,,
1.88,,,,,,,,,d,orange,5b71c56d457b53000118dec7,2021-09-27_17h19.25.876,forced_choiceRT_color,2021.2.3,Win32,60.0276127,,,,,,,,5,Slow,short,d,1,2.3718,5,1,21,0,1,,,,,
0.51,,,,,,,,,j,red,5b71c56d457b53000118dec7,2021-09-27_17h19.25.876,forced_choiceRT_color,2021.2.3,Win32,60.0276127,,,,,,,,5,Ontime,short,j,1,2.0817,5,2,22,2,1,,,,,
1.06,,,,,,,,,k,purple,5b71c56d457b53000118dec7,2021-09-27_17h19.25.876,forced_choiceRT_color,2021.2.3,Win32,60.0276127,,,,,,,,5,Fast,short,k,1,1.8436,5,3,23,3,1,,,,,
1.58,,,,,,,,,d,orange,5b71c56d457b53000118dec7,2021-09-27_17h19.25.876,forced_choiceRT_color,2021.2.3,Win32,60.0276127,,,,,,,,5,Ontime,short,d,1,2.0578,6,0,24,0,1,,,,,
0.53,,,,,,,,,f,blue,5b71c56d457b53000118dec7,2021-09-27_17h19.25.876,forced_choiceRT_color,2021.2.3,Win32,60.0276127,,,,,,,,5,Ontime,short,f,1,2.0002,6,1,25,1,1,,,,,
1.98,,,,,,,,,k,purple,5b71c56d457b53000118dec7,2021-09-27_17h19.25.876,forced_choiceRT_color,2021.2.3,Win32,60.0276127,,,,,,,,5,Slow,short,k,1,2.4288,6,2,26,3,1,,,,,
0.81,,,,,,,,,j,red,5b71c56d457b53000118dec7,2021-09-27_17h19.25.876,forced_choiceRT_color,2021.2.3,Win32,60.0276127,,,,,,,,5,Fast,short,j,1,1.4654,6,3,27,2,1,,,,,
0.53,,,,,,,,,d,orange,5b71c56d457b53000118dec7,2021-09-27_17h19.25.876,forced_choiceRT_color,2021.2.3,Win32,60.0276127,,,,,,,,5,Ontime,short,d,1,1.9908,7,0,28,0,1,,,,,
0.83,,,,,,,,,k,purple,5b71c56d457b53000118dec7,2021-09-27_17h19.25.876,forced_choiceRT_color,2021.2.3,Win32,60.0276127,,,,,,,,5,Fast,short,k,1,1.7796,7,1,29,3,1,,,,,
1.53,,,,,,,,,d,orange,5b71c56d457b53000118dec7,2021-09-27_17h19.25.876,forced_choiceRT_color,2021.2.3,Win32,60.0276127,,,,,,,,5,Ontime,short,d,1,2.0356,7,2,30,0,1,,,,,
0.65,,,,,,,,,f,blue,5b71c56d457b53000118dec7,2021-09-27_17h19.25.876,forced_choiceRT_color,2021.2.3,Win32,60.0276127,,,,,,,,5,Ontime,short,f,1,1.9359,7,3,31,1,1,,,,,
1.07,,,,,,,,,j,red,5b71c56d457b53000118dec7,2021-09-27_17h19.25.876,forced_choiceRT_color,2021.2.3,Win32,60.0276127,,,,,,,,5,Ontime,short,j,1,1.9818,8,0,32,2,1,,,,,
0.84,,,,,,,,,j,red,5b71c56d457b53000118dec7,2021-09-27_17h19.25.876,forced_choiceRT_color,2021.2.3,Win32,60.0276127,,,,,,,,5,Ontime,short,j,1,1.9525,8,1,33,2,1,,,,,
0.72,,,,,,,,,f,blue,5b71c56d457b53000118dec7,2021-09-27_17h19.25.876,forced_choiceRT_color,2021.2.3,Win32,60.0276127,,,,,,,,5,Fast,short,f,1,1.8641,8,2,34,1,1,,,,,
0.56,,,,,,,,,j,red,5b71c56d457b53000118dec7,2021-09-27_17h19.25.876,forced_choiceRT_color,2021.2.3,Win32,60.0276127,,,,,,,,5,Ontime,short,j,1,2.0649,8,3,35,2,1,,,,,
0.55,,,,,,,,,f,blue,5b71c56d457b53000118dec7,2021-09-27_17h19.25.876,forced_choiceRT_color,2021.2.3,Win32,60.0276127,,,,,,,,5,Ontime,short,f,1,2.0818,9,0,36,1,1,,,,,
0.25,,,,,,,,,k,purple,5b71c56d457b53000118dec7,2021-09-27_17h19.25.876,forced_choiceRT_color,2021.2.3,Win32,60.0276127,,,,,,,,5,Ontime,short,k,1,2.0969,9,1,37,3,1,,,,,
1.2,,,,,,,,,k,purple,5b71c56d457b53000118dec7,2021-09-27_17h19.25.876,forced_choiceRT_color,2021.2.3,Win32,60.0276127,,,,,,,,5,Ontime,short,k,1,1.9994,9,2,38,3,1,,,,,
0.88,,,,,,,,,f,blue,5b71c56d457b53000118dec7,2021-09-27_17h19.25.876,forced_choiceRT_color,2021.2.3,Win32,60.0276127,,,,,,,,5,Slow,short,f,1,2.1534,9,3,39,1,1,,,,,
,,,,,,,,,,,5b71c56d457b53000118dec7,2021-09-27_17h19.25.876,forced_choiceRT_color,2021.2.3,Win32,60.0276127,,,,,,,,,,,,,,,,,,,4,0,4,0,1
0.97,,,,,,,,,d,orange,5b71c56d457b53000118dec7,2021-09-27_17h19.25.876,forced_choiceRT_color,2021.2.3,Win32,60.0276127,,,,,,,,6,Ontime,short,d,1,1.9581,0,0,0,0,1,,,,,
1.92,,,,,,,,,k,purple,5b71c56d457b53000118dec7,2021-09-27_17h19.25.876,forced_choiceRT_color,2021.2.3,Win32,60.0276127,,,,,,,,6,Slow,short,k,1,2.3813,0,1,1,3,1,,,,,
1.4,,,,,,,,,j,red,5b71c56d457b53000118dec7,2021-09-27_17h19.25.876,forced_choiceRT_color,2021.2.3,Win32,60.0276127,,,,,,,,6,Ontime,short,j,1,1.9845,0,2,2,2,1,,,,,
0.55,,,,,,,,,d,orange,5b71c56d457b53000118dec7,2021-09-27_17h19.25.876,forced_choiceRT_color,2021.2.3,Win32,60.0276127,,,,,,,,6,Ontime,short,d,1,2.0332,0,3,3,0,1,,,,,
0.64,,,,,,,,,d,orange,5b71c56d457b53000118dec7,2021-09-27_17h19.25.876,forced_choiceRT_color,2021.2.3,Win32,60.0276127,,,,,,,,6,Fast,short,d,1,1.7943,1,0,4,0,1,,,,,
1.23,,,,,,,,,k,purple,5b71c56d457b53000118dec7,2021-09-27_17h19.25.876,forced_choiceRT_color,2021.2.3,Win32,60.0276127,,,,,,,,6,Ontime,short,k,1,2.0836,1,1,5,3,1,,,,,
0.73,,,,,,,,,k,purple,5b71c56d457b53000118dec7,2021-09-27_17h19.25.876,forced_choiceRT_color,2021.2.3,Win32,60.0276127,,,,,,,,6,Ontime,short,k,1,2.0566,1,2,6,3,1,,,,,
0.7,,,,,,,,,j,red,5b71c56d457b53000118dec7,2021-09-27_17h19.25.876,forced_choiceRT_color,2021.2.3,Win32,60.0276127,,,,,,,,6,Ontime,short,j,1,1.9801,1,3,7,2,1,,,,,
1.54,,,,,,,,,d,orange,5b71c56d457b53000118dec7,2021-09-27_17h19.25.876,forced_choiceRT_color,2021.2.3,Win32,60.0276127,,,,,,,,6,Ontime,short,d,1,2.0663,2,0,8,0,1,,,,,
1.94,,,,,,,,,k,purple,5b71c56d457b53000118dec7,2021-09-27_17h19.25.876,forced_choiceRT_color,2021.2.3,Win32,60.0276127,,,,,,,,6,Slow,short,k,1,2.4517,2,1,9,3,1,,,,,
0.98,,,,,,,,,j,red,5b71c56d457b53000118dec7,2021-09-27_17h19.25.876,forced_choiceRT_color,2021.2.3,Win32,60.0276127,,,,,,,,6,Ontime,short,j,1,1.9746,2,2,10,2,1,,,,,
1.52,,,,,,,,,j,red,5b71c56d457b53000118dec7,2021-09-27_17h19.25.876,forced_choiceRT_color,2021.2.3,Win32,60.0276127,,,,,,,,6,Ontime,short,j,1,2.0173,2,3,11,2,1,,,,,
1.09,,,,,,,,,j,red,5b71c56d457b53000118dec7,2021-09-27_17h19.25.876,forced_choiceRT_color,2021.2.3,Win32,60.0276127,,,,,,,,6,Ontime,short,j,1,1.9706,3,0,12,2,1,,,,,
0.59,,,,,,,,,j,red,5b71c56d457b53000118dec7,2021-09-27_17h19.25.876,forced_choiceRT_color,2021.2.3,Win32,60.0276127,,,,,,,,6,Ontime,short,j,1,1.9411,3,1,13,2,1,,,,,
1.58,,,,,,,,,f,blue,5b71c56d457b53000118dec7,2021-09-27_17h19.25.876,forced_choiceRT_color,2021.2.3,Win32,60.0276127,,,,,,,,6,Ontime,short,d,0,2.0808,3,2,14,1,1,,,,,
0.87,,,,,,,,,k,purple,5b71c56d457b53000118dec7,2021-09-27_17h19.25.876,forced_choiceRT_color,2021.2.3,Win32,60.0276127,,,,,,,,6,Fast,short,f,0,0.0787,3,3,15,3,1,,,,,
0.64,,,,,,,,,k,purple,5b71c56d457b53000118dec7,2021-09-27_17h19.25.876,forced_choiceRT_color,2021.2.3,Win32,60.0276127,,,,,,,,6,Ontime,short,k,1,2.0842,4,0,16,3,1,,,,,
1.42,,,,,,,,,d,orange,5b71c56d457b53000118dec7,2021-09-27_17h19.25.876,forced_choiceRT_color,2021.2.3,Win32,60.0276127,,,,,,,,6,Ontime,short,d,1,2.0417,4,1,17,0,1,,,,,
0.64,,,,,,,,,f,blue,5b71c56d457b53000118dec7,2021-09-27_17h19.25.876,forced_choiceRT_color,2021.2.3,Win32,60.0276127,,,,,,,,6,Ontime,short,f,1,1.9969,4,2,18,1,1,,,,,
1.06,,,,,,,,,j,red,5b71c56d457b53000118dec7,2021-09-27_17h19.25.876,forced_choiceRT_color,2021.2.3,Win32,60.0276127,,,,,,,,6,Ontime,short,j,1,2.0414,4,3,19,2,1,,,,,
0.73,,,,,,,,,k,purple,5b71c56d457b53000118dec7,2021-09-27_17h19.25.876,forced_choiceRT_color,2021.2.3,Win32,60.0276127,,,,,,,,6,Ontime,short,k,1,1.9996,5,0,20,3,1,,,,,
1.49,,,,,,,,,k,purple,5b71c56d457b53000118dec7,2021-09-27_17h19.25.876,forced_choiceRT_color,2021.2.3,Win32,60.0276127,,,,,,,,6,Slow,short,k,1,2.2164,5,1,21,3,1,,,,,
1.5,,,,,,,,,d,orange,5b71c56d457b53000118dec7,2021-09-27_17h19.25.876,forced_choiceRT_color,2021.2.3,Win32,60.0276127,,,,,,,,6,Slow,short,d,1,2.1208,5,2,22,0,1,,,,,
1.81,,,,,,,,,f,blue,5b71c56d457b53000118dec7,2021-09-27_17h19.25.876,forced_choiceRT_color,2021.2.3,Win32,60.0276127,,,,,,,,6,Slow,short,f,1,2.3794,5,3,23,1,1,,,,,
1.44,,,,,,,,,d,orange,5b71c56d457b53000118dec7,2021-09-27_17h19.25.876,forced_choiceRT_color,2021.2.3,Win32,60.0276127,,,,,,,,6,Slow,short,d,1,2.168,6,0,24,0,1,,,,,
0.31,,,,,,,,,d,orange,5b71c56d457b53000118dec7,2021-09-27_17h19.25.876,forced_choiceRT_color,2021.2.3,Win32,60.0276127,,,,,,,,6,Ontime,short,d,1,2.0077,6,1,25,0,1,,,,,
1.96,,,,,,,,,f,blue,5b71c56d457b53000118dec7,2021-09-27_17h19.25.876,forced_choiceRT_color,2021.2.3,Win32,60.0276127,,,,,,,,6,Slow,short,f,1,2.3684,6,2,26,1,1,,,,,
0.5,,,,,,,,,d,orange,5b71c56d457b53000118dec7,2021-09-27_17h19.25.876,forced_choiceRT_color,2021.2.3,Win32,60.0276127,,,,,,,,6,Ontime,short,d,1,1.9984,6,3,27,0,1,,,,,
0.92,,,,,,,,,d,orange,5b71c56d457b53000118dec7,2021-09-27_17h19.25.876,forced_choiceRT_color,2021.2.3,Win32,60.0276127,,,,,,,,6,Ontime,short,d,1,1.9687,7,0,28,0,1,,,,,
0.92,,,,,,,,,f,blue,5b71c56d457b53000118dec7,2021-09-27_17h19.25.876,forced_choiceRT_color,2021.2.3,Win32,60.0276127,,,,,,,,6,Slow,short,f,1,2.1318,7,1,29,1,1,,,,,
1.23,,,,,,,,,k,purple,5b71c56d457b53000118dec7,2021-09-27_17h19.25.876,forced_choiceRT_color,2021.2.3,Win32,60.0276127,,,,,,,,6,Ontime,short,k,1,2.0469,7,2,30,3,1,,,,,
0.66,,,,,,,,,f,blue,5b71c56d457b53000118dec7,2021-09-27_17h19.25.876,forced_choiceRT_color,2021.2.3,Win32,60.0276127,,,,,,,,6,Ontime,short,f,1,1.9948,7,3,31,1,1,,,,,
1.14,,,,,,,,,f,blue,5b71c56d457b53000118dec7,2021-09-27_17h19.25.876,forced_choiceRT_color,2021.2.3,Win32,60.0276127,,,,,,,,6,Fast,short,f,1,1.8203,8,0,32,1,1,,,,,
1.23,,,,,,,,,f,blue,5b71c56d457b53000118dec7,2021-09-27_17h19.25.876,forced_choiceRT_color,2021.2.3,Win32,60.0276127,,,,,,,,6,Fast,short,f,1,1.8319,8,1,33,1,1,,,,,
0.92,,,,,,,,,k,purple,5b71c56d457b53000118dec7,2021-09-27_17h19.25.876,forced_choiceRT_color,2021.2.3,Win32,60.0276127,,,,,,,,6,Ontime,short,k,1,1.9139,8,2,34,3,1,,,,,
1.21,,,,,,,,,f,blue,5b71c56d457b53000118dec7,2021-09-27_17h19.25.876,forced_choiceRT_color,2021.2.3,Win32,60.0276127,,,,,,,,6,Ontime,short,f,1,2.0506,8,3,35,1,1,,,,,
0.81,,,,,,,,,j,red,5b71c56d457b53000118dec7,2021-09-27_17h19.25.876,forced_choiceRT_color,2021.2.3,Win32,60.0276127,,,,,,,,6,Ontime,short,j,1,2.0746,9,0,36,2,1,,,,,
1.96,,,,,,,,,f,blue,5b71c56d457b53000118dec7,2021-09-27_17h19.25.876,forced_choiceRT_color,2021.2.3,Win32,60.0276127,,,,,,,,6,Slow,short,f,1,2.4804,9,1,37,1,1,,,,,
0.49,,,,,,,,,j,red,5b71c56d457b53000118dec7,2021-09-27_17h19.25.876,forced_choiceRT_color,2021.2.3,Win32,60.0276127,,,,,,,,6,Ontime,short,j,1,1.9259,9,2,38,2,1,,,,,
0.99,,,,,,,,,j,red,5b71c56d457b53000118dec7,2021-09-27_17h19.25.876,forced_choiceRT_color,2021.2.3,Win32,60.0276127,,,,,,,,6,Ontime,short,j,1,2.0572,9,3,39,2,1,,,,,
,,,,,,,,,,,5b71c56d457b53000118dec7,2021-09-27_17h19.25.876,forced_choiceRT_color,2021.2.3,Win32,60.0276127,,,,,,,,,,,,,,,,,,,5,0,5,0,1
0.68,,,,,,,,,f,blue,5b71c56d457b53000118dec7,2021-09-27_17h19.25.876,forced_choiceRT_color,2021.2.3,Win32,60.0276127,,,,,,,,7,Ontime,short,f,1,1.9974,0,0,0,1,1,,,,,
0.62,,,,,,,,,j,red,5b71c56d457b53000118dec7,2021-09-27_17h19.25.876,forced_choiceRT_color,2021.2.3,Win32,60.0276127,,,,,,,,7,Ontime,short,j,1,2.0224,0,1,1,2,1,,,,,
0.9,,,,,,,,,f,blue,5b71c56d457b53000118dec7,2021-09-27_17h19.25.876,forced_choiceRT_color,2021.2.3,Win32,60.0276127,,,,,,,,7,Ontime,short,f,1,1.977,0,2,2,1,1,,,,,
1.88,,,,,,,,,d,orange,5b71c56d457b53000118dec7,2021-09-27_17h19.25.876,forced_choiceRT_color,2021.2.3,Win32,60.0276127,,,,,,,,7,Slow,short,d,1,2.3785,0,3,3,0,1,,,,,
1.3,,,,,,,,,f,blue,5b71c56d457b53000118dec7,2021-09-27_17h19.25.876,forced_choiceRT_color,2021.2.3,Win32,60.0276127,,,,,,,,7,Slow,short,f,1,2.2654,1,0,4,1,1,,,,,
0.71,,,,,,,,,k,purple,5b71c56d457b53000118dec7,2021-09-27_17h19.25.876,forced_choiceRT_color,2021.2.3,Win32,60.0276127,,,,,,,,7,Ontime,short,k,1,2.067,1,1,5,3,1,,,,,
0.02,,,,,,,,,j,red,5b71c56d457b53000118dec7,2021-09-27_17h19.25.876,forced_choiceRT_color,2021.2.3,Win32,60.0276127,,,,,,,,7,Ontime,short,j,1,1.9557,1,2,6,2,1,,,,,
0.62,,,,,,,,,j,red,5b71c56d457b53000118dec7,2021-09-27_17h19.25.876,forced_choiceRT_color,2021.2.3,Win32,60.0276127,,,,,,,,7,Fast,short,j,1,1.8773,1,3,7,2,1,,,,,
1.66,,,,,,,,,k,purple,5b71c56d457b53000118dec7,2021-09-27_17h19.25.876,forced_choiceRT_color,2021.2.3,Win32,60.0276127,,,,,,,,7,Slow,short,k,1,2.1627,2,0,8,3,1,,,,,
1.69,,,,,,,,,k,purple,5b71c56d457b53000118dec7,2021-09-27_17h19.25.876,forced_choiceRT_color,2021.2.3,Win32,60.0276127,,,,,,,,7,Slow,short,k,1,2.1644,2,1,9,3,1,,,,,
0.15,,,,,,,,,j,red,5b71c56d457b53000118dec7,2021-09-27_17h19.25.876,forced_choiceRT_color,2021.2.3,Win32,60.0276127,,,,,,,,7,Fast,short,j,1,1.7538,2,2,10,2,1,,,,,
1.15,,,,,,,,,d,orange,5b71c56d457b53000118dec7,2021-09-27_17h19.25.876,forced_choiceRT_color,2021.2.3,Win32,60.0276127,,,,,,,,7,Fast,short,f,0,1.817,2,3,11,0,1,,,,,
0.14,,,,,,,,,k,purple,5b71c56d457b53000118dec7,2021-09-27_17h19.25.876,forced_choiceRT_color,2021.2.3,Win32,60.0276127,,,,,,,,7,Fast,short,k,1,1.8882,3,0,12,3,1,,,,,
1.8,,,,,,,,,f,blue,5b71c56d457b53000118dec7,2021-09-27_17h19.25.876,forced_choiceRT_color,2021.2.3,Win32,60.0276127,,,,,,,,7,Slow,short,f,1,2.1885,3,1,13,1,1,,,,,
0.25,,,,,,,,,f,blue,5b71c56d457b53000118dec7,2021-09-27_17h19.25.876,forced_choiceRT_color,2021.2.3,Win32,60.0276127,,,,,,,,7,Ontime,short,f,1,2.0623,3,2,14,1,1,,,,,
0.5,,,,,,,,,d,orange,5b71c56d457b53000118dec7,2021-09-27_17h19.25.876,forced_choiceRT_color,2021.2.3,Win32,60.0276127,,,,,,,,7,Ontime,short,d,1,2.0449,3,3,15,0,1,,,,,
1.16,,,,,,,,,k,purple,5b71c56d457b53000118dec7,2021-09-27_17h19.25.876,forced_choiceRT_color,2021.2.3,Win32,60.0276127,,,,,,,,7,Ontime,short,k,1,2.0227,4,0,16,3,1,,,,,
1.98,,,,,,,,,k,purple,5b71c56d457b53000118dec7,2021-09-27_17h19.25.876,forced_choiceRT_color,2021.2.3,Win32,60.0276127,,,,,,,,7,Slow,short,k,1,2.4456,4,1,17,3,1,,,,,
1.31,,,,,,,,,j,red,5b71c56d457b53000118dec7,2021-09-27_17h19.25.876,forced_choiceRT_color,2021.2.3,Win32,60.0276127,,,,,,,,7,Ontime,short,j,1,2.0973,4,2,18,2,1,,,,,
1.37,,,,,,,,,f,blue,5b71c56d457b53000118dec7,2021-09-27_17h19.25.876,forced_choiceRT_color,2021.2.3,Win32,60.0276127,,,,,,,,7,Slow,short,f,1,2.2005,4,3,19,1,1,,,,,
1.94,,,,,,,,,f,blue,5b71c56d457b53000118dec7,2021-09-27_17h19.25.876,forced_choiceRT_color,2021.2.3,Win32,60.0276127,,,,,,,,7,Slow,short,f,1,2.521,5,0,20,1,1,,,,,
1.71,,,,,,,,,d,orange,5b71c56d457b53000118dec7,2021-09-27_17h19.25.876,forced_choiceRT_color,2021.2.3,Win32,60.0276127,,,,,,,,7,Slow,short,d,1,2.17,5,1,21,0,1,,,,,
0.96,,,,,,,,,k,purple,5b71c56d457b53000118dec7,2021-09-27_17h19.25.876,forced_choiceRT_color,2021.2.3,Win32,60.0276127,,,,,,,,7,Fast,short,k,1,1.8993,5,2,22,3,1,,,,,
0.51,,,,,,,,,d,orange,5b71c56d457b53000118dec7,2021-09-27_17h19.25.876,forced_choiceRT_color,2021.2.3,Win32,60.0276127,,,,,,,,7,Ontime,short,d,1,1.9359,5,3,23,0,1,,,,,
1.67,,,,,,,,,d,orange,5b71c56d457b53000118dec7,2021-09-27_17h19.25.876,forced_choiceRT_color,2021.2.3,Win32,60.0276127,,,,,,,,7,Slow,short,d,1,2.2072,6,0,24,0,1,,,,,
1.33,,,,,,,,,d,orange,5b71c56d457b53000118dec7,2021-09-27_17h19.25.876,forced_choiceRT_color,2021.2.3,Win32,60.0276127,,,,,,,,7,Ontime,short,d,1,1.9959,6,1,25,0,1,,,,,
1.31,,,,,,,,,k,purple,5b71c56d457b53000118dec7,2021-09-27_17h19.25.876,forced_choiceRT_color,2021.2.3,Win32,60.0276127,,,,,,,,7,Fast,short,k,1,1.8345,6,2,26,3,1,,,,,
0.8,,,,,,,,,d,orange,5b71c56d457b53000118dec7,2021-09-27_17h19.25.876,forced_choiceRT_color,2021.2.3,Win32,60.0276127,,,,,,,,7,Ontime,short,d,1,1.9633,6,3,27,0,1,,,,,
1.71,,,,,,,,,j,red,5b71c56d457b53000118dec7,2021-09-27_17h19.25.876,forced_choiceRT_color,2021.2.3,Win32,60.0276127,,,,,,,,7,Slow,short,j,1,2.2907,7,0,28,2,1,,,,,
1.08,,,,,,,,,j,red,5b71c56d457b53000118dec7,2021-09-27_17h19.25.876,forced_choiceRT_color,2021.2.3,Win32,60.0276127,,,,,,,,7,Ontime,short,j,1,1.986,7,1,29,2,1,,,,,
1.09,,,,,,,,,j,red,5b71c56d457b53000118dec7,2021-09-27_17h19.25.876,forced_choiceRT_color,2021.2.3,Win32,60.0276127,,,,,,,,7,Ontime,short,j,1,1.9232,7,2,30,2,1,,,,,
0.51,,,,,,,,,f,blue,5b71c56d457b53000118dec7,2021-09-27_17h19.25.876,forced_choiceRT_color,2021.2.3,Win32,60.0276127,,,,,,,,7,Ontime,short,f,1,1.9406,7,3,31,1,1,,,,,
0.76,,,,,,,,,f,blue,5b71c56d457b53000118dec7,2021-09-27_17h19.25.876,forced_choiceRT_color,2021.2.3,Win32,60.0276127,,,,,,,,7,Fast,short,f,1,1.8795,8,0,32,1,1,,,,,
1.37,,,,,,,,,j,red,5b71c56d457b53000118dec7,2021-09-27_17h19.25.876,forced_choiceRT_color,2021.2.3,Win32,60.0276127,,,,,,,,7,Ontime,short,j,1,1.932,8,1,33,2,1,,,,,
1.26,,,,,,,,,k,purple,5b71c56d457b53000118dec7,2021-09-27_17h19.25.876,forced_choiceRT_color,2021.2.3,Win32,60.0276127,,,,,,,,7,Ontime,short,k,1,1.9534,8,2,34,3,1,,,,,
1.48,,,,,,,,,f,blue,5b71c56d457b53000118dec7,2021-09-27_17h19.25.876,forced_choiceRT_color,2021.2.3,Win32,60.0276127,,,,,,,,7,Ontime,short,f,1,2.0587,8,3,35,1,1,,,,,
1.37,,,,,,,,,d,orange,5b71c56d457b53000118dec7,2021-09-27_17h19.25.876,forced_choiceRT_color,2021.2.3,Win32,60.0276127,,,,,,,,7,Ontime,short,d,1,1.9419,9,0,36,0,1,,,,,
1.87,,,,,,,,,d,orange,5b71c56d457b53000118dec7,2021-09-27_17h19.25.876,forced_choiceRT_color,2021.2.3,Win32,60.0276127,,,,,,,,7,Slow,short,f,0,2.2392,9,1,37,0,1,,,,,
0.87,,,,,,,,,k,purple,5b71c56d457b53000118dec7,2021-09-27_17h19.25.876,forced_choiceRT_color,2021.2.3,Win32,60.0276127,,,,,,,,7,Ontime,short,k,1,1.9048,9,2,38,3,1,,,,,
1.88,,,,,,,,,j,red,5b71c56d457b53000118dec7,2021-09-27_17h19.25.876,forced_choiceRT_color,2021.2.3,Win32,60.0276127,,,,,,,,7,Slow,short,k,0,2.3931,9,3,39,2,1,,,,,
,,,,,,,,,,,5b71c56d457b53000118dec7,2021-09-27_17h19.25.876,forced_choiceRT_color,2021.2.3,Win32,60.0276127,,,,,,,,,,,,,,,,,,,6,0,6,0,1
1.45,,,,,,,,,k,purple,5b71c56d457b53000118dec7,2021-09-27_17h19.25.876,forced_choiceRT_color,2021.2.3,Win32,60.0276127,,,,,,,,8,Ontime,short,k,1,1.9914,0,0,0,3,1,,,,,
0.17,,,,,,,,,j,red,5b71c56d457b53000118dec7,2021-09-27_17h19.25.876,forced_choiceRT_color,2021.2.3,Win32,60.0276127,,,,,,,,8,Ontime,short,j,1,1.9857,0,1,1,2,1,,,,,
1.43,,,,,,,,,d,orange,5b71c56d457b53000118dec7,2021-09-27_17h19.25.876,forced_choiceRT_color,2021.2.3,Win32,60.0276127,,,,,,,,8,Ontime,short,d,1,1.9055,0,2,2,0,1,,,,,
1,,,,,,,,,j,red,5b71c56d457b53000118dec7,2021-09-27_17h19.25.876,forced_choiceRT_color,2021.2.3,Win32,60.0276127,,,,,,,,8,Ontime,short,j,1,1.9626,0,3,3,2,1,,,,,
0.27,,,,,,,,,j,red,5b71c56d457b53000118dec7,2021-09-27_17h19.25.876,forced_choiceRT_color,2021.2.3,Win32,60.0276127,,,,,,,,8,Fast,short,j,1,1.7227,1,0,4,2,1,,,,,
1.74,,,,,,,,,f,blue,5b71c56d457b53000118dec7,2021-09-27_17h19.25.876,forced_choiceRT_color,2021.2.3,Win32,60.0276127,,,,,,,,8,Slow,short,f,1,2.3931,1,1,5,1,1,,,,,
1.49,,,,,,,,,f,blue,5b71c56d457b53000118dec7,2021-09-27_17h19.25.876,forced_choiceRT_color,2021.2.3,Win32,60.0276127,,,,,,,,8,Slow,short,f,1,2.1716,1,2,6,1,1,,,,,
0.72,,,,,,,,,d,orange,5b71c56d457b53000118dec7,2021-09-27_17h19.25.876,forced_choiceRT_color,2021.2.3,Win32,60.0276127,,,,,,,,8,Ontime,short,d,1,2.0423,1,3,7,0,1,,,,,
1.13,,,,,,,,,k,purple,5b71c56d457b53000118dec7,2021-09-27_17h19.25.876,forced_choiceRT_color,2021.2.3,Win32,60.0276127,,,,,,,,8,Ontime,short,k,1,2.0037,2,0,8,3,1,,,,,
0.78,,,,,,,,,j,red,5b71c56d457b53000118dec7,2021-09-27_17h19.25.876,forced_choiceRT_color,2021.2.3,Win32,60.0276127,,,,,,,,8,Fast,short,j,1,1.8412,2,1,9,2,1,,,,,
1.41,,,,,,,,,k,purple,5b71c56d457b53000118dec7,2021-09-27_17h19.25.876,forced_choiceRT_color,2021.2.3,Win32,60.0276127,,,,,,,,8,Slow,short,k,1,2.2005,2,2,10,3,1,,,,,
1.86,,,,,,,,,j,red,5b71c56d457b53000118dec7,2021-09-27_17h19.25.876,forced_choiceRT_color,2021.2.3,Win32,60.0276127,,,,,,,,8,Slow,short,j,1,2.3494,2,3,11,2,1,,,,,
0.86,,,,,,,,,k,purple,5b71c56d457b53000118dec7,2021-09-27_17h19.25.876,forced_choiceRT_color,2021.2.3,Win32,60.0276127,,,,,,,,8,Ontime,short,k,1,1.964,3,0,12,3,1,,,,,
1.73,,,,,,,,,d,orange,5b71c56d457b53000118dec7,2021-09-27_17h19.25.876,forced_choiceRT_color,2021.2.3,Win32,60.0276127,,,,,,,,8,Slow,short,d,1,2.3088,3,1,13,0,1,,,,,
0.26,,,,,,,,,j,red,5b71c56d457b53000118dec7,2021-09-27_17h19.25.876,forced_choiceRT_color,2021.2.3,Win32,60.0276127,,,,,,,,8,Fast,short,j,1,1.5221,3,2,14,2,1,,,,,
0.79,,,,,,,,,f,blue,5b71c56d457b53000118dec7,2021-09-27_17h19.25.876,forced_choiceRT_color,2021.2.3,Win32,60.0276127,,,,,,,,8,Ontime,short,f,1,2.0535,3,3,15,1,1,,,,,
0.17,,,,,,,,,k,purple,5b71c56d457b53000118dec7,2021-09-27_17h19.25.876,forced_choiceRT_color,2021.2.3,Win32,60.0276127,,,,,,,,8,Ontime,short,k,1,2.0166,4,0,16,3,1,,,,,
1.35,,,,,,,,,j,red,5b71c56d457b53000118dec7,2021-09-27_17h19.25.876,forced_choiceRT_color,2021.2.3,Win32,60.0276127,,,,,,,,8,Ontime,short,j,1,1.9808,4,1,17,2,1,,,,,
1.33,,,,,,,,,k,purple,5b71c56d457b53000118dec7,2021-09-27_17h19.25.876,forced_choiceRT_color,2021.2.3,Win32,60.0276127,,,,,,,,8,Ontime,short,k,1,2.0054,4,2,18,3,1,,,,,
0.99,,,,,,,,,k,purple,5b71c56d457b53000118dec7,2021-09-27_17h19.25.876,forced_choiceRT_color,2021.2.3,Win32,60.0276127,,,,,,,,8,Fast,short,k,1,1.8854,4,3,19,3,1,,,,,
1.01,,,,,,,,,f,blue,5b71c56d457b53000118dec7,2021-09-27_17h19.25.876,forced_choiceRT_color,2021.2.3,Win32,60.0276127,,,,,,,,8,Ontime,short,f,1,1.9953,5,0,20,1,1,,,,,
1.1,,,,,,,,,d,orange,5b71c56d457b53000118dec7,2021-09-27_17h19.25.876,forced_choiceRT_color,2021.2.3,Win32,60.0276127,,,,,,,,8,Ontime,short,d,1,1.9643,5,1,21,0,1,,,,,
0.96,,,,,,,,,j,red,5b71c56d457b53000118dec7,2021-09-27_17h19.25.876,forced_choiceRT_color,2021.2.3,Win32,60.0276127,,,,,,,,8,Ontime,short,j,1,1.9281,5,2,22,2,1,,,,,
0.13,,,,,,,,,f,blue,5b71c56d457b53000118dec7,2021-09-27_17h19.25.876,forced_choiceRT_color,2021.2.3,Win32,60.0276127,,,,,,,,8,Ontime,short,f,1,1.9409,5,3,23,1,1,,,,,
0.47,,,,,,,,,d,orange,5b71c56d457b53000118dec7,2021-09-27_17h19.25.876,forced_choiceRT_color,2021.2.3,Win32,60.0276127,,,,,,,,8,Fast,short,d,1,1.8945,6,0,24,0,1,,,,,
0.68,,,,,,,,,d,orange,5b71c56d457b53000118dec7,2021-09-27_17h19.25.876,forced_choiceRT_color,2021.2.3,Win32,60.0276127,,,,,,,,8,Ontime,short,d,1,1.9073,6,1,25,0,1,,,,,
1.99,,,,,,,,,k,purple,5b71c56d457b53000118dec7,2021-09-27_17h19.25.876,forced_choiceRT_color,2021.2.3,Win32,60.0276127,,,,,,,,8,Slow,short,k,1,2.5128,6,2,26,3,1,,,,,
1.48,,,,,,,,,d,orange,5b71c56d457b53000118dec7,2021-09-27_17h19.25.876,forced_choiceRT_color,2021.2.3,Win32,60.0276127,,,,,,,,8,Slow,short,d,1,2.1273,6,3,27,0,1,,,,,
1.92,,,,,,,,,k,purple,5b71c56d457b53000118dec7,2021-09-27_17h19.25.876,forced_choiceRT_color,2021.2.3,Win32,60.0276127,,,,,,,,8,Slow,short,k,1,2.5245,7,0,28,3,1,,,,,
0.27,,,,,,,,,j,red,5b71c56d457b53000118dec7,2021-09-27_17h19.25.876,forced_choiceRT_color,2021.2.3,Win32,60.0276127,,,,,,,,8,Fast,short,j,1,1.8668,7,1,29,2,1,,,,,
0.76,,,,,,,,,f,blue,5b71c56d457b53000118dec7,2021-09-27_17h19.25.876,forced_choiceRT_color,2021.2.3,Win32,60.0276127,,,,,,,,8,Ontime,short,f,1,2.0195,7,2,30,1,1,,,,,
1.82,,,,,,,,,d,orange,5b71c56d457b53000118dec7,2021-09-27_17h19.25.876,forced_choiceRT_color,2021.2.3,Win32,60.0276127,,,,,,,,8,Slow,short,d,1,2.3036,7,3,31,0,1,,,,,
1.81,,,,,,,,,k,purple,5b71c56d457b53000118dec7,2021-09-27_17h19.25.876,forced_choiceRT_color,2021.2.3,Win32,60.0276127,,,,,,,,8,Slow,short,k,1,2.3789,8,0,32,3,1,,,,,
0.7,,,,,,,,,d,orange,5b71c56d457b53000118dec7,2021-09-27_17h19.25.876,forced_choiceRT_color,2021.2.3,Win32,60.0276127,,,,,,,,8,Ontime,short,d,1,1.9696,8,1,33,0,1,,,,,
1.61,,,,,,,,,j,red,5b71c56d457b53000118dec7,2021-09-27_17h19.25.876,forced_choiceRT_color,2021.2.3,Win32,60.0276127,,,,,,,,8,Slow,short,j,1,2.1413,8,2,34,2,1,,,,,
1.35,,,,,,,,,d,orange,5b71c56d457b53000118dec7,2021-09-27_17h19.25.876,forced_choiceRT_color,2021.2.3,Win32,60.0276127,,,,,,,,8,Fast,short,d,1,1.8595,8,3,35,0,1,,,,,
0.7,,,,,,,,,f,blue,5b71c56d457b53000118dec7,2021-09-27_17h19.25.876,forced_choiceRT_color,2021.2.3,Win32,60.0276127,,,,,,,,8,Ontime,short,f,1,1.9739,9,0,36,1,1,,,,,
1.69,,,,,,,,,f,blue,5b71c56d457b53000118dec7,2021-09-27_17h19.25.876,forced_choiceRT_color,2021.2.3,Win32,60.0276127,,,,,,,,8,Slow,short,f,1,2.1428,9,1,37,1,1,,,,,
1.09,,,,,,,,,f,blue,5b71c56d457b53000118dec7,2021-09-27_17h19.25.876,forced_choiceRT_color,2021.2.3,Win32,60.0276127,,,,,,,,8,Fast,short,f,1,1.5943,9,2,38,1,1,,,,,
1.97,,,,,,,,,f,blue,5b71c56d457b53000118dec7,2021-09-27_17h19.25.876,forced_choiceRT_color,2021.2.3,Win32,60.0276127,,,,,,,,8,Slow,short,f,1,2.3825,9,3,39,1,1,,,,,
,,,,,,,,,,,5b71c56d457b53000118dec7,2021-09-27_17h19.25.876,forced_choiceRT_color,2021.2.3,Win32,60.0276127,,,,,,,,,,,,,,,,,,,7,0,7,0,1
1.89,,,,,,,,,f,blue,5b71c56d457b53000118dec7,2021-09-27_17h19.25.876,forced_choiceRT_color,2021.2.3,Win32,60.0276127,,,,,,,,9,Slow,short,f,1,2.3741,0,0,0,1,1,,,,,
1.32,,,,,,,,,d,orange,5b71c56d457b53000118dec7,2021-09-27_17h19.25.876,forced_choiceRT_color,2021.2.3,Win32,60.0276127,,,,,,,,9,Slow,short,d,1,2.1554,0,1,1,0,1,,,,,
0.46,,,,,,,,,d,orange,5b71c56d457b53000118dec7,2021-09-27_17h19.25.876,forced_choiceRT_color,2021.2.3,Win32,60.0276127,,,,,,,,9,Ontime,short,d,1,2.0114,0,2,2,0,1,,,,,
0.48,,,,,,,,,j,red,5b71c56d457b53000118dec7,2021-09-27_17h19.25.876,forced_choiceRT_color,2021.2.3,Win32,60.0276127,,,,,,,,9,Ontime,short,j,1,2.0137,0,3,3,2,1,,,,,
1.66,,,,,,,,,f,blue,5b71c56d457b53000118dec7,2021-09-27_17h19.25.876,forced_choiceRT_color,2021.2.3,Win32,60.0276127,,,,,,,,9,Slow,short,f,1,2.2254,1,0,4,1,1,,,,,
0.94,,,,,,,,,k,purple,5b71c56d457b53000118dec7,2021-09-27_17h19.25.876,forced_choiceRT_color,2021.2.3,Win32,60.0276127,,,,,,,,9,Ontime,short,k,1,2.0736,1,1,5,3,1,,,,,
0.55,,,,,,,,,d,orange,5b71c56d457b53000118dec7,2021-09-27_17h19.25.876,forced_choiceRT_color,2021.2.3,Win32,60.0276127,,,,,,,,9,Ontime,short,d,1,1.9397,1,2,6,0,1,,,,,
1.02,,,,,,,,,d,orange,5b71c56d457b53000118dec7,2021-09-27_17h19.25.876,forced_choiceRT_color,2021.2.3,Win32,60.0276127,,,,,,,,9,Ontime,short,d,1,2.0416,1,3,7,0,1,,,,,
1.96,,,,,,,,,j,red,5b71c56d457b53000118dec7,2021-09-27_17h19.25.876,forced_choiceRT_color,2021.2.3,Win32,60.0276127,,,,,,,,9,Slow,short,f,0,2.7549,2,0,8,2,1,,,,,
1.76,,,,,,,,,f,blue,5b71c56d457b53000118dec7,2021-09-27_17h19.25.876,forced_choiceRT_color,2021.2.3,Win32,60.0276127,,,,,,,,9,Slow,short,f,1,2.3687,2,1,9,1,1,,,,,
0.68,,,,,,,,,j,red,5b71c56d457b53000118dec7,2021-09-27_17h19.25.876,forced_choiceRT_color,2021.2.3,Win32,60.0276127,,,,,,,,9,Ontime,short,j,1,2.0019,2,2,10,2,1,,,,,
1.99,,,,,,,,,j,red,5b71c56d457b53000118dec7,2021-09-27_17h19.25.876,forced_choiceRT_color,2021.2.3,Win32,60.0276127,,,,,,,,9,Slow,short,j,1,2.4618,2,3,11,2,1,,,,,
1.33,,,,,,,,,k,purple,5b71c56d457b53000118dec7,2021-09-27_17h19.25.876,forced_choiceRT_color,2021.2.3,Win32,60.0276127,,,,,,,,9,Ontime,short,k,1,2.0155,3,0,12,3,1,,,,,
0.47,,,,,,,,,d,orange,5b71c56d457b53000118dec7,2021-09-27_17h19.25.876,forced_choiceRT_color,2021.2.3,Win32,60.0276127,,,,,,,,9,Ontime,short,d,1,1.9508,3,1,13,0,1,,,,,
1.08,,,,,,,,,f,blue,5b71c56d457b53000118dec7,2021-09-27_17h19.25.876,forced_choiceRT_color,2021.2.3,Win32,60.0276127,,,,,,,,9,Ontime,short,f,1,2.0498,3,2,14,1,1,,,,,
1.37,,,,,,,,,d,orange,5b71c56d457b53000118dec7,2021-09-27_17h19.25.876,forced_choiceRT_color,2021.2.3,Win32,60.0276127,,,,,,,,9,Ontime,short,d,1,1.9742,3,3,15,0,1,,,,,
1.11,,,,,,,,,j,red,5b71c56d457b53000118dec7,2021-09-27_17h19.25.876,forced_choiceRT_color,2021.2.3,Win32,60.0276127,,,,,,,,9,Ontime,short,j,1,2.0165,4,0,16,2,1,,,,,
1.22,,,,,,,,,f,blue,5b71c56d457b53000118dec7,2021-09-27_17h19.25.876,forced_choiceRT_color,2021.2.3,Win32,60.0276127,,,,,,,,9,Fast,short,f,1,1.7544,4,1,17,1,1,,,,,
1.36,,,,,,,,,k,purple,5b71c56d457b53000118dec7,2021-09-27_17h19.25.876,forced_choiceRT_color,2021.2.3,Win32,60.0276127,,,,,,,,9,Fast,short,k,1,1.8926,4,2,18,3,1,,,,,
1.89,,,,,,,,,f,blue,5b71c56d457b53000118dec7,2021-09-27_17h19.25.876,forced_choiceRT_color,2021.2.3,Win32,60.0276127,,,,,,,,9,Slow,short,f,1,2.3389,4,3,19,1,1,,,,,
1.69,,,,,,,,,d,orange,5b71c56d457b53000118dec7,2021-09-27_17h19.25.876,forced_choiceRT_color,2021.2.3,Win32,60.0276127,,,,,,,,9,Slow,short,f,0,2.2289,5,0,20,0,1,,,,,
0.63,,,,,,,,,j,red,5b71c56d457b53000118dec7,2021-09-27_17h19.25.876,forced_choiceRT_color,2021.2.3,Win32,60.0276127,,,,,,,,9,Ontime,short,j,1,2.0263,5,1,21,2,1,,,,,
1.78,,,,,,,,,j,red,5b71c56d457b53000118dec7,2021-09-27_17h19.25.876,forced_choiceRT_color,2021.2.3,Win32,60.0276127,,,,,,,,9,Slow,short,j,1,2.2827,5,2,22,2,1,,,,,
1.95,,,,,,,,,k,purple,5b71c56d457b53000118dec7,2021-09-27_17h19.25.876,forced_choiceRT_color,2021.2.3,Win32,60.0276127,,,,,,,,9,Slow,short,k,1,2.5086,5,3,23,3,1,,,,,
1.59,,,,,,,,,k,purple,5b71c56d457b53000118dec7,2021-09-27_17h19.25.876,forced_choiceRT_color,2021.2.3,Win32,60.0276127,,,,,,,,9,Slow,short,k,1,2.3387,6,0,24,3,1,,,,,
1.9,,,,,,,,,j,red,5b71c56d457b53000118dec7,2021-09-27_17h19.25.876,forced_choiceRT_color,2021.2.3,Win32,60.0276127,,,,,,,,9,Slow,short,j,1,2.5231,6,1,25,2,1,,,,,
0.49,,,,,,,,,j,red,5b71c56d457b53000118dec7,2021-09-27_17h19.25.876,forced_choiceRT_color,2021.2.3,Win32,60.0276127,,,,,,,,9,Ontime,short,j,1,1.9153,6,2,26,2,1,,,,,
0.24,,,,,,,,,f,blue,5b71c56d457b53000118dec7,2021-09-27_17h19.25.876,forced_choiceRT_color,2021.2.3,Win32,60.0276127,,,,,,,,9,Ontime,short,f,1,1.9723,6,3,27,1,1,,,,,
0.6,,,,,,,,,d,orange,5b71c56d457b53000118dec7,2021-09-27_17h19.25.876,forced_choiceRT_color,2021.2.3,Win32,60.0276127,,,,,,,,9,Fast,short,d,1,1.8181,7,0,28,0,1,,,,,
1.48,,,,,,,,,k,purple,5b71c56d457b53000118dec7,2021-09-27_17h19.25.876,forced_choiceRT_color,2021.2.3,Win32,60.0276127,,,,,,,,9,Ontime,short,k,1,2.0032,7,1,29,3,1,,,,,
1.05,,,,,,,,,d,orange,5b71c56d457b53000118dec7,2021-09-27_17h19.25.876,forced_choiceRT_color,2021.2.3,Win32,60.0276127,,,,,,,,9,Ontime,short,d,1,2.011,7,2,30,0,1,,,,,
1.04,,,,,,,,,d,orange,5b71c56d457b53000118dec7,2021-09-27_17h19.25.876,forced_choiceRT_color,2021.2.3,Win32,60.0276127,,,,,,,,9,Ontime,short,d,1,2.0331,7,3,31,0,1,,,,,
1.42,,,,,,,,,f,blue,5b71c56d457b53000118dec7,2021-09-27_17h19.25.876,forced_choiceRT_color,2021.2.3,Win32,60.0276127,,,,,,,,9,Ontime,short,f,1,1.9919,8,0,32,1,1,,,,,
1.38,,,,,,,,,k,purple,5b71c56d457b53000118dec7,2021-09-27_17h19.25.876,forced_choiceRT_color,2021.2.3,Win32,60.0276127,,,,,,,,9,Ontime,short,k,1,1.9326,8,1,33,3,1,,,,,
1.17,,,,,,,,,k,purple,5b71c56d457b53000118dec7,2021-09-27_17h19.25.876,forced_choiceRT_color,2021.2.3,Win32,60.0276127,,,,,,,,9,Ontime,short,k,1,1.9161,8,2,34,3,1,,,,,
1.35,,,,,,,,,j,red,5b71c56d457b53000118dec7,2021-09-27_17h19.25.876,forced_choiceRT_color,2021.2.3,Win32,60.0276127,,,,,,,,9,Fast,short,j,1,1.8947,8,3,35,2,1,,,,,
0.98,,,,,,,,,k,purple,5b71c56d457b53000118dec7,2021-09-27_17h19.25.876,forced_choiceRT_color,2021.2.3,Win32,60.0276127,,,,,,,,9,Slow,short,k,1,2.2115,9,0,36,3,1,,,,,
1.5,,,,,,,,,f,blue,5b71c56d457b53000118dec7,2021-09-27_17h19.25.876,forced_choiceRT_color,2021.2.3,Win32,60.0276127,,,,,,,,9,Slow,short,j,0,9.5295,9,1,37,1,1,,,,,
0.15,,,,,,,,,k,purple,5b71c56d457b53000118dec7,2021-09-27_17h19.25.876,forced_choiceRT_color,2021.2.3,Win32,60.0276127,,,,,,,,9,Fast,short,k,1,1.6472,9,2,38,3,1,,,,,
1.07,,,,,,,,,f,blue,5b71c56d457b53000118dec7,2021-09-27_17h19.25.876,forced_choiceRT_color,2021.2.3,Win32,60.0276127,,,,,,,,9,Fast,short,j,0,1.6705,9,3,39,1,1,,,,,
,,,,,,,,,,,5b71c56d457b53000118dec7,2021-09-27_17h19.25.876,forced_choiceRT_color,2021.2.3,Win32,60.0276127,,,,,,,,,,,,,,,,,,,8,0,8,0,1
1.46,,,,,,,,,j,red,5b71c56d457b53000118dec7,2021-09-27_17h19.25.876,forced_choiceRT_color,2021.2.3,Win32,60.0276127,,,,,,,,10,Slow,short,j,1,2.1322,0,0,0,2,1,,,,,
1.08,,,,,,,,,f,blue,5b71c56d457b53000118dec7,2021-09-27_17h19.25.876,forced_choiceRT_color,2021.2.3,Win32,60.0276127,,,,,,,,10,Ontime,short,f,1,1.9526,0,1,1,1,1,,,,,
1.5,,,,,,,,,d,orange,5b71c56d457b53000118dec7,2021-09-27_17h19.25.876,forced_choiceRT_color,2021.2.3,Win32,60.0276127,,,,,,,,10,Ontime,short,d,1,2.0208,0,2,2,0,1,,,,,
0.29,,,,,,,,,k,purple,5b71c56d457b53000118dec7,2021-09-27_17h19.25.876,forced_choiceRT_color,2021.2.3,Win32,60.0276127,,,,,,,,10,Ontime,short,k,1,1.9644,0,3,3,3,1,,,,,
0.22,,,,,,,,,k,purple,5b71c56d457b53000118dec7,2021-09-27_17h19.25.876,forced_choiceRT_color,2021.2.3,Win32,60.0276127,,,,,,,,10,Fast,short,k,1,1.8227,1,0,4,3,1,,,,,
0.08,,,,,,,,,f,blue,5b71c56d457b53000118dec7,2021-09-27_17h19.25.876,forced_choiceRT_color,2021.2.3,Win32,60.0276127,,,,,,,,10,Fast,short,f,1,1.8364,1,1,5,1,1,,,,,
1.94,,,,,,,,,d,orange,5b71c56d457b53000118dec7,2021-09-27_17h19.25.876,forced_choiceRT_color,2021.2.3,Win32,60.0276127,,,,,,,,10,Slow,short,d,1,2.579,1,2,6,0,1,,,,,
0.92,,,,,,,,,j,red,5b71c56d457b53000118dec7,2021-09-27_17h19.25.876,forced_choiceRT_color,2021.2.3,Win32,60.0276127,,,,,,,,10,Ontime,short,j,1,1.9569,1,3,7,2,1,,,,,
0.41,,,,,,,,,d,orange,5b71c56d457b53000118dec7,2021-09-27_17h19.25.876,forced_choiceRT_color,2021.2.3,Win32,60.0276127,,,,,,,,10,Ontime,short,d,1,2.0147,2,0,8,0,1,,,,,
0.54,,,,,,,,,f,blue,5b71c56d457b53000118dec7,2021-09-27_17h19.25.876,forced_choiceRT_color,2021.2.3,Win32,60.0276127,,,,,,,,10,Ontime,short,f,1,2.0132,2,1,9,1,1,,,,,
1.22,,,,,,,,,j,red,5b71c56d457b53000118dec7,2021-09-27_17h19.25.876,forced_choiceRT_color,2021.2.3,Win32,60.0276127,,,,,,,,10,Ontime,short,j,1,1.936,2,2,10,2,1,,,,,
0.59,,,,,,,,,j,red,5b71c56d457b53000118dec7,2021-09-27_17h19.25.876,forced_choiceRT_color,2021.2.3,Win32,60.0276127,,,,,,,,10,Ontime,short,j,1,1.9819,2,3,11,2,1,,,,,
0.54,,,,,,,,,f,blue,5b71c56d457b53000118dec7,2021-09-27_17h19.25.876,forced_choiceRT_color,2021.2.3,Win32,60.0276127,,,,,,,,10,Ontime,short,f,1,2.0466,3,0,12,1,1,,,,,
1.34,,,,,,,,,k,purple,5b71c56d457b53000118dec7,2021-09-27_17h19.25.876,forced_choiceRT_color,2021.2.3,Win32,60.0276127,,,,,,,,10,Ontime,short,k,1,1.9019,3,1,13,3,1,,,,,
0.05,,,,,,,,,f,blue,5b71c56d457b53000118dec7,2021-09-27_17h19.25.876,forced_choiceRT_color,2021.2.3,Win32,60.0276127,,,,,,,,10,Ontime,short,f,1,2.0142,3,2,14,1,1,,,,,
1.57,,,,,,,,,f,blue,5b71c56d457b53000118dec7,2021-09-27_17h19.25.876,forced_choiceRT_color,2021.2.3,Win32,60.0276127,,,,,,,,10,Slow,short,j,0,2.1178,3,3,15,1,1,,,,,
0.45,,,,,,,,,k,purple,5b71c56d457b53000118dec7,2021-09-27_17h19.25.876,forced_choiceRT_color,2021.2.3,Win32,60.0276127,,,,,,,,10,Ontime,short,k,1,1.9497,4,0,16,3,1,,,,,
0.17,,,,,,,,,d,orange,5b71c56d457b53000118dec7,2021-09-27_17h19.25.876,forced_choiceRT_color,2021.2.3,Win32,60.0276127,,,,,,,,10,Ontime,short,d,1,2.0091,4,1,17,0,1,,,,,
1.7,,,,,,,,,d,orange,5b71c56d457b53000118dec7,2021-09-27_17h19.25.876,forced_choiceRT_color,2021.2.3,Win32,60.0276127,,,,,,,,10,Slow,short,d,1,2.2065,4,2,18,0,1,,,,,
0.35,,,,,,,,,k,purple,5b71c56d457b53000118dec7,2021-09-27_17h19.25.876,forced_choiceRT_color,2021.2.3,Win32,60.0276127,,,,,,,,10,Ontime,short,k,1,1.9533,4,3,19,3,1,,,,,
0.3,,,,,,,,,k,purple,5b71c56d457b53000118dec7,2021-09-27_17h19.25.876,forced_choiceRT_color,2021.2.3,Win32,60.0276127,,,,,,,,10,Fast,short,k,1,1.7921,5,0,20,3,1,,,,,
0.04,,,,,,,,,k,purple,5b71c56d457b53000118dec7,2021-09-27_17h19.25.876,forced_choiceRT_color,2021.2.3,Win32,60.0276127,,,,,,,,10,Fast,short,k,1,1.6002,5,1,21,3,1,,,,,
0.05,,,,,,,,,j,red,5b71c56d457b53000118dec7,2021-09-27_17h19.25.876,forced_choiceRT_color,2021.2.3,Win32,60.0276127,,,,,,,,10,Fast,short,j,1,1.8788,5,2,22,2,1,,,,,
1.27,,,,,,,,,f,blue,5b71c56d457b53000118dec7,2021-09-27_17h19.25.876,forced_choiceRT_color,2021.2.3,Win32,60.0276127,,,,,,,,10,Ontime,short,f,1,2.0839,5,3,23,1,1,,,,,
1.94,,,,,,,,,d,orange,5b71c56d457b53000118dec7,2021-09-27_17h19.25.876,forced_choiceRT_color,2021.2.3,Win32,60.0276127,,,,,,,,10,Slow,short,d,1,2.3615,6,0,24,0,1,,,,,
1.11,,,,,,,,,j,red,5b71c56d457b53000118dec7,2021-09-27_17h19.25.876,forced_choiceRT_color,2021.2.3,Win32,60.0276127,,,,,,,,10,Ontime,short,j,1,1.9328,6,1,25,2,1,,,,,
1.74,,,,,,,,,k,purple,5b71c56d457b53000118dec7,2021-09-27_17h19.25.876,forced_choiceRT_color,2021.2.3,Win32,60.0276127,,,,,,,,10,Slow,short,k,1,2.3213,6,2,26,3,1,,,,,
1.81,,,,,,,,,j,red,5b71c56d457b53000118dec7,2021-09-27_17h19.25.876,forced_choiceRT_color,2021.2.3,Win32,60.0276127,,,,,,,,10,Slow,short,j,1,2.3872,6,3,27,2,1,,,,,
1.08,,,,,,,,,d,orange,5b71c56d457b53000118dec7,2021-09-27_17h19.25.876,forced_choiceRT_color,2021.2.3,Win32,60.0276127,,,,,,,,10,Ontime,short,d,1,2.0217,7,0,28,0,1,,,,,
1.22,,,,,,,,,j,red,5b71c56d457b53000118dec7,2021-09-27_17h19.25.876,forced_choiceRT_color,2021.2.3,Win32,60.0276127,,,,,,,,10,Ontime,short,j,1,1.9439,7,1,29,2,1,,,,,
0.06,,,,,,,,,d,orange,5b71c56d457b53000118dec7,2021-09-27_17h19.25.876,forced_choiceRT_color,2021.2.3,Win32,60.0276127,,,,,,,,10,Ontime,short,d,1,2.0163,7,2,30,0,1,,,,,
0.46,,,,,,,,,k,purple,5b71c56d457b53000118dec7,2021-09-27_17h19.25.876,forced_choiceRT_color,2021.2.3,Win32,60.0276127,,,,,,,,10,Ontime,short,k,1,1.9146,7,3,31,3,1,,,,,
1.19,,,,,,,,,k,purple,5b71c56d457b53000118dec7,2021-09-27_17h19.25.876,forced_choiceRT_color,2021.2.3,Win32,60.0276127,,,,,,,,10,Ontime,short,j,0,1.9231,8,0,32,3,1,,,,,
0.36,,,,,,,,,f,blue,5b71c56d457b53000118dec7,2021-09-27_17h19.25.876,forced_choiceRT_color,2021.2.3,Win32,60.0276127,,,,,,,,10,Fast,short,k,0,0.0795,8,1,33,1,1,,,,,
0.26,,,,,,,,,j,red,5b71c56d457b53000118dec7,2021-09-27_17h19.25.876,forced_choiceRT_color,2021.2.3,Win32,60.0276127,,,,,,,,10,Ontime,short,j,1,1.9298,8,2,34,2,1,,,,,
1.47,,,,,,,,,f,blue,5b71c56d457b53000118dec7,2021-09-27_17h19.25.876,forced_choiceRT_color,2021.2.3,Win32,60.0276127,,,,,,,,10,Slow,short,f,1,2.2148,8,3,35,1,1,,,,,
0.27,,,,,,,,,j,red,5b71c56d457b53000118dec7,2021-09-27_17h19.25.876,forced_choiceRT_color,2021.2.3,Win32,60.0276127,,,,,,,,10,Ontime,short,j,1,1.9549,9,0,36,2,1,,,,,
1.2,,,,,,,,,d,orange,5b71c56d457b53000118dec7,2021-09-27_17h19.25.876,forced_choiceRT_color,2021.2.3,Win32,60.0276127,,,,,,,,10,Ontime,short,d,1,2.0432,9,1,37,0,1,,,,,
1.39,,,,,,,,,d,orange,5b71c56d457b53000118dec7,2021-09-27_17h19.25.876,forced_choiceRT_color,2021.2.3,Win32,60.0276127,,,,,,,,10,Slow,short,d,1,2.219,9,2,38,0,1,,,,,
0.66,,,,,,,,,f,blue,5b71c56d457b53000118dec7,2021-09-27_17h19.25.876,forced_choiceRT_color,2021.2.3,Win32,60.0276127,,,,,,,,10,Ontime,short,f,1,1.9858,9,3,39,1,1,,,,,
,,,,,,,,,,,5b71c56d457b53000118dec7,2021-09-27_17h19.25.876,forced_choiceRT_color,2021.2.3,Win32,60.0276127,,,,,,,,,,,,,,,,,,,9,0,9,0,1
