IP_Addresss,target_onset,trial_resp_sp.keys,trial_resp_sp.corr,trial_resp_sp.rt,trials_train_loop.thisRepN,trials_train_loop.thisTrialN,trials_train_loop.thisN,trials_train_loop.thisIndex,trials_train_loop.ran,correct_key,color,participant,date,expName,psychopyVersion,OS,frameRate,trial_resp_timing.keys,trial_resp_timing.rt,trials_train_timing.thisRepN,trials_train_timing.thisTrialN,trials_train_timing.thisN,trials_train_timing.thisIndex,trials_train_timing.ran,block_id,ontime,feedback_cond,forcedRT_resp.keys,forcedRT_resp.corr,forcedRT_resp.rt,trials.thisRepN,trials.thisTrialN,trials.thisN,trials.thisIndex,trials.ran,blocks.thisRepN,blocks.thisTrialN,blocks.thisN,blocks.thisIndex,blocks.ran
71.179.204.217,0,k,1,3.365,0,0,0,3,1,k,purple,5c49a5f7cfaf510001550a96,2021-09-27_14h33.40.495,forced_choiceRT_color,2021.2.3,Win32,60.68697657,,,,,,,,,,,,,,,,,,,,,,,
,0,f,1,2.3796,0,1,1,1,1,f,blue,5c49a5f7cfaf510001550a96,2021-09-27_14h33.40.495,forced_choiceRT_color,2021.2.3,Win32,60.68697657,,,,,,,,,,,,,,,,,,,,,,,
,0,d,1,2.9096,0,2,2,0,1,d,orange,5c49a5f7cfaf510001550a96,2021-09-27_14h33.40.495,forced_choiceRT_color,2021.2.3,Win32,60.68697657,,,,,,,,,,,,,,,,,,,,,,,
,0,f,1,1.1469,0,3,3,1,1,f,blue,5c49a5f7cfaf510001550a96,2021-09-27_14h33.40.495,forced_choiceRT_color,2021.2.3,Win32,60.68697657,,,,,,,,,,,,,,,,,,,,,,,
,0,d,1,1.0615,1,0,4,0,1,d,orange,5c49a5f7cfaf510001550a96,2021-09-27_14h33.40.495,forced_choiceRT_color,2021.2.3,Win32,60.68697657,,,,,,,,,,,,,,,,,,,,,,,
,0,f,0,1.1625,1,1,5,0,1,d,orange,5c49a5f7cfaf510001550a96,2021-09-27_14h33.40.495,forced_choiceRT_color,2021.2.3,Win32,60.68697657,,,,,,,,,,,,,,,,,,,,,,,
,0,d,0,0.6462,1,2,6,2,1,j,red,5c49a5f7cfaf510001550a96,2021-09-27_14h33.40.495,forced_choiceRT_color,2021.2.3,Win32,60.68697657,,,,,,,,,,,,,,,,,,,,,,,
,0,k,1,1.48,1,3,7,3,1,k,purple,5c49a5f7cfaf510001550a96,2021-09-27_14h33.40.495,forced_choiceRT_color,2021.2.3,Win32,60.68697657,,,,,,,,,,,,,,,,,,,,,,,
,0,f,1,1.5718,2,0,8,1,1,f,blue,5c49a5f7cfaf510001550a96,2021-09-27_14h33.40.495,forced_choiceRT_color,2021.2.3,Win32,60.68697657,,,,,,,,,,,,,,,,,,,,,,,
,0,f,1,1.6385,2,1,9,1,1,f,blue,5c49a5f7cfaf510001550a96,2021-09-27_14h33.40.495,forced_choiceRT_color,2021.2.3,Win32,60.68697657,,,,,,,,,,,,,,,,,,,,,,,
,0,j,1,1.8392,2,2,10,2,1,j,red,5c49a5f7cfaf510001550a96,2021-09-27_14h33.40.495,forced_choiceRT_color,2021.2.3,Win32,60.68697657,,,,,,,,,,,,,,,,,,,,,,,
,0,j,1,0.8291,2,3,11,2,1,j,red,5c49a5f7cfaf510001550a96,2021-09-27_14h33.40.495,forced_choiceRT_color,2021.2.3,Win32,60.68697657,,,,,,,,,,,,,,,,,,,,,,,
,0,j,1,0.83,3,0,12,2,1,j,red,5c49a5f7cfaf510001550a96,2021-09-27_14h33.40.495,forced_choiceRT_color,2021.2.3,Win32,60.68697657,,,,,,,,,,,,,,,,,,,,,,,
,0,d,1,0.9728,3,1,13,0,1,d,orange,5c49a5f7cfaf510001550a96,2021-09-27_14h33.40.495,forced_choiceRT_color,2021.2.3,Win32,60.68697657,,,,,,,,,,,,,,,,,,,,,,,
,0,k,1,1.2865,3,2,14,3,1,k,purple,5c49a5f7cfaf510001550a96,2021-09-27_14h33.40.495,forced_choiceRT_color,2021.2.3,Win32,60.68697657,,,,,,,,,,,,,,,,,,,,,,,
,0,f,1,1.1714,3,3,15,1,1,f,blue,5c49a5f7cfaf510001550a96,2021-09-27_14h33.40.495,forced_choiceRT_color,2021.2.3,Win32,60.68697657,,,,,,,,,,,,,,,,,,,,,,,
,0,f,1,0.8132,4,0,16,1,1,f,blue,5c49a5f7cfaf510001550a96,2021-09-27_14h33.40.495,forced_choiceRT_color,2021.2.3,Win32,60.68697657,,,,,,,,,,,,,,,,,,,,,,,
,0,k,1,0.8054,4,1,17,3,1,k,purple,5c49a5f7cfaf510001550a96,2021-09-27_14h33.40.495,forced_choiceRT_color,2021.2.3,Win32,60.68697657,,,,,,,,,,,,,,,,,,,,,,,
,0,k,1,0.8204,4,2,18,3,1,k,purple,5c49a5f7cfaf510001550a96,2021-09-27_14h33.40.495,forced_choiceRT_color,2021.2.3,Win32,60.68697657,,,,,,,,,,,,,,,,,,,,,,,
,0,j,1,1.0748,4,3,19,2,1,j,red,5c49a5f7cfaf510001550a96,2021-09-27_14h33.40.495,forced_choiceRT_color,2021.2.3,Win32,60.68697657,,,,,,,,,,,,,,,,,,,,,,,
,0,j,1,0.8032,5,0,20,2,1,j,red,5c49a5f7cfaf510001550a96,2021-09-27_14h33.40.495,forced_choiceRT_color,2021.2.3,Win32,60.68697657,,,,,,,,,,,,,,,,,,,,,,,
,0,f,1,0.8715,5,1,21,1,1,f,blue,5c49a5f7cfaf510001550a96,2021-09-27_14h33.40.495,forced_choiceRT_color,2021.2.3,Win32,60.68697657,,,,,,,,,,,,,,,,,,,,,,,
,0,d,1,0.8652,5,2,22,0,1,d,orange,5c49a5f7cfaf510001550a96,2021-09-27_14h33.40.495,forced_choiceRT_color,2021.2.3,Win32,60.68697657,,,,,,,,,,,,,,,,,,,,,,,
,0,f,1,0.7377,5,3,23,1,1,f,blue,5c49a5f7cfaf510001550a96,2021-09-27_14h33.40.495,forced_choiceRT_color,2021.2.3,Win32,60.68697657,,,,,,,,,,,,,,,,,,,,,,,
,0,d,1,0.7245,6,0,24,0,1,d,orange,5c49a5f7cfaf510001550a96,2021-09-27_14h33.40.495,forced_choiceRT_color,2021.2.3,Win32,60.68697657,,,,,,,,,,,,,,,,,,,,,,,
,0,d,1,0.6976,6,1,25,0,1,d,orange,5c49a5f7cfaf510001550a96,2021-09-27_14h33.40.495,forced_choiceRT_color,2021.2.3,Win32,60.68697657,,,,,,,,,,,,,,,,,,,,,,,
,0,k,1,0.7871,6,2,26,3,1,k,purple,5c49a5f7cfaf510001550a96,2021-09-27_14h33.40.495,forced_choiceRT_color,2021.2.3,Win32,60.68697657,,,,,,,,,,,,,,,,,,,,,,,
,0,d,1,0.6878,6,3,27,0,1,d,orange,5c49a5f7cfaf510001550a96,2021-09-27_14h33.40.495,forced_choiceRT_color,2021.2.3,Win32,60.68697657,,,,,,,,,,,,,,,,,,,,,,,
,0,f,1,0.8549,7,0,28,1,1,f,blue,5c49a5f7cfaf510001550a96,2021-09-27_14h33.40.495,forced_choiceRT_color,2021.2.3,Win32,60.68697657,,,,,,,,,,,,,,,,,,,,,,,
,0,k,1,0.687,7,1,29,3,1,k,purple,5c49a5f7cfaf510001550a96,2021-09-27_14h33.40.495,forced_choiceRT_color,2021.2.3,Win32,60.68697657,,,,,,,,,,,,,,,,,,,,,,,
,0,d,1,0.8537,7,2,30,0,1,d,orange,5c49a5f7cfaf510001550a96,2021-09-27_14h33.40.495,forced_choiceRT_color,2021.2.3,Win32,60.68697657,,,,,,,,,,,,,,,,,,,,,,,
,0,j,1,2.8354,7,3,31,2,1,j,red,5c49a5f7cfaf510001550a96,2021-09-27_14h33.40.495,forced_choiceRT_color,2021.2.3,Win32,60.68697657,,,,,,,,,,,,,,,,,,,,,,,
,0,d,1,10.1997,8,0,32,0,1,d,orange,5c49a5f7cfaf510001550a96,2021-09-27_14h33.40.495,forced_choiceRT_color,2021.2.3,Win32,60.68697657,,,,,,,,,,,,,,,,,,,,,,,
,0,j,1,1.5657,8,1,33,2,1,j,red,5c49a5f7cfaf510001550a96,2021-09-27_14h33.40.495,forced_choiceRT_color,2021.2.3,Win32,60.68697657,,,,,,,,,,,,,,,,,,,,,,,
,0,j,1,1.1789,8,2,34,2,1,j,red,5c49a5f7cfaf510001550a96,2021-09-27_14h33.40.495,forced_choiceRT_color,2021.2.3,Win32,60.68697657,,,,,,,,,,,,,,,,,,,,,,,
,0,k,1,0.6872,8,3,35,3,1,k,purple,5c49a5f7cfaf510001550a96,2021-09-27_14h33.40.495,forced_choiceRT_color,2021.2.3,Win32,60.68697657,,,,,,,,,,,,,,,,,,,,,,,
,0,j,1,0.717,9,0,36,2,1,j,red,5c49a5f7cfaf510001550a96,2021-09-27_14h33.40.495,forced_choiceRT_color,2021.2.3,Win32,60.68697657,,,,,,,,,,,,,,,,,,,,,,,
,0,d,0,0.7545,9,1,37,1,1,f,blue,5c49a5f7cfaf510001550a96,2021-09-27_14h33.40.495,forced_choiceRT_color,2021.2.3,Win32,60.68697657,,,,,,,,,,,,,,,,,,,,,,,
,0,f,1,2.3554,9,2,38,1,1,f,blue,5c49a5f7cfaf510001550a96,2021-09-27_14h33.40.495,forced_choiceRT_color,2021.2.3,Win32,60.68697657,,,,,,,,,,,,,,,,,,,,,,,
,0,d,1,0.7206,9,3,39,0,1,d,orange,5c49a5f7cfaf510001550a96,2021-09-27_14h33.40.495,forced_choiceRT_color,2021.2.3,Win32,60.68697657,,,,,,,,,,,,,,,,,,,,,,,
,0,k,1,0.6889,10,0,40,3,1,k,purple,5c49a5f7cfaf510001550a96,2021-09-27_14h33.40.495,forced_choiceRT_color,2021.2.3,Win32,60.68697657,,,,,,,,,,,,,,,,,,,,,,,
,0,f,1,0.7429,10,1,41,1,1,f,blue,5c49a5f7cfaf510001550a96,2021-09-27_14h33.40.495,forced_choiceRT_color,2021.2.3,Win32,60.68697657,,,,,,,,,,,,,,,,,,,,,,,
,0,d,1,0.7876,10,2,42,0,1,d,orange,5c49a5f7cfaf510001550a96,2021-09-27_14h33.40.495,forced_choiceRT_color,2021.2.3,Win32,60.68697657,,,,,,,,,,,,,,,,,,,,,,,
,0,k,1,0.8529,10,3,43,3,1,k,purple,5c49a5f7cfaf510001550a96,2021-09-27_14h33.40.495,forced_choiceRT_color,2021.2.3,Win32,60.68697657,,,,,,,,,,,,,,,,,,,,,,,
,0,j,1,0.7816,11,0,44,2,1,j,red,5c49a5f7cfaf510001550a96,2021-09-27_14h33.40.495,forced_choiceRT_color,2021.2.3,Win32,60.68697657,,,,,,,,,,,,,,,,,,,,,,,
,0,j,1,0.8389,11,1,45,2,1,j,red,5c49a5f7cfaf510001550a96,2021-09-27_14h33.40.495,forced_choiceRT_color,2021.2.3,Win32,60.68697657,,,,,,,,,,,,,,,,,,,,,,,
,0,k,1,0.6403,11,2,46,3,1,k,purple,5c49a5f7cfaf510001550a96,2021-09-27_14h33.40.495,forced_choiceRT_color,2021.2.3,Win32,60.68697657,,,,,,,,,,,,,,,,,,,,,,,
,0,d,1,0.6835,11,3,47,0,1,d,orange,5c49a5f7cfaf510001550a96,2021-09-27_14h33.40.495,forced_choiceRT_color,2021.2.3,Win32,60.68697657,,,,,,,,,,,,,,,,,,,,,,,
,0,f,1,0.6232,12,0,48,1,1,f,blue,5c49a5f7cfaf510001550a96,2021-09-27_14h33.40.495,forced_choiceRT_color,2021.2.3,Win32,60.68697657,,,,,,,,,,,,,,,,,,,,,,,
,0,k,1,0.6094,12,1,49,3,1,k,purple,5c49a5f7cfaf510001550a96,2021-09-27_14h33.40.495,forced_choiceRT_color,2021.2.3,Win32,60.68697657,,,,,,,,,,,,,,,,,,,,,,,
,0,d,1,0.6357,12,2,50,0,1,d,orange,5c49a5f7cfaf510001550a96,2021-09-27_14h33.40.495,forced_choiceRT_color,2021.2.3,Win32,60.68697657,,,,,,,,,,,,,,,,,,,,,,,
,0,k,1,0.7838,12,3,51,3,1,k,purple,5c49a5f7cfaf510001550a96,2021-09-27_14h33.40.495,forced_choiceRT_color,2021.2.3,Win32,60.68697657,,,,,,,,,,,,,,,,,,,,,,,
,0,f,1,0.6996,13,0,52,1,1,f,blue,5c49a5f7cfaf510001550a96,2021-09-27_14h33.40.495,forced_choiceRT_color,2021.2.3,Win32,60.68697657,,,,,,,,,,,,,,,,,,,,,,,
,0,k,1,0.8037,13,1,53,3,1,k,purple,5c49a5f7cfaf510001550a96,2021-09-27_14h33.40.495,forced_choiceRT_color,2021.2.3,Win32,60.68697657,,,,,,,,,,,,,,,,,,,,,,,
,0,j,1,0.7544,13,2,54,2,1,j,red,5c49a5f7cfaf510001550a96,2021-09-27_14h33.40.495,forced_choiceRT_color,2021.2.3,Win32,60.68697657,,,,,,,,,,,,,,,,,,,,,,,
,0,j,1,0.7533,13,3,55,2,1,j,red,5c49a5f7cfaf510001550a96,2021-09-27_14h33.40.495,forced_choiceRT_color,2021.2.3,Win32,60.68697657,,,,,,,,,,,,,,,,,,,,,,,
,0,k,1,0.6262,14,0,56,3,1,k,purple,5c49a5f7cfaf510001550a96,2021-09-27_14h33.40.495,forced_choiceRT_color,2021.2.3,Win32,60.68697657,,,,,,,,,,,,,,,,,,,,,,,
,0,f,1,0.8121,14,1,57,1,1,f,blue,5c49a5f7cfaf510001550a96,2021-09-27_14h33.40.495,forced_choiceRT_color,2021.2.3,Win32,60.68697657,,,,,,,,,,,,,,,,,,,,,,,
,0,d,1,0.7207,14,2,58,0,1,d,orange,5c49a5f7cfaf510001550a96,2021-09-27_14h33.40.495,forced_choiceRT_color,2021.2.3,Win32,60.68697657,,,,,,,,,,,,,,,,,,,,,,,
,0,j,1,0.8572,14,3,59,2,1,j,red,5c49a5f7cfaf510001550a96,2021-09-27_14h33.40.495,forced_choiceRT_color,2021.2.3,Win32,60.68697657,,,,,,,,,,,,,,,,,,,,,,,
,,,,,,,,,,,,5c49a5f7cfaf510001550a96,2021-09-27_14h33.40.495,forced_choiceRT_color,2021.2.3,Win32,60.68697657,j,2.3424,0,0,0,0,1,,,,,,,,,,,,,,,,
,,,,,,,,,,,,5c49a5f7cfaf510001550a96,2021-09-27_14h33.40.495,forced_choiceRT_color,2021.2.3,Win32,60.68697657,k,2.2172,1,0,1,0,1,,,,,,,,,,,,,,,,
,,,,,,,,,,,,5c49a5f7cfaf510001550a96,2021-09-27_14h33.40.495,forced_choiceRT_color,2021.2.3,Win32,60.68697657,d,1.8041,2,0,2,0,1,,,,,,,,,,,,,,,,
,,,,,,,,,,,,5c49a5f7cfaf510001550a96,2021-09-27_14h33.40.495,forced_choiceRT_color,2021.2.3,Win32,60.68697657,d,2.2497,3,0,3,0,1,,,,,,,,,,,,,,,,
,,,,,,,,,,,,5c49a5f7cfaf510001550a96,2021-09-27_14h33.40.495,forced_choiceRT_color,2021.2.3,Win32,60.68697657,j,2.2247,4,0,4,0,1,,,,,,,,,,,,,,,,
,,,,,,,,,,,,5c49a5f7cfaf510001550a96,2021-09-27_14h33.40.495,forced_choiceRT_color,2021.2.3,Win32,60.68697657,k,2.2552,5,0,5,0,1,,,,,,,,,,,,,,,,
,,,,,,,,,,,,5c49a5f7cfaf510001550a96,2021-09-27_14h33.40.495,forced_choiceRT_color,2021.2.3,Win32,60.68697657,j,2.0935,6,0,6,0,1,,,,,,,,,,,,,,,,
,,,,,,,,,,,,5c49a5f7cfaf510001550a96,2021-09-27_14h33.40.495,forced_choiceRT_color,2021.2.3,Win32,60.68697657,j,2.2445,7,0,7,0,1,,,,,,,,,,,,,,,,
,,,,,,,,,,,,5c49a5f7cfaf510001550a96,2021-09-27_14h33.40.495,forced_choiceRT_color,2021.2.3,Win32,60.68697657,j,2.0161,8,0,8,0,1,,,,,,,,,,,,,,,,
,,,,,,,,,,,,5c49a5f7cfaf510001550a96,2021-09-27_14h33.40.495,forced_choiceRT_color,2021.2.3,Win32,60.68697657,j,1.9767,9,0,9,0,1,,,,,,,,,,,,,,,,
,,,,,,,,,,,,5c49a5f7cfaf510001550a96,2021-09-27_14h33.40.495,forced_choiceRT_color,2021.2.3,Win32,60.68697657,j,2.097,10,0,10,0,1,,,,,,,,,,,,,,,,
,,,,,,,,,,,,5c49a5f7cfaf510001550a96,2021-09-27_14h33.40.495,forced_choiceRT_color,2021.2.3,Win32,60.68697657,j,2.0792,11,0,11,0,1,,,,,,,,,,,,,,,,
,,,,,,,,,,,,5c49a5f7cfaf510001550a96,2021-09-27_14h33.40.495,forced_choiceRT_color,2021.2.3,Win32,60.68697657,k,2.2601,12,0,12,0,1,,,,,,,,,,,,,,,,
,,,,,,,,,,,,5c49a5f7cfaf510001550a96,2021-09-27_14h33.40.495,forced_choiceRT_color,2021.2.3,Win32,60.68697657,j,2.0052,13,0,13,0,1,,,,,,,,,,,,,,,,
,,,,,,,,,,,,5c49a5f7cfaf510001550a96,2021-09-27_14h33.40.495,forced_choiceRT_color,2021.2.3,Win32,60.68697657,j,2.1465,14,0,14,0,1,,,,,,,,,,,,,,,,
,,,,,,,,,,,,5c49a5f7cfaf510001550a96,2021-09-27_14h33.40.495,forced_choiceRT_color,2021.2.3,Win32,60.68697657,f,2.0865,15,0,15,0,1,,,,,,,,,,,,,,,,
,,,,,,,,,,,,5c49a5f7cfaf510001550a96,2021-09-27_14h33.40.495,forced_choiceRT_color,2021.2.3,Win32,60.68697657,f,2.0651,16,0,16,0,1,,,,,,,,,,,,,,,,
,,,,,,,,,,,,5c49a5f7cfaf510001550a96,2021-09-27_14h33.40.495,forced_choiceRT_color,2021.2.3,Win32,60.68697657,f,1.9677,17,0,17,0,1,,,,,,,,,,,,,,,,
,,,,,,,,,,,,5c49a5f7cfaf510001550a96,2021-09-27_14h33.40.495,forced_choiceRT_color,2021.2.3,Win32,60.68697657,f,2.0436,18,0,18,0,1,,,,,,,,,,,,,,,,
,,,,,,,,,,,,5c49a5f7cfaf510001550a96,2021-09-27_14h33.40.495,forced_choiceRT_color,2021.2.3,Win32,60.68697657,f,2.2545,19,0,19,0,1,,,,,,,,,,,,,,,,
,0.54,,,,,,,,,k,purple,5c49a5f7cfaf510001550a96,2021-09-27_14h33.40.495,forced_choiceRT_color,2021.2.3,Win32,60.68697657,,,,,,,,1,Fast,short,k,1,1.742,0,0,0,3,1,,,,,
,1.36,,,,,,,,,f,blue,5c49a5f7cfaf510001550a96,2021-09-27_14h33.40.495,forced_choiceRT_color,2021.2.3,Win32,60.68697657,,,,,,,,1,Ontime,short,d,0,2.0331,0,1,1,1,1,,,,,
,1.67,,,,,,,,,k,purple,5c49a5f7cfaf510001550a96,2021-09-27_14h33.40.495,forced_choiceRT_color,2021.2.3,Win32,60.68697657,,,,,,,,1,Fast,short,f,0,1.8917,0,2,2,3,1,,,,,
,0.71,,,,,,,,,f,blue,5c49a5f7cfaf510001550a96,2021-09-27_14h33.40.495,forced_choiceRT_color,2021.2.3,Win32,60.68697657,,,,,,,,1,Fast,short,f,1,1.6849,0,3,3,1,1,,,,,
,1.64,,,,,,,,,f,blue,5c49a5f7cfaf510001550a96,2021-09-27_14h33.40.495,forced_choiceRT_color,2021.2.3,Win32,60.68697657,,,,,,,,1,Ontime,short,f,1,1.9826,1,0,4,1,1,,,,,
,1.77,,,,,,,,,k,purple,5c49a5f7cfaf510001550a96,2021-09-27_14h33.40.495,forced_choiceRT_color,2021.2.3,Win32,60.68697657,,,,,,,,1,Fast,short,f,0,1.8631,1,1,5,3,1,,,,,
,0.34,,,,,,,,,d,orange,5c49a5f7cfaf510001550a96,2021-09-27_14h33.40.495,forced_choiceRT_color,2021.2.3,Win32,60.68697657,,,,,,,,1,Fast,short,d,1,1.4898,1,2,6,0,1,,,,,
,0.56,,,,,,,,,j,red,5c49a5f7cfaf510001550a96,2021-09-27_14h33.40.495,forced_choiceRT_color,2021.2.3,Win32,60.68697657,,,,,,,,1,Slow,short,d,0,2.1625,1,3,7,2,1,,,,,
,1.9,,,,,,,,,j,red,5c49a5f7cfaf510001550a96,2021-09-27_14h33.40.495,forced_choiceRT_color,2021.2.3,Win32,60.68697657,,,,,,,,1,Slow,short,j,1,2.1945,2,0,8,2,1,,,,,
,1.64,,,,,,,,,d,orange,5c49a5f7cfaf510001550a96,2021-09-27_14h33.40.495,forced_choiceRT_color,2021.2.3,Win32,60.68697657,,,,,,,,1,Slow,short,j,0,2.1462,2,1,9,0,1,,,,,
,1.36,,,,,,,,,j,red,5c49a5f7cfaf510001550a96,2021-09-27_14h33.40.495,forced_choiceRT_color,2021.2.3,Win32,60.68697657,,,,,,,,1,Slow,short,j,1,2.1076,2,2,10,2,1,,,,,
,1.15,,,,,,,,,k,purple,5c49a5f7cfaf510001550a96,2021-09-27_14h33.40.495,forced_choiceRT_color,2021.2.3,Win32,60.68697657,,,,,,,,1,Ontime,short,k,1,2.081,2,3,11,3,1,,,,,
,0.96,,,,,,,,,j,red,5c49a5f7cfaf510001550a96,2021-09-27_14h33.40.495,forced_choiceRT_color,2021.2.3,Win32,60.68697657,,,,,,,,1,Ontime,short,f,0,2.0029,3,0,12,2,1,,,,,
,1.28,,,,,,,,,f,blue,5c49a5f7cfaf510001550a96,2021-09-27_14h33.40.495,forced_choiceRT_color,2021.2.3,Win32,60.68697657,,,,,,,,1,Fast,short,d,0,0.0827,3,1,13,1,1,,,,,
,1.02,,,,,,,,,j,red,5c49a5f7cfaf510001550a96,2021-09-27_14h33.40.495,forced_choiceRT_color,2021.2.3,Win32,60.68697657,,,,,,,,1,Ontime,short,j,1,1.9745,3,2,14,2,1,,,,,
,0.13,,,,,,,,,k,purple,5c49a5f7cfaf510001550a96,2021-09-27_14h33.40.495,forced_choiceRT_color,2021.2.3,Win32,60.68697657,,,,,,,,1,Fast,short,k,1,1.7588,3,3,15,3,1,,,,,
,0.8,,,,,,,,,f,blue,5c49a5f7cfaf510001550a96,2021-09-27_14h33.40.495,forced_choiceRT_color,2021.2.3,Win32,60.68697657,,,,,,,,1,Ontime,short,d,0,1.9661,4,0,16,1,1,,,,,
,1.32,,,,,,,,,f,blue,5c49a5f7cfaf510001550a96,2021-09-27_14h33.40.495,forced_choiceRT_color,2021.2.3,Win32,60.68697657,,,,,,,,1,Ontime,short,d,0,1.9097,4,1,17,1,1,,,,,
,1.32,,,,,,,,,f,blue,5c49a5f7cfaf510001550a96,2021-09-27_14h33.40.495,forced_choiceRT_color,2021.2.3,Win32,60.68697657,,,,,,,,1,Fast,short,d,0,1.823,4,2,18,1,1,,,,,
,1.82,,,,,,,,,k,purple,5c49a5f7cfaf510001550a96,2021-09-27_14h33.40.495,forced_choiceRT_color,2021.2.3,Win32,60.68697657,,,,,,,,1,Slow,short,k,1,2.5349,4,3,19,3,1,,,,,
,1.06,,,,,,,,,d,orange,5c49a5f7cfaf510001550a96,2021-09-27_14h33.40.495,forced_choiceRT_color,2021.2.3,Win32,60.68697657,,,,,,,,1,Slow,short,d,1,2.1434,5,0,20,0,1,,,,,
,0.89,,,,,,,,,d,orange,5c49a5f7cfaf510001550a96,2021-09-27_14h33.40.495,forced_choiceRT_color,2021.2.3,Win32,60.68697657,,,,,,,,1,Slow,short,j,0,2.122,5,1,21,0,1,,,,,
,0.92,,,,,,,,,j,red,5c49a5f7cfaf510001550a96,2021-09-27_14h33.40.495,forced_choiceRT_color,2021.2.3,Win32,60.68697657,,,,,,,,1,Slow,short,j,1,2.2487,5,2,22,2,1,,,,,
,0.96,,,,,,,,,k,purple,5c49a5f7cfaf510001550a96,2021-09-27_14h33.40.495,forced_choiceRT_color,2021.2.3,Win32,60.68697657,,,,,,,,1,Slow,short,k,1,2.1186,5,3,23,3,1,,,,,
,1.02,,,,,,,,,d,orange,5c49a5f7cfaf510001550a96,2021-09-27_14h33.40.495,forced_choiceRT_color,2021.2.3,Win32,60.68697657,,,,,,,,1,Ontime,short,f,0,1.9253,6,0,24,0,1,,,,,
,1.79,,,,,,,,,j,red,5c49a5f7cfaf510001550a96,2021-09-27_14h33.40.495,forced_choiceRT_color,2021.2.3,Win32,60.68697657,,,,,,,,1,Fast,short,f,0,1.7271,6,1,25,2,1,,,,,
,1.14,,,,,,,,,f,blue,5c49a5f7cfaf510001550a96,2021-09-27_14h33.40.495,forced_choiceRT_color,2021.2.3,Win32,60.68697657,,,,,,,,1,Fast,short,f,1,1.8667,6,2,26,1,1,,,,,
,0.73,,,,,,,,,j,red,5c49a5f7cfaf510001550a96,2021-09-27_14h33.40.495,forced_choiceRT_color,2021.2.3,Win32,60.68697657,,,,,,,,1,Fast,short,f,0,1.8903,6,3,27,2,1,,,,,
,0.62,,,,,,,,,k,purple,5c49a5f7cfaf510001550a96,2021-09-27_14h33.40.495,forced_choiceRT_color,2021.2.3,Win32,60.68697657,,,,,,,,1,Fast,short,k,1,1.8888,7,0,28,3,1,,,,,
,0.52,,,,,,,,,j,red,5c49a5f7cfaf510001550a96,2021-09-27_14h33.40.495,forced_choiceRT_color,2021.2.3,Win32,60.68697657,,,,,,,,1,Ontime,short,d,0,2.0032,7,1,29,2,1,,,,,
,1.27,,,,,,,,,f,blue,5c49a5f7cfaf510001550a96,2021-09-27_14h33.40.495,forced_choiceRT_color,2021.2.3,Win32,60.68697657,,,,,,,,1,Slow,short,d,0,2.1974,7,2,30,1,1,,,,,
,1.81,,,,,,,,,k,purple,5c49a5f7cfaf510001550a96,2021-09-27_14h33.40.495,forced_choiceRT_color,2021.2.3,Win32,60.68697657,,,,,,,,1,Fast,short,d,0,1.7255,7,3,31,3,1,,,,,
,1.96,,,,,,,,,d,orange,5c49a5f7cfaf510001550a96,2021-09-27_14h33.40.495,forced_choiceRT_color,2021.2.3,Win32,60.68697657,,,,,,,,1,Slow,short,j,0,2.2736,8,0,32,0,1,,,,,
,0.64,,,,,,,,,k,purple,5c49a5f7cfaf510001550a96,2021-09-27_14h33.40.495,forced_choiceRT_color,2021.2.3,Win32,60.68697657,,,,,,,,1,Slow,short,k,1,2.1383,8,1,33,3,1,,,,,
,0.44,,,,,,,,,d,orange,5c49a5f7cfaf510001550a96,2021-09-27_14h33.40.495,forced_choiceRT_color,2021.2.3,Win32,60.68697657,,,,,,,,1,Slow,short,d,1,2.1221,8,2,34,0,1,,,,,
,0.74,,,,,,,,,d,orange,5c49a5f7cfaf510001550a96,2021-09-27_14h33.40.495,forced_choiceRT_color,2021.2.3,Win32,60.68697657,,,,,,,,1,Ontime,short,d,1,1.941,8,3,35,0,1,,,,,
,0.92,,,,,,,,,j,red,5c49a5f7cfaf510001550a96,2021-09-27_14h33.40.495,forced_choiceRT_color,2021.2.3,Win32,60.68697657,,,,,,,,1,Slow,short,f,0,2.1896,9,0,36,2,1,,,,,
,0.99,,,,,,,,,d,orange,5c49a5f7cfaf510001550a96,2021-09-27_14h33.40.495,forced_choiceRT_color,2021.2.3,Win32,60.68697657,,,,,,,,1,Ontime,short,d,1,1.9675,9,1,37,0,1,,,,,
,0.16,,,,,,,,,f,blue,5c49a5f7cfaf510001550a96,2021-09-27_14h33.40.495,forced_choiceRT_color,2021.2.3,Win32,60.68697657,,,,,,,,1,Ontime,short,f,1,1.9568,9,2,38,1,1,,,,,
,1.06,,,,,,,,,d,orange,5c49a5f7cfaf510001550a96,2021-09-27_14h33.40.495,forced_choiceRT_color,2021.2.3,Win32,60.68697657,,,,,,,,1,Ontime,short,d,1,1.9218,9,3,39,0,1,,,,,
,,,,,,,,,,,,5c49a5f7cfaf510001550a96,2021-09-27_14h33.40.495,forced_choiceRT_color,2021.2.3,Win32,60.68697657,,,,,,,,,,,,,,,,,,,0,0,0,0,1
,0.41,,,,,,,,,k,purple,5c49a5f7cfaf510001550a96,2021-09-27_14h33.40.495,forced_choiceRT_color,2021.2.3,Win32,60.68697657,,,,,,,,2,Slow,short,k,1,2.2307,0,0,0,3,1,,,,,
,1.87,,,,,,,,,f,blue,5c49a5f7cfaf510001550a96,2021-09-27_14h33.40.495,forced_choiceRT_color,2021.2.3,Win32,60.68697657,,,,,,,,2,Ontime,short,k,0,2.0357,0,1,1,1,1,,,,,
,0.98,,,,,,,,,j,red,5c49a5f7cfaf510001550a96,2021-09-27_14h33.40.495,forced_choiceRT_color,2021.2.3,Win32,60.68697657,,,,,,,,2,Ontime,short,f,0,2.0709,0,2,2,2,1,,,,,
,0.76,,,,,,,,,f,blue,5c49a5f7cfaf510001550a96,2021-09-27_14h33.40.495,forced_choiceRT_color,2021.2.3,Win32,60.68697657,,,,,,,,2,Fast,short,d,0,1.8323,0,3,3,1,1,,,,,
,0.13,,,,,,,,,k,purple,5c49a5f7cfaf510001550a96,2021-09-27_14h33.40.495,forced_choiceRT_color,2021.2.3,Win32,60.68697657,,,,,,,,2,Ontime,short,k,1,2.0651,1,0,4,3,1,,,,,
,1.01,,,,,,,,,f,blue,5c49a5f7cfaf510001550a96,2021-09-27_14h33.40.495,forced_choiceRT_color,2021.2.3,Win32,60.68697657,,,,,,,,2,Ontime,short,f,1,2.0588,1,1,5,1,1,,,,,
,1.89,,,,,,,,,k,purple,5c49a5f7cfaf510001550a96,2021-09-27_14h33.40.495,forced_choiceRT_color,2021.2.3,Win32,60.68697657,,,,,,,,2,Ontime,short,k,1,1.9373,1,2,6,3,1,,,,,
,1.02,,,,,,,,,d,orange,5c49a5f7cfaf510001550a96,2021-09-27_14h33.40.495,forced_choiceRT_color,2021.2.3,Win32,60.68697657,,,,,,,,2,Ontime,short,k,0,1.9088,1,3,7,0,1,,,,,
,0.02,,,,,,,,,j,red,5c49a5f7cfaf510001550a96,2021-09-27_14h33.40.495,forced_choiceRT_color,2021.2.3,Win32,60.68697657,,,,,,,,2,Fast,short,k,0,1.5888,2,0,8,2,1,,,,,
,0.99,,,,,,,,,d,orange,5c49a5f7cfaf510001550a96,2021-09-27_14h33.40.495,forced_choiceRT_color,2021.2.3,Win32,60.68697657,,,,,,,,2,Ontime,short,k,0,1.9576,2,1,9,0,1,,,,,
,0.88,,,,,,,,,d,orange,5c49a5f7cfaf510001550a96,2021-09-27_14h33.40.495,forced_choiceRT_color,2021.2.3,Win32,60.68697657,,,,,,,,2,Ontime,short,f,0,2.0127,2,2,10,0,1,,,,,
,1.21,,,,,,,,,k,purple,5c49a5f7cfaf510001550a96,2021-09-27_14h33.40.495,forced_choiceRT_color,2021.2.3,Win32,60.68697657,,,,,,,,2,Slow,short,k,1,2.2101,2,3,11,3,1,,,,,
,0.46,,,,,,,,,f,blue,5c49a5f7cfaf510001550a96,2021-09-27_14h33.40.495,forced_choiceRT_color,2021.2.3,Win32,60.68697657,,,,,,,,2,Fast,short,d,0,1.8411,3,0,12,1,1,,,,,
,1.42,,,,,,,,,j,red,5c49a5f7cfaf510001550a96,2021-09-27_14h33.40.495,forced_choiceRT_color,2021.2.3,Win32,60.68697657,,,,,,,,2,Fast,short,k,0,1.8728,3,1,13,2,1,,,,,
,0.68,,,,,,,,,k,purple,5c49a5f7cfaf510001550a96,2021-09-27_14h33.40.495,forced_choiceRT_color,2021.2.3,Win32,60.68697657,,,,,,,,2,Fast,short,k,1,1.8745,3,2,14,3,1,,,,,
,0.16,,,,,,,,,f,blue,5c49a5f7cfaf510001550a96,2021-09-27_14h33.40.495,forced_choiceRT_color,2021.2.3,Win32,60.68697657,,,,,,,,2,Ontime,short,k,0,1.9874,3,3,15,1,1,,,,,
,0.73,,,,,,,,,k,purple,5c49a5f7cfaf510001550a96,2021-09-27_14h33.40.495,forced_choiceRT_color,2021.2.3,Win32,60.68697657,,,,,,,,2,Slow,short,k,1,2.2235,4,0,16,3,1,,,,,
,0.79,,,,,,,,,j,red,5c49a5f7cfaf510001550a96,2021-09-27_14h33.40.495,forced_choiceRT_color,2021.2.3,Win32,60.68697657,,,,,,,,2,Ontime,short,k,0,1.9237,4,1,17,2,1,,,,,
,1.38,,,,,,,,,j,red,5c49a5f7cfaf510001550a96,2021-09-27_14h33.40.495,forced_choiceRT_color,2021.2.3,Win32,60.68697657,,,,,,,,2,Fast,short,k,0,1.8852,4,2,18,2,1,,,,,
,1.17,,,,,,,,,f,blue,5c49a5f7cfaf510001550a96,2021-09-27_14h33.40.495,forced_choiceRT_color,2021.2.3,Win32,60.68697657,,,,,,,,2,Ontime,short,k,0,2.075,4,3,19,1,1,,,,,
,0.02,,,,,,,,,d,orange,5c49a5f7cfaf510001550a96,2021-09-27_14h33.40.495,forced_choiceRT_color,2021.2.3,Win32,60.68697657,,,,,,,,2,Slow,short,k,0,2.1656,5,0,20,0,1,,,,,
,1.54,,,,,,,,,j,red,5c49a5f7cfaf510001550a96,2021-09-27_14h33.40.495,forced_choiceRT_color,2021.2.3,Win32,60.68697657,,,,,,,,2,Slow,short,f,0,2.3582,5,1,21,2,1,,,,,
,0.7,,,,,,,,,j,red,5c49a5f7cfaf510001550a96,2021-09-27_14h33.40.495,forced_choiceRT_color,2021.2.3,Win32,60.68697657,,,,,,,,2,Fast,short,f,0,1.8891,5,2,22,2,1,,,,,
,1.48,,,,,,,,,j,red,5c49a5f7cfaf510001550a96,2021-09-27_14h33.40.495,forced_choiceRT_color,2021.2.3,Win32,60.68697657,,,,,,,,2,Ontime,short,f,0,2.0047,5,3,23,2,1,,,,,
,0.11,,,,,,,,,f,blue,5c49a5f7cfaf510001550a96,2021-09-27_14h33.40.495,forced_choiceRT_color,2021.2.3,Win32,60.68697657,,,,,,,,2,Fast,short,j,0,1.7695,6,0,24,1,1,,,,,
,0.15,,,,,,,,,j,red,5c49a5f7cfaf510001550a96,2021-09-27_14h33.40.495,forced_choiceRT_color,2021.2.3,Win32,60.68697657,,,,,,,,2,Fast,short,f,0,1.7895,6,1,25,2,1,,,,,
,1.84,,,,,,,,,k,purple,5c49a5f7cfaf510001550a96,2021-09-27_14h33.40.495,forced_choiceRT_color,2021.2.3,Win32,60.68697657,,,,,,,,2,Fast,short,j,0,1.8693,6,2,26,3,1,,,,,
,1.43,,,,,,,,,d,orange,5c49a5f7cfaf510001550a96,2021-09-27_14h33.40.495,forced_choiceRT_color,2021.2.3,Win32,60.68697657,,,,,,,,2,Slow,short,k,0,2.1013,6,3,27,0,1,,,,,
,0.92,,,,,,,,,f,blue,5c49a5f7cfaf510001550a96,2021-09-27_14h33.40.495,forced_choiceRT_color,2021.2.3,Win32,60.68697657,,,,,,,,2,Ontime,short,k,0,1.9395,7,0,28,1,1,,,,,
,1.42,,,,,,,,,d,orange,5c49a5f7cfaf510001550a96,2021-09-27_14h33.40.495,forced_choiceRT_color,2021.2.3,Win32,60.68697657,,,,,,,,2,Fast,short,k,0,1.7745,7,1,29,0,1,,,,,
,1.25,,,,,,,,,k,purple,5c49a5f7cfaf510001550a96,2021-09-27_14h33.40.495,forced_choiceRT_color,2021.2.3,Win32,60.68697657,,,,,,,,2,Ontime,short,k,1,1.9038,7,2,30,3,1,,,,,
,1.09,,,,,,,,,d,orange,5c49a5f7cfaf510001550a96,2021-09-27_14h33.40.495,forced_choiceRT_color,2021.2.3,Win32,60.68697657,,,,,,,,2,Ontime,short,k,0,2.0585,7,3,31,0,1,,,,,
,0.62,,,,,,,,,k,purple,5c49a5f7cfaf510001550a96,2021-09-27_14h33.40.495,forced_choiceRT_color,2021.2.3,Win32,60.68697657,,,,,,,,2,Fast,short,k,1,1.8431,8,0,32,3,1,,,,,
,0.35,,,,,,,,,d,orange,5c49a5f7cfaf510001550a96,2021-09-27_14h33.40.495,forced_choiceRT_color,2021.2.3,Win32,60.68697657,,,,,,,,2,Slow,short,k,0,2.2035,8,1,33,0,1,,,,,
,0.39,,,,,,,,,d,orange,5c49a5f7cfaf510001550a96,2021-09-27_14h33.40.495,forced_choiceRT_color,2021.2.3,Win32,60.68697657,,,,,,,,2,Fast,short,k,0,1.8991,8,2,34,0,1,,,,,
,0.06,,,,,,,,,f,blue,5c49a5f7cfaf510001550a96,2021-09-27_14h33.40.495,forced_choiceRT_color,2021.2.3,Win32,60.68697657,,,,,,,,2,Fast,short,k,0,1.7679,8,3,35,1,1,,,,,
,0.06,,,,,,,,,d,orange,5c49a5f7cfaf510001550a96,2021-09-27_14h33.40.495,forced_choiceRT_color,2021.2.3,Win32,60.68697657,,,,,,,,2,Fast,short,k,0,1.8904,9,0,36,0,1,,,,,
,1.26,,,,,,,,,f,blue,5c49a5f7cfaf510001550a96,2021-09-27_14h33.40.495,forced_choiceRT_color,2021.2.3,Win32,60.68697657,,,,,,,,2,Slow,short,j,0,2.1197,9,1,37,1,1,,,,,
,1.37,,,,,,,,,k,purple,5c49a5f7cfaf510001550a96,2021-09-27_14h33.40.495,forced_choiceRT_color,2021.2.3,Win32,60.68697657,,,,,,,,2,Slow,short,k,1,2.1903,9,2,38,3,1,,,,,
,1.77,,,,,,,,,j,red,5c49a5f7cfaf510001550a96,2021-09-27_14h33.40.495,forced_choiceRT_color,2021.2.3,Win32,60.68697657,,,,,,,,2,Ontime,short,k,0,1.9863,9,3,39,2,1,,,,,
,,,,,,,,,,,,5c49a5f7cfaf510001550a96,2021-09-27_14h33.40.495,forced_choiceRT_color,2021.2.3,Win32,60.68697657,,,,,,,,,,,,,,,,,,,1,0,1,0,1
,1.6,,,,,,,,,d,orange,5c49a5f7cfaf510001550a96,2021-09-27_14h33.40.495,forced_choiceRT_color,2021.2.3,Win32,60.68697657,,,,,,,,3,Slow,short,k,0,2.4604,0,0,0,0,1,,,,,
,0.54,,,,,,,,,f,blue,5c49a5f7cfaf510001550a96,2021-09-27_14h33.40.495,forced_choiceRT_color,2021.2.3,Win32,60.68697657,,,,,,,,3,Ontime,short,k,0,2.0253,0,1,1,1,1,,,,,
,0.66,,,,,,,,,f,blue,5c49a5f7cfaf510001550a96,2021-09-27_14h33.40.495,forced_choiceRT_color,2021.2.3,Win32,60.68697657,,,,,,,,3,Slow,short,k,0,2.126,0,2,2,1,1,,,,,
,1.57,,,,,,,,,f,blue,5c49a5f7cfaf510001550a96,2021-09-27_14h33.40.495,forced_choiceRT_color,2021.2.3,Win32,60.68697657,,,,,,,,3,Ontime,short,k,0,2.0076,0,3,3,1,1,,,,,
,0.6,,,,,,,,,d,orange,5c49a5f7cfaf510001550a96,2021-09-27_14h33.40.495,forced_choiceRT_color,2021.2.3,Win32,60.68697657,,,,,,,,3,Ontime,short,k,0,1.989,1,0,4,0,1,,,,,
,0.94,,,,,,,,,j,red,5c49a5f7cfaf510001550a96,2021-09-27_14h33.40.495,forced_choiceRT_color,2021.2.3,Win32,60.68697657,,,,,,,,3,Ontime,short,k,0,1.9237,1,1,5,2,1,,,,,
,0.28,,,,,,,,,d,orange,5c49a5f7cfaf510001550a96,2021-09-27_14h33.40.495,forced_choiceRT_color,2021.2.3,Win32,60.68697657,,,,,,,,3,Fast,short,d,1,1.7226,1,2,6,0,1,,,,,
,0.28,,,,,,,,,f,blue,5c49a5f7cfaf510001550a96,2021-09-27_14h33.40.495,forced_choiceRT_color,2021.2.3,Win32,60.68697657,,,,,,,,3,Fast,short,f,1,1.7376,1,3,7,1,1,,,,,
,0.68,,,,,,,,,k,purple,5c49a5f7cfaf510001550a96,2021-09-27_14h33.40.495,forced_choiceRT_color,2021.2.3,Win32,60.68697657,,,,,,,,3,Ontime,short,k,1,2.0071,2,0,8,3,1,,,,,
,1.44,,,,,,,,,j,red,5c49a5f7cfaf510001550a96,2021-09-27_14h33.40.495,forced_choiceRT_color,2021.2.3,Win32,60.68697657,,,,,,,,3,Slow,short,k,0,2.3233,2,1,9,2,1,,,,,
,1.6,,,,,,,,,f,blue,5c49a5f7cfaf510001550a96,2021-09-27_14h33.40.495,forced_choiceRT_color,2021.2.3,Win32,60.68697657,,,,,,,,3,Fast,short,k,0,1.8873,2,2,10,1,1,,,,,
,1.92,,,,,,,,,j,red,5c49a5f7cfaf510001550a96,2021-09-27_14h33.40.495,forced_choiceRT_color,2021.2.3,Win32,60.68697657,,,,,,,,3,Slow,short,k,0,2.3258,2,3,11,2,1,,,,,
,0.4,,,,,,,,,j,red,5c49a5f7cfaf510001550a96,2021-09-27_14h33.40.495,forced_choiceRT_color,2021.2.3,Win32,60.68697657,,,,,,,,3,Ontime,short,k,0,1.921,3,0,12,2,1,,,,,
,1.76,,,,,,,,,k,purple,5c49a5f7cfaf510001550a96,2021-09-27_14h33.40.495,forced_choiceRT_color,2021.2.3,Win32,60.68697657,,,,,,,,3,Fast,short,k,1,1.8343,3,1,13,3,1,,,,,
,0,,,,,,,,,k,purple,5c49a5f7cfaf510001550a96,2021-09-27_14h33.40.495,forced_choiceRT_color,2021.2.3,Win32,60.68697657,,,,,,,,3,Slow,short,k,1,2.1876,3,2,14,3,1,,,,,
,0.99,,,,,,,,,j,red,5c49a5f7cfaf510001550a96,2021-09-27_14h33.40.495,forced_choiceRT_color,2021.2.3,Win32,60.68697657,,,,,,,,3,Ontime,short,k,0,2.041,3,3,15,2,1,,,,,
,1.99,,,,,,,,,j,red,5c49a5f7cfaf510001550a96,2021-09-27_14h33.40.495,forced_choiceRT_color,2021.2.3,Win32,60.68697657,,,,,,,,3,Ontime,short,k,0,1.9334,4,0,16,2,1,,,,,
,0.51,,,,,,,,,f,blue,5c49a5f7cfaf510001550a96,2021-09-27_14h33.40.495,forced_choiceRT_color,2021.2.3,Win32,60.68697657,,,,,,,,3,Ontime,short,f,1,1.9332,4,1,17,1,1,,,,,
,1.81,,,,,,,,,j,red,5c49a5f7cfaf510001550a96,2021-09-27_14h33.40.495,forced_choiceRT_color,2021.2.3,Win32,60.68697657,,,,,,,,3,Ontime,short,f,0,2.095,4,2,18,2,1,,,,,
,1.85,,,,,,,,,k,purple,5c49a5f7cfaf510001550a96,2021-09-27_14h33.40.495,forced_choiceRT_color,2021.2.3,Win32,60.68697657,,,,,,,,3,Slow,short,j,0,2.2604,4,3,19,3,1,,,,,
,0.28,,,,,,,,,j,red,5c49a5f7cfaf510001550a96,2021-09-27_14h33.40.495,forced_choiceRT_color,2021.2.3,Win32,60.68697657,,,,,,,,3,Ontime,short,k,0,2.0734,5,0,20,2,1,,,,,
,1.27,,,,,,,,,f,blue,5c49a5f7cfaf510001550a96,2021-09-27_14h33.40.495,forced_choiceRT_color,2021.2.3,Win32,60.68697657,,,,,,,,3,Ontime,short,k,0,2.0376,5,1,21,1,1,,,,,
,1.13,,,,,,,,,k,purple,5c49a5f7cfaf510001550a96,2021-09-27_14h33.40.495,forced_choiceRT_color,2021.2.3,Win32,60.68697657,,,,,,,,3,Fast,short,k,1,1.831,5,2,22,3,1,,,,,
,1.28,,,,,,,,,k,purple,5c49a5f7cfaf510001550a96,2021-09-27_14h33.40.495,forced_choiceRT_color,2021.2.3,Win32,60.68697657,,,,,,,,3,Ontime,short,k,1,1.9358,5,3,23,3,1,,,,,
,0.25,,,,,,,,,d,orange,5c49a5f7cfaf510001550a96,2021-09-27_14h33.40.495,forced_choiceRT_color,2021.2.3,Win32,60.68697657,,,,,,,,3,Ontime,short,k,0,1.9909,6,0,24,0,1,,,,,
,1.59,,,,,,,,,j,red,5c49a5f7cfaf510001550a96,2021-09-27_14h33.40.495,forced_choiceRT_color,2021.2.3,Win32,60.68697657,,,,,,,,3,Slow,short,k,0,2.2228,6,1,25,2,1,,,,,
,1.81,,,,,,,,,k,purple,5c49a5f7cfaf510001550a96,2021-09-27_14h33.40.495,forced_choiceRT_color,2021.2.3,Win32,60.68697657,,,,,,,,3,Ontime,short,k,1,1.9137,6,2,26,3,1,,,,,
,1.79,,,,,,,,,d,orange,5c49a5f7cfaf510001550a96,2021-09-27_14h33.40.495,forced_choiceRT_color,2021.2.3,Win32,60.68697657,,,,,,,,3,Ontime,short,k,0,2.0364,6,3,27,0,1,,,,,
,0.73,,,,,,,,,d,orange,5c49a5f7cfaf510001550a96,2021-09-27_14h33.40.495,forced_choiceRT_color,2021.2.3,Win32,60.68697657,,,,,,,,3,Fast,short,k,0,1.8758,7,0,28,0,1,,,,,
,1.78,,,,,,,,,d,orange,5c49a5f7cfaf510001550a96,2021-09-27_14h33.40.495,forced_choiceRT_color,2021.2.3,Win32,60.68697657,,,,,,,,3,Ontime,short,k,0,1.9231,7,1,29,0,1,,,,,
,0.03,,,,,,,,,f,blue,5c49a5f7cfaf510001550a96,2021-09-27_14h33.40.495,forced_choiceRT_color,2021.2.3,Win32,60.68697657,,,,,,,,3,Fast,short,k,0,1.8839,7,2,30,1,1,,,,,
,0.75,,,,,,,,,k,purple,5c49a5f7cfaf510001550a96,2021-09-27_14h33.40.495,forced_choiceRT_color,2021.2.3,Win32,60.68697657,,,,,,,,3,Fast,short,k,1,1.8834,7,3,31,3,1,,,,,
,1.12,,,,,,,,,k,purple,5c49a5f7cfaf510001550a96,2021-09-27_14h33.40.495,forced_choiceRT_color,2021.2.3,Win32,60.68697657,,,,,,,,3,Ontime,short,k,1,1.9984,8,0,32,3,1,,,,,
,0.36,,,,,,,,,d,orange,5c49a5f7cfaf510001550a96,2021-09-27_14h33.40.495,forced_choiceRT_color,2021.2.3,Win32,60.68697657,,,,,,,,3,Fast,short,k,0,1.8271,8,1,33,0,1,,,,,
,0.13,,,,,,,,,j,red,5c49a5f7cfaf510001550a96,2021-09-27_14h33.40.495,forced_choiceRT_color,2021.2.3,Win32,60.68697657,,,,,,,,3,Fast,short,k,0,1.673,8,2,34,2,1,,,,,
,0.29,,,,,,,,,d,orange,5c49a5f7cfaf510001550a96,2021-09-27_14h33.40.495,forced_choiceRT_color,2021.2.3,Win32,60.68697657,,,,,,,,3,Fast,short,k,0,1.8081,8,3,35,0,1,,,,,
,1,,,,,,,,,d,orange,5c49a5f7cfaf510001550a96,2021-09-27_14h33.40.495,forced_choiceRT_color,2021.2.3,Win32,60.68697657,,,,,,,,3,Ontime,short,j,0,1.9624,9,0,36,0,1,,,,,
,0.22,,,,,,,,,f,blue,5c49a5f7cfaf510001550a96,2021-09-27_14h33.40.495,forced_choiceRT_color,2021.2.3,Win32,60.68697657,,,,,,,,3,Fast,short,j,0,1.8231,9,1,37,1,1,,,,,
,1.83,,,,,,,,,f,blue,5c49a5f7cfaf510001550a96,2021-09-27_14h33.40.495,forced_choiceRT_color,2021.2.3,Win32,60.68697657,,,,,,,,3,Ontime,short,j,0,2.0875,9,2,38,1,1,,,,,
,1.43,,,,,,,,,k,purple,5c49a5f7cfaf510001550a96,2021-09-27_14h33.40.495,forced_choiceRT_color,2021.2.3,Win32,60.68697657,,,,,,,,3,Slow,short,j,0,2.2975,9,3,39,3,1,,,,,
,,,,,,,,,,,,5c49a5f7cfaf510001550a96,2021-09-27_14h33.40.495,forced_choiceRT_color,2021.2.3,Win32,60.68697657,,,,,,,,,,,,,,,,,,,2,0,2,0,1
,1.23,,,,,,,,,k,purple,5c49a5f7cfaf510001550a96,2021-09-27_14h33.40.495,forced_choiceRT_color,2021.2.3,Win32,60.68697657,,,,,,,,4,Slow,short,k,1,2.1509,0,0,0,3,1,,,,,
,1.12,,,,,,,,,f,blue,5c49a5f7cfaf510001550a96,2021-09-27_14h33.40.495,forced_choiceRT_color,2021.2.3,Win32,60.68697657,,,,,,,,4,Ontime,short,f,1,2.0307,0,1,1,1,1,,,,,
,0.91,,,,,,,,,j,red,5c49a5f7cfaf510001550a96,2021-09-27_14h33.40.495,forced_choiceRT_color,2021.2.3,Win32,60.68697657,,,,,,,,4,Slow,short,k,0,2.1897,0,2,2,2,1,,,,,
,1.36,,,,,,,,,d,orange,5c49a5f7cfaf510001550a96,2021-09-27_14h33.40.495,forced_choiceRT_color,2021.2.3,Win32,60.68697657,,,,,,,,4,Slow,short,d,1,2.1335,0,3,3,0,1,,,,,
,0.11,,,,,,,,,k,purple,5c49a5f7cfaf510001550a96,2021-09-27_14h33.40.495,forced_choiceRT_color,2021.2.3,Win32,60.68697657,,,,,,,,4,Ontime,short,k,1,1.9552,1,0,4,3,1,,,,,
,1.95,,,,,,,,,j,red,5c49a5f7cfaf510001550a96,2021-09-27_14h33.40.495,forced_choiceRT_color,2021.2.3,Win32,60.68697657,,,,,,,,4,Slow,short,k,0,2.2405,1,1,5,2,1,,,,,
,1.46,,,,,,,,,k,purple,5c49a5f7cfaf510001550a96,2021-09-27_14h33.40.495,forced_choiceRT_color,2021.2.3,Win32,60.68697657,,,,,,,,4,Slow,short,k,1,2.1471,1,2,6,3,1,,,,,
,0.24,,,,,,,,,k,purple,5c49a5f7cfaf510001550a96,2021-09-27_14h33.40.495,forced_choiceRT_color,2021.2.3,Win32,60.68697657,,,,,,,,4,Fast,short,k,1,1.6929,1,3,7,3,1,,,,,
,1.32,,,,,,,,,k,purple,5c49a5f7cfaf510001550a96,2021-09-27_14h33.40.495,forced_choiceRT_color,2021.2.3,Win32,60.68697657,,,,,,,,4,Ontime,short,k,1,1.9883,2,0,8,3,1,,,,,
,1.29,,,,,,,,,f,blue,5c49a5f7cfaf510001550a96,2021-09-27_14h33.40.495,forced_choiceRT_color,2021.2.3,Win32,60.68697657,,,,,,,,4,Ontime,short,d,0,2.0076,2,1,9,1,1,,,,,
,0.35,,,,,,,,,f,blue,5c49a5f7cfaf510001550a96,2021-09-27_14h33.40.495,forced_choiceRT_color,2021.2.3,Win32,60.68697657,,,,,,,,4,Ontime,short,d,0,1.9578,2,2,10,1,1,,,,,
,0.87,,,,,,,,,d,orange,5c49a5f7cfaf510001550a96,2021-09-27_14h33.40.495,forced_choiceRT_color,2021.2.3,Win32,60.68697657,,,,,,,,4,Fast,short,d,1,1.6091,2,3,11,0,1,,,,,
,0.04,,,,,,,,,k,purple,5c49a5f7cfaf510001550a96,2021-09-27_14h33.40.495,forced_choiceRT_color,2021.2.3,Win32,60.68697657,,,,,,,,4,Ontime,short,k,1,2.0294,3,0,12,3,1,,,,,
,1.9,,,,,,,,,d,orange,5c49a5f7cfaf510001550a96,2021-09-27_14h33.40.495,forced_choiceRT_color,2021.2.3,Win32,60.68697657,,,,,,,,4,Slow,short,k,0,2.3039,3,1,13,0,1,,,,,
,1.65,,,,,,,,,f,blue,5c49a5f7cfaf510001550a96,2021-09-27_14h33.40.495,forced_choiceRT_color,2021.2.3,Win32,60.68697657,,,,,,,,4,Ontime,short,k,0,2.0593,3,2,14,1,1,,,,,
,1.31,,,,,,,,,j,red,5c49a5f7cfaf510001550a96,2021-09-27_14h33.40.495,forced_choiceRT_color,2021.2.3,Win32,60.68697657,,,,,,,,4,Slow,short,k,0,2.1803,3,3,15,2,1,,,,,
,1.59,,,,,,,,,j,red,5c49a5f7cfaf510001550a96,2021-09-27_14h33.40.495,forced_choiceRT_color,2021.2.3,Win32,60.68697657,,,,,,,,4,Fast,short,k,0,1.8637,4,0,16,2,1,,,,,
,0.01,,,,,,,,,k,purple,5c49a5f7cfaf510001550a96,2021-09-27_14h33.40.495,forced_choiceRT_color,2021.2.3,Win32,60.68697657,,,,,,,,4,Fast,short,k,1,1.8873,4,1,17,3,1,,,,,
,0.53,,,,,,,,,d,orange,5c49a5f7cfaf510001550a96,2021-09-27_14h33.40.495,forced_choiceRT_color,2021.2.3,Win32,60.68697657,,,,,,,,4,Fast,short,k,0,1.8441,4,2,18,0,1,,,,,
,0.86,,,,,,,,,d,orange,5c49a5f7cfaf510001550a96,2021-09-27_14h33.40.495,forced_choiceRT_color,2021.2.3,Win32,60.68697657,,,,,,,,4,Fast,short,f,0,1.8657,4,3,19,0,1,,,,,
,0.78,,,,,,,,,j,red,5c49a5f7cfaf510001550a96,2021-09-27_14h33.40.495,forced_choiceRT_color,2021.2.3,Win32,60.68697657,,,,,,,,4,Ontime,short,f,0,1.9559,5,0,20,2,1,,,,,
,1.21,,,,,,,,,d,orange,5c49a5f7cfaf510001550a96,2021-09-27_14h33.40.495,forced_choiceRT_color,2021.2.3,Win32,60.68697657,,,,,,,,4,Fast,short,f,0,1.8329,5,1,21,0,1,,,,,
,0.18,,,,,,,,,d,orange,5c49a5f7cfaf510001550a96,2021-09-27_14h33.40.495,forced_choiceRT_color,2021.2.3,Win32,60.68697657,,,,,,,,4,Fast,short,f,0,1.8541,5,2,22,0,1,,,,,
,0.94,,,,,,,,,j,red,5c49a5f7cfaf510001550a96,2021-09-27_14h33.40.495,forced_choiceRT_color,2021.2.3,Win32,60.68697657,,,,,,,,4,Ontime,short,f,0,1.9482,5,3,23,2,1,,,,,
,0.39,,,,,,,,,f,blue,5c49a5f7cfaf510001550a96,2021-09-27_14h33.40.495,forced_choiceRT_color,2021.2.3,Win32,60.68697657,,,,,,,,4,Ontime,short,d,0,2.0514,6,0,24,1,1,,,,,
,0.23,,,,,,,,,f,blue,5c49a5f7cfaf510001550a96,2021-09-27_14h33.40.495,forced_choiceRT_color,2021.2.3,Win32,60.68697657,,,,,,,,4,Slow,short,d,0,2.1509,6,1,25,1,1,,,,,
,0.39,,,,,,,,,d,orange,5c49a5f7cfaf510001550a96,2021-09-27_14h33.40.495,forced_choiceRT_color,2021.2.3,Win32,60.68697657,,,,,,,,4,Slow,short,d,1,2.1221,6,2,26,0,1,,,,,
,0.97,,,,,,,,,j,red,5c49a5f7cfaf510001550a96,2021-09-27_14h33.40.495,forced_choiceRT_color,2021.2.3,Win32,60.68697657,,,,,,,,4,Fast,short,k,0,1.4517,6,3,27,2,1,,,,,
,0.22,,,,,,,,,f,blue,5c49a5f7cfaf510001550a96,2021-09-27_14h33.40.495,forced_choiceRT_color,2021.2.3,Win32,60.68697657,,,,,,,,4,Fast,short,f,1,1.7646,7,0,28,1,1,,,,,
,0.27,,,,,,,,,d,orange,5c49a5f7cfaf510001550a96,2021-09-27_14h33.40.495,forced_choiceRT_color,2021.2.3,Win32,60.68697657,,,,,,,,4,Ontime,short,d,1,2.0725,7,1,29,0,1,,,,,
,1.37,,,,,,,,,k,purple,5c49a5f7cfaf510001550a96,2021-09-27_14h33.40.495,forced_choiceRT_color,2021.2.3,Win32,60.68697657,,,,,,,,4,Slow,short,k,1,30.2153,7,2,30,3,1,,,,,
,0.44,,,,,,,,,f,blue,5c49a5f7cfaf510001550a96,2021-09-27_14h33.40.495,forced_choiceRT_color,2021.2.3,Win32,60.68697657,,,,,,,,4,Slow,short,j,0,2.414,7,3,31,1,1,,,,,
,0.85,,,,,,,,,k,purple,5c49a5f7cfaf510001550a96,2021-09-27_14h33.40.495,forced_choiceRT_color,2021.2.3,Win32,60.68697657,,,,,,,,4,Slow,short,k,1,2.179,8,0,32,3,1,,,,,
,1.97,,,,,,,,,k,purple,5c49a5f7cfaf510001550a96,2021-09-27_14h33.40.495,forced_choiceRT_color,2021.2.3,Win32,60.68697657,,,,,,,,4,Slow,short,k,1,2.5238,8,1,33,3,1,,,,,
,1.03,,,,,,,,,f,blue,5c49a5f7cfaf510001550a96,2021-09-27_14h33.40.495,forced_choiceRT_color,2021.2.3,Win32,60.68697657,,,,,,,,4,Slow,short,f,1,2.1069,8,2,34,1,1,,,,,
,0.14,,,,,,,,,d,orange,5c49a5f7cfaf510001550a96,2021-09-27_14h33.40.495,forced_choiceRT_color,2021.2.3,Win32,60.68697657,,,,,,,,4,Fast,short,d,1,1.8615,8,3,35,0,1,,,,,
,0.98,,,,,,,,,j,red,5c49a5f7cfaf510001550a96,2021-09-27_14h33.40.495,forced_choiceRT_color,2021.2.3,Win32,60.68697657,,,,,,,,4,Ontime,short,j,1,2.0782,9,0,36,2,1,,,,,
,1.28,,,,,,,,,j,red,5c49a5f7cfaf510001550a96,2021-09-27_14h33.40.495,forced_choiceRT_color,2021.2.3,Win32,60.68697657,,,,,,,,4,Slow,short,j,1,2.1786,9,1,37,2,1,,,,,
,1.18,,,,,,,,,f,blue,5c49a5f7cfaf510001550a96,2021-09-27_14h33.40.495,forced_choiceRT_color,2021.2.3,Win32,60.68697657,,,,,,,,4,Slow,short,f,1,2.1568,9,2,38,1,1,,,,,
,1.27,,,,,,,,,j,red,5c49a5f7cfaf510001550a96,2021-09-27_14h33.40.495,forced_choiceRT_color,2021.2.3,Win32,60.68697657,,,,,,,,4,Slow,short,k,0,2.1378,9,3,39,2,1,,,,,
,,,,,,,,,,,,5c49a5f7cfaf510001550a96,2021-09-27_14h33.40.495,forced_choiceRT_color,2021.2.3,Win32,60.68697657,,,,,,,,,,,,,,,,,,,3,0,3,0,1
,1.27,,,,,,,,,j,red,5c49a5f7cfaf510001550a96,2021-09-27_14h33.40.495,forced_choiceRT_color,2021.2.3,Win32,60.68697657,,,,,,,,5,Slow,short,j,1,2.5089,0,0,0,2,1,,,,,
,0.51,,,,,,,,,d,orange,5c49a5f7cfaf510001550a96,2021-09-27_14h33.40.495,forced_choiceRT_color,2021.2.3,Win32,60.68697657,,,,,,,,5,Fast,short,d,1,1.8419,0,1,1,0,1,,,,,
,1.95,,,,,,,,,d,orange,5c49a5f7cfaf510001550a96,2021-09-27_14h33.40.495,forced_choiceRT_color,2021.2.3,Win32,60.68697657,,,,,,,,5,Slow,short,d,1,2.6643,0,2,2,0,1,,,,,
,0.89,,,,,,,,,f,blue,5c49a5f7cfaf510001550a96,2021-09-27_14h33.40.495,forced_choiceRT_color,2021.2.3,Win32,60.68697657,,,,,,,,5,Fast,short,f,1,1.709,0,3,3,1,1,,,,,
,1.92,,,,,,,,,j,red,5c49a5f7cfaf510001550a96,2021-09-27_14h33.40.495,forced_choiceRT_color,2021.2.3,Win32,60.68697657,,,,,,,,5,Slow,short,j,1,2.6093,1,0,4,2,1,,,,,
,1.3,,,,,,,,,f,blue,5c49a5f7cfaf510001550a96,2021-09-27_14h33.40.495,forced_choiceRT_color,2021.2.3,Win32,60.68697657,,,,,,,,5,Slow,short,f,1,2.3558,1,1,5,1,1,,,,,
,0.29,,,,,,,,,j,red,5c49a5f7cfaf510001550a96,2021-09-27_14h33.40.495,forced_choiceRT_color,2021.2.3,Win32,60.68697657,,,,,,,,5,Fast,short,j,1,1.7231,1,2,6,2,1,,,,,
,1.25,,,,,,,,,j,red,5c49a5f7cfaf510001550a96,2021-09-27_14h33.40.495,forced_choiceRT_color,2021.2.3,Win32,60.68697657,,,,,,,,5,Ontime,short,j,1,2.0387,1,3,7,2,1,,,,,
,1.23,,,,,,,,,d,orange,5c49a5f7cfaf510001550a96,2021-09-27_14h33.40.495,forced_choiceRT_color,2021.2.3,Win32,60.68697657,,,,,,,,5,Slow,short,d,1,2.2252,2,0,8,0,1,,,,,
,0.46,,,,,,,,,d,orange,5c49a5f7cfaf510001550a96,2021-09-27_14h33.40.495,forced_choiceRT_color,2021.2.3,Win32,60.68697657,,,,,,,,5,Ontime,short,d,1,1.9925,2,1,9,0,1,,,,,
,0.72,,,,,,,,,k,purple,5c49a5f7cfaf510001550a96,2021-09-27_14h33.40.495,forced_choiceRT_color,2021.2.3,Win32,60.68697657,,,,,,,,5,Slow,short,k,1,2.1417,2,2,10,3,1,,,,,
,0.16,,,,,,,,,j,red,5c49a5f7cfaf510001550a96,2021-09-27_14h33.40.495,forced_choiceRT_color,2021.2.3,Win32,60.68697657,,,,,,,,5,Ontime,short,j,1,2.0346,2,3,11,2,1,,,,,
,0.84,,,,,,,,,f,blue,5c49a5f7cfaf510001550a96,2021-09-27_14h33.40.495,forced_choiceRT_color,2021.2.3,Win32,60.68697657,,,,,,,,5,Ontime,short,f,1,2.0134,3,0,12,1,1,,,,,
,1.53,,,,,,,,,f,blue,5c49a5f7cfaf510001550a96,2021-09-27_14h33.40.495,forced_choiceRT_color,2021.2.3,Win32,60.68697657,,,,,,,,5,Slow,short,f,1,2.3609,3,1,13,1,1,,,,,
,1.32,,,,,,,,,k,purple,5c49a5f7cfaf510001550a96,2021-09-27_14h33.40.495,forced_choiceRT_color,2021.2.3,Win32,60.68697657,,,,,,,,5,Ontime,short,k,1,1.9984,3,2,14,3,1,,,,,
,0.2,,,,,,,,,f,blue,5c49a5f7cfaf510001550a96,2021-09-27_14h33.40.495,forced_choiceRT_color,2021.2.3,Win32,60.68697657,,,,,,,,5,Ontime,short,f,1,1.988,3,3,15,1,1,,,,,
,0.78,,,,,,,,,k,purple,5c49a5f7cfaf510001550a96,2021-09-27_14h33.40.495,forced_choiceRT_color,2021.2.3,Win32,60.68697657,,,,,,,,5,Ontime,short,k,1,1.9732,4,0,16,3,1,,,,,
,1.07,,,,,,,,,j,red,5c49a5f7cfaf510001550a96,2021-09-27_14h33.40.495,forced_choiceRT_color,2021.2.3,Win32,60.68697657,,,,,,,,5,Ontime,short,j,1,2.0937,4,1,17,2,1,,,,,
,0.21,,,,,,,,,d,orange,5c49a5f7cfaf510001550a96,2021-09-27_14h33.40.495,forced_choiceRT_color,2021.2.3,Win32,60.68697657,,,,,,,,5,Fast,short,d,1,1.8639,4,2,18,0,1,,,,,
,1.39,,,,,,,,,k,purple,5c49a5f7cfaf510001550a96,2021-09-27_14h33.40.495,forced_choiceRT_color,2021.2.3,Win32,60.68697657,,,,,,,,5,Slow,short,k,1,2.1893,4,3,19,3,1,,,,,
,1.46,,,,,,,,,j,red,5c49a5f7cfaf510001550a96,2021-09-27_14h33.40.495,forced_choiceRT_color,2021.2.3,Win32,60.68697657,,,,,,,,5,Slow,short,k,0,3.2387,5,0,20,2,1,,,,,
,0.14,,,,,,,,,d,orange,5c49a5f7cfaf510001550a96,2021-09-27_14h33.40.495,forced_choiceRT_color,2021.2.3,Win32,60.68697657,,,,,,,,5,Fast,short,d,1,0.9422,5,1,21,0,1,,,,,
,1.24,,,,,,,,,j,red,5c49a5f7cfaf510001550a96,2021-09-27_14h33.40.495,forced_choiceRT_color,2021.2.3,Win32,60.68697657,,,,,,,,5,Slow,short,j,1,2.6146,5,2,22,2,1,,,,,
,0.61,,,,,,,,,f,blue,5c49a5f7cfaf510001550a96,2021-09-27_14h33.40.495,forced_choiceRT_color,2021.2.3,Win32,60.68697657,,,,,,,,5,Fast,short,f,1,1.7571,5,3,23,1,1,,,,,
,1.41,,,,,,,,,d,orange,5c49a5f7cfaf510001550a96,2021-09-27_14h33.40.495,forced_choiceRT_color,2021.2.3,Win32,60.68697657,,,,,,,,5,Slow,short,d,1,2.1902,6,0,24,0,1,,,,,
,0.89,,,,,,,,,k,purple,5c49a5f7cfaf510001550a96,2021-09-27_14h33.40.495,forced_choiceRT_color,2021.2.3,Win32,60.68697657,,,,,,,,5,Fast,short,k,1,1.6387,6,1,25,3,1,,,,,
,0.25,,,,,,,,,f,blue,5c49a5f7cfaf510001550a96,2021-09-27_14h33.40.495,forced_choiceRT_color,2021.2.3,Win32,60.68697657,,,,,,,,5,Slow,short,f,1,2.1753,6,2,26,1,1,,,,,
,0.19,,,,,,,,,k,purple,5c49a5f7cfaf510001550a96,2021-09-27_14h33.40.495,forced_choiceRT_color,2021.2.3,Win32,60.68697657,,,,,,,,5,Slow,short,k,1,2.2479,6,3,27,3,1,,,,,
,1.55,,,,,,,,,f,blue,5c49a5f7cfaf510001550a96,2021-09-27_14h33.40.495,forced_choiceRT_color,2021.2.3,Win32,60.68697657,,,,,,,,5,Slow,short,f,1,3.9744,7,0,28,1,1,,,,,
,1.49,,,,,,,,,k,purple,5c49a5f7cfaf510001550a96,2021-09-27_14h33.40.495,forced_choiceRT_color,2021.2.3,Win32,60.68697657,,,,,,,,5,Slow,short,k,1,2.1213,7,1,29,3,1,,,,,
,0.99,,,,,,,,,f,blue,5c49a5f7cfaf510001550a96,2021-09-27_14h33.40.495,forced_choiceRT_color,2021.2.3,Win32,60.68697657,,,,,,,,5,Fast,short,f,1,1.7389,7,2,30,1,1,,,,,
,0.23,,,,,,,,,f,blue,5c49a5f7cfaf510001550a96,2021-09-27_14h33.40.495,forced_choiceRT_color,2021.2.3,Win32,60.68697657,,,,,,,,5,Ontime,short,f,1,1.9098,7,3,31,1,1,,,,,
,0.16,,,,,,,,,d,orange,5c49a5f7cfaf510001550a96,2021-09-27_14h33.40.495,forced_choiceRT_color,2021.2.3,Win32,60.68697657,,,,,,,,5,Slow,short,d,1,2.1093,8,0,32,0,1,,,,,
,0.31,,,,,,,,,k,purple,5c49a5f7cfaf510001550a96,2021-09-27_14h33.40.495,forced_choiceRT_color,2021.2.3,Win32,60.68697657,,,,,,,,5,Ontime,short,k,1,1.9762,8,1,33,3,1,,,,,
,0.17,,,,,,,,,k,purple,5c49a5f7cfaf510001550a96,2021-09-27_14h33.40.495,forced_choiceRT_color,2021.2.3,Win32,60.68697657,,,,,,,,5,Fast,short,k,1,1.8734,8,2,34,3,1,,,,,
,0.62,,,,,,,,,j,red,5c49a5f7cfaf510001550a96,2021-09-27_14h33.40.495,forced_choiceRT_color,2021.2.3,Win32,60.68697657,,,,,,,,5,Ontime,short,j,1,2.0668,8,3,35,2,1,,,,,
,0.72,,,,,,,,,d,orange,5c49a5f7cfaf510001550a96,2021-09-27_14h33.40.495,forced_choiceRT_color,2021.2.3,Win32,60.68697657,,,,,,,,5,Ontime,short,d,1,1.9169,9,0,36,0,1,,,,,
,0.39,,,,,,,,,j,red,5c49a5f7cfaf510001550a96,2021-09-27_14h33.40.495,forced_choiceRT_color,2021.2.3,Win32,60.68697657,,,,,,,,5,Fast,short,j,1,1.7955,9,1,37,2,1,,,,,
,1.61,,,,,,,,,d,orange,5c49a5f7cfaf510001550a96,2021-09-27_14h33.40.495,forced_choiceRT_color,2021.2.3,Win32,60.68697657,,,,,,,,5,Slow,short,d,1,2.256,9,2,38,0,1,,,,,
,1.07,,,,,,,,,k,purple,5c49a5f7cfaf510001550a96,2021-09-27_14h33.40.495,forced_choiceRT_color,2021.2.3,Win32,60.68697657,,,,,,,,5,Slow,short,d,0,2.14,9,3,39,3,1,,,,,
,,,,,,,,,,,,5c49a5f7cfaf510001550a96,2021-09-27_14h33.40.495,forced_choiceRT_color,2021.2.3,Win32,60.68697657,,,,,,,,,,,,,,,,,,,4,0,4,0,1
,1.94,,,,,,,,,d,orange,5c49a5f7cfaf510001550a96,2021-09-27_14h33.40.495,forced_choiceRT_color,2021.2.3,Win32,60.68697657,,,,,,,,6,Ontime,short,j,0,2.0979,0,0,0,0,1,,,,,
,0.27,,,,,,,,,k,purple,5c49a5f7cfaf510001550a96,2021-09-27_14h33.40.495,forced_choiceRT_color,2021.2.3,Win32,60.68697657,,,,,,,,6,Ontime,short,j,0,1.9226,0,1,1,3,1,,,,,
,1.3,,,,,,,,,f,blue,5c49a5f7cfaf510001550a96,2021-09-27_14h33.40.495,forced_choiceRT_color,2021.2.3,Win32,60.68697657,,,,,,,,6,Fast,short,j,0,1.8559,0,2,2,1,1,,,,,
,0.22,,,,,,,,,f,blue,5c49a5f7cfaf510001550a96,2021-09-27_14h33.40.495,forced_choiceRT_color,2021.2.3,Win32,60.68697657,,,,,,,,6,Fast,short,j,0,1.8324,0,3,3,1,1,,,,,
,0.34,,,,,,,,,k,purple,5c49a5f7cfaf510001550a96,2021-09-27_14h33.40.495,forced_choiceRT_color,2021.2.3,Win32,60.68697657,,,,,,,,6,Ontime,short,j,0,2.0171,1,0,4,3,1,,,,,
,1.23,,,,,,,,,j,red,5c49a5f7cfaf510001550a96,2021-09-27_14h33.40.495,forced_choiceRT_color,2021.2.3,Win32,60.68697657,,,,,,,,6,Ontime,short,j,1,1.9149,1,1,5,2,1,,,,,
,0.24,,,,,,,,,j,red,5c49a5f7cfaf510001550a96,2021-09-27_14h33.40.495,forced_choiceRT_color,2021.2.3,Win32,60.68697657,,,,,,,,6,Ontime,short,j,1,1.9237,1,2,6,2,1,,,,,
,1.73,,,,,,,,,d,orange,5c49a5f7cfaf510001550a96,2021-09-27_14h33.40.495,forced_choiceRT_color,2021.2.3,Win32,60.68697657,,,,,,,,6,Fast,short,j,0,1.7983,1,3,7,0,1,,,,,
,1.58,,,,,,,,,d,orange,5c49a5f7cfaf510001550a96,2021-09-27_14h33.40.495,forced_choiceRT_color,2021.2.3,Win32,60.68697657,,,,,,,,6,Slow,short,j,0,2.173,2,0,8,0,1,,,,,
,1.71,,,,,,,,,k,purple,5c49a5f7cfaf510001550a96,2021-09-27_14h33.40.495,forced_choiceRT_color,2021.2.3,Win32,60.68697657,,,,,,,,6,Fast,short,k,1,1.8862,2,1,9,3,1,,,,,
,1.36,,,,,,,,,k,purple,5c49a5f7cfaf510001550a96,2021-09-27_14h33.40.495,forced_choiceRT_color,2021.2.3,Win32,60.68697657,,,,,,,,6,Fast,short,j,0,1.7152,2,2,10,3,1,,,,,
,0.47,,,,,,,,,j,red,5c49a5f7cfaf510001550a96,2021-09-27_14h33.40.495,forced_choiceRT_color,2021.2.3,Win32,60.68697657,,,,,,,,6,Ontime,short,j,1,1.9577,2,3,11,2,1,,,,,
,1.08,,,,,,,,,k,purple,5c49a5f7cfaf510001550a96,2021-09-27_14h33.40.495,forced_choiceRT_color,2021.2.3,Win32,60.68697657,,,,,,,,6,Slow,short,k,1,2.1093,3,0,12,3,1,,,,,
,0.66,,,,,,,,,j,red,5c49a5f7cfaf510001550a96,2021-09-27_14h33.40.495,forced_choiceRT_color,2021.2.3,Win32,60.68697657,,,,,,,,6,Ontime,short,j,1,2.0015,3,1,13,2,1,,,,,
,1.37,,,,,,,,,k,purple,5c49a5f7cfaf510001550a96,2021-09-27_14h33.40.495,forced_choiceRT_color,2021.2.3,Win32,60.68697657,,,,,,,,6,Ontime,short,k,1,1.9508,3,2,14,3,1,,,,,
,1.88,,,,,,,,,f,blue,5c49a5f7cfaf510001550a96,2021-09-27_14h33.40.495,forced_choiceRT_color,2021.2.3,Win32,60.68697657,,,,,,,,6,Slow,short,j,0,2.3332,3,3,15,1,1,,,,,
,0.59,,,,,,,,,f,blue,5c49a5f7cfaf510001550a96,2021-09-27_14h33.40.495,forced_choiceRT_color,2021.2.3,Win32,60.68697657,,,,,,,,6,Ontime,short,j,0,2.0398,4,0,16,1,1,,,,,
,0.56,,,,,,,,,d,orange,5c49a5f7cfaf510001550a96,2021-09-27_14h33.40.495,forced_choiceRT_color,2021.2.3,Win32,60.68697657,,,,,,,,6,Ontime,short,d,1,2.0877,4,1,17,0,1,,,,,
,0.12,,,,,,,,,k,purple,5c49a5f7cfaf510001550a96,2021-09-27_14h33.40.495,forced_choiceRT_color,2021.2.3,Win32,60.68697657,,,,,,,,6,Ontime,short,k,1,2.0292,4,2,18,3,1,,,,,
,0.21,,,,,,,,,k,purple,5c49a5f7cfaf510001550a96,2021-09-27_14h33.40.495,forced_choiceRT_color,2021.2.3,Win32,60.68697657,,,,,,,,6,Ontime,short,k,1,1.9521,4,3,19,3,1,,,,,
,0.75,,,,,,,,,f,blue,5c49a5f7cfaf510001550a96,2021-09-27_14h33.40.495,forced_choiceRT_color,2021.2.3,Win32,60.68697657,,,,,,,,6,Ontime,short,f,1,1.955,5,0,20,1,1,,,,,
,0.52,,,,,,,,,k,purple,5c49a5f7cfaf510001550a96,2021-09-27_14h33.40.495,forced_choiceRT_color,2021.2.3,Win32,60.68697657,,,,,,,,6,Slow,short,k,1,2.1361,5,1,21,3,1,,,,,
,1.21,,,,,,,,,f,blue,5c49a5f7cfaf510001550a96,2021-09-27_14h33.40.495,forced_choiceRT_color,2021.2.3,Win32,60.68697657,,,,,,,,6,Slow,short,f,1,2.1395,5,2,22,1,1,,,,,
,1.64,,,,,,,,,j,red,5c49a5f7cfaf510001550a96,2021-09-27_14h33.40.495,forced_choiceRT_color,2021.2.3,Win32,60.68697657,,,,,,,,6,Slow,short,j,1,2.6436,5,3,23,2,1,,,,,
,1.17,,,,,,,,,f,blue,5c49a5f7cfaf510001550a96,2021-09-27_14h33.40.495,forced_choiceRT_color,2021.2.3,Win32,60.68697657,,,,,,,,6,Slow,short,f,1,2.1884,6,0,24,1,1,,,,,
,1.82,,,,,,,,,j,red,5c49a5f7cfaf510001550a96,2021-09-27_14h33.40.495,forced_choiceRT_color,2021.2.3,Win32,60.68697657,,,,,,,,6,Slow,short,j,1,4.0903,6,1,25,2,1,,,,,
,1.15,,,,,,,,,j,red,5c49a5f7cfaf510001550a96,2021-09-27_14h33.40.495,forced_choiceRT_color,2021.2.3,Win32,60.68697657,,,,,,,,6,Slow,short,j,1,2.2068,6,2,26,2,1,,,,,
,0.4,,,,,,,,,d,orange,5c49a5f7cfaf510001550a96,2021-09-27_14h33.40.495,forced_choiceRT_color,2021.2.3,Win32,60.68697657,,,,,,,,6,Slow,short,d,1,2.1043,6,3,27,0,1,,,,,
,1.5,,,,,,,,,d,orange,5c49a5f7cfaf510001550a96,2021-09-27_14h33.40.495,forced_choiceRT_color,2021.2.3,Win32,60.68697657,,,,,,,,6,Slow,short,d,1,2.3204,7,0,28,0,1,,,,,
,1.55,,,,,,,,,d,orange,5c49a5f7cfaf510001550a96,2021-09-27_14h33.40.495,forced_choiceRT_color,2021.2.3,Win32,60.68697657,,,,,,,,6,Ontime,short,d,1,2.027,7,1,29,0,1,,,,,
,0.79,,,,,,,,,f,blue,5c49a5f7cfaf510001550a96,2021-09-27_14h33.40.495,forced_choiceRT_color,2021.2.3,Win32,60.68697657,,,,,,,,6,Slow,short,j,0,2.2559,7,2,30,1,1,,,,,
,1.82,,,,,,,,,j,red,5c49a5f7cfaf510001550a96,2021-09-27_14h33.40.495,forced_choiceRT_color,2021.2.3,Win32,60.68697657,,,,,,,,6,Slow,short,j,1,2.7178,7,3,31,2,1,,,,,
,1.52,,,,,,,,,k,purple,5c49a5f7cfaf510001550a96,2021-09-27_14h33.40.495,forced_choiceRT_color,2021.2.3,Win32,60.68697657,,,,,,,,6,Slow,short,k,1,2.3922,8,0,32,3,1,,,,,
,0.11,,,,,,,,,j,red,5c49a5f7cfaf510001550a96,2021-09-27_14h33.40.495,forced_choiceRT_color,2021.2.3,Win32,60.68697657,,,,,,,,6,Fast,short,j,1,1.5443,8,1,33,2,1,,,,,
,0.08,,,,,,,,,d,orange,5c49a5f7cfaf510001550a96,2021-09-27_14h33.40.495,forced_choiceRT_color,2021.2.3,Win32,60.68697657,,,,,,,,6,Ontime,short,d,1,2.0709,8,2,34,0,1,,,,,
,0.92,,,,,,,,,j,red,5c49a5f7cfaf510001550a96,2021-09-27_14h33.40.495,forced_choiceRT_color,2021.2.3,Win32,60.68697657,,,,,,,,6,Slow,short,j,1,2.212,8,3,35,2,1,,,,,
,1.88,,,,,,,,,d,orange,5c49a5f7cfaf510001550a96,2021-09-27_14h33.40.495,forced_choiceRT_color,2021.2.3,Win32,60.68697657,,,,,,,,6,Slow,short,d,1,2.3329,9,0,36,0,1,,,,,
,1.94,,,,,,,,,d,orange,5c49a5f7cfaf510001550a96,2021-09-27_14h33.40.495,forced_choiceRT_color,2021.2.3,Win32,60.68697657,,,,,,,,6,Slow,short,d,1,2.617,9,1,37,0,1,,,,,
,0.57,,,,,,,,,f,blue,5c49a5f7cfaf510001550a96,2021-09-27_14h33.40.495,forced_choiceRT_color,2021.2.3,Win32,60.68697657,,,,,,,,6,Ontime,short,f,1,2.0036,9,2,38,1,1,,,,,
,0.19,,,,,,,,,f,blue,5c49a5f7cfaf510001550a96,2021-09-27_14h33.40.495,forced_choiceRT_color,2021.2.3,Win32,60.68697657,,,,,,,,6,Fast,short,f,1,1.7677,9,3,39,1,1,,,,,
,,,,,,,,,,,,5c49a5f7cfaf510001550a96,2021-09-27_14h33.40.495,forced_choiceRT_color,2021.2.3,Win32,60.68697657,,,,,,,,,,,,,,,,,,,5,0,5,0,1
,0.93,,,,,,,,,k,purple,5c49a5f7cfaf510001550a96,2021-09-27_14h33.40.495,forced_choiceRT_color,2021.2.3,Win32,60.68697657,,,,,,,,7,Ontime,short,k,1,2.0544,0,0,0,3,1,,,,,
,0.59,,,,,,,,,d,orange,5c49a5f7cfaf510001550a96,2021-09-27_14h33.40.495,forced_choiceRT_color,2021.2.3,Win32,60.68697657,,,,,,,,7,Ontime,short,d,1,1.9534,0,1,1,0,1,,,,,
,0.35,,,,,,,,,k,purple,5c49a5f7cfaf510001550a96,2021-09-27_14h33.40.495,forced_choiceRT_color,2021.2.3,Win32,60.68697657,,,,,,,,7,Ontime,short,k,1,1.9607,0,2,2,3,1,,,,,
,0.75,,,,,,,,,j,red,5c49a5f7cfaf510001550a96,2021-09-27_14h33.40.495,forced_choiceRT_color,2021.2.3,Win32,60.68697657,,,,,,,,7,Ontime,short,j,1,1.9369,0,3,3,2,1,,,,,
,0.35,,,,,,,,,f,blue,5c49a5f7cfaf510001550a96,2021-09-27_14h33.40.495,forced_choiceRT_color,2021.2.3,Win32,60.68697657,,,,,,,,7,Fast,short,f,1,1.7134,1,0,4,1,1,,,,,
,0.03,,,,,,,,,f,blue,5c49a5f7cfaf510001550a96,2021-09-27_14h33.40.495,forced_choiceRT_color,2021.2.3,Win32,60.68697657,,,,,,,,7,Ontime,short,f,1,2.0273,1,1,5,1,1,,,,,
,0.91,,,,,,,,,j,red,5c49a5f7cfaf510001550a96,2021-09-27_14h33.40.495,forced_choiceRT_color,2021.2.3,Win32,60.68697657,,,,,,,,7,Ontime,short,j,1,2.0283,1,2,6,2,1,,,,,
,0.8,,,,,,,,,d,orange,5c49a5f7cfaf510001550a96,2021-09-27_14h33.40.495,forced_choiceRT_color,2021.2.3,Win32,60.68697657,,,,,,,,7,Ontime,short,d,1,2.0029,1,3,7,0,1,,,,,
,0.23,,,,,,,,,k,purple,5c49a5f7cfaf510001550a96,2021-09-27_14h33.40.495,forced_choiceRT_color,2021.2.3,Win32,60.68697657,,,,,,,,7,Slow,short,k,1,2.289,2,0,8,3,1,,,,,
,0.38,,,,,,,,,d,orange,5c49a5f7cfaf510001550a96,2021-09-27_14h33.40.495,forced_choiceRT_color,2021.2.3,Win32,60.68697657,,,,,,,,7,Slow,short,d,1,2.1799,2,1,9,0,1,,,,,
,1.87,,,,,,,,,d,orange,5c49a5f7cfaf510001550a96,2021-09-27_14h33.40.495,forced_choiceRT_color,2021.2.3,Win32,60.68697657,,,,,,,,7,Slow,short,d,1,2.4376,2,2,10,0,1,,,,,
,0.91,,,,,,,,,j,red,5c49a5f7cfaf510001550a96,2021-09-27_14h33.40.495,forced_choiceRT_color,2021.2.3,Win32,60.68697657,,,,,,,,7,Slow,short,j,1,2.1887,2,3,11,2,1,,,,,
,1.78,,,,,,,,,f,blue,5c49a5f7cfaf510001550a96,2021-09-27_14h33.40.495,forced_choiceRT_color,2021.2.3,Win32,60.68697657,,,,,,,,7,Slow,short,f,1,3.8272,3,0,12,1,1,,,,,
,0.23,,,,,,,,,k,purple,5c49a5f7cfaf510001550a96,2021-09-27_14h33.40.495,forced_choiceRT_color,2021.2.3,Win32,60.68697657,,,,,,,,7,Ontime,short,k,1,1.9764,3,1,13,3,1,,,,,
,1.98,,,,,,,,,j,red,5c49a5f7cfaf510001550a96,2021-09-27_14h33.40.495,forced_choiceRT_color,2021.2.3,Win32,60.68697657,,,,,,,,7,Slow,short,j,1,2.7452,3,2,14,2,1,,,,,
,0.71,,,,,,,,,j,red,5c49a5f7cfaf510001550a96,2021-09-27_14h33.40.495,forced_choiceRT_color,2021.2.3,Win32,60.68697657,,,,,,,,7,Fast,short,j,1,1.8933,3,3,15,2,1,,,,,
,0.97,,,,,,,,,j,red,5c49a5f7cfaf510001550a96,2021-09-27_14h33.40.495,forced_choiceRT_color,2021.2.3,Win32,60.68697657,,,,,,,,7,Ontime,short,j,1,2.0863,4,0,16,2,1,,,,,
,1.33,,,,,,,,,j,red,5c49a5f7cfaf510001550a96,2021-09-27_14h33.40.495,forced_choiceRT_color,2021.2.3,Win32,60.68697657,,,,,,,,7,Ontime,short,j,1,2.0452,4,1,17,2,1,,,,,
,1.02,,,,,,,,,f,blue,5c49a5f7cfaf510001550a96,2021-09-27_14h33.40.495,forced_choiceRT_color,2021.2.3,Win32,60.68697657,,,,,,,,7,Fast,short,f,1,1.8684,4,2,18,1,1,,,,,
,1.21,,,,,,,,,f,blue,5c49a5f7cfaf510001550a96,2021-09-27_14h33.40.495,forced_choiceRT_color,2021.2.3,Win32,60.68697657,,,,,,,,7,Slow,short,d,0,2.2233,4,3,19,1,1,,,,,
,0.88,,,,,,,,,j,red,5c49a5f7cfaf510001550a96,2021-09-27_14h33.40.495,forced_choiceRT_color,2021.2.3,Win32,60.68697657,,,,,,,,7,Fast,short,j,1,1.8557,5,0,20,2,1,,,,,
,1.82,,,,,,,,,d,orange,5c49a5f7cfaf510001550a96,2021-09-27_14h33.40.495,forced_choiceRT_color,2021.2.3,Win32,60.68697657,,,,,,,,7,Slow,short,d,1,2.5861,5,1,21,0,1,,,,,
,1.84,,,,,,,,,d,orange,5c49a5f7cfaf510001550a96,2021-09-27_14h33.40.495,forced_choiceRT_color,2021.2.3,Win32,60.68697657,,,,,,,,7,Slow,short,f,0,2.4586,5,2,22,0,1,,,,,
,0.4,,,,,,,,,k,purple,5c49a5f7cfaf510001550a96,2021-09-27_14h33.40.495,forced_choiceRT_color,2021.2.3,Win32,60.68697657,,,,,,,,7,Slow,short,k,1,2.225,5,3,23,3,1,,,,,
,0.51,,,,,,,,,d,orange,5c49a5f7cfaf510001550a96,2021-09-27_14h33.40.495,forced_choiceRT_color,2021.2.3,Win32,60.68697657,,,,,,,,7,Fast,short,d,1,1.688,6,0,24,0,1,,,,,
,0.85,,,,,,,,,k,purple,5c49a5f7cfaf510001550a96,2021-09-27_14h33.40.495,forced_choiceRT_color,2021.2.3,Win32,60.68697657,,,,,,,,7,Fast,short,k,1,1.8266,6,1,25,3,1,,,,,
,0.22,,,,,,,,,f,blue,5c49a5f7cfaf510001550a96,2021-09-27_14h33.40.495,forced_choiceRT_color,2021.2.3,Win32,60.68697657,,,,,,,,7,Ontime,short,f,1,2.0721,6,2,26,1,1,,,,,
,0.33,,,,,,,,,j,red,5c49a5f7cfaf510001550a96,2021-09-27_14h33.40.495,forced_choiceRT_color,2021.2.3,Win32,60.68697657,,,,,,,,7,Ontime,short,j,1,2.054,6,3,27,2,1,,,,,
,1.99,,,,,,,,,f,blue,5c49a5f7cfaf510001550a96,2021-09-27_14h33.40.495,forced_choiceRT_color,2021.2.3,Win32,60.68697657,,,,,,,,7,Slow,short,f,1,3.4756,7,0,28,1,1,,,,,
,0.85,,,,,,,,,f,blue,5c49a5f7cfaf510001550a96,2021-09-27_14h33.40.495,forced_choiceRT_color,2021.2.3,Win32,60.68697657,,,,,,,,7,Fast,short,f,1,1.4734,7,1,29,1,1,,,,,
,1.34,,,,,,,,,f,blue,5c49a5f7cfaf510001550a96,2021-09-27_14h33.40.495,forced_choiceRT_color,2021.2.3,Win32,60.68697657,,,,,,,,7,Ontime,short,f,1,2.0964,7,2,30,1,1,,,,,
,0.35,,,,,,,,,k,purple,5c49a5f7cfaf510001550a96,2021-09-27_14h33.40.495,forced_choiceRT_color,2021.2.3,Win32,60.68697657,,,,,,,,7,Ontime,short,k,1,2.0597,7,3,31,3,1,,,,,
,0.68,,,,,,,,,d,orange,5c49a5f7cfaf510001550a96,2021-09-27_14h33.40.495,forced_choiceRT_color,2021.2.3,Win32,60.68697657,,,,,,,,7,Fast,short,d,1,1.7397,8,0,32,0,1,,,,,
,1.91,,,,,,,,,d,orange,5c49a5f7cfaf510001550a96,2021-09-27_14h33.40.495,forced_choiceRT_color,2021.2.3,Win32,60.68697657,,,,,,,,7,Slow,short,d,1,2.5587,8,1,33,0,1,,,,,
,0.01,,,,,,,,,d,orange,5c49a5f7cfaf510001550a96,2021-09-27_14h33.40.495,forced_choiceRT_color,2021.2.3,Win32,60.68697657,,,,,,,,7,Fast,short,d,1,1.8399,8,2,34,0,1,,,,,
,0.21,,,,,,,,,k,purple,5c49a5f7cfaf510001550a96,2021-09-27_14h33.40.495,forced_choiceRT_color,2021.2.3,Win32,60.68697657,,,,,,,,7,Ontime,short,k,1,1.9693,8,3,35,3,1,,,,,
,0.42,,,,,,,,,j,red,5c49a5f7cfaf510001550a96,2021-09-27_14h33.40.495,forced_choiceRT_color,2021.2.3,Win32,60.68697657,,,,,,,,7,Fast,short,j,1,1.8887,9,0,36,2,1,,,,,
,1.73,,,,,,,,,k,purple,5c49a5f7cfaf510001550a96,2021-09-27_14h33.40.495,forced_choiceRT_color,2021.2.3,Win32,60.68697657,,,,,,,,7,Slow,short,k,1,2.7004,9,1,37,3,1,,,,,
,0.45,,,,,,,,,k,purple,5c49a5f7cfaf510001550a96,2021-09-27_14h33.40.495,forced_choiceRT_color,2021.2.3,Win32,60.68697657,,,,,,,,7,Fast,short,k,1,1.8897,9,2,38,3,1,,,,,
,0.23,,,,,,,,,f,blue,5c49a5f7cfaf510001550a96,2021-09-27_14h33.40.495,forced_choiceRT_color,2021.2.3,Win32,60.68697657,,,,,,,,7,Fast,short,f,1,1.8519,9,3,39,1,1,,,,,
,,,,,,,,,,,,5c49a5f7cfaf510001550a96,2021-09-27_14h33.40.495,forced_choiceRT_color,2021.2.3,Win32,60.68697657,,,,,,,,,,,,,,,,,,,6,0,6,0,1
,0.39,,,,,,,,,f,blue,5c49a5f7cfaf510001550a96,2021-09-27_14h33.40.495,forced_choiceRT_color,2021.2.3,Win32,60.68697657,,,,,,,,8,Fast,short,j,0,1.8242,0,0,0,1,1,,,,,
,0.07,,,,,,,,,f,blue,5c49a5f7cfaf510001550a96,2021-09-27_14h33.40.495,forced_choiceRT_color,2021.2.3,Win32,60.68697657,,,,,,,,8,Ontime,short,j,0,1.9344,0,1,1,1,1,,,,,
,0.93,,,,,,,,,d,orange,5c49a5f7cfaf510001550a96,2021-09-27_14h33.40.495,forced_choiceRT_color,2021.2.3,Win32,60.68697657,,,,,,,,8,Fast,short,d,1,1.8709,0,2,2,0,1,,,,,
,0.75,,,,,,,,,d,orange,5c49a5f7cfaf510001550a96,2021-09-27_14h33.40.495,forced_choiceRT_color,2021.2.3,Win32,60.68697657,,,,,,,,8,Ontime,short,d,1,1.9463,0,3,3,0,1,,,,,
,1.24,,,,,,,,,f,blue,5c49a5f7cfaf510001550a96,2021-09-27_14h33.40.495,forced_choiceRT_color,2021.2.3,Win32,60.68697657,,,,,,,,8,Ontime,short,j,0,1.9145,1,0,4,1,1,,,,,
,0.78,,,,,,,,,k,purple,5c49a5f7cfaf510001550a96,2021-09-27_14h33.40.495,forced_choiceRT_color,2021.2.3,Win32,60.68697657,,,,,,,,8,Fast,short,k,1,1.8102,1,1,5,3,1,,,,,
,0.44,,,,,,,,,d,orange,5c49a5f7cfaf510001550a96,2021-09-27_14h33.40.495,forced_choiceRT_color,2021.2.3,Win32,60.68697657,,,,,,,,8,Fast,short,d,1,1.7341,1,2,6,0,1,,,,,
,0.3,,,,,,,,,j,red,5c49a5f7cfaf510001550a96,2021-09-27_14h33.40.495,forced_choiceRT_color,2021.2.3,Win32,60.68697657,,,,,,,,8,Ontime,short,f,0,1.9845,1,3,7,2,1,,,,,
,0.06,,,,,,,,,d,orange,5c49a5f7cfaf510001550a96,2021-09-27_14h33.40.495,forced_choiceRT_color,2021.2.3,Win32,60.68697657,,,,,,,,8,Ontime,short,d,1,1.98,2,0,8,0,1,,,,,
,0.89,,,,,,,,,k,purple,5c49a5f7cfaf510001550a96,2021-09-27_14h33.40.495,forced_choiceRT_color,2021.2.3,Win32,60.68697657,,,,,,,,8,Ontime,short,k,1,2.019,2,1,9,3,1,,,,,
,1.29,,,,,,,,,j,red,5c49a5f7cfaf510001550a96,2021-09-27_14h33.40.495,forced_choiceRT_color,2021.2.3,Win32,60.68697657,,,,,,,,8,Slow,short,j,1,3.0715,2,2,10,2,1,,,,,
,1.3,,,,,,,,,j,red,5c49a5f7cfaf510001550a96,2021-09-27_14h33.40.495,forced_choiceRT_color,2021.2.3,Win32,60.68697657,,,,,,,,8,Slow,short,j,1,2.2419,2,3,11,2,1,,,,,
,1.44,,,,,,,,,j,red,5c49a5f7cfaf510001550a96,2021-09-27_14h33.40.495,forced_choiceRT_color,2021.2.3,Win32,60.68697657,,,,,,,,8,Slow,short,j,1,2.128,3,0,12,2,1,,,,,
,1.33,,,,,,,,,j,red,5c49a5f7cfaf510001550a96,2021-09-27_14h33.40.495,forced_choiceRT_color,2021.2.3,Win32,60.68697657,,,,,,,,8,Slow,short,j,1,2.324,3,1,13,2,1,,,,,
,0.14,,,,,,,,,k,purple,5c49a5f7cfaf510001550a96,2021-09-27_14h33.40.495,forced_choiceRT_color,2021.2.3,Win32,60.68697657,,,,,,,,8,Ontime,short,k,1,1.983,3,2,14,3,1,,,,,
,0.05,,,,,,,,,k,purple,5c49a5f7cfaf510001550a96,2021-09-27_14h33.40.495,forced_choiceRT_color,2021.2.3,Win32,60.68697657,,,,,,,,8,Ontime,short,k,1,2.0555,3,3,15,3,1,,,,,
,1.18,,,,,,,,,j,red,5c49a5f7cfaf510001550a96,2021-09-27_14h33.40.495,forced_choiceRT_color,2021.2.3,Win32,60.68697657,,,,,,,,8,Slow,short,j,1,2.2897,4,0,16,2,1,,,,,
,0.07,,,,,,,,,k,purple,5c49a5f7cfaf510001550a96,2021-09-27_14h33.40.495,forced_choiceRT_color,2021.2.3,Win32,60.68697657,,,,,,,,8,Ontime,short,k,1,2.0906,4,1,17,3,1,,,,,
,0.65,,,,,,,,,j,red,5c49a5f7cfaf510001550a96,2021-09-27_14h33.40.495,forced_choiceRT_color,2021.2.3,Win32,60.68697657,,,,,,,,8,Slow,short,j,1,2.1805,4,2,18,2,1,,,,,
,0.23,,,,,,,,,d,orange,5c49a5f7cfaf510001550a96,2021-09-27_14h33.40.495,forced_choiceRT_color,2021.2.3,Win32,60.68697657,,,,,,,,8,Ontime,short,d,1,1.941,4,3,19,0,1,,,,,
,1.26,,,,,,,,,k,purple,5c49a5f7cfaf510001550a96,2021-09-27_14h33.40.495,forced_choiceRT_color,2021.2.3,Win32,60.68697657,,,,,,,,8,Slow,short,k,1,2.1407,5,0,20,3,1,,,,,
,1.95,,,,,,,,,d,orange,5c49a5f7cfaf510001550a96,2021-09-27_14h33.40.495,forced_choiceRT_color,2021.2.3,Win32,60.68697657,,,,,,,,8,Slow,short,d,1,2.5677,5,1,21,0,1,,,,,
,1.15,,,,,,,,,j,red,5c49a5f7cfaf510001550a96,2021-09-27_14h33.40.495,forced_choiceRT_color,2021.2.3,Win32,60.68697657,,,,,,,,8,Slow,short,j,1,2.1543,5,2,22,2,1,,,,,
,1.76,,,,,,,,,d,orange,5c49a5f7cfaf510001550a96,2021-09-27_14h33.40.495,forced_choiceRT_color,2021.2.3,Win32,60.68697657,,,,,,,,8,Slow,short,d,1,2.5455,5,3,23,0,1,,,,,
,1.02,,,,,,,,,k,purple,5c49a5f7cfaf510001550a96,2021-09-27_14h33.40.495,forced_choiceRT_color,2021.2.3,Win32,60.68697657,,,,,,,,8,Fast,short,k,1,1.8675,6,0,24,3,1,,,,,
,1.33,,,,,,,,,f,blue,5c49a5f7cfaf510001550a96,2021-09-27_14h33.40.495,forced_choiceRT_color,2021.2.3,Win32,60.68697657,,,,,,,,8,Slow,short,j,0,3.3241,6,1,25,1,1,,,,,
,1.5,,,,,,,,,k,purple,5c49a5f7cfaf510001550a96,2021-09-27_14h33.40.495,forced_choiceRT_color,2021.2.3,Win32,60.68697657,,,,,,,,8,Slow,short,k,1,2.212,6,2,26,3,1,,,,,
,0.5,,,,,,,,,k,purple,5c49a5f7cfaf510001550a96,2021-09-27_14h33.40.495,forced_choiceRT_color,2021.2.3,Win32,60.68697657,,,,,,,,8,Ontime,short,k,1,2.038,6,3,27,3,1,,,,,
,1.72,,,,,,,,,d,orange,5c49a5f7cfaf510001550a96,2021-09-27_14h33.40.495,forced_choiceRT_color,2021.2.3,Win32,60.68697657,,,,,,,,8,Slow,short,d,1,2.3277,7,0,28,0,1,,,,,
,0.84,,,,,,,,,f,blue,5c49a5f7cfaf510001550a96,2021-09-27_14h33.40.495,forced_choiceRT_color,2021.2.3,Win32,60.68697657,,,,,,,,8,Slow,short,f,1,2.7314,7,1,29,1,1,,,,,
,1.49,,,,,,,,,d,orange,5c49a5f7cfaf510001550a96,2021-09-27_14h33.40.495,forced_choiceRT_color,2021.2.3,Win32,60.68697657,,,,,,,,8,Slow,short,d,1,2.3247,7,2,30,0,1,,,,,
,0.13,,,,,,,,,f,blue,5c49a5f7cfaf510001550a96,2021-09-27_14h33.40.495,forced_choiceRT_color,2021.2.3,Win32,60.68697657,,,,,,,,8,Slow,short,j,0,2.1283,7,3,31,1,1,,,,,
,1.56,,,,,,,,,f,blue,5c49a5f7cfaf510001550a96,2021-09-27_14h33.40.495,forced_choiceRT_color,2021.2.3,Win32,60.68697657,,,,,,,,8,Slow,short,j,0,2.3397,8,0,32,1,1,,,,,
,1.21,,,,,,,,,j,red,5c49a5f7cfaf510001550a96,2021-09-27_14h33.40.495,forced_choiceRT_color,2021.2.3,Win32,60.68697657,,,,,,,,8,Slow,short,k,0,2.5333,8,1,33,2,1,,,,,
,1.7,,,,,,,,,k,purple,5c49a5f7cfaf510001550a96,2021-09-27_14h33.40.495,forced_choiceRT_color,2021.2.3,Win32,60.68697657,,,,,,,,8,Slow,short,k,1,3.1585,8,2,34,3,1,,,,,
,1.6,,,,,,,,,d,orange,5c49a5f7cfaf510001550a96,2021-09-27_14h33.40.495,forced_choiceRT_color,2021.2.3,Win32,60.68697657,,,,,,,,8,Slow,short,d,1,2.182,8,3,35,0,1,,,,,
,1.32,,,,,,,,,f,blue,5c49a5f7cfaf510001550a96,2021-09-27_14h33.40.495,forced_choiceRT_color,2021.2.3,Win32,60.68697657,,,,,,,,8,Slow,short,f,1,3.3465,9,0,36,1,1,,,,,
,1.4,,,,,,,,,j,red,5c49a5f7cfaf510001550a96,2021-09-27_14h33.40.495,forced_choiceRT_color,2021.2.3,Win32,60.68697657,,,,,,,,8,Slow,short,j,1,2.4748,9,1,37,2,1,,,,,
,1.08,,,,,,,,,f,blue,5c49a5f7cfaf510001550a96,2021-09-27_14h33.40.495,forced_choiceRT_color,2021.2.3,Win32,60.68697657,,,,,,,,8,Slow,short,f,1,3.3996,9,2,38,1,1,,,,,
,1.95,,,,,,,,,f,blue,5c49a5f7cfaf510001550a96,2021-09-27_14h33.40.495,forced_choiceRT_color,2021.2.3,Win32,60.68697657,,,,,,,,8,Slow,short,f,1,3.2471,9,3,39,1,1,,,,,
,,,,,,,,,,,,5c49a5f7cfaf510001550a96,2021-09-27_14h33.40.495,forced_choiceRT_color,2021.2.3,Win32,60.68697657,,,,,,,,,,,,,,,,,,,7,0,7,0,1
,0.6,,,,,,,,,d,orange,5c49a5f7cfaf510001550a96,2021-09-27_14h33.40.495,forced_choiceRT_color,2021.2.3,Win32,60.68697657,,,,,,,,9,Fast,short,d,1,1.1752,0,0,0,0,1,,,,,
,1.84,,,,,,,,,k,purple,5c49a5f7cfaf510001550a96,2021-09-27_14h33.40.495,forced_choiceRT_color,2021.2.3,Win32,60.68697657,,,,,,,,9,Slow,short,k,1,2.6465,0,1,1,3,1,,,,,
,1.03,,,,,,,,,d,orange,5c49a5f7cfaf510001550a96,2021-09-27_14h33.40.495,forced_choiceRT_color,2021.2.3,Win32,60.68697657,,,,,,,,9,Fast,short,d,1,1.7298,0,2,2,0,1,,,,,
,0.62,,,,,,,,,j,red,5c49a5f7cfaf510001550a96,2021-09-27_14h33.40.495,forced_choiceRT_color,2021.2.3,Win32,60.68697657,,,,,,,,9,Slow,short,j,1,2.4388,0,3,3,2,1,,,,,
,1.67,,,,,,,,,k,purple,5c49a5f7cfaf510001550a96,2021-09-27_14h33.40.495,forced_choiceRT_color,2021.2.3,Win32,60.68697657,,,,,,,,9,Slow,short,k,1,2.1868,1,0,4,3,1,,,,,
,0.89,,,,,,,,,j,red,5c49a5f7cfaf510001550a96,2021-09-27_14h33.40.495,forced_choiceRT_color,2021.2.3,Win32,60.68697657,,,,,,,,9,Slow,short,j,1,2.2336,1,1,5,2,1,,,,,
,1.03,,,,,,,,,j,red,5c49a5f7cfaf510001550a96,2021-09-27_14h33.40.495,forced_choiceRT_color,2021.2.3,Win32,60.68697657,,,,,,,,9,Slow,short,j,1,2.2342,1,2,6,2,1,,,,,
,1.31,,,,,,,,,f,blue,5c49a5f7cfaf510001550a96,2021-09-27_14h33.40.495,forced_choiceRT_color,2021.2.3,Win32,60.68697657,,,,,,,,9,Slow,short,f,1,2.6716,1,3,7,1,1,,,,,
,0.95,,,,,,,,,f,blue,5c49a5f7cfaf510001550a96,2021-09-27_14h33.40.495,forced_choiceRT_color,2021.2.3,Win32,60.68697657,,,,,,,,9,Fast,short,f,1,1.8618,2,0,8,1,1,,,,,
,1.93,,,,,,,,,k,purple,5c49a5f7cfaf510001550a96,2021-09-27_14h33.40.495,forced_choiceRT_color,2021.2.3,Win32,60.68697657,,,,,,,,9,Slow,short,k,1,2.8988,2,1,9,3,1,,,,,
,0.97,,,,,,,,,d,orange,5c49a5f7cfaf510001550a96,2021-09-27_14h33.40.495,forced_choiceRT_color,2021.2.3,Win32,60.68697657,,,,,,,,9,Slow,short,d,1,2.5352,2,2,10,0,1,,,,,
,1.31,,,,,,,,,k,purple,5c49a5f7cfaf510001550a96,2021-09-27_14h33.40.495,forced_choiceRT_color,2021.2.3,Win32,60.68697657,,,,,,,,9,Slow,short,k,1,2.3455,2,3,11,3,1,,,,,
,0.32,,,,,,,,,j,red,5c49a5f7cfaf510001550a96,2021-09-27_14h33.40.495,forced_choiceRT_color,2021.2.3,Win32,60.68697657,,,,,,,,9,Fast,short,j,1,1.8524,3,0,12,2,1,,,,,
,0.95,,,,,,,,,d,orange,5c49a5f7cfaf510001550a96,2021-09-27_14h33.40.495,forced_choiceRT_color,2021.2.3,Win32,60.68697657,,,,,,,,9,Slow,short,d,1,2.2564,3,1,13,0,1,,,,,
,0.35,,,,,,,,,d,orange,5c49a5f7cfaf510001550a96,2021-09-27_14h33.40.495,forced_choiceRT_color,2021.2.3,Win32,60.68697657,,,,,,,,9,Ontime,short,d,1,1.9838,3,2,14,0,1,,,,,
,1.16,,,,,,,,,f,blue,5c49a5f7cfaf510001550a96,2021-09-27_14h33.40.495,forced_choiceRT_color,2021.2.3,Win32,60.68697657,,,,,,,,9,Ontime,short,f,1,1.9787,3,3,15,1,1,,,,,
,1.17,,,,,,,,,d,orange,5c49a5f7cfaf510001550a96,2021-09-27_14h33.40.495,forced_choiceRT_color,2021.2.3,Win32,60.68697657,,,,,,,,9,Fast,short,f,0,0.1481,4,0,16,0,1,,,,,
,1.24,,,,,,,,,j,red,5c49a5f7cfaf510001550a96,2021-09-27_14h33.40.495,forced_choiceRT_color,2021.2.3,Win32,60.68697657,,,,,,,,9,Ontime,short,j,1,2.0815,4,1,17,2,1,,,,,
,1.22,,,,,,,,,f,blue,5c49a5f7cfaf510001550a96,2021-09-27_14h33.40.495,forced_choiceRT_color,2021.2.3,Win32,60.68697657,,,,,,,,9,Slow,short,f,1,2.4894,4,2,18,1,1,,,,,
,1.96,,,,,,,,,j,red,5c49a5f7cfaf510001550a96,2021-09-27_14h33.40.495,forced_choiceRT_color,2021.2.3,Win32,60.68697657,,,,,,,,9,Slow,short,f,0,3.4793,4,3,19,2,1,,,,,
,1.18,,,,,,,,,j,red,5c49a5f7cfaf510001550a96,2021-09-27_14h33.40.495,forced_choiceRT_color,2021.2.3,Win32,60.68697657,,,,,,,,9,Slow,short,j,1,2.3127,5,0,20,2,1,,,,,
,1.44,,,,,,,,,k,purple,5c49a5f7cfaf510001550a96,2021-09-27_14h33.40.495,forced_choiceRT_color,2021.2.3,Win32,60.68697657,,,,,,,,9,Slow,short,k,1,2.3402,5,1,21,3,1,,,,,
,0.52,,,,,,,,,f,blue,5c49a5f7cfaf510001550a96,2021-09-27_14h33.40.495,forced_choiceRT_color,2021.2.3,Win32,60.68697657,,,,,,,,9,Slow,short,f,1,2.185,5,2,22,1,1,,,,,
,0.14,,,,,,,,,f,blue,5c49a5f7cfaf510001550a96,2021-09-27_14h33.40.495,forced_choiceRT_color,2021.2.3,Win32,60.68697657,,,,,,,,9,Ontime,short,f,1,2.0853,5,3,23,1,1,,,,,
,0.44,,,,,,,,,f,blue,5c49a5f7cfaf510001550a96,2021-09-27_14h33.40.495,forced_choiceRT_color,2021.2.3,Win32,60.68697657,,,,,,,,9,Ontime,short,f,1,2.0589,6,0,24,1,1,,,,,
,0.98,,,,,,,,,k,purple,5c49a5f7cfaf510001550a96,2021-09-27_14h33.40.495,forced_choiceRT_color,2021.2.3,Win32,60.68697657,,,,,,,,9,Slow,short,k,1,2.1733,6,1,25,3,1,,,,,
,1.74,,,,,,,,,f,blue,5c49a5f7cfaf510001550a96,2021-09-27_14h33.40.495,forced_choiceRT_color,2021.2.3,Win32,60.68697657,,,,,,,,9,Slow,short,f,1,3.8283,6,2,26,1,1,,,,,
,0.71,,,,,,,,,k,purple,5c49a5f7cfaf510001550a96,2021-09-27_14h33.40.495,forced_choiceRT_color,2021.2.3,Win32,60.68697657,,,,,,,,9,Slow,short,k,1,2.1711,6,3,27,3,1,,,,,
,0.37,,,,,,,,,j,red,5c49a5f7cfaf510001550a96,2021-09-27_14h33.40.495,forced_choiceRT_color,2021.2.3,Win32,60.68697657,,,,,,,,9,Fast,short,j,1,1.8019,7,0,28,2,1,,,,,
,1.28,,,,,,,,,d,orange,5c49a5f7cfaf510001550a96,2021-09-27_14h33.40.495,forced_choiceRT_color,2021.2.3,Win32,60.68697657,,,,,,,,9,Fast,short,d,1,1.8912,7,1,29,0,1,,,,,
,1.78,,,,,,,,,k,purple,5c49a5f7cfaf510001550a96,2021-09-27_14h33.40.495,forced_choiceRT_color,2021.2.3,Win32,60.68697657,,,,,,,,9,Slow,short,k,1,2.7075,7,2,30,3,1,,,,,
,0.53,,,,,,,,,j,red,5c49a5f7cfaf510001550a96,2021-09-27_14h33.40.495,forced_choiceRT_color,2021.2.3,Win32,60.68697657,,,,,,,,9,Fast,short,j,1,1.6282,7,3,31,2,1,,,,,
,0.14,,,,,,,,,f,blue,5c49a5f7cfaf510001550a96,2021-09-27_14h33.40.495,forced_choiceRT_color,2021.2.3,Win32,60.68697657,,,,,,,,9,Ontime,short,f,1,2.0595,8,0,32,1,1,,,,,
,0.04,,,,,,,,,d,orange,5c49a5f7cfaf510001550a96,2021-09-27_14h33.40.495,forced_choiceRT_color,2021.2.3,Win32,60.68697657,,,,,,,,9,Slow,short,d,1,2.1602,8,1,33,0,1,,,,,
,1.82,,,,,,,,,f,blue,5c49a5f7cfaf510001550a96,2021-09-27_14h33.40.495,forced_choiceRT_color,2021.2.3,Win32,60.68697657,,,,,,,,9,Slow,short,f,1,3.6063,8,2,34,1,1,,,,,
,1.11,,,,,,,,,k,purple,5c49a5f7cfaf510001550a96,2021-09-27_14h33.40.495,forced_choiceRT_color,2021.2.3,Win32,60.68697657,,,,,,,,9,Ontime,short,k,1,1.9354,8,3,35,3,1,,,,,
,1.64,,,,,,,,,j,red,5c49a5f7cfaf510001550a96,2021-09-27_14h33.40.495,forced_choiceRT_color,2021.2.3,Win32,60.68697657,,,,,,,,9,Slow,short,d,0,2.3183,9,0,36,2,1,,,,,
,0,,,,,,,,,d,orange,5c49a5f7cfaf510001550a96,2021-09-27_14h33.40.495,forced_choiceRT_color,2021.2.3,Win32,60.68697657,,,,,,,,9,Fast,short,d,1,1.8893,9,1,37,0,1,,,,,
,1.79,,,,,,,,,k,purple,5c49a5f7cfaf510001550a96,2021-09-27_14h33.40.495,forced_choiceRT_color,2021.2.3,Win32,60.68697657,,,,,,,,9,Slow,short,k,1,2.3809,9,2,38,3,1,,,,,
,0.08,,,,,,,,,d,orange,5c49a5f7cfaf510001550a96,2021-09-27_14h33.40.495,forced_choiceRT_color,2021.2.3,Win32,60.68697657,,,,,,,,9,Fast,short,d,1,0.8056,9,3,39,0,1,,,,,
,,,,,,,,,,,,5c49a5f7cfaf510001550a96,2021-09-27_14h33.40.495,forced_choiceRT_color,2021.2.3,Win32,60.68697657,,,,,,,,,,,,,,,,,,,8,0,8,0,1
,1.07,,,,,,,,,f,blue,5c49a5f7cfaf510001550a96,2021-09-27_14h33.40.495,forced_choiceRT_color,2021.2.3,Win32,60.68697657,,,,,,,,10,Slow,short,f,1,2.7886,0,0,0,1,1,,,,,
,0.05,,,,,,,,,j,red,5c49a5f7cfaf510001550a96,2021-09-27_14h33.40.495,forced_choiceRT_color,2021.2.3,Win32,60.68697657,,,,,,,,10,Slow,short,j,1,2.1442,0,1,1,2,1,,,,,
,1.06,,,,,,,,,k,purple,5c49a5f7cfaf510001550a96,2021-09-27_14h33.40.495,forced_choiceRT_color,2021.2.3,Win32,60.68697657,,,,,,,,10,Slow,short,k,1,2.1692,0,2,2,3,1,,,,,
,1.89,,,,,,,,,f,blue,5c49a5f7cfaf510001550a96,2021-09-27_14h33.40.495,forced_choiceRT_color,2021.2.3,Win32,60.68697657,,,,,,,,10,Slow,short,f,1,3.2594,0,3,3,1,1,,,,,
,0.46,,,,,,,,,d,orange,5c49a5f7cfaf510001550a96,2021-09-27_14h33.40.495,forced_choiceRT_color,2021.2.3,Win32,60.68697657,,,,,,,,10,Fast,short,d,1,1.24,1,0,4,0,1,,,,,
,1.35,,,,,,,,,d,orange,5c49a5f7cfaf510001550a96,2021-09-27_14h33.40.495,forced_choiceRT_color,2021.2.3,Win32,60.68697657,,,,,,,,10,Ontime,short,d,1,1.9546,1,1,5,0,1,,,,,
,1.5,,,,,,,,,k,purple,5c49a5f7cfaf510001550a96,2021-09-27_14h33.40.495,forced_choiceRT_color,2021.2.3,Win32,60.68697657,,,,,,,,10,Slow,short,k,1,2.1737,1,2,6,3,1,,,,,
,0.66,,,,,,,,,j,red,5c49a5f7cfaf510001550a96,2021-09-27_14h33.40.495,forced_choiceRT_color,2021.2.3,Win32,60.68697657,,,,,,,,10,Fast,short,j,1,1.8223,1,3,7,2,1,,,,,
,0.23,,,,,,,,,j,red,5c49a5f7cfaf510001550a96,2021-09-27_14h33.40.495,forced_choiceRT_color,2021.2.3,Win32,60.68697657,,,,,,,,10,Fast,short,j,1,1.7543,2,0,8,2,1,,,,,
,1.91,,,,,,,,,d,orange,5c49a5f7cfaf510001550a96,2021-09-27_14h33.40.495,forced_choiceRT_color,2021.2.3,Win32,60.68697657,,,,,,,,10,Slow,short,d,1,2.4741,2,1,9,0,1,,,,,
,1.76,,,,,,,,,f,blue,5c49a5f7cfaf510001550a96,2021-09-27_14h33.40.495,forced_choiceRT_color,2021.2.3,Win32,60.68697657,,,,,,,,10,Slow,short,f,1,2.7058,2,2,10,1,1,,,,,
,1.38,,,,,,,,,f,blue,5c49a5f7cfaf510001550a96,2021-09-27_14h33.40.495,forced_choiceRT_color,2021.2.3,Win32,60.68697657,,,,,,,,10,Slow,short,f,1,2.2073,2,3,11,1,1,,,,,
,0.51,,,,,,,,,d,orange,5c49a5f7cfaf510001550a96,2021-09-27_14h33.40.495,forced_choiceRT_color,2021.2.3,Win32,60.68697657,,,,,,,,10,Fast,short,f,0,1.2051,3,0,12,0,1,,,,,
,1.37,,,,,,,,,d,orange,5c49a5f7cfaf510001550a96,2021-09-27_14h33.40.495,forced_choiceRT_color,2021.2.3,Win32,60.68697657,,,,,,,,10,Slow,short,d,1,2.2,3,1,13,0,1,,,,,
,1.3,,,,,,,,,k,purple,5c49a5f7cfaf510001550a96,2021-09-27_14h33.40.495,forced_choiceRT_color,2021.2.3,Win32,60.68697657,,,,,,,,10,Ontime,short,k,1,2.0802,3,2,14,3,1,,,,,
,1.3,,,,,,,,,j,red,5c49a5f7cfaf510001550a96,2021-09-27_14h33.40.495,forced_choiceRT_color,2021.2.3,Win32,60.68697657,,,,,,,,10,Ontime,short,f,0,1.9723,3,3,15,2,1,,,,,
,0.67,,,,,,,,,j,red,5c49a5f7cfaf510001550a96,2021-09-27_14h33.40.495,forced_choiceRT_color,2021.2.3,Win32,60.68697657,,,,,,,,10,Fast,short,f,0,1.7283,4,0,16,2,1,,,,,
,1.76,,,,,,,,,f,blue,5c49a5f7cfaf510001550a96,2021-09-27_14h33.40.495,forced_choiceRT_color,2021.2.3,Win32,60.68697657,,,,,,,,10,Slow,short,f,1,3.8297,4,1,17,1,1,,,,,
,0.35,,,,,,,,,j,red,5c49a5f7cfaf510001550a96,2021-09-27_14h33.40.495,forced_choiceRT_color,2021.2.3,Win32,60.68697657,,,,,,,,10,Ontime,short,j,1,2.0747,4,2,18,2,1,,,,,
,0.31,,,,,,,,,k,purple,5c49a5f7cfaf510001550a96,2021-09-27_14h33.40.495,forced_choiceRT_color,2021.2.3,Win32,60.68697657,,,,,,,,10,Ontime,short,k,1,1.9181,4,3,19,3,1,,,,,
,1.88,,,,,,,,,d,orange,5c49a5f7cfaf510001550a96,2021-09-27_14h33.40.495,forced_choiceRT_color,2021.2.3,Win32,60.68697657,,,,,,,,10,Slow,short,d,1,2.6464,5,0,20,0,1,,,,,
,1.05,,,,,,,,,k,purple,5c49a5f7cfaf510001550a96,2021-09-27_14h33.40.495,forced_choiceRT_color,2021.2.3,Win32,60.68697657,,,,,,,,10,Fast,short,k,1,1.7615,5,1,21,3,1,,,,,
,1.03,,,,,,,,,f,blue,5c49a5f7cfaf510001550a96,2021-09-27_14h33.40.495,forced_choiceRT_color,2021.2.3,Win32,60.68697657,,,,,,,,10,Ontime,short,f,1,1.9268,5,2,22,1,1,,,,,
,0.02,,,,,,,,,f,blue,5c49a5f7cfaf510001550a96,2021-09-27_14h33.40.495,forced_choiceRT_color,2021.2.3,Win32,60.68697657,,,,,,,,10,Fast,short,f,1,1.8232,5,3,23,1,1,,,,,
,1.64,,,,,,,,,k,purple,5c49a5f7cfaf510001550a96,2021-09-27_14h33.40.495,forced_choiceRT_color,2021.2.3,Win32,60.68697657,,,,,,,,10,Slow,short,k,1,2.3305,6,0,24,3,1,,,,,
,1.17,,,,,,,,,k,purple,5c49a5f7cfaf510001550a96,2021-09-27_14h33.40.495,forced_choiceRT_color,2021.2.3,Win32,60.68697657,,,,,,,,10,Ontime,short,k,1,1.9898,6,1,25,3,1,,,,,
,0.27,,,,,,,,,k,purple,5c49a5f7cfaf510001550a96,2021-09-27_14h33.40.495,forced_choiceRT_color,2021.2.3,Win32,60.68697657,,,,,,,,10,Fast,short,k,1,1.7649,6,2,26,3,1,,,,,
,1.87,,,,,,,,,k,purple,5c49a5f7cfaf510001550a96,2021-09-27_14h33.40.495,forced_choiceRT_color,2021.2.3,Win32,60.68697657,,,,,,,,10,Slow,short,k,1,2.2813,6,3,27,3,1,,,,,
,0.79,,,,,,,,,j,red,5c49a5f7cfaf510001550a96,2021-09-27_14h33.40.495,forced_choiceRT_color,2021.2.3,Win32,60.68697657,,,,,,,,10,Slow,short,j,1,2.1629,7,0,28,2,1,,,,,
,1.52,,,,,,,,,j,red,5c49a5f7cfaf510001550a96,2021-09-27_14h33.40.495,forced_choiceRT_color,2021.2.3,Win32,60.68697657,,,,,,,,10,Slow,short,j,1,2.4283,7,1,29,2,1,,,,,
,0.71,,,,,,,,,d,orange,5c49a5f7cfaf510001550a96,2021-09-27_14h33.40.495,forced_choiceRT_color,2021.2.3,Win32,60.68697657,,,,,,,,10,Fast,short,d,1,1.5137,7,2,30,0,1,,,,,
,0.08,,,,,,,,,j,red,5c49a5f7cfaf510001550a96,2021-09-27_14h33.40.495,forced_choiceRT_color,2021.2.3,Win32,60.68697657,,,,,,,,10,Fast,short,j,1,1.7821,7,3,31,2,1,,,,,
,1.08,,,,,,,,,d,orange,5c49a5f7cfaf510001550a96,2021-09-27_14h33.40.495,forced_choiceRT_color,2021.2.3,Win32,60.68697657,,,,,,,,10,Fast,short,d,1,1.8658,8,0,32,0,1,,,,,
,0.63,,,,,,,,,d,orange,5c49a5f7cfaf510001550a96,2021-09-27_14h33.40.495,forced_choiceRT_color,2021.2.3,Win32,60.68697657,,,,,,,,10,Ontime,short,d,1,2.0245,8,1,33,0,1,,,,,
,0.06,,,,,,,,,f,blue,5c49a5f7cfaf510001550a96,2021-09-27_14h33.40.495,forced_choiceRT_color,2021.2.3,Win32,60.68697657,,,,,,,,10,Ontime,short,f,1,2.076,8,2,34,1,1,,,,,
,1.27,,,,,,,,,k,purple,5c49a5f7cfaf510001550a96,2021-09-27_14h33.40.495,forced_choiceRT_color,2021.2.3,Win32,60.68697657,,,,,,,,10,Slow,short,k,1,2.1011,8,3,35,3,1,,,,,
,1.57,,,,,,,,,f,blue,5c49a5f7cfaf510001550a96,2021-09-27_14h33.40.495,forced_choiceRT_color,2021.2.3,Win32,60.68697657,,,,,,,,10,Slow,short,f,1,2.8429,9,0,36,1,1,,,,,
,1.86,,,,,,,,,d,orange,5c49a5f7cfaf510001550a96,2021-09-27_14h33.40.495,forced_choiceRT_color,2021.2.3,Win32,60.68697657,,,,,,,,10,Slow,short,d,1,3.5325,9,1,37,0,1,,,,,
,0.95,,,,,,,,,f,blue,5c49a5f7cfaf510001550a96,2021-09-27_14h33.40.495,forced_choiceRT_color,2021.2.3,Win32,60.68697657,,,,,,,,10,Ontime,short,d,0,2.088,9,2,38,1,1,,,,,
,1.49,,,,,,,,,j,red,5c49a5f7cfaf510001550a96,2021-09-27_14h33.40.495,forced_choiceRT_color,2021.2.3,Win32,60.68697657,,,,,,,,10,Fast,short,f,0,0.1152,9,3,39,2,1,,,,,
,,,,,,,,,,,,5c49a5f7cfaf510001550a96,2021-09-27_14h33.40.495,forced_choiceRT_color,2021.2.3,Win32,60.68697657,,,,,,,,,,,,,,,,,,,9,0,9,0,1
