target_onset,trial_resp_sp.keys,trial_resp_sp.corr,trial_resp_sp.rt,trials_train_loop.thisRepN,trials_train_loop.thisTrialN,trials_train_loop.thisN,trials_train_loop.thisIndex,trials_train_loop.ran,correct_key,color,participant,date,expName,psychopyVersion,OS,frameRate,trial_resp_timing.keys,trial_resp_timing.rt,trials_train_timing.thisRepN,trials_train_timing.thisTrialN,trials_train_timing.thisN,trials_train_timing.thisIndex,trials_train_timing.ran,block_id,ontime,feedback_cond,forcedRT_resp.keys,forcedRT_resp.corr,forcedRT_resp.rt,trials.thisRepN,trials.thisTrialN,trials.thisN,trials.thisIndex,trials.ran,blocks.thisRepN,blocks.thisTrialN,blocks.thisN,blocks.thisIndex,blocks.ran
0,d,1,1.1427,0,0,0,0,1,d,orange,5c9d68f2e4a1e70001fe291e,2021-09-27_23h26.03.227,forced_choiceRT_color,2021.2.3,MacIntel,60.0024001,,,,,,,,,,,,,,,,,,,,,,,
0,f,1,0.845,0,1,1,1,1,f,blue,5c9d68f2e4a1e70001fe291e,2021-09-27_23h26.03.227,forced_choiceRT_color,2021.2.3,MacIntel,60.0024001,,,,,,,,,,,,,,,,,,,,,,,
0,j,1,0.428,0,2,2,2,1,j,red,5c9d68f2e4a1e70001fe291e,2021-09-27_23h26.03.227,forced_choiceRT_color,2021.2.3,MacIntel,60.0024001,,,,,,,,,,,,,,,,,,,,,,,
0,f,1,1.1267,0,3,3,1,1,f,blue,5c9d68f2e4a1e70001fe291e,2021-09-27_23h26.03.227,forced_choiceRT_color,2021.2.3,MacIntel,60.0024001,,,,,,,,,,,,,,,,,,,,,,,
0,d,1,0.5618,1,0,4,0,1,d,orange,5c9d68f2e4a1e70001fe291e,2021-09-27_23h26.03.227,forced_choiceRT_color,2021.2.3,MacIntel,60.0024001,,,,,,,,,,,,,,,,,,,,,,,
0,d,1,0.612,1,1,5,0,1,d,orange,5c9d68f2e4a1e70001fe291e,2021-09-27_23h26.03.227,forced_choiceRT_color,2021.2.3,MacIntel,60.0024001,,,,,,,,,,,,,,,,,,,,,,,
0,d,1,0.5502,1,2,6,0,1,d,orange,5c9d68f2e4a1e70001fe291e,2021-09-27_23h26.03.227,forced_choiceRT_color,2021.2.3,MacIntel,60.0024001,,,,,,,,,,,,,,,,,,,,,,,
0,k,1,0.4496,1,3,7,3,1,k,purple,5c9d68f2e4a1e70001fe291e,2021-09-27_23h26.03.227,forced_choiceRT_color,2021.2.3,MacIntel,60.0024001,,,,,,,,,,,,,,,,,,,,,,,
0,j,1,0.5102,2,0,8,2,1,j,red,5c9d68f2e4a1e70001fe291e,2021-09-27_23h26.03.227,forced_choiceRT_color,2021.2.3,MacIntel,60.0024001,,,,,,,,,,,,,,,,,,,,,,,
0,d,1,0.5935,2,1,9,0,1,d,orange,5c9d68f2e4a1e70001fe291e,2021-09-27_23h26.03.227,forced_choiceRT_color,2021.2.3,MacIntel,60.0024001,,,,,,,,,,,,,,,,,,,,,,,
0,d,1,0.5945,2,2,10,0,1,d,orange,5c9d68f2e4a1e70001fe291e,2021-09-27_23h26.03.227,forced_choiceRT_color,2021.2.3,MacIntel,60.0024001,,,,,,,,,,,,,,,,,,,,,,,
0,f,1,0.4611,2,3,11,1,1,f,blue,5c9d68f2e4a1e70001fe291e,2021-09-27_23h26.03.227,forced_choiceRT_color,2021.2.3,MacIntel,60.0024001,,,,,,,,,,,,,,,,,,,,,,,
0,f,1,0.5195,3,0,12,1,1,f,blue,5c9d68f2e4a1e70001fe291e,2021-09-27_23h26.03.227,forced_choiceRT_color,2021.2.3,MacIntel,60.0024001,,,,,,,,,,,,,,,,,,,,,,,
0,d,1,0.582,3,1,13,0,1,d,orange,5c9d68f2e4a1e70001fe291e,2021-09-27_23h26.03.227,forced_choiceRT_color,2021.2.3,MacIntel,60.0024001,,,,,,,,,,,,,,,,,,,,,,,
0,k,1,0.4833,3,2,14,3,1,k,purple,5c9d68f2e4a1e70001fe291e,2021-09-27_23h26.03.227,forced_choiceRT_color,2021.2.3,MacIntel,60.0024001,,,,,,,,,,,,,,,,,,,,,,,
0,j,1,0.5174,3,3,15,2,1,j,red,5c9d68f2e4a1e70001fe291e,2021-09-27_23h26.03.227,forced_choiceRT_color,2021.2.3,MacIntel,60.0024001,,,,,,,,,,,,,,,,,,,,,,,
0,j,1,0.5748,4,0,16,2,1,j,red,5c9d68f2e4a1e70001fe291e,2021-09-27_23h26.03.227,forced_choiceRT_color,2021.2.3,MacIntel,60.0024001,,,,,,,,,,,,,,,,,,,,,,,
0,k,1,0.5784,4,1,17,3,1,k,purple,5c9d68f2e4a1e70001fe291e,2021-09-27_23h26.03.227,forced_choiceRT_color,2021.2.3,MacIntel,60.0024001,,,,,,,,,,,,,,,,,,,,,,,
0,j,1,0.6508,4,2,18,2,1,j,red,5c9d68f2e4a1e70001fe291e,2021-09-27_23h26.03.227,forced_choiceRT_color,2021.2.3,MacIntel,60.0024001,,,,,,,,,,,,,,,,,,,,,,,
0,f,1,0.6146,4,3,19,1,1,f,blue,5c9d68f2e4a1e70001fe291e,2021-09-27_23h26.03.227,forced_choiceRT_color,2021.2.3,MacIntel,60.0024001,,,,,,,,,,,,,,,,,,,,,,,
0,k,1,0.5988,5,0,20,3,1,k,purple,5c9d68f2e4a1e70001fe291e,2021-09-27_23h26.03.227,forced_choiceRT_color,2021.2.3,MacIntel,60.0024001,,,,,,,,,,,,,,,,,,,,,,,
0,d,1,0.533,5,1,21,0,1,d,orange,5c9d68f2e4a1e70001fe291e,2021-09-27_23h26.03.227,forced_choiceRT_color,2021.2.3,MacIntel,60.0024001,,,,,,,,,,,,,,,,,,,,,,,
0,j,1,0.6288,5,2,22,2,1,j,red,5c9d68f2e4a1e70001fe291e,2021-09-27_23h26.03.227,forced_choiceRT_color,2021.2.3,MacIntel,60.0024001,,,,,,,,,,,,,,,,,,,,,,,
0,j,1,0.5063,5,3,23,2,1,j,red,5c9d68f2e4a1e70001fe291e,2021-09-27_23h26.03.227,forced_choiceRT_color,2021.2.3,MacIntel,60.0024001,,,,,,,,,,,,,,,,,,,,,,,
0,f,1,0.5431,6,0,24,1,1,f,blue,5c9d68f2e4a1e70001fe291e,2021-09-27_23h26.03.227,forced_choiceRT_color,2021.2.3,MacIntel,60.0024001,,,,,,,,,,,,,,,,,,,,,,,
0,f,1,0.5007,6,1,25,1,1,f,blue,5c9d68f2e4a1e70001fe291e,2021-09-27_23h26.03.227,forced_choiceRT_color,2021.2.3,MacIntel,60.0024001,,,,,,,,,,,,,,,,,,,,,,,
0,d,1,0.5277,6,2,26,0,1,d,orange,5c9d68f2e4a1e70001fe291e,2021-09-27_23h26.03.227,forced_choiceRT_color,2021.2.3,MacIntel,60.0024001,,,,,,,,,,,,,,,,,,,,,,,
0,j,1,0.5813,6,3,27,2,1,j,red,5c9d68f2e4a1e70001fe291e,2021-09-27_23h26.03.227,forced_choiceRT_color,2021.2.3,MacIntel,60.0024001,,,,,,,,,,,,,,,,,,,,,,,
0,f,1,0.633,7,0,28,1,1,f,blue,5c9d68f2e4a1e70001fe291e,2021-09-27_23h26.03.227,forced_choiceRT_color,2021.2.3,MacIntel,60.0024001,,,,,,,,,,,,,,,,,,,,,,,
0,f,1,0.5497,7,1,29,1,1,f,blue,5c9d68f2e4a1e70001fe291e,2021-09-27_23h26.03.227,forced_choiceRT_color,2021.2.3,MacIntel,60.0024001,,,,,,,,,,,,,,,,,,,,,,,
0,d,1,0.4942,7,2,30,0,1,d,orange,5c9d68f2e4a1e70001fe291e,2021-09-27_23h26.03.227,forced_choiceRT_color,2021.2.3,MacIntel,60.0024001,,,,,,,,,,,,,,,,,,,,,,,
0,k,1,0.542,7,3,31,3,1,k,purple,5c9d68f2e4a1e70001fe291e,2021-09-27_23h26.03.227,forced_choiceRT_color,2021.2.3,MacIntel,60.0024001,,,,,,,,,,,,,,,,,,,,,,,
0,d,1,0.4952,8,0,32,0,1,d,orange,5c9d68f2e4a1e70001fe291e,2021-09-27_23h26.03.227,forced_choiceRT_color,2021.2.3,MacIntel,60.0024001,,,,,,,,,,,,,,,,,,,,,,,
0,j,0,0.4491,8,1,33,3,1,k,purple,5c9d68f2e4a1e70001fe291e,2021-09-27_23h26.03.227,forced_choiceRT_color,2021.2.3,MacIntel,60.0024001,,,,,,,,,,,,,,,,,,,,,,,
0,k,1,0.6985,8,2,34,3,1,k,purple,5c9d68f2e4a1e70001fe291e,2021-09-27_23h26.03.227,forced_choiceRT_color,2021.2.3,MacIntel,60.0024001,,,,,,,,,,,,,,,,,,,,,,,
0,f,1,0.5276,8,3,35,1,1,f,blue,5c9d68f2e4a1e70001fe291e,2021-09-27_23h26.03.227,forced_choiceRT_color,2021.2.3,MacIntel,60.0024001,,,,,,,,,,,,,,,,,,,,,,,
0,k,1,0.5096,9,0,36,3,1,k,purple,5c9d68f2e4a1e70001fe291e,2021-09-27_23h26.03.227,forced_choiceRT_color,2021.2.3,MacIntel,60.0024001,,,,,,,,,,,,,,,,,,,,,,,
0,f,1,0.5638,9,1,37,1,1,f,blue,5c9d68f2e4a1e70001fe291e,2021-09-27_23h26.03.227,forced_choiceRT_color,2021.2.3,MacIntel,60.0024001,,,,,,,,,,,,,,,,,,,,,,,
0,k,1,0.4951,9,2,38,3,1,k,purple,5c9d68f2e4a1e70001fe291e,2021-09-27_23h26.03.227,forced_choiceRT_color,2021.2.3,MacIntel,60.0024001,,,,,,,,,,,,,,,,,,,,,,,
0,f,1,0.6292,9,3,39,1,1,f,blue,5c9d68f2e4a1e70001fe291e,2021-09-27_23h26.03.227,forced_choiceRT_color,2021.2.3,MacIntel,60.0024001,,,,,,,,,,,,,,,,,,,,,,,
0,j,1,0.528,10,0,40,2,1,j,red,5c9d68f2e4a1e70001fe291e,2021-09-27_23h26.03.227,forced_choiceRT_color,2021.2.3,MacIntel,60.0024001,,,,,,,,,,,,,,,,,,,,,,,
0,f,1,0.5784,10,1,41,1,1,f,blue,5c9d68f2e4a1e70001fe291e,2021-09-27_23h26.03.227,forced_choiceRT_color,2021.2.3,MacIntel,60.0024001,,,,,,,,,,,,,,,,,,,,,,,
0,k,1,0.508,10,2,42,3,1,k,purple,5c9d68f2e4a1e70001fe291e,2021-09-27_23h26.03.227,forced_choiceRT_color,2021.2.3,MacIntel,60.0024001,,,,,,,,,,,,,,,,,,,,,,,
0,k,1,0.431,10,3,43,3,1,k,purple,5c9d68f2e4a1e70001fe291e,2021-09-27_23h26.03.227,forced_choiceRT_color,2021.2.3,MacIntel,60.0024001,,,,,,,,,,,,,,,,,,,,,,,
0,j,1,0.5647,11,0,44,2,1,j,red,5c9d68f2e4a1e70001fe291e,2021-09-27_23h26.03.227,forced_choiceRT_color,2021.2.3,MacIntel,60.0024001,,,,,,,,,,,,,,,,,,,,,,,
0,d,1,0.4276,11,1,45,0,1,d,orange,5c9d68f2e4a1e70001fe291e,2021-09-27_23h26.03.227,forced_choiceRT_color,2021.2.3,MacIntel,60.0024001,,,,,,,,,,,,,,,,,,,,,,,
0,k,1,0.4936,11,2,46,3,1,k,purple,5c9d68f2e4a1e70001fe291e,2021-09-27_23h26.03.227,forced_choiceRT_color,2021.2.3,MacIntel,60.0024001,,,,,,,,,,,,,,,,,,,,,,,
0,d,1,0.5525,11,3,47,0,1,d,orange,5c9d68f2e4a1e70001fe291e,2021-09-27_23h26.03.227,forced_choiceRT_color,2021.2.3,MacIntel,60.0024001,,,,,,,,,,,,,,,,,,,,,,,
0,j,1,0.549,12,0,48,2,1,j,red,5c9d68f2e4a1e70001fe291e,2021-09-27_23h26.03.227,forced_choiceRT_color,2021.2.3,MacIntel,60.0024001,,,,,,,,,,,,,,,,,,,,,,,
0,f,1,0.4858,12,1,49,1,1,f,blue,5c9d68f2e4a1e70001fe291e,2021-09-27_23h26.03.227,forced_choiceRT_color,2021.2.3,MacIntel,60.0024001,,,,,,,,,,,,,,,,,,,,,,,
0,k,1,0.4121,12,2,50,3,1,k,purple,5c9d68f2e4a1e70001fe291e,2021-09-27_23h26.03.227,forced_choiceRT_color,2021.2.3,MacIntel,60.0024001,,,,,,,,,,,,,,,,,,,,,,,
0,j,1,0.8102,12,3,51,2,1,j,red,5c9d68f2e4a1e70001fe291e,2021-09-27_23h26.03.227,forced_choiceRT_color,2021.2.3,MacIntel,60.0024001,,,,,,,,,,,,,,,,,,,,,,,
0,d,1,0.516,13,0,52,0,1,d,orange,5c9d68f2e4a1e70001fe291e,2021-09-27_23h26.03.227,forced_choiceRT_color,2021.2.3,MacIntel,60.0024001,,,,,,,,,,,,,,,,,,,,,,,
0,j,1,0.6986,13,1,53,2,1,j,red,5c9d68f2e4a1e70001fe291e,2021-09-27_23h26.03.227,forced_choiceRT_color,2021.2.3,MacIntel,60.0024001,,,,,,,,,,,,,,,,,,,,,,,
0,k,1,0.5268,13,2,54,3,1,k,purple,5c9d68f2e4a1e70001fe291e,2021-09-27_23h26.03.227,forced_choiceRT_color,2021.2.3,MacIntel,60.0024001,,,,,,,,,,,,,,,,,,,,,,,
0,k,1,0.6288,13,3,55,3,1,k,purple,5c9d68f2e4a1e70001fe291e,2021-09-27_23h26.03.227,forced_choiceRT_color,2021.2.3,MacIntel,60.0024001,,,,,,,,,,,,,,,,,,,,,,,
0,j,1,0.5796,14,0,56,2,1,j,red,5c9d68f2e4a1e70001fe291e,2021-09-27_23h26.03.227,forced_choiceRT_color,2021.2.3,MacIntel,60.0024001,,,,,,,,,,,,,,,,,,,,,,,
0,f,1,0.5305,14,1,57,1,1,f,blue,5c9d68f2e4a1e70001fe291e,2021-09-27_23h26.03.227,forced_choiceRT_color,2021.2.3,MacIntel,60.0024001,,,,,,,,,,,,,,,,,,,,,,,
0,j,1,0.5934,14,2,58,2,1,j,red,5c9d68f2e4a1e70001fe291e,2021-09-27_23h26.03.227,forced_choiceRT_color,2021.2.3,MacIntel,60.0024001,,,,,,,,,,,,,,,,,,,,,,,
0,d,1,0.5953,14,3,59,0,1,d,orange,5c9d68f2e4a1e70001fe291e,2021-09-27_23h26.03.227,forced_choiceRT_color,2021.2.3,MacIntel,60.0024001,,,,,,,,,,,,,,,,,,,,,,,
,,,,,,,,,,,5c9d68f2e4a1e70001fe291e,2021-09-27_23h26.03.227,forced_choiceRT_color,2021.2.3,MacIntel,60.0024001,d,2.2898,0,0,0,0,1,,,,,,,,,,,,,,,,
,,,,,,,,,,,5c9d68f2e4a1e70001fe291e,2021-09-27_23h26.03.227,forced_choiceRT_color,2021.2.3,MacIntel,60.0024001,d,2.1685,1,0,1,0,1,,,,,,,,,,,,,,,,
,,,,,,,,,,,5c9d68f2e4a1e70001fe291e,2021-09-27_23h26.03.227,forced_choiceRT_color,2021.2.3,MacIntel,60.0024001,j,2.0687,2,0,2,0,1,,,,,,,,,,,,,,,,
,,,,,,,,,,,5c9d68f2e4a1e70001fe291e,2021-09-27_23h26.03.227,forced_choiceRT_color,2021.2.3,MacIntel,60.0024001,j,2.0766,3,0,3,0,1,,,,,,,,,,,,,,,,
,,,,,,,,,,,5c9d68f2e4a1e70001fe291e,2021-09-27_23h26.03.227,forced_choiceRT_color,2021.2.3,MacIntel,60.0024001,k,2.107,4,0,4,0,1,,,,,,,,,,,,,,,,
,,,,,,,,,,,5c9d68f2e4a1e70001fe291e,2021-09-27_23h26.03.227,forced_choiceRT_color,2021.2.3,MacIntel,60.0024001,d,2.0778,5,0,5,0,1,,,,,,,,,,,,,,,,
,,,,,,,,,,,5c9d68f2e4a1e70001fe291e,2021-09-27_23h26.03.227,forced_choiceRT_color,2021.2.3,MacIntel,60.0024001,f,2.0001,6,0,6,0,1,,,,,,,,,,,,,,,,
,,,,,,,,,,,5c9d68f2e4a1e70001fe291e,2021-09-27_23h26.03.227,forced_choiceRT_color,2021.2.3,MacIntel,60.0024001,j,2.0032,7,0,7,0,1,,,,,,,,,,,,,,,,
,,,,,,,,,,,5c9d68f2e4a1e70001fe291e,2021-09-27_23h26.03.227,forced_choiceRT_color,2021.2.3,MacIntel,60.0024001,k,2.0279,8,0,8,0,1,,,,,,,,,,,,,,,,
,,,,,,,,,,,5c9d68f2e4a1e70001fe291e,2021-09-27_23h26.03.227,forced_choiceRT_color,2021.2.3,MacIntel,60.0024001,f,2.1326,9,0,9,0,1,,,,,,,,,,,,,,,,
,,,,,,,,,,,5c9d68f2e4a1e70001fe291e,2021-09-27_23h26.03.227,forced_choiceRT_color,2021.2.3,MacIntel,60.0024001,j,2.0114,10,0,10,0,1,,,,,,,,,,,,,,,,
,,,,,,,,,,,5c9d68f2e4a1e70001fe291e,2021-09-27_23h26.03.227,forced_choiceRT_color,2021.2.3,MacIntel,60.0024001,k,1.958,11,0,11,0,1,,,,,,,,,,,,,,,,
,,,,,,,,,,,5c9d68f2e4a1e70001fe291e,2021-09-27_23h26.03.227,forced_choiceRT_color,2021.2.3,MacIntel,60.0024001,k,2.0008,12,0,12,0,1,,,,,,,,,,,,,,,,
,,,,,,,,,,,5c9d68f2e4a1e70001fe291e,2021-09-27_23h26.03.227,forced_choiceRT_color,2021.2.3,MacIntel,60.0024001,f,2.063,13,0,13,0,1,,,,,,,,,,,,,,,,
,,,,,,,,,,,5c9d68f2e4a1e70001fe291e,2021-09-27_23h26.03.227,forced_choiceRT_color,2021.2.3,MacIntel,60.0024001,j,2.093,14,0,14,0,1,,,,,,,,,,,,,,,,
,,,,,,,,,,,5c9d68f2e4a1e70001fe291e,2021-09-27_23h26.03.227,forced_choiceRT_color,2021.2.3,MacIntel,60.0024001,d,2.2377,15,0,15,0,1,,,,,,,,,,,,,,,,
,,,,,,,,,,,5c9d68f2e4a1e70001fe291e,2021-09-27_23h26.03.227,forced_choiceRT_color,2021.2.3,MacIntel,60.0024001,d,1.9451,16,0,16,0,1,,,,,,,,,,,,,,,,
,,,,,,,,,,,5c9d68f2e4a1e70001fe291e,2021-09-27_23h26.03.227,forced_choiceRT_color,2021.2.3,MacIntel,60.0024001,d,1.9745,17,0,17,0,1,,,,,,,,,,,,,,,,
,,,,,,,,,,,5c9d68f2e4a1e70001fe291e,2021-09-27_23h26.03.227,forced_choiceRT_color,2021.2.3,MacIntel,60.0024001,f,1.9884,18,0,18,0,1,,,,,,,,,,,,,,,,
,,,,,,,,,,,5c9d68f2e4a1e70001fe291e,2021-09-27_23h26.03.227,forced_choiceRT_color,2021.2.3,MacIntel,60.0024001,j,2.0281,19,0,19,0,1,,,,,,,,,,,,,,,,
1.2,,,,,,,,,j,red,5c9d68f2e4a1e70001fe291e,2021-09-27_23h26.03.227,forced_choiceRT_color,2021.2.3,MacIntel,60.0024001,,,,,,,,1,Slow,long,d,0,2.2459,0,0,0,2,1,,,,,
1.2,,,,,,,,,k,purple,5c9d68f2e4a1e70001fe291e,2021-09-27_23h26.03.227,forced_choiceRT_color,2021.2.3,MacIntel,60.0024001,,,,,,,,1,Slow,long,k,1,2.1182,0,1,1,3,1,,,,,
1.05,,,,,,,,,d,orange,5c9d68f2e4a1e70001fe291e,2021-09-27_23h26.03.227,forced_choiceRT_color,2021.2.3,MacIntel,60.0024001,,,,,,,,1,Fast,long,d,1,1.4955,0,2,2,0,1,,,,,
1.28,,,,,,,,,d,orange,5c9d68f2e4a1e70001fe291e,2021-09-27_23h26.03.227,forced_choiceRT_color,2021.2.3,MacIntel,60.0024001,,,,,,,,1,Slow,long,d,1,2.1537,0,3,3,0,1,,,,,
0.49,,,,,,,,,j,red,5c9d68f2e4a1e70001fe291e,2021-09-27_23h26.03.227,forced_choiceRT_color,2021.2.3,MacIntel,60.0024001,,,,,,,,1,Ontime,long,j,1,1.9282,1,0,4,2,1,,,,,
0.44,,,,,,,,,d,orange,5c9d68f2e4a1e70001fe291e,2021-09-27_23h26.03.227,forced_choiceRT_color,2021.2.3,MacIntel,60.0024001,,,,,,,,1,Ontime,long,d,1,1.9877,1,1,5,0,1,,,,,
0.66,,,,,,,,,k,purple,5c9d68f2e4a1e70001fe291e,2021-09-27_23h26.03.227,forced_choiceRT_color,2021.2.3,MacIntel,60.0024001,,,,,,,,1,Ontime,long,k,1,1.9607,1,2,6,3,1,,,,,
0.73,,,,,,,,,j,red,5c9d68f2e4a1e70001fe291e,2021-09-27_23h26.03.227,forced_choiceRT_color,2021.2.3,MacIntel,60.0024001,,,,,,,,1,Ontime,long,j,1,2.0521,1,3,7,2,1,,,,,
1.45,,,,,,,,,f,blue,5c9d68f2e4a1e70001fe291e,2021-09-27_23h26.03.227,forced_choiceRT_color,2021.2.3,MacIntel,60.0024001,,,,,,,,1,Slow,long,f,1,2.1704,2,0,8,1,1,,,,,
0.62,,,,,,,,,f,blue,5c9d68f2e4a1e70001fe291e,2021-09-27_23h26.03.227,forced_choiceRT_color,2021.2.3,MacIntel,60.0024001,,,,,,,,1,Ontime,long,f,1,1.9856,2,1,9,1,1,,,,,
1.81,,,,,,,,,f,blue,5c9d68f2e4a1e70001fe291e,2021-09-27_23h26.03.227,forced_choiceRT_color,2021.2.3,MacIntel,60.0024001,,,,,,,,1,Slow,long,j,0,2.3872,2,2,10,1,1,,,,,
1.73,,,,,,,,,k,purple,5c9d68f2e4a1e70001fe291e,2021-09-27_23h26.03.227,forced_choiceRT_color,2021.2.3,MacIntel,60.0024001,,,,,,,,1,Slow,long,k,1,2.2015,2,3,11,3,1,,,,,
0.03,,,,,,,,,d,orange,5c9d68f2e4a1e70001fe291e,2021-09-27_23h26.03.227,forced_choiceRT_color,2021.2.3,MacIntel,60.0024001,,,,,,,,1,Ontime,long,d,1,2.0173,3,0,12,0,1,,,,,
1.21,,,,,,,,,f,blue,5c9d68f2e4a1e70001fe291e,2021-09-27_23h26.03.227,forced_choiceRT_color,2021.2.3,MacIntel,60.0024001,,,,,,,,1,Slow,long,j,0,2.2643,3,1,13,1,1,,,,,
0.52,,,,,,,,,d,orange,5c9d68f2e4a1e70001fe291e,2021-09-27_23h26.03.227,forced_choiceRT_color,2021.2.3,MacIntel,60.0024001,,,,,,,,1,Ontime,long,d,1,1.9535,3,2,14,0,1,,,,,
1.62,,,,,,,,,k,purple,5c9d68f2e4a1e70001fe291e,2021-09-27_23h26.03.227,forced_choiceRT_color,2021.2.3,MacIntel,60.0024001,,,,,,,,1,Slow,long,k,1,2.2722,3,3,15,3,1,,,,,
1.91,,,,,,,,,f,blue,5c9d68f2e4a1e70001fe291e,2021-09-27_23h26.03.227,forced_choiceRT_color,2021.2.3,MacIntel,60.0024001,,,,,,,,1,Slow,long,f,1,2.2734,4,0,16,1,1,,,,,
0.68,,,,,,,,,k,purple,5c9d68f2e4a1e70001fe291e,2021-09-27_23h26.03.227,forced_choiceRT_color,2021.2.3,MacIntel,60.0024001,,,,,,,,1,Fast,long,k,1,1.8855,4,1,17,3,1,,,,,
1.84,,,,,,,,,k,purple,5c9d68f2e4a1e70001fe291e,2021-09-27_23h26.03.227,forced_choiceRT_color,2021.2.3,MacIntel,60.0024001,,,,,,,,1,Slow,long,j,0,2.2882,4,2,18,3,1,,,,,
0.78,,,,,,,,,j,red,5c9d68f2e4a1e70001fe291e,2021-09-27_23h26.03.227,forced_choiceRT_color,2021.2.3,MacIntel,60.0024001,,,,,,,,1,Fast,long,f,0,1.8372,4,3,19,2,1,,,,,
0.55,,,,,,,,,k,purple,5c9d68f2e4a1e70001fe291e,2021-09-27_23h26.03.227,forced_choiceRT_color,2021.2.3,MacIntel,60.0024001,,,,,,,,1,Ontime,long,k,1,1.9533,5,0,20,3,1,,,,,
0.84,,,,,,,,,f,blue,5c9d68f2e4a1e70001fe291e,2021-09-27_23h26.03.227,forced_choiceRT_color,2021.2.3,MacIntel,60.0024001,,,,,,,,1,Ontime,long,f,1,1.9794,5,1,21,1,1,,,,,
1.27,,,,,,,,,j,red,5c9d68f2e4a1e70001fe291e,2021-09-27_23h26.03.227,forced_choiceRT_color,2021.2.3,MacIntel,60.0024001,,,,,,,,1,Fast,long,j,1,1.8703,5,2,22,2,1,,,,,
0.81,,,,,,,,,j,red,5c9d68f2e4a1e70001fe291e,2021-09-27_23h26.03.227,forced_choiceRT_color,2021.2.3,MacIntel,60.0024001,,,,,,,,1,Fast,long,j,1,1.786,5,3,23,2,1,,,,,
1.86,,,,,,,,,f,blue,5c9d68f2e4a1e70001fe291e,2021-09-27_23h26.03.227,forced_choiceRT_color,2021.2.3,MacIntel,60.0024001,,,,,,,,1,Slow,long,f,1,2.4894,6,0,24,1,1,,,,,
1.23,,,,,,,,,d,orange,5c9d68f2e4a1e70001fe291e,2021-09-27_23h26.03.227,forced_choiceRT_color,2021.2.3,MacIntel,60.0024001,,,,,,,,1,Ontime,long,d,1,1.9799,6,1,25,0,1,,,,,
0.1,,,,,,,,,k,purple,5c9d68f2e4a1e70001fe291e,2021-09-27_23h26.03.227,forced_choiceRT_color,2021.2.3,MacIntel,60.0024001,,,,,,,,1,Ontime,long,k,1,2.0062,6,2,26,3,1,,,,,
1.42,,,,,,,,,k,purple,5c9d68f2e4a1e70001fe291e,2021-09-27_23h26.03.227,forced_choiceRT_color,2021.2.3,MacIntel,60.0024001,,,,,,,,1,Ontime,long,k,1,2.047,6,3,27,3,1,,,,,
1.16,,,,,,,,,d,orange,5c9d68f2e4a1e70001fe291e,2021-09-27_23h26.03.227,forced_choiceRT_color,2021.2.3,MacIntel,60.0024001,,,,,,,,1,Ontime,long,d,1,1.9876,7,0,28,0,1,,,,,
0.95,,,,,,,,,f,blue,5c9d68f2e4a1e70001fe291e,2021-09-27_23h26.03.227,forced_choiceRT_color,2021.2.3,MacIntel,60.0024001,,,,,,,,1,Fast,long,f,1,1.7774,7,1,29,1,1,,,,,
1.83,,,,,,,,,d,orange,5c9d68f2e4a1e70001fe291e,2021-09-27_23h26.03.227,forced_choiceRT_color,2021.2.3,MacIntel,60.0024001,,,,,,,,1,Slow,long,d,1,2.3204,7,2,30,0,1,,,,,
1.12,,,,,,,,,f,blue,5c9d68f2e4a1e70001fe291e,2021-09-27_23h26.03.227,forced_choiceRT_color,2021.2.3,MacIntel,60.0024001,,,,,,,,1,Ontime,long,f,1,2.0267,7,3,31,1,1,,,,,
1.71,,,,,,,,,j,red,5c9d68f2e4a1e70001fe291e,2021-09-27_23h26.03.227,forced_choiceRT_color,2021.2.3,MacIntel,60.0024001,,,,,,,,1,Slow,long,f,0,2.1432,8,0,32,2,1,,,,,
0.14,,,,,,,,,j,red,5c9d68f2e4a1e70001fe291e,2021-09-27_23h26.03.227,forced_choiceRT_color,2021.2.3,MacIntel,60.0024001,,,,,,,,1,Ontime,long,j,1,2.0375,8,1,33,2,1,,,,,
0.45,,,,,,,,,d,orange,5c9d68f2e4a1e70001fe291e,2021-09-27_23h26.03.227,forced_choiceRT_color,2021.2.3,MacIntel,60.0024001,,,,,,,,1,Ontime,long,d,1,1.941,8,2,34,0,1,,,,,
0.7,,,,,,,,,j,red,5c9d68f2e4a1e70001fe291e,2021-09-27_23h26.03.227,forced_choiceRT_color,2021.2.3,MacIntel,60.0024001,,,,,,,,1,Fast,long,j,1,1.8769,8,3,35,2,1,,,,,
0.79,,,,,,,,,f,blue,5c9d68f2e4a1e70001fe291e,2021-09-27_23h26.03.227,forced_choiceRT_color,2021.2.3,MacIntel,60.0024001,,,,,,,,1,Ontime,long,f,1,1.902,9,0,36,1,1,,,,,
1.39,,,,,,,,,j,red,5c9d68f2e4a1e70001fe291e,2021-09-27_23h26.03.227,forced_choiceRT_color,2021.2.3,MacIntel,60.0024001,,,,,,,,1,Ontime,long,j,1,2.0092,9,1,37,2,1,,,,,
1.57,,,,,,,,,d,orange,5c9d68f2e4a1e70001fe291e,2021-09-27_23h26.03.227,forced_choiceRT_color,2021.2.3,MacIntel,60.0024001,,,,,,,,1,Ontime,long,d,1,2.0206,9,2,38,0,1,,,,,
1.5,,,,,,,,,k,purple,5c9d68f2e4a1e70001fe291e,2021-09-27_23h26.03.227,forced_choiceRT_color,2021.2.3,MacIntel,60.0024001,,,,,,,,1,Ontime,long,k,1,1.9428,9,3,39,3,1,,,,,
,,,,,,,,,,,5c9d68f2e4a1e70001fe291e,2021-09-27_23h26.03.227,forced_choiceRT_color,2021.2.3,MacIntel,60.0024001,,,,,,,,,,,,,,,,,,,0,0,0,0,1
1.96,,,,,,,,,j,red,5c9d68f2e4a1e70001fe291e,2021-09-27_23h26.03.227,forced_choiceRT_color,2021.2.3,MacIntel,60.0024001,,,,,,,,2,Slow,long,k,0,2.3065,0,0,0,2,1,,,,,
0.41,,,,,,,,,k,purple,5c9d68f2e4a1e70001fe291e,2021-09-27_23h26.03.227,forced_choiceRT_color,2021.2.3,MacIntel,60.0024001,,,,,,,,2,Fast,long,k,1,1.7956,0,1,1,3,1,,,,,
1.67,,,,,,,,,k,purple,5c9d68f2e4a1e70001fe291e,2021-09-27_23h26.03.227,forced_choiceRT_color,2021.2.3,MacIntel,60.0024001,,,,,,,,2,Ontime,long,f,0,2.0353,0,2,2,3,1,,,,,
0.21,,,,,,,,,d,orange,5c9d68f2e4a1e70001fe291e,2021-09-27_23h26.03.227,forced_choiceRT_color,2021.2.3,MacIntel,60.0024001,,,,,,,,2,Ontime,long,d,1,1.9205,0,3,3,0,1,,,,,
0.39,,,,,,,,,k,purple,5c9d68f2e4a1e70001fe291e,2021-09-27_23h26.03.227,forced_choiceRT_color,2021.2.3,MacIntel,60.0024001,,,,,,,,2,Fast,long,k,1,1.8869,1,0,4,3,1,,,,,
1.56,,,,,,,,,j,red,5c9d68f2e4a1e70001fe291e,2021-09-27_23h26.03.227,forced_choiceRT_color,2021.2.3,MacIntel,60.0024001,,,,,,,,2,Ontime,long,j,1,1.9748,1,1,5,2,1,,,,,
1.06,,,,,,,,,f,blue,5c9d68f2e4a1e70001fe291e,2021-09-27_23h26.03.227,forced_choiceRT_color,2021.2.3,MacIntel,60.0024001,,,,,,,,2,Ontime,long,f,1,1.918,1,2,6,1,1,,,,,
1.73,,,,,,,,,d,orange,5c9d68f2e4a1e70001fe291e,2021-09-27_23h26.03.227,forced_choiceRT_color,2021.2.3,MacIntel,60.0024001,,,,,,,,2,Slow,long,f,0,2.2012,1,3,7,0,1,,,,,
1.2,,,,,,,,,d,orange,5c9d68f2e4a1e70001fe291e,2021-09-27_23h26.03.227,forced_choiceRT_color,2021.2.3,MacIntel,60.0024001,,,,,,,,2,Fast,long,d,1,1.8427,2,0,8,0,1,,,,,
0.95,,,,,,,,,j,red,5c9d68f2e4a1e70001fe291e,2021-09-27_23h26.03.227,forced_choiceRT_color,2021.2.3,MacIntel,60.0024001,,,,,,,,2,Fast,long,j,1,1.8852,2,1,9,2,1,,,,,
1.04,,,,,,,,,d,orange,5c9d68f2e4a1e70001fe291e,2021-09-27_23h26.03.227,forced_choiceRT_color,2021.2.3,MacIntel,60.0024001,,,,,,,,2,Ontime,long,d,1,1.9699,2,2,10,0,1,,,,,
1.96,,,,,,,,,j,red,5c9d68f2e4a1e70001fe291e,2021-09-27_23h26.03.227,forced_choiceRT_color,2021.2.3,MacIntel,60.0024001,,,,,,,,2,Slow,long,d,0,2.337,2,3,11,2,1,,,,,
0.1,,,,,,,,,j,red,5c9d68f2e4a1e70001fe291e,2021-09-27_23h26.03.227,forced_choiceRT_color,2021.2.3,MacIntel,60.0024001,,,,,,,,2,Ontime,long,j,1,1.9781,3,0,12,2,1,,,,,
1.34,,,,,,,,,d,orange,5c9d68f2e4a1e70001fe291e,2021-09-27_23h26.03.227,forced_choiceRT_color,2021.2.3,MacIntel,60.0024001,,,,,,,,2,Ontime,long,d,1,1.938,3,1,13,0,1,,,,,
0.78,,,,,,,,,f,blue,5c9d68f2e4a1e70001fe291e,2021-09-27_23h26.03.227,forced_choiceRT_color,2021.2.3,MacIntel,60.0024001,,,,,,,,2,Fast,long,f,1,1.891,3,2,14,1,1,,,,,
1.6,,,,,,,,,d,orange,5c9d68f2e4a1e70001fe291e,2021-09-27_23h26.03.227,forced_choiceRT_color,2021.2.3,MacIntel,60.0024001,,,,,,,,2,Ontime,long,d,1,2.0942,3,3,15,0,1,,,,,
1.19,,,,,,,,,d,orange,5c9d68f2e4a1e70001fe291e,2021-09-27_23h26.03.227,forced_choiceRT_color,2021.2.3,MacIntel,60.0024001,,,,,,,,2,Ontime,long,d,1,1.941,4,0,16,0,1,,,,,
1.31,,,,,,,,,f,blue,5c9d68f2e4a1e70001fe291e,2021-09-27_23h26.03.227,forced_choiceRT_color,2021.2.3,MacIntel,60.0024001,,,,,,,,2,Fast,long,f,1,1.8697,4,1,17,1,1,,,,,
0.13,,,,,,,,,f,blue,5c9d68f2e4a1e70001fe291e,2021-09-27_23h26.03.227,forced_choiceRT_color,2021.2.3,MacIntel,60.0024001,,,,,,,,2,Ontime,long,f,1,1.9552,4,2,18,1,1,,,,,
0.96,,,,,,,,,f,blue,5c9d68f2e4a1e70001fe291e,2021-09-27_23h26.03.227,forced_choiceRT_color,2021.2.3,MacIntel,60.0024001,,,,,,,,2,Fast,long,f,1,1.8881,4,3,19,1,1,,,,,
1.07,,,,,,,,,d,orange,5c9d68f2e4a1e70001fe291e,2021-09-27_23h26.03.227,forced_choiceRT_color,2021.2.3,MacIntel,60.0024001,,,,,,,,2,Ontime,long,d,1,1.9381,5,0,20,0,1,,,,,
1.68,,,,,,,,,f,blue,5c9d68f2e4a1e70001fe291e,2021-09-27_23h26.03.227,forced_choiceRT_color,2021.2.3,MacIntel,60.0024001,,,,,,,,2,Slow,long,j,0,2.2053,5,1,21,1,1,,,,,
0.13,,,,,,,,,f,blue,5c9d68f2e4a1e70001fe291e,2021-09-27_23h26.03.227,forced_choiceRT_color,2021.2.3,MacIntel,60.0024001,,,,,,,,2,Ontime,long,f,1,1.9924,5,2,22,1,1,,,,,
0.87,,,,,,,,,k,purple,5c9d68f2e4a1e70001fe291e,2021-09-27_23h26.03.227,forced_choiceRT_color,2021.2.3,MacIntel,60.0024001,,,,,,,,2,Ontime,long,k,1,1.923,5,3,23,3,1,,,,,
0.49,,,,,,,,,k,purple,5c9d68f2e4a1e70001fe291e,2021-09-27_23h26.03.227,forced_choiceRT_color,2021.2.3,MacIntel,60.0024001,,,,,,,,2,Fast,long,k,1,1.8557,6,0,24,3,1,,,,,
0.42,,,,,,,,,k,purple,5c9d68f2e4a1e70001fe291e,2021-09-27_23h26.03.227,forced_choiceRT_color,2021.2.3,MacIntel,60.0024001,,,,,,,,2,Ontime,long,k,1,1.9417,6,1,25,3,1,,,,,
0.44,,,,,,,,,k,purple,5c9d68f2e4a1e70001fe291e,2021-09-27_23h26.03.227,forced_choiceRT_color,2021.2.3,MacIntel,60.0024001,,,,,,,,2,Ontime,long,k,1,1.9066,6,2,26,3,1,,,,,
0.51,,,,,,,,,f,blue,5c9d68f2e4a1e70001fe291e,2021-09-27_23h26.03.227,forced_choiceRT_color,2021.2.3,MacIntel,60.0024001,,,,,,,,2,Fast,long,f,1,1.8737,6,3,27,1,1,,,,,
0.74,,,,,,,,,j,red,5c9d68f2e4a1e70001fe291e,2021-09-27_23h26.03.227,forced_choiceRT_color,2021.2.3,MacIntel,60.0024001,,,,,,,,2,Fast,long,d,0,1.8028,7,0,28,2,1,,,,,
0.74,,,,,,,,,f,blue,5c9d68f2e4a1e70001fe291e,2021-09-27_23h26.03.227,forced_choiceRT_color,2021.2.3,MacIntel,60.0024001,,,,,,,,2,Fast,long,f,1,1.7749,7,1,29,1,1,,,,,
1.91,,,,,,,,,d,orange,5c9d68f2e4a1e70001fe291e,2021-09-27_23h26.03.227,forced_choiceRT_color,2021.2.3,MacIntel,60.0024001,,,,,,,,2,Slow,long,j,0,2.3023,7,2,30,0,1,,,,,
0.57,,,,,,,,,j,red,5c9d68f2e4a1e70001fe291e,2021-09-27_23h26.03.227,forced_choiceRT_color,2021.2.3,MacIntel,60.0024001,,,,,,,,2,Ontime,long,j,1,1.9414,7,3,31,2,1,,,,,
1.31,,,,,,,,,k,purple,5c9d68f2e4a1e70001fe291e,2021-09-27_23h26.03.227,forced_choiceRT_color,2021.2.3,MacIntel,60.0024001,,,,,,,,2,Ontime,long,k,1,2.0367,8,0,32,3,1,,,,,
1.77,,,,,,,,,f,blue,5c9d68f2e4a1e70001fe291e,2021-09-27_23h26.03.227,forced_choiceRT_color,2021.2.3,MacIntel,60.0024001,,,,,,,,2,Slow,long,f,1,2.222,8,1,33,1,1,,,,,
1.34,,,,,,,,,d,orange,5c9d68f2e4a1e70001fe291e,2021-09-27_23h26.03.227,forced_choiceRT_color,2021.2.3,MacIntel,60.0024001,,,,,,,,2,Ontime,long,d,1,1.9029,8,2,34,0,1,,,,,
0.4,,,,,,,,,k,purple,5c9d68f2e4a1e70001fe291e,2021-09-27_23h26.03.227,forced_choiceRT_color,2021.2.3,MacIntel,60.0024001,,,,,,,,2,Fast,long,k,1,1.8694,8,3,35,3,1,,,,,
0.4,,,,,,,,,j,red,5c9d68f2e4a1e70001fe291e,2021-09-27_23h26.03.227,forced_choiceRT_color,2021.2.3,MacIntel,60.0024001,,,,,,,,2,Ontime,long,j,1,1.9216,9,0,36,2,1,,,,,
1.53,,,,,,,,,k,purple,5c9d68f2e4a1e70001fe291e,2021-09-27_23h26.03.227,forced_choiceRT_color,2021.2.3,MacIntel,60.0024001,,,,,,,,2,Ontime,long,k,1,2.0238,9,1,37,3,1,,,,,
0.24,,,,,,,,,j,red,5c9d68f2e4a1e70001fe291e,2021-09-27_23h26.03.227,forced_choiceRT_color,2021.2.3,MacIntel,60.0024001,,,,,,,,2,Fast,long,f,0,1.8394,9,2,38,2,1,,,,,
0.46,,,,,,,,,j,red,5c9d68f2e4a1e70001fe291e,2021-09-27_23h26.03.227,forced_choiceRT_color,2021.2.3,MacIntel,60.0024001,,,,,,,,2,Ontime,long,j,1,1.9586,9,3,39,2,1,,,,,
,,,,,,,,,,,5c9d68f2e4a1e70001fe291e,2021-09-27_23h26.03.227,forced_choiceRT_color,2021.2.3,MacIntel,60.0024001,,,,,,,,,,,,,,,,,,,1,0,1,0,1
0.39,,,,,,,,,d,orange,5c9d68f2e4a1e70001fe291e,2021-09-27_23h26.03.227,forced_choiceRT_color,2021.2.3,MacIntel,60.0024001,,,,,,,,3,Fast,long,d,1,1.8517,0,0,0,0,1,,,,,
0.76,,,,,,,,,j,red,5c9d68f2e4a1e70001fe291e,2021-09-27_23h26.03.227,forced_choiceRT_color,2021.2.3,MacIntel,60.0024001,,,,,,,,3,Ontime,long,f,0,2.0024,0,1,1,2,1,,,,,
1.18,,,,,,,,,f,blue,5c9d68f2e4a1e70001fe291e,2021-09-27_23h26.03.227,forced_choiceRT_color,2021.2.3,MacIntel,60.0024001,,,,,,,,3,Ontime,long,f,1,1.921,0,2,2,1,1,,,,,
0.85,,,,,,,,,j,red,5c9d68f2e4a1e70001fe291e,2021-09-27_23h26.03.227,forced_choiceRT_color,2021.2.3,MacIntel,60.0024001,,,,,,,,3,Ontime,long,j,1,1.9538,0,3,3,2,1,,,,,
1.74,,,,,,,,,f,blue,5c9d68f2e4a1e70001fe291e,2021-09-27_23h26.03.227,forced_choiceRT_color,2021.2.3,MacIntel,60.0024001,,,,,,,,3,Slow,long,f,1,2.1359,1,0,4,1,1,,,,,
0.44,,,,,,,,,k,purple,5c9d68f2e4a1e70001fe291e,2021-09-27_23h26.03.227,forced_choiceRT_color,2021.2.3,MacIntel,60.0024001,,,,,,,,3,Ontime,long,k,1,2.043,1,1,5,3,1,,,,,
1.7,,,,,,,,,k,purple,5c9d68f2e4a1e70001fe291e,2021-09-27_23h26.03.227,forced_choiceRT_color,2021.2.3,MacIntel,60.0024001,,,,,,,,3,Slow,long,k,1,2.1641,1,2,6,3,1,,,,,
0.95,,,,,,,,,f,blue,5c9d68f2e4a1e70001fe291e,2021-09-27_23h26.03.227,forced_choiceRT_color,2021.2.3,MacIntel,60.0024001,,,,,,,,3,Ontime,long,j,0,1.9435,1,3,7,1,1,,,,,
1.73,,,,,,,,,f,blue,5c9d68f2e4a1e70001fe291e,2021-09-27_23h26.03.227,forced_choiceRT_color,2021.2.3,MacIntel,60.0024001,,,,,,,,3,Slow,long,f,1,2.1919,2,0,8,1,1,,,,,
0.15,,,,,,,,,k,purple,5c9d68f2e4a1e70001fe291e,2021-09-27_23h26.03.227,forced_choiceRT_color,2021.2.3,MacIntel,60.0024001,,,,,,,,3,Ontime,long,k,1,1.9001,2,1,9,3,1,,,,,
0.84,,,,,,,,,k,purple,5c9d68f2e4a1e70001fe291e,2021-09-27_23h26.03.227,forced_choiceRT_color,2021.2.3,MacIntel,60.0024001,,,,,,,,3,Ontime,long,k,1,1.9336,2,2,10,3,1,,,,,
0.51,,,,,,,,,j,red,5c9d68f2e4a1e70001fe291e,2021-09-27_23h26.03.227,forced_choiceRT_color,2021.2.3,MacIntel,60.0024001,,,,,,,,3,Ontime,long,j,1,1.9032,2,3,11,2,1,,,,,
1.68,,,,,,,,,d,orange,5c9d68f2e4a1e70001fe291e,2021-09-27_23h26.03.227,forced_choiceRT_color,2021.2.3,MacIntel,60.0024001,,,,,,,,3,Slow,long,f,0,2.1439,3,0,12,0,1,,,,,
0.3,,,,,,,,,j,red,5c9d68f2e4a1e70001fe291e,2021-09-27_23h26.03.227,forced_choiceRT_color,2021.2.3,MacIntel,60.0024001,,,,,,,,3,Ontime,long,j,1,1.9384,3,1,13,2,1,,,,,
0.16,,,,,,,,,j,red,5c9d68f2e4a1e70001fe291e,2021-09-27_23h26.03.227,forced_choiceRT_color,2021.2.3,MacIntel,60.0024001,,,,,,,,3,Ontime,long,j,1,1.9698,3,2,14,2,1,,,,,
0.03,,,,,,,,,k,purple,5c9d68f2e4a1e70001fe291e,2021-09-27_23h26.03.227,forced_choiceRT_color,2021.2.3,MacIntel,60.0024001,,,,,,,,3,Ontime,long,k,1,1.9265,3,3,15,3,1,,,,,
0.72,,,,,,,,,j,red,5c9d68f2e4a1e70001fe291e,2021-09-27_23h26.03.227,forced_choiceRT_color,2021.2.3,MacIntel,60.0024001,,,,,,,,3,Ontime,long,j,1,1.9213,4,0,16,2,1,,,,,
1.89,,,,,,,,,d,orange,5c9d68f2e4a1e70001fe291e,2021-09-27_23h26.03.227,forced_choiceRT_color,2021.2.3,MacIntel,60.0024001,,,,,,,,3,Slow,long,f,0,2.2131,4,1,17,0,1,,,,,
0.37,,,,,,,,,d,orange,5c9d68f2e4a1e70001fe291e,2021-09-27_23h26.03.227,forced_choiceRT_color,2021.2.3,MacIntel,60.0024001,,,,,,,,3,Ontime,long,d,1,1.9235,4,2,18,0,1,,,,,
0,,,,,,,,,f,blue,5c9d68f2e4a1e70001fe291e,2021-09-27_23h26.03.227,forced_choiceRT_color,2021.2.3,MacIntel,60.0024001,,,,,,,,3,Ontime,long,f,1,1.9781,4,3,19,1,1,,,,,
0.95,,,,,,,,,f,blue,5c9d68f2e4a1e70001fe291e,2021-09-27_23h26.03.227,forced_choiceRT_color,2021.2.3,MacIntel,60.0024001,,,,,,,,3,Ontime,long,f,1,2.0348,5,0,20,1,1,,,,,
0.93,,,,,,,,,f,blue,5c9d68f2e4a1e70001fe291e,2021-09-27_23h26.03.227,forced_choiceRT_color,2021.2.3,MacIntel,60.0024001,,,,,,,,3,Ontime,long,f,1,1.9559,5,1,21,1,1,,,,,
0.93,,,,,,,,,k,purple,5c9d68f2e4a1e70001fe291e,2021-09-27_23h26.03.227,forced_choiceRT_color,2021.2.3,MacIntel,60.0024001,,,,,,,,3,Ontime,long,k,1,1.9881,5,2,22,3,1,,,,,
0.2,,,,,,,,,d,orange,5c9d68f2e4a1e70001fe291e,2021-09-27_23h26.03.227,forced_choiceRT_color,2021.2.3,MacIntel,60.0024001,,,,,,,,3,Ontime,long,d,1,1.9597,5,3,23,0,1,,,,,
1.5,,,,,,,,,k,purple,5c9d68f2e4a1e70001fe291e,2021-09-27_23h26.03.227,forced_choiceRT_color,2021.2.3,MacIntel,60.0024001,,,,,,,,3,Ontime,long,k,1,2.0234,6,0,24,3,1,,,,,
1.47,,,,,,,,,j,red,5c9d68f2e4a1e70001fe291e,2021-09-27_23h26.03.227,forced_choiceRT_color,2021.2.3,MacIntel,60.0024001,,,,,,,,3,Ontime,long,f,0,2.0058,6,1,25,2,1,,,,,
1.85,,,,,,,,,f,blue,5c9d68f2e4a1e70001fe291e,2021-09-27_23h26.03.227,forced_choiceRT_color,2021.2.3,MacIntel,60.0024001,,,,,,,,3,Slow,long,j,0,2.2083,6,2,26,1,1,,,,,
0.71,,,,,,,,,k,purple,5c9d68f2e4a1e70001fe291e,2021-09-27_23h26.03.227,forced_choiceRT_color,2021.2.3,MacIntel,60.0024001,,,,,,,,3,Ontime,long,k,1,2.0049,6,3,27,3,1,,,,,
1.17,,,,,,,,,f,blue,5c9d68f2e4a1e70001fe291e,2021-09-27_23h26.03.227,forced_choiceRT_color,2021.2.3,MacIntel,60.0024001,,,,,,,,3,Fast,long,j,0,1.8983,7,0,28,1,1,,,,,
1.45,,,,,,,,,k,purple,5c9d68f2e4a1e70001fe291e,2021-09-27_23h26.03.227,forced_choiceRT_color,2021.2.3,MacIntel,60.0024001,,,,,,,,3,Ontime,long,k,1,1.9764,7,1,29,3,1,,,,,
0.81,,,,,,,,,d,orange,5c9d68f2e4a1e70001fe291e,2021-09-27_23h26.03.227,forced_choiceRT_color,2021.2.3,MacIntel,60.0024001,,,,,,,,3,Ontime,long,d,1,1.9033,7,2,30,0,1,,,,,
0,,,,,,,,,k,purple,5c9d68f2e4a1e70001fe291e,2021-09-27_23h26.03.227,forced_choiceRT_color,2021.2.3,MacIntel,60.0024001,,,,,,,,3,Ontime,long,k,1,1.9697,7,3,31,3,1,,,,,
1.81,,,,,,,,,f,blue,5c9d68f2e4a1e70001fe291e,2021-09-27_23h26.03.227,forced_choiceRT_color,2021.2.3,MacIntel,60.0024001,,,,,,,,3,Slow,long,j,0,2.2561,8,0,32,1,1,,,,,
0.23,,,,,,,,,j,red,5c9d68f2e4a1e70001fe291e,2021-09-27_23h26.03.227,forced_choiceRT_color,2021.2.3,MacIntel,60.0024001,,,,,,,,3,Ontime,long,j,1,1.9383,8,1,33,2,1,,,,,
0.14,,,,,,,,,j,red,5c9d68f2e4a1e70001fe291e,2021-09-27_23h26.03.227,forced_choiceRT_color,2021.2.3,MacIntel,60.0024001,,,,,,,,3,Ontime,long,j,1,1.9273,8,2,34,2,1,,,,,
1.14,,,,,,,,,d,orange,5c9d68f2e4a1e70001fe291e,2021-09-27_23h26.03.227,forced_choiceRT_color,2021.2.3,MacIntel,60.0024001,,,,,,,,3,Ontime,long,d,1,2.0519,8,3,35,0,1,,,,,
1.54,,,,,,,,,j,red,5c9d68f2e4a1e70001fe291e,2021-09-27_23h26.03.227,forced_choiceRT_color,2021.2.3,MacIntel,60.0024001,,,,,,,,3,Ontime,long,k,0,1.9754,9,0,36,2,1,,,,,
1.05,,,,,,,,,d,orange,5c9d68f2e4a1e70001fe291e,2021-09-27_23h26.03.227,forced_choiceRT_color,2021.2.3,MacIntel,60.0024001,,,,,,,,3,Ontime,long,d,1,1.9757,9,1,37,0,1,,,,,
0.67,,,,,,,,,d,orange,5c9d68f2e4a1e70001fe291e,2021-09-27_23h26.03.227,forced_choiceRT_color,2021.2.3,MacIntel,60.0024001,,,,,,,,3,Ontime,long,d,1,1.9067,9,2,38,0,1,,,,,
0.92,,,,,,,,,d,orange,5c9d68f2e4a1e70001fe291e,2021-09-27_23h26.03.227,forced_choiceRT_color,2021.2.3,MacIntel,60.0024001,,,,,,,,3,Ontime,long,d,1,1.9184,9,3,39,0,1,,,,,
,,,,,,,,,,,5c9d68f2e4a1e70001fe291e,2021-09-27_23h26.03.227,forced_choiceRT_color,2021.2.3,MacIntel,60.0024001,,,,,,,,,,,,,,,,,,,2,0,2,0,1
0.4,,,,,,,,,d,orange,5c9d68f2e4a1e70001fe291e,2021-09-27_23h26.03.227,forced_choiceRT_color,2021.2.3,MacIntel,60.0024001,,,,,,,,4,Ontime,long,d,1,1.913,0,0,0,0,1,,,,,
0.03,,,,,,,,,j,red,5c9d68f2e4a1e70001fe291e,2021-09-27_23h26.03.227,forced_choiceRT_color,2021.2.3,MacIntel,60.0024001,,,,,,,,4,Ontime,long,j,1,1.9043,0,1,1,2,1,,,,,
1.89,,,,,,,,,f,blue,5c9d68f2e4a1e70001fe291e,2021-09-27_23h26.03.227,forced_choiceRT_color,2021.2.3,MacIntel,60.0024001,,,,,,,,4,Slow,long,f,1,2.1138,0,2,2,1,1,,,,,
1.97,,,,,,,,,k,purple,5c9d68f2e4a1e70001fe291e,2021-09-27_23h26.03.227,forced_choiceRT_color,2021.2.3,MacIntel,60.0024001,,,,,,,,4,Slow,long,f,0,2.3916,0,3,3,3,1,,,,,
0.92,,,,,,,,,f,blue,5c9d68f2e4a1e70001fe291e,2021-09-27_23h26.03.227,forced_choiceRT_color,2021.2.3,MacIntel,60.0024001,,,,,,,,4,Ontime,long,j,0,1.9248,1,0,4,1,1,,,,,
1.03,,,,,,,,,f,blue,5c9d68f2e4a1e70001fe291e,2021-09-27_23h26.03.227,forced_choiceRT_color,2021.2.3,MacIntel,60.0024001,,,,,,,,4,Ontime,long,j,0,1.9184,1,1,5,1,1,,,,,
0.37,,,,,,,,,k,purple,5c9d68f2e4a1e70001fe291e,2021-09-27_23h26.03.227,forced_choiceRT_color,2021.2.3,MacIntel,60.0024001,,,,,,,,4,Ontime,long,k,1,1.9856,1,2,6,3,1,,,,,
1.31,,,,,,,,,f,blue,5c9d68f2e4a1e70001fe291e,2021-09-27_23h26.03.227,forced_choiceRT_color,2021.2.3,MacIntel,60.0024001,,,,,,,,4,Ontime,long,j,0,1.9049,1,3,7,1,1,,,,,
1.01,,,,,,,,,k,purple,5c9d68f2e4a1e70001fe291e,2021-09-27_23h26.03.227,forced_choiceRT_color,2021.2.3,MacIntel,60.0024001,,,,,,,,4,Ontime,long,k,1,1.9643,2,0,8,3,1,,,,,
1.28,,,,,,,,,d,orange,5c9d68f2e4a1e70001fe291e,2021-09-27_23h26.03.227,forced_choiceRT_color,2021.2.3,MacIntel,60.0024001,,,,,,,,4,Fast,long,f,0,1.7654,2,1,9,0,1,,,,,
1.78,,,,,,,,,k,purple,5c9d68f2e4a1e70001fe291e,2021-09-27_23h26.03.227,forced_choiceRT_color,2021.2.3,MacIntel,60.0024001,,,,,,,,4,Slow,long,k,1,2.1715,2,2,10,3,1,,,,,
0.51,,,,,,,,,d,orange,5c9d68f2e4a1e70001fe291e,2021-09-27_23h26.03.227,forced_choiceRT_color,2021.2.3,MacIntel,60.0024001,,,,,,,,4,Ontime,long,d,1,2.076,2,3,11,0,1,,,,,
1.79,,,,,,,,,j,red,5c9d68f2e4a1e70001fe291e,2021-09-27_23h26.03.227,forced_choiceRT_color,2021.2.3,MacIntel,60.0024001,,,,,,,,4,Slow,long,f,0,2.3596,3,0,12,2,1,,,,,
1.81,,,,,,,,,k,purple,5c9d68f2e4a1e70001fe291e,2021-09-27_23h26.03.227,forced_choiceRT_color,2021.2.3,MacIntel,60.0024001,,,,,,,,4,Slow,long,k,1,2.2868,3,1,13,3,1,,,,,
1.37,,,,,,,,,k,purple,5c9d68f2e4a1e70001fe291e,2021-09-27_23h26.03.227,forced_choiceRT_color,2021.2.3,MacIntel,60.0024001,,,,,,,,4,Fast,long,k,1,1.8967,3,2,14,3,1,,,,,
0.4,,,,,,,,,d,orange,5c9d68f2e4a1e70001fe291e,2021-09-27_23h26.03.227,forced_choiceRT_color,2021.2.3,MacIntel,60.0024001,,,,,,,,4,Ontime,long,d,1,1.9194,3,3,15,0,1,,,,,
1.87,,,,,,,,,j,red,5c9d68f2e4a1e70001fe291e,2021-09-27_23h26.03.227,forced_choiceRT_color,2021.2.3,MacIntel,60.0024001,,,,,,,,4,Slow,long,d,0,2.141,4,0,16,2,1,,,,,
0.44,,,,,,,,,f,blue,5c9d68f2e4a1e70001fe291e,2021-09-27_23h26.03.227,forced_choiceRT_color,2021.2.3,MacIntel,60.0024001,,,,,,,,4,Ontime,long,f,1,1.9646,4,1,17,1,1,,,,,
0.04,,,,,,,,,f,blue,5c9d68f2e4a1e70001fe291e,2021-09-27_23h26.03.227,forced_choiceRT_color,2021.2.3,MacIntel,60.0024001,,,,,,,,4,Ontime,long,f,1,1.9522,4,2,18,1,1,,,,,
1.87,,,,,,,,,j,red,5c9d68f2e4a1e70001fe291e,2021-09-27_23h26.03.227,forced_choiceRT_color,2021.2.3,MacIntel,60.0024001,,,,,,,,4,Ontime,long,j,1,2.0909,4,3,19,2,1,,,,,
1.04,,,,,,,,,k,purple,5c9d68f2e4a1e70001fe291e,2021-09-27_23h26.03.227,forced_choiceRT_color,2021.2.3,MacIntel,60.0024001,,,,,,,,4,Ontime,long,k,1,1.9684,5,0,20,3,1,,,,,
0.1,,,,,,,,,f,blue,5c9d68f2e4a1e70001fe291e,2021-09-27_23h26.03.227,forced_choiceRT_color,2021.2.3,MacIntel,60.0024001,,,,,,,,4,Ontime,long,f,1,2.0223,5,1,21,1,1,,,,,
1.08,,,,,,,,,k,purple,5c9d68f2e4a1e70001fe291e,2021-09-27_23h26.03.227,forced_choiceRT_color,2021.2.3,MacIntel,60.0024001,,,,,,,,4,Ontime,long,k,1,2.0074,5,2,22,3,1,,,,,
0.14,,,,,,,,,j,red,5c9d68f2e4a1e70001fe291e,2021-09-27_23h26.03.227,forced_choiceRT_color,2021.2.3,MacIntel,60.0024001,,,,,,,,4,Ontime,long,j,1,1.9599,5,3,23,2,1,,,,,
0.37,,,,,,,,,j,red,5c9d68f2e4a1e70001fe291e,2021-09-27_23h26.03.227,forced_choiceRT_color,2021.2.3,MacIntel,60.0024001,,,,,,,,4,Ontime,long,j,1,1.9905,6,0,24,2,1,,,,,
1.59,,,,,,,,,f,blue,5c9d68f2e4a1e70001fe291e,2021-09-27_23h26.03.227,forced_choiceRT_color,2021.2.3,MacIntel,60.0024001,,,,,,,,4,Slow,long,f,1,2.1034,6,1,25,1,1,,,,,
0.56,,,,,,,,,d,orange,5c9d68f2e4a1e70001fe291e,2021-09-27_23h26.03.227,forced_choiceRT_color,2021.2.3,MacIntel,60.0024001,,,,,,,,4,Ontime,long,d,1,1.9243,6,2,26,0,1,,,,,
1.39,,,,,,,,,k,purple,5c9d68f2e4a1e70001fe291e,2021-09-27_23h26.03.227,forced_choiceRT_color,2021.2.3,MacIntel,60.0024001,,,,,,,,4,Ontime,long,k,1,1.9746,6,3,27,3,1,,,,,
1.02,,,,,,,,,d,orange,5c9d68f2e4a1e70001fe291e,2021-09-27_23h26.03.227,forced_choiceRT_color,2021.2.3,MacIntel,60.0024001,,,,,,,,4,Fast,long,d,1,1.8696,7,0,28,0,1,,,,,
1.9,,,,,,,,,j,red,5c9d68f2e4a1e70001fe291e,2021-09-27_23h26.03.227,forced_choiceRT_color,2021.2.3,MacIntel,60.0024001,,,,,,,,4,Ontime,long,d,0,2.0259,7,1,29,2,1,,,,,
1.9,,,,,,,,,f,blue,5c9d68f2e4a1e70001fe291e,2021-09-27_23h26.03.227,forced_choiceRT_color,2021.2.3,MacIntel,60.0024001,,,,,,,,4,Slow,long,j,0,2.1397,7,2,30,1,1,,,,,
1.23,,,,,,,,,f,blue,5c9d68f2e4a1e70001fe291e,2021-09-27_23h26.03.227,forced_choiceRT_color,2021.2.3,MacIntel,60.0024001,,,,,,,,4,Ontime,long,f,1,1.972,7,3,31,1,1,,,,,
0.3,,,,,,,,,j,red,5c9d68f2e4a1e70001fe291e,2021-09-27_23h26.03.227,forced_choiceRT_color,2021.2.3,MacIntel,60.0024001,,,,,,,,4,Fast,long,j,1,1.8493,8,0,32,2,1,,,,,
0.83,,,,,,,,,d,orange,5c9d68f2e4a1e70001fe291e,2021-09-27_23h26.03.227,forced_choiceRT_color,2021.2.3,MacIntel,60.0024001,,,,,,,,4,Ontime,long,d,1,1.9613,8,1,33,0,1,,,,,
0.06,,,,,,,,,j,red,5c9d68f2e4a1e70001fe291e,2021-09-27_23h26.03.227,forced_choiceRT_color,2021.2.3,MacIntel,60.0024001,,,,,,,,4,Ontime,long,j,1,1.9659,8,2,34,2,1,,,,,
0.16,,,,,,,,,d,orange,5c9d68f2e4a1e70001fe291e,2021-09-27_23h26.03.227,forced_choiceRT_color,2021.2.3,MacIntel,60.0024001,,,,,,,,4,Ontime,long,d,1,1.902,8,3,35,0,1,,,,,
0.06,,,,,,,,,d,orange,5c9d68f2e4a1e70001fe291e,2021-09-27_23h26.03.227,forced_choiceRT_color,2021.2.3,MacIntel,60.0024001,,,,,,,,4,Fast,long,d,1,1.8781,9,0,36,0,1,,,,,
0.72,,,,,,,,,j,red,5c9d68f2e4a1e70001fe291e,2021-09-27_23h26.03.227,forced_choiceRT_color,2021.2.3,MacIntel,60.0024001,,,,,,,,4,Fast,long,f,0,1.8388,9,1,37,2,1,,,,,
1.72,,,,,,,,,d,orange,5c9d68f2e4a1e70001fe291e,2021-09-27_23h26.03.227,forced_choiceRT_color,2021.2.3,MacIntel,60.0024001,,,,,,,,4,Ontime,long,j,0,2.0243,9,2,38,0,1,,,,,
0.05,,,,,,,,,k,purple,5c9d68f2e4a1e70001fe291e,2021-09-27_23h26.03.227,forced_choiceRT_color,2021.2.3,MacIntel,60.0024001,,,,,,,,4,Ontime,long,k,1,1.9729,9,3,39,3,1,,,,,
,,,,,,,,,,,5c9d68f2e4a1e70001fe291e,2021-09-27_23h26.03.227,forced_choiceRT_color,2021.2.3,MacIntel,60.0024001,,,,,,,,,,,,,,,,,,,3,0,3,0,1
0.35,,,,,,,,,j,red,5c9d68f2e4a1e70001fe291e,2021-09-27_23h26.03.227,forced_choiceRT_color,2021.2.3,MacIntel,60.0024001,,,,,,,,5,Ontime,long,j,1,1.9277,0,0,0,2,1,,,,,
0.01,,,,,,,,,f,blue,5c9d68f2e4a1e70001fe291e,2021-09-27_23h26.03.227,forced_choiceRT_color,2021.2.3,MacIntel,60.0024001,,,,,,,,5,Fast,long,f,1,1.7725,0,1,1,1,1,,,,,
1.33,,,,,,,,,d,orange,5c9d68f2e4a1e70001fe291e,2021-09-27_23h26.03.227,forced_choiceRT_color,2021.2.3,MacIntel,60.0024001,,,,,,,,5,Fast,long,d,1,1.7165,0,2,2,0,1,,,,,
1.51,,,,,,,,,d,orange,5c9d68f2e4a1e70001fe291e,2021-09-27_23h26.03.227,forced_choiceRT_color,2021.2.3,MacIntel,60.0024001,,,,,,,,5,Ontime,long,d,1,1.9556,0,3,3,0,1,,,,,
0.26,,,,,,,,,j,red,5c9d68f2e4a1e70001fe291e,2021-09-27_23h26.03.227,forced_choiceRT_color,2021.2.3,MacIntel,60.0024001,,,,,,,,5,Ontime,long,j,1,1.9532,1,0,4,2,1,,,,,
1.14,,,,,,,,,k,purple,5c9d68f2e4a1e70001fe291e,2021-09-27_23h26.03.227,forced_choiceRT_color,2021.2.3,MacIntel,60.0024001,,,,,,,,5,Ontime,long,k,1,1.9894,1,1,5,3,1,,,,,
0.89,,,,,,,,,f,blue,5c9d68f2e4a1e70001fe291e,2021-09-27_23h26.03.227,forced_choiceRT_color,2021.2.3,MacIntel,60.0024001,,,,,,,,5,Slow,long,f,1,2.122,1,2,6,1,1,,,,,
1.24,,,,,,,,,j,red,5c9d68f2e4a1e70001fe291e,2021-09-27_23h26.03.227,forced_choiceRT_color,2021.2.3,MacIntel,60.0024001,,,,,,,,5,Ontime,long,j,1,1.9876,1,3,7,2,1,,,,,
0.27,,,,,,,,,d,orange,5c9d68f2e4a1e70001fe291e,2021-09-27_23h26.03.227,forced_choiceRT_color,2021.2.3,MacIntel,60.0024001,,,,,,,,5,Fast,long,d,1,1.8046,2,0,8,0,1,,,,,
0.82,,,,,,,,,f,blue,5c9d68f2e4a1e70001fe291e,2021-09-27_23h26.03.227,forced_choiceRT_color,2021.2.3,MacIntel,60.0024001,,,,,,,,5,Fast,long,j,0,1.8851,2,1,9,1,1,,,,,
1.08,,,,,,,,,f,blue,5c9d68f2e4a1e70001fe291e,2021-09-27_23h26.03.227,forced_choiceRT_color,2021.2.3,MacIntel,60.0024001,,,,,,,,5,Ontime,long,j,0,1.93,2,2,10,1,1,,,,,
1.04,,,,,,,,,f,blue,5c9d68f2e4a1e70001fe291e,2021-09-27_23h26.03.227,forced_choiceRT_color,2021.2.3,MacIntel,60.0024001,,,,,,,,5,Ontime,long,j,0,2.0142,2,3,11,1,1,,,,,
0.38,,,,,,,,,j,red,5c9d68f2e4a1e70001fe291e,2021-09-27_23h26.03.227,forced_choiceRT_color,2021.2.3,MacIntel,60.0024001,,,,,,,,5,Ontime,long,f,0,2.0706,3,0,12,2,1,,,,,
1.12,,,,,,,,,f,blue,5c9d68f2e4a1e70001fe291e,2021-09-27_23h26.03.227,forced_choiceRT_color,2021.2.3,MacIntel,60.0024001,,,,,,,,5,Ontime,long,f,1,2.0425,3,1,13,1,1,,,,,
0.33,,,,,,,,,d,orange,5c9d68f2e4a1e70001fe291e,2021-09-27_23h26.03.227,forced_choiceRT_color,2021.2.3,MacIntel,60.0024001,,,,,,,,5,Ontime,long,d,1,1.9196,3,2,14,0,1,,,,,
0.94,,,,,,,,,k,purple,5c9d68f2e4a1e70001fe291e,2021-09-27_23h26.03.227,forced_choiceRT_color,2021.2.3,MacIntel,60.0024001,,,,,,,,5,Ontime,long,k,1,2.0051,3,3,15,3,1,,,,,
1.21,,,,,,,,,f,blue,5c9d68f2e4a1e70001fe291e,2021-09-27_23h26.03.227,forced_choiceRT_color,2021.2.3,MacIntel,60.0024001,,,,,,,,5,Ontime,long,j,0,1.9376,4,0,16,1,1,,,,,
1.37,,,,,,,,,d,orange,5c9d68f2e4a1e70001fe291e,2021-09-27_23h26.03.227,forced_choiceRT_color,2021.2.3,MacIntel,60.0024001,,,,,,,,5,Ontime,long,d,1,2.092,4,1,17,0,1,,,,,
0.23,,,,,,,,,k,purple,5c9d68f2e4a1e70001fe291e,2021-09-27_23h26.03.227,forced_choiceRT_color,2021.2.3,MacIntel,60.0024001,,,,,,,,5,Ontime,long,k,1,1.9759,4,2,18,3,1,,,,,
0.71,,,,,,,,,d,orange,5c9d68f2e4a1e70001fe291e,2021-09-27_23h26.03.227,forced_choiceRT_color,2021.2.3,MacIntel,60.0024001,,,,,,,,5,Fast,long,d,1,1.8885,4,3,19,0,1,,,,,
1.18,,,,,,,,,f,blue,5c9d68f2e4a1e70001fe291e,2021-09-27_23h26.03.227,forced_choiceRT_color,2021.2.3,MacIntel,60.0024001,,,,,,,,5,Ontime,long,j,0,1.9308,5,0,20,1,1,,,,,
1.43,,,,,,,,,d,orange,5c9d68f2e4a1e70001fe291e,2021-09-27_23h26.03.227,forced_choiceRT_color,2021.2.3,MacIntel,60.0024001,,,,,,,,5,Ontime,long,k,0,1.9868,5,1,21,0,1,,,,,
0.9,,,,,,,,,k,purple,5c9d68f2e4a1e70001fe291e,2021-09-27_23h26.03.227,forced_choiceRT_color,2021.2.3,MacIntel,60.0024001,,,,,,,,5,Ontime,long,k,1,1.9921,5,2,22,3,1,,,,,
0.87,,,,,,,,,d,orange,5c9d68f2e4a1e70001fe291e,2021-09-27_23h26.03.227,forced_choiceRT_color,2021.2.3,MacIntel,60.0024001,,,,,,,,5,Fast,long,d,1,1.8853,5,3,23,0,1,,,,,
0.97,,,,,,,,,k,purple,5c9d68f2e4a1e70001fe291e,2021-09-27_23h26.03.227,forced_choiceRT_color,2021.2.3,MacIntel,60.0024001,,,,,,,,5,Ontime,long,k,1,1.9705,6,0,24,3,1,,,,,
1.28,,,,,,,,,j,red,5c9d68f2e4a1e70001fe291e,2021-09-27_23h26.03.227,forced_choiceRT_color,2021.2.3,MacIntel,60.0024001,,,,,,,,5,Fast,long,d,0,1.8751,6,1,25,2,1,,,,,
0.81,,,,,,,,,k,purple,5c9d68f2e4a1e70001fe291e,2021-09-27_23h26.03.227,forced_choiceRT_color,2021.2.3,MacIntel,60.0024001,,,,,,,,5,Slow,long,k,1,9.0246,6,2,26,3,1,,,,,
0.19,,,,,,,,,j,red,5c9d68f2e4a1e70001fe291e,2021-09-27_23h26.03.227,forced_choiceRT_color,2021.2.3,MacIntel,60.0024001,,,,,,,,5,Ontime,long,j,1,1.9776,6,3,27,2,1,,,,,
1.28,,,,,,,,,k,purple,5c9d68f2e4a1e70001fe291e,2021-09-27_23h26.03.227,forced_choiceRT_color,2021.2.3,MacIntel,60.0024001,,,,,,,,5,Ontime,long,k,1,1.9796,7,0,28,3,1,,,,,
1.82,,,,,,,,,j,red,5c9d68f2e4a1e70001fe291e,2021-09-27_23h26.03.227,forced_choiceRT_color,2021.2.3,MacIntel,60.0024001,,,,,,,,5,Fast,long,j,1,1.6368,7,1,29,2,1,,,,,
1.66,,,,,,,,,k,purple,5c9d68f2e4a1e70001fe291e,2021-09-27_23h26.03.227,forced_choiceRT_color,2021.2.3,MacIntel,60.0024001,,,,,,,,5,Slow,long,k,1,2.1101,7,2,30,3,1,,,,,
0.84,,,,,,,,,k,purple,5c9d68f2e4a1e70001fe291e,2021-09-27_23h26.03.227,forced_choiceRT_color,2021.2.3,MacIntel,60.0024001,,,,,,,,5,Fast,long,k,1,1.8907,7,3,31,3,1,,,,,
1.48,,,,,,,,,j,red,5c9d68f2e4a1e70001fe291e,2021-09-27_23h26.03.227,forced_choiceRT_color,2021.2.3,MacIntel,60.0024001,,,,,,,,5,Ontime,long,d,0,1.9542,8,0,32,2,1,,,,,
1.63,,,,,,,,,j,red,5c9d68f2e4a1e70001fe291e,2021-09-27_23h26.03.227,forced_choiceRT_color,2021.2.3,MacIntel,60.0024001,,,,,,,,5,Ontime,long,j,1,1.9967,8,1,33,2,1,,,,,
1.67,,,,,,,,,d,orange,5c9d68f2e4a1e70001fe291e,2021-09-27_23h26.03.227,forced_choiceRT_color,2021.2.3,MacIntel,60.0024001,,,,,,,,5,Slow,long,d,1,2.1618,8,2,34,0,1,,,,,
1.35,,,,,,,,,k,purple,5c9d68f2e4a1e70001fe291e,2021-09-27_23h26.03.227,forced_choiceRT_color,2021.2.3,MacIntel,60.0024001,,,,,,,,5,Ontime,long,k,1,2.0301,8,3,35,3,1,,,,,
1.35,,,,,,,,,f,blue,5c9d68f2e4a1e70001fe291e,2021-09-27_23h26.03.227,forced_choiceRT_color,2021.2.3,MacIntel,60.0024001,,,,,,,,5,Ontime,long,f,1,2.0089,9,0,36,1,1,,,,,
1.84,,,,,,,,,d,orange,5c9d68f2e4a1e70001fe291e,2021-09-27_23h26.03.227,forced_choiceRT_color,2021.2.3,MacIntel,60.0024001,,,,,,,,5,Ontime,long,j,0,2.0969,9,1,37,0,1,,,,,
0.57,,,,,,,,,j,red,5c9d68f2e4a1e70001fe291e,2021-09-27_23h26.03.227,forced_choiceRT_color,2021.2.3,MacIntel,60.0024001,,,,,,,,5,Ontime,long,j,1,2.0035,9,2,38,2,1,,,,,
1.25,,,,,,,,,f,blue,5c9d68f2e4a1e70001fe291e,2021-09-27_23h26.03.227,forced_choiceRT_color,2021.2.3,MacIntel,60.0024001,,,,,,,,5,Fast,long,f,1,1.8031,9,3,39,1,1,,,,,
,,,,,,,,,,,5c9d68f2e4a1e70001fe291e,2021-09-27_23h26.03.227,forced_choiceRT_color,2021.2.3,MacIntel,60.0024001,,,,,,,,,,,,,,,,,,,4,0,4,0,1
0.7,,,,,,,,,d,orange,5c9d68f2e4a1e70001fe291e,2021-09-27_23h26.03.227,forced_choiceRT_color,2021.2.3,MacIntel,60.0024001,,,,,,,,6,Ontime,long,d,1,1.9187,0,0,0,0,1,,,,,
0.15,,,,,,,,,f,blue,5c9d68f2e4a1e70001fe291e,2021-09-27_23h26.03.227,forced_choiceRT_color,2021.2.3,MacIntel,60.0024001,,,,,,,,6,Ontime,long,f,1,1.9762,0,1,1,1,1,,,,,
1.63,,,,,,,,,k,purple,5c9d68f2e4a1e70001fe291e,2021-09-27_23h26.03.227,forced_choiceRT_color,2021.2.3,MacIntel,60.0024001,,,,,,,,6,Ontime,long,j,0,1.9686,0,2,2,3,1,,,,,
1.29,,,,,,,,,f,blue,5c9d68f2e4a1e70001fe291e,2021-09-27_23h26.03.227,forced_choiceRT_color,2021.2.3,MacIntel,60.0024001,,,,,,,,6,Slow,long,f,1,2.2567,0,3,3,1,1,,,,,
0.29,,,,,,,,,j,red,5c9d68f2e4a1e70001fe291e,2021-09-27_23h26.03.227,forced_choiceRT_color,2021.2.3,MacIntel,60.0024001,,,,,,,,6,Ontime,long,j,1,1.9406,1,0,4,2,1,,,,,
1.82,,,,,,,,,f,blue,5c9d68f2e4a1e70001fe291e,2021-09-27_23h26.03.227,forced_choiceRT_color,2021.2.3,MacIntel,60.0024001,,,,,,,,6,Ontime,long,j,0,2.0196,1,1,5,1,1,,,,,
1.71,,,,,,,,,d,orange,5c9d68f2e4a1e70001fe291e,2021-09-27_23h26.03.227,forced_choiceRT_color,2021.2.3,MacIntel,60.0024001,,,,,,,,6,Ontime,long,f,0,1.9707,1,2,6,0,1,,,,,
1.79,,,,,,,,,f,blue,5c9d68f2e4a1e70001fe291e,2021-09-27_23h26.03.227,forced_choiceRT_color,2021.2.3,MacIntel,60.0024001,,,,,,,,6,Slow,long,j,0,2.1532,1,3,7,1,1,,,,,
0.49,,,,,,,,,d,orange,5c9d68f2e4a1e70001fe291e,2021-09-27_23h26.03.227,forced_choiceRT_color,2021.2.3,MacIntel,60.0024001,,,,,,,,6,Ontime,long,d,1,1.9862,2,0,8,0,1,,,,,
1.85,,,,,,,,,d,orange,5c9d68f2e4a1e70001fe291e,2021-09-27_23h26.03.227,forced_choiceRT_color,2021.2.3,MacIntel,60.0024001,,,,,,,,6,Slow,long,j,0,2.1104,2,1,9,0,1,,,,,
1.86,,,,,,,,,f,blue,5c9d68f2e4a1e70001fe291e,2021-09-27_23h26.03.227,forced_choiceRT_color,2021.2.3,MacIntel,60.0024001,,,,,,,,6,Slow,long,f,1,2.2017,2,2,10,1,1,,,,,
1.53,,,,,,,,,k,purple,5c9d68f2e4a1e70001fe291e,2021-09-27_23h26.03.227,forced_choiceRT_color,2021.2.3,MacIntel,60.0024001,,,,,,,,6,Ontime,long,k,1,2.0927,2,3,11,3,1,,,,,
1.07,,,,,,,,,k,purple,5c9d68f2e4a1e70001fe291e,2021-09-27_23h26.03.227,forced_choiceRT_color,2021.2.3,MacIntel,60.0024001,,,,,,,,6,Fast,long,k,1,1.8928,3,0,12,3,1,,,,,
1.98,,,,,,,,,j,red,5c9d68f2e4a1e70001fe291e,2021-09-27_23h26.03.227,forced_choiceRT_color,2021.2.3,MacIntel,60.0024001,,,,,,,,6,Ontime,long,j,1,2.0433,3,1,13,2,1,,,,,
1.54,,,,,,,,,k,purple,5c9d68f2e4a1e70001fe291e,2021-09-27_23h26.03.227,forced_choiceRT_color,2021.2.3,MacIntel,60.0024001,,,,,,,,6,Slow,long,k,1,2.1087,3,2,14,3,1,,,,,
0.8,,,,,,,,,d,orange,5c9d68f2e4a1e70001fe291e,2021-09-27_23h26.03.227,forced_choiceRT_color,2021.2.3,MacIntel,60.0024001,,,,,,,,6,Ontime,long,d,1,1.9727,3,3,15,0,1,,,,,
0.43,,,,,,,,,d,orange,5c9d68f2e4a1e70001fe291e,2021-09-27_23h26.03.227,forced_choiceRT_color,2021.2.3,MacIntel,60.0024001,,,,,,,,6,Fast,long,d,1,1.8149,4,0,16,0,1,,,,,
0.58,,,,,,,,,f,blue,5c9d68f2e4a1e70001fe291e,2021-09-27_23h26.03.227,forced_choiceRT_color,2021.2.3,MacIntel,60.0024001,,,,,,,,6,Ontime,long,j,0,2.0053,4,1,17,1,1,,,,,
0.46,,,,,,,,,k,purple,5c9d68f2e4a1e70001fe291e,2021-09-27_23h26.03.227,forced_choiceRT_color,2021.2.3,MacIntel,60.0024001,,,,,,,,6,Ontime,long,k,1,2.0107,4,2,18,3,1,,,,,
0.44,,,,,,,,,f,blue,5c9d68f2e4a1e70001fe291e,2021-09-27_23h26.03.227,forced_choiceRT_color,2021.2.3,MacIntel,60.0024001,,,,,,,,6,Ontime,long,f,1,2.0583,4,3,19,1,1,,,,,
0.2,,,,,,,,,k,purple,5c9d68f2e4a1e70001fe291e,2021-09-27_23h26.03.227,forced_choiceRT_color,2021.2.3,MacIntel,60.0024001,,,,,,,,6,Ontime,long,k,1,1.9534,5,0,20,3,1,,,,,
1.94,,,,,,,,,j,red,5c9d68f2e4a1e70001fe291e,2021-09-27_23h26.03.227,forced_choiceRT_color,2021.2.3,MacIntel,60.0024001,,,,,,,,6,Ontime,long,j,1,2.0711,5,1,21,2,1,,,,,
1.03,,,,,,,,,j,red,5c9d68f2e4a1e70001fe291e,2021-09-27_23h26.03.227,forced_choiceRT_color,2021.2.3,MacIntel,60.0024001,,,,,,,,6,Ontime,long,j,1,1.9237,5,2,22,2,1,,,,,
1.6,,,,,,,,,j,red,5c9d68f2e4a1e70001fe291e,2021-09-27_23h26.03.227,forced_choiceRT_color,2021.2.3,MacIntel,60.0024001,,,,,,,,6,Ontime,long,f,0,1.975,5,3,23,2,1,,,,,
1.6,,,,,,,,,d,orange,5c9d68f2e4a1e70001fe291e,2021-09-27_23h26.03.227,forced_choiceRT_color,2021.2.3,MacIntel,60.0024001,,,,,,,,6,Ontime,long,j,0,2.0054,6,0,24,0,1,,,,,
0.96,,,,,,,,,j,red,5c9d68f2e4a1e70001fe291e,2021-09-27_23h26.03.227,forced_choiceRT_color,2021.2.3,MacIntel,60.0024001,,,,,,,,6,Ontime,long,j,1,1.9216,6,1,25,2,1,,,,,
1.43,,,,,,,,,j,red,5c9d68f2e4a1e70001fe291e,2021-09-27_23h26.03.227,forced_choiceRT_color,2021.2.3,MacIntel,60.0024001,,,,,,,,6,Ontime,long,j,1,1.9977,6,2,26,2,1,,,,,
1.13,,,,,,,,,f,blue,5c9d68f2e4a1e70001fe291e,2021-09-27_23h26.03.227,forced_choiceRT_color,2021.2.3,MacIntel,60.0024001,,,,,,,,6,Ontime,long,j,0,1.909,6,3,27,1,1,,,,,
0.64,,,,,,,,,d,orange,5c9d68f2e4a1e70001fe291e,2021-09-27_23h26.03.227,forced_choiceRT_color,2021.2.3,MacIntel,60.0024001,,,,,,,,6,Ontime,long,d,1,1.9206,7,0,28,0,1,,,,,
1.13,,,,,,,,,k,purple,5c9d68f2e4a1e70001fe291e,2021-09-27_23h26.03.227,forced_choiceRT_color,2021.2.3,MacIntel,60.0024001,,,,,,,,6,Ontime,long,k,1,2.0029,7,1,29,3,1,,,,,
1.05,,,,,,,,,k,purple,5c9d68f2e4a1e70001fe291e,2021-09-27_23h26.03.227,forced_choiceRT_color,2021.2.3,MacIntel,60.0024001,,,,,,,,6,Ontime,long,k,1,1.9359,7,2,30,3,1,,,,,
1.44,,,,,,,,,d,orange,5c9d68f2e4a1e70001fe291e,2021-09-27_23h26.03.227,forced_choiceRT_color,2021.2.3,MacIntel,60.0024001,,,,,,,,6,Fast,long,j,0,1.8429,7,3,31,0,1,,,,,
0.59,,,,,,,,,f,blue,5c9d68f2e4a1e70001fe291e,2021-09-27_23h26.03.227,forced_choiceRT_color,2021.2.3,MacIntel,60.0024001,,,,,,,,6,Ontime,long,f,1,1.9595,8,0,32,1,1,,,,,
1.1,,,,,,,,,f,blue,5c9d68f2e4a1e70001fe291e,2021-09-27_23h26.03.227,forced_choiceRT_color,2021.2.3,MacIntel,60.0024001,,,,,,,,6,Ontime,long,f,1,2.0048,8,1,33,1,1,,,,,
0.92,,,,,,,,,d,orange,5c9d68f2e4a1e70001fe291e,2021-09-27_23h26.03.227,forced_choiceRT_color,2021.2.3,MacIntel,60.0024001,,,,,,,,6,Ontime,long,d,1,1.9771,8,2,34,0,1,,,,,
0.23,,,,,,,,,j,red,5c9d68f2e4a1e70001fe291e,2021-09-27_23h26.03.227,forced_choiceRT_color,2021.2.3,MacIntel,60.0024001,,,,,,,,6,Ontime,long,j,1,2.0022,8,3,35,2,1,,,,,
0.16,,,,,,,,,j,red,5c9d68f2e4a1e70001fe291e,2021-09-27_23h26.03.227,forced_choiceRT_color,2021.2.3,MacIntel,60.0024001,,,,,,,,6,Ontime,long,j,1,2.0198,9,0,36,2,1,,,,,
0.52,,,,,,,,,j,red,5c9d68f2e4a1e70001fe291e,2021-09-27_23h26.03.227,forced_choiceRT_color,2021.2.3,MacIntel,60.0024001,,,,,,,,6,Ontime,long,j,1,1.94,9,1,37,2,1,,,,,
1.08,,,,,,,,,k,purple,5c9d68f2e4a1e70001fe291e,2021-09-27_23h26.03.227,forced_choiceRT_color,2021.2.3,MacIntel,60.0024001,,,,,,,,6,Ontime,long,k,1,1.9041,9,2,38,3,1,,,,,
0.47,,,,,,,,,k,purple,5c9d68f2e4a1e70001fe291e,2021-09-27_23h26.03.227,forced_choiceRT_color,2021.2.3,MacIntel,60.0024001,,,,,,,,6,Ontime,long,k,1,2.0048,9,3,39,3,1,,,,,
,,,,,,,,,,,5c9d68f2e4a1e70001fe291e,2021-09-27_23h26.03.227,forced_choiceRT_color,2021.2.3,MacIntel,60.0024001,,,,,,,,,,,,,,,,,,,5,0,5,0,1
0.17,,,,,,,,,k,purple,5c9d68f2e4a1e70001fe291e,2021-09-27_23h26.03.227,forced_choiceRT_color,2021.2.3,MacIntel,60.0024001,,,,,,,,7,Slow,long,k,1,2.1178,0,0,0,3,1,,,,,
1.66,,,,,,,,,f,blue,5c9d68f2e4a1e70001fe291e,2021-09-27_23h26.03.227,forced_choiceRT_color,2021.2.3,MacIntel,60.0024001,,,,,,,,7,Slow,long,f,1,2.1653,0,1,1,1,1,,,,,
1.57,,,,,,,,,d,orange,5c9d68f2e4a1e70001fe291e,2021-09-27_23h26.03.227,forced_choiceRT_color,2021.2.3,MacIntel,60.0024001,,,,,,,,7,Ontime,long,j,0,1.937,0,2,2,0,1,,,,,
1.08,,,,,,,,,f,blue,5c9d68f2e4a1e70001fe291e,2021-09-27_23h26.03.227,forced_choiceRT_color,2021.2.3,MacIntel,60.0024001,,,,,,,,7,Fast,long,j,0,1.7924,0,3,3,1,1,,,,,
0.52,,,,,,,,,d,orange,5c9d68f2e4a1e70001fe291e,2021-09-27_23h26.03.227,forced_choiceRT_color,2021.2.3,MacIntel,60.0024001,,,,,,,,7,Fast,long,d,1,1.257,1,0,4,0,1,,,,,
0.14,,,,,,,,,j,red,5c9d68f2e4a1e70001fe291e,2021-09-27_23h26.03.227,forced_choiceRT_color,2021.2.3,MacIntel,60.0024001,,,,,,,,7,Ontime,long,j,1,1.9912,1,1,5,2,1,,,,,
1.83,,,,,,,,,d,orange,5c9d68f2e4a1e70001fe291e,2021-09-27_23h26.03.227,forced_choiceRT_color,2021.2.3,MacIntel,60.0024001,,,,,,,,7,Ontime,long,j,0,2.0585,1,2,6,0,1,,,,,
0.78,,,,,,,,,k,purple,5c9d68f2e4a1e70001fe291e,2021-09-27_23h26.03.227,forced_choiceRT_color,2021.2.3,MacIntel,60.0024001,,,,,,,,7,Ontime,long,k,1,2.0221,1,3,7,3,1,,,,,
1.75,,,,,,,,,f,blue,5c9d68f2e4a1e70001fe291e,2021-09-27_23h26.03.227,forced_choiceRT_color,2021.2.3,MacIntel,60.0024001,,,,,,,,7,Slow,long,j,0,2.1869,2,0,8,1,1,,,,,
0.06,,,,,,,,,d,orange,5c9d68f2e4a1e70001fe291e,2021-09-27_23h26.03.227,forced_choiceRT_color,2021.2.3,MacIntel,60.0024001,,,,,,,,7,Ontime,long,d,1,2.0357,2,1,9,0,1,,,,,
0.15,,,,,,,,,d,orange,5c9d68f2e4a1e70001fe291e,2021-09-27_23h26.03.227,forced_choiceRT_color,2021.2.3,MacIntel,60.0024001,,,,,,,,7,Ontime,long,d,1,2.0454,2,2,10,0,1,,,,,
0.94,,,,,,,,,k,purple,5c9d68f2e4a1e70001fe291e,2021-09-27_23h26.03.227,forced_choiceRT_color,2021.2.3,MacIntel,60.0024001,,,,,,,,7,Ontime,long,k,1,2.0524,2,3,11,3,1,,,,,
1.65,,,,,,,,,k,purple,5c9d68f2e4a1e70001fe291e,2021-09-27_23h26.03.227,forced_choiceRT_color,2021.2.3,MacIntel,60.0024001,,,,,,,,7,Ontime,long,j,0,2.0367,3,0,12,3,1,,,,,
1.69,,,,,,,,,j,red,5c9d68f2e4a1e70001fe291e,2021-09-27_23h26.03.227,forced_choiceRT_color,2021.2.3,MacIntel,60.0024001,,,,,,,,7,Ontime,long,f,0,2.0455,3,1,13,2,1,,,,,
0.01,,,,,,,,,j,red,5c9d68f2e4a1e70001fe291e,2021-09-27_23h26.03.227,forced_choiceRT_color,2021.2.3,MacIntel,60.0024001,,,,,,,,7,Ontime,long,j,1,2.0405,3,2,14,2,1,,,,,
0.81,,,,,,,,,f,blue,5c9d68f2e4a1e70001fe291e,2021-09-27_23h26.03.227,forced_choiceRT_color,2021.2.3,MacIntel,60.0024001,,,,,,,,7,Ontime,long,f,1,1.9918,3,3,15,1,1,,,,,
1.12,,,,,,,,,d,orange,5c9d68f2e4a1e70001fe291e,2021-09-27_23h26.03.227,forced_choiceRT_color,2021.2.3,MacIntel,60.0024001,,,,,,,,7,Ontime,long,d,1,2.0365,4,0,16,0,1,,,,,
0.36,,,,,,,,,k,purple,5c9d68f2e4a1e70001fe291e,2021-09-27_23h26.03.227,forced_choiceRT_color,2021.2.3,MacIntel,60.0024001,,,,,,,,7,Ontime,long,k,1,2.0224,4,1,17,3,1,,,,,
1.34,,,,,,,,,j,red,5c9d68f2e4a1e70001fe291e,2021-09-27_23h26.03.227,forced_choiceRT_color,2021.2.3,MacIntel,60.0024001,,,,,,,,7,Ontime,long,f,0,2.0141,4,2,18,2,1,,,,,
0.54,,,,,,,,,d,orange,5c9d68f2e4a1e70001fe291e,2021-09-27_23h26.03.227,forced_choiceRT_color,2021.2.3,MacIntel,60.0024001,,,,,,,,7,Ontime,long,d,1,1.959,4,3,19,0,1,,,,,
0.77,,,,,,,,,f,blue,5c9d68f2e4a1e70001fe291e,2021-09-27_23h26.03.227,forced_choiceRT_color,2021.2.3,MacIntel,60.0024001,,,,,,,,7,Ontime,long,j,0,2.0208,5,0,20,1,1,,,,,
0.67,,,,,,,,,f,blue,5c9d68f2e4a1e70001fe291e,2021-09-27_23h26.03.227,forced_choiceRT_color,2021.2.3,MacIntel,60.0024001,,,,,,,,7,Ontime,long,f,1,2.0546,5,1,21,1,1,,,,,
1.62,,,,,,,,,f,blue,5c9d68f2e4a1e70001fe291e,2021-09-27_23h26.03.227,forced_choiceRT_color,2021.2.3,MacIntel,60.0024001,,,,,,,,7,Ontime,long,f,1,1.9913,5,2,22,1,1,,,,,
0.96,,,,,,,,,k,purple,5c9d68f2e4a1e70001fe291e,2021-09-27_23h26.03.227,forced_choiceRT_color,2021.2.3,MacIntel,60.0024001,,,,,,,,7,Ontime,long,k,1,2.0587,5,3,23,3,1,,,,,
0.79,,,,,,,,,f,blue,5c9d68f2e4a1e70001fe291e,2021-09-27_23h26.03.227,forced_choiceRT_color,2021.2.3,MacIntel,60.0024001,,,,,,,,7,Ontime,long,j,0,1.9366,6,0,24,1,1,,,,,
1.73,,,,,,,,,d,orange,5c9d68f2e4a1e70001fe291e,2021-09-27_23h26.03.227,forced_choiceRT_color,2021.2.3,MacIntel,60.0024001,,,,,,,,7,Ontime,long,f,0,1.9691,6,1,25,0,1,,,,,
1.68,,,,,,,,,k,purple,5c9d68f2e4a1e70001fe291e,2021-09-27_23h26.03.227,forced_choiceRT_color,2021.2.3,MacIntel,60.0024001,,,,,,,,7,Slow,long,f,0,2.1211,6,2,26,3,1,,,,,
1.87,,,,,,,,,d,orange,5c9d68f2e4a1e70001fe291e,2021-09-27_23h26.03.227,forced_choiceRT_color,2021.2.3,MacIntel,60.0024001,,,,,,,,7,Ontime,long,j,0,2.0517,6,3,27,0,1,,,,,
0.64,,,,,,,,,j,red,5c9d68f2e4a1e70001fe291e,2021-09-27_23h26.03.227,forced_choiceRT_color,2021.2.3,MacIntel,60.0024001,,,,,,,,7,Ontime,long,f,0,2.0216,7,0,28,2,1,,,,,
1.69,,,,,,,,,k,purple,5c9d68f2e4a1e70001fe291e,2021-09-27_23h26.03.227,forced_choiceRT_color,2021.2.3,MacIntel,60.0024001,,,,,,,,7,Ontime,long,k,1,1.992,7,1,29,3,1,,,,,
1.22,,,,,,,,,k,purple,5c9d68f2e4a1e70001fe291e,2021-09-27_23h26.03.227,forced_choiceRT_color,2021.2.3,MacIntel,60.0024001,,,,,,,,7,Ontime,long,k,1,1.9913,7,2,30,3,1,,,,,
1.18,,,,,,,,,d,orange,5c9d68f2e4a1e70001fe291e,2021-09-27_23h26.03.227,forced_choiceRT_color,2021.2.3,MacIntel,60.0024001,,,,,,,,7,Ontime,long,d,1,1.9711,7,3,31,0,1,,,,,
0.11,,,,,,,,,k,purple,5c9d68f2e4a1e70001fe291e,2021-09-27_23h26.03.227,forced_choiceRT_color,2021.2.3,MacIntel,60.0024001,,,,,,,,7,Ontime,long,k,1,2.0812,8,0,32,3,1,,,,,
0.03,,,,,,,,,j,red,5c9d68f2e4a1e70001fe291e,2021-09-27_23h26.03.227,forced_choiceRT_color,2021.2.3,MacIntel,60.0024001,,,,,,,,7,Ontime,long,j,1,2.0356,8,1,33,2,1,,,,,
1.04,,,,,,,,,j,red,5c9d68f2e4a1e70001fe291e,2021-09-27_23h26.03.227,forced_choiceRT_color,2021.2.3,MacIntel,60.0024001,,,,,,,,7,Ontime,long,j,1,2.0037,8,2,34,2,1,,,,,
1,,,,,,,,,j,red,5c9d68f2e4a1e70001fe291e,2021-09-27_23h26.03.227,forced_choiceRT_color,2021.2.3,MacIntel,60.0024001,,,,,,,,7,Fast,long,j,1,1.8865,8,3,35,2,1,,,,,
1.09,,,,,,,,,f,blue,5c9d68f2e4a1e70001fe291e,2021-09-27_23h26.03.227,forced_choiceRT_color,2021.2.3,MacIntel,60.0024001,,,,,,,,7,Ontime,long,j,0,1.9918,9,0,36,1,1,,,,,
1.61,,,,,,,,,j,red,5c9d68f2e4a1e70001fe291e,2021-09-27_23h26.03.227,forced_choiceRT_color,2021.2.3,MacIntel,60.0024001,,,,,,,,7,Ontime,long,j,1,1.9053,9,1,37,2,1,,,,,
0.29,,,,,,,,,f,blue,5c9d68f2e4a1e70001fe291e,2021-09-27_23h26.03.227,forced_choiceRT_color,2021.2.3,MacIntel,60.0024001,,,,,,,,7,Ontime,long,f,1,1.9843,9,2,38,1,1,,,,,
0.58,,,,,,,,,j,red,5c9d68f2e4a1e70001fe291e,2021-09-27_23h26.03.227,forced_choiceRT_color,2021.2.3,MacIntel,60.0024001,,,,,,,,7,Ontime,long,j,1,1.9944,9,3,39,2,1,,,,,
,,,,,,,,,,,5c9d68f2e4a1e70001fe291e,2021-09-27_23h26.03.227,forced_choiceRT_color,2021.2.3,MacIntel,60.0024001,,,,,,,,,,,,,,,,,,,6,0,6,0,1
0.84,,,,,,,,,k,purple,5c9d68f2e4a1e70001fe291e,2021-09-27_23h26.03.227,forced_choiceRT_color,2021.2.3,MacIntel,60.0024001,,,,,,,,8,Ontime,long,k,1,1.924,0,0,0,3,1,,,,,
1.24,,,,,,,,,f,blue,5c9d68f2e4a1e70001fe291e,2021-09-27_23h26.03.227,forced_choiceRT_color,2021.2.3,MacIntel,60.0024001,,,,,,,,8,Fast,long,j,0,1.858,0,1,1,1,1,,,,,
1.21,,,,,,,,,k,purple,5c9d68f2e4a1e70001fe291e,2021-09-27_23h26.03.227,forced_choiceRT_color,2021.2.3,MacIntel,60.0024001,,,,,,,,8,Ontime,long,k,1,2.0188,0,2,2,3,1,,,,,
0.56,,,,,,,,,f,blue,5c9d68f2e4a1e70001fe291e,2021-09-27_23h26.03.227,forced_choiceRT_color,2021.2.3,MacIntel,60.0024001,,,,,,,,8,Ontime,long,f,1,1.9439,0,3,3,1,1,,,,,
0.96,,,,,,,,,f,blue,5c9d68f2e4a1e70001fe291e,2021-09-27_23h26.03.227,forced_choiceRT_color,2021.2.3,MacIntel,60.0024001,,,,,,,,8,Ontime,long,f,1,1.96,1,0,4,1,1,,,,,
1.37,,,,,,,,,j,red,5c9d68f2e4a1e70001fe291e,2021-09-27_23h26.03.227,forced_choiceRT_color,2021.2.3,MacIntel,60.0024001,,,,,,,,8,Ontime,long,j,1,1.9428,1,1,5,2,1,,,,,
0.37,,,,,,,,,d,orange,5c9d68f2e4a1e70001fe291e,2021-09-27_23h26.03.227,forced_choiceRT_color,2021.2.3,MacIntel,60.0024001,,,,,,,,8,Ontime,long,d,1,1.989,1,2,6,0,1,,,,,
1.81,,,,,,,,,d,orange,5c9d68f2e4a1e70001fe291e,2021-09-27_23h26.03.227,forced_choiceRT_color,2021.2.3,MacIntel,60.0024001,,,,,,,,8,Ontime,long,k,0,2.0239,1,3,7,0,1,,,,,
0.05,,,,,,,,,d,orange,5c9d68f2e4a1e70001fe291e,2021-09-27_23h26.03.227,forced_choiceRT_color,2021.2.3,MacIntel,60.0024001,,,,,,,,8,Ontime,long,d,1,1.9503,2,0,8,0,1,,,,,
0.95,,,,,,,,,d,orange,5c9d68f2e4a1e70001fe291e,2021-09-27_23h26.03.227,forced_choiceRT_color,2021.2.3,MacIntel,60.0024001,,,,,,,,8,Ontime,long,d,1,2.021,2,1,9,0,1,,,,,
1.49,,,,,,,,,f,blue,5c9d68f2e4a1e70001fe291e,2021-09-27_23h26.03.227,forced_choiceRT_color,2021.2.3,MacIntel,60.0024001,,,,,,,,8,Ontime,long,j,0,1.9222,2,2,10,1,1,,,,,
1.9,,,,,,,,,j,red,5c9d68f2e4a1e70001fe291e,2021-09-27_23h26.03.227,forced_choiceRT_color,2021.2.3,MacIntel,60.0024001,,,,,,,,8,Ontime,long,j,1,2.0883,2,3,11,2,1,,,,,
0.96,,,,,,,,,f,blue,5c9d68f2e4a1e70001fe291e,2021-09-27_23h26.03.227,forced_choiceRT_color,2021.2.3,MacIntel,60.0024001,,,,,,,,8,Ontime,long,f,1,2.0077,3,0,12,1,1,,,,,
0.47,,,,,,,,,f,blue,5c9d68f2e4a1e70001fe291e,2021-09-27_23h26.03.227,forced_choiceRT_color,2021.2.3,MacIntel,60.0024001,,,,,,,,8,Slow,long,f,1,2.1574,3,1,13,1,1,,,,,
0.13,,,,,,,,,k,purple,5c9d68f2e4a1e70001fe291e,2021-09-27_23h26.03.227,forced_choiceRT_color,2021.2.3,MacIntel,60.0024001,,,,,,,,8,Ontime,long,k,1,1.9283,3,2,14,3,1,,,,,
1.69,,,,,,,,,k,purple,5c9d68f2e4a1e70001fe291e,2021-09-27_23h26.03.227,forced_choiceRT_color,2021.2.3,MacIntel,60.0024001,,,,,,,,8,Ontime,long,j,0,1.9605,3,3,15,3,1,,,,,
0.18,,,,,,,,,f,blue,5c9d68f2e4a1e70001fe291e,2021-09-27_23h26.03.227,forced_choiceRT_color,2021.2.3,MacIntel,60.0024001,,,,,,,,8,Ontime,long,f,1,1.9514,4,0,16,1,1,,,,,
1.63,,,,,,,,,f,blue,5c9d68f2e4a1e70001fe291e,2021-09-27_23h26.03.227,forced_choiceRT_color,2021.2.3,MacIntel,60.0024001,,,,,,,,8,Ontime,long,j,0,2.0879,4,1,17,1,1,,,,,
1.4,,,,,,,,,f,blue,5c9d68f2e4a1e70001fe291e,2021-09-27_23h26.03.227,forced_choiceRT_color,2021.2.3,MacIntel,60.0024001,,,,,,,,8,Ontime,long,f,1,2.068,4,2,18,1,1,,,,,
0.92,,,,,,,,,j,red,5c9d68f2e4a1e70001fe291e,2021-09-27_23h26.03.227,forced_choiceRT_color,2021.2.3,MacIntel,60.0024001,,,,,,,,8,Ontime,long,j,1,2.0525,4,3,19,2,1,,,,,
0.3,,,,,,,,,j,red,5c9d68f2e4a1e70001fe291e,2021-09-27_23h26.03.227,forced_choiceRT_color,2021.2.3,MacIntel,60.0024001,,,,,,,,8,Ontime,long,j,1,1.9157,5,0,20,2,1,,,,,
0.55,,,,,,,,,f,blue,5c9d68f2e4a1e70001fe291e,2021-09-27_23h26.03.227,forced_choiceRT_color,2021.2.3,MacIntel,60.0024001,,,,,,,,8,Ontime,long,f,1,1.9856,5,1,21,1,1,,,,,
1,,,,,,,,,d,orange,5c9d68f2e4a1e70001fe291e,2021-09-27_23h26.03.227,forced_choiceRT_color,2021.2.3,MacIntel,60.0024001,,,,,,,,8,Ontime,long,d,1,1.9698,5,2,22,0,1,,,,,
1.79,,,,,,,,,k,purple,5c9d68f2e4a1e70001fe291e,2021-09-27_23h26.03.227,forced_choiceRT_color,2021.2.3,MacIntel,60.0024001,,,,,,,,8,Ontime,long,j,0,2.0595,5,3,23,3,1,,,,,
0.98,,,,,,,,,k,purple,5c9d68f2e4a1e70001fe291e,2021-09-27_23h26.03.227,forced_choiceRT_color,2021.2.3,MacIntel,60.0024001,,,,,,,,8,Ontime,long,k,1,2,6,0,24,3,1,,,,,
1.21,,,,,,,,,k,purple,5c9d68f2e4a1e70001fe291e,2021-09-27_23h26.03.227,forced_choiceRT_color,2021.2.3,MacIntel,60.0024001,,,,,,,,8,Ontime,long,k,1,1.9763,6,1,25,3,1,,,,,
1.73,,,,,,,,,d,orange,5c9d68f2e4a1e70001fe291e,2021-09-27_23h26.03.227,forced_choiceRT_color,2021.2.3,MacIntel,60.0024001,,,,,,,,8,Ontime,long,j,0,1.9832,6,2,26,0,1,,,,,
1.39,,,,,,,,,k,purple,5c9d68f2e4a1e70001fe291e,2021-09-27_23h26.03.227,forced_choiceRT_color,2021.2.3,MacIntel,60.0024001,,,,,,,,8,Ontime,long,k,1,1.9443,6,3,27,3,1,,,,,
0.67,,,,,,,,,j,red,5c9d68f2e4a1e70001fe291e,2021-09-27_23h26.03.227,forced_choiceRT_color,2021.2.3,MacIntel,60.0024001,,,,,,,,8,Ontime,long,f,0,1.9921,7,0,28,2,1,,,,,
1.08,,,,,,,,,d,orange,5c9d68f2e4a1e70001fe291e,2021-09-27_23h26.03.227,forced_choiceRT_color,2021.2.3,MacIntel,60.0024001,,,,,,,,8,Ontime,long,d,1,2.0707,7,1,29,0,1,,,,,
1.12,,,,,,,,,k,purple,5c9d68f2e4a1e70001fe291e,2021-09-27_23h26.03.227,forced_choiceRT_color,2021.2.3,MacIntel,60.0024001,,,,,,,,8,Ontime,long,k,1,1.9164,7,2,30,3,1,,,,,
1.51,,,,,,,,,j,red,5c9d68f2e4a1e70001fe291e,2021-09-27_23h26.03.227,forced_choiceRT_color,2021.2.3,MacIntel,60.0024001,,,,,,,,8,Ontime,long,d,0,2.0409,7,3,31,2,1,,,,,
1.69,,,,,,,,,j,red,5c9d68f2e4a1e70001fe291e,2021-09-27_23h26.03.227,forced_choiceRT_color,2021.2.3,MacIntel,60.0024001,,,,,,,,8,Ontime,long,j,1,2.0543,8,0,32,2,1,,,,,
0.05,,,,,,,,,j,red,5c9d68f2e4a1e70001fe291e,2021-09-27_23h26.03.227,forced_choiceRT_color,2021.2.3,MacIntel,60.0024001,,,,,,,,8,Ontime,long,j,1,1.9306,8,1,33,2,1,,,,,
1.77,,,,,,,,,j,red,5c9d68f2e4a1e70001fe291e,2021-09-27_23h26.03.227,forced_choiceRT_color,2021.2.3,MacIntel,60.0024001,,,,,,,,8,Ontime,long,f,0,1.97,8,2,34,2,1,,,,,
0.26,,,,,,,,,d,orange,5c9d68f2e4a1e70001fe291e,2021-09-27_23h26.03.227,forced_choiceRT_color,2021.2.3,MacIntel,60.0024001,,,,,,,,8,Ontime,long,d,1,1.9019,8,3,35,0,1,,,,,
0,,,,,,,,,d,orange,5c9d68f2e4a1e70001fe291e,2021-09-27_23h26.03.227,forced_choiceRT_color,2021.2.3,MacIntel,60.0024001,,,,,,,,8,Ontime,long,d,1,1.9056,9,0,36,0,1,,,,,
1.23,,,,,,,,,j,red,5c9d68f2e4a1e70001fe291e,2021-09-27_23h26.03.227,forced_choiceRT_color,2021.2.3,MacIntel,60.0024001,,,,,,,,8,Ontime,long,j,1,1.9227,9,1,37,2,1,,,,,
0.4,,,,,,,,,k,purple,5c9d68f2e4a1e70001fe291e,2021-09-27_23h26.03.227,forced_choiceRT_color,2021.2.3,MacIntel,60.0024001,,,,,,,,8,Ontime,long,k,1,1.9031,9,2,38,3,1,,,,,
0.14,,,,,,,,,d,orange,5c9d68f2e4a1e70001fe291e,2021-09-27_23h26.03.227,forced_choiceRT_color,2021.2.3,MacIntel,60.0024001,,,,,,,,8,Ontime,long,d,1,1.9859,9,3,39,0,1,,,,,
,,,,,,,,,,,5c9d68f2e4a1e70001fe291e,2021-09-27_23h26.03.227,forced_choiceRT_color,2021.2.3,MacIntel,60.0024001,,,,,,,,,,,,,,,,,,,7,0,7,0,1
1.07,,,,,,,,,j,red,5c9d68f2e4a1e70001fe291e,2021-09-27_23h26.03.227,forced_choiceRT_color,2021.2.3,MacIntel,60.0024001,,,,,,,,9,Slow,long,j,1,2.4112,0,0,0,2,1,,,,,
0.18,,,,,,,,,k,purple,5c9d68f2e4a1e70001fe291e,2021-09-27_23h26.03.227,forced_choiceRT_color,2021.2.3,MacIntel,60.0024001,,,,,,,,9,Ontime,long,k,1,1.928,0,1,1,3,1,,,,,
1.04,,,,,,,,,f,blue,5c9d68f2e4a1e70001fe291e,2021-09-27_23h26.03.227,forced_choiceRT_color,2021.2.3,MacIntel,60.0024001,,,,,,,,9,Fast,long,j,0,1.7596,0,2,2,1,1,,,,,
0.89,,,,,,,,,d,orange,5c9d68f2e4a1e70001fe291e,2021-09-27_23h26.03.227,forced_choiceRT_color,2021.2.3,MacIntel,60.0024001,,,,,,,,9,Ontime,long,d,1,1.9304,0,3,3,0,1,,,,,
1.3,,,,,,,,,f,blue,5c9d68f2e4a1e70001fe291e,2021-09-27_23h26.03.227,forced_choiceRT_color,2021.2.3,MacIntel,60.0024001,,,,,,,,9,Fast,long,j,0,1.8874,1,0,4,1,1,,,,,
0.87,,,,,,,,,d,orange,5c9d68f2e4a1e70001fe291e,2021-09-27_23h26.03.227,forced_choiceRT_color,2021.2.3,MacIntel,60.0024001,,,,,,,,9,Ontime,long,d,1,1.9686,1,1,5,0,1,,,,,
1.86,,,,,,,,,d,orange,5c9d68f2e4a1e70001fe291e,2021-09-27_23h26.03.227,forced_choiceRT_color,2021.2.3,MacIntel,60.0024001,,,,,,,,9,Ontime,long,f,0,2.0497,1,2,6,0,1,,,,,
1.09,,,,,,,,,d,orange,5c9d68f2e4a1e70001fe291e,2021-09-27_23h26.03.227,forced_choiceRT_color,2021.2.3,MacIntel,60.0024001,,,,,,,,9,Ontime,long,f,0,2.0167,1,3,7,0,1,,,,,
1.44,,,,,,,,,d,orange,5c9d68f2e4a1e70001fe291e,2021-09-27_23h26.03.227,forced_choiceRT_color,2021.2.3,MacIntel,60.0024001,,,,,,,,9,Ontime,long,j,0,1.9793,2,0,8,0,1,,,,,
0.81,,,,,,,,,j,red,5c9d68f2e4a1e70001fe291e,2021-09-27_23h26.03.227,forced_choiceRT_color,2021.2.3,MacIntel,60.0024001,,,,,,,,9,Ontime,long,j,1,1.9255,2,1,9,2,1,,,,,
0.29,,,,,,,,,f,blue,5c9d68f2e4a1e70001fe291e,2021-09-27_23h26.03.227,forced_choiceRT_color,2021.2.3,MacIntel,60.0024001,,,,,,,,9,Ontime,long,f,1,2.0129,2,2,10,1,1,,,,,
0.38,,,,,,,,,f,blue,5c9d68f2e4a1e70001fe291e,2021-09-27_23h26.03.227,forced_choiceRT_color,2021.2.3,MacIntel,60.0024001,,,,,,,,9,Ontime,long,f,1,2.0564,2,3,11,1,1,,,,,
1.27,,,,,,,,,f,blue,5c9d68f2e4a1e70001fe291e,2021-09-27_23h26.03.227,forced_choiceRT_color,2021.2.3,MacIntel,60.0024001,,,,,,,,9,Ontime,long,f,1,1.9723,3,0,12,1,1,,,,,
1.49,,,,,,,,,j,red,5c9d68f2e4a1e70001fe291e,2021-09-27_23h26.03.227,forced_choiceRT_color,2021.2.3,MacIntel,60.0024001,,,,,,,,9,Fast,long,j,1,1.8876,3,1,13,2,1,,,,,
1.36,,,,,,,,,k,purple,5c9d68f2e4a1e70001fe291e,2021-09-27_23h26.03.227,forced_choiceRT_color,2021.2.3,MacIntel,60.0024001,,,,,,,,9,Fast,long,k,1,1.8771,3,2,14,3,1,,,,,
0.08,,,,,,,,,k,purple,5c9d68f2e4a1e70001fe291e,2021-09-27_23h26.03.227,forced_choiceRT_color,2021.2.3,MacIntel,60.0024001,,,,,,,,9,Ontime,long,k,1,1.962,3,3,15,3,1,,,,,
1.87,,,,,,,,,k,purple,5c9d68f2e4a1e70001fe291e,2021-09-27_23h26.03.227,forced_choiceRT_color,2021.2.3,MacIntel,60.0024001,,,,,,,,9,Ontime,long,j,0,1.9409,4,0,16,3,1,,,,,
0.4,,,,,,,,,d,orange,5c9d68f2e4a1e70001fe291e,2021-09-27_23h26.03.227,forced_choiceRT_color,2021.2.3,MacIntel,60.0024001,,,,,,,,9,Ontime,long,d,1,1.952,4,1,17,0,1,,,,,
0.06,,,,,,,,,j,red,5c9d68f2e4a1e70001fe291e,2021-09-27_23h26.03.227,forced_choiceRT_color,2021.2.3,MacIntel,60.0024001,,,,,,,,9,Fast,long,j,1,1.8631,4,2,18,2,1,,,,,
0.12,,,,,,,,,k,purple,5c9d68f2e4a1e70001fe291e,2021-09-27_23h26.03.227,forced_choiceRT_color,2021.2.3,MacIntel,60.0024001,,,,,,,,9,Ontime,long,k,1,1.9782,4,3,19,3,1,,,,,
0.32,,,,,,,,,f,blue,5c9d68f2e4a1e70001fe291e,2021-09-27_23h26.03.227,forced_choiceRT_color,2021.2.3,MacIntel,60.0024001,,,,,,,,9,Ontime,long,f,1,1.9875,5,0,20,1,1,,,,,
0.62,,,,,,,,,k,purple,5c9d68f2e4a1e70001fe291e,2021-09-27_23h26.03.227,forced_choiceRT_color,2021.2.3,MacIntel,60.0024001,,,,,,,,9,Fast,long,k,1,1.8741,5,1,21,3,1,,,,,
0.3,,,,,,,,,d,orange,5c9d68f2e4a1e70001fe291e,2021-09-27_23h26.03.227,forced_choiceRT_color,2021.2.3,MacIntel,60.0024001,,,,,,,,9,Ontime,long,d,1,1.9705,5,2,22,0,1,,,,,
1.42,,,,,,,,,k,purple,5c9d68f2e4a1e70001fe291e,2021-09-27_23h26.03.227,forced_choiceRT_color,2021.2.3,MacIntel,60.0024001,,,,,,,,9,Ontime,long,k,1,1.9363,5,3,23,3,1,,,,,
0.27,,,,,,,,,j,red,5c9d68f2e4a1e70001fe291e,2021-09-27_23h26.03.227,forced_choiceRT_color,2021.2.3,MacIntel,60.0024001,,,,,,,,9,Ontime,long,j,1,1.9517,6,0,24,2,1,,,,,
1.82,,,,,,,,,f,blue,5c9d68f2e4a1e70001fe291e,2021-09-27_23h26.03.227,forced_choiceRT_color,2021.2.3,MacIntel,60.0024001,,,,,,,,9,Ontime,long,k,0,2.0032,6,1,25,1,1,,,,,
0.5,,,,,,,,,j,red,5c9d68f2e4a1e70001fe291e,2021-09-27_23h26.03.227,forced_choiceRT_color,2021.2.3,MacIntel,60.0024001,,,,,,,,9,Ontime,long,j,1,2.0573,6,2,26,2,1,,,,,
1.91,,,,,,,,,f,blue,5c9d68f2e4a1e70001fe291e,2021-09-27_23h26.03.227,forced_choiceRT_color,2021.2.3,MacIntel,60.0024001,,,,,,,,9,Ontime,long,f,1,2.0181,6,3,27,1,1,,,,,
1.42,,,,,,,,,k,purple,5c9d68f2e4a1e70001fe291e,2021-09-27_23h26.03.227,forced_choiceRT_color,2021.2.3,MacIntel,60.0024001,,,,,,,,9,Fast,long,k,1,1.8751,7,0,28,3,1,,,,,
1.59,,,,,,,,,f,blue,5c9d68f2e4a1e70001fe291e,2021-09-27_23h26.03.227,forced_choiceRT_color,2021.2.3,MacIntel,60.0024001,,,,,,,,9,Ontime,long,j,0,1.9865,7,1,29,1,1,,,,,
0.66,,,,,,,,,j,red,5c9d68f2e4a1e70001fe291e,2021-09-27_23h26.03.227,forced_choiceRT_color,2021.2.3,MacIntel,60.0024001,,,,,,,,9,Ontime,long,j,1,1.936,7,2,30,2,1,,,,,
1.41,,,,,,,,,k,purple,5c9d68f2e4a1e70001fe291e,2021-09-27_23h26.03.227,forced_choiceRT_color,2021.2.3,MacIntel,60.0024001,,,,,,,,9,Ontime,long,k,1,1.9194,7,3,31,3,1,,,,,
0.15,,,,,,,,,j,red,5c9d68f2e4a1e70001fe291e,2021-09-27_23h26.03.227,forced_choiceRT_color,2021.2.3,MacIntel,60.0024001,,,,,,,,9,Ontime,long,j,1,1.9203,8,0,32,2,1,,,,,
1.35,,,,,,,,,d,orange,5c9d68f2e4a1e70001fe291e,2021-09-27_23h26.03.227,forced_choiceRT_color,2021.2.3,MacIntel,60.0024001,,,,,,,,9,Ontime,long,d,1,1.9362,8,1,33,0,1,,,,,
0.03,,,,,,,,,k,purple,5c9d68f2e4a1e70001fe291e,2021-09-27_23h26.03.227,forced_choiceRT_color,2021.2.3,MacIntel,60.0024001,,,,,,,,9,Ontime,long,k,1,1.9357,8,2,34,3,1,,,,,
1.42,,,,,,,,,j,red,5c9d68f2e4a1e70001fe291e,2021-09-27_23h26.03.227,forced_choiceRT_color,2021.2.3,MacIntel,60.0024001,,,,,,,,9,Ontime,long,j,1,2.0056,8,3,35,2,1,,,,,
1.57,,,,,,,,,d,orange,5c9d68f2e4a1e70001fe291e,2021-09-27_23h26.03.227,forced_choiceRT_color,2021.2.3,MacIntel,60.0024001,,,,,,,,9,Ontime,long,j,0,1.9348,9,0,36,0,1,,,,,
0.4,,,,,,,,,d,orange,5c9d68f2e4a1e70001fe291e,2021-09-27_23h26.03.227,forced_choiceRT_color,2021.2.3,MacIntel,60.0024001,,,,,,,,9,Ontime,long,d,1,1.9554,9,1,37,0,1,,,,,
1.25,,,,,,,,,f,blue,5c9d68f2e4a1e70001fe291e,2021-09-27_23h26.03.227,forced_choiceRT_color,2021.2.3,MacIntel,60.0024001,,,,,,,,9,Ontime,long,j,0,1.9372,9,2,38,1,1,,,,,
1.85,,,,,,,,,j,red,5c9d68f2e4a1e70001fe291e,2021-09-27_23h26.03.227,forced_choiceRT_color,2021.2.3,MacIntel,60.0024001,,,,,,,,9,Ontime,long,f,0,1.9562,9,3,39,2,1,,,,,
,,,,,,,,,,,5c9d68f2e4a1e70001fe291e,2021-09-27_23h26.03.227,forced_choiceRT_color,2021.2.3,MacIntel,60.0024001,,,,,,,,,,,,,,,,,,,8,0,8,0,1
1.48,,,,,,,,,d,orange,5c9d68f2e4a1e70001fe291e,2021-09-27_23h26.03.227,forced_choiceRT_color,2021.2.3,MacIntel,60.0024001,,,,,,,,10,Slow,long,d,1,2.2923,0,0,0,0,1,,,,,
0.36,,,,,,,,,k,purple,5c9d68f2e4a1e70001fe291e,2021-09-27_23h26.03.227,forced_choiceRT_color,2021.2.3,MacIntel,60.0024001,,,,,,,,10,Ontime,long,k,1,1.9411,0,1,1,3,1,,,,,
0.48,,,,,,,,,k,purple,5c9d68f2e4a1e70001fe291e,2021-09-27_23h26.03.227,forced_choiceRT_color,2021.2.3,MacIntel,60.0024001,,,,,,,,10,Ontime,long,k,1,1.9317,0,2,2,3,1,,,,,
0.31,,,,,,,,,d,orange,5c9d68f2e4a1e70001fe291e,2021-09-27_23h26.03.227,forced_choiceRT_color,2021.2.3,MacIntel,60.0024001,,,,,,,,10,Fast,long,d,1,1.8998,0,3,3,0,1,,,,,
0.13,,,,,,,,,k,purple,5c9d68f2e4a1e70001fe291e,2021-09-27_23h26.03.227,forced_choiceRT_color,2021.2.3,MacIntel,60.0024001,,,,,,,,10,Ontime,long,k,1,1.9439,1,0,4,3,1,,,,,
0.56,,,,,,,,,f,blue,5c9d68f2e4a1e70001fe291e,2021-09-27_23h26.03.227,forced_choiceRT_color,2021.2.3,MacIntel,60.0024001,,,,,,,,10,Ontime,long,f,1,1.9039,1,1,5,1,1,,,,,
1.57,,,,,,,,,f,blue,5c9d68f2e4a1e70001fe291e,2021-09-27_23h26.03.227,forced_choiceRT_color,2021.2.3,MacIntel,60.0024001,,,,,,,,10,Ontime,long,k,0,1.971,1,2,6,1,1,,,,,
0.71,,,,,,,,,d,orange,5c9d68f2e4a1e70001fe291e,2021-09-27_23h26.03.227,forced_choiceRT_color,2021.2.3,MacIntel,60.0024001,,,,,,,,10,Ontime,long,d,1,1.9367,1,3,7,0,1,,,,,
1.8,,,,,,,,,k,purple,5c9d68f2e4a1e70001fe291e,2021-09-27_23h26.03.227,forced_choiceRT_color,2021.2.3,MacIntel,60.0024001,,,,,,,,10,Ontime,long,j,0,1.9918,2,0,8,3,1,,,,,
1.01,,,,,,,,,j,red,5c9d68f2e4a1e70001fe291e,2021-09-27_23h26.03.227,forced_choiceRT_color,2021.2.3,MacIntel,60.0024001,,,,,,,,10,Ontime,long,j,1,1.9637,2,1,9,2,1,,,,,
0.57,,,,,,,,,k,purple,5c9d68f2e4a1e70001fe291e,2021-09-27_23h26.03.227,forced_choiceRT_color,2021.2.3,MacIntel,60.0024001,,,,,,,,10,Ontime,long,k,1,2.0368,2,2,10,3,1,,,,,
1.64,,,,,,,,,f,blue,5c9d68f2e4a1e70001fe291e,2021-09-27_23h26.03.227,forced_choiceRT_color,2021.2.3,MacIntel,60.0024001,,,,,,,,10,Ontime,long,k,0,2.026,2,3,11,1,1,,,,,
1.06,,,,,,,,,k,purple,5c9d68f2e4a1e70001fe291e,2021-09-27_23h26.03.227,forced_choiceRT_color,2021.2.3,MacIntel,60.0024001,,,,,,,,10,Ontime,long,k,1,1.9899,3,0,12,3,1,,,,,
0.53,,,,,,,,,f,blue,5c9d68f2e4a1e70001fe291e,2021-09-27_23h26.03.227,forced_choiceRT_color,2021.2.3,MacIntel,60.0024001,,,,,,,,10,Ontime,long,j,0,2.0359,3,1,13,1,1,,,,,
0,,,,,,,,,j,red,5c9d68f2e4a1e70001fe291e,2021-09-27_23h26.03.227,forced_choiceRT_color,2021.2.3,MacIntel,60.0024001,,,,,,,,10,Ontime,long,j,1,1.9614,3,2,14,2,1,,,,,
1.3,,,,,,,,,k,purple,5c9d68f2e4a1e70001fe291e,2021-09-27_23h26.03.227,forced_choiceRT_color,2021.2.3,MacIntel,60.0024001,,,,,,,,10,Ontime,long,k,1,2.02,3,3,15,3,1,,,,,
0.62,,,,,,,,,j,red,5c9d68f2e4a1e70001fe291e,2021-09-27_23h26.03.227,forced_choiceRT_color,2021.2.3,MacIntel,60.0024001,,,,,,,,10,Ontime,long,j,1,1.941,4,0,16,2,1,,,,,
1.52,,,,,,,,,j,red,5c9d68f2e4a1e70001fe291e,2021-09-27_23h26.03.227,forced_choiceRT_color,2021.2.3,MacIntel,60.0024001,,,,,,,,10,Ontime,long,f,0,1.9589,4,1,17,2,1,,,,,
0.89,,,,,,,,,k,purple,5c9d68f2e4a1e70001fe291e,2021-09-27_23h26.03.227,forced_choiceRT_color,2021.2.3,MacIntel,60.0024001,,,,,,,,10,Ontime,long,k,1,1.9951,4,2,18,3,1,,,,,
0.51,,,,,,,,,f,blue,5c9d68f2e4a1e70001fe291e,2021-09-27_23h26.03.227,forced_choiceRT_color,2021.2.3,MacIntel,60.0024001,,,,,,,,10,Ontime,long,f,1,2.0026,4,3,19,1,1,,,,,
1.96,,,,,,,,,d,orange,5c9d68f2e4a1e70001fe291e,2021-09-27_23h26.03.227,forced_choiceRT_color,2021.2.3,MacIntel,60.0024001,,,,,,,,10,Ontime,long,k,0,2.0361,5,0,20,0,1,,,,,
1.48,,,,,,,,,d,orange,5c9d68f2e4a1e70001fe291e,2021-09-27_23h26.03.227,forced_choiceRT_color,2021.2.3,MacIntel,60.0024001,,,,,,,,10,Ontime,long,k,0,1.9584,5,1,21,0,1,,,,,
1.18,,,,,,,,,d,orange,5c9d68f2e4a1e70001fe291e,2021-09-27_23h26.03.227,forced_choiceRT_color,2021.2.3,MacIntel,60.0024001,,,,,,,,10,Ontime,long,d,1,1.9381,5,2,22,0,1,,,,,
0.7,,,,,,,,,j,red,5c9d68f2e4a1e70001fe291e,2021-09-27_23h26.03.227,forced_choiceRT_color,2021.2.3,MacIntel,60.0024001,,,,,,,,10,Ontime,long,j,1,2.0594,5,3,23,2,1,,,,,
0.34,,,,,,,,,j,red,5c9d68f2e4a1e70001fe291e,2021-09-27_23h26.03.227,forced_choiceRT_color,2021.2.3,MacIntel,60.0024001,,,,,,,,10,Ontime,long,j,1,1.9041,6,0,24,2,1,,,,,
0.92,,,,,,,,,d,orange,5c9d68f2e4a1e70001fe291e,2021-09-27_23h26.03.227,forced_choiceRT_color,2021.2.3,MacIntel,60.0024001,,,,,,,,10,Ontime,long,d,1,1.9683,6,1,25,0,1,,,,,
1.21,,,,,,,,,j,red,5c9d68f2e4a1e70001fe291e,2021-09-27_23h26.03.227,forced_choiceRT_color,2021.2.3,MacIntel,60.0024001,,,,,,,,10,Ontime,long,j,1,2.0455,6,2,26,2,1,,,,,
0.83,,,,,,,,,k,purple,5c9d68f2e4a1e70001fe291e,2021-09-27_23h26.03.227,forced_choiceRT_color,2021.2.3,MacIntel,60.0024001,,,,,,,,10,Ontime,long,k,1,1.9681,6,3,27,3,1,,,,,
1.71,,,,,,,,,f,blue,5c9d68f2e4a1e70001fe291e,2021-09-27_23h26.03.227,forced_choiceRT_color,2021.2.3,MacIntel,60.0024001,,,,,,,,10,Ontime,long,k,0,2.026,7,0,28,1,1,,,,,
1.99,,,,,,,,,j,red,5c9d68f2e4a1e70001fe291e,2021-09-27_23h26.03.227,forced_choiceRT_color,2021.2.3,MacIntel,60.0024001,,,,,,,,10,Ontime,long,j,1,2.036,7,1,29,2,1,,,,,
0.33,,,,,,,,,k,purple,5c9d68f2e4a1e70001fe291e,2021-09-27_23h26.03.227,forced_choiceRT_color,2021.2.3,MacIntel,60.0024001,,,,,,,,10,Ontime,long,k,1,1.9412,7,2,30,3,1,,,,,
1.77,,,,,,,,,j,red,5c9d68f2e4a1e70001fe291e,2021-09-27_23h26.03.227,forced_choiceRT_color,2021.2.3,MacIntel,60.0024001,,,,,,,,10,Ontime,long,k,0,2.0596,7,3,31,2,1,,,,,
1.45,,,,,,,,,d,orange,5c9d68f2e4a1e70001fe291e,2021-09-27_23h26.03.227,forced_choiceRT_color,2021.2.3,MacIntel,60.0024001,,,,,,,,10,Ontime,long,d,1,2.0337,8,0,32,0,1,,,,,
0.95,,,,,,,,,j,red,5c9d68f2e4a1e70001fe291e,2021-09-27_23h26.03.227,forced_choiceRT_color,2021.2.3,MacIntel,60.0024001,,,,,,,,10,Ontime,long,j,1,1.9765,8,1,33,2,1,,,,,
1.52,,,,,,,,,f,blue,5c9d68f2e4a1e70001fe291e,2021-09-27_23h26.03.227,forced_choiceRT_color,2021.2.3,MacIntel,60.0024001,,,,,,,,10,Fast,long,f,1,1.8911,8,2,34,1,1,,,,,
1.25,,,,,,,,,f,blue,5c9d68f2e4a1e70001fe291e,2021-09-27_23h26.03.227,forced_choiceRT_color,2021.2.3,MacIntel,60.0024001,,,,,,,,10,Fast,long,f,1,1.871,8,3,35,1,1,,,,,
0.87,,,,,,,,,f,blue,5c9d68f2e4a1e70001fe291e,2021-09-27_23h26.03.227,forced_choiceRT_color,2021.2.3,MacIntel,60.0024001,,,,,,,,10,Ontime,long,f,1,2.0364,9,0,36,1,1,,,,,
0.68,,,,,,,,,d,orange,5c9d68f2e4a1e70001fe291e,2021-09-27_23h26.03.227,forced_choiceRT_color,2021.2.3,MacIntel,60.0024001,,,,,,,,10,Ontime,long,d,1,1.9365,9,1,37,0,1,,,,,
1.31,,,,,,,,,f,blue,5c9d68f2e4a1e70001fe291e,2021-09-27_23h26.03.227,forced_choiceRT_color,2021.2.3,MacIntel,60.0024001,,,,,,,,10,Ontime,long,j,0,2.0246,9,2,38,1,1,,,,,
0.68,,,,,,,,,d,orange,5c9d68f2e4a1e70001fe291e,2021-09-27_23h26.03.227,forced_choiceRT_color,2021.2.3,MacIntel,60.0024001,,,,,,,,10,Fast,long,d,1,1.8081,9,3,39,0,1,,,,,
,,,,,,,,,,,5c9d68f2e4a1e70001fe291e,2021-09-27_23h26.03.227,forced_choiceRT_color,2021.2.3,MacIntel,60.0024001,,,,,,,,,,,,,,,,,,,9,0,9,0,1
