IP_Addresss,target_onset,trial_resp_sp.keys,trial_resp_sp.corr,trial_resp_sp.rt,trials_train_loop.thisRepN,trials_train_loop.thisTrialN,trials_train_loop.thisN,trials_train_loop.thisIndex,trials_train_loop.ran,correct_key,color,participant,date,expName,psychopyVersion,OS,frameRate,trial_resp_timing.keys,trial_resp_timing.rt,trials_train_timing.thisRepN,trials_train_timing.thisTrialN,trials_train_timing.thisN,trials_train_timing.thisIndex,trials_train_timing.ran,block_id,ontime,feedback_cond,forcedRT_resp.keys,forcedRT_resp.corr,forcedRT_resp.rt,trials.thisRepN,trials.thisTrialN,trials.thisN,trials.thisIndex,trials.ran,blocks.thisRepN,blocks.thisTrialN,blocks.thisN,blocks.thisIndex,blocks.ran
174.212.70.28,0,k,1,1.4212,0,0,0,3,1,k,purple,5d39f1b6b056910001951b9a,2021-09-27_12h57.30.937,forced_choiceRT_color,2021.2.3,Win32,60.08171113,,,,,,,,,,,,,,,,,,,,,,,
,0,k,1,0.6434,0,1,1,3,1,k,purple,5d39f1b6b056910001951b9a,2021-09-27_12h57.30.937,forced_choiceRT_color,2021.2.3,Win32,60.08171113,,,,,,,,,,,,,,,,,,,,,,,
,0,d,1,0.9797,0,2,2,0,1,d,orange,5d39f1b6b056910001951b9a,2021-09-27_12h57.30.937,forced_choiceRT_color,2021.2.3,Win32,60.08171113,,,,,,,,,,,,,,,,,,,,,,,
,0,f,1,0.6769,0,3,3,1,1,f,blue,5d39f1b6b056910001951b9a,2021-09-27_12h57.30.937,forced_choiceRT_color,2021.2.3,Win32,60.08171113,,,,,,,,,,,,,,,,,,,,,,,
,0,f,1,0.6616,1,0,4,1,1,f,blue,5d39f1b6b056910001951b9a,2021-09-27_12h57.30.937,forced_choiceRT_color,2021.2.3,Win32,60.08171113,,,,,,,,,,,,,,,,,,,,,,,
,0,j,1,0.6343,1,1,5,2,1,j,red,5d39f1b6b056910001951b9a,2021-09-27_12h57.30.937,forced_choiceRT_color,2021.2.3,Win32,60.08171113,,,,,,,,,,,,,,,,,,,,,,,
,0,f,1,0.9855,1,2,6,1,1,f,blue,5d39f1b6b056910001951b9a,2021-09-27_12h57.30.937,forced_choiceRT_color,2021.2.3,Win32,60.08171113,,,,,,,,,,,,,,,,,,,,,,,
,0,f,1,0.6019,1,3,7,1,1,f,blue,5d39f1b6b056910001951b9a,2021-09-27_12h57.30.937,forced_choiceRT_color,2021.2.3,Win32,60.08171113,,,,,,,,,,,,,,,,,,,,,,,
,0,j,1,0.9516,2,0,8,2,1,j,red,5d39f1b6b056910001951b9a,2021-09-27_12h57.30.937,forced_choiceRT_color,2021.2.3,Win32,60.08171113,,,,,,,,,,,,,,,,,,,,,,,
,0,j,1,0.5414,2,1,9,2,1,j,red,5d39f1b6b056910001951b9a,2021-09-27_12h57.30.937,forced_choiceRT_color,2021.2.3,Win32,60.08171113,,,,,,,,,,,,,,,,,,,,,,,
,0,d,1,0.8196,2,2,10,0,1,d,orange,5d39f1b6b056910001951b9a,2021-09-27_12h57.30.937,forced_choiceRT_color,2021.2.3,Win32,60.08171113,,,,,,,,,,,,,,,,,,,,,,,
,0,j,1,1.1677,2,3,11,2,1,j,red,5d39f1b6b056910001951b9a,2021-09-27_12h57.30.937,forced_choiceRT_color,2021.2.3,Win32,60.08171113,,,,,,,,,,,,,,,,,,,,,,,
,0,d,1,0.701,3,0,12,0,1,d,orange,5d39f1b6b056910001951b9a,2021-09-27_12h57.30.937,forced_choiceRT_color,2021.2.3,Win32,60.08171113,,,,,,,,,,,,,,,,,,,,,,,
,0,d,1,0.5337,3,1,13,0,1,d,orange,5d39f1b6b056910001951b9a,2021-09-27_12h57.30.937,forced_choiceRT_color,2021.2.3,Win32,60.08171113,,,,,,,,,,,,,,,,,,,,,,,
,0,k,1,0.6682,3,2,14,3,1,k,purple,5d39f1b6b056910001951b9a,2021-09-27_12h57.30.937,forced_choiceRT_color,2021.2.3,Win32,60.08171113,,,,,,,,,,,,,,,,,,,,,,,
,0,k,1,0.4174,3,3,15,3,1,k,purple,5d39f1b6b056910001951b9a,2021-09-27_12h57.30.937,forced_choiceRT_color,2021.2.3,Win32,60.08171113,,,,,,,,,,,,,,,,,,,,,,,
,0,d,1,0.6671,4,0,16,0,1,d,orange,5d39f1b6b056910001951b9a,2021-09-27_12h57.30.937,forced_choiceRT_color,2021.2.3,Win32,60.08171113,,,,,,,,,,,,,,,,,,,,,,,
,0,d,1,0.4339,4,1,17,0,1,d,orange,5d39f1b6b056910001951b9a,2021-09-27_12h57.30.937,forced_choiceRT_color,2021.2.3,Win32,60.08171113,,,,,,,,,,,,,,,,,,,,,,,
,0,k,1,0.6174,4,2,18,3,1,k,purple,5d39f1b6b056910001951b9a,2021-09-27_12h57.30.937,forced_choiceRT_color,2021.2.3,Win32,60.08171113,,,,,,,,,,,,,,,,,,,,,,,
,0,k,1,0.4171,4,3,19,3,1,k,purple,5d39f1b6b056910001951b9a,2021-09-27_12h57.30.937,forced_choiceRT_color,2021.2.3,Win32,60.08171113,,,,,,,,,,,,,,,,,,,,,,,
,0,d,1,0.5187,5,0,20,0,1,d,orange,5d39f1b6b056910001951b9a,2021-09-27_12h57.30.937,forced_choiceRT_color,2021.2.3,Win32,60.08171113,,,,,,,,,,,,,,,,,,,,,,,
,0,j,1,0.7672,5,1,21,2,1,j,red,5d39f1b6b056910001951b9a,2021-09-27_12h57.30.937,forced_choiceRT_color,2021.2.3,Win32,60.08171113,,,,,,,,,,,,,,,,,,,,,,,
,0,f,1,0.7013,5,2,22,1,1,f,blue,5d39f1b6b056910001951b9a,2021-09-27_12h57.30.937,forced_choiceRT_color,2021.2.3,Win32,60.08171113,,,,,,,,,,,,,,,,,,,,,,,
,0,f,1,0.4169,5,3,23,1,1,f,blue,5d39f1b6b056910001951b9a,2021-09-27_12h57.30.937,forced_choiceRT_color,2021.2.3,Win32,60.08171113,,,,,,,,,,,,,,,,,,,,,,,
,0,f,1,0.4836,6,0,24,1,1,f,blue,5d39f1b6b056910001951b9a,2021-09-27_12h57.30.937,forced_choiceRT_color,2021.2.3,Win32,60.08171113,,,,,,,,,,,,,,,,,,,,,,,
,0,k,1,0.5343,6,1,25,3,1,k,purple,5d39f1b6b056910001951b9a,2021-09-27_12h57.30.937,forced_choiceRT_color,2021.2.3,Win32,60.08171113,,,,,,,,,,,,,,,,,,,,,,,
,0,k,1,0.4835,6,2,26,3,1,k,purple,5d39f1b6b056910001951b9a,2021-09-27_12h57.30.937,forced_choiceRT_color,2021.2.3,Win32,60.08171113,,,,,,,,,,,,,,,,,,,,,,,
,0,j,1,0.8181,6,3,27,2,1,j,red,5d39f1b6b056910001951b9a,2021-09-27_12h57.30.937,forced_choiceRT_color,2021.2.3,Win32,60.08171113,,,,,,,,,,,,,,,,,,,,,,,
,0,j,1,0.4341,7,0,28,2,1,j,red,5d39f1b6b056910001951b9a,2021-09-27_12h57.30.937,forced_choiceRT_color,2021.2.3,Win32,60.08171113,,,,,,,,,,,,,,,,,,,,,,,
,0,j,1,0.4682,7,1,29,2,1,j,red,5d39f1b6b056910001951b9a,2021-09-27_12h57.30.937,forced_choiceRT_color,2021.2.3,Win32,60.08171113,,,,,,,,,,,,,,,,,,,,,,,
,0,k,1,0.7011,7,2,30,3,1,k,purple,5d39f1b6b056910001951b9a,2021-09-27_12h57.30.937,forced_choiceRT_color,2021.2.3,Win32,60.08171113,,,,,,,,,,,,,,,,,,,,,,,
,0,f,1,1.0517,7,3,31,1,1,f,blue,5d39f1b6b056910001951b9a,2021-09-27_12h57.30.937,forced_choiceRT_color,2021.2.3,Win32,60.08171113,,,,,,,,,,,,,,,,,,,,,,,
,0,f,1,0.4341,8,0,32,1,1,f,blue,5d39f1b6b056910001951b9a,2021-09-27_12h57.30.937,forced_choiceRT_color,2021.2.3,Win32,60.08171113,,,,,,,,,,,,,,,,,,,,,,,
,0,j,1,0.5997,8,1,33,2,1,j,red,5d39f1b6b056910001951b9a,2021-09-27_12h57.30.937,forced_choiceRT_color,2021.2.3,Win32,60.08171113,,,,,,,,,,,,,,,,,,,,,,,
,0,k,1,0.6511,8,2,34,3,1,k,purple,5d39f1b6b056910001951b9a,2021-09-27_12h57.30.937,forced_choiceRT_color,2021.2.3,Win32,60.08171113,,,,,,,,,,,,,,,,,,,,,,,
,0,j,1,0.601,8,3,35,2,1,j,red,5d39f1b6b056910001951b9a,2021-09-27_12h57.30.937,forced_choiceRT_color,2021.2.3,Win32,60.08171113,,,,,,,,,,,,,,,,,,,,,,,
,0,k,1,0.5177,9,0,36,3,1,k,purple,5d39f1b6b056910001951b9a,2021-09-27_12h57.30.937,forced_choiceRT_color,2021.2.3,Win32,60.08171113,,,,,,,,,,,,,,,,,,,,,,,
,0,d,1,0.6014,9,1,37,0,1,d,orange,5d39f1b6b056910001951b9a,2021-09-27_12h57.30.937,forced_choiceRT_color,2021.2.3,Win32,60.08171113,,,,,,,,,,,,,,,,,,,,,,,
,0,d,1,0.3843,9,2,38,0,1,d,orange,5d39f1b6b056910001951b9a,2021-09-27_12h57.30.937,forced_choiceRT_color,2021.2.3,Win32,60.08171113,,,,,,,,,,,,,,,,,,,,,,,
,0,d,1,0.4003,9,3,39,0,1,d,orange,5d39f1b6b056910001951b9a,2021-09-27_12h57.30.937,forced_choiceRT_color,2021.2.3,Win32,60.08171113,,,,,,,,,,,,,,,,,,,,,,,
,0,j,1,0.7344,10,0,40,2,1,j,red,5d39f1b6b056910001951b9a,2021-09-27_12h57.30.937,forced_choiceRT_color,2021.2.3,Win32,60.08171113,,,,,,,,,,,,,,,,,,,,,,,
,0,j,1,0.4677,10,1,41,2,1,j,red,5d39f1b6b056910001951b9a,2021-09-27_12h57.30.937,forced_choiceRT_color,2021.2.3,Win32,60.08171113,,,,,,,,,,,,,,,,,,,,,,,
,0,f,1,0.869,10,2,42,1,1,f,blue,5d39f1b6b056910001951b9a,2021-09-27_12h57.30.937,forced_choiceRT_color,2021.2.3,Win32,60.08171113,,,,,,,,,,,,,,,,,,,,,,,
,0,k,1,0.4847,10,3,43,3,1,k,purple,5d39f1b6b056910001951b9a,2021-09-27_12h57.30.937,forced_choiceRT_color,2021.2.3,Win32,60.08171113,,,,,,,,,,,,,,,,,,,,,,,
,0,k,1,0.4681,11,0,44,3,1,k,purple,5d39f1b6b056910001951b9a,2021-09-27_12h57.30.937,forced_choiceRT_color,2021.2.3,Win32,60.08171113,,,,,,,,,,,,,,,,,,,,,,,
,0,f,1,0.8015,11,1,45,1,1,f,blue,5d39f1b6b056910001951b9a,2021-09-27_12h57.30.937,forced_choiceRT_color,2021.2.3,Win32,60.08171113,,,,,,,,,,,,,,,,,,,,,,,
,0,f,1,0.434,11,2,46,1,1,f,blue,5d39f1b6b056910001951b9a,2021-09-27_12h57.30.937,forced_choiceRT_color,2021.2.3,Win32,60.08171113,,,,,,,,,,,,,,,,,,,,,,,
,0,d,1,0.5511,11,3,47,0,1,d,orange,5d39f1b6b056910001951b9a,2021-09-27_12h57.30.937,forced_choiceRT_color,2021.2.3,Win32,60.08171113,,,,,,,,,,,,,,,,,,,,,,,
,0,d,1,0.4337,12,0,48,0,1,d,orange,5d39f1b6b056910001951b9a,2021-09-27_12h57.30.937,forced_choiceRT_color,2021.2.3,Win32,60.08171113,,,,,,,,,,,,,,,,,,,,,,,
,0,d,1,0.6175,12,1,49,0,1,d,orange,5d39f1b6b056910001951b9a,2021-09-27_12h57.30.937,forced_choiceRT_color,2021.2.3,Win32,60.08171113,,,,,,,,,,,,,,,,,,,,,,,
,0,d,1,0.5014,12,2,50,0,1,d,orange,5d39f1b6b056910001951b9a,2021-09-27_12h57.30.937,forced_choiceRT_color,2021.2.3,Win32,60.08171113,,,,,,,,,,,,,,,,,,,,,,,
,0,f,1,0.6185,12,3,51,1,1,f,blue,5d39f1b6b056910001951b9a,2021-09-27_12h57.30.937,forced_choiceRT_color,2021.2.3,Win32,60.08171113,,,,,,,,,,,,,,,,,,,,,,,
,0,j,1,0.5519,13,0,52,2,1,j,red,5d39f1b6b056910001951b9a,2021-09-27_12h57.30.937,forced_choiceRT_color,2021.2.3,Win32,60.08171113,,,,,,,,,,,,,,,,,,,,,,,
,0,d,1,0.7174,13,1,53,0,1,d,orange,5d39f1b6b056910001951b9a,2021-09-27_12h57.30.937,forced_choiceRT_color,2021.2.3,Win32,60.08171113,,,,,,,,,,,,,,,,,,,,,,,
,0,f,1,0.401,13,2,54,1,1,f,blue,5d39f1b6b056910001951b9a,2021-09-27_12h57.30.937,forced_choiceRT_color,2021.2.3,Win32,60.08171113,,,,,,,,,,,,,,,,,,,,,,,
,0,f,1,0.501,13,3,55,1,1,f,blue,5d39f1b6b056910001951b9a,2021-09-27_12h57.30.937,forced_choiceRT_color,2021.2.3,Win32,60.08171113,,,,,,,,,,,,,,,,,,,,,,,
,0,j,1,0.6347,14,0,56,2,1,j,red,5d39f1b6b056910001951b9a,2021-09-27_12h57.30.937,forced_choiceRT_color,2021.2.3,Win32,60.08171113,,,,,,,,,,,,,,,,,,,,,,,
,0,k,1,0.4842,14,1,57,3,1,k,purple,5d39f1b6b056910001951b9a,2021-09-27_12h57.30.937,forced_choiceRT_color,2021.2.3,Win32,60.08171113,,,,,,,,,,,,,,,,,,,,,,,
,0,k,1,0.6177,14,2,58,3,1,k,purple,5d39f1b6b056910001951b9a,2021-09-27_12h57.30.937,forced_choiceRT_color,2021.2.3,Win32,60.08171113,,,,,,,,,,,,,,,,,,,,,,,
,0,j,1,0.5676,14,3,59,2,1,j,red,5d39f1b6b056910001951b9a,2021-09-27_12h57.30.937,forced_choiceRT_color,2021.2.3,Win32,60.08171113,,,,,,,,,,,,,,,,,,,,,,,
,,,,,,,,,,,,5d39f1b6b056910001951b9a,2021-09-27_12h57.30.937,forced_choiceRT_color,2021.2.3,Win32,60.08171113,j,2.2845,0,0,0,0,1,,,,,,,,,,,,,,,,
,,,,,,,,,,,,5d39f1b6b056910001951b9a,2021-09-27_12h57.30.937,forced_choiceRT_color,2021.2.3,Win32,60.08171113,j,2.1187,1,0,1,0,1,,,,,,,,,,,,,,,,
,,,,,,,,,,,,5d39f1b6b056910001951b9a,2021-09-27_12h57.30.937,forced_choiceRT_color,2021.2.3,Win32,60.08171113,f,2.018,2,0,2,0,1,,,,,,,,,,,,,,,,
,,,,,,,,,,,,5d39f1b6b056910001951b9a,2021-09-27_12h57.30.937,forced_choiceRT_color,2021.2.3,Win32,60.08171113,f,2.0025,3,0,3,0,1,,,,,,,,,,,,,,,,
,,,,,,,,,,,,5d39f1b6b056910001951b9a,2021-09-27_12h57.30.937,forced_choiceRT_color,2021.2.3,Win32,60.08171113,f,2.0191,4,0,4,0,1,,,,,,,,,,,,,,,,
,,,,,,,,,,,,5d39f1b6b056910001951b9a,2021-09-27_12h57.30.937,forced_choiceRT_color,2021.2.3,Win32,60.08171113,f,2.0178,5,0,5,0,1,,,,,,,,,,,,,,,,
,,,,,,,,,,,,5d39f1b6b056910001951b9a,2021-09-27_12h57.30.937,forced_choiceRT_color,2021.2.3,Win32,60.08171113,f,1.9852,6,0,6,0,1,,,,,,,,,,,,,,,,
,,,,,,,,,,,,5d39f1b6b056910001951b9a,2021-09-27_12h57.30.937,forced_choiceRT_color,2021.2.3,Win32,60.08171113,f,2.023,7,0,7,0,1,,,,,,,,,,,,,,,,
,,,,,,,,,,,,5d39f1b6b056910001951b9a,2021-09-27_12h57.30.937,forced_choiceRT_color,2021.2.3,Win32,60.08171113,f,2.0615,8,0,8,0,1,,,,,,,,,,,,,,,,
,,,,,,,,,,,,5d39f1b6b056910001951b9a,2021-09-27_12h57.30.937,forced_choiceRT_color,2021.2.3,Win32,60.08171113,f,2.004,9,0,9,0,1,,,,,,,,,,,,,,,,
,,,,,,,,,,,,5d39f1b6b056910001951b9a,2021-09-27_12h57.30.937,forced_choiceRT_color,2021.2.3,Win32,60.08171113,f,1.9853,10,0,10,0,1,,,,,,,,,,,,,,,,
,,,,,,,,,,,,5d39f1b6b056910001951b9a,2021-09-27_12h57.30.937,forced_choiceRT_color,2021.2.3,Win32,60.08171113,f,2.0071,11,0,11,0,1,,,,,,,,,,,,,,,,
,,,,,,,,,,,,5d39f1b6b056910001951b9a,2021-09-27_12h57.30.937,forced_choiceRT_color,2021.2.3,Win32,60.08171113,f,1.9685,12,0,12,0,1,,,,,,,,,,,,,,,,
,,,,,,,,,,,,5d39f1b6b056910001951b9a,2021-09-27_12h57.30.937,forced_choiceRT_color,2021.2.3,Win32,60.08171113,f,1.9695,13,0,13,0,1,,,,,,,,,,,,,,,,
,,,,,,,,,,,,5d39f1b6b056910001951b9a,2021-09-27_12h57.30.937,forced_choiceRT_color,2021.2.3,Win32,60.08171113,f,1.8432,14,0,14,0,1,,,,,,,,,,,,,,,,
,,,,,,,,,,,,5d39f1b6b056910001951b9a,2021-09-27_12h57.30.937,forced_choiceRT_color,2021.2.3,Win32,60.08171113,f,2.0165,15,0,15,0,1,,,,,,,,,,,,,,,,
,,,,,,,,,,,,5d39f1b6b056910001951b9a,2021-09-27_12h57.30.937,forced_choiceRT_color,2021.2.3,Win32,60.08171113,f,2.0194,16,0,16,0,1,,,,,,,,,,,,,,,,
,,,,,,,,,,,,5d39f1b6b056910001951b9a,2021-09-27_12h57.30.937,forced_choiceRT_color,2021.2.3,Win32,60.08171113,f,1.9892,17,0,17,0,1,,,,,,,,,,,,,,,,
,,,,,,,,,,,,5d39f1b6b056910001951b9a,2021-09-27_12h57.30.937,forced_choiceRT_color,2021.2.3,Win32,60.08171113,f,1.9641,18,0,18,0,1,,,,,,,,,,,,,,,,
,,,,,,,,,,,,5d39f1b6b056910001951b9a,2021-09-27_12h57.30.937,forced_choiceRT_color,2021.2.3,Win32,60.08171113,f,1.9891,19,0,19,0,1,,,,,,,,,,,,,,,,
,0.94,,,,,,,,,k,purple,5d39f1b6b056910001951b9a,2021-09-27_12h57.30.937,forced_choiceRT_color,2021.2.3,Win32,60.08171113,,,,,,,,1,Slow,long,k,1,2.1335,0,0,0,3,1,,,,,
,0.92,,,,,,,,,j,red,5d39f1b6b056910001951b9a,2021-09-27_12h57.30.937,forced_choiceRT_color,2021.2.3,Win32,60.08171113,,,,,,,,1,Ontime,long,j,1,2.0097,0,1,1,2,1,,,,,
,0.33,,,,,,,,,d,orange,5d39f1b6b056910001951b9a,2021-09-27_12h57.30.937,forced_choiceRT_color,2021.2.3,Win32,60.08171113,,,,,,,,1,Ontime,long,d,1,2.0021,0,2,2,0,1,,,,,
,1.18,,,,,,,,,j,red,5d39f1b6b056910001951b9a,2021-09-27_12h57.30.937,forced_choiceRT_color,2021.2.3,Win32,60.08171113,,,,,,,,1,Ontime,long,j,1,2.0312,0,3,3,2,1,,,,,
,0.83,,,,,,,,,k,purple,5d39f1b6b056910001951b9a,2021-09-27_12h57.30.937,forced_choiceRT_color,2021.2.3,Win32,60.08171113,,,,,,,,1,Fast,long,k,1,1.8364,1,0,4,3,1,,,,,
,0.44,,,,,,,,,f,blue,5d39f1b6b056910001951b9a,2021-09-27_12h57.30.937,forced_choiceRT_color,2021.2.3,Win32,60.08171113,,,,,,,,1,Ontime,long,f,1,1.9777,1,1,5,1,1,,,,,
,1.37,,,,,,,,,f,blue,5d39f1b6b056910001951b9a,2021-09-27_12h57.30.937,forced_choiceRT_color,2021.2.3,Win32,60.08171113,,,,,,,,1,Ontime,long,f,1,2.0703,1,2,6,1,1,,,,,
,0.63,,,,,,,,,f,blue,5d39f1b6b056910001951b9a,2021-09-27_12h57.30.937,forced_choiceRT_color,2021.2.3,Win32,60.08171113,,,,,,,,1,Ontime,long,f,1,1.9525,1,3,7,1,1,,,,,
,1.82,,,,,,,,,d,orange,5d39f1b6b056910001951b9a,2021-09-27_12h57.30.937,forced_choiceRT_color,2021.2.3,Win32,60.08171113,,,,,,,,1,Slow,long,d,1,2.3863,2,0,8,0,1,,,,,
,1.28,,,,,,,,,j,red,5d39f1b6b056910001951b9a,2021-09-27_12h57.30.937,forced_choiceRT_color,2021.2.3,Win32,60.08171113,,,,,,,,1,Ontime,long,j,1,1.937,2,1,9,2,1,,,,,
,0.73,,,,,,,,,j,red,5d39f1b6b056910001951b9a,2021-09-27_12h57.30.937,forced_choiceRT_color,2021.2.3,Win32,60.08171113,,,,,,,,1,Ontime,long,j,1,1.9699,2,2,10,2,1,,,,,
,1.01,,,,,,,,,d,orange,5d39f1b6b056910001951b9a,2021-09-27_12h57.30.937,forced_choiceRT_color,2021.2.3,Win32,60.08171113,,,,,,,,1,Ontime,long,d,1,2.0769,2,3,11,0,1,,,,,
,1.28,,,,,,,,,f,blue,5d39f1b6b056910001951b9a,2021-09-27_12h57.30.937,forced_choiceRT_color,2021.2.3,Win32,60.08171113,,,,,,,,1,Ontime,long,f,1,2.07,3,0,12,1,1,,,,,
,0.9,,,,,,,,,d,orange,5d39f1b6b056910001951b9a,2021-09-27_12h57.30.937,forced_choiceRT_color,2021.2.3,Win32,60.08171113,,,,,,,,1,Ontime,long,d,1,1.9497,3,1,13,0,1,,,,,
,0.85,,,,,,,,,j,red,5d39f1b6b056910001951b9a,2021-09-27_12h57.30.937,forced_choiceRT_color,2021.2.3,Win32,60.08171113,,,,,,,,1,Ontime,long,j,1,2.02,3,2,14,2,1,,,,,
,1.67,,,,,,,,,k,purple,5d39f1b6b056910001951b9a,2021-09-27_12h57.30.937,forced_choiceRT_color,2021.2.3,Win32,60.08171113,,,,,,,,1,Slow,long,j,0,2.2029,3,3,15,3,1,,,,,
,0.97,,,,,,,,,f,blue,5d39f1b6b056910001951b9a,2021-09-27_12h57.30.937,forced_choiceRT_color,2021.2.3,Win32,60.08171113,,,,,,,,1,Ontime,long,f,1,1.9696,4,0,16,1,1,,,,,
,0.44,,,,,,,,,k,purple,5d39f1b6b056910001951b9a,2021-09-27_12h57.30.937,forced_choiceRT_color,2021.2.3,Win32,60.08171113,,,,,,,,1,Ontime,long,j,0,1.9412,4,1,17,3,1,,,,,
,0.36,,,,,,,,,f,blue,5d39f1b6b056910001951b9a,2021-09-27_12h57.30.937,forced_choiceRT_color,2021.2.3,Win32,60.08171113,,,,,,,,1,Fast,long,f,1,1.7687,4,2,18,1,1,,,,,
,1.7,,,,,,,,,f,blue,5d39f1b6b056910001951b9a,2021-09-27_12h57.30.937,forced_choiceRT_color,2021.2.3,Win32,60.08171113,,,,,,,,1,Slow,long,f,1,2.2909,4,3,19,1,1,,,,,
,0.31,,,,,,,,,f,blue,5d39f1b6b056910001951b9a,2021-09-27_12h57.30.937,forced_choiceRT_color,2021.2.3,Win32,60.08171113,,,,,,,,1,Ontime,long,f,1,1.9859,5,0,20,1,1,,,,,
,1.42,,,,,,,,,j,red,5d39f1b6b056910001951b9a,2021-09-27_12h57.30.937,forced_choiceRT_color,2021.2.3,Win32,60.08171113,,,,,,,,1,Ontime,long,j,1,1.9743,5,1,21,2,1,,,,,
,0.35,,,,,,,,,f,blue,5d39f1b6b056910001951b9a,2021-09-27_12h57.30.937,forced_choiceRT_color,2021.2.3,Win32,60.08171113,,,,,,,,1,Ontime,long,f,1,2.0395,5,2,22,1,1,,,,,
,1.99,,,,,,,,,d,orange,5d39f1b6b056910001951b9a,2021-09-27_12h57.30.937,forced_choiceRT_color,2021.2.3,Win32,60.08171113,,,,,,,,1,Slow,long,d,1,2.2863,5,3,23,0,1,,,,,
,1.23,,,,,,,,,d,orange,5d39f1b6b056910001951b9a,2021-09-27_12h57.30.937,forced_choiceRT_color,2021.2.3,Win32,60.08171113,,,,,,,,1,Ontime,long,d,1,2.035,6,0,24,0,1,,,,,
,0.13,,,,,,,,,f,blue,5d39f1b6b056910001951b9a,2021-09-27_12h57.30.937,forced_choiceRT_color,2021.2.3,Win32,60.08171113,,,,,,,,1,Ontime,long,f,1,1.9432,6,1,25,1,1,,,,,
,1.29,,,,,,,,,d,orange,5d39f1b6b056910001951b9a,2021-09-27_12h57.30.937,forced_choiceRT_color,2021.2.3,Win32,60.08171113,,,,,,,,1,Ontime,long,d,1,1.9863,6,2,26,0,1,,,,,
,1.75,,,,,,,,,k,purple,5d39f1b6b056910001951b9a,2021-09-27_12h57.30.937,forced_choiceRT_color,2021.2.3,Win32,60.08171113,,,,,,,,1,Ontime,long,d,0,2.0192,6,3,27,3,1,,,,,
,0.95,,,,,,,,,j,red,5d39f1b6b056910001951b9a,2021-09-27_12h57.30.937,forced_choiceRT_color,2021.2.3,Win32,60.08171113,,,,,,,,1,Ontime,long,j,1,1.9197,7,0,28,2,1,,,,,
,0.87,,,,,,,,,k,purple,5d39f1b6b056910001951b9a,2021-09-27_12h57.30.937,forced_choiceRT_color,2021.2.3,Win32,60.08171113,,,,,,,,1,Ontime,long,k,1,1.9043,7,1,29,3,1,,,,,
,0,,,,,,,,,j,red,5d39f1b6b056910001951b9a,2021-09-27_12h57.30.937,forced_choiceRT_color,2021.2.3,Win32,60.08171113,,,,,,,,1,Ontime,long,j,1,1.9184,7,2,30,2,1,,,,,
,1.59,,,,,,,,,k,purple,5d39f1b6b056910001951b9a,2021-09-27_12h57.30.937,forced_choiceRT_color,2021.2.3,Win32,60.08171113,,,,,,,,1,Fast,long,d,0,1.8971,7,3,31,3,1,,,,,
,0.54,,,,,,,,,j,red,5d39f1b6b056910001951b9a,2021-09-27_12h57.30.937,forced_choiceRT_color,2021.2.3,Win32,60.08171113,,,,,,,,1,Ontime,long,j,1,1.9902,8,0,32,2,1,,,,,
,1.4,,,,,,,,,k,purple,5d39f1b6b056910001951b9a,2021-09-27_12h57.30.937,forced_choiceRT_color,2021.2.3,Win32,60.08171113,,,,,,,,1,Ontime,long,f,0,1.9216,8,1,33,3,1,,,,,
,0.38,,,,,,,,,k,purple,5d39f1b6b056910001951b9a,2021-09-27_12h57.30.937,forced_choiceRT_color,2021.2.3,Win32,60.08171113,,,,,,,,1,Ontime,long,k,1,1.9854,8,2,34,3,1,,,,,
,0.08,,,,,,,,,d,orange,5d39f1b6b056910001951b9a,2021-09-27_12h57.30.937,forced_choiceRT_color,2021.2.3,Win32,60.08171113,,,,,,,,1,Ontime,long,d,1,1.9656,8,3,35,0,1,,,,,
,1.33,,,,,,,,,d,orange,5d39f1b6b056910001951b9a,2021-09-27_12h57.30.937,forced_choiceRT_color,2021.2.3,Win32,60.08171113,,,,,,,,1,Ontime,long,d,1,2.0187,9,0,36,0,1,,,,,
,1.77,,,,,,,,,j,red,5d39f1b6b056910001951b9a,2021-09-27_12h57.30.937,forced_choiceRT_color,2021.2.3,Win32,60.08171113,,,,,,,,1,Ontime,long,d,0,2.0047,9,1,37,2,1,,,,,
,1.6,,,,,,,,,d,orange,5d39f1b6b056910001951b9a,2021-09-27_12h57.30.937,forced_choiceRT_color,2021.2.3,Win32,60.08171113,,,,,,,,1,Ontime,long,j,0,1.9032,9,2,38,0,1,,,,,
,0.92,,,,,,,,,k,purple,5d39f1b6b056910001951b9a,2021-09-27_12h57.30.937,forced_choiceRT_color,2021.2.3,Win32,60.08171113,,,,,,,,1,Ontime,long,k,1,2.0185,9,3,39,3,1,,,,,
,,,,,,,,,,,,5d39f1b6b056910001951b9a,2021-09-27_12h57.30.937,forced_choiceRT_color,2021.2.3,Win32,60.08171113,,,,,,,,,,,,,,,,,,,0,0,0,0,1
,1.63,,,,,,,,,f,blue,5d39f1b6b056910001951b9a,2021-09-27_12h57.30.937,forced_choiceRT_color,2021.2.3,Win32,60.08171113,,,,,,,,2,Ontime,long,j,0,2.0796,0,0,0,1,1,,,,,
,1.31,,,,,,,,,j,red,5d39f1b6b056910001951b9a,2021-09-27_12h57.30.937,forced_choiceRT_color,2021.2.3,Win32,60.08171113,,,,,,,,2,Ontime,long,k,0,1.9712,0,1,1,2,1,,,,,
,0,,,,,,,,,k,purple,5d39f1b6b056910001951b9a,2021-09-27_12h57.30.937,forced_choiceRT_color,2021.2.3,Win32,60.08171113,,,,,,,,2,Ontime,long,k,1,1.9201,0,2,2,3,1,,,,,
,0.57,,,,,,,,,k,purple,5d39f1b6b056910001951b9a,2021-09-27_12h57.30.937,forced_choiceRT_color,2021.2.3,Win32,60.08171113,,,,,,,,2,Ontime,long,k,1,1.9532,0,3,3,3,1,,,,,
,1.05,,,,,,,,,f,blue,5d39f1b6b056910001951b9a,2021-09-27_12h57.30.937,forced_choiceRT_color,2021.2.3,Win32,60.08171113,,,,,,,,2,Ontime,long,d,0,1.9352,1,0,4,1,1,,,,,
,0.9,,,,,,,,,j,red,5d39f1b6b056910001951b9a,2021-09-27_12h57.30.937,forced_choiceRT_color,2021.2.3,Win32,60.08171113,,,,,,,,2,Ontime,long,j,1,1.9005,1,1,5,2,1,,,,,
,1.23,,,,,,,,,f,blue,5d39f1b6b056910001951b9a,2021-09-27_12h57.30.937,forced_choiceRT_color,2021.2.3,Win32,60.08171113,,,,,,,,2,Slow,long,f,1,2.1207,1,2,6,1,1,,,,,
,1.16,,,,,,,,,f,blue,5d39f1b6b056910001951b9a,2021-09-27_12h57.30.937,forced_choiceRT_color,2021.2.3,Win32,60.08171113,,,,,,,,2,Ontime,long,f,1,1.9196,1,3,7,1,1,,,,,
,1.81,,,,,,,,,d,orange,5d39f1b6b056910001951b9a,2021-09-27_12h57.30.937,forced_choiceRT_color,2021.2.3,Win32,60.08171113,,,,,,,,2,Ontime,long,k,0,1.9842,2,0,8,0,1,,,,,
,1.17,,,,,,,,,f,blue,5d39f1b6b056910001951b9a,2021-09-27_12h57.30.937,forced_choiceRT_color,2021.2.3,Win32,60.08171113,,,,,,,,2,Fast,long,f,1,1.8847,2,1,9,1,1,,,,,
,0.02,,,,,,,,,d,orange,5d39f1b6b056910001951b9a,2021-09-27_12h57.30.937,forced_choiceRT_color,2021.2.3,Win32,60.08171113,,,,,,,,2,Fast,long,d,1,1.7339,2,2,10,0,1,,,,,
,1.14,,,,,,,,,j,red,5d39f1b6b056910001951b9a,2021-09-27_12h57.30.937,forced_choiceRT_color,2021.2.3,Win32,60.08171113,,,,,,,,2,Slow,long,j,1,2.1188,2,3,11,2,1,,,,,
,1.15,,,,,,,,,j,red,5d39f1b6b056910001951b9a,2021-09-27_12h57.30.937,forced_choiceRT_color,2021.2.3,Win32,60.08171113,,,,,,,,2,Ontime,long,j,1,1.9354,3,0,12,2,1,,,,,
,0.45,,,,,,,,,j,red,5d39f1b6b056910001951b9a,2021-09-27_12h57.30.937,forced_choiceRT_color,2021.2.3,Win32,60.08171113,,,,,,,,2,Ontime,long,j,1,1.9522,3,1,13,2,1,,,,,
,1.68,,,,,,,,,d,orange,5d39f1b6b056910001951b9a,2021-09-27_12h57.30.937,forced_choiceRT_color,2021.2.3,Win32,60.08171113,,,,,,,,2,Ontime,long,j,0,1.9349,3,2,14,0,1,,,,,
,0.48,,,,,,,,,d,orange,5d39f1b6b056910001951b9a,2021-09-27_12h57.30.937,forced_choiceRT_color,2021.2.3,Win32,60.08171113,,,,,,,,2,Fast,long,d,1,1.8861,3,3,15,0,1,,,,,
,1.63,,,,,,,,,k,purple,5d39f1b6b056910001951b9a,2021-09-27_12h57.30.937,forced_choiceRT_color,2021.2.3,Win32,60.08171113,,,,,,,,2,Ontime,long,d,0,1.9519,4,0,16,3,1,,,,,
,0.85,,,,,,,,,d,orange,5d39f1b6b056910001951b9a,2021-09-27_12h57.30.937,forced_choiceRT_color,2021.2.3,Win32,60.08171113,,,,,,,,2,Fast,long,d,1,1.8861,4,1,17,0,1,,,,,
,1.73,,,,,,,,,k,purple,5d39f1b6b056910001951b9a,2021-09-27_12h57.30.937,forced_choiceRT_color,2021.2.3,Win32,60.08171113,,,,,,,,2,Ontime,long,j,0,1.9583,4,2,18,3,1,,,,,
,1.97,,,,,,,,,j,red,5d39f1b6b056910001951b9a,2021-09-27_12h57.30.937,forced_choiceRT_color,2021.2.3,Win32,60.08171113,,,,,,,,2,Ontime,long,j,1,2.086,4,3,19,2,1,,,,,
,1.08,,,,,,,,,j,red,5d39f1b6b056910001951b9a,2021-09-27_12h57.30.937,forced_choiceRT_color,2021.2.3,Win32,60.08171113,,,,,,,,2,Ontime,long,j,1,1.9351,5,0,20,2,1,,,,,
,0.88,,,,,,,,,k,purple,5d39f1b6b056910001951b9a,2021-09-27_12h57.30.937,forced_choiceRT_color,2021.2.3,Win32,60.08171113,,,,,,,,2,Ontime,long,k,1,1.9686,5,1,21,3,1,,,,,
,1.32,,,,,,,,,d,orange,5d39f1b6b056910001951b9a,2021-09-27_12h57.30.937,forced_choiceRT_color,2021.2.3,Win32,60.08171113,,,,,,,,2,Ontime,long,d,1,1.9426,5,2,22,0,1,,,,,
,0.93,,,,,,,,,j,red,5d39f1b6b056910001951b9a,2021-09-27_12h57.30.937,forced_choiceRT_color,2021.2.3,Win32,60.08171113,,,,,,,,2,Ontime,long,j,1,2.0363,5,3,23,2,1,,,,,
,1.6,,,,,,,,,k,purple,5d39f1b6b056910001951b9a,2021-09-27_12h57.30.937,forced_choiceRT_color,2021.2.3,Win32,60.08171113,,,,,,,,2,Slow,long,k,1,2.1411,6,0,24,3,1,,,,,
,0.02,,,,,,,,,k,purple,5d39f1b6b056910001951b9a,2021-09-27_12h57.30.937,forced_choiceRT_color,2021.2.3,Win32,60.08171113,,,,,,,,2,Ontime,long,k,1,2.019,6,1,25,3,1,,,,,
,1.12,,,,,,,,,f,blue,5d39f1b6b056910001951b9a,2021-09-27_12h57.30.937,forced_choiceRT_color,2021.2.3,Win32,60.08171113,,,,,,,,2,Ontime,long,d,0,2.0016,6,2,26,1,1,,,,,
,0.36,,,,,,,,,f,blue,5d39f1b6b056910001951b9a,2021-09-27_12h57.30.937,forced_choiceRT_color,2021.2.3,Win32,60.08171113,,,,,,,,2,Ontime,long,f,1,2.0522,6,3,27,1,1,,,,,
,0.27,,,,,,,,,f,blue,5d39f1b6b056910001951b9a,2021-09-27_12h57.30.937,forced_choiceRT_color,2021.2.3,Win32,60.08171113,,,,,,,,2,Ontime,long,f,1,1.9848,7,0,28,1,1,,,,,
,0.55,,,,,,,,,d,orange,5d39f1b6b056910001951b9a,2021-09-27_12h57.30.937,forced_choiceRT_color,2021.2.3,Win32,60.08171113,,,,,,,,2,Ontime,long,d,1,2.0022,7,1,29,0,1,,,,,
,0.29,,,,,,,,,j,red,5d39f1b6b056910001951b9a,2021-09-27_12h57.30.937,forced_choiceRT_color,2021.2.3,Win32,60.08171113,,,,,,,,2,Ontime,long,j,1,2.0215,7,2,30,2,1,,,,,
,0.8,,,,,,,,,f,blue,5d39f1b6b056910001951b9a,2021-09-27_12h57.30.937,forced_choiceRT_color,2021.2.3,Win32,60.08171113,,,,,,,,2,Ontime,long,f,1,1.9699,7,3,31,1,1,,,,,
,1.05,,,,,,,,,j,red,5d39f1b6b056910001951b9a,2021-09-27_12h57.30.937,forced_choiceRT_color,2021.2.3,Win32,60.08171113,,,,,,,,2,Ontime,long,j,1,2.0338,8,0,32,2,1,,,,,
,0.84,,,,,,,,,f,blue,5d39f1b6b056910001951b9a,2021-09-27_12h57.30.937,forced_choiceRT_color,2021.2.3,Win32,60.08171113,,,,,,,,2,Fast,long,f,1,1.8859,8,1,33,1,1,,,,,
,1.52,,,,,,,,,k,purple,5d39f1b6b056910001951b9a,2021-09-27_12h57.30.937,forced_choiceRT_color,2021.2.3,Win32,60.08171113,,,,,,,,2,Ontime,long,k,1,2.0371,8,2,34,3,1,,,,,
,1.33,,,,,,,,,d,orange,5d39f1b6b056910001951b9a,2021-09-27_12h57.30.937,forced_choiceRT_color,2021.2.3,Win32,60.08171113,,,,,,,,2,Ontime,long,f,0,2.069,8,3,35,0,1,,,,,
,1.57,,,,,,,,,k,purple,5d39f1b6b056910001951b9a,2021-09-27_12h57.30.937,forced_choiceRT_color,2021.2.3,Win32,60.08171113,,,,,,,,2,Slow,long,k,1,2.1369,9,0,36,3,1,,,,,
,1.07,,,,,,,,,k,purple,5d39f1b6b056910001951b9a,2021-09-27_12h57.30.937,forced_choiceRT_color,2021.2.3,Win32,60.08171113,,,,,,,,2,Ontime,long,k,1,1.9859,9,1,37,3,1,,,,,
,0,,,,,,,,,d,orange,5d39f1b6b056910001951b9a,2021-09-27_12h57.30.937,forced_choiceRT_color,2021.2.3,Win32,60.08171113,,,,,,,,2,Ontime,long,d,1,1.9873,9,2,38,0,1,,,,,
,1.59,,,,,,,,,d,orange,5d39f1b6b056910001951b9a,2021-09-27_12h57.30.937,forced_choiceRT_color,2021.2.3,Win32,60.08171113,,,,,,,,2,Ontime,long,d,1,1.9698,9,3,39,0,1,,,,,
,,,,,,,,,,,,5d39f1b6b056910001951b9a,2021-09-27_12h57.30.937,forced_choiceRT_color,2021.2.3,Win32,60.08171113,,,,,,,,,,,,,,,,,,,1,0,1,0,1
,0.68,,,,,,,,,j,red,5d39f1b6b056910001951b9a,2021-09-27_12h57.30.937,forced_choiceRT_color,2021.2.3,Win32,60.08171113,,,,,,,,3,Ontime,long,j,1,2.0147,0,0,0,2,1,,,,,
,1.96,,,,,,,,,d,orange,5d39f1b6b056910001951b9a,2021-09-27_12h57.30.937,forced_choiceRT_color,2021.2.3,Win32,60.08171113,,,,,,,,3,Ontime,long,k,0,2.0507,0,1,1,0,1,,,,,
,0.7,,,,,,,,,k,purple,5d39f1b6b056910001951b9a,2021-09-27_12h57.30.937,forced_choiceRT_color,2021.2.3,Win32,60.08171113,,,,,,,,3,Ontime,long,k,1,2.0188,0,2,2,3,1,,,,,
,0.68,,,,,,,,,k,purple,5d39f1b6b056910001951b9a,2021-09-27_12h57.30.937,forced_choiceRT_color,2021.2.3,Win32,60.08171113,,,,,,,,3,Ontime,long,k,1,1.9873,0,3,3,3,1,,,,,
,0.95,,,,,,,,,k,purple,5d39f1b6b056910001951b9a,2021-09-27_12h57.30.937,forced_choiceRT_color,2021.2.3,Win32,60.08171113,,,,,,,,3,Ontime,long,k,1,1.9692,1,0,4,3,1,,,,,
,0.35,,,,,,,,,d,orange,5d39f1b6b056910001951b9a,2021-09-27_12h57.30.937,forced_choiceRT_color,2021.2.3,Win32,60.08171113,,,,,,,,3,Ontime,long,f,0,2.0173,1,1,5,0,1,,,,,
,0.17,,,,,,,,,d,orange,5d39f1b6b056910001951b9a,2021-09-27_12h57.30.937,forced_choiceRT_color,2021.2.3,Win32,60.08171113,,,,,,,,3,Ontime,long,d,1,2.0028,1,2,6,0,1,,,,,
,0.1,,,,,,,,,k,purple,5d39f1b6b056910001951b9a,2021-09-27_12h57.30.937,forced_choiceRT_color,2021.2.3,Win32,60.08171113,,,,,,,,3,Ontime,long,k,1,2.0031,1,3,7,3,1,,,,,
,1.71,,,,,,,,,d,orange,5d39f1b6b056910001951b9a,2021-09-27_12h57.30.937,forced_choiceRT_color,2021.2.3,Win32,60.08171113,,,,,,,,3,Slow,long,d,1,2.3189,2,0,8,0,1,,,,,
,0.09,,,,,,,,,f,blue,5d39f1b6b056910001951b9a,2021-09-27_12h57.30.937,forced_choiceRT_color,2021.2.3,Win32,60.08171113,,,,,,,,3,Ontime,long,f,1,1.9915,2,1,9,1,1,,,,,
,1.88,,,,,,,,,k,purple,5d39f1b6b056910001951b9a,2021-09-27_12h57.30.937,forced_choiceRT_color,2021.2.3,Win32,60.08171113,,,,,,,,3,Ontime,long,f,0,2.0391,2,2,10,3,1,,,,,
,1.27,,,,,,,,,d,orange,5d39f1b6b056910001951b9a,2021-09-27_12h57.30.937,forced_choiceRT_color,2021.2.3,Win32,60.08171113,,,,,,,,3,Ontime,long,k,0,2.0343,2,3,11,0,1,,,,,
,0.95,,,,,,,,,f,blue,5d39f1b6b056910001951b9a,2021-09-27_12h57.30.937,forced_choiceRT_color,2021.2.3,Win32,60.08171113,,,,,,,,3,Ontime,long,f,1,2.0356,3,0,12,1,1,,,,,
,0.56,,,,,,,,,j,red,5d39f1b6b056910001951b9a,2021-09-27_12h57.30.937,forced_choiceRT_color,2021.2.3,Win32,60.08171113,,,,,,,,3,Ontime,long,j,1,1.9222,3,1,13,2,1,,,,,
,1.81,,,,,,,,,j,red,5d39f1b6b056910001951b9a,2021-09-27_12h57.30.937,forced_choiceRT_color,2021.2.3,Win32,60.08171113,,,,,,,,3,Ontime,long,j,1,1.9854,3,2,14,2,1,,,,,
,1.19,,,,,,,,,f,blue,5d39f1b6b056910001951b9a,2021-09-27_12h57.30.937,forced_choiceRT_color,2021.2.3,Win32,60.08171113,,,,,,,,3,Ontime,long,f,1,1.9501,3,3,15,1,1,,,,,
,1.38,,,,,,,,,d,orange,5d39f1b6b056910001951b9a,2021-09-27_12h57.30.937,forced_choiceRT_color,2021.2.3,Win32,60.08171113,,,,,,,,3,Ontime,long,f,0,2.0188,4,0,16,0,1,,,,,
,0.19,,,,,,,,,f,blue,5d39f1b6b056910001951b9a,2021-09-27_12h57.30.937,forced_choiceRT_color,2021.2.3,Win32,60.08171113,,,,,,,,3,Ontime,long,f,1,1.9737,4,1,17,1,1,,,,,
,1.54,,,,,,,,,f,blue,5d39f1b6b056910001951b9a,2021-09-27_12h57.30.937,forced_choiceRT_color,2021.2.3,Win32,60.08171113,,,,,,,,3,Ontime,long,f,1,2.0356,4,2,18,1,1,,,,,
,1.66,,,,,,,,,j,red,5d39f1b6b056910001951b9a,2021-09-27_12h57.30.937,forced_choiceRT_color,2021.2.3,Win32,60.08171113,,,,,,,,3,Ontime,long,j,1,1.9691,4,3,19,2,1,,,,,
,1.24,,,,,,,,,j,red,5d39f1b6b056910001951b9a,2021-09-27_12h57.30.937,forced_choiceRT_color,2021.2.3,Win32,60.08171113,,,,,,,,3,Ontime,long,j,1,2.0199,5,0,20,2,1,,,,,
,1.72,,,,,,,,,f,blue,5d39f1b6b056910001951b9a,2021-09-27_12h57.30.937,forced_choiceRT_color,2021.2.3,Win32,60.08171113,,,,,,,,3,Slow,long,f,1,2.1324,5,1,21,1,1,,,,,
,0.94,,,,,,,,,f,blue,5d39f1b6b056910001951b9a,2021-09-27_12h57.30.937,forced_choiceRT_color,2021.2.3,Win32,60.08171113,,,,,,,,3,Ontime,long,f,1,2.0024,5,2,22,1,1,,,,,
,1.71,,,,,,,,,d,orange,5d39f1b6b056910001951b9a,2021-09-27_12h57.30.937,forced_choiceRT_color,2021.2.3,Win32,60.08171113,,,,,,,,3,Slow,long,j,0,2.1635,5,3,23,0,1,,,,,
,1.78,,,,,,,,,j,red,5d39f1b6b056910001951b9a,2021-09-27_12h57.30.937,forced_choiceRT_color,2021.2.3,Win32,60.08171113,,,,,,,,3,Slow,long,k,0,2.419,6,0,24,2,1,,,,,
,0.93,,,,,,,,,k,purple,5d39f1b6b056910001951b9a,2021-09-27_12h57.30.937,forced_choiceRT_color,2021.2.3,Win32,60.08171113,,,,,,,,3,Ontime,long,k,1,1.9182,6,1,25,3,1,,,,,
,0.37,,,,,,,,,d,orange,5d39f1b6b056910001951b9a,2021-09-27_12h57.30.937,forced_choiceRT_color,2021.2.3,Win32,60.08171113,,,,,,,,3,Ontime,long,d,1,1.9859,6,2,26,0,1,,,,,
,0.97,,,,,,,,,k,purple,5d39f1b6b056910001951b9a,2021-09-27_12h57.30.937,forced_choiceRT_color,2021.2.3,Win32,60.08171113,,,,,,,,3,Ontime,long,k,1,1.9235,6,3,27,3,1,,,,,
,0.86,,,,,,,,,f,blue,5d39f1b6b056910001951b9a,2021-09-27_12h57.30.937,forced_choiceRT_color,2021.2.3,Win32,60.08171113,,,,,,,,3,Ontime,long,f,1,2.003,7,0,28,1,1,,,,,
,1.99,,,,,,,,,d,orange,5d39f1b6b056910001951b9a,2021-09-27_12h57.30.937,forced_choiceRT_color,2021.2.3,Win32,60.08171113,,,,,,,,3,Ontime,long,j,0,1.9844,7,1,29,0,1,,,,,
,1.61,,,,,,,,,j,red,5d39f1b6b056910001951b9a,2021-09-27_12h57.30.937,forced_choiceRT_color,2021.2.3,Win32,60.08171113,,,,,,,,3,Ontime,long,j,1,1.985,7,2,30,2,1,,,,,
,0.76,,,,,,,,,k,purple,5d39f1b6b056910001951b9a,2021-09-27_12h57.30.937,forced_choiceRT_color,2021.2.3,Win32,60.08171113,,,,,,,,3,Ontime,long,k,1,1.9905,7,3,31,3,1,,,,,
,0.09,,,,,,,,,j,red,5d39f1b6b056910001951b9a,2021-09-27_12h57.30.937,forced_choiceRT_color,2021.2.3,Win32,60.08171113,,,,,,,,3,Ontime,long,j,1,2.0363,8,0,32,2,1,,,,,
,1.99,,,,,,,,,j,red,5d39f1b6b056910001951b9a,2021-09-27_12h57.30.937,forced_choiceRT_color,2021.2.3,Win32,60.08171113,,,,,,,,3,Ontime,long,k,0,1.9855,8,1,33,2,1,,,,,
,1.69,,,,,,,,,f,blue,5d39f1b6b056910001951b9a,2021-09-27_12h57.30.937,forced_choiceRT_color,2021.2.3,Win32,60.08171113,,,,,,,,3,Ontime,long,j,0,2.0187,8,2,34,1,1,,,,,
,0.49,,,,,,,,,j,red,5d39f1b6b056910001951b9a,2021-09-27_12h57.30.937,forced_choiceRT_color,2021.2.3,Win32,60.08171113,,,,,,,,3,Ontime,long,j,1,2.017,8,3,35,2,1,,,,,
,0.73,,,,,,,,,f,blue,5d39f1b6b056910001951b9a,2021-09-27_12h57.30.937,forced_choiceRT_color,2021.2.3,Win32,60.08171113,,,,,,,,3,Ontime,long,f,1,1.936,9,0,36,1,1,,,,,
,0.69,,,,,,,,,d,orange,5d39f1b6b056910001951b9a,2021-09-27_12h57.30.937,forced_choiceRT_color,2021.2.3,Win32,60.08171113,,,,,,,,3,Ontime,long,d,1,1.9973,9,1,37,0,1,,,,,
,0.14,,,,,,,,,k,purple,5d39f1b6b056910001951b9a,2021-09-27_12h57.30.937,forced_choiceRT_color,2021.2.3,Win32,60.08171113,,,,,,,,3,Ontime,long,k,1,2.0196,9,2,38,3,1,,,,,
,1.57,,,,,,,,,k,purple,5d39f1b6b056910001951b9a,2021-09-27_12h57.30.937,forced_choiceRT_color,2021.2.3,Win32,60.08171113,,,,,,,,3,Slow,long,k,1,2.1036,9,3,39,3,1,,,,,
,,,,,,,,,,,,5d39f1b6b056910001951b9a,2021-09-27_12h57.30.937,forced_choiceRT_color,2021.2.3,Win32,60.08171113,,,,,,,,,,,,,,,,,,,2,0,2,0,1
,1.6,,,,,,,,,d,orange,5d39f1b6b056910001951b9a,2021-09-27_12h57.30.937,forced_choiceRT_color,2021.2.3,Win32,60.08171113,,,,,,,,4,Ontime,long,f,0,1.9467,0,0,0,0,1,,,,,
,1.45,,,,,,,,,d,orange,5d39f1b6b056910001951b9a,2021-09-27_12h57.30.937,forced_choiceRT_color,2021.2.3,Win32,60.08171113,,,,,,,,4,Ontime,long,d,1,1.9862,0,1,1,0,1,,,,,
,1.2,,,,,,,,,j,red,5d39f1b6b056910001951b9a,2021-09-27_12h57.30.937,forced_choiceRT_color,2021.2.3,Win32,60.08171113,,,,,,,,4,Ontime,long,j,1,1.9854,0,2,2,2,1,,,,,
,1.73,,,,,,,,,f,blue,5d39f1b6b056910001951b9a,2021-09-27_12h57.30.937,forced_choiceRT_color,2021.2.3,Win32,60.08171113,,,,,,,,4,Ontime,long,k,0,1.97,0,3,3,1,1,,,,,
,1.74,,,,,,,,,f,blue,5d39f1b6b056910001951b9a,2021-09-27_12h57.30.937,forced_choiceRT_color,2021.2.3,Win32,60.08171113,,,,,,,,4,Ontime,long,j,0,1.9657,1,0,4,1,1,,,,,
,1.96,,,,,,,,,k,purple,5d39f1b6b056910001951b9a,2021-09-27_12h57.30.937,forced_choiceRT_color,2021.2.3,Win32,60.08171113,,,,,,,,4,Ontime,long,d,0,1.9847,1,1,5,3,1,,,,,
,1.35,,,,,,,,,k,purple,5d39f1b6b056910001951b9a,2021-09-27_12h57.30.937,forced_choiceRT_color,2021.2.3,Win32,60.08171113,,,,,,,,4,Fast,long,k,1,1.8017,1,2,6,3,1,,,,,
,0.73,,,,,,,,,j,red,5d39f1b6b056910001951b9a,2021-09-27_12h57.30.937,forced_choiceRT_color,2021.2.3,Win32,60.08171113,,,,,,,,4,Ontime,long,j,1,1.9579,1,3,7,2,1,,,,,
,1.65,,,,,,,,,k,purple,5d39f1b6b056910001951b9a,2021-09-27_12h57.30.937,forced_choiceRT_color,2021.2.3,Win32,60.08171113,,,,,,,,4,Ontime,long,j,0,2.0708,2,0,8,3,1,,,,,
,0.37,,,,,,,,,d,orange,5d39f1b6b056910001951b9a,2021-09-27_12h57.30.937,forced_choiceRT_color,2021.2.3,Win32,60.08171113,,,,,,,,4,Ontime,long,d,1,2.0013,2,1,9,0,1,,,,,
,0.56,,,,,,,,,j,red,5d39f1b6b056910001951b9a,2021-09-27_12h57.30.937,forced_choiceRT_color,2021.2.3,Win32,60.08171113,,,,,,,,4,Ontime,long,j,1,1.9594,2,2,10,2,1,,,,,
,0.2,,,,,,,,,f,blue,5d39f1b6b056910001951b9a,2021-09-27_12h57.30.937,forced_choiceRT_color,2021.2.3,Win32,60.08171113,,,,,,,,4,Ontime,long,f,1,1.9883,2,3,11,1,1,,,,,
,0.44,,,,,,,,,f,blue,5d39f1b6b056910001951b9a,2021-09-27_12h57.30.937,forced_choiceRT_color,2021.2.3,Win32,60.08171113,,,,,,,,4,Ontime,long,f,1,1.9523,3,0,12,1,1,,,,,
,0.31,,,,,,,,,d,orange,5d39f1b6b056910001951b9a,2021-09-27_12h57.30.937,forced_choiceRT_color,2021.2.3,Win32,60.08171113,,,,,,,,4,Ontime,long,d,1,1.9014,3,1,13,0,1,,,,,
,0.9,,,,,,,,,f,blue,5d39f1b6b056910001951b9a,2021-09-27_12h57.30.937,forced_choiceRT_color,2021.2.3,Win32,60.08171113,,,,,,,,4,Ontime,long,f,1,1.9864,3,2,14,1,1,,,,,
,0.31,,,,,,,,,d,orange,5d39f1b6b056910001951b9a,2021-09-27_12h57.30.937,forced_choiceRT_color,2021.2.3,Win32,60.08171113,,,,,,,,4,Ontime,long,d,1,1.9672,3,3,15,0,1,,,,,
,0.19,,,,,,,,,k,purple,5d39f1b6b056910001951b9a,2021-09-27_12h57.30.937,forced_choiceRT_color,2021.2.3,Win32,60.08171113,,,,,,,,4,Ontime,long,k,1,1.9518,4,0,16,3,1,,,,,
,0.17,,,,,,,,,d,orange,5d39f1b6b056910001951b9a,2021-09-27_12h57.30.937,forced_choiceRT_color,2021.2.3,Win32,60.08171113,,,,,,,,4,Ontime,long,d,1,1.924,4,1,17,0,1,,,,,
,0.36,,,,,,,,,f,blue,5d39f1b6b056910001951b9a,2021-09-27_12h57.30.937,forced_choiceRT_color,2021.2.3,Win32,60.08171113,,,,,,,,4,Ontime,long,f,1,1.9859,4,2,18,1,1,,,,,
,1.22,,,,,,,,,f,blue,5d39f1b6b056910001951b9a,2021-09-27_12h57.30.937,forced_choiceRT_color,2021.2.3,Win32,60.08171113,,,,,,,,4,Ontime,long,f,1,1.9206,4,3,19,1,1,,,,,
,0.48,,,,,,,,,j,red,5d39f1b6b056910001951b9a,2021-09-27_12h57.30.937,forced_choiceRT_color,2021.2.3,Win32,60.08171113,,,,,,,,4,Ontime,long,j,1,1.9532,5,0,20,2,1,,,,,
,1.73,,,,,,,,,k,purple,5d39f1b6b056910001951b9a,2021-09-27_12h57.30.937,forced_choiceRT_color,2021.2.3,Win32,60.08171113,,,,,,,,4,Ontime,long,j,0,2.0272,5,1,21,3,1,,,,,
,1.36,,,,,,,,,f,blue,5d39f1b6b056910001951b9a,2021-09-27_12h57.30.937,forced_choiceRT_color,2021.2.3,Win32,60.08171113,,,,,,,,4,Ontime,long,f,1,1.9361,5,2,22,1,1,,,,,
,0.25,,,,,,,,,d,orange,5d39f1b6b056910001951b9a,2021-09-27_12h57.30.937,forced_choiceRT_color,2021.2.3,Win32,60.08171113,,,,,,,,4,Ontime,long,d,1,2.0067,5,3,23,0,1,,,,,
,1.79,,,,,,,,,k,purple,5d39f1b6b056910001951b9a,2021-09-27_12h57.30.937,forced_choiceRT_color,2021.2.3,Win32,60.08171113,,,,,,,,4,Ontime,long,k,1,2.0533,6,0,24,3,1,,,,,
,1.33,,,,,,,,,j,red,5d39f1b6b056910001951b9a,2021-09-27_12h57.30.937,forced_choiceRT_color,2021.2.3,Win32,60.08171113,,,,,,,,4,Ontime,long,j,1,1.9023,6,1,25,2,1,,,,,
,0.03,,,,,,,,,k,purple,5d39f1b6b056910001951b9a,2021-09-27_12h57.30.937,forced_choiceRT_color,2021.2.3,Win32,60.08171113,,,,,,,,4,Ontime,long,k,1,1.9861,6,2,26,3,1,,,,,
,1.92,,,,,,,,,d,orange,5d39f1b6b056910001951b9a,2021-09-27_12h57.30.937,forced_choiceRT_color,2021.2.3,Win32,60.08171113,,,,,,,,4,Ontime,long,d,1,1.9917,6,3,27,0,1,,,,,
,1.79,,,,,,,,,j,red,5d39f1b6b056910001951b9a,2021-09-27_12h57.30.937,forced_choiceRT_color,2021.2.3,Win32,60.08171113,,,,,,,,4,Ontime,long,f,0,2.0687,7,0,28,2,1,,,,,
,0.82,,,,,,,,,j,red,5d39f1b6b056910001951b9a,2021-09-27_12h57.30.937,forced_choiceRT_color,2021.2.3,Win32,60.08171113,,,,,,,,4,Ontime,long,j,1,1.9484,7,1,29,2,1,,,,,
,1.25,,,,,,,,,j,red,5d39f1b6b056910001951b9a,2021-09-27_12h57.30.937,forced_choiceRT_color,2021.2.3,Win32,60.08171113,,,,,,,,4,Ontime,long,j,1,1.9854,7,2,30,2,1,,,,,
,1.78,,,,,,,,,k,purple,5d39f1b6b056910001951b9a,2021-09-27_12h57.30.937,forced_choiceRT_color,2021.2.3,Win32,60.08171113,,,,,,,,4,Ontime,long,f,0,1.9854,7,3,31,3,1,,,,,
,0.96,,,,,,,,,j,red,5d39f1b6b056910001951b9a,2021-09-27_12h57.30.937,forced_choiceRT_color,2021.2.3,Win32,60.08171113,,,,,,,,4,Ontime,long,j,1,2.0186,8,0,32,2,1,,,,,
,0.15,,,,,,,,,k,purple,5d39f1b6b056910001951b9a,2021-09-27_12h57.30.937,forced_choiceRT_color,2021.2.3,Win32,60.08171113,,,,,,,,4,Ontime,long,k,1,1.9849,8,1,33,3,1,,,,,
,1.6,,,,,,,,,d,orange,5d39f1b6b056910001951b9a,2021-09-27_12h57.30.937,forced_choiceRT_color,2021.2.3,Win32,60.08171113,,,,,,,,4,Ontime,long,j,0,2.0726,8,2,34,0,1,,,,,
,0.09,,,,,,,,,j,red,5d39f1b6b056910001951b9a,2021-09-27_12h57.30.937,forced_choiceRT_color,2021.2.3,Win32,60.08171113,,,,,,,,4,Ontime,long,j,1,1.9861,8,3,35,2,1,,,,,
,1.17,,,,,,,,,f,blue,5d39f1b6b056910001951b9a,2021-09-27_12h57.30.937,forced_choiceRT_color,2021.2.3,Win32,60.08171113,,,,,,,,4,Ontime,long,f,1,2.0023,9,0,36,1,1,,,,,
,1.33,,,,,,,,,k,purple,5d39f1b6b056910001951b9a,2021-09-27_12h57.30.937,forced_choiceRT_color,2021.2.3,Win32,60.08171113,,,,,,,,4,Ontime,long,k,1,2.0361,9,1,37,3,1,,,,,
,0.05,,,,,,,,,f,blue,5d39f1b6b056910001951b9a,2021-09-27_12h57.30.937,forced_choiceRT_color,2021.2.3,Win32,60.08171113,,,,,,,,4,Ontime,long,f,1,2.0004,9,2,38,1,1,,,,,
,0.02,,,,,,,,,d,orange,5d39f1b6b056910001951b9a,2021-09-27_12h57.30.937,forced_choiceRT_color,2021.2.3,Win32,60.08171113,,,,,,,,4,Ontime,long,d,1,1.952,9,3,39,0,1,,,,,
,,,,,,,,,,,,5d39f1b6b056910001951b9a,2021-09-27_12h57.30.937,forced_choiceRT_color,2021.2.3,Win32,60.08171113,,,,,,,,,,,,,,,,,,,3,0,3,0,1
,0.13,,,,,,,,,j,red,5d39f1b6b056910001951b9a,2021-09-27_12h57.30.937,forced_choiceRT_color,2021.2.3,Win32,60.08171113,,,,,,,,5,Ontime,long,j,1,1.943,0,0,0,2,1,,,,,
,1.58,,,,,,,,,k,purple,5d39f1b6b056910001951b9a,2021-09-27_12h57.30.937,forced_choiceRT_color,2021.2.3,Win32,60.08171113,,,,,,,,5,Slow,long,k,1,2.1385,0,1,1,3,1,,,,,
,0.7,,,,,,,,,k,purple,5d39f1b6b056910001951b9a,2021-09-27_12h57.30.937,forced_choiceRT_color,2021.2.3,Win32,60.08171113,,,,,,,,5,Fast,long,k,1,1.885,0,2,2,3,1,,,,,
,0.91,,,,,,,,,j,red,5d39f1b6b056910001951b9a,2021-09-27_12h57.30.937,forced_choiceRT_color,2021.2.3,Win32,60.08171113,,,,,,,,5,Ontime,long,j,1,1.953,0,3,3,2,1,,,,,
,0.52,,,,,,,,,f,blue,5d39f1b6b056910001951b9a,2021-09-27_12h57.30.937,forced_choiceRT_color,2021.2.3,Win32,60.08171113,,,,,,,,5,Ontime,long,f,1,1.9861,1,0,4,1,1,,,,,
,0.22,,,,,,,,,j,red,5d39f1b6b056910001951b9a,2021-09-27_12h57.30.937,forced_choiceRT_color,2021.2.3,Win32,60.08171113,,,,,,,,5,Ontime,long,j,1,1.9713,1,1,5,2,1,,,,,
,0.62,,,,,,,,,j,red,5d39f1b6b056910001951b9a,2021-09-27_12h57.30.937,forced_choiceRT_color,2021.2.3,Win32,60.08171113,,,,,,,,5,Ontime,long,j,1,1.9675,1,2,6,2,1,,,,,
,0.7,,,,,,,,,d,orange,5d39f1b6b056910001951b9a,2021-09-27_12h57.30.937,forced_choiceRT_color,2021.2.3,Win32,60.08171113,,,,,,,,5,Ontime,long,d,1,1.9858,1,3,7,0,1,,,,,
,0.79,,,,,,,,,k,purple,5d39f1b6b056910001951b9a,2021-09-27_12h57.30.937,forced_choiceRT_color,2021.2.3,Win32,60.08171113,,,,,,,,5,Ontime,long,k,1,1.9091,2,0,8,3,1,,,,,
,0.31,,,,,,,,,j,red,5d39f1b6b056910001951b9a,2021-09-27_12h57.30.937,forced_choiceRT_color,2021.2.3,Win32,60.08171113,,,,,,,,5,Ontime,long,j,1,1.9695,2,1,9,2,1,,,,,
,0.78,,,,,,,,,j,red,5d39f1b6b056910001951b9a,2021-09-27_12h57.30.937,forced_choiceRT_color,2021.2.3,Win32,60.08171113,,,,,,,,5,Ontime,long,j,1,1.936,2,2,10,2,1,,,,,
,1.71,,,,,,,,,k,purple,5d39f1b6b056910001951b9a,2021-09-27_12h57.30.937,forced_choiceRT_color,2021.2.3,Win32,60.08171113,,,,,,,,5,Slow,long,k,1,2.1365,2,3,11,3,1,,,,,
,0.79,,,,,,,,,d,orange,5d39f1b6b056910001951b9a,2021-09-27_12h57.30.937,forced_choiceRT_color,2021.2.3,Win32,60.08171113,,,,,,,,5,Ontime,long,d,1,1.9523,3,0,12,0,1,,,,,
,1.24,,,,,,,,,f,blue,5d39f1b6b056910001951b9a,2021-09-27_12h57.30.937,forced_choiceRT_color,2021.2.3,Win32,60.08171113,,,,,,,,5,Ontime,long,d,0,1.9358,3,1,13,1,1,,,,,
,0.79,,,,,,,,,f,blue,5d39f1b6b056910001951b9a,2021-09-27_12h57.30.937,forced_choiceRT_color,2021.2.3,Win32,60.08171113,,,,,,,,5,Ontime,long,f,1,2.0184,3,2,14,1,1,,,,,
,1.04,,,,,,,,,f,blue,5d39f1b6b056910001951b9a,2021-09-27_12h57.30.937,forced_choiceRT_color,2021.2.3,Win32,60.08171113,,,,,,,,5,Ontime,long,f,1,1.9693,3,3,15,1,1,,,,,
,1.86,,,,,,,,,f,blue,5d39f1b6b056910001951b9a,2021-09-27_12h57.30.937,forced_choiceRT_color,2021.2.3,Win32,60.08171113,,,,,,,,5,Ontime,long,k,0,2.0688,4,0,16,1,1,,,,,
,0.82,,,,,,,,,d,orange,5d39f1b6b056910001951b9a,2021-09-27_12h57.30.937,forced_choiceRT_color,2021.2.3,Win32,60.08171113,,,,,,,,5,Ontime,long,d,1,2.002,4,1,17,0,1,,,,,
,1.05,,,,,,,,,d,orange,5d39f1b6b056910001951b9a,2021-09-27_12h57.30.937,forced_choiceRT_color,2021.2.3,Win32,60.08171113,,,,,,,,5,Ontime,long,d,1,1.9728,4,2,18,0,1,,,,,
,0.49,,,,,,,,,f,blue,5d39f1b6b056910001951b9a,2021-09-27_12h57.30.937,forced_choiceRT_color,2021.2.3,Win32,60.08171113,,,,,,,,5,Ontime,long,f,1,2.0044,4,3,19,1,1,,,,,
,1.14,,,,,,,,,j,red,5d39f1b6b056910001951b9a,2021-09-27_12h57.30.937,forced_choiceRT_color,2021.2.3,Win32,60.08171113,,,,,,,,5,Ontime,long,j,1,2.0692,5,0,20,2,1,,,,,
,1.18,,,,,,,,,j,red,5d39f1b6b056910001951b9a,2021-09-27_12h57.30.937,forced_choiceRT_color,2021.2.3,Win32,60.08171113,,,,,,,,5,Ontime,long,j,1,2.0724,5,1,21,2,1,,,,,
,0.21,,,,,,,,,d,orange,5d39f1b6b056910001951b9a,2021-09-27_12h57.30.937,forced_choiceRT_color,2021.2.3,Win32,60.08171113,,,,,,,,5,Ontime,long,d,1,1.9045,5,2,22,0,1,,,,,
,1.92,,,,,,,,,k,purple,5d39f1b6b056910001951b9a,2021-09-27_12h57.30.937,forced_choiceRT_color,2021.2.3,Win32,60.08171113,,,,,,,,5,Ontime,long,j,0,2.0027,5,3,23,3,1,,,,,
,0.37,,,,,,,,,f,blue,5d39f1b6b056910001951b9a,2021-09-27_12h57.30.937,forced_choiceRT_color,2021.2.3,Win32,60.08171113,,,,,,,,5,Ontime,long,f,1,1.9646,6,0,24,1,1,,,,,
,0.35,,,,,,,,,f,blue,5d39f1b6b056910001951b9a,2021-09-27_12h57.30.937,forced_choiceRT_color,2021.2.3,Win32,60.08171113,,,,,,,,5,Ontime,long,f,1,1.953,6,1,25,1,1,,,,,
,1.04,,,,,,,,,k,purple,5d39f1b6b056910001951b9a,2021-09-27_12h57.30.937,forced_choiceRT_color,2021.2.3,Win32,60.08171113,,,,,,,,5,Ontime,long,k,1,2.0527,6,2,26,3,1,,,,,
,0.01,,,,,,,,,f,blue,5d39f1b6b056910001951b9a,2021-09-27_12h57.30.937,forced_choiceRT_color,2021.2.3,Win32,60.08171113,,,,,,,,5,Ontime,long,f,1,1.9861,6,3,27,1,1,,,,,
,0.84,,,,,,,,,d,orange,5d39f1b6b056910001951b9a,2021-09-27_12h57.30.937,forced_choiceRT_color,2021.2.3,Win32,60.08171113,,,,,,,,5,Ontime,long,d,1,1.9682,7,0,28,0,1,,,,,
,0.04,,,,,,,,,d,orange,5d39f1b6b056910001951b9a,2021-09-27_12h57.30.937,forced_choiceRT_color,2021.2.3,Win32,60.08171113,,,,,,,,5,Ontime,long,d,1,1.9526,7,1,29,0,1,,,,,
,0.35,,,,,,,,,k,purple,5d39f1b6b056910001951b9a,2021-09-27_12h57.30.937,forced_choiceRT_color,2021.2.3,Win32,60.08171113,,,,,,,,5,Ontime,long,k,1,1.9525,7,2,30,3,1,,,,,
,0.41,,,,,,,,,k,purple,5d39f1b6b056910001951b9a,2021-09-27_12h57.30.937,forced_choiceRT_color,2021.2.3,Win32,60.08171113,,,,,,,,5,Ontime,long,k,1,1.9553,7,3,31,3,1,,,,,
,1.33,,,,,,,,,d,orange,5d39f1b6b056910001951b9a,2021-09-27_12h57.30.937,forced_choiceRT_color,2021.2.3,Win32,60.08171113,,,,,,,,5,Ontime,long,d,1,2.0206,8,0,32,0,1,,,,,
,0.29,,,,,,,,,f,blue,5d39f1b6b056910001951b9a,2021-09-27_12h57.30.937,forced_choiceRT_color,2021.2.3,Win32,60.08171113,,,,,,,,5,Ontime,long,f,1,1.9841,8,1,33,1,1,,,,,
,0.04,,,,,,,,,j,red,5d39f1b6b056910001951b9a,2021-09-27_12h57.30.937,forced_choiceRT_color,2021.2.3,Win32,60.08171113,,,,,,,,5,Ontime,long,j,1,2.0025,8,2,34,2,1,,,,,
,1.35,,,,,,,,,d,orange,5d39f1b6b056910001951b9a,2021-09-27_12h57.30.937,forced_choiceRT_color,2021.2.3,Win32,60.08171113,,,,,,,,5,Ontime,long,d,1,2.0015,8,3,35,0,1,,,,,
,0.5,,,,,,,,,d,orange,5d39f1b6b056910001951b9a,2021-09-27_12h57.30.937,forced_choiceRT_color,2021.2.3,Win32,60.08171113,,,,,,,,5,Fast,long,d,1,1.8865,9,0,36,0,1,,,,,
,0.21,,,,,,,,,j,red,5d39f1b6b056910001951b9a,2021-09-27_12h57.30.937,forced_choiceRT_color,2021.2.3,Win32,60.08171113,,,,,,,,5,Ontime,long,j,1,1.9674,9,1,37,2,1,,,,,
,1.31,,,,,,,,,k,purple,5d39f1b6b056910001951b9a,2021-09-27_12h57.30.937,forced_choiceRT_color,2021.2.3,Win32,60.08171113,,,,,,,,5,Ontime,long,k,1,1.9188,9,2,38,3,1,,,,,
,0.26,,,,,,,,,k,purple,5d39f1b6b056910001951b9a,2021-09-27_12h57.30.937,forced_choiceRT_color,2021.2.3,Win32,60.08171113,,,,,,,,5,Ontime,long,k,1,1.9263,9,3,39,3,1,,,,,
,,,,,,,,,,,,5d39f1b6b056910001951b9a,2021-09-27_12h57.30.937,forced_choiceRT_color,2021.2.3,Win32,60.08171113,,,,,,,,,,,,,,,,,,,4,0,4,0,1
,0.64,,,,,,,,,j,red,5d39f1b6b056910001951b9a,2021-09-27_12h57.30.937,forced_choiceRT_color,2021.2.3,Win32,60.08171113,,,,,,,,6,Ontime,long,j,1,1.9188,0,0,0,2,1,,,,,
,1.35,,,,,,,,,f,blue,5d39f1b6b056910001951b9a,2021-09-27_12h57.30.937,forced_choiceRT_color,2021.2.3,Win32,60.08171113,,,,,,,,6,Ontime,long,f,1,1.956,0,1,1,1,1,,,,,
,0.06,,,,,,,,,k,purple,5d39f1b6b056910001951b9a,2021-09-27_12h57.30.937,forced_choiceRT_color,2021.2.3,Win32,60.08171113,,,,,,,,6,Fast,long,k,1,1.6521,0,2,2,3,1,,,,,
,0.26,,,,,,,,,f,blue,5d39f1b6b056910001951b9a,2021-09-27_12h57.30.937,forced_choiceRT_color,2021.2.3,Win32,60.08171113,,,,,,,,6,Ontime,long,f,1,1.9106,0,3,3,1,1,,,,,
,1.69,,,,,,,,,d,orange,5d39f1b6b056910001951b9a,2021-09-27_12h57.30.937,forced_choiceRT_color,2021.2.3,Win32,60.08171113,,,,,,,,6,Ontime,long,d,1,2.0698,1,0,4,0,1,,,,,
,1.68,,,,,,,,,f,blue,5d39f1b6b056910001951b9a,2021-09-27_12h57.30.937,forced_choiceRT_color,2021.2.3,Win32,60.08171113,,,,,,,,6,Ontime,long,k,0,2.0354,1,1,5,1,1,,,,,
,0.67,,,,,,,,,k,purple,5d39f1b6b056910001951b9a,2021-09-27_12h57.30.937,forced_choiceRT_color,2021.2.3,Win32,60.08171113,,,,,,,,6,Ontime,long,k,1,2.0029,1,2,6,3,1,,,,,
,1.74,,,,,,,,,j,red,5d39f1b6b056910001951b9a,2021-09-27_12h57.30.937,forced_choiceRT_color,2021.2.3,Win32,60.08171113,,,,,,,,6,Ontime,long,f,0,2.0039,1,3,7,2,1,,,,,
,1.13,,,,,,,,,k,purple,5d39f1b6b056910001951b9a,2021-09-27_12h57.30.937,forced_choiceRT_color,2021.2.3,Win32,60.08171113,,,,,,,,6,Ontime,long,k,1,2.0356,2,0,8,3,1,,,,,
,0.28,,,,,,,,,j,red,5d39f1b6b056910001951b9a,2021-09-27_12h57.30.937,forced_choiceRT_color,2021.2.3,Win32,60.08171113,,,,,,,,6,Ontime,long,j,1,1.9603,2,1,9,2,1,,,,,
,1.59,,,,,,,,,d,orange,5d39f1b6b056910001951b9a,2021-09-27_12h57.30.937,forced_choiceRT_color,2021.2.3,Win32,60.08171113,,,,,,,,6,Ontime,long,d,1,2.0363,2,2,10,0,1,,,,,
,1.11,,,,,,,,,d,orange,5d39f1b6b056910001951b9a,2021-09-27_12h57.30.937,forced_choiceRT_color,2021.2.3,Win32,60.08171113,,,,,,,,6,Ontime,long,d,1,2.0335,2,3,11,0,1,,,,,
,1.85,,,,,,,,,j,red,5d39f1b6b056910001951b9a,2021-09-27_12h57.30.937,forced_choiceRT_color,2021.2.3,Win32,60.08171113,,,,,,,,6,Ontime,long,f,0,2.0521,3,0,12,2,1,,,,,
,0.81,,,,,,,,,j,red,5d39f1b6b056910001951b9a,2021-09-27_12h57.30.937,forced_choiceRT_color,2021.2.3,Win32,60.08171113,,,,,,,,6,Ontime,long,j,1,1.9578,3,1,13,2,1,,,,,
,0.13,,,,,,,,,f,blue,5d39f1b6b056910001951b9a,2021-09-27_12h57.30.937,forced_choiceRT_color,2021.2.3,Win32,60.08171113,,,,,,,,6,Ontime,long,f,1,1.9547,3,2,14,1,1,,,,,
,1.49,,,,,,,,,k,purple,5d39f1b6b056910001951b9a,2021-09-27_12h57.30.937,forced_choiceRT_color,2021.2.3,Win32,60.08171113,,,,,,,,6,Ontime,long,k,1,2.0373,3,3,15,3,1,,,,,
,0.4,,,,,,,,,d,orange,5d39f1b6b056910001951b9a,2021-09-27_12h57.30.937,forced_choiceRT_color,2021.2.3,Win32,60.08171113,,,,,,,,6,Ontime,long,d,1,2.0032,4,0,16,0,1,,,,,
,0.78,,,,,,,,,j,red,5d39f1b6b056910001951b9a,2021-09-27_12h57.30.937,forced_choiceRT_color,2021.2.3,Win32,60.08171113,,,,,,,,6,Ontime,long,j,1,1.9408,4,1,17,2,1,,,,,
,0.06,,,,,,,,,j,red,5d39f1b6b056910001951b9a,2021-09-27_12h57.30.937,forced_choiceRT_color,2021.2.3,Win32,60.08171113,,,,,,,,6,Ontime,long,j,1,1.9712,4,2,18,2,1,,,,,
,1.7,,,,,,,,,d,orange,5d39f1b6b056910001951b9a,2021-09-27_12h57.30.937,forced_choiceRT_color,2021.2.3,Win32,60.08171113,,,,,,,,6,Ontime,long,d,1,2.0971,4,3,19,0,1,,,,,
,0.63,,,,,,,,,k,purple,5d39f1b6b056910001951b9a,2021-09-27_12h57.30.937,forced_choiceRT_color,2021.2.3,Win32,60.08171113,,,,,,,,6,Ontime,long,k,1,2.0246,5,0,20,3,1,,,,,
,0.03,,,,,,,,,f,blue,5d39f1b6b056910001951b9a,2021-09-27_12h57.30.937,forced_choiceRT_color,2021.2.3,Win32,60.08171113,,,,,,,,6,Ontime,long,f,1,1.9063,5,1,21,1,1,,,,,
,1.42,,,,,,,,,d,orange,5d39f1b6b056910001951b9a,2021-09-27_12h57.30.937,forced_choiceRT_color,2021.2.3,Win32,60.08171113,,,,,,,,6,Ontime,long,d,1,1.9864,5,2,22,0,1,,,,,
,1.41,,,,,,,,,d,orange,5d39f1b6b056910001951b9a,2021-09-27_12h57.30.937,forced_choiceRT_color,2021.2.3,Win32,60.08171113,,,,,,,,6,Ontime,long,d,1,1.9365,5,3,23,0,1,,,,,
,1.01,,,,,,,,,f,blue,5d39f1b6b056910001951b9a,2021-09-27_12h57.30.937,forced_choiceRT_color,2021.2.3,Win32,60.08171113,,,,,,,,6,Ontime,long,f,1,2.0355,6,0,24,1,1,,,,,
,1.89,,,,,,,,,f,blue,5d39f1b6b056910001951b9a,2021-09-27_12h57.30.937,forced_choiceRT_color,2021.2.3,Win32,60.08171113,,,,,,,,6,Slow,long,k,0,2.1363,6,1,25,1,1,,,,,
,1.46,,,,,,,,,f,blue,5d39f1b6b056910001951b9a,2021-09-27_12h57.30.937,forced_choiceRT_color,2021.2.3,Win32,60.08171113,,,,,,,,6,Ontime,long,f,1,1.9523,6,2,26,1,1,,,,,
,0.15,,,,,,,,,j,red,5d39f1b6b056910001951b9a,2021-09-27_12h57.30.937,forced_choiceRT_color,2021.2.3,Win32,60.08171113,,,,,,,,6,Ontime,long,j,1,1.9818,6,3,27,2,1,,,,,
,1.04,,,,,,,,,f,blue,5d39f1b6b056910001951b9a,2021-09-27_12h57.30.937,forced_choiceRT_color,2021.2.3,Win32,60.08171113,,,,,,,,6,Ontime,long,f,1,2.0186,7,0,28,1,1,,,,,
,1.19,,,,,,,,,d,orange,5d39f1b6b056910001951b9a,2021-09-27_12h57.30.937,forced_choiceRT_color,2021.2.3,Win32,60.08171113,,,,,,,,6,Ontime,long,d,1,2.0355,7,1,29,0,1,,,,,
,1.36,,,,,,,,,k,purple,5d39f1b6b056910001951b9a,2021-09-27_12h57.30.937,forced_choiceRT_color,2021.2.3,Win32,60.08171113,,,,,,,,6,Ontime,long,k,1,1.9519,7,2,30,3,1,,,,,
,1.47,,,,,,,,,j,red,5d39f1b6b056910001951b9a,2021-09-27_12h57.30.937,forced_choiceRT_color,2021.2.3,Win32,60.08171113,,,,,,,,6,Ontime,long,j,1,2.0031,7,3,31,2,1,,,,,
,1.54,,,,,,,,,k,purple,5d39f1b6b056910001951b9a,2021-09-27_12h57.30.937,forced_choiceRT_color,2021.2.3,Win32,60.08171113,,,,,,,,6,Ontime,long,k,1,2.0188,8,0,32,3,1,,,,,
,0.3,,,,,,,,,k,purple,5d39f1b6b056910001951b9a,2021-09-27_12h57.30.937,forced_choiceRT_color,2021.2.3,Win32,60.08171113,,,,,,,,6,Ontime,long,k,1,2.0025,8,1,33,3,1,,,,,
,0.8,,,,,,,,,d,orange,5d39f1b6b056910001951b9a,2021-09-27_12h57.30.937,forced_choiceRT_color,2021.2.3,Win32,60.08171113,,,,,,,,6,Ontime,long,d,1,1.9751,8,2,34,0,1,,,,,
,0.08,,,,,,,,,d,orange,5d39f1b6b056910001951b9a,2021-09-27_12h57.30.937,forced_choiceRT_color,2021.2.3,Win32,60.08171113,,,,,,,,6,Ontime,long,d,1,2.0192,8,3,35,0,1,,,,,
,1.52,,,,,,,,,f,blue,5d39f1b6b056910001951b9a,2021-09-27_12h57.30.937,forced_choiceRT_color,2021.2.3,Win32,60.08171113,,,,,,,,6,Ontime,long,f,1,2.0508,9,0,36,1,1,,,,,
,1.67,,,,,,,,,j,red,5d39f1b6b056910001951b9a,2021-09-27_12h57.30.937,forced_choiceRT_color,2021.2.3,Win32,60.08171113,,,,,,,,6,Ontime,long,k,0,1.9355,9,1,37,2,1,,,,,
,1.16,,,,,,,,,k,purple,5d39f1b6b056910001951b9a,2021-09-27_12h57.30.937,forced_choiceRT_color,2021.2.3,Win32,60.08171113,,,,,,,,6,Ontime,long,k,1,2.0191,9,2,38,3,1,,,,,
,0.42,,,,,,,,,k,purple,5d39f1b6b056910001951b9a,2021-09-27_12h57.30.937,forced_choiceRT_color,2021.2.3,Win32,60.08171113,,,,,,,,6,Ontime,long,k,1,2.036,9,3,39,3,1,,,,,
,,,,,,,,,,,,5d39f1b6b056910001951b9a,2021-09-27_12h57.30.937,forced_choiceRT_color,2021.2.3,Win32,60.08171113,,,,,,,,,,,,,,,,,,,5,0,5,0,1
,0.91,,,,,,,,,d,orange,5d39f1b6b056910001951b9a,2021-09-27_12h57.30.937,forced_choiceRT_color,2021.2.3,Win32,60.08171113,,,,,,,,7,Ontime,long,d,1,2.0184,0,0,0,0,1,,,,,
,1.21,,,,,,,,,j,red,5d39f1b6b056910001951b9a,2021-09-27_12h57.30.937,forced_choiceRT_color,2021.2.3,Win32,60.08171113,,,,,,,,7,Ontime,long,j,1,1.9582,0,1,1,2,1,,,,,
,0.31,,,,,,,,,f,blue,5d39f1b6b056910001951b9a,2021-09-27_12h57.30.937,forced_choiceRT_color,2021.2.3,Win32,60.08171113,,,,,,,,7,Ontime,long,d,0,1.9528,0,2,2,1,1,,,,,
,1.79,,,,,,,,,k,purple,5d39f1b6b056910001951b9a,2021-09-27_12h57.30.937,forced_choiceRT_color,2021.2.3,Win32,60.08171113,,,,,,,,7,Ontime,long,f,0,1.9858,0,3,3,3,1,,,,,
,0.94,,,,,,,,,j,red,5d39f1b6b056910001951b9a,2021-09-27_12h57.30.937,forced_choiceRT_color,2021.2.3,Win32,60.08171113,,,,,,,,7,Ontime,long,j,1,2.0026,1,0,4,2,1,,,,,
,1.38,,,,,,,,,f,blue,5d39f1b6b056910001951b9a,2021-09-27_12h57.30.937,forced_choiceRT_color,2021.2.3,Win32,60.08171113,,,,,,,,7,Slow,long,k,0,2.1213,1,1,5,1,1,,,,,
,1.12,,,,,,,,,k,purple,5d39f1b6b056910001951b9a,2021-09-27_12h57.30.937,forced_choiceRT_color,2021.2.3,Win32,60.08171113,,,,,,,,7,Ontime,long,k,1,2.0034,1,2,6,3,1,,,,,
,0.69,,,,,,,,,k,purple,5d39f1b6b056910001951b9a,2021-09-27_12h57.30.937,forced_choiceRT_color,2021.2.3,Win32,60.08171113,,,,,,,,7,Ontime,long,k,1,2.0024,1,3,7,3,1,,,,,
,1.75,,,,,,,,,f,blue,5d39f1b6b056910001951b9a,2021-09-27_12h57.30.937,forced_choiceRT_color,2021.2.3,Win32,60.08171113,,,,,,,,7,Ontime,long,j,0,1.9185,2,0,8,1,1,,,,,
,1.74,,,,,,,,,d,orange,5d39f1b6b056910001951b9a,2021-09-27_12h57.30.937,forced_choiceRT_color,2021.2.3,Win32,60.08171113,,,,,,,,7,Ontime,long,f,0,1.9208,2,1,9,0,1,,,,,
,1.95,,,,,,,,,j,red,5d39f1b6b056910001951b9a,2021-09-27_12h57.30.937,forced_choiceRT_color,2021.2.3,Win32,60.08171113,,,,,,,,7,Ontime,long,d,0,1.9204,2,2,10,2,1,,,,,
,0.42,,,,,,,,,j,red,5d39f1b6b056910001951b9a,2021-09-27_12h57.30.937,forced_choiceRT_color,2021.2.3,Win32,60.08171113,,,,,,,,7,Ontime,long,j,1,1.9366,2,3,11,2,1,,,,,
,1.96,,,,,,,,,j,red,5d39f1b6b056910001951b9a,2021-09-27_12h57.30.937,forced_choiceRT_color,2021.2.3,Win32,60.08171113,,,,,,,,7,Ontime,long,k,0,1.9362,3,0,12,2,1,,,,,
,0.64,,,,,,,,,f,blue,5d39f1b6b056910001951b9a,2021-09-27_12h57.30.937,forced_choiceRT_color,2021.2.3,Win32,60.08171113,,,,,,,,7,Ontime,long,f,1,1.9351,3,1,13,1,1,,,,,
,1.28,,,,,,,,,k,purple,5d39f1b6b056910001951b9a,2021-09-27_12h57.30.937,forced_choiceRT_color,2021.2.3,Win32,60.08171113,,,,,,,,7,Fast,long,j,0,1.8853,3,2,14,3,1,,,,,
,1.84,,,,,,,,,d,orange,5d39f1b6b056910001951b9a,2021-09-27_12h57.30.937,forced_choiceRT_color,2021.2.3,Win32,60.08171113,,,,,,,,7,Ontime,long,k,0,1.9356,3,3,15,0,1,,,,,
,1.42,,,,,,,,,d,orange,5d39f1b6b056910001951b9a,2021-09-27_12h57.30.937,forced_choiceRT_color,2021.2.3,Win32,60.08171113,,,,,,,,7,Ontime,long,d,1,1.9355,4,0,16,0,1,,,,,
,0.22,,,,,,,,,k,purple,5d39f1b6b056910001951b9a,2021-09-27_12h57.30.937,forced_choiceRT_color,2021.2.3,Win32,60.08171113,,,,,,,,7,Ontime,long,k,1,1.9552,4,1,17,3,1,,,,,
,1.52,,,,,,,,,d,orange,5d39f1b6b056910001951b9a,2021-09-27_12h57.30.937,forced_choiceRT_color,2021.2.3,Win32,60.08171113,,,,,,,,7,Ontime,long,d,1,2.0017,4,2,18,0,1,,,,,
,1.1,,,,,,,,,k,purple,5d39f1b6b056910001951b9a,2021-09-27_12h57.30.937,forced_choiceRT_color,2021.2.3,Win32,60.08171113,,,,,,,,7,Ontime,long,k,1,2.0194,4,3,19,3,1,,,,,
,1.91,,,,,,,,,j,red,5d39f1b6b056910001951b9a,2021-09-27_12h57.30.937,forced_choiceRT_color,2021.2.3,Win32,60.08171113,,,,,,,,7,Ontime,long,j,1,1.9406,5,0,20,2,1,,,,,
,1.23,,,,,,,,,k,purple,5d39f1b6b056910001951b9a,2021-09-27_12h57.30.937,forced_choiceRT_color,2021.2.3,Win32,60.08171113,,,,,,,,7,Ontime,long,k,1,2.0523,5,1,21,3,1,,,,,
,0.59,,,,,,,,,f,blue,5d39f1b6b056910001951b9a,2021-09-27_12h57.30.937,forced_choiceRT_color,2021.2.3,Win32,60.08171113,,,,,,,,7,Ontime,long,f,1,2.0024,5,2,22,1,1,,,,,
,0.73,,,,,,,,,j,red,5d39f1b6b056910001951b9a,2021-09-27_12h57.30.937,forced_choiceRT_color,2021.2.3,Win32,60.08171113,,,,,,,,7,Ontime,long,j,1,2.0362,5,3,23,2,1,,,,,
,1.18,,,,,,,,,f,blue,5d39f1b6b056910001951b9a,2021-09-27_12h57.30.937,forced_choiceRT_color,2021.2.3,Win32,60.08171113,,,,,,,,7,Ontime,long,f,1,1.9834,6,0,24,1,1,,,,,
,0.6,,,,,,,,,f,blue,5d39f1b6b056910001951b9a,2021-09-27_12h57.30.937,forced_choiceRT_color,2021.2.3,Win32,60.08171113,,,,,,,,7,Ontime,long,f,1,1.9529,6,1,25,1,1,,,,,
,1.02,,,,,,,,,d,orange,5d39f1b6b056910001951b9a,2021-09-27_12h57.30.937,forced_choiceRT_color,2021.2.3,Win32,60.08171113,,,,,,,,7,Ontime,long,d,1,2.0113,6,2,26,0,1,,,,,
,0.82,,,,,,,,,k,purple,5d39f1b6b056910001951b9a,2021-09-27_12h57.30.937,forced_choiceRT_color,2021.2.3,Win32,60.08171113,,,,,,,,7,Ontime,long,k,1,1.9847,6,3,27,3,1,,,,,
,1.73,,,,,,,,,d,orange,5d39f1b6b056910001951b9a,2021-09-27_12h57.30.937,forced_choiceRT_color,2021.2.3,Win32,60.08171113,,,,,,,,7,Ontime,long,j,0,1.9397,7,0,28,0,1,,,,,
,1.81,,,,,,,,,j,red,5d39f1b6b056910001951b9a,2021-09-27_12h57.30.937,forced_choiceRT_color,2021.2.3,Win32,60.08171113,,,,,,,,7,Slow,long,d,0,2.1199,7,1,29,2,1,,,,,
,0.43,,,,,,,,,j,red,5d39f1b6b056910001951b9a,2021-09-27_12h57.30.937,forced_choiceRT_color,2021.2.3,Win32,60.08171113,,,,,,,,7,Ontime,long,j,1,1.9084,7,2,30,2,1,,,,,
,0.85,,,,,,,,,d,orange,5d39f1b6b056910001951b9a,2021-09-27_12h57.30.937,forced_choiceRT_color,2021.2.3,Win32,60.08171113,,,,,,,,7,Ontime,long,d,1,1.9731,7,3,31,0,1,,,,,
,0.49,,,,,,,,,k,purple,5d39f1b6b056910001951b9a,2021-09-27_12h57.30.937,forced_choiceRT_color,2021.2.3,Win32,60.08171113,,,,,,,,7,Ontime,long,k,1,1.906,8,0,32,3,1,,,,,
,0.69,,,,,,,,,f,blue,5d39f1b6b056910001951b9a,2021-09-27_12h57.30.937,forced_choiceRT_color,2021.2.3,Win32,60.08171113,,,,,,,,7,Ontime,long,f,1,1.9862,8,1,33,1,1,,,,,
,0.71,,,,,,,,,d,orange,5d39f1b6b056910001951b9a,2021-09-27_12h57.30.937,forced_choiceRT_color,2021.2.3,Win32,60.08171113,,,,,,,,7,Ontime,long,d,1,1.9696,8,2,34,0,1,,,,,
,0.24,,,,,,,,,f,blue,5d39f1b6b056910001951b9a,2021-09-27_12h57.30.937,forced_choiceRT_color,2021.2.3,Win32,60.08171113,,,,,,,,7,Ontime,long,f,1,1.9865,8,3,35,1,1,,,,,
,0.43,,,,,,,,,k,purple,5d39f1b6b056910001951b9a,2021-09-27_12h57.30.937,forced_choiceRT_color,2021.2.3,Win32,60.08171113,,,,,,,,7,Fast,long,k,1,1.8858,9,0,36,3,1,,,,,
,1.1,,,,,,,,,d,orange,5d39f1b6b056910001951b9a,2021-09-27_12h57.30.937,forced_choiceRT_color,2021.2.3,Win32,60.08171113,,,,,,,,7,Ontime,long,d,1,2.0856,9,1,37,0,1,,,,,
,1.83,,,,,,,,,f,blue,5d39f1b6b056910001951b9a,2021-09-27_12h57.30.937,forced_choiceRT_color,2021.2.3,Win32,60.08171113,,,,,,,,7,Fast,long,k,0,1.8523,9,2,38,1,1,,,,,
,0.34,,,,,,,,,j,red,5d39f1b6b056910001951b9a,2021-09-27_12h57.30.937,forced_choiceRT_color,2021.2.3,Win32,60.08171113,,,,,,,,7,Ontime,long,j,1,2.0058,9,3,39,2,1,,,,,
,,,,,,,,,,,,5d39f1b6b056910001951b9a,2021-09-27_12h57.30.937,forced_choiceRT_color,2021.2.3,Win32,60.08171113,,,,,,,,,,,,,,,,,,,6,0,6,0,1
,1.59,,,,,,,,,j,red,5d39f1b6b056910001951b9a,2021-09-27_12h57.30.937,forced_choiceRT_color,2021.2.3,Win32,60.08171113,,,,,,,,8,Ontime,long,k,0,1.91,0,0,0,2,1,,,,,
,1.61,,,,,,,,,f,blue,5d39f1b6b056910001951b9a,2021-09-27_12h57.30.937,forced_choiceRT_color,2021.2.3,Win32,60.08171113,,,,,,,,8,Ontime,long,j,0,1.9862,0,1,1,1,1,,,,,
,0.39,,,,,,,,,k,purple,5d39f1b6b056910001951b9a,2021-09-27_12h57.30.937,forced_choiceRT_color,2021.2.3,Win32,60.08171113,,,,,,,,8,Ontime,long,k,1,1.9332,0,2,2,3,1,,,,,
,0.16,,,,,,,,,k,purple,5d39f1b6b056910001951b9a,2021-09-27_12h57.30.937,forced_choiceRT_color,2021.2.3,Win32,60.08171113,,,,,,,,8,Ontime,long,k,1,1.9194,0,3,3,3,1,,,,,
,0.99,,,,,,,,,k,purple,5d39f1b6b056910001951b9a,2021-09-27_12h57.30.937,forced_choiceRT_color,2021.2.3,Win32,60.08171113,,,,,,,,8,Ontime,long,k,1,1.9146,1,0,4,3,1,,,,,
,0.71,,,,,,,,,k,purple,5d39f1b6b056910001951b9a,2021-09-27_12h57.30.937,forced_choiceRT_color,2021.2.3,Win32,60.08171113,,,,,,,,8,Ontime,long,k,1,1.9016,1,1,5,3,1,,,,,
,1.28,,,,,,,,,d,orange,5d39f1b6b056910001951b9a,2021-09-27_12h57.30.937,forced_choiceRT_color,2021.2.3,Win32,60.08171113,,,,,,,,8,Ontime,long,d,1,1.9607,1,2,6,0,1,,,,,
,1.14,,,,,,,,,d,orange,5d39f1b6b056910001951b9a,2021-09-27_12h57.30.937,forced_choiceRT_color,2021.2.3,Win32,60.08171113,,,,,,,,8,Ontime,long,d,1,2.0376,1,3,7,0,1,,,,,
,1.36,,,,,,,,,d,orange,5d39f1b6b056910001951b9a,2021-09-27_12h57.30.937,forced_choiceRT_color,2021.2.3,Win32,60.08171113,,,,,,,,8,Ontime,long,d,1,1.9206,2,0,8,0,1,,,,,
,0.06,,,,,,,,,d,orange,5d39f1b6b056910001951b9a,2021-09-27_12h57.30.937,forced_choiceRT_color,2021.2.3,Win32,60.08171113,,,,,,,,8,Ontime,long,d,1,1.9847,2,1,9,0,1,,,,,
,0.53,,,,,,,,,d,orange,5d39f1b6b056910001951b9a,2021-09-27_12h57.30.937,forced_choiceRT_color,2021.2.3,Win32,60.08171113,,,,,,,,8,Ontime,long,d,1,1.9466,2,2,10,0,1,,,,,
,0.8,,,,,,,,,d,orange,5d39f1b6b056910001951b9a,2021-09-27_12h57.30.937,forced_choiceRT_color,2021.2.3,Win32,60.08171113,,,,,,,,8,Ontime,long,d,1,1.969,2,3,11,0,1,,,,,
,1.54,,,,,,,,,k,purple,5d39f1b6b056910001951b9a,2021-09-27_12h57.30.937,forced_choiceRT_color,2021.2.3,Win32,60.08171113,,,,,,,,8,Ontime,long,k,1,2.0378,3,0,12,3,1,,,,,
,1.12,,,,,,,,,k,purple,5d39f1b6b056910001951b9a,2021-09-27_12h57.30.937,forced_choiceRT_color,2021.2.3,Win32,60.08171113,,,,,,,,8,Ontime,long,k,1,1.9687,3,1,13,3,1,,,,,
,1.12,,,,,,,,,k,purple,5d39f1b6b056910001951b9a,2021-09-27_12h57.30.937,forced_choiceRT_color,2021.2.3,Win32,60.08171113,,,,,,,,8,Ontime,long,k,1,1.9645,3,2,14,3,1,,,,,
,1.23,,,,,,,,,j,red,5d39f1b6b056910001951b9a,2021-09-27_12h57.30.937,forced_choiceRT_color,2021.2.3,Win32,60.08171113,,,,,,,,8,Ontime,long,j,1,1.934,3,3,15,2,1,,,,,
,0.14,,,,,,,,,k,purple,5d39f1b6b056910001951b9a,2021-09-27_12h57.30.937,forced_choiceRT_color,2021.2.3,Win32,60.08171113,,,,,,,,8,Ontime,long,k,1,1.969,4,0,16,3,1,,,,,
,0.7,,,,,,,,,f,blue,5d39f1b6b056910001951b9a,2021-09-27_12h57.30.937,forced_choiceRT_color,2021.2.3,Win32,60.08171113,,,,,,,,8,Ontime,long,f,1,1.9387,4,1,17,1,1,,,,,
,1.79,,,,,,,,,k,purple,5d39f1b6b056910001951b9a,2021-09-27_12h57.30.937,forced_choiceRT_color,2021.2.3,Win32,60.08171113,,,,,,,,8,Slow,long,d,0,2.1023,4,2,18,3,1,,,,,
,0.61,,,,,,,,,d,orange,5d39f1b6b056910001951b9a,2021-09-27_12h57.30.937,forced_choiceRT_color,2021.2.3,Win32,60.08171113,,,,,,,,8,Ontime,long,d,1,1.9413,4,3,19,0,1,,,,,
,0.28,,,,,,,,,f,blue,5d39f1b6b056910001951b9a,2021-09-27_12h57.30.937,forced_choiceRT_color,2021.2.3,Win32,60.08171113,,,,,,,,8,Ontime,long,f,1,1.9191,5,0,20,1,1,,,,,
,1.32,,,,,,,,,f,blue,5d39f1b6b056910001951b9a,2021-09-27_12h57.30.937,forced_choiceRT_color,2021.2.3,Win32,60.08171113,,,,,,,,8,Ontime,long,f,1,1.9218,5,1,21,1,1,,,,,
,0.9,,,,,,,,,d,orange,5d39f1b6b056910001951b9a,2021-09-27_12h57.30.937,forced_choiceRT_color,2021.2.3,Win32,60.08171113,,,,,,,,8,Ontime,long,d,1,1.9705,5,2,22,0,1,,,,,
,1.32,,,,,,,,,j,red,5d39f1b6b056910001951b9a,2021-09-27_12h57.30.937,forced_choiceRT_color,2021.2.3,Win32,60.08171113,,,,,,,,8,Ontime,long,j,1,1.917,5,3,23,2,1,,,,,
,1.47,,,,,,,,,f,blue,5d39f1b6b056910001951b9a,2021-09-27_12h57.30.937,forced_choiceRT_color,2021.2.3,Win32,60.08171113,,,,,,,,8,Ontime,long,f,1,1.9522,6,0,24,1,1,,,,,
,1.54,,,,,,,,,d,orange,5d39f1b6b056910001951b9a,2021-09-27_12h57.30.937,forced_choiceRT_color,2021.2.3,Win32,60.08171113,,,,,,,,8,Ontime,long,d,1,2.088,6,1,25,0,1,,,,,
,0.72,,,,,,,,,k,purple,5d39f1b6b056910001951b9a,2021-09-27_12h57.30.937,forced_choiceRT_color,2021.2.3,Win32,60.08171113,,,,,,,,8,Ontime,long,k,1,1.954,6,2,26,3,1,,,,,
,1.86,,,,,,,,,j,red,5d39f1b6b056910001951b9a,2021-09-27_12h57.30.937,forced_choiceRT_color,2021.2.3,Win32,60.08171113,,,,,,,,8,Ontime,long,j,1,2.0497,6,3,27,2,1,,,,,
,1.4,,,,,,,,,f,blue,5d39f1b6b056910001951b9a,2021-09-27_12h57.30.937,forced_choiceRT_color,2021.2.3,Win32,60.08171113,,,,,,,,8,Ontime,long,f,1,1.9695,7,0,28,1,1,,,,,
,0.99,,,,,,,,,d,orange,5d39f1b6b056910001951b9a,2021-09-27_12h57.30.937,forced_choiceRT_color,2021.2.3,Win32,60.08171113,,,,,,,,8,Ontime,long,d,1,1.9751,7,1,29,0,1,,,,,
,1.85,,,,,,,,,j,red,5d39f1b6b056910001951b9a,2021-09-27_12h57.30.937,forced_choiceRT_color,2021.2.3,Win32,60.08171113,,,,,,,,8,Ontime,long,j,1,1.9721,7,2,30,2,1,,,,,
,0.85,,,,,,,,,j,red,5d39f1b6b056910001951b9a,2021-09-27_12h57.30.937,forced_choiceRT_color,2021.2.3,Win32,60.08171113,,,,,,,,8,Ontime,long,j,1,1.9358,7,3,31,2,1,,,,,
,0.03,,,,,,,,,j,red,5d39f1b6b056910001951b9a,2021-09-27_12h57.30.937,forced_choiceRT_color,2021.2.3,Win32,60.08171113,,,,,,,,8,Ontime,long,j,1,1.9354,8,0,32,2,1,,,,,
,0.08,,,,,,,,,j,red,5d39f1b6b056910001951b9a,2021-09-27_12h57.30.937,forced_choiceRT_color,2021.2.3,Win32,60.08171113,,,,,,,,8,Ontime,long,j,1,1.9687,8,1,33,2,1,,,,,
,1.38,,,,,,,,,f,blue,5d39f1b6b056910001951b9a,2021-09-27_12h57.30.937,forced_choiceRT_color,2021.2.3,Win32,60.08171113,,,,,,,,8,Ontime,long,f,1,2.0019,8,2,34,1,1,,,,,
,0.57,,,,,,,,,f,blue,5d39f1b6b056910001951b9a,2021-09-27_12h57.30.937,forced_choiceRT_color,2021.2.3,Win32,60.08171113,,,,,,,,8,Ontime,long,f,1,1.9084,8,3,35,1,1,,,,,
,1.91,,,,,,,,,j,red,5d39f1b6b056910001951b9a,2021-09-27_12h57.30.937,forced_choiceRT_color,2021.2.3,Win32,60.08171113,,,,,,,,8,Ontime,long,d,0,1.9879,9,0,36,2,1,,,,,
,0.48,,,,,,,,,f,blue,5d39f1b6b056910001951b9a,2021-09-27_12h57.30.937,forced_choiceRT_color,2021.2.3,Win32,60.08171113,,,,,,,,8,Ontime,long,f,1,1.9694,9,1,37,1,1,,,,,
,0.62,,,,,,,,,f,blue,5d39f1b6b056910001951b9a,2021-09-27_12h57.30.937,forced_choiceRT_color,2021.2.3,Win32,60.08171113,,,,,,,,8,Ontime,long,f,1,1.9522,9,2,38,1,1,,,,,
,0.43,,,,,,,,,j,red,5d39f1b6b056910001951b9a,2021-09-27_12h57.30.937,forced_choiceRT_color,2021.2.3,Win32,60.08171113,,,,,,,,8,Ontime,long,j,1,1.9195,9,3,39,2,1,,,,,
,,,,,,,,,,,,5d39f1b6b056910001951b9a,2021-09-27_12h57.30.937,forced_choiceRT_color,2021.2.3,Win32,60.08171113,,,,,,,,,,,,,,,,,,,7,0,7,0,1
,1.06,,,,,,,,,j,red,5d39f1b6b056910001951b9a,2021-09-27_12h57.30.937,forced_choiceRT_color,2021.2.3,Win32,60.08171113,,,,,,,,9,Ontime,long,j,1,1.9694,0,0,0,2,1,,,,,
,1.92,,,,,,,,,d,orange,5d39f1b6b056910001951b9a,2021-09-27_12h57.30.937,forced_choiceRT_color,2021.2.3,Win32,60.08171113,,,,,,,,9,Ontime,long,k,0,1.969,0,1,1,0,1,,,,,
,0.39,,,,,,,,,k,purple,5d39f1b6b056910001951b9a,2021-09-27_12h57.30.937,forced_choiceRT_color,2021.2.3,Win32,60.08171113,,,,,,,,9,Ontime,long,k,1,1.9364,0,2,2,3,1,,,,,
,1.11,,,,,,,,,k,purple,5d39f1b6b056910001951b9a,2021-09-27_12h57.30.937,forced_choiceRT_color,2021.2.3,Win32,60.08171113,,,,,,,,9,Ontime,long,k,1,1.9836,0,3,3,3,1,,,,,
,1.85,,,,,,,,,f,blue,5d39f1b6b056910001951b9a,2021-09-27_12h57.30.937,forced_choiceRT_color,2021.2.3,Win32,60.08171113,,,,,,,,9,Ontime,long,k,0,1.9339,1,0,4,1,1,,,,,
,0.81,,,,,,,,,k,purple,5d39f1b6b056910001951b9a,2021-09-27_12h57.30.937,forced_choiceRT_color,2021.2.3,Win32,60.08171113,,,,,,,,9,Ontime,long,k,1,1.9353,1,1,5,3,1,,,,,
,0.06,,,,,,,,,k,purple,5d39f1b6b056910001951b9a,2021-09-27_12h57.30.937,forced_choiceRT_color,2021.2.3,Win32,60.08171113,,,,,,,,9,Ontime,long,k,1,1.9336,1,2,6,3,1,,,,,
,0.64,,,,,,,,,j,red,5d39f1b6b056910001951b9a,2021-09-27_12h57.30.937,forced_choiceRT_color,2021.2.3,Win32,60.08171113,,,,,,,,9,Ontime,long,j,1,1.9523,1,3,7,2,1,,,,,
,0.95,,,,,,,,,d,orange,5d39f1b6b056910001951b9a,2021-09-27_12h57.30.937,forced_choiceRT_color,2021.2.3,Win32,60.08171113,,,,,,,,9,Ontime,long,d,1,2.0041,2,0,8,0,1,,,,,
,1.82,,,,,,,,,f,blue,5d39f1b6b056910001951b9a,2021-09-27_12h57.30.937,forced_choiceRT_color,2021.2.3,Win32,60.08171113,,,,,,,,9,Ontime,long,f,1,1.9692,2,1,9,1,1,,,,,
,0.01,,,,,,,,,d,orange,5d39f1b6b056910001951b9a,2021-09-27_12h57.30.937,forced_choiceRT_color,2021.2.3,Win32,60.08171113,,,,,,,,9,Ontime,long,d,1,1.9672,2,2,10,0,1,,,,,
,0.3,,,,,,,,,j,red,5d39f1b6b056910001951b9a,2021-09-27_12h57.30.937,forced_choiceRT_color,2021.2.3,Win32,60.08171113,,,,,,,,9,Ontime,long,j,1,1.9362,2,3,11,2,1,,,,,
,1.08,,,,,,,,,d,orange,5d39f1b6b056910001951b9a,2021-09-27_12h57.30.937,forced_choiceRT_color,2021.2.3,Win32,60.08171113,,,,,,,,9,Ontime,long,d,1,2.0091,3,0,12,0,1,,,,,
,0.97,,,,,,,,,f,blue,5d39f1b6b056910001951b9a,2021-09-27_12h57.30.937,forced_choiceRT_color,2021.2.3,Win32,60.08171113,,,,,,,,9,Ontime,long,f,1,1.9885,3,1,13,1,1,,,,,
,0.09,,,,,,,,,f,blue,5d39f1b6b056910001951b9a,2021-09-27_12h57.30.937,forced_choiceRT_color,2021.2.3,Win32,60.08171113,,,,,,,,9,Ontime,long,f,1,1.9369,3,2,14,1,1,,,,,
,0.09,,,,,,,,,j,red,5d39f1b6b056910001951b9a,2021-09-27_12h57.30.937,forced_choiceRT_color,2021.2.3,Win32,60.08171113,,,,,,,,9,Ontime,long,j,1,1.9366,3,3,15,2,1,,,,,
,1.49,,,,,,,,,k,purple,5d39f1b6b056910001951b9a,2021-09-27_12h57.30.937,forced_choiceRT_color,2021.2.3,Win32,60.08171113,,,,,,,,9,Ontime,long,k,1,1.9694,4,0,16,3,1,,,,,
,0.79,,,,,,,,,f,blue,5d39f1b6b056910001951b9a,2021-09-27_12h57.30.937,forced_choiceRT_color,2021.2.3,Win32,60.08171113,,,,,,,,9,Ontime,long,f,1,2.0025,4,1,17,1,1,,,,,
,0.91,,,,,,,,,k,purple,5d39f1b6b056910001951b9a,2021-09-27_12h57.30.937,forced_choiceRT_color,2021.2.3,Win32,60.08171113,,,,,,,,9,Ontime,long,k,1,1.9693,4,2,18,3,1,,,,,
,0.44,,,,,,,,,d,orange,5d39f1b6b056910001951b9a,2021-09-27_12h57.30.937,forced_choiceRT_color,2021.2.3,Win32,60.08171113,,,,,,,,9,Ontime,long,d,1,1.9532,4,3,19,0,1,,,,,
,1.69,,,,,,,,,f,blue,5d39f1b6b056910001951b9a,2021-09-27_12h57.30.937,forced_choiceRT_color,2021.2.3,Win32,60.08171113,,,,,,,,9,Ontime,long,f,1,1.937,5,0,20,1,1,,,,,
,0.79,,,,,,,,,j,red,5d39f1b6b056910001951b9a,2021-09-27_12h57.30.937,forced_choiceRT_color,2021.2.3,Win32,60.08171113,,,,,,,,9,Ontime,long,j,1,2.0184,5,1,21,2,1,,,,,
,1.88,,,,,,,,,k,purple,5d39f1b6b056910001951b9a,2021-09-27_12h57.30.937,forced_choiceRT_color,2021.2.3,Win32,60.08171113,,,,,,,,9,Ontime,long,k,1,1.9427,5,2,22,3,1,,,,,
,1.68,,,,,,,,,f,blue,5d39f1b6b056910001951b9a,2021-09-27_12h57.30.937,forced_choiceRT_color,2021.2.3,Win32,60.08171113,,,,,,,,9,Ontime,long,f,1,1.9407,5,3,23,1,1,,,,,
,0.64,,,,,,,,,j,red,5d39f1b6b056910001951b9a,2021-09-27_12h57.30.937,forced_choiceRT_color,2021.2.3,Win32,60.08171113,,,,,,,,9,Ontime,long,j,1,2.0023,6,0,24,2,1,,,,,
,0.39,,,,,,,,,k,purple,5d39f1b6b056910001951b9a,2021-09-27_12h57.30.937,forced_choiceRT_color,2021.2.3,Win32,60.08171113,,,,,,,,9,Ontime,long,k,1,1.9189,6,1,25,3,1,,,,,
,1.21,,,,,,,,,j,red,5d39f1b6b056910001951b9a,2021-09-27_12h57.30.937,forced_choiceRT_color,2021.2.3,Win32,60.08171113,,,,,,,,9,Ontime,long,j,1,1.9524,6,2,26,2,1,,,,,
,0.91,,,,,,,,,j,red,5d39f1b6b056910001951b9a,2021-09-27_12h57.30.937,forced_choiceRT_color,2021.2.3,Win32,60.08171113,,,,,,,,9,Ontime,long,j,1,2.002,6,3,27,2,1,,,,,
,0.42,,,,,,,,,k,purple,5d39f1b6b056910001951b9a,2021-09-27_12h57.30.937,forced_choiceRT_color,2021.2.3,Win32,60.08171113,,,,,,,,9,Ontime,long,k,1,1.9361,7,0,28,3,1,,,,,
,0.47,,,,,,,,,d,orange,5d39f1b6b056910001951b9a,2021-09-27_12h57.30.937,forced_choiceRT_color,2021.2.3,Win32,60.08171113,,,,,,,,9,Ontime,long,d,1,1.9235,7,1,29,0,1,,,,,
,1.5,,,,,,,,,f,blue,5d39f1b6b056910001951b9a,2021-09-27_12h57.30.937,forced_choiceRT_color,2021.2.3,Win32,60.08171113,,,,,,,,9,Ontime,long,f,1,1.9362,7,2,30,1,1,,,,,
,0.4,,,,,,,,,f,blue,5d39f1b6b056910001951b9a,2021-09-27_12h57.30.937,forced_choiceRT_color,2021.2.3,Win32,60.08171113,,,,,,,,9,Fast,long,f,1,1.826,7,3,31,1,1,,,,,
,1.54,,,,,,,,,k,purple,5d39f1b6b056910001951b9a,2021-09-27_12h57.30.937,forced_choiceRT_color,2021.2.3,Win32,60.08171113,,,,,,,,9,Ontime,long,k,1,2.0359,8,0,32,3,1,,,,,
,1.85,,,,,,,,,j,red,5d39f1b6b056910001951b9a,2021-09-27_12h57.30.937,forced_choiceRT_color,2021.2.3,Win32,60.08171113,,,,,,,,9,Ontime,long,j,1,2.0236,8,1,33,2,1,,,,,
,1.57,,,,,,,,,j,red,5d39f1b6b056910001951b9a,2021-09-27_12h57.30.937,forced_choiceRT_color,2021.2.3,Win32,60.08171113,,,,,,,,9,Ontime,long,k,0,2.0692,8,2,34,2,1,,,,,
,1.35,,,,,,,,,d,orange,5d39f1b6b056910001951b9a,2021-09-27_12h57.30.937,forced_choiceRT_color,2021.2.3,Win32,60.08171113,,,,,,,,9,Ontime,long,d,1,1.9684,8,3,35,0,1,,,,,
,1.7,,,,,,,,,d,orange,5d39f1b6b056910001951b9a,2021-09-27_12h57.30.937,forced_choiceRT_color,2021.2.3,Win32,60.08171113,,,,,,,,9,Ontime,long,j,0,2.037,9,0,36,0,1,,,,,
,1.32,,,,,,,,,d,orange,5d39f1b6b056910001951b9a,2021-09-27_12h57.30.937,forced_choiceRT_color,2021.2.3,Win32,60.08171113,,,,,,,,9,Ontime,long,d,1,1.9575,9,1,37,0,1,,,,,
,0.52,,,,,,,,,d,orange,5d39f1b6b056910001951b9a,2021-09-27_12h57.30.937,forced_choiceRT_color,2021.2.3,Win32,60.08171113,,,,,,,,9,Ontime,long,d,1,2.0046,9,2,38,0,1,,,,,
,1.33,,,,,,,,,f,blue,5d39f1b6b056910001951b9a,2021-09-27_12h57.30.937,forced_choiceRT_color,2021.2.3,Win32,60.08171113,,,,,,,,9,Ontime,long,f,1,2.0345,9,3,39,1,1,,,,,
,,,,,,,,,,,,5d39f1b6b056910001951b9a,2021-09-27_12h57.30.937,forced_choiceRT_color,2021.2.3,Win32,60.08171113,,,,,,,,,,,,,,,,,,,8,0,8,0,1
,1.02,,,,,,,,,f,blue,5d39f1b6b056910001951b9a,2021-09-27_12h57.30.937,forced_choiceRT_color,2021.2.3,Win32,60.08171113,,,,,,,,10,Ontime,long,f,1,2.0523,0,0,0,1,1,,,,,
,1.06,,,,,,,,,k,purple,5d39f1b6b056910001951b9a,2021-09-27_12h57.30.937,forced_choiceRT_color,2021.2.3,Win32,60.08171113,,,,,,,,10,Ontime,long,k,1,1.9855,0,1,1,3,1,,,,,
,1.65,,,,,,,,,k,purple,5d39f1b6b056910001951b9a,2021-09-27_12h57.30.937,forced_choiceRT_color,2021.2.3,Win32,60.08171113,,,,,,,,10,Ontime,long,k,1,2.0694,0,2,2,3,1,,,,,
,1.69,,,,,,,,,j,red,5d39f1b6b056910001951b9a,2021-09-27_12h57.30.937,forced_choiceRT_color,2021.2.3,Win32,60.08171113,,,,,,,,10,Ontime,long,f,0,2.0509,0,3,3,2,1,,,,,
,1.1,,,,,,,,,k,purple,5d39f1b6b056910001951b9a,2021-09-27_12h57.30.937,forced_choiceRT_color,2021.2.3,Win32,60.08171113,,,,,,,,10,Ontime,long,k,1,2.0398,1,0,4,3,1,,,,,
,1.33,,,,,,,,,f,blue,5d39f1b6b056910001951b9a,2021-09-27_12h57.30.937,forced_choiceRT_color,2021.2.3,Win32,60.08171113,,,,,,,,10,Ontime,long,f,1,2.0174,1,1,5,1,1,,,,,
,1.03,,,,,,,,,f,blue,5d39f1b6b056910001951b9a,2021-09-27_12h57.30.937,forced_choiceRT_color,2021.2.3,Win32,60.08171113,,,,,,,,10,Ontime,long,f,1,2.0185,1,2,6,1,1,,,,,
,1.64,,,,,,,,,f,blue,5d39f1b6b056910001951b9a,2021-09-27_12h57.30.937,forced_choiceRT_color,2021.2.3,Win32,60.08171113,,,,,,,,10,Ontime,long,j,0,1.9745,1,3,7,1,1,,,,,
,1.51,,,,,,,,,k,purple,5d39f1b6b056910001951b9a,2021-09-27_12h57.30.937,forced_choiceRT_color,2021.2.3,Win32,60.08171113,,,,,,,,10,Ontime,long,j,0,1.9859,2,0,8,3,1,,,,,
,1.18,,,,,,,,,j,red,5d39f1b6b056910001951b9a,2021-09-27_12h57.30.937,forced_choiceRT_color,2021.2.3,Win32,60.08171113,,,,,,,,10,Ontime,long,j,1,2.0168,2,1,9,2,1,,,,,
,0.78,,,,,,,,,d,orange,5d39f1b6b056910001951b9a,2021-09-27_12h57.30.937,forced_choiceRT_color,2021.2.3,Win32,60.08171113,,,,,,,,10,Ontime,long,d,1,2.0027,2,2,10,0,1,,,,,
,1.89,,,,,,,,,f,blue,5d39f1b6b056910001951b9a,2021-09-27_12h57.30.937,forced_choiceRT_color,2021.2.3,Win32,60.08171113,,,,,,,,10,Ontime,long,f,1,1.974,2,3,11,1,1,,,,,
,1.12,,,,,,,,,d,orange,5d39f1b6b056910001951b9a,2021-09-27_12h57.30.937,forced_choiceRT_color,2021.2.3,Win32,60.08171113,,,,,,,,10,Ontime,long,d,1,2.0699,3,0,12,0,1,,,,,
,0.34,,,,,,,,,f,blue,5d39f1b6b056910001951b9a,2021-09-27_12h57.30.937,forced_choiceRT_color,2021.2.3,Win32,60.08171113,,,,,,,,10,Ontime,long,f,1,1.967,3,1,13,1,1,,,,,
,0.36,,,,,,,,,j,red,5d39f1b6b056910001951b9a,2021-09-27_12h57.30.937,forced_choiceRT_color,2021.2.3,Win32,60.08171113,,,,,,,,10,Ontime,long,j,1,2.0029,3,2,14,2,1,,,,,
,0.29,,,,,,,,,j,red,5d39f1b6b056910001951b9a,2021-09-27_12h57.30.937,forced_choiceRT_color,2021.2.3,Win32,60.08171113,,,,,,,,10,Ontime,long,j,1,1.9701,3,3,15,2,1,,,,,
,0.77,,,,,,,,,k,purple,5d39f1b6b056910001951b9a,2021-09-27_12h57.30.937,forced_choiceRT_color,2021.2.3,Win32,60.08171113,,,,,,,,10,Ontime,long,k,1,1.9538,4,0,16,3,1,,,,,
,0.78,,,,,,,,,d,orange,5d39f1b6b056910001951b9a,2021-09-27_12h57.30.937,forced_choiceRT_color,2021.2.3,Win32,60.08171113,,,,,,,,10,Ontime,long,d,1,2.0031,4,1,17,0,1,,,,,
,0.08,,,,,,,,,j,red,5d39f1b6b056910001951b9a,2021-09-27_12h57.30.937,forced_choiceRT_color,2021.2.3,Win32,60.08171113,,,,,,,,10,Ontime,long,j,1,1.9367,4,2,18,2,1,,,,,
,0.46,,,,,,,,,d,orange,5d39f1b6b056910001951b9a,2021-09-27_12h57.30.937,forced_choiceRT_color,2021.2.3,Win32,60.08171113,,,,,,,,10,Ontime,long,d,1,1.9458,4,3,19,0,1,,,,,
,0.19,,,,,,,,,d,orange,5d39f1b6b056910001951b9a,2021-09-27_12h57.30.937,forced_choiceRT_color,2021.2.3,Win32,60.08171113,,,,,,,,10,Ontime,long,d,1,1.9358,5,0,20,0,1,,,,,
,0.86,,,,,,,,,j,red,5d39f1b6b056910001951b9a,2021-09-27_12h57.30.937,forced_choiceRT_color,2021.2.3,Win32,60.08171113,,,,,,,,10,Ontime,long,j,1,1.9584,5,1,21,2,1,,,,,
,0.41,,,,,,,,,k,purple,5d39f1b6b056910001951b9a,2021-09-27_12h57.30.937,forced_choiceRT_color,2021.2.3,Win32,60.08171113,,,,,,,,10,Ontime,long,k,1,1.954,5,2,22,3,1,,,,,
,0.97,,,,,,,,,d,orange,5d39f1b6b056910001951b9a,2021-09-27_12h57.30.937,forced_choiceRT_color,2021.2.3,Win32,60.08171113,,,,,,,,10,Ontime,long,d,1,2.0175,5,3,23,0,1,,,,,
,0.59,,,,,,,,,d,orange,5d39f1b6b056910001951b9a,2021-09-27_12h57.30.937,forced_choiceRT_color,2021.2.3,Win32,60.08171113,,,,,,,,10,Ontime,long,d,1,1.935,6,0,24,0,1,,,,,
,0.11,,,,,,,,,j,red,5d39f1b6b056910001951b9a,2021-09-27_12h57.30.937,forced_choiceRT_color,2021.2.3,Win32,60.08171113,,,,,,,,10,Ontime,long,j,1,2.0356,6,1,25,2,1,,,,,
,0.12,,,,,,,,,d,orange,5d39f1b6b056910001951b9a,2021-09-27_12h57.30.937,forced_choiceRT_color,2021.2.3,Win32,60.08171113,,,,,,,,10,Ontime,long,d,1,2.0187,6,2,26,0,1,,,,,
,1.27,,,,,,,,,k,purple,5d39f1b6b056910001951b9a,2021-09-27_12h57.30.937,forced_choiceRT_color,2021.2.3,Win32,60.08171113,,,,,,,,10,Ontime,long,k,1,2.0188,6,3,27,3,1,,,,,
,1.55,,,,,,,,,j,red,5d39f1b6b056910001951b9a,2021-09-27_12h57.30.937,forced_choiceRT_color,2021.2.3,Win32,60.08171113,,,,,,,,10,Slow,long,j,1,2.1361,7,0,28,2,1,,,,,
,0.82,,,,,,,,,f,blue,5d39f1b6b056910001951b9a,2021-09-27_12h57.30.937,forced_choiceRT_color,2021.2.3,Win32,60.08171113,,,,,,,,10,Ontime,long,f,1,1.9948,7,1,29,1,1,,,,,
,1.91,,,,,,,,,j,red,5d39f1b6b056910001951b9a,2021-09-27_12h57.30.937,forced_choiceRT_color,2021.2.3,Win32,60.08171113,,,,,,,,10,Ontime,long,j,1,2.0194,7,2,30,2,1,,,,,
,1.23,,,,,,,,,k,purple,5d39f1b6b056910001951b9a,2021-09-27_12h57.30.937,forced_choiceRT_color,2021.2.3,Win32,60.08171113,,,,,,,,10,Ontime,long,k,1,2.0676,7,3,31,3,1,,,,,
,1.85,,,,,,,,,j,red,5d39f1b6b056910001951b9a,2021-09-27_12h57.30.937,forced_choiceRT_color,2021.2.3,Win32,60.08171113,,,,,,,,10,Ontime,long,j,1,2.0582,8,0,32,2,1,,,,,
,1.57,,,,,,,,,k,purple,5d39f1b6b056910001951b9a,2021-09-27_12h57.30.937,forced_choiceRT_color,2021.2.3,Win32,60.08171113,,,,,,,,10,Ontime,long,k,1,2.003,8,1,33,3,1,,,,,
,0.54,,,,,,,,,f,blue,5d39f1b6b056910001951b9a,2021-09-27_12h57.30.937,forced_choiceRT_color,2021.2.3,Win32,60.08171113,,,,,,,,10,Ontime,long,f,1,1.9846,8,2,34,1,1,,,,,
,1.52,,,,,,,,,k,purple,5d39f1b6b056910001951b9a,2021-09-27_12h57.30.937,forced_choiceRT_color,2021.2.3,Win32,60.08171113,,,,,,,,10,Ontime,long,k,1,1.9685,8,3,35,3,1,,,,,
,1.03,,,,,,,,,f,blue,5d39f1b6b056910001951b9a,2021-09-27_12h57.30.937,forced_choiceRT_color,2021.2.3,Win32,60.08171113,,,,,,,,10,Ontime,long,f,1,2.0239,9,0,36,1,1,,,,,
,1.6,,,,,,,,,f,blue,5d39f1b6b056910001951b9a,2021-09-27_12h57.30.937,forced_choiceRT_color,2021.2.3,Win32,60.08171113,,,,,,,,10,Ontime,long,f,1,2.069,9,1,37,1,1,,,,,
,1.36,,,,,,,,,d,orange,5d39f1b6b056910001951b9a,2021-09-27_12h57.30.937,forced_choiceRT_color,2021.2.3,Win32,60.08171113,,,,,,,,10,Slow,long,d,1,2.1226,9,2,38,0,1,,,,,
,0.49,,,,,,,,,d,orange,5d39f1b6b056910001951b9a,2021-09-27_12h57.30.937,forced_choiceRT_color,2021.2.3,Win32,60.08171113,,,,,,,,10,Ontime,long,d,1,1.919,9,3,39,0,1,,,,,
,,,,,,,,,,,,5d39f1b6b056910001951b9a,2021-09-27_12h57.30.937,forced_choiceRT_color,2021.2.3,Win32,60.08171113,,,,,,,,,,,,,,,,,,,9,0,9,0,1
