target_onset,trial_resp_sp.keys,trial_resp_sp.corr,trial_resp_sp.rt,trials_train_loop.thisRepN,trials_train_loop.thisTrialN,trials_train_loop.thisN,trials_train_loop.thisIndex,trials_train_loop.ran,correct_key,color,participant,date,expName,psychopyVersion,OS,frameRate,trial_resp_timing.keys,trial_resp_timing.rt,trials_train_timing.thisRepN,trials_train_timing.thisTrialN,trials_train_timing.thisN,trials_train_timing.thisIndex,trials_train_timing.ran,block_id,ontime,feedback_cond,forcedRT_resp.keys,forcedRT_resp.corr,forcedRT_resp.rt,trials.thisRepN,trials.thisTrialN,trials.thisN,trials.thisIndex,trials.ran,blocks.thisRepN,blocks.thisTrialN,blocks.thisN,blocks.thisIndex,blocks.ran
0,j,1,1.6156,0,0,0,2,1,j,red,5d5f0b2e0e71190019c643f7,2021-09-27_14h35.03.600,forced_choiceRT_color,2021.2.3,Win32,59.95922773,,,,,,,,,,,,,,,,,,,,,,,
0,k,1,0.827,0,1,1,3,1,k,purple,5d5f0b2e0e71190019c643f7,2021-09-27_14h35.03.600,forced_choiceRT_color,2021.2.3,Win32,59.95922773,,,,,,,,,,,,,,,,,,,,,,,
0,j,1,0.6338,0,2,2,2,1,j,red,5d5f0b2e0e71190019c643f7,2021-09-27_14h35.03.600,forced_choiceRT_color,2021.2.3,Win32,59.95922773,,,,,,,,,,,,,,,,,,,,,,,
0,k,1,0.6042,0,3,3,3,1,k,purple,5d5f0b2e0e71190019c643f7,2021-09-27_14h35.03.600,forced_choiceRT_color,2021.2.3,Win32,59.95922773,,,,,,,,,,,,,,,,,,,,,,,
0,d,1,0.664,1,0,4,0,1,d,orange,5d5f0b2e0e71190019c643f7,2021-09-27_14h35.03.600,forced_choiceRT_color,2021.2.3,Win32,59.95922773,,,,,,,,,,,,,,,,,,,,,,,
0,d,1,0.5532,1,1,5,0,1,d,orange,5d5f0b2e0e71190019c643f7,2021-09-27_14h35.03.600,forced_choiceRT_color,2021.2.3,Win32,59.95922773,,,,,,,,,,,,,,,,,,,,,,,
0,d,1,0.4789,1,2,6,0,1,d,orange,5d5f0b2e0e71190019c643f7,2021-09-27_14h35.03.600,forced_choiceRT_color,2021.2.3,Win32,59.95922773,,,,,,,,,,,,,,,,,,,,,,,
0,j,1,0.6068,1,3,7,2,1,j,red,5d5f0b2e0e71190019c643f7,2021-09-27_14h35.03.600,forced_choiceRT_color,2021.2.3,Win32,59.95922773,,,,,,,,,,,,,,,,,,,,,,,
0,k,1,0.639,2,0,8,3,1,k,purple,5d5f0b2e0e71190019c643f7,2021-09-27_14h35.03.600,forced_choiceRT_color,2021.2.3,Win32,59.95922773,,,,,,,,,,,,,,,,,,,,,,,
0,k,1,0.4532,2,1,9,3,1,k,purple,5d5f0b2e0e71190019c643f7,2021-09-27_14h35.03.600,forced_choiceRT_color,2021.2.3,Win32,59.95922773,,,,,,,,,,,,,,,,,,,,,,,
0,k,1,0.4141,2,2,10,3,1,k,purple,5d5f0b2e0e71190019c643f7,2021-09-27_14h35.03.600,forced_choiceRT_color,2021.2.3,Win32,59.95922773,,,,,,,,,,,,,,,,,,,,,,,
0,k,1,0.4179,2,3,11,3,1,k,purple,5d5f0b2e0e71190019c643f7,2021-09-27_14h35.03.600,forced_choiceRT_color,2021.2.3,Win32,59.95922773,,,,,,,,,,,,,,,,,,,,,,,
0,f,1,0.6038,3,0,12,1,1,f,blue,5d5f0b2e0e71190019c643f7,2021-09-27_14h35.03.600,forced_choiceRT_color,2021.2.3,Win32,59.95922773,,,,,,,,,,,,,,,,,,,,,,,
0,j,1,0.5647,3,1,13,2,1,j,red,5d5f0b2e0e71190019c643f7,2021-09-27_14h35.03.600,forced_choiceRT_color,2021.2.3,Win32,59.95922773,,,,,,,,,,,,,,,,,,,,,,,
0,f,1,0.5725,3,2,14,1,1,f,blue,5d5f0b2e0e71190019c643f7,2021-09-27_14h35.03.600,forced_choiceRT_color,2021.2.3,Win32,59.95922773,,,,,,,,,,,,,,,,,,,,,,,
0,f,1,0.4809,3,3,15,1,1,f,blue,5d5f0b2e0e71190019c643f7,2021-09-27_14h35.03.600,forced_choiceRT_color,2021.2.3,Win32,59.95922773,,,,,,,,,,,,,,,,,,,,,,,
0,j,1,0.673,4,0,16,2,1,j,red,5d5f0b2e0e71190019c643f7,2021-09-27_14h35.03.600,forced_choiceRT_color,2021.2.3,Win32,59.95922773,,,,,,,,,,,,,,,,,,,,,,,
0,k,1,0.5135,4,1,17,3,1,k,purple,5d5f0b2e0e71190019c643f7,2021-09-27_14h35.03.600,forced_choiceRT_color,2021.2.3,Win32,59.95922773,,,,,,,,,,,,,,,,,,,,,,,
0,f,1,0.5852,4,2,18,1,1,f,blue,5d5f0b2e0e71190019c643f7,2021-09-27_14h35.03.600,forced_choiceRT_color,2021.2.3,Win32,59.95922773,,,,,,,,,,,,,,,,,,,,,,,
0,f,1,0.4054,4,3,19,1,1,f,blue,5d5f0b2e0e71190019c643f7,2021-09-27_14h35.03.600,forced_choiceRT_color,2021.2.3,Win32,59.95922773,,,,,,,,,,,,,,,,,,,,,,,
0,d,1,0.5768,5,0,20,0,1,d,orange,5d5f0b2e0e71190019c643f7,2021-09-27_14h35.03.600,forced_choiceRT_color,2021.2.3,Win32,59.95922773,,,,,,,,,,,,,,,,,,,,,,,
0,f,1,0.4851,5,1,21,1,1,f,blue,5d5f0b2e0e71190019c643f7,2021-09-27_14h35.03.600,forced_choiceRT_color,2021.2.3,Win32,59.95922773,,,,,,,,,,,,,,,,,,,,,,,
0,f,1,0.4055,5,2,22,1,1,f,blue,5d5f0b2e0e71190019c643f7,2021-09-27_14h35.03.600,forced_choiceRT_color,2021.2.3,Win32,59.95922773,,,,,,,,,,,,,,,,,,,,,,,
0,f,1,0.4157,5,3,23,1,1,f,blue,5d5f0b2e0e71190019c643f7,2021-09-27_14h35.03.600,forced_choiceRT_color,2021.2.3,Win32,59.95922773,,,,,,,,,,,,,,,,,,,,,,,
0,f,1,0.4111,6,0,24,1,1,f,blue,5d5f0b2e0e71190019c643f7,2021-09-27_14h35.03.600,forced_choiceRT_color,2021.2.3,Win32,59.95922773,,,,,,,,,,,,,,,,,,,,,,,
0,d,1,0.4862,6,1,25,0,1,d,orange,5d5f0b2e0e71190019c643f7,2021-09-27_14h35.03.600,forced_choiceRT_color,2021.2.3,Win32,59.95922773,,,,,,,,,,,,,,,,,,,,,,,
0,d,1,0.4386,6,2,26,0,1,d,orange,5d5f0b2e0e71190019c643f7,2021-09-27_14h35.03.600,forced_choiceRT_color,2021.2.3,Win32,59.95922773,,,,,,,,,,,,,,,,,,,,,,,
0,f,1,0.5441,6,3,27,1,1,f,blue,5d5f0b2e0e71190019c643f7,2021-09-27_14h35.03.600,forced_choiceRT_color,2021.2.3,Win32,59.95922773,,,,,,,,,,,,,,,,,,,,,,,
0,d,1,0.4221,7,0,28,0,1,d,orange,5d5f0b2e0e71190019c643f7,2021-09-27_14h35.03.600,forced_choiceRT_color,2021.2.3,Win32,59.95922773,,,,,,,,,,,,,,,,,,,,,,,
0,d,1,0.4414,7,1,29,0,1,d,orange,5d5f0b2e0e71190019c643f7,2021-09-27_14h35.03.600,forced_choiceRT_color,2021.2.3,Win32,59.95922773,,,,,,,,,,,,,,,,,,,,,,,
0,j,1,0.5791,7,2,30,2,1,j,red,5d5f0b2e0e71190019c643f7,2021-09-27_14h35.03.600,forced_choiceRT_color,2021.2.3,Win32,59.95922773,,,,,,,,,,,,,,,,,,,,,,,
0,f,1,0.5195,7,3,31,1,1,f,blue,5d5f0b2e0e71190019c643f7,2021-09-27_14h35.03.600,forced_choiceRT_color,2021.2.3,Win32,59.95922773,,,,,,,,,,,,,,,,,,,,,,,
0,j,1,0.5664,8,0,32,2,1,j,red,5d5f0b2e0e71190019c643f7,2021-09-27_14h35.03.600,forced_choiceRT_color,2021.2.3,Win32,59.95922773,,,,,,,,,,,,,,,,,,,,,,,
0,d,1,0.4742,8,1,33,0,1,d,orange,5d5f0b2e0e71190019c643f7,2021-09-27_14h35.03.600,forced_choiceRT_color,2021.2.3,Win32,59.95922773,,,,,,,,,,,,,,,,,,,,,,,
0,k,1,0.5797,8,2,34,3,1,k,purple,5d5f0b2e0e71190019c643f7,2021-09-27_14h35.03.600,forced_choiceRT_color,2021.2.3,Win32,59.95922773,,,,,,,,,,,,,,,,,,,,,,,
0,k,1,0.5762,8,3,35,3,1,k,purple,5d5f0b2e0e71190019c643f7,2021-09-27_14h35.03.600,forced_choiceRT_color,2021.2.3,Win32,59.95922773,,,,,,,,,,,,,,,,,,,,,,,
0,k,1,0.4527,9,0,36,3,1,k,purple,5d5f0b2e0e71190019c643f7,2021-09-27_14h35.03.600,forced_choiceRT_color,2021.2.3,Win32,59.95922773,,,,,,,,,,,,,,,,,,,,,,,
0,k,1,0.4148,9,1,37,3,1,k,purple,5d5f0b2e0e71190019c643f7,2021-09-27_14h35.03.600,forced_choiceRT_color,2021.2.3,Win32,59.95922773,,,,,,,,,,,,,,,,,,,,,,,
0,j,1,0.5534,9,2,38,2,1,j,red,5d5f0b2e0e71190019c643f7,2021-09-27_14h35.03.600,forced_choiceRT_color,2021.2.3,Win32,59.95922773,,,,,,,,,,,,,,,,,,,,,,,
0,k,1,0.5356,9,3,39,3,1,k,purple,5d5f0b2e0e71190019c643f7,2021-09-27_14h35.03.600,forced_choiceRT_color,2021.2.3,Win32,59.95922773,,,,,,,,,,,,,,,,,,,,,,,
0,j,1,0.6369,10,0,40,2,1,j,red,5d5f0b2e0e71190019c643f7,2021-09-27_14h35.03.600,forced_choiceRT_color,2021.2.3,Win32,59.95922773,,,,,,,,,,,,,,,,,,,,,,,
0,d,1,0.5657,10,1,41,0,1,d,orange,5d5f0b2e0e71190019c643f7,2021-09-27_14h35.03.600,forced_choiceRT_color,2021.2.3,Win32,59.95922773,,,,,,,,,,,,,,,,,,,,,,,
0,f,1,0.5398,10,2,42,1,1,f,blue,5d5f0b2e0e71190019c643f7,2021-09-27_14h35.03.600,forced_choiceRT_color,2021.2.3,Win32,59.95922773,,,,,,,,,,,,,,,,,,,,,,,
0,d,1,0.5133,10,3,43,0,1,d,orange,5d5f0b2e0e71190019c643f7,2021-09-27_14h35.03.600,forced_choiceRT_color,2021.2.3,Win32,59.95922773,,,,,,,,,,,,,,,,,,,,,,,
0,k,1,0.6089,11,0,44,3,1,k,purple,5d5f0b2e0e71190019c643f7,2021-09-27_14h35.03.600,forced_choiceRT_color,2021.2.3,Win32,59.95922773,,,,,,,,,,,,,,,,,,,,,,,
0,d,1,0.579,11,1,45,0,1,d,orange,5d5f0b2e0e71190019c643f7,2021-09-27_14h35.03.600,forced_choiceRT_color,2021.2.3,Win32,59.95922773,,,,,,,,,,,,,,,,,,,,,,,
0,j,1,0.5204,11,2,46,2,1,j,red,5d5f0b2e0e71190019c643f7,2021-09-27_14h35.03.600,forced_choiceRT_color,2021.2.3,Win32,59.95922773,,,,,,,,,,,,,,,,,,,,,,,
0,k,1,0.4796,11,3,47,3,1,k,purple,5d5f0b2e0e71190019c643f7,2021-09-27_14h35.03.600,forced_choiceRT_color,2021.2.3,Win32,59.95922773,,,,,,,,,,,,,,,,,,,,,,,
0,f,1,0.6725,12,0,48,1,1,f,blue,5d5f0b2e0e71190019c643f7,2021-09-27_14h35.03.600,forced_choiceRT_color,2021.2.3,Win32,59.95922773,,,,,,,,,,,,,,,,,,,,,,,
0,d,1,0.4812,12,1,49,0,1,d,orange,5d5f0b2e0e71190019c643f7,2021-09-27_14h35.03.600,forced_choiceRT_color,2021.2.3,Win32,59.95922773,,,,,,,,,,,,,,,,,,,,,,,
0,j,1,0.5217,12,2,50,2,1,j,red,5d5f0b2e0e71190019c643f7,2021-09-27_14h35.03.600,forced_choiceRT_color,2021.2.3,Win32,59.95922773,,,,,,,,,,,,,,,,,,,,,,,
0,d,1,0.7915,12,3,51,0,1,d,orange,5d5f0b2e0e71190019c643f7,2021-09-27_14h35.03.600,forced_choiceRT_color,2021.2.3,Win32,59.95922773,,,,,,,,,,,,,,,,,,,,,,,
0,k,1,0.5156,13,0,52,3,1,k,purple,5d5f0b2e0e71190019c643f7,2021-09-27_14h35.03.600,forced_choiceRT_color,2021.2.3,Win32,59.95922773,,,,,,,,,,,,,,,,,,,,,,,
0,j,1,0.5067,13,1,53,2,1,j,red,5d5f0b2e0e71190019c643f7,2021-09-27_14h35.03.600,forced_choiceRT_color,2021.2.3,Win32,59.95922773,,,,,,,,,,,,,,,,,,,,,,,
0,j,1,0.4741,13,2,54,2,1,j,red,5d5f0b2e0e71190019c643f7,2021-09-27_14h35.03.600,forced_choiceRT_color,2021.2.3,Win32,59.95922773,,,,,,,,,,,,,,,,,,,,,,,
0,f,1,0.5779,13,3,55,1,1,f,blue,5d5f0b2e0e71190019c643f7,2021-09-27_14h35.03.600,forced_choiceRT_color,2021.2.3,Win32,59.95922773,,,,,,,,,,,,,,,,,,,,,,,
0,j,1,0.6076,14,0,56,2,1,j,red,5d5f0b2e0e71190019c643f7,2021-09-27_14h35.03.600,forced_choiceRT_color,2021.2.3,Win32,59.95922773,,,,,,,,,,,,,,,,,,,,,,,
0,j,1,0.4507,14,1,57,2,1,j,red,5d5f0b2e0e71190019c643f7,2021-09-27_14h35.03.600,forced_choiceRT_color,2021.2.3,Win32,59.95922773,,,,,,,,,,,,,,,,,,,,,,,
0,f,1,0.603,14,2,58,1,1,f,blue,5d5f0b2e0e71190019c643f7,2021-09-27_14h35.03.600,forced_choiceRT_color,2021.2.3,Win32,59.95922773,,,,,,,,,,,,,,,,,,,,,,,
0,d,1,0.5115,14,3,59,0,1,d,orange,5d5f0b2e0e71190019c643f7,2021-09-27_14h35.03.600,forced_choiceRT_color,2021.2.3,Win32,59.95922773,,,,,,,,,,,,,,,,,,,,,,,
,,,,,,,,,,,5d5f0b2e0e71190019c643f7,2021-09-27_14h35.03.600,forced_choiceRT_color,2021.2.3,Win32,59.95922773,j,2.2339,0,0,0,0,1,,,,,,,,,,,,,,,,
,,,,,,,,,,,5d5f0b2e0e71190019c643f7,2021-09-27_14h35.03.600,forced_choiceRT_color,2021.2.3,Win32,59.95922773,j,2.0839,1,0,1,0,1,,,,,,,,,,,,,,,,
,,,,,,,,,,,5d5f0b2e0e71190019c643f7,2021-09-27_14h35.03.600,forced_choiceRT_color,2021.2.3,Win32,59.95922773,j,2.0671,2,0,2,0,1,,,,,,,,,,,,,,,,
,,,,,,,,,,,5d5f0b2e0e71190019c643f7,2021-09-27_14h35.03.600,forced_choiceRT_color,2021.2.3,Win32,59.95922773,j,2.1151,3,0,3,0,1,,,,,,,,,,,,,,,,
,,,,,,,,,,,5d5f0b2e0e71190019c643f7,2021-09-27_14h35.03.600,forced_choiceRT_color,2021.2.3,Win32,59.95922773,j,2.0325,4,0,4,0,1,,,,,,,,,,,,,,,,
,,,,,,,,,,,5d5f0b2e0e71190019c643f7,2021-09-27_14h35.03.600,forced_choiceRT_color,2021.2.3,Win32,59.95922773,j,2.051,5,0,5,0,1,,,,,,,,,,,,,,,,
,,,,,,,,,,,5d5f0b2e0e71190019c643f7,2021-09-27_14h35.03.600,forced_choiceRT_color,2021.2.3,Win32,59.95922773,j,1.9952,6,0,6,0,1,,,,,,,,,,,,,,,,
,,,,,,,,,,,5d5f0b2e0e71190019c643f7,2021-09-27_14h35.03.600,forced_choiceRT_color,2021.2.3,Win32,59.95922773,j,1.9668,7,0,7,0,1,,,,,,,,,,,,,,,,
,,,,,,,,,,,5d5f0b2e0e71190019c643f7,2021-09-27_14h35.03.600,forced_choiceRT_color,2021.2.3,Win32,59.95922773,j,1.8908,8,0,8,0,1,,,,,,,,,,,,,,,,
,,,,,,,,,,,5d5f0b2e0e71190019c643f7,2021-09-27_14h35.03.600,forced_choiceRT_color,2021.2.3,Win32,59.95922773,j,1.8338,9,0,9,0,1,,,,,,,,,,,,,,,,
,,,,,,,,,,,5d5f0b2e0e71190019c643f7,2021-09-27_14h35.03.600,forced_choiceRT_color,2021.2.3,Win32,59.95922773,j,2.0194,10,0,10,0,1,,,,,,,,,,,,,,,,
,,,,,,,,,,,5d5f0b2e0e71190019c643f7,2021-09-27_14h35.03.600,forced_choiceRT_color,2021.2.3,Win32,59.95922773,j,2.0855,11,0,11,0,1,,,,,,,,,,,,,,,,
,,,,,,,,,,,5d5f0b2e0e71190019c643f7,2021-09-27_14h35.03.600,forced_choiceRT_color,2021.2.3,Win32,59.95922773,j,2.0608,12,0,12,0,1,,,,,,,,,,,,,,,,
,,,,,,,,,,,5d5f0b2e0e71190019c643f7,2021-09-27_14h35.03.600,forced_choiceRT_color,2021.2.3,Win32,59.95922773,j,2.0292,13,0,13,0,1,,,,,,,,,,,,,,,,
,,,,,,,,,,,5d5f0b2e0e71190019c643f7,2021-09-27_14h35.03.600,forced_choiceRT_color,2021.2.3,Win32,59.95922773,j,1.9668,14,0,14,0,1,,,,,,,,,,,,,,,,
,,,,,,,,,,,5d5f0b2e0e71190019c643f7,2021-09-27_14h35.03.600,forced_choiceRT_color,2021.2.3,Win32,59.95922773,j,2.0196,15,0,15,0,1,,,,,,,,,,,,,,,,
,,,,,,,,,,,5d5f0b2e0e71190019c643f7,2021-09-27_14h35.03.600,forced_choiceRT_color,2021.2.3,Win32,59.95922773,j,2.0532,16,0,16,0,1,,,,,,,,,,,,,,,,
,,,,,,,,,,,5d5f0b2e0e71190019c643f7,2021-09-27_14h35.03.600,forced_choiceRT_color,2021.2.3,Win32,59.95922773,j,1.9576,17,0,17,0,1,,,,,,,,,,,,,,,,
,,,,,,,,,,,5d5f0b2e0e71190019c643f7,2021-09-27_14h35.03.600,forced_choiceRT_color,2021.2.3,Win32,59.95922773,j,2.0025,18,0,18,0,1,,,,,,,,,,,,,,,,
,,,,,,,,,,,5d5f0b2e0e71190019c643f7,2021-09-27_14h35.03.600,forced_choiceRT_color,2021.2.3,Win32,59.95922773,j,1.9888,19,0,19,0,1,,,,,,,,,,,,,,,,
1.73,,,,,,,,,d,orange,5d5f0b2e0e71190019c643f7,2021-09-27_14h35.03.600,forced_choiceRT_color,2021.2.3,Win32,59.95922773,,,,,,,,1,Ontime,short,j,0,1.9836,0,0,0,0,1,,,,,
1.59,,,,,,,,,d,orange,5d5f0b2e0e71190019c643f7,2021-09-27_14h35.03.600,forced_choiceRT_color,2021.2.3,Win32,59.95922773,,,,,,,,1,Fast,short,d,1,1.7242,0,1,1,0,1,,,,,
1.26,,,,,,,,,k,purple,5d5f0b2e0e71190019c643f7,2021-09-27_14h35.03.600,forced_choiceRT_color,2021.2.3,Win32,59.95922773,,,,,,,,1,Fast,short,k,1,1.7877,0,2,2,3,1,,,,,
0.13,,,,,,,,,j,red,5d5f0b2e0e71190019c643f7,2021-09-27_14h35.03.600,forced_choiceRT_color,2021.2.3,Win32,59.95922773,,,,,,,,1,Ontime,short,j,1,2.0169,0,3,3,2,1,,,,,
1.96,,,,,,,,,k,purple,5d5f0b2e0e71190019c643f7,2021-09-27_14h35.03.600,forced_choiceRT_color,2021.2.3,Win32,59.95922773,,,,,,,,1,Slow,short,j,0,2.2774,1,0,4,3,1,,,,,
1.65,,,,,,,,,f,blue,5d5f0b2e0e71190019c643f7,2021-09-27_14h35.03.600,forced_choiceRT_color,2021.2.3,Win32,59.95922773,,,,,,,,1,Slow,short,f,1,2.2684,1,1,5,1,1,,,,,
1.21,,,,,,,,,j,red,5d5f0b2e0e71190019c643f7,2021-09-27_14h35.03.600,forced_choiceRT_color,2021.2.3,Win32,59.95922773,,,,,,,,1,Ontime,short,j,1,1.9715,1,2,6,2,1,,,,,
1.49,,,,,,,,,j,red,5d5f0b2e0e71190019c643f7,2021-09-27_14h35.03.600,forced_choiceRT_color,2021.2.3,Win32,59.95922773,,,,,,,,1,Ontime,short,j,1,1.9795,1,3,7,2,1,,,,,
0.5,,,,,,,,,f,blue,5d5f0b2e0e71190019c643f7,2021-09-27_14h35.03.600,forced_choiceRT_color,2021.2.3,Win32,59.95922773,,,,,,,,1,Ontime,short,f,1,1.9008,2,0,8,1,1,,,,,
1.55,,,,,,,,,f,blue,5d5f0b2e0e71190019c643f7,2021-09-27_14h35.03.600,forced_choiceRT_color,2021.2.3,Win32,59.95922773,,,,,,,,1,Ontime,short,f,1,2.0382,2,1,9,1,1,,,,,
0.93,,,,,,,,,d,orange,5d5f0b2e0e71190019c643f7,2021-09-27_14h35.03.600,forced_choiceRT_color,2021.2.3,Win32,59.95922773,,,,,,,,1,Ontime,short,d,1,1.9159,2,2,10,0,1,,,,,
1.53,,,,,,,,,f,blue,5d5f0b2e0e71190019c643f7,2021-09-27_14h35.03.600,forced_choiceRT_color,2021.2.3,Win32,59.95922773,,,,,,,,1,Ontime,short,f,1,1.9984,2,3,11,1,1,,,,,
0.42,,,,,,,,,j,red,5d5f0b2e0e71190019c643f7,2021-09-27_14h35.03.600,forced_choiceRT_color,2021.2.3,Win32,59.95922773,,,,,,,,1,Fast,short,j,1,1.7654,3,0,12,2,1,,,,,
1.8,,,,,,,,,k,purple,5d5f0b2e0e71190019c643f7,2021-09-27_14h35.03.600,forced_choiceRT_color,2021.2.3,Win32,59.95922773,,,,,,,,1,Slow,short,k,1,2.162,3,1,13,3,1,,,,,
0.84,,,,,,,,,f,blue,5d5f0b2e0e71190019c643f7,2021-09-27_14h35.03.600,forced_choiceRT_color,2021.2.3,Win32,59.95922773,,,,,,,,1,Ontime,short,f,1,1.9504,3,2,14,1,1,,,,,
1.38,,,,,,,,,f,blue,5d5f0b2e0e71190019c643f7,2021-09-27_14h35.03.600,forced_choiceRT_color,2021.2.3,Win32,59.95922773,,,,,,,,1,Fast,short,f,1,1.8144,3,3,15,1,1,,,,,
1.44,,,,,,,,,d,orange,5d5f0b2e0e71190019c643f7,2021-09-27_14h35.03.600,forced_choiceRT_color,2021.2.3,Win32,59.95922773,,,,,,,,1,Ontime,short,d,1,2.025,4,0,16,0,1,,,,,
1.47,,,,,,,,,k,purple,5d5f0b2e0e71190019c643f7,2021-09-27_14h35.03.600,forced_choiceRT_color,2021.2.3,Win32,59.95922773,,,,,,,,1,Ontime,short,k,1,1.9835,4,1,17,3,1,,,,,
0.6,,,,,,,,,k,purple,5d5f0b2e0e71190019c643f7,2021-09-27_14h35.03.600,forced_choiceRT_color,2021.2.3,Win32,59.95922773,,,,,,,,1,Ontime,short,k,1,1.942,4,2,18,3,1,,,,,
1.19,,,,,,,,,k,purple,5d5f0b2e0e71190019c643f7,2021-09-27_14h35.03.600,forced_choiceRT_color,2021.2.3,Win32,59.95922773,,,,,,,,1,Ontime,short,k,1,1.9339,4,3,19,3,1,,,,,
1.69,,,,,,,,,j,red,5d5f0b2e0e71190019c643f7,2021-09-27_14h35.03.600,forced_choiceRT_color,2021.2.3,Win32,59.95922773,,,,,,,,1,Ontime,short,j,1,2.081,5,0,20,2,1,,,,,
1.53,,,,,,,,,d,orange,5d5f0b2e0e71190019c643f7,2021-09-27_14h35.03.600,forced_choiceRT_color,2021.2.3,Win32,59.95922773,,,,,,,,1,Ontime,short,d,1,2.0212,5,1,21,0,1,,,,,
0.04,,,,,,,,,f,blue,5d5f0b2e0e71190019c643f7,2021-09-27_14h35.03.600,forced_choiceRT_color,2021.2.3,Win32,59.95922773,,,,,,,,1,Ontime,short,f,1,2.0435,5,2,22,1,1,,,,,
1.5,,,,,,,,,d,orange,5d5f0b2e0e71190019c643f7,2021-09-27_14h35.03.600,forced_choiceRT_color,2021.2.3,Win32,59.95922773,,,,,,,,1,Ontime,short,d,1,2.0677,5,3,23,0,1,,,,,
1.71,,,,,,,,,f,blue,5d5f0b2e0e71190019c643f7,2021-09-27_14h35.03.600,forced_choiceRT_color,2021.2.3,Win32,59.95922773,,,,,,,,1,Slow,short,j,0,2.2686,6,0,24,1,1,,,,,
0.62,,,,,,,,,j,red,5d5f0b2e0e71190019c643f7,2021-09-27_14h35.03.600,forced_choiceRT_color,2021.2.3,Win32,59.95922773,,,,,,,,1,Ontime,short,j,1,2.0211,6,1,25,2,1,,,,,
1.44,,,,,,,,,k,purple,5d5f0b2e0e71190019c643f7,2021-09-27_14h35.03.600,forced_choiceRT_color,2021.2.3,Win32,59.95922773,,,,,,,,1,Ontime,short,k,1,2.043,6,2,26,3,1,,,,,
1.24,,,,,,,,,d,orange,5d5f0b2e0e71190019c643f7,2021-09-27_14h35.03.600,forced_choiceRT_color,2021.2.3,Win32,59.95922773,,,,,,,,1,Ontime,short,d,1,2.0246,6,3,27,0,1,,,,,
0,,,,,,,,,d,orange,5d5f0b2e0e71190019c643f7,2021-09-27_14h35.03.600,forced_choiceRT_color,2021.2.3,Win32,59.95922773,,,,,,,,1,Fast,short,d,1,1.8537,7,0,28,0,1,,,,,
0,,,,,,,,,f,blue,5d5f0b2e0e71190019c643f7,2021-09-27_14h35.03.600,forced_choiceRT_color,2021.2.3,Win32,59.95922773,,,,,,,,1,Ontime,short,f,1,2.0385,7,1,29,1,1,,,,,
1.39,,,,,,,,,j,red,5d5f0b2e0e71190019c643f7,2021-09-27_14h35.03.600,forced_choiceRT_color,2021.2.3,Win32,59.95922773,,,,,,,,1,Ontime,short,j,1,1.9878,7,2,30,2,1,,,,,
1.09,,,,,,,,,k,purple,5d5f0b2e0e71190019c643f7,2021-09-27_14h35.03.600,forced_choiceRT_color,2021.2.3,Win32,59.95922773,,,,,,,,1,Ontime,short,k,1,1.9788,7,3,31,3,1,,,,,
1.11,,,,,,,,,j,red,5d5f0b2e0e71190019c643f7,2021-09-27_14h35.03.600,forced_choiceRT_color,2021.2.3,Win32,59.95922773,,,,,,,,1,Ontime,short,j,1,2.0188,8,0,32,2,1,,,,,
0,,,,,,,,,j,red,5d5f0b2e0e71190019c643f7,2021-09-27_14h35.03.600,forced_choiceRT_color,2021.2.3,Win32,59.95922773,,,,,,,,1,Ontime,short,j,1,1.9529,8,1,33,2,1,,,,,
1.99,,,,,,,,,k,purple,5d5f0b2e0e71190019c643f7,2021-09-27_14h35.03.600,forced_choiceRT_color,2021.2.3,Win32,59.95922773,,,,,,,,1,Slow,short,k,1,2.4261,8,2,34,3,1,,,,,
1.13,,,,,,,,,k,purple,5d5f0b2e0e71190019c643f7,2021-09-27_14h35.03.600,forced_choiceRT_color,2021.2.3,Win32,59.95922773,,,,,,,,1,Ontime,short,k,1,1.9786,8,3,35,3,1,,,,,
1.4,,,,,,,,,f,blue,5d5f0b2e0e71190019c643f7,2021-09-27_14h35.03.600,forced_choiceRT_color,2021.2.3,Win32,59.95922773,,,,,,,,1,Ontime,short,f,1,2.0834,9,0,36,1,1,,,,,
0.54,,,,,,,,,j,red,5d5f0b2e0e71190019c643f7,2021-09-27_14h35.03.600,forced_choiceRT_color,2021.2.3,Win32,59.95922773,,,,,,,,1,Ontime,short,j,1,2.0139,9,1,37,2,1,,,,,
1.26,,,,,,,,,d,orange,5d5f0b2e0e71190019c643f7,2021-09-27_14h35.03.600,forced_choiceRT_color,2021.2.3,Win32,59.95922773,,,,,,,,1,Ontime,short,d,1,2.0527,9,2,38,0,1,,,,,
0.61,,,,,,,,,d,orange,5d5f0b2e0e71190019c643f7,2021-09-27_14h35.03.600,forced_choiceRT_color,2021.2.3,Win32,59.95922773,,,,,,,,1,Ontime,short,d,1,2.0417,9,3,39,0,1,,,,,
,,,,,,,,,,,5d5f0b2e0e71190019c643f7,2021-09-27_14h35.03.600,forced_choiceRT_color,2021.2.3,Win32,59.95922773,,,,,,,,,,,,,,,,,,,0,0,0,0,1
1.54,,,,,,,,,j,red,5d5f0b2e0e71190019c643f7,2021-09-27_14h35.03.600,forced_choiceRT_color,2021.2.3,Win32,59.95922773,,,,,,,,2,Ontime,short,j,1,2.0201,0,0,0,2,1,,,,,
0.08,,,,,,,,,k,purple,5d5f0b2e0e71190019c643f7,2021-09-27_14h35.03.600,forced_choiceRT_color,2021.2.3,Win32,59.95922773,,,,,,,,2,Ontime,short,k,1,2.0303,0,1,1,3,1,,,,,
0.65,,,,,,,,,j,red,5d5f0b2e0e71190019c643f7,2021-09-27_14h35.03.600,forced_choiceRT_color,2021.2.3,Win32,59.95922773,,,,,,,,2,Ontime,short,j,1,1.9701,0,2,2,2,1,,,,,
0.39,,,,,,,,,k,purple,5d5f0b2e0e71190019c643f7,2021-09-27_14h35.03.600,forced_choiceRT_color,2021.2.3,Win32,59.95922773,,,,,,,,2,Ontime,short,k,1,1.9623,0,3,3,3,1,,,,,
0.39,,,,,,,,,k,purple,5d5f0b2e0e71190019c643f7,2021-09-27_14h35.03.600,forced_choiceRT_color,2021.2.3,Win32,59.95922773,,,,,,,,2,Ontime,short,k,1,2.0356,1,0,4,3,1,,,,,
1.63,,,,,,,,,d,orange,5d5f0b2e0e71190019c643f7,2021-09-27_14h35.03.600,forced_choiceRT_color,2021.2.3,Win32,59.95922773,,,,,,,,2,Slow,short,d,1,2.1616,1,1,5,0,1,,,,,
1.38,,,,,,,,,d,orange,5d5f0b2e0e71190019c643f7,2021-09-27_14h35.03.600,forced_choiceRT_color,2021.2.3,Win32,59.95922773,,,,,,,,2,Ontime,short,d,1,1.9507,1,2,6,0,1,,,,,
0.02,,,,,,,,,k,purple,5d5f0b2e0e71190019c643f7,2021-09-27_14h35.03.600,forced_choiceRT_color,2021.2.3,Win32,59.95922773,,,,,,,,2,Ontime,short,k,1,2.0558,1,3,7,3,1,,,,,
0.97,,,,,,,,,d,orange,5d5f0b2e0e71190019c643f7,2021-09-27_14h35.03.600,forced_choiceRT_color,2021.2.3,Win32,59.95922773,,,,,,,,2,Ontime,short,d,1,1.9327,2,0,8,0,1,,,,,
1.94,,,,,,,,,d,orange,5d5f0b2e0e71190019c643f7,2021-09-27_14h35.03.600,forced_choiceRT_color,2021.2.3,Win32,59.95922773,,,,,,,,2,Slow,short,d,1,3.7513,2,1,9,0,1,,,,,
0.07,,,,,,,,,d,orange,5d5f0b2e0e71190019c643f7,2021-09-27_14h35.03.600,forced_choiceRT_color,2021.2.3,Win32,59.95922773,,,,,,,,2,Ontime,short,d,1,1.9509,2,2,10,0,1,,,,,
0.82,,,,,,,,,j,red,5d5f0b2e0e71190019c643f7,2021-09-27_14h35.03.600,forced_choiceRT_color,2021.2.3,Win32,59.95922773,,,,,,,,2,Ontime,short,j,1,2.0054,2,3,11,2,1,,,,,
1.22,,,,,,,,,k,purple,5d5f0b2e0e71190019c643f7,2021-09-27_14h35.03.600,forced_choiceRT_color,2021.2.3,Win32,59.95922773,,,,,,,,2,Ontime,short,k,1,2.0283,3,0,12,3,1,,,,,
0.29,,,,,,,,,f,blue,5d5f0b2e0e71190019c643f7,2021-09-27_14h35.03.600,forced_choiceRT_color,2021.2.3,Win32,59.95922773,,,,,,,,2,Ontime,short,f,1,2.0354,3,1,13,1,1,,,,,
0.66,,,,,,,,,f,blue,5d5f0b2e0e71190019c643f7,2021-09-27_14h35.03.600,forced_choiceRT_color,2021.2.3,Win32,59.95922773,,,,,,,,2,Ontime,short,f,1,2.0665,3,2,14,1,1,,,,,
1,,,,,,,,,d,orange,5d5f0b2e0e71190019c643f7,2021-09-27_14h35.03.600,forced_choiceRT_color,2021.2.3,Win32,59.95922773,,,,,,,,2,Ontime,short,d,1,2.0224,3,3,15,0,1,,,,,
1.91,,,,,,,,,d,orange,5d5f0b2e0e71190019c643f7,2021-09-27_14h35.03.600,forced_choiceRT_color,2021.2.3,Win32,59.95922773,,,,,,,,2,Slow,short,d,1,2.3499,4,0,16,0,1,,,,,
0.08,,,,,,,,,f,blue,5d5f0b2e0e71190019c643f7,2021-09-27_14h35.03.600,forced_choiceRT_color,2021.2.3,Win32,59.95922773,,,,,,,,2,Fast,short,f,1,1.7317,4,1,17,1,1,,,,,
0.37,,,,,,,,,j,red,5d5f0b2e0e71190019c643f7,2021-09-27_14h35.03.600,forced_choiceRT_color,2021.2.3,Win32,59.95922773,,,,,,,,2,Ontime,short,j,1,2.0545,4,2,18,2,1,,,,,
1.78,,,,,,,,,k,purple,5d5f0b2e0e71190019c643f7,2021-09-27_14h35.03.600,forced_choiceRT_color,2021.2.3,Win32,59.95922773,,,,,,,,2,Slow,short,k,1,2.2512,4,3,19,3,1,,,,,
1.14,,,,,,,,,j,red,5d5f0b2e0e71190019c643f7,2021-09-27_14h35.03.600,forced_choiceRT_color,2021.2.3,Win32,59.95922773,,,,,,,,2,Ontime,short,j,1,2.0527,5,0,20,2,1,,,,,
0.55,,,,,,,,,d,orange,5d5f0b2e0e71190019c643f7,2021-09-27_14h35.03.600,forced_choiceRT_color,2021.2.3,Win32,59.95922773,,,,,,,,2,Fast,short,d,1,1.8098,5,1,21,0,1,,,,,
1.64,,,,,,,,,f,blue,5d5f0b2e0e71190019c643f7,2021-09-27_14h35.03.600,forced_choiceRT_color,2021.2.3,Win32,59.95922773,,,,,,,,2,Slow,short,f,1,2.2521,5,2,22,1,1,,,,,
1.69,,,,,,,,,k,purple,5d5f0b2e0e71190019c643f7,2021-09-27_14h35.03.600,forced_choiceRT_color,2021.2.3,Win32,59.95922773,,,,,,,,2,Slow,short,k,1,2.2706,5,3,23,3,1,,,,,
0.64,,,,,,,,,j,red,5d5f0b2e0e71190019c643f7,2021-09-27_14h35.03.600,forced_choiceRT_color,2021.2.3,Win32,59.95922773,,,,,,,,2,Ontime,short,j,1,1.9326,6,0,24,2,1,,,,,
0.11,,,,,,,,,f,blue,5d5f0b2e0e71190019c643f7,2021-09-27_14h35.03.600,forced_choiceRT_color,2021.2.3,Win32,59.95922773,,,,,,,,2,Fast,short,f,1,1.7996,6,1,25,1,1,,,,,
1.35,,,,,,,,,f,blue,5d5f0b2e0e71190019c643f7,2021-09-27_14h35.03.600,forced_choiceRT_color,2021.2.3,Win32,59.95922773,,,,,,,,2,Ontime,short,f,1,2.018,6,2,26,1,1,,,,,
0.31,,,,,,,,,j,red,5d5f0b2e0e71190019c643f7,2021-09-27_14h35.03.600,forced_choiceRT_color,2021.2.3,Win32,59.95922773,,,,,,,,2,Ontime,short,j,1,2.0639,6,3,27,2,1,,,,,
0.33,,,,,,,,,f,blue,5d5f0b2e0e71190019c643f7,2021-09-27_14h35.03.600,forced_choiceRT_color,2021.2.3,Win32,59.95922773,,,,,,,,2,Slow,short,f,1,2.1657,7,0,28,1,1,,,,,
1.25,,,,,,,,,k,purple,5d5f0b2e0e71190019c643f7,2021-09-27_14h35.03.600,forced_choiceRT_color,2021.2.3,Win32,59.95922773,,,,,,,,2,Slow,short,k,1,2.1882,7,1,29,3,1,,,,,
0.8,,,,,,,,,j,red,5d5f0b2e0e71190019c643f7,2021-09-27_14h35.03.600,forced_choiceRT_color,2021.2.3,Win32,59.95922773,,,,,,,,2,Ontime,short,j,1,2.0132,7,2,30,2,1,,,,,
0.72,,,,,,,,,j,red,5d5f0b2e0e71190019c643f7,2021-09-27_14h35.03.600,forced_choiceRT_color,2021.2.3,Win32,59.95922773,,,,,,,,2,Ontime,short,j,1,2.0135,7,3,31,2,1,,,,,
0.7,,,,,,,,,f,blue,5d5f0b2e0e71190019c643f7,2021-09-27_14h35.03.600,forced_choiceRT_color,2021.2.3,Win32,59.95922773,,,,,,,,2,Fast,short,f,1,1.7499,8,0,32,1,1,,,,,
1.49,,,,,,,,,k,purple,5d5f0b2e0e71190019c643f7,2021-09-27_14h35.03.600,forced_choiceRT_color,2021.2.3,Win32,59.95922773,,,,,,,,2,Slow,short,k,1,2.1452,8,1,33,3,1,,,,,
0.32,,,,,,,,,f,blue,5d5f0b2e0e71190019c643f7,2021-09-27_14h35.03.600,forced_choiceRT_color,2021.2.3,Win32,59.95922773,,,,,,,,2,Ontime,short,f,1,2.0306,8,2,34,1,1,,,,,
0.46,,,,,,,,,f,blue,5d5f0b2e0e71190019c643f7,2021-09-27_14h35.03.600,forced_choiceRT_color,2021.2.3,Win32,59.95922773,,,,,,,,2,Ontime,short,f,1,1.9804,8,3,35,1,1,,,,,
1.54,,,,,,,,,d,orange,5d5f0b2e0e71190019c643f7,2021-09-27_14h35.03.600,forced_choiceRT_color,2021.2.3,Win32,59.95922773,,,,,,,,2,Ontime,short,d,1,1.9742,9,0,36,0,1,,,,,
0.33,,,,,,,,,k,purple,5d5f0b2e0e71190019c643f7,2021-09-27_14h35.03.600,forced_choiceRT_color,2021.2.3,Win32,59.95922773,,,,,,,,2,Ontime,short,k,1,1.9996,9,1,37,3,1,,,,,
0.25,,,,,,,,,j,red,5d5f0b2e0e71190019c643f7,2021-09-27_14h35.03.600,forced_choiceRT_color,2021.2.3,Win32,59.95922773,,,,,,,,2,Ontime,short,j,1,1.9666,9,2,38,2,1,,,,,
0.88,,,,,,,,,d,orange,5d5f0b2e0e71190019c643f7,2021-09-27_14h35.03.600,forced_choiceRT_color,2021.2.3,Win32,59.95922773,,,,,,,,2,Ontime,short,d,1,2.0223,9,3,39,0,1,,,,,
,,,,,,,,,,,5d5f0b2e0e71190019c643f7,2021-09-27_14h35.03.600,forced_choiceRT_color,2021.2.3,Win32,59.95922773,,,,,,,,,,,,,,,,,,,1,0,1,0,1
1.95,,,,,,,,,d,orange,5d5f0b2e0e71190019c643f7,2021-09-27_14h35.03.600,forced_choiceRT_color,2021.2.3,Win32,59.95922773,,,,,,,,3,Ontime,short,d,1,2.0235,0,0,0,0,1,,,,,
0.36,,,,,,,,,k,purple,5d5f0b2e0e71190019c643f7,2021-09-27_14h35.03.600,forced_choiceRT_color,2021.2.3,Win32,59.95922773,,,,,,,,3,Ontime,short,k,1,1.929,0,1,1,3,1,,,,,
0.69,,,,,,,,,d,orange,5d5f0b2e0e71190019c643f7,2021-09-27_14h35.03.600,forced_choiceRT_color,2021.2.3,Win32,59.95922773,,,,,,,,3,Ontime,short,d,1,1.9797,0,2,2,0,1,,,,,
0.98,,,,,,,,,j,red,5d5f0b2e0e71190019c643f7,2021-09-27_14h35.03.600,forced_choiceRT_color,2021.2.3,Win32,59.95922773,,,,,,,,3,Ontime,short,j,1,2.0362,0,3,3,2,1,,,,,
0.41,,,,,,,,,d,orange,5d5f0b2e0e71190019c643f7,2021-09-27_14h35.03.600,forced_choiceRT_color,2021.2.3,Win32,59.95922773,,,,,,,,3,Fast,short,d,1,1.8982,1,0,4,0,1,,,,,
0.19,,,,,,,,,k,purple,5d5f0b2e0e71190019c643f7,2021-09-27_14h35.03.600,forced_choiceRT_color,2021.2.3,Win32,59.95922773,,,,,,,,3,Ontime,short,k,1,1.9,1,1,5,3,1,,,,,
1.82,,,,,,,,,j,red,5d5f0b2e0e71190019c643f7,2021-09-27_14h35.03.600,forced_choiceRT_color,2021.2.3,Win32,59.95922773,,,,,,,,3,Slow,short,d,0,2.1657,1,2,6,2,1,,,,,
1.88,,,,,,,,,j,red,5d5f0b2e0e71190019c643f7,2021-09-27_14h35.03.600,forced_choiceRT_color,2021.2.3,Win32,59.95922773,,,,,,,,3,Slow,short,j,1,2.3372,1,3,7,2,1,,,,,
0.43,,,,,,,,,d,orange,5d5f0b2e0e71190019c643f7,2021-09-27_14h35.03.600,forced_choiceRT_color,2021.2.3,Win32,59.95922773,,,,,,,,3,Ontime,short,d,1,2.0526,2,0,8,0,1,,,,,
1.42,,,,,,,,,k,purple,5d5f0b2e0e71190019c643f7,2021-09-27_14h35.03.600,forced_choiceRT_color,2021.2.3,Win32,59.95922773,,,,,,,,3,Fast,short,k,1,1.8989,2,1,9,3,1,,,,,
1.31,,,,,,,,,k,purple,5d5f0b2e0e71190019c643f7,2021-09-27_14h35.03.600,forced_choiceRT_color,2021.2.3,Win32,59.95922773,,,,,,,,3,Fast,short,k,1,1.6673,2,2,10,3,1,,,,,
0.42,,,,,,,,,f,blue,5d5f0b2e0e71190019c643f7,2021-09-27_14h35.03.600,forced_choiceRT_color,2021.2.3,Win32,59.95922773,,,,,,,,3,Ontime,short,f,1,1.9622,2,3,11,1,1,,,,,
0.68,,,,,,,,,f,blue,5d5f0b2e0e71190019c643f7,2021-09-27_14h35.03.600,forced_choiceRT_color,2021.2.3,Win32,59.95922773,,,,,,,,3,Ontime,short,f,1,2.0352,3,0,12,1,1,,,,,
0.57,,,,,,,,,f,blue,5d5f0b2e0e71190019c643f7,2021-09-27_14h35.03.600,forced_choiceRT_color,2021.2.3,Win32,59.95922773,,,,,,,,3,Ontime,short,f,1,2.0677,3,1,13,1,1,,,,,
0.16,,,,,,,,,k,purple,5d5f0b2e0e71190019c643f7,2021-09-27_14h35.03.600,forced_choiceRT_color,2021.2.3,Win32,59.95922773,,,,,,,,3,Ontime,short,k,1,2.0217,3,2,14,3,1,,,,,
0.5,,,,,,,,,j,red,5d5f0b2e0e71190019c643f7,2021-09-27_14h35.03.600,forced_choiceRT_color,2021.2.3,Win32,59.95922773,,,,,,,,3,Ontime,short,j,1,2.0285,3,3,15,2,1,,,,,
0.08,,,,,,,,,f,blue,5d5f0b2e0e71190019c643f7,2021-09-27_14h35.03.600,forced_choiceRT_color,2021.2.3,Win32,59.95922773,,,,,,,,3,Ontime,short,f,1,1.947,4,0,16,1,1,,,,,
0.68,,,,,,,,,j,red,5d5f0b2e0e71190019c643f7,2021-09-27_14h35.03.600,forced_choiceRT_color,2021.2.3,Win32,59.95922773,,,,,,,,3,Fast,short,j,1,1.8453,4,1,17,2,1,,,,,
0.12,,,,,,,,,j,red,5d5f0b2e0e71190019c643f7,2021-09-27_14h35.03.600,forced_choiceRT_color,2021.2.3,Win32,59.95922773,,,,,,,,3,Ontime,short,j,1,2.0783,4,2,18,2,1,,,,,
1.76,,,,,,,,,d,orange,5d5f0b2e0e71190019c643f7,2021-09-27_14h35.03.600,forced_choiceRT_color,2021.2.3,Win32,59.95922773,,,,,,,,3,Ontime,short,d,1,2.0356,4,3,19,0,1,,,,,
1.82,,,,,,,,,d,orange,5d5f0b2e0e71190019c643f7,2021-09-27_14h35.03.600,forced_choiceRT_color,2021.2.3,Win32,59.95922773,,,,,,,,3,Slow,short,d,1,2.1297,5,0,20,0,1,,,,,
0.09,,,,,,,,,j,red,5d5f0b2e0e71190019c643f7,2021-09-27_14h35.03.600,forced_choiceRT_color,2021.2.3,Win32,59.95922773,,,,,,,,3,Ontime,short,j,1,2.0173,5,1,21,2,1,,,,,
1.11,,,,,,,,,f,blue,5d5f0b2e0e71190019c643f7,2021-09-27_14h35.03.600,forced_choiceRT_color,2021.2.3,Win32,59.95922773,,,,,,,,3,Slow,short,f,1,2.151,5,2,22,1,1,,,,,
1.87,,,,,,,,,j,red,5d5f0b2e0e71190019c643f7,2021-09-27_14h35.03.600,forced_choiceRT_color,2021.2.3,Win32,59.95922773,,,,,,,,3,Slow,short,k,0,2.2868,5,3,23,2,1,,,,,
1,,,,,,,,,k,purple,5d5f0b2e0e71190019c643f7,2021-09-27_14h35.03.600,forced_choiceRT_color,2021.2.3,Win32,59.95922773,,,,,,,,3,Ontime,short,k,1,1.9635,6,0,24,3,1,,,,,
1.72,,,,,,,,,f,blue,5d5f0b2e0e71190019c643f7,2021-09-27_14h35.03.600,forced_choiceRT_color,2021.2.3,Win32,59.95922773,,,,,,,,3,Slow,short,j,0,2.2372,6,1,25,1,1,,,,,
1.62,,,,,,,,,k,purple,5d5f0b2e0e71190019c643f7,2021-09-27_14h35.03.600,forced_choiceRT_color,2021.2.3,Win32,59.95922773,,,,,,,,3,Ontime,short,j,0,2.0224,6,2,26,3,1,,,,,
0.35,,,,,,,,,d,orange,5d5f0b2e0e71190019c643f7,2021-09-27_14h35.03.600,forced_choiceRT_color,2021.2.3,Win32,59.95922773,,,,,,,,3,Fast,short,k,0,0.0848,6,3,27,0,1,,,,,
0.41,,,,,,,,,k,purple,5d5f0b2e0e71190019c643f7,2021-09-27_14h35.03.600,forced_choiceRT_color,2021.2.3,Win32,59.95922773,,,,,,,,3,Ontime,short,k,1,2.0204,7,0,28,3,1,,,,,
0.72,,,,,,,,,k,purple,5d5f0b2e0e71190019c643f7,2021-09-27_14h35.03.600,forced_choiceRT_color,2021.2.3,Win32,59.95922773,,,,,,,,3,Slow,short,k,1,2.1546,7,1,29,3,1,,,,,
1.15,,,,,,,,,f,blue,5d5f0b2e0e71190019c643f7,2021-09-27_14h35.03.600,forced_choiceRT_color,2021.2.3,Win32,59.95922773,,,,,,,,3,Ontime,short,f,1,1.9916,7,2,30,1,1,,,,,
0.5,,,,,,,,,k,purple,5d5f0b2e0e71190019c643f7,2021-09-27_14h35.03.600,forced_choiceRT_color,2021.2.3,Win32,59.95922773,,,,,,,,3,Ontime,short,k,1,2.0313,7,3,31,3,1,,,,,
1.29,,,,,,,,,j,red,5d5f0b2e0e71190019c643f7,2021-09-27_14h35.03.600,forced_choiceRT_color,2021.2.3,Win32,59.95922773,,,,,,,,3,Ontime,short,j,1,1.9831,8,0,32,2,1,,,,,
1.82,,,,,,,,,f,blue,5d5f0b2e0e71190019c643f7,2021-09-27_14h35.03.600,forced_choiceRT_color,2021.2.3,Win32,59.95922773,,,,,,,,3,Slow,short,j,0,2.3107,8,1,33,1,1,,,,,
1.72,,,,,,,,,d,orange,5d5f0b2e0e71190019c643f7,2021-09-27_14h35.03.600,forced_choiceRT_color,2021.2.3,Win32,59.95922773,,,,,,,,3,Slow,short,d,1,2.1835,8,2,34,0,1,,,,,
0.71,,,,,,,,,f,blue,5d5f0b2e0e71190019c643f7,2021-09-27_14h35.03.600,forced_choiceRT_color,2021.2.3,Win32,59.95922773,,,,,,,,3,Ontime,short,f,1,1.9601,8,3,35,1,1,,,,,
1.82,,,,,,,,,d,orange,5d5f0b2e0e71190019c643f7,2021-09-27_14h35.03.600,forced_choiceRT_color,2021.2.3,Win32,59.95922773,,,,,,,,3,Slow,short,k,0,2.2015,9,0,36,0,1,,,,,
1.85,,,,,,,,,j,red,5d5f0b2e0e71190019c643f7,2021-09-27_14h35.03.600,forced_choiceRT_color,2021.2.3,Win32,59.95922773,,,,,,,,3,Slow,short,d,0,2.2444,9,1,37,2,1,,,,,
0.31,,,,,,,,,f,blue,5d5f0b2e0e71190019c643f7,2021-09-27_14h35.03.600,forced_choiceRT_color,2021.2.3,Win32,59.95922773,,,,,,,,3,Ontime,short,f,1,1.9592,9,2,38,1,1,,,,,
0.02,,,,,,,,,d,orange,5d5f0b2e0e71190019c643f7,2021-09-27_14h35.03.600,forced_choiceRT_color,2021.2.3,Win32,59.95922773,,,,,,,,3,Fast,short,d,1,1.8939,9,3,39,0,1,,,,,
,,,,,,,,,,,5d5f0b2e0e71190019c643f7,2021-09-27_14h35.03.600,forced_choiceRT_color,2021.2.3,Win32,59.95922773,,,,,,,,,,,,,,,,,,,2,0,2,0,1
0.05,,,,,,,,,f,blue,5d5f0b2e0e71190019c643f7,2021-09-27_14h35.03.600,forced_choiceRT_color,2021.2.3,Win32,59.95922773,,,,,,,,4,Slow,short,f,1,2.1185,0,0,0,1,1,,,,,
0.97,,,,,,,,,f,blue,5d5f0b2e0e71190019c643f7,2021-09-27_14h35.03.600,forced_choiceRT_color,2021.2.3,Win32,59.95922773,,,,,,,,4,Ontime,short,f,1,2.0364,0,1,1,1,1,,,,,
0.06,,,,,,,,,k,purple,5d5f0b2e0e71190019c643f7,2021-09-27_14h35.03.600,forced_choiceRT_color,2021.2.3,Win32,59.95922773,,,,,,,,4,Ontime,short,k,1,1.9954,0,2,2,3,1,,,,,
0.6,,,,,,,,,d,orange,5d5f0b2e0e71190019c643f7,2021-09-27_14h35.03.600,forced_choiceRT_color,2021.2.3,Win32,59.95922773,,,,,,,,4,Ontime,short,d,1,1.9402,0,3,3,0,1,,,,,
0.27,,,,,,,,,j,red,5d5f0b2e0e71190019c643f7,2021-09-27_14h35.03.600,forced_choiceRT_color,2021.2.3,Win32,59.95922773,,,,,,,,4,Ontime,short,j,1,1.9424,1,0,4,2,1,,,,,
0.58,,,,,,,,,d,orange,5d5f0b2e0e71190019c643f7,2021-09-27_14h35.03.600,forced_choiceRT_color,2021.2.3,Win32,59.95922773,,,,,,,,4,Ontime,short,d,1,1.9363,1,1,5,0,1,,,,,
0.54,,,,,,,,,k,purple,5d5f0b2e0e71190019c643f7,2021-09-27_14h35.03.600,forced_choiceRT_color,2021.2.3,Win32,59.95922773,,,,,,,,4,Ontime,short,k,1,2.09,1,2,6,3,1,,,,,
0.92,,,,,,,,,j,red,5d5f0b2e0e71190019c643f7,2021-09-27_14h35.03.600,forced_choiceRT_color,2021.2.3,Win32,59.95922773,,,,,,,,4,Ontime,short,j,1,2.0382,1,3,7,2,1,,,,,
0.3,,,,,,,,,f,blue,5d5f0b2e0e71190019c643f7,2021-09-27_14h35.03.600,forced_choiceRT_color,2021.2.3,Win32,59.95922773,,,,,,,,4,Ontime,short,f,1,2.0279,2,0,8,1,1,,,,,
1.9,,,,,,,,,j,red,5d5f0b2e0e71190019c643f7,2021-09-27_14h35.03.600,forced_choiceRT_color,2021.2.3,Win32,59.95922773,,,,,,,,4,Slow,short,d,0,2.1629,2,1,9,2,1,,,,,
1.22,,,,,,,,,f,blue,5d5f0b2e0e71190019c643f7,2021-09-27_14h35.03.600,forced_choiceRT_color,2021.2.3,Win32,59.95922773,,,,,,,,4,Ontime,short,f,1,1.9673,2,2,10,1,1,,,,,
1.12,,,,,,,,,d,orange,5d5f0b2e0e71190019c643f7,2021-09-27_14h35.03.600,forced_choiceRT_color,2021.2.3,Win32,59.95922773,,,,,,,,4,Ontime,short,d,1,1.9674,2,3,11,0,1,,,,,
1.74,,,,,,,,,j,red,5d5f0b2e0e71190019c643f7,2021-09-27_14h35.03.600,forced_choiceRT_color,2021.2.3,Win32,59.95922773,,,,,,,,4,Ontime,short,j,1,2.0563,3,0,12,2,1,,,,,
1.67,,,,,,,,,j,red,5d5f0b2e0e71190019c643f7,2021-09-27_14h35.03.600,forced_choiceRT_color,2021.2.3,Win32,59.95922773,,,,,,,,4,Ontime,short,j,1,2.0939,3,1,13,2,1,,,,,
0.94,,,,,,,,,k,purple,5d5f0b2e0e71190019c643f7,2021-09-27_14h35.03.600,forced_choiceRT_color,2021.2.3,Win32,59.95922773,,,,,,,,4,Ontime,short,k,1,1.9141,3,2,14,3,1,,,,,
1.27,,,,,,,,,d,orange,5d5f0b2e0e71190019c643f7,2021-09-27_14h35.03.600,forced_choiceRT_color,2021.2.3,Win32,59.95922773,,,,,,,,4,Ontime,short,d,1,1.9409,3,3,15,0,1,,,,,
0.69,,,,,,,,,f,blue,5d5f0b2e0e71190019c643f7,2021-09-27_14h35.03.600,forced_choiceRT_color,2021.2.3,Win32,59.95922773,,,,,,,,4,Ontime,short,f,1,2.039,4,0,16,1,1,,,,,
0.21,,,,,,,,,k,purple,5d5f0b2e0e71190019c643f7,2021-09-27_14h35.03.600,forced_choiceRT_color,2021.2.3,Win32,59.95922773,,,,,,,,4,Ontime,short,k,1,1.9649,4,1,17,3,1,,,,,
0.44,,,,,,,,,k,purple,5d5f0b2e0e71190019c643f7,2021-09-27_14h35.03.600,forced_choiceRT_color,2021.2.3,Win32,59.95922773,,,,,,,,4,Ontime,short,k,1,1.9425,4,2,18,3,1,,,,,
0.76,,,,,,,,,j,red,5d5f0b2e0e71190019c643f7,2021-09-27_14h35.03.600,forced_choiceRT_color,2021.2.3,Win32,59.95922773,,,,,,,,4,Ontime,short,j,1,1.9445,4,3,19,2,1,,,,,
1.58,,,,,,,,,f,blue,5d5f0b2e0e71190019c643f7,2021-09-27_14h35.03.600,forced_choiceRT_color,2021.2.3,Win32,59.95922773,,,,,,,,4,Ontime,short,f,1,2.0665,5,0,20,1,1,,,,,
0.83,,,,,,,,,d,orange,5d5f0b2e0e71190019c643f7,2021-09-27_14h35.03.600,forced_choiceRT_color,2021.2.3,Win32,59.95922773,,,,,,,,4,Ontime,short,d,1,1.9592,5,1,21,0,1,,,,,
0.1,,,,,,,,,j,red,5d5f0b2e0e71190019c643f7,2021-09-27_14h35.03.600,forced_choiceRT_color,2021.2.3,Win32,59.95922773,,,,,,,,4,Fast,short,j,1,1.8483,5,2,22,2,1,,,,,
0.96,,,,,,,,,f,blue,5d5f0b2e0e71190019c643f7,2021-09-27_14h35.03.600,forced_choiceRT_color,2021.2.3,Win32,59.95922773,,,,,,,,4,Ontime,short,f,1,2.0016,5,3,23,1,1,,,,,
0.87,,,,,,,,,k,purple,5d5f0b2e0e71190019c643f7,2021-09-27_14h35.03.600,forced_choiceRT_color,2021.2.3,Win32,59.95922773,,,,,,,,4,Ontime,short,k,1,2.089,6,0,24,3,1,,,,,
1.58,,,,,,,,,f,blue,5d5f0b2e0e71190019c643f7,2021-09-27_14h35.03.600,forced_choiceRT_color,2021.2.3,Win32,59.95922773,,,,,,,,4,Slow,short,j,0,2.2292,6,1,25,1,1,,,,,
1.49,,,,,,,,,d,orange,5d5f0b2e0e71190019c643f7,2021-09-27_14h35.03.600,forced_choiceRT_color,2021.2.3,Win32,59.95922773,,,,,,,,4,Ontime,short,d,1,2.0575,6,2,26,0,1,,,,,
0.54,,,,,,,,,k,purple,5d5f0b2e0e71190019c643f7,2021-09-27_14h35.03.600,forced_choiceRT_color,2021.2.3,Win32,59.95922773,,,,,,,,4,Ontime,short,k,1,1.908,6,3,27,3,1,,,,,
1.08,,,,,,,,,f,blue,5d5f0b2e0e71190019c643f7,2021-09-27_14h35.03.600,forced_choiceRT_color,2021.2.3,Win32,59.95922773,,,,,,,,4,Slow,short,f,1,2.1594,7,0,28,1,1,,,,,
0.23,,,,,,,,,j,red,5d5f0b2e0e71190019c643f7,2021-09-27_14h35.03.600,forced_choiceRT_color,2021.2.3,Win32,59.95922773,,,,,,,,4,Ontime,short,j,1,2.0595,7,1,29,2,1,,,,,
0.74,,,,,,,,,j,red,5d5f0b2e0e71190019c643f7,2021-09-27_14h35.03.600,forced_choiceRT_color,2021.2.3,Win32,59.95922773,,,,,,,,4,Ontime,short,j,1,2.0418,7,2,30,2,1,,,,,
1.22,,,,,,,,,d,orange,5d5f0b2e0e71190019c643f7,2021-09-27_14h35.03.600,forced_choiceRT_color,2021.2.3,Win32,59.95922773,,,,,,,,4,Ontime,short,d,1,1.9993,7,3,31,0,1,,,,,
0.97,,,,,,,,,k,purple,5d5f0b2e0e71190019c643f7,2021-09-27_14h35.03.600,forced_choiceRT_color,2021.2.3,Win32,59.95922773,,,,,,,,4,Ontime,short,k,1,1.9587,8,0,32,3,1,,,,,
1.7,,,,,,,,,k,purple,5d5f0b2e0e71190019c643f7,2021-09-27_14h35.03.600,forced_choiceRT_color,2021.2.3,Win32,59.95922773,,,,,,,,4,Slow,short,k,1,2.1682,8,1,33,3,1,,,,,
0.85,,,,,,,,,k,purple,5d5f0b2e0e71190019c643f7,2021-09-27_14h35.03.600,forced_choiceRT_color,2021.2.3,Win32,59.95922773,,,,,,,,4,Ontime,short,k,1,1.9507,8,2,34,3,1,,,,,
0.72,,,,,,,,,j,red,5d5f0b2e0e71190019c643f7,2021-09-27_14h35.03.600,forced_choiceRT_color,2021.2.3,Win32,59.95922773,,,,,,,,4,Ontime,short,j,1,1.9012,8,3,35,2,1,,,,,
0.26,,,,,,,,,d,orange,5d5f0b2e0e71190019c643f7,2021-09-27_14h35.03.600,forced_choiceRT_color,2021.2.3,Win32,59.95922773,,,,,,,,4,Ontime,short,d,1,1.9604,9,0,36,0,1,,,,,
1.89,,,,,,,,,d,orange,5d5f0b2e0e71190019c643f7,2021-09-27_14h35.03.600,forced_choiceRT_color,2021.2.3,Win32,59.95922773,,,,,,,,4,Slow,short,d,1,2.267,9,1,37,0,1,,,,,
0.85,,,,,,,,,f,blue,5d5f0b2e0e71190019c643f7,2021-09-27_14h35.03.600,forced_choiceRT_color,2021.2.3,Win32,59.95922773,,,,,,,,4,Ontime,short,f,1,1.9801,9,2,38,1,1,,,,,
1.74,,,,,,,,,d,orange,5d5f0b2e0e71190019c643f7,2021-09-27_14h35.03.600,forced_choiceRT_color,2021.2.3,Win32,59.95922773,,,,,,,,4,Ontime,short,d,1,1.9937,9,3,39,0,1,,,,,
,,,,,,,,,,,5d5f0b2e0e71190019c643f7,2021-09-27_14h35.03.600,forced_choiceRT_color,2021.2.3,Win32,59.95922773,,,,,,,,,,,,,,,,,,,3,0,3,0,1
0.13,,,,,,,,,j,red,5d5f0b2e0e71190019c643f7,2021-09-27_14h35.03.600,forced_choiceRT_color,2021.2.3,Win32,59.95922773,,,,,,,,5,Ontime,short,j,1,2.0553,0,0,0,2,1,,,,,
0.74,,,,,,,,,d,orange,5d5f0b2e0e71190019c643f7,2021-09-27_14h35.03.600,forced_choiceRT_color,2021.2.3,Win32,59.95922773,,,,,,,,5,Ontime,short,d,1,1.9722,0,1,1,0,1,,,,,
0.23,,,,,,,,,j,red,5d5f0b2e0e71190019c643f7,2021-09-27_14h35.03.600,forced_choiceRT_color,2021.2.3,Win32,59.95922773,,,,,,,,5,Ontime,short,j,1,1.9327,0,2,2,2,1,,,,,
1.66,,,,,,,,,f,blue,5d5f0b2e0e71190019c643f7,2021-09-27_14h35.03.600,forced_choiceRT_color,2021.2.3,Win32,59.95922773,,,,,,,,5,Slow,short,f,1,2.1909,0,3,3,1,1,,,,,
1.48,,,,,,,,,f,blue,5d5f0b2e0e71190019c643f7,2021-09-27_14h35.03.600,forced_choiceRT_color,2021.2.3,Win32,59.95922773,,,,,,,,5,Slow,short,f,1,2.1709,1,0,4,1,1,,,,,
0.39,,,,,,,,,j,red,5d5f0b2e0e71190019c643f7,2021-09-27_14h35.03.600,forced_choiceRT_color,2021.2.3,Win32,59.95922773,,,,,,,,5,Ontime,short,j,1,2.0551,1,1,5,2,1,,,,,
1.45,,,,,,,,,j,red,5d5f0b2e0e71190019c643f7,2021-09-27_14h35.03.600,forced_choiceRT_color,2021.2.3,Win32,59.95922773,,,,,,,,5,Ontime,short,j,1,2.0921,1,2,6,2,1,,,,,
1.13,,,,,,,,,f,blue,5d5f0b2e0e71190019c643f7,2021-09-27_14h35.03.600,forced_choiceRT_color,2021.2.3,Win32,59.95922773,,,,,,,,5,Fast,short,d,0,1.7836,1,3,7,1,1,,,,,
0.29,,,,,,,,,f,blue,5d5f0b2e0e71190019c643f7,2021-09-27_14h35.03.600,forced_choiceRT_color,2021.2.3,Win32,59.95922773,,,,,,,,5,Fast,short,f,1,1.7902,2,0,8,1,1,,,,,
0.12,,,,,,,,,d,orange,5d5f0b2e0e71190019c643f7,2021-09-27_14h35.03.600,forced_choiceRT_color,2021.2.3,Win32,59.95922773,,,,,,,,5,Ontime,short,j,0,2.0312,2,1,9,0,1,,,,,
1.45,,,,,,,,,j,red,5d5f0b2e0e71190019c643f7,2021-09-27_14h35.03.600,forced_choiceRT_color,2021.2.3,Win32,59.95922773,,,,,,,,5,Slow,short,j,1,2.1654,2,2,10,2,1,,,,,
1.06,,,,,,,,,d,orange,5d5f0b2e0e71190019c643f7,2021-09-27_14h35.03.600,forced_choiceRT_color,2021.2.3,Win32,59.95922773,,,,,,,,5,Fast,short,j,0,1.8572,2,3,11,0,1,,,,,
0.79,,,,,,,,,k,purple,5d5f0b2e0e71190019c643f7,2021-09-27_14h35.03.600,forced_choiceRT_color,2021.2.3,Win32,59.95922773,,,,,,,,5,Ontime,short,k,1,2.0579,3,0,12,3,1,,,,,
0.31,,,,,,,,,k,purple,5d5f0b2e0e71190019c643f7,2021-09-27_14h35.03.600,forced_choiceRT_color,2021.2.3,Win32,59.95922773,,,,,,,,5,Ontime,short,k,1,2.0069,3,1,13,3,1,,,,,
1.39,,,,,,,,,f,blue,5d5f0b2e0e71190019c643f7,2021-09-27_14h35.03.600,forced_choiceRT_color,2021.2.3,Win32,59.95922773,,,,,,,,5,Ontime,short,j,0,1.9993,3,2,14,1,1,,,,,
1.36,,,,,,,,,d,orange,5d5f0b2e0e71190019c643f7,2021-09-27_14h35.03.600,forced_choiceRT_color,2021.2.3,Win32,59.95922773,,,,,,,,5,Fast,short,f,0,0.0779,3,3,15,0,1,,,,,
0.75,,,,,,,,,k,purple,5d5f0b2e0e71190019c643f7,2021-09-27_14h35.03.600,forced_choiceRT_color,2021.2.3,Win32,59.95922773,,,,,,,,5,Ontime,short,k,1,2.0617,4,0,16,3,1,,,,,
1.36,,,,,,,,,f,blue,5d5f0b2e0e71190019c643f7,2021-09-27_14h35.03.600,forced_choiceRT_color,2021.2.3,Win32,59.95922773,,,,,,,,5,Slow,short,f,1,2.1632,4,1,17,1,1,,,,,
1.86,,,,,,,,,k,purple,5d5f0b2e0e71190019c643f7,2021-09-27_14h35.03.600,forced_choiceRT_color,2021.2.3,Win32,59.95922773,,,,,,,,5,Slow,short,f,0,2.2634,4,2,18,3,1,,,,,
1.85,,,,,,,,,k,purple,5d5f0b2e0e71190019c643f7,2021-09-27_14h35.03.600,forced_choiceRT_color,2021.2.3,Win32,59.95922773,,,,,,,,5,Slow,short,j,0,2.1922,4,3,19,3,1,,,,,
0.53,,,,,,,,,f,blue,5d5f0b2e0e71190019c643f7,2021-09-27_14h35.03.600,forced_choiceRT_color,2021.2.3,Win32,59.95922773,,,,,,,,5,Ontime,short,f,1,2.0227,5,0,20,1,1,,,,,
0.37,,,,,,,,,j,red,5d5f0b2e0e71190019c643f7,2021-09-27_14h35.03.600,forced_choiceRT_color,2021.2.3,Win32,59.95922773,,,,,,,,5,Ontime,short,j,1,2.0985,5,1,21,2,1,,,,,
0.14,,,,,,,,,k,purple,5d5f0b2e0e71190019c643f7,2021-09-27_14h35.03.600,forced_choiceRT_color,2021.2.3,Win32,59.95922773,,,,,,,,5,Ontime,short,k,1,2.0701,5,2,22,3,1,,,,,
1.33,,,,,,,,,f,blue,5d5f0b2e0e71190019c643f7,2021-09-27_14h35.03.600,forced_choiceRT_color,2021.2.3,Win32,59.95922773,,,,,,,,5,Ontime,short,f,1,1.9947,5,3,23,1,1,,,,,
1.19,,,,,,,,,d,orange,5d5f0b2e0e71190019c643f7,2021-09-27_14h35.03.600,forced_choiceRT_color,2021.2.3,Win32,59.95922773,,,,,,,,5,Slow,short,d,1,2.171,6,0,24,0,1,,,,,
0.55,,,,,,,,,j,red,5d5f0b2e0e71190019c643f7,2021-09-27_14h35.03.600,forced_choiceRT_color,2021.2.3,Win32,59.95922773,,,,,,,,5,Fast,short,j,1,1.7671,6,1,25,2,1,,,,,
1.73,,,,,,,,,j,red,5d5f0b2e0e71190019c643f7,2021-09-27_14h35.03.600,forced_choiceRT_color,2021.2.3,Win32,59.95922773,,,,,,,,5,Ontime,short,j,1,2.0501,6,2,26,2,1,,,,,
1.83,,,,,,,,,j,red,5d5f0b2e0e71190019c643f7,2021-09-27_14h35.03.600,forced_choiceRT_color,2021.2.3,Win32,59.95922773,,,,,,,,5,Ontime,short,j,1,2.0552,6,3,27,2,1,,,,,
0.58,,,,,,,,,d,orange,5d5f0b2e0e71190019c643f7,2021-09-27_14h35.03.600,forced_choiceRT_color,2021.2.3,Win32,59.95922773,,,,,,,,5,Ontime,short,d,1,2.0615,7,0,28,0,1,,,,,
1.2,,,,,,,,,k,purple,5d5f0b2e0e71190019c643f7,2021-09-27_14h35.03.600,forced_choiceRT_color,2021.2.3,Win32,59.95922773,,,,,,,,5,Ontime,short,k,1,1.9736,7,1,29,3,1,,,,,
1.2,,,,,,,,,d,orange,5d5f0b2e0e71190019c643f7,2021-09-27_14h35.03.600,forced_choiceRT_color,2021.2.3,Win32,59.95922773,,,,,,,,5,Fast,short,d,1,1.8753,7,2,30,0,1,,,,,
1.8,,,,,,,,,k,purple,5d5f0b2e0e71190019c643f7,2021-09-27_14h35.03.600,forced_choiceRT_color,2021.2.3,Win32,59.95922773,,,,,,,,5,Ontime,short,j,0,2.0911,7,3,31,3,1,,,,,
0.71,,,,,,,,,d,orange,5d5f0b2e0e71190019c643f7,2021-09-27_14h35.03.600,forced_choiceRT_color,2021.2.3,Win32,59.95922773,,,,,,,,5,Ontime,short,d,1,1.9751,8,0,32,0,1,,,,,
1.03,,,,,,,,,f,blue,5d5f0b2e0e71190019c643f7,2021-09-27_14h35.03.600,forced_choiceRT_color,2021.2.3,Win32,59.95922773,,,,,,,,5,Ontime,short,f,1,2.0639,8,1,33,1,1,,,,,
1.95,,,,,,,,,k,purple,5d5f0b2e0e71190019c643f7,2021-09-27_14h35.03.600,forced_choiceRT_color,2021.2.3,Win32,59.95922773,,,,,,,,5,Slow,short,d,0,2.1335,8,2,34,3,1,,,,,
0.96,,,,,,,,,k,purple,5d5f0b2e0e71190019c643f7,2021-09-27_14h35.03.600,forced_choiceRT_color,2021.2.3,Win32,59.95922773,,,,,,,,5,Fast,short,k,1,1.8905,8,3,35,3,1,,,,,
1.8,,,,,,,,,j,red,5d5f0b2e0e71190019c643f7,2021-09-27_14h35.03.600,forced_choiceRT_color,2021.2.3,Win32,59.95922773,,,,,,,,5,Slow,short,j,1,2.1706,9,0,36,2,1,,,,,
0.52,,,,,,,,,d,orange,5d5f0b2e0e71190019c643f7,2021-09-27_14h35.03.600,forced_choiceRT_color,2021.2.3,Win32,59.95922773,,,,,,,,5,Ontime,short,d,1,2.0492,9,1,37,0,1,,,,,
0.26,,,,,,,,,d,orange,5d5f0b2e0e71190019c643f7,2021-09-27_14h35.03.600,forced_choiceRT_color,2021.2.3,Win32,59.95922773,,,,,,,,5,Ontime,short,d,1,2.0997,9,2,38,0,1,,,,,
0.64,,,,,,,,,f,blue,5d5f0b2e0e71190019c643f7,2021-09-27_14h35.03.600,forced_choiceRT_color,2021.2.3,Win32,59.95922773,,,,,,,,5,Ontime,short,f,1,1.9912,9,3,39,1,1,,,,,
,,,,,,,,,,,5d5f0b2e0e71190019c643f7,2021-09-27_14h35.03.600,forced_choiceRT_color,2021.2.3,Win32,59.95922773,,,,,,,,,,,,,,,,,,,4,0,4,0,1
1.85,,,,,,,,,d,orange,5d5f0b2e0e71190019c643f7,2021-09-27_14h35.03.600,forced_choiceRT_color,2021.2.3,Win32,59.95922773,,,,,,,,6,Slow,short,d,1,2.2834,0,0,0,0,1,,,,,
1.62,,,,,,,,,j,red,5d5f0b2e0e71190019c643f7,2021-09-27_14h35.03.600,forced_choiceRT_color,2021.2.3,Win32,59.95922773,,,,,,,,6,Ontime,short,j,1,2.0463,0,1,1,2,1,,,,,
0.42,,,,,,,,,j,red,5d5f0b2e0e71190019c643f7,2021-09-27_14h35.03.600,forced_choiceRT_color,2021.2.3,Win32,59.95922773,,,,,,,,6,Ontime,short,j,1,2.0269,0,2,2,2,1,,,,,
0.68,,,,,,,,,d,orange,5d5f0b2e0e71190019c643f7,2021-09-27_14h35.03.600,forced_choiceRT_color,2021.2.3,Win32,59.95922773,,,,,,,,6,Ontime,short,d,1,2.0665,0,3,3,0,1,,,,,
1.37,,,,,,,,,f,blue,5d5f0b2e0e71190019c643f7,2021-09-27_14h35.03.600,forced_choiceRT_color,2021.2.3,Win32,59.95922773,,,,,,,,6,Ontime,short,k,0,2.0221,1,0,4,1,1,,,,,
0.65,,,,,,,,,k,purple,5d5f0b2e0e71190019c643f7,2021-09-27_14h35.03.600,forced_choiceRT_color,2021.2.3,Win32,59.95922773,,,,,,,,6,Ontime,short,k,1,2.0688,1,1,5,3,1,,,,,
1.78,,,,,,,,,f,blue,5d5f0b2e0e71190019c643f7,2021-09-27_14h35.03.600,forced_choiceRT_color,2021.2.3,Win32,59.95922773,,,,,,,,6,Slow,short,f,1,2.1857,1,2,6,1,1,,,,,
0.17,,,,,,,,,f,blue,5d5f0b2e0e71190019c643f7,2021-09-27_14h35.03.600,forced_choiceRT_color,2021.2.3,Win32,59.95922773,,,,,,,,6,Slow,short,f,1,2.1012,1,3,7,1,1,,,,,
0.45,,,,,,,,,d,orange,5d5f0b2e0e71190019c643f7,2021-09-27_14h35.03.600,forced_choiceRT_color,2021.2.3,Win32,59.95922773,,,,,,,,6,Ontime,short,d,1,1.9829,2,0,8,0,1,,,,,
1.09,,,,,,,,,k,purple,5d5f0b2e0e71190019c643f7,2021-09-27_14h35.03.600,forced_choiceRT_color,2021.2.3,Win32,59.95922773,,,,,,,,6,Slow,short,k,1,2.1873,2,1,9,3,1,,,,,
0.55,,,,,,,,,f,blue,5d5f0b2e0e71190019c643f7,2021-09-27_14h35.03.600,forced_choiceRT_color,2021.2.3,Win32,59.95922773,,,,,,,,6,Ontime,short,f,1,2.0232,2,2,10,1,1,,,,,
1.3,,,,,,,,,d,orange,5d5f0b2e0e71190019c643f7,2021-09-27_14h35.03.600,forced_choiceRT_color,2021.2.3,Win32,59.95922773,,,,,,,,6,Ontime,short,d,1,2.006,2,3,11,0,1,,,,,
1.94,,,,,,,,,j,red,5d5f0b2e0e71190019c643f7,2021-09-27_14h35.03.600,forced_choiceRT_color,2021.2.3,Win32,59.95922773,,,,,,,,6,Slow,short,j,1,2.2213,3,0,12,2,1,,,,,
0,,,,,,,,,j,red,5d5f0b2e0e71190019c643f7,2021-09-27_14h35.03.600,forced_choiceRT_color,2021.2.3,Win32,59.95922773,,,,,,,,6,Fast,short,j,1,1.8633,3,1,13,2,1,,,,,
0.76,,,,,,,,,j,red,5d5f0b2e0e71190019c643f7,2021-09-27_14h35.03.600,forced_choiceRT_color,2021.2.3,Win32,59.95922773,,,,,,,,6,Ontime,short,j,1,1.9945,3,2,14,2,1,,,,,
1.35,,,,,,,,,d,orange,5d5f0b2e0e71190019c643f7,2021-09-27_14h35.03.600,forced_choiceRT_color,2021.2.3,Win32,59.95922773,,,,,,,,6,Ontime,short,d,1,2.063,3,3,15,0,1,,,,,
0.63,,,,,,,,,j,red,5d5f0b2e0e71190019c643f7,2021-09-27_14h35.03.600,forced_choiceRT_color,2021.2.3,Win32,59.95922773,,,,,,,,6,Ontime,short,j,1,1.9726,4,0,16,2,1,,,,,
1.1,,,,,,,,,k,purple,5d5f0b2e0e71190019c643f7,2021-09-27_14h35.03.600,forced_choiceRT_color,2021.2.3,Win32,59.95922773,,,,,,,,6,Ontime,short,d,0,1.9969,4,1,17,3,1,,,,,
1.21,,,,,,,,,k,purple,5d5f0b2e0e71190019c643f7,2021-09-27_14h35.03.600,forced_choiceRT_color,2021.2.3,Win32,59.95922773,,,,,,,,6,Ontime,short,k,1,2.0133,4,2,18,3,1,,,,,
1.33,,,,,,,,,d,orange,5d5f0b2e0e71190019c643f7,2021-09-27_14h35.03.600,forced_choiceRT_color,2021.2.3,Win32,59.95922773,,,,,,,,6,Ontime,short,d,1,1.9403,4,3,19,0,1,,,,,
0.71,,,,,,,,,f,blue,5d5f0b2e0e71190019c643f7,2021-09-27_14h35.03.600,forced_choiceRT_color,2021.2.3,Win32,59.95922773,,,,,,,,6,Ontime,short,f,1,1.9981,5,0,20,1,1,,,,,
1.17,,,,,,,,,k,purple,5d5f0b2e0e71190019c643f7,2021-09-27_14h35.03.600,forced_choiceRT_color,2021.2.3,Win32,59.95922773,,,,,,,,6,Ontime,short,k,1,1.9502,5,1,21,3,1,,,,,
0.05,,,,,,,,,f,blue,5d5f0b2e0e71190019c643f7,2021-09-27_14h35.03.600,forced_choiceRT_color,2021.2.3,Win32,59.95922773,,,,,,,,6,Fast,short,f,1,1.8625,5,2,22,1,1,,,,,
0.05,,,,,,,,,f,blue,5d5f0b2e0e71190019c643f7,2021-09-27_14h35.03.600,forced_choiceRT_color,2021.2.3,Win32,59.95922773,,,,,,,,6,Ontime,short,f,1,1.9531,5,3,23,1,1,,,,,
1.66,,,,,,,,,d,orange,5d5f0b2e0e71190019c643f7,2021-09-27_14h35.03.600,forced_choiceRT_color,2021.2.3,Win32,59.95922773,,,,,,,,6,Ontime,short,f,0,1.9945,6,0,24,0,1,,,,,
1.12,,,,,,,,,d,orange,5d5f0b2e0e71190019c643f7,2021-09-27_14h35.03.600,forced_choiceRT_color,2021.2.3,Win32,59.95922773,,,,,,,,6,Fast,short,d,1,1.5939,6,1,25,0,1,,,,,
1.68,,,,,,,,,d,orange,5d5f0b2e0e71190019c643f7,2021-09-27_14h35.03.600,forced_choiceRT_color,2021.2.3,Win32,59.95922773,,,,,,,,6,Slow,short,d,1,2.1575,6,2,26,0,1,,,,,
1.74,,,,,,,,,f,blue,5d5f0b2e0e71190019c643f7,2021-09-27_14h35.03.600,forced_choiceRT_color,2021.2.3,Win32,59.95922773,,,,,,,,6,Ontime,short,d,0,2.0261,6,3,27,1,1,,,,,
0.57,,,,,,,,,d,orange,5d5f0b2e0e71190019c643f7,2021-09-27_14h35.03.600,forced_choiceRT_color,2021.2.3,Win32,59.95922773,,,,,,,,6,Ontime,short,d,1,2.0012,7,0,28,0,1,,,,,
1.21,,,,,,,,,j,red,5d5f0b2e0e71190019c643f7,2021-09-27_14h35.03.600,forced_choiceRT_color,2021.2.3,Win32,59.95922773,,,,,,,,6,Fast,short,j,1,1.8718,7,1,29,2,1,,,,,
1.28,,,,,,,,,j,red,5d5f0b2e0e71190019c643f7,2021-09-27_14h35.03.600,forced_choiceRT_color,2021.2.3,Win32,59.95922773,,,,,,,,6,Ontime,short,j,1,1.928,7,2,30,2,1,,,,,
0.27,,,,,,,,,k,purple,5d5f0b2e0e71190019c643f7,2021-09-27_14h35.03.600,forced_choiceRT_color,2021.2.3,Win32,59.95922773,,,,,,,,6,Ontime,short,k,1,2.0346,7,3,31,3,1,,,,,
1.1,,,,,,,,,k,purple,5d5f0b2e0e71190019c643f7,2021-09-27_14h35.03.600,forced_choiceRT_color,2021.2.3,Win32,59.95922773,,,,,,,,6,Slow,short,k,1,2.1206,8,0,32,3,1,,,,,
1.82,,,,,,,,,k,purple,5d5f0b2e0e71190019c643f7,2021-09-27_14h35.03.600,forced_choiceRT_color,2021.2.3,Win32,59.95922773,,,,,,,,6,Slow,short,k,1,2.1456,8,1,33,3,1,,,,,
0.25,,,,,,,,,k,purple,5d5f0b2e0e71190019c643f7,2021-09-27_14h35.03.600,forced_choiceRT_color,2021.2.3,Win32,59.95922773,,,,,,,,6,Ontime,short,k,1,1.9311,8,2,34,3,1,,,,,
0.37,,,,,,,,,j,red,5d5f0b2e0e71190019c643f7,2021-09-27_14h35.03.600,forced_choiceRT_color,2021.2.3,Win32,59.95922773,,,,,,,,6,Ontime,short,j,1,1.91,8,3,35,2,1,,,,,
1.29,,,,,,,,,f,blue,5d5f0b2e0e71190019c643f7,2021-09-27_14h35.03.600,forced_choiceRT_color,2021.2.3,Win32,59.95922773,,,,,,,,6,Ontime,short,f,1,1.9689,9,0,36,1,1,,,,,
0.46,,,,,,,,,f,blue,5d5f0b2e0e71190019c643f7,2021-09-27_14h35.03.600,forced_choiceRT_color,2021.2.3,Win32,59.95922773,,,,,,,,6,Fast,short,f,1,1.7456,9,1,37,1,1,,,,,
1.13,,,,,,,,,j,red,5d5f0b2e0e71190019c643f7,2021-09-27_14h35.03.600,forced_choiceRT_color,2021.2.3,Win32,59.95922773,,,,,,,,6,Ontime,short,j,1,1.9033,9,2,38,2,1,,,,,
0.17,,,,,,,,,k,purple,5d5f0b2e0e71190019c643f7,2021-09-27_14h35.03.600,forced_choiceRT_color,2021.2.3,Win32,59.95922773,,,,,,,,6,Fast,short,k,1,1.8024,9,3,39,3,1,,,,,
,,,,,,,,,,,5d5f0b2e0e71190019c643f7,2021-09-27_14h35.03.600,forced_choiceRT_color,2021.2.3,Win32,59.95922773,,,,,,,,,,,,,,,,,,,5,0,5,0,1
1.45,,,,,,,,,d,orange,5d5f0b2e0e71190019c643f7,2021-09-27_14h35.03.600,forced_choiceRT_color,2021.2.3,Win32,59.95922773,,,,,,,,7,Slow,short,d,1,2.1157,0,0,0,0,1,,,,,
0.01,,,,,,,,,f,blue,5d5f0b2e0e71190019c643f7,2021-09-27_14h35.03.600,forced_choiceRT_color,2021.2.3,Win32,59.95922773,,,,,,,,7,Ontime,short,j,0,1.9314,0,1,1,1,1,,,,,
1.38,,,,,,,,,j,red,5d5f0b2e0e71190019c643f7,2021-09-27_14h35.03.600,forced_choiceRT_color,2021.2.3,Win32,59.95922773,,,,,,,,7,Ontime,short,j,1,2.0059,0,2,2,2,1,,,,,
0.94,,,,,,,,,f,blue,5d5f0b2e0e71190019c643f7,2021-09-27_14h35.03.600,forced_choiceRT_color,2021.2.3,Win32,59.95922773,,,,,,,,7,Ontime,short,f,1,1.9728,0,3,3,1,1,,,,,
1.66,,,,,,,,,d,orange,5d5f0b2e0e71190019c643f7,2021-09-27_14h35.03.600,forced_choiceRT_color,2021.2.3,Win32,59.95922773,,,,,,,,7,Ontime,short,d,1,1.9672,1,0,4,0,1,,,,,
1.78,,,,,,,,,f,blue,5d5f0b2e0e71190019c643f7,2021-09-27_14h35.03.600,forced_choiceRT_color,2021.2.3,Win32,59.95922773,,,,,,,,7,Ontime,short,j,0,2.0541,1,1,5,1,1,,,,,
1.92,,,,,,,,,f,blue,5d5f0b2e0e71190019c643f7,2021-09-27_14h35.03.600,forced_choiceRT_color,2021.2.3,Win32,59.95922773,,,,,,,,7,Ontime,short,d,0,2.0276,1,2,6,1,1,,,,,
0.8,,,,,,,,,j,red,5d5f0b2e0e71190019c643f7,2021-09-27_14h35.03.600,forced_choiceRT_color,2021.2.3,Win32,59.95922773,,,,,,,,7,Ontime,short,j,1,2.0423,1,3,7,2,1,,,,,
0.1,,,,,,,,,d,orange,5d5f0b2e0e71190019c643f7,2021-09-27_14h35.03.600,forced_choiceRT_color,2021.2.3,Win32,59.95922773,,,,,,,,7,Ontime,short,d,1,2.0328,2,0,8,0,1,,,,,
1.85,,,,,,,,,k,purple,5d5f0b2e0e71190019c643f7,2021-09-27_14h35.03.600,forced_choiceRT_color,2021.2.3,Win32,59.95922773,,,,,,,,7,Ontime,short,j,0,2.0861,2,1,9,3,1,,,,,
0.81,,,,,,,,,d,orange,5d5f0b2e0e71190019c643f7,2021-09-27_14h35.03.600,forced_choiceRT_color,2021.2.3,Win32,59.95922773,,,,,,,,7,Ontime,short,d,1,2.0341,2,2,10,0,1,,,,,
0.56,,,,,,,,,j,red,5d5f0b2e0e71190019c643f7,2021-09-27_14h35.03.600,forced_choiceRT_color,2021.2.3,Win32,59.95922773,,,,,,,,7,Ontime,short,j,1,1.9918,2,3,11,2,1,,,,,
1.77,,,,,,,,,j,red,5d5f0b2e0e71190019c643f7,2021-09-27_14h35.03.600,forced_choiceRT_color,2021.2.3,Win32,59.95922773,,,,,,,,7,Slow,short,j,1,2.1603,3,0,12,2,1,,,,,
1.12,,,,,,,,,d,orange,5d5f0b2e0e71190019c643f7,2021-09-27_14h35.03.600,forced_choiceRT_color,2021.2.3,Win32,59.95922773,,,,,,,,7,Ontime,short,d,1,1.9915,3,1,13,0,1,,,,,
0.1,,,,,,,,,k,purple,5d5f0b2e0e71190019c643f7,2021-09-27_14h35.03.600,forced_choiceRT_color,2021.2.3,Win32,59.95922773,,,,,,,,7,Ontime,short,k,1,2.0366,3,2,14,3,1,,,,,
1.63,,,,,,,,,f,blue,5d5f0b2e0e71190019c643f7,2021-09-27_14h35.03.600,forced_choiceRT_color,2021.2.3,Win32,59.95922773,,,,,,,,7,Ontime,short,j,0,2.0982,3,3,15,1,1,,,,,
1.31,,,,,,,,,k,purple,5d5f0b2e0e71190019c643f7,2021-09-27_14h35.03.600,forced_choiceRT_color,2021.2.3,Win32,59.95922773,,,,,,,,7,Fast,short,j,0,1.783,4,0,16,3,1,,,,,
1.6,,,,,,,,,k,purple,5d5f0b2e0e71190019c643f7,2021-09-27_14h35.03.600,forced_choiceRT_color,2021.2.3,Win32,59.95922773,,,,,,,,7,Slow,short,k,1,2.1138,4,1,17,3,1,,,,,
0.05,,,,,,,,,d,orange,5d5f0b2e0e71190019c643f7,2021-09-27_14h35.03.600,forced_choiceRT_color,2021.2.3,Win32,59.95922773,,,,,,,,7,Ontime,short,d,1,1.9362,4,2,18,0,1,,,,,
1.75,,,,,,,,,j,red,5d5f0b2e0e71190019c643f7,2021-09-27_14h35.03.600,forced_choiceRT_color,2021.2.3,Win32,59.95922773,,,,,,,,7,Ontime,short,k,0,2.0981,4,3,19,2,1,,,,,
1.63,,,,,,,,,d,orange,5d5f0b2e0e71190019c643f7,2021-09-27_14h35.03.600,forced_choiceRT_color,2021.2.3,Win32,59.95922773,,,,,,,,7,Ontime,short,d,1,2.0384,5,0,20,0,1,,,,,
1.23,,,,,,,,,f,blue,5d5f0b2e0e71190019c643f7,2021-09-27_14h35.03.600,forced_choiceRT_color,2021.2.3,Win32,59.95922773,,,,,,,,7,Fast,short,f,1,1.8042,5,1,21,1,1,,,,,
0.25,,,,,,,,,f,blue,5d5f0b2e0e71190019c643f7,2021-09-27_14h35.03.600,forced_choiceRT_color,2021.2.3,Win32,59.95922773,,,,,,,,7,Ontime,short,f,1,1.9998,5,2,22,1,1,,,,,
1.57,,,,,,,,,d,orange,5d5f0b2e0e71190019c643f7,2021-09-27_14h35.03.600,forced_choiceRT_color,2021.2.3,Win32,59.95922773,,,,,,,,7,Ontime,short,j,0,1.9257,5,3,23,0,1,,,,,
0.92,,,,,,,,,f,blue,5d5f0b2e0e71190019c643f7,2021-09-27_14h35.03.600,forced_choiceRT_color,2021.2.3,Win32,59.95922773,,,,,,,,7,Fast,short,d,0,0.0891,6,0,24,1,1,,,,,
1.09,,,,,,,,,j,red,5d5f0b2e0e71190019c643f7,2021-09-27_14h35.03.600,forced_choiceRT_color,2021.2.3,Win32,59.95922773,,,,,,,,7,Ontime,short,j,1,2.009,6,1,25,2,1,,,,,
1.72,,,,,,,,,k,purple,5d5f0b2e0e71190019c643f7,2021-09-27_14h35.03.600,forced_choiceRT_color,2021.2.3,Win32,59.95922773,,,,,,,,7,Slow,short,k,1,2.2868,6,2,26,3,1,,,,,
1.41,,,,,,,,,k,purple,5d5f0b2e0e71190019c643f7,2021-09-27_14h35.03.600,forced_choiceRT_color,2021.2.3,Win32,59.95922773,,,,,,,,7,Ontime,short,j,0,2.0313,6,3,27,3,1,,,,,
1.89,,,,,,,,,f,blue,5d5f0b2e0e71190019c643f7,2021-09-27_14h35.03.600,forced_choiceRT_color,2021.2.3,Win32,59.95922773,,,,,,,,7,Slow,short,j,0,2.2304,7,0,28,1,1,,,,,
0.62,,,,,,,,,j,red,5d5f0b2e0e71190019c643f7,2021-09-27_14h35.03.600,forced_choiceRT_color,2021.2.3,Win32,59.95922773,,,,,,,,7,Ontime,short,j,1,1.9681,7,1,29,2,1,,,,,
1.14,,,,,,,,,j,red,5d5f0b2e0e71190019c643f7,2021-09-27_14h35.03.600,forced_choiceRT_color,2021.2.3,Win32,59.95922773,,,,,,,,7,Ontime,short,j,1,1.9924,7,2,30,2,1,,,,,
1.62,,,,,,,,,k,purple,5d5f0b2e0e71190019c643f7,2021-09-27_14h35.03.600,forced_choiceRT_color,2021.2.3,Win32,59.95922773,,,,,,,,7,Ontime,short,k,1,2.0081,7,3,31,3,1,,,,,
1.36,,,,,,,,,k,purple,5d5f0b2e0e71190019c643f7,2021-09-27_14h35.03.600,forced_choiceRT_color,2021.2.3,Win32,59.95922773,,,,,,,,7,Fast,short,j,0,1.7755,8,0,32,3,1,,,,,
0.19,,,,,,,,,j,red,5d5f0b2e0e71190019c643f7,2021-09-27_14h35.03.600,forced_choiceRT_color,2021.2.3,Win32,59.95922773,,,,,,,,7,Fast,short,j,1,1.8944,8,1,33,2,1,,,,,
1.3,,,,,,,,,f,blue,5d5f0b2e0e71190019c643f7,2021-09-27_14h35.03.600,forced_choiceRT_color,2021.2.3,Win32,59.95922773,,,,,,,,7,Ontime,short,f,1,1.9546,8,2,34,1,1,,,,,
1.88,,,,,,,,,d,orange,5d5f0b2e0e71190019c643f7,2021-09-27_14h35.03.600,forced_choiceRT_color,2021.2.3,Win32,59.95922773,,,,,,,,7,Slow,short,j,0,2.3239,8,3,35,0,1,,,,,
1.68,,,,,,,,,k,purple,5d5f0b2e0e71190019c643f7,2021-09-27_14h35.03.600,forced_choiceRT_color,2021.2.3,Win32,59.95922773,,,,,,,,7,Slow,short,k,1,2.1857,9,0,36,3,1,,,,,
1.73,,,,,,,,,d,orange,5d5f0b2e0e71190019c643f7,2021-09-27_14h35.03.600,forced_choiceRT_color,2021.2.3,Win32,59.95922773,,,,,,,,7,Slow,short,f,0,2.2065,9,1,37,0,1,,,,,
1.66,,,,,,,,,j,red,5d5f0b2e0e71190019c643f7,2021-09-27_14h35.03.600,forced_choiceRT_color,2021.2.3,Win32,59.95922773,,,,,,,,7,Slow,short,j,1,2.1278,9,2,38,2,1,,,,,
1.8,,,,,,,,,k,purple,5d5f0b2e0e71190019c643f7,2021-09-27_14h35.03.600,forced_choiceRT_color,2021.2.3,Win32,59.95922773,,,,,,,,7,Slow,short,d,0,2.1897,9,3,39,3,1,,,,,
,,,,,,,,,,,5d5f0b2e0e71190019c643f7,2021-09-27_14h35.03.600,forced_choiceRT_color,2021.2.3,Win32,59.95922773,,,,,,,,,,,,,,,,,,,6,0,6,0,1
1.21,,,,,,,,,k,purple,5d5f0b2e0e71190019c643f7,2021-09-27_14h35.03.600,forced_choiceRT_color,2021.2.3,Win32,59.95922773,,,,,,,,8,Ontime,short,k,1,1.9335,0,0,0,3,1,,,,,
0.85,,,,,,,,,d,orange,5d5f0b2e0e71190019c643f7,2021-09-27_14h35.03.600,forced_choiceRT_color,2021.2.3,Win32,59.95922773,,,,,,,,8,Fast,short,d,1,1.8068,0,1,1,0,1,,,,,
1.99,,,,,,,,,j,red,5d5f0b2e0e71190019c643f7,2021-09-27_14h35.03.600,forced_choiceRT_color,2021.2.3,Win32,59.95922773,,,,,,,,8,Slow,short,j,1,2.3136,0,2,2,2,1,,,,,
1.76,,,,,,,,,d,orange,5d5f0b2e0e71190019c643f7,2021-09-27_14h35.03.600,forced_choiceRT_color,2021.2.3,Win32,59.95922773,,,,,,,,8,Ontime,short,k,0,2.0591,0,3,3,0,1,,,,,
0.95,,,,,,,,,k,purple,5d5f0b2e0e71190019c643f7,2021-09-27_14h35.03.600,forced_choiceRT_color,2021.2.3,Win32,59.95922773,,,,,,,,8,Fast,short,d,0,0.1254,1,0,4,3,1,,,,,
1.98,,,,,,,,,f,blue,5d5f0b2e0e71190019c643f7,2021-09-27_14h35.03.600,forced_choiceRT_color,2021.2.3,Win32,59.95922773,,,,,,,,8,Slow,short,k,0,2.316,1,1,5,1,1,,,,,
0,,,,,,,,,k,purple,5d5f0b2e0e71190019c643f7,2021-09-27_14h35.03.600,forced_choiceRT_color,2021.2.3,Win32,59.95922773,,,,,,,,8,Ontime,short,k,1,2.0429,1,2,6,3,1,,,,,
1.64,,,,,,,,,j,red,5d5f0b2e0e71190019c643f7,2021-09-27_14h35.03.600,forced_choiceRT_color,2021.2.3,Win32,59.95922773,,,,,,,,8,Ontime,short,d,0,1.9979,1,3,7,2,1,,,,,
1.17,,,,,,,,,d,orange,5d5f0b2e0e71190019c643f7,2021-09-27_14h35.03.600,forced_choiceRT_color,2021.2.3,Win32,59.95922773,,,,,,,,8,Fast,short,d,1,1.6062,2,0,8,0,1,,,,,
1.97,,,,,,,,,d,orange,5d5f0b2e0e71190019c643f7,2021-09-27_14h35.03.600,forced_choiceRT_color,2021.2.3,Win32,59.95922773,,,,,,,,8,Slow,short,d,1,2.1527,2,1,9,0,1,,,,,
1.8,,,,,,,,,f,blue,5d5f0b2e0e71190019c643f7,2021-09-27_14h35.03.600,forced_choiceRT_color,2021.2.3,Win32,59.95922773,,,,,,,,8,Slow,short,d,0,2.1812,2,2,10,1,1,,,,,
0.66,,,,,,,,,j,red,5d5f0b2e0e71190019c643f7,2021-09-27_14h35.03.600,forced_choiceRT_color,2021.2.3,Win32,59.95922773,,,,,,,,8,Ontime,short,j,1,2.0976,2,3,11,2,1,,,,,
0.63,,,,,,,,,j,red,5d5f0b2e0e71190019c643f7,2021-09-27_14h35.03.600,forced_choiceRT_color,2021.2.3,Win32,59.95922773,,,,,,,,8,Ontime,short,j,1,2.0692,3,0,12,2,1,,,,,
1,,,,,,,,,j,red,5d5f0b2e0e71190019c643f7,2021-09-27_14h35.03.600,forced_choiceRT_color,2021.2.3,Win32,59.95922773,,,,,,,,8,Fast,short,j,1,1.8662,3,1,13,2,1,,,,,
0.9,,,,,,,,,k,purple,5d5f0b2e0e71190019c643f7,2021-09-27_14h35.03.600,forced_choiceRT_color,2021.2.3,Win32,59.95922773,,,,,,,,8,Ontime,short,k,1,1.9297,3,2,14,3,1,,,,,
1.26,,,,,,,,,j,red,5d5f0b2e0e71190019c643f7,2021-09-27_14h35.03.600,forced_choiceRT_color,2021.2.3,Win32,59.95922773,,,,,,,,8,Fast,short,j,1,1.6844,3,3,15,2,1,,,,,
0.23,,,,,,,,,j,red,5d5f0b2e0e71190019c643f7,2021-09-27_14h35.03.600,forced_choiceRT_color,2021.2.3,Win32,59.95922773,,,,,,,,8,Ontime,short,j,1,1.9884,4,0,16,2,1,,,,,
0.62,,,,,,,,,k,purple,5d5f0b2e0e71190019c643f7,2021-09-27_14h35.03.600,forced_choiceRT_color,2021.2.3,Win32,59.95922773,,,,,,,,8,Ontime,short,k,1,2.0351,4,1,17,3,1,,,,,
0.96,,,,,,,,,d,orange,5d5f0b2e0e71190019c643f7,2021-09-27_14h35.03.600,forced_choiceRT_color,2021.2.3,Win32,59.95922773,,,,,,,,8,Fast,short,d,1,1.8977,4,2,18,0,1,,,,,
1.25,,,,,,,,,d,orange,5d5f0b2e0e71190019c643f7,2021-09-27_14h35.03.600,forced_choiceRT_color,2021.2.3,Win32,59.95922773,,,,,,,,8,Ontime,short,d,1,2.065,4,3,19,0,1,,,,,
1.04,,,,,,,,,d,orange,5d5f0b2e0e71190019c643f7,2021-09-27_14h35.03.600,forced_choiceRT_color,2021.2.3,Win32,59.95922773,,,,,,,,8,Ontime,short,d,1,2.0061,5,0,20,0,1,,,,,
0.28,,,,,,,,,j,red,5d5f0b2e0e71190019c643f7,2021-09-27_14h35.03.600,forced_choiceRT_color,2021.2.3,Win32,59.95922773,,,,,,,,8,Ontime,short,j,1,2.0378,5,1,21,2,1,,,,,
0.99,,,,,,,,,f,blue,5d5f0b2e0e71190019c643f7,2021-09-27_14h35.03.600,forced_choiceRT_color,2021.2.3,Win32,59.95922773,,,,,,,,8,Ontime,short,f,1,2.0914,5,2,22,1,1,,,,,
1.9,,,,,,,,,j,red,5d5f0b2e0e71190019c643f7,2021-09-27_14h35.03.600,forced_choiceRT_color,2021.2.3,Win32,59.95922773,,,,,,,,8,Slow,short,j,1,2.1269,5,3,23,2,1,,,,,
1.23,,,,,,,,,k,purple,5d5f0b2e0e71190019c643f7,2021-09-27_14h35.03.600,forced_choiceRT_color,2021.2.3,Win32,59.95922773,,,,,,,,8,Ontime,short,k,1,1.9666,6,0,24,3,1,,,,,
0.41,,,,,,,,,f,blue,5d5f0b2e0e71190019c643f7,2021-09-27_14h35.03.600,forced_choiceRT_color,2021.2.3,Win32,59.95922773,,,,,,,,8,Ontime,short,f,1,1.9576,6,1,25,1,1,,,,,
0.06,,,,,,,,,k,purple,5d5f0b2e0e71190019c643f7,2021-09-27_14h35.03.600,forced_choiceRT_color,2021.2.3,Win32,59.95922773,,,,,,,,8,Ontime,short,k,1,2.0079,6,2,26,3,1,,,,,
0.73,,,,,,,,,f,blue,5d5f0b2e0e71190019c643f7,2021-09-27_14h35.03.600,forced_choiceRT_color,2021.2.3,Win32,59.95922773,,,,,,,,8,Ontime,short,f,1,2.0629,6,3,27,1,1,,,,,
1.89,,,,,,,,,k,purple,5d5f0b2e0e71190019c643f7,2021-09-27_14h35.03.600,forced_choiceRT_color,2021.2.3,Win32,59.95922773,,,,,,,,8,Slow,short,j,0,2.2281,7,0,28,3,1,,,,,
0.67,,,,,,,,,d,orange,5d5f0b2e0e71190019c643f7,2021-09-27_14h35.03.600,forced_choiceRT_color,2021.2.3,Win32,59.95922773,,,,,,,,8,Ontime,short,d,1,1.9926,7,1,29,0,1,,,,,
1.22,,,,,,,,,k,purple,5d5f0b2e0e71190019c643f7,2021-09-27_14h35.03.600,forced_choiceRT_color,2021.2.3,Win32,59.95922773,,,,,,,,8,Ontime,short,k,1,2.0699,7,2,30,3,1,,,,,
1.9,,,,,,,,,k,purple,5d5f0b2e0e71190019c643f7,2021-09-27_14h35.03.600,forced_choiceRT_color,2021.2.3,Win32,59.95922773,,,,,,,,8,Slow,short,j,0,2.2587,7,3,31,3,1,,,,,
1.17,,,,,,,,,f,blue,5d5f0b2e0e71190019c643f7,2021-09-27_14h35.03.600,forced_choiceRT_color,2021.2.3,Win32,59.95922773,,,,,,,,8,Ontime,short,j,0,2.0591,8,0,32,1,1,,,,,
0.96,,,,,,,,,j,red,5d5f0b2e0e71190019c643f7,2021-09-27_14h35.03.600,forced_choiceRT_color,2021.2.3,Win32,59.95922773,,,,,,,,8,Ontime,short,j,1,2.0004,8,1,33,2,1,,,,,
0.99,,,,,,,,,f,blue,5d5f0b2e0e71190019c643f7,2021-09-27_14h35.03.600,forced_choiceRT_color,2021.2.3,Win32,59.95922773,,,,,,,,8,Fast,short,f,1,1.8638,8,2,34,1,1,,,,,
1.24,,,,,,,,,f,blue,5d5f0b2e0e71190019c643f7,2021-09-27_14h35.03.600,forced_choiceRT_color,2021.2.3,Win32,59.95922773,,,,,,,,8,Ontime,short,f,1,1.9955,8,3,35,1,1,,,,,
1.65,,,,,,,,,d,orange,5d5f0b2e0e71190019c643f7,2021-09-27_14h35.03.600,forced_choiceRT_color,2021.2.3,Win32,59.95922773,,,,,,,,8,Slow,short,d,1,2.1194,9,0,36,0,1,,,,,
0.69,,,,,,,,,d,orange,5d5f0b2e0e71190019c643f7,2021-09-27_14h35.03.600,forced_choiceRT_color,2021.2.3,Win32,59.95922773,,,,,,,,8,Ontime,short,d,1,2.0538,9,1,37,0,1,,,,,
0.68,,,,,,,,,f,blue,5d5f0b2e0e71190019c643f7,2021-09-27_14h35.03.600,forced_choiceRT_color,2021.2.3,Win32,59.95922773,,,,,,,,8,Ontime,short,f,1,2.0348,9,2,38,1,1,,,,,
1.16,,,,,,,,,f,blue,5d5f0b2e0e71190019c643f7,2021-09-27_14h35.03.600,forced_choiceRT_color,2021.2.3,Win32,59.95922773,,,,,,,,8,Ontime,short,f,1,2.056,9,3,39,1,1,,,,,
,,,,,,,,,,,5d5f0b2e0e71190019c643f7,2021-09-27_14h35.03.600,forced_choiceRT_color,2021.2.3,Win32,59.95922773,,,,,,,,,,,,,,,,,,,7,0,7,0,1
1.08,,,,,,,,,f,blue,5d5f0b2e0e71190019c643f7,2021-09-27_14h35.03.600,forced_choiceRT_color,2021.2.3,Win32,59.95922773,,,,,,,,9,Fast,short,f,1,1.8671,0,0,0,1,1,,,,,
0.15,,,,,,,,,j,red,5d5f0b2e0e71190019c643f7,2021-09-27_14h35.03.600,forced_choiceRT_color,2021.2.3,Win32,59.95922773,,,,,,,,9,Ontime,short,j,1,2.0759,0,1,1,2,1,,,,,
0.09,,,,,,,,,k,purple,5d5f0b2e0e71190019c643f7,2021-09-27_14h35.03.600,forced_choiceRT_color,2021.2.3,Win32,59.95922773,,,,,,,,9,Slow,short,k,1,2.1286,0,2,2,3,1,,,,,
0.86,,,,,,,,,k,purple,5d5f0b2e0e71190019c643f7,2021-09-27_14h35.03.600,forced_choiceRT_color,2021.2.3,Win32,59.95922773,,,,,,,,9,Slow,short,k,1,2.111,0,3,3,3,1,,,,,
1.66,,,,,,,,,d,orange,5d5f0b2e0e71190019c643f7,2021-09-27_14h35.03.600,forced_choiceRT_color,2021.2.3,Win32,59.95922773,,,,,,,,9,Slow,short,d,1,2.1209,1,0,4,0,1,,,,,
1.42,,,,,,,,,d,orange,5d5f0b2e0e71190019c643f7,2021-09-27_14h35.03.600,forced_choiceRT_color,2021.2.3,Win32,59.95922773,,,,,,,,9,Ontime,short,d,1,2.0607,1,1,5,0,1,,,,,
0.74,,,,,,,,,f,blue,5d5f0b2e0e71190019c643f7,2021-09-27_14h35.03.600,forced_choiceRT_color,2021.2.3,Win32,59.95922773,,,,,,,,9,Ontime,short,j,0,2.0333,1,2,6,1,1,,,,,
0.97,,,,,,,,,j,red,5d5f0b2e0e71190019c643f7,2021-09-27_14h35.03.600,forced_choiceRT_color,2021.2.3,Win32,59.95922773,,,,,,,,9,Ontime,short,j,1,1.9593,1,3,7,2,1,,,,,
1.62,,,,,,,,,j,red,5d5f0b2e0e71190019c643f7,2021-09-27_14h35.03.600,forced_choiceRT_color,2021.2.3,Win32,59.95922773,,,,,,,,9,Ontime,short,j,1,2.0086,2,0,8,2,1,,,,,
0.52,,,,,,,,,j,red,5d5f0b2e0e71190019c643f7,2021-09-27_14h35.03.600,forced_choiceRT_color,2021.2.3,Win32,59.95922773,,,,,,,,9,Ontime,short,j,1,1.9359,2,1,9,2,1,,,,,
0.92,,,,,,,,,j,red,5d5f0b2e0e71190019c643f7,2021-09-27_14h35.03.600,forced_choiceRT_color,2021.2.3,Win32,59.95922773,,,,,,,,9,Ontime,short,j,1,1.9301,2,2,10,2,1,,,,,
0.96,,,,,,,,,f,blue,5d5f0b2e0e71190019c643f7,2021-09-27_14h35.03.600,forced_choiceRT_color,2021.2.3,Win32,59.95922773,,,,,,,,9,Ontime,short,f,1,1.9812,2,3,11,1,1,,,,,
0.12,,,,,,,,,k,purple,5d5f0b2e0e71190019c643f7,2021-09-27_14h35.03.600,forced_choiceRT_color,2021.2.3,Win32,59.95922773,,,,,,,,9,Ontime,short,k,1,1.9729,3,0,12,3,1,,,,,
1.61,,,,,,,,,k,purple,5d5f0b2e0e71190019c643f7,2021-09-27_14h35.03.600,forced_choiceRT_color,2021.2.3,Win32,59.95922773,,,,,,,,9,Ontime,short,k,1,2.0615,3,1,13,3,1,,,,,
1.57,,,,,,,,,d,orange,5d5f0b2e0e71190019c643f7,2021-09-27_14h35.03.600,forced_choiceRT_color,2021.2.3,Win32,59.95922773,,,,,,,,9,Ontime,short,d,1,2.0353,3,2,14,0,1,,,,,
1.16,,,,,,,,,k,purple,5d5f0b2e0e71190019c643f7,2021-09-27_14h35.03.600,forced_choiceRT_color,2021.2.3,Win32,59.95922773,,,,,,,,9,Ontime,short,k,1,1.9051,3,3,15,3,1,,,,,
1.6,,,,,,,,,d,orange,5d5f0b2e0e71190019c643f7,2021-09-27_14h35.03.600,forced_choiceRT_color,2021.2.3,Win32,59.95922773,,,,,,,,9,Ontime,short,d,1,1.9646,4,0,16,0,1,,,,,
1.44,,,,,,,,,j,red,5d5f0b2e0e71190019c643f7,2021-09-27_14h35.03.600,forced_choiceRT_color,2021.2.3,Win32,59.95922773,,,,,,,,9,Ontime,short,j,1,2.0382,4,1,17,2,1,,,,,
1.8,,,,,,,,,f,blue,5d5f0b2e0e71190019c643f7,2021-09-27_14h35.03.600,forced_choiceRT_color,2021.2.3,Win32,59.95922773,,,,,,,,9,Slow,short,j,0,2.2195,4,2,18,1,1,,,,,
1.45,,,,,,,,,f,blue,5d5f0b2e0e71190019c643f7,2021-09-27_14h35.03.600,forced_choiceRT_color,2021.2.3,Win32,59.95922773,,,,,,,,9,Slow,short,f,1,2.183,4,3,19,1,1,,,,,
1.87,,,,,,,,,j,red,5d5f0b2e0e71190019c643f7,2021-09-27_14h35.03.600,forced_choiceRT_color,2021.2.3,Win32,59.95922773,,,,,,,,9,Ontime,short,f,0,2.0114,5,0,20,2,1,,,,,
1.78,,,,,,,,,f,blue,5d5f0b2e0e71190019c643f7,2021-09-27_14h35.03.600,forced_choiceRT_color,2021.2.3,Win32,59.95922773,,,,,,,,9,Ontime,short,f,1,1.9916,5,1,21,1,1,,,,,
0.92,,,,,,,,,j,red,5d5f0b2e0e71190019c643f7,2021-09-27_14h35.03.600,forced_choiceRT_color,2021.2.3,Win32,59.95922773,,,,,,,,9,Ontime,short,j,1,1.9758,5,2,22,2,1,,,,,
0.85,,,,,,,,,k,purple,5d5f0b2e0e71190019c643f7,2021-09-27_14h35.03.600,forced_choiceRT_color,2021.2.3,Win32,59.95922773,,,,,,,,9,Ontime,short,k,1,1.9359,5,3,23,3,1,,,,,
1.34,,,,,,,,,d,orange,5d5f0b2e0e71190019c643f7,2021-09-27_14h35.03.600,forced_choiceRT_color,2021.2.3,Win32,59.95922773,,,,,,,,9,Slow,short,d,1,2.1222,6,0,24,0,1,,,,,
0.21,,,,,,,,,k,purple,5d5f0b2e0e71190019c643f7,2021-09-27_14h35.03.600,forced_choiceRT_color,2021.2.3,Win32,59.95922773,,,,,,,,9,Ontime,short,k,1,1.9284,6,1,25,3,1,,,,,
0.86,,,,,,,,,d,orange,5d5f0b2e0e71190019c643f7,2021-09-27_14h35.03.600,forced_choiceRT_color,2021.2.3,Win32,59.95922773,,,,,,,,9,Ontime,short,d,1,1.915,6,2,26,0,1,,,,,
1.01,,,,,,,,,j,red,5d5f0b2e0e71190019c643f7,2021-09-27_14h35.03.600,forced_choiceRT_color,2021.2.3,Win32,59.95922773,,,,,,,,9,Ontime,short,j,1,1.9106,6,3,27,2,1,,,,,
1.9,,,,,,,,,k,purple,5d5f0b2e0e71190019c643f7,2021-09-27_14h35.03.600,forced_choiceRT_color,2021.2.3,Win32,59.95922773,,,,,,,,9,Slow,short,j,0,2.1614,7,0,28,3,1,,,,,
1.12,,,,,,,,,f,blue,5d5f0b2e0e71190019c643f7,2021-09-27_14h35.03.600,forced_choiceRT_color,2021.2.3,Win32,59.95922773,,,,,,,,9,Ontime,short,f,1,1.9662,7,1,29,1,1,,,,,
1.51,,,,,,,,,d,orange,5d5f0b2e0e71190019c643f7,2021-09-27_14h35.03.600,forced_choiceRT_color,2021.2.3,Win32,59.95922773,,,,,,,,9,Ontime,short,j,0,1.9025,7,2,30,0,1,,,,,
0.34,,,,,,,,,d,orange,5d5f0b2e0e71190019c643f7,2021-09-27_14h35.03.600,forced_choiceRT_color,2021.2.3,Win32,59.95922773,,,,,,,,9,Fast,short,d,1,1.8982,7,3,31,0,1,,,,,
1.59,,,,,,,,,f,blue,5d5f0b2e0e71190019c643f7,2021-09-27_14h35.03.600,forced_choiceRT_color,2021.2.3,Win32,59.95922773,,,,,,,,9,Ontime,short,d,0,1.9376,8,0,32,1,1,,,,,
0.43,,,,,,,,,k,purple,5d5f0b2e0e71190019c643f7,2021-09-27_14h35.03.600,forced_choiceRT_color,2021.2.3,Win32,59.95922773,,,,,,,,9,Ontime,short,k,1,1.963,8,1,33,3,1,,,,,
1.76,,,,,,,,,j,red,5d5f0b2e0e71190019c643f7,2021-09-27_14h35.03.600,forced_choiceRT_color,2021.2.3,Win32,59.95922773,,,,,,,,9,Ontime,short,j,1,2.0763,8,2,34,2,1,,,,,
1.37,,,,,,,,,d,orange,5d5f0b2e0e71190019c643f7,2021-09-27_14h35.03.600,forced_choiceRT_color,2021.2.3,Win32,59.95922773,,,,,,,,9,Fast,short,d,1,1.809,8,3,35,0,1,,,,,
1.64,,,,,,,,,k,purple,5d5f0b2e0e71190019c643f7,2021-09-27_14h35.03.600,forced_choiceRT_color,2021.2.3,Win32,59.95922773,,,,,,,,9,Ontime,short,d,0,1.9958,9,0,36,3,1,,,,,
0.42,,,,,,,,,f,blue,5d5f0b2e0e71190019c643f7,2021-09-27_14h35.03.600,forced_choiceRT_color,2021.2.3,Win32,59.95922773,,,,,,,,9,Fast,short,k,0,0.0912,9,1,37,1,1,,,,,
1.73,,,,,,,,,d,orange,5d5f0b2e0e71190019c643f7,2021-09-27_14h35.03.600,forced_choiceRT_color,2021.2.3,Win32,59.95922773,,,,,,,,9,Ontime,short,j,0,2.0915,9,2,38,0,1,,,,,
1.31,,,,,,,,,f,blue,5d5f0b2e0e71190019c643f7,2021-09-27_14h35.03.600,forced_choiceRT_color,2021.2.3,Win32,59.95922773,,,,,,,,9,Fast,short,f,1,1.8467,9,3,39,1,1,,,,,
,,,,,,,,,,,5d5f0b2e0e71190019c643f7,2021-09-27_14h35.03.600,forced_choiceRT_color,2021.2.3,Win32,59.95922773,,,,,,,,,,,,,,,,,,,8,0,8,0,1
1.57,,,,,,,,,k,purple,5d5f0b2e0e71190019c643f7,2021-09-27_14h35.03.600,forced_choiceRT_color,2021.2.3,Win32,59.95922773,,,,,,,,10,Ontime,short,d,0,1.9605,0,0,0,3,1,,,,,
0.31,,,,,,,,,j,red,5d5f0b2e0e71190019c643f7,2021-09-27_14h35.03.600,forced_choiceRT_color,2021.2.3,Win32,59.95922773,,,,,,,,10,Fast,short,j,1,0.0524,0,1,1,2,1,,,,,
0.36,,,,,,,,,f,blue,5d5f0b2e0e71190019c643f7,2021-09-27_14h35.03.600,forced_choiceRT_color,2021.2.3,Win32,59.95922773,,,,,,,,10,Ontime,short,f,1,2.0216,0,2,2,1,1,,,,,
0,,,,,,,,,f,blue,5d5f0b2e0e71190019c643f7,2021-09-27_14h35.03.600,forced_choiceRT_color,2021.2.3,Win32,59.95922773,,,,,,,,10,Ontime,short,f,1,2.0041,0,3,3,1,1,,,,,
0.79,,,,,,,,,d,orange,5d5f0b2e0e71190019c643f7,2021-09-27_14h35.03.600,forced_choiceRT_color,2021.2.3,Win32,59.95922773,,,,,,,,10,Ontime,short,d,1,2.0593,1,0,4,0,1,,,,,
1.69,,,,,,,,,f,blue,5d5f0b2e0e71190019c643f7,2021-09-27_14h35.03.600,forced_choiceRT_color,2021.2.3,Win32,59.95922773,,,,,,,,10,Ontime,short,j,0,2.0334,1,1,5,1,1,,,,,
1.67,,,,,,,,,k,purple,5d5f0b2e0e71190019c643f7,2021-09-27_14h35.03.600,forced_choiceRT_color,2021.2.3,Win32,59.95922773,,,,,,,,10,Ontime,short,f,0,2.0226,1,2,6,3,1,,,,,
0.85,,,,,,,,,j,red,5d5f0b2e0e71190019c643f7,2021-09-27_14h35.03.600,forced_choiceRT_color,2021.2.3,Win32,59.95922773,,,,,,,,10,Ontime,short,j,1,2.005,1,3,7,2,1,,,,,
1.5,,,,,,,,,d,orange,5d5f0b2e0e71190019c643f7,2021-09-27_14h35.03.600,forced_choiceRT_color,2021.2.3,Win32,59.95922773,,,,,,,,10,Ontime,short,d,1,2.0931,2,0,8,0,1,,,,,
0.32,,,,,,,,,j,red,5d5f0b2e0e71190019c643f7,2021-09-27_14h35.03.600,forced_choiceRT_color,2021.2.3,Win32,59.95922773,,,,,,,,10,Ontime,short,j,1,1.969,2,1,9,2,1,,,,,
0.97,,,,,,,,,f,blue,5d5f0b2e0e71190019c643f7,2021-09-27_14h35.03.600,forced_choiceRT_color,2021.2.3,Win32,59.95922773,,,,,,,,10,Ontime,short,f,1,1.9933,2,2,10,1,1,,,,,
0.37,,,,,,,,,f,blue,5d5f0b2e0e71190019c643f7,2021-09-27_14h35.03.600,forced_choiceRT_color,2021.2.3,Win32,59.95922773,,,,,,,,10,Ontime,short,f,1,2.0095,2,3,11,1,1,,,,,
1.04,,,,,,,,,d,orange,5d5f0b2e0e71190019c643f7,2021-09-27_14h35.03.600,forced_choiceRT_color,2021.2.3,Win32,59.95922773,,,,,,,,10,Ontime,short,d,1,1.9689,3,0,12,0,1,,,,,
0.43,,,,,,,,,k,purple,5d5f0b2e0e71190019c643f7,2021-09-27_14h35.03.600,forced_choiceRT_color,2021.2.3,Win32,59.95922773,,,,,,,,10,Ontime,short,k,1,1.9932,3,1,13,3,1,,,,,
1.83,,,,,,,,,j,red,5d5f0b2e0e71190019c643f7,2021-09-27_14h35.03.600,forced_choiceRT_color,2021.2.3,Win32,59.95922773,,,,,,,,10,Ontime,short,j,1,2.0095,3,2,14,2,1,,,,,
0.24,,,,,,,,,k,purple,5d5f0b2e0e71190019c643f7,2021-09-27_14h35.03.600,forced_choiceRT_color,2021.2.3,Win32,59.95922773,,,,,,,,10,Fast,short,k,1,1.7766,3,3,15,3,1,,,,,
1.46,,,,,,,,,j,red,5d5f0b2e0e71190019c643f7,2021-09-27_14h35.03.600,forced_choiceRT_color,2021.2.3,Win32,59.95922773,,,,,,,,10,Ontime,short,j,1,2.0288,4,0,16,2,1,,,,,
1.55,,,,,,,,,d,orange,5d5f0b2e0e71190019c643f7,2021-09-27_14h35.03.600,forced_choiceRT_color,2021.2.3,Win32,59.95922773,,,,,,,,10,Ontime,short,d,1,1.907,4,1,17,0,1,,,,,
0.05,,,,,,,,,j,red,5d5f0b2e0e71190019c643f7,2021-09-27_14h35.03.600,forced_choiceRT_color,2021.2.3,Win32,59.95922773,,,,,,,,10,Ontime,short,j,1,2.0067,4,2,18,2,1,,,,,
0.43,,,,,,,,,k,purple,5d5f0b2e0e71190019c643f7,2021-09-27_14h35.03.600,forced_choiceRT_color,2021.2.3,Win32,59.95922773,,,,,,,,10,Ontime,short,k,1,2.0297,4,3,19,3,1,,,,,
0.11,,,,,,,,,k,purple,5d5f0b2e0e71190019c643f7,2021-09-27_14h35.03.600,forced_choiceRT_color,2021.2.3,Win32,59.95922773,,,,,,,,10,Ontime,short,k,1,2.0684,5,0,20,3,1,,,,,
1.31,,,,,,,,,d,orange,5d5f0b2e0e71190019c643f7,2021-09-27_14h35.03.600,forced_choiceRT_color,2021.2.3,Win32,59.95922773,,,,,,,,10,Ontime,short,j,0,1.9369,5,1,21,0,1,,,,,
1.78,,,,,,,,,d,orange,5d5f0b2e0e71190019c643f7,2021-09-27_14h35.03.600,forced_choiceRT_color,2021.2.3,Win32,59.95922773,,,,,,,,10,Ontime,short,d,1,1.995,5,2,22,0,1,,,,,
1.04,,,,,,,,,f,blue,5d5f0b2e0e71190019c643f7,2021-09-27_14h35.03.600,forced_choiceRT_color,2021.2.3,Win32,59.95922773,,,,,,,,10,Fast,short,f,1,1.8753,5,3,23,1,1,,,,,
0.02,,,,,,,,,d,orange,5d5f0b2e0e71190019c643f7,2021-09-27_14h35.03.600,forced_choiceRT_color,2021.2.3,Win32,59.95922773,,,,,,,,10,Fast,short,d,1,1.8671,6,0,24,0,1,,,,,
0.96,,,,,,,,,k,purple,5d5f0b2e0e71190019c643f7,2021-09-27_14h35.03.600,forced_choiceRT_color,2021.2.3,Win32,59.95922773,,,,,,,,10,Fast,short,d,0,1.8859,6,1,25,3,1,,,,,
1.54,,,,,,,,,f,blue,5d5f0b2e0e71190019c643f7,2021-09-27_14h35.03.600,forced_choiceRT_color,2021.2.3,Win32,59.95922773,,,,,,,,10,Ontime,short,j,0,2.0021,6,2,26,1,1,,,,,
1.81,,,,,,,,,j,red,5d5f0b2e0e71190019c643f7,2021-09-27_14h35.03.600,forced_choiceRT_color,2021.2.3,Win32,59.95922773,,,,,,,,10,Ontime,short,f,0,1.9295,6,3,27,2,1,,,,,
1.09,,,,,,,,,f,blue,5d5f0b2e0e71190019c643f7,2021-09-27_14h35.03.600,forced_choiceRT_color,2021.2.3,Win32,59.95922773,,,,,,,,10,Fast,short,f,1,1.8762,7,0,28,1,1,,,,,
0.07,,,,,,,,,k,purple,5d5f0b2e0e71190019c643f7,2021-09-27_14h35.03.600,forced_choiceRT_color,2021.2.3,Win32,59.95922773,,,,,,,,10,Ontime,short,k,1,2.0283,7,1,29,3,1,,,,,
0.18,,,,,,,,,j,red,5d5f0b2e0e71190019c643f7,2021-09-27_14h35.03.600,forced_choiceRT_color,2021.2.3,Win32,59.95922773,,,,,,,,10,Ontime,short,j,1,2.0745,7,2,30,2,1,,,,,
1.17,,,,,,,,,f,blue,5d5f0b2e0e71190019c643f7,2021-09-27_14h35.03.600,forced_choiceRT_color,2021.2.3,Win32,59.95922773,,,,,,,,10,Ontime,short,f,1,1.9671,7,3,31,1,1,,,,,
0.42,,,,,,,,,k,purple,5d5f0b2e0e71190019c643f7,2021-09-27_14h35.03.600,forced_choiceRT_color,2021.2.3,Win32,59.95922773,,,,,,,,10,Ontime,short,k,1,1.928,8,0,32,3,1,,,,,
0.7,,,,,,,,,j,red,5d5f0b2e0e71190019c643f7,2021-09-27_14h35.03.600,forced_choiceRT_color,2021.2.3,Win32,59.95922773,,,,,,,,10,Ontime,short,j,1,1.9786,8,1,33,2,1,,,,,
1.13,,,,,,,,,d,orange,5d5f0b2e0e71190019c643f7,2021-09-27_14h35.03.600,forced_choiceRT_color,2021.2.3,Win32,59.95922773,,,,,,,,10,Ontime,short,d,1,2.003,8,2,34,0,1,,,,,
1.66,,,,,,,,,k,purple,5d5f0b2e0e71190019c643f7,2021-09-27_14h35.03.600,forced_choiceRT_color,2021.2.3,Win32,59.95922773,,,,,,,,10,Slow,short,k,1,2.1867,8,3,35,3,1,,,,,
0.16,,,,,,,,,f,blue,5d5f0b2e0e71190019c643f7,2021-09-27_14h35.03.600,forced_choiceRT_color,2021.2.3,Win32,59.95922773,,,,,,,,10,Ontime,short,f,1,2.0544,9,0,36,1,1,,,,,
1.47,,,,,,,,,d,orange,5d5f0b2e0e71190019c643f7,2021-09-27_14h35.03.600,forced_choiceRT_color,2021.2.3,Win32,59.95922773,,,,,,,,10,Ontime,short,d,1,2.0586,9,1,37,0,1,,,,,
1.95,,,,,,,,,j,red,5d5f0b2e0e71190019c643f7,2021-09-27_14h35.03.600,forced_choiceRT_color,2021.2.3,Win32,59.95922773,,,,,,,,10,Ontime,short,d,0,1.9123,9,2,38,2,1,,,,,
1.22,,,,,,,,,d,orange,5d5f0b2e0e71190019c643f7,2021-09-27_14h35.03.600,forced_choiceRT_color,2021.2.3,Win32,59.95922773,,,,,,,,10,Fast,short,d,1,1.8759,9,3,39,0,1,,,,,
,,,,,,,,,,,5d5f0b2e0e71190019c643f7,2021-09-27_14h35.03.600,forced_choiceRT_color,2021.2.3,Win32,59.95922773,,,,,,,,,,,,,,,,,,,9,0,9,0,1
