IP_Addresss,target_onset,trial_resp_sp.keys,trial_resp_sp.corr,trial_resp_sp.rt,trials_train_loop.thisRepN,trials_train_loop.thisTrialN,trials_train_loop.thisN,trials_train_loop.thisIndex,trials_train_loop.ran,correct_key,color,participant,date,expName,psychopyVersion,OS,frameRate,trial_resp_timing.keys,trial_resp_timing.rt,trials_train_timing.thisRepN,trials_train_timing.thisTrialN,trials_train_timing.thisN,trials_train_timing.thisIndex,trials_train_timing.ran,block_id,ontime,feedback_cond,forcedRT_resp.keys,forcedRT_resp.corr,forcedRT_resp.rt,trials.thisRepN,trials.thisTrialN,trials.thisN,trials.thisIndex,trials.ran,blocks.thisRepN,blocks.thisTrialN,blocks.thisN,blocks.thisIndex,blocks.ran
47.26.171.127,0,d,1,1.3906,0,0,0,0,1,d,orange,5d8a77b716a9bf0001d969aa,2021-10-22_12h06.42.022,forced_choiceRT_color,2021.2.3,Win32,59.97001499,,,,,,,,,,,,,,,,,,,,,,,
,0,f,1,0.9228,0,1,1,1,1,f,blue,5d8a77b716a9bf0001d969aa,2021-10-22_12h06.42.022,forced_choiceRT_color,2021.2.3,Win32,59.97001499,,,,,,,,,,,,,,,,,,,,,,,
,0,k,1,0.8345,0,2,2,3,1,k,purple,5d8a77b716a9bf0001d969aa,2021-10-22_12h06.42.022,forced_choiceRT_color,2021.2.3,Win32,59.97001499,,,,,,,,,,,,,,,,,,,,,,,
,0,k,1,0.7001,0,3,3,3,1,k,purple,5d8a77b716a9bf0001d969aa,2021-10-22_12h06.42.022,forced_choiceRT_color,2021.2.3,Win32,59.97001499,,,,,,,,,,,,,,,,,,,,,,,
,0,k,1,0.6152,1,0,4,3,1,k,purple,5d8a77b716a9bf0001d969aa,2021-10-22_12h06.42.022,forced_choiceRT_color,2021.2.3,Win32,59.97001499,,,,,,,,,,,,,,,,,,,,,,,
,0,d,1,0.6515,1,1,5,0,1,d,orange,5d8a77b716a9bf0001d969aa,2021-10-22_12h06.42.022,forced_choiceRT_color,2021.2.3,Win32,59.97001499,,,,,,,,,,,,,,,,,,,,,,,
,0,j,1,0.6658,1,2,6,2,1,j,red,5d8a77b716a9bf0001d969aa,2021-10-22_12h06.42.022,forced_choiceRT_color,2021.2.3,Win32,59.97001499,,,,,,,,,,,,,,,,,,,,,,,
,0,f,1,0.6353,1,3,7,1,1,f,blue,5d8a77b716a9bf0001d969aa,2021-10-22_12h06.42.022,forced_choiceRT_color,2021.2.3,Win32,59.97001499,,,,,,,,,,,,,,,,,,,,,,,
,0,j,1,0.8722,2,0,8,2,1,j,red,5d8a77b716a9bf0001d969aa,2021-10-22_12h06.42.022,forced_choiceRT_color,2021.2.3,Win32,59.97001499,,,,,,,,,,,,,,,,,,,,,,,
,0,j,1,0.5929,2,1,9,2,1,j,red,5d8a77b716a9bf0001d969aa,2021-10-22_12h06.42.022,forced_choiceRT_color,2021.2.3,Win32,59.97001499,,,,,,,,,,,,,,,,,,,,,,,
,0,d,0,0.6458,2,2,10,1,1,f,blue,5d8a77b716a9bf0001d969aa,2021-10-22_12h06.42.022,forced_choiceRT_color,2021.2.3,Win32,59.97001499,,,,,,,,,,,,,,,,,,,,,,,
,0,f,1,0.5891,2,3,11,1,1,f,blue,5d8a77b716a9bf0001d969aa,2021-10-22_12h06.42.022,forced_choiceRT_color,2021.2.3,Win32,59.97001499,,,,,,,,,,,,,,,,,,,,,,,
,0,d,1,0.6281,3,0,12,0,1,d,orange,5d8a77b716a9bf0001d969aa,2021-10-22_12h06.42.022,forced_choiceRT_color,2021.2.3,Win32,59.97001499,,,,,,,,,,,,,,,,,,,,,,,
,0,f,1,0.4884,3,1,13,1,1,f,blue,5d8a77b716a9bf0001d969aa,2021-10-22_12h06.42.022,forced_choiceRT_color,2021.2.3,Win32,59.97001499,,,,,,,,,,,,,,,,,,,,,,,
,0,j,1,0.6379,3,2,14,2,1,j,red,5d8a77b716a9bf0001d969aa,2021-10-22_12h06.42.022,forced_choiceRT_color,2021.2.3,Win32,59.97001499,,,,,,,,,,,,,,,,,,,,,,,
,0,d,1,0.6473,3,3,15,0,1,d,orange,5d8a77b716a9bf0001d969aa,2021-10-22_12h06.42.022,forced_choiceRT_color,2021.2.3,Win32,59.97001499,,,,,,,,,,,,,,,,,,,,,,,
,0,k,1,0.6148,4,0,16,3,1,k,purple,5d8a77b716a9bf0001d969aa,2021-10-22_12h06.42.022,forced_choiceRT_color,2021.2.3,Win32,59.97001499,,,,,,,,,,,,,,,,,,,,,,,
,0,f,1,0.6826,4,1,17,1,1,f,blue,5d8a77b716a9bf0001d969aa,2021-10-22_12h06.42.022,forced_choiceRT_color,2021.2.3,Win32,59.97001499,,,,,,,,,,,,,,,,,,,,,,,
,0,j,1,0.8086,4,2,18,2,1,j,red,5d8a77b716a9bf0001d969aa,2021-10-22_12h06.42.022,forced_choiceRT_color,2021.2.3,Win32,59.97001499,,,,,,,,,,,,,,,,,,,,,,,
,0,d,1,0.7378,4,3,19,0,1,d,orange,5d8a77b716a9bf0001d969aa,2021-10-22_12h06.42.022,forced_choiceRT_color,2021.2.3,Win32,59.97001499,,,,,,,,,,,,,,,,,,,,,,,
,0,k,1,0.6687,5,0,20,3,1,k,purple,5d8a77b716a9bf0001d969aa,2021-10-22_12h06.42.022,forced_choiceRT_color,2021.2.3,Win32,59.97001499,,,,,,,,,,,,,,,,,,,,,,,
,0,k,1,0.6512,5,1,21,3,1,k,purple,5d8a77b716a9bf0001d969aa,2021-10-22_12h06.42.022,forced_choiceRT_color,2021.2.3,Win32,59.97001499,,,,,,,,,,,,,,,,,,,,,,,
,0,d,1,0.9149,5,2,22,0,1,d,orange,5d8a77b716a9bf0001d969aa,2021-10-22_12h06.42.022,forced_choiceRT_color,2021.2.3,Win32,59.97001499,,,,,,,,,,,,,,,,,,,,,,,
,0,f,1,0.6579,5,3,23,1,1,f,blue,5d8a77b716a9bf0001d969aa,2021-10-22_12h06.42.022,forced_choiceRT_color,2021.2.3,Win32,59.97001499,,,,,,,,,,,,,,,,,,,,,,,
,0,j,1,0.6458,6,0,24,2,1,j,red,5d8a77b716a9bf0001d969aa,2021-10-22_12h06.42.022,forced_choiceRT_color,2021.2.3,Win32,59.97001499,,,,,,,,,,,,,,,,,,,,,,,
,0,j,1,0.6175,6,1,25,2,1,j,red,5d8a77b716a9bf0001d969aa,2021-10-22_12h06.42.022,forced_choiceRT_color,2021.2.3,Win32,59.97001499,,,,,,,,,,,,,,,,,,,,,,,
,0,d,1,0.6156,6,2,26,0,1,d,orange,5d8a77b716a9bf0001d969aa,2021-10-22_12h06.42.022,forced_choiceRT_color,2021.2.3,Win32,59.97001499,,,,,,,,,,,,,,,,,,,,,,,
,0,f,1,0.4691,6,3,27,1,1,f,blue,5d8a77b716a9bf0001d969aa,2021-10-22_12h06.42.022,forced_choiceRT_color,2021.2.3,Win32,59.97001499,,,,,,,,,,,,,,,,,,,,,,,
,0,k,1,0.464,7,0,28,3,1,k,purple,5d8a77b716a9bf0001d969aa,2021-10-22_12h06.42.022,forced_choiceRT_color,2021.2.3,Win32,59.97001499,,,,,,,,,,,,,,,,,,,,,,,
,0,j,1,0.5163,7,1,29,2,1,j,red,5d8a77b716a9bf0001d969aa,2021-10-22_12h06.42.022,forced_choiceRT_color,2021.2.3,Win32,59.97001499,,,,,,,,,,,,,,,,,,,,,,,
,0,j,1,0.5672,7,2,30,2,1,j,red,5d8a77b716a9bf0001d969aa,2021-10-22_12h06.42.022,forced_choiceRT_color,2021.2.3,Win32,59.97001499,,,,,,,,,,,,,,,,,,,,,,,
,0,d,1,0.7322,7,3,31,0,1,d,orange,5d8a77b716a9bf0001d969aa,2021-10-22_12h06.42.022,forced_choiceRT_color,2021.2.3,Win32,59.97001499,,,,,,,,,,,,,,,,,,,,,,,
,0,k,1,0.6133,8,0,32,3,1,k,purple,5d8a77b716a9bf0001d969aa,2021-10-22_12h06.42.022,forced_choiceRT_color,2021.2.3,Win32,59.97001499,,,,,,,,,,,,,,,,,,,,,,,
,0,d,1,0.6156,8,1,33,0,1,d,orange,5d8a77b716a9bf0001d969aa,2021-10-22_12h06.42.022,forced_choiceRT_color,2021.2.3,Win32,59.97001499,,,,,,,,,,,,,,,,,,,,,,,
,0,j,1,0.6988,8,2,34,2,1,j,red,5d8a77b716a9bf0001d969aa,2021-10-22_12h06.42.022,forced_choiceRT_color,2021.2.3,Win32,59.97001499,,,,,,,,,,,,,,,,,,,,,,,
,0,k,1,0.6381,8,3,35,3,1,k,purple,5d8a77b716a9bf0001d969aa,2021-10-22_12h06.42.022,forced_choiceRT_color,2021.2.3,Win32,59.97001499,,,,,,,,,,,,,,,,,,,,,,,
,0,k,1,0.4527,9,0,36,3,1,k,purple,5d8a77b716a9bf0001d969aa,2021-10-22_12h06.42.022,forced_choiceRT_color,2021.2.3,Win32,59.97001499,,,,,,,,,,,,,,,,,,,,,,,
,0,k,1,0.4577,9,1,37,3,1,k,purple,5d8a77b716a9bf0001d969aa,2021-10-22_12h06.42.022,forced_choiceRT_color,2021.2.3,Win32,59.97001499,,,,,,,,,,,,,,,,,,,,,,,
,0,d,0,0.633,9,2,38,1,1,f,blue,5d8a77b716a9bf0001d969aa,2021-10-22_12h06.42.022,forced_choiceRT_color,2021.2.3,Win32,59.97001499,,,,,,,,,,,,,,,,,,,,,,,
,0,d,1,0.6606,9,3,39,0,1,d,orange,5d8a77b716a9bf0001d969aa,2021-10-22_12h06.42.022,forced_choiceRT_color,2021.2.3,Win32,59.97001499,,,,,,,,,,,,,,,,,,,,,,,
,0,f,1,0.5141,10,0,40,1,1,f,blue,5d8a77b716a9bf0001d969aa,2021-10-22_12h06.42.022,forced_choiceRT_color,2021.2.3,Win32,59.97001499,,,,,,,,,,,,,,,,,,,,,,,
,0,j,1,0.7001,10,1,41,2,1,j,red,5d8a77b716a9bf0001d969aa,2021-10-22_12h06.42.022,forced_choiceRT_color,2021.2.3,Win32,59.97001499,,,,,,,,,,,,,,,,,,,,,,,
,0,k,1,0.6082,10,2,42,3,1,k,purple,5d8a77b716a9bf0001d969aa,2021-10-22_12h06.42.022,forced_choiceRT_color,2021.2.3,Win32,59.97001499,,,,,,,,,,,,,,,,,,,,,,,
,0,f,1,0.6711,10,3,43,1,1,f,blue,5d8a77b716a9bf0001d969aa,2021-10-22_12h06.42.022,forced_choiceRT_color,2021.2.3,Win32,59.97001499,,,,,,,,,,,,,,,,,,,,,,,
,0,d,1,0.7761,11,0,44,0,1,d,orange,5d8a77b716a9bf0001d969aa,2021-10-22_12h06.42.022,forced_choiceRT_color,2021.2.3,Win32,59.97001499,,,,,,,,,,,,,,,,,,,,,,,
,0,k,1,0.5948,11,1,45,3,1,k,purple,5d8a77b716a9bf0001d969aa,2021-10-22_12h06.42.022,forced_choiceRT_color,2021.2.3,Win32,59.97001499,,,,,,,,,,,,,,,,,,,,,,,
,0,j,1,1.0156,11,2,46,2,1,j,red,5d8a77b716a9bf0001d969aa,2021-10-22_12h06.42.022,forced_choiceRT_color,2021.2.3,Win32,59.97001499,,,,,,,,,,,,,,,,,,,,,,,
,0,j,1,0.5218,11,3,47,2,1,j,red,5d8a77b716a9bf0001d969aa,2021-10-22_12h06.42.022,forced_choiceRT_color,2021.2.3,Win32,59.97001499,,,,,,,,,,,,,,,,,,,,,,,
,0,d,1,0.5643,12,0,48,0,1,d,orange,5d8a77b716a9bf0001d969aa,2021-10-22_12h06.42.022,forced_choiceRT_color,2021.2.3,Win32,59.97001499,,,,,,,,,,,,,,,,,,,,,,,
,0,d,1,0.5274,12,1,49,0,1,d,orange,5d8a77b716a9bf0001d969aa,2021-10-22_12h06.42.022,forced_choiceRT_color,2021.2.3,Win32,59.97001499,,,,,,,,,,,,,,,,,,,,,,,
,0,d,1,0.837,12,2,50,0,1,d,orange,5d8a77b716a9bf0001d969aa,2021-10-22_12h06.42.022,forced_choiceRT_color,2021.2.3,Win32,59.97001499,,,,,,,,,,,,,,,,,,,,,,,
,0,f,1,0.8254,12,3,51,1,1,f,blue,5d8a77b716a9bf0001d969aa,2021-10-22_12h06.42.022,forced_choiceRT_color,2021.2.3,Win32,59.97001499,,,,,,,,,,,,,,,,,,,,,,,
,0,f,1,0.6601,13,0,52,1,1,f,blue,5d8a77b716a9bf0001d969aa,2021-10-22_12h06.42.022,forced_choiceRT_color,2021.2.3,Win32,59.97001499,,,,,,,,,,,,,,,,,,,,,,,
,0,f,1,0.5811,13,1,53,1,1,f,blue,5d8a77b716a9bf0001d969aa,2021-10-22_12h06.42.022,forced_choiceRT_color,2021.2.3,Win32,59.97001499,,,,,,,,,,,,,,,,,,,,,,,
,0,d,1,0.5476,13,2,54,0,1,d,orange,5d8a77b716a9bf0001d969aa,2021-10-22_12h06.42.022,forced_choiceRT_color,2021.2.3,Win32,59.97001499,,,,,,,,,,,,,,,,,,,,,,,
,0,k,1,0.6043,13,3,55,3,1,k,purple,5d8a77b716a9bf0001d969aa,2021-10-22_12h06.42.022,forced_choiceRT_color,2021.2.3,Win32,59.97001499,,,,,,,,,,,,,,,,,,,,,,,
,0,k,1,0.5324,14,0,56,3,1,k,purple,5d8a77b716a9bf0001d969aa,2021-10-22_12h06.42.022,forced_choiceRT_color,2021.2.3,Win32,59.97001499,,,,,,,,,,,,,,,,,,,,,,,
,0,j,1,0.605,14,1,57,2,1,j,red,5d8a77b716a9bf0001d969aa,2021-10-22_12h06.42.022,forced_choiceRT_color,2021.2.3,Win32,59.97001499,,,,,,,,,,,,,,,,,,,,,,,
,0,f,1,0.5911,14,2,58,1,1,f,blue,5d8a77b716a9bf0001d969aa,2021-10-22_12h06.42.022,forced_choiceRT_color,2021.2.3,Win32,59.97001499,,,,,,,,,,,,,,,,,,,,,,,
,0,j,1,0.7194,14,3,59,2,1,j,red,5d8a77b716a9bf0001d969aa,2021-10-22_12h06.42.022,forced_choiceRT_color,2021.2.3,Win32,59.97001499,,,,,,,,,,,,,,,,,,,,,,,
,,,,,,,,,,,,5d8a77b716a9bf0001d969aa,2021-10-22_12h06.42.022,forced_choiceRT_color,2021.2.3,Win32,59.97001499,k,2.3146,0,0,0,0,1,,,,,,,,,,,,,,,,
,,,,,,,,,,,,5d8a77b716a9bf0001d969aa,2021-10-22_12h06.42.022,forced_choiceRT_color,2021.2.3,Win32,59.97001499,k,2.0366,1,0,1,0,1,,,,,,,,,,,,,,,,
,,,,,,,,,,,,5d8a77b716a9bf0001d969aa,2021-10-22_12h06.42.022,forced_choiceRT_color,2021.2.3,Win32,59.97001499,k,2.2015,2,0,2,0,1,,,,,,,,,,,,,,,,
,,,,,,,,,,,,5d8a77b716a9bf0001d969aa,2021-10-22_12h06.42.022,forced_choiceRT_color,2021.2.3,Win32,59.97001499,k,1.8844,3,0,3,0,1,,,,,,,,,,,,,,,,
,,,,,,,,,,,,5d8a77b716a9bf0001d969aa,2021-10-22_12h06.42.022,forced_choiceRT_color,2021.2.3,Win32,59.97001499,k,2.0222,4,0,4,0,1,,,,,,,,,,,,,,,,
,,,,,,,,,,,,5d8a77b716a9bf0001d969aa,2021-10-22_12h06.42.022,forced_choiceRT_color,2021.2.3,Win32,59.97001499,k,2.1502,5,0,5,0,1,,,,,,,,,,,,,,,,
,,,,,,,,,,,,5d8a77b716a9bf0001d969aa,2021-10-22_12h06.42.022,forced_choiceRT_color,2021.2.3,Win32,59.97001499,k,1.991,6,0,6,0,1,,,,,,,,,,,,,,,,
,,,,,,,,,,,,5d8a77b716a9bf0001d969aa,2021-10-22_12h06.42.022,forced_choiceRT_color,2021.2.3,Win32,59.97001499,k,2.1159,7,0,7,0,1,,,,,,,,,,,,,,,,
,,,,,,,,,,,,5d8a77b716a9bf0001d969aa,2021-10-22_12h06.42.022,forced_choiceRT_color,2021.2.3,Win32,59.97001499,k,2.0552,8,0,8,0,1,,,,,,,,,,,,,,,,
,,,,,,,,,,,,5d8a77b716a9bf0001d969aa,2021-10-22_12h06.42.022,forced_choiceRT_color,2021.2.3,Win32,59.97001499,k,2.0995,9,0,9,0,1,,,,,,,,,,,,,,,,
,,,,,,,,,,,,5d8a77b716a9bf0001d969aa,2021-10-22_12h06.42.022,forced_choiceRT_color,2021.2.3,Win32,59.97001499,k,2.1112,10,0,10,0,1,,,,,,,,,,,,,,,,
,,,,,,,,,,,,5d8a77b716a9bf0001d969aa,2021-10-22_12h06.42.022,forced_choiceRT_color,2021.2.3,Win32,59.97001499,k,1.9065,11,0,11,0,1,,,,,,,,,,,,,,,,
,,,,,,,,,,,,5d8a77b716a9bf0001d969aa,2021-10-22_12h06.42.022,forced_choiceRT_color,2021.2.3,Win32,59.97001499,k,2.0381,12,0,12,0,1,,,,,,,,,,,,,,,,
,,,,,,,,,,,,5d8a77b716a9bf0001d969aa,2021-10-22_12h06.42.022,forced_choiceRT_color,2021.2.3,Win32,59.97001499,k,2.3,13,0,13,0,1,,,,,,,,,,,,,,,,
,,,,,,,,,,,,5d8a77b716a9bf0001d969aa,2021-10-22_12h06.42.022,forced_choiceRT_color,2021.2.3,Win32,59.97001499,k,1.898,14,0,14,0,1,,,,,,,,,,,,,,,,
,,,,,,,,,,,,5d8a77b716a9bf0001d969aa,2021-10-22_12h06.42.022,forced_choiceRT_color,2021.2.3,Win32,59.97001499,k,1.8174,15,0,15,0,1,,,,,,,,,,,,,,,,
,,,,,,,,,,,,5d8a77b716a9bf0001d969aa,2021-10-22_12h06.42.022,forced_choiceRT_color,2021.2.3,Win32,59.97001499,k,2.1683,16,0,16,0,1,,,,,,,,,,,,,,,,
,,,,,,,,,,,,5d8a77b716a9bf0001d969aa,2021-10-22_12h06.42.022,forced_choiceRT_color,2021.2.3,Win32,59.97001499,k,1.79,17,0,17,0,1,,,,,,,,,,,,,,,,
,,,,,,,,,,,,5d8a77b716a9bf0001d969aa,2021-10-22_12h06.42.022,forced_choiceRT_color,2021.2.3,Win32,59.97001499,k,2.1882,18,0,18,0,1,,,,,,,,,,,,,,,,
,,,,,,,,,,,,5d8a77b716a9bf0001d969aa,2021-10-22_12h06.42.022,forced_choiceRT_color,2021.2.3,Win32,59.97001499,k,1.7883,19,0,19,0,1,,,,,,,,,,,,,,,,
,0.08,,,,,,,,,j,red,5d8a77b716a9bf0001d969aa,2021-10-22_12h06.42.022,forced_choiceRT_color,2021.2.3,Win32,59.97001499,,,,,,,,1,Slow,short,j,1,2.1788,0,0,0,2,1,,,,,
,0.76,,,,,,,,,k,purple,5d8a77b716a9bf0001d969aa,2021-10-22_12h06.42.022,forced_choiceRT_color,2021.2.3,Win32,59.97001499,,,,,,,,1,Ontime,short,k,1,1.9829,0,1,1,3,1,,,,,
,1.8,,,,,,,,,j,red,5d8a77b716a9bf0001d969aa,2021-10-22_12h06.42.022,forced_choiceRT_color,2021.2.3,Win32,59.97001499,,,,,,,,1,Slow,short,j,1,2.3235,0,2,2,2,1,,,,,
,1.3,,,,,,,,,f,blue,5d8a77b716a9bf0001d969aa,2021-10-22_12h06.42.022,forced_choiceRT_color,2021.2.3,Win32,59.97001499,,,,,,,,1,Ontime,short,j,0,1.9895,0,3,3,1,1,,,,,
,0.8,,,,,,,,,k,purple,5d8a77b716a9bf0001d969aa,2021-10-22_12h06.42.022,forced_choiceRT_color,2021.2.3,Win32,59.97001499,,,,,,,,1,Ontime,short,k,1,2.038,1,0,4,3,1,,,,,
,1.17,,,,,,,,,d,orange,5d8a77b716a9bf0001d969aa,2021-10-22_12h06.42.022,forced_choiceRT_color,2021.2.3,Win32,59.97001499,,,,,,,,1,Ontime,short,d,1,1.9028,1,1,5,0,1,,,,,
,0.79,,,,,,,,,j,red,5d8a77b716a9bf0001d969aa,2021-10-22_12h06.42.022,forced_choiceRT_color,2021.2.3,Win32,59.97001499,,,,,,,,1,Fast,short,j,1,1.8874,1,2,6,2,1,,,,,
,0.44,,,,,,,,,k,purple,5d8a77b716a9bf0001d969aa,2021-10-22_12h06.42.022,forced_choiceRT_color,2021.2.3,Win32,59.97001499,,,,,,,,1,Fast,short,k,1,1.7732,1,3,7,3,1,,,,,
,1.64,,,,,,,,,f,blue,5d8a77b716a9bf0001d969aa,2021-10-22_12h06.42.022,forced_choiceRT_color,2021.2.3,Win32,59.97001499,,,,,,,,1,Slow,short,f,1,2.1993,2,0,8,1,1,,,,,
,0.29,,,,,,,,,f,blue,5d8a77b716a9bf0001d969aa,2021-10-22_12h06.42.022,forced_choiceRT_color,2021.2.3,Win32,59.97001499,,,,,,,,1,Ontime,short,f,1,1.9416,2,1,9,1,1,,,,,
,0.51,,,,,,,,,k,purple,5d8a77b716a9bf0001d969aa,2021-10-22_12h06.42.022,forced_choiceRT_color,2021.2.3,Win32,59.97001499,,,,,,,,1,Ontime,short,k,1,2.0028,2,2,10,3,1,,,,,
,1.93,,,,,,,,,k,purple,5d8a77b716a9bf0001d969aa,2021-10-22_12h06.42.022,forced_choiceRT_color,2021.2.3,Win32,59.97001499,,,,,,,,1,Fast,short,j,0,0.0478,2,3,11,3,1,,,,,
,0.42,,,,,,,,,d,orange,5d8a77b716a9bf0001d969aa,2021-10-22_12h06.42.022,forced_choiceRT_color,2021.2.3,Win32,59.97001499,,,,,,,,1,Ontime,short,d,1,2.0482,3,0,12,0,1,,,,,
,1.29,,,,,,,,,f,blue,5d8a77b716a9bf0001d969aa,2021-10-22_12h06.42.022,forced_choiceRT_color,2021.2.3,Win32,59.97001499,,,,,,,,1,Ontime,short,f,1,2.0072,3,1,13,1,1,,,,,
,1.03,,,,,,,,,j,red,5d8a77b716a9bf0001d969aa,2021-10-22_12h06.42.022,forced_choiceRT_color,2021.2.3,Win32,59.97001499,,,,,,,,1,Ontime,short,j,1,1.9818,3,2,14,2,1,,,,,
,1.33,,,,,,,,,f,blue,5d8a77b716a9bf0001d969aa,2021-10-22_12h06.42.022,forced_choiceRT_color,2021.2.3,Win32,59.97001499,,,,,,,,1,Ontime,short,f,1,2.1,3,3,15,1,1,,,,,
,0.75,,,,,,,,,f,blue,5d8a77b716a9bf0001d969aa,2021-10-22_12h06.42.022,forced_choiceRT_color,2021.2.3,Win32,59.97001499,,,,,,,,1,Fast,short,d,0,0.0107,4,0,16,1,1,,,,,
,0.92,,,,,,,,,k,purple,5d8a77b716a9bf0001d969aa,2021-10-22_12h06.42.022,forced_choiceRT_color,2021.2.3,Win32,59.97001499,,,,,,,,1,Slow,short,k,1,2.2033,4,1,17,3,1,,,,,
,1.53,,,,,,,,,j,red,5d8a77b716a9bf0001d969aa,2021-10-22_12h06.42.022,forced_choiceRT_color,2021.2.3,Win32,59.97001499,,,,,,,,1,Slow,short,f,0,2.2671,4,2,18,2,1,,,,,
,1.48,,,,,,,,,j,red,5d8a77b716a9bf0001d969aa,2021-10-22_12h06.42.022,forced_choiceRT_color,2021.2.3,Win32,59.97001499,,,,,,,,1,Slow,short,j,1,3.0972,4,3,19,2,1,,,,,
,1.77,,,,,,,,,d,orange,5d8a77b716a9bf0001d969aa,2021-10-22_12h06.42.022,forced_choiceRT_color,2021.2.3,Win32,59.97001499,,,,,,,,1,Slow,short,f,0,2.3484,5,0,20,0,1,,,,,
,1.09,,,,,,,,,j,red,5d8a77b716a9bf0001d969aa,2021-10-22_12h06.42.022,forced_choiceRT_color,2021.2.3,Win32,59.97001499,,,,,,,,1,Slow,short,j,1,2.1131,5,1,21,2,1,,,,,
,0.7,,,,,,,,,f,blue,5d8a77b716a9bf0001d969aa,2021-10-22_12h06.42.022,forced_choiceRT_color,2021.2.3,Win32,59.97001499,,,,,,,,1,Slow,short,d,0,2.185,5,2,22,1,1,,,,,
,1.41,,,,,,,,,f,blue,5d8a77b716a9bf0001d969aa,2021-10-22_12h06.42.022,forced_choiceRT_color,2021.2.3,Win32,59.97001499,,,,,,,,1,Slow,short,d,0,2.1745,5,3,23,1,1,,,,,
,1.05,,,,,,,,,d,orange,5d8a77b716a9bf0001d969aa,2021-10-22_12h06.42.022,forced_choiceRT_color,2021.2.3,Win32,59.97001499,,,,,,,,1,Slow,short,k,0,2.14,6,0,24,0,1,,,,,
,0.01,,,,,,,,,j,red,5d8a77b716a9bf0001d969aa,2021-10-22_12h06.42.022,forced_choiceRT_color,2021.2.3,Win32,59.97001499,,,,,,,,1,Ontime,short,j,1,2.0355,6,1,25,2,1,,,,,
,1,,,,,,,,,k,purple,5d8a77b716a9bf0001d969aa,2021-10-22_12h06.42.022,forced_choiceRT_color,2021.2.3,Win32,59.97001499,,,,,,,,1,Ontime,short,k,1,1.9656,6,2,26,3,1,,,,,
,0.83,,,,,,,,,k,purple,5d8a77b716a9bf0001d969aa,2021-10-22_12h06.42.022,forced_choiceRT_color,2021.2.3,Win32,59.97001499,,,,,,,,1,Ontime,short,k,1,1.9336,6,3,27,3,1,,,,,
,1.61,,,,,,,,,d,orange,5d8a77b716a9bf0001d969aa,2021-10-22_12h06.42.022,forced_choiceRT_color,2021.2.3,Win32,59.97001499,,,,,,,,1,Ontime,short,f,0,1.9966,7,0,28,0,1,,,,,
,0.47,,,,,,,,,d,orange,5d8a77b716a9bf0001d969aa,2021-10-22_12h06.42.022,forced_choiceRT_color,2021.2.3,Win32,59.97001499,,,,,,,,1,Ontime,short,f,0,2.0026,7,1,29,0,1,,,,,
,1.46,,,,,,,,,k,purple,5d8a77b716a9bf0001d969aa,2021-10-22_12h06.42.022,forced_choiceRT_color,2021.2.3,Win32,59.97001499,,,,,,,,1,Ontime,short,k,1,2.0968,7,2,30,3,1,,,,,
,1.83,,,,,,,,,d,orange,5d8a77b716a9bf0001d969aa,2021-10-22_12h06.42.022,forced_choiceRT_color,2021.2.3,Win32,59.97001499,,,,,,,,1,Slow,short,k,0,2.158,7,3,31,0,1,,,,,
,1.77,,,,,,,,,d,orange,5d8a77b716a9bf0001d969aa,2021-10-22_12h06.42.022,forced_choiceRT_color,2021.2.3,Win32,59.97001499,,,,,,,,1,Slow,short,d,1,2.1859,8,0,32,0,1,,,,,
,0.5,,,,,,,,,f,blue,5d8a77b716a9bf0001d969aa,2021-10-22_12h06.42.022,forced_choiceRT_color,2021.2.3,Win32,59.97001499,,,,,,,,1,Slow,short,f,1,2.299,8,1,33,1,1,,,,,
,0.29,,,,,,,,,d,orange,5d8a77b716a9bf0001d969aa,2021-10-22_12h06.42.022,forced_choiceRT_color,2021.2.3,Win32,59.97001499,,,,,,,,1,Ontime,short,d,1,2.0353,8,2,34,0,1,,,,,
,1.25,,,,,,,,,k,purple,5d8a77b716a9bf0001d969aa,2021-10-22_12h06.42.022,forced_choiceRT_color,2021.2.3,Win32,59.97001499,,,,,,,,1,Slow,short,k,1,2.1437,8,3,35,3,1,,,,,
,0.33,,,,,,,,,d,orange,5d8a77b716a9bf0001d969aa,2021-10-22_12h06.42.022,forced_choiceRT_color,2021.2.3,Win32,59.97001499,,,,,,,,1,Slow,short,f,0,2.1087,9,0,36,0,1,,,,,
,1.55,,,,,,,,,f,blue,5d8a77b716a9bf0001d969aa,2021-10-22_12h06.42.022,forced_choiceRT_color,2021.2.3,Win32,59.97001499,,,,,,,,1,Slow,short,d,0,2.148,9,1,37,1,1,,,,,
,1.69,,,,,,,,,j,red,5d8a77b716a9bf0001d969aa,2021-10-22_12h06.42.022,forced_choiceRT_color,2021.2.3,Win32,59.97001499,,,,,,,,1,Ontime,short,j,1,2.0423,9,2,38,2,1,,,,,
,1.02,,,,,,,,,j,red,5d8a77b716a9bf0001d969aa,2021-10-22_12h06.42.022,forced_choiceRT_color,2021.2.3,Win32,59.97001499,,,,,,,,1,Fast,short,j,1,1.7504,9,3,39,2,1,,,,,
,,,,,,,,,,,,5d8a77b716a9bf0001d969aa,2021-10-22_12h06.42.022,forced_choiceRT_color,2021.2.3,Win32,59.97001499,,,,,,,,,,,,,,,,,,,0,0,0,0,1
,0.75,,,,,,,,,d,orange,5d8a77b716a9bf0001d969aa,2021-10-22_12h06.42.022,forced_choiceRT_color,2021.2.3,Win32,59.97001499,,,,,,,,2,Fast,short,d,1,1.8187,0,0,0,0,1,,,,,
,0.29,,,,,,,,,d,orange,5d8a77b716a9bf0001d969aa,2021-10-22_12h06.42.022,forced_choiceRT_color,2021.2.3,Win32,59.97001499,,,,,,,,2,Fast,short,d,1,1.7559,0,1,1,0,1,,,,,
,1.4,,,,,,,,,d,orange,5d8a77b716a9bf0001d969aa,2021-10-22_12h06.42.022,forced_choiceRT_color,2021.2.3,Win32,59.97001499,,,,,,,,2,Ontime,short,d,1,2.068,0,2,2,0,1,,,,,
,0.01,,,,,,,,,k,purple,5d8a77b716a9bf0001d969aa,2021-10-22_12h06.42.022,forced_choiceRT_color,2021.2.3,Win32,59.97001499,,,,,,,,2,Ontime,short,k,1,1.9213,0,3,3,3,1,,,,,
,1.3,,,,,,,,,k,purple,5d8a77b716a9bf0001d969aa,2021-10-22_12h06.42.022,forced_choiceRT_color,2021.2.3,Win32,59.97001499,,,,,,,,2,Ontime,short,k,1,1.9711,1,0,4,3,1,,,,,
,1.6,,,,,,,,,d,orange,5d8a77b716a9bf0001d969aa,2021-10-22_12h06.42.022,forced_choiceRT_color,2021.2.3,Win32,59.97001499,,,,,,,,2,Slow,short,d,1,2.1669,1,1,5,0,1,,,,,
,1.52,,,,,,,,,k,purple,5d8a77b716a9bf0001d969aa,2021-10-22_12h06.42.022,forced_choiceRT_color,2021.2.3,Win32,59.97001499,,,,,,,,2,Slow,short,k,1,2.182,1,2,6,3,1,,,,,
,0.48,,,,,,,,,f,blue,5d8a77b716a9bf0001d969aa,2021-10-22_12h06.42.022,forced_choiceRT_color,2021.2.3,Win32,59.97001499,,,,,,,,2,Slow,short,f,1,2.1866,1,3,7,1,1,,,,,
,1.49,,,,,,,,,j,red,5d8a77b716a9bf0001d969aa,2021-10-22_12h06.42.022,forced_choiceRT_color,2021.2.3,Win32,59.97001499,,,,,,,,2,Slow,short,k,0,2.2133,2,0,8,2,1,,,,,
,1.81,,,,,,,,,f,blue,5d8a77b716a9bf0001d969aa,2021-10-22_12h06.42.022,forced_choiceRT_color,2021.2.3,Win32,59.97001499,,,,,,,,2,Slow,short,d,0,2.229,2,1,9,1,1,,,,,
,0.32,,,,,,,,,f,blue,5d8a77b716a9bf0001d969aa,2021-10-22_12h06.42.022,forced_choiceRT_color,2021.2.3,Win32,59.97001499,,,,,,,,2,Fast,short,f,1,1.8645,2,2,10,1,1,,,,,
,0.96,,,,,,,,,k,purple,5d8a77b716a9bf0001d969aa,2021-10-22_12h06.42.022,forced_choiceRT_color,2021.2.3,Win32,59.97001499,,,,,,,,2,Fast,short,k,1,1.6865,2,3,11,3,1,,,,,
,0.06,,,,,,,,,j,red,5d8a77b716a9bf0001d969aa,2021-10-22_12h06.42.022,forced_choiceRT_color,2021.2.3,Win32,59.97001499,,,,,,,,2,Fast,short,j,1,1.7303,3,0,12,2,1,,,,,
,0.64,,,,,,,,,f,blue,5d8a77b716a9bf0001d969aa,2021-10-22_12h06.42.022,forced_choiceRT_color,2021.2.3,Win32,59.97001499,,,,,,,,2,Ontime,short,f,1,2.08,3,1,13,1,1,,,,,
,0.16,,,,,,,,,j,red,5d8a77b716a9bf0001d969aa,2021-10-22_12h06.42.022,forced_choiceRT_color,2021.2.3,Win32,59.97001499,,,,,,,,2,Fast,short,d,0,0.0011,3,2,14,2,1,,,,,
,1.55,,,,,,,,,d,orange,5d8a77b716a9bf0001d969aa,2021-10-22_12h06.42.022,forced_choiceRT_color,2021.2.3,Win32,59.97001499,,,,,,,,2,Slow,short,d,1,2.263,3,3,15,0,1,,,,,
,1.46,,,,,,,,,j,red,5d8a77b716a9bf0001d969aa,2021-10-22_12h06.42.022,forced_choiceRT_color,2021.2.3,Win32,59.97001499,,,,,,,,2,Slow,short,k,0,2.3342,4,0,16,2,1,,,,,
,1.42,,,,,,,,,f,blue,5d8a77b716a9bf0001d969aa,2021-10-22_12h06.42.022,forced_choiceRT_color,2021.2.3,Win32,59.97001499,,,,,,,,2,Slow,short,d,0,2.1853,4,1,17,1,1,,,,,
,0.17,,,,,,,,,j,red,5d8a77b716a9bf0001d969aa,2021-10-22_12h06.42.022,forced_choiceRT_color,2021.2.3,Win32,59.97001499,,,,,,,,2,Ontime,short,j,1,2.0235,4,2,18,2,1,,,,,
,0.98,,,,,,,,,j,red,5d8a77b716a9bf0001d969aa,2021-10-22_12h06.42.022,forced_choiceRT_color,2021.2.3,Win32,59.97001499,,,,,,,,2,Ontime,short,j,1,1.9895,4,3,19,2,1,,,,,
,1.97,,,,,,,,,k,purple,5d8a77b716a9bf0001d969aa,2021-10-22_12h06.42.022,forced_choiceRT_color,2021.2.3,Win32,59.97001499,,,,,,,,2,Slow,short,f,0,2.2689,5,0,20,3,1,,,,,
,1.67,,,,,,,,,j,red,5d8a77b716a9bf0001d969aa,2021-10-22_12h06.42.022,forced_choiceRT_color,2021.2.3,Win32,59.97001499,,,,,,,,2,Slow,short,f,0,3.6301,5,1,21,2,1,,,,,
,0.75,,,,,,,,,d,orange,5d8a77b716a9bf0001d969aa,2021-10-22_12h06.42.022,forced_choiceRT_color,2021.2.3,Win32,59.97001499,,,,,,,,2,Slow,short,f,0,2.5073,5,2,22,0,1,,,,,
,1.85,,,,,,,,,j,red,5d8a77b716a9bf0001d969aa,2021-10-22_12h06.42.022,forced_choiceRT_color,2021.2.3,Win32,59.97001499,,,,,,,,2,Slow,short,d,0,2.3152,5,3,23,2,1,,,,,
,0,,,,,,,,,f,blue,5d8a77b716a9bf0001d969aa,2021-10-22_12h06.42.022,forced_choiceRT_color,2021.2.3,Win32,59.97001499,,,,,,,,2,Slow,short,f,1,2.1135,6,0,24,1,1,,,,,
,0.1,,,,,,,,,f,blue,5d8a77b716a9bf0001d969aa,2021-10-22_12h06.42.022,forced_choiceRT_color,2021.2.3,Win32,59.97001499,,,,,,,,2,Fast,short,f,1,1.7966,6,1,25,1,1,,,,,
,1.8,,,,,,,,,d,orange,5d8a77b716a9bf0001d969aa,2021-10-22_12h06.42.022,forced_choiceRT_color,2021.2.3,Win32,59.97001499,,,,,,,,2,Slow,short,d,1,2.3919,6,2,26,0,1,,,,,
,1.26,,,,,,,,,k,purple,5d8a77b716a9bf0001d969aa,2021-10-22_12h06.42.022,forced_choiceRT_color,2021.2.3,Win32,59.97001499,,,,,,,,2,Ontime,short,k,1,2.0086,6,3,27,3,1,,,,,
,0.7,,,,,,,,,d,orange,5d8a77b716a9bf0001d969aa,2021-10-22_12h06.42.022,forced_choiceRT_color,2021.2.3,Win32,59.97001499,,,,,,,,2,Ontime,short,f,0,2.0028,7,0,28,0,1,,,,,
,0.33,,,,,,,,,k,purple,5d8a77b716a9bf0001d969aa,2021-10-22_12h06.42.022,forced_choiceRT_color,2021.2.3,Win32,59.97001499,,,,,,,,2,Ontime,short,k,1,1.9529,7,1,29,3,1,,,,,
,1.04,,,,,,,,,f,blue,5d8a77b716a9bf0001d969aa,2021-10-22_12h06.42.022,forced_choiceRT_color,2021.2.3,Win32,59.97001499,,,,,,,,2,Fast,short,f,1,1.5636,7,2,30,1,1,,,,,
,1.74,,,,,,,,,k,purple,5d8a77b716a9bf0001d969aa,2021-10-22_12h06.42.022,forced_choiceRT_color,2021.2.3,Win32,59.97001499,,,,,,,,2,Ontime,short,k,1,2.0775,7,3,31,3,1,,,,,
,0,,,,,,,,,j,red,5d8a77b716a9bf0001d969aa,2021-10-22_12h06.42.022,forced_choiceRT_color,2021.2.3,Win32,59.97001499,,,,,,,,2,Fast,short,j,1,1.8922,8,0,32,2,1,,,,,
,1.05,,,,,,,,,f,blue,5d8a77b716a9bf0001d969aa,2021-10-22_12h06.42.022,forced_choiceRT_color,2021.2.3,Win32,59.97001499,,,,,,,,2,Ontime,short,k,0,1.9571,8,1,33,1,1,,,,,
,1.63,,,,,,,,,d,orange,5d8a77b716a9bf0001d969aa,2021-10-22_12h06.42.022,forced_choiceRT_color,2021.2.3,Win32,59.97001499,,,,,,,,2,Slow,short,d,1,2.2962,8,2,34,0,1,,,,,
,1.15,,,,,,,,,k,purple,5d8a77b716a9bf0001d969aa,2021-10-22_12h06.42.022,forced_choiceRT_color,2021.2.3,Win32,59.97001499,,,,,,,,2,Slow,short,k,1,2.1299,8,3,35,3,1,,,,,
,0.13,,,,,,,,,f,blue,5d8a77b716a9bf0001d969aa,2021-10-22_12h06.42.022,forced_choiceRT_color,2021.2.3,Win32,59.97001499,,,,,,,,2,Ontime,short,f,1,2.0899,9,0,36,1,1,,,,,
,0.17,,,,,,,,,j,red,5d8a77b716a9bf0001d969aa,2021-10-22_12h06.42.022,forced_choiceRT_color,2021.2.3,Win32,59.97001499,,,,,,,,2,Ontime,short,j,1,1.915,9,1,37,2,1,,,,,
,1.46,,,,,,,,,d,orange,5d8a77b716a9bf0001d969aa,2021-10-22_12h06.42.022,forced_choiceRT_color,2021.2.3,Win32,59.97001499,,,,,,,,2,Ontime,short,d,1,1.9691,9,2,38,0,1,,,,,
,1.55,,,,,,,,,k,purple,5d8a77b716a9bf0001d969aa,2021-10-22_12h06.42.022,forced_choiceRT_color,2021.2.3,Win32,59.97001499,,,,,,,,2,Slow,short,k,1,2.2148,9,3,39,3,1,,,,,
,,,,,,,,,,,,5d8a77b716a9bf0001d969aa,2021-10-22_12h06.42.022,forced_choiceRT_color,2021.2.3,Win32,59.97001499,,,,,,,,,,,,,,,,,,,1,0,1,0,1
,1.42,,,,,,,,,d,orange,5d8a77b716a9bf0001d969aa,2021-10-22_12h06.42.022,forced_choiceRT_color,2021.2.3,Win32,59.97001499,,,,,,,,3,Ontime,short,d,1,1.9348,0,0,0,0,1,,,,,
,1.54,,,,,,,,,d,orange,5d8a77b716a9bf0001d969aa,2021-10-22_12h06.42.022,forced_choiceRT_color,2021.2.3,Win32,59.97001499,,,,,,,,3,Ontime,short,d,1,1.9753,0,1,1,0,1,,,,,
,0.05,,,,,,,,,f,blue,5d8a77b716a9bf0001d969aa,2021-10-22_12h06.42.022,forced_choiceRT_color,2021.2.3,Win32,59.97001499,,,,,,,,3,Slow,short,f,1,2.1043,0,2,2,1,1,,,,,
,0.17,,,,,,,,,k,purple,5d8a77b716a9bf0001d969aa,2021-10-22_12h06.42.022,forced_choiceRT_color,2021.2.3,Win32,59.97001499,,,,,,,,3,Ontime,short,k,1,2.0276,0,3,3,3,1,,,,,
,0.38,,,,,,,,,f,blue,5d8a77b716a9bf0001d969aa,2021-10-22_12h06.42.022,forced_choiceRT_color,2021.2.3,Win32,59.97001499,,,,,,,,3,Ontime,short,f,1,2.0646,1,0,4,1,1,,,,,
,0.5,,,,,,,,,j,red,5d8a77b716a9bf0001d969aa,2021-10-22_12h06.42.022,forced_choiceRT_color,2021.2.3,Win32,59.97001499,,,,,,,,3,Slow,short,j,1,2.1215,1,1,5,2,1,,,,,
,1.19,,,,,,,,,k,purple,5d8a77b716a9bf0001d969aa,2021-10-22_12h06.42.022,forced_choiceRT_color,2021.2.3,Win32,59.97001499,,,,,,,,3,Slow,short,k,1,2.2536,1,2,6,3,1,,,,,
,1.56,,,,,,,,,d,orange,5d8a77b716a9bf0001d969aa,2021-10-22_12h06.42.022,forced_choiceRT_color,2021.2.3,Win32,59.97001499,,,,,,,,3,Slow,short,f,0,2.1715,1,3,7,0,1,,,,,
,1.65,,,,,,,,,j,red,5d8a77b716a9bf0001d969aa,2021-10-22_12h06.42.022,forced_choiceRT_color,2021.2.3,Win32,59.97001499,,,,,,,,3,Slow,short,j,1,2.4319,2,0,8,2,1,,,,,
,1.47,,,,,,,,,d,orange,5d8a77b716a9bf0001d969aa,2021-10-22_12h06.42.022,forced_choiceRT_color,2021.2.3,Win32,59.97001499,,,,,,,,3,Slow,short,d,1,2.2069,2,1,9,0,1,,,,,
,0.38,,,,,,,,,f,blue,5d8a77b716a9bf0001d969aa,2021-10-22_12h06.42.022,forced_choiceRT_color,2021.2.3,Win32,59.97001499,,,,,,,,3,Ontime,short,f,1,2.0455,2,2,10,1,1,,,,,
,1.88,,,,,,,,,j,red,5d8a77b716a9bf0001d969aa,2021-10-22_12h06.42.022,forced_choiceRT_color,2021.2.3,Win32,59.97001499,,,,,,,,3,Slow,short,f,0,2.2042,2,3,11,2,1,,,,,
,1.94,,,,,,,,,d,orange,5d8a77b716a9bf0001d969aa,2021-10-22_12h06.42.022,forced_choiceRT_color,2021.2.3,Win32,59.97001499,,,,,,,,3,Slow,short,j,0,2.2102,3,0,12,0,1,,,,,
,1.45,,,,,,,,,d,orange,5d8a77b716a9bf0001d969aa,2021-10-22_12h06.42.022,forced_choiceRT_color,2021.2.3,Win32,59.97001499,,,,,,,,3,Fast,short,d,1,0.0566,3,1,13,0,1,,,,,
,1.6,,,,,,,,,f,blue,5d8a77b716a9bf0001d969aa,2021-10-22_12h06.42.022,forced_choiceRT_color,2021.2.3,Win32,59.97001499,,,,,,,,3,Slow,short,f,1,2.8565,3,2,14,1,1,,,,,
,1.7,,,,,,,,,f,blue,5d8a77b716a9bf0001d969aa,2021-10-22_12h06.42.022,forced_choiceRT_color,2021.2.3,Win32,59.97001499,,,,,,,,3,Slow,short,f,1,2.3071,3,3,15,1,1,,,,,
,1.05,,,,,,,,,d,orange,5d8a77b716a9bf0001d969aa,2021-10-22_12h06.42.022,forced_choiceRT_color,2021.2.3,Win32,59.97001499,,,,,,,,3,Fast,short,d,1,1.852,4,0,16,0,1,,,,,
,1.01,,,,,,,,,k,purple,5d8a77b716a9bf0001d969aa,2021-10-22_12h06.42.022,forced_choiceRT_color,2021.2.3,Win32,59.97001499,,,,,,,,3,Ontime,short,k,1,1.9837,4,1,17,3,1,,,,,
,0.22,,,,,,,,,k,purple,5d8a77b716a9bf0001d969aa,2021-10-22_12h06.42.022,forced_choiceRT_color,2021.2.3,Win32,59.97001499,,,,,,,,3,Fast,short,k,1,1.7138,4,2,18,3,1,,,,,
,1.97,,,,,,,,,k,purple,5d8a77b716a9bf0001d969aa,2021-10-22_12h06.42.022,forced_choiceRT_color,2021.2.3,Win32,59.97001499,,,,,,,,3,Slow,short,k,1,2.2895,4,3,19,3,1,,,,,
,0,,,,,,,,,f,blue,5d8a77b716a9bf0001d969aa,2021-10-22_12h06.42.022,forced_choiceRT_color,2021.2.3,Win32,59.97001499,,,,,,,,3,Slow,short,f,1,2.1733,5,0,20,1,1,,,,,
,1.97,,,,,,,,,k,purple,5d8a77b716a9bf0001d969aa,2021-10-22_12h06.42.022,forced_choiceRT_color,2021.2.3,Win32,59.97001499,,,,,,,,3,Slow,short,k,1,2.2455,5,1,21,3,1,,,,,
,0.68,,,,,,,,,j,red,5d8a77b716a9bf0001d969aa,2021-10-22_12h06.42.022,forced_choiceRT_color,2021.2.3,Win32,59.97001499,,,,,,,,3,Slow,short,j,1,2.291,5,2,22,2,1,,,,,
,0.76,,,,,,,,,f,blue,5d8a77b716a9bf0001d969aa,2021-10-22_12h06.42.022,forced_choiceRT_color,2021.2.3,Win32,59.97001499,,,,,,,,3,Slow,short,d,0,2.1803,5,3,23,1,1,,,,,
,0.92,,,,,,,,,d,orange,5d8a77b716a9bf0001d969aa,2021-10-22_12h06.42.022,forced_choiceRT_color,2021.2.3,Win32,59.97001499,,,,,,,,3,Ontime,short,d,1,2.0912,6,0,24,0,1,,,,,
,0.13,,,,,,,,,j,red,5d8a77b716a9bf0001d969aa,2021-10-22_12h06.42.022,forced_choiceRT_color,2021.2.3,Win32,59.97001499,,,,,,,,3,Slow,short,j,1,2.2012,6,1,25,2,1,,,,,
,0.83,,,,,,,,,j,red,5d8a77b716a9bf0001d969aa,2021-10-22_12h06.42.022,forced_choiceRT_color,2021.2.3,Win32,59.97001499,,,,,,,,3,Slow,short,j,1,2.2587,6,2,26,2,1,,,,,
,1.66,,,,,,,,,f,blue,5d8a77b716a9bf0001d969aa,2021-10-22_12h06.42.022,forced_choiceRT_color,2021.2.3,Win32,59.97001499,,,,,,,,3,Slow,short,d,0,2.234,6,3,27,1,1,,,,,
,1.6,,,,,,,,,k,purple,5d8a77b716a9bf0001d969aa,2021-10-22_12h06.42.022,forced_choiceRT_color,2021.2.3,Win32,59.97001499,,,,,,,,3,Slow,short,k,1,2.2384,7,0,28,3,1,,,,,
,1.69,,,,,,,,,f,blue,5d8a77b716a9bf0001d969aa,2021-10-22_12h06.42.022,forced_choiceRT_color,2021.2.3,Win32,59.97001499,,,,,,,,3,Slow,short,f,1,2.2457,7,1,29,1,1,,,,,
,1.46,,,,,,,,,d,orange,5d8a77b716a9bf0001d969aa,2021-10-22_12h06.42.022,forced_choiceRT_color,2021.2.3,Win32,59.97001499,,,,,,,,3,Slow,short,d,1,2.2662,7,2,30,0,1,,,,,
,1.36,,,,,,,,,k,purple,5d8a77b716a9bf0001d969aa,2021-10-22_12h06.42.022,forced_choiceRT_color,2021.2.3,Win32,59.97001499,,,,,,,,3,Fast,short,k,1,1.8992,7,3,31,3,1,,,,,
,0.64,,,,,,,,,j,red,5d8a77b716a9bf0001d969aa,2021-10-22_12h06.42.022,forced_choiceRT_color,2021.2.3,Win32,59.97001499,,,,,,,,3,Slow,short,j,1,2.116,8,0,32,2,1,,,,,
,1.16,,,,,,,,,k,purple,5d8a77b716a9bf0001d969aa,2021-10-22_12h06.42.022,forced_choiceRT_color,2021.2.3,Win32,59.97001499,,,,,,,,3,Ontime,short,k,1,2.0711,8,1,33,3,1,,,,,
,1.77,,,,,,,,,k,purple,5d8a77b716a9bf0001d969aa,2021-10-22_12h06.42.022,forced_choiceRT_color,2021.2.3,Win32,59.97001499,,,,,,,,3,Slow,short,k,1,2.1172,8,2,34,3,1,,,,,
,0.91,,,,,,,,,d,orange,5d8a77b716a9bf0001d969aa,2021-10-22_12h06.42.022,forced_choiceRT_color,2021.2.3,Win32,59.97001499,,,,,,,,3,Ontime,short,d,1,1.9232,8,3,35,0,1,,,,,
,0.72,,,,,,,,,j,red,5d8a77b716a9bf0001d969aa,2021-10-22_12h06.42.022,forced_choiceRT_color,2021.2.3,Win32,59.97001499,,,,,,,,3,Ontime,short,j,1,1.9118,9,0,36,2,1,,,,,
,0.07,,,,,,,,,j,red,5d8a77b716a9bf0001d969aa,2021-10-22_12h06.42.022,forced_choiceRT_color,2021.2.3,Win32,59.97001499,,,,,,,,3,Fast,short,j,1,0.235,9,1,37,2,1,,,,,
,0,,,,,,,,,f,blue,5d8a77b716a9bf0001d969aa,2021-10-22_12h06.42.022,forced_choiceRT_color,2021.2.3,Win32,59.97001499,,,,,,,,3,Ontime,short,f,1,2.0232,9,2,38,1,1,,,,,
,1.31,,,,,,,,,j,red,5d8a77b716a9bf0001d969aa,2021-10-22_12h06.42.022,forced_choiceRT_color,2021.2.3,Win32,59.97001499,,,,,,,,3,Ontime,short,k,0,2.0478,9,3,39,2,1,,,,,
,,,,,,,,,,,,5d8a77b716a9bf0001d969aa,2021-10-22_12h06.42.022,forced_choiceRT_color,2021.2.3,Win32,59.97001499,,,,,,,,,,,,,,,,,,,2,0,2,0,1
,1.53,,,,,,,,,f,blue,5d8a77b716a9bf0001d969aa,2021-10-22_12h06.42.022,forced_choiceRT_color,2021.2.3,Win32,59.97001499,,,,,,,,4,Slow,short,k,0,3.2793,0,0,0,1,1,,,,,
,0.21,,,,,,,,,j,red,5d8a77b716a9bf0001d969aa,2021-10-22_12h06.42.022,forced_choiceRT_color,2021.2.3,Win32,59.97001499,,,,,,,,4,Slow,short,j,1,2.1813,0,1,1,2,1,,,,,
,1.28,,,,,,,,,f,blue,5d8a77b716a9bf0001d969aa,2021-10-22_12h06.42.022,forced_choiceRT_color,2021.2.3,Win32,59.97001499,,,,,,,,4,Slow,short,f,1,2.1351,0,2,2,1,1,,,,,
,0.6,,,,,,,,,k,purple,5d8a77b716a9bf0001d969aa,2021-10-22_12h06.42.022,forced_choiceRT_color,2021.2.3,Win32,59.97001499,,,,,,,,4,Ontime,short,k,1,1.9061,0,3,3,3,1,,,,,
,1.21,,,,,,,,,f,blue,5d8a77b716a9bf0001d969aa,2021-10-22_12h06.42.022,forced_choiceRT_color,2021.2.3,Win32,59.97001499,,,,,,,,4,Ontime,short,f,1,1.9029,1,0,4,1,1,,,,,
,0.31,,,,,,,,,k,purple,5d8a77b716a9bf0001d969aa,2021-10-22_12h06.42.022,forced_choiceRT_color,2021.2.3,Win32,59.97001499,,,,,,,,4,Fast,short,k,1,1.8205,1,1,5,3,1,,,,,
,1.29,,,,,,,,,k,purple,5d8a77b716a9bf0001d969aa,2021-10-22_12h06.42.022,forced_choiceRT_color,2021.2.3,Win32,59.97001499,,,,,,,,4,Ontime,short,k,1,2.065,1,2,6,3,1,,,,,
,0.11,,,,,,,,,j,red,5d8a77b716a9bf0001d969aa,2021-10-22_12h06.42.022,forced_choiceRT_color,2021.2.3,Win32,59.97001499,,,,,,,,4,Ontime,short,j,1,2.0667,1,3,7,2,1,,,,,
,0.94,,,,,,,,,k,purple,5d8a77b716a9bf0001d969aa,2021-10-22_12h06.42.022,forced_choiceRT_color,2021.2.3,Win32,59.97001499,,,,,,,,4,Slow,short,k,1,2.2247,2,0,8,3,1,,,,,
,1.75,,,,,,,,,k,purple,5d8a77b716a9bf0001d969aa,2021-10-22_12h06.42.022,forced_choiceRT_color,2021.2.3,Win32,59.97001499,,,,,,,,4,Slow,short,k,1,2.1093,2,1,9,3,1,,,,,
,0.44,,,,,,,,,d,orange,5d8a77b716a9bf0001d969aa,2021-10-22_12h06.42.022,forced_choiceRT_color,2021.2.3,Win32,59.97001499,,,,,,,,4,Ontime,short,d,1,2.0089,2,2,10,0,1,,,,,
,0.37,,,,,,,,,f,blue,5d8a77b716a9bf0001d969aa,2021-10-22_12h06.42.022,forced_choiceRT_color,2021.2.3,Win32,59.97001499,,,,,,,,4,Ontime,short,f,1,2.0065,2,3,11,1,1,,,,,
,1.83,,,,,,,,,d,orange,5d8a77b716a9bf0001d969aa,2021-10-22_12h06.42.022,forced_choiceRT_color,2021.2.3,Win32,59.97001499,,,,,,,,4,Slow,short,d,1,2.2431,3,0,12,0,1,,,,,
,0.27,,,,,,,,,k,purple,5d8a77b716a9bf0001d969aa,2021-10-22_12h06.42.022,forced_choiceRT_color,2021.2.3,Win32,59.97001499,,,,,,,,4,Slow,short,k,1,2.2783,3,1,13,3,1,,,,,
,0.43,,,,,,,,,k,purple,5d8a77b716a9bf0001d969aa,2021-10-22_12h06.42.022,forced_choiceRT_color,2021.2.3,Win32,59.97001499,,,,,,,,4,Ontime,short,k,1,2.0447,3,2,14,3,1,,,,,
,1.63,,,,,,,,,d,orange,5d8a77b716a9bf0001d969aa,2021-10-22_12h06.42.022,forced_choiceRT_color,2021.2.3,Win32,59.97001499,,,,,,,,4,Slow,short,f,0,2.129,3,3,15,0,1,,,,,
,0.38,,,,,,,,,f,blue,5d8a77b716a9bf0001d969aa,2021-10-22_12h06.42.022,forced_choiceRT_color,2021.2.3,Win32,59.97001499,,,,,,,,4,Slow,short,f,1,2.124,4,0,16,1,1,,,,,
,0.6,,,,,,,,,f,blue,5d8a77b716a9bf0001d969aa,2021-10-22_12h06.42.022,forced_choiceRT_color,2021.2.3,Win32,59.97001499,,,,,,,,4,Ontime,short,f,1,1.9802,4,1,17,1,1,,,,,
,0.14,,,,,,,,,d,orange,5d8a77b716a9bf0001d969aa,2021-10-22_12h06.42.022,forced_choiceRT_color,2021.2.3,Win32,59.97001499,,,,,,,,4,Ontime,short,j,0,1.9204,4,2,18,0,1,,,,,
,0.77,,,,,,,,,k,purple,5d8a77b716a9bf0001d969aa,2021-10-22_12h06.42.022,forced_choiceRT_color,2021.2.3,Win32,59.97001499,,,,,,,,4,Slow,short,k,1,2.3071,4,3,19,3,1,,,,,
,0.03,,,,,,,,,k,purple,5d8a77b716a9bf0001d969aa,2021-10-22_12h06.42.022,forced_choiceRT_color,2021.2.3,Win32,59.97001499,,,,,,,,4,Fast,short,k,1,1.8781,5,0,20,3,1,,,,,
,1.31,,,,,,,,,d,orange,5d8a77b716a9bf0001d969aa,2021-10-22_12h06.42.022,forced_choiceRT_color,2021.2.3,Win32,59.97001499,,,,,,,,4,Fast,short,f,0,1.8835,5,1,21,0,1,,,,,
,0.09,,,,,,,,,f,blue,5d8a77b716a9bf0001d969aa,2021-10-22_12h06.42.022,forced_choiceRT_color,2021.2.3,Win32,59.97001499,,,,,,,,4,Ontime,short,f,1,2.0188,5,2,22,1,1,,,,,
,1.74,,,,,,,,,j,red,5d8a77b716a9bf0001d969aa,2021-10-22_12h06.42.022,forced_choiceRT_color,2021.2.3,Win32,59.97001499,,,,,,,,4,Ontime,short,j,1,2.0319,5,3,23,2,1,,,,,
,1.09,,,,,,,,,f,blue,5d8a77b716a9bf0001d969aa,2021-10-22_12h06.42.022,forced_choiceRT_color,2021.2.3,Win32,59.97001499,,,,,,,,4,Ontime,short,f,1,1.9827,6,0,24,1,1,,,,,
,0.61,,,,,,,,,j,red,5d8a77b716a9bf0001d969aa,2021-10-22_12h06.42.022,forced_choiceRT_color,2021.2.3,Win32,59.97001499,,,,,,,,4,Fast,short,j,1,1.8637,6,1,25,2,1,,,,,
,1.78,,,,,,,,,j,red,5d8a77b716a9bf0001d969aa,2021-10-22_12h06.42.022,forced_choiceRT_color,2021.2.3,Win32,59.97001499,,,,,,,,4,Ontime,short,k,0,2.0589,6,2,26,2,1,,,,,
,0.66,,,,,,,,,j,red,5d8a77b716a9bf0001d969aa,2021-10-22_12h06.42.022,forced_choiceRT_color,2021.2.3,Win32,59.97001499,,,,,,,,4,Fast,short,j,1,1.3661,6,3,27,2,1,,,,,
,1.22,,,,,,,,,f,blue,5d8a77b716a9bf0001d969aa,2021-10-22_12h06.42.022,forced_choiceRT_color,2021.2.3,Win32,59.97001499,,,,,,,,4,Slow,short,f,1,2.2234,7,0,28,1,1,,,,,
,1.93,,,,,,,,,d,orange,5d8a77b716a9bf0001d969aa,2021-10-22_12h06.42.022,forced_choiceRT_color,2021.2.3,Win32,59.97001499,,,,,,,,4,Slow,short,f,0,2.5278,7,1,29,0,1,,,,,
,1.54,,,,,,,,,j,red,5d8a77b716a9bf0001d969aa,2021-10-22_12h06.42.022,forced_choiceRT_color,2021.2.3,Win32,59.97001499,,,,,,,,4,Slow,short,j,1,2.2396,7,2,30,2,1,,,,,
,1.57,,,,,,,,,j,red,5d8a77b716a9bf0001d969aa,2021-10-22_12h06.42.022,forced_choiceRT_color,2021.2.3,Win32,59.97001499,,,,,,,,4,Slow,short,j,1,2.2555,7,3,31,2,1,,,,,
,0.73,,,,,,,,,j,red,5d8a77b716a9bf0001d969aa,2021-10-22_12h06.42.022,forced_choiceRT_color,2021.2.3,Win32,59.97001499,,,,,,,,4,Slow,short,j,1,2.1399,8,0,32,2,1,,,,,
,0.27,,,,,,,,,j,red,5d8a77b716a9bf0001d969aa,2021-10-22_12h06.42.022,forced_choiceRT_color,2021.2.3,Win32,59.97001499,,,,,,,,4,Ontime,short,j,1,1.9867,8,1,33,2,1,,,,,
,1.48,,,,,,,,,d,orange,5d8a77b716a9bf0001d969aa,2021-10-22_12h06.42.022,forced_choiceRT_color,2021.2.3,Win32,59.97001499,,,,,,,,4,Ontime,short,d,1,2.0793,8,2,34,0,1,,,,,
,0.71,,,,,,,,,d,orange,5d8a77b716a9bf0001d969aa,2021-10-22_12h06.42.022,forced_choiceRT_color,2021.2.3,Win32,59.97001499,,,,,,,,4,Ontime,short,d,1,1.9297,8,3,35,0,1,,,,,
,0.29,,,,,,,,,k,purple,5d8a77b716a9bf0001d969aa,2021-10-22_12h06.42.022,forced_choiceRT_color,2021.2.3,Win32,59.97001499,,,,,,,,4,Ontime,short,k,1,1.9069,9,0,36,3,1,,,,,
,0.74,,,,,,,,,f,blue,5d8a77b716a9bf0001d969aa,2021-10-22_12h06.42.022,forced_choiceRT_color,2021.2.3,Win32,59.97001499,,,,,,,,4,Ontime,short,f,1,1.9754,9,1,37,1,1,,,,,
,0.19,,,,,,,,,d,orange,5d8a77b716a9bf0001d969aa,2021-10-22_12h06.42.022,forced_choiceRT_color,2021.2.3,Win32,59.97001499,,,,,,,,4,Ontime,short,j,0,1.9302,9,2,38,0,1,,,,,
,1.54,,,,,,,,,d,orange,5d8a77b716a9bf0001d969aa,2021-10-22_12h06.42.022,forced_choiceRT_color,2021.2.3,Win32,59.97001499,,,,,,,,4,Ontime,short,f,0,2.0853,9,3,39,0,1,,,,,
,,,,,,,,,,,,5d8a77b716a9bf0001d969aa,2021-10-22_12h06.42.022,forced_choiceRT_color,2021.2.3,Win32,59.97001499,,,,,,,,,,,,,,,,,,,3,0,3,0,1
,0.48,,,,,,,,,f,blue,5d8a77b716a9bf0001d969aa,2021-10-22_12h06.42.022,forced_choiceRT_color,2021.2.3,Win32,59.97001499,,,,,,,,5,Fast,short,f,1,1.8571,0,0,0,1,1,,,,,
,1.19,,,,,,,,,k,purple,5d8a77b716a9bf0001d969aa,2021-10-22_12h06.42.022,forced_choiceRT_color,2021.2.3,Win32,59.97001499,,,,,,,,5,Slow,short,k,1,2.1499,0,1,1,3,1,,,,,
,0.27,,,,,,,,,k,purple,5d8a77b716a9bf0001d969aa,2021-10-22_12h06.42.022,forced_choiceRT_color,2021.2.3,Win32,59.97001499,,,,,,,,5,Fast,short,k,1,1.8777,0,2,2,3,1,,,,,
,0.84,,,,,,,,,f,blue,5d8a77b716a9bf0001d969aa,2021-10-22_12h06.42.022,forced_choiceRT_color,2021.2.3,Win32,59.97001499,,,,,,,,5,Ontime,short,f,1,1.9742,0,3,3,1,1,,,,,
,0.9,,,,,,,,,d,orange,5d8a77b716a9bf0001d969aa,2021-10-22_12h06.42.022,forced_choiceRT_color,2021.2.3,Win32,59.97001499,,,,,,,,5,Ontime,short,j,0,2.0147,1,0,4,0,1,,,,,
,1.24,,,,,,,,,j,red,5d8a77b716a9bf0001d969aa,2021-10-22_12h06.42.022,forced_choiceRT_color,2021.2.3,Win32,59.97001499,,,,,,,,5,Fast,short,j,1,1.8899,1,1,5,2,1,,,,,
,1.57,,,,,,,,,j,red,5d8a77b716a9bf0001d969aa,2021-10-22_12h06.42.022,forced_choiceRT_color,2021.2.3,Win32,59.97001499,,,,,,,,5,Slow,short,j,1,2.1332,1,2,6,2,1,,,,,
,0.83,,,,,,,,,k,purple,5d8a77b716a9bf0001d969aa,2021-10-22_12h06.42.022,forced_choiceRT_color,2021.2.3,Win32,59.97001499,,,,,,,,5,Ontime,short,k,1,1.9345,1,3,7,3,1,,,,,
,0.79,,,,,,,,,j,red,5d8a77b716a9bf0001d969aa,2021-10-22_12h06.42.022,forced_choiceRT_color,2021.2.3,Win32,59.97001499,,,,,,,,5,Ontime,short,j,1,2.0663,2,0,8,2,1,,,,,
,0.3,,,,,,,,,k,purple,5d8a77b716a9bf0001d969aa,2021-10-22_12h06.42.022,forced_choiceRT_color,2021.2.3,Win32,59.97001499,,,,,,,,5,Ontime,short,k,1,2.0079,2,1,9,3,1,,,,,
,1.95,,,,,,,,,k,purple,5d8a77b716a9bf0001d969aa,2021-10-22_12h06.42.022,forced_choiceRT_color,2021.2.3,Win32,59.97001499,,,,,,,,5,Slow,short,k,1,2.25,2,2,10,3,1,,,,,
,1.67,,,,,,,,,f,blue,5d8a77b716a9bf0001d969aa,2021-10-22_12h06.42.022,forced_choiceRT_color,2021.2.3,Win32,59.97001499,,,,,,,,5,Ontime,short,j,0,2.063,2,3,11,1,1,,,,,
,0.33,,,,,,,,,d,orange,5d8a77b716a9bf0001d969aa,2021-10-22_12h06.42.022,forced_choiceRT_color,2021.2.3,Win32,59.97001499,,,,,,,,5,Ontime,short,d,1,2.0473,3,0,12,0,1,,,,,
,1.12,,,,,,,,,j,red,5d8a77b716a9bf0001d969aa,2021-10-22_12h06.42.022,forced_choiceRT_color,2021.2.3,Win32,59.97001499,,,,,,,,5,Slow,short,k,0,2.2238,3,1,13,2,1,,,,,
,1.14,,,,,,,,,k,purple,5d8a77b716a9bf0001d969aa,2021-10-22_12h06.42.022,forced_choiceRT_color,2021.2.3,Win32,59.97001499,,,,,,,,5,Ontime,short,k,1,1.9593,3,2,14,3,1,,,,,
,0.34,,,,,,,,,f,blue,5d8a77b716a9bf0001d969aa,2021-10-22_12h06.42.022,forced_choiceRT_color,2021.2.3,Win32,59.97001499,,,,,,,,5,Ontime,short,f,1,2.0843,3,3,15,1,1,,,,,
,1.04,,,,,,,,,d,orange,5d8a77b716a9bf0001d969aa,2021-10-22_12h06.42.022,forced_choiceRT_color,2021.2.3,Win32,59.97001499,,,,,,,,5,Ontime,short,d,1,1.9352,4,0,16,0,1,,,,,
,0.4,,,,,,,,,f,blue,5d8a77b716a9bf0001d969aa,2021-10-22_12h06.42.022,forced_choiceRT_color,2021.2.3,Win32,59.97001499,,,,,,,,5,Ontime,short,f,1,2.0542,4,1,17,1,1,,,,,
,1.28,,,,,,,,,d,orange,5d8a77b716a9bf0001d969aa,2021-10-22_12h06.42.022,forced_choiceRT_color,2021.2.3,Win32,59.97001499,,,,,,,,5,Ontime,short,d,1,2.0524,4,2,18,0,1,,,,,
,1.42,,,,,,,,,j,red,5d8a77b716a9bf0001d969aa,2021-10-22_12h06.42.022,forced_choiceRT_color,2021.2.3,Win32,59.97001499,,,,,,,,5,Slow,short,j,1,2.1847,4,3,19,2,1,,,,,
,0.39,,,,,,,,,f,blue,5d8a77b716a9bf0001d969aa,2021-10-22_12h06.42.022,forced_choiceRT_color,2021.2.3,Win32,59.97001499,,,,,,,,5,Ontime,short,f,1,2.0304,5,0,20,1,1,,,,,
,1.13,,,,,,,,,d,orange,5d8a77b716a9bf0001d969aa,2021-10-22_12h06.42.022,forced_choiceRT_color,2021.2.3,Win32,59.97001499,,,,,,,,5,Fast,short,d,1,1.6492,5,1,21,0,1,,,,,
,0.82,,,,,,,,,k,purple,5d8a77b716a9bf0001d969aa,2021-10-22_12h06.42.022,forced_choiceRT_color,2021.2.3,Win32,59.97001499,,,,,,,,5,Ontime,short,k,1,2.0659,5,2,22,3,1,,,,,
,0.19,,,,,,,,,d,orange,5d8a77b716a9bf0001d969aa,2021-10-22_12h06.42.022,forced_choiceRT_color,2021.2.3,Win32,59.97001499,,,,,,,,5,Ontime,short,d,1,1.9887,5,3,23,0,1,,,,,
,1.02,,,,,,,,,j,red,5d8a77b716a9bf0001d969aa,2021-10-22_12h06.42.022,forced_choiceRT_color,2021.2.3,Win32,59.97001499,,,,,,,,5,Ontime,short,j,1,2.0502,6,0,24,2,1,,,,,
,0.06,,,,,,,,,k,purple,5d8a77b716a9bf0001d969aa,2021-10-22_12h06.42.022,forced_choiceRT_color,2021.2.3,Win32,59.97001499,,,,,,,,5,Fast,short,k,1,0.8715,6,1,25,3,1,,,,,
,1.13,,,,,,,,,k,purple,5d8a77b716a9bf0001d969aa,2021-10-22_12h06.42.022,forced_choiceRT_color,2021.2.3,Win32,59.97001499,,,,,,,,5,Ontime,short,k,1,2.0513,6,2,26,3,1,,,,,
,0.23,,,,,,,,,f,blue,5d8a77b716a9bf0001d969aa,2021-10-22_12h06.42.022,forced_choiceRT_color,2021.2.3,Win32,59.97001499,,,,,,,,5,Slow,short,f,1,2.1641,6,3,27,1,1,,,,,
,0.52,,,,,,,,,d,orange,5d8a77b716a9bf0001d969aa,2021-10-22_12h06.42.022,forced_choiceRT_color,2021.2.3,Win32,59.97001499,,,,,,,,5,Slow,short,d,1,2.2828,7,0,28,0,1,,,,,
,0.08,,,,,,,,,j,red,5d8a77b716a9bf0001d969aa,2021-10-22_12h06.42.022,forced_choiceRT_color,2021.2.3,Win32,59.97001499,,,,,,,,5,Slow,short,k,0,2.1493,7,1,29,2,1,,,,,
,0.73,,,,,,,,,d,orange,5d8a77b716a9bf0001d969aa,2021-10-22_12h06.42.022,forced_choiceRT_color,2021.2.3,Win32,59.97001499,,,,,,,,5,Slow,short,d,1,2.1231,7,2,30,0,1,,,,,
,0.88,,,,,,,,,d,orange,5d8a77b716a9bf0001d969aa,2021-10-22_12h06.42.022,forced_choiceRT_color,2021.2.3,Win32,59.97001499,,,,,,,,5,Slow,short,d,1,2.1515,7,3,31,0,1,,,,,
,0.99,,,,,,,,,f,blue,5d8a77b716a9bf0001d969aa,2021-10-22_12h06.42.022,forced_choiceRT_color,2021.2.3,Win32,59.97001499,,,,,,,,5,Slow,short,f,1,2.2206,8,0,32,1,1,,,,,
,1.35,,,,,,,,,j,red,5d8a77b716a9bf0001d969aa,2021-10-22_12h06.42.022,forced_choiceRT_color,2021.2.3,Win32,59.97001499,,,,,,,,5,Slow,short,f,0,2.1813,8,1,33,2,1,,,,,
,1.15,,,,,,,,,k,purple,5d8a77b716a9bf0001d969aa,2021-10-22_12h06.42.022,forced_choiceRT_color,2021.2.3,Win32,59.97001499,,,,,,,,5,Ontime,short,k,1,2.0098,8,2,34,3,1,,,,,
,0.14,,,,,,,,,f,blue,5d8a77b716a9bf0001d969aa,2021-10-22_12h06.42.022,forced_choiceRT_color,2021.2.3,Win32,59.97001499,,,,,,,,5,Slow,short,f,1,2.1613,8,3,35,1,1,,,,,
,1.48,,,,,,,,,d,orange,5d8a77b716a9bf0001d969aa,2021-10-22_12h06.42.022,forced_choiceRT_color,2021.2.3,Win32,59.97001499,,,,,,,,5,Slow,short,d,1,2.1801,9,0,36,0,1,,,,,
,0.1,,,,,,,,,j,red,5d8a77b716a9bf0001d969aa,2021-10-22_12h06.42.022,forced_choiceRT_color,2021.2.3,Win32,59.97001499,,,,,,,,5,Fast,short,j,1,1.8975,9,1,37,2,1,,,,,
,0.93,,,,,,,,,f,blue,5d8a77b716a9bf0001d969aa,2021-10-22_12h06.42.022,forced_choiceRT_color,2021.2.3,Win32,59.97001499,,,,,,,,5,Ontime,short,f,1,1.9666,9,2,38,1,1,,,,,
,0.88,,,,,,,,,j,red,5d8a77b716a9bf0001d969aa,2021-10-22_12h06.42.022,forced_choiceRT_color,2021.2.3,Win32,59.97001499,,,,,,,,5,Fast,short,j,1,1.898,9,3,39,2,1,,,,,
,,,,,,,,,,,,5d8a77b716a9bf0001d969aa,2021-10-22_12h06.42.022,forced_choiceRT_color,2021.2.3,Win32,59.97001499,,,,,,,,,,,,,,,,,,,4,0,4,0,1
,0.59,,,,,,,,,d,orange,5d8a77b716a9bf0001d969aa,2021-10-22_12h06.42.022,forced_choiceRT_color,2021.2.3,Win32,59.97001499,,,,,,,,6,Fast,short,d,1,1.8092,0,0,0,0,1,,,,,
,1.86,,,,,,,,,j,red,5d8a77b716a9bf0001d969aa,2021-10-22_12h06.42.022,forced_choiceRT_color,2021.2.3,Win32,59.97001499,,,,,,,,6,Slow,short,f,0,2.3041,0,1,1,2,1,,,,,
,0.37,,,,,,,,,d,orange,5d8a77b716a9bf0001d969aa,2021-10-22_12h06.42.022,forced_choiceRT_color,2021.2.3,Win32,59.97001499,,,,,,,,6,Ontime,short,d,1,2.0668,0,2,2,0,1,,,,,
,1.82,,,,,,,,,f,blue,5d8a77b716a9bf0001d969aa,2021-10-22_12h06.42.022,forced_choiceRT_color,2021.2.3,Win32,59.97001499,,,,,,,,6,Slow,short,f,1,3.2209,0,3,3,1,1,,,,,
,1.84,,,,,,,,,j,red,5d8a77b716a9bf0001d969aa,2021-10-22_12h06.42.022,forced_choiceRT_color,2021.2.3,Win32,59.97001499,,,,,,,,6,Slow,short,k,0,2.1901,1,0,4,2,1,,,,,
,1.98,,,,,,,,,f,blue,5d8a77b716a9bf0001d969aa,2021-10-22_12h06.42.022,forced_choiceRT_color,2021.2.3,Win32,59.97001499,,,,,,,,6,Slow,short,f,1,2.4997,1,1,5,1,1,,,,,
,1.14,,,,,,,,,j,red,5d8a77b716a9bf0001d969aa,2021-10-22_12h06.42.022,forced_choiceRT_color,2021.2.3,Win32,59.97001499,,,,,,,,6,Slow,short,k,0,2.2675,1,2,6,2,1,,,,,
,0.78,,,,,,,,,k,purple,5d8a77b716a9bf0001d969aa,2021-10-22_12h06.42.022,forced_choiceRT_color,2021.2.3,Win32,59.97001499,,,,,,,,6,Slow,short,k,1,2.1063,1,3,7,3,1,,,,,
,1.74,,,,,,,,,d,orange,5d8a77b716a9bf0001d969aa,2021-10-22_12h06.42.022,forced_choiceRT_color,2021.2.3,Win32,59.97001499,,,,,,,,6,Slow,short,f,0,2.3394,2,0,8,0,1,,,,,
,1.62,,,,,,,,,f,blue,5d8a77b716a9bf0001d969aa,2021-10-22_12h06.42.022,forced_choiceRT_color,2021.2.3,Win32,59.97001499,,,,,,,,6,Ontime,short,j,0,1.9794,2,1,9,1,1,,,,,
,0.1,,,,,,,,,f,blue,5d8a77b716a9bf0001d969aa,2021-10-22_12h06.42.022,forced_choiceRT_color,2021.2.3,Win32,59.97001499,,,,,,,,6,Slow,short,f,1,2.1309,2,2,10,1,1,,,,,
,0.12,,,,,,,,,k,purple,5d8a77b716a9bf0001d969aa,2021-10-22_12h06.42.022,forced_choiceRT_color,2021.2.3,Win32,59.97001499,,,,,,,,6,Slow,short,k,1,2.1169,2,3,11,3,1,,,,,
,0.47,,,,,,,,,k,purple,5d8a77b716a9bf0001d969aa,2021-10-22_12h06.42.022,forced_choiceRT_color,2021.2.3,Win32,59.97001499,,,,,,,,6,Ontime,short,k,1,1.9356,3,0,12,3,1,,,,,
,1.09,,,,,,,,,j,red,5d8a77b716a9bf0001d969aa,2021-10-22_12h06.42.022,forced_choiceRT_color,2021.2.3,Win32,59.97001499,,,,,,,,6,Slow,short,f,0,2.1577,3,1,13,2,1,,,,,
,1.76,,,,,,,,,f,blue,5d8a77b716a9bf0001d969aa,2021-10-22_12h06.42.022,forced_choiceRT_color,2021.2.3,Win32,59.97001499,,,,,,,,6,Slow,short,f,1,2.2888,3,2,14,1,1,,,,,
,1.61,,,,,,,,,k,purple,5d8a77b716a9bf0001d969aa,2021-10-22_12h06.42.022,forced_choiceRT_color,2021.2.3,Win32,59.97001499,,,,,,,,6,Slow,short,k,1,2.1879,3,3,15,3,1,,,,,
,1.64,,,,,,,,,j,red,5d8a77b716a9bf0001d969aa,2021-10-22_12h06.42.022,forced_choiceRT_color,2021.2.3,Win32,59.97001499,,,,,,,,6,Slow,short,j,1,2.284,4,0,16,2,1,,,,,
,1.74,,,,,,,,,d,orange,5d8a77b716a9bf0001d969aa,2021-10-22_12h06.42.022,forced_choiceRT_color,2021.2.3,Win32,59.97001499,,,,,,,,6,Slow,short,f,0,2.3134,4,1,17,0,1,,,,,
,1.43,,,,,,,,,k,purple,5d8a77b716a9bf0001d969aa,2021-10-22_12h06.42.022,forced_choiceRT_color,2021.2.3,Win32,59.97001499,,,,,,,,6,Slow,short,j,0,2.1367,4,2,18,3,1,,,,,
,0.73,,,,,,,,,f,blue,5d8a77b716a9bf0001d969aa,2021-10-22_12h06.42.022,forced_choiceRT_color,2021.2.3,Win32,59.97001499,,,,,,,,6,Slow,short,f,1,2.1938,4,3,19,1,1,,,,,
,0.51,,,,,,,,,j,red,5d8a77b716a9bf0001d969aa,2021-10-22_12h06.42.022,forced_choiceRT_color,2021.2.3,Win32,59.97001499,,,,,,,,6,Fast,short,k,0,1.8816,5,0,20,2,1,,,,,
,1.88,,,,,,,,,d,orange,5d8a77b716a9bf0001d969aa,2021-10-22_12h06.42.022,forced_choiceRT_color,2021.2.3,Win32,59.97001499,,,,,,,,6,Slow,short,d,1,2.485,5,1,21,0,1,,,,,
,1.59,,,,,,,,,j,red,5d8a77b716a9bf0001d969aa,2021-10-22_12h06.42.022,forced_choiceRT_color,2021.2.3,Win32,59.97001499,,,,,,,,6,Slow,short,j,1,3.4226,5,2,22,2,1,,,,,
,1.83,,,,,,,,,d,orange,5d8a77b716a9bf0001d969aa,2021-10-22_12h06.42.022,forced_choiceRT_color,2021.2.3,Win32,59.97001499,,,,,,,,6,Slow,short,d,1,2.5033,5,3,23,0,1,,,,,
,0.78,,,,,,,,,d,orange,5d8a77b716a9bf0001d969aa,2021-10-22_12h06.42.022,forced_choiceRT_color,2021.2.3,Win32,59.97001499,,,,,,,,6,Fast,short,d,1,1.8511,6,0,24,0,1,,,,,
,1.7,,,,,,,,,f,blue,5d8a77b716a9bf0001d969aa,2021-10-22_12h06.42.022,forced_choiceRT_color,2021.2.3,Win32,59.97001499,,,,,,,,6,Slow,short,f,1,2.2551,6,1,25,1,1,,,,,
,0.78,,,,,,,,,f,blue,5d8a77b716a9bf0001d969aa,2021-10-22_12h06.42.022,forced_choiceRT_color,2021.2.3,Win32,59.97001499,,,,,,,,6,Fast,short,f,1,1.8796,6,2,26,1,1,,,,,
,0.53,,,,,,,,,k,purple,5d8a77b716a9bf0001d969aa,2021-10-22_12h06.42.022,forced_choiceRT_color,2021.2.3,Win32,59.97001499,,,,,,,,6,Ontime,short,k,1,1.9904,6,3,27,3,1,,,,,
,1.96,,,,,,,,,d,orange,5d8a77b716a9bf0001d969aa,2021-10-22_12h06.42.022,forced_choiceRT_color,2021.2.3,Win32,59.97001499,,,,,,,,6,Slow,short,d,1,2.3219,7,0,28,0,1,,,,,
,1.06,,,,,,,,,k,purple,5d8a77b716a9bf0001d969aa,2021-10-22_12h06.42.022,forced_choiceRT_color,2021.2.3,Win32,59.97001499,,,,,,,,6,Ontime,short,k,1,1.9942,7,1,29,3,1,,,,,
,0.39,,,,,,,,,f,blue,5d8a77b716a9bf0001d969aa,2021-10-22_12h06.42.022,forced_choiceRT_color,2021.2.3,Win32,59.97001499,,,,,,,,6,Ontime,short,f,1,2.0792,7,2,30,1,1,,,,,
,0.34,,,,,,,,,d,orange,5d8a77b716a9bf0001d969aa,2021-10-22_12h06.42.022,forced_choiceRT_color,2021.2.3,Win32,59.97001499,,,,,,,,6,Fast,short,d,1,0.0051,7,3,31,0,1,,,,,
,1.97,,,,,,,,,f,blue,5d8a77b716a9bf0001d969aa,2021-10-22_12h06.42.022,forced_choiceRT_color,2021.2.3,Win32,59.97001499,,,,,,,,6,Slow,short,d,0,2.4672,8,0,32,1,1,,,,,
,0.05,,,,,,,,,j,red,5d8a77b716a9bf0001d969aa,2021-10-22_12h06.42.022,forced_choiceRT_color,2021.2.3,Win32,59.97001499,,,,,,,,6,Ontime,short,j,1,2.0507,8,1,33,2,1,,,,,
,0.51,,,,,,,,,d,orange,5d8a77b716a9bf0001d969aa,2021-10-22_12h06.42.022,forced_choiceRT_color,2021.2.3,Win32,59.97001499,,,,,,,,6,Ontime,short,d,1,1.9971,8,2,34,0,1,,,,,
,0.5,,,,,,,,,k,purple,5d8a77b716a9bf0001d969aa,2021-10-22_12h06.42.022,forced_choiceRT_color,2021.2.3,Win32,59.97001499,,,,,,,,6,Ontime,short,k,1,1.9134,8,3,35,3,1,,,,,
,0.22,,,,,,,,,j,red,5d8a77b716a9bf0001d969aa,2021-10-22_12h06.42.022,forced_choiceRT_color,2021.2.3,Win32,59.97001499,,,,,,,,6,Fast,short,j,1,1.1189,9,0,36,2,1,,,,,
,1.78,,,,,,,,,j,red,5d8a77b716a9bf0001d969aa,2021-10-22_12h06.42.022,forced_choiceRT_color,2021.2.3,Win32,59.97001499,,,,,,,,6,Slow,short,j,1,2.3479,9,1,37,2,1,,,,,
,0.53,,,,,,,,,k,purple,5d8a77b716a9bf0001d969aa,2021-10-22_12h06.42.022,forced_choiceRT_color,2021.2.3,Win32,59.97001499,,,,,,,,6,Ontime,short,k,1,1.9845,9,2,38,3,1,,,,,
,0.51,,,,,,,,,k,purple,5d8a77b716a9bf0001d969aa,2021-10-22_12h06.42.022,forced_choiceRT_color,2021.2.3,Win32,59.97001499,,,,,,,,6,Ontime,short,k,1,1.9467,9,3,39,3,1,,,,,
,,,,,,,,,,,,5d8a77b716a9bf0001d969aa,2021-10-22_12h06.42.022,forced_choiceRT_color,2021.2.3,Win32,59.97001499,,,,,,,,,,,,,,,,,,,5,0,5,0,1
,1.61,,,,,,,,,f,blue,5d8a77b716a9bf0001d969aa,2021-10-22_12h06.42.022,forced_choiceRT_color,2021.2.3,Win32,59.97001499,,,,,,,,7,Slow,short,d,0,2.173,0,0,0,1,1,,,,,
,1.53,,,,,,,,,j,red,5d8a77b716a9bf0001d969aa,2021-10-22_12h06.42.022,forced_choiceRT_color,2021.2.3,Win32,59.97001499,,,,,,,,7,Slow,short,j,1,2.1202,0,1,1,2,1,,,,,
,1.48,,,,,,,,,k,purple,5d8a77b716a9bf0001d969aa,2021-10-22_12h06.42.022,forced_choiceRT_color,2021.2.3,Win32,59.97001499,,,,,,,,7,Slow,short,k,1,2.3055,0,2,2,3,1,,,,,
,1.05,,,,,,,,,j,red,5d8a77b716a9bf0001d969aa,2021-10-22_12h06.42.022,forced_choiceRT_color,2021.2.3,Win32,59.97001499,,,,,,,,7,Slow,short,j,1,2.4226,0,3,3,2,1,,,,,
,1.72,,,,,,,,,j,red,5d8a77b716a9bf0001d969aa,2021-10-22_12h06.42.022,forced_choiceRT_color,2021.2.3,Win32,59.97001499,,,,,,,,7,Ontime,short,k,0,1.9889,1,0,4,2,1,,,,,
,1.5,,,,,,,,,d,orange,5d8a77b716a9bf0001d969aa,2021-10-22_12h06.42.022,forced_choiceRT_color,2021.2.3,Win32,59.97001499,,,,,,,,7,Slow,short,d,1,2.2674,1,1,5,0,1,,,,,
,1.38,,,,,,,,,j,red,5d8a77b716a9bf0001d969aa,2021-10-22_12h06.42.022,forced_choiceRT_color,2021.2.3,Win32,59.97001499,,,,,,,,7,Ontime,short,j,1,2.0157,1,2,6,2,1,,,,,
,1.87,,,,,,,,,f,blue,5d8a77b716a9bf0001d969aa,2021-10-22_12h06.42.022,forced_choiceRT_color,2021.2.3,Win32,59.97001499,,,,,,,,7,Fast,short,k,0,0.0013,1,3,7,1,1,,,,,
,1.92,,,,,,,,,k,purple,5d8a77b716a9bf0001d969aa,2021-10-22_12h06.42.022,forced_choiceRT_color,2021.2.3,Win32,59.97001499,,,,,,,,7,Slow,short,k,1,2.555,2,0,8,3,1,,,,,
,1.14,,,,,,,,,f,blue,5d8a77b716a9bf0001d969aa,2021-10-22_12h06.42.022,forced_choiceRT_color,2021.2.3,Win32,59.97001499,,,,,,,,7,Ontime,short,f,1,1.9966,2,1,9,1,1,,,,,
,1.59,,,,,,,,,f,blue,5d8a77b716a9bf0001d969aa,2021-10-22_12h06.42.022,forced_choiceRT_color,2021.2.3,Win32,59.97001499,,,,,,,,7,Ontime,short,f,1,2.097,2,2,10,1,1,,,,,
,1.12,,,,,,,,,k,purple,5d8a77b716a9bf0001d969aa,2021-10-22_12h06.42.022,forced_choiceRT_color,2021.2.3,Win32,59.97001499,,,,,,,,7,Ontime,short,k,1,2.0903,2,3,11,3,1,,,,,
,1.58,,,,,,,,,j,red,5d8a77b716a9bf0001d969aa,2021-10-22_12h06.42.022,forced_choiceRT_color,2021.2.3,Win32,59.97001499,,,,,,,,7,Ontime,short,f,0,2.0164,3,0,12,2,1,,,,,
,1.55,,,,,,,,,j,red,5d8a77b716a9bf0001d969aa,2021-10-22_12h06.42.022,forced_choiceRT_color,2021.2.3,Win32,59.97001499,,,,,,,,7,Ontime,short,f,0,1.9498,3,1,13,2,1,,,,,
,0.67,,,,,,,,,f,blue,5d8a77b716a9bf0001d969aa,2021-10-22_12h06.42.022,forced_choiceRT_color,2021.2.3,Win32,59.97001499,,,,,,,,7,Ontime,short,f,1,2.099,3,2,14,1,1,,,,,
,0.66,,,,,,,,,j,red,5d8a77b716a9bf0001d969aa,2021-10-22_12h06.42.022,forced_choiceRT_color,2021.2.3,Win32,59.97001499,,,,,,,,7,Slow,short,j,1,2.1052,3,3,15,2,1,,,,,
,1.44,,,,,,,,,k,purple,5d8a77b716a9bf0001d969aa,2021-10-22_12h06.42.022,forced_choiceRT_color,2021.2.3,Win32,59.97001499,,,,,,,,7,Slow,short,k,1,2.1018,4,0,16,3,1,,,,,
,1.48,,,,,,,,,f,blue,5d8a77b716a9bf0001d969aa,2021-10-22_12h06.42.022,forced_choiceRT_color,2021.2.3,Win32,59.97001499,,,,,,,,7,Slow,short,f,1,2.2001,4,1,17,1,1,,,,,
,1.92,,,,,,,,,j,red,5d8a77b716a9bf0001d969aa,2021-10-22_12h06.42.022,forced_choiceRT_color,2021.2.3,Win32,59.97001499,,,,,,,,7,Slow,short,d,0,2.2356,4,2,18,2,1,,,,,
,1.35,,,,,,,,,d,orange,5d8a77b716a9bf0001d969aa,2021-10-22_12h06.42.022,forced_choiceRT_color,2021.2.3,Win32,59.97001499,,,,,,,,7,Ontime,short,d,1,2.0669,4,3,19,0,1,,,,,
,1.87,,,,,,,,,d,orange,5d8a77b716a9bf0001d969aa,2021-10-22_12h06.42.022,forced_choiceRT_color,2021.2.3,Win32,59.97001499,,,,,,,,7,Slow,short,d,1,2.2215,5,0,20,0,1,,,,,
,1.62,,,,,,,,,k,purple,5d8a77b716a9bf0001d969aa,2021-10-22_12h06.42.022,forced_choiceRT_color,2021.2.3,Win32,59.97001499,,,,,,,,7,Slow,short,j,0,2.134,5,1,21,3,1,,,,,
,0.82,,,,,,,,,d,orange,5d8a77b716a9bf0001d969aa,2021-10-22_12h06.42.022,forced_choiceRT_color,2021.2.3,Win32,59.97001499,,,,,,,,7,Ontime,short,d,1,1.9422,5,2,22,0,1,,,,,
,1.83,,,,,,,,,f,blue,5d8a77b716a9bf0001d969aa,2021-10-22_12h06.42.022,forced_choiceRT_color,2021.2.3,Win32,59.97001499,,,,,,,,7,Slow,short,d,0,2.3048,5,3,23,1,1,,,,,
,1.45,,,,,,,,,d,orange,5d8a77b716a9bf0001d969aa,2021-10-22_12h06.42.022,forced_choiceRT_color,2021.2.3,Win32,59.97001499,,,,,,,,7,Slow,short,d,1,2.1562,6,0,24,0,1,,,,,
,1.8,,,,,,,,,k,purple,5d8a77b716a9bf0001d969aa,2021-10-22_12h06.42.022,forced_choiceRT_color,2021.2.3,Win32,59.97001499,,,,,,,,7,Slow,short,k,1,2.1769,6,1,25,3,1,,,,,
,0.76,,,,,,,,,k,purple,5d8a77b716a9bf0001d969aa,2021-10-22_12h06.42.022,forced_choiceRT_color,2021.2.3,Win32,59.97001499,,,,,,,,7,Fast,short,k,1,1.7832,6,2,26,3,1,,,,,
,0.13,,,,,,,,,d,orange,5d8a77b716a9bf0001d969aa,2021-10-22_12h06.42.022,forced_choiceRT_color,2021.2.3,Win32,59.97001499,,,,,,,,7,Ontime,short,d,1,1.9836,6,3,27,0,1,,,,,
,0.92,,,,,,,,,j,red,5d8a77b716a9bf0001d969aa,2021-10-22_12h06.42.022,forced_choiceRT_color,2021.2.3,Win32,59.97001499,,,,,,,,7,Ontime,short,j,1,1.9902,7,0,28,2,1,,,,,
,0.75,,,,,,,,,d,orange,5d8a77b716a9bf0001d969aa,2021-10-22_12h06.42.022,forced_choiceRT_color,2021.2.3,Win32,59.97001499,,,,,,,,7,Ontime,short,d,1,1.9341,7,1,29,0,1,,,,,
,1.76,,,,,,,,,k,purple,5d8a77b716a9bf0001d969aa,2021-10-22_12h06.42.022,forced_choiceRT_color,2021.2.3,Win32,59.97001499,,,,,,,,7,Slow,short,k,1,2.3091,7,2,30,3,1,,,,,
,0.02,,,,,,,,,d,orange,5d8a77b716a9bf0001d969aa,2021-10-22_12h06.42.022,forced_choiceRT_color,2021.2.3,Win32,59.97001499,,,,,,,,7,Slow,short,d,1,2.1524,7,3,31,0,1,,,,,
,1.89,,,,,,,,,f,blue,5d8a77b716a9bf0001d969aa,2021-10-22_12h06.42.022,forced_choiceRT_color,2021.2.3,Win32,59.97001499,,,,,,,,7,Slow,short,f,1,2.2671,8,0,32,1,1,,,,,
,0.94,,,,,,,,,k,purple,5d8a77b716a9bf0001d969aa,2021-10-22_12h06.42.022,forced_choiceRT_color,2021.2.3,Win32,59.97001499,,,,,,,,7,Ontime,short,k,1,1.9467,8,1,33,3,1,,,,,
,0.94,,,,,,,,,d,orange,5d8a77b716a9bf0001d969aa,2021-10-22_12h06.42.022,forced_choiceRT_color,2021.2.3,Win32,59.97001499,,,,,,,,7,Slow,short,d,1,2.1217,8,2,34,0,1,,,,,
,0.52,,,,,,,,,j,red,5d8a77b716a9bf0001d969aa,2021-10-22_12h06.42.022,forced_choiceRT_color,2021.2.3,Win32,59.97001499,,,,,,,,7,Ontime,short,j,1,1.9658,8,3,35,2,1,,,,,
,0.84,,,,,,,,,d,orange,5d8a77b716a9bf0001d969aa,2021-10-22_12h06.42.022,forced_choiceRT_color,2021.2.3,Win32,59.97001499,,,,,,,,7,Ontime,short,d,1,1.9314,9,0,36,0,1,,,,,
,0.41,,,,,,,,,f,blue,5d8a77b716a9bf0001d969aa,2021-10-22_12h06.42.022,forced_choiceRT_color,2021.2.3,Win32,59.97001499,,,,,,,,7,Fast,short,f,1,1.8255,9,1,37,1,1,,,,,
,0.09,,,,,,,,,k,purple,5d8a77b716a9bf0001d969aa,2021-10-22_12h06.42.022,forced_choiceRT_color,2021.2.3,Win32,59.97001499,,,,,,,,7,Ontime,short,k,1,1.9713,9,2,38,3,1,,,,,
,1.84,,,,,,,,,f,blue,5d8a77b716a9bf0001d969aa,2021-10-22_12h06.42.022,forced_choiceRT_color,2021.2.3,Win32,59.97001499,,,,,,,,7,Slow,short,d,0,2.3027,9,3,39,1,1,,,,,
,,,,,,,,,,,,5d8a77b716a9bf0001d969aa,2021-10-22_12h06.42.022,forced_choiceRT_color,2021.2.3,Win32,59.97001499,,,,,,,,,,,,,,,,,,,6,0,6,0,1
,0.39,,,,,,,,,d,orange,5d8a77b716a9bf0001d969aa,2021-10-22_12h06.42.022,forced_choiceRT_color,2021.2.3,Win32,59.97001499,,,,,,,,8,Ontime,short,d,1,2.0314,0,0,0,0,1,,,,,
,0.8,,,,,,,,,k,purple,5d8a77b716a9bf0001d969aa,2021-10-22_12h06.42.022,forced_choiceRT_color,2021.2.3,Win32,59.97001499,,,,,,,,8,Ontime,short,k,1,2.0635,0,1,1,3,1,,,,,
,1.81,,,,,,,,,k,purple,5d8a77b716a9bf0001d969aa,2021-10-22_12h06.42.022,forced_choiceRT_color,2021.2.3,Win32,59.97001499,,,,,,,,8,Slow,short,k,1,2.3329,0,2,2,3,1,,,,,
,1.46,,,,,,,,,j,red,5d8a77b716a9bf0001d969aa,2021-10-22_12h06.42.022,forced_choiceRT_color,2021.2.3,Win32,59.97001499,,,,,,,,8,Ontime,short,j,1,2.0972,0,3,3,2,1,,,,,
,0.65,,,,,,,,,k,purple,5d8a77b716a9bf0001d969aa,2021-10-22_12h06.42.022,forced_choiceRT_color,2021.2.3,Win32,59.97001499,,,,,,,,8,Ontime,short,k,1,2.0677,1,0,4,3,1,,,,,
,0.67,,,,,,,,,j,red,5d8a77b716a9bf0001d969aa,2021-10-22_12h06.42.022,forced_choiceRT_color,2021.2.3,Win32,59.97001499,,,,,,,,8,Fast,short,j,1,0.0173,1,1,5,2,1,,,,,
,1.02,,,,,,,,,f,blue,5d8a77b716a9bf0001d969aa,2021-10-22_12h06.42.022,forced_choiceRT_color,2021.2.3,Win32,59.97001499,,,,,,,,8,Fast,short,f,1,1.8223,1,2,6,1,1,,,,,
,0.33,,,,,,,,,k,purple,5d8a77b716a9bf0001d969aa,2021-10-22_12h06.42.022,forced_choiceRT_color,2021.2.3,Win32,59.97001499,,,,,,,,8,Fast,short,j,0,1.8049,1,3,7,3,1,,,,,
,1.84,,,,,,,,,j,red,5d8a77b716a9bf0001d969aa,2021-10-22_12h06.42.022,forced_choiceRT_color,2021.2.3,Win32,59.97001499,,,,,,,,8,Slow,short,j,1,2.2558,2,0,8,2,1,,,,,
,1.03,,,,,,,,,k,purple,5d8a77b716a9bf0001d969aa,2021-10-22_12h06.42.022,forced_choiceRT_color,2021.2.3,Win32,59.97001499,,,,,,,,8,Slow,short,k,1,2.1154,2,1,9,3,1,,,,,
,0.64,,,,,,,,,d,orange,5d8a77b716a9bf0001d969aa,2021-10-22_12h06.42.022,forced_choiceRT_color,2021.2.3,Win32,59.97001499,,,,,,,,8,Ontime,short,d,1,2.042,2,2,10,0,1,,,,,
,0.59,,,,,,,,,j,red,5d8a77b716a9bf0001d969aa,2021-10-22_12h06.42.022,forced_choiceRT_color,2021.2.3,Win32,59.97001499,,,,,,,,8,Fast,short,j,1,1.8261,2,3,11,2,1,,,,,
,1.09,,,,,,,,,j,red,5d8a77b716a9bf0001d969aa,2021-10-22_12h06.42.022,forced_choiceRT_color,2021.2.3,Win32,59.97001499,,,,,,,,8,Fast,short,j,1,1.6705,3,0,12,2,1,,,,,
,0.66,,,,,,,,,k,purple,5d8a77b716a9bf0001d969aa,2021-10-22_12h06.42.022,forced_choiceRT_color,2021.2.3,Win32,59.97001499,,,,,,,,8,Ontime,short,k,1,2.021,3,1,13,3,1,,,,,
,1.55,,,,,,,,,d,orange,5d8a77b716a9bf0001d969aa,2021-10-22_12h06.42.022,forced_choiceRT_color,2021.2.3,Win32,59.97001499,,,,,,,,8,Slow,short,d,1,2.1558,3,2,14,0,1,,,,,
,1.9,,,,,,,,,d,orange,5d8a77b716a9bf0001d969aa,2021-10-22_12h06.42.022,forced_choiceRT_color,2021.2.3,Win32,59.97001499,,,,,,,,8,Slow,short,j,0,2.1999,3,3,15,0,1,,,,,
,1.9,,,,,,,,,f,blue,5d8a77b716a9bf0001d969aa,2021-10-22_12h06.42.022,forced_choiceRT_color,2021.2.3,Win32,59.97001499,,,,,,,,8,Slow,short,j,0,2.2838,4,0,16,1,1,,,,,
,1.87,,,,,,,,,f,blue,5d8a77b716a9bf0001d969aa,2021-10-22_12h06.42.022,forced_choiceRT_color,2021.2.3,Win32,59.97001499,,,,,,,,8,Slow,short,f,1,2.3169,4,1,17,1,1,,,,,
,0.82,,,,,,,,,j,red,5d8a77b716a9bf0001d969aa,2021-10-22_12h06.42.022,forced_choiceRT_color,2021.2.3,Win32,59.97001499,,,,,,,,8,Fast,short,j,1,1.8997,4,2,18,2,1,,,,,
,1.98,,,,,,,,,k,purple,5d8a77b716a9bf0001d969aa,2021-10-22_12h06.42.022,forced_choiceRT_color,2021.2.3,Win32,59.97001499,,,,,,,,8,Slow,short,k,1,2.3644,4,3,19,3,1,,,,,
,0.59,,,,,,,,,f,blue,5d8a77b716a9bf0001d969aa,2021-10-22_12h06.42.022,forced_choiceRT_color,2021.2.3,Win32,59.97001499,,,,,,,,8,Slow,short,d,0,2.1243,5,0,20,1,1,,,,,
,0.95,,,,,,,,,k,purple,5d8a77b716a9bf0001d969aa,2021-10-22_12h06.42.022,forced_choiceRT_color,2021.2.3,Win32,59.97001499,,,,,,,,8,Slow,short,j,0,2.1509,5,1,21,3,1,,,,,
,1.85,,,,,,,,,k,purple,5d8a77b716a9bf0001d969aa,2021-10-22_12h06.42.022,forced_choiceRT_color,2021.2.3,Win32,59.97001499,,,,,,,,8,Slow,short,k,1,2.9801,5,2,22,3,1,,,,,
,0.85,,,,,,,,,d,orange,5d8a77b716a9bf0001d969aa,2021-10-22_12h06.42.022,forced_choiceRT_color,2021.2.3,Win32,59.97001499,,,,,,,,8,Ontime,short,f,0,2.0878,5,3,23,0,1,,,,,
,0.9,,,,,,,,,d,orange,5d8a77b716a9bf0001d969aa,2021-10-22_12h06.42.022,forced_choiceRT_color,2021.2.3,Win32,59.97001499,,,,,,,,8,Slow,short,d,1,2.2802,6,0,24,0,1,,,,,
,0.27,,,,,,,,,j,red,5d8a77b716a9bf0001d969aa,2021-10-22_12h06.42.022,forced_choiceRT_color,2021.2.3,Win32,59.97001499,,,,,,,,8,Ontime,short,j,1,2.0473,6,1,25,2,1,,,,,
,0.74,,,,,,,,,d,orange,5d8a77b716a9bf0001d969aa,2021-10-22_12h06.42.022,forced_choiceRT_color,2021.2.3,Win32,59.97001499,,,,,,,,8,Fast,short,f,0,1.8743,6,2,26,0,1,,,,,
,1.39,,,,,,,,,f,blue,5d8a77b716a9bf0001d969aa,2021-10-22_12h06.42.022,forced_choiceRT_color,2021.2.3,Win32,59.97001499,,,,,,,,8,Fast,short,f,1,1.7494,6,3,27,1,1,,,,,
,0.12,,,,,,,,,k,purple,5d8a77b716a9bf0001d969aa,2021-10-22_12h06.42.022,forced_choiceRT_color,2021.2.3,Win32,59.97001499,,,,,,,,8,Ontime,short,k,1,2.0085,7,0,28,3,1,,,,,
,1.42,,,,,,,,,f,blue,5d8a77b716a9bf0001d969aa,2021-10-22_12h06.42.022,forced_choiceRT_color,2021.2.3,Win32,59.97001499,,,,,,,,8,Fast,short,k,0,1.815,7,1,29,1,1,,,,,
,1.18,,,,,,,,,f,blue,5d8a77b716a9bf0001d969aa,2021-10-22_12h06.42.022,forced_choiceRT_color,2021.2.3,Win32,59.97001499,,,,,,,,8,Ontime,short,d,0,2.057,7,2,30,1,1,,,,,
,1.68,,,,,,,,,j,red,5d8a77b716a9bf0001d969aa,2021-10-22_12h06.42.022,forced_choiceRT_color,2021.2.3,Win32,59.97001499,,,,,,,,8,Ontime,short,f,0,1.9973,7,3,31,2,1,,,,,
,1.41,,,,,,,,,f,blue,5d8a77b716a9bf0001d969aa,2021-10-22_12h06.42.022,forced_choiceRT_color,2021.2.3,Win32,59.97001499,,,,,,,,8,Slow,short,f,1,2.1165,8,0,32,1,1,,,,,
,1.36,,,,,,,,,f,blue,5d8a77b716a9bf0001d969aa,2021-10-22_12h06.42.022,forced_choiceRT_color,2021.2.3,Win32,59.97001499,,,,,,,,8,Fast,short,f,1,1.8113,8,1,33,1,1,,,,,
,1.01,,,,,,,,,j,red,5d8a77b716a9bf0001d969aa,2021-10-22_12h06.42.022,forced_choiceRT_color,2021.2.3,Win32,59.97001499,,,,,,,,8,Ontime,short,j,1,1.9293,8,2,34,2,1,,,,,
,1.85,,,,,,,,,f,blue,5d8a77b716a9bf0001d969aa,2021-10-22_12h06.42.022,forced_choiceRT_color,2021.2.3,Win32,59.97001499,,,,,,,,8,Slow,short,k,0,2.1202,8,3,35,1,1,,,,,
,0.96,,,,,,,,,d,orange,5d8a77b716a9bf0001d969aa,2021-10-22_12h06.42.022,forced_choiceRT_color,2021.2.3,Win32,59.97001499,,,,,,,,8,Ontime,short,d,1,2.0142,9,0,36,0,1,,,,,
,0.38,,,,,,,,,j,red,5d8a77b716a9bf0001d969aa,2021-10-22_12h06.42.022,forced_choiceRT_color,2021.2.3,Win32,59.97001499,,,,,,,,8,Ontime,short,k,0,1.9923,9,1,37,2,1,,,,,
,1.95,,,,,,,,,d,orange,5d8a77b716a9bf0001d969aa,2021-10-22_12h06.42.022,forced_choiceRT_color,2021.2.3,Win32,59.97001499,,,,,,,,8,Slow,short,f,0,2.8486,9,2,38,0,1,,,,,
,0.76,,,,,,,,,d,orange,5d8a77b716a9bf0001d969aa,2021-10-22_12h06.42.022,forced_choiceRT_color,2021.2.3,Win32,59.97001499,,,,,,,,8,Ontime,short,d,1,1.9791,9,3,39,0,1,,,,,
,,,,,,,,,,,,5d8a77b716a9bf0001d969aa,2021-10-22_12h06.42.022,forced_choiceRT_color,2021.2.3,Win32,59.97001499,,,,,,,,,,,,,,,,,,,7,0,7,0,1
,1.88,,,,,,,,,j,red,5d8a77b716a9bf0001d969aa,2021-10-22_12h06.42.022,forced_choiceRT_color,2021.2.3,Win32,59.97001499,,,,,,,,9,Slow,short,d,0,2.2249,0,0,0,2,1,,,,,
,0.41,,,,,,,,,d,orange,5d8a77b716a9bf0001d969aa,2021-10-22_12h06.42.022,forced_choiceRT_color,2021.2.3,Win32,59.97001499,,,,,,,,9,Ontime,short,d,1,2.0645,0,1,1,0,1,,,,,
,1.16,,,,,,,,,j,red,5d8a77b716a9bf0001d969aa,2021-10-22_12h06.42.022,forced_choiceRT_color,2021.2.3,Win32,59.97001499,,,,,,,,9,Fast,short,j,1,1.8099,0,2,2,2,1,,,,,
,0.99,,,,,,,,,d,orange,5d8a77b716a9bf0001d969aa,2021-10-22_12h06.42.022,forced_choiceRT_color,2021.2.3,Win32,59.97001499,,,,,,,,9,Fast,short,d,1,1.866,0,3,3,0,1,,,,,
,0.7,,,,,,,,,j,red,5d8a77b716a9bf0001d969aa,2021-10-22_12h06.42.022,forced_choiceRT_color,2021.2.3,Win32,59.97001499,,,,,,,,9,Ontime,short,j,1,1.949,1,0,4,2,1,,,,,
,0.97,,,,,,,,,d,orange,5d8a77b716a9bf0001d969aa,2021-10-22_12h06.42.022,forced_choiceRT_color,2021.2.3,Win32,59.97001499,,,,,,,,9,Fast,short,d,1,1.7899,1,1,5,0,1,,,,,
,1.93,,,,,,,,,f,blue,5d8a77b716a9bf0001d969aa,2021-10-22_12h06.42.022,forced_choiceRT_color,2021.2.3,Win32,59.97001499,,,,,,,,9,Slow,short,f,1,2.3304,1,2,6,1,1,,,,,
,1.13,,,,,,,,,f,blue,5d8a77b716a9bf0001d969aa,2021-10-22_12h06.42.022,forced_choiceRT_color,2021.2.3,Win32,59.97001499,,,,,,,,9,Ontime,short,f,1,2.0343,1,3,7,1,1,,,,,
,0.27,,,,,,,,,k,purple,5d8a77b716a9bf0001d969aa,2021-10-22_12h06.42.022,forced_choiceRT_color,2021.2.3,Win32,59.97001499,,,,,,,,9,Slow,short,k,1,2.166,2,0,8,3,1,,,,,
,0,,,,,,,,,d,orange,5d8a77b716a9bf0001d969aa,2021-10-22_12h06.42.022,forced_choiceRT_color,2021.2.3,Win32,59.97001499,,,,,,,,9,Ontime,short,f,0,2.0792,2,1,9,0,1,,,,,
,1.45,,,,,,,,,f,blue,5d8a77b716a9bf0001d969aa,2021-10-22_12h06.42.022,forced_choiceRT_color,2021.2.3,Win32,59.97001499,,,,,,,,9,Fast,short,d,0,0.0625,2,2,10,1,1,,,,,
,0.87,,,,,,,,,f,blue,5d8a77b716a9bf0001d969aa,2021-10-22_12h06.42.022,forced_choiceRT_color,2021.2.3,Win32,59.97001499,,,,,,,,9,Ontime,short,f,1,1.975,2,3,11,1,1,,,,,
,0.98,,,,,,,,,k,purple,5d8a77b716a9bf0001d969aa,2021-10-22_12h06.42.022,forced_choiceRT_color,2021.2.3,Win32,59.97001499,,,,,,,,9,Fast,short,k,1,1.8461,3,0,12,3,1,,,,,
,0.06,,,,,,,,,f,blue,5d8a77b716a9bf0001d969aa,2021-10-22_12h06.42.022,forced_choiceRT_color,2021.2.3,Win32,59.97001499,,,,,,,,9,Fast,short,f,1,1.8799,3,1,13,1,1,,,,,
,1.21,,,,,,,,,k,purple,5d8a77b716a9bf0001d969aa,2021-10-22_12h06.42.022,forced_choiceRT_color,2021.2.3,Win32,59.97001499,,,,,,,,9,Ontime,short,k,1,1.9466,3,2,14,3,1,,,,,
,0.28,,,,,,,,,k,purple,5d8a77b716a9bf0001d969aa,2021-10-22_12h06.42.022,forced_choiceRT_color,2021.2.3,Win32,59.97001499,,,,,,,,9,Fast,short,k,1,1.8353,3,3,15,3,1,,,,,
,0.71,,,,,,,,,d,orange,5d8a77b716a9bf0001d969aa,2021-10-22_12h06.42.022,forced_choiceRT_color,2021.2.3,Win32,59.97001499,,,,,,,,9,Ontime,short,j,0,2.0361,4,0,16,0,1,,,,,
,0.8,,,,,,,,,k,purple,5d8a77b716a9bf0001d969aa,2021-10-22_12h06.42.022,forced_choiceRT_color,2021.2.3,Win32,59.97001499,,,,,,,,9,Ontime,short,k,1,2.0941,4,1,17,3,1,,,,,
,0.52,,,,,,,,,k,purple,5d8a77b716a9bf0001d969aa,2021-10-22_12h06.42.022,forced_choiceRT_color,2021.2.3,Win32,59.97001499,,,,,,,,9,Ontime,short,k,1,2.0055,4,2,18,3,1,,,,,
,0.32,,,,,,,,,k,purple,5d8a77b716a9bf0001d969aa,2021-10-22_12h06.42.022,forced_choiceRT_color,2021.2.3,Win32,59.97001499,,,,,,,,9,Fast,short,k,1,1.8877,4,3,19,3,1,,,,,
,0.8,,,,,,,,,k,purple,5d8a77b716a9bf0001d969aa,2021-10-22_12h06.42.022,forced_choiceRT_color,2021.2.3,Win32,59.97001499,,,,,,,,9,Ontime,short,k,1,1.9961,5,0,20,3,1,,,,,
,1.9,,,,,,,,,f,blue,5d8a77b716a9bf0001d969aa,2021-10-22_12h06.42.022,forced_choiceRT_color,2021.2.3,Win32,59.97001499,,,,,,,,9,Slow,short,f,1,2.6358,5,1,21,1,1,,,,,
,0.84,,,,,,,,,k,purple,5d8a77b716a9bf0001d969aa,2021-10-22_12h06.42.022,forced_choiceRT_color,2021.2.3,Win32,59.97001499,,,,,,,,9,Ontime,short,k,1,2.0571,5,2,22,3,1,,,,,
,1.84,,,,,,,,,j,red,5d8a77b716a9bf0001d969aa,2021-10-22_12h06.42.022,forced_choiceRT_color,2021.2.3,Win32,59.97001499,,,,,,,,9,Slow,short,j,1,2.5726,5,3,23,2,1,,,,,
,1.94,,,,,,,,,d,orange,5d8a77b716a9bf0001d969aa,2021-10-22_12h06.42.022,forced_choiceRT_color,2021.2.3,Win32,59.97001499,,,,,,,,9,Slow,short,k,0,2.369,6,0,24,0,1,,,,,
,1.26,,,,,,,,,d,orange,5d8a77b716a9bf0001d969aa,2021-10-22_12h06.42.022,forced_choiceRT_color,2021.2.3,Win32,59.97001499,,,,,,,,9,Ontime,short,d,1,1.9414,6,1,25,0,1,,,,,
,1.15,,,,,,,,,j,red,5d8a77b716a9bf0001d969aa,2021-10-22_12h06.42.022,forced_choiceRT_color,2021.2.3,Win32,59.97001499,,,,,,,,9,Fast,short,f,0,0.0347,6,2,26,2,1,,,,,
,1.73,,,,,,,,,d,orange,5d8a77b716a9bf0001d969aa,2021-10-22_12h06.42.022,forced_choiceRT_color,2021.2.3,Win32,59.97001499,,,,,,,,9,Slow,short,d,1,2.1575,6,3,27,0,1,,,,,
,1.33,,,,,,,,,f,blue,5d8a77b716a9bf0001d969aa,2021-10-22_12h06.42.022,forced_choiceRT_color,2021.2.3,Win32,59.97001499,,,,,,,,9,Ontime,short,f,1,1.9864,7,0,28,1,1,,,,,
,1.07,,,,,,,,,j,red,5d8a77b716a9bf0001d969aa,2021-10-22_12h06.42.022,forced_choiceRT_color,2021.2.3,Win32,59.97001499,,,,,,,,9,Fast,short,j,1,1.8387,7,1,29,2,1,,,,,
,0.07,,,,,,,,,f,blue,5d8a77b716a9bf0001d969aa,2021-10-22_12h06.42.022,forced_choiceRT_color,2021.2.3,Win32,59.97001499,,,,,,,,9,Ontime,short,f,1,1.9268,7,2,30,1,1,,,,,
,0.49,,,,,,,,,d,orange,5d8a77b716a9bf0001d969aa,2021-10-22_12h06.42.022,forced_choiceRT_color,2021.2.3,Win32,59.97001499,,,,,,,,9,Ontime,short,d,1,1.9877,7,3,31,0,1,,,,,
,0.66,,,,,,,,,j,red,5d8a77b716a9bf0001d969aa,2021-10-22_12h06.42.022,forced_choiceRT_color,2021.2.3,Win32,59.97001499,,,,,,,,9,Ontime,short,j,1,2.0662,8,0,32,2,1,,,,,
,0.5,,,,,,,,,f,blue,5d8a77b716a9bf0001d969aa,2021-10-22_12h06.42.022,forced_choiceRT_color,2021.2.3,Win32,59.97001499,,,,,,,,9,Ontime,short,f,1,2.0933,8,1,33,1,1,,,,,
,0.87,,,,,,,,,j,red,5d8a77b716a9bf0001d969aa,2021-10-22_12h06.42.022,forced_choiceRT_color,2021.2.3,Win32,59.97001499,,,,,,,,9,Ontime,short,j,1,1.9363,8,2,34,2,1,,,,,
,1.68,,,,,,,,,f,blue,5d8a77b716a9bf0001d969aa,2021-10-22_12h06.42.022,forced_choiceRT_color,2021.2.3,Win32,59.97001499,,,,,,,,9,Slow,short,f,1,2.2594,8,3,35,1,1,,,,,
,0.3,,,,,,,,,j,red,5d8a77b716a9bf0001d969aa,2021-10-22_12h06.42.022,forced_choiceRT_color,2021.2.3,Win32,59.97001499,,,,,,,,9,Fast,short,j,1,1.8177,9,0,36,2,1,,,,,
,1.73,,,,,,,,,j,red,5d8a77b716a9bf0001d969aa,2021-10-22_12h06.42.022,forced_choiceRT_color,2021.2.3,Win32,59.97001499,,,,,,,,9,Slow,short,d,0,2.1133,9,1,37,2,1,,,,,
,0.29,,,,,,,,,d,orange,5d8a77b716a9bf0001d969aa,2021-10-22_12h06.42.022,forced_choiceRT_color,2021.2.3,Win32,59.97001499,,,,,,,,9,Slow,short,d,1,2.1671,9,2,38,0,1,,,,,
,0.05,,,,,,,,,k,purple,5d8a77b716a9bf0001d969aa,2021-10-22_12h06.42.022,forced_choiceRT_color,2021.2.3,Win32,59.97001499,,,,,,,,9,Ontime,short,k,1,1.9242,9,3,39,3,1,,,,,
,,,,,,,,,,,,5d8a77b716a9bf0001d969aa,2021-10-22_12h06.42.022,forced_choiceRT_color,2021.2.3,Win32,59.97001499,,,,,,,,,,,,,,,,,,,8,0,8,0,1
,1.96,,,,,,,,,f,blue,5d8a77b716a9bf0001d969aa,2021-10-22_12h06.42.022,forced_choiceRT_color,2021.2.3,Win32,59.97001499,,,,,,,,10,Slow,short,j,0,2.3226,0,0,0,1,1,,,,,
,1.14,,,,,,,,,k,purple,5d8a77b716a9bf0001d969aa,2021-10-22_12h06.42.022,forced_choiceRT_color,2021.2.3,Win32,59.97001499,,,,,,,,10,Fast,short,k,1,1.6733,0,1,1,3,1,,,,,
,1.57,,,,,,,,,d,orange,5d8a77b716a9bf0001d969aa,2021-10-22_12h06.42.022,forced_choiceRT_color,2021.2.3,Win32,59.97001499,,,,,,,,10,Slow,short,f,0,2.1446,0,2,2,0,1,,,,,
,1.25,,,,,,,,,j,red,5d8a77b716a9bf0001d969aa,2021-10-22_12h06.42.022,forced_choiceRT_color,2021.2.3,Win32,59.97001499,,,,,,,,10,Ontime,short,j,1,1.9158,0,3,3,2,1,,,,,
,0.17,,,,,,,,,d,orange,5d8a77b716a9bf0001d969aa,2021-10-22_12h06.42.022,forced_choiceRT_color,2021.2.3,Win32,59.97001499,,,,,,,,10,Fast,short,d,1,1.8006,1,0,4,0,1,,,,,
,1.26,,,,,,,,,f,blue,5d8a77b716a9bf0001d969aa,2021-10-22_12h06.42.022,forced_choiceRT_color,2021.2.3,Win32,59.97001499,,,,,,,,10,Ontime,short,f,1,2.0502,1,1,5,1,1,,,,,
,1.23,,,,,,,,,d,orange,5d8a77b716a9bf0001d969aa,2021-10-22_12h06.42.022,forced_choiceRT_color,2021.2.3,Win32,59.97001499,,,,,,,,10,Fast,short,f,0,1.684,1,2,6,0,1,,,,,
,0.23,,,,,,,,,j,red,5d8a77b716a9bf0001d969aa,2021-10-22_12h06.42.022,forced_choiceRT_color,2021.2.3,Win32,59.97001499,,,,,,,,10,Ontime,short,j,1,2.0219,1,3,7,2,1,,,,,
,1.07,,,,,,,,,d,orange,5d8a77b716a9bf0001d969aa,2021-10-22_12h06.42.022,forced_choiceRT_color,2021.2.3,Win32,59.97001499,,,,,,,,10,Ontime,short,f,0,1.9274,2,0,8,0,1,,,,,
,0.65,,,,,,,,,d,orange,5d8a77b716a9bf0001d969aa,2021-10-22_12h06.42.022,forced_choiceRT_color,2021.2.3,Win32,59.97001499,,,,,,,,10,Fast,short,d,1,1.319,2,1,9,0,1,,,,,
,0.49,,,,,,,,,f,blue,5d8a77b716a9bf0001d969aa,2021-10-22_12h06.42.022,forced_choiceRT_color,2021.2.3,Win32,59.97001499,,,,,,,,10,Slow,short,f,1,2.1332,2,2,10,1,1,,,,,
,1.84,,,,,,,,,d,orange,5d8a77b716a9bf0001d969aa,2021-10-22_12h06.42.022,forced_choiceRT_color,2021.2.3,Win32,59.97001499,,,,,,,,10,Slow,short,f,0,2.5836,2,3,11,0,1,,,,,
,0.19,,,,,,,,,k,purple,5d8a77b716a9bf0001d969aa,2021-10-22_12h06.42.022,forced_choiceRT_color,2021.2.3,Win32,59.97001499,,,,,,,,10,Slow,short,k,1,2.3348,3,0,12,3,1,,,,,
,1.71,,,,,,,,,d,orange,5d8a77b716a9bf0001d969aa,2021-10-22_12h06.42.022,forced_choiceRT_color,2021.2.3,Win32,59.97001499,,,,,,,,10,Ontime,short,j,0,2.0506,3,1,13,0,1,,,,,
,1.46,,,,,,,,,j,red,5d8a77b716a9bf0001d969aa,2021-10-22_12h06.42.022,forced_choiceRT_color,2021.2.3,Win32,59.97001499,,,,,,,,10,Fast,short,d,0,1.0053,3,2,14,2,1,,,,,
,0.99,,,,,,,,,k,purple,5d8a77b716a9bf0001d969aa,2021-10-22_12h06.42.022,forced_choiceRT_color,2021.2.3,Win32,59.97001499,,,,,,,,10,Fast,short,k,1,1.8994,3,3,15,3,1,,,,,
,1.6,,,,,,,,,j,red,5d8a77b716a9bf0001d969aa,2021-10-22_12h06.42.022,forced_choiceRT_color,2021.2.3,Win32,59.97001499,,,,,,,,10,Slow,short,j,1,2.2271,4,0,16,2,1,,,,,
,0.34,,,,,,,,,d,orange,5d8a77b716a9bf0001d969aa,2021-10-22_12h06.42.022,forced_choiceRT_color,2021.2.3,Win32,59.97001499,,,,,,,,10,Ontime,short,f,0,1.9785,4,1,17,0,1,,,,,
,0.79,,,,,,,,,f,blue,5d8a77b716a9bf0001d969aa,2021-10-22_12h06.42.022,forced_choiceRT_color,2021.2.3,Win32,59.97001499,,,,,,,,10,Fast,short,d,0,0.0279,4,2,18,1,1,,,,,
,0.06,,,,,,,,,k,purple,5d8a77b716a9bf0001d969aa,2021-10-22_12h06.42.022,forced_choiceRT_color,2021.2.3,Win32,59.97001499,,,,,,,,10,Ontime,short,k,1,2.0368,4,3,19,3,1,,,,,
,1.22,,,,,,,,,j,red,5d8a77b716a9bf0001d969aa,2021-10-22_12h06.42.022,forced_choiceRT_color,2021.2.3,Win32,59.97001499,,,,,,,,10,Ontime,short,j,1,1.9502,5,0,20,2,1,,,,,
,1.8,,,,,,,,,j,red,5d8a77b716a9bf0001d969aa,2021-10-22_12h06.42.022,forced_choiceRT_color,2021.2.3,Win32,59.97001499,,,,,,,,10,Ontime,short,f,0,2.0497,5,1,21,2,1,,,,,
,0.27,,,,,,,,,f,blue,5d8a77b716a9bf0001d969aa,2021-10-22_12h06.42.022,forced_choiceRT_color,2021.2.3,Win32,59.97001499,,,,,,,,10,Ontime,short,f,1,1.9383,5,2,22,1,1,,,,,
,0.04,,,,,,,,,d,orange,5d8a77b716a9bf0001d969aa,2021-10-22_12h06.42.022,forced_choiceRT_color,2021.2.3,Win32,59.97001499,,,,,,,,10,Fast,short,d,1,1.8177,5,3,23,0,1,,,,,
,0.45,,,,,,,,,k,purple,5d8a77b716a9bf0001d969aa,2021-10-22_12h06.42.022,forced_choiceRT_color,2021.2.3,Win32,59.97001499,,,,,,,,10,Ontime,short,k,1,1.9253,6,0,24,3,1,,,,,
,1.76,,,,,,,,,f,blue,5d8a77b716a9bf0001d969aa,2021-10-22_12h06.42.022,forced_choiceRT_color,2021.2.3,Win32,59.97001499,,,,,,,,10,Ontime,short,d,0,2.076,6,1,25,1,1,,,,,
,1.73,,,,,,,,,f,blue,5d8a77b716a9bf0001d969aa,2021-10-22_12h06.42.022,forced_choiceRT_color,2021.2.3,Win32,59.97001499,,,,,,,,10,Slow,short,d,0,2.1391,6,2,26,1,1,,,,,
,1.77,,,,,,,,,f,blue,5d8a77b716a9bf0001d969aa,2021-10-22_12h06.42.022,forced_choiceRT_color,2021.2.3,Win32,59.97001499,,,,,,,,10,Slow,short,d,0,2.1485,6,3,27,1,1,,,,,
,1.04,,,,,,,,,k,purple,5d8a77b716a9bf0001d969aa,2021-10-22_12h06.42.022,forced_choiceRT_color,2021.2.3,Win32,59.97001499,,,,,,,,10,Ontime,short,k,1,1.9514,7,0,28,3,1,,,,,
,0.35,,,,,,,,,k,purple,5d8a77b716a9bf0001d969aa,2021-10-22_12h06.42.022,forced_choiceRT_color,2021.2.3,Win32,59.97001499,,,,,,,,10,Fast,short,k,1,1.7777,7,1,29,3,1,,,,,
,0.17,,,,,,,,,k,purple,5d8a77b716a9bf0001d969aa,2021-10-22_12h06.42.022,forced_choiceRT_color,2021.2.3,Win32,59.97001499,,,,,,,,10,Fast,short,k,1,1.8204,7,2,30,3,1,,,,,
,1.15,,,,,,,,,f,blue,5d8a77b716a9bf0001d969aa,2021-10-22_12h06.42.022,forced_choiceRT_color,2021.2.3,Win32,59.97001499,,,,,,,,10,Ontime,short,f,1,2.0433,7,3,31,1,1,,,,,
,0.97,,,,,,,,,j,red,5d8a77b716a9bf0001d969aa,2021-10-22_12h06.42.022,forced_choiceRT_color,2021.2.3,Win32,59.97001499,,,,,,,,10,Ontime,short,j,1,1.9841,8,0,32,2,1,,,,,
,1.21,,,,,,,,,j,red,5d8a77b716a9bf0001d969aa,2021-10-22_12h06.42.022,forced_choiceRT_color,2021.2.3,Win32,59.97001499,,,,,,,,10,Ontime,short,j,1,1.9688,8,1,33,2,1,,,,,
,1.92,,,,,,,,,j,red,5d8a77b716a9bf0001d969aa,2021-10-22_12h06.42.022,forced_choiceRT_color,2021.2.3,Win32,59.97001499,,,,,,,,10,Slow,short,k,0,2.3159,8,2,34,2,1,,,,,
,0.17,,,,,,,,,f,blue,5d8a77b716a9bf0001d969aa,2021-10-22_12h06.42.022,forced_choiceRT_color,2021.2.3,Win32,59.97001499,,,,,,,,10,Fast,short,f,1,1.8177,8,3,35,1,1,,,,,
,1.94,,,,,,,,,d,orange,5d8a77b716a9bf0001d969aa,2021-10-22_12h06.42.022,forced_choiceRT_color,2021.2.3,Win32,59.97001499,,,,,,,,10,Slow,short,f,0,2.6755,9,0,36,0,1,,,,,
,1.5,,,,,,,,,k,purple,5d8a77b716a9bf0001d969aa,2021-10-22_12h06.42.022,forced_choiceRT_color,2021.2.3,Win32,59.97001499,,,,,,,,10,Slow,short,k,1,2.2783,9,1,37,3,1,,,,,
,0.43,,,,,,,,,j,red,5d8a77b716a9bf0001d969aa,2021-10-22_12h06.42.022,forced_choiceRT_color,2021.2.3,Win32,59.97001499,,,,,,,,10,Ontime,short,j,1,1.9726,9,2,38,2,1,,,,,
,0.98,,,,,,,,,k,purple,5d8a77b716a9bf0001d969aa,2021-10-22_12h06.42.022,forced_choiceRT_color,2021.2.3,Win32,59.97001499,,,,,,,,10,Fast,short,k,1,1.6035,9,3,39,3,1,,,,,
,,,,,,,,,,,,5d8a77b716a9bf0001d969aa,2021-10-22_12h06.42.022,forced_choiceRT_color,2021.2.3,Win32,59.97001499,,,,,,,,,,,,,,,,,,,9,0,9,0,1
