IP_Addresss,target_onset,trial_resp_sp.keys,trial_resp_sp.corr,trial_resp_sp.rt,trials_train_loop.thisRepN,trials_train_loop.thisTrialN,trials_train_loop.thisN,trials_train_loop.thisIndex,trials_train_loop.ran,correct_key,color,participant,date,expName,psychopyVersion,OS,frameRate,trial_resp_timing.keys,trial_resp_timing.rt,trials_train_timing.thisRepN,trials_train_timing.thisTrialN,trials_train_timing.thisN,trials_train_timing.thisIndex,trials_train_timing.ran,block_id,ontime,feedback_cond,forcedRT_resp.keys,forcedRT_resp.corr,forcedRT_resp.rt,trials.thisRepN,trials.thisTrialN,trials.thisN,trials.thisIndex,trials.ran,blocks.thisRepN,blocks.thisTrialN,blocks.thisN,blocks.thisIndex,blocks.ran
70.233.172.221,0,k,1,3.0751,0,0,0,3,1,k,purple,5de938ece4d1830288b70b33,2021-09-27_16h08.16.633,forced_choiceRT_color,2021.2.3,Win32,60.06727535,,,,,,,,,,,,,,,,,,,,,,,
,0,f,1,1.933200001,0,1,1,1,1,f,blue,5de938ece4d1830288b70b33,2021-09-27_16h08.16.633,forced_choiceRT_color,2021.2.3,Win32,60.06727535,,,,,,,,,,,,,,,,,,,,,,,
,0,d,1,1.557400001,0,2,2,0,1,d,orange,5de938ece4d1830288b70b33,2021-09-27_16h08.16.633,forced_choiceRT_color,2021.2.3,Win32,60.06727535,,,,,,,,,,,,,,,,,,,,,,,
,0,j,0,1.9347,0,3,3,0,1,d,orange,5de938ece4d1830288b70b33,2021-09-27_16h08.16.633,forced_choiceRT_color,2021.2.3,Win32,60.06727535,,,,,,,,,,,,,,,,,,,,,,,
,0,d,1,2.083,1,0,4,0,1,d,orange,5de938ece4d1830288b70b33,2021-09-27_16h08.16.633,forced_choiceRT_color,2021.2.3,Win32,60.06727535,,,,,,,,,,,,,,,,,,,,,,,
,0,j,1,0.9269,1,1,5,2,1,j,red,5de938ece4d1830288b70b33,2021-09-27_16h08.16.633,forced_choiceRT_color,2021.2.3,Win32,60.06727535,,,,,,,,,,,,,,,,,,,,,,,
,0,k,1,1.203,1,2,6,3,1,k,purple,5de938ece4d1830288b70b33,2021-09-27_16h08.16.633,forced_choiceRT_color,2021.2.3,Win32,60.06727535,,,,,,,,,,,,,,,,,,,,,,,
,0,j,0,0.739,1,3,7,3,1,k,purple,5de938ece4d1830288b70b33,2021-09-27_16h08.16.633,forced_choiceRT_color,2021.2.3,Win32,60.06727535,,,,,,,,,,,,,,,,,,,,,,,
,0,d,1,2.4835,2,0,8,0,1,d,orange,5de938ece4d1830288b70b33,2021-09-27_16h08.16.633,forced_choiceRT_color,2021.2.3,Win32,60.06727535,,,,,,,,,,,,,,,,,,,,,,,
,0,k,1,1.1512,2,1,9,3,1,k,purple,5de938ece4d1830288b70b33,2021-09-27_16h08.16.633,forced_choiceRT_color,2021.2.3,Win32,60.06727535,,,,,,,,,,,,,,,,,,,,,,,
,0,f,1,1.6275,2,2,10,1,1,f,blue,5de938ece4d1830288b70b33,2021-09-27_16h08.16.633,forced_choiceRT_color,2021.2.3,Win32,60.06727535,,,,,,,,,,,,,,,,,,,,,,,
,0,f,1,1.7187,2,3,11,1,1,f,blue,5de938ece4d1830288b70b33,2021-09-27_16h08.16.633,forced_choiceRT_color,2021.2.3,Win32,60.06727535,,,,,,,,,,,,,,,,,,,,,,,
,0,f,1,1.1845,3,0,12,1,1,f,blue,5de938ece4d1830288b70b33,2021-09-27_16h08.16.633,forced_choiceRT_color,2021.2.3,Win32,60.06727535,,,,,,,,,,,,,,,,,,,,,,,
,0,f,1,0.9992,3,1,13,1,1,f,blue,5de938ece4d1830288b70b33,2021-09-27_16h08.16.633,forced_choiceRT_color,2021.2.3,Win32,60.06727535,,,,,,,,,,,,,,,,,,,,,,,
,0,d,1,1.1075,3,2,14,0,1,d,orange,5de938ece4d1830288b70b33,2021-09-27_16h08.16.633,forced_choiceRT_color,2021.2.3,Win32,60.06727535,,,,,,,,,,,,,,,,,,,,,,,
,0,f,1,0.9468,3,3,15,1,1,f,blue,5de938ece4d1830288b70b33,2021-09-27_16h08.16.633,forced_choiceRT_color,2021.2.3,Win32,60.06727535,,,,,,,,,,,,,,,,,,,,,,,
,0,j,1,1.2016,4,0,16,2,1,j,red,5de938ece4d1830288b70b33,2021-09-27_16h08.16.633,forced_choiceRT_color,2021.2.3,Win32,60.06727535,,,,,,,,,,,,,,,,,,,,,,,
,0,j,1,0.713900001,4,1,17,2,1,j,red,5de938ece4d1830288b70b33,2021-09-27_16h08.16.633,forced_choiceRT_color,2021.2.3,Win32,60.06727535,,,,,,,,,,,,,,,,,,,,,,,
,0,d,1,0.831,4,2,18,0,1,d,orange,5de938ece4d1830288b70b33,2021-09-27_16h08.16.633,forced_choiceRT_color,2021.2.3,Win32,60.06727535,,,,,,,,,,,,,,,,,,,,,,,
,0,j,1,0.7819,4,3,19,2,1,j,red,5de938ece4d1830288b70b33,2021-09-27_16h08.16.633,forced_choiceRT_color,2021.2.3,Win32,60.06727535,,,,,,,,,,,,,,,,,,,,,,,
,0,d,1,1.181299999,5,0,20,0,1,d,orange,5de938ece4d1830288b70b33,2021-09-27_16h08.16.633,forced_choiceRT_color,2021.2.3,Win32,60.06727535,,,,,,,,,,,,,,,,,,,,,,,
,0,d,1,0.921,5,1,21,0,1,d,orange,5de938ece4d1830288b70b33,2021-09-27_16h08.16.633,forced_choiceRT_color,2021.2.3,Win32,60.06727535,,,,,,,,,,,,,,,,,,,,,,,
,0,f,1,0.6815,5,2,22,1,1,f,blue,5de938ece4d1830288b70b33,2021-09-27_16h08.16.633,forced_choiceRT_color,2021.2.3,Win32,60.06727535,,,,,,,,,,,,,,,,,,,,,,,
,0,f,1,0.585200001,5,3,23,1,1,f,blue,5de938ece4d1830288b70b33,2021-09-27_16h08.16.633,forced_choiceRT_color,2021.2.3,Win32,60.06727535,,,,,,,,,,,,,,,,,,,,,,,
,0,k,1,1.155599999,6,0,24,3,1,k,purple,5de938ece4d1830288b70b33,2021-09-27_16h08.16.633,forced_choiceRT_color,2021.2.3,Win32,60.06727535,,,,,,,,,,,,,,,,,,,,,,,
,0,k,1,0.6062,6,1,25,3,1,k,purple,5de938ece4d1830288b70b33,2021-09-27_16h08.16.633,forced_choiceRT_color,2021.2.3,Win32,60.06727535,,,,,,,,,,,,,,,,,,,,,,,
,0,j,1,0.7185,6,2,26,2,1,j,red,5de938ece4d1830288b70b33,2021-09-27_16h08.16.633,forced_choiceRT_color,2021.2.3,Win32,60.06727535,,,,,,,,,,,,,,,,,,,,,,,
,0,f,1,1.402200001,6,3,27,1,1,f,blue,5de938ece4d1830288b70b33,2021-09-27_16h08.16.633,forced_choiceRT_color,2021.2.3,Win32,60.06727535,,,,,,,,,,,,,,,,,,,,,,,
,0,k,1,0.9528,7,0,28,3,1,k,purple,5de938ece4d1830288b70b33,2021-09-27_16h08.16.633,forced_choiceRT_color,2021.2.3,Win32,60.06727535,,,,,,,,,,,,,,,,,,,,,,,
,0,k,1,0.589599999,7,1,29,3,1,k,purple,5de938ece4d1830288b70b33,2021-09-27_16h08.16.633,forced_choiceRT_color,2021.2.3,Win32,60.06727535,,,,,,,,,,,,,,,,,,,,,,,
,0,k,1,0.541400001,7,2,30,3,1,k,purple,5de938ece4d1830288b70b33,2021-09-27_16h08.16.633,forced_choiceRT_color,2021.2.3,Win32,60.06727535,,,,,,,,,,,,,,,,,,,,,,,
,0,j,1,0.631,7,3,31,2,1,j,red,5de938ece4d1830288b70b33,2021-09-27_16h08.16.633,forced_choiceRT_color,2021.2.3,Win32,60.06727535,,,,,,,,,,,,,,,,,,,,,,,
,0,j,1,0.521,8,0,32,2,1,j,red,5de938ece4d1830288b70b33,2021-09-27_16h08.16.633,forced_choiceRT_color,2021.2.3,Win32,60.06727535,,,,,,,,,,,,,,,,,,,,,,,
,0,k,1,0.8055,8,1,33,3,1,k,purple,5de938ece4d1830288b70b33,2021-09-27_16h08.16.633,forced_choiceRT_color,2021.2.3,Win32,60.06727535,,,,,,,,,,,,,,,,,,,,,,,
,0,j,1,1.0327,8,2,34,2,1,j,red,5de938ece4d1830288b70b33,2021-09-27_16h08.16.633,forced_choiceRT_color,2021.2.3,Win32,60.06727535,,,,,,,,,,,,,,,,,,,,,,,
,0,d,1,0.9602,8,3,35,0,1,d,orange,5de938ece4d1830288b70b33,2021-09-27_16h08.16.633,forced_choiceRT_color,2021.2.3,Win32,60.06727535,,,,,,,,,,,,,,,,,,,,,,,
,0,f,1,0.833400001,9,0,36,1,1,f,blue,5de938ece4d1830288b70b33,2021-09-27_16h08.16.633,forced_choiceRT_color,2021.2.3,Win32,60.06727535,,,,,,,,,,,,,,,,,,,,,,,
,0,f,1,0.485400001,9,1,37,1,1,f,blue,5de938ece4d1830288b70b33,2021-09-27_16h08.16.633,forced_choiceRT_color,2021.2.3,Win32,60.06727535,,,,,,,,,,,,,,,,,,,,,,,
,0,d,1,1.1168,9,2,38,0,1,d,orange,5de938ece4d1830288b70b33,2021-09-27_16h08.16.633,forced_choiceRT_color,2021.2.3,Win32,60.06727535,,,,,,,,,,,,,,,,,,,,,,,
,0,d,1,0.638,9,3,39,0,1,d,orange,5de938ece4d1830288b70b33,2021-09-27_16h08.16.633,forced_choiceRT_color,2021.2.3,Win32,60.06727535,,,,,,,,,,,,,,,,,,,,,,,
,0,d,1,0.8361,10,0,40,0,1,d,orange,5de938ece4d1830288b70b33,2021-09-27_16h08.16.633,forced_choiceRT_color,2021.2.3,Win32,60.06727535,,,,,,,,,,,,,,,,,,,,,,,
,0,j,1,0.704099999,10,1,41,2,1,j,red,5de938ece4d1830288b70b33,2021-09-27_16h08.16.633,forced_choiceRT_color,2021.2.3,Win32,60.06727535,,,,,,,,,,,,,,,,,,,,,,,
,0,j,1,0.505599999,10,2,42,2,1,j,red,5de938ece4d1830288b70b33,2021-09-27_16h08.16.633,forced_choiceRT_color,2021.2.3,Win32,60.06727535,,,,,,,,,,,,,,,,,,,,,,,
,0,f,1,0.7267,10,3,43,1,1,f,blue,5de938ece4d1830288b70b33,2021-09-27_16h08.16.633,forced_choiceRT_color,2021.2.3,Win32,60.06727535,,,,,,,,,,,,,,,,,,,,,,,
,0,d,1,1.0607,11,0,44,0,1,d,orange,5de938ece4d1830288b70b33,2021-09-27_16h08.16.633,forced_choiceRT_color,2021.2.3,Win32,60.06727535,,,,,,,,,,,,,,,,,,,,,,,
,0,f,1,0.92,11,1,45,1,1,f,blue,5de938ece4d1830288b70b33,2021-09-27_16h08.16.633,forced_choiceRT_color,2021.2.3,Win32,60.06727535,,,,,,,,,,,,,,,,,,,,,,,
,0,k,1,0.9702,11,2,46,3,1,k,purple,5de938ece4d1830288b70b33,2021-09-27_16h08.16.633,forced_choiceRT_color,2021.2.3,Win32,60.06727535,,,,,,,,,,,,,,,,,,,,,,,
,0,k,1,0.670200001,11,3,47,3,1,k,purple,5de938ece4d1830288b70b33,2021-09-27_16h08.16.633,forced_choiceRT_color,2021.2.3,Win32,60.06727535,,,,,,,,,,,,,,,,,,,,,,,
,0,j,1,1.9472,12,0,48,2,1,j,red,5de938ece4d1830288b70b33,2021-09-27_16h08.16.633,forced_choiceRT_color,2021.2.3,Win32,60.06727535,,,,,,,,,,,,,,,,,,,,,,,
,0,d,1,0.947,12,1,49,0,1,d,orange,5de938ece4d1830288b70b33,2021-09-27_16h08.16.633,forced_choiceRT_color,2021.2.3,Win32,60.06727535,,,,,,,,,,,,,,,,,,,,,,,
,0,d,1,0.6859,12,2,50,0,1,d,orange,5de938ece4d1830288b70b33,2021-09-27_16h08.16.633,forced_choiceRT_color,2021.2.3,Win32,60.06727535,,,,,,,,,,,,,,,,,,,,,,,
,0,j,1,0.9064,12,3,51,2,1,j,red,5de938ece4d1830288b70b33,2021-09-27_16h08.16.633,forced_choiceRT_color,2021.2.3,Win32,60.06727535,,,,,,,,,,,,,,,,,,,,,,,
,0,k,1,0.831200001,13,0,52,3,1,k,purple,5de938ece4d1830288b70b33,2021-09-27_16h08.16.633,forced_choiceRT_color,2021.2.3,Win32,60.06727535,,,,,,,,,,,,,,,,,,,,,,,
,0,k,1,0.7018,13,1,53,3,1,k,purple,5de938ece4d1830288b70b33,2021-09-27_16h08.16.633,forced_choiceRT_color,2021.2.3,Win32,60.06727535,,,,,,,,,,,,,,,,,,,,,,,
,0,k,1,0.6095,13,2,54,3,1,k,purple,5de938ece4d1830288b70b33,2021-09-27_16h08.16.633,forced_choiceRT_color,2021.2.3,Win32,60.06727535,,,,,,,,,,,,,,,,,,,,,,,
,0,j,1,0.75,13,3,55,2,1,j,red,5de938ece4d1830288b70b33,2021-09-27_16h08.16.633,forced_choiceRT_color,2021.2.3,Win32,60.06727535,,,,,,,,,,,,,,,,,,,,,,,
,0,j,1,0.5845,14,0,56,2,1,j,red,5de938ece4d1830288b70b33,2021-09-27_16h08.16.633,forced_choiceRT_color,2021.2.3,Win32,60.06727535,,,,,,,,,,,,,,,,,,,,,,,
,0,f,1,0.9045,14,1,57,1,1,f,blue,5de938ece4d1830288b70b33,2021-09-27_16h08.16.633,forced_choiceRT_color,2021.2.3,Win32,60.06727535,,,,,,,,,,,,,,,,,,,,,,,
,0,j,1,0.847,14,2,58,2,1,j,red,5de938ece4d1830288b70b33,2021-09-27_16h08.16.633,forced_choiceRT_color,2021.2.3,Win32,60.06727535,,,,,,,,,,,,,,,,,,,,,,,
,0,f,1,1.1843,14,3,59,1,1,f,blue,5de938ece4d1830288b70b33,2021-09-27_16h08.16.633,forced_choiceRT_color,2021.2.3,Win32,60.06727535,,,,,,,,,,,,,,,,,,,,,,,
,,,,,,,,,,,,5de938ece4d1830288b70b33,2021-09-27_16h08.16.633,forced_choiceRT_color,2021.2.3,Win32,60.06727535,j,2.3071,0,0,0,0,1,,,,,,,,,,,,,,,,
,,,,,,,,,,,,5de938ece4d1830288b70b33,2021-09-27_16h08.16.633,forced_choiceRT_color,2021.2.3,Win32,60.06727535,j,1.772099999,1,0,1,0,1,,,,,,,,,,,,,,,,
,,,,,,,,,,,,5de938ece4d1830288b70b33,2021-09-27_16h08.16.633,forced_choiceRT_color,2021.2.3,Win32,60.06727535,j,1.7673,2,0,2,0,1,,,,,,,,,,,,,,,,
,,,,,,,,,,,,5de938ece4d1830288b70b33,2021-09-27_16h08.16.633,forced_choiceRT_color,2021.2.3,Win32,60.06727535,j,1.7692,3,0,3,0,1,,,,,,,,,,,,,,,,
,,,,,,,,,,,,5de938ece4d1830288b70b33,2021-09-27_16h08.16.633,forced_choiceRT_color,2021.2.3,Win32,60.06727535,j,2.2274,4,0,4,0,1,,,,,,,,,,,,,,,,
,,,,,,,,,,,,5de938ece4d1830288b70b33,2021-09-27_16h08.16.633,forced_choiceRT_color,2021.2.3,Win32,60.06727535,j,2.086,5,0,5,0,1,,,,,,,,,,,,,,,,
,,,,,,,,,,,,5de938ece4d1830288b70b33,2021-09-27_16h08.16.633,forced_choiceRT_color,2021.2.3,Win32,60.06727535,j,2.066,6,0,6,0,1,,,,,,,,,,,,,,,,
,,,,,,,,,,,,5de938ece4d1830288b70b33,2021-09-27_16h08.16.633,forced_choiceRT_color,2021.2.3,Win32,60.06727535,j,1.736700001,7,0,7,0,1,,,,,,,,,,,,,,,,
,,,,,,,,,,,,5de938ece4d1830288b70b33,2021-09-27_16h08.16.633,forced_choiceRT_color,2021.2.3,Win32,60.06727535,j,1.8022,8,0,8,0,1,,,,,,,,,,,,,,,,
,,,,,,,,,,,,5de938ece4d1830288b70b33,2021-09-27_16h08.16.633,forced_choiceRT_color,2021.2.3,Win32,60.06727535,j,2.093,9,0,9,0,1,,,,,,,,,,,,,,,,
,,,,,,,,,,,,5de938ece4d1830288b70b33,2021-09-27_16h08.16.633,forced_choiceRT_color,2021.2.3,Win32,60.06727535,j,2.1343,10,0,10,0,1,,,,,,,,,,,,,,,,
,,,,,,,,,,,,5de938ece4d1830288b70b33,2021-09-27_16h08.16.633,forced_choiceRT_color,2021.2.3,Win32,60.06727535,j,1.8517,11,0,11,0,1,,,,,,,,,,,,,,,,
,,,,,,,,,,,,5de938ece4d1830288b70b33,2021-09-27_16h08.16.633,forced_choiceRT_color,2021.2.3,Win32,60.06727535,j,1.822599999,12,0,12,0,1,,,,,,,,,,,,,,,,
,,,,,,,,,,,,5de938ece4d1830288b70b33,2021-09-27_16h08.16.633,forced_choiceRT_color,2021.2.3,Win32,60.06727535,j,1.8184,13,0,13,0,1,,,,,,,,,,,,,,,,
,,,,,,,,,,,,5de938ece4d1830288b70b33,2021-09-27_16h08.16.633,forced_choiceRT_color,2021.2.3,Win32,60.06727535,j,2.129,14,0,14,0,1,,,,,,,,,,,,,,,,
,,,,,,,,,,,,5de938ece4d1830288b70b33,2021-09-27_16h08.16.633,forced_choiceRT_color,2021.2.3,Win32,60.06727535,j,4.4669,15,0,15,0,1,,,,,,,,,,,,,,,,
,,,,,,,,,,,,5de938ece4d1830288b70b33,2021-09-27_16h08.16.633,forced_choiceRT_color,2021.2.3,Win32,60.06727535,j,2.1522,16,0,16,0,1,,,,,,,,,,,,,,,,
,,,,,,,,,,,,5de938ece4d1830288b70b33,2021-09-27_16h08.16.633,forced_choiceRT_color,2021.2.3,Win32,60.06727535,j,1.9395,17,0,17,0,1,,,,,,,,,,,,,,,,
,,,,,,,,,,,,5de938ece4d1830288b70b33,2021-09-27_16h08.16.633,forced_choiceRT_color,2021.2.3,Win32,60.06727535,j,2.102,18,0,18,0,1,,,,,,,,,,,,,,,,
,,,,,,,,,,,,5de938ece4d1830288b70b33,2021-09-27_16h08.16.633,forced_choiceRT_color,2021.2.3,Win32,60.06727535,j,2.085200001,19,0,19,0,1,,,,,,,,,,,,,,,,
,1.82,,,,,,,,,j,red,5de938ece4d1830288b70b33,2021-09-27_16h08.16.633,forced_choiceRT_color,2021.2.3,Win32,60.06727535,,,,,,,,1,Fast,long,j,1,1.775099999,0,0,0,2,1,,,,,
,0.85,,,,,,,,,d,orange,5de938ece4d1830288b70b33,2021-09-27_16h08.16.633,forced_choiceRT_color,2021.2.3,Win32,60.06727535,,,,,,,,1,Slow,long,j,0,2.259400001,0,1,1,0,1,,,,,
,1.02,,,,,,,,,k,purple,5de938ece4d1830288b70b33,2021-09-27_16h08.16.633,forced_choiceRT_color,2021.2.3,Win32,60.06727535,,,,,,,,1,Slow,long,j,0,2.2093,0,2,2,3,1,,,,,
,0.91,,,,,,,,,k,purple,5de938ece4d1830288b70b33,2021-09-27_16h08.16.633,forced_choiceRT_color,2021.2.3,Win32,60.06727535,,,,,,,,1,Slow,long,f,0,2.3041,0,3,3,3,1,,,,,
,1.23,,,,,,,,,d,orange,5de938ece4d1830288b70b33,2021-09-27_16h08.16.633,forced_choiceRT_color,2021.2.3,Win32,60.06727535,,,,,,,,1,Fast,long,j,0,1.823,1,0,4,0,1,,,,,
,1.1,,,,,,,,,j,red,5de938ece4d1830288b70b33,2021-09-27_16h08.16.633,forced_choiceRT_color,2021.2.3,Win32,60.06727535,,,,,,,,1,Slow,long,j,1,2.1065,1,1,5,2,1,,,,,
,1,,,,,,,,,d,orange,5de938ece4d1830288b70b33,2021-09-27_16h08.16.633,forced_choiceRT_color,2021.2.3,Win32,60.06727535,,,,,,,,1,Ontime,long,j,0,1.9516,1,2,6,0,1,,,,,
,0.99,,,,,,,,,k,purple,5de938ece4d1830288b70b33,2021-09-27_16h08.16.633,forced_choiceRT_color,2021.2.3,Win32,60.06727535,,,,,,,,1,Slow,long,k,1,2.319,1,3,7,3,1,,,,,
,1.16,,,,,,,,,k,purple,5de938ece4d1830288b70b33,2021-09-27_16h08.16.633,forced_choiceRT_color,2021.2.3,Win32,60.06727535,,,,,,,,1,Slow,long,k,1,2.240400001,2,0,8,3,1,,,,,
,0.04,,,,,,,,,d,orange,5de938ece4d1830288b70b33,2021-09-27_16h08.16.633,forced_choiceRT_color,2021.2.3,Win32,60.06727535,,,,,,,,1,Fast,long,j,0,1.868,2,1,9,0,1,,,,,
,0.43,,,,,,,,,d,orange,5de938ece4d1830288b70b33,2021-09-27_16h08.16.633,forced_choiceRT_color,2021.2.3,Win32,60.06727535,,,,,,,,1,Slow,long,j,0,2.1528,2,2,10,0,1,,,,,
,1.99,,,,,,,,,f,blue,5de938ece4d1830288b70b33,2021-09-27_16h08.16.633,forced_choiceRT_color,2021.2.3,Win32,60.06727535,,,,,,,,1,Ontime,long,j,0,1.952,2,3,11,1,1,,,,,
,0.95,,,,,,,,,j,red,5de938ece4d1830288b70b33,2021-09-27_16h08.16.633,forced_choiceRT_color,2021.2.3,Win32,60.06727535,,,,,,,,1,Slow,long,d,0,2.3039,3,0,12,2,1,,,,,
,1.45,,,,,,,,,j,red,5de938ece4d1830288b70b33,2021-09-27_16h08.16.633,forced_choiceRT_color,2021.2.3,Win32,60.06727535,,,,,,,,1,Ontime,long,j,1,2.002,3,1,13,2,1,,,,,
,0.11,,,,,,,,,d,orange,5de938ece4d1830288b70b33,2021-09-27_16h08.16.633,forced_choiceRT_color,2021.2.3,Win32,60.06727535,,,,,,,,1,Fast,long,k,0,1.801299999,3,2,14,0,1,,,,,
,0.3,,,,,,,,,j,red,5de938ece4d1830288b70b33,2021-09-27_16h08.16.633,forced_choiceRT_color,2021.2.3,Win32,60.06727535,,,,,,,,1,Ontime,long,j,1,1.969599999,3,3,15,2,1,,,,,
,0.56,,,,,,,,,k,purple,5de938ece4d1830288b70b33,2021-09-27_16h08.16.633,forced_choiceRT_color,2021.2.3,Win32,60.06727535,,,,,,,,1,Ontime,long,k,1,2.0691,4,0,16,3,1,,,,,
,1.81,,,,,,,,,k,purple,5de938ece4d1830288b70b33,2021-09-27_16h08.16.633,forced_choiceRT_color,2021.2.3,Win32,60.06727535,,,,,,,,1,Slow,long,k,1,2.336,4,1,17,3,1,,,,,
,0.69,,,,,,,,,f,blue,5de938ece4d1830288b70b33,2021-09-27_16h08.16.633,forced_choiceRT_color,2021.2.3,Win32,60.06727535,,,,,,,,1,Slow,long,f,1,2.1685,4,2,18,1,1,,,,,
,0.05,,,,,,,,,j,red,5de938ece4d1830288b70b33,2021-09-27_16h08.16.633,forced_choiceRT_color,2021.2.3,Win32,60.06727535,,,,,,,,1,Fast,long,j,1,1.425599999,4,3,19,2,1,,,,,
,0.95,,,,,,,,,d,orange,5de938ece4d1830288b70b33,2021-09-27_16h08.16.633,forced_choiceRT_color,2021.2.3,Win32,60.06727535,,,,,,,,1,Slow,long,d,1,2.147,5,0,20,0,1,,,,,
,1.12,,,,,,,,,f,blue,5de938ece4d1830288b70b33,2021-09-27_16h08.16.633,forced_choiceRT_color,2021.2.3,Win32,60.06727535,,,,,,,,1,Slow,long,f,1,2.4606,5,1,21,1,1,,,,,
,0.81,,,,,,,,,f,blue,5de938ece4d1830288b70b33,2021-09-27_16h08.16.633,forced_choiceRT_color,2021.2.3,Win32,60.06727535,,,,,,,,1,Ontime,long,f,1,2.093900001,5,2,22,1,1,,,,,
,1.23,,,,,,,,,f,blue,5de938ece4d1830288b70b33,2021-09-27_16h08.16.633,forced_choiceRT_color,2021.2.3,Win32,60.06727535,,,,,,,,1,Ontime,long,f,1,2.081099999,5,3,23,1,1,,,,,
,1.91,,,,,,,,,f,blue,5de938ece4d1830288b70b33,2021-09-27_16h08.16.633,forced_choiceRT_color,2021.2.3,Win32,60.06727535,,,,,,,,1,Slow,long,f,1,2.349099999,6,0,24,1,1,,,,,
,1.71,,,,,,,,,d,orange,5de938ece4d1830288b70b33,2021-09-27_16h08.16.633,forced_choiceRT_color,2021.2.3,Win32,60.06727535,,,,,,,,1,Fast,long,f,0,1.8611,6,1,25,0,1,,,,,
,0.21,,,,,,,,,f,blue,5de938ece4d1830288b70b33,2021-09-27_16h08.16.633,forced_choiceRT_color,2021.2.3,Win32,60.06727535,,,,,,,,1,Ontime,long,j,0,1.9158,6,2,26,1,1,,,,,
,1.1,,,,,,,,,k,purple,5de938ece4d1830288b70b33,2021-09-27_16h08.16.633,forced_choiceRT_color,2021.2.3,Win32,60.06727535,,,,,,,,1,Slow,long,k,1,2.4374,6,3,27,3,1,,,,,
,0.08,,,,,,,,,j,red,5de938ece4d1830288b70b33,2021-09-27_16h08.16.633,forced_choiceRT_color,2021.2.3,Win32,60.06727535,,,,,,,,1,Ontime,long,j,1,1.9827,7,0,28,2,1,,,,,
,0.9,,,,,,,,,k,purple,5de938ece4d1830288b70b33,2021-09-27_16h08.16.633,forced_choiceRT_color,2021.2.3,Win32,60.06727535,,,,,,,,1,Ontime,long,k,1,2.095,7,1,29,3,1,,,,,
,0.44,,,,,,,,,f,blue,5de938ece4d1830288b70b33,2021-09-27_16h08.16.633,forced_choiceRT_color,2021.2.3,Win32,60.06727535,,,,,,,,1,Ontime,long,f,1,1.9248,7,2,30,1,1,,,,,
,0.26,,,,,,,,,d,orange,5de938ece4d1830288b70b33,2021-09-27_16h08.16.633,forced_choiceRT_color,2021.2.3,Win32,60.06727535,,,,,,,,1,Ontime,long,d,1,2.0298,7,3,31,0,1,,,,,
,0.25,,,,,,,,,d,orange,5de938ece4d1830288b70b33,2021-09-27_16h08.16.633,forced_choiceRT_color,2021.2.3,Win32,60.06727535,,,,,,,,1,Fast,long,d,1,1.7673,8,0,32,0,1,,,,,
,0.23,,,,,,,,,f,blue,5de938ece4d1830288b70b33,2021-09-27_16h08.16.633,forced_choiceRT_color,2021.2.3,Win32,60.06727535,,,,,,,,1,Fast,long,f,1,1.8521,8,1,33,1,1,,,,,
,1.94,,,,,,,,,j,red,5de938ece4d1830288b70b33,2021-09-27_16h08.16.633,forced_choiceRT_color,2021.2.3,Win32,60.06727535,,,,,,,,1,Slow,long,j,1,2.4919,8,2,34,2,1,,,,,
,1.08,,,,,,,,,j,red,5de938ece4d1830288b70b33,2021-09-27_16h08.16.633,forced_choiceRT_color,2021.2.3,Win32,60.06727535,,,,,,,,1,Slow,long,j,1,2.3186,8,3,35,2,1,,,,,
,0.71,,,,,,,,,k,purple,5de938ece4d1830288b70b33,2021-09-27_16h08.16.633,forced_choiceRT_color,2021.2.3,Win32,60.06727535,,,,,,,,1,Ontime,long,k,1,1.9012,9,0,36,3,1,,,,,
,0.18,,,,,,,,,k,purple,5de938ece4d1830288b70b33,2021-09-27_16h08.16.633,forced_choiceRT_color,2021.2.3,Win32,60.06727535,,,,,,,,1,Ontime,long,k,1,2.0496,9,1,37,3,1,,,,,
,0.49,,,,,,,,,j,red,5de938ece4d1830288b70b33,2021-09-27_16h08.16.633,forced_choiceRT_color,2021.2.3,Win32,60.06727535,,,,,,,,1,Slow,long,j,1,2.1374,9,2,38,2,1,,,,,
,1.04,,,,,,,,,f,blue,5de938ece4d1830288b70b33,2021-09-27_16h08.16.633,forced_choiceRT_color,2021.2.3,Win32,60.06727535,,,,,,,,1,Slow,long,f,1,2.1204,9,3,39,1,1,,,,,
,,,,,,,,,,,,5de938ece4d1830288b70b33,2021-09-27_16h08.16.633,forced_choiceRT_color,2021.2.3,Win32,60.06727535,,,,,,,,,,,,,,,,,,,0,0,0,0,1
,1.75,,,,,,,,,f,blue,5de938ece4d1830288b70b33,2021-09-27_16h08.16.633,forced_choiceRT_color,2021.2.3,Win32,60.06727535,,,,,,,,2,Slow,long,f,1,2.639200001,0,0,0,1,1,,,,,
,0.02,,,,,,,,,k,purple,5de938ece4d1830288b70b33,2021-09-27_16h08.16.633,forced_choiceRT_color,2021.2.3,Win32,60.06727535,,,,,,,,2,Ontime,long,k,1,1.919,0,1,1,3,1,,,,,
,0.71,,,,,,,,,d,orange,5de938ece4d1830288b70b33,2021-09-27_16h08.16.633,forced_choiceRT_color,2021.2.3,Win32,60.06727535,,,,,,,,2,Ontime,long,d,1,2.0542,0,2,2,0,1,,,,,
,0.38,,,,,,,,,f,blue,5de938ece4d1830288b70b33,2021-09-27_16h08.16.633,forced_choiceRT_color,2021.2.3,Win32,60.06727535,,,,,,,,2,Fast,long,f,1,1.7432,0,3,3,1,1,,,,,
,1.62,,,,,,,,,d,orange,5de938ece4d1830288b70b33,2021-09-27_16h08.16.633,forced_choiceRT_color,2021.2.3,Win32,60.06727535,,,,,,,,2,Slow,long,d,1,2.327,1,0,4,0,1,,,,,
,1.03,,,,,,,,,f,blue,5de938ece4d1830288b70b33,2021-09-27_16h08.16.633,forced_choiceRT_color,2021.2.3,Win32,60.06727535,,,,,,,,2,Slow,long,f,1,2.1185,1,1,5,1,1,,,,,
,1.92,,,,,,,,,f,blue,5de938ece4d1830288b70b33,2021-09-27_16h08.16.633,forced_choiceRT_color,2021.2.3,Win32,60.06727535,,,,,,,,2,Slow,long,f,1,2.4257,1,2,6,1,1,,,,,
,1.53,,,,,,,,,j,red,5de938ece4d1830288b70b33,2021-09-27_16h08.16.633,forced_choiceRT_color,2021.2.3,Win32,60.06727535,,,,,,,,2,Ontime,long,j,1,2.001,1,3,7,2,1,,,,,
,1.26,,,,,,,,,k,purple,5de938ece4d1830288b70b33,2021-09-27_16h08.16.633,forced_choiceRT_color,2021.2.3,Win32,60.06727535,,,,,,,,2,Fast,long,k,1,1.7949,2,0,8,3,1,,,,,
,1.45,,,,,,,,,f,blue,5de938ece4d1830288b70b33,2021-09-27_16h08.16.633,forced_choiceRT_color,2021.2.3,Win32,60.06727535,,,,,,,,2,Slow,long,f,1,2.1616,2,1,9,1,1,,,,,
,0.93,,,,,,,,,d,orange,5de938ece4d1830288b70b33,2021-09-27_16h08.16.633,forced_choiceRT_color,2021.2.3,Win32,60.06727535,,,,,,,,2,Ontime,long,d,1,2.0757,2,2,10,0,1,,,,,
,0.7,,,,,,,,,d,orange,5de938ece4d1830288b70b33,2021-09-27_16h08.16.633,forced_choiceRT_color,2021.2.3,Win32,60.06727535,,,,,,,,2,Fast,long,d,1,1.786,2,3,11,0,1,,,,,
,0.58,,,,,,,,,j,red,5de938ece4d1830288b70b33,2021-09-27_16h08.16.633,forced_choiceRT_color,2021.2.3,Win32,60.06727535,,,,,,,,2,Ontime,long,j,1,1.921,3,0,12,2,1,,,,,
,0.28,,,,,,,,,f,blue,5de938ece4d1830288b70b33,2021-09-27_16h08.16.633,forced_choiceRT_color,2021.2.3,Win32,60.06727535,,,,,,,,2,Fast,long,f,1,1.8686,3,1,13,1,1,,,,,
,0.15,,,,,,,,,d,orange,5de938ece4d1830288b70b33,2021-09-27_16h08.16.633,forced_choiceRT_color,2021.2.3,Win32,60.06727535,,,,,,,,2,Ontime,long,d,1,1.9959,3,2,14,0,1,,,,,
,1.55,,,,,,,,,j,red,5de938ece4d1830288b70b33,2021-09-27_16h08.16.633,forced_choiceRT_color,2021.2.3,Win32,60.06727535,,,,,,,,2,Slow,long,j,1,2.2785,3,3,15,2,1,,,,,
,1.49,,,,,,,,,f,blue,5de938ece4d1830288b70b33,2021-09-27_16h08.16.633,forced_choiceRT_color,2021.2.3,Win32,60.06727535,,,,,,,,2,Slow,long,f,1,2.3737,4,0,16,1,1,,,,,
,1.99,,,,,,,,,k,purple,5de938ece4d1830288b70b33,2021-09-27_16h08.16.633,forced_choiceRT_color,2021.2.3,Win32,60.06727535,,,,,,,,2,Slow,long,j,0,2.872,4,1,17,3,1,,,,,
,1.71,,,,,,,,,k,purple,5de938ece4d1830288b70b33,2021-09-27_16h08.16.633,forced_choiceRT_color,2021.2.3,Win32,60.06727535,,,,,,,,2,Slow,long,f,0,2.3873,4,2,18,3,1,,,,,
,1.74,,,,,,,,,j,red,5de938ece4d1830288b70b33,2021-09-27_16h08.16.633,forced_choiceRT_color,2021.2.3,Win32,60.06727535,,,,,,,,2,Slow,long,f,0,2.291700001,4,3,19,2,1,,,,,
,1.66,,,,,,,,,d,orange,5de938ece4d1830288b70b33,2021-09-27_16h08.16.633,forced_choiceRT_color,2021.2.3,Win32,60.06727535,,,,,,,,2,Slow,long,d,1,2.210700001,5,0,20,0,1,,,,,
,1.11,,,,,,,,,k,purple,5de938ece4d1830288b70b33,2021-09-27_16h08.16.633,forced_choiceRT_color,2021.2.3,Win32,60.06727535,,,,,,,,2,Fast,long,d,0,1.7855,5,1,21,3,1,,,,,
,0.26,,,,,,,,,f,blue,5de938ece4d1830288b70b33,2021-09-27_16h08.16.633,forced_choiceRT_color,2021.2.3,Win32,60.06727535,,,,,,,,2,Fast,long,f,1,1.4257,5,2,22,1,1,,,,,
,1.86,,,,,,,,,j,red,5de938ece4d1830288b70b33,2021-09-27_16h08.16.633,forced_choiceRT_color,2021.2.3,Win32,60.06727535,,,,,,,,2,Slow,long,d,0,2.3845,5,3,23,2,1,,,,,
,0.75,,,,,,,,,k,purple,5de938ece4d1830288b70b33,2021-09-27_16h08.16.633,forced_choiceRT_color,2021.2.3,Win32,60.06727535,,,,,,,,2,Ontime,long,k,1,2.0354,6,0,24,3,1,,,,,
,0.05,,,,,,,,,d,orange,5de938ece4d1830288b70b33,2021-09-27_16h08.16.633,forced_choiceRT_color,2021.2.3,Win32,60.06727535,,,,,,,,2,Fast,long,d,1,1.2525,6,1,25,0,1,,,,,
,1.02,,,,,,,,,f,blue,5de938ece4d1830288b70b33,2021-09-27_16h08.16.633,forced_choiceRT_color,2021.2.3,Win32,60.06727535,,,,,,,,2,Slow,long,f,1,2.1697,6,2,26,1,1,,,,,
,0.97,,,,,,,,,d,orange,5de938ece4d1830288b70b33,2021-09-27_16h08.16.633,forced_choiceRT_color,2021.2.3,Win32,60.06727535,,,,,,,,2,Fast,long,d,1,1.7514,6,3,27,0,1,,,,,
,0.78,,,,,,,,,j,red,5de938ece4d1830288b70b33,2021-09-27_16h08.16.633,forced_choiceRT_color,2021.2.3,Win32,60.06727535,,,,,,,,2,Slow,long,j,1,2.3865,7,0,28,2,1,,,,,
,0.19,,,,,,,,,f,blue,5de938ece4d1830288b70b33,2021-09-27_16h08.16.633,forced_choiceRT_color,2021.2.3,Win32,60.06727535,,,,,,,,2,Ontime,long,f,1,1.944,7,1,29,1,1,,,,,
,1.26,,,,,,,,,d,orange,5de938ece4d1830288b70b33,2021-09-27_16h08.16.633,forced_choiceRT_color,2021.2.3,Win32,60.06727535,,,,,,,,2,Slow,long,d,1,2.169400001,7,2,30,0,1,,,,,
,0.88,,,,,,,,,k,purple,5de938ece4d1830288b70b33,2021-09-27_16h08.16.633,forced_choiceRT_color,2021.2.3,Win32,60.06727535,,,,,,,,2,Fast,long,k,1,1.8357,7,3,31,3,1,,,,,
,1.76,,,,,,,,,d,orange,5de938ece4d1830288b70b33,2021-09-27_16h08.16.633,forced_choiceRT_color,2021.2.3,Win32,60.06727535,,,,,,,,2,Slow,long,d,1,2.168099999,8,0,32,0,1,,,,,
,1.63,,,,,,,,,j,red,5de938ece4d1830288b70b33,2021-09-27_16h08.16.633,forced_choiceRT_color,2021.2.3,Win32,60.06727535,,,,,,,,2,Slow,long,j,1,2.2968,8,1,33,2,1,,,,,
,0.51,,,,,,,,,j,red,5de938ece4d1830288b70b33,2021-09-27_16h08.16.633,forced_choiceRT_color,2021.2.3,Win32,60.06727535,,,,,,,,2,Ontime,long,j,1,1.9106,8,2,34,2,1,,,,,
,1.1,,,,,,,,,j,red,5de938ece4d1830288b70b33,2021-09-27_16h08.16.633,forced_choiceRT_color,2021.2.3,Win32,60.06727535,,,,,,,,2,Slow,long,j,1,2.2784,8,3,35,2,1,,,,,
,0.28,,,,,,,,,j,red,5de938ece4d1830288b70b33,2021-09-27_16h08.16.633,forced_choiceRT_color,2021.2.3,Win32,60.06727535,,,,,,,,2,Fast,long,j,1,1.8098,9,0,36,2,1,,,,,
,0.22,,,,,,,,,k,purple,5de938ece4d1830288b70b33,2021-09-27_16h08.16.633,forced_choiceRT_color,2021.2.3,Win32,60.06727535,,,,,,,,2,Fast,long,k,1,1.7366,9,1,37,3,1,,,,,
,1.78,,,,,,,,,k,purple,5de938ece4d1830288b70b33,2021-09-27_16h08.16.633,forced_choiceRT_color,2021.2.3,Win32,60.06727535,,,,,,,,2,Slow,long,k,1,2.317700001,9,2,38,3,1,,,,,
,1.2,,,,,,,,,k,purple,5de938ece4d1830288b70b33,2021-09-27_16h08.16.633,forced_choiceRT_color,2021.2.3,Win32,60.06727535,,,,,,,,2,Ontime,long,k,1,1.9728,9,3,39,3,1,,,,,
,,,,,,,,,,,,5de938ece4d1830288b70b33,2021-09-27_16h08.16.633,forced_choiceRT_color,2021.2.3,Win32,60.06727535,,,,,,,,,,,,,,,,,,,1,0,1,0,1
,0.9,,,,,,,,,j,red,5de938ece4d1830288b70b33,2021-09-27_16h08.16.633,forced_choiceRT_color,2021.2.3,Win32,60.06727535,,,,,,,,3,Ontime,long,j,1,1.9762,0,0,0,2,1,,,,,
,1.01,,,,,,,,,j,red,5de938ece4d1830288b70b33,2021-09-27_16h08.16.633,forced_choiceRT_color,2021.2.3,Win32,60.06727535,,,,,,,,3,Fast,long,j,1,1.8765,0,1,1,2,1,,,,,
,0.65,,,,,,,,,j,red,5de938ece4d1830288b70b33,2021-09-27_16h08.16.633,forced_choiceRT_color,2021.2.3,Win32,60.06727535,,,,,,,,3,Fast,long,j,1,1.8232,0,2,2,2,1,,,,,
,0.26,,,,,,,,,j,red,5de938ece4d1830288b70b33,2021-09-27_16h08.16.633,forced_choiceRT_color,2021.2.3,Win32,60.06727535,,,,,,,,3,Fast,long,j,1,1.7591,0,3,3,2,1,,,,,
,0.05,,,,,,,,,k,purple,5de938ece4d1830288b70b33,2021-09-27_16h08.16.633,forced_choiceRT_color,2021.2.3,Win32,60.06727535,,,,,,,,3,Ontime,long,k,1,1.902,1,0,4,3,1,,,,,
,0.36,,,,,,,,,f,blue,5de938ece4d1830288b70b33,2021-09-27_16h08.16.633,forced_choiceRT_color,2021.2.3,Win32,60.06727535,,,,,,,,3,Ontime,long,f,1,1.975400001,1,1,5,1,1,,,,,
,0.19,,,,,,,,,k,purple,5de938ece4d1830288b70b33,2021-09-27_16h08.16.633,forced_choiceRT_color,2021.2.3,Win32,60.06727535,,,,,,,,3,Ontime,long,k,1,2.036400001,1,2,6,3,1,,,,,
,1.13,,,,,,,,,d,orange,5de938ece4d1830288b70b33,2021-09-27_16h08.16.633,forced_choiceRT_color,2021.2.3,Win32,60.06727535,,,,,,,,3,Ontime,long,d,1,2.0035,1,3,7,0,1,,,,,
,0.27,,,,,,,,,k,purple,5de938ece4d1830288b70b33,2021-09-27_16h08.16.633,forced_choiceRT_color,2021.2.3,Win32,60.06727535,,,,,,,,3,Slow,long,k,1,2.1875,2,0,8,3,1,,,,,
,1.7,,,,,,,,,f,blue,5de938ece4d1830288b70b33,2021-09-27_16h08.16.633,forced_choiceRT_color,2021.2.3,Win32,60.06727535,,,,,,,,3,Slow,long,f,1,2.605,2,1,9,1,1,,,,,
,0.73,,,,,,,,,d,orange,5de938ece4d1830288b70b33,2021-09-27_16h08.16.633,forced_choiceRT_color,2021.2.3,Win32,60.06727535,,,,,,,,3,Slow,long,d,1,2.1025,2,2,10,0,1,,,,,
,0.08,,,,,,,,,k,purple,5de938ece4d1830288b70b33,2021-09-27_16h08.16.633,forced_choiceRT_color,2021.2.3,Win32,60.06727535,,,,,,,,3,Fast,long,k,1,1.8035,2,3,11,3,1,,,,,
,1.83,,,,,,,,,k,purple,5de938ece4d1830288b70b33,2021-09-27_16h08.16.633,forced_choiceRT_color,2021.2.3,Win32,60.06727535,,,,,,,,3,Slow,long,j,0,2.5506,3,0,12,3,1,,,,,
,0.51,,,,,,,,,k,purple,5de938ece4d1830288b70b33,2021-09-27_16h08.16.633,forced_choiceRT_color,2021.2.3,Win32,60.06727535,,,,,,,,3,Fast,long,k,1,1.865400001,3,1,13,3,1,,,,,
,1.25,,,,,,,,,k,purple,5de938ece4d1830288b70b33,2021-09-27_16h08.16.633,forced_choiceRT_color,2021.2.3,Win32,60.06727535,,,,,,,,3,Ontime,long,k,1,2.0537,3,2,14,3,1,,,,,
,1.88,,,,,,,,,d,orange,5de938ece4d1830288b70b33,2021-09-27_16h08.16.633,forced_choiceRT_color,2021.2.3,Win32,60.06727535,,,,,,,,3,Slow,long,d,1,2.5101,3,3,15,0,1,,,,,
,0.85,,,,,,,,,d,orange,5de938ece4d1830288b70b33,2021-09-27_16h08.16.633,forced_choiceRT_color,2021.2.3,Win32,60.06727535,,,,,,,,3,Fast,long,d,1,1.7937,4,0,16,0,1,,,,,
,1.4,,,,,,,,,j,red,5de938ece4d1830288b70b33,2021-09-27_16h08.16.633,forced_choiceRT_color,2021.2.3,Win32,60.06727535,,,,,,,,3,Slow,long,j,1,2.2851,4,1,17,2,1,,,,,
,1.12,,,,,,,,,f,blue,5de938ece4d1830288b70b33,2021-09-27_16h08.16.633,forced_choiceRT_color,2021.2.3,Win32,60.06727535,,,,,,,,3,Fast,long,f,1,1.7351,4,2,18,1,1,,,,,
,0.86,,,,,,,,,d,orange,5de938ece4d1830288b70b33,2021-09-27_16h08.16.633,forced_choiceRT_color,2021.2.3,Win32,60.06727535,,,,,,,,3,Fast,long,d,1,1.722900001,4,3,19,0,1,,,,,
,0.31,,,,,,,,,d,orange,5de938ece4d1830288b70b33,2021-09-27_16h08.16.633,forced_choiceRT_color,2021.2.3,Win32,60.06727535,,,,,,,,3,Fast,long,d,1,1.7844,5,0,20,0,1,,,,,
,0.23,,,,,,,,,k,purple,5de938ece4d1830288b70b33,2021-09-27_16h08.16.633,forced_choiceRT_color,2021.2.3,Win32,60.06727535,,,,,,,,3,Ontime,long,k,1,1.921099999,5,1,21,3,1,,,,,
,0.24,,,,,,,,,f,blue,5de938ece4d1830288b70b33,2021-09-27_16h08.16.633,forced_choiceRT_color,2021.2.3,Win32,60.06727535,,,,,,,,3,Ontime,long,f,1,2.0432,5,2,22,1,1,,,,,
,1.79,,,,,,,,,f,blue,5de938ece4d1830288b70b33,2021-09-27_16h08.16.633,forced_choiceRT_color,2021.2.3,Win32,60.06727535,,,,,,,,3,Slow,long,d,0,2.216,5,3,23,1,1,,,,,
,0.08,,,,,,,,,f,blue,5de938ece4d1830288b70b33,2021-09-27_16h08.16.633,forced_choiceRT_color,2021.2.3,Win32,60.06727535,,,,,,,,3,Ontime,long,f,1,2.0457,6,0,24,1,1,,,,,
,0.39,,,,,,,,,f,blue,5de938ece4d1830288b70b33,2021-09-27_16h08.16.633,forced_choiceRT_color,2021.2.3,Win32,60.06727535,,,,,,,,3,Ontime,long,f,1,2.029,6,1,25,1,1,,,,,
,0.05,,,,,,,,,k,purple,5de938ece4d1830288b70b33,2021-09-27_16h08.16.633,forced_choiceRT_color,2021.2.3,Win32,60.06727535,,,,,,,,3,Ontime,long,k,1,1.9109,6,2,26,3,1,,,,,
,0.05,,,,,,,,,f,blue,5de938ece4d1830288b70b33,2021-09-27_16h08.16.633,forced_choiceRT_color,2021.2.3,Win32,60.06727535,,,,,,,,3,Ontime,long,f,1,2.057,6,3,27,1,1,,,,,
,0.74,,,,,,,,,j,red,5de938ece4d1830288b70b33,2021-09-27_16h08.16.633,forced_choiceRT_color,2021.2.3,Win32,60.06727535,,,,,,,,3,Ontime,long,j,1,2.0307,7,0,28,2,1,,,,,
,1.11,,,,,,,,,j,red,5de938ece4d1830288b70b33,2021-09-27_16h08.16.633,forced_choiceRT_color,2021.2.3,Win32,60.06727535,,,,,,,,3,Ontime,long,j,1,2.0285,7,1,29,2,1,,,,,
,1.67,,,,,,,,,j,red,5de938ece4d1830288b70b33,2021-09-27_16h08.16.633,forced_choiceRT_color,2021.2.3,Win32,60.06727535,,,,,,,,3,Slow,long,j,1,2.103200001,7,2,30,2,1,,,,,
,0.25,,,,,,,,,k,purple,5de938ece4d1830288b70b33,2021-09-27_16h08.16.633,forced_choiceRT_color,2021.2.3,Win32,60.06727535,,,,,,,,3,Fast,long,k,1,1.8855,7,3,31,3,1,,,,,
,0.36,,,,,,,,,d,orange,5de938ece4d1830288b70b33,2021-09-27_16h08.16.633,forced_choiceRT_color,2021.2.3,Win32,60.06727535,,,,,,,,3,Slow,long,d,1,2.1183,8,0,32,0,1,,,,,
,0.81,,,,,,,,,j,red,5de938ece4d1830288b70b33,2021-09-27_16h08.16.633,forced_choiceRT_color,2021.2.3,Win32,60.06727535,,,,,,,,3,Ontime,long,j,1,2.0016,8,1,33,2,1,,,,,
,0.19,,,,,,,,,f,blue,5de938ece4d1830288b70b33,2021-09-27_16h08.16.633,forced_choiceRT_color,2021.2.3,Win32,60.06727535,,,,,,,,3,Ontime,long,f,1,2.0195,8,2,34,1,1,,,,,
,0.88,,,,,,,,,d,orange,5de938ece4d1830288b70b33,2021-09-27_16h08.16.633,forced_choiceRT_color,2021.2.3,Win32,60.06727535,,,,,,,,3,Ontime,long,d,1,1.952700001,8,3,35,0,1,,,,,
,0.56,,,,,,,,,j,red,5de938ece4d1830288b70b33,2021-09-27_16h08.16.633,forced_choiceRT_color,2021.2.3,Win32,60.06727535,,,,,,,,3,Ontime,long,j,1,1.9849,9,0,36,2,1,,,,,
,1.64,,,,,,,,,d,orange,5de938ece4d1830288b70b33,2021-09-27_16h08.16.633,forced_choiceRT_color,2021.2.3,Win32,60.06727535,,,,,,,,3,Slow,long,d,1,2.270400001,9,1,37,0,1,,,,,
,0.73,,,,,,,,,f,blue,5de938ece4d1830288b70b33,2021-09-27_16h08.16.633,forced_choiceRT_color,2021.2.3,Win32,60.06727535,,,,,,,,3,Slow,long,f,1,2.1528,9,2,38,1,1,,,,,
,1.88,,,,,,,,,d,orange,5de938ece4d1830288b70b33,2021-09-27_16h08.16.633,forced_choiceRT_color,2021.2.3,Win32,60.06727535,,,,,,,,3,Slow,long,d,1,2.443299999,9,3,39,0,1,,,,,
,,,,,,,,,,,,5de938ece4d1830288b70b33,2021-09-27_16h08.16.633,forced_choiceRT_color,2021.2.3,Win32,60.06727535,,,,,,,,,,,,,,,,,,,2,0,2,0,1
,1.32,,,,,,,,,k,purple,5de938ece4d1830288b70b33,2021-09-27_16h08.16.633,forced_choiceRT_color,2021.2.3,Win32,60.06727535,,,,,,,,4,Ontime,long,k,1,2.059799999,0,0,0,3,1,,,,,
,1.16,,,,,,,,,j,red,5de938ece4d1830288b70b33,2021-09-27_16h08.16.633,forced_choiceRT_color,2021.2.3,Win32,60.06727535,,,,,,,,4,Slow,long,f,0,2.1317,0,1,1,2,1,,,,,
,0.75,,,,,,,,,f,blue,5de938ece4d1830288b70b33,2021-09-27_16h08.16.633,forced_choiceRT_color,2021.2.3,Win32,60.06727535,,,,,,,,4,Fast,long,d,0,1.574,0,2,2,1,1,,,,,
,0.51,,,,,,,,,f,blue,5de938ece4d1830288b70b33,2021-09-27_16h08.16.633,forced_choiceRT_color,2021.2.3,Win32,60.06727535,,,,,,,,4,Fast,long,f,1,1.6883,0,3,3,1,1,,,,,
,0.24,,,,,,,,,k,purple,5de938ece4d1830288b70b33,2021-09-27_16h08.16.633,forced_choiceRT_color,2021.2.3,Win32,60.06727535,,,,,,,,4,Ontime,long,k,1,2.0581,1,0,4,3,1,,,,,
,1.75,,,,,,,,,j,red,5de938ece4d1830288b70b33,2021-09-27_16h08.16.633,forced_choiceRT_color,2021.2.3,Win32,60.06727535,,,,,,,,4,Slow,long,j,1,2.5552,1,1,5,2,1,,,,,
,1.28,,,,,,,,,d,orange,5de938ece4d1830288b70b33,2021-09-27_16h08.16.633,forced_choiceRT_color,2021.2.3,Win32,60.06727535,,,,,,,,4,Ontime,long,d,1,2.0392,1,2,6,0,1,,,,,
,0.02,,,,,,,,,f,blue,5de938ece4d1830288b70b33,2021-09-27_16h08.16.633,forced_choiceRT_color,2021.2.3,Win32,60.06727535,,,,,,,,4,Fast,long,f,1,1.8489,1,3,7,1,1,,,,,
,0.68,,,,,,,,,k,purple,5de938ece4d1830288b70b33,2021-09-27_16h08.16.633,forced_choiceRT_color,2021.2.3,Win32,60.06727535,,,,,,,,4,Fast,long,k,1,1.7193,2,0,8,3,1,,,,,
,0.64,,,,,,,,,f,blue,5de938ece4d1830288b70b33,2021-09-27_16h08.16.633,forced_choiceRT_color,2021.2.3,Win32,60.06727535,,,,,,,,4,Ontime,long,f,1,2.0026,2,1,9,1,1,,,,,
,1.38,,,,,,,,,j,red,5de938ece4d1830288b70b33,2021-09-27_16h08.16.633,forced_choiceRT_color,2021.2.3,Win32,60.06727535,,,,,,,,4,Slow,long,j,1,2.5404,2,2,10,2,1,,,,,
,0.98,,,,,,,,,f,blue,5de938ece4d1830288b70b33,2021-09-27_16h08.16.633,forced_choiceRT_color,2021.2.3,Win32,60.06727535,,,,,,,,4,Slow,long,f,1,2.238900001,2,3,11,1,1,,,,,
,1.08,,,,,,,,,k,purple,5de938ece4d1830288b70b33,2021-09-27_16h08.16.633,forced_choiceRT_color,2021.2.3,Win32,60.06727535,,,,,,,,4,Ontime,long,k,1,1.9265,3,0,12,3,1,,,,,
,0.97,,,,,,,,,j,red,5de938ece4d1830288b70b33,2021-09-27_16h08.16.633,forced_choiceRT_color,2021.2.3,Win32,60.06727535,,,,,,,,4,Slow,long,j,1,2.2237,3,1,13,2,1,,,,,
,0.65,,,,,,,,,d,orange,5de938ece4d1830288b70b33,2021-09-27_16h08.16.633,forced_choiceRT_color,2021.2.3,Win32,60.06727535,,,,,,,,4,Fast,long,d,1,1.8036,3,2,14,0,1,,,,,
,1.04,,,,,,,,,f,blue,5de938ece4d1830288b70b33,2021-09-27_16h08.16.633,forced_choiceRT_color,2021.2.3,Win32,60.06727535,,,,,,,,4,Ontime,long,f,1,2.086,3,3,15,1,1,,,,,
,1.4,,,,,,,,,j,red,5de938ece4d1830288b70b33,2021-09-27_16h08.16.633,forced_choiceRT_color,2021.2.3,Win32,60.06727535,,,,,,,,4,Slow,long,j,1,2.1776,4,0,16,2,1,,,,,
,0.65,,,,,,,,,f,blue,5de938ece4d1830288b70b33,2021-09-27_16h08.16.633,forced_choiceRT_color,2021.2.3,Win32,60.06727535,,,,,,,,4,Fast,long,f,1,1.635799999,4,1,17,1,1,,,,,
,1.74,,,,,,,,,d,orange,5de938ece4d1830288b70b33,2021-09-27_16h08.16.633,forced_choiceRT_color,2021.2.3,Win32,60.06727535,,,,,,,,4,Slow,long,d,1,2.3015,4,2,18,0,1,,,,,
,1.75,,,,,,,,,k,purple,5de938ece4d1830288b70b33,2021-09-27_16h08.16.633,forced_choiceRT_color,2021.2.3,Win32,60.06727535,,,,,,,,4,Slow,long,j,0,2.335099999,4,3,19,3,1,,,,,
,1.37,,,,,,,,,k,purple,5de938ece4d1830288b70b33,2021-09-27_16h08.16.633,forced_choiceRT_color,2021.2.3,Win32,60.06727535,,,,,,,,4,Slow,long,k,1,2.206400001,5,0,20,3,1,,,,,
,0.25,,,,,,,,,d,orange,5de938ece4d1830288b70b33,2021-09-27_16h08.16.633,forced_choiceRT_color,2021.2.3,Win32,60.06727535,,,,,,,,4,Fast,long,d,1,1.8923,5,1,21,0,1,,,,,
,1.73,,,,,,,,,j,red,5de938ece4d1830288b70b33,2021-09-27_16h08.16.633,forced_choiceRT_color,2021.2.3,Win32,60.06727535,,,,,,,,4,Slow,long,j,1,2.4523,5,2,22,2,1,,,,,
,1.54,,,,,,,,,d,orange,5de938ece4d1830288b70b33,2021-09-27_16h08.16.633,forced_choiceRT_color,2021.2.3,Win32,60.06727535,,,,,,,,4,Slow,long,d,1,2.153,5,3,23,0,1,,,,,
,0.08,,,,,,,,,j,red,5de938ece4d1830288b70b33,2021-09-27_16h08.16.633,forced_choiceRT_color,2021.2.3,Win32,60.06727535,,,,,,,,4,Fast,long,j,1,1.815299999,6,0,24,2,1,,,,,
,0.76,,,,,,,,,f,blue,5de938ece4d1830288b70b33,2021-09-27_16h08.16.633,forced_choiceRT_color,2021.2.3,Win32,60.06727535,,,,,,,,4,Slow,long,f,1,2.2102,6,1,25,1,1,,,,,
,1.32,,,,,,,,,d,orange,5de938ece4d1830288b70b33,2021-09-27_16h08.16.633,forced_choiceRT_color,2021.2.3,Win32,60.06727535,,,,,,,,4,Fast,long,d,1,1.8807,6,2,26,0,1,,,,,
,1.89,,,,,,,,,k,purple,5de938ece4d1830288b70b33,2021-09-27_16h08.16.633,forced_choiceRT_color,2021.2.3,Win32,60.06727535,,,,,,,,4,Slow,long,k,1,2.6947,6,3,27,3,1,,,,,
,1.33,,,,,,,,,k,purple,5de938ece4d1830288b70b33,2021-09-27_16h08.16.633,forced_choiceRT_color,2021.2.3,Win32,60.06727535,,,,,,,,4,Slow,long,k,1,2.1774,7,0,28,3,1,,,,,
,0.93,,,,,,,,,j,red,5de938ece4d1830288b70b33,2021-09-27_16h08.16.633,forced_choiceRT_color,2021.2.3,Win32,60.06727535,,,,,,,,4,Ontime,long,j,1,1.9871,7,1,29,2,1,,,,,
,0.29,,,,,,,,,k,purple,5de938ece4d1830288b70b33,2021-09-27_16h08.16.633,forced_choiceRT_color,2021.2.3,Win32,60.06727535,,,,,,,,4,Ontime,long,k,1,2.084799999,7,2,30,3,1,,,,,
,0.99,,,,,,,,,f,blue,5de938ece4d1830288b70b33,2021-09-27_16h08.16.633,forced_choiceRT_color,2021.2.3,Win32,60.06727535,,,,,,,,4,Slow,long,f,1,2.3042,7,3,31,1,1,,,,,
,1.61,,,,,,,,,d,orange,5de938ece4d1830288b70b33,2021-09-27_16h08.16.633,forced_choiceRT_color,2021.2.3,Win32,60.06727535,,,,,,,,4,Slow,long,d,1,2.2529,8,0,32,0,1,,,,,
,0.34,,,,,,,,,k,purple,5de938ece4d1830288b70b33,2021-09-27_16h08.16.633,forced_choiceRT_color,2021.2.3,Win32,60.06727535,,,,,,,,4,Fast,long,k,1,1.8775,8,1,33,3,1,,,,,
,1.23,,,,,,,,,j,red,5de938ece4d1830288b70b33,2021-09-27_16h08.16.633,forced_choiceRT_color,2021.2.3,Win32,60.06727535,,,,,,,,4,Slow,long,j,1,2.255099999,8,2,34,2,1,,,,,
,0.65,,,,,,,,,j,red,5de938ece4d1830288b70b33,2021-09-27_16h08.16.633,forced_choiceRT_color,2021.2.3,Win32,60.06727535,,,,,,,,4,Fast,long,j,1,1.772599999,8,3,35,2,1,,,,,
,0.45,,,,,,,,,d,orange,5de938ece4d1830288b70b33,2021-09-27_16h08.16.633,forced_choiceRT_color,2021.2.3,Win32,60.06727535,,,,,,,,4,Fast,long,d,1,1.8021,9,0,36,0,1,,,,,
,1.61,,,,,,,,,f,blue,5de938ece4d1830288b70b33,2021-09-27_16h08.16.633,forced_choiceRT_color,2021.2.3,Win32,60.06727535,,,,,,,,4,Slow,long,f,1,2.3353,9,1,37,1,1,,,,,
,1.93,,,,,,,,,d,orange,5de938ece4d1830288b70b33,2021-09-27_16h08.16.633,forced_choiceRT_color,2021.2.3,Win32,60.06727535,,,,,,,,4,Slow,long,d,1,2.552,9,2,38,0,1,,,,,
,1.12,,,,,,,,,d,orange,5de938ece4d1830288b70b33,2021-09-27_16h08.16.633,forced_choiceRT_color,2021.2.3,Win32,60.06727535,,,,,,,,4,Fast,long,d,1,1.8012,9,3,39,0,1,,,,,
,,,,,,,,,,,,5de938ece4d1830288b70b33,2021-09-27_16h08.16.633,forced_choiceRT_color,2021.2.3,Win32,60.06727535,,,,,,,,,,,,,,,,,,,3,0,3,0,1
,0.11,,,,,,,,,d,orange,5de938ece4d1830288b70b33,2021-09-27_16h08.16.633,forced_choiceRT_color,2021.2.3,Win32,60.06727535,,,,,,,,5,Fast,long,d,1,1.552,0,0,0,0,1,,,,,
,1.89,,,,,,,,,j,red,5de938ece4d1830288b70b33,2021-09-27_16h08.16.633,forced_choiceRT_color,2021.2.3,Win32,60.06727535,,,,,,,,5,Slow,long,j,1,2.6527,0,1,1,2,1,,,,,
,1.01,,,,,,,,,f,blue,5de938ece4d1830288b70b33,2021-09-27_16h08.16.633,forced_choiceRT_color,2021.2.3,Win32,60.06727535,,,,,,,,5,Fast,long,j,0,1.736400001,0,2,2,1,1,,,,,
,0.66,,,,,,,,,f,blue,5de938ece4d1830288b70b33,2021-09-27_16h08.16.633,forced_choiceRT_color,2021.2.3,Win32,60.06727535,,,,,,,,5,Fast,long,f,1,1.7409,0,3,3,1,1,,,,,
,0.8,,,,,,,,,d,orange,5de938ece4d1830288b70b33,2021-09-27_16h08.16.633,forced_choiceRT_color,2021.2.3,Win32,60.06727535,,,,,,,,5,Fast,long,d,1,1.8742,1,0,4,0,1,,,,,
,1.12,,,,,,,,,k,purple,5de938ece4d1830288b70b33,2021-09-27_16h08.16.633,forced_choiceRT_color,2021.2.3,Win32,60.06727535,,,,,,,,5,Ontime,long,k,1,2.0212,1,1,5,3,1,,,,,
,1.31,,,,,,,,,f,blue,5de938ece4d1830288b70b33,2021-09-27_16h08.16.633,forced_choiceRT_color,2021.2.3,Win32,60.06727535,,,,,,,,5,Slow,long,k,0,2.2375,1,2,6,1,1,,,,,
,1.11,,,,,,,,,d,orange,5de938ece4d1830288b70b33,2021-09-27_16h08.16.633,forced_choiceRT_color,2021.2.3,Win32,60.06727535,,,,,,,,5,Ontime,long,d,1,2.0793,1,3,7,0,1,,,,,
,0.62,,,,,,,,,d,orange,5de938ece4d1830288b70b33,2021-09-27_16h08.16.633,forced_choiceRT_color,2021.2.3,Win32,60.06727535,,,,,,,,5,Fast,long,d,1,1.8235,2,0,8,0,1,,,,,
,1.14,,,,,,,,,k,purple,5de938ece4d1830288b70b33,2021-09-27_16h08.16.633,forced_choiceRT_color,2021.2.3,Win32,60.06727535,,,,,,,,5,Slow,long,k,1,2.236,2,1,9,3,1,,,,,
,0.33,,,,,,,,,j,red,5de938ece4d1830288b70b33,2021-09-27_16h08.16.633,forced_choiceRT_color,2021.2.3,Win32,60.06727535,,,,,,,,5,Ontime,long,j,1,2.0938,2,2,10,2,1,,,,,
,1.2,,,,,,,,,f,blue,5de938ece4d1830288b70b33,2021-09-27_16h08.16.633,forced_choiceRT_color,2021.2.3,Win32,60.06727535,,,,,,,,5,Ontime,long,f,1,2.051900001,2,3,11,1,1,,,,,
,1.13,,,,,,,,,f,blue,5de938ece4d1830288b70b33,2021-09-27_16h08.16.633,forced_choiceRT_color,2021.2.3,Win32,60.06727535,,,,,,,,5,Ontime,long,f,1,1.9196,3,0,12,1,1,,,,,
,1.43,,,,,,,,,j,red,5de938ece4d1830288b70b33,2021-09-27_16h08.16.633,forced_choiceRT_color,2021.2.3,Win32,60.06727535,,,,,,,,5,Slow,long,j,1,2.2355,3,1,13,2,1,,,,,
,0.88,,,,,,,,,j,red,5de938ece4d1830288b70b33,2021-09-27_16h08.16.633,forced_choiceRT_color,2021.2.3,Win32,60.06727535,,,,,,,,5,Ontime,long,j,1,1.936,3,2,14,2,1,,,,,
,1.7,,,,,,,,,j,red,5de938ece4d1830288b70b33,2021-09-27_16h08.16.633,forced_choiceRT_color,2021.2.3,Win32,60.06727535,,,,,,,,5,Slow,long,j,1,2.407400001,3,3,15,2,1,,,,,
,0.54,,,,,,,,,j,red,5de938ece4d1830288b70b33,2021-09-27_16h08.16.633,forced_choiceRT_color,2021.2.3,Win32,60.06727535,,,,,,,,5,Ontime,long,j,1,1.9699,4,0,16,2,1,,,,,
,0.97,,,,,,,,,j,red,5de938ece4d1830288b70b33,2021-09-27_16h08.16.633,forced_choiceRT_color,2021.2.3,Win32,60.06727535,,,,,,,,5,Fast,long,j,1,1.8409,4,1,17,2,1,,,,,
,0.48,,,,,,,,,f,blue,5de938ece4d1830288b70b33,2021-09-27_16h08.16.633,forced_choiceRT_color,2021.2.3,Win32,60.06727535,,,,,,,,5,Ontime,long,f,1,1.9688,4,2,18,1,1,,,,,
,1.16,,,,,,,,,k,purple,5de938ece4d1830288b70b33,2021-09-27_16h08.16.633,forced_choiceRT_color,2021.2.3,Win32,60.06727535,,,,,,,,5,Slow,long,k,1,2.2236,4,3,19,3,1,,,,,
,0.19,,,,,,,,,d,orange,5de938ece4d1830288b70b33,2021-09-27_16h08.16.633,forced_choiceRT_color,2021.2.3,Win32,60.06727535,,,,,,,,5,Ontime,long,d,1,2.025200001,5,0,20,0,1,,,,,
,0.49,,,,,,,,,d,orange,5de938ece4d1830288b70b33,2021-09-27_16h08.16.633,forced_choiceRT_color,2021.2.3,Win32,60.06727535,,,,,,,,5,Slow,long,d,1,2.1035,5,1,21,0,1,,,,,
,0.8,,,,,,,,,k,purple,5de938ece4d1830288b70b33,2021-09-27_16h08.16.633,forced_choiceRT_color,2021.2.3,Win32,60.06727535,,,,,,,,5,Slow,long,k,1,2.1973,5,2,22,3,1,,,,,
,0.77,,,,,,,,,j,red,5de938ece4d1830288b70b33,2021-09-27_16h08.16.633,forced_choiceRT_color,2021.2.3,Win32,60.06727535,,,,,,,,5,Slow,long,j,1,2.168299999,5,3,23,2,1,,,,,
,0.19,,,,,,,,,k,purple,5de938ece4d1830288b70b33,2021-09-27_16h08.16.633,forced_choiceRT_color,2021.2.3,Win32,60.06727535,,,,,,,,5,Ontime,long,k,1,1.9535,6,0,24,3,1,,,,,
,1.27,,,,,,,,,k,purple,5de938ece4d1830288b70b33,2021-09-27_16h08.16.633,forced_choiceRT_color,2021.2.3,Win32,60.06727535,,,,,,,,5,Slow,long,k,1,2.3464,6,1,25,3,1,,,,,
,0.04,,,,,,,,,d,orange,5de938ece4d1830288b70b33,2021-09-27_16h08.16.633,forced_choiceRT_color,2021.2.3,Win32,60.06727535,,,,,,,,5,Ontime,long,d,1,2.074,6,2,26,0,1,,,,,
,0.13,,,,,,,,,j,red,5de938ece4d1830288b70b33,2021-09-27_16h08.16.633,forced_choiceRT_color,2021.2.3,Win32,60.06727535,,,,,,,,5,Ontime,long,j,1,2.0805,6,3,27,2,1,,,,,
,1.58,,,,,,,,,k,purple,5de938ece4d1830288b70b33,2021-09-27_16h08.16.633,forced_choiceRT_color,2021.2.3,Win32,60.06727535,,,,,,,,5,Slow,long,k,1,2.319400001,7,0,28,3,1,,,,,
,1.82,,,,,,,,,f,blue,5de938ece4d1830288b70b33,2021-09-27_16h08.16.633,forced_choiceRT_color,2021.2.3,Win32,60.06727535,,,,,,,,5,Slow,long,j,0,2.6642,7,1,29,1,1,,,,,
,1.31,,,,,,,,,f,blue,5de938ece4d1830288b70b33,2021-09-27_16h08.16.633,forced_choiceRT_color,2021.2.3,Win32,60.06727535,,,,,,,,5,Slow,long,d,0,2.1364,7,2,30,1,1,,,,,
,0.94,,,,,,,,,d,orange,5de938ece4d1830288b70b33,2021-09-27_16h08.16.633,forced_choiceRT_color,2021.2.3,Win32,60.06727535,,,,,,,,5,Fast,long,d,1,1.8047,7,3,31,0,1,,,,,
,0.28,,,,,,,,,f,blue,5de938ece4d1830288b70b33,2021-09-27_16h08.16.633,forced_choiceRT_color,2021.2.3,Win32,60.06727535,,,,,,,,5,Fast,long,f,1,1.785599999,8,0,32,1,1,,,,,
,0.4,,,,,,,,,k,purple,5de938ece4d1830288b70b33,2021-09-27_16h08.16.633,forced_choiceRT_color,2021.2.3,Win32,60.06727535,,,,,,,,5,Ontime,long,k,1,1.9703,8,1,33,3,1,,,,,
,1.88,,,,,,,,,d,orange,5de938ece4d1830288b70b33,2021-09-27_16h08.16.633,forced_choiceRT_color,2021.2.3,Win32,60.06727535,,,,,,,,5,Slow,long,d,1,2.2854,8,2,34,0,1,,,,,
,0.82,,,,,,,,,f,blue,5de938ece4d1830288b70b33,2021-09-27_16h08.16.633,forced_choiceRT_color,2021.2.3,Win32,60.06727535,,,,,,,,5,Fast,long,f,1,1.778599999,8,3,35,1,1,,,,,
,0.89,,,,,,,,,d,orange,5de938ece4d1830288b70b33,2021-09-27_16h08.16.633,forced_choiceRT_color,2021.2.3,Win32,60.06727535,,,,,,,,5,Ontime,long,d,1,1.9945,9,0,36,0,1,,,,,
,0.22,,,,,,,,,k,purple,5de938ece4d1830288b70b33,2021-09-27_16h08.16.633,forced_choiceRT_color,2021.2.3,Win32,60.06727535,,,,,,,,5,Fast,long,k,1,1.8475,9,1,37,3,1,,,,,
,0.44,,,,,,,,,j,red,5de938ece4d1830288b70b33,2021-09-27_16h08.16.633,forced_choiceRT_color,2021.2.3,Win32,60.06727535,,,,,,,,5,Fast,long,j,1,1.8866,9,2,38,2,1,,,,,
,1.31,,,,,,,,,k,purple,5de938ece4d1830288b70b33,2021-09-27_16h08.16.633,forced_choiceRT_color,2021.2.3,Win32,60.06727535,,,,,,,,5,Slow,long,k,1,2.178,9,3,39,3,1,,,,,
,,,,,,,,,,,,5de938ece4d1830288b70b33,2021-09-27_16h08.16.633,forced_choiceRT_color,2021.2.3,Win32,60.06727535,,,,,,,,,,,,,,,,,,,4,0,4,0,1
,0.82,,,,,,,,,f,blue,5de938ece4d1830288b70b33,2021-09-27_16h08.16.633,forced_choiceRT_color,2021.2.3,Win32,60.06727535,,,,,,,,6,Slow,long,f,1,2.1803,0,0,0,1,1,,,,,
,0.78,,,,,,,,,j,red,5de938ece4d1830288b70b33,2021-09-27_16h08.16.633,forced_choiceRT_color,2021.2.3,Win32,60.06727535,,,,,,,,6,Slow,long,f,0,2.9859,0,1,1,2,1,,,,,
,1.62,,,,,,,,,j,red,5de938ece4d1830288b70b33,2021-09-27_16h08.16.633,forced_choiceRT_color,2021.2.3,Win32,60.06727535,,,,,,,,6,Slow,long,j,1,2.367,0,2,2,2,1,,,,,
,0.3,,,,,,,,,d,orange,5de938ece4d1830288b70b33,2021-09-27_16h08.16.633,forced_choiceRT_color,2021.2.3,Win32,60.06727535,,,,,,,,6,Fast,long,d,1,1.326200001,0,3,3,0,1,,,,,
,1.64,,,,,,,,,k,purple,5de938ece4d1830288b70b33,2021-09-27_16h08.16.633,forced_choiceRT_color,2021.2.3,Win32,60.06727535,,,,,,,,6,Slow,long,j,0,2.4708,1,0,4,3,1,,,,,
,1.53,,,,,,,,,k,purple,5de938ece4d1830288b70b33,2021-09-27_16h08.16.633,forced_choiceRT_color,2021.2.3,Win32,60.06727535,,,,,,,,6,Ontime,long,k,1,2.0116,1,1,5,3,1,,,,,
,0.68,,,,,,,,,f,blue,5de938ece4d1830288b70b33,2021-09-27_16h08.16.633,forced_choiceRT_color,2021.2.3,Win32,60.06727535,,,,,,,,6,Ontime,long,f,1,2.045599999,1,2,6,1,1,,,,,
,1.09,,,,,,,,,j,red,5de938ece4d1830288b70b33,2021-09-27_16h08.16.633,forced_choiceRT_color,2021.2.3,Win32,60.06727535,,,,,,,,6,Ontime,long,j,1,2.0616,1,3,7,2,1,,,,,
,0.78,,,,,,,,,k,purple,5de938ece4d1830288b70b33,2021-09-27_16h08.16.633,forced_choiceRT_color,2021.2.3,Win32,60.06727535,,,,,,,,6,Ontime,long,k,1,1.997,2,0,8,3,1,,,,,
,1.75,,,,,,,,,k,purple,5de938ece4d1830288b70b33,2021-09-27_16h08.16.633,forced_choiceRT_color,2021.2.3,Win32,60.06727535,,,,,,,,6,Slow,long,j,0,2.287,2,1,9,3,1,,,,,
,0.68,,,,,,,,,k,purple,5de938ece4d1830288b70b33,2021-09-27_16h08.16.633,forced_choiceRT_color,2021.2.3,Win32,60.06727535,,,,,,,,6,Ontime,long,k,1,1.9069,2,2,10,3,1,,,,,
,1.75,,,,,,,,,k,purple,5de938ece4d1830288b70b33,2021-09-27_16h08.16.633,forced_choiceRT_color,2021.2.3,Win32,60.06727535,,,,,,,,6,Slow,long,k,1,2.118900001,2,3,11,3,1,,,,,
,0.64,,,,,,,,,f,blue,5de938ece4d1830288b70b33,2021-09-27_16h08.16.633,forced_choiceRT_color,2021.2.3,Win32,60.06727535,,,,,,,,6,Ontime,long,d,0,2.088,3,0,12,1,1,,,,,
,0.06,,,,,,,,,f,blue,5de938ece4d1830288b70b33,2021-09-27_16h08.16.633,forced_choiceRT_color,2021.2.3,Win32,60.06727535,,,,,,,,6,Fast,long,f,1,1.7594,3,1,13,1,1,,,,,
,0.26,,,,,,,,,j,red,5de938ece4d1830288b70b33,2021-09-27_16h08.16.633,forced_choiceRT_color,2021.2.3,Win32,60.06727535,,,,,,,,6,Fast,long,j,1,1.7521,3,2,14,2,1,,,,,
,1.85,,,,,,,,,d,orange,5de938ece4d1830288b70b33,2021-09-27_16h08.16.633,forced_choiceRT_color,2021.2.3,Win32,60.06727535,,,,,,,,6,Slow,long,d,1,2.4371,3,3,15,0,1,,,,,
,0.44,,,,,,,,,k,purple,5de938ece4d1830288b70b33,2021-09-27_16h08.16.633,forced_choiceRT_color,2021.2.3,Win32,60.06727535,,,,,,,,6,Slow,long,k,1,2.1358,4,0,16,3,1,,,,,
,0.99,,,,,,,,,j,red,5de938ece4d1830288b70b33,2021-09-27_16h08.16.633,forced_choiceRT_color,2021.2.3,Win32,60.06727535,,,,,,,,6,Slow,long,k,0,2.3351,4,1,17,2,1,,,,,
,1.71,,,,,,,,,j,red,5de938ece4d1830288b70b33,2021-09-27_16h08.16.633,forced_choiceRT_color,2021.2.3,Win32,60.06727535,,,,,,,,6,Slow,long,j,1,2.2346,4,2,18,2,1,,,,,
,1.88,,,,,,,,,d,orange,5de938ece4d1830288b70b33,2021-09-27_16h08.16.633,forced_choiceRT_color,2021.2.3,Win32,60.06727535,,,,,,,,6,Slow,long,d,1,2.3341,4,3,19,0,1,,,,,
,1.23,,,,,,,,,k,purple,5de938ece4d1830288b70b33,2021-09-27_16h08.16.633,forced_choiceRT_color,2021.2.3,Win32,60.06727535,,,,,,,,6,Slow,long,k,1,2.2382,5,0,20,3,1,,,,,
,1.04,,,,,,,,,j,red,5de938ece4d1830288b70b33,2021-09-27_16h08.16.633,forced_choiceRT_color,2021.2.3,Win32,60.06727535,,,,,,,,6,Ontime,long,d,0,1.9557,5,1,21,2,1,,,,,
,1.99,,,,,,,,,j,red,5de938ece4d1830288b70b33,2021-09-27_16h08.16.633,forced_choiceRT_color,2021.2.3,Win32,60.06727535,,,,,,,,6,Slow,long,j,1,2.3756,5,2,22,2,1,,,,,
,0.24,,,,,,,,,d,orange,5de938ece4d1830288b70b33,2021-09-27_16h08.16.633,forced_choiceRT_color,2021.2.3,Win32,60.06727535,,,,,,,,6,Fast,long,d,1,1.8351,5,3,23,0,1,,,,,
,1.7,,,,,,,,,k,purple,5de938ece4d1830288b70b33,2021-09-27_16h08.16.633,forced_choiceRT_color,2021.2.3,Win32,60.06727535,,,,,,,,6,Slow,long,j,0,2.501799999,6,0,24,3,1,,,,,
,1.17,,,,,,,,,d,orange,5de938ece4d1830288b70b33,2021-09-27_16h08.16.633,forced_choiceRT_color,2021.2.3,Win32,60.06727535,,,,,,,,6,Slow,long,d,1,2.104200001,6,1,25,0,1,,,,,
,1.72,,,,,,,,,d,orange,5de938ece4d1830288b70b33,2021-09-27_16h08.16.633,forced_choiceRT_color,2021.2.3,Win32,60.06727535,,,,,,,,6,Slow,long,d,1,2.2846,6,2,26,0,1,,,,,
,1.99,,,,,,,,,j,red,5de938ece4d1830288b70b33,2021-09-27_16h08.16.633,forced_choiceRT_color,2021.2.3,Win32,60.06727535,,,,,,,,6,Slow,long,k,0,2.905299999,6,3,27,2,1,,,,,
,0.61,,,,,,,,,j,red,5de938ece4d1830288b70b33,2021-09-27_16h08.16.633,forced_choiceRT_color,2021.2.3,Win32,60.06727535,,,,,,,,6,Ontime,long,f,0,1.9958,7,0,28,2,1,,,,,
,0.94,,,,,,,,,d,orange,5de938ece4d1830288b70b33,2021-09-27_16h08.16.633,forced_choiceRT_color,2021.2.3,Win32,60.06727535,,,,,,,,6,Fast,long,j,0,1.794200001,7,1,29,0,1,,,,,
,0.13,,,,,,,,,f,blue,5de938ece4d1830288b70b33,2021-09-27_16h08.16.633,forced_choiceRT_color,2021.2.3,Win32,60.06727535,,,,,,,,6,Fast,long,f,1,1.7813,7,2,30,1,1,,,,,
,0.14,,,,,,,,,f,blue,5de938ece4d1830288b70b33,2021-09-27_16h08.16.633,forced_choiceRT_color,2021.2.3,Win32,60.06727535,,,,,,,,6,Ontime,long,f,1,2.0369,7,3,31,1,1,,,,,
,1.42,,,,,,,,,k,purple,5de938ece4d1830288b70b33,2021-09-27_16h08.16.633,forced_choiceRT_color,2021.2.3,Win32,60.06727535,,,,,,,,6,Slow,long,k,1,2.3185,8,0,32,3,1,,,,,
,0.21,,,,,,,,,d,orange,5de938ece4d1830288b70b33,2021-09-27_16h08.16.633,forced_choiceRT_color,2021.2.3,Win32,60.06727535,,,,,,,,6,Ontime,long,d,1,2.011799999,8,1,33,0,1,,,,,
,0.61,,,,,,,,,f,blue,5de938ece4d1830288b70b33,2021-09-27_16h08.16.633,forced_choiceRT_color,2021.2.3,Win32,60.06727535,,,,,,,,6,Slow,long,f,1,2.154900001,8,2,34,1,1,,,,,
,1.61,,,,,,,,,f,blue,5de938ece4d1830288b70b33,2021-09-27_16h08.16.633,forced_choiceRT_color,2021.2.3,Win32,60.06727535,,,,,,,,6,Ontime,long,f,1,1.9543,8,3,35,1,1,,,,,
,0.02,,,,,,,,,f,blue,5de938ece4d1830288b70b33,2021-09-27_16h08.16.633,forced_choiceRT_color,2021.2.3,Win32,60.06727535,,,,,,,,6,Ontime,long,f,1,2.0055,9,0,36,1,1,,,,,
,1.01,,,,,,,,,f,blue,5de938ece4d1830288b70b33,2021-09-27_16h08.16.633,forced_choiceRT_color,2021.2.3,Win32,60.06727535,,,,,,,,6,Ontime,long,f,1,2.004599999,9,1,37,1,1,,,,,
,0.73,,,,,,,,,d,orange,5de938ece4d1830288b70b33,2021-09-27_16h08.16.633,forced_choiceRT_color,2021.2.3,Win32,60.06727535,,,,,,,,6,Ontime,long,d,1,1.9355,9,2,38,0,1,,,,,
,1.2,,,,,,,,,d,orange,5de938ece4d1830288b70b33,2021-09-27_16h08.16.633,forced_choiceRT_color,2021.2.3,Win32,60.06727535,,,,,,,,6,Ontime,long,d,1,1.954,9,3,39,0,1,,,,,
,,,,,,,,,,,,5de938ece4d1830288b70b33,2021-09-27_16h08.16.633,forced_choiceRT_color,2021.2.3,Win32,60.06727535,,,,,,,,,,,,,,,,,,,5,0,5,0,1
,0.93,,,,,,,,,f,blue,5de938ece4d1830288b70b33,2021-09-27_16h08.16.633,forced_choiceRT_color,2021.2.3,Win32,60.06727535,,,,,,,,7,Ontime,long,f,1,2.0635,0,0,0,1,1,,,,,
,0.84,,,,,,,,,k,purple,5de938ece4d1830288b70b33,2021-09-27_16h08.16.633,forced_choiceRT_color,2021.2.3,Win32,60.06727535,,,,,,,,7,Ontime,long,k,1,1.945400001,0,1,1,3,1,,,,,
,0.19,,,,,,,,,f,blue,5de938ece4d1830288b70b33,2021-09-27_16h08.16.633,forced_choiceRT_color,2021.2.3,Win32,60.06727535,,,,,,,,7,Fast,long,f,1,1.7938,0,2,2,1,1,,,,,
,0.62,,,,,,,,,f,blue,5de938ece4d1830288b70b33,2021-09-27_16h08.16.633,forced_choiceRT_color,2021.2.3,Win32,60.06727535,,,,,,,,7,Ontime,long,f,1,2.0305,0,3,3,1,1,,,,,
,0.04,,,,,,,,,d,orange,5de938ece4d1830288b70b33,2021-09-27_16h08.16.633,forced_choiceRT_color,2021.2.3,Win32,60.06727535,,,,,,,,7,Slow,long,d,1,2.1177,1,0,4,0,1,,,,,
,1,,,,,,,,,d,orange,5de938ece4d1830288b70b33,2021-09-27_16h08.16.633,forced_choiceRT_color,2021.2.3,Win32,60.06727535,,,,,,,,7,Fast,long,d,1,1.884400001,1,1,5,0,1,,,,,
,1.9,,,,,,,,,j,red,5de938ece4d1830288b70b33,2021-09-27_16h08.16.633,forced_choiceRT_color,2021.2.3,Win32,60.06727535,,,,,,,,7,Slow,long,k,0,2.3042,1,2,6,2,1,,,,,
,0.61,,,,,,,,,k,purple,5de938ece4d1830288b70b33,2021-09-27_16h08.16.633,forced_choiceRT_color,2021.2.3,Win32,60.06727535,,,,,,,,7,Ontime,long,k,1,2.0691,1,3,7,3,1,,,,,
,0.82,,,,,,,,,j,red,5de938ece4d1830288b70b33,2021-09-27_16h08.16.633,forced_choiceRT_color,2021.2.3,Win32,60.06727535,,,,,,,,7,Slow,long,j,1,2.218,2,0,8,2,1,,,,,
,0.43,,,,,,,,,j,red,5de938ece4d1830288b70b33,2021-09-27_16h08.16.633,forced_choiceRT_color,2021.2.3,Win32,60.06727535,,,,,,,,7,Fast,long,j,1,1.7375,2,1,9,2,1,,,,,
,0.02,,,,,,,,,k,purple,5de938ece4d1830288b70b33,2021-09-27_16h08.16.633,forced_choiceRT_color,2021.2.3,Win32,60.06727535,,,,,,,,7,Fast,long,k,1,1.1555,2,2,10,3,1,,,,,
,1.33,,,,,,,,,d,orange,5de938ece4d1830288b70b33,2021-09-27_16h08.16.633,forced_choiceRT_color,2021.2.3,Win32,60.06727535,,,,,,,,7,Ontime,long,d,1,1.988,2,3,11,0,1,,,,,
,0.27,,,,,,,,,d,orange,5de938ece4d1830288b70b33,2021-09-27_16h08.16.633,forced_choiceRT_color,2021.2.3,Win32,60.06727535,,,,,,,,7,Fast,long,d,1,1.7196,3,0,12,0,1,,,,,
,0.91,,,,,,,,,j,red,5de938ece4d1830288b70b33,2021-09-27_16h08.16.633,forced_choiceRT_color,2021.2.3,Win32,60.06727535,,,,,,,,7,Ontime,long,f,0,1.952,3,1,13,2,1,,,,,
,0.36,,,,,,,,,f,blue,5de938ece4d1830288b70b33,2021-09-27_16h08.16.633,forced_choiceRT_color,2021.2.3,Win32,60.06727535,,,,,,,,7,Fast,long,k,0,1.719700001,3,2,14,1,1,,,,,
,1,,,,,,,,,f,blue,5de938ece4d1830288b70b33,2021-09-27_16h08.16.633,forced_choiceRT_color,2021.2.3,Win32,60.06727535,,,,,,,,7,Fast,long,f,1,1.891599999,3,3,15,1,1,,,,,
,0.9,,,,,,,,,k,purple,5de938ece4d1830288b70b33,2021-09-27_16h08.16.633,forced_choiceRT_color,2021.2.3,Win32,60.06727535,,,,,,,,7,Slow,long,k,1,2.1854,4,0,16,3,1,,,,,
,0.52,,,,,,,,,j,red,5de938ece4d1830288b70b33,2021-09-27_16h08.16.633,forced_choiceRT_color,2021.2.3,Win32,60.06727535,,,,,,,,7,Ontime,long,j,1,2.071099999,4,1,17,2,1,,,,,
,0.25,,,,,,,,,j,red,5de938ece4d1830288b70b33,2021-09-27_16h08.16.633,forced_choiceRT_color,2021.2.3,Win32,60.06727535,,,,,,,,7,Fast,long,j,1,1.8955,4,2,18,2,1,,,,,
,0.32,,,,,,,,,j,red,5de938ece4d1830288b70b33,2021-09-27_16h08.16.633,forced_choiceRT_color,2021.2.3,Win32,60.06727535,,,,,,,,7,Fast,long,j,1,1.8429,4,3,19,2,1,,,,,
,0.71,,,,,,,,,f,blue,5de938ece4d1830288b70b33,2021-09-27_16h08.16.633,forced_choiceRT_color,2021.2.3,Win32,60.06727535,,,,,,,,7,Fast,long,f,1,1.8308,5,0,20,1,1,,,,,
,0.52,,,,,,,,,d,orange,5de938ece4d1830288b70b33,2021-09-27_16h08.16.633,forced_choiceRT_color,2021.2.3,Win32,60.06727535,,,,,,,,7,Ontime,long,d,1,2.0157,5,1,21,0,1,,,,,
,1.25,,,,,,,,,j,red,5de938ece4d1830288b70b33,2021-09-27_16h08.16.633,forced_choiceRT_color,2021.2.3,Win32,60.06727535,,,,,,,,7,Slow,long,j,1,2.3704,5,2,22,2,1,,,,,
,0.79,,,,,,,,,f,blue,5de938ece4d1830288b70b33,2021-09-27_16h08.16.633,forced_choiceRT_color,2021.2.3,Win32,60.06727535,,,,,,,,7,Fast,long,f,1,1.8027,5,3,23,1,1,,,,,
,0.44,,,,,,,,,j,red,5de938ece4d1830288b70b33,2021-09-27_16h08.16.633,forced_choiceRT_color,2021.2.3,Win32,60.06727535,,,,,,,,7,Fast,long,f,0,1.7564,6,0,24,2,1,,,,,
,0.3,,,,,,,,,k,purple,5de938ece4d1830288b70b33,2021-09-27_16h08.16.633,forced_choiceRT_color,2021.2.3,Win32,60.06727535,,,,,,,,7,Fast,long,k,1,1.885599999,6,1,25,3,1,,,,,
,0.52,,,,,,,,,d,orange,5de938ece4d1830288b70b33,2021-09-27_16h08.16.633,forced_choiceRT_color,2021.2.3,Win32,60.06727535,,,,,,,,7,Ontime,long,d,1,1.9725,6,2,26,0,1,,,,,
,1.98,,,,,,,,,d,orange,5de938ece4d1830288b70b33,2021-09-27_16h08.16.633,forced_choiceRT_color,2021.2.3,Win32,60.06727535,,,,,,,,7,Slow,long,d,1,2.5419,6,3,27,0,1,,,,,
,0.03,,,,,,,,,d,orange,5de938ece4d1830288b70b33,2021-09-27_16h08.16.633,forced_choiceRT_color,2021.2.3,Win32,60.06727535,,,,,,,,7,Fast,long,d,1,1.353599999,7,0,28,0,1,,,,,
,0.18,,,,,,,,,f,blue,5de938ece4d1830288b70b33,2021-09-27_16h08.16.633,forced_choiceRT_color,2021.2.3,Win32,60.06727535,,,,,,,,7,Fast,long,k,0,1.110900001,7,1,29,1,1,,,,,
,1.38,,,,,,,,,f,blue,5de938ece4d1830288b70b33,2021-09-27_16h08.16.633,forced_choiceRT_color,2021.2.3,Win32,60.06727535,,,,,,,,7,Slow,long,j,0,2.8265,7,2,30,1,1,,,,,
,1.31,,,,,,,,,k,purple,5de938ece4d1830288b70b33,2021-09-27_16h08.16.633,forced_choiceRT_color,2021.2.3,Win32,60.06727535,,,,,,,,7,Slow,long,d,0,2.6832,7,3,31,3,1,,,,,
,0.06,,,,,,,,,j,red,5de938ece4d1830288b70b33,2021-09-27_16h08.16.633,forced_choiceRT_color,2021.2.3,Win32,60.06727535,,,,,,,,7,Fast,long,f,0,1.182799999,8,0,32,2,1,,,,,
,0.81,,,,,,,,,k,purple,5de938ece4d1830288b70b33,2021-09-27_16h08.16.633,forced_choiceRT_color,2021.2.3,Win32,60.06727535,,,,,,,,7,Ontime,long,k,1,1.9325,8,1,33,3,1,,,,,
,0.17,,,,,,,,,d,orange,5de938ece4d1830288b70b33,2021-09-27_16h08.16.633,forced_choiceRT_color,2021.2.3,Win32,60.06727535,,,,,,,,7,Ontime,long,d,1,2.0015,8,2,34,0,1,,,,,
,1.51,,,,,,,,,k,purple,5de938ece4d1830288b70b33,2021-09-27_16h08.16.633,forced_choiceRT_color,2021.2.3,Win32,60.06727535,,,,,,,,7,Slow,long,k,1,2.2815,8,3,35,3,1,,,,,
,0.28,,,,,,,,,d,orange,5de938ece4d1830288b70b33,2021-09-27_16h08.16.633,forced_choiceRT_color,2021.2.3,Win32,60.06727535,,,,,,,,7,Ontime,long,d,1,1.918,9,0,36,0,1,,,,,
,0.83,,,,,,,,,k,purple,5de938ece4d1830288b70b33,2021-09-27_16h08.16.633,forced_choiceRT_color,2021.2.3,Win32,60.06727535,,,,,,,,7,Slow,long,k,1,2.265599999,9,1,37,3,1,,,,,
,1.36,,,,,,,,,f,blue,5de938ece4d1830288b70b33,2021-09-27_16h08.16.633,forced_choiceRT_color,2021.2.3,Win32,60.06727535,,,,,,,,7,Fast,long,k,0,0.4635,9,2,38,1,1,,,,,
,0.39,,,,,,,,,k,purple,5de938ece4d1830288b70b33,2021-09-27_16h08.16.633,forced_choiceRT_color,2021.2.3,Win32,60.06727535,,,,,,,,7,Ontime,long,k,1,2.0947,9,3,39,3,1,,,,,
,,,,,,,,,,,,5de938ece4d1830288b70b33,2021-09-27_16h08.16.633,forced_choiceRT_color,2021.2.3,Win32,60.06727535,,,,,,,,,,,,,,,,,,,6,0,6,0,1
,0.07,,,,,,,,,f,blue,5de938ece4d1830288b70b33,2021-09-27_16h08.16.633,forced_choiceRT_color,2021.2.3,Win32,60.06727535,,,,,,,,8,Ontime,long,f,1,2.011900001,0,0,0,1,1,,,,,
,1.27,,,,,,,,,j,red,5de938ece4d1830288b70b33,2021-09-27_16h08.16.633,forced_choiceRT_color,2021.2.3,Win32,60.06727535,,,,,,,,8,Ontime,long,j,1,2.0911,0,1,1,2,1,,,,,
,1.12,,,,,,,,,d,orange,5de938ece4d1830288b70b33,2021-09-27_16h08.16.633,forced_choiceRT_color,2021.2.3,Win32,60.06727535,,,,,,,,8,Ontime,long,d,1,1.9128,0,2,2,0,1,,,,,
,1.08,,,,,,,,,j,red,5de938ece4d1830288b70b33,2021-09-27_16h08.16.633,forced_choiceRT_color,2021.2.3,Win32,60.06727535,,,,,,,,8,Slow,long,j,1,2.2844,0,3,3,2,1,,,,,
,1.74,,,,,,,,,d,orange,5de938ece4d1830288b70b33,2021-09-27_16h08.16.633,forced_choiceRT_color,2021.2.3,Win32,60.06727535,,,,,,,,8,Slow,long,d,1,2.3382,1,0,4,0,1,,,,,
,0.22,,,,,,,,,k,purple,5de938ece4d1830288b70b33,2021-09-27_16h08.16.633,forced_choiceRT_color,2021.2.3,Win32,60.06727535,,,,,,,,8,Fast,long,j,0,1.4518,1,1,5,3,1,,,,,
,1.86,,,,,,,,,j,red,5de938ece4d1830288b70b33,2021-09-27_16h08.16.633,forced_choiceRT_color,2021.2.3,Win32,60.06727535,,,,,,,,8,Slow,long,k,0,2.9201,1,2,6,2,1,,,,,
,0.92,,,,,,,,,j,red,5de938ece4d1830288b70b33,2021-09-27_16h08.16.633,forced_choiceRT_color,2021.2.3,Win32,60.06727535,,,,,,,,8,Ontime,long,f,0,1.9543,1,3,7,2,1,,,,,
,0.97,,,,,,,,,d,orange,5de938ece4d1830288b70b33,2021-09-27_16h08.16.633,forced_choiceRT_color,2021.2.3,Win32,60.06727535,,,,,,,,8,Fast,long,d,1,1.8516,2,0,8,0,1,,,,,
,0.63,,,,,,,,,k,purple,5de938ece4d1830288b70b33,2021-09-27_16h08.16.633,forced_choiceRT_color,2021.2.3,Win32,60.06727535,,,,,,,,8,Fast,long,k,1,1.8248,2,1,9,3,1,,,,,
,0.25,,,,,,,,,k,purple,5de938ece4d1830288b70b33,2021-09-27_16h08.16.633,forced_choiceRT_color,2021.2.3,Win32,60.06727535,,,,,,,,8,Fast,long,k,1,1.855900001,2,2,10,3,1,,,,,
,1.61,,,,,,,,,f,blue,5de938ece4d1830288b70b33,2021-09-27_16h08.16.633,forced_choiceRT_color,2021.2.3,Win32,60.06727535,,,,,,,,8,Slow,long,f,1,2.3893,2,3,11,1,1,,,,,
,1.73,,,,,,,,,k,purple,5de938ece4d1830288b70b33,2021-09-27_16h08.16.633,forced_choiceRT_color,2021.2.3,Win32,60.06727535,,,,,,,,8,Slow,long,k,1,2.9701,3,0,12,3,1,,,,,
,0.02,,,,,,,,,j,red,5de938ece4d1830288b70b33,2021-09-27_16h08.16.633,forced_choiceRT_color,2021.2.3,Win32,60.06727535,,,,,,,,8,Fast,long,j,1,1.858599999,3,1,13,2,1,,,,,
,1.92,,,,,,,,,f,blue,5de938ece4d1830288b70b33,2021-09-27_16h08.16.633,forced_choiceRT_color,2021.2.3,Win32,60.06727535,,,,,,,,8,Slow,long,d,0,3.452299999,3,2,14,1,1,,,,,
,0.24,,,,,,,,,k,purple,5de938ece4d1830288b70b33,2021-09-27_16h08.16.633,forced_choiceRT_color,2021.2.3,Win32,60.06727535,,,,,,,,8,Ontime,long,k,1,2.01,3,3,15,3,1,,,,,
,0.81,,,,,,,,,k,purple,5de938ece4d1830288b70b33,2021-09-27_16h08.16.633,forced_choiceRT_color,2021.2.3,Win32,60.06727535,,,,,,,,8,Ontime,long,k,1,2.0407,4,0,16,3,1,,,,,
,1.66,,,,,,,,,d,orange,5de938ece4d1830288b70b33,2021-09-27_16h08.16.633,forced_choiceRT_color,2021.2.3,Win32,60.06727535,,,,,,,,8,Slow,long,d,1,2.2539,4,1,17,0,1,,,,,
,0.19,,,,,,,,,k,purple,5de938ece4d1830288b70b33,2021-09-27_16h08.16.633,forced_choiceRT_color,2021.2.3,Win32,60.06727535,,,,,,,,8,Ontime,long,k,1,2.0268,4,2,18,3,1,,,,,
,0.83,,,,,,,,,k,purple,5de938ece4d1830288b70b33,2021-09-27_16h08.16.633,forced_choiceRT_color,2021.2.3,Win32,60.06727535,,,,,,,,8,Ontime,long,k,1,1.9035,4,3,19,3,1,,,,,
,1.89,,,,,,,,,d,orange,5de938ece4d1830288b70b33,2021-09-27_16h08.16.633,forced_choiceRT_color,2021.2.3,Win32,60.06727535,,,,,,,,8,Slow,long,d,1,2.4356,5,0,20,0,1,,,,,
,1.81,,,,,,,,,d,orange,5de938ece4d1830288b70b33,2021-09-27_16h08.16.633,forced_choiceRT_color,2021.2.3,Win32,60.06727535,,,,,,,,8,Slow,long,d,1,2.1591,5,1,21,0,1,,,,,
,1.76,,,,,,,,,j,red,5de938ece4d1830288b70b33,2021-09-27_16h08.16.633,forced_choiceRT_color,2021.2.3,Win32,60.06727535,,,,,,,,8,Slow,long,f,0,2.5233,5,2,22,2,1,,,,,
,1.44,,,,,,,,,f,blue,5de938ece4d1830288b70b33,2021-09-27_16h08.16.633,forced_choiceRT_color,2021.2.3,Win32,60.06727535,,,,,,,,8,Ontime,long,f,1,2.064400001,5,3,23,1,1,,,,,
,0.48,,,,,,,,,j,red,5de938ece4d1830288b70b33,2021-09-27_16h08.16.633,forced_choiceRT_color,2021.2.3,Win32,60.06727535,,,,,,,,8,Ontime,long,f,0,1.9025,6,0,24,2,1,,,,,
,1.3,,,,,,,,,k,purple,5de938ece4d1830288b70b33,2021-09-27_16h08.16.633,forced_choiceRT_color,2021.2.3,Win32,60.06727535,,,,,,,,8,Slow,long,k,1,2.3546,6,1,25,3,1,,,,,
,1.08,,,,,,,,,d,orange,5de938ece4d1830288b70b33,2021-09-27_16h08.16.633,forced_choiceRT_color,2021.2.3,Win32,60.06727535,,,,,,,,8,Ontime,long,d,1,2.04,6,2,26,0,1,,,,,
,0.23,,,,,,,,,f,blue,5de938ece4d1830288b70b33,2021-09-27_16h08.16.633,forced_choiceRT_color,2021.2.3,Win32,60.06727535,,,,,,,,8,Fast,long,f,1,1.8044,6,3,27,1,1,,,,,
,0.49,,,,,,,,,j,red,5de938ece4d1830288b70b33,2021-09-27_16h08.16.633,forced_choiceRT_color,2021.2.3,Win32,60.06727535,,,,,,,,8,Ontime,long,j,1,1.9037,7,0,28,2,1,,,,,
,0.08,,,,,,,,,f,blue,5de938ece4d1830288b70b33,2021-09-27_16h08.16.633,forced_choiceRT_color,2021.2.3,Win32,60.06727535,,,,,,,,8,Fast,long,f,1,1.8259,7,1,29,1,1,,,,,
,0.89,,,,,,,,,f,blue,5de938ece4d1830288b70b33,2021-09-27_16h08.16.633,forced_choiceRT_color,2021.2.3,Win32,60.06727535,,,,,,,,8,Ontime,long,f,1,2.068400001,7,2,30,1,1,,,,,
,1.02,,,,,,,,,d,orange,5de938ece4d1830288b70b33,2021-09-27_16h08.16.633,forced_choiceRT_color,2021.2.3,Win32,60.06727535,,,,,,,,8,Ontime,long,d,1,2.055,7,3,31,0,1,,,,,
,0,,,,,,,,,d,orange,5de938ece4d1830288b70b33,2021-09-27_16h08.16.633,forced_choiceRT_color,2021.2.3,Win32,60.06727535,,,,,,,,8,Fast,long,d,1,1.7839,8,0,32,0,1,,,,,
,1.45,,,,,,,,,f,blue,5de938ece4d1830288b70b33,2021-09-27_16h08.16.633,forced_choiceRT_color,2021.2.3,Win32,60.06727535,,,,,,,,8,Slow,long,f,1,2.4206,8,1,33,1,1,,,,,
,1.54,,,,,,,,,d,orange,5de938ece4d1830288b70b33,2021-09-27_16h08.16.633,forced_choiceRT_color,2021.2.3,Win32,60.06727535,,,,,,,,8,Slow,long,d,1,2.304900001,8,2,34,0,1,,,,,
,1.06,,,,,,,,,f,blue,5de938ece4d1830288b70b33,2021-09-27_16h08.16.633,forced_choiceRT_color,2021.2.3,Win32,60.06727535,,,,,,,,8,Slow,long,f,1,2.2688,8,3,35,1,1,,,,,
,1.74,,,,,,,,,j,red,5de938ece4d1830288b70b33,2021-09-27_16h08.16.633,forced_choiceRT_color,2021.2.3,Win32,60.06727535,,,,,,,,8,Slow,long,j,1,3.6423,9,0,36,2,1,,,,,
,0.72,,,,,,,,,k,purple,5de938ece4d1830288b70b33,2021-09-27_16h08.16.633,forced_choiceRT_color,2021.2.3,Win32,60.06727535,,,,,,,,8,Fast,long,k,1,1.778799999,9,1,37,3,1,,,,,
,0.43,,,,,,,,,f,blue,5de938ece4d1830288b70b33,2021-09-27_16h08.16.633,forced_choiceRT_color,2021.2.3,Win32,60.06727535,,,,,,,,8,Fast,long,f,1,1.7359,9,2,38,1,1,,,,,
,1.5,,,,,,,,,j,red,5de938ece4d1830288b70b33,2021-09-27_16h08.16.633,forced_choiceRT_color,2021.2.3,Win32,60.06727535,,,,,,,,8,Slow,long,j,1,2.8613,9,3,39,2,1,,,,,
,,,,,,,,,,,,5de938ece4d1830288b70b33,2021-09-27_16h08.16.633,forced_choiceRT_color,2021.2.3,Win32,60.06727535,,,,,,,,,,,,,,,,,,,7,0,7,0,1
,1.41,,,,,,,,,k,purple,5de938ece4d1830288b70b33,2021-09-27_16h08.16.633,forced_choiceRT_color,2021.2.3,Win32,60.06727535,,,,,,,,9,Slow,long,k,1,3.042799999,0,0,0,3,1,,,,,
,0.18,,,,,,,,,f,blue,5de938ece4d1830288b70b33,2021-09-27_16h08.16.633,forced_choiceRT_color,2021.2.3,Win32,60.06727535,,,,,,,,9,Fast,long,f,1,1.7856,0,1,1,1,1,,,,,
,1.83,,,,,,,,,k,purple,5de938ece4d1830288b70b33,2021-09-27_16h08.16.633,forced_choiceRT_color,2021.2.3,Win32,60.06727535,,,,,,,,9,Slow,long,k,1,2.473900001,0,2,2,3,1,,,,,
,0.3,,,,,,,,,f,blue,5de938ece4d1830288b70b33,2021-09-27_16h08.16.633,forced_choiceRT_color,2021.2.3,Win32,60.06727535,,,,,,,,9,Fast,long,f,1,1.8873,0,3,3,1,1,,,,,
,0.78,,,,,,,,,j,red,5de938ece4d1830288b70b33,2021-09-27_16h08.16.633,forced_choiceRT_color,2021.2.3,Win32,60.06727535,,,,,,,,9,Ontime,long,j,1,1.9514,1,0,4,2,1,,,,,
,0.74,,,,,,,,,f,blue,5de938ece4d1830288b70b33,2021-09-27_16h08.16.633,forced_choiceRT_color,2021.2.3,Win32,60.06727535,,,,,,,,9,Ontime,long,f,1,2.0386,1,1,5,1,1,,,,,
,1.26,,,,,,,,,j,red,5de938ece4d1830288b70b33,2021-09-27_16h08.16.633,forced_choiceRT_color,2021.2.3,Win32,60.06727535,,,,,,,,9,Ontime,long,j,1,2.0863,1,2,6,2,1,,,,,
,1.53,,,,,,,,,k,purple,5de938ece4d1830288b70b33,2021-09-27_16h08.16.633,forced_choiceRT_color,2021.2.3,Win32,60.06727535,,,,,,,,9,Slow,long,k,1,2.286,1,3,7,3,1,,,,,
,0.69,,,,,,,,,j,red,5de938ece4d1830288b70b33,2021-09-27_16h08.16.633,forced_choiceRT_color,2021.2.3,Win32,60.06727535,,,,,,,,9,Ontime,long,j,1,1.946700001,2,0,8,2,1,,,,,
,0.11,,,,,,,,,j,red,5de938ece4d1830288b70b33,2021-09-27_16h08.16.633,forced_choiceRT_color,2021.2.3,Win32,60.06727535,,,,,,,,9,Ontime,long,j,1,1.9726,2,1,9,2,1,,,,,
,1.68,,,,,,,,,j,red,5de938ece4d1830288b70b33,2021-09-27_16h08.16.633,forced_choiceRT_color,2021.2.3,Win32,60.06727535,,,,,,,,9,Ontime,long,j,1,2.0535,2,2,10,2,1,,,,,
,0.09,,,,,,,,,f,blue,5de938ece4d1830288b70b33,2021-09-27_16h08.16.633,forced_choiceRT_color,2021.2.3,Win32,60.06727535,,,,,,,,9,Ontime,long,f,1,2.058299999,2,3,11,1,1,,,,,
,0.67,,,,,,,,,d,orange,5de938ece4d1830288b70b33,2021-09-27_16h08.16.633,forced_choiceRT_color,2021.2.3,Win32,60.06727535,,,,,,,,9,Fast,long,d,1,1.8938,3,0,12,0,1,,,,,
,1.44,,,,,,,,,j,red,5de938ece4d1830288b70b33,2021-09-27_16h08.16.633,forced_choiceRT_color,2021.2.3,Win32,60.06727535,,,,,,,,9,Ontime,long,j,1,2.0565,3,1,13,2,1,,,,,
,1.78,,,,,,,,,k,purple,5de938ece4d1830288b70b33,2021-09-27_16h08.16.633,forced_choiceRT_color,2021.2.3,Win32,60.06727535,,,,,,,,9,Slow,long,k,1,2.3862,3,2,14,3,1,,,,,
,1.98,,,,,,,,,f,blue,5de938ece4d1830288b70b33,2021-09-27_16h08.16.633,forced_choiceRT_color,2021.2.3,Win32,60.06727535,,,,,,,,9,Slow,long,f,1,2.6344,3,3,15,1,1,,,,,
,0.08,,,,,,,,,k,purple,5de938ece4d1830288b70b33,2021-09-27_16h08.16.633,forced_choiceRT_color,2021.2.3,Win32,60.06727535,,,,,,,,9,Ontime,long,k,1,2.002299999,4,0,16,3,1,,,,,
,1.11,,,,,,,,,d,orange,5de938ece4d1830288b70b33,2021-09-27_16h08.16.633,forced_choiceRT_color,2021.2.3,Win32,60.06727535,,,,,,,,9,Fast,long,d,1,1.7518,4,1,17,0,1,,,,,
,1.43,,,,,,,,,d,orange,5de938ece4d1830288b70b33,2021-09-27_16h08.16.633,forced_choiceRT_color,2021.2.3,Win32,60.06727535,,,,,,,,9,Ontime,long,d,1,2.0557,4,2,18,0,1,,,,,
,1.4,,,,,,,,,f,blue,5de938ece4d1830288b70b33,2021-09-27_16h08.16.633,forced_choiceRT_color,2021.2.3,Win32,60.06727535,,,,,,,,9,Slow,long,f,1,2.2866,4,3,19,1,1,,,,,
,1.73,,,,,,,,,f,blue,5de938ece4d1830288b70b33,2021-09-27_16h08.16.633,forced_choiceRT_color,2021.2.3,Win32,60.06727535,,,,,,,,9,Slow,long,f,1,2.171,5,0,20,1,1,,,,,
,0.75,,,,,,,,,f,blue,5de938ece4d1830288b70b33,2021-09-27_16h08.16.633,forced_choiceRT_color,2021.2.3,Win32,60.06727535,,,,,,,,9,Ontime,long,f,1,1.9266,5,1,21,1,1,,,,,
,0.02,,,,,,,,,k,purple,5de938ece4d1830288b70b33,2021-09-27_16h08.16.633,forced_choiceRT_color,2021.2.3,Win32,60.06727535,,,,,,,,9,Ontime,long,k,1,1.992,5,2,22,3,1,,,,,
,1.31,,,,,,,,,k,purple,5de938ece4d1830288b70b33,2021-09-27_16h08.16.633,forced_choiceRT_color,2021.2.3,Win32,60.06727535,,,,,,,,9,Ontime,long,k,1,1.9384,5,3,23,3,1,,,,,
,0.69,,,,,,,,,j,red,5de938ece4d1830288b70b33,2021-09-27_16h08.16.633,forced_choiceRT_color,2021.2.3,Win32,60.06727535,,,,,,,,9,Ontime,long,f,0,2.084900001,6,0,24,2,1,,,,,
,1.36,,,,,,,,,f,blue,5de938ece4d1830288b70b33,2021-09-27_16h08.16.633,forced_choiceRT_color,2021.2.3,Win32,60.06727535,,,,,,,,9,Slow,long,f,1,2.3546,6,1,25,1,1,,,,,
,0.36,,,,,,,,,j,red,5de938ece4d1830288b70b33,2021-09-27_16h08.16.633,forced_choiceRT_color,2021.2.3,Win32,60.06727535,,,,,,,,9,Ontime,long,j,1,1.958400001,6,2,26,2,1,,,,,
,1.13,,,,,,,,,k,purple,5de938ece4d1830288b70b33,2021-09-27_16h08.16.633,forced_choiceRT_color,2021.2.3,Win32,60.06727535,,,,,,,,9,Slow,long,k,1,2.873900001,6,3,27,3,1,,,,,
,1,,,,,,,,,f,blue,5de938ece4d1830288b70b33,2021-09-27_16h08.16.633,forced_choiceRT_color,2021.2.3,Win32,60.06727535,,,,,,,,9,Slow,long,f,1,2.2534,7,0,28,1,1,,,,,
,1.53,,,,,,,,,j,red,5de938ece4d1830288b70b33,2021-09-27_16h08.16.633,forced_choiceRT_color,2021.2.3,Win32,60.06727535,,,,,,,,9,Slow,long,j,1,3.7239,7,1,29,2,1,,,,,
,1.41,,,,,,,,,k,purple,5de938ece4d1830288b70b33,2021-09-27_16h08.16.633,forced_choiceRT_color,2021.2.3,Win32,60.06727535,,,,,,,,9,Slow,long,k,1,2.29,7,2,30,3,1,,,,,
,0.71,,,,,,,,,d,orange,5de938ece4d1830288b70b33,2021-09-27_16h08.16.633,forced_choiceRT_color,2021.2.3,Win32,60.06727535,,,,,,,,9,Ontime,long,d,1,1.971,7,3,31,0,1,,,,,
,0.98,,,,,,,,,d,orange,5de938ece4d1830288b70b33,2021-09-27_16h08.16.633,forced_choiceRT_color,2021.2.3,Win32,60.06727535,,,,,,,,9,Ontime,long,d,1,1.9852,8,0,32,0,1,,,,,
,1.79,,,,,,,,,j,red,5de938ece4d1830288b70b33,2021-09-27_16h08.16.633,forced_choiceRT_color,2021.2.3,Win32,60.06727535,,,,,,,,9,Slow,long,j,1,2.485599999,8,1,33,2,1,,,,,
,0.24,,,,,,,,,k,purple,5de938ece4d1830288b70b33,2021-09-27_16h08.16.633,forced_choiceRT_color,2021.2.3,Win32,60.06727535,,,,,,,,9,Ontime,long,k,1,1.9282,8,2,34,3,1,,,,,
,0.41,,,,,,,,,d,orange,5de938ece4d1830288b70b33,2021-09-27_16h08.16.633,forced_choiceRT_color,2021.2.3,Win32,60.06727535,,,,,,,,9,Ontime,long,d,1,1.952700001,8,3,35,0,1,,,,,
,1.7,,,,,,,,,d,orange,5de938ece4d1830288b70b33,2021-09-27_16h08.16.633,forced_choiceRT_color,2021.2.3,Win32,60.06727535,,,,,,,,9,Ontime,long,d,1,2.0187,9,0,36,0,1,,,,,
,0.33,,,,,,,,,d,orange,5de938ece4d1830288b70b33,2021-09-27_16h08.16.633,forced_choiceRT_color,2021.2.3,Win32,60.06727535,,,,,,,,9,Ontime,long,d,1,1.9469,9,1,37,0,1,,,,,
,0.29,,,,,,,,,d,orange,5de938ece4d1830288b70b33,2021-09-27_16h08.16.633,forced_choiceRT_color,2021.2.3,Win32,60.06727535,,,,,,,,9,Ontime,long,d,1,1.9122,9,2,38,0,1,,,,,
,0.16,,,,,,,,,d,orange,5de938ece4d1830288b70b33,2021-09-27_16h08.16.633,forced_choiceRT_color,2021.2.3,Win32,60.06727535,,,,,,,,9,Ontime,long,d,1,1.918599999,9,3,39,0,1,,,,,
,,,,,,,,,,,,5de938ece4d1830288b70b33,2021-09-27_16h08.16.633,forced_choiceRT_color,2021.2.3,Win32,60.06727535,,,,,,,,,,,,,,,,,,,8,0,8,0,1
,1.56,,,,,,,,,d,orange,5de938ece4d1830288b70b33,2021-09-27_16h08.16.633,forced_choiceRT_color,2021.2.3,Win32,60.06727535,,,,,,,,10,Ontime,long,d,1,2.085400001,0,0,0,0,1,,,,,
,0.33,,,,,,,,,d,orange,5de938ece4d1830288b70b33,2021-09-27_16h08.16.633,forced_choiceRT_color,2021.2.3,Win32,60.06727535,,,,,,,,10,Ontime,long,d,1,1.9685,0,1,1,0,1,,,,,
,1.87,,,,,,,,,d,orange,5de938ece4d1830288b70b33,2021-09-27_16h08.16.633,forced_choiceRT_color,2021.2.3,Win32,60.06727535,,,,,,,,10,Slow,long,d,1,2.1862,0,2,2,0,1,,,,,
,0.18,,,,,,,,,d,orange,5de938ece4d1830288b70b33,2021-09-27_16h08.16.633,forced_choiceRT_color,2021.2.3,Win32,60.06727535,,,,,,,,10,Fast,long,d,1,1.8686,0,3,3,0,1,,,,,
,1.5,,,,,,,,,j,red,5de938ece4d1830288b70b33,2021-09-27_16h08.16.633,forced_choiceRT_color,2021.2.3,Win32,60.06727535,,,,,,,,10,Slow,long,j,1,2.1855,1,0,4,2,1,,,,,
,0.47,,,,,,,,,j,red,5de938ece4d1830288b70b33,2021-09-27_16h08.16.633,forced_choiceRT_color,2021.2.3,Win32,60.06727535,,,,,,,,10,Fast,long,j,1,1.8745,1,1,5,2,1,,,,,
,0.77,,,,,,,,,k,purple,5de938ece4d1830288b70b33,2021-09-27_16h08.16.633,forced_choiceRT_color,2021.2.3,Win32,60.06727535,,,,,,,,10,Fast,long,k,1,1.835099999,1,2,6,3,1,,,,,
,0.18,,,,,,,,,f,blue,5de938ece4d1830288b70b33,2021-09-27_16h08.16.633,forced_choiceRT_color,2021.2.3,Win32,60.06727535,,,,,,,,10,Ontime,long,f,1,1.9853,1,3,7,1,1,,,,,
,1.82,,,,,,,,,k,purple,5de938ece4d1830288b70b33,2021-09-27_16h08.16.633,forced_choiceRT_color,2021.2.3,Win32,60.06727535,,,,,,,,10,Slow,long,k,1,2.803,2,0,8,3,1,,,,,
,1.99,,,,,,,,,k,purple,5de938ece4d1830288b70b33,2021-09-27_16h08.16.633,forced_choiceRT_color,2021.2.3,Win32,60.06727535,,,,,,,,10,Slow,long,j,0,2.6174,2,1,9,3,1,,,,,
,1.87,,,,,,,,,j,red,5de938ece4d1830288b70b33,2021-09-27_16h08.16.633,forced_choiceRT_color,2021.2.3,Win32,60.06727535,,,,,,,,10,Slow,long,j,1,2.9569,2,2,10,2,1,,,,,
,0.44,,,,,,,,,k,purple,5de938ece4d1830288b70b33,2021-09-27_16h08.16.633,forced_choiceRT_color,2021.2.3,Win32,60.06727535,,,,,,,,10,Fast,long,k,1,1.8437,2,3,11,3,1,,,,,
,0.22,,,,,,,,,d,orange,5de938ece4d1830288b70b33,2021-09-27_16h08.16.633,forced_choiceRT_color,2021.2.3,Win32,60.06727535,,,,,,,,10,Ontime,long,d,1,2.0432,3,0,12,0,1,,,,,
,0.61,,,,,,,,,f,blue,5de938ece4d1830288b70b33,2021-09-27_16h08.16.633,forced_choiceRT_color,2021.2.3,Win32,60.06727535,,,,,,,,10,Ontime,long,f,1,2.0777,3,1,13,1,1,,,,,
,1.73,,,,,,,,,j,red,5de938ece4d1830288b70b33,2021-09-27_16h08.16.633,forced_choiceRT_color,2021.2.3,Win32,60.06727535,,,,,,,,10,Slow,long,j,1,2.5283,3,2,14,2,1,,,,,
,0.52,,,,,,,,,f,blue,5de938ece4d1830288b70b33,2021-09-27_16h08.16.633,forced_choiceRT_color,2021.2.3,Win32,60.06727535,,,,,,,,10,Ontime,long,f,1,1.9441,3,3,15,1,1,,,,,
,0.5,,,,,,,,,d,orange,5de938ece4d1830288b70b33,2021-09-27_16h08.16.633,forced_choiceRT_color,2021.2.3,Win32,60.06727535,,,,,,,,10,Fast,long,d,1,1.8949,4,0,16,0,1,,,,,
,0.2,,,,,,,,,j,red,5de938ece4d1830288b70b33,2021-09-27_16h08.16.633,forced_choiceRT_color,2021.2.3,Win32,60.06727535,,,,,,,,10,Ontime,long,j,1,1.972799999,4,1,17,2,1,,,,,
,0.52,,,,,,,,,j,red,5de938ece4d1830288b70b33,2021-09-27_16h08.16.633,forced_choiceRT_color,2021.2.3,Win32,60.06727535,,,,,,,,10,Fast,long,j,1,1.803,4,2,18,2,1,,,,,
,1.78,,,,,,,,,d,orange,5de938ece4d1830288b70b33,2021-09-27_16h08.16.633,forced_choiceRT_color,2021.2.3,Win32,60.06727535,,,,,,,,10,Slow,long,d,1,2.3014,4,3,19,0,1,,,,,
,0.81,,,,,,,,,k,purple,5de938ece4d1830288b70b33,2021-09-27_16h08.16.633,forced_choiceRT_color,2021.2.3,Win32,60.06727535,,,,,,,,10,Fast,long,k,1,1.8683,5,0,20,3,1,,,,,
,1.39,,,,,,,,,j,red,5de938ece4d1830288b70b33,2021-09-27_16h08.16.633,forced_choiceRT_color,2021.2.3,Win32,60.06727535,,,,,,,,10,Slow,long,j,1,2.2028,5,1,21,2,1,,,,,
,0.94,,,,,,,,,k,purple,5de938ece4d1830288b70b33,2021-09-27_16h08.16.633,forced_choiceRT_color,2021.2.3,Win32,60.06727535,,,,,,,,10,Fast,long,j,0,0.137599999,5,2,22,3,1,,,,,
,1.24,,,,,,,,,k,purple,5de938ece4d1830288b70b33,2021-09-27_16h08.16.633,forced_choiceRT_color,2021.2.3,Win32,60.06727535,,,,,,,,10,Slow,long,k,1,2.183900001,5,3,23,3,1,,,,,
,1.47,,,,,,,,,f,blue,5de938ece4d1830288b70b33,2021-09-27_16h08.16.633,forced_choiceRT_color,2021.2.3,Win32,60.06727535,,,,,,,,10,Ontime,long,f,1,2.038599999,6,0,24,1,1,,,,,
,0.35,,,,,,,,,j,red,5de938ece4d1830288b70b33,2021-09-27_16h08.16.633,forced_choiceRT_color,2021.2.3,Win32,60.06727535,,,,,,,,10,Fast,long,j,1,1.836200001,6,1,25,2,1,,,,,
,1.37,,,,,,,,,k,purple,5de938ece4d1830288b70b33,2021-09-27_16h08.16.633,forced_choiceRT_color,2021.2.3,Win32,60.06727535,,,,,,,,10,Slow,long,k,1,2.1401,6,2,26,3,1,,,,,
,1.24,,,,,,,,,f,blue,5de938ece4d1830288b70b33,2021-09-27_16h08.16.633,forced_choiceRT_color,2021.2.3,Win32,60.06727535,,,,,,,,10,Ontime,long,f,1,1.91,6,3,27,1,1,,,,,
,0.69,,,,,,,,,f,blue,5de938ece4d1830288b70b33,2021-09-27_16h08.16.633,forced_choiceRT_color,2021.2.3,Win32,60.06727535,,,,,,,,10,Fast,long,f,1,1.8184,7,0,28,1,1,,,,,
,1.22,,,,,,,,,k,purple,5de938ece4d1830288b70b33,2021-09-27_16h08.16.633,forced_choiceRT_color,2021.2.3,Win32,60.06727535,,,,,,,,10,Ontime,long,j,0,2.0021,7,1,29,3,1,,,,,
,1.19,,,,,,,,,f,blue,5de938ece4d1830288b70b33,2021-09-27_16h08.16.633,forced_choiceRT_color,2021.2.3,Win32,60.06727535,,,,,,,,10,Ontime,long,f,1,1.9188,7,2,30,1,1,,,,,
,1.44,,,,,,,,,f,blue,5de938ece4d1830288b70b33,2021-09-27_16h08.16.633,forced_choiceRT_color,2021.2.3,Win32,60.06727535,,,,,,,,10,Ontime,long,f,1,1.9527,7,3,31,1,1,,,,,
,0.68,,,,,,,,,d,orange,5de938ece4d1830288b70b33,2021-09-27_16h08.16.633,forced_choiceRT_color,2021.2.3,Win32,60.06727535,,,,,,,,10,Ontime,long,d,1,1.9362,8,0,32,0,1,,,,,
,1.25,,,,,,,,,j,red,5de938ece4d1830288b70b33,2021-09-27_16h08.16.633,forced_choiceRT_color,2021.2.3,Win32,60.06727535,,,,,,,,10,Ontime,long,f,0,1.9772,8,1,33,2,1,,,,,
,1.98,,,,,,,,,k,purple,5de938ece4d1830288b70b33,2021-09-27_16h08.16.633,forced_choiceRT_color,2021.2.3,Win32,60.06727535,,,,,,,,10,Slow,long,k,1,2.7029,8,2,34,3,1,,,,,
,1.7,,,,,,,,,f,blue,5de938ece4d1830288b70b33,2021-09-27_16h08.16.633,forced_choiceRT_color,2021.2.3,Win32,60.06727535,,,,,,,,10,Slow,long,f,1,2.736,8,3,35,1,1,,,,,
,1.94,,,,,,,,,f,blue,5de938ece4d1830288b70b33,2021-09-27_16h08.16.633,forced_choiceRT_color,2021.2.3,Win32,60.06727535,,,,,,,,10,Slow,long,d,0,2.5188,9,0,36,1,1,,,,,
,0.54,,,,,,,,,j,red,5de938ece4d1830288b70b33,2021-09-27_16h08.16.633,forced_choiceRT_color,2021.2.3,Win32,60.06727535,,,,,,,,10,Ontime,long,j,1,2.0303,9,1,37,2,1,,,,,
,1.31,,,,,,,,,d,orange,5de938ece4d1830288b70b33,2021-09-27_16h08.16.633,forced_choiceRT_color,2021.2.3,Win32,60.06727535,,,,,,,,10,Ontime,long,d,1,1.954900001,9,2,38,0,1,,,,,
,0.88,,,,,,,,,d,orange,5de938ece4d1830288b70b33,2021-09-27_16h08.16.633,forced_choiceRT_color,2021.2.3,Win32,60.06727535,,,,,,,,10,Fast,long,d,1,1.8774,9,3,39,0,1,,,,,
,,,,,,,,,,,,5de938ece4d1830288b70b33,2021-09-27_16h08.16.633,forced_choiceRT_color,2021.2.3,Win32,60.06727535,,,,,,,,,,,,,,,,,,,9,0,9,0,1
