IP_Addresss,target_onset,trial_resp_sp.keys,trial_resp_sp.corr,trial_resp_sp.rt,trials_train_loop.thisRepN,trials_train_loop.thisTrialN,trials_train_loop.thisN,trials_train_loop.thisIndex,trials_train_loop.ran,correct_key,color,participant,date,expName,psychopyVersion,OS,frameRate,trial_resp_timing.keys,trial_resp_timing.rt,trials_train_timing.thisRepN,trials_train_timing.thisTrialN,trials_train_timing.thisN,trials_train_timing.thisIndex,trials_train_timing.ran,block_id,ontime,feedback_cond,forcedRT_resp.keys,forcedRT_resp.corr,forcedRT_resp.rt,trials.thisRepN,trials.thisTrialN,trials.thisN,trials.thisIndex,trials.ran,blocks.thisRepN,blocks.thisTrialN,blocks.thisN,blocks.thisIndex,blocks.ran
174.103.112.20,0,d,1,1.6891,0,0,0,0,1,d,orange,5e1553fd1e2e58b6448d8dcc,2021-09-28_13h06.50.692,forced_choiceRT_color,2021.2.3,Win32,59.48839976,,,,,,,,,,,,,,,,,,,,,,,
,0,k,1,1.5669,0,1,1,3,1,k,purple,5e1553fd1e2e58b6448d8dcc,2021-09-28_13h06.50.692,forced_choiceRT_color,2021.2.3,Win32,59.48839976,,,,,,,,,,,,,,,,,,,,,,,
,0,d,1,0.8341,0,2,2,0,1,d,orange,5e1553fd1e2e58b6448d8dcc,2021-09-28_13h06.50.692,forced_choiceRT_color,2021.2.3,Win32,59.48839976,,,,,,,,,,,,,,,,,,,,,,,
,0,f,1,0.7049,0,3,3,1,1,f,blue,5e1553fd1e2e58b6448d8dcc,2021-09-28_13h06.50.692,forced_choiceRT_color,2021.2.3,Win32,59.48839976,,,,,,,,,,,,,,,,,,,,,,,
,0,f,1,0.6906,1,0,4,1,1,f,blue,5e1553fd1e2e58b6448d8dcc,2021-09-28_13h06.50.692,forced_choiceRT_color,2021.2.3,Win32,59.48839976,,,,,,,,,,,,,,,,,,,,,,,
,0,j,1,0.6378,1,1,5,2,1,j,red,5e1553fd1e2e58b6448d8dcc,2021-09-28_13h06.50.692,forced_choiceRT_color,2021.2.3,Win32,59.48839976,,,,,,,,,,,,,,,,,,,,,,,
,0,f,1,0.8672,1,2,6,1,1,f,blue,5e1553fd1e2e58b6448d8dcc,2021-09-28_13h06.50.692,forced_choiceRT_color,2021.2.3,Win32,59.48839976,,,,,,,,,,,,,,,,,,,,,,,
,0,k,1,0.6668,1,3,7,3,1,k,purple,5e1553fd1e2e58b6448d8dcc,2021-09-28_13h06.50.692,forced_choiceRT_color,2021.2.3,Win32,59.48839976,,,,,,,,,,,,,,,,,,,,,,,
,0,k,1,0.5599,2,0,8,3,1,k,purple,5e1553fd1e2e58b6448d8dcc,2021-09-28_13h06.50.692,forced_choiceRT_color,2021.2.3,Win32,59.48839976,,,,,,,,,,,,,,,,,,,,,,,
,0,d,1,0.6095,2,1,9,0,1,d,orange,5e1553fd1e2e58b6448d8dcc,2021-09-28_13h06.50.692,forced_choiceRT_color,2021.2.3,Win32,59.48839976,,,,,,,,,,,,,,,,,,,,,,,
,0,k,1,0.5502,2,2,10,3,1,k,purple,5e1553fd1e2e58b6448d8dcc,2021-09-28_13h06.50.692,forced_choiceRT_color,2021.2.3,Win32,59.48839976,,,,,,,,,,,,,,,,,,,,,,,
,0,j,1,0.6406,2,3,11,2,1,j,red,5e1553fd1e2e58b6448d8dcc,2021-09-28_13h06.50.692,forced_choiceRT_color,2021.2.3,Win32,59.48839976,,,,,,,,,,,,,,,,,,,,,,,
,0,d,1,0.6092,3,0,12,0,1,d,orange,5e1553fd1e2e58b6448d8dcc,2021-09-28_13h06.50.692,forced_choiceRT_color,2021.2.3,Win32,59.48839976,,,,,,,,,,,,,,,,,,,,,,,
,0,f,1,0.6197,3,1,13,1,1,f,blue,5e1553fd1e2e58b6448d8dcc,2021-09-28_13h06.50.692,forced_choiceRT_color,2021.2.3,Win32,59.48839976,,,,,,,,,,,,,,,,,,,,,,,
,0,j,1,0.5607,3,2,14,2,1,j,red,5e1553fd1e2e58b6448d8dcc,2021-09-28_13h06.50.692,forced_choiceRT_color,2021.2.3,Win32,59.48839976,,,,,,,,,,,,,,,,,,,,,,,
,0,d,1,0.5623,3,3,15,0,1,d,orange,5e1553fd1e2e58b6448d8dcc,2021-09-28_13h06.50.692,forced_choiceRT_color,2021.2.3,Win32,59.48839976,,,,,,,,,,,,,,,,,,,,,,,
,0,j,1,0.8562,4,0,16,2,1,j,red,5e1553fd1e2e58b6448d8dcc,2021-09-28_13h06.50.692,forced_choiceRT_color,2021.2.3,Win32,59.48839976,,,,,,,,,,,,,,,,,,,,,,,
,0,d,1,0.7835,4,1,17,0,1,d,orange,5e1553fd1e2e58b6448d8dcc,2021-09-28_13h06.50.692,forced_choiceRT_color,2021.2.3,Win32,59.48839976,,,,,,,,,,,,,,,,,,,,,,,
,0,k,1,0.571,4,2,18,3,1,k,purple,5e1553fd1e2e58b6448d8dcc,2021-09-28_13h06.50.692,forced_choiceRT_color,2021.2.3,Win32,59.48839976,,,,,,,,,,,,,,,,,,,,,,,
,0,k,1,0.5957,4,3,19,3,1,k,purple,5e1553fd1e2e58b6448d8dcc,2021-09-28_13h06.50.692,forced_choiceRT_color,2021.2.3,Win32,59.48839976,,,,,,,,,,,,,,,,,,,,,,,
,0,f,1,0.628,5,0,20,1,1,f,blue,5e1553fd1e2e58b6448d8dcc,2021-09-28_13h06.50.692,forced_choiceRT_color,2021.2.3,Win32,59.48839976,,,,,,,,,,,,,,,,,,,,,,,
,0,d,1,0.5677,5,1,21,0,1,d,orange,5e1553fd1e2e58b6448d8dcc,2021-09-28_13h06.50.692,forced_choiceRT_color,2021.2.3,Win32,59.48839976,,,,,,,,,,,,,,,,,,,,,,,
,0,f,1,0.7754,5,2,22,1,1,f,blue,5e1553fd1e2e58b6448d8dcc,2021-09-28_13h06.50.692,forced_choiceRT_color,2021.2.3,Win32,59.48839976,,,,,,,,,,,,,,,,,,,,,,,
,0,j,1,1.0001,5,3,23,2,1,j,red,5e1553fd1e2e58b6448d8dcc,2021-09-28_13h06.50.692,forced_choiceRT_color,2021.2.3,Win32,59.48839976,,,,,,,,,,,,,,,,,,,,,,,
,0,d,1,0.6171,6,0,24,0,1,d,orange,5e1553fd1e2e58b6448d8dcc,2021-09-28_13h06.50.692,forced_choiceRT_color,2021.2.3,Win32,59.48839976,,,,,,,,,,,,,,,,,,,,,,,
,0,f,1,0.8334,6,1,25,1,1,f,blue,5e1553fd1e2e58b6448d8dcc,2021-09-28_13h06.50.692,forced_choiceRT_color,2021.2.3,Win32,59.48839976,,,,,,,,,,,,,,,,,,,,,,,
,0,f,1,0.5562,6,2,26,1,1,f,blue,5e1553fd1e2e58b6448d8dcc,2021-09-28_13h06.50.692,forced_choiceRT_color,2021.2.3,Win32,59.48839976,,,,,,,,,,,,,,,,,,,,,,,
,0,f,1,0.509,6,3,27,1,1,f,blue,5e1553fd1e2e58b6448d8dcc,2021-09-28_13h06.50.692,forced_choiceRT_color,2021.2.3,Win32,59.48839976,,,,,,,,,,,,,,,,,,,,,,,
,0,f,1,0.5278,7,0,28,1,1,f,blue,5e1553fd1e2e58b6448d8dcc,2021-09-28_13h06.50.692,forced_choiceRT_color,2021.2.3,Win32,59.48839976,,,,,,,,,,,,,,,,,,,,,,,
,0,j,1,0.6511,7,1,29,2,1,j,red,5e1553fd1e2e58b6448d8dcc,2021-09-28_13h06.50.692,forced_choiceRT_color,2021.2.3,Win32,59.48839976,,,,,,,,,,,,,,,,,,,,,,,
,0,j,1,0.5515,7,2,30,2,1,j,red,5e1553fd1e2e58b6448d8dcc,2021-09-28_13h06.50.692,forced_choiceRT_color,2021.2.3,Win32,59.48839976,,,,,,,,,,,,,,,,,,,,,,,
,0,f,1,0.7002,7,3,31,1,1,f,blue,5e1553fd1e2e58b6448d8dcc,2021-09-28_13h06.50.692,forced_choiceRT_color,2021.2.3,Win32,59.48839976,,,,,,,,,,,,,,,,,,,,,,,
,0,j,1,0.538,8,0,32,2,1,j,red,5e1553fd1e2e58b6448d8dcc,2021-09-28_13h06.50.692,forced_choiceRT_color,2021.2.3,Win32,59.48839976,,,,,,,,,,,,,,,,,,,,,,,
,0,k,1,0.5746,8,1,33,3,1,k,purple,5e1553fd1e2e58b6448d8dcc,2021-09-28_13h06.50.692,forced_choiceRT_color,2021.2.3,Win32,59.48839976,,,,,,,,,,,,,,,,,,,,,,,
,0,f,1,0.5833,8,2,34,1,1,f,blue,5e1553fd1e2e58b6448d8dcc,2021-09-28_13h06.50.692,forced_choiceRT_color,2021.2.3,Win32,59.48839976,,,,,,,,,,,,,,,,,,,,,,,
,0,k,1,0.6,8,3,35,3,1,k,purple,5e1553fd1e2e58b6448d8dcc,2021-09-28_13h06.50.692,forced_choiceRT_color,2021.2.3,Win32,59.48839976,,,,,,,,,,,,,,,,,,,,,,,
,0,k,1,0.5492,9,0,36,3,1,k,purple,5e1553fd1e2e58b6448d8dcc,2021-09-28_13h06.50.692,forced_choiceRT_color,2021.2.3,Win32,59.48839976,,,,,,,,,,,,,,,,,,,,,,,
,0,j,1,0.5264,9,1,37,2,1,j,red,5e1553fd1e2e58b6448d8dcc,2021-09-28_13h06.50.692,forced_choiceRT_color,2021.2.3,Win32,59.48839976,,,,,,,,,,,,,,,,,,,,,,,
,0,k,1,0.7172,9,2,38,3,1,k,purple,5e1553fd1e2e58b6448d8dcc,2021-09-28_13h06.50.692,forced_choiceRT_color,2021.2.3,Win32,59.48839976,,,,,,,,,,,,,,,,,,,,,,,
,0,k,1,0.484,9,3,39,3,1,k,purple,5e1553fd1e2e58b6448d8dcc,2021-09-28_13h06.50.692,forced_choiceRT_color,2021.2.3,Win32,59.48839976,,,,,,,,,,,,,,,,,,,,,,,
,0,k,1,0.4528,10,0,40,3,1,k,purple,5e1553fd1e2e58b6448d8dcc,2021-09-28_13h06.50.692,forced_choiceRT_color,2021.2.3,Win32,59.48839976,,,,,,,,,,,,,,,,,,,,,,,
,0,d,1,0.7176,10,1,41,0,1,d,orange,5e1553fd1e2e58b6448d8dcc,2021-09-28_13h06.50.692,forced_choiceRT_color,2021.2.3,Win32,59.48839976,,,,,,,,,,,,,,,,,,,,,,,
,0,f,1,0.5169,10,2,42,1,1,f,blue,5e1553fd1e2e58b6448d8dcc,2021-09-28_13h06.50.692,forced_choiceRT_color,2021.2.3,Win32,59.48839976,,,,,,,,,,,,,,,,,,,,,,,
,0,j,1,0.6064,10,3,43,2,1,j,red,5e1553fd1e2e58b6448d8dcc,2021-09-28_13h06.50.692,forced_choiceRT_color,2021.2.3,Win32,59.48839976,,,,,,,,,,,,,,,,,,,,,,,
,0,j,1,0.4936,11,0,44,2,1,j,red,5e1553fd1e2e58b6448d8dcc,2021-09-28_13h06.50.692,forced_choiceRT_color,2021.2.3,Win32,59.48839976,,,,,,,,,,,,,,,,,,,,,,,
,0,k,1,0.634,11,1,45,3,1,k,purple,5e1553fd1e2e58b6448d8dcc,2021-09-28_13h06.50.692,forced_choiceRT_color,2021.2.3,Win32,59.48839976,,,,,,,,,,,,,,,,,,,,,,,
,0,k,1,0.5519,11,2,46,3,1,k,purple,5e1553fd1e2e58b6448d8dcc,2021-09-28_13h06.50.692,forced_choiceRT_color,2021.2.3,Win32,59.48839976,,,,,,,,,,,,,,,,,,,,,,,
,0,f,1,0.585,11,3,47,1,1,f,blue,5e1553fd1e2e58b6448d8dcc,2021-09-28_13h06.50.692,forced_choiceRT_color,2021.2.3,Win32,59.48839976,,,,,,,,,,,,,,,,,,,,,,,
,0,d,1,0.5663,12,0,48,0,1,d,orange,5e1553fd1e2e58b6448d8dcc,2021-09-28_13h06.50.692,forced_choiceRT_color,2021.2.3,Win32,59.48839976,,,,,,,,,,,,,,,,,,,,,,,
,0,k,1,0.5335,12,1,49,3,1,k,purple,5e1553fd1e2e58b6448d8dcc,2021-09-28_13h06.50.692,forced_choiceRT_color,2021.2.3,Win32,59.48839976,,,,,,,,,,,,,,,,,,,,,,,
,0,f,1,0.5792,12,2,50,1,1,f,blue,5e1553fd1e2e58b6448d8dcc,2021-09-28_13h06.50.692,forced_choiceRT_color,2021.2.3,Win32,59.48839976,,,,,,,,,,,,,,,,,,,,,,,
,0,d,1,0.5001,12,3,51,0,1,d,orange,5e1553fd1e2e58b6448d8dcc,2021-09-28_13h06.50.692,forced_choiceRT_color,2021.2.3,Win32,59.48839976,,,,,,,,,,,,,,,,,,,,,,,
,0,d,1,0.4987,13,0,52,0,1,d,orange,5e1553fd1e2e58b6448d8dcc,2021-09-28_13h06.50.692,forced_choiceRT_color,2021.2.3,Win32,59.48839976,,,,,,,,,,,,,,,,,,,,,,,
,0,j,1,0.8504,13,1,53,2,1,j,red,5e1553fd1e2e58b6448d8dcc,2021-09-28_13h06.50.692,forced_choiceRT_color,2021.2.3,Win32,59.48839976,,,,,,,,,,,,,,,,,,,,,,,
,0,j,1,0.5343,13,2,54,2,1,j,red,5e1553fd1e2e58b6448d8dcc,2021-09-28_13h06.50.692,forced_choiceRT_color,2021.2.3,Win32,59.48839976,,,,,,,,,,,,,,,,,,,,,,,
,0,j,1,0.5342,13,3,55,2,1,j,red,5e1553fd1e2e58b6448d8dcc,2021-09-28_13h06.50.692,forced_choiceRT_color,2021.2.3,Win32,59.48839976,,,,,,,,,,,,,,,,,,,,,,,
,0,j,1,0.5208,14,0,56,2,1,j,red,5e1553fd1e2e58b6448d8dcc,2021-09-28_13h06.50.692,forced_choiceRT_color,2021.2.3,Win32,59.48839976,,,,,,,,,,,,,,,,,,,,,,,
,0,d,1,0.5105,14,1,57,0,1,d,orange,5e1553fd1e2e58b6448d8dcc,2021-09-28_13h06.50.692,forced_choiceRT_color,2021.2.3,Win32,59.48839976,,,,,,,,,,,,,,,,,,,,,,,
,0,d,1,0.4913,14,2,58,0,1,d,orange,5e1553fd1e2e58b6448d8dcc,2021-09-28_13h06.50.692,forced_choiceRT_color,2021.2.3,Win32,59.48839976,,,,,,,,,,,,,,,,,,,,,,,
,0,d,1,0.4338,14,3,59,0,1,d,orange,5e1553fd1e2e58b6448d8dcc,2021-09-28_13h06.50.692,forced_choiceRT_color,2021.2.3,Win32,59.48839976,,,,,,,,,,,,,,,,,,,,,,,
,,,,,,,,,,,,5e1553fd1e2e58b6448d8dcc,2021-09-28_13h06.50.692,forced_choiceRT_color,2021.2.3,Win32,59.48839976,f,1.2098,0,0,0,0,1,,,,,,,,,,,,,,,,
,,,,,,,,,,,,5e1553fd1e2e58b6448d8dcc,2021-09-28_13h06.50.692,forced_choiceRT_color,2021.2.3,Win32,59.48839976,j,2.2252,1,0,1,0,1,,,,,,,,,,,,,,,,
,,,,,,,,,,,,5e1553fd1e2e58b6448d8dcc,2021-09-28_13h06.50.692,forced_choiceRT_color,2021.2.3,Win32,59.48839976,j,2.0846,2,0,2,0,1,,,,,,,,,,,,,,,,
,,,,,,,,,,,,5e1553fd1e2e58b6448d8dcc,2021-09-28_13h06.50.692,forced_choiceRT_color,2021.2.3,Win32,59.48839976,j,2.1331,3,0,3,0,1,,,,,,,,,,,,,,,,
,,,,,,,,,,,,5e1553fd1e2e58b6448d8dcc,2021-09-28_13h06.50.692,forced_choiceRT_color,2021.2.3,Win32,59.48839976,j,2.0244,4,0,4,0,1,,,,,,,,,,,,,,,,
,,,,,,,,,,,,5e1553fd1e2e58b6448d8dcc,2021-09-28_13h06.50.692,forced_choiceRT_color,2021.2.3,Win32,59.48839976,j,2.0193,5,0,5,0,1,,,,,,,,,,,,,,,,
,,,,,,,,,,,,5e1553fd1e2e58b6448d8dcc,2021-09-28_13h06.50.692,forced_choiceRT_color,2021.2.3,Win32,59.48839976,j,2.033,6,0,6,0,1,,,,,,,,,,,,,,,,
,,,,,,,,,,,,5e1553fd1e2e58b6448d8dcc,2021-09-28_13h06.50.692,forced_choiceRT_color,2021.2.3,Win32,59.48839976,j,2.0998,7,0,7,0,1,,,,,,,,,,,,,,,,
,,,,,,,,,,,,5e1553fd1e2e58b6448d8dcc,2021-09-28_13h06.50.692,forced_choiceRT_color,2021.2.3,Win32,59.48839976,j,2.094,8,0,8,0,1,,,,,,,,,,,,,,,,
,,,,,,,,,,,,5e1553fd1e2e58b6448d8dcc,2021-09-28_13h06.50.692,forced_choiceRT_color,2021.2.3,Win32,59.48839976,j,2.1206,9,0,9,0,1,,,,,,,,,,,,,,,,
,,,,,,,,,,,,5e1553fd1e2e58b6448d8dcc,2021-09-28_13h06.50.692,forced_choiceRT_color,2021.2.3,Win32,59.48839976,j,2.0992,10,0,10,0,1,,,,,,,,,,,,,,,,
,,,,,,,,,,,,5e1553fd1e2e58b6448d8dcc,2021-09-28_13h06.50.692,forced_choiceRT_color,2021.2.3,Win32,59.48839976,j,2.0376,11,0,11,0,1,,,,,,,,,,,,,,,,
,,,,,,,,,,,,5e1553fd1e2e58b6448d8dcc,2021-09-28_13h06.50.692,forced_choiceRT_color,2021.2.3,Win32,59.48839976,j,1.9918,12,0,12,0,1,,,,,,,,,,,,,,,,
,,,,,,,,,,,,5e1553fd1e2e58b6448d8dcc,2021-09-28_13h06.50.692,forced_choiceRT_color,2021.2.3,Win32,59.48839976,j,2.0331,13,0,13,0,1,,,,,,,,,,,,,,,,
,,,,,,,,,,,,5e1553fd1e2e58b6448d8dcc,2021-09-28_13h06.50.692,forced_choiceRT_color,2021.2.3,Win32,59.48839976,j,1.9729,14,0,14,0,1,,,,,,,,,,,,,,,,
,,,,,,,,,,,,5e1553fd1e2e58b6448d8dcc,2021-09-28_13h06.50.692,forced_choiceRT_color,2021.2.3,Win32,59.48839976,j,2.0895,15,0,15,0,1,,,,,,,,,,,,,,,,
,,,,,,,,,,,,5e1553fd1e2e58b6448d8dcc,2021-09-28_13h06.50.692,forced_choiceRT_color,2021.2.3,Win32,59.48839976,j,2.0695,16,0,16,0,1,,,,,,,,,,,,,,,,
,,,,,,,,,,,,5e1553fd1e2e58b6448d8dcc,2021-09-28_13h06.50.692,forced_choiceRT_color,2021.2.3,Win32,59.48839976,j,2.0782,17,0,17,0,1,,,,,,,,,,,,,,,,
,,,,,,,,,,,,5e1553fd1e2e58b6448d8dcc,2021-09-28_13h06.50.692,forced_choiceRT_color,2021.2.3,Win32,59.48839976,j,2.0506,18,0,18,0,1,,,,,,,,,,,,,,,,
,,,,,,,,,,,,5e1553fd1e2e58b6448d8dcc,2021-09-28_13h06.50.692,forced_choiceRT_color,2021.2.3,Win32,59.48839976,j,1.886,19,0,19,0,1,,,,,,,,,,,,,,,,
,0.46,,,,,,,,,f,blue,5e1553fd1e2e58b6448d8dcc,2021-09-28_13h06.50.692,forced_choiceRT_color,2021.2.3,Win32,59.48839976,,,,,,,,1,Slow,long,f,1,2.2056,0,0,0,1,1,,,,,
,0.56,,,,,,,,,d,orange,5e1553fd1e2e58b6448d8dcc,2021-09-28_13h06.50.692,forced_choiceRT_color,2021.2.3,Win32,59.48839976,,,,,,,,1,Slow,long,d,1,2.1161,0,1,1,0,1,,,,,
,1.35,,,,,,,,,k,purple,5e1553fd1e2e58b6448d8dcc,2021-09-28_13h06.50.692,forced_choiceRT_color,2021.2.3,Win32,59.48839976,,,,,,,,1,Slow,long,k,1,2.1209,0,2,2,3,1,,,,,
,0.64,,,,,,,,,j,red,5e1553fd1e2e58b6448d8dcc,2021-09-28_13h06.50.692,forced_choiceRT_color,2021.2.3,Win32,59.48839976,,,,,,,,1,Fast,long,j,1,1.8328,0,3,3,2,1,,,,,
,1.33,,,,,,,,,j,red,5e1553fd1e2e58b6448d8dcc,2021-09-28_13h06.50.692,forced_choiceRT_color,2021.2.3,Win32,59.48839976,,,,,,,,1,Ontime,long,j,1,2.0676,1,0,4,2,1,,,,,
,0.85,,,,,,,,,j,red,5e1553fd1e2e58b6448d8dcc,2021-09-28_13h06.50.692,forced_choiceRT_color,2021.2.3,Win32,59.48839976,,,,,,,,1,Ontime,long,j,1,1.983,1,1,5,2,1,,,,,
,1.55,,,,,,,,,k,purple,5e1553fd1e2e58b6448d8dcc,2021-09-28_13h06.50.692,forced_choiceRT_color,2021.2.3,Win32,59.48839976,,,,,,,,1,Ontime,long,k,1,2.0834,1,2,6,3,1,,,,,
,0.73,,,,,,,,,j,red,5e1553fd1e2e58b6448d8dcc,2021-09-28_13h06.50.692,forced_choiceRT_color,2021.2.3,Win32,59.48839976,,,,,,,,1,Ontime,long,j,1,2.034,1,3,7,2,1,,,,,
,1.1,,,,,,,,,f,blue,5e1553fd1e2e58b6448d8dcc,2021-09-28_13h06.50.692,forced_choiceRT_color,2021.2.3,Win32,59.48839976,,,,,,,,1,Ontime,long,f,1,2.0447,2,0,8,1,1,,,,,
,1.47,,,,,,,,,k,purple,5e1553fd1e2e58b6448d8dcc,2021-09-28_13h06.50.692,forced_choiceRT_color,2021.2.3,Win32,59.48839976,,,,,,,,1,Slow,long,k,1,2.1417,2,1,9,3,1,,,,,
,0.08,,,,,,,,,d,orange,5e1553fd1e2e58b6448d8dcc,2021-09-28_13h06.50.692,forced_choiceRT_color,2021.2.3,Win32,59.48839976,,,,,,,,1,Ontime,long,d,1,1.99,2,2,10,0,1,,,,,
,0.78,,,,,,,,,k,purple,5e1553fd1e2e58b6448d8dcc,2021-09-28_13h06.50.692,forced_choiceRT_color,2021.2.3,Win32,59.48839976,,,,,,,,1,Ontime,long,k,1,2.0047,2,3,11,3,1,,,,,
,0.37,,,,,,,,,j,red,5e1553fd1e2e58b6448d8dcc,2021-09-28_13h06.50.692,forced_choiceRT_color,2021.2.3,Win32,59.48839976,,,,,,,,1,Ontime,long,j,1,2.0168,3,0,12,2,1,,,,,
,0.56,,,,,,,,,j,red,5e1553fd1e2e58b6448d8dcc,2021-09-28_13h06.50.692,forced_choiceRT_color,2021.2.3,Win32,59.48839976,,,,,,,,1,Ontime,long,j,1,1.9596,3,1,13,2,1,,,,,
,0.67,,,,,,,,,k,purple,5e1553fd1e2e58b6448d8dcc,2021-09-28_13h06.50.692,forced_choiceRT_color,2021.2.3,Win32,59.48839976,,,,,,,,1,Ontime,long,k,1,2.0073,3,2,14,3,1,,,,,
,1.01,,,,,,,,,d,orange,5e1553fd1e2e58b6448d8dcc,2021-09-28_13h06.50.692,forced_choiceRT_color,2021.2.3,Win32,59.48839976,,,,,,,,1,Ontime,long,d,1,2.0011,3,3,15,0,1,,,,,
,1.02,,,,,,,,,f,blue,5e1553fd1e2e58b6448d8dcc,2021-09-28_13h06.50.692,forced_choiceRT_color,2021.2.3,Win32,59.48839976,,,,,,,,1,Ontime,long,f,1,2.0255,4,0,16,1,1,,,,,
,0.56,,,,,,,,,d,orange,5e1553fd1e2e58b6448d8dcc,2021-09-28_13h06.50.692,forced_choiceRT_color,2021.2.3,Win32,59.48839976,,,,,,,,1,Ontime,long,d,1,2.0003,4,1,17,0,1,,,,,
,0.4,,,,,,,,,f,blue,5e1553fd1e2e58b6448d8dcc,2021-09-28_13h06.50.692,forced_choiceRT_color,2021.2.3,Win32,59.48839976,,,,,,,,1,Ontime,long,f,1,1.9702,4,2,18,1,1,,,,,
,0.68,,,,,,,,,k,purple,5e1553fd1e2e58b6448d8dcc,2021-09-28_13h06.50.692,forced_choiceRT_color,2021.2.3,Win32,59.48839976,,,,,,,,1,Ontime,long,k,1,2.0335,4,3,19,3,1,,,,,
,0.28,,,,,,,,,k,purple,5e1553fd1e2e58b6448d8dcc,2021-09-28_13h06.50.692,forced_choiceRT_color,2021.2.3,Win32,59.48839976,,,,,,,,1,Ontime,long,k,1,1.9886,5,0,20,3,1,,,,,
,0.21,,,,,,,,,f,blue,5e1553fd1e2e58b6448d8dcc,2021-09-28_13h06.50.692,forced_choiceRT_color,2021.2.3,Win32,59.48839976,,,,,,,,1,Ontime,long,f,1,1.9408,5,1,21,1,1,,,,,
,0,,,,,,,,,k,purple,5e1553fd1e2e58b6448d8dcc,2021-09-28_13h06.50.692,forced_choiceRT_color,2021.2.3,Win32,59.48839976,,,,,,,,1,Ontime,long,k,1,1.9663,5,2,22,3,1,,,,,
,1.36,,,,,,,,,j,red,5e1553fd1e2e58b6448d8dcc,2021-09-28_13h06.50.692,forced_choiceRT_color,2021.2.3,Win32,59.48839976,,,,,,,,1,Ontime,long,j,1,2.0501,5,3,23,2,1,,,,,
,0.24,,,,,,,,,d,orange,5e1553fd1e2e58b6448d8dcc,2021-09-28_13h06.50.692,forced_choiceRT_color,2021.2.3,Win32,59.48839976,,,,,,,,1,Ontime,long,d,1,1.9337,6,0,24,0,1,,,,,
,0.28,,,,,,,,,k,purple,5e1553fd1e2e58b6448d8dcc,2021-09-28_13h06.50.692,forced_choiceRT_color,2021.2.3,Win32,59.48839976,,,,,,,,1,Ontime,long,k,1,1.9661,6,1,25,3,1,,,,,
,0.92,,,,,,,,,f,blue,5e1553fd1e2e58b6448d8dcc,2021-09-28_13h06.50.692,forced_choiceRT_color,2021.2.3,Win32,59.48839976,,,,,,,,1,Ontime,long,f,1,1.9499,6,2,26,1,1,,,,,
,1.88,,,,,,,,,d,orange,5e1553fd1e2e58b6448d8dcc,2021-09-28_13h06.50.692,forced_choiceRT_color,2021.2.3,Win32,59.48839976,,,,,,,,1,Slow,long,f,0,2.383,6,3,27,0,1,,,,,
,0.66,,,,,,,,,f,blue,5e1553fd1e2e58b6448d8dcc,2021-09-28_13h06.50.692,forced_choiceRT_color,2021.2.3,Win32,59.48839976,,,,,,,,1,Ontime,long,f,1,1.9362,7,0,28,1,1,,,,,
,0.72,,,,,,,,,d,orange,5e1553fd1e2e58b6448d8dcc,2021-09-28_13h06.50.692,forced_choiceRT_color,2021.2.3,Win32,59.48839976,,,,,,,,1,Ontime,long,d,1,2.0001,7,1,29,0,1,,,,,
,0.59,,,,,,,,,f,blue,5e1553fd1e2e58b6448d8dcc,2021-09-28_13h06.50.692,forced_choiceRT_color,2021.2.3,Win32,59.48839976,,,,,,,,1,Ontime,long,f,1,2.034,7,2,30,1,1,,,,,
,1.77,,,,,,,,,j,red,5e1553fd1e2e58b6448d8dcc,2021-09-28_13h06.50.692,forced_choiceRT_color,2021.2.3,Win32,59.48839976,,,,,,,,1,Slow,long,j,1,2.2497,7,3,31,2,1,,,,,
,1.77,,,,,,,,,j,red,5e1553fd1e2e58b6448d8dcc,2021-09-28_13h06.50.692,forced_choiceRT_color,2021.2.3,Win32,59.48839976,,,,,,,,1,Slow,long,j,1,2.2536,8,0,32,2,1,,,,,
,0.5,,,,,,,,,d,orange,5e1553fd1e2e58b6448d8dcc,2021-09-28_13h06.50.692,forced_choiceRT_color,2021.2.3,Win32,59.48839976,,,,,,,,1,Fast,long,d,1,1.8336,8,1,33,0,1,,,,,
,1.33,,,,,,,,,d,orange,5e1553fd1e2e58b6448d8dcc,2021-09-28_13h06.50.692,forced_choiceRT_color,2021.2.3,Win32,59.48839976,,,,,,,,1,Ontime,long,d,1,1.9493,8,2,34,0,1,,,,,
,0.19,,,,,,,,,k,purple,5e1553fd1e2e58b6448d8dcc,2021-09-28_13h06.50.692,forced_choiceRT_color,2021.2.3,Win32,59.48839976,,,,,,,,1,Ontime,long,k,1,1.9001,8,3,35,3,1,,,,,
,1.35,,,,,,,,,j,red,5e1553fd1e2e58b6448d8dcc,2021-09-28_13h06.50.692,forced_choiceRT_color,2021.2.3,Win32,59.48839976,,,,,,,,1,Ontime,long,j,1,1.9103,9,0,36,2,1,,,,,
,1.33,,,,,,,,,d,orange,5e1553fd1e2e58b6448d8dcc,2021-09-28_13h06.50.692,forced_choiceRT_color,2021.2.3,Win32,59.48839976,,,,,,,,1,Ontime,long,d,1,2.0661,9,1,37,0,1,,,,,
,0.33,,,,,,,,,f,blue,5e1553fd1e2e58b6448d8dcc,2021-09-28_13h06.50.692,forced_choiceRT_color,2021.2.3,Win32,59.48839976,,,,,,,,1,Ontime,long,f,1,1.9334,9,2,38,1,1,,,,,
,0.18,,,,,,,,,f,blue,5e1553fd1e2e58b6448d8dcc,2021-09-28_13h06.50.692,forced_choiceRT_color,2021.2.3,Win32,59.48839976,,,,,,,,1,Fast,long,f,1,1.8915,9,3,39,1,1,,,,,
,,,,,,,,,,,,5e1553fd1e2e58b6448d8dcc,2021-09-28_13h06.50.692,forced_choiceRT_color,2021.2.3,Win32,59.48839976,,,,,,,,,,,,,,,,,,,0,0,0,0,1
,0.14,,,,,,,,,k,purple,5e1553fd1e2e58b6448d8dcc,2021-09-28_13h06.50.692,forced_choiceRT_color,2021.2.3,Win32,59.48839976,,,,,,,,2,Ontime,long,k,1,2.0217,0,0,0,3,1,,,,,
,0.59,,,,,,,,,f,blue,5e1553fd1e2e58b6448d8dcc,2021-09-28_13h06.50.692,forced_choiceRT_color,2021.2.3,Win32,59.48839976,,,,,,,,2,Ontime,long,f,1,1.9826,0,1,1,1,1,,,,,
,1.76,,,,,,,,,j,red,5e1553fd1e2e58b6448d8dcc,2021-09-28_13h06.50.692,forced_choiceRT_color,2021.2.3,Win32,59.48839976,,,,,,,,2,Slow,long,j,1,2.213,0,2,2,2,1,,,,,
,1.26,,,,,,,,,k,purple,5e1553fd1e2e58b6448d8dcc,2021-09-28_13h06.50.692,forced_choiceRT_color,2021.2.3,Win32,59.48839976,,,,,,,,2,Ontime,long,k,1,1.905,0,3,3,3,1,,,,,
,0.93,,,,,,,,,j,red,5e1553fd1e2e58b6448d8dcc,2021-09-28_13h06.50.692,forced_choiceRT_color,2021.2.3,Win32,59.48839976,,,,,,,,2,Ontime,long,j,1,1.982,1,0,4,2,1,,,,,
,0.6,,,,,,,,,k,purple,5e1553fd1e2e58b6448d8dcc,2021-09-28_13h06.50.692,forced_choiceRT_color,2021.2.3,Win32,59.48839976,,,,,,,,2,Ontime,long,k,1,1.9602,1,1,5,3,1,,,,,
,1.83,,,,,,,,,f,blue,5e1553fd1e2e58b6448d8dcc,2021-09-28_13h06.50.692,forced_choiceRT_color,2021.2.3,Win32,59.48839976,,,,,,,,2,Slow,long,f,1,2.2793,1,2,6,1,1,,,,,
,1.86,,,,,,,,,j,red,5e1553fd1e2e58b6448d8dcc,2021-09-28_13h06.50.692,forced_choiceRT_color,2021.2.3,Win32,59.48839976,,,,,,,,2,Slow,long,j,1,2.4195,1,3,7,2,1,,,,,
,0.09,,,,,,,,,f,blue,5e1553fd1e2e58b6448d8dcc,2021-09-28_13h06.50.692,forced_choiceRT_color,2021.2.3,Win32,59.48839976,,,,,,,,2,Ontime,long,f,1,1.9929,2,0,8,1,1,,,,,
,0.11,,,,,,,,,k,purple,5e1553fd1e2e58b6448d8dcc,2021-09-28_13h06.50.692,forced_choiceRT_color,2021.2.3,Win32,59.48839976,,,,,,,,2,Ontime,long,k,1,1.9476,2,1,9,3,1,,,,,
,0.58,,,,,,,,,k,purple,5e1553fd1e2e58b6448d8dcc,2021-09-28_13h06.50.692,forced_choiceRT_color,2021.2.3,Win32,59.48839976,,,,,,,,2,Ontime,long,k,1,1.9857,2,2,10,3,1,,,,,
,0.57,,,,,,,,,k,purple,5e1553fd1e2e58b6448d8dcc,2021-09-28_13h06.50.692,forced_choiceRT_color,2021.2.3,Win32,59.48839976,,,,,,,,2,Fast,long,k,1,1.895,2,3,11,3,1,,,,,
,1.52,,,,,,,,,d,orange,5e1553fd1e2e58b6448d8dcc,2021-09-28_13h06.50.692,forced_choiceRT_color,2021.2.3,Win32,59.48839976,,,,,,,,2,Slow,long,d,1,2.2557,3,0,12,0,1,,,,,
,1.61,,,,,,,,,d,orange,5e1553fd1e2e58b6448d8dcc,2021-09-28_13h06.50.692,forced_choiceRT_color,2021.2.3,Win32,59.48839976,,,,,,,,2,Ontime,long,d,1,2.0469,3,1,13,0,1,,,,,
,0.72,,,,,,,,,d,orange,5e1553fd1e2e58b6448d8dcc,2021-09-28_13h06.50.692,forced_choiceRT_color,2021.2.3,Win32,59.48839976,,,,,,,,2,Ontime,long,d,1,2.0044,3,2,14,0,1,,,,,
,1.84,,,,,,,,,j,red,5e1553fd1e2e58b6448d8dcc,2021-09-28_13h06.50.692,forced_choiceRT_color,2021.2.3,Win32,59.48839976,,,,,,,,2,Slow,long,j,1,2.2361,3,3,15,2,1,,,,,
,0.15,,,,,,,,,k,purple,5e1553fd1e2e58b6448d8dcc,2021-09-28_13h06.50.692,forced_choiceRT_color,2021.2.3,Win32,59.48839976,,,,,,,,2,Ontime,long,k,1,1.9988,4,0,16,3,1,,,,,
,0.5,,,,,,,,,f,blue,5e1553fd1e2e58b6448d8dcc,2021-09-28_13h06.50.692,forced_choiceRT_color,2021.2.3,Win32,59.48839976,,,,,,,,2,Ontime,long,f,1,1.9375,4,1,17,1,1,,,,,
,1.33,,,,,,,,,d,orange,5e1553fd1e2e58b6448d8dcc,2021-09-28_13h06.50.692,forced_choiceRT_color,2021.2.3,Win32,59.48839976,,,,,,,,2,Ontime,long,d,1,2.0046,4,2,18,0,1,,,,,
,0.7,,,,,,,,,j,red,5e1553fd1e2e58b6448d8dcc,2021-09-28_13h06.50.692,forced_choiceRT_color,2021.2.3,Win32,59.48839976,,,,,,,,2,Ontime,long,j,1,1.9883,4,3,19,2,1,,,,,
,1.09,,,,,,,,,d,orange,5e1553fd1e2e58b6448d8dcc,2021-09-28_13h06.50.692,forced_choiceRT_color,2021.2.3,Win32,59.48839976,,,,,,,,2,Ontime,long,f,0,2.0512,5,0,20,0,1,,,,,
,1.83,,,,,,,,,f,blue,5e1553fd1e2e58b6448d8dcc,2021-09-28_13h06.50.692,forced_choiceRT_color,2021.2.3,Win32,59.48839976,,,,,,,,2,Slow,long,f,1,2.3875,5,1,21,1,1,,,,,
,0.13,,,,,,,,,k,purple,5e1553fd1e2e58b6448d8dcc,2021-09-28_13h06.50.692,forced_choiceRT_color,2021.2.3,Win32,59.48839976,,,,,,,,2,Ontime,long,k,1,1.9964,5,2,22,3,1,,,,,
,1.91,,,,,,,,,j,red,5e1553fd1e2e58b6448d8dcc,2021-09-28_13h06.50.692,forced_choiceRT_color,2021.2.3,Win32,59.48839976,,,,,,,,2,Slow,long,f,0,2.4898,5,3,23,2,1,,,,,
,0.8,,,,,,,,,j,red,5e1553fd1e2e58b6448d8dcc,2021-09-28_13h06.50.692,forced_choiceRT_color,2021.2.3,Win32,59.48839976,,,,,,,,2,Ontime,long,j,1,2.0511,6,0,24,2,1,,,,,
,1.92,,,,,,,,,f,blue,5e1553fd1e2e58b6448d8dcc,2021-09-28_13h06.50.692,forced_choiceRT_color,2021.2.3,Win32,59.48839976,,,,,,,,2,Slow,long,f,1,2.3756,6,1,25,1,1,,,,,
,1.09,,,,,,,,,d,orange,5e1553fd1e2e58b6448d8dcc,2021-09-28_13h06.50.692,forced_choiceRT_color,2021.2.3,Win32,59.48839976,,,,,,,,2,Ontime,long,d,1,2.0012,6,2,26,0,1,,,,,
,0.3,,,,,,,,,f,blue,5e1553fd1e2e58b6448d8dcc,2021-09-28_13h06.50.692,forced_choiceRT_color,2021.2.3,Win32,59.48839976,,,,,,,,2,Ontime,long,f,1,1.9856,6,3,27,1,1,,,,,
,1.35,,,,,,,,,f,blue,5e1553fd1e2e58b6448d8dcc,2021-09-28_13h06.50.692,forced_choiceRT_color,2021.2.3,Win32,59.48839976,,,,,,,,2,Ontime,long,f,1,1.9764,7,0,28,1,1,,,,,
,0.74,,,,,,,,,f,blue,5e1553fd1e2e58b6448d8dcc,2021-09-28_13h06.50.692,forced_choiceRT_color,2021.2.3,Win32,59.48839976,,,,,,,,2,Ontime,long,f,1,2.0637,7,1,29,1,1,,,,,
,0.37,,,,,,,,,k,purple,5e1553fd1e2e58b6448d8dcc,2021-09-28_13h06.50.692,forced_choiceRT_color,2021.2.3,Win32,59.48839976,,,,,,,,2,Ontime,long,k,1,2.0155,7,2,30,3,1,,,,,
,1.78,,,,,,,,,k,purple,5e1553fd1e2e58b6448d8dcc,2021-09-28_13h06.50.692,forced_choiceRT_color,2021.2.3,Win32,59.48839976,,,,,,,,2,Slow,long,k,1,2.4095,7,3,31,3,1,,,,,
,1.36,,,,,,,,,d,orange,5e1553fd1e2e58b6448d8dcc,2021-09-28_13h06.50.692,forced_choiceRT_color,2021.2.3,Win32,59.48839976,,,,,,,,2,Slow,long,d,1,2.1643,8,0,32,0,1,,,,,
,0.78,,,,,,,,,j,red,5e1553fd1e2e58b6448d8dcc,2021-09-28_13h06.50.692,forced_choiceRT_color,2021.2.3,Win32,59.48839976,,,,,,,,2,Ontime,long,j,1,1.9927,8,1,33,2,1,,,,,
,1.81,,,,,,,,,d,orange,5e1553fd1e2e58b6448d8dcc,2021-09-28_13h06.50.692,forced_choiceRT_color,2021.2.3,Win32,59.48839976,,,,,,,,2,Slow,long,f,0,2.3094,8,2,34,0,1,,,,,
,0.23,,,,,,,,,d,orange,5e1553fd1e2e58b6448d8dcc,2021-09-28_13h06.50.692,forced_choiceRT_color,2021.2.3,Win32,59.48839976,,,,,,,,2,Ontime,long,d,1,1.9586,8,3,35,0,1,,,,,
,1.1,,,,,,,,,j,red,5e1553fd1e2e58b6448d8dcc,2021-09-28_13h06.50.692,forced_choiceRT_color,2021.2.3,Win32,59.48839976,,,,,,,,2,Ontime,long,j,1,2.0883,9,0,36,2,1,,,,,
,1.59,,,,,,,,,j,red,5e1553fd1e2e58b6448d8dcc,2021-09-28_13h06.50.692,forced_choiceRT_color,2021.2.3,Win32,59.48839976,,,,,,,,2,Slow,long,j,1,2.1288,9,1,37,2,1,,,,,
,0.24,,,,,,,,,f,blue,5e1553fd1e2e58b6448d8dcc,2021-09-28_13h06.50.692,forced_choiceRT_color,2021.2.3,Win32,59.48839976,,,,,,,,2,Ontime,long,f,1,2.0519,9,2,38,1,1,,,,,
,0.22,,,,,,,,,d,orange,5e1553fd1e2e58b6448d8dcc,2021-09-28_13h06.50.692,forced_choiceRT_color,2021.2.3,Win32,59.48839976,,,,,,,,2,Ontime,long,d,1,2.0262,9,3,39,0,1,,,,,
,,,,,,,,,,,,5e1553fd1e2e58b6448d8dcc,2021-09-28_13h06.50.692,forced_choiceRT_color,2021.2.3,Win32,59.48839976,,,,,,,,,,,,,,,,,,,1,0,1,0,1
,0.21,,,,,,,,,d,orange,5e1553fd1e2e58b6448d8dcc,2021-09-28_13h06.50.692,forced_choiceRT_color,2021.2.3,Win32,59.48839976,,,,,,,,3,Ontime,long,d,1,1.9912,0,0,0,0,1,,,,,
,0.08,,,,,,,,,k,purple,5e1553fd1e2e58b6448d8dcc,2021-09-28_13h06.50.692,forced_choiceRT_color,2021.2.3,Win32,59.48839976,,,,,,,,3,Ontime,long,k,1,2.0452,0,1,1,3,1,,,,,
,0.22,,,,,,,,,d,orange,5e1553fd1e2e58b6448d8dcc,2021-09-28_13h06.50.692,forced_choiceRT_color,2021.2.3,Win32,59.48839976,,,,,,,,3,Ontime,long,d,1,2.0133,0,2,2,0,1,,,,,
,0.24,,,,,,,,,k,purple,5e1553fd1e2e58b6448d8dcc,2021-09-28_13h06.50.692,forced_choiceRT_color,2021.2.3,Win32,59.48839976,,,,,,,,3,Ontime,long,k,1,2.0295,0,3,3,3,1,,,,,
,0.83,,,,,,,,,d,orange,5e1553fd1e2e58b6448d8dcc,2021-09-28_13h06.50.692,forced_choiceRT_color,2021.2.3,Win32,59.48839976,,,,,,,,3,Ontime,long,d,1,2.0178,1,0,4,0,1,,,,,
,1.14,,,,,,,,,d,orange,5e1553fd1e2e58b6448d8dcc,2021-09-28_13h06.50.692,forced_choiceRT_color,2021.2.3,Win32,59.48839976,,,,,,,,3,Ontime,long,d,1,2.0499,1,1,5,0,1,,,,,
,0.19,,,,,,,,,k,purple,5e1553fd1e2e58b6448d8dcc,2021-09-28_13h06.50.692,forced_choiceRT_color,2021.2.3,Win32,59.48839976,,,,,,,,3,Ontime,long,k,1,2.0297,1,2,6,3,1,,,,,
,1.18,,,,,,,,,f,blue,5e1553fd1e2e58b6448d8dcc,2021-09-28_13h06.50.692,forced_choiceRT_color,2021.2.3,Win32,59.48839976,,,,,,,,3,Ontime,long,f,1,2.0292,1,3,7,1,1,,,,,
,1.33,,,,,,,,,d,orange,5e1553fd1e2e58b6448d8dcc,2021-09-28_13h06.50.692,forced_choiceRT_color,2021.2.3,Win32,59.48839976,,,,,,,,3,Ontime,long,d,1,2.0718,2,0,8,0,1,,,,,
,0.74,,,,,,,,,d,orange,5e1553fd1e2e58b6448d8dcc,2021-09-28_13h06.50.692,forced_choiceRT_color,2021.2.3,Win32,59.48839976,,,,,,,,3,Ontime,long,f,0,1.9789,2,1,9,0,1,,,,,
,1.43,,,,,,,,,k,purple,5e1553fd1e2e58b6448d8dcc,2021-09-28_13h06.50.692,forced_choiceRT_color,2021.2.3,Win32,59.48839976,,,,,,,,3,Ontime,long,k,1,2.0297,2,2,10,3,1,,,,,
,0.17,,,,,,,,,f,blue,5e1553fd1e2e58b6448d8dcc,2021-09-28_13h06.50.692,forced_choiceRT_color,2021.2.3,Win32,59.48839976,,,,,,,,3,Ontime,long,f,1,2.0671,2,3,11,1,1,,,,,
,1.44,,,,,,,,,f,blue,5e1553fd1e2e58b6448d8dcc,2021-09-28_13h06.50.692,forced_choiceRT_color,2021.2.3,Win32,59.48839976,,,,,,,,3,Ontime,long,f,1,2.0932,3,0,12,1,1,,,,,
,1.66,,,,,,,,,k,purple,5e1553fd1e2e58b6448d8dcc,2021-09-28_13h06.50.692,forced_choiceRT_color,2021.2.3,Win32,59.48839976,,,,,,,,3,Slow,long,k,1,2.2789,3,1,13,3,1,,,,,
,0.46,,,,,,,,,d,orange,5e1553fd1e2e58b6448d8dcc,2021-09-28_13h06.50.692,forced_choiceRT_color,2021.2.3,Win32,59.48839976,,,,,,,,3,Ontime,long,f,0,2.0203,3,2,14,0,1,,,,,
,0.7,,,,,,,,,f,blue,5e1553fd1e2e58b6448d8dcc,2021-09-28_13h06.50.692,forced_choiceRT_color,2021.2.3,Win32,59.48839976,,,,,,,,3,Ontime,long,f,1,2.0123,3,3,15,1,1,,,,,
,0.97,,,,,,,,,j,red,5e1553fd1e2e58b6448d8dcc,2021-09-28_13h06.50.692,forced_choiceRT_color,2021.2.3,Win32,59.48839976,,,,,,,,3,Ontime,long,j,1,1.9652,4,0,16,2,1,,,,,
,1.58,,,,,,,,,j,red,5e1553fd1e2e58b6448d8dcc,2021-09-28_13h06.50.692,forced_choiceRT_color,2021.2.3,Win32,59.48839976,,,,,,,,3,Ontime,long,j,1,2.0763,4,1,17,2,1,,,,,
,1.84,,,,,,,,,j,red,5e1553fd1e2e58b6448d8dcc,2021-09-28_13h06.50.692,forced_choiceRT_color,2021.2.3,Win32,59.48839976,,,,,,,,3,Slow,long,j,1,2.2931,4,2,18,2,1,,,,,
,0.45,,,,,,,,,k,purple,5e1553fd1e2e58b6448d8dcc,2021-09-28_13h06.50.692,forced_choiceRT_color,2021.2.3,Win32,59.48839976,,,,,,,,3,Ontime,long,k,1,2.0449,4,3,19,3,1,,,,,
,0.23,,,,,,,,,f,blue,5e1553fd1e2e58b6448d8dcc,2021-09-28_13h06.50.692,forced_choiceRT_color,2021.2.3,Win32,59.48839976,,,,,,,,3,Ontime,long,f,1,2.0387,5,0,20,1,1,,,,,
,1.49,,,,,,,,,j,red,5e1553fd1e2e58b6448d8dcc,2021-09-28_13h06.50.692,forced_choiceRT_color,2021.2.3,Win32,59.48839976,,,,,,,,3,Ontime,long,j,1,1.9486,5,1,21,2,1,,,,,
,1.33,,,,,,,,,f,blue,5e1553fd1e2e58b6448d8dcc,2021-09-28_13h06.50.692,forced_choiceRT_color,2021.2.3,Win32,59.48839976,,,,,,,,3,Ontime,long,f,1,2.0446,5,2,22,1,1,,,,,
,1.13,,,,,,,,,j,red,5e1553fd1e2e58b6448d8dcc,2021-09-28_13h06.50.692,forced_choiceRT_color,2021.2.3,Win32,59.48839976,,,,,,,,3,Ontime,long,j,1,2.0316,5,3,23,2,1,,,,,
,1.55,,,,,,,,,j,red,5e1553fd1e2e58b6448d8dcc,2021-09-28_13h06.50.692,forced_choiceRT_color,2021.2.3,Win32,59.48839976,,,,,,,,3,Ontime,long,j,1,2.0851,6,0,24,2,1,,,,,
,0.19,,,,,,,,,f,blue,5e1553fd1e2e58b6448d8dcc,2021-09-28_13h06.50.692,forced_choiceRT_color,2021.2.3,Win32,59.48839976,,,,,,,,3,Ontime,long,f,1,2.0375,6,1,25,1,1,,,,,
,0.44,,,,,,,,,j,red,5e1553fd1e2e58b6448d8dcc,2021-09-28_13h06.50.692,forced_choiceRT_color,2021.2.3,Win32,59.48839976,,,,,,,,3,Ontime,long,j,1,2.0627,6,2,26,2,1,,,,,
,0.52,,,,,,,,,j,red,5e1553fd1e2e58b6448d8dcc,2021-09-28_13h06.50.692,forced_choiceRT_color,2021.2.3,Win32,59.48839976,,,,,,,,3,Ontime,long,j,1,2.0314,6,3,27,2,1,,,,,
,1.88,,,,,,,,,k,purple,5e1553fd1e2e58b6448d8dcc,2021-09-28_13h06.50.692,forced_choiceRT_color,2021.2.3,Win32,59.48839976,,,,,,,,3,Slow,long,k,1,2.329,7,0,28,3,1,,,,,
,1.45,,,,,,,,,d,orange,5e1553fd1e2e58b6448d8dcc,2021-09-28_13h06.50.692,forced_choiceRT_color,2021.2.3,Win32,59.48839976,,,,,,,,3,Ontime,long,d,1,2.0708,7,1,29,0,1,,,,,
,0.18,,,,,,,,,f,blue,5e1553fd1e2e58b6448d8dcc,2021-09-28_13h06.50.692,forced_choiceRT_color,2021.2.3,Win32,59.48839976,,,,,,,,3,Ontime,long,f,1,1.989,7,2,30,1,1,,,,,
,0.07,,,,,,,,,j,red,5e1553fd1e2e58b6448d8dcc,2021-09-28_13h06.50.692,forced_choiceRT_color,2021.2.3,Win32,59.48839976,,,,,,,,3,Ontime,long,j,1,2.0117,7,3,31,2,1,,,,,
,1.47,,,,,,,,,d,orange,5e1553fd1e2e58b6448d8dcc,2021-09-28_13h06.50.692,forced_choiceRT_color,2021.2.3,Win32,59.48839976,,,,,,,,3,Slow,long,d,1,2.2355,8,0,32,0,1,,,,,
,1.11,,,,,,,,,k,purple,5e1553fd1e2e58b6448d8dcc,2021-09-28_13h06.50.692,forced_choiceRT_color,2021.2.3,Win32,59.48839976,,,,,,,,3,Ontime,long,k,1,2.0458,8,1,33,3,1,,,,,
,0.79,,,,,,,,,j,red,5e1553fd1e2e58b6448d8dcc,2021-09-28_13h06.50.692,forced_choiceRT_color,2021.2.3,Win32,59.48839976,,,,,,,,3,Ontime,long,j,1,1.9931,8,2,34,2,1,,,,,
,1.99,,,,,,,,,f,blue,5e1553fd1e2e58b6448d8dcc,2021-09-28_13h06.50.692,forced_choiceRT_color,2021.2.3,Win32,59.48839976,,,,,,,,3,Slow,long,f,1,4.0945,8,3,35,1,1,,,,,
,0.04,,,,,,,,,f,blue,5e1553fd1e2e58b6448d8dcc,2021-09-28_13h06.50.692,forced_choiceRT_color,2021.2.3,Win32,59.48839976,,,,,,,,3,Ontime,long,f,1,1.9933,9,0,36,1,1,,,,,
,0.71,,,,,,,,,k,purple,5e1553fd1e2e58b6448d8dcc,2021-09-28_13h06.50.692,forced_choiceRT_color,2021.2.3,Win32,59.48839976,,,,,,,,3,Ontime,long,k,1,2.0761,9,1,37,3,1,,,,,
,0.4,,,,,,,,,k,purple,5e1553fd1e2e58b6448d8dcc,2021-09-28_13h06.50.692,forced_choiceRT_color,2021.2.3,Win32,59.48839976,,,,,,,,3,Ontime,long,k,1,2.0043,9,2,38,3,1,,,,,
,1.12,,,,,,,,,d,orange,5e1553fd1e2e58b6448d8dcc,2021-09-28_13h06.50.692,forced_choiceRT_color,2021.2.3,Win32,59.48839976,,,,,,,,3,Ontime,long,f,0,2.0596,9,3,39,0,1,,,,,
,,,,,,,,,,,,5e1553fd1e2e58b6448d8dcc,2021-09-28_13h06.50.692,forced_choiceRT_color,2021.2.3,Win32,59.48839976,,,,,,,,,,,,,,,,,,,2,0,2,0,1
,1.46,,,,,,,,,f,blue,5e1553fd1e2e58b6448d8dcc,2021-09-28_13h06.50.692,forced_choiceRT_color,2021.2.3,Win32,59.48839976,,,,,,,,4,Slow,long,f,1,2.1346,0,0,0,1,1,,,,,
,1.7,,,,,,,,,f,blue,5e1553fd1e2e58b6448d8dcc,2021-09-28_13h06.50.692,forced_choiceRT_color,2021.2.3,Win32,59.48839976,,,,,,,,4,Slow,long,f,1,2.226,0,1,1,1,1,,,,,
,0.02,,,,,,,,,f,blue,5e1553fd1e2e58b6448d8dcc,2021-09-28_13h06.50.692,forced_choiceRT_color,2021.2.3,Win32,59.48839976,,,,,,,,4,Ontime,long,f,1,1.9813,0,2,2,1,1,,,,,
,0.9,,,,,,,,,k,purple,5e1553fd1e2e58b6448d8dcc,2021-09-28_13h06.50.692,forced_choiceRT_color,2021.2.3,Win32,59.48839976,,,,,,,,4,Ontime,long,k,1,2.0129,0,3,3,3,1,,,,,
,0.43,,,,,,,,,f,blue,5e1553fd1e2e58b6448d8dcc,2021-09-28_13h06.50.692,forced_choiceRT_color,2021.2.3,Win32,59.48839976,,,,,,,,4,Ontime,long,f,1,2.0186,1,0,4,1,1,,,,,
,0.51,,,,,,,,,d,orange,5e1553fd1e2e58b6448d8dcc,2021-09-28_13h06.50.692,forced_choiceRT_color,2021.2.3,Win32,59.48839976,,,,,,,,4,Ontime,long,d,1,1.9261,1,1,5,0,1,,,,,
,1.46,,,,,,,,,f,blue,5e1553fd1e2e58b6448d8dcc,2021-09-28_13h06.50.692,forced_choiceRT_color,2021.2.3,Win32,59.48839976,,,,,,,,4,Ontime,long,f,1,2.076,1,2,6,1,1,,,,,
,0.95,,,,,,,,,k,purple,5e1553fd1e2e58b6448d8dcc,2021-09-28_13h06.50.692,forced_choiceRT_color,2021.2.3,Win32,59.48839976,,,,,,,,4,Slow,long,k,1,2.1963,1,3,7,3,1,,,,,
,1.3,,,,,,,,,j,red,5e1553fd1e2e58b6448d8dcc,2021-09-28_13h06.50.692,forced_choiceRT_color,2021.2.3,Win32,59.48839976,,,,,,,,4,Ontime,long,j,1,2.0927,2,0,8,2,1,,,,,
,1.55,,,,,,,,,k,purple,5e1553fd1e2e58b6448d8dcc,2021-09-28_13h06.50.692,forced_choiceRT_color,2021.2.3,Win32,59.48839976,,,,,,,,4,Ontime,long,k,1,2.0334,2,1,9,3,1,,,,,
,0.49,,,,,,,,,k,purple,5e1553fd1e2e58b6448d8dcc,2021-09-28_13h06.50.692,forced_choiceRT_color,2021.2.3,Win32,59.48839976,,,,,,,,4,Ontime,long,k,1,2.0592,2,2,10,3,1,,,,,
,1.9,,,,,,,,,d,orange,5e1553fd1e2e58b6448d8dcc,2021-09-28_13h06.50.692,forced_choiceRT_color,2021.2.3,Win32,59.48839976,,,,,,,,4,Slow,long,f,0,2.3456,2,3,11,0,1,,,,,
,0.47,,,,,,,,,d,orange,5e1553fd1e2e58b6448d8dcc,2021-09-28_13h06.50.692,forced_choiceRT_color,2021.2.3,Win32,59.48839976,,,,,,,,4,Ontime,long,d,1,2.0458,3,0,12,0,1,,,,,
,0.15,,,,,,,,,j,red,5e1553fd1e2e58b6448d8dcc,2021-09-28_13h06.50.692,forced_choiceRT_color,2021.2.3,Win32,59.48839976,,,,,,,,4,Ontime,long,j,1,2.0126,3,1,13,2,1,,,,,
,0.25,,,,,,,,,d,orange,5e1553fd1e2e58b6448d8dcc,2021-09-28_13h06.50.692,forced_choiceRT_color,2021.2.3,Win32,59.48839976,,,,,,,,4,Fast,long,d,1,1.8797,3,2,14,0,1,,,,,
,0.96,,,,,,,,,d,orange,5e1553fd1e2e58b6448d8dcc,2021-09-28_13h06.50.692,forced_choiceRT_color,2021.2.3,Win32,59.48839976,,,,,,,,4,Ontime,long,d,1,2.012,3,3,15,0,1,,,,,
,1.96,,,,,,,,,k,purple,5e1553fd1e2e58b6448d8dcc,2021-09-28_13h06.50.692,forced_choiceRT_color,2021.2.3,Win32,59.48839976,,,,,,,,4,Slow,long,f,0,2.499,4,0,16,3,1,,,,,
,1.56,,,,,,,,,k,purple,5e1553fd1e2e58b6448d8dcc,2021-09-28_13h06.50.692,forced_choiceRT_color,2021.2.3,Win32,59.48839976,,,,,,,,4,Ontime,long,k,1,2.0268,4,1,17,3,1,,,,,
,1.28,,,,,,,,,j,red,5e1553fd1e2e58b6448d8dcc,2021-09-28_13h06.50.692,forced_choiceRT_color,2021.2.3,Win32,59.48839976,,,,,,,,4,Ontime,long,j,1,2.0852,4,2,18,2,1,,,,,
,1.11,,,,,,,,,d,orange,5e1553fd1e2e58b6448d8dcc,2021-09-28_13h06.50.692,forced_choiceRT_color,2021.2.3,Win32,59.48839976,,,,,,,,4,Ontime,long,d,1,2.0804,4,3,19,0,1,,,,,
,0.18,,,,,,,,,d,orange,5e1553fd1e2e58b6448d8dcc,2021-09-28_13h06.50.692,forced_choiceRT_color,2021.2.3,Win32,59.48839976,,,,,,,,4,Ontime,long,d,1,2.0951,5,0,20,0,1,,,,,
,0.6,,,,,,,,,j,red,5e1553fd1e2e58b6448d8dcc,2021-09-28_13h06.50.692,forced_choiceRT_color,2021.2.3,Win32,59.48839976,,,,,,,,4,Ontime,long,k,0,2.0098,5,1,21,2,1,,,,,
,1.84,,,,,,,,,j,red,5e1553fd1e2e58b6448d8dcc,2021-09-28_13h06.50.692,forced_choiceRT_color,2021.2.3,Win32,59.48839976,,,,,,,,4,Slow,long,j,1,2.2874,5,2,22,2,1,,,,,
,0.87,,,,,,,,,j,red,5e1553fd1e2e58b6448d8dcc,2021-09-28_13h06.50.692,forced_choiceRT_color,2021.2.3,Win32,59.48839976,,,,,,,,4,Ontime,long,j,1,2.0121,5,3,23,2,1,,,,,
,1.75,,,,,,,,,k,purple,5e1553fd1e2e58b6448d8dcc,2021-09-28_13h06.50.692,forced_choiceRT_color,2021.2.3,Win32,59.48839976,,,,,,,,4,Slow,long,k,1,2.3548,6,0,24,3,1,,,,,
,0.06,,,,,,,,,j,red,5e1553fd1e2e58b6448d8dcc,2021-09-28_13h06.50.692,forced_choiceRT_color,2021.2.3,Win32,59.48839976,,,,,,,,4,Ontime,long,j,1,2.0453,6,1,25,2,1,,,,,
,0.96,,,,,,,,,k,purple,5e1553fd1e2e58b6448d8dcc,2021-09-28_13h06.50.692,forced_choiceRT_color,2021.2.3,Win32,59.48839976,,,,,,,,4,Ontime,long,k,1,2.0287,6,2,26,3,1,,,,,
,0.52,,,,,,,,,j,red,5e1553fd1e2e58b6448d8dcc,2021-09-28_13h06.50.692,forced_choiceRT_color,2021.2.3,Win32,59.48839976,,,,,,,,4,Ontime,long,j,1,2.012,6,3,27,2,1,,,,,
,1.79,,,,,,,,,f,blue,5e1553fd1e2e58b6448d8dcc,2021-09-28_13h06.50.692,forced_choiceRT_color,2021.2.3,Win32,59.48839976,,,,,,,,4,Slow,long,f,1,2.2962,7,0,28,1,1,,,,,
,0.4,,,,,,,,,f,blue,5e1553fd1e2e58b6448d8dcc,2021-09-28_13h06.50.692,forced_choiceRT_color,2021.2.3,Win32,59.48839976,,,,,,,,4,Ontime,long,f,1,1.9677,7,1,29,1,1,,,,,
,1.6,,,,,,,,,f,blue,5e1553fd1e2e58b6448d8dcc,2021-09-28_13h06.50.692,forced_choiceRT_color,2021.2.3,Win32,59.48839976,,,,,,,,4,Ontime,long,f,1,2.0484,7,2,30,1,1,,,,,
,0.61,,,,,,,,,d,orange,5e1553fd1e2e58b6448d8dcc,2021-09-28_13h06.50.692,forced_choiceRT_color,2021.2.3,Win32,59.48839976,,,,,,,,4,Ontime,long,d,1,2.0096,7,3,31,0,1,,,,,
,0.4,,,,,,,,,d,orange,5e1553fd1e2e58b6448d8dcc,2021-09-28_13h06.50.692,forced_choiceRT_color,2021.2.3,Win32,59.48839976,,,,,,,,4,Ontime,long,d,1,1.981,8,0,32,0,1,,,,,
,0.04,,,,,,,,,f,blue,5e1553fd1e2e58b6448d8dcc,2021-09-28_13h06.50.692,forced_choiceRT_color,2021.2.3,Win32,59.48839976,,,,,,,,4,Ontime,long,f,1,1.9472,8,1,33,1,1,,,,,
,0.15,,,,,,,,,j,red,5e1553fd1e2e58b6448d8dcc,2021-09-28_13h06.50.692,forced_choiceRT_color,2021.2.3,Win32,59.48839976,,,,,,,,4,Ontime,long,j,1,2.0211,8,2,34,2,1,,,,,
,0.3,,,,,,,,,j,red,5e1553fd1e2e58b6448d8dcc,2021-09-28_13h06.50.692,forced_choiceRT_color,2021.2.3,Win32,59.48839976,,,,,,,,4,Ontime,long,j,1,2.0265,8,3,35,2,1,,,,,
,0.54,,,,,,,,,f,blue,5e1553fd1e2e58b6448d8dcc,2021-09-28_13h06.50.692,forced_choiceRT_color,2021.2.3,Win32,59.48839976,,,,,,,,4,Ontime,long,f,1,2.0667,9,0,36,1,1,,,,,
,1.32,,,,,,,,,k,purple,5e1553fd1e2e58b6448d8dcc,2021-09-28_13h06.50.692,forced_choiceRT_color,2021.2.3,Win32,59.48839976,,,,,,,,4,Slow,long,k,1,2.2495,9,1,37,3,1,,,,,
,0.4,,,,,,,,,k,purple,5e1553fd1e2e58b6448d8dcc,2021-09-28_13h06.50.692,forced_choiceRT_color,2021.2.3,Win32,59.48839976,,,,,,,,4,Slow,long,k,1,2.1341,9,2,38,3,1,,,,,
,1.83,,,,,,,,,d,orange,5e1553fd1e2e58b6448d8dcc,2021-09-28_13h06.50.692,forced_choiceRT_color,2021.2.3,Win32,59.48839976,,,,,,,,4,Slow,long,d,1,2.4212,9,3,39,0,1,,,,,
,,,,,,,,,,,,5e1553fd1e2e58b6448d8dcc,2021-09-28_13h06.50.692,forced_choiceRT_color,2021.2.3,Win32,59.48839976,,,,,,,,,,,,,,,,,,,3,0,3,0,1
,0.26,,,,,,,,,j,red,5e1553fd1e2e58b6448d8dcc,2021-09-28_13h06.50.692,forced_choiceRT_color,2021.2.3,Win32,59.48839976,,,,,,,,5,Ontime,long,j,1,2.0276,0,0,0,2,1,,,,,
,1.97,,,,,,,,,d,orange,5e1553fd1e2e58b6448d8dcc,2021-09-28_13h06.50.692,forced_choiceRT_color,2021.2.3,Win32,59.48839976,,,,,,,,5,Slow,long,f,0,2.4184,0,1,1,0,1,,,,,
,1.66,,,,,,,,,d,orange,5e1553fd1e2e58b6448d8dcc,2021-09-28_13h06.50.692,forced_choiceRT_color,2021.2.3,Win32,59.48839976,,,,,,,,5,Slow,long,d,1,2.1454,0,2,2,0,1,,,,,
,0.31,,,,,,,,,j,red,5e1553fd1e2e58b6448d8dcc,2021-09-28_13h06.50.692,forced_choiceRT_color,2021.2.3,Win32,59.48839976,,,,,,,,5,Ontime,long,j,1,2.0227,0,3,3,2,1,,,,,
,0.04,,,,,,,,,f,blue,5e1553fd1e2e58b6448d8dcc,2021-09-28_13h06.50.692,forced_choiceRT_color,2021.2.3,Win32,59.48839976,,,,,,,,5,Fast,long,f,1,1.8821,1,0,4,1,1,,,,,
,0.08,,,,,,,,,f,blue,5e1553fd1e2e58b6448d8dcc,2021-09-28_13h06.50.692,forced_choiceRT_color,2021.2.3,Win32,59.48839976,,,,,,,,5,Ontime,long,f,1,2.0507,1,1,5,1,1,,,,,
,0.98,,,,,,,,,k,purple,5e1553fd1e2e58b6448d8dcc,2021-09-28_13h06.50.692,forced_choiceRT_color,2021.2.3,Win32,59.48839976,,,,,,,,5,Ontime,long,k,1,2.0797,1,2,6,3,1,,,,,
,0.45,,,,,,,,,f,blue,5e1553fd1e2e58b6448d8dcc,2021-09-28_13h06.50.692,forced_choiceRT_color,2021.2.3,Win32,59.48839976,,,,,,,,5,Ontime,long,f,1,2.0437,1,3,7,1,1,,,,,
,0.76,,,,,,,,,k,purple,5e1553fd1e2e58b6448d8dcc,2021-09-28_13h06.50.692,forced_choiceRT_color,2021.2.3,Win32,59.48839976,,,,,,,,5,Ontime,long,k,1,2.0679,2,0,8,3,1,,,,,
,1.02,,,,,,,,,d,orange,5e1553fd1e2e58b6448d8dcc,2021-09-28_13h06.50.692,forced_choiceRT_color,2021.2.3,Win32,59.48839976,,,,,,,,5,Ontime,long,d,1,2.048,2,1,9,0,1,,,,,
,0.6,,,,,,,,,f,blue,5e1553fd1e2e58b6448d8dcc,2021-09-28_13h06.50.692,forced_choiceRT_color,2021.2.3,Win32,59.48839976,,,,,,,,5,Ontime,long,f,1,1.9553,2,2,10,1,1,,,,,
,1.42,,,,,,,,,j,red,5e1553fd1e2e58b6448d8dcc,2021-09-28_13h06.50.692,forced_choiceRT_color,2021.2.3,Win32,59.48839976,,,,,,,,5,Slow,long,j,1,2.4833,2,3,11,2,1,,,,,
,1.21,,,,,,,,,j,red,5e1553fd1e2e58b6448d8dcc,2021-09-28_13h06.50.692,forced_choiceRT_color,2021.2.3,Win32,59.48839976,,,,,,,,5,Ontime,long,j,1,2.0648,3,0,12,2,1,,,,,
,1.44,,,,,,,,,d,orange,5e1553fd1e2e58b6448d8dcc,2021-09-28_13h06.50.692,forced_choiceRT_color,2021.2.3,Win32,59.48839976,,,,,,,,5,Ontime,long,d,1,2.0831,3,1,13,0,1,,,,,
,0.37,,,,,,,,,j,red,5e1553fd1e2e58b6448d8dcc,2021-09-28_13h06.50.692,forced_choiceRT_color,2021.2.3,Win32,59.48839976,,,,,,,,5,Ontime,long,j,1,2.0595,3,2,14,2,1,,,,,
,0.8,,,,,,,,,d,orange,5e1553fd1e2e58b6448d8dcc,2021-09-28_13h06.50.692,forced_choiceRT_color,2021.2.3,Win32,59.48839976,,,,,,,,5,Ontime,long,d,1,2.0294,3,3,15,0,1,,,,,
,1.51,,,,,,,,,f,blue,5e1553fd1e2e58b6448d8dcc,2021-09-28_13h06.50.692,forced_choiceRT_color,2021.2.3,Win32,59.48839976,,,,,,,,5,Ontime,long,f,1,2.0435,4,0,16,1,1,,,,,
,1.44,,,,,,,,,f,blue,5e1553fd1e2e58b6448d8dcc,2021-09-28_13h06.50.692,forced_choiceRT_color,2021.2.3,Win32,59.48839976,,,,,,,,5,Ontime,long,f,1,2.0205,4,1,17,1,1,,,,,
,0.88,,,,,,,,,k,purple,5e1553fd1e2e58b6448d8dcc,2021-09-28_13h06.50.692,forced_choiceRT_color,2021.2.3,Win32,59.48839976,,,,,,,,5,Ontime,long,k,1,2.0215,4,2,18,3,1,,,,,
,0.33,,,,,,,,,f,blue,5e1553fd1e2e58b6448d8dcc,2021-09-28_13h06.50.692,forced_choiceRT_color,2021.2.3,Win32,59.48839976,,,,,,,,5,Ontime,long,f,1,2.0595,4,3,19,1,1,,,,,
,0.98,,,,,,,,,k,purple,5e1553fd1e2e58b6448d8dcc,2021-09-28_13h06.50.692,forced_choiceRT_color,2021.2.3,Win32,59.48839976,,,,,,,,5,Ontime,long,k,1,2.0646,5,0,20,3,1,,,,,
,1.79,,,,,,,,,j,red,5e1553fd1e2e58b6448d8dcc,2021-09-28_13h06.50.692,forced_choiceRT_color,2021.2.3,Win32,59.48839976,,,,,,,,5,Slow,long,j,1,2.2252,5,1,21,2,1,,,,,
,0.26,,,,,,,,,j,red,5e1553fd1e2e58b6448d8dcc,2021-09-28_13h06.50.692,forced_choiceRT_color,2021.2.3,Win32,59.48839976,,,,,,,,5,Ontime,long,j,1,2.0423,5,2,22,2,1,,,,,
,1.02,,,,,,,,,d,orange,5e1553fd1e2e58b6448d8dcc,2021-09-28_13h06.50.692,forced_choiceRT_color,2021.2.3,Win32,59.48839976,,,,,,,,5,Slow,long,d,1,2.1032,5,3,23,0,1,,,,,
,1.38,,,,,,,,,k,purple,5e1553fd1e2e58b6448d8dcc,2021-09-28_13h06.50.692,forced_choiceRT_color,2021.2.3,Win32,59.48839976,,,,,,,,5,Ontime,long,k,1,1.9262,6,0,24,3,1,,,,,
,0.58,,,,,,,,,k,purple,5e1553fd1e2e58b6448d8dcc,2021-09-28_13h06.50.692,forced_choiceRT_color,2021.2.3,Win32,59.48839976,,,,,,,,5,Ontime,long,k,1,2.0163,6,1,25,3,1,,,,,
,1.35,,,,,,,,,k,purple,5e1553fd1e2e58b6448d8dcc,2021-09-28_13h06.50.692,forced_choiceRT_color,2021.2.3,Win32,59.48839976,,,,,,,,5,Ontime,long,k,1,2.0631,6,2,26,3,1,,,,,
,0.01,,,,,,,,,k,purple,5e1553fd1e2e58b6448d8dcc,2021-09-28_13h06.50.692,forced_choiceRT_color,2021.2.3,Win32,59.48839976,,,,,,,,5,Ontime,long,k,1,2.0306,6,3,27,3,1,,,,,
,0.49,,,,,,,,,j,red,5e1553fd1e2e58b6448d8dcc,2021-09-28_13h06.50.692,forced_choiceRT_color,2021.2.3,Win32,59.48839976,,,,,,,,5,Ontime,long,j,1,2.0844,7,0,28,2,1,,,,,
,0.92,,,,,,,,,j,red,5e1553fd1e2e58b6448d8dcc,2021-09-28_13h06.50.692,forced_choiceRT_color,2021.2.3,Win32,59.48839976,,,,,,,,5,Ontime,long,j,1,2.0949,7,1,29,2,1,,,,,
,0.58,,,,,,,,,f,blue,5e1553fd1e2e58b6448d8dcc,2021-09-28_13h06.50.692,forced_choiceRT_color,2021.2.3,Win32,59.48839976,,,,,,,,5,Ontime,long,f,1,1.9924,7,2,30,1,1,,,,,
,0.8,,,,,,,,,j,red,5e1553fd1e2e58b6448d8dcc,2021-09-28_13h06.50.692,forced_choiceRT_color,2021.2.3,Win32,59.48839976,,,,,,,,5,Ontime,long,j,1,2.0818,7,3,31,2,1,,,,,
,0.4,,,,,,,,,k,purple,5e1553fd1e2e58b6448d8dcc,2021-09-28_13h06.50.692,forced_choiceRT_color,2021.2.3,Win32,59.48839976,,,,,,,,5,Ontime,long,k,1,2.0465,8,0,32,3,1,,,,,
,0.97,,,,,,,,,d,orange,5e1553fd1e2e58b6448d8dcc,2021-09-28_13h06.50.692,forced_choiceRT_color,2021.2.3,Win32,59.48839976,,,,,,,,5,Ontime,long,d,1,2.079,8,1,33,0,1,,,,,
,0.2,,,,,,,,,d,orange,5e1553fd1e2e58b6448d8dcc,2021-09-28_13h06.50.692,forced_choiceRT_color,2021.2.3,Win32,59.48839976,,,,,,,,5,Ontime,long,d,1,2.015,8,2,34,0,1,,,,,
,0.72,,,,,,,,,d,orange,5e1553fd1e2e58b6448d8dcc,2021-09-28_13h06.50.692,forced_choiceRT_color,2021.2.3,Win32,59.48839976,,,,,,,,5,Ontime,long,d,1,2.0219,8,3,35,0,1,,,,,
,1.8,,,,,,,,,f,blue,5e1553fd1e2e58b6448d8dcc,2021-09-28_13h06.50.692,forced_choiceRT_color,2021.2.3,Win32,59.48839976,,,,,,,,5,Slow,long,f,1,2.2662,9,0,36,1,1,,,,,
,0.67,,,,,,,,,d,orange,5e1553fd1e2e58b6448d8dcc,2021-09-28_13h06.50.692,forced_choiceRT_color,2021.2.3,Win32,59.48839976,,,,,,,,5,Ontime,long,d,1,2.0291,9,1,37,0,1,,,,,
,1.85,,,,,,,,,f,blue,5e1553fd1e2e58b6448d8dcc,2021-09-28_13h06.50.692,forced_choiceRT_color,2021.2.3,Win32,59.48839976,,,,,,,,5,Slow,long,f,1,2.3218,9,2,38,1,1,,,,,
,0.84,,,,,,,,,k,purple,5e1553fd1e2e58b6448d8dcc,2021-09-28_13h06.50.692,forced_choiceRT_color,2021.2.3,Win32,59.48839976,,,,,,,,5,Ontime,long,j,0,2.0044,9,3,39,3,1,,,,,
,,,,,,,,,,,,5e1553fd1e2e58b6448d8dcc,2021-09-28_13h06.50.692,forced_choiceRT_color,2021.2.3,Win32,59.48839976,,,,,,,,,,,,,,,,,,,4,0,4,0,1
,1.33,,,,,,,,,j,red,5e1553fd1e2e58b6448d8dcc,2021-09-28_13h06.50.692,forced_choiceRT_color,2021.2.3,Win32,59.48839976,,,,,,,,6,Ontime,long,j,1,2.0589,0,0,0,2,1,,,,,
,0.95,,,,,,,,,f,blue,5e1553fd1e2e58b6448d8dcc,2021-09-28_13h06.50.692,forced_choiceRT_color,2021.2.3,Win32,59.48839976,,,,,,,,6,Ontime,long,f,1,2.0136,0,1,1,1,1,,,,,
,1.69,,,,,,,,,d,orange,5e1553fd1e2e58b6448d8dcc,2021-09-28_13h06.50.692,forced_choiceRT_color,2021.2.3,Win32,59.48839976,,,,,,,,6,Slow,long,d,1,2.1371,0,2,2,0,1,,,,,
,1.63,,,,,,,,,k,purple,5e1553fd1e2e58b6448d8dcc,2021-09-28_13h06.50.692,forced_choiceRT_color,2021.2.3,Win32,59.48839976,,,,,,,,6,Slow,long,k,1,2.1008,0,3,3,3,1,,,,,
,1.32,,,,,,,,,j,red,5e1553fd1e2e58b6448d8dcc,2021-09-28_13h06.50.692,forced_choiceRT_color,2021.2.3,Win32,59.48839976,,,,,,,,6,Ontime,long,j,1,2.066,1,0,4,2,1,,,,,
,1.8,,,,,,,,,f,blue,5e1553fd1e2e58b6448d8dcc,2021-09-28_13h06.50.692,forced_choiceRT_color,2021.2.3,Win32,59.48839976,,,,,,,,6,Slow,long,d,0,2.2086,1,1,5,1,1,,,,,
,0.48,,,,,,,,,k,purple,5e1553fd1e2e58b6448d8dcc,2021-09-28_13h06.50.692,forced_choiceRT_color,2021.2.3,Win32,59.48839976,,,,,,,,6,Ontime,long,k,1,1.9872,1,2,6,3,1,,,,,
,1.3,,,,,,,,,k,purple,5e1553fd1e2e58b6448d8dcc,2021-09-28_13h06.50.692,forced_choiceRT_color,2021.2.3,Win32,59.48839976,,,,,,,,6,Ontime,long,k,1,2.0599,1,3,7,3,1,,,,,
,1.37,,,,,,,,,j,red,5e1553fd1e2e58b6448d8dcc,2021-09-28_13h06.50.692,forced_choiceRT_color,2021.2.3,Win32,59.48839976,,,,,,,,6,Ontime,long,j,1,2.0262,2,0,8,2,1,,,,,
,0.28,,,,,,,,,d,orange,5e1553fd1e2e58b6448d8dcc,2021-09-28_13h06.50.692,forced_choiceRT_color,2021.2.3,Win32,59.48839976,,,,,,,,6,Ontime,long,d,1,1.9836,2,1,9,0,1,,,,,
,0.14,,,,,,,,,k,purple,5e1553fd1e2e58b6448d8dcc,2021-09-28_13h06.50.692,forced_choiceRT_color,2021.2.3,Win32,59.48839976,,,,,,,,6,Ontime,long,k,1,2.0038,2,2,10,3,1,,,,,
,0.26,,,,,,,,,j,red,5e1553fd1e2e58b6448d8dcc,2021-09-28_13h06.50.692,forced_choiceRT_color,2021.2.3,Win32,59.48839976,,,,,,,,6,Ontime,long,j,1,2.0449,2,3,11,2,1,,,,,
,1.48,,,,,,,,,j,red,5e1553fd1e2e58b6448d8dcc,2021-09-28_13h06.50.692,forced_choiceRT_color,2021.2.3,Win32,59.48839976,,,,,,,,6,Ontime,long,j,1,1.9597,3,0,12,2,1,,,,,
,1.13,,,,,,,,,k,purple,5e1553fd1e2e58b6448d8dcc,2021-09-28_13h06.50.692,forced_choiceRT_color,2021.2.3,Win32,59.48839976,,,,,,,,6,Ontime,long,k,1,2.0317,3,1,13,3,1,,,,,
,0.26,,,,,,,,,f,blue,5e1553fd1e2e58b6448d8dcc,2021-09-28_13h06.50.692,forced_choiceRT_color,2021.2.3,Win32,59.48839976,,,,,,,,6,Slow,long,f,1,2.1677,3,2,14,1,1,,,,,
,1.16,,,,,,,,,f,blue,5e1553fd1e2e58b6448d8dcc,2021-09-28_13h06.50.692,forced_choiceRT_color,2021.2.3,Win32,59.48839976,,,,,,,,6,Ontime,long,f,1,2.0393,3,3,15,1,1,,,,,
,0.19,,,,,,,,,j,red,5e1553fd1e2e58b6448d8dcc,2021-09-28_13h06.50.692,forced_choiceRT_color,2021.2.3,Win32,59.48839976,,,,,,,,6,Ontime,long,j,1,2.0479,4,0,16,2,1,,,,,
,0.57,,,,,,,,,f,blue,5e1553fd1e2e58b6448d8dcc,2021-09-28_13h06.50.692,forced_choiceRT_color,2021.2.3,Win32,59.48839976,,,,,,,,6,Ontime,long,f,1,2.0385,4,1,17,1,1,,,,,
,0.19,,,,,,,,,k,purple,5e1553fd1e2e58b6448d8dcc,2021-09-28_13h06.50.692,forced_choiceRT_color,2021.2.3,Win32,59.48839976,,,,,,,,6,Ontime,long,k,1,2.0429,4,2,18,3,1,,,,,
,1.09,,,,,,,,,d,orange,5e1553fd1e2e58b6448d8dcc,2021-09-28_13h06.50.692,forced_choiceRT_color,2021.2.3,Win32,59.48839976,,,,,,,,6,Ontime,long,d,1,2.0459,4,3,19,0,1,,,,,
,1.14,,,,,,,,,d,orange,5e1553fd1e2e58b6448d8dcc,2021-09-28_13h06.50.692,forced_choiceRT_color,2021.2.3,Win32,59.48839976,,,,,,,,6,Ontime,long,d,1,1.9985,5,0,20,0,1,,,,,
,0.3,,,,,,,,,d,orange,5e1553fd1e2e58b6448d8dcc,2021-09-28_13h06.50.692,forced_choiceRT_color,2021.2.3,Win32,59.48839976,,,,,,,,6,Ontime,long,d,1,1.9514,5,1,21,0,1,,,,,
,0.25,,,,,,,,,d,orange,5e1553fd1e2e58b6448d8dcc,2021-09-28_13h06.50.692,forced_choiceRT_color,2021.2.3,Win32,59.48839976,,,,,,,,6,Ontime,long,d,1,1.9368,5,2,22,0,1,,,,,
,0.91,,,,,,,,,j,red,5e1553fd1e2e58b6448d8dcc,2021-09-28_13h06.50.692,forced_choiceRT_color,2021.2.3,Win32,59.48839976,,,,,,,,6,Ontime,long,j,1,2.0632,5,3,23,2,1,,,,,
,1.41,,,,,,,,,d,orange,5e1553fd1e2e58b6448d8dcc,2021-09-28_13h06.50.692,forced_choiceRT_color,2021.2.3,Win32,59.48839976,,,,,,,,6,Ontime,long,d,1,2.0625,6,0,24,0,1,,,,,
,0.43,,,,,,,,,f,blue,5e1553fd1e2e58b6448d8dcc,2021-09-28_13h06.50.692,forced_choiceRT_color,2021.2.3,Win32,59.48839976,,,,,,,,6,Ontime,long,f,1,1.9496,6,1,25,1,1,,,,,
,1.37,,,,,,,,,k,purple,5e1553fd1e2e58b6448d8dcc,2021-09-28_13h06.50.692,forced_choiceRT_color,2021.2.3,Win32,59.48839976,,,,,,,,6,Ontime,long,k,1,2.0559,6,2,26,3,1,,,,,
,1.69,,,,,,,,,k,purple,5e1553fd1e2e58b6448d8dcc,2021-09-28_13h06.50.692,forced_choiceRT_color,2021.2.3,Win32,59.48839976,,,,,,,,6,Slow,long,k,1,2.1775,6,3,27,3,1,,,,,
,1.81,,,,,,,,,f,blue,5e1553fd1e2e58b6448d8dcc,2021-09-28_13h06.50.692,forced_choiceRT_color,2021.2.3,Win32,59.48839976,,,,,,,,6,Slow,long,d,0,2.3257,7,0,28,1,1,,,,,
,1.9,,,,,,,,,k,purple,5e1553fd1e2e58b6448d8dcc,2021-09-28_13h06.50.692,forced_choiceRT_color,2021.2.3,Win32,59.48839976,,,,,,,,6,Slow,long,k,1,2.4298,7,1,29,3,1,,,,,
,0.53,,,,,,,,,j,red,5e1553fd1e2e58b6448d8dcc,2021-09-28_13h06.50.692,forced_choiceRT_color,2021.2.3,Win32,59.48839976,,,,,,,,6,Ontime,long,j,1,2.0764,7,2,30,2,1,,,,,
,0.31,,,,,,,,,d,orange,5e1553fd1e2e58b6448d8dcc,2021-09-28_13h06.50.692,forced_choiceRT_color,2021.2.3,Win32,59.48839976,,,,,,,,6,Ontime,long,d,1,1.9602,7,3,31,0,1,,,,,
,1.33,,,,,,,,,j,red,5e1553fd1e2e58b6448d8dcc,2021-09-28_13h06.50.692,forced_choiceRT_color,2021.2.3,Win32,59.48839976,,,,,,,,6,Ontime,long,j,1,1.9707,8,0,32,2,1,,,,,
,0.93,,,,,,,,,k,purple,5e1553fd1e2e58b6448d8dcc,2021-09-28_13h06.50.692,forced_choiceRT_color,2021.2.3,Win32,59.48839976,,,,,,,,6,Ontime,long,k,1,2.0196,8,1,33,3,1,,,,,
,0.99,,,,,,,,,j,red,5e1553fd1e2e58b6448d8dcc,2021-09-28_13h06.50.692,forced_choiceRT_color,2021.2.3,Win32,59.48839976,,,,,,,,6,Ontime,long,j,1,2.0214,8,2,34,2,1,,,,,
,1.29,,,,,,,,,f,blue,5e1553fd1e2e58b6448d8dcc,2021-09-28_13h06.50.692,forced_choiceRT_color,2021.2.3,Win32,59.48839976,,,,,,,,6,Ontime,long,f,1,2.0835,8,3,35,1,1,,,,,
,0.25,,,,,,,,,f,blue,5e1553fd1e2e58b6448d8dcc,2021-09-28_13h06.50.692,forced_choiceRT_color,2021.2.3,Win32,59.48839976,,,,,,,,6,Ontime,long,f,1,2.0276,9,0,36,1,1,,,,,
,0,,,,,,,,,f,blue,5e1553fd1e2e58b6448d8dcc,2021-09-28_13h06.50.692,forced_choiceRT_color,2021.2.3,Win32,59.48839976,,,,,,,,6,Ontime,long,f,1,2.0417,9,1,37,1,1,,,,,
,1,,,,,,,,,d,orange,5e1553fd1e2e58b6448d8dcc,2021-09-28_13h06.50.692,forced_choiceRT_color,2021.2.3,Win32,59.48839976,,,,,,,,6,Ontime,long,d,1,2.0381,9,2,38,0,1,,,,,
,0.84,,,,,,,,,d,orange,5e1553fd1e2e58b6448d8dcc,2021-09-28_13h06.50.692,forced_choiceRT_color,2021.2.3,Win32,59.48839976,,,,,,,,6,Ontime,long,d,1,2.031,9,3,39,0,1,,,,,
,,,,,,,,,,,,5e1553fd1e2e58b6448d8dcc,2021-09-28_13h06.50.692,forced_choiceRT_color,2021.2.3,Win32,59.48839976,,,,,,,,,,,,,,,,,,,5,0,5,0,1
,1.29,,,,,,,,,j,red,5e1553fd1e2e58b6448d8dcc,2021-09-28_13h06.50.692,forced_choiceRT_color,2021.2.3,Win32,59.48839976,,,,,,,,7,Ontime,long,j,1,2.0086,0,0,0,2,1,,,,,
,1.06,,,,,,,,,k,purple,5e1553fd1e2e58b6448d8dcc,2021-09-28_13h06.50.692,forced_choiceRT_color,2021.2.3,Win32,59.48839976,,,,,,,,7,Ontime,long,k,1,2.0455,0,1,1,3,1,,,,,
,0.97,,,,,,,,,k,purple,5e1553fd1e2e58b6448d8dcc,2021-09-28_13h06.50.692,forced_choiceRT_color,2021.2.3,Win32,59.48839976,,,,,,,,7,Ontime,long,k,1,2.0106,0,2,2,3,1,,,,,
,0.32,,,,,,,,,f,blue,5e1553fd1e2e58b6448d8dcc,2021-09-28_13h06.50.692,forced_choiceRT_color,2021.2.3,Win32,59.48839976,,,,,,,,7,Ontime,long,f,1,1.9625,0,3,3,1,1,,,,,
,0.73,,,,,,,,,d,orange,5e1553fd1e2e58b6448d8dcc,2021-09-28_13h06.50.692,forced_choiceRT_color,2021.2.3,Win32,59.48839976,,,,,,,,7,Ontime,long,d,1,2.0216,1,0,4,0,1,,,,,
,0.15,,,,,,,,,j,red,5e1553fd1e2e58b6448d8dcc,2021-09-28_13h06.50.692,forced_choiceRT_color,2021.2.3,Win32,59.48839976,,,,,,,,7,Ontime,long,j,1,2.0433,1,1,5,2,1,,,,,
,1.03,,,,,,,,,f,blue,5e1553fd1e2e58b6448d8dcc,2021-09-28_13h06.50.692,forced_choiceRT_color,2021.2.3,Win32,59.48839976,,,,,,,,7,Ontime,long,f,1,2.0894,1,2,6,1,1,,,,,
,1.05,,,,,,,,,f,blue,5e1553fd1e2e58b6448d8dcc,2021-09-28_13h06.50.692,forced_choiceRT_color,2021.2.3,Win32,59.48839976,,,,,,,,7,Ontime,long,f,1,2.0217,1,3,7,1,1,,,,,
,1.87,,,,,,,,,d,orange,5e1553fd1e2e58b6448d8dcc,2021-09-28_13h06.50.692,forced_choiceRT_color,2021.2.3,Win32,59.48839976,,,,,,,,7,Slow,long,d,1,2.3937,2,0,8,0,1,,,,,
,0.14,,,,,,,,,d,orange,5e1553fd1e2e58b6448d8dcc,2021-09-28_13h06.50.692,forced_choiceRT_color,2021.2.3,Win32,59.48839976,,,,,,,,7,Ontime,long,d,1,1.9431,2,1,9,0,1,,,,,
,1.76,,,,,,,,,k,purple,5e1553fd1e2e58b6448d8dcc,2021-09-28_13h06.50.692,forced_choiceRT_color,2021.2.3,Win32,59.48839976,,,,,,,,7,Slow,long,k,1,2.268,2,2,10,3,1,,,,,
,0.06,,,,,,,,,d,orange,5e1553fd1e2e58b6448d8dcc,2021-09-28_13h06.50.692,forced_choiceRT_color,2021.2.3,Win32,59.48839976,,,,,,,,7,Ontime,long,d,1,1.9954,2,3,11,0,1,,,,,
,1.44,,,,,,,,,j,red,5e1553fd1e2e58b6448d8dcc,2021-09-28_13h06.50.692,forced_choiceRT_color,2021.2.3,Win32,59.48839976,,,,,,,,7,Ontime,long,j,1,1.9667,3,0,12,2,1,,,,,
,0.92,,,,,,,,,k,purple,5e1553fd1e2e58b6448d8dcc,2021-09-28_13h06.50.692,forced_choiceRT_color,2021.2.3,Win32,59.48839976,,,,,,,,7,Ontime,long,k,1,2.0618,3,1,13,3,1,,,,,
,0.19,,,,,,,,,k,purple,5e1553fd1e2e58b6448d8dcc,2021-09-28_13h06.50.692,forced_choiceRT_color,2021.2.3,Win32,59.48839976,,,,,,,,7,Ontime,long,k,1,2.0288,3,2,14,3,1,,,,,
,0.18,,,,,,,,,f,blue,5e1553fd1e2e58b6448d8dcc,2021-09-28_13h06.50.692,forced_choiceRT_color,2021.2.3,Win32,59.48839976,,,,,,,,7,Ontime,long,f,1,1.9857,3,3,15,1,1,,,,,
,0.78,,,,,,,,,k,purple,5e1553fd1e2e58b6448d8dcc,2021-09-28_13h06.50.692,forced_choiceRT_color,2021.2.3,Win32,59.48839976,,,,,,,,7,Ontime,long,k,1,1.9782,4,0,16,3,1,,,,,
,0.4,,,,,,,,,f,blue,5e1553fd1e2e58b6448d8dcc,2021-09-28_13h06.50.692,forced_choiceRT_color,2021.2.3,Win32,59.48839976,,,,,,,,7,Ontime,long,f,1,2.0107,4,1,17,1,1,,,,,
,0.51,,,,,,,,,j,red,5e1553fd1e2e58b6448d8dcc,2021-09-28_13h06.50.692,forced_choiceRT_color,2021.2.3,Win32,59.48839976,,,,,,,,7,Ontime,long,j,1,1.9797,4,2,18,2,1,,,,,
,0.63,,,,,,,,,d,orange,5e1553fd1e2e58b6448d8dcc,2021-09-28_13h06.50.692,forced_choiceRT_color,2021.2.3,Win32,59.48839976,,,,,,,,7,Ontime,long,d,1,1.9267,4,3,19,0,1,,,,,
,0.77,,,,,,,,,f,blue,5e1553fd1e2e58b6448d8dcc,2021-09-28_13h06.50.692,forced_choiceRT_color,2021.2.3,Win32,59.48839976,,,,,,,,7,Ontime,long,f,1,2.0001,5,0,20,1,1,,,,,
,0.96,,,,,,,,,d,orange,5e1553fd1e2e58b6448d8dcc,2021-09-28_13h06.50.692,forced_choiceRT_color,2021.2.3,Win32,59.48839976,,,,,,,,7,Ontime,long,d,1,1.997,5,1,21,0,1,,,,,
,0.87,,,,,,,,,k,purple,5e1553fd1e2e58b6448d8dcc,2021-09-28_13h06.50.692,forced_choiceRT_color,2021.2.3,Win32,59.48839976,,,,,,,,7,Ontime,long,k,1,1.9932,5,2,22,3,1,,,,,
,1.08,,,,,,,,,d,orange,5e1553fd1e2e58b6448d8dcc,2021-09-28_13h06.50.692,forced_choiceRT_color,2021.2.3,Win32,59.48839976,,,,,,,,7,Ontime,long,d,1,2.0503,5,3,23,0,1,,,,,
,1.74,,,,,,,,,f,blue,5e1553fd1e2e58b6448d8dcc,2021-09-28_13h06.50.692,forced_choiceRT_color,2021.2.3,Win32,59.48839976,,,,,,,,7,Slow,long,f,1,2.3514,6,0,24,1,1,,,,,
,0.72,,,,,,,,,j,red,5e1553fd1e2e58b6448d8dcc,2021-09-28_13h06.50.692,forced_choiceRT_color,2021.2.3,Win32,59.48839976,,,,,,,,7,Ontime,long,j,1,2.0956,6,1,25,2,1,,,,,
,1.95,,,,,,,,,j,red,5e1553fd1e2e58b6448d8dcc,2021-09-28_13h06.50.692,forced_choiceRT_color,2021.2.3,Win32,59.48839976,,,,,,,,7,Slow,long,j,1,2.535,6,2,26,2,1,,,,,
,0.59,,,,,,,,,k,purple,5e1553fd1e2e58b6448d8dcc,2021-09-28_13h06.50.692,forced_choiceRT_color,2021.2.3,Win32,59.48839976,,,,,,,,7,Slow,long,k,1,2.2159,6,3,27,3,1,,,,,
,0.81,,,,,,,,,k,purple,5e1553fd1e2e58b6448d8dcc,2021-09-28_13h06.50.692,forced_choiceRT_color,2021.2.3,Win32,59.48839976,,,,,,,,7,Ontime,long,k,1,2.0204,7,0,28,3,1,,,,,
,1.9,,,,,,,,,d,orange,5e1553fd1e2e58b6448d8dcc,2021-09-28_13h06.50.692,forced_choiceRT_color,2021.2.3,Win32,59.48839976,,,,,,,,7,Slow,long,d,1,2.2096,7,1,29,0,1,,,,,
,1.56,,,,,,,,,f,blue,5e1553fd1e2e58b6448d8dcc,2021-09-28_13h06.50.692,forced_choiceRT_color,2021.2.3,Win32,59.48839976,,,,,,,,7,Ontime,long,f,1,2.032,7,2,30,1,1,,,,,
,1.87,,,,,,,,,j,red,5e1553fd1e2e58b6448d8dcc,2021-09-28_13h06.50.692,forced_choiceRT_color,2021.2.3,Win32,59.48839976,,,,,,,,7,Slow,long,k,0,2.2707,7,3,31,2,1,,,,,
,0.09,,,,,,,,,j,red,5e1553fd1e2e58b6448d8dcc,2021-09-28_13h06.50.692,forced_choiceRT_color,2021.2.3,Win32,59.48839976,,,,,,,,7,Ontime,long,j,1,1.9791,8,0,32,2,1,,,,,
,0.53,,,,,,,,,k,purple,5e1553fd1e2e58b6448d8dcc,2021-09-28_13h06.50.692,forced_choiceRT_color,2021.2.3,Win32,59.48839976,,,,,,,,7,Ontime,long,k,1,2.0094,8,1,33,3,1,,,,,
,1.54,,,,,,,,,j,red,5e1553fd1e2e58b6448d8dcc,2021-09-28_13h06.50.692,forced_choiceRT_color,2021.2.3,Win32,59.48839976,,,,,,,,7,Ontime,long,j,1,1.9987,8,2,34,2,1,,,,,
,0.31,,,,,,,,,d,orange,5e1553fd1e2e58b6448d8dcc,2021-09-28_13h06.50.692,forced_choiceRT_color,2021.2.3,Win32,59.48839976,,,,,,,,7,Ontime,long,d,1,1.9832,8,3,35,0,1,,,,,
,1.12,,,,,,,,,j,red,5e1553fd1e2e58b6448d8dcc,2021-09-28_13h06.50.692,forced_choiceRT_color,2021.2.3,Win32,59.48839976,,,,,,,,7,Ontime,long,j,1,2.076,9,0,36,2,1,,,,,
,1.07,,,,,,,,,f,blue,5e1553fd1e2e58b6448d8dcc,2021-09-28_13h06.50.692,forced_choiceRT_color,2021.2.3,Win32,59.48839976,,,,,,,,7,Ontime,long,f,1,2.0884,9,1,37,1,1,,,,,
,1.87,,,,,,,,,f,blue,5e1553fd1e2e58b6448d8dcc,2021-09-28_13h06.50.692,forced_choiceRT_color,2021.2.3,Win32,59.48839976,,,,,,,,7,Slow,long,f,1,2.2756,9,2,38,1,1,,,,,
,0.74,,,,,,,,,d,orange,5e1553fd1e2e58b6448d8dcc,2021-09-28_13h06.50.692,forced_choiceRT_color,2021.2.3,Win32,59.48839976,,,,,,,,7,Ontime,long,d,1,1.9893,9,3,39,0,1,,,,,
,,,,,,,,,,,,5e1553fd1e2e58b6448d8dcc,2021-09-28_13h06.50.692,forced_choiceRT_color,2021.2.3,Win32,59.48839976,,,,,,,,,,,,,,,,,,,6,0,6,0,1
,1.56,,,,,,,,,d,orange,5e1553fd1e2e58b6448d8dcc,2021-09-28_13h06.50.692,forced_choiceRT_color,2021.2.3,Win32,59.48839976,,,,,,,,8,Slow,long,d,1,2.1484,0,0,0,0,1,,,,,
,0.9,,,,,,,,,d,orange,5e1553fd1e2e58b6448d8dcc,2021-09-28_13h06.50.692,forced_choiceRT_color,2021.2.3,Win32,59.48839976,,,,,,,,8,Ontime,long,d,1,2.0024,0,1,1,0,1,,,,,
,1.74,,,,,,,,,f,blue,5e1553fd1e2e58b6448d8dcc,2021-09-28_13h06.50.692,forced_choiceRT_color,2021.2.3,Win32,59.48839976,,,,,,,,8,Slow,long,j,0,2.2926,0,2,2,1,1,,,,,
,0.69,,,,,,,,,j,red,5e1553fd1e2e58b6448d8dcc,2021-09-28_13h06.50.692,forced_choiceRT_color,2021.2.3,Win32,59.48839976,,,,,,,,8,Ontime,long,j,1,2.0213,0,3,3,2,1,,,,,
,1.02,,,,,,,,,f,blue,5e1553fd1e2e58b6448d8dcc,2021-09-28_13h06.50.692,forced_choiceRT_color,2021.2.3,Win32,59.48839976,,,,,,,,8,Ontime,long,f,1,2.0153,1,0,4,1,1,,,,,
,0.09,,,,,,,,,k,purple,5e1553fd1e2e58b6448d8dcc,2021-09-28_13h06.50.692,forced_choiceRT_color,2021.2.3,Win32,59.48839976,,,,,,,,8,Ontime,long,k,1,2.0829,1,1,5,3,1,,,,,
,1.48,,,,,,,,,d,orange,5e1553fd1e2e58b6448d8dcc,2021-09-28_13h06.50.692,forced_choiceRT_color,2021.2.3,Win32,59.48839976,,,,,,,,8,Slow,long,f,0,2.1164,1,2,6,0,1,,,,,
,1.49,,,,,,,,,j,red,5e1553fd1e2e58b6448d8dcc,2021-09-28_13h06.50.692,forced_choiceRT_color,2021.2.3,Win32,59.48839976,,,,,,,,8,Ontime,long,j,1,2.0666,1,3,7,2,1,,,,,
,1.45,,,,,,,,,d,orange,5e1553fd1e2e58b6448d8dcc,2021-09-28_13h06.50.692,forced_choiceRT_color,2021.2.3,Win32,59.48839976,,,,,,,,8,Slow,long,d,1,2.1099,2,0,8,0,1,,,,,
,0.71,,,,,,,,,j,red,5e1553fd1e2e58b6448d8dcc,2021-09-28_13h06.50.692,forced_choiceRT_color,2021.2.3,Win32,59.48839976,,,,,,,,8,Ontime,long,j,1,2.0381,2,1,9,2,1,,,,,
,1.67,,,,,,,,,j,red,5e1553fd1e2e58b6448d8dcc,2021-09-28_13h06.50.692,forced_choiceRT_color,2021.2.3,Win32,59.48839976,,,,,,,,8,Slow,long,j,1,2.1254,2,2,10,2,1,,,,,
,1.33,,,,,,,,,f,blue,5e1553fd1e2e58b6448d8dcc,2021-09-28_13h06.50.692,forced_choiceRT_color,2021.2.3,Win32,59.48839976,,,,,,,,8,Slow,long,f,1,2.2019,2,3,11,1,1,,,,,
,1.7,,,,,,,,,d,orange,5e1553fd1e2e58b6448d8dcc,2021-09-28_13h06.50.692,forced_choiceRT_color,2021.2.3,Win32,59.48839976,,,,,,,,8,Slow,long,d,1,2.2003,3,0,12,0,1,,,,,
,1.88,,,,,,,,,f,blue,5e1553fd1e2e58b6448d8dcc,2021-09-28_13h06.50.692,forced_choiceRT_color,2021.2.3,Win32,59.48839976,,,,,,,,8,Slow,long,d,0,2.3193,3,1,13,1,1,,,,,
,0.55,,,,,,,,,j,red,5e1553fd1e2e58b6448d8dcc,2021-09-28_13h06.50.692,forced_choiceRT_color,2021.2.3,Win32,59.48839976,,,,,,,,8,Ontime,long,j,1,1.9695,3,2,14,2,1,,,,,
,0.81,,,,,,,,,f,blue,5e1553fd1e2e58b6448d8dcc,2021-09-28_13h06.50.692,forced_choiceRT_color,2021.2.3,Win32,59.48839976,,,,,,,,8,Ontime,long,f,1,2.0121,3,3,15,1,1,,,,,
,0.74,,,,,,,,,f,blue,5e1553fd1e2e58b6448d8dcc,2021-09-28_13h06.50.692,forced_choiceRT_color,2021.2.3,Win32,59.48839976,,,,,,,,8,Ontime,long,f,1,2.0778,4,0,16,1,1,,,,,
,1.14,,,,,,,,,k,purple,5e1553fd1e2e58b6448d8dcc,2021-09-28_13h06.50.692,forced_choiceRT_color,2021.2.3,Win32,59.48839976,,,,,,,,8,Slow,long,k,1,2.1171,4,1,17,3,1,,,,,
,0.07,,,,,,,,,j,red,5e1553fd1e2e58b6448d8dcc,2021-09-28_13h06.50.692,forced_choiceRT_color,2021.2.3,Win32,59.48839976,,,,,,,,8,Ontime,long,j,1,2.0617,4,2,18,2,1,,,,,
,1.96,,,,,,,,,k,purple,5e1553fd1e2e58b6448d8dcc,2021-09-28_13h06.50.692,forced_choiceRT_color,2021.2.3,Win32,59.48839976,,,,,,,,8,Slow,long,d,0,2.3865,4,3,19,3,1,,,,,
,1.32,,,,,,,,,j,red,5e1553fd1e2e58b6448d8dcc,2021-09-28_13h06.50.692,forced_choiceRT_color,2021.2.3,Win32,59.48839976,,,,,,,,8,Ontime,long,j,1,1.9833,5,0,20,2,1,,,,,
,0.34,,,,,,,,,j,red,5e1553fd1e2e58b6448d8dcc,2021-09-28_13h06.50.692,forced_choiceRT_color,2021.2.3,Win32,59.48839976,,,,,,,,8,Ontime,long,j,1,2.0166,5,1,21,2,1,,,,,
,0.29,,,,,,,,,f,blue,5e1553fd1e2e58b6448d8dcc,2021-09-28_13h06.50.692,forced_choiceRT_color,2021.2.3,Win32,59.48839976,,,,,,,,8,Ontime,long,f,1,2.0001,5,2,22,1,1,,,,,
,1.4,,,,,,,,,f,blue,5e1553fd1e2e58b6448d8dcc,2021-09-28_13h06.50.692,forced_choiceRT_color,2021.2.3,Win32,59.48839976,,,,,,,,8,Slow,long,f,1,2.1245,5,3,23,1,1,,,,,
,0.2,,,,,,,,,f,blue,5e1553fd1e2e58b6448d8dcc,2021-09-28_13h06.50.692,forced_choiceRT_color,2021.2.3,Win32,59.48839976,,,,,,,,8,Ontime,long,f,1,2.0078,6,0,24,1,1,,,,,
,0.63,,,,,,,,,k,purple,5e1553fd1e2e58b6448d8dcc,2021-09-28_13h06.50.692,forced_choiceRT_color,2021.2.3,Win32,59.48839976,,,,,,,,8,Ontime,long,k,1,2.0345,6,1,25,3,1,,,,,
,0.64,,,,,,,,,f,blue,5e1553fd1e2e58b6448d8dcc,2021-09-28_13h06.50.692,forced_choiceRT_color,2021.2.3,Win32,59.48839976,,,,,,,,8,Ontime,long,f,1,2.051,6,2,26,1,1,,,,,
,0.69,,,,,,,,,k,purple,5e1553fd1e2e58b6448d8dcc,2021-09-28_13h06.50.692,forced_choiceRT_color,2021.2.3,Win32,59.48839976,,,,,,,,8,Ontime,long,k,1,2.0191,6,3,27,3,1,,,,,
,1.44,,,,,,,,,k,purple,5e1553fd1e2e58b6448d8dcc,2021-09-28_13h06.50.692,forced_choiceRT_color,2021.2.3,Win32,59.48839976,,,,,,,,8,Ontime,long,k,1,2.0673,7,0,28,3,1,,,,,
,1.94,,,,,,,,,k,purple,5e1553fd1e2e58b6448d8dcc,2021-09-28_13h06.50.692,forced_choiceRT_color,2021.2.3,Win32,59.48839976,,,,,,,,8,Slow,long,k,1,2.3833,7,1,29,3,1,,,,,
,1.54,,,,,,,,,k,purple,5e1553fd1e2e58b6448d8dcc,2021-09-28_13h06.50.692,forced_choiceRT_color,2021.2.3,Win32,59.48839976,,,,,,,,8,Ontime,long,k,1,2.0172,7,2,30,3,1,,,,,
,0.9,,,,,,,,,d,orange,5e1553fd1e2e58b6448d8dcc,2021-09-28_13h06.50.692,forced_choiceRT_color,2021.2.3,Win32,59.48839976,,,,,,,,8,Ontime,long,d,1,2.0448,7,3,31,0,1,,,,,
,1.74,,,,,,,,,d,orange,5e1553fd1e2e58b6448d8dcc,2021-09-28_13h06.50.692,forced_choiceRT_color,2021.2.3,Win32,59.48839976,,,,,,,,8,Slow,long,d,1,2.2664,8,0,32,0,1,,,,,
,1.01,,,,,,,,,d,orange,5e1553fd1e2e58b6448d8dcc,2021-09-28_13h06.50.692,forced_choiceRT_color,2021.2.3,Win32,59.48839976,,,,,,,,8,Slow,long,d,1,2.1249,8,1,33,0,1,,,,,
,0.45,,,,,,,,,k,purple,5e1553fd1e2e58b6448d8dcc,2021-09-28_13h06.50.692,forced_choiceRT_color,2021.2.3,Win32,59.48839976,,,,,,,,8,Ontime,long,k,1,2.0408,8,2,34,3,1,,,,,
,0.54,,,,,,,,,j,red,5e1553fd1e2e58b6448d8dcc,2021-09-28_13h06.50.692,forced_choiceRT_color,2021.2.3,Win32,59.48839976,,,,,,,,8,Ontime,long,j,1,1.9672,8,3,35,2,1,,,,,
,1.75,,,,,,,,,d,orange,5e1553fd1e2e58b6448d8dcc,2021-09-28_13h06.50.692,forced_choiceRT_color,2021.2.3,Win32,59.48839976,,,,,,,,8,Slow,long,d,1,2.2665,9,0,36,0,1,,,,,
,0.95,,,,,,,,,j,red,5e1553fd1e2e58b6448d8dcc,2021-09-28_13h06.50.692,forced_choiceRT_color,2021.2.3,Win32,59.48839976,,,,,,,,8,Ontime,long,j,1,2.0766,9,1,37,2,1,,,,,
,0.28,,,,,,,,,d,orange,5e1553fd1e2e58b6448d8dcc,2021-09-28_13h06.50.692,forced_choiceRT_color,2021.2.3,Win32,59.48839976,,,,,,,,8,Ontime,long,d,1,2.0334,9,2,38,0,1,,,,,
,1.39,,,,,,,,,k,purple,5e1553fd1e2e58b6448d8dcc,2021-09-28_13h06.50.692,forced_choiceRT_color,2021.2.3,Win32,59.48839976,,,,,,,,8,Ontime,long,k,1,2.0895,9,3,39,3,1,,,,,
,,,,,,,,,,,,5e1553fd1e2e58b6448d8dcc,2021-09-28_13h06.50.692,forced_choiceRT_color,2021.2.3,Win32,59.48839976,,,,,,,,,,,,,,,,,,,7,0,7,0,1
,0.78,,,,,,,,,k,purple,5e1553fd1e2e58b6448d8dcc,2021-09-28_13h06.50.692,forced_choiceRT_color,2021.2.3,Win32,59.48839976,,,,,,,,9,Ontime,long,k,1,1.9999,0,0,0,3,1,,,,,
,0.98,,,,,,,,,f,blue,5e1553fd1e2e58b6448d8dcc,2021-09-28_13h06.50.692,forced_choiceRT_color,2021.2.3,Win32,59.48839976,,,,,,,,9,Slow,long,d,0,2.108,0,1,1,1,1,,,,,
,0.27,,,,,,,,,j,red,5e1553fd1e2e58b6448d8dcc,2021-09-28_13h06.50.692,forced_choiceRT_color,2021.2.3,Win32,59.48839976,,,,,,,,9,Ontime,long,j,1,1.9942,0,2,2,2,1,,,,,
,1.24,,,,,,,,,j,red,5e1553fd1e2e58b6448d8dcc,2021-09-28_13h06.50.692,forced_choiceRT_color,2021.2.3,Win32,59.48839976,,,,,,,,9,Ontime,long,j,1,2.0571,0,3,3,2,1,,,,,
,0.58,,,,,,,,,d,orange,5e1553fd1e2e58b6448d8dcc,2021-09-28_13h06.50.692,forced_choiceRT_color,2021.2.3,Win32,59.48839976,,,,,,,,9,Slow,long,d,1,2.1005,1,0,4,0,1,,,,,
,0.77,,,,,,,,,k,purple,5e1553fd1e2e58b6448d8dcc,2021-09-28_13h06.50.692,forced_choiceRT_color,2021.2.3,Win32,59.48839976,,,,,,,,9,Ontime,long,k,1,2.0339,1,1,5,3,1,,,,,
,1.02,,,,,,,,,d,orange,5e1553fd1e2e58b6448d8dcc,2021-09-28_13h06.50.692,forced_choiceRT_color,2021.2.3,Win32,59.48839976,,,,,,,,9,Ontime,long,d,1,1.9777,1,2,6,0,1,,,,,
,0.17,,,,,,,,,j,red,5e1553fd1e2e58b6448d8dcc,2021-09-28_13h06.50.692,forced_choiceRT_color,2021.2.3,Win32,59.48839976,,,,,,,,9,Ontime,long,j,1,2.0006,1,3,7,2,1,,,,,
,0.5,,,,,,,,,f,blue,5e1553fd1e2e58b6448d8dcc,2021-09-28_13h06.50.692,forced_choiceRT_color,2021.2.3,Win32,59.48839976,,,,,,,,9,Ontime,long,f,1,2.0391,2,0,8,1,1,,,,,
,1.33,,,,,,,,,k,purple,5e1553fd1e2e58b6448d8dcc,2021-09-28_13h06.50.692,forced_choiceRT_color,2021.2.3,Win32,59.48839976,,,,,,,,9,Ontime,long,k,1,1.9873,2,1,9,3,1,,,,,
,1.42,,,,,,,,,j,red,5e1553fd1e2e58b6448d8dcc,2021-09-28_13h06.50.692,forced_choiceRT_color,2021.2.3,Win32,59.48839976,,,,,,,,9,Ontime,long,j,1,2.0162,2,2,10,2,1,,,,,
,0.73,,,,,,,,,k,purple,5e1553fd1e2e58b6448d8dcc,2021-09-28_13h06.50.692,forced_choiceRT_color,2021.2.3,Win32,59.48839976,,,,,,,,9,Ontime,long,k,1,2.0344,2,3,11,3,1,,,,,
,0.68,,,,,,,,,k,purple,5e1553fd1e2e58b6448d8dcc,2021-09-28_13h06.50.692,forced_choiceRT_color,2021.2.3,Win32,59.48839976,,,,,,,,9,Ontime,long,k,1,2.0452,3,0,12,3,1,,,,,
,0.78,,,,,,,,,d,orange,5e1553fd1e2e58b6448d8dcc,2021-09-28_13h06.50.692,forced_choiceRT_color,2021.2.3,Win32,59.48839976,,,,,,,,9,Ontime,long,d,1,2.0345,3,1,13,0,1,,,,,
,0.38,,,,,,,,,j,red,5e1553fd1e2e58b6448d8dcc,2021-09-28_13h06.50.692,forced_choiceRT_color,2021.2.3,Win32,59.48839976,,,,,,,,9,Ontime,long,j,1,2.0843,3,2,14,2,1,,,,,
,1.14,,,,,,,,,f,blue,5e1553fd1e2e58b6448d8dcc,2021-09-28_13h06.50.692,forced_choiceRT_color,2021.2.3,Win32,59.48839976,,,,,,,,9,Slow,long,f,1,2.1262,3,3,15,1,1,,,,,
,1.73,,,,,,,,,f,blue,5e1553fd1e2e58b6448d8dcc,2021-09-28_13h06.50.692,forced_choiceRT_color,2021.2.3,Win32,59.48839976,,,,,,,,9,Slow,long,f,1,2.2207,4,0,16,1,1,,,,,
,1.15,,,,,,,,,d,orange,5e1553fd1e2e58b6448d8dcc,2021-09-28_13h06.50.692,forced_choiceRT_color,2021.2.3,Win32,59.48839976,,,,,,,,9,Ontime,long,d,1,2.0222,4,1,17,0,1,,,,,
,0.86,,,,,,,,,d,orange,5e1553fd1e2e58b6448d8dcc,2021-09-28_13h06.50.692,forced_choiceRT_color,2021.2.3,Win32,59.48839976,,,,,,,,9,Ontime,long,d,1,2.0064,4,2,18,0,1,,,,,
,1.52,,,,,,,,,d,orange,5e1553fd1e2e58b6448d8dcc,2021-09-28_13h06.50.692,forced_choiceRT_color,2021.2.3,Win32,59.48839976,,,,,,,,9,Ontime,long,d,1,2.0428,4,3,19,0,1,,,,,
,0.07,,,,,,,,,k,purple,5e1553fd1e2e58b6448d8dcc,2021-09-28_13h06.50.692,forced_choiceRT_color,2021.2.3,Win32,59.48839976,,,,,,,,9,Ontime,long,k,1,2.0166,5,0,20,3,1,,,,,
,1.87,,,,,,,,,f,blue,5e1553fd1e2e58b6448d8dcc,2021-09-28_13h06.50.692,forced_choiceRT_color,2021.2.3,Win32,59.48839976,,,,,,,,9,Slow,long,d,0,2.4665,5,1,21,1,1,,,,,
,0.01,,,,,,,,,f,blue,5e1553fd1e2e58b6448d8dcc,2021-09-28_13h06.50.692,forced_choiceRT_color,2021.2.3,Win32,59.48839976,,,,,,,,9,Ontime,long,f,1,1.9837,5,2,22,1,1,,,,,
,1.67,,,,,,,,,j,red,5e1553fd1e2e58b6448d8dcc,2021-09-28_13h06.50.692,forced_choiceRT_color,2021.2.3,Win32,59.48839976,,,,,,,,9,Slow,long,j,1,2.1663,5,3,23,2,1,,,,,
,1.6,,,,,,,,,k,purple,5e1553fd1e2e58b6448d8dcc,2021-09-28_13h06.50.692,forced_choiceRT_color,2021.2.3,Win32,59.48839976,,,,,,,,9,Slow,long,k,1,2.1437,6,0,24,3,1,,,,,
,1.41,,,,,,,,,k,purple,5e1553fd1e2e58b6448d8dcc,2021-09-28_13h06.50.692,forced_choiceRT_color,2021.2.3,Win32,59.48839976,,,,,,,,9,Ontime,long,k,1,1.9934,6,1,25,3,1,,,,,
,1.55,,,,,,,,,k,purple,5e1553fd1e2e58b6448d8dcc,2021-09-28_13h06.50.692,forced_choiceRT_color,2021.2.3,Win32,59.48839976,,,,,,,,9,Ontime,long,k,1,1.9719,6,2,26,3,1,,,,,
,1.41,,,,,,,,,f,blue,5e1553fd1e2e58b6448d8dcc,2021-09-28_13h06.50.692,forced_choiceRT_color,2021.2.3,Win32,59.48839976,,,,,,,,9,Ontime,long,d,0,2.0171,6,3,27,1,1,,,,,
,1.26,,,,,,,,,j,red,5e1553fd1e2e58b6448d8dcc,2021-09-28_13h06.50.692,forced_choiceRT_color,2021.2.3,Win32,59.48839976,,,,,,,,9,Fast,long,j,1,1.7921,7,0,28,2,1,,,,,
,0.22,,,,,,,,,d,orange,5e1553fd1e2e58b6448d8dcc,2021-09-28_13h06.50.692,forced_choiceRT_color,2021.2.3,Win32,59.48839976,,,,,,,,9,Ontime,long,d,1,2.0744,7,1,29,0,1,,,,,
,1.43,,,,,,,,,d,orange,5e1553fd1e2e58b6448d8dcc,2021-09-28_13h06.50.692,forced_choiceRT_color,2021.2.3,Win32,59.48839976,,,,,,,,9,Ontime,long,d,1,2.0335,7,2,30,0,1,,,,,
,1.87,,,,,,,,,d,orange,5e1553fd1e2e58b6448d8dcc,2021-09-28_13h06.50.692,forced_choiceRT_color,2021.2.3,Win32,59.48839976,,,,,,,,9,Slow,long,d,1,2.2553,7,3,31,0,1,,,,,
,0.96,,,,,,,,,j,red,5e1553fd1e2e58b6448d8dcc,2021-09-28_13h06.50.692,forced_choiceRT_color,2021.2.3,Win32,59.48839976,,,,,,,,9,Ontime,long,j,1,2.074,8,0,32,2,1,,,,,
,0.14,,,,,,,,,k,purple,5e1553fd1e2e58b6448d8dcc,2021-09-28_13h06.50.692,forced_choiceRT_color,2021.2.3,Win32,59.48839976,,,,,,,,9,Ontime,long,k,1,1.9657,8,1,33,3,1,,,,,
,1.48,,,,,,,,,j,red,5e1553fd1e2e58b6448d8dcc,2021-09-28_13h06.50.692,forced_choiceRT_color,2021.2.3,Win32,59.48839976,,,,,,,,9,Ontime,long,j,1,2.05,8,2,34,2,1,,,,,
,1.07,,,,,,,,,j,red,5e1553fd1e2e58b6448d8dcc,2021-09-28_13h06.50.692,forced_choiceRT_color,2021.2.3,Win32,59.48839976,,,,,,,,9,Ontime,long,j,1,2.0833,8,3,35,2,1,,,,,
,0.34,,,,,,,,,f,blue,5e1553fd1e2e58b6448d8dcc,2021-09-28_13h06.50.692,forced_choiceRT_color,2021.2.3,Win32,59.48839976,,,,,,,,9,Ontime,long,f,1,2.0764,9,0,36,1,1,,,,,
,0.93,,,,,,,,,f,blue,5e1553fd1e2e58b6448d8dcc,2021-09-28_13h06.50.692,forced_choiceRT_color,2021.2.3,Win32,59.48839976,,,,,,,,9,Ontime,long,f,1,2.0506,9,1,37,1,1,,,,,
,1.05,,,,,,,,,d,orange,5e1553fd1e2e58b6448d8dcc,2021-09-28_13h06.50.692,forced_choiceRT_color,2021.2.3,Win32,59.48839976,,,,,,,,9,Ontime,long,d,1,2.005,9,2,38,0,1,,,,,
,0.46,,,,,,,,,f,blue,5e1553fd1e2e58b6448d8dcc,2021-09-28_13h06.50.692,forced_choiceRT_color,2021.2.3,Win32,59.48839976,,,,,,,,9,Ontime,long,f,1,2.0403,9,3,39,1,1,,,,,
,,,,,,,,,,,,5e1553fd1e2e58b6448d8dcc,2021-09-28_13h06.50.692,forced_choiceRT_color,2021.2.3,Win32,59.48839976,,,,,,,,,,,,,,,,,,,8,0,8,0,1
,1.76,,,,,,,,,j,red,5e1553fd1e2e58b6448d8dcc,2021-09-28_13h06.50.692,forced_choiceRT_color,2021.2.3,Win32,59.48839976,,,,,,,,10,Slow,long,j,1,2.2085,0,0,0,2,1,,,,,
,1.87,,,,,,,,,j,red,5e1553fd1e2e58b6448d8dcc,2021-09-28_13h06.50.692,forced_choiceRT_color,2021.2.3,Win32,59.48839976,,,,,,,,10,Slow,long,j,1,2.2862,0,1,1,2,1,,,,,
,1.16,,,,,,,,,k,purple,5e1553fd1e2e58b6448d8dcc,2021-09-28_13h06.50.692,forced_choiceRT_color,2021.2.3,Win32,59.48839976,,,,,,,,10,Ontime,long,k,1,2.0735,0,2,2,3,1,,,,,
,1.61,,,,,,,,,k,purple,5e1553fd1e2e58b6448d8dcc,2021-09-28_13h06.50.692,forced_choiceRT_color,2021.2.3,Win32,59.48839976,,,,,,,,10,Ontime,long,k,1,2.0836,0,3,3,3,1,,,,,
,0.85,,,,,,,,,j,red,5e1553fd1e2e58b6448d8dcc,2021-09-28_13h06.50.692,forced_choiceRT_color,2021.2.3,Win32,59.48839976,,,,,,,,10,Ontime,long,j,1,2.0334,1,0,4,2,1,,,,,
,0.4,,,,,,,,,d,orange,5e1553fd1e2e58b6448d8dcc,2021-09-28_13h06.50.692,forced_choiceRT_color,2021.2.3,Win32,59.48839976,,,,,,,,10,Ontime,long,d,1,2.0027,1,1,5,0,1,,,,,
,0.81,,,,,,,,,d,orange,5e1553fd1e2e58b6448d8dcc,2021-09-28_13h06.50.692,forced_choiceRT_color,2021.2.3,Win32,59.48839976,,,,,,,,10,Ontime,long,d,1,2.0833,1,2,6,0,1,,,,,
,0.03,,,,,,,,,j,red,5e1553fd1e2e58b6448d8dcc,2021-09-28_13h06.50.692,forced_choiceRT_color,2021.2.3,Win32,59.48839976,,,,,,,,10,Ontime,long,j,1,2.0498,1,3,7,2,1,,,,,
,0.26,,,,,,,,,d,orange,5e1553fd1e2e58b6448d8dcc,2021-09-28_13h06.50.692,forced_choiceRT_color,2021.2.3,Win32,59.48839976,,,,,,,,10,Ontime,long,d,1,2.028,2,0,8,0,1,,,,,
,0.95,,,,,,,,,d,orange,5e1553fd1e2e58b6448d8dcc,2021-09-28_13h06.50.692,forced_choiceRT_color,2021.2.3,Win32,59.48839976,,,,,,,,10,Ontime,long,d,1,2.0274,2,1,9,0,1,,,,,
,1.89,,,,,,,,,k,purple,5e1553fd1e2e58b6448d8dcc,2021-09-28_13h06.50.692,forced_choiceRT_color,2021.2.3,Win32,59.48839976,,,,,,,,10,Slow,long,k,1,2.3888,2,2,10,3,1,,,,,
,1.2,,,,,,,,,k,purple,5e1553fd1e2e58b6448d8dcc,2021-09-28_13h06.50.692,forced_choiceRT_color,2021.2.3,Win32,59.48839976,,,,,,,,10,Slow,long,k,1,2.1171,2,3,11,3,1,,,,,
,0.37,,,,,,,,,f,blue,5e1553fd1e2e58b6448d8dcc,2021-09-28_13h06.50.692,forced_choiceRT_color,2021.2.3,Win32,59.48839976,,,,,,,,10,Ontime,long,f,1,2.033,3,0,12,1,1,,,,,
,1.68,,,,,,,,,f,blue,5e1553fd1e2e58b6448d8dcc,2021-09-28_13h06.50.692,forced_choiceRT_color,2021.2.3,Win32,59.48839976,,,,,,,,10,Ontime,long,f,1,2.0828,3,1,13,1,1,,,,,
,0.91,,,,,,,,,j,red,5e1553fd1e2e58b6448d8dcc,2021-09-28_13h06.50.692,forced_choiceRT_color,2021.2.3,Win32,59.48839976,,,,,,,,10,Fast,long,f,0,0.0673,3,2,14,2,1,,,,,
,0.75,,,,,,,,,j,red,5e1553fd1e2e58b6448d8dcc,2021-09-28_13h06.50.692,forced_choiceRT_color,2021.2.3,Win32,59.48839976,,,,,,,,10,Fast,long,j,1,1.8664,3,3,15,2,1,,,,,
,0.58,,,,,,,,,j,red,5e1553fd1e2e58b6448d8dcc,2021-09-28_13h06.50.692,forced_choiceRT_color,2021.2.3,Win32,59.48839976,,,,,,,,10,Ontime,long,j,1,1.9282,4,0,16,2,1,,,,,
,1.85,,,,,,,,,k,purple,5e1553fd1e2e58b6448d8dcc,2021-09-28_13h06.50.692,forced_choiceRT_color,2021.2.3,Win32,59.48839976,,,,,,,,10,Slow,long,k,1,2.2394,4,1,17,3,1,,,,,
,0.33,,,,,,,,,f,blue,5e1553fd1e2e58b6448d8dcc,2021-09-28_13h06.50.692,forced_choiceRT_color,2021.2.3,Win32,59.48839976,,,,,,,,10,Ontime,long,f,1,2.0415,4,2,18,1,1,,,,,
,1.99,,,,,,,,,k,purple,5e1553fd1e2e58b6448d8dcc,2021-09-28_13h06.50.692,forced_choiceRT_color,2021.2.3,Win32,59.48839976,,,,,,,,10,Slow,long,f,0,2.3665,4,3,19,3,1,,,,,
,0.43,,,,,,,,,k,purple,5e1553fd1e2e58b6448d8dcc,2021-09-28_13h06.50.692,forced_choiceRT_color,2021.2.3,Win32,59.48839976,,,,,,,,10,Ontime,long,k,1,2.003,5,0,20,3,1,,,,,
,1.38,,,,,,,,,j,red,5e1553fd1e2e58b6448d8dcc,2021-09-28_13h06.50.692,forced_choiceRT_color,2021.2.3,Win32,59.48839976,,,,,,,,10,Ontime,long,k,0,2.0192,5,1,21,2,1,,,,,
,1.52,,,,,,,,,f,blue,5e1553fd1e2e58b6448d8dcc,2021-09-28_13h06.50.692,forced_choiceRT_color,2021.2.3,Win32,59.48839976,,,,,,,,10,Slow,long,d,0,2.2173,5,2,22,1,1,,,,,
,1.52,,,,,,,,,f,blue,5e1553fd1e2e58b6448d8dcc,2021-09-28_13h06.50.692,forced_choiceRT_color,2021.2.3,Win32,59.48839976,,,,,,,,10,Ontime,long,f,1,1.9512,5,3,23,1,1,,,,,
,0.24,,,,,,,,,f,blue,5e1553fd1e2e58b6448d8dcc,2021-09-28_13h06.50.692,forced_choiceRT_color,2021.2.3,Win32,59.48839976,,,,,,,,10,Ontime,long,f,1,1.9929,6,0,24,1,1,,,,,
,0.74,,,,,,,,,j,red,5e1553fd1e2e58b6448d8dcc,2021-09-28_13h06.50.692,forced_choiceRT_color,2021.2.3,Win32,59.48839976,,,,,,,,10,Slow,long,j,1,2.1504,6,1,25,2,1,,,,,
,0.76,,,,,,,,,f,blue,5e1553fd1e2e58b6448d8dcc,2021-09-28_13h06.50.692,forced_choiceRT_color,2021.2.3,Win32,59.48839976,,,,,,,,10,Ontime,long,f,1,2.0673,6,2,26,1,1,,,,,
,1.16,,,,,,,,,d,orange,5e1553fd1e2e58b6448d8dcc,2021-09-28_13h06.50.692,forced_choiceRT_color,2021.2.3,Win32,59.48839976,,,,,,,,10,Ontime,long,d,1,2.0499,6,3,27,0,1,,,,,
,0.67,,,,,,,,,f,blue,5e1553fd1e2e58b6448d8dcc,2021-09-28_13h06.50.692,forced_choiceRT_color,2021.2.3,Win32,59.48839976,,,,,,,,10,Ontime,long,f,1,2.034,7,0,28,1,1,,,,,
,0.33,,,,,,,,,j,red,5e1553fd1e2e58b6448d8dcc,2021-09-28_13h06.50.692,forced_choiceRT_color,2021.2.3,Win32,59.48839976,,,,,,,,10,Ontime,long,j,1,2.0845,7,1,29,2,1,,,,,
,0.96,,,,,,,,,f,blue,5e1553fd1e2e58b6448d8dcc,2021-09-28_13h06.50.692,forced_choiceRT_color,2021.2.3,Win32,59.48839976,,,,,,,,10,Ontime,long,k,0,2.0402,7,2,30,1,1,,,,,
,1.81,,,,,,,,,d,orange,5e1553fd1e2e58b6448d8dcc,2021-09-28_13h06.50.692,forced_choiceRT_color,2021.2.3,Win32,59.48839976,,,,,,,,10,Slow,long,d,1,2.3171,7,3,31,0,1,,,,,
,1.31,,,,,,,,,k,purple,5e1553fd1e2e58b6448d8dcc,2021-09-28_13h06.50.692,forced_choiceRT_color,2021.2.3,Win32,59.48839976,,,,,,,,10,Slow,long,k,1,2.1503,8,0,32,3,1,,,,,
,0.46,,,,,,,,,k,purple,5e1553fd1e2e58b6448d8dcc,2021-09-28_13h06.50.692,forced_choiceRT_color,2021.2.3,Win32,59.48839976,,,,,,,,10,Fast,long,f,0,0.6004,8,1,33,3,1,,,,,
,0.88,,,,,,,,,k,purple,5e1553fd1e2e58b6448d8dcc,2021-09-28_13h06.50.692,forced_choiceRT_color,2021.2.3,Win32,59.48839976,,,,,,,,10,Slow,long,k,1,2.1047,8,2,34,3,1,,,,,
,0.48,,,,,,,,,d,orange,5e1553fd1e2e58b6448d8dcc,2021-09-28_13h06.50.692,forced_choiceRT_color,2021.2.3,Win32,59.48839976,,,,,,,,10,Ontime,long,d,1,2.0238,8,3,35,0,1,,,,,
,0.67,,,,,,,,,d,orange,5e1553fd1e2e58b6448d8dcc,2021-09-28_13h06.50.692,forced_choiceRT_color,2021.2.3,Win32,59.48839976,,,,,,,,10,Slow,long,d,1,2.2602,9,0,36,0,1,,,,,
,0.31,,,,,,,,,d,orange,5e1553fd1e2e58b6448d8dcc,2021-09-28_13h06.50.692,forced_choiceRT_color,2021.2.3,Win32,59.48839976,,,,,,,,10,Ontime,long,d,1,1.9571,9,1,37,0,1,,,,,
,1.93,,,,,,,,,f,blue,5e1553fd1e2e58b6448d8dcc,2021-09-28_13h06.50.692,forced_choiceRT_color,2021.2.3,Win32,59.48839976,,,,,,,,10,Slow,long,k,0,2.1929,9,2,38,1,1,,,,,
,0.82,,,,,,,,,d,orange,5e1553fd1e2e58b6448d8dcc,2021-09-28_13h06.50.692,forced_choiceRT_color,2021.2.3,Win32,59.48839976,,,,,,,,10,Ontime,long,d,1,2.0171,9,3,39,0,1,,,,,
,,,,,,,,,,,,5e1553fd1e2e58b6448d8dcc,2021-09-28_13h06.50.692,forced_choiceRT_color,2021.2.3,Win32,59.48839976,,,,,,,,,,,,,,,,,,,9,0,9,0,1
