IP_Addresss,target_onset,trial_resp_sp.keys,trial_resp_sp.corr,trial_resp_sp.rt,trials_train_loop.thisRepN,trials_train_loop.thisTrialN,trials_train_loop.thisN,trials_train_loop.thisIndex,trials_train_loop.ran,correct_key,color,participant,date,expName,psychopyVersion,OS,frameRate,trial_resp_timing.keys,trial_resp_timing.rt,trials_train_timing.thisRepN,trials_train_timing.thisTrialN,trials_train_timing.thisN,trials_train_timing.thisIndex,trials_train_timing.ran,block_id,ontime,feedback_cond,forcedRT_resp.keys,forcedRT_resp.corr,forcedRT_resp.rt,trials.thisRepN,trials.thisTrialN,trials.thisN,trials.thisIndex,trials.ran,blocks.thisRepN,blocks.thisTrialN,blocks.thisN,blocks.thisIndex,blocks.ran
198.84.192.242,0,k,1,16.216,0,0,0,3,1,k,purple,5e68691662358c10f5adb901,2021-09-27_17h15.59.699,forced_choiceRT_color,2021.2.3,Win32,59.95203837,,,,,,,,,,,,,,,,,,,,,,,
,0,j,1,1.467,0,1,1,2,1,j,red,5e68691662358c10f5adb901,2021-09-27_17h15.59.699,forced_choiceRT_color,2021.2.3,Win32,59.95203837,,,,,,,,,,,,,,,,,,,,,,,
,0,k,1,1.305,0,2,2,3,1,k,purple,5e68691662358c10f5adb901,2021-09-27_17h15.59.699,forced_choiceRT_color,2021.2.3,Win32,59.95203837,,,,,,,,,,,,,,,,,,,,,,,
,0,k,1,0.847,0,3,3,3,1,k,purple,5e68691662358c10f5adb901,2021-09-27_17h15.59.699,forced_choiceRT_color,2021.2.3,Win32,59.95203837,,,,,,,,,,,,,,,,,,,,,,,
,0,f,1,1.67,1,0,4,1,1,f,blue,5e68691662358c10f5adb901,2021-09-27_17h15.59.699,forced_choiceRT_color,2021.2.3,Win32,59.95203837,,,,,,,,,,,,,,,,,,,,,,,
,0,f,1,0.976,1,1,5,1,1,f,blue,5e68691662358c10f5adb901,2021-09-27_17h15.59.699,forced_choiceRT_color,2021.2.3,Win32,59.95203837,,,,,,,,,,,,,,,,,,,,,,,
,0,f,1,1.025,1,2,6,1,1,f,blue,5e68691662358c10f5adb901,2021-09-27_17h15.59.699,forced_choiceRT_color,2021.2.3,Win32,59.95203837,,,,,,,,,,,,,,,,,,,,,,,
,0,j,1,2.225,1,3,7,2,1,j,red,5e68691662358c10f5adb901,2021-09-27_17h15.59.699,forced_choiceRT_color,2021.2.3,Win32,59.95203837,,,,,,,,,,,,,,,,,,,,,,,
,0,k,1,0.886,2,0,8,3,1,k,purple,5e68691662358c10f5adb901,2021-09-27_17h15.59.699,forced_choiceRT_color,2021.2.3,Win32,59.95203837,,,,,,,,,,,,,,,,,,,,,,,
,0,j,1,0.921,2,1,9,2,1,j,red,5e68691662358c10f5adb901,2021-09-27_17h15.59.699,forced_choiceRT_color,2021.2.3,Win32,59.95203837,,,,,,,,,,,,,,,,,,,,,,,
,0,f,1,1.586,2,2,10,1,1,f,blue,5e68691662358c10f5adb901,2021-09-27_17h15.59.699,forced_choiceRT_color,2021.2.3,Win32,59.95203837,,,,,,,,,,,,,,,,,,,,,,,
,0,f,1,1.114,2,3,11,1,1,f,blue,5e68691662358c10f5adb901,2021-09-27_17h15.59.699,forced_choiceRT_color,2021.2.3,Win32,59.95203837,,,,,,,,,,,,,,,,,,,,,,,
,0,k,1,0.79,3,0,12,3,1,k,purple,5e68691662358c10f5adb901,2021-09-27_17h15.59.699,forced_choiceRT_color,2021.2.3,Win32,59.95203837,,,,,,,,,,,,,,,,,,,,,,,
,0,j,1,0.93,3,1,13,2,1,j,red,5e68691662358c10f5adb901,2021-09-27_17h15.59.699,forced_choiceRT_color,2021.2.3,Win32,59.95203837,,,,,,,,,,,,,,,,,,,,,,,
,0,f,1,1.477,3,2,14,1,1,f,blue,5e68691662358c10f5adb901,2021-09-27_17h15.59.699,forced_choiceRT_color,2021.2.3,Win32,59.95203837,,,,,,,,,,,,,,,,,,,,,,,
,0,d,1,0.837,3,3,15,0,1,d,orange,5e68691662358c10f5adb901,2021-09-27_17h15.59.699,forced_choiceRT_color,2021.2.3,Win32,59.95203837,,,,,,,,,,,,,,,,,,,,,,,
,0,d,1,0.734,4,0,16,0,1,d,orange,5e68691662358c10f5adb901,2021-09-27_17h15.59.699,forced_choiceRT_color,2021.2.3,Win32,59.95203837,,,,,,,,,,,,,,,,,,,,,,,
,0,f,1,0.907,4,1,17,1,1,f,blue,5e68691662358c10f5adb901,2021-09-27_17h15.59.699,forced_choiceRT_color,2021.2.3,Win32,59.95203837,,,,,,,,,,,,,,,,,,,,,,,
,0,f,1,0.688,4,2,18,1,1,f,blue,5e68691662358c10f5adb901,2021-09-27_17h15.59.699,forced_choiceRT_color,2021.2.3,Win32,59.95203837,,,,,,,,,,,,,,,,,,,,,,,
,0,j,1,0.991,4,3,19,2,1,j,red,5e68691662358c10f5adb901,2021-09-27_17h15.59.699,forced_choiceRT_color,2021.2.3,Win32,59.95203837,,,,,,,,,,,,,,,,,,,,,,,
,0,k,1,0.77,5,0,20,3,1,k,purple,5e68691662358c10f5adb901,2021-09-27_17h15.59.699,forced_choiceRT_color,2021.2.3,Win32,59.95203837,,,,,,,,,,,,,,,,,,,,,,,
,0,k,1,0.687,5,1,21,3,1,k,purple,5e68691662358c10f5adb901,2021-09-27_17h15.59.699,forced_choiceRT_color,2021.2.3,Win32,59.95203837,,,,,,,,,,,,,,,,,,,,,,,
,0,d,1,0.764,5,2,22,0,1,d,orange,5e68691662358c10f5adb901,2021-09-27_17h15.59.699,forced_choiceRT_color,2021.2.3,Win32,59.95203837,,,,,,,,,,,,,,,,,,,,,,,
,0,k,1,0.728,5,3,23,3,1,k,purple,5e68691662358c10f5adb901,2021-09-27_17h15.59.699,forced_choiceRT_color,2021.2.3,Win32,59.95203837,,,,,,,,,,,,,,,,,,,,,,,
,0,k,1,0.789,6,0,24,3,1,k,purple,5e68691662358c10f5adb901,2021-09-27_17h15.59.699,forced_choiceRT_color,2021.2.3,Win32,59.95203837,,,,,,,,,,,,,,,,,,,,,,,
,0,d,1,0.77,6,1,25,0,1,d,orange,5e68691662358c10f5adb901,2021-09-27_17h15.59.699,forced_choiceRT_color,2021.2.3,Win32,59.95203837,,,,,,,,,,,,,,,,,,,,,,,
,0,d,1,0.747,6,2,26,0,1,d,orange,5e68691662358c10f5adb901,2021-09-27_17h15.59.699,forced_choiceRT_color,2021.2.3,Win32,59.95203837,,,,,,,,,,,,,,,,,,,,,,,
,0,k,1,0.746,6,3,27,3,1,k,purple,5e68691662358c10f5adb901,2021-09-27_17h15.59.699,forced_choiceRT_color,2021.2.3,Win32,59.95203837,,,,,,,,,,,,,,,,,,,,,,,
,0,j,1,0.903,7,0,28,2,1,j,red,5e68691662358c10f5adb901,2021-09-27_17h15.59.699,forced_choiceRT_color,2021.2.3,Win32,59.95203837,,,,,,,,,,,,,,,,,,,,,,,
,0,d,1,0.687,7,1,29,0,1,d,orange,5e68691662358c10f5adb901,2021-09-27_17h15.59.699,forced_choiceRT_color,2021.2.3,Win32,59.95203837,,,,,,,,,,,,,,,,,,,,,,,
,0,k,1,0.732,7,2,30,3,1,k,purple,5e68691662358c10f5adb901,2021-09-27_17h15.59.699,forced_choiceRT_color,2021.2.3,Win32,59.95203837,,,,,,,,,,,,,,,,,,,,,,,
,0,j,1,0.807,7,3,31,2,1,j,red,5e68691662358c10f5adb901,2021-09-27_17h15.59.699,forced_choiceRT_color,2021.2.3,Win32,59.95203837,,,,,,,,,,,,,,,,,,,,,,,
,0,k,1,0.995,8,0,32,3,1,k,purple,5e68691662358c10f5adb901,2021-09-27_17h15.59.699,forced_choiceRT_color,2021.2.3,Win32,59.95203837,,,,,,,,,,,,,,,,,,,,,,,
,0,f,1,1.046,8,1,33,1,1,f,blue,5e68691662358c10f5adb901,2021-09-27_17h15.59.699,forced_choiceRT_color,2021.2.3,Win32,59.95203837,,,,,,,,,,,,,,,,,,,,,,,
,0,j,1,0.742,8,2,34,2,1,j,red,5e68691662358c10f5adb901,2021-09-27_17h15.59.699,forced_choiceRT_color,2021.2.3,Win32,59.95203837,,,,,,,,,,,,,,,,,,,,,,,
,0,j,1,0.773,8,3,35,2,1,j,red,5e68691662358c10f5adb901,2021-09-27_17h15.59.699,forced_choiceRT_color,2021.2.3,Win32,59.95203837,,,,,,,,,,,,,,,,,,,,,,,
,0,d,1,0.753,9,0,36,0,1,d,orange,5e68691662358c10f5adb901,2021-09-27_17h15.59.699,forced_choiceRT_color,2021.2.3,Win32,59.95203837,,,,,,,,,,,,,,,,,,,,,,,
,0,j,1,1.099,9,1,37,2,1,j,red,5e68691662358c10f5adb901,2021-09-27_17h15.59.699,forced_choiceRT_color,2021.2.3,Win32,59.95203837,,,,,,,,,,,,,,,,,,,,,,,
,0,f,1,1.274,9,2,38,1,1,f,blue,5e68691662358c10f5adb901,2021-09-27_17h15.59.699,forced_choiceRT_color,2021.2.3,Win32,59.95203837,,,,,,,,,,,,,,,,,,,,,,,
,0,d,1,0.72,9,3,39,0,1,d,orange,5e68691662358c10f5adb901,2021-09-27_17h15.59.699,forced_choiceRT_color,2021.2.3,Win32,59.95203837,,,,,,,,,,,,,,,,,,,,,,,
,0,j,1,0.699,10,0,40,2,1,j,red,5e68691662358c10f5adb901,2021-09-27_17h15.59.699,forced_choiceRT_color,2021.2.3,Win32,59.95203837,,,,,,,,,,,,,,,,,,,,,,,
,0,d,1,0.81,10,1,41,0,1,d,orange,5e68691662358c10f5adb901,2021-09-27_17h15.59.699,forced_choiceRT_color,2021.2.3,Win32,59.95203837,,,,,,,,,,,,,,,,,,,,,,,
,0,f,1,1.156,10,2,42,1,1,f,blue,5e68691662358c10f5adb901,2021-09-27_17h15.59.699,forced_choiceRT_color,2021.2.3,Win32,59.95203837,,,,,,,,,,,,,,,,,,,,,,,
,0,j,1,0.849,10,3,43,2,1,j,red,5e68691662358c10f5adb901,2021-09-27_17h15.59.699,forced_choiceRT_color,2021.2.3,Win32,59.95203837,,,,,,,,,,,,,,,,,,,,,,,
,0,f,1,1.065,11,0,44,1,1,f,blue,5e68691662358c10f5adb901,2021-09-27_17h15.59.699,forced_choiceRT_color,2021.2.3,Win32,59.95203837,,,,,,,,,,,,,,,,,,,,,,,
,0,k,1,0.76,11,1,45,3,1,k,purple,5e68691662358c10f5adb901,2021-09-27_17h15.59.699,forced_choiceRT_color,2021.2.3,Win32,59.95203837,,,,,,,,,,,,,,,,,,,,,,,
,0,d,1,0.82,11,2,46,0,1,d,orange,5e68691662358c10f5adb901,2021-09-27_17h15.59.699,forced_choiceRT_color,2021.2.3,Win32,59.95203837,,,,,,,,,,,,,,,,,,,,,,,
,0,j,1,0.766,11,3,47,2,1,j,red,5e68691662358c10f5adb901,2021-09-27_17h15.59.699,forced_choiceRT_color,2021.2.3,Win32,59.95203837,,,,,,,,,,,,,,,,,,,,,,,
,0,d,1,0.808,12,0,48,0,1,d,orange,5e68691662358c10f5adb901,2021-09-27_17h15.59.699,forced_choiceRT_color,2021.2.3,Win32,59.95203837,,,,,,,,,,,,,,,,,,,,,,,
,0,f,1,1.17,12,1,49,1,1,f,blue,5e68691662358c10f5adb901,2021-09-27_17h15.59.699,forced_choiceRT_color,2021.2.3,Win32,59.95203837,,,,,,,,,,,,,,,,,,,,,,,
,0,k,1,0.767,12,2,50,3,1,k,purple,5e68691662358c10f5adb901,2021-09-27_17h15.59.699,forced_choiceRT_color,2021.2.3,Win32,59.95203837,,,,,,,,,,,,,,,,,,,,,,,
,0,d,1,0.746,12,3,51,0,1,d,orange,5e68691662358c10f5adb901,2021-09-27_17h15.59.699,forced_choiceRT_color,2021.2.3,Win32,59.95203837,,,,,,,,,,,,,,,,,,,,,,,
,0,f,1,0.919,13,0,52,1,1,f,blue,5e68691662358c10f5adb901,2021-09-27_17h15.59.699,forced_choiceRT_color,2021.2.3,Win32,59.95203837,,,,,,,,,,,,,,,,,,,,,,,
,0,d,1,0.78,13,1,53,0,1,d,orange,5e68691662358c10f5adb901,2021-09-27_17h15.59.699,forced_choiceRT_color,2021.2.3,Win32,59.95203837,,,,,,,,,,,,,,,,,,,,,,,
,0,d,1,0.694,13,2,54,0,1,d,orange,5e68691662358c10f5adb901,2021-09-27_17h15.59.699,forced_choiceRT_color,2021.2.3,Win32,59.95203837,,,,,,,,,,,,,,,,,,,,,,,
,0,j,1,0.774,13,3,55,2,1,j,red,5e68691662358c10f5adb901,2021-09-27_17h15.59.699,forced_choiceRT_color,2021.2.3,Win32,59.95203837,,,,,,,,,,,,,,,,,,,,,,,
,0,f,1,0.817,14,0,56,1,1,f,blue,5e68691662358c10f5adb901,2021-09-27_17h15.59.699,forced_choiceRT_color,2021.2.3,Win32,59.95203837,,,,,,,,,,,,,,,,,,,,,,,
,0,k,1,0.762,14,1,57,3,1,k,purple,5e68691662358c10f5adb901,2021-09-27_17h15.59.699,forced_choiceRT_color,2021.2.3,Win32,59.95203837,,,,,,,,,,,,,,,,,,,,,,,
,0,d,1,0.711,14,2,58,0,1,d,orange,5e68691662358c10f5adb901,2021-09-27_17h15.59.699,forced_choiceRT_color,2021.2.3,Win32,59.95203837,,,,,,,,,,,,,,,,,,,,,,,
,0,j,1,0.952,14,3,59,2,1,j,red,5e68691662358c10f5adb901,2021-09-27_17h15.59.699,forced_choiceRT_color,2021.2.3,Win32,59.95203837,,,,,,,,,,,,,,,,,,,,,,,
,,,,,,,,,,,,5e68691662358c10f5adb901,2021-09-27_17h15.59.699,forced_choiceRT_color,2021.2.3,Win32,59.95203837,j,7.737,0,0,0,0,1,,,,,,,,,,,,,,,,
,,,,,,,,,,,,5e68691662358c10f5adb901,2021-09-27_17h15.59.699,forced_choiceRT_color,2021.2.3,Win32,59.95203837,j,1.896,1,0,1,0,1,,,,,,,,,,,,,,,,
,,,,,,,,,,,,5e68691662358c10f5adb901,2021-09-27_17h15.59.699,forced_choiceRT_color,2021.2.3,Win32,59.95203837,j,2.31,2,0,2,0,1,,,,,,,,,,,,,,,,
,,,,,,,,,,,,5e68691662358c10f5adb901,2021-09-27_17h15.59.699,forced_choiceRT_color,2021.2.3,Win32,59.95203837,j,2.1,3,0,3,0,1,,,,,,,,,,,,,,,,
,,,,,,,,,,,,5e68691662358c10f5adb901,2021-09-27_17h15.59.699,forced_choiceRT_color,2021.2.3,Win32,59.95203837,j,2.154,4,0,4,0,1,,,,,,,,,,,,,,,,
,,,,,,,,,,,,5e68691662358c10f5adb901,2021-09-27_17h15.59.699,forced_choiceRT_color,2021.2.3,Win32,59.95203837,j,2.204,5,0,5,0,1,,,,,,,,,,,,,,,,
,,,,,,,,,,,,5e68691662358c10f5adb901,2021-09-27_17h15.59.699,forced_choiceRT_color,2021.2.3,Win32,59.95203837,j,2.028,6,0,6,0,1,,,,,,,,,,,,,,,,
,,,,,,,,,,,,5e68691662358c10f5adb901,2021-09-27_17h15.59.699,forced_choiceRT_color,2021.2.3,Win32,59.95203837,j,2.052,7,0,7,0,1,,,,,,,,,,,,,,,,
,,,,,,,,,,,,5e68691662358c10f5adb901,2021-09-27_17h15.59.699,forced_choiceRT_color,2021.2.3,Win32,59.95203837,j,2.013,8,0,8,0,1,,,,,,,,,,,,,,,,
,,,,,,,,,,,,5e68691662358c10f5adb901,2021-09-27_17h15.59.699,forced_choiceRT_color,2021.2.3,Win32,59.95203837,j,2.038,9,0,9,0,1,,,,,,,,,,,,,,,,
,,,,,,,,,,,,5e68691662358c10f5adb901,2021-09-27_17h15.59.699,forced_choiceRT_color,2021.2.3,Win32,59.95203837,j,1.887,10,0,10,0,1,,,,,,,,,,,,,,,,
,,,,,,,,,,,,5e68691662358c10f5adb901,2021-09-27_17h15.59.699,forced_choiceRT_color,2021.2.3,Win32,59.95203837,j,2.027,11,0,11,0,1,,,,,,,,,,,,,,,,
,,,,,,,,,,,,5e68691662358c10f5adb901,2021-09-27_17h15.59.699,forced_choiceRT_color,2021.2.3,Win32,59.95203837,j,1.955,12,0,12,0,1,,,,,,,,,,,,,,,,
,,,,,,,,,,,,5e68691662358c10f5adb901,2021-09-27_17h15.59.699,forced_choiceRT_color,2021.2.3,Win32,59.95203837,j,2.014,13,0,13,0,1,,,,,,,,,,,,,,,,
,,,,,,,,,,,,5e68691662358c10f5adb901,2021-09-27_17h15.59.699,forced_choiceRT_color,2021.2.3,Win32,59.95203837,j,2.088,14,0,14,0,1,,,,,,,,,,,,,,,,
,,,,,,,,,,,,5e68691662358c10f5adb901,2021-09-27_17h15.59.699,forced_choiceRT_color,2021.2.3,Win32,59.95203837,f,2.093,15,0,15,0,1,,,,,,,,,,,,,,,,
,,,,,,,,,,,,5e68691662358c10f5adb901,2021-09-27_17h15.59.699,forced_choiceRT_color,2021.2.3,Win32,59.95203837,j,2.114,16,0,16,0,1,,,,,,,,,,,,,,,,
,,,,,,,,,,,,5e68691662358c10f5adb901,2021-09-27_17h15.59.699,forced_choiceRT_color,2021.2.3,Win32,59.95203837,j,2.231,17,0,17,0,1,,,,,,,,,,,,,,,,
,,,,,,,,,,,,5e68691662358c10f5adb901,2021-09-27_17h15.59.699,forced_choiceRT_color,2021.2.3,Win32,59.95203837,j,2.055,18,0,18,0,1,,,,,,,,,,,,,,,,
,,,,,,,,,,,,5e68691662358c10f5adb901,2021-09-27_17h15.59.699,forced_choiceRT_color,2021.2.3,Win32,59.95203837,f,2.077,19,0,19,0,1,,,,,,,,,,,,,,,,
,0.61,,,,,,,,,k,purple,5e68691662358c10f5adb901,2021-09-27_17h15.59.699,forced_choiceRT_color,2021.2.3,Win32,59.95203837,,,,,,,,1,Slow,short,k,1,2.422,0,0,0,3,1,,,,,
,0.78,,,,,,,,,k,purple,5e68691662358c10f5adb901,2021-09-27_17h15.59.699,forced_choiceRT_color,2021.2.3,Win32,59.95203837,,,,,,,,1,Ontime,short,k,1,2.051,0,1,1,3,1,,,,,
,0.29,,,,,,,,,k,purple,5e68691662358c10f5adb901,2021-09-27_17h15.59.699,forced_choiceRT_color,2021.2.3,Win32,59.95203837,,,,,,,,1,Ontime,short,k,1,1.97,0,2,2,3,1,,,,,
,0.77,,,,,,,,,d,orange,5e68691662358c10f5adb901,2021-09-27_17h15.59.699,forced_choiceRT_color,2021.2.3,Win32,59.95203837,,,,,,,,1,Slow,short,d,1,2.126,0,3,3,0,1,,,,,
,1.5,,,,,,,,,k,purple,5e68691662358c10f5adb901,2021-09-27_17h15.59.699,forced_choiceRT_color,2021.2.3,Win32,59.95203837,,,,,,,,1,Ontime,short,d,0,1.922,1,0,4,3,1,,,,,
,0.28,,,,,,,,,d,orange,5e68691662358c10f5adb901,2021-09-27_17h15.59.699,forced_choiceRT_color,2021.2.3,Win32,59.95203837,,,,,,,,1,Ontime,short,d,1,2.068,1,1,5,0,1,,,,,
,0.9,,,,,,,,,d,orange,5e68691662358c10f5adb901,2021-09-27_17h15.59.699,forced_choiceRT_color,2021.2.3,Win32,59.95203837,,,,,,,,1,Ontime,short,d,1,2.029,1,2,6,0,1,,,,,
,0.13,,,,,,,,,k,purple,5e68691662358c10f5adb901,2021-09-27_17h15.59.699,forced_choiceRT_color,2021.2.3,Win32,59.95203837,,,,,,,,1,Slow,short,k,1,2.123,1,3,7,3,1,,,,,
,0.2,,,,,,,,,k,purple,5e68691662358c10f5adb901,2021-09-27_17h15.59.699,forced_choiceRT_color,2021.2.3,Win32,59.95203837,,,,,,,,1,Fast,short,k,1,1.775,2,0,8,3,1,,,,,
,1.58,,,,,,,,,j,red,5e68691662358c10f5adb901,2021-09-27_17h15.59.699,forced_choiceRT_color,2021.2.3,Win32,59.95203837,,,,,,,,1,Slow,short,k,0,2.145,2,1,9,2,1,,,,,
,1.08,,,,,,,,,f,blue,5e68691662358c10f5adb901,2021-09-27_17h15.59.699,forced_choiceRT_color,2021.2.3,Win32,59.95203837,,,,,,,,1,Slow,short,f,1,2.197,2,2,10,1,1,,,,,
,1.78,,,,,,,,,f,blue,5e68691662358c10f5adb901,2021-09-27_17h15.59.699,forced_choiceRT_color,2021.2.3,Win32,59.95203837,,,,,,,,1,Slow,short,f,1,2.261,2,3,11,1,1,,,,,
,1.18,,,,,,,,,j,red,5e68691662358c10f5adb901,2021-09-27_17h15.59.699,forced_choiceRT_color,2021.2.3,Win32,59.95203837,,,,,,,,1,Slow,short,j,1,2.122,3,0,12,2,1,,,,,
,1.12,,,,,,,,,d,orange,5e68691662358c10f5adb901,2021-09-27_17h15.59.699,forced_choiceRT_color,2021.2.3,Win32,59.95203837,,,,,,,,1,Slow,short,d,1,2.137,3,1,13,0,1,,,,,
,0.86,,,,,,,,,k,purple,5e68691662358c10f5adb901,2021-09-27_17h15.59.699,forced_choiceRT_color,2021.2.3,Win32,59.95203837,,,,,,,,1,Ontime,short,k,1,2.03,3,2,14,3,1,,,,,
,1,,,,,,,,,j,red,5e68691662358c10f5adb901,2021-09-27_17h15.59.699,forced_choiceRT_color,2021.2.3,Win32,59.95203837,,,,,,,,1,Slow,short,j,1,2.12,3,3,15,2,1,,,,,
,0.78,,,,,,,,,j,red,5e68691662358c10f5adb901,2021-09-27_17h15.59.699,forced_choiceRT_color,2021.2.3,Win32,59.95203837,,,,,,,,1,Ontime,short,j,1,1.997,4,0,16,2,1,,,,,
,0.91,,,,,,,,,f,blue,5e68691662358c10f5adb901,2021-09-27_17h15.59.699,forced_choiceRT_color,2021.2.3,Win32,59.95203837,,,,,,,,1,Ontime,short,f,1,2.076,4,1,17,1,1,,,,,
,1.95,,,,,,,,,d,orange,5e68691662358c10f5adb901,2021-09-27_17h15.59.699,forced_choiceRT_color,2021.2.3,Win32,59.95203837,,,,,,,,1,Slow,short,f,0,2.342,4,2,18,0,1,,,,,
,0.95,,,,,,,,,f,blue,5e68691662358c10f5adb901,2021-09-27_17h15.59.699,forced_choiceRT_color,2021.2.3,Win32,59.95203837,,,,,,,,1,Fast,short,f,1,1.858,4,3,19,1,1,,,,,
,0.2,,,,,,,,,f,blue,5e68691662358c10f5adb901,2021-09-27_17h15.59.699,forced_choiceRT_color,2021.2.3,Win32,59.95203837,,,,,,,,1,Ontime,short,f,1,1.952,5,0,20,1,1,,,,,
,0.82,,,,,,,,,d,orange,5e68691662358c10f5adb901,2021-09-27_17h15.59.699,forced_choiceRT_color,2021.2.3,Win32,59.95203837,,,,,,,,1,Slow,short,d,1,2.176,5,1,21,0,1,,,,,
,0.48,,,,,,,,,k,purple,5e68691662358c10f5adb901,2021-09-27_17h15.59.699,forced_choiceRT_color,2021.2.3,Win32,59.95203837,,,,,,,,1,Slow,short,k,1,2.209,5,2,22,3,1,,,,,
,1.66,,,,,,,,,j,red,5e68691662358c10f5adb901,2021-09-27_17h15.59.699,forced_choiceRT_color,2021.2.3,Win32,59.95203837,,,,,,,,1,Slow,short,j,1,2.307,5,3,23,2,1,,,,,
,1.3,,,,,,,,,k,purple,5e68691662358c10f5adb901,2021-09-27_17h15.59.699,forced_choiceRT_color,2021.2.3,Win32,59.95203837,,,,,,,,1,Ontime,short,k,1,2.014,6,0,24,3,1,,,,,
,0.47,,,,,,,,,d,orange,5e68691662358c10f5adb901,2021-09-27_17h15.59.699,forced_choiceRT_color,2021.2.3,Win32,59.95203837,,,,,,,,1,Slow,short,d,1,2.141,6,1,25,0,1,,,,,
,0.91,,,,,,,,,f,blue,5e68691662358c10f5adb901,2021-09-27_17h15.59.699,forced_choiceRT_color,2021.2.3,Win32,59.95203837,,,,,,,,1,Slow,short,f,1,2.239,6,2,26,1,1,,,,,
,1.29,,,,,,,,,f,blue,5e68691662358c10f5adb901,2021-09-27_17h15.59.699,forced_choiceRT_color,2021.2.3,Win32,59.95203837,,,,,,,,1,Slow,short,f,1,2.239,6,3,27,1,1,,,,,
,0.69,,,,,,,,,d,orange,5e68691662358c10f5adb901,2021-09-27_17h15.59.699,forced_choiceRT_color,2021.2.3,Win32,59.95203837,,,,,,,,1,Slow,short,d,1,2.191,7,0,28,0,1,,,,,
,1.3,,,,,,,,,k,purple,5e68691662358c10f5adb901,2021-09-27_17h15.59.699,forced_choiceRT_color,2021.2.3,Win32,59.95203837,,,,,,,,1,Slow,short,k,1,2.303,7,1,29,3,1,,,,,
,0.55,,,,,,,,,j,red,5e68691662358c10f5adb901,2021-09-27_17h15.59.699,forced_choiceRT_color,2021.2.3,Win32,59.95203837,,,,,,,,1,Ontime,short,f,0,1.98,7,2,30,2,1,,,,,
,1.92,,,,,,,,,f,blue,5e68691662358c10f5adb901,2021-09-27_17h15.59.699,forced_choiceRT_color,2021.2.3,Win32,59.95203837,,,,,,,,1,Slow,short,d,0,2.155,7,3,31,1,1,,,,,
,1.07,,,,,,,,,f,blue,5e68691662358c10f5adb901,2021-09-27_17h15.59.699,forced_choiceRT_color,2021.2.3,Win32,59.95203837,,,,,,,,1,Ontime,short,f,1,1.997,8,0,32,1,1,,,,,
,0.91,,,,,,,,,j,red,5e68691662358c10f5adb901,2021-09-27_17h15.59.699,forced_choiceRT_color,2021.2.3,Win32,59.95203837,,,,,,,,1,Slow,short,j,1,2.124,8,1,33,2,1,,,,,
,1.77,,,,,,,,,j,red,5e68691662358c10f5adb901,2021-09-27_17h15.59.699,forced_choiceRT_color,2021.2.3,Win32,59.95203837,,,,,,,,1,Slow,short,j,1,2.242,8,2,34,2,1,,,,,
,0.54,,,,,,,,,d,orange,5e68691662358c10f5adb901,2021-09-27_17h15.59.699,forced_choiceRT_color,2021.2.3,Win32,59.95203837,,,,,,,,1,Ontime,short,d,1,2.049,8,3,35,0,1,,,,,
,1.29,,,,,,,,,j,red,5e68691662358c10f5adb901,2021-09-27_17h15.59.699,forced_choiceRT_color,2021.2.3,Win32,59.95203837,,,,,,,,1,Fast,short,d,0,1.885,9,0,36,2,1,,,,,
,1.53,,,,,,,,,f,blue,5e68691662358c10f5adb901,2021-09-27_17h15.59.699,forced_choiceRT_color,2021.2.3,Win32,59.95203837,,,,,,,,1,Slow,short,j,0,2.171,9,1,37,1,1,,,,,
,0.78,,,,,,,,,j,red,5e68691662358c10f5adb901,2021-09-27_17h15.59.699,forced_choiceRT_color,2021.2.3,Win32,59.95203837,,,,,,,,1,Slow,short,f,0,2.107,9,2,38,2,1,,,,,
,1.05,,,,,,,,,d,orange,5e68691662358c10f5adb901,2021-09-27_17h15.59.699,forced_choiceRT_color,2021.2.3,Win32,59.95203837,,,,,,,,1,Ontime,short,d,1,1.968,9,3,39,0,1,,,,,
,,,,,,,,,,,,5e68691662358c10f5adb901,2021-09-27_17h15.59.699,forced_choiceRT_color,2021.2.3,Win32,59.95203837,,,,,,,,,,,,,,,,,,,0,0,0,0,1
,0.92,,,,,,,,,f,blue,5e68691662358c10f5adb901,2021-09-27_17h15.59.699,forced_choiceRT_color,2021.2.3,Win32,59.95203837,,,,,,,,2,Slow,short,f,1,2.123,0,0,0,1,1,,,,,
,0.36,,,,,,,,,j,red,5e68691662358c10f5adb901,2021-09-27_17h15.59.699,forced_choiceRT_color,2021.2.3,Win32,59.95203837,,,,,,,,2,Ontime,short,j,1,2.034,0,1,1,2,1,,,,,
,0.77,,,,,,,,,k,purple,5e68691662358c10f5adb901,2021-09-27_17h15.59.699,forced_choiceRT_color,2021.2.3,Win32,59.95203837,,,,,,,,2,Ontime,short,k,1,1.998,0,2,2,3,1,,,,,
,1.18,,,,,,,,,f,blue,5e68691662358c10f5adb901,2021-09-27_17h15.59.699,forced_choiceRT_color,2021.2.3,Win32,59.95203837,,,,,,,,2,Slow,short,f,1,2.14,0,3,3,1,1,,,,,
,1.31,,,,,,,,,k,purple,5e68691662358c10f5adb901,2021-09-27_17h15.59.699,forced_choiceRT_color,2021.2.3,Win32,59.95203837,,,,,,,,2,Ontime,short,k,1,1.937,1,0,4,3,1,,,,,
,1.64,,,,,,,,,d,orange,5e68691662358c10f5adb901,2021-09-27_17h15.59.699,forced_choiceRT_color,2021.2.3,Win32,59.95203837,,,,,,,,2,Ontime,short,d,1,2.078,1,1,5,0,1,,,,,
,1.1,,,,,,,,,j,red,5e68691662358c10f5adb901,2021-09-27_17h15.59.699,forced_choiceRT_color,2021.2.3,Win32,59.95203837,,,,,,,,2,Fast,short,j,1,1.898,1,2,6,2,1,,,,,
,0.83,,,,,,,,,f,blue,5e68691662358c10f5adb901,2021-09-27_17h15.59.699,forced_choiceRT_color,2021.2.3,Win32,59.95203837,,,,,,,,2,Fast,short,f,1,1.832,1,3,7,1,1,,,,,
,0.69,,,,,,,,,f,blue,5e68691662358c10f5adb901,2021-09-27_17h15.59.699,forced_choiceRT_color,2021.2.3,Win32,59.95203837,,,,,,,,2,Fast,short,f,1,1.881,2,0,8,1,1,,,,,
,1.26,,,,,,,,,j,red,5e68691662358c10f5adb901,2021-09-27_17h15.59.699,forced_choiceRT_color,2021.2.3,Win32,59.95203837,,,,,,,,2,Slow,short,j,1,2.168,2,1,9,2,1,,,,,
,0.19,,,,,,,,,k,purple,5e68691662358c10f5adb901,2021-09-27_17h15.59.699,forced_choiceRT_color,2021.2.3,Win32,59.95203837,,,,,,,,2,Ontime,short,k,1,2.041,2,2,10,3,1,,,,,
,0.87,,,,,,,,,j,red,5e68691662358c10f5adb901,2021-09-27_17h15.59.699,forced_choiceRT_color,2021.2.3,Win32,59.95203837,,,,,,,,2,Slow,short,j,1,2.228,2,3,11,2,1,,,,,
,1.12,,,,,,,,,j,red,5e68691662358c10f5adb901,2021-09-27_17h15.59.699,forced_choiceRT_color,2021.2.3,Win32,59.95203837,,,,,,,,2,Slow,short,j,1,2.102,3,0,12,2,1,,,,,
,1.28,,,,,,,,,f,blue,5e68691662358c10f5adb901,2021-09-27_17h15.59.699,forced_choiceRT_color,2021.2.3,Win32,59.95203837,,,,,,,,2,Ontime,short,f,1,2.009,3,1,13,1,1,,,,,
,1.86,,,,,,,,,j,red,5e68691662358c10f5adb901,2021-09-27_17h15.59.699,forced_choiceRT_color,2021.2.3,Win32,59.95203837,,,,,,,,2,Slow,short,j,1,2.187,3,2,14,2,1,,,,,
,1.16,,,,,,,,,d,orange,5e68691662358c10f5adb901,2021-09-27_17h15.59.699,forced_choiceRT_color,2021.2.3,Win32,59.95203837,,,,,,,,2,Slow,short,d,1,2.122,3,3,15,0,1,,,,,
,1.22,,,,,,,,,k,purple,5e68691662358c10f5adb901,2021-09-27_17h15.59.699,forced_choiceRT_color,2021.2.3,Win32,59.95203837,,,,,,,,2,Ontime,short,k,1,2.014,4,0,16,3,1,,,,,
,1.26,,,,,,,,,f,blue,5e68691662358c10f5adb901,2021-09-27_17h15.59.699,forced_choiceRT_color,2021.2.3,Win32,59.95203837,,,,,,,,2,Ontime,short,f,1,2.06,4,1,17,1,1,,,,,
,1.72,,,,,,,,,k,purple,5e68691662358c10f5adb901,2021-09-27_17h15.59.699,forced_choiceRT_color,2021.2.3,Win32,59.95203837,,,,,,,,2,Slow,short,j,0,2.168,4,2,18,3,1,,,,,
,1.34,,,,,,,,,k,purple,5e68691662358c10f5adb901,2021-09-27_17h15.59.699,forced_choiceRT_color,2021.2.3,Win32,59.95203837,,,,,,,,2,Slow,short,k,1,2.203,4,3,19,3,1,,,,,
,1.35,,,,,,,,,d,orange,5e68691662358c10f5adb901,2021-09-27_17h15.59.699,forced_choiceRT_color,2021.2.3,Win32,59.95203837,,,,,,,,2,Slow,short,f,0,2.346,5,0,20,0,1,,,,,
,1.44,,,,,,,,,f,blue,5e68691662358c10f5adb901,2021-09-27_17h15.59.699,forced_choiceRT_color,2021.2.3,Win32,59.95203837,,,,,,,,2,Ontime,short,k,0,2.07,5,1,21,1,1,,,,,
,1.2,,,,,,,,,f,blue,5e68691662358c10f5adb901,2021-09-27_17h15.59.699,forced_choiceRT_color,2021.2.3,Win32,59.95203837,,,,,,,,2,Fast,short,d,0,0.08,5,2,22,1,1,,,,,
,1.96,,,,,,,,,d,orange,5e68691662358c10f5adb901,2021-09-27_17h15.59.699,forced_choiceRT_color,2021.2.3,Win32,59.95203837,,,,,,,,2,Slow,short,d,1,6.902,5,3,23,0,1,,,,,
,1.83,,,,,,,,,f,blue,5e68691662358c10f5adb901,2021-09-27_17h15.59.699,forced_choiceRT_color,2021.2.3,Win32,59.95203837,,,,,,,,2,Slow,short,f,1,2.504,6,0,24,1,1,,,,,
,1.02,,,,,,,,,d,orange,5e68691662358c10f5adb901,2021-09-27_17h15.59.699,forced_choiceRT_color,2021.2.3,Win32,59.95203837,,,,,,,,2,Ontime,short,d,1,2.078,6,1,25,0,1,,,,,
,0.14,,,,,,,,,d,orange,5e68691662358c10f5adb901,2021-09-27_17h15.59.699,forced_choiceRT_color,2021.2.3,Win32,59.95203837,,,,,,,,2,Fast,short,d,1,1.896,6,2,26,0,1,,,,,
,1.05,,,,,,,,,k,purple,5e68691662358c10f5adb901,2021-09-27_17h15.59.699,forced_choiceRT_color,2021.2.3,Win32,59.95203837,,,,,,,,2,Slow,short,k,1,2.136,6,3,27,3,1,,,,,
,1.65,,,,,,,,,j,red,5e68691662358c10f5adb901,2021-09-27_17h15.59.699,forced_choiceRT_color,2021.2.3,Win32,59.95203837,,,,,,,,2,Slow,short,j,1,2.202,7,0,28,2,1,,,,,
,1.24,,,,,,,,,k,purple,5e68691662358c10f5adb901,2021-09-27_17h15.59.699,forced_choiceRT_color,2021.2.3,Win32,59.95203837,,,,,,,,2,Slow,short,k,1,2.121,7,1,29,3,1,,,,,
,0.03,,,,,,,,,j,red,5e68691662358c10f5adb901,2021-09-27_17h15.59.699,forced_choiceRT_color,2021.2.3,Win32,59.95203837,,,,,,,,2,Ontime,short,j,1,2.047,7,2,30,2,1,,,,,
,0.71,,,,,,,,,d,orange,5e68691662358c10f5adb901,2021-09-27_17h15.59.699,forced_choiceRT_color,2021.2.3,Win32,59.95203837,,,,,,,,2,Ontime,short,d,1,2.042,7,3,31,0,1,,,,,
,0.15,,,,,,,,,j,red,5e68691662358c10f5adb901,2021-09-27_17h15.59.699,forced_choiceRT_color,2021.2.3,Win32,59.95203837,,,,,,,,2,Fast,short,j,1,1.893,8,0,32,2,1,,,,,
,1.4,,,,,,,,,d,orange,5e68691662358c10f5adb901,2021-09-27_17h15.59.699,forced_choiceRT_color,2021.2.3,Win32,59.95203837,,,,,,,,2,Slow,short,d,1,2.194,8,1,33,0,1,,,,,
,1.14,,,,,,,,,d,orange,5e68691662358c10f5adb901,2021-09-27_17h15.59.699,forced_choiceRT_color,2021.2.3,Win32,59.95203837,,,,,,,,2,Slow,short,d,1,2.325,8,2,34,0,1,,,,,
,1.32,,,,,,,,,j,red,5e68691662358c10f5adb901,2021-09-27_17h15.59.699,forced_choiceRT_color,2021.2.3,Win32,59.95203837,,,,,,,,2,Ontime,short,j,1,2.063,8,3,35,2,1,,,,,
,0.48,,,,,,,,,k,purple,5e68691662358c10f5adb901,2021-09-27_17h15.59.699,forced_choiceRT_color,2021.2.3,Win32,59.95203837,,,,,,,,2,Ontime,short,k,1,1.919,9,0,36,3,1,,,,,
,0.19,,,,,,,,,f,blue,5e68691662358c10f5adb901,2021-09-27_17h15.59.699,forced_choiceRT_color,2021.2.3,Win32,59.95203837,,,,,,,,2,Ontime,short,f,1,2.061,9,1,37,1,1,,,,,
,1.43,,,,,,,,,k,purple,5e68691662358c10f5adb901,2021-09-27_17h15.59.699,forced_choiceRT_color,2021.2.3,Win32,59.95203837,,,,,,,,2,Ontime,short,k,1,2.088,9,2,38,3,1,,,,,
,1.78,,,,,,,,,d,orange,5e68691662358c10f5adb901,2021-09-27_17h15.59.699,forced_choiceRT_color,2021.2.3,Win32,59.95203837,,,,,,,,2,Slow,short,d,1,2.34,9,3,39,0,1,,,,,
,,,,,,,,,,,,5e68691662358c10f5adb901,2021-09-27_17h15.59.699,forced_choiceRT_color,2021.2.3,Win32,59.95203837,,,,,,,,,,,,,,,,,,,1,0,1,0,1
,0.37,,,,,,,,,d,orange,5e68691662358c10f5adb901,2021-09-27_17h15.59.699,forced_choiceRT_color,2021.2.3,Win32,59.95203837,,,,,,,,3,Slow,short,d,1,2.12,0,0,0,0,1,,,,,
,0.06,,,,,,,,,k,purple,5e68691662358c10f5adb901,2021-09-27_17h15.59.699,forced_choiceRT_color,2021.2.3,Win32,59.95203837,,,,,,,,3,Slow,short,k,1,2.211,0,1,1,3,1,,,,,
,0.17,,,,,,,,,k,purple,5e68691662358c10f5adb901,2021-09-27_17h15.59.699,forced_choiceRT_color,2021.2.3,Win32,59.95203837,,,,,,,,3,Slow,short,k,1,2.258,0,2,2,3,1,,,,,
,1.67,,,,,,,,,j,red,5e68691662358c10f5adb901,2021-09-27_17h15.59.699,forced_choiceRT_color,2021.2.3,Win32,59.95203837,,,,,,,,3,Slow,short,j,1,2.402,0,3,3,2,1,,,,,
,1.07,,,,,,,,,k,purple,5e68691662358c10f5adb901,2021-09-27_17h15.59.699,forced_choiceRT_color,2021.2.3,Win32,59.95203837,,,,,,,,3,Slow,short,k,1,2.25,1,0,4,3,1,,,,,
,1.81,,,,,,,,,f,blue,5e68691662358c10f5adb901,2021-09-27_17h15.59.699,forced_choiceRT_color,2021.2.3,Win32,59.95203837,,,,,,,,3,Slow,short,f,1,2.472,1,1,5,1,1,,,,,
,0.24,,,,,,,,,j,red,5e68691662358c10f5adb901,2021-09-27_17h15.59.699,forced_choiceRT_color,2021.2.3,Win32,59.95203837,,,,,,,,3,Slow,short,j,1,2.399,1,2,6,2,1,,,,,
,0.73,,,,,,,,,f,blue,5e68691662358c10f5adb901,2021-09-27_17h15.59.699,forced_choiceRT_color,2021.2.3,Win32,59.95203837,,,,,,,,3,Ontime,short,f,1,2.072,1,3,7,1,1,,,,,
,0.35,,,,,,,,,k,purple,5e68691662358c10f5adb901,2021-09-27_17h15.59.699,forced_choiceRT_color,2021.2.3,Win32,59.95203837,,,,,,,,3,Ontime,short,k,1,1.937,2,0,8,3,1,,,,,
,0.66,,,,,,,,,f,blue,5e68691662358c10f5adb901,2021-09-27_17h15.59.699,forced_choiceRT_color,2021.2.3,Win32,59.95203837,,,,,,,,3,Ontime,short,j,0,1.987,2,1,9,1,1,,,,,
,1.58,,,,,,,,,d,orange,5e68691662358c10f5adb901,2021-09-27_17h15.59.699,forced_choiceRT_color,2021.2.3,Win32,59.95203837,,,,,,,,3,Ontime,short,d,1,2.066,2,2,10,0,1,,,,,
,1.6,,,,,,,,,j,red,5e68691662358c10f5adb901,2021-09-27_17h15.59.699,forced_choiceRT_color,2021.2.3,Win32,59.95203837,,,,,,,,3,Ontime,short,j,1,2.093,2,3,11,2,1,,,,,
,0.97,,,,,,,,,d,orange,5e68691662358c10f5adb901,2021-09-27_17h15.59.699,forced_choiceRT_color,2021.2.3,Win32,59.95203837,,,,,,,,3,Ontime,short,d,1,2.006,3,0,12,0,1,,,,,
,0.71,,,,,,,,,k,purple,5e68691662358c10f5adb901,2021-09-27_17h15.59.699,forced_choiceRT_color,2021.2.3,Win32,59.95203837,,,,,,,,3,Ontime,short,k,1,2.02,3,1,13,3,1,,,,,
,1.96,,,,,,,,,j,red,5e68691662358c10f5adb901,2021-09-27_17h15.59.699,forced_choiceRT_color,2021.2.3,Win32,59.95203837,,,,,,,,3,Slow,short,j,1,2.353,3,2,14,2,1,,,,,
,0.76,,,,,,,,,d,orange,5e68691662358c10f5adb901,2021-09-27_17h15.59.699,forced_choiceRT_color,2021.2.3,Win32,59.95203837,,,,,,,,3,Ontime,short,d,1,2.026,3,3,15,0,1,,,,,
,1.29,,,,,,,,,j,red,5e68691662358c10f5adb901,2021-09-27_17h15.59.699,forced_choiceRT_color,2021.2.3,Win32,59.95203837,,,,,,,,3,Ontime,short,j,1,2.055,4,0,16,2,1,,,,,
,1.43,,,,,,,,,k,purple,5e68691662358c10f5adb901,2021-09-27_17h15.59.699,forced_choiceRT_color,2021.2.3,Win32,59.95203837,,,,,,,,3,Ontime,short,k,1,2.083,4,1,17,3,1,,,,,
,0.7,,,,,,,,,f,blue,5e68691662358c10f5adb901,2021-09-27_17h15.59.699,forced_choiceRT_color,2021.2.3,Win32,59.95203837,,,,,,,,3,Ontime,short,f,1,2.063,4,2,18,1,1,,,,,
,0.56,,,,,,,,,d,orange,5e68691662358c10f5adb901,2021-09-27_17h15.59.699,forced_choiceRT_color,2021.2.3,Win32,59.95203837,,,,,,,,3,Ontime,short,d,1,2.01,4,3,19,0,1,,,,,
,1.54,,,,,,,,,f,blue,5e68691662358c10f5adb901,2021-09-27_17h15.59.699,forced_choiceRT_color,2021.2.3,Win32,59.95203837,,,,,,,,3,Ontime,short,j,0,2.054,5,0,20,1,1,,,,,
,1.26,,,,,,,,,j,red,5e68691662358c10f5adb901,2021-09-27_17h15.59.699,forced_choiceRT_color,2021.2.3,Win32,59.95203837,,,,,,,,3,Slow,short,j,1,2.161,5,1,21,2,1,,,,,
,1.56,,,,,,,,,j,red,5e68691662358c10f5adb901,2021-09-27_17h15.59.699,forced_choiceRT_color,2021.2.3,Win32,59.95203837,,,,,,,,3,Ontime,short,j,1,2.051,5,2,22,2,1,,,,,
,1.59,,,,,,,,,k,purple,5e68691662358c10f5adb901,2021-09-27_17h15.59.699,forced_choiceRT_color,2021.2.3,Win32,59.95203837,,,,,,,,3,Ontime,short,f,0,2.031,5,3,23,3,1,,,,,
,0.52,,,,,,,,,f,blue,5e68691662358c10f5adb901,2021-09-27_17h15.59.699,forced_choiceRT_color,2021.2.3,Win32,59.95203837,,,,,,,,3,Ontime,short,f,1,1.934,6,0,24,1,1,,,,,
,0.47,,,,,,,,,k,purple,5e68691662358c10f5adb901,2021-09-27_17h15.59.699,forced_choiceRT_color,2021.2.3,Win32,59.95203837,,,,,,,,3,Ontime,short,k,1,2.095,6,1,25,3,1,,,,,
,1.25,,,,,,,,,d,orange,5e68691662358c10f5adb901,2021-09-27_17h15.59.699,forced_choiceRT_color,2021.2.3,Win32,59.95203837,,,,,,,,3,Ontime,short,d,1,1.99,6,2,26,0,1,,,,,
,1.02,,,,,,,,,f,blue,5e68691662358c10f5adb901,2021-09-27_17h15.59.699,forced_choiceRT_color,2021.2.3,Win32,59.95203837,,,,,,,,3,Ontime,short,f,1,2.052,6,3,27,1,1,,,,,
,0.64,,,,,,,,,j,red,5e68691662358c10f5adb901,2021-09-27_17h15.59.699,forced_choiceRT_color,2021.2.3,Win32,59.95203837,,,,,,,,3,Slow,short,j,1,2.256,7,0,28,2,1,,,,,
,0.48,,,,,,,,,f,blue,5e68691662358c10f5adb901,2021-09-27_17h15.59.699,forced_choiceRT_color,2021.2.3,Win32,59.95203837,,,,,,,,3,Ontime,short,f,1,2.08,7,1,29,1,1,,,,,
,0.27,,,,,,,,,d,orange,5e68691662358c10f5adb901,2021-09-27_17h15.59.699,forced_choiceRT_color,2021.2.3,Win32,59.95203837,,,,,,,,3,Ontime,short,d,1,2.057,7,2,30,0,1,,,,,
,1.28,,,,,,,,,j,red,5e68691662358c10f5adb901,2021-09-27_17h15.59.699,forced_choiceRT_color,2021.2.3,Win32,59.95203837,,,,,,,,3,Slow,short,j,1,2.214,7,3,31,2,1,,,,,
,0.5,,,,,,,,,f,blue,5e68691662358c10f5adb901,2021-09-27_17h15.59.699,forced_choiceRT_color,2021.2.3,Win32,59.95203837,,,,,,,,3,Ontime,short,f,1,2.087,8,0,32,1,1,,,,,
,1.83,,,,,,,,,k,purple,5e68691662358c10f5adb901,2021-09-27_17h15.59.699,forced_choiceRT_color,2021.2.3,Win32,59.95203837,,,,,,,,3,Ontime,short,j,0,2.08,8,1,33,3,1,,,,,
,1.73,,,,,,,,,d,orange,5e68691662358c10f5adb901,2021-09-27_17h15.59.699,forced_choiceRT_color,2021.2.3,Win32,59.95203837,,,,,,,,3,Slow,short,d,1,2.123,8,2,34,0,1,,,,,
,1.5,,,,,,,,,f,blue,5e68691662358c10f5adb901,2021-09-27_17h15.59.699,forced_choiceRT_color,2021.2.3,Win32,59.95203837,,,,,,,,3,Ontime,short,j,0,2.048,8,3,35,1,1,,,,,
,1.92,,,,,,,,,d,orange,5e68691662358c10f5adb901,2021-09-27_17h15.59.699,forced_choiceRT_color,2021.2.3,Win32,59.95203837,,,,,,,,3,Slow,short,j,0,2.253,9,0,36,0,1,,,,,
,0.89,,,,,,,,,k,purple,5e68691662358c10f5adb901,2021-09-27_17h15.59.699,forced_choiceRT_color,2021.2.3,Win32,59.95203837,,,,,,,,3,Slow,short,k,1,2.121,9,1,37,3,1,,,,,
,1.77,,,,,,,,,j,red,5e68691662358c10f5adb901,2021-09-27_17h15.59.699,forced_choiceRT_color,2021.2.3,Win32,59.95203837,,,,,,,,3,Slow,short,j,1,2.111,9,2,38,2,1,,,,,
,0.28,,,,,,,,,d,orange,5e68691662358c10f5adb901,2021-09-27_17h15.59.699,forced_choiceRT_color,2021.2.3,Win32,59.95203837,,,,,,,,3,Ontime,short,d,1,1.939,9,3,39,0,1,,,,,
,,,,,,,,,,,,5e68691662358c10f5adb901,2021-09-27_17h15.59.699,forced_choiceRT_color,2021.2.3,Win32,59.95203837,,,,,,,,,,,,,,,,,,,2,0,2,0,1
,0.13,,,,,,,,,j,red,5e68691662358c10f5adb901,2021-09-27_17h15.59.699,forced_choiceRT_color,2021.2.3,Win32,59.95203837,,,,,,,,4,Slow,short,f,0,2.148,0,0,0,2,1,,,,,
,0.51,,,,,,,,,d,orange,5e68691662358c10f5adb901,2021-09-27_17h15.59.699,forced_choiceRT_color,2021.2.3,Win32,59.95203837,,,,,,,,4,Ontime,short,d,1,1.963,0,1,1,0,1,,,,,
,0.18,,,,,,,,,f,blue,5e68691662358c10f5adb901,2021-09-27_17h15.59.699,forced_choiceRT_color,2021.2.3,Win32,59.95203837,,,,,,,,4,Ontime,short,j,0,2.024,0,2,2,1,1,,,,,
,1.2,,,,,,,,,f,blue,5e68691662358c10f5adb901,2021-09-27_17h15.59.699,forced_choiceRT_color,2021.2.3,Win32,59.95203837,,,,,,,,4,Slow,short,j,0,2.136,0,3,3,1,1,,,,,
,0.09,,,,,,,,,k,purple,5e68691662358c10f5adb901,2021-09-27_17h15.59.699,forced_choiceRT_color,2021.2.3,Win32,59.95203837,,,,,,,,4,Fast,short,k,1,1.786,1,0,4,3,1,,,,,
,1.42,,,,,,,,,k,purple,5e68691662358c10f5adb901,2021-09-27_17h15.59.699,forced_choiceRT_color,2021.2.3,Win32,59.95203837,,,,,,,,4,Ontime,short,k,1,2.045,1,1,5,3,1,,,,,
,1,,,,,,,,,f,blue,5e68691662358c10f5adb901,2021-09-27_17h15.59.699,forced_choiceRT_color,2021.2.3,Win32,59.95203837,,,,,,,,4,Ontime,short,f,1,2.072,1,2,6,1,1,,,,,
,0.23,,,,,,,,,f,blue,5e68691662358c10f5adb901,2021-09-27_17h15.59.699,forced_choiceRT_color,2021.2.3,Win32,59.95203837,,,,,,,,4,Ontime,short,j,0,2.1,1,3,7,1,1,,,,,
,1.26,,,,,,,,,f,blue,5e68691662358c10f5adb901,2021-09-27_17h15.59.699,forced_choiceRT_color,2021.2.3,Win32,59.95203837,,,,,,,,4,Ontime,short,j,0,1.996,2,0,8,1,1,,,,,
,0.57,,,,,,,,,d,orange,5e68691662358c10f5adb901,2021-09-27_17h15.59.699,forced_choiceRT_color,2021.2.3,Win32,59.95203837,,,,,,,,4,Ontime,short,d,1,2.09,2,1,9,0,1,,,,,
,1.28,,,,,,,,,f,blue,5e68691662358c10f5adb901,2021-09-27_17h15.59.699,forced_choiceRT_color,2021.2.3,Win32,59.95203837,,,,,,,,4,Ontime,short,j,0,2.038,2,2,10,1,1,,,,,
,0.73,,,,,,,,,j,red,5e68691662358c10f5adb901,2021-09-27_17h15.59.699,forced_choiceRT_color,2021.2.3,Win32,59.95203837,,,,,,,,4,Ontime,short,f,0,2.097,2,3,11,2,1,,,,,
,0.59,,,,,,,,,j,red,5e68691662358c10f5adb901,2021-09-27_17h15.59.699,forced_choiceRT_color,2021.2.3,Win32,59.95203837,,,,,,,,4,Ontime,short,f,0,2.041,3,0,12,2,1,,,,,
,0.24,,,,,,,,,d,orange,5e68691662358c10f5adb901,2021-09-27_17h15.59.699,forced_choiceRT_color,2021.2.3,Win32,59.95203837,,,,,,,,4,Ontime,short,d,1,1.959,3,1,13,0,1,,,,,
,1.75,,,,,,,,,j,red,5e68691662358c10f5adb901,2021-09-27_17h15.59.699,forced_choiceRT_color,2021.2.3,Win32,59.95203837,,,,,,,,4,Slow,short,j,1,2.151,3,2,14,2,1,,,,,
,0.22,,,,,,,,,d,orange,5e68691662358c10f5adb901,2021-09-27_17h15.59.699,forced_choiceRT_color,2021.2.3,Win32,59.95203837,,,,,,,,4,Slow,short,d,1,2.105,3,3,15,0,1,,,,,
,1.91,,,,,,,,,j,red,5e68691662358c10f5adb901,2021-09-27_17h15.59.699,forced_choiceRT_color,2021.2.3,Win32,59.95203837,,,,,,,,4,Slow,short,d,0,2.399,4,0,16,2,1,,,,,
,1.22,,,,,,,,,d,orange,5e68691662358c10f5adb901,2021-09-27_17h15.59.699,forced_choiceRT_color,2021.2.3,Win32,59.95203837,,,,,,,,4,Ontime,short,d,1,2.07,4,1,17,0,1,,,,,
,1.09,,,,,,,,,j,red,5e68691662358c10f5adb901,2021-09-27_17h15.59.699,forced_choiceRT_color,2021.2.3,Win32,59.95203837,,,,,,,,4,Ontime,short,f,0,2.052,4,2,18,2,1,,,,,
,1.84,,,,,,,,,f,blue,5e68691662358c10f5adb901,2021-09-27_17h15.59.699,forced_choiceRT_color,2021.2.3,Win32,59.95203837,,,,,,,,4,Slow,short,f,1,2.237,4,3,19,1,1,,,,,
,0.64,,,,,,,,,k,purple,5e68691662358c10f5adb901,2021-09-27_17h15.59.699,forced_choiceRT_color,2021.2.3,Win32,59.95203837,,,,,,,,4,Ontime,short,k,1,2.061,5,0,20,3,1,,,,,
,1.36,,,,,,,,,k,purple,5e68691662358c10f5adb901,2021-09-27_17h15.59.699,forced_choiceRT_color,2021.2.3,Win32,59.95203837,,,,,,,,4,Slow,short,k,1,2.152,5,1,21,3,1,,,,,
,0.28,,,,,,,,,d,orange,5e68691662358c10f5adb901,2021-09-27_17h15.59.699,forced_choiceRT_color,2021.2.3,Win32,59.95203837,,,,,,,,4,Ontime,short,d,1,2.026,5,2,22,0,1,,,,,
,1.45,,,,,,,,,j,red,5e68691662358c10f5adb901,2021-09-27_17h15.59.699,forced_choiceRT_color,2021.2.3,Win32,59.95203837,,,,,,,,4,Slow,short,j,1,2.103,5,3,23,2,1,,,,,
,1.63,,,,,,,,,k,purple,5e68691662358c10f5adb901,2021-09-27_17h15.59.699,forced_choiceRT_color,2021.2.3,Win32,59.95203837,,,,,,,,4,Slow,short,k,1,2.171,6,0,24,3,1,,,,,
,0.03,,,,,,,,,j,red,5e68691662358c10f5adb901,2021-09-27_17h15.59.699,forced_choiceRT_color,2021.2.3,Win32,59.95203837,,,,,,,,4,Ontime,short,f,0,2.031,6,1,25,2,1,,,,,
,1.41,,,,,,,,,d,orange,5e68691662358c10f5adb901,2021-09-27_17h15.59.699,forced_choiceRT_color,2021.2.3,Win32,59.95203837,,,,,,,,4,Ontime,short,d,1,2.074,6,2,26,0,1,,,,,
,0.79,,,,,,,,,k,purple,5e68691662358c10f5adb901,2021-09-27_17h15.59.699,forced_choiceRT_color,2021.2.3,Win32,59.95203837,,,,,,,,4,Slow,short,k,1,2.102,6,3,27,3,1,,,,,
,0.46,,,,,,,,,f,blue,5e68691662358c10f5adb901,2021-09-27_17h15.59.699,forced_choiceRT_color,2021.2.3,Win32,59.95203837,,,,,,,,4,Ontime,short,j,0,1.979,7,0,28,1,1,,,,,
,1.03,,,,,,,,,j,red,5e68691662358c10f5adb901,2021-09-27_17h15.59.699,forced_choiceRT_color,2021.2.3,Win32,59.95203837,,,,,,,,4,Slow,short,f,0,2.137,7,1,29,2,1,,,,,
,1.22,,,,,,,,,k,purple,5e68691662358c10f5adb901,2021-09-27_17h15.59.699,forced_choiceRT_color,2021.2.3,Win32,59.95203837,,,,,,,,4,Fast,short,j,0,1.787,7,2,30,3,1,,,,,
,0.62,,,,,,,,,d,orange,5e68691662358c10f5adb901,2021-09-27_17h15.59.699,forced_choiceRT_color,2021.2.3,Win32,59.95203837,,,,,,,,4,Fast,short,d,1,1.855,7,3,31,0,1,,,,,
,0.08,,,,,,,,,f,blue,5e68691662358c10f5adb901,2021-09-27_17h15.59.699,forced_choiceRT_color,2021.2.3,Win32,59.95203837,,,,,,,,4,Slow,short,j,0,2.22,8,0,32,1,1,,,,,
,1.11,,,,,,,,,k,purple,5e68691662358c10f5adb901,2021-09-27_17h15.59.699,forced_choiceRT_color,2021.2.3,Win32,59.95203837,,,,,,,,4,Ontime,short,k,1,2.064,8,1,33,3,1,,,,,
,1.4,,,,,,,,,d,orange,5e68691662358c10f5adb901,2021-09-27_17h15.59.699,forced_choiceRT_color,2021.2.3,Win32,59.95203837,,,,,,,,4,Slow,short,d,1,2.104,8,2,34,0,1,,,,,
,1.56,,,,,,,,,d,orange,5e68691662358c10f5adb901,2021-09-27_17h15.59.699,forced_choiceRT_color,2021.2.3,Win32,59.95203837,,,,,,,,4,Slow,short,d,1,2.221,8,3,35,0,1,,,,,
,0.51,,,,,,,,,f,blue,5e68691662358c10f5adb901,2021-09-27_17h15.59.699,forced_choiceRT_color,2021.2.3,Win32,59.95203837,,,,,,,,4,Ontime,short,j,0,2.045,9,0,36,1,1,,,,,
,0.29,,,,,,,,,k,purple,5e68691662358c10f5adb901,2021-09-27_17h15.59.699,forced_choiceRT_color,2021.2.3,Win32,59.95203837,,,,,,,,4,Ontime,short,k,1,2.057,9,1,37,3,1,,,,,
,0.76,,,,,,,,,k,purple,5e68691662358c10f5adb901,2021-09-27_17h15.59.699,forced_choiceRT_color,2021.2.3,Win32,59.95203837,,,,,,,,4,Ontime,short,k,1,2.037,9,2,38,3,1,,,,,
,0.47,,,,,,,,,j,red,5e68691662358c10f5adb901,2021-09-27_17h15.59.699,forced_choiceRT_color,2021.2.3,Win32,59.95203837,,,,,,,,4,Ontime,short,f,0,2.05,9,3,39,2,1,,,,,
,,,,,,,,,,,,5e68691662358c10f5adb901,2021-09-27_17h15.59.699,forced_choiceRT_color,2021.2.3,Win32,59.95203837,,,,,,,,,,,,,,,,,,,3,0,3,0,1
,0.3,,,,,,,,,d,orange,5e68691662358c10f5adb901,2021-09-27_17h15.59.699,forced_choiceRT_color,2021.2.3,Win32,59.95203837,,,,,,,,5,Ontime,short,d,1,2.019,0,0,0,0,1,,,,,
,1.33,,,,,,,,,k,purple,5e68691662358c10f5adb901,2021-09-27_17h15.59.699,forced_choiceRT_color,2021.2.3,Win32,59.95203837,,,,,,,,5,Slow,short,k,1,2.178,0,1,1,3,1,,,,,
,0.08,,,,,,,,,k,purple,5e68691662358c10f5adb901,2021-09-27_17h15.59.699,forced_choiceRT_color,2021.2.3,Win32,59.95203837,,,,,,,,5,Ontime,short,k,1,2.037,0,2,2,3,1,,,,,
,1.28,,,,,,,,,f,blue,5e68691662358c10f5adb901,2021-09-27_17h15.59.699,forced_choiceRT_color,2021.2.3,Win32,59.95203837,,,,,,,,5,Slow,short,j,0,2.129,0,3,3,1,1,,,,,
,0.03,,,,,,,,,d,orange,5e68691662358c10f5adb901,2021-09-27_17h15.59.699,forced_choiceRT_color,2021.2.3,Win32,59.95203837,,,,,,,,5,Ontime,short,d,1,2.071,1,0,4,0,1,,,,,
,0.13,,,,,,,,,k,purple,5e68691662358c10f5adb901,2021-09-27_17h15.59.699,forced_choiceRT_color,2021.2.3,Win32,59.95203837,,,,,,,,5,Ontime,short,k,1,2.062,1,1,5,3,1,,,,,
,0.54,,,,,,,,,f,blue,5e68691662358c10f5adb901,2021-09-27_17h15.59.699,forced_choiceRT_color,2021.2.3,Win32,59.95203837,,,,,,,,5,Ontime,short,f,1,1.978,1,2,6,1,1,,,,,
,0.72,,,,,,,,,j,red,5e68691662358c10f5adb901,2021-09-27_17h15.59.699,forced_choiceRT_color,2021.2.3,Win32,59.95203837,,,,,,,,5,Ontime,short,j,1,2.058,1,3,7,2,1,,,,,
,1.28,,,,,,,,,k,purple,5e68691662358c10f5adb901,2021-09-27_17h15.59.699,forced_choiceRT_color,2021.2.3,Win32,59.95203837,,,,,,,,5,Slow,short,k,1,2.105,2,0,8,3,1,,,,,
,1.02,,,,,,,,,f,blue,5e68691662358c10f5adb901,2021-09-27_17h15.59.699,forced_choiceRT_color,2021.2.3,Win32,59.95203837,,,,,,,,5,Ontime,short,f,1,1.962,2,1,9,1,1,,,,,
,1.46,,,,,,,,,f,blue,5e68691662358c10f5adb901,2021-09-27_17h15.59.699,forced_choiceRT_color,2021.2.3,Win32,59.95203837,,,,,,,,5,Ontime,short,f,1,2.09,2,2,10,1,1,,,,,
,0.89,,,,,,,,,j,red,5e68691662358c10f5adb901,2021-09-27_17h15.59.699,forced_choiceRT_color,2021.2.3,Win32,59.95203837,,,,,,,,5,Ontime,short,j,1,1.939,2,3,11,2,1,,,,,
,1.86,,,,,,,,,d,orange,5e68691662358c10f5adb901,2021-09-27_17h15.59.699,forced_choiceRT_color,2021.2.3,Win32,59.95203837,,,,,,,,5,Slow,short,k,0,2.131,3,0,12,0,1,,,,,
,0.08,,,,,,,,,k,purple,5e68691662358c10f5adb901,2021-09-27_17h15.59.699,forced_choiceRT_color,2021.2.3,Win32,59.95203837,,,,,,,,5,Fast,short,k,1,1.847,3,1,13,3,1,,,,,
,1.83,,,,,,,,,k,purple,5e68691662358c10f5adb901,2021-09-27_17h15.59.699,forced_choiceRT_color,2021.2.3,Win32,59.95203837,,,,,,,,5,Slow,short,d,0,2.186,3,2,14,3,1,,,,,
,0.45,,,,,,,,,j,red,5e68691662358c10f5adb901,2021-09-27_17h15.59.699,forced_choiceRT_color,2021.2.3,Win32,59.95203837,,,,,,,,5,Ontime,short,f,0,2.089,3,3,15,2,1,,,,,
,1.38,,,,,,,,,f,blue,5e68691662358c10f5adb901,2021-09-27_17h15.59.699,forced_choiceRT_color,2021.2.3,Win32,59.95203837,,,,,,,,5,Ontime,short,j,0,1.921,4,0,16,1,1,,,,,
,1.56,,,,,,,,,j,red,5e68691662358c10f5adb901,2021-09-27_17h15.59.699,forced_choiceRT_color,2021.2.3,Win32,59.95203837,,,,,,,,5,Ontime,short,f,0,2.002,4,1,17,2,1,,,,,
,0.13,,,,,,,,,f,blue,5e68691662358c10f5adb901,2021-09-27_17h15.59.699,forced_choiceRT_color,2021.2.3,Win32,59.95203837,,,,,,,,5,Fast,short,j,0,1.121,4,2,18,1,1,,,,,
,1.48,,,,,,,,,j,red,5e68691662358c10f5adb901,2021-09-27_17h15.59.699,forced_choiceRT_color,2021.2.3,Win32,59.95203837,,,,,,,,5,Slow,short,f,0,2.141,4,3,19,2,1,,,,,
,1.47,,,,,,,,,d,orange,5e68691662358c10f5adb901,2021-09-27_17h15.59.699,forced_choiceRT_color,2021.2.3,Win32,59.95203837,,,,,,,,5,Slow,short,d,1,2.226,5,0,20,0,1,,,,,
,1.23,,,,,,,,,f,blue,5e68691662358c10f5adb901,2021-09-27_17h15.59.699,forced_choiceRT_color,2021.2.3,Win32,59.95203837,,,,,,,,5,Slow,short,j,0,2.115,5,1,21,1,1,,,,,
,1.47,,,,,,,,,k,purple,5e68691662358c10f5adb901,2021-09-27_17h15.59.699,forced_choiceRT_color,2021.2.3,Win32,59.95203837,,,,,,,,5,Slow,short,k,1,2.246,5,2,22,3,1,,,,,
,1.73,,,,,,,,,d,orange,5e68691662358c10f5adb901,2021-09-27_17h15.59.699,forced_choiceRT_color,2021.2.3,Win32,59.95203837,,,,,,,,5,Ontime,short,k,0,2.069,5,3,23,0,1,,,,,
,0.52,,,,,,,,,k,purple,5e68691662358c10f5adb901,2021-09-27_17h15.59.699,forced_choiceRT_color,2021.2.3,Win32,59.95203837,,,,,,,,5,Ontime,short,k,1,2.002,6,0,24,3,1,,,,,
,1.3,,,,,,,,,j,red,5e68691662358c10f5adb901,2021-09-27_17h15.59.699,forced_choiceRT_color,2021.2.3,Win32,59.95203837,,,,,,,,5,Ontime,short,j,1,1.936,6,1,25,2,1,,,,,
,1.09,,,,,,,,,d,orange,5e68691662358c10f5adb901,2021-09-27_17h15.59.699,forced_choiceRT_color,2021.2.3,Win32,59.95203837,,,,,,,,5,Fast,short,f,0,0.061,6,2,26,0,1,,,,,
,0.99,,,,,,,,,d,orange,5e68691662358c10f5adb901,2021-09-27_17h15.59.699,forced_choiceRT_color,2021.2.3,Win32,59.95203837,,,,,,,,5,Ontime,short,d,1,1.975,6,3,27,0,1,,,,,
,0.98,,,,,,,,,f,blue,5e68691662358c10f5adb901,2021-09-27_17h15.59.699,forced_choiceRT_color,2021.2.3,Win32,59.95203837,,,,,,,,5,Ontime,short,f,1,2.037,7,0,28,1,1,,,,,
,1.53,,,,,,,,,j,red,5e68691662358c10f5adb901,2021-09-27_17h15.59.699,forced_choiceRT_color,2021.2.3,Win32,59.95203837,,,,,,,,5,Ontime,short,f,0,2.096,7,1,29,2,1,,,,,
,1.7,,,,,,,,,j,red,5e68691662358c10f5adb901,2021-09-27_17h15.59.699,forced_choiceRT_color,2021.2.3,Win32,59.95203837,,,,,,,,5,Ontime,short,j,1,2.09,7,2,30,2,1,,,,,
,0.29,,,,,,,,,j,red,5e68691662358c10f5adb901,2021-09-27_17h15.59.699,forced_choiceRT_color,2021.2.3,Win32,59.95203837,,,,,,,,5,Ontime,short,j,1,1.924,7,3,31,2,1,,,,,
,1.24,,,,,,,,,k,purple,5e68691662358c10f5adb901,2021-09-27_17h15.59.699,forced_choiceRT_color,2021.2.3,Win32,59.95203837,,,,,,,,5,Fast,short,k,1,1.877,8,0,32,3,1,,,,,
,1.41,,,,,,,,,d,orange,5e68691662358c10f5adb901,2021-09-27_17h15.59.699,forced_choiceRT_color,2021.2.3,Win32,59.95203837,,,,,,,,5,Ontime,short,d,1,2.003,8,1,33,0,1,,,,,
,0.13,,,,,,,,,d,orange,5e68691662358c10f5adb901,2021-09-27_17h15.59.699,forced_choiceRT_color,2021.2.3,Win32,59.95203837,,,,,,,,5,Ontime,short,d,1,1.953,8,2,34,0,1,,,,,
,0.66,,,,,,,,,k,purple,5e68691662358c10f5adb901,2021-09-27_17h15.59.699,forced_choiceRT_color,2021.2.3,Win32,59.95203837,,,,,,,,5,Ontime,short,k,1,2.002,8,3,35,3,1,,,,,
,1.27,,,,,,,,,f,blue,5e68691662358c10f5adb901,2021-09-27_17h15.59.699,forced_choiceRT_color,2021.2.3,Win32,59.95203837,,,,,,,,5,Slow,short,j,0,2.127,9,0,36,1,1,,,,,
,0.95,,,,,,,,,f,blue,5e68691662358c10f5adb901,2021-09-27_17h15.59.699,forced_choiceRT_color,2021.2.3,Win32,59.95203837,,,,,,,,5,Ontime,short,f,1,2.099,9,1,37,1,1,,,,,
,1.8,,,,,,,,,j,red,5e68691662358c10f5adb901,2021-09-27_17h15.59.699,forced_choiceRT_color,2021.2.3,Win32,59.95203837,,,,,,,,5,Slow,short,f,0,2.204,9,2,38,2,1,,,,,
,0.86,,,,,,,,,d,orange,5e68691662358c10f5adb901,2021-09-27_17h15.59.699,forced_choiceRT_color,2021.2.3,Win32,59.95203837,,,,,,,,5,Slow,short,d,1,2.126,9,3,39,0,1,,,,,
,,,,,,,,,,,,5e68691662358c10f5adb901,2021-09-27_17h15.59.699,forced_choiceRT_color,2021.2.3,Win32,59.95203837,,,,,,,,,,,,,,,,,,,4,0,4,0,1
,1.58,,,,,,,,,j,red,5e68691662358c10f5adb901,2021-09-27_17h15.59.699,forced_choiceRT_color,2021.2.3,Win32,59.95203837,,,,,,,,6,Slow,short,f,0,2.267,0,0,0,2,1,,,,,
,1.85,,,,,,,,,k,purple,5e68691662358c10f5adb901,2021-09-27_17h15.59.699,forced_choiceRT_color,2021.2.3,Win32,59.95203837,,,,,,,,6,Slow,short,k,1,3.07,0,1,1,3,1,,,,,
,1.54,,,,,,,,,k,purple,5e68691662358c10f5adb901,2021-09-27_17h15.59.699,forced_choiceRT_color,2021.2.3,Win32,59.95203837,,,,,,,,6,Slow,short,j,0,2.106,0,2,2,3,1,,,,,
,0.33,,,,,,,,,f,blue,5e68691662358c10f5adb901,2021-09-27_17h15.59.699,forced_choiceRT_color,2021.2.3,Win32,59.95203837,,,,,,,,6,Slow,short,f,1,2.305,0,3,3,1,1,,,,,
,0.59,,,,,,,,,f,blue,5e68691662358c10f5adb901,2021-09-27_17h15.59.699,forced_choiceRT_color,2021.2.3,Win32,59.95203837,,,,,,,,6,Ontime,short,f,1,1.978,1,0,4,1,1,,,,,
,0.91,,,,,,,,,d,orange,5e68691662358c10f5adb901,2021-09-27_17h15.59.699,forced_choiceRT_color,2021.2.3,Win32,59.95203837,,,,,,,,6,Fast,short,d,1,1.85,1,1,5,0,1,,,,,
,1.4,,,,,,,,,j,red,5e68691662358c10f5adb901,2021-09-27_17h15.59.699,forced_choiceRT_color,2021.2.3,Win32,59.95203837,,,,,,,,6,Slow,short,f,0,2.152,1,2,6,2,1,,,,,
,1.99,,,,,,,,,f,blue,5e68691662358c10f5adb901,2021-09-27_17h15.59.699,forced_choiceRT_color,2021.2.3,Win32,59.95203837,,,,,,,,6,Slow,short,j,0,2.187,1,3,7,1,1,,,,,
,1.38,,,,,,,,,d,orange,5e68691662358c10f5adb901,2021-09-27_17h15.59.699,forced_choiceRT_color,2021.2.3,Win32,59.95203837,,,,,,,,6,Slow,short,d,1,2.126,2,0,8,0,1,,,,,
,0.48,,,,,,,,,d,orange,5e68691662358c10f5adb901,2021-09-27_17h15.59.699,forced_choiceRT_color,2021.2.3,Win32,59.95203837,,,,,,,,6,Fast,short,d,1,1.711,2,1,9,0,1,,,,,
,1.17,,,,,,,,,j,red,5e68691662358c10f5adb901,2021-09-27_17h15.59.699,forced_choiceRT_color,2021.2.3,Win32,59.95203837,,,,,,,,6,Ontime,short,j,1,1.991,2,2,10,2,1,,,,,
,1.25,,,,,,,,,f,blue,5e68691662358c10f5adb901,2021-09-27_17h15.59.699,forced_choiceRT_color,2021.2.3,Win32,59.95203837,,,,,,,,6,Ontime,short,k,0,2.069,2,3,11,1,1,,,,,
,0.03,,,,,,,,,f,blue,5e68691662358c10f5adb901,2021-09-27_17h15.59.699,forced_choiceRT_color,2021.2.3,Win32,59.95203837,,,,,,,,6,Fast,short,f,1,1.841,3,0,12,1,1,,,,,
,1.11,,,,,,,,,k,purple,5e68691662358c10f5adb901,2021-09-27_17h15.59.699,forced_choiceRT_color,2021.2.3,Win32,59.95203837,,,,,,,,6,Ontime,short,k,1,1.997,3,1,13,3,1,,,,,
,1.33,,,,,,,,,j,red,5e68691662358c10f5adb901,2021-09-27_17h15.59.699,forced_choiceRT_color,2021.2.3,Win32,59.95203837,,,,,,,,6,Ontime,short,j,1,2.091,3,2,14,2,1,,,,,
,0.31,,,,,,,,,d,orange,5e68691662358c10f5adb901,2021-09-27_17h15.59.699,forced_choiceRT_color,2021.2.3,Win32,59.95203837,,,,,,,,6,Fast,short,d,1,1.896,3,3,15,0,1,,,,,
,0.91,,,,,,,,,d,orange,5e68691662358c10f5adb901,2021-09-27_17h15.59.699,forced_choiceRT_color,2021.2.3,Win32,59.95203837,,,,,,,,6,Fast,short,d,1,1.876,4,0,16,0,1,,,,,
,0.59,,,,,,,,,k,purple,5e68691662358c10f5adb901,2021-09-27_17h15.59.699,forced_choiceRT_color,2021.2.3,Win32,59.95203837,,,,,,,,6,Ontime,short,k,1,2.018,4,1,17,3,1,,,,,
,0.91,,,,,,,,,k,purple,5e68691662358c10f5adb901,2021-09-27_17h15.59.699,forced_choiceRT_color,2021.2.3,Win32,59.95203837,,,,,,,,6,Ontime,short,k,1,2.047,4,2,18,3,1,,,,,
,0.5,,,,,,,,,k,purple,5e68691662358c10f5adb901,2021-09-27_17h15.59.699,forced_choiceRT_color,2021.2.3,Win32,59.95203837,,,,,,,,6,Ontime,short,k,1,1.949,4,3,19,3,1,,,,,
,0.21,,,,,,,,,j,red,5e68691662358c10f5adb901,2021-09-27_17h15.59.699,forced_choiceRT_color,2021.2.3,Win32,59.95203837,,,,,,,,6,Ontime,short,j,1,2.045,5,0,20,2,1,,,,,
,1.05,,,,,,,,,f,blue,5e68691662358c10f5adb901,2021-09-27_17h15.59.699,forced_choiceRT_color,2021.2.3,Win32,59.95203837,,,,,,,,6,Ontime,short,f,1,2.008,5,1,21,1,1,,,,,
,1.85,,,,,,,,,f,blue,5e68691662358c10f5adb901,2021-09-27_17h15.59.699,forced_choiceRT_color,2021.2.3,Win32,59.95203837,,,,,,,,6,Slow,short,f,1,2.262,5,2,22,1,1,,,,,
,1.09,,,,,,,,,f,blue,5e68691662358c10f5adb901,2021-09-27_17h15.59.699,forced_choiceRT_color,2021.2.3,Win32,59.95203837,,,,,,,,6,Ontime,short,f,1,1.989,5,3,23,1,1,,,,,
,1.14,,,,,,,,,d,orange,5e68691662358c10f5adb901,2021-09-27_17h15.59.699,forced_choiceRT_color,2021.2.3,Win32,59.95203837,,,,,,,,6,Ontime,short,d,1,2.05,6,0,24,0,1,,,,,
,0.55,,,,,,,,,j,red,5e68691662358c10f5adb901,2021-09-27_17h15.59.699,forced_choiceRT_color,2021.2.3,Win32,59.95203837,,,,,,,,6,Slow,short,j,1,2.108,6,1,25,2,1,,,,,
,0.82,,,,,,,,,d,orange,5e68691662358c10f5adb901,2021-09-27_17h15.59.699,forced_choiceRT_color,2021.2.3,Win32,59.95203837,,,,,,,,6,Slow,short,d,1,2.163,6,2,26,0,1,,,,,
,1.09,,,,,,,,,f,blue,5e68691662358c10f5adb901,2021-09-27_17h15.59.699,forced_choiceRT_color,2021.2.3,Win32,59.95203837,,,,,,,,6,Ontime,short,f,1,1.974,6,3,27,1,1,,,,,
,1.57,,,,,,,,,k,purple,5e68691662358c10f5adb901,2021-09-27_17h15.59.699,forced_choiceRT_color,2021.2.3,Win32,59.95203837,,,,,,,,6,Fast,short,j,0,1.858,7,0,28,3,1,,,,,
,1.59,,,,,,,,,j,red,5e68691662358c10f5adb901,2021-09-27_17h15.59.699,forced_choiceRT_color,2021.2.3,Win32,59.95203837,,,,,,,,6,Ontime,short,k,0,2.053,7,1,29,2,1,,,,,
,1.41,,,,,,,,,d,orange,5e68691662358c10f5adb901,2021-09-27_17h15.59.699,forced_choiceRT_color,2021.2.3,Win32,59.95203837,,,,,,,,6,Ontime,short,j,0,1.934,7,2,30,0,1,,,,,
,0.26,,,,,,,,,k,purple,5e68691662358c10f5adb901,2021-09-27_17h15.59.699,forced_choiceRT_color,2021.2.3,Win32,59.95203837,,,,,,,,6,Ontime,short,k,1,2.045,7,3,31,3,1,,,,,
,1.22,,,,,,,,,k,purple,5e68691662358c10f5adb901,2021-09-27_17h15.59.699,forced_choiceRT_color,2021.2.3,Win32,59.95203837,,,,,,,,6,Ontime,short,k,1,1.98,8,0,32,3,1,,,,,
,1.5,,,,,,,,,j,red,5e68691662358c10f5adb901,2021-09-27_17h15.59.699,forced_choiceRT_color,2021.2.3,Win32,59.95203837,,,,,,,,6,Slow,short,f,0,2.219,8,1,33,2,1,,,,,
,0.54,,,,,,,,,d,orange,5e68691662358c10f5adb901,2021-09-27_17h15.59.699,forced_choiceRT_color,2021.2.3,Win32,59.95203837,,,,,,,,6,Ontime,short,d,1,2.009,8,2,34,0,1,,,,,
,0.62,,,,,,,,,f,blue,5e68691662358c10f5adb901,2021-09-27_17h15.59.699,forced_choiceRT_color,2021.2.3,Win32,59.95203837,,,,,,,,6,Slow,short,j,0,2.104,8,3,35,1,1,,,,,
,1.22,,,,,,,,,k,purple,5e68691662358c10f5adb901,2021-09-27_17h15.59.699,forced_choiceRT_color,2021.2.3,Win32,59.95203837,,,,,,,,6,Ontime,short,k,1,2.043,9,0,36,3,1,,,,,
,1.4,,,,,,,,,j,red,5e68691662358c10f5adb901,2021-09-27_17h15.59.699,forced_choiceRT_color,2021.2.3,Win32,59.95203837,,,,,,,,6,Slow,short,f,0,2.136,9,1,37,2,1,,,,,
,0.79,,,,,,,,,j,red,5e68691662358c10f5adb901,2021-09-27_17h15.59.699,forced_choiceRT_color,2021.2.3,Win32,59.95203837,,,,,,,,6,Slow,short,j,1,2.124,9,2,38,2,1,,,,,
,1.22,,,,,,,,,d,orange,5e68691662358c10f5adb901,2021-09-27_17h15.59.699,forced_choiceRT_color,2021.2.3,Win32,59.95203837,,,,,,,,6,Slow,short,d,1,2.27,9,3,39,0,1,,,,,
,,,,,,,,,,,,5e68691662358c10f5adb901,2021-09-27_17h15.59.699,forced_choiceRT_color,2021.2.3,Win32,59.95203837,,,,,,,,,,,,,,,,,,,5,0,5,0,1
,0.96,,,,,,,,,f,blue,5e68691662358c10f5adb901,2021-09-27_17h15.59.699,forced_choiceRT_color,2021.2.3,Win32,59.95203837,,,,,,,,7,Ontime,short,f,1,2.05,0,0,0,1,1,,,,,
,0.93,,,,,,,,,f,blue,5e68691662358c10f5adb901,2021-09-27_17h15.59.699,forced_choiceRT_color,2021.2.3,Win32,59.95203837,,,,,,,,7,Ontime,short,f,1,2.014,0,1,1,1,1,,,,,
,0.71,,,,,,,,,j,red,5e68691662358c10f5adb901,2021-09-27_17h15.59.699,forced_choiceRT_color,2021.2.3,Win32,59.95203837,,,,,,,,7,Ontime,short,j,1,2.012,0,2,2,2,1,,,,,
,1.75,,,,,,,,,k,purple,5e68691662358c10f5adb901,2021-09-27_17h15.59.699,forced_choiceRT_color,2021.2.3,Win32,59.95203837,,,,,,,,7,Slow,short,d,0,2.168,0,3,3,3,1,,,,,
,0.96,,,,,,,,,j,red,5e68691662358c10f5adb901,2021-09-27_17h15.59.699,forced_choiceRT_color,2021.2.3,Win32,59.95203837,,,,,,,,7,Ontime,short,f,0,2.044,1,0,4,2,1,,,,,
,0.99,,,,,,,,,d,orange,5e68691662358c10f5adb901,2021-09-27_17h15.59.699,forced_choiceRT_color,2021.2.3,Win32,59.95203837,,,,,,,,7,Ontime,short,d,1,1.992,1,1,5,0,1,,,,,
,1.91,,,,,,,,,k,purple,5e68691662358c10f5adb901,2021-09-27_17h15.59.699,forced_choiceRT_color,2021.2.3,Win32,59.95203837,,,,,,,,7,Ontime,short,j,0,2.084,1,2,6,3,1,,,,,
,1.49,,,,,,,,,k,purple,5e68691662358c10f5adb901,2021-09-27_17h15.59.699,forced_choiceRT_color,2021.2.3,Win32,59.95203837,,,,,,,,7,Slow,short,k,1,2.32,1,3,7,3,1,,,,,
,1.9,,,,,,,,,j,red,5e68691662358c10f5adb901,2021-09-27_17h15.59.699,forced_choiceRT_color,2021.2.3,Win32,59.95203837,,,,,,,,7,Ontime,short,d,0,2.06,2,0,8,2,1,,,,,
,0.36,,,,,,,,,d,orange,5e68691662358c10f5adb901,2021-09-27_17h15.59.699,forced_choiceRT_color,2021.2.3,Win32,59.95203837,,,,,,,,7,Ontime,short,d,1,1.991,2,1,9,0,1,,,,,
,1.77,,,,,,,,,d,orange,5e68691662358c10f5adb901,2021-09-27_17h15.59.699,forced_choiceRT_color,2021.2.3,Win32,59.95203837,,,,,,,,7,Ontime,short,j,0,2.07,2,2,10,0,1,,,,,
,1.19,,,,,,,,,f,blue,5e68691662358c10f5adb901,2021-09-27_17h15.59.699,forced_choiceRT_color,2021.2.3,Win32,59.95203837,,,,,,,,7,Slow,short,f,1,2.289,2,3,11,1,1,,,,,
,1.06,,,,,,,,,j,red,5e68691662358c10f5adb901,2021-09-27_17h15.59.699,forced_choiceRT_color,2021.2.3,Win32,59.95203837,,,,,,,,7,Ontime,short,j,1,1.982,3,0,12,2,1,,,,,
,0.4,,,,,,,,,f,blue,5e68691662358c10f5adb901,2021-09-27_17h15.59.699,forced_choiceRT_color,2021.2.3,Win32,59.95203837,,,,,,,,7,Ontime,short,f,1,1.947,3,1,13,1,1,,,,,
,1.04,,,,,,,,,f,blue,5e68691662358c10f5adb901,2021-09-27_17h15.59.699,forced_choiceRT_color,2021.2.3,Win32,59.95203837,,,,,,,,7,Ontime,short,f,1,1.965,3,2,14,1,1,,,,,
,0.74,,,,,,,,,k,purple,5e68691662358c10f5adb901,2021-09-27_17h15.59.699,forced_choiceRT_color,2021.2.3,Win32,59.95203837,,,,,,,,7,Fast,short,k,1,1.771,3,3,15,3,1,,,,,
,0.14,,,,,,,,,d,orange,5e68691662358c10f5adb901,2021-09-27_17h15.59.699,forced_choiceRT_color,2021.2.3,Win32,59.95203837,,,,,,,,7,Fast,short,d,1,1.647,4,0,16,0,1,,,,,
,1.59,,,,,,,,,j,red,5e68691662358c10f5adb901,2021-09-27_17h15.59.699,forced_choiceRT_color,2021.2.3,Win32,59.95203837,,,,,,,,7,Ontime,short,d,0,2.007,4,1,17,2,1,,,,,
,1.99,,,,,,,,,f,blue,5e68691662358c10f5adb901,2021-09-27_17h15.59.699,forced_choiceRT_color,2021.2.3,Win32,59.95203837,,,,,,,,7,Slow,short,k,0,2.179,4,2,18,1,1,,,,,
,0.1,,,,,,,,,j,red,5e68691662358c10f5adb901,2021-09-27_17h15.59.699,forced_choiceRT_color,2021.2.3,Win32,59.95203837,,,,,,,,7,Fast,short,j,1,1.876,4,3,19,2,1,,,,,
,0.55,,,,,,,,,f,blue,5e68691662358c10f5adb901,2021-09-27_17h15.59.699,forced_choiceRT_color,2021.2.3,Win32,59.95203837,,,,,,,,7,Slow,short,f,1,2.105,5,0,20,1,1,,,,,
,1.63,,,,,,,,,d,orange,5e68691662358c10f5adb901,2021-09-27_17h15.59.699,forced_choiceRT_color,2021.2.3,Win32,59.95203837,,,,,,,,7,Slow,short,f,0,2.248,5,1,21,0,1,,,,,
,0.09,,,,,,,,,d,orange,5e68691662358c10f5adb901,2021-09-27_17h15.59.699,forced_choiceRT_color,2021.2.3,Win32,59.95203837,,,,,,,,7,Ontime,short,d,1,2.04,5,2,22,0,1,,,,,
,1.34,,,,,,,,,k,purple,5e68691662358c10f5adb901,2021-09-27_17h15.59.699,forced_choiceRT_color,2021.2.3,Win32,59.95203837,,,,,,,,7,Slow,short,k,1,2.196,5,3,23,3,1,,,,,
,0.97,,,,,,,,,d,orange,5e68691662358c10f5adb901,2021-09-27_17h15.59.699,forced_choiceRT_color,2021.2.3,Win32,59.95203837,,,,,,,,7,Ontime,short,d,1,2.071,6,0,24,0,1,,,,,
,0.24,,,,,,,,,j,red,5e68691662358c10f5adb901,2021-09-27_17h15.59.699,forced_choiceRT_color,2021.2.3,Win32,59.95203837,,,,,,,,7,Ontime,short,j,1,2.033,6,1,25,2,1,,,,,
,0.34,,,,,,,,,f,blue,5e68691662358c10f5adb901,2021-09-27_17h15.59.699,forced_choiceRT_color,2021.2.3,Win32,59.95203837,,,,,,,,7,Ontime,short,f,1,1.995,6,2,26,1,1,,,,,
,0.41,,,,,,,,,k,purple,5e68691662358c10f5adb901,2021-09-27_17h15.59.699,forced_choiceRT_color,2021.2.3,Win32,59.95203837,,,,,,,,7,Ontime,short,k,1,1.994,6,3,27,3,1,,,,,
,0.37,,,,,,,,,k,purple,5e68691662358c10f5adb901,2021-09-27_17h15.59.699,forced_choiceRT_color,2021.2.3,Win32,59.95203837,,,,,,,,7,Ontime,short,k,1,1.976,7,0,28,3,1,,,,,
,1.25,,,,,,,,,j,red,5e68691662358c10f5adb901,2021-09-27_17h15.59.699,forced_choiceRT_color,2021.2.3,Win32,59.95203837,,,,,,,,7,Slow,short,f,0,2.103,7,1,29,2,1,,,,,
,0.03,,,,,,,,,f,blue,5e68691662358c10f5adb901,2021-09-27_17h15.59.699,forced_choiceRT_color,2021.2.3,Win32,59.95203837,,,,,,,,7,Ontime,short,f,1,1.919,7,2,30,1,1,,,,,
,0.7,,,,,,,,,d,orange,5e68691662358c10f5adb901,2021-09-27_17h15.59.699,forced_choiceRT_color,2021.2.3,Win32,59.95203837,,,,,,,,7,Ontime,short,d,1,1.997,7,3,31,0,1,,,,,
,0.13,,,,,,,,,j,red,5e68691662358c10f5adb901,2021-09-27_17h15.59.699,forced_choiceRT_color,2021.2.3,Win32,59.95203837,,,,,,,,7,Ontime,short,j,1,2.075,8,0,32,2,1,,,,,
,0.45,,,,,,,,,j,red,5e68691662358c10f5adb901,2021-09-27_17h15.59.699,forced_choiceRT_color,2021.2.3,Win32,59.95203837,,,,,,,,7,Ontime,short,j,1,2.088,8,1,33,2,1,,,,,
,0.68,,,,,,,,,d,orange,5e68691662358c10f5adb901,2021-09-27_17h15.59.699,forced_choiceRT_color,2021.2.3,Win32,59.95203837,,,,,,,,7,Slow,short,d,1,2.127,8,2,34,0,1,,,,,
,1.1,,,,,,,,,d,orange,5e68691662358c10f5adb901,2021-09-27_17h15.59.699,forced_choiceRT_color,2021.2.3,Win32,59.95203837,,,,,,,,7,Ontime,short,d,1,2.054,8,3,35,0,1,,,,,
,1.65,,,,,,,,,f,blue,5e68691662358c10f5adb901,2021-09-27_17h15.59.699,forced_choiceRT_color,2021.2.3,Win32,59.95203837,,,,,,,,7,Slow,short,k,0,2.112,9,0,36,1,1,,,,,
,1.83,,,,,,,,,k,purple,5e68691662358c10f5adb901,2021-09-27_17h15.59.699,forced_choiceRT_color,2021.2.3,Win32,59.95203837,,,,,,,,7,Slow,short,k,1,2.534,9,1,37,3,1,,,,,
,1.92,,,,,,,,,k,purple,5e68691662358c10f5adb901,2021-09-27_17h15.59.699,forced_choiceRT_color,2021.2.3,Win32,59.95203837,,,,,,,,7,Slow,short,k,1,2.185,9,2,38,3,1,,,,,
,1.64,,,,,,,,,k,purple,5e68691662358c10f5adb901,2021-09-27_17h15.59.699,forced_choiceRT_color,2021.2.3,Win32,59.95203837,,,,,,,,7,Slow,short,k,1,2.138,9,3,39,3,1,,,,,
,,,,,,,,,,,,5e68691662358c10f5adb901,2021-09-27_17h15.59.699,forced_choiceRT_color,2021.2.3,Win32,59.95203837,,,,,,,,,,,,,,,,,,,6,0,6,0,1
,1.01,,,,,,,,,k,purple,5e68691662358c10f5adb901,2021-09-27_17h15.59.699,forced_choiceRT_color,2021.2.3,Win32,59.95203837,,,,,,,,8,Ontime,short,k,1,2.077,0,0,0,3,1,,,,,
,0.26,,,,,,,,,d,orange,5e68691662358c10f5adb901,2021-09-27_17h15.59.699,forced_choiceRT_color,2021.2.3,Win32,59.95203837,,,,,,,,8,Ontime,short,d,1,1.947,0,1,1,0,1,,,,,
,1.64,,,,,,,,,f,blue,5e68691662358c10f5adb901,2021-09-27_17h15.59.699,forced_choiceRT_color,2021.2.3,Win32,59.95203837,,,,,,,,8,Ontime,short,k,0,1.964,0,2,2,1,1,,,,,
,1.18,,,,,,,,,j,red,5e68691662358c10f5adb901,2021-09-27_17h15.59.699,forced_choiceRT_color,2021.2.3,Win32,59.95203837,,,,,,,,8,Ontime,short,j,1,2.01,0,3,3,2,1,,,,,
,1.85,,,,,,,,,f,blue,5e68691662358c10f5adb901,2021-09-27_17h15.59.699,forced_choiceRT_color,2021.2.3,Win32,59.95203837,,,,,,,,8,Slow,short,k,0,2.188,1,0,4,1,1,,,,,
,0.32,,,,,,,,,j,red,5e68691662358c10f5adb901,2021-09-27_17h15.59.699,forced_choiceRT_color,2021.2.3,Win32,59.95203837,,,,,,,,8,Ontime,short,j,1,1.96,1,1,5,2,1,,,,,
,0.05,,,,,,,,,j,red,5e68691662358c10f5adb901,2021-09-27_17h15.59.699,forced_choiceRT_color,2021.2.3,Win32,59.95203837,,,,,,,,8,Ontime,short,j,1,1.961,1,2,6,2,1,,,,,
,0.18,,,,,,,,,k,purple,5e68691662358c10f5adb901,2021-09-27_17h15.59.699,forced_choiceRT_color,2021.2.3,Win32,59.95203837,,,,,,,,8,Ontime,short,k,1,1.992,1,3,7,3,1,,,,,
,1.88,,,,,,,,,f,blue,5e68691662358c10f5adb901,2021-09-27_17h15.59.699,forced_choiceRT_color,2021.2.3,Win32,59.95203837,,,,,,,,8,Ontime,short,k,0,1.973,2,0,8,1,1,,,,,
,0.24,,,,,,,,,d,orange,5e68691662358c10f5adb901,2021-09-27_17h15.59.699,forced_choiceRT_color,2021.2.3,Win32,59.95203837,,,,,,,,8,Ontime,short,d,1,2.087,2,1,9,0,1,,,,,
,0.23,,,,,,,,,f,blue,5e68691662358c10f5adb901,2021-09-27_17h15.59.699,forced_choiceRT_color,2021.2.3,Win32,59.95203837,,,,,,,,8,Ontime,short,f,1,2.016,2,2,10,1,1,,,,,
,0.47,,,,,,,,,k,purple,5e68691662358c10f5adb901,2021-09-27_17h15.59.699,forced_choiceRT_color,2021.2.3,Win32,59.95203837,,,,,,,,8,Slow,short,k,1,2.125,2,3,11,3,1,,,,,
,0.22,,,,,,,,,d,orange,5e68691662358c10f5adb901,2021-09-27_17h15.59.699,forced_choiceRT_color,2021.2.3,Win32,59.95203837,,,,,,,,8,Ontime,short,d,1,2.002,3,0,12,0,1,,,,,
,0.26,,,,,,,,,f,blue,5e68691662358c10f5adb901,2021-09-27_17h15.59.699,forced_choiceRT_color,2021.2.3,Win32,59.95203837,,,,,,,,8,Ontime,short,f,1,2.013,3,1,13,1,1,,,,,
,0.75,,,,,,,,,d,orange,5e68691662358c10f5adb901,2021-09-27_17h15.59.699,forced_choiceRT_color,2021.2.3,Win32,59.95203837,,,,,,,,8,Ontime,short,d,1,2.061,3,2,14,0,1,,,,,
,0.28,,,,,,,,,j,red,5e68691662358c10f5adb901,2021-09-27_17h15.59.699,forced_choiceRT_color,2021.2.3,Win32,59.95203837,,,,,,,,8,Ontime,short,j,1,2.024,3,3,15,2,1,,,,,
,1.66,,,,,,,,,f,blue,5e68691662358c10f5adb901,2021-09-27_17h15.59.699,forced_choiceRT_color,2021.2.3,Win32,59.95203837,,,,,,,,8,Ontime,short,d,0,2.099,4,0,16,1,1,,,,,
,1.36,,,,,,,,,k,purple,5e68691662358c10f5adb901,2021-09-27_17h15.59.699,forced_choiceRT_color,2021.2.3,Win32,59.95203837,,,,,,,,8,Ontime,short,k,1,2.094,4,1,17,3,1,,,,,
,0.76,,,,,,,,,k,purple,5e68691662358c10f5adb901,2021-09-27_17h15.59.699,forced_choiceRT_color,2021.2.3,Win32,59.95203837,,,,,,,,8,Ontime,short,k,1,2.007,4,2,18,3,1,,,,,
,0.86,,,,,,,,,d,orange,5e68691662358c10f5adb901,2021-09-27_17h15.59.699,forced_choiceRT_color,2021.2.3,Win32,59.95203837,,,,,,,,8,Ontime,short,d,1,2.006,4,3,19,0,1,,,,,
,1.93,,,,,,,,,k,purple,5e68691662358c10f5adb901,2021-09-27_17h15.59.699,forced_choiceRT_color,2021.2.3,Win32,59.95203837,,,,,,,,8,Slow,short,f,0,2.339,5,0,20,3,1,,,,,
,0.1,,,,,,,,,d,orange,5e68691662358c10f5adb901,2021-09-27_17h15.59.699,forced_choiceRT_color,2021.2.3,Win32,59.95203837,,,,,,,,8,Ontime,short,d,1,1.998,5,1,21,0,1,,,,,
,1.64,,,,,,,,,j,red,5e68691662358c10f5adb901,2021-09-27_17h15.59.699,forced_choiceRT_color,2021.2.3,Win32,59.95203837,,,,,,,,8,Ontime,short,k,0,1.964,5,2,22,2,1,,,,,
,0.31,,,,,,,,,d,orange,5e68691662358c10f5adb901,2021-09-27_17h15.59.699,forced_choiceRT_color,2021.2.3,Win32,59.95203837,,,,,,,,8,Ontime,short,d,1,1.946,5,3,23,0,1,,,,,
,1.56,,,,,,,,,k,purple,5e68691662358c10f5adb901,2021-09-27_17h15.59.699,forced_choiceRT_color,2021.2.3,Win32,59.95203837,,,,,,,,8,Ontime,short,j,0,2.075,6,0,24,3,1,,,,,
,0.33,,,,,,,,,k,purple,5e68691662358c10f5adb901,2021-09-27_17h15.59.699,forced_choiceRT_color,2021.2.3,Win32,59.95203837,,,,,,,,8,Ontime,short,k,1,1.975,6,1,25,3,1,,,,,
,1.62,,,,,,,,,j,red,5e68691662358c10f5adb901,2021-09-27_17h15.59.699,forced_choiceRT_color,2021.2.3,Win32,59.95203837,,,,,,,,8,Slow,short,k,0,2.132,6,2,26,2,1,,,,,
,1.48,,,,,,,,,d,orange,5e68691662358c10f5adb901,2021-09-27_17h15.59.699,forced_choiceRT_color,2021.2.3,Win32,59.95203837,,,,,,,,8,Ontime,short,d,1,2.089,6,3,27,0,1,,,,,
,0.04,,,,,,,,,f,blue,5e68691662358c10f5adb901,2021-09-27_17h15.59.699,forced_choiceRT_color,2021.2.3,Win32,59.95203837,,,,,,,,8,Fast,short,f,1,1.873,7,0,28,1,1,,,,,
,0.17,,,,,,,,,d,orange,5e68691662358c10f5adb901,2021-09-27_17h15.59.699,forced_choiceRT_color,2021.2.3,Win32,59.95203837,,,,,,,,8,Ontime,short,d,1,1.985,7,1,29,0,1,,,,,
,1.58,,,,,,,,,j,red,5e68691662358c10f5adb901,2021-09-27_17h15.59.699,forced_choiceRT_color,2021.2.3,Win32,59.95203837,,,,,,,,8,Slow,short,f,0,2.43,7,2,30,2,1,,,,,
,0.7,,,,,,,,,k,purple,5e68691662358c10f5adb901,2021-09-27_17h15.59.699,forced_choiceRT_color,2021.2.3,Win32,59.95203837,,,,,,,,8,Slow,short,k,1,2.118,7,3,31,3,1,,,,,
,0.56,,,,,,,,,k,purple,5e68691662358c10f5adb901,2021-09-27_17h15.59.699,forced_choiceRT_color,2021.2.3,Win32,59.95203837,,,,,,,,8,Ontime,short,k,1,2.044,8,0,32,3,1,,,,,
,1.53,,,,,,,,,f,blue,5e68691662358c10f5adb901,2021-09-27_17h15.59.699,forced_choiceRT_color,2021.2.3,Win32,59.95203837,,,,,,,,8,Slow,short,f,1,2.23,8,1,33,1,1,,,,,
,0.67,,,,,,,,,f,blue,5e68691662358c10f5adb901,2021-09-27_17h15.59.699,forced_choiceRT_color,2021.2.3,Win32,59.95203837,,,,,,,,8,Ontime,short,f,1,1.942,8,2,34,1,1,,,,,
,1,,,,,,,,,j,red,5e68691662358c10f5adb901,2021-09-27_17h15.59.699,forced_choiceRT_color,2021.2.3,Win32,59.95203837,,,,,,,,8,Ontime,short,j,1,2.024,8,3,35,2,1,,,,,
,0.61,,,,,,,,,d,orange,5e68691662358c10f5adb901,2021-09-27_17h15.59.699,forced_choiceRT_color,2021.2.3,Win32,59.95203837,,,,,,,,8,Ontime,short,d,1,2.07,9,0,36,0,1,,,,,
,1.72,,,,,,,,,j,red,5e68691662358c10f5adb901,2021-09-27_17h15.59.699,forced_choiceRT_color,2021.2.3,Win32,59.95203837,,,,,,,,8,Ontime,short,k,0,2.061,9,1,37,2,1,,,,,
,0.66,,,,,,,,,f,blue,5e68691662358c10f5adb901,2021-09-27_17h15.59.699,forced_choiceRT_color,2021.2.3,Win32,59.95203837,,,,,,,,8,Ontime,short,f,1,2.024,9,2,38,1,1,,,,,
,1.88,,,,,,,,,j,red,5e68691662358c10f5adb901,2021-09-27_17h15.59.699,forced_choiceRT_color,2021.2.3,Win32,59.95203837,,,,,,,,8,Ontime,short,j,1,2.024,9,3,39,2,1,,,,,
,,,,,,,,,,,,5e68691662358c10f5adb901,2021-09-27_17h15.59.699,forced_choiceRT_color,2021.2.3,Win32,59.95203837,,,,,,,,,,,,,,,,,,,7,0,7,0,1
,1.75,,,,,,,,,j,red,5e68691662358c10f5adb901,2021-09-27_17h15.59.699,forced_choiceRT_color,2021.2.3,Win32,59.95203837,,,,,,,,9,Ontime,short,j,1,2.033,0,0,0,2,1,,,,,
,0.81,,,,,,,,,k,purple,5e68691662358c10f5adb901,2021-09-27_17h15.59.699,forced_choiceRT_color,2021.2.3,Win32,59.95203837,,,,,,,,9,Ontime,short,k,1,2.015,0,1,1,3,1,,,,,
,0.03,,,,,,,,,k,purple,5e68691662358c10f5adb901,2021-09-27_17h15.59.699,forced_choiceRT_color,2021.2.3,Win32,59.95203837,,,,,,,,9,Ontime,short,k,1,1.951,0,2,2,3,1,,,,,
,1.65,,,,,,,,,j,red,5e68691662358c10f5adb901,2021-09-27_17h15.59.699,forced_choiceRT_color,2021.2.3,Win32,59.95203837,,,,,,,,9,Ontime,short,d,0,2.014,0,3,3,2,1,,,,,
,0.06,,,,,,,,,k,purple,5e68691662358c10f5adb901,2021-09-27_17h15.59.699,forced_choiceRT_color,2021.2.3,Win32,59.95203837,,,,,,,,9,Ontime,short,k,1,2.074,1,0,4,3,1,,,,,
,1.11,,,,,,,,,d,orange,5e68691662358c10f5adb901,2021-09-27_17h15.59.699,forced_choiceRT_color,2021.2.3,Win32,59.95203837,,,,,,,,9,Slow,short,d,1,2.137,1,1,5,0,1,,,,,
,0.9,,,,,,,,,f,blue,5e68691662358c10f5adb901,2021-09-27_17h15.59.699,forced_choiceRT_color,2021.2.3,Win32,59.95203837,,,,,,,,9,Fast,short,f,1,1.896,1,2,6,1,1,,,,,
,1.95,,,,,,,,,j,red,5e68691662358c10f5adb901,2021-09-27_17h15.59.699,forced_choiceRT_color,2021.2.3,Win32,59.95203837,,,,,,,,9,Slow,short,j,1,2.358,1,3,7,2,1,,,,,
,0.76,,,,,,,,,d,orange,5e68691662358c10f5adb901,2021-09-27_17h15.59.699,forced_choiceRT_color,2021.2.3,Win32,59.95203837,,,,,,,,9,Slow,short,d,1,2.145,2,0,8,0,1,,,,,
,0.08,,,,,,,,,d,orange,5e68691662358c10f5adb901,2021-09-27_17h15.59.699,forced_choiceRT_color,2021.2.3,Win32,59.95203837,,,,,,,,9,Ontime,short,d,1,1.927,2,1,9,0,1,,,,,
,0.41,,,,,,,,,d,orange,5e68691662358c10f5adb901,2021-09-27_17h15.59.699,forced_choiceRT_color,2021.2.3,Win32,59.95203837,,,,,,,,9,Ontime,short,d,1,1.941,2,2,10,0,1,,,,,
,0.02,,,,,,,,,d,orange,5e68691662358c10f5adb901,2021-09-27_17h15.59.699,forced_choiceRT_color,2021.2.3,Win32,59.95203837,,,,,,,,9,Ontime,short,d,1,1.956,2,3,11,0,1,,,,,
,0.53,,,,,,,,,j,red,5e68691662358c10f5adb901,2021-09-27_17h15.59.699,forced_choiceRT_color,2021.2.3,Win32,59.95203837,,,,,,,,9,Ontime,short,j,1,2.038,3,0,12,2,1,,,,,
,1.81,,,,,,,,,f,blue,5e68691662358c10f5adb901,2021-09-27_17h15.59.699,forced_choiceRT_color,2021.2.3,Win32,59.95203837,,,,,,,,9,Slow,short,j,0,2.112,3,1,13,1,1,,,,,
,1.36,,,,,,,,,f,blue,5e68691662358c10f5adb901,2021-09-27_17h15.59.699,forced_choiceRT_color,2021.2.3,Win32,59.95203837,,,,,,,,9,Slow,short,f,1,2.105,3,2,14,1,1,,,,,
,0.58,,,,,,,,,d,orange,5e68691662358c10f5adb901,2021-09-27_17h15.59.699,forced_choiceRT_color,2021.2.3,Win32,59.95203837,,,,,,,,9,Ontime,short,d,1,1.932,3,3,15,0,1,,,,,
,1.81,,,,,,,,,k,purple,5e68691662358c10f5adb901,2021-09-27_17h15.59.699,forced_choiceRT_color,2021.2.3,Win32,59.95203837,,,,,,,,9,Ontime,short,j,0,2.028,4,0,16,3,1,,,,,
,0.02,,,,,,,,,j,red,5e68691662358c10f5adb901,2021-09-27_17h15.59.699,forced_choiceRT_color,2021.2.3,Win32,59.95203837,,,,,,,,9,Slow,short,j,1,2.102,4,1,17,2,1,,,,,
,1.35,,,,,,,,,f,blue,5e68691662358c10f5adb901,2021-09-27_17h15.59.699,forced_choiceRT_color,2021.2.3,Win32,59.95203837,,,,,,,,9,Ontime,short,f,1,2.077,4,2,18,1,1,,,,,
,0.76,,,,,,,,,k,purple,5e68691662358c10f5adb901,2021-09-27_17h15.59.699,forced_choiceRT_color,2021.2.3,Win32,59.95203837,,,,,,,,9,Ontime,short,k,1,2.007,4,3,19,3,1,,,,,
,0.18,,,,,,,,,d,orange,5e68691662358c10f5adb901,2021-09-27_17h15.59.699,forced_choiceRT_color,2021.2.3,Win32,59.95203837,,,,,,,,9,Ontime,short,d,1,1.957,5,0,20,0,1,,,,,
,1.59,,,,,,,,,j,red,5e68691662358c10f5adb901,2021-09-27_17h15.59.699,forced_choiceRT_color,2021.2.3,Win32,59.95203837,,,,,,,,9,Ontime,short,j,1,2.086,5,1,21,2,1,,,,,
,0.8,,,,,,,,,k,purple,5e68691662358c10f5adb901,2021-09-27_17h15.59.699,forced_choiceRT_color,2021.2.3,Win32,59.95203837,,,,,,,,9,Ontime,short,k,1,1.953,5,2,22,3,1,,,,,
,0.17,,,,,,,,,f,blue,5e68691662358c10f5adb901,2021-09-27_17h15.59.699,forced_choiceRT_color,2021.2.3,Win32,59.95203837,,,,,,,,9,Ontime,short,f,1,1.999,5,3,23,1,1,,,,,
,1.74,,,,,,,,,d,orange,5e68691662358c10f5adb901,2021-09-27_17h15.59.699,forced_choiceRT_color,2021.2.3,Win32,59.95203837,,,,,,,,9,Slow,short,d,1,2.382,6,0,24,0,1,,,,,
,0.22,,,,,,,,,j,red,5e68691662358c10f5adb901,2021-09-27_17h15.59.699,forced_choiceRT_color,2021.2.3,Win32,59.95203837,,,,,,,,9,Slow,short,f,0,2.137,6,1,25,2,1,,,,,
,1.85,,,,,,,,,k,purple,5e68691662358c10f5adb901,2021-09-27_17h15.59.699,forced_choiceRT_color,2021.2.3,Win32,59.95203837,,,,,,,,9,Slow,short,k,1,3.757,6,2,26,3,1,,,,,
,1.38,,,,,,,,,j,red,5e68691662358c10f5adb901,2021-09-27_17h15.59.699,forced_choiceRT_color,2021.2.3,Win32,59.95203837,,,,,,,,9,Slow,short,j,1,2.172,6,3,27,2,1,,,,,
,1.49,,,,,,,,,k,purple,5e68691662358c10f5adb901,2021-09-27_17h15.59.699,forced_choiceRT_color,2021.2.3,Win32,59.95203837,,,,,,,,9,Ontime,short,j,0,1.963,7,0,28,3,1,,,,,
,0.04,,,,,,,,,j,red,5e68691662358c10f5adb901,2021-09-27_17h15.59.699,forced_choiceRT_color,2021.2.3,Win32,59.95203837,,,,,,,,9,Ontime,short,j,1,1.903,7,1,29,2,1,,,,,
,1.99,,,,,,,,,k,purple,5e68691662358c10f5adb901,2021-09-27_17h15.59.699,forced_choiceRT_color,2021.2.3,Win32,59.95203837,,,,,,,,9,Slow,short,k,1,2.124,7,2,30,3,1,,,,,
,1.72,,,,,,,,,f,blue,5e68691662358c10f5adb901,2021-09-27_17h15.59.699,forced_choiceRT_color,2021.2.3,Win32,59.95203837,,,,,,,,9,Slow,short,f,1,2.498,7,3,31,1,1,,,,,
,1.09,,,,,,,,,d,orange,5e68691662358c10f5adb901,2021-09-27_17h15.59.699,forced_choiceRT_color,2021.2.3,Win32,59.95203837,,,,,,,,9,Ontime,short,d,1,2.008,8,0,32,0,1,,,,,
,1.48,,,,,,,,,f,blue,5e68691662358c10f5adb901,2021-09-27_17h15.59.699,forced_choiceRT_color,2021.2.3,Win32,59.95203837,,,,,,,,9,Ontime,short,j,0,2.069,8,1,33,1,1,,,,,
,1.6,,,,,,,,,k,purple,5e68691662358c10f5adb901,2021-09-27_17h15.59.699,forced_choiceRT_color,2021.2.3,Win32,59.95203837,,,,,,,,9,Slow,short,j,0,2.19,8,2,34,3,1,,,,,
,0.23,,,,,,,,,f,blue,5e68691662358c10f5adb901,2021-09-27_17h15.59.699,forced_choiceRT_color,2021.2.3,Win32,59.95203837,,,,,,,,9,Ontime,short,f,1,1.971,8,3,35,1,1,,,,,
,0.69,,,,,,,,,d,orange,5e68691662358c10f5adb901,2021-09-27_17h15.59.699,forced_choiceRT_color,2021.2.3,Win32,59.95203837,,,,,,,,9,Ontime,short,d,1,1.987,9,0,36,0,1,,,,,
,0.27,,,,,,,,,f,blue,5e68691662358c10f5adb901,2021-09-27_17h15.59.699,forced_choiceRT_color,2021.2.3,Win32,59.95203837,,,,,,,,9,Ontime,short,f,1,2.014,9,1,37,1,1,,,,,
,1.76,,,,,,,,,j,red,5e68691662358c10f5adb901,2021-09-27_17h15.59.699,forced_choiceRT_color,2021.2.3,Win32,59.95203837,,,,,,,,9,Ontime,short,j,1,2.059,9,2,38,2,1,,,,,
,0.81,,,,,,,,,f,blue,5e68691662358c10f5adb901,2021-09-27_17h15.59.699,forced_choiceRT_color,2021.2.3,Win32,59.95203837,,,,,,,,9,Ontime,short,f,1,2.071,9,3,39,1,1,,,,,
,,,,,,,,,,,,5e68691662358c10f5adb901,2021-09-27_17h15.59.699,forced_choiceRT_color,2021.2.3,Win32,59.95203837,,,,,,,,,,,,,,,,,,,8,0,8,0,1
,0.06,,,,,,,,,j,red,5e68691662358c10f5adb901,2021-09-27_17h15.59.699,forced_choiceRT_color,2021.2.3,Win32,59.95203837,,,,,,,,10,Slow,short,j,1,2.138,0,0,0,2,1,,,,,
,0.51,,,,,,,,,k,purple,5e68691662358c10f5adb901,2021-09-27_17h15.59.699,forced_choiceRT_color,2021.2.3,Win32,59.95203837,,,,,,,,10,Fast,short,k,1,1.89,0,1,1,3,1,,,,,
,1.71,,,,,,,,,j,red,5e68691662358c10f5adb901,2021-09-27_17h15.59.699,forced_choiceRT_color,2021.2.3,Win32,59.95203837,,,,,,,,10,Slow,short,j,1,2.272,0,2,2,2,1,,,,,
,0.11,,,,,,,,,k,purple,5e68691662358c10f5adb901,2021-09-27_17h15.59.699,forced_choiceRT_color,2021.2.3,Win32,59.95203837,,,,,,,,10,Fast,short,k,1,1.791,0,3,3,3,1,,,,,
,0.94,,,,,,,,,d,orange,5e68691662358c10f5adb901,2021-09-27_17h15.59.699,forced_choiceRT_color,2021.2.3,Win32,59.95203837,,,,,,,,10,Ontime,short,d,1,2.032,1,0,4,0,1,,,,,
,0.51,,,,,,,,,k,purple,5e68691662358c10f5adb901,2021-09-27_17h15.59.699,forced_choiceRT_color,2021.2.3,Win32,59.95203837,,,,,,,,10,Ontime,short,k,1,1.981,1,1,5,3,1,,,,,
,0.95,,,,,,,,,d,orange,5e68691662358c10f5adb901,2021-09-27_17h15.59.699,forced_choiceRT_color,2021.2.3,Win32,59.95203837,,,,,,,,10,Ontime,short,d,1,1.948,1,2,6,0,1,,,,,
,0.22,,,,,,,,,d,orange,5e68691662358c10f5adb901,2021-09-27_17h15.59.699,forced_choiceRT_color,2021.2.3,Win32,59.95203837,,,,,,,,10,Ontime,short,d,1,1.948,1,3,7,0,1,,,,,
,1.13,,,,,,,,,f,blue,5e68691662358c10f5adb901,2021-09-27_17h15.59.699,forced_choiceRT_color,2021.2.3,Win32,59.95203837,,,,,,,,10,Slow,short,f,1,2.108,2,0,8,1,1,,,,,
,1.99,,,,,,,,,d,orange,5e68691662358c10f5adb901,2021-09-27_17h15.59.699,forced_choiceRT_color,2021.2.3,Win32,59.95203837,,,,,,,,10,Ontime,short,j,0,2.034,2,1,9,0,1,,,,,
,1.36,,,,,,,,,f,blue,5e68691662358c10f5adb901,2021-09-27_17h15.59.699,forced_choiceRT_color,2021.2.3,Win32,59.95203837,,,,,,,,10,Slow,short,j,0,2.252,2,2,10,1,1,,,,,
,1.15,,,,,,,,,f,blue,5e68691662358c10f5adb901,2021-09-27_17h15.59.699,forced_choiceRT_color,2021.2.3,Win32,59.95203837,,,,,,,,10,Ontime,short,f,1,2.028,2,3,11,1,1,,,,,
,0.25,,,,,,,,,f,blue,5e68691662358c10f5adb901,2021-09-27_17h15.59.699,forced_choiceRT_color,2021.2.3,Win32,59.95203837,,,,,,,,10,Ontime,short,f,1,1.911,3,0,12,1,1,,,,,
,0.03,,,,,,,,,j,red,5e68691662358c10f5adb901,2021-09-27_17h15.59.699,forced_choiceRT_color,2021.2.3,Win32,59.95203837,,,,,,,,10,Ontime,short,j,1,1.978,3,1,13,2,1,,,,,
,1.76,,,,,,,,,j,red,5e68691662358c10f5adb901,2021-09-27_17h15.59.699,forced_choiceRT_color,2021.2.3,Win32,59.95203837,,,,,,,,10,Slow,short,d,0,2.153,3,2,14,2,1,,,,,
,1.57,,,,,,,,,k,purple,5e68691662358c10f5adb901,2021-09-27_17h15.59.699,forced_choiceRT_color,2021.2.3,Win32,59.95203837,,,,,,,,10,Ontime,short,j,0,2.092,3,3,15,3,1,,,,,
,1.22,,,,,,,,,j,red,5e68691662358c10f5adb901,2021-09-27_17h15.59.699,forced_choiceRT_color,2021.2.3,Win32,59.95203837,,,,,,,,10,Slow,short,f,0,2.244,4,0,16,2,1,,,,,
,1.47,,,,,,,,,d,orange,5e68691662358c10f5adb901,2021-09-27_17h15.59.699,forced_choiceRT_color,2021.2.3,Win32,59.95203837,,,,,,,,10,Fast,short,k,0,1.86,4,1,17,0,1,,,,,
,0.12,,,,,,,,,j,red,5e68691662358c10f5adb901,2021-09-27_17h15.59.699,forced_choiceRT_color,2021.2.3,Win32,59.95203837,,,,,,,,10,Ontime,short,j,1,1.924,4,2,18,2,1,,,,,
,1.44,,,,,,,,,f,blue,5e68691662358c10f5adb901,2021-09-27_17h15.59.699,forced_choiceRT_color,2021.2.3,Win32,59.95203837,,,,,,,,10,Ontime,short,f,1,2.088,4,3,19,1,1,,,,,
,1.08,,,,,,,,,k,purple,5e68691662358c10f5adb901,2021-09-27_17h15.59.699,forced_choiceRT_color,2021.2.3,Win32,59.95203837,,,,,,,,10,Ontime,short,k,1,2.094,5,0,20,3,1,,,,,
,1.01,,,,,,,,,f,blue,5e68691662358c10f5adb901,2021-09-27_17h15.59.699,forced_choiceRT_color,2021.2.3,Win32,59.95203837,,,,,,,,10,Ontime,short,f,1,2.058,5,1,21,1,1,,,,,
,0.25,,,,,,,,,f,blue,5e68691662358c10f5adb901,2021-09-27_17h15.59.699,forced_choiceRT_color,2021.2.3,Win32,59.95203837,,,,,,,,10,Fast,short,f,1,1.876,5,2,22,1,1,,,,,
,0.67,,,,,,,,,j,red,5e68691662358c10f5adb901,2021-09-27_17h15.59.699,forced_choiceRT_color,2021.2.3,Win32,59.95203837,,,,,,,,10,Ontime,short,j,1,1.924,5,3,23,2,1,,,,,
,0.52,,,,,,,,,f,blue,5e68691662358c10f5adb901,2021-09-27_17h15.59.699,forced_choiceRT_color,2021.2.3,Win32,59.95203837,,,,,,,,10,Ontime,short,f,1,2.053,6,0,24,1,1,,,,,
,0.49,,,,,,,,,j,red,5e68691662358c10f5adb901,2021-09-27_17h15.59.699,forced_choiceRT_color,2021.2.3,Win32,59.95203837,,,,,,,,10,Ontime,short,j,1,1.952,6,1,25,2,1,,,,,
,1.89,,,,,,,,,j,red,5e68691662358c10f5adb901,2021-09-27_17h15.59.699,forced_choiceRT_color,2021.2.3,Win32,59.95203837,,,,,,,,10,Ontime,short,f,0,2.029,6,2,26,2,1,,,,,
,1.45,,,,,,,,,k,purple,5e68691662358c10f5adb901,2021-09-27_17h15.59.699,forced_choiceRT_color,2021.2.3,Win32,59.95203837,,,,,,,,10,Ontime,short,j,0,1.947,6,3,27,3,1,,,,,
,0.08,,,,,,,,,d,orange,5e68691662358c10f5adb901,2021-09-27_17h15.59.699,forced_choiceRT_color,2021.2.3,Win32,59.95203837,,,,,,,,10,Ontime,short,d,1,1.978,7,0,28,0,1,,,,,
,0.39,,,,,,,,,d,orange,5e68691662358c10f5adb901,2021-09-27_17h15.59.699,forced_choiceRT_color,2021.2.3,Win32,59.95203837,,,,,,,,10,Fast,short,d,1,1.866,7,1,29,0,1,,,,,
,0.6,,,,,,,,,f,blue,5e68691662358c10f5adb901,2021-09-27_17h15.59.699,forced_choiceRT_color,2021.2.3,Win32,59.95203837,,,,,,,,10,Fast,short,j,0,1.819,7,2,30,1,1,,,,,
,0.34,,,,,,,,,f,blue,5e68691662358c10f5adb901,2021-09-27_17h15.59.699,forced_choiceRT_color,2021.2.3,Win32,59.95203837,,,,,,,,10,Ontime,short,f,1,1.945,7,3,31,1,1,,,,,
,0.66,,,,,,,,,d,orange,5e68691662358c10f5adb901,2021-09-27_17h15.59.699,forced_choiceRT_color,2021.2.3,Win32,59.95203837,,,,,,,,10,Ontime,short,d,1,2.025,8,0,32,0,1,,,,,
,0.49,,,,,,,,,d,orange,5e68691662358c10f5adb901,2021-09-27_17h15.59.699,forced_choiceRT_color,2021.2.3,Win32,59.95203837,,,,,,,,10,Ontime,short,d,1,1.943,8,1,33,0,1,,,,,
,1.58,,,,,,,,,k,purple,5e68691662358c10f5adb901,2021-09-27_17h15.59.699,forced_choiceRT_color,2021.2.3,Win32,59.95203837,,,,,,,,10,Ontime,short,d,0,1.957,8,2,34,3,1,,,,,
,0.95,,,,,,,,,k,purple,5e68691662358c10f5adb901,2021-09-27_17h15.59.699,forced_choiceRT_color,2021.2.3,Win32,59.95203837,,,,,,,,10,Ontime,short,k,1,2.038,8,3,35,3,1,,,,,
,1.61,,,,,,,,,k,purple,5e68691662358c10f5adb901,2021-09-27_17h15.59.699,forced_choiceRT_color,2021.2.3,Win32,59.95203837,,,,,,,,10,Ontime,short,k,1,2.002,9,0,36,3,1,,,,,
,1.7,,,,,,,,,d,orange,5e68691662358c10f5adb901,2021-09-27_17h15.59.699,forced_choiceRT_color,2021.2.3,Win32,59.95203837,,,,,,,,10,Slow,short,k,0,2.175,9,1,37,0,1,,,,,
,0.66,,,,,,,,,j,red,5e68691662358c10f5adb901,2021-09-27_17h15.59.699,forced_choiceRT_color,2021.2.3,Win32,59.95203837,,,,,,,,10,Ontime,short,j,1,1.987,9,2,38,2,1,,,,,
,0.31,,,,,,,,,k,purple,5e68691662358c10f5adb901,2021-09-27_17h15.59.699,forced_choiceRT_color,2021.2.3,Win32,59.95203837,,,,,,,,10,Ontime,short,k,1,1.97,9,3,39,3,1,,,,,
,,,,,,,,,,,,5e68691662358c10f5adb901,2021-09-27_17h15.59.699,forced_choiceRT_color,2021.2.3,Win32,59.95203837,,,,,,,,,,,,,,,,,,,9,0,9,0,1
