IP_Addresss,target_onset,trial_resp_sp.keys,trial_resp_sp.corr,trial_resp_sp.rt,trials_train_loop.thisRepN,trials_train_loop.thisTrialN,trials_train_loop.thisN,trials_train_loop.thisIndex,trials_train_loop.ran,correct_key,color,participant,date,expName,psychopyVersion,OS,frameRate,trial_resp_timing.keys,trial_resp_timing.rt,trials_train_timing.thisRepN,trials_train_timing.thisTrialN,trials_train_timing.thisN,trials_train_timing.thisIndex,trials_train_timing.ran,block_id,ontime,feedback_cond,forcedRT_resp.keys,forcedRT_resp.corr,forcedRT_resp.rt,trials.thisRepN,trials.thisTrialN,trials.thisN,trials.thisIndex,trials.ran,blocks.thisRepN,blocks.thisTrialN,blocks.thisN,blocks.thisIndex,blocks.ran
172.58.204.64,0,j,1,4.1351,0,0,0,2,1,j,red,5e6ca4b9a2b73d25c187ae61,2021-09-27_17h58.20.365,forced_choiceRT_color,2021.2.3,Win32,59.52026665,,,,,,,,,,,,,,,,,,,,,,,
,0,f,1,1.0132,0,1,1,1,1,f,blue,5e6ca4b9a2b73d25c187ae61,2021-09-27_17h58.20.365,forced_choiceRT_color,2021.2.3,Win32,59.52026665,,,,,,,,,,,,,,,,,,,,,,,
,0,d,1,0.869,0,2,2,0,1,d,orange,5e6ca4b9a2b73d25c187ae61,2021-09-27_17h58.20.365,forced_choiceRT_color,2021.2.3,Win32,59.52026665,,,,,,,,,,,,,,,,,,,,,,,
,0,f,1,0.9341,0,3,3,1,1,f,blue,5e6ca4b9a2b73d25c187ae61,2021-09-27_17h58.20.365,forced_choiceRT_color,2021.2.3,Win32,59.52026665,,,,,,,,,,,,,,,,,,,,,,,
,0,f,1,0.6837,1,0,4,1,1,f,blue,5e6ca4b9a2b73d25c187ae61,2021-09-27_17h58.20.365,forced_choiceRT_color,2021.2.3,Win32,59.52026665,,,,,,,,,,,,,,,,,,,,,,,
,0,d,1,0.6663,1,1,5,0,1,d,orange,5e6ca4b9a2b73d25c187ae61,2021-09-27_17h58.20.365,forced_choiceRT_color,2021.2.3,Win32,59.52026665,,,,,,,,,,,,,,,,,,,,,,,
,0,k,1,0.7161,1,2,6,3,1,k,purple,5e6ca4b9a2b73d25c187ae61,2021-09-27_17h58.20.365,forced_choiceRT_color,2021.2.3,Win32,59.52026665,,,,,,,,,,,,,,,,,,,,,,,
,0,d,1,0.7273,1,3,7,0,1,d,orange,5e6ca4b9a2b73d25c187ae61,2021-09-27_17h58.20.365,forced_choiceRT_color,2021.2.3,Win32,59.52026665,,,,,,,,,,,,,,,,,,,,,,,
,0,f,1,0.7503,2,0,8,1,1,f,blue,5e6ca4b9a2b73d25c187ae61,2021-09-27_17h58.20.365,forced_choiceRT_color,2021.2.3,Win32,59.52026665,,,,,,,,,,,,,,,,,,,,,,,
,0,j,1,0.9082,2,1,9,2,1,j,red,5e6ca4b9a2b73d25c187ae61,2021-09-27_17h58.20.365,forced_choiceRT_color,2021.2.3,Win32,59.52026665,,,,,,,,,,,,,,,,,,,,,,,
,0,f,1,0.7702,2,2,10,1,1,f,blue,5e6ca4b9a2b73d25c187ae61,2021-09-27_17h58.20.365,forced_choiceRT_color,2021.2.3,Win32,59.52026665,,,,,,,,,,,,,,,,,,,,,,,
,0,k,1,0.6669,2,3,11,3,1,k,purple,5e6ca4b9a2b73d25c187ae61,2021-09-27_17h58.20.365,forced_choiceRT_color,2021.2.3,Win32,59.52026665,,,,,,,,,,,,,,,,,,,,,,,
,0,j,1,0.9606,3,0,12,2,1,j,red,5e6ca4b9a2b73d25c187ae61,2021-09-27_17h58.20.365,forced_choiceRT_color,2021.2.3,Win32,59.52026665,,,,,,,,,,,,,,,,,,,,,,,
,0,k,1,0.7273,3,1,13,3,1,k,purple,5e6ca4b9a2b73d25c187ae61,2021-09-27_17h58.20.365,forced_choiceRT_color,2021.2.3,Win32,59.52026665,,,,,,,,,,,,,,,,,,,,,,,
,0,d,1,0.6722,3,2,14,0,1,d,orange,5e6ca4b9a2b73d25c187ae61,2021-09-27_17h58.20.365,forced_choiceRT_color,2021.2.3,Win32,59.52026665,,,,,,,,,,,,,,,,,,,,,,,
,0,d,1,0.6506,3,3,15,0,1,d,orange,5e6ca4b9a2b73d25c187ae61,2021-09-27_17h58.20.365,forced_choiceRT_color,2021.2.3,Win32,59.52026665,,,,,,,,,,,,,,,,,,,,,,,
,0,j,1,1.4041,4,0,16,2,1,j,red,5e6ca4b9a2b73d25c187ae61,2021-09-27_17h58.20.365,forced_choiceRT_color,2021.2.3,Win32,59.52026665,,,,,,,,,,,,,,,,,,,,,,,
,0,k,1,0.6671,4,1,17,3,1,k,purple,5e6ca4b9a2b73d25c187ae61,2021-09-27_17h58.20.365,forced_choiceRT_color,2021.2.3,Win32,59.52026665,,,,,,,,,,,,,,,,,,,,,,,
,0,d,1,0.6667,4,2,18,0,1,d,orange,5e6ca4b9a2b73d25c187ae61,2021-09-27_17h58.20.365,forced_choiceRT_color,2021.2.3,Win32,59.52026665,,,,,,,,,,,,,,,,,,,,,,,
,0,k,1,0.7334,4,3,19,3,1,k,purple,5e6ca4b9a2b73d25c187ae61,2021-09-27_17h58.20.365,forced_choiceRT_color,2021.2.3,Win32,59.52026665,,,,,,,,,,,,,,,,,,,,,,,
,0,j,1,0.5026,5,0,20,2,1,j,red,5e6ca4b9a2b73d25c187ae61,2021-09-27_17h58.20.365,forced_choiceRT_color,2021.2.3,Win32,59.52026665,,,,,,,,,,,,,,,,,,,,,,,
,0,k,1,0.7351,5,1,21,3,1,k,purple,5e6ca4b9a2b73d25c187ae61,2021-09-27_17h58.20.365,forced_choiceRT_color,2021.2.3,Win32,59.52026665,,,,,,,,,,,,,,,,,,,,,,,
,0,j,1,0.6599,5,2,22,2,1,j,red,5e6ca4b9a2b73d25c187ae61,2021-09-27_17h58.20.365,forced_choiceRT_color,2021.2.3,Win32,59.52026665,,,,,,,,,,,,,,,,,,,,,,,
,0,k,1,0.5762,5,3,23,3,1,k,purple,5e6ca4b9a2b73d25c187ae61,2021-09-27_17h58.20.365,forced_choiceRT_color,2021.2.3,Win32,59.52026665,,,,,,,,,,,,,,,,,,,,,,,
,0,j,1,0.5354,6,0,24,2,1,j,red,5e6ca4b9a2b73d25c187ae61,2021-09-27_17h58.20.365,forced_choiceRT_color,2021.2.3,Win32,59.52026665,,,,,,,,,,,,,,,,,,,,,,,
,0,j,1,0.5702,6,1,25,2,1,j,red,5e6ca4b9a2b73d25c187ae61,2021-09-27_17h58.20.365,forced_choiceRT_color,2021.2.3,Win32,59.52026665,,,,,,,,,,,,,,,,,,,,,,,
,0,k,1,0.5337,6,2,26,3,1,k,purple,5e6ca4b9a2b73d25c187ae61,2021-09-27_17h58.20.365,forced_choiceRT_color,2021.2.3,Win32,59.52026665,,,,,,,,,,,,,,,,,,,,,,,
,0,d,1,0.6337,6,3,27,0,1,d,orange,5e6ca4b9a2b73d25c187ae61,2021-09-27_17h58.20.365,forced_choiceRT_color,2021.2.3,Win32,59.52026665,,,,,,,,,,,,,,,,,,,,,,,
,0,f,1,0.6004,7,0,28,1,1,f,blue,5e6ca4b9a2b73d25c187ae61,2021-09-27_17h58.20.365,forced_choiceRT_color,2021.2.3,Win32,59.52026665,,,,,,,,,,,,,,,,,,,,,,,
,0,d,1,0.5411,7,1,29,0,1,d,orange,5e6ca4b9a2b73d25c187ae61,2021-09-27_17h58.20.365,forced_choiceRT_color,2021.2.3,Win32,59.52026665,,,,,,,,,,,,,,,,,,,,,,,
,0,k,1,0.6674,7,2,30,3,1,k,purple,5e6ca4b9a2b73d25c187ae61,2021-09-27_17h58.20.365,forced_choiceRT_color,2021.2.3,Win32,59.52026665,,,,,,,,,,,,,,,,,,,,,,,
,0,d,1,0.6167,7,3,31,0,1,d,orange,5e6ca4b9a2b73d25c187ae61,2021-09-27_17h58.20.365,forced_choiceRT_color,2021.2.3,Win32,59.52026665,,,,,,,,,,,,,,,,,,,,,,,
,0,d,1,0.6271,8,0,32,0,1,d,orange,5e6ca4b9a2b73d25c187ae61,2021-09-27_17h58.20.365,forced_choiceRT_color,2021.2.3,Win32,59.52026665,,,,,,,,,,,,,,,,,,,,,,,
,0,d,1,0.5172,8,1,33,0,1,d,orange,5e6ca4b9a2b73d25c187ae61,2021-09-27_17h58.20.365,forced_choiceRT_color,2021.2.3,Win32,59.52026665,,,,,,,,,,,,,,,,,,,,,,,
,0,j,1,0.6893,8,2,34,2,1,j,red,5e6ca4b9a2b73d25c187ae61,2021-09-27_17h58.20.365,forced_choiceRT_color,2021.2.3,Win32,59.52026665,,,,,,,,,,,,,,,,,,,,,,,
,0,f,1,0.6669,8,3,35,1,1,f,blue,5e6ca4b9a2b73d25c187ae61,2021-09-27_17h58.20.365,forced_choiceRT_color,2021.2.3,Win32,59.52026665,,,,,,,,,,,,,,,,,,,,,,,
,0,k,1,0.5595,9,0,36,3,1,k,purple,5e6ca4b9a2b73d25c187ae61,2021-09-27_17h58.20.365,forced_choiceRT_color,2021.2.3,Win32,59.52026665,,,,,,,,,,,,,,,,,,,,,,,
,0,f,1,0.7505,9,1,37,1,1,f,blue,5e6ca4b9a2b73d25c187ae61,2021-09-27_17h58.20.365,forced_choiceRT_color,2021.2.3,Win32,59.52026665,,,,,,,,,,,,,,,,,,,,,,,
,0,j,1,0.8838,9,2,38,2,1,j,red,5e6ca4b9a2b73d25c187ae61,2021-09-27_17h58.20.365,forced_choiceRT_color,2021.2.3,Win32,59.52026665,,,,,,,,,,,,,,,,,,,,,,,
,0,d,1,0.6657,9,3,39,0,1,d,orange,5e6ca4b9a2b73d25c187ae61,2021-09-27_17h58.20.365,forced_choiceRT_color,2021.2.3,Win32,59.52026665,,,,,,,,,,,,,,,,,,,,,,,
,0,d,1,0.9287,10,0,40,0,1,d,orange,5e6ca4b9a2b73d25c187ae61,2021-09-27_17h58.20.365,forced_choiceRT_color,2021.2.3,Win32,59.52026665,,,,,,,,,,,,,,,,,,,,,,,
,0,j,1,0.6159,10,1,41,2,1,j,red,5e6ca4b9a2b73d25c187ae61,2021-09-27_17h58.20.365,forced_choiceRT_color,2021.2.3,Win32,59.52026665,,,,,,,,,,,,,,,,,,,,,,,
,0,f,1,0.5016,10,2,42,1,1,f,blue,5e6ca4b9a2b73d25c187ae61,2021-09-27_17h58.20.365,forced_choiceRT_color,2021.2.3,Win32,59.52026665,,,,,,,,,,,,,,,,,,,,,,,
,0,k,1,0.5514,10,3,43,3,1,k,purple,5e6ca4b9a2b73d25c187ae61,2021-09-27_17h58.20.365,forced_choiceRT_color,2021.2.3,Win32,59.52026665,,,,,,,,,,,,,,,,,,,,,,,
,0,j,1,0.8173,11,0,44,2,1,j,red,5e6ca4b9a2b73d25c187ae61,2021-09-27_17h58.20.365,forced_choiceRT_color,2021.2.3,Win32,59.52026665,,,,,,,,,,,,,,,,,,,,,,,
,0,d,1,0.6177,11,1,45,0,1,d,orange,5e6ca4b9a2b73d25c187ae61,2021-09-27_17h58.20.365,forced_choiceRT_color,2021.2.3,Win32,59.52026665,,,,,,,,,,,,,,,,,,,,,,,
,0,k,1,0.6668,11,2,46,3,1,k,purple,5e6ca4b9a2b73d25c187ae61,2021-09-27_17h58.20.365,forced_choiceRT_color,2021.2.3,Win32,59.52026665,,,,,,,,,,,,,,,,,,,,,,,
,0,f,1,0.6839,11,3,47,1,1,f,blue,5e6ca4b9a2b73d25c187ae61,2021-09-27_17h58.20.365,forced_choiceRT_color,2021.2.3,Win32,59.52026665,,,,,,,,,,,,,,,,,,,,,,,
,0,f,1,0.6124,12,0,48,1,1,f,blue,5e6ca4b9a2b73d25c187ae61,2021-09-27_17h58.20.365,forced_choiceRT_color,2021.2.3,Win32,59.52026665,,,,,,,,,,,,,,,,,,,,,,,
,0,k,1,0.621,12,1,49,3,1,k,purple,5e6ca4b9a2b73d25c187ae61,2021-09-27_17h58.20.365,forced_choiceRT_color,2021.2.3,Win32,59.52026665,,,,,,,,,,,,,,,,,,,,,,,
,0,f,1,1.32,12,2,50,1,1,f,blue,5e6ca4b9a2b73d25c187ae61,2021-09-27_17h58.20.365,forced_choiceRT_color,2021.2.3,Win32,59.52026665,,,,,,,,,,,,,,,,,,,,,,,
,0,j,1,0.7171,12,3,51,2,1,j,red,5e6ca4b9a2b73d25c187ae61,2021-09-27_17h58.20.365,forced_choiceRT_color,2021.2.3,Win32,59.52026665,,,,,,,,,,,,,,,,,,,,,,,
,0,d,1,0.5502,13,0,52,0,1,d,orange,5e6ca4b9a2b73d25c187ae61,2021-09-27_17h58.20.365,forced_choiceRT_color,2021.2.3,Win32,59.52026665,,,,,,,,,,,,,,,,,,,,,,,
,0,d,0,0.7346,13,1,53,1,1,f,blue,5e6ca4b9a2b73d25c187ae61,2021-09-27_17h58.20.365,forced_choiceRT_color,2021.2.3,Win32,59.52026665,,,,,,,,,,,,,,,,,,,,,,,
,0,k,1,0.6733,13,2,54,3,1,k,purple,5e6ca4b9a2b73d25c187ae61,2021-09-27_17h58.20.365,forced_choiceRT_color,2021.2.3,Win32,59.52026665,,,,,,,,,,,,,,,,,,,,,,,
,0,j,1,0.7068,13,3,55,2,1,j,red,5e6ca4b9a2b73d25c187ae61,2021-09-27_17h58.20.365,forced_choiceRT_color,2021.2.3,Win32,59.52026665,,,,,,,,,,,,,,,,,,,,,,,
,0,j,1,0.5889,14,0,56,2,1,j,red,5e6ca4b9a2b73d25c187ae61,2021-09-27_17h58.20.365,forced_choiceRT_color,2021.2.3,Win32,59.52026665,,,,,,,,,,,,,,,,,,,,,,,
,0,k,1,0.5043,14,1,57,3,1,k,purple,5e6ca4b9a2b73d25c187ae61,2021-09-27_17h58.20.365,forced_choiceRT_color,2021.2.3,Win32,59.52026665,,,,,,,,,,,,,,,,,,,,,,,
,0,f,1,0.8236,14,2,58,1,1,f,blue,5e6ca4b9a2b73d25c187ae61,2021-09-27_17h58.20.365,forced_choiceRT_color,2021.2.3,Win32,59.52026665,,,,,,,,,,,,,,,,,,,,,,,
,0,f,1,0.6204,14,3,59,1,1,f,blue,5e6ca4b9a2b73d25c187ae61,2021-09-27_17h58.20.365,forced_choiceRT_color,2021.2.3,Win32,59.52026665,,,,,,,,,,,,,,,,,,,,,,,
,,,,,,,,,,,,5e6ca4b9a2b73d25c187ae61,2021-09-27_17h58.20.365,forced_choiceRT_color,2021.2.3,Win32,59.52026665,f,2.2345,0,0,0,0,1,,,,,,,,,,,,,,,,
,,,,,,,,,,,,5e6ca4b9a2b73d25c187ae61,2021-09-27_17h58.20.365,forced_choiceRT_color,2021.2.3,Win32,59.52026665,f,1.7064,1,0,1,0,1,,,,,,,,,,,,,,,,
,,,,,,,,,,,,5e6ca4b9a2b73d25c187ae61,2021-09-27_17h58.20.365,forced_choiceRT_color,2021.2.3,Win32,59.52026665,f,2.1825,2,0,2,0,1,,,,,,,,,,,,,,,,
,,,,,,,,,,,,5e6ca4b9a2b73d25c187ae61,2021-09-27_17h58.20.365,forced_choiceRT_color,2021.2.3,Win32,59.52026665,j,1.7828,3,0,3,0,1,,,,,,,,,,,,,,,,
,,,,,,,,,,,,5e6ca4b9a2b73d25c187ae61,2021-09-27_17h58.20.365,forced_choiceRT_color,2021.2.3,Win32,59.52026665,j,2.0101,4,0,4,0,1,,,,,,,,,,,,,,,,
,,,,,,,,,,,,5e6ca4b9a2b73d25c187ae61,2021-09-27_17h58.20.365,forced_choiceRT_color,2021.2.3,Win32,59.52026665,j,2.0285,5,0,5,0,1,,,,,,,,,,,,,,,,
,,,,,,,,,,,,5e6ca4b9a2b73d25c187ae61,2021-09-27_17h58.20.365,forced_choiceRT_color,2021.2.3,Win32,59.52026665,f,1.7224,6,0,6,0,1,,,,,,,,,,,,,,,,
,,,,,,,,,,,,5e6ca4b9a2b73d25c187ae61,2021-09-27_17h58.20.365,forced_choiceRT_color,2021.2.3,Win32,59.52026665,j,2.0217,7,0,7,0,1,,,,,,,,,,,,,,,,
,,,,,,,,,,,,5e6ca4b9a2b73d25c187ae61,2021-09-27_17h58.20.365,forced_choiceRT_color,2021.2.3,Win32,59.52026665,j,2.0496,8,0,8,0,1,,,,,,,,,,,,,,,,
,,,,,,,,,,,,5e6ca4b9a2b73d25c187ae61,2021-09-27_17h58.20.365,forced_choiceRT_color,2021.2.3,Win32,59.52026665,j,2.0064,9,0,9,0,1,,,,,,,,,,,,,,,,
,,,,,,,,,,,,5e6ca4b9a2b73d25c187ae61,2021-09-27_17h58.20.365,forced_choiceRT_color,2021.2.3,Win32,59.52026665,j,2.0352,10,0,10,0,1,,,,,,,,,,,,,,,,
,,,,,,,,,,,,5e6ca4b9a2b73d25c187ae61,2021-09-27_17h58.20.365,forced_choiceRT_color,2021.2.3,Win32,59.52026665,j,1.9824,11,0,11,0,1,,,,,,,,,,,,,,,,
,,,,,,,,,,,,5e6ca4b9a2b73d25c187ae61,2021-09-27_17h58.20.365,forced_choiceRT_color,2021.2.3,Win32,59.52026665,j,1.9371,12,0,12,0,1,,,,,,,,,,,,,,,,
,,,,,,,,,,,,5e6ca4b9a2b73d25c187ae61,2021-09-27_17h58.20.365,forced_choiceRT_color,2021.2.3,Win32,59.52026665,j,1.8844,13,0,13,0,1,,,,,,,,,,,,,,,,
,,,,,,,,,,,,5e6ca4b9a2b73d25c187ae61,2021-09-27_17h58.20.365,forced_choiceRT_color,2021.2.3,Win32,59.52026665,j,1.9726,14,0,14,0,1,,,,,,,,,,,,,,,,
,,,,,,,,,,,,5e6ca4b9a2b73d25c187ae61,2021-09-27_17h58.20.365,forced_choiceRT_color,2021.2.3,Win32,59.52026665,j,1.9324,15,0,15,0,1,,,,,,,,,,,,,,,,
,,,,,,,,,,,,5e6ca4b9a2b73d25c187ae61,2021-09-27_17h58.20.365,forced_choiceRT_color,2021.2.3,Win32,59.52026665,j,2.0163,16,0,16,0,1,,,,,,,,,,,,,,,,
,,,,,,,,,,,,5e6ca4b9a2b73d25c187ae61,2021-09-27_17h58.20.365,forced_choiceRT_color,2021.2.3,Win32,59.52026665,f,0.1413,17,0,17,0,1,,,,,,,,,,,,,,,,
,,,,,,,,,,,,5e6ca4b9a2b73d25c187ae61,2021-09-27_17h58.20.365,forced_choiceRT_color,2021.2.3,Win32,59.52026665,f,2.0152,18,0,18,0,1,,,,,,,,,,,,,,,,
,,,,,,,,,,,,5e6ca4b9a2b73d25c187ae61,2021-09-27_17h58.20.365,forced_choiceRT_color,2021.2.3,Win32,59.52026665,f,1.9158,19,0,19,0,1,,,,,,,,,,,,,,,,
,0.59,,,,,,,,,d,orange,5e6ca4b9a2b73d25c187ae61,2021-09-27_17h58.20.365,forced_choiceRT_color,2021.2.3,Win32,59.52026665,,,,,,,,1,Slow,short,f,0,5.8195,0,0,0,0,1,,,,,
,1.47,,,,,,,,,j,red,5e6ca4b9a2b73d25c187ae61,2021-09-27_17h58.20.365,forced_choiceRT_color,2021.2.3,Win32,59.52026665,,,,,,,,1,Ontime,short,j,1,1.9054,0,1,1,2,1,,,,,
,1.52,,,,,,,,,d,orange,5e6ca4b9a2b73d25c187ae61,2021-09-27_17h58.20.365,forced_choiceRT_color,2021.2.3,Win32,59.52026665,,,,,,,,1,Fast,short,j,0,0.2188,0,2,2,0,1,,,,,
,1.29,,,,,,,,,f,blue,5e6ca4b9a2b73d25c187ae61,2021-09-27_17h58.20.365,forced_choiceRT_color,2021.2.3,Win32,59.52026665,,,,,,,,1,Slow,short,j,0,16.7754,0,3,3,1,1,,,,,
,1.9,,,,,,,,,j,red,5e6ca4b9a2b73d25c187ae61,2021-09-27_17h58.20.365,forced_choiceRT_color,2021.2.3,Win32,59.52026665,,,,,,,,1,Fast,short,f,0,1.116,1,0,4,2,1,,,,,
,0.63,,,,,,,,,j,red,5e6ca4b9a2b73d25c187ae61,2021-09-27_17h58.20.365,forced_choiceRT_color,2021.2.3,Win32,59.52026665,,,,,,,,1,Slow,short,f,0,6.7124,1,1,5,2,1,,,,,
,1.03,,,,,,,,,j,red,5e6ca4b9a2b73d25c187ae61,2021-09-27_17h58.20.365,forced_choiceRT_color,2021.2.3,Win32,59.52026665,,,,,,,,1,Ontime,short,f,0,1.905,1,2,6,2,1,,,,,
,1.17,,,,,,,,,d,orange,5e6ca4b9a2b73d25c187ae61,2021-09-27_17h58.20.365,forced_choiceRT_color,2021.2.3,Win32,59.52026665,,,,,,,,1,Fast,short,f,0,1.8245,1,3,7,0,1,,,,,
,0.52,,,,,,,,,k,purple,5e6ca4b9a2b73d25c187ae61,2021-09-27_17h58.20.365,forced_choiceRT_color,2021.2.3,Win32,59.52026665,,,,,,,,1,Ontime,short,j,0,1.9561,2,0,8,3,1,,,,,
,0.27,,,,,,,,,d,orange,5e6ca4b9a2b73d25c187ae61,2021-09-27_17h58.20.365,forced_choiceRT_color,2021.2.3,Win32,59.52026665,,,,,,,,1,Fast,short,k,0,0.1345,2,1,9,0,1,,,,,
,0.74,,,,,,,,,f,blue,5e6ca4b9a2b73d25c187ae61,2021-09-27_17h58.20.365,forced_choiceRT_color,2021.2.3,Win32,59.52026665,,,,,,,,1,Fast,short,j,0,1.8839,2,2,10,1,1,,,,,
,1.26,,,,,,,,,k,purple,5e6ca4b9a2b73d25c187ae61,2021-09-27_17h58.20.365,forced_choiceRT_color,2021.2.3,Win32,59.52026665,,,,,,,,1,Ontime,short,j,0,2.0565,2,3,11,3,1,,,,,
,1.22,,,,,,,,,d,orange,5e6ca4b9a2b73d25c187ae61,2021-09-27_17h58.20.365,forced_choiceRT_color,2021.2.3,Win32,59.52026665,,,,,,,,1,Slow,short,j,0,2.1326,3,0,12,0,1,,,,,
,0.89,,,,,,,,,j,red,5e6ca4b9a2b73d25c187ae61,2021-09-27_17h58.20.365,forced_choiceRT_color,2021.2.3,Win32,59.52026665,,,,,,,,1,Fast,short,j,1,1.89,3,1,13,2,1,,,,,
,1.21,,,,,,,,,f,blue,5e6ca4b9a2b73d25c187ae61,2021-09-27_17h58.20.365,forced_choiceRT_color,2021.2.3,Win32,59.52026665,,,,,,,,1,Ontime,short,j,0,2.0158,3,2,14,1,1,,,,,
,0.19,,,,,,,,,j,red,5e6ca4b9a2b73d25c187ae61,2021-09-27_17h58.20.365,forced_choiceRT_color,2021.2.3,Win32,59.52026665,,,,,,,,1,Ontime,short,j,1,2.0433,3,3,15,2,1,,,,,
,1.04,,,,,,,,,f,blue,5e6ca4b9a2b73d25c187ae61,2021-09-27_17h58.20.365,forced_choiceRT_color,2021.2.3,Win32,59.52026665,,,,,,,,1,Ontime,short,j,0,2.0526,4,0,16,1,1,,,,,
,1.43,,,,,,,,,d,orange,5e6ca4b9a2b73d25c187ae61,2021-09-27_17h58.20.365,forced_choiceRT_color,2021.2.3,Win32,59.52026665,,,,,,,,1,Ontime,short,j,0,2.0331,4,1,17,0,1,,,,,
,0.81,,,,,,,,,d,orange,5e6ca4b9a2b73d25c187ae61,2021-09-27_17h58.20.365,forced_choiceRT_color,2021.2.3,Win32,59.52026665,,,,,,,,1,Ontime,short,j,0,2.0322,4,2,18,0,1,,,,,
,1.72,,,,,,,,,k,purple,5e6ca4b9a2b73d25c187ae61,2021-09-27_17h58.20.365,forced_choiceRT_color,2021.2.3,Win32,59.52026665,,,,,,,,1,Ontime,short,j,0,1.9265,4,3,19,3,1,,,,,
,0.54,,,,,,,,,d,orange,5e6ca4b9a2b73d25c187ae61,2021-09-27_17h58.20.365,forced_choiceRT_color,2021.2.3,Win32,59.52026665,,,,,,,,1,Ontime,short,j,0,1.9157,5,0,20,0,1,,,,,
,1.97,,,,,,,,,f,blue,5e6ca4b9a2b73d25c187ae61,2021-09-27_17h58.20.365,forced_choiceRT_color,2021.2.3,Win32,59.52026665,,,,,,,,1,Slow,short,f,1,2.1745,5,1,21,1,1,,,,,
,0.17,,,,,,,,,f,blue,5e6ca4b9a2b73d25c187ae61,2021-09-27_17h58.20.365,forced_choiceRT_color,2021.2.3,Win32,59.52026665,,,,,,,,1,Fast,short,f,1,1.8355,5,2,22,1,1,,,,,
,0.47,,,,,,,,,k,purple,5e6ca4b9a2b73d25c187ae61,2021-09-27_17h58.20.365,forced_choiceRT_color,2021.2.3,Win32,59.52026665,,,,,,,,1,Ontime,short,f,0,1.9255,5,3,23,3,1,,,,,
,0.06,,,,,,,,,j,red,5e6ca4b9a2b73d25c187ae61,2021-09-27_17h58.20.365,forced_choiceRT_color,2021.2.3,Win32,59.52026665,,,,,,,,1,Ontime,short,f,0,1.9463,6,0,24,2,1,,,,,
,0.52,,,,,,,,,k,purple,5e6ca4b9a2b73d25c187ae61,2021-09-27_17h58.20.365,forced_choiceRT_color,2021.2.3,Win32,59.52026665,,,,,,,,1,Fast,short,f,0,1.8993,6,1,25,3,1,,,,,
,1.26,,,,,,,,,k,purple,5e6ca4b9a2b73d25c187ae61,2021-09-27_17h58.20.365,forced_choiceRT_color,2021.2.3,Win32,59.52026665,,,,,,,,1,Fast,short,j,0,1.7993,6,2,26,3,1,,,,,
,0.11,,,,,,,,,k,purple,5e6ca4b9a2b73d25c187ae61,2021-09-27_17h58.20.365,forced_choiceRT_color,2021.2.3,Win32,59.52026665,,,,,,,,1,Fast,short,j,0,1.8105,6,3,27,3,1,,,,,
,1.49,,,,,,,,,k,purple,5e6ca4b9a2b73d25c187ae61,2021-09-27_17h58.20.365,forced_choiceRT_color,2021.2.3,Win32,59.52026665,,,,,,,,1,Ontime,short,j,0,1.9158,7,0,28,3,1,,,,,
,0.42,,,,,,,,,k,purple,5e6ca4b9a2b73d25c187ae61,2021-09-27_17h58.20.365,forced_choiceRT_color,2021.2.3,Win32,59.52026665,,,,,,,,1,Ontime,short,j,0,1.9333,7,1,29,3,1,,,,,
,0.07,,,,,,,,,f,blue,5e6ca4b9a2b73d25c187ae61,2021-09-27_17h58.20.365,forced_choiceRT_color,2021.2.3,Win32,59.52026665,,,,,,,,1,Ontime,short,j,0,1.905,7,2,30,1,1,,,,,
,1.31,,,,,,,,,j,red,5e6ca4b9a2b73d25c187ae61,2021-09-27_17h58.20.365,forced_choiceRT_color,2021.2.3,Win32,59.52026665,,,,,,,,1,Ontime,short,j,1,2.0145,7,3,31,2,1,,,,,
,0.72,,,,,,,,,k,purple,5e6ca4b9a2b73d25c187ae61,2021-09-27_17h58.20.365,forced_choiceRT_color,2021.2.3,Win32,59.52026665,,,,,,,,1,Fast,short,j,0,1.8713,8,0,32,3,1,,,,,
,0.05,,,,,,,,,f,blue,5e6ca4b9a2b73d25c187ae61,2021-09-27_17h58.20.365,forced_choiceRT_color,2021.2.3,Win32,59.52026665,,,,,,,,1,Ontime,short,d,0,1.9017,8,1,33,1,1,,,,,
,1.84,,,,,,,,,j,red,5e6ca4b9a2b73d25c187ae61,2021-09-27_17h58.20.365,forced_choiceRT_color,2021.2.3,Win32,59.52026665,,,,,,,,1,Fast,short,d,0,0.2914,8,2,34,2,1,,,,,
,1.26,,,,,,,,,f,blue,5e6ca4b9a2b73d25c187ae61,2021-09-27_17h58.20.365,forced_choiceRT_color,2021.2.3,Win32,59.52026665,,,,,,,,1,Ontime,short,k,0,2.0274,8,3,35,1,1,,,,,
,0.02,,,,,,,,,d,orange,5e6ca4b9a2b73d25c187ae61,2021-09-27_17h58.20.365,forced_choiceRT_color,2021.2.3,Win32,59.52026665,,,,,,,,1,Ontime,short,k,0,1.9023,9,0,36,0,1,,,,,
,0.21,,,,,,,,,f,blue,5e6ca4b9a2b73d25c187ae61,2021-09-27_17h58.20.365,forced_choiceRT_color,2021.2.3,Win32,59.52026665,,,,,,,,1,Fast,short,d,0,1.8747,9,1,37,1,1,,,,,
,1.99,,,,,,,,,d,orange,5e6ca4b9a2b73d25c187ae61,2021-09-27_17h58.20.365,forced_choiceRT_color,2021.2.3,Win32,59.52026665,,,,,,,,1,Ontime,short,d,1,1.9636,9,2,38,0,1,,,,,
,1.12,,,,,,,,,j,red,5e6ca4b9a2b73d25c187ae61,2021-09-27_17h58.20.365,forced_choiceRT_color,2021.2.3,Win32,59.52026665,,,,,,,,1,Fast,short,d,0,1.8924,9,3,39,2,1,,,,,
,,,,,,,,,,,,5e6ca4b9a2b73d25c187ae61,2021-09-27_17h58.20.365,forced_choiceRT_color,2021.2.3,Win32,59.52026665,,,,,,,,,,,,,,,,,,,0,0,0,0,1
,0.02,,,,,,,,,f,blue,5e6ca4b9a2b73d25c187ae61,2021-09-27_17h58.20.365,forced_choiceRT_color,2021.2.3,Win32,59.52026665,,,,,,,,2,Slow,short,f,1,6.4681,0,0,0,1,1,,,,,
,0.07,,,,,,,,,d,orange,5e6ca4b9a2b73d25c187ae61,2021-09-27_17h58.20.365,forced_choiceRT_color,2021.2.3,Win32,59.52026665,,,,,,,,2,Ontime,short,j,0,1.9695,0,1,1,0,1,,,,,
,1.12,,,,,,,,,j,red,5e6ca4b9a2b73d25c187ae61,2021-09-27_17h58.20.365,forced_choiceRT_color,2021.2.3,Win32,59.52026665,,,,,,,,2,Slow,short,f,0,2.2324,0,2,2,2,1,,,,,
,0.35,,,,,,,,,k,purple,5e6ca4b9a2b73d25c187ae61,2021-09-27_17h58.20.365,forced_choiceRT_color,2021.2.3,Win32,59.52026665,,,,,,,,2,Fast,short,j,0,0.1564,0,3,3,3,1,,,,,
,0,,,,,,,,,d,orange,5e6ca4b9a2b73d25c187ae61,2021-09-27_17h58.20.365,forced_choiceRT_color,2021.2.3,Win32,59.52026665,,,,,,,,2,Fast,short,j,0,1.7244,1,0,4,0,1,,,,,
,1.71,,,,,,,,,j,red,5e6ca4b9a2b73d25c187ae61,2021-09-27_17h58.20.365,forced_choiceRT_color,2021.2.3,Win32,59.52026665,,,,,,,,2,Ontime,short,f,0,1.9828,1,1,5,2,1,,,,,
,0.9,,,,,,,,,k,purple,5e6ca4b9a2b73d25c187ae61,2021-09-27_17h58.20.365,forced_choiceRT_color,2021.2.3,Win32,59.52026665,,,,,,,,2,Ontime,short,j,0,2.0828,1,2,6,3,1,,,,,
,1.8,,,,,,,,,j,red,5e6ca4b9a2b73d25c187ae61,2021-09-27_17h58.20.365,forced_choiceRT_color,2021.2.3,Win32,59.52026665,,,,,,,,2,Slow,short,j,1,2.1548,1,3,7,2,1,,,,,
,0.3,,,,,,,,,d,orange,5e6ca4b9a2b73d25c187ae61,2021-09-27_17h58.20.365,forced_choiceRT_color,2021.2.3,Win32,59.52026665,,,,,,,,2,Ontime,short,f,0,2.0164,2,0,8,0,1,,,,,
,1.52,,,,,,,,,f,blue,5e6ca4b9a2b73d25c187ae61,2021-09-27_17h58.20.365,forced_choiceRT_color,2021.2.3,Win32,59.52026665,,,,,,,,2,Fast,short,f,1,1.8497,2,1,9,1,1,,,,,
,1.81,,,,,,,,,f,blue,5e6ca4b9a2b73d25c187ae61,2021-09-27_17h58.20.365,forced_choiceRT_color,2021.2.3,Win32,59.52026665,,,,,,,,2,Ontime,short,j,0,1.9824,2,2,10,1,1,,,,,
,1.68,,,,,,,,,k,purple,5e6ca4b9a2b73d25c187ae61,2021-09-27_17h58.20.365,forced_choiceRT_color,2021.2.3,Win32,59.52026665,,,,,,,,2,Ontime,short,j,0,1.9985,2,3,11,3,1,,,,,
,0.01,,,,,,,,,k,purple,5e6ca4b9a2b73d25c187ae61,2021-09-27_17h58.20.365,forced_choiceRT_color,2021.2.3,Win32,59.52026665,,,,,,,,2,Ontime,short,f,0,1.9488,3,0,12,3,1,,,,,
,1.35,,,,,,,,,f,blue,5e6ca4b9a2b73d25c187ae61,2021-09-27_17h58.20.365,forced_choiceRT_color,2021.2.3,Win32,59.52026665,,,,,,,,2,Fast,short,f,1,1.8827,3,1,13,1,1,,,,,
,1.88,,,,,,,,,f,blue,5e6ca4b9a2b73d25c187ae61,2021-09-27_17h58.20.365,forced_choiceRT_color,2021.2.3,Win32,59.52026665,,,,,,,,2,Ontime,short,j,0,1.9725,3,2,14,1,1,,,,,
,0.95,,,,,,,,,j,red,5e6ca4b9a2b73d25c187ae61,2021-09-27_17h58.20.365,forced_choiceRT_color,2021.2.3,Win32,59.52026665,,,,,,,,2,Ontime,short,f,0,2.0401,3,3,15,2,1,,,,,
,1.24,,,,,,,,,j,red,5e6ca4b9a2b73d25c187ae61,2021-09-27_17h58.20.365,forced_choiceRT_color,2021.2.3,Win32,59.52026665,,,,,,,,2,Ontime,short,j,1,2.0513,4,0,16,2,1,,,,,
,0.98,,,,,,,,,j,red,5e6ca4b9a2b73d25c187ae61,2021-09-27_17h58.20.365,forced_choiceRT_color,2021.2.3,Win32,59.52026665,,,,,,,,2,Slow,short,d,0,2.1851,4,1,17,2,1,,,,,
,0.73,,,,,,,,,k,purple,5e6ca4b9a2b73d25c187ae61,2021-09-27_17h58.20.365,forced_choiceRT_color,2021.2.3,Win32,59.52026665,,,,,,,,2,Fast,short,j,0,0.8019,4,2,18,3,1,,,,,
,1.07,,,,,,,,,d,orange,5e6ca4b9a2b73d25c187ae61,2021-09-27_17h58.20.365,forced_choiceRT_color,2021.2.3,Win32,59.52026665,,,,,,,,2,Ontime,short,j,0,1.9319,4,3,19,0,1,,,,,
,0.83,,,,,,,,,k,purple,5e6ca4b9a2b73d25c187ae61,2021-09-27_17h58.20.365,forced_choiceRT_color,2021.2.3,Win32,59.52026665,,,,,,,,2,Ontime,short,j,0,2.0391,5,0,20,3,1,,,,,
,0.89,,,,,,,,,k,purple,5e6ca4b9a2b73d25c187ae61,2021-09-27_17h58.20.365,forced_choiceRT_color,2021.2.3,Win32,59.52026665,,,,,,,,2,Fast,short,k,1,1.883,5,1,21,3,1,,,,,
,0.4,,,,,,,,,j,red,5e6ca4b9a2b73d25c187ae61,2021-09-27_17h58.20.365,forced_choiceRT_color,2021.2.3,Win32,59.52026665,,,,,,,,2,Ontime,short,j,1,1.9826,5,2,22,2,1,,,,,
,0.44,,,,,,,,,d,orange,5e6ca4b9a2b73d25c187ae61,2021-09-27_17h58.20.365,forced_choiceRT_color,2021.2.3,Win32,59.52026665,,,,,,,,2,Fast,short,k,0,0.0012,5,3,23,0,1,,,,,
,0.75,,,,,,,,,d,orange,5e6ca4b9a2b73d25c187ae61,2021-09-27_17h58.20.365,forced_choiceRT_color,2021.2.3,Win32,59.52026665,,,,,,,,2,Ontime,short,f,0,1.9654,6,0,24,0,1,,,,,
,0.86,,,,,,,,,k,purple,5e6ca4b9a2b73d25c187ae61,2021-09-27_17h58.20.365,forced_choiceRT_color,2021.2.3,Win32,59.52026665,,,,,,,,2,Ontime,short,k,1,2.0222,6,1,25,3,1,,,,,
,0.76,,,,,,,,,f,blue,5e6ca4b9a2b73d25c187ae61,2021-09-27_17h58.20.365,forced_choiceRT_color,2021.2.3,Win32,59.52026665,,,,,,,,2,Ontime,short,f,1,1.9005,6,2,26,1,1,,,,,
,1.2,,,,,,,,,f,blue,5e6ca4b9a2b73d25c187ae61,2021-09-27_17h58.20.365,forced_choiceRT_color,2021.2.3,Win32,59.52026665,,,,,,,,2,Ontime,short,f,1,1.9005,6,3,27,1,1,,,,,
,1.82,,,,,,,,,d,orange,5e6ca4b9a2b73d25c187ae61,2021-09-27_17h58.20.365,forced_choiceRT_color,2021.2.3,Win32,59.52026665,,,,,,,,2,Ontime,short,f,0,2.0267,7,0,28,0,1,,,,,
,0.56,,,,,,,,,d,orange,5e6ca4b9a2b73d25c187ae61,2021-09-27_17h58.20.365,forced_choiceRT_color,2021.2.3,Win32,59.52026665,,,,,,,,2,Ontime,short,d,1,1.9932,7,1,29,0,1,,,,,
,1.94,,,,,,,,,d,orange,5e6ca4b9a2b73d25c187ae61,2021-09-27_17h58.20.365,forced_choiceRT_color,2021.2.3,Win32,59.52026665,,,,,,,,2,Ontime,short,j,0,2.0325,7,2,30,0,1,,,,,
,0.88,,,,,,,,,d,orange,5e6ca4b9a2b73d25c187ae61,2021-09-27_17h58.20.365,forced_choiceRT_color,2021.2.3,Win32,59.52026665,,,,,,,,2,Ontime,short,d,1,1.9154,7,3,31,0,1,,,,,
,1.1,,,,,,,,,k,purple,5e6ca4b9a2b73d25c187ae61,2021-09-27_17h58.20.365,forced_choiceRT_color,2021.2.3,Win32,59.52026665,,,,,,,,2,Fast,short,k,1,1.8839,8,0,32,3,1,,,,,
,0.81,,,,,,,,,j,red,5e6ca4b9a2b73d25c187ae61,2021-09-27_17h58.20.365,forced_choiceRT_color,2021.2.3,Win32,59.52026665,,,,,,,,2,Fast,short,j,1,1.8506,8,1,33,2,1,,,,,
,1.95,,,,,,,,,j,red,5e6ca4b9a2b73d25c187ae61,2021-09-27_17h58.20.365,forced_choiceRT_color,2021.2.3,Win32,59.52026665,,,,,,,,2,Slow,short,j,1,2.3822,8,2,34,2,1,,,,,
,1.65,,,,,,,,,j,red,5e6ca4b9a2b73d25c187ae61,2021-09-27_17h58.20.365,forced_choiceRT_color,2021.2.3,Win32,59.52026665,,,,,,,,2,Ontime,short,j,1,2.0805,8,3,35,2,1,,,,,
,1.26,,,,,,,,,f,blue,5e6ca4b9a2b73d25c187ae61,2021-09-27_17h58.20.365,forced_choiceRT_color,2021.2.3,Win32,59.52026665,,,,,,,,2,Ontime,short,k,0,2.059,9,0,36,1,1,,,,,
,1.15,,,,,,,,,f,blue,5e6ca4b9a2b73d25c187ae61,2021-09-27_17h58.20.365,forced_choiceRT_color,2021.2.3,Win32,59.52026665,,,,,,,,2,Fast,short,j,0,0.0862,9,1,37,1,1,,,,,
,0.4,,,,,,,,,k,purple,5e6ca4b9a2b73d25c187ae61,2021-09-27_17h58.20.365,forced_choiceRT_color,2021.2.3,Win32,59.52026665,,,,,,,,2,Fast,short,k,1,1.7163,9,2,38,3,1,,,,,
,0.24,,,,,,,,,f,blue,5e6ca4b9a2b73d25c187ae61,2021-09-27_17h58.20.365,forced_choiceRT_color,2021.2.3,Win32,59.52026665,,,,,,,,2,Fast,short,j,0,1.8998,9,3,39,1,1,,,,,
,,,,,,,,,,,,5e6ca4b9a2b73d25c187ae61,2021-09-27_17h58.20.365,forced_choiceRT_color,2021.2.3,Win32,59.52026665,,,,,,,,,,,,,,,,,,,1,0,1,0,1
,1.45,,,,,,,,,k,purple,5e6ca4b9a2b73d25c187ae61,2021-09-27_17h58.20.365,forced_choiceRT_color,2021.2.3,Win32,59.52026665,,,,,,,,3,Ontime,short,k,1,2.0275,0,0,0,3,1,,,,,
,1.71,,,,,,,,,d,orange,5e6ca4b9a2b73d25c187ae61,2021-09-27_17h58.20.365,forced_choiceRT_color,2021.2.3,Win32,59.52026665,,,,,,,,3,Ontime,short,j,0,2.097,0,1,1,0,1,,,,,
,0.21,,,,,,,,,k,purple,5e6ca4b9a2b73d25c187ae61,2021-09-27_17h58.20.365,forced_choiceRT_color,2021.2.3,Win32,59.52026665,,,,,,,,3,Slow,short,k,1,2.1708,0,2,2,3,1,,,,,
,0.03,,,,,,,,,d,orange,5e6ca4b9a2b73d25c187ae61,2021-09-27_17h58.20.365,forced_choiceRT_color,2021.2.3,Win32,59.52026665,,,,,,,,3,Fast,short,d,1,1.8884,0,3,3,0,1,,,,,
,1.15,,,,,,,,,j,red,5e6ca4b9a2b73d25c187ae61,2021-09-27_17h58.20.365,forced_choiceRT_color,2021.2.3,Win32,59.52026665,,,,,,,,3,Fast,short,j,1,1.6327,1,0,4,2,1,,,,,
,1.3,,,,,,,,,f,blue,5e6ca4b9a2b73d25c187ae61,2021-09-27_17h58.20.365,forced_choiceRT_color,2021.2.3,Win32,59.52026665,,,,,,,,3,Ontime,short,k,0,1.9667,1,1,5,1,1,,,,,
,1.05,,,,,,,,,k,purple,5e6ca4b9a2b73d25c187ae61,2021-09-27_17h58.20.365,forced_choiceRT_color,2021.2.3,Win32,59.52026665,,,,,,,,3,Ontime,short,k,1,2.0352,1,2,6,3,1,,,,,
,1,,,,,,,,,j,red,5e6ca4b9a2b73d25c187ae61,2021-09-27_17h58.20.365,forced_choiceRT_color,2021.2.3,Win32,59.52026665,,,,,,,,3,Ontime,short,j,1,2.0199,1,3,7,2,1,,,,,
,1.61,,,,,,,,,k,purple,5e6ca4b9a2b73d25c187ae61,2021-09-27_17h58.20.365,forced_choiceRT_color,2021.2.3,Win32,59.52026665,,,,,,,,3,Ontime,short,d,0,2.0493,2,0,8,3,1,,,,,
,0.29,,,,,,,,,j,red,5e6ca4b9a2b73d25c187ae61,2021-09-27_17h58.20.365,forced_choiceRT_color,2021.2.3,Win32,59.52026665,,,,,,,,3,Ontime,short,j,1,1.9891,2,1,9,2,1,,,,,
,0.17,,,,,,,,,d,orange,5e6ca4b9a2b73d25c187ae61,2021-09-27_17h58.20.365,forced_choiceRT_color,2021.2.3,Win32,59.52026665,,,,,,,,3,Ontime,short,d,1,1.9841,2,2,10,0,1,,,,,
,1.17,,,,,,,,,j,red,5e6ca4b9a2b73d25c187ae61,2021-09-27_17h58.20.365,forced_choiceRT_color,2021.2.3,Win32,59.52026665,,,,,,,,3,Fast,short,j,1,1.7895,2,3,11,2,1,,,,,
,1.96,,,,,,,,,k,purple,5e6ca4b9a2b73d25c187ae61,2021-09-27_17h58.20.365,forced_choiceRT_color,2021.2.3,Win32,59.52026665,,,,,,,,3,Slow,short,j,0,2.2055,3,0,12,3,1,,,,,
,0.54,,,,,,,,,f,blue,5e6ca4b9a2b73d25c187ae61,2021-09-27_17h58.20.365,forced_choiceRT_color,2021.2.3,Win32,59.52026665,,,,,,,,3,Ontime,short,d,0,1.9598,3,1,13,1,1,,,,,
,0.46,,,,,,,,,f,blue,5e6ca4b9a2b73d25c187ae61,2021-09-27_17h58.20.365,forced_choiceRT_color,2021.2.3,Win32,59.52026665,,,,,,,,3,Fast,short,f,1,1.8662,3,2,14,1,1,,,,,
,1.25,,,,,,,,,f,blue,5e6ca4b9a2b73d25c187ae61,2021-09-27_17h58.20.365,forced_choiceRT_color,2021.2.3,Win32,59.52026665,,,,,,,,3,Ontime,short,f,1,1.9494,3,3,15,1,1,,,,,
,0.15,,,,,,,,,f,blue,5e6ca4b9a2b73d25c187ae61,2021-09-27_17h58.20.365,forced_choiceRT_color,2021.2.3,Win32,59.52026665,,,,,,,,3,Fast,short,f,1,1.8738,4,0,16,1,1,,,,,
,0.15,,,,,,,,,k,purple,5e6ca4b9a2b73d25c187ae61,2021-09-27_17h58.20.365,forced_choiceRT_color,2021.2.3,Win32,59.52026665,,,,,,,,3,Ontime,short,k,1,1.9198,4,1,17,3,1,,,,,
,0.53,,,,,,,,,k,purple,5e6ca4b9a2b73d25c187ae61,2021-09-27_17h58.20.365,forced_choiceRT_color,2021.2.3,Win32,59.52026665,,,,,,,,3,Fast,short,j,0,0.0436,4,2,18,3,1,,,,,
,1.12,,,,,,,,,d,orange,5e6ca4b9a2b73d25c187ae61,2021-09-27_17h58.20.365,forced_choiceRT_color,2021.2.3,Win32,59.52026665,,,,,,,,3,Fast,short,k,0,1.8356,4,3,19,0,1,,,,,
,1.12,,,,,,,,,k,purple,5e6ca4b9a2b73d25c187ae61,2021-09-27_17h58.20.365,forced_choiceRT_color,2021.2.3,Win32,59.52026665,,,,,,,,3,Fast,short,k,1,1.7907,5,0,20,3,1,,,,,
,1.36,,,,,,,,,j,red,5e6ca4b9a2b73d25c187ae61,2021-09-27_17h58.20.365,forced_choiceRT_color,2021.2.3,Win32,59.52026665,,,,,,,,3,Fast,short,k,0,1.8719,5,1,21,2,1,,,,,
,1.75,,,,,,,,,j,red,5e6ca4b9a2b73d25c187ae61,2021-09-27_17h58.20.365,forced_choiceRT_color,2021.2.3,Win32,59.52026665,,,,,,,,3,Slow,short,k,0,2.1195,5,2,22,2,1,,,,,
,0.72,,,,,,,,,f,blue,5e6ca4b9a2b73d25c187ae61,2021-09-27_17h58.20.365,forced_choiceRT_color,2021.2.3,Win32,59.52026665,,,,,,,,3,Ontime,short,f,1,1.9879,5,3,23,1,1,,,,,
,0.63,,,,,,,,,f,blue,5e6ca4b9a2b73d25c187ae61,2021-09-27_17h58.20.365,forced_choiceRT_color,2021.2.3,Win32,59.52026665,,,,,,,,3,Fast,short,f,1,1.8728,6,0,24,1,1,,,,,
,1.54,,,,,,,,,f,blue,5e6ca4b9a2b73d25c187ae61,2021-09-27_17h58.20.365,forced_choiceRT_color,2021.2.3,Win32,59.52026665,,,,,,,,3,Ontime,short,f,1,1.9496,6,1,25,1,1,,,,,
,1.51,,,,,,,,,d,orange,5e6ca4b9a2b73d25c187ae61,2021-09-27_17h58.20.365,forced_choiceRT_color,2021.2.3,Win32,59.52026665,,,,,,,,3,Fast,short,f,0,1.8506,6,2,26,0,1,,,,,
,0.4,,,,,,,,,k,purple,5e6ca4b9a2b73d25c187ae61,2021-09-27_17h58.20.365,forced_choiceRT_color,2021.2.3,Win32,59.52026665,,,,,,,,3,Fast,short,d,0,1.88,6,3,27,3,1,,,,,
,1.26,,,,,,,,,j,red,5e6ca4b9a2b73d25c187ae61,2021-09-27_17h58.20.365,forced_choiceRT_color,2021.2.3,Win32,59.52026665,,,,,,,,3,Fast,short,j,1,1.8679,7,0,28,2,1,,,,,
,1.17,,,,,,,,,d,orange,5e6ca4b9a2b73d25c187ae61,2021-09-27_17h58.20.365,forced_choiceRT_color,2021.2.3,Win32,59.52026665,,,,,,,,3,Fast,short,d,1,1.8515,7,1,29,0,1,,,,,
,1.11,,,,,,,,,j,red,5e6ca4b9a2b73d25c187ae61,2021-09-27_17h58.20.365,forced_choiceRT_color,2021.2.3,Win32,59.52026665,,,,,,,,3,Ontime,short,d,0,2.099,7,2,30,2,1,,,,,
,1.62,,,,,,,,,d,orange,5e6ca4b9a2b73d25c187ae61,2021-09-27_17h58.20.365,forced_choiceRT_color,2021.2.3,Win32,59.52026665,,,,,,,,3,Ontime,short,d,1,1.9424,7,3,31,0,1,,,,,
,1.28,,,,,,,,,f,blue,5e6ca4b9a2b73d25c187ae61,2021-09-27_17h58.20.365,forced_choiceRT_color,2021.2.3,Win32,59.52026665,,,,,,,,3,Fast,short,j,0,1.8592,8,0,32,1,1,,,,,
,0.36,,,,,,,,,k,purple,5e6ca4b9a2b73d25c187ae61,2021-09-27_17h58.20.365,forced_choiceRT_color,2021.2.3,Win32,59.52026665,,,,,,,,3,Ontime,short,k,1,1.9681,8,1,33,3,1,,,,,
,0.79,,,,,,,,,d,orange,5e6ca4b9a2b73d25c187ae61,2021-09-27_17h58.20.365,forced_choiceRT_color,2021.2.3,Win32,59.52026665,,,,,,,,3,Ontime,short,d,1,2.0676,8,2,34,0,1,,,,,
,1.75,,,,,,,,,d,orange,5e6ca4b9a2b73d25c187ae61,2021-09-27_17h58.20.365,forced_choiceRT_color,2021.2.3,Win32,59.52026665,,,,,,,,3,Slow,short,d,1,2.3,8,3,35,0,1,,,,,
,0.59,,,,,,,,,d,orange,5e6ca4b9a2b73d25c187ae61,2021-09-27_17h58.20.365,forced_choiceRT_color,2021.2.3,Win32,59.52026665,,,,,,,,3,Fast,short,d,1,1.8479,9,0,36,0,1,,,,,
,0.11,,,,,,,,,f,blue,5e6ca4b9a2b73d25c187ae61,2021-09-27_17h58.20.365,forced_choiceRT_color,2021.2.3,Win32,59.52026665,,,,,,,,3,Ontime,short,f,1,2.066,9,1,37,1,1,,,,,
,1.19,,,,,,,,,j,red,5e6ca4b9a2b73d25c187ae61,2021-09-27_17h58.20.365,forced_choiceRT_color,2021.2.3,Win32,59.52026665,,,,,,,,3,Ontime,short,j,1,1.9013,9,2,38,2,1,,,,,
,0.77,,,,,,,,,j,red,5e6ca4b9a2b73d25c187ae61,2021-09-27_17h58.20.365,forced_choiceRT_color,2021.2.3,Win32,59.52026665,,,,,,,,3,Ontime,short,j,1,1.9409,9,3,39,2,1,,,,,
,,,,,,,,,,,,5e6ca4b9a2b73d25c187ae61,2021-09-27_17h58.20.365,forced_choiceRT_color,2021.2.3,Win32,59.52026665,,,,,,,,,,,,,,,,,,,2,0,2,0,1
,1.08,,,,,,,,,k,purple,5e6ca4b9a2b73d25c187ae61,2021-09-27_17h58.20.365,forced_choiceRT_color,2021.2.3,Win32,59.52026665,,,,,,,,4,Slow,short,f,0,2.374,0,0,0,3,1,,,,,
,1.49,,,,,,,,,k,purple,5e6ca4b9a2b73d25c187ae61,2021-09-27_17h58.20.365,forced_choiceRT_color,2021.2.3,Win32,59.52026665,,,,,,,,4,Slow,short,f,0,2.1007,0,1,1,3,1,,,,,
,1.32,,,,,,,,,k,purple,5e6ca4b9a2b73d25c187ae61,2021-09-27_17h58.20.365,forced_choiceRT_color,2021.2.3,Win32,59.52026665,,,,,,,,4,Ontime,short,k,1,2.0574,0,2,2,3,1,,,,,
,1.27,,,,,,,,,d,orange,5e6ca4b9a2b73d25c187ae61,2021-09-27_17h58.20.365,forced_choiceRT_color,2021.2.3,Win32,59.52026665,,,,,,,,4,Ontime,short,d,1,2.0327,0,3,3,0,1,,,,,
,1.43,,,,,,,,,j,red,5e6ca4b9a2b73d25c187ae61,2021-09-27_17h58.20.365,forced_choiceRT_color,2021.2.3,Win32,59.52026665,,,,,,,,4,Slow,short,j,1,2.2151,1,0,4,2,1,,,,,
,1.64,,,,,,,,,d,orange,5e6ca4b9a2b73d25c187ae61,2021-09-27_17h58.20.365,forced_choiceRT_color,2021.2.3,Win32,59.52026665,,,,,,,,4,Slow,short,j,0,2.1562,1,1,5,0,1,,,,,
,0.8,,,,,,,,,k,purple,5e6ca4b9a2b73d25c187ae61,2021-09-27_17h58.20.365,forced_choiceRT_color,2021.2.3,Win32,59.52026665,,,,,,,,4,Fast,short,j,0,1.8994,1,2,6,3,1,,,,,
,0.66,,,,,,,,,j,red,5e6ca4b9a2b73d25c187ae61,2021-09-27_17h58.20.365,forced_choiceRT_color,2021.2.3,Win32,59.52026665,,,,,,,,4,Ontime,short,j,1,2.0661,1,3,7,2,1,,,,,
,0.48,,,,,,,,,d,orange,5e6ca4b9a2b73d25c187ae61,2021-09-27_17h58.20.365,forced_choiceRT_color,2021.2.3,Win32,59.52026665,,,,,,,,4,Ontime,short,d,1,2.0823,2,0,8,0,1,,,,,
,0.92,,,,,,,,,f,blue,5e6ca4b9a2b73d25c187ae61,2021-09-27_17h58.20.365,forced_choiceRT_color,2021.2.3,Win32,59.52026665,,,,,,,,4,Ontime,short,f,1,2.0855,2,1,9,1,1,,,,,
,0.51,,,,,,,,,k,purple,5e6ca4b9a2b73d25c187ae61,2021-09-27_17h58.20.365,forced_choiceRT_color,2021.2.3,Win32,59.52026665,,,,,,,,4,Ontime,short,d,0,2.071,2,2,10,3,1,,,,,
,1.25,,,,,,,,,d,orange,5e6ca4b9a2b73d25c187ae61,2021-09-27_17h58.20.365,forced_choiceRT_color,2021.2.3,Win32,59.52026665,,,,,,,,4,Ontime,short,d,1,2.0682,2,3,11,0,1,,,,,
,1.64,,,,,,,,,f,blue,5e6ca4b9a2b73d25c187ae61,2021-09-27_17h58.20.365,forced_choiceRT_color,2021.2.3,Win32,59.52026665,,,,,,,,4,Ontime,short,d,0,1.9863,3,0,12,1,1,,,,,
,0.02,,,,,,,,,k,purple,5e6ca4b9a2b73d25c187ae61,2021-09-27_17h58.20.365,forced_choiceRT_color,2021.2.3,Win32,59.52026665,,,,,,,,4,Fast,short,d,0,1.8915,3,1,13,3,1,,,,,
,1.78,,,,,,,,,f,blue,5e6ca4b9a2b73d25c187ae61,2021-09-27_17h58.20.365,forced_choiceRT_color,2021.2.3,Win32,59.52026665,,,,,,,,4,Fast,short,j,0,1.8577,3,2,14,1,1,,,,,
,0.74,,,,,,,,,j,red,5e6ca4b9a2b73d25c187ae61,2021-09-27_17h58.20.365,forced_choiceRT_color,2021.2.3,Win32,59.52026665,,,,,,,,4,Ontime,short,j,1,1.9915,3,3,15,2,1,,,,,
,1.7,,,,,,,,,j,red,5e6ca4b9a2b73d25c187ae61,2021-09-27_17h58.20.365,forced_choiceRT_color,2021.2.3,Win32,59.52026665,,,,,,,,4,Ontime,short,j,1,1.9711,4,0,16,2,1,,,,,
,1.09,,,,,,,,,k,purple,5e6ca4b9a2b73d25c187ae61,2021-09-27_17h58.20.365,forced_choiceRT_color,2021.2.3,Win32,59.52026665,,,,,,,,4,Ontime,short,j,0,2.0044,4,1,17,3,1,,,,,
,0.64,,,,,,,,,d,orange,5e6ca4b9a2b73d25c187ae61,2021-09-27_17h58.20.365,forced_choiceRT_color,2021.2.3,Win32,59.52026665,,,,,,,,4,Ontime,short,j,0,1.9531,4,2,18,0,1,,,,,
,0.87,,,,,,,,,j,red,5e6ca4b9a2b73d25c187ae61,2021-09-27_17h58.20.365,forced_choiceRT_color,2021.2.3,Win32,59.52026665,,,,,,,,4,Ontime,short,f,0,2.0072,4,3,19,2,1,,,,,
,1.56,,,,,,,,,f,blue,5e6ca4b9a2b73d25c187ae61,2021-09-27_17h58.20.365,forced_choiceRT_color,2021.2.3,Win32,59.52026665,,,,,,,,4,Ontime,short,f,1,2.0851,5,0,20,1,1,,,,,
,1.95,,,,,,,,,j,red,5e6ca4b9a2b73d25c187ae61,2021-09-27_17h58.20.365,forced_choiceRT_color,2021.2.3,Win32,59.52026665,,,,,,,,4,Ontime,short,f,0,2.0501,5,1,21,2,1,,,,,
,0.44,,,,,,,,,d,orange,5e6ca4b9a2b73d25c187ae61,2021-09-27_17h58.20.365,forced_choiceRT_color,2021.2.3,Win32,59.52026665,,,,,,,,4,Ontime,short,f,0,2.0004,5,2,22,0,1,,,,,
,0.43,,,,,,,,,j,red,5e6ca4b9a2b73d25c187ae61,2021-09-27_17h58.20.365,forced_choiceRT_color,2021.2.3,Win32,59.52026665,,,,,,,,4,Ontime,short,f,0,2.0043,5,3,23,2,1,,,,,
,0.17,,,,,,,,,k,purple,5e6ca4b9a2b73d25c187ae61,2021-09-27_17h58.20.365,forced_choiceRT_color,2021.2.3,Win32,59.52026665,,,,,,,,4,Ontime,short,f,0,1.9827,6,0,24,3,1,,,,,
,0.9,,,,,,,,,f,blue,5e6ca4b9a2b73d25c187ae61,2021-09-27_17h58.20.365,forced_choiceRT_color,2021.2.3,Win32,59.52026665,,,,,,,,4,Ontime,short,j,0,1.9712,6,1,25,1,1,,,,,
,1.98,,,,,,,,,k,purple,5e6ca4b9a2b73d25c187ae61,2021-09-27_17h58.20.365,forced_choiceRT_color,2021.2.3,Win32,59.52026665,,,,,,,,4,Ontime,short,k,1,2.0661,6,2,26,3,1,,,,,
,1.54,,,,,,,,,j,red,5e6ca4b9a2b73d25c187ae61,2021-09-27_17h58.20.365,forced_choiceRT_color,2021.2.3,Win32,59.52026665,,,,,,,,4,Fast,short,k,0,1.8334,6,3,27,2,1,,,,,
,0.32,,,,,,,,,f,blue,5e6ca4b9a2b73d25c187ae61,2021-09-27_17h58.20.365,forced_choiceRT_color,2021.2.3,Win32,59.52026665,,,,,,,,4,Ontime,short,j,0,2.0371,7,0,28,1,1,,,,,
,1.54,,,,,,,,,d,orange,5e6ca4b9a2b73d25c187ae61,2021-09-27_17h58.20.365,forced_choiceRT_color,2021.2.3,Win32,59.52026665,,,,,,,,4,Ontime,short,f,0,1.9954,7,1,29,0,1,,,,,
,1.72,,,,,,,,,j,red,5e6ca4b9a2b73d25c187ae61,2021-09-27_17h58.20.365,forced_choiceRT_color,2021.2.3,Win32,59.52026665,,,,,,,,4,Ontime,short,j,1,1.917,7,2,30,2,1,,,,,
,1.9,,,,,,,,,k,purple,5e6ca4b9a2b73d25c187ae61,2021-09-27_17h58.20.365,forced_choiceRT_color,2021.2.3,Win32,59.52026665,,,,,,,,4,Ontime,short,f,0,1.9874,7,3,31,3,1,,,,,
,0.3,,,,,,,,,d,orange,5e6ca4b9a2b73d25c187ae61,2021-09-27_17h58.20.365,forced_choiceRT_color,2021.2.3,Win32,59.52026665,,,,,,,,4,Slow,short,f,0,2.1575,8,0,32,0,1,,,,,
,0.86,,,,,,,,,d,orange,5e6ca4b9a2b73d25c187ae61,2021-09-27_17h58.20.365,forced_choiceRT_color,2021.2.3,Win32,59.52026665,,,,,,,,4,Fast,short,f,0,1.891,8,1,33,0,1,,,,,
,0.13,,,,,,,,,f,blue,5e6ca4b9a2b73d25c187ae61,2021-09-27_17h58.20.365,forced_choiceRT_color,2021.2.3,Win32,59.52026665,,,,,,,,4,Ontime,short,f,1,2.0177,8,2,34,1,1,,,,,
,0.11,,,,,,,,,j,red,5e6ca4b9a2b73d25c187ae61,2021-09-27_17h58.20.365,forced_choiceRT_color,2021.2.3,Win32,59.52026665,,,,,,,,4,Ontime,short,j,1,1.9991,8,3,35,2,1,,,,,
,0.27,,,,,,,,,f,blue,5e6ca4b9a2b73d25c187ae61,2021-09-27_17h58.20.365,forced_choiceRT_color,2021.2.3,Win32,59.52026665,,,,,,,,4,Ontime,short,j,0,1.9823,9,0,36,1,1,,,,,
,1.63,,,,,,,,,f,blue,5e6ca4b9a2b73d25c187ae61,2021-09-27_17h58.20.365,forced_choiceRT_color,2021.2.3,Win32,59.52026665,,,,,,,,4,Ontime,short,f,1,1.9887,9,1,37,1,1,,,,,
,1.62,,,,,,,,,f,blue,5e6ca4b9a2b73d25c187ae61,2021-09-27_17h58.20.365,forced_choiceRT_color,2021.2.3,Win32,59.52026665,,,,,,,,4,Ontime,short,f,1,1.9996,9,2,38,1,1,,,,,
,0.38,,,,,,,,,d,orange,5e6ca4b9a2b73d25c187ae61,2021-09-27_17h58.20.365,forced_choiceRT_color,2021.2.3,Win32,59.52026665,,,,,,,,4,Slow,short,f,0,2.1521,9,3,39,0,1,,,,,
,,,,,,,,,,,,5e6ca4b9a2b73d25c187ae61,2021-09-27_17h58.20.365,forced_choiceRT_color,2021.2.3,Win32,59.52026665,,,,,,,,,,,,,,,,,,,3,0,3,0,1
,1.72,,,,,,,,,j,red,5e6ca4b9a2b73d25c187ae61,2021-09-27_17h58.20.365,forced_choiceRT_color,2021.2.3,Win32,59.52026665,,,,,,,,5,Ontime,short,j,1,1.9195,0,0,0,2,1,,,,,
,0.39,,,,,,,,,d,orange,5e6ca4b9a2b73d25c187ae61,2021-09-27_17h58.20.365,forced_choiceRT_color,2021.2.3,Win32,59.52026665,,,,,,,,5,Fast,short,f,0,1.8343,0,1,1,0,1,,,,,
,0.53,,,,,,,,,d,orange,5e6ca4b9a2b73d25c187ae61,2021-09-27_17h58.20.365,forced_choiceRT_color,2021.2.3,Win32,59.52026665,,,,,,,,5,Fast,short,d,1,1.8704,0,2,2,0,1,,,,,
,1.23,,,,,,,,,k,purple,5e6ca4b9a2b73d25c187ae61,2021-09-27_17h58.20.365,forced_choiceRT_color,2021.2.3,Win32,59.52026665,,,,,,,,5,Fast,short,j,0,1.881,0,3,3,3,1,,,,,
,0.09,,,,,,,,,d,orange,5e6ca4b9a2b73d25c187ae61,2021-09-27_17h58.20.365,forced_choiceRT_color,2021.2.3,Win32,59.52026665,,,,,,,,5,Ontime,short,d,1,1.9332,1,0,4,0,1,,,,,
,1.58,,,,,,,,,f,blue,5e6ca4b9a2b73d25c187ae61,2021-09-27_17h58.20.365,forced_choiceRT_color,2021.2.3,Win32,59.52026665,,,,,,,,5,Slow,short,j,0,2.1995,1,1,5,1,1,,,,,
,1.67,,,,,,,,,j,red,5e6ca4b9a2b73d25c187ae61,2021-09-27_17h58.20.365,forced_choiceRT_color,2021.2.3,Win32,59.52026665,,,,,,,,5,Slow,short,j,1,2.1823,1,2,6,2,1,,,,,
,0.03,,,,,,,,,f,blue,5e6ca4b9a2b73d25c187ae61,2021-09-27_17h58.20.365,forced_choiceRT_color,2021.2.3,Win32,59.52026665,,,,,,,,5,Ontime,short,k,0,1.9379,1,3,7,1,1,,,,,
,1.01,,,,,,,,,j,red,5e6ca4b9a2b73d25c187ae61,2021-09-27_17h58.20.365,forced_choiceRT_color,2021.2.3,Win32,59.52026665,,,,,,,,5,Ontime,short,d,0,1.9724,2,0,8,2,1,,,,,
,1.39,,,,,,,,,k,purple,5e6ca4b9a2b73d25c187ae61,2021-09-27_17h58.20.365,forced_choiceRT_color,2021.2.3,Win32,59.52026665,,,,,,,,5,Fast,short,k,1,1.4038,2,1,9,3,1,,,,,
,1.85,,,,,,,,,f,blue,5e6ca4b9a2b73d25c187ae61,2021-09-27_17h58.20.365,forced_choiceRT_color,2021.2.3,Win32,59.52026665,,,,,,,,5,Ontime,short,f,1,1.9702,2,2,10,1,1,,,,,
,0.95,,,,,,,,,f,blue,5e6ca4b9a2b73d25c187ae61,2021-09-27_17h58.20.365,forced_choiceRT_color,2021.2.3,Win32,59.52026665,,,,,,,,5,Ontime,short,f,1,2.0987,2,3,11,1,1,,,,,
,1.06,,,,,,,,,j,red,5e6ca4b9a2b73d25c187ae61,2021-09-27_17h58.20.365,forced_choiceRT_color,2021.2.3,Win32,59.52026665,,,,,,,,5,Fast,short,j,1,1.8827,3,0,12,2,1,,,,,
,1.17,,,,,,,,,j,red,5e6ca4b9a2b73d25c187ae61,2021-09-27_17h58.20.365,forced_choiceRT_color,2021.2.3,Win32,59.52026665,,,,,,,,5,Fast,short,j,1,1.7004,3,1,13,2,1,,,,,
,0.17,,,,,,,,,d,orange,5e6ca4b9a2b73d25c187ae61,2021-09-27_17h58.20.365,forced_choiceRT_color,2021.2.3,Win32,59.52026665,,,,,,,,5,Ontime,short,d,1,1.9823,3,2,14,0,1,,,,,
,1.6,,,,,,,,,d,orange,5e6ca4b9a2b73d25c187ae61,2021-09-27_17h58.20.365,forced_choiceRT_color,2021.2.3,Win32,59.52026665,,,,,,,,5,Ontime,short,d,1,1.999,3,3,15,0,1,,,,,
,0.9,,,,,,,,,j,red,5e6ca4b9a2b73d25c187ae61,2021-09-27_17h58.20.365,forced_choiceRT_color,2021.2.3,Win32,59.52026665,,,,,,,,5,Fast,short,j,1,1.8492,4,0,16,2,1,,,,,
,1.48,,,,,,,,,d,orange,5e6ca4b9a2b73d25c187ae61,2021-09-27_17h58.20.365,forced_choiceRT_color,2021.2.3,Win32,59.52026665,,,,,,,,5,Ontime,short,d,1,2.0002,4,1,17,0,1,,,,,
,1.64,,,,,,,,,j,red,5e6ca4b9a2b73d25c187ae61,2021-09-27_17h58.20.365,forced_choiceRT_color,2021.2.3,Win32,59.52026665,,,,,,,,5,Slow,short,j,1,2.1345,4,2,18,2,1,,,,,
,0.8,,,,,,,,,f,blue,5e6ca4b9a2b73d25c187ae61,2021-09-27_17h58.20.365,forced_choiceRT_color,2021.2.3,Win32,59.52026665,,,,,,,,5,Ontime,short,f,1,2.0234,4,3,19,1,1,,,,,
,0.71,,,,,,,,,d,orange,5e6ca4b9a2b73d25c187ae61,2021-09-27_17h58.20.365,forced_choiceRT_color,2021.2.3,Win32,59.52026665,,,,,,,,5,Ontime,short,d,1,2.0161,5,0,20,0,1,,,,,
,1.55,,,,,,,,,k,purple,5e6ca4b9a2b73d25c187ae61,2021-09-27_17h58.20.365,forced_choiceRT_color,2021.2.3,Win32,59.52026665,,,,,,,,5,Slow,short,d,0,2.1994,5,1,21,3,1,,,,,
,0.04,,,,,,,,,k,purple,5e6ca4b9a2b73d25c187ae61,2021-09-27_17h58.20.365,forced_choiceRT_color,2021.2.3,Win32,59.52026665,,,,,,,,5,Fast,short,j,0,1.8616,5,2,22,3,1,,,,,
,0.45,,,,,,,,,k,purple,5e6ca4b9a2b73d25c187ae61,2021-09-27_17h58.20.365,forced_choiceRT_color,2021.2.3,Win32,59.52026665,,,,,,,,5,Ontime,short,k,1,1.9675,5,3,23,3,1,,,,,
,0.91,,,,,,,,,d,orange,5e6ca4b9a2b73d25c187ae61,2021-09-27_17h58.20.365,forced_choiceRT_color,2021.2.3,Win32,59.52026665,,,,,,,,5,Ontime,short,d,1,1.983,6,0,24,0,1,,,,,
,1.31,,,,,,,,,k,purple,5e6ca4b9a2b73d25c187ae61,2021-09-27_17h58.20.365,forced_choiceRT_color,2021.2.3,Win32,59.52026665,,,,,,,,5,Ontime,short,k,1,1.9574,6,1,25,3,1,,,,,
,0.72,,,,,,,,,k,purple,5e6ca4b9a2b73d25c187ae61,2021-09-27_17h58.20.365,forced_choiceRT_color,2021.2.3,Win32,59.52026665,,,,,,,,5,Ontime,short,k,1,1.9157,6,2,26,3,1,,,,,
,0.68,,,,,,,,,f,blue,5e6ca4b9a2b73d25c187ae61,2021-09-27_17h58.20.365,forced_choiceRT_color,2021.2.3,Win32,59.52026665,,,,,,,,5,Fast,short,f,1,1.8703,6,3,27,1,1,,,,,
,1.1,,,,,,,,,k,purple,5e6ca4b9a2b73d25c187ae61,2021-09-27_17h58.20.365,forced_choiceRT_color,2021.2.3,Win32,59.52026665,,,,,,,,5,Fast,short,j,0,1.7896,7,0,28,3,1,,,,,
,1.38,,,,,,,,,f,blue,5e6ca4b9a2b73d25c187ae61,2021-09-27_17h58.20.365,forced_choiceRT_color,2021.2.3,Win32,59.52026665,,,,,,,,5,Ontime,short,k,0,1.9339,7,1,29,1,1,,,,,
,0.65,,,,,,,,,j,red,5e6ca4b9a2b73d25c187ae61,2021-09-27_17h58.20.365,forced_choiceRT_color,2021.2.3,Win32,59.52026665,,,,,,,,5,Ontime,short,j,1,1.9469,7,2,30,2,1,,,,,
,1.92,,,,,,,,,f,blue,5e6ca4b9a2b73d25c187ae61,2021-09-27_17h58.20.365,forced_choiceRT_color,2021.2.3,Win32,59.52026665,,,,,,,,5,Slow,short,j,0,2.1488,7,3,31,1,1,,,,,
,0.96,,,,,,,,,f,blue,5e6ca4b9a2b73d25c187ae61,2021-09-27_17h58.20.365,forced_choiceRT_color,2021.2.3,Win32,59.52026665,,,,,,,,5,Slow,short,d,0,2.1546,8,0,32,1,1,,,,,
,1.19,,,,,,,,,d,orange,5e6ca4b9a2b73d25c187ae61,2021-09-27_17h58.20.365,forced_choiceRT_color,2021.2.3,Win32,59.52026665,,,,,,,,5,Slow,short,d,1,6.702,8,1,33,0,1,,,,,
,1.66,,,,,,,,,k,purple,5e6ca4b9a2b73d25c187ae61,2021-09-27_17h58.20.365,forced_choiceRT_color,2021.2.3,Win32,59.52026665,,,,,,,,5,Fast,short,j,0,1.6542,8,2,34,3,1,,,,,
,0.71,,,,,,,,,d,orange,5e6ca4b9a2b73d25c187ae61,2021-09-27_17h58.20.365,forced_choiceRT_color,2021.2.3,Win32,59.52026665,,,,,,,,5,Fast,short,d,1,1.8663,8,3,35,0,1,,,,,
,0.45,,,,,,,,,k,purple,5e6ca4b9a2b73d25c187ae61,2021-09-27_17h58.20.365,forced_choiceRT_color,2021.2.3,Win32,59.52026665,,,,,,,,5,Ontime,short,d,0,1.9333,9,0,36,3,1,,,,,
,1.4,,,,,,,,,f,blue,5e6ca4b9a2b73d25c187ae61,2021-09-27_17h58.20.365,forced_choiceRT_color,2021.2.3,Win32,59.52026665,,,,,,,,5,Ontime,short,d,0,1.9944,9,1,37,1,1,,,,,
,1.65,,,,,,,,,j,red,5e6ca4b9a2b73d25c187ae61,2021-09-27_17h58.20.365,forced_choiceRT_color,2021.2.3,Win32,59.52026665,,,,,,,,5,Ontime,short,k,0,2.0997,9,2,38,2,1,,,,,
,1.65,,,,,,,,,j,red,5e6ca4b9a2b73d25c187ae61,2021-09-27_17h58.20.365,forced_choiceRT_color,2021.2.3,Win32,59.52026665,,,,,,,,5,Fast,short,j,1,0.6671,9,3,39,2,1,,,,,
,,,,,,,,,,,,5e6ca4b9a2b73d25c187ae61,2021-09-27_17h58.20.365,forced_choiceRT_color,2021.2.3,Win32,59.52026665,,,,,,,,,,,,,,,,,,,4,0,4,0,1
,0.38,,,,,,,,,j,red,5e6ca4b9a2b73d25c187ae61,2021-09-27_17h58.20.365,forced_choiceRT_color,2021.2.3,Win32,59.52026665,,,,,,,,6,Slow,short,f,0,3.9813,0,0,0,2,1,,,,,
,0.3,,,,,,,,,d,orange,5e6ca4b9a2b73d25c187ae61,2021-09-27_17h58.20.365,forced_choiceRT_color,2021.2.3,Win32,59.52026665,,,,,,,,6,Fast,short,d,1,1.8974,0,1,1,0,1,,,,,
,0.07,,,,,,,,,f,blue,5e6ca4b9a2b73d25c187ae61,2021-09-27_17h58.20.365,forced_choiceRT_color,2021.2.3,Win32,59.52026665,,,,,,,,6,Ontime,short,j,0,1.9825,0,2,2,1,1,,,,,
,0.85,,,,,,,,,k,purple,5e6ca4b9a2b73d25c187ae61,2021-09-27_17h58.20.365,forced_choiceRT_color,2021.2.3,Win32,59.52026665,,,,,,,,6,Ontime,short,k,1,1.9666,0,3,3,3,1,,,,,
,1.28,,,,,,,,,j,red,5e6ca4b9a2b73d25c187ae61,2021-09-27_17h58.20.365,forced_choiceRT_color,2021.2.3,Win32,59.52026665,,,,,,,,6,Ontime,short,f,0,1.9991,1,0,4,2,1,,,,,
,0.77,,,,,,,,,k,purple,5e6ca4b9a2b73d25c187ae61,2021-09-27_17h58.20.365,forced_choiceRT_color,2021.2.3,Win32,59.52026665,,,,,,,,6,Fast,short,j,0,0.1006,1,1,5,3,1,,,,,
,1.76,,,,,,,,,f,blue,5e6ca4b9a2b73d25c187ae61,2021-09-27_17h58.20.365,forced_choiceRT_color,2021.2.3,Win32,59.52026665,,,,,,,,6,Slow,short,d,0,2.1157,1,2,6,1,1,,,,,
,0.86,,,,,,,,,j,red,5e6ca4b9a2b73d25c187ae61,2021-09-27_17h58.20.365,forced_choiceRT_color,2021.2.3,Win32,59.52026665,,,,,,,,6,Slow,short,j,1,2.1317,1,3,7,2,1,,,,,
,1.4,,,,,,,,,k,purple,5e6ca4b9a2b73d25c187ae61,2021-09-27_17h58.20.365,forced_choiceRT_color,2021.2.3,Win32,59.52026665,,,,,,,,6,Ontime,short,f,0,1.933,2,0,8,3,1,,,,,
,0.64,,,,,,,,,d,orange,5e6ca4b9a2b73d25c187ae61,2021-09-27_17h58.20.365,forced_choiceRT_color,2021.2.3,Win32,59.52026665,,,,,,,,6,Ontime,short,f,0,1.916,2,1,9,0,1,,,,,
,0.55,,,,,,,,,k,purple,5e6ca4b9a2b73d25c187ae61,2021-09-27_17h58.20.365,forced_choiceRT_color,2021.2.3,Win32,59.52026665,,,,,,,,6,Fast,short,f,0,1.883,2,2,10,3,1,,,,,
,1.2,,,,,,,,,f,blue,5e6ca4b9a2b73d25c187ae61,2021-09-27_17h58.20.365,forced_choiceRT_color,2021.2.3,Win32,59.52026665,,,,,,,,6,Fast,short,f,1,1.8826,2,3,11,1,1,,,,,
,0.79,,,,,,,,,f,blue,5e6ca4b9a2b73d25c187ae61,2021-09-27_17h58.20.365,forced_choiceRT_color,2021.2.3,Win32,59.52026665,,,,,,,,6,Ontime,short,f,1,2.0489,3,0,12,1,1,,,,,
,0.94,,,,,,,,,j,red,5e6ca4b9a2b73d25c187ae61,2021-09-27_17h58.20.365,forced_choiceRT_color,2021.2.3,Win32,59.52026665,,,,,,,,6,Ontime,short,f,0,2.0662,3,1,13,2,1,,,,,
,0.67,,,,,,,,,j,red,5e6ca4b9a2b73d25c187ae61,2021-09-27_17h58.20.365,forced_choiceRT_color,2021.2.3,Win32,59.52026665,,,,,,,,6,Ontime,short,f,0,1.9998,3,2,14,2,1,,,,,
,1.28,,,,,,,,,d,orange,5e6ca4b9a2b73d25c187ae61,2021-09-27_17h58.20.365,forced_choiceRT_color,2021.2.3,Win32,59.52026665,,,,,,,,6,Ontime,short,f,0,2.0487,3,3,15,0,1,,,,,
,1.44,,,,,,,,,f,blue,5e6ca4b9a2b73d25c187ae61,2021-09-27_17h58.20.365,forced_choiceRT_color,2021.2.3,Win32,59.52026665,,,,,,,,6,Ontime,short,d,0,1.9527,4,0,16,1,1,,,,,
,0.78,,,,,,,,,j,red,5e6ca4b9a2b73d25c187ae61,2021-09-27_17h58.20.365,forced_choiceRT_color,2021.2.3,Win32,59.52026665,,,,,,,,6,Ontime,short,j,1,2.0164,4,1,17,2,1,,,,,
,1.26,,,,,,,,,k,purple,5e6ca4b9a2b73d25c187ae61,2021-09-27_17h58.20.365,forced_choiceRT_color,2021.2.3,Win32,59.52026665,,,,,,,,6,Ontime,short,k,1,2.0418,4,2,18,3,1,,,,,
,0.48,,,,,,,,,d,orange,5e6ca4b9a2b73d25c187ae61,2021-09-27_17h58.20.365,forced_choiceRT_color,2021.2.3,Win32,59.52026665,,,,,,,,6,Ontime,short,d,1,1.9993,4,3,19,0,1,,,,,
,1.82,,,,,,,,,j,red,5e6ca4b9a2b73d25c187ae61,2021-09-27_17h58.20.365,forced_choiceRT_color,2021.2.3,Win32,59.52026665,,,,,,,,6,Slow,short,d,0,2.1222,5,0,20,2,1,,,,,
,0.85,,,,,,,,,k,purple,5e6ca4b9a2b73d25c187ae61,2021-09-27_17h58.20.365,forced_choiceRT_color,2021.2.3,Win32,59.52026665,,,,,,,,6,Ontime,short,k,1,1.9393,5,1,21,3,1,,,,,
,0.32,,,,,,,,,j,red,5e6ca4b9a2b73d25c187ae61,2021-09-27_17h58.20.365,forced_choiceRT_color,2021.2.3,Win32,59.52026665,,,,,,,,6,Ontime,short,j,1,2.0183,5,2,22,2,1,,,,,
,0.91,,,,,,,,,k,purple,5e6ca4b9a2b73d25c187ae61,2021-09-27_17h58.20.365,forced_choiceRT_color,2021.2.3,Win32,59.52026665,,,,,,,,6,Ontime,short,k,1,2.0827,5,3,23,3,1,,,,,
,1.02,,,,,,,,,d,orange,5e6ca4b9a2b73d25c187ae61,2021-09-27_17h58.20.365,forced_choiceRT_color,2021.2.3,Win32,59.52026665,,,,,,,,6,Ontime,short,d,1,1.9497,6,0,24,0,1,,,,,
,0.02,,,,,,,,,f,blue,5e6ca4b9a2b73d25c187ae61,2021-09-27_17h58.20.365,forced_choiceRT_color,2021.2.3,Win32,59.52026665,,,,,,,,6,Ontime,short,f,1,2.0419,6,1,25,1,1,,,,,
,0.49,,,,,,,,,d,orange,5e6ca4b9a2b73d25c187ae61,2021-09-27_17h58.20.365,forced_choiceRT_color,2021.2.3,Win32,59.52026665,,,,,,,,6,Ontime,short,d,1,1.9994,6,2,26,0,1,,,,,
,1.2,,,,,,,,,j,red,5e6ca4b9a2b73d25c187ae61,2021-09-27_17h58.20.365,forced_choiceRT_color,2021.2.3,Win32,59.52026665,,,,,,,,6,Ontime,short,j,1,2.021,6,3,27,2,1,,,,,
,0.56,,,,,,,,,d,orange,5e6ca4b9a2b73d25c187ae61,2021-09-27_17h58.20.365,forced_choiceRT_color,2021.2.3,Win32,59.52026665,,,,,,,,6,Ontime,short,d,1,2.0724,7,0,28,0,1,,,,,
,0.33,,,,,,,,,k,purple,5e6ca4b9a2b73d25c187ae61,2021-09-27_17h58.20.365,forced_choiceRT_color,2021.2.3,Win32,59.52026665,,,,,,,,6,Slow,short,k,1,2.1153,7,1,29,3,1,,,,,
,1.26,,,,,,,,,k,purple,5e6ca4b9a2b73d25c187ae61,2021-09-27_17h58.20.365,forced_choiceRT_color,2021.2.3,Win32,59.52026665,,,,,,,,6,Fast,short,k,1,1.7829,7,2,30,3,1,,,,,
,1.86,,,,,,,,,d,orange,5e6ca4b9a2b73d25c187ae61,2021-09-27_17h58.20.365,forced_choiceRT_color,2021.2.3,Win32,59.52026665,,,,,,,,6,Slow,short,k,0,2.2175,7,3,31,0,1,,,,,
,0.13,,,,,,,,,j,red,5e6ca4b9a2b73d25c187ae61,2021-09-27_17h58.20.365,forced_choiceRT_color,2021.2.3,Win32,59.52026665,,,,,,,,6,Ontime,short,f,0,2.0063,8,0,32,2,1,,,,,
,0.34,,,,,,,,,f,blue,5e6ca4b9a2b73d25c187ae61,2021-09-27_17h58.20.365,forced_choiceRT_color,2021.2.3,Win32,59.52026665,,,,,,,,6,Ontime,short,f,1,1.9678,8,1,33,1,1,,,,,
,0.96,,,,,,,,,k,purple,5e6ca4b9a2b73d25c187ae61,2021-09-27_17h58.20.365,forced_choiceRT_color,2021.2.3,Win32,59.52026665,,,,,,,,6,Ontime,short,d,0,1.9324,8,2,34,3,1,,,,,
,1.08,,,,,,,,,d,orange,5e6ca4b9a2b73d25c187ae61,2021-09-27_17h58.20.365,forced_choiceRT_color,2021.2.3,Win32,59.52026665,,,,,,,,6,Fast,short,d,1,1.8851,8,3,35,0,1,,,,,
,1.25,,,,,,,,,d,orange,5e6ca4b9a2b73d25c187ae61,2021-09-27_17h58.20.365,forced_choiceRT_color,2021.2.3,Win32,59.52026665,,,,,,,,6,Ontime,short,d,1,1.986,9,0,36,0,1,,,,,
,1.35,,,,,,,,,f,blue,5e6ca4b9a2b73d25c187ae61,2021-09-27_17h58.20.365,forced_choiceRT_color,2021.2.3,Win32,59.52026665,,,,,,,,6,Slow,short,j,0,2.1319,9,1,37,1,1,,,,,
,0.78,,,,,,,,,f,blue,5e6ca4b9a2b73d25c187ae61,2021-09-27_17h58.20.365,forced_choiceRT_color,2021.2.3,Win32,59.52026665,,,,,,,,6,Fast,short,f,1,1.3004,9,2,38,1,1,,,,,
,0.89,,,,,,,,,f,blue,5e6ca4b9a2b73d25c187ae61,2021-09-27_17h58.20.365,forced_choiceRT_color,2021.2.3,Win32,59.52026665,,,,,,,,6,Slow,short,f,1,2.2352,9,3,39,1,1,,,,,
,,,,,,,,,,,,5e6ca4b9a2b73d25c187ae61,2021-09-27_17h58.20.365,forced_choiceRT_color,2021.2.3,Win32,59.52026665,,,,,,,,,,,,,,,,,,,5,0,5,0,1
,1.59,,,,,,,,,f,blue,5e6ca4b9a2b73d25c187ae61,2021-09-27_17h58.20.365,forced_choiceRT_color,2021.2.3,Win32,59.52026665,,,,,,,,7,Slow,short,f,1,2.2131,0,0,0,1,1,,,,,
,1.61,,,,,,,,,j,red,5e6ca4b9a2b73d25c187ae61,2021-09-27_17h58.20.365,forced_choiceRT_color,2021.2.3,Win32,59.52026665,,,,,,,,7,Slow,short,d,0,2.1041,0,1,1,2,1,,,,,
,1.44,,,,,,,,,j,red,5e6ca4b9a2b73d25c187ae61,2021-09-27_17h58.20.365,forced_choiceRT_color,2021.2.3,Win32,59.52026665,,,,,,,,7,Ontime,short,j,1,1.9328,0,2,2,2,1,,,,,
,0.07,,,,,,,,,k,purple,5e6ca4b9a2b73d25c187ae61,2021-09-27_17h58.20.365,forced_choiceRT_color,2021.2.3,Win32,59.52026665,,,,,,,,7,Ontime,short,k,1,2.0215,0,3,3,3,1,,,,,
,0.7,,,,,,,,,k,purple,5e6ca4b9a2b73d25c187ae61,2021-09-27_17h58.20.365,forced_choiceRT_color,2021.2.3,Win32,59.52026665,,,,,,,,7,Ontime,short,k,1,1.9327,1,0,4,3,1,,,,,
,1,,,,,,,,,f,blue,5e6ca4b9a2b73d25c187ae61,2021-09-27_17h58.20.365,forced_choiceRT_color,2021.2.3,Win32,59.52026665,,,,,,,,7,Ontime,short,f,1,1.9326,1,1,5,1,1,,,,,
,0.3,,,,,,,,,j,red,5e6ca4b9a2b73d25c187ae61,2021-09-27_17h58.20.365,forced_choiceRT_color,2021.2.3,Win32,59.52026665,,,,,,,,7,Fast,short,j,1,1.8162,1,2,6,2,1,,,,,
,0.59,,,,,,,,,k,purple,5e6ca4b9a2b73d25c187ae61,2021-09-27_17h58.20.365,forced_choiceRT_color,2021.2.3,Win32,59.52026665,,,,,,,,7,Ontime,short,k,1,1.916,1,3,7,3,1,,,,,
,0.71,,,,,,,,,f,blue,5e6ca4b9a2b73d25c187ae61,2021-09-27_17h58.20.365,forced_choiceRT_color,2021.2.3,Win32,59.52026665,,,,,,,,7,Ontime,short,f,1,1.9831,2,0,8,1,1,,,,,
,1.86,,,,,,,,,d,orange,5e6ca4b9a2b73d25c187ae61,2021-09-27_17h58.20.365,forced_choiceRT_color,2021.2.3,Win32,59.52026665,,,,,,,,7,Slow,short,d,1,2.3018,2,1,9,0,1,,,,,
,0.84,,,,,,,,,d,orange,5e6ca4b9a2b73d25c187ae61,2021-09-27_17h58.20.365,forced_choiceRT_color,2021.2.3,Win32,59.52026665,,,,,,,,7,Ontime,short,d,1,2.0073,2,2,10,0,1,,,,,
,0.57,,,,,,,,,f,blue,5e6ca4b9a2b73d25c187ae61,2021-09-27_17h58.20.365,forced_choiceRT_color,2021.2.3,Win32,59.52026665,,,,,,,,7,Ontime,short,f,1,2.0492,2,3,11,1,1,,,,,
,1.73,,,,,,,,,j,red,5e6ca4b9a2b73d25c187ae61,2021-09-27_17h58.20.365,forced_choiceRT_color,2021.2.3,Win32,59.52026665,,,,,,,,7,Slow,short,d,0,2.2511,3,0,12,2,1,,,,,
,0.09,,,,,,,,,f,blue,5e6ca4b9a2b73d25c187ae61,2021-09-27_17h58.20.365,forced_choiceRT_color,2021.2.3,Win32,59.52026665,,,,,,,,7,Ontime,short,f,1,1.9165,3,1,13,1,1,,,,,
,1.77,,,,,,,,,f,blue,5e6ca4b9a2b73d25c187ae61,2021-09-27_17h58.20.365,forced_choiceRT_color,2021.2.3,Win32,59.52026665,,,,,,,,7,Slow,short,f,1,2.232,3,2,14,1,1,,,,,
,1.83,,,,,,,,,f,blue,5e6ca4b9a2b73d25c187ae61,2021-09-27_17h58.20.365,forced_choiceRT_color,2021.2.3,Win32,59.52026665,,,,,,,,7,Ontime,short,f,1,2.0827,3,3,15,1,1,,,,,
,1.86,,,,,,,,,d,orange,5e6ca4b9a2b73d25c187ae61,2021-09-27_17h58.20.365,forced_choiceRT_color,2021.2.3,Win32,59.52026665,,,,,,,,7,Ontime,short,f,0,2.0658,4,0,16,0,1,,,,,
,0.87,,,,,,,,,j,red,5e6ca4b9a2b73d25c187ae61,2021-09-27_17h58.20.365,forced_choiceRT_color,2021.2.3,Win32,59.52026665,,,,,,,,7,Ontime,short,j,1,1.947,4,1,17,2,1,,,,,
,1.36,,,,,,,,,d,orange,5e6ca4b9a2b73d25c187ae61,2021-09-27_17h58.20.365,forced_choiceRT_color,2021.2.3,Win32,59.52026665,,,,,,,,7,Ontime,short,d,1,1.9658,4,2,18,0,1,,,,,
,1.43,,,,,,,,,k,purple,5e6ca4b9a2b73d25c187ae61,2021-09-27_17h58.20.365,forced_choiceRT_color,2021.2.3,Win32,59.52026665,,,,,,,,7,Ontime,short,k,1,1.9992,4,3,19,3,1,,,,,
,0.48,,,,,,,,,j,red,5e6ca4b9a2b73d25c187ae61,2021-09-27_17h58.20.365,forced_choiceRT_color,2021.2.3,Win32,59.52026665,,,,,,,,7,Ontime,short,j,1,1.9824,5,0,20,2,1,,,,,
,1.19,,,,,,,,,d,orange,5e6ca4b9a2b73d25c187ae61,2021-09-27_17h58.20.365,forced_choiceRT_color,2021.2.3,Win32,59.52026665,,,,,,,,7,Ontime,short,d,1,2.0157,5,1,21,0,1,,,,,
,1.8,,,,,,,,,j,red,5e6ca4b9a2b73d25c187ae61,2021-09-27_17h58.20.365,forced_choiceRT_color,2021.2.3,Win32,59.52026665,,,,,,,,7,Slow,short,d,0,2.1657,5,2,22,2,1,,,,,
,0.37,,,,,,,,,d,orange,5e6ca4b9a2b73d25c187ae61,2021-09-27_17h58.20.365,forced_choiceRT_color,2021.2.3,Win32,59.52026665,,,,,,,,7,Ontime,short,d,1,1.9151,5,3,23,0,1,,,,,
,0.07,,,,,,,,,d,orange,5e6ca4b9a2b73d25c187ae61,2021-09-27_17h58.20.365,forced_choiceRT_color,2021.2.3,Win32,59.52026665,,,,,,,,7,Ontime,short,d,1,1.9324,6,0,24,0,1,,,,,
,0.99,,,,,,,,,j,red,5e6ca4b9a2b73d25c187ae61,2021-09-27_17h58.20.365,forced_choiceRT_color,2021.2.3,Win32,59.52026665,,,,,,,,7,Fast,short,j,1,1.8676,6,1,25,2,1,,,,,
,0.3,,,,,,,,,k,purple,5e6ca4b9a2b73d25c187ae61,2021-09-27_17h58.20.365,forced_choiceRT_color,2021.2.3,Win32,59.52026665,,,,,,,,7,Ontime,short,k,1,1.9332,6,2,26,3,1,,,,,
,1.85,,,,,,,,,d,orange,5e6ca4b9a2b73d25c187ae61,2021-09-27_17h58.20.365,forced_choiceRT_color,2021.2.3,Win32,59.52026665,,,,,,,,7,Slow,short,k,0,2.2823,6,3,27,0,1,,,,,
,1.35,,,,,,,,,d,orange,5e6ca4b9a2b73d25c187ae61,2021-09-27_17h58.20.365,forced_choiceRT_color,2021.2.3,Win32,59.52026665,,,,,,,,7,Fast,short,d,1,1.8667,7,0,28,0,1,,,,,
,0.74,,,,,,,,,d,orange,5e6ca4b9a2b73d25c187ae61,2021-09-27_17h58.20.365,forced_choiceRT_color,2021.2.3,Win32,59.52026665,,,,,,,,7,Ontime,short,d,1,1.9325,7,1,29,0,1,,,,,
,0.74,,,,,,,,,k,purple,5e6ca4b9a2b73d25c187ae61,2021-09-27_17h58.20.365,forced_choiceRT_color,2021.2.3,Win32,59.52026665,,,,,,,,7,Ontime,short,k,1,2.0491,7,2,30,3,1,,,,,
,0.4,,,,,,,,,j,red,5e6ca4b9a2b73d25c187ae61,2021-09-27_17h58.20.365,forced_choiceRT_color,2021.2.3,Win32,59.52026665,,,,,,,,7,Ontime,short,j,1,1.9187,7,3,31,2,1,,,,,
,0,,,,,,,,,k,purple,5e6ca4b9a2b73d25c187ae61,2021-09-27_17h58.20.365,forced_choiceRT_color,2021.2.3,Win32,59.52026665,,,,,,,,7,Fast,short,k,1,1.8506,8,0,32,3,1,,,,,
,0.24,,,,,,,,,k,purple,5e6ca4b9a2b73d25c187ae61,2021-09-27_17h58.20.365,forced_choiceRT_color,2021.2.3,Win32,59.52026665,,,,,,,,7,Ontime,short,k,1,1.99,8,1,33,3,1,,,,,
,0.49,,,,,,,,,f,blue,5e6ca4b9a2b73d25c187ae61,2021-09-27_17h58.20.365,forced_choiceRT_color,2021.2.3,Win32,59.52026665,,,,,,,,7,Ontime,short,f,1,1.9879,8,2,34,1,1,,,,,
,1.07,,,,,,,,,j,red,5e6ca4b9a2b73d25c187ae61,2021-09-27_17h58.20.365,forced_choiceRT_color,2021.2.3,Win32,59.52026665,,,,,,,,7,Fast,short,j,1,1.8821,8,3,35,2,1,,,,,
,0.82,,,,,,,,,f,blue,5e6ca4b9a2b73d25c187ae61,2021-09-27_17h58.20.365,forced_choiceRT_color,2021.2.3,Win32,59.52026665,,,,,,,,7,Ontime,short,f,1,1.9497,9,0,36,1,1,,,,,
,1.6,,,,,,,,,f,blue,5e6ca4b9a2b73d25c187ae61,2021-09-27_17h58.20.365,forced_choiceRT_color,2021.2.3,Win32,59.52026665,,,,,,,,7,Slow,short,f,1,2.2987,9,1,37,1,1,,,,,
,0.87,,,,,,,,,k,purple,5e6ca4b9a2b73d25c187ae61,2021-09-27_17h58.20.365,forced_choiceRT_color,2021.2.3,Win32,59.52026665,,,,,,,,7,Fast,short,k,1,1.8987,9,2,38,3,1,,,,,
,1.63,,,,,,,,,k,purple,5e6ca4b9a2b73d25c187ae61,2021-09-27_17h58.20.365,forced_choiceRT_color,2021.2.3,Win32,59.52026665,,,,,,,,7,Slow,short,k,1,2.2058,9,3,39,3,1,,,,,
,,,,,,,,,,,,5e6ca4b9a2b73d25c187ae61,2021-09-27_17h58.20.365,forced_choiceRT_color,2021.2.3,Win32,59.52026665,,,,,,,,,,,,,,,,,,,6,0,6,0,1
,0.46,,,,,,,,,k,purple,5e6ca4b9a2b73d25c187ae61,2021-09-27_17h58.20.365,forced_choiceRT_color,2021.2.3,Win32,59.52026665,,,,,,,,8,Fast,short,k,1,1.814,0,0,0,3,1,,,,,
,1.98,,,,,,,,,k,purple,5e6ca4b9a2b73d25c187ae61,2021-09-27_17h58.20.365,forced_choiceRT_color,2021.2.3,Win32,59.52026665,,,,,,,,8,Ontime,short,d,0,2.0885,0,1,1,3,1,,,,,
,1.73,,,,,,,,,d,orange,5e6ca4b9a2b73d25c187ae61,2021-09-27_17h58.20.365,forced_choiceRT_color,2021.2.3,Win32,59.52026665,,,,,,,,8,Slow,short,d,1,2.2033,0,2,2,0,1,,,,,
,0.96,,,,,,,,,j,red,5e6ca4b9a2b73d25c187ae61,2021-09-27_17h58.20.365,forced_choiceRT_color,2021.2.3,Win32,59.52026665,,,,,,,,8,Fast,short,j,1,1.8706,0,3,3,2,1,,,,,
,1.63,,,,,,,,,d,orange,5e6ca4b9a2b73d25c187ae61,2021-09-27_17h58.20.365,forced_choiceRT_color,2021.2.3,Win32,59.52026665,,,,,,,,8,Ontime,short,j,0,1.933,1,0,4,0,1,,,,,
,0.06,,,,,,,,,k,purple,5e6ca4b9a2b73d25c187ae61,2021-09-27_17h58.20.365,forced_choiceRT_color,2021.2.3,Win32,59.52026665,,,,,,,,8,Fast,short,j,0,0.2508,1,1,5,3,1,,,,,
,0.61,,,,,,,,,f,blue,5e6ca4b9a2b73d25c187ae61,2021-09-27_17h58.20.365,forced_choiceRT_color,2021.2.3,Win32,59.52026665,,,,,,,,8,Fast,short,j,0,0.3169,1,2,6,1,1,,,,,
,0.6,,,,,,,,,k,purple,5e6ca4b9a2b73d25c187ae61,2021-09-27_17h58.20.365,forced_choiceRT_color,2021.2.3,Win32,59.52026665,,,,,,,,8,Fast,short,j,0,0.2678,1,3,7,3,1,,,,,
,0.55,,,,,,,,,k,purple,5e6ca4b9a2b73d25c187ae61,2021-09-27_17h58.20.365,forced_choiceRT_color,2021.2.3,Win32,59.52026665,,,,,,,,8,Fast,short,d,0,0.4844,2,0,8,3,1,,,,,
,0.05,,,,,,,,,k,purple,5e6ca4b9a2b73d25c187ae61,2021-09-27_17h58.20.365,forced_choiceRT_color,2021.2.3,Win32,59.52026665,,,,,,,,8,Fast,short,j,0,0.2014,2,1,9,3,1,,,,,
,1.77,,,,,,,,,d,orange,5e6ca4b9a2b73d25c187ae61,2021-09-27_17h58.20.365,forced_choiceRT_color,2021.2.3,Win32,59.52026665,,,,,,,,8,Fast,short,f,0,0.2716,2,2,10,0,1,,,,,
,1.6,,,,,,,,,j,red,5e6ca4b9a2b73d25c187ae61,2021-09-27_17h58.20.365,forced_choiceRT_color,2021.2.3,Win32,59.52026665,,,,,,,,8,Fast,short,f,0,0.5398,2,3,11,2,1,,,,,
,0.68,,,,,,,,,j,red,5e6ca4b9a2b73d25c187ae61,2021-09-27_17h58.20.365,forced_choiceRT_color,2021.2.3,Win32,59.52026665,,,,,,,,8,Fast,short,j,1,0.2913,3,0,12,2,1,,,,,
,1.41,,,,,,,,,d,orange,5e6ca4b9a2b73d25c187ae61,2021-09-27_17h58.20.365,forced_choiceRT_color,2021.2.3,Win32,59.52026665,,,,,,,,8,Fast,short,j,0,0.8524,3,1,13,0,1,,,,,
,0.06,,,,,,,,,d,orange,5e6ca4b9a2b73d25c187ae61,2021-09-27_17h58.20.365,forced_choiceRT_color,2021.2.3,Win32,59.52026665,,,,,,,,8,Fast,short,d,1,0.4003,3,2,14,0,1,,,,,
,0.05,,,,,,,,,j,red,5e6ca4b9a2b73d25c187ae61,2021-09-27_17h58.20.365,forced_choiceRT_color,2021.2.3,Win32,59.52026665,,,,,,,,8,Fast,short,d,0,0.3839,3,3,15,2,1,,,,,
,0.58,,,,,,,,,j,red,5e6ca4b9a2b73d25c187ae61,2021-09-27_17h58.20.365,forced_choiceRT_color,2021.2.3,Win32,59.52026665,,,,,,,,8,Fast,short,j,1,0.2355,4,0,16,2,1,,,,,
,0.22,,,,,,,,,k,purple,5e6ca4b9a2b73d25c187ae61,2021-09-27_17h58.20.365,forced_choiceRT_color,2021.2.3,Win32,59.52026665,,,,,,,,8,Fast,short,d,0,0.2521,4,1,17,3,1,,,,,
,1.29,,,,,,,,,j,red,5e6ca4b9a2b73d25c187ae61,2021-09-27_17h58.20.365,forced_choiceRT_color,2021.2.3,Win32,59.52026665,,,,,,,,8,Fast,short,k,0,0.1437,4,2,18,2,1,,,,,
,1.4,,,,,,,,,k,purple,5e6ca4b9a2b73d25c187ae61,2021-09-27_17h58.20.365,forced_choiceRT_color,2021.2.3,Win32,59.52026665,,,,,,,,8,Fast,short,j,0,0.7228,4,3,19,3,1,,,,,
,1.15,,,,,,,,,d,orange,5e6ca4b9a2b73d25c187ae61,2021-09-27_17h58.20.365,forced_choiceRT_color,2021.2.3,Win32,59.52026665,,,,,,,,8,Fast,short,d,1,0.3583,5,0,20,0,1,,,,,
,0.68,,,,,,,,,f,blue,5e6ca4b9a2b73d25c187ae61,2021-09-27_17h58.20.365,forced_choiceRT_color,2021.2.3,Win32,59.52026665,,,,,,,,8,Fast,short,f,1,0.2852,5,1,21,1,1,,,,,
,0.81,,,,,,,,,k,purple,5e6ca4b9a2b73d25c187ae61,2021-09-27_17h58.20.365,forced_choiceRT_color,2021.2.3,Win32,59.52026665,,,,,,,,8,Fast,short,k,1,0.4014,5,2,22,3,1,,,,,
,1.77,,,,,,,,,j,red,5e6ca4b9a2b73d25c187ae61,2021-09-27_17h58.20.365,forced_choiceRT_color,2021.2.3,Win32,59.52026665,,,,,,,,8,Fast,short,j,1,0.5432,5,3,23,2,1,,,,,
,1.99,,,,,,,,,f,blue,5e6ca4b9a2b73d25c187ae61,2021-09-27_17h58.20.365,forced_choiceRT_color,2021.2.3,Win32,59.52026665,,,,,,,,8,Fast,short,d,0,0.3772,6,0,24,1,1,,,,,
,0.67,,,,,,,,,k,purple,5e6ca4b9a2b73d25c187ae61,2021-09-27_17h58.20.365,forced_choiceRT_color,2021.2.3,Win32,59.52026665,,,,,,,,8,Fast,short,f,0,0.2406,6,1,25,3,1,,,,,
,0.85,,,,,,,,,d,orange,5e6ca4b9a2b73d25c187ae61,2021-09-27_17h58.20.365,forced_choiceRT_color,2021.2.3,Win32,59.52026665,,,,,,,,8,Fast,short,k,0,0.337,6,2,26,0,1,,,,,
,1.46,,,,,,,,,d,orange,5e6ca4b9a2b73d25c187ae61,2021-09-27_17h58.20.365,forced_choiceRT_color,2021.2.3,Win32,59.52026665,,,,,,,,8,Fast,short,d,1,0.9566,6,3,27,0,1,,,,,
,1.27,,,,,,,,,j,red,5e6ca4b9a2b73d25c187ae61,2021-09-27_17h58.20.365,forced_choiceRT_color,2021.2.3,Win32,59.52026665,,,,,,,,8,Fast,short,k,0,0.3338,7,0,28,2,1,,,,,
,1.75,,,,,,,,,f,blue,5e6ca4b9a2b73d25c187ae61,2021-09-27_17h58.20.365,forced_choiceRT_color,2021.2.3,Win32,59.52026665,,,,,,,,8,Fast,short,j,0,0.4343,7,1,29,1,1,,,,,
,0.35,,,,,,,,,d,orange,5e6ca4b9a2b73d25c187ae61,2021-09-27_17h58.20.365,forced_choiceRT_color,2021.2.3,Win32,59.52026665,,,,,,,,8,Fast,short,d,1,0.5041,7,2,30,0,1,,,,,
,1.71,,,,,,,,,j,red,5e6ca4b9a2b73d25c187ae61,2021-09-27_17h58.20.365,forced_choiceRT_color,2021.2.3,Win32,59.52026665,,,,,,,,8,Fast,short,d,0,0.3509,7,3,31,2,1,,,,,
,1.86,,,,,,,,,f,blue,5e6ca4b9a2b73d25c187ae61,2021-09-27_17h58.20.365,forced_choiceRT_color,2021.2.3,Win32,59.52026665,,,,,,,,8,Ontime,short,d,0,2.0162,8,0,32,1,1,,,,,
,1.94,,,,,,,,,f,blue,5e6ca4b9a2b73d25c187ae61,2021-09-27_17h58.20.365,forced_choiceRT_color,2021.2.3,Win32,59.52026665,,,,,,,,8,Fast,short,d,0,0.9838,8,1,33,1,1,,,,,
,1.2,,,,,,,,,j,red,5e6ca4b9a2b73d25c187ae61,2021-09-27_17h58.20.365,forced_choiceRT_color,2021.2.3,Win32,59.52026665,,,,,,,,8,Fast,short,d,0,0.4056,8,2,34,2,1,,,,,
,0.93,,,,,,,,,f,blue,5e6ca4b9a2b73d25c187ae61,2021-09-27_17h58.20.365,forced_choiceRT_color,2021.2.3,Win32,59.52026665,,,,,,,,8,Fast,short,f,1,1.2037,8,3,35,1,1,,,,,
,0.69,,,,,,,,,f,blue,5e6ca4b9a2b73d25c187ae61,2021-09-27_17h58.20.365,forced_choiceRT_color,2021.2.3,Win32,59.52026665,,,,,,,,8,Fast,short,j,0,0.917,9,0,36,1,1,,,,,
,0.92,,,,,,,,,f,blue,5e6ca4b9a2b73d25c187ae61,2021-09-27_17h58.20.365,forced_choiceRT_color,2021.2.3,Win32,59.52026665,,,,,,,,8,Fast,short,k,0,0.7909,9,1,37,1,1,,,,,
,1.77,,,,,,,,,d,orange,5e6ca4b9a2b73d25c187ae61,2021-09-27_17h58.20.365,forced_choiceRT_color,2021.2.3,Win32,59.52026665,,,,,,,,8,Fast,short,j,0,0.7902,9,2,38,0,1,,,,,
,1.9,,,,,,,,,f,blue,5e6ca4b9a2b73d25c187ae61,2021-09-27_17h58.20.365,forced_choiceRT_color,2021.2.3,Win32,59.52026665,,,,,,,,8,Fast,short,k,0,0.7589,9,3,39,1,1,,,,,
,,,,,,,,,,,,5e6ca4b9a2b73d25c187ae61,2021-09-27_17h58.20.365,forced_choiceRT_color,2021.2.3,Win32,59.52026665,,,,,,,,,,,,,,,,,,,7,0,7,0,1
,1.1,,,,,,,,,k,purple,5e6ca4b9a2b73d25c187ae61,2021-09-27_17h58.20.365,forced_choiceRT_color,2021.2.3,Win32,59.52026665,,,,,,,,9,Slow,short,f,0,7.0543,0,0,0,3,1,,,,,
,0.28,,,,,,,,,d,orange,5e6ca4b9a2b73d25c187ae61,2021-09-27_17h58.20.365,forced_choiceRT_color,2021.2.3,Win32,59.52026665,,,,,,,,9,Ontime,short,d,1,1.9146,0,1,1,0,1,,,,,
,0.03,,,,,,,,,k,purple,5e6ca4b9a2b73d25c187ae61,2021-09-27_17h58.20.365,forced_choiceRT_color,2021.2.3,Win32,59.52026665,,,,,,,,9,Fast,short,k,1,1.8994,0,2,2,3,1,,,,,
,1.39,,,,,,,,,k,purple,5e6ca4b9a2b73d25c187ae61,2021-09-27_17h58.20.365,forced_choiceRT_color,2021.2.3,Win32,59.52026665,,,,,,,,9,Fast,short,d,0,1.8817,0,3,3,3,1,,,,,
,0.78,,,,,,,,,j,red,5e6ca4b9a2b73d25c187ae61,2021-09-27_17h58.20.365,forced_choiceRT_color,2021.2.3,Win32,59.52026665,,,,,,,,9,Ontime,short,k,0,1.9162,1,0,4,2,1,,,,,
,0.79,,,,,,,,,j,red,5e6ca4b9a2b73d25c187ae61,2021-09-27_17h58.20.365,forced_choiceRT_color,2021.2.3,Win32,59.52026665,,,,,,,,9,Ontime,short,d,0,1.9167,1,1,5,2,1,,,,,
,0.06,,,,,,,,,j,red,5e6ca4b9a2b73d25c187ae61,2021-09-27_17h58.20.365,forced_choiceRT_color,2021.2.3,Win32,59.52026665,,,,,,,,9,Ontime,short,d,0,1.9328,1,2,6,2,1,,,,,
,1.84,,,,,,,,,j,red,5e6ca4b9a2b73d25c187ae61,2021-09-27_17h58.20.365,forced_choiceRT_color,2021.2.3,Win32,59.52026665,,,,,,,,9,Fast,short,d,0,1.8669,1,3,7,2,1,,,,,
,1.63,,,,,,,,,f,blue,5e6ca4b9a2b73d25c187ae61,2021-09-27_17h58.20.365,forced_choiceRT_color,2021.2.3,Win32,59.52026665,,,,,,,,9,Fast,short,j,0,0.936,2,0,8,1,1,,,,,
,1.21,,,,,,,,,k,purple,5e6ca4b9a2b73d25c187ae61,2021-09-27_17h58.20.365,forced_choiceRT_color,2021.2.3,Win32,59.52026665,,,,,,,,9,Fast,short,k,1,1.8537,2,1,9,3,1,,,,,
,1.93,,,,,,,,,j,red,5e6ca4b9a2b73d25c187ae61,2021-09-27_17h58.20.365,forced_choiceRT_color,2021.2.3,Win32,59.52026665,,,,,,,,9,Ontime,short,k,0,1.9548,2,2,10,2,1,,,,,
,0.85,,,,,,,,,k,purple,5e6ca4b9a2b73d25c187ae61,2021-09-27_17h58.20.365,forced_choiceRT_color,2021.2.3,Win32,59.52026665,,,,,,,,9,Ontime,short,k,1,1.9823,2,3,11,3,1,,,,,
,0.23,,,,,,,,,f,blue,5e6ca4b9a2b73d25c187ae61,2021-09-27_17h58.20.365,forced_choiceRT_color,2021.2.3,Win32,59.52026665,,,,,,,,9,Ontime,short,f,1,2.0207,3,0,12,1,1,,,,,
,0.59,,,,,,,,,j,red,5e6ca4b9a2b73d25c187ae61,2021-09-27_17h58.20.365,forced_choiceRT_color,2021.2.3,Win32,59.52026665,,,,,,,,9,Ontime,short,j,1,2.0324,3,1,13,2,1,,,,,
,0.2,,,,,,,,,j,red,5e6ca4b9a2b73d25c187ae61,2021-09-27_17h58.20.365,forced_choiceRT_color,2021.2.3,Win32,59.52026665,,,,,,,,9,Ontime,short,j,1,1.9492,3,2,14,2,1,,,,,
,0.59,,,,,,,,,d,orange,5e6ca4b9a2b73d25c187ae61,2021-09-27_17h58.20.365,forced_choiceRT_color,2021.2.3,Win32,59.52026665,,,,,,,,9,Ontime,short,d,1,1.9193,3,3,15,0,1,,,,,
,0.64,,,,,,,,,f,blue,5e6ca4b9a2b73d25c187ae61,2021-09-27_17h58.20.365,forced_choiceRT_color,2021.2.3,Win32,59.52026665,,,,,,,,9,Ontime,short,j,0,2.0491,4,0,16,1,1,,,,,
,0.6,,,,,,,,,f,blue,5e6ca4b9a2b73d25c187ae61,2021-09-27_17h58.20.365,forced_choiceRT_color,2021.2.3,Win32,59.52026665,,,,,,,,9,Ontime,short,f,1,1.9209,4,1,17,1,1,,,,,
,0.13,,,,,,,,,d,orange,5e6ca4b9a2b73d25c187ae61,2021-09-27_17h58.20.365,forced_choiceRT_color,2021.2.3,Win32,59.52026665,,,,,,,,9,Ontime,short,d,1,1.9825,4,2,18,0,1,,,,,
,0.63,,,,,,,,,d,orange,5e6ca4b9a2b73d25c187ae61,2021-09-27_17h58.20.365,forced_choiceRT_color,2021.2.3,Win32,59.52026665,,,,,,,,9,Fast,short,d,1,1.8654,4,3,19,0,1,,,,,
,0.63,,,,,,,,,f,blue,5e6ca4b9a2b73d25c187ae61,2021-09-27_17h58.20.365,forced_choiceRT_color,2021.2.3,Win32,59.52026665,,,,,,,,9,Ontime,short,f,1,1.9694,5,0,20,1,1,,,,,
,0.24,,,,,,,,,f,blue,5e6ca4b9a2b73d25c187ae61,2021-09-27_17h58.20.365,forced_choiceRT_color,2021.2.3,Win32,59.52026665,,,,,,,,9,Fast,short,f,1,1.7197,5,1,21,1,1,,,,,
,1.89,,,,,,,,,d,orange,5e6ca4b9a2b73d25c187ae61,2021-09-27_17h58.20.365,forced_choiceRT_color,2021.2.3,Win32,59.52026665,,,,,,,,9,Slow,short,d,1,2.1847,5,2,22,0,1,,,,,
,0.54,,,,,,,,,k,purple,5e6ca4b9a2b73d25c187ae61,2021-09-27_17h58.20.365,forced_choiceRT_color,2021.2.3,Win32,59.52026665,,,,,,,,9,Ontime,short,d,0,1.9193,5,3,23,3,1,,,,,
,0.2,,,,,,,,,f,blue,5e6ca4b9a2b73d25c187ae61,2021-09-27_17h58.20.365,forced_choiceRT_color,2021.2.3,Win32,59.52026665,,,,,,,,9,Fast,short,f,1,1.8353,6,0,24,1,1,,,,,
,0.15,,,,,,,,,f,blue,5e6ca4b9a2b73d25c187ae61,2021-09-27_17h58.20.365,forced_choiceRT_color,2021.2.3,Win32,59.52026665,,,,,,,,9,Fast,short,f,1,1.8745,6,1,25,1,1,,,,,
,1.8,,,,,,,,,f,blue,5e6ca4b9a2b73d25c187ae61,2021-09-27_17h58.20.365,forced_choiceRT_color,2021.2.3,Win32,59.52026665,,,,,,,,9,Slow,short,f,1,2.2159,6,2,26,1,1,,,,,
,0.46,,,,,,,,,j,red,5e6ca4b9a2b73d25c187ae61,2021-09-27_17h58.20.365,forced_choiceRT_color,2021.2.3,Win32,59.52026665,,,,,,,,9,Ontime,short,j,1,1.983,6,3,27,2,1,,,,,
,1,,,,,,,,,k,purple,5e6ca4b9a2b73d25c187ae61,2021-09-27_17h58.20.365,forced_choiceRT_color,2021.2.3,Win32,59.52026665,,,,,,,,9,Ontime,short,k,1,1.9816,7,0,28,3,1,,,,,
,0.34,,,,,,,,,d,orange,5e6ca4b9a2b73d25c187ae61,2021-09-27_17h58.20.365,forced_choiceRT_color,2021.2.3,Win32,59.52026665,,,,,,,,9,Ontime,short,d,1,1.9835,7,1,29,0,1,,,,,
,1.09,,,,,,,,,k,purple,5e6ca4b9a2b73d25c187ae61,2021-09-27_17h58.20.365,forced_choiceRT_color,2021.2.3,Win32,59.52026665,,,,,,,,9,Fast,short,j,0,1.7995,7,2,30,3,1,,,,,
,0.29,,,,,,,,,k,purple,5e6ca4b9a2b73d25c187ae61,2021-09-27_17h58.20.365,forced_choiceRT_color,2021.2.3,Win32,59.52026665,,,,,,,,9,Fast,short,k,1,1.8589,7,3,31,3,1,,,,,
,1.12,,,,,,,,,j,red,5e6ca4b9a2b73d25c187ae61,2021-09-27_17h58.20.365,forced_choiceRT_color,2021.2.3,Win32,59.52026665,,,,,,,,9,Ontime,short,f,0,2.0572,8,0,32,2,1,,,,,
,1.2,,,,,,,,,d,orange,5e6ca4b9a2b73d25c187ae61,2021-09-27_17h58.20.365,forced_choiceRT_color,2021.2.3,Win32,59.52026665,,,,,,,,9,Ontime,short,d,1,2.0159,8,1,33,0,1,,,,,
,0.23,,,,,,,,,k,purple,5e6ca4b9a2b73d25c187ae61,2021-09-27_17h58.20.365,forced_choiceRT_color,2021.2.3,Win32,59.52026665,,,,,,,,9,Fast,short,f,0,1.8991,8,2,34,3,1,,,,,
,0.86,,,,,,,,,d,orange,5e6ca4b9a2b73d25c187ae61,2021-09-27_17h58.20.365,forced_choiceRT_color,2021.2.3,Win32,59.52026665,,,,,,,,9,Fast,short,d,1,1.8665,8,3,35,0,1,,,,,
,1.26,,,,,,,,,f,blue,5e6ca4b9a2b73d25c187ae61,2021-09-27_17h58.20.365,forced_choiceRT_color,2021.2.3,Win32,59.52026665,,,,,,,,9,Slow,short,f,1,2.2041,9,0,36,1,1,,,,,
,0.85,,,,,,,,,d,orange,5e6ca4b9a2b73d25c187ae61,2021-09-27_17h58.20.365,forced_choiceRT_color,2021.2.3,Win32,59.52026665,,,,,,,,9,Ontime,short,d,1,1.9013,9,1,37,0,1,,,,,
,1.51,,,,,,,,,d,orange,5e6ca4b9a2b73d25c187ae61,2021-09-27_17h58.20.365,forced_choiceRT_color,2021.2.3,Win32,59.52026665,,,,,,,,9,Ontime,short,d,1,2.0838,9,2,38,0,1,,,,,
,1.21,,,,,,,,,j,red,5e6ca4b9a2b73d25c187ae61,2021-09-27_17h58.20.365,forced_choiceRT_color,2021.2.3,Win32,59.52026665,,,,,,,,9,Slow,short,j,1,2.3165,9,3,39,2,1,,,,,
,,,,,,,,,,,,5e6ca4b9a2b73d25c187ae61,2021-09-27_17h58.20.365,forced_choiceRT_color,2021.2.3,Win32,59.52026665,,,,,,,,,,,,,,,,,,,8,0,8,0,1
,0.33,,,,,,,,,f,blue,5e6ca4b9a2b73d25c187ae61,2021-09-27_17h58.20.365,forced_choiceRT_color,2021.2.3,Win32,59.52026665,,,,,,,,10,Ontime,short,f,1,1.9606,0,0,0,1,1,,,,,
,0.23,,,,,,,,,d,orange,5e6ca4b9a2b73d25c187ae61,2021-09-27_17h58.20.365,forced_choiceRT_color,2021.2.3,Win32,59.52026665,,,,,,,,10,Fast,short,d,1,1.8687,0,1,1,0,1,,,,,
,1.15,,,,,,,,,j,red,5e6ca4b9a2b73d25c187ae61,2021-09-27_17h58.20.365,forced_choiceRT_color,2021.2.3,Win32,59.52026665,,,,,,,,10,Fast,short,j,1,1.8164,0,2,2,2,1,,,,,
,0.06,,,,,,,,,f,blue,5e6ca4b9a2b73d25c187ae61,2021-09-27_17h58.20.365,forced_choiceRT_color,2021.2.3,Win32,59.52026665,,,,,,,,10,Fast,short,f,1,1.8649,0,3,3,1,1,,,,,
,0.87,,,,,,,,,d,orange,5e6ca4b9a2b73d25c187ae61,2021-09-27_17h58.20.365,forced_choiceRT_color,2021.2.3,Win32,59.52026665,,,,,,,,10,Ontime,short,d,1,1.9871,1,0,4,0,1,,,,,
,1.73,,,,,,,,,d,orange,5e6ca4b9a2b73d25c187ae61,2021-09-27_17h58.20.365,forced_choiceRT_color,2021.2.3,Win32,59.52026665,,,,,,,,10,Ontime,short,d,1,2.0716,1,1,5,0,1,,,,,
,1.65,,,,,,,,,j,red,5e6ca4b9a2b73d25c187ae61,2021-09-27_17h58.20.365,forced_choiceRT_color,2021.2.3,Win32,59.52026665,,,,,,,,10,Ontime,short,f,0,2.0879,1,2,6,2,1,,,,,
,1.22,,,,,,,,,k,purple,5e6ca4b9a2b73d25c187ae61,2021-09-27_17h58.20.365,forced_choiceRT_color,2021.2.3,Win32,59.52026665,,,,,,,,10,Fast,short,k,1,1.8825,1,3,7,3,1,,,,,
,0.47,,,,,,,,,d,orange,5e6ca4b9a2b73d25c187ae61,2021-09-27_17h58.20.365,forced_choiceRT_color,2021.2.3,Win32,59.52026665,,,,,,,,10,Ontime,short,d,1,1.9482,2,0,8,0,1,,,,,
,1.64,,,,,,,,,d,orange,5e6ca4b9a2b73d25c187ae61,2021-09-27_17h58.20.365,forced_choiceRT_color,2021.2.3,Win32,59.52026665,,,,,,,,10,Slow,short,d,1,2.2718,2,1,9,0,1,,,,,
,0.44,,,,,,,,,k,purple,5e6ca4b9a2b73d25c187ae61,2021-09-27_17h58.20.365,forced_choiceRT_color,2021.2.3,Win32,59.52026665,,,,,,,,10,Ontime,short,j,0,2.0371,2,2,10,3,1,,,,,
,0.1,,,,,,,,,f,blue,5e6ca4b9a2b73d25c187ae61,2021-09-27_17h58.20.365,forced_choiceRT_color,2021.2.3,Win32,59.52026665,,,,,,,,10,Fast,short,f,1,1.8688,2,3,11,1,1,,,,,
,1.59,,,,,,,,,f,blue,5e6ca4b9a2b73d25c187ae61,2021-09-27_17h58.20.365,forced_choiceRT_color,2021.2.3,Win32,59.52026665,,,,,,,,10,Slow,short,j,0,2.3398,3,0,12,1,1,,,,,
,1.04,,,,,,,,,f,blue,5e6ca4b9a2b73d25c187ae61,2021-09-27_17h58.20.365,forced_choiceRT_color,2021.2.3,Win32,59.52026665,,,,,,,,10,Ontime,short,f,1,2.0161,3,1,13,1,1,,,,,
,0.08,,,,,,,,,k,purple,5e6ca4b9a2b73d25c187ae61,2021-09-27_17h58.20.365,forced_choiceRT_color,2021.2.3,Win32,59.52026665,,,,,,,,10,Ontime,short,j,0,1.9678,3,2,14,3,1,,,,,
,0.42,,,,,,,,,k,purple,5e6ca4b9a2b73d25c187ae61,2021-09-27_17h58.20.365,forced_choiceRT_color,2021.2.3,Win32,59.52026665,,,,,,,,10,Ontime,short,f,0,1.9162,3,3,15,3,1,,,,,
,0.14,,,,,,,,,d,orange,5e6ca4b9a2b73d25c187ae61,2021-09-27_17h58.20.365,forced_choiceRT_color,2021.2.3,Win32,59.52026665,,,,,,,,10,Fast,short,f,0,1.7713,4,0,16,0,1,,,,,
,1.47,,,,,,,,,j,red,5e6ca4b9a2b73d25c187ae61,2021-09-27_17h58.20.365,forced_choiceRT_color,2021.2.3,Win32,59.52026665,,,,,,,,10,Ontime,short,j,1,1.9091,4,1,17,2,1,,,,,
,1.86,,,,,,,,,k,purple,5e6ca4b9a2b73d25c187ae61,2021-09-27_17h58.20.365,forced_choiceRT_color,2021.2.3,Win32,59.52026665,,,,,,,,10,Ontime,short,j,0,1.9078,4,2,18,3,1,,,,,
,0.71,,,,,,,,,k,purple,5e6ca4b9a2b73d25c187ae61,2021-09-27_17h58.20.365,forced_choiceRT_color,2021.2.3,Win32,59.52026665,,,,,,,,10,Ontime,short,j,0,1.9185,4,3,19,3,1,,,,,
,1.25,,,,,,,,,j,red,5e6ca4b9a2b73d25c187ae61,2021-09-27_17h58.20.365,forced_choiceRT_color,2021.2.3,Win32,59.52026665,,,,,,,,10,Fast,short,j,1,1.8818,5,0,20,2,1,,,,,
,1.88,,,,,,,,,d,orange,5e6ca4b9a2b73d25c187ae61,2021-09-27_17h58.20.365,forced_choiceRT_color,2021.2.3,Win32,59.52026665,,,,,,,,10,Ontime,short,f,0,1.9332,5,1,21,0,1,,,,,
,0.71,,,,,,,,,f,blue,5e6ca4b9a2b73d25c187ae61,2021-09-27_17h58.20.365,forced_choiceRT_color,2021.2.3,Win32,59.52026665,,,,,,,,10,Ontime,short,f,1,1.9157,5,2,22,1,1,,,,,
,0.47,,,,,,,,,k,purple,5e6ca4b9a2b73d25c187ae61,2021-09-27_17h58.20.365,forced_choiceRT_color,2021.2.3,Win32,59.52026665,,,,,,,,10,Fast,short,k,1,1.8822,5,3,23,3,1,,,,,
,0.27,,,,,,,,,j,red,5e6ca4b9a2b73d25c187ae61,2021-09-27_17h58.20.365,forced_choiceRT_color,2021.2.3,Win32,59.52026665,,,,,,,,10,Fast,short,j,1,1.8906,6,0,24,2,1,,,,,
,0.35,,,,,,,,,j,red,5e6ca4b9a2b73d25c187ae61,2021-09-27_17h58.20.365,forced_choiceRT_color,2021.2.3,Win32,59.52026665,,,,,,,,10,Ontime,short,j,1,1.9738,6,1,25,2,1,,,,,
,0.98,,,,,,,,,j,red,5e6ca4b9a2b73d25c187ae61,2021-09-27_17h58.20.365,forced_choiceRT_color,2021.2.3,Win32,59.52026665,,,,,,,,10,Ontime,short,j,1,2.0413,6,2,26,2,1,,,,,
,1.05,,,,,,,,,d,orange,5e6ca4b9a2b73d25c187ae61,2021-09-27_17h58.20.365,forced_choiceRT_color,2021.2.3,Win32,59.52026665,,,,,,,,10,Ontime,short,d,1,2.0573,6,3,27,0,1,,,,,
,0.86,,,,,,,,,j,red,5e6ca4b9a2b73d25c187ae61,2021-09-27_17h58.20.365,forced_choiceRT_color,2021.2.3,Win32,59.52026665,,,,,,,,10,Fast,short,j,1,1.789,7,0,28,2,1,,,,,
,0.13,,,,,,,,,k,purple,5e6ca4b9a2b73d25c187ae61,2021-09-27_17h58.20.365,forced_choiceRT_color,2021.2.3,Win32,59.52026665,,,,,,,,10,Ontime,short,k,1,1.9495,7,1,29,3,1,,,,,
,0.98,,,,,,,,,d,orange,5e6ca4b9a2b73d25c187ae61,2021-09-27_17h58.20.365,forced_choiceRT_color,2021.2.3,Win32,59.52026665,,,,,,,,10,Ontime,short,d,1,2.0879,7,2,30,0,1,,,,,
,1.42,,,,,,,,,f,blue,5e6ca4b9a2b73d25c187ae61,2021-09-27_17h58.20.365,forced_choiceRT_color,2021.2.3,Win32,59.52026665,,,,,,,,10,Ontime,short,f,1,1.9826,7,3,31,1,1,,,,,
,1.59,,,,,,,,,f,blue,5e6ca4b9a2b73d25c187ae61,2021-09-27_17h58.20.365,forced_choiceRT_color,2021.2.3,Win32,59.52026665,,,,,,,,10,Slow,short,d,0,2.154,8,0,32,1,1,,,,,
,0.35,,,,,,,,,k,purple,5e6ca4b9a2b73d25c187ae61,2021-09-27_17h58.20.365,forced_choiceRT_color,2021.2.3,Win32,59.52026665,,,,,,,,10,Fast,short,f,0,1.8996,8,1,33,3,1,,,,,
,0.82,,,,,,,,,j,red,5e6ca4b9a2b73d25c187ae61,2021-09-27_17h58.20.365,forced_choiceRT_color,2021.2.3,Win32,59.52026665,,,,,,,,10,Ontime,short,f,0,2.0537,8,2,34,2,1,,,,,
,0.99,,,,,,,,,f,blue,5e6ca4b9a2b73d25c187ae61,2021-09-27_17h58.20.365,forced_choiceRT_color,2021.2.3,Win32,59.52026665,,,,,,,,10,Ontime,short,f,1,2.0334,8,3,35,1,1,,,,,
,0.18,,,,,,,,,f,blue,5e6ca4b9a2b73d25c187ae61,2021-09-27_17h58.20.365,forced_choiceRT_color,2021.2.3,Win32,59.52026665,,,,,,,,10,Fast,short,f,1,1.8558,9,0,36,1,1,,,,,
,0.94,,,,,,,,,k,purple,5e6ca4b9a2b73d25c187ae61,2021-09-27_17h58.20.365,forced_choiceRT_color,2021.2.3,Win32,59.52026665,,,,,,,,10,Fast,short,k,1,1.89,9,1,37,3,1,,,,,
,0.79,,,,,,,,,d,orange,5e6ca4b9a2b73d25c187ae61,2021-09-27_17h58.20.365,forced_choiceRT_color,2021.2.3,Win32,59.52026665,,,,,,,,10,Ontime,short,d,1,2.0331,9,2,38,0,1,,,,,
,1.47,,,,,,,,,j,red,5e6ca4b9a2b73d25c187ae61,2021-09-27_17h58.20.365,forced_choiceRT_color,2021.2.3,Win32,59.52026665,,,,,,,,10,Ontime,short,d,0,2.0822,9,3,39,2,1,,,,,
,,,,,,,,,,,,5e6ca4b9a2b73d25c187ae61,2021-09-27_17h58.20.365,forced_choiceRT_color,2021.2.3,Win32,59.52026665,,,,,,,,,,,,,,,,,,,9,0,9,0,1
