IP_Addresss,target_onset,trial_resp_sp.keys,trial_resp_sp.corr,trial_resp_sp.rt,trials_train_loop.thisRepN,trials_train_loop.thisTrialN,trials_train_loop.thisN,trials_train_loop.thisIndex,trials_train_loop.ran,correct_key,color,participant,date,expName,psychopyVersion,OS,frameRate,trial_resp_timing.keys,trial_resp_timing.rt,trials_train_timing.thisRepN,trials_train_timing.thisTrialN,trials_train_timing.thisN,trials_train_timing.thisIndex,trials_train_timing.ran,block_id,ontime,feedback_cond,forcedRT_resp.keys,forcedRT_resp.corr,forcedRT_resp.rt,trials.thisRepN,trials.thisTrialN,trials.thisN,trials.thisIndex,trials.ran,blocks.thisRepN,blocks.thisTrialN,blocks.thisN,blocks.thisIndex,blocks.ran
69.175.168.37,0,k,1,0.9019,0,0,0,3,1,k,purple,5e861812b23b0a22ef59c4ee,2021-09-27_16h25.36.766,forced_choiceRT_color,2021.2.3,Win32,60.15037594,,,,,,,,,,,,,,,,,,,,,,,
,0,j,1,1.096,0,1,1,2,1,j,red,5e861812b23b0a22ef59c4ee,2021-09-27_16h25.36.766,forced_choiceRT_color,2021.2.3,Win32,60.15037594,,,,,,,,,,,,,,,,,,,,,,,
,0,f,1,0.6837,0,2,2,1,1,f,blue,5e861812b23b0a22ef59c4ee,2021-09-27_16h25.36.766,forced_choiceRT_color,2021.2.3,Win32,60.15037594,,,,,,,,,,,,,,,,,,,,,,,
,0,f,1,0.4882,0,3,3,1,1,f,blue,5e861812b23b0a22ef59c4ee,2021-09-27_16h25.36.766,forced_choiceRT_color,2021.2.3,Win32,60.15037594,,,,,,,,,,,,,,,,,,,,,,,
,0,f,1,0.3883,1,0,4,1,1,f,blue,5e861812b23b0a22ef59c4ee,2021-09-27_16h25.36.766,forced_choiceRT_color,2021.2.3,Win32,60.15037594,,,,,,,,,,,,,,,,,,,,,,,
,0,d,1,0.504,1,1,5,0,1,d,orange,5e861812b23b0a22ef59c4ee,2021-09-27_16h25.36.766,forced_choiceRT_color,2021.2.3,Win32,60.15037594,,,,,,,,,,,,,,,,,,,,,,,
,0,d,1,0.4814,1,2,6,0,1,d,orange,5e861812b23b0a22ef59c4ee,2021-09-27_16h25.36.766,forced_choiceRT_color,2021.2.3,Win32,60.15037594,,,,,,,,,,,,,,,,,,,,,,,
,0,k,0,0.5343,1,3,7,2,1,j,red,5e861812b23b0a22ef59c4ee,2021-09-27_16h25.36.766,forced_choiceRT_color,2021.2.3,Win32,60.15037594,,,,,,,,,,,,,,,,,,,,,,,
,0,j,0,0.0771,2,0,8,0,1,d,orange,5e861812b23b0a22ef59c4ee,2021-09-27_16h25.36.766,forced_choiceRT_color,2021.2.3,Win32,60.15037594,,,,,,,,,,,,,,,,,,,,,,,
,0,d,0,0.1342,2,1,9,2,1,j,red,5e861812b23b0a22ef59c4ee,2021-09-27_16h25.36.766,forced_choiceRT_color,2021.2.3,Win32,60.15037594,,,,,,,,,,,,,,,,,,,,,,,
,0,d,1,0.5813,2,2,10,0,1,d,orange,5e861812b23b0a22ef59c4ee,2021-09-27_16h25.36.766,forced_choiceRT_color,2021.2.3,Win32,60.15037594,,,,,,,,,,,,,,,,,,,,,,,
,0,k,1,0.5348,2,3,11,3,1,k,purple,5e861812b23b0a22ef59c4ee,2021-09-27_16h25.36.766,forced_choiceRT_color,2021.2.3,Win32,60.15037594,,,,,,,,,,,,,,,,,,,,,,,
,0,j,1,0.5616,3,0,12,2,1,j,red,5e861812b23b0a22ef59c4ee,2021-09-27_16h25.36.766,forced_choiceRT_color,2021.2.3,Win32,60.15037594,,,,,,,,,,,,,,,,,,,,,,,
,0,f,1,0.596299999,3,1,13,1,1,f,blue,5e861812b23b0a22ef59c4ee,2021-09-27_16h25.36.766,forced_choiceRT_color,2021.2.3,Win32,60.15037594,,,,,,,,,,,,,,,,,,,,,,,
,0,j,1,0.7655,3,2,14,2,1,j,red,5e861812b23b0a22ef59c4ee,2021-09-27_16h25.36.766,forced_choiceRT_color,2021.2.3,Win32,60.15037594,,,,,,,,,,,,,,,,,,,,,,,
,0,j,1,0.4745,3,3,15,2,1,j,red,5e861812b23b0a22ef59c4ee,2021-09-27_16h25.36.766,forced_choiceRT_color,2021.2.3,Win32,60.15037594,,,,,,,,,,,,,,,,,,,,,,,
,0,k,1,0.449900001,4,0,16,3,1,k,purple,5e861812b23b0a22ef59c4ee,2021-09-27_16h25.36.766,forced_choiceRT_color,2021.2.3,Win32,60.15037594,,,,,,,,,,,,,,,,,,,,,,,
,0,k,1,0.566,4,1,17,3,1,k,purple,5e861812b23b0a22ef59c4ee,2021-09-27_16h25.36.766,forced_choiceRT_color,2021.2.3,Win32,60.15037594,,,,,,,,,,,,,,,,,,,,,,,
,0,j,1,0.603799999,4,2,18,2,1,j,red,5e861812b23b0a22ef59c4ee,2021-09-27_16h25.36.766,forced_choiceRT_color,2021.2.3,Win32,60.15037594,,,,,,,,,,,,,,,,,,,,,,,
,0,f,1,0.353799999,4,3,19,1,1,f,blue,5e861812b23b0a22ef59c4ee,2021-09-27_16h25.36.766,forced_choiceRT_color,2021.2.3,Win32,60.15037594,,,,,,,,,,,,,,,,,,,,,,,
,0,j,0,0.4552,5,0,20,1,1,f,blue,5e861812b23b0a22ef59c4ee,2021-09-27_16h25.36.766,forced_choiceRT_color,2021.2.3,Win32,60.15037594,,,,,,,,,,,,,,,,,,,,,,,
,0,k,0,0.4995,5,1,21,2,1,j,red,5e861812b23b0a22ef59c4ee,2021-09-27_16h25.36.766,forced_choiceRT_color,2021.2.3,Win32,60.15037594,,,,,,,,,,,,,,,,,,,,,,,
,0,f,1,0.6806,5,2,22,1,1,f,blue,5e861812b23b0a22ef59c4ee,2021-09-27_16h25.36.766,forced_choiceRT_color,2021.2.3,Win32,60.15037594,,,,,,,,,,,,,,,,,,,,,,,
,0,j,1,0.6462,5,3,23,2,1,j,red,5e861812b23b0a22ef59c4ee,2021-09-27_16h25.36.766,forced_choiceRT_color,2021.2.3,Win32,60.15037594,,,,,,,,,,,,,,,,,,,,,,,
,0,d,1,0.4817,6,0,24,0,1,d,orange,5e861812b23b0a22ef59c4ee,2021-09-27_16h25.36.766,forced_choiceRT_color,2021.2.3,Win32,60.15037594,,,,,,,,,,,,,,,,,,,,,,,
,0,d,1,0.5019,6,1,25,0,1,d,orange,5e861812b23b0a22ef59c4ee,2021-09-27_16h25.36.766,forced_choiceRT_color,2021.2.3,Win32,60.15037594,,,,,,,,,,,,,,,,,,,,,,,
,0,k,1,0.5795,6,2,26,3,1,k,purple,5e861812b23b0a22ef59c4ee,2021-09-27_16h25.36.766,forced_choiceRT_color,2021.2.3,Win32,60.15037594,,,,,,,,,,,,,,,,,,,,,,,
,0,f,1,0.5659,6,3,27,1,1,f,blue,5e861812b23b0a22ef59c4ee,2021-09-27_16h25.36.766,forced_choiceRT_color,2021.2.3,Win32,60.15037594,,,,,,,,,,,,,,,,,,,,,,,
,0,d,1,0.4675,7,0,28,0,1,d,orange,5e861812b23b0a22ef59c4ee,2021-09-27_16h25.36.766,forced_choiceRT_color,2021.2.3,Win32,60.15037594,,,,,,,,,,,,,,,,,,,,,,,
,0,j,1,0.615599999,7,1,29,2,1,j,red,5e861812b23b0a22ef59c4ee,2021-09-27_16h25.36.766,forced_choiceRT_color,2021.2.3,Win32,60.15037594,,,,,,,,,,,,,,,,,,,,,,,
,0,k,1,0.5671,7,2,30,3,1,k,purple,5e861812b23b0a22ef59c4ee,2021-09-27_16h25.36.766,forced_choiceRT_color,2021.2.3,Win32,60.15037594,,,,,,,,,,,,,,,,,,,,,,,
,0,j,1,0.580099999,7,3,31,2,1,j,red,5e861812b23b0a22ef59c4ee,2021-09-27_16h25.36.766,forced_choiceRT_color,2021.2.3,Win32,60.15037594,,,,,,,,,,,,,,,,,,,,,,,
,0,k,1,0.6324,8,0,32,3,1,k,purple,5e861812b23b0a22ef59c4ee,2021-09-27_16h25.36.766,forced_choiceRT_color,2021.2.3,Win32,60.15037594,,,,,,,,,,,,,,,,,,,,,,,
,0,k,1,0.468,8,1,33,3,1,k,purple,5e861812b23b0a22ef59c4ee,2021-09-27_16h25.36.766,forced_choiceRT_color,2021.2.3,Win32,60.15037594,,,,,,,,,,,,,,,,,,,,,,,
,0,d,1,0.597700001,8,2,34,0,1,d,orange,5e861812b23b0a22ef59c4ee,2021-09-27_16h25.36.766,forced_choiceRT_color,2021.2.3,Win32,60.15037594,,,,,,,,,,,,,,,,,,,,,,,
,0,f,1,0.5249,8,3,35,1,1,f,blue,5e861812b23b0a22ef59c4ee,2021-09-27_16h25.36.766,forced_choiceRT_color,2021.2.3,Win32,60.15037594,,,,,,,,,,,,,,,,,,,,,,,
,0,j,1,0.7033,9,0,36,2,1,j,red,5e861812b23b0a22ef59c4ee,2021-09-27_16h25.36.766,forced_choiceRT_color,2021.2.3,Win32,60.15037594,,,,,,,,,,,,,,,,,,,,,,,
,0,f,1,0.5485,9,1,37,1,1,f,blue,5e861812b23b0a22ef59c4ee,2021-09-27_16h25.36.766,forced_choiceRT_color,2021.2.3,Win32,60.15037594,,,,,,,,,,,,,,,,,,,,,,,
,0,f,1,0.5,9,2,38,1,1,f,blue,5e861812b23b0a22ef59c4ee,2021-09-27_16h25.36.766,forced_choiceRT_color,2021.2.3,Win32,60.15037594,,,,,,,,,,,,,,,,,,,,,,,
,0,k,1,0.544,9,3,39,3,1,k,purple,5e861812b23b0a22ef59c4ee,2021-09-27_16h25.36.766,forced_choiceRT_color,2021.2.3,Win32,60.15037594,,,,,,,,,,,,,,,,,,,,,,,
,0,d,1,0.4637,10,0,40,0,1,d,orange,5e861812b23b0a22ef59c4ee,2021-09-27_16h25.36.766,forced_choiceRT_color,2021.2.3,Win32,60.15037594,,,,,,,,,,,,,,,,,,,,,,,
,0,d,1,0.373,10,1,41,0,1,d,orange,5e861812b23b0a22ef59c4ee,2021-09-27_16h25.36.766,forced_choiceRT_color,2021.2.3,Win32,60.15037594,,,,,,,,,,,,,,,,,,,,,,,
,0,f,1,0.557900001,10,2,42,1,1,f,blue,5e861812b23b0a22ef59c4ee,2021-09-27_16h25.36.766,forced_choiceRT_color,2021.2.3,Win32,60.15037594,,,,,,,,,,,,,,,,,,,,,,,
,0,k,1,0.616400001,10,3,43,3,1,k,purple,5e861812b23b0a22ef59c4ee,2021-09-27_16h25.36.766,forced_choiceRT_color,2021.2.3,Win32,60.15037594,,,,,,,,,,,,,,,,,,,,,,,
,0,d,1,0.5328,11,0,44,0,1,d,orange,5e861812b23b0a22ef59c4ee,2021-09-27_16h25.36.766,forced_choiceRT_color,2021.2.3,Win32,60.15037594,,,,,,,,,,,,,,,,,,,,,,,
,0,f,1,0.565299999,11,1,45,1,1,f,blue,5e861812b23b0a22ef59c4ee,2021-09-27_16h25.36.766,forced_choiceRT_color,2021.2.3,Win32,60.15037594,,,,,,,,,,,,,,,,,,,,,,,
,0,j,1,0.553,11,2,46,2,1,j,red,5e861812b23b0a22ef59c4ee,2021-09-27_16h25.36.766,forced_choiceRT_color,2021.2.3,Win32,60.15037594,,,,,,,,,,,,,,,,,,,,,,,
,0,d,1,0.4878,11,3,47,0,1,d,orange,5e861812b23b0a22ef59c4ee,2021-09-27_16h25.36.766,forced_choiceRT_color,2021.2.3,Win32,60.15037594,,,,,,,,,,,,,,,,,,,,,,,
,0,d,1,0.4503,12,0,48,0,1,d,orange,5e861812b23b0a22ef59c4ee,2021-09-27_16h25.36.766,forced_choiceRT_color,2021.2.3,Win32,60.15037594,,,,,,,,,,,,,,,,,,,,,,,
,0,f,1,0.514400001,12,1,49,1,1,f,blue,5e861812b23b0a22ef59c4ee,2021-09-27_16h25.36.766,forced_choiceRT_color,2021.2.3,Win32,60.15037594,,,,,,,,,,,,,,,,,,,,,,,
,0,k,1,0.472,12,2,50,3,1,k,purple,5e861812b23b0a22ef59c4ee,2021-09-27_16h25.36.766,forced_choiceRT_color,2021.2.3,Win32,60.15037594,,,,,,,,,,,,,,,,,,,,,,,
,0,k,1,0.6098,12,3,51,3,1,k,purple,5e861812b23b0a22ef59c4ee,2021-09-27_16h25.36.766,forced_choiceRT_color,2021.2.3,Win32,60.15037594,,,,,,,,,,,,,,,,,,,,,,,
,0,f,1,0.573700001,13,0,52,1,1,f,blue,5e861812b23b0a22ef59c4ee,2021-09-27_16h25.36.766,forced_choiceRT_color,2021.2.3,Win32,60.15037594,,,,,,,,,,,,,,,,,,,,,,,
,0,d,0,0.4491,13,1,53,2,1,j,red,5e861812b23b0a22ef59c4ee,2021-09-27_16h25.36.766,forced_choiceRT_color,2021.2.3,Win32,60.15037594,,,,,,,,,,,,,,,,,,,,,,,
,0,j,1,0.556799999,13,2,54,2,1,j,red,5e861812b23b0a22ef59c4ee,2021-09-27_16h25.36.766,forced_choiceRT_color,2021.2.3,Win32,60.15037594,,,,,,,,,,,,,,,,,,,,,,,
,0,k,1,0.5546,13,3,55,3,1,k,purple,5e861812b23b0a22ef59c4ee,2021-09-27_16h25.36.766,forced_choiceRT_color,2021.2.3,Win32,60.15037594,,,,,,,,,,,,,,,,,,,,,,,
,0,d,1,0.501099999,14,0,56,0,1,d,orange,5e861812b23b0a22ef59c4ee,2021-09-27_16h25.36.766,forced_choiceRT_color,2021.2.3,Win32,60.15037594,,,,,,,,,,,,,,,,,,,,,,,
,0,k,1,0.583400001,14,1,57,3,1,k,purple,5e861812b23b0a22ef59c4ee,2021-09-27_16h25.36.766,forced_choiceRT_color,2021.2.3,Win32,60.15037594,,,,,,,,,,,,,,,,,,,,,,,
,0,d,1,0.5055,14,2,58,0,1,d,orange,5e861812b23b0a22ef59c4ee,2021-09-27_16h25.36.766,forced_choiceRT_color,2021.2.3,Win32,60.15037594,,,,,,,,,,,,,,,,,,,,,,,
,0,k,1,0.5505,14,3,59,3,1,k,purple,5e861812b23b0a22ef59c4ee,2021-09-27_16h25.36.766,forced_choiceRT_color,2021.2.3,Win32,60.15037594,,,,,,,,,,,,,,,,,,,,,,,
,,,,,,,,,,,,5e861812b23b0a22ef59c4ee,2021-09-27_16h25.36.766,forced_choiceRT_color,2021.2.3,Win32,60.15037594,f,2.3058,0,0,0,0,1,,,,,,,,,,,,,,,,
,,,,,,,,,,,,5e861812b23b0a22ef59c4ee,2021-09-27_16h25.36.766,forced_choiceRT_color,2021.2.3,Win32,60.15037594,f,2.232299999,1,0,1,0,1,,,,,,,,,,,,,,,,
,,,,,,,,,,,,5e861812b23b0a22ef59c4ee,2021-09-27_16h25.36.766,forced_choiceRT_color,2021.2.3,Win32,60.15037594,f,3.980400001,2,0,2,0,1,,,,,,,,,,,,,,,,
,,,,,,,,,,,,5e861812b23b0a22ef59c4ee,2021-09-27_16h25.36.766,forced_choiceRT_color,2021.2.3,Win32,60.15037594,f,1.7802,3,0,3,0,1,,,,,,,,,,,,,,,,
,,,,,,,,,,,,5e861812b23b0a22ef59c4ee,2021-09-27_16h25.36.766,forced_choiceRT_color,2021.2.3,Win32,60.15037594,d,4.6136,4,0,4,0,1,,,,,,,,,,,,,,,,
,,,,,,,,,,,,5e861812b23b0a22ef59c4ee,2021-09-27_16h25.36.766,forced_choiceRT_color,2021.2.3,Win32,60.15037594,d,1.7688,5,0,5,0,1,,,,,,,,,,,,,,,,
,,,,,,,,,,,,5e861812b23b0a22ef59c4ee,2021-09-27_16h25.36.766,forced_choiceRT_color,2021.2.3,Win32,60.15037594,d,2.1405,6,0,6,0,1,,,,,,,,,,,,,,,,
,,,,,,,,,,,,5e861812b23b0a22ef59c4ee,2021-09-27_16h25.36.766,forced_choiceRT_color,2021.2.3,Win32,60.15037594,j,2.0947,7,0,7,0,1,,,,,,,,,,,,,,,,
,,,,,,,,,,,,5e861812b23b0a22ef59c4ee,2021-09-27_16h25.36.766,forced_choiceRT_color,2021.2.3,Win32,60.15037594,j,2.0648,8,0,8,0,1,,,,,,,,,,,,,,,,
,,,,,,,,,,,,5e861812b23b0a22ef59c4ee,2021-09-27_16h25.36.766,forced_choiceRT_color,2021.2.3,Win32,60.15037594,k,1.917599999,9,0,9,0,1,,,,,,,,,,,,,,,,
,,,,,,,,,,,,5e861812b23b0a22ef59c4ee,2021-09-27_16h25.36.766,forced_choiceRT_color,2021.2.3,Win32,60.15037594,k,2.0037,10,0,10,0,1,,,,,,,,,,,,,,,,
,,,,,,,,,,,,5e861812b23b0a22ef59c4ee,2021-09-27_16h25.36.766,forced_choiceRT_color,2021.2.3,Win32,60.15037594,k,1.9987,11,0,11,0,1,,,,,,,,,,,,,,,,
,,,,,,,,,,,,5e861812b23b0a22ef59c4ee,2021-09-27_16h25.36.766,forced_choiceRT_color,2021.2.3,Win32,60.15037594,f,1.9655,12,0,12,0,1,,,,,,,,,,,,,,,,
,,,,,,,,,,,,5e861812b23b0a22ef59c4ee,2021-09-27_16h25.36.766,forced_choiceRT_color,2021.2.3,Win32,60.15037594,f,1.9988,13,0,13,0,1,,,,,,,,,,,,,,,,
,,,,,,,,,,,,5e861812b23b0a22ef59c4ee,2021-09-27_16h25.36.766,forced_choiceRT_color,2021.2.3,Win32,60.15037594,d,2.005099999,14,0,14,0,1,,,,,,,,,,,,,,,,
,,,,,,,,,,,,5e861812b23b0a22ef59c4ee,2021-09-27_16h25.36.766,forced_choiceRT_color,2021.2.3,Win32,60.15037594,d,1.8988,15,0,15,0,1,,,,,,,,,,,,,,,,
,,,,,,,,,,,,5e861812b23b0a22ef59c4ee,2021-09-27_16h25.36.766,forced_choiceRT_color,2021.2.3,Win32,60.15037594,d,2.0972,16,0,16,0,1,,,,,,,,,,,,,,,,
,,,,,,,,,,,,5e861812b23b0a22ef59c4ee,2021-09-27_16h25.36.766,forced_choiceRT_color,2021.2.3,Win32,60.15037594,d,1.9674,17,0,17,0,1,,,,,,,,,,,,,,,,
,,,,,,,,,,,,5e861812b23b0a22ef59c4ee,2021-09-27_16h25.36.766,forced_choiceRT_color,2021.2.3,Win32,60.15037594,d,2.0387,18,0,18,0,1,,,,,,,,,,,,,,,,
,,,,,,,,,,,,5e861812b23b0a22ef59c4ee,2021-09-27_16h25.36.766,forced_choiceRT_color,2021.2.3,Win32,60.15037594,j,1.9007,19,0,19,0,1,,,,,,,,,,,,,,,,
,0.65,,,,,,,,,f,blue,5e861812b23b0a22ef59c4ee,2021-09-27_16h25.36.766,forced_choiceRT_color,2021.2.3,Win32,60.15037594,,,,,,,,1,Fast,long,d,0,1.8434,0,0,0,1,1,,,,,
,0.6,,,,,,,,,f,blue,5e861812b23b0a22ef59c4ee,2021-09-27_16h25.36.766,forced_choiceRT_color,2021.2.3,Win32,60.15037594,,,,,,,,1,Ontime,long,f,1,2.084,0,1,1,1,1,,,,,
,1.55,,,,,,,,,k,purple,5e861812b23b0a22ef59c4ee,2021-09-27_16h25.36.766,forced_choiceRT_color,2021.2.3,Win32,60.15037594,,,,,,,,1,Ontime,long,d,0,1.9359,0,2,2,3,1,,,,,
,1.57,,,,,,,,,f,blue,5e861812b23b0a22ef59c4ee,2021-09-27_16h25.36.766,forced_choiceRT_color,2021.2.3,Win32,60.15037594,,,,,,,,1,Slow,long,d,0,2.134900001,0,3,3,1,1,,,,,
,1.15,,,,,,,,,d,orange,5e861812b23b0a22ef59c4ee,2021-09-27_16h25.36.766,forced_choiceRT_color,2021.2.3,Win32,60.15037594,,,,,,,,1,Slow,long,d,1,2.1364,1,0,4,0,1,,,,,
,0.5,,,,,,,,,k,purple,5e861812b23b0a22ef59c4ee,2021-09-27_16h25.36.766,forced_choiceRT_color,2021.2.3,Win32,60.15037594,,,,,,,,1,Slow,long,k,1,2.1376,1,1,5,3,1,,,,,
,1.79,,,,,,,,,k,purple,5e861812b23b0a22ef59c4ee,2021-09-27_16h25.36.766,forced_choiceRT_color,2021.2.3,Win32,60.15037594,,,,,,,,1,Ontime,long,k,1,1.9993,1,2,6,3,1,,,,,
,0.1,,,,,,,,,j,red,5e861812b23b0a22ef59c4ee,2021-09-27_16h25.36.766,forced_choiceRT_color,2021.2.3,Win32,60.15037594,,,,,,,,1,Ontime,long,j,1,1.939400001,1,3,7,2,1,,,,,
,1.99,,,,,,,,,f,blue,5e861812b23b0a22ef59c4ee,2021-09-27_16h25.36.766,forced_choiceRT_color,2021.2.3,Win32,60.15037594,,,,,,,,1,Slow,long,d,0,2.2028,2,0,8,1,1,,,,,
,0.09,,,,,,,,,k,purple,5e861812b23b0a22ef59c4ee,2021-09-27_16h25.36.766,forced_choiceRT_color,2021.2.3,Win32,60.15037594,,,,,,,,1,Fast,long,k,1,1.8715,2,1,9,3,1,,,,,
,0.68,,,,,,,,,f,blue,5e861812b23b0a22ef59c4ee,2021-09-27_16h25.36.766,forced_choiceRT_color,2021.2.3,Win32,60.15037594,,,,,,,,1,Ontime,long,f,1,1.9564,2,2,10,1,1,,,,,
,0.73,,,,,,,,,k,purple,5e861812b23b0a22ef59c4ee,2021-09-27_16h25.36.766,forced_choiceRT_color,2021.2.3,Win32,60.15037594,,,,,,,,1,Ontime,long,k,1,1.9677,2,3,11,3,1,,,,,
,1.95,,,,,,,,,k,purple,5e861812b23b0a22ef59c4ee,2021-09-27_16h25.36.766,forced_choiceRT_color,2021.2.3,Win32,60.15037594,,,,,,,,1,Ontime,long,d,0,2.0899,3,0,12,3,1,,,,,
,0.55,,,,,,,,,k,purple,5e861812b23b0a22ef59c4ee,2021-09-27_16h25.36.766,forced_choiceRT_color,2021.2.3,Win32,60.15037594,,,,,,,,1,Ontime,long,k,1,2.0559,3,1,13,3,1,,,,,
,0.2,,,,,,,,,f,blue,5e861812b23b0a22ef59c4ee,2021-09-27_16h25.36.766,forced_choiceRT_color,2021.2.3,Win32,60.15037594,,,,,,,,1,Slow,long,f,1,2.104,3,2,14,1,1,,,,,
,1.73,,,,,,,,,f,blue,5e861812b23b0a22ef59c4ee,2021-09-27_16h25.36.766,forced_choiceRT_color,2021.2.3,Win32,60.15037594,,,,,,,,1,Ontime,long,d,0,2.0563,3,3,15,1,1,,,,,
,1.95,,,,,,,,,j,red,5e861812b23b0a22ef59c4ee,2021-09-27_16h25.36.766,forced_choiceRT_color,2021.2.3,Win32,60.15037594,,,,,,,,1,Ontime,long,k,0,2.0237,4,0,16,2,1,,,,,
,0.22,,,,,,,,,d,orange,5e861812b23b0a22ef59c4ee,2021-09-27_16h25.36.766,forced_choiceRT_color,2021.2.3,Win32,60.15037594,,,,,,,,1,Ontime,long,d,1,2.02,4,1,17,0,1,,,,,
,0.54,,,,,,,,,d,orange,5e861812b23b0a22ef59c4ee,2021-09-27_16h25.36.766,forced_choiceRT_color,2021.2.3,Win32,60.15037594,,,,,,,,1,Fast,long,d,1,1.8785,4,2,18,0,1,,,,,
,0.39,,,,,,,,,d,orange,5e861812b23b0a22ef59c4ee,2021-09-27_16h25.36.766,forced_choiceRT_color,2021.2.3,Win32,60.15037594,,,,,,,,1,Ontime,long,d,1,2.084299999,4,3,19,0,1,,,,,
,1.99,,,,,,,,,d,orange,5e861812b23b0a22ef59c4ee,2021-09-27_16h25.36.766,forced_choiceRT_color,2021.2.3,Win32,60.15037594,,,,,,,,1,Slow,long,d,1,2.2302,5,0,20,0,1,,,,,
,1.17,,,,,,,,,d,orange,5e861812b23b0a22ef59c4ee,2021-09-27_16h25.36.766,forced_choiceRT_color,2021.2.3,Win32,60.15037594,,,,,,,,1,Ontime,long,d,1,2.0905,5,1,21,0,1,,,,,
,1.46,,,,,,,,,f,blue,5e861812b23b0a22ef59c4ee,2021-09-27_16h25.36.766,forced_choiceRT_color,2021.2.3,Win32,60.15037594,,,,,,,,1,Slow,long,j,0,2.178200001,5,2,22,1,1,,,,,
,1.84,,,,,,,,,j,red,5e861812b23b0a22ef59c4ee,2021-09-27_16h25.36.766,forced_choiceRT_color,2021.2.3,Win32,60.15037594,,,,,,,,1,Ontime,long,k,0,2.0411,5,3,23,2,1,,,,,
,1.39,,,,,,,,,j,red,5e861812b23b0a22ef59c4ee,2021-09-27_16h25.36.766,forced_choiceRT_color,2021.2.3,Win32,60.15037594,,,,,,,,1,Ontime,long,j,1,2.0364,6,0,24,2,1,,,,,
,0.09,,,,,,,,,k,purple,5e861812b23b0a22ef59c4ee,2021-09-27_16h25.36.766,forced_choiceRT_color,2021.2.3,Win32,60.15037594,,,,,,,,1,Fast,long,k,1,1.856299999,6,1,25,3,1,,,,,
,1.9,,,,,,,,,d,orange,5e861812b23b0a22ef59c4ee,2021-09-27_16h25.36.766,forced_choiceRT_color,2021.2.3,Win32,60.15037594,,,,,,,,1,Ontime,long,d,1,2.0062,6,2,26,0,1,,,,,
,1.73,,,,,,,,,d,orange,5e861812b23b0a22ef59c4ee,2021-09-27_16h25.36.766,forced_choiceRT_color,2021.2.3,Win32,60.15037594,,,,,,,,1,Ontime,long,f,0,2.0199,6,3,27,0,1,,,,,
,1.8,,,,,,,,,k,purple,5e861812b23b0a22ef59c4ee,2021-09-27_16h25.36.766,forced_choiceRT_color,2021.2.3,Win32,60.15037594,,,,,,,,1,Slow,long,d,0,2.104299999,7,0,28,3,1,,,,,
,1.36,,,,,,,,,j,red,5e861812b23b0a22ef59c4ee,2021-09-27_16h25.36.766,forced_choiceRT_color,2021.2.3,Win32,60.15037594,,,,,,,,1,Slow,long,j,1,2.1679,7,1,29,2,1,,,,,
,1.48,,,,,,,,,j,red,5e861812b23b0a22ef59c4ee,2021-09-27_16h25.36.766,forced_choiceRT_color,2021.2.3,Win32,60.15037594,,,,,,,,1,Ontime,long,j,1,1.957599999,7,2,30,2,1,,,,,
,0.74,,,,,,,,,f,blue,5e861812b23b0a22ef59c4ee,2021-09-27_16h25.36.766,forced_choiceRT_color,2021.2.3,Win32,60.15037594,,,,,,,,1,Ontime,long,f,1,2.0453,7,3,31,1,1,,,,,
,1.7,,,,,,,,,j,red,5e861812b23b0a22ef59c4ee,2021-09-27_16h25.36.766,forced_choiceRT_color,2021.2.3,Win32,60.15037594,,,,,,,,1,Slow,long,j,1,2.1505,8,0,32,2,1,,,,,
,0.88,,,,,,,,,j,red,5e861812b23b0a22ef59c4ee,2021-09-27_16h25.36.766,forced_choiceRT_color,2021.2.3,Win32,60.15037594,,,,,,,,1,Fast,long,j,1,1.886,8,1,33,2,1,,,,,
,0.47,,,,,,,,,j,red,5e861812b23b0a22ef59c4ee,2021-09-27_16h25.36.766,forced_choiceRT_color,2021.2.3,Win32,60.15037594,,,,,,,,1,Slow,long,j,1,2.126200001,8,2,34,2,1,,,,,
,1.02,,,,,,,,,k,purple,5e861812b23b0a22ef59c4ee,2021-09-27_16h25.36.766,forced_choiceRT_color,2021.2.3,Win32,60.15037594,,,,,,,,1,Ontime,long,k,1,1.986700001,8,3,35,3,1,,,,,
,0.72,,,,,,,,,f,blue,5e861812b23b0a22ef59c4ee,2021-09-27_16h25.36.766,forced_choiceRT_color,2021.2.3,Win32,60.15037594,,,,,,,,1,Ontime,long,f,1,2.0375,9,0,36,1,1,,,,,
,0.89,,,,,,,,,d,orange,5e861812b23b0a22ef59c4ee,2021-09-27_16h25.36.766,forced_choiceRT_color,2021.2.3,Win32,60.15037594,,,,,,,,1,Ontime,long,d,1,2.0419,9,1,37,0,1,,,,,
,1.25,,,,,,,,,d,orange,5e861812b23b0a22ef59c4ee,2021-09-27_16h25.36.766,forced_choiceRT_color,2021.2.3,Win32,60.15037594,,,,,,,,1,Ontime,long,d,1,2.0513,9,2,38,0,1,,,,,
,0.82,,,,,,,,,j,red,5e861812b23b0a22ef59c4ee,2021-09-27_16h25.36.766,forced_choiceRT_color,2021.2.3,Win32,60.15037594,,,,,,,,1,Slow,long,j,1,2.105,9,3,39,2,1,,,,,
,,,,,,,,,,,,5e861812b23b0a22ef59c4ee,2021-09-27_16h25.36.766,forced_choiceRT_color,2021.2.3,Win32,60.15037594,,,,,,,,,,,,,,,,,,,0,0,0,0,1
,1.88,,,,,,,,,k,purple,5e861812b23b0a22ef59c4ee,2021-09-27_16h25.36.766,forced_choiceRT_color,2021.2.3,Win32,60.15037594,,,,,,,,2,Slow,long,f,0,2.2074,0,0,0,3,1,,,,,
,0.69,,,,,,,,,f,blue,5e861812b23b0a22ef59c4ee,2021-09-27_16h25.36.766,forced_choiceRT_color,2021.2.3,Win32,60.15037594,,,,,,,,2,Ontime,long,j,0,2.068400001,0,1,1,1,1,,,,,
,0.26,,,,,,,,,j,red,5e861812b23b0a22ef59c4ee,2021-09-27_16h25.36.766,forced_choiceRT_color,2021.2.3,Win32,60.15037594,,,,,,,,2,Ontime,long,j,1,2.0388,0,2,2,2,1,,,,,
,1.16,,,,,,,,,k,purple,5e861812b23b0a22ef59c4ee,2021-09-27_16h25.36.766,forced_choiceRT_color,2021.2.3,Win32,60.15037594,,,,,,,,2,Ontime,long,k,1,2.052,0,3,3,3,1,,,,,
,1.65,,,,,,,,,k,purple,5e861812b23b0a22ef59c4ee,2021-09-27_16h25.36.766,forced_choiceRT_color,2021.2.3,Win32,60.15037594,,,,,,,,2,Slow,long,k,1,2.193,1,0,4,3,1,,,,,
,1.31,,,,,,,,,f,blue,5e861812b23b0a22ef59c4ee,2021-09-27_16h25.36.766,forced_choiceRT_color,2021.2.3,Win32,60.15037594,,,,,,,,2,Ontime,long,f,1,1.9689,1,1,5,1,1,,,,,
,0.9,,,,,,,,,k,purple,5e861812b23b0a22ef59c4ee,2021-09-27_16h25.36.766,forced_choiceRT_color,2021.2.3,Win32,60.15037594,,,,,,,,2,Ontime,long,k,1,2.0351,1,2,6,3,1,,,,,
,0.39,,,,,,,,,f,blue,5e861812b23b0a22ef59c4ee,2021-09-27_16h25.36.766,forced_choiceRT_color,2021.2.3,Win32,60.15037594,,,,,,,,2,Ontime,long,f,1,1.932,1,3,7,1,1,,,,,
,1.41,,,,,,,,,d,orange,5e861812b23b0a22ef59c4ee,2021-09-27_16h25.36.766,forced_choiceRT_color,2021.2.3,Win32,60.15037594,,,,,,,,2,Slow,long,d,1,2.1091,2,0,8,0,1,,,,,
,1.76,,,,,,,,,k,purple,5e861812b23b0a22ef59c4ee,2021-09-27_16h25.36.766,forced_choiceRT_color,2021.2.3,Win32,60.15037594,,,,,,,,2,Slow,long,j,0,2.2185,2,1,9,3,1,,,,,
,1.28,,,,,,,,,d,orange,5e861812b23b0a22ef59c4ee,2021-09-27_16h25.36.766,forced_choiceRT_color,2021.2.3,Win32,60.15037594,,,,,,,,2,Ontime,long,d,1,2.0783,2,2,10,0,1,,,,,
,0.71,,,,,,,,,f,blue,5e861812b23b0a22ef59c4ee,2021-09-27_16h25.36.766,forced_choiceRT_color,2021.2.3,Win32,60.15037594,,,,,,,,2,Ontime,long,f,1,2.0219,2,3,11,1,1,,,,,
,1.43,,,,,,,,,d,orange,5e861812b23b0a22ef59c4ee,2021-09-27_16h25.36.766,forced_choiceRT_color,2021.2.3,Win32,60.15037594,,,,,,,,2,Ontime,long,d,1,1.9291,3,0,12,0,1,,,,,
,0.64,,,,,,,,,d,orange,5e861812b23b0a22ef59c4ee,2021-09-27_16h25.36.766,forced_choiceRT_color,2021.2.3,Win32,60.15037594,,,,,,,,2,Ontime,long,d,1,1.9373,3,1,13,0,1,,,,,
,1.18,,,,,,,,,j,red,5e861812b23b0a22ef59c4ee,2021-09-27_16h25.36.766,forced_choiceRT_color,2021.2.3,Win32,60.15037594,,,,,,,,2,Ontime,long,j,1,2.0095,3,2,14,2,1,,,,,
,1.85,,,,,,,,,f,blue,5e861812b23b0a22ef59c4ee,2021-09-27_16h25.36.766,forced_choiceRT_color,2021.2.3,Win32,60.15037594,,,,,,,,2,Ontime,long,d,0,2.075200001,3,3,15,1,1,,,,,
,1.73,,,,,,,,,j,red,5e861812b23b0a22ef59c4ee,2021-09-27_16h25.36.766,forced_choiceRT_color,2021.2.3,Win32,60.15037594,,,,,,,,2,Slow,long,f,0,2.153,4,0,16,2,1,,,,,
,1.96,,,,,,,,,k,purple,5e861812b23b0a22ef59c4ee,2021-09-27_16h25.36.766,forced_choiceRT_color,2021.2.3,Win32,60.15037594,,,,,,,,2,Ontime,long,j,0,1.985,4,1,17,3,1,,,,,
,0.79,,,,,,,,,j,red,5e861812b23b0a22ef59c4ee,2021-09-27_16h25.36.766,forced_choiceRT_color,2021.2.3,Win32,60.15037594,,,,,,,,2,Slow,long,j,1,2.135900001,4,2,18,2,1,,,,,
,0.3,,,,,,,,,f,blue,5e861812b23b0a22ef59c4ee,2021-09-27_16h25.36.766,forced_choiceRT_color,2021.2.3,Win32,60.15037594,,,,,,,,2,Fast,long,f,1,1.802200001,4,3,19,1,1,,,,,
,1.4,,,,,,,,,k,purple,5e861812b23b0a22ef59c4ee,2021-09-27_16h25.36.766,forced_choiceRT_color,2021.2.3,Win32,60.15037594,,,,,,,,2,Slow,long,j,0,2.3335,5,0,20,3,1,,,,,
,1.54,,,,,,,,,j,red,5e861812b23b0a22ef59c4ee,2021-09-27_16h25.36.766,forced_choiceRT_color,2021.2.3,Win32,60.15037594,,,,,,,,2,Slow,long,f,0,2.1215,5,1,21,2,1,,,,,
,1.01,,,,,,,,,j,red,5e861812b23b0a22ef59c4ee,2021-09-27_16h25.36.766,forced_choiceRT_color,2021.2.3,Win32,60.15037594,,,,,,,,2,Slow,long,j,1,2.1043,5,2,22,2,1,,,,,
,0.72,,,,,,,,,d,orange,5e861812b23b0a22ef59c4ee,2021-09-27_16h25.36.766,forced_choiceRT_color,2021.2.3,Win32,60.15037594,,,,,,,,2,Fast,long,d,1,1.8738,5,3,23,0,1,,,,,
,1.47,,,,,,,,,f,blue,5e861812b23b0a22ef59c4ee,2021-09-27_16h25.36.766,forced_choiceRT_color,2021.2.3,Win32,60.15037594,,,,,,,,2,Ontime,long,j,0,2.0254,6,0,24,1,1,,,,,
,1.64,,,,,,,,,d,orange,5e861812b23b0a22ef59c4ee,2021-09-27_16h25.36.766,forced_choiceRT_color,2021.2.3,Win32,60.15037594,,,,,,,,2,Ontime,long,d,1,1.963599999,6,1,25,0,1,,,,,
,0.74,,,,,,,,,j,red,5e861812b23b0a22ef59c4ee,2021-09-27_16h25.36.766,forced_choiceRT_color,2021.2.3,Win32,60.15037594,,,,,,,,2,Ontime,long,j,1,1.9543,6,2,26,2,1,,,,,
,0.06,,,,,,,,,j,red,5e861812b23b0a22ef59c4ee,2021-09-27_16h25.36.766,forced_choiceRT_color,2021.2.3,Win32,60.15037594,,,,,,,,2,Slow,long,j,1,2.1223,6,3,27,2,1,,,,,
,1.97,,,,,,,,,j,red,5e861812b23b0a22ef59c4ee,2021-09-27_16h25.36.766,forced_choiceRT_color,2021.2.3,Win32,60.15037594,,,,,,,,2,Slow,long,d,0,2.3207,7,0,28,2,1,,,,,
,0.16,,,,,,,,,d,orange,5e861812b23b0a22ef59c4ee,2021-09-27_16h25.36.766,forced_choiceRT_color,2021.2.3,Win32,60.15037594,,,,,,,,2,Ontime,long,d,1,1.9413,7,1,29,0,1,,,,,
,1.12,,,,,,,,,f,blue,5e861812b23b0a22ef59c4ee,2021-09-27_16h25.36.766,forced_choiceRT_color,2021.2.3,Win32,60.15037594,,,,,,,,2,Ontime,long,f,1,2.0102,7,2,30,1,1,,,,,
,0.81,,,,,,,,,k,purple,5e861812b23b0a22ef59c4ee,2021-09-27_16h25.36.766,forced_choiceRT_color,2021.2.3,Win32,60.15037594,,,,,,,,2,Slow,long,k,1,2.1114,7,3,31,3,1,,,,,
,0.7,,,,,,,,,f,blue,5e861812b23b0a22ef59c4ee,2021-09-27_16h25.36.766,forced_choiceRT_color,2021.2.3,Win32,60.15037594,,,,,,,,2,Ontime,long,j,0,2.002,8,0,32,1,1,,,,,
,1.44,,,,,,,,,d,orange,5e861812b23b0a22ef59c4ee,2021-09-27_16h25.36.766,forced_choiceRT_color,2021.2.3,Win32,60.15037594,,,,,,,,2,Ontime,long,d,1,2.0383,8,1,33,0,1,,,,,
,0.27,,,,,,,,,k,purple,5e861812b23b0a22ef59c4ee,2021-09-27_16h25.36.766,forced_choiceRT_color,2021.2.3,Win32,60.15037594,,,,,,,,2,Ontime,long,k,1,1.9862,8,2,34,3,1,,,,,
,1.13,,,,,,,,,f,blue,5e861812b23b0a22ef59c4ee,2021-09-27_16h25.36.766,forced_choiceRT_color,2021.2.3,Win32,60.15037594,,,,,,,,2,Slow,long,f,1,2.1527,8,3,35,1,1,,,,,
,1.08,,,,,,,,,d,orange,5e861812b23b0a22ef59c4ee,2021-09-27_16h25.36.766,forced_choiceRT_color,2021.2.3,Win32,60.15037594,,,,,,,,2,Slow,long,d,1,2.1667,9,0,36,0,1,,,,,
,0.12,,,,,,,,,d,orange,5e861812b23b0a22ef59c4ee,2021-09-27_16h25.36.766,forced_choiceRT_color,2021.2.3,Win32,60.15037594,,,,,,,,2,Ontime,long,d,1,1.9672,9,1,37,0,1,,,,,
,1.24,,,,,,,,,j,red,5e861812b23b0a22ef59c4ee,2021-09-27_16h25.36.766,forced_choiceRT_color,2021.2.3,Win32,60.15037594,,,,,,,,2,Ontime,long,f,0,1.902400001,9,2,38,2,1,,,,,
,1.26,,,,,,,,,k,purple,5e861812b23b0a22ef59c4ee,2021-09-27_16h25.36.766,forced_choiceRT_color,2021.2.3,Win32,60.15037594,,,,,,,,2,Fast,long,d,0,1.6819,9,3,39,3,1,,,,,
,,,,,,,,,,,,5e861812b23b0a22ef59c4ee,2021-09-27_16h25.36.766,forced_choiceRT_color,2021.2.3,Win32,60.15037594,,,,,,,,,,,,,,,,,,,1,0,1,0,1
,0.06,,,,,,,,,j,red,5e861812b23b0a22ef59c4ee,2021-09-27_16h25.36.766,forced_choiceRT_color,2021.2.3,Win32,60.15037594,,,,,,,,3,Ontime,long,j,1,1.9181,0,0,0,2,1,,,,,
,1.48,,,,,,,,,j,red,5e861812b23b0a22ef59c4ee,2021-09-27_16h25.36.766,forced_choiceRT_color,2021.2.3,Win32,60.15037594,,,,,,,,3,Ontime,long,j,1,1.9478,0,1,1,2,1,,,,,
,0.83,,,,,,,,,j,red,5e861812b23b0a22ef59c4ee,2021-09-27_16h25.36.766,forced_choiceRT_color,2021.2.3,Win32,60.15037594,,,,,,,,3,Ontime,long,j,1,2.0393,0,2,2,2,1,,,,,
,1.08,,,,,,,,,k,purple,5e861812b23b0a22ef59c4ee,2021-09-27_16h25.36.766,forced_choiceRT_color,2021.2.3,Win32,60.15037594,,,,,,,,3,Ontime,long,f,0,2.046,0,3,3,3,1,,,,,
,1.25,,,,,,,,,d,orange,5e861812b23b0a22ef59c4ee,2021-09-27_16h25.36.766,forced_choiceRT_color,2021.2.3,Win32,60.15037594,,,,,,,,3,Slow,long,d,1,7.2038,1,0,4,0,1,,,,,
,1.91,,,,,,,,,f,blue,5e861812b23b0a22ef59c4ee,2021-09-27_16h25.36.766,forced_choiceRT_color,2021.2.3,Win32,60.15037594,,,,,,,,3,Ontime,long,k,0,2.0688,1,1,5,1,1,,,,,
,0.5,,,,,,,,,k,purple,5e861812b23b0a22ef59c4ee,2021-09-27_16h25.36.766,forced_choiceRT_color,2021.2.3,Win32,60.15037594,,,,,,,,3,Ontime,long,k,1,1.9728,1,2,6,3,1,,,,,
,0.69,,,,,,,,,j,red,5e861812b23b0a22ef59c4ee,2021-09-27_16h25.36.766,forced_choiceRT_color,2021.2.3,Win32,60.15037594,,,,,,,,3,Ontime,long,j,1,2.001900001,1,3,7,2,1,,,,,
,0.18,,,,,,,,,j,red,5e861812b23b0a22ef59c4ee,2021-09-27_16h25.36.766,forced_choiceRT_color,2021.2.3,Win32,60.15037594,,,,,,,,3,Ontime,long,j,1,2.095299999,2,0,8,2,1,,,,,
,1.11,,,,,,,,,d,orange,5e861812b23b0a22ef59c4ee,2021-09-27_16h25.36.766,forced_choiceRT_color,2021.2.3,Win32,60.15037594,,,,,,,,3,Ontime,long,d,1,2.063099999,2,1,9,0,1,,,,,
,1.21,,,,,,,,,k,purple,5e861812b23b0a22ef59c4ee,2021-09-27_16h25.36.766,forced_choiceRT_color,2021.2.3,Win32,60.15037594,,,,,,,,3,Ontime,long,j,0,1.902099999,2,2,10,3,1,,,,,
,1.42,,,,,,,,,j,red,5e861812b23b0a22ef59c4ee,2021-09-27_16h25.36.766,forced_choiceRT_color,2021.2.3,Win32,60.15037594,,,,,,,,3,Ontime,long,j,1,1.9852,2,3,11,2,1,,,,,
,1.47,,,,,,,,,j,red,5e861812b23b0a22ef59c4ee,2021-09-27_16h25.36.766,forced_choiceRT_color,2021.2.3,Win32,60.15037594,,,,,,,,3,Ontime,long,j,1,2.0063,3,0,12,2,1,,,,,
,0.38,,,,,,,,,d,orange,5e861812b23b0a22ef59c4ee,2021-09-27_16h25.36.766,forced_choiceRT_color,2021.2.3,Win32,60.15037594,,,,,,,,3,Ontime,long,j,0,2.019200001,3,1,13,0,1,,,,,
,1.96,,,,,,,,,k,purple,5e861812b23b0a22ef59c4ee,2021-09-27_16h25.36.766,forced_choiceRT_color,2021.2.3,Win32,60.15037594,,,,,,,,3,Ontime,long,f,0,2.045099999,3,2,14,3,1,,,,,
,1.08,,,,,,,,,k,purple,5e861812b23b0a22ef59c4ee,2021-09-27_16h25.36.766,forced_choiceRT_color,2021.2.3,Win32,60.15037594,,,,,,,,3,Ontime,long,k,1,2.0777,3,3,15,3,1,,,,,
,0.12,,,,,,,,,d,orange,5e861812b23b0a22ef59c4ee,2021-09-27_16h25.36.766,forced_choiceRT_color,2021.2.3,Win32,60.15037594,,,,,,,,3,Ontime,long,d,1,2.034099999,4,0,16,0,1,,,,,
,1.65,,,,,,,,,f,blue,5e861812b23b0a22ef59c4ee,2021-09-27_16h25.36.766,forced_choiceRT_color,2021.2.3,Win32,60.15037594,,,,,,,,3,Slow,long,f,1,2.1865,4,1,17,1,1,,,,,
,0.63,,,,,,,,,f,blue,5e861812b23b0a22ef59c4ee,2021-09-27_16h25.36.766,forced_choiceRT_color,2021.2.3,Win32,60.15037594,,,,,,,,3,Ontime,long,f,1,2.025900001,4,2,18,1,1,,,,,
,0.31,,,,,,,,,k,purple,5e861812b23b0a22ef59c4ee,2021-09-27_16h25.36.766,forced_choiceRT_color,2021.2.3,Win32,60.15037594,,,,,,,,3,Ontime,long,k,1,1.9569,4,3,19,3,1,,,,,
,1.3,,,,,,,,,j,red,5e861812b23b0a22ef59c4ee,2021-09-27_16h25.36.766,forced_choiceRT_color,2021.2.3,Win32,60.15037594,,,,,,,,3,Slow,long,j,1,2.121599999,5,0,20,2,1,,,,,
,0.43,,,,,,,,,d,orange,5e861812b23b0a22ef59c4ee,2021-09-27_16h25.36.766,forced_choiceRT_color,2021.2.3,Win32,60.15037594,,,,,,,,3,Ontime,long,d,1,1.9912,5,1,21,0,1,,,,,
,0.9,,,,,,,,,f,blue,5e861812b23b0a22ef59c4ee,2021-09-27_16h25.36.766,forced_choiceRT_color,2021.2.3,Win32,60.15037594,,,,,,,,3,Ontime,long,f,1,2.068,5,2,22,1,1,,,,,
,1.07,,,,,,,,,d,orange,5e861812b23b0a22ef59c4ee,2021-09-27_16h25.36.766,forced_choiceRT_color,2021.2.3,Win32,60.15037594,,,,,,,,3,Ontime,long,d,1,1.9538,5,3,23,0,1,,,,,
,1.72,,,,,,,,,f,blue,5e861812b23b0a22ef59c4ee,2021-09-27_16h25.36.766,forced_choiceRT_color,2021.2.3,Win32,60.15037594,,,,,,,,3,Ontime,long,d,0,2.0145,6,0,24,1,1,,,,,
,0.21,,,,,,,,,d,orange,5e861812b23b0a22ef59c4ee,2021-09-27_16h25.36.766,forced_choiceRT_color,2021.2.3,Win32,60.15037594,,,,,,,,3,Ontime,long,d,1,2.0507,6,1,25,0,1,,,,,
,1.01,,,,,,,,,d,orange,5e861812b23b0a22ef59c4ee,2021-09-27_16h25.36.766,forced_choiceRT_color,2021.2.3,Win32,60.15037594,,,,,,,,3,Slow,long,d,1,2.2027,6,2,26,0,1,,,,,
,0.74,,,,,,,,,f,blue,5e861812b23b0a22ef59c4ee,2021-09-27_16h25.36.766,forced_choiceRT_color,2021.2.3,Win32,60.15037594,,,,,,,,3,Ontime,long,f,1,2.003900001,6,3,27,1,1,,,,,
,1.74,,,,,,,,,f,blue,5e861812b23b0a22ef59c4ee,2021-09-27_16h25.36.766,forced_choiceRT_color,2021.2.3,Win32,60.15037594,,,,,,,,3,Ontime,long,k,0,2.0402,7,0,28,1,1,,,,,
,0.71,,,,,,,,,f,blue,5e861812b23b0a22ef59c4ee,2021-09-27_16h25.36.766,forced_choiceRT_color,2021.2.3,Win32,60.15037594,,,,,,,,3,Ontime,long,f,1,1.920200001,7,1,29,1,1,,,,,
,1.62,,,,,,,,,f,blue,5e861812b23b0a22ef59c4ee,2021-09-27_16h25.36.766,forced_choiceRT_color,2021.2.3,Win32,60.15037594,,,,,,,,3,Slow,long,f,1,2.1033,7,2,30,1,1,,,,,
,1.08,,,,,,,,,k,purple,5e861812b23b0a22ef59c4ee,2021-09-27_16h25.36.766,forced_choiceRT_color,2021.2.3,Win32,60.15037594,,,,,,,,3,Ontime,long,k,1,1.945,7,3,31,3,1,,,,,
,1.63,,,,,,,,,k,purple,5e861812b23b0a22ef59c4ee,2021-09-27_16h25.36.766,forced_choiceRT_color,2021.2.3,Win32,60.15037594,,,,,,,,3,Ontime,long,k,1,2.07,8,0,32,3,1,,,,,
,0.05,,,,,,,,,d,orange,5e861812b23b0a22ef59c4ee,2021-09-27_16h25.36.766,forced_choiceRT_color,2021.2.3,Win32,60.15037594,,,,,,,,3,Fast,long,d,1,1.7585,8,1,33,0,1,,,,,
,0.54,,,,,,,,,k,purple,5e861812b23b0a22ef59c4ee,2021-09-27_16h25.36.766,forced_choiceRT_color,2021.2.3,Win32,60.15037594,,,,,,,,3,Ontime,long,k,1,2.097,8,2,34,3,1,,,,,
,0.67,,,,,,,,,j,red,5e861812b23b0a22ef59c4ee,2021-09-27_16h25.36.766,forced_choiceRT_color,2021.2.3,Win32,60.15037594,,,,,,,,3,Ontime,long,j,1,1.9912,8,3,35,2,1,,,,,
,1.22,,,,,,,,,j,red,5e861812b23b0a22ef59c4ee,2021-09-27_16h25.36.766,forced_choiceRT_color,2021.2.3,Win32,60.15037594,,,,,,,,3,Slow,long,j,1,2.1111,9,0,36,2,1,,,,,
,1.56,,,,,,,,,f,blue,5e861812b23b0a22ef59c4ee,2021-09-27_16h25.36.766,forced_choiceRT_color,2021.2.3,Win32,60.15037594,,,,,,,,3,Slow,long,f,1,2.1789,9,1,37,1,1,,,,,
,0.22,,,,,,,,,k,purple,5e861812b23b0a22ef59c4ee,2021-09-27_16h25.36.766,forced_choiceRT_color,2021.2.3,Win32,60.15037594,,,,,,,,3,Fast,long,k,1,1.8474,9,2,38,3,1,,,,,
,1.82,,,,,,,,,d,orange,5e861812b23b0a22ef59c4ee,2021-09-27_16h25.36.766,forced_choiceRT_color,2021.2.3,Win32,60.15037594,,,,,,,,3,Ontime,long,d,1,2.026400001,9,3,39,0,1,,,,,
,,,,,,,,,,,,5e861812b23b0a22ef59c4ee,2021-09-27_16h25.36.766,forced_choiceRT_color,2021.2.3,Win32,60.15037594,,,,,,,,,,,,,,,,,,,2,0,2,0,1
,0.51,,,,,,,,,d,orange,5e861812b23b0a22ef59c4ee,2021-09-27_16h25.36.766,forced_choiceRT_color,2021.2.3,Win32,60.15037594,,,,,,,,4,Ontime,long,d,1,2.0329,0,0,0,0,1,,,,,
,1.1,,,,,,,,,k,purple,5e861812b23b0a22ef59c4ee,2021-09-27_16h25.36.766,forced_choiceRT_color,2021.2.3,Win32,60.15037594,,,,,,,,4,Slow,long,k,1,2.1822,0,1,1,3,1,,,,,
,1.28,,,,,,,,,k,purple,5e861812b23b0a22ef59c4ee,2021-09-27_16h25.36.766,forced_choiceRT_color,2021.2.3,Win32,60.15037594,,,,,,,,4,Ontime,long,k,1,2.056900001,0,2,2,3,1,,,,,
,1.71,,,,,,,,,j,red,5e861812b23b0a22ef59c4ee,2021-09-27_16h25.36.766,forced_choiceRT_color,2021.2.3,Win32,60.15037594,,,,,,,,4,Ontime,long,f,0,2.086,0,3,3,2,1,,,,,
,0.33,,,,,,,,,k,purple,5e861812b23b0a22ef59c4ee,2021-09-27_16h25.36.766,forced_choiceRT_color,2021.2.3,Win32,60.15037594,,,,,,,,4,Ontime,long,k,1,2.0739,1,0,4,3,1,,,,,
,0.63,,,,,,,,,d,orange,5e861812b23b0a22ef59c4ee,2021-09-27_16h25.36.766,forced_choiceRT_color,2021.2.3,Win32,60.15037594,,,,,,,,4,Ontime,long,d,1,2.038099999,1,1,5,0,1,,,,,
,1.79,,,,,,,,,k,purple,5e861812b23b0a22ef59c4ee,2021-09-27_16h25.36.766,forced_choiceRT_color,2021.2.3,Win32,60.15037594,,,,,,,,4,Slow,long,d,0,2.136099999,1,2,6,3,1,,,,,
,0.69,,,,,,,,,d,orange,5e861812b23b0a22ef59c4ee,2021-09-27_16h25.36.766,forced_choiceRT_color,2021.2.3,Win32,60.15037594,,,,,,,,4,Ontime,long,d,1,1.9095,1,3,7,0,1,,,,,
,0.86,,,,,,,,,d,orange,5e861812b23b0a22ef59c4ee,2021-09-27_16h25.36.766,forced_choiceRT_color,2021.2.3,Win32,60.15037594,,,,,,,,4,Ontime,long,d,1,2.0677,2,0,8,0,1,,,,,
,0.89,,,,,,,,,d,orange,5e861812b23b0a22ef59c4ee,2021-09-27_16h25.36.766,forced_choiceRT_color,2021.2.3,Win32,60.15037594,,,,,,,,4,Ontime,long,d,1,2.0197,2,1,9,0,1,,,,,
,1.08,,,,,,,,,k,purple,5e861812b23b0a22ef59c4ee,2021-09-27_16h25.36.766,forced_choiceRT_color,2021.2.3,Win32,60.15037594,,,,,,,,4,Ontime,long,k,1,1.99,2,2,10,3,1,,,,,
,1.43,,,,,,,,,j,red,5e861812b23b0a22ef59c4ee,2021-09-27_16h25.36.766,forced_choiceRT_color,2021.2.3,Win32,60.15037594,,,,,,,,4,Slow,long,f,0,2.101799999,2,3,11,2,1,,,,,
,1.9,,,,,,,,,k,purple,5e861812b23b0a22ef59c4ee,2021-09-27_16h25.36.766,forced_choiceRT_color,2021.2.3,Win32,60.15037594,,,,,,,,4,Slow,long,j,0,2.1344,3,0,12,3,1,,,,,
,0.41,,,,,,,,,j,red,5e861812b23b0a22ef59c4ee,2021-09-27_16h25.36.766,forced_choiceRT_color,2021.2.3,Win32,60.15037594,,,,,,,,4,Ontime,long,j,1,2.0182,3,1,13,2,1,,,,,
,1.52,,,,,,,,,f,blue,5e861812b23b0a22ef59c4ee,2021-09-27_16h25.36.766,forced_choiceRT_color,2021.2.3,Win32,60.15037594,,,,,,,,4,Slow,long,f,1,2.1061,3,2,14,1,1,,,,,
,1.78,,,,,,,,,f,blue,5e861812b23b0a22ef59c4ee,2021-09-27_16h25.36.766,forced_choiceRT_color,2021.2.3,Win32,60.15037594,,,,,,,,4,Slow,long,f,1,2.2065,3,3,15,1,1,,,,,
,0.89,,,,,,,,,j,red,5e861812b23b0a22ef59c4ee,2021-09-27_16h25.36.766,forced_choiceRT_color,2021.2.3,Win32,60.15037594,,,,,,,,4,Ontime,long,j,1,2.0563,4,0,16,2,1,,,,,
,0.23,,,,,,,,,k,purple,5e861812b23b0a22ef59c4ee,2021-09-27_16h25.36.766,forced_choiceRT_color,2021.2.3,Win32,60.15037594,,,,,,,,4,Fast,long,k,1,1.807099999,4,1,17,3,1,,,,,
,1.44,,,,,,,,,j,red,5e861812b23b0a22ef59c4ee,2021-09-27_16h25.36.766,forced_choiceRT_color,2021.2.3,Win32,60.15037594,,,,,,,,4,Ontime,long,j,1,1.9505,4,2,18,2,1,,,,,
,0.21,,,,,,,,,k,purple,5e861812b23b0a22ef59c4ee,2021-09-27_16h25.36.766,forced_choiceRT_color,2021.2.3,Win32,60.15037594,,,,,,,,4,Ontime,long,k,1,2.0721,4,3,19,3,1,,,,,
,1.74,,,,,,,,,f,blue,5e861812b23b0a22ef59c4ee,2021-09-27_16h25.36.766,forced_choiceRT_color,2021.2.3,Win32,60.15037594,,,,,,,,4,Ontime,long,d,0,2.0068,5,0,20,1,1,,,,,
,1.56,,,,,,,,,k,purple,5e861812b23b0a22ef59c4ee,2021-09-27_16h25.36.766,forced_choiceRT_color,2021.2.3,Win32,60.15037594,,,,,,,,4,Slow,long,k,1,2.150900001,5,1,21,3,1,,,,,
,0.75,,,,,,,,,f,blue,5e861812b23b0a22ef59c4ee,2021-09-27_16h25.36.766,forced_choiceRT_color,2021.2.3,Win32,60.15037594,,,,,,,,4,Ontime,long,f,1,2.0193,5,2,22,1,1,,,,,
,0.22,,,,,,,,,d,orange,5e861812b23b0a22ef59c4ee,2021-09-27_16h25.36.766,forced_choiceRT_color,2021.2.3,Win32,60.15037594,,,,,,,,4,Fast,long,d,1,1.8843,5,3,23,0,1,,,,,
,0.74,,,,,,,,,f,blue,5e861812b23b0a22ef59c4ee,2021-09-27_16h25.36.766,forced_choiceRT_color,2021.2.3,Win32,60.15037594,,,,,,,,4,Ontime,long,f,1,2.0033,6,0,24,1,1,,,,,
,0.47,,,,,,,,,d,orange,5e861812b23b0a22ef59c4ee,2021-09-27_16h25.36.766,forced_choiceRT_color,2021.2.3,Win32,60.15037594,,,,,,,,4,Slow,long,d,1,2.137200001,6,1,25,0,1,,,,,
,0.82,,,,,,,,,j,red,5e861812b23b0a22ef59c4ee,2021-09-27_16h25.36.766,forced_choiceRT_color,2021.2.3,Win32,60.15037594,,,,,,,,4,Fast,long,j,1,1.8381,6,2,26,2,1,,,,,
,0.58,,,,,,,,,d,orange,5e861812b23b0a22ef59c4ee,2021-09-27_16h25.36.766,forced_choiceRT_color,2021.2.3,Win32,60.15037594,,,,,,,,4,Ontime,long,d,1,2.0716,6,3,27,0,1,,,,,
,1.21,,,,,,,,,f,blue,5e861812b23b0a22ef59c4ee,2021-09-27_16h25.36.766,forced_choiceRT_color,2021.2.3,Win32,60.15037594,,,,,,,,4,Ontime,long,j,0,2.0195,7,0,28,1,1,,,,,
,1.95,,,,,,,,,j,red,5e861812b23b0a22ef59c4ee,2021-09-27_16h25.36.766,forced_choiceRT_color,2021.2.3,Win32,60.15037594,,,,,,,,4,Ontime,long,f,0,2.0416,7,1,29,2,1,,,,,
,1.81,,,,,,,,,f,blue,5e861812b23b0a22ef59c4ee,2021-09-27_16h25.36.766,forced_choiceRT_color,2021.2.3,Win32,60.15037594,,,,,,,,4,Ontime,long,f,1,2.0201,7,2,30,1,1,,,,,
,0.98,,,,,,,,,k,purple,5e861812b23b0a22ef59c4ee,2021-09-27_16h25.36.766,forced_choiceRT_color,2021.2.3,Win32,60.15037594,,,,,,,,4,Fast,long,k,1,1.8238,7,3,31,3,1,,,,,
,0.08,,,,,,,,,f,blue,5e861812b23b0a22ef59c4ee,2021-09-27_16h25.36.766,forced_choiceRT_color,2021.2.3,Win32,60.15037594,,,,,,,,4,Slow,long,j,0,2.1762,8,0,32,1,1,,,,,
,0.63,,,,,,,,,j,red,5e861812b23b0a22ef59c4ee,2021-09-27_16h25.36.766,forced_choiceRT_color,2021.2.3,Win32,60.15037594,,,,,,,,4,Slow,long,j,1,2.262,8,1,33,2,1,,,,,
,0.66,,,,,,,,,f,blue,5e861812b23b0a22ef59c4ee,2021-09-27_16h25.36.766,forced_choiceRT_color,2021.2.3,Win32,60.15037594,,,,,,,,4,Ontime,long,f,1,2.056,8,2,34,1,1,,,,,
,0.57,,,,,,,,,d,orange,5e861812b23b0a22ef59c4ee,2021-09-27_16h25.36.766,forced_choiceRT_color,2021.2.3,Win32,60.15037594,,,,,,,,4,Ontime,long,d,1,1.9189,8,3,35,0,1,,,,,
,0.04,,,,,,,,,d,orange,5e861812b23b0a22ef59c4ee,2021-09-27_16h25.36.766,forced_choiceRT_color,2021.2.3,Win32,60.15037594,,,,,,,,4,Fast,long,d,1,1.8905,9,0,36,0,1,,,,,
,1.84,,,,,,,,,j,red,5e861812b23b0a22ef59c4ee,2021-09-27_16h25.36.766,forced_choiceRT_color,2021.2.3,Win32,60.15037594,,,,,,,,4,Slow,long,j,1,2.2129,9,1,37,2,1,,,,,
,1.44,,,,,,,,,f,blue,5e861812b23b0a22ef59c4ee,2021-09-27_16h25.36.766,forced_choiceRT_color,2021.2.3,Win32,60.15037594,,,,,,,,4,Ontime,long,d,0,2.0288,9,2,38,1,1,,,,,
,1.73,,,,,,,,,j,red,5e861812b23b0a22ef59c4ee,2021-09-27_16h25.36.766,forced_choiceRT_color,2021.2.3,Win32,60.15037594,,,,,,,,4,Slow,long,j,1,2.221200001,9,3,39,2,1,,,,,
,,,,,,,,,,,,5e861812b23b0a22ef59c4ee,2021-09-27_16h25.36.766,forced_choiceRT_color,2021.2.3,Win32,60.15037594,,,,,,,,,,,,,,,,,,,3,0,3,0,1
,1.19,,,,,,,,,f,blue,5e861812b23b0a22ef59c4ee,2021-09-27_16h25.36.766,forced_choiceRT_color,2021.2.3,Win32,60.15037594,,,,,,,,5,Ontime,long,f,1,1.9543,0,0,0,1,1,,,,,
,1.02,,,,,,,,,k,purple,5e861812b23b0a22ef59c4ee,2021-09-27_16h25.36.766,forced_choiceRT_color,2021.2.3,Win32,60.15037594,,,,,,,,5,Fast,long,j,0,1.6857,0,1,1,3,1,,,,,
,0.86,,,,,,,,,d,orange,5e861812b23b0a22ef59c4ee,2021-09-27_16h25.36.766,forced_choiceRT_color,2021.2.3,Win32,60.15037594,,,,,,,,5,Ontime,long,d,1,2.0858,0,2,2,0,1,,,,,
,0.73,,,,,,,,,k,purple,5e861812b23b0a22ef59c4ee,2021-09-27_16h25.36.766,forced_choiceRT_color,2021.2.3,Win32,60.15037594,,,,,,,,5,Ontime,long,k,1,1.9347,0,3,3,3,1,,,,,
,0.45,,,,,,,,,d,orange,5e861812b23b0a22ef59c4ee,2021-09-27_16h25.36.766,forced_choiceRT_color,2021.2.3,Win32,60.15037594,,,,,,,,5,Fast,long,d,1,1.7888,1,0,4,0,1,,,,,
,0.9,,,,,,,,,j,red,5e861812b23b0a22ef59c4ee,2021-09-27_16h25.36.766,forced_choiceRT_color,2021.2.3,Win32,60.15037594,,,,,,,,5,Fast,long,k,0,1.8959,1,1,5,2,1,,,,,
,1.48,,,,,,,,,j,red,5e861812b23b0a22ef59c4ee,2021-09-27_16h25.36.766,forced_choiceRT_color,2021.2.3,Win32,60.15037594,,,,,,,,5,Ontime,long,j,1,2.0869,1,2,6,2,1,,,,,
,1.98,,,,,,,,,k,purple,5e861812b23b0a22ef59c4ee,2021-09-27_16h25.36.766,forced_choiceRT_color,2021.2.3,Win32,60.15037594,,,,,,,,5,Fast,long,d,0,0.6419,1,3,7,3,1,,,,,
,1.14,,,,,,,,,f,blue,5e861812b23b0a22ef59c4ee,2021-09-27_16h25.36.766,forced_choiceRT_color,2021.2.3,Win32,60.15037594,,,,,,,,5,Ontime,long,f,1,2.087299999,2,0,8,1,1,,,,,
,1.84,,,,,,,,,d,orange,5e861812b23b0a22ef59c4ee,2021-09-27_16h25.36.766,forced_choiceRT_color,2021.2.3,Win32,60.15037594,,,,,,,,5,Ontime,long,j,0,2.0781,2,1,9,0,1,,,,,
,0.8,,,,,,,,,k,purple,5e861812b23b0a22ef59c4ee,2021-09-27_16h25.36.766,forced_choiceRT_color,2021.2.3,Win32,60.15037594,,,,,,,,5,Ontime,long,k,1,1.9059,2,2,10,3,1,,,,,
,0.53,,,,,,,,,f,blue,5e861812b23b0a22ef59c4ee,2021-09-27_16h25.36.766,forced_choiceRT_color,2021.2.3,Win32,60.15037594,,,,,,,,5,Ontime,long,f,1,2.087599999,2,3,11,1,1,,,,,
,0.45,,,,,,,,,f,blue,5e861812b23b0a22ef59c4ee,2021-09-27_16h25.36.766,forced_choiceRT_color,2021.2.3,Win32,60.15037594,,,,,,,,5,Fast,long,f,1,1.892400001,3,0,12,1,1,,,,,
,1.2,,,,,,,,,d,orange,5e861812b23b0a22ef59c4ee,2021-09-27_16h25.36.766,forced_choiceRT_color,2021.2.3,Win32,60.15037594,,,,,,,,5,Slow,long,d,1,2.219900001,3,1,13,0,1,,,,,
,1.76,,,,,,,,,d,orange,5e861812b23b0a22ef59c4ee,2021-09-27_16h25.36.766,forced_choiceRT_color,2021.2.3,Win32,60.15037594,,,,,,,,5,Ontime,long,j,0,1.9545,3,2,14,0,1,,,,,
,0.23,,,,,,,,,f,blue,5e861812b23b0a22ef59c4ee,2021-09-27_16h25.36.766,forced_choiceRT_color,2021.2.3,Win32,60.15037594,,,,,,,,5,Fast,long,f,1,0.5408,3,3,15,1,1,,,,,
,0.48,,,,,,,,,f,blue,5e861812b23b0a22ef59c4ee,2021-09-27_16h25.36.766,forced_choiceRT_color,2021.2.3,Win32,60.15037594,,,,,,,,5,Fast,long,f,1,1.748700001,4,0,16,1,1,,,,,
,1.8,,,,,,,,,d,orange,5e861812b23b0a22ef59c4ee,2021-09-27_16h25.36.766,forced_choiceRT_color,2021.2.3,Win32,60.15037594,,,,,,,,5,Slow,long,d,1,2.1918,4,1,17,0,1,,,,,
,0.21,,,,,,,,,k,purple,5e861812b23b0a22ef59c4ee,2021-09-27_16h25.36.766,forced_choiceRT_color,2021.2.3,Win32,60.15037594,,,,,,,,5,Ontime,long,k,1,1.9879,4,2,18,3,1,,,,,
,1.49,,,,,,,,,d,orange,5e861812b23b0a22ef59c4ee,2021-09-27_16h25.36.766,forced_choiceRT_color,2021.2.3,Win32,60.15037594,,,,,,,,5,Slow,long,d,1,2.1705,4,3,19,0,1,,,,,
,0.87,,,,,,,,,j,red,5e861812b23b0a22ef59c4ee,2021-09-27_16h25.36.766,forced_choiceRT_color,2021.2.3,Win32,60.15037594,,,,,,,,5,Fast,long,d,0,1.588599999,5,0,20,2,1,,,,,
,0.59,,,,,,,,,j,red,5e861812b23b0a22ef59c4ee,2021-09-27_16h25.36.766,forced_choiceRT_color,2021.2.3,Win32,60.15037594,,,,,,,,5,Fast,long,f,0,1.8456,5,1,21,2,1,,,,,
,0.92,,,,,,,,,f,blue,5e861812b23b0a22ef59c4ee,2021-09-27_16h25.36.766,forced_choiceRT_color,2021.2.3,Win32,60.15037594,,,,,,,,5,Ontime,long,k,0,1.9213,5,2,22,1,1,,,,,
,1.88,,,,,,,,,j,red,5e861812b23b0a22ef59c4ee,2021-09-27_16h25.36.766,forced_choiceRT_color,2021.2.3,Win32,60.15037594,,,,,,,,5,Ontime,long,f,0,1.9381,5,3,23,2,1,,,,,
,0.41,,,,,,,,,f,blue,5e861812b23b0a22ef59c4ee,2021-09-27_16h25.36.766,forced_choiceRT_color,2021.2.3,Win32,60.15037594,,,,,,,,5,Fast,long,f,1,1.8379,6,0,24,1,1,,,,,
,0.75,,,,,,,,,j,red,5e861812b23b0a22ef59c4ee,2021-09-27_16h25.36.766,forced_choiceRT_color,2021.2.3,Win32,60.15037594,,,,,,,,5,Ontime,long,j,1,1.9278,6,1,25,2,1,,,,,
,0.92,,,,,,,,,d,orange,5e861812b23b0a22ef59c4ee,2021-09-27_16h25.36.766,forced_choiceRT_color,2021.2.3,Win32,60.15037594,,,,,,,,5,Ontime,long,d,1,2.006700001,6,2,26,0,1,,,,,
,1.88,,,,,,,,,j,red,5e861812b23b0a22ef59c4ee,2021-09-27_16h25.36.766,forced_choiceRT_color,2021.2.3,Win32,60.15037594,,,,,,,,5,Ontime,long,f,0,2.0107,6,3,27,2,1,,,,,
,1.53,,,,,,,,,d,orange,5e861812b23b0a22ef59c4ee,2021-09-27_16h25.36.766,forced_choiceRT_color,2021.2.3,Win32,60.15037594,,,,,,,,5,Fast,long,f,0,1.878,7,0,28,0,1,,,,,
,1.71,,,,,,,,,k,purple,5e861812b23b0a22ef59c4ee,2021-09-27_16h25.36.766,forced_choiceRT_color,2021.2.3,Win32,60.15037594,,,,,,,,5,Ontime,long,d,0,1.937400001,7,1,29,3,1,,,,,
,1.92,,,,,,,,,j,red,5e861812b23b0a22ef59c4ee,2021-09-27_16h25.36.766,forced_choiceRT_color,2021.2.3,Win32,60.15037594,,,,,,,,5,Slow,long,j,1,2.3061,7,2,30,2,1,,,,,
,0.14,,,,,,,,,j,red,5e861812b23b0a22ef59c4ee,2021-09-27_16h25.36.766,forced_choiceRT_color,2021.2.3,Win32,60.15037594,,,,,,,,5,Fast,long,j,1,1.788599999,7,3,31,2,1,,,,,
,0.91,,,,,,,,,j,red,5e861812b23b0a22ef59c4ee,2021-09-27_16h25.36.766,forced_choiceRT_color,2021.2.3,Win32,60.15037594,,,,,,,,5,Ontime,long,j,1,1.9536,8,0,32,2,1,,,,,
,1.87,,,,,,,,,k,purple,5e861812b23b0a22ef59c4ee,2021-09-27_16h25.36.766,forced_choiceRT_color,2021.2.3,Win32,60.15037594,,,,,,,,5,Ontime,long,f,0,2.0677,8,1,33,3,1,,,,,
,1.5,,,,,,,,,k,purple,5e861812b23b0a22ef59c4ee,2021-09-27_16h25.36.766,forced_choiceRT_color,2021.2.3,Win32,60.15037594,,,,,,,,5,Ontime,long,f,0,1.9094,8,2,34,3,1,,,,,
,1.95,,,,,,,,,k,purple,5e861812b23b0a22ef59c4ee,2021-09-27_16h25.36.766,forced_choiceRT_color,2021.2.3,Win32,60.15037594,,,,,,,,5,Ontime,long,k,1,2.0215,8,3,35,3,1,,,,,
,0.2,,,,,,,,,f,blue,5e861812b23b0a22ef59c4ee,2021-09-27_16h25.36.766,forced_choiceRT_color,2021.2.3,Win32,60.15037594,,,,,,,,5,Ontime,long,j,0,1.905400001,9,0,36,1,1,,,,,
,1.16,,,,,,,,,d,orange,5e861812b23b0a22ef59c4ee,2021-09-27_16h25.36.766,forced_choiceRT_color,2021.2.3,Win32,60.15037594,,,,,,,,5,Ontime,long,d,1,1.9692,9,1,37,0,1,,,,,
,1.62,,,,,,,,,f,blue,5e861812b23b0a22ef59c4ee,2021-09-27_16h25.36.766,forced_choiceRT_color,2021.2.3,Win32,60.15037594,,,,,,,,5,Fast,long,d,0,1.8687,9,2,38,1,1,,,,,
,1.92,,,,,,,,,k,purple,5e861812b23b0a22ef59c4ee,2021-09-27_16h25.36.766,forced_choiceRT_color,2021.2.3,Win32,60.15037594,,,,,,,,5,Ontime,long,f,0,1.9548,9,3,39,3,1,,,,,
,,,,,,,,,,,,5e861812b23b0a22ef59c4ee,2021-09-27_16h25.36.766,forced_choiceRT_color,2021.2.3,Win32,60.15037594,,,,,,,,,,,,,,,,,,,4,0,4,0,1
,1.42,,,,,,,,,d,orange,5e861812b23b0a22ef59c4ee,2021-09-27_16h25.36.766,forced_choiceRT_color,2021.2.3,Win32,60.15037594,,,,,,,,6,Fast,long,d,1,1.872,0,0,0,0,1,,,,,
,1.41,,,,,,,,,k,purple,5e861812b23b0a22ef59c4ee,2021-09-27_16h25.36.766,forced_choiceRT_color,2021.2.3,Win32,60.15037594,,,,,,,,6,Ontime,long,k,1,1.938900001,0,1,1,3,1,,,,,
,1.76,,,,,,,,,k,purple,5e861812b23b0a22ef59c4ee,2021-09-27_16h25.36.766,forced_choiceRT_color,2021.2.3,Win32,60.15037594,,,,,,,,6,Ontime,long,k,1,2.0263,0,2,2,3,1,,,,,
,0.77,,,,,,,,,k,purple,5e861812b23b0a22ef59c4ee,2021-09-27_16h25.36.766,forced_choiceRT_color,2021.2.3,Win32,60.15037594,,,,,,,,6,Fast,long,k,1,1.8372,0,3,3,3,1,,,,,
,1.05,,,,,,,,,k,purple,5e861812b23b0a22ef59c4ee,2021-09-27_16h25.36.766,forced_choiceRT_color,2021.2.3,Win32,60.15037594,,,,,,,,6,Ontime,long,k,1,1.9529,1,0,4,3,1,,,,,
,1.47,,,,,,,,,j,red,5e861812b23b0a22ef59c4ee,2021-09-27_16h25.36.766,forced_choiceRT_color,2021.2.3,Win32,60.15037594,,,,,,,,6,Ontime,long,f,0,1.9546,1,1,5,2,1,,,,,
,0.83,,,,,,,,,k,purple,5e861812b23b0a22ef59c4ee,2021-09-27_16h25.36.766,forced_choiceRT_color,2021.2.3,Win32,60.15037594,,,,,,,,6,Slow,long,k,1,2.1165,1,2,6,3,1,,,,,
,1.43,,,,,,,,,j,red,5e861812b23b0a22ef59c4ee,2021-09-27_16h25.36.766,forced_choiceRT_color,2021.2.3,Win32,60.15037594,,,,,,,,6,Ontime,long,j,1,1.9051,1,3,7,2,1,,,,,
,0.58,,,,,,,,,j,red,5e861812b23b0a22ef59c4ee,2021-09-27_16h25.36.766,forced_choiceRT_color,2021.2.3,Win32,60.15037594,,,,,,,,6,Ontime,long,j,1,2.0368,2,0,8,2,1,,,,,
,0.84,,,,,,,,,d,orange,5e861812b23b0a22ef59c4ee,2021-09-27_16h25.36.766,forced_choiceRT_color,2021.2.3,Win32,60.15037594,,,,,,,,6,Ontime,long,d,1,2.0953,2,1,9,0,1,,,,,
,1.73,,,,,,,,,k,purple,5e861812b23b0a22ef59c4ee,2021-09-27_16h25.36.766,forced_choiceRT_color,2021.2.3,Win32,60.15037594,,,,,,,,6,Slow,long,k,1,2.119599999,2,2,10,3,1,,,,,
,0.09,,,,,,,,,f,blue,5e861812b23b0a22ef59c4ee,2021-09-27_16h25.36.766,forced_choiceRT_color,2021.2.3,Win32,60.15037594,,,,,,,,6,Fast,long,f,1,1.5216,2,3,11,1,1,,,,,
,1.88,,,,,,,,,d,orange,5e861812b23b0a22ef59c4ee,2021-09-27_16h25.36.766,forced_choiceRT_color,2021.2.3,Win32,60.15037594,,,,,,,,6,Ontime,long,d,1,2.0864,3,0,12,0,1,,,,,
,0.08,,,,,,,,,f,blue,5e861812b23b0a22ef59c4ee,2021-09-27_16h25.36.766,forced_choiceRT_color,2021.2.3,Win32,60.15037594,,,,,,,,6,Ontime,long,f,1,1.9533,3,1,13,1,1,,,,,
,1.21,,,,,,,,,j,red,5e861812b23b0a22ef59c4ee,2021-09-27_16h25.36.766,forced_choiceRT_color,2021.2.3,Win32,60.15037594,,,,,,,,6,Slow,long,j,1,2.1886,3,2,14,2,1,,,,,
,0.1,,,,,,,,,d,orange,5e861812b23b0a22ef59c4ee,2021-09-27_16h25.36.766,forced_choiceRT_color,2021.2.3,Win32,60.15037594,,,,,,,,6,Fast,long,d,1,1.8436,3,3,15,0,1,,,,,
,0.95,,,,,,,,,f,blue,5e861812b23b0a22ef59c4ee,2021-09-27_16h25.36.766,forced_choiceRT_color,2021.2.3,Win32,60.15037594,,,,,,,,6,Ontime,long,f,1,2.010599999,4,0,16,1,1,,,,,
,1.46,,,,,,,,,j,red,5e861812b23b0a22ef59c4ee,2021-09-27_16h25.36.766,forced_choiceRT_color,2021.2.3,Win32,60.15037594,,,,,,,,6,Ontime,long,j,1,2.0761,4,1,17,2,1,,,,,
,0.86,,,,,,,,,k,purple,5e861812b23b0a22ef59c4ee,2021-09-27_16h25.36.766,forced_choiceRT_color,2021.2.3,Win32,60.15037594,,,,,,,,6,Fast,long,k,1,1.8727,4,2,18,3,1,,,,,
,0.65,,,,,,,,,f,blue,5e861812b23b0a22ef59c4ee,2021-09-27_16h25.36.766,forced_choiceRT_color,2021.2.3,Win32,60.15037594,,,,,,,,6,Ontime,long,j,0,1.919900001,4,3,19,1,1,,,,,
,1.15,,,,,,,,,k,purple,5e861812b23b0a22ef59c4ee,2021-09-27_16h25.36.766,forced_choiceRT_color,2021.2.3,Win32,60.15037594,,,,,,,,6,Ontime,long,k,1,1.922,5,0,20,3,1,,,,,
,0.58,,,,,,,,,f,blue,5e861812b23b0a22ef59c4ee,2021-09-27_16h25.36.766,forced_choiceRT_color,2021.2.3,Win32,60.15037594,,,,,,,,6,Ontime,long,j,0,1.901799999,5,1,21,1,1,,,,,
,1.46,,,,,,,,,j,red,5e861812b23b0a22ef59c4ee,2021-09-27_16h25.36.766,forced_choiceRT_color,2021.2.3,Win32,60.15037594,,,,,,,,6,Ontime,long,j,1,2.0268,5,2,22,2,1,,,,,
,0.86,,,,,,,,,f,blue,5e861812b23b0a22ef59c4ee,2021-09-27_16h25.36.766,forced_choiceRT_color,2021.2.3,Win32,60.15037594,,,,,,,,6,Ontime,long,f,1,1.927599999,5,3,23,1,1,,,,,
,0.49,,,,,,,,,d,orange,5e861812b23b0a22ef59c4ee,2021-09-27_16h25.36.766,forced_choiceRT_color,2021.2.3,Win32,60.15037594,,,,,,,,6,Fast,long,d,1,1.8033,6,0,24,0,1,,,,,
,0.48,,,,,,,,,f,blue,5e861812b23b0a22ef59c4ee,2021-09-27_16h25.36.766,forced_choiceRT_color,2021.2.3,Win32,60.15037594,,,,,,,,6,Slow,long,f,1,2.1082,6,1,25,1,1,,,,,
,1.03,,,,,,,,,d,orange,5e861812b23b0a22ef59c4ee,2021-09-27_16h25.36.766,forced_choiceRT_color,2021.2.3,Win32,60.15037594,,,,,,,,6,Slow,long,d,1,2.189,6,2,26,0,1,,,,,
,1.9,,,,,,,,,j,red,5e861812b23b0a22ef59c4ee,2021-09-27_16h25.36.766,forced_choiceRT_color,2021.2.3,Win32,60.15037594,,,,,,,,6,Ontime,long,f,0,2.0388,6,3,27,2,1,,,,,
,1.99,,,,,,,,,j,red,5e861812b23b0a22ef59c4ee,2021-09-27_16h25.36.766,forced_choiceRT_color,2021.2.3,Win32,60.15037594,,,,,,,,6,Ontime,long,j,1,2.0356,7,0,28,2,1,,,,,
,0.46,,,,,,,,,j,red,5e861812b23b0a22ef59c4ee,2021-09-27_16h25.36.766,forced_choiceRT_color,2021.2.3,Win32,60.15037594,,,,,,,,6,Slow,long,j,1,2.2695,7,1,29,2,1,,,,,
,1,,,,,,,,,k,purple,5e861812b23b0a22ef59c4ee,2021-09-27_16h25.36.766,forced_choiceRT_color,2021.2.3,Win32,60.15037594,,,,,,,,6,Fast,long,k,1,1.8632,7,2,30,3,1,,,,,
,0.7,,,,,,,,,j,red,5e861812b23b0a22ef59c4ee,2021-09-27_16h25.36.766,forced_choiceRT_color,2021.2.3,Win32,60.15037594,,,,,,,,6,Fast,long,j,1,1.8614,7,3,31,2,1,,,,,
,0.95,,,,,,,,,f,blue,5e861812b23b0a22ef59c4ee,2021-09-27_16h25.36.766,forced_choiceRT_color,2021.2.3,Win32,60.15037594,,,,,,,,6,Ontime,long,f,1,2.0679,8,0,32,1,1,,,,,
,0.31,,,,,,,,,d,orange,5e861812b23b0a22ef59c4ee,2021-09-27_16h25.36.766,forced_choiceRT_color,2021.2.3,Win32,60.15037594,,,,,,,,6,Fast,long,d,1,1.5872,8,1,33,0,1,,,,,
,0.39,,,,,,,,,f,blue,5e861812b23b0a22ef59c4ee,2021-09-27_16h25.36.766,forced_choiceRT_color,2021.2.3,Win32,60.15037594,,,,,,,,6,Fast,long,f,1,1.677700001,8,2,34,1,1,,,,,
,0.2,,,,,,,,,f,blue,5e861812b23b0a22ef59c4ee,2021-09-27_16h25.36.766,forced_choiceRT_color,2021.2.3,Win32,60.15037594,,,,,,,,6,Fast,long,f,1,1.7595,8,3,35,1,1,,,,,
,0.21,,,,,,,,,k,purple,5e861812b23b0a22ef59c4ee,2021-09-27_16h25.36.766,forced_choiceRT_color,2021.2.3,Win32,60.15037594,,,,,,,,6,Fast,long,j,0,1.3205,9,0,36,3,1,,,,,
,0.62,,,,,,,,,d,orange,5e861812b23b0a22ef59c4ee,2021-09-27_16h25.36.766,forced_choiceRT_color,2021.2.3,Win32,60.15037594,,,,,,,,6,Fast,long,d,1,1.7023,9,1,37,0,1,,,,,
,1.68,,,,,,,,,d,orange,5e861812b23b0a22ef59c4ee,2021-09-27_16h25.36.766,forced_choiceRT_color,2021.2.3,Win32,60.15037594,,,,,,,,6,Slow,long,d,1,2.1427,9,2,38,0,1,,,,,
,1.28,,,,,,,,,d,orange,5e861812b23b0a22ef59c4ee,2021-09-27_16h25.36.766,forced_choiceRT_color,2021.2.3,Win32,60.15037594,,,,,,,,6,Fast,long,d,1,1.884,9,3,39,0,1,,,,,
,,,,,,,,,,,,5e861812b23b0a22ef59c4ee,2021-09-27_16h25.36.766,forced_choiceRT_color,2021.2.3,Win32,60.15037594,,,,,,,,,,,,,,,,,,,5,0,5,0,1
,1.33,,,,,,,,,f,blue,5e861812b23b0a22ef59c4ee,2021-09-27_16h25.36.766,forced_choiceRT_color,2021.2.3,Win32,60.15037594,,,,,,,,7,Ontime,long,f,1,2.013,0,0,0,1,1,,,,,
,1.1,,,,,,,,,k,purple,5e861812b23b0a22ef59c4ee,2021-09-27_16h25.36.766,forced_choiceRT_color,2021.2.3,Win32,60.15037594,,,,,,,,7,Ontime,long,k,1,1.9043,0,1,1,3,1,,,,,
,1.25,,,,,,,,,k,purple,5e861812b23b0a22ef59c4ee,2021-09-27_16h25.36.766,forced_choiceRT_color,2021.2.3,Win32,60.15037594,,,,,,,,7,Ontime,long,k,1,1.9912,0,2,2,3,1,,,,,
,1.77,,,,,,,,,k,purple,5e861812b23b0a22ef59c4ee,2021-09-27_16h25.36.766,forced_choiceRT_color,2021.2.3,Win32,60.15037594,,,,,,,,7,Ontime,long,k,1,2.059400001,0,3,3,3,1,,,,,
,1.65,,,,,,,,,d,orange,5e861812b23b0a22ef59c4ee,2021-09-27_16h25.36.766,forced_choiceRT_color,2021.2.3,Win32,60.15037594,,,,,,,,7,Fast,long,k,0,1.8902,1,0,4,0,1,,,,,
,0.6,,,,,,,,,j,red,5e861812b23b0a22ef59c4ee,2021-09-27_16h25.36.766,forced_choiceRT_color,2021.2.3,Win32,60.15037594,,,,,,,,7,Fast,long,j,1,1.8733,1,1,5,2,1,,,,,
,0.43,,,,,,,,,j,red,5e861812b23b0a22ef59c4ee,2021-09-27_16h25.36.766,forced_choiceRT_color,2021.2.3,Win32,60.15037594,,,,,,,,7,Ontime,long,j,1,2.005,1,2,6,2,1,,,,,
,1.22,,,,,,,,,j,red,5e861812b23b0a22ef59c4ee,2021-09-27_16h25.36.766,forced_choiceRT_color,2021.2.3,Win32,60.15037594,,,,,,,,7,Ontime,long,j,1,2.0724,1,3,7,2,1,,,,,
,1.25,,,,,,,,,k,purple,5e861812b23b0a22ef59c4ee,2021-09-27_16h25.36.766,forced_choiceRT_color,2021.2.3,Win32,60.15037594,,,,,,,,7,Ontime,long,k,1,1.987299999,2,0,8,3,1,,,,,
,0.16,,,,,,,,,j,red,5e861812b23b0a22ef59c4ee,2021-09-27_16h25.36.766,forced_choiceRT_color,2021.2.3,Win32,60.15037594,,,,,,,,7,Slow,long,k,0,2.1025,2,1,9,2,1,,,,,
,0.73,,,,,,,,,d,orange,5e861812b23b0a22ef59c4ee,2021-09-27_16h25.36.766,forced_choiceRT_color,2021.2.3,Win32,60.15037594,,,,,,,,7,Fast,long,d,1,1.8625,2,2,10,0,1,,,,,
,0.7,,,,,,,,,f,blue,5e861812b23b0a22ef59c4ee,2021-09-27_16h25.36.766,forced_choiceRT_color,2021.2.3,Win32,60.15037594,,,,,,,,7,Fast,long,f,1,1.8852,2,3,11,1,1,,,,,
,0.1,,,,,,,,,d,orange,5e861812b23b0a22ef59c4ee,2021-09-27_16h25.36.766,forced_choiceRT_color,2021.2.3,Win32,60.15037594,,,,,,,,7,Ontime,long,f,0,1.9857,3,0,12,0,1,,,,,
,1.42,,,,,,,,,j,red,5e861812b23b0a22ef59c4ee,2021-09-27_16h25.36.766,forced_choiceRT_color,2021.2.3,Win32,60.15037594,,,,,,,,7,Ontime,long,k,0,1.9892,3,1,13,2,1,,,,,
,1.62,,,,,,,,,d,orange,5e861812b23b0a22ef59c4ee,2021-09-27_16h25.36.766,forced_choiceRT_color,2021.2.3,Win32,60.15037594,,,,,,,,7,Ontime,long,j,0,1.9416,3,2,14,0,1,,,,,
,0.35,,,,,,,,,f,blue,5e861812b23b0a22ef59c4ee,2021-09-27_16h25.36.766,forced_choiceRT_color,2021.2.3,Win32,60.15037594,,,,,,,,7,Ontime,long,j,0,1.991099999,3,3,15,1,1,,,,,
,1.35,,,,,,,,,d,orange,5e861812b23b0a22ef59c4ee,2021-09-27_16h25.36.766,forced_choiceRT_color,2021.2.3,Win32,60.15037594,,,,,,,,7,Ontime,long,d,1,2.047400001,4,0,16,0,1,,,,,
,1.57,,,,,,,,,d,orange,5e861812b23b0a22ef59c4ee,2021-09-27_16h25.36.766,forced_choiceRT_color,2021.2.3,Win32,60.15037594,,,,,,,,7,Ontime,long,d,1,2.0051,4,1,17,0,1,,,,,
,0.18,,,,,,,,,f,blue,5e861812b23b0a22ef59c4ee,2021-09-27_16h25.36.766,forced_choiceRT_color,2021.2.3,Win32,60.15037594,,,,,,,,7,Ontime,long,f,1,1.975900001,4,2,18,1,1,,,,,
,0.81,,,,,,,,,d,orange,5e861812b23b0a22ef59c4ee,2021-09-27_16h25.36.766,forced_choiceRT_color,2021.2.3,Win32,60.15037594,,,,,,,,7,Ontime,long,d,1,1.9382,4,3,19,0,1,,,,,
,1.61,,,,,,,,,j,red,5e861812b23b0a22ef59c4ee,2021-09-27_16h25.36.766,forced_choiceRT_color,2021.2.3,Win32,60.15037594,,,,,,,,7,Slow,long,f,0,2.1033,5,0,20,2,1,,,,,
,0.96,,,,,,,,,k,purple,5e861812b23b0a22ef59c4ee,2021-09-27_16h25.36.766,forced_choiceRT_color,2021.2.3,Win32,60.15037594,,,,,,,,7,Ontime,long,k,1,2.0042,5,1,21,3,1,,,,,
,0.2,,,,,,,,,d,orange,5e861812b23b0a22ef59c4ee,2021-09-27_16h25.36.766,forced_choiceRT_color,2021.2.3,Win32,60.15037594,,,,,,,,7,Ontime,long,d,1,1.907599999,5,2,22,0,1,,,,,
,0.2,,,,,,,,,f,blue,5e861812b23b0a22ef59c4ee,2021-09-27_16h25.36.766,forced_choiceRT_color,2021.2.3,Win32,60.15037594,,,,,,,,7,Ontime,long,f,1,2.0422,5,3,23,1,1,,,,,
,0.05,,,,,,,,,k,purple,5e861812b23b0a22ef59c4ee,2021-09-27_16h25.36.766,forced_choiceRT_color,2021.2.3,Win32,60.15037594,,,,,,,,7,Ontime,long,k,1,1.928400001,6,0,24,3,1,,,,,
,1.06,,,,,,,,,f,blue,5e861812b23b0a22ef59c4ee,2021-09-27_16h25.36.766,forced_choiceRT_color,2021.2.3,Win32,60.15037594,,,,,,,,7,Ontime,long,f,1,2.071,6,1,25,1,1,,,,,
,1.54,,,,,,,,,j,red,5e861812b23b0a22ef59c4ee,2021-09-27_16h25.36.766,forced_choiceRT_color,2021.2.3,Win32,60.15037594,,,,,,,,7,Ontime,long,j,1,2.059900001,6,2,26,2,1,,,,,
,0.77,,,,,,,,,f,blue,5e861812b23b0a22ef59c4ee,2021-09-27_16h25.36.766,forced_choiceRT_color,2021.2.3,Win32,60.15037594,,,,,,,,7,Slow,long,f,1,2.2961,6,3,27,1,1,,,,,
,1.24,,,,,,,,,k,purple,5e861812b23b0a22ef59c4ee,2021-09-27_16h25.36.766,forced_choiceRT_color,2021.2.3,Win32,60.15037594,,,,,,,,7,Ontime,long,k,1,1.9444,7,0,28,3,1,,,,,
,0.93,,,,,,,,,k,purple,5e861812b23b0a22ef59c4ee,2021-09-27_16h25.36.766,forced_choiceRT_color,2021.2.3,Win32,60.15037594,,,,,,,,7,Ontime,long,k,1,2.055,7,1,29,3,1,,,,,
,1.31,,,,,,,,,k,purple,5e861812b23b0a22ef59c4ee,2021-09-27_16h25.36.766,forced_choiceRT_color,2021.2.3,Win32,60.15037594,,,,,,,,7,Ontime,long,k,1,2.0773,7,2,30,3,1,,,,,
,1.81,,,,,,,,,f,blue,5e861812b23b0a22ef59c4ee,2021-09-27_16h25.36.766,forced_choiceRT_color,2021.2.3,Win32,60.15037594,,,,,,,,7,Slow,long,j,0,2.144599999,7,3,31,1,1,,,,,
,0.4,,,,,,,,,k,purple,5e861812b23b0a22ef59c4ee,2021-09-27_16h25.36.766,forced_choiceRT_color,2021.2.3,Win32,60.15037594,,,,,,,,7,Ontime,long,k,1,1.9255,8,0,32,3,1,,,,,
,1.39,,,,,,,,,f,blue,5e861812b23b0a22ef59c4ee,2021-09-27_16h25.36.766,forced_choiceRT_color,2021.2.3,Win32,60.15037594,,,,,,,,7,Ontime,long,f,1,1.9206,8,1,33,1,1,,,,,
,0.05,,,,,,,,,j,red,5e861812b23b0a22ef59c4ee,2021-09-27_16h25.36.766,forced_choiceRT_color,2021.2.3,Win32,60.15037594,,,,,,,,7,Ontime,long,f,0,1.9403,8,2,34,2,1,,,,,
,1.9,,,,,,,,,f,blue,5e861812b23b0a22ef59c4ee,2021-09-27_16h25.36.766,forced_choiceRT_color,2021.2.3,Win32,60.15037594,,,,,,,,7,Fast,long,d,0,1.886299999,8,3,35,1,1,,,,,
,0.42,,,,,,,,,j,red,5e861812b23b0a22ef59c4ee,2021-09-27_16h25.36.766,forced_choiceRT_color,2021.2.3,Win32,60.15037594,,,,,,,,7,Ontime,long,f,0,2.0137,9,0,36,2,1,,,,,
,1.97,,,,,,,,,d,orange,5e861812b23b0a22ef59c4ee,2021-09-27_16h25.36.766,forced_choiceRT_color,2021.2.3,Win32,60.15037594,,,,,,,,7,Slow,long,j,0,2.1896,9,1,37,0,1,,,,,
,0.07,,,,,,,,,d,orange,5e861812b23b0a22ef59c4ee,2021-09-27_16h25.36.766,forced_choiceRT_color,2021.2.3,Win32,60.15037594,,,,,,,,7,Fast,long,f,0,1.7652,9,2,38,0,1,,,,,
,1.69,,,,,,,,,j,red,5e861812b23b0a22ef59c4ee,2021-09-27_16h25.36.766,forced_choiceRT_color,2021.2.3,Win32,60.15037594,,,,,,,,7,Fast,long,d,0,1.5867,9,3,39,2,1,,,,,
,,,,,,,,,,,,5e861812b23b0a22ef59c4ee,2021-09-27_16h25.36.766,forced_choiceRT_color,2021.2.3,Win32,60.15037594,,,,,,,,,,,,,,,,,,,6,0,6,0,1
,0.3,,,,,,,,,f,blue,5e861812b23b0a22ef59c4ee,2021-09-27_16h25.36.766,forced_choiceRT_color,2021.2.3,Win32,60.15037594,,,,,,,,8,Ontime,long,f,1,2.0103,0,0,0,1,1,,,,,
,1.43,,,,,,,,,j,red,5e861812b23b0a22ef59c4ee,2021-09-27_16h25.36.766,forced_choiceRT_color,2021.2.3,Win32,60.15037594,,,,,,,,8,Ontime,long,j,1,1.9536,0,1,1,2,1,,,,,
,1.4,,,,,,,,,f,blue,5e861812b23b0a22ef59c4ee,2021-09-27_16h25.36.766,forced_choiceRT_color,2021.2.3,Win32,60.15037594,,,,,,,,8,Ontime,long,j,0,2.0648,0,2,2,1,1,,,,,
,0.23,,,,,,,,,d,orange,5e861812b23b0a22ef59c4ee,2021-09-27_16h25.36.766,forced_choiceRT_color,2021.2.3,Win32,60.15037594,,,,,,,,8,Ontime,long,d,1,1.9842,0,3,3,0,1,,,,,
,1.48,,,,,,,,,d,orange,5e861812b23b0a22ef59c4ee,2021-09-27_16h25.36.766,forced_choiceRT_color,2021.2.3,Win32,60.15037594,,,,,,,,8,Ontime,long,d,1,2.0241,1,0,4,0,1,,,,,
,1.26,,,,,,,,,j,red,5e861812b23b0a22ef59c4ee,2021-09-27_16h25.36.766,forced_choiceRT_color,2021.2.3,Win32,60.15037594,,,,,,,,8,Ontime,long,k,0,2.0015,1,1,5,2,1,,,,,
,0.3,,,,,,,,,k,purple,5e861812b23b0a22ef59c4ee,2021-09-27_16h25.36.766,forced_choiceRT_color,2021.2.3,Win32,60.15037594,,,,,,,,8,Ontime,long,k,1,2.0693,1,2,6,3,1,,,,,
,0.66,,,,,,,,,j,red,5e861812b23b0a22ef59c4ee,2021-09-27_16h25.36.766,forced_choiceRT_color,2021.2.3,Win32,60.15037594,,,,,,,,8,Ontime,long,j,1,2.0724,1,3,7,2,1,,,,,
,1.6,,,,,,,,,f,blue,5e861812b23b0a22ef59c4ee,2021-09-27_16h25.36.766,forced_choiceRT_color,2021.2.3,Win32,60.15037594,,,,,,,,8,Ontime,long,f,1,2.0761,2,0,8,1,1,,,,,
,0.72,,,,,,,,,k,purple,5e861812b23b0a22ef59c4ee,2021-09-27_16h25.36.766,forced_choiceRT_color,2021.2.3,Win32,60.15037594,,,,,,,,8,Ontime,long,k,1,2.0203,2,1,9,3,1,,,,,
,0.55,,,,,,,,,j,red,5e861812b23b0a22ef59c4ee,2021-09-27_16h25.36.766,forced_choiceRT_color,2021.2.3,Win32,60.15037594,,,,,,,,8,Ontime,long,j,1,2.008,2,2,10,2,1,,,,,
,0.58,,,,,,,,,d,orange,5e861812b23b0a22ef59c4ee,2021-09-27_16h25.36.766,forced_choiceRT_color,2021.2.3,Win32,60.15037594,,,,,,,,8,Slow,long,d,1,6.7441,2,3,11,0,1,,,,,
,0.16,,,,,,,,,d,orange,5e861812b23b0a22ef59c4ee,2021-09-27_16h25.36.766,forced_choiceRT_color,2021.2.3,Win32,60.15037594,,,,,,,,8,Ontime,long,d,1,1.9998,3,0,12,0,1,,,,,
,1.29,,,,,,,,,f,blue,5e861812b23b0a22ef59c4ee,2021-09-27_16h25.36.766,forced_choiceRT_color,2021.2.3,Win32,60.15037594,,,,,,,,8,Slow,long,d,0,2.1039,3,1,13,1,1,,,,,
,1.06,,,,,,,,,d,orange,5e861812b23b0a22ef59c4ee,2021-09-27_16h25.36.766,forced_choiceRT_color,2021.2.3,Win32,60.15037594,,,,,,,,8,Ontime,long,d,1,2.0392,3,2,14,0,1,,,,,
,0.68,,,,,,,,,j,red,5e861812b23b0a22ef59c4ee,2021-09-27_16h25.36.766,forced_choiceRT_color,2021.2.3,Win32,60.15037594,,,,,,,,8,Ontime,long,j,1,2.095599999,3,3,15,2,1,,,,,
,0.15,,,,,,,,,k,purple,5e861812b23b0a22ef59c4ee,2021-09-27_16h25.36.766,forced_choiceRT_color,2021.2.3,Win32,60.15037594,,,,,,,,8,Ontime,long,k,1,2.0196,4,0,16,3,1,,,,,
,1.4,,,,,,,,,k,purple,5e861812b23b0a22ef59c4ee,2021-09-27_16h25.36.766,forced_choiceRT_color,2021.2.3,Win32,60.15037594,,,,,,,,8,Ontime,long,j,0,2.044700001,4,1,17,3,1,,,,,
,0.71,,,,,,,,,j,red,5e861812b23b0a22ef59c4ee,2021-09-27_16h25.36.766,forced_choiceRT_color,2021.2.3,Win32,60.15037594,,,,,,,,8,Ontime,long,j,1,2.0358,4,2,18,2,1,,,,,
,1.4,,,,,,,,,j,red,5e861812b23b0a22ef59c4ee,2021-09-27_16h25.36.766,forced_choiceRT_color,2021.2.3,Win32,60.15037594,,,,,,,,8,Slow,long,j,1,2.104,4,3,19,2,1,,,,,
,0.45,,,,,,,,,j,red,5e861812b23b0a22ef59c4ee,2021-09-27_16h25.36.766,forced_choiceRT_color,2021.2.3,Win32,60.15037594,,,,,,,,8,Ontime,long,j,1,1.9847,5,0,20,2,1,,,,,
,1.03,,,,,,,,,j,red,5e861812b23b0a22ef59c4ee,2021-09-27_16h25.36.766,forced_choiceRT_color,2021.2.3,Win32,60.15037594,,,,,,,,8,Ontime,long,j,1,2.0215,5,1,21,2,1,,,,,
,1.49,,,,,,,,,k,purple,5e861812b23b0a22ef59c4ee,2021-09-27_16h25.36.766,forced_choiceRT_color,2021.2.3,Win32,60.15037594,,,,,,,,8,Ontime,long,j,0,1.9229,5,2,22,3,1,,,,,
,1.73,,,,,,,,,j,red,5e861812b23b0a22ef59c4ee,2021-09-27_16h25.36.766,forced_choiceRT_color,2021.2.3,Win32,60.15037594,,,,,,,,8,Fast,long,k,0,1.8701,5,3,23,2,1,,,,,
,0.64,,,,,,,,,k,purple,5e861812b23b0a22ef59c4ee,2021-09-27_16h25.36.766,forced_choiceRT_color,2021.2.3,Win32,60.15037594,,,,,,,,8,Fast,long,k,1,1.6781,6,0,24,3,1,,,,,
,1.78,,,,,,,,,f,blue,5e861812b23b0a22ef59c4ee,2021-09-27_16h25.36.766,forced_choiceRT_color,2021.2.3,Win32,60.15037594,,,,,,,,8,Ontime,long,f,1,2.0605,6,1,25,1,1,,,,,
,0.24,,,,,,,,,k,purple,5e861812b23b0a22ef59c4ee,2021-09-27_16h25.36.766,forced_choiceRT_color,2021.2.3,Win32,60.15037594,,,,,,,,8,Fast,long,k,1,1.478900001,6,2,26,3,1,,,,,
,0.93,,,,,,,,,d,orange,5e861812b23b0a22ef59c4ee,2021-09-27_16h25.36.766,forced_choiceRT_color,2021.2.3,Win32,60.15037594,,,,,,,,8,Ontime,long,d,1,2.034099999,6,3,27,0,1,,,,,
,1.48,,,,,,,,,f,blue,5e861812b23b0a22ef59c4ee,2021-09-27_16h25.36.766,forced_choiceRT_color,2021.2.3,Win32,60.15037594,,,,,,,,8,Ontime,long,f,1,2.020900001,7,0,28,1,1,,,,,
,0.38,,,,,,,,,d,orange,5e861812b23b0a22ef59c4ee,2021-09-27_16h25.36.766,forced_choiceRT_color,2021.2.3,Win32,60.15037594,,,,,,,,8,Ontime,long,d,1,1.925599999,7,1,29,0,1,,,,,
,0.5,,,,,,,,,d,orange,5e861812b23b0a22ef59c4ee,2021-09-27_16h25.36.766,forced_choiceRT_color,2021.2.3,Win32,60.15037594,,,,,,,,8,Ontime,long,d,1,1.9707,7,2,30,0,1,,,,,
,0.5,,,,,,,,,k,purple,5e861812b23b0a22ef59c4ee,2021-09-27_16h25.36.766,forced_choiceRT_color,2021.2.3,Win32,60.15037594,,,,,,,,8,Ontime,long,k,1,1.9372,7,3,31,3,1,,,,,
,0.06,,,,,,,,,f,blue,5e861812b23b0a22ef59c4ee,2021-09-27_16h25.36.766,forced_choiceRT_color,2021.2.3,Win32,60.15037594,,,,,,,,8,Ontime,long,j,0,2.03,8,0,32,1,1,,,,,
,0.18,,,,,,,,,k,purple,5e861812b23b0a22ef59c4ee,2021-09-27_16h25.36.766,forced_choiceRT_color,2021.2.3,Win32,60.15037594,,,,,,,,8,Ontime,long,k,1,2.066900001,8,1,33,3,1,,,,,
,0.8,,,,,,,,,f,blue,5e861812b23b0a22ef59c4ee,2021-09-27_16h25.36.766,forced_choiceRT_color,2021.2.3,Win32,60.15037594,,,,,,,,8,Ontime,long,j,0,2.077,8,2,34,1,1,,,,,
,0.63,,,,,,,,,d,orange,5e861812b23b0a22ef59c4ee,2021-09-27_16h25.36.766,forced_choiceRT_color,2021.2.3,Win32,60.15037594,,,,,,,,8,Ontime,long,d,1,2.076299999,8,3,35,0,1,,,,,
,0.81,,,,,,,,,f,blue,5e861812b23b0a22ef59c4ee,2021-09-27_16h25.36.766,forced_choiceRT_color,2021.2.3,Win32,60.15037594,,,,,,,,8,Slow,long,f,1,2.108200001,9,0,36,1,1,,,,,
,0.69,,,,,,,,,f,blue,5e861812b23b0a22ef59c4ee,2021-09-27_16h25.36.766,forced_choiceRT_color,2021.2.3,Win32,60.15037594,,,,,,,,8,Ontime,long,f,1,2.0197,9,1,37,1,1,,,,,
,1.86,,,,,,,,,k,purple,5e861812b23b0a22ef59c4ee,2021-09-27_16h25.36.766,forced_choiceRT_color,2021.2.3,Win32,60.15037594,,,,,,,,8,Ontime,long,d,0,2.0872,9,2,38,3,1,,,,,
,1.71,,,,,,,,,d,orange,5e861812b23b0a22ef59c4ee,2021-09-27_16h25.36.766,forced_choiceRT_color,2021.2.3,Win32,60.15037594,,,,,,,,8,Slow,long,f,0,2.2317,9,3,39,0,1,,,,,
,,,,,,,,,,,,5e861812b23b0a22ef59c4ee,2021-09-27_16h25.36.766,forced_choiceRT_color,2021.2.3,Win32,60.15037594,,,,,,,,,,,,,,,,,,,7,0,7,0,1
,0.59,,,,,,,,,d,orange,5e861812b23b0a22ef59c4ee,2021-09-27_16h25.36.766,forced_choiceRT_color,2021.2.3,Win32,60.15037594,,,,,,,,9,Ontime,long,d,1,2.0399,0,0,0,0,1,,,,,
,1.59,,,,,,,,,j,red,5e861812b23b0a22ef59c4ee,2021-09-27_16h25.36.766,forced_choiceRT_color,2021.2.3,Win32,60.15037594,,,,,,,,9,Slow,long,k,0,2.1479,0,1,1,2,1,,,,,
,1.66,,,,,,,,,d,orange,5e861812b23b0a22ef59c4ee,2021-09-27_16h25.36.766,forced_choiceRT_color,2021.2.3,Win32,60.15037594,,,,,,,,9,Slow,long,d,1,2.137200001,0,2,2,0,1,,,,,
,0.64,,,,,,,,,f,blue,5e861812b23b0a22ef59c4ee,2021-09-27_16h25.36.766,forced_choiceRT_color,2021.2.3,Win32,60.15037594,,,,,,,,9,Fast,long,j,0,1.8367,0,3,3,1,1,,,,,
,0.07,,,,,,,,,d,orange,5e861812b23b0a22ef59c4ee,2021-09-27_16h25.36.766,forced_choiceRT_color,2021.2.3,Win32,60.15037594,,,,,,,,9,Ontime,long,d,1,1.984799999,1,0,4,0,1,,,,,
,1.64,,,,,,,,,j,red,5e861812b23b0a22ef59c4ee,2021-09-27_16h25.36.766,forced_choiceRT_color,2021.2.3,Win32,60.15037594,,,,,,,,9,Slow,long,f,0,2.1702,1,1,5,2,1,,,,,
,0.13,,,,,,,,,k,purple,5e861812b23b0a22ef59c4ee,2021-09-27_16h25.36.766,forced_choiceRT_color,2021.2.3,Win32,60.15037594,,,,,,,,9,Slow,long,k,1,2.103599999,1,2,6,3,1,,,,,
,1.93,,,,,,,,,f,blue,5e861812b23b0a22ef59c4ee,2021-09-27_16h25.36.766,forced_choiceRT_color,2021.2.3,Win32,60.15037594,,,,,,,,9,Ontime,long,j,0,2.0364,1,3,7,1,1,,,,,
,0.82,,,,,,,,,f,blue,5e861812b23b0a22ef59c4ee,2021-09-27_16h25.36.766,forced_choiceRT_color,2021.2.3,Win32,60.15037594,,,,,,,,9,Fast,long,f,1,1.3958,2,0,8,1,1,,,,,
,0.15,,,,,,,,,k,purple,5e861812b23b0a22ef59c4ee,2021-09-27_16h25.36.766,forced_choiceRT_color,2021.2.3,Win32,60.15037594,,,,,,,,9,Ontime,long,k,1,2.0846,2,1,9,3,1,,,,,
,0.46,,,,,,,,,d,orange,5e861812b23b0a22ef59c4ee,2021-09-27_16h25.36.766,forced_choiceRT_color,2021.2.3,Win32,60.15037594,,,,,,,,9,Ontime,long,d,1,2.0583,2,2,10,0,1,,,,,
,0.47,,,,,,,,,k,purple,5e861812b23b0a22ef59c4ee,2021-09-27_16h25.36.766,forced_choiceRT_color,2021.2.3,Win32,60.15037594,,,,,,,,9,Ontime,long,k,1,2.0244,2,3,11,3,1,,,,,
,1.86,,,,,,,,,k,purple,5e861812b23b0a22ef59c4ee,2021-09-27_16h25.36.766,forced_choiceRT_color,2021.2.3,Win32,60.15037594,,,,,,,,9,Ontime,long,d,0,2.0372,3,0,12,3,1,,,,,
,1.88,,,,,,,,,j,red,5e861812b23b0a22ef59c4ee,2021-09-27_16h25.36.766,forced_choiceRT_color,2021.2.3,Win32,60.15037594,,,,,,,,9,Ontime,long,k,0,1.941099999,3,1,13,2,1,,,,,
,0.03,,,,,,,,,k,purple,5e861812b23b0a22ef59c4ee,2021-09-27_16h25.36.766,forced_choiceRT_color,2021.2.3,Win32,60.15037594,,,,,,,,9,Ontime,long,k,1,1.903400001,3,2,14,3,1,,,,,
,0.42,,,,,,,,,f,blue,5e861812b23b0a22ef59c4ee,2021-09-27_16h25.36.766,forced_choiceRT_color,2021.2.3,Win32,60.15037594,,,,,,,,9,Ontime,long,f,1,2.0362,3,3,15,1,1,,,,,
,1.55,,,,,,,,,j,red,5e861812b23b0a22ef59c4ee,2021-09-27_16h25.36.766,forced_choiceRT_color,2021.2.3,Win32,60.15037594,,,,,,,,9,Ontime,long,d,0,1.904599999,4,0,16,2,1,,,,,
,0.32,,,,,,,,,d,orange,5e861812b23b0a22ef59c4ee,2021-09-27_16h25.36.766,forced_choiceRT_color,2021.2.3,Win32,60.15037594,,,,,,,,9,Slow,long,d,1,2.141099999,4,1,17,0,1,,,,,
,0.49,,,,,,,,,d,orange,5e861812b23b0a22ef59c4ee,2021-09-27_16h25.36.766,forced_choiceRT_color,2021.2.3,Win32,60.15037594,,,,,,,,9,Fast,long,d,1,1.871,4,2,18,0,1,,,,,
,0.25,,,,,,,,,j,red,5e861812b23b0a22ef59c4ee,2021-09-27_16h25.36.766,forced_choiceRT_color,2021.2.3,Win32,60.15037594,,,,,,,,9,Ontime,long,j,1,1.9355,4,3,19,2,1,,,,,
,1.73,,,,,,,,,j,red,5e861812b23b0a22ef59c4ee,2021-09-27_16h25.36.766,forced_choiceRT_color,2021.2.3,Win32,60.15037594,,,,,,,,9,Slow,long,d,0,2.2033,5,0,20,2,1,,,,,
,1.09,,,,,,,,,k,purple,5e861812b23b0a22ef59c4ee,2021-09-27_16h25.36.766,forced_choiceRT_color,2021.2.3,Win32,60.15037594,,,,,,,,9,Slow,long,k,1,2.938,5,1,21,3,1,,,,,
,1.44,,,,,,,,,f,blue,5e861812b23b0a22ef59c4ee,2021-09-27_16h25.36.766,forced_choiceRT_color,2021.2.3,Win32,60.15037594,,,,,,,,9,Ontime,long,f,1,1.958599999,5,2,22,1,1,,,,,
,1.91,,,,,,,,,j,red,5e861812b23b0a22ef59c4ee,2021-09-27_16h25.36.766,forced_choiceRT_color,2021.2.3,Win32,60.15037594,,,,,,,,9,Fast,long,f,0,0.2737,5,3,23,2,1,,,,,
,0.21,,,,,,,,,d,orange,5e861812b23b0a22ef59c4ee,2021-09-27_16h25.36.766,forced_choiceRT_color,2021.2.3,Win32,60.15037594,,,,,,,,9,Ontime,long,d,1,1.9272,6,0,24,0,1,,,,,
,1.24,,,,,,,,,k,purple,5e861812b23b0a22ef59c4ee,2021-09-27_16h25.36.766,forced_choiceRT_color,2021.2.3,Win32,60.15037594,,,,,,,,9,Ontime,long,k,1,2.0765,6,1,25,3,1,,,,,
,0.03,,,,,,,,,f,blue,5e861812b23b0a22ef59c4ee,2021-09-27_16h25.36.766,forced_choiceRT_color,2021.2.3,Win32,60.15037594,,,,,,,,9,Ontime,long,f,1,1.919400001,6,2,26,1,1,,,,,
,0.66,,,,,,,,,k,purple,5e861812b23b0a22ef59c4ee,2021-09-27_16h25.36.766,forced_choiceRT_color,2021.2.3,Win32,60.15037594,,,,,,,,9,Ontime,long,j,0,2.0202,6,3,27,3,1,,,,,
,0.69,,,,,,,,,k,purple,5e861812b23b0a22ef59c4ee,2021-09-27_16h25.36.766,forced_choiceRT_color,2021.2.3,Win32,60.15037594,,,,,,,,9,Slow,long,k,1,2.104900001,7,0,28,3,1,,,,,
,1.24,,,,,,,,,f,blue,5e861812b23b0a22ef59c4ee,2021-09-27_16h25.36.766,forced_choiceRT_color,2021.2.3,Win32,60.15037594,,,,,,,,9,Ontime,long,f,1,1.975599999,7,1,29,1,1,,,,,
,0.46,,,,,,,,,d,orange,5e861812b23b0a22ef59c4ee,2021-09-27_16h25.36.766,forced_choiceRT_color,2021.2.3,Win32,60.15037594,,,,,,,,9,Ontime,long,d,1,1.9895,7,2,30,0,1,,,,,
,1.55,,,,,,,,,f,blue,5e861812b23b0a22ef59c4ee,2021-09-27_16h25.36.766,forced_choiceRT_color,2021.2.3,Win32,60.15037594,,,,,,,,9,Fast,long,j,0,1.7095,7,3,31,1,1,,,,,
,0.17,,,,,,,,,j,red,5e861812b23b0a22ef59c4ee,2021-09-27_16h25.36.766,forced_choiceRT_color,2021.2.3,Win32,60.15037594,,,,,,,,9,Ontime,long,j,1,1.903700001,8,0,32,2,1,,,,,
,0.39,,,,,,,,,j,red,5e861812b23b0a22ef59c4ee,2021-09-27_16h25.36.766,forced_choiceRT_color,2021.2.3,Win32,60.15037594,,,,,,,,9,Fast,long,j,1,0.5461,8,1,33,2,1,,,,,
,1.1,,,,,,,,,j,red,5e861812b23b0a22ef59c4ee,2021-09-27_16h25.36.766,forced_choiceRT_color,2021.2.3,Win32,60.15037594,,,,,,,,9,Fast,long,j,1,1.8443,8,2,34,2,1,,,,,
,1.4,,,,,,,,,k,purple,5e861812b23b0a22ef59c4ee,2021-09-27_16h25.36.766,forced_choiceRT_color,2021.2.3,Win32,60.15037594,,,,,,,,9,Slow,long,k,1,2.3536,8,3,35,3,1,,,,,
,0.93,,,,,,,,,f,blue,5e861812b23b0a22ef59c4ee,2021-09-27_16h25.36.766,forced_choiceRT_color,2021.2.3,Win32,60.15037594,,,,,,,,9,Ontime,long,f,1,2.069400001,9,0,36,1,1,,,,,
,0.07,,,,,,,,,d,orange,5e861812b23b0a22ef59c4ee,2021-09-27_16h25.36.766,forced_choiceRT_color,2021.2.3,Win32,60.15037594,,,,,,,,9,Fast,long,d,1,1.6407,9,1,37,0,1,,,,,
,0.1,,,,,,,,,d,orange,5e861812b23b0a22ef59c4ee,2021-09-27_16h25.36.766,forced_choiceRT_color,2021.2.3,Win32,60.15037594,,,,,,,,9,Fast,long,d,1,1.8048,9,2,38,0,1,,,,,
,0.75,,,,,,,,,f,blue,5e861812b23b0a22ef59c4ee,2021-09-27_16h25.36.766,forced_choiceRT_color,2021.2.3,Win32,60.15037594,,,,,,,,9,Slow,long,j,0,2.385099999,9,3,39,1,1,,,,,
,,,,,,,,,,,,5e861812b23b0a22ef59c4ee,2021-09-27_16h25.36.766,forced_choiceRT_color,2021.2.3,Win32,60.15037594,,,,,,,,,,,,,,,,,,,8,0,8,0,1
,0.53,,,,,,,,,j,red,5e861812b23b0a22ef59c4ee,2021-09-27_16h25.36.766,forced_choiceRT_color,2021.2.3,Win32,60.15037594,,,,,,,,10,Slow,long,j,1,2.1385,0,0,0,2,1,,,,,
,0.52,,,,,,,,,f,blue,5e861812b23b0a22ef59c4ee,2021-09-27_16h25.36.766,forced_choiceRT_color,2021.2.3,Win32,60.15037594,,,,,,,,10,Fast,long,f,1,1.8347,0,1,1,1,1,,,,,
,1.92,,,,,,,,,k,purple,5e861812b23b0a22ef59c4ee,2021-09-27_16h25.36.766,forced_choiceRT_color,2021.2.3,Win32,60.15037594,,,,,,,,10,Slow,long,f,0,2.1858,0,2,2,3,1,,,,,
,0.35,,,,,,,,,k,purple,5e861812b23b0a22ef59c4ee,2021-09-27_16h25.36.766,forced_choiceRT_color,2021.2.3,Win32,60.15037594,,,,,,,,10,Fast,long,k,1,1.7717,0,3,3,3,1,,,,,
,1.34,,,,,,,,,j,red,5e861812b23b0a22ef59c4ee,2021-09-27_16h25.36.766,forced_choiceRT_color,2021.2.3,Win32,60.15037594,,,,,,,,10,Ontime,long,f,0,1.972900001,1,0,4,2,1,,,,,
,1.33,,,,,,,,,f,blue,5e861812b23b0a22ef59c4ee,2021-09-27_16h25.36.766,forced_choiceRT_color,2021.2.3,Win32,60.15037594,,,,,,,,10,Ontime,long,f,1,2.018099999,1,1,5,1,1,,,,,
,1.32,,,,,,,,,f,blue,5e861812b23b0a22ef59c4ee,2021-09-27_16h25.36.766,forced_choiceRT_color,2021.2.3,Win32,60.15037594,,,,,,,,10,Ontime,long,f,1,2.0356,1,2,6,1,1,,,,,
,0.15,,,,,,,,,k,purple,5e861812b23b0a22ef59c4ee,2021-09-27_16h25.36.766,forced_choiceRT_color,2021.2.3,Win32,60.15037594,,,,,,,,10,Ontime,long,k,1,1.97,1,3,7,3,1,,,,,
,1.54,,,,,,,,,d,orange,5e861812b23b0a22ef59c4ee,2021-09-27_16h25.36.766,forced_choiceRT_color,2021.2.3,Win32,60.15037594,,,,,,,,10,Ontime,long,f,0,2.0043,2,0,8,0,1,,,,,
,0.67,,,,,,,,,j,red,5e861812b23b0a22ef59c4ee,2021-09-27_16h25.36.766,forced_choiceRT_color,2021.2.3,Win32,60.15037594,,,,,,,,10,Ontime,long,k,0,2.039400001,2,1,9,2,1,,,,,
,0.1,,,,,,,,,d,orange,5e861812b23b0a22ef59c4ee,2021-09-27_16h25.36.766,forced_choiceRT_color,2021.2.3,Win32,60.15037594,,,,,,,,10,Ontime,long,d,1,1.971,2,2,10,0,1,,,,,
,1.01,,,,,,,,,k,purple,5e861812b23b0a22ef59c4ee,2021-09-27_16h25.36.766,forced_choiceRT_color,2021.2.3,Win32,60.15037594,,,,,,,,10,Slow,long,k,1,2.2027,2,3,11,3,1,,,,,
,0.25,,,,,,,,,k,purple,5e861812b23b0a22ef59c4ee,2021-09-27_16h25.36.766,forced_choiceRT_color,2021.2.3,Win32,60.15037594,,,,,,,,10,Ontime,long,k,1,2.016,3,0,12,3,1,,,,,
,1.9,,,,,,,,,j,red,5e861812b23b0a22ef59c4ee,2021-09-27_16h25.36.766,forced_choiceRT_color,2021.2.3,Win32,60.15037594,,,,,,,,10,Ontime,long,j,1,1.9884,3,1,13,2,1,,,,,
,0.42,,,,,,,,,d,orange,5e861812b23b0a22ef59c4ee,2021-09-27_16h25.36.766,forced_choiceRT_color,2021.2.3,Win32,60.15037594,,,,,,,,10,Ontime,long,d,1,2.022,3,2,14,0,1,,,,,
,1.19,,,,,,,,,j,red,5e861812b23b0a22ef59c4ee,2021-09-27_16h25.36.766,forced_choiceRT_color,2021.2.3,Win32,60.15037594,,,,,,,,10,Ontime,long,f,0,1.954,3,3,15,2,1,,,,,
,1.19,,,,,,,,,k,purple,5e861812b23b0a22ef59c4ee,2021-09-27_16h25.36.766,forced_choiceRT_color,2021.2.3,Win32,60.15037594,,,,,,,,10,Ontime,long,k,1,2.0707,4,0,16,3,1,,,,,
,0.85,,,,,,,,,d,orange,5e861812b23b0a22ef59c4ee,2021-09-27_16h25.36.766,forced_choiceRT_color,2021.2.3,Win32,60.15037594,,,,,,,,10,Ontime,long,d,1,2.0376,4,1,17,0,1,,,,,
,1.72,,,,,,,,,j,red,5e861812b23b0a22ef59c4ee,2021-09-27_16h25.36.766,forced_choiceRT_color,2021.2.3,Win32,60.15037594,,,,,,,,10,Ontime,long,d,0,1.969299999,4,2,18,2,1,,,,,
,0.41,,,,,,,,,f,blue,5e861812b23b0a22ef59c4ee,2021-09-27_16h25.36.766,forced_choiceRT_color,2021.2.3,Win32,60.15037594,,,,,,,,10,Ontime,long,f,1,2.0404,4,3,19,1,1,,,,,
,1.77,,,,,,,,,j,red,5e861812b23b0a22ef59c4ee,2021-09-27_16h25.36.766,forced_choiceRT_color,2021.2.3,Win32,60.15037594,,,,,,,,10,Ontime,long,k,0,1.945900001,5,0,20,2,1,,,,,
,0.6,,,,,,,,,j,red,5e861812b23b0a22ef59c4ee,2021-09-27_16h25.36.766,forced_choiceRT_color,2021.2.3,Win32,60.15037594,,,,,,,,10,Ontime,long,j,1,1.9591,5,1,21,2,1,,,,,
,0.66,,,,,,,,,j,red,5e861812b23b0a22ef59c4ee,2021-09-27_16h25.36.766,forced_choiceRT_color,2021.2.3,Win32,60.15037594,,,,,,,,10,Ontime,long,j,1,1.955200001,5,2,22,2,1,,,,,
,0.89,,,,,,,,,k,purple,5e861812b23b0a22ef59c4ee,2021-09-27_16h25.36.766,forced_choiceRT_color,2021.2.3,Win32,60.15037594,,,,,,,,10,Ontime,long,k,1,1.9538,5,3,23,3,1,,,,,
,1.86,,,,,,,,,k,purple,5e861812b23b0a22ef59c4ee,2021-09-27_16h25.36.766,forced_choiceRT_color,2021.2.3,Win32,60.15037594,,,,,,,,10,Fast,long,j,0,1.8892,6,0,24,3,1,,,,,
,1.63,,,,,,,,,d,orange,5e861812b23b0a22ef59c4ee,2021-09-27_16h25.36.766,forced_choiceRT_color,2021.2.3,Win32,60.15037594,,,,,,,,10,Ontime,long,k,0,1.9703,6,1,25,0,1,,,,,
,0.04,,,,,,,,,k,purple,5e861812b23b0a22ef59c4ee,2021-09-27_16h25.36.766,forced_choiceRT_color,2021.2.3,Win32,60.15037594,,,,,,,,10,Slow,long,k,1,2.202099999,6,2,26,3,1,,,,,
,0.19,,,,,,,,,d,orange,5e861812b23b0a22ef59c4ee,2021-09-27_16h25.36.766,forced_choiceRT_color,2021.2.3,Win32,60.15037594,,,,,,,,10,Fast,long,j,0,0.7883,6,3,27,0,1,,,,,
,1.94,,,,,,,,,f,blue,5e861812b23b0a22ef59c4ee,2021-09-27_16h25.36.766,forced_choiceRT_color,2021.2.3,Win32,60.15037594,,,,,,,,10,Ontime,long,d,0,2.0066,7,0,28,1,1,,,,,
,0.51,,,,,,,,,f,blue,5e861812b23b0a22ef59c4ee,2021-09-27_16h25.36.766,forced_choiceRT_color,2021.2.3,Win32,60.15037594,,,,,,,,10,Fast,long,f,1,1.845,7,1,29,1,1,,,,,
,0.6,,,,,,,,,d,orange,5e861812b23b0a22ef59c4ee,2021-09-27_16h25.36.766,forced_choiceRT_color,2021.2.3,Win32,60.15037594,,,,,,,,10,Ontime,long,d,1,2.0719,7,2,30,0,1,,,,,
,1.28,,,,,,,,,k,purple,5e861812b23b0a22ef59c4ee,2021-09-27_16h25.36.766,forced_choiceRT_color,2021.2.3,Win32,60.15037594,,,,,,,,10,Slow,long,k,1,2.105400001,7,3,31,3,1,,,,,
,0,,,,,,,,,f,blue,5e861812b23b0a22ef59c4ee,2021-09-27_16h25.36.766,forced_choiceRT_color,2021.2.3,Win32,60.15037594,,,,,,,,10,Fast,long,f,1,1.7927,8,0,32,1,1,,,,,
,1.07,,,,,,,,,j,red,5e861812b23b0a22ef59c4ee,2021-09-27_16h25.36.766,forced_choiceRT_color,2021.2.3,Win32,60.15037594,,,,,,,,10,Ontime,long,j,1,1.9375,8,1,33,2,1,,,,,
,1.96,,,,,,,,,f,blue,5e861812b23b0a22ef59c4ee,2021-09-27_16h25.36.766,forced_choiceRT_color,2021.2.3,Win32,60.15037594,,,,,,,,10,Ontime,long,k,0,1.9212,8,2,34,1,1,,,,,
,1.25,,,,,,,,,f,blue,5e861812b23b0a22ef59c4ee,2021-09-27_16h25.36.766,forced_choiceRT_color,2021.2.3,Win32,60.15037594,,,,,,,,10,Ontime,long,f,1,2.0197,8,3,35,1,1,,,,,
,1.73,,,,,,,,,d,orange,5e861812b23b0a22ef59c4ee,2021-09-27_16h25.36.766,forced_choiceRT_color,2021.2.3,Win32,60.15037594,,,,,,,,10,Ontime,long,j,0,2.0115,9,0,36,0,1,,,,,
,0.42,,,,,,,,,d,orange,5e861812b23b0a22ef59c4ee,2021-09-27_16h25.36.766,forced_choiceRT_color,2021.2.3,Win32,60.15037594,,,,,,,,10,Ontime,long,d,1,2.0255,9,1,37,0,1,,,,,
,1.29,,,,,,,,,f,blue,5e861812b23b0a22ef59c4ee,2021-09-27_16h25.36.766,forced_choiceRT_color,2021.2.3,Win32,60.15037594,,,,,,,,10,Slow,long,f,1,2.1443,9,2,38,1,1,,,,,
,1.75,,,,,,,,,d,orange,5e861812b23b0a22ef59c4ee,2021-09-27_16h25.36.766,forced_choiceRT_color,2021.2.3,Win32,60.15037594,,,,,,,,10,Ontime,long,d,1,2.023900001,9,3,39,0,1,,,,,
,,,,,,,,,,,,5e861812b23b0a22ef59c4ee,2021-09-27_16h25.36.766,forced_choiceRT_color,2021.2.3,Win32,60.15037594,,,,,,,,,,,,,,,,,,,9,0,9,0,1
