target_onset,trial_resp_sp.keys,trial_resp_sp.corr,trial_resp_sp.rt,trials_train_loop.thisRepN,trials_train_loop.thisTrialN,trials_train_loop.thisN,trials_train_loop.thisIndex,trials_train_loop.ran,correct_key,color,participant,date,expName,psychopyVersion,OS,frameRate,trial_resp_timing.keys,trial_resp_timing.rt,trials_train_timing.thisRepN,trials_train_timing.thisTrialN,trials_train_timing.thisN,trials_train_timing.thisIndex,trials_train_timing.ran,block_id,ontime,feedback_cond,forcedRT_resp.keys,forcedRT_resp.corr,forcedRT_resp.rt,trials.thisRepN,trials.thisTrialN,trials.thisN,trials.thisIndex,trials.ran,blocks.thisRepN,blocks.thisTrialN,blocks.thisN,blocks.thisIndex,blocks.ran
0,d,1,1.002,0,0,0,0,1,d,orange,5ead868fe65d1f41dac2ebd4,2021-09-27_13h53.06.844,forced_choiceRT_color,2021.2.3,Win32,59.95203837,,,,,,,,,,,,,,,,,,,,,,,
0,j,1,0.733,0,1,1,2,1,j,red,5ead868fe65d1f41dac2ebd4,2021-09-27_13h53.06.844,forced_choiceRT_color,2021.2.3,Win32,59.95203837,,,,,,,,,,,,,,,,,,,,,,,
0,j,1,0.536,0,2,2,2,1,j,red,5ead868fe65d1f41dac2ebd4,2021-09-27_13h53.06.844,forced_choiceRT_color,2021.2.3,Win32,59.95203837,,,,,,,,,,,,,,,,,,,,,,,
0,f,1,0.451,0,3,3,1,1,f,blue,5ead868fe65d1f41dac2ebd4,2021-09-27_13h53.06.844,forced_choiceRT_color,2021.2.3,Win32,59.95203837,,,,,,,,,,,,,,,,,,,,,,,
0,f,0,0.485,1,0,4,2,1,j,red,5ead868fe65d1f41dac2ebd4,2021-09-27_13h53.06.844,forced_choiceRT_color,2021.2.3,Win32,59.95203837,,,,,,,,,,,,,,,,,,,,,,,
0,k,1,0.634,1,1,5,3,1,k,purple,5ead868fe65d1f41dac2ebd4,2021-09-27_13h53.06.844,forced_choiceRT_color,2021.2.3,Win32,59.95203837,,,,,,,,,,,,,,,,,,,,,,,
0,k,1,0.459,1,2,6,3,1,k,purple,5ead868fe65d1f41dac2ebd4,2021-09-27_13h53.06.844,forced_choiceRT_color,2021.2.3,Win32,59.95203837,,,,,,,,,,,,,,,,,,,,,,,
0,j,1,0.525,1,3,7,2,1,j,red,5ead868fe65d1f41dac2ebd4,2021-09-27_13h53.06.844,forced_choiceRT_color,2021.2.3,Win32,59.95203837,,,,,,,,,,,,,,,,,,,,,,,
0,f,1,0.535,2,0,8,1,1,f,blue,5ead868fe65d1f41dac2ebd4,2021-09-27_13h53.06.844,forced_choiceRT_color,2021.2.3,Win32,59.95203837,,,,,,,,,,,,,,,,,,,,,,,
0,d,1,0.486,2,1,9,0,1,d,orange,5ead868fe65d1f41dac2ebd4,2021-09-27_13h53.06.844,forced_choiceRT_color,2021.2.3,Win32,59.95203837,,,,,,,,,,,,,,,,,,,,,,,
0,j,1,0.519,2,2,10,2,1,j,red,5ead868fe65d1f41dac2ebd4,2021-09-27_13h53.06.844,forced_choiceRT_color,2021.2.3,Win32,59.95203837,,,,,,,,,,,,,,,,,,,,,,,
0,d,1,0.567,2,3,11,0,1,d,orange,5ead868fe65d1f41dac2ebd4,2021-09-27_13h53.06.844,forced_choiceRT_color,2021.2.3,Win32,59.95203837,,,,,,,,,,,,,,,,,,,,,,,
0,d,1,0.438,3,0,12,0,1,d,orange,5ead868fe65d1f41dac2ebd4,2021-09-27_13h53.06.844,forced_choiceRT_color,2021.2.3,Win32,59.95203837,,,,,,,,,,,,,,,,,,,,,,,
0,f,1,0.388,3,1,13,1,1,f,blue,5ead868fe65d1f41dac2ebd4,2021-09-27_13h53.06.844,forced_choiceRT_color,2021.2.3,Win32,59.95203837,,,,,,,,,,,,,,,,,,,,,,,
0,d,1,0.533,3,2,14,0,1,d,orange,5ead868fe65d1f41dac2ebd4,2021-09-27_13h53.06.844,forced_choiceRT_color,2021.2.3,Win32,59.95203837,,,,,,,,,,,,,,,,,,,,,,,
0,k,1,0.523,3,3,15,3,1,k,purple,5ead868fe65d1f41dac2ebd4,2021-09-27_13h53.06.844,forced_choiceRT_color,2021.2.3,Win32,59.95203837,,,,,,,,,,,,,,,,,,,,,,,
0,k,1,0.474,4,0,16,3,1,k,purple,5ead868fe65d1f41dac2ebd4,2021-09-27_13h53.06.844,forced_choiceRT_color,2021.2.3,Win32,59.95203837,,,,,,,,,,,,,,,,,,,,,,,
0,j,1,0.454,4,1,17,2,1,j,red,5ead868fe65d1f41dac2ebd4,2021-09-27_13h53.06.844,forced_choiceRT_color,2021.2.3,Win32,59.95203837,,,,,,,,,,,,,,,,,,,,,,,
0,k,1,0.49,4,2,18,3,1,k,purple,5ead868fe65d1f41dac2ebd4,2021-09-27_13h53.06.844,forced_choiceRT_color,2021.2.3,Win32,59.95203837,,,,,,,,,,,,,,,,,,,,,,,
0,f,1,0.534,4,3,19,1,1,f,blue,5ead868fe65d1f41dac2ebd4,2021-09-27_13h53.06.844,forced_choiceRT_color,2021.2.3,Win32,59.95203837,,,,,,,,,,,,,,,,,,,,,,,
0,j,1,0.756,5,0,20,2,1,j,red,5ead868fe65d1f41dac2ebd4,2021-09-27_13h53.06.844,forced_choiceRT_color,2021.2.3,Win32,59.95203837,,,,,,,,,,,,,,,,,,,,,,,
0,f,1,0.552,5,1,21,1,1,f,blue,5ead868fe65d1f41dac2ebd4,2021-09-27_13h53.06.844,forced_choiceRT_color,2021.2.3,Win32,59.95203837,,,,,,,,,,,,,,,,,,,,,,,
0,f,1,0.487,5,2,22,1,1,f,blue,5ead868fe65d1f41dac2ebd4,2021-09-27_13h53.06.844,forced_choiceRT_color,2021.2.3,Win32,59.95203837,,,,,,,,,,,,,,,,,,,,,,,
0,k,1,0.5,5,3,23,3,1,k,purple,5ead868fe65d1f41dac2ebd4,2021-09-27_13h53.06.844,forced_choiceRT_color,2021.2.3,Win32,59.95203837,,,,,,,,,,,,,,,,,,,,,,,
0,d,1,0.57,6,0,24,0,1,d,orange,5ead868fe65d1f41dac2ebd4,2021-09-27_13h53.06.844,forced_choiceRT_color,2021.2.3,Win32,59.95203837,,,,,,,,,,,,,,,,,,,,,,,
0,k,1,0.402,6,1,25,3,1,k,purple,5ead868fe65d1f41dac2ebd4,2021-09-27_13h53.06.844,forced_choiceRT_color,2021.2.3,Win32,59.95203837,,,,,,,,,,,,,,,,,,,,,,,
0,k,1,0.453,6,2,26,3,1,k,purple,5ead868fe65d1f41dac2ebd4,2021-09-27_13h53.06.844,forced_choiceRT_color,2021.2.3,Win32,59.95203837,,,,,,,,,,,,,,,,,,,,,,,
0,f,1,0.6,6,3,27,1,1,f,blue,5ead868fe65d1f41dac2ebd4,2021-09-27_13h53.06.844,forced_choiceRT_color,2021.2.3,Win32,59.95203837,,,,,,,,,,,,,,,,,,,,,,,
0,k,1,0.551,7,0,28,3,1,k,purple,5ead868fe65d1f41dac2ebd4,2021-09-27_13h53.06.844,forced_choiceRT_color,2021.2.3,Win32,59.95203837,,,,,,,,,,,,,,,,,,,,,,,
0,f,1,0.435,7,1,29,1,1,f,blue,5ead868fe65d1f41dac2ebd4,2021-09-27_13h53.06.844,forced_choiceRT_color,2021.2.3,Win32,59.95203837,,,,,,,,,,,,,,,,,,,,,,,
0,d,1,0.558,7,2,30,0,1,d,orange,5ead868fe65d1f41dac2ebd4,2021-09-27_13h53.06.844,forced_choiceRT_color,2021.2.3,Win32,59.95203837,,,,,,,,,,,,,,,,,,,,,,,
0,k,1,0.503,7,3,31,3,1,k,purple,5ead868fe65d1f41dac2ebd4,2021-09-27_13h53.06.844,forced_choiceRT_color,2021.2.3,Win32,59.95203837,,,,,,,,,,,,,,,,,,,,,,,
0,j,1,0.518,8,0,32,2,1,j,red,5ead868fe65d1f41dac2ebd4,2021-09-27_13h53.06.844,forced_choiceRT_color,2021.2.3,Win32,59.95203837,,,,,,,,,,,,,,,,,,,,,,,
0,j,1,0.501,8,1,33,2,1,j,red,5ead868fe65d1f41dac2ebd4,2021-09-27_13h53.06.844,forced_choiceRT_color,2021.2.3,Win32,59.95203837,,,,,,,,,,,,,,,,,,,,,,,
0,j,1,0.435,8,2,34,2,1,j,red,5ead868fe65d1f41dac2ebd4,2021-09-27_13h53.06.844,forced_choiceRT_color,2021.2.3,Win32,59.95203837,,,,,,,,,,,,,,,,,,,,,,,
0,d,1,0.554,8,3,35,0,1,d,orange,5ead868fe65d1f41dac2ebd4,2021-09-27_13h53.06.844,forced_choiceRT_color,2021.2.3,Win32,59.95203837,,,,,,,,,,,,,,,,,,,,,,,
0,k,1,0.503,9,0,36,3,1,k,purple,5ead868fe65d1f41dac2ebd4,2021-09-27_13h53.06.844,forced_choiceRT_color,2021.2.3,Win32,59.95203837,,,,,,,,,,,,,,,,,,,,,,,
0,d,1,0.518,9,1,37,0,1,d,orange,5ead868fe65d1f41dac2ebd4,2021-09-27_13h53.06.844,forced_choiceRT_color,2021.2.3,Win32,59.95203837,,,,,,,,,,,,,,,,,,,,,,,
0,f,1,0.518,9,2,38,1,1,f,blue,5ead868fe65d1f41dac2ebd4,2021-09-27_13h53.06.844,forced_choiceRT_color,2021.2.3,Win32,59.95203837,,,,,,,,,,,,,,,,,,,,,,,
0,d,1,0.485,9,3,39,0,1,d,orange,5ead868fe65d1f41dac2ebd4,2021-09-27_13h53.06.844,forced_choiceRT_color,2021.2.3,Win32,59.95203837,,,,,,,,,,,,,,,,,,,,,,,
0,d,1,0.404,10,0,40,0,1,d,orange,5ead868fe65d1f41dac2ebd4,2021-09-27_13h53.06.844,forced_choiceRT_color,2021.2.3,Win32,59.95203837,,,,,,,,,,,,,,,,,,,,,,,
0,f,1,0.61,10,1,41,1,1,f,blue,5ead868fe65d1f41dac2ebd4,2021-09-27_13h53.06.844,forced_choiceRT_color,2021.2.3,Win32,59.95203837,,,,,,,,,,,,,,,,,,,,,,,
0,d,1,0.619,10,2,42,0,1,d,orange,5ead868fe65d1f41dac2ebd4,2021-09-27_13h53.06.844,forced_choiceRT_color,2021.2.3,Win32,59.95203837,,,,,,,,,,,,,,,,,,,,,,,
0,k,1,0.452,10,3,43,3,1,k,purple,5ead868fe65d1f41dac2ebd4,2021-09-27_13h53.06.844,forced_choiceRT_color,2021.2.3,Win32,59.95203837,,,,,,,,,,,,,,,,,,,,,,,
0,f,1,0.593,11,0,44,1,1,f,blue,5ead868fe65d1f41dac2ebd4,2021-09-27_13h53.06.844,forced_choiceRT_color,2021.2.3,Win32,59.95203837,,,,,,,,,,,,,,,,,,,,,,,
0,j,1,0.622,11,1,45,2,1,j,red,5ead868fe65d1f41dac2ebd4,2021-09-27_13h53.06.844,forced_choiceRT_color,2021.2.3,Win32,59.95203837,,,,,,,,,,,,,,,,,,,,,,,
0,j,1,0.551,11,2,46,2,1,j,red,5ead868fe65d1f41dac2ebd4,2021-09-27_13h53.06.844,forced_choiceRT_color,2021.2.3,Win32,59.95203837,,,,,,,,,,,,,,,,,,,,,,,
0,f,1,0.485,11,3,47,1,1,f,blue,5ead868fe65d1f41dac2ebd4,2021-09-27_13h53.06.844,forced_choiceRT_color,2021.2.3,Win32,59.95203837,,,,,,,,,,,,,,,,,,,,,,,
0,j,1,0.453,12,0,48,2,1,j,red,5ead868fe65d1f41dac2ebd4,2021-09-27_13h53.06.844,forced_choiceRT_color,2021.2.3,Win32,59.95203837,,,,,,,,,,,,,,,,,,,,,,,
0,d,1,0.568,12,1,49,0,1,d,orange,5ead868fe65d1f41dac2ebd4,2021-09-27_13h53.06.844,forced_choiceRT_color,2021.2.3,Win32,59.95203837,,,,,,,,,,,,,,,,,,,,,,,
0,k,1,0.584,12,2,50,3,1,k,purple,5ead868fe65d1f41dac2ebd4,2021-09-27_13h53.06.844,forced_choiceRT_color,2021.2.3,Win32,59.95203837,,,,,,,,,,,,,,,,,,,,,,,
0,d,1,0.467,12,3,51,0,1,d,orange,5ead868fe65d1f41dac2ebd4,2021-09-27_13h53.06.844,forced_choiceRT_color,2021.2.3,Win32,59.95203837,,,,,,,,,,,,,,,,,,,,,,,
0,f,1,0.468,13,0,52,1,1,f,blue,5ead868fe65d1f41dac2ebd4,2021-09-27_13h53.06.844,forced_choiceRT_color,2021.2.3,Win32,59.95203837,,,,,,,,,,,,,,,,,,,,,,,
0,k,1,0.502,13,1,53,3,1,k,purple,5ead868fe65d1f41dac2ebd4,2021-09-27_13h53.06.844,forced_choiceRT_color,2021.2.3,Win32,59.95203837,,,,,,,,,,,,,,,,,,,,,,,
0,f,1,0.538,13,2,54,1,1,f,blue,5ead868fe65d1f41dac2ebd4,2021-09-27_13h53.06.844,forced_choiceRT_color,2021.2.3,Win32,59.95203837,,,,,,,,,,,,,,,,,,,,,,,
0,j,1,0.37,13,3,55,2,1,j,red,5ead868fe65d1f41dac2ebd4,2021-09-27_13h53.06.844,forced_choiceRT_color,2021.2.3,Win32,59.95203837,,,,,,,,,,,,,,,,,,,,,,,
0,k,1,0.491,14,0,56,3,1,k,purple,5ead868fe65d1f41dac2ebd4,2021-09-27_13h53.06.844,forced_choiceRT_color,2021.2.3,Win32,59.95203837,,,,,,,,,,,,,,,,,,,,,,,
0,d,1,0.553,14,1,57,0,1,d,orange,5ead868fe65d1f41dac2ebd4,2021-09-27_13h53.06.844,forced_choiceRT_color,2021.2.3,Win32,59.95203837,,,,,,,,,,,,,,,,,,,,,,,
0,f,1,0.536,14,2,58,1,1,f,blue,5ead868fe65d1f41dac2ebd4,2021-09-27_13h53.06.844,forced_choiceRT_color,2021.2.3,Win32,59.95203837,,,,,,,,,,,,,,,,,,,,,,,
0,j,1,0.385,14,3,59,2,1,j,red,5ead868fe65d1f41dac2ebd4,2021-09-27_13h53.06.844,forced_choiceRT_color,2021.2.3,Win32,59.95203837,,,,,,,,,,,,,,,,,,,,,,,
,,,,,,,,,,,5ead868fe65d1f41dac2ebd4,2021-09-27_13h53.06.844,forced_choiceRT_color,2021.2.3,Win32,59.95203837,j,2.322,0,0,0,0,1,,,,,,,,,,,,,,,,
,,,,,,,,,,,5ead868fe65d1f41dac2ebd4,2021-09-27_13h53.06.844,forced_choiceRT_color,2021.2.3,Win32,59.95203837,j,2.218,1,0,1,0,1,,,,,,,,,,,,,,,,
,,,,,,,,,,,5ead868fe65d1f41dac2ebd4,2021-09-27_13h53.06.844,forced_choiceRT_color,2021.2.3,Win32,59.95203837,j,2.051,2,0,2,0,1,,,,,,,,,,,,,,,,
,,,,,,,,,,,5ead868fe65d1f41dac2ebd4,2021-09-27_13h53.06.844,forced_choiceRT_color,2021.2.3,Win32,59.95203837,j,2.067,3,0,3,0,1,,,,,,,,,,,,,,,,
,,,,,,,,,,,5ead868fe65d1f41dac2ebd4,2021-09-27_13h53.06.844,forced_choiceRT_color,2021.2.3,Win32,59.95203837,k,2.051,4,0,4,0,1,,,,,,,,,,,,,,,,
,,,,,,,,,,,5ead868fe65d1f41dac2ebd4,2021-09-27_13h53.06.844,forced_choiceRT_color,2021.2.3,Win32,59.95203837,f,2.057,5,0,5,0,1,,,,,,,,,,,,,,,,
,,,,,,,,,,,5ead868fe65d1f41dac2ebd4,2021-09-27_13h53.06.844,forced_choiceRT_color,2021.2.3,Win32,59.95203837,d,2.101,6,0,6,0,1,,,,,,,,,,,,,,,,
,,,,,,,,,,,5ead868fe65d1f41dac2ebd4,2021-09-27_13h53.06.844,forced_choiceRT_color,2021.2.3,Win32,59.95203837,d,1.984,7,0,7,0,1,,,,,,,,,,,,,,,,
,,,,,,,,,,,5ead868fe65d1f41dac2ebd4,2021-09-27_13h53.06.844,forced_choiceRT_color,2021.2.3,Win32,59.95203837,j,1.935,8,0,8,0,1,,,,,,,,,,,,,,,,
,,,,,,,,,,,5ead868fe65d1f41dac2ebd4,2021-09-27_13h53.06.844,forced_choiceRT_color,2021.2.3,Win32,59.95203837,d,1.967,9,0,9,0,1,,,,,,,,,,,,,,,,
,,,,,,,,,,,5ead868fe65d1f41dac2ebd4,2021-09-27_13h53.06.844,forced_choiceRT_color,2021.2.3,Win32,59.95203837,j,1.704,10,0,10,0,1,,,,,,,,,,,,,,,,
,,,,,,,,,,,5ead868fe65d1f41dac2ebd4,2021-09-27_13h53.06.844,forced_choiceRT_color,2021.2.3,Win32,59.95203837,j,1.884,11,0,11,0,1,,,,,,,,,,,,,,,,
,,,,,,,,,,,5ead868fe65d1f41dac2ebd4,2021-09-27_13h53.06.844,forced_choiceRT_color,2021.2.3,Win32,59.95203837,k,2.135,12,0,12,0,1,,,,,,,,,,,,,,,,
,,,,,,,,,,,5ead868fe65d1f41dac2ebd4,2021-09-27_13h53.06.844,forced_choiceRT_color,2021.2.3,Win32,59.95203837,j,2.085,13,0,13,0,1,,,,,,,,,,,,,,,,
,,,,,,,,,,,5ead868fe65d1f41dac2ebd4,2021-09-27_13h53.06.844,forced_choiceRT_color,2021.2.3,Win32,59.95203837,f,2.07,14,0,14,0,1,,,,,,,,,,,,,,,,
,,,,,,,,,,,5ead868fe65d1f41dac2ebd4,2021-09-27_13h53.06.844,forced_choiceRT_color,2021.2.3,Win32,59.95203837,d,2.051,15,0,15,0,1,,,,,,,,,,,,,,,,
,,,,,,,,,,,5ead868fe65d1f41dac2ebd4,2021-09-27_13h53.06.844,forced_choiceRT_color,2021.2.3,Win32,59.95203837,k,2.018,16,0,16,0,1,,,,,,,,,,,,,,,,
,,,,,,,,,,,5ead868fe65d1f41dac2ebd4,2021-09-27_13h53.06.844,forced_choiceRT_color,2021.2.3,Win32,59.95203837,j,2.002,17,0,17,0,1,,,,,,,,,,,,,,,,
,,,,,,,,,,,5ead868fe65d1f41dac2ebd4,2021-09-27_13h53.06.844,forced_choiceRT_color,2021.2.3,Win32,59.95203837,d,1.985,18,0,18,0,1,,,,,,,,,,,,,,,,
,,,,,,,,,,,5ead868fe65d1f41dac2ebd4,2021-09-27_13h53.06.844,forced_choiceRT_color,2021.2.3,Win32,59.95203837,f,2.018,19,0,19,0,1,,,,,,,,,,,,,,,,
1.26,,,,,,,,,k,purple,5ead868fe65d1f41dac2ebd4,2021-09-27_13h53.06.844,forced_choiceRT_color,2021.2.3,Win32,59.95203837,,,,,,,,1,Ontime,short,k,1,2.004,0,0,0,3,1,,,,,
0.79,,,,,,,,,k,purple,5ead868fe65d1f41dac2ebd4,2021-09-27_13h53.06.844,forced_choiceRT_color,2021.2.3,Win32,59.95203837,,,,,,,,1,Ontime,short,k,1,2.033,0,1,1,3,1,,,,,
0.82,,,,,,,,,k,purple,5ead868fe65d1f41dac2ebd4,2021-09-27_13h53.06.844,forced_choiceRT_color,2021.2.3,Win32,59.95203837,,,,,,,,1,Ontime,short,k,1,2.016,0,2,2,3,1,,,,,
0.75,,,,,,,,,k,purple,5ead868fe65d1f41dac2ebd4,2021-09-27_13h53.06.844,forced_choiceRT_color,2021.2.3,Win32,59.95203837,,,,,,,,1,Ontime,short,k,1,1.968,0,3,3,3,1,,,,,
0.03,,,,,,,,,k,purple,5ead868fe65d1f41dac2ebd4,2021-09-27_13h53.06.844,forced_choiceRT_color,2021.2.3,Win32,59.95203837,,,,,,,,1,Ontime,short,k,1,1.975,1,0,4,3,1,,,,,
0.45,,,,,,,,,d,orange,5ead868fe65d1f41dac2ebd4,2021-09-27_13h53.06.844,forced_choiceRT_color,2021.2.3,Win32,59.95203837,,,,,,,,1,Ontime,short,d,1,1.951,1,1,5,0,1,,,,,
1.05,,,,,,,,,j,red,5ead868fe65d1f41dac2ebd4,2021-09-27_13h53.06.844,forced_choiceRT_color,2021.2.3,Win32,59.95203837,,,,,,,,1,Ontime,short,j,1,2.033,1,2,6,2,1,,,,,
0.08,,,,,,,,,k,purple,5ead868fe65d1f41dac2ebd4,2021-09-27_13h53.06.844,forced_choiceRT_color,2021.2.3,Win32,59.95203837,,,,,,,,1,Ontime,short,k,1,2.036,1,3,7,3,1,,,,,
1.08,,,,,,,,,d,orange,5ead868fe65d1f41dac2ebd4,2021-09-27_13h53.06.844,forced_choiceRT_color,2021.2.3,Win32,59.95203837,,,,,,,,1,Slow,short,d,1,2.125,2,0,8,0,1,,,,,
1.12,,,,,,,,,d,orange,5ead868fe65d1f41dac2ebd4,2021-09-27_13h53.06.844,forced_choiceRT_color,2021.2.3,Win32,59.95203837,,,,,,,,1,Ontime,short,d,1,2.003,2,1,9,0,1,,,,,
0.62,,,,,,,,,f,blue,5ead868fe65d1f41dac2ebd4,2021-09-27_13h53.06.844,forced_choiceRT_color,2021.2.3,Win32,59.95203837,,,,,,,,1,Ontime,short,f,1,2.017,2,2,10,1,1,,,,,
1.8,,,,,,,,,f,blue,5ead868fe65d1f41dac2ebd4,2021-09-27_13h53.06.844,forced_choiceRT_color,2021.2.3,Win32,59.95203837,,,,,,,,1,Slow,short,k,0,2.206,2,3,11,1,1,,,,,
1.81,,,,,,,,,j,red,5ead868fe65d1f41dac2ebd4,2021-09-27_13h53.06.844,forced_choiceRT_color,2021.2.3,Win32,59.95203837,,,,,,,,1,Slow,short,f,0,2.168,3,0,12,2,1,,,,,
0.36,,,,,,,,,j,red,5ead868fe65d1f41dac2ebd4,2021-09-27_13h53.06.844,forced_choiceRT_color,2021.2.3,Win32,59.95203837,,,,,,,,1,Ontime,short,j,1,1.988,3,1,13,2,1,,,,,
1.17,,,,,,,,,j,red,5ead868fe65d1f41dac2ebd4,2021-09-27_13h53.06.844,forced_choiceRT_color,2021.2.3,Win32,59.95203837,,,,,,,,1,Fast,short,j,1,1.635,3,2,14,2,1,,,,,
1.28,,,,,,,,,d,orange,5ead868fe65d1f41dac2ebd4,2021-09-27_13h53.06.844,forced_choiceRT_color,2021.2.3,Win32,59.95203837,,,,,,,,1,Ontime,short,d,1,1.988,3,3,15,0,1,,,,,
1.5,,,,,,,,,f,blue,5ead868fe65d1f41dac2ebd4,2021-09-27_13h53.06.844,forced_choiceRT_color,2021.2.3,Win32,59.95203837,,,,,,,,1,Ontime,short,f,1,1.971,4,0,16,1,1,,,,,
0.43,,,,,,,,,f,blue,5ead868fe65d1f41dac2ebd4,2021-09-27_13h53.06.844,forced_choiceRT_color,2021.2.3,Win32,59.95203837,,,,,,,,1,Ontime,short,f,1,2.036,4,1,17,1,1,,,,,
1.93,,,,,,,,,k,purple,5ead868fe65d1f41dac2ebd4,2021-09-27_13h53.06.844,forced_choiceRT_color,2021.2.3,Win32,59.95203837,,,,,,,,1,Slow,short,j,0,2.234,4,2,18,3,1,,,,,
0.21,,,,,,,,,f,blue,5ead868fe65d1f41dac2ebd4,2021-09-27_13h53.06.844,forced_choiceRT_color,2021.2.3,Win32,59.95203837,,,,,,,,1,Ontime,short,f,1,2.003,4,3,19,1,1,,,,,
1.05,,,,,,,,,d,orange,5ead868fe65d1f41dac2ebd4,2021-09-27_13h53.06.844,forced_choiceRT_color,2021.2.3,Win32,59.95203837,,,,,,,,1,Ontime,short,d,1,2.051,5,0,20,0,1,,,,,
1.57,,,,,,,,,d,orange,5ead868fe65d1f41dac2ebd4,2021-09-27_13h53.06.844,forced_choiceRT_color,2021.2.3,Win32,59.95203837,,,,,,,,1,Ontime,short,f,0,2.034,5,1,21,0,1,,,,,
1.68,,,,,,,,,d,orange,5ead868fe65d1f41dac2ebd4,2021-09-27_13h53.06.844,forced_choiceRT_color,2021.2.3,Win32,59.95203837,,,,,,,,1,Fast,short,d,1,0.059,5,2,22,0,1,,,,,
1.13,,,,,,,,,d,orange,5ead868fe65d1f41dac2ebd4,2021-09-27_13h53.06.844,forced_choiceRT_color,2021.2.3,Win32,59.95203837,,,,,,,,1,Ontime,short,d,1,1.969,5,3,23,0,1,,,,,
1.65,,,,,,,,,f,blue,5ead868fe65d1f41dac2ebd4,2021-09-27_13h53.06.844,forced_choiceRT_color,2021.2.3,Win32,59.95203837,,,,,,,,1,Ontime,short,f,1,2.083,6,0,24,1,1,,,,,
0.09,,,,,,,,,f,blue,5ead868fe65d1f41dac2ebd4,2021-09-27_13h53.06.844,forced_choiceRT_color,2021.2.3,Win32,59.95203837,,,,,,,,1,Ontime,short,f,1,1.934,6,1,25,1,1,,,,,
0.6,,,,,,,,,f,blue,5ead868fe65d1f41dac2ebd4,2021-09-27_13h53.06.844,forced_choiceRT_color,2021.2.3,Win32,59.95203837,,,,,,,,1,Ontime,short,f,1,1.984,6,2,26,1,1,,,,,
0.25,,,,,,,,,d,orange,5ead868fe65d1f41dac2ebd4,2021-09-27_13h53.06.844,forced_choiceRT_color,2021.2.3,Win32,59.95203837,,,,,,,,1,Ontime,short,d,1,1.953,6,3,27,0,1,,,,,
1.94,,,,,,,,,j,red,5ead868fe65d1f41dac2ebd4,2021-09-27_13h53.06.844,forced_choiceRT_color,2021.2.3,Win32,59.95203837,,,,,,,,1,Slow,short,j,1,2.306,7,0,28,2,1,,,,,
1.53,,,,,,,,,j,red,5ead868fe65d1f41dac2ebd4,2021-09-27_13h53.06.844,forced_choiceRT_color,2021.2.3,Win32,59.95203837,,,,,,,,1,Fast,short,j,1,1.885,7,1,29,2,1,,,,,
1.89,,,,,,,,,f,blue,5ead868fe65d1f41dac2ebd4,2021-09-27_13h53.06.844,forced_choiceRT_color,2021.2.3,Win32,59.95203837,,,,,,,,1,Slow,short,d,0,2.255,7,2,30,1,1,,,,,
0.52,,,,,,,,,f,blue,5ead868fe65d1f41dac2ebd4,2021-09-27_13h53.06.844,forced_choiceRT_color,2021.2.3,Win32,59.95203837,,,,,,,,1,Ontime,short,f,1,2.042,7,3,31,1,1,,,,,
0.52,,,,,,,,,k,purple,5ead868fe65d1f41dac2ebd4,2021-09-27_13h53.06.844,forced_choiceRT_color,2021.2.3,Win32,59.95203837,,,,,,,,1,Ontime,short,k,1,2.043,8,0,32,3,1,,,,,
0.5,,,,,,,,,k,purple,5ead868fe65d1f41dac2ebd4,2021-09-27_13h53.06.844,forced_choiceRT_color,2021.2.3,Win32,59.95203837,,,,,,,,1,Ontime,short,k,1,1.97,8,1,33,3,1,,,,,
0.67,,,,,,,,,j,red,5ead868fe65d1f41dac2ebd4,2021-09-27_13h53.06.844,forced_choiceRT_color,2021.2.3,Win32,59.95203837,,,,,,,,1,Ontime,short,j,1,1.95,8,2,34,2,1,,,,,
1.05,,,,,,,,,d,orange,5ead868fe65d1f41dac2ebd4,2021-09-27_13h53.06.844,forced_choiceRT_color,2021.2.3,Win32,59.95203837,,,,,,,,1,Fast,short,d,1,1.686,8,3,35,0,1,,,,,
1.33,,,,,,,,,j,red,5ead868fe65d1f41dac2ebd4,2021-09-27_13h53.06.844,forced_choiceRT_color,2021.2.3,Win32,59.95203837,,,,,,,,1,Ontime,short,j,1,2.017,9,0,36,2,1,,,,,
1.14,,,,,,,,,k,purple,5ead868fe65d1f41dac2ebd4,2021-09-27_13h53.06.844,forced_choiceRT_color,2021.2.3,Win32,59.95203837,,,,,,,,1,Ontime,short,k,1,1.936,9,1,37,3,1,,,,,
0.02,,,,,,,,,j,red,5ead868fe65d1f41dac2ebd4,2021-09-27_13h53.06.844,forced_choiceRT_color,2021.2.3,Win32,59.95203837,,,,,,,,1,Ontime,short,j,1,1.938,9,2,38,2,1,,,,,
0.92,,,,,,,,,j,red,5ead868fe65d1f41dac2ebd4,2021-09-27_13h53.06.844,forced_choiceRT_color,2021.2.3,Win32,59.95203837,,,,,,,,1,Ontime,short,j,1,1.92,9,3,39,2,1,,,,,
,,,,,,,,,,,5ead868fe65d1f41dac2ebd4,2021-09-27_13h53.06.844,forced_choiceRT_color,2021.2.3,Win32,59.95203837,,,,,,,,,,,,,,,,,,,0,0,0,0,1
1.86,,,,,,,,,j,red,5ead868fe65d1f41dac2ebd4,2021-09-27_13h53.06.844,forced_choiceRT_color,2021.2.3,Win32,59.95203837,,,,,,,,2,Ontime,short,d,0,2.081,0,0,0,2,1,,,,,
1.45,,,,,,,,,f,blue,5ead868fe65d1f41dac2ebd4,2021-09-27_13h53.06.844,forced_choiceRT_color,2021.2.3,Win32,59.95203837,,,,,,,,2,Ontime,short,f,1,2.006,0,1,1,1,1,,,,,
1.2,,,,,,,,,f,blue,5ead868fe65d1f41dac2ebd4,2021-09-27_13h53.06.844,forced_choiceRT_color,2021.2.3,Win32,59.95203837,,,,,,,,2,Ontime,short,f,1,1.952,0,2,2,1,1,,,,,
1.73,,,,,,,,,d,orange,5ead868fe65d1f41dac2ebd4,2021-09-27_13h53.06.844,forced_choiceRT_color,2021.2.3,Win32,59.95203837,,,,,,,,2,Ontime,short,f,0,2.084,0,3,3,0,1,,,,,
0.31,,,,,,,,,k,purple,5ead868fe65d1f41dac2ebd4,2021-09-27_13h53.06.844,forced_choiceRT_color,2021.2.3,Win32,59.95203837,,,,,,,,2,Fast,short,d,0,0.084,1,0,4,3,1,,,,,
1.22,,,,,,,,,d,orange,5ead868fe65d1f41dac2ebd4,2021-09-27_13h53.06.844,forced_choiceRT_color,2021.2.3,Win32,59.95203837,,,,,,,,2,Ontime,short,d,1,1.967,1,1,5,0,1,,,,,
1.5,,,,,,,,,f,blue,5ead868fe65d1f41dac2ebd4,2021-09-27_13h53.06.844,forced_choiceRT_color,2021.2.3,Win32,59.95203837,,,,,,,,2,Ontime,short,f,1,2.018,1,2,6,1,1,,,,,
1.51,,,,,,,,,j,red,5ead868fe65d1f41dac2ebd4,2021-09-27_13h53.06.844,forced_choiceRT_color,2021.2.3,Win32,59.95203837,,,,,,,,2,Ontime,short,k,0,1.991,1,3,7,2,1,,,,,
0.12,,,,,,,,,d,orange,5ead868fe65d1f41dac2ebd4,2021-09-27_13h53.06.844,forced_choiceRT_color,2021.2.3,Win32,59.95203837,,,,,,,,2,Fast,short,j,0,0.008,2,0,8,0,1,,,,,
0.81,,,,,,,,,j,red,5ead868fe65d1f41dac2ebd4,2021-09-27_13h53.06.844,forced_choiceRT_color,2021.2.3,Win32,59.95203837,,,,,,,,2,Ontime,short,j,1,1.985,2,1,9,2,1,,,,,
1.2,,,,,,,,,d,orange,5ead868fe65d1f41dac2ebd4,2021-09-27_13h53.06.844,forced_choiceRT_color,2021.2.3,Win32,59.95203837,,,,,,,,2,Ontime,short,d,1,2.004,2,2,10,0,1,,,,,
1.11,,,,,,,,,j,red,5ead868fe65d1f41dac2ebd4,2021-09-27_13h53.06.844,forced_choiceRT_color,2021.2.3,Win32,59.95203837,,,,,,,,2,Ontime,short,j,1,2.018,2,3,11,2,1,,,,,
1.57,,,,,,,,,f,blue,5ead868fe65d1f41dac2ebd4,2021-09-27_13h53.06.844,forced_choiceRT_color,2021.2.3,Win32,59.95203837,,,,,,,,2,Ontime,short,f,1,2.035,3,0,12,1,1,,,,,
1.19,,,,,,,,,k,purple,5ead868fe65d1f41dac2ebd4,2021-09-27_13h53.06.844,forced_choiceRT_color,2021.2.3,Win32,59.95203837,,,,,,,,2,Ontime,short,k,1,1.992,3,1,13,3,1,,,,,
1.15,,,,,,,,,j,red,5ead868fe65d1f41dac2ebd4,2021-09-27_13h53.06.844,forced_choiceRT_color,2021.2.3,Win32,59.95203837,,,,,,,,2,Ontime,short,j,1,1.991,3,2,14,2,1,,,,,
0.87,,,,,,,,,j,red,5ead868fe65d1f41dac2ebd4,2021-09-27_13h53.06.844,forced_choiceRT_color,2021.2.3,Win32,59.95203837,,,,,,,,2,Ontime,short,j,1,1.936,3,3,15,2,1,,,,,
1.98,,,,,,,,,k,purple,5ead868fe65d1f41dac2ebd4,2021-09-27_13h53.06.844,forced_choiceRT_color,2021.2.3,Win32,59.95203837,,,,,,,,2,Slow,short,j,0,2.101,4,0,16,3,1,,,,,
0.52,,,,,,,,,f,blue,5ead868fe65d1f41dac2ebd4,2021-09-27_13h53.06.844,forced_choiceRT_color,2021.2.3,Win32,59.95203837,,,,,,,,2,Ontime,short,f,1,1.936,4,1,17,1,1,,,,,
1.89,,,,,,,,,f,blue,5ead868fe65d1f41dac2ebd4,2021-09-27_13h53.06.844,forced_choiceRT_color,2021.2.3,Win32,59.95203837,,,,,,,,2,Slow,short,j,0,2.117,4,2,18,1,1,,,,,
1.32,,,,,,,,,d,orange,5ead868fe65d1f41dac2ebd4,2021-09-27_13h53.06.844,forced_choiceRT_color,2021.2.3,Win32,59.95203837,,,,,,,,2,Ontime,short,d,1,1.986,4,3,19,0,1,,,,,
0.55,,,,,,,,,f,blue,5ead868fe65d1f41dac2ebd4,2021-09-27_13h53.06.844,forced_choiceRT_color,2021.2.3,Win32,59.95203837,,,,,,,,2,Ontime,short,f,1,1.922,5,0,20,1,1,,,,,
0.15,,,,,,,,,k,purple,5ead868fe65d1f41dac2ebd4,2021-09-27_13h53.06.844,forced_choiceRT_color,2021.2.3,Win32,59.95203837,,,,,,,,2,Ontime,short,k,1,1.985,5,1,21,3,1,,,,,
0.83,,,,,,,,,d,orange,5ead868fe65d1f41dac2ebd4,2021-09-27_13h53.06.844,forced_choiceRT_color,2021.2.3,Win32,59.95203837,,,,,,,,2,Ontime,short,d,1,2.001,5,2,22,0,1,,,,,
1.23,,,,,,,,,f,blue,5ead868fe65d1f41dac2ebd4,2021-09-27_13h53.06.844,forced_choiceRT_color,2021.2.3,Win32,59.95203837,,,,,,,,2,Ontime,short,f,1,1.985,5,3,23,1,1,,,,,
1.27,,,,,,,,,j,red,5ead868fe65d1f41dac2ebd4,2021-09-27_13h53.06.844,forced_choiceRT_color,2021.2.3,Win32,59.95203837,,,,,,,,2,Ontime,short,j,1,1.923,6,0,24,2,1,,,,,
0.49,,,,,,,,,d,orange,5ead868fe65d1f41dac2ebd4,2021-09-27_13h53.06.844,forced_choiceRT_color,2021.2.3,Win32,59.95203837,,,,,,,,2,Ontime,short,d,1,2.002,6,1,25,0,1,,,,,
1.86,,,,,,,,,d,orange,5ead868fe65d1f41dac2ebd4,2021-09-27_13h53.06.844,forced_choiceRT_color,2021.2.3,Win32,59.95203837,,,,,,,,2,Ontime,short,k,0,2.001,6,2,26,0,1,,,,,
0.91,,,,,,,,,d,orange,5ead868fe65d1f41dac2ebd4,2021-09-27_13h53.06.844,forced_choiceRT_color,2021.2.3,Win32,59.95203837,,,,,,,,2,Ontime,short,d,1,1.991,6,3,27,0,1,,,,,
1.31,,,,,,,,,k,purple,5ead868fe65d1f41dac2ebd4,2021-09-27_13h53.06.844,forced_choiceRT_color,2021.2.3,Win32,59.95203837,,,,,,,,2,Ontime,short,k,1,1.97,7,0,28,3,1,,,,,
0.55,,,,,,,,,d,orange,5ead868fe65d1f41dac2ebd4,2021-09-27_13h53.06.844,forced_choiceRT_color,2021.2.3,Win32,59.95203837,,,,,,,,2,Ontime,short,d,1,1.968,7,1,29,0,1,,,,,
0.6,,,,,,,,,j,red,5ead868fe65d1f41dac2ebd4,2021-09-27_13h53.06.844,forced_choiceRT_color,2021.2.3,Win32,59.95203837,,,,,,,,2,Ontime,short,j,1,2.005,7,2,30,2,1,,,,,
0.46,,,,,,,,,j,red,5ead868fe65d1f41dac2ebd4,2021-09-27_13h53.06.844,forced_choiceRT_color,2021.2.3,Win32,59.95203837,,,,,,,,2,Ontime,short,j,1,1.985,7,3,31,2,1,,,,,
1.31,,,,,,,,,k,purple,5ead868fe65d1f41dac2ebd4,2021-09-27_13h53.06.844,forced_choiceRT_color,2021.2.3,Win32,59.95203837,,,,,,,,2,Ontime,short,k,1,2.001,8,0,32,3,1,,,,,
0.94,,,,,,,,,k,purple,5ead868fe65d1f41dac2ebd4,2021-09-27_13h53.06.844,forced_choiceRT_color,2021.2.3,Win32,59.95203837,,,,,,,,2,Ontime,short,k,1,1.956,8,1,33,3,1,,,,,
0.23,,,,,,,,,j,red,5ead868fe65d1f41dac2ebd4,2021-09-27_13h53.06.844,forced_choiceRT_color,2021.2.3,Win32,59.95203837,,,,,,,,2,Ontime,short,j,1,1.951,8,2,34,2,1,,,,,
1.76,,,,,,,,,k,purple,5ead868fe65d1f41dac2ebd4,2021-09-27_13h53.06.844,forced_choiceRT_color,2021.2.3,Win32,59.95203837,,,,,,,,2,Ontime,short,j,0,1.956,8,3,35,3,1,,,,,
1.63,,,,,,,,,f,blue,5ead868fe65d1f41dac2ebd4,2021-09-27_13h53.06.844,forced_choiceRT_color,2021.2.3,Win32,59.95203837,,,,,,,,2,Ontime,short,f,1,2.023,9,0,36,1,1,,,,,
0.48,,,,,,,,,k,purple,5ead868fe65d1f41dac2ebd4,2021-09-27_13h53.06.844,forced_choiceRT_color,2021.2.3,Win32,59.95203837,,,,,,,,2,Ontime,short,k,1,1.925,9,1,37,3,1,,,,,
1.54,,,,,,,,,k,purple,5ead868fe65d1f41dac2ebd4,2021-09-27_13h53.06.844,forced_choiceRT_color,2021.2.3,Win32,59.95203837,,,,,,,,2,Ontime,short,k,1,2.019,9,2,38,3,1,,,,,
0.14,,,,,,,,,f,blue,5ead868fe65d1f41dac2ebd4,2021-09-27_13h53.06.844,forced_choiceRT_color,2021.2.3,Win32,59.95203837,,,,,,,,2,Ontime,short,f,1,1.968,9,3,39,1,1,,,,,
,,,,,,,,,,,5ead868fe65d1f41dac2ebd4,2021-09-27_13h53.06.844,forced_choiceRT_color,2021.2.3,Win32,59.95203837,,,,,,,,,,,,,,,,,,,1,0,1,0,1
1.22,,,,,,,,,j,red,5ead868fe65d1f41dac2ebd4,2021-09-27_13h53.06.844,forced_choiceRT_color,2021.2.3,Win32,59.95203837,,,,,,,,3,Ontime,short,j,1,1.964,0,0,0,2,1,,,,,
1.96,,,,,,,,,d,orange,5ead868fe65d1f41dac2ebd4,2021-09-27_13h53.06.844,forced_choiceRT_color,2021.2.3,Win32,59.95203837,,,,,,,,3,Ontime,short,j,0,2.017,0,1,1,0,1,,,,,
0.96,,,,,,,,,k,purple,5ead868fe65d1f41dac2ebd4,2021-09-27_13h53.06.844,forced_choiceRT_color,2021.2.3,Win32,59.95203837,,,,,,,,3,Ontime,short,k,1,2.035,0,2,2,3,1,,,,,
0.83,,,,,,,,,j,red,5ead868fe65d1f41dac2ebd4,2021-09-27_13h53.06.844,forced_choiceRT_color,2021.2.3,Win32,59.95203837,,,,,,,,3,Ontime,short,j,1,1.906,0,3,3,2,1,,,,,
1.44,,,,,,,,,d,orange,5ead868fe65d1f41dac2ebd4,2021-09-27_13h53.06.844,forced_choiceRT_color,2021.2.3,Win32,59.95203837,,,,,,,,3,Ontime,short,f,0,1.984,1,0,4,0,1,,,,,
0.92,,,,,,,,,d,orange,5ead868fe65d1f41dac2ebd4,2021-09-27_13h53.06.844,forced_choiceRT_color,2021.2.3,Win32,59.95203837,,,,,,,,3,Ontime,short,d,1,1.968,1,1,5,0,1,,,,,
0.29,,,,,,,,,d,orange,5ead868fe65d1f41dac2ebd4,2021-09-27_13h53.06.844,forced_choiceRT_color,2021.2.3,Win32,59.95203837,,,,,,,,3,Ontime,short,d,1,1.969,1,2,6,0,1,,,,,
1.88,,,,,,,,,f,blue,5ead868fe65d1f41dac2ebd4,2021-09-27_13h53.06.844,forced_choiceRT_color,2021.2.3,Win32,59.95203837,,,,,,,,3,Ontime,short,d,0,2.036,1,3,7,1,1,,,,,
1.08,,,,,,,,,j,red,5ead868fe65d1f41dac2ebd4,2021-09-27_13h53.06.844,forced_choiceRT_color,2021.2.3,Win32,59.95203837,,,,,,,,3,Ontime,short,j,1,1.984,2,0,8,2,1,,,,,
0.93,,,,,,,,,f,blue,5ead868fe65d1f41dac2ebd4,2021-09-27_13h53.06.844,forced_choiceRT_color,2021.2.3,Win32,59.95203837,,,,,,,,3,Ontime,short,f,1,1.97,2,1,9,1,1,,,,,
1.74,,,,,,,,,k,purple,5ead868fe65d1f41dac2ebd4,2021-09-27_13h53.06.844,forced_choiceRT_color,2021.2.3,Win32,59.95203837,,,,,,,,3,Ontime,short,j,0,2.052,2,2,10,3,1,,,,,
0.54,,,,,,,,,d,orange,5ead868fe65d1f41dac2ebd4,2021-09-27_13h53.06.844,forced_choiceRT_color,2021.2.3,Win32,59.95203837,,,,,,,,3,Ontime,short,d,1,2.017,2,3,11,0,1,,,,,
1.86,,,,,,,,,d,orange,5ead868fe65d1f41dac2ebd4,2021-09-27_13h53.06.844,forced_choiceRT_color,2021.2.3,Win32,59.95203837,,,,,,,,3,Ontime,short,j,0,1.984,3,0,12,0,1,,,,,
1.57,,,,,,,,,f,blue,5ead868fe65d1f41dac2ebd4,2021-09-27_13h53.06.844,forced_choiceRT_color,2021.2.3,Win32,59.95203837,,,,,,,,3,Ontime,short,f,1,2.034,3,1,13,1,1,,,,,
1.1,,,,,,,,,k,purple,5ead868fe65d1f41dac2ebd4,2021-09-27_13h53.06.844,forced_choiceRT_color,2021.2.3,Win32,59.95203837,,,,,,,,3,Ontime,short,k,1,1.972,3,2,14,3,1,,,,,
0.33,,,,,,,,,f,blue,5ead868fe65d1f41dac2ebd4,2021-09-27_13h53.06.844,forced_choiceRT_color,2021.2.3,Win32,59.95203837,,,,,,,,3,Ontime,short,f,1,1.969,3,3,15,1,1,,,,,
1.24,,,,,,,,,d,orange,5ead868fe65d1f41dac2ebd4,2021-09-27_13h53.06.844,forced_choiceRT_color,2021.2.3,Win32,59.95203837,,,,,,,,3,Ontime,short,d,1,1.953,4,0,16,0,1,,,,,
1.25,,,,,,,,,f,blue,5ead868fe65d1f41dac2ebd4,2021-09-27_13h53.06.844,forced_choiceRT_color,2021.2.3,Win32,59.95203837,,,,,,,,3,Ontime,short,f,1,1.969,4,1,17,1,1,,,,,
1.24,,,,,,,,,f,blue,5ead868fe65d1f41dac2ebd4,2021-09-27_13h53.06.844,forced_choiceRT_color,2021.2.3,Win32,59.95203837,,,,,,,,3,Ontime,short,f,1,1.989,4,2,18,1,1,,,,,
0.07,,,,,,,,,k,purple,5ead868fe65d1f41dac2ebd4,2021-09-27_13h53.06.844,forced_choiceRT_color,2021.2.3,Win32,59.95203837,,,,,,,,3,Ontime,short,k,1,1.933,4,3,19,3,1,,,,,
0.91,,,,,,,,,d,orange,5ead868fe65d1f41dac2ebd4,2021-09-27_13h53.06.844,forced_choiceRT_color,2021.2.3,Win32,59.95203837,,,,,,,,3,Ontime,short,d,1,2.002,5,0,20,0,1,,,,,
1.55,,,,,,,,,k,purple,5ead868fe65d1f41dac2ebd4,2021-09-27_13h53.06.844,forced_choiceRT_color,2021.2.3,Win32,59.95203837,,,,,,,,3,Ontime,short,k,1,2.036,5,1,21,3,1,,,,,
0.39,,,,,,,,,f,blue,5ead868fe65d1f41dac2ebd4,2021-09-27_13h53.06.844,forced_choiceRT_color,2021.2.3,Win32,59.95203837,,,,,,,,3,Ontime,short,f,1,1.923,5,2,22,1,1,,,,,
1.08,,,,,,,,,j,red,5ead868fe65d1f41dac2ebd4,2021-09-27_13h53.06.844,forced_choiceRT_color,2021.2.3,Win32,59.95203837,,,,,,,,3,Ontime,short,j,1,2.051,5,3,23,2,1,,,,,
1.89,,,,,,,,,j,red,5ead868fe65d1f41dac2ebd4,2021-09-27_13h53.06.844,forced_choiceRT_color,2021.2.3,Win32,59.95203837,,,,,,,,3,Ontime,short,j,1,2.084,6,0,24,2,1,,,,,
0.67,,,,,,,,,k,purple,5ead868fe65d1f41dac2ebd4,2021-09-27_13h53.06.844,forced_choiceRT_color,2021.2.3,Win32,59.95203837,,,,,,,,3,Ontime,short,k,1,2.036,6,1,25,3,1,,,,,
0.18,,,,,,,,,f,blue,5ead868fe65d1f41dac2ebd4,2021-09-27_13h53.06.844,forced_choiceRT_color,2021.2.3,Win32,59.95203837,,,,,,,,3,Ontime,short,f,1,1.951,6,2,26,1,1,,,,,
1.22,,,,,,,,,k,purple,5ead868fe65d1f41dac2ebd4,2021-09-27_13h53.06.844,forced_choiceRT_color,2021.2.3,Win32,59.95203837,,,,,,,,3,Ontime,short,k,1,1.984,6,3,27,3,1,,,,,
0.98,,,,,,,,,f,blue,5ead868fe65d1f41dac2ebd4,2021-09-27_13h53.06.844,forced_choiceRT_color,2021.2.3,Win32,59.95203837,,,,,,,,3,Ontime,short,f,1,1.917,7,0,28,1,1,,,,,
0.46,,,,,,,,,j,red,5ead868fe65d1f41dac2ebd4,2021-09-27_13h53.06.844,forced_choiceRT_color,2021.2.3,Win32,59.95203837,,,,,,,,3,Ontime,short,d,0,1.92,7,1,29,2,1,,,,,
1.71,,,,,,,,,k,purple,5ead868fe65d1f41dac2ebd4,2021-09-27_13h53.06.844,forced_choiceRT_color,2021.2.3,Win32,59.95203837,,,,,,,,3,Ontime,short,d,0,1.958,7,2,30,3,1,,,,,
0.02,,,,,,,,,k,purple,5ead868fe65d1f41dac2ebd4,2021-09-27_13h53.06.844,forced_choiceRT_color,2021.2.3,Win32,59.95203837,,,,,,,,3,Ontime,short,k,1,1.986,7,3,31,3,1,,,,,
1.47,,,,,,,,,j,red,5ead868fe65d1f41dac2ebd4,2021-09-27_13h53.06.844,forced_choiceRT_color,2021.2.3,Win32,59.95203837,,,,,,,,3,Ontime,short,f,0,1.969,8,0,32,2,1,,,,,
1.57,,,,,,,,,j,red,5ead868fe65d1f41dac2ebd4,2021-09-27_13h53.06.844,forced_choiceRT_color,2021.2.3,Win32,59.95203837,,,,,,,,3,Ontime,short,j,1,1.938,8,1,33,2,1,,,,,
0.05,,,,,,,,,d,orange,5ead868fe65d1f41dac2ebd4,2021-09-27_13h53.06.844,forced_choiceRT_color,2021.2.3,Win32,59.95203837,,,,,,,,3,Ontime,short,d,1,1.968,8,2,34,0,1,,,,,
0.72,,,,,,,,,j,red,5ead868fe65d1f41dac2ebd4,2021-09-27_13h53.06.844,forced_choiceRT_color,2021.2.3,Win32,59.95203837,,,,,,,,3,Ontime,short,j,1,1.901,8,3,35,2,1,,,,,
1.31,,,,,,,,,k,purple,5ead868fe65d1f41dac2ebd4,2021-09-27_13h53.06.844,forced_choiceRT_color,2021.2.3,Win32,59.95203837,,,,,,,,3,Ontime,short,k,1,1.918,9,0,36,3,1,,,,,
1.44,,,,,,,,,j,red,5ead868fe65d1f41dac2ebd4,2021-09-27_13h53.06.844,forced_choiceRT_color,2021.2.3,Win32,59.95203837,,,,,,,,3,Ontime,short,j,1,1.901,9,1,37,2,1,,,,,
1.54,,,,,,,,,d,orange,5ead868fe65d1f41dac2ebd4,2021-09-27_13h53.06.844,forced_choiceRT_color,2021.2.3,Win32,59.95203837,,,,,,,,3,Fast,short,d,1,1.886,9,2,38,0,1,,,,,
1.66,,,,,,,,,f,blue,5ead868fe65d1f41dac2ebd4,2021-09-27_13h53.06.844,forced_choiceRT_color,2021.2.3,Win32,59.95203837,,,,,,,,3,Ontime,short,f,1,1.972,9,3,39,1,1,,,,,
,,,,,,,,,,,5ead868fe65d1f41dac2ebd4,2021-09-27_13h53.06.844,forced_choiceRT_color,2021.2.3,Win32,59.95203837,,,,,,,,,,,,,,,,,,,2,0,2,0,1
1.31,,,,,,,,,f,blue,5ead868fe65d1f41dac2ebd4,2021-09-27_13h53.06.844,forced_choiceRT_color,2021.2.3,Win32,59.95203837,,,,,,,,4,Ontime,short,f,1,2.08,0,0,0,1,1,,,,,
0.31,,,,,,,,,f,blue,5ead868fe65d1f41dac2ebd4,2021-09-27_13h53.06.844,forced_choiceRT_color,2021.2.3,Win32,59.95203837,,,,,,,,4,Ontime,short,f,1,2.001,0,1,1,1,1,,,,,
0.5,,,,,,,,,j,red,5ead868fe65d1f41dac2ebd4,2021-09-27_13h53.06.844,forced_choiceRT_color,2021.2.3,Win32,59.95203837,,,,,,,,4,Ontime,short,j,1,1.985,0,2,2,2,1,,,,,
0.63,,,,,,,,,k,purple,5ead868fe65d1f41dac2ebd4,2021-09-27_13h53.06.844,forced_choiceRT_color,2021.2.3,Win32,59.95203837,,,,,,,,4,Ontime,short,k,1,1.984,0,3,3,3,1,,,,,
1.16,,,,,,,,,f,blue,5ead868fe65d1f41dac2ebd4,2021-09-27_13h53.06.844,forced_choiceRT_color,2021.2.3,Win32,59.95203837,,,,,,,,4,Ontime,short,f,1,1.958,1,0,4,1,1,,,,,
0.28,,,,,,,,,k,purple,5ead868fe65d1f41dac2ebd4,2021-09-27_13h53.06.844,forced_choiceRT_color,2021.2.3,Win32,59.95203837,,,,,,,,4,Ontime,short,k,1,1.986,1,1,5,3,1,,,,,
1.42,,,,,,,,,d,orange,5ead868fe65d1f41dac2ebd4,2021-09-27_13h53.06.844,forced_choiceRT_color,2021.2.3,Win32,59.95203837,,,,,,,,4,Ontime,short,j,0,2.034,1,2,6,0,1,,,,,
1.34,,,,,,,,,k,purple,5ead868fe65d1f41dac2ebd4,2021-09-27_13h53.06.844,forced_choiceRT_color,2021.2.3,Win32,59.95203837,,,,,,,,4,Ontime,short,k,1,1.968,1,3,7,3,1,,,,,
1.55,,,,,,,,,j,red,5ead868fe65d1f41dac2ebd4,2021-09-27_13h53.06.844,forced_choiceRT_color,2021.2.3,Win32,59.95203837,,,,,,,,4,Ontime,short,f,0,2.018,2,0,8,2,1,,,,,
0.05,,,,,,,,,f,blue,5ead868fe65d1f41dac2ebd4,2021-09-27_13h53.06.844,forced_choiceRT_color,2021.2.3,Win32,59.95203837,,,,,,,,4,Ontime,short,f,1,1.992,2,1,9,1,1,,,,,
0.7,,,,,,,,,j,red,5ead868fe65d1f41dac2ebd4,2021-09-27_13h53.06.844,forced_choiceRT_color,2021.2.3,Win32,59.95203837,,,,,,,,4,Ontime,short,j,1,2.001,2,2,10,2,1,,,,,
1.41,,,,,,,,,d,orange,5ead868fe65d1f41dac2ebd4,2021-09-27_13h53.06.844,forced_choiceRT_color,2021.2.3,Win32,59.95203837,,,,,,,,4,Ontime,short,d,1,1.991,2,3,11,0,1,,,,,
0.76,,,,,,,,,d,orange,5ead868fe65d1f41dac2ebd4,2021-09-27_13h53.06.844,forced_choiceRT_color,2021.2.3,Win32,59.95203837,,,,,,,,4,Ontime,short,d,1,2.068,3,0,12,0,1,,,,,
0.53,,,,,,,,,k,purple,5ead868fe65d1f41dac2ebd4,2021-09-27_13h53.06.844,forced_choiceRT_color,2021.2.3,Win32,59.95203837,,,,,,,,4,Ontime,short,k,1,1.985,3,1,13,3,1,,,,,
1.19,,,,,,,,,d,orange,5ead868fe65d1f41dac2ebd4,2021-09-27_13h53.06.844,forced_choiceRT_color,2021.2.3,Win32,59.95203837,,,,,,,,4,Ontime,short,d,1,2.001,3,2,14,0,1,,,,,
1.83,,,,,,,,,j,red,5ead868fe65d1f41dac2ebd4,2021-09-27_13h53.06.844,forced_choiceRT_color,2021.2.3,Win32,59.95203837,,,,,,,,4,Ontime,short,f,0,2.068,3,3,15,2,1,,,,,
0.44,,,,,,,,,f,blue,5ead868fe65d1f41dac2ebd4,2021-09-27_13h53.06.844,forced_choiceRT_color,2021.2.3,Win32,59.95203837,,,,,,,,4,Ontime,short,f,1,2.026,4,0,16,1,1,,,,,
0.69,,,,,,,,,f,blue,5ead868fe65d1f41dac2ebd4,2021-09-27_13h53.06.844,forced_choiceRT_color,2021.2.3,Win32,59.95203837,,,,,,,,4,Ontime,short,f,1,2.035,4,1,17,1,1,,,,,
1.25,,,,,,,,,f,blue,5ead868fe65d1f41dac2ebd4,2021-09-27_13h53.06.844,forced_choiceRT_color,2021.2.3,Win32,59.95203837,,,,,,,,4,Ontime,short,f,1,1.984,4,2,18,1,1,,,,,
1.67,,,,,,,,,f,blue,5ead868fe65d1f41dac2ebd4,2021-09-27_13h53.06.844,forced_choiceRT_color,2021.2.3,Win32,59.95203837,,,,,,,,4,Ontime,short,k,0,2.05,4,3,19,1,1,,,,,
0.11,,,,,,,,,k,purple,5ead868fe65d1f41dac2ebd4,2021-09-27_13h53.06.844,forced_choiceRT_color,2021.2.3,Win32,59.95203837,,,,,,,,4,Fast,short,f,0,0.041,5,0,20,3,1,,,,,
1.94,,,,,,,,,j,red,5ead868fe65d1f41dac2ebd4,2021-09-27_13h53.06.844,forced_choiceRT_color,2021.2.3,Win32,59.95203837,,,,,,,,4,Ontime,short,k,0,2.084,5,1,21,2,1,,,,,
0.18,,,,,,,,,j,red,5ead868fe65d1f41dac2ebd4,2021-09-27_13h53.06.844,forced_choiceRT_color,2021.2.3,Win32,59.95203837,,,,,,,,4,Slow,short,j,1,2.101,5,2,22,2,1,,,,,
0.59,,,,,,,,,d,orange,5ead868fe65d1f41dac2ebd4,2021-09-27_13h53.06.844,forced_choiceRT_color,2021.2.3,Win32,59.95203837,,,,,,,,4,Ontime,short,d,1,1.989,5,3,23,0,1,,,,,
1.39,,,,,,,,,k,purple,5ead868fe65d1f41dac2ebd4,2021-09-27_13h53.06.844,forced_choiceRT_color,2021.2.3,Win32,59.95203837,,,,,,,,4,Ontime,short,k,1,1.99,6,0,24,3,1,,,,,
0.65,,,,,,,,,d,orange,5ead868fe65d1f41dac2ebd4,2021-09-27_13h53.06.844,forced_choiceRT_color,2021.2.3,Win32,59.95203837,,,,,,,,4,Ontime,short,j,0,2,6,1,25,0,1,,,,,
0.13,,,,,,,,,j,red,5ead868fe65d1f41dac2ebd4,2021-09-27_13h53.06.844,forced_choiceRT_color,2021.2.3,Win32,59.95203837,,,,,,,,4,Ontime,short,j,1,2.018,6,2,26,2,1,,,,,
0.92,,,,,,,,,f,blue,5ead868fe65d1f41dac2ebd4,2021-09-27_13h53.06.844,forced_choiceRT_color,2021.2.3,Win32,59.95203837,,,,,,,,4,Ontime,short,f,1,1.973,6,3,27,1,1,,,,,
0.24,,,,,,,,,f,blue,5ead868fe65d1f41dac2ebd4,2021-09-27_13h53.06.844,forced_choiceRT_color,2021.2.3,Win32,59.95203837,,,,,,,,4,Ontime,short,f,1,1.952,7,0,28,1,1,,,,,
0.99,,,,,,,,,j,red,5ead868fe65d1f41dac2ebd4,2021-09-27_13h53.06.844,forced_choiceRT_color,2021.2.3,Win32,59.95203837,,,,,,,,4,Ontime,short,j,1,1.983,7,1,29,2,1,,,,,
1.18,,,,,,,,,k,purple,5ead868fe65d1f41dac2ebd4,2021-09-27_13h53.06.844,forced_choiceRT_color,2021.2.3,Win32,59.95203837,,,,,,,,4,Ontime,short,k,1,1.918,7,2,30,3,1,,,,,
1.63,,,,,,,,,d,orange,5ead868fe65d1f41dac2ebd4,2021-09-27_13h53.06.844,forced_choiceRT_color,2021.2.3,Win32,59.95203837,,,,,,,,4,Ontime,short,f,0,2.036,7,3,31,0,1,,,,,
0.93,,,,,,,,,d,orange,5ead868fe65d1f41dac2ebd4,2021-09-27_13h53.06.844,forced_choiceRT_color,2021.2.3,Win32,59.95203837,,,,,,,,4,Fast,short,d,1,0.066,8,0,32,0,1,,,,,
1.1,,,,,,,,,k,purple,5ead868fe65d1f41dac2ebd4,2021-09-27_13h53.06.844,forced_choiceRT_color,2021.2.3,Win32,59.95203837,,,,,,,,4,Fast,short,k,1,1.655,8,1,33,3,1,,,,,
1.91,,,,,,,,,d,orange,5ead868fe65d1f41dac2ebd4,2021-09-27_13h53.06.844,forced_choiceRT_color,2021.2.3,Win32,59.95203837,,,,,,,,4,Slow,short,d,1,2.203,8,2,34,0,1,,,,,
0.62,,,,,,,,,k,purple,5ead868fe65d1f41dac2ebd4,2021-09-27_13h53.06.844,forced_choiceRT_color,2021.2.3,Win32,59.95203837,,,,,,,,4,Ontime,short,k,1,1.984,8,3,35,3,1,,,,,
0.65,,,,,,,,,k,purple,5ead868fe65d1f41dac2ebd4,2021-09-27_13h53.06.844,forced_choiceRT_color,2021.2.3,Win32,59.95203837,,,,,,,,4,Ontime,short,k,1,2.018,9,0,36,3,1,,,,,
0.01,,,,,,,,,d,orange,5ead868fe65d1f41dac2ebd4,2021-09-27_13h53.06.844,forced_choiceRT_color,2021.2.3,Win32,59.95203837,,,,,,,,4,Ontime,short,d,1,1.984,9,1,37,0,1,,,,,
0.16,,,,,,,,,j,red,5ead868fe65d1f41dac2ebd4,2021-09-27_13h53.06.844,forced_choiceRT_color,2021.2.3,Win32,59.95203837,,,,,,,,4,Ontime,short,j,1,1.972,9,2,38,2,1,,,,,
0,,,,,,,,,j,red,5ead868fe65d1f41dac2ebd4,2021-09-27_13h53.06.844,forced_choiceRT_color,2021.2.3,Win32,59.95203837,,,,,,,,4,Ontime,short,j,1,1.938,9,3,39,2,1,,,,,
,,,,,,,,,,,5ead868fe65d1f41dac2ebd4,2021-09-27_13h53.06.844,forced_choiceRT_color,2021.2.3,Win32,59.95203837,,,,,,,,,,,,,,,,,,,3,0,3,0,1
1.57,,,,,,,,,j,red,5ead868fe65d1f41dac2ebd4,2021-09-27_13h53.06.844,forced_choiceRT_color,2021.2.3,Win32,59.95203837,,,,,,,,5,Ontime,short,k,0,1.972,0,0,0,2,1,,,,,
1.32,,,,,,,,,f,blue,5ead868fe65d1f41dac2ebd4,2021-09-27_13h53.06.844,forced_choiceRT_color,2021.2.3,Win32,59.95203837,,,,,,,,5,Ontime,short,f,1,1.97,0,1,1,1,1,,,,,
0.4,,,,,,,,,d,orange,5ead868fe65d1f41dac2ebd4,2021-09-27_13h53.06.844,forced_choiceRT_color,2021.2.3,Win32,59.95203837,,,,,,,,5,Ontime,short,d,1,2.002,0,2,2,0,1,,,,,
0.64,,,,,,,,,d,orange,5ead868fe65d1f41dac2ebd4,2021-09-27_13h53.06.844,forced_choiceRT_color,2021.2.3,Win32,59.95203837,,,,,,,,5,Ontime,short,d,1,2.07,0,3,3,0,1,,,,,
0.14,,,,,,,,,j,red,5ead868fe65d1f41dac2ebd4,2021-09-27_13h53.06.844,forced_choiceRT_color,2021.2.3,Win32,59.95203837,,,,,,,,5,Ontime,short,j,1,1.984,1,0,4,2,1,,,,,
0.75,,,,,,,,,k,purple,5ead868fe65d1f41dac2ebd4,2021-09-27_13h53.06.844,forced_choiceRT_color,2021.2.3,Win32,59.95203837,,,,,,,,5,Ontime,short,k,1,2.052,1,1,5,3,1,,,,,
1.53,,,,,,,,,j,red,5ead868fe65d1f41dac2ebd4,2021-09-27_13h53.06.844,forced_choiceRT_color,2021.2.3,Win32,59.95203837,,,,,,,,5,Slow,short,j,1,2.109,1,2,6,2,1,,,,,
0.36,,,,,,,,,k,purple,5ead868fe65d1f41dac2ebd4,2021-09-27_13h53.06.844,forced_choiceRT_color,2021.2.3,Win32,59.95203837,,,,,,,,5,Ontime,short,k,1,2.018,1,3,7,3,1,,,,,
0.57,,,,,,,,,k,purple,5ead868fe65d1f41dac2ebd4,2021-09-27_13h53.06.844,forced_choiceRT_color,2021.2.3,Win32,59.95203837,,,,,,,,5,Ontime,short,k,1,2.033,2,0,8,3,1,,,,,
1.41,,,,,,,,,k,purple,5ead868fe65d1f41dac2ebd4,2021-09-27_13h53.06.844,forced_choiceRT_color,2021.2.3,Win32,59.95203837,,,,,,,,5,Ontime,short,k,1,1.969,2,1,9,3,1,,,,,
0.44,,,,,,,,,d,orange,5ead868fe65d1f41dac2ebd4,2021-09-27_13h53.06.844,forced_choiceRT_color,2021.2.3,Win32,59.95203837,,,,,,,,5,Ontime,short,d,1,2.051,2,2,10,0,1,,,,,
1.51,,,,,,,,,j,red,5ead868fe65d1f41dac2ebd4,2021-09-27_13h53.06.844,forced_choiceRT_color,2021.2.3,Win32,59.95203837,,,,,,,,5,Ontime,short,f,0,2.088,2,3,11,2,1,,,,,
1.1,,,,,,,,,j,red,5ead868fe65d1f41dac2ebd4,2021-09-27_13h53.06.844,forced_choiceRT_color,2021.2.3,Win32,59.95203837,,,,,,,,5,Fast,short,j,1,0.052,3,0,12,2,1,,,,,
1.21,,,,,,,,,f,blue,5ead868fe65d1f41dac2ebd4,2021-09-27_13h53.06.844,forced_choiceRT_color,2021.2.3,Win32,59.95203837,,,,,,,,5,Ontime,short,f,1,2.019,3,1,13,1,1,,,,,
1.19,,,,,,,,,f,blue,5ead868fe65d1f41dac2ebd4,2021-09-27_13h53.06.844,forced_choiceRT_color,2021.2.3,Win32,59.95203837,,,,,,,,5,Ontime,short,f,1,1.991,3,2,14,1,1,,,,,
0.75,,,,,,,,,f,blue,5ead868fe65d1f41dac2ebd4,2021-09-27_13h53.06.844,forced_choiceRT_color,2021.2.3,Win32,59.95203837,,,,,,,,5,Ontime,short,f,1,1.987,3,3,15,1,1,,,,,
1.33,,,,,,,,,k,purple,5ead868fe65d1f41dac2ebd4,2021-09-27_13h53.06.844,forced_choiceRT_color,2021.2.3,Win32,59.95203837,,,,,,,,5,Ontime,short,k,1,1.985,4,0,16,3,1,,,,,
1.96,,,,,,,,,j,red,5ead868fe65d1f41dac2ebd4,2021-09-27_13h53.06.844,forced_choiceRT_color,2021.2.3,Win32,59.95203837,,,,,,,,5,Ontime,short,j,1,2.052,4,1,17,2,1,,,,,
1.21,,,,,,,,,f,blue,5ead868fe65d1f41dac2ebd4,2021-09-27_13h53.06.844,forced_choiceRT_color,2021.2.3,Win32,59.95203837,,,,,,,,5,Fast,short,f,1,1.851,4,2,18,1,1,,,,,
0.56,,,,,,,,,k,purple,5ead868fe65d1f41dac2ebd4,2021-09-27_13h53.06.844,forced_choiceRT_color,2021.2.3,Win32,59.95203837,,,,,,,,5,Ontime,short,k,1,2.018,4,3,19,3,1,,,,,
1.63,,,,,,,,,d,orange,5ead868fe65d1f41dac2ebd4,2021-09-27_13h53.06.844,forced_choiceRT_color,2021.2.3,Win32,59.95203837,,,,,,,,5,Slow,short,d,1,2.151,5,0,20,0,1,,,,,
1.6,,,,,,,,,f,blue,5ead868fe65d1f41dac2ebd4,2021-09-27_13h53.06.844,forced_choiceRT_color,2021.2.3,Win32,59.95203837,,,,,,,,5,Slow,short,f,1,2.187,5,1,21,1,1,,,,,
1.84,,,,,,,,,f,blue,5ead868fe65d1f41dac2ebd4,2021-09-27_13h53.06.844,forced_choiceRT_color,2021.2.3,Win32,59.95203837,,,,,,,,5,Ontime,short,k,0,2.05,5,2,22,1,1,,,,,
1.74,,,,,,,,,f,blue,5ead868fe65d1f41dac2ebd4,2021-09-27_13h53.06.844,forced_choiceRT_color,2021.2.3,Win32,59.95203837,,,,,,,,5,Ontime,short,f,1,1.984,5,3,23,1,1,,,,,
0.63,,,,,,,,,d,orange,5ead868fe65d1f41dac2ebd4,2021-09-27_13h53.06.844,forced_choiceRT_color,2021.2.3,Win32,59.95203837,,,,,,,,5,Ontime,short,d,1,2.003,6,0,24,0,1,,,,,
1.03,,,,,,,,,d,orange,5ead868fe65d1f41dac2ebd4,2021-09-27_13h53.06.844,forced_choiceRT_color,2021.2.3,Win32,59.95203837,,,,,,,,5,Ontime,short,d,1,2.042,6,1,25,0,1,,,,,
1.12,,,,,,,,,f,blue,5ead868fe65d1f41dac2ebd4,2021-09-27_13h53.06.844,forced_choiceRT_color,2021.2.3,Win32,59.95203837,,,,,,,,5,Ontime,short,f,1,2.035,6,2,26,1,1,,,,,
1.5,,,,,,,,,d,orange,5ead868fe65d1f41dac2ebd4,2021-09-27_13h53.06.844,forced_choiceRT_color,2021.2.3,Win32,59.95203837,,,,,,,,5,Ontime,short,d,1,2.001,6,3,27,0,1,,,,,
0.79,,,,,,,,,j,red,5ead868fe65d1f41dac2ebd4,2021-09-27_13h53.06.844,forced_choiceRT_color,2021.2.3,Win32,59.95203837,,,,,,,,5,Ontime,short,j,1,2.039,7,0,28,2,1,,,,,
1.77,,,,,,,,,j,red,5ead868fe65d1f41dac2ebd4,2021-09-27_13h53.06.844,forced_choiceRT_color,2021.2.3,Win32,59.95203837,,,,,,,,5,Ontime,short,k,0,1.971,7,1,29,2,1,,,,,
0.39,,,,,,,,,d,orange,5ead868fe65d1f41dac2ebd4,2021-09-27_13h53.06.844,forced_choiceRT_color,2021.2.3,Win32,59.95203837,,,,,,,,5,Ontime,short,d,1,1.971,7,2,30,0,1,,,,,
1.36,,,,,,,,,k,purple,5ead868fe65d1f41dac2ebd4,2021-09-27_13h53.06.844,forced_choiceRT_color,2021.2.3,Win32,59.95203837,,,,,,,,5,Ontime,short,k,1,2.018,7,3,31,3,1,,,,,
0.29,,,,,,,,,d,orange,5ead868fe65d1f41dac2ebd4,2021-09-27_13h53.06.844,forced_choiceRT_color,2021.2.3,Win32,59.95203837,,,,,,,,5,Ontime,short,d,1,1.985,8,0,32,0,1,,,,,
0.51,,,,,,,,,j,red,5ead868fe65d1f41dac2ebd4,2021-09-27_13h53.06.844,forced_choiceRT_color,2021.2.3,Win32,59.95203837,,,,,,,,5,Ontime,short,j,1,1.969,8,1,33,2,1,,,,,
1.11,,,,,,,,,k,purple,5ead868fe65d1f41dac2ebd4,2021-09-27_13h53.06.844,forced_choiceRT_color,2021.2.3,Win32,59.95203837,,,,,,,,5,Ontime,short,k,1,2.034,8,2,34,3,1,,,,,
0.5,,,,,,,,,d,orange,5ead868fe65d1f41dac2ebd4,2021-09-27_13h53.06.844,forced_choiceRT_color,2021.2.3,Win32,59.95203837,,,,,,,,5,Ontime,short,d,1,1.954,8,3,35,0,1,,,,,
0.3,,,,,,,,,k,purple,5ead868fe65d1f41dac2ebd4,2021-09-27_13h53.06.844,forced_choiceRT_color,2021.2.3,Win32,59.95203837,,,,,,,,5,Ontime,short,k,1,1.969,9,0,36,3,1,,,,,
0.64,,,,,,,,,k,purple,5ead868fe65d1f41dac2ebd4,2021-09-27_13h53.06.844,forced_choiceRT_color,2021.2.3,Win32,59.95203837,,,,,,,,5,Ontime,short,k,1,2.008,9,1,37,3,1,,,,,
1.55,,,,,,,,,f,blue,5ead868fe65d1f41dac2ebd4,2021-09-27_13h53.06.844,forced_choiceRT_color,2021.2.3,Win32,59.95203837,,,,,,,,5,Ontime,short,f,1,2.036,9,2,38,1,1,,,,,
0.01,,,,,,,,,j,red,5ead868fe65d1f41dac2ebd4,2021-09-27_13h53.06.844,forced_choiceRT_color,2021.2.3,Win32,59.95203837,,,,,,,,5,Ontime,short,j,1,2.039,9,3,39,2,1,,,,,
,,,,,,,,,,,5ead868fe65d1f41dac2ebd4,2021-09-27_13h53.06.844,forced_choiceRT_color,2021.2.3,Win32,59.95203837,,,,,,,,,,,,,,,,,,,4,0,4,0,1
0.59,,,,,,,,,k,purple,5ead868fe65d1f41dac2ebd4,2021-09-27_13h53.06.844,forced_choiceRT_color,2021.2.3,Win32,59.95203837,,,,,,,,6,Ontime,short,k,1,2.014,0,0,0,3,1,,,,,
0.71,,,,,,,,,j,red,5ead868fe65d1f41dac2ebd4,2021-09-27_13h53.06.844,forced_choiceRT_color,2021.2.3,Win32,59.95203837,,,,,,,,6,Ontime,short,j,1,1.988,0,1,1,2,1,,,,,
1.47,,,,,,,,,d,orange,5ead868fe65d1f41dac2ebd4,2021-09-27_13h53.06.844,forced_choiceRT_color,2021.2.3,Win32,59.95203837,,,,,,,,6,Ontime,short,d,1,2.084,0,2,2,0,1,,,,,
1.92,,,,,,,,,d,orange,5ead868fe65d1f41dac2ebd4,2021-09-27_13h53.06.844,forced_choiceRT_color,2021.2.3,Win32,59.95203837,,,,,,,,6,Ontime,short,f,0,2.068,0,3,3,0,1,,,,,
1.24,,,,,,,,,k,purple,5ead868fe65d1f41dac2ebd4,2021-09-27_13h53.06.844,forced_choiceRT_color,2021.2.3,Win32,59.95203837,,,,,,,,6,Ontime,short,k,1,1.993,1,0,4,3,1,,,,,
1.17,,,,,,,,,d,orange,5ead868fe65d1f41dac2ebd4,2021-09-27_13h53.06.844,forced_choiceRT_color,2021.2.3,Win32,59.95203837,,,,,,,,6,Ontime,short,d,1,2.018,1,1,5,0,1,,,,,
1.73,,,,,,,,,f,blue,5ead868fe65d1f41dac2ebd4,2021-09-27_13h53.06.844,forced_choiceRT_color,2021.2.3,Win32,59.95203837,,,,,,,,6,Slow,short,j,0,2.104,1,2,6,1,1,,,,,
0.24,,,,,,,,,d,orange,5ead868fe65d1f41dac2ebd4,2021-09-27_13h53.06.844,forced_choiceRT_color,2021.2.3,Win32,59.95203837,,,,,,,,6,Ontime,short,d,1,2.019,1,3,7,0,1,,,,,
0.56,,,,,,,,,j,red,5ead868fe65d1f41dac2ebd4,2021-09-27_13h53.06.844,forced_choiceRT_color,2021.2.3,Win32,59.95203837,,,,,,,,6,Ontime,short,j,1,2.02,2,0,8,2,1,,,,,
1.42,,,,,,,,,f,blue,5ead868fe65d1f41dac2ebd4,2021-09-27_13h53.06.844,forced_choiceRT_color,2021.2.3,Win32,59.95203837,,,,,,,,6,Ontime,short,f,1,2.007,2,1,9,1,1,,,,,
0,,,,,,,,,k,purple,5ead868fe65d1f41dac2ebd4,2021-09-27_13h53.06.844,forced_choiceRT_color,2021.2.3,Win32,59.95203837,,,,,,,,6,Ontime,short,k,1,2.035,2,2,10,3,1,,,,,
0.5,,,,,,,,,j,red,5ead868fe65d1f41dac2ebd4,2021-09-27_13h53.06.844,forced_choiceRT_color,2021.2.3,Win32,59.95203837,,,,,,,,6,Ontime,short,j,1,2.009,2,3,11,2,1,,,,,
0.21,,,,,,,,,f,blue,5ead868fe65d1f41dac2ebd4,2021-09-27_13h53.06.844,forced_choiceRT_color,2021.2.3,Win32,59.95203837,,,,,,,,6,Ontime,short,f,1,2.069,3,0,12,1,1,,,,,
0.71,,,,,,,,,f,blue,5ead868fe65d1f41dac2ebd4,2021-09-27_13h53.06.844,forced_choiceRT_color,2021.2.3,Win32,59.95203837,,,,,,,,6,Ontime,short,f,1,2.051,3,1,13,1,1,,,,,
1.96,,,,,,,,,j,red,5ead868fe65d1f41dac2ebd4,2021-09-27_13h53.06.844,forced_choiceRT_color,2021.2.3,Win32,59.95203837,,,,,,,,6,Ontime,short,k,0,2.002,3,2,14,2,1,,,,,
0.34,,,,,,,,,d,orange,5ead868fe65d1f41dac2ebd4,2021-09-27_13h53.06.844,forced_choiceRT_color,2021.2.3,Win32,59.95203837,,,,,,,,6,Ontime,short,d,1,2.051,3,3,15,0,1,,,,,
0.41,,,,,,,,,f,blue,5ead868fe65d1f41dac2ebd4,2021-09-27_13h53.06.844,forced_choiceRT_color,2021.2.3,Win32,59.95203837,,,,,,,,6,Ontime,short,f,1,2.089,4,0,16,1,1,,,,,
1.91,,,,,,,,,k,purple,5ead868fe65d1f41dac2ebd4,2021-09-27_13h53.06.844,forced_choiceRT_color,2021.2.3,Win32,59.95203837,,,,,,,,6,Ontime,short,j,0,2.051,4,1,17,3,1,,,,,
1.2,,,,,,,,,f,blue,5ead868fe65d1f41dac2ebd4,2021-09-27_13h53.06.844,forced_choiceRT_color,2021.2.3,Win32,59.95203837,,,,,,,,6,Ontime,short,f,1,2.052,4,2,18,1,1,,,,,
0.33,,,,,,,,,f,blue,5ead868fe65d1f41dac2ebd4,2021-09-27_13h53.06.844,forced_choiceRT_color,2021.2.3,Win32,59.95203837,,,,,,,,6,Ontime,short,f,1,1.984,4,3,19,1,1,,,,,
0.42,,,,,,,,,j,red,5ead868fe65d1f41dac2ebd4,2021-09-27_13h53.06.844,forced_choiceRT_color,2021.2.3,Win32,59.95203837,,,,,,,,6,Ontime,short,j,1,2.018,5,0,20,2,1,,,,,
1.15,,,,,,,,,j,red,5ead868fe65d1f41dac2ebd4,2021-09-27_13h53.06.844,forced_choiceRT_color,2021.2.3,Win32,59.95203837,,,,,,,,6,Ontime,short,j,1,2.002,5,1,21,2,1,,,,,
0.54,,,,,,,,,d,orange,5ead868fe65d1f41dac2ebd4,2021-09-27_13h53.06.844,forced_choiceRT_color,2021.2.3,Win32,59.95203837,,,,,,,,6,Ontime,short,d,1,2.09,5,2,22,0,1,,,,,
0.78,,,,,,,,,k,purple,5ead868fe65d1f41dac2ebd4,2021-09-27_13h53.06.844,forced_choiceRT_color,2021.2.3,Win32,59.95203837,,,,,,,,6,Ontime,short,k,1,2.001,5,3,23,3,1,,,,,
1.91,,,,,,,,,j,red,5ead868fe65d1f41dac2ebd4,2021-09-27_13h53.06.844,forced_choiceRT_color,2021.2.3,Win32,59.95203837,,,,,,,,6,Ontime,short,k,0,2.035,6,0,24,2,1,,,,,
0.77,,,,,,,,,j,red,5ead868fe65d1f41dac2ebd4,2021-09-27_13h53.06.844,forced_choiceRT_color,2021.2.3,Win32,59.95203837,,,,,,,,6,Ontime,short,j,1,2.04,6,1,25,2,1,,,,,
0.88,,,,,,,,,d,orange,5ead868fe65d1f41dac2ebd4,2021-09-27_13h53.06.844,forced_choiceRT_color,2021.2.3,Win32,59.95203837,,,,,,,,6,Ontime,short,d,1,2.001,6,2,26,0,1,,,,,
0.91,,,,,,,,,j,red,5ead868fe65d1f41dac2ebd4,2021-09-27_13h53.06.844,forced_choiceRT_color,2021.2.3,Win32,59.95203837,,,,,,,,6,Ontime,short,j,1,2.067,6,3,27,2,1,,,,,
1.96,,,,,,,,,d,orange,5ead868fe65d1f41dac2ebd4,2021-09-27_13h53.06.844,forced_choiceRT_color,2021.2.3,Win32,59.95203837,,,,,,,,6,Ontime,short,k,0,2.018,7,0,28,0,1,,,,,
0.84,,,,,,,,,d,orange,5ead868fe65d1f41dac2ebd4,2021-09-27_13h53.06.844,forced_choiceRT_color,2021.2.3,Win32,59.95203837,,,,,,,,6,Ontime,short,d,1,2.058,7,1,29,0,1,,,,,
0.97,,,,,,,,,f,blue,5ead868fe65d1f41dac2ebd4,2021-09-27_13h53.06.844,forced_choiceRT_color,2021.2.3,Win32,59.95203837,,,,,,,,6,Ontime,short,f,1,2.068,7,2,30,1,1,,,,,
0.37,,,,,,,,,j,red,5ead868fe65d1f41dac2ebd4,2021-09-27_13h53.06.844,forced_choiceRT_color,2021.2.3,Win32,59.95203837,,,,,,,,6,Ontime,short,j,1,1.991,7,3,31,2,1,,,,,
1.28,,,,,,,,,k,purple,5ead868fe65d1f41dac2ebd4,2021-09-27_13h53.06.844,forced_choiceRT_color,2021.2.3,Win32,59.95203837,,,,,,,,6,Ontime,short,k,1,2.018,8,0,32,3,1,,,,,
1.03,,,,,,,,,k,purple,5ead868fe65d1f41dac2ebd4,2021-09-27_13h53.06.844,forced_choiceRT_color,2021.2.3,Win32,59.95203837,,,,,,,,6,Ontime,short,k,1,1.986,8,1,33,3,1,,,,,
1.97,,,,,,,,,f,blue,5ead868fe65d1f41dac2ebd4,2021-09-27_13h53.06.844,forced_choiceRT_color,2021.2.3,Win32,59.95203837,,,,,,,,6,Ontime,short,j,0,1.985,8,2,34,1,1,,,,,
1.17,,,,,,,,,k,purple,5ead868fe65d1f41dac2ebd4,2021-09-27_13h53.06.844,forced_choiceRT_color,2021.2.3,Win32,59.95203837,,,,,,,,6,Ontime,short,k,1,2.076,8,3,35,3,1,,,,,
0.6,,,,,,,,,f,blue,5ead868fe65d1f41dac2ebd4,2021-09-27_13h53.06.844,forced_choiceRT_color,2021.2.3,Win32,59.95203837,,,,,,,,6,Ontime,short,f,1,1.987,9,0,36,1,1,,,,,
0.68,,,,,,,,,d,orange,5ead868fe65d1f41dac2ebd4,2021-09-27_13h53.06.844,forced_choiceRT_color,2021.2.3,Win32,59.95203837,,,,,,,,6,Ontime,short,d,1,2.022,9,1,37,0,1,,,,,
0.29,,,,,,,,,k,purple,5ead868fe65d1f41dac2ebd4,2021-09-27_13h53.06.844,forced_choiceRT_color,2021.2.3,Win32,59.95203837,,,,,,,,6,Ontime,short,k,1,1.988,9,2,38,3,1,,,,,
0.31,,,,,,,,,k,purple,5ead868fe65d1f41dac2ebd4,2021-09-27_13h53.06.844,forced_choiceRT_color,2021.2.3,Win32,59.95203837,,,,,,,,6,Ontime,short,k,1,2.038,9,3,39,3,1,,,,,
,,,,,,,,,,,5ead868fe65d1f41dac2ebd4,2021-09-27_13h53.06.844,forced_choiceRT_color,2021.2.3,Win32,59.95203837,,,,,,,,,,,,,,,,,,,5,0,5,0,1
1.91,,,,,,,,,j,red,5ead868fe65d1f41dac2ebd4,2021-09-27_13h53.06.844,forced_choiceRT_color,2021.2.3,Win32,59.95203837,,,,,,,,7,Ontime,short,k,0,2.019,0,0,0,2,1,,,,,
0.32,,,,,,,,,j,red,5ead868fe65d1f41dac2ebd4,2021-09-27_13h53.06.844,forced_choiceRT_color,2021.2.3,Win32,59.95203837,,,,,,,,7,Ontime,short,j,1,2.052,0,1,1,2,1,,,,,
1.97,,,,,,,,,f,blue,5ead868fe65d1f41dac2ebd4,2021-09-27_13h53.06.844,forced_choiceRT_color,2021.2.3,Win32,59.95203837,,,,,,,,7,Ontime,short,j,0,2.073,0,2,2,1,1,,,,,
1.45,,,,,,,,,f,blue,5ead868fe65d1f41dac2ebd4,2021-09-27_13h53.06.844,forced_choiceRT_color,2021.2.3,Win32,59.95203837,,,,,,,,7,Ontime,short,f,1,2.069,0,3,3,1,1,,,,,
1.19,,,,,,,,,j,red,5ead868fe65d1f41dac2ebd4,2021-09-27_13h53.06.844,forced_choiceRT_color,2021.2.3,Win32,59.95203837,,,,,,,,7,Ontime,short,j,1,2.001,1,0,4,2,1,,,,,
1.72,,,,,,,,,d,orange,5ead868fe65d1f41dac2ebd4,2021-09-27_13h53.06.844,forced_choiceRT_color,2021.2.3,Win32,59.95203837,,,,,,,,7,Ontime,short,d,1,2.039,1,1,5,0,1,,,,,
1.5,,,,,,,,,d,orange,5ead868fe65d1f41dac2ebd4,2021-09-27_13h53.06.844,forced_choiceRT_color,2021.2.3,Win32,59.95203837,,,,,,,,7,Ontime,short,d,1,2.038,1,2,6,0,1,,,,,
0.9,,,,,,,,,k,purple,5ead868fe65d1f41dac2ebd4,2021-09-27_13h53.06.844,forced_choiceRT_color,2021.2.3,Win32,59.95203837,,,,,,,,7,Ontime,short,k,1,2.071,1,3,7,3,1,,,,,
0.33,,,,,,,,,d,orange,5ead868fe65d1f41dac2ebd4,2021-09-27_13h53.06.844,forced_choiceRT_color,2021.2.3,Win32,59.95203837,,,,,,,,7,Ontime,short,d,1,2.036,2,0,8,0,1,,,,,
0.56,,,,,,,,,k,purple,5ead868fe65d1f41dac2ebd4,2021-09-27_13h53.06.844,forced_choiceRT_color,2021.2.3,Win32,59.95203837,,,,,,,,7,Ontime,short,k,1,2.054,2,1,9,3,1,,,,,
0.94,,,,,,,,,k,purple,5ead868fe65d1f41dac2ebd4,2021-09-27_13h53.06.844,forced_choiceRT_color,2021.2.3,Win32,59.95203837,,,,,,,,7,Ontime,short,k,1,2.073,2,2,10,3,1,,,,,
1.32,,,,,,,,,d,orange,5ead868fe65d1f41dac2ebd4,2021-09-27_13h53.06.844,forced_choiceRT_color,2021.2.3,Win32,59.95203837,,,,,,,,7,Ontime,short,d,1,2.084,2,3,11,0,1,,,,,
1.51,,,,,,,,,k,purple,5ead868fe65d1f41dac2ebd4,2021-09-27_13h53.06.844,forced_choiceRT_color,2021.2.3,Win32,59.95203837,,,,,,,,7,Ontime,short,k,1,2.051,3,0,12,3,1,,,,,
0.82,,,,,,,,,j,red,5ead868fe65d1f41dac2ebd4,2021-09-27_13h53.06.844,forced_choiceRT_color,2021.2.3,Win32,59.95203837,,,,,,,,7,Ontime,short,f,0,2.025,3,1,13,2,1,,,,,
1.57,,,,,,,,,k,purple,5ead868fe65d1f41dac2ebd4,2021-09-27_13h53.06.844,forced_choiceRT_color,2021.2.3,Win32,59.95203837,,,,,,,,7,Ontime,short,k,1,2.022,3,2,14,3,1,,,,,
1.46,,,,,,,,,j,red,5ead868fe65d1f41dac2ebd4,2021-09-27_13h53.06.844,forced_choiceRT_color,2021.2.3,Win32,59.95203837,,,,,,,,7,Ontime,short,j,1,2.02,3,3,15,2,1,,,,,
1.09,,,,,,,,,k,purple,5ead868fe65d1f41dac2ebd4,2021-09-27_13h53.06.844,forced_choiceRT_color,2021.2.3,Win32,59.95203837,,,,,,,,7,Ontime,short,k,1,2.001,4,0,16,3,1,,,,,
1.56,,,,,,,,,f,blue,5ead868fe65d1f41dac2ebd4,2021-09-27_13h53.06.844,forced_choiceRT_color,2021.2.3,Win32,59.95203837,,,,,,,,7,Ontime,short,f,1,2.053,4,1,17,1,1,,,,,
1.74,,,,,,,,,k,purple,5ead868fe65d1f41dac2ebd4,2021-09-27_13h53.06.844,forced_choiceRT_color,2021.2.3,Win32,59.95203837,,,,,,,,7,Slow,short,j,0,2.136,4,2,18,3,1,,,,,
0.38,,,,,,,,,k,purple,5ead868fe65d1f41dac2ebd4,2021-09-27_13h53.06.844,forced_choiceRT_color,2021.2.3,Win32,59.95203837,,,,,,,,7,Ontime,short,k,1,2.053,4,3,19,3,1,,,,,
1.94,,,,,,,,,d,orange,5ead868fe65d1f41dac2ebd4,2021-09-27_13h53.06.844,forced_choiceRT_color,2021.2.3,Win32,59.95203837,,,,,,,,7,Slow,short,k,0,2.236,5,0,20,0,1,,,,,
0.31,,,,,,,,,d,orange,5ead868fe65d1f41dac2ebd4,2021-09-27_13h53.06.844,forced_choiceRT_color,2021.2.3,Win32,59.95203837,,,,,,,,7,Ontime,short,d,1,1.984,5,1,21,0,1,,,,,
1.31,,,,,,,,,j,red,5ead868fe65d1f41dac2ebd4,2021-09-27_13h53.06.844,forced_choiceRT_color,2021.2.3,Win32,59.95203837,,,,,,,,7,Ontime,short,j,1,1.95,5,2,22,2,1,,,,,
0.73,,,,,,,,,f,blue,5ead868fe65d1f41dac2ebd4,2021-09-27_13h53.06.844,forced_choiceRT_color,2021.2.3,Win32,59.95203837,,,,,,,,7,Ontime,short,f,1,1.987,5,3,23,1,1,,,,,
0.26,,,,,,,,,f,blue,5ead868fe65d1f41dac2ebd4,2021-09-27_13h53.06.844,forced_choiceRT_color,2021.2.3,Win32,59.95203837,,,,,,,,7,Ontime,short,f,1,2.017,6,0,24,1,1,,,,,
1.82,,,,,,,,,f,blue,5ead868fe65d1f41dac2ebd4,2021-09-27_13h53.06.844,forced_choiceRT_color,2021.2.3,Win32,59.95203837,,,,,,,,7,Ontime,short,j,0,2.009,6,1,25,1,1,,,,,
0.65,,,,,,,,,k,purple,5ead868fe65d1f41dac2ebd4,2021-09-27_13h53.06.844,forced_choiceRT_color,2021.2.3,Win32,59.95203837,,,,,,,,7,Ontime,short,k,1,2.019,6,2,26,3,1,,,,,
1.59,,,,,,,,,f,blue,5ead868fe65d1f41dac2ebd4,2021-09-27_13h53.06.844,forced_choiceRT_color,2021.2.3,Win32,59.95203837,,,,,,,,7,Slow,short,f,1,2.273,6,3,27,1,1,,,,,
0.98,,,,,,,,,j,red,5ead868fe65d1f41dac2ebd4,2021-09-27_13h53.06.844,forced_choiceRT_color,2021.2.3,Win32,59.95203837,,,,,,,,7,Ontime,short,j,1,1.901,7,0,28,2,1,,,,,
0.96,,,,,,,,,k,purple,5ead868fe65d1f41dac2ebd4,2021-09-27_13h53.06.844,forced_choiceRT_color,2021.2.3,Win32,59.95203837,,,,,,,,7,Ontime,short,k,1,1.934,7,1,29,3,1,,,,,
1.59,,,,,,,,,f,blue,5ead868fe65d1f41dac2ebd4,2021-09-27_13h53.06.844,forced_choiceRT_color,2021.2.3,Win32,59.95203837,,,,,,,,7,Ontime,short,j,0,2.002,7,2,30,1,1,,,,,
1.05,,,,,,,,,f,blue,5ead868fe65d1f41dac2ebd4,2021-09-27_13h53.06.844,forced_choiceRT_color,2021.2.3,Win32,59.95203837,,,,,,,,7,Fast,short,f,1,0.019,7,3,31,1,1,,,,,
1.7,,,,,,,,,j,red,5ead868fe65d1f41dac2ebd4,2021-09-27_13h53.06.844,forced_choiceRT_color,2021.2.3,Win32,59.95203837,,,,,,,,7,Ontime,short,d,0,1.956,8,0,32,2,1,,,,,
0.13,,,,,,,,,d,orange,5ead868fe65d1f41dac2ebd4,2021-09-27_13h53.06.844,forced_choiceRT_color,2021.2.3,Win32,59.95203837,,,,,,,,7,Slow,short,d,1,2.1,8,1,33,0,1,,,,,
0.57,,,,,,,,,j,red,5ead868fe65d1f41dac2ebd4,2021-09-27_13h53.06.844,forced_choiceRT_color,2021.2.3,Win32,59.95203837,,,,,,,,7,Ontime,short,j,1,2.004,8,2,34,2,1,,,,,
0.02,,,,,,,,,f,blue,5ead868fe65d1f41dac2ebd4,2021-09-27_13h53.06.844,forced_choiceRT_color,2021.2.3,Win32,59.95203837,,,,,,,,7,Ontime,short,f,1,2.023,8,3,35,1,1,,,,,
0,,,,,,,,,d,orange,5ead868fe65d1f41dac2ebd4,2021-09-27_13h53.06.844,forced_choiceRT_color,2021.2.3,Win32,59.95203837,,,,,,,,7,Ontime,short,d,1,1.988,9,0,36,0,1,,,,,
0.05,,,,,,,,,d,orange,5ead868fe65d1f41dac2ebd4,2021-09-27_13h53.06.844,forced_choiceRT_color,2021.2.3,Win32,59.95203837,,,,,,,,7,Ontime,short,d,1,2.023,9,1,37,0,1,,,,,
0.75,,,,,,,,,j,red,5ead868fe65d1f41dac2ebd4,2021-09-27_13h53.06.844,forced_choiceRT_color,2021.2.3,Win32,59.95203837,,,,,,,,7,Ontime,short,f,0,2,9,2,38,2,1,,,,,
1.85,,,,,,,,,d,orange,5ead868fe65d1f41dac2ebd4,2021-09-27_13h53.06.844,forced_choiceRT_color,2021.2.3,Win32,59.95203837,,,,,,,,7,Fast,short,j,0,0.056,9,3,39,0,1,,,,,
,,,,,,,,,,,5ead868fe65d1f41dac2ebd4,2021-09-27_13h53.06.844,forced_choiceRT_color,2021.2.3,Win32,59.95203837,,,,,,,,,,,,,,,,,,,6,0,6,0,1
0.07,,,,,,,,,d,orange,5ead868fe65d1f41dac2ebd4,2021-09-27_13h53.06.844,forced_choiceRT_color,2021.2.3,Win32,59.95203837,,,,,,,,8,Ontime,short,d,1,2.055,0,0,0,0,1,,,,,
0.14,,,,,,,,,k,purple,5ead868fe65d1f41dac2ebd4,2021-09-27_13h53.06.844,forced_choiceRT_color,2021.2.3,Win32,59.95203837,,,,,,,,8,Ontime,short,k,1,2.085,0,1,1,3,1,,,,,
0.31,,,,,,,,,j,red,5ead868fe65d1f41dac2ebd4,2021-09-27_13h53.06.844,forced_choiceRT_color,2021.2.3,Win32,59.95203837,,,,,,,,8,Ontime,short,j,1,2.051,0,2,2,2,1,,,,,
1.17,,,,,,,,,f,blue,5ead868fe65d1f41dac2ebd4,2021-09-27_13h53.06.844,forced_choiceRT_color,2021.2.3,Win32,59.95203837,,,,,,,,8,Ontime,short,f,1,2.075,0,3,3,1,1,,,,,
0.29,,,,,,,,,f,blue,5ead868fe65d1f41dac2ebd4,2021-09-27_13h53.06.844,forced_choiceRT_color,2021.2.3,Win32,59.95203837,,,,,,,,8,Ontime,short,f,1,2.052,1,0,4,1,1,,,,,
0.66,,,,,,,,,f,blue,5ead868fe65d1f41dac2ebd4,2021-09-27_13h53.06.844,forced_choiceRT_color,2021.2.3,Win32,59.95203837,,,,,,,,8,Ontime,short,f,1,2.018,1,1,5,1,1,,,,,
0.6,,,,,,,,,d,orange,5ead868fe65d1f41dac2ebd4,2021-09-27_13h53.06.844,forced_choiceRT_color,2021.2.3,Win32,59.95203837,,,,,,,,8,Ontime,short,d,1,2.053,1,2,6,0,1,,,,,
1.19,,,,,,,,,k,purple,5ead868fe65d1f41dac2ebd4,2021-09-27_13h53.06.844,forced_choiceRT_color,2021.2.3,Win32,59.95203837,,,,,,,,8,Slow,short,k,1,2.134,1,3,7,3,1,,,,,
0.43,,,,,,,,,d,orange,5ead868fe65d1f41dac2ebd4,2021-09-27_13h53.06.844,forced_choiceRT_color,2021.2.3,Win32,59.95203837,,,,,,,,8,Ontime,short,d,1,2.068,2,0,8,0,1,,,,,
1.51,,,,,,,,,j,red,5ead868fe65d1f41dac2ebd4,2021-09-27_13h53.06.844,forced_choiceRT_color,2021.2.3,Win32,59.95203837,,,,,,,,8,Fast,short,f,0,1.804,2,1,9,2,1,,,,,
1,,,,,,,,,d,orange,5ead868fe65d1f41dac2ebd4,2021-09-27_13h53.06.844,forced_choiceRT_color,2021.2.3,Win32,59.95203837,,,,,,,,8,Ontime,short,d,1,1.984,2,2,10,0,1,,,,,
0.41,,,,,,,,,j,red,5ead868fe65d1f41dac2ebd4,2021-09-27_13h53.06.844,forced_choiceRT_color,2021.2.3,Win32,59.95203837,,,,,,,,8,Ontime,short,j,1,1.972,2,3,11,2,1,,,,,
1.31,,,,,,,,,k,purple,5ead868fe65d1f41dac2ebd4,2021-09-27_13h53.06.844,forced_choiceRT_color,2021.2.3,Win32,59.95203837,,,,,,,,8,Ontime,short,k,1,2.069,3,0,12,3,1,,,,,
0.48,,,,,,,,,k,purple,5ead868fe65d1f41dac2ebd4,2021-09-27_13h53.06.844,forced_choiceRT_color,2021.2.3,Win32,59.95203837,,,,,,,,8,Slow,short,k,1,2.101,3,1,13,3,1,,,,,
1.13,,,,,,,,,d,orange,5ead868fe65d1f41dac2ebd4,2021-09-27_13h53.06.844,forced_choiceRT_color,2021.2.3,Win32,59.95203837,,,,,,,,8,Ontime,short,d,1,2.068,3,2,14,0,1,,,,,
1.19,,,,,,,,,d,orange,5ead868fe65d1f41dac2ebd4,2021-09-27_13h53.06.844,forced_choiceRT_color,2021.2.3,Win32,59.95203837,,,,,,,,8,Ontime,short,d,1,2.024,3,3,15,0,1,,,,,
1.07,,,,,,,,,f,blue,5ead868fe65d1f41dac2ebd4,2021-09-27_13h53.06.844,forced_choiceRT_color,2021.2.3,Win32,59.95203837,,,,,,,,8,Ontime,short,f,1,1.984,4,0,16,1,1,,,,,
0.31,,,,,,,,,d,orange,5ead868fe65d1f41dac2ebd4,2021-09-27_13h53.06.844,forced_choiceRT_color,2021.2.3,Win32,59.95203837,,,,,,,,8,Ontime,short,d,1,2.034,4,1,17,0,1,,,,,
0.37,,,,,,,,,f,blue,5ead868fe65d1f41dac2ebd4,2021-09-27_13h53.06.844,forced_choiceRT_color,2021.2.3,Win32,59.95203837,,,,,,,,8,Slow,short,f,1,2.102,4,2,18,1,1,,,,,
1.18,,,,,,,,,j,red,5ead868fe65d1f41dac2ebd4,2021-09-27_13h53.06.844,forced_choiceRT_color,2021.2.3,Win32,59.95203837,,,,,,,,8,Ontime,short,j,1,2.034,4,3,19,2,1,,,,,
1.7,,,,,,,,,d,orange,5ead868fe65d1f41dac2ebd4,2021-09-27_13h53.06.844,forced_choiceRT_color,2021.2.3,Win32,59.95203837,,,,,,,,8,Slow,short,d,1,2.125,5,0,20,0,1,,,,,
1.3,,,,,,,,,k,purple,5ead868fe65d1f41dac2ebd4,2021-09-27_13h53.06.844,forced_choiceRT_color,2021.2.3,Win32,59.95203837,,,,,,,,8,Fast,short,k,1,1.817,5,1,21,3,1,,,,,
1.42,,,,,,,,,d,orange,5ead868fe65d1f41dac2ebd4,2021-09-27_13h53.06.844,forced_choiceRT_color,2021.2.3,Win32,59.95203837,,,,,,,,8,Ontime,short,d,1,2.008,5,2,22,0,1,,,,,
0.67,,,,,,,,,j,red,5ead868fe65d1f41dac2ebd4,2021-09-27_13h53.06.844,forced_choiceRT_color,2021.2.3,Win32,59.95203837,,,,,,,,8,Ontime,short,j,1,1.983,5,3,23,2,1,,,,,
0.35,,,,,,,,,k,purple,5ead868fe65d1f41dac2ebd4,2021-09-27_13h53.06.844,forced_choiceRT_color,2021.2.3,Win32,59.95203837,,,,,,,,8,Ontime,short,k,1,1.968,6,0,24,3,1,,,,,
1.83,,,,,,,,,k,purple,5ead868fe65d1f41dac2ebd4,2021-09-27_13h53.06.844,forced_choiceRT_color,2021.2.3,Win32,59.95203837,,,,,,,,8,Ontime,short,f,0,2.075,6,1,25,3,1,,,,,
1.33,,,,,,,,,k,purple,5ead868fe65d1f41dac2ebd4,2021-09-27_13h53.06.844,forced_choiceRT_color,2021.2.3,Win32,59.95203837,,,,,,,,8,Fast,short,f,0,1.791,6,2,26,3,1,,,,,
1.16,,,,,,,,,j,red,5ead868fe65d1f41dac2ebd4,2021-09-27_13h53.06.844,forced_choiceRT_color,2021.2.3,Win32,59.95203837,,,,,,,,8,Fast,short,f,0,1.657,6,3,27,2,1,,,,,
0.76,,,,,,,,,k,purple,5ead868fe65d1f41dac2ebd4,2021-09-27_13h53.06.844,forced_choiceRT_color,2021.2.3,Win32,59.95203837,,,,,,,,8,Fast,short,k,1,1.667,7,0,28,3,1,,,,,
1.78,,,,,,,,,f,blue,5ead868fe65d1f41dac2ebd4,2021-09-27_13h53.06.844,forced_choiceRT_color,2021.2.3,Win32,59.95203837,,,,,,,,8,Slow,short,d,0,2.159,7,1,29,1,1,,,,,
0.9,,,,,,,,,j,red,5ead868fe65d1f41dac2ebd4,2021-09-27_13h53.06.844,forced_choiceRT_color,2021.2.3,Win32,59.95203837,,,,,,,,8,Ontime,short,j,1,2.009,7,2,30,2,1,,,,,
1.24,,,,,,,,,j,red,5ead868fe65d1f41dac2ebd4,2021-09-27_13h53.06.844,forced_choiceRT_color,2021.2.3,Win32,59.95203837,,,,,,,,8,Ontime,short,j,1,2.005,7,3,31,2,1,,,,,
0.01,,,,,,,,,d,orange,5ead868fe65d1f41dac2ebd4,2021-09-27_13h53.06.844,forced_choiceRT_color,2021.2.3,Win32,59.95203837,,,,,,,,8,Ontime,short,d,1,2.005,8,0,32,0,1,,,,,
0.17,,,,,,,,,f,blue,5ead868fe65d1f41dac2ebd4,2021-09-27_13h53.06.844,forced_choiceRT_color,2021.2.3,Win32,59.95203837,,,,,,,,8,Ontime,short,f,1,2.052,8,1,33,1,1,,,,,
1.2,,,,,,,,,f,blue,5ead868fe65d1f41dac2ebd4,2021-09-27_13h53.06.844,forced_choiceRT_color,2021.2.3,Win32,59.95203837,,,,,,,,8,Ontime,short,f,1,2.017,8,2,34,1,1,,,,,
1.08,,,,,,,,,j,red,5ead868fe65d1f41dac2ebd4,2021-09-27_13h53.06.844,forced_choiceRT_color,2021.2.3,Win32,59.95203837,,,,,,,,8,Ontime,short,j,1,2.069,8,3,35,2,1,,,,,
1.48,,,,,,,,,k,purple,5ead868fe65d1f41dac2ebd4,2021-09-27_13h53.06.844,forced_choiceRT_color,2021.2.3,Win32,59.95203837,,,,,,,,8,Ontime,short,k,1,2.083,9,0,36,3,1,,,,,
0.46,,,,,,,,,f,blue,5ead868fe65d1f41dac2ebd4,2021-09-27_13h53.06.844,forced_choiceRT_color,2021.2.3,Win32,59.95203837,,,,,,,,8,Ontime,short,f,1,2.067,9,1,37,1,1,,,,,
1.57,,,,,,,,,f,blue,5ead868fe65d1f41dac2ebd4,2021-09-27_13h53.06.844,forced_choiceRT_color,2021.2.3,Win32,59.95203837,,,,,,,,8,Ontime,short,k,0,1.985,9,2,38,1,1,,,,,
1.29,,,,,,,,,j,red,5ead868fe65d1f41dac2ebd4,2021-09-27_13h53.06.844,forced_choiceRT_color,2021.2.3,Win32,59.95203837,,,,,,,,8,Ontime,short,j,1,2.052,9,3,39,2,1,,,,,
,,,,,,,,,,,5ead868fe65d1f41dac2ebd4,2021-09-27_13h53.06.844,forced_choiceRT_color,2021.2.3,Win32,59.95203837,,,,,,,,,,,,,,,,,,,7,0,7,0,1
1.94,,,,,,,,,k,purple,5ead868fe65d1f41dac2ebd4,2021-09-27_13h53.06.844,forced_choiceRT_color,2021.2.3,Win32,59.95203837,,,,,,,,9,Ontime,short,k,1,2.048,0,0,0,3,1,,,,,
1.92,,,,,,,,,d,orange,5ead868fe65d1f41dac2ebd4,2021-09-27_13h53.06.844,forced_choiceRT_color,2021.2.3,Win32,59.95203837,,,,,,,,9,Ontime,short,k,0,2.035,0,1,1,0,1,,,,,
0.66,,,,,,,,,f,blue,5ead868fe65d1f41dac2ebd4,2021-09-27_13h53.06.844,forced_choiceRT_color,2021.2.3,Win32,59.95203837,,,,,,,,9,Ontime,short,f,1,2.002,0,2,2,1,1,,,,,
1.82,,,,,,,,,k,purple,5ead868fe65d1f41dac2ebd4,2021-09-27_13h53.06.844,forced_choiceRT_color,2021.2.3,Win32,59.95203837,,,,,,,,9,Ontime,short,f,0,2.051,0,3,3,3,1,,,,,
0.65,,,,,,,,,d,orange,5ead868fe65d1f41dac2ebd4,2021-09-27_13h53.06.844,forced_choiceRT_color,2021.2.3,Win32,59.95203837,,,,,,,,9,Ontime,short,d,1,2.018,1,0,4,0,1,,,,,
1.69,,,,,,,,,j,red,5ead868fe65d1f41dac2ebd4,2021-09-27_13h53.06.844,forced_choiceRT_color,2021.2.3,Win32,59.95203837,,,,,,,,9,Ontime,short,k,0,1.942,1,1,5,2,1,,,,,
1.53,,,,,,,,,f,blue,5ead868fe65d1f41dac2ebd4,2021-09-27_13h53.06.844,forced_choiceRT_color,2021.2.3,Win32,59.95203837,,,,,,,,9,Ontime,short,f,1,2.052,1,2,6,1,1,,,,,
0.18,,,,,,,,,j,red,5ead868fe65d1f41dac2ebd4,2021-09-27_13h53.06.844,forced_choiceRT_color,2021.2.3,Win32,59.95203837,,,,,,,,9,Ontime,short,j,1,2.036,1,3,7,2,1,,,,,
1.17,,,,,,,,,f,blue,5ead868fe65d1f41dac2ebd4,2021-09-27_13h53.06.844,forced_choiceRT_color,2021.2.3,Win32,59.95203837,,,,,,,,9,Ontime,short,f,1,2.018,2,0,8,1,1,,,,,
0.25,,,,,,,,,d,orange,5ead868fe65d1f41dac2ebd4,2021-09-27_13h53.06.844,forced_choiceRT_color,2021.2.3,Win32,59.95203837,,,,,,,,9,Ontime,short,d,1,2.035,2,1,9,0,1,,,,,
1.37,,,,,,,,,f,blue,5ead868fe65d1f41dac2ebd4,2021-09-27_13h53.06.844,forced_choiceRT_color,2021.2.3,Win32,59.95203837,,,,,,,,9,Ontime,short,f,1,2.051,2,2,10,1,1,,,,,
0.22,,,,,,,,,f,blue,5ead868fe65d1f41dac2ebd4,2021-09-27_13h53.06.844,forced_choiceRT_color,2021.2.3,Win32,59.95203837,,,,,,,,9,Ontime,short,f,1,2.018,2,3,11,1,1,,,,,
0.29,,,,,,,,,k,purple,5ead868fe65d1f41dac2ebd4,2021-09-27_13h53.06.844,forced_choiceRT_color,2021.2.3,Win32,59.95203837,,,,,,,,9,Ontime,short,k,1,2.05,3,0,12,3,1,,,,,
0.21,,,,,,,,,f,blue,5ead868fe65d1f41dac2ebd4,2021-09-27_13h53.06.844,forced_choiceRT_color,2021.2.3,Win32,59.95203837,,,,,,,,9,Ontime,short,f,1,1.987,3,1,13,1,1,,,,,
0.57,,,,,,,,,j,red,5ead868fe65d1f41dac2ebd4,2021-09-27_13h53.06.844,forced_choiceRT_color,2021.2.3,Win32,59.95203837,,,,,,,,9,Ontime,short,j,1,2.057,3,2,14,2,1,,,,,
0.29,,,,,,,,,d,orange,5ead868fe65d1f41dac2ebd4,2021-09-27_13h53.06.844,forced_choiceRT_color,2021.2.3,Win32,59.95203837,,,,,,,,9,Ontime,short,d,1,2.018,3,3,15,0,1,,,,,
0.09,,,,,,,,,k,purple,5ead868fe65d1f41dac2ebd4,2021-09-27_13h53.06.844,forced_choiceRT_color,2021.2.3,Win32,59.95203837,,,,,,,,9,Ontime,short,k,1,2.052,4,0,16,3,1,,,,,
0.37,,,,,,,,,k,purple,5ead868fe65d1f41dac2ebd4,2021-09-27_13h53.06.844,forced_choiceRT_color,2021.2.3,Win32,59.95203837,,,,,,,,9,Ontime,short,k,1,2.053,4,1,17,3,1,,,,,
1.14,,,,,,,,,j,red,5ead868fe65d1f41dac2ebd4,2021-09-27_13h53.06.844,forced_choiceRT_color,2021.2.3,Win32,59.95203837,,,,,,,,9,Ontime,short,f,0,2.053,4,2,18,2,1,,,,,
0.33,,,,,,,,,d,orange,5ead868fe65d1f41dac2ebd4,2021-09-27_13h53.06.844,forced_choiceRT_color,2021.2.3,Win32,59.95203837,,,,,,,,9,Fast,short,j,0,0.056,4,3,19,0,1,,,,,
1,,,,,,,,,k,purple,5ead868fe65d1f41dac2ebd4,2021-09-27_13h53.06.844,forced_choiceRT_color,2021.2.3,Win32,59.95203837,,,,,,,,9,Ontime,short,k,1,2.056,5,0,20,3,1,,,,,
1.27,,,,,,,,,f,blue,5ead868fe65d1f41dac2ebd4,2021-09-27_13h53.06.844,forced_choiceRT_color,2021.2.3,Win32,59.95203837,,,,,,,,9,Ontime,short,f,1,2.016,5,1,21,1,1,,,,,
0.8,,,,,,,,,k,purple,5ead868fe65d1f41dac2ebd4,2021-09-27_13h53.06.844,forced_choiceRT_color,2021.2.3,Win32,59.95203837,,,,,,,,9,Ontime,short,k,1,2.036,5,2,22,3,1,,,,,
1.87,,,,,,,,,j,red,5ead868fe65d1f41dac2ebd4,2021-09-27_13h53.06.844,forced_choiceRT_color,2021.2.3,Win32,59.95203837,,,,,,,,9,Ontime,short,k,0,2.055,5,3,23,2,1,,,,,
0.12,,,,,,,,,k,purple,5ead868fe65d1f41dac2ebd4,2021-09-27_13h53.06.844,forced_choiceRT_color,2021.2.3,Win32,59.95203837,,,,,,,,9,Ontime,short,k,1,2.036,6,0,24,3,1,,,,,
1.68,,,,,,,,,j,red,5ead868fe65d1f41dac2ebd4,2021-09-27_13h53.06.844,forced_choiceRT_color,2021.2.3,Win32,59.95203837,,,,,,,,9,Ontime,short,f,0,2.073,6,1,25,2,1,,,,,
0.13,,,,,,,,,f,blue,5ead868fe65d1f41dac2ebd4,2021-09-27_13h53.06.844,forced_choiceRT_color,2021.2.3,Win32,59.95203837,,,,,,,,9,Ontime,short,f,1,2.039,6,2,26,1,1,,,,,
1.42,,,,,,,,,f,blue,5ead868fe65d1f41dac2ebd4,2021-09-27_13h53.06.844,forced_choiceRT_color,2021.2.3,Win32,59.95203837,,,,,,,,9,Ontime,short,f,1,2.084,6,3,27,1,1,,,,,
0.75,,,,,,,,,d,orange,5ead868fe65d1f41dac2ebd4,2021-09-27_13h53.06.844,forced_choiceRT_color,2021.2.3,Win32,59.95203837,,,,,,,,9,Ontime,short,d,1,2.054,7,0,28,0,1,,,,,
1.08,,,,,,,,,d,orange,5ead868fe65d1f41dac2ebd4,2021-09-27_13h53.06.844,forced_choiceRT_color,2021.2.3,Win32,59.95203837,,,,,,,,9,Ontime,short,d,1,2.034,7,1,29,0,1,,,,,
0.92,,,,,,,,,j,red,5ead868fe65d1f41dac2ebd4,2021-09-27_13h53.06.844,forced_choiceRT_color,2021.2.3,Win32,59.95203837,,,,,,,,9,Ontime,short,j,1,2.004,7,2,30,2,1,,,,,
0.29,,,,,,,,,j,red,5ead868fe65d1f41dac2ebd4,2021-09-27_13h53.06.844,forced_choiceRT_color,2021.2.3,Win32,59.95203837,,,,,,,,9,Slow,short,j,1,2.1,7,3,31,2,1,,,,,
0.34,,,,,,,,,f,blue,5ead868fe65d1f41dac2ebd4,2021-09-27_13h53.06.844,forced_choiceRT_color,2021.2.3,Win32,59.95203837,,,,,,,,9,Ontime,short,f,1,2.025,8,0,32,1,1,,,,,
1.82,,,,,,,,,d,orange,5ead868fe65d1f41dac2ebd4,2021-09-27_13h53.06.844,forced_choiceRT_color,2021.2.3,Win32,59.95203837,,,,,,,,9,Ontime,short,k,0,2.051,8,1,33,0,1,,,,,
1.44,,,,,,,,,k,purple,5ead868fe65d1f41dac2ebd4,2021-09-27_13h53.06.844,forced_choiceRT_color,2021.2.3,Win32,59.95203837,,,,,,,,9,Ontime,short,k,1,2.07,8,2,34,3,1,,,,,
1.58,,,,,,,,,d,orange,5ead868fe65d1f41dac2ebd4,2021-09-27_13h53.06.844,forced_choiceRT_color,2021.2.3,Win32,59.95203837,,,,,,,,9,Slow,short,d,1,2.1,8,3,35,0,1,,,,,
1.43,,,,,,,,,k,purple,5ead868fe65d1f41dac2ebd4,2021-09-27_13h53.06.844,forced_choiceRT_color,2021.2.3,Win32,59.95203837,,,,,,,,9,Slow,short,k,1,2.101,9,0,36,3,1,,,,,
0.76,,,,,,,,,j,red,5ead868fe65d1f41dac2ebd4,2021-09-27_13h53.06.844,forced_choiceRT_color,2021.2.3,Win32,59.95203837,,,,,,,,9,Ontime,short,j,1,2.019,9,1,37,2,1,,,,,
0.43,,,,,,,,,j,red,5ead868fe65d1f41dac2ebd4,2021-09-27_13h53.06.844,forced_choiceRT_color,2021.2.3,Win32,59.95203837,,,,,,,,9,Ontime,short,j,1,2.072,9,2,38,2,1,,,,,
1.15,,,,,,,,,d,orange,5ead868fe65d1f41dac2ebd4,2021-09-27_13h53.06.844,forced_choiceRT_color,2021.2.3,Win32,59.95203837,,,,,,,,9,Ontime,short,d,1,2.003,9,3,39,0,1,,,,,
,,,,,,,,,,,5ead868fe65d1f41dac2ebd4,2021-09-27_13h53.06.844,forced_choiceRT_color,2021.2.3,Win32,59.95203837,,,,,,,,,,,,,,,,,,,8,0,8,0,1
1.29,,,,,,,,,d,orange,5ead868fe65d1f41dac2ebd4,2021-09-27_13h53.06.844,forced_choiceRT_color,2021.2.3,Win32,59.95203837,,,,,,,,10,Ontime,short,d,1,2.033,0,0,0,0,1,,,,,
0.96,,,,,,,,,j,red,5ead868fe65d1f41dac2ebd4,2021-09-27_13h53.06.844,forced_choiceRT_color,2021.2.3,Win32,59.95203837,,,,,,,,10,Ontime,short,j,1,2.004,0,1,1,2,1,,,,,
1.39,,,,,,,,,d,orange,5ead868fe65d1f41dac2ebd4,2021-09-27_13h53.06.844,forced_choiceRT_color,2021.2.3,Win32,59.95203837,,,,,,,,10,Ontime,short,d,1,1.955,0,2,2,0,1,,,,,
0.42,,,,,,,,,k,purple,5ead868fe65d1f41dac2ebd4,2021-09-27_13h53.06.844,forced_choiceRT_color,2021.2.3,Win32,59.95203837,,,,,,,,10,Ontime,short,k,1,1.984,0,3,3,3,1,,,,,
0.5,,,,,,,,,d,orange,5ead868fe65d1f41dac2ebd4,2021-09-27_13h53.06.844,forced_choiceRT_color,2021.2.3,Win32,59.95203837,,,,,,,,10,Ontime,short,d,1,2.036,1,0,4,0,1,,,,,
0.01,,,,,,,,,d,orange,5ead868fe65d1f41dac2ebd4,2021-09-27_13h53.06.844,forced_choiceRT_color,2021.2.3,Win32,59.95203837,,,,,,,,10,Ontime,short,d,1,2.006,1,1,5,0,1,,,,,
1.73,,,,,,,,,j,red,5ead868fe65d1f41dac2ebd4,2021-09-27_13h53.06.844,forced_choiceRT_color,2021.2.3,Win32,59.95203837,,,,,,,,10,Ontime,short,k,0,1.985,1,2,6,2,1,,,,,
0.37,,,,,,,,,d,orange,5ead868fe65d1f41dac2ebd4,2021-09-27_13h53.06.844,forced_choiceRT_color,2021.2.3,Win32,59.95203837,,,,,,,,10,Ontime,short,d,1,2.056,1,3,7,0,1,,,,,
0.85,,,,,,,,,f,blue,5ead868fe65d1f41dac2ebd4,2021-09-27_13h53.06.844,forced_choiceRT_color,2021.2.3,Win32,59.95203837,,,,,,,,10,Ontime,short,f,1,2.058,2,0,8,1,1,,,,,
0.34,,,,,,,,,j,red,5ead868fe65d1f41dac2ebd4,2021-09-27_13h53.06.844,forced_choiceRT_color,2021.2.3,Win32,59.95203837,,,,,,,,10,Ontime,short,j,1,2.043,2,1,9,2,1,,,,,
0.46,,,,,,,,,f,blue,5ead868fe65d1f41dac2ebd4,2021-09-27_13h53.06.844,forced_choiceRT_color,2021.2.3,Win32,59.95203837,,,,,,,,10,Ontime,short,f,1,1.952,2,2,10,1,1,,,,,
0.9,,,,,,,,,j,red,5ead868fe65d1f41dac2ebd4,2021-09-27_13h53.06.844,forced_choiceRT_color,2021.2.3,Win32,59.95203837,,,,,,,,10,Ontime,short,j,1,1.986,2,3,11,2,1,,,,,
0.59,,,,,,,,,j,red,5ead868fe65d1f41dac2ebd4,2021-09-27_13h53.06.844,forced_choiceRT_color,2021.2.3,Win32,59.95203837,,,,,,,,10,Ontime,short,j,1,1.988,3,0,12,2,1,,,,,
1.09,,,,,,,,,j,red,5ead868fe65d1f41dac2ebd4,2021-09-27_13h53.06.844,forced_choiceRT_color,2021.2.3,Win32,59.95203837,,,,,,,,10,Ontime,short,j,1,1.972,3,1,13,2,1,,,,,
1.24,,,,,,,,,d,orange,5ead868fe65d1f41dac2ebd4,2021-09-27_13h53.06.844,forced_choiceRT_color,2021.2.3,Win32,59.95203837,,,,,,,,10,Ontime,short,d,1,2.052,3,2,14,0,1,,,,,
1.75,,,,,,,,,k,purple,5ead868fe65d1f41dac2ebd4,2021-09-27_13h53.06.844,forced_choiceRT_color,2021.2.3,Win32,59.95203837,,,,,,,,10,Ontime,short,k,1,1.951,3,3,15,3,1,,,,,
0.3,,,,,,,,,k,purple,5ead868fe65d1f41dac2ebd4,2021-09-27_13h53.06.844,forced_choiceRT_color,2021.2.3,Win32,59.95203837,,,,,,,,10,Ontime,short,k,1,2.035,4,0,16,3,1,,,,,
0.39,,,,,,,,,k,purple,5ead868fe65d1f41dac2ebd4,2021-09-27_13h53.06.844,forced_choiceRT_color,2021.2.3,Win32,59.95203837,,,,,,,,10,Ontime,short,k,1,2.034,4,1,17,3,1,,,,,
0.83,,,,,,,,,k,purple,5ead868fe65d1f41dac2ebd4,2021-09-27_13h53.06.844,forced_choiceRT_color,2021.2.3,Win32,59.95203837,,,,,,,,10,Ontime,short,k,1,2.057,4,2,18,3,1,,,,,
0.86,,,,,,,,,k,purple,5ead868fe65d1f41dac2ebd4,2021-09-27_13h53.06.844,forced_choiceRT_color,2021.2.3,Win32,59.95203837,,,,,,,,10,Ontime,short,k,1,2.072,4,3,19,3,1,,,,,
1.5,,,,,,,,,j,red,5ead868fe65d1f41dac2ebd4,2021-09-27_13h53.06.844,forced_choiceRT_color,2021.2.3,Win32,59.95203837,,,,,,,,10,Slow,short,j,1,2.119,5,0,20,2,1,,,,,
0.95,,,,,,,,,j,red,5ead868fe65d1f41dac2ebd4,2021-09-27_13h53.06.844,forced_choiceRT_color,2021.2.3,Win32,59.95203837,,,,,,,,10,Ontime,short,j,1,2.019,5,1,21,2,1,,,,,
0.82,,,,,,,,,d,orange,5ead868fe65d1f41dac2ebd4,2021-09-27_13h53.06.844,forced_choiceRT_color,2021.2.3,Win32,59.95203837,,,,,,,,10,Ontime,short,d,1,2.016,5,2,22,0,1,,,,,
1.55,,,,,,,,,f,blue,5ead868fe65d1f41dac2ebd4,2021-09-27_13h53.06.844,forced_choiceRT_color,2021.2.3,Win32,59.95203837,,,,,,,,10,Ontime,short,f,1,2.025,5,3,23,1,1,,,,,
0.91,,,,,,,,,d,orange,5ead868fe65d1f41dac2ebd4,2021-09-27_13h53.06.844,forced_choiceRT_color,2021.2.3,Win32,59.95203837,,,,,,,,10,Ontime,short,d,1,2.059,6,0,24,0,1,,,,,
1.85,,,,,,,,,f,blue,5ead868fe65d1f41dac2ebd4,2021-09-27_13h53.06.844,forced_choiceRT_color,2021.2.3,Win32,59.95203837,,,,,,,,10,Ontime,short,k,0,2.035,6,1,25,1,1,,,,,
0.63,,,,,,,,,j,red,5ead868fe65d1f41dac2ebd4,2021-09-27_13h53.06.844,forced_choiceRT_color,2021.2.3,Win32,59.95203837,,,,,,,,10,Ontime,short,j,1,2.018,6,2,26,2,1,,,,,
1.06,,,,,,,,,f,blue,5ead868fe65d1f41dac2ebd4,2021-09-27_13h53.06.844,forced_choiceRT_color,2021.2.3,Win32,59.95203837,,,,,,,,10,Ontime,short,f,1,2.052,6,3,27,1,1,,,,,
0.49,,,,,,,,,d,orange,5ead868fe65d1f41dac2ebd4,2021-09-27_13h53.06.844,forced_choiceRT_color,2021.2.3,Win32,59.95203837,,,,,,,,10,Ontime,short,d,1,1.985,7,0,28,0,1,,,,,
0.68,,,,,,,,,f,blue,5ead868fe65d1f41dac2ebd4,2021-09-27_13h53.06.844,forced_choiceRT_color,2021.2.3,Win32,59.95203837,,,,,,,,10,Ontime,short,f,1,1.984,7,1,29,1,1,,,,,
0.6,,,,,,,,,k,purple,5ead868fe65d1f41dac2ebd4,2021-09-27_13h53.06.844,forced_choiceRT_color,2021.2.3,Win32,59.95203837,,,,,,,,10,Ontime,short,k,1,1.988,7,2,30,3,1,,,,,
0.62,,,,,,,,,f,blue,5ead868fe65d1f41dac2ebd4,2021-09-27_13h53.06.844,forced_choiceRT_color,2021.2.3,Win32,59.95203837,,,,,,,,10,Ontime,short,f,1,1.985,7,3,31,1,1,,,,,
0.41,,,,,,,,,f,blue,5ead868fe65d1f41dac2ebd4,2021-09-27_13h53.06.844,forced_choiceRT_color,2021.2.3,Win32,59.95203837,,,,,,,,10,Ontime,short,f,1,1.968,8,0,32,1,1,,,,,
0.21,,,,,,,,,j,red,5ead868fe65d1f41dac2ebd4,2021-09-27_13h53.06.844,forced_choiceRT_color,2021.2.3,Win32,59.95203837,,,,,,,,10,Ontime,short,j,1,2.001,8,1,33,2,1,,,,,
1.81,,,,,,,,,k,purple,5ead868fe65d1f41dac2ebd4,2021-09-27_13h53.06.844,forced_choiceRT_color,2021.2.3,Win32,59.95203837,,,,,,,,10,Ontime,short,d,0,2.052,8,2,34,3,1,,,,,
0.66,,,,,,,,,f,blue,5ead868fe65d1f41dac2ebd4,2021-09-27_13h53.06.844,forced_choiceRT_color,2021.2.3,Win32,59.95203837,,,,,,,,10,Ontime,short,j,0,2.036,8,3,35,1,1,,,,,
1.31,,,,,,,,,k,purple,5ead868fe65d1f41dac2ebd4,2021-09-27_13h53.06.844,forced_choiceRT_color,2021.2.3,Win32,59.95203837,,,,,,,,10,Fast,short,f,0,0.051,9,0,36,3,1,,,,,
0.07,,,,,,,,,d,orange,5ead868fe65d1f41dac2ebd4,2021-09-27_13h53.06.844,forced_choiceRT_color,2021.2.3,Win32,59.95203837,,,,,,,,10,Ontime,short,d,1,2.052,9,1,37,0,1,,,,,
0.73,,,,,,,,,f,blue,5ead868fe65d1f41dac2ebd4,2021-09-27_13h53.06.844,forced_choiceRT_color,2021.2.3,Win32,59.95203837,,,,,,,,10,Ontime,short,f,1,2.057,9,2,38,1,1,,,,,
0.19,,,,,,,,,k,purple,5ead868fe65d1f41dac2ebd4,2021-09-27_13h53.06.844,forced_choiceRT_color,2021.2.3,Win32,59.95203837,,,,,,,,10,Ontime,short,k,1,2.003,9,3,39,3,1,,,,,
,,,,,,,,,,,5ead868fe65d1f41dac2ebd4,2021-09-27_13h53.06.844,forced_choiceRT_color,2021.2.3,Win32,59.95203837,,,,,,,,,,,,,,,,,,,9,0,9,0,1
