IP_Addresss,target_onset,trial_resp_sp.keys,trial_resp_sp.corr,trial_resp_sp.rt,trials_train_loop.thisRepN,trials_train_loop.thisTrialN,trials_train_loop.thisN,trials_train_loop.thisIndex,trials_train_loop.ran,correct_key,color,participant,date,expName,psychopyVersion,OS,frameRate,trial_resp_timing.keys,trial_resp_timing.rt,trials_train_timing.thisRepN,trials_train_timing.thisTrialN,trials_train_timing.thisN,trials_train_timing.thisIndex,trials_train_timing.ran,block_id,ontime,feedback_cond,forcedRT_resp.keys,forcedRT_resp.corr,forcedRT_resp.rt,trials.thisRepN,trials.thisTrialN,trials.thisN,trials.thisIndex,trials.ran,blocks.thisRepN,blocks.thisTrialN,blocks.thisN,blocks.thisIndex,blocks.ran
98.227.17.116,0,k,1,1.7057,0,0,0,3,1,k,purple,5eb97048fcd12c0594dbf1f9,2021-09-27_16h14.19.410,forced_choiceRT_color,2021.2.3,Linux aarch64,59.99880002,,,,,,,,,,,,,,,,,,,,,,,
,0,d,1,1.0633,0,1,1,0,1,d,orange,5eb97048fcd12c0594dbf1f9,2021-09-27_16h14.19.410,forced_choiceRT_color,2021.2.3,Linux aarch64,59.99880002,,,,,,,,,,,,,,,,,,,,,,,
,0,d,1,0.566,0,2,2,0,1,d,orange,5eb97048fcd12c0594dbf1f9,2021-09-27_16h14.19.410,forced_choiceRT_color,2021.2.3,Linux aarch64,59.99880002,,,,,,,,,,,,,,,,,,,,,,,
,0,j,1,0.7168,0,3,3,2,1,j,red,5eb97048fcd12c0594dbf1f9,2021-09-27_16h14.19.410,forced_choiceRT_color,2021.2.3,Linux aarch64,59.99880002,,,,,,,,,,,,,,,,,,,,,,,
,0,j,0,0.8106,1,0,4,0,1,d,orange,5eb97048fcd12c0594dbf1f9,2021-09-27_16h14.19.410,forced_choiceRT_color,2021.2.3,Linux aarch64,59.99880002,,,,,,,,,,,,,,,,,,,,,,,
,0,f,1,1.3757,1,1,5,1,1,f,blue,5eb97048fcd12c0594dbf1f9,2021-09-27_16h14.19.410,forced_choiceRT_color,2021.2.3,Linux aarch64,59.99880002,,,,,,,,,,,,,,,,,,,,,,,
,0,j,1,1.1748,1,2,6,2,1,j,red,5eb97048fcd12c0594dbf1f9,2021-09-27_16h14.19.410,forced_choiceRT_color,2021.2.3,Linux aarch64,59.99880002,,,,,,,,,,,,,,,,,,,,,,,
,0,j,1,1.064,1,3,7,2,1,j,red,5eb97048fcd12c0594dbf1f9,2021-09-27_16h14.19.410,forced_choiceRT_color,2021.2.3,Linux aarch64,59.99880002,,,,,,,,,,,,,,,,,,,,,,,
,0,k,1,1.2571,2,0,8,3,1,k,purple,5eb97048fcd12c0594dbf1f9,2021-09-27_16h14.19.410,forced_choiceRT_color,2021.2.3,Linux aarch64,59.99880002,,,,,,,,,,,,,,,,,,,,,,,
,0,d,1,1.858,2,1,9,0,1,d,orange,5eb97048fcd12c0594dbf1f9,2021-09-27_16h14.19.410,forced_choiceRT_color,2021.2.3,Linux aarch64,59.99880002,,,,,,,,,,,,,,,,,,,,,,,
,0,j,1,1.7212,2,2,10,2,1,j,red,5eb97048fcd12c0594dbf1f9,2021-09-27_16h14.19.410,forced_choiceRT_color,2021.2.3,Linux aarch64,59.99880002,,,,,,,,,,,,,,,,,,,,,,,
,0,k,1,1.1127,2,3,11,3,1,k,purple,5eb97048fcd12c0594dbf1f9,2021-09-27_16h14.19.410,forced_choiceRT_color,2021.2.3,Linux aarch64,59.99880002,,,,,,,,,,,,,,,,,,,,,,,
,0,f,1,1.3835,3,0,12,1,1,f,blue,5eb97048fcd12c0594dbf1f9,2021-09-27_16h14.19.410,forced_choiceRT_color,2021.2.3,Linux aarch64,59.99880002,,,,,,,,,,,,,,,,,,,,,,,
,0,f,1,0.6557,3,1,13,1,1,f,blue,5eb97048fcd12c0594dbf1f9,2021-09-27_16h14.19.410,forced_choiceRT_color,2021.2.3,Linux aarch64,59.99880002,,,,,,,,,,,,,,,,,,,,,,,
,0,d,0,0.6465,3,2,14,2,1,j,red,5eb97048fcd12c0594dbf1f9,2021-09-27_16h14.19.410,forced_choiceRT_color,2021.2.3,Linux aarch64,59.99880002,,,,,,,,,,,,,,,,,,,,,,,
,0,f,1,1.2305,3,3,15,1,1,f,blue,5eb97048fcd12c0594dbf1f9,2021-09-27_16h14.19.410,forced_choiceRT_color,2021.2.3,Linux aarch64,59.99880002,,,,,,,,,,,,,,,,,,,,,,,
,0,k,1,1.4165,4,0,16,3,1,k,purple,5eb97048fcd12c0594dbf1f9,2021-09-27_16h14.19.410,forced_choiceRT_color,2021.2.3,Linux aarch64,59.99880002,,,,,,,,,,,,,,,,,,,,,,,
,0,j,1,1.2636,4,1,17,2,1,j,red,5eb97048fcd12c0594dbf1f9,2021-09-27_16h14.19.410,forced_choiceRT_color,2021.2.3,Linux aarch64,59.99880002,,,,,,,,,,,,,,,,,,,,,,,
,0,d,1,1.03,4,2,18,0,1,d,orange,5eb97048fcd12c0594dbf1f9,2021-09-27_16h14.19.410,forced_choiceRT_color,2021.2.3,Linux aarch64,59.99880002,,,,,,,,,,,,,,,,,,,,,,,
,0,j,1,0.7312,4,3,19,2,1,j,red,5eb97048fcd12c0594dbf1f9,2021-09-27_16h14.19.410,forced_choiceRT_color,2021.2.3,Linux aarch64,59.99880002,,,,,,,,,,,,,,,,,,,,,,,
,0,j,1,0.5558,5,0,20,2,1,j,red,5eb97048fcd12c0594dbf1f9,2021-09-27_16h14.19.410,forced_choiceRT_color,2021.2.3,Linux aarch64,59.99880002,,,,,,,,,,,,,,,,,,,,,,,
,0,k,1,0.5159,5,1,21,3,1,k,purple,5eb97048fcd12c0594dbf1f9,2021-09-27_16h14.19.410,forced_choiceRT_color,2021.2.3,Linux aarch64,59.99880002,,,,,,,,,,,,,,,,,,,,,,,
,0,d,0,0.8166,5,2,22,1,1,f,blue,5eb97048fcd12c0594dbf1f9,2021-09-27_16h14.19.410,forced_choiceRT_color,2021.2.3,Linux aarch64,59.99880002,,,,,,,,,,,,,,,,,,,,,,,
,0,f,1,0.7165,5,3,23,1,1,f,blue,5eb97048fcd12c0594dbf1f9,2021-09-27_16h14.19.410,forced_choiceRT_color,2021.2.3,Linux aarch64,59.99880002,,,,,,,,,,,,,,,,,,,,,,,
,0,k,1,1.0199,6,0,24,3,1,k,purple,5eb97048fcd12c0594dbf1f9,2021-09-27_16h14.19.410,forced_choiceRT_color,2021.2.3,Linux aarch64,59.99880002,,,,,,,,,,,,,,,,,,,,,,,
,0,f,1,1.3139,6,1,25,1,1,f,blue,5eb97048fcd12c0594dbf1f9,2021-09-27_16h14.19.410,forced_choiceRT_color,2021.2.3,Linux aarch64,59.99880002,,,,,,,,,,,,,,,,,,,,,,,
,0,k,1,0.9731,6,2,26,3,1,k,purple,5eb97048fcd12c0594dbf1f9,2021-09-27_16h14.19.410,forced_choiceRT_color,2021.2.3,Linux aarch64,59.99880002,,,,,,,,,,,,,,,,,,,,,,,
,0,f,1,0.9599,6,3,27,1,1,f,blue,5eb97048fcd12c0594dbf1f9,2021-09-27_16h14.19.410,forced_choiceRT_color,2021.2.3,Linux aarch64,59.99880002,,,,,,,,,,,,,,,,,,,,,,,
,0,d,1,1.1464,7,0,28,0,1,d,orange,5eb97048fcd12c0594dbf1f9,2021-09-27_16h14.19.410,forced_choiceRT_color,2021.2.3,Linux aarch64,59.99880002,,,,,,,,,,,,,,,,,,,,,,,
,0,d,1,0.7353,7,1,29,0,1,d,orange,5eb97048fcd12c0594dbf1f9,2021-09-27_16h14.19.410,forced_choiceRT_color,2021.2.3,Linux aarch64,59.99880002,,,,,,,,,,,,,,,,,,,,,,,
,0,f,1,0.9389,7,2,30,1,1,f,blue,5eb97048fcd12c0594dbf1f9,2021-09-27_16h14.19.410,forced_choiceRT_color,2021.2.3,Linux aarch64,59.99880002,,,,,,,,,,,,,,,,,,,,,,,
,0,f,1,0.6325,7,3,31,1,1,f,blue,5eb97048fcd12c0594dbf1f9,2021-09-27_16h14.19.410,forced_choiceRT_color,2021.2.3,Linux aarch64,59.99880002,,,,,,,,,,,,,,,,,,,,,,,
,0,k,1,0.9996,8,0,32,3,1,k,purple,5eb97048fcd12c0594dbf1f9,2021-09-27_16h14.19.410,forced_choiceRT_color,2021.2.3,Linux aarch64,59.99880002,,,,,,,,,,,,,,,,,,,,,,,
,0,j,1,0.8692,8,1,33,2,1,j,red,5eb97048fcd12c0594dbf1f9,2021-09-27_16h14.19.410,forced_choiceRT_color,2021.2.3,Linux aarch64,59.99880002,,,,,,,,,,,,,,,,,,,,,,,
,0,f,1,0.9631,8,2,34,1,1,f,blue,5eb97048fcd12c0594dbf1f9,2021-09-27_16h14.19.410,forced_choiceRT_color,2021.2.3,Linux aarch64,59.99880002,,,,,,,,,,,,,,,,,,,,,,,
,0,d,1,0.7322,8,3,35,0,1,d,orange,5eb97048fcd12c0594dbf1f9,2021-09-27_16h14.19.410,forced_choiceRT_color,2021.2.3,Linux aarch64,59.99880002,,,,,,,,,,,,,,,,,,,,,,,
,0,d,1,0.6344,9,0,36,0,1,d,orange,5eb97048fcd12c0594dbf1f9,2021-09-27_16h14.19.410,forced_choiceRT_color,2021.2.3,Linux aarch64,59.99880002,,,,,,,,,,,,,,,,,,,,,,,
,0,k,1,0.7046,9,1,37,3,1,k,purple,5eb97048fcd12c0594dbf1f9,2021-09-27_16h14.19.410,forced_choiceRT_color,2021.2.3,Linux aarch64,59.99880002,,,,,,,,,,,,,,,,,,,,,,,
,0,k,1,0.5841,9,2,38,3,1,k,purple,5eb97048fcd12c0594dbf1f9,2021-09-27_16h14.19.410,forced_choiceRT_color,2021.2.3,Linux aarch64,59.99880002,,,,,,,,,,,,,,,,,,,,,,,
,0,d,1,0.7466,9,3,39,0,1,d,orange,5eb97048fcd12c0594dbf1f9,2021-09-27_16h14.19.410,forced_choiceRT_color,2021.2.3,Linux aarch64,59.99880002,,,,,,,,,,,,,,,,,,,,,,,
,0,k,1,0.7305,10,0,40,3,1,k,purple,5eb97048fcd12c0594dbf1f9,2021-09-27_16h14.19.410,forced_choiceRT_color,2021.2.3,Linux aarch64,59.99880002,,,,,,,,,,,,,,,,,,,,,,,
,0,d,1,0.7181,10,1,41,0,1,d,orange,5eb97048fcd12c0594dbf1f9,2021-09-27_16h14.19.410,forced_choiceRT_color,2021.2.3,Linux aarch64,59.99880002,,,,,,,,,,,,,,,,,,,,,,,
,0,j,1,1.0679,10,2,42,2,1,j,red,5eb97048fcd12c0594dbf1f9,2021-09-27_16h14.19.410,forced_choiceRT_color,2021.2.3,Linux aarch64,59.99880002,,,,,,,,,,,,,,,,,,,,,,,
,0,f,1,1.1321,10,3,43,1,1,f,blue,5eb97048fcd12c0594dbf1f9,2021-09-27_16h14.19.410,forced_choiceRT_color,2021.2.3,Linux aarch64,59.99880002,,,,,,,,,,,,,,,,,,,,,,,
,0,f,1,0.607,11,0,44,1,1,f,blue,5eb97048fcd12c0594dbf1f9,2021-09-27_16h14.19.410,forced_choiceRT_color,2021.2.3,Linux aarch64,59.99880002,,,,,,,,,,,,,,,,,,,,,,,
,0,f,1,0.4732,11,1,45,1,1,f,blue,5eb97048fcd12c0594dbf1f9,2021-09-27_16h14.19.410,forced_choiceRT_color,2021.2.3,Linux aarch64,59.99880002,,,,,,,,,,,,,,,,,,,,,,,
,0,j,1,0.7644,11,2,46,2,1,j,red,5eb97048fcd12c0594dbf1f9,2021-09-27_16h14.19.410,forced_choiceRT_color,2021.2.3,Linux aarch64,59.99880002,,,,,,,,,,,,,,,,,,,,,,,
,0,j,1,0.5365,11,3,47,2,1,j,red,5eb97048fcd12c0594dbf1f9,2021-09-27_16h14.19.410,forced_choiceRT_color,2021.2.3,Linux aarch64,59.99880002,,,,,,,,,,,,,,,,,,,,,,,
,0,k,1,0.602,12,0,48,3,1,k,purple,5eb97048fcd12c0594dbf1f9,2021-09-27_16h14.19.410,forced_choiceRT_color,2021.2.3,Linux aarch64,59.99880002,,,,,,,,,,,,,,,,,,,,,,,
,0,d,1,0.7416,12,1,49,0,1,d,orange,5eb97048fcd12c0594dbf1f9,2021-09-27_16h14.19.410,forced_choiceRT_color,2021.2.3,Linux aarch64,59.99880002,,,,,,,,,,,,,,,,,,,,,,,
,0,d,1,0.5002,12,2,50,0,1,d,orange,5eb97048fcd12c0594dbf1f9,2021-09-27_16h14.19.410,forced_choiceRT_color,2021.2.3,Linux aarch64,59.99880002,,,,,,,,,,,,,,,,,,,,,,,
,0,f,1,0.4344,12,3,51,1,1,f,blue,5eb97048fcd12c0594dbf1f9,2021-09-27_16h14.19.410,forced_choiceRT_color,2021.2.3,Linux aarch64,59.99880002,,,,,,,,,,,,,,,,,,,,,,,
,0,d,1,0.693,13,0,52,0,1,d,orange,5eb97048fcd12c0594dbf1f9,2021-09-27_16h14.19.410,forced_choiceRT_color,2021.2.3,Linux aarch64,59.99880002,,,,,,,,,,,,,,,,,,,,,,,
,0,d,1,0.53,13,1,53,0,1,d,orange,5eb97048fcd12c0594dbf1f9,2021-09-27_16h14.19.410,forced_choiceRT_color,2021.2.3,Linux aarch64,59.99880002,,,,,,,,,,,,,,,,,,,,,,,
,0,k,1,0.6829,13,2,54,3,1,k,purple,5eb97048fcd12c0594dbf1f9,2021-09-27_16h14.19.410,forced_choiceRT_color,2021.2.3,Linux aarch64,59.99880002,,,,,,,,,,,,,,,,,,,,,,,
,0,j,1,0.6431,13,3,55,2,1,j,red,5eb97048fcd12c0594dbf1f9,2021-09-27_16h14.19.410,forced_choiceRT_color,2021.2.3,Linux aarch64,59.99880002,,,,,,,,,,,,,,,,,,,,,,,
,0,j,1,0.651,14,0,56,2,1,j,red,5eb97048fcd12c0594dbf1f9,2021-09-27_16h14.19.410,forced_choiceRT_color,2021.2.3,Linux aarch64,59.99880002,,,,,,,,,,,,,,,,,,,,,,,
,0,k,1,0.6192,14,1,57,3,1,k,purple,5eb97048fcd12c0594dbf1f9,2021-09-27_16h14.19.410,forced_choiceRT_color,2021.2.3,Linux aarch64,59.99880002,,,,,,,,,,,,,,,,,,,,,,,
,0,j,1,0.7485,14,2,58,2,1,j,red,5eb97048fcd12c0594dbf1f9,2021-09-27_16h14.19.410,forced_choiceRT_color,2021.2.3,Linux aarch64,59.99880002,,,,,,,,,,,,,,,,,,,,,,,
,0,k,1,0.631,14,3,59,3,1,k,purple,5eb97048fcd12c0594dbf1f9,2021-09-27_16h14.19.410,forced_choiceRT_color,2021.2.3,Linux aarch64,59.99880002,,,,,,,,,,,,,,,,,,,,,,,
,,,,,,,,,,,,5eb97048fcd12c0594dbf1f9,2021-09-27_16h14.19.410,forced_choiceRT_color,2021.2.3,Linux aarch64,59.99880002,f,5.9623,0,0,0,0,1,,,,,,,,,,,,,,,,
,,,,,,,,,,,,5eb97048fcd12c0594dbf1f9,2021-09-27_16h14.19.410,forced_choiceRT_color,2021.2.3,Linux aarch64,59.99880002,f,2.2584,1,0,1,0,1,,,,,,,,,,,,,,,,
,,,,,,,,,,,,5eb97048fcd12c0594dbf1f9,2021-09-27_16h14.19.410,forced_choiceRT_color,2021.2.3,Linux aarch64,59.99880002,f,1.9564,2,0,2,0,1,,,,,,,,,,,,,,,,
,,,,,,,,,,,,5eb97048fcd12c0594dbf1f9,2021-09-27_16h14.19.410,forced_choiceRT_color,2021.2.3,Linux aarch64,59.99880002,j,1.6683,3,0,3,0,1,,,,,,,,,,,,,,,,
,,,,,,,,,,,,5eb97048fcd12c0594dbf1f9,2021-09-27_16h14.19.410,forced_choiceRT_color,2021.2.3,Linux aarch64,59.99880002,j,1.8015,4,0,4,0,1,,,,,,,,,,,,,,,,
,,,,,,,,,,,,5eb97048fcd12c0594dbf1f9,2021-09-27_16h14.19.410,forced_choiceRT_color,2021.2.3,Linux aarch64,59.99880002,j,2.0952,5,0,5,0,1,,,,,,,,,,,,,,,,
,,,,,,,,,,,,5eb97048fcd12c0594dbf1f9,2021-09-27_16h14.19.410,forced_choiceRT_color,2021.2.3,Linux aarch64,59.99880002,j,2.2079,6,0,6,0,1,,,,,,,,,,,,,,,,
,,,,,,,,,,,,5eb97048fcd12c0594dbf1f9,2021-09-27_16h14.19.410,forced_choiceRT_color,2021.2.3,Linux aarch64,59.99880002,j,2.0912,7,0,7,0,1,,,,,,,,,,,,,,,,
,,,,,,,,,,,,5eb97048fcd12c0594dbf1f9,2021-09-27_16h14.19.410,forced_choiceRT_color,2021.2.3,Linux aarch64,59.99880002,j,2.0188,8,0,8,0,1,,,,,,,,,,,,,,,,
,,,,,,,,,,,,5eb97048fcd12c0594dbf1f9,2021-09-27_16h14.19.410,forced_choiceRT_color,2021.2.3,Linux aarch64,59.99880002,j,2.0678,9,0,9,0,1,,,,,,,,,,,,,,,,
,,,,,,,,,,,,5eb97048fcd12c0594dbf1f9,2021-09-27_16h14.19.410,forced_choiceRT_color,2021.2.3,Linux aarch64,59.99880002,j,2.0764,10,0,10,0,1,,,,,,,,,,,,,,,,
,,,,,,,,,,,,5eb97048fcd12c0594dbf1f9,2021-09-27_16h14.19.410,forced_choiceRT_color,2021.2.3,Linux aarch64,59.99880002,k,1.8502,11,0,11,0,1,,,,,,,,,,,,,,,,
,,,,,,,,,,,,5eb97048fcd12c0594dbf1f9,2021-09-27_16h14.19.410,forced_choiceRT_color,2021.2.3,Linux aarch64,59.99880002,k,1.9508,12,0,12,0,1,,,,,,,,,,,,,,,,
,,,,,,,,,,,,5eb97048fcd12c0594dbf1f9,2021-09-27_16h14.19.410,forced_choiceRT_color,2021.2.3,Linux aarch64,59.99880002,k,1.9342,13,0,13,0,1,,,,,,,,,,,,,,,,
,,,,,,,,,,,,5eb97048fcd12c0594dbf1f9,2021-09-27_16h14.19.410,forced_choiceRT_color,2021.2.3,Linux aarch64,59.99880002,k,2.0598,14,0,14,0,1,,,,,,,,,,,,,,,,
,,,,,,,,,,,,5eb97048fcd12c0594dbf1f9,2021-09-27_16h14.19.410,forced_choiceRT_color,2021.2.3,Linux aarch64,59.99880002,d,2.0325,15,0,15,0,1,,,,,,,,,,,,,,,,
,,,,,,,,,,,,5eb97048fcd12c0594dbf1f9,2021-09-27_16h14.19.410,forced_choiceRT_color,2021.2.3,Linux aarch64,59.99880002,f,2.0787,16,0,16,0,1,,,,,,,,,,,,,,,,
,,,,,,,,,,,,5eb97048fcd12c0594dbf1f9,2021-09-27_16h14.19.410,forced_choiceRT_color,2021.2.3,Linux aarch64,59.99880002,f,2.0164,17,0,17,0,1,,,,,,,,,,,,,,,,
,,,,,,,,,,,,5eb97048fcd12c0594dbf1f9,2021-09-27_16h14.19.410,forced_choiceRT_color,2021.2.3,Linux aarch64,59.99880002,f,1.9683,18,0,18,0,1,,,,,,,,,,,,,,,,
,,,,,,,,,,,,5eb97048fcd12c0594dbf1f9,2021-09-27_16h14.19.410,forced_choiceRT_color,2021.2.3,Linux aarch64,59.99880002,f,1.9687,19,0,19,0,1,,,,,,,,,,,,,,,,
,1.38,,,,,,,,,k,purple,5eb97048fcd12c0594dbf1f9,2021-09-27_16h14.19.410,forced_choiceRT_color,2021.2.3,Linux aarch64,59.99880002,,,,,,,,1,Ontime,long,k,1,1.9567,0,0,0,3,1,,,,,
,0.41,,,,,,,,,k,purple,5eb97048fcd12c0594dbf1f9,2021-09-27_16h14.19.410,forced_choiceRT_color,2021.2.3,Linux aarch64,59.99880002,,,,,,,,1,Ontime,long,k,1,1.9968,0,1,1,3,1,,,,,
,0.29,,,,,,,,,j,red,5eb97048fcd12c0594dbf1f9,2021-09-27_16h14.19.410,forced_choiceRT_color,2021.2.3,Linux aarch64,59.99880002,,,,,,,,1,Slow,long,j,1,2.1269,0,2,2,2,1,,,,,
,1.78,,,,,,,,,f,blue,5eb97048fcd12c0594dbf1f9,2021-09-27_16h14.19.410,forced_choiceRT_color,2021.2.3,Linux aarch64,59.99880002,,,,,,,,1,Ontime,long,k,0,2.0595,0,3,3,1,1,,,,,
,0.26,,,,,,,,,k,purple,5eb97048fcd12c0594dbf1f9,2021-09-27_16h14.19.410,forced_choiceRT_color,2021.2.3,Linux aarch64,59.99880002,,,,,,,,1,Ontime,long,k,1,1.9255,1,0,4,3,1,,,,,
,0.29,,,,,,,,,j,red,5eb97048fcd12c0594dbf1f9,2021-09-27_16h14.19.410,forced_choiceRT_color,2021.2.3,Linux aarch64,59.99880002,,,,,,,,1,Ontime,long,d,0,2.0889,1,1,5,2,1,,,,,
,1.43,,,,,,,,,d,orange,5eb97048fcd12c0594dbf1f9,2021-09-27_16h14.19.410,forced_choiceRT_color,2021.2.3,Linux aarch64,59.99880002,,,,,,,,1,Ontime,long,f,0,2.0969,1,2,6,0,1,,,,,
,0.29,,,,,,,,,f,blue,5eb97048fcd12c0594dbf1f9,2021-09-27_16h14.19.410,forced_choiceRT_color,2021.2.3,Linux aarch64,59.99880002,,,,,,,,1,Ontime,long,f,1,2.0261,1,3,7,1,1,,,,,
,1.19,,,,,,,,,f,blue,5eb97048fcd12c0594dbf1f9,2021-09-27_16h14.19.410,forced_choiceRT_color,2021.2.3,Linux aarch64,59.99880002,,,,,,,,1,Slow,long,f,1,2.1276,2,0,8,1,1,,,,,
,0.22,,,,,,,,,d,orange,5eb97048fcd12c0594dbf1f9,2021-09-27_16h14.19.410,forced_choiceRT_color,2021.2.3,Linux aarch64,59.99880002,,,,,,,,1,Ontime,long,d,1,2.0128,2,1,9,0,1,,,,,
,1.36,,,,,,,,,j,red,5eb97048fcd12c0594dbf1f9,2021-09-27_16h14.19.410,forced_choiceRT_color,2021.2.3,Linux aarch64,59.99880002,,,,,,,,1,Slow,long,j,1,2.1306,2,2,10,2,1,,,,,
,1.74,,,,,,,,,f,blue,5eb97048fcd12c0594dbf1f9,2021-09-27_16h14.19.410,forced_choiceRT_color,2021.2.3,Linux aarch64,59.99880002,,,,,,,,1,Slow,long,k,0,2.2601,2,3,11,1,1,,,,,
,0.75,,,,,,,,,d,orange,5eb97048fcd12c0594dbf1f9,2021-09-27_16h14.19.410,forced_choiceRT_color,2021.2.3,Linux aarch64,59.99880002,,,,,,,,1,Ontime,long,d,1,1.9118,3,0,12,0,1,,,,,
,1.45,,,,,,,,,j,red,5eb97048fcd12c0594dbf1f9,2021-09-27_16h14.19.410,forced_choiceRT_color,2021.2.3,Linux aarch64,59.99880002,,,,,,,,1,Ontime,long,j,1,1.9591,3,1,13,2,1,,,,,
,0.64,,,,,,,,,j,red,5eb97048fcd12c0594dbf1f9,2021-09-27_16h14.19.410,forced_choiceRT_color,2021.2.3,Linux aarch64,59.99880002,,,,,,,,1,Ontime,long,j,1,2.0339,3,2,14,2,1,,,,,
,1.94,,,,,,,,,j,red,5eb97048fcd12c0594dbf1f9,2021-09-27_16h14.19.410,forced_choiceRT_color,2021.2.3,Linux aarch64,59.99880002,,,,,,,,1,Slow,long,j,1,2.3299,3,3,15,2,1,,,,,
,1.62,,,,,,,,,d,orange,5eb97048fcd12c0594dbf1f9,2021-09-27_16h14.19.410,forced_choiceRT_color,2021.2.3,Linux aarch64,59.99880002,,,,,,,,1,Fast,long,j,0,1.7317,4,0,16,0,1,,,,,
,1.78,,,,,,,,,k,purple,5eb97048fcd12c0594dbf1f9,2021-09-27_16h14.19.410,forced_choiceRT_color,2021.2.3,Linux aarch64,59.99880002,,,,,,,,1,Ontime,long,k,1,1.9819,4,1,17,3,1,,,,,
,1.39,,,,,,,,,d,orange,5eb97048fcd12c0594dbf1f9,2021-09-27_16h14.19.410,forced_choiceRT_color,2021.2.3,Linux aarch64,59.99880002,,,,,,,,1,Ontime,long,d,1,2.0794,4,2,18,0,1,,,,,
,0.84,,,,,,,,,f,blue,5eb97048fcd12c0594dbf1f9,2021-09-27_16h14.19.410,forced_choiceRT_color,2021.2.3,Linux aarch64,59.99880002,,,,,,,,1,Slow,long,f,1,2.1439,4,3,19,1,1,,,,,
,1.06,,,,,,,,,j,red,5eb97048fcd12c0594dbf1f9,2021-09-27_16h14.19.410,forced_choiceRT_color,2021.2.3,Linux aarch64,59.99880002,,,,,,,,1,Ontime,long,j,1,2.0933,5,0,20,2,1,,,,,
,1.5,,,,,,,,,k,purple,5eb97048fcd12c0594dbf1f9,2021-09-27_16h14.19.410,forced_choiceRT_color,2021.2.3,Linux aarch64,59.99880002,,,,,,,,1,Slow,long,k,1,2.1769,5,1,21,3,1,,,,,
,0.97,,,,,,,,,d,orange,5eb97048fcd12c0594dbf1f9,2021-09-27_16h14.19.410,forced_choiceRT_color,2021.2.3,Linux aarch64,59.99880002,,,,,,,,1,Ontime,long,d,1,1.9607,5,2,22,0,1,,,,,
,1.94,,,,,,,,,k,purple,5eb97048fcd12c0594dbf1f9,2021-09-27_16h14.19.410,forced_choiceRT_color,2021.2.3,Linux aarch64,59.99880002,,,,,,,,1,Slow,long,k,1,2.5612,5,3,23,3,1,,,,,
,1.02,,,,,,,,,f,blue,5eb97048fcd12c0594dbf1f9,2021-09-27_16h14.19.410,forced_choiceRT_color,2021.2.3,Linux aarch64,59.99880002,,,,,,,,1,Ontime,long,f,1,1.9087,6,0,24,1,1,,,,,
,0.75,,,,,,,,,d,orange,5eb97048fcd12c0594dbf1f9,2021-09-27_16h14.19.410,forced_choiceRT_color,2021.2.3,Linux aarch64,59.99880002,,,,,,,,1,Ontime,long,d,1,1.9946,6,1,25,0,1,,,,,
,0.5,,,,,,,,,k,purple,5eb97048fcd12c0594dbf1f9,2021-09-27_16h14.19.410,forced_choiceRT_color,2021.2.3,Linux aarch64,59.99880002,,,,,,,,1,Ontime,long,k,1,1.9932,6,2,26,3,1,,,,,
,1.9,,,,,,,,,f,blue,5eb97048fcd12c0594dbf1f9,2021-09-27_16h14.19.410,forced_choiceRT_color,2021.2.3,Linux aarch64,59.99880002,,,,,,,,1,Slow,long,f,1,2.7952,6,3,27,1,1,,,,,
,1.56,,,,,,,,,k,purple,5eb97048fcd12c0594dbf1f9,2021-09-27_16h14.19.410,forced_choiceRT_color,2021.2.3,Linux aarch64,59.99880002,,,,,,,,1,Ontime,long,k,1,2.084,7,0,28,3,1,,,,,
,1.63,,,,,,,,,d,orange,5eb97048fcd12c0594dbf1f9,2021-09-27_16h14.19.410,forced_choiceRT_color,2021.2.3,Linux aarch64,59.99880002,,,,,,,,1,Fast,long,j,0,1.8774,7,1,29,0,1,,,,,
,1.36,,,,,,,,,f,blue,5eb97048fcd12c0594dbf1f9,2021-09-27_16h14.19.410,forced_choiceRT_color,2021.2.3,Linux aarch64,59.99880002,,,,,,,,1,Fast,long,d,0,1.8946,7,2,30,1,1,,,,,
,0.71,,,,,,,,,j,red,5eb97048fcd12c0594dbf1f9,2021-09-27_16h14.19.410,forced_choiceRT_color,2021.2.3,Linux aarch64,59.99880002,,,,,,,,1,Ontime,long,j,1,1.9487,7,3,31,2,1,,,,,
,0.49,,,,,,,,,f,blue,5eb97048fcd12c0594dbf1f9,2021-09-27_16h14.19.410,forced_choiceRT_color,2021.2.3,Linux aarch64,59.99880002,,,,,,,,1,Ontime,long,f,1,2.0799,8,0,32,1,1,,,,,
,0.64,,,,,,,,,j,red,5eb97048fcd12c0594dbf1f9,2021-09-27_16h14.19.410,forced_choiceRT_color,2021.2.3,Linux aarch64,59.99880002,,,,,,,,1,Ontime,long,j,1,1.9947,8,1,33,2,1,,,,,
,1.22,,,,,,,,,k,purple,5eb97048fcd12c0594dbf1f9,2021-09-27_16h14.19.410,forced_choiceRT_color,2021.2.3,Linux aarch64,59.99880002,,,,,,,,1,Slow,long,k,1,2.159,8,2,34,3,1,,,,,
,0.37,,,,,,,,,j,red,5eb97048fcd12c0594dbf1f9,2021-09-27_16h14.19.410,forced_choiceRT_color,2021.2.3,Linux aarch64,59.99880002,,,,,,,,1,Ontime,long,j,1,1.9277,8,3,35,2,1,,,,,
,0.83,,,,,,,,,k,purple,5eb97048fcd12c0594dbf1f9,2021-09-27_16h14.19.410,forced_choiceRT_color,2021.2.3,Linux aarch64,59.99880002,,,,,,,,1,Ontime,long,k,1,2.0638,9,0,36,3,1,,,,,
,1.28,,,,,,,,,f,blue,5eb97048fcd12c0594dbf1f9,2021-09-27_16h14.19.410,forced_choiceRT_color,2021.2.3,Linux aarch64,59.99880002,,,,,,,,1,Ontime,long,f,1,1.9939,9,1,37,1,1,,,,,
,0.06,,,,,,,,,d,orange,5eb97048fcd12c0594dbf1f9,2021-09-27_16h14.19.410,forced_choiceRT_color,2021.2.3,Linux aarch64,59.99880002,,,,,,,,1,Ontime,long,d,1,2.0843,9,2,38,0,1,,,,,
,0.33,,,,,,,,,d,orange,5eb97048fcd12c0594dbf1f9,2021-09-27_16h14.19.410,forced_choiceRT_color,2021.2.3,Linux aarch64,59.99880002,,,,,,,,1,Ontime,long,d,1,1.9938,9,3,39,0,1,,,,,
,,,,,,,,,,,,5eb97048fcd12c0594dbf1f9,2021-09-27_16h14.19.410,forced_choiceRT_color,2021.2.3,Linux aarch64,59.99880002,,,,,,,,,,,,,,,,,,,0,0,0,0,1
,1.05,,,,,,,,,k,purple,5eb97048fcd12c0594dbf1f9,2021-09-27_16h14.19.410,forced_choiceRT_color,2021.2.3,Linux aarch64,59.99880002,,,,,,,,2,Ontime,long,k,1,2.0849,0,0,0,3,1,,,,,
,1.46,,,,,,,,,k,purple,5eb97048fcd12c0594dbf1f9,2021-09-27_16h14.19.410,forced_choiceRT_color,2021.2.3,Linux aarch64,59.99880002,,,,,,,,2,Ontime,long,k,1,2.0729,0,1,1,3,1,,,,,
,1.7,,,,,,,,,k,purple,5eb97048fcd12c0594dbf1f9,2021-09-27_16h14.19.410,forced_choiceRT_color,2021.2.3,Linux aarch64,59.99880002,,,,,,,,2,Ontime,long,k,1,2.0791,0,2,2,3,1,,,,,
,1.76,,,,,,,,,j,red,5eb97048fcd12c0594dbf1f9,2021-09-27_16h14.19.410,forced_choiceRT_color,2021.2.3,Linux aarch64,59.99880002,,,,,,,,2,Slow,long,j,1,2.2908,0,3,3,2,1,,,,,
,0,,,,,,,,,f,blue,5eb97048fcd12c0594dbf1f9,2021-09-27_16h14.19.410,forced_choiceRT_color,2021.2.3,Linux aarch64,59.99880002,,,,,,,,2,Ontime,long,f,1,2.0763,1,0,4,1,1,,,,,
,1.84,,,,,,,,,k,purple,5eb97048fcd12c0594dbf1f9,2021-09-27_16h14.19.410,forced_choiceRT_color,2021.2.3,Linux aarch64,59.99880002,,,,,,,,2,Slow,long,f,0,2.1598,1,1,5,3,1,,,,,
,1.64,,,,,,,,,j,red,5eb97048fcd12c0594dbf1f9,2021-09-27_16h14.19.410,forced_choiceRT_color,2021.2.3,Linux aarch64,59.99880002,,,,,,,,2,Slow,long,j,1,2.1109,1,2,6,2,1,,,,,
,0.63,,,,,,,,,f,blue,5eb97048fcd12c0594dbf1f9,2021-09-27_16h14.19.410,forced_choiceRT_color,2021.2.3,Linux aarch64,59.99880002,,,,,,,,2,Ontime,long,f,1,1.9928,1,3,7,1,1,,,,,
,1.03,,,,,,,,,j,red,5eb97048fcd12c0594dbf1f9,2021-09-27_16h14.19.410,forced_choiceRT_color,2021.2.3,Linux aarch64,59.99880002,,,,,,,,2,Ontime,long,d,0,2.0861,2,0,8,2,1,,,,,
,1.36,,,,,,,,,d,orange,5eb97048fcd12c0594dbf1f9,2021-09-27_16h14.19.410,forced_choiceRT_color,2021.2.3,Linux aarch64,59.99880002,,,,,,,,2,Ontime,long,d,1,2.0959,2,1,9,0,1,,,,,
,0.98,,,,,,,,,d,orange,5eb97048fcd12c0594dbf1f9,2021-09-27_16h14.19.410,forced_choiceRT_color,2021.2.3,Linux aarch64,59.99880002,,,,,,,,2,Ontime,long,d,1,2.0879,2,2,10,0,1,,,,,
,1.12,,,,,,,,,k,purple,5eb97048fcd12c0594dbf1f9,2021-09-27_16h14.19.410,forced_choiceRT_color,2021.2.3,Linux aarch64,59.99880002,,,,,,,,2,Fast,long,k,1,1.8607,2,3,11,3,1,,,,,
,1.55,,,,,,,,,f,blue,5eb97048fcd12c0594dbf1f9,2021-09-27_16h14.19.410,forced_choiceRT_color,2021.2.3,Linux aarch64,59.99880002,,,,,,,,2,Slow,long,j,0,2.2116,3,0,12,1,1,,,,,
,1.08,,,,,,,,,d,orange,5eb97048fcd12c0594dbf1f9,2021-09-27_16h14.19.410,forced_choiceRT_color,2021.2.3,Linux aarch64,59.99880002,,,,,,,,2,Ontime,long,d,1,2.0518,3,1,13,0,1,,,,,
,0.08,,,,,,,,,d,orange,5eb97048fcd12c0594dbf1f9,2021-09-27_16h14.19.410,forced_choiceRT_color,2021.2.3,Linux aarch64,59.99880002,,,,,,,,2,Slow,long,d,1,2.1084,3,2,14,0,1,,,,,
,0.78,,,,,,,,,j,red,5eb97048fcd12c0594dbf1f9,2021-09-27_16h14.19.410,forced_choiceRT_color,2021.2.3,Linux aarch64,59.99880002,,,,,,,,2,Ontime,long,j,1,2.0266,3,3,15,2,1,,,,,
,1.88,,,,,,,,,j,red,5eb97048fcd12c0594dbf1f9,2021-09-27_16h14.19.410,forced_choiceRT_color,2021.2.3,Linux aarch64,59.99880002,,,,,,,,2,Slow,long,k,0,2.1274,4,0,16,2,1,,,,,
,1.17,,,,,,,,,j,red,5eb97048fcd12c0594dbf1f9,2021-09-27_16h14.19.410,forced_choiceRT_color,2021.2.3,Linux aarch64,59.99880002,,,,,,,,2,Ontime,long,j,1,2.0679,4,1,17,2,1,,,,,
,0.88,,,,,,,,,k,purple,5eb97048fcd12c0594dbf1f9,2021-09-27_16h14.19.410,forced_choiceRT_color,2021.2.3,Linux aarch64,59.99880002,,,,,,,,2,Ontime,long,k,1,2.0166,4,2,18,3,1,,,,,
,0.92,,,,,,,,,d,orange,5eb97048fcd12c0594dbf1f9,2021-09-27_16h14.19.410,forced_choiceRT_color,2021.2.3,Linux aarch64,59.99880002,,,,,,,,2,Ontime,long,d,1,2.0303,4,3,19,0,1,,,,,
,0.35,,,,,,,,,f,blue,5eb97048fcd12c0594dbf1f9,2021-09-27_16h14.19.410,forced_choiceRT_color,2021.2.3,Linux aarch64,59.99880002,,,,,,,,2,Ontime,long,f,1,1.9499,5,0,20,1,1,,,,,
,0.54,,,,,,,,,j,red,5eb97048fcd12c0594dbf1f9,2021-09-27_16h14.19.410,forced_choiceRT_color,2021.2.3,Linux aarch64,59.99880002,,,,,,,,2,Ontime,long,j,1,2.0288,5,1,21,2,1,,,,,
,0.59,,,,,,,,,k,purple,5eb97048fcd12c0594dbf1f9,2021-09-27_16h14.19.410,forced_choiceRT_color,2021.2.3,Linux aarch64,59.99880002,,,,,,,,2,Ontime,long,k,1,1.9873,5,2,22,3,1,,,,,
,1.25,,,,,,,,,d,orange,5eb97048fcd12c0594dbf1f9,2021-09-27_16h14.19.410,forced_choiceRT_color,2021.2.3,Linux aarch64,59.99880002,,,,,,,,2,Slow,long,d,1,2.2137,5,3,23,0,1,,,,,
,0.13,,,,,,,,,j,red,5eb97048fcd12c0594dbf1f9,2021-09-27_16h14.19.410,forced_choiceRT_color,2021.2.3,Linux aarch64,59.99880002,,,,,,,,2,Fast,long,j,1,1.7447,6,0,24,2,1,,,,,
,1.74,,,,,,,,,f,blue,5eb97048fcd12c0594dbf1f9,2021-09-27_16h14.19.410,forced_choiceRT_color,2021.2.3,Linux aarch64,59.99880002,,,,,,,,2,Slow,long,k,0,2.2584,6,1,25,1,1,,,,,
,1.88,,,,,,,,,f,blue,5eb97048fcd12c0594dbf1f9,2021-09-27_16h14.19.410,forced_choiceRT_color,2021.2.3,Linux aarch64,59.99880002,,,,,,,,2,Slow,long,f,1,3.0508,6,2,26,1,1,,,,,
,0.02,,,,,,,,,j,red,5eb97048fcd12c0594dbf1f9,2021-09-27_16h14.19.410,forced_choiceRT_color,2021.2.3,Linux aarch64,59.99880002,,,,,,,,2,Ontime,long,j,1,1.9274,6,3,27,2,1,,,,,
,1.11,,,,,,,,,d,orange,5eb97048fcd12c0594dbf1f9,2021-09-27_16h14.19.410,forced_choiceRT_color,2021.2.3,Linux aarch64,59.99880002,,,,,,,,2,Ontime,long,d,1,2.0286,7,0,28,0,1,,,,,
,1.26,,,,,,,,,f,blue,5eb97048fcd12c0594dbf1f9,2021-09-27_16h14.19.410,forced_choiceRT_color,2021.2.3,Linux aarch64,59.99880002,,,,,,,,2,Ontime,long,f,1,2.0156,7,1,29,1,1,,,,,
,1.55,,,,,,,,,k,purple,5eb97048fcd12c0594dbf1f9,2021-09-27_16h14.19.410,forced_choiceRT_color,2021.2.3,Linux aarch64,59.99880002,,,,,,,,2,Slow,long,k,1,2.1449,7,2,30,3,1,,,,,
,0.28,,,,,,,,,k,purple,5eb97048fcd12c0594dbf1f9,2021-09-27_16h14.19.410,forced_choiceRT_color,2021.2.3,Linux aarch64,59.99880002,,,,,,,,2,Ontime,long,k,1,1.9923,7,3,31,3,1,,,,,
,1.6,,,,,,,,,k,purple,5eb97048fcd12c0594dbf1f9,2021-09-27_16h14.19.410,forced_choiceRT_color,2021.2.3,Linux aarch64,59.99880002,,,,,,,,2,Slow,long,k,1,2.2607,8,0,32,3,1,,,,,
,0.6,,,,,,,,,j,red,5eb97048fcd12c0594dbf1f9,2021-09-27_16h14.19.410,forced_choiceRT_color,2021.2.3,Linux aarch64,59.99880002,,,,,,,,2,Fast,long,j,1,1.8952,8,1,33,2,1,,,,,
,0.8,,,,,,,,,f,blue,5eb97048fcd12c0594dbf1f9,2021-09-27_16h14.19.410,forced_choiceRT_color,2021.2.3,Linux aarch64,59.99880002,,,,,,,,2,Ontime,long,f,1,2.0584,8,2,34,1,1,,,,,
,1.06,,,,,,,,,f,blue,5eb97048fcd12c0594dbf1f9,2021-09-27_16h14.19.410,forced_choiceRT_color,2021.2.3,Linux aarch64,59.99880002,,,,,,,,2,Fast,long,f,1,1.8875,8,3,35,1,1,,,,,
,1.58,,,,,,,,,f,blue,5eb97048fcd12c0594dbf1f9,2021-09-27_16h14.19.410,forced_choiceRT_color,2021.2.3,Linux aarch64,59.99880002,,,,,,,,2,Slow,long,f,1,2.1294,9,0,36,1,1,,,,,
,1.72,,,,,,,,,d,orange,5eb97048fcd12c0594dbf1f9,2021-09-27_16h14.19.410,forced_choiceRT_color,2021.2.3,Linux aarch64,59.99880002,,,,,,,,2,Slow,long,f,0,2.2495,9,1,37,0,1,,,,,
,1.52,,,,,,,,,d,orange,5eb97048fcd12c0594dbf1f9,2021-09-27_16h14.19.410,forced_choiceRT_color,2021.2.3,Linux aarch64,59.99880002,,,,,,,,2,Ontime,long,f,0,1.9789,9,2,38,0,1,,,,,
,0.82,,,,,,,,,d,orange,5eb97048fcd12c0594dbf1f9,2021-09-27_16h14.19.410,forced_choiceRT_color,2021.2.3,Linux aarch64,59.99880002,,,,,,,,2,Fast,long,f,0,1.8923,9,3,39,0,1,,,,,
,,,,,,,,,,,,5eb97048fcd12c0594dbf1f9,2021-09-27_16h14.19.410,forced_choiceRT_color,2021.2.3,Linux aarch64,59.99880002,,,,,,,,,,,,,,,,,,,1,0,1,0,1
,1.96,,,,,,,,,f,blue,5eb97048fcd12c0594dbf1f9,2021-09-27_16h14.19.410,forced_choiceRT_color,2021.2.3,Linux aarch64,59.99880002,,,,,,,,3,Slow,long,f,1,2.6402,0,0,0,1,1,,,,,
,1.71,,,,,,,,,j,red,5eb97048fcd12c0594dbf1f9,2021-09-27_16h14.19.410,forced_choiceRT_color,2021.2.3,Linux aarch64,59.99880002,,,,,,,,3,Slow,long,j,1,2.1428,0,1,1,2,1,,,,,
,0.08,,,,,,,,,j,red,5eb97048fcd12c0594dbf1f9,2021-09-27_16h14.19.410,forced_choiceRT_color,2021.2.3,Linux aarch64,59.99880002,,,,,,,,3,Ontime,long,j,1,1.9997,0,2,2,2,1,,,,,
,1.95,,,,,,,,,j,red,5eb97048fcd12c0594dbf1f9,2021-09-27_16h14.19.410,forced_choiceRT_color,2021.2.3,Linux aarch64,59.99880002,,,,,,,,3,Slow,long,k,0,2.1461,0,3,3,2,1,,,,,
,1.75,,,,,,,,,d,orange,5eb97048fcd12c0594dbf1f9,2021-09-27_16h14.19.410,forced_choiceRT_color,2021.2.3,Linux aarch64,59.99880002,,,,,,,,3,Ontime,long,j,0,1.9425,1,0,4,0,1,,,,,
,0.89,,,,,,,,,d,orange,5eb97048fcd12c0594dbf1f9,2021-09-27_16h14.19.410,forced_choiceRT_color,2021.2.3,Linux aarch64,59.99880002,,,,,,,,3,Fast,long,d,1,1.8344,1,1,5,0,1,,,,,
,0.2,,,,,,,,,j,red,5eb97048fcd12c0594dbf1f9,2021-09-27_16h14.19.410,forced_choiceRT_color,2021.2.3,Linux aarch64,59.99880002,,,,,,,,3,Ontime,long,j,1,1.9958,1,2,6,2,1,,,,,
,0.23,,,,,,,,,j,red,5eb97048fcd12c0594dbf1f9,2021-09-27_16h14.19.410,forced_choiceRT_color,2021.2.3,Linux aarch64,59.99880002,,,,,,,,3,Ontime,long,j,1,1.9779,1,3,7,2,1,,,,,
,1,,,,,,,,,k,purple,5eb97048fcd12c0594dbf1f9,2021-09-27_16h14.19.410,forced_choiceRT_color,2021.2.3,Linux aarch64,59.99880002,,,,,,,,3,Slow,long,k,1,2.1125,2,0,8,3,1,,,,,
,0,,,,,,,,,j,red,5eb97048fcd12c0594dbf1f9,2021-09-27_16h14.19.410,forced_choiceRT_color,2021.2.3,Linux aarch64,59.99880002,,,,,,,,3,Ontime,long,j,1,1.921,2,1,9,2,1,,,,,
,1.61,,,,,,,,,j,red,5eb97048fcd12c0594dbf1f9,2021-09-27_16h14.19.410,forced_choiceRT_color,2021.2.3,Linux aarch64,59.99880002,,,,,,,,3,Slow,long,j,1,2.1494,2,2,10,2,1,,,,,
,1.62,,,,,,,,,j,red,5eb97048fcd12c0594dbf1f9,2021-09-27_16h14.19.410,forced_choiceRT_color,2021.2.3,Linux aarch64,59.99880002,,,,,,,,3,Ontime,long,j,1,2.0466,2,3,11,2,1,,,,,
,1.7,,,,,,,,,d,orange,5eb97048fcd12c0594dbf1f9,2021-09-27_16h14.19.410,forced_choiceRT_color,2021.2.3,Linux aarch64,59.99880002,,,,,,,,3,Slow,long,d,1,2.108,3,0,12,0,1,,,,,
,1.07,,,,,,,,,d,orange,5eb97048fcd12c0594dbf1f9,2021-09-27_16h14.19.410,forced_choiceRT_color,2021.2.3,Linux aarch64,59.99880002,,,,,,,,3,Fast,long,d,1,1.82,3,1,13,0,1,,,,,
,1.02,,,,,,,,,k,purple,5eb97048fcd12c0594dbf1f9,2021-09-27_16h14.19.410,forced_choiceRT_color,2021.2.3,Linux aarch64,59.99880002,,,,,,,,3,Ontime,long,k,1,2.0944,3,2,14,3,1,,,,,
,1.33,,,,,,,,,f,blue,5eb97048fcd12c0594dbf1f9,2021-09-27_16h14.19.410,forced_choiceRT_color,2021.2.3,Linux aarch64,59.99880002,,,,,,,,3,Ontime,long,f,1,2.0326,3,3,15,1,1,,,,,
,1.98,,,,,,,,,d,orange,5eb97048fcd12c0594dbf1f9,2021-09-27_16h14.19.410,forced_choiceRT_color,2021.2.3,Linux aarch64,59.99880002,,,,,,,,3,Slow,long,k,0,2.2611,4,0,16,0,1,,,,,
,0.68,,,,,,,,,d,orange,5eb97048fcd12c0594dbf1f9,2021-09-27_16h14.19.410,forced_choiceRT_color,2021.2.3,Linux aarch64,59.99880002,,,,,,,,3,Fast,long,d,1,1.879,4,1,17,0,1,,,,,
,1.12,,,,,,,,,k,purple,5eb97048fcd12c0594dbf1f9,2021-09-27_16h14.19.410,forced_choiceRT_color,2021.2.3,Linux aarch64,59.99880002,,,,,,,,3,Ontime,long,k,1,2.0971,4,2,18,3,1,,,,,
,0.68,,,,,,,,,d,orange,5eb97048fcd12c0594dbf1f9,2021-09-27_16h14.19.410,forced_choiceRT_color,2021.2.3,Linux aarch64,59.99880002,,,,,,,,3,Ontime,long,d,1,2.0611,4,3,19,0,1,,,,,
,0.42,,,,,,,,,f,blue,5eb97048fcd12c0594dbf1f9,2021-09-27_16h14.19.410,forced_choiceRT_color,2021.2.3,Linux aarch64,59.99880002,,,,,,,,3,Fast,long,f,1,1.7482,5,0,20,1,1,,,,,
,1.98,,,,,,,,,d,orange,5eb97048fcd12c0594dbf1f9,2021-09-27_16h14.19.410,forced_choiceRT_color,2021.2.3,Linux aarch64,59.99880002,,,,,,,,3,Slow,long,j,0,2.6344,5,1,21,0,1,,,,,
,0.43,,,,,,,,,f,blue,5eb97048fcd12c0594dbf1f9,2021-09-27_16h14.19.410,forced_choiceRT_color,2021.2.3,Linux aarch64,59.99880002,,,,,,,,3,Ontime,long,f,1,2.0807,5,2,22,1,1,,,,,
,0.98,,,,,,,,,f,blue,5eb97048fcd12c0594dbf1f9,2021-09-27_16h14.19.410,forced_choiceRT_color,2021.2.3,Linux aarch64,59.99880002,,,,,,,,3,Fast,long,f,1,1.8434,5,3,23,1,1,,,,,
,1.06,,,,,,,,,k,purple,5eb97048fcd12c0594dbf1f9,2021-09-27_16h14.19.410,forced_choiceRT_color,2021.2.3,Linux aarch64,59.99880002,,,,,,,,3,Ontime,long,k,1,2.0941,6,0,24,3,1,,,,,
,1.06,,,,,,,,,k,purple,5eb97048fcd12c0594dbf1f9,2021-09-27_16h14.19.410,forced_choiceRT_color,2021.2.3,Linux aarch64,59.99880002,,,,,,,,3,Ontime,long,k,1,2.0787,6,1,25,3,1,,,,,
,0.15,,,,,,,,,f,blue,5eb97048fcd12c0594dbf1f9,2021-09-27_16h14.19.410,forced_choiceRT_color,2021.2.3,Linux aarch64,59.99880002,,,,,,,,3,Ontime,long,f,1,2.0111,6,2,26,1,1,,,,,
,1.62,,,,,,,,,f,blue,5eb97048fcd12c0594dbf1f9,2021-09-27_16h14.19.410,forced_choiceRT_color,2021.2.3,Linux aarch64,59.99880002,,,,,,,,3,Slow,long,j,0,2.114,6,3,27,1,1,,,,,
,1.88,,,,,,,,,f,blue,5eb97048fcd12c0594dbf1f9,2021-09-27_16h14.19.410,forced_choiceRT_color,2021.2.3,Linux aarch64,59.99880002,,,,,,,,3,Ontime,long,f,1,2.0599,7,0,28,1,1,,,,,
,1.54,,,,,,,,,k,purple,5eb97048fcd12c0594dbf1f9,2021-09-27_16h14.19.410,forced_choiceRT_color,2021.2.3,Linux aarch64,59.99880002,,,,,,,,3,Ontime,long,j,0,2.0443,7,1,29,3,1,,,,,
,0.13,,,,,,,,,d,orange,5eb97048fcd12c0594dbf1f9,2021-09-27_16h14.19.410,forced_choiceRT_color,2021.2.3,Linux aarch64,59.99880002,,,,,,,,3,Ontime,long,d,1,1.9486,7,2,30,0,1,,,,,
,1.84,,,,,,,,,k,purple,5eb97048fcd12c0594dbf1f9,2021-09-27_16h14.19.410,forced_choiceRT_color,2021.2.3,Linux aarch64,59.99880002,,,,,,,,3,Ontime,long,k,1,2.0004,7,3,31,3,1,,,,,
,1.14,,,,,,,,,f,blue,5eb97048fcd12c0594dbf1f9,2021-09-27_16h14.19.410,forced_choiceRT_color,2021.2.3,Linux aarch64,59.99880002,,,,,,,,3,Ontime,long,f,1,2.028,8,0,32,1,1,,,,,
,1.84,,,,,,,,,k,purple,5eb97048fcd12c0594dbf1f9,2021-09-27_16h14.19.410,forced_choiceRT_color,2021.2.3,Linux aarch64,59.99880002,,,,,,,,3,Slow,long,d,0,2.1938,8,1,33,3,1,,,,,
,1.8,,,,,,,,,d,orange,5eb97048fcd12c0594dbf1f9,2021-09-27_16h14.19.410,forced_choiceRT_color,2021.2.3,Linux aarch64,59.99880002,,,,,,,,3,Ontime,long,k,0,1.9607,8,2,34,0,1,,,,,
,0.11,,,,,,,,,k,purple,5eb97048fcd12c0594dbf1f9,2021-09-27_16h14.19.410,forced_choiceRT_color,2021.2.3,Linux aarch64,59.99880002,,,,,,,,3,Ontime,long,k,1,2.0274,8,3,35,3,1,,,,,
,0.26,,,,,,,,,j,red,5eb97048fcd12c0594dbf1f9,2021-09-27_16h14.19.410,forced_choiceRT_color,2021.2.3,Linux aarch64,59.99880002,,,,,,,,3,Ontime,long,j,1,2.0223,9,0,36,2,1,,,,,
,0.82,,,,,,,,,k,purple,5eb97048fcd12c0594dbf1f9,2021-09-27_16h14.19.410,forced_choiceRT_color,2021.2.3,Linux aarch64,59.99880002,,,,,,,,3,Slow,long,k,1,2.3796,9,1,37,3,1,,,,,
,1.54,,,,,,,,,f,blue,5eb97048fcd12c0594dbf1f9,2021-09-27_16h14.19.410,forced_choiceRT_color,2021.2.3,Linux aarch64,59.99880002,,,,,,,,3,Ontime,long,f,1,1.9796,9,2,38,1,1,,,,,
,0.25,,,,,,,,,j,red,5eb97048fcd12c0594dbf1f9,2021-09-27_16h14.19.410,forced_choiceRT_color,2021.2.3,Linux aarch64,59.99880002,,,,,,,,3,Slow,long,j,1,2.1111,9,3,39,2,1,,,,,
,,,,,,,,,,,,5eb97048fcd12c0594dbf1f9,2021-09-27_16h14.19.410,forced_choiceRT_color,2021.2.3,Linux aarch64,59.99880002,,,,,,,,,,,,,,,,,,,2,0,2,0,1
,0.11,,,,,,,,,k,purple,5eb97048fcd12c0594dbf1f9,2021-09-27_16h14.19.410,forced_choiceRT_color,2021.2.3,Linux aarch64,59.99880002,,,,,,,,4,Slow,long,k,1,2.1237,0,0,0,3,1,,,,,
,0.39,,,,,,,,,k,purple,5eb97048fcd12c0594dbf1f9,2021-09-27_16h14.19.410,forced_choiceRT_color,2021.2.3,Linux aarch64,59.99880002,,,,,,,,4,Ontime,long,k,1,2.0352,0,1,1,3,1,,,,,
,1.43,,,,,,,,,j,red,5eb97048fcd12c0594dbf1f9,2021-09-27_16h14.19.410,forced_choiceRT_color,2021.2.3,Linux aarch64,59.99880002,,,,,,,,4,Slow,long,k,0,2.1524,0,2,2,2,1,,,,,
,1.92,,,,,,,,,f,blue,5eb97048fcd12c0594dbf1f9,2021-09-27_16h14.19.410,forced_choiceRT_color,2021.2.3,Linux aarch64,59.99880002,,,,,,,,4,Slow,long,k,0,2.8317,0,3,3,1,1,,,,,
,1.35,,,,,,,,,f,blue,5eb97048fcd12c0594dbf1f9,2021-09-27_16h14.19.410,forced_choiceRT_color,2021.2.3,Linux aarch64,59.99880002,,,,,,,,4,Slow,long,f,1,2.1439,1,0,4,1,1,,,,,
,1.32,,,,,,,,,d,orange,5eb97048fcd12c0594dbf1f9,2021-09-27_16h14.19.410,forced_choiceRT_color,2021.2.3,Linux aarch64,59.99880002,,,,,,,,4,Slow,long,j,0,2.193,1,1,5,0,1,,,,,
,0.89,,,,,,,,,d,orange,5eb97048fcd12c0594dbf1f9,2021-09-27_16h14.19.410,forced_choiceRT_color,2021.2.3,Linux aarch64,59.99880002,,,,,,,,4,Fast,long,d,1,1.8279,1,2,6,0,1,,,,,
,0.8,,,,,,,,,d,orange,5eb97048fcd12c0594dbf1f9,2021-09-27_16h14.19.410,forced_choiceRT_color,2021.2.3,Linux aarch64,59.99880002,,,,,,,,4,Ontime,long,d,1,2.0146,1,3,7,0,1,,,,,
,1.23,,,,,,,,,d,orange,5eb97048fcd12c0594dbf1f9,2021-09-27_16h14.19.410,forced_choiceRT_color,2021.2.3,Linux aarch64,59.99880002,,,,,,,,4,Ontime,long,d,1,2.0904,2,0,8,0,1,,,,,
,0.54,,,,,,,,,f,blue,5eb97048fcd12c0594dbf1f9,2021-09-27_16h14.19.410,forced_choiceRT_color,2021.2.3,Linux aarch64,59.99880002,,,,,,,,4,Slow,long,f,1,2.2602,2,1,9,1,1,,,,,
,0.5,,,,,,,,,j,red,5eb97048fcd12c0594dbf1f9,2021-09-27_16h14.19.410,forced_choiceRT_color,2021.2.3,Linux aarch64,59.99880002,,,,,,,,4,Ontime,long,j,1,2.0474,2,2,10,2,1,,,,,
,1.17,,,,,,,,,f,blue,5eb97048fcd12c0594dbf1f9,2021-09-27_16h14.19.410,forced_choiceRT_color,2021.2.3,Linux aarch64,59.99880002,,,,,,,,4,Slow,long,f,1,2.1203,2,3,11,1,1,,,,,
,0.72,,,,,,,,,f,blue,5eb97048fcd12c0594dbf1f9,2021-09-27_16h14.19.410,forced_choiceRT_color,2021.2.3,Linux aarch64,59.99880002,,,,,,,,4,Ontime,long,f,1,1.9797,3,0,12,1,1,,,,,
,1.55,,,,,,,,,k,purple,5eb97048fcd12c0594dbf1f9,2021-09-27_16h14.19.410,forced_choiceRT_color,2021.2.3,Linux aarch64,59.99880002,,,,,,,,4,Slow,long,k,1,2.1763,3,1,13,3,1,,,,,
,0.22,,,,,,,,,f,blue,5eb97048fcd12c0594dbf1f9,2021-09-27_16h14.19.410,forced_choiceRT_color,2021.2.3,Linux aarch64,59.99880002,,,,,,,,4,Ontime,long,f,1,1.9565,3,2,14,1,1,,,,,
,0.97,,,,,,,,,d,orange,5eb97048fcd12c0594dbf1f9,2021-09-27_16h14.19.410,forced_choiceRT_color,2021.2.3,Linux aarch64,59.99880002,,,,,,,,4,Ontime,long,d,1,2.0997,3,3,15,0,1,,,,,
,1.71,,,,,,,,,j,red,5eb97048fcd12c0594dbf1f9,2021-09-27_16h14.19.410,forced_choiceRT_color,2021.2.3,Linux aarch64,59.99880002,,,,,,,,4,Slow,long,j,1,2.1599,4,0,16,2,1,,,,,
,0.12,,,,,,,,,k,purple,5eb97048fcd12c0594dbf1f9,2021-09-27_16h14.19.410,forced_choiceRT_color,2021.2.3,Linux aarch64,59.99880002,,,,,,,,4,Ontime,long,k,1,1.9635,4,1,17,3,1,,,,,
,0.29,,,,,,,,,j,red,5eb97048fcd12c0594dbf1f9,2021-09-27_16h14.19.410,forced_choiceRT_color,2021.2.3,Linux aarch64,59.99880002,,,,,,,,4,Fast,long,j,1,1.7934,4,2,18,2,1,,,,,
,1.1,,,,,,,,,j,red,5eb97048fcd12c0594dbf1f9,2021-09-27_16h14.19.410,forced_choiceRT_color,2021.2.3,Linux aarch64,59.99880002,,,,,,,,4,Ontime,long,j,1,2.0604,4,3,19,2,1,,,,,
,0.31,,,,,,,,,d,orange,5eb97048fcd12c0594dbf1f9,2021-09-27_16h14.19.410,forced_choiceRT_color,2021.2.3,Linux aarch64,59.99880002,,,,,,,,4,Ontime,long,d,1,2.047,5,0,20,0,1,,,,,
,0.31,,,,,,,,,k,purple,5eb97048fcd12c0594dbf1f9,2021-09-27_16h14.19.410,forced_choiceRT_color,2021.2.3,Linux aarch64,59.99880002,,,,,,,,4,Ontime,long,k,1,2.027,5,1,21,3,1,,,,,
,0.87,,,,,,,,,d,orange,5eb97048fcd12c0594dbf1f9,2021-09-27_16h14.19.410,forced_choiceRT_color,2021.2.3,Linux aarch64,59.99880002,,,,,,,,4,Ontime,long,d,1,1.9538,5,2,22,0,1,,,,,
,1.12,,,,,,,,,f,blue,5eb97048fcd12c0594dbf1f9,2021-09-27_16h14.19.410,forced_choiceRT_color,2021.2.3,Linux aarch64,59.99880002,,,,,,,,4,Ontime,long,f,1,1.9429,5,3,23,1,1,,,,,
,1.1,,,,,,,,,k,purple,5eb97048fcd12c0594dbf1f9,2021-09-27_16h14.19.410,forced_choiceRT_color,2021.2.3,Linux aarch64,59.99880002,,,,,,,,4,Ontime,long,k,1,1.9613,6,0,24,3,1,,,,,
,1.07,,,,,,,,,k,purple,5eb97048fcd12c0594dbf1f9,2021-09-27_16h14.19.410,forced_choiceRT_color,2021.2.3,Linux aarch64,59.99880002,,,,,,,,4,Fast,long,k,1,1.814,6,1,25,3,1,,,,,
,1.16,,,,,,,,,j,red,5eb97048fcd12c0594dbf1f9,2021-09-27_16h14.19.410,forced_choiceRT_color,2021.2.3,Linux aarch64,59.99880002,,,,,,,,4,Slow,long,j,1,2.1243,6,2,26,2,1,,,,,
,1.5,,,,,,,,,j,red,5eb97048fcd12c0594dbf1f9,2021-09-27_16h14.19.410,forced_choiceRT_color,2021.2.3,Linux aarch64,59.99880002,,,,,,,,4,Ontime,long,j,1,2.0777,6,3,27,2,1,,,,,
,1.29,,,,,,,,,f,blue,5eb97048fcd12c0594dbf1f9,2021-09-27_16h14.19.410,forced_choiceRT_color,2021.2.3,Linux aarch64,59.99880002,,,,,,,,4,Ontime,long,k,0,1.9324,7,0,28,1,1,,,,,
,1.87,,,,,,,,,k,purple,5eb97048fcd12c0594dbf1f9,2021-09-27_16h14.19.410,forced_choiceRT_color,2021.2.3,Linux aarch64,59.99880002,,,,,,,,4,Ontime,long,f,0,2.0663,7,1,29,3,1,,,,,
,1.44,,,,,,,,,k,purple,5eb97048fcd12c0594dbf1f9,2021-09-27_16h14.19.410,forced_choiceRT_color,2021.2.3,Linux aarch64,59.99880002,,,,,,,,4,Slow,long,k,1,2.1123,7,2,30,3,1,,,,,
,1.17,,,,,,,,,k,purple,5eb97048fcd12c0594dbf1f9,2021-09-27_16h14.19.410,forced_choiceRT_color,2021.2.3,Linux aarch64,59.99880002,,,,,,,,4,Slow,long,k,1,2.1106,7,3,31,3,1,,,,,
,1.37,,,,,,,,,j,red,5eb97048fcd12c0594dbf1f9,2021-09-27_16h14.19.410,forced_choiceRT_color,2021.2.3,Linux aarch64,59.99880002,,,,,,,,4,Ontime,long,f,0,1.9118,8,0,32,2,1,,,,,
,1.25,,,,,,,,,d,orange,5eb97048fcd12c0594dbf1f9,2021-09-27_16h14.19.410,forced_choiceRT_color,2021.2.3,Linux aarch64,59.99880002,,,,,,,,4,Slow,long,d,1,2.1968,8,1,33,0,1,,,,,
,0.2,,,,,,,,,f,blue,5eb97048fcd12c0594dbf1f9,2021-09-27_16h14.19.410,forced_choiceRT_color,2021.2.3,Linux aarch64,59.99880002,,,,,,,,4,Ontime,long,f,1,2.046,8,2,34,1,1,,,,,
,1.85,,,,,,,,,d,orange,5eb97048fcd12c0594dbf1f9,2021-09-27_16h14.19.410,forced_choiceRT_color,2021.2.3,Linux aarch64,59.99880002,,,,,,,,4,Slow,long,j,0,2.3099,8,3,35,0,1,,,,,
,1.21,,,,,,,,,j,red,5eb97048fcd12c0594dbf1f9,2021-09-27_16h14.19.410,forced_choiceRT_color,2021.2.3,Linux aarch64,59.99880002,,,,,,,,4,Ontime,long,d,0,2.0145,9,0,36,2,1,,,,,
,0.11,,,,,,,,,d,orange,5eb97048fcd12c0594dbf1f9,2021-09-27_16h14.19.410,forced_choiceRT_color,2021.2.3,Linux aarch64,59.99880002,,,,,,,,4,Ontime,long,d,1,2.0264,9,1,37,0,1,,,,,
,0.35,,,,,,,,,f,blue,5eb97048fcd12c0594dbf1f9,2021-09-27_16h14.19.410,forced_choiceRT_color,2021.2.3,Linux aarch64,59.99880002,,,,,,,,4,Ontime,long,f,1,2.0932,9,2,38,1,1,,,,,
,0.98,,,,,,,,,j,red,5eb97048fcd12c0594dbf1f9,2021-09-27_16h14.19.410,forced_choiceRT_color,2021.2.3,Linux aarch64,59.99880002,,,,,,,,4,Ontime,long,j,1,2.0853,9,3,39,2,1,,,,,
,,,,,,,,,,,,5eb97048fcd12c0594dbf1f9,2021-09-27_16h14.19.410,forced_choiceRT_color,2021.2.3,Linux aarch64,59.99880002,,,,,,,,,,,,,,,,,,,3,0,3,0,1
,0.45,,,,,,,,,k,purple,5eb97048fcd12c0594dbf1f9,2021-09-27_16h14.19.410,forced_choiceRT_color,2021.2.3,Linux aarch64,59.99880002,,,,,,,,5,Ontime,long,k,1,2.0615,0,0,0,3,1,,,,,
,1.11,,,,,,,,,j,red,5eb97048fcd12c0594dbf1f9,2021-09-27_16h14.19.410,forced_choiceRT_color,2021.2.3,Linux aarch64,59.99880002,,,,,,,,5,Slow,long,j,1,2.1468,0,1,1,2,1,,,,,
,0.04,,,,,,,,,f,blue,5eb97048fcd12c0594dbf1f9,2021-09-27_16h14.19.410,forced_choiceRT_color,2021.2.3,Linux aarch64,59.99880002,,,,,,,,5,Ontime,long,f,1,2.0411,0,2,2,1,1,,,,,
,0.03,,,,,,,,,d,orange,5eb97048fcd12c0594dbf1f9,2021-09-27_16h14.19.410,forced_choiceRT_color,2021.2.3,Linux aarch64,59.99880002,,,,,,,,5,Ontime,long,d,1,2.0739,0,3,3,0,1,,,,,
,0.94,,,,,,,,,f,blue,5eb97048fcd12c0594dbf1f9,2021-09-27_16h14.19.410,forced_choiceRT_color,2021.2.3,Linux aarch64,59.99880002,,,,,,,,5,Ontime,long,f,1,2.0478,1,0,4,1,1,,,,,
,0.1,,,,,,,,,d,orange,5eb97048fcd12c0594dbf1f9,2021-09-27_16h14.19.410,forced_choiceRT_color,2021.2.3,Linux aarch64,59.99880002,,,,,,,,5,Ontime,long,d,1,2.0106,1,1,5,0,1,,,,,
,0.68,,,,,,,,,k,purple,5eb97048fcd12c0594dbf1f9,2021-09-27_16h14.19.410,forced_choiceRT_color,2021.2.3,Linux aarch64,59.99880002,,,,,,,,5,Ontime,long,k,1,2.0585,1,2,6,3,1,,,,,
,1.73,,,,,,,,,j,red,5eb97048fcd12c0594dbf1f9,2021-09-27_16h14.19.410,forced_choiceRT_color,2021.2.3,Linux aarch64,59.99880002,,,,,,,,5,Slow,long,j,1,2.1998,1,3,7,2,1,,,,,
,0.56,,,,,,,,,j,red,5eb97048fcd12c0594dbf1f9,2021-09-27_16h14.19.410,forced_choiceRT_color,2021.2.3,Linux aarch64,59.99880002,,,,,,,,5,Ontime,long,j,1,2.0463,2,0,8,2,1,,,,,
,1,,,,,,,,,f,blue,5eb97048fcd12c0594dbf1f9,2021-09-27_16h14.19.410,forced_choiceRT_color,2021.2.3,Linux aarch64,59.99880002,,,,,,,,5,Ontime,long,f,1,2.0667,2,1,9,1,1,,,,,
,1.99,,,,,,,,,k,purple,5eb97048fcd12c0594dbf1f9,2021-09-27_16h14.19.410,forced_choiceRT_color,2021.2.3,Linux aarch64,59.99880002,,,,,,,,5,Slow,long,k,1,2.3279,2,2,10,3,1,,,,,
,1.53,,,,,,,,,j,red,5eb97048fcd12c0594dbf1f9,2021-09-27_16h14.19.410,forced_choiceRT_color,2021.2.3,Linux aarch64,59.99880002,,,,,,,,5,Ontime,long,k,0,2.0128,2,3,11,2,1,,,,,
,1.04,,,,,,,,,k,purple,5eb97048fcd12c0594dbf1f9,2021-09-27_16h14.19.410,forced_choiceRT_color,2021.2.3,Linux aarch64,59.99880002,,,,,,,,5,Fast,long,k,1,1.7442,3,0,12,3,1,,,,,
,1.57,,,,,,,,,f,blue,5eb97048fcd12c0594dbf1f9,2021-09-27_16h14.19.410,forced_choiceRT_color,2021.2.3,Linux aarch64,59.99880002,,,,,,,,5,Ontime,long,f,1,2.0414,3,1,13,1,1,,,,,
,1.88,,,,,,,,,k,purple,5eb97048fcd12c0594dbf1f9,2021-09-27_16h14.19.410,forced_choiceRT_color,2021.2.3,Linux aarch64,59.99880002,,,,,,,,5,Fast,long,k,1,1.8449,3,2,14,3,1,,,,,
,1.49,,,,,,,,,f,blue,5eb97048fcd12c0594dbf1f9,2021-09-27_16h14.19.410,forced_choiceRT_color,2021.2.3,Linux aarch64,59.99880002,,,,,,,,5,Slow,long,f,1,2.2163,3,3,15,1,1,,,,,
,0.24,,,,,,,,,k,purple,5eb97048fcd12c0594dbf1f9,2021-09-27_16h14.19.410,forced_choiceRT_color,2021.2.3,Linux aarch64,59.99880002,,,,,,,,5,Ontime,long,k,1,2.0175,4,0,16,3,1,,,,,
,0.65,,,,,,,,,d,orange,5eb97048fcd12c0594dbf1f9,2021-09-27_16h14.19.410,forced_choiceRT_color,2021.2.3,Linux aarch64,59.99880002,,,,,,,,5,Ontime,long,d,1,2.0269,4,1,17,0,1,,,,,
,0.11,,,,,,,,,j,red,5eb97048fcd12c0594dbf1f9,2021-09-27_16h14.19.410,forced_choiceRT_color,2021.2.3,Linux aarch64,59.99880002,,,,,,,,5,Ontime,long,j,1,2.031,4,2,18,2,1,,,,,
,1.8,,,,,,,,,k,purple,5eb97048fcd12c0594dbf1f9,2021-09-27_16h14.19.410,forced_choiceRT_color,2021.2.3,Linux aarch64,59.99880002,,,,,,,,5,Ontime,long,k,1,2.0411,4,3,19,3,1,,,,,
,0.15,,,,,,,,,d,orange,5eb97048fcd12c0594dbf1f9,2021-09-27_16h14.19.410,forced_choiceRT_color,2021.2.3,Linux aarch64,59.99880002,,,,,,,,5,Ontime,long,d,1,1.9944,5,0,20,0,1,,,,,
,0.77,,,,,,,,,f,blue,5eb97048fcd12c0594dbf1f9,2021-09-27_16h14.19.410,forced_choiceRT_color,2021.2.3,Linux aarch64,59.99880002,,,,,,,,5,Ontime,long,f,1,1.9984,5,1,21,1,1,,,,,
,1.95,,,,,,,,,j,red,5eb97048fcd12c0594dbf1f9,2021-09-27_16h14.19.410,forced_choiceRT_color,2021.2.3,Linux aarch64,59.99880002,,,,,,,,5,Slow,long,k,0,2.1294,5,2,22,2,1,,,,,
,1.43,,,,,,,,,k,purple,5eb97048fcd12c0594dbf1f9,2021-09-27_16h14.19.410,forced_choiceRT_color,2021.2.3,Linux aarch64,59.99880002,,,,,,,,5,Ontime,long,k,1,2.0598,5,3,23,3,1,,,,,
,1.56,,,,,,,,,k,purple,5eb97048fcd12c0594dbf1f9,2021-09-27_16h14.19.410,forced_choiceRT_color,2021.2.3,Linux aarch64,59.99880002,,,,,,,,5,Ontime,long,k,1,2.0481,6,0,24,3,1,,,,,
,0.16,,,,,,,,,f,blue,5eb97048fcd12c0594dbf1f9,2021-09-27_16h14.19.410,forced_choiceRT_color,2021.2.3,Linux aarch64,59.99880002,,,,,,,,5,Ontime,long,f,1,2.0104,6,1,25,1,1,,,,,
,0.11,,,,,,,,,f,blue,5eb97048fcd12c0594dbf1f9,2021-09-27_16h14.19.410,forced_choiceRT_color,2021.2.3,Linux aarch64,59.99880002,,,,,,,,5,Ontime,long,f,1,2.058,6,2,26,1,1,,,,,
,0.73,,,,,,,,,j,red,5eb97048fcd12c0594dbf1f9,2021-09-27_16h14.19.410,forced_choiceRT_color,2021.2.3,Linux aarch64,59.99880002,,,,,,,,5,Ontime,long,j,1,2.0845,6,3,27,2,1,,,,,
,0.69,,,,,,,,,d,orange,5eb97048fcd12c0594dbf1f9,2021-09-27_16h14.19.410,forced_choiceRT_color,2021.2.3,Linux aarch64,59.99880002,,,,,,,,5,Ontime,long,d,1,2.0438,7,0,28,0,1,,,,,
,1.81,,,,,,,,,d,orange,5eb97048fcd12c0594dbf1f9,2021-09-27_16h14.19.410,forced_choiceRT_color,2021.2.3,Linux aarch64,59.99880002,,,,,,,,5,Slow,long,d,1,2.2936,7,1,29,0,1,,,,,
,1,,,,,,,,,j,red,5eb97048fcd12c0594dbf1f9,2021-09-27_16h14.19.410,forced_choiceRT_color,2021.2.3,Linux aarch64,59.99880002,,,,,,,,5,Ontime,long,j,1,2.0444,7,2,30,2,1,,,,,
,0.36,,,,,,,,,d,orange,5eb97048fcd12c0594dbf1f9,2021-09-27_16h14.19.410,forced_choiceRT_color,2021.2.3,Linux aarch64,59.99880002,,,,,,,,5,Ontime,long,d,1,2.0431,7,3,31,0,1,,,,,
,1.33,,,,,,,,,j,red,5eb97048fcd12c0594dbf1f9,2021-09-27_16h14.19.410,forced_choiceRT_color,2021.2.3,Linux aarch64,59.99880002,,,,,,,,5,Ontime,long,j,1,1.983,8,0,32,2,1,,,,,
,0.42,,,,,,,,,f,blue,5eb97048fcd12c0594dbf1f9,2021-09-27_16h14.19.410,forced_choiceRT_color,2021.2.3,Linux aarch64,59.99880002,,,,,,,,5,Ontime,long,f,1,1.9599,8,1,33,1,1,,,,,
,0.15,,,,,,,,,d,orange,5eb97048fcd12c0594dbf1f9,2021-09-27_16h14.19.410,forced_choiceRT_color,2021.2.3,Linux aarch64,59.99880002,,,,,,,,5,Ontime,long,d,1,2.027,8,2,34,0,1,,,,,
,0.19,,,,,,,,,k,purple,5eb97048fcd12c0594dbf1f9,2021-09-27_16h14.19.410,forced_choiceRT_color,2021.2.3,Linux aarch64,59.99880002,,,,,,,,5,Ontime,long,k,1,2.0502,8,3,35,3,1,,,,,
,0.53,,,,,,,,,j,red,5eb97048fcd12c0594dbf1f9,2021-09-27_16h14.19.410,forced_choiceRT_color,2021.2.3,Linux aarch64,59.99880002,,,,,,,,5,Ontime,long,j,1,2.0623,9,0,36,2,1,,,,,
,0.09,,,,,,,,,f,blue,5eb97048fcd12c0594dbf1f9,2021-09-27_16h14.19.410,forced_choiceRT_color,2021.2.3,Linux aarch64,59.99880002,,,,,,,,5,Ontime,long,f,1,2.0898,9,1,37,1,1,,,,,
,0.37,,,,,,,,,d,orange,5eb97048fcd12c0594dbf1f9,2021-09-27_16h14.19.410,forced_choiceRT_color,2021.2.3,Linux aarch64,59.99880002,,,,,,,,5,Ontime,long,d,1,2.0418,9,2,38,0,1,,,,,
,1.49,,,,,,,,,d,orange,5eb97048fcd12c0594dbf1f9,2021-09-27_16h14.19.410,forced_choiceRT_color,2021.2.3,Linux aarch64,59.99880002,,,,,,,,5,Ontime,long,d,1,2.0821,9,3,39,0,1,,,,,
,,,,,,,,,,,,5eb97048fcd12c0594dbf1f9,2021-09-27_16h14.19.410,forced_choiceRT_color,2021.2.3,Linux aarch64,59.99880002,,,,,,,,,,,,,,,,,,,4,0,4,0,1
,0.66,,,,,,,,,j,red,5eb97048fcd12c0594dbf1f9,2021-09-27_16h14.19.410,forced_choiceRT_color,2021.2.3,Linux aarch64,59.99880002,,,,,,,,6,Ontime,long,j,1,2.069,0,0,0,2,1,,,,,
,1.78,,,,,,,,,k,purple,5eb97048fcd12c0594dbf1f9,2021-09-27_16h14.19.410,forced_choiceRT_color,2021.2.3,Linux aarch64,59.99880002,,,,,,,,6,Slow,long,d,0,2.1445,0,1,1,3,1,,,,,
,0.23,,,,,,,,,j,red,5eb97048fcd12c0594dbf1f9,2021-09-27_16h14.19.410,forced_choiceRT_color,2021.2.3,Linux aarch64,59.99880002,,,,,,,,6,Ontime,long,j,1,2.0324,0,2,2,2,1,,,,,
,1.45,,,,,,,,,f,blue,5eb97048fcd12c0594dbf1f9,2021-09-27_16h14.19.410,forced_choiceRT_color,2021.2.3,Linux aarch64,59.99880002,,,,,,,,6,Ontime,long,f,1,2.0664,0,3,3,1,1,,,,,
,1.51,,,,,,,,,f,blue,5eb97048fcd12c0594dbf1f9,2021-09-27_16h14.19.410,forced_choiceRT_color,2021.2.3,Linux aarch64,59.99880002,,,,,,,,6,Slow,long,f,1,2.1004,1,0,4,1,1,,,,,
,0.83,,,,,,,,,d,orange,5eb97048fcd12c0594dbf1f9,2021-09-27_16h14.19.410,forced_choiceRT_color,2021.2.3,Linux aarch64,59.99880002,,,,,,,,6,Fast,long,d,1,1.7826,1,1,5,0,1,,,,,
,0.64,,,,,,,,,d,orange,5eb97048fcd12c0594dbf1f9,2021-09-27_16h14.19.410,forced_choiceRT_color,2021.2.3,Linux aarch64,59.99880002,,,,,,,,6,Ontime,long,d,1,2.0301,1,2,6,0,1,,,,,
,1.13,,,,,,,,,f,blue,5eb97048fcd12c0594dbf1f9,2021-09-27_16h14.19.410,forced_choiceRT_color,2021.2.3,Linux aarch64,59.99880002,,,,,,,,6,Ontime,long,f,1,2.099,1,3,7,1,1,,,,,
,1.66,,,,,,,,,k,purple,5eb97048fcd12c0594dbf1f9,2021-09-27_16h14.19.410,forced_choiceRT_color,2021.2.3,Linux aarch64,59.99880002,,,,,,,,6,Slow,long,k,1,2.767,2,0,8,3,1,,,,,
,0.08,,,,,,,,,j,red,5eb97048fcd12c0594dbf1f9,2021-09-27_16h14.19.410,forced_choiceRT_color,2021.2.3,Linux aarch64,59.99880002,,,,,,,,6,Ontime,long,j,1,2.011,2,1,9,2,1,,,,,
,1.76,,,,,,,,,d,orange,5eb97048fcd12c0594dbf1f9,2021-09-27_16h14.19.410,forced_choiceRT_color,2021.2.3,Linux aarch64,59.99880002,,,,,,,,6,Slow,long,k,0,2.1289,2,2,10,0,1,,,,,
,0.76,,,,,,,,,j,red,5eb97048fcd12c0594dbf1f9,2021-09-27_16h14.19.410,forced_choiceRT_color,2021.2.3,Linux aarch64,59.99880002,,,,,,,,6,Ontime,long,j,1,2.0381,2,3,11,2,1,,,,,
,0.76,,,,,,,,,j,red,5eb97048fcd12c0594dbf1f9,2021-09-27_16h14.19.410,forced_choiceRT_color,2021.2.3,Linux aarch64,59.99880002,,,,,,,,6,Ontime,long,j,1,1.9601,3,0,12,2,1,,,,,
,0.12,,,,,,,,,k,purple,5eb97048fcd12c0594dbf1f9,2021-09-27_16h14.19.410,forced_choiceRT_color,2021.2.3,Linux aarch64,59.99880002,,,,,,,,6,Ontime,long,k,1,1.994,3,1,13,3,1,,,,,
,0.46,,,,,,,,,j,red,5eb97048fcd12c0594dbf1f9,2021-09-27_16h14.19.410,forced_choiceRT_color,2021.2.3,Linux aarch64,59.99880002,,,,,,,,6,Ontime,long,j,1,2.0803,3,2,14,2,1,,,,,
,0.54,,,,,,,,,k,purple,5eb97048fcd12c0594dbf1f9,2021-09-27_16h14.19.410,forced_choiceRT_color,2021.2.3,Linux aarch64,59.99880002,,,,,,,,6,Ontime,long,k,1,2.042,3,3,15,3,1,,,,,
,1.77,,,,,,,,,j,red,5eb97048fcd12c0594dbf1f9,2021-09-27_16h14.19.410,forced_choiceRT_color,2021.2.3,Linux aarch64,59.99880002,,,,,,,,6,Ontime,long,j,1,2.0279,4,0,16,2,1,,,,,
,1.71,,,,,,,,,d,orange,5eb97048fcd12c0594dbf1f9,2021-09-27_16h14.19.410,forced_choiceRT_color,2021.2.3,Linux aarch64,59.99880002,,,,,,,,6,Ontime,long,d,1,1.9809,4,1,17,0,1,,,,,
,1.58,,,,,,,,,j,red,5eb97048fcd12c0594dbf1f9,2021-09-27_16h14.19.410,forced_choiceRT_color,2021.2.3,Linux aarch64,59.99880002,,,,,,,,6,Ontime,long,j,1,2.0818,4,2,18,2,1,,,,,
,1.09,,,,,,,,,f,blue,5eb97048fcd12c0594dbf1f9,2021-09-27_16h14.19.410,forced_choiceRT_color,2021.2.3,Linux aarch64,59.99880002,,,,,,,,6,Slow,long,f,1,2.1086,4,3,19,1,1,,,,,
,0.39,,,,,,,,,k,purple,5eb97048fcd12c0594dbf1f9,2021-09-27_16h14.19.410,forced_choiceRT_color,2021.2.3,Linux aarch64,59.99880002,,,,,,,,6,Ontime,long,k,1,1.9965,5,0,20,3,1,,,,,
,0.09,,,,,,,,,k,purple,5eb97048fcd12c0594dbf1f9,2021-09-27_16h14.19.410,forced_choiceRT_color,2021.2.3,Linux aarch64,59.99880002,,,,,,,,6,Ontime,long,k,1,2.0448,5,1,21,3,1,,,,,
,0.25,,,,,,,,,d,orange,5eb97048fcd12c0594dbf1f9,2021-09-27_16h14.19.410,forced_choiceRT_color,2021.2.3,Linux aarch64,59.99880002,,,,,,,,6,Slow,long,d,1,2.101,5,2,22,0,1,,,,,
,0.73,,,,,,,,,j,red,5eb97048fcd12c0594dbf1f9,2021-09-27_16h14.19.410,forced_choiceRT_color,2021.2.3,Linux aarch64,59.99880002,,,,,,,,6,Ontime,long,j,1,1.9596,5,3,23,2,1,,,,,
,0.55,,,,,,,,,d,orange,5eb97048fcd12c0594dbf1f9,2021-09-27_16h14.19.410,forced_choiceRT_color,2021.2.3,Linux aarch64,59.99880002,,,,,,,,6,Ontime,long,d,1,2.0672,6,0,24,0,1,,,,,
,0.87,,,,,,,,,d,orange,5eb97048fcd12c0594dbf1f9,2021-09-27_16h14.19.410,forced_choiceRT_color,2021.2.3,Linux aarch64,59.99880002,,,,,,,,6,Ontime,long,d,1,2.0292,6,1,25,0,1,,,,,
,1.48,,,,,,,,,f,blue,5eb97048fcd12c0594dbf1f9,2021-09-27_16h14.19.410,forced_choiceRT_color,2021.2.3,Linux aarch64,59.99880002,,,,,,,,6,Ontime,long,f,1,2.0766,6,2,26,1,1,,,,,
,1.38,,,,,,,,,f,blue,5eb97048fcd12c0594dbf1f9,2021-09-27_16h14.19.410,forced_choiceRT_color,2021.2.3,Linux aarch64,59.99880002,,,,,,,,6,Slow,long,f,1,2.1698,6,3,27,1,1,,,,,
,0.13,,,,,,,,,k,purple,5eb97048fcd12c0594dbf1f9,2021-09-27_16h14.19.410,forced_choiceRT_color,2021.2.3,Linux aarch64,59.99880002,,,,,,,,6,Ontime,long,k,1,2.0278,7,0,28,3,1,,,,,
,0.02,,,,,,,,,f,blue,5eb97048fcd12c0594dbf1f9,2021-09-27_16h14.19.410,forced_choiceRT_color,2021.2.3,Linux aarch64,59.99880002,,,,,,,,6,Ontime,long,f,1,1.9767,7,1,29,1,1,,,,,
,1.33,,,,,,,,,f,blue,5eb97048fcd12c0594dbf1f9,2021-09-27_16h14.19.410,forced_choiceRT_color,2021.2.3,Linux aarch64,59.99880002,,,,,,,,6,Ontime,long,f,1,2.0957,7,2,30,1,1,,,,,
,1.88,,,,,,,,,d,orange,5eb97048fcd12c0594dbf1f9,2021-09-27_16h14.19.410,forced_choiceRT_color,2021.2.3,Linux aarch64,59.99880002,,,,,,,,6,Slow,long,f,0,2.1283,7,3,31,0,1,,,,,
,0.23,,,,,,,,,k,purple,5eb97048fcd12c0594dbf1f9,2021-09-27_16h14.19.410,forced_choiceRT_color,2021.2.3,Linux aarch64,59.99880002,,,,,,,,6,Ontime,long,k,1,2.0834,8,0,32,3,1,,,,,
,0.04,,,,,,,,,k,purple,5eb97048fcd12c0594dbf1f9,2021-09-27_16h14.19.410,forced_choiceRT_color,2021.2.3,Linux aarch64,59.99880002,,,,,,,,6,Ontime,long,k,1,2.0764,8,1,33,3,1,,,,,
,1.09,,,,,,,,,f,blue,5eb97048fcd12c0594dbf1f9,2021-09-27_16h14.19.410,forced_choiceRT_color,2021.2.3,Linux aarch64,59.99880002,,,,,,,,6,Ontime,long,f,1,2.0994,8,2,34,1,1,,,,,
,0.85,,,,,,,,,d,orange,5eb97048fcd12c0594dbf1f9,2021-09-27_16h14.19.410,forced_choiceRT_color,2021.2.3,Linux aarch64,59.99880002,,,,,,,,6,Ontime,long,d,1,2.0748,8,3,35,0,1,,,,,
,1.06,,,,,,,,,j,red,5eb97048fcd12c0594dbf1f9,2021-09-27_16h14.19.410,forced_choiceRT_color,2021.2.3,Linux aarch64,59.99880002,,,,,,,,6,Ontime,long,j,1,2.0751,9,0,36,2,1,,,,,
,1.42,,,,,,,,,k,purple,5eb97048fcd12c0594dbf1f9,2021-09-27_16h14.19.410,forced_choiceRT_color,2021.2.3,Linux aarch64,59.99880002,,,,,,,,6,Ontime,long,k,1,1.9636,9,1,37,3,1,,,,,
,0.78,,,,,,,,,d,orange,5eb97048fcd12c0594dbf1f9,2021-09-27_16h14.19.410,forced_choiceRT_color,2021.2.3,Linux aarch64,59.99880002,,,,,,,,6,Slow,long,d,1,2.1426,9,2,38,0,1,,,,,
,0.43,,,,,,,,,f,blue,5eb97048fcd12c0594dbf1f9,2021-09-27_16h14.19.410,forced_choiceRT_color,2021.2.3,Linux aarch64,59.99880002,,,,,,,,6,Ontime,long,f,1,1.9331,9,3,39,1,1,,,,,
,,,,,,,,,,,,5eb97048fcd12c0594dbf1f9,2021-09-27_16h14.19.410,forced_choiceRT_color,2021.2.3,Linux aarch64,59.99880002,,,,,,,,,,,,,,,,,,,5,0,5,0,1
,0.93,,,,,,,,,k,purple,5eb97048fcd12c0594dbf1f9,2021-09-27_16h14.19.410,forced_choiceRT_color,2021.2.3,Linux aarch64,59.99880002,,,,,,,,7,Ontime,long,k,1,2.07,0,0,0,3,1,,,,,
,0.06,,,,,,,,,k,purple,5eb97048fcd12c0594dbf1f9,2021-09-27_16h14.19.410,forced_choiceRT_color,2021.2.3,Linux aarch64,59.99880002,,,,,,,,7,Ontime,long,k,1,1.96,0,1,1,3,1,,,,,
,0.94,,,,,,,,,j,red,5eb97048fcd12c0594dbf1f9,2021-09-27_16h14.19.410,forced_choiceRT_color,2021.2.3,Linux aarch64,59.99880002,,,,,,,,7,Fast,long,f,0,1.6286,0,2,2,2,1,,,,,
,0.09,,,,,,,,,j,red,5eb97048fcd12c0594dbf1f9,2021-09-27_16h14.19.410,forced_choiceRT_color,2021.2.3,Linux aarch64,59.99880002,,,,,,,,7,Ontime,long,j,1,2.0449,0,3,3,2,1,,,,,
,1.89,,,,,,,,,k,purple,5eb97048fcd12c0594dbf1f9,2021-09-27_16h14.19.410,forced_choiceRT_color,2021.2.3,Linux aarch64,59.99880002,,,,,,,,7,Ontime,long,k,1,2.0499,1,0,4,3,1,,,,,
,0.21,,,,,,,,,d,orange,5eb97048fcd12c0594dbf1f9,2021-09-27_16h14.19.410,forced_choiceRT_color,2021.2.3,Linux aarch64,59.99880002,,,,,,,,7,Ontime,long,d,1,2.0316,1,1,5,0,1,,,,,
,1.77,,,,,,,,,k,purple,5eb97048fcd12c0594dbf1f9,2021-09-27_16h14.19.410,forced_choiceRT_color,2021.2.3,Linux aarch64,59.99880002,,,,,,,,7,Ontime,long,k,1,2.0295,1,2,6,3,1,,,,,
,0.08,,,,,,,,,f,blue,5eb97048fcd12c0594dbf1f9,2021-09-27_16h14.19.410,forced_choiceRT_color,2021.2.3,Linux aarch64,59.99880002,,,,,,,,7,Ontime,long,f,1,2.0464,1,3,7,1,1,,,,,
,1.17,,,,,,,,,f,blue,5eb97048fcd12c0594dbf1f9,2021-09-27_16h14.19.410,forced_choiceRT_color,2021.2.3,Linux aarch64,59.99880002,,,,,,,,7,Ontime,long,f,1,1.9102,2,0,8,1,1,,,,,
,1.22,,,,,,,,,j,red,5eb97048fcd12c0594dbf1f9,2021-09-27_16h14.19.410,forced_choiceRT_color,2021.2.3,Linux aarch64,59.99880002,,,,,,,,7,Ontime,long,f,0,2.0104,2,1,9,2,1,,,,,
,0.82,,,,,,,,,j,red,5eb97048fcd12c0594dbf1f9,2021-09-27_16h14.19.410,forced_choiceRT_color,2021.2.3,Linux aarch64,59.99880002,,,,,,,,7,Slow,long,j,1,2.111,2,2,10,2,1,,,,,
,1.69,,,,,,,,,f,blue,5eb97048fcd12c0594dbf1f9,2021-09-27_16h14.19.410,forced_choiceRT_color,2021.2.3,Linux aarch64,59.99880002,,,,,,,,7,Ontime,long,k,0,1.9143,2,3,11,1,1,,,,,
,1.5,,,,,,,,,j,red,5eb97048fcd12c0594dbf1f9,2021-09-27_16h14.19.410,forced_choiceRT_color,2021.2.3,Linux aarch64,59.99880002,,,,,,,,7,Slow,long,j,1,2.1493,3,0,12,2,1,,,,,
,1.17,,,,,,,,,k,purple,5eb97048fcd12c0594dbf1f9,2021-09-27_16h14.19.410,forced_choiceRT_color,2021.2.3,Linux aarch64,59.99880002,,,,,,,,7,Ontime,long,k,1,2.0333,3,1,13,3,1,,,,,
,1.27,,,,,,,,,f,blue,5eb97048fcd12c0594dbf1f9,2021-09-27_16h14.19.410,forced_choiceRT_color,2021.2.3,Linux aarch64,59.99880002,,,,,,,,7,Ontime,long,f,1,2.0092,3,2,14,1,1,,,,,
,1.72,,,,,,,,,d,orange,5eb97048fcd12c0594dbf1f9,2021-09-27_16h14.19.410,forced_choiceRT_color,2021.2.3,Linux aarch64,59.99880002,,,,,,,,7,Ontime,long,k,0,1.9602,3,3,15,0,1,,,,,
,1.07,,,,,,,,,f,blue,5eb97048fcd12c0594dbf1f9,2021-09-27_16h14.19.410,forced_choiceRT_color,2021.2.3,Linux aarch64,59.99880002,,,,,,,,7,Ontime,long,f,1,2.0414,4,0,16,1,1,,,,,
,0.68,,,,,,,,,j,red,5eb97048fcd12c0594dbf1f9,2021-09-27_16h14.19.410,forced_choiceRT_color,2021.2.3,Linux aarch64,59.99880002,,,,,,,,7,Ontime,long,j,1,1.9793,4,1,17,2,1,,,,,
,0.85,,,,,,,,,k,purple,5eb97048fcd12c0594dbf1f9,2021-09-27_16h14.19.410,forced_choiceRT_color,2021.2.3,Linux aarch64,59.99880002,,,,,,,,7,Ontime,long,k,1,2,4,2,18,3,1,,,,,
,1.44,,,,,,,,,d,orange,5eb97048fcd12c0594dbf1f9,2021-09-27_16h14.19.410,forced_choiceRT_color,2021.2.3,Linux aarch64,59.99880002,,,,,,,,7,Slow,long,d,1,2.1205,4,3,19,0,1,,,,,
,1.37,,,,,,,,,k,purple,5eb97048fcd12c0594dbf1f9,2021-09-27_16h14.19.410,forced_choiceRT_color,2021.2.3,Linux aarch64,59.99880002,,,,,,,,7,Ontime,long,k,1,1.9843,5,0,20,3,1,,,,,
,1.28,,,,,,,,,j,red,5eb97048fcd12c0594dbf1f9,2021-09-27_16h14.19.410,forced_choiceRT_color,2021.2.3,Linux aarch64,59.99880002,,,,,,,,7,Slow,long,j,1,2.1186,5,1,21,2,1,,,,,
,0.37,,,,,,,,,j,red,5eb97048fcd12c0594dbf1f9,2021-09-27_16h14.19.410,forced_choiceRT_color,2021.2.3,Linux aarch64,59.99880002,,,,,,,,7,Ontime,long,j,1,1.9779,5,2,22,2,1,,,,,
,0.5,,,,,,,,,d,orange,5eb97048fcd12c0594dbf1f9,2021-09-27_16h14.19.410,forced_choiceRT_color,2021.2.3,Linux aarch64,59.99880002,,,,,,,,7,Ontime,long,d,1,2.0931,5,3,23,0,1,,,,,
,0.94,,,,,,,,,k,purple,5eb97048fcd12c0594dbf1f9,2021-09-27_16h14.19.410,forced_choiceRT_color,2021.2.3,Linux aarch64,59.99880002,,,,,,,,7,Fast,long,k,1,1.8943,6,0,24,3,1,,,,,
,0.99,,,,,,,,,f,blue,5eb97048fcd12c0594dbf1f9,2021-09-27_16h14.19.410,forced_choiceRT_color,2021.2.3,Linux aarch64,59.99880002,,,,,,,,7,Ontime,long,f,1,1.967,6,1,25,1,1,,,,,
,0.78,,,,,,,,,f,blue,5eb97048fcd12c0594dbf1f9,2021-09-27_16h14.19.410,forced_choiceRT_color,2021.2.3,Linux aarch64,59.99880002,,,,,,,,7,Ontime,long,f,1,2.0687,6,2,26,1,1,,,,,
,0.95,,,,,,,,,d,orange,5eb97048fcd12c0594dbf1f9,2021-09-27_16h14.19.410,forced_choiceRT_color,2021.2.3,Linux aarch64,59.99880002,,,,,,,,7,Ontime,long,d,1,2.0632,6,3,27,0,1,,,,,
,1.79,,,,,,,,,d,orange,5eb97048fcd12c0594dbf1f9,2021-09-27_16h14.19.410,forced_choiceRT_color,2021.2.3,Linux aarch64,59.99880002,,,,,,,,7,Slow,long,j,0,2.2085,7,0,28,0,1,,,,,
,1.97,,,,,,,,,d,orange,5eb97048fcd12c0594dbf1f9,2021-09-27_16h14.19.410,forced_choiceRT_color,2021.2.3,Linux aarch64,59.99880002,,,,,,,,7,Ontime,long,f,0,2.0495,7,1,29,0,1,,,,,
,0.93,,,,,,,,,d,orange,5eb97048fcd12c0594dbf1f9,2021-09-27_16h14.19.410,forced_choiceRT_color,2021.2.3,Linux aarch64,59.99880002,,,,,,,,7,Ontime,long,f,0,1.9774,7,2,30,0,1,,,,,
,0.8,,,,,,,,,j,red,5eb97048fcd12c0594dbf1f9,2021-09-27_16h14.19.410,forced_choiceRT_color,2021.2.3,Linux aarch64,59.99880002,,,,,,,,7,Ontime,long,j,1,2.0472,7,3,31,2,1,,,,,
,1.45,,,,,,,,,f,blue,5eb97048fcd12c0594dbf1f9,2021-09-27_16h14.19.410,forced_choiceRT_color,2021.2.3,Linux aarch64,59.99880002,,,,,,,,7,Ontime,long,f,1,2.018,8,0,32,1,1,,,,,
,0,,,,,,,,,d,orange,5eb97048fcd12c0594dbf1f9,2021-09-27_16h14.19.410,forced_choiceRT_color,2021.2.3,Linux aarch64,59.99880002,,,,,,,,7,Ontime,long,d,1,2.0133,8,1,33,0,1,,,,,
,1.33,,,,,,,,,d,orange,5eb97048fcd12c0594dbf1f9,2021-09-27_16h14.19.410,forced_choiceRT_color,2021.2.3,Linux aarch64,59.99880002,,,,,,,,7,Ontime,long,d,1,2.0787,8,2,34,0,1,,,,,
,0.44,,,,,,,,,f,blue,5eb97048fcd12c0594dbf1f9,2021-09-27_16h14.19.410,forced_choiceRT_color,2021.2.3,Linux aarch64,59.99880002,,,,,,,,7,Ontime,long,f,1,1.9453,8,3,35,1,1,,,,,
,1.12,,,,,,,,,k,purple,5eb97048fcd12c0594dbf1f9,2021-09-27_16h14.19.410,forced_choiceRT_color,2021.2.3,Linux aarch64,59.99880002,,,,,,,,7,Ontime,long,k,1,2.0115,9,0,36,3,1,,,,,
,0.81,,,,,,,,,f,blue,5eb97048fcd12c0594dbf1f9,2021-09-27_16h14.19.410,forced_choiceRT_color,2021.2.3,Linux aarch64,59.99880002,,,,,,,,7,Ontime,long,f,1,2.0948,9,1,37,1,1,,,,,
,1.91,,,,,,,,,j,red,5eb97048fcd12c0594dbf1f9,2021-09-27_16h14.19.410,forced_choiceRT_color,2021.2.3,Linux aarch64,59.99880002,,,,,,,,7,Slow,long,f,0,2.1003,9,2,38,2,1,,,,,
,0.13,,,,,,,,,k,purple,5eb97048fcd12c0594dbf1f9,2021-09-27_16h14.19.410,forced_choiceRT_color,2021.2.3,Linux aarch64,59.99880002,,,,,,,,7,Ontime,long,k,1,2.0654,9,3,39,3,1,,,,,
,,,,,,,,,,,,5eb97048fcd12c0594dbf1f9,2021-09-27_16h14.19.410,forced_choiceRT_color,2021.2.3,Linux aarch64,59.99880002,,,,,,,,,,,,,,,,,,,6,0,6,0,1
,0.08,,,,,,,,,f,blue,5eb97048fcd12c0594dbf1f9,2021-09-27_16h14.19.410,forced_choiceRT_color,2021.2.3,Linux aarch64,59.99880002,,,,,,,,8,Ontime,long,f,1,1.985,0,0,0,1,1,,,,,
,0.85,,,,,,,,,d,orange,5eb97048fcd12c0594dbf1f9,2021-09-27_16h14.19.410,forced_choiceRT_color,2021.2.3,Linux aarch64,59.99880002,,,,,,,,8,Slow,long,d,1,2.144,0,1,1,0,1,,,,,
,1.26,,,,,,,,,j,red,5eb97048fcd12c0594dbf1f9,2021-09-27_16h14.19.410,forced_choiceRT_color,2021.2.3,Linux aarch64,59.99880002,,,,,,,,8,Ontime,long,j,1,2.0807,0,2,2,2,1,,,,,
,1.13,,,,,,,,,d,orange,5eb97048fcd12c0594dbf1f9,2021-09-27_16h14.19.410,forced_choiceRT_color,2021.2.3,Linux aarch64,59.99880002,,,,,,,,8,Ontime,long,d,1,2.0751,0,3,3,0,1,,,,,
,1.39,,,,,,,,,k,purple,5eb97048fcd12c0594dbf1f9,2021-09-27_16h14.19.410,forced_choiceRT_color,2021.2.3,Linux aarch64,59.99880002,,,,,,,,8,Ontime,long,j,0,2.0752,1,0,4,3,1,,,,,
,0.15,,,,,,,,,f,blue,5eb97048fcd12c0594dbf1f9,2021-09-27_16h14.19.410,forced_choiceRT_color,2021.2.3,Linux aarch64,59.99880002,,,,,,,,8,Ontime,long,f,1,2.063,1,1,5,1,1,,,,,
,0.78,,,,,,,,,f,blue,5eb97048fcd12c0594dbf1f9,2021-09-27_16h14.19.410,forced_choiceRT_color,2021.2.3,Linux aarch64,59.99880002,,,,,,,,8,Ontime,long,f,1,2.0771,1,2,6,1,1,,,,,
,0.3,,,,,,,,,f,blue,5eb97048fcd12c0594dbf1f9,2021-09-27_16h14.19.410,forced_choiceRT_color,2021.2.3,Linux aarch64,59.99880002,,,,,,,,8,Ontime,long,f,1,2.0568,1,3,7,1,1,,,,,
,0.09,,,,,,,,,j,red,5eb97048fcd12c0594dbf1f9,2021-09-27_16h14.19.410,forced_choiceRT_color,2021.2.3,Linux aarch64,59.99880002,,,,,,,,8,Ontime,long,j,1,2.0123,2,0,8,2,1,,,,,
,0.89,,,,,,,,,j,red,5eb97048fcd12c0594dbf1f9,2021-09-27_16h14.19.410,forced_choiceRT_color,2021.2.3,Linux aarch64,59.99880002,,,,,,,,8,Ontime,long,j,1,2.0466,2,1,9,2,1,,,,,
,0.98,,,,,,,,,f,blue,5eb97048fcd12c0594dbf1f9,2021-09-27_16h14.19.410,forced_choiceRT_color,2021.2.3,Linux aarch64,59.99880002,,,,,,,,8,Ontime,long,f,1,2.0152,2,2,10,1,1,,,,,
,1.23,,,,,,,,,k,purple,5eb97048fcd12c0594dbf1f9,2021-09-27_16h14.19.410,forced_choiceRT_color,2021.2.3,Linux aarch64,59.99880002,,,,,,,,8,Slow,long,k,1,2.1203,2,3,11,3,1,,,,,
,1.12,,,,,,,,,j,red,5eb97048fcd12c0594dbf1f9,2021-09-27_16h14.19.410,forced_choiceRT_color,2021.2.3,Linux aarch64,59.99880002,,,,,,,,8,Ontime,long,j,1,2.0281,3,0,12,2,1,,,,,
,0.08,,,,,,,,,k,purple,5eb97048fcd12c0594dbf1f9,2021-09-27_16h14.19.410,forced_choiceRT_color,2021.2.3,Linux aarch64,59.99880002,,,,,,,,8,Ontime,long,k,1,1.9948,3,1,13,3,1,,,,,
,0.19,,,,,,,,,d,orange,5eb97048fcd12c0594dbf1f9,2021-09-27_16h14.19.410,forced_choiceRT_color,2021.2.3,Linux aarch64,59.99880002,,,,,,,,8,Ontime,long,d,1,2.0463,3,2,14,0,1,,,,,
,1.81,,,,,,,,,k,purple,5eb97048fcd12c0594dbf1f9,2021-09-27_16h14.19.410,forced_choiceRT_color,2021.2.3,Linux aarch64,59.99880002,,,,,,,,8,Slow,long,j,0,2.2778,3,3,15,3,1,,,,,
,1.53,,,,,,,,,j,red,5eb97048fcd12c0594dbf1f9,2021-09-27_16h14.19.410,forced_choiceRT_color,2021.2.3,Linux aarch64,59.99880002,,,,,,,,8,Slow,long,j,1,2.1953,4,0,16,2,1,,,,,
,0.37,,,,,,,,,f,blue,5eb97048fcd12c0594dbf1f9,2021-09-27_16h14.19.410,forced_choiceRT_color,2021.2.3,Linux aarch64,59.99880002,,,,,,,,8,Ontime,long,f,1,2.0806,4,1,17,1,1,,,,,
,1.11,,,,,,,,,j,red,5eb97048fcd12c0594dbf1f9,2021-09-27_16h14.19.410,forced_choiceRT_color,2021.2.3,Linux aarch64,59.99880002,,,,,,,,8,Ontime,long,j,1,2.0573,4,2,18,2,1,,,,,
,1.31,,,,,,,,,j,red,5eb97048fcd12c0594dbf1f9,2021-09-27_16h14.19.410,forced_choiceRT_color,2021.2.3,Linux aarch64,59.99880002,,,,,,,,8,Ontime,long,j,1,1.9617,4,3,19,2,1,,,,,
,1.8,,,,,,,,,k,purple,5eb97048fcd12c0594dbf1f9,2021-09-27_16h14.19.410,forced_choiceRT_color,2021.2.3,Linux aarch64,59.99880002,,,,,,,,8,Slow,long,k,1,2.2517,5,0,20,3,1,,,,,
,0.83,,,,,,,,,k,purple,5eb97048fcd12c0594dbf1f9,2021-09-27_16h14.19.410,forced_choiceRT_color,2021.2.3,Linux aarch64,59.99880002,,,,,,,,8,Ontime,long,k,1,2.0168,5,1,21,3,1,,,,,
,1.48,,,,,,,,,k,purple,5eb97048fcd12c0594dbf1f9,2021-09-27_16h14.19.410,forced_choiceRT_color,2021.2.3,Linux aarch64,59.99880002,,,,,,,,8,Slow,long,k,1,2.2316,5,2,22,3,1,,,,,
,1.5,,,,,,,,,k,purple,5eb97048fcd12c0594dbf1f9,2021-09-27_16h14.19.410,forced_choiceRT_color,2021.2.3,Linux aarch64,59.99880002,,,,,,,,8,Slow,long,k,1,2.182,5,3,23,3,1,,,,,
,0.54,,,,,,,,,j,red,5eb97048fcd12c0594dbf1f9,2021-09-27_16h14.19.410,forced_choiceRT_color,2021.2.3,Linux aarch64,59.99880002,,,,,,,,8,Ontime,long,j,1,1.9885,6,0,24,2,1,,,,,
,0.18,,,,,,,,,j,red,5eb97048fcd12c0594dbf1f9,2021-09-27_16h14.19.410,forced_choiceRT_color,2021.2.3,Linux aarch64,59.99880002,,,,,,,,8,Ontime,long,j,1,1.9882,6,1,25,2,1,,,,,
,1.71,,,,,,,,,k,purple,5eb97048fcd12c0594dbf1f9,2021-09-27_16h14.19.410,forced_choiceRT_color,2021.2.3,Linux aarch64,59.99880002,,,,,,,,8,Slow,long,k,1,2.5795,6,2,26,3,1,,,,,
,0.37,,,,,,,,,f,blue,5eb97048fcd12c0594dbf1f9,2021-09-27_16h14.19.410,forced_choiceRT_color,2021.2.3,Linux aarch64,59.99880002,,,,,,,,8,Ontime,long,f,1,2.0102,6,3,27,1,1,,,,,
,0.57,,,,,,,,,d,orange,5eb97048fcd12c0594dbf1f9,2021-09-27_16h14.19.410,forced_choiceRT_color,2021.2.3,Linux aarch64,59.99880002,,,,,,,,8,Ontime,long,j,0,2.0254,7,0,28,0,1,,,,,
,1.79,,,,,,,,,d,orange,5eb97048fcd12c0594dbf1f9,2021-09-27_16h14.19.410,forced_choiceRT_color,2021.2.3,Linux aarch64,59.99880002,,,,,,,,8,Ontime,long,f,0,2.06,7,1,29,0,1,,,,,
,0.46,,,,,,,,,d,orange,5eb97048fcd12c0594dbf1f9,2021-09-27_16h14.19.410,forced_choiceRT_color,2021.2.3,Linux aarch64,59.99880002,,,,,,,,8,Ontime,long,d,1,1.9796,7,2,30,0,1,,,,,
,1.7,,,,,,,,,f,blue,5eb97048fcd12c0594dbf1f9,2021-09-27_16h14.19.410,forced_choiceRT_color,2021.2.3,Linux aarch64,59.99880002,,,,,,,,8,Ontime,long,f,1,2.0624,7,3,31,1,1,,,,,
,1.12,,,,,,,,,d,orange,5eb97048fcd12c0594dbf1f9,2021-09-27_16h14.19.410,forced_choiceRT_color,2021.2.3,Linux aarch64,59.99880002,,,,,,,,8,Ontime,long,d,1,2.0403,8,0,32,0,1,,,,,
,0.93,,,,,,,,,k,purple,5eb97048fcd12c0594dbf1f9,2021-09-27_16h14.19.410,forced_choiceRT_color,2021.2.3,Linux aarch64,59.99880002,,,,,,,,8,Ontime,long,k,1,2.004,8,1,33,3,1,,,,,
,1.92,,,,,,,,,d,orange,5eb97048fcd12c0594dbf1f9,2021-09-27_16h14.19.410,forced_choiceRT_color,2021.2.3,Linux aarch64,59.99880002,,,,,,,,8,Ontime,long,j,0,1.978,8,2,34,0,1,,,,,
,1.25,,,,,,,,,d,orange,5eb97048fcd12c0594dbf1f9,2021-09-27_16h14.19.410,forced_choiceRT_color,2021.2.3,Linux aarch64,59.99880002,,,,,,,,8,Ontime,long,j,0,2.0292,8,3,35,0,1,,,,,
,1.44,,,,,,,,,j,red,5eb97048fcd12c0594dbf1f9,2021-09-27_16h14.19.410,forced_choiceRT_color,2021.2.3,Linux aarch64,59.99880002,,,,,,,,8,Ontime,long,j,1,2.0678,9,0,36,2,1,,,,,
,1.31,,,,,,,,,f,blue,5eb97048fcd12c0594dbf1f9,2021-09-27_16h14.19.410,forced_choiceRT_color,2021.2.3,Linux aarch64,59.99880002,,,,,,,,8,Slow,long,f,1,2.1748,9,1,37,1,1,,,,,
,1.46,,,,,,,,,d,orange,5eb97048fcd12c0594dbf1f9,2021-09-27_16h14.19.410,forced_choiceRT_color,2021.2.3,Linux aarch64,59.99880002,,,,,,,,8,Ontime,long,j,0,1.9967,9,2,38,0,1,,,,,
,1.65,,,,,,,,,f,blue,5eb97048fcd12c0594dbf1f9,2021-09-27_16h14.19.410,forced_choiceRT_color,2021.2.3,Linux aarch64,59.99880002,,,,,,,,8,Slow,long,f,1,2.3588,9,3,39,1,1,,,,,
,,,,,,,,,,,,5eb97048fcd12c0594dbf1f9,2021-09-27_16h14.19.410,forced_choiceRT_color,2021.2.3,Linux aarch64,59.99880002,,,,,,,,,,,,,,,,,,,7,0,7,0,1
,0.26,,,,,,,,,f,blue,5eb97048fcd12c0594dbf1f9,2021-09-27_16h14.19.410,forced_choiceRT_color,2021.2.3,Linux aarch64,59.99880002,,,,,,,,9,Fast,long,f,1,1.7203,0,0,0,1,1,,,,,
,0.74,,,,,,,,,d,orange,5eb97048fcd12c0594dbf1f9,2021-09-27_16h14.19.410,forced_choiceRT_color,2021.2.3,Linux aarch64,59.99880002,,,,,,,,9,Ontime,long,d,1,2.0947,0,1,1,0,1,,,,,
,0.67,,,,,,,,,k,purple,5eb97048fcd12c0594dbf1f9,2021-09-27_16h14.19.410,forced_choiceRT_color,2021.2.3,Linux aarch64,59.99880002,,,,,,,,9,Ontime,long,k,1,2.0497,0,2,2,3,1,,,,,
,0.75,,,,,,,,,k,purple,5eb97048fcd12c0594dbf1f9,2021-09-27_16h14.19.410,forced_choiceRT_color,2021.2.3,Linux aarch64,59.99880002,,,,,,,,9,Ontime,long,k,1,1.9113,0,3,3,3,1,,,,,
,1.93,,,,,,,,,j,red,5eb97048fcd12c0594dbf1f9,2021-09-27_16h14.19.410,forced_choiceRT_color,2021.2.3,Linux aarch64,59.99880002,,,,,,,,9,Ontime,long,d,0,2.0888,1,0,4,2,1,,,,,
,1.54,,,,,,,,,k,purple,5eb97048fcd12c0594dbf1f9,2021-09-27_16h14.19.410,forced_choiceRT_color,2021.2.3,Linux aarch64,59.99880002,,,,,,,,9,Slow,long,k,1,2.1796,1,1,5,3,1,,,,,
,0.02,,,,,,,,,f,blue,5eb97048fcd12c0594dbf1f9,2021-09-27_16h14.19.410,forced_choiceRT_color,2021.2.3,Linux aarch64,59.99880002,,,,,,,,9,Ontime,long,f,1,2.048,1,2,6,1,1,,,,,
,1.47,,,,,,,,,k,purple,5eb97048fcd12c0594dbf1f9,2021-09-27_16h14.19.410,forced_choiceRT_color,2021.2.3,Linux aarch64,59.99880002,,,,,,,,9,Ontime,long,k,1,1.9971,1,3,7,3,1,,,,,
,1.54,,,,,,,,,j,red,5eb97048fcd12c0594dbf1f9,2021-09-27_16h14.19.410,forced_choiceRT_color,2021.2.3,Linux aarch64,59.99880002,,,,,,,,9,Slow,long,d,0,2.2093,2,0,8,2,1,,,,,
,0.31,,,,,,,,,d,orange,5eb97048fcd12c0594dbf1f9,2021-09-27_16h14.19.410,forced_choiceRT_color,2021.2.3,Linux aarch64,59.99880002,,,,,,,,9,Ontime,long,d,1,1.9771,2,1,9,0,1,,,,,
,0.63,,,,,,,,,f,blue,5eb97048fcd12c0594dbf1f9,2021-09-27_16h14.19.410,forced_choiceRT_color,2021.2.3,Linux aarch64,59.99880002,,,,,,,,9,Ontime,long,f,1,2.0438,2,2,10,1,1,,,,,
,1.57,,,,,,,,,f,blue,5eb97048fcd12c0594dbf1f9,2021-09-27_16h14.19.410,forced_choiceRT_color,2021.2.3,Linux aarch64,59.99880002,,,,,,,,9,Ontime,long,f,1,2.0933,2,3,11,1,1,,,,,
,0.81,,,,,,,,,j,red,5eb97048fcd12c0594dbf1f9,2021-09-27_16h14.19.410,forced_choiceRT_color,2021.2.3,Linux aarch64,59.99880002,,,,,,,,9,Slow,long,j,1,2.1165,3,0,12,2,1,,,,,
,1.92,,,,,,,,,k,purple,5eb97048fcd12c0594dbf1f9,2021-09-27_16h14.19.410,forced_choiceRT_color,2021.2.3,Linux aarch64,59.99880002,,,,,,,,9,Ontime,long,k,1,1.9402,3,1,13,3,1,,,,,
,0.85,,,,,,,,,k,purple,5eb97048fcd12c0594dbf1f9,2021-09-27_16h14.19.410,forced_choiceRT_color,2021.2.3,Linux aarch64,59.99880002,,,,,,,,9,Ontime,long,k,1,2.0765,3,2,14,3,1,,,,,
,0.62,,,,,,,,,f,blue,5eb97048fcd12c0594dbf1f9,2021-09-27_16h14.19.410,forced_choiceRT_color,2021.2.3,Linux aarch64,59.99880002,,,,,,,,9,Ontime,long,f,1,2.0076,3,3,15,1,1,,,,,
,1.71,,,,,,,,,f,blue,5eb97048fcd12c0594dbf1f9,2021-09-27_16h14.19.410,forced_choiceRT_color,2021.2.3,Linux aarch64,59.99880002,,,,,,,,9,Slow,long,f,1,2.1911,4,0,16,1,1,,,,,
,0.96,,,,,,,,,d,orange,5eb97048fcd12c0594dbf1f9,2021-09-27_16h14.19.410,forced_choiceRT_color,2021.2.3,Linux aarch64,59.99880002,,,,,,,,9,Fast,long,d,1,1.745,4,1,17,0,1,,,,,
,1.8,,,,,,,,,k,purple,5eb97048fcd12c0594dbf1f9,2021-09-27_16h14.19.410,forced_choiceRT_color,2021.2.3,Linux aarch64,59.99880002,,,,,,,,9,Ontime,long,f,0,2.0752,4,2,18,3,1,,,,,
,0.97,,,,,,,,,j,red,5eb97048fcd12c0594dbf1f9,2021-09-27_16h14.19.410,forced_choiceRT_color,2021.2.3,Linux aarch64,59.99880002,,,,,,,,9,Ontime,long,j,1,2.074,4,3,19,2,1,,,,,
,1.04,,,,,,,,,j,red,5eb97048fcd12c0594dbf1f9,2021-09-27_16h14.19.410,forced_choiceRT_color,2021.2.3,Linux aarch64,59.99880002,,,,,,,,9,Ontime,long,j,1,2.0918,5,0,20,2,1,,,,,
,0.33,,,,,,,,,k,purple,5eb97048fcd12c0594dbf1f9,2021-09-27_16h14.19.410,forced_choiceRT_color,2021.2.3,Linux aarch64,59.99880002,,,,,,,,9,Ontime,long,k,1,1.9907,5,1,21,3,1,,,,,
,0.37,,,,,,,,,d,orange,5eb97048fcd12c0594dbf1f9,2021-09-27_16h14.19.410,forced_choiceRT_color,2021.2.3,Linux aarch64,59.99880002,,,,,,,,9,Fast,long,j,0,1.5125,5,2,22,0,1,,,,,
,1.33,,,,,,,,,j,red,5eb97048fcd12c0594dbf1f9,2021-09-27_16h14.19.410,forced_choiceRT_color,2021.2.3,Linux aarch64,59.99880002,,,,,,,,9,Fast,long,j,1,1.8788,5,3,23,2,1,,,,,
,1.55,,,,,,,,,f,blue,5eb97048fcd12c0594dbf1f9,2021-09-27_16h14.19.410,forced_choiceRT_color,2021.2.3,Linux aarch64,59.99880002,,,,,,,,9,Slow,long,f,1,2.2138,6,0,24,1,1,,,,,
,1.53,,,,,,,,,d,orange,5eb97048fcd12c0594dbf1f9,2021-09-27_16h14.19.410,forced_choiceRT_color,2021.2.3,Linux aarch64,59.99880002,,,,,,,,9,Slow,long,d,1,2.1658,6,1,25,0,1,,,,,
,1.41,,,,,,,,,f,blue,5eb97048fcd12c0594dbf1f9,2021-09-27_16h14.19.410,forced_choiceRT_color,2021.2.3,Linux aarch64,59.99880002,,,,,,,,9,Ontime,long,f,1,2.0074,6,2,26,1,1,,,,,
,0.79,,,,,,,,,j,red,5eb97048fcd12c0594dbf1f9,2021-09-27_16h14.19.410,forced_choiceRT_color,2021.2.3,Linux aarch64,59.99880002,,,,,,,,9,Ontime,long,j,1,2.0092,6,3,27,2,1,,,,,
,1.78,,,,,,,,,k,purple,5eb97048fcd12c0594dbf1f9,2021-09-27_16h14.19.410,forced_choiceRT_color,2021.2.3,Linux aarch64,59.99880002,,,,,,,,9,Ontime,long,d,0,2.0471,7,0,28,3,1,,,,,
,0.72,,,,,,,,,d,orange,5eb97048fcd12c0594dbf1f9,2021-09-27_16h14.19.410,forced_choiceRT_color,2021.2.3,Linux aarch64,59.99880002,,,,,,,,9,Ontime,long,d,1,2.0661,7,1,29,0,1,,,,,
,0.35,,,,,,,,,k,purple,5eb97048fcd12c0594dbf1f9,2021-09-27_16h14.19.410,forced_choiceRT_color,2021.2.3,Linux aarch64,59.99880002,,,,,,,,9,Ontime,long,k,1,1.9934,7,2,30,3,1,,,,,
,0.2,,,,,,,,,f,blue,5eb97048fcd12c0594dbf1f9,2021-09-27_16h14.19.410,forced_choiceRT_color,2021.2.3,Linux aarch64,59.99880002,,,,,,,,9,Ontime,long,f,1,2.0962,7,3,31,1,1,,,,,
,0.71,,,,,,,,,d,orange,5eb97048fcd12c0594dbf1f9,2021-09-27_16h14.19.410,forced_choiceRT_color,2021.2.3,Linux aarch64,59.99880002,,,,,,,,9,Slow,long,d,1,2.1156,8,0,32,0,1,,,,,
,0.58,,,,,,,,,d,orange,5eb97048fcd12c0594dbf1f9,2021-09-27_16h14.19.410,forced_choiceRT_color,2021.2.3,Linux aarch64,59.99880002,,,,,,,,9,Ontime,long,d,1,2.0062,8,1,33,0,1,,,,,
,0.54,,,,,,,,,j,red,5eb97048fcd12c0594dbf1f9,2021-09-27_16h14.19.410,forced_choiceRT_color,2021.2.3,Linux aarch64,59.99880002,,,,,,,,9,Ontime,long,j,1,2.013,8,2,34,2,1,,,,,
,1.1,,,,,,,,,f,blue,5eb97048fcd12c0594dbf1f9,2021-09-27_16h14.19.410,forced_choiceRT_color,2021.2.3,Linux aarch64,59.99880002,,,,,,,,9,Slow,long,f,1,2.1237,8,3,35,1,1,,,,,
,0.23,,,,,,,,,j,red,5eb97048fcd12c0594dbf1f9,2021-09-27_16h14.19.410,forced_choiceRT_color,2021.2.3,Linux aarch64,59.99880002,,,,,,,,9,Ontime,long,j,1,1.9839,9,0,36,2,1,,,,,
,1.84,,,,,,,,,j,red,5eb97048fcd12c0594dbf1f9,2021-09-27_16h14.19.410,forced_choiceRT_color,2021.2.3,Linux aarch64,59.99880002,,,,,,,,9,Slow,long,f,0,2.1097,9,1,37,2,1,,,,,
,1.27,,,,,,,,,d,orange,5eb97048fcd12c0594dbf1f9,2021-09-27_16h14.19.410,forced_choiceRT_color,2021.2.3,Linux aarch64,59.99880002,,,,,,,,9,Slow,long,d,1,2.1905,9,2,38,0,1,,,,,
,0.03,,,,,,,,,d,orange,5eb97048fcd12c0594dbf1f9,2021-09-27_16h14.19.410,forced_choiceRT_color,2021.2.3,Linux aarch64,59.99880002,,,,,,,,9,Ontime,long,d,1,1.9801,9,3,39,0,1,,,,,
,,,,,,,,,,,,5eb97048fcd12c0594dbf1f9,2021-09-27_16h14.19.410,forced_choiceRT_color,2021.2.3,Linux aarch64,59.99880002,,,,,,,,,,,,,,,,,,,8,0,8,0,1
,0.25,,,,,,,,,k,purple,5eb97048fcd12c0594dbf1f9,2021-09-27_16h14.19.410,forced_choiceRT_color,2021.2.3,Linux aarch64,59.99880002,,,,,,,,10,Slow,long,d,0,8.5317,0,0,0,3,1,,,,,
,1.35,,,,,,,,,j,red,5eb97048fcd12c0594dbf1f9,2021-09-27_16h14.19.410,forced_choiceRT_color,2021.2.3,Linux aarch64,59.99880002,,,,,,,,10,Slow,long,j,1,2.1713,0,1,1,2,1,,,,,
,1.18,,,,,,,,,f,blue,5eb97048fcd12c0594dbf1f9,2021-09-27_16h14.19.410,forced_choiceRT_color,2021.2.3,Linux aarch64,59.99880002,,,,,,,,10,Ontime,long,f,1,1.9206,0,2,2,1,1,,,,,
,1.02,,,,,,,,,k,purple,5eb97048fcd12c0594dbf1f9,2021-09-27_16h14.19.410,forced_choiceRT_color,2021.2.3,Linux aarch64,59.99880002,,,,,,,,10,Ontime,long,k,1,2.0829,0,3,3,3,1,,,,,
,1.29,,,,,,,,,d,orange,5eb97048fcd12c0594dbf1f9,2021-09-27_16h14.19.410,forced_choiceRT_color,2021.2.3,Linux aarch64,59.99880002,,,,,,,,10,Slow,long,d,1,2.1147,1,0,4,0,1,,,,,
,0.11,,,,,,,,,j,red,5eb97048fcd12c0594dbf1f9,2021-09-27_16h14.19.410,forced_choiceRT_color,2021.2.3,Linux aarch64,59.99880002,,,,,,,,10,Ontime,long,j,1,2.0127,1,1,5,2,1,,,,,
,0.1,,,,,,,,,d,orange,5eb97048fcd12c0594dbf1f9,2021-09-27_16h14.19.410,forced_choiceRT_color,2021.2.3,Linux aarch64,59.99880002,,,,,,,,10,Ontime,long,d,1,1.9922,1,2,6,0,1,,,,,
,1.28,,,,,,,,,k,purple,5eb97048fcd12c0594dbf1f9,2021-09-27_16h14.19.410,forced_choiceRT_color,2021.2.3,Linux aarch64,59.99880002,,,,,,,,10,Slow,long,k,1,2.1412,1,3,7,3,1,,,,,
,0.56,,,,,,,,,j,red,5eb97048fcd12c0594dbf1f9,2021-09-27_16h14.19.410,forced_choiceRT_color,2021.2.3,Linux aarch64,59.99880002,,,,,,,,10,Ontime,long,j,1,2.0135,2,0,8,2,1,,,,,
,1.84,,,,,,,,,f,blue,5eb97048fcd12c0594dbf1f9,2021-09-27_16h14.19.410,forced_choiceRT_color,2021.2.3,Linux aarch64,59.99880002,,,,,,,,10,Ontime,long,k,0,2.0622,2,1,9,1,1,,,,,
,1.65,,,,,,,,,d,orange,5eb97048fcd12c0594dbf1f9,2021-09-27_16h14.19.410,forced_choiceRT_color,2021.2.3,Linux aarch64,59.99880002,,,,,,,,10,Ontime,long,f,0,1.9184,2,2,10,0,1,,,,,
,0.77,,,,,,,,,f,blue,5eb97048fcd12c0594dbf1f9,2021-09-27_16h14.19.410,forced_choiceRT_color,2021.2.3,Linux aarch64,59.99880002,,,,,,,,10,Ontime,long,f,1,1.9765,2,3,11,1,1,,,,,
,1.63,,,,,,,,,d,orange,5eb97048fcd12c0594dbf1f9,2021-09-27_16h14.19.410,forced_choiceRT_color,2021.2.3,Linux aarch64,59.99880002,,,,,,,,10,Slow,long,j,0,2.1061,3,0,12,0,1,,,,,
,0.59,,,,,,,,,k,purple,5eb97048fcd12c0594dbf1f9,2021-09-27_16h14.19.410,forced_choiceRT_color,2021.2.3,Linux aarch64,59.99880002,,,,,,,,10,Ontime,long,k,1,2.027,3,1,13,3,1,,,,,
,0.71,,,,,,,,,k,purple,5eb97048fcd12c0594dbf1f9,2021-09-27_16h14.19.410,forced_choiceRT_color,2021.2.3,Linux aarch64,59.99880002,,,,,,,,10,Ontime,long,k,1,2.0754,3,2,14,3,1,,,,,
,1.6,,,,,,,,,j,red,5eb97048fcd12c0594dbf1f9,2021-09-27_16h14.19.410,forced_choiceRT_color,2021.2.3,Linux aarch64,59.99880002,,,,,,,,10,Ontime,long,k,0,2.0133,3,3,15,2,1,,,,,
,1.46,,,,,,,,,d,orange,5eb97048fcd12c0594dbf1f9,2021-09-27_16h14.19.410,forced_choiceRT_color,2021.2.3,Linux aarch64,59.99880002,,,,,,,,10,Ontime,long,f,0,2.0517,4,0,16,0,1,,,,,
,1.27,,,,,,,,,d,orange,5eb97048fcd12c0594dbf1f9,2021-09-27_16h14.19.410,forced_choiceRT_color,2021.2.3,Linux aarch64,59.99880002,,,,,,,,10,Ontime,long,d,1,2.0652,4,1,17,0,1,,,,,
,0.64,,,,,,,,,j,red,5eb97048fcd12c0594dbf1f9,2021-09-27_16h14.19.410,forced_choiceRT_color,2021.2.3,Linux aarch64,59.99880002,,,,,,,,10,Ontime,long,j,1,1.9953,4,2,18,2,1,,,,,
,1.59,,,,,,,,,j,red,5eb97048fcd12c0594dbf1f9,2021-09-27_16h14.19.410,forced_choiceRT_color,2021.2.3,Linux aarch64,59.99880002,,,,,,,,10,Slow,long,j,1,2.215,4,3,19,2,1,,,,,
,1.39,,,,,,,,,f,blue,5eb97048fcd12c0594dbf1f9,2021-09-27_16h14.19.410,forced_choiceRT_color,2021.2.3,Linux aarch64,59.99880002,,,,,,,,10,Ontime,long,j,0,1.9296,5,0,20,1,1,,,,,
,0.86,,,,,,,,,f,blue,5eb97048fcd12c0594dbf1f9,2021-09-27_16h14.19.410,forced_choiceRT_color,2021.2.3,Linux aarch64,59.99880002,,,,,,,,10,Slow,long,f,1,2.149,5,1,21,1,1,,,,,
,0.12,,,,,,,,,j,red,5eb97048fcd12c0594dbf1f9,2021-09-27_16h14.19.410,forced_choiceRT_color,2021.2.3,Linux aarch64,59.99880002,,,,,,,,10,Ontime,long,j,1,2.0693,5,2,22,2,1,,,,,
,0.45,,,,,,,,,j,red,5eb97048fcd12c0594dbf1f9,2021-09-27_16h14.19.410,forced_choiceRT_color,2021.2.3,Linux aarch64,59.99880002,,,,,,,,10,Ontime,long,j,1,2.0256,5,3,23,2,1,,,,,
,0.06,,,,,,,,,k,purple,5eb97048fcd12c0594dbf1f9,2021-09-27_16h14.19.410,forced_choiceRT_color,2021.2.3,Linux aarch64,59.99880002,,,,,,,,10,Ontime,long,k,1,1.979,6,0,24,3,1,,,,,
,0.31,,,,,,,,,j,red,5eb97048fcd12c0594dbf1f9,2021-09-27_16h14.19.410,forced_choiceRT_color,2021.2.3,Linux aarch64,59.99880002,,,,,,,,10,Ontime,long,j,1,2.0095,6,1,25,2,1,,,,,
,1.06,,,,,,,,,f,blue,5eb97048fcd12c0594dbf1f9,2021-09-27_16h14.19.410,forced_choiceRT_color,2021.2.3,Linux aarch64,59.99880002,,,,,,,,10,Ontime,long,f,1,2.041,6,2,26,1,1,,,,,
,1.44,,,,,,,,,f,blue,5eb97048fcd12c0594dbf1f9,2021-09-27_16h14.19.410,forced_choiceRT_color,2021.2.3,Linux aarch64,59.99880002,,,,,,,,10,Ontime,long,f,1,1.9634,6,3,27,1,1,,,,,
,1.72,,,,,,,,,f,blue,5eb97048fcd12c0594dbf1f9,2021-09-27_16h14.19.410,forced_choiceRT_color,2021.2.3,Linux aarch64,59.99880002,,,,,,,,10,Slow,long,f,1,2.2165,7,0,28,1,1,,,,,
,1.79,,,,,,,,,j,red,5eb97048fcd12c0594dbf1f9,2021-09-27_16h14.19.410,forced_choiceRT_color,2021.2.3,Linux aarch64,59.99880002,,,,,,,,10,Slow,long,j,1,2.1912,7,1,29,2,1,,,,,
,0.13,,,,,,,,,k,purple,5eb97048fcd12c0594dbf1f9,2021-09-27_16h14.19.410,forced_choiceRT_color,2021.2.3,Linux aarch64,59.99880002,,,,,,,,10,Fast,long,k,1,1.6144,7,2,30,3,1,,,,,
,0.94,,,,,,,,,f,blue,5eb97048fcd12c0594dbf1f9,2021-09-27_16h14.19.410,forced_choiceRT_color,2021.2.3,Linux aarch64,59.99880002,,,,,,,,10,Ontime,long,f,1,2.0624,7,3,31,1,1,,,,,
,0.44,,,,,,,,,d,orange,5eb97048fcd12c0594dbf1f9,2021-09-27_16h14.19.410,forced_choiceRT_color,2021.2.3,Linux aarch64,59.99880002,,,,,,,,10,Fast,long,d,1,1.7104,8,0,32,0,1,,,,,
,1.05,,,,,,,,,k,purple,5eb97048fcd12c0594dbf1f9,2021-09-27_16h14.19.410,forced_choiceRT_color,2021.2.3,Linux aarch64,59.99880002,,,,,,,,10,Fast,long,k,1,1.7596,8,1,33,3,1,,,,,
,0.06,,,,,,,,,f,blue,5eb97048fcd12c0594dbf1f9,2021-09-27_16h14.19.410,forced_choiceRT_color,2021.2.3,Linux aarch64,59.99880002,,,,,,,,10,Fast,long,f,1,1.8153,8,2,34,1,1,,,,,
,0.93,,,,,,,,,d,orange,5eb97048fcd12c0594dbf1f9,2021-09-27_16h14.19.410,forced_choiceRT_color,2021.2.3,Linux aarch64,59.99880002,,,,,,,,10,Ontime,long,d,1,2.0996,8,3,35,0,1,,,,,
,1.05,,,,,,,,,k,purple,5eb97048fcd12c0594dbf1f9,2021-09-27_16h14.19.410,forced_choiceRT_color,2021.2.3,Linux aarch64,59.99880002,,,,,,,,10,Ontime,long,k,1,1.9963,9,0,36,3,1,,,,,
,0.4,,,,,,,,,d,orange,5eb97048fcd12c0594dbf1f9,2021-09-27_16h14.19.410,forced_choiceRT_color,2021.2.3,Linux aarch64,59.99880002,,,,,,,,10,Ontime,long,d,1,2.0747,9,1,37,0,1,,,,,
,0.51,,,,,,,,,d,orange,5eb97048fcd12c0594dbf1f9,2021-09-27_16h14.19.410,forced_choiceRT_color,2021.2.3,Linux aarch64,59.99880002,,,,,,,,10,Ontime,long,d,1,2.0746,9,2,38,0,1,,,,,
,1.56,,,,,,,,,k,purple,5eb97048fcd12c0594dbf1f9,2021-09-27_16h14.19.410,forced_choiceRT_color,2021.2.3,Linux aarch64,59.99880002,,,,,,,,10,Slow,long,k,1,2.1412,9,3,39,3,1,,,,,
,,,,,,,,,,,,5eb97048fcd12c0594dbf1f9,2021-09-27_16h14.19.410,forced_choiceRT_color,2021.2.3,Linux aarch64,59.99880002,,,,,,,,,,,,,,,,,,,9,0,9,0,1
