IP_Addresss,target_onset,trial_resp_sp.keys,trial_resp_sp.corr,trial_resp_sp.rt,trials_train_loop.thisRepN,trials_train_loop.thisTrialN,trials_train_loop.thisN,trials_train_loop.thisIndex,trials_train_loop.ran,correct_key,color,participant,date,expName,psychopyVersion,OS,frameRate,trial_resp_timing.keys,trial_resp_timing.rt,trials_train_timing.thisRepN,trials_train_timing.thisTrialN,trials_train_timing.thisN,trials_train_timing.thisIndex,trials_train_timing.ran,block_id,ontime,feedback_cond,forcedRT_resp.keys,forcedRT_resp.corr,forcedRT_resp.rt,trials.thisRepN,trials.thisTrialN,trials.thisN,trials.thisIndex,trials.ran,blocks.thisRepN,blocks.thisTrialN,blocks.thisN,blocks.thisIndex,blocks.ran
68.230.192.69,0,d,1,0.984,0,0,0,0,1,d,orange,5ebb48aefede09116c27f0f8,2021-09-27_17h11.59,forced_choiceRT_color,2021.2.3,MacIntel,55.55555556,,,,,,,,,,,,,,,,,,,,,,,
,0,k,1,0.714,0,1,1,3,1,k,purple,5ebb48aefede09116c27f0f8,2021-09-27_17h11.59,forced_choiceRT_color,2021.2.3,MacIntel,55.55555556,,,,,,,,,,,,,,,,,,,,,,,
,0,d,1,0.662,0,2,2,0,1,d,orange,5ebb48aefede09116c27f0f8,2021-09-27_17h11.59,forced_choiceRT_color,2021.2.3,MacIntel,55.55555556,,,,,,,,,,,,,,,,,,,,,,,
,0,j,1,0.625,0,3,3,2,1,j,red,5ebb48aefede09116c27f0f8,2021-09-27_17h11.59,forced_choiceRT_color,2021.2.3,MacIntel,55.55555556,,,,,,,,,,,,,,,,,,,,,,,
,0,j,1,0.668,1,0,4,2,1,j,red,5ebb48aefede09116c27f0f8,2021-09-27_17h11.59,forced_choiceRT_color,2021.2.3,MacIntel,55.55555556,,,,,,,,,,,,,,,,,,,,,,,
,0,j,1,0.624,1,1,5,2,1,j,red,5ebb48aefede09116c27f0f8,2021-09-27_17h11.59,forced_choiceRT_color,2021.2.3,MacIntel,55.55555556,,,,,,,,,,,,,,,,,,,,,,,
,0,j,1,0.517,1,2,6,2,1,j,red,5ebb48aefede09116c27f0f8,2021-09-27_17h11.59,forced_choiceRT_color,2021.2.3,MacIntel,55.55555556,,,,,,,,,,,,,,,,,,,,,,,
,0,d,1,0.814,1,3,7,0,1,d,orange,5ebb48aefede09116c27f0f8,2021-09-27_17h11.59,forced_choiceRT_color,2021.2.3,MacIntel,55.55555556,,,,,,,,,,,,,,,,,,,,,,,
,0,j,1,0.639,2,0,8,2,1,j,red,5ebb48aefede09116c27f0f8,2021-09-27_17h11.59,forced_choiceRT_color,2021.2.3,MacIntel,55.55555556,,,,,,,,,,,,,,,,,,,,,,,
,0,j,1,0.637,2,1,9,2,1,j,red,5ebb48aefede09116c27f0f8,2021-09-27_17h11.59,forced_choiceRT_color,2021.2.3,MacIntel,55.55555556,,,,,,,,,,,,,,,,,,,,,,,
,0,j,1,0.683,2,2,10,2,1,j,red,5ebb48aefede09116c27f0f8,2021-09-27_17h11.59,forced_choiceRT_color,2021.2.3,MacIntel,55.55555556,,,,,,,,,,,,,,,,,,,,,,,
,0,d,1,0.784,2,3,11,0,1,d,orange,5ebb48aefede09116c27f0f8,2021-09-27_17h11.59,forced_choiceRT_color,2021.2.3,MacIntel,55.55555556,,,,,,,,,,,,,,,,,,,,,,,
,0,f,1,0.572,3,0,12,1,1,f,blue,5ebb48aefede09116c27f0f8,2021-09-27_17h11.59,forced_choiceRT_color,2021.2.3,MacIntel,55.55555556,,,,,,,,,,,,,,,,,,,,,,,
,0,k,1,0.65,3,1,13,3,1,k,purple,5ebb48aefede09116c27f0f8,2021-09-27_17h11.59,forced_choiceRT_color,2021.2.3,MacIntel,55.55555556,,,,,,,,,,,,,,,,,,,,,,,
,0,k,1,0.473,3,2,14,3,1,k,purple,5ebb48aefede09116c27f0f8,2021-09-27_17h11.59,forced_choiceRT_color,2021.2.3,MacIntel,55.55555556,,,,,,,,,,,,,,,,,,,,,,,
,0,k,1,0.489,3,3,15,3,1,k,purple,5ebb48aefede09116c27f0f8,2021-09-27_17h11.59,forced_choiceRT_color,2021.2.3,MacIntel,55.55555556,,,,,,,,,,,,,,,,,,,,,,,
,0,d,1,0.512,4,0,16,0,1,d,orange,5ebb48aefede09116c27f0f8,2021-09-27_17h11.59,forced_choiceRT_color,2021.2.3,MacIntel,55.55555556,,,,,,,,,,,,,,,,,,,,,,,
,0,d,1,0.45,4,1,17,0,1,d,orange,5ebb48aefede09116c27f0f8,2021-09-27_17h11.59,forced_choiceRT_color,2021.2.3,MacIntel,55.55555556,,,,,,,,,,,,,,,,,,,,,,,
,0,k,1,0.606,4,2,18,3,1,k,purple,5ebb48aefede09116c27f0f8,2021-09-27_17h11.59,forced_choiceRT_color,2021.2.3,MacIntel,55.55555556,,,,,,,,,,,,,,,,,,,,,,,
,0,f,1,0.554,4,3,19,1,1,f,blue,5ebb48aefede09116c27f0f8,2021-09-27_17h11.59,forced_choiceRT_color,2021.2.3,MacIntel,55.55555556,,,,,,,,,,,,,,,,,,,,,,,
,0,k,1,0.548,5,0,20,3,1,k,purple,5ebb48aefede09116c27f0f8,2021-09-27_17h11.59,forced_choiceRT_color,2021.2.3,MacIntel,55.55555556,,,,,,,,,,,,,,,,,,,,,,,
,0,f,1,0.593,5,1,21,1,1,f,blue,5ebb48aefede09116c27f0f8,2021-09-27_17h11.59,forced_choiceRT_color,2021.2.3,MacIntel,55.55555556,,,,,,,,,,,,,,,,,,,,,,,
,0,f,1,0.687,5,2,22,1,1,f,blue,5ebb48aefede09116c27f0f8,2021-09-27_17h11.59,forced_choiceRT_color,2021.2.3,MacIntel,55.55555556,,,,,,,,,,,,,,,,,,,,,,,
,0,f,1,0.417,5,3,23,1,1,f,blue,5ebb48aefede09116c27f0f8,2021-09-27_17h11.59,forced_choiceRT_color,2021.2.3,MacIntel,55.55555556,,,,,,,,,,,,,,,,,,,,,,,
,0,j,1,0.573,6,0,24,2,1,j,red,5ebb48aefede09116c27f0f8,2021-09-27_17h11.59,forced_choiceRT_color,2021.2.3,MacIntel,55.55555556,,,,,,,,,,,,,,,,,,,,,,,
,0,f,1,0.523,6,1,25,1,1,f,blue,5ebb48aefede09116c27f0f8,2021-09-27_17h11.59,forced_choiceRT_color,2021.2.3,MacIntel,55.55555556,,,,,,,,,,,,,,,,,,,,,,,
,0,f,1,0.466,6,2,26,1,1,f,blue,5ebb48aefede09116c27f0f8,2021-09-27_17h11.59,forced_choiceRT_color,2021.2.3,MacIntel,55.55555556,,,,,,,,,,,,,,,,,,,,,,,
,0,j,1,0.569,6,3,27,2,1,j,red,5ebb48aefede09116c27f0f8,2021-09-27_17h11.59,forced_choiceRT_color,2021.2.3,MacIntel,55.55555556,,,,,,,,,,,,,,,,,,,,,,,
,0,j,1,0.477,7,0,28,2,1,j,red,5ebb48aefede09116c27f0f8,2021-09-27_17h11.59,forced_choiceRT_color,2021.2.3,MacIntel,55.55555556,,,,,,,,,,,,,,,,,,,,,,,
,0,j,1,0.519,7,1,29,2,1,j,red,5ebb48aefede09116c27f0f8,2021-09-27_17h11.59,forced_choiceRT_color,2021.2.3,MacIntel,55.55555556,,,,,,,,,,,,,,,,,,,,,,,
,0,d,1,0.544,7,2,30,0,1,d,orange,5ebb48aefede09116c27f0f8,2021-09-27_17h11.59,forced_choiceRT_color,2021.2.3,MacIntel,55.55555556,,,,,,,,,,,,,,,,,,,,,,,
,0,f,1,0.617,7,3,31,1,1,f,blue,5ebb48aefede09116c27f0f8,2021-09-27_17h11.59,forced_choiceRT_color,2021.2.3,MacIntel,55.55555556,,,,,,,,,,,,,,,,,,,,,,,
,0,j,1,0.6,8,0,32,2,1,j,red,5ebb48aefede09116c27f0f8,2021-09-27_17h11.59,forced_choiceRT_color,2021.2.3,MacIntel,55.55555556,,,,,,,,,,,,,,,,,,,,,,,
,0,k,1,0.588,8,1,33,3,1,k,purple,5ebb48aefede09116c27f0f8,2021-09-27_17h11.59,forced_choiceRT_color,2021.2.3,MacIntel,55.55555556,,,,,,,,,,,,,,,,,,,,,,,
,0,k,1,0.56,8,2,34,3,1,k,purple,5ebb48aefede09116c27f0f8,2021-09-27_17h11.59,forced_choiceRT_color,2021.2.3,MacIntel,55.55555556,,,,,,,,,,,,,,,,,,,,,,,
,0,d,1,0.554,8,3,35,0,1,d,orange,5ebb48aefede09116c27f0f8,2021-09-27_17h11.59,forced_choiceRT_color,2021.2.3,MacIntel,55.55555556,,,,,,,,,,,,,,,,,,,,,,,
,0,d,1,0.545,9,0,36,0,1,d,orange,5ebb48aefede09116c27f0f8,2021-09-27_17h11.59,forced_choiceRT_color,2021.2.3,MacIntel,55.55555556,,,,,,,,,,,,,,,,,,,,,,,
,0,f,1,0.482,9,1,37,1,1,f,blue,5ebb48aefede09116c27f0f8,2021-09-27_17h11.59,forced_choiceRT_color,2021.2.3,MacIntel,55.55555556,,,,,,,,,,,,,,,,,,,,,,,
,0,k,1,0.592,9,2,38,3,1,k,purple,5ebb48aefede09116c27f0f8,2021-09-27_17h11.59,forced_choiceRT_color,2021.2.3,MacIntel,55.55555556,,,,,,,,,,,,,,,,,,,,,,,
,0,k,1,0.554,9,3,39,3,1,k,purple,5ebb48aefede09116c27f0f8,2021-09-27_17h11.59,forced_choiceRT_color,2021.2.3,MacIntel,55.55555556,,,,,,,,,,,,,,,,,,,,,,,
,0,d,1,0.667,10,0,40,0,1,d,orange,5ebb48aefede09116c27f0f8,2021-09-27_17h11.59,forced_choiceRT_color,2021.2.3,MacIntel,55.55555556,,,,,,,,,,,,,,,,,,,,,,,
,0,d,1,0.824,10,1,41,0,1,d,orange,5ebb48aefede09116c27f0f8,2021-09-27_17h11.59,forced_choiceRT_color,2021.2.3,MacIntel,55.55555556,,,,,,,,,,,,,,,,,,,,,,,
,0,k,1,0.836,10,2,42,3,1,k,purple,5ebb48aefede09116c27f0f8,2021-09-27_17h11.59,forced_choiceRT_color,2021.2.3,MacIntel,55.55555556,,,,,,,,,,,,,,,,,,,,,,,
,0,f,1,0.579,10,3,43,1,1,f,blue,5ebb48aefede09116c27f0f8,2021-09-27_17h11.59,forced_choiceRT_color,2021.2.3,MacIntel,55.55555556,,,,,,,,,,,,,,,,,,,,,,,
,0,f,1,0.5,11,0,44,1,1,f,blue,5ebb48aefede09116c27f0f8,2021-09-27_17h11.59,forced_choiceRT_color,2021.2.3,MacIntel,55.55555556,,,,,,,,,,,,,,,,,,,,,,,
,0,d,1,0.542,11,1,45,0,1,d,orange,5ebb48aefede09116c27f0f8,2021-09-27_17h11.59,forced_choiceRT_color,2021.2.3,MacIntel,55.55555556,,,,,,,,,,,,,,,,,,,,,,,
,0,k,1,0.518,11,2,46,3,1,k,purple,5ebb48aefede09116c27f0f8,2021-09-27_17h11.59,forced_choiceRT_color,2021.2.3,MacIntel,55.55555556,,,,,,,,,,,,,,,,,,,,,,,
,0,j,1,0.476,11,3,47,2,1,j,red,5ebb48aefede09116c27f0f8,2021-09-27_17h11.59,forced_choiceRT_color,2021.2.3,MacIntel,55.55555556,,,,,,,,,,,,,,,,,,,,,,,
,0,k,1,0.684,12,0,48,3,1,k,purple,5ebb48aefede09116c27f0f8,2021-09-27_17h11.59,forced_choiceRT_color,2021.2.3,MacIntel,55.55555556,,,,,,,,,,,,,,,,,,,,,,,
,0,j,1,0.587,12,1,49,2,1,j,red,5ebb48aefede09116c27f0f8,2021-09-27_17h11.59,forced_choiceRT_color,2021.2.3,MacIntel,55.55555556,,,,,,,,,,,,,,,,,,,,,,,
,0,j,1,0.456,12,2,50,2,1,j,red,5ebb48aefede09116c27f0f8,2021-09-27_17h11.59,forced_choiceRT_color,2021.2.3,MacIntel,55.55555556,,,,,,,,,,,,,,,,,,,,,,,
,0,k,1,0.486,12,3,51,3,1,k,purple,5ebb48aefede09116c27f0f8,2021-09-27_17h11.59,forced_choiceRT_color,2021.2.3,MacIntel,55.55555556,,,,,,,,,,,,,,,,,,,,,,,
,0,k,1,0.769,13,0,52,3,1,k,purple,5ebb48aefede09116c27f0f8,2021-09-27_17h11.59,forced_choiceRT_color,2021.2.3,MacIntel,55.55555556,,,,,,,,,,,,,,,,,,,,,,,
,0,f,1,0.581,13,1,53,1,1,f,blue,5ebb48aefede09116c27f0f8,2021-09-27_17h11.59,forced_choiceRT_color,2021.2.3,MacIntel,55.55555556,,,,,,,,,,,,,,,,,,,,,,,
,0,d,1,0.708,13,2,54,0,1,d,orange,5ebb48aefede09116c27f0f8,2021-09-27_17h11.59,forced_choiceRT_color,2021.2.3,MacIntel,55.55555556,,,,,,,,,,,,,,,,,,,,,,,
,0,f,1,0.505,13,3,55,1,1,f,blue,5ebb48aefede09116c27f0f8,2021-09-27_17h11.59,forced_choiceRT_color,2021.2.3,MacIntel,55.55555556,,,,,,,,,,,,,,,,,,,,,,,
,0,d,1,0.602,14,0,56,0,1,d,orange,5ebb48aefede09116c27f0f8,2021-09-27_17h11.59,forced_choiceRT_color,2021.2.3,MacIntel,55.55555556,,,,,,,,,,,,,,,,,,,,,,,
,0,d,1,0.384,14,1,57,0,1,d,orange,5ebb48aefede09116c27f0f8,2021-09-27_17h11.59,forced_choiceRT_color,2021.2.3,MacIntel,55.55555556,,,,,,,,,,,,,,,,,,,,,,,
,0,f,1,0.792,14,2,58,1,1,f,blue,5ebb48aefede09116c27f0f8,2021-09-27_17h11.59,forced_choiceRT_color,2021.2.3,MacIntel,55.55555556,,,,,,,,,,,,,,,,,,,,,,,
,0,f,1,0.569,14,3,59,1,1,f,blue,5ebb48aefede09116c27f0f8,2021-09-27_17h11.59,forced_choiceRT_color,2021.2.3,MacIntel,55.55555556,,,,,,,,,,,,,,,,,,,,,,,
,,,,,,,,,,,,5ebb48aefede09116c27f0f8,2021-09-27_17h11.59,forced_choiceRT_color,2021.2.3,MacIntel,55.55555556,d,2.253,0,0,0,0,1,,,,,,,,,,,,,,,,
,,,,,,,,,,,,5ebb48aefede09116c27f0f8,2021-09-27_17h11.59,forced_choiceRT_color,2021.2.3,MacIntel,55.55555556,f,2.171,1,0,1,0,1,,,,,,,,,,,,,,,,
,,,,,,,,,,,,5ebb48aefede09116c27f0f8,2021-09-27_17h11.59,forced_choiceRT_color,2021.2.3,MacIntel,55.55555556,j,1.734,2,0,2,0,1,,,,,,,,,,,,,,,,
,,,,,,,,,,,,5ebb48aefede09116c27f0f8,2021-09-27_17h11.59,forced_choiceRT_color,2021.2.3,MacIntel,55.55555556,k,1.802,3,0,3,0,1,,,,,,,,,,,,,,,,
,,,,,,,,,,,,5ebb48aefede09116c27f0f8,2021-09-27_17h11.59,forced_choiceRT_color,2021.2.3,MacIntel,55.55555556,k,2.101,4,0,4,0,1,,,,,,,,,,,,,,,,
,,,,,,,,,,,,5ebb48aefede09116c27f0f8,2021-09-27_17h11.59,forced_choiceRT_color,2021.2.3,MacIntel,55.55555556,f,1.941,5,0,5,0,1,,,,,,,,,,,,,,,,
,,,,,,,,,,,,5ebb48aefede09116c27f0f8,2021-09-27_17h11.59,forced_choiceRT_color,2021.2.3,MacIntel,55.55555556,f,1.765,6,0,6,0,1,,,,,,,,,,,,,,,,
,,,,,,,,,,,,5ebb48aefede09116c27f0f8,2021-09-27_17h11.59,forced_choiceRT_color,2021.2.3,MacIntel,55.55555556,d,1.732,7,0,7,0,1,,,,,,,,,,,,,,,,
,,,,,,,,,,,,5ebb48aefede09116c27f0f8,2021-09-27_17h11.59,forced_choiceRT_color,2021.2.3,MacIntel,55.55555556,k,2.146,8,0,8,0,1,,,,,,,,,,,,,,,,
,,,,,,,,,,,,5ebb48aefede09116c27f0f8,2021-09-27_17h11.59,forced_choiceRT_color,2021.2.3,MacIntel,55.55555556,j,1.764,9,0,9,0,1,,,,,,,,,,,,,,,,
,,,,,,,,,,,,5ebb48aefede09116c27f0f8,2021-09-27_17h11.59,forced_choiceRT_color,2021.2.3,MacIntel,55.55555556,j,1.736,10,0,10,0,1,,,,,,,,,,,,,,,,
,,,,,,,,,,,,5ebb48aefede09116c27f0f8,2021-09-27_17h11.59,forced_choiceRT_color,2021.2.3,MacIntel,55.55555556,j,1.915,11,0,11,0,1,,,,,,,,,,,,,,,,
,,,,,,,,,,,,5ebb48aefede09116c27f0f8,2021-09-27_17h11.59,forced_choiceRT_color,2021.2.3,MacIntel,55.55555556,f,2.035,12,0,12,0,1,,,,,,,,,,,,,,,,
,,,,,,,,,,,,5ebb48aefede09116c27f0f8,2021-09-27_17h11.59,forced_choiceRT_color,2021.2.3,MacIntel,55.55555556,j,1.805,13,0,13,0,1,,,,,,,,,,,,,,,,
,,,,,,,,,,,,5ebb48aefede09116c27f0f8,2021-09-27_17h11.59,forced_choiceRT_color,2021.2.3,MacIntel,55.55555556,k,1.992,14,0,14,0,1,,,,,,,,,,,,,,,,
,,,,,,,,,,,,5ebb48aefede09116c27f0f8,2021-09-27_17h11.59,forced_choiceRT_color,2021.2.3,MacIntel,55.55555556,j,2.119,15,0,15,0,1,,,,,,,,,,,,,,,,
,,,,,,,,,,,,5ebb48aefede09116c27f0f8,2021-09-27_17h11.59,forced_choiceRT_color,2021.2.3,MacIntel,55.55555556,f,1.778,16,0,16,0,1,,,,,,,,,,,,,,,,
,,,,,,,,,,,,5ebb48aefede09116c27f0f8,2021-09-27_17h11.59,forced_choiceRT_color,2021.2.3,MacIntel,55.55555556,d,2.255,17,0,17,0,1,,,,,,,,,,,,,,,,
,,,,,,,,,,,,5ebb48aefede09116c27f0f8,2021-09-27_17h11.59,forced_choiceRT_color,2021.2.3,MacIntel,55.55555556,f,4.069,18,0,18,0,1,,,,,,,,,,,,,,,,
,,,,,,,,,,,,5ebb48aefede09116c27f0f8,2021-09-27_17h11.59,forced_choiceRT_color,2021.2.3,MacIntel,55.55555556,j,1.737,19,0,19,0,1,,,,,,,,,,,,,,,,
,1.46,,,,,,,,,k,purple,5ebb48aefede09116c27f0f8,2021-09-27_17h11.59,forced_choiceRT_color,2021.2.3,MacIntel,55.55555556,,,,,,,,1,Fast,long,f,0,1.846,0,0,0,3,1,,,,,
,1.72,,,,,,,,,j,red,5ebb48aefede09116c27f0f8,2021-09-27_17h11.59,forced_choiceRT_color,2021.2.3,MacIntel,55.55555556,,,,,,,,1,Slow,long,d,0,2.226,0,1,1,2,1,,,,,
,0.93,,,,,,,,,k,purple,5ebb48aefede09116c27f0f8,2021-09-27_17h11.59,forced_choiceRT_color,2021.2.3,MacIntel,55.55555556,,,,,,,,1,Fast,long,f,0,1.726,0,2,2,3,1,,,,,
,0.93,,,,,,,,,f,blue,5ebb48aefede09116c27f0f8,2021-09-27_17h11.59,forced_choiceRT_color,2021.2.3,MacIntel,55.55555556,,,,,,,,1,Fast,long,j,0,1.593,0,3,3,1,1,,,,,
,0.96,,,,,,,,,j,red,5ebb48aefede09116c27f0f8,2021-09-27_17h11.59,forced_choiceRT_color,2021.2.3,MacIntel,55.55555556,,,,,,,,1,Fast,long,d,0,1.893,1,0,4,2,1,,,,,
,1.38,,,,,,,,,k,purple,5ebb48aefede09116c27f0f8,2021-09-27_17h11.59,forced_choiceRT_color,2021.2.3,MacIntel,55.55555556,,,,,,,,1,Slow,long,f,0,2.337,1,1,5,3,1,,,,,
,1.08,,,,,,,,,d,orange,5ebb48aefede09116c27f0f8,2021-09-27_17h11.59,forced_choiceRT_color,2021.2.3,MacIntel,55.55555556,,,,,,,,1,Fast,long,k,0,1.782,1,2,6,0,1,,,,,
,1.98,,,,,,,,,d,orange,5ebb48aefede09116c27f0f8,2021-09-27_17h11.59,forced_choiceRT_color,2021.2.3,MacIntel,55.55555556,,,,,,,,1,Slow,long,f,0,2.377,1,3,7,0,1,,,,,
,0.81,,,,,,,,,j,red,5ebb48aefede09116c27f0f8,2021-09-27_17h11.59,forced_choiceRT_color,2021.2.3,MacIntel,55.55555556,,,,,,,,1,Fast,long,d,0,1.892,2,0,8,2,1,,,,,
,0.81,,,,,,,,,d,orange,5ebb48aefede09116c27f0f8,2021-09-27_17h11.59,forced_choiceRT_color,2021.2.3,MacIntel,55.55555556,,,,,,,,1,Fast,long,k,0,1.851,2,1,9,0,1,,,,,
,0.8,,,,,,,,,f,blue,5ebb48aefede09116c27f0f8,2021-09-27_17h11.59,forced_choiceRT_color,2021.2.3,MacIntel,55.55555556,,,,,,,,1,Ontime,long,j,0,1.932,2,2,10,1,1,,,,,
,1.44,,,,,,,,,k,purple,5ebb48aefede09116c27f0f8,2021-09-27_17h11.59,forced_choiceRT_color,2021.2.3,MacIntel,55.55555556,,,,,,,,1,Slow,long,f,0,2.352,2,3,11,3,1,,,,,
,1.88,,,,,,,,,j,red,5ebb48aefede09116c27f0f8,2021-09-27_17h11.59,forced_choiceRT_color,2021.2.3,MacIntel,55.55555556,,,,,,,,1,Slow,long,d,0,2.3,3,0,12,2,1,,,,,
,0.34,,,,,,,,,j,red,5ebb48aefede09116c27f0f8,2021-09-27_17h11.59,forced_choiceRT_color,2021.2.3,MacIntel,55.55555556,,,,,,,,1,Fast,long,d,0,1.76,3,1,13,2,1,,,,,
,0.32,,,,,,,,,j,red,5ebb48aefede09116c27f0f8,2021-09-27_17h11.59,forced_choiceRT_color,2021.2.3,MacIntel,55.55555556,,,,,,,,1,Ontime,long,d,0,2.061,3,2,14,2,1,,,,,
,1.67,,,,,,,,,f,blue,5ebb48aefede09116c27f0f8,2021-09-27_17h11.59,forced_choiceRT_color,2021.2.3,MacIntel,55.55555556,,,,,,,,1,Slow,long,j,0,2.552,3,3,15,1,1,,,,,
,0.54,,,,,,,,,f,blue,5ebb48aefede09116c27f0f8,2021-09-27_17h11.59,forced_choiceRT_color,2021.2.3,MacIntel,55.55555556,,,,,,,,1,Ontime,long,j,0,2.02,4,0,16,1,1,,,,,
,1.56,,,,,,,,,f,blue,5ebb48aefede09116c27f0f8,2021-09-27_17h11.59,forced_choiceRT_color,2021.2.3,MacIntel,55.55555556,,,,,,,,1,Slow,long,j,0,2.261,4,1,17,1,1,,,,,
,1.41,,,,,,,,,d,orange,5ebb48aefede09116c27f0f8,2021-09-27_17h11.59,forced_choiceRT_color,2021.2.3,MacIntel,55.55555556,,,,,,,,1,Ontime,long,k,0,1.993,4,2,18,0,1,,,,,
,1.07,,,,,,,,,f,blue,5ebb48aefede09116c27f0f8,2021-09-27_17h11.59,forced_choiceRT_color,2021.2.3,MacIntel,55.55555556,,,,,,,,1,Fast,long,j,0,1.789,4,3,19,1,1,,,,,
,0.09,,,,,,,,,k,purple,5ebb48aefede09116c27f0f8,2021-09-27_17h11.59,forced_choiceRT_color,2021.2.3,MacIntel,55.55555556,,,,,,,,1,Ontime,long,f,0,2.073,5,0,20,3,1,,,,,
,1.33,,,,,,,,,f,blue,5ebb48aefede09116c27f0f8,2021-09-27_17h11.59,forced_choiceRT_color,2021.2.3,MacIntel,55.55555556,,,,,,,,1,Ontime,long,j,0,2.056,5,1,21,1,1,,,,,
,1.04,,,,,,,,,f,blue,5ebb48aefede09116c27f0f8,2021-09-27_17h11.59,forced_choiceRT_color,2021.2.3,MacIntel,55.55555556,,,,,,,,1,Ontime,long,j,0,1.921,5,2,22,1,1,,,,,
,1.67,,,,,,,,,j,red,5ebb48aefede09116c27f0f8,2021-09-27_17h11.59,forced_choiceRT_color,2021.2.3,MacIntel,55.55555556,,,,,,,,1,Slow,long,d,0,2.426,5,3,23,2,1,,,,,
,1.54,,,,,,,,,k,purple,5ebb48aefede09116c27f0f8,2021-09-27_17h11.59,forced_choiceRT_color,2021.2.3,MacIntel,55.55555556,,,,,,,,1,Slow,long,j,0,2.292,6,0,24,3,1,,,,,
,1.65,,,,,,,,,j,red,5ebb48aefede09116c27f0f8,2021-09-27_17h11.59,forced_choiceRT_color,2021.2.3,MacIntel,55.55555556,,,,,,,,1,Slow,long,f,0,2.256,6,1,25,2,1,,,,,
,0.14,,,,,,,,,d,orange,5ebb48aefede09116c27f0f8,2021-09-27_17h11.59,forced_choiceRT_color,2021.2.3,MacIntel,55.55555556,,,,,,,,1,Fast,long,k,0,1.723,6,2,26,0,1,,,,,
,1.78,,,,,,,,,f,blue,5ebb48aefede09116c27f0f8,2021-09-27_17h11.59,forced_choiceRT_color,2021.2.3,MacIntel,55.55555556,,,,,,,,1,Slow,long,j,0,2.306,6,3,27,1,1,,,,,
,0.3,,,,,,,,,k,purple,5ebb48aefede09116c27f0f8,2021-09-27_17h11.59,forced_choiceRT_color,2021.2.3,MacIntel,55.55555556,,,,,,,,1,Slow,long,f,0,2.101,7,0,28,3,1,,,,,
,1.19,,,,,,,,,k,purple,5ebb48aefede09116c27f0f8,2021-09-27_17h11.59,forced_choiceRT_color,2021.2.3,MacIntel,55.55555556,,,,,,,,1,Ontime,long,f,0,2.058,7,1,29,3,1,,,,,
,1.19,,,,,,,,,d,orange,5ebb48aefede09116c27f0f8,2021-09-27_17h11.59,forced_choiceRT_color,2021.2.3,MacIntel,55.55555556,,,,,,,,1,Ontime,long,j,0,1.945,7,2,30,0,1,,,,,
,0.85,,,,,,,,,k,purple,5ebb48aefede09116c27f0f8,2021-09-27_17h11.59,forced_choiceRT_color,2021.2.3,MacIntel,55.55555556,,,,,,,,1,Fast,long,f,0,1.877,7,3,31,3,1,,,,,
,0.88,,,,,,,,,d,orange,5ebb48aefede09116c27f0f8,2021-09-27_17h11.59,forced_choiceRT_color,2021.2.3,MacIntel,55.55555556,,,,,,,,1,Ontime,long,j,0,2.019,8,0,32,0,1,,,,,
,0.64,,,,,,,,,k,purple,5ebb48aefede09116c27f0f8,2021-09-27_17h11.59,forced_choiceRT_color,2021.2.3,MacIntel,55.55555556,,,,,,,,1,Fast,long,f,0,1.826,8,1,33,3,1,,,,,
,0.66,,,,,,,,,f,blue,5ebb48aefede09116c27f0f8,2021-09-27_17h11.59,forced_choiceRT_color,2021.2.3,MacIntel,55.55555556,,,,,,,,1,Fast,long,j,0,1.791,8,2,34,1,1,,,,,
,1.15,,,,,,,,,d,orange,5ebb48aefede09116c27f0f8,2021-09-27_17h11.59,forced_choiceRT_color,2021.2.3,MacIntel,55.55555556,,,,,,,,1,Slow,long,k,0,2.239,8,3,35,0,1,,,,,
,1.57,,,,,,,,,j,red,5ebb48aefede09116c27f0f8,2021-09-27_17h11.59,forced_choiceRT_color,2021.2.3,MacIntel,55.55555556,,,,,,,,1,Slow,long,d,0,2.258,9,0,36,2,1,,,,,
,1.14,,,,,,,,,d,orange,5ebb48aefede09116c27f0f8,2021-09-27_17h11.59,forced_choiceRT_color,2021.2.3,MacIntel,55.55555556,,,,,,,,1,Ontime,long,k,0,1.905,9,1,37,0,1,,,,,
,1.9,,,,,,,,,d,orange,5ebb48aefede09116c27f0f8,2021-09-27_17h11.59,forced_choiceRT_color,2021.2.3,MacIntel,55.55555556,,,,,,,,1,Slow,long,k,0,2.341,9,2,38,0,1,,,,,
,1.81,,,,,,,,,j,red,5ebb48aefede09116c27f0f8,2021-09-27_17h11.59,forced_choiceRT_color,2021.2.3,MacIntel,55.55555556,,,,,,,,1,Slow,long,j,1,2.315,9,3,39,2,1,,,,,
,,,,,,,,,,,,5ebb48aefede09116c27f0f8,2021-09-27_17h11.59,forced_choiceRT_color,2021.2.3,MacIntel,55.55555556,,,,,,,,,,,,,,,,,,,0,0,0,0,1
,0.24,,,,,,,,,j,red,5ebb48aefede09116c27f0f8,2021-09-27_17h11.59,forced_choiceRT_color,2021.2.3,MacIntel,55.55555556,,,,,,,,2,Fast,long,j,1,1.89,0,0,0,2,1,,,,,
,1.37,,,,,,,,,k,purple,5ebb48aefede09116c27f0f8,2021-09-27_17h11.59,forced_choiceRT_color,2021.2.3,MacIntel,55.55555556,,,,,,,,2,Ontime,long,j,0,2.067,0,1,1,3,1,,,,,
,0.25,,,,,,,,,f,blue,5ebb48aefede09116c27f0f8,2021-09-27_17h11.59,forced_choiceRT_color,2021.2.3,MacIntel,55.55555556,,,,,,,,2,Ontime,long,f,1,1.945,0,2,2,1,1,,,,,
,1.4,,,,,,,,,k,purple,5ebb48aefede09116c27f0f8,2021-09-27_17h11.59,forced_choiceRT_color,2021.2.3,MacIntel,55.55555556,,,,,,,,2,Slow,long,d,0,2.124,0,3,3,3,1,,,,,
,1.64,,,,,,,,,j,red,5ebb48aefede09116c27f0f8,2021-09-27_17h11.59,forced_choiceRT_color,2021.2.3,MacIntel,55.55555556,,,,,,,,2,Slow,long,j,1,2.115,1,0,4,2,1,,,,,
,1.3,,,,,,,,,k,purple,5ebb48aefede09116c27f0f8,2021-09-27_17h11.59,forced_choiceRT_color,2021.2.3,MacIntel,55.55555556,,,,,,,,2,Ontime,long,k,1,1.985,1,1,5,3,1,,,,,
,0.73,,,,,,,,,k,purple,5ebb48aefede09116c27f0f8,2021-09-27_17h11.59,forced_choiceRT_color,2021.2.3,MacIntel,55.55555556,,,,,,,,2,Fast,long,k,1,1.775,1,2,6,3,1,,,,,
,0.64,,,,,,,,,d,orange,5ebb48aefede09116c27f0f8,2021-09-27_17h11.59,forced_choiceRT_color,2021.2.3,MacIntel,55.55555556,,,,,,,,2,Fast,long,d,1,1.775,1,3,7,0,1,,,,,
,1.97,,,,,,,,,d,orange,5ebb48aefede09116c27f0f8,2021-09-27_17h11.59,forced_choiceRT_color,2021.2.3,MacIntel,55.55555556,,,,,,,,2,Slow,long,k,0,2.377,2,0,8,0,1,,,,,
,1.65,,,,,,,,,j,red,5ebb48aefede09116c27f0f8,2021-09-27_17h11.59,forced_choiceRT_color,2021.2.3,MacIntel,55.55555556,,,,,,,,2,Slow,long,j,1,2.218,2,1,9,2,1,,,,,
,0.02,,,,,,,,,d,orange,5ebb48aefede09116c27f0f8,2021-09-27_17h11.59,forced_choiceRT_color,2021.2.3,MacIntel,55.55555556,,,,,,,,2,Ontime,long,d,1,1.936,2,2,10,0,1,,,,,
,1.2,,,,,,,,,d,orange,5ebb48aefede09116c27f0f8,2021-09-27_17h11.59,forced_choiceRT_color,2021.2.3,MacIntel,55.55555556,,,,,,,,2,Ontime,long,d,1,2.005,2,3,11,0,1,,,,,
,0.35,,,,,,,,,k,purple,5ebb48aefede09116c27f0f8,2021-09-27_17h11.59,forced_choiceRT_color,2021.2.3,MacIntel,55.55555556,,,,,,,,2,Ontime,long,k,1,1.975,3,0,12,3,1,,,,,
,0.42,,,,,,,,,j,red,5ebb48aefede09116c27f0f8,2021-09-27_17h11.59,forced_choiceRT_color,2021.2.3,MacIntel,55.55555556,,,,,,,,2,Ontime,long,j,1,1.91,3,1,13,2,1,,,,,
,0.17,,,,,,,,,d,orange,5ebb48aefede09116c27f0f8,2021-09-27_17h11.59,forced_choiceRT_color,2021.2.3,MacIntel,55.55555556,,,,,,,,2,Fast,long,d,1,1.754,3,2,14,0,1,,,,,
,0.38,,,,,,,,,k,purple,5ebb48aefede09116c27f0f8,2021-09-27_17h11.59,forced_choiceRT_color,2021.2.3,MacIntel,55.55555556,,,,,,,,2,Fast,long,k,1,1.804,3,3,15,3,1,,,,,
,1.73,,,,,,,,,j,red,5ebb48aefede09116c27f0f8,2021-09-27_17h11.59,forced_choiceRT_color,2021.2.3,MacIntel,55.55555556,,,,,,,,2,Slow,long,j,1,2.259,4,0,16,2,1,,,,,
,1.79,,,,,,,,,f,blue,5ebb48aefede09116c27f0f8,2021-09-27_17h11.59,forced_choiceRT_color,2021.2.3,MacIntel,55.55555556,,,,,,,,2,Ontime,long,k,0,2.083,4,1,17,1,1,,,,,
,0.73,,,,,,,,,d,orange,5ebb48aefede09116c27f0f8,2021-09-27_17h11.59,forced_choiceRT_color,2021.2.3,MacIntel,55.55555556,,,,,,,,2,Fast,long,d,1,1.81,4,2,18,0,1,,,,,
,0.88,,,,,,,,,j,red,5ebb48aefede09116c27f0f8,2021-09-27_17h11.59,forced_choiceRT_color,2021.2.3,MacIntel,55.55555556,,,,,,,,2,Ontime,long,j,1,1.949,4,3,19,2,1,,,,,
,0.62,,,,,,,,,k,purple,5ebb48aefede09116c27f0f8,2021-09-27_17h11.59,forced_choiceRT_color,2021.2.3,MacIntel,55.55555556,,,,,,,,2,Fast,long,k,1,1.255,5,0,20,3,1,,,,,
,0.53,,,,,,,,,f,blue,5ebb48aefede09116c27f0f8,2021-09-27_17h11.59,forced_choiceRT_color,2021.2.3,MacIntel,55.55555556,,,,,,,,2,Ontime,long,f,1,1.99,5,1,21,1,1,,,,,
,0.99,,,,,,,,,j,red,5ebb48aefede09116c27f0f8,2021-09-27_17h11.59,forced_choiceRT_color,2021.2.3,MacIntel,55.55555556,,,,,,,,2,Fast,long,j,1,1.81,5,2,22,2,1,,,,,
,1.01,,,,,,,,,f,blue,5ebb48aefede09116c27f0f8,2021-09-27_17h11.59,forced_choiceRT_color,2021.2.3,MacIntel,55.55555556,,,,,,,,2,Ontime,long,f,1,1.949,5,3,23,1,1,,,,,
,0.98,,,,,,,,,f,blue,5ebb48aefede09116c27f0f8,2021-09-27_17h11.59,forced_choiceRT_color,2021.2.3,MacIntel,55.55555556,,,,,,,,2,Ontime,long,f,1,2.051,6,0,24,1,1,,,,,
,1.76,,,,,,,,,f,blue,5ebb48aefede09116c27f0f8,2021-09-27_17h11.59,forced_choiceRT_color,2021.2.3,MacIntel,55.55555556,,,,,,,,2,Slow,long,f,1,2.257,6,1,25,1,1,,,,,
,1.25,,,,,,,,,f,blue,5ebb48aefede09116c27f0f8,2021-09-27_17h11.59,forced_choiceRT_color,2021.2.3,MacIntel,55.55555556,,,,,,,,2,Fast,long,f,1,1.869,6,2,26,1,1,,,,,
,0.24,,,,,,,,,j,red,5ebb48aefede09116c27f0f8,2021-09-27_17h11.59,forced_choiceRT_color,2021.2.3,MacIntel,55.55555556,,,,,,,,2,Ontime,long,j,1,2.067,6,3,27,2,1,,,,,
,0.13,,,,,,,,,f,blue,5ebb48aefede09116c27f0f8,2021-09-27_17h11.59,forced_choiceRT_color,2021.2.3,MacIntel,55.55555556,,,,,,,,2,Fast,long,f,1,1.775,7,0,28,1,1,,,,,
,0.06,,,,,,,,,j,red,5ebb48aefede09116c27f0f8,2021-09-27_17h11.59,forced_choiceRT_color,2021.2.3,MacIntel,55.55555556,,,,,,,,2,Ontime,long,j,1,1.936,7,1,29,2,1,,,,,
,0,,,,,,,,,j,red,5ebb48aefede09116c27f0f8,2021-09-27_17h11.59,forced_choiceRT_color,2021.2.3,MacIntel,55.55555556,,,,,,,,2,Ontime,long,j,1,1.933,7,2,30,2,1,,,,,
,1.21,,,,,,,,,d,orange,5ebb48aefede09116c27f0f8,2021-09-27_17h11.59,forced_choiceRT_color,2021.2.3,MacIntel,55.55555556,,,,,,,,2,Ontime,long,d,1,1.991,7,3,31,0,1,,,,,
,1.73,,,,,,,,,k,purple,5ebb48aefede09116c27f0f8,2021-09-27_17h11.59,forced_choiceRT_color,2021.2.3,MacIntel,55.55555556,,,,,,,,2,Slow,long,j,0,2.233,8,0,32,3,1,,,,,
,0.29,,,,,,,,,d,orange,5ebb48aefede09116c27f0f8,2021-09-27_17h11.59,forced_choiceRT_color,2021.2.3,MacIntel,55.55555556,,,,,,,,2,Ontime,long,d,1,1.955,8,1,33,0,1,,,,,
,0.39,,,,,,,,,f,blue,5ebb48aefede09116c27f0f8,2021-09-27_17h11.59,forced_choiceRT_color,2021.2.3,MacIntel,55.55555556,,,,,,,,2,Ontime,long,j,0,1.925,8,2,34,1,1,,,,,
,1.94,,,,,,,,,k,purple,5ebb48aefede09116c27f0f8,2021-09-27_17h11.59,forced_choiceRT_color,2021.2.3,MacIntel,55.55555556,,,,,,,,2,Slow,long,j,0,2.374,8,3,35,3,1,,,,,
,1.06,,,,,,,,,f,blue,5ebb48aefede09116c27f0f8,2021-09-27_17h11.59,forced_choiceRT_color,2021.2.3,MacIntel,55.55555556,,,,,,,,2,Fast,long,j,0,1.823,9,0,36,1,1,,,,,
,1.32,,,,,,,,,d,orange,5ebb48aefede09116c27f0f8,2021-09-27_17h11.59,forced_choiceRT_color,2021.2.3,MacIntel,55.55555556,,,,,,,,2,Ontime,long,d,1,2.072,9,1,37,0,1,,,,,
,1.92,,,,,,,,,k,purple,5ebb48aefede09116c27f0f8,2021-09-27_17h11.59,forced_choiceRT_color,2021.2.3,MacIntel,55.55555556,,,,,,,,2,Slow,long,j,0,2.493,9,2,38,3,1,,,,,
,1.86,,,,,,,,,d,orange,5ebb48aefede09116c27f0f8,2021-09-27_17h11.59,forced_choiceRT_color,2021.2.3,MacIntel,55.55555556,,,,,,,,2,Slow,long,k,0,2.275,9,3,39,0,1,,,,,
,,,,,,,,,,,,5ebb48aefede09116c27f0f8,2021-09-27_17h11.59,forced_choiceRT_color,2021.2.3,MacIntel,55.55555556,,,,,,,,,,,,,,,,,,,1,0,1,0,1
,0.37,,,,,,,,,k,purple,5ebb48aefede09116c27f0f8,2021-09-27_17h11.59,forced_choiceRT_color,2021.2.3,MacIntel,55.55555556,,,,,,,,3,Fast,long,j,0,1.853,0,0,0,3,1,,,,,
,0.38,,,,,,,,,d,orange,5ebb48aefede09116c27f0f8,2021-09-27_17h11.59,forced_choiceRT_color,2021.2.3,MacIntel,55.55555556,,,,,,,,3,Ontime,long,d,1,2.083,0,1,1,0,1,,,,,
,0.32,,,,,,,,,d,orange,5ebb48aefede09116c27f0f8,2021-09-27_17h11.59,forced_choiceRT_color,2021.2.3,MacIntel,55.55555556,,,,,,,,3,Slow,long,d,1,2.148,0,2,2,0,1,,,,,
,1.42,,,,,,,,,d,orange,5ebb48aefede09116c27f0f8,2021-09-27_17h11.59,forced_choiceRT_color,2021.2.3,MacIntel,55.55555556,,,,,,,,3,Slow,long,d,1,2.124,0,3,3,0,1,,,,,
,1.7,,,,,,,,,j,red,5ebb48aefede09116c27f0f8,2021-09-27_17h11.59,forced_choiceRT_color,2021.2.3,MacIntel,55.55555556,,,,,,,,3,Slow,long,j,1,2.35,1,0,4,2,1,,,,,
,0.8,,,,,,,,,f,blue,5ebb48aefede09116c27f0f8,2021-09-27_17h11.59,forced_choiceRT_color,2021.2.3,MacIntel,55.55555556,,,,,,,,3,Ontime,long,f,1,1.987,1,1,5,1,1,,,,,
,1.42,,,,,,,,,k,purple,5ebb48aefede09116c27f0f8,2021-09-27_17h11.59,forced_choiceRT_color,2021.2.3,MacIntel,55.55555556,,,,,,,,3,Ontime,long,j,0,2.076,1,2,6,3,1,,,,,
,0.07,,,,,,,,,k,purple,5ebb48aefede09116c27f0f8,2021-09-27_17h11.59,forced_choiceRT_color,2021.2.3,MacIntel,55.55555556,,,,,,,,3,Ontime,long,j,0,1.985,1,3,7,3,1,,,,,
,0.07,,,,,,,,,k,purple,5ebb48aefede09116c27f0f8,2021-09-27_17h11.59,forced_choiceRT_color,2021.2.3,MacIntel,55.55555556,,,,,,,,3,Ontime,long,j,0,2,2,0,8,3,1,,,,,
,1.68,,,,,,,,,k,purple,5ebb48aefede09116c27f0f8,2021-09-27_17h11.59,forced_choiceRT_color,2021.2.3,MacIntel,55.55555556,,,,,,,,3,Slow,long,j,0,2.29,2,1,9,3,1,,,,,
,1.34,,,,,,,,,d,orange,5ebb48aefede09116c27f0f8,2021-09-27_17h11.59,forced_choiceRT_color,2021.2.3,MacIntel,55.55555556,,,,,,,,3,Ontime,long,d,1,2.085,2,2,10,0,1,,,,,
,1.72,,,,,,,,,k,purple,5ebb48aefede09116c27f0f8,2021-09-27_17h11.59,forced_choiceRT_color,2021.2.3,MacIntel,55.55555556,,,,,,,,3,Slow,long,j,0,2.287,2,3,11,3,1,,,,,
,1.79,,,,,,,,,j,red,5ebb48aefede09116c27f0f8,2021-09-27_17h11.59,forced_choiceRT_color,2021.2.3,MacIntel,55.55555556,,,,,,,,3,Slow,long,j,1,2.3,3,0,12,2,1,,,,,
,1.79,,,,,,,,,j,red,5ebb48aefede09116c27f0f8,2021-09-27_17h11.59,forced_choiceRT_color,2021.2.3,MacIntel,55.55555556,,,,,,,,3,Slow,long,j,1,2.153,3,1,13,2,1,,,,,
,0.85,,,,,,,,,j,red,5ebb48aefede09116c27f0f8,2021-09-27_17h11.59,forced_choiceRT_color,2021.2.3,MacIntel,55.55555556,,,,,,,,3,Fast,long,j,1,1.586,3,2,14,2,1,,,,,
,1.57,,,,,,,,,d,orange,5ebb48aefede09116c27f0f8,2021-09-27_17h11.59,forced_choiceRT_color,2021.2.3,MacIntel,55.55555556,,,,,,,,3,Slow,long,d,1,2.132,3,3,15,0,1,,,,,
,1.67,,,,,,,,,f,blue,5ebb48aefede09116c27f0f8,2021-09-27_17h11.59,forced_choiceRT_color,2021.2.3,MacIntel,55.55555556,,,,,,,,3,Slow,long,f,1,2.257,4,0,16,1,1,,,,,
,0.33,,,,,,,,,f,blue,5ebb48aefede09116c27f0f8,2021-09-27_17h11.59,forced_choiceRT_color,2021.2.3,MacIntel,55.55555556,,,,,,,,3,Ontime,long,f,1,1.994,4,1,17,1,1,,,,,
,1.49,,,,,,,,,j,red,5ebb48aefede09116c27f0f8,2021-09-27_17h11.59,forced_choiceRT_color,2021.2.3,MacIntel,55.55555556,,,,,,,,3,Ontime,long,j,1,1.905,4,2,18,2,1,,,,,
,0.25,,,,,,,,,j,red,5ebb48aefede09116c27f0f8,2021-09-27_17h11.59,forced_choiceRT_color,2021.2.3,MacIntel,55.55555556,,,,,,,,3,Fast,long,j,1,1.741,4,3,19,2,1,,,,,
,0.71,,,,,,,,,f,blue,5ebb48aefede09116c27f0f8,2021-09-27_17h11.59,forced_choiceRT_color,2021.2.3,MacIntel,55.55555556,,,,,,,,3,Ontime,long,f,1,2.036,5,0,20,1,1,,,,,
,1.4,,,,,,,,,k,purple,5ebb48aefede09116c27f0f8,2021-09-27_17h11.59,forced_choiceRT_color,2021.2.3,MacIntel,55.55555556,,,,,,,,3,Ontime,long,k,1,2.096,5,1,21,3,1,,,,,
,1.87,,,,,,,,,d,orange,5ebb48aefede09116c27f0f8,2021-09-27_17h11.59,forced_choiceRT_color,2021.2.3,MacIntel,55.55555556,,,,,,,,3,Slow,long,d,1,2.374,5,2,22,0,1,,,,,
,1.91,,,,,,,,,k,purple,5ebb48aefede09116c27f0f8,2021-09-27_17h11.59,forced_choiceRT_color,2021.2.3,MacIntel,55.55555556,,,,,,,,3,Slow,long,k,1,2.424,5,3,23,3,1,,,,,
,1.52,,,,,,,,,f,blue,5ebb48aefede09116c27f0f8,2021-09-27_17h11.59,forced_choiceRT_color,2021.2.3,MacIntel,55.55555556,,,,,,,,3,Ontime,long,j,0,2.05,6,0,24,1,1,,,,,
,1.45,,,,,,,,,k,purple,5ebb48aefede09116c27f0f8,2021-09-27_17h11.59,forced_choiceRT_color,2021.2.3,MacIntel,55.55555556,,,,,,,,3,Ontime,long,f,0,2.038,6,1,25,3,1,,,,,
,0.37,,,,,,,,,d,orange,5ebb48aefede09116c27f0f8,2021-09-27_17h11.59,forced_choiceRT_color,2021.2.3,MacIntel,55.55555556,,,,,,,,3,Fast,long,d,1,1.405,6,2,26,0,1,,,,,
,0.55,,,,,,,,,j,red,5ebb48aefede09116c27f0f8,2021-09-27_17h11.59,forced_choiceRT_color,2021.2.3,MacIntel,55.55555556,,,,,,,,3,Ontime,long,j,1,2.028,6,3,27,2,1,,,,,
,0.89,,,,,,,,,d,orange,5ebb48aefede09116c27f0f8,2021-09-27_17h11.59,forced_choiceRT_color,2021.2.3,MacIntel,55.55555556,,,,,,,,3,Ontime,long,d,1,2.04,7,0,28,0,1,,,,,
,1.04,,,,,,,,,d,orange,5ebb48aefede09116c27f0f8,2021-09-27_17h11.59,forced_choiceRT_color,2021.2.3,MacIntel,55.55555556,,,,,,,,3,Fast,long,d,1,1.851,7,1,29,0,1,,,,,
,1.94,,,,,,,,,f,blue,5ebb48aefede09116c27f0f8,2021-09-27_17h11.59,forced_choiceRT_color,2021.2.3,MacIntel,55.55555556,,,,,,,,3,Slow,long,k,0,2.303,7,2,30,1,1,,,,,
,1.85,,,,,,,,,f,blue,5ebb48aefede09116c27f0f8,2021-09-27_17h11.59,forced_choiceRT_color,2021.2.3,MacIntel,55.55555556,,,,,,,,3,Fast,long,f,1,0.876,7,3,31,1,1,,,,,
,0.18,,,,,,,,,f,blue,5ebb48aefede09116c27f0f8,2021-09-27_17h11.59,forced_choiceRT_color,2021.2.3,MacIntel,55.55555556,,,,,,,,3,Ontime,long,f,1,1.944,8,0,32,1,1,,,,,
,1.18,,,,,,,,,j,red,5ebb48aefede09116c27f0f8,2021-09-27_17h11.59,forced_choiceRT_color,2021.2.3,MacIntel,55.55555556,,,,,,,,3,Slow,long,j,1,2.255,8,1,33,2,1,,,,,
,0.6,,,,,,,,,d,orange,5ebb48aefede09116c27f0f8,2021-09-27_17h11.59,forced_choiceRT_color,2021.2.3,MacIntel,55.55555556,,,,,,,,3,Ontime,long,d,1,2.032,8,2,34,0,1,,,,,
,0.56,,,,,,,,,j,red,5ebb48aefede09116c27f0f8,2021-09-27_17h11.59,forced_choiceRT_color,2021.2.3,MacIntel,55.55555556,,,,,,,,3,Fast,long,j,1,1.866,8,3,35,2,1,,,,,
,1.65,,,,,,,,,k,purple,5ebb48aefede09116c27f0f8,2021-09-27_17h11.59,forced_choiceRT_color,2021.2.3,MacIntel,55.55555556,,,,,,,,3,Slow,long,f,0,2.355,9,0,36,3,1,,,,,
,1.06,,,,,,,,,f,blue,5ebb48aefede09116c27f0f8,2021-09-27_17h11.59,forced_choiceRT_color,2021.2.3,MacIntel,55.55555556,,,,,,,,3,Fast,long,f,1,1.849,9,1,37,1,1,,,,,
,1.65,,,,,,,,,f,blue,5ebb48aefede09116c27f0f8,2021-09-27_17h11.59,forced_choiceRT_color,2021.2.3,MacIntel,55.55555556,,,,,,,,3,Slow,long,f,1,2.235,9,2,38,1,1,,,,,
,0.05,,,,,,,,,j,red,5ebb48aefede09116c27f0f8,2021-09-27_17h11.59,forced_choiceRT_color,2021.2.3,MacIntel,55.55555556,,,,,,,,3,Ontime,long,j,1,2,9,3,39,2,1,,,,,
,,,,,,,,,,,,5ebb48aefede09116c27f0f8,2021-09-27_17h11.59,forced_choiceRT_color,2021.2.3,MacIntel,55.55555556,,,,,,,,,,,,,,,,,,,2,0,2,0,1
,1.82,,,,,,,,,j,red,5ebb48aefede09116c27f0f8,2021-09-27_17h11.59,forced_choiceRT_color,2021.2.3,MacIntel,55.55555556,,,,,,,,4,Slow,long,j,1,2.371,0,0,0,2,1,,,,,
,0.69,,,,,,,,,d,orange,5ebb48aefede09116c27f0f8,2021-09-27_17h11.59,forced_choiceRT_color,2021.2.3,MacIntel,55.55555556,,,,,,,,4,Ontime,long,d,1,2.035,0,1,1,0,1,,,,,
,0.16,,,,,,,,,k,purple,5ebb48aefede09116c27f0f8,2021-09-27_17h11.59,forced_choiceRT_color,2021.2.3,MacIntel,55.55555556,,,,,,,,4,Ontime,long,k,1,1.973,0,2,2,3,1,,,,,
,1.63,,,,,,,,,f,blue,5ebb48aefede09116c27f0f8,2021-09-27_17h11.59,forced_choiceRT_color,2021.2.3,MacIntel,55.55555556,,,,,,,,4,Ontime,long,j,0,2.042,0,3,3,1,1,,,,,
,0.34,,,,,,,,,j,red,5ebb48aefede09116c27f0f8,2021-09-27_17h11.59,forced_choiceRT_color,2021.2.3,MacIntel,55.55555556,,,,,,,,4,Fast,long,j,1,1.824,1,0,4,2,1,,,,,
,1.8,,,,,,,,,k,purple,5ebb48aefede09116c27f0f8,2021-09-27_17h11.59,forced_choiceRT_color,2021.2.3,MacIntel,55.55555556,,,,,,,,4,Slow,long,d,0,2.344,1,1,5,3,1,,,,,
,1.45,,,,,,,,,d,orange,5ebb48aefede09116c27f0f8,2021-09-27_17h11.59,forced_choiceRT_color,2021.2.3,MacIntel,55.55555556,,,,,,,,4,Ontime,long,j,0,2.04,1,2,6,0,1,,,,,
,1.52,,,,,,,,,f,blue,5ebb48aefede09116c27f0f8,2021-09-27_17h11.59,forced_choiceRT_color,2021.2.3,MacIntel,55.55555556,,,,,,,,4,Slow,long,f,1,2.127,1,3,7,1,1,,,,,
,1.28,,,,,,,,,j,red,5ebb48aefede09116c27f0f8,2021-09-27_17h11.59,forced_choiceRT_color,2021.2.3,MacIntel,55.55555556,,,,,,,,4,Slow,long,j,1,2.496,2,0,8,2,1,,,,,
,0.04,,,,,,,,,j,red,5ebb48aefede09116c27f0f8,2021-09-27_17h11.59,forced_choiceRT_color,2021.2.3,MacIntel,55.55555556,,,,,,,,4,Ontime,long,j,1,2.034,2,1,9,2,1,,,,,
,0.73,,,,,,,,,f,blue,5ebb48aefede09116c27f0f8,2021-09-27_17h11.59,forced_choiceRT_color,2021.2.3,MacIntel,55.55555556,,,,,,,,4,Fast,long,d,0,1.867,2,2,10,1,1,,,,,
,1.14,,,,,,,,,d,orange,5ebb48aefede09116c27f0f8,2021-09-27_17h11.59,forced_choiceRT_color,2021.2.3,MacIntel,55.55555556,,,,,,,,4,Fast,long,d,1,1.833,2,3,11,0,1,,,,,
,1.12,,,,,,,,,f,blue,5ebb48aefede09116c27f0f8,2021-09-27_17h11.59,forced_choiceRT_color,2021.2.3,MacIntel,55.55555556,,,,,,,,4,Ontime,long,f,1,1.954,3,0,12,1,1,,,,,
,1.81,,,,,,,,,k,purple,5ebb48aefede09116c27f0f8,2021-09-27_17h11.59,forced_choiceRT_color,2021.2.3,MacIntel,55.55555556,,,,,,,,4,Slow,long,k,1,2.284,3,1,13,3,1,,,,,
,1.03,,,,,,,,,j,red,5ebb48aefede09116c27f0f8,2021-09-27_17h11.59,forced_choiceRT_color,2021.2.3,MacIntel,55.55555556,,,,,,,,4,Fast,long,j,1,1.784,3,2,14,2,1,,,,,
,0.25,,,,,,,,,j,red,5ebb48aefede09116c27f0f8,2021-09-27_17h11.59,forced_choiceRT_color,2021.2.3,MacIntel,55.55555556,,,,,,,,4,Slow,long,j,1,2.369,3,3,15,2,1,,,,,
,0.54,,,,,,,,,d,orange,5ebb48aefede09116c27f0f8,2021-09-27_17h11.59,forced_choiceRT_color,2021.2.3,MacIntel,55.55555556,,,,,,,,4,Ontime,long,d,1,2.043,4,0,16,0,1,,,,,
,0.63,,,,,,,,,j,red,5ebb48aefede09116c27f0f8,2021-09-27_17h11.59,forced_choiceRT_color,2021.2.3,MacIntel,55.55555556,,,,,,,,4,Slow,long,j,1,2.107,4,1,17,2,1,,,,,
,1.89,,,,,,,,,d,orange,5ebb48aefede09116c27f0f8,2021-09-27_17h11.59,forced_choiceRT_color,2021.2.3,MacIntel,55.55555556,,,,,,,,4,Slow,long,k,0,2.234,4,2,18,0,1,,,,,
,1.47,,,,,,,,,f,blue,5ebb48aefede09116c27f0f8,2021-09-27_17h11.59,forced_choiceRT_color,2021.2.3,MacIntel,55.55555556,,,,,,,,4,Slow,long,d,0,2.185,4,3,19,1,1,,,,,
,1.98,,,,,,,,,d,orange,5ebb48aefede09116c27f0f8,2021-09-27_17h11.59,forced_choiceRT_color,2021.2.3,MacIntel,55.55555556,,,,,,,,4,Slow,long,k,0,2.251,5,0,20,0,1,,,,,
,1.33,,,,,,,,,f,blue,5ebb48aefede09116c27f0f8,2021-09-27_17h11.59,forced_choiceRT_color,2021.2.3,MacIntel,55.55555556,,,,,,,,4,Ontime,long,f,1,1.954,5,1,21,1,1,,,,,
,1.1,,,,,,,,,k,purple,5ebb48aefede09116c27f0f8,2021-09-27_17h11.59,forced_choiceRT_color,2021.2.3,MacIntel,55.55555556,,,,,,,,4,Fast,long,k,1,1.86,5,2,22,3,1,,,,,
,1.69,,,,,,,,,f,blue,5ebb48aefede09116c27f0f8,2021-09-27_17h11.59,forced_choiceRT_color,2021.2.3,MacIntel,55.55555556,,,,,,,,4,Slow,long,j,0,2.301,5,3,23,1,1,,,,,
,1.82,,,,,,,,,j,red,5ebb48aefede09116c27f0f8,2021-09-27_17h11.59,forced_choiceRT_color,2021.2.3,MacIntel,55.55555556,,,,,,,,4,Slow,long,j,1,2.458,6,0,24,2,1,,,,,
,1.75,,,,,,,,,j,red,5ebb48aefede09116c27f0f8,2021-09-27_17h11.59,forced_choiceRT_color,2021.2.3,MacIntel,55.55555556,,,,,,,,4,Slow,long,j,1,2.133,6,1,25,2,1,,,,,
,1.31,,,,,,,,,f,blue,5ebb48aefede09116c27f0f8,2021-09-27_17h11.59,forced_choiceRT_color,2021.2.3,MacIntel,55.55555556,,,,,,,,4,Fast,long,f,1,1.876,6,2,26,1,1,,,,,
,0.02,,,,,,,,,k,purple,5ebb48aefede09116c27f0f8,2021-09-27_17h11.59,forced_choiceRT_color,2021.2.3,MacIntel,55.55555556,,,,,,,,4,Ontime,long,k,1,2.01,6,3,27,3,1,,,,,
,0.81,,,,,,,,,k,purple,5ebb48aefede09116c27f0f8,2021-09-27_17h11.59,forced_choiceRT_color,2021.2.3,MacIntel,55.55555556,,,,,,,,4,Fast,long,k,1,1.759,7,0,28,3,1,,,,,
,0.23,,,,,,,,,d,orange,5ebb48aefede09116c27f0f8,2021-09-27_17h11.59,forced_choiceRT_color,2021.2.3,MacIntel,55.55555556,,,,,,,,4,Fast,long,d,1,1.839,7,1,29,0,1,,,,,
,1.32,,,,,,,,,f,blue,5ebb48aefede09116c27f0f8,2021-09-27_17h11.59,forced_choiceRT_color,2021.2.3,MacIntel,55.55555556,,,,,,,,4,Ontime,long,f,1,2.09,7,2,30,1,1,,,,,
,0.84,,,,,,,,,j,red,5ebb48aefede09116c27f0f8,2021-09-27_17h11.59,forced_choiceRT_color,2021.2.3,MacIntel,55.55555556,,,,,,,,4,Ontime,long,j,1,1.969,7,3,31,2,1,,,,,
,0.47,,,,,,,,,k,purple,5ebb48aefede09116c27f0f8,2021-09-27_17h11.59,forced_choiceRT_color,2021.2.3,MacIntel,55.55555556,,,,,,,,4,Fast,long,f,0,1.758,8,0,32,3,1,,,,,
,1.81,,,,,,,,,d,orange,5ebb48aefede09116c27f0f8,2021-09-27_17h11.59,forced_choiceRT_color,2021.2.3,MacIntel,55.55555556,,,,,,,,4,Slow,long,d,1,2.419,8,1,33,0,1,,,,,
,0.49,,,,,,,,,d,orange,5ebb48aefede09116c27f0f8,2021-09-27_17h11.59,forced_choiceRT_color,2021.2.3,MacIntel,55.55555556,,,,,,,,4,Fast,long,d,1,1.745,8,2,34,0,1,,,,,
,0.23,,,,,,,,,f,blue,5ebb48aefede09116c27f0f8,2021-09-27_17h11.59,forced_choiceRT_color,2021.2.3,MacIntel,55.55555556,,,,,,,,4,Ontime,long,f,1,1.969,8,3,35,1,1,,,,,
,1.54,,,,,,,,,k,purple,5ebb48aefede09116c27f0f8,2021-09-27_17h11.59,forced_choiceRT_color,2021.2.3,MacIntel,55.55555556,,,,,,,,4,Ontime,long,j,0,1.952,9,0,36,3,1,,,,,
,0.35,,,,,,,,,k,purple,5ebb48aefede09116c27f0f8,2021-09-27_17h11.59,forced_choiceRT_color,2021.2.3,MacIntel,55.55555556,,,,,,,,4,Fast,long,k,1,1.859,9,1,37,3,1,,,,,
,0.06,,,,,,,,,k,purple,5ebb48aefede09116c27f0f8,2021-09-27_17h11.59,forced_choiceRT_color,2021.2.3,MacIntel,55.55555556,,,,,,,,4,Ontime,long,k,1,1.969,9,2,38,3,1,,,,,
,1.97,,,,,,,,,d,orange,5ebb48aefede09116c27f0f8,2021-09-27_17h11.59,forced_choiceRT_color,2021.2.3,MacIntel,55.55555556,,,,,,,,4,Slow,long,f,0,2.257,9,3,39,0,1,,,,,
,,,,,,,,,,,,5ebb48aefede09116c27f0f8,2021-09-27_17h11.59,forced_choiceRT_color,2021.2.3,MacIntel,55.55555556,,,,,,,,,,,,,,,,,,,3,0,3,0,1
,0.83,,,,,,,,,j,red,5ebb48aefede09116c27f0f8,2021-09-27_17h11.59,forced_choiceRT_color,2021.2.3,MacIntel,55.55555556,,,,,,,,5,Fast,long,j,1,1.819,0,0,0,2,1,,,,,
,0.07,,,,,,,,,f,blue,5ebb48aefede09116c27f0f8,2021-09-27_17h11.59,forced_choiceRT_color,2021.2.3,MacIntel,55.55555556,,,,,,,,5,Fast,long,f,1,1.885,0,1,1,1,1,,,,,
,1.98,,,,,,,,,d,orange,5ebb48aefede09116c27f0f8,2021-09-27_17h11.59,forced_choiceRT_color,2021.2.3,MacIntel,55.55555556,,,,,,,,5,Slow,long,d,1,2.675,0,2,2,0,1,,,,,
,1.37,,,,,,,,,d,orange,5ebb48aefede09116c27f0f8,2021-09-27_17h11.59,forced_choiceRT_color,2021.2.3,MacIntel,55.55555556,,,,,,,,5,Slow,long,d,1,2.107,0,3,3,0,1,,,,,
,1.91,,,,,,,,,k,purple,5ebb48aefede09116c27f0f8,2021-09-27_17h11.59,forced_choiceRT_color,2021.2.3,MacIntel,55.55555556,,,,,,,,5,Slow,long,k,1,2.283,1,0,4,3,1,,,,,
,1.73,,,,,,,,,f,blue,5ebb48aefede09116c27f0f8,2021-09-27_17h11.59,forced_choiceRT_color,2021.2.3,MacIntel,55.55555556,,,,,,,,5,Slow,long,f,1,2.351,1,1,5,1,1,,,,,
,0.33,,,,,,,,,f,blue,5ebb48aefede09116c27f0f8,2021-09-27_17h11.59,forced_choiceRT_color,2021.2.3,MacIntel,55.55555556,,,,,,,,5,Fast,long,f,1,1.766,1,2,6,1,1,,,,,
,0.76,,,,,,,,,d,orange,5ebb48aefede09116c27f0f8,2021-09-27_17h11.59,forced_choiceRT_color,2021.2.3,MacIntel,55.55555556,,,,,,,,5,Ontime,long,d,1,1.917,1,3,7,0,1,,,,,
,0.54,,,,,,,,,f,blue,5ebb48aefede09116c27f0f8,2021-09-27_17h11.59,forced_choiceRT_color,2021.2.3,MacIntel,55.55555556,,,,,,,,5,Ontime,long,f,1,1.951,2,0,8,1,1,,,,,
,0.29,,,,,,,,,d,orange,5ebb48aefede09116c27f0f8,2021-09-27_17h11.59,forced_choiceRT_color,2021.2.3,MacIntel,55.55555556,,,,,,,,5,Fast,long,d,1,1.803,2,1,9,0,1,,,,,
,0.97,,,,,,,,,f,blue,5ebb48aefede09116c27f0f8,2021-09-27_17h11.59,forced_choiceRT_color,2021.2.3,MacIntel,55.55555556,,,,,,,,5,Ontime,long,f,1,1.938,2,2,10,1,1,,,,,
,1.14,,,,,,,,,d,orange,5ebb48aefede09116c27f0f8,2021-09-27_17h11.59,forced_choiceRT_color,2021.2.3,MacIntel,55.55555556,,,,,,,,5,Fast,long,d,1,1.895,2,3,11,0,1,,,,,
,1.44,,,,,,,,,j,red,5ebb48aefede09116c27f0f8,2021-09-27_17h11.59,forced_choiceRT_color,2021.2.3,MacIntel,55.55555556,,,,,,,,5,Ontime,long,j,1,1.91,3,0,12,2,1,,,,,
,1.42,,,,,,,,,k,purple,5ebb48aefede09116c27f0f8,2021-09-27_17h11.59,forced_choiceRT_color,2021.2.3,MacIntel,55.55555556,,,,,,,,5,Ontime,long,k,1,1.966,3,1,13,3,1,,,,,
,1.67,,,,,,,,,j,red,5ebb48aefede09116c27f0f8,2021-09-27_17h11.59,forced_choiceRT_color,2021.2.3,MacIntel,55.55555556,,,,,,,,5,Slow,long,j,1,2.344,3,2,14,2,1,,,,,
,1.76,,,,,,,,,j,red,5ebb48aefede09116c27f0f8,2021-09-27_17h11.59,forced_choiceRT_color,2021.2.3,MacIntel,55.55555556,,,,,,,,5,Slow,long,j,1,2.135,3,3,15,2,1,,,,,
,0.94,,,,,,,,,j,red,5ebb48aefede09116c27f0f8,2021-09-27_17h11.59,forced_choiceRT_color,2021.2.3,MacIntel,55.55555556,,,,,,,,5,Fast,long,j,1,1.849,4,0,16,2,1,,,,,
,0.29,,,,,,,,,j,red,5ebb48aefede09116c27f0f8,2021-09-27_17h11.59,forced_choiceRT_color,2021.2.3,MacIntel,55.55555556,,,,,,,,5,Fast,long,j,1,1.893,4,1,17,2,1,,,,,
,1.74,,,,,,,,,d,orange,5ebb48aefede09116c27f0f8,2021-09-27_17h11.59,forced_choiceRT_color,2021.2.3,MacIntel,55.55555556,,,,,,,,5,Slow,long,d,1,2.338,4,2,18,0,1,,,,,
,1.06,,,,,,,,,f,blue,5ebb48aefede09116c27f0f8,2021-09-27_17h11.59,forced_choiceRT_color,2021.2.3,MacIntel,55.55555556,,,,,,,,5,Fast,long,f,1,1.727,4,3,19,1,1,,,,,
,0.08,,,,,,,,,d,orange,5ebb48aefede09116c27f0f8,2021-09-27_17h11.59,forced_choiceRT_color,2021.2.3,MacIntel,55.55555556,,,,,,,,5,Ontime,long,d,1,2.034,5,0,20,0,1,,,,,
,1.84,,,,,,,,,d,orange,5ebb48aefede09116c27f0f8,2021-09-27_17h11.59,forced_choiceRT_color,2021.2.3,MacIntel,55.55555556,,,,,,,,5,Slow,long,d,1,2.45,5,1,21,0,1,,,,,
,1.32,,,,,,,,,k,purple,5ebb48aefede09116c27f0f8,2021-09-27_17h11.59,forced_choiceRT_color,2021.2.3,MacIntel,55.55555556,,,,,,,,5,Ontime,long,k,1,1.961,5,2,22,3,1,,,,,
,1.94,,,,,,,,,j,red,5ebb48aefede09116c27f0f8,2021-09-27_17h11.59,forced_choiceRT_color,2021.2.3,MacIntel,55.55555556,,,,,,,,5,Slow,long,j,1,2.393,5,3,23,2,1,,,,,
,1.83,,,,,,,,,f,blue,5ebb48aefede09116c27f0f8,2021-09-27_17h11.59,forced_choiceRT_color,2021.2.3,MacIntel,55.55555556,,,,,,,,5,Slow,long,k,0,2.374,6,0,24,1,1,,,,,
,1.09,,,,,,,,,k,purple,5ebb48aefede09116c27f0f8,2021-09-27_17h11.59,forced_choiceRT_color,2021.2.3,MacIntel,55.55555556,,,,,,,,5,Fast,long,k,1,1.789,6,1,25,3,1,,,,,
,1.66,,,,,,,,,d,orange,5ebb48aefede09116c27f0f8,2021-09-27_17h11.59,forced_choiceRT_color,2021.2.3,MacIntel,55.55555556,,,,,,,,5,Slow,long,f,0,2.242,6,2,26,0,1,,,,,
,1.27,,,,,,,,,f,blue,5ebb48aefede09116c27f0f8,2021-09-27_17h11.59,forced_choiceRT_color,2021.2.3,MacIntel,55.55555556,,,,,,,,5,Fast,long,j,0,1.894,6,3,27,1,1,,,,,
,0.72,,,,,,,,,j,red,5ebb48aefede09116c27f0f8,2021-09-27_17h11.59,forced_choiceRT_color,2021.2.3,MacIntel,55.55555556,,,,,,,,5,Slow,long,j,1,2.11,7,0,28,2,1,,,,,
,0.91,,,,,,,,,k,purple,5ebb48aefede09116c27f0f8,2021-09-27_17h11.59,forced_choiceRT_color,2021.2.3,MacIntel,55.55555556,,,,,,,,5,Ontime,long,k,1,1.958,7,1,29,3,1,,,,,
,1.73,,,,,,,,,f,blue,5ebb48aefede09116c27f0f8,2021-09-27_17h11.59,forced_choiceRT_color,2021.2.3,MacIntel,55.55555556,,,,,,,,5,Slow,long,f,1,2.194,7,2,30,1,1,,,,,
,0.44,,,,,,,,,k,purple,5ebb48aefede09116c27f0f8,2021-09-27_17h11.59,forced_choiceRT_color,2021.2.3,MacIntel,55.55555556,,,,,,,,5,Fast,long,k,1,1.801,7,3,31,3,1,,,,,
,0.4,,,,,,,,,k,purple,5ebb48aefede09116c27f0f8,2021-09-27_17h11.59,forced_choiceRT_color,2021.2.3,MacIntel,55.55555556,,,,,,,,5,Fast,long,k,1,1.762,8,0,32,3,1,,,,,
,1.7,,,,,,,,,j,red,5ebb48aefede09116c27f0f8,2021-09-27_17h11.59,forced_choiceRT_color,2021.2.3,MacIntel,55.55555556,,,,,,,,5,Slow,long,f,0,2.144,8,1,33,2,1,,,,,
,1.78,,,,,,,,,d,orange,5ebb48aefede09116c27f0f8,2021-09-27_17h11.59,forced_choiceRT_color,2021.2.3,MacIntel,55.55555556,,,,,,,,5,Slow,long,d,1,2.293,8,2,34,0,1,,,,,
,0.69,,,,,,,,,k,purple,5ebb48aefede09116c27f0f8,2021-09-27_17h11.59,forced_choiceRT_color,2021.2.3,MacIntel,55.55555556,,,,,,,,5,Ontime,long,k,1,1.902,8,3,35,3,1,,,,,
,0.95,,,,,,,,,k,purple,5ebb48aefede09116c27f0f8,2021-09-27_17h11.59,forced_choiceRT_color,2021.2.3,MacIntel,55.55555556,,,,,,,,5,Fast,long,k,1,1.839,9,0,36,3,1,,,,,
,0.04,,,,,,,,,j,red,5ebb48aefede09116c27f0f8,2021-09-27_17h11.59,forced_choiceRT_color,2021.2.3,MacIntel,55.55555556,,,,,,,,5,Fast,long,j,1,1.692,9,1,37,2,1,,,,,
,0.71,,,,,,,,,k,purple,5ebb48aefede09116c27f0f8,2021-09-27_17h11.59,forced_choiceRT_color,2021.2.3,MacIntel,55.55555556,,,,,,,,5,Ontime,long,k,1,1.951,9,2,38,3,1,,,,,
,1.4,,,,,,,,,f,blue,5ebb48aefede09116c27f0f8,2021-09-27_17h11.59,forced_choiceRT_color,2021.2.3,MacIntel,55.55555556,,,,,,,,5,Ontime,long,f,1,1.967,9,3,39,1,1,,,,,
,,,,,,,,,,,,5ebb48aefede09116c27f0f8,2021-09-27_17h11.59,forced_choiceRT_color,2021.2.3,MacIntel,55.55555556,,,,,,,,,,,,,,,,,,,4,0,4,0,1
,1.9,,,,,,,,,k,purple,5ebb48aefede09116c27f0f8,2021-09-27_17h11.59,forced_choiceRT_color,2021.2.3,MacIntel,55.55555556,,,,,,,,6,Slow,long,j,0,2.377,0,0,0,3,1,,,,,
,1.67,,,,,,,,,k,purple,5ebb48aefede09116c27f0f8,2021-09-27_17h11.59,forced_choiceRT_color,2021.2.3,MacIntel,55.55555556,,,,,,,,6,Ontime,long,j,0,2.07,0,1,1,3,1,,,,,
,1.07,,,,,,,,,j,red,5ebb48aefede09116c27f0f8,2021-09-27_17h11.59,forced_choiceRT_color,2021.2.3,MacIntel,55.55555556,,,,,,,,6,Fast,long,j,1,1.635,0,2,2,2,1,,,,,
,1.91,,,,,,,,,k,purple,5ebb48aefede09116c27f0f8,2021-09-27_17h11.59,forced_choiceRT_color,2021.2.3,MacIntel,55.55555556,,,,,,,,6,Slow,long,f,0,2.369,0,3,3,3,1,,,,,
,1.29,,,,,,,,,d,orange,5ebb48aefede09116c27f0f8,2021-09-27_17h11.59,forced_choiceRT_color,2021.2.3,MacIntel,55.55555556,,,,,,,,6,Fast,long,d,1,1.806,1,0,4,0,1,,,,,
,0.12,,,,,,,,,j,red,5ebb48aefede09116c27f0f8,2021-09-27_17h11.59,forced_choiceRT_color,2021.2.3,MacIntel,55.55555556,,,,,,,,6,Fast,long,j,1,1.752,1,1,5,2,1,,,,,
,0.97,,,,,,,,,j,red,5ebb48aefede09116c27f0f8,2021-09-27_17h11.59,forced_choiceRT_color,2021.2.3,MacIntel,55.55555556,,,,,,,,6,Fast,long,j,1,1.412,1,2,6,2,1,,,,,
,0.69,,,,,,,,,j,red,5ebb48aefede09116c27f0f8,2021-09-27_17h11.59,forced_choiceRT_color,2021.2.3,MacIntel,55.55555556,,,,,,,,6,Fast,long,j,1,1.885,1,3,7,2,1,,,,,
,1.3,,,,,,,,,d,orange,5ebb48aefede09116c27f0f8,2021-09-27_17h11.59,forced_choiceRT_color,2021.2.3,MacIntel,55.55555556,,,,,,,,6,Fast,long,d,1,1.809,2,0,8,0,1,,,,,
,1.8,,,,,,,,,f,blue,5ebb48aefede09116c27f0f8,2021-09-27_17h11.59,forced_choiceRT_color,2021.2.3,MacIntel,55.55555556,,,,,,,,6,Slow,long,f,1,2.264,2,1,9,1,1,,,,,
,0.02,,,,,,,,,j,red,5ebb48aefede09116c27f0f8,2021-09-27_17h11.59,forced_choiceRT_color,2021.2.3,MacIntel,55.55555556,,,,,,,,6,Fast,long,j,1,1.718,2,2,10,2,1,,,,,
,1.98,,,,,,,,,d,orange,5ebb48aefede09116c27f0f8,2021-09-27_17h11.59,forced_choiceRT_color,2021.2.3,MacIntel,55.55555556,,,,,,,,6,Slow,long,k,0,2.301,2,3,11,0,1,,,,,
,1.97,,,,,,,,,f,blue,5ebb48aefede09116c27f0f8,2021-09-27_17h11.59,forced_choiceRT_color,2021.2.3,MacIntel,55.55555556,,,,,,,,6,Slow,long,j,0,2.222,3,0,12,1,1,,,,,
,0.41,,,,,,,,,k,purple,5ebb48aefede09116c27f0f8,2021-09-27_17h11.59,forced_choiceRT_color,2021.2.3,MacIntel,55.55555556,,,,,,,,6,Fast,long,k,1,1.858,3,1,13,3,1,,,,,
,0.11,,,,,,,,,j,red,5ebb48aefede09116c27f0f8,2021-09-27_17h11.59,forced_choiceRT_color,2021.2.3,MacIntel,55.55555556,,,,,,,,6,Ontime,long,j,1,1.967,3,2,14,2,1,,,,,
,0,,,,,,,,,d,orange,5ebb48aefede09116c27f0f8,2021-09-27_17h11.59,forced_choiceRT_color,2021.2.3,MacIntel,55.55555556,,,,,,,,6,Fast,long,d,1,1.851,3,3,15,0,1,,,,,
,1.71,,,,,,,,,f,blue,5ebb48aefede09116c27f0f8,2021-09-27_17h11.59,forced_choiceRT_color,2021.2.3,MacIntel,55.55555556,,,,,,,,6,Slow,long,j,0,2.295,4,0,16,1,1,,,,,
,0.36,,,,,,,,,k,purple,5ebb48aefede09116c27f0f8,2021-09-27_17h11.59,forced_choiceRT_color,2021.2.3,MacIntel,55.55555556,,,,,,,,6,Fast,long,f,0,1.859,4,1,17,3,1,,,,,
,0.34,,,,,,,,,j,red,5ebb48aefede09116c27f0f8,2021-09-27_17h11.59,forced_choiceRT_color,2021.2.3,MacIntel,55.55555556,,,,,,,,6,Ontime,long,j,1,1.968,4,2,18,2,1,,,,,
,1.05,,,,,,,,,f,blue,5ebb48aefede09116c27f0f8,2021-09-27_17h11.59,forced_choiceRT_color,2021.2.3,MacIntel,55.55555556,,,,,,,,6,Slow,long,k,0,2.102,4,3,19,1,1,,,,,
,0.43,,,,,,,,,k,purple,5ebb48aefede09116c27f0f8,2021-09-27_17h11.59,forced_choiceRT_color,2021.2.3,MacIntel,55.55555556,,,,,,,,6,Fast,long,f,0,1.744,5,0,20,3,1,,,,,
,1.25,,,,,,,,,j,red,5ebb48aefede09116c27f0f8,2021-09-27_17h11.59,forced_choiceRT_color,2021.2.3,MacIntel,55.55555556,,,,,,,,6,Fast,long,j,1,1.721,5,1,21,2,1,,,,,
,1.23,,,,,,,,,d,orange,5ebb48aefede09116c27f0f8,2021-09-27_17h11.59,forced_choiceRT_color,2021.2.3,MacIntel,55.55555556,,,,,,,,6,Fast,long,d,1,1.897,5,2,22,0,1,,,,,
,1.17,,,,,,,,,k,purple,5ebb48aefede09116c27f0f8,2021-09-27_17h11.59,forced_choiceRT_color,2021.2.3,MacIntel,55.55555556,,,,,,,,6,Fast,long,j,0,1.858,5,3,23,3,1,,,,,
,0.6,,,,,,,,,d,orange,5ebb48aefede09116c27f0f8,2021-09-27_17h11.59,forced_choiceRT_color,2021.2.3,MacIntel,55.55555556,,,,,,,,6,Fast,long,j,0,1.842,6,0,24,0,1,,,,,
,0.07,,,,,,,,,f,blue,5ebb48aefede09116c27f0f8,2021-09-27_17h11.59,forced_choiceRT_color,2021.2.3,MacIntel,55.55555556,,,,,,,,6,Fast,long,f,1,1.83,6,1,25,1,1,,,,,
,0.25,,,,,,,,,j,red,5ebb48aefede09116c27f0f8,2021-09-27_17h11.59,forced_choiceRT_color,2021.2.3,MacIntel,55.55555556,,,,,,,,6,Ontime,long,j,1,1.941,6,2,26,2,1,,,,,
,1.92,,,,,,,,,k,purple,5ebb48aefede09116c27f0f8,2021-09-27_17h11.59,forced_choiceRT_color,2021.2.3,MacIntel,55.55555556,,,,,,,,6,Slow,long,j,0,2.255,6,3,27,3,1,,,,,
,1.63,,,,,,,,,f,blue,5ebb48aefede09116c27f0f8,2021-09-27_17h11.59,forced_choiceRT_color,2021.2.3,MacIntel,55.55555556,,,,,,,,6,Ontime,long,k,0,2.052,7,0,28,1,1,,,,,
,1.7,,,,,,,,,f,blue,5ebb48aefede09116c27f0f8,2021-09-27_17h11.59,forced_choiceRT_color,2021.2.3,MacIntel,55.55555556,,,,,,,,6,Ontime,long,f,1,2.09,7,1,29,1,1,,,,,
,0.27,,,,,,,,,f,blue,5ebb48aefede09116c27f0f8,2021-09-27_17h11.59,forced_choiceRT_color,2021.2.3,MacIntel,55.55555556,,,,,,,,6,Ontime,long,f,1,2.039,7,2,30,1,1,,,,,
,1.56,,,,,,,,,d,orange,5ebb48aefede09116c27f0f8,2021-09-27_17h11.59,forced_choiceRT_color,2021.2.3,MacIntel,55.55555556,,,,,,,,6,Slow,long,d,1,2.26,7,3,31,0,1,,,,,
,1.93,,,,,,,,,d,orange,5ebb48aefede09116c27f0f8,2021-09-27_17h11.59,forced_choiceRT_color,2021.2.3,MacIntel,55.55555556,,,,,,,,6,Slow,long,d,1,2.575,8,0,32,0,1,,,,,
,1.61,,,,,,,,,k,purple,5ebb48aefede09116c27f0f8,2021-09-27_17h11.59,forced_choiceRT_color,2021.2.3,MacIntel,55.55555556,,,,,,,,6,Ontime,long,j,0,2.053,8,1,33,3,1,,,,,
,0.79,,,,,,,,,d,orange,5ebb48aefede09116c27f0f8,2021-09-27_17h11.59,forced_choiceRT_color,2021.2.3,MacIntel,55.55555556,,,,,,,,6,Fast,long,f,0,1.837,8,2,34,0,1,,,,,
,1.82,,,,,,,,,f,blue,5ebb48aefede09116c27f0f8,2021-09-27_17h11.59,forced_choiceRT_color,2021.2.3,MacIntel,55.55555556,,,,,,,,6,Slow,long,k,0,2.307,8,3,35,1,1,,,,,
,1.91,,,,,,,,,f,blue,5ebb48aefede09116c27f0f8,2021-09-27_17h11.59,forced_choiceRT_color,2021.2.3,MacIntel,55.55555556,,,,,,,,6,Slow,long,d,0,2.356,9,0,36,1,1,,,,,
,0.11,,,,,,,,,d,orange,5ebb48aefede09116c27f0f8,2021-09-27_17h11.59,forced_choiceRT_color,2021.2.3,MacIntel,55.55555556,,,,,,,,6,Fast,long,d,1,1.338,9,1,37,0,1,,,,,
,0.48,,,,,,,,,j,red,5ebb48aefede09116c27f0f8,2021-09-27_17h11.59,forced_choiceRT_color,2021.2.3,MacIntel,55.55555556,,,,,,,,6,Ontime,long,k,0,1.944,9,2,38,2,1,,,,,
,0.83,,,,,,,,,k,purple,5ebb48aefede09116c27f0f8,2021-09-27_17h11.59,forced_choiceRT_color,2021.2.3,MacIntel,55.55555556,,,,,,,,6,Ontime,long,d,0,1.957,9,3,39,3,1,,,,,
,,,,,,,,,,,,5ebb48aefede09116c27f0f8,2021-09-27_17h11.59,forced_choiceRT_color,2021.2.3,MacIntel,55.55555556,,,,,,,,,,,,,,,,,,,5,0,5,0,1
,0.52,,,,,,,,,d,orange,5ebb48aefede09116c27f0f8,2021-09-27_17h11.59,forced_choiceRT_color,2021.2.3,MacIntel,55.55555556,,,,,,,,7,Ontime,long,d,1,2.034,0,0,0,0,1,,,,,
,1.61,,,,,,,,,f,blue,5ebb48aefede09116c27f0f8,2021-09-27_17h11.59,forced_choiceRT_color,2021.2.3,MacIntel,55.55555556,,,,,,,,7,Ontime,long,f,1,2.085,0,1,1,1,1,,,,,
,1.75,,,,,,,,,j,red,5ebb48aefede09116c27f0f8,2021-09-27_17h11.59,forced_choiceRT_color,2021.2.3,MacIntel,55.55555556,,,,,,,,7,Ontime,long,j,1,2.059,0,2,2,2,1,,,,,
,0.99,,,,,,,,,k,purple,5ebb48aefede09116c27f0f8,2021-09-27_17h11.59,forced_choiceRT_color,2021.2.3,MacIntel,55.55555556,,,,,,,,7,Fast,long,k,1,1.733,0,3,3,3,1,,,,,
,0.73,,,,,,,,,d,orange,5ebb48aefede09116c27f0f8,2021-09-27_17h11.59,forced_choiceRT_color,2021.2.3,MacIntel,55.55555556,,,,,,,,7,Fast,long,d,1,1.776,1,0,4,0,1,,,,,
,0.42,,,,,,,,,d,orange,5ebb48aefede09116c27f0f8,2021-09-27_17h11.59,forced_choiceRT_color,2021.2.3,MacIntel,55.55555556,,,,,,,,7,Fast,long,d,1,1.85,1,1,5,0,1,,,,,
,0.4,,,,,,,,,d,orange,5ebb48aefede09116c27f0f8,2021-09-27_17h11.59,forced_choiceRT_color,2021.2.3,MacIntel,55.55555556,,,,,,,,7,Ontime,long,d,1,2.009,1,2,6,0,1,,,,,
,1.82,,,,,,,,,f,blue,5ebb48aefede09116c27f0f8,2021-09-27_17h11.59,forced_choiceRT_color,2021.2.3,MacIntel,55.55555556,,,,,,,,7,Slow,long,d,0,2.123,1,3,7,1,1,,,,,
,0.27,,,,,,,,,f,blue,5ebb48aefede09116c27f0f8,2021-09-27_17h11.59,forced_choiceRT_color,2021.2.3,MacIntel,55.55555556,,,,,,,,7,Fast,long,f,1,1.82,2,0,8,1,1,,,,,
,0.02,,,,,,,,,j,red,5ebb48aefede09116c27f0f8,2021-09-27_17h11.59,forced_choiceRT_color,2021.2.3,MacIntel,55.55555556,,,,,,,,7,Ontime,long,j,1,1.918,2,1,9,2,1,,,,,
,1.58,,,,,,,,,j,red,5ebb48aefede09116c27f0f8,2021-09-27_17h11.59,forced_choiceRT_color,2021.2.3,MacIntel,55.55555556,,,,,,,,7,Ontime,long,j,1,2.041,2,2,10,2,1,,,,,
,0.38,,,,,,,,,k,purple,5ebb48aefede09116c27f0f8,2021-09-27_17h11.59,forced_choiceRT_color,2021.2.3,MacIntel,55.55555556,,,,,,,,7,Ontime,long,k,1,1.927,2,3,11,3,1,,,,,
,0.54,,,,,,,,,k,purple,5ebb48aefede09116c27f0f8,2021-09-27_17h11.59,forced_choiceRT_color,2021.2.3,MacIntel,55.55555556,,,,,,,,7,Ontime,long,k,1,1.912,3,0,12,3,1,,,,,
,1.9,,,,,,,,,j,red,5ebb48aefede09116c27f0f8,2021-09-27_17h11.59,forced_choiceRT_color,2021.2.3,MacIntel,55.55555556,,,,,,,,7,Slow,long,f,0,2.34,3,1,13,2,1,,,,,
,1.25,,,,,,,,,j,red,5ebb48aefede09116c27f0f8,2021-09-27_17h11.59,forced_choiceRT_color,2021.2.3,MacIntel,55.55555556,,,,,,,,7,Fast,long,j,1,1.802,3,2,14,2,1,,,,,
,0.03,,,,,,,,,k,purple,5ebb48aefede09116c27f0f8,2021-09-27_17h11.59,forced_choiceRT_color,2021.2.3,MacIntel,55.55555556,,,,,,,,7,Fast,long,f,0,1.727,3,3,15,3,1,,,,,
,1.92,,,,,,,,,d,orange,5ebb48aefede09116c27f0f8,2021-09-27_17h11.59,forced_choiceRT_color,2021.2.3,MacIntel,55.55555556,,,,,,,,7,Slow,long,j,0,2.285,4,0,16,0,1,,,,,
,0.68,,,,,,,,,d,orange,5ebb48aefede09116c27f0f8,2021-09-27_17h11.59,forced_choiceRT_color,2021.2.3,MacIntel,55.55555556,,,,,,,,7,Fast,long,d,1,1.859,4,1,17,0,1,,,,,
,0.35,,,,,,,,,f,blue,5ebb48aefede09116c27f0f8,2021-09-27_17h11.59,forced_choiceRT_color,2021.2.3,MacIntel,55.55555556,,,,,,,,7,Fast,long,f,1,1.86,4,2,18,1,1,,,,,
,0.59,,,,,,,,,j,red,5ebb48aefede09116c27f0f8,2021-09-27_17h11.59,forced_choiceRT_color,2021.2.3,MacIntel,55.55555556,,,,,,,,7,Ontime,long,j,1,1.933,4,3,19,2,1,,,,,
,1.39,,,,,,,,,k,purple,5ebb48aefede09116c27f0f8,2021-09-27_17h11.59,forced_choiceRT_color,2021.2.3,MacIntel,55.55555556,,,,,,,,7,Slow,long,k,1,2.126,5,0,20,3,1,,,,,
,0.16,,,,,,,,,j,red,5ebb48aefede09116c27f0f8,2021-09-27_17h11.59,forced_choiceRT_color,2021.2.3,MacIntel,55.55555556,,,,,,,,7,Ontime,long,j,1,1.923,5,1,21,2,1,,,,,
,0.65,,,,,,,,,j,red,5ebb48aefede09116c27f0f8,2021-09-27_17h11.59,forced_choiceRT_color,2021.2.3,MacIntel,55.55555556,,,,,,,,7,Ontime,long,j,1,2.088,5,2,22,2,1,,,,,
,0.64,,,,,,,,,k,purple,5ebb48aefede09116c27f0f8,2021-09-27_17h11.59,forced_choiceRT_color,2021.2.3,MacIntel,55.55555556,,,,,,,,7,Ontime,long,k,1,2.018,5,3,23,3,1,,,,,
,0.46,,,,,,,,,d,orange,5ebb48aefede09116c27f0f8,2021-09-27_17h11.59,forced_choiceRT_color,2021.2.3,MacIntel,55.55555556,,,,,,,,7,Fast,long,d,1,1.776,6,0,24,0,1,,,,,
,0.58,,,,,,,,,k,purple,5ebb48aefede09116c27f0f8,2021-09-27_17h11.59,forced_choiceRT_color,2021.2.3,MacIntel,55.55555556,,,,,,,,7,Ontime,long,f,0,1.946,6,1,25,3,1,,,,,
,1,,,,,,,,,k,purple,5ebb48aefede09116c27f0f8,2021-09-27_17h11.59,forced_choiceRT_color,2021.2.3,MacIntel,55.55555556,,,,,,,,7,Ontime,long,f,0,1.935,6,2,26,3,1,,,,,
,0.99,,,,,,,,,j,red,5ebb48aefede09116c27f0f8,2021-09-27_17h11.59,forced_choiceRT_color,2021.2.3,MacIntel,55.55555556,,,,,,,,7,Fast,long,j,1,1.801,6,3,27,2,1,,,,,
,1.73,,,,,,,,,k,purple,5ebb48aefede09116c27f0f8,2021-09-27_17h11.59,forced_choiceRT_color,2021.2.3,MacIntel,55.55555556,,,,,,,,7,Slow,long,f,0,2.119,7,0,28,3,1,,,,,
,1.48,,,,,,,,,j,red,5ebb48aefede09116c27f0f8,2021-09-27_17h11.59,forced_choiceRT_color,2021.2.3,MacIntel,55.55555556,,,,,,,,7,Slow,long,k,0,2.106,7,1,29,2,1,,,,,
,1.12,,,,,,,,,d,orange,5ebb48aefede09116c27f0f8,2021-09-27_17h11.59,forced_choiceRT_color,2021.2.3,MacIntel,55.55555556,,,,,,,,7,Fast,long,d,1,1.834,7,2,30,0,1,,,,,
,0.31,,,,,,,,,d,orange,5ebb48aefede09116c27f0f8,2021-09-27_17h11.59,forced_choiceRT_color,2021.2.3,MacIntel,55.55555556,,,,,,,,7,Ontime,long,d,1,2.082,7,3,31,0,1,,,,,
,0.03,,,,,,,,,f,blue,5ebb48aefede09116c27f0f8,2021-09-27_17h11.59,forced_choiceRT_color,2021.2.3,MacIntel,55.55555556,,,,,,,,7,Fast,long,f,1,1.742,8,0,32,1,1,,,,,
,1.97,,,,,,,,,d,orange,5ebb48aefede09116c27f0f8,2021-09-27_17h11.59,forced_choiceRT_color,2021.2.3,MacIntel,55.55555556,,,,,,,,7,Slow,long,f,0,2.386,8,1,33,0,1,,,,,
,0.63,,,,,,,,,f,blue,5ebb48aefede09116c27f0f8,2021-09-27_17h11.59,forced_choiceRT_color,2021.2.3,MacIntel,55.55555556,,,,,,,,7,Fast,long,f,1,1.78,8,2,34,1,1,,,,,
,0.78,,,,,,,,,f,blue,5ebb48aefede09116c27f0f8,2021-09-27_17h11.59,forced_choiceRT_color,2021.2.3,MacIntel,55.55555556,,,,,,,,7,Ontime,long,f,1,1.976,8,3,35,1,1,,,,,
,0.22,,,,,,,,,f,blue,5ebb48aefede09116c27f0f8,2021-09-27_17h11.59,forced_choiceRT_color,2021.2.3,MacIntel,55.55555556,,,,,,,,7,Ontime,long,f,1,2.095,9,0,36,1,1,,,,,
,0.73,,,,,,,,,f,blue,5ebb48aefede09116c27f0f8,2021-09-27_17h11.59,forced_choiceRT_color,2021.2.3,MacIntel,55.55555556,,,,,,,,7,Ontime,long,f,1,2.065,9,1,37,1,1,,,,,
,0.34,,,,,,,,,k,purple,5ebb48aefede09116c27f0f8,2021-09-27_17h11.59,forced_choiceRT_color,2021.2.3,MacIntel,55.55555556,,,,,,,,7,Fast,long,k,1,1.76,9,2,38,3,1,,,,,
,0.7,,,,,,,,,f,blue,5ebb48aefede09116c27f0f8,2021-09-27_17h11.59,forced_choiceRT_color,2021.2.3,MacIntel,55.55555556,,,,,,,,7,Fast,long,j,0,1.882,9,3,39,1,1,,,,,
,,,,,,,,,,,,5ebb48aefede09116c27f0f8,2021-09-27_17h11.59,forced_choiceRT_color,2021.2.3,MacIntel,55.55555556,,,,,,,,,,,,,,,,,,,6,0,6,0,1
,0.91,,,,,,,,,j,red,5ebb48aefede09116c27f0f8,2021-09-27_17h11.59,forced_choiceRT_color,2021.2.3,MacIntel,55.55555556,,,,,,,,8,Ontime,long,j,1,2.052,0,0,0,2,1,,,,,
,1.03,,,,,,,,,k,purple,5ebb48aefede09116c27f0f8,2021-09-27_17h11.59,forced_choiceRT_color,2021.2.3,MacIntel,55.55555556,,,,,,,,8,Fast,long,k,1,1.842,0,1,1,3,1,,,,,
,1.57,,,,,,,,,d,orange,5ebb48aefede09116c27f0f8,2021-09-27_17h11.59,forced_choiceRT_color,2021.2.3,MacIntel,55.55555556,,,,,,,,8,Ontime,long,f,0,2.034,0,2,2,0,1,,,,,
,1.34,,,,,,,,,k,purple,5ebb48aefede09116c27f0f8,2021-09-27_17h11.59,forced_choiceRT_color,2021.2.3,MacIntel,55.55555556,,,,,,,,8,Slow,long,j,0,2.194,0,3,3,3,1,,,,,
,0.75,,,,,,,,,d,orange,5ebb48aefede09116c27f0f8,2021-09-27_17h11.59,forced_choiceRT_color,2021.2.3,MacIntel,55.55555556,,,,,,,,8,Fast,long,d,1,1.865,1,0,4,0,1,,,,,
,1.96,,,,,,,,,d,orange,5ebb48aefede09116c27f0f8,2021-09-27_17h11.59,forced_choiceRT_color,2021.2.3,MacIntel,55.55555556,,,,,,,,8,Slow,long,d,1,2.36,1,1,5,0,1,,,,,
,0.3,,,,,,,,,j,red,5ebb48aefede09116c27f0f8,2021-09-27_17h11.59,forced_choiceRT_color,2021.2.3,MacIntel,55.55555556,,,,,,,,8,Fast,long,j,1,1.759,1,2,6,2,1,,,,,
,1.27,,,,,,,,,f,blue,5ebb48aefede09116c27f0f8,2021-09-27_17h11.59,forced_choiceRT_color,2021.2.3,MacIntel,55.55555556,,,,,,,,8,Fast,long,d,0,1.862,1,3,7,1,1,,,,,
,0.77,,,,,,,,,j,red,5ebb48aefede09116c27f0f8,2021-09-27_17h11.59,forced_choiceRT_color,2021.2.3,MacIntel,55.55555556,,,,,,,,8,Ontime,long,j,1,1.97,2,0,8,2,1,,,,,
,0.61,,,,,,,,,d,orange,5ebb48aefede09116c27f0f8,2021-09-27_17h11.59,forced_choiceRT_color,2021.2.3,MacIntel,55.55555556,,,,,,,,8,Ontime,long,f,0,1.911,2,1,9,0,1,,,,,
,1.6,,,,,,,,,d,orange,5ebb48aefede09116c27f0f8,2021-09-27_17h11.59,forced_choiceRT_color,2021.2.3,MacIntel,55.55555556,,,,,,,,8,Slow,long,d,1,2.151,2,2,10,0,1,,,,,
,0.38,,,,,,,,,j,red,5ebb48aefede09116c27f0f8,2021-09-27_17h11.59,forced_choiceRT_color,2021.2.3,MacIntel,55.55555556,,,,,,,,8,Fast,long,j,1,1.783,2,3,11,2,1,,,,,
,0.95,,,,,,,,,f,blue,5ebb48aefede09116c27f0f8,2021-09-27_17h11.59,forced_choiceRT_color,2021.2.3,MacIntel,55.55555556,,,,,,,,8,Slow,long,f,1,2.3,3,0,12,1,1,,,,,
,0.58,,,,,,,,,f,blue,5ebb48aefede09116c27f0f8,2021-09-27_17h11.59,forced_choiceRT_color,2021.2.3,MacIntel,55.55555556,,,,,,,,8,Fast,long,f,1,1.888,3,1,13,1,1,,,,,
,0.34,,,,,,,,,k,purple,5ebb48aefede09116c27f0f8,2021-09-27_17h11.59,forced_choiceRT_color,2021.2.3,MacIntel,55.55555556,,,,,,,,8,Ontime,long,k,1,2.039,3,2,14,3,1,,,,,
,0.73,,,,,,,,,k,purple,5ebb48aefede09116c27f0f8,2021-09-27_17h11.59,forced_choiceRT_color,2021.2.3,MacIntel,55.55555556,,,,,,,,8,Ontime,long,k,1,1.936,3,3,15,3,1,,,,,
,0.62,,,,,,,,,k,purple,5ebb48aefede09116c27f0f8,2021-09-27_17h11.59,forced_choiceRT_color,2021.2.3,MacIntel,55.55555556,,,,,,,,8,Fast,long,k,1,1.877,4,0,16,3,1,,,,,
,0.51,,,,,,,,,d,orange,5ebb48aefede09116c27f0f8,2021-09-27_17h11.59,forced_choiceRT_color,2021.2.3,MacIntel,55.55555556,,,,,,,,8,Slow,long,d,1,2.203,4,1,17,0,1,,,,,
,0.99,,,,,,,,,f,blue,5ebb48aefede09116c27f0f8,2021-09-27_17h11.59,forced_choiceRT_color,2021.2.3,MacIntel,55.55555556,,,,,,,,8,Fast,long,f,1,1.84,4,2,18,1,1,,,,,
,0.68,,,,,,,,,f,blue,5ebb48aefede09116c27f0f8,2021-09-27_17h11.59,forced_choiceRT_color,2021.2.3,MacIntel,55.55555556,,,,,,,,8,Fast,long,f,1,1.784,4,3,19,1,1,,,,,
,1.61,,,,,,,,,j,red,5ebb48aefede09116c27f0f8,2021-09-27_17h11.59,forced_choiceRT_color,2021.2.3,MacIntel,55.55555556,,,,,,,,8,Slow,long,j,1,2.117,5,0,20,2,1,,,,,
,0.22,,,,,,,,,f,blue,5ebb48aefede09116c27f0f8,2021-09-27_17h11.59,forced_choiceRT_color,2021.2.3,MacIntel,55.55555556,,,,,,,,8,Fast,long,f,1,1.865,5,1,21,1,1,,,,,
,1.46,,,,,,,,,j,red,5ebb48aefede09116c27f0f8,2021-09-27_17h11.59,forced_choiceRT_color,2021.2.3,MacIntel,55.55555556,,,,,,,,8,Ontime,long,j,1,2.04,5,2,22,2,1,,,,,
,0.66,,,,,,,,,k,purple,5ebb48aefede09116c27f0f8,2021-09-27_17h11.59,forced_choiceRT_color,2021.2.3,MacIntel,55.55555556,,,,,,,,8,Ontime,long,k,1,1.933,5,3,23,3,1,,,,,
,1.96,,,,,,,,,d,orange,5ebb48aefede09116c27f0f8,2021-09-27_17h11.59,forced_choiceRT_color,2021.2.3,MacIntel,55.55555556,,,,,,,,8,Slow,long,j,0,2.204,6,0,24,0,1,,,,,
,1.82,,,,,,,,,f,blue,5ebb48aefede09116c27f0f8,2021-09-27_17h11.59,forced_choiceRT_color,2021.2.3,MacIntel,55.55555556,,,,,,,,8,Slow,long,f,1,2.393,6,1,25,1,1,,,,,
,1.56,,,,,,,,,k,purple,5ebb48aefede09116c27f0f8,2021-09-27_17h11.59,forced_choiceRT_color,2021.2.3,MacIntel,55.55555556,,,,,,,,8,Slow,long,k,1,2.522,6,2,26,3,1,,,,,
,1.58,,,,,,,,,j,red,5ebb48aefede09116c27f0f8,2021-09-27_17h11.59,forced_choiceRT_color,2021.2.3,MacIntel,55.55555556,,,,,,,,8,Ontime,long,f,0,2.026,6,3,27,2,1,,,,,
,1.92,,,,,,,,,k,purple,5ebb48aefede09116c27f0f8,2021-09-27_17h11.59,forced_choiceRT_color,2021.2.3,MacIntel,55.55555556,,,,,,,,8,Slow,long,k,1,2.545,7,0,28,3,1,,,,,
,0.95,,,,,,,,,f,blue,5ebb48aefede09116c27f0f8,2021-09-27_17h11.59,forced_choiceRT_color,2021.2.3,MacIntel,55.55555556,,,,,,,,8,Fast,long,f,1,1.772,7,1,29,1,1,,,,,
,0.53,,,,,,,,,j,red,5ebb48aefede09116c27f0f8,2021-09-27_17h11.59,forced_choiceRT_color,2021.2.3,MacIntel,55.55555556,,,,,,,,8,Slow,long,j,1,2.173,7,2,30,2,1,,,,,
,0.04,,,,,,,,,j,red,5ebb48aefede09116c27f0f8,2021-09-27_17h11.59,forced_choiceRT_color,2021.2.3,MacIntel,55.55555556,,,,,,,,8,Ontime,long,j,1,2.035,7,3,31,2,1,,,,,
,1.67,,,,,,,,,k,purple,5ebb48aefede09116c27f0f8,2021-09-27_17h11.59,forced_choiceRT_color,2021.2.3,MacIntel,55.55555556,,,,,,,,8,Slow,long,f,0,2.154,8,0,32,3,1,,,,,
,1.17,,,,,,,,,f,blue,5ebb48aefede09116c27f0f8,2021-09-27_17h11.59,forced_choiceRT_color,2021.2.3,MacIntel,55.55555556,,,,,,,,8,Fast,long,j,0,1.894,8,1,33,1,1,,,,,
,0.54,,,,,,,,,d,orange,5ebb48aefede09116c27f0f8,2021-09-27_17h11.59,forced_choiceRT_color,2021.2.3,MacIntel,55.55555556,,,,,,,,8,Slow,long,d,1,2.104,8,2,34,0,1,,,,,
,1.54,,,,,,,,,d,orange,5ebb48aefede09116c27f0f8,2021-09-27_17h11.59,forced_choiceRT_color,2021.2.3,MacIntel,55.55555556,,,,,,,,8,Slow,long,d,1,2.161,8,3,35,0,1,,,,,
,0.86,,,,,,,,,j,red,5ebb48aefede09116c27f0f8,2021-09-27_17h11.59,forced_choiceRT_color,2021.2.3,MacIntel,55.55555556,,,,,,,,8,Fast,long,j,1,1.634,9,0,36,2,1,,,,,
,1.17,,,,,,,,,k,purple,5ebb48aefede09116c27f0f8,2021-09-27_17h11.59,forced_choiceRT_color,2021.2.3,MacIntel,55.55555556,,,,,,,,8,Ontime,long,k,1,1.903,9,1,37,3,1,,,,,
,0.31,,,,,,,,,d,orange,5ebb48aefede09116c27f0f8,2021-09-27_17h11.59,forced_choiceRT_color,2021.2.3,MacIntel,55.55555556,,,,,,,,8,Ontime,long,f,0,1.934,9,2,38,0,1,,,,,
,1.73,,,,,,,,,f,blue,5ebb48aefede09116c27f0f8,2021-09-27_17h11.59,forced_choiceRT_color,2021.2.3,MacIntel,55.55555556,,,,,,,,8,Slow,long,j,0,2.326,9,3,39,1,1,,,,,
,,,,,,,,,,,,5ebb48aefede09116c27f0f8,2021-09-27_17h11.59,forced_choiceRT_color,2021.2.3,MacIntel,55.55555556,,,,,,,,,,,,,,,,,,,7,0,7,0,1
,1.06,,,,,,,,,k,purple,5ebb48aefede09116c27f0f8,2021-09-27_17h11.59,forced_choiceRT_color,2021.2.3,MacIntel,55.55555556,,,,,,,,9,Slow,long,k,1,2.175,0,0,0,3,1,,,,,
,1.38,,,,,,,,,d,orange,5ebb48aefede09116c27f0f8,2021-09-27_17h11.59,forced_choiceRT_color,2021.2.3,MacIntel,55.55555556,,,,,,,,9,Ontime,long,f,0,1.909,0,1,1,0,1,,,,,
,0.58,,,,,,,,,j,red,5ebb48aefede09116c27f0f8,2021-09-27_17h11.59,forced_choiceRT_color,2021.2.3,MacIntel,55.55555556,,,,,,,,9,Ontime,long,f,0,1.977,0,2,2,2,1,,,,,
,1.22,,,,,,,,,j,red,5ebb48aefede09116c27f0f8,2021-09-27_17h11.59,forced_choiceRT_color,2021.2.3,MacIntel,55.55555556,,,,,,,,9,Fast,long,j,1,1.701,0,3,3,2,1,,,,,
,1.35,,,,,,,,,f,blue,5ebb48aefede09116c27f0f8,2021-09-27_17h11.59,forced_choiceRT_color,2021.2.3,MacIntel,55.55555556,,,,,,,,9,Ontime,long,f,1,2.074,1,0,4,1,1,,,,,
,1.29,,,,,,,,,d,orange,5ebb48aefede09116c27f0f8,2021-09-27_17h11.59,forced_choiceRT_color,2021.2.3,MacIntel,55.55555556,,,,,,,,9,Ontime,long,d,1,2.04,1,1,5,0,1,,,,,
,1.68,,,,,,,,,j,red,5ebb48aefede09116c27f0f8,2021-09-27_17h11.59,forced_choiceRT_color,2021.2.3,MacIntel,55.55555556,,,,,,,,9,Slow,long,j,1,2.277,1,2,6,2,1,,,,,
,0.12,,,,,,,,,d,orange,5ebb48aefede09116c27f0f8,2021-09-27_17h11.59,forced_choiceRT_color,2021.2.3,MacIntel,55.55555556,,,,,,,,9,Ontime,long,d,1,2.045,1,3,7,0,1,,,,,
,0.49,,,,,,,,,j,red,5ebb48aefede09116c27f0f8,2021-09-27_17h11.59,forced_choiceRT_color,2021.2.3,MacIntel,55.55555556,,,,,,,,9,Ontime,long,j,1,1.937,2,0,8,2,1,,,,,
,0.71,,,,,,,,,f,blue,5ebb48aefede09116c27f0f8,2021-09-27_17h11.59,forced_choiceRT_color,2021.2.3,MacIntel,55.55555556,,,,,,,,9,Ontime,long,f,1,2.05,2,1,9,1,1,,,,,
,0.08,,,,,,,,,d,orange,5ebb48aefede09116c27f0f8,2021-09-27_17h11.59,forced_choiceRT_color,2021.2.3,MacIntel,55.55555556,,,,,,,,9,Ontime,long,d,1,1.945,2,2,10,0,1,,,,,
,0.12,,,,,,,,,d,orange,5ebb48aefede09116c27f0f8,2021-09-27_17h11.59,forced_choiceRT_color,2021.2.3,MacIntel,55.55555556,,,,,,,,9,Ontime,long,d,1,2.021,2,3,11,0,1,,,,,
,0.82,,,,,,,,,d,orange,5ebb48aefede09116c27f0f8,2021-09-27_17h11.59,forced_choiceRT_color,2021.2.3,MacIntel,55.55555556,,,,,,,,9,Fast,long,d,1,1.845,3,0,12,0,1,,,,,
,1.17,,,,,,,,,d,orange,5ebb48aefede09116c27f0f8,2021-09-27_17h11.59,forced_choiceRT_color,2021.2.3,MacIntel,55.55555556,,,,,,,,9,Ontime,long,d,1,1.991,3,1,13,0,1,,,,,
,0.98,,,,,,,,,j,red,5ebb48aefede09116c27f0f8,2021-09-27_17h11.59,forced_choiceRT_color,2021.2.3,MacIntel,55.55555556,,,,,,,,9,Ontime,long,j,1,2.086,3,2,14,2,1,,,,,
,1.83,,,,,,,,,d,orange,5ebb48aefede09116c27f0f8,2021-09-27_17h11.59,forced_choiceRT_color,2021.2.3,MacIntel,55.55555556,,,,,,,,9,Slow,long,d,1,2.485,3,3,15,0,1,,,,,
,0.81,,,,,,,,,k,purple,5ebb48aefede09116c27f0f8,2021-09-27_17h11.59,forced_choiceRT_color,2021.2.3,MacIntel,55.55555556,,,,,,,,9,Ontime,long,f,0,1.975,4,0,16,3,1,,,,,
,0.09,,,,,,,,,j,red,5ebb48aefede09116c27f0f8,2021-09-27_17h11.59,forced_choiceRT_color,2021.2.3,MacIntel,55.55555556,,,,,,,,9,Ontime,long,j,1,1.976,4,1,17,2,1,,,,,
,0.35,,,,,,,,,d,orange,5ebb48aefede09116c27f0f8,2021-09-27_17h11.59,forced_choiceRT_color,2021.2.3,MacIntel,55.55555556,,,,,,,,9,Ontime,long,d,1,2.089,4,2,18,0,1,,,,,
,0.03,,,,,,,,,d,orange,5ebb48aefede09116c27f0f8,2021-09-27_17h11.59,forced_choiceRT_color,2021.2.3,MacIntel,55.55555556,,,,,,,,9,Ontime,long,d,1,2.045,4,3,19,0,1,,,,,
,1.24,,,,,,,,,j,red,5ebb48aefede09116c27f0f8,2021-09-27_17h11.59,forced_choiceRT_color,2021.2.3,MacIntel,55.55555556,,,,,,,,9,Ontime,long,j,1,1.9,5,0,20,2,1,,,,,
,1.04,,,,,,,,,f,blue,5ebb48aefede09116c27f0f8,2021-09-27_17h11.59,forced_choiceRT_color,2021.2.3,MacIntel,55.55555556,,,,,,,,9,Ontime,long,f,1,2.038,5,1,21,1,1,,,,,
,0.79,,,,,,,,,j,red,5ebb48aefede09116c27f0f8,2021-09-27_17h11.59,forced_choiceRT_color,2021.2.3,MacIntel,55.55555556,,,,,,,,9,Ontime,long,j,1,1.956,5,2,22,2,1,,,,,
,0.46,,,,,,,,,f,blue,5ebb48aefede09116c27f0f8,2021-09-27_17h11.59,forced_choiceRT_color,2021.2.3,MacIntel,55.55555556,,,,,,,,9,Fast,long,f,1,1.885,5,3,23,1,1,,,,,
,1.04,,,,,,,,,j,red,5ebb48aefede09116c27f0f8,2021-09-27_17h11.59,forced_choiceRT_color,2021.2.3,MacIntel,55.55555556,,,,,,,,9,Fast,long,d,0,1.876,6,0,24,2,1,,,,,
,0.51,,,,,,,,,j,red,5ebb48aefede09116c27f0f8,2021-09-27_17h11.59,forced_choiceRT_color,2021.2.3,MacIntel,55.55555556,,,,,,,,9,Ontime,long,j,1,2.021,6,1,25,2,1,,,,,
,1.56,,,,,,,,,k,purple,5ebb48aefede09116c27f0f8,2021-09-27_17h11.59,forced_choiceRT_color,2021.2.3,MacIntel,55.55555556,,,,,,,,9,Slow,long,k,1,2.341,6,2,26,3,1,,,,,
,1.14,,,,,,,,,k,purple,5ebb48aefede09116c27f0f8,2021-09-27_17h11.59,forced_choiceRT_color,2021.2.3,MacIntel,55.55555556,,,,,,,,9,Ontime,long,k,1,1.91,6,3,27,3,1,,,,,
,1.34,,,,,,,,,k,purple,5ebb48aefede09116c27f0f8,2021-09-27_17h11.59,forced_choiceRT_color,2021.2.3,MacIntel,55.55555556,,,,,,,,9,Ontime,long,k,1,2.032,7,0,28,3,1,,,,,
,0.09,,,,,,,,,f,blue,5ebb48aefede09116c27f0f8,2021-09-27_17h11.59,forced_choiceRT_color,2021.2.3,MacIntel,55.55555556,,,,,,,,9,Fast,long,f,1,1.893,7,1,29,1,1,,,,,
,1.79,,,,,,,,,k,purple,5ebb48aefede09116c27f0f8,2021-09-27_17h11.59,forced_choiceRT_color,2021.2.3,MacIntel,55.55555556,,,,,,,,9,Slow,long,j,0,2.227,7,2,30,3,1,,,,,
,1.89,,,,,,,,,k,purple,5ebb48aefede09116c27f0f8,2021-09-27_17h11.59,forced_choiceRT_color,2021.2.3,MacIntel,55.55555556,,,,,,,,9,Slow,long,f,0,2.35,7,3,31,3,1,,,,,
,0.86,,,,,,,,,k,purple,5ebb48aefede09116c27f0f8,2021-09-27_17h11.59,forced_choiceRT_color,2021.2.3,MacIntel,55.55555556,,,,,,,,9,Fast,long,d,0,1.558,8,0,32,3,1,,,,,
,1.99,,,,,,,,,k,purple,5ebb48aefede09116c27f0f8,2021-09-27_17h11.59,forced_choiceRT_color,2021.2.3,MacIntel,55.55555556,,,,,,,,9,Slow,long,j,0,2.381,8,1,33,3,1,,,,,
,0.55,,,,,,,,,f,blue,5ebb48aefede09116c27f0f8,2021-09-27_17h11.59,forced_choiceRT_color,2021.2.3,MacIntel,55.55555556,,,,,,,,9,Fast,long,j,0,1.708,8,2,34,1,1,,,,,
,0.64,,,,,,,,,f,blue,5ebb48aefede09116c27f0f8,2021-09-27_17h11.59,forced_choiceRT_color,2021.2.3,MacIntel,55.55555556,,,,,,,,9,Ontime,long,f,1,1.956,8,3,35,1,1,,,,,
,0.6,,,,,,,,,f,blue,5ebb48aefede09116c27f0f8,2021-09-27_17h11.59,forced_choiceRT_color,2021.2.3,MacIntel,55.55555556,,,,,,,,9,Slow,long,f,1,2.284,9,0,36,1,1,,,,,
,0.35,,,,,,,,,f,blue,5ebb48aefede09116c27f0f8,2021-09-27_17h11.59,forced_choiceRT_color,2021.2.3,MacIntel,55.55555556,,,,,,,,9,Slow,long,f,1,2.185,9,1,37,1,1,,,,,
,1.43,,,,,,,,,f,blue,5ebb48aefede09116c27f0f8,2021-09-27_17h11.59,forced_choiceRT_color,2021.2.3,MacIntel,55.55555556,,,,,,,,9,Slow,long,f,1,2.309,9,2,38,1,1,,,,,
,0.78,,,,,,,,,k,purple,5ebb48aefede09116c27f0f8,2021-09-27_17h11.59,forced_choiceRT_color,2021.2.3,MacIntel,55.55555556,,,,,,,,9,Ontime,long,d,0,1.942,9,3,39,3,1,,,,,
,,,,,,,,,,,,5ebb48aefede09116c27f0f8,2021-09-27_17h11.59,forced_choiceRT_color,2021.2.3,MacIntel,55.55555556,,,,,,,,,,,,,,,,,,,8,0,8,0,1
,1.29,,,,,,,,,f,blue,5ebb48aefede09116c27f0f8,2021-09-27_17h11.59,forced_choiceRT_color,2021.2.3,MacIntel,55.55555556,,,,,,,,10,Slow,long,f,1,2.246,0,0,0,1,1,,,,,
,0,,,,,,,,,k,purple,5ebb48aefede09116c27f0f8,2021-09-27_17h11.59,forced_choiceRT_color,2021.2.3,MacIntel,55.55555556,,,,,,,,10,Fast,long,d,0,1.789,0,1,1,3,1,,,,,
,0.99,,,,,,,,,f,blue,5ebb48aefede09116c27f0f8,2021-09-27_17h11.59,forced_choiceRT_color,2021.2.3,MacIntel,55.55555556,,,,,,,,10,Ontime,long,f,1,1.967,0,2,2,1,1,,,,,
,0.7,,,,,,,,,k,purple,5ebb48aefede09116c27f0f8,2021-09-27_17h11.59,forced_choiceRT_color,2021.2.3,MacIntel,55.55555556,,,,,,,,10,Ontime,long,d,0,2.052,0,3,3,3,1,,,,,
,1.69,,,,,,,,,j,red,5ebb48aefede09116c27f0f8,2021-09-27_17h11.59,forced_choiceRT_color,2021.2.3,MacIntel,55.55555556,,,,,,,,10,Slow,long,k,0,2.206,1,0,4,2,1,,,,,
,1.13,,,,,,,,,d,orange,5ebb48aefede09116c27f0f8,2021-09-27_17h11.59,forced_choiceRT_color,2021.2.3,MacIntel,55.55555556,,,,,,,,10,Ontime,long,d,1,1.958,1,1,5,0,1,,,,,
,0.07,,,,,,,,,f,blue,5ebb48aefede09116c27f0f8,2021-09-27_17h11.59,forced_choiceRT_color,2021.2.3,MacIntel,55.55555556,,,,,,,,10,Ontime,long,f,1,2.071,1,2,6,1,1,,,,,
,0.91,,,,,,,,,f,blue,5ebb48aefede09116c27f0f8,2021-09-27_17h11.59,forced_choiceRT_color,2021.2.3,MacIntel,55.55555556,,,,,,,,10,Fast,long,f,1,1.826,1,3,7,1,1,,,,,
,1.65,,,,,,,,,j,red,5ebb48aefede09116c27f0f8,2021-09-27_17h11.59,forced_choiceRT_color,2021.2.3,MacIntel,55.55555556,,,,,,,,10,Slow,long,j,1,2.204,2,0,8,2,1,,,,,
,1.59,,,,,,,,,d,orange,5ebb48aefede09116c27f0f8,2021-09-27_17h11.59,forced_choiceRT_color,2021.2.3,MacIntel,55.55555556,,,,,,,,10,Slow,long,d,1,2.11,2,1,9,0,1,,,,,
,0.53,,,,,,,,,d,orange,5ebb48aefede09116c27f0f8,2021-09-27_17h11.59,forced_choiceRT_color,2021.2.3,MacIntel,55.55555556,,,,,,,,10,Ontime,long,d,1,2.032,2,2,10,0,1,,,,,
,0.83,,,,,,,,,k,purple,5ebb48aefede09116c27f0f8,2021-09-27_17h11.59,forced_choiceRT_color,2021.2.3,MacIntel,55.55555556,,,,,,,,10,Ontime,long,k,1,2.008,2,3,11,3,1,,,,,
,0.64,,,,,,,,,f,blue,5ebb48aefede09116c27f0f8,2021-09-27_17h11.59,forced_choiceRT_color,2021.2.3,MacIntel,55.55555556,,,,,,,,10,Fast,long,j,0,1.767,3,0,12,1,1,,,,,
,0.21,,,,,,,,,j,red,5ebb48aefede09116c27f0f8,2021-09-27_17h11.59,forced_choiceRT_color,2021.2.3,MacIntel,55.55555556,,,,,,,,10,Fast,long,j,1,1.802,3,1,13,2,1,,,,,
,1.02,,,,,,,,,f,blue,5ebb48aefede09116c27f0f8,2021-09-27_17h11.59,forced_choiceRT_color,2021.2.3,MacIntel,55.55555556,,,,,,,,10,Ontime,long,f,1,2.032,3,2,14,1,1,,,,,
,0.85,,,,,,,,,f,blue,5ebb48aefede09116c27f0f8,2021-09-27_17h11.59,forced_choiceRT_color,2021.2.3,MacIntel,55.55555556,,,,,,,,10,Ontime,long,f,1,2.027,3,3,15,1,1,,,,,
,1.07,,,,,,,,,j,red,5ebb48aefede09116c27f0f8,2021-09-27_17h11.59,forced_choiceRT_color,2021.2.3,MacIntel,55.55555556,,,,,,,,10,Fast,long,j,1,1.891,4,0,16,2,1,,,,,
,0.35,,,,,,,,,k,purple,5ebb48aefede09116c27f0f8,2021-09-27_17h11.59,forced_choiceRT_color,2021.2.3,MacIntel,55.55555556,,,,,,,,10,Ontime,long,k,1,2.034,4,1,17,3,1,,,,,
,1.21,,,,,,,,,d,orange,5ebb48aefede09116c27f0f8,2021-09-27_17h11.59,forced_choiceRT_color,2021.2.3,MacIntel,55.55555556,,,,,,,,10,Slow,long,f,0,2.12,4,2,18,0,1,,,,,
,1.91,,,,,,,,,k,purple,5ebb48aefede09116c27f0f8,2021-09-27_17h11.59,forced_choiceRT_color,2021.2.3,MacIntel,55.55555556,,,,,,,,10,Slow,long,j,0,2.398,4,3,19,3,1,,,,,
,0.2,,,,,,,,,j,red,5ebb48aefede09116c27f0f8,2021-09-27_17h11.59,forced_choiceRT_color,2021.2.3,MacIntel,55.55555556,,,,,,,,10,Fast,long,f,0,1.892,5,0,20,2,1,,,,,
,0.41,,,,,,,,,d,orange,5ebb48aefede09116c27f0f8,2021-09-27_17h11.59,forced_choiceRT_color,2021.2.3,MacIntel,55.55555556,,,,,,,,10,Ontime,long,d,1,2.019,5,1,21,0,1,,,,,
,0.18,,,,,,,,,k,purple,5ebb48aefede09116c27f0f8,2021-09-27_17h11.59,forced_choiceRT_color,2021.2.3,MacIntel,55.55555556,,,,,,,,10,Ontime,long,k,1,1.996,5,2,22,3,1,,,,,
,0.06,,,,,,,,,k,purple,5ebb48aefede09116c27f0f8,2021-09-27_17h11.59,forced_choiceRT_color,2021.2.3,MacIntel,55.55555556,,,,,,,,10,Ontime,long,k,1,2.025,5,3,23,3,1,,,,,
,1.41,,,,,,,,,j,red,5ebb48aefede09116c27f0f8,2021-09-27_17h11.59,forced_choiceRT_color,2021.2.3,MacIntel,55.55555556,,,,,,,,10,Slow,long,f,0,2.165,6,0,24,2,1,,,,,
,1.19,,,,,,,,,k,purple,5ebb48aefede09116c27f0f8,2021-09-27_17h11.59,forced_choiceRT_color,2021.2.3,MacIntel,55.55555556,,,,,,,,10,Ontime,long,k,1,1.999,6,1,25,3,1,,,,,
,1.38,,,,,,,,,k,purple,5ebb48aefede09116c27f0f8,2021-09-27_17h11.59,forced_choiceRT_color,2021.2.3,MacIntel,55.55555556,,,,,,,,10,Slow,long,k,1,2.167,6,2,26,3,1,,,,,
,0.47,,,,,,,,,d,orange,5ebb48aefede09116c27f0f8,2021-09-27_17h11.59,forced_choiceRT_color,2021.2.3,MacIntel,55.55555556,,,,,,,,10,Ontime,long,d,1,2.004,6,3,27,0,1,,,,,
,0.12,,,,,,,,,j,red,5ebb48aefede09116c27f0f8,2021-09-27_17h11.59,forced_choiceRT_color,2021.2.3,MacIntel,55.55555556,,,,,,,,10,Slow,long,j,1,2.225,7,0,28,2,1,,,,,
,1.11,,,,,,,,,f,blue,5ebb48aefede09116c27f0f8,2021-09-27_17h11.59,forced_choiceRT_color,2021.2.3,MacIntel,55.55555556,,,,,,,,10,Ontime,long,f,1,2.03,7,1,29,1,1,,,,,
,0.82,,,,,,,,,j,red,5ebb48aefede09116c27f0f8,2021-09-27_17h11.59,forced_choiceRT_color,2021.2.3,MacIntel,55.55555556,,,,,,,,10,Fast,long,j,1,1.819,7,2,30,2,1,,,,,
,1.72,,,,,,,,,k,purple,5ebb48aefede09116c27f0f8,2021-09-27_17h11.59,forced_choiceRT_color,2021.2.3,MacIntel,55.55555556,,,,,,,,10,Slow,long,j,0,2.39,7,3,31,3,1,,,,,
,0.14,,,,,,,,,d,orange,5ebb48aefede09116c27f0f8,2021-09-27_17h11.59,forced_choiceRT_color,2021.2.3,MacIntel,55.55555556,,,,,,,,10,Fast,long,d,1,1.833,8,0,32,0,1,,,,,
,0.23,,,,,,,,,j,red,5ebb48aefede09116c27f0f8,2021-09-27_17h11.59,forced_choiceRT_color,2021.2.3,MacIntel,55.55555556,,,,,,,,10,Ontime,long,j,1,1.917,8,1,33,2,1,,,,,
,1.28,,,,,,,,,f,blue,5ebb48aefede09116c27f0f8,2021-09-27_17h11.59,forced_choiceRT_color,2021.2.3,MacIntel,55.55555556,,,,,,,,10,Slow,long,f,1,2.234,8,2,34,1,1,,,,,
,1.1,,,,,,,,,j,red,5ebb48aefede09116c27f0f8,2021-09-27_17h11.59,forced_choiceRT_color,2021.2.3,MacIntel,55.55555556,,,,,,,,10,Fast,long,j,1,1.817,8,3,35,2,1,,,,,
,1.64,,,,,,,,,f,blue,5ebb48aefede09116c27f0f8,2021-09-27_17h11.59,forced_choiceRT_color,2021.2.3,MacIntel,55.55555556,,,,,,,,10,Ontime,long,j,0,2.043,9,0,36,1,1,,,,,
,1.53,,,,,,,,,d,orange,5ebb48aefede09116c27f0f8,2021-09-27_17h11.59,forced_choiceRT_color,2021.2.3,MacIntel,55.55555556,,,,,,,,10,Ontime,long,d,1,2.068,9,1,37,0,1,,,,,
,0.42,,,,,,,,,d,orange,5ebb48aefede09116c27f0f8,2021-09-27_17h11.59,forced_choiceRT_color,2021.2.3,MacIntel,55.55555556,,,,,,,,10,Ontime,long,d,1,1.977,9,2,38,0,1,,,,,
,1.49,,,,,,,,,d,orange,5ebb48aefede09116c27f0f8,2021-09-27_17h11.59,forced_choiceRT_color,2021.2.3,MacIntel,55.55555556,,,,,,,,10,Slow,long,d,1,2.168,9,3,39,0,1,,,,,
,,,,,,,,,,,,5ebb48aefede09116c27f0f8,2021-09-27_17h11.59,forced_choiceRT_color,2021.2.3,MacIntel,55.55555556,,,,,,,,,,,,,,,,,,,9,0,9,0,1
