target_onset,trial_resp_sp.keys,trial_resp_sp.corr,trial_resp_sp.rt,trials_train_loop.thisRepN,trials_train_loop.thisTrialN,trials_train_loop.thisN,trials_train_loop.thisIndex,trials_train_loop.ran,correct_key,color,participant,date,expName,psychopyVersion,OS,frameRate,trial_resp_timing.keys,trial_resp_timing.rt,trials_train_timing.thisRepN,trials_train_timing.thisTrialN,trials_train_timing.thisN,trials_train_timing.thisIndex,trials_train_timing.ran,block_id,ontime,feedback_cond,forcedRT_resp.keys,forcedRT_resp.corr,forcedRT_resp.rt,trials.thisRepN,trials.thisTrialN,trials.thisN,trials.thisIndex,trials.ran,blocks.thisRepN,blocks.thisTrialN,blocks.thisN,blocks.thisIndex,blocks.ran
0,j,1,1.6415,0,0,0,2,1,j,red,5ebc55844e4f7f08eff7734d,2021-11-01_14h12.56.847,forced_choiceRT_color,2021.2.3,Win32,30.03814845,,,,,,,,,,,,,,,,,,,,,,,
0,d,1,0.7902,0,1,1,0,1,d,orange,5ebc55844e4f7f08eff7734d,2021-11-01_14h12.56.847,forced_choiceRT_color,2021.2.3,Win32,30.03814845,,,,,,,,,,,,,,,,,,,,,,,
0,k,1,0.7174,0,2,2,3,1,k,purple,5ebc55844e4f7f08eff7734d,2021-11-01_14h12.56.847,forced_choiceRT_color,2021.2.3,Win32,30.03814845,,,,,,,,,,,,,,,,,,,,,,,
0,j,1,0.7353,0,3,3,2,1,j,red,5ebc55844e4f7f08eff7734d,2021-11-01_14h12.56.847,forced_choiceRT_color,2021.2.3,Win32,30.03814845,,,,,,,,,,,,,,,,,,,,,,,
0,k,1,0.8064,1,0,4,3,1,k,purple,5ebc55844e4f7f08eff7734d,2021-11-01_14h12.56.847,forced_choiceRT_color,2021.2.3,Win32,30.03814845,,,,,,,,,,,,,,,,,,,,,,,
0,d,1,0.6827,1,1,5,0,1,d,orange,5ebc55844e4f7f08eff7734d,2021-11-01_14h12.56.847,forced_choiceRT_color,2021.2.3,Win32,30.03814845,,,,,,,,,,,,,,,,,,,,,,,
0,f,1,0.4424,1,2,6,1,1,f,blue,5ebc55844e4f7f08eff7734d,2021-11-01_14h12.56.847,forced_choiceRT_color,2021.2.3,Win32,30.03814845,,,,,,,,,,,,,,,,,,,,,,,
0,d,0,0.5542,1,3,7,1,1,f,blue,5ebc55844e4f7f08eff7734d,2021-11-01_14h12.56.847,forced_choiceRT_color,2021.2.3,Win32,30.03814845,,,,,,,,,,,,,,,,,,,,,,,
0,k,1,0.9911,2,0,8,3,1,k,purple,5ebc55844e4f7f08eff7734d,2021-11-01_14h12.56.847,forced_choiceRT_color,2021.2.3,Win32,30.03814845,,,,,,,,,,,,,,,,,,,,,,,
0,j,1,0.6499,2,1,9,2,1,j,red,5ebc55844e4f7f08eff7734d,2021-11-01_14h12.56.847,forced_choiceRT_color,2021.2.3,Win32,30.03814845,,,,,,,,,,,,,,,,,,,,,,,
0,k,1,0.7064,2,2,10,3,1,k,purple,5ebc55844e4f7f08eff7734d,2021-11-01_14h12.56.847,forced_choiceRT_color,2021.2.3,Win32,30.03814845,,,,,,,,,,,,,,,,,,,,,,,
0,k,1,0.6118,2,3,11,3,1,k,purple,5ebc55844e4f7f08eff7734d,2021-11-01_14h12.56.847,forced_choiceRT_color,2021.2.3,Win32,30.03814845,,,,,,,,,,,,,,,,,,,,,,,
0,k,1,0.5862,3,0,12,3,1,k,purple,5ebc55844e4f7f08eff7734d,2021-11-01_14h12.56.847,forced_choiceRT_color,2021.2.3,Win32,30.03814845,,,,,,,,,,,,,,,,,,,,,,,
0,k,1,0.4981,3,1,13,3,1,k,purple,5ebc55844e4f7f08eff7734d,2021-11-01_14h12.56.847,forced_choiceRT_color,2021.2.3,Win32,30.03814845,,,,,,,,,,,,,,,,,,,,,,,
0,j,1,0.7846,3,2,14,2,1,j,red,5ebc55844e4f7f08eff7734d,2021-11-01_14h12.56.847,forced_choiceRT_color,2021.2.3,Win32,30.03814845,,,,,,,,,,,,,,,,,,,,,,,
0,j,1,0.5894,3,3,15,2,1,j,red,5ebc55844e4f7f08eff7734d,2021-11-01_14h12.56.847,forced_choiceRT_color,2021.2.3,Win32,30.03814845,,,,,,,,,,,,,,,,,,,,,,,
0,j,1,0.5419,4,0,16,2,1,j,red,5ebc55844e4f7f08eff7734d,2021-11-01_14h12.56.847,forced_choiceRT_color,2021.2.3,Win32,30.03814845,,,,,,,,,,,,,,,,,,,,,,,
0,d,1,0.7355,4,1,17,0,1,d,orange,5ebc55844e4f7f08eff7734d,2021-11-01_14h12.56.847,forced_choiceRT_color,2021.2.3,Win32,30.03814845,,,,,,,,,,,,,,,,,,,,,,,
0,k,1,0.8722,4,2,18,3,1,k,purple,5ebc55844e4f7f08eff7734d,2021-11-01_14h12.56.847,forced_choiceRT_color,2021.2.3,Win32,30.03814845,,,,,,,,,,,,,,,,,,,,,,,
0,f,1,0.6761,4,3,19,1,1,f,blue,5ebc55844e4f7f08eff7734d,2021-11-01_14h12.56.847,forced_choiceRT_color,2021.2.3,Win32,30.03814845,,,,,,,,,,,,,,,,,,,,,,,
0,d,1,0.6656,5,0,20,0,1,d,orange,5ebc55844e4f7f08eff7734d,2021-11-01_14h12.56.847,forced_choiceRT_color,2021.2.3,Win32,30.03814845,,,,,,,,,,,,,,,,,,,,,,,
0,f,1,0.8866,5,1,21,1,1,f,blue,5ebc55844e4f7f08eff7734d,2021-11-01_14h12.56.847,forced_choiceRT_color,2021.2.3,Win32,30.03814845,,,,,,,,,,,,,,,,,,,,,,,
0,d,1,0.8362,5,2,22,0,1,d,orange,5ebc55844e4f7f08eff7734d,2021-11-01_14h12.56.847,forced_choiceRT_color,2021.2.3,Win32,30.03814845,,,,,,,,,,,,,,,,,,,,,,,
0,d,0,0.8678,5,3,23,1,1,f,blue,5ebc55844e4f7f08eff7734d,2021-11-01_14h12.56.847,forced_choiceRT_color,2021.2.3,Win32,30.03814845,,,,,,,,,,,,,,,,,,,,,,,
0,j,1,0.9825,6,0,24,2,1,j,red,5ebc55844e4f7f08eff7734d,2021-11-01_14h12.56.847,forced_choiceRT_color,2021.2.3,Win32,30.03814845,,,,,,,,,,,,,,,,,,,,,,,
0,d,1,1.3704,6,1,25,0,1,d,orange,5ebc55844e4f7f08eff7734d,2021-11-01_14h12.56.847,forced_choiceRT_color,2021.2.3,Win32,30.03814845,,,,,,,,,,,,,,,,,,,,,,,
0,d,1,1.166,6,2,26,0,1,d,orange,5ebc55844e4f7f08eff7734d,2021-11-01_14h12.56.847,forced_choiceRT_color,2021.2.3,Win32,30.03814845,,,,,,,,,,,,,,,,,,,,,,,
0,f,1,0.5313,6,3,27,1,1,f,blue,5ebc55844e4f7f08eff7734d,2021-11-01_14h12.56.847,forced_choiceRT_color,2021.2.3,Win32,30.03814845,,,,,,,,,,,,,,,,,,,,,,,
0,j,1,0.8244,7,0,28,2,1,j,red,5ebc55844e4f7f08eff7734d,2021-11-01_14h12.56.847,forced_choiceRT_color,2021.2.3,Win32,30.03814845,,,,,,,,,,,,,,,,,,,,,,,
0,d,1,0.7338,7,1,29,0,1,d,orange,5ebc55844e4f7f08eff7734d,2021-11-01_14h12.56.847,forced_choiceRT_color,2021.2.3,Win32,30.03814845,,,,,,,,,,,,,,,,,,,,,,,
0,d,1,0.5358,7,2,30,0,1,d,orange,5ebc55844e4f7f08eff7734d,2021-11-01_14h12.56.847,forced_choiceRT_color,2021.2.3,Win32,30.03814845,,,,,,,,,,,,,,,,,,,,,,,
0,f,1,0.5992,7,3,31,1,1,f,blue,5ebc55844e4f7f08eff7734d,2021-11-01_14h12.56.847,forced_choiceRT_color,2021.2.3,Win32,30.03814845,,,,,,,,,,,,,,,,,,,,,,,
0,d,1,0.7216,8,0,32,0,1,d,orange,5ebc55844e4f7f08eff7734d,2021-11-01_14h12.56.847,forced_choiceRT_color,2021.2.3,Win32,30.03814845,,,,,,,,,,,,,,,,,,,,,,,
0,k,1,0.7184,8,1,33,3,1,k,purple,5ebc55844e4f7f08eff7734d,2021-11-01_14h12.56.847,forced_choiceRT_color,2021.2.3,Win32,30.03814845,,,,,,,,,,,,,,,,,,,,,,,
0,k,1,0.9484,8,2,34,3,1,k,purple,5ebc55844e4f7f08eff7734d,2021-11-01_14h12.56.847,forced_choiceRT_color,2021.2.3,Win32,30.03814845,,,,,,,,,,,,,,,,,,,,,,,
0,k,1,0.6872,8,3,35,3,1,k,purple,5ebc55844e4f7f08eff7734d,2021-11-01_14h12.56.847,forced_choiceRT_color,2021.2.3,Win32,30.03814845,,,,,,,,,,,,,,,,,,,,,,,
0,f,1,0.7817,9,0,36,1,1,f,blue,5ebc55844e4f7f08eff7734d,2021-11-01_14h12.56.847,forced_choiceRT_color,2021.2.3,Win32,30.03814845,,,,,,,,,,,,,,,,,,,,,,,
0,d,1,0.7318,9,1,37,0,1,d,orange,5ebc55844e4f7f08eff7734d,2021-11-01_14h12.56.847,forced_choiceRT_color,2021.2.3,Win32,30.03814845,,,,,,,,,,,,,,,,,,,,,,,
0,j,1,0.5993,9,2,38,2,1,j,red,5ebc55844e4f7f08eff7734d,2021-11-01_14h12.56.847,forced_choiceRT_color,2021.2.3,Win32,30.03814845,,,,,,,,,,,,,,,,,,,,,,,
0,j,1,0.5904,9,3,39,2,1,j,red,5ebc55844e4f7f08eff7734d,2021-11-01_14h12.56.847,forced_choiceRT_color,2021.2.3,Win32,30.03814845,,,,,,,,,,,,,,,,,,,,,,,
0,j,1,0.5722,10,0,40,2,1,j,red,5ebc55844e4f7f08eff7734d,2021-11-01_14h12.56.847,forced_choiceRT_color,2021.2.3,Win32,30.03814845,,,,,,,,,,,,,,,,,,,,,,,
0,k,1,0.7578,10,1,41,3,1,k,purple,5ebc55844e4f7f08eff7734d,2021-11-01_14h12.56.847,forced_choiceRT_color,2021.2.3,Win32,30.03814845,,,,,,,,,,,,,,,,,,,,,,,
0,f,1,0.4536,10,2,42,1,1,f,blue,5ebc55844e4f7f08eff7734d,2021-11-01_14h12.56.847,forced_choiceRT_color,2021.2.3,Win32,30.03814845,,,,,,,,,,,,,,,,,,,,,,,
0,f,1,0.6513,10,3,43,1,1,f,blue,5ebc55844e4f7f08eff7734d,2021-11-01_14h12.56.847,forced_choiceRT_color,2021.2.3,Win32,30.03814845,,,,,,,,,,,,,,,,,,,,,,,
0,d,1,0.5087,11,0,44,0,1,d,orange,5ebc55844e4f7f08eff7734d,2021-11-01_14h12.56.847,forced_choiceRT_color,2021.2.3,Win32,30.03814845,,,,,,,,,,,,,,,,,,,,,,,
0,k,1,0.5984,11,1,45,3,1,k,purple,5ebc55844e4f7f08eff7734d,2021-11-01_14h12.56.847,forced_choiceRT_color,2021.2.3,Win32,30.03814845,,,,,,,,,,,,,,,,,,,,,,,
0,j,1,0.5553,11,2,46,2,1,j,red,5ebc55844e4f7f08eff7734d,2021-11-01_14h12.56.847,forced_choiceRT_color,2021.2.3,Win32,30.03814845,,,,,,,,,,,,,,,,,,,,,,,
0,j,1,0.8355,11,3,47,2,1,j,red,5ebc55844e4f7f08eff7734d,2021-11-01_14h12.56.847,forced_choiceRT_color,2021.2.3,Win32,30.03814845,,,,,,,,,,,,,,,,,,,,,,,
0,d,1,1.0318,12,0,48,0,1,d,orange,5ebc55844e4f7f08eff7734d,2021-11-01_14h12.56.847,forced_choiceRT_color,2021.2.3,Win32,30.03814845,,,,,,,,,,,,,,,,,,,,,,,
0,k,1,0.7006,12,1,49,3,1,k,purple,5ebc55844e4f7f08eff7734d,2021-11-01_14h12.56.847,forced_choiceRT_color,2021.2.3,Win32,30.03814845,,,,,,,,,,,,,,,,,,,,,,,
0,k,1,0.6902,12,2,50,3,1,k,purple,5ebc55844e4f7f08eff7734d,2021-11-01_14h12.56.847,forced_choiceRT_color,2021.2.3,Win32,30.03814845,,,,,,,,,,,,,,,,,,,,,,,
0,f,1,0.5424,12,3,51,1,1,f,blue,5ebc55844e4f7f08eff7734d,2021-11-01_14h12.56.847,forced_choiceRT_color,2021.2.3,Win32,30.03814845,,,,,,,,,,,,,,,,,,,,,,,
0,f,1,0.666,13,0,52,1,1,f,blue,5ebc55844e4f7f08eff7734d,2021-11-01_14h12.56.847,forced_choiceRT_color,2021.2.3,Win32,30.03814845,,,,,,,,,,,,,,,,,,,,,,,
0,f,1,0.5345,13,1,53,1,1,f,blue,5ebc55844e4f7f08eff7734d,2021-11-01_14h12.56.847,forced_choiceRT_color,2021.2.3,Win32,30.03814845,,,,,,,,,,,,,,,,,,,,,,,
0,d,1,0.4527,13,2,54,0,1,d,orange,5ebc55844e4f7f08eff7734d,2021-11-01_14h12.56.847,forced_choiceRT_color,2021.2.3,Win32,30.03814845,,,,,,,,,,,,,,,,,,,,,,,
0,f,1,0.4681,13,3,55,1,1,f,blue,5ebc55844e4f7f08eff7734d,2021-11-01_14h12.56.847,forced_choiceRT_color,2021.2.3,Win32,30.03814845,,,,,,,,,,,,,,,,,,,,,,,
0,j,1,0.4654,14,0,56,2,1,j,red,5ebc55844e4f7f08eff7734d,2021-11-01_14h12.56.847,forced_choiceRT_color,2021.2.3,Win32,30.03814845,,,,,,,,,,,,,,,,,,,,,,,
0,d,1,0.601,14,1,57,0,1,d,orange,5ebc55844e4f7f08eff7734d,2021-11-01_14h12.56.847,forced_choiceRT_color,2021.2.3,Win32,30.03814845,,,,,,,,,,,,,,,,,,,,,,,
0,f,1,0.4369,14,2,58,1,1,f,blue,5ebc55844e4f7f08eff7734d,2021-11-01_14h12.56.847,forced_choiceRT_color,2021.2.3,Win32,30.03814845,,,,,,,,,,,,,,,,,,,,,,,
0,j,1,0.4737,14,3,59,2,1,j,red,5ebc55844e4f7f08eff7734d,2021-11-01_14h12.56.847,forced_choiceRT_color,2021.2.3,Win32,30.03814845,,,,,,,,,,,,,,,,,,,,,,,
,,,,,,,,,,,5ebc55844e4f7f08eff7734d,2021-11-01_14h12.56.847,forced_choiceRT_color,2021.2.3,Win32,30.03814845,d,2.334,0,0,0,0,1,,,,,,,,,,,,,,,,
,,,,,,,,,,,5ebc55844e4f7f08eff7734d,2021-11-01_14h12.56.847,forced_choiceRT_color,2021.2.3,Win32,30.03814845,d,2.0578,1,0,1,0,1,,,,,,,,,,,,,,,,
,,,,,,,,,,,5ebc55844e4f7f08eff7734d,2021-11-01_14h12.56.847,forced_choiceRT_color,2021.2.3,Win32,30.03814845,f,2.0344,2,0,2,0,1,,,,,,,,,,,,,,,,
,,,,,,,,,,,5ebc55844e4f7f08eff7734d,2021-11-01_14h12.56.847,forced_choiceRT_color,2021.2.3,Win32,30.03814845,j,2.2436,3,0,3,0,1,,,,,,,,,,,,,,,,
,,,,,,,,,,,5ebc55844e4f7f08eff7734d,2021-11-01_14h12.56.847,forced_choiceRT_color,2021.2.3,Win32,30.03814845,j,2.0695,4,0,4,0,1,,,,,,,,,,,,,,,,
,,,,,,,,,,,5ebc55844e4f7f08eff7734d,2021-11-01_14h12.56.847,forced_choiceRT_color,2021.2.3,Win32,30.03814845,k,2.1456,5,0,5,0,1,,,,,,,,,,,,,,,,
,,,,,,,,,,,5ebc55844e4f7f08eff7734d,2021-11-01_14h12.56.847,forced_choiceRT_color,2021.2.3,Win32,30.03814845,k,2.013,6,0,6,0,1,,,,,,,,,,,,,,,,
,,,,,,,,,,,5ebc55844e4f7f08eff7734d,2021-11-01_14h12.56.847,forced_choiceRT_color,2021.2.3,Win32,30.03814845,d,2.0025,7,0,7,0,1,,,,,,,,,,,,,,,,
,,,,,,,,,,,5ebc55844e4f7f08eff7734d,2021-11-01_14h12.56.847,forced_choiceRT_color,2021.2.3,Win32,30.03814845,f,2.0995,8,0,8,0,1,,,,,,,,,,,,,,,,
,,,,,,,,,,,5ebc55844e4f7f08eff7734d,2021-11-01_14h12.56.847,forced_choiceRT_color,2021.2.3,Win32,30.03814845,j,2.1364,9,0,9,0,1,,,,,,,,,,,,,,,,
,,,,,,,,,,,5ebc55844e4f7f08eff7734d,2021-11-01_14h12.56.847,forced_choiceRT_color,2021.2.3,Win32,30.03814845,j,2.1668,10,0,10,0,1,,,,,,,,,,,,,,,,
,,,,,,,,,,,5ebc55844e4f7f08eff7734d,2021-11-01_14h12.56.847,forced_choiceRT_color,2021.2.3,Win32,30.03814845,j,2.0327,11,0,11,0,1,,,,,,,,,,,,,,,,
,,,,,,,,,,,5ebc55844e4f7f08eff7734d,2021-11-01_14h12.56.847,forced_choiceRT_color,2021.2.3,Win32,30.03814845,k,1.9336,12,0,12,0,1,,,,,,,,,,,,,,,,
,,,,,,,,,,,5ebc55844e4f7f08eff7734d,2021-11-01_14h12.56.847,forced_choiceRT_color,2021.2.3,Win32,30.03814845,d,2.0054,13,0,13,0,1,,,,,,,,,,,,,,,,
,,,,,,,,,,,5ebc55844e4f7f08eff7734d,2021-11-01_14h12.56.847,forced_choiceRT_color,2021.2.3,Win32,30.03814845,f,2.1046,14,0,14,0,1,,,,,,,,,,,,,,,,
,,,,,,,,,,,5ebc55844e4f7f08eff7734d,2021-11-01_14h12.56.847,forced_choiceRT_color,2021.2.3,Win32,30.03814845,f,1.9532,15,0,15,0,1,,,,,,,,,,,,,,,,
,,,,,,,,,,,5ebc55844e4f7f08eff7734d,2021-11-01_14h12.56.847,forced_choiceRT_color,2021.2.3,Win32,30.03814845,j,1.9333,16,0,16,0,1,,,,,,,,,,,,,,,,
,,,,,,,,,,,5ebc55844e4f7f08eff7734d,2021-11-01_14h12.56.847,forced_choiceRT_color,2021.2.3,Win32,30.03814845,k,1.9661,17,0,17,0,1,,,,,,,,,,,,,,,,
,,,,,,,,,,,5ebc55844e4f7f08eff7734d,2021-11-01_14h12.56.847,forced_choiceRT_color,2021.2.3,Win32,30.03814845,d,1.8546,18,0,18,0,1,,,,,,,,,,,,,,,,
,,,,,,,,,,,5ebc55844e4f7f08eff7734d,2021-11-01_14h12.56.847,forced_choiceRT_color,2021.2.3,Win32,30.03814845,d,1.9833,19,0,19,0,1,,,,,,,,,,,,,,,,
1.45,,,,,,,,,d,orange,5ebc55844e4f7f08eff7734d,2021-11-01_14h12.56.847,forced_choiceRT_color,2021.2.3,Win32,30.03814845,,,,,,,,1,Fast,long,j,0,1.7469,0,0,0,0,1,,,,,
0.54,,,,,,,,,f,blue,5ebc55844e4f7f08eff7734d,2021-11-01_14h12.56.847,forced_choiceRT_color,2021.2.3,Win32,30.03814845,,,,,,,,1,Slow,long,f,1,2.1348,0,1,1,1,1,,,,,
0.69,,,,,,,,,k,purple,5ebc55844e4f7f08eff7734d,2021-11-01_14h12.56.847,forced_choiceRT_color,2021.2.3,Win32,30.03814845,,,,,,,,1,Slow,long,k,1,2.1445,0,2,2,3,1,,,,,
1.65,,,,,,,,,j,red,5ebc55844e4f7f08eff7734d,2021-11-01_14h12.56.847,forced_choiceRT_color,2021.2.3,Win32,30.03814845,,,,,,,,1,Slow,long,d,0,2.2667,0,3,3,2,1,,,,,
1.78,,,,,,,,,k,purple,5ebc55844e4f7f08eff7734d,2021-11-01_14h12.56.847,forced_choiceRT_color,2021.2.3,Win32,30.03814845,,,,,,,,1,Slow,long,j,0,2.2201,1,0,4,3,1,,,,,
1.81,,,,,,,,,k,purple,5ebc55844e4f7f08eff7734d,2021-11-01_14h12.56.847,forced_choiceRT_color,2021.2.3,Win32,30.03814845,,,,,,,,1,Slow,long,d,0,2.1175,1,1,5,3,1,,,,,
1.03,,,,,,,,,k,purple,5ebc55844e4f7f08eff7734d,2021-11-01_14h12.56.847,forced_choiceRT_color,2021.2.3,Win32,30.03814845,,,,,,,,1,Ontime,long,k,1,2.0796,1,2,6,3,1,,,,,
0.09,,,,,,,,,d,orange,5ebc55844e4f7f08eff7734d,2021-11-01_14h12.56.847,forced_choiceRT_color,2021.2.3,Win32,30.03814845,,,,,,,,1,Slow,long,d,1,2.115,1,3,7,0,1,,,,,
1.6,,,,,,,,,d,orange,5ebc55844e4f7f08eff7734d,2021-11-01_14h12.56.847,forced_choiceRT_color,2021.2.3,Win32,30.03814845,,,,,,,,1,Slow,long,d,1,2.2225,2,0,8,0,1,,,,,
0.39,,,,,,,,,j,red,5ebc55844e4f7f08eff7734d,2021-11-01_14h12.56.847,forced_choiceRT_color,2021.2.3,Win32,30.03814845,,,,,,,,1,Ontime,long,f,0,2.0518,2,1,9,2,1,,,,,
1.27,,,,,,,,,j,red,5ebc55844e4f7f08eff7734d,2021-11-01_14h12.56.847,forced_choiceRT_color,2021.2.3,Win32,30.03814845,,,,,,,,1,Ontime,long,f,0,1.9797,2,2,10,2,1,,,,,
0.06,,,,,,,,,f,blue,5ebc55844e4f7f08eff7734d,2021-11-01_14h12.56.847,forced_choiceRT_color,2021.2.3,Win32,30.03814845,,,,,,,,1,Ontime,long,f,1,2.006,2,3,11,1,1,,,,,
0.46,,,,,,,,,k,purple,5ebc55844e4f7f08eff7734d,2021-11-01_14h12.56.847,forced_choiceRT_color,2021.2.3,Win32,30.03814845,,,,,,,,1,Slow,long,k,1,2.1001,3,0,12,3,1,,,,,
0,,,,,,,,,d,orange,5ebc55844e4f7f08eff7734d,2021-11-01_14h12.56.847,forced_choiceRT_color,2021.2.3,Win32,30.03814845,,,,,,,,1,Ontime,long,d,1,2.0035,3,1,13,0,1,,,,,
0.04,,,,,,,,,f,blue,5ebc55844e4f7f08eff7734d,2021-11-01_14h12.56.847,forced_choiceRT_color,2021.2.3,Win32,30.03814845,,,,,,,,1,Fast,long,f,1,1.8006,3,2,14,1,1,,,,,
1.71,,,,,,,,,f,blue,5ebc55844e4f7f08eff7734d,2021-11-01_14h12.56.847,forced_choiceRT_color,2021.2.3,Win32,30.03814845,,,,,,,,1,Slow,long,f,1,2.2529,3,3,15,1,1,,,,,
1.03,,,,,,,,,d,orange,5ebc55844e4f7f08eff7734d,2021-11-01_14h12.56.847,forced_choiceRT_color,2021.2.3,Win32,30.03814845,,,,,,,,1,Ontime,long,d,1,2.05,4,0,16,0,1,,,,,
0.7,,,,,,,,,j,red,5ebc55844e4f7f08eff7734d,2021-11-01_14h12.56.847,forced_choiceRT_color,2021.2.3,Win32,30.03814845,,,,,,,,1,Ontime,long,j,1,2.0505,4,1,17,2,1,,,,,
0.37,,,,,,,,,f,blue,5ebc55844e4f7f08eff7734d,2021-11-01_14h12.56.847,forced_choiceRT_color,2021.2.3,Win32,30.03814845,,,,,,,,1,Ontime,long,f,1,2.0699,4,2,18,1,1,,,,,
0.05,,,,,,,,,d,orange,5ebc55844e4f7f08eff7734d,2021-11-01_14h12.56.847,forced_choiceRT_color,2021.2.3,Win32,30.03814845,,,,,,,,1,Slow,long,d,1,2.1405,4,3,19,0,1,,,,,
1.83,,,,,,,,,j,red,5ebc55844e4f7f08eff7734d,2021-11-01_14h12.56.847,forced_choiceRT_color,2021.2.3,Win32,30.03814845,,,,,,,,1,Slow,long,k,0,2.3267,5,0,20,2,1,,,,,
1.58,,,,,,,,,j,red,5ebc55844e4f7f08eff7734d,2021-11-01_14h12.56.847,forced_choiceRT_color,2021.2.3,Win32,30.03814845,,,,,,,,1,Slow,long,f,0,2.112,5,1,21,2,1,,,,,
1.74,,,,,,,,,j,red,5ebc55844e4f7f08eff7734d,2021-11-01_14h12.56.847,forced_choiceRT_color,2021.2.3,Win32,30.03814845,,,,,,,,1,Slow,long,f,0,2.2836,5,2,22,2,1,,,,,
1.88,,,,,,,,,f,blue,5ebc55844e4f7f08eff7734d,2021-11-01_14h12.56.847,forced_choiceRT_color,2021.2.3,Win32,30.03814845,,,,,,,,1,Slow,long,f,1,2.3679,5,3,23,1,1,,,,,
0.89,,,,,,,,,d,orange,5ebc55844e4f7f08eff7734d,2021-11-01_14h12.56.847,forced_choiceRT_color,2021.2.3,Win32,30.03814845,,,,,,,,1,Ontime,long,d,1,2.0146,6,0,24,0,1,,,,,
1,,,,,,,,,f,blue,5ebc55844e4f7f08eff7734d,2021-11-01_14h12.56.847,forced_choiceRT_color,2021.2.3,Win32,30.03814845,,,,,,,,1,Ontime,long,f,1,2.0334,6,1,25,1,1,,,,,
0.61,,,,,,,,,f,blue,5ebc55844e4f7f08eff7734d,2021-11-01_14h12.56.847,forced_choiceRT_color,2021.2.3,Win32,30.03814845,,,,,,,,1,Fast,long,f,1,1.7159,6,2,26,1,1,,,,,
0.04,,,,,,,,,k,purple,5ebc55844e4f7f08eff7734d,2021-11-01_14h12.56.847,forced_choiceRT_color,2021.2.3,Win32,30.03814845,,,,,,,,1,Slow,long,k,1,2.1065,6,3,27,3,1,,,,,
1.69,,,,,,,,,k,purple,5ebc55844e4f7f08eff7734d,2021-11-01_14h12.56.847,forced_choiceRT_color,2021.2.3,Win32,30.03814845,,,,,,,,1,Slow,long,k,1,2.1562,7,0,28,3,1,,,,,
0.83,,,,,,,,,d,orange,5ebc55844e4f7f08eff7734d,2021-11-01_14h12.56.847,forced_choiceRT_color,2021.2.3,Win32,30.03814845,,,,,,,,1,Ontime,long,f,0,2.0812,7,1,29,0,1,,,,,
0.76,,,,,,,,,d,orange,5ebc55844e4f7f08eff7734d,2021-11-01_14h12.56.847,forced_choiceRT_color,2021.2.3,Win32,30.03814845,,,,,,,,1,Ontime,long,d,1,2.056,7,2,30,0,1,,,,,
1.74,,,,,,,,,k,purple,5ebc55844e4f7f08eff7734d,2021-11-01_14h12.56.847,forced_choiceRT_color,2021.2.3,Win32,30.03814845,,,,,,,,1,Slow,long,k,1,2.2596,7,3,31,3,1,,,,,
0.74,,,,,,,,,j,red,5ebc55844e4f7f08eff7734d,2021-11-01_14h12.56.847,forced_choiceRT_color,2021.2.3,Win32,30.03814845,,,,,,,,1,Slow,long,j,1,2.2759,8,0,32,2,1,,,,,
0.18,,,,,,,,,k,purple,5ebc55844e4f7f08eff7734d,2021-11-01_14h12.56.847,forced_choiceRT_color,2021.2.3,Win32,30.03814845,,,,,,,,1,Ontime,long,k,1,2.0803,8,1,33,3,1,,,,,
0.55,,,,,,,,,j,red,5ebc55844e4f7f08eff7734d,2021-11-01_14h12.56.847,forced_choiceRT_color,2021.2.3,Win32,30.03814845,,,,,,,,1,Slow,long,j,1,2.1084,8,2,34,2,1,,,,,
1.26,,,,,,,,,d,orange,5ebc55844e4f7f08eff7734d,2021-11-01_14h12.56.847,forced_choiceRT_color,2021.2.3,Win32,30.03814845,,,,,,,,1,Ontime,long,d,1,2.0089,8,3,35,0,1,,,,,
1.83,,,,,,,,,f,blue,5ebc55844e4f7f08eff7734d,2021-11-01_14h12.56.847,forced_choiceRT_color,2021.2.3,Win32,30.03814845,,,,,,,,1,Slow,long,j,0,2.2126,9,0,36,1,1,,,,,
1.6,,,,,,,,,f,blue,5ebc55844e4f7f08eff7734d,2021-11-01_14h12.56.847,forced_choiceRT_color,2021.2.3,Win32,30.03814845,,,,,,,,1,Slow,long,f,1,2.2339,9,1,37,1,1,,,,,
0.14,,,,,,,,,j,red,5ebc55844e4f7f08eff7734d,2021-11-01_14h12.56.847,forced_choiceRT_color,2021.2.3,Win32,30.03814845,,,,,,,,1,Ontime,long,j,1,2.0007,9,2,38,2,1,,,,,
0.34,,,,,,,,,k,purple,5ebc55844e4f7f08eff7734d,2021-11-01_14h12.56.847,forced_choiceRT_color,2021.2.3,Win32,30.03814845,,,,,,,,1,Ontime,long,k,1,2.0884,9,3,39,3,1,,,,,
,,,,,,,,,,,5ebc55844e4f7f08eff7734d,2021-11-01_14h12.56.847,forced_choiceRT_color,2021.2.3,Win32,30.03814845,,,,,,,,,,,,,,,,,,,0,0,0,0,1
0.23,,,,,,,,,d,orange,5ebc55844e4f7f08eff7734d,2021-11-01_14h12.56.847,forced_choiceRT_color,2021.2.3,Win32,30.03814845,,,,,,,,2,Ontime,long,d,1,2.0293,0,0,0,0,1,,,,,
0.43,,,,,,,,,f,blue,5ebc55844e4f7f08eff7734d,2021-11-01_14h12.56.847,forced_choiceRT_color,2021.2.3,Win32,30.03814845,,,,,,,,2,Ontime,long,f,1,2.0647,0,1,1,1,1,,,,,
0.56,,,,,,,,,f,blue,5ebc55844e4f7f08eff7734d,2021-11-01_14h12.56.847,forced_choiceRT_color,2021.2.3,Win32,30.03814845,,,,,,,,2,Ontime,long,f,1,2.0694,0,2,2,1,1,,,,,
0.59,,,,,,,,,f,blue,5ebc55844e4f7f08eff7734d,2021-11-01_14h12.56.847,forced_choiceRT_color,2021.2.3,Win32,30.03814845,,,,,,,,2,Slow,long,f,1,2.1157,0,3,3,1,1,,,,,
0.39,,,,,,,,,k,purple,5ebc55844e4f7f08eff7734d,2021-11-01_14h12.56.847,forced_choiceRT_color,2021.2.3,Win32,30.03814845,,,,,,,,2,Ontime,long,k,1,1.9579,1,0,4,3,1,,,,,
1.23,,,,,,,,,j,red,5ebc55844e4f7f08eff7734d,2021-11-01_14h12.56.847,forced_choiceRT_color,2021.2.3,Win32,30.03814845,,,,,,,,2,Ontime,long,j,1,2.0639,1,1,5,2,1,,,,,
0.73,,,,,,,,,d,orange,5ebc55844e4f7f08eff7734d,2021-11-01_14h12.56.847,forced_choiceRT_color,2021.2.3,Win32,30.03814845,,,,,,,,2,Ontime,long,d,1,2.0974,1,2,6,0,1,,,,,
1.35,,,,,,,,,j,red,5ebc55844e4f7f08eff7734d,2021-11-01_14h12.56.847,forced_choiceRT_color,2021.2.3,Win32,30.03814845,,,,,,,,2,Ontime,long,j,1,2.0491,1,3,7,2,1,,,,,
1.59,,,,,,,,,k,purple,5ebc55844e4f7f08eff7734d,2021-11-01_14h12.56.847,forced_choiceRT_color,2021.2.3,Win32,30.03814845,,,,,,,,2,Slow,long,k,1,2.1205,2,0,8,3,1,,,,,
1.38,,,,,,,,,d,orange,5ebc55844e4f7f08eff7734d,2021-11-01_14h12.56.847,forced_choiceRT_color,2021.2.3,Win32,30.03814845,,,,,,,,2,Ontime,long,d,1,2.0113,2,1,9,0,1,,,,,
1.77,,,,,,,,,j,red,5ebc55844e4f7f08eff7734d,2021-11-01_14h12.56.847,forced_choiceRT_color,2021.2.3,Win32,30.03814845,,,,,,,,2,Slow,long,j,1,2.228,2,2,10,2,1,,,,,
0.73,,,,,,,,,d,orange,5ebc55844e4f7f08eff7734d,2021-11-01_14h12.56.847,forced_choiceRT_color,2021.2.3,Win32,30.03814845,,,,,,,,2,Ontime,long,d,1,2.0132,2,3,11,0,1,,,,,
0.96,,,,,,,,,f,blue,5ebc55844e4f7f08eff7734d,2021-11-01_14h12.56.847,forced_choiceRT_color,2021.2.3,Win32,30.03814845,,,,,,,,2,Ontime,long,f,1,1.964,3,0,12,1,1,,,,,
0.53,,,,,,,,,f,blue,5ebc55844e4f7f08eff7734d,2021-11-01_14h12.56.847,forced_choiceRT_color,2021.2.3,Win32,30.03814845,,,,,,,,2,Ontime,long,f,1,2.0479,3,1,13,1,1,,,,,
0.37,,,,,,,,,k,purple,5ebc55844e4f7f08eff7734d,2021-11-01_14h12.56.847,forced_choiceRT_color,2021.2.3,Win32,30.03814845,,,,,,,,2,Ontime,long,k,1,1.9876,3,2,14,3,1,,,,,
1.82,,,,,,,,,d,orange,5ebc55844e4f7f08eff7734d,2021-11-01_14h12.56.847,forced_choiceRT_color,2021.2.3,Win32,30.03814845,,,,,,,,2,Slow,long,d,1,2.2577,3,3,15,0,1,,,,,
0.93,,,,,,,,,j,red,5ebc55844e4f7f08eff7734d,2021-11-01_14h12.56.847,forced_choiceRT_color,2021.2.3,Win32,30.03814845,,,,,,,,2,Ontime,long,j,1,1.9276,4,0,16,2,1,,,,,
0.15,,,,,,,,,j,red,5ebc55844e4f7f08eff7734d,2021-11-01_14h12.56.847,forced_choiceRT_color,2021.2.3,Win32,30.03814845,,,,,,,,2,Slow,long,j,1,2.1011,4,1,17,2,1,,,,,
1.66,,,,,,,,,k,purple,5ebc55844e4f7f08eff7734d,2021-11-01_14h12.56.847,forced_choiceRT_color,2021.2.3,Win32,30.03814845,,,,,,,,2,Ontime,long,k,1,2.0901,4,2,18,3,1,,,,,
0.87,,,,,,,,,k,purple,5ebc55844e4f7f08eff7734d,2021-11-01_14h12.56.847,forced_choiceRT_color,2021.2.3,Win32,30.03814845,,,,,,,,2,Ontime,long,k,1,1.9974,4,3,19,3,1,,,,,
1.31,,,,,,,,,d,orange,5ebc55844e4f7f08eff7734d,2021-11-01_14h12.56.847,forced_choiceRT_color,2021.2.3,Win32,30.03814845,,,,,,,,2,Fast,long,d,1,1.8742,5,0,20,0,1,,,,,
1.44,,,,,,,,,k,purple,5ebc55844e4f7f08eff7734d,2021-11-01_14h12.56.847,forced_choiceRT_color,2021.2.3,Win32,30.03814845,,,,,,,,2,Ontime,long,k,1,2.0777,5,1,21,3,1,,,,,
1.25,,,,,,,,,d,orange,5ebc55844e4f7f08eff7734d,2021-11-01_14h12.56.847,forced_choiceRT_color,2021.2.3,Win32,30.03814845,,,,,,,,2,Ontime,long,d,1,2.0401,5,2,22,0,1,,,,,
0.11,,,,,,,,,j,red,5ebc55844e4f7f08eff7734d,2021-11-01_14h12.56.847,forced_choiceRT_color,2021.2.3,Win32,30.03814845,,,,,,,,2,Ontime,long,j,1,2.0615,5,3,23,2,1,,,,,
0.39,,,,,,,,,f,blue,5ebc55844e4f7f08eff7734d,2021-11-01_14h12.56.847,forced_choiceRT_color,2021.2.3,Win32,30.03814845,,,,,,,,2,Ontime,long,f,1,2.0147,6,0,24,1,1,,,,,
1.64,,,,,,,,,j,red,5ebc55844e4f7f08eff7734d,2021-11-01_14h12.56.847,forced_choiceRT_color,2021.2.3,Win32,30.03814845,,,,,,,,2,Ontime,long,k,0,2.0153,6,1,25,2,1,,,,,
0.88,,,,,,,,,j,red,5ebc55844e4f7f08eff7734d,2021-11-01_14h12.56.847,forced_choiceRT_color,2021.2.3,Win32,30.03814845,,,,,,,,2,Ontime,long,j,1,2.0696,6,2,26,2,1,,,,,
1.18,,,,,,,,,d,orange,5ebc55844e4f7f08eff7734d,2021-11-01_14h12.56.847,forced_choiceRT_color,2021.2.3,Win32,30.03814845,,,,,,,,2,Ontime,long,d,1,1.9563,6,3,27,0,1,,,,,
0.04,,,,,,,,,k,purple,5ebc55844e4f7f08eff7734d,2021-11-01_14h12.56.847,forced_choiceRT_color,2021.2.3,Win32,30.03814845,,,,,,,,2,Ontime,long,k,1,1.9915,7,0,28,3,1,,,,,
1.58,,,,,,,,,f,blue,5ebc55844e4f7f08eff7734d,2021-11-01_14h12.56.847,forced_choiceRT_color,2021.2.3,Win32,30.03814845,,,,,,,,2,Slow,long,d,0,2.1076,7,1,29,1,1,,,,,
1.98,,,,,,,,,k,purple,5ebc55844e4f7f08eff7734d,2021-11-01_14h12.56.847,forced_choiceRT_color,2021.2.3,Win32,30.03814845,,,,,,,,2,Slow,long,d,0,2.1835,7,2,30,3,1,,,,,
1.53,,,,,,,,,k,purple,5ebc55844e4f7f08eff7734d,2021-11-01_14h12.56.847,forced_choiceRT_color,2021.2.3,Win32,30.03814845,,,,,,,,2,Ontime,long,k,1,2.0378,7,3,31,3,1,,,,,
1.78,,,,,,,,,j,red,5ebc55844e4f7f08eff7734d,2021-11-01_14h12.56.847,forced_choiceRT_color,2021.2.3,Win32,30.03814845,,,,,,,,2,Slow,long,j,1,2.1575,8,0,32,2,1,,,,,
1.54,,,,,,,,,k,purple,5ebc55844e4f7f08eff7734d,2021-11-01_14h12.56.847,forced_choiceRT_color,2021.2.3,Win32,30.03814845,,,,,,,,2,Slow,long,k,1,2.1213,8,1,33,3,1,,,,,
1.3,,,,,,,,,j,red,5ebc55844e4f7f08eff7734d,2021-11-01_14h12.56.847,forced_choiceRT_color,2021.2.3,Win32,30.03814845,,,,,,,,2,Fast,long,j,1,1.7839,8,2,34,2,1,,,,,
1.98,,,,,,,,,f,blue,5ebc55844e4f7f08eff7734d,2021-11-01_14h12.56.847,forced_choiceRT_color,2021.2.3,Win32,30.03814845,,,,,,,,2,Slow,long,k,0,2.1086,8,3,35,1,1,,,,,
1.12,,,,,,,,,f,blue,5ebc55844e4f7f08eff7734d,2021-11-01_14h12.56.847,forced_choiceRT_color,2021.2.3,Win32,30.03814845,,,,,,,,2,Fast,long,f,1,1.8259,9,0,36,1,1,,,,,
0.51,,,,,,,,,d,orange,5ebc55844e4f7f08eff7734d,2021-11-01_14h12.56.847,forced_choiceRT_color,2021.2.3,Win32,30.03814845,,,,,,,,2,Slow,long,d,1,2.1175,9,1,37,0,1,,,,,
1.23,,,,,,,,,f,blue,5ebc55844e4f7f08eff7734d,2021-11-01_14h12.56.847,forced_choiceRT_color,2021.2.3,Win32,30.03814845,,,,,,,,2,Ontime,long,f,1,2.001,9,2,38,1,1,,,,,
1.59,,,,,,,,,d,orange,5ebc55844e4f7f08eff7734d,2021-11-01_14h12.56.847,forced_choiceRT_color,2021.2.3,Win32,30.03814845,,,,,,,,2,Ontime,long,k,0,1.9357,9,3,39,0,1,,,,,
,,,,,,,,,,,5ebc55844e4f7f08eff7734d,2021-11-01_14h12.56.847,forced_choiceRT_color,2021.2.3,Win32,30.03814845,,,,,,,,,,,,,,,,,,,1,0,1,0,1
0.47,,,,,,,,,j,red,5ebc55844e4f7f08eff7734d,2021-11-01_14h12.56.847,forced_choiceRT_color,2021.2.3,Win32,30.03814845,,,,,,,,3,Ontime,long,f,0,2.0328,0,0,0,2,1,,,,,
1.78,,,,,,,,,d,orange,5ebc55844e4f7f08eff7734d,2021-11-01_14h12.56.847,forced_choiceRT_color,2021.2.3,Win32,30.03814845,,,,,,,,3,Slow,long,j,0,2.2631,0,1,1,0,1,,,,,
0.18,,,,,,,,,f,blue,5ebc55844e4f7f08eff7734d,2021-11-01_14h12.56.847,forced_choiceRT_color,2021.2.3,Win32,30.03814845,,,,,,,,3,Ontime,long,f,1,2.0301,0,2,2,1,1,,,,,
1.04,,,,,,,,,k,purple,5ebc55844e4f7f08eff7734d,2021-11-01_14h12.56.847,forced_choiceRT_color,2021.2.3,Win32,30.03814845,,,,,,,,3,Ontime,long,k,1,2.0302,0,3,3,3,1,,,,,
0.98,,,,,,,,,f,blue,5ebc55844e4f7f08eff7734d,2021-11-01_14h12.56.847,forced_choiceRT_color,2021.2.3,Win32,30.03814845,,,,,,,,3,Ontime,long,f,1,1.9229,1,0,4,1,1,,,,,
1.65,,,,,,,,,j,red,5ebc55844e4f7f08eff7734d,2021-11-01_14h12.56.847,forced_choiceRT_color,2021.2.3,Win32,30.03814845,,,,,,,,3,Ontime,long,j,1,2.0478,1,1,5,2,1,,,,,
1.56,,,,,,,,,d,orange,5ebc55844e4f7f08eff7734d,2021-11-01_14h12.56.847,forced_choiceRT_color,2021.2.3,Win32,30.03814845,,,,,,,,3,Slow,long,d,1,2.118,1,2,6,0,1,,,,,
0.3,,,,,,,,,k,purple,5ebc55844e4f7f08eff7734d,2021-11-01_14h12.56.847,forced_choiceRT_color,2021.2.3,Win32,30.03814845,,,,,,,,3,Ontime,long,k,1,1.9726,1,3,7,3,1,,,,,
1.24,,,,,,,,,f,blue,5ebc55844e4f7f08eff7734d,2021-11-01_14h12.56.847,forced_choiceRT_color,2021.2.3,Win32,30.03814845,,,,,,,,3,Ontime,long,d,0,2.0293,2,0,8,1,1,,,,,
1.59,,,,,,,,,k,purple,5ebc55844e4f7f08eff7734d,2021-11-01_14h12.56.847,forced_choiceRT_color,2021.2.3,Win32,30.03814845,,,,,,,,3,Slow,long,k,1,2.256,2,1,9,3,1,,,,,
0.61,,,,,,,,,k,purple,5ebc55844e4f7f08eff7734d,2021-11-01_14h12.56.847,forced_choiceRT_color,2021.2.3,Win32,30.03814845,,,,,,,,3,Ontime,long,k,1,2.035,2,2,10,3,1,,,,,
0.76,,,,,,,,,j,red,5ebc55844e4f7f08eff7734d,2021-11-01_14h12.56.847,forced_choiceRT_color,2021.2.3,Win32,30.03814845,,,,,,,,3,Ontime,long,j,1,2.0871,2,3,11,2,1,,,,,
0.44,,,,,,,,,k,purple,5ebc55844e4f7f08eff7734d,2021-11-01_14h12.56.847,forced_choiceRT_color,2021.2.3,Win32,30.03814845,,,,,,,,3,Ontime,long,k,1,1.9608,3,0,12,3,1,,,,,
0.65,,,,,,,,,d,orange,5ebc55844e4f7f08eff7734d,2021-11-01_14h12.56.847,forced_choiceRT_color,2021.2.3,Win32,30.03814845,,,,,,,,3,Ontime,long,d,1,1.9951,3,1,13,0,1,,,,,
1.55,,,,,,,,,f,blue,5ebc55844e4f7f08eff7734d,2021-11-01_14h12.56.847,forced_choiceRT_color,2021.2.3,Win32,30.03814845,,,,,,,,3,Slow,long,f,1,2.1425,3,2,14,1,1,,,,,
0.04,,,,,,,,,f,blue,5ebc55844e4f7f08eff7734d,2021-11-01_14h12.56.847,forced_choiceRT_color,2021.2.3,Win32,30.03814845,,,,,,,,3,Ontime,long,f,1,2.0291,3,3,15,1,1,,,,,
1.9,,,,,,,,,j,red,5ebc55844e4f7f08eff7734d,2021-11-01_14h12.56.847,forced_choiceRT_color,2021.2.3,Win32,30.03814845,,,,,,,,3,Slow,long,k,0,2.2466,4,0,16,2,1,,,,,
1.23,,,,,,,,,k,purple,5ebc55844e4f7f08eff7734d,2021-11-01_14h12.56.847,forced_choiceRT_color,2021.2.3,Win32,30.03814845,,,,,,,,3,Ontime,long,k,1,2.0303,4,1,17,3,1,,,,,
1.14,,,,,,,,,j,red,5ebc55844e4f7f08eff7734d,2021-11-01_14h12.56.847,forced_choiceRT_color,2021.2.3,Win32,30.03814845,,,,,,,,3,Ontime,long,j,1,1.9766,4,2,18,2,1,,,,,
0.42,,,,,,,,,f,blue,5ebc55844e4f7f08eff7734d,2021-11-01_14h12.56.847,forced_choiceRT_color,2021.2.3,Win32,30.03814845,,,,,,,,3,Ontime,long,f,1,2.0246,4,3,19,1,1,,,,,
1.91,,,,,,,,,d,orange,5ebc55844e4f7f08eff7734d,2021-11-01_14h12.56.847,forced_choiceRT_color,2021.2.3,Win32,30.03814845,,,,,,,,3,Slow,long,j,0,2.2592,5,0,20,0,1,,,,,
0.74,,,,,,,,,d,orange,5ebc55844e4f7f08eff7734d,2021-11-01_14h12.56.847,forced_choiceRT_color,2021.2.3,Win32,30.03814845,,,,,,,,3,Ontime,long,d,1,2.0919,5,1,21,0,1,,,,,
1.6,,,,,,,,,f,blue,5ebc55844e4f7f08eff7734d,2021-11-01_14h12.56.847,forced_choiceRT_color,2021.2.3,Win32,30.03814845,,,,,,,,3,Slow,long,f,1,2.1642,5,2,22,1,1,,,,,
0.61,,,,,,,,,k,purple,5ebc55844e4f7f08eff7734d,2021-11-01_14h12.56.847,forced_choiceRT_color,2021.2.3,Win32,30.03814845,,,,,,,,3,Fast,long,k,1,1.8583,5,3,23,3,1,,,,,
1.95,,,,,,,,,j,red,5ebc55844e4f7f08eff7734d,2021-11-01_14h12.56.847,forced_choiceRT_color,2021.2.3,Win32,30.03814845,,,,,,,,3,Slow,long,k,0,2.1556,6,0,24,2,1,,,,,
0.14,,,,,,,,,d,orange,5ebc55844e4f7f08eff7734d,2021-11-01_14h12.56.847,forced_choiceRT_color,2021.2.3,Win32,30.03814845,,,,,,,,3,Slow,long,d,1,2.1845,6,1,25,0,1,,,,,
1.7,,,,,,,,,f,blue,5ebc55844e4f7f08eff7734d,2021-11-01_14h12.56.847,forced_choiceRT_color,2021.2.3,Win32,30.03814845,,,,,,,,3,Slow,long,d,0,2.1526,6,2,26,1,1,,,,,
0.63,,,,,,,,,f,blue,5ebc55844e4f7f08eff7734d,2021-11-01_14h12.56.847,forced_choiceRT_color,2021.2.3,Win32,30.03814845,,,,,,,,3,Slow,long,f,1,2.1178,6,3,27,1,1,,,,,
0.92,,,,,,,,,f,blue,5ebc55844e4f7f08eff7734d,2021-11-01_14h12.56.847,forced_choiceRT_color,2021.2.3,Win32,30.03814845,,,,,,,,3,Ontime,long,f,1,2.0778,7,0,28,1,1,,,,,
0,,,,,,,,,j,red,5ebc55844e4f7f08eff7734d,2021-11-01_14h12.56.847,forced_choiceRT_color,2021.2.3,Win32,30.03814845,,,,,,,,3,Ontime,long,j,1,1.9711,7,1,29,2,1,,,,,
0.72,,,,,,,,,j,red,5ebc55844e4f7f08eff7734d,2021-11-01_14h12.56.847,forced_choiceRT_color,2021.2.3,Win32,30.03814845,,,,,,,,3,Ontime,long,j,1,1.9787,7,2,30,2,1,,,,,
1.3,,,,,,,,,d,orange,5ebc55844e4f7f08eff7734d,2021-11-01_14h12.56.847,forced_choiceRT_color,2021.2.3,Win32,30.03814845,,,,,,,,3,Fast,long,k,0,1.8517,7,3,31,0,1,,,,,
1.98,,,,,,,,,k,purple,5ebc55844e4f7f08eff7734d,2021-11-01_14h12.56.847,forced_choiceRT_color,2021.2.3,Win32,30.03814845,,,,,,,,3,Slow,long,k,1,2.1414,8,0,32,3,1,,,,,
1.94,,,,,,,,,k,purple,5ebc55844e4f7f08eff7734d,2021-11-01_14h12.56.847,forced_choiceRT_color,2021.2.3,Win32,30.03814845,,,,,,,,3,Slow,long,d,0,2.2532,8,1,33,3,1,,,,,
0.1,,,,,,,,,k,purple,5ebc55844e4f7f08eff7734d,2021-11-01_14h12.56.847,forced_choiceRT_color,2021.2.3,Win32,30.03814845,,,,,,,,3,Ontime,long,k,1,2.0263,8,2,34,3,1,,,,,
0.4,,,,,,,,,d,orange,5ebc55844e4f7f08eff7734d,2021-11-01_14h12.56.847,forced_choiceRT_color,2021.2.3,Win32,30.03814845,,,,,,,,3,Ontime,long,d,1,1.9126,8,3,35,0,1,,,,,
1.82,,,,,,,,,j,red,5ebc55844e4f7f08eff7734d,2021-11-01_14h12.56.847,forced_choiceRT_color,2021.2.3,Win32,30.03814845,,,,,,,,3,Ontime,long,k,0,1.9299,9,0,36,2,1,,,,,
0.02,,,,,,,,,d,orange,5ebc55844e4f7f08eff7734d,2021-11-01_14h12.56.847,forced_choiceRT_color,2021.2.3,Win32,30.03814845,,,,,,,,3,Ontime,long,d,1,1.9993,9,1,37,0,1,,,,,
1.89,,,,,,,,,d,orange,5ebc55844e4f7f08eff7734d,2021-11-01_14h12.56.847,forced_choiceRT_color,2021.2.3,Win32,30.03814845,,,,,,,,3,Slow,long,j,0,2.1464,9,2,38,0,1,,,,,
0.88,,,,,,,,,j,red,5ebc55844e4f7f08eff7734d,2021-11-01_14h12.56.847,forced_choiceRT_color,2021.2.3,Win32,30.03814845,,,,,,,,3,Ontime,long,j,1,2.0596,9,3,39,2,1,,,,,
,,,,,,,,,,,5ebc55844e4f7f08eff7734d,2021-11-01_14h12.56.847,forced_choiceRT_color,2021.2.3,Win32,30.03814845,,,,,,,,,,,,,,,,,,,2,0,2,0,1
1.2,,,,,,,,,d,orange,5ebc55844e4f7f08eff7734d,2021-11-01_14h12.56.847,forced_choiceRT_color,2021.2.3,Win32,30.03814845,,,,,,,,4,Slow,long,d,1,2.2003,0,0,0,0,1,,,,,
1.09,,,,,,,,,d,orange,5ebc55844e4f7f08eff7734d,2021-11-01_14h12.56.847,forced_choiceRT_color,2021.2.3,Win32,30.03814845,,,,,,,,4,Slow,long,d,1,2.1224,0,1,1,0,1,,,,,
1.19,,,,,,,,,j,red,5ebc55844e4f7f08eff7734d,2021-11-01_14h12.56.847,forced_choiceRT_color,2021.2.3,Win32,30.03814845,,,,,,,,4,Fast,long,k,0,1.7444,0,2,2,2,1,,,,,
1.8,,,,,,,,,j,red,5ebc55844e4f7f08eff7734d,2021-11-01_14h12.56.847,forced_choiceRT_color,2021.2.3,Win32,30.03814845,,,,,,,,4,Slow,long,j,1,2.3514,0,3,3,2,1,,,,,
0.09,,,,,,,,,d,orange,5ebc55844e4f7f08eff7734d,2021-11-01_14h12.56.847,forced_choiceRT_color,2021.2.3,Win32,30.03814845,,,,,,,,4,Slow,long,d,1,2.1024,1,0,4,0,1,,,,,
1.29,,,,,,,,,d,orange,5ebc55844e4f7f08eff7734d,2021-11-01_14h12.56.847,forced_choiceRT_color,2021.2.3,Win32,30.03814845,,,,,,,,4,Ontime,long,d,1,1.9682,1,1,5,0,1,,,,,
1.2,,,,,,,,,j,red,5ebc55844e4f7f08eff7734d,2021-11-01_14h12.56.847,forced_choiceRT_color,2021.2.3,Win32,30.03814845,,,,,,,,4,Fast,long,j,1,1.8531,1,2,6,2,1,,,,,
1.14,,,,,,,,,f,blue,5ebc55844e4f7f08eff7734d,2021-11-01_14h12.56.847,forced_choiceRT_color,2021.2.3,Win32,30.03814845,,,,,,,,4,Ontime,long,f,1,2.0024,1,3,7,1,1,,,,,
0.37,,,,,,,,,j,red,5ebc55844e4f7f08eff7734d,2021-11-01_14h12.56.847,forced_choiceRT_color,2021.2.3,Win32,30.03814845,,,,,,,,4,Ontime,long,j,1,2.0747,2,0,8,2,1,,,,,
0.74,,,,,,,,,d,orange,5ebc55844e4f7f08eff7734d,2021-11-01_14h12.56.847,forced_choiceRT_color,2021.2.3,Win32,30.03814845,,,,,,,,4,Ontime,long,d,1,2.0895,2,1,9,0,1,,,,,
0.1,,,,,,,,,f,blue,5ebc55844e4f7f08eff7734d,2021-11-01_14h12.56.847,forced_choiceRT_color,2021.2.3,Win32,30.03814845,,,,,,,,4,Ontime,long,f,1,2.0558,2,2,10,1,1,,,,,
0.84,,,,,,,,,k,purple,5ebc55844e4f7f08eff7734d,2021-11-01_14h12.56.847,forced_choiceRT_color,2021.2.3,Win32,30.03814845,,,,,,,,4,Ontime,long,k,1,2.003,2,3,11,3,1,,,,,
1.52,,,,,,,,,k,purple,5ebc55844e4f7f08eff7734d,2021-11-01_14h12.56.847,forced_choiceRT_color,2021.2.3,Win32,30.03814845,,,,,,,,4,Ontime,long,f,0,2.0047,3,0,12,3,1,,,,,
1.69,,,,,,,,,k,purple,5ebc55844e4f7f08eff7734d,2021-11-01_14h12.56.847,forced_choiceRT_color,2021.2.3,Win32,30.03814845,,,,,,,,4,Slow,long,k,1,2.1679,3,1,13,3,1,,,,,
1.52,,,,,,,,,k,purple,5ebc55844e4f7f08eff7734d,2021-11-01_14h12.56.847,forced_choiceRT_color,2021.2.3,Win32,30.03814845,,,,,,,,4,Ontime,long,k,1,2.0606,3,2,14,3,1,,,,,
0.79,,,,,,,,,k,purple,5ebc55844e4f7f08eff7734d,2021-11-01_14h12.56.847,forced_choiceRT_color,2021.2.3,Win32,30.03814845,,,,,,,,4,Slow,long,k,1,2.1094,3,3,15,3,1,,,,,
0.15,,,,,,,,,j,red,5ebc55844e4f7f08eff7734d,2021-11-01_14h12.56.847,forced_choiceRT_color,2021.2.3,Win32,30.03814845,,,,,,,,4,Ontime,long,j,1,2.0355,4,0,16,2,1,,,,,
0.74,,,,,,,,,j,red,5ebc55844e4f7f08eff7734d,2021-11-01_14h12.56.847,forced_choiceRT_color,2021.2.3,Win32,30.03814845,,,,,,,,4,Ontime,long,j,1,2.0446,4,1,17,2,1,,,,,
1.76,,,,,,,,,k,purple,5ebc55844e4f7f08eff7734d,2021-11-01_14h12.56.847,forced_choiceRT_color,2021.2.3,Win32,30.03814845,,,,,,,,4,Ontime,long,f,0,1.9329,4,2,18,3,1,,,,,
0.45,,,,,,,,,d,orange,5ebc55844e4f7f08eff7734d,2021-11-01_14h12.56.847,forced_choiceRT_color,2021.2.3,Win32,30.03814845,,,,,,,,4,Ontime,long,d,1,2.0233,4,3,19,0,1,,,,,
1.25,,,,,,,,,k,purple,5ebc55844e4f7f08eff7734d,2021-11-01_14h12.56.847,forced_choiceRT_color,2021.2.3,Win32,30.03814845,,,,,,,,4,Slow,long,k,1,2.1474,5,0,20,3,1,,,,,
0.74,,,,,,,,,f,blue,5ebc55844e4f7f08eff7734d,2021-11-01_14h12.56.847,forced_choiceRT_color,2021.2.3,Win32,30.03814845,,,,,,,,4,Ontime,long,f,1,1.9686,5,1,21,1,1,,,,,
1.14,,,,,,,,,f,blue,5ebc55844e4f7f08eff7734d,2021-11-01_14h12.56.847,forced_choiceRT_color,2021.2.3,Win32,30.03814845,,,,,,,,4,Ontime,long,f,1,1.9357,5,2,22,1,1,,,,,
1.98,,,,,,,,,d,orange,5ebc55844e4f7f08eff7734d,2021-11-01_14h12.56.847,forced_choiceRT_color,2021.2.3,Win32,30.03814845,,,,,,,,4,Fast,long,f,0,1.8076,5,3,23,0,1,,,,,
0.92,,,,,,,,,d,orange,5ebc55844e4f7f08eff7734d,2021-11-01_14h12.56.847,forced_choiceRT_color,2021.2.3,Win32,30.03814845,,,,,,,,4,Ontime,long,d,1,2.0402,6,0,24,0,1,,,,,
1.07,,,,,,,,,k,purple,5ebc55844e4f7f08eff7734d,2021-11-01_14h12.56.847,forced_choiceRT_color,2021.2.3,Win32,30.03814845,,,,,,,,4,Ontime,long,k,1,1.9876,6,1,25,3,1,,,,,
0.13,,,,,,,,,j,red,5ebc55844e4f7f08eff7734d,2021-11-01_14h12.56.847,forced_choiceRT_color,2021.2.3,Win32,30.03814845,,,,,,,,4,Fast,long,j,1,1.7571,6,2,26,2,1,,,,,
1.89,,,,,,,,,j,red,5ebc55844e4f7f08eff7734d,2021-11-01_14h12.56.847,forced_choiceRT_color,2021.2.3,Win32,30.03814845,,,,,,,,4,Ontime,long,k,0,2.048,6,3,27,2,1,,,,,
0.45,,,,,,,,,f,blue,5ebc55844e4f7f08eff7734d,2021-11-01_14h12.56.847,forced_choiceRT_color,2021.2.3,Win32,30.03814845,,,,,,,,4,Ontime,long,f,1,2.0081,7,0,28,1,1,,,,,
0.11,,,,,,,,,j,red,5ebc55844e4f7f08eff7734d,2021-11-01_14h12.56.847,forced_choiceRT_color,2021.2.3,Win32,30.03814845,,,,,,,,4,Ontime,long,j,1,2.0574,7,1,29,2,1,,,,,
0.27,,,,,,,,,d,orange,5ebc55844e4f7f08eff7734d,2021-11-01_14h12.56.847,forced_choiceRT_color,2021.2.3,Win32,30.03814845,,,,,,,,4,Slow,long,d,1,2.1009,7,2,30,0,1,,,,,
0.39,,,,,,,,,d,orange,5ebc55844e4f7f08eff7734d,2021-11-01_14h12.56.847,forced_choiceRT_color,2021.2.3,Win32,30.03814845,,,,,,,,4,Ontime,long,d,1,1.9009,7,3,31,0,1,,,,,
0.83,,,,,,,,,f,blue,5ebc55844e4f7f08eff7734d,2021-11-01_14h12.56.847,forced_choiceRT_color,2021.2.3,Win32,30.03814845,,,,,,,,4,Ontime,long,f,1,2.0236,8,0,32,1,1,,,,,
0.32,,,,,,,,,f,blue,5ebc55844e4f7f08eff7734d,2021-11-01_14h12.56.847,forced_choiceRT_color,2021.2.3,Win32,30.03814845,,,,,,,,4,Ontime,long,f,1,2.0366,8,1,33,1,1,,,,,
1.01,,,,,,,,,f,blue,5ebc55844e4f7f08eff7734d,2021-11-01_14h12.56.847,forced_choiceRT_color,2021.2.3,Win32,30.03814845,,,,,,,,4,Ontime,long,f,1,1.9179,8,2,34,1,1,,,,,
0.76,,,,,,,,,k,purple,5ebc55844e4f7f08eff7734d,2021-11-01_14h12.56.847,forced_choiceRT_color,2021.2.3,Win32,30.03814845,,,,,,,,4,Ontime,long,k,1,2.0002,8,3,35,3,1,,,,,
1.14,,,,,,,,,k,purple,5ebc55844e4f7f08eff7734d,2021-11-01_14h12.56.847,forced_choiceRT_color,2021.2.3,Win32,30.03814845,,,,,,,,4,Fast,long,k,1,1.8666,9,0,36,3,1,,,,,
0.74,,,,,,,,,f,blue,5ebc55844e4f7f08eff7734d,2021-11-01_14h12.56.847,forced_choiceRT_color,2021.2.3,Win32,30.03814845,,,,,,,,4,Ontime,long,f,1,2.0333,9,1,37,1,1,,,,,
0.32,,,,,,,,,f,blue,5ebc55844e4f7f08eff7734d,2021-11-01_14h12.56.847,forced_choiceRT_color,2021.2.3,Win32,30.03814845,,,,,,,,4,Ontime,long,f,1,2.0147,9,2,38,1,1,,,,,
0.69,,,,,,,,,j,red,5ebc55844e4f7f08eff7734d,2021-11-01_14h12.56.847,forced_choiceRT_color,2021.2.3,Win32,30.03814845,,,,,,,,4,Ontime,long,j,1,2.0222,9,3,39,2,1,,,,,
,,,,,,,,,,,5ebc55844e4f7f08eff7734d,2021-11-01_14h12.56.847,forced_choiceRT_color,2021.2.3,Win32,30.03814845,,,,,,,,,,,,,,,,,,,3,0,3,0,1
0.85,,,,,,,,,f,blue,5ebc55844e4f7f08eff7734d,2021-11-01_14h12.56.847,forced_choiceRT_color,2021.2.3,Win32,30.03814845,,,,,,,,5,Slow,long,f,1,2.122,0,0,0,1,1,,,,,
0.63,,,,,,,,,j,red,5ebc55844e4f7f08eff7734d,2021-11-01_14h12.56.847,forced_choiceRT_color,2021.2.3,Win32,30.03814845,,,,,,,,5,Slow,long,j,1,2.1034,0,1,1,2,1,,,,,
1.56,,,,,,,,,d,orange,5ebc55844e4f7f08eff7734d,2021-11-01_14h12.56.847,forced_choiceRT_color,2021.2.3,Win32,30.03814845,,,,,,,,5,Ontime,long,k,0,2.0783,0,2,2,0,1,,,,,
0.89,,,,,,,,,k,purple,5ebc55844e4f7f08eff7734d,2021-11-01_14h12.56.847,forced_choiceRT_color,2021.2.3,Win32,30.03814845,,,,,,,,5,Ontime,long,k,1,2.0241,0,3,3,3,1,,,,,
0.51,,,,,,,,,k,purple,5ebc55844e4f7f08eff7734d,2021-11-01_14h12.56.847,forced_choiceRT_color,2021.2.3,Win32,30.03814845,,,,,,,,5,Ontime,long,k,1,1.9337,1,0,4,3,1,,,,,
1.28,,,,,,,,,d,orange,5ebc55844e4f7f08eff7734d,2021-11-01_14h12.56.847,forced_choiceRT_color,2021.2.3,Win32,30.03814845,,,,,,,,5,Ontime,long,d,1,1.9105,1,1,5,0,1,,,,,
1.13,,,,,,,,,d,orange,5ebc55844e4f7f08eff7734d,2021-11-01_14h12.56.847,forced_choiceRT_color,2021.2.3,Win32,30.03814845,,,,,,,,5,Ontime,long,d,1,1.9708,1,2,6,0,1,,,,,
1.3,,,,,,,,,f,blue,5ebc55844e4f7f08eff7734d,2021-11-01_14h12.56.847,forced_choiceRT_color,2021.2.3,Win32,30.03814845,,,,,,,,5,Ontime,long,f,1,2.0376,1,3,7,1,1,,,,,
1.17,,,,,,,,,k,purple,5ebc55844e4f7f08eff7734d,2021-11-01_14h12.56.847,forced_choiceRT_color,2021.2.3,Win32,30.03814845,,,,,,,,5,Ontime,long,k,1,2.0571,2,0,8,3,1,,,,,
1.45,,,,,,,,,j,red,5ebc55844e4f7f08eff7734d,2021-11-01_14h12.56.847,forced_choiceRT_color,2021.2.3,Win32,30.03814845,,,,,,,,5,Ontime,long,d,0,2.0358,2,1,9,2,1,,,,,
1.59,,,,,,,,,k,purple,5ebc55844e4f7f08eff7734d,2021-11-01_14h12.56.847,forced_choiceRT_color,2021.2.3,Win32,30.03814845,,,,,,,,5,Slow,long,k,1,2.1436,2,2,10,3,1,,,,,
0.13,,,,,,,,,k,purple,5ebc55844e4f7f08eff7734d,2021-11-01_14h12.56.847,forced_choiceRT_color,2021.2.3,Win32,30.03814845,,,,,,,,5,Ontime,long,k,1,2.0689,2,3,11,3,1,,,,,
1.97,,,,,,,,,d,orange,5ebc55844e4f7f08eff7734d,2021-11-01_14h12.56.847,forced_choiceRT_color,2021.2.3,Win32,30.03814845,,,,,,,,5,Slow,long,k,0,2.1056,3,0,12,0,1,,,,,
1.68,,,,,,,,,f,blue,5ebc55844e4f7f08eff7734d,2021-11-01_14h12.56.847,forced_choiceRT_color,2021.2.3,Win32,30.03814845,,,,,,,,5,Ontime,long,k,0,2.0168,3,1,13,1,1,,,,,
0.83,,,,,,,,,j,red,5ebc55844e4f7f08eff7734d,2021-11-01_14h12.56.847,forced_choiceRT_color,2021.2.3,Win32,30.03814845,,,,,,,,5,Slow,long,j,1,2.1012,3,2,14,2,1,,,,,
1.7,,,,,,,,,d,orange,5ebc55844e4f7f08eff7734d,2021-11-01_14h12.56.847,forced_choiceRT_color,2021.2.3,Win32,30.03814845,,,,,,,,5,Ontime,long,k,0,1.9378,3,3,15,0,1,,,,,
1.7,,,,,,,,,f,blue,5ebc55844e4f7f08eff7734d,2021-11-01_14h12.56.847,forced_choiceRT_color,2021.2.3,Win32,30.03814845,,,,,,,,5,Ontime,long,k,0,1.9666,4,0,16,1,1,,,,,
0.62,,,,,,,,,d,orange,5ebc55844e4f7f08eff7734d,2021-11-01_14h12.56.847,forced_choiceRT_color,2021.2.3,Win32,30.03814845,,,,,,,,5,Ontime,long,d,1,2.0358,4,1,17,0,1,,,,,
1.88,,,,,,,,,j,red,5ebc55844e4f7f08eff7734d,2021-11-01_14h12.56.847,forced_choiceRT_color,2021.2.3,Win32,30.03814845,,,,,,,,5,Ontime,long,k,0,1.9477,4,2,18,2,1,,,,,
1.91,,,,,,,,,f,blue,5ebc55844e4f7f08eff7734d,2021-11-01_14h12.56.847,forced_choiceRT_color,2021.2.3,Win32,30.03814845,,,,,,,,5,Ontime,long,d,0,2.005,4,3,19,1,1,,,,,
1.92,,,,,,,,,j,red,5ebc55844e4f7f08eff7734d,2021-11-01_14h12.56.847,forced_choiceRT_color,2021.2.3,Win32,30.03814845,,,,,,,,5,Ontime,long,k,0,2.0333,5,0,20,2,1,,,,,
1.01,,,,,,,,,f,blue,5ebc55844e4f7f08eff7734d,2021-11-01_14h12.56.847,forced_choiceRT_color,2021.2.3,Win32,30.03814845,,,,,,,,5,Ontime,long,f,1,2.0267,5,1,21,1,1,,,,,
0.12,,,,,,,,,j,red,5ebc55844e4f7f08eff7734d,2021-11-01_14h12.56.847,forced_choiceRT_color,2021.2.3,Win32,30.03814845,,,,,,,,5,Ontime,long,j,1,2.0332,5,2,22,2,1,,,,,
1.38,,,,,,,,,d,orange,5ebc55844e4f7f08eff7734d,2021-11-01_14h12.56.847,forced_choiceRT_color,2021.2.3,Win32,30.03814845,,,,,,,,5,Ontime,long,d,1,2.0776,5,3,23,0,1,,,,,
1.86,,,,,,,,,j,red,5ebc55844e4f7f08eff7734d,2021-11-01_14h12.56.847,forced_choiceRT_color,2021.2.3,Win32,30.03814845,,,,,,,,5,Slow,long,k,0,2.2329,6,0,24,2,1,,,,,
0.29,,,,,,,,,k,purple,5ebc55844e4f7f08eff7734d,2021-11-01_14h12.56.847,forced_choiceRT_color,2021.2.3,Win32,30.03814845,,,,,,,,5,Ontime,long,k,1,2.014,6,1,25,3,1,,,,,
0.96,,,,,,,,,d,orange,5ebc55844e4f7f08eff7734d,2021-11-01_14h12.56.847,forced_choiceRT_color,2021.2.3,Win32,30.03814845,,,,,,,,5,Ontime,long,d,1,2.0812,6,2,26,0,1,,,,,
0.14,,,,,,,,,f,blue,5ebc55844e4f7f08eff7734d,2021-11-01_14h12.56.847,forced_choiceRT_color,2021.2.3,Win32,30.03814845,,,,,,,,5,Ontime,long,f,1,2.0473,6,3,27,1,1,,,,,
0.5,,,,,,,,,d,orange,5ebc55844e4f7f08eff7734d,2021-11-01_14h12.56.847,forced_choiceRT_color,2021.2.3,Win32,30.03814845,,,,,,,,5,Ontime,long,d,1,1.9213,7,0,28,0,1,,,,,
0.87,,,,,,,,,k,purple,5ebc55844e4f7f08eff7734d,2021-11-01_14h12.56.847,forced_choiceRT_color,2021.2.3,Win32,30.03814845,,,,,,,,5,Fast,long,k,1,1.8179,7,1,29,3,1,,,,,
0.61,,,,,,,,,d,orange,5ebc55844e4f7f08eff7734d,2021-11-01_14h12.56.847,forced_choiceRT_color,2021.2.3,Win32,30.03814845,,,,,,,,5,Ontime,long,d,1,2.0349,7,2,30,0,1,,,,,
0.07,,,,,,,,,j,red,5ebc55844e4f7f08eff7734d,2021-11-01_14h12.56.847,forced_choiceRT_color,2021.2.3,Win32,30.03814845,,,,,,,,5,Ontime,long,j,1,2.0201,7,3,31,2,1,,,,,
1.56,,,,,,,,,j,red,5ebc55844e4f7f08eff7734d,2021-11-01_14h12.56.847,forced_choiceRT_color,2021.2.3,Win32,30.03814845,,,,,,,,5,Slow,long,k,0,2.1023,8,0,32,2,1,,,,,
1.18,,,,,,,,,j,red,5ebc55844e4f7f08eff7734d,2021-11-01_14h12.56.847,forced_choiceRT_color,2021.2.3,Win32,30.03814845,,,,,,,,5,Ontime,long,j,1,2.009,8,1,33,2,1,,,,,
1.79,,,,,,,,,f,blue,5ebc55844e4f7f08eff7734d,2021-11-01_14h12.56.847,forced_choiceRT_color,2021.2.3,Win32,30.03814845,,,,,,,,5,Ontime,long,k,0,2.0136,8,2,34,1,1,,,,,
0.6,,,,,,,,,f,blue,5ebc55844e4f7f08eff7734d,2021-11-01_14h12.56.847,forced_choiceRT_color,2021.2.3,Win32,30.03814845,,,,,,,,5,Fast,long,f,1,1.888,8,3,35,1,1,,,,,
0.64,,,,,,,,,f,blue,5ebc55844e4f7f08eff7734d,2021-11-01_14h12.56.847,forced_choiceRT_color,2021.2.3,Win32,30.03814845,,,,,,,,5,Ontime,long,f,1,2.034,9,0,36,1,1,,,,,
0.4,,,,,,,,,k,purple,5ebc55844e4f7f08eff7734d,2021-11-01_14h12.56.847,forced_choiceRT_color,2021.2.3,Win32,30.03814845,,,,,,,,5,Ontime,long,k,1,2.0397,9,1,37,3,1,,,,,
1.43,,,,,,,,,k,purple,5ebc55844e4f7f08eff7734d,2021-11-01_14h12.56.847,forced_choiceRT_color,2021.2.3,Win32,30.03814845,,,,,,,,5,Slow,long,k,1,2.1025,9,2,38,3,1,,,,,
1.22,,,,,,,,,k,purple,5ebc55844e4f7f08eff7734d,2021-11-01_14h12.56.847,forced_choiceRT_color,2021.2.3,Win32,30.03814845,,,,,,,,5,Slow,long,k,1,2.1013,9,3,39,3,1,,,,,
,,,,,,,,,,,5ebc55844e4f7f08eff7734d,2021-11-01_14h12.56.847,forced_choiceRT_color,2021.2.3,Win32,30.03814845,,,,,,,,,,,,,,,,,,,4,0,4,0,1
1.5,,,,,,,,,j,red,5ebc55844e4f7f08eff7734d,2021-11-01_14h12.56.847,forced_choiceRT_color,2021.2.3,Win32,30.03814845,,,,,,,,6,Ontime,long,k,0,2.0712,0,0,0,2,1,,,,,
1.17,,,,,,,,,j,red,5ebc55844e4f7f08eff7734d,2021-11-01_14h12.56.847,forced_choiceRT_color,2021.2.3,Win32,30.03814845,,,,,,,,6,Ontime,long,j,1,2.0005,0,1,1,2,1,,,,,
0.91,,,,,,,,,j,red,5ebc55844e4f7f08eff7734d,2021-11-01_14h12.56.847,forced_choiceRT_color,2021.2.3,Win32,30.03814845,,,,,,,,6,Slow,long,j,1,2.1349,0,2,2,2,1,,,,,
1.79,,,,,,,,,k,purple,5ebc55844e4f7f08eff7734d,2021-11-01_14h12.56.847,forced_choiceRT_color,2021.2.3,Win32,30.03814845,,,,,,,,6,Slow,long,d,0,2.1019,0,3,3,3,1,,,,,
0.68,,,,,,,,,f,blue,5ebc55844e4f7f08eff7734d,2021-11-01_14h12.56.847,forced_choiceRT_color,2021.2.3,Win32,30.03814845,,,,,,,,6,Ontime,long,f,1,2.0001,1,0,4,1,1,,,,,
1.13,,,,,,,,,k,purple,5ebc55844e4f7f08eff7734d,2021-11-01_14h12.56.847,forced_choiceRT_color,2021.2.3,Win32,30.03814845,,,,,,,,6,Fast,long,k,1,1.8211,1,1,5,3,1,,,,,
1.72,,,,,,,,,j,red,5ebc55844e4f7f08eff7734d,2021-11-01_14h12.56.847,forced_choiceRT_color,2021.2.3,Win32,30.03814845,,,,,,,,6,Ontime,long,j,1,2.0764,1,2,6,2,1,,,,,
0.13,,,,,,,,,k,purple,5ebc55844e4f7f08eff7734d,2021-11-01_14h12.56.847,forced_choiceRT_color,2021.2.3,Win32,30.03814845,,,,,,,,6,Ontime,long,k,1,2.0349,1,3,7,3,1,,,,,
1.76,,,,,,,,,f,blue,5ebc55844e4f7f08eff7734d,2021-11-01_14h12.56.847,forced_choiceRT_color,2021.2.3,Win32,30.03814845,,,,,,,,6,Ontime,long,k,0,2.0561,2,0,8,1,1,,,,,
1.85,,,,,,,,,d,orange,5ebc55844e4f7f08eff7734d,2021-11-01_14h12.56.847,forced_choiceRT_color,2021.2.3,Win32,30.03814845,,,,,,,,6,Slow,long,k,0,2.1427,2,1,9,0,1,,,,,
1.78,,,,,,,,,f,blue,5ebc55844e4f7f08eff7734d,2021-11-01_14h12.56.847,forced_choiceRT_color,2021.2.3,Win32,30.03814845,,,,,,,,6,Ontime,long,d,0,2.0401,2,2,10,1,1,,,,,
0.19,,,,,,,,,d,orange,5ebc55844e4f7f08eff7734d,2021-11-01_14h12.56.847,forced_choiceRT_color,2021.2.3,Win32,30.03814845,,,,,,,,6,Ontime,long,d,1,2.0716,2,3,11,0,1,,,,,
0.43,,,,,,,,,f,blue,5ebc55844e4f7f08eff7734d,2021-11-01_14h12.56.847,forced_choiceRT_color,2021.2.3,Win32,30.03814845,,,,,,,,6,Ontime,long,f,1,1.9826,3,0,12,1,1,,,,,
1.36,,,,,,,,,k,purple,5ebc55844e4f7f08eff7734d,2021-11-01_14h12.56.847,forced_choiceRT_color,2021.2.3,Win32,30.03814845,,,,,,,,6,Ontime,long,k,1,1.9435,3,1,13,3,1,,,,,
1.45,,,,,,,,,f,blue,5ebc55844e4f7f08eff7734d,2021-11-01_14h12.56.847,forced_choiceRT_color,2021.2.3,Win32,30.03814845,,,,,,,,6,Slow,long,f,1,2.1009,3,2,14,1,1,,,,,
1.04,,,,,,,,,k,purple,5ebc55844e4f7f08eff7734d,2021-11-01_14h12.56.847,forced_choiceRT_color,2021.2.3,Win32,30.03814845,,,,,,,,6,Ontime,long,k,1,1.9792,3,3,15,3,1,,,,,
0.26,,,,,,,,,d,orange,5ebc55844e4f7f08eff7734d,2021-11-01_14h12.56.847,forced_choiceRT_color,2021.2.3,Win32,30.03814845,,,,,,,,6,Ontime,long,d,1,2.0563,4,0,16,0,1,,,,,
0.69,,,,,,,,,j,red,5ebc55844e4f7f08eff7734d,2021-11-01_14h12.56.847,forced_choiceRT_color,2021.2.3,Win32,30.03814845,,,,,,,,6,Ontime,long,j,1,1.9846,4,1,17,2,1,,,,,
1.39,,,,,,,,,d,orange,5ebc55844e4f7f08eff7734d,2021-11-01_14h12.56.847,forced_choiceRT_color,2021.2.3,Win32,30.03814845,,,,,,,,6,Ontime,long,d,1,2.0675,4,2,18,0,1,,,,,
0.23,,,,,,,,,f,blue,5ebc55844e4f7f08eff7734d,2021-11-01_14h12.56.847,forced_choiceRT_color,2021.2.3,Win32,30.03814845,,,,,,,,6,Slow,long,f,1,2.1007,4,3,19,1,1,,,,,
0.28,,,,,,,,,f,blue,5ebc55844e4f7f08eff7734d,2021-11-01_14h12.56.847,forced_choiceRT_color,2021.2.3,Win32,30.03814845,,,,,,,,6,Ontime,long,f,1,1.9678,5,0,20,1,1,,,,,
1.97,,,,,,,,,j,red,5ebc55844e4f7f08eff7734d,2021-11-01_14h12.56.847,forced_choiceRT_color,2021.2.3,Win32,30.03814845,,,,,,,,6,Ontime,long,k,0,1.9414,5,1,21,2,1,,,,,
1.57,,,,,,,,,k,purple,5ebc55844e4f7f08eff7734d,2021-11-01_14h12.56.847,forced_choiceRT_color,2021.2.3,Win32,30.03814845,,,,,,,,6,Ontime,long,k,1,2.057,5,2,22,3,1,,,,,
1.97,,,,,,,,,d,orange,5ebc55844e4f7f08eff7734d,2021-11-01_14h12.56.847,forced_choiceRT_color,2021.2.3,Win32,30.03814845,,,,,,,,6,Slow,long,k,0,2.1069,5,3,23,0,1,,,,,
1.54,,,,,,,,,d,orange,5ebc55844e4f7f08eff7734d,2021-11-01_14h12.56.847,forced_choiceRT_color,2021.2.3,Win32,30.03814845,,,,,,,,6,Ontime,long,k,0,1.9828,6,0,24,0,1,,,,,
0.46,,,,,,,,,d,orange,5ebc55844e4f7f08eff7734d,2021-11-01_14h12.56.847,forced_choiceRT_color,2021.2.3,Win32,30.03814845,,,,,,,,6,Ontime,long,d,1,2.0448,6,1,25,0,1,,,,,
0.42,,,,,,,,,j,red,5ebc55844e4f7f08eff7734d,2021-11-01_14h12.56.847,forced_choiceRT_color,2021.2.3,Win32,30.03814845,,,,,,,,6,Ontime,long,j,1,2.0026,6,2,26,2,1,,,,,
0.06,,,,,,,,,k,purple,5ebc55844e4f7f08eff7734d,2021-11-01_14h12.56.847,forced_choiceRT_color,2021.2.3,Win32,30.03814845,,,,,,,,6,Ontime,long,k,1,2.0569,6,3,27,3,1,,,,,
0.9,,,,,,,,,f,blue,5ebc55844e4f7f08eff7734d,2021-11-01_14h12.56.847,forced_choiceRT_color,2021.2.3,Win32,30.03814845,,,,,,,,6,Ontime,long,f,1,2.0374,7,0,28,1,1,,,,,
1.14,,,,,,,,,d,orange,5ebc55844e4f7f08eff7734d,2021-11-01_14h12.56.847,forced_choiceRT_color,2021.2.3,Win32,30.03814845,,,,,,,,6,Ontime,long,d,1,2.0778,7,1,29,0,1,,,,,
1.54,,,,,,,,,j,red,5ebc55844e4f7f08eff7734d,2021-11-01_14h12.56.847,forced_choiceRT_color,2021.2.3,Win32,30.03814845,,,,,,,,6,Slow,long,f,0,2.1446,7,2,30,2,1,,,,,
0.47,,,,,,,,,k,purple,5ebc55844e4f7f08eff7734d,2021-11-01_14h12.56.847,forced_choiceRT_color,2021.2.3,Win32,30.03814845,,,,,,,,6,Slow,long,k,1,2.1371,7,3,31,3,1,,,,,
0.47,,,,,,,,,d,orange,5ebc55844e4f7f08eff7734d,2021-11-01_14h12.56.847,forced_choiceRT_color,2021.2.3,Win32,30.03814845,,,,,,,,6,Ontime,long,d,1,1.924,8,0,32,0,1,,,,,
1.02,,,,,,,,,j,red,5ebc55844e4f7f08eff7734d,2021-11-01_14h12.56.847,forced_choiceRT_color,2021.2.3,Win32,30.03814845,,,,,,,,6,Ontime,long,j,1,2,8,1,33,2,1,,,,,
0.6,,,,,,,,,f,blue,5ebc55844e4f7f08eff7734d,2021-11-01_14h12.56.847,forced_choiceRT_color,2021.2.3,Win32,30.03814845,,,,,,,,6,Ontime,long,f,1,2.0207,8,2,34,1,1,,,,,
0.38,,,,,,,,,f,blue,5ebc55844e4f7f08eff7734d,2021-11-01_14h12.56.847,forced_choiceRT_color,2021.2.3,Win32,30.03814845,,,,,,,,6,Ontime,long,f,1,2.0154,8,3,35,1,1,,,,,
0.48,,,,,,,,,k,purple,5ebc55844e4f7f08eff7734d,2021-11-01_14h12.56.847,forced_choiceRT_color,2021.2.3,Win32,30.03814845,,,,,,,,6,Ontime,long,k,1,2.0391,9,0,36,3,1,,,,,
1.79,,,,,,,,,j,red,5ebc55844e4f7f08eff7734d,2021-11-01_14h12.56.847,forced_choiceRT_color,2021.2.3,Win32,30.03814845,,,,,,,,6,Ontime,long,j,1,1.9337,9,1,37,2,1,,,,,
0.73,,,,,,,,,k,purple,5ebc55844e4f7f08eff7734d,2021-11-01_14h12.56.847,forced_choiceRT_color,2021.2.3,Win32,30.03814845,,,,,,,,6,Ontime,long,k,1,2.0505,9,2,38,3,1,,,,,
1.29,,,,,,,,,d,orange,5ebc55844e4f7f08eff7734d,2021-11-01_14h12.56.847,forced_choiceRT_color,2021.2.3,Win32,30.03814845,,,,,,,,6,Ontime,long,d,1,2.0069,9,3,39,0,1,,,,,
,,,,,,,,,,,5ebc55844e4f7f08eff7734d,2021-11-01_14h12.56.847,forced_choiceRT_color,2021.2.3,Win32,30.03814845,,,,,,,,,,,,,,,,,,,5,0,5,0,1
0.99,,,,,,,,,k,purple,5ebc55844e4f7f08eff7734d,2021-11-01_14h12.56.847,forced_choiceRT_color,2021.2.3,Win32,30.03814845,,,,,,,,7,Slow,long,k,1,2.1272,0,0,0,3,1,,,,,
0.95,,,,,,,,,k,purple,5ebc55844e4f7f08eff7734d,2021-11-01_14h12.56.847,forced_choiceRT_color,2021.2.3,Win32,30.03814845,,,,,,,,7,Slow,long,k,1,2.1009,0,1,1,3,1,,,,,
1.06,,,,,,,,,j,red,5ebc55844e4f7f08eff7734d,2021-11-01_14h12.56.847,forced_choiceRT_color,2021.2.3,Win32,30.03814845,,,,,,,,7,Fast,long,j,1,1.8985,0,2,2,2,1,,,,,
1.72,,,,,,,,,j,red,5ebc55844e4f7f08eff7734d,2021-11-01_14h12.56.847,forced_choiceRT_color,2021.2.3,Win32,30.03814845,,,,,,,,7,Slow,long,k,0,2.1469,0,3,3,2,1,,,,,
1.87,,,,,,,,,f,blue,5ebc55844e4f7f08eff7734d,2021-11-01_14h12.56.847,forced_choiceRT_color,2021.2.3,Win32,30.03814845,,,,,,,,7,Slow,long,k,0,2.155,1,0,4,1,1,,,,,
0.47,,,,,,,,,k,purple,5ebc55844e4f7f08eff7734d,2021-11-01_14h12.56.847,forced_choiceRT_color,2021.2.3,Win32,30.03814845,,,,,,,,7,Slow,long,k,1,2.1364,1,1,5,3,1,,,,,
1.14,,,,,,,,,f,blue,5ebc55844e4f7f08eff7734d,2021-11-01_14h12.56.847,forced_choiceRT_color,2021.2.3,Win32,30.03814845,,,,,,,,7,Ontime,long,f,1,2.0352,1,2,6,1,1,,,,,
0.1,,,,,,,,,f,blue,5ebc55844e4f7f08eff7734d,2021-11-01_14h12.56.847,forced_choiceRT_color,2021.2.3,Win32,30.03814845,,,,,,,,7,Ontime,long,f,1,2.0424,1,3,7,1,1,,,,,
0.55,,,,,,,,,j,red,5ebc55844e4f7f08eff7734d,2021-11-01_14h12.56.847,forced_choiceRT_color,2021.2.3,Win32,30.03814845,,,,,,,,7,Ontime,long,j,1,2.0667,2,0,8,2,1,,,,,
0.86,,,,,,,,,j,red,5ebc55844e4f7f08eff7734d,2021-11-01_14h12.56.847,forced_choiceRT_color,2021.2.3,Win32,30.03814845,,,,,,,,7,Ontime,long,j,1,2.0332,2,1,9,2,1,,,,,
0.63,,,,,,,,,k,purple,5ebc55844e4f7f08eff7734d,2021-11-01_14h12.56.847,forced_choiceRT_color,2021.2.3,Win32,30.03814845,,,,,,,,7,Ontime,long,k,1,2.0335,2,2,10,3,1,,,,,
1.48,,,,,,,,,j,red,5ebc55844e4f7f08eff7734d,2021-11-01_14h12.56.847,forced_choiceRT_color,2021.2.3,Win32,30.03814845,,,,,,,,7,Ontime,long,k,0,2.0076,2,3,11,2,1,,,,,
0.24,,,,,,,,,j,red,5ebc55844e4f7f08eff7734d,2021-11-01_14h12.56.847,forced_choiceRT_color,2021.2.3,Win32,30.03814845,,,,,,,,7,Ontime,long,j,1,2.0512,3,0,12,2,1,,,,,
0.64,,,,,,,,,d,orange,5ebc55844e4f7f08eff7734d,2021-11-01_14h12.56.847,forced_choiceRT_color,2021.2.3,Win32,30.03814845,,,,,,,,7,Ontime,long,d,1,2.0096,3,1,13,0,1,,,,,
0.27,,,,,,,,,d,orange,5ebc55844e4f7f08eff7734d,2021-11-01_14h12.56.847,forced_choiceRT_color,2021.2.3,Win32,30.03814845,,,,,,,,7,Ontime,long,d,1,2.0359,3,2,14,0,1,,,,,
1.05,,,,,,,,,f,blue,5ebc55844e4f7f08eff7734d,2021-11-01_14h12.56.847,forced_choiceRT_color,2021.2.3,Win32,30.03814845,,,,,,,,7,Ontime,long,f,1,2.0336,3,3,15,1,1,,,,,
1.42,,,,,,,,,j,red,5ebc55844e4f7f08eff7734d,2021-11-01_14h12.56.847,forced_choiceRT_color,2021.2.3,Win32,30.03814845,,,,,,,,7,Ontime,long,j,1,1.9603,4,0,16,2,1,,,,,
1.29,,,,,,,,,k,purple,5ebc55844e4f7f08eff7734d,2021-11-01_14h12.56.847,forced_choiceRT_color,2021.2.3,Win32,30.03814845,,,,,,,,7,Ontime,long,k,1,2.0537,4,1,17,3,1,,,,,
1.89,,,,,,,,,j,red,5ebc55844e4f7f08eff7734d,2021-11-01_14h12.56.847,forced_choiceRT_color,2021.2.3,Win32,30.03814845,,,,,,,,7,Ontime,long,f,0,2.0806,4,2,18,2,1,,,,,
0.24,,,,,,,,,d,orange,5ebc55844e4f7f08eff7734d,2021-11-01_14h12.56.847,forced_choiceRT_color,2021.2.3,Win32,30.03814845,,,,,,,,7,Ontime,long,d,1,1.9892,4,3,19,0,1,,,,,
0.2,,,,,,,,,k,purple,5ebc55844e4f7f08eff7734d,2021-11-01_14h12.56.847,forced_choiceRT_color,2021.2.3,Win32,30.03814845,,,,,,,,7,Ontime,long,k,1,2.0001,5,0,20,3,1,,,,,
0.28,,,,,,,,,f,blue,5ebc55844e4f7f08eff7734d,2021-11-01_14h12.56.847,forced_choiceRT_color,2021.2.3,Win32,30.03814845,,,,,,,,7,Ontime,long,f,1,2.0504,5,1,21,1,1,,,,,
1.9,,,,,,,,,d,orange,5ebc55844e4f7f08eff7734d,2021-11-01_14h12.56.847,forced_choiceRT_color,2021.2.3,Win32,30.03814845,,,,,,,,7,Ontime,long,k,0,1.9857,5,2,22,0,1,,,,,
0.28,,,,,,,,,k,purple,5ebc55844e4f7f08eff7734d,2021-11-01_14h12.56.847,forced_choiceRT_color,2021.2.3,Win32,30.03814845,,,,,,,,7,Ontime,long,k,1,1.9868,5,3,23,3,1,,,,,
1.94,,,,,,,,,f,blue,5ebc55844e4f7f08eff7734d,2021-11-01_14h12.56.847,forced_choiceRT_color,2021.2.3,Win32,30.03814845,,,,,,,,7,Slow,long,d,0,2.1262,6,0,24,1,1,,,,,
0.8,,,,,,,,,d,orange,5ebc55844e4f7f08eff7734d,2021-11-01_14h12.56.847,forced_choiceRT_color,2021.2.3,Win32,30.03814845,,,,,,,,7,Slow,long,d,1,2.1004,6,1,25,0,1,,,,,
0.88,,,,,,,,,k,purple,5ebc55844e4f7f08eff7734d,2021-11-01_14h12.56.847,forced_choiceRT_color,2021.2.3,Win32,30.03814845,,,,,,,,7,Ontime,long,k,1,2.0353,6,2,26,3,1,,,,,
1.88,,,,,,,,,d,orange,5ebc55844e4f7f08eff7734d,2021-11-01_14h12.56.847,forced_choiceRT_color,2021.2.3,Win32,30.03814845,,,,,,,,7,Ontime,long,d,1,2.0673,6,3,27,0,1,,,,,
1.12,,,,,,,,,j,red,5ebc55844e4f7f08eff7734d,2021-11-01_14h12.56.847,forced_choiceRT_color,2021.2.3,Win32,30.03814845,,,,,,,,7,Ontime,long,j,1,1.9403,7,0,28,2,1,,,,,
1.1,,,,,,,,,d,orange,5ebc55844e4f7f08eff7734d,2021-11-01_14h12.56.847,forced_choiceRT_color,2021.2.3,Win32,30.03814845,,,,,,,,7,Ontime,long,d,1,2.0002,7,1,29,0,1,,,,,
1.05,,,,,,,,,f,blue,5ebc55844e4f7f08eff7734d,2021-11-01_14h12.56.847,forced_choiceRT_color,2021.2.3,Win32,30.03814845,,,,,,,,7,Slow,long,f,1,2.1111,7,2,30,1,1,,,,,
1.72,,,,,,,,,f,blue,5ebc55844e4f7f08eff7734d,2021-11-01_14h12.56.847,forced_choiceRT_color,2021.2.3,Win32,30.03814845,,,,,,,,7,Ontime,long,d,0,1.9387,7,3,31,1,1,,,,,
0.2,,,,,,,,,d,orange,5ebc55844e4f7f08eff7734d,2021-11-01_14h12.56.847,forced_choiceRT_color,2021.2.3,Win32,30.03814845,,,,,,,,7,Slow,long,d,1,2.103,8,0,32,0,1,,,,,
1.94,,,,,,,,,d,orange,5ebc55844e4f7f08eff7734d,2021-11-01_14h12.56.847,forced_choiceRT_color,2021.2.3,Win32,30.03814845,,,,,,,,7,Slow,long,k,0,2.1773,8,1,33,0,1,,,,,
0.64,,,,,,,,,f,blue,5ebc55844e4f7f08eff7734d,2021-11-01_14h12.56.847,forced_choiceRT_color,2021.2.3,Win32,30.03814845,,,,,,,,7,Ontime,long,f,1,1.9906,8,2,34,1,1,,,,,
1.65,,,,,,,,,k,purple,5ebc55844e4f7f08eff7734d,2021-11-01_14h12.56.847,forced_choiceRT_color,2021.2.3,Win32,30.03814845,,,,,,,,7,Ontime,long,k,1,2,8,3,35,3,1,,,,,
1.57,,,,,,,,,j,red,5ebc55844e4f7f08eff7734d,2021-11-01_14h12.56.847,forced_choiceRT_color,2021.2.3,Win32,30.03814845,,,,,,,,7,Slow,long,j,1,2.1677,9,0,36,2,1,,,,,
1.3,,,,,,,,,d,orange,5ebc55844e4f7f08eff7734d,2021-11-01_14h12.56.847,forced_choiceRT_color,2021.2.3,Win32,30.03814845,,,,,,,,7,Ontime,long,d,1,1.9173,9,1,37,0,1,,,,,
0.6,,,,,,,,,k,purple,5ebc55844e4f7f08eff7734d,2021-11-01_14h12.56.847,forced_choiceRT_color,2021.2.3,Win32,30.03814845,,,,,,,,7,Ontime,long,k,1,2.0423,9,2,38,3,1,,,,,
1.85,,,,,,,,,f,blue,5ebc55844e4f7f08eff7734d,2021-11-01_14h12.56.847,forced_choiceRT_color,2021.2.3,Win32,30.03814845,,,,,,,,7,Ontime,long,k,0,2.0997,9,3,39,1,1,,,,,
,,,,,,,,,,,5ebc55844e4f7f08eff7734d,2021-11-01_14h12.56.847,forced_choiceRT_color,2021.2.3,Win32,30.03814845,,,,,,,,,,,,,,,,,,,6,0,6,0,1
0.8,,,,,,,,,j,red,5ebc55844e4f7f08eff7734d,2021-11-01_14h12.56.847,forced_choiceRT_color,2021.2.3,Win32,30.03814845,,,,,,,,8,Slow,long,f,0,2.1559,0,0,0,2,1,,,,,
1.12,,,,,,,,,k,purple,5ebc55844e4f7f08eff7734d,2021-11-01_14h12.56.847,forced_choiceRT_color,2021.2.3,Win32,30.03814845,,,,,,,,8,Ontime,long,k,1,1.9662,0,1,1,3,1,,,,,
0.39,,,,,,,,,d,orange,5ebc55844e4f7f08eff7734d,2021-11-01_14h12.56.847,forced_choiceRT_color,2021.2.3,Win32,30.03814845,,,,,,,,8,Ontime,long,d,1,1.9531,0,2,2,0,1,,,,,
1.26,,,,,,,,,f,blue,5ebc55844e4f7f08eff7734d,2021-11-01_14h12.56.847,forced_choiceRT_color,2021.2.3,Win32,30.03814845,,,,,,,,8,Ontime,long,j,0,1.9672,0,3,3,1,1,,,,,
1.02,,,,,,,,,j,red,5ebc55844e4f7f08eff7734d,2021-11-01_14h12.56.847,forced_choiceRT_color,2021.2.3,Win32,30.03814845,,,,,,,,8,Ontime,long,j,1,2.0803,1,0,4,2,1,,,,,
0.96,,,,,,,,,f,blue,5ebc55844e4f7f08eff7734d,2021-11-01_14h12.56.847,forced_choiceRT_color,2021.2.3,Win32,30.03814845,,,,,,,,8,Ontime,long,f,1,2.0237,1,1,5,1,1,,,,,
0.21,,,,,,,,,d,orange,5ebc55844e4f7f08eff7734d,2021-11-01_14h12.56.847,forced_choiceRT_color,2021.2.3,Win32,30.03814845,,,,,,,,8,Ontime,long,d,1,2.0128,1,2,6,0,1,,,,,
1.91,,,,,,,,,d,orange,5ebc55844e4f7f08eff7734d,2021-11-01_14h12.56.847,forced_choiceRT_color,2021.2.3,Win32,30.03814845,,,,,,,,8,Ontime,long,f,0,2.0188,1,3,7,0,1,,,,,
0.14,,,,,,,,,k,purple,5ebc55844e4f7f08eff7734d,2021-11-01_14h12.56.847,forced_choiceRT_color,2021.2.3,Win32,30.03814845,,,,,,,,8,Ontime,long,k,1,1.9696,2,0,8,3,1,,,,,
0.13,,,,,,,,,d,orange,5ebc55844e4f7f08eff7734d,2021-11-01_14h12.56.847,forced_choiceRT_color,2021.2.3,Win32,30.03814845,,,,,,,,8,Ontime,long,d,1,2.056,2,1,9,0,1,,,,,
0.21,,,,,,,,,j,red,5ebc55844e4f7f08eff7734d,2021-11-01_14h12.56.847,forced_choiceRT_color,2021.2.3,Win32,30.03814845,,,,,,,,8,Ontime,long,j,1,1.9,2,2,10,2,1,,,,,
1.91,,,,,,,,,f,blue,5ebc55844e4f7f08eff7734d,2021-11-01_14h12.56.847,forced_choiceRT_color,2021.2.3,Win32,30.03814845,,,,,,,,8,Ontime,long,k,0,2.092,2,3,11,1,1,,,,,
1.23,,,,,,,,,f,blue,5ebc55844e4f7f08eff7734d,2021-11-01_14h12.56.847,forced_choiceRT_color,2021.2.3,Win32,30.03814845,,,,,,,,8,Slow,long,f,1,2.1439,3,0,12,1,1,,,,,
1.89,,,,,,,,,f,blue,5ebc55844e4f7f08eff7734d,2021-11-01_14h12.56.847,forced_choiceRT_color,2021.2.3,Win32,30.03814845,,,,,,,,8,Ontime,long,d,0,2.0462,3,1,13,1,1,,,,,
1.81,,,,,,,,,k,purple,5ebc55844e4f7f08eff7734d,2021-11-01_14h12.56.847,forced_choiceRT_color,2021.2.3,Win32,30.03814845,,,,,,,,8,Ontime,long,k,1,2.0344,3,2,14,3,1,,,,,
0.69,,,,,,,,,j,red,5ebc55844e4f7f08eff7734d,2021-11-01_14h12.56.847,forced_choiceRT_color,2021.2.3,Win32,30.03814845,,,,,,,,8,Ontime,long,j,1,2.0434,3,3,15,2,1,,,,,
1.77,,,,,,,,,d,orange,5ebc55844e4f7f08eff7734d,2021-11-01_14h12.56.847,forced_choiceRT_color,2021.2.3,Win32,30.03814845,,,,,,,,8,Ontime,long,d,1,2.0331,4,0,16,0,1,,,,,
0.26,,,,,,,,,j,red,5ebc55844e4f7f08eff7734d,2021-11-01_14h12.56.847,forced_choiceRT_color,2021.2.3,Win32,30.03814845,,,,,,,,8,Ontime,long,j,1,1.9735,4,1,17,2,1,,,,,
0.9,,,,,,,,,f,blue,5ebc55844e4f7f08eff7734d,2021-11-01_14h12.56.847,forced_choiceRT_color,2021.2.3,Win32,30.03814845,,,,,,,,8,Ontime,long,f,1,2.0803,4,2,18,1,1,,,,,
0.45,,,,,,,,,j,red,5ebc55844e4f7f08eff7734d,2021-11-01_14h12.56.847,forced_choiceRT_color,2021.2.3,Win32,30.03814845,,,,,,,,8,Ontime,long,j,1,2.0668,4,3,19,2,1,,,,,
1.68,,,,,,,,,j,red,5ebc55844e4f7f08eff7734d,2021-11-01_14h12.56.847,forced_choiceRT_color,2021.2.3,Win32,30.03814845,,,,,,,,8,Ontime,long,k,0,2.0417,5,0,20,2,1,,,,,
0.63,,,,,,,,,j,red,5ebc55844e4f7f08eff7734d,2021-11-01_14h12.56.847,forced_choiceRT_color,2021.2.3,Win32,30.03814845,,,,,,,,8,Ontime,long,j,1,2.0443,5,1,21,2,1,,,,,
1.43,,,,,,,,,k,purple,5ebc55844e4f7f08eff7734d,2021-11-01_14h12.56.847,forced_choiceRT_color,2021.2.3,Win32,30.03814845,,,,,,,,8,Slow,long,k,1,2.1065,5,2,22,3,1,,,,,
0.36,,,,,,,,,d,orange,5ebc55844e4f7f08eff7734d,2021-11-01_14h12.56.847,forced_choiceRT_color,2021.2.3,Win32,30.03814845,,,,,,,,8,Ontime,long,d,1,2.0133,5,3,23,0,1,,,,,
1.56,,,,,,,,,d,orange,5ebc55844e4f7f08eff7734d,2021-11-01_14h12.56.847,forced_choiceRT_color,2021.2.3,Win32,30.03814845,,,,,,,,8,Slow,long,d,1,2.1782,6,0,24,0,1,,,,,
1.83,,,,,,,,,k,purple,5ebc55844e4f7f08eff7734d,2021-11-01_14h12.56.847,forced_choiceRT_color,2021.2.3,Win32,30.03814845,,,,,,,,8,Ontime,long,k,1,1.9417,6,1,25,3,1,,,,,
0.03,,,,,,,,,f,blue,5ebc55844e4f7f08eff7734d,2021-11-01_14h12.56.847,forced_choiceRT_color,2021.2.3,Win32,30.03814845,,,,,,,,8,Ontime,long,f,1,2.0097,6,2,26,1,1,,,,,
1.96,,,,,,,,,j,red,5ebc55844e4f7f08eff7734d,2021-11-01_14h12.56.847,forced_choiceRT_color,2021.2.3,Win32,30.03814845,,,,,,,,8,Ontime,long,k,0,1.9688,6,3,27,2,1,,,,,
0.47,,,,,,,,,d,orange,5ebc55844e4f7f08eff7734d,2021-11-01_14h12.56.847,forced_choiceRT_color,2021.2.3,Win32,30.03814845,,,,,,,,8,Ontime,long,d,1,2.0014,7,0,28,0,1,,,,,
0.59,,,,,,,,,d,orange,5ebc55844e4f7f08eff7734d,2021-11-01_14h12.56.847,forced_choiceRT_color,2021.2.3,Win32,30.03814845,,,,,,,,8,Ontime,long,d,1,2.0074,7,1,29,0,1,,,,,
0.04,,,,,,,,,k,purple,5ebc55844e4f7f08eff7734d,2021-11-01_14h12.56.847,forced_choiceRT_color,2021.2.3,Win32,30.03814845,,,,,,,,8,Ontime,long,k,1,2.0667,7,2,30,3,1,,,,,
1.57,,,,,,,,,f,blue,5ebc55844e4f7f08eff7734d,2021-11-01_14h12.56.847,forced_choiceRT_color,2021.2.3,Win32,30.03814845,,,,,,,,8,Slow,long,d,0,2.1051,7,3,31,1,1,,,,,
1.22,,,,,,,,,k,purple,5ebc55844e4f7f08eff7734d,2021-11-01_14h12.56.847,forced_choiceRT_color,2021.2.3,Win32,30.03814845,,,,,,,,8,Ontime,long,k,1,1.9932,8,0,32,3,1,,,,,
1.54,,,,,,,,,k,purple,5ebc55844e4f7f08eff7734d,2021-11-01_14h12.56.847,forced_choiceRT_color,2021.2.3,Win32,30.03814845,,,,,,,,8,Ontime,long,k,1,2.0678,8,1,33,3,1,,,,,
1.65,,,,,,,,,f,blue,5ebc55844e4f7f08eff7734d,2021-11-01_14h12.56.847,forced_choiceRT_color,2021.2.3,Win32,30.03814845,,,,,,,,8,Ontime,long,d,0,1.9885,8,2,34,1,1,,,,,
0.23,,,,,,,,,d,orange,5ebc55844e4f7f08eff7734d,2021-11-01_14h12.56.847,forced_choiceRT_color,2021.2.3,Win32,30.03814845,,,,,,,,8,Ontime,long,d,1,2.0059,8,3,35,0,1,,,,,
0.26,,,,,,,,,j,red,5ebc55844e4f7f08eff7734d,2021-11-01_14h12.56.847,forced_choiceRT_color,2021.2.3,Win32,30.03814845,,,,,,,,8,Ontime,long,j,1,2.0714,9,0,36,2,1,,,,,
0.6,,,,,,,,,k,purple,5ebc55844e4f7f08eff7734d,2021-11-01_14h12.56.847,forced_choiceRT_color,2021.2.3,Win32,30.03814845,,,,,,,,8,Ontime,long,k,1,1.9881,9,1,37,3,1,,,,,
0.73,,,,,,,,,k,purple,5ebc55844e4f7f08eff7734d,2021-11-01_14h12.56.847,forced_choiceRT_color,2021.2.3,Win32,30.03814845,,,,,,,,8,Ontime,long,k,1,2.0333,9,2,38,3,1,,,,,
1.9,,,,,,,,,f,blue,5ebc55844e4f7f08eff7734d,2021-11-01_14h12.56.847,forced_choiceRT_color,2021.2.3,Win32,30.03814845,,,,,,,,8,Ontime,long,k,0,2.0759,9,3,39,1,1,,,,,
,,,,,,,,,,,5ebc55844e4f7f08eff7734d,2021-11-01_14h12.56.847,forced_choiceRT_color,2021.2.3,Win32,30.03814845,,,,,,,,,,,,,,,,,,,7,0,7,0,1
0.05,,,,,,,,,f,blue,5ebc55844e4f7f08eff7734d,2021-11-01_14h12.56.847,forced_choiceRT_color,2021.2.3,Win32,30.03814845,,,,,,,,9,Fast,long,f,1,0.8738,0,0,0,1,1,,,,,
1.21,,,,,,,,,f,blue,5ebc55844e4f7f08eff7734d,2021-11-01_14h12.56.847,forced_choiceRT_color,2021.2.3,Win32,30.03814845,,,,,,,,9,Slow,long,f,1,2.1363,0,1,1,1,1,,,,,
1.03,,,,,,,,,j,red,5ebc55844e4f7f08eff7734d,2021-11-01_14h12.56.847,forced_choiceRT_color,2021.2.3,Win32,30.03814845,,,,,,,,9,Ontime,long,j,1,2.0015,0,2,2,2,1,,,,,
0.26,,,,,,,,,j,red,5ebc55844e4f7f08eff7734d,2021-11-01_14h12.56.847,forced_choiceRT_color,2021.2.3,Win32,30.03814845,,,,,,,,9,Ontime,long,j,1,2.0334,0,3,3,2,1,,,,,
1.72,,,,,,,,,j,red,5ebc55844e4f7f08eff7734d,2021-11-01_14h12.56.847,forced_choiceRT_color,2021.2.3,Win32,30.03814845,,,,,,,,9,Slow,long,d,0,2.1007,1,0,4,2,1,,,,,
0.62,,,,,,,,,j,red,5ebc55844e4f7f08eff7734d,2021-11-01_14h12.56.847,forced_choiceRT_color,2021.2.3,Win32,30.03814845,,,,,,,,9,Ontime,long,j,1,2.0683,1,1,5,2,1,,,,,
1.49,,,,,,,,,f,blue,5ebc55844e4f7f08eff7734d,2021-11-01_14h12.56.847,forced_choiceRT_color,2021.2.3,Win32,30.03814845,,,,,,,,9,Ontime,long,f,1,2.0353,1,2,6,1,1,,,,,
1.38,,,,,,,,,d,orange,5ebc55844e4f7f08eff7734d,2021-11-01_14h12.56.847,forced_choiceRT_color,2021.2.3,Win32,30.03814845,,,,,,,,9,Ontime,long,d,1,2.0717,1,3,7,0,1,,,,,
1.81,,,,,,,,,k,purple,5ebc55844e4f7f08eff7734d,2021-11-01_14h12.56.847,forced_choiceRT_color,2021.2.3,Win32,30.03814845,,,,,,,,9,Ontime,long,d,0,2.0828,2,0,8,3,1,,,,,
1.33,,,,,,,,,f,blue,5ebc55844e4f7f08eff7734d,2021-11-01_14h12.56.847,forced_choiceRT_color,2021.2.3,Win32,30.03814845,,,,,,,,9,Slow,long,f,1,2.1004,2,1,9,1,1,,,,,
0.97,,,,,,,,,j,red,5ebc55844e4f7f08eff7734d,2021-11-01_14h12.56.847,forced_choiceRT_color,2021.2.3,Win32,30.03814845,,,,,,,,9,Ontime,long,j,1,2.0859,2,2,10,2,1,,,,,
1.6,,,,,,,,,f,blue,5ebc55844e4f7f08eff7734d,2021-11-01_14h12.56.847,forced_choiceRT_color,2021.2.3,Win32,30.03814845,,,,,,,,9,Slow,long,d,0,2.137,2,3,11,1,1,,,,,
0.73,,,,,,,,,d,orange,5ebc55844e4f7f08eff7734d,2021-11-01_14h12.56.847,forced_choiceRT_color,2021.2.3,Win32,30.03814845,,,,,,,,9,Ontime,long,d,1,2.0428,3,0,12,0,1,,,,,
0.95,,,,,,,,,k,purple,5ebc55844e4f7f08eff7734d,2021-11-01_14h12.56.847,forced_choiceRT_color,2021.2.3,Win32,30.03814845,,,,,,,,9,Ontime,long,k,1,2.004,3,1,13,3,1,,,,,
1.32,,,,,,,,,d,orange,5ebc55844e4f7f08eff7734d,2021-11-01_14h12.56.847,forced_choiceRT_color,2021.2.3,Win32,30.03814845,,,,,,,,9,Ontime,long,d,1,2.0144,3,2,14,0,1,,,,,
1.03,,,,,,,,,j,red,5ebc55844e4f7f08eff7734d,2021-11-01_14h12.56.847,forced_choiceRT_color,2021.2.3,Win32,30.03814845,,,,,,,,9,Ontime,long,j,1,2.0002,3,3,15,2,1,,,,,
0,,,,,,,,,j,red,5ebc55844e4f7f08eff7734d,2021-11-01_14h12.56.847,forced_choiceRT_color,2021.2.3,Win32,30.03814845,,,,,,,,9,Ontime,long,j,1,2.0668,4,0,16,2,1,,,,,
0.24,,,,,,,,,f,blue,5ebc55844e4f7f08eff7734d,2021-11-01_14h12.56.847,forced_choiceRT_color,2021.2.3,Win32,30.03814845,,,,,,,,9,Slow,long,f,1,2.1034,4,1,17,1,1,,,,,
0.61,,,,,,,,,f,blue,5ebc55844e4f7f08eff7734d,2021-11-01_14h12.56.847,forced_choiceRT_color,2021.2.3,Win32,30.03814845,,,,,,,,9,Ontime,long,f,1,2.0336,4,2,18,1,1,,,,,
1.65,,,,,,,,,d,orange,5ebc55844e4f7f08eff7734d,2021-11-01_14h12.56.847,forced_choiceRT_color,2021.2.3,Win32,30.03814845,,,,,,,,9,Ontime,long,d,1,2.0545,4,3,19,0,1,,,,,
1.27,,,,,,,,,d,orange,5ebc55844e4f7f08eff7734d,2021-11-01_14h12.56.847,forced_choiceRT_color,2021.2.3,Win32,30.03814845,,,,,,,,9,Ontime,long,d,1,2.0742,5,0,20,0,1,,,,,
0.88,,,,,,,,,d,orange,5ebc55844e4f7f08eff7734d,2021-11-01_14h12.56.847,forced_choiceRT_color,2021.2.3,Win32,30.03814845,,,,,,,,9,Ontime,long,d,1,2.0363,5,1,21,0,1,,,,,
1.03,,,,,,,,,d,orange,5ebc55844e4f7f08eff7734d,2021-11-01_14h12.56.847,forced_choiceRT_color,2021.2.3,Win32,30.03814845,,,,,,,,9,Slow,long,d,1,2.1467,5,2,22,0,1,,,,,
1.71,,,,,,,,,k,purple,5ebc55844e4f7f08eff7734d,2021-11-01_14h12.56.847,forced_choiceRT_color,2021.2.3,Win32,30.03814845,,,,,,,,9,Ontime,long,f,0,2.0003,5,3,23,3,1,,,,,
1.63,,,,,,,,,f,blue,5ebc55844e4f7f08eff7734d,2021-11-01_14h12.56.847,forced_choiceRT_color,2021.2.3,Win32,30.03814845,,,,,,,,9,Ontime,long,j,0,1.9592,6,0,24,1,1,,,,,
1.86,,,,,,,,,k,purple,5ebc55844e4f7f08eff7734d,2021-11-01_14h12.56.847,forced_choiceRT_color,2021.2.3,Win32,30.03814845,,,,,,,,9,Ontime,long,j,0,1.9253,6,1,25,3,1,,,,,
0.03,,,,,,,,,k,purple,5ebc55844e4f7f08eff7734d,2021-11-01_14h12.56.847,forced_choiceRT_color,2021.2.3,Win32,30.03814845,,,,,,,,9,Ontime,long,k,1,2.0239,6,2,26,3,1,,,,,
1,,,,,,,,,k,purple,5ebc55844e4f7f08eff7734d,2021-11-01_14h12.56.847,forced_choiceRT_color,2021.2.3,Win32,30.03814845,,,,,,,,9,Ontime,long,k,1,2.0675,6,3,27,3,1,,,,,
1.33,,,,,,,,,f,blue,5ebc55844e4f7f08eff7734d,2021-11-01_14h12.56.847,forced_choiceRT_color,2021.2.3,Win32,30.03814845,,,,,,,,9,Ontime,long,f,1,2.0035,7,0,28,1,1,,,,,
1.03,,,,,,,,,k,purple,5ebc55844e4f7f08eff7734d,2021-11-01_14h12.56.847,forced_choiceRT_color,2021.2.3,Win32,30.03814845,,,,,,,,9,Ontime,long,k,1,2.0677,7,1,29,3,1,,,,,
1.94,,,,,,,,,j,red,5ebc55844e4f7f08eff7734d,2021-11-01_14h12.56.847,forced_choiceRT_color,2021.2.3,Win32,30.03814845,,,,,,,,9,Ontime,long,f,0,2.04,7,2,30,2,1,,,,,
1.7,,,,,,,,,d,orange,5ebc55844e4f7f08eff7734d,2021-11-01_14h12.56.847,forced_choiceRT_color,2021.2.3,Win32,30.03814845,,,,,,,,9,Ontime,long,f,0,2.0214,7,3,31,0,1,,,,,
1.74,,,,,,,,,d,orange,5ebc55844e4f7f08eff7734d,2021-11-01_14h12.56.847,forced_choiceRT_color,2021.2.3,Win32,30.03814845,,,,,,,,9,Ontime,long,j,0,2.0136,8,0,32,0,1,,,,,
0.95,,,,,,,,,f,blue,5ebc55844e4f7f08eff7734d,2021-11-01_14h12.56.847,forced_choiceRT_color,2021.2.3,Win32,30.03814845,,,,,,,,9,Ontime,long,f,1,2.0332,8,1,33,1,1,,,,,
1.48,,,,,,,,,d,orange,5ebc55844e4f7f08eff7734d,2021-11-01_14h12.56.847,forced_choiceRT_color,2021.2.3,Win32,30.03814845,,,,,,,,9,Ontime,long,d,1,1.9913,8,2,34,0,1,,,,,
0.26,,,,,,,,,k,purple,5ebc55844e4f7f08eff7734d,2021-11-01_14h12.56.847,forced_choiceRT_color,2021.2.3,Win32,30.03814845,,,,,,,,9,Ontime,long,k,1,1.9915,8,3,35,3,1,,,,,
0.41,,,,,,,,,k,purple,5ebc55844e4f7f08eff7734d,2021-11-01_14h12.56.847,forced_choiceRT_color,2021.2.3,Win32,30.03814845,,,,,,,,9,Ontime,long,k,1,2.0447,9,0,36,3,1,,,,,
1.3,,,,,,,,,j,red,5ebc55844e4f7f08eff7734d,2021-11-01_14h12.56.847,forced_choiceRT_color,2021.2.3,Win32,30.03814845,,,,,,,,9,Ontime,long,j,1,2.0191,9,1,37,2,1,,,,,
0.49,,,,,,,,,j,red,5ebc55844e4f7f08eff7734d,2021-11-01_14h12.56.847,forced_choiceRT_color,2021.2.3,Win32,30.03814845,,,,,,,,9,Ontime,long,j,1,1.9668,9,2,38,2,1,,,,,
0.56,,,,,,,,,k,purple,5ebc55844e4f7f08eff7734d,2021-11-01_14h12.56.847,forced_choiceRT_color,2021.2.3,Win32,30.03814845,,,,,,,,9,Ontime,long,k,1,1.9571,9,3,39,3,1,,,,,
,,,,,,,,,,,5ebc55844e4f7f08eff7734d,2021-11-01_14h12.56.847,forced_choiceRT_color,2021.2.3,Win32,30.03814845,,,,,,,,,,,,,,,,,,,8,0,8,0,1
1.41,,,,,,,,,f,blue,5ebc55844e4f7f08eff7734d,2021-11-01_14h12.56.847,forced_choiceRT_color,2021.2.3,Win32,30.03814845,,,,,,,,10,Ontime,long,f,1,2.0669,0,0,0,1,1,,,,,
1.15,,,,,,,,,j,red,5ebc55844e4f7f08eff7734d,2021-11-01_14h12.56.847,forced_choiceRT_color,2021.2.3,Win32,30.03814845,,,,,,,,10,Ontime,long,j,1,2.0136,0,1,1,2,1,,,,,
0.73,,,,,,,,,k,purple,5ebc55844e4f7f08eff7734d,2021-11-01_14h12.56.847,forced_choiceRT_color,2021.2.3,Win32,30.03814845,,,,,,,,10,Ontime,long,k,1,1.9566,0,2,2,3,1,,,,,
1.71,,,,,,,,,f,blue,5ebc55844e4f7f08eff7734d,2021-11-01_14h12.56.847,forced_choiceRT_color,2021.2.3,Win32,30.03814845,,,,,,,,10,Ontime,long,f,1,2.0377,0,3,3,1,1,,,,,
1.17,,,,,,,,,j,red,5ebc55844e4f7f08eff7734d,2021-11-01_14h12.56.847,forced_choiceRT_color,2021.2.3,Win32,30.03814845,,,,,,,,10,Ontime,long,j,1,2.0411,1,0,4,2,1,,,,,
0.24,,,,,,,,,k,purple,5ebc55844e4f7f08eff7734d,2021-11-01_14h12.56.847,forced_choiceRT_color,2021.2.3,Win32,30.03814845,,,,,,,,10,Ontime,long,k,1,2.0348,1,1,5,3,1,,,,,
1.69,,,,,,,,,k,purple,5ebc55844e4f7f08eff7734d,2021-11-01_14h12.56.847,forced_choiceRT_color,2021.2.3,Win32,30.03814845,,,,,,,,10,Ontime,long,d,0,2.0334,1,2,6,3,1,,,,,
0.83,,,,,,,,,d,orange,5ebc55844e4f7f08eff7734d,2021-11-01_14h12.56.847,forced_choiceRT_color,2021.2.3,Win32,30.03814845,,,,,,,,10,Ontime,long,d,1,2.0158,1,3,7,0,1,,,,,
1.8,,,,,,,,,j,red,5ebc55844e4f7f08eff7734d,2021-11-01_14h12.56.847,forced_choiceRT_color,2021.2.3,Win32,30.03814845,,,,,,,,10,Ontime,long,f,0,2.0186,2,0,8,2,1,,,,,
0.55,,,,,,,,,k,purple,5ebc55844e4f7f08eff7734d,2021-11-01_14h12.56.847,forced_choiceRT_color,2021.2.3,Win32,30.03814845,,,,,,,,10,Ontime,long,k,1,1.9681,2,1,9,3,1,,,,,
1.38,,,,,,,,,k,purple,5ebc55844e4f7f08eff7734d,2021-11-01_14h12.56.847,forced_choiceRT_color,2021.2.3,Win32,30.03814845,,,,,,,,10,Ontime,long,k,1,2.0361,2,2,10,3,1,,,,,
0.48,,,,,,,,,f,blue,5ebc55844e4f7f08eff7734d,2021-11-01_14h12.56.847,forced_choiceRT_color,2021.2.3,Win32,30.03814845,,,,,,,,10,Ontime,long,f,1,1.9995,2,3,11,1,1,,,,,
0.03,,,,,,,,,j,red,5ebc55844e4f7f08eff7734d,2021-11-01_14h12.56.847,forced_choiceRT_color,2021.2.3,Win32,30.03814845,,,,,,,,10,Ontime,long,j,1,1.9925,3,0,12,2,1,,,,,
1.55,,,,,,,,,k,purple,5ebc55844e4f7f08eff7734d,2021-11-01_14h12.56.847,forced_choiceRT_color,2021.2.3,Win32,30.03814845,,,,,,,,10,Slow,long,f,0,2.1231,3,1,13,3,1,,,,,
0.54,,,,,,,,,f,blue,5ebc55844e4f7f08eff7734d,2021-11-01_14h12.56.847,forced_choiceRT_color,2021.2.3,Win32,30.03814845,,,,,,,,10,Ontime,long,f,1,2.0711,3,2,14,1,1,,,,,
0.02,,,,,,,,,k,purple,5ebc55844e4f7f08eff7734d,2021-11-01_14h12.56.847,forced_choiceRT_color,2021.2.3,Win32,30.03814845,,,,,,,,10,Ontime,long,k,1,2.0659,3,3,15,3,1,,,,,
0.41,,,,,,,,,d,orange,5ebc55844e4f7f08eff7734d,2021-11-01_14h12.56.847,forced_choiceRT_color,2021.2.3,Win32,30.03814845,,,,,,,,10,Ontime,long,d,1,2.0004,4,0,16,0,1,,,,,
1.1,,,,,,,,,d,orange,5ebc55844e4f7f08eff7734d,2021-11-01_14h12.56.847,forced_choiceRT_color,2021.2.3,Win32,30.03814845,,,,,,,,10,Ontime,long,d,1,1.9264,4,1,17,0,1,,,,,
1.38,,,,,,,,,k,purple,5ebc55844e4f7f08eff7734d,2021-11-01_14h12.56.847,forced_choiceRT_color,2021.2.3,Win32,30.03814845,,,,,,,,10,Ontime,long,k,1,1.9026,4,2,18,3,1,,,,,
0.28,,,,,,,,,d,orange,5ebc55844e4f7f08eff7734d,2021-11-01_14h12.56.847,forced_choiceRT_color,2021.2.3,Win32,30.03814845,,,,,,,,10,Ontime,long,d,1,1.9536,4,3,19,0,1,,,,,
1.19,,,,,,,,,j,red,5ebc55844e4f7f08eff7734d,2021-11-01_14h12.56.847,forced_choiceRT_color,2021.2.3,Win32,30.03814845,,,,,,,,10,Ontime,long,j,1,1.9339,5,0,20,2,1,,,,,
1.17,,,,,,,,,k,purple,5ebc55844e4f7f08eff7734d,2021-11-01_14h12.56.847,forced_choiceRT_color,2021.2.3,Win32,30.03814845,,,,,,,,10,Ontime,long,k,1,2.0713,5,1,21,3,1,,,,,
0,,,,,,,,,f,blue,5ebc55844e4f7f08eff7734d,2021-11-01_14h12.56.847,forced_choiceRT_color,2021.2.3,Win32,30.03814845,,,,,,,,10,Ontime,long,f,1,2.0076,5,2,22,1,1,,,,,
0.01,,,,,,,,,j,red,5ebc55844e4f7f08eff7734d,2021-11-01_14h12.56.847,forced_choiceRT_color,2021.2.3,Win32,30.03814845,,,,,,,,10,Ontime,long,j,1,2.0053,5,3,23,2,1,,,,,
0.16,,,,,,,,,f,blue,5ebc55844e4f7f08eff7734d,2021-11-01_14h12.56.847,forced_choiceRT_color,2021.2.3,Win32,30.03814845,,,,,,,,10,Ontime,long,f,1,1.9924,6,0,24,1,1,,,,,
1.2,,,,,,,,,d,orange,5ebc55844e4f7f08eff7734d,2021-11-01_14h12.56.847,forced_choiceRT_color,2021.2.3,Win32,30.03814845,,,,,,,,10,Slow,long,d,1,9.9249,6,1,25,0,1,,,,,
0.57,,,,,,,,,d,orange,5ebc55844e4f7f08eff7734d,2021-11-01_14h12.56.847,forced_choiceRT_color,2021.2.3,Win32,30.03814845,,,,,,,,10,Slow,long,d,1,2.1673,6,2,26,0,1,,,,,
0.74,,,,,,,,,j,red,5ebc55844e4f7f08eff7734d,2021-11-01_14h12.56.847,forced_choiceRT_color,2021.2.3,Win32,30.03814845,,,,,,,,10,Ontime,long,j,1,2.0059,6,3,27,2,1,,,,,
1.16,,,,,,,,,f,blue,5ebc55844e4f7f08eff7734d,2021-11-01_14h12.56.847,forced_choiceRT_color,2021.2.3,Win32,30.03814845,,,,,,,,10,Ontime,long,j,0,2.0002,7,0,28,1,1,,,,,
1.12,,,,,,,,,f,blue,5ebc55844e4f7f08eff7734d,2021-11-01_14h12.56.847,forced_choiceRT_color,2021.2.3,Win32,30.03814845,,,,,,,,10,Ontime,long,f,1,2.04,7,1,29,1,1,,,,,
0.17,,,,,,,,,k,purple,5ebc55844e4f7f08eff7734d,2021-11-01_14h12.56.847,forced_choiceRT_color,2021.2.3,Win32,30.03814845,,,,,,,,10,Ontime,long,k,1,2.0661,7,2,30,3,1,,,,,
1.87,,,,,,,,,d,orange,5ebc55844e4f7f08eff7734d,2021-11-01_14h12.56.847,forced_choiceRT_color,2021.2.3,Win32,30.03814845,,,,,,,,10,Ontime,long,d,1,1.9473,7,3,31,0,1,,,,,
1.54,,,,,,,,,j,red,5ebc55844e4f7f08eff7734d,2021-11-01_14h12.56.847,forced_choiceRT_color,2021.2.3,Win32,30.03814845,,,,,,,,10,Slow,long,j,1,2.1181,8,0,32,2,1,,,,,
1.1,,,,,,,,,f,blue,5ebc55844e4f7f08eff7734d,2021-11-01_14h12.56.847,forced_choiceRT_color,2021.2.3,Win32,30.03814845,,,,,,,,10,Ontime,long,f,1,2.0257,8,1,33,1,1,,,,,
1.1,,,,,,,,,d,orange,5ebc55844e4f7f08eff7734d,2021-11-01_14h12.56.847,forced_choiceRT_color,2021.2.3,Win32,30.03814845,,,,,,,,10,Ontime,long,d,1,2.0714,8,2,34,0,1,,,,,
0.79,,,,,,,,,f,blue,5ebc55844e4f7f08eff7734d,2021-11-01_14h12.56.847,forced_choiceRT_color,2021.2.3,Win32,30.03814845,,,,,,,,10,Ontime,long,f,1,1.9938,8,3,35,1,1,,,,,
1.94,,,,,,,,,j,red,5ebc55844e4f7f08eff7734d,2021-11-01_14h12.56.847,forced_choiceRT_color,2021.2.3,Win32,30.03814845,,,,,,,,10,Ontime,long,d,0,2.0042,9,0,36,2,1,,,,,
1.61,,,,,,,,,d,orange,5ebc55844e4f7f08eff7734d,2021-11-01_14h12.56.847,forced_choiceRT_color,2021.2.3,Win32,30.03814845,,,,,,,,10,Ontime,long,k,0,2.0479,9,1,37,0,1,,,,,
1.99,,,,,,,,,j,red,5ebc55844e4f7f08eff7734d,2021-11-01_14h12.56.847,forced_choiceRT_color,2021.2.3,Win32,30.03814845,,,,,,,,10,Ontime,long,d,0,2.0361,9,2,38,2,1,,,,,
1,,,,,,,,,d,orange,5ebc55844e4f7f08eff7734d,2021-11-01_14h12.56.847,forced_choiceRT_color,2021.2.3,Win32,30.03814845,,,,,,,,10,Slow,long,d,1,2.1039,9,3,39,0,1,,,,,
,,,,,,,,,,,5ebc55844e4f7f08eff7734d,2021-11-01_14h12.56.847,forced_choiceRT_color,2021.2.3,Win32,30.03814845,,,,,,,,,,,,,,,,,,,9,0,9,0,1
