IP_Addresss,target_onset,trial_resp_sp.keys,trial_resp_sp.corr,trial_resp_sp.rt,trials_train_loop.thisRepN,trials_train_loop.thisTrialN,trials_train_loop.thisN,trials_train_loop.thisIndex,trials_train_loop.ran,correct_key,color,participant,date,expName,psychopyVersion,OS,frameRate,trial_resp_timing.keys,trial_resp_timing.rt,trials_train_timing.thisRepN,trials_train_timing.thisTrialN,trials_train_timing.thisN,trials_train_timing.thisIndex,trials_train_timing.ran,block_id,ontime,feedback_cond,forcedRT_resp.keys,forcedRT_resp.corr,forcedRT_resp.rt,trials.thisRepN,trials.thisTrialN,trials.thisN,trials.thisIndex,trials.ran,blocks.thisRepN,blocks.thisTrialN,blocks.thisN,blocks.thisIndex,blocks.ran
68.43.178.133,0,k,1,2.0468,0,0,0,3,1,k,purple,5f11f98efbaf2b0ef855ec6b,2021-09-27_17h10.33.199,forced_choiceRT_color,2021.2.3,MacIntel,59.99880002,,,,,,,,,,,,,,,,,,,,,,,
,0,d,0,1.0402,0,1,1,2,1,j,red,5f11f98efbaf2b0ef855ec6b,2021-09-27_17h10.33.199,forced_choiceRT_color,2021.2.3,MacIntel,59.99880002,,,,,,,,,,,,,,,,,,,,,,,
,0,j,1,1.1675,0,2,2,2,1,j,red,5f11f98efbaf2b0ef855ec6b,2021-09-27_17h10.33.199,forced_choiceRT_color,2021.2.3,MacIntel,59.99880002,,,,,,,,,,,,,,,,,,,,,,,
,0,f,1,1.3663,0,3,3,1,1,f,blue,5f11f98efbaf2b0ef855ec6b,2021-09-27_17h10.33.199,forced_choiceRT_color,2021.2.3,MacIntel,59.99880002,,,,,,,,,,,,,,,,,,,,,,,
,0,d,1,0.9696,1,0,4,0,1,d,orange,5f11f98efbaf2b0ef855ec6b,2021-09-27_17h10.33.199,forced_choiceRT_color,2021.2.3,MacIntel,59.99880002,,,,,,,,,,,,,,,,,,,,,,,
,0,j,1,1.0238,1,1,5,2,1,j,red,5f11f98efbaf2b0ef855ec6b,2021-09-27_17h10.33.199,forced_choiceRT_color,2021.2.3,MacIntel,59.99880002,,,,,,,,,,,,,,,,,,,,,,,
,0,k,1,0.77,1,2,6,3,1,k,purple,5f11f98efbaf2b0ef855ec6b,2021-09-27_17h10.33.199,forced_choiceRT_color,2021.2.3,MacIntel,59.99880002,,,,,,,,,,,,,,,,,,,,,,,
,0,k,1,0.908,1,3,7,3,1,k,purple,5f11f98efbaf2b0ef855ec6b,2021-09-27_17h10.33.199,forced_choiceRT_color,2021.2.3,MacIntel,59.99880002,,,,,,,,,,,,,,,,,,,,,,,
,0,k,1,0.6462,2,0,8,3,1,k,purple,5f11f98efbaf2b0ef855ec6b,2021-09-27_17h10.33.199,forced_choiceRT_color,2021.2.3,MacIntel,59.99880002,,,,,,,,,,,,,,,,,,,,,,,
,0,k,1,0.4884,2,1,9,3,1,k,purple,5f11f98efbaf2b0ef855ec6b,2021-09-27_17h10.33.199,forced_choiceRT_color,2021.2.3,MacIntel,59.99880002,,,,,,,,,,,,,,,,,,,,,,,
,0,f,1,0.9123,2,2,10,1,1,f,blue,5f11f98efbaf2b0ef855ec6b,2021-09-27_17h10.33.199,forced_choiceRT_color,2021.2.3,MacIntel,59.99880002,,,,,,,,,,,,,,,,,,,,,,,
,0,k,1,0.7707,2,3,11,3,1,k,purple,5f11f98efbaf2b0ef855ec6b,2021-09-27_17h10.33.199,forced_choiceRT_color,2021.2.3,MacIntel,59.99880002,,,,,,,,,,,,,,,,,,,,,,,
,0,d,1,0.8805,3,0,12,0,1,d,orange,5f11f98efbaf2b0ef855ec6b,2021-09-27_17h10.33.199,forced_choiceRT_color,2021.2.3,MacIntel,59.99880002,,,,,,,,,,,,,,,,,,,,,,,
,0,k,1,0.7668,3,1,13,3,1,k,purple,5f11f98efbaf2b0ef855ec6b,2021-09-27_17h10.33.199,forced_choiceRT_color,2021.2.3,MacIntel,59.99880002,,,,,,,,,,,,,,,,,,,,,,,
,0,d,1,0.8328,3,2,14,0,1,d,orange,5f11f98efbaf2b0ef855ec6b,2021-09-27_17h10.33.199,forced_choiceRT_color,2021.2.3,MacIntel,59.99880002,,,,,,,,,,,,,,,,,,,,,,,
,0,f,1,0.8214,3,3,15,1,1,f,blue,5f11f98efbaf2b0ef855ec6b,2021-09-27_17h10.33.199,forced_choiceRT_color,2021.2.3,MacIntel,59.99880002,,,,,,,,,,,,,,,,,,,,,,,
,0,j,1,0.8052,4,0,16,2,1,j,red,5f11f98efbaf2b0ef855ec6b,2021-09-27_17h10.33.199,forced_choiceRT_color,2021.2.3,MacIntel,59.99880002,,,,,,,,,,,,,,,,,,,,,,,
,0,d,1,0.7817,4,1,17,0,1,d,orange,5f11f98efbaf2b0ef855ec6b,2021-09-27_17h10.33.199,forced_choiceRT_color,2021.2.3,MacIntel,59.99880002,,,,,,,,,,,,,,,,,,,,,,,
,0,k,1,0.7718,4,2,18,3,1,k,purple,5f11f98efbaf2b0ef855ec6b,2021-09-27_17h10.33.199,forced_choiceRT_color,2021.2.3,MacIntel,59.99880002,,,,,,,,,,,,,,,,,,,,,,,
,0,k,1,0.77,4,3,19,3,1,k,purple,5f11f98efbaf2b0ef855ec6b,2021-09-27_17h10.33.199,forced_choiceRT_color,2021.2.3,MacIntel,59.99880002,,,,,,,,,,,,,,,,,,,,,,,
,0,f,1,0.9199,5,0,20,1,1,f,blue,5f11f98efbaf2b0ef855ec6b,2021-09-27_17h10.33.199,forced_choiceRT_color,2021.2.3,MacIntel,59.99880002,,,,,,,,,,,,,,,,,,,,,,,
,0,f,1,0.7507,5,1,21,1,1,f,blue,5f11f98efbaf2b0ef855ec6b,2021-09-27_17h10.33.199,forced_choiceRT_color,2021.2.3,MacIntel,59.99880002,,,,,,,,,,,,,,,,,,,,,,,
,0,j,1,0.836,5,2,22,2,1,j,red,5f11f98efbaf2b0ef855ec6b,2021-09-27_17h10.33.199,forced_choiceRT_color,2021.2.3,MacIntel,59.99880002,,,,,,,,,,,,,,,,,,,,,,,
,0,j,1,0.6552,5,3,23,2,1,j,red,5f11f98efbaf2b0ef855ec6b,2021-09-27_17h10.33.199,forced_choiceRT_color,2021.2.3,MacIntel,59.99880002,,,,,,,,,,,,,,,,,,,,,,,
,0,k,1,0.8557,6,0,24,3,1,k,purple,5f11f98efbaf2b0ef855ec6b,2021-09-27_17h10.33.199,forced_choiceRT_color,2021.2.3,MacIntel,59.99880002,,,,,,,,,,,,,,,,,,,,,,,
,0,f,1,1.0237,6,1,25,1,1,f,blue,5f11f98efbaf2b0ef855ec6b,2021-09-27_17h10.33.199,forced_choiceRT_color,2021.2.3,MacIntel,59.99880002,,,,,,,,,,,,,,,,,,,,,,,
,0,j,1,0.9468,6,2,26,2,1,j,red,5f11f98efbaf2b0ef855ec6b,2021-09-27_17h10.33.199,forced_choiceRT_color,2021.2.3,MacIntel,59.99880002,,,,,,,,,,,,,,,,,,,,,,,
,0,f,1,1.225,6,3,27,1,1,f,blue,5f11f98efbaf2b0ef855ec6b,2021-09-27_17h10.33.199,forced_choiceRT_color,2021.2.3,MacIntel,59.99880002,,,,,,,,,,,,,,,,,,,,,,,
,0,f,1,0.9607,7,0,28,1,1,f,blue,5f11f98efbaf2b0ef855ec6b,2021-09-27_17h10.33.199,forced_choiceRT_color,2021.2.3,MacIntel,59.99880002,,,,,,,,,,,,,,,,,,,,,,,
,0,d,1,1.0196,7,1,29,0,1,d,orange,5f11f98efbaf2b0ef855ec6b,2021-09-27_17h10.33.199,forced_choiceRT_color,2021.2.3,MacIntel,59.99880002,,,,,,,,,,,,,,,,,,,,,,,
,0,k,1,0.8733,7,2,30,3,1,k,purple,5f11f98efbaf2b0ef855ec6b,2021-09-27_17h10.33.199,forced_choiceRT_color,2021.2.3,MacIntel,59.99880002,,,,,,,,,,,,,,,,,,,,,,,
,0,k,1,0.6699,7,3,31,3,1,k,purple,5f11f98efbaf2b0ef855ec6b,2021-09-27_17h10.33.199,forced_choiceRT_color,2021.2.3,MacIntel,59.99880002,,,,,,,,,,,,,,,,,,,,,,,
,0,k,1,0.5183,8,0,32,3,1,k,purple,5f11f98efbaf2b0ef855ec6b,2021-09-27_17h10.33.199,forced_choiceRT_color,2021.2.3,MacIntel,59.99880002,,,,,,,,,,,,,,,,,,,,,,,
,0,f,1,0.8516,8,1,33,1,1,f,blue,5f11f98efbaf2b0ef855ec6b,2021-09-27_17h10.33.199,forced_choiceRT_color,2021.2.3,MacIntel,59.99880002,,,,,,,,,,,,,,,,,,,,,,,
,0,k,1,0.8529,8,2,34,3,1,k,purple,5f11f98efbaf2b0ef855ec6b,2021-09-27_17h10.33.199,forced_choiceRT_color,2021.2.3,MacIntel,59.99880002,,,,,,,,,,,,,,,,,,,,,,,
,0,j,1,0.8504,8,3,35,2,1,j,red,5f11f98efbaf2b0ef855ec6b,2021-09-27_17h10.33.199,forced_choiceRT_color,2021.2.3,MacIntel,59.99880002,,,,,,,,,,,,,,,,,,,,,,,
,0,d,1,0.8864,9,0,36,0,1,d,orange,5f11f98efbaf2b0ef855ec6b,2021-09-27_17h10.33.199,forced_choiceRT_color,2021.2.3,MacIntel,59.99880002,,,,,,,,,,,,,,,,,,,,,,,
,0,j,1,1.0326,9,1,37,2,1,j,red,5f11f98efbaf2b0ef855ec6b,2021-09-27_17h10.33.199,forced_choiceRT_color,2021.2.3,MacIntel,59.99880002,,,,,,,,,,,,,,,,,,,,,,,
,0,d,1,0.8636,9,2,38,0,1,d,orange,5f11f98efbaf2b0ef855ec6b,2021-09-27_17h10.33.199,forced_choiceRT_color,2021.2.3,MacIntel,59.99880002,,,,,,,,,,,,,,,,,,,,,,,
,0,f,1,0.8748,9,3,39,1,1,f,blue,5f11f98efbaf2b0ef855ec6b,2021-09-27_17h10.33.199,forced_choiceRT_color,2021.2.3,MacIntel,59.99880002,,,,,,,,,,,,,,,,,,,,,,,
,0,f,1,0.8709,10,0,40,1,1,f,blue,5f11f98efbaf2b0ef855ec6b,2021-09-27_17h10.33.199,forced_choiceRT_color,2021.2.3,MacIntel,59.99880002,,,,,,,,,,,,,,,,,,,,,,,
,0,f,1,0.8523,10,1,41,1,1,f,blue,5f11f98efbaf2b0ef855ec6b,2021-09-27_17h10.33.199,forced_choiceRT_color,2021.2.3,MacIntel,59.99880002,,,,,,,,,,,,,,,,,,,,,,,
,0,j,1,1.182,10,2,42,2,1,j,red,5f11f98efbaf2b0ef855ec6b,2021-09-27_17h10.33.199,forced_choiceRT_color,2021.2.3,MacIntel,59.99880002,,,,,,,,,,,,,,,,,,,,,,,
,0,d,1,0.9359,10,3,43,0,1,d,orange,5f11f98efbaf2b0ef855ec6b,2021-09-27_17h10.33.199,forced_choiceRT_color,2021.2.3,MacIntel,59.99880002,,,,,,,,,,,,,,,,,,,,,,,
,0,d,1,1.1666,11,0,44,0,1,d,orange,5f11f98efbaf2b0ef855ec6b,2021-09-27_17h10.33.199,forced_choiceRT_color,2021.2.3,MacIntel,59.99880002,,,,,,,,,,,,,,,,,,,,,,,
,0,j,1,1.3419,11,1,45,2,1,j,red,5f11f98efbaf2b0ef855ec6b,2021-09-27_17h10.33.199,forced_choiceRT_color,2021.2.3,MacIntel,59.99880002,,,,,,,,,,,,,,,,,,,,,,,
,0,j,1,1.6043,11,2,46,2,1,j,red,5f11f98efbaf2b0ef855ec6b,2021-09-27_17h10.33.199,forced_choiceRT_color,2021.2.3,MacIntel,59.99880002,,,,,,,,,,,,,,,,,,,,,,,
,0,d,1,1.7837,11,3,47,0,1,d,orange,5f11f98efbaf2b0ef855ec6b,2021-09-27_17h10.33.199,forced_choiceRT_color,2021.2.3,MacIntel,59.99880002,,,,,,,,,,,,,,,,,,,,,,,
,0,j,1,1.249,12,0,48,2,1,j,red,5f11f98efbaf2b0ef855ec6b,2021-09-27_17h10.33.199,forced_choiceRT_color,2021.2.3,MacIntel,59.99880002,,,,,,,,,,,,,,,,,,,,,,,
,0,d,1,1.1016,12,1,49,0,1,d,orange,5f11f98efbaf2b0ef855ec6b,2021-09-27_17h10.33.199,forced_choiceRT_color,2021.2.3,MacIntel,59.99880002,,,,,,,,,,,,,,,,,,,,,,,
,0,f,1,2.1553,12,2,50,1,1,f,blue,5f11f98efbaf2b0ef855ec6b,2021-09-27_17h10.33.199,forced_choiceRT_color,2021.2.3,MacIntel,59.99880002,,,,,,,,,,,,,,,,,,,,,,,
,0,j,1,1.1598,12,3,51,2,1,j,red,5f11f98efbaf2b0ef855ec6b,2021-09-27_17h10.33.199,forced_choiceRT_color,2021.2.3,MacIntel,59.99880002,,,,,,,,,,,,,,,,,,,,,,,
,0,f,1,1.4399,13,0,52,1,1,f,blue,5f11f98efbaf2b0ef855ec6b,2021-09-27_17h10.33.199,forced_choiceRT_color,2021.2.3,MacIntel,59.99880002,,,,,,,,,,,,,,,,,,,,,,,
,0,f,1,0.6418,13,1,53,1,1,f,blue,5f11f98efbaf2b0ef855ec6b,2021-09-27_17h10.33.199,forced_choiceRT_color,2021.2.3,MacIntel,59.99880002,,,,,,,,,,,,,,,,,,,,,,,
,0,j,1,0.7195,13,2,54,2,1,j,red,5f11f98efbaf2b0ef855ec6b,2021-09-27_17h10.33.199,forced_choiceRT_color,2021.2.3,MacIntel,59.99880002,,,,,,,,,,,,,,,,,,,,,,,
,0,k,1,0.6325,13,3,55,3,1,k,purple,5f11f98efbaf2b0ef855ec6b,2021-09-27_17h10.33.199,forced_choiceRT_color,2021.2.3,MacIntel,59.99880002,,,,,,,,,,,,,,,,,,,,,,,
,0,d,1,1.172,14,0,56,0,1,d,orange,5f11f98efbaf2b0ef855ec6b,2021-09-27_17h10.33.199,forced_choiceRT_color,2021.2.3,MacIntel,59.99880002,,,,,,,,,,,,,,,,,,,,,,,
,0,d,1,0.6079,14,1,57,0,1,d,orange,5f11f98efbaf2b0ef855ec6b,2021-09-27_17h10.33.199,forced_choiceRT_color,2021.2.3,MacIntel,59.99880002,,,,,,,,,,,,,,,,,,,,,,,
,0,d,1,0.5006,14,2,58,0,1,d,orange,5f11f98efbaf2b0ef855ec6b,2021-09-27_17h10.33.199,forced_choiceRT_color,2021.2.3,MacIntel,59.99880002,,,,,,,,,,,,,,,,,,,,,,,
,0,d,1,0.4153,14,3,59,0,1,d,orange,5f11f98efbaf2b0ef855ec6b,2021-09-27_17h10.33.199,forced_choiceRT_color,2021.2.3,MacIntel,59.99880002,,,,,,,,,,,,,,,,,,,,,,,
,,,,,,,,,,,,5f11f98efbaf2b0ef855ec6b,2021-09-27_17h10.33.199,forced_choiceRT_color,2021.2.3,MacIntel,59.99880002,j,2.025,0,0,0,0,1,,,,,,,,,,,,,,,,
,,,,,,,,,,,,5f11f98efbaf2b0ef855ec6b,2021-09-27_17h10.33.199,forced_choiceRT_color,2021.2.3,MacIntel,59.99880002,k,2.0842,1,0,1,0,1,,,,,,,,,,,,,,,,
,,,,,,,,,,,,5f11f98efbaf2b0ef855ec6b,2021-09-27_17h10.33.199,forced_choiceRT_color,2021.2.3,MacIntel,59.99880002,k,2.0362,2,0,2,0,1,,,,,,,,,,,,,,,,
,,,,,,,,,,,,5f11f98efbaf2b0ef855ec6b,2021-09-27_17h10.33.199,forced_choiceRT_color,2021.2.3,MacIntel,59.99880002,d,2.1275,3,0,3,0,1,,,,,,,,,,,,,,,,
,,,,,,,,,,,,5f11f98efbaf2b0ef855ec6b,2021-09-27_17h10.33.199,forced_choiceRT_color,2021.2.3,MacIntel,59.99880002,d,2.1,4,0,4,0,1,,,,,,,,,,,,,,,,
,,,,,,,,,,,,5f11f98efbaf2b0ef855ec6b,2021-09-27_17h10.33.199,forced_choiceRT_color,2021.2.3,MacIntel,59.99880002,f,2.0714,5,0,5,0,1,,,,,,,,,,,,,,,,
,,,,,,,,,,,,5f11f98efbaf2b0ef855ec6b,2021-09-27_17h10.33.199,forced_choiceRT_color,2021.2.3,MacIntel,59.99880002,j,2.0391,6,0,6,0,1,,,,,,,,,,,,,,,,
,,,,,,,,,,,,5f11f98efbaf2b0ef855ec6b,2021-09-27_17h10.33.199,forced_choiceRT_color,2021.2.3,MacIntel,59.99880002,k,2.0469,7,0,7,0,1,,,,,,,,,,,,,,,,
,,,,,,,,,,,,5f11f98efbaf2b0ef855ec6b,2021-09-27_17h10.33.199,forced_choiceRT_color,2021.2.3,MacIntel,59.99880002,d,2.0101,8,0,8,0,1,,,,,,,,,,,,,,,,
,,,,,,,,,,,,5f11f98efbaf2b0ef855ec6b,2021-09-27_17h10.33.199,forced_choiceRT_color,2021.2.3,MacIntel,59.99880002,j,2.1041,9,0,9,0,1,,,,,,,,,,,,,,,,
,,,,,,,,,,,,5f11f98efbaf2b0ef855ec6b,2021-09-27_17h10.33.199,forced_choiceRT_color,2021.2.3,MacIntel,59.99880002,k,2.1013,10,0,10,0,1,,,,,,,,,,,,,,,,
,,,,,,,,,,,,5f11f98efbaf2b0ef855ec6b,2021-09-27_17h10.33.199,forced_choiceRT_color,2021.2.3,MacIntel,59.99880002,f,2.006,11,0,11,0,1,,,,,,,,,,,,,,,,
,,,,,,,,,,,,5f11f98efbaf2b0ef855ec6b,2021-09-27_17h10.33.199,forced_choiceRT_color,2021.2.3,MacIntel,59.99880002,j,2.048,12,0,12,0,1,,,,,,,,,,,,,,,,
,,,,,,,,,,,,5f11f98efbaf2b0ef855ec6b,2021-09-27_17h10.33.199,forced_choiceRT_color,2021.2.3,MacIntel,59.99880002,f,2.0672,13,0,13,0,1,,,,,,,,,,,,,,,,
,,,,,,,,,,,,5f11f98efbaf2b0ef855ec6b,2021-09-27_17h10.33.199,forced_choiceRT_color,2021.2.3,MacIntel,59.99880002,k,2.012,14,0,14,0,1,,,,,,,,,,,,,,,,
,,,,,,,,,,,,5f11f98efbaf2b0ef855ec6b,2021-09-27_17h10.33.199,forced_choiceRT_color,2021.2.3,MacIntel,59.99880002,j,2.0173,15,0,15,0,1,,,,,,,,,,,,,,,,
,,,,,,,,,,,,5f11f98efbaf2b0ef855ec6b,2021-09-27_17h10.33.199,forced_choiceRT_color,2021.2.3,MacIntel,59.99880002,d,2.0524,16,0,16,0,1,,,,,,,,,,,,,,,,
,,,,,,,,,,,,5f11f98efbaf2b0ef855ec6b,2021-09-27_17h10.33.199,forced_choiceRT_color,2021.2.3,MacIntel,59.99880002,f,2.0663,17,0,17,0,1,,,,,,,,,,,,,,,,
,,,,,,,,,,,,5f11f98efbaf2b0ef855ec6b,2021-09-27_17h10.33.199,forced_choiceRT_color,2021.2.3,MacIntel,59.99880002,k,2.0152,18,0,18,0,1,,,,,,,,,,,,,,,,
,,,,,,,,,,,,5f11f98efbaf2b0ef855ec6b,2021-09-27_17h10.33.199,forced_choiceRT_color,2021.2.3,MacIntel,59.99880002,d,2.0021,19,0,19,0,1,,,,,,,,,,,,,,,,
,0.5,,,,,,,,,j,red,5f11f98efbaf2b0ef855ec6b,2021-09-27_17h10.33.199,forced_choiceRT_color,2021.2.3,MacIntel,59.99880002,,,,,,,,1,Ontime,short,d,0,2.0831,0,0,0,2,1,,,,,
,1.67,,,,,,,,,j,red,5f11f98efbaf2b0ef855ec6b,2021-09-27_17h10.33.199,forced_choiceRT_color,2021.2.3,MacIntel,59.99880002,,,,,,,,1,Slow,short,f,0,2.5308,0,1,1,2,1,,,,,
,0.93,,,,,,,,,d,orange,5f11f98efbaf2b0ef855ec6b,2021-09-27_17h10.33.199,forced_choiceRT_color,2021.2.3,MacIntel,59.99880002,,,,,,,,1,Fast,short,f,0,1.5362,0,2,2,0,1,,,,,
,0.02,,,,,,,,,j,red,5f11f98efbaf2b0ef855ec6b,2021-09-27_17h10.33.199,forced_choiceRT_color,2021.2.3,MacIntel,59.99880002,,,,,,,,1,Ontime,short,f,0,2.0833,0,3,3,2,1,,,,,
,0.52,,,,,,,,,f,blue,5f11f98efbaf2b0ef855ec6b,2021-09-27_17h10.33.199,forced_choiceRT_color,2021.2.3,MacIntel,59.99880002,,,,,,,,1,Ontime,short,f,1,2.0373,1,0,4,1,1,,,,,
,0.24,,,,,,,,,k,purple,5f11f98efbaf2b0ef855ec6b,2021-09-27_17h10.33.199,forced_choiceRT_color,2021.2.3,MacIntel,59.99880002,,,,,,,,1,Ontime,short,k,1,2.0891,1,1,5,3,1,,,,,
,0.2,,,,,,,,,j,red,5f11f98efbaf2b0ef855ec6b,2021-09-27_17h10.33.199,forced_choiceRT_color,2021.2.3,MacIntel,59.99880002,,,,,,,,1,Ontime,short,j,1,2.0685,1,2,6,2,1,,,,,
,0.07,,,,,,,,,d,orange,5f11f98efbaf2b0ef855ec6b,2021-09-27_17h10.33.199,forced_choiceRT_color,2021.2.3,MacIntel,59.99880002,,,,,,,,1,Ontime,short,d,1,2.0705,1,3,7,0,1,,,,,
,1.8,,,,,,,,,f,blue,5f11f98efbaf2b0ef855ec6b,2021-09-27_17h10.33.199,forced_choiceRT_color,2021.2.3,MacIntel,59.99880002,,,,,,,,1,Ontime,short,f,1,2.0845,2,0,8,1,1,,,,,
,0.17,,,,,,,,,f,blue,5f11f98efbaf2b0ef855ec6b,2021-09-27_17h10.33.199,forced_choiceRT_color,2021.2.3,MacIntel,59.99880002,,,,,,,,1,Ontime,short,f,1,2.0695,2,1,9,1,1,,,,,
,1.78,,,,,,,,,f,blue,5f11f98efbaf2b0ef855ec6b,2021-09-27_17h10.33.199,forced_choiceRT_color,2021.2.3,MacIntel,59.99880002,,,,,,,,1,Slow,short,f,1,2.2561,2,2,10,1,1,,,,,
,1.99,,,,,,,,,j,red,5f11f98efbaf2b0ef855ec6b,2021-09-27_17h10.33.199,forced_choiceRT_color,2021.2.3,MacIntel,59.99880002,,,,,,,,1,Slow,short,f,0,2.2473,2,3,11,2,1,,,,,
,1.6,,,,,,,,,d,orange,5f11f98efbaf2b0ef855ec6b,2021-09-27_17h10.33.199,forced_choiceRT_color,2021.2.3,MacIntel,59.99880002,,,,,,,,1,Slow,short,d,1,2.2893,3,0,12,0,1,,,,,
,1.3,,,,,,,,,j,red,5f11f98efbaf2b0ef855ec6b,2021-09-27_17h10.33.199,forced_choiceRT_color,2021.2.3,MacIntel,59.99880002,,,,,,,,1,Ontime,short,j,1,2.0572,3,1,13,2,1,,,,,
,1.6,,,,,,,,,f,blue,5f11f98efbaf2b0ef855ec6b,2021-09-27_17h10.33.199,forced_choiceRT_color,2021.2.3,MacIntel,59.99880002,,,,,,,,1,Slow,short,f,1,2.1931,3,2,14,1,1,,,,,
,1.08,,,,,,,,,d,orange,5f11f98efbaf2b0ef855ec6b,2021-09-27_17h10.33.199,forced_choiceRT_color,2021.2.3,MacIntel,59.99880002,,,,,,,,1,Slow,short,d,1,2.1158,3,3,15,0,1,,,,,
,1.12,,,,,,,,,k,purple,5f11f98efbaf2b0ef855ec6b,2021-09-27_17h10.33.199,forced_choiceRT_color,2021.2.3,MacIntel,59.99880002,,,,,,,,1,Ontime,short,k,1,2.0732,4,0,16,3,1,,,,,
,0.52,,,,,,,,,d,orange,5f11f98efbaf2b0ef855ec6b,2021-09-27_17h10.33.199,forced_choiceRT_color,2021.2.3,MacIntel,59.99880002,,,,,,,,1,Ontime,short,d,1,2.0347,4,1,17,0,1,,,,,
,1.78,,,,,,,,,j,red,5f11f98efbaf2b0ef855ec6b,2021-09-27_17h10.33.199,forced_choiceRT_color,2021.2.3,MacIntel,59.99880002,,,,,,,,1,Slow,short,j,1,2.2565,4,2,18,2,1,,,,,
,0.6,,,,,,,,,k,purple,5f11f98efbaf2b0ef855ec6b,2021-09-27_17h10.33.199,forced_choiceRT_color,2021.2.3,MacIntel,59.99880002,,,,,,,,1,Ontime,short,k,1,2.0426,4,3,19,3,1,,,,,
,0.28,,,,,,,,,j,red,5f11f98efbaf2b0ef855ec6b,2021-09-27_17h10.33.199,forced_choiceRT_color,2021.2.3,MacIntel,59.99880002,,,,,,,,1,Ontime,short,j,1,2.004,5,0,20,2,1,,,,,
,0.62,,,,,,,,,k,purple,5f11f98efbaf2b0ef855ec6b,2021-09-27_17h10.33.199,forced_choiceRT_color,2021.2.3,MacIntel,59.99880002,,,,,,,,1,Ontime,short,k,1,2.0697,5,1,21,3,1,,,,,
,1.93,,,,,,,,,k,purple,5f11f98efbaf2b0ef855ec6b,2021-09-27_17h10.33.199,forced_choiceRT_color,2021.2.3,MacIntel,59.99880002,,,,,,,,1,Ontime,short,j,0,2.0838,5,2,22,3,1,,,,,
,1.31,,,,,,,,,k,purple,5f11f98efbaf2b0ef855ec6b,2021-09-27_17h10.33.199,forced_choiceRT_color,2021.2.3,MacIntel,59.99880002,,,,,,,,1,Ontime,short,k,1,2.0345,5,3,23,3,1,,,,,
,0.88,,,,,,,,,f,blue,5f11f98efbaf2b0ef855ec6b,2021-09-27_17h10.33.199,forced_choiceRT_color,2021.2.3,MacIntel,59.99880002,,,,,,,,1,Ontime,short,f,1,2.0085,6,0,24,1,1,,,,,
,0.61,,,,,,,,,k,purple,5f11f98efbaf2b0ef855ec6b,2021-09-27_17h10.33.199,forced_choiceRT_color,2021.2.3,MacIntel,59.99880002,,,,,,,,1,Ontime,short,k,1,2.0856,6,1,25,3,1,,,,,
,1.56,,,,,,,,,d,orange,5f11f98efbaf2b0ef855ec6b,2021-09-27_17h10.33.199,forced_choiceRT_color,2021.2.3,MacIntel,59.99880002,,,,,,,,1,Slow,short,f,0,2.1016,6,2,26,0,1,,,,,
,1.59,,,,,,,,,f,blue,5f11f98efbaf2b0ef855ec6b,2021-09-27_17h10.33.199,forced_choiceRT_color,2021.2.3,MacIntel,59.99880002,,,,,,,,1,Slow,short,f,1,2.1672,6,3,27,1,1,,,,,
,1.48,,,,,,,,,k,purple,5f11f98efbaf2b0ef855ec6b,2021-09-27_17h10.33.199,forced_choiceRT_color,2021.2.3,MacIntel,59.99880002,,,,,,,,1,Ontime,short,k,1,2.0874,7,0,28,3,1,,,,,
,1.77,,,,,,,,,j,red,5f11f98efbaf2b0ef855ec6b,2021-09-27_17h10.33.199,forced_choiceRT_color,2021.2.3,MacIntel,59.99880002,,,,,,,,1,Ontime,short,k,0,2.0642,7,1,29,2,1,,,,,
,1.99,,,,,,,,,d,orange,5f11f98efbaf2b0ef855ec6b,2021-09-27_17h10.33.199,forced_choiceRT_color,2021.2.3,MacIntel,59.99880002,,,,,,,,1,Ontime,short,j,0,2.0947,7,2,30,0,1,,,,,
,1,,,,,,,,,d,orange,5f11f98efbaf2b0ef855ec6b,2021-09-27_17h10.33.199,forced_choiceRT_color,2021.2.3,MacIntel,59.99880002,,,,,,,,1,Ontime,short,d,1,2.0243,7,3,31,0,1,,,,,
,0.43,,,,,,,,,k,purple,5f11f98efbaf2b0ef855ec6b,2021-09-27_17h10.33.199,forced_choiceRT_color,2021.2.3,MacIntel,59.99880002,,,,,,,,1,Ontime,short,k,1,1.9598,8,0,32,3,1,,,,,
,0.26,,,,,,,,,j,red,5f11f98efbaf2b0ef855ec6b,2021-09-27_17h10.33.199,forced_choiceRT_color,2021.2.3,MacIntel,59.99880002,,,,,,,,1,Ontime,short,j,1,1.9437,8,1,33,2,1,,,,,
,0.5,,,,,,,,,k,purple,5f11f98efbaf2b0ef855ec6b,2021-09-27_17h10.33.199,forced_choiceRT_color,2021.2.3,MacIntel,59.99880002,,,,,,,,1,Ontime,short,k,1,1.9243,8,2,34,3,1,,,,,
,0.21,,,,,,,,,d,orange,5f11f98efbaf2b0ef855ec6b,2021-09-27_17h10.33.199,forced_choiceRT_color,2021.2.3,MacIntel,59.99880002,,,,,,,,1,Fast,short,d,1,1.8712,8,3,35,0,1,,,,,
,0.7,,,,,,,,,f,blue,5f11f98efbaf2b0ef855ec6b,2021-09-27_17h10.33.199,forced_choiceRT_color,2021.2.3,MacIntel,59.99880002,,,,,,,,1,Ontime,short,f,1,1.9416,9,0,36,1,1,,,,,
,1.46,,,,,,,,,d,orange,5f11f98efbaf2b0ef855ec6b,2021-09-27_17h10.33.199,forced_choiceRT_color,2021.2.3,MacIntel,59.99880002,,,,,,,,1,Ontime,short,j,0,1.9707,9,1,37,0,1,,,,,
,1.62,,,,,,,,,f,blue,5f11f98efbaf2b0ef855ec6b,2021-09-27_17h10.33.199,forced_choiceRT_color,2021.2.3,MacIntel,59.99880002,,,,,,,,1,Ontime,short,j,0,1.9672,9,2,38,1,1,,,,,
,0.02,,,,,,,,,f,blue,5f11f98efbaf2b0ef855ec6b,2021-09-27_17h10.33.199,forced_choiceRT_color,2021.2.3,MacIntel,59.99880002,,,,,,,,1,Ontime,short,f,1,1.9169,9,3,39,1,1,,,,,
,,,,,,,,,,,,5f11f98efbaf2b0ef855ec6b,2021-09-27_17h10.33.199,forced_choiceRT_color,2021.2.3,MacIntel,59.99880002,,,,,,,,,,,,,,,,,,,0,0,0,0,1
,0.9,,,,,,,,,d,orange,5f11f98efbaf2b0ef855ec6b,2021-09-27_17h10.33.199,forced_choiceRT_color,2021.2.3,MacIntel,59.99880002,,,,,,,,2,Ontime,short,d,1,2.0147,0,0,0,0,1,,,,,
,1.76,,,,,,,,,j,red,5f11f98efbaf2b0ef855ec6b,2021-09-27_17h10.33.199,forced_choiceRT_color,2021.2.3,MacIntel,59.99880002,,,,,,,,2,Ontime,short,f,0,1.9841,0,1,1,2,1,,,,,
,0.53,,,,,,,,,k,purple,5f11f98efbaf2b0ef855ec6b,2021-09-27_17h10.33.199,forced_choiceRT_color,2021.2.3,MacIntel,59.99880002,,,,,,,,2,Fast,short,k,1,1.8326,0,2,2,3,1,,,,,
,0.33,,,,,,,,,j,red,5f11f98efbaf2b0ef855ec6b,2021-09-27_17h10.33.199,forced_choiceRT_color,2021.2.3,MacIntel,59.99880002,,,,,,,,2,Ontime,short,j,1,1.9007,0,3,3,2,1,,,,,
,0.37,,,,,,,,,f,blue,5f11f98efbaf2b0ef855ec6b,2021-09-27_17h10.33.199,forced_choiceRT_color,2021.2.3,MacIntel,59.99880002,,,,,,,,2,Ontime,short,f,1,1.9003,1,0,4,1,1,,,,,
,0.02,,,,,,,,,j,red,5f11f98efbaf2b0ef855ec6b,2021-09-27_17h10.33.199,forced_choiceRT_color,2021.2.3,MacIntel,59.99880002,,,,,,,,2,Ontime,short,j,1,1.9442,1,1,5,2,1,,,,,
,0.47,,,,,,,,,k,purple,5f11f98efbaf2b0ef855ec6b,2021-09-27_17h10.33.199,forced_choiceRT_color,2021.2.3,MacIntel,59.99880002,,,,,,,,2,Ontime,short,k,1,1.9179,1,2,6,3,1,,,,,
,0.49,,,,,,,,,f,blue,5f11f98efbaf2b0ef855ec6b,2021-09-27_17h10.33.199,forced_choiceRT_color,2021.2.3,MacIntel,59.99880002,,,,,,,,2,Fast,short,j,0,1.8688,1,3,7,1,1,,,,,
,0.53,,,,,,,,,j,red,5f11f98efbaf2b0ef855ec6b,2021-09-27_17h10.33.199,forced_choiceRT_color,2021.2.3,MacIntel,59.99880002,,,,,,,,2,Ontime,short,j,1,1.9321,2,0,8,2,1,,,,,
,1.29,,,,,,,,,d,orange,5f11f98efbaf2b0ef855ec6b,2021-09-27_17h10.33.199,forced_choiceRT_color,2021.2.3,MacIntel,59.99880002,,,,,,,,2,Ontime,short,f,0,2.0058,2,1,9,0,1,,,,,
,0.29,,,,,,,,,f,blue,5f11f98efbaf2b0ef855ec6b,2021-09-27_17h10.33.199,forced_choiceRT_color,2021.2.3,MacIntel,59.99880002,,,,,,,,2,Ontime,short,f,1,1.941,2,2,10,1,1,,,,,
,0.2,,,,,,,,,f,blue,5f11f98efbaf2b0ef855ec6b,2021-09-27_17h10.33.199,forced_choiceRT_color,2021.2.3,MacIntel,59.99880002,,,,,,,,2,Ontime,short,f,1,1.9172,2,3,11,1,1,,,,,
,0.31,,,,,,,,,d,orange,5f11f98efbaf2b0ef855ec6b,2021-09-27_17h10.33.199,forced_choiceRT_color,2021.2.3,MacIntel,59.99880002,,,,,,,,2,Ontime,short,d,1,1.9089,3,0,12,0,1,,,,,
,1.11,,,,,,,,,d,orange,5f11f98efbaf2b0ef855ec6b,2021-09-27_17h10.33.199,forced_choiceRT_color,2021.2.3,MacIntel,59.99880002,,,,,,,,2,Ontime,short,d,1,1.966,3,1,13,0,1,,,,,
,1.94,,,,,,,,,k,purple,5f11f98efbaf2b0ef855ec6b,2021-09-27_17h10.33.199,forced_choiceRT_color,2021.2.3,MacIntel,59.99880002,,,,,,,,2,Ontime,short,j,0,1.9662,3,2,14,3,1,,,,,
,1.64,,,,,,,,,f,blue,5f11f98efbaf2b0ef855ec6b,2021-09-27_17h10.33.199,forced_choiceRT_color,2021.2.3,MacIntel,59.99880002,,,,,,,,2,Ontime,short,k,0,1.9385,3,3,15,1,1,,,,,
,0.84,,,,,,,,,f,blue,5f11f98efbaf2b0ef855ec6b,2021-09-27_17h10.33.199,forced_choiceRT_color,2021.2.3,MacIntel,59.99880002,,,,,,,,2,Ontime,short,f,1,1.955,4,0,16,1,1,,,,,
,0.09,,,,,,,,,k,purple,5f11f98efbaf2b0ef855ec6b,2021-09-27_17h10.33.199,forced_choiceRT_color,2021.2.3,MacIntel,59.99880002,,,,,,,,2,Fast,short,k,1,1.8693,4,1,17,3,1,,,,,
,1.47,,,,,,,,,f,blue,5f11f98efbaf2b0ef855ec6b,2021-09-27_17h10.33.199,forced_choiceRT_color,2021.2.3,MacIntel,59.99880002,,,,,,,,2,Ontime,short,d,0,2.0037,4,2,18,1,1,,,,,
,1.5,,,,,,,,,k,purple,5f11f98efbaf2b0ef855ec6b,2021-09-27_17h10.33.199,forced_choiceRT_color,2021.2.3,MacIntel,59.99880002,,,,,,,,2,Ontime,short,f,0,1.9548,4,3,19,3,1,,,,,
,0.43,,,,,,,,,d,orange,5f11f98efbaf2b0ef855ec6b,2021-09-27_17h10.33.199,forced_choiceRT_color,2021.2.3,MacIntel,59.99880002,,,,,,,,2,Ontime,short,f,0,1.9344,5,0,20,0,1,,,,,
,1.93,,,,,,,,,k,purple,5f11f98efbaf2b0ef855ec6b,2021-09-27_17h10.33.199,forced_choiceRT_color,2021.2.3,MacIntel,59.99880002,,,,,,,,2,Ontime,short,d,0,2.0039,5,1,21,3,1,,,,,
,1.4,,,,,,,,,j,red,5f11f98efbaf2b0ef855ec6b,2021-09-27_17h10.33.199,forced_choiceRT_color,2021.2.3,MacIntel,59.99880002,,,,,,,,2,Ontime,short,j,1,1.9413,5,2,22,2,1,,,,,
,1.78,,,,,,,,,f,blue,5f11f98efbaf2b0ef855ec6b,2021-09-27_17h10.33.199,forced_choiceRT_color,2021.2.3,MacIntel,59.99880002,,,,,,,,2,Ontime,short,k,0,2.0004,5,3,23,1,1,,,,,
,0.5,,,,,,,,,j,red,5f11f98efbaf2b0ef855ec6b,2021-09-27_17h10.33.199,forced_choiceRT_color,2021.2.3,MacIntel,59.99880002,,,,,,,,2,Ontime,short,j,1,1.9067,6,0,24,2,1,,,,,
,0.03,,,,,,,,,j,red,5f11f98efbaf2b0ef855ec6b,2021-09-27_17h10.33.199,forced_choiceRT_color,2021.2.3,MacIntel,59.99880002,,,,,,,,2,Ontime,short,j,1,1.9053,6,1,25,2,1,,,,,
,0.67,,,,,,,,,d,orange,5f11f98efbaf2b0ef855ec6b,2021-09-27_17h10.33.199,forced_choiceRT_color,2021.2.3,MacIntel,59.99880002,,,,,,,,2,Ontime,short,d,1,1.9005,6,2,26,0,1,,,,,
,1.33,,,,,,,,,j,red,5f11f98efbaf2b0ef855ec6b,2021-09-27_17h10.33.199,forced_choiceRT_color,2021.2.3,MacIntel,59.99880002,,,,,,,,2,Fast,short,j,1,1.8669,6,3,27,2,1,,,,,
,0.42,,,,,,,,,k,purple,5f11f98efbaf2b0ef855ec6b,2021-09-27_17h10.33.199,forced_choiceRT_color,2021.2.3,MacIntel,59.99880002,,,,,,,,2,Ontime,short,k,1,1.9281,7,0,28,3,1,,,,,
,1.35,,,,,,,,,d,orange,5f11f98efbaf2b0ef855ec6b,2021-09-27_17h10.33.199,forced_choiceRT_color,2021.2.3,MacIntel,59.99880002,,,,,,,,2,Ontime,short,j,0,1.958,7,1,29,0,1,,,,,
,1,,,,,,,,,k,purple,5f11f98efbaf2b0ef855ec6b,2021-09-27_17h10.33.199,forced_choiceRT_color,2021.2.3,MacIntel,59.99880002,,,,,,,,2,Fast,short,k,1,1.8863,7,2,30,3,1,,,,,
,1.7,,,,,,,,,k,purple,5f11f98efbaf2b0ef855ec6b,2021-09-27_17h10.33.199,forced_choiceRT_color,2021.2.3,MacIntel,59.99880002,,,,,,,,2,Ontime,short,k,1,2.0199,7,3,31,3,1,,,,,
,0.29,,,,,,,,,j,red,5f11f98efbaf2b0ef855ec6b,2021-09-27_17h10.33.199,forced_choiceRT_color,2021.2.3,MacIntel,59.99880002,,,,,,,,2,Ontime,short,j,1,2.0512,8,0,32,2,1,,,,,
,1.82,,,,,,,,,j,red,5f11f98efbaf2b0ef855ec6b,2021-09-27_17h10.33.199,forced_choiceRT_color,2021.2.3,MacIntel,59.99880002,,,,,,,,2,Ontime,short,k,0,2.0828,8,1,33,2,1,,,,,
,1.45,,,,,,,,,d,orange,5f11f98efbaf2b0ef855ec6b,2021-09-27_17h10.33.199,forced_choiceRT_color,2021.2.3,MacIntel,59.99880002,,,,,,,,2,Ontime,short,d,1,2.0532,8,2,34,0,1,,,,,
,0.86,,,,,,,,,k,purple,5f11f98efbaf2b0ef855ec6b,2021-09-27_17h10.33.199,forced_choiceRT_color,2021.2.3,MacIntel,59.99880002,,,,,,,,2,Ontime,short,k,1,2.0548,8,3,35,3,1,,,,,
,1.19,,,,,,,,,d,orange,5f11f98efbaf2b0ef855ec6b,2021-09-27_17h10.33.199,forced_choiceRT_color,2021.2.3,MacIntel,59.99880002,,,,,,,,2,Ontime,short,d,1,2.0835,9,0,36,0,1,,,,,
,0.7,,,,,,,,,f,blue,5f11f98efbaf2b0ef855ec6b,2021-09-27_17h10.33.199,forced_choiceRT_color,2021.2.3,MacIntel,59.99880002,,,,,,,,2,Ontime,short,f,1,2.0745,9,1,37,1,1,,,,,
,0.88,,,,,,,,,f,blue,5f11f98efbaf2b0ef855ec6b,2021-09-27_17h10.33.199,forced_choiceRT_color,2021.2.3,MacIntel,59.99880002,,,,,,,,2,Ontime,short,f,1,2.0085,9,2,38,1,1,,,,,
,1.57,,,,,,,,,d,orange,5f11f98efbaf2b0ef855ec6b,2021-09-27_17h10.33.199,forced_choiceRT_color,2021.2.3,MacIntel,59.99880002,,,,,,,,2,Ontime,short,j,0,2.0409,9,3,39,0,1,,,,,
,,,,,,,,,,,,5f11f98efbaf2b0ef855ec6b,2021-09-27_17h10.33.199,forced_choiceRT_color,2021.2.3,MacIntel,59.99880002,,,,,,,,,,,,,,,,,,,1,0,1,0,1
,1.97,,,,,,,,,j,red,5f11f98efbaf2b0ef855ec6b,2021-09-27_17h10.33.199,forced_choiceRT_color,2021.2.3,MacIntel,59.99880002,,,,,,,,3,Slow,short,d,0,2.1652,0,0,0,2,1,,,,,
,0.96,,,,,,,,,j,red,5f11f98efbaf2b0ef855ec6b,2021-09-27_17h10.33.199,forced_choiceRT_color,2021.2.3,MacIntel,59.99880002,,,,,,,,3,Ontime,short,d,0,2.0173,0,1,1,2,1,,,,,
,0.32,,,,,,,,,d,orange,5f11f98efbaf2b0ef855ec6b,2021-09-27_17h10.33.199,forced_choiceRT_color,2021.2.3,MacIntel,59.99880002,,,,,,,,3,Ontime,short,d,1,1.998,0,2,2,0,1,,,,,
,1.97,,,,,,,,,d,orange,5f11f98efbaf2b0ef855ec6b,2021-09-27_17h10.33.199,forced_choiceRT_color,2021.2.3,MacIntel,59.99880002,,,,,,,,3,Ontime,short,f,0,2.0354,0,3,3,0,1,,,,,
,1.16,,,,,,,,,k,purple,5f11f98efbaf2b0ef855ec6b,2021-09-27_17h10.33.199,forced_choiceRT_color,2021.2.3,MacIntel,59.99880002,,,,,,,,3,Ontime,short,k,1,1.9516,1,0,4,3,1,,,,,
,1.27,,,,,,,,,j,red,5f11f98efbaf2b0ef855ec6b,2021-09-27_17h10.33.199,forced_choiceRT_color,2021.2.3,MacIntel,59.99880002,,,,,,,,3,Ontime,short,f,0,1.9567,1,1,5,2,1,,,,,
,0.81,,,,,,,,,d,orange,5f11f98efbaf2b0ef855ec6b,2021-09-27_17h10.33.199,forced_choiceRT_color,2021.2.3,MacIntel,59.99880002,,,,,,,,3,Ontime,short,d,1,2.0327,1,2,6,0,1,,,,,
,1.34,,,,,,,,,f,blue,5f11f98efbaf2b0ef855ec6b,2021-09-27_17h10.33.199,forced_choiceRT_color,2021.2.3,MacIntel,59.99880002,,,,,,,,3,Ontime,short,j,0,1.9853,1,3,7,1,1,,,,,
,1.04,,,,,,,,,f,blue,5f11f98efbaf2b0ef855ec6b,2021-09-27_17h10.33.199,forced_choiceRT_color,2021.2.3,MacIntel,59.99880002,,,,,,,,3,Ontime,short,f,1,1.9015,2,0,8,1,1,,,,,
,1.35,,,,,,,,,f,blue,5f11f98efbaf2b0ef855ec6b,2021-09-27_17h10.33.199,forced_choiceRT_color,2021.2.3,MacIntel,59.99880002,,,,,,,,3,Ontime,short,f,1,1.9512,2,1,9,1,1,,,,,
,1.3,,,,,,,,,f,blue,5f11f98efbaf2b0ef855ec6b,2021-09-27_17h10.33.199,forced_choiceRT_color,2021.2.3,MacIntel,59.99880002,,,,,,,,3,Fast,short,f,1,1.8598,2,2,10,1,1,,,,,
,0.66,,,,,,,,,k,purple,5f11f98efbaf2b0ef855ec6b,2021-09-27_17h10.33.199,forced_choiceRT_color,2021.2.3,MacIntel,59.99880002,,,,,,,,3,Ontime,short,k,1,1.9171,2,3,11,3,1,,,,,
,0.9,,,,,,,,,d,orange,5f11f98efbaf2b0ef855ec6b,2021-09-27_17h10.33.199,forced_choiceRT_color,2021.2.3,MacIntel,59.99880002,,,,,,,,3,Fast,short,f,0,1.8886,3,0,12,0,1,,,,,
,0.76,,,,,,,,,f,blue,5f11f98efbaf2b0ef855ec6b,2021-09-27_17h10.33.199,forced_choiceRT_color,2021.2.3,MacIntel,59.99880002,,,,,,,,3,Fast,short,j,0,1.8713,3,1,13,1,1,,,,,
,1.79,,,,,,,,,d,orange,5f11f98efbaf2b0ef855ec6b,2021-09-27_17h10.33.199,forced_choiceRT_color,2021.2.3,MacIntel,59.99880002,,,,,,,,3,Ontime,short,f,0,2.0848,3,2,14,0,1,,,,,
,1.17,,,,,,,,,f,blue,5f11f98efbaf2b0ef855ec6b,2021-09-27_17h10.33.199,forced_choiceRT_color,2021.2.3,MacIntel,59.99880002,,,,,,,,3,Ontime,short,f,1,2.0143,3,3,15,1,1,,,,,
,1.03,,,,,,,,,j,red,5f11f98efbaf2b0ef855ec6b,2021-09-27_17h10.33.199,forced_choiceRT_color,2021.2.3,MacIntel,59.99880002,,,,,,,,3,Ontime,short,j,1,1.9837,4,0,16,2,1,,,,,
,1.16,,,,,,,,,j,red,5f11f98efbaf2b0ef855ec6b,2021-09-27_17h10.33.199,forced_choiceRT_color,2021.2.3,MacIntel,59.99880002,,,,,,,,3,Ontime,short,j,1,2.0493,4,1,17,2,1,,,,,
,0.43,,,,,,,,,d,orange,5f11f98efbaf2b0ef855ec6b,2021-09-27_17h10.33.199,forced_choiceRT_color,2021.2.3,MacIntel,59.99880002,,,,,,,,3,Ontime,short,d,1,2.0066,4,2,18,0,1,,,,,
,1.8,,,,,,,,,j,red,5f11f98efbaf2b0ef855ec6b,2021-09-27_17h10.33.199,forced_choiceRT_color,2021.2.3,MacIntel,59.99880002,,,,,,,,3,Ontime,short,j,1,2.0852,4,3,19,2,1,,,,,
,0.07,,,,,,,,,f,blue,5f11f98efbaf2b0ef855ec6b,2021-09-27_17h10.33.199,forced_choiceRT_color,2021.2.3,MacIntel,59.99880002,,,,,,,,3,Ontime,short,f,1,1.939,5,0,20,1,1,,,,,
,1.61,,,,,,,,,k,purple,5f11f98efbaf2b0ef855ec6b,2021-09-27_17h10.33.199,forced_choiceRT_color,2021.2.3,MacIntel,59.99880002,,,,,,,,3,Ontime,short,k,1,1.9172,5,1,21,3,1,,,,,
,0.37,,,,,,,,,j,red,5f11f98efbaf2b0ef855ec6b,2021-09-27_17h10.33.199,forced_choiceRT_color,2021.2.3,MacIntel,59.99880002,,,,,,,,3,Ontime,short,f,0,1.9047,5,2,22,2,1,,,,,
,1.12,,,,,,,,,k,purple,5f11f98efbaf2b0ef855ec6b,2021-09-27_17h10.33.199,forced_choiceRT_color,2021.2.3,MacIntel,59.99880002,,,,,,,,3,Ontime,short,k,1,1.991,5,3,23,3,1,,,,,
,1.29,,,,,,,,,d,orange,5f11f98efbaf2b0ef855ec6b,2021-09-27_17h10.33.199,forced_choiceRT_color,2021.2.3,MacIntel,59.99880002,,,,,,,,3,Ontime,short,d,1,2.0902,6,0,24,0,1,,,,,
,1.74,,,,,,,,,k,purple,5f11f98efbaf2b0ef855ec6b,2021-09-27_17h10.33.199,forced_choiceRT_color,2021.2.3,MacIntel,59.99880002,,,,,,,,3,Ontime,short,j,0,1.9509,6,1,25,3,1,,,,,
,0.81,,,,,,,,,j,red,5f11f98efbaf2b0ef855ec6b,2021-09-27_17h10.33.199,forced_choiceRT_color,2021.2.3,MacIntel,59.99880002,,,,,,,,3,Ontime,short,f,0,1.9037,6,2,26,2,1,,,,,
,0.85,,,,,,,,,k,purple,5f11f98efbaf2b0ef855ec6b,2021-09-27_17h10.33.199,forced_choiceRT_color,2021.2.3,MacIntel,59.99880002,,,,,,,,3,Ontime,short,k,1,2.0006,6,3,27,3,1,,,,,
,0.55,,,,,,,,,k,purple,5f11f98efbaf2b0ef855ec6b,2021-09-27_17h10.33.199,forced_choiceRT_color,2021.2.3,MacIntel,59.99880002,,,,,,,,3,Ontime,short,k,1,1.9884,7,0,28,3,1,,,,,
,1.15,,,,,,,,,d,orange,5f11f98efbaf2b0ef855ec6b,2021-09-27_17h10.33.199,forced_choiceRT_color,2021.2.3,MacIntel,59.99880002,,,,,,,,3,Ontime,short,d,1,1.9519,7,1,29,0,1,,,,,
,1.51,,,,,,,,,k,purple,5f11f98efbaf2b0ef855ec6b,2021-09-27_17h10.33.199,forced_choiceRT_color,2021.2.3,MacIntel,59.99880002,,,,,,,,3,Ontime,short,k,1,2.0844,7,2,30,3,1,,,,,
,0.28,,,,,,,,,d,orange,5f11f98efbaf2b0ef855ec6b,2021-09-27_17h10.33.199,forced_choiceRT_color,2021.2.3,MacIntel,59.99880002,,,,,,,,3,Ontime,short,d,1,1.9678,7,3,31,0,1,,,,,
,1.9,,,,,,,,,f,blue,5f11f98efbaf2b0ef855ec6b,2021-09-27_17h10.33.199,forced_choiceRT_color,2021.2.3,MacIntel,59.99880002,,,,,,,,3,Slow,short,k,0,2.1872,8,0,32,1,1,,,,,
,1.5,,,,,,,,,k,purple,5f11f98efbaf2b0ef855ec6b,2021-09-27_17h10.33.199,forced_choiceRT_color,2021.2.3,MacIntel,59.99880002,,,,,,,,3,Ontime,short,d,0,2.0057,8,1,33,3,1,,,,,
,1.75,,,,,,,,,k,purple,5f11f98efbaf2b0ef855ec6b,2021-09-27_17h10.33.199,forced_choiceRT_color,2021.2.3,MacIntel,59.99880002,,,,,,,,3,Ontime,short,f,0,2.0338,8,2,34,3,1,,,,,
,0.1,,,,,,,,,j,red,5f11f98efbaf2b0ef855ec6b,2021-09-27_17h10.33.199,forced_choiceRT_color,2021.2.3,MacIntel,59.99880002,,,,,,,,3,Fast,short,j,1,1.8938,8,3,35,2,1,,,,,
,0.47,,,,,,,,,f,blue,5f11f98efbaf2b0ef855ec6b,2021-09-27_17h10.33.199,forced_choiceRT_color,2021.2.3,MacIntel,59.99880002,,,,,,,,3,Ontime,short,j,0,1.9888,9,0,36,1,1,,,,,
,0.97,,,,,,,,,d,orange,5f11f98efbaf2b0ef855ec6b,2021-09-27_17h10.33.199,forced_choiceRT_color,2021.2.3,MacIntel,59.99880002,,,,,,,,3,Ontime,short,d,1,1.9593,9,1,37,0,1,,,,,
,0.75,,,,,,,,,f,blue,5f11f98efbaf2b0ef855ec6b,2021-09-27_17h10.33.199,forced_choiceRT_color,2021.2.3,MacIntel,59.99880002,,,,,,,,3,Ontime,short,f,1,1.9893,9,2,38,1,1,,,,,
,1.5,,,,,,,,,j,red,5f11f98efbaf2b0ef855ec6b,2021-09-27_17h10.33.199,forced_choiceRT_color,2021.2.3,MacIntel,59.99880002,,,,,,,,3,Ontime,short,j,1,1.9611,9,3,39,2,1,,,,,
,,,,,,,,,,,,5f11f98efbaf2b0ef855ec6b,2021-09-27_17h10.33.199,forced_choiceRT_color,2021.2.3,MacIntel,59.99880002,,,,,,,,,,,,,,,,,,,2,0,2,0,1
,1.48,,,,,,,,,d,orange,5f11f98efbaf2b0ef855ec6b,2021-09-27_17h10.33.199,forced_choiceRT_color,2021.2.3,MacIntel,59.99880002,,,,,,,,4,Ontime,short,f,0,1.9822,0,0,0,0,1,,,,,
,0.61,,,,,,,,,j,red,5f11f98efbaf2b0ef855ec6b,2021-09-27_17h10.33.199,forced_choiceRT_color,2021.2.3,MacIntel,59.99880002,,,,,,,,4,Ontime,short,f,0,1.9529,0,1,1,2,1,,,,,
,1.73,,,,,,,,,j,red,5f11f98efbaf2b0ef855ec6b,2021-09-27_17h10.33.199,forced_choiceRT_color,2021.2.3,MacIntel,59.99880002,,,,,,,,4,Ontime,short,f,0,2.044,0,2,2,2,1,,,,,
,1.06,,,,,,,,,d,orange,5f11f98efbaf2b0ef855ec6b,2021-09-27_17h10.33.199,forced_choiceRT_color,2021.2.3,MacIntel,59.99880002,,,,,,,,4,Ontime,short,d,1,1.9172,0,3,3,0,1,,,,,
,0.72,,,,,,,,,j,red,5f11f98efbaf2b0ef855ec6b,2021-09-27_17h10.33.199,forced_choiceRT_color,2021.2.3,MacIntel,59.99880002,,,,,,,,4,Ontime,short,j,1,2.0013,1,0,4,2,1,,,,,
,1.54,,,,,,,,,j,red,5f11f98efbaf2b0ef855ec6b,2021-09-27_17h10.33.199,forced_choiceRT_color,2021.2.3,MacIntel,59.99880002,,,,,,,,4,Ontime,short,j,1,1.9893,1,1,5,2,1,,,,,
,1.59,,,,,,,,,d,orange,5f11f98efbaf2b0ef855ec6b,2021-09-27_17h10.33.199,forced_choiceRT_color,2021.2.3,MacIntel,59.99880002,,,,,,,,4,Ontime,short,k,0,2.0079,1,2,6,0,1,,,,,
,0.06,,,,,,,,,d,orange,5f11f98efbaf2b0ef855ec6b,2021-09-27_17h10.33.199,forced_choiceRT_color,2021.2.3,MacIntel,59.99880002,,,,,,,,4,Ontime,short,d,1,1.9175,1,3,7,0,1,,,,,
,0.86,,,,,,,,,d,orange,5f11f98efbaf2b0ef855ec6b,2021-09-27_17h10.33.199,forced_choiceRT_color,2021.2.3,MacIntel,59.99880002,,,,,,,,4,Ontime,short,d,1,1.9414,2,0,8,0,1,,,,,
,0,,,,,,,,,f,blue,5f11f98efbaf2b0ef855ec6b,2021-09-27_17h10.33.199,forced_choiceRT_color,2021.2.3,MacIntel,59.99880002,,,,,,,,4,Ontime,short,f,1,1.9408,2,1,9,1,1,,,,,
,1.32,,,,,,,,,f,blue,5f11f98efbaf2b0ef855ec6b,2021-09-27_17h10.33.199,forced_choiceRT_color,2021.2.3,MacIntel,59.99880002,,,,,,,,4,Ontime,short,f,1,2.0567,2,2,10,1,1,,,,,
,0.21,,,,,,,,,j,red,5f11f98efbaf2b0ef855ec6b,2021-09-27_17h10.33.199,forced_choiceRT_color,2021.2.3,MacIntel,59.99880002,,,,,,,,4,Ontime,short,j,1,1.9015,2,3,11,2,1,,,,,
,0.9,,,,,,,,,f,blue,5f11f98efbaf2b0ef855ec6b,2021-09-27_17h10.33.199,forced_choiceRT_color,2021.2.3,MacIntel,59.99880002,,,,,,,,4,Slow,short,d,0,2.2818,3,0,12,1,1,,,,,
,1.29,,,,,,,,,k,purple,5f11f98efbaf2b0ef855ec6b,2021-09-27_17h10.33.199,forced_choiceRT_color,2021.2.3,MacIntel,59.99880002,,,,,,,,4,Ontime,short,k,1,2.0757,3,1,13,3,1,,,,,
,0.05,,,,,,,,,j,red,5f11f98efbaf2b0ef855ec6b,2021-09-27_17h10.33.199,forced_choiceRT_color,2021.2.3,MacIntel,59.99880002,,,,,,,,4,Fast,short,j,1,1.89,3,2,14,2,1,,,,,
,0.24,,,,,,,,,f,blue,5f11f98efbaf2b0ef855ec6b,2021-09-27_17h10.33.199,forced_choiceRT_color,2021.2.3,MacIntel,59.99880002,,,,,,,,4,Fast,short,f,1,1.8198,3,3,15,1,1,,,,,
,0.54,,,,,,,,,k,purple,5f11f98efbaf2b0ef855ec6b,2021-09-27_17h10.33.199,forced_choiceRT_color,2021.2.3,MacIntel,59.99880002,,,,,,,,4,Ontime,short,k,1,2.0177,4,0,16,3,1,,,,,
,1.59,,,,,,,,,j,red,5f11f98efbaf2b0ef855ec6b,2021-09-27_17h10.33.199,forced_choiceRT_color,2021.2.3,MacIntel,59.99880002,,,,,,,,4,Slow,short,j,1,2.1391,4,1,17,2,1,,,,,
,0.21,,,,,,,,,f,blue,5f11f98efbaf2b0ef855ec6b,2021-09-27_17h10.33.199,forced_choiceRT_color,2021.2.3,MacIntel,59.99880002,,,,,,,,4,Ontime,short,f,1,1.9836,4,2,18,1,1,,,,,
,1.06,,,,,,,,,j,red,5f11f98efbaf2b0ef855ec6b,2021-09-27_17h10.33.199,forced_choiceRT_color,2021.2.3,MacIntel,59.99880002,,,,,,,,4,Ontime,short,j,1,2.0153,4,3,19,2,1,,,,,
,1.23,,,,,,,,,d,orange,5f11f98efbaf2b0ef855ec6b,2021-09-27_17h10.33.199,forced_choiceRT_color,2021.2.3,MacIntel,59.99880002,,,,,,,,4,Ontime,short,k,0,2.0263,5,0,20,0,1,,,,,
,0.6,,,,,,,,,f,blue,5f11f98efbaf2b0ef855ec6b,2021-09-27_17h10.33.199,forced_choiceRT_color,2021.2.3,MacIntel,59.99880002,,,,,,,,4,Ontime,short,f,1,1.9197,5,1,21,1,1,,,,,
,1.78,,,,,,,,,j,red,5f11f98efbaf2b0ef855ec6b,2021-09-27_17h10.33.199,forced_choiceRT_color,2021.2.3,MacIntel,59.99880002,,,,,,,,4,Ontime,short,d,0,2.0175,5,2,22,2,1,,,,,
,0.92,,,,,,,,,d,orange,5f11f98efbaf2b0ef855ec6b,2021-09-27_17h10.33.199,forced_choiceRT_color,2021.2.3,MacIntel,59.99880002,,,,,,,,4,Ontime,short,d,1,1.9706,5,3,23,0,1,,,,,
,1.13,,,,,,,,,k,purple,5f11f98efbaf2b0ef855ec6b,2021-09-27_17h10.33.199,forced_choiceRT_color,2021.2.3,MacIntel,59.99880002,,,,,,,,4,Ontime,short,k,1,1.9362,6,0,24,3,1,,,,,
,1.28,,,,,,,,,f,blue,5f11f98efbaf2b0ef855ec6b,2021-09-27_17h10.33.199,forced_choiceRT_color,2021.2.3,MacIntel,59.99880002,,,,,,,,4,Ontime,short,f,1,1.9505,6,1,25,1,1,,,,,
,1.28,,,,,,,,,d,orange,5f11f98efbaf2b0ef855ec6b,2021-09-27_17h10.33.199,forced_choiceRT_color,2021.2.3,MacIntel,59.99880002,,,,,,,,4,Fast,short,f,0,1.855,6,2,26,0,1,,,,,
,0.57,,,,,,,,,k,purple,5f11f98efbaf2b0ef855ec6b,2021-09-27_17h10.33.199,forced_choiceRT_color,2021.2.3,MacIntel,59.99880002,,,,,,,,4,Ontime,short,k,1,1.9016,6,3,27,3,1,,,,,
,1.72,,,,,,,,,k,purple,5f11f98efbaf2b0ef855ec6b,2021-09-27_17h10.33.199,forced_choiceRT_color,2021.2.3,MacIntel,59.99880002,,,,,,,,4,Ontime,short,j,0,1.9981,7,0,28,3,1,,,,,
,1.43,,,,,,,,,d,orange,5f11f98efbaf2b0ef855ec6b,2021-09-27_17h10.33.199,forced_choiceRT_color,2021.2.3,MacIntel,59.99880002,,,,,,,,4,Ontime,short,f,0,1.9012,7,1,29,0,1,,,,,
,1.68,,,,,,,,,j,red,5f11f98efbaf2b0ef855ec6b,2021-09-27_17h10.33.199,forced_choiceRT_color,2021.2.3,MacIntel,59.99880002,,,,,,,,4,Ontime,short,j,1,2.0548,7,2,30,2,1,,,,,
,0.83,,,,,,,,,k,purple,5f11f98efbaf2b0ef855ec6b,2021-09-27_17h10.33.199,forced_choiceRT_color,2021.2.3,MacIntel,59.99880002,,,,,,,,4,Ontime,short,k,1,1.9176,7,3,31,3,1,,,,,
,0.01,,,,,,,,,k,purple,5f11f98efbaf2b0ef855ec6b,2021-09-27_17h10.33.199,forced_choiceRT_color,2021.2.3,MacIntel,59.99880002,,,,,,,,4,Ontime,short,k,1,1.912,8,0,32,3,1,,,,,
,1.06,,,,,,,,,f,blue,5f11f98efbaf2b0ef855ec6b,2021-09-27_17h10.33.199,forced_choiceRT_color,2021.2.3,MacIntel,59.99880002,,,,,,,,4,Ontime,short,f,1,2.0086,8,1,33,1,1,,,,,
,1.49,,,,,,,,,k,purple,5f11f98efbaf2b0ef855ec6b,2021-09-27_17h10.33.199,forced_choiceRT_color,2021.2.3,MacIntel,59.99880002,,,,,,,,4,Ontime,short,j,0,1.9627,8,2,34,3,1,,,,,
,1.77,,,,,,,,,f,blue,5f11f98efbaf2b0ef855ec6b,2021-09-27_17h10.33.199,forced_choiceRT_color,2021.2.3,MacIntel,59.99880002,,,,,,,,4,Ontime,short,k,0,2.0512,8,3,35,1,1,,,,,
,1.38,,,,,,,,,f,blue,5f11f98efbaf2b0ef855ec6b,2021-09-27_17h10.33.199,forced_choiceRT_color,2021.2.3,MacIntel,59.99880002,,,,,,,,4,Fast,short,f,1,1.8844,9,0,36,1,1,,,,,
,1.32,,,,,,,,,k,purple,5f11f98efbaf2b0ef855ec6b,2021-09-27_17h10.33.199,forced_choiceRT_color,2021.2.3,MacIntel,59.99880002,,,,,,,,4,Fast,short,f,0,1.8714,9,1,37,3,1,,,,,
,0.41,,,,,,,,,k,purple,5f11f98efbaf2b0ef855ec6b,2021-09-27_17h10.33.199,forced_choiceRT_color,2021.2.3,MacIntel,59.99880002,,,,,,,,4,Fast,short,k,1,1.8692,9,2,38,3,1,,,,,
,0.63,,,,,,,,,d,orange,5f11f98efbaf2b0ef855ec6b,2021-09-27_17h10.33.199,forced_choiceRT_color,2021.2.3,MacIntel,59.99880002,,,,,,,,4,Ontime,short,d,1,1.9489,9,3,39,0,1,,,,,
,,,,,,,,,,,,5f11f98efbaf2b0ef855ec6b,2021-09-27_17h10.33.199,forced_choiceRT_color,2021.2.3,MacIntel,59.99880002,,,,,,,,,,,,,,,,,,,3,0,3,0,1
,0.96,,,,,,,,,f,blue,5f11f98efbaf2b0ef855ec6b,2021-09-27_17h10.33.199,forced_choiceRT_color,2021.2.3,MacIntel,59.99880002,,,,,,,,5,Ontime,short,j,0,2.0846,0,0,0,1,1,,,,,
,1.84,,,,,,,,,f,blue,5f11f98efbaf2b0ef855ec6b,2021-09-27_17h10.33.199,forced_choiceRT_color,2021.2.3,MacIntel,59.99880002,,,,,,,,5,Slow,short,f,1,2.1067,0,1,1,1,1,,,,,
,1.53,,,,,,,,,f,blue,5f11f98efbaf2b0ef855ec6b,2021-09-27_17h10.33.199,forced_choiceRT_color,2021.2.3,MacIntel,59.99880002,,,,,,,,5,Ontime,short,f,1,2.0594,0,2,2,1,1,,,,,
,0.21,,,,,,,,,j,red,5f11f98efbaf2b0ef855ec6b,2021-09-27_17h10.33.199,forced_choiceRT_color,2021.2.3,MacIntel,59.99880002,,,,,,,,5,Ontime,short,j,1,1.9766,0,3,3,2,1,,,,,
,0.79,,,,,,,,,k,purple,5f11f98efbaf2b0ef855ec6b,2021-09-27_17h10.33.199,forced_choiceRT_color,2021.2.3,MacIntel,59.99880002,,,,,,,,5,Ontime,short,k,1,2.008,1,0,4,3,1,,,,,
,1.18,,,,,,,,,j,red,5f11f98efbaf2b0ef855ec6b,2021-09-27_17h10.33.199,forced_choiceRT_color,2021.2.3,MacIntel,59.99880002,,,,,,,,5,Ontime,short,j,1,2.0017,1,1,5,2,1,,,,,
,0.65,,,,,,,,,k,purple,5f11f98efbaf2b0ef855ec6b,2021-09-27_17h10.33.199,forced_choiceRT_color,2021.2.3,MacIntel,59.99880002,,,,,,,,5,Ontime,short,k,1,2.0346,1,2,6,3,1,,,,,
,1.78,,,,,,,,,k,purple,5f11f98efbaf2b0ef855ec6b,2021-09-27_17h10.33.199,forced_choiceRT_color,2021.2.3,MacIntel,59.99880002,,,,,,,,5,Ontime,short,k,1,2.0502,1,3,7,3,1,,,,,
,1.43,,,,,,,,,j,red,5f11f98efbaf2b0ef855ec6b,2021-09-27_17h10.33.199,forced_choiceRT_color,2021.2.3,MacIntel,59.99880002,,,,,,,,5,Ontime,short,j,1,1.9573,2,0,8,2,1,,,,,
,0.49,,,,,,,,,d,orange,5f11f98efbaf2b0ef855ec6b,2021-09-27_17h10.33.199,forced_choiceRT_color,2021.2.3,MacIntel,59.99880002,,,,,,,,5,Ontime,short,d,1,1.9228,2,1,9,0,1,,,,,
,0.88,,,,,,,,,k,purple,5f11f98efbaf2b0ef855ec6b,2021-09-27_17h10.33.199,forced_choiceRT_color,2021.2.3,MacIntel,59.99880002,,,,,,,,5,Ontime,short,k,1,1.9406,2,2,10,3,1,,,,,
,0.02,,,,,,,,,j,red,5f11f98efbaf2b0ef855ec6b,2021-09-27_17h10.33.199,forced_choiceRT_color,2021.2.3,MacIntel,59.99880002,,,,,,,,5,Ontime,short,j,1,1.9438,2,3,11,2,1,,,,,
,0.73,,,,,,,,,k,purple,5f11f98efbaf2b0ef855ec6b,2021-09-27_17h10.33.199,forced_choiceRT_color,2021.2.3,MacIntel,59.99880002,,,,,,,,5,Fast,short,k,1,1.8612,3,0,12,3,1,,,,,
,1.83,,,,,,,,,d,orange,5f11f98efbaf2b0ef855ec6b,2021-09-27_17h10.33.199,forced_choiceRT_color,2021.2.3,MacIntel,59.99880002,,,,,,,,5,Ontime,short,k,0,2.0661,3,1,13,0,1,,,,,
,0.47,,,,,,,,,f,blue,5f11f98efbaf2b0ef855ec6b,2021-09-27_17h10.33.199,forced_choiceRT_color,2021.2.3,MacIntel,59.99880002,,,,,,,,5,Ontime,short,f,1,1.9231,3,2,14,1,1,,,,,
,1.73,,,,,,,,,d,orange,5f11f98efbaf2b0ef855ec6b,2021-09-27_17h10.33.199,forced_choiceRT_color,2021.2.3,MacIntel,59.99880002,,,,,,,,5,Ontime,short,j,0,2.0003,3,3,15,0,1,,,,,
,1.35,,,,,,,,,f,blue,5f11f98efbaf2b0ef855ec6b,2021-09-27_17h10.33.199,forced_choiceRT_color,2021.2.3,MacIntel,59.99880002,,,,,,,,5,Ontime,short,f,1,2.0653,4,0,16,1,1,,,,,
,1.92,,,,,,,,,d,orange,5f11f98efbaf2b0ef855ec6b,2021-09-27_17h10.33.199,forced_choiceRT_color,2021.2.3,MacIntel,59.99880002,,,,,,,,5,Slow,short,j,0,2.1061,4,1,17,0,1,,,,,
,1.2,,,,,,,,,f,blue,5f11f98efbaf2b0ef855ec6b,2021-09-27_17h10.33.199,forced_choiceRT_color,2021.2.3,MacIntel,59.99880002,,,,,,,,5,Ontime,short,f,1,1.9902,4,2,18,1,1,,,,,
,0.13,,,,,,,,,d,orange,5f11f98efbaf2b0ef855ec6b,2021-09-27_17h10.33.199,forced_choiceRT_color,2021.2.3,MacIntel,59.99880002,,,,,,,,5,Ontime,short,d,1,1.9166,4,3,19,0,1,,,,,
,1.85,,,,,,,,,d,orange,5f11f98efbaf2b0ef855ec6b,2021-09-27_17h10.33.199,forced_choiceRT_color,2021.2.3,MacIntel,59.99880002,,,,,,,,5,Ontime,short,j,0,2.0332,5,0,20,0,1,,,,,
,0.7,,,,,,,,,k,purple,5f11f98efbaf2b0ef855ec6b,2021-09-27_17h10.33.199,forced_choiceRT_color,2021.2.3,MacIntel,59.99880002,,,,,,,,5,Ontime,short,k,1,1.9391,5,1,21,3,1,,,,,
,0.76,,,,,,,,,j,red,5f11f98efbaf2b0ef855ec6b,2021-09-27_17h10.33.199,forced_choiceRT_color,2021.2.3,MacIntel,59.99880002,,,,,,,,5,Fast,short,j,1,1.8694,5,2,22,2,1,,,,,
,1.01,,,,,,,,,d,orange,5f11f98efbaf2b0ef855ec6b,2021-09-27_17h10.33.199,forced_choiceRT_color,2021.2.3,MacIntel,59.99880002,,,,,,,,5,Ontime,short,d,1,1.9291,5,3,23,0,1,,,,,
,0.22,,,,,,,,,f,blue,5f11f98efbaf2b0ef855ec6b,2021-09-27_17h10.33.199,forced_choiceRT_color,2021.2.3,MacIntel,59.99880002,,,,,,,,5,Ontime,short,f,1,1.904,6,0,24,1,1,,,,,
,0,,,,,,,,,f,blue,5f11f98efbaf2b0ef855ec6b,2021-09-27_17h10.33.199,forced_choiceRT_color,2021.2.3,MacIntel,59.99880002,,,,,,,,5,Fast,short,f,1,1.8721,6,1,25,1,1,,,,,
,0.43,,,,,,,,,k,purple,5f11f98efbaf2b0ef855ec6b,2021-09-27_17h10.33.199,forced_choiceRT_color,2021.2.3,MacIntel,59.99880002,,,,,,,,5,Ontime,short,k,1,1.9844,6,2,26,3,1,,,,,
,0.21,,,,,,,,,f,blue,5f11f98efbaf2b0ef855ec6b,2021-09-27_17h10.33.199,forced_choiceRT_color,2021.2.3,MacIntel,59.99880002,,,,,,,,5,Ontime,short,f,1,1.9425,6,3,27,1,1,,,,,
,0.71,,,,,,,,,j,red,5f11f98efbaf2b0ef855ec6b,2021-09-27_17h10.33.199,forced_choiceRT_color,2021.2.3,MacIntel,59.99880002,,,,,,,,5,Ontime,short,j,1,2.0187,7,0,28,2,1,,,,,
,0.61,,,,,,,,,k,purple,5f11f98efbaf2b0ef855ec6b,2021-09-27_17h10.33.199,forced_choiceRT_color,2021.2.3,MacIntel,59.99880002,,,,,,,,5,Fast,short,k,1,1.886,7,1,29,3,1,,,,,
,1.12,,,,,,,,,k,purple,5f11f98efbaf2b0ef855ec6b,2021-09-27_17h10.33.199,forced_choiceRT_color,2021.2.3,MacIntel,59.99880002,,,,,,,,5,Ontime,short,k,1,1.9916,7,2,30,3,1,,,,,
,1.16,,,,,,,,,d,orange,5f11f98efbaf2b0ef855ec6b,2021-09-27_17h10.33.199,forced_choiceRT_color,2021.2.3,MacIntel,59.99880002,,,,,,,,5,Ontime,short,d,1,2.0166,7,3,31,0,1,,,,,
,1.25,,,,,,,,,j,red,5f11f98efbaf2b0ef855ec6b,2021-09-27_17h10.33.199,forced_choiceRT_color,2021.2.3,MacIntel,59.99880002,,,,,,,,5,Ontime,short,f,0,1.903,8,0,32,2,1,,,,,
,0.47,,,,,,,,,j,red,5f11f98efbaf2b0ef855ec6b,2021-09-27_17h10.33.199,forced_choiceRT_color,2021.2.3,MacIntel,59.99880002,,,,,,,,5,Ontime,short,j,1,2.0214,8,1,33,2,1,,,,,
,1.37,,,,,,,,,k,purple,5f11f98efbaf2b0ef855ec6b,2021-09-27_17h10.33.199,forced_choiceRT_color,2021.2.3,MacIntel,59.99880002,,,,,,,,5,Ontime,short,k,1,1.9582,8,2,34,3,1,,,,,
,0.17,,,,,,,,,d,orange,5f11f98efbaf2b0ef855ec6b,2021-09-27_17h10.33.199,forced_choiceRT_color,2021.2.3,MacIntel,59.99880002,,,,,,,,5,Fast,short,d,1,1.8364,8,3,35,0,1,,,,,
,1.77,,,,,,,,,d,orange,5f11f98efbaf2b0ef855ec6b,2021-09-27_17h10.33.199,forced_choiceRT_color,2021.2.3,MacIntel,59.99880002,,,,,,,,5,Ontime,short,j,0,2.0755,9,0,36,0,1,,,,,
,1.49,,,,,,,,,j,red,5f11f98efbaf2b0ef855ec6b,2021-09-27_17h10.33.199,forced_choiceRT_color,2021.2.3,MacIntel,59.99880002,,,,,,,,5,Ontime,short,j,1,2.0975,9,1,37,2,1,,,,,
,0.75,,,,,,,,,f,blue,5f11f98efbaf2b0ef855ec6b,2021-09-27_17h10.33.199,forced_choiceRT_color,2021.2.3,MacIntel,59.99880002,,,,,,,,5,Ontime,short,f,1,1.9887,9,2,38,1,1,,,,,
,1,,,,,,,,,j,red,5f11f98efbaf2b0ef855ec6b,2021-09-27_17h10.33.199,forced_choiceRT_color,2021.2.3,MacIntel,59.99880002,,,,,,,,5,Ontime,short,j,1,1.961,9,3,39,2,1,,,,,
,,,,,,,,,,,,5f11f98efbaf2b0ef855ec6b,2021-09-27_17h10.33.199,forced_choiceRT_color,2021.2.3,MacIntel,59.99880002,,,,,,,,,,,,,,,,,,,4,0,4,0,1
,0.79,,,,,,,,,j,red,5f11f98efbaf2b0ef855ec6b,2021-09-27_17h10.33.199,forced_choiceRT_color,2021.2.3,MacIntel,59.99880002,,,,,,,,6,Fast,short,j,1,1.5665,0,0,0,2,1,,,,,
,0.97,,,,,,,,,d,orange,5f11f98efbaf2b0ef855ec6b,2021-09-27_17h10.33.199,forced_choiceRT_color,2021.2.3,MacIntel,59.99880002,,,,,,,,6,Ontime,short,d,1,2.0746,0,1,1,0,1,,,,,
,1.46,,,,,,,,,d,orange,5f11f98efbaf2b0ef855ec6b,2021-09-27_17h10.33.199,forced_choiceRT_color,2021.2.3,MacIntel,59.99880002,,,,,,,,6,Ontime,short,d,1,2.0422,0,2,2,0,1,,,,,
,0.8,,,,,,,,,k,purple,5f11f98efbaf2b0ef855ec6b,2021-09-27_17h10.33.199,forced_choiceRT_color,2021.2.3,MacIntel,59.99880002,,,,,,,,6,Ontime,short,k,1,1.9439,0,3,3,3,1,,,,,
,1.89,,,,,,,,,f,blue,5f11f98efbaf2b0ef855ec6b,2021-09-27_17h10.33.199,forced_choiceRT_color,2021.2.3,MacIntel,59.99880002,,,,,,,,6,Ontime,short,k,0,1.9831,1,0,4,1,1,,,,,
,1.62,,,,,,,,,f,blue,5f11f98efbaf2b0ef855ec6b,2021-09-27_17h10.33.199,forced_choiceRT_color,2021.2.3,MacIntel,59.99880002,,,,,,,,6,Ontime,short,f,1,2.0365,1,1,5,1,1,,,,,
,1.22,,,,,,,,,f,blue,5f11f98efbaf2b0ef855ec6b,2021-09-27_17h10.33.199,forced_choiceRT_color,2021.2.3,MacIntel,59.99880002,,,,,,,,6,Ontime,short,f,1,2.0232,1,2,6,1,1,,,,,
,1.02,,,,,,,,,j,red,5f11f98efbaf2b0ef855ec6b,2021-09-27_17h10.33.199,forced_choiceRT_color,2021.2.3,MacIntel,59.99880002,,,,,,,,6,Ontime,short,j,1,1.9885,1,3,7,2,1,,,,,
,0.67,,,,,,,,,f,blue,5f11f98efbaf2b0ef855ec6b,2021-09-27_17h10.33.199,forced_choiceRT_color,2021.2.3,MacIntel,59.99880002,,,,,,,,6,Slow,short,f,1,2.1014,2,0,8,1,1,,,,,
,1.51,,,,,,,,,d,orange,5f11f98efbaf2b0ef855ec6b,2021-09-27_17h10.33.199,forced_choiceRT_color,2021.2.3,MacIntel,59.99880002,,,,,,,,6,Slow,short,d,1,2.1729,2,1,9,0,1,,,,,
,0.62,,,,,,,,,f,blue,5f11f98efbaf2b0ef855ec6b,2021-09-27_17h10.33.199,forced_choiceRT_color,2021.2.3,MacIntel,59.99880002,,,,,,,,6,Ontime,short,f,1,2.0094,2,2,10,1,1,,,,,
,1.37,,,,,,,,,f,blue,5f11f98efbaf2b0ef855ec6b,2021-09-27_17h10.33.199,forced_choiceRT_color,2021.2.3,MacIntel,59.99880002,,,,,,,,6,Ontime,short,f,1,2.0591,2,3,11,1,1,,,,,
,0.62,,,,,,,,,d,orange,5f11f98efbaf2b0ef855ec6b,2021-09-27_17h10.33.199,forced_choiceRT_color,2021.2.3,MacIntel,59.99880002,,,,,,,,6,Ontime,short,d,1,2.0509,3,0,12,0,1,,,,,
,0.59,,,,,,,,,k,purple,5f11f98efbaf2b0ef855ec6b,2021-09-27_17h10.33.199,forced_choiceRT_color,2021.2.3,MacIntel,59.99880002,,,,,,,,6,Ontime,short,k,1,1.9548,3,1,13,3,1,,,,,
,1.51,,,,,,,,,d,orange,5f11f98efbaf2b0ef855ec6b,2021-09-27_17h10.33.199,forced_choiceRT_color,2021.2.3,MacIntel,59.99880002,,,,,,,,6,Ontime,short,f,0,2.0397,3,2,14,0,1,,,,,
,0.09,,,,,,,,,f,blue,5f11f98efbaf2b0ef855ec6b,2021-09-27_17h10.33.199,forced_choiceRT_color,2021.2.3,MacIntel,59.99880002,,,,,,,,6,Fast,short,f,1,1.5518,3,3,15,1,1,,,,,
,0.08,,,,,,,,,d,orange,5f11f98efbaf2b0ef855ec6b,2021-09-27_17h10.33.199,forced_choiceRT_color,2021.2.3,MacIntel,59.99880002,,,,,,,,6,Ontime,short,d,1,2.0362,4,0,16,0,1,,,,,
,0.77,,,,,,,,,d,orange,5f11f98efbaf2b0ef855ec6b,2021-09-27_17h10.33.199,forced_choiceRT_color,2021.2.3,MacIntel,59.99880002,,,,,,,,6,Slow,short,d,1,2.1999,4,1,17,0,1,,,,,
,0.83,,,,,,,,,k,purple,5f11f98efbaf2b0ef855ec6b,2021-09-27_17h10.33.199,forced_choiceRT_color,2021.2.3,MacIntel,59.99880002,,,,,,,,6,Ontime,short,k,1,1.9727,4,2,18,3,1,,,,,
,1.03,,,,,,,,,j,red,5f11f98efbaf2b0ef855ec6b,2021-09-27_17h10.33.199,forced_choiceRT_color,2021.2.3,MacIntel,59.99880002,,,,,,,,6,Ontime,short,j,1,1.9184,4,3,19,2,1,,,,,
,1.83,,,,,,,,,j,red,5f11f98efbaf2b0ef855ec6b,2021-09-27_17h10.33.199,forced_choiceRT_color,2021.2.3,MacIntel,59.99880002,,,,,,,,6,Slow,short,f,0,2.1338,5,0,20,2,1,,,,,
,0.69,,,,,,,,,j,red,5f11f98efbaf2b0ef855ec6b,2021-09-27_17h10.33.199,forced_choiceRT_color,2021.2.3,MacIntel,59.99880002,,,,,,,,6,Ontime,short,j,1,1.9087,5,1,21,2,1,,,,,
,0.21,,,,,,,,,f,blue,5f11f98efbaf2b0ef855ec6b,2021-09-27_17h10.33.199,forced_choiceRT_color,2021.2.3,MacIntel,59.99880002,,,,,,,,6,Ontime,short,f,1,1.9666,5,2,22,1,1,,,,,
,0,,,,,,,,,k,purple,5f11f98efbaf2b0ef855ec6b,2021-09-27_17h10.33.199,forced_choiceRT_color,2021.2.3,MacIntel,59.99880002,,,,,,,,6,Ontime,short,k,1,1.9704,5,3,23,3,1,,,,,
,0.73,,,,,,,,,d,orange,5f11f98efbaf2b0ef855ec6b,2021-09-27_17h10.33.199,forced_choiceRT_color,2021.2.3,MacIntel,59.99880002,,,,,,,,6,Ontime,short,d,1,2.0506,6,0,24,0,1,,,,,
,0.69,,,,,,,,,f,blue,5f11f98efbaf2b0ef855ec6b,2021-09-27_17h10.33.199,forced_choiceRT_color,2021.2.3,MacIntel,59.99880002,,,,,,,,6,Ontime,short,f,1,1.9169,6,1,25,1,1,,,,,
,1.48,,,,,,,,,j,red,5f11f98efbaf2b0ef855ec6b,2021-09-27_17h10.33.199,forced_choiceRT_color,2021.2.3,MacIntel,59.99880002,,,,,,,,6,Ontime,short,j,1,2.0183,6,2,26,2,1,,,,,
,0.33,,,,,,,,,k,purple,5f11f98efbaf2b0ef855ec6b,2021-09-27_17h10.33.199,forced_choiceRT_color,2021.2.3,MacIntel,59.99880002,,,,,,,,6,Ontime,short,k,1,1.9279,6,3,27,3,1,,,,,
,0.17,,,,,,,,,f,blue,5f11f98efbaf2b0ef855ec6b,2021-09-27_17h10.33.199,forced_choiceRT_color,2021.2.3,MacIntel,59.99880002,,,,,,,,6,Ontime,short,f,1,2.0086,7,0,28,1,1,,,,,
,0.09,,,,,,,,,k,purple,5f11f98efbaf2b0ef855ec6b,2021-09-27_17h10.33.199,forced_choiceRT_color,2021.2.3,MacIntel,59.99880002,,,,,,,,6,Ontime,short,k,1,2.0341,7,1,29,3,1,,,,,
,0.34,,,,,,,,,j,red,5f11f98efbaf2b0ef855ec6b,2021-09-27_17h10.33.199,forced_choiceRT_color,2021.2.3,MacIntel,59.99880002,,,,,,,,6,Ontime,short,j,1,2.0347,7,2,30,2,1,,,,,
,0.47,,,,,,,,,j,red,5f11f98efbaf2b0ef855ec6b,2021-09-27_17h10.33.199,forced_choiceRT_color,2021.2.3,MacIntel,59.99880002,,,,,,,,6,Ontime,short,j,1,2.0028,7,3,31,2,1,,,,,
,1.13,,,,,,,,,j,red,5f11f98efbaf2b0ef855ec6b,2021-09-27_17h10.33.199,forced_choiceRT_color,2021.2.3,MacIntel,59.99880002,,,,,,,,6,Ontime,short,j,1,2.0063,8,0,32,2,1,,,,,
,0.84,,,,,,,,,d,orange,5f11f98efbaf2b0ef855ec6b,2021-09-27_17h10.33.199,forced_choiceRT_color,2021.2.3,MacIntel,59.99880002,,,,,,,,6,Slow,short,d,1,2.2086,8,1,33,0,1,,,,,
,1.08,,,,,,,,,k,purple,5f11f98efbaf2b0ef855ec6b,2021-09-27_17h10.33.199,forced_choiceRT_color,2021.2.3,MacIntel,59.99880002,,,,,,,,6,Ontime,short,k,1,2.051,8,2,34,3,1,,,,,
,1.44,,,,,,,,,d,orange,5f11f98efbaf2b0ef855ec6b,2021-09-27_17h10.33.199,forced_choiceRT_color,2021.2.3,MacIntel,59.99880002,,,,,,,,6,Ontime,short,d,1,2.0834,8,3,35,0,1,,,,,
,0.52,,,,,,,,,k,purple,5f11f98efbaf2b0ef855ec6b,2021-09-27_17h10.33.199,forced_choiceRT_color,2021.2.3,MacIntel,59.99880002,,,,,,,,6,Ontime,short,k,1,1.9929,9,0,36,3,1,,,,,
,0.17,,,,,,,,,k,purple,5f11f98efbaf2b0ef855ec6b,2021-09-27_17h10.33.199,forced_choiceRT_color,2021.2.3,MacIntel,59.99880002,,,,,,,,6,Ontime,short,k,1,2.0343,9,1,37,3,1,,,,,
,0.71,,,,,,,,,k,purple,5f11f98efbaf2b0ef855ec6b,2021-09-27_17h10.33.199,forced_choiceRT_color,2021.2.3,MacIntel,59.99880002,,,,,,,,6,Ontime,short,k,1,2.0188,9,2,38,3,1,,,,,
,0.97,,,,,,,,,j,red,5f11f98efbaf2b0ef855ec6b,2021-09-27_17h10.33.199,forced_choiceRT_color,2021.2.3,MacIntel,59.99880002,,,,,,,,6,Ontime,short,j,1,2.0084,9,3,39,2,1,,,,,
,,,,,,,,,,,,5f11f98efbaf2b0ef855ec6b,2021-09-27_17h10.33.199,forced_choiceRT_color,2021.2.3,MacIntel,59.99880002,,,,,,,,,,,,,,,,,,,5,0,5,0,1
,1.09,,,,,,,,,j,red,5f11f98efbaf2b0ef855ec6b,2021-09-27_17h10.33.199,forced_choiceRT_color,2021.2.3,MacIntel,59.99880002,,,,,,,,7,Ontime,short,j,1,2.0086,0,0,0,2,1,,,,,
,0.45,,,,,,,,,j,red,5f11f98efbaf2b0ef855ec6b,2021-09-27_17h10.33.199,forced_choiceRT_color,2021.2.3,MacIntel,59.99880002,,,,,,,,7,Ontime,short,j,1,1.9842,0,1,1,2,1,,,,,
,1.79,,,,,,,,,j,red,5f11f98efbaf2b0ef855ec6b,2021-09-27_17h10.33.199,forced_choiceRT_color,2021.2.3,MacIntel,59.99880002,,,,,,,,7,Ontime,short,j,1,2.0327,0,2,2,2,1,,,,,
,1.02,,,,,,,,,k,purple,5f11f98efbaf2b0ef855ec6b,2021-09-27_17h10.33.199,forced_choiceRT_color,2021.2.3,MacIntel,59.99880002,,,,,,,,7,Ontime,short,k,1,1.999,0,3,3,3,1,,,,,
,0.3,,,,,,,,,k,purple,5f11f98efbaf2b0ef855ec6b,2021-09-27_17h10.33.199,forced_choiceRT_color,2021.2.3,MacIntel,59.99880002,,,,,,,,7,Ontime,short,k,1,1.917,1,0,4,3,1,,,,,
,1.78,,,,,,,,,d,orange,5f11f98efbaf2b0ef855ec6b,2021-09-27_17h10.33.199,forced_choiceRT_color,2021.2.3,MacIntel,59.99880002,,,,,,,,7,Ontime,short,k,0,2.0558,1,1,5,0,1,,,,,
,0.27,,,,,,,,,f,blue,5f11f98efbaf2b0ef855ec6b,2021-09-27_17h10.33.199,forced_choiceRT_color,2021.2.3,MacIntel,59.99880002,,,,,,,,7,Ontime,short,f,1,1.9151,1,2,6,1,1,,,,,
,1.24,,,,,,,,,k,purple,5f11f98efbaf2b0ef855ec6b,2021-09-27_17h10.33.199,forced_choiceRT_color,2021.2.3,MacIntel,59.99880002,,,,,,,,7,Ontime,short,k,1,1.9362,1,3,7,3,1,,,,,
,1.42,,,,,,,,,f,blue,5f11f98efbaf2b0ef855ec6b,2021-09-27_17h10.33.199,forced_choiceRT_color,2021.2.3,MacIntel,59.99880002,,,,,,,,7,Ontime,short,j,0,2.0339,2,0,8,1,1,,,,,
,1.96,,,,,,,,,d,orange,5f11f98efbaf2b0ef855ec6b,2021-09-27_17h10.33.199,forced_choiceRT_color,2021.2.3,MacIntel,59.99880002,,,,,,,,7,Slow,short,j,0,2.1967,2,1,9,0,1,,,,,
,1.14,,,,,,,,,f,blue,5f11f98efbaf2b0ef855ec6b,2021-09-27_17h10.33.199,forced_choiceRT_color,2021.2.3,MacIntel,59.99880002,,,,,,,,7,Ontime,short,f,1,1.9223,2,2,10,1,1,,,,,
,1.97,,,,,,,,,d,orange,5f11f98efbaf2b0ef855ec6b,2021-09-27_17h10.33.199,forced_choiceRT_color,2021.2.3,MacIntel,59.99880002,,,,,,,,7,Slow,short,d,1,2.1546,2,3,11,0,1,,,,,
,0.53,,,,,,,,,k,purple,5f11f98efbaf2b0ef855ec6b,2021-09-27_17h10.33.199,forced_choiceRT_color,2021.2.3,MacIntel,59.99880002,,,,,,,,7,Ontime,short,k,1,2.0212,3,0,12,3,1,,,,,
,1.73,,,,,,,,,j,red,5f11f98efbaf2b0ef855ec6b,2021-09-27_17h10.33.199,forced_choiceRT_color,2021.2.3,MacIntel,59.99880002,,,,,,,,7,Ontime,short,f,0,2.0827,3,1,13,2,1,,,,,
,1.07,,,,,,,,,k,purple,5f11f98efbaf2b0ef855ec6b,2021-09-27_17h10.33.199,forced_choiceRT_color,2021.2.3,MacIntel,59.99880002,,,,,,,,7,Ontime,short,k,1,2.0339,3,2,14,3,1,,,,,
,0.33,,,,,,,,,j,red,5f11f98efbaf2b0ef855ec6b,2021-09-27_17h10.33.199,forced_choiceRT_color,2021.2.3,MacIntel,59.99880002,,,,,,,,7,Ontime,short,j,1,2.0029,3,3,15,2,1,,,,,
,1.55,,,,,,,,,d,orange,5f11f98efbaf2b0ef855ec6b,2021-09-27_17h10.33.199,forced_choiceRT_color,2021.2.3,MacIntel,59.99880002,,,,,,,,7,Slow,short,d,1,2.1429,4,0,16,0,1,,,,,
,0.62,,,,,,,,,j,red,5f11f98efbaf2b0ef855ec6b,2021-09-27_17h10.33.199,forced_choiceRT_color,2021.2.3,MacIntel,59.99880002,,,,,,,,7,Ontime,short,j,1,1.923,4,1,17,2,1,,,,,
,1.66,,,,,,,,,k,purple,5f11f98efbaf2b0ef855ec6b,2021-09-27_17h10.33.199,forced_choiceRT_color,2021.2.3,MacIntel,59.99880002,,,,,,,,7,Slow,short,k,1,2.2212,4,2,18,3,1,,,,,
,1.52,,,,,,,,,f,blue,5f11f98efbaf2b0ef855ec6b,2021-09-27_17h10.33.199,forced_choiceRT_color,2021.2.3,MacIntel,59.99880002,,,,,,,,7,Slow,short,k,0,2.151,4,3,19,1,1,,,,,
,0.81,,,,,,,,,j,red,5f11f98efbaf2b0ef855ec6b,2021-09-27_17h10.33.199,forced_choiceRT_color,2021.2.3,MacIntel,59.99880002,,,,,,,,7,Ontime,short,j,1,1.904,5,0,20,2,1,,,,,
,1.05,,,,,,,,,f,blue,5f11f98efbaf2b0ef855ec6b,2021-09-27_17h10.33.199,forced_choiceRT_color,2021.2.3,MacIntel,59.99880002,,,,,,,,7,Ontime,short,f,1,2.0884,5,1,21,1,1,,,,,
,1.52,,,,,,,,,j,red,5f11f98efbaf2b0ef855ec6b,2021-09-27_17h10.33.199,forced_choiceRT_color,2021.2.3,MacIntel,59.99880002,,,,,,,,7,Ontime,short,j,1,2.0858,5,2,22,2,1,,,,,
,0.63,,,,,,,,,f,blue,5f11f98efbaf2b0ef855ec6b,2021-09-27_17h10.33.199,forced_choiceRT_color,2021.2.3,MacIntel,59.99880002,,,,,,,,7,Ontime,short,f,1,2.0186,5,3,23,1,1,,,,,
,1.19,,,,,,,,,k,purple,5f11f98efbaf2b0ef855ec6b,2021-09-27_17h10.33.199,forced_choiceRT_color,2021.2.3,MacIntel,59.99880002,,,,,,,,7,Ontime,short,k,1,2.0197,6,0,24,3,1,,,,,
,1.36,,,,,,,,,d,orange,5f11f98efbaf2b0ef855ec6b,2021-09-27_17h10.33.199,forced_choiceRT_color,2021.2.3,MacIntel,59.99880002,,,,,,,,7,Ontime,short,f,0,1.9372,6,1,25,0,1,,,,,
,1.18,,,,,,,,,f,blue,5f11f98efbaf2b0ef855ec6b,2021-09-27_17h10.33.199,forced_choiceRT_color,2021.2.3,MacIntel,59.99880002,,,,,,,,7,Ontime,short,f,1,1.9672,6,2,26,1,1,,,,,
,0.28,,,,,,,,,j,red,5f11f98efbaf2b0ef855ec6b,2021-09-27_17h10.33.199,forced_choiceRT_color,2021.2.3,MacIntel,59.99880002,,,,,,,,7,Ontime,short,j,1,1.9032,6,3,27,2,1,,,,,
,1.93,,,,,,,,,d,orange,5f11f98efbaf2b0ef855ec6b,2021-09-27_17h10.33.199,forced_choiceRT_color,2021.2.3,MacIntel,59.99880002,,,,,,,,7,Ontime,short,d,1,1.9672,7,0,28,0,1,,,,,
,0.22,,,,,,,,,j,red,5f11f98efbaf2b0ef855ec6b,2021-09-27_17h10.33.199,forced_choiceRT_color,2021.2.3,MacIntel,59.99880002,,,,,,,,7,Fast,short,j,1,1.807,7,1,29,2,1,,,,,
,0.7,,,,,,,,,k,purple,5f11f98efbaf2b0ef855ec6b,2021-09-27_17h10.33.199,forced_choiceRT_color,2021.2.3,MacIntel,59.99880002,,,,,,,,7,Fast,short,k,1,1.8281,7,2,30,3,1,,,,,
,1.2,,,,,,,,,d,orange,5f11f98efbaf2b0ef855ec6b,2021-09-27_17h10.33.199,forced_choiceRT_color,2021.2.3,MacIntel,59.99880002,,,,,,,,7,Fast,short,j,0,1.8722,7,3,31,0,1,,,,,
,0.16,,,,,,,,,d,orange,5f11f98efbaf2b0ef855ec6b,2021-09-27_17h10.33.199,forced_choiceRT_color,2021.2.3,MacIntel,59.99880002,,,,,,,,7,Fast,short,j,0,1.5556,8,0,32,0,1,,,,,
,1.01,,,,,,,,,d,orange,5f11f98efbaf2b0ef855ec6b,2021-09-27_17h10.33.199,forced_choiceRT_color,2021.2.3,MacIntel,59.99880002,,,,,,,,7,Ontime,short,d,1,1.9753,8,1,33,0,1,,,,,
,1.42,,,,,,,,,f,blue,5f11f98efbaf2b0ef855ec6b,2021-09-27_17h10.33.199,forced_choiceRT_color,2021.2.3,MacIntel,59.99880002,,,,,,,,7,Ontime,short,f,1,2.0239,8,2,34,1,1,,,,,
,1.91,,,,,,,,,f,blue,5f11f98efbaf2b0ef855ec6b,2021-09-27_17h10.33.199,forced_choiceRT_color,2021.2.3,MacIntel,59.99880002,,,,,,,,7,Ontime,short,j,0,1.9744,8,3,35,1,1,,,,,
,1.61,,,,,,,,,f,blue,5f11f98efbaf2b0ef855ec6b,2021-09-27_17h10.33.199,forced_choiceRT_color,2021.2.3,MacIntel,59.99880002,,,,,,,,7,Ontime,short,f,1,1.9231,9,0,36,1,1,,,,,
,0.61,,,,,,,,,d,orange,5f11f98efbaf2b0ef855ec6b,2021-09-27_17h10.33.199,forced_choiceRT_color,2021.2.3,MacIntel,59.99880002,,,,,,,,7,Fast,short,d,1,1.8365,9,1,37,0,1,,,,,
,0.74,,,,,,,,,k,purple,5f11f98efbaf2b0ef855ec6b,2021-09-27_17h10.33.199,forced_choiceRT_color,2021.2.3,MacIntel,59.99880002,,,,,,,,7,Fast,short,k,1,1.8484,9,2,38,3,1,,,,,
,1.72,,,,,,,,,k,purple,5f11f98efbaf2b0ef855ec6b,2021-09-27_17h10.33.199,forced_choiceRT_color,2021.2.3,MacIntel,59.99880002,,,,,,,,7,Ontime,short,k,1,2.0185,9,3,39,3,1,,,,,
,,,,,,,,,,,,5f11f98efbaf2b0ef855ec6b,2021-09-27_17h10.33.199,forced_choiceRT_color,2021.2.3,MacIntel,59.99880002,,,,,,,,,,,,,,,,,,,6,0,6,0,1
,1.94,,,,,,,,,d,orange,5f11f98efbaf2b0ef855ec6b,2021-09-27_17h10.33.199,forced_choiceRT_color,2021.2.3,MacIntel,59.99880002,,,,,,,,8,Ontime,short,f,0,2.0217,0,0,0,0,1,,,,,
,1.46,,,,,,,,,d,orange,5f11f98efbaf2b0ef855ec6b,2021-09-27_17h10.33.199,forced_choiceRT_color,2021.2.3,MacIntel,59.99880002,,,,,,,,8,Ontime,short,d,1,2.0527,0,1,1,0,1,,,,,
,1.76,,,,,,,,,j,red,5f11f98efbaf2b0ef855ec6b,2021-09-27_17h10.33.199,forced_choiceRT_color,2021.2.3,MacIntel,59.99880002,,,,,,,,8,Ontime,short,f,0,2.0163,0,2,2,2,1,,,,,
,0.79,,,,,,,,,j,red,5f11f98efbaf2b0ef855ec6b,2021-09-27_17h10.33.199,forced_choiceRT_color,2021.2.3,MacIntel,59.99880002,,,,,,,,8,Ontime,short,j,1,1.9095,0,3,3,2,1,,,,,
,0.43,,,,,,,,,d,orange,5f11f98efbaf2b0ef855ec6b,2021-09-27_17h10.33.199,forced_choiceRT_color,2021.2.3,MacIntel,59.99880002,,,,,,,,8,Ontime,short,d,1,1.9005,1,0,4,0,1,,,,,
,0.03,,,,,,,,,d,orange,5f11f98efbaf2b0ef855ec6b,2021-09-27_17h10.33.199,forced_choiceRT_color,2021.2.3,MacIntel,59.99880002,,,,,,,,8,Ontime,short,d,1,1.9107,1,1,5,0,1,,,,,
,0.88,,,,,,,,,f,blue,5f11f98efbaf2b0ef855ec6b,2021-09-27_17h10.33.199,forced_choiceRT_color,2021.2.3,MacIntel,59.99880002,,,,,,,,8,Ontime,short,f,1,1.9016,1,2,6,1,1,,,,,
,1.92,,,,,,,,,f,blue,5f11f98efbaf2b0ef855ec6b,2021-09-27_17h10.33.199,forced_choiceRT_color,2021.2.3,MacIntel,59.99880002,,,,,,,,8,Ontime,short,f,1,1.9697,1,3,7,1,1,,,,,
,0.38,,,,,,,,,j,red,5f11f98efbaf2b0ef855ec6b,2021-09-27_17h10.33.199,forced_choiceRT_color,2021.2.3,MacIntel,59.99880002,,,,,,,,8,Ontime,short,j,1,1.9082,2,0,8,2,1,,,,,
,0.01,,,,,,,,,k,purple,5f11f98efbaf2b0ef855ec6b,2021-09-27_17h10.33.199,forced_choiceRT_color,2021.2.3,MacIntel,59.99880002,,,,,,,,8,Ontime,short,k,1,1.907,2,1,9,3,1,,,,,
,0.03,,,,,,,,,d,orange,5f11f98efbaf2b0ef855ec6b,2021-09-27_17h10.33.199,forced_choiceRT_color,2021.2.3,MacIntel,59.99880002,,,,,,,,8,Fast,short,d,1,1.8666,2,2,10,0,1,,,,,
,0.99,,,,,,,,,d,orange,5f11f98efbaf2b0ef855ec6b,2021-09-27_17h10.33.199,forced_choiceRT_color,2021.2.3,MacIntel,59.99880002,,,,,,,,8,Ontime,short,d,1,1.9603,2,3,11,0,1,,,,,
,1.66,,,,,,,,,d,orange,5f11f98efbaf2b0ef855ec6b,2021-09-27_17h10.33.199,forced_choiceRT_color,2021.2.3,MacIntel,59.99880002,,,,,,,,8,Ontime,short,f,0,1.9532,3,0,12,0,1,,,,,
,1.83,,,,,,,,,k,purple,5f11f98efbaf2b0ef855ec6b,2021-09-27_17h10.33.199,forced_choiceRT_color,2021.2.3,MacIntel,59.99880002,,,,,,,,8,Ontime,short,d,0,2.0662,3,1,13,3,1,,,,,
,1.34,,,,,,,,,j,red,5f11f98efbaf2b0ef855ec6b,2021-09-27_17h10.33.199,forced_choiceRT_color,2021.2.3,MacIntel,59.99880002,,,,,,,,8,Fast,short,j,1,1.898,3,2,14,2,1,,,,,
,0.57,,,,,,,,,j,red,5f11f98efbaf2b0ef855ec6b,2021-09-27_17h10.33.199,forced_choiceRT_color,2021.2.3,MacIntel,59.99880002,,,,,,,,8,Ontime,short,j,1,1.932,3,3,15,2,1,,,,,
,1.32,,,,,,,,,j,red,5f11f98efbaf2b0ef855ec6b,2021-09-27_17h10.33.199,forced_choiceRT_color,2021.2.3,MacIntel,59.99880002,,,,,,,,8,Ontime,short,j,1,1.9669,4,0,16,2,1,,,,,
,1.87,,,,,,,,,k,purple,5f11f98efbaf2b0ef855ec6b,2021-09-27_17h10.33.199,forced_choiceRT_color,2021.2.3,MacIntel,59.99880002,,,,,,,,8,Ontime,short,f,0,2.0002,4,1,17,3,1,,,,,
,0.88,,,,,,,,,k,purple,5f11f98efbaf2b0ef855ec6b,2021-09-27_17h10.33.199,forced_choiceRT_color,2021.2.3,MacIntel,59.99880002,,,,,,,,8,Ontime,short,k,1,1.9331,4,2,18,3,1,,,,,
,1.36,,,,,,,,,f,blue,5f11f98efbaf2b0ef855ec6b,2021-09-27_17h10.33.199,forced_choiceRT_color,2021.2.3,MacIntel,59.99880002,,,,,,,,8,Ontime,short,j,0,1.9924,4,3,19,1,1,,,,,
,1.91,,,,,,,,,d,orange,5f11f98efbaf2b0ef855ec6b,2021-09-27_17h10.33.199,forced_choiceRT_color,2021.2.3,MacIntel,59.99880002,,,,,,,,8,Ontime,short,f,0,1.9016,5,0,20,0,1,,,,,
,0.57,,,,,,,,,f,blue,5f11f98efbaf2b0ef855ec6b,2021-09-27_17h10.33.199,forced_choiceRT_color,2021.2.3,MacIntel,59.99880002,,,,,,,,8,Ontime,short,f,1,1.9349,5,1,21,1,1,,,,,
,0.15,,,,,,,,,f,blue,5f11f98efbaf2b0ef855ec6b,2021-09-27_17h10.33.199,forced_choiceRT_color,2021.2.3,MacIntel,59.99880002,,,,,,,,8,Ontime,short,f,1,1.9761,5,2,22,1,1,,,,,
,0.63,,,,,,,,,f,blue,5f11f98efbaf2b0ef855ec6b,2021-09-27_17h10.33.199,forced_choiceRT_color,2021.2.3,MacIntel,59.99880002,,,,,,,,8,Ontime,short,f,1,1.9741,5,3,23,1,1,,,,,
,0.21,,,,,,,,,k,purple,5f11f98efbaf2b0ef855ec6b,2021-09-27_17h10.33.199,forced_choiceRT_color,2021.2.3,MacIntel,59.99880002,,,,,,,,8,Ontime,short,k,1,1.939,6,0,24,3,1,,,,,
,1.55,,,,,,,,,d,orange,5f11f98efbaf2b0ef855ec6b,2021-09-27_17h10.33.199,forced_choiceRT_color,2021.2.3,MacIntel,59.99880002,,,,,,,,8,Ontime,short,j,0,1.9646,6,1,25,0,1,,,,,
,1.43,,,,,,,,,j,red,5f11f98efbaf2b0ef855ec6b,2021-09-27_17h10.33.199,forced_choiceRT_color,2021.2.3,MacIntel,59.99880002,,,,,,,,8,Ontime,short,j,1,1.977,6,2,26,2,1,,,,,
,1.2,,,,,,,,,j,red,5f11f98efbaf2b0ef855ec6b,2021-09-27_17h10.33.199,forced_choiceRT_color,2021.2.3,MacIntel,59.99880002,,,,,,,,8,Ontime,short,j,1,1.9679,6,3,27,2,1,,,,,
,0,,,,,,,,,j,red,5f11f98efbaf2b0ef855ec6b,2021-09-27_17h10.33.199,forced_choiceRT_color,2021.2.3,MacIntel,59.99880002,,,,,,,,8,Ontime,short,j,1,1.9855,7,0,28,2,1,,,,,
,0.12,,,,,,,,,f,blue,5f11f98efbaf2b0ef855ec6b,2021-09-27_17h10.33.199,forced_choiceRT_color,2021.2.3,MacIntel,59.99880002,,,,,,,,8,Ontime,short,f,1,1.9034,7,1,29,1,1,,,,,
,1.43,,,,,,,,,f,blue,5f11f98efbaf2b0ef855ec6b,2021-09-27_17h10.33.199,forced_choiceRT_color,2021.2.3,MacIntel,59.99880002,,,,,,,,8,Ontime,short,f,1,2.0333,7,2,30,1,1,,,,,
,0.57,,,,,,,,,k,purple,5f11f98efbaf2b0ef855ec6b,2021-09-27_17h10.33.199,forced_choiceRT_color,2021.2.3,MacIntel,59.99880002,,,,,,,,8,Ontime,short,k,1,1.9918,7,3,31,3,1,,,,,
,0.32,,,,,,,,,k,purple,5f11f98efbaf2b0ef855ec6b,2021-09-27_17h10.33.199,forced_choiceRT_color,2021.2.3,MacIntel,59.99880002,,,,,,,,8,Ontime,short,k,1,2.0102,8,0,32,3,1,,,,,
,1.76,,,,,,,,,f,blue,5f11f98efbaf2b0ef855ec6b,2021-09-27_17h10.33.199,forced_choiceRT_color,2021.2.3,MacIntel,59.99880002,,,,,,,,8,Ontime,short,d,0,1.9839,8,1,33,1,1,,,,,
,1.06,,,,,,,,,k,purple,5f11f98efbaf2b0ef855ec6b,2021-09-27_17h10.33.199,forced_choiceRT_color,2021.2.3,MacIntel,59.99880002,,,,,,,,8,Ontime,short,k,1,1.9259,8,2,34,3,1,,,,,
,0.83,,,,,,,,,j,red,5f11f98efbaf2b0ef855ec6b,2021-09-27_17h10.33.199,forced_choiceRT_color,2021.2.3,MacIntel,59.99880002,,,,,,,,8,Ontime,short,j,1,1.9716,8,3,35,2,1,,,,,
,1.14,,,,,,,,,k,purple,5f11f98efbaf2b0ef855ec6b,2021-09-27_17h10.33.199,forced_choiceRT_color,2021.2.3,MacIntel,59.99880002,,,,,,,,8,Ontime,short,k,1,2.0197,9,0,36,3,1,,,,,
,0.98,,,,,,,,,d,orange,5f11f98efbaf2b0ef855ec6b,2021-09-27_17h10.33.199,forced_choiceRT_color,2021.2.3,MacIntel,59.99880002,,,,,,,,8,Ontime,short,d,1,1.9888,9,1,37,0,1,,,,,
,0.99,,,,,,,,,f,blue,5f11f98efbaf2b0ef855ec6b,2021-09-27_17h10.33.199,forced_choiceRT_color,2021.2.3,MacIntel,59.99880002,,,,,,,,8,Ontime,short,f,1,1.9949,9,2,38,1,1,,,,,
,1.4,,,,,,,,,k,purple,5f11f98efbaf2b0ef855ec6b,2021-09-27_17h10.33.199,forced_choiceRT_color,2021.2.3,MacIntel,59.99880002,,,,,,,,8,Ontime,short,j,0,1.9665,9,3,39,3,1,,,,,
,,,,,,,,,,,,5f11f98efbaf2b0ef855ec6b,2021-09-27_17h10.33.199,forced_choiceRT_color,2021.2.3,MacIntel,59.99880002,,,,,,,,,,,,,,,,,,,7,0,7,0,1
,0.39,,,,,,,,,k,purple,5f11f98efbaf2b0ef855ec6b,2021-09-27_17h10.33.199,forced_choiceRT_color,2021.2.3,MacIntel,59.99880002,,,,,,,,9,Ontime,short,k,1,1.9727,0,0,0,3,1,,,,,
,1.87,,,,,,,,,j,red,5f11f98efbaf2b0ef855ec6b,2021-09-27_17h10.33.199,forced_choiceRT_color,2021.2.3,MacIntel,59.99880002,,,,,,,,9,Ontime,short,j,1,1.992,0,1,1,2,1,,,,,
,1.37,,,,,,,,,k,purple,5f11f98efbaf2b0ef855ec6b,2021-09-27_17h10.33.199,forced_choiceRT_color,2021.2.3,MacIntel,59.99880002,,,,,,,,9,Ontime,short,k,1,1.9847,0,2,2,3,1,,,,,
,0.24,,,,,,,,,j,red,5f11f98efbaf2b0ef855ec6b,2021-09-27_17h10.33.199,forced_choiceRT_color,2021.2.3,MacIntel,59.99880002,,,,,,,,9,Ontime,short,j,1,1.9267,0,3,3,2,1,,,,,
,0.34,,,,,,,,,k,purple,5f11f98efbaf2b0ef855ec6b,2021-09-27_17h10.33.199,forced_choiceRT_color,2021.2.3,MacIntel,59.99880002,,,,,,,,9,Fast,short,k,1,1.8989,1,0,4,3,1,,,,,
,1.29,,,,,,,,,d,orange,5f11f98efbaf2b0ef855ec6b,2021-09-27_17h10.33.199,forced_choiceRT_color,2021.2.3,MacIntel,59.99880002,,,,,,,,9,Ontime,short,d,1,1.9146,1,1,5,0,1,,,,,
,1.28,,,,,,,,,k,purple,5f11f98efbaf2b0ef855ec6b,2021-09-27_17h10.33.199,forced_choiceRT_color,2021.2.3,MacIntel,59.99880002,,,,,,,,9,Fast,short,k,1,1.8992,1,2,6,3,1,,,,,
,0.02,,,,,,,,,f,blue,5f11f98efbaf2b0ef855ec6b,2021-09-27_17h10.33.199,forced_choiceRT_color,2021.2.3,MacIntel,59.99880002,,,,,,,,9,Ontime,short,f,1,1.9238,1,3,7,1,1,,,,,
,0.01,,,,,,,,,d,orange,5f11f98efbaf2b0ef855ec6b,2021-09-27_17h10.33.199,forced_choiceRT_color,2021.2.3,MacIntel,59.99880002,,,,,,,,9,Ontime,short,d,1,1.9372,2,0,8,0,1,,,,,
,0.82,,,,,,,,,d,orange,5f11f98efbaf2b0ef855ec6b,2021-09-27_17h10.33.199,forced_choiceRT_color,2021.2.3,MacIntel,59.99880002,,,,,,,,9,Ontime,short,d,1,1.934,2,1,9,0,1,,,,,
,1.09,,,,,,,,,j,red,5f11f98efbaf2b0ef855ec6b,2021-09-27_17h10.33.199,forced_choiceRT_color,2021.2.3,MacIntel,59.99880002,,,,,,,,9,Fast,short,j,1,1.8879,2,2,10,2,1,,,,,
,1.32,,,,,,,,,j,red,5f11f98efbaf2b0ef855ec6b,2021-09-27_17h10.33.199,forced_choiceRT_color,2021.2.3,MacIntel,59.99880002,,,,,,,,9,Ontime,short,j,1,1.9187,2,3,11,2,1,,,,,
,1.81,,,,,,,,,d,orange,5f11f98efbaf2b0ef855ec6b,2021-09-27_17h10.33.199,forced_choiceRT_color,2021.2.3,MacIntel,59.99880002,,,,,,,,9,Ontime,short,k,0,1.9896,3,0,12,0,1,,,,,
,0.06,,,,,,,,,d,orange,5f11f98efbaf2b0ef855ec6b,2021-09-27_17h10.33.199,forced_choiceRT_color,2021.2.3,MacIntel,59.99880002,,,,,,,,9,Ontime,short,d,1,1.9345,3,1,13,0,1,,,,,
,1.93,,,,,,,,,f,blue,5f11f98efbaf2b0ef855ec6b,2021-09-27_17h10.33.199,forced_choiceRT_color,2021.2.3,MacIntel,59.99880002,,,,,,,,9,Ontime,short,d,0,1.9839,3,2,14,1,1,,,,,
,1.91,,,,,,,,,k,purple,5f11f98efbaf2b0ef855ec6b,2021-09-27_17h10.33.199,forced_choiceRT_color,2021.2.3,MacIntel,59.99880002,,,,,,,,9,Ontime,short,f,0,1.921,3,3,15,3,1,,,,,
,0.3,,,,,,,,,j,red,5f11f98efbaf2b0ef855ec6b,2021-09-27_17h10.33.199,forced_choiceRT_color,2021.2.3,MacIntel,59.99880002,,,,,,,,9,Fast,short,j,1,1.8669,4,0,16,2,1,,,,,
,0.47,,,,,,,,,k,purple,5f11f98efbaf2b0ef855ec6b,2021-09-27_17h10.33.199,forced_choiceRT_color,2021.2.3,MacIntel,59.99880002,,,,,,,,9,Ontime,short,k,1,1.9174,4,1,17,3,1,,,,,
,0.29,,,,,,,,,f,blue,5f11f98efbaf2b0ef855ec6b,2021-09-27_17h10.33.199,forced_choiceRT_color,2021.2.3,MacIntel,59.99880002,,,,,,,,9,Ontime,short,f,1,1.9147,4,2,18,1,1,,,,,
,1.2,,,,,,,,,d,orange,5f11f98efbaf2b0ef855ec6b,2021-09-27_17h10.33.199,forced_choiceRT_color,2021.2.3,MacIntel,59.99880002,,,,,,,,9,Ontime,short,d,1,1.9935,4,3,19,0,1,,,,,
,0.03,,,,,,,,,f,blue,5f11f98efbaf2b0ef855ec6b,2021-09-27_17h10.33.199,forced_choiceRT_color,2021.2.3,MacIntel,59.99880002,,,,,,,,9,Ontime,short,f,1,1.9769,5,0,20,1,1,,,,,
,0.45,,,,,,,,,j,red,5f11f98efbaf2b0ef855ec6b,2021-09-27_17h10.33.199,forced_choiceRT_color,2021.2.3,MacIntel,59.99880002,,,,,,,,9,Fast,short,j,1,1.8721,5,1,21,2,1,,,,,
,0.21,,,,,,,,,k,purple,5f11f98efbaf2b0ef855ec6b,2021-09-27_17h10.33.199,forced_choiceRT_color,2021.2.3,MacIntel,59.99880002,,,,,,,,9,Ontime,short,k,1,1.9395,5,2,22,3,1,,,,,
,0.15,,,,,,,,,f,blue,5f11f98efbaf2b0ef855ec6b,2021-09-27_17h10.33.199,forced_choiceRT_color,2021.2.3,MacIntel,59.99880002,,,,,,,,9,Ontime,short,f,1,1.9324,5,3,23,1,1,,,,,
,1.9,,,,,,,,,d,orange,5f11f98efbaf2b0ef855ec6b,2021-09-27_17h10.33.199,forced_choiceRT_color,2021.2.3,MacIntel,59.99880002,,,,,,,,9,Ontime,short,f,0,1.9555,6,0,24,0,1,,,,,
,1.7,,,,,,,,,f,blue,5f11f98efbaf2b0ef855ec6b,2021-09-27_17h10.33.199,forced_choiceRT_color,2021.2.3,MacIntel,59.99880002,,,,,,,,9,Ontime,short,d,0,2.0373,6,1,25,1,1,,,,,
,1.92,,,,,,,,,j,red,5f11f98efbaf2b0ef855ec6b,2021-09-27_17h10.33.199,forced_choiceRT_color,2021.2.3,MacIntel,59.99880002,,,,,,,,9,Ontime,short,j,1,2.0337,6,2,26,2,1,,,,,
,1.99,,,,,,,,,j,red,5f11f98efbaf2b0ef855ec6b,2021-09-27_17h10.33.199,forced_choiceRT_color,2021.2.3,MacIntel,59.99880002,,,,,,,,9,Ontime,short,k,0,1.9494,6,3,27,2,1,,,,,
,0.55,,,,,,,,,j,red,5f11f98efbaf2b0ef855ec6b,2021-09-27_17h10.33.199,forced_choiceRT_color,2021.2.3,MacIntel,59.99880002,,,,,,,,9,Ontime,short,j,1,1.951,7,0,28,2,1,,,,,
,0.76,,,,,,,,,d,orange,5f11f98efbaf2b0ef855ec6b,2021-09-27_17h10.33.199,forced_choiceRT_color,2021.2.3,MacIntel,59.99880002,,,,,,,,9,Ontime,short,d,1,1.9021,7,1,29,0,1,,,,,
,0.09,,,,,,,,,f,blue,5f11f98efbaf2b0ef855ec6b,2021-09-27_17h10.33.199,forced_choiceRT_color,2021.2.3,MacIntel,59.99880002,,,,,,,,9,Ontime,short,f,1,1.9172,7,2,30,1,1,,,,,
,0.25,,,,,,,,,j,red,5f11f98efbaf2b0ef855ec6b,2021-09-27_17h10.33.199,forced_choiceRT_color,2021.2.3,MacIntel,59.99880002,,,,,,,,9,Ontime,short,j,1,1.9664,7,3,31,2,1,,,,,
,0.28,,,,,,,,,k,purple,5f11f98efbaf2b0ef855ec6b,2021-09-27_17h10.33.199,forced_choiceRT_color,2021.2.3,MacIntel,59.99880002,,,,,,,,9,Ontime,short,k,1,1.9203,8,0,32,3,1,,,,,
,1.5,,,,,,,,,k,purple,5f11f98efbaf2b0ef855ec6b,2021-09-27_17h10.33.199,forced_choiceRT_color,2021.2.3,MacIntel,59.99880002,,,,,,,,9,Ontime,short,j,0,2.0161,8,1,33,3,1,,,,,
,0.35,,,,,,,,,k,purple,5f11f98efbaf2b0ef855ec6b,2021-09-27_17h10.33.199,forced_choiceRT_color,2021.2.3,MacIntel,59.99880002,,,,,,,,9,Ontime,short,k,1,1.9223,8,2,34,3,1,,,,,
,1.68,,,,,,,,,f,blue,5f11f98efbaf2b0ef855ec6b,2021-09-27_17h10.33.199,forced_choiceRT_color,2021.2.3,MacIntel,59.99880002,,,,,,,,9,Ontime,short,j,0,2.0189,8,3,35,1,1,,,,,
,0.61,,,,,,,,,d,orange,5f11f98efbaf2b0ef855ec6b,2021-09-27_17h10.33.199,forced_choiceRT_color,2021.2.3,MacIntel,59.99880002,,,,,,,,9,Ontime,short,d,1,1.9625,9,0,36,0,1,,,,,
,1.38,,,,,,,,,f,blue,5f11f98efbaf2b0ef855ec6b,2021-09-27_17h10.33.199,forced_choiceRT_color,2021.2.3,MacIntel,59.99880002,,,,,,,,9,Ontime,short,f,1,2.0191,9,1,37,1,1,,,,,
,1.29,,,,,,,,,d,orange,5f11f98efbaf2b0ef855ec6b,2021-09-27_17h10.33.199,forced_choiceRT_color,2021.2.3,MacIntel,59.99880002,,,,,,,,9,Ontime,short,f,0,2.0196,9,2,38,0,1,,,,,
,1.48,,,,,,,,,f,blue,5f11f98efbaf2b0ef855ec6b,2021-09-27_17h10.33.199,forced_choiceRT_color,2021.2.3,MacIntel,59.99880002,,,,,,,,9,Ontime,short,f,1,1.9108,9,3,39,1,1,,,,,
,,,,,,,,,,,,5f11f98efbaf2b0ef855ec6b,2021-09-27_17h10.33.199,forced_choiceRT_color,2021.2.3,MacIntel,59.99880002,,,,,,,,,,,,,,,,,,,8,0,8,0,1
,1.72,,,,,,,,,d,orange,5f11f98efbaf2b0ef855ec6b,2021-09-27_17h10.33.199,forced_choiceRT_color,2021.2.3,MacIntel,59.99880002,,,,,,,,10,Fast,short,j,0,1.5681,0,0,0,0,1,,,,,
,1.55,,,,,,,,,d,orange,5f11f98efbaf2b0ef855ec6b,2021-09-27_17h10.33.199,forced_choiceRT_color,2021.2.3,MacIntel,59.99880002,,,,,,,,10,Ontime,short,d,1,1.9934,0,1,1,0,1,,,,,
,1.23,,,,,,,,,k,purple,5f11f98efbaf2b0ef855ec6b,2021-09-27_17h10.33.199,forced_choiceRT_color,2021.2.3,MacIntel,59.99880002,,,,,,,,10,Ontime,short,k,1,1.9324,0,2,2,3,1,,,,,
,0.57,,,,,,,,,j,red,5f11f98efbaf2b0ef855ec6b,2021-09-27_17h10.33.199,forced_choiceRT_color,2021.2.3,MacIntel,59.99880002,,,,,,,,10,Ontime,short,j,1,1.9096,0,3,3,2,1,,,,,
,1.14,,,,,,,,,j,red,5f11f98efbaf2b0ef855ec6b,2021-09-27_17h10.33.199,forced_choiceRT_color,2021.2.3,MacIntel,59.99880002,,,,,,,,10,Ontime,short,j,1,1.9184,1,0,4,2,1,,,,,
,1.21,,,,,,,,,j,red,5f11f98efbaf2b0ef855ec6b,2021-09-27_17h10.33.199,forced_choiceRT_color,2021.2.3,MacIntel,59.99880002,,,,,,,,10,Ontime,short,j,1,2.0278,1,1,5,2,1,,,,,
,0.37,,,,,,,,,f,blue,5f11f98efbaf2b0ef855ec6b,2021-09-27_17h10.33.199,forced_choiceRT_color,2021.2.3,MacIntel,59.99880002,,,,,,,,10,Ontime,short,f,1,1.9169,1,2,6,1,1,,,,,
,1.47,,,,,,,,,k,purple,5f11f98efbaf2b0ef855ec6b,2021-09-27_17h10.33.199,forced_choiceRT_color,2021.2.3,MacIntel,59.99880002,,,,,,,,10,Ontime,short,f,0,1.9394,1,3,7,3,1,,,,,
,0.54,,,,,,,,,f,blue,5f11f98efbaf2b0ef855ec6b,2021-09-27_17h10.33.199,forced_choiceRT_color,2021.2.3,MacIntel,59.99880002,,,,,,,,10,Ontime,short,f,1,1.94,2,0,8,1,1,,,,,
,1.08,,,,,,,,,k,purple,5f11f98efbaf2b0ef855ec6b,2021-09-27_17h10.33.199,forced_choiceRT_color,2021.2.3,MacIntel,59.99880002,,,,,,,,10,Ontime,short,k,1,1.9318,2,1,9,3,1,,,,,
,0.39,,,,,,,,,f,blue,5f11f98efbaf2b0ef855ec6b,2021-09-27_17h10.33.199,forced_choiceRT_color,2021.2.3,MacIntel,59.99880002,,,,,,,,10,Ontime,short,f,1,1.9176,2,2,10,1,1,,,,,
,0.63,,,,,,,,,f,blue,5f11f98efbaf2b0ef855ec6b,2021-09-27_17h10.33.199,forced_choiceRT_color,2021.2.3,MacIntel,59.99880002,,,,,,,,10,Ontime,short,f,1,1.9944,2,3,11,1,1,,,,,
,1.45,,,,,,,,,k,purple,5f11f98efbaf2b0ef855ec6b,2021-09-27_17h10.33.199,forced_choiceRT_color,2021.2.3,MacIntel,59.99880002,,,,,,,,10,Ontime,short,j,0,2.0063,3,0,12,3,1,,,,,
,0.02,,,,,,,,,k,purple,5f11f98efbaf2b0ef855ec6b,2021-09-27_17h10.33.199,forced_choiceRT_color,2021.2.3,MacIntel,59.99880002,,,,,,,,10,Ontime,short,k,1,1.9066,3,1,13,3,1,,,,,
,1.63,,,,,,,,,f,blue,5f11f98efbaf2b0ef855ec6b,2021-09-27_17h10.33.199,forced_choiceRT_color,2021.2.3,MacIntel,59.99880002,,,,,,,,10,Ontime,short,k,0,2.0836,3,2,14,1,1,,,,,
,0.98,,,,,,,,,d,orange,5f11f98efbaf2b0ef855ec6b,2021-09-27_17h10.33.199,forced_choiceRT_color,2021.2.3,MacIntel,59.99880002,,,,,,,,10,Ontime,short,d,1,1.9633,3,3,15,0,1,,,,,
,0.32,,,,,,,,,f,blue,5f11f98efbaf2b0ef855ec6b,2021-09-27_17h10.33.199,forced_choiceRT_color,2021.2.3,MacIntel,59.99880002,,,,,,,,10,Ontime,short,f,1,1.9057,4,0,16,1,1,,,,,
,0.52,,,,,,,,,k,purple,5f11f98efbaf2b0ef855ec6b,2021-09-27_17h10.33.199,forced_choiceRT_color,2021.2.3,MacIntel,59.99880002,,,,,,,,10,Ontime,short,k,1,1.975,4,1,17,3,1,,,,,
,0.16,,,,,,,,,d,orange,5f11f98efbaf2b0ef855ec6b,2021-09-27_17h10.33.199,forced_choiceRT_color,2021.2.3,MacIntel,59.99880002,,,,,,,,10,Fast,short,j,0,1.8881,4,2,18,0,1,,,,,
,1.42,,,,,,,,,k,purple,5f11f98efbaf2b0ef855ec6b,2021-09-27_17h10.33.199,forced_choiceRT_color,2021.2.3,MacIntel,59.99880002,,,,,,,,10,Fast,short,d,0,1.8927,4,3,19,3,1,,,,,
,1.71,,,,,,,,,j,red,5f11f98efbaf2b0ef855ec6b,2021-09-27_17h10.33.199,forced_choiceRT_color,2021.2.3,MacIntel,59.99880002,,,,,,,,10,Ontime,short,k,0,2.0267,5,0,20,2,1,,,,,
,1.33,,,,,,,,,j,red,5f11f98efbaf2b0ef855ec6b,2021-09-27_17h10.33.199,forced_choiceRT_color,2021.2.3,MacIntel,59.99880002,,,,,,,,10,Ontime,short,j,1,1.923,5,1,21,2,1,,,,,
,1.84,,,,,,,,,f,blue,5f11f98efbaf2b0ef855ec6b,2021-09-27_17h10.33.199,forced_choiceRT_color,2021.2.3,MacIntel,59.99880002,,,,,,,,10,Ontime,short,j,0,1.9926,5,2,22,1,1,,,,,
,0.67,,,,,,,,,j,red,5f11f98efbaf2b0ef855ec6b,2021-09-27_17h10.33.199,forced_choiceRT_color,2021.2.3,MacIntel,59.99880002,,,,,,,,10,Fast,short,j,1,1.8678,5,3,23,2,1,,,,,
,0.52,,,,,,,,,d,orange,5f11f98efbaf2b0ef855ec6b,2021-09-27_17h10.33.199,forced_choiceRT_color,2021.2.3,MacIntel,59.99880002,,,,,,,,10,Ontime,short,d,1,1.9349,6,0,24,0,1,,,,,
,0.27,,,,,,,,,d,orange,5f11f98efbaf2b0ef855ec6b,2021-09-27_17h10.33.199,forced_choiceRT_color,2021.2.3,MacIntel,59.99880002,,,,,,,,10,Fast,short,d,1,1.8661,6,1,25,0,1,,,,,
,1.03,,,,,,,,,j,red,5f11f98efbaf2b0ef855ec6b,2021-09-27_17h10.33.199,forced_choiceRT_color,2021.2.3,MacIntel,59.99880002,,,,,,,,10,Ontime,short,j,1,2.002,6,2,26,2,1,,,,,
,1.33,,,,,,,,,f,blue,5f11f98efbaf2b0ef855ec6b,2021-09-27_17h10.33.199,forced_choiceRT_color,2021.2.3,MacIntel,59.99880002,,,,,,,,10,Fast,short,f,1,1.8879,6,3,27,1,1,,,,,
,0.96,,,,,,,,,f,blue,5f11f98efbaf2b0ef855ec6b,2021-09-27_17h10.33.199,forced_choiceRT_color,2021.2.3,MacIntel,59.99880002,,,,,,,,10,Ontime,short,f,1,2.0008,7,0,28,1,1,,,,,
,1.93,,,,,,,,,j,red,5f11f98efbaf2b0ef855ec6b,2021-09-27_17h10.33.199,forced_choiceRT_color,2021.2.3,MacIntel,59.99880002,,,,,,,,10,Slow,short,j,1,2.1184,7,1,29,2,1,,,,,
,0.09,,,,,,,,,k,purple,5f11f98efbaf2b0ef855ec6b,2021-09-27_17h10.33.199,forced_choiceRT_color,2021.2.3,MacIntel,59.99880002,,,,,,,,10,Ontime,short,k,1,1.9755,7,2,30,3,1,,,,,
,1.28,,,,,,,,,f,blue,5f11f98efbaf2b0ef855ec6b,2021-09-27_17h10.33.199,forced_choiceRT_color,2021.2.3,MacIntel,59.99880002,,,,,,,,10,Ontime,short,k,0,2.0105,7,3,31,1,1,,,,,
,1.12,,,,,,,,,d,orange,5f11f98efbaf2b0ef855ec6b,2021-09-27_17h10.33.199,forced_choiceRT_color,2021.2.3,MacIntel,59.99880002,,,,,,,,10,Ontime,short,d,1,1.9701,8,0,32,0,1,,,,,
,0.13,,,,,,,,,k,purple,5f11f98efbaf2b0ef855ec6b,2021-09-27_17h10.33.199,forced_choiceRT_color,2021.2.3,MacIntel,59.99880002,,,,,,,,10,Ontime,short,k,1,1.9953,8,1,33,3,1,,,,,
,0.6,,,,,,,,,d,orange,5f11f98efbaf2b0ef855ec6b,2021-09-27_17h10.33.199,forced_choiceRT_color,2021.2.3,MacIntel,59.99880002,,,,,,,,10,Ontime,short,d,1,2.068,8,2,34,0,1,,,,,
,1.78,,,,,,,,,j,red,5f11f98efbaf2b0ef855ec6b,2021-09-27_17h10.33.199,forced_choiceRT_color,2021.2.3,MacIntel,59.99880002,,,,,,,,10,Slow,short,f,0,2.1495,8,3,35,2,1,,,,,
,0.54,,,,,,,,,k,purple,5f11f98efbaf2b0ef855ec6b,2021-09-27_17h10.33.199,forced_choiceRT_color,2021.2.3,MacIntel,59.99880002,,,,,,,,10,Fast,short,k,1,1.8587,9,0,36,3,1,,,,,
,0.51,,,,,,,,,d,orange,5f11f98efbaf2b0ef855ec6b,2021-09-27_17h10.33.199,forced_choiceRT_color,2021.2.3,MacIntel,59.99880002,,,,,,,,10,Ontime,short,d,1,1.9382,9,1,37,0,1,,,,,
,0.54,,,,,,,,,d,orange,5f11f98efbaf2b0ef855ec6b,2021-09-27_17h10.33.199,forced_choiceRT_color,2021.2.3,MacIntel,59.99880002,,,,,,,,10,Ontime,short,d,1,2.0325,9,2,38,0,1,,,,,
,0.14,,,,,,,,,j,red,5f11f98efbaf2b0ef855ec6b,2021-09-27_17h10.33.199,forced_choiceRT_color,2021.2.3,MacIntel,59.99880002,,,,,,,,10,Fast,short,j,1,1.8907,9,3,39,2,1,,,,,
,,,,,,,,,,,,5f11f98efbaf2b0ef855ec6b,2021-09-27_17h10.33.199,forced_choiceRT_color,2021.2.3,MacIntel,59.99880002,,,,,,,,,,,,,,,,,,,9,0,9,0,1
