IP_Addresss,target_onset,trial_resp_sp.keys,trial_resp_sp.corr,trial_resp_sp.rt,trials_train_loop.thisRepN,trials_train_loop.thisTrialN,trials_train_loop.thisN,trials_train_loop.thisIndex,trials_train_loop.ran,correct_key,color,participant,date,expName,psychopyVersion,OS,frameRate,trial_resp_timing.keys,trial_resp_timing.rt,trials_train_timing.thisRepN,trials_train_timing.thisTrialN,trials_train_timing.thisN,trials_train_timing.thisIndex,trials_train_timing.ran,block_id,ontime,feedback_cond,forcedRT_resp.keys,forcedRT_resp.corr,forcedRT_resp.rt,trials.thisRepN,trials.thisTrialN,trials.thisN,trials.thisIndex,trials.ran,blocks.thisRepN,blocks.thisTrialN,blocks.thisN,blocks.thisIndex,blocks.ran
107.216.94.29,0,k,1,1.7836,0,0,0,3,1,k,purple,5f16c677bc5f86028f33fc62,2021-11-01_14h28.02.212,forced_choiceRT_color,2021.2.3,MacIntel,60.0024001,,,,,,,,,,,,,,,,,,,,,,,
,0,d,1,1.3503,0,1,1,0,1,d,orange,5f16c677bc5f86028f33fc62,2021-11-01_14h28.02.212,forced_choiceRT_color,2021.2.3,MacIntel,60.0024001,,,,,,,,,,,,,,,,,,,,,,,
,0,f,0,0.8999,0,2,2,2,1,j,red,5f16c677bc5f86028f33fc62,2021-11-01_14h28.02.212,forced_choiceRT_color,2021.2.3,MacIntel,60.0024001,,,,,,,,,,,,,,,,,,,,,,,
,0,k,1,1.5343,0,3,3,3,1,k,purple,5f16c677bc5f86028f33fc62,2021-11-01_14h28.02.212,forced_choiceRT_color,2021.2.3,MacIntel,60.0024001,,,,,,,,,,,,,,,,,,,,,,,
,0,k,1,0.801,1,0,4,3,1,k,purple,5f16c677bc5f86028f33fc62,2021-11-01_14h28.02.212,forced_choiceRT_color,2021.2.3,MacIntel,60.0024001,,,,,,,,,,,,,,,,,,,,,,,
,0,f,1,0.8842,1,1,5,1,1,f,blue,5f16c677bc5f86028f33fc62,2021-11-01_14h28.02.212,forced_choiceRT_color,2021.2.3,MacIntel,60.0024001,,,,,,,,,,,,,,,,,,,,,,,
,0,d,0,0.6854,1,2,6,1,1,f,blue,5f16c677bc5f86028f33fc62,2021-11-01_14h28.02.212,forced_choiceRT_color,2021.2.3,MacIntel,60.0024001,,,,,,,,,,,,,,,,,,,,,,,
,0,f,1,0.6354,1,3,7,1,1,f,blue,5f16c677bc5f86028f33fc62,2021-11-01_14h28.02.212,forced_choiceRT_color,2021.2.3,MacIntel,60.0024001,,,,,,,,,,,,,,,,,,,,,,,
,0,k,1,0.8671,2,0,8,3,1,k,purple,5f16c677bc5f86028f33fc62,2021-11-01_14h28.02.212,forced_choiceRT_color,2021.2.3,MacIntel,60.0024001,,,,,,,,,,,,,,,,,,,,,,,
,0,j,1,0.5978,2,1,9,2,1,j,red,5f16c677bc5f86028f33fc62,2021-11-01_14h28.02.212,forced_choiceRT_color,2021.2.3,MacIntel,60.0024001,,,,,,,,,,,,,,,,,,,,,,,
,0,f,1,1.1872,2,2,10,1,1,f,blue,5f16c677bc5f86028f33fc62,2021-11-01_14h28.02.212,forced_choiceRT_color,2021.2.3,MacIntel,60.0024001,,,,,,,,,,,,,,,,,,,,,,,
,0,j,1,0.9345,2,3,11,2,1,j,red,5f16c677bc5f86028f33fc62,2021-11-01_14h28.02.212,forced_choiceRT_color,2021.2.3,MacIntel,60.0024001,,,,,,,,,,,,,,,,,,,,,,,
,0,d,1,0.8671,3,0,12,0,1,d,orange,5f16c677bc5f86028f33fc62,2021-11-01_14h28.02.212,forced_choiceRT_color,2021.2.3,MacIntel,60.0024001,,,,,,,,,,,,,,,,,,,,,,,
,0,d,1,0.801,3,1,13,0,1,d,orange,5f16c677bc5f86028f33fc62,2021-11-01_14h28.02.212,forced_choiceRT_color,2021.2.3,MacIntel,60.0024001,,,,,,,,,,,,,,,,,,,,,,,
,0,k,1,0.7501,3,2,14,3,1,k,purple,5f16c677bc5f86028f33fc62,2021-11-01_14h28.02.212,forced_choiceRT_color,2021.2.3,MacIntel,60.0024001,,,,,,,,,,,,,,,,,,,,,,,
,0,j,1,0.8505,3,3,15,2,1,j,red,5f16c677bc5f86028f33fc62,2021-11-01_14h28.02.212,forced_choiceRT_color,2021.2.3,MacIntel,60.0024001,,,,,,,,,,,,,,,,,,,,,,,
,0,f,1,0.7011,4,0,16,1,1,f,blue,5f16c677bc5f86028f33fc62,2021-11-01_14h28.02.212,forced_choiceRT_color,2021.2.3,MacIntel,60.0024001,,,,,,,,,,,,,,,,,,,,,,,
,0,j,1,0.7009,4,1,17,2,1,j,red,5f16c677bc5f86028f33fc62,2021-11-01_14h28.02.212,forced_choiceRT_color,2021.2.3,MacIntel,60.0024001,,,,,,,,,,,,,,,,,,,,,,,
,0,k,1,0.7184,4,2,18,3,1,k,purple,5f16c677bc5f86028f33fc62,2021-11-01_14h28.02.212,forced_choiceRT_color,2021.2.3,MacIntel,60.0024001,,,,,,,,,,,,,,,,,,,,,,,
,0,d,1,0.7173,4,3,19,0,1,d,orange,5f16c677bc5f86028f33fc62,2021-11-01_14h28.02.212,forced_choiceRT_color,2021.2.3,MacIntel,60.0024001,,,,,,,,,,,,,,,,,,,,,,,
,0,j,1,0.7005,5,0,20,2,1,j,red,5f16c677bc5f86028f33fc62,2021-11-01_14h28.02.212,forced_choiceRT_color,2021.2.3,MacIntel,60.0024001,,,,,,,,,,,,,,,,,,,,,,,
,0,d,1,0.622,5,1,21,0,1,d,orange,5f16c677bc5f86028f33fc62,2021-11-01_14h28.02.212,forced_choiceRT_color,2021.2.3,MacIntel,60.0024001,,,,,,,,,,,,,,,,,,,,,,,
,0,j,1,0.6674,5,2,22,2,1,j,red,5f16c677bc5f86028f33fc62,2021-11-01_14h28.02.212,forced_choiceRT_color,2021.2.3,MacIntel,60.0024001,,,,,,,,,,,,,,,,,,,,,,,
,0,j,1,0.601,5,3,23,2,1,j,red,5f16c677bc5f86028f33fc62,2021-11-01_14h28.02.212,forced_choiceRT_color,2021.2.3,MacIntel,60.0024001,,,,,,,,,,,,,,,,,,,,,,,
,0,d,1,0.6337,6,0,24,0,1,d,orange,5f16c677bc5f86028f33fc62,2021-11-01_14h28.02.212,forced_choiceRT_color,2021.2.3,MacIntel,60.0024001,,,,,,,,,,,,,,,,,,,,,,,
,0,k,1,0.5551,6,1,25,3,1,k,purple,5f16c677bc5f86028f33fc62,2021-11-01_14h28.02.212,forced_choiceRT_color,2021.2.3,MacIntel,60.0024001,,,,,,,,,,,,,,,,,,,,,,,
,0,k,1,0.5173,6,2,26,3,1,k,purple,5f16c677bc5f86028f33fc62,2021-11-01_14h28.02.212,forced_choiceRT_color,2021.2.3,MacIntel,60.0024001,,,,,,,,,,,,,,,,,,,,,,,
,0,f,1,0.6342,6,3,27,1,1,f,blue,5f16c677bc5f86028f33fc62,2021-11-01_14h28.02.212,forced_choiceRT_color,2021.2.3,MacIntel,60.0024001,,,,,,,,,,,,,,,,,,,,,,,
,0,f,1,0.5008,7,0,28,1,1,f,blue,5f16c677bc5f86028f33fc62,2021-11-01_14h28.02.212,forced_choiceRT_color,2021.2.3,MacIntel,60.0024001,,,,,,,,,,,,,,,,,,,,,,,
,0,d,1,0.5682,7,1,29,0,1,d,orange,5f16c677bc5f86028f33fc62,2021-11-01_14h28.02.212,forced_choiceRT_color,2021.2.3,MacIntel,60.0024001,,,,,,,,,,,,,,,,,,,,,,,
,0,f,1,0.5736,7,2,30,1,1,f,blue,5f16c677bc5f86028f33fc62,2021-11-01_14h28.02.212,forced_choiceRT_color,2021.2.3,MacIntel,60.0024001,,,,,,,,,,,,,,,,,,,,,,,
,0,d,1,0.5676,7,3,31,0,1,d,orange,5f16c677bc5f86028f33fc62,2021-11-01_14h28.02.212,forced_choiceRT_color,2021.2.3,MacIntel,60.0024001,,,,,,,,,,,,,,,,,,,,,,,
,0,k,1,0.6527,8,0,32,3,1,k,purple,5f16c677bc5f86028f33fc62,2021-11-01_14h28.02.212,forced_choiceRT_color,2021.2.3,MacIntel,60.0024001,,,,,,,,,,,,,,,,,,,,,,,
,0,f,1,0.5507,8,1,33,1,1,f,blue,5f16c677bc5f86028f33fc62,2021-11-01_14h28.02.212,forced_choiceRT_color,2021.2.3,MacIntel,60.0024001,,,,,,,,,,,,,,,,,,,,,,,
,0,f,1,0.5846,8,2,34,1,1,f,blue,5f16c677bc5f86028f33fc62,2021-11-01_14h28.02.212,forced_choiceRT_color,2021.2.3,MacIntel,60.0024001,,,,,,,,,,,,,,,,,,,,,,,
,0,d,1,0.5535,8,3,35,0,1,d,orange,5f16c677bc5f86028f33fc62,2021-11-01_14h28.02.212,forced_choiceRT_color,2021.2.3,MacIntel,60.0024001,,,,,,,,,,,,,,,,,,,,,,,
,0,f,1,0.5344,9,0,36,1,1,f,blue,5f16c677bc5f86028f33fc62,2021-11-01_14h28.02.212,forced_choiceRT_color,2021.2.3,MacIntel,60.0024001,,,,,,,,,,,,,,,,,,,,,,,
,0,d,1,0.5388,9,1,37,0,1,d,orange,5f16c677bc5f86028f33fc62,2021-11-01_14h28.02.212,forced_choiceRT_color,2021.2.3,MacIntel,60.0024001,,,,,,,,,,,,,,,,,,,,,,,
,0,k,1,0.5509,9,2,38,3,1,k,purple,5f16c677bc5f86028f33fc62,2021-11-01_14h28.02.212,forced_choiceRT_color,2021.2.3,MacIntel,60.0024001,,,,,,,,,,,,,,,,,,,,,,,
,0,j,1,0.668,9,3,39,2,1,j,red,5f16c677bc5f86028f33fc62,2021-11-01_14h28.02.212,forced_choiceRT_color,2021.2.3,MacIntel,60.0024001,,,,,,,,,,,,,,,,,,,,,,,
,0,f,1,0.5843,10,0,40,1,1,f,blue,5f16c677bc5f86028f33fc62,2021-11-01_14h28.02.212,forced_choiceRT_color,2021.2.3,MacIntel,60.0024001,,,,,,,,,,,,,,,,,,,,,,,
,0,k,1,0.6063,10,1,41,3,1,k,purple,5f16c677bc5f86028f33fc62,2021-11-01_14h28.02.212,forced_choiceRT_color,2021.2.3,MacIntel,60.0024001,,,,,,,,,,,,,,,,,,,,,,,
,0,j,1,1.1176,10,2,42,2,1,j,red,5f16c677bc5f86028f33fc62,2021-11-01_14h28.02.212,forced_choiceRT_color,2021.2.3,MacIntel,60.0024001,,,,,,,,,,,,,,,,,,,,,,,
,0,k,1,0.8027,10,3,43,3,1,k,purple,5f16c677bc5f86028f33fc62,2021-11-01_14h28.02.212,forced_choiceRT_color,2021.2.3,MacIntel,60.0024001,,,,,,,,,,,,,,,,,,,,,,,
,0,k,1,1.0675,11,0,44,3,1,k,purple,5f16c677bc5f86028f33fc62,2021-11-01_14h28.02.212,forced_choiceRT_color,2021.2.3,MacIntel,60.0024001,,,,,,,,,,,,,,,,,,,,,,,
,0,f,1,0.7017,11,1,45,1,1,f,blue,5f16c677bc5f86028f33fc62,2021-11-01_14h28.02.212,forced_choiceRT_color,2021.2.3,MacIntel,60.0024001,,,,,,,,,,,,,,,,,,,,,,,
,0,k,1,0.5731,11,2,46,3,1,k,purple,5f16c677bc5f86028f33fc62,2021-11-01_14h28.02.212,forced_choiceRT_color,2021.2.3,MacIntel,60.0024001,,,,,,,,,,,,,,,,,,,,,,,
,0,d,1,0.5177,11,3,47,0,1,d,orange,5f16c677bc5f86028f33fc62,2021-11-01_14h28.02.212,forced_choiceRT_color,2021.2.3,MacIntel,60.0024001,,,,,,,,,,,,,,,,,,,,,,,
,0,d,1,0.484,12,0,48,0,1,d,orange,5f16c677bc5f86028f33fc62,2021-11-01_14h28.02.212,forced_choiceRT_color,2021.2.3,MacIntel,60.0024001,,,,,,,,,,,,,,,,,,,,,,,
,0,f,1,0.4839,12,1,49,1,1,f,blue,5f16c677bc5f86028f33fc62,2021-11-01_14h28.02.212,forced_choiceRT_color,2021.2.3,MacIntel,60.0024001,,,,,,,,,,,,,,,,,,,,,,,
,0,j,1,0.6192,12,2,50,2,1,j,red,5f16c677bc5f86028f33fc62,2021-11-01_14h28.02.212,forced_choiceRT_color,2021.2.3,MacIntel,60.0024001,,,,,,,,,,,,,,,,,,,,,,,
,0,j,1,0.5046,12,3,51,2,1,j,red,5f16c677bc5f86028f33fc62,2021-11-01_14h28.02.212,forced_choiceRT_color,2021.2.3,MacIntel,60.0024001,,,,,,,,,,,,,,,,,,,,,,,
,0,k,1,0.4679,13,0,52,3,1,k,purple,5f16c677bc5f86028f33fc62,2021-11-01_14h28.02.212,forced_choiceRT_color,2021.2.3,MacIntel,60.0024001,,,,,,,,,,,,,,,,,,,,,,,
,0,f,0,0.4678,13,1,53,2,1,j,red,5f16c677bc5f86028f33fc62,2021-11-01_14h28.02.212,forced_choiceRT_color,2021.2.3,MacIntel,60.0024001,,,,,,,,,,,,,,,,,,,,,,,
,0,j,1,0.5882,13,2,54,2,1,j,red,5f16c677bc5f86028f33fc62,2021-11-01_14h28.02.212,forced_choiceRT_color,2021.2.3,MacIntel,60.0024001,,,,,,,,,,,,,,,,,,,,,,,
,0,d,1,0.5843,13,3,55,0,1,d,orange,5f16c677bc5f86028f33fc62,2021-11-01_14h28.02.212,forced_choiceRT_color,2021.2.3,MacIntel,60.0024001,,,,,,,,,,,,,,,,,,,,,,,
,0,j,1,0.7055,14,0,56,2,1,j,red,5f16c677bc5f86028f33fc62,2021-11-01_14h28.02.212,forced_choiceRT_color,2021.2.3,MacIntel,60.0024001,,,,,,,,,,,,,,,,,,,,,,,
,0,d,1,0.6237,14,1,57,0,1,d,orange,5f16c677bc5f86028f33fc62,2021-11-01_14h28.02.212,forced_choiceRT_color,2021.2.3,MacIntel,60.0024001,,,,,,,,,,,,,,,,,,,,,,,
,0,f,1,0.5843,14,2,58,1,1,f,blue,5f16c677bc5f86028f33fc62,2021-11-01_14h28.02.212,forced_choiceRT_color,2021.2.3,MacIntel,60.0024001,,,,,,,,,,,,,,,,,,,,,,,
,0,d,1,0.5508,14,3,59,0,1,d,orange,5f16c677bc5f86028f33fc62,2021-11-01_14h28.02.212,forced_choiceRT_color,2021.2.3,MacIntel,60.0024001,,,,,,,,,,,,,,,,,,,,,,,
,,,,,,,,,,,,5f16c677bc5f86028f33fc62,2021-11-01_14h28.02.212,forced_choiceRT_color,2021.2.3,MacIntel,60.0024001,k,2.2683,0,0,0,0,1,,,,,,,,,,,,,,,,
,,,,,,,,,,,,5f16c677bc5f86028f33fc62,2021-11-01_14h28.02.212,forced_choiceRT_color,2021.2.3,MacIntel,60.0024001,j,2.0845,1,0,1,0,1,,,,,,,,,,,,,,,,
,,,,,,,,,,,,5f16c677bc5f86028f33fc62,2021-11-01_14h28.02.212,forced_choiceRT_color,2021.2.3,MacIntel,60.0024001,d,2.0384,2,0,2,0,1,,,,,,,,,,,,,,,,
,,,,,,,,,,,,5f16c677bc5f86028f33fc62,2021-11-01_14h28.02.212,forced_choiceRT_color,2021.2.3,MacIntel,60.0024001,f,2.0365,3,0,3,0,1,,,,,,,,,,,,,,,,
,,,,,,,,,,,,5f16c677bc5f86028f33fc62,2021-11-01_14h28.02.212,forced_choiceRT_color,2021.2.3,MacIntel,60.0024001,k,2.0674,4,0,4,0,1,,,,,,,,,,,,,,,,
,,,,,,,,,,,,5f16c677bc5f86028f33fc62,2021-11-01_14h28.02.212,forced_choiceRT_color,2021.2.3,MacIntel,60.0024001,j,2.0017,5,0,5,0,1,,,,,,,,,,,,,,,,
,,,,,,,,,,,,5f16c677bc5f86028f33fc62,2021-11-01_14h28.02.212,forced_choiceRT_color,2021.2.3,MacIntel,60.0024001,f,2.1178,6,0,6,0,1,,,,,,,,,,,,,,,,
,,,,,,,,,,,,5f16c677bc5f86028f33fc62,2021-11-01_14h28.02.212,forced_choiceRT_color,2021.2.3,MacIntel,60.0024001,d,2.0728,7,0,7,0,1,,,,,,,,,,,,,,,,
,,,,,,,,,,,,5f16c677bc5f86028f33fc62,2021-11-01_14h28.02.212,forced_choiceRT_color,2021.2.3,MacIntel,60.0024001,f,2.0503,8,0,8,0,1,,,,,,,,,,,,,,,,
,,,,,,,,,,,,5f16c677bc5f86028f33fc62,2021-11-01_14h28.02.212,forced_choiceRT_color,2021.2.3,MacIntel,60.0024001,j,1.8848,9,0,9,0,1,,,,,,,,,,,,,,,,
,,,,,,,,,,,,5f16c677bc5f86028f33fc62,2021-11-01_14h28.02.212,forced_choiceRT_color,2021.2.3,MacIntel,60.0024001,k,1.935,10,0,10,0,1,,,,,,,,,,,,,,,,
,,,,,,,,,,,,5f16c677bc5f86028f33fc62,2021-11-01_14h28.02.212,forced_choiceRT_color,2021.2.3,MacIntel,60.0024001,j,1.884,11,0,11,0,1,,,,,,,,,,,,,,,,
,,,,,,,,,,,,5f16c677bc5f86028f33fc62,2021-11-01_14h28.02.212,forced_choiceRT_color,2021.2.3,MacIntel,60.0024001,f,2.0342,12,0,12,0,1,,,,,,,,,,,,,,,,
,,,,,,,,,,,,5f16c677bc5f86028f33fc62,2021-11-01_14h28.02.212,forced_choiceRT_color,2021.2.3,MacIntel,60.0024001,j,2.0052,13,0,13,0,1,,,,,,,,,,,,,,,,
,,,,,,,,,,,,5f16c677bc5f86028f33fc62,2021-11-01_14h28.02.212,forced_choiceRT_color,2021.2.3,MacIntel,60.0024001,d,2.0335,14,0,14,0,1,,,,,,,,,,,,,,,,
,,,,,,,,,,,,5f16c677bc5f86028f33fc62,2021-11-01_14h28.02.212,forced_choiceRT_color,2021.2.3,MacIntel,60.0024001,k,2.004,15,0,15,0,1,,,,,,,,,,,,,,,,
,,,,,,,,,,,,5f16c677bc5f86028f33fc62,2021-11-01_14h28.02.212,forced_choiceRT_color,2021.2.3,MacIntel,60.0024001,f,2.0169,16,0,16,0,1,,,,,,,,,,,,,,,,
,,,,,,,,,,,,5f16c677bc5f86028f33fc62,2021-11-01_14h28.02.212,forced_choiceRT_color,2021.2.3,MacIntel,60.0024001,j,1.9008,17,0,17,0,1,,,,,,,,,,,,,,,,
,,,,,,,,,,,,5f16c677bc5f86028f33fc62,2021-11-01_14h28.02.212,forced_choiceRT_color,2021.2.3,MacIntel,60.0024001,k,2.0176,18,0,18,0,1,,,,,,,,,,,,,,,,
,,,,,,,,,,,,5f16c677bc5f86028f33fc62,2021-11-01_14h28.02.212,forced_choiceRT_color,2021.2.3,MacIntel,60.0024001,f,2.0696,19,0,19,0,1,,,,,,,,,,,,,,,,
,1.65,,,,,,,,,d,orange,5f16c677bc5f86028f33fc62,2021-11-01_14h28.02.212,forced_choiceRT_color,2021.2.3,MacIntel,60.0024001,,,,,,,,1,Ontime,long,k,0,2.0936,0,0,0,0,1,,,,,
,1.8,,,,,,,,,f,blue,5f16c677bc5f86028f33fc62,2021-11-01_14h28.02.212,forced_choiceRT_color,2021.2.3,MacIntel,60.0024001,,,,,,,,1,Slow,long,d,0,2.2154,0,1,1,1,1,,,,,
,1.98,,,,,,,,,d,orange,5f16c677bc5f86028f33fc62,2021-11-01_14h28.02.212,forced_choiceRT_color,2021.2.3,MacIntel,60.0024001,,,,,,,,1,Slow,long,k,0,2.152,0,2,2,0,1,,,,,
,0.33,,,,,,,,,j,red,5f16c677bc5f86028f33fc62,2021-11-01_14h28.02.212,forced_choiceRT_color,2021.2.3,MacIntel,60.0024001,,,,,,,,1,Ontime,long,j,1,1.971,0,3,3,2,1,,,,,
,1.05,,,,,,,,,k,purple,5f16c677bc5f86028f33fc62,2021-11-01_14h28.02.212,forced_choiceRT_color,2021.2.3,MacIntel,60.0024001,,,,,,,,1,Ontime,long,k,1,1.972,1,0,4,3,1,,,,,
,0.79,,,,,,,,,k,purple,5f16c677bc5f86028f33fc62,2021-11-01_14h28.02.212,forced_choiceRT_color,2021.2.3,MacIntel,60.0024001,,,,,,,,1,Fast,long,k,1,1.8519,1,1,5,3,1,,,,,
,1.02,,,,,,,,,f,blue,5f16c677bc5f86028f33fc62,2021-11-01_14h28.02.212,forced_choiceRT_color,2021.2.3,MacIntel,60.0024001,,,,,,,,1,Ontime,long,d,0,1.9516,1,2,6,1,1,,,,,
,0.73,,,,,,,,,k,purple,5f16c677bc5f86028f33fc62,2021-11-01_14h28.02.212,forced_choiceRT_color,2021.2.3,MacIntel,60.0024001,,,,,,,,1,Fast,long,k,1,1.7845,1,3,7,3,1,,,,,
,1.85,,,,,,,,,f,blue,5f16c677bc5f86028f33fc62,2021-11-01_14h28.02.212,forced_choiceRT_color,2021.2.3,MacIntel,60.0024001,,,,,,,,1,Slow,long,k,0,2.2511,2,0,8,1,1,,,,,
,1.82,,,,,,,,,k,purple,5f16c677bc5f86028f33fc62,2021-11-01_14h28.02.212,forced_choiceRT_color,2021.2.3,MacIntel,60.0024001,,,,,,,,1,Slow,long,k,1,2.134,2,1,9,3,1,,,,,
,0.14,,,,,,,,,j,red,5f16c677bc5f86028f33fc62,2021-11-01_14h28.02.212,forced_choiceRT_color,2021.2.3,MacIntel,60.0024001,,,,,,,,1,Ontime,long,j,1,1.9353,2,2,10,2,1,,,,,
,0.86,,,,,,,,,d,orange,5f16c677bc5f86028f33fc62,2021-11-01_14h28.02.212,forced_choiceRT_color,2021.2.3,MacIntel,60.0024001,,,,,,,,1,Ontime,long,d,1,2.0723,2,3,11,0,1,,,,,
,0.2,,,,,,,,,f,blue,5f16c677bc5f86028f33fc62,2021-11-01_14h28.02.212,forced_choiceRT_color,2021.2.3,MacIntel,60.0024001,,,,,,,,1,Ontime,long,d,0,2.0016,3,0,12,1,1,,,,,
,0.73,,,,,,,,,d,orange,5f16c677bc5f86028f33fc62,2021-11-01_14h28.02.212,forced_choiceRT_color,2021.2.3,MacIntel,60.0024001,,,,,,,,1,Ontime,long,d,1,1.9848,3,1,13,0,1,,,,,
,0.62,,,,,,,,,f,blue,5f16c677bc5f86028f33fc62,2021-11-01_14h28.02.212,forced_choiceRT_color,2021.2.3,MacIntel,60.0024001,,,,,,,,1,Ontime,long,f,1,1.9851,3,2,14,1,1,,,,,
,0.6,,,,,,,,,j,red,5f16c677bc5f86028f33fc62,2021-11-01_14h28.02.212,forced_choiceRT_color,2021.2.3,MacIntel,60.0024001,,,,,,,,1,Ontime,long,j,1,2.0192,3,3,15,2,1,,,,,
,0.51,,,,,,,,,k,purple,5f16c677bc5f86028f33fc62,2021-11-01_14h28.02.212,forced_choiceRT_color,2021.2.3,MacIntel,60.0024001,,,,,,,,1,Ontime,long,k,1,1.9681,4,0,16,3,1,,,,,
,0.55,,,,,,,,,j,red,5f16c677bc5f86028f33fc62,2021-11-01_14h28.02.212,forced_choiceRT_color,2021.2.3,MacIntel,60.0024001,,,,,,,,1,Ontime,long,j,1,1.954,4,1,17,2,1,,,,,
,1.19,,,,,,,,,j,red,5f16c677bc5f86028f33fc62,2021-11-01_14h28.02.212,forced_choiceRT_color,2021.2.3,MacIntel,60.0024001,,,,,,,,1,Ontime,long,j,1,2.002,4,2,18,2,1,,,,,
,1.19,,,,,,,,,f,blue,5f16c677bc5f86028f33fc62,2021-11-01_14h28.02.212,forced_choiceRT_color,2021.2.3,MacIntel,60.0024001,,,,,,,,1,Fast,long,d,0,1.8199,4,3,19,1,1,,,,,
,0.75,,,,,,,,,f,blue,5f16c677bc5f86028f33fc62,2021-11-01_14h28.02.212,forced_choiceRT_color,2021.2.3,MacIntel,60.0024001,,,,,,,,1,Fast,long,f,1,1.8692,5,0,20,1,1,,,,,
,0.19,,,,,,,,,d,orange,5f16c677bc5f86028f33fc62,2021-11-01_14h28.02.212,forced_choiceRT_color,2021.2.3,MacIntel,60.0024001,,,,,,,,1,Fast,long,d,1,1.8682,5,1,21,0,1,,,,,
,0.76,,,,,,,,,j,red,5f16c677bc5f86028f33fc62,2021-11-01_14h28.02.212,forced_choiceRT_color,2021.2.3,MacIntel,60.0024001,,,,,,,,1,Ontime,long,j,1,2.0517,5,2,22,2,1,,,,,
,1.34,,,,,,,,,k,purple,5f16c677bc5f86028f33fc62,2021-11-01_14h28.02.212,forced_choiceRT_color,2021.2.3,MacIntel,60.0024001,,,,,,,,1,Slow,long,k,1,2.1561,5,3,23,3,1,,,,,
,0.73,,,,,,,,,d,orange,5f16c677bc5f86028f33fc62,2021-11-01_14h28.02.212,forced_choiceRT_color,2021.2.3,MacIntel,60.0024001,,,,,,,,1,Ontime,long,d,1,2.0519,6,0,24,0,1,,,,,
,1.81,,,,,,,,,d,orange,5f16c677bc5f86028f33fc62,2021-11-01_14h28.02.212,forced_choiceRT_color,2021.2.3,MacIntel,60.0024001,,,,,,,,1,Ontime,long,f,0,2.0523,6,1,25,0,1,,,,,
,0.94,,,,,,,,,j,red,5f16c677bc5f86028f33fc62,2021-11-01_14h28.02.212,forced_choiceRT_color,2021.2.3,MacIntel,60.0024001,,,,,,,,1,Ontime,long,j,1,2.0855,6,2,26,2,1,,,,,
,1.32,,,,,,,,,k,purple,5f16c677bc5f86028f33fc62,2021-11-01_14h28.02.212,forced_choiceRT_color,2021.2.3,MacIntel,60.0024001,,,,,,,,1,Ontime,long,k,1,1.9735,6,3,27,3,1,,,,,
,0.28,,,,,,,,,j,red,5f16c677bc5f86028f33fc62,2021-11-01_14h28.02.212,forced_choiceRT_color,2021.2.3,MacIntel,60.0024001,,,,,,,,1,Ontime,long,j,1,2.0734,7,0,28,2,1,,,,,
,0.87,,,,,,,,,f,blue,5f16c677bc5f86028f33fc62,2021-11-01_14h28.02.212,forced_choiceRT_color,2021.2.3,MacIntel,60.0024001,,,,,,,,1,Ontime,long,f,1,2.0363,7,1,29,1,1,,,,,
,1.01,,,,,,,,,k,purple,5f16c677bc5f86028f33fc62,2021-11-01_14h28.02.212,forced_choiceRT_color,2021.2.3,MacIntel,60.0024001,,,,,,,,1,Ontime,long,k,1,1.9888,7,2,30,3,1,,,,,
,0.05,,,,,,,,,f,blue,5f16c677bc5f86028f33fc62,2021-11-01_14h28.02.212,forced_choiceRT_color,2021.2.3,MacIntel,60.0024001,,,,,,,,1,Ontime,long,f,1,1.988,7,3,31,1,1,,,,,
,1.91,,,,,,,,,d,orange,5f16c677bc5f86028f33fc62,2021-11-01_14h28.02.212,forced_choiceRT_color,2021.2.3,MacIntel,60.0024001,,,,,,,,1,Ontime,long,f,0,2.0376,8,0,32,0,1,,,,,
,0.94,,,,,,,,,k,purple,5f16c677bc5f86028f33fc62,2021-11-01_14h28.02.212,forced_choiceRT_color,2021.2.3,MacIntel,60.0024001,,,,,,,,1,Ontime,long,k,1,2.0388,8,1,33,3,1,,,,,
,1.48,,,,,,,,,d,orange,5f16c677bc5f86028f33fc62,2021-11-01_14h28.02.212,forced_choiceRT_color,2021.2.3,MacIntel,60.0024001,,,,,,,,1,Ontime,long,d,1,2.0516,8,2,34,0,1,,,,,
,0.27,,,,,,,,,d,orange,5f16c677bc5f86028f33fc62,2021-11-01_14h28.02.212,forced_choiceRT_color,2021.2.3,MacIntel,60.0024001,,,,,,,,1,Ontime,long,d,1,2.0354,8,3,35,0,1,,,,,
,0.45,,,,,,,,,f,blue,5f16c677bc5f86028f33fc62,2021-11-01_14h28.02.212,forced_choiceRT_color,2021.2.3,MacIntel,60.0024001,,,,,,,,1,Ontime,long,f,1,2.0519,9,0,36,1,1,,,,,
,1.45,,,,,,,,,j,red,5f16c677bc5f86028f33fc62,2021-11-01_14h28.02.212,forced_choiceRT_color,2021.2.3,MacIntel,60.0024001,,,,,,,,1,Ontime,long,k,0,2.0733,9,1,37,2,1,,,,,
,0.99,,,,,,,,,k,purple,5f16c677bc5f86028f33fc62,2021-11-01_14h28.02.212,forced_choiceRT_color,2021.2.3,MacIntel,60.0024001,,,,,,,,1,Ontime,long,k,1,2.0061,9,2,38,3,1,,,,,
,0.38,,,,,,,,,j,red,5f16c677bc5f86028f33fc62,2021-11-01_14h28.02.212,forced_choiceRT_color,2021.2.3,MacIntel,60.0024001,,,,,,,,1,Ontime,long,j,1,2.0386,9,3,39,2,1,,,,,
,,,,,,,,,,,,5f16c677bc5f86028f33fc62,2021-11-01_14h28.02.212,forced_choiceRT_color,2021.2.3,MacIntel,60.0024001,,,,,,,,,,,,,,,,,,,0,0,0,0,1
,1.74,,,,,,,,,k,purple,5f16c677bc5f86028f33fc62,2021-11-01_14h28.02.212,forced_choiceRT_color,2021.2.3,MacIntel,60.0024001,,,,,,,,2,Slow,long,k,1,2.1986,0,0,0,3,1,,,,,
,1.62,,,,,,,,,j,red,5f16c677bc5f86028f33fc62,2021-11-01_14h28.02.212,forced_choiceRT_color,2021.2.3,MacIntel,60.0024001,,,,,,,,2,Slow,long,f,0,2.2209,0,1,1,2,1,,,,,
,0.93,,,,,,,,,k,purple,5f16c677bc5f86028f33fc62,2021-11-01_14h28.02.212,forced_choiceRT_color,2021.2.3,MacIntel,60.0024001,,,,,,,,2,Ontime,long,k,1,2.0081,0,2,2,3,1,,,,,
,1.33,,,,,,,,,j,red,5f16c677bc5f86028f33fc62,2021-11-01_14h28.02.212,forced_choiceRT_color,2021.2.3,MacIntel,60.0024001,,,,,,,,2,Ontime,long,j,1,2.0225,0,3,3,2,1,,,,,
,1.81,,,,,,,,,d,orange,5f16c677bc5f86028f33fc62,2021-11-01_14h28.02.212,forced_choiceRT_color,2021.2.3,MacIntel,60.0024001,,,,,,,,2,Slow,long,d,1,2.2554,1,0,4,0,1,,,,,
,1.53,,,,,,,,,d,orange,5f16c677bc5f86028f33fc62,2021-11-01_14h28.02.212,forced_choiceRT_color,2021.2.3,MacIntel,60.0024001,,,,,,,,2,Slow,long,d,1,2.1008,1,1,5,0,1,,,,,
,0.73,,,,,,,,,d,orange,5f16c677bc5f86028f33fc62,2021-11-01_14h28.02.212,forced_choiceRT_color,2021.2.3,MacIntel,60.0024001,,,,,,,,2,Ontime,long,d,1,2.0019,1,2,6,0,1,,,,,
,1.51,,,,,,,,,k,purple,5f16c677bc5f86028f33fc62,2021-11-01_14h28.02.212,forced_choiceRT_color,2021.2.3,MacIntel,60.0024001,,,,,,,,2,Ontime,long,k,1,2.0399,1,3,7,3,1,,,,,
,1.04,,,,,,,,,j,red,5f16c677bc5f86028f33fc62,2021-11-01_14h28.02.212,forced_choiceRT_color,2021.2.3,MacIntel,60.0024001,,,,,,,,2,Ontime,long,j,1,2.0047,2,0,8,2,1,,,,,
,1.41,,,,,,,,,j,red,5f16c677bc5f86028f33fc62,2021-11-01_14h28.02.212,forced_choiceRT_color,2021.2.3,MacIntel,60.0024001,,,,,,,,2,Ontime,long,j,1,2.0194,2,1,9,2,1,,,,,
,0.6,,,,,,,,,k,purple,5f16c677bc5f86028f33fc62,2021-11-01_14h28.02.212,forced_choiceRT_color,2021.2.3,MacIntel,60.0024001,,,,,,,,2,Ontime,long,k,1,1.9401,2,2,10,3,1,,,,,
,1.05,,,,,,,,,f,blue,5f16c677bc5f86028f33fc62,2021-11-01_14h28.02.212,forced_choiceRT_color,2021.2.3,MacIntel,60.0024001,,,,,,,,2,Ontime,long,f,1,2.0349,2,3,11,1,1,,,,,
,0.11,,,,,,,,,f,blue,5f16c677bc5f86028f33fc62,2021-11-01_14h28.02.212,forced_choiceRT_color,2021.2.3,MacIntel,60.0024001,,,,,,,,2,Ontime,long,f,1,1.9897,3,0,12,1,1,,,,,
,0.44,,,,,,,,,k,purple,5f16c677bc5f86028f33fc62,2021-11-01_14h28.02.212,forced_choiceRT_color,2021.2.3,MacIntel,60.0024001,,,,,,,,2,Ontime,long,k,1,1.9371,3,1,13,3,1,,,,,
,0.65,,,,,,,,,d,orange,5f16c677bc5f86028f33fc62,2021-11-01_14h28.02.212,forced_choiceRT_color,2021.2.3,MacIntel,60.0024001,,,,,,,,2,Ontime,long,d,1,2.0179,3,2,14,0,1,,,,,
,1.71,,,,,,,,,j,red,5f16c677bc5f86028f33fc62,2021-11-01_14h28.02.212,forced_choiceRT_color,2021.2.3,MacIntel,60.0024001,,,,,,,,2,Slow,long,f,0,2.2181,3,3,15,2,1,,,,,
,1.62,,,,,,,,,k,purple,5f16c677bc5f86028f33fc62,2021-11-01_14h28.02.212,forced_choiceRT_color,2021.2.3,MacIntel,60.0024001,,,,,,,,2,Ontime,long,k,1,2.0412,4,0,16,3,1,,,,,
,1.82,,,,,,,,,f,blue,5f16c677bc5f86028f33fc62,2021-11-01_14h28.02.212,forced_choiceRT_color,2021.2.3,MacIntel,60.0024001,,,,,,,,2,Slow,long,f,1,2.2862,4,1,17,1,1,,,,,
,1.05,,,,,,,,,f,blue,5f16c677bc5f86028f33fc62,2021-11-01_14h28.02.212,forced_choiceRT_color,2021.2.3,MacIntel,60.0024001,,,,,,,,2,Ontime,long,f,1,2.0385,4,2,18,1,1,,,,,
,1.71,,,,,,,,,d,orange,5f16c677bc5f86028f33fc62,2021-11-01_14h28.02.212,forced_choiceRT_color,2021.2.3,MacIntel,60.0024001,,,,,,,,2,Slow,long,d,1,2.2179,4,3,19,0,1,,,,,
,1.02,,,,,,,,,j,red,5f16c677bc5f86028f33fc62,2021-11-01_14h28.02.212,forced_choiceRT_color,2021.2.3,MacIntel,60.0024001,,,,,,,,2,Ontime,long,j,1,1.9676,5,0,20,2,1,,,,,
,1.62,,,,,,,,,k,purple,5f16c677bc5f86028f33fc62,2021-11-01_14h28.02.212,forced_choiceRT_color,2021.2.3,MacIntel,60.0024001,,,,,,,,2,Slow,long,k,1,2.1556,5,1,21,3,1,,,,,
,0.99,,,,,,,,,j,red,5f16c677bc5f86028f33fc62,2021-11-01_14h28.02.212,forced_choiceRT_color,2021.2.3,MacIntel,60.0024001,,,,,,,,2,Ontime,long,j,1,2.0015,5,2,22,2,1,,,,,
,1.73,,,,,,,,,d,orange,5f16c677bc5f86028f33fc62,2021-11-01_14h28.02.212,forced_choiceRT_color,2021.2.3,MacIntel,60.0024001,,,,,,,,2,Slow,long,f,0,2.1351,5,3,23,0,1,,,,,
,0.08,,,,,,,,,d,orange,5f16c677bc5f86028f33fc62,2021-11-01_14h28.02.212,forced_choiceRT_color,2021.2.3,MacIntel,60.0024001,,,,,,,,2,Ontime,long,d,1,1.9907,6,0,24,0,1,,,,,
,0.86,,,,,,,,,f,blue,5f16c677bc5f86028f33fc62,2021-11-01_14h28.02.212,forced_choiceRT_color,2021.2.3,MacIntel,60.0024001,,,,,,,,2,Ontime,long,f,1,2.0849,6,1,25,1,1,,,,,
,1.28,,,,,,,,,k,purple,5f16c677bc5f86028f33fc62,2021-11-01_14h28.02.212,forced_choiceRT_color,2021.2.3,MacIntel,60.0024001,,,,,,,,2,Slow,long,k,1,2.1678,6,2,26,3,1,,,,,
,1.59,,,,,,,,,d,orange,5f16c677bc5f86028f33fc62,2021-11-01_14h28.02.212,forced_choiceRT_color,2021.2.3,MacIntel,60.0024001,,,,,,,,2,Ontime,long,f,0,2.0866,6,3,27,0,1,,,,,
,0.39,,,,,,,,,k,purple,5f16c677bc5f86028f33fc62,2021-11-01_14h28.02.212,forced_choiceRT_color,2021.2.3,MacIntel,60.0024001,,,,,,,,2,Ontime,long,k,1,2.0019,7,0,28,3,1,,,,,
,1.39,,,,,,,,,d,orange,5f16c677bc5f86028f33fc62,2021-11-01_14h28.02.212,forced_choiceRT_color,2021.2.3,MacIntel,60.0024001,,,,,,,,2,Slow,long,d,1,2.1182,7,1,29,0,1,,,,,
,0.26,,,,,,,,,d,orange,5f16c677bc5f86028f33fc62,2021-11-01_14h28.02.212,forced_choiceRT_color,2021.2.3,MacIntel,60.0024001,,,,,,,,2,Ontime,long,d,1,1.9515,7,2,30,0,1,,,,,
,0.89,,,,,,,,,f,blue,5f16c677bc5f86028f33fc62,2021-11-01_14h28.02.212,forced_choiceRT_color,2021.2.3,MacIntel,60.0024001,,,,,,,,2,Ontime,long,j,0,2.0521,7,3,31,1,1,,,,,
,1.82,,,,,,,,,j,red,5f16c677bc5f86028f33fc62,2021-11-01_14h28.02.212,forced_choiceRT_color,2021.2.3,MacIntel,60.0024001,,,,,,,,2,Slow,long,j,1,2.1988,8,0,32,2,1,,,,,
,0.42,,,,,,,,,f,blue,5f16c677bc5f86028f33fc62,2021-11-01_14h28.02.212,forced_choiceRT_color,2021.2.3,MacIntel,60.0024001,,,,,,,,2,Fast,long,f,1,1.8857,8,1,33,1,1,,,,,
,0.14,,,,,,,,,f,blue,5f16c677bc5f86028f33fc62,2021-11-01_14h28.02.212,forced_choiceRT_color,2021.2.3,MacIntel,60.0024001,,,,,,,,2,Ontime,long,f,1,1.9682,8,2,34,1,1,,,,,
,0.12,,,,,,,,,j,red,5f16c677bc5f86028f33fc62,2021-11-01_14h28.02.212,forced_choiceRT_color,2021.2.3,MacIntel,60.0024001,,,,,,,,2,Ontime,long,j,1,1.9678,8,3,35,2,1,,,,,
,0.46,,,,,,,,,j,red,5f16c677bc5f86028f33fc62,2021-11-01_14h28.02.212,forced_choiceRT_color,2021.2.3,MacIntel,60.0024001,,,,,,,,2,Ontime,long,j,1,1.9534,9,0,36,2,1,,,,,
,0.21,,,,,,,,,k,purple,5f16c677bc5f86028f33fc62,2021-11-01_14h28.02.212,forced_choiceRT_color,2021.2.3,MacIntel,60.0024001,,,,,,,,2,Ontime,long,k,1,2.0015,9,1,37,3,1,,,,,
,1.92,,,,,,,,,f,blue,5f16c677bc5f86028f33fc62,2021-11-01_14h28.02.212,forced_choiceRT_color,2021.2.3,MacIntel,60.0024001,,,,,,,,2,Slow,long,j,0,2.2246,9,2,38,1,1,,,,,
,1.06,,,,,,,,,f,blue,5f16c677bc5f86028f33fc62,2021-11-01_14h28.02.212,forced_choiceRT_color,2021.2.3,MacIntel,60.0024001,,,,,,,,2,Ontime,long,f,1,1.9584,9,3,39,1,1,,,,,
,,,,,,,,,,,,5f16c677bc5f86028f33fc62,2021-11-01_14h28.02.212,forced_choiceRT_color,2021.2.3,MacIntel,60.0024001,,,,,,,,,,,,,,,,,,,1,0,1,0,1
,1.43,,,,,,,,,f,blue,5f16c677bc5f86028f33fc62,2021-11-01_14h28.02.212,forced_choiceRT_color,2021.2.3,MacIntel,60.0024001,,,,,,,,3,Slow,long,f,1,2.1812,0,0,0,1,1,,,,,
,1.94,,,,,,,,,j,red,5f16c677bc5f86028f33fc62,2021-11-01_14h28.02.212,forced_choiceRT_color,2021.2.3,MacIntel,60.0024001,,,,,,,,3,Slow,long,k,0,2.1511,0,1,1,2,1,,,,,
,0.52,,,,,,,,,j,red,5f16c677bc5f86028f33fc62,2021-11-01_14h28.02.212,forced_choiceRT_color,2021.2.3,MacIntel,60.0024001,,,,,,,,3,Ontime,long,j,1,2.0187,0,2,2,2,1,,,,,
,1.85,,,,,,,,,k,purple,5f16c677bc5f86028f33fc62,2021-11-01_14h28.02.212,forced_choiceRT_color,2021.2.3,MacIntel,60.0024001,,,,,,,,3,Ontime,long,k,1,2.0703,0,3,3,3,1,,,,,
,0.5,,,,,,,,,k,purple,5f16c677bc5f86028f33fc62,2021-11-01_14h28.02.212,forced_choiceRT_color,2021.2.3,MacIntel,60.0024001,,,,,,,,3,Ontime,long,k,1,2.0681,1,0,4,3,1,,,,,
,1.16,,,,,,,,,f,blue,5f16c677bc5f86028f33fc62,2021-11-01_14h28.02.212,forced_choiceRT_color,2021.2.3,MacIntel,60.0024001,,,,,,,,3,Ontime,long,f,1,1.9677,1,1,5,1,1,,,,,
,0.12,,,,,,,,,f,blue,5f16c677bc5f86028f33fc62,2021-11-01_14h28.02.212,forced_choiceRT_color,2021.2.3,MacIntel,60.0024001,,,,,,,,3,Ontime,long,f,1,1.9681,1,2,6,1,1,,,,,
,0.37,,,,,,,,,j,red,5f16c677bc5f86028f33fc62,2021-11-01_14h28.02.212,forced_choiceRT_color,2021.2.3,MacIntel,60.0024001,,,,,,,,3,Ontime,long,j,1,1.9406,1,3,7,2,1,,,,,
,0.25,,,,,,,,,d,orange,5f16c677bc5f86028f33fc62,2021-11-01_14h28.02.212,forced_choiceRT_color,2021.2.3,MacIntel,60.0024001,,,,,,,,3,Ontime,long,k,0,2.02,2,0,8,0,1,,,,,
,1.03,,,,,,,,,j,red,5f16c677bc5f86028f33fc62,2021-11-01_14h28.02.212,forced_choiceRT_color,2021.2.3,MacIntel,60.0024001,,,,,,,,3,Ontime,long,j,1,2.0524,2,1,9,2,1,,,,,
,0.19,,,,,,,,,d,orange,5f16c677bc5f86028f33fc62,2021-11-01_14h28.02.212,forced_choiceRT_color,2021.2.3,MacIntel,60.0024001,,,,,,,,3,Ontime,long,f,0,2.0268,2,2,10,0,1,,,,,
,0,,,,,,,,,f,blue,5f16c677bc5f86028f33fc62,2021-11-01_14h28.02.212,forced_choiceRT_color,2021.2.3,MacIntel,60.0024001,,,,,,,,3,Ontime,long,f,1,2.0179,2,3,11,1,1,,,,,
,1.27,,,,,,,,,k,purple,5f16c677bc5f86028f33fc62,2021-11-01_14h28.02.212,forced_choiceRT_color,2021.2.3,MacIntel,60.0024001,,,,,,,,3,Ontime,long,k,1,2.0685,3,0,12,3,1,,,,,
,1.95,,,,,,,,,d,orange,5f16c677bc5f86028f33fc62,2021-11-01_14h28.02.212,forced_choiceRT_color,2021.2.3,MacIntel,60.0024001,,,,,,,,3,Slow,long,f,0,2.4348,3,1,13,0,1,,,,,
,1.35,,,,,,,,,j,red,5f16c677bc5f86028f33fc62,2021-11-01_14h28.02.212,forced_choiceRT_color,2021.2.3,MacIntel,60.0024001,,,,,,,,3,Ontime,long,j,1,2.018,3,2,14,2,1,,,,,
,1.13,,,,,,,,,d,orange,5f16c677bc5f86028f33fc62,2021-11-01_14h28.02.212,forced_choiceRT_color,2021.2.3,MacIntel,60.0024001,,,,,,,,3,Ontime,long,d,1,1.936,3,3,15,0,1,,,,,
,1.5,,,,,,,,,f,blue,5f16c677bc5f86028f33fc62,2021-11-01_14h28.02.212,forced_choiceRT_color,2021.2.3,MacIntel,60.0024001,,,,,,,,3,Slow,long,f,1,2.1352,4,0,16,1,1,,,,,
,1.71,,,,,,,,,f,blue,5f16c677bc5f86028f33fc62,2021-11-01_14h28.02.212,forced_choiceRT_color,2021.2.3,MacIntel,60.0024001,,,,,,,,3,Slow,long,j,0,2.1387,4,1,17,1,1,,,,,
,0.49,,,,,,,,,k,purple,5f16c677bc5f86028f33fc62,2021-11-01_14h28.02.212,forced_choiceRT_color,2021.2.3,MacIntel,60.0024001,,,,,,,,3,Ontime,long,k,1,1.9689,4,2,18,3,1,,,,,
,1.34,,,,,,,,,k,purple,5f16c677bc5f86028f33fc62,2021-11-01_14h28.02.212,forced_choiceRT_color,2021.2.3,MacIntel,60.0024001,,,,,,,,3,Ontime,long,k,1,1.906,4,3,19,3,1,,,,,
,0.3,,,,,,,,,k,purple,5f16c677bc5f86028f33fc62,2021-11-01_14h28.02.212,forced_choiceRT_color,2021.2.3,MacIntel,60.0024001,,,,,,,,3,Ontime,long,k,1,2.0397,5,0,20,3,1,,,,,
,1.27,,,,,,,,,j,red,5f16c677bc5f86028f33fc62,2021-11-01_14h28.02.212,forced_choiceRT_color,2021.2.3,MacIntel,60.0024001,,,,,,,,3,Slow,long,f,0,2.1345,5,1,21,2,1,,,,,
,0.35,,,,,,,,,k,purple,5f16c677bc5f86028f33fc62,2021-11-01_14h28.02.212,forced_choiceRT_color,2021.2.3,MacIntel,60.0024001,,,,,,,,3,Ontime,long,k,1,2.0231,5,2,22,3,1,,,,,
,0.8,,,,,,,,,d,orange,5f16c677bc5f86028f33fc62,2021-11-01_14h28.02.212,forced_choiceRT_color,2021.2.3,MacIntel,60.0024001,,,,,,,,3,Ontime,long,d,1,1.955,5,3,23,0,1,,,,,
,1.35,,,,,,,,,d,orange,5f16c677bc5f86028f33fc62,2021-11-01_14h28.02.212,forced_choiceRT_color,2021.2.3,MacIntel,60.0024001,,,,,,,,3,Ontime,long,d,1,2.0353,6,0,24,0,1,,,,,
,1.72,,,,,,,,,j,red,5f16c677bc5f86028f33fc62,2021-11-01_14h28.02.212,forced_choiceRT_color,2021.2.3,MacIntel,60.0024001,,,,,,,,3,Slow,long,k,0,2.1847,6,1,25,2,1,,,,,
,1.55,,,,,,,,,f,blue,5f16c677bc5f86028f33fc62,2021-11-01_14h28.02.212,forced_choiceRT_color,2021.2.3,MacIntel,60.0024001,,,,,,,,3,Ontime,long,f,1,2.035,6,2,26,1,1,,,,,
,0.62,,,,,,,,,d,orange,5f16c677bc5f86028f33fc62,2021-11-01_14h28.02.212,forced_choiceRT_color,2021.2.3,MacIntel,60.0024001,,,,,,,,3,Fast,long,d,1,1.8864,6,3,27,0,1,,,,,
,1.88,,,,,,,,,f,blue,5f16c677bc5f86028f33fc62,2021-11-01_14h28.02.212,forced_choiceRT_color,2021.2.3,MacIntel,60.0024001,,,,,,,,3,Slow,long,j,0,2.1171,7,0,28,1,1,,,,,
,1.53,,,,,,,,,k,purple,5f16c677bc5f86028f33fc62,2021-11-01_14h28.02.212,forced_choiceRT_color,2021.2.3,MacIntel,60.0024001,,,,,,,,3,Ontime,long,k,1,1.9179,7,1,29,3,1,,,,,
,1.46,,,,,,,,,k,purple,5f16c677bc5f86028f33fc62,2021-11-01_14h28.02.212,forced_choiceRT_color,2021.2.3,MacIntel,60.0024001,,,,,,,,3,Ontime,long,k,1,2.0024,7,2,30,3,1,,,,,
,0.52,,,,,,,,,j,red,5f16c677bc5f86028f33fc62,2021-11-01_14h28.02.212,forced_choiceRT_color,2021.2.3,MacIntel,60.0024001,,,,,,,,3,Ontime,long,j,1,2.0538,7,3,31,2,1,,,,,
,0.33,,,,,,,,,f,blue,5f16c677bc5f86028f33fc62,2021-11-01_14h28.02.212,forced_choiceRT_color,2021.2.3,MacIntel,60.0024001,,,,,,,,3,Ontime,long,f,1,2.0668,8,0,32,1,1,,,,,
,0,,,,,,,,,j,red,5f16c677bc5f86028f33fc62,2021-11-01_14h28.02.212,forced_choiceRT_color,2021.2.3,MacIntel,60.0024001,,,,,,,,3,Ontime,long,j,1,2.0012,8,1,33,2,1,,,,,
,1.6,,,,,,,,,k,purple,5f16c677bc5f86028f33fc62,2021-11-01_14h28.02.212,forced_choiceRT_color,2021.2.3,MacIntel,60.0024001,,,,,,,,3,Slow,long,k,1,2.1229,8,2,34,3,1,,,,,
,1.17,,,,,,,,,f,blue,5f16c677bc5f86028f33fc62,2021-11-01_14h28.02.212,forced_choiceRT_color,2021.2.3,MacIntel,60.0024001,,,,,,,,3,Ontime,long,f,1,1.9691,8,3,35,1,1,,,,,
,1.75,,,,,,,,,d,orange,5f16c677bc5f86028f33fc62,2021-11-01_14h28.02.212,forced_choiceRT_color,2021.2.3,MacIntel,60.0024001,,,,,,,,3,Ontime,long,k,0,2.069,9,0,36,0,1,,,,,
,1.82,,,,,,,,,j,red,5f16c677bc5f86028f33fc62,2021-11-01_14h28.02.212,forced_choiceRT_color,2021.2.3,MacIntel,60.0024001,,,,,,,,3,Ontime,long,k,0,2.0893,9,1,37,2,1,,,,,
,1.33,,,,,,,,,d,orange,5f16c677bc5f86028f33fc62,2021-11-01_14h28.02.212,forced_choiceRT_color,2021.2.3,MacIntel,60.0024001,,,,,,,,3,Ontime,long,d,1,1.9184,9,2,38,0,1,,,,,
,0.35,,,,,,,,,d,orange,5f16c677bc5f86028f33fc62,2021-11-01_14h28.02.212,forced_choiceRT_color,2021.2.3,MacIntel,60.0024001,,,,,,,,3,Ontime,long,d,1,1.969,9,3,39,0,1,,,,,
,,,,,,,,,,,,5f16c677bc5f86028f33fc62,2021-11-01_14h28.02.212,forced_choiceRT_color,2021.2.3,MacIntel,60.0024001,,,,,,,,,,,,,,,,,,,2,0,2,0,1
,1.59,,,,,,,,,f,blue,5f16c677bc5f86028f33fc62,2021-11-01_14h28.02.212,forced_choiceRT_color,2021.2.3,MacIntel,60.0024001,,,,,,,,4,Slow,long,k,0,13.2518,0,0,0,1,1,,,,,
,1.93,,,,,,,,,j,red,5f16c677bc5f86028f33fc62,2021-11-01_14h28.02.212,forced_choiceRT_color,2021.2.3,MacIntel,60.0024001,,,,,,,,4,Fast,long,k,0,0.0358,0,1,1,2,1,,,,,
,1.02,,,,,,,,,d,orange,5f16c677bc5f86028f33fc62,2021-11-01_14h28.02.212,forced_choiceRT_color,2021.2.3,MacIntel,60.0024001,,,,,,,,4,Slow,long,d,1,2.1024,0,2,2,0,1,,,,,
,1.02,,,,,,,,,f,blue,5f16c677bc5f86028f33fc62,2021-11-01_14h28.02.212,forced_choiceRT_color,2021.2.3,MacIntel,60.0024001,,,,,,,,4,Fast,long,f,1,1.8846,0,3,3,1,1,,,,,
,1.26,,,,,,,,,d,orange,5f16c677bc5f86028f33fc62,2021-11-01_14h28.02.212,forced_choiceRT_color,2021.2.3,MacIntel,60.0024001,,,,,,,,4,Ontime,long,d,1,2.0684,1,0,4,0,1,,,,,
,0.64,,,,,,,,,f,blue,5f16c677bc5f86028f33fc62,2021-11-01_14h28.02.212,forced_choiceRT_color,2021.2.3,MacIntel,60.0024001,,,,,,,,4,Ontime,long,f,1,1.9684,1,1,5,1,1,,,,,
,0.42,,,,,,,,,k,purple,5f16c677bc5f86028f33fc62,2021-11-01_14h28.02.212,forced_choiceRT_color,2021.2.3,MacIntel,60.0024001,,,,,,,,4,Ontime,long,k,1,2.0194,1,2,6,3,1,,,,,
,0.05,,,,,,,,,j,red,5f16c677bc5f86028f33fc62,2021-11-01_14h28.02.212,forced_choiceRT_color,2021.2.3,MacIntel,60.0024001,,,,,,,,4,Ontime,long,j,1,2.0521,1,3,7,2,1,,,,,
,0.58,,,,,,,,,k,purple,5f16c677bc5f86028f33fc62,2021-11-01_14h28.02.212,forced_choiceRT_color,2021.2.3,MacIntel,60.0024001,,,,,,,,4,Ontime,long,k,1,1.985,2,0,8,3,1,,,,,
,0.69,,,,,,,,,k,purple,5f16c677bc5f86028f33fc62,2021-11-01_14h28.02.212,forced_choiceRT_color,2021.2.3,MacIntel,60.0024001,,,,,,,,4,Ontime,long,k,1,2.0193,2,1,9,3,1,,,,,
,1.99,,,,,,,,,f,blue,5f16c677bc5f86028f33fc62,2021-11-01_14h28.02.212,forced_choiceRT_color,2021.2.3,MacIntel,60.0024001,,,,,,,,4,Slow,long,j,0,2.1867,2,2,10,1,1,,,,,
,0.6,,,,,,,,,k,purple,5f16c677bc5f86028f33fc62,2021-11-01_14h28.02.212,forced_choiceRT_color,2021.2.3,MacIntel,60.0024001,,,,,,,,4,Ontime,long,k,1,1.9851,2,3,11,3,1,,,,,
,1.89,,,,,,,,,j,red,5f16c677bc5f86028f33fc62,2021-11-01_14h28.02.212,forced_choiceRT_color,2021.2.3,MacIntel,60.0024001,,,,,,,,4,Slow,long,j,1,2.1369,3,0,12,2,1,,,,,
,1.93,,,,,,,,,d,orange,5f16c677bc5f86028f33fc62,2021-11-01_14h28.02.212,forced_choiceRT_color,2021.2.3,MacIntel,60.0024001,,,,,,,,4,Slow,long,f,0,2.1349,3,1,13,0,1,,,,,
,0.79,,,,,,,,,k,purple,5f16c677bc5f86028f33fc62,2021-11-01_14h28.02.212,forced_choiceRT_color,2021.2.3,MacIntel,60.0024001,,,,,,,,4,Ontime,long,k,1,1.9856,3,2,14,3,1,,,,,
,0.45,,,,,,,,,f,blue,5f16c677bc5f86028f33fc62,2021-11-01_14h28.02.212,forced_choiceRT_color,2021.2.3,MacIntel,60.0024001,,,,,,,,4,Ontime,long,f,1,2.0184,3,3,15,1,1,,,,,
,0.17,,,,,,,,,j,red,5f16c677bc5f86028f33fc62,2021-11-01_14h28.02.212,forced_choiceRT_color,2021.2.3,MacIntel,60.0024001,,,,,,,,4,Ontime,long,j,1,1.9695,4,0,16,2,1,,,,,
,0.65,,,,,,,,,k,purple,5f16c677bc5f86028f33fc62,2021-11-01_14h28.02.212,forced_choiceRT_color,2021.2.3,MacIntel,60.0024001,,,,,,,,4,Ontime,long,k,1,2.0207,4,1,17,3,1,,,,,
,0.32,,,,,,,,,j,red,5f16c677bc5f86028f33fc62,2021-11-01_14h28.02.212,forced_choiceRT_color,2021.2.3,MacIntel,60.0024001,,,,,,,,4,Ontime,long,j,1,1.9881,4,2,18,2,1,,,,,
,1.56,,,,,,,,,d,orange,5f16c677bc5f86028f33fc62,2021-11-01_14h28.02.212,forced_choiceRT_color,2021.2.3,MacIntel,60.0024001,,,,,,,,4,Ontime,long,f,0,1.9897,4,3,19,0,1,,,,,
,0.5,,,,,,,,,j,red,5f16c677bc5f86028f33fc62,2021-11-01_14h28.02.212,forced_choiceRT_color,2021.2.3,MacIntel,60.0024001,,,,,,,,4,Ontime,long,j,1,1.9511,5,0,20,2,1,,,,,
,0.47,,,,,,,,,k,purple,5f16c677bc5f86028f33fc62,2021-11-01_14h28.02.212,forced_choiceRT_color,2021.2.3,MacIntel,60.0024001,,,,,,,,4,Ontime,long,k,1,1.9524,5,1,21,3,1,,,,,
,1.4,,,,,,,,,d,orange,5f16c677bc5f86028f33fc62,2021-11-01_14h28.02.212,forced_choiceRT_color,2021.2.3,MacIntel,60.0024001,,,,,,,,4,Ontime,long,d,1,2.0686,5,2,22,0,1,,,,,
,1.22,,,,,,,,,j,red,5f16c677bc5f86028f33fc62,2021-11-01_14h28.02.212,forced_choiceRT_color,2021.2.3,MacIntel,60.0024001,,,,,,,,4,Ontime,long,j,1,2.0512,5,3,23,2,1,,,,,
,1.99,,,,,,,,,j,red,5f16c677bc5f86028f33fc62,2021-11-01_14h28.02.212,forced_choiceRT_color,2021.2.3,MacIntel,60.0024001,,,,,,,,4,Slow,long,f,0,2.2184,6,0,24,2,1,,,,,
,1.76,,,,,,,,,k,purple,5f16c677bc5f86028f33fc62,2021-11-01_14h28.02.212,forced_choiceRT_color,2021.2.3,MacIntel,60.0024001,,,,,,,,4,Slow,long,j,0,2.1557,6,1,25,3,1,,,,,
,0.71,,,,,,,,,f,blue,5f16c677bc5f86028f33fc62,2021-11-01_14h28.02.212,forced_choiceRT_color,2021.2.3,MacIntel,60.0024001,,,,,,,,4,Ontime,long,f,1,1.9356,6,2,26,1,1,,,,,
,1.41,,,,,,,,,f,blue,5f16c677bc5f86028f33fc62,2021-11-01_14h28.02.212,forced_choiceRT_color,2021.2.3,MacIntel,60.0024001,,,,,,,,4,Ontime,long,f,1,2.0519,6,3,27,1,1,,,,,
,0.17,,,,,,,,,d,orange,5f16c677bc5f86028f33fc62,2021-11-01_14h28.02.212,forced_choiceRT_color,2021.2.3,MacIntel,60.0024001,,,,,,,,4,Ontime,long,d,1,2.0222,7,0,28,0,1,,,,,
,1.93,,,,,,,,,k,purple,5f16c677bc5f86028f33fc62,2021-11-01_14h28.02.212,forced_choiceRT_color,2021.2.3,MacIntel,60.0024001,,,,,,,,4,Slow,long,j,0,2.2873,7,1,29,3,1,,,,,
,0.84,,,,,,,,,f,blue,5f16c677bc5f86028f33fc62,2021-11-01_14h28.02.212,forced_choiceRT_color,2021.2.3,MacIntel,60.0024001,,,,,,,,4,Ontime,long,f,1,1.9525,7,2,30,1,1,,,,,
,0.65,,,,,,,,,j,red,5f16c677bc5f86028f33fc62,2021-11-01_14h28.02.212,forced_choiceRT_color,2021.2.3,MacIntel,60.0024001,,,,,,,,4,Ontime,long,j,1,1.9752,7,3,31,2,1,,,,,
,1.3,,,,,,,,,d,orange,5f16c677bc5f86028f33fc62,2021-11-01_14h28.02.212,forced_choiceRT_color,2021.2.3,MacIntel,60.0024001,,,,,,,,4,Ontime,long,d,1,1.9844,8,0,32,0,1,,,,,
,1.14,,,,,,,,,j,red,5f16c677bc5f86028f33fc62,2021-11-01_14h28.02.212,forced_choiceRT_color,2021.2.3,MacIntel,60.0024001,,,,,,,,4,Fast,long,j,1,1.8353,8,1,33,2,1,,,,,
,1.02,,,,,,,,,d,orange,5f16c677bc5f86028f33fc62,2021-11-01_14h28.02.212,forced_choiceRT_color,2021.2.3,MacIntel,60.0024001,,,,,,,,4,Slow,long,j,0,2.2195,8,2,34,0,1,,,,,
,0.97,,,,,,,,,f,blue,5f16c677bc5f86028f33fc62,2021-11-01_14h28.02.212,forced_choiceRT_color,2021.2.3,MacIntel,60.0024001,,,,,,,,4,Ontime,long,f,1,1.9722,8,3,35,1,1,,,,,
,1.94,,,,,,,,,d,orange,5f16c677bc5f86028f33fc62,2021-11-01_14h28.02.212,forced_choiceRT_color,2021.2.3,MacIntel,60.0024001,,,,,,,,4,Slow,long,f,0,2.1526,9,0,36,0,1,,,,,
,0.89,,,,,,,,,k,purple,5f16c677bc5f86028f33fc62,2021-11-01_14h28.02.212,forced_choiceRT_color,2021.2.3,MacIntel,60.0024001,,,,,,,,4,Ontime,long,k,1,2.0206,9,1,37,3,1,,,,,
,0.77,,,,,,,,,f,blue,5f16c677bc5f86028f33fc62,2021-11-01_14h28.02.212,forced_choiceRT_color,2021.2.3,MacIntel,60.0024001,,,,,,,,4,Ontime,long,f,1,1.9348,9,2,38,1,1,,,,,
,0.45,,,,,,,,,d,orange,5f16c677bc5f86028f33fc62,2021-11-01_14h28.02.212,forced_choiceRT_color,2021.2.3,MacIntel,60.0024001,,,,,,,,4,Ontime,long,d,1,2.0353,9,3,39,0,1,,,,,
,,,,,,,,,,,,5f16c677bc5f86028f33fc62,2021-11-01_14h28.02.212,forced_choiceRT_color,2021.2.3,MacIntel,60.0024001,,,,,,,,,,,,,,,,,,,3,0,3,0,1
,0.08,,,,,,,,,d,orange,5f16c677bc5f86028f33fc62,2021-11-01_14h28.02.212,forced_choiceRT_color,2021.2.3,MacIntel,60.0024001,,,,,,,,5,Fast,long,d,1,1.6016,0,0,0,0,1,,,,,
,1.31,,,,,,,,,k,purple,5f16c677bc5f86028f33fc62,2021-11-01_14h28.02.212,forced_choiceRT_color,2021.2.3,MacIntel,60.0024001,,,,,,,,5,Ontime,long,k,1,2.0694,0,1,1,3,1,,,,,
,1.58,,,,,,,,,j,red,5f16c677bc5f86028f33fc62,2021-11-01_14h28.02.212,forced_choiceRT_color,2021.2.3,MacIntel,60.0024001,,,,,,,,5,Ontime,long,f,0,2.0683,0,2,2,2,1,,,,,
,0.44,,,,,,,,,k,purple,5f16c677bc5f86028f33fc62,2021-11-01_14h28.02.212,forced_choiceRT_color,2021.2.3,MacIntel,60.0024001,,,,,,,,5,Ontime,long,k,1,1.9867,0,3,3,3,1,,,,,
,1.21,,,,,,,,,f,blue,5f16c677bc5f86028f33fc62,2021-11-01_14h28.02.212,forced_choiceRT_color,2021.2.3,MacIntel,60.0024001,,,,,,,,5,Ontime,long,f,1,2.005,1,0,4,1,1,,,,,
,1.01,,,,,,,,,k,purple,5f16c677bc5f86028f33fc62,2021-11-01_14h28.02.212,forced_choiceRT_color,2021.2.3,MacIntel,60.0024001,,,,,,,,5,Ontime,long,k,1,2.0548,1,1,5,3,1,,,,,
,0.08,,,,,,,,,j,red,5f16c677bc5f86028f33fc62,2021-11-01_14h28.02.212,forced_choiceRT_color,2021.2.3,MacIntel,60.0024001,,,,,,,,5,Ontime,long,j,1,2.0852,1,2,6,2,1,,,,,
,1.7,,,,,,,,,d,orange,5f16c677bc5f86028f33fc62,2021-11-01_14h28.02.212,forced_choiceRT_color,2021.2.3,MacIntel,60.0024001,,,,,,,,5,Slow,long,k,0,2.1345,1,3,7,0,1,,,,,
,1.35,,,,,,,,,f,blue,5f16c677bc5f86028f33fc62,2021-11-01_14h28.02.212,forced_choiceRT_color,2021.2.3,MacIntel,60.0024001,,,,,,,,5,Ontime,long,j,0,2.0852,2,0,8,1,1,,,,,
,0.9,,,,,,,,,f,blue,5f16c677bc5f86028f33fc62,2021-11-01_14h28.02.212,forced_choiceRT_color,2021.2.3,MacIntel,60.0024001,,,,,,,,5,Ontime,long,f,1,1.9388,2,1,9,1,1,,,,,
,0.73,,,,,,,,,j,red,5f16c677bc5f86028f33fc62,2021-11-01_14h28.02.212,forced_choiceRT_color,2021.2.3,MacIntel,60.0024001,,,,,,,,5,Ontime,long,j,1,1.984,2,2,10,2,1,,,,,
,1.86,,,,,,,,,d,orange,5f16c677bc5f86028f33fc62,2021-11-01_14h28.02.212,forced_choiceRT_color,2021.2.3,MacIntel,60.0024001,,,,,,,,5,Ontime,long,k,0,2.0185,2,3,11,0,1,,,,,
,0.06,,,,,,,,,j,red,5f16c677bc5f86028f33fc62,2021-11-01_14h28.02.212,forced_choiceRT_color,2021.2.3,MacIntel,60.0024001,,,,,,,,5,Ontime,long,j,1,1.9559,3,0,12,2,1,,,,,
,0.4,,,,,,,,,j,red,5f16c677bc5f86028f33fc62,2021-11-01_14h28.02.212,forced_choiceRT_color,2021.2.3,MacIntel,60.0024001,,,,,,,,5,Ontime,long,j,1,1.936,3,1,13,2,1,,,,,
,0.52,,,,,,,,,k,purple,5f16c677bc5f86028f33fc62,2021-11-01_14h28.02.212,forced_choiceRT_color,2021.2.3,MacIntel,60.0024001,,,,,,,,5,Ontime,long,k,1,2.0017,3,2,14,3,1,,,,,
,0.69,,,,,,,,,d,orange,5f16c677bc5f86028f33fc62,2021-11-01_14h28.02.212,forced_choiceRT_color,2021.2.3,MacIntel,60.0024001,,,,,,,,5,Ontime,long,d,1,2.002,3,3,15,0,1,,,,,
,1.03,,,,,,,,,j,red,5f16c677bc5f86028f33fc62,2021-11-01_14h28.02.212,forced_choiceRT_color,2021.2.3,MacIntel,60.0024001,,,,,,,,5,Ontime,long,j,1,1.9256,4,0,16,2,1,,,,,
,0.91,,,,,,,,,k,purple,5f16c677bc5f86028f33fc62,2021-11-01_14h28.02.212,forced_choiceRT_color,2021.2.3,MacIntel,60.0024001,,,,,,,,5,Ontime,long,k,1,2.0027,4,1,17,3,1,,,,,
,1.22,,,,,,,,,d,orange,5f16c677bc5f86028f33fc62,2021-11-01_14h28.02.212,forced_choiceRT_color,2021.2.3,MacIntel,60.0024001,,,,,,,,5,Ontime,long,d,1,2.0689,4,2,18,0,1,,,,,
,0.94,,,,,,,,,f,blue,5f16c677bc5f86028f33fc62,2021-11-01_14h28.02.212,forced_choiceRT_color,2021.2.3,MacIntel,60.0024001,,,,,,,,5,Ontime,long,f,1,2.0019,4,3,19,1,1,,,,,
,1.5,,,,,,,,,j,red,5f16c677bc5f86028f33fc62,2021-11-01_14h28.02.212,forced_choiceRT_color,2021.2.3,MacIntel,60.0024001,,,,,,,,5,Slow,long,j,1,2.1398,5,0,20,2,1,,,,,
,0.28,,,,,,,,,f,blue,5f16c677bc5f86028f33fc62,2021-11-01_14h28.02.212,forced_choiceRT_color,2021.2.3,MacIntel,60.0024001,,,,,,,,5,Ontime,long,f,1,2.0356,5,1,21,1,1,,,,,
,1.28,,,,,,,,,k,purple,5f16c677bc5f86028f33fc62,2021-11-01_14h28.02.212,forced_choiceRT_color,2021.2.3,MacIntel,60.0024001,,,,,,,,5,Ontime,long,k,1,2.0522,5,2,22,3,1,,,,,
,1.53,,,,,,,,,d,orange,5f16c677bc5f86028f33fc62,2021-11-01_14h28.02.212,forced_choiceRT_color,2021.2.3,MacIntel,60.0024001,,,,,,,,5,Ontime,long,j,0,2.0723,5,3,23,0,1,,,,,
,0.79,,,,,,,,,k,purple,5f16c677bc5f86028f33fc62,2021-11-01_14h28.02.212,forced_choiceRT_color,2021.2.3,MacIntel,60.0024001,,,,,,,,5,Ontime,long,k,1,1.9866,6,0,24,3,1,,,,,
,0.42,,,,,,,,,f,blue,5f16c677bc5f86028f33fc62,2021-11-01_14h28.02.212,forced_choiceRT_color,2021.2.3,MacIntel,60.0024001,,,,,,,,5,Ontime,long,f,1,1.935,6,1,25,1,1,,,,,
,0.87,,,,,,,,,f,blue,5f16c677bc5f86028f33fc62,2021-11-01_14h28.02.212,forced_choiceRT_color,2021.2.3,MacIntel,60.0024001,,,,,,,,5,Ontime,long,f,1,1.9535,6,2,26,1,1,,,,,
,1.41,,,,,,,,,f,blue,5f16c677bc5f86028f33fc62,2021-11-01_14h28.02.212,forced_choiceRT_color,2021.2.3,MacIntel,60.0024001,,,,,,,,5,Ontime,long,f,1,2.0521,6,3,27,1,1,,,,,
,1.32,,,,,,,,,d,orange,5f16c677bc5f86028f33fc62,2021-11-01_14h28.02.212,forced_choiceRT_color,2021.2.3,MacIntel,60.0024001,,,,,,,,5,Ontime,long,d,1,2.0515,7,0,28,0,1,,,,,
,1.39,,,,,,,,,j,red,5f16c677bc5f86028f33fc62,2021-11-01_14h28.02.212,forced_choiceRT_color,2021.2.3,MacIntel,60.0024001,,,,,,,,5,Ontime,long,j,1,2.0013,7,1,29,2,1,,,,,
,0.39,,,,,,,,,j,red,5f16c677bc5f86028f33fc62,2021-11-01_14h28.02.212,forced_choiceRT_color,2021.2.3,MacIntel,60.0024001,,,,,,,,5,Ontime,long,j,1,2.006,7,2,30,2,1,,,,,
,0.24,,,,,,,,,f,blue,5f16c677bc5f86028f33fc62,2021-11-01_14h28.02.212,forced_choiceRT_color,2021.2.3,MacIntel,60.0024001,,,,,,,,5,Ontime,long,f,1,1.9895,7,3,31,1,1,,,,,
,1.99,,,,,,,,,d,orange,5f16c677bc5f86028f33fc62,2021-11-01_14h28.02.212,forced_choiceRT_color,2021.2.3,MacIntel,60.0024001,,,,,,,,5,Ontime,long,k,0,1.937,8,0,32,0,1,,,,,
,0.98,,,,,,,,,d,orange,5f16c677bc5f86028f33fc62,2021-11-01_14h28.02.212,forced_choiceRT_color,2021.2.3,MacIntel,60.0024001,,,,,,,,5,Ontime,long,d,1,1.9864,8,1,33,0,1,,,,,
,0.35,,,,,,,,,f,blue,5f16c677bc5f86028f33fc62,2021-11-01_14h28.02.212,forced_choiceRT_color,2021.2.3,MacIntel,60.0024001,,,,,,,,5,Ontime,long,f,1,2.0205,8,2,34,1,1,,,,,
,1.72,,,,,,,,,d,orange,5f16c677bc5f86028f33fc62,2021-11-01_14h28.02.212,forced_choiceRT_color,2021.2.3,MacIntel,60.0024001,,,,,,,,5,Ontime,long,k,0,2.0191,8,3,35,0,1,,,,,
,1.8,,,,,,,,,k,purple,5f16c677bc5f86028f33fc62,2021-11-01_14h28.02.212,forced_choiceRT_color,2021.2.3,MacIntel,60.0024001,,,,,,,,5,Ontime,long,j,0,2.021,9,0,36,3,1,,,,,
,1.45,,,,,,,,,j,red,5f16c677bc5f86028f33fc62,2021-11-01_14h28.02.212,forced_choiceRT_color,2021.2.3,MacIntel,60.0024001,,,,,,,,5,Slow,long,j,1,2.1016,9,1,37,2,1,,,,,
,1.63,,,,,,,,,k,purple,5f16c677bc5f86028f33fc62,2021-11-01_14h28.02.212,forced_choiceRT_color,2021.2.3,MacIntel,60.0024001,,,,,,,,5,Ontime,long,k,1,2.0849,9,2,38,3,1,,,,,
,0,,,,,,,,,k,purple,5f16c677bc5f86028f33fc62,2021-11-01_14h28.02.212,forced_choiceRT_color,2021.2.3,MacIntel,60.0024001,,,,,,,,5,Ontime,long,k,1,2.0065,9,3,39,3,1,,,,,
,,,,,,,,,,,,5f16c677bc5f86028f33fc62,2021-11-01_14h28.02.212,forced_choiceRT_color,2021.2.3,MacIntel,60.0024001,,,,,,,,,,,,,,,,,,,4,0,4,0,1
,0.57,,,,,,,,,d,orange,5f16c677bc5f86028f33fc62,2021-11-01_14h28.02.212,forced_choiceRT_color,2021.2.3,MacIntel,60.0024001,,,,,,,,6,Ontime,long,d,1,2.0524,0,0,0,0,1,,,,,
,0.18,,,,,,,,,k,purple,5f16c677bc5f86028f33fc62,2021-11-01_14h28.02.212,forced_choiceRT_color,2021.2.3,MacIntel,60.0024001,,,,,,,,6,Ontime,long,k,1,2.0357,0,1,1,3,1,,,,,
,0.56,,,,,,,,,f,blue,5f16c677bc5f86028f33fc62,2021-11-01_14h28.02.212,forced_choiceRT_color,2021.2.3,MacIntel,60.0024001,,,,,,,,6,Ontime,long,f,1,2.0353,0,2,2,1,1,,,,,
,0.22,,,,,,,,,j,red,5f16c677bc5f86028f33fc62,2021-11-01_14h28.02.212,forced_choiceRT_color,2021.2.3,MacIntel,60.0024001,,,,,,,,6,Ontime,long,j,1,1.9695,0,3,3,2,1,,,,,
,1.98,,,,,,,,,d,orange,5f16c677bc5f86028f33fc62,2021-11-01_14h28.02.212,forced_choiceRT_color,2021.2.3,MacIntel,60.0024001,,,,,,,,6,Ontime,long,d,1,2.0354,1,0,4,0,1,,,,,
,1.31,,,,,,,,,f,blue,5f16c677bc5f86028f33fc62,2021-11-01_14h28.02.212,forced_choiceRT_color,2021.2.3,MacIntel,60.0024001,,,,,,,,6,Ontime,long,j,0,2.0732,1,1,5,1,1,,,,,
,0.36,,,,,,,,,j,red,5f16c677bc5f86028f33fc62,2021-11-01_14h28.02.212,forced_choiceRT_color,2021.2.3,MacIntel,60.0024001,,,,,,,,6,Ontime,long,j,1,1.9382,1,2,6,2,1,,,,,
,0.43,,,,,,,,,j,red,5f16c677bc5f86028f33fc62,2021-11-01_14h28.02.212,forced_choiceRT_color,2021.2.3,MacIntel,60.0024001,,,,,,,,6,Ontime,long,j,1,1.9543,1,3,7,2,1,,,,,
,0.73,,,,,,,,,d,orange,5f16c677bc5f86028f33fc62,2021-11-01_14h28.02.212,forced_choiceRT_color,2021.2.3,MacIntel,60.0024001,,,,,,,,6,Ontime,long,d,1,1.9701,2,0,8,0,1,,,,,
,1.29,,,,,,,,,d,orange,5f16c677bc5f86028f33fc62,2021-11-01_14h28.02.212,forced_choiceRT_color,2021.2.3,MacIntel,60.0024001,,,,,,,,6,Ontime,long,d,1,2.0208,2,1,9,0,1,,,,,
,1.19,,,,,,,,,j,red,5f16c677bc5f86028f33fc62,2021-11-01_14h28.02.212,forced_choiceRT_color,2021.2.3,MacIntel,60.0024001,,,,,,,,6,Ontime,long,j,1,2.0021,2,2,10,2,1,,,,,
,1.33,,,,,,,,,k,purple,5f16c677bc5f86028f33fc62,2021-11-01_14h28.02.212,forced_choiceRT_color,2021.2.3,MacIntel,60.0024001,,,,,,,,6,Ontime,long,k,1,2.0033,2,3,11,3,1,,,,,
,1.46,,,,,,,,,f,blue,5f16c677bc5f86028f33fc62,2021-11-01_14h28.02.212,forced_choiceRT_color,2021.2.3,MacIntel,60.0024001,,,,,,,,6,Slow,long,f,1,3.1231,3,0,12,1,1,,,,,
,1.84,,,,,,,,,d,orange,5f16c677bc5f86028f33fc62,2021-11-01_14h28.02.212,forced_choiceRT_color,2021.2.3,MacIntel,60.0024001,,,,,,,,6,Ontime,long,f,0,2.0533,3,1,13,0,1,,,,,
,0.85,,,,,,,,,j,red,5f16c677bc5f86028f33fc62,2021-11-01_14h28.02.212,forced_choiceRT_color,2021.2.3,MacIntel,60.0024001,,,,,,,,6,Ontime,long,j,1,1.9847,3,2,14,2,1,,,,,
,1.85,,,,,,,,,k,purple,5f16c677bc5f86028f33fc62,2021-11-01_14h28.02.212,forced_choiceRT_color,2021.2.3,MacIntel,60.0024001,,,,,,,,6,Ontime,long,f,0,2.0733,3,3,15,3,1,,,,,
,1.87,,,,,,,,,k,purple,5f16c677bc5f86028f33fc62,2021-11-01_14h28.02.212,forced_choiceRT_color,2021.2.3,MacIntel,60.0024001,,,,,,,,6,Ontime,long,d,0,2.0522,4,0,16,3,1,,,,,
,0.35,,,,,,,,,k,purple,5f16c677bc5f86028f33fc62,2021-11-01_14h28.02.212,forced_choiceRT_color,2021.2.3,MacIntel,60.0024001,,,,,,,,6,Ontime,long,k,1,1.9693,4,1,17,3,1,,,,,
,1.49,,,,,,,,,k,purple,5f16c677bc5f86028f33fc62,2021-11-01_14h28.02.212,forced_choiceRT_color,2021.2.3,MacIntel,60.0024001,,,,,,,,6,Ontime,long,k,1,2.0033,4,2,18,3,1,,,,,
,0.01,,,,,,,,,f,blue,5f16c677bc5f86028f33fc62,2021-11-01_14h28.02.212,forced_choiceRT_color,2021.2.3,MacIntel,60.0024001,,,,,,,,6,Slow,long,f,1,2.1353,4,3,19,1,1,,,,,
,1.48,,,,,,,,,f,blue,5f16c677bc5f86028f33fc62,2021-11-01_14h28.02.212,forced_choiceRT_color,2021.2.3,MacIntel,60.0024001,,,,,,,,6,Slow,long,f,1,2.1179,5,0,20,1,1,,,,,
,0.15,,,,,,,,,d,orange,5f16c677bc5f86028f33fc62,2021-11-01_14h28.02.212,forced_choiceRT_color,2021.2.3,MacIntel,60.0024001,,,,,,,,6,Ontime,long,d,1,2.0183,5,1,21,0,1,,,,,
,1.22,,,,,,,,,f,blue,5f16c677bc5f86028f33fc62,2021-11-01_14h28.02.212,forced_choiceRT_color,2021.2.3,MacIntel,60.0024001,,,,,,,,6,Ontime,long,f,1,2.0245,5,2,22,1,1,,,,,
,1.85,,,,,,,,,k,purple,5f16c677bc5f86028f33fc62,2021-11-01_14h28.02.212,forced_choiceRT_color,2021.2.3,MacIntel,60.0024001,,,,,,,,6,Ontime,long,d,0,2.0718,5,3,23,3,1,,,,,
,0.26,,,,,,,,,k,purple,5f16c677bc5f86028f33fc62,2021-11-01_14h28.02.212,forced_choiceRT_color,2021.2.3,MacIntel,60.0024001,,,,,,,,6,Ontime,long,k,1,1.9521,6,0,24,3,1,,,,,
,1.18,,,,,,,,,j,red,5f16c677bc5f86028f33fc62,2021-11-01_14h28.02.212,forced_choiceRT_color,2021.2.3,MacIntel,60.0024001,,,,,,,,6,Ontime,long,j,1,2.041,6,1,25,2,1,,,,,
,0.86,,,,,,,,,f,blue,5f16c677bc5f86028f33fc62,2021-11-01_14h28.02.212,forced_choiceRT_color,2021.2.3,MacIntel,60.0024001,,,,,,,,6,Ontime,long,f,1,2.0024,6,2,26,1,1,,,,,
,1.36,,,,,,,,,f,blue,5f16c677bc5f86028f33fc62,2021-11-01_14h28.02.212,forced_choiceRT_color,2021.2.3,MacIntel,60.0024001,,,,,,,,6,Ontime,long,f,1,2.0215,6,3,27,1,1,,,,,
,0.37,,,,,,,,,d,orange,5f16c677bc5f86028f33fc62,2021-11-01_14h28.02.212,forced_choiceRT_color,2021.2.3,MacIntel,60.0024001,,,,,,,,6,Ontime,long,d,1,1.9519,7,0,28,0,1,,,,,
,0.93,,,,,,,,,j,red,5f16c677bc5f86028f33fc62,2021-11-01_14h28.02.212,forced_choiceRT_color,2021.2.3,MacIntel,60.0024001,,,,,,,,6,Ontime,long,j,1,1.9231,7,1,29,2,1,,,,,
,1.54,,,,,,,,,d,orange,5f16c677bc5f86028f33fc62,2021-11-01_14h28.02.212,forced_choiceRT_color,2021.2.3,MacIntel,60.0024001,,,,,,,,6,Ontime,long,k,0,2.0197,7,2,30,0,1,,,,,
,0.32,,,,,,,,,k,purple,5f16c677bc5f86028f33fc62,2021-11-01_14h28.02.212,forced_choiceRT_color,2021.2.3,MacIntel,60.0024001,,,,,,,,6,Ontime,long,k,1,1.9882,7,3,31,3,1,,,,,
,0.78,,,,,,,,,f,blue,5f16c677bc5f86028f33fc62,2021-11-01_14h28.02.212,forced_choiceRT_color,2021.2.3,MacIntel,60.0024001,,,,,,,,6,Ontime,long,f,1,1.9856,8,0,32,1,1,,,,,
,0.77,,,,,,,,,j,red,5f16c677bc5f86028f33fc62,2021-11-01_14h28.02.212,forced_choiceRT_color,2021.2.3,MacIntel,60.0024001,,,,,,,,6,Ontime,long,j,1,2.0198,8,1,33,2,1,,,,,
,0.07,,,,,,,,,k,purple,5f16c677bc5f86028f33fc62,2021-11-01_14h28.02.212,forced_choiceRT_color,2021.2.3,MacIntel,60.0024001,,,,,,,,6,Ontime,long,k,1,2.04,8,2,34,3,1,,,,,
,0.09,,,,,,,,,j,red,5f16c677bc5f86028f33fc62,2021-11-01_14h28.02.212,forced_choiceRT_color,2021.2.3,MacIntel,60.0024001,,,,,,,,6,Ontime,long,j,1,2.005,8,3,35,2,1,,,,,
,1.08,,,,,,,,,d,orange,5f16c677bc5f86028f33fc62,2021-11-01_14h28.02.212,forced_choiceRT_color,2021.2.3,MacIntel,60.0024001,,,,,,,,6,Ontime,long,d,1,2.0526,9,0,36,0,1,,,,,
,1.73,,,,,,,,,d,orange,5f16c677bc5f86028f33fc62,2021-11-01_14h28.02.212,forced_choiceRT_color,2021.2.3,MacIntel,60.0024001,,,,,,,,6,Ontime,long,f,0,2.0378,9,1,37,0,1,,,,,
,1.1,,,,,,,,,f,blue,5f16c677bc5f86028f33fc62,2021-11-01_14h28.02.212,forced_choiceRT_color,2021.2.3,MacIntel,60.0024001,,,,,,,,6,Ontime,long,d,0,1.9562,9,2,38,1,1,,,,,
,1.91,,,,,,,,,j,red,5f16c677bc5f86028f33fc62,2021-11-01_14h28.02.212,forced_choiceRT_color,2021.2.3,MacIntel,60.0024001,,,,,,,,6,Ontime,long,f,0,2.0526,9,3,39,2,1,,,,,
,,,,,,,,,,,,5f16c677bc5f86028f33fc62,2021-11-01_14h28.02.212,forced_choiceRT_color,2021.2.3,MacIntel,60.0024001,,,,,,,,,,,,,,,,,,,5,0,5,0,1
,1.45,,,,,,,,,k,purple,5f16c677bc5f86028f33fc62,2021-11-01_14h28.02.212,forced_choiceRT_color,2021.2.3,MacIntel,60.0024001,,,,,,,,7,Fast,long,k,1,1.8188,0,0,0,3,1,,,,,
,0.46,,,,,,,,,f,blue,5f16c677bc5f86028f33fc62,2021-11-01_14h28.02.212,forced_choiceRT_color,2021.2.3,MacIntel,60.0024001,,,,,,,,7,Ontime,long,f,1,1.9689,0,1,1,1,1,,,,,
,0.07,,,,,,,,,d,orange,5f16c677bc5f86028f33fc62,2021-11-01_14h28.02.212,forced_choiceRT_color,2021.2.3,MacIntel,60.0024001,,,,,,,,7,Ontime,long,d,1,1.9838,0,2,2,0,1,,,,,
,0.44,,,,,,,,,d,orange,5f16c677bc5f86028f33fc62,2021-11-01_14h28.02.212,forced_choiceRT_color,2021.2.3,MacIntel,60.0024001,,,,,,,,7,Ontime,long,d,1,1.9686,0,3,3,0,1,,,,,
,0.16,,,,,,,,,d,orange,5f16c677bc5f86028f33fc62,2021-11-01_14h28.02.212,forced_choiceRT_color,2021.2.3,MacIntel,60.0024001,,,,,,,,7,Ontime,long,d,1,2.0021,1,0,4,0,1,,,,,
,1.63,,,,,,,,,d,orange,5f16c677bc5f86028f33fc62,2021-11-01_14h28.02.212,forced_choiceRT_color,2021.2.3,MacIntel,60.0024001,,,,,,,,7,Ontime,long,j,0,2.0518,1,1,5,0,1,,,,,
,1.61,,,,,,,,,f,blue,5f16c677bc5f86028f33fc62,2021-11-01_14h28.02.212,forced_choiceRT_color,2021.2.3,MacIntel,60.0024001,,,,,,,,7,Slow,long,j,0,2.1184,1,2,6,1,1,,,,,
,1.75,,,,,,,,,j,red,5f16c677bc5f86028f33fc62,2021-11-01_14h28.02.212,forced_choiceRT_color,2021.2.3,MacIntel,60.0024001,,,,,,,,7,Ontime,long,k,0,2.0695,1,3,7,2,1,,,,,
,1.46,,,,,,,,,d,orange,5f16c677bc5f86028f33fc62,2021-11-01_14h28.02.212,forced_choiceRT_color,2021.2.3,MacIntel,60.0024001,,,,,,,,7,Ontime,long,d,1,2.0358,2,0,8,0,1,,,,,
,1.3,,,,,,,,,j,red,5f16c677bc5f86028f33fc62,2021-11-01_14h28.02.212,forced_choiceRT_color,2021.2.3,MacIntel,60.0024001,,,,,,,,7,Ontime,long,j,1,1.9682,2,1,9,2,1,,,,,
,1.42,,,,,,,,,f,blue,5f16c677bc5f86028f33fc62,2021-11-01_14h28.02.212,forced_choiceRT_color,2021.2.3,MacIntel,60.0024001,,,,,,,,7,Ontime,long,f,1,1.9544,2,2,10,1,1,,,,,
,0.01,,,,,,,,,k,purple,5f16c677bc5f86028f33fc62,2021-11-01_14h28.02.212,forced_choiceRT_color,2021.2.3,MacIntel,60.0024001,,,,,,,,7,Ontime,long,k,1,2.0194,2,3,11,3,1,,,,,
,0.07,,,,,,,,,f,blue,5f16c677bc5f86028f33fc62,2021-11-01_14h28.02.212,forced_choiceRT_color,2021.2.3,MacIntel,60.0024001,,,,,,,,7,Ontime,long,f,1,2.0519,3,0,12,1,1,,,,,
,1.7,,,,,,,,,d,orange,5f16c677bc5f86028f33fc62,2021-11-01_14h28.02.212,forced_choiceRT_color,2021.2.3,MacIntel,60.0024001,,,,,,,,7,Ontime,long,j,0,2.0542,3,1,13,0,1,,,,,
,1.71,,,,,,,,,k,purple,5f16c677bc5f86028f33fc62,2021-11-01_14h28.02.212,forced_choiceRT_color,2021.2.3,MacIntel,60.0024001,,,,,,,,7,Slow,long,k,1,2.118,3,2,14,3,1,,,,,
,0.29,,,,,,,,,j,red,5f16c677bc5f86028f33fc62,2021-11-01_14h28.02.212,forced_choiceRT_color,2021.2.3,MacIntel,60.0024001,,,,,,,,7,Ontime,long,j,1,1.9357,3,3,15,2,1,,,,,
,0.52,,,,,,,,,k,purple,5f16c677bc5f86028f33fc62,2021-11-01_14h28.02.212,forced_choiceRT_color,2021.2.3,MacIntel,60.0024001,,,,,,,,7,Ontime,long,k,1,1.9518,4,0,16,3,1,,,,,
,0.45,,,,,,,,,d,orange,5f16c677bc5f86028f33fc62,2021-11-01_14h28.02.212,forced_choiceRT_color,2021.2.3,MacIntel,60.0024001,,,,,,,,7,Ontime,long,d,1,2.0534,4,1,17,0,1,,,,,
,1.44,,,,,,,,,f,blue,5f16c677bc5f86028f33fc62,2021-11-01_14h28.02.212,forced_choiceRT_color,2021.2.3,MacIntel,60.0024001,,,,,,,,7,Ontime,long,k,0,2.0683,4,2,18,1,1,,,,,
,0.19,,,,,,,,,k,purple,5f16c677bc5f86028f33fc62,2021-11-01_14h28.02.212,forced_choiceRT_color,2021.2.3,MacIntel,60.0024001,,,,,,,,7,Slow,long,j,0,5.3848,4,3,19,3,1,,,,,
,0.78,,,,,,,,,f,blue,5f16c677bc5f86028f33fc62,2021-11-01_14h28.02.212,forced_choiceRT_color,2021.2.3,MacIntel,60.0024001,,,,,,,,7,Ontime,long,f,1,1.9878,5,0,20,1,1,,,,,
,0.19,,,,,,,,,k,purple,5f16c677bc5f86028f33fc62,2021-11-01_14h28.02.212,forced_choiceRT_color,2021.2.3,MacIntel,60.0024001,,,,,,,,7,Ontime,long,k,1,2.0236,5,1,21,3,1,,,,,
,0.09,,,,,,,,,j,red,5f16c677bc5f86028f33fc62,2021-11-01_14h28.02.212,forced_choiceRT_color,2021.2.3,MacIntel,60.0024001,,,,,,,,7,Ontime,long,j,1,1.9525,5,2,22,2,1,,,,,
,0.53,,,,,,,,,j,red,5f16c677bc5f86028f33fc62,2021-11-01_14h28.02.212,forced_choiceRT_color,2021.2.3,MacIntel,60.0024001,,,,,,,,7,Fast,long,j,1,1.8977,5,3,23,2,1,,,,,
,1.46,,,,,,,,,k,purple,5f16c677bc5f86028f33fc62,2021-11-01_14h28.02.212,forced_choiceRT_color,2021.2.3,MacIntel,60.0024001,,,,,,,,7,Ontime,long,k,1,2.0685,6,0,24,3,1,,,,,
,1.87,,,,,,,,,f,blue,5f16c677bc5f86028f33fc62,2021-11-01_14h28.02.212,forced_choiceRT_color,2021.2.3,MacIntel,60.0024001,,,,,,,,7,Ontime,long,f,1,2.0517,6,1,25,1,1,,,,,
,1.07,,,,,,,,,d,orange,5f16c677bc5f86028f33fc62,2021-11-01_14h28.02.212,forced_choiceRT_color,2021.2.3,MacIntel,60.0024001,,,,,,,,7,Ontime,long,d,1,1.9857,6,2,26,0,1,,,,,
,0.2,,,,,,,,,d,orange,5f16c677bc5f86028f33fc62,2021-11-01_14h28.02.212,forced_choiceRT_color,2021.2.3,MacIntel,60.0024001,,,,,,,,7,Ontime,long,d,1,1.9685,6,3,27,0,1,,,,,
,0.92,,,,,,,,,f,blue,5f16c677bc5f86028f33fc62,2021-11-01_14h28.02.212,forced_choiceRT_color,2021.2.3,MacIntel,60.0024001,,,,,,,,7,Ontime,long,f,1,1.9517,7,0,28,1,1,,,,,
,1.31,,,,,,,,,f,blue,5f16c677bc5f86028f33fc62,2021-11-01_14h28.02.212,forced_choiceRT_color,2021.2.3,MacIntel,60.0024001,,,,,,,,7,Ontime,long,f,1,2.0067,7,1,29,1,1,,,,,
,1.97,,,,,,,,,k,purple,5f16c677bc5f86028f33fc62,2021-11-01_14h28.02.212,forced_choiceRT_color,2021.2.3,MacIntel,60.0024001,,,,,,,,7,Slow,long,k,1,2.1037,7,2,30,3,1,,,,,
,1.53,,,,,,,,,k,purple,5f16c677bc5f86028f33fc62,2021-11-01_14h28.02.212,forced_choiceRT_color,2021.2.3,MacIntel,60.0024001,,,,,,,,7,Slow,long,k,1,2.1849,7,3,31,3,1,,,,,
,0.33,,,,,,,,,j,red,5f16c677bc5f86028f33fc62,2021-11-01_14h28.02.212,forced_choiceRT_color,2021.2.3,MacIntel,60.0024001,,,,,,,,7,Ontime,long,j,1,2.0394,8,0,32,2,1,,,,,
,0.77,,,,,,,,,f,blue,5f16c677bc5f86028f33fc62,2021-11-01_14h28.02.212,forced_choiceRT_color,2021.2.3,MacIntel,60.0024001,,,,,,,,7,Ontime,long,f,1,2.0019,8,1,33,1,1,,,,,
,1.34,,,,,,,,,j,red,5f16c677bc5f86028f33fc62,2021-11-01_14h28.02.212,forced_choiceRT_color,2021.2.3,MacIntel,60.0024001,,,,,,,,7,Ontime,long,f,0,2.0194,8,2,34,2,1,,,,,
,0.36,,,,,,,,,j,red,5f16c677bc5f86028f33fc62,2021-11-01_14h28.02.212,forced_choiceRT_color,2021.2.3,MacIntel,60.0024001,,,,,,,,7,Ontime,long,j,1,1.9853,8,3,35,2,1,,,,,
,0.61,,,,,,,,,k,purple,5f16c677bc5f86028f33fc62,2021-11-01_14h28.02.212,forced_choiceRT_color,2021.2.3,MacIntel,60.0024001,,,,,,,,7,Ontime,long,k,1,1.9851,9,0,36,3,1,,,,,
,1.64,,,,,,,,,j,red,5f16c677bc5f86028f33fc62,2021-11-01_14h28.02.212,forced_choiceRT_color,2021.2.3,MacIntel,60.0024001,,,,,,,,7,Ontime,long,j,1,1.9852,9,1,37,2,1,,,,,
,0.58,,,,,,,,,j,red,5f16c677bc5f86028f33fc62,2021-11-01_14h28.02.212,forced_choiceRT_color,2021.2.3,MacIntel,60.0024001,,,,,,,,7,Ontime,long,j,1,2.0224,9,2,38,2,1,,,,,
,0.62,,,,,,,,,d,orange,5f16c677bc5f86028f33fc62,2021-11-01_14h28.02.212,forced_choiceRT_color,2021.2.3,MacIntel,60.0024001,,,,,,,,7,Ontime,long,d,1,1.9725,9,3,39,0,1,,,,,
,,,,,,,,,,,,5f16c677bc5f86028f33fc62,2021-11-01_14h28.02.212,forced_choiceRT_color,2021.2.3,MacIntel,60.0024001,,,,,,,,,,,,,,,,,,,6,0,6,0,1
,1.36,,,,,,,,,f,blue,5f16c677bc5f86028f33fc62,2021-11-01_14h28.02.212,forced_choiceRT_color,2021.2.3,MacIntel,60.0024001,,,,,,,,8,Ontime,long,f,1,2.0015,0,0,0,1,1,,,,,
,0.44,,,,,,,,,d,orange,5f16c677bc5f86028f33fc62,2021-11-01_14h28.02.212,forced_choiceRT_color,2021.2.3,MacIntel,60.0024001,,,,,,,,8,Ontime,long,d,1,1.9686,0,1,1,0,1,,,,,
,0.89,,,,,,,,,d,orange,5f16c677bc5f86028f33fc62,2021-11-01_14h28.02.212,forced_choiceRT_color,2021.2.3,MacIntel,60.0024001,,,,,,,,8,Ontime,long,d,1,1.903,0,2,2,0,1,,,,,
,0.07,,,,,,,,,k,purple,5f16c677bc5f86028f33fc62,2021-11-01_14h28.02.212,forced_choiceRT_color,2021.2.3,MacIntel,60.0024001,,,,,,,,8,Ontime,long,k,1,2.002,0,3,3,3,1,,,,,
,1.79,,,,,,,,,j,red,5f16c677bc5f86028f33fc62,2021-11-01_14h28.02.212,forced_choiceRT_color,2021.2.3,MacIntel,60.0024001,,,,,,,,8,Ontime,long,j,1,2.0228,1,0,4,2,1,,,,,
,1.98,,,,,,,,,f,blue,5f16c677bc5f86028f33fc62,2021-11-01_14h28.02.212,forced_choiceRT_color,2021.2.3,MacIntel,60.0024001,,,,,,,,8,Ontime,long,d,0,1.9907,1,1,5,1,1,,,,,
,1.89,,,,,,,,,f,blue,5f16c677bc5f86028f33fc62,2021-11-01_14h28.02.212,forced_choiceRT_color,2021.2.3,MacIntel,60.0024001,,,,,,,,8,Ontime,long,f,1,1.9852,1,2,6,1,1,,,,,
,0.16,,,,,,,,,j,red,5f16c677bc5f86028f33fc62,2021-11-01_14h28.02.212,forced_choiceRT_color,2021.2.3,MacIntel,60.0024001,,,,,,,,8,Ontime,long,j,1,1.9686,1,3,7,2,1,,,,,
,0.47,,,,,,,,,k,purple,5f16c677bc5f86028f33fc62,2021-11-01_14h28.02.212,forced_choiceRT_color,2021.2.3,MacIntel,60.0024001,,,,,,,,8,Ontime,long,k,1,1.9518,2,0,8,3,1,,,,,
,1.96,,,,,,,,,k,purple,5f16c677bc5f86028f33fc62,2021-11-01_14h28.02.212,forced_choiceRT_color,2021.2.3,MacIntel,60.0024001,,,,,,,,8,Ontime,long,d,0,1.9487,2,1,9,3,1,,,,,
,1.02,,,,,,,,,d,orange,5f16c677bc5f86028f33fc62,2021-11-01_14h28.02.212,forced_choiceRT_color,2021.2.3,MacIntel,60.0024001,,,,,,,,8,Ontime,long,d,1,1.9389,2,2,10,0,1,,,,,
,0.1,,,,,,,,,f,blue,5f16c677bc5f86028f33fc62,2021-11-01_14h28.02.212,forced_choiceRT_color,2021.2.3,MacIntel,60.0024001,,,,,,,,8,Ontime,long,f,1,1.9726,2,3,11,1,1,,,,,
,1.01,,,,,,,,,j,red,5f16c677bc5f86028f33fc62,2021-11-01_14h28.02.212,forced_choiceRT_color,2021.2.3,MacIntel,60.0024001,,,,,,,,8,Ontime,long,j,1,1.9564,3,0,12,2,1,,,,,
,0.91,,,,,,,,,j,red,5f16c677bc5f86028f33fc62,2021-11-01_14h28.02.212,forced_choiceRT_color,2021.2.3,MacIntel,60.0024001,,,,,,,,8,Ontime,long,j,1,1.9682,3,1,13,2,1,,,,,
,1.36,,,,,,,,,f,blue,5f16c677bc5f86028f33fc62,2021-11-01_14h28.02.212,forced_choiceRT_color,2021.2.3,MacIntel,60.0024001,,,,,,,,8,Ontime,long,f,1,1.9527,3,2,14,1,1,,,,,
,0.11,,,,,,,,,k,purple,5f16c677bc5f86028f33fc62,2021-11-01_14h28.02.212,forced_choiceRT_color,2021.2.3,MacIntel,60.0024001,,,,,,,,8,Ontime,long,k,1,1.9525,3,3,15,3,1,,,,,
,1.44,,,,,,,,,d,orange,5f16c677bc5f86028f33fc62,2021-11-01_14h28.02.212,forced_choiceRT_color,2021.2.3,MacIntel,60.0024001,,,,,,,,8,Ontime,long,d,1,2.0018,4,0,16,0,1,,,,,
,1.52,,,,,,,,,f,blue,5f16c677bc5f86028f33fc62,2021-11-01_14h28.02.212,forced_choiceRT_color,2021.2.3,MacIntel,60.0024001,,,,,,,,8,Ontime,long,j,0,2.0513,4,1,17,1,1,,,,,
,1.72,,,,,,,,,d,orange,5f16c677bc5f86028f33fc62,2021-11-01_14h28.02.212,forced_choiceRT_color,2021.2.3,MacIntel,60.0024001,,,,,,,,8,Ontime,long,k,0,1.9848,4,2,18,0,1,,,,,
,1.92,,,,,,,,,j,red,5f16c677bc5f86028f33fc62,2021-11-01_14h28.02.212,forced_choiceRT_color,2021.2.3,MacIntel,60.0024001,,,,,,,,8,Ontime,long,k,0,2.0014,4,3,19,2,1,,,,,
,0.38,,,,,,,,,j,red,5f16c677bc5f86028f33fc62,2021-11-01_14h28.02.212,forced_choiceRT_color,2021.2.3,MacIntel,60.0024001,,,,,,,,8,Fast,long,j,1,1.8367,5,0,20,2,1,,,,,
,0.42,,,,,,,,,j,red,5f16c677bc5f86028f33fc62,2021-11-01_14h28.02.212,forced_choiceRT_color,2021.2.3,MacIntel,60.0024001,,,,,,,,8,Ontime,long,j,1,1.9684,5,1,21,2,1,,,,,
,0.5,,,,,,,,,k,purple,5f16c677bc5f86028f33fc62,2021-11-01_14h28.02.212,forced_choiceRT_color,2021.2.3,MacIntel,60.0024001,,,,,,,,8,Ontime,long,k,1,1.922,5,2,22,3,1,,,,,
,1.74,,,,,,,,,k,purple,5f16c677bc5f86028f33fc62,2021-11-01_14h28.02.212,forced_choiceRT_color,2021.2.3,MacIntel,60.0024001,,,,,,,,8,Ontime,long,f,0,2.0186,5,3,23,3,1,,,,,
,0.49,,,,,,,,,d,orange,5f16c677bc5f86028f33fc62,2021-11-01_14h28.02.212,forced_choiceRT_color,2021.2.3,MacIntel,60.0024001,,,,,,,,8,Ontime,long,d,1,1.9876,6,0,24,0,1,,,,,
,1.67,,,,,,,,,j,red,5f16c677bc5f86028f33fc62,2021-11-01_14h28.02.212,forced_choiceRT_color,2021.2.3,MacIntel,60.0024001,,,,,,,,8,Ontime,long,j,1,1.9677,6,1,25,2,1,,,,,
,0.44,,,,,,,,,k,purple,5f16c677bc5f86028f33fc62,2021-11-01_14h28.02.212,forced_choiceRT_color,2021.2.3,MacIntel,60.0024001,,,,,,,,8,Ontime,long,k,1,1.9689,6,2,26,3,1,,,,,
,0.26,,,,,,,,,d,orange,5f16c677bc5f86028f33fc62,2021-11-01_14h28.02.212,forced_choiceRT_color,2021.2.3,MacIntel,60.0024001,,,,,,,,8,Ontime,long,d,1,1.9857,6,3,27,0,1,,,,,
,1.82,,,,,,,,,j,red,5f16c677bc5f86028f33fc62,2021-11-01_14h28.02.212,forced_choiceRT_color,2021.2.3,MacIntel,60.0024001,,,,,,,,8,Slow,long,j,1,2.1718,7,0,28,2,1,,,,,
,1.47,,,,,,,,,d,orange,5f16c677bc5f86028f33fc62,2021-11-01_14h28.02.212,forced_choiceRT_color,2021.2.3,MacIntel,60.0024001,,,,,,,,8,Ontime,long,k,0,2.0591,7,1,29,0,1,,,,,
,0.03,,,,,,,,,f,blue,5f16c677bc5f86028f33fc62,2021-11-01_14h28.02.212,forced_choiceRT_color,2021.2.3,MacIntel,60.0024001,,,,,,,,8,Ontime,long,f,1,1.9694,7,2,30,1,1,,,,,
,1.8,,,,,,,,,f,blue,5f16c677bc5f86028f33fc62,2021-11-01_14h28.02.212,forced_choiceRT_color,2021.2.3,MacIntel,60.0024001,,,,,,,,8,Ontime,long,j,0,2.0057,7,3,31,1,1,,,,,
,0.79,,,,,,,,,f,blue,5f16c677bc5f86028f33fc62,2021-11-01_14h28.02.212,forced_choiceRT_color,2021.2.3,MacIntel,60.0024001,,,,,,,,8,Ontime,long,f,1,1.9519,8,0,32,1,1,,,,,
,1.61,,,,,,,,,d,orange,5f16c677bc5f86028f33fc62,2021-11-01_14h28.02.212,forced_choiceRT_color,2021.2.3,MacIntel,60.0024001,,,,,,,,8,Ontime,long,f,0,2.0219,8,1,33,0,1,,,,,
,0.65,,,,,,,,,k,purple,5f16c677bc5f86028f33fc62,2021-11-01_14h28.02.212,forced_choiceRT_color,2021.2.3,MacIntel,60.0024001,,,,,,,,8,Ontime,long,k,1,1.9772,8,2,34,3,1,,,,,
,0.76,,,,,,,,,k,purple,5f16c677bc5f86028f33fc62,2021-11-01_14h28.02.212,forced_choiceRT_color,2021.2.3,MacIntel,60.0024001,,,,,,,,8,Ontime,long,k,1,1.9697,8,3,35,3,1,,,,,
,0.13,,,,,,,,,d,orange,5f16c677bc5f86028f33fc62,2021-11-01_14h28.02.212,forced_choiceRT_color,2021.2.3,MacIntel,60.0024001,,,,,,,,8,Ontime,long,d,1,1.986,9,0,36,0,1,,,,,
,0.18,,,,,,,,,f,blue,5f16c677bc5f86028f33fc62,2021-11-01_14h28.02.212,forced_choiceRT_color,2021.2.3,MacIntel,60.0024001,,,,,,,,8,Ontime,long,f,1,2.0067,9,1,37,1,1,,,,,
,1.95,,,,,,,,,k,purple,5f16c677bc5f86028f33fc62,2021-11-01_14h28.02.212,forced_choiceRT_color,2021.2.3,MacIntel,60.0024001,,,,,,,,8,Ontime,long,f,0,2.0852,9,2,38,3,1,,,,,
,0.05,,,,,,,,,j,red,5f16c677bc5f86028f33fc62,2021-11-01_14h28.02.212,forced_choiceRT_color,2021.2.3,MacIntel,60.0024001,,,,,,,,8,Ontime,long,j,1,1.9697,9,3,39,2,1,,,,,
,,,,,,,,,,,,5f16c677bc5f86028f33fc62,2021-11-01_14h28.02.212,forced_choiceRT_color,2021.2.3,MacIntel,60.0024001,,,,,,,,,,,,,,,,,,,7,0,7,0,1
,0.8,,,,,,,,,d,orange,5f16c677bc5f86028f33fc62,2021-11-01_14h28.02.212,forced_choiceRT_color,2021.2.3,MacIntel,60.0024001,,,,,,,,9,Ontime,long,d,1,1.9468,0,0,0,0,1,,,,,
,0.19,,,,,,,,,f,blue,5f16c677bc5f86028f33fc62,2021-11-01_14h28.02.212,forced_choiceRT_color,2021.2.3,MacIntel,60.0024001,,,,,,,,9,Ontime,long,f,1,1.973,0,1,1,1,1,,,,,
,0.05,,,,,,,,,d,orange,5f16c677bc5f86028f33fc62,2021-11-01_14h28.02.212,forced_choiceRT_color,2021.2.3,MacIntel,60.0024001,,,,,,,,9,Ontime,long,d,1,1.9357,0,2,2,0,1,,,,,
,0.5,,,,,,,,,j,red,5f16c677bc5f86028f33fc62,2021-11-01_14h28.02.212,forced_choiceRT_color,2021.2.3,MacIntel,60.0024001,,,,,,,,9,Fast,long,j,1,1.7856,0,3,3,2,1,,,,,
,0.07,,,,,,,,,k,purple,5f16c677bc5f86028f33fc62,2021-11-01_14h28.02.212,forced_choiceRT_color,2021.2.3,MacIntel,60.0024001,,,,,,,,9,Ontime,long,k,1,1.9347,1,0,4,3,1,,,,,
,1.79,,,,,,,,,f,blue,5f16c677bc5f86028f33fc62,2021-11-01_14h28.02.212,forced_choiceRT_color,2021.2.3,MacIntel,60.0024001,,,,,,,,9,Ontime,long,d,0,1.9682,1,1,5,1,1,,,,,
,0.06,,,,,,,,,k,purple,5f16c677bc5f86028f33fc62,2021-11-01_14h28.02.212,forced_choiceRT_color,2021.2.3,MacIntel,60.0024001,,,,,,,,9,Ontime,long,k,1,1.9348,1,2,6,3,1,,,,,
,0.18,,,,,,,,,k,purple,5f16c677bc5f86028f33fc62,2021-11-01_14h28.02.212,forced_choiceRT_color,2021.2.3,MacIntel,60.0024001,,,,,,,,9,Ontime,long,k,1,1.9821,1,3,7,3,1,,,,,
,0.69,,,,,,,,,j,red,5f16c677bc5f86028f33fc62,2021-11-01_14h28.02.212,forced_choiceRT_color,2021.2.3,MacIntel,60.0024001,,,,,,,,9,Ontime,long,j,1,1.9183,2,0,8,2,1,,,,,
,1.49,,,,,,,,,f,blue,5f16c677bc5f86028f33fc62,2021-11-01_14h28.02.212,forced_choiceRT_color,2021.2.3,MacIntel,60.0024001,,,,,,,,9,Ontime,long,f,1,2.002,2,1,9,1,1,,,,,
,0.76,,,,,,,,,d,orange,5f16c677bc5f86028f33fc62,2021-11-01_14h28.02.212,forced_choiceRT_color,2021.2.3,MacIntel,60.0024001,,,,,,,,9,Ontime,long,d,1,1.9732,2,2,10,0,1,,,,,
,0.92,,,,,,,,,f,blue,5f16c677bc5f86028f33fc62,2021-11-01_14h28.02.212,forced_choiceRT_color,2021.2.3,MacIntel,60.0024001,,,,,,,,9,Ontime,long,f,1,1.936,2,3,11,1,1,,,,,
,1.23,,,,,,,,,d,orange,5f16c677bc5f86028f33fc62,2021-11-01_14h28.02.212,forced_choiceRT_color,2021.2.3,MacIntel,60.0024001,,,,,,,,9,Ontime,long,d,1,1.9183,3,0,12,0,1,,,,,
,0.83,,,,,,,,,f,blue,5f16c677bc5f86028f33fc62,2021-11-01_14h28.02.212,forced_choiceRT_color,2021.2.3,MacIntel,60.0024001,,,,,,,,9,Ontime,long,f,1,1.952,3,1,13,1,1,,,,,
,1.36,,,,,,,,,d,orange,5f16c677bc5f86028f33fc62,2021-11-01_14h28.02.212,forced_choiceRT_color,2021.2.3,MacIntel,60.0024001,,,,,,,,9,Ontime,long,d,1,1.9544,3,2,14,0,1,,,,,
,0.59,,,,,,,,,f,blue,5f16c677bc5f86028f33fc62,2021-11-01_14h28.02.212,forced_choiceRT_color,2021.2.3,MacIntel,60.0024001,,,,,,,,9,Ontime,long,f,1,1.9712,3,3,15,1,1,,,,,
,1.55,,,,,,,,,k,purple,5f16c677bc5f86028f33fc62,2021-11-01_14h28.02.212,forced_choiceRT_color,2021.2.3,MacIntel,60.0024001,,,,,,,,9,Ontime,long,k,1,1.9225,4,0,16,3,1,,,,,
,0.11,,,,,,,,,k,purple,5f16c677bc5f86028f33fc62,2021-11-01_14h28.02.212,forced_choiceRT_color,2021.2.3,MacIntel,60.0024001,,,,,,,,9,Ontime,long,k,1,2.0352,4,1,17,3,1,,,,,
,1.34,,,,,,,,,f,blue,5f16c677bc5f86028f33fc62,2021-11-01_14h28.02.212,forced_choiceRT_color,2021.2.3,MacIntel,60.0024001,,,,,,,,9,Ontime,long,f,1,2.04,4,2,18,1,1,,,,,
,0.83,,,,,,,,,d,orange,5f16c677bc5f86028f33fc62,2021-11-01_14h28.02.212,forced_choiceRT_color,2021.2.3,MacIntel,60.0024001,,,,,,,,9,Ontime,long,d,1,1.9722,4,3,19,0,1,,,,,
,0.25,,,,,,,,,j,red,5f16c677bc5f86028f33fc62,2021-11-01_14h28.02.212,forced_choiceRT_color,2021.2.3,MacIntel,60.0024001,,,,,,,,9,Ontime,long,j,1,1.9016,5,0,20,2,1,,,,,
,0.63,,,,,,,,,f,blue,5f16c677bc5f86028f33fc62,2021-11-01_14h28.02.212,forced_choiceRT_color,2021.2.3,MacIntel,60.0024001,,,,,,,,9,Ontime,long,f,1,1.9521,5,1,21,1,1,,,,,
,1.59,,,,,,,,,j,red,5f16c677bc5f86028f33fc62,2021-11-01_14h28.02.212,forced_choiceRT_color,2021.2.3,MacIntel,60.0024001,,,,,,,,9,Ontime,long,k,0,1.9684,5,2,22,2,1,,,,,
,1.2,,,,,,,,,k,purple,5f16c677bc5f86028f33fc62,2021-11-01_14h28.02.212,forced_choiceRT_color,2021.2.3,MacIntel,60.0024001,,,,,,,,9,Ontime,long,k,1,2.0049,5,3,23,3,1,,,,,
,1.99,,,,,,,,,k,purple,5f16c677bc5f86028f33fc62,2021-11-01_14h28.02.212,forced_choiceRT_color,2021.2.3,MacIntel,60.0024001,,,,,,,,9,Ontime,long,j,0,1.9714,6,0,24,3,1,,,,,
,0,,,,,,,,,j,red,5f16c677bc5f86028f33fc62,2021-11-01_14h28.02.212,forced_choiceRT_color,2021.2.3,MacIntel,60.0024001,,,,,,,,9,Ontime,long,j,1,2.0181,6,1,25,2,1,,,,,
,1.73,,,,,,,,,d,orange,5f16c677bc5f86028f33fc62,2021-11-01_14h28.02.212,forced_choiceRT_color,2021.2.3,MacIntel,60.0024001,,,,,,,,9,Ontime,long,k,0,2.0682,6,2,26,0,1,,,,,
,1.27,,,,,,,,,j,red,5f16c677bc5f86028f33fc62,2021-11-01_14h28.02.212,forced_choiceRT_color,2021.2.3,MacIntel,60.0024001,,,,,,,,9,Ontime,long,j,1,1.9707,6,3,27,2,1,,,,,
,1.67,,,,,,,,,f,blue,5f16c677bc5f86028f33fc62,2021-11-01_14h28.02.212,forced_choiceRT_color,2021.2.3,MacIntel,60.0024001,,,,,,,,9,Ontime,long,d,0,1.9349,7,0,28,1,1,,,,,
,0.99,,,,,,,,,j,red,5f16c677bc5f86028f33fc62,2021-11-01_14h28.02.212,forced_choiceRT_color,2021.2.3,MacIntel,60.0024001,,,,,,,,9,Fast,long,j,1,1.773,7,1,29,2,1,,,,,
,1.07,,,,,,,,,d,orange,5f16c677bc5f86028f33fc62,2021-11-01_14h28.02.212,forced_choiceRT_color,2021.2.3,MacIntel,60.0024001,,,,,,,,9,Fast,long,f,0,1.7859,7,2,30,0,1,,,,,
,0.01,,,,,,,,,j,red,5f16c677bc5f86028f33fc62,2021-11-01_14h28.02.212,forced_choiceRT_color,2021.2.3,MacIntel,60.0024001,,,,,,,,9,Ontime,long,j,1,2.0016,7,3,31,2,1,,,,,
,0.92,,,,,,,,,k,purple,5f16c677bc5f86028f33fc62,2021-11-01_14h28.02.212,forced_choiceRT_color,2021.2.3,MacIntel,60.0024001,,,,,,,,9,Ontime,long,k,1,2.0352,8,0,32,3,1,,,,,
,1.93,,,,,,,,,k,purple,5f16c677bc5f86028f33fc62,2021-11-01_14h28.02.212,forced_choiceRT_color,2021.2.3,MacIntel,60.0024001,,,,,,,,9,Ontime,long,d,0,1.987,8,1,33,3,1,,,,,
,0.5,,,,,,,,,k,purple,5f16c677bc5f86028f33fc62,2021-11-01_14h28.02.212,forced_choiceRT_color,2021.2.3,MacIntel,60.0024001,,,,,,,,9,Ontime,long,k,1,2.0021,8,2,34,3,1,,,,,
,0.97,,,,,,,,,d,orange,5f16c677bc5f86028f33fc62,2021-11-01_14h28.02.212,forced_choiceRT_color,2021.2.3,MacIntel,60.0024001,,,,,,,,9,Ontime,long,d,1,1.9518,8,3,35,0,1,,,,,
,0.7,,,,,,,,,d,orange,5f16c677bc5f86028f33fc62,2021-11-01_14h28.02.212,forced_choiceRT_color,2021.2.3,MacIntel,60.0024001,,,,,,,,9,Ontime,long,d,1,1.9684,9,0,36,0,1,,,,,
,1.45,,,,,,,,,j,red,5f16c677bc5f86028f33fc62,2021-11-01_14h28.02.212,forced_choiceRT_color,2021.2.3,MacIntel,60.0024001,,,,,,,,9,Ontime,long,j,1,2.0017,9,1,37,2,1,,,,,
,1.4,,,,,,,,,f,blue,5f16c677bc5f86028f33fc62,2021-11-01_14h28.02.212,forced_choiceRT_color,2021.2.3,MacIntel,60.0024001,,,,,,,,9,Ontime,long,f,1,2.0422,9,2,38,1,1,,,,,
,1.9,,,,,,,,,j,red,5f16c677bc5f86028f33fc62,2021-11-01_14h28.02.212,forced_choiceRT_color,2021.2.3,MacIntel,60.0024001,,,,,,,,9,Ontime,long,k,0,2.0857,9,3,39,2,1,,,,,
,,,,,,,,,,,,5f16c677bc5f86028f33fc62,2021-11-01_14h28.02.212,forced_choiceRT_color,2021.2.3,MacIntel,60.0024001,,,,,,,,,,,,,,,,,,,8,0,8,0,1
,1.42,,,,,,,,,f,blue,5f16c677bc5f86028f33fc62,2021-11-01_14h28.02.212,forced_choiceRT_color,2021.2.3,MacIntel,60.0024001,,,,,,,,10,Ontime,long,f,1,1.936,0,0,0,1,1,,,,,
,1.18,,,,,,,,,f,blue,5f16c677bc5f86028f33fc62,2021-11-01_14h28.02.212,forced_choiceRT_color,2021.2.3,MacIntel,60.0024001,,,,,,,,10,Ontime,long,f,1,1.9397,0,1,1,1,1,,,,,
,0.28,,,,,,,,,d,orange,5f16c677bc5f86028f33fc62,2021-11-01_14h28.02.212,forced_choiceRT_color,2021.2.3,MacIntel,60.0024001,,,,,,,,10,Ontime,long,d,1,1.9851,0,2,2,0,1,,,,,
,1.42,,,,,,,,,j,red,5f16c677bc5f86028f33fc62,2021-11-01_14h28.02.212,forced_choiceRT_color,2021.2.3,MacIntel,60.0024001,,,,,,,,10,Ontime,long,j,1,1.9868,0,3,3,2,1,,,,,
,1.14,,,,,,,,,k,purple,5f16c677bc5f86028f33fc62,2021-11-01_14h28.02.212,forced_choiceRT_color,2021.2.3,MacIntel,60.0024001,,,,,,,,10,Ontime,long,k,1,1.9688,1,0,4,3,1,,,,,
,1.12,,,,,,,,,j,red,5f16c677bc5f86028f33fc62,2021-11-01_14h28.02.212,forced_choiceRT_color,2021.2.3,MacIntel,60.0024001,,,,,,,,10,Ontime,long,j,1,1.9685,1,1,5,2,1,,,,,
,1.38,,,,,,,,,d,orange,5f16c677bc5f86028f33fc62,2021-11-01_14h28.02.212,forced_choiceRT_color,2021.2.3,MacIntel,60.0024001,,,,,,,,10,Ontime,long,d,1,1.9555,1,2,6,0,1,,,,,
,0.6,,,,,,,,,d,orange,5f16c677bc5f86028f33fc62,2021-11-01_14h28.02.212,forced_choiceRT_color,2021.2.3,MacIntel,60.0024001,,,,,,,,10,Ontime,long,d,1,2.0181,1,3,7,0,1,,,,,
,0.8,,,,,,,,,f,blue,5f16c677bc5f86028f33fc62,2021-11-01_14h28.02.212,forced_choiceRT_color,2021.2.3,MacIntel,60.0024001,,,,,,,,10,Ontime,long,f,1,1.9516,2,0,8,1,1,,,,,
,1.01,,,,,,,,,f,blue,5f16c677bc5f86028f33fc62,2021-11-01_14h28.02.212,forced_choiceRT_color,2021.2.3,MacIntel,60.0024001,,,,,,,,10,Ontime,long,f,1,2.0519,2,1,9,1,1,,,,,
,1.9,,,,,,,,,j,red,5f16c677bc5f86028f33fc62,2021-11-01_14h28.02.212,forced_choiceRT_color,2021.2.3,MacIntel,60.0024001,,,,,,,,10,Slow,long,f,0,6.4848,2,2,10,2,1,,,,,
,1.31,,,,,,,,,d,orange,5f16c677bc5f86028f33fc62,2021-11-01_14h28.02.212,forced_choiceRT_color,2021.2.3,MacIntel,60.0024001,,,,,,,,10,Ontime,long,d,1,1.952,2,3,11,0,1,,,,,
,0.91,,,,,,,,,d,orange,5f16c677bc5f86028f33fc62,2021-11-01_14h28.02.212,forced_choiceRT_color,2021.2.3,MacIntel,60.0024001,,,,,,,,10,Ontime,long,d,1,2.0016,3,0,12,0,1,,,,,
,0.26,,,,,,,,,j,red,5f16c677bc5f86028f33fc62,2021-11-01_14h28.02.212,forced_choiceRT_color,2021.2.3,MacIntel,60.0024001,,,,,,,,10,Ontime,long,j,1,1.9555,3,1,13,2,1,,,,,
,0.98,,,,,,,,,f,blue,5f16c677bc5f86028f33fc62,2021-11-01_14h28.02.212,forced_choiceRT_color,2021.2.3,MacIntel,60.0024001,,,,,,,,10,Ontime,long,f,1,1.9851,3,2,14,1,1,,,,,
,0.4,,,,,,,,,j,red,5f16c677bc5f86028f33fc62,2021-11-01_14h28.02.212,forced_choiceRT_color,2021.2.3,MacIntel,60.0024001,,,,,,,,10,Ontime,long,j,1,2.0015,3,3,15,2,1,,,,,
,0.81,,,,,,,,,f,blue,5f16c677bc5f86028f33fc62,2021-11-01_14h28.02.212,forced_choiceRT_color,2021.2.3,MacIntel,60.0024001,,,,,,,,10,Ontime,long,j,0,2.0402,4,0,16,1,1,,,,,
,1.45,,,,,,,,,d,orange,5f16c677bc5f86028f33fc62,2021-11-01_14h28.02.212,forced_choiceRT_color,2021.2.3,MacIntel,60.0024001,,,,,,,,10,Ontime,long,d,1,2.0035,4,1,17,0,1,,,,,
,1.62,,,,,,,,,d,orange,5f16c677bc5f86028f33fc62,2021-11-01_14h28.02.212,forced_choiceRT_color,2021.2.3,MacIntel,60.0024001,,,,,,,,10,Ontime,long,k,0,2.0187,4,2,18,0,1,,,,,
,1.35,,,,,,,,,f,blue,5f16c677bc5f86028f33fc62,2021-11-01_14h28.02.212,forced_choiceRT_color,2021.2.3,MacIntel,60.0024001,,,,,,,,10,Ontime,long,j,0,2.0253,4,3,19,1,1,,,,,
,0.2,,,,,,,,,j,red,5f16c677bc5f86028f33fc62,2021-11-01_14h28.02.212,forced_choiceRT_color,2021.2.3,MacIntel,60.0024001,,,,,,,,10,Ontime,long,j,1,1.9729,5,0,20,2,1,,,,,
,1.71,,,,,,,,,j,red,5f16c677bc5f86028f33fc62,2021-11-01_14h28.02.212,forced_choiceRT_color,2021.2.3,MacIntel,60.0024001,,,,,,,,10,Ontime,long,d,0,2.0429,5,1,21,2,1,,,,,
,1.76,,,,,,,,,k,purple,5f16c677bc5f86028f33fc62,2021-11-01_14h28.02.212,forced_choiceRT_color,2021.2.3,MacIntel,60.0024001,,,,,,,,10,Ontime,long,j,0,2.0018,5,2,22,3,1,,,,,
,1.72,,,,,,,,,k,purple,5f16c677bc5f86028f33fc62,2021-11-01_14h28.02.212,forced_choiceRT_color,2021.2.3,MacIntel,60.0024001,,,,,,,,10,Ontime,long,k,1,1.9826,5,3,23,3,1,,,,,
,0.04,,,,,,,,,k,purple,5f16c677bc5f86028f33fc62,2021-11-01_14h28.02.212,forced_choiceRT_color,2021.2.3,MacIntel,60.0024001,,,,,,,,10,Ontime,long,k,1,1.9517,6,0,24,3,1,,,,,
,0.22,,,,,,,,,k,purple,5f16c677bc5f86028f33fc62,2021-11-01_14h28.02.212,forced_choiceRT_color,2021.2.3,MacIntel,60.0024001,,,,,,,,10,Ontime,long,k,1,1.9683,6,1,25,3,1,,,,,
,1.43,,,,,,,,,k,purple,5f16c677bc5f86028f33fc62,2021-11-01_14h28.02.212,forced_choiceRT_color,2021.2.3,MacIntel,60.0024001,,,,,,,,10,Ontime,long,k,1,2.07,6,2,26,3,1,,,,,
,1.75,,,,,,,,,j,red,5f16c677bc5f86028f33fc62,2021-11-01_14h28.02.212,forced_choiceRT_color,2021.2.3,MacIntel,60.0024001,,,,,,,,10,Slow,long,d,0,2.1519,6,3,27,2,1,,,,,
,1.19,,,,,,,,,f,blue,5f16c677bc5f86028f33fc62,2021-11-01_14h28.02.212,forced_choiceRT_color,2021.2.3,MacIntel,60.0024001,,,,,,,,10,Ontime,long,f,1,1.9878,7,0,28,1,1,,,,,
,0.07,,,,,,,,,k,purple,5f16c677bc5f86028f33fc62,2021-11-01_14h28.02.212,forced_choiceRT_color,2021.2.3,MacIntel,60.0024001,,,,,,,,10,Ontime,long,k,1,1.9185,7,1,29,3,1,,,,,
,1.45,,,,,,,,,k,purple,5f16c677bc5f86028f33fc62,2021-11-01_14h28.02.212,forced_choiceRT_color,2021.2.3,MacIntel,60.0024001,,,,,,,,10,Ontime,long,k,1,2.0034,7,2,30,3,1,,,,,
,0.6,,,,,,,,,k,purple,5f16c677bc5f86028f33fc62,2021-11-01_14h28.02.212,forced_choiceRT_color,2021.2.3,MacIntel,60.0024001,,,,,,,,10,Ontime,long,k,1,1.9524,7,3,31,3,1,,,,,
,1.26,,,,,,,,,d,orange,5f16c677bc5f86028f33fc62,2021-11-01_14h28.02.212,forced_choiceRT_color,2021.2.3,MacIntel,60.0024001,,,,,,,,10,Slow,long,d,1,3.0346,8,0,32,0,1,,,,,
,0.22,,,,,,,,,j,red,5f16c677bc5f86028f33fc62,2021-11-01_14h28.02.212,forced_choiceRT_color,2021.2.3,MacIntel,60.0024001,,,,,,,,10,Ontime,long,j,1,1.9567,8,1,33,2,1,,,,,
,0.46,,,,,,,,,f,blue,5f16c677bc5f86028f33fc62,2021-11-01_14h28.02.212,forced_choiceRT_color,2021.2.3,MacIntel,60.0024001,,,,,,,,10,Ontime,long,f,1,1.9188,8,2,34,1,1,,,,,
,1.93,,,,,,,,,j,red,5f16c677bc5f86028f33fc62,2021-11-01_14h28.02.212,forced_choiceRT_color,2021.2.3,MacIntel,60.0024001,,,,,,,,10,Ontime,long,k,0,2.0028,8,3,35,2,1,,,,,
,0.6,,,,,,,,,f,blue,5f16c677bc5f86028f33fc62,2021-11-01_14h28.02.212,forced_choiceRT_color,2021.2.3,MacIntel,60.0024001,,,,,,,,10,Ontime,long,f,1,1.9231,9,0,36,1,1,,,,,
,0.83,,,,,,,,,d,orange,5f16c677bc5f86028f33fc62,2021-11-01_14h28.02.212,forced_choiceRT_color,2021.2.3,MacIntel,60.0024001,,,,,,,,10,Ontime,long,d,1,1.9851,9,1,37,0,1,,,,,
,0.03,,,,,,,,,k,purple,5f16c677bc5f86028f33fc62,2021-11-01_14h28.02.212,forced_choiceRT_color,2021.2.3,MacIntel,60.0024001,,,,,,,,10,Ontime,long,k,1,1.985,9,2,38,3,1,,,,,
,1.18,,,,,,,,,d,orange,5f16c677bc5f86028f33fc62,2021-11-01_14h28.02.212,forced_choiceRT_color,2021.2.3,MacIntel,60.0024001,,,,,,,,10,Ontime,long,d,1,1.9732,9,3,39,0,1,,,,,
,,,,,,,,,,,,5f16c677bc5f86028f33fc62,2021-11-01_14h28.02.212,forced_choiceRT_color,2021.2.3,MacIntel,60.0024001,,,,,,,,,,,,,,,,,,,9,0,9,0,1
