IP_Addresss,target_onset,trial_resp_sp.keys,trial_resp_sp.corr,trial_resp_sp.rt,trials_train_loop.thisRepN,trials_train_loop.thisTrialN,trials_train_loop.thisN,trials_train_loop.thisIndex,trials_train_loop.ran,correct_key,color,participant,date,expName,psychopyVersion,OS,frameRate,trial_resp_timing.keys,trial_resp_timing.rt,trials_train_timing.thisRepN,trials_train_timing.thisTrialN,trials_train_timing.thisN,trials_train_timing.thisIndex,trials_train_timing.ran,block_id,ontime,feedback_cond,forcedRT_resp.keys,forcedRT_resp.corr,forcedRT_resp.rt,trials.thisRepN,trials.thisTrialN,trials.thisN,trials.thisIndex,trials.ran,blocks.thisRepN,blocks.thisTrialN,blocks.thisN,blocks.thisIndex,blocks.ran
97.85.205.38,0,f,1,1.8517,0,0,0,1,1,f,blue,5f32bc368853aa03df112fc6,2021-09-27_11h24.11.046,forced_choiceRT_color,2021.2.3,Win32,60.06727535,,,,,,,,,,,,,,,,,,,,,,,
,0,k,1,0.9051,0,1,1,3,1,k,purple,5f32bc368853aa03df112fc6,2021-09-27_11h24.11.046,forced_choiceRT_color,2021.2.3,Win32,60.06727535,,,,,,,,,,,,,,,,,,,,,,,
,0,f,1,0.9604,0,2,2,1,1,f,blue,5f32bc368853aa03df112fc6,2021-09-27_11h24.11.046,forced_choiceRT_color,2021.2.3,Win32,60.06727535,,,,,,,,,,,,,,,,,,,,,,,
,0,j,1,0.8021,0,3,3,2,1,j,red,5f32bc368853aa03df112fc6,2021-09-27_11h24.11.046,forced_choiceRT_color,2021.2.3,Win32,60.06727535,,,,,,,,,,,,,,,,,,,,,,,
,0,j,1,0.6437,1,0,4,2,1,j,red,5f32bc368853aa03df112fc6,2021-09-27_11h24.11.046,forced_choiceRT_color,2021.2.3,Win32,60.06727535,,,,,,,,,,,,,,,,,,,,,,,
,0,f,1,0.7619,1,1,5,1,1,f,blue,5f32bc368853aa03df112fc6,2021-09-27_11h24.11.046,forced_choiceRT_color,2021.2.3,Win32,60.06727535,,,,,,,,,,,,,,,,,,,,,,,
,0,k,1,0.6924,1,2,6,3,1,k,purple,5f32bc368853aa03df112fc6,2021-09-27_11h24.11.046,forced_choiceRT_color,2021.2.3,Win32,60.06727535,,,,,,,,,,,,,,,,,,,,,,,
,0,d,1,0.6785,1,3,7,0,1,d,orange,5f32bc368853aa03df112fc6,2021-09-27_11h24.11.046,forced_choiceRT_color,2021.2.3,Win32,60.06727535,,,,,,,,,,,,,,,,,,,,,,,
,0,f,1,0.6601,2,0,8,1,1,f,blue,5f32bc368853aa03df112fc6,2021-09-27_11h24.11.046,forced_choiceRT_color,2021.2.3,Win32,60.06727535,,,,,,,,,,,,,,,,,,,,,,,
,0,d,1,0.5982,2,1,9,0,1,d,orange,5f32bc368853aa03df112fc6,2021-09-27_11h24.11.046,forced_choiceRT_color,2021.2.3,Win32,60.06727535,,,,,,,,,,,,,,,,,,,,,,,
,0,j,1,0.9039,2,2,10,2,1,j,red,5f32bc368853aa03df112fc6,2021-09-27_11h24.11.046,forced_choiceRT_color,2021.2.3,Win32,60.06727535,,,,,,,,,,,,,,,,,,,,,,,
,0,k,1,0.5784,2,3,11,3,1,k,purple,5f32bc368853aa03df112fc6,2021-09-27_11h24.11.046,forced_choiceRT_color,2021.2.3,Win32,60.06727535,,,,,,,,,,,,,,,,,,,,,,,
,0,d,1,0.7159,3,0,12,0,1,d,orange,5f32bc368853aa03df112fc6,2021-09-27_11h24.11.046,forced_choiceRT_color,2021.2.3,Win32,60.06727535,,,,,,,,,,,,,,,,,,,,,,,
,0,f,1,0.5935,3,1,13,1,1,f,blue,5f32bc368853aa03df112fc6,2021-09-27_11h24.11.046,forced_choiceRT_color,2021.2.3,Win32,60.06727535,,,,,,,,,,,,,,,,,,,,,,,
,0,j,1,0.7847,3,2,14,2,1,j,red,5f32bc368853aa03df112fc6,2021-09-27_11h24.11.046,forced_choiceRT_color,2021.2.3,Win32,60.06727535,,,,,,,,,,,,,,,,,,,,,,,
,0,k,1,0.4778,3,3,15,3,1,k,purple,5f32bc368853aa03df112fc6,2021-09-27_11h24.11.046,forced_choiceRT_color,2021.2.3,Win32,60.06727535,,,,,,,,,,,,,,,,,,,,,,,
,0,d,1,0.5468,4,0,16,0,1,d,orange,5f32bc368853aa03df112fc6,2021-09-27_11h24.11.046,forced_choiceRT_color,2021.2.3,Win32,60.06727535,,,,,,,,,,,,,,,,,,,,,,,
,0,d,1,0.4979,4,1,17,0,1,d,orange,5f32bc368853aa03df112fc6,2021-09-27_11h24.11.046,forced_choiceRT_color,2021.2.3,Win32,60.06727535,,,,,,,,,,,,,,,,,,,,,,,
,0,k,1,0.4837,4,2,18,3,1,k,purple,5f32bc368853aa03df112fc6,2021-09-27_11h24.11.046,forced_choiceRT_color,2021.2.3,Win32,60.06727535,,,,,,,,,,,,,,,,,,,,,,,
,0,d,1,0.4996,4,3,19,0,1,d,orange,5f32bc368853aa03df112fc6,2021-09-27_11h24.11.046,forced_choiceRT_color,2021.2.3,Win32,60.06727535,,,,,,,,,,,,,,,,,,,,,,,
,0,k,1,0.4492,5,0,20,3,1,k,purple,5f32bc368853aa03df112fc6,2021-09-27_11h24.11.046,forced_choiceRT_color,2021.2.3,Win32,60.06727535,,,,,,,,,,,,,,,,,,,,,,,
,0,k,1,0.4412,5,1,21,3,1,k,purple,5f32bc368853aa03df112fc6,2021-09-27_11h24.11.046,forced_choiceRT_color,2021.2.3,Win32,60.06727535,,,,,,,,,,,,,,,,,,,,,,,
,0,j,1,0.6138,5,2,22,2,1,j,red,5f32bc368853aa03df112fc6,2021-09-27_11h24.11.046,forced_choiceRT_color,2021.2.3,Win32,60.06727535,,,,,,,,,,,,,,,,,,,,,,,
,0,k,1,0.5647,5,3,23,3,1,k,purple,5f32bc368853aa03df112fc6,2021-09-27_11h24.11.046,forced_choiceRT_color,2021.2.3,Win32,60.06727535,,,,,,,,,,,,,,,,,,,,,,,
,0,j,1,0.6991,6,0,24,2,1,j,red,5f32bc368853aa03df112fc6,2021-09-27_11h24.11.046,forced_choiceRT_color,2021.2.3,Win32,60.06727535,,,,,,,,,,,,,,,,,,,,,,,
,0,j,1,0.384,6,1,25,2,1,j,red,5f32bc368853aa03df112fc6,2021-09-27_11h24.11.046,forced_choiceRT_color,2021.2.3,Win32,60.06727535,,,,,,,,,,,,,,,,,,,,,,,
,0,j,1,0.4004,6,2,26,2,1,j,red,5f32bc368853aa03df112fc6,2021-09-27_11h24.11.046,forced_choiceRT_color,2021.2.3,Win32,60.06727535,,,,,,,,,,,,,,,,,,,,,,,
,0,j,1,0.4515,6,3,27,2,1,j,red,5f32bc368853aa03df112fc6,2021-09-27_11h24.11.046,forced_choiceRT_color,2021.2.3,Win32,60.06727535,,,,,,,,,,,,,,,,,,,,,,,
,0,k,1,0.4326,7,0,28,3,1,k,purple,5f32bc368853aa03df112fc6,2021-09-27_11h24.11.046,forced_choiceRT_color,2021.2.3,Win32,60.06727535,,,,,,,,,,,,,,,,,,,,,,,
,0,f,1,0.7183,7,1,29,1,1,f,blue,5f32bc368853aa03df112fc6,2021-09-27_11h24.11.046,forced_choiceRT_color,2021.2.3,Win32,60.06727535,,,,,,,,,,,,,,,,,,,,,,,
,0,f,1,0.414,7,2,30,1,1,f,blue,5f32bc368853aa03df112fc6,2021-09-27_11h24.11.046,forced_choiceRT_color,2021.2.3,Win32,60.06727535,,,,,,,,,,,,,,,,,,,,,,,
,0,d,1,0.5797,7,3,31,0,1,d,orange,5f32bc368853aa03df112fc6,2021-09-27_11h24.11.046,forced_choiceRT_color,2021.2.3,Win32,60.06727535,,,,,,,,,,,,,,,,,,,,,,,
,0,d,1,0.4199,8,0,32,0,1,d,orange,5f32bc368853aa03df112fc6,2021-09-27_11h24.11.046,forced_choiceRT_color,2021.2.3,Win32,60.06727535,,,,,,,,,,,,,,,,,,,,,,,
,0,d,1,0.4392,8,1,33,0,1,d,orange,5f32bc368853aa03df112fc6,2021-09-27_11h24.11.046,forced_choiceRT_color,2021.2.3,Win32,60.06727535,,,,,,,,,,,,,,,,,,,,,,,
,0,j,1,0.5979,8,2,34,2,1,j,red,5f32bc368853aa03df112fc6,2021-09-27_11h24.11.046,forced_choiceRT_color,2021.2.3,Win32,60.06727535,,,,,,,,,,,,,,,,,,,,,,,
,0,d,1,0.547,8,3,35,0,1,d,orange,5f32bc368853aa03df112fc6,2021-09-27_11h24.11.046,forced_choiceRT_color,2021.2.3,Win32,60.06727535,,,,,,,,,,,,,,,,,,,,,,,
,0,j,1,0.5491,9,0,36,2,1,j,red,5f32bc368853aa03df112fc6,2021-09-27_11h24.11.046,forced_choiceRT_color,2021.2.3,Win32,60.06727535,,,,,,,,,,,,,,,,,,,,,,,
,0,f,1,0.702,9,1,37,1,1,f,blue,5f32bc368853aa03df112fc6,2021-09-27_11h24.11.046,forced_choiceRT_color,2021.2.3,Win32,60.06727535,,,,,,,,,,,,,,,,,,,,,,,
,0,k,1,0.6636,9,2,38,3,1,k,purple,5f32bc368853aa03df112fc6,2021-09-27_11h24.11.046,forced_choiceRT_color,2021.2.3,Win32,60.06727535,,,,,,,,,,,,,,,,,,,,,,,
,0,f,1,0.6674,9,3,39,1,1,f,blue,5f32bc368853aa03df112fc6,2021-09-27_11h24.11.046,forced_choiceRT_color,2021.2.3,Win32,60.06727535,,,,,,,,,,,,,,,,,,,,,,,
,0,k,1,0.6175,10,0,40,3,1,k,purple,5f32bc368853aa03df112fc6,2021-09-27_11h24.11.046,forced_choiceRT_color,2021.2.3,Win32,60.06727535,,,,,,,,,,,,,,,,,,,,,,,
,0,f,1,0.6815,10,1,41,1,1,f,blue,5f32bc368853aa03df112fc6,2021-09-27_11h24.11.046,forced_choiceRT_color,2021.2.3,Win32,60.06727535,,,,,,,,,,,,,,,,,,,,,,,
,0,d,1,0.5574,10,2,42,0,1,d,orange,5f32bc368853aa03df112fc6,2021-09-27_11h24.11.046,forced_choiceRT_color,2021.2.3,Win32,60.06727535,,,,,,,,,,,,,,,,,,,,,,,
,0,j,1,0.5731,10,3,43,2,1,j,red,5f32bc368853aa03df112fc6,2021-09-27_11h24.11.046,forced_choiceRT_color,2021.2.3,Win32,60.06727535,,,,,,,,,,,,,,,,,,,,,,,
,0,k,1,0.49,11,0,44,3,1,k,purple,5f32bc368853aa03df112fc6,2021-09-27_11h24.11.046,forced_choiceRT_color,2021.2.3,Win32,60.06727535,,,,,,,,,,,,,,,,,,,,,,,
,0,j,1,0.6714,11,1,45,2,1,j,red,5f32bc368853aa03df112fc6,2021-09-27_11h24.11.046,forced_choiceRT_color,2021.2.3,Win32,60.06727535,,,,,,,,,,,,,,,,,,,,,,,
,0,d,1,0.5391,11,2,46,0,1,d,orange,5f32bc368853aa03df112fc6,2021-09-27_11h24.11.046,forced_choiceRT_color,2021.2.3,Win32,60.06727535,,,,,,,,,,,,,,,,,,,,,,,
,0,j,1,0.6501,11,3,47,2,1,j,red,5f32bc368853aa03df112fc6,2021-09-27_11h24.11.046,forced_choiceRT_color,2021.2.3,Win32,60.06727535,,,,,,,,,,,,,,,,,,,,,,,
,0,k,1,0.5553,12,0,48,3,1,k,purple,5f32bc368853aa03df112fc6,2021-09-27_11h24.11.046,forced_choiceRT_color,2021.2.3,Win32,60.06727535,,,,,,,,,,,,,,,,,,,,,,,
,0,d,1,0.5611,12,1,49,0,1,d,orange,5f32bc368853aa03df112fc6,2021-09-27_11h24.11.046,forced_choiceRT_color,2021.2.3,Win32,60.06727535,,,,,,,,,,,,,,,,,,,,,,,
,0,f,1,0.4666,12,2,50,1,1,f,blue,5f32bc368853aa03df112fc6,2021-09-27_11h24.11.046,forced_choiceRT_color,2021.2.3,Win32,60.06727535,,,,,,,,,,,,,,,,,,,,,,,
,0,f,1,0.6001,12,3,51,1,1,f,blue,5f32bc368853aa03df112fc6,2021-09-27_11h24.11.046,forced_choiceRT_color,2021.2.3,Win32,60.06727535,,,,,,,,,,,,,,,,,,,,,,,
,0,k,1,0.475,13,0,52,3,1,k,purple,5f32bc368853aa03df112fc6,2021-09-27_11h24.11.046,forced_choiceRT_color,2021.2.3,Win32,60.06727535,,,,,,,,,,,,,,,,,,,,,,,
,0,j,1,0.6199,13,1,53,2,1,j,red,5f32bc368853aa03df112fc6,2021-09-27_11h24.11.046,forced_choiceRT_color,2021.2.3,Win32,60.06727535,,,,,,,,,,,,,,,,,,,,,,,
,0,d,1,0.5339,13,2,54,0,1,d,orange,5f32bc368853aa03df112fc6,2021-09-27_11h24.11.046,forced_choiceRT_color,2021.2.3,Win32,60.06727535,,,,,,,,,,,,,,,,,,,,,,,
,0,d,1,0.5521,13,3,55,0,1,d,orange,5f32bc368853aa03df112fc6,2021-09-27_11h24.11.046,forced_choiceRT_color,2021.2.3,Win32,60.06727535,,,,,,,,,,,,,,,,,,,,,,,
,0,k,1,0.7647,14,0,56,3,1,k,purple,5f32bc368853aa03df112fc6,2021-09-27_11h24.11.046,forced_choiceRT_color,2021.2.3,Win32,60.06727535,,,,,,,,,,,,,,,,,,,,,,,
,0,f,1,0.5589,14,1,57,1,1,f,blue,5f32bc368853aa03df112fc6,2021-09-27_11h24.11.046,forced_choiceRT_color,2021.2.3,Win32,60.06727535,,,,,,,,,,,,,,,,,,,,,,,
,0,f,1,0.569,14,2,58,1,1,f,blue,5f32bc368853aa03df112fc6,2021-09-27_11h24.11.046,forced_choiceRT_color,2021.2.3,Win32,60.06727535,,,,,,,,,,,,,,,,,,,,,,,
,0,f,1,0.453,14,3,59,1,1,f,blue,5f32bc368853aa03df112fc6,2021-09-27_11h24.11.046,forced_choiceRT_color,2021.2.3,Win32,60.06727535,,,,,,,,,,,,,,,,,,,,,,,
,,,,,,,,,,,,5f32bc368853aa03df112fc6,2021-09-27_11h24.11.046,forced_choiceRT_color,2021.2.3,Win32,60.06727535,j,2.1899,0,0,0,0,1,,,,,,,,,,,,,,,,
,,,,,,,,,,,,5f32bc368853aa03df112fc6,2021-09-27_11h24.11.046,forced_choiceRT_color,2021.2.3,Win32,60.06727535,j,2.0224,1,0,1,0,1,,,,,,,,,,,,,,,,
,,,,,,,,,,,,5f32bc368853aa03df112fc6,2021-09-27_11h24.11.046,forced_choiceRT_color,2021.2.3,Win32,60.06727535,k,2.0168,2,0,2,0,1,,,,,,,,,,,,,,,,
,,,,,,,,,,,,5f32bc368853aa03df112fc6,2021-09-27_11h24.11.046,forced_choiceRT_color,2021.2.3,Win32,60.06727535,d,2.0411,3,0,3,0,1,,,,,,,,,,,,,,,,
,,,,,,,,,,,,5f32bc368853aa03df112fc6,2021-09-27_11h24.11.046,forced_choiceRT_color,2021.2.3,Win32,60.06727535,f,2.0392,4,0,4,0,1,,,,,,,,,,,,,,,,
,,,,,,,,,,,,5f32bc368853aa03df112fc6,2021-09-27_11h24.11.046,forced_choiceRT_color,2021.2.3,Win32,60.06727535,j,2.0847,5,0,5,0,1,,,,,,,,,,,,,,,,
,,,,,,,,,,,,5f32bc368853aa03df112fc6,2021-09-27_11h24.11.046,forced_choiceRT_color,2021.2.3,Win32,60.06727535,k,2.1053,6,0,6,0,1,,,,,,,,,,,,,,,,
,,,,,,,,,,,,5f32bc368853aa03df112fc6,2021-09-27_11h24.11.046,forced_choiceRT_color,2021.2.3,Win32,60.06727535,k,1.9786,7,0,7,0,1,,,,,,,,,,,,,,,,
,,,,,,,,,,,,5f32bc368853aa03df112fc6,2021-09-27_11h24.11.046,forced_choiceRT_color,2021.2.3,Win32,60.06727535,k,2.0348,8,0,8,0,1,,,,,,,,,,,,,,,,
,,,,,,,,,,,,5f32bc368853aa03df112fc6,2021-09-27_11h24.11.046,forced_choiceRT_color,2021.2.3,Win32,60.06727535,d,2.0682,9,0,9,0,1,,,,,,,,,,,,,,,,
,,,,,,,,,,,,5f32bc368853aa03df112fc6,2021-09-27_11h24.11.046,forced_choiceRT_color,2021.2.3,Win32,60.06727535,f,2.0445,10,0,10,0,1,,,,,,,,,,,,,,,,
,,,,,,,,,,,,5f32bc368853aa03df112fc6,2021-09-27_11h24.11.046,forced_choiceRT_color,2021.2.3,Win32,60.06727535,j,2.0554,11,0,11,0,1,,,,,,,,,,,,,,,,
,,,,,,,,,,,,5f32bc368853aa03df112fc6,2021-09-27_11h24.11.046,forced_choiceRT_color,2021.2.3,Win32,60.06727535,k,2.0158,12,0,12,0,1,,,,,,,,,,,,,,,,
,,,,,,,,,,,,5f32bc368853aa03df112fc6,2021-09-27_11h24.11.046,forced_choiceRT_color,2021.2.3,Win32,60.06727535,d,2.0537,13,0,13,0,1,,,,,,,,,,,,,,,,
,,,,,,,,,,,,5f32bc368853aa03df112fc6,2021-09-27_11h24.11.046,forced_choiceRT_color,2021.2.3,Win32,60.06727535,f,1.9494,14,0,14,0,1,,,,,,,,,,,,,,,,
,,,,,,,,,,,,5f32bc368853aa03df112fc6,2021-09-27_11h24.11.046,forced_choiceRT_color,2021.2.3,Win32,60.06727535,j,2,15,0,15,0,1,,,,,,,,,,,,,,,,
,,,,,,,,,,,,5f32bc368853aa03df112fc6,2021-09-27_11h24.11.046,forced_choiceRT_color,2021.2.3,Win32,60.06727535,k,2.0496,16,0,16,0,1,,,,,,,,,,,,,,,,
,,,,,,,,,,,,5f32bc368853aa03df112fc6,2021-09-27_11h24.11.046,forced_choiceRT_color,2021.2.3,Win32,60.06727535,d,2.0352,17,0,17,0,1,,,,,,,,,,,,,,,,
,,,,,,,,,,,,5f32bc368853aa03df112fc6,2021-09-27_11h24.11.046,forced_choiceRT_color,2021.2.3,Win32,60.06727535,f,2.057,18,0,18,0,1,,,,,,,,,,,,,,,,
,,,,,,,,,,,,5f32bc368853aa03df112fc6,2021-09-27_11h24.11.046,forced_choiceRT_color,2021.2.3,Win32,60.06727535,j,1.95,19,0,19,0,1,,,,,,,,,,,,,,,,
,1.68,,,,,,,,,f,blue,5f32bc368853aa03df112fc6,2021-09-27_11h24.11.046,forced_choiceRT_color,2021.2.3,Win32,60.06727535,,,,,,,,1,Ontime,short,j,0,2.0251,0,0,0,1,1,,,,,
,0.22,,,,,,,,,j,red,5f32bc368853aa03df112fc6,2021-09-27_11h24.11.046,forced_choiceRT_color,2021.2.3,Win32,60.06727535,,,,,,,,1,Fast,short,j,1,1.557,0,1,1,2,1,,,,,
,1.43,,,,,,,,,j,red,5f32bc368853aa03df112fc6,2021-09-27_11h24.11.046,forced_choiceRT_color,2021.2.3,Win32,60.06727535,,,,,,,,1,Slow,short,j,1,2.15,0,2,2,2,1,,,,,
,0.89,,,,,,,,,f,blue,5f32bc368853aa03df112fc6,2021-09-27_11h24.11.046,forced_choiceRT_color,2021.2.3,Win32,60.06727535,,,,,,,,1,Ontime,short,f,1,1.9609,0,3,3,1,1,,,,,
,1,,,,,,,,,d,orange,5f32bc368853aa03df112fc6,2021-09-27_11h24.11.046,forced_choiceRT_color,2021.2.3,Win32,60.06727535,,,,,,,,1,Fast,short,d,1,1.8798,1,0,4,0,1,,,,,
,1.6,,,,,,,,,k,purple,5f32bc368853aa03df112fc6,2021-09-27_11h24.11.046,forced_choiceRT_color,2021.2.3,Win32,60.06727535,,,,,,,,1,Ontime,short,k,1,1.9693,1,1,5,3,1,,,,,
,0.91,,,,,,,,,f,blue,5f32bc368853aa03df112fc6,2021-09-27_11h24.11.046,forced_choiceRT_color,2021.2.3,Win32,60.06727535,,,,,,,,1,Fast,short,j,0,1.7448,1,2,6,1,1,,,,,
,0.53,,,,,,,,,d,orange,5f32bc368853aa03df112fc6,2021-09-27_11h24.11.046,forced_choiceRT_color,2021.2.3,Win32,60.06727535,,,,,,,,1,Fast,short,d,1,1.7508,1,3,7,0,1,,,,,
,1.59,,,,,,,,,d,orange,5f32bc368853aa03df112fc6,2021-09-27_11h24.11.046,forced_choiceRT_color,2021.2.3,Win32,60.06727535,,,,,,,,1,Slow,short,d,1,2.2347,2,0,8,0,1,,,,,
,1.46,,,,,,,,,d,orange,5f32bc368853aa03df112fc6,2021-09-27_11h24.11.046,forced_choiceRT_color,2021.2.3,Win32,60.06727535,,,,,,,,1,Ontime,short,d,1,1.9487,2,1,9,0,1,,,,,
,1.41,,,,,,,,,j,red,5f32bc368853aa03df112fc6,2021-09-27_11h24.11.046,forced_choiceRT_color,2021.2.3,Win32,60.06727535,,,,,,,,1,Ontime,short,f,0,2.0244,2,2,10,2,1,,,,,
,1.46,,,,,,,,,f,blue,5f32bc368853aa03df112fc6,2021-09-27_11h24.11.046,forced_choiceRT_color,2021.2.3,Win32,60.06727535,,,,,,,,1,Fast,short,j,0,0.0369,2,3,11,1,1,,,,,
,1.38,,,,,,,,,d,orange,5f32bc368853aa03df112fc6,2021-09-27_11h24.11.046,forced_choiceRT_color,2021.2.3,Win32,60.06727535,,,,,,,,1,Ontime,short,d,1,1.935,3,0,12,0,1,,,,,
,0.26,,,,,,,,,f,blue,5f32bc368853aa03df112fc6,2021-09-27_11h24.11.046,forced_choiceRT_color,2021.2.3,Win32,60.06727535,,,,,,,,1,Ontime,short,f,1,2.0504,3,1,13,1,1,,,,,
,1.82,,,,,,,,,j,red,5f32bc368853aa03df112fc6,2021-09-27_11h24.11.046,forced_choiceRT_color,2021.2.3,Win32,60.06727535,,,,,,,,1,Slow,short,j,1,2.2854,3,2,14,2,1,,,,,
,0.57,,,,,,,,,k,purple,5f32bc368853aa03df112fc6,2021-09-27_11h24.11.046,forced_choiceRT_color,2021.2.3,Win32,60.06727535,,,,,,,,1,Ontime,short,k,1,2.0205,3,3,15,3,1,,,,,
,0.99,,,,,,,,,d,orange,5f32bc368853aa03df112fc6,2021-09-27_11h24.11.046,forced_choiceRT_color,2021.2.3,Win32,60.06727535,,,,,,,,1,Ontime,short,j,0,2.0964,4,0,16,0,1,,,,,
,0.53,,,,,,,,,k,purple,5f32bc368853aa03df112fc6,2021-09-27_11h24.11.046,forced_choiceRT_color,2021.2.3,Win32,60.06727535,,,,,,,,1,Fast,short,k,1,1.8368,4,1,17,3,1,,,,,
,1.67,,,,,,,,,k,purple,5f32bc368853aa03df112fc6,2021-09-27_11h24.11.046,forced_choiceRT_color,2021.2.3,Win32,60.06727535,,,,,,,,1,Ontime,short,k,1,2.0538,4,2,18,3,1,,,,,
,0.93,,,,,,,,,d,orange,5f32bc368853aa03df112fc6,2021-09-27_11h24.11.046,forced_choiceRT_color,2021.2.3,Win32,60.06727535,,,,,,,,1,Ontime,short,d,1,2.0708,4,3,19,0,1,,,,,
,0.11,,,,,,,,,d,orange,5f32bc368853aa03df112fc6,2021-09-27_11h24.11.046,forced_choiceRT_color,2021.2.3,Win32,60.06727535,,,,,,,,1,Ontime,short,d,1,1.9659,5,0,20,0,1,,,,,
,1.22,,,,,,,,,f,blue,5f32bc368853aa03df112fc6,2021-09-27_11h24.11.046,forced_choiceRT_color,2021.2.3,Win32,60.06727535,,,,,,,,1,Ontime,short,f,1,1.904,5,1,21,1,1,,,,,
,1.38,,,,,,,,,k,purple,5f32bc368853aa03df112fc6,2021-09-27_11h24.11.046,forced_choiceRT_color,2021.2.3,Win32,60.06727535,,,,,,,,1,Ontime,short,k,1,1.9674,5,2,22,3,1,,,,,
,0.84,,,,,,,,,j,red,5f32bc368853aa03df112fc6,2021-09-27_11h24.11.046,forced_choiceRT_color,2021.2.3,Win32,60.06727535,,,,,,,,1,Ontime,short,j,1,2.0154,5,3,23,2,1,,,,,
,0.87,,,,,,,,,f,blue,5f32bc368853aa03df112fc6,2021-09-27_11h24.11.046,forced_choiceRT_color,2021.2.3,Win32,60.06727535,,,,,,,,1,Ontime,short,k,0,1.9865,6,0,24,1,1,,,,,
,1.91,,,,,,,,,k,purple,5f32bc368853aa03df112fc6,2021-09-27_11h24.11.046,forced_choiceRT_color,2021.2.3,Win32,60.06727535,,,,,,,,1,Slow,short,k,1,2.2015,6,1,25,3,1,,,,,
,0.55,,,,,,,,,k,purple,5f32bc368853aa03df112fc6,2021-09-27_11h24.11.046,forced_choiceRT_color,2021.2.3,Win32,60.06727535,,,,,,,,1,Ontime,short,k,1,1.9534,6,2,26,3,1,,,,,
,0.18,,,,,,,,,k,purple,5f32bc368853aa03df112fc6,2021-09-27_11h24.11.046,forced_choiceRT_color,2021.2.3,Win32,60.06727535,,,,,,,,1,Ontime,short,k,1,2.0139,6,3,27,3,1,,,,,
,0.44,,,,,,,,,j,red,5f32bc368853aa03df112fc6,2021-09-27_11h24.11.046,forced_choiceRT_color,2021.2.3,Win32,60.06727535,,,,,,,,1,Ontime,short,j,1,1.9638,7,0,28,2,1,,,,,
,1.17,,,,,,,,,k,purple,5f32bc368853aa03df112fc6,2021-09-27_11h24.11.046,forced_choiceRT_color,2021.2.3,Win32,60.06727535,,,,,,,,1,Ontime,short,k,1,2.0293,7,1,29,3,1,,,,,
,0.93,,,,,,,,,f,blue,5f32bc368853aa03df112fc6,2021-09-27_11h24.11.046,forced_choiceRT_color,2021.2.3,Win32,60.06727535,,,,,,,,1,Ontime,short,f,1,2.0341,7,2,30,1,1,,,,,
,0.52,,,,,,,,,f,blue,5f32bc368853aa03df112fc6,2021-09-27_11h24.11.046,forced_choiceRT_color,2021.2.3,Win32,60.06727535,,,,,,,,1,Ontime,short,f,1,2.0502,7,3,31,1,1,,,,,
,1.03,,,,,,,,,f,blue,5f32bc368853aa03df112fc6,2021-09-27_11h24.11.046,forced_choiceRT_color,2021.2.3,Win32,60.06727535,,,,,,,,1,Ontime,short,f,1,2.0412,8,0,32,1,1,,,,,
,0.28,,,,,,,,,j,red,5f32bc368853aa03df112fc6,2021-09-27_11h24.11.046,forced_choiceRT_color,2021.2.3,Win32,60.06727535,,,,,,,,1,Fast,short,j,1,1.8776,8,1,33,2,1,,,,,
,0.71,,,,,,,,,j,red,5f32bc368853aa03df112fc6,2021-09-27_11h24.11.046,forced_choiceRT_color,2021.2.3,Win32,60.06727535,,,,,,,,1,Fast,short,d,0,1.8444,8,2,34,2,1,,,,,
,0.3,,,,,,,,,d,orange,5f32bc368853aa03df112fc6,2021-09-27_11h24.11.046,forced_choiceRT_color,2021.2.3,Win32,60.06727535,,,,,,,,1,Ontime,short,d,1,1.9841,8,3,35,0,1,,,,,
,0.14,,,,,,,,,d,orange,5f32bc368853aa03df112fc6,2021-09-27_11h24.11.046,forced_choiceRT_color,2021.2.3,Win32,60.06727535,,,,,,,,1,Ontime,short,d,1,2.0156,9,0,36,0,1,,,,,
,0.75,,,,,,,,,j,red,5f32bc368853aa03df112fc6,2021-09-27_11h24.11.046,forced_choiceRT_color,2021.2.3,Win32,60.06727535,,,,,,,,1,Ontime,short,j,1,1.9689,9,1,37,2,1,,,,,
,1.11,,,,,,,,,j,red,5f32bc368853aa03df112fc6,2021-09-27_11h24.11.046,forced_choiceRT_color,2021.2.3,Win32,60.06727535,,,,,,,,1,Ontime,short,j,1,1.9344,9,2,38,2,1,,,,,
,0.17,,,,,,,,,k,purple,5f32bc368853aa03df112fc6,2021-09-27_11h24.11.046,forced_choiceRT_color,2021.2.3,Win32,60.06727535,,,,,,,,1,Ontime,short,k,1,1.9593,9,3,39,3,1,,,,,
,,,,,,,,,,,,5f32bc368853aa03df112fc6,2021-09-27_11h24.11.046,forced_choiceRT_color,2021.2.3,Win32,60.06727535,,,,,,,,,,,,,,,,,,,0,0,0,0,1
,1.21,,,,,,,,,k,purple,5f32bc368853aa03df112fc6,2021-09-27_11h24.11.046,forced_choiceRT_color,2021.2.3,Win32,60.06727535,,,,,,,,2,Fast,short,k,1,1.8313,0,0,0,3,1,,,,,
,1.21,,,,,,,,,f,blue,5f32bc368853aa03df112fc6,2021-09-27_11h24.11.046,forced_choiceRT_color,2021.2.3,Win32,60.06727535,,,,,,,,2,Fast,short,j,0,1.8686,0,1,1,1,1,,,,,
,1.3,,,,,,,,,d,orange,5f32bc368853aa03df112fc6,2021-09-27_11h24.11.046,forced_choiceRT_color,2021.2.3,Win32,60.06727535,,,,,,,,2,Ontime,short,d,1,1.9523,0,2,2,0,1,,,,,
,0.03,,,,,,,,,f,blue,5f32bc368853aa03df112fc6,2021-09-27_11h24.11.046,forced_choiceRT_color,2021.2.3,Win32,60.06727535,,,,,,,,2,Fast,short,f,1,1.8747,0,3,3,1,1,,,,,
,1.78,,,,,,,,,f,blue,5f32bc368853aa03df112fc6,2021-09-27_11h24.11.046,forced_choiceRT_color,2021.2.3,Win32,60.06727535,,,,,,,,2,Slow,short,f,1,2.1487,1,0,4,1,1,,,,,
,1.81,,,,,,,,,k,purple,5f32bc368853aa03df112fc6,2021-09-27_11h24.11.046,forced_choiceRT_color,2021.2.3,Win32,60.06727535,,,,,,,,2,Ontime,short,f,0,2.0517,1,1,5,3,1,,,,,
,1.7,,,,,,,,,j,red,5f32bc368853aa03df112fc6,2021-09-27_11h24.11.046,forced_choiceRT_color,2021.2.3,Win32,60.06727535,,,,,,,,2,Slow,short,d,0,2.2353,1,2,6,2,1,,,,,
,1.03,,,,,,,,,d,orange,5f32bc368853aa03df112fc6,2021-09-27_11h24.11.046,forced_choiceRT_color,2021.2.3,Win32,60.06727535,,,,,,,,2,Fast,short,d,1,1.8415,1,3,7,0,1,,,,,
,0.25,,,,,,,,,k,purple,5f32bc368853aa03df112fc6,2021-09-27_11h24.11.046,forced_choiceRT_color,2021.2.3,Win32,60.06727535,,,,,,,,2,Fast,short,k,1,1.8851,2,0,8,3,1,,,,,
,0.03,,,,,,,,,d,orange,5f32bc368853aa03df112fc6,2021-09-27_11h24.11.046,forced_choiceRT_color,2021.2.3,Win32,60.06727535,,,,,,,,2,Ontime,short,d,1,2.0178,2,1,9,0,1,,,,,
,1.29,,,,,,,,,d,orange,5f32bc368853aa03df112fc6,2021-09-27_11h24.11.046,forced_choiceRT_color,2021.2.3,Win32,60.06727535,,,,,,,,2,Ontime,short,d,1,2.0334,2,2,10,0,1,,,,,
,1.4,,,,,,,,,j,red,5f32bc368853aa03df112fc6,2021-09-27_11h24.11.046,forced_choiceRT_color,2021.2.3,Win32,60.06727535,,,,,,,,2,Ontime,short,j,1,2.0751,2,3,11,2,1,,,,,
,1.95,,,,,,,,,f,blue,5f32bc368853aa03df112fc6,2021-09-27_11h24.11.046,forced_choiceRT_color,2021.2.3,Win32,60.06727535,,,,,,,,2,Slow,short,k,0,2.3233,3,0,12,1,1,,,,,
,0.62,,,,,,,,,j,red,5f32bc368853aa03df112fc6,2021-09-27_11h24.11.046,forced_choiceRT_color,2021.2.3,Win32,60.06727535,,,,,,,,2,Ontime,short,j,1,2.0349,3,1,13,2,1,,,,,
,0.35,,,,,,,,,j,red,5f32bc368853aa03df112fc6,2021-09-27_11h24.11.046,forced_choiceRT_color,2021.2.3,Win32,60.06727535,,,,,,,,2,Ontime,short,j,1,2.0851,3,2,14,2,1,,,,,
,1.65,,,,,,,,,f,blue,5f32bc368853aa03df112fc6,2021-09-27_11h24.11.046,forced_choiceRT_color,2021.2.3,Win32,60.06727535,,,,,,,,2,Slow,short,j,0,2.2301,3,3,15,1,1,,,,,
,0.12,,,,,,,,,f,blue,5f32bc368853aa03df112fc6,2021-09-27_11h24.11.046,forced_choiceRT_color,2021.2.3,Win32,60.06727535,,,,,,,,2,Ontime,short,f,1,2.032,4,0,16,1,1,,,,,
,0.51,,,,,,,,,d,orange,5f32bc368853aa03df112fc6,2021-09-27_11h24.11.046,forced_choiceRT_color,2021.2.3,Win32,60.06727535,,,,,,,,2,Ontime,short,d,1,2.0268,4,1,17,0,1,,,,,
,0.94,,,,,,,,,k,purple,5f32bc368853aa03df112fc6,2021-09-27_11h24.11.046,forced_choiceRT_color,2021.2.3,Win32,60.06727535,,,,,,,,2,Ontime,short,k,1,2,4,2,18,3,1,,,,,
,0.68,,,,,,,,,f,blue,5f32bc368853aa03df112fc6,2021-09-27_11h24.11.046,forced_choiceRT_color,2021.2.3,Win32,60.06727535,,,,,,,,2,Ontime,short,f,1,2.0297,4,3,19,1,1,,,,,
,1.59,,,,,,,,,k,purple,5f32bc368853aa03df112fc6,2021-09-27_11h24.11.046,forced_choiceRT_color,2021.2.3,Win32,60.06727535,,,,,,,,2,Slow,short,k,1,2.1994,5,0,20,3,1,,,,,
,1.59,,,,,,,,,j,red,5f32bc368853aa03df112fc6,2021-09-27_11h24.11.046,forced_choiceRT_color,2021.2.3,Win32,60.06727535,,,,,,,,2,Ontime,short,f,0,2.019,5,1,21,2,1,,,,,
,1.53,,,,,,,,,d,orange,5f32bc368853aa03df112fc6,2021-09-27_11h24.11.046,forced_choiceRT_color,2021.2.3,Win32,60.06727535,,,,,,,,2,Ontime,short,d,1,2.0771,5,2,22,0,1,,,,,
,1.34,,,,,,,,,j,red,5f32bc368853aa03df112fc6,2021-09-27_11h24.11.046,forced_choiceRT_color,2021.2.3,Win32,60.06727535,,,,,,,,2,Ontime,short,j,1,2.009,5,3,23,2,1,,,,,
,1.42,,,,,,,,,f,blue,5f32bc368853aa03df112fc6,2021-09-27_11h24.11.046,forced_choiceRT_color,2021.2.3,Win32,60.06727535,,,,,,,,2,Ontime,short,f,1,1.999,6,0,24,1,1,,,,,
,0.82,,,,,,,,,k,purple,5f32bc368853aa03df112fc6,2021-09-27_11h24.11.046,forced_choiceRT_color,2021.2.3,Win32,60.06727535,,,,,,,,2,Ontime,short,k,1,1.9872,6,1,25,3,1,,,,,
,0.35,,,,,,,,,d,orange,5f32bc368853aa03df112fc6,2021-09-27_11h24.11.046,forced_choiceRT_color,2021.2.3,Win32,60.06727535,,,,,,,,2,Ontime,short,d,1,2.0172,6,2,26,0,1,,,,,
,0.09,,,,,,,,,k,purple,5f32bc368853aa03df112fc6,2021-09-27_11h24.11.046,forced_choiceRT_color,2021.2.3,Win32,60.06727535,,,,,,,,2,Ontime,short,k,1,2.0306,6,3,27,3,1,,,,,
,0.83,,,,,,,,,d,orange,5f32bc368853aa03df112fc6,2021-09-27_11h24.11.046,forced_choiceRT_color,2021.2.3,Win32,60.06727535,,,,,,,,2,Ontime,short,d,1,2.0175,7,0,28,0,1,,,,,
,1.93,,,,,,,,,k,purple,5f32bc368853aa03df112fc6,2021-09-27_11h24.11.046,forced_choiceRT_color,2021.2.3,Win32,60.06727535,,,,,,,,2,Slow,short,k,1,3.0786,7,1,29,3,1,,,,,
,0.18,,,,,,,,,d,orange,5f32bc368853aa03df112fc6,2021-09-27_11h24.11.046,forced_choiceRT_color,2021.2.3,Win32,60.06727535,,,,,,,,2,Ontime,short,d,1,1.9963,7,2,30,0,1,,,,,
,0.88,,,,,,,,,j,red,5f32bc368853aa03df112fc6,2021-09-27_11h24.11.046,forced_choiceRT_color,2021.2.3,Win32,60.06727535,,,,,,,,2,Slow,short,j,1,2.1103,7,3,31,2,1,,,,,
,0.95,,,,,,,,,j,red,5f32bc368853aa03df112fc6,2021-09-27_11h24.11.046,forced_choiceRT_color,2021.2.3,Win32,60.06727535,,,,,,,,2,Ontime,short,j,1,2.0231,8,0,32,2,1,,,,,
,1.2,,,,,,,,,j,red,5f32bc368853aa03df112fc6,2021-09-27_11h24.11.046,forced_choiceRT_color,2021.2.3,Win32,60.06727535,,,,,,,,2,Fast,short,j,1,1.8773,8,1,33,2,1,,,,,
,0.83,,,,,,,,,f,blue,5f32bc368853aa03df112fc6,2021-09-27_11h24.11.046,forced_choiceRT_color,2021.2.3,Win32,60.06727535,,,,,,,,2,Ontime,short,f,1,2.0676,8,2,34,1,1,,,,,
,0.99,,,,,,,,,k,purple,5f32bc368853aa03df112fc6,2021-09-27_11h24.11.046,forced_choiceRT_color,2021.2.3,Win32,60.06727535,,,,,,,,2,Ontime,short,k,1,2.0415,8,3,35,3,1,,,,,
,1.08,,,,,,,,,d,orange,5f32bc368853aa03df112fc6,2021-09-27_11h24.11.046,forced_choiceRT_color,2021.2.3,Win32,60.06727535,,,,,,,,2,Ontime,short,d,1,2.076,9,0,36,0,1,,,,,
,0.38,,,,,,,,,f,blue,5f32bc368853aa03df112fc6,2021-09-27_11h24.11.046,forced_choiceRT_color,2021.2.3,Win32,60.06727535,,,,,,,,2,Ontime,short,j,0,1.994,9,1,37,1,1,,,,,
,1.51,,,,,,,,,j,red,5f32bc368853aa03df112fc6,2021-09-27_11h24.11.046,forced_choiceRT_color,2021.2.3,Win32,60.06727535,,,,,,,,2,Ontime,short,j,1,2.0501,9,2,38,2,1,,,,,
,0.11,,,,,,,,,k,purple,5f32bc368853aa03df112fc6,2021-09-27_11h24.11.046,forced_choiceRT_color,2021.2.3,Win32,60.06727535,,,,,,,,2,Ontime,short,k,1,2.0491,9,3,39,3,1,,,,,
,,,,,,,,,,,,5f32bc368853aa03df112fc6,2021-09-27_11h24.11.046,forced_choiceRT_color,2021.2.3,Win32,60.06727535,,,,,,,,,,,,,,,,,,,1,0,1,0,1
,1.97,,,,,,,,,d,orange,5f32bc368853aa03df112fc6,2021-09-27_11h24.11.046,forced_choiceRT_color,2021.2.3,Win32,60.06727535,,,,,,,,3,Slow,short,d,1,2.2792,0,0,0,0,1,,,,,
,1.01,,,,,,,,,k,purple,5f32bc368853aa03df112fc6,2021-09-27_11h24.11.046,forced_choiceRT_color,2021.2.3,Win32,60.06727535,,,,,,,,3,Ontime,short,k,1,2.0845,0,1,1,3,1,,,,,
,0.16,,,,,,,,,j,red,5f32bc368853aa03df112fc6,2021-09-27_11h24.11.046,forced_choiceRT_color,2021.2.3,Win32,60.06727535,,,,,,,,3,Ontime,short,j,1,2.0201,0,2,2,2,1,,,,,
,0.3,,,,,,,,,k,purple,5f32bc368853aa03df112fc6,2021-09-27_11h24.11.046,forced_choiceRT_color,2021.2.3,Win32,60.06727535,,,,,,,,3,Ontime,short,k,1,2.0159,0,3,3,3,1,,,,,
,1.19,,,,,,,,,d,orange,5f32bc368853aa03df112fc6,2021-09-27_11h24.11.046,forced_choiceRT_color,2021.2.3,Win32,60.06727535,,,,,,,,3,Ontime,short,d,1,2.0058,1,0,4,0,1,,,,,
,0.42,,,,,,,,,d,orange,5f32bc368853aa03df112fc6,2021-09-27_11h24.11.046,forced_choiceRT_color,2021.2.3,Win32,60.06727535,,,,,,,,3,Ontime,short,d,1,2.0176,1,1,5,0,1,,,,,
,1.87,,,,,,,,,k,purple,5f32bc368853aa03df112fc6,2021-09-27_11h24.11.046,forced_choiceRT_color,2021.2.3,Win32,60.06727535,,,,,,,,3,Slow,short,k,1,2.3132,1,2,6,3,1,,,,,
,0.04,,,,,,,,,j,red,5f32bc368853aa03df112fc6,2021-09-27_11h24.11.046,forced_choiceRT_color,2021.2.3,Win32,60.06727535,,,,,,,,3,Ontime,short,j,1,1.9807,1,3,7,2,1,,,,,
,1.69,,,,,,,,,d,orange,5f32bc368853aa03df112fc6,2021-09-27_11h24.11.046,forced_choiceRT_color,2021.2.3,Win32,60.06727535,,,,,,,,3,Slow,short,d,1,2.2278,2,0,8,0,1,,,,,
,0.28,,,,,,,,,j,red,5f32bc368853aa03df112fc6,2021-09-27_11h24.11.046,forced_choiceRT_color,2021.2.3,Win32,60.06727535,,,,,,,,3,Ontime,short,j,1,2.0188,2,1,9,2,1,,,,,
,1.63,,,,,,,,,k,purple,5f32bc368853aa03df112fc6,2021-09-27_11h24.11.046,forced_choiceRT_color,2021.2.3,Win32,60.06727535,,,,,,,,3,Slow,short,k,1,2.3461,2,2,10,3,1,,,,,
,0.27,,,,,,,,,j,red,5f32bc368853aa03df112fc6,2021-09-27_11h24.11.046,forced_choiceRT_color,2021.2.3,Win32,60.06727535,,,,,,,,3,Ontime,short,j,1,2.049,2,3,11,2,1,,,,,
,0.82,,,,,,,,,f,blue,5f32bc368853aa03df112fc6,2021-09-27_11h24.11.046,forced_choiceRT_color,2021.2.3,Win32,60.06727535,,,,,,,,3,Ontime,short,f,1,2.0172,3,0,12,1,1,,,,,
,1.91,,,,,,,,,f,blue,5f32bc368853aa03df112fc6,2021-09-27_11h24.11.046,forced_choiceRT_color,2021.2.3,Win32,60.06727535,,,,,,,,3,Slow,short,f,1,2.2521,3,1,13,1,1,,,,,
,1.54,,,,,,,,,d,orange,5f32bc368853aa03df112fc6,2021-09-27_11h24.11.046,forced_choiceRT_color,2021.2.3,Win32,60.06727535,,,,,,,,3,Ontime,short,k,0,1.995,3,2,14,0,1,,,,,
,0.37,,,,,,,,,k,purple,5f32bc368853aa03df112fc6,2021-09-27_11h24.11.046,forced_choiceRT_color,2021.2.3,Win32,60.06727535,,,,,,,,3,Ontime,short,k,1,2.0216,3,3,15,3,1,,,,,
,1.47,,,,,,,,,k,purple,5f32bc368853aa03df112fc6,2021-09-27_11h24.11.046,forced_choiceRT_color,2021.2.3,Win32,60.06727535,,,,,,,,3,Ontime,short,k,1,1.9971,4,0,16,3,1,,,,,
,1.31,,,,,,,,,j,red,5f32bc368853aa03df112fc6,2021-09-27_11h24.11.046,forced_choiceRT_color,2021.2.3,Win32,60.06727535,,,,,,,,3,Slow,short,j,1,2.1201,4,1,17,2,1,,,,,
,0.53,,,,,,,,,j,red,5f32bc368853aa03df112fc6,2021-09-27_11h24.11.046,forced_choiceRT_color,2021.2.3,Win32,60.06727535,,,,,,,,3,Ontime,short,j,1,2.0445,4,2,18,2,1,,,,,
,1.03,,,,,,,,,d,orange,5f32bc368853aa03df112fc6,2021-09-27_11h24.11.046,forced_choiceRT_color,2021.2.3,Win32,60.06727535,,,,,,,,3,Ontime,short,d,1,2.0809,4,3,19,0,1,,,,,
,1.03,,,,,,,,,f,blue,5f32bc368853aa03df112fc6,2021-09-27_11h24.11.046,forced_choiceRT_color,2021.2.3,Win32,60.06727535,,,,,,,,3,Ontime,short,f,1,2.006,5,0,20,1,1,,,,,
,0.63,,,,,,,,,k,purple,5f32bc368853aa03df112fc6,2021-09-27_11h24.11.046,forced_choiceRT_color,2021.2.3,Win32,60.06727535,,,,,,,,3,Ontime,short,f,0,2.0524,5,1,21,3,1,,,,,
,1.03,,,,,,,,,d,orange,5f32bc368853aa03df112fc6,2021-09-27_11h24.11.046,forced_choiceRT_color,2021.2.3,Win32,60.06727535,,,,,,,,3,Ontime,short,d,1,1.9811,5,2,22,0,1,,,,,
,0.61,,,,,,,,,j,red,5f32bc368853aa03df112fc6,2021-09-27_11h24.11.046,forced_choiceRT_color,2021.2.3,Win32,60.06727535,,,,,,,,3,Ontime,short,f,0,1.9383,5,3,23,2,1,,,,,
,0.29,,,,,,,,,f,blue,5f32bc368853aa03df112fc6,2021-09-27_11h24.11.046,forced_choiceRT_color,2021.2.3,Win32,60.06727535,,,,,,,,3,Fast,short,f,1,1.8975,6,0,24,1,1,,,,,
,0.69,,,,,,,,,f,blue,5f32bc368853aa03df112fc6,2021-09-27_11h24.11.046,forced_choiceRT_color,2021.2.3,Win32,60.06727535,,,,,,,,3,Ontime,short,f,1,2.0331,6,1,25,1,1,,,,,
,1.79,,,,,,,,,d,orange,5f32bc368853aa03df112fc6,2021-09-27_11h24.11.046,forced_choiceRT_color,2021.2.3,Win32,60.06727535,,,,,,,,3,Slow,short,d,1,2.2807,6,2,26,0,1,,,,,
,0.07,,,,,,,,,k,purple,5f32bc368853aa03df112fc6,2021-09-27_11h24.11.046,forced_choiceRT_color,2021.2.3,Win32,60.06727535,,,,,,,,3,Ontime,short,k,1,1.9918,6,3,27,3,1,,,,,
,0.9,,,,,,,,,d,orange,5f32bc368853aa03df112fc6,2021-09-27_11h24.11.046,forced_choiceRT_color,2021.2.3,Win32,60.06727535,,,,,,,,3,Ontime,short,d,1,2.0369,7,0,28,0,1,,,,,
,1.92,,,,,,,,,k,purple,5f32bc368853aa03df112fc6,2021-09-27_11h24.11.046,forced_choiceRT_color,2021.2.3,Win32,60.06727535,,,,,,,,3,Slow,short,k,1,2.4801,7,1,29,3,1,,,,,
,0.34,,,,,,,,,f,blue,5f32bc368853aa03df112fc6,2021-09-27_11h24.11.046,forced_choiceRT_color,2021.2.3,Win32,60.06727535,,,,,,,,3,Ontime,short,f,1,2.0533,7,2,30,1,1,,,,,
,0.79,,,,,,,,,f,blue,5f32bc368853aa03df112fc6,2021-09-27_11h24.11.046,forced_choiceRT_color,2021.2.3,Win32,60.06727535,,,,,,,,3,Ontime,short,f,1,1.9676,7,3,31,1,1,,,,,
,1.46,,,,,,,,,f,blue,5f32bc368853aa03df112fc6,2021-09-27_11h24.11.046,forced_choiceRT_color,2021.2.3,Win32,60.06727535,,,,,,,,3,Fast,short,f,1,1.8472,8,0,32,1,1,,,,,
,1.01,,,,,,,,,j,red,5f32bc368853aa03df112fc6,2021-09-27_11h24.11.046,forced_choiceRT_color,2021.2.3,Win32,60.06727535,,,,,,,,3,Ontime,short,j,1,1.9923,8,1,33,2,1,,,,,
,1.13,,,,,,,,,j,red,5f32bc368853aa03df112fc6,2021-09-27_11h24.11.046,forced_choiceRT_color,2021.2.3,Win32,60.06727535,,,,,,,,3,Ontime,short,j,1,1.9798,8,2,34,2,1,,,,,
,1.1,,,,,,,,,j,red,5f32bc368853aa03df112fc6,2021-09-27_11h24.11.046,forced_choiceRT_color,2021.2.3,Win32,60.06727535,,,,,,,,3,Ontime,short,j,1,1.9347,8,3,35,2,1,,,,,
,0.78,,,,,,,,,f,blue,5f32bc368853aa03df112fc6,2021-09-27_11h24.11.046,forced_choiceRT_color,2021.2.3,Win32,60.06727535,,,,,,,,3,Ontime,short,f,1,1.9361,9,0,36,1,1,,,,,
,0.13,,,,,,,,,d,orange,5f32bc368853aa03df112fc6,2021-09-27_11h24.11.046,forced_choiceRT_color,2021.2.3,Win32,60.06727535,,,,,,,,3,Ontime,short,d,1,1.9205,9,1,37,0,1,,,,,
,0.37,,,,,,,,,k,purple,5f32bc368853aa03df112fc6,2021-09-27_11h24.11.046,forced_choiceRT_color,2021.2.3,Win32,60.06727535,,,,,,,,3,Fast,short,k,1,1.7831,9,2,38,3,1,,,,,
,1.15,,,,,,,,,f,blue,5f32bc368853aa03df112fc6,2021-09-27_11h24.11.046,forced_choiceRT_color,2021.2.3,Win32,60.06727535,,,,,,,,3,Ontime,short,f,1,1.9443,9,3,39,1,1,,,,,
,,,,,,,,,,,,5f32bc368853aa03df112fc6,2021-09-27_11h24.11.046,forced_choiceRT_color,2021.2.3,Win32,60.06727535,,,,,,,,,,,,,,,,,,,2,0,2,0,1
,0.86,,,,,,,,,k,purple,5f32bc368853aa03df112fc6,2021-09-27_11h24.11.046,forced_choiceRT_color,2021.2.3,Win32,60.06727535,,,,,,,,4,Fast,short,k,1,1.747,0,0,0,3,1,,,,,
,0.13,,,,,,,,,d,orange,5f32bc368853aa03df112fc6,2021-09-27_11h24.11.046,forced_choiceRT_color,2021.2.3,Win32,60.06727535,,,,,,,,4,Ontime,short,d,1,2.0335,0,1,1,0,1,,,,,
,0.65,,,,,,,,,j,red,5f32bc368853aa03df112fc6,2021-09-27_11h24.11.046,forced_choiceRT_color,2021.2.3,Win32,60.06727535,,,,,,,,4,Ontime,short,j,1,2.0779,0,2,2,2,1,,,,,
,1.29,,,,,,,,,d,orange,5f32bc368853aa03df112fc6,2021-09-27_11h24.11.046,forced_choiceRT_color,2021.2.3,Win32,60.06727535,,,,,,,,4,Ontime,short,d,1,1.9718,0,3,3,0,1,,,,,
,1.64,,,,,,,,,j,red,5f32bc368853aa03df112fc6,2021-09-27_11h24.11.046,forced_choiceRT_color,2021.2.3,Win32,60.06727535,,,,,,,,4,Slow,short,j,1,2.2182,1,0,4,2,1,,,,,
,1.12,,,,,,,,,j,red,5f32bc368853aa03df112fc6,2021-09-27_11h24.11.046,forced_choiceRT_color,2021.2.3,Win32,60.06727535,,,,,,,,4,Fast,short,j,1,1.5032,1,1,5,2,1,,,,,
,0.36,,,,,,,,,j,red,5f32bc368853aa03df112fc6,2021-09-27_11h24.11.046,forced_choiceRT_color,2021.2.3,Win32,60.06727535,,,,,,,,4,Ontime,short,j,1,2.08,1,2,6,2,1,,,,,
,0.36,,,,,,,,,k,purple,5f32bc368853aa03df112fc6,2021-09-27_11h24.11.046,forced_choiceRT_color,2021.2.3,Win32,60.06727535,,,,,,,,4,Ontime,short,k,1,2.0491,1,3,7,3,1,,,,,
,1.15,,,,,,,,,j,red,5f32bc368853aa03df112fc6,2021-09-27_11h24.11.046,forced_choiceRT_color,2021.2.3,Win32,60.06727535,,,,,,,,4,Ontime,short,j,1,2.0576,2,0,8,2,1,,,,,
,0.97,,,,,,,,,k,purple,5f32bc368853aa03df112fc6,2021-09-27_11h24.11.046,forced_choiceRT_color,2021.2.3,Win32,60.06727535,,,,,,,,4,Ontime,short,k,1,2.0504,2,1,9,3,1,,,,,
,0.52,,,,,,,,,k,purple,5f32bc368853aa03df112fc6,2021-09-27_11h24.11.046,forced_choiceRT_color,2021.2.3,Win32,60.06727535,,,,,,,,4,Ontime,short,k,1,2.033,2,2,10,3,1,,,,,
,1.63,,,,,,,,,f,blue,5f32bc368853aa03df112fc6,2021-09-27_11h24.11.046,forced_choiceRT_color,2021.2.3,Win32,60.06727535,,,,,,,,4,Ontime,short,f,1,2.0472,2,3,11,1,1,,,,,
,0.59,,,,,,,,,f,blue,5f32bc368853aa03df112fc6,2021-09-27_11h24.11.046,forced_choiceRT_color,2021.2.3,Win32,60.06727535,,,,,,,,4,Ontime,short,f,1,2.0342,3,0,12,1,1,,,,,
,0.31,,,,,,,,,k,purple,5f32bc368853aa03df112fc6,2021-09-27_11h24.11.046,forced_choiceRT_color,2021.2.3,Win32,60.06727535,,,,,,,,4,Ontime,short,k,1,1.9794,3,1,13,3,1,,,,,
,0.9,,,,,,,,,k,purple,5f32bc368853aa03df112fc6,2021-09-27_11h24.11.046,forced_choiceRT_color,2021.2.3,Win32,60.06727535,,,,,,,,4,Ontime,short,k,1,2.0003,3,2,14,3,1,,,,,
,1.31,,,,,,,,,j,red,5f32bc368853aa03df112fc6,2021-09-27_11h24.11.046,forced_choiceRT_color,2021.2.3,Win32,60.06727535,,,,,,,,4,Ontime,short,j,1,1.9472,3,3,15,2,1,,,,,
,1.49,,,,,,,,,d,orange,5f32bc368853aa03df112fc6,2021-09-27_11h24.11.046,forced_choiceRT_color,2021.2.3,Win32,60.06727535,,,,,,,,4,Slow,short,d,1,2.1833,4,0,16,0,1,,,,,
,1.94,,,,,,,,,f,blue,5f32bc368853aa03df112fc6,2021-09-27_11h24.11.046,forced_choiceRT_color,2021.2.3,Win32,60.06727535,,,,,,,,4,Slow,short,d,0,2.1641,4,1,17,1,1,,,,,
,1.75,,,,,,,,,f,blue,5f32bc368853aa03df112fc6,2021-09-27_11h24.11.046,forced_choiceRT_color,2021.2.3,Win32,60.06727535,,,,,,,,4,Ontime,short,f,1,2.0447,4,2,18,1,1,,,,,
,0.7,,,,,,,,,f,blue,5f32bc368853aa03df112fc6,2021-09-27_11h24.11.046,forced_choiceRT_color,2021.2.3,Win32,60.06727535,,,,,,,,4,Ontime,short,f,1,2.0218,4,3,19,1,1,,,,,
,0.36,,,,,,,,,j,red,5f32bc368853aa03df112fc6,2021-09-27_11h24.11.046,forced_choiceRT_color,2021.2.3,Win32,60.06727535,,,,,,,,4,Ontime,short,j,1,2.0334,5,0,20,2,1,,,,,
,1.15,,,,,,,,,d,orange,5f32bc368853aa03df112fc6,2021-09-27_11h24.11.046,forced_choiceRT_color,2021.2.3,Win32,60.06727535,,,,,,,,4,Ontime,short,k,0,2.0049,5,1,21,0,1,,,,,
,0.53,,,,,,,,,d,orange,5f32bc368853aa03df112fc6,2021-09-27_11h24.11.046,forced_choiceRT_color,2021.2.3,Win32,60.06727535,,,,,,,,4,Ontime,short,d,1,1.9694,5,2,22,0,1,,,,,
,1.8,,,,,,,,,j,red,5f32bc368853aa03df112fc6,2021-09-27_11h24.11.046,forced_choiceRT_color,2021.2.3,Win32,60.06727535,,,,,,,,4,Slow,short,d,0,2.1636,5,3,23,2,1,,,,,
,1.33,,,,,,,,,f,blue,5f32bc368853aa03df112fc6,2021-09-27_11h24.11.046,forced_choiceRT_color,2021.2.3,Win32,60.06727535,,,,,,,,4,Fast,short,f,1,1.8679,6,0,24,1,1,,,,,
,1.52,,,,,,,,,d,orange,5f32bc368853aa03df112fc6,2021-09-27_11h24.11.046,forced_choiceRT_color,2021.2.3,Win32,60.06727535,,,,,,,,4,Ontime,short,f,0,1.9688,6,1,25,0,1,,,,,
,1.88,,,,,,,,,f,blue,5f32bc368853aa03df112fc6,2021-09-27_11h24.11.046,forced_choiceRT_color,2021.2.3,Win32,60.06727535,,,,,,,,4,Ontime,short,d,0,2.0855,6,2,26,1,1,,,,,
,1.86,,,,,,,,,d,orange,5f32bc368853aa03df112fc6,2021-09-27_11h24.11.046,forced_choiceRT_color,2021.2.3,Win32,60.06727535,,,,,,,,4,Ontime,short,f,0,1.9867,6,3,27,0,1,,,,,
,0,,,,,,,,,j,red,5f32bc368853aa03df112fc6,2021-09-27_11h24.11.046,forced_choiceRT_color,2021.2.3,Win32,60.06727535,,,,,,,,4,Ontime,short,j,1,1.9986,7,0,28,2,1,,,,,
,0.65,,,,,,,,,k,purple,5f32bc368853aa03df112fc6,2021-09-27_11h24.11.046,forced_choiceRT_color,2021.2.3,Win32,60.06727535,,,,,,,,4,Ontime,short,k,1,1.9666,7,1,29,3,1,,,,,
,1.43,,,,,,,,,k,purple,5f32bc368853aa03df112fc6,2021-09-27_11h24.11.046,forced_choiceRT_color,2021.2.3,Win32,60.06727535,,,,,,,,4,Ontime,short,k,1,1.9178,7,2,30,3,1,,,,,
,1.77,,,,,,,,,f,blue,5f32bc368853aa03df112fc6,2021-09-27_11h24.11.046,forced_choiceRT_color,2021.2.3,Win32,60.06727535,,,,,,,,4,Ontime,short,f,1,2.042,7,3,31,1,1,,,,,
,1.38,,,,,,,,,k,purple,5f32bc368853aa03df112fc6,2021-09-27_11h24.11.046,forced_choiceRT_color,2021.2.3,Win32,60.06727535,,,,,,,,4,Ontime,short,k,1,1.9435,8,0,32,3,1,,,,,
,1.01,,,,,,,,,f,blue,5f32bc368853aa03df112fc6,2021-09-27_11h24.11.046,forced_choiceRT_color,2021.2.3,Win32,60.06727535,,,,,,,,4,Fast,short,f,1,1.6511,8,1,33,1,1,,,,,
,1.94,,,,,,,,,d,orange,5f32bc368853aa03df112fc6,2021-09-27_11h24.11.046,forced_choiceRT_color,2021.2.3,Win32,60.06727535,,,,,,,,4,Slow,short,k,0,2.4699,8,2,34,0,1,,,,,
,0.95,,,,,,,,,d,orange,5f32bc368853aa03df112fc6,2021-09-27_11h24.11.046,forced_choiceRT_color,2021.2.3,Win32,60.06727535,,,,,,,,4,Ontime,short,d,1,2.0837,8,3,35,0,1,,,,,
,0.71,,,,,,,,,j,red,5f32bc368853aa03df112fc6,2021-09-27_11h24.11.046,forced_choiceRT_color,2021.2.3,Win32,60.06727535,,,,,,,,4,Ontime,short,j,1,2.0679,9,0,36,2,1,,,,,
,0.47,,,,,,,,,d,orange,5f32bc368853aa03df112fc6,2021-09-27_11h24.11.046,forced_choiceRT_color,2021.2.3,Win32,60.06727535,,,,,,,,4,Slow,short,d,1,2.1003,9,1,37,0,1,,,,,
,1.15,,,,,,,,,f,blue,5f32bc368853aa03df112fc6,2021-09-27_11h24.11.046,forced_choiceRT_color,2021.2.3,Win32,60.06727535,,,,,,,,4,Ontime,short,d,0,2.0494,9,2,38,1,1,,,,,
,0.43,,,,,,,,,k,purple,5f32bc368853aa03df112fc6,2021-09-27_11h24.11.046,forced_choiceRT_color,2021.2.3,Win32,60.06727535,,,,,,,,4,Slow,short,k,1,2.1095,9,3,39,3,1,,,,,
,,,,,,,,,,,,5f32bc368853aa03df112fc6,2021-09-27_11h24.11.046,forced_choiceRT_color,2021.2.3,Win32,60.06727535,,,,,,,,,,,,,,,,,,,3,0,3,0,1
,0.51,,,,,,,,,d,orange,5f32bc368853aa03df112fc6,2021-09-27_11h24.11.046,forced_choiceRT_color,2021.2.3,Win32,60.06727535,,,,,,,,5,Slow,short,d,1,2.121,0,0,0,0,1,,,,,
,0.02,,,,,,,,,k,purple,5f32bc368853aa03df112fc6,2021-09-27_11h24.11.046,forced_choiceRT_color,2021.2.3,Win32,60.06727535,,,,,,,,5,Ontime,short,k,1,1.9383,0,1,1,3,1,,,,,
,0.04,,,,,,,,,d,orange,5f32bc368853aa03df112fc6,2021-09-27_11h24.11.046,forced_choiceRT_color,2021.2.3,Win32,60.06727535,,,,,,,,5,Ontime,short,d,1,1.9009,0,2,2,0,1,,,,,
,1.19,,,,,,,,,k,purple,5f32bc368853aa03df112fc6,2021-09-27_11h24.11.046,forced_choiceRT_color,2021.2.3,Win32,60.06727535,,,,,,,,5,Ontime,short,k,1,1.9748,0,3,3,3,1,,,,,
,0.57,,,,,,,,,f,blue,5f32bc368853aa03df112fc6,2021-09-27_11h24.11.046,forced_choiceRT_color,2021.2.3,Win32,60.06727535,,,,,,,,5,Fast,short,f,1,1.7886,1,0,4,1,1,,,,,
,0.65,,,,,,,,,f,blue,5f32bc368853aa03df112fc6,2021-09-27_11h24.11.046,forced_choiceRT_color,2021.2.3,Win32,60.06727535,,,,,,,,5,Ontime,short,f,1,1.9374,1,1,5,1,1,,,,,
,1.19,,,,,,,,,k,purple,5f32bc368853aa03df112fc6,2021-09-27_11h24.11.046,forced_choiceRT_color,2021.2.3,Win32,60.06727535,,,,,,,,5,Ontime,short,k,1,2.0616,1,2,6,3,1,,,,,
,1.88,,,,,,,,,f,blue,5f32bc368853aa03df112fc6,2021-09-27_11h24.11.046,forced_choiceRT_color,2021.2.3,Win32,60.06727535,,,,,,,,5,Slow,short,f,1,2.4363,1,3,7,1,1,,,,,
,1.54,,,,,,,,,k,purple,5f32bc368853aa03df112fc6,2021-09-27_11h24.11.046,forced_choiceRT_color,2021.2.3,Win32,60.06727535,,,,,,,,5,Ontime,short,d,0,2.0343,2,0,8,3,1,,,,,
,1.64,,,,,,,,,f,blue,5f32bc368853aa03df112fc6,2021-09-27_11h24.11.046,forced_choiceRT_color,2021.2.3,Win32,60.06727535,,,,,,,,5,Ontime,short,d,0,2.0175,2,1,9,1,1,,,,,
,1.59,,,,,,,,,f,blue,5f32bc368853aa03df112fc6,2021-09-27_11h24.11.046,forced_choiceRT_color,2021.2.3,Win32,60.06727535,,,,,,,,5,Fast,short,f,1,1.8859,2,2,10,1,1,,,,,
,0.23,,,,,,,,,k,purple,5f32bc368853aa03df112fc6,2021-09-27_11h24.11.046,forced_choiceRT_color,2021.2.3,Win32,60.06727535,,,,,,,,5,Ontime,short,k,1,1.9541,2,3,11,3,1,,,,,
,0.19,,,,,,,,,d,orange,5f32bc368853aa03df112fc6,2021-09-27_11h24.11.046,forced_choiceRT_color,2021.2.3,Win32,60.06727535,,,,,,,,5,Ontime,short,d,1,1.9654,3,0,12,0,1,,,,,
,0.11,,,,,,,,,j,red,5f32bc368853aa03df112fc6,2021-09-27_11h24.11.046,forced_choiceRT_color,2021.2.3,Win32,60.06727535,,,,,,,,5,Ontime,short,j,1,1.9742,3,1,13,2,1,,,,,
,1.11,,,,,,,,,d,orange,5f32bc368853aa03df112fc6,2021-09-27_11h24.11.046,forced_choiceRT_color,2021.2.3,Win32,60.06727535,,,,,,,,5,Ontime,short,d,1,2.0483,3,2,14,0,1,,,,,
,1.7,,,,,,,,,j,red,5f32bc368853aa03df112fc6,2021-09-27_11h24.11.046,forced_choiceRT_color,2021.2.3,Win32,60.06727535,,,,,,,,5,Slow,short,j,1,2.2642,3,3,15,2,1,,,,,
,0.56,,,,,,,,,d,orange,5f32bc368853aa03df112fc6,2021-09-27_11h24.11.046,forced_choiceRT_color,2021.2.3,Win32,60.06727535,,,,,,,,5,Ontime,short,d,1,1.9817,4,0,16,0,1,,,,,
,1.79,,,,,,,,,k,purple,5f32bc368853aa03df112fc6,2021-09-27_11h24.11.046,forced_choiceRT_color,2021.2.3,Win32,60.06727535,,,,,,,,5,Slow,short,d,0,2.2004,4,1,17,3,1,,,,,
,0.15,,,,,,,,,k,purple,5f32bc368853aa03df112fc6,2021-09-27_11h24.11.046,forced_choiceRT_color,2021.2.3,Win32,60.06727535,,,,,,,,5,Ontime,short,k,1,2.0316,4,2,18,3,1,,,,,
,0.12,,,,,,,,,k,purple,5f32bc368853aa03df112fc6,2021-09-27_11h24.11.046,forced_choiceRT_color,2021.2.3,Win32,60.06727535,,,,,,,,5,Slow,short,k,1,2.1176,4,3,19,3,1,,,,,
,0.97,,,,,,,,,k,purple,5f32bc368853aa03df112fc6,2021-09-27_11h24.11.046,forced_choiceRT_color,2021.2.3,Win32,60.06727535,,,,,,,,5,Ontime,short,k,1,1.934,5,0,20,3,1,,,,,
,1.57,,,,,,,,,j,red,5f32bc368853aa03df112fc6,2021-09-27_11h24.11.046,forced_choiceRT_color,2021.2.3,Win32,60.06727535,,,,,,,,5,Ontime,short,d,0,1.9694,5,1,21,2,1,,,,,
,0.23,,,,,,,,,j,red,5f32bc368853aa03df112fc6,2021-09-27_11h24.11.046,forced_choiceRT_color,2021.2.3,Win32,60.06727535,,,,,,,,5,Ontime,short,j,1,2.0221,5,2,22,2,1,,,,,
,0.23,,,,,,,,,d,orange,5f32bc368853aa03df112fc6,2021-09-27_11h24.11.046,forced_choiceRT_color,2021.2.3,Win32,60.06727535,,,,,,,,5,Ontime,short,d,1,2.0518,5,3,23,0,1,,,,,
,1.42,,,,,,,,,f,blue,5f32bc368853aa03df112fc6,2021-09-27_11h24.11.046,forced_choiceRT_color,2021.2.3,Win32,60.06727535,,,,,,,,5,Ontime,short,d,0,1.936,6,0,24,1,1,,,,,
,0.74,,,,,,,,,f,blue,5f32bc368853aa03df112fc6,2021-09-27_11h24.11.046,forced_choiceRT_color,2021.2.3,Win32,60.06727535,,,,,,,,5,Ontime,short,f,1,2.0019,6,1,25,1,1,,,,,
,1.35,,,,,,,,,k,purple,5f32bc368853aa03df112fc6,2021-09-27_11h24.11.046,forced_choiceRT_color,2021.2.3,Win32,60.06727535,,,,,,,,5,Ontime,short,k,1,1.9375,6,2,26,3,1,,,,,
,0.76,,,,,,,,,d,orange,5f32bc368853aa03df112fc6,2021-09-27_11h24.11.046,forced_choiceRT_color,2021.2.3,Win32,60.06727535,,,,,,,,5,Ontime,short,d,1,1.9838,6,3,27,0,1,,,,,
,1.12,,,,,,,,,j,red,5f32bc368853aa03df112fc6,2021-09-27_11h24.11.046,forced_choiceRT_color,2021.2.3,Win32,60.06727535,,,,,,,,5,Ontime,short,j,1,2.016,7,0,28,2,1,,,,,
,0.34,,,,,,,,,j,red,5f32bc368853aa03df112fc6,2021-09-27_11h24.11.046,forced_choiceRT_color,2021.2.3,Win32,60.06727535,,,,,,,,5,Ontime,short,j,1,2.0669,7,1,29,2,1,,,,,
,0.4,,,,,,,,,d,orange,5f32bc368853aa03df112fc6,2021-09-27_11h24.11.046,forced_choiceRT_color,2021.2.3,Win32,60.06727535,,,,,,,,5,Ontime,short,d,1,2.006,7,2,30,0,1,,,,,
,1.66,,,,,,,,,f,blue,5f32bc368853aa03df112fc6,2021-09-27_11h24.11.046,forced_choiceRT_color,2021.2.3,Win32,60.06727535,,,,,,,,5,Slow,short,j,0,2.3222,7,3,31,1,1,,,,,
,1.51,,,,,,,,,f,blue,5f32bc368853aa03df112fc6,2021-09-27_11h24.11.046,forced_choiceRT_color,2021.2.3,Win32,60.06727535,,,,,,,,5,Ontime,short,f,1,2.0688,8,0,32,1,1,,,,,
,0.44,,,,,,,,,j,red,5f32bc368853aa03df112fc6,2021-09-27_11h24.11.046,forced_choiceRT_color,2021.2.3,Win32,60.06727535,,,,,,,,5,Slow,short,j,1,2.1181,8,1,33,2,1,,,,,
,0.78,,,,,,,,,j,red,5f32bc368853aa03df112fc6,2021-09-27_11h24.11.046,forced_choiceRT_color,2021.2.3,Win32,60.06727535,,,,,,,,5,Ontime,short,j,1,1.9781,8,2,34,2,1,,,,,
,0.43,,,,,,,,,j,red,5f32bc368853aa03df112fc6,2021-09-27_11h24.11.046,forced_choiceRT_color,2021.2.3,Win32,60.06727535,,,,,,,,5,Ontime,short,j,1,2.0079,8,3,35,2,1,,,,,
,0.61,,,,,,,,,j,red,5f32bc368853aa03df112fc6,2021-09-27_11h24.11.046,forced_choiceRT_color,2021.2.3,Win32,60.06727535,,,,,,,,5,Ontime,short,j,1,2.0542,9,0,36,2,1,,,,,
,0.15,,,,,,,,,f,blue,5f32bc368853aa03df112fc6,2021-09-27_11h24.11.046,forced_choiceRT_color,2021.2.3,Win32,60.06727535,,,,,,,,5,Ontime,short,f,1,2.026,9,1,37,1,1,,,,,
,1.56,,,,,,,,,d,orange,5f32bc368853aa03df112fc6,2021-09-27_11h24.11.046,forced_choiceRT_color,2021.2.3,Win32,60.06727535,,,,,,,,5,Slow,short,k,0,2.3397,9,2,38,0,1,,,,,
,1.11,,,,,,,,,d,orange,5f32bc368853aa03df112fc6,2021-09-27_11h24.11.046,forced_choiceRT_color,2021.2.3,Win32,60.06727535,,,,,,,,5,Ontime,short,d,1,2.0704,9,3,39,0,1,,,,,
,,,,,,,,,,,,5f32bc368853aa03df112fc6,2021-09-27_11h24.11.046,forced_choiceRT_color,2021.2.3,Win32,60.06727535,,,,,,,,,,,,,,,,,,,4,0,4,0,1
,1.6,,,,,,,,,d,orange,5f32bc368853aa03df112fc6,2021-09-27_11h24.11.046,forced_choiceRT_color,2021.2.3,Win32,60.06727535,,,,,,,,6,Ontime,short,d,1,1.9646,0,0,0,0,1,,,,,
,1.95,,,,,,,,,j,red,5f32bc368853aa03df112fc6,2021-09-27_11h24.11.046,forced_choiceRT_color,2021.2.3,Win32,60.06727535,,,,,,,,6,Slow,short,k,0,2.4622,0,1,1,2,1,,,,,
,1.79,,,,,,,,,f,blue,5f32bc368853aa03df112fc6,2021-09-27_11h24.11.046,forced_choiceRT_color,2021.2.3,Win32,60.06727535,,,,,,,,6,Slow,short,j,0,2.2065,0,2,2,1,1,,,,,
,0.04,,,,,,,,,f,blue,5f32bc368853aa03df112fc6,2021-09-27_11h24.11.046,forced_choiceRT_color,2021.2.3,Win32,60.06727535,,,,,,,,6,Ontime,short,f,1,2.0498,0,3,3,1,1,,,,,
,0.69,,,,,,,,,k,purple,5f32bc368853aa03df112fc6,2021-09-27_11h24.11.046,forced_choiceRT_color,2021.2.3,Win32,60.06727535,,,,,,,,6,Slow,short,k,1,2.1051,1,0,4,3,1,,,,,
,1.12,,,,,,,,,f,blue,5f32bc368853aa03df112fc6,2021-09-27_11h24.11.046,forced_choiceRT_color,2021.2.3,Win32,60.06727535,,,,,,,,6,Ontime,short,f,1,2.0599,1,1,5,1,1,,,,,
,1.26,,,,,,,,,k,purple,5f32bc368853aa03df112fc6,2021-09-27_11h24.11.046,forced_choiceRT_color,2021.2.3,Win32,60.06727535,,,,,,,,6,Slow,short,k,1,2.1084,1,2,6,3,1,,,,,
,1.89,,,,,,,,,k,purple,5f32bc368853aa03df112fc6,2021-09-27_11h24.11.046,forced_choiceRT_color,2021.2.3,Win32,60.06727535,,,,,,,,6,Slow,short,k,1,2.4236,1,3,7,3,1,,,,,
,0.77,,,,,,,,,k,purple,5f32bc368853aa03df112fc6,2021-09-27_11h24.11.046,forced_choiceRT_color,2021.2.3,Win32,60.06727535,,,,,,,,6,Ontime,short,k,1,2.0213,2,0,8,3,1,,,,,
,1.39,,,,,,,,,f,blue,5f32bc368853aa03df112fc6,2021-09-27_11h24.11.046,forced_choiceRT_color,2021.2.3,Win32,60.06727535,,,,,,,,6,Slow,short,f,1,2.1023,2,1,9,1,1,,,,,
,0.53,,,,,,,,,j,red,5f32bc368853aa03df112fc6,2021-09-27_11h24.11.046,forced_choiceRT_color,2021.2.3,Win32,60.06727535,,,,,,,,6,Fast,short,j,1,1.8835,2,2,10,2,1,,,,,
,0.34,,,,,,,,,d,orange,5f32bc368853aa03df112fc6,2021-09-27_11h24.11.046,forced_choiceRT_color,2021.2.3,Win32,60.06727535,,,,,,,,6,Ontime,short,d,1,2.024,2,3,11,0,1,,,,,
,0.91,,,,,,,,,j,red,5f32bc368853aa03df112fc6,2021-09-27_11h24.11.046,forced_choiceRT_color,2021.2.3,Win32,60.06727535,,,,,,,,6,Slow,short,j,1,2.118,3,0,12,2,1,,,,,
,1,,,,,,,,,d,orange,5f32bc368853aa03df112fc6,2021-09-27_11h24.11.046,forced_choiceRT_color,2021.2.3,Win32,60.06727535,,,,,,,,6,Slow,short,d,1,2.2733,3,1,13,0,1,,,,,
,0.1,,,,,,,,,j,red,5f32bc368853aa03df112fc6,2021-09-27_11h24.11.046,forced_choiceRT_color,2021.2.3,Win32,60.06727535,,,,,,,,6,Slow,short,j,1,2.462,3,2,14,2,1,,,,,
,0.13,,,,,,,,,j,red,5f32bc368853aa03df112fc6,2021-09-27_11h24.11.046,forced_choiceRT_color,2021.2.3,Win32,60.06727535,,,,,,,,6,Ontime,short,j,1,2.0192,3,3,15,2,1,,,,,
,0.72,,,,,,,,,d,orange,5f32bc368853aa03df112fc6,2021-09-27_11h24.11.046,forced_choiceRT_color,2021.2.3,Win32,60.06727535,,,,,,,,6,Ontime,short,d,1,2.0322,4,0,16,0,1,,,,,
,0.54,,,,,,,,,k,purple,5f32bc368853aa03df112fc6,2021-09-27_11h24.11.046,forced_choiceRT_color,2021.2.3,Win32,60.06727535,,,,,,,,6,Ontime,short,k,1,2.0177,4,1,17,3,1,,,,,
,1.11,,,,,,,,,j,red,5f32bc368853aa03df112fc6,2021-09-27_11h24.11.046,forced_choiceRT_color,2021.2.3,Win32,60.06727535,,,,,,,,6,Ontime,short,j,1,1.9729,4,2,18,2,1,,,,,
,0.6,,,,,,,,,f,blue,5f32bc368853aa03df112fc6,2021-09-27_11h24.11.046,forced_choiceRT_color,2021.2.3,Win32,60.06727535,,,,,,,,6,Ontime,short,f,1,2.0394,4,3,19,1,1,,,,,
,0.12,,,,,,,,,k,purple,5f32bc368853aa03df112fc6,2021-09-27_11h24.11.046,forced_choiceRT_color,2021.2.3,Win32,60.06727535,,,,,,,,6,Ontime,short,k,1,1.9884,5,0,20,3,1,,,,,
,1.64,,,,,,,,,f,blue,5f32bc368853aa03df112fc6,2021-09-27_11h24.11.046,forced_choiceRT_color,2021.2.3,Win32,60.06727535,,,,,,,,6,Ontime,short,k,0,1.9993,5,1,21,1,1,,,,,
,1.11,,,,,,,,,d,orange,5f32bc368853aa03df112fc6,2021-09-27_11h24.11.046,forced_choiceRT_color,2021.2.3,Win32,60.06727535,,,,,,,,6,Ontime,short,d,1,1.9645,5,2,22,0,1,,,,,
,0.95,,,,,,,,,d,orange,5f32bc368853aa03df112fc6,2021-09-27_11h24.11.046,forced_choiceRT_color,2021.2.3,Win32,60.06727535,,,,,,,,6,Ontime,short,d,1,1.9816,5,3,23,0,1,,,,,
,0.26,,,,,,,,,d,orange,5f32bc368853aa03df112fc6,2021-09-27_11h24.11.046,forced_choiceRT_color,2021.2.3,Win32,60.06727535,,,,,,,,6,Fast,short,d,1,1.866,6,0,24,0,1,,,,,
,0.83,,,,,,,,,f,blue,5f32bc368853aa03df112fc6,2021-09-27_11h24.11.046,forced_choiceRT_color,2021.2.3,Win32,60.06727535,,,,,,,,6,Ontime,short,f,1,1.9895,6,1,25,1,1,,,,,
,0.82,,,,,,,,,f,blue,5f32bc368853aa03df112fc6,2021-09-27_11h24.11.046,forced_choiceRT_color,2021.2.3,Win32,60.06727535,,,,,,,,6,Ontime,short,f,1,1.9669,6,2,26,1,1,,,,,
,0.62,,,,,,,,,j,red,5f32bc368853aa03df112fc6,2021-09-27_11h24.11.046,forced_choiceRT_color,2021.2.3,Win32,60.06727535,,,,,,,,6,Ontime,short,j,1,1.9982,6,3,27,2,1,,,,,
,1.42,,,,,,,,,j,red,5f32bc368853aa03df112fc6,2021-09-27_11h24.11.046,forced_choiceRT_color,2021.2.3,Win32,60.06727535,,,,,,,,6,Fast,short,j,1,1.8738,7,0,28,2,1,,,,,
,1.88,,,,,,,,,k,purple,5f32bc368853aa03df112fc6,2021-09-27_11h24.11.046,forced_choiceRT_color,2021.2.3,Win32,60.06727535,,,,,,,,6,Slow,short,f,0,2.2638,7,1,29,3,1,,,,,
,1.43,,,,,,,,,f,blue,5f32bc368853aa03df112fc6,2021-09-27_11h24.11.046,forced_choiceRT_color,2021.2.3,Win32,60.06727535,,,,,,,,6,Ontime,short,j,0,1.9477,7,2,30,1,1,,,,,
,0.43,,,,,,,,,d,orange,5f32bc368853aa03df112fc6,2021-09-27_11h24.11.046,forced_choiceRT_color,2021.2.3,Win32,60.06727535,,,,,,,,6,Ontime,short,d,1,2.027,7,3,31,0,1,,,,,
,1.44,,,,,,,,,f,blue,5f32bc368853aa03df112fc6,2021-09-27_11h24.11.046,forced_choiceRT_color,2021.2.3,Win32,60.06727535,,,,,,,,6,Fast,short,f,1,1.828,8,0,32,1,1,,,,,
,1.13,,,,,,,,,d,orange,5f32bc368853aa03df112fc6,2021-09-27_11h24.11.046,forced_choiceRT_color,2021.2.3,Win32,60.06727535,,,,,,,,6,Fast,short,d,1,1.8121,8,1,33,0,1,,,,,
,0.3,,,,,,,,,k,purple,5f32bc368853aa03df112fc6,2021-09-27_11h24.11.046,forced_choiceRT_color,2021.2.3,Win32,60.06727535,,,,,,,,6,Ontime,short,k,1,2.0485,8,2,34,3,1,,,,,
,0.77,,,,,,,,,j,red,5f32bc368853aa03df112fc6,2021-09-27_11h24.11.046,forced_choiceRT_color,2021.2.3,Win32,60.06727535,,,,,,,,6,Ontime,short,j,1,2.051,8,3,35,2,1,,,,,
,1.64,,,,,,,,,d,orange,5f32bc368853aa03df112fc6,2021-09-27_11h24.11.046,forced_choiceRT_color,2021.2.3,Win32,60.06727535,,,,,,,,6,Slow,short,k,0,2.3194,9,0,36,0,1,,,,,
,0.99,,,,,,,,,k,purple,5f32bc368853aa03df112fc6,2021-09-27_11h24.11.046,forced_choiceRT_color,2021.2.3,Win32,60.06727535,,,,,,,,6,Ontime,short,k,1,2.042,9,1,37,3,1,,,,,
,0.31,,,,,,,,,j,red,5f32bc368853aa03df112fc6,2021-09-27_11h24.11.046,forced_choiceRT_color,2021.2.3,Win32,60.06727535,,,,,,,,6,Ontime,short,j,1,1.9905,9,2,38,2,1,,,,,
,1.29,,,,,,,,,k,purple,5f32bc368853aa03df112fc6,2021-09-27_11h24.11.046,forced_choiceRT_color,2021.2.3,Win32,60.06727535,,,,,,,,6,Slow,short,k,1,2.1003,9,3,39,3,1,,,,,
,,,,,,,,,,,,5f32bc368853aa03df112fc6,2021-09-27_11h24.11.046,forced_choiceRT_color,2021.2.3,Win32,60.06727535,,,,,,,,,,,,,,,,,,,5,0,5,0,1
,1.74,,,,,,,,,j,red,5f32bc368853aa03df112fc6,2021-09-27_11h24.11.046,forced_choiceRT_color,2021.2.3,Win32,60.06727535,,,,,,,,7,Slow,short,j,1,2.389,0,0,0,2,1,,,,,
,0.92,,,,,,,,,d,orange,5f32bc368853aa03df112fc6,2021-09-27_11h24.11.046,forced_choiceRT_color,2021.2.3,Win32,60.06727535,,,,,,,,7,Ontime,short,d,1,1.9513,0,1,1,0,1,,,,,
,0.16,,,,,,,,,k,purple,5f32bc368853aa03df112fc6,2021-09-27_11h24.11.046,forced_choiceRT_color,2021.2.3,Win32,60.06727535,,,,,,,,7,Ontime,short,k,1,2.0359,0,2,2,3,1,,,,,
,1.53,,,,,,,,,k,purple,5f32bc368853aa03df112fc6,2021-09-27_11h24.11.046,forced_choiceRT_color,2021.2.3,Win32,60.06727535,,,,,,,,7,Fast,short,k,1,1.8848,0,3,3,3,1,,,,,
,0.29,,,,,,,,,j,red,5f32bc368853aa03df112fc6,2021-09-27_11h24.11.046,forced_choiceRT_color,2021.2.3,Win32,60.06727535,,,,,,,,7,Ontime,short,j,1,2.0173,1,0,4,2,1,,,,,
,1.01,,,,,,,,,j,red,5f32bc368853aa03df112fc6,2021-09-27_11h24.11.046,forced_choiceRT_color,2021.2.3,Win32,60.06727535,,,,,,,,7,Ontime,short,j,1,2.0544,1,1,5,2,1,,,,,
,1.06,,,,,,,,,f,blue,5f32bc368853aa03df112fc6,2021-09-27_11h24.11.046,forced_choiceRT_color,2021.2.3,Win32,60.06727535,,,,,,,,7,Ontime,short,f,1,2.0332,1,2,6,1,1,,,,,
,0.3,,,,,,,,,j,red,5f32bc368853aa03df112fc6,2021-09-27_11h24.11.046,forced_choiceRT_color,2021.2.3,Win32,60.06727535,,,,,,,,7,Ontime,short,j,1,2.0515,1,3,7,2,1,,,,,
,1.17,,,,,,,,,d,orange,5f32bc368853aa03df112fc6,2021-09-27_11h24.11.046,forced_choiceRT_color,2021.2.3,Win32,60.06727535,,,,,,,,7,Slow,short,d,1,2.2466,2,0,8,0,1,,,,,
,1.45,,,,,,,,,d,orange,5f32bc368853aa03df112fc6,2021-09-27_11h24.11.046,forced_choiceRT_color,2021.2.3,Win32,60.06727535,,,,,,,,7,Ontime,short,d,1,2.0307,2,1,9,0,1,,,,,
,1.12,,,,,,,,,k,purple,5f32bc368853aa03df112fc6,2021-09-27_11h24.11.046,forced_choiceRT_color,2021.2.3,Win32,60.06727535,,,,,,,,7,Slow,short,k,1,2.1496,2,2,10,3,1,,,,,
,1.35,,,,,,,,,d,orange,5f32bc368853aa03df112fc6,2021-09-27_11h24.11.046,forced_choiceRT_color,2021.2.3,Win32,60.06727535,,,,,,,,7,Ontime,short,d,1,1.9355,2,3,11,0,1,,,,,
,0.24,,,,,,,,,f,blue,5f32bc368853aa03df112fc6,2021-09-27_11h24.11.046,forced_choiceRT_color,2021.2.3,Win32,60.06727535,,,,,,,,7,Ontime,short,f,1,2.0575,3,0,12,1,1,,,,,
,0.94,,,,,,,,,f,blue,5f32bc368853aa03df112fc6,2021-09-27_11h24.11.046,forced_choiceRT_color,2021.2.3,Win32,60.06727535,,,,,,,,7,Ontime,short,f,1,2.0454,3,1,13,1,1,,,,,
,1.99,,,,,,,,,j,red,5f32bc368853aa03df112fc6,2021-09-27_11h24.11.046,forced_choiceRT_color,2021.2.3,Win32,60.06727535,,,,,,,,7,Slow,short,j,1,2.3018,3,2,14,2,1,,,,,
,1.85,,,,,,,,,f,blue,5f32bc368853aa03df112fc6,2021-09-27_11h24.11.046,forced_choiceRT_color,2021.2.3,Win32,60.06727535,,,,,,,,7,Slow,short,d,0,2.2664,3,3,15,1,1,,,,,
,1.58,,,,,,,,,d,orange,5f32bc368853aa03df112fc6,2021-09-27_11h24.11.046,forced_choiceRT_color,2021.2.3,Win32,60.06727535,,,,,,,,7,Slow,short,f,0,2.1258,4,0,16,0,1,,,,,
,1.02,,,,,,,,,j,red,5f32bc368853aa03df112fc6,2021-09-27_11h24.11.046,forced_choiceRT_color,2021.2.3,Win32,60.06727535,,,,,,,,7,Fast,short,f,0,1.6728,4,1,17,2,1,,,,,
,1.1,,,,,,,,,k,purple,5f32bc368853aa03df112fc6,2021-09-27_11h24.11.046,forced_choiceRT_color,2021.2.3,Win32,60.06727535,,,,,,,,7,Slow,short,k,1,2.2187,4,2,18,3,1,,,,,
,1.26,,,,,,,,,f,blue,5f32bc368853aa03df112fc6,2021-09-27_11h24.11.046,forced_choiceRT_color,2021.2.3,Win32,60.06727535,,,,,,,,7,Ontime,short,f,1,2.0512,4,3,19,1,1,,,,,
,0.78,,,,,,,,,j,red,5f32bc368853aa03df112fc6,2021-09-27_11h24.11.046,forced_choiceRT_color,2021.2.3,Win32,60.06727535,,,,,,,,7,Fast,short,j,1,1.7494,5,0,20,2,1,,,,,
,0.39,,,,,,,,,k,purple,5f32bc368853aa03df112fc6,2021-09-27_11h24.11.046,forced_choiceRT_color,2021.2.3,Win32,60.06727535,,,,,,,,7,Ontime,short,k,1,1.9866,5,1,21,3,1,,,,,
,0.27,,,,,,,,,f,blue,5f32bc368853aa03df112fc6,2021-09-27_11h24.11.046,forced_choiceRT_color,2021.2.3,Win32,60.06727535,,,,,,,,7,Ontime,short,f,1,2.0498,5,2,22,1,1,,,,,
,1.24,,,,,,,,,j,red,5f32bc368853aa03df112fc6,2021-09-27_11h24.11.046,forced_choiceRT_color,2021.2.3,Win32,60.06727535,,,,,,,,7,Ontime,short,j,1,2.0138,5,3,23,2,1,,,,,
,0.03,,,,,,,,,f,blue,5f32bc368853aa03df112fc6,2021-09-27_11h24.11.046,forced_choiceRT_color,2021.2.3,Win32,60.06727535,,,,,,,,7,Ontime,short,f,1,2.0418,6,0,24,1,1,,,,,
,0.68,,,,,,,,,d,orange,5f32bc368853aa03df112fc6,2021-09-27_11h24.11.046,forced_choiceRT_color,2021.2.3,Win32,60.06727535,,,,,,,,7,Ontime,short,d,1,1.9999,6,1,25,0,1,,,,,
,0.46,,,,,,,,,k,purple,5f32bc368853aa03df112fc6,2021-09-27_11h24.11.046,forced_choiceRT_color,2021.2.3,Win32,60.06727535,,,,,,,,7,Ontime,short,k,1,2.0335,6,2,26,3,1,,,,,
,0.86,,,,,,,,,k,purple,5f32bc368853aa03df112fc6,2021-09-27_11h24.11.046,forced_choiceRT_color,2021.2.3,Win32,60.06727535,,,,,,,,7,Ontime,short,k,1,2.0615,6,3,27,3,1,,,,,
,0.03,,,,,,,,,k,purple,5f32bc368853aa03df112fc6,2021-09-27_11h24.11.046,forced_choiceRT_color,2021.2.3,Win32,60.06727535,,,,,,,,7,Ontime,short,k,1,2.0336,7,0,28,3,1,,,,,
,1.54,,,,,,,,,d,orange,5f32bc368853aa03df112fc6,2021-09-27_11h24.11.046,forced_choiceRT_color,2021.2.3,Win32,60.06727535,,,,,,,,7,Slow,short,d,1,2.1822,7,1,29,0,1,,,,,
,0.05,,,,,,,,,j,red,5f32bc368853aa03df112fc6,2021-09-27_11h24.11.046,forced_choiceRT_color,2021.2.3,Win32,60.06727535,,,,,,,,7,Ontime,short,j,1,2.0531,7,2,30,2,1,,,,,
,0.17,,,,,,,,,f,blue,5f32bc368853aa03df112fc6,2021-09-27_11h24.11.046,forced_choiceRT_color,2021.2.3,Win32,60.06727535,,,,,,,,7,Ontime,short,f,1,2.074,7,3,31,1,1,,,,,
,1.15,,,,,,,,,d,orange,5f32bc368853aa03df112fc6,2021-09-27_11h24.11.046,forced_choiceRT_color,2021.2.3,Win32,60.06727535,,,,,,,,7,Ontime,short,d,1,2.0617,8,0,32,0,1,,,,,
,1.76,,,,,,,,,f,blue,5f32bc368853aa03df112fc6,2021-09-27_11h24.11.046,forced_choiceRT_color,2021.2.3,Win32,60.06727535,,,,,,,,7,Slow,short,j,0,2.2839,8,1,33,1,1,,,,,
,1.06,,,,,,,,,f,blue,5f32bc368853aa03df112fc6,2021-09-27_11h24.11.046,forced_choiceRT_color,2021.2.3,Win32,60.06727535,,,,,,,,7,Ontime,short,f,1,2.0675,8,2,34,1,1,,,,,
,1.87,,,,,,,,,k,purple,5f32bc368853aa03df112fc6,2021-09-27_11h24.11.046,forced_choiceRT_color,2021.2.3,Win32,60.06727535,,,,,,,,7,Slow,short,k,1,2.4093,8,3,35,3,1,,,,,
,1.56,,,,,,,,,j,red,5f32bc368853aa03df112fc6,2021-09-27_11h24.11.046,forced_choiceRT_color,2021.2.3,Win32,60.06727535,,,,,,,,7,Slow,short,j,1,2.1827,9,0,36,2,1,,,,,
,1.17,,,,,,,,,d,orange,5f32bc368853aa03df112fc6,2021-09-27_11h24.11.046,forced_choiceRT_color,2021.2.3,Win32,60.06727535,,,,,,,,7,Ontime,short,d,1,1.9676,9,1,37,0,1,,,,,
,0.85,,,,,,,,,d,orange,5f32bc368853aa03df112fc6,2021-09-27_11h24.11.046,forced_choiceRT_color,2021.2.3,Win32,60.06727535,,,,,,,,7,Ontime,short,d,1,2.0169,9,2,38,0,1,,,,,
,1.55,,,,,,,,,k,purple,5f32bc368853aa03df112fc6,2021-09-27_11h24.11.046,forced_choiceRT_color,2021.2.3,Win32,60.06727535,,,,,,,,7,Ontime,short,j,0,2.0284,9,3,39,3,1,,,,,
,,,,,,,,,,,,5f32bc368853aa03df112fc6,2021-09-27_11h24.11.046,forced_choiceRT_color,2021.2.3,Win32,60.06727535,,,,,,,,,,,,,,,,,,,6,0,6,0,1
,1.41,,,,,,,,,k,purple,5f32bc368853aa03df112fc6,2021-09-27_11h24.11.046,forced_choiceRT_color,2021.2.3,Win32,60.06727535,,,,,,,,8,Slow,short,k,1,2.1109,0,0,0,3,1,,,,,
,0.69,,,,,,,,,f,blue,5f32bc368853aa03df112fc6,2021-09-27_11h24.11.046,forced_choiceRT_color,2021.2.3,Win32,60.06727535,,,,,,,,8,Ontime,short,f,1,1.9975,0,1,1,1,1,,,,,
,1.81,,,,,,,,,k,purple,5f32bc368853aa03df112fc6,2021-09-27_11h24.11.046,forced_choiceRT_color,2021.2.3,Win32,60.06727535,,,,,,,,8,Slow,short,j,0,2.2841,0,2,2,3,1,,,,,
,0.12,,,,,,,,,k,purple,5f32bc368853aa03df112fc6,2021-09-27_11h24.11.046,forced_choiceRT_color,2021.2.3,Win32,60.06727535,,,,,,,,8,Ontime,short,k,1,2.0627,0,3,3,3,1,,,,,
,0.99,,,,,,,,,j,red,5f32bc368853aa03df112fc6,2021-09-27_11h24.11.046,forced_choiceRT_color,2021.2.3,Win32,60.06727535,,,,,,,,8,Ontime,short,j,1,2.0968,1,0,4,2,1,,,,,
,0.71,,,,,,,,,d,orange,5f32bc368853aa03df112fc6,2021-09-27_11h24.11.046,forced_choiceRT_color,2021.2.3,Win32,60.06727535,,,,,,,,8,Ontime,short,d,1,2.0338,1,1,5,0,1,,,,,
,0.78,,,,,,,,,f,blue,5f32bc368853aa03df112fc6,2021-09-27_11h24.11.046,forced_choiceRT_color,2021.2.3,Win32,60.06727535,,,,,,,,8,Ontime,short,f,1,1.9989,1,2,6,1,1,,,,,
,0.71,,,,,,,,,d,orange,5f32bc368853aa03df112fc6,2021-09-27_11h24.11.046,forced_choiceRT_color,2021.2.3,Win32,60.06727535,,,,,,,,8,Ontime,short,d,1,1.9844,1,3,7,0,1,,,,,
,1.91,,,,,,,,,f,blue,5f32bc368853aa03df112fc6,2021-09-27_11h24.11.046,forced_choiceRT_color,2021.2.3,Win32,60.06727535,,,,,,,,8,Slow,short,k,0,2.1781,2,0,8,1,1,,,,,
,0.63,,,,,,,,,j,red,5f32bc368853aa03df112fc6,2021-09-27_11h24.11.046,forced_choiceRT_color,2021.2.3,Win32,60.06727535,,,,,,,,8,Ontime,short,j,1,2.0661,2,1,9,2,1,,,,,
,0.78,,,,,,,,,d,orange,5f32bc368853aa03df112fc6,2021-09-27_11h24.11.046,forced_choiceRT_color,2021.2.3,Win32,60.06727535,,,,,,,,8,Ontime,short,d,1,1.963,2,2,10,0,1,,,,,
,0.41,,,,,,,,,d,orange,5f32bc368853aa03df112fc6,2021-09-27_11h24.11.046,forced_choiceRT_color,2021.2.3,Win32,60.06727535,,,,,,,,8,Ontime,short,d,1,2.0022,2,3,11,0,1,,,,,
,0.19,,,,,,,,,j,red,5f32bc368853aa03df112fc6,2021-09-27_11h24.11.046,forced_choiceRT_color,2021.2.3,Win32,60.06727535,,,,,,,,8,Ontime,short,j,1,2.0381,3,0,12,2,1,,,,,
,0.78,,,,,,,,,k,purple,5f32bc368853aa03df112fc6,2021-09-27_11h24.11.046,forced_choiceRT_color,2021.2.3,Win32,60.06727535,,,,,,,,8,Ontime,short,k,1,2.0536,3,1,13,3,1,,,,,
,0.24,,,,,,,,,d,orange,5f32bc368853aa03df112fc6,2021-09-27_11h24.11.046,forced_choiceRT_color,2021.2.3,Win32,60.06727535,,,,,,,,8,Ontime,short,d,1,2.0206,3,2,14,0,1,,,,,
,1.98,,,,,,,,,f,blue,5f32bc368853aa03df112fc6,2021-09-27_11h24.11.046,forced_choiceRT_color,2021.2.3,Win32,60.06727535,,,,,,,,8,Slow,short,d,0,2.2099,3,3,15,1,1,,,,,
,0.73,,,,,,,,,k,purple,5f32bc368853aa03df112fc6,2021-09-27_11h24.11.046,forced_choiceRT_color,2021.2.3,Win32,60.06727535,,,,,,,,8,Ontime,short,k,1,1.9773,4,0,16,3,1,,,,,
,1.46,,,,,,,,,d,orange,5f32bc368853aa03df112fc6,2021-09-27_11h24.11.046,forced_choiceRT_color,2021.2.3,Win32,60.06727535,,,,,,,,8,Ontime,short,d,1,2.0166,4,1,17,0,1,,,,,
,0.7,,,,,,,,,j,red,5f32bc368853aa03df112fc6,2021-09-27_11h24.11.046,forced_choiceRT_color,2021.2.3,Win32,60.06727535,,,,,,,,8,Ontime,short,j,1,2.0491,4,2,18,2,1,,,,,
,1.97,,,,,,,,,f,blue,5f32bc368853aa03df112fc6,2021-09-27_11h24.11.046,forced_choiceRT_color,2021.2.3,Win32,60.06727535,,,,,,,,8,Slow,short,f,1,2.1672,4,3,19,1,1,,,,,
,0.24,,,,,,,,,j,red,5f32bc368853aa03df112fc6,2021-09-27_11h24.11.046,forced_choiceRT_color,2021.2.3,Win32,60.06727535,,,,,,,,8,Ontime,short,j,1,1.9854,5,0,20,2,1,,,,,
,0.14,,,,,,,,,j,red,5f32bc368853aa03df112fc6,2021-09-27_11h24.11.046,forced_choiceRT_color,2021.2.3,Win32,60.06727535,,,,,,,,8,Ontime,short,j,1,1.9483,5,1,21,2,1,,,,,
,0.37,,,,,,,,,k,purple,5f32bc368853aa03df112fc6,2021-09-27_11h24.11.046,forced_choiceRT_color,2021.2.3,Win32,60.06727535,,,,,,,,8,Ontime,short,k,1,1.9672,5,2,22,3,1,,,,,
,0.13,,,,,,,,,j,red,5f32bc368853aa03df112fc6,2021-09-27_11h24.11.046,forced_choiceRT_color,2021.2.3,Win32,60.06727535,,,,,,,,8,Ontime,short,j,1,1.985,5,3,23,2,1,,,,,
,1.43,,,,,,,,,f,blue,5f32bc368853aa03df112fc6,2021-09-27_11h24.11.046,forced_choiceRT_color,2021.2.3,Win32,60.06727535,,,,,,,,8,Ontime,short,f,1,1.9025,6,0,24,1,1,,,,,
,1.69,,,,,,,,,k,purple,5f32bc368853aa03df112fc6,2021-09-27_11h24.11.046,forced_choiceRT_color,2021.2.3,Win32,60.06727535,,,,,,,,8,Slow,short,d,0,2.1152,6,1,25,3,1,,,,,
,1.66,,,,,,,,,j,red,5f32bc368853aa03df112fc6,2021-09-27_11h24.11.046,forced_choiceRT_color,2021.2.3,Win32,60.06727535,,,,,,,,8,Ontime,short,d,0,2.0011,6,2,26,2,1,,,,,
,1.48,,,,,,,,,f,blue,5f32bc368853aa03df112fc6,2021-09-27_11h24.11.046,forced_choiceRT_color,2021.2.3,Win32,60.06727535,,,,,,,,8,Ontime,short,f,1,2.0661,6,3,27,1,1,,,,,
,0.22,,,,,,,,,j,red,5f32bc368853aa03df112fc6,2021-09-27_11h24.11.046,forced_choiceRT_color,2021.2.3,Win32,60.06727535,,,,,,,,8,Ontime,short,j,1,2.0307,7,0,28,2,1,,,,,
,0.53,,,,,,,,,d,orange,5f32bc368853aa03df112fc6,2021-09-27_11h24.11.046,forced_choiceRT_color,2021.2.3,Win32,60.06727535,,,,,,,,8,Ontime,short,d,1,1.9643,7,1,29,0,1,,,,,
,0.01,,,,,,,,,k,purple,5f32bc368853aa03df112fc6,2021-09-27_11h24.11.046,forced_choiceRT_color,2021.2.3,Win32,60.06727535,,,,,,,,8,Ontime,short,k,1,1.9539,7,2,30,3,1,,,,,
,1.35,,,,,,,,,f,blue,5f32bc368853aa03df112fc6,2021-09-27_11h24.11.046,forced_choiceRT_color,2021.2.3,Win32,60.06727535,,,,,,,,8,Fast,short,j,0,1.8828,7,3,31,1,1,,,,,
,1.72,,,,,,,,,f,blue,5f32bc368853aa03df112fc6,2021-09-27_11h24.11.046,forced_choiceRT_color,2021.2.3,Win32,60.06727535,,,,,,,,8,Ontime,short,f,1,1.9793,8,0,32,1,1,,,,,
,1.41,,,,,,,,,d,orange,5f32bc368853aa03df112fc6,2021-09-27_11h24.11.046,forced_choiceRT_color,2021.2.3,Win32,60.06727535,,,,,,,,8,Ontime,short,d,1,2.0999,8,1,33,0,1,,,,,
,1.04,,,,,,,,,f,blue,5f32bc368853aa03df112fc6,2021-09-27_11h24.11.046,forced_choiceRT_color,2021.2.3,Win32,60.06727535,,,,,,,,8,Ontime,short,f,1,1.9999,8,2,34,1,1,,,,,
,1.54,,,,,,,,,k,purple,5f32bc368853aa03df112fc6,2021-09-27_11h24.11.046,forced_choiceRT_color,2021.2.3,Win32,60.06727535,,,,,,,,8,Ontime,short,d,0,2.0245,8,3,35,3,1,,,,,
,1.11,,,,,,,,,d,orange,5f32bc368853aa03df112fc6,2021-09-27_11h24.11.046,forced_choiceRT_color,2021.2.3,Win32,60.06727535,,,,,,,,8,Ontime,short,d,1,2.0526,9,0,36,0,1,,,,,
,0.75,,,,,,,,,j,red,5f32bc368853aa03df112fc6,2021-09-27_11h24.11.046,forced_choiceRT_color,2021.2.3,Win32,60.06727535,,,,,,,,8,Ontime,short,j,1,2.0376,9,1,37,2,1,,,,,
,0.13,,,,,,,,,d,orange,5f32bc368853aa03df112fc6,2021-09-27_11h24.11.046,forced_choiceRT_color,2021.2.3,Win32,60.06727535,,,,,,,,8,Ontime,short,d,1,1.995,9,2,38,0,1,,,,,
,0.71,,,,,,,,,k,purple,5f32bc368853aa03df112fc6,2021-09-27_11h24.11.046,forced_choiceRT_color,2021.2.3,Win32,60.06727535,,,,,,,,8,Ontime,short,k,1,2.0537,9,3,39,3,1,,,,,
,,,,,,,,,,,,5f32bc368853aa03df112fc6,2021-09-27_11h24.11.046,forced_choiceRT_color,2021.2.3,Win32,60.06727535,,,,,,,,,,,,,,,,,,,7,0,7,0,1
,1.56,,,,,,,,,f,blue,5f32bc368853aa03df112fc6,2021-09-27_11h24.11.046,forced_choiceRT_color,2021.2.3,Win32,60.06727535,,,,,,,,9,Slow,short,j,0,2.4691,0,0,0,1,1,,,,,
,1.64,,,,,,,,,d,orange,5f32bc368853aa03df112fc6,2021-09-27_11h24.11.046,forced_choiceRT_color,2021.2.3,Win32,60.06727535,,,,,,,,9,Slow,short,k,0,2.1399,0,1,1,0,1,,,,,
,1.19,,,,,,,,,j,red,5f32bc368853aa03df112fc6,2021-09-27_11h24.11.046,forced_choiceRT_color,2021.2.3,Win32,60.06727535,,,,,,,,9,Ontime,short,j,1,1.9191,0,2,2,2,1,,,,,
,1.54,,,,,,,,,d,orange,5f32bc368853aa03df112fc6,2021-09-27_11h24.11.046,forced_choiceRT_color,2021.2.3,Win32,60.06727535,,,,,,,,9,Ontime,short,d,1,2.0441,0,3,3,0,1,,,,,
,1.57,,,,,,,,,k,purple,5f32bc368853aa03df112fc6,2021-09-27_11h24.11.046,forced_choiceRT_color,2021.2.3,Win32,60.06727535,,,,,,,,9,Slow,short,k,1,2.1179,1,0,4,3,1,,,,,
,1.31,,,,,,,,,j,red,5f32bc368853aa03df112fc6,2021-09-27_11h24.11.046,forced_choiceRT_color,2021.2.3,Win32,60.06727535,,,,,,,,9,Fast,short,f,0,1.8665,1,1,5,2,1,,,,,
,1.2,,,,,,,,,d,orange,5f32bc368853aa03df112fc6,2021-09-27_11h24.11.046,forced_choiceRT_color,2021.2.3,Win32,60.06727535,,,,,,,,9,Fast,short,d,1,1.8993,1,2,6,0,1,,,,,
,0.55,,,,,,,,,j,red,5f32bc368853aa03df112fc6,2021-09-27_11h24.11.046,forced_choiceRT_color,2021.2.3,Win32,60.06727535,,,,,,,,9,Ontime,short,j,1,1.9842,1,3,7,2,1,,,,,
,1.09,,,,,,,,,k,purple,5f32bc368853aa03df112fc6,2021-09-27_11h24.11.046,forced_choiceRT_color,2021.2.3,Win32,60.06727535,,,,,,,,9,Ontime,short,k,1,1.9958,2,0,8,3,1,,,,,
,0.13,,,,,,,,,d,orange,5f32bc368853aa03df112fc6,2021-09-27_11h24.11.046,forced_choiceRT_color,2021.2.3,Win32,60.06727535,,,,,,,,9,Ontime,short,d,1,1.9209,2,1,9,0,1,,,,,
,0.49,,,,,,,,,f,blue,5f32bc368853aa03df112fc6,2021-09-27_11h24.11.046,forced_choiceRT_color,2021.2.3,Win32,60.06727535,,,,,,,,9,Ontime,short,f,1,1.9888,2,2,10,1,1,,,,,
,0.17,,,,,,,,,f,blue,5f32bc368853aa03df112fc6,2021-09-27_11h24.11.046,forced_choiceRT_color,2021.2.3,Win32,60.06727535,,,,,,,,9,Ontime,short,f,1,1.9363,2,3,11,1,1,,,,,
,1.73,,,,,,,,,k,purple,5f32bc368853aa03df112fc6,2021-09-27_11h24.11.046,forced_choiceRT_color,2021.2.3,Win32,60.06727535,,,,,,,,9,Slow,short,k,1,2.2517,3,0,12,3,1,,,,,
,1.67,,,,,,,,,d,orange,5f32bc368853aa03df112fc6,2021-09-27_11h24.11.046,forced_choiceRT_color,2021.2.3,Win32,60.06727535,,,,,,,,9,Slow,short,d,1,2.648,3,1,13,0,1,,,,,
,1.15,,,,,,,,,j,red,5f32bc368853aa03df112fc6,2021-09-27_11h24.11.046,forced_choiceRT_color,2021.2.3,Win32,60.06727535,,,,,,,,9,Ontime,short,j,1,2.0278,3,2,14,2,1,,,,,
,0.17,,,,,,,,,d,orange,5f32bc368853aa03df112fc6,2021-09-27_11h24.11.046,forced_choiceRT_color,2021.2.3,Win32,60.06727535,,,,,,,,9,Ontime,short,d,1,2.0552,3,3,15,0,1,,,,,
,0.64,,,,,,,,,j,red,5f32bc368853aa03df112fc6,2021-09-27_11h24.11.046,forced_choiceRT_color,2021.2.3,Win32,60.06727535,,,,,,,,9,Ontime,short,j,1,2.0165,4,0,16,2,1,,,,,
,0.12,,,,,,,,,k,purple,5f32bc368853aa03df112fc6,2021-09-27_11h24.11.046,forced_choiceRT_color,2021.2.3,Win32,60.06727535,,,,,,,,9,Ontime,short,k,1,2.0219,4,1,17,3,1,,,,,
,1.88,,,,,,,,,j,red,5f32bc368853aa03df112fc6,2021-09-27_11h24.11.046,forced_choiceRT_color,2021.2.3,Win32,60.06727535,,,,,,,,9,Slow,short,j,1,2.5156,4,2,18,2,1,,,,,
,0.67,,,,,,,,,d,orange,5f32bc368853aa03df112fc6,2021-09-27_11h24.11.046,forced_choiceRT_color,2021.2.3,Win32,60.06727535,,,,,,,,9,Ontime,short,d,1,2.0292,4,3,19,0,1,,,,,
,0.85,,,,,,,,,f,blue,5f32bc368853aa03df112fc6,2021-09-27_11h24.11.046,forced_choiceRT_color,2021.2.3,Win32,60.06727535,,,,,,,,9,Ontime,short,f,1,2.0877,5,0,20,1,1,,,,,
,1.12,,,,,,,,,f,blue,5f32bc368853aa03df112fc6,2021-09-27_11h24.11.046,forced_choiceRT_color,2021.2.3,Win32,60.06727535,,,,,,,,9,Ontime,short,f,1,2.0226,5,1,21,1,1,,,,,
,0.1,,,,,,,,,k,purple,5f32bc368853aa03df112fc6,2021-09-27_11h24.11.046,forced_choiceRT_color,2021.2.3,Win32,60.06727535,,,,,,,,9,Ontime,short,k,1,2.0612,5,2,22,3,1,,,,,
,0.31,,,,,,,,,f,blue,5f32bc368853aa03df112fc6,2021-09-27_11h24.11.046,forced_choiceRT_color,2021.2.3,Win32,60.06727535,,,,,,,,9,Ontime,short,f,1,2.0673,5,3,23,1,1,,,,,
,0.79,,,,,,,,,j,red,5f32bc368853aa03df112fc6,2021-09-27_11h24.11.046,forced_choiceRT_color,2021.2.3,Win32,60.06727535,,,,,,,,9,Ontime,short,j,1,2.0112,6,0,24,2,1,,,,,
,1.22,,,,,,,,,j,red,5f32bc368853aa03df112fc6,2021-09-27_11h24.11.046,forced_choiceRT_color,2021.2.3,Win32,60.06727535,,,,,,,,9,Ontime,short,j,1,1.9668,6,1,25,2,1,,,,,
,1.4,,,,,,,,,f,blue,5f32bc368853aa03df112fc6,2021-09-27_11h24.11.046,forced_choiceRT_color,2021.2.3,Win32,60.06727535,,,,,,,,9,Ontime,short,f,1,2,6,2,26,1,1,,,,,
,1.49,,,,,,,,,f,blue,5f32bc368853aa03df112fc6,2021-09-27_11h24.11.046,forced_choiceRT_color,2021.2.3,Win32,60.06727535,,,,,,,,9,Ontime,short,f,1,1.9735,6,3,27,1,1,,,,,
,0.38,,,,,,,,,k,purple,5f32bc368853aa03df112fc6,2021-09-27_11h24.11.046,forced_choiceRT_color,2021.2.3,Win32,60.06727535,,,,,,,,9,Ontime,short,k,1,2.0343,7,0,28,3,1,,,,,
,1.71,,,,,,,,,d,orange,5f32bc368853aa03df112fc6,2021-09-27_11h24.11.046,forced_choiceRT_color,2021.2.3,Win32,60.06727535,,,,,,,,9,Slow,short,d,1,2.3513,7,1,29,0,1,,,,,
,1.47,,,,,,,,,k,purple,5f32bc368853aa03df112fc6,2021-09-27_11h24.11.046,forced_choiceRT_color,2021.2.3,Win32,60.06727535,,,,,,,,9,Slow,short,k,1,2.3773,7,2,30,3,1,,,,,
,1.95,,,,,,,,,d,orange,5f32bc368853aa03df112fc6,2021-09-27_11h24.11.046,forced_choiceRT_color,2021.2.3,Win32,60.06727535,,,,,,,,9,Slow,short,k,0,2.4683,7,3,31,0,1,,,,,
,0.38,,,,,,,,,j,red,5f32bc368853aa03df112fc6,2021-09-27_11h24.11.046,forced_choiceRT_color,2021.2.3,Win32,60.06727535,,,,,,,,9,Ontime,short,j,1,2.0351,8,0,32,2,1,,,,,
,1.86,,,,,,,,,d,orange,5f32bc368853aa03df112fc6,2021-09-27_11h24.11.046,forced_choiceRT_color,2021.2.3,Win32,60.06727535,,,,,,,,9,Slow,short,d,1,2.3101,8,1,33,0,1,,,,,
,0.14,,,,,,,,,k,purple,5f32bc368853aa03df112fc6,2021-09-27_11h24.11.046,forced_choiceRT_color,2021.2.3,Win32,60.06727535,,,,,,,,9,Ontime,short,k,1,1.996,8,2,34,3,1,,,,,
,0.51,,,,,,,,,k,purple,5f32bc368853aa03df112fc6,2021-09-27_11h24.11.046,forced_choiceRT_color,2021.2.3,Win32,60.06727535,,,,,,,,9,Ontime,short,k,1,2.0588,8,3,35,3,1,,,,,
,1.61,,,,,,,,,k,purple,5f32bc368853aa03df112fc6,2021-09-27_11h24.11.046,forced_choiceRT_color,2021.2.3,Win32,60.06727535,,,,,,,,9,Ontime,short,k,1,2.0003,9,0,36,3,1,,,,,
,1.93,,,,,,,,,j,red,5f32bc368853aa03df112fc6,2021-09-27_11h24.11.046,forced_choiceRT_color,2021.2.3,Win32,60.06727535,,,,,,,,9,Slow,short,j,1,2.4742,9,1,37,2,1,,,,,
,0.22,,,,,,,,,f,blue,5f32bc368853aa03df112fc6,2021-09-27_11h24.11.046,forced_choiceRT_color,2021.2.3,Win32,60.06727535,,,,,,,,9,Ontime,short,f,1,1.968,9,2,38,1,1,,,,,
,0.9,,,,,,,,,f,blue,5f32bc368853aa03df112fc6,2021-09-27_11h24.11.046,forced_choiceRT_color,2021.2.3,Win32,60.06727535,,,,,,,,9,Ontime,short,f,1,1.942,9,3,39,1,1,,,,,
,,,,,,,,,,,,5f32bc368853aa03df112fc6,2021-09-27_11h24.11.046,forced_choiceRT_color,2021.2.3,Win32,60.06727535,,,,,,,,,,,,,,,,,,,8,0,8,0,1
,1.18,,,,,,,,,k,purple,5f32bc368853aa03df112fc6,2021-09-27_11h24.11.046,forced_choiceRT_color,2021.2.3,Win32,60.06727535,,,,,,,,10,Ontime,short,k,1,2.0513,0,0,0,3,1,,,,,
,0.95,,,,,,,,,f,blue,5f32bc368853aa03df112fc6,2021-09-27_11h24.11.046,forced_choiceRT_color,2021.2.3,Win32,60.06727535,,,,,,,,10,Slow,short,j,0,2.1015,0,1,1,1,1,,,,,
,1.29,,,,,,,,,f,blue,5f32bc368853aa03df112fc6,2021-09-27_11h24.11.046,forced_choiceRT_color,2021.2.3,Win32,60.06727535,,,,,,,,10,Fast,short,f,1,1.8065,0,2,2,1,1,,,,,
,1.65,,,,,,,,,k,purple,5f32bc368853aa03df112fc6,2021-09-27_11h24.11.046,forced_choiceRT_color,2021.2.3,Win32,60.06727535,,,,,,,,10,Slow,short,k,1,2.2526,0,3,3,3,1,,,,,
,1.45,,,,,,,,,f,blue,5f32bc368853aa03df112fc6,2021-09-27_11h24.11.046,forced_choiceRT_color,2021.2.3,Win32,60.06727535,,,,,,,,10,Ontime,short,f,1,2.0043,1,0,4,1,1,,,,,
,1.88,,,,,,,,,k,purple,5f32bc368853aa03df112fc6,2021-09-27_11h24.11.046,forced_choiceRT_color,2021.2.3,Win32,60.06727535,,,,,,,,10,Slow,short,k,1,2.2589,1,1,5,3,1,,,,,
,0.95,,,,,,,,,f,blue,5f32bc368853aa03df112fc6,2021-09-27_11h24.11.046,forced_choiceRT_color,2021.2.3,Win32,60.06727535,,,,,,,,10,Ontime,short,f,1,1.9606,1,2,6,1,1,,,,,
,1.89,,,,,,,,,j,red,5f32bc368853aa03df112fc6,2021-09-27_11h24.11.046,forced_choiceRT_color,2021.2.3,Win32,60.06727535,,,,,,,,10,Slow,short,j,1,2.4279,1,3,7,2,1,,,,,
,1.81,,,,,,,,,d,orange,5f32bc368853aa03df112fc6,2021-09-27_11h24.11.046,forced_choiceRT_color,2021.2.3,Win32,60.06727535,,,,,,,,10,Slow,short,d,1,2.3002,2,0,8,0,1,,,,,
,1.7,,,,,,,,,f,blue,5f32bc368853aa03df112fc6,2021-09-27_11h24.11.046,forced_choiceRT_color,2021.2.3,Win32,60.06727535,,,,,,,,10,Slow,short,j,0,2.1549,2,1,9,1,1,,,,,
,1.44,,,,,,,,,f,blue,5f32bc368853aa03df112fc6,2021-09-27_11h24.11.046,forced_choiceRT_color,2021.2.3,Win32,60.06727535,,,,,,,,10,Ontime,short,f,1,1.9684,2,2,10,1,1,,,,,
,0.19,,,,,,,,,j,red,5f32bc368853aa03df112fc6,2021-09-27_11h24.11.046,forced_choiceRT_color,2021.2.3,Win32,60.06727535,,,,,,,,10,Ontime,short,j,1,2.0145,2,3,11,2,1,,,,,
,1.57,,,,,,,,,d,orange,5f32bc368853aa03df112fc6,2021-09-27_11h24.11.046,forced_choiceRT_color,2021.2.3,Win32,60.06727535,,,,,,,,10,Ontime,short,k,0,2.0797,3,0,12,0,1,,,,,
,0.68,,,,,,,,,j,red,5f32bc368853aa03df112fc6,2021-09-27_11h24.11.046,forced_choiceRT_color,2021.2.3,Win32,60.06727535,,,,,,,,10,Ontime,short,j,1,1.9912,3,1,13,2,1,,,,,
,0.18,,,,,,,,,j,red,5f32bc368853aa03df112fc6,2021-09-27_11h24.11.046,forced_choiceRT_color,2021.2.3,Win32,60.06727535,,,,,,,,10,Ontime,short,j,1,1.9828,3,2,14,2,1,,,,,
,1.68,,,,,,,,,k,purple,5f32bc368853aa03df112fc6,2021-09-27_11h24.11.046,forced_choiceRT_color,2021.2.3,Win32,60.06727535,,,,,,,,10,Slow,short,k,1,2.1462,3,3,15,3,1,,,,,
,1.85,,,,,,,,,j,red,5f32bc368853aa03df112fc6,2021-09-27_11h24.11.046,forced_choiceRT_color,2021.2.3,Win32,60.06727535,,,,,,,,10,Slow,short,d,0,2.2353,4,0,16,2,1,,,,,
,1.35,,,,,,,,,d,orange,5f32bc368853aa03df112fc6,2021-09-27_11h24.11.046,forced_choiceRT_color,2021.2.3,Win32,60.06727535,,,,,,,,10,Ontime,short,d,1,2.0572,4,1,17,0,1,,,,,
,0.86,,,,,,,,,k,purple,5f32bc368853aa03df112fc6,2021-09-27_11h24.11.046,forced_choiceRT_color,2021.2.3,Win32,60.06727535,,,,,,,,10,Ontime,short,k,1,1.9838,4,2,18,3,1,,,,,
,0.65,,,,,,,,,f,blue,5f32bc368853aa03df112fc6,2021-09-27_11h24.11.046,forced_choiceRT_color,2021.2.3,Win32,60.06727535,,,,,,,,10,Ontime,short,f,1,2.0679,4,3,19,1,1,,,,,
,1.59,,,,,,,,,j,red,5f32bc368853aa03df112fc6,2021-09-27_11h24.11.046,forced_choiceRT_color,2021.2.3,Win32,60.06727535,,,,,,,,10,Slow,short,j,1,2.2803,5,0,20,2,1,,,,,
,1.15,,,,,,,,,k,purple,5f32bc368853aa03df112fc6,2021-09-27_11h24.11.046,forced_choiceRT_color,2021.2.3,Win32,60.06727535,,,,,,,,10,Fast,short,k,1,1.7992,5,1,21,3,1,,,,,
,0.07,,,,,,,,,f,blue,5f32bc368853aa03df112fc6,2021-09-27_11h24.11.046,forced_choiceRT_color,2021.2.3,Win32,60.06727535,,,,,,,,10,Fast,short,f,1,1.641,5,2,22,1,1,,,,,
,0.35,,,,,,,,,d,orange,5f32bc368853aa03df112fc6,2021-09-27_11h24.11.046,forced_choiceRT_color,2021.2.3,Win32,60.06727535,,,,,,,,10,Ontime,short,d,1,2.0179,5,3,23,0,1,,,,,
,1.86,,,,,,,,,d,orange,5f32bc368853aa03df112fc6,2021-09-27_11h24.11.046,forced_choiceRT_color,2021.2.3,Win32,60.06727535,,,,,,,,10,Slow,short,d,1,2.1326,6,0,24,0,1,,,,,
,0.05,,,,,,,,,k,purple,5f32bc368853aa03df112fc6,2021-09-27_11h24.11.046,forced_choiceRT_color,2021.2.3,Win32,60.06727535,,,,,,,,10,Ontime,short,k,1,2.0176,6,1,25,3,1,,,,,
,0.45,,,,,,,,,d,orange,5f32bc368853aa03df112fc6,2021-09-27_11h24.11.046,forced_choiceRT_color,2021.2.3,Win32,60.06727535,,,,,,,,10,Ontime,short,d,1,2.0265,6,2,26,0,1,,,,,
,0.08,,,,,,,,,d,orange,5f32bc368853aa03df112fc6,2021-09-27_11h24.11.046,forced_choiceRT_color,2021.2.3,Win32,60.06727535,,,,,,,,10,Ontime,short,d,1,2.0209,6,3,27,0,1,,,,,
,0.4,,,,,,,,,k,purple,5f32bc368853aa03df112fc6,2021-09-27_11h24.11.046,forced_choiceRT_color,2021.2.3,Win32,60.06727535,,,,,,,,10,Ontime,short,k,1,2.0487,7,0,28,3,1,,,,,
,0.29,,,,,,,,,d,orange,5f32bc368853aa03df112fc6,2021-09-27_11h24.11.046,forced_choiceRT_color,2021.2.3,Win32,60.06727535,,,,,,,,10,Ontime,short,d,1,1.9986,7,1,29,0,1,,,,,
,1.02,,,,,,,,,f,blue,5f32bc368853aa03df112fc6,2021-09-27_11h24.11.046,forced_choiceRT_color,2021.2.3,Win32,60.06727535,,,,,,,,10,Ontime,short,f,1,2.0718,7,2,30,1,1,,,,,
,1.4,,,,,,,,,j,red,5f32bc368853aa03df112fc6,2021-09-27_11h24.11.046,forced_choiceRT_color,2021.2.3,Win32,60.06727535,,,,,,,,10,Ontime,short,j,1,2.0043,7,3,31,2,1,,,,,
,1.87,,,,,,,,,d,orange,5f32bc368853aa03df112fc6,2021-09-27_11h24.11.046,forced_choiceRT_color,2021.2.3,Win32,60.06727535,,,,,,,,10,Slow,short,d,1,2.352,8,0,32,0,1,,,,,
,1.03,,,,,,,,,j,red,5f32bc368853aa03df112fc6,2021-09-27_11h24.11.046,forced_choiceRT_color,2021.2.3,Win32,60.06727535,,,,,,,,10,Ontime,short,f,0,2.0866,8,1,33,2,1,,,,,
,1.26,,,,,,,,,j,red,5f32bc368853aa03df112fc6,2021-09-27_11h24.11.046,forced_choiceRT_color,2021.2.3,Win32,60.06727535,,,,,,,,10,Ontime,short,j,1,1.9969,8,2,34,2,1,,,,,
,0.48,,,,,,,,,j,red,5f32bc368853aa03df112fc6,2021-09-27_11h24.11.046,forced_choiceRT_color,2021.2.3,Win32,60.06727535,,,,,,,,10,Ontime,short,j,1,2.0345,8,3,35,2,1,,,,,
,1.51,,,,,,,,,f,blue,5f32bc368853aa03df112fc6,2021-09-27_11h24.11.046,forced_choiceRT_color,2021.2.3,Win32,60.06727535,,,,,,,,10,Ontime,short,f,1,1.9501,9,0,36,1,1,,,,,
,0.12,,,,,,,,,k,purple,5f32bc368853aa03df112fc6,2021-09-27_11h24.11.046,forced_choiceRT_color,2021.2.3,Win32,60.06727535,,,,,,,,10,Ontime,short,k,1,2.0531,9,1,37,3,1,,,,,
,1.21,,,,,,,,,k,purple,5f32bc368853aa03df112fc6,2021-09-27_11h24.11.046,forced_choiceRT_color,2021.2.3,Win32,60.06727535,,,,,,,,10,Ontime,short,k,1,2.0146,9,2,38,3,1,,,,,
,0.35,,,,,,,,,d,orange,5f32bc368853aa03df112fc6,2021-09-27_11h24.11.046,forced_choiceRT_color,2021.2.3,Win32,60.06727535,,,,,,,,10,Ontime,short,d,1,2.0492,9,3,39,0,1,,,,,
,,,,,,,,,,,,5f32bc368853aa03df112fc6,2021-09-27_11h24.11.046,forced_choiceRT_color,2021.2.3,Win32,60.06727535,,,,,,,,,,,,,,,,,,,9,0,9,0,1
