IP_Addresss,target_onset,trial_resp_sp.keys,trial_resp_sp.corr,trial_resp_sp.rt,trials_train_loop.thisRepN,trials_train_loop.thisTrialN,trials_train_loop.thisN,trials_train_loop.thisIndex,trials_train_loop.ran,correct_key,color,participant,date,expName,psychopyVersion,OS,frameRate,trial_resp_timing.keys,trial_resp_timing.rt,trials_train_timing.thisRepN,trials_train_timing.thisTrialN,trials_train_timing.thisN,trials_train_timing.thisIndex,trials_train_timing.ran,block_id,ontime,feedback_cond,forcedRT_resp.keys,forcedRT_resp.corr,forcedRT_resp.rt,trials.thisRepN,trials.thisTrialN,trials.thisN,trials.thisIndex,trials.ran,blocks.thisRepN,blocks.thisTrialN,blocks.thisN,blocks.thisIndex,blocks.ran
162.155.20.67,0,j,1,1.775,0,0,0,2,1,j,red,5f511ab38505ac2e8fbfac5e,2021-09-27_17h24.31.798,forced_choiceRT_color,2021.2.3,MacIntel,43.47826087,,,,,,,,,,,,,,,,,,,,,,,
,0,f,1,0.78,0,1,1,1,1,f,blue,5f511ab38505ac2e8fbfac5e,2021-09-27_17h24.31.798,forced_choiceRT_color,2021.2.3,MacIntel,43.47826087,,,,,,,,,,,,,,,,,,,,,,,
,0,k,1,0.681,0,2,2,3,1,k,purple,5f511ab38505ac2e8fbfac5e,2021-09-27_17h24.31.798,forced_choiceRT_color,2021.2.3,MacIntel,43.47826087,,,,,,,,,,,,,,,,,,,,,,,
,0,j,1,0.797,0,3,3,2,1,j,red,5f511ab38505ac2e8fbfac5e,2021-09-27_17h24.31.798,forced_choiceRT_color,2021.2.3,MacIntel,43.47826087,,,,,,,,,,,,,,,,,,,,,,,
,0,j,1,0.587,1,0,4,2,1,j,red,5f511ab38505ac2e8fbfac5e,2021-09-27_17h24.31.798,forced_choiceRT_color,2021.2.3,MacIntel,43.47826087,,,,,,,,,,,,,,,,,,,,,,,
,0,j,1,0.516,1,1,5,2,1,j,red,5f511ab38505ac2e8fbfac5e,2021-09-27_17h24.31.798,forced_choiceRT_color,2021.2.3,MacIntel,43.47826087,,,,,,,,,,,,,,,,,,,,,,,
,0,f,1,0.682,1,2,6,1,1,f,blue,5f511ab38505ac2e8fbfac5e,2021-09-27_17h24.31.798,forced_choiceRT_color,2021.2.3,MacIntel,43.47826087,,,,,,,,,,,,,,,,,,,,,,,
,0,k,1,0.585,1,3,7,3,1,k,purple,5f511ab38505ac2e8fbfac5e,2021-09-27_17h24.31.798,forced_choiceRT_color,2021.2.3,MacIntel,43.47826087,,,,,,,,,,,,,,,,,,,,,,,
,0,f,1,0.738,2,0,8,1,1,f,blue,5f511ab38505ac2e8fbfac5e,2021-09-27_17h24.31.798,forced_choiceRT_color,2021.2.3,MacIntel,43.47826087,,,,,,,,,,,,,,,,,,,,,,,
,0,j,1,0.536,2,1,9,2,1,j,red,5f511ab38505ac2e8fbfac5e,2021-09-27_17h24.31.798,forced_choiceRT_color,2021.2.3,MacIntel,43.47826087,,,,,,,,,,,,,,,,,,,,,,,
,0,k,1,0.551,2,2,10,3,1,k,purple,5f511ab38505ac2e8fbfac5e,2021-09-27_17h24.31.798,forced_choiceRT_color,2021.2.3,MacIntel,43.47826087,,,,,,,,,,,,,,,,,,,,,,,
,0,f,1,0.636,2,3,11,1,1,f,blue,5f511ab38505ac2e8fbfac5e,2021-09-27_17h24.31.798,forced_choiceRT_color,2021.2.3,MacIntel,43.47826087,,,,,,,,,,,,,,,,,,,,,,,
,0,d,1,0.414,3,0,12,0,1,d,orange,5f511ab38505ac2e8fbfac5e,2021-09-27_17h24.31.798,forced_choiceRT_color,2021.2.3,MacIntel,43.47826087,,,,,,,,,,,,,,,,,,,,,,,
,0,f,1,0.618,3,1,13,1,1,f,blue,5f511ab38505ac2e8fbfac5e,2021-09-27_17h24.31.798,forced_choiceRT_color,2021.2.3,MacIntel,43.47826087,,,,,,,,,,,,,,,,,,,,,,,
,0,j,1,0.38,3,2,14,2,1,j,red,5f511ab38505ac2e8fbfac5e,2021-09-27_17h24.31.798,forced_choiceRT_color,2021.2.3,MacIntel,43.47826087,,,,,,,,,,,,,,,,,,,,,,,
,0,j,1,0.479,3,3,15,2,1,j,red,5f511ab38505ac2e8fbfac5e,2021-09-27_17h24.31.798,forced_choiceRT_color,2021.2.3,MacIntel,43.47826087,,,,,,,,,,,,,,,,,,,,,,,
,0,j,1,0.396,4,0,16,2,1,j,red,5f511ab38505ac2e8fbfac5e,2021-09-27_17h24.31.798,forced_choiceRT_color,2021.2.3,MacIntel,43.47826087,,,,,,,,,,,,,,,,,,,,,,,
,0,d,1,0.473,4,1,17,0,1,d,orange,5f511ab38505ac2e8fbfac5e,2021-09-27_17h24.31.798,forced_choiceRT_color,2021.2.3,MacIntel,43.47826087,,,,,,,,,,,,,,,,,,,,,,,
,0,d,1,0.453,4,2,18,0,1,d,orange,5f511ab38505ac2e8fbfac5e,2021-09-27_17h24.31.798,forced_choiceRT_color,2021.2.3,MacIntel,43.47826087,,,,,,,,,,,,,,,,,,,,,,,
,0,d,1,0.459,4,3,19,0,1,d,orange,5f511ab38505ac2e8fbfac5e,2021-09-27_17h24.31.798,forced_choiceRT_color,2021.2.3,MacIntel,43.47826087,,,,,,,,,,,,,,,,,,,,,,,
,0,d,1,0.361,5,0,20,0,1,d,orange,5f511ab38505ac2e8fbfac5e,2021-09-27_17h24.31.798,forced_choiceRT_color,2021.2.3,MacIntel,43.47826087,,,,,,,,,,,,,,,,,,,,,,,
,0,j,1,0.419,5,1,21,2,1,j,red,5f511ab38505ac2e8fbfac5e,2021-09-27_17h24.31.798,forced_choiceRT_color,2021.2.3,MacIntel,43.47826087,,,,,,,,,,,,,,,,,,,,,,,
,0,j,1,0.486,5,2,22,2,1,j,red,5f511ab38505ac2e8fbfac5e,2021-09-27_17h24.31.798,forced_choiceRT_color,2021.2.3,MacIntel,43.47826087,,,,,,,,,,,,,,,,,,,,,,,
,0,j,1,0.374,5,3,23,2,1,j,red,5f511ab38505ac2e8fbfac5e,2021-09-27_17h24.31.798,forced_choiceRT_color,2021.2.3,MacIntel,43.47826087,,,,,,,,,,,,,,,,,,,,,,,
,0,k,1,0.428,6,0,24,3,1,k,purple,5f511ab38505ac2e8fbfac5e,2021-09-27_17h24.31.798,forced_choiceRT_color,2021.2.3,MacIntel,43.47826087,,,,,,,,,,,,,,,,,,,,,,,
,0,k,1,0.34,6,1,25,3,1,k,purple,5f511ab38505ac2e8fbfac5e,2021-09-27_17h24.31.798,forced_choiceRT_color,2021.2.3,MacIntel,43.47826087,,,,,,,,,,,,,,,,,,,,,,,
,0,f,0,0.404,6,2,26,0,1,d,orange,5f511ab38505ac2e8fbfac5e,2021-09-27_17h24.31.798,forced_choiceRT_color,2021.2.3,MacIntel,43.47826087,,,,,,,,,,,,,,,,,,,,,,,
,0,d,1,0.576,6,3,27,0,1,d,orange,5f511ab38505ac2e8fbfac5e,2021-09-27_17h24.31.798,forced_choiceRT_color,2021.2.3,MacIntel,43.47826087,,,,,,,,,,,,,,,,,,,,,,,
,0,f,1,0.519,7,0,28,1,1,f,blue,5f511ab38505ac2e8fbfac5e,2021-09-27_17h24.31.798,forced_choiceRT_color,2021.2.3,MacIntel,43.47826087,,,,,,,,,,,,,,,,,,,,,,,
,0,f,1,0.325,7,1,29,1,1,f,blue,5f511ab38505ac2e8fbfac5e,2021-09-27_17h24.31.798,forced_choiceRT_color,2021.2.3,MacIntel,43.47826087,,,,,,,,,,,,,,,,,,,,,,,
,0,k,1,0.583,7,2,30,3,1,k,purple,5f511ab38505ac2e8fbfac5e,2021-09-27_17h24.31.798,forced_choiceRT_color,2021.2.3,MacIntel,43.47826087,,,,,,,,,,,,,,,,,,,,,,,
,0,k,1,0.358,7,3,31,3,1,k,purple,5f511ab38505ac2e8fbfac5e,2021-09-27_17h24.31.798,forced_choiceRT_color,2021.2.3,MacIntel,43.47826087,,,,,,,,,,,,,,,,,,,,,,,
,0,f,1,0.501,8,0,32,1,1,f,blue,5f511ab38505ac2e8fbfac5e,2021-09-27_17h24.31.798,forced_choiceRT_color,2021.2.3,MacIntel,43.47826087,,,,,,,,,,,,,,,,,,,,,,,
,0,j,1,0.457,8,1,33,2,1,j,red,5f511ab38505ac2e8fbfac5e,2021-09-27_17h24.31.798,forced_choiceRT_color,2021.2.3,MacIntel,43.47826087,,,,,,,,,,,,,,,,,,,,,,,
,0,d,1,0.374,8,2,34,0,1,d,orange,5f511ab38505ac2e8fbfac5e,2021-09-27_17h24.31.798,forced_choiceRT_color,2021.2.3,MacIntel,43.47826087,,,,,,,,,,,,,,,,,,,,,,,
,0,d,1,0.364,8,3,35,0,1,d,orange,5f511ab38505ac2e8fbfac5e,2021-09-27_17h24.31.798,forced_choiceRT_color,2021.2.3,MacIntel,43.47826087,,,,,,,,,,,,,,,,,,,,,,,
,0,d,1,0.319,9,0,36,0,1,d,orange,5f511ab38505ac2e8fbfac5e,2021-09-27_17h24.31.798,forced_choiceRT_color,2021.2.3,MacIntel,43.47826087,,,,,,,,,,,,,,,,,,,,,,,
,0,d,1,0.35,9,1,37,0,1,d,orange,5f511ab38505ac2e8fbfac5e,2021-09-27_17h24.31.798,forced_choiceRT_color,2021.2.3,MacIntel,43.47826087,,,,,,,,,,,,,,,,,,,,,,,
,0,d,1,0.311,9,2,38,0,1,d,orange,5f511ab38505ac2e8fbfac5e,2021-09-27_17h24.31.798,forced_choiceRT_color,2021.2.3,MacIntel,43.47826087,,,,,,,,,,,,,,,,,,,,,,,
,0,j,1,0.631,9,3,39,2,1,j,red,5f511ab38505ac2e8fbfac5e,2021-09-27_17h24.31.798,forced_choiceRT_color,2021.2.3,MacIntel,43.47826087,,,,,,,,,,,,,,,,,,,,,,,
,0,f,1,0.491,10,0,40,1,1,f,blue,5f511ab38505ac2e8fbfac5e,2021-09-27_17h24.31.798,forced_choiceRT_color,2021.2.3,MacIntel,43.47826087,,,,,,,,,,,,,,,,,,,,,,,
,0,k,1,0.481,10,1,41,3,1,k,purple,5f511ab38505ac2e8fbfac5e,2021-09-27_17h24.31.798,forced_choiceRT_color,2021.2.3,MacIntel,43.47826087,,,,,,,,,,,,,,,,,,,,,,,
,0,k,1,0.408,10,2,42,3,1,k,purple,5f511ab38505ac2e8fbfac5e,2021-09-27_17h24.31.798,forced_choiceRT_color,2021.2.3,MacIntel,43.47826087,,,,,,,,,,,,,,,,,,,,,,,
,0,d,1,0.47,10,3,43,0,1,d,orange,5f511ab38505ac2e8fbfac5e,2021-09-27_17h24.31.798,forced_choiceRT_color,2021.2.3,MacIntel,43.47826087,,,,,,,,,,,,,,,,,,,,,,,
,0,k,1,0.619,11,0,44,3,1,k,purple,5f511ab38505ac2e8fbfac5e,2021-09-27_17h24.31.798,forced_choiceRT_color,2021.2.3,MacIntel,43.47826087,,,,,,,,,,,,,,,,,,,,,,,
,0,f,1,0.562,11,1,45,1,1,f,blue,5f511ab38505ac2e8fbfac5e,2021-09-27_17h24.31.798,forced_choiceRT_color,2021.2.3,MacIntel,43.47826087,,,,,,,,,,,,,,,,,,,,,,,
,0,k,1,0.472,11,2,46,3,1,k,purple,5f511ab38505ac2e8fbfac5e,2021-09-27_17h24.31.798,forced_choiceRT_color,2021.2.3,MacIntel,43.47826087,,,,,,,,,,,,,,,,,,,,,,,
,0,k,1,0.463,11,3,47,3,1,k,purple,5f511ab38505ac2e8fbfac5e,2021-09-27_17h24.31.798,forced_choiceRT_color,2021.2.3,MacIntel,43.47826087,,,,,,,,,,,,,,,,,,,,,,,
,0,f,1,0.55,12,0,48,1,1,f,blue,5f511ab38505ac2e8fbfac5e,2021-09-27_17h24.31.798,forced_choiceRT_color,2021.2.3,MacIntel,43.47826087,,,,,,,,,,,,,,,,,,,,,,,
,0,j,1,0.657,12,1,49,2,1,j,red,5f511ab38505ac2e8fbfac5e,2021-09-27_17h24.31.798,forced_choiceRT_color,2021.2.3,MacIntel,43.47826087,,,,,,,,,,,,,,,,,,,,,,,
,0,f,1,0.736,12,2,50,1,1,f,blue,5f511ab38505ac2e8fbfac5e,2021-09-27_17h24.31.798,forced_choiceRT_color,2021.2.3,MacIntel,43.47826087,,,,,,,,,,,,,,,,,,,,,,,
,0,f,1,0.508,12,3,51,1,1,f,blue,5f511ab38505ac2e8fbfac5e,2021-09-27_17h24.31.798,forced_choiceRT_color,2021.2.3,MacIntel,43.47826087,,,,,,,,,,,,,,,,,,,,,,,
,0,f,1,0.391,13,0,52,1,1,f,blue,5f511ab38505ac2e8fbfac5e,2021-09-27_17h24.31.798,forced_choiceRT_color,2021.2.3,MacIntel,43.47826087,,,,,,,,,,,,,,,,,,,,,,,
,0,k,1,0.51,13,1,53,3,1,k,purple,5f511ab38505ac2e8fbfac5e,2021-09-27_17h24.31.798,forced_choiceRT_color,2021.2.3,MacIntel,43.47826087,,,,,,,,,,,,,,,,,,,,,,,
,0,d,1,0.588,13,2,54,0,1,d,orange,5f511ab38505ac2e8fbfac5e,2021-09-27_17h24.31.798,forced_choiceRT_color,2021.2.3,MacIntel,43.47826087,,,,,,,,,,,,,,,,,,,,,,,
,0,k,1,0.51,13,3,55,3,1,k,purple,5f511ab38505ac2e8fbfac5e,2021-09-27_17h24.31.798,forced_choiceRT_color,2021.2.3,MacIntel,43.47826087,,,,,,,,,,,,,,,,,,,,,,,
,0,j,1,0.527,14,0,56,2,1,j,red,5f511ab38505ac2e8fbfac5e,2021-09-27_17h24.31.798,forced_choiceRT_color,2021.2.3,MacIntel,43.47826087,,,,,,,,,,,,,,,,,,,,,,,
,0,f,1,0.39,14,1,57,1,1,f,blue,5f511ab38505ac2e8fbfac5e,2021-09-27_17h24.31.798,forced_choiceRT_color,2021.2.3,MacIntel,43.47826087,,,,,,,,,,,,,,,,,,,,,,,
,0,k,1,0.403,14,2,58,3,1,k,purple,5f511ab38505ac2e8fbfac5e,2021-09-27_17h24.31.798,forced_choiceRT_color,2021.2.3,MacIntel,43.47826087,,,,,,,,,,,,,,,,,,,,,,,
,0,d,1,0.518,14,3,59,0,1,d,orange,5f511ab38505ac2e8fbfac5e,2021-09-27_17h24.31.798,forced_choiceRT_color,2021.2.3,MacIntel,43.47826087,,,,,,,,,,,,,,,,,,,,,,,
,,,,,,,,,,,,5f511ab38505ac2e8fbfac5e,2021-09-27_17h24.31.798,forced_choiceRT_color,2021.2.3,MacIntel,43.47826087,d,2.162,0,0,0,0,1,,,,,,,,,,,,,,,,
,,,,,,,,,,,,5f511ab38505ac2e8fbfac5e,2021-09-27_17h24.31.798,forced_choiceRT_color,2021.2.3,MacIntel,43.47826087,d,1.621,1,0,1,0,1,,,,,,,,,,,,,,,,
,,,,,,,,,,,,5f511ab38505ac2e8fbfac5e,2021-09-27_17h24.31.798,forced_choiceRT_color,2021.2.3,MacIntel,43.47826087,d,2.067,2,0,2,0,1,,,,,,,,,,,,,,,,
,,,,,,,,,,,,5f511ab38505ac2e8fbfac5e,2021-09-27_17h24.31.798,forced_choiceRT_color,2021.2.3,MacIntel,43.47826087,f,2.106,3,0,3,0,1,,,,,,,,,,,,,,,,
,,,,,,,,,,,,5f511ab38505ac2e8fbfac5e,2021-09-27_17h24.31.798,forced_choiceRT_color,2021.2.3,MacIntel,43.47826087,f,2.028,4,0,4,0,1,,,,,,,,,,,,,,,,
,,,,,,,,,,,,5f511ab38505ac2e8fbfac5e,2021-09-27_17h24.31.798,forced_choiceRT_color,2021.2.3,MacIntel,43.47826087,j,1.965,5,0,5,0,1,,,,,,,,,,,,,,,,
,,,,,,,,,,,,5f511ab38505ac2e8fbfac5e,2021-09-27_17h24.31.798,forced_choiceRT_color,2021.2.3,MacIntel,43.47826087,k,1.936,6,0,6,0,1,,,,,,,,,,,,,,,,
,,,,,,,,,,,,5f511ab38505ac2e8fbfac5e,2021-09-27_17h24.31.798,forced_choiceRT_color,2021.2.3,MacIntel,43.47826087,j,1.96,7,0,7,0,1,,,,,,,,,,,,,,,,
,,,,,,,,,,,,5f511ab38505ac2e8fbfac5e,2021-09-27_17h24.31.798,forced_choiceRT_color,2021.2.3,MacIntel,43.47826087,f,2.007,8,0,8,0,1,,,,,,,,,,,,,,,,
,,,,,,,,,,,,5f511ab38505ac2e8fbfac5e,2021-09-27_17h24.31.798,forced_choiceRT_color,2021.2.3,MacIntel,43.47826087,d,2.022,9,0,9,0,1,,,,,,,,,,,,,,,,
,,,,,,,,,,,,5f511ab38505ac2e8fbfac5e,2021-09-27_17h24.31.798,forced_choiceRT_color,2021.2.3,MacIntel,43.47826087,d,1.967,10,0,10,0,1,,,,,,,,,,,,,,,,
,,,,,,,,,,,,5f511ab38505ac2e8fbfac5e,2021-09-27_17h24.31.798,forced_choiceRT_color,2021.2.3,MacIntel,43.47826087,f,1.768,11,0,11,0,1,,,,,,,,,,,,,,,,
,,,,,,,,,,,,5f511ab38505ac2e8fbfac5e,2021-09-27_17h24.31.798,forced_choiceRT_color,2021.2.3,MacIntel,43.47826087,f,1.998,12,0,12,0,1,,,,,,,,,,,,,,,,
,,,,,,,,,,,,5f511ab38505ac2e8fbfac5e,2021-09-27_17h24.31.798,forced_choiceRT_color,2021.2.3,MacIntel,43.47826087,j,1.944,13,0,13,0,1,,,,,,,,,,,,,,,,
,,,,,,,,,,,,5f511ab38505ac2e8fbfac5e,2021-09-27_17h24.31.798,forced_choiceRT_color,2021.2.3,MacIntel,43.47826087,k,2.037,14,0,14,0,1,,,,,,,,,,,,,,,,
,,,,,,,,,,,,5f511ab38505ac2e8fbfac5e,2021-09-27_17h24.31.798,forced_choiceRT_color,2021.2.3,MacIntel,43.47826087,k,2.022,15,0,15,0,1,,,,,,,,,,,,,,,,
,,,,,,,,,,,,5f511ab38505ac2e8fbfac5e,2021-09-27_17h24.31.798,forced_choiceRT_color,2021.2.3,MacIntel,43.47826087,j,1.903,16,0,16,0,1,,,,,,,,,,,,,,,,
,,,,,,,,,,,,5f511ab38505ac2e8fbfac5e,2021-09-27_17h24.31.798,forced_choiceRT_color,2021.2.3,MacIntel,43.47826087,f,1.911,17,0,17,0,1,,,,,,,,,,,,,,,,
,,,,,,,,,,,,5f511ab38505ac2e8fbfac5e,2021-09-27_17h24.31.798,forced_choiceRT_color,2021.2.3,MacIntel,43.47826087,d,1.974,18,0,18,0,1,,,,,,,,,,,,,,,,
,,,,,,,,,,,,5f511ab38505ac2e8fbfac5e,2021-09-27_17h24.31.798,forced_choiceRT_color,2021.2.3,MacIntel,43.47826087,d,1.841,19,0,19,0,1,,,,,,,,,,,,,,,,
,0.77,,,,,,,,,d,orange,5f511ab38505ac2e8fbfac5e,2021-09-27_17h24.31.798,forced_choiceRT_color,2021.2.3,MacIntel,43.47826087,,,,,,,,1,Ontime,short,d,1,1.905,0,0,0,0,1,,,,,
,0.79,,,,,,,,,k,purple,5f511ab38505ac2e8fbfac5e,2021-09-27_17h24.31.798,forced_choiceRT_color,2021.2.3,MacIntel,43.47826087,,,,,,,,1,Ontime,short,k,1,1.914,0,1,1,3,1,,,,,
,0.82,,,,,,,,,k,purple,5f511ab38505ac2e8fbfac5e,2021-09-27_17h24.31.798,forced_choiceRT_color,2021.2.3,MacIntel,43.47826087,,,,,,,,1,Fast,short,k,1,1.761,0,2,2,3,1,,,,,
,1.09,,,,,,,,,d,orange,5f511ab38505ac2e8fbfac5e,2021-09-27_17h24.31.798,forced_choiceRT_color,2021.2.3,MacIntel,43.47826087,,,,,,,,1,Fast,short,d,1,1.827,0,3,3,0,1,,,,,
,1.94,,,,,,,,,j,red,5f511ab38505ac2e8fbfac5e,2021-09-27_17h24.31.798,forced_choiceRT_color,2021.2.3,MacIntel,43.47826087,,,,,,,,1,Slow,short,j,1,2.272,1,0,4,2,1,,,,,
,1.45,,,,,,,,,f,blue,5f511ab38505ac2e8fbfac5e,2021-09-27_17h24.31.798,forced_choiceRT_color,2021.2.3,MacIntel,43.47826087,,,,,,,,1,Fast,short,d,0,1.761,1,1,5,1,1,,,,,
,0.3,,,,,,,,,f,blue,5f511ab38505ac2e8fbfac5e,2021-09-27_17h24.31.798,forced_choiceRT_color,2021.2.3,MacIntel,43.47826087,,,,,,,,1,Fast,short,f,1,1.513,1,2,6,1,1,,,,,
,0.79,,,,,,,,,k,purple,5f511ab38505ac2e8fbfac5e,2021-09-27_17h24.31.798,forced_choiceRT_color,2021.2.3,MacIntel,43.47826087,,,,,,,,1,Ontime,short,k,1,1.95,1,3,7,3,1,,,,,
,1.08,,,,,,,,,f,blue,5f511ab38505ac2e8fbfac5e,2021-09-27_17h24.31.798,forced_choiceRT_color,2021.2.3,MacIntel,43.47826087,,,,,,,,1,Ontime,short,f,1,1.967,2,0,8,1,1,,,,,
,1.9,,,,,,,,,j,red,5f511ab38505ac2e8fbfac5e,2021-09-27_17h24.31.798,forced_choiceRT_color,2021.2.3,MacIntel,43.47826087,,,,,,,,1,Ontime,short,d,0,1.994,2,1,9,2,1,,,,,
,0.37,,,,,,,,,d,orange,5f511ab38505ac2e8fbfac5e,2021-09-27_17h24.31.798,forced_choiceRT_color,2021.2.3,MacIntel,43.47826087,,,,,,,,1,Fast,short,d,1,1.878,2,2,10,0,1,,,,,
,0.97,,,,,,,,,k,purple,5f511ab38505ac2e8fbfac5e,2021-09-27_17h24.31.798,forced_choiceRT_color,2021.2.3,MacIntel,43.47826087,,,,,,,,1,Fast,short,k,1,1.894,2,3,11,3,1,,,,,
,1.94,,,,,,,,,j,red,5f511ab38505ac2e8fbfac5e,2021-09-27_17h24.31.798,forced_choiceRT_color,2021.2.3,MacIntel,43.47826087,,,,,,,,1,Ontime,short,f,0,2.023,3,0,12,2,1,,,,,
,1.53,,,,,,,,,j,red,5f511ab38505ac2e8fbfac5e,2021-09-27_17h24.31.798,forced_choiceRT_color,2021.2.3,MacIntel,43.47826087,,,,,,,,1,Ontime,short,d,0,1.969,3,1,13,2,1,,,,,
,1.43,,,,,,,,,k,purple,5f511ab38505ac2e8fbfac5e,2021-09-27_17h24.31.798,forced_choiceRT_color,2021.2.3,MacIntel,43.47826087,,,,,,,,1,Fast,short,f,0,0.101,3,2,14,3,1,,,,,
,1.82,,,,,,,,,d,orange,5f511ab38505ac2e8fbfac5e,2021-09-27_17h24.31.798,forced_choiceRT_color,2021.2.3,MacIntel,43.47826087,,,,,,,,1,Ontime,short,d,1,1.905,3,3,15,0,1,,,,,
,0.68,,,,,,,,,j,red,5f511ab38505ac2e8fbfac5e,2021-09-27_17h24.31.798,forced_choiceRT_color,2021.2.3,MacIntel,43.47826087,,,,,,,,1,Fast,short,j,1,1.869,4,0,16,2,1,,,,,
,1.98,,,,,,,,,k,purple,5f511ab38505ac2e8fbfac5e,2021-09-27_17h24.31.798,forced_choiceRT_color,2021.2.3,MacIntel,43.47826087,,,,,,,,1,Ontime,short,j,0,2.075,4,1,17,3,1,,,,,
,1.86,,,,,,,,,d,orange,5f511ab38505ac2e8fbfac5e,2021-09-27_17h24.31.798,forced_choiceRT_color,2021.2.3,MacIntel,43.47826087,,,,,,,,1,Ontime,short,j,0,1.991,4,2,18,0,1,,,,,
,0.56,,,,,,,,,d,orange,5f511ab38505ac2e8fbfac5e,2021-09-27_17h24.31.798,forced_choiceRT_color,2021.2.3,MacIntel,43.47826087,,,,,,,,1,Fast,short,d,1,1.819,4,3,19,0,1,,,,,
,0.35,,,,,,,,,f,blue,5f511ab38505ac2e8fbfac5e,2021-09-27_17h24.31.798,forced_choiceRT_color,2021.2.3,MacIntel,43.47826087,,,,,,,,1,Fast,short,f,1,1.804,5,0,20,1,1,,,,,
,1.51,,,,,,,,,f,blue,5f511ab38505ac2e8fbfac5e,2021-09-27_17h24.31.798,forced_choiceRT_color,2021.2.3,MacIntel,43.47826087,,,,,,,,1,Ontime,short,j,0,1.916,5,1,21,1,1,,,,,
,1.16,,,,,,,,,k,purple,5f511ab38505ac2e8fbfac5e,2021-09-27_17h24.31.798,forced_choiceRT_color,2021.2.3,MacIntel,43.47826087,,,,,,,,1,Fast,short,k,1,1.685,5,2,22,3,1,,,,,
,0.66,,,,,,,,,d,orange,5f511ab38505ac2e8fbfac5e,2021-09-27_17h24.31.798,forced_choiceRT_color,2021.2.3,MacIntel,43.47826087,,,,,,,,1,Ontime,short,d,1,1.902,5,3,23,0,1,,,,,
,0.05,,,,,,,,,d,orange,5f511ab38505ac2e8fbfac5e,2021-09-27_17h24.31.798,forced_choiceRT_color,2021.2.3,MacIntel,43.47826087,,,,,,,,1,Ontime,short,d,1,1.967,6,0,24,0,1,,,,,
,1.28,,,,,,,,,f,blue,5f511ab38505ac2e8fbfac5e,2021-09-27_17h24.31.798,forced_choiceRT_color,2021.2.3,MacIntel,43.47826087,,,,,,,,1,Ontime,short,f,1,1.919,6,1,25,1,1,,,,,
,0.9,,,,,,,,,d,orange,5f511ab38505ac2e8fbfac5e,2021-09-27_17h24.31.798,forced_choiceRT_color,2021.2.3,MacIntel,43.47826087,,,,,,,,1,Fast,short,d,1,1.675,6,2,26,0,1,,,,,
,1.6,,,,,,,,,k,purple,5f511ab38505ac2e8fbfac5e,2021-09-27_17h24.31.798,forced_choiceRT_color,2021.2.3,MacIntel,43.47826087,,,,,,,,1,Ontime,short,k,1,2.001,6,3,27,3,1,,,,,
,0.25,,,,,,,,,f,blue,5f511ab38505ac2e8fbfac5e,2021-09-27_17h24.31.798,forced_choiceRT_color,2021.2.3,MacIntel,43.47826087,,,,,,,,1,Fast,short,f,1,1.826,7,0,28,1,1,,,,,
,0.45,,,,,,,,,f,blue,5f511ab38505ac2e8fbfac5e,2021-09-27_17h24.31.798,forced_choiceRT_color,2021.2.3,MacIntel,43.47826087,,,,,,,,1,Ontime,short,f,1,1.906,7,1,29,1,1,,,,,
,1.93,,,,,,,,,k,purple,5f511ab38505ac2e8fbfac5e,2021-09-27_17h24.31.798,forced_choiceRT_color,2021.2.3,MacIntel,43.47826087,,,,,,,,1,Ontime,short,k,1,1.958,7,2,30,3,1,,,,,
,0.01,,,,,,,,,f,blue,5f511ab38505ac2e8fbfac5e,2021-09-27_17h24.31.798,forced_choiceRT_color,2021.2.3,MacIntel,43.47826087,,,,,,,,1,Fast,short,f,1,1.878,7,3,31,1,1,,,,,
,1.16,,,,,,,,,j,red,5f511ab38505ac2e8fbfac5e,2021-09-27_17h24.31.798,forced_choiceRT_color,2021.2.3,MacIntel,43.47826087,,,,,,,,1,Fast,short,j,1,1.842,8,0,32,2,1,,,,,
,1.81,,,,,,,,,f,blue,5f511ab38505ac2e8fbfac5e,2021-09-27_17h24.31.798,forced_choiceRT_color,2021.2.3,MacIntel,43.47826087,,,,,,,,1,Ontime,short,d,0,1.944,8,1,33,1,1,,,,,
,0.62,,,,,,,,,d,orange,5f511ab38505ac2e8fbfac5e,2021-09-27_17h24.31.798,forced_choiceRT_color,2021.2.3,MacIntel,43.47826087,,,,,,,,1,Ontime,short,d,1,1.982,8,2,34,0,1,,,,,
,1.32,,,,,,,,,j,red,5f511ab38505ac2e8fbfac5e,2021-09-27_17h24.31.798,forced_choiceRT_color,2021.2.3,MacIntel,43.47826087,,,,,,,,1,Fast,short,j,1,1.882,8,3,35,2,1,,,,,
,0.98,,,,,,,,,j,red,5f511ab38505ac2e8fbfac5e,2021-09-27_17h24.31.798,forced_choiceRT_color,2021.2.3,MacIntel,43.47826087,,,,,,,,1,Ontime,short,j,1,1.934,9,0,36,2,1,,,,,
,1.45,,,,,,,,,j,red,5f511ab38505ac2e8fbfac5e,2021-09-27_17h24.31.798,forced_choiceRT_color,2021.2.3,MacIntel,43.47826087,,,,,,,,1,Ontime,short,j,1,1.952,9,1,37,2,1,,,,,
,1.65,,,,,,,,,k,purple,5f511ab38505ac2e8fbfac5e,2021-09-27_17h24.31.798,forced_choiceRT_color,2021.2.3,MacIntel,43.47826087,,,,,,,,1,Ontime,short,k,1,1.955,9,2,38,3,1,,,,,
,1.27,,,,,,,,,j,red,5f511ab38505ac2e8fbfac5e,2021-09-27_17h24.31.798,forced_choiceRT_color,2021.2.3,MacIntel,43.47826087,,,,,,,,1,Ontime,short,j,1,1.92,9,3,39,2,1,,,,,
,,,,,,,,,,,,5f511ab38505ac2e8fbfac5e,2021-09-27_17h24.31.798,forced_choiceRT_color,2021.2.3,MacIntel,43.47826087,,,,,,,,,,,,,,,,,,,0,0,0,0,1
,0.83,,,,,,,,,f,blue,5f511ab38505ac2e8fbfac5e,2021-09-27_17h24.31.798,forced_choiceRT_color,2021.2.3,MacIntel,43.47826087,,,,,,,,2,Fast,short,k,0,1.689,0,0,0,1,1,,,,,
,1.31,,,,,,,,,f,blue,5f511ab38505ac2e8fbfac5e,2021-09-27_17h24.31.798,forced_choiceRT_color,2021.2.3,MacIntel,43.47826087,,,,,,,,2,Fast,short,f,1,1.835,0,1,1,1,1,,,,,
,0.62,,,,,,,,,f,blue,5f511ab38505ac2e8fbfac5e,2021-09-27_17h24.31.798,forced_choiceRT_color,2021.2.3,MacIntel,43.47826087,,,,,,,,2,Fast,short,f,1,1.895,0,2,2,1,1,,,,,
,1.83,,,,,,,,,f,blue,5f511ab38505ac2e8fbfac5e,2021-09-27_17h24.31.798,forced_choiceRT_color,2021.2.3,MacIntel,43.47826087,,,,,,,,2,Ontime,short,f,1,1.984,0,3,3,1,1,,,,,
,1.12,,,,,,,,,j,red,5f511ab38505ac2e8fbfac5e,2021-09-27_17h24.31.798,forced_choiceRT_color,2021.2.3,MacIntel,43.47826087,,,,,,,,2,Fast,short,j,1,1.865,1,0,4,2,1,,,,,
,0.21,,,,,,,,,j,red,5f511ab38505ac2e8fbfac5e,2021-09-27_17h24.31.798,forced_choiceRT_color,2021.2.3,MacIntel,43.47826087,,,,,,,,2,Ontime,short,j,1,1.917,1,1,5,2,1,,,,,
,1.01,,,,,,,,,d,orange,5f511ab38505ac2e8fbfac5e,2021-09-27_17h24.31.798,forced_choiceRT_color,2021.2.3,MacIntel,43.47826087,,,,,,,,2,Fast,short,d,1,1.849,1,2,6,0,1,,,,,
,0.57,,,,,,,,,j,red,5f511ab38505ac2e8fbfac5e,2021-09-27_17h24.31.798,forced_choiceRT_color,2021.2.3,MacIntel,43.47826087,,,,,,,,2,Ontime,short,j,1,1.95,1,3,7,2,1,,,,,
,0.42,,,,,,,,,j,red,5f511ab38505ac2e8fbfac5e,2021-09-27_17h24.31.798,forced_choiceRT_color,2021.2.3,MacIntel,43.47826087,,,,,,,,2,Fast,short,j,1,1.835,2,0,8,2,1,,,,,
,1.25,,,,,,,,,d,orange,5f511ab38505ac2e8fbfac5e,2021-09-27_17h24.31.798,forced_choiceRT_color,2021.2.3,MacIntel,43.47826087,,,,,,,,2,Fast,short,d,1,1.828,2,1,9,0,1,,,,,
,0.92,,,,,,,,,d,orange,5f511ab38505ac2e8fbfac5e,2021-09-27_17h24.31.798,forced_choiceRT_color,2021.2.3,MacIntel,43.47826087,,,,,,,,2,Ontime,short,d,1,1.952,2,2,10,0,1,,,,,
,0.47,,,,,,,,,d,orange,5f511ab38505ac2e8fbfac5e,2021-09-27_17h24.31.798,forced_choiceRT_color,2021.2.3,MacIntel,43.47826087,,,,,,,,2,Ontime,short,d,1,1.975,2,3,11,0,1,,,,,
,1.32,,,,,,,,,k,purple,5f511ab38505ac2e8fbfac5e,2021-09-27_17h24.31.798,forced_choiceRT_color,2021.2.3,MacIntel,43.47826087,,,,,,,,2,Ontime,short,k,1,1.946,3,0,12,3,1,,,,,
,0.25,,,,,,,,,j,red,5f511ab38505ac2e8fbfac5e,2021-09-27_17h24.31.798,forced_choiceRT_color,2021.2.3,MacIntel,43.47826087,,,,,,,,2,Ontime,short,j,1,1.969,3,1,13,2,1,,,,,
,0.07,,,,,,,,,k,purple,5f511ab38505ac2e8fbfac5e,2021-09-27_17h24.31.798,forced_choiceRT_color,2021.2.3,MacIntel,43.47826087,,,,,,,,2,Ontime,short,k,1,1.925,3,2,14,3,1,,,,,
,0.32,,,,,,,,,d,orange,5f511ab38505ac2e8fbfac5e,2021-09-27_17h24.31.798,forced_choiceRT_color,2021.2.3,MacIntel,43.47826087,,,,,,,,2,Ontime,short,d,1,1.939,3,3,15,0,1,,,,,
,0.41,,,,,,,,,f,blue,5f511ab38505ac2e8fbfac5e,2021-09-27_17h24.31.798,forced_choiceRT_color,2021.2.3,MacIntel,43.47826087,,,,,,,,2,Ontime,short,f,1,1.961,4,0,16,1,1,,,,,
,0,,,,,,,,,d,orange,5f511ab38505ac2e8fbfac5e,2021-09-27_17h24.31.798,forced_choiceRT_color,2021.2.3,MacIntel,43.47826087,,,,,,,,2,Ontime,short,d,1,1.979,4,1,17,0,1,,,,,
,0.08,,,,,,,,,d,orange,5f511ab38505ac2e8fbfac5e,2021-09-27_17h24.31.798,forced_choiceRT_color,2021.2.3,MacIntel,43.47826087,,,,,,,,2,Ontime,short,d,1,1.968,4,2,18,0,1,,,,,
,0.34,,,,,,,,,f,blue,5f511ab38505ac2e8fbfac5e,2021-09-27_17h24.31.798,forced_choiceRT_color,2021.2.3,MacIntel,43.47826087,,,,,,,,2,Ontime,short,f,1,1.941,4,3,19,1,1,,,,,
,1.97,,,,,,,,,k,purple,5f511ab38505ac2e8fbfac5e,2021-09-27_17h24.31.798,forced_choiceRT_color,2021.2.3,MacIntel,43.47826087,,,,,,,,2,Ontime,short,k,1,2.008,5,0,20,3,1,,,,,
,1.49,,,,,,,,,f,blue,5f511ab38505ac2e8fbfac5e,2021-09-27_17h24.31.798,forced_choiceRT_color,2021.2.3,MacIntel,43.47826087,,,,,,,,2,Ontime,short,k,0,1.923,5,1,21,1,1,,,,,
,0.93,,,,,,,,,k,purple,5f511ab38505ac2e8fbfac5e,2021-09-27_17h24.31.798,forced_choiceRT_color,2021.2.3,MacIntel,43.47826087,,,,,,,,2,Fast,short,k,1,1.736,5,2,22,3,1,,,,,
,1.07,,,,,,,,,f,blue,5f511ab38505ac2e8fbfac5e,2021-09-27_17h24.31.798,forced_choiceRT_color,2021.2.3,MacIntel,43.47826087,,,,,,,,2,Fast,short,f,1,1.873,5,3,23,1,1,,,,,
,1.25,,,,,,,,,k,purple,5f511ab38505ac2e8fbfac5e,2021-09-27_17h24.31.798,forced_choiceRT_color,2021.2.3,MacIntel,43.47826087,,,,,,,,2,Ontime,short,k,1,2.028,6,0,24,3,1,,,,,
,0.94,,,,,,,,,k,purple,5f511ab38505ac2e8fbfac5e,2021-09-27_17h24.31.798,forced_choiceRT_color,2021.2.3,MacIntel,43.47826087,,,,,,,,2,Fast,short,k,1,1.839,6,1,25,3,1,,,,,
,0.27,,,,,,,,,j,red,5f511ab38505ac2e8fbfac5e,2021-09-27_17h24.31.798,forced_choiceRT_color,2021.2.3,MacIntel,43.47826087,,,,,,,,2,Fast,short,j,1,1.844,6,2,26,2,1,,,,,
,1.36,,,,,,,,,j,red,5f511ab38505ac2e8fbfac5e,2021-09-27_17h24.31.798,forced_choiceRT_color,2021.2.3,MacIntel,43.47826087,,,,,,,,2,Fast,short,j,1,1.756,6,3,27,2,1,,,,,
,0.46,,,,,,,,,k,purple,5f511ab38505ac2e8fbfac5e,2021-09-27_17h24.31.798,forced_choiceRT_color,2021.2.3,MacIntel,43.47826087,,,,,,,,2,Fast,short,k,1,1.875,7,0,28,3,1,,,,,
,1.27,,,,,,,,,d,orange,5f511ab38505ac2e8fbfac5e,2021-09-27_17h24.31.798,forced_choiceRT_color,2021.2.3,MacIntel,43.47826087,,,,,,,,2,Ontime,short,d,1,1.92,7,1,29,0,1,,,,,
,0.53,,,,,,,,,k,purple,5f511ab38505ac2e8fbfac5e,2021-09-27_17h24.31.798,forced_choiceRT_color,2021.2.3,MacIntel,43.47826087,,,,,,,,2,Ontime,short,k,1,1.936,7,2,30,3,1,,,,,
,1,,,,,,,,,f,blue,5f511ab38505ac2e8fbfac5e,2021-09-27_17h24.31.798,forced_choiceRT_color,2021.2.3,MacIntel,43.47826087,,,,,,,,2,Ontime,short,f,1,1.941,7,3,31,1,1,,,,,
,0.49,,,,,,,,,d,orange,5f511ab38505ac2e8fbfac5e,2021-09-27_17h24.31.798,forced_choiceRT_color,2021.2.3,MacIntel,43.47826087,,,,,,,,2,Fast,short,d,1,1.872,8,0,32,0,1,,,,,
,0.75,,,,,,,,,k,purple,5f511ab38505ac2e8fbfac5e,2021-09-27_17h24.31.798,forced_choiceRT_color,2021.2.3,MacIntel,43.47826087,,,,,,,,2,Ontime,short,k,1,1.91,8,1,33,3,1,,,,,
,0.37,,,,,,,,,f,blue,5f511ab38505ac2e8fbfac5e,2021-09-27_17h24.31.798,forced_choiceRT_color,2021.2.3,MacIntel,43.47826087,,,,,,,,2,Ontime,short,f,1,1.905,8,2,34,1,1,,,,,
,0.58,,,,,,,,,j,red,5f511ab38505ac2e8fbfac5e,2021-09-27_17h24.31.798,forced_choiceRT_color,2021.2.3,MacIntel,43.47826087,,,,,,,,2,Ontime,short,j,1,1.952,8,3,35,2,1,,,,,
,0.12,,,,,,,,,d,orange,5f511ab38505ac2e8fbfac5e,2021-09-27_17h24.31.798,forced_choiceRT_color,2021.2.3,MacIntel,43.47826087,,,,,,,,2,Fast,short,d,1,1.787,9,0,36,0,1,,,,,
,0.63,,,,,,,,,k,purple,5f511ab38505ac2e8fbfac5e,2021-09-27_17h24.31.798,forced_choiceRT_color,2021.2.3,MacIntel,43.47826087,,,,,,,,2,Fast,short,k,1,1.892,9,1,37,3,1,,,,,
,0.13,,,,,,,,,j,red,5f511ab38505ac2e8fbfac5e,2021-09-27_17h24.31.798,forced_choiceRT_color,2021.2.3,MacIntel,43.47826087,,,,,,,,2,Ontime,short,j,1,1.921,9,2,38,2,1,,,,,
,1.74,,,,,,,,,j,red,5f511ab38505ac2e8fbfac5e,2021-09-27_17h24.31.798,forced_choiceRT_color,2021.2.3,MacIntel,43.47826087,,,,,,,,2,Ontime,short,k,0,2.011,9,3,39,2,1,,,,,
,,,,,,,,,,,,5f511ab38505ac2e8fbfac5e,2021-09-27_17h24.31.798,forced_choiceRT_color,2021.2.3,MacIntel,43.47826087,,,,,,,,,,,,,,,,,,,1,0,1,0,1
,0.74,,,,,,,,,f,blue,5f511ab38505ac2e8fbfac5e,2021-09-27_17h24.31.798,forced_choiceRT_color,2021.2.3,MacIntel,43.47826087,,,,,,,,3,Ontime,short,f,1,1.922,0,0,0,1,1,,,,,
,0.07,,,,,,,,,k,purple,5f511ab38505ac2e8fbfac5e,2021-09-27_17h24.31.798,forced_choiceRT_color,2021.2.3,MacIntel,43.47826087,,,,,,,,3,Fast,short,k,1,1.887,0,1,1,3,1,,,,,
,1.28,,,,,,,,,k,purple,5f511ab38505ac2e8fbfac5e,2021-09-27_17h24.31.798,forced_choiceRT_color,2021.2.3,MacIntel,43.47826087,,,,,,,,3,Fast,short,k,1,1.706,0,2,2,3,1,,,,,
,1.27,,,,,,,,,d,orange,5f511ab38505ac2e8fbfac5e,2021-09-27_17h24.31.798,forced_choiceRT_color,2021.2.3,MacIntel,43.47826087,,,,,,,,3,Ontime,short,d,1,1.955,0,3,3,0,1,,,,,
,1.6,,,,,,,,,d,orange,5f511ab38505ac2e8fbfac5e,2021-09-27_17h24.31.798,forced_choiceRT_color,2021.2.3,MacIntel,43.47826087,,,,,,,,3,Ontime,short,d,1,1.979,1,0,4,0,1,,,,,
,0.39,,,,,,,,,d,orange,5f511ab38505ac2e8fbfac5e,2021-09-27_17h24.31.798,forced_choiceRT_color,2021.2.3,MacIntel,43.47826087,,,,,,,,3,Ontime,short,d,1,1.901,1,1,5,0,1,,,,,
,1.05,,,,,,,,,f,blue,5f511ab38505ac2e8fbfac5e,2021-09-27_17h24.31.798,forced_choiceRT_color,2021.2.3,MacIntel,43.47826087,,,,,,,,3,Fast,short,f,1,1.876,1,2,6,1,1,,,,,
,0.98,,,,,,,,,k,purple,5f511ab38505ac2e8fbfac5e,2021-09-27_17h24.31.798,forced_choiceRT_color,2021.2.3,MacIntel,43.47826087,,,,,,,,3,Ontime,short,k,1,1.955,1,3,7,3,1,,,,,
,1.05,,,,,,,,,k,purple,5f511ab38505ac2e8fbfac5e,2021-09-27_17h24.31.798,forced_choiceRT_color,2021.2.3,MacIntel,43.47826087,,,,,,,,3,Ontime,short,k,1,2.05,2,0,8,3,1,,,,,
,0.47,,,,,,,,,d,orange,5f511ab38505ac2e8fbfac5e,2021-09-27_17h24.31.798,forced_choiceRT_color,2021.2.3,MacIntel,43.47826087,,,,,,,,3,Ontime,short,d,1,1.908,2,1,9,0,1,,,,,
,1.67,,,,,,,,,d,orange,5f511ab38505ac2e8fbfac5e,2021-09-27_17h24.31.798,forced_choiceRT_color,2021.2.3,MacIntel,43.47826087,,,,,,,,3,Ontime,short,f,0,2.031,2,2,10,0,1,,,,,
,1.47,,,,,,,,,d,orange,5f511ab38505ac2e8fbfac5e,2021-09-27_17h24.31.798,forced_choiceRT_color,2021.2.3,MacIntel,43.47826087,,,,,,,,3,Fast,short,d,1,0.009,2,3,11,0,1,,,,,
,0.57,,,,,,,,,j,red,5f511ab38505ac2e8fbfac5e,2021-09-27_17h24.31.798,forced_choiceRT_color,2021.2.3,MacIntel,43.47826087,,,,,,,,3,Ontime,short,j,1,1.954,3,0,12,2,1,,,,,
,0.17,,,,,,,,,k,purple,5f511ab38505ac2e8fbfac5e,2021-09-27_17h24.31.798,forced_choiceRT_color,2021.2.3,MacIntel,43.47826087,,,,,,,,3,Ontime,short,k,1,1.949,3,1,13,3,1,,,,,
,0.89,,,,,,,,,k,purple,5f511ab38505ac2e8fbfac5e,2021-09-27_17h24.31.798,forced_choiceRT_color,2021.2.3,MacIntel,43.47826087,,,,,,,,3,Ontime,short,k,1,1.948,3,2,14,3,1,,,,,
,1.9,,,,,,,,,j,red,5f511ab38505ac2e8fbfac5e,2021-09-27_17h24.31.798,forced_choiceRT_color,2021.2.3,MacIntel,43.47826087,,,,,,,,3,Ontime,short,d,0,1.903,3,3,15,2,1,,,,,
,1.1,,,,,,,,,j,red,5f511ab38505ac2e8fbfac5e,2021-09-27_17h24.31.798,forced_choiceRT_color,2021.2.3,MacIntel,43.47826087,,,,,,,,3,Fast,short,j,1,1.819,4,0,16,2,1,,,,,
,0.33,,,,,,,,,k,purple,5f511ab38505ac2e8fbfac5e,2021-09-27_17h24.31.798,forced_choiceRT_color,2021.2.3,MacIntel,43.47826087,,,,,,,,3,Ontime,short,k,1,1.91,4,1,17,3,1,,,,,
,1.66,,,,,,,,,j,red,5f511ab38505ac2e8fbfac5e,2021-09-27_17h24.31.798,forced_choiceRT_color,2021.2.3,MacIntel,43.47826087,,,,,,,,3,Ontime,short,k,0,1.917,4,2,18,2,1,,,,,
,1.16,,,,,,,,,f,blue,5f511ab38505ac2e8fbfac5e,2021-09-27_17h24.31.798,forced_choiceRT_color,2021.2.3,MacIntel,43.47826087,,,,,,,,3,Fast,short,f,1,1.824,4,3,19,1,1,,,,,
,0.65,,,,,,,,,f,blue,5f511ab38505ac2e8fbfac5e,2021-09-27_17h24.31.798,forced_choiceRT_color,2021.2.3,MacIntel,43.47826087,,,,,,,,3,Fast,short,f,1,1.808,5,0,20,1,1,,,,,
,0.98,,,,,,,,,f,blue,5f511ab38505ac2e8fbfac5e,2021-09-27_17h24.31.798,forced_choiceRT_color,2021.2.3,MacIntel,43.47826087,,,,,,,,3,Fast,short,f,1,1.87,5,1,21,1,1,,,,,
,1.97,,,,,,,,,j,red,5f511ab38505ac2e8fbfac5e,2021-09-27_17h24.31.798,forced_choiceRT_color,2021.2.3,MacIntel,43.47826087,,,,,,,,3,Ontime,short,f,0,1.901,5,2,22,2,1,,,,,
,0.54,,,,,,,,,j,red,5f511ab38505ac2e8fbfac5e,2021-09-27_17h24.31.798,forced_choiceRT_color,2021.2.3,MacIntel,43.47826087,,,,,,,,3,Fast,short,j,1,1.873,5,3,23,2,1,,,,,
,1.42,,,,,,,,,j,red,5f511ab38505ac2e8fbfac5e,2021-09-27_17h24.31.798,forced_choiceRT_color,2021.2.3,MacIntel,43.47826087,,,,,,,,3,Fast,short,j,1,1.864,6,0,24,2,1,,,,,
,1.93,,,,,,,,,k,purple,5f511ab38505ac2e8fbfac5e,2021-09-27_17h24.31.798,forced_choiceRT_color,2021.2.3,MacIntel,43.47826087,,,,,,,,3,Ontime,short,d,0,1.985,6,1,25,3,1,,,,,
,1.11,,,,,,,,,d,orange,5f511ab38505ac2e8fbfac5e,2021-09-27_17h24.31.798,forced_choiceRT_color,2021.2.3,MacIntel,43.47826087,,,,,,,,3,Fast,short,d,1,1.856,6,2,26,0,1,,,,,
,0.57,,,,,,,,,j,red,5f511ab38505ac2e8fbfac5e,2021-09-27_17h24.31.798,forced_choiceRT_color,2021.2.3,MacIntel,43.47826087,,,,,,,,3,Fast,short,j,1,1.788,6,3,27,2,1,,,,,
,1.38,,,,,,,,,f,blue,5f511ab38505ac2e8fbfac5e,2021-09-27_17h24.31.798,forced_choiceRT_color,2021.2.3,MacIntel,43.47826087,,,,,,,,3,Fast,short,d,0,1.861,7,0,28,1,1,,,,,
,0.22,,,,,,,,,j,red,5f511ab38505ac2e8fbfac5e,2021-09-27_17h24.31.798,forced_choiceRT_color,2021.2.3,MacIntel,43.47826087,,,,,,,,3,Fast,short,j,1,1.87,7,1,29,2,1,,,,,
,0.89,,,,,,,,,d,orange,5f511ab38505ac2e8fbfac5e,2021-09-27_17h24.31.798,forced_choiceRT_color,2021.2.3,MacIntel,43.47826087,,,,,,,,3,Fast,short,d,1,1.772,7,2,30,0,1,,,,,
,1.32,,,,,,,,,d,orange,5f511ab38505ac2e8fbfac5e,2021-09-27_17h24.31.798,forced_choiceRT_color,2021.2.3,MacIntel,43.47826087,,,,,,,,3,Fast,short,d,1,1.883,7,3,31,0,1,,,,,
,0.37,,,,,,,,,j,red,5f511ab38505ac2e8fbfac5e,2021-09-27_17h24.31.798,forced_choiceRT_color,2021.2.3,MacIntel,43.47826087,,,,,,,,3,Ontime,short,j,1,1.973,8,0,32,2,1,,,,,
,1.02,,,,,,,,,d,orange,5f511ab38505ac2e8fbfac5e,2021-09-27_17h24.31.798,forced_choiceRT_color,2021.2.3,MacIntel,43.47826087,,,,,,,,3,Ontime,short,d,1,2.005,8,1,33,0,1,,,,,
,1.44,,,,,,,,,f,blue,5f511ab38505ac2e8fbfac5e,2021-09-27_17h24.31.798,forced_choiceRT_color,2021.2.3,MacIntel,43.47826087,,,,,,,,3,Ontime,short,f,1,2.037,8,2,34,1,1,,,,,
,1.99,,,,,,,,,f,blue,5f511ab38505ac2e8fbfac5e,2021-09-27_17h24.31.798,forced_choiceRT_color,2021.2.3,MacIntel,43.47826087,,,,,,,,3,Ontime,short,f,1,2.011,8,3,35,1,1,,,,,
,0.44,,,,,,,,,f,blue,5f511ab38505ac2e8fbfac5e,2021-09-27_17h24.31.798,forced_choiceRT_color,2021.2.3,MacIntel,43.47826087,,,,,,,,3,Fast,short,f,1,1.806,9,0,36,1,1,,,,,
,1.83,,,,,,,,,f,blue,5f511ab38505ac2e8fbfac5e,2021-09-27_17h24.31.798,forced_choiceRT_color,2021.2.3,MacIntel,43.47826087,,,,,,,,3,Ontime,short,j,0,2.013,9,1,37,1,1,,,,,
,0.02,,,,,,,,,k,purple,5f511ab38505ac2e8fbfac5e,2021-09-27_17h24.31.798,forced_choiceRT_color,2021.2.3,MacIntel,43.47826087,,,,,,,,3,Ontime,short,k,1,1.965,9,2,38,3,1,,,,,
,0.02,,,,,,,,,k,purple,5f511ab38505ac2e8fbfac5e,2021-09-27_17h24.31.798,forced_choiceRT_color,2021.2.3,MacIntel,43.47826087,,,,,,,,3,Fast,short,k,1,1.893,9,3,39,3,1,,,,,
,,,,,,,,,,,,5f511ab38505ac2e8fbfac5e,2021-09-27_17h24.31.798,forced_choiceRT_color,2021.2.3,MacIntel,43.47826087,,,,,,,,,,,,,,,,,,,2,0,2,0,1
,0.27,,,,,,,,,d,orange,5f511ab38505ac2e8fbfac5e,2021-09-27_17h24.31.798,forced_choiceRT_color,2021.2.3,MacIntel,43.47826087,,,,,,,,4,Ontime,short,d,1,1.976,0,0,0,0,1,,,,,
,0.89,,,,,,,,,d,orange,5f511ab38505ac2e8fbfac5e,2021-09-27_17h24.31.798,forced_choiceRT_color,2021.2.3,MacIntel,43.47826087,,,,,,,,4,Ontime,short,d,1,2.065,0,1,1,0,1,,,,,
,0.3,,,,,,,,,j,red,5f511ab38505ac2e8fbfac5e,2021-09-27_17h24.31.798,forced_choiceRT_color,2021.2.3,MacIntel,43.47826087,,,,,,,,4,Ontime,short,j,1,1.991,0,2,2,2,1,,,,,
,0.77,,,,,,,,,d,orange,5f511ab38505ac2e8fbfac5e,2021-09-27_17h24.31.798,forced_choiceRT_color,2021.2.3,MacIntel,43.47826087,,,,,,,,4,Ontime,short,d,1,2.042,0,3,3,0,1,,,,,
,1.57,,,,,,,,,f,blue,5f511ab38505ac2e8fbfac5e,2021-09-27_17h24.31.798,forced_choiceRT_color,2021.2.3,MacIntel,43.47826087,,,,,,,,4,Ontime,short,j,0,1.995,1,0,4,1,1,,,,,
,1.38,,,,,,,,,d,orange,5f511ab38505ac2e8fbfac5e,2021-09-27_17h24.31.798,forced_choiceRT_color,2021.2.3,MacIntel,43.47826087,,,,,,,,4,Ontime,short,d,1,1.924,1,1,5,0,1,,,,,
,0.23,,,,,,,,,j,red,5f511ab38505ac2e8fbfac5e,2021-09-27_17h24.31.798,forced_choiceRT_color,2021.2.3,MacIntel,43.47826087,,,,,,,,4,Ontime,short,j,1,1.941,1,2,6,2,1,,,,,
,1.59,,,,,,,,,j,red,5f511ab38505ac2e8fbfac5e,2021-09-27_17h24.31.798,forced_choiceRT_color,2021.2.3,MacIntel,43.47826087,,,,,,,,4,Fast,short,k,0,1.888,1,3,7,2,1,,,,,
,1.12,,,,,,,,,f,blue,5f511ab38505ac2e8fbfac5e,2021-09-27_17h24.31.798,forced_choiceRT_color,2021.2.3,MacIntel,43.47826087,,,,,,,,4,Fast,short,f,1,1.827,2,0,8,1,1,,,,,
,0.57,,,,,,,,,d,orange,5f511ab38505ac2e8fbfac5e,2021-09-27_17h24.31.798,forced_choiceRT_color,2021.2.3,MacIntel,43.47826087,,,,,,,,4,Ontime,short,d,1,1.978,2,1,9,0,1,,,,,
,0.06,,,,,,,,,k,purple,5f511ab38505ac2e8fbfac5e,2021-09-27_17h24.31.798,forced_choiceRT_color,2021.2.3,MacIntel,43.47826087,,,,,,,,4,Ontime,short,k,1,1.95,2,2,10,3,1,,,,,
,0.3,,,,,,,,,f,blue,5f511ab38505ac2e8fbfac5e,2021-09-27_17h24.31.798,forced_choiceRT_color,2021.2.3,MacIntel,43.47826087,,,,,,,,4,Fast,short,f,1,1.857,2,3,11,1,1,,,,,
,0.38,,,,,,,,,k,purple,5f511ab38505ac2e8fbfac5e,2021-09-27_17h24.31.798,forced_choiceRT_color,2021.2.3,MacIntel,43.47826087,,,,,,,,4,Ontime,short,k,1,1.975,3,0,12,3,1,,,,,
,1.56,,,,,,,,,f,blue,5f511ab38505ac2e8fbfac5e,2021-09-27_17h24.31.798,forced_choiceRT_color,2021.2.3,MacIntel,43.47826087,,,,,,,,4,Ontime,short,f,1,1.911,3,1,13,1,1,,,,,
,0.79,,,,,,,,,d,orange,5f511ab38505ac2e8fbfac5e,2021-09-27_17h24.31.798,forced_choiceRT_color,2021.2.3,MacIntel,43.47826087,,,,,,,,4,Ontime,short,d,1,2.007,3,2,14,0,1,,,,,
,0.53,,,,,,,,,j,red,5f511ab38505ac2e8fbfac5e,2021-09-27_17h24.31.798,forced_choiceRT_color,2021.2.3,MacIntel,43.47826087,,,,,,,,4,Ontime,short,j,1,1.919,3,3,15,2,1,,,,,
,1.7,,,,,,,,,k,purple,5f511ab38505ac2e8fbfac5e,2021-09-27_17h24.31.798,forced_choiceRT_color,2021.2.3,MacIntel,43.47826087,,,,,,,,4,Ontime,short,f,0,1.986,4,0,16,3,1,,,,,
,1.84,,,,,,,,,d,orange,5f511ab38505ac2e8fbfac5e,2021-09-27_17h24.31.798,forced_choiceRT_color,2021.2.3,MacIntel,43.47826087,,,,,,,,4,Ontime,short,d,1,1.917,4,1,17,0,1,,,,,
,0.23,,,,,,,,,f,blue,5f511ab38505ac2e8fbfac5e,2021-09-27_17h24.31.798,forced_choiceRT_color,2021.2.3,MacIntel,43.47826087,,,,,,,,4,Ontime,short,f,1,1.945,4,2,18,1,1,,,,,
,1.68,,,,,,,,,j,red,5f511ab38505ac2e8fbfac5e,2021-09-27_17h24.31.798,forced_choiceRT_color,2021.2.3,MacIntel,43.47826087,,,,,,,,4,Ontime,short,k,0,1.906,4,3,19,2,1,,,,,
,0.01,,,,,,,,,j,red,5f511ab38505ac2e8fbfac5e,2021-09-27_17h24.31.798,forced_choiceRT_color,2021.2.3,MacIntel,43.47826087,,,,,,,,4,Ontime,short,j,1,1.943,5,0,20,2,1,,,,,
,1.09,,,,,,,,,d,orange,5f511ab38505ac2e8fbfac5e,2021-09-27_17h24.31.798,forced_choiceRT_color,2021.2.3,MacIntel,43.47826087,,,,,,,,4,Fast,short,d,1,1.825,5,1,21,0,1,,,,,
,0.94,,,,,,,,,k,purple,5f511ab38505ac2e8fbfac5e,2021-09-27_17h24.31.798,forced_choiceRT_color,2021.2.3,MacIntel,43.47826087,,,,,,,,4,Ontime,short,k,1,1.986,5,2,22,3,1,,,,,
,1.24,,,,,,,,,k,purple,5f511ab38505ac2e8fbfac5e,2021-09-27_17h24.31.798,forced_choiceRT_color,2021.2.3,MacIntel,43.47826087,,,,,,,,4,Fast,short,k,1,1.737,5,3,23,3,1,,,,,
,1.52,,,,,,,,,k,purple,5f511ab38505ac2e8fbfac5e,2021-09-27_17h24.31.798,forced_choiceRT_color,2021.2.3,MacIntel,43.47826087,,,,,,,,4,Fast,short,k,1,1.853,6,0,24,3,1,,,,,
,1.13,,,,,,,,,f,blue,5f511ab38505ac2e8fbfac5e,2021-09-27_17h24.31.798,forced_choiceRT_color,2021.2.3,MacIntel,43.47826087,,,,,,,,4,Ontime,short,f,1,2.007,6,1,25,1,1,,,,,
,1.23,,,,,,,,,j,red,5f511ab38505ac2e8fbfac5e,2021-09-27_17h24.31.798,forced_choiceRT_color,2021.2.3,MacIntel,43.47826087,,,,,,,,4,Fast,short,j,1,1.886,6,2,26,2,1,,,,,
,1.59,,,,,,,,,k,purple,5f511ab38505ac2e8fbfac5e,2021-09-27_17h24.31.798,forced_choiceRT_color,2021.2.3,MacIntel,43.47826087,,,,,,,,4,Fast,short,k,1,1.891,6,3,27,3,1,,,,,
,1.95,,,,,,,,,j,red,5f511ab38505ac2e8fbfac5e,2021-09-27_17h24.31.798,forced_choiceRT_color,2021.2.3,MacIntel,43.47826087,,,,,,,,4,Slow,short,j,1,2.419,7,0,28,2,1,,,,,
,1.64,,,,,,,,,k,purple,5f511ab38505ac2e8fbfac5e,2021-09-27_17h24.31.798,forced_choiceRT_color,2021.2.3,MacIntel,43.47826087,,,,,,,,4,Ontime,short,j,0,1.946,7,1,29,3,1,,,,,
,1.3,,,,,,,,,k,purple,5f511ab38505ac2e8fbfac5e,2021-09-27_17h24.31.798,forced_choiceRT_color,2021.2.3,MacIntel,43.47826087,,,,,,,,4,Fast,short,k,1,1.837,7,2,30,3,1,,,,,
,1.54,,,,,,,,,f,blue,5f511ab38505ac2e8fbfac5e,2021-09-27_17h24.31.798,forced_choiceRT_color,2021.2.3,MacIntel,43.47826087,,,,,,,,4,Ontime,short,j,0,1.964,7,3,31,1,1,,,,,
,1.26,,,,,,,,,k,purple,5f511ab38505ac2e8fbfac5e,2021-09-27_17h24.31.798,forced_choiceRT_color,2021.2.3,MacIntel,43.47826087,,,,,,,,4,Fast,short,f,0,0.099,8,0,32,3,1,,,,,
,0.11,,,,,,,,,d,orange,5f511ab38505ac2e8fbfac5e,2021-09-27_17h24.31.798,forced_choiceRT_color,2021.2.3,MacIntel,43.47826087,,,,,,,,4,Fast,short,d,1,1.889,8,1,33,0,1,,,,,
,0.01,,,,,,,,,d,orange,5f511ab38505ac2e8fbfac5e,2021-09-27_17h24.31.798,forced_choiceRT_color,2021.2.3,MacIntel,43.47826087,,,,,,,,4,Fast,short,d,1,1.801,8,2,34,0,1,,,,,
,0.79,,,,,,,,,j,red,5f511ab38505ac2e8fbfac5e,2021-09-27_17h24.31.798,forced_choiceRT_color,2021.2.3,MacIntel,43.47826087,,,,,,,,4,Ontime,short,j,1,1.978,8,3,35,2,1,,,,,
,0.2,,,,,,,,,j,red,5f511ab38505ac2e8fbfac5e,2021-09-27_17h24.31.798,forced_choiceRT_color,2021.2.3,MacIntel,43.47826087,,,,,,,,4,Fast,short,j,1,1.884,9,0,36,2,1,,,,,
,0.01,,,,,,,,,f,blue,5f511ab38505ac2e8fbfac5e,2021-09-27_17h24.31.798,forced_choiceRT_color,2021.2.3,MacIntel,43.47826087,,,,,,,,4,Ontime,short,f,1,1.951,9,1,37,1,1,,,,,
,1.29,,,,,,,,,f,blue,5f511ab38505ac2e8fbfac5e,2021-09-27_17h24.31.798,forced_choiceRT_color,2021.2.3,MacIntel,43.47826087,,,,,,,,4,Ontime,short,f,1,1.957,9,2,38,1,1,,,,,
,1.75,,,,,,,,,f,blue,5f511ab38505ac2e8fbfac5e,2021-09-27_17h24.31.798,forced_choiceRT_color,2021.2.3,MacIntel,43.47826087,,,,,,,,4,Ontime,short,d,0,2.006,9,3,39,1,1,,,,,
,,,,,,,,,,,,5f511ab38505ac2e8fbfac5e,2021-09-27_17h24.31.798,forced_choiceRT_color,2021.2.3,MacIntel,43.47826087,,,,,,,,,,,,,,,,,,,3,0,3,0,1
,1.24,,,,,,,,,d,orange,5f511ab38505ac2e8fbfac5e,2021-09-27_17h24.31.798,forced_choiceRT_color,2021.2.3,MacIntel,43.47826087,,,,,,,,5,Fast,short,d,1,1.817,0,0,0,0,1,,,,,
,0.46,,,,,,,,,f,blue,5f511ab38505ac2e8fbfac5e,2021-09-27_17h24.31.798,forced_choiceRT_color,2021.2.3,MacIntel,43.47826087,,,,,,,,5,Ontime,short,f,1,2.035,0,1,1,1,1,,,,,
,0.06,,,,,,,,,j,red,5f511ab38505ac2e8fbfac5e,2021-09-27_17h24.31.798,forced_choiceRT_color,2021.2.3,MacIntel,43.47826087,,,,,,,,5,Ontime,short,j,1,2.039,0,2,2,2,1,,,,,
,0.9,,,,,,,,,j,red,5f511ab38505ac2e8fbfac5e,2021-09-27_17h24.31.798,forced_choiceRT_color,2021.2.3,MacIntel,43.47826087,,,,,,,,5,Ontime,short,j,1,2.076,0,3,3,2,1,,,,,
,1.57,,,,,,,,,f,blue,5f511ab38505ac2e8fbfac5e,2021-09-27_17h24.31.798,forced_choiceRT_color,2021.2.3,MacIntel,43.47826087,,,,,,,,5,Ontime,short,f,1,1.999,1,0,4,1,1,,,,,
,1.89,,,,,,,,,j,red,5f511ab38505ac2e8fbfac5e,2021-09-27_17h24.31.798,forced_choiceRT_color,2021.2.3,MacIntel,43.47826087,,,,,,,,5,Ontime,short,k,0,2.008,1,1,5,2,1,,,,,
,1.34,,,,,,,,,k,purple,5f511ab38505ac2e8fbfac5e,2021-09-27_17h24.31.798,forced_choiceRT_color,2021.2.3,MacIntel,43.47826087,,,,,,,,5,Fast,short,k,1,1.805,1,2,6,3,1,,,,,
,1.25,,,,,,,,,f,blue,5f511ab38505ac2e8fbfac5e,2021-09-27_17h24.31.798,forced_choiceRT_color,2021.2.3,MacIntel,43.47826087,,,,,,,,5,Ontime,short,j,0,2.014,1,3,7,1,1,,,,,
,0.64,,,,,,,,,k,purple,5f511ab38505ac2e8fbfac5e,2021-09-27_17h24.31.798,forced_choiceRT_color,2021.2.3,MacIntel,43.47826087,,,,,,,,5,Ontime,short,k,1,2.064,2,0,8,3,1,,,,,
,0.42,,,,,,,,,d,orange,5f511ab38505ac2e8fbfac5e,2021-09-27_17h24.31.798,forced_choiceRT_color,2021.2.3,MacIntel,43.47826087,,,,,,,,5,Ontime,short,d,1,2.059,2,1,9,0,1,,,,,
,0.35,,,,,,,,,k,purple,5f511ab38505ac2e8fbfac5e,2021-09-27_17h24.31.798,forced_choiceRT_color,2021.2.3,MacIntel,43.47826087,,,,,,,,5,Ontime,short,k,1,2.053,2,2,10,3,1,,,,,
,0.99,,,,,,,,,j,red,5f511ab38505ac2e8fbfac5e,2021-09-27_17h24.31.798,forced_choiceRT_color,2021.2.3,MacIntel,43.47826087,,,,,,,,5,Ontime,short,j,1,2.048,2,3,11,2,1,,,,,
,1.73,,,,,,,,,j,red,5f511ab38505ac2e8fbfac5e,2021-09-27_17h24.31.798,forced_choiceRT_color,2021.2.3,MacIntel,43.47826087,,,,,,,,5,Ontime,short,f,0,2.052,3,0,12,2,1,,,,,
,0.18,,,,,,,,,j,red,5f511ab38505ac2e8fbfac5e,2021-09-27_17h24.31.798,forced_choiceRT_color,2021.2.3,MacIntel,43.47826087,,,,,,,,5,Ontime,short,j,1,2.056,3,1,13,2,1,,,,,
,1.06,,,,,,,,,k,purple,5f511ab38505ac2e8fbfac5e,2021-09-27_17h24.31.798,forced_choiceRT_color,2021.2.3,MacIntel,43.47826087,,,,,,,,5,Ontime,short,k,1,2.048,3,2,14,3,1,,,,,
,0.74,,,,,,,,,j,red,5f511ab38505ac2e8fbfac5e,2021-09-27_17h24.31.798,forced_choiceRT_color,2021.2.3,MacIntel,43.47826087,,,,,,,,5,Slow,short,j,1,2.111,3,3,15,2,1,,,,,
,0.87,,,,,,,,,f,blue,5f511ab38505ac2e8fbfac5e,2021-09-27_17h24.31.798,forced_choiceRT_color,2021.2.3,MacIntel,43.47826087,,,,,,,,5,Ontime,short,f,1,1.97,4,0,16,1,1,,,,,
,0.68,,,,,,,,,d,orange,5f511ab38505ac2e8fbfac5e,2021-09-27_17h24.31.798,forced_choiceRT_color,2021.2.3,MacIntel,43.47826087,,,,,,,,5,Ontime,short,d,1,2.04,4,1,17,0,1,,,,,
,1.59,,,,,,,,,d,orange,5f511ab38505ac2e8fbfac5e,2021-09-27_17h24.31.798,forced_choiceRT_color,2021.2.3,MacIntel,43.47826087,,,,,,,,5,Ontime,short,d,1,2.046,4,2,18,0,1,,,,,
,1.89,,,,,,,,,f,blue,5f511ab38505ac2e8fbfac5e,2021-09-27_17h24.31.798,forced_choiceRT_color,2021.2.3,MacIntel,43.47826087,,,,,,,,5,Slow,short,j,0,2.104,4,3,19,1,1,,,,,
,0.15,,,,,,,,,k,purple,5f511ab38505ac2e8fbfac5e,2021-09-27_17h24.31.798,forced_choiceRT_color,2021.2.3,MacIntel,43.47826087,,,,,,,,5,Ontime,short,k,1,2.078,5,0,20,3,1,,,,,
,0.72,,,,,,,,,k,purple,5f511ab38505ac2e8fbfac5e,2021-09-27_17h24.31.798,forced_choiceRT_color,2021.2.3,MacIntel,43.47826087,,,,,,,,5,Ontime,short,k,1,2.033,5,1,21,3,1,,,,,
,0.12,,,,,,,,,f,blue,5f511ab38505ac2e8fbfac5e,2021-09-27_17h24.31.798,forced_choiceRT_color,2021.2.3,MacIntel,43.47826087,,,,,,,,5,Ontime,short,j,0,2.012,5,2,22,1,1,,,,,
,1.17,,,,,,,,,d,orange,5f511ab38505ac2e8fbfac5e,2021-09-27_17h24.31.798,forced_choiceRT_color,2021.2.3,MacIntel,43.47826087,,,,,,,,5,Ontime,short,d,1,2.05,5,3,23,0,1,,,,,
,0.82,,,,,,,,,f,blue,5f511ab38505ac2e8fbfac5e,2021-09-27_17h24.31.798,forced_choiceRT_color,2021.2.3,MacIntel,43.47826087,,,,,,,,5,Ontime,short,f,1,2.008,6,0,24,1,1,,,,,
,0.35,,,,,,,,,f,blue,5f511ab38505ac2e8fbfac5e,2021-09-27_17h24.31.798,forced_choiceRT_color,2021.2.3,MacIntel,43.47826087,,,,,,,,5,Ontime,short,f,1,2.055,6,1,25,1,1,,,,,
,0.14,,,,,,,,,j,red,5f511ab38505ac2e8fbfac5e,2021-09-27_17h24.31.798,forced_choiceRT_color,2021.2.3,MacIntel,43.47826087,,,,,,,,5,Ontime,short,j,1,2.067,6,2,26,2,1,,,,,
,0.55,,,,,,,,,d,orange,5f511ab38505ac2e8fbfac5e,2021-09-27_17h24.31.798,forced_choiceRT_color,2021.2.3,MacIntel,43.47826087,,,,,,,,5,Ontime,short,d,1,2.037,6,3,27,0,1,,,,,
,1.68,,,,,,,,,j,red,5f511ab38505ac2e8fbfac5e,2021-09-27_17h24.31.798,forced_choiceRT_color,2021.2.3,MacIntel,43.47826087,,,,,,,,5,Slow,short,j,1,2.109,7,0,28,2,1,,,,,
,1.91,,,,,,,,,k,purple,5f511ab38505ac2e8fbfac5e,2021-09-27_17h24.31.798,forced_choiceRT_color,2021.2.3,MacIntel,43.47826087,,,,,,,,5,Ontime,short,j,0,2.036,7,1,29,3,1,,,,,
,0.38,,,,,,,,,f,blue,5f511ab38505ac2e8fbfac5e,2021-09-27_17h24.31.798,forced_choiceRT_color,2021.2.3,MacIntel,43.47826087,,,,,,,,5,Ontime,short,f,1,2.039,7,2,30,1,1,,,,,
,1.57,,,,,,,,,j,red,5f511ab38505ac2e8fbfac5e,2021-09-27_17h24.31.798,forced_choiceRT_color,2021.2.3,MacIntel,43.47826087,,,,,,,,5,Ontime,short,j,1,2.086,7,3,31,2,1,,,,,
,1.21,,,,,,,,,k,purple,5f511ab38505ac2e8fbfac5e,2021-09-27_17h24.31.798,forced_choiceRT_color,2021.2.3,MacIntel,43.47826087,,,,,,,,5,Ontime,short,k,1,1.958,8,0,32,3,1,,,,,
,1.47,,,,,,,,,k,purple,5f511ab38505ac2e8fbfac5e,2021-09-27_17h24.31.798,forced_choiceRT_color,2021.2.3,MacIntel,43.47826087,,,,,,,,5,Fast,short,k,1,1.834,8,1,33,3,1,,,,,
,1.67,,,,,,,,,f,blue,5f511ab38505ac2e8fbfac5e,2021-09-27_17h24.31.798,forced_choiceRT_color,2021.2.3,MacIntel,43.47826087,,,,,,,,5,Slow,short,j,0,2.122,8,2,34,1,1,,,,,
,1.21,,,,,,,,,d,orange,5f511ab38505ac2e8fbfac5e,2021-09-27_17h24.31.798,forced_choiceRT_color,2021.2.3,MacIntel,43.47826087,,,,,,,,5,Ontime,short,d,1,2.026,8,3,35,0,1,,,,,
,1.27,,,,,,,,,k,purple,5f511ab38505ac2e8fbfac5e,2021-09-27_17h24.31.798,forced_choiceRT_color,2021.2.3,MacIntel,43.47826087,,,,,,,,5,Ontime,short,k,1,2.041,9,0,36,3,1,,,,,
,1.2,,,,,,,,,d,orange,5f511ab38505ac2e8fbfac5e,2021-09-27_17h24.31.798,forced_choiceRT_color,2021.2.3,MacIntel,43.47826087,,,,,,,,5,Ontime,short,d,1,2.012,9,1,37,0,1,,,,,
,0.25,,,,,,,,,d,orange,5f511ab38505ac2e8fbfac5e,2021-09-27_17h24.31.798,forced_choiceRT_color,2021.2.3,MacIntel,43.47826087,,,,,,,,5,Ontime,short,d,1,2.037,9,2,38,0,1,,,,,
,0.64,,,,,,,,,d,orange,5f511ab38505ac2e8fbfac5e,2021-09-27_17h24.31.798,forced_choiceRT_color,2021.2.3,MacIntel,43.47826087,,,,,,,,5,Ontime,short,d,1,2.015,9,3,39,0,1,,,,,
,,,,,,,,,,,,5f511ab38505ac2e8fbfac5e,2021-09-27_17h24.31.798,forced_choiceRT_color,2021.2.3,MacIntel,43.47826087,,,,,,,,,,,,,,,,,,,4,0,4,0,1
,1.66,,,,,,,,,k,purple,5f511ab38505ac2e8fbfac5e,2021-09-27_17h24.31.798,forced_choiceRT_color,2021.2.3,MacIntel,43.47826087,,,,,,,,6,Slow,short,k,1,2.22,0,0,0,3,1,,,,,
,0.62,,,,,,,,,d,orange,5f511ab38505ac2e8fbfac5e,2021-09-27_17h24.31.798,forced_choiceRT_color,2021.2.3,MacIntel,43.47826087,,,,,,,,6,Ontime,short,d,1,2.037,0,1,1,0,1,,,,,
,0.44,,,,,,,,,j,red,5f511ab38505ac2e8fbfac5e,2021-09-27_17h24.31.798,forced_choiceRT_color,2021.2.3,MacIntel,43.47826087,,,,,,,,6,Ontime,short,j,1,2.041,0,2,2,2,1,,,,,
,0.85,,,,,,,,,k,purple,5f511ab38505ac2e8fbfac5e,2021-09-27_17h24.31.798,forced_choiceRT_color,2021.2.3,MacIntel,43.47826087,,,,,,,,6,Ontime,short,k,1,2.003,0,3,3,3,1,,,,,
,1.08,,,,,,,,,j,red,5f511ab38505ac2e8fbfac5e,2021-09-27_17h24.31.798,forced_choiceRT_color,2021.2.3,MacIntel,43.47826087,,,,,,,,6,Ontime,short,j,1,2.078,1,0,4,2,1,,,,,
,1.51,,,,,,,,,f,blue,5f511ab38505ac2e8fbfac5e,2021-09-27_17h24.31.798,forced_choiceRT_color,2021.2.3,MacIntel,43.47826087,,,,,,,,6,Ontime,short,f,1,1.994,1,1,5,1,1,,,,,
,1.53,,,,,,,,,k,purple,5f511ab38505ac2e8fbfac5e,2021-09-27_17h24.31.798,forced_choiceRT_color,2021.2.3,MacIntel,43.47826087,,,,,,,,6,Ontime,short,k,1,1.949,1,2,6,3,1,,,,,
,0.33,,,,,,,,,f,blue,5f511ab38505ac2e8fbfac5e,2021-09-27_17h24.31.798,forced_choiceRT_color,2021.2.3,MacIntel,43.47826087,,,,,,,,6,Ontime,short,f,1,2.006,1,3,7,1,1,,,,,
,0.58,,,,,,,,,j,red,5f511ab38505ac2e8fbfac5e,2021-09-27_17h24.31.798,forced_choiceRT_color,2021.2.3,MacIntel,43.47826087,,,,,,,,6,Ontime,short,j,1,2.019,2,0,8,2,1,,,,,
,1.66,,,,,,,,,d,orange,5f511ab38505ac2e8fbfac5e,2021-09-27_17h24.31.798,forced_choiceRT_color,2021.2.3,MacIntel,43.47826087,,,,,,,,6,Ontime,short,f,0,2.092,2,1,9,0,1,,,,,
,1.58,,,,,,,,,d,orange,5f511ab38505ac2e8fbfac5e,2021-09-27_17h24.31.798,forced_choiceRT_color,2021.2.3,MacIntel,43.47826087,,,,,,,,6,Fast,short,d,1,0.088,2,2,10,0,1,,,,,
,1.59,,,,,,,,,d,orange,5f511ab38505ac2e8fbfac5e,2021-09-27_17h24.31.798,forced_choiceRT_color,2021.2.3,MacIntel,43.47826087,,,,,,,,6,Ontime,short,d,1,2.025,2,3,11,0,1,,,,,
,0.43,,,,,,,,,f,blue,5f511ab38505ac2e8fbfac5e,2021-09-27_17h24.31.798,forced_choiceRT_color,2021.2.3,MacIntel,43.47826087,,,,,,,,6,Ontime,short,f,1,1.983,3,0,12,1,1,,,,,
,0.96,,,,,,,,,k,purple,5f511ab38505ac2e8fbfac5e,2021-09-27_17h24.31.798,forced_choiceRT_color,2021.2.3,MacIntel,43.47826087,,,,,,,,6,Ontime,short,k,1,2.093,3,1,13,3,1,,,,,
,1,,,,,,,,,f,blue,5f511ab38505ac2e8fbfac5e,2021-09-27_17h24.31.798,forced_choiceRT_color,2021.2.3,MacIntel,43.47826087,,,,,,,,6,Ontime,short,f,1,2.092,3,2,14,1,1,,,,,
,0.95,,,,,,,,,f,blue,5f511ab38505ac2e8fbfac5e,2021-09-27_17h24.31.798,forced_choiceRT_color,2021.2.3,MacIntel,43.47826087,,,,,,,,6,Ontime,short,f,1,2.032,3,3,15,1,1,,,,,
,1.42,,,,,,,,,f,blue,5f511ab38505ac2e8fbfac5e,2021-09-27_17h24.31.798,forced_choiceRT_color,2021.2.3,MacIntel,43.47826087,,,,,,,,6,Ontime,short,f,1,2.056,4,0,16,1,1,,,,,
,1.04,,,,,,,,,k,purple,5f511ab38505ac2e8fbfac5e,2021-09-27_17h24.31.798,forced_choiceRT_color,2021.2.3,MacIntel,43.47826087,,,,,,,,6,Ontime,short,k,1,2.002,4,1,17,3,1,,,,,
,1.38,,,,,,,,,d,orange,5f511ab38505ac2e8fbfac5e,2021-09-27_17h24.31.798,forced_choiceRT_color,2021.2.3,MacIntel,43.47826087,,,,,,,,6,Ontime,short,d,1,2.026,4,2,18,0,1,,,,,
,1.23,,,,,,,,,j,red,5f511ab38505ac2e8fbfac5e,2021-09-27_17h24.31.798,forced_choiceRT_color,2021.2.3,MacIntel,43.47826087,,,,,,,,6,Ontime,short,j,1,2.07,4,3,19,2,1,,,,,
,1.27,,,,,,,,,k,purple,5f511ab38505ac2e8fbfac5e,2021-09-27_17h24.31.798,forced_choiceRT_color,2021.2.3,MacIntel,43.47826087,,,,,,,,6,Ontime,short,k,1,1.941,5,0,20,3,1,,,,,
,1.52,,,,,,,,,d,orange,5f511ab38505ac2e8fbfac5e,2021-09-27_17h24.31.798,forced_choiceRT_color,2021.2.3,MacIntel,43.47826087,,,,,,,,6,Ontime,short,d,1,1.978,5,1,21,0,1,,,,,
,0.97,,,,,,,,,d,orange,5f511ab38505ac2e8fbfac5e,2021-09-27_17h24.31.798,forced_choiceRT_color,2021.2.3,MacIntel,43.47826087,,,,,,,,6,Ontime,short,d,1,2.007,5,2,22,0,1,,,,,
,0.68,,,,,,,,,j,red,5f511ab38505ac2e8fbfac5e,2021-09-27_17h24.31.798,forced_choiceRT_color,2021.2.3,MacIntel,43.47826087,,,,,,,,6,Ontime,short,j,1,2.039,5,3,23,2,1,,,,,
,1.09,,,,,,,,,k,purple,5f511ab38505ac2e8fbfac5e,2021-09-27_17h24.31.798,forced_choiceRT_color,2021.2.3,MacIntel,43.47826087,,,,,,,,6,Ontime,short,k,1,2.036,6,0,24,3,1,,,,,
,0.54,,,,,,,,,j,red,5f511ab38505ac2e8fbfac5e,2021-09-27_17h24.31.798,forced_choiceRT_color,2021.2.3,MacIntel,43.47826087,,,,,,,,6,Ontime,short,j,1,1.988,6,1,25,2,1,,,,,
,1.4,,,,,,,,,f,blue,5f511ab38505ac2e8fbfac5e,2021-09-27_17h24.31.798,forced_choiceRT_color,2021.2.3,MacIntel,43.47826087,,,,,,,,6,Ontime,short,f,1,1.954,6,2,26,1,1,,,,,
,1.88,,,,,,,,,d,orange,5f511ab38505ac2e8fbfac5e,2021-09-27_17h24.31.798,forced_choiceRT_color,2021.2.3,MacIntel,43.47826087,,,,,,,,6,Ontime,short,d,1,2.095,6,3,27,0,1,,,,,
,0.16,,,,,,,,,k,purple,5f511ab38505ac2e8fbfac5e,2021-09-27_17h24.31.798,forced_choiceRT_color,2021.2.3,MacIntel,43.47826087,,,,,,,,6,Ontime,short,k,1,1.947,7,0,28,3,1,,,,,
,0.02,,,,,,,,,j,red,5f511ab38505ac2e8fbfac5e,2021-09-27_17h24.31.798,forced_choiceRT_color,2021.2.3,MacIntel,43.47826087,,,,,,,,6,Ontime,short,j,1,2.018,7,1,29,2,1,,,,,
,1.32,,,,,,,,,j,red,5f511ab38505ac2e8fbfac5e,2021-09-27_17h24.31.798,forced_choiceRT_color,2021.2.3,MacIntel,43.47826087,,,,,,,,6,Ontime,short,j,1,1.943,7,2,30,2,1,,,,,
,1.4,,,,,,,,,f,blue,5f511ab38505ac2e8fbfac5e,2021-09-27_17h24.31.798,forced_choiceRT_color,2021.2.3,MacIntel,43.47826087,,,,,,,,6,Ontime,short,f,1,1.982,7,3,31,1,1,,,,,
,0.11,,,,,,,,,j,red,5f511ab38505ac2e8fbfac5e,2021-09-27_17h24.31.798,forced_choiceRT_color,2021.2.3,MacIntel,43.47826087,,,,,,,,6,Ontime,short,j,1,2.041,8,0,32,2,1,,,,,
,1.2,,,,,,,,,f,blue,5f511ab38505ac2e8fbfac5e,2021-09-27_17h24.31.798,forced_choiceRT_color,2021.2.3,MacIntel,43.47826087,,,,,,,,6,Ontime,short,f,1,1.917,8,1,33,1,1,,,,,
,1.38,,,,,,,,,f,blue,5f511ab38505ac2e8fbfac5e,2021-09-27_17h24.31.798,forced_choiceRT_color,2021.2.3,MacIntel,43.47826087,,,,,,,,6,Ontime,short,f,1,2.089,8,2,34,1,1,,,,,
,0.33,,,,,,,,,d,orange,5f511ab38505ac2e8fbfac5e,2021-09-27_17h24.31.798,forced_choiceRT_color,2021.2.3,MacIntel,43.47826087,,,,,,,,6,Ontime,short,d,1,2.059,8,3,35,0,1,,,,,
,0.79,,,,,,,,,d,orange,5f511ab38505ac2e8fbfac5e,2021-09-27_17h24.31.798,forced_choiceRT_color,2021.2.3,MacIntel,43.47826087,,,,,,,,6,Ontime,short,d,1,1.973,9,0,36,0,1,,,,,
,1.17,,,,,,,,,k,purple,5f511ab38505ac2e8fbfac5e,2021-09-27_17h24.31.798,forced_choiceRT_color,2021.2.3,MacIntel,43.47826087,,,,,,,,6,Ontime,short,k,1,1.944,9,1,37,3,1,,,,,
,1.57,,,,,,,,,j,red,5f511ab38505ac2e8fbfac5e,2021-09-27_17h24.31.798,forced_choiceRT_color,2021.2.3,MacIntel,43.47826087,,,,,,,,6,Ontime,short,f,0,2.073,9,2,38,2,1,,,,,
,1.4,,,,,,,,,k,purple,5f511ab38505ac2e8fbfac5e,2021-09-27_17h24.31.798,forced_choiceRT_color,2021.2.3,MacIntel,43.47826087,,,,,,,,6,Fast,short,j,0,0.055,9,3,39,3,1,,,,,
,,,,,,,,,,,,5f511ab38505ac2e8fbfac5e,2021-09-27_17h24.31.798,forced_choiceRT_color,2021.2.3,MacIntel,43.47826087,,,,,,,,,,,,,,,,,,,5,0,5,0,1
,0.88,,,,,,,,,d,orange,5f511ab38505ac2e8fbfac5e,2021-09-27_17h24.31.798,forced_choiceRT_color,2021.2.3,MacIntel,43.47826087,,,,,,,,7,Fast,short,d,1,1.855,0,0,0,0,1,,,,,
,1,,,,,,,,,f,blue,5f511ab38505ac2e8fbfac5e,2021-09-27_17h24.31.798,forced_choiceRT_color,2021.2.3,MacIntel,43.47826087,,,,,,,,7,Ontime,short,f,1,2.072,0,1,1,1,1,,,,,
,0.97,,,,,,,,,j,red,5f511ab38505ac2e8fbfac5e,2021-09-27_17h24.31.798,forced_choiceRT_color,2021.2.3,MacIntel,43.47826087,,,,,,,,7,Ontime,short,j,1,1.956,0,2,2,2,1,,,,,
,1.58,,,,,,,,,f,blue,5f511ab38505ac2e8fbfac5e,2021-09-27_17h24.31.798,forced_choiceRT_color,2021.2.3,MacIntel,43.47826087,,,,,,,,7,Ontime,short,f,1,2.043,0,3,3,1,1,,,,,
,1.22,,,,,,,,,f,blue,5f511ab38505ac2e8fbfac5e,2021-09-27_17h24.31.798,forced_choiceRT_color,2021.2.3,MacIntel,43.47826087,,,,,,,,7,Ontime,short,f,1,1.904,1,0,4,1,1,,,,,
,0.1,,,,,,,,,k,purple,5f511ab38505ac2e8fbfac5e,2021-09-27_17h24.31.798,forced_choiceRT_color,2021.2.3,MacIntel,43.47826087,,,,,,,,7,Ontime,short,k,1,1.935,1,1,5,3,1,,,,,
,1.67,,,,,,,,,j,red,5f511ab38505ac2e8fbfac5e,2021-09-27_17h24.31.798,forced_choiceRT_color,2021.2.3,MacIntel,43.47826087,,,,,,,,7,Slow,short,f,0,2.1,1,2,6,2,1,,,,,
,1.28,,,,,,,,,j,red,5f511ab38505ac2e8fbfac5e,2021-09-27_17h24.31.798,forced_choiceRT_color,2021.2.3,MacIntel,43.47826087,,,,,,,,7,Ontime,short,j,1,1.96,1,3,7,2,1,,,,,
,1.59,,,,,,,,,d,orange,5f511ab38505ac2e8fbfac5e,2021-09-27_17h24.31.798,forced_choiceRT_color,2021.2.3,MacIntel,43.47826087,,,,,,,,7,Ontime,short,d,1,2.032,2,0,8,0,1,,,,,
,1.04,,,,,,,,,f,blue,5f511ab38505ac2e8fbfac5e,2021-09-27_17h24.31.798,forced_choiceRT_color,2021.2.3,MacIntel,43.47826087,,,,,,,,7,Ontime,short,f,1,1.992,2,1,9,1,1,,,,,
,1.82,,,,,,,,,j,red,5f511ab38505ac2e8fbfac5e,2021-09-27_17h24.31.798,forced_choiceRT_color,2021.2.3,MacIntel,43.47826087,,,,,,,,7,Ontime,short,f,0,2.085,2,2,10,2,1,,,,,
,0.39,,,,,,,,,k,purple,5f511ab38505ac2e8fbfac5e,2021-09-27_17h24.31.798,forced_choiceRT_color,2021.2.3,MacIntel,43.47826087,,,,,,,,7,Ontime,short,k,1,2.054,2,3,11,3,1,,,,,
,0.81,,,,,,,,,j,red,5f511ab38505ac2e8fbfac5e,2021-09-27_17h24.31.798,forced_choiceRT_color,2021.2.3,MacIntel,43.47826087,,,,,,,,7,Ontime,short,j,1,2.056,3,0,12,2,1,,,,,
,0.34,,,,,,,,,d,orange,5f511ab38505ac2e8fbfac5e,2021-09-27_17h24.31.798,forced_choiceRT_color,2021.2.3,MacIntel,43.47826087,,,,,,,,7,Ontime,short,d,1,1.978,3,1,13,0,1,,,,,
,1.7,,,,,,,,,d,orange,5f511ab38505ac2e8fbfac5e,2021-09-27_17h24.31.798,forced_choiceRT_color,2021.2.3,MacIntel,43.47826087,,,,,,,,7,Ontime,short,f,0,2.064,3,2,14,0,1,,,,,
,1.35,,,,,,,,,d,orange,5f511ab38505ac2e8fbfac5e,2021-09-27_17h24.31.798,forced_choiceRT_color,2021.2.3,MacIntel,43.47826087,,,,,,,,7,Ontime,short,d,1,1.902,3,3,15,0,1,,,,,
,0.86,,,,,,,,,k,purple,5f511ab38505ac2e8fbfac5e,2021-09-27_17h24.31.798,forced_choiceRT_color,2021.2.3,MacIntel,43.47826087,,,,,,,,7,Ontime,short,k,1,2.027,4,0,16,3,1,,,,,
,0.42,,,,,,,,,d,orange,5f511ab38505ac2e8fbfac5e,2021-09-27_17h24.31.798,forced_choiceRT_color,2021.2.3,MacIntel,43.47826087,,,,,,,,7,Ontime,short,d,1,1.902,4,1,17,0,1,,,,,
,0.32,,,,,,,,,k,purple,5f511ab38505ac2e8fbfac5e,2021-09-27_17h24.31.798,forced_choiceRT_color,2021.2.3,MacIntel,43.47826087,,,,,,,,7,Ontime,short,k,1,1.918,4,2,18,3,1,,,,,
,0.05,,,,,,,,,f,blue,5f511ab38505ac2e8fbfac5e,2021-09-27_17h24.31.798,forced_choiceRT_color,2021.2.3,MacIntel,43.47826087,,,,,,,,7,Ontime,short,f,1,1.923,4,3,19,1,1,,,,,
,1.3,,,,,,,,,j,red,5f511ab38505ac2e8fbfac5e,2021-09-27_17h24.31.798,forced_choiceRT_color,2021.2.3,MacIntel,43.47826087,,,,,,,,7,Fast,short,j,1,1.788,5,0,20,2,1,,,,,
,0.5,,,,,,,,,k,purple,5f511ab38505ac2e8fbfac5e,2021-09-27_17h24.31.798,forced_choiceRT_color,2021.2.3,MacIntel,43.47826087,,,,,,,,7,Ontime,short,k,1,1.995,5,1,21,3,1,,,,,
,1.12,,,,,,,,,f,blue,5f511ab38505ac2e8fbfac5e,2021-09-27_17h24.31.798,forced_choiceRT_color,2021.2.3,MacIntel,43.47826087,,,,,,,,7,Ontime,short,f,1,2.021,5,2,22,1,1,,,,,
,0.98,,,,,,,,,f,blue,5f511ab38505ac2e8fbfac5e,2021-09-27_17h24.31.798,forced_choiceRT_color,2021.2.3,MacIntel,43.47826087,,,,,,,,7,Ontime,short,f,1,2.01,5,3,23,1,1,,,,,
,0.81,,,,,,,,,d,orange,5f511ab38505ac2e8fbfac5e,2021-09-27_17h24.31.798,forced_choiceRT_color,2021.2.3,MacIntel,43.47826087,,,,,,,,7,Fast,short,d,1,1.807,6,0,24,0,1,,,,,
,0.77,,,,,,,,,k,purple,5f511ab38505ac2e8fbfac5e,2021-09-27_17h24.31.798,forced_choiceRT_color,2021.2.3,MacIntel,43.47826087,,,,,,,,7,Ontime,short,k,1,2.014,6,1,25,3,1,,,,,
,1.95,,,,,,,,,d,orange,5f511ab38505ac2e8fbfac5e,2021-09-27_17h24.31.798,forced_choiceRT_color,2021.2.3,MacIntel,43.47826087,,,,,,,,7,Ontime,short,d,1,2.076,6,2,26,0,1,,,,,
,0.14,,,,,,,,,j,red,5f511ab38505ac2e8fbfac5e,2021-09-27_17h24.31.798,forced_choiceRT_color,2021.2.3,MacIntel,43.47826087,,,,,,,,7,Ontime,short,j,1,2.005,6,3,27,2,1,,,,,
,1.03,,,,,,,,,j,red,5f511ab38505ac2e8fbfac5e,2021-09-27_17h24.31.798,forced_choiceRT_color,2021.2.3,MacIntel,43.47826087,,,,,,,,7,Ontime,short,j,1,2.021,7,0,28,2,1,,,,,
,1.51,,,,,,,,,j,red,5f511ab38505ac2e8fbfac5e,2021-09-27_17h24.31.798,forced_choiceRT_color,2021.2.3,MacIntel,43.47826087,,,,,,,,7,Ontime,short,j,1,1.954,7,1,29,2,1,,,,,
,1.97,,,,,,,,,k,purple,5f511ab38505ac2e8fbfac5e,2021-09-27_17h24.31.798,forced_choiceRT_color,2021.2.3,MacIntel,43.47826087,,,,,,,,7,Slow,short,d,0,2.109,7,2,30,3,1,,,,,
,1.38,,,,,,,,,f,blue,5f511ab38505ac2e8fbfac5e,2021-09-27_17h24.31.798,forced_choiceRT_color,2021.2.3,MacIntel,43.47826087,,,,,,,,7,Ontime,short,f,1,1.967,7,3,31,1,1,,,,,
,0.9,,,,,,,,,f,blue,5f511ab38505ac2e8fbfac5e,2021-09-27_17h24.31.798,forced_choiceRT_color,2021.2.3,MacIntel,43.47826087,,,,,,,,7,Slow,short,f,1,2.121,8,0,32,1,1,,,,,
,1.23,,,,,,,,,d,orange,5f511ab38505ac2e8fbfac5e,2021-09-27_17h24.31.798,forced_choiceRT_color,2021.2.3,MacIntel,43.47826087,,,,,,,,7,Fast,short,d,1,1.711,8,1,33,0,1,,,,,
,1.52,,,,,,,,,j,red,5f511ab38505ac2e8fbfac5e,2021-09-27_17h24.31.798,forced_choiceRT_color,2021.2.3,MacIntel,43.47826087,,,,,,,,7,Ontime,short,j,1,2.08,8,2,34,2,1,,,,,
,0,,,,,,,,,k,purple,5f511ab38505ac2e8fbfac5e,2021-09-27_17h24.31.798,forced_choiceRT_color,2021.2.3,MacIntel,43.47826087,,,,,,,,7,Ontime,short,k,1,2.032,8,3,35,3,1,,,,,
,1.08,,,,,,,,,k,purple,5f511ab38505ac2e8fbfac5e,2021-09-27_17h24.31.798,forced_choiceRT_color,2021.2.3,MacIntel,43.47826087,,,,,,,,7,Ontime,short,k,1,2.047,9,0,36,3,1,,,,,
,0.38,,,,,,,,,f,blue,5f511ab38505ac2e8fbfac5e,2021-09-27_17h24.31.798,forced_choiceRT_color,2021.2.3,MacIntel,43.47826087,,,,,,,,7,Ontime,short,f,1,1.985,9,1,37,1,1,,,,,
,0.46,,,,,,,,,k,purple,5f511ab38505ac2e8fbfac5e,2021-09-27_17h24.31.798,forced_choiceRT_color,2021.2.3,MacIntel,43.47826087,,,,,,,,7,Fast,short,k,1,1.89,9,2,38,3,1,,,,,
,1.51,,,,,,,,,d,orange,5f511ab38505ac2e8fbfac5e,2021-09-27_17h24.31.798,forced_choiceRT_color,2021.2.3,MacIntel,43.47826087,,,,,,,,7,Ontime,short,d,1,2.023,9,3,39,0,1,,,,,
,,,,,,,,,,,,5f511ab38505ac2e8fbfac5e,2021-09-27_17h24.31.798,forced_choiceRT_color,2021.2.3,MacIntel,43.47826087,,,,,,,,,,,,,,,,,,,6,0,6,0,1
,0.63,,,,,,,,,f,blue,5f511ab38505ac2e8fbfac5e,2021-09-27_17h24.31.798,forced_choiceRT_color,2021.2.3,MacIntel,43.47826087,,,,,,,,8,Ontime,short,f,1,2.048,0,0,0,1,1,,,,,
,1.16,,,,,,,,,j,red,5f511ab38505ac2e8fbfac5e,2021-09-27_17h24.31.798,forced_choiceRT_color,2021.2.3,MacIntel,43.47826087,,,,,,,,8,Ontime,short,j,1,1.981,0,1,1,2,1,,,,,
,0.89,,,,,,,,,d,orange,5f511ab38505ac2e8fbfac5e,2021-09-27_17h24.31.798,forced_choiceRT_color,2021.2.3,MacIntel,43.47826087,,,,,,,,8,Ontime,short,d,1,1.928,0,2,2,0,1,,,,,
,1.7,,,,,,,,,f,blue,5f511ab38505ac2e8fbfac5e,2021-09-27_17h24.31.798,forced_choiceRT_color,2021.2.3,MacIntel,43.47826087,,,,,,,,8,Slow,short,f,1,2.126,0,3,3,1,1,,,,,
,0.17,,,,,,,,,j,red,5f511ab38505ac2e8fbfac5e,2021-09-27_17h24.31.798,forced_choiceRT_color,2021.2.3,MacIntel,43.47826087,,,,,,,,8,Ontime,short,j,1,2.056,1,0,4,2,1,,,,,
,0.58,,,,,,,,,f,blue,5f511ab38505ac2e8fbfac5e,2021-09-27_17h24.31.798,forced_choiceRT_color,2021.2.3,MacIntel,43.47826087,,,,,,,,8,Ontime,short,f,1,1.994,1,1,5,1,1,,,,,
,1.7,,,,,,,,,d,orange,5f511ab38505ac2e8fbfac5e,2021-09-27_17h24.31.798,forced_choiceRT_color,2021.2.3,MacIntel,43.47826087,,,,,,,,8,Ontime,short,f,0,2.057,1,2,6,0,1,,,,,
,0.76,,,,,,,,,k,purple,5f511ab38505ac2e8fbfac5e,2021-09-27_17h24.31.798,forced_choiceRT_color,2021.2.3,MacIntel,43.47826087,,,,,,,,8,Ontime,short,k,1,2.041,1,3,7,3,1,,,,,
,1.43,,,,,,,,,d,orange,5f511ab38505ac2e8fbfac5e,2021-09-27_17h24.31.798,forced_choiceRT_color,2021.2.3,MacIntel,43.47826087,,,,,,,,8,Ontime,short,d,1,1.923,2,0,8,0,1,,,,,
,1.24,,,,,,,,,k,purple,5f511ab38505ac2e8fbfac5e,2021-09-27_17h24.31.798,forced_choiceRT_color,2021.2.3,MacIntel,43.47826087,,,,,,,,8,Ontime,short,k,1,1.971,2,1,9,3,1,,,,,
,0.3,,,,,,,,,f,blue,5f511ab38505ac2e8fbfac5e,2021-09-27_17h24.31.798,forced_choiceRT_color,2021.2.3,MacIntel,43.47826087,,,,,,,,8,Ontime,short,f,1,1.974,2,2,10,1,1,,,,,
,1.99,,,,,,,,,j,red,5f511ab38505ac2e8fbfac5e,2021-09-27_17h24.31.798,forced_choiceRT_color,2021.2.3,MacIntel,43.47826087,,,,,,,,8,Slow,short,f,0,2.145,2,3,11,2,1,,,,,
,1.1,,,,,,,,,d,orange,5f511ab38505ac2e8fbfac5e,2021-09-27_17h24.31.798,forced_choiceRT_color,2021.2.3,MacIntel,43.47826087,,,,,,,,8,Ontime,short,d,1,1.941,3,0,12,0,1,,,,,
,0.16,,,,,,,,,k,purple,5f511ab38505ac2e8fbfac5e,2021-09-27_17h24.31.798,forced_choiceRT_color,2021.2.3,MacIntel,43.47826087,,,,,,,,8,Fast,short,j,0,1.883,3,1,13,3,1,,,,,
,1.36,,,,,,,,,d,orange,5f511ab38505ac2e8fbfac5e,2021-09-27_17h24.31.798,forced_choiceRT_color,2021.2.3,MacIntel,43.47826087,,,,,,,,8,Fast,short,d,1,1.872,3,2,14,0,1,,,,,
,0.27,,,,,,,,,j,red,5f511ab38505ac2e8fbfac5e,2021-09-27_17h24.31.798,forced_choiceRT_color,2021.2.3,MacIntel,43.47826087,,,,,,,,8,Ontime,short,j,1,2.006,3,3,15,2,1,,,,,
,0.58,,,,,,,,,k,purple,5f511ab38505ac2e8fbfac5e,2021-09-27_17h24.31.798,forced_choiceRT_color,2021.2.3,MacIntel,43.47826087,,,,,,,,8,Ontime,short,k,1,1.995,4,0,16,3,1,,,,,
,1.2,,,,,,,,,d,orange,5f511ab38505ac2e8fbfac5e,2021-09-27_17h24.31.798,forced_choiceRT_color,2021.2.3,MacIntel,43.47826087,,,,,,,,8,Slow,short,d,1,2.118,4,1,17,0,1,,,,,
,1.37,,,,,,,,,f,blue,5f511ab38505ac2e8fbfac5e,2021-09-27_17h24.31.798,forced_choiceRT_color,2021.2.3,MacIntel,43.47826087,,,,,,,,8,Slow,short,f,1,2.186,4,2,18,1,1,,,,,
,0.23,,,,,,,,,k,purple,5f511ab38505ac2e8fbfac5e,2021-09-27_17h24.31.798,forced_choiceRT_color,2021.2.3,MacIntel,43.47826087,,,,,,,,8,Fast,short,k,1,1.869,4,3,19,3,1,,,,,
,0.23,,,,,,,,,j,red,5f511ab38505ac2e8fbfac5e,2021-09-27_17h24.31.798,forced_choiceRT_color,2021.2.3,MacIntel,43.47826087,,,,,,,,8,Ontime,short,j,1,1.973,5,0,20,2,1,,,,,
,1.25,,,,,,,,,d,orange,5f511ab38505ac2e8fbfac5e,2021-09-27_17h24.31.798,forced_choiceRT_color,2021.2.3,MacIntel,43.47826087,,,,,,,,8,Ontime,short,d,1,2.054,5,1,21,0,1,,,,,
,1.37,,,,,,,,,k,purple,5f511ab38505ac2e8fbfac5e,2021-09-27_17h24.31.798,forced_choiceRT_color,2021.2.3,MacIntel,43.47826087,,,,,,,,8,Ontime,short,k,1,2.038,5,2,22,3,1,,,,,
,0.99,,,,,,,,,f,blue,5f511ab38505ac2e8fbfac5e,2021-09-27_17h24.31.798,forced_choiceRT_color,2021.2.3,MacIntel,43.47826087,,,,,,,,8,Ontime,short,f,1,1.957,5,3,23,1,1,,,,,
,0.63,,,,,,,,,k,purple,5f511ab38505ac2e8fbfac5e,2021-09-27_17h24.31.798,forced_choiceRT_color,2021.2.3,MacIntel,43.47826087,,,,,,,,8,Fast,short,k,1,1.843,6,0,24,3,1,,,,,
,0.46,,,,,,,,,d,orange,5f511ab38505ac2e8fbfac5e,2021-09-27_17h24.31.798,forced_choiceRT_color,2021.2.3,MacIntel,43.47826087,,,,,,,,8,Ontime,short,d,1,1.948,6,1,25,0,1,,,,,
,1.89,,,,,,,,,k,purple,5f511ab38505ac2e8fbfac5e,2021-09-27_17h24.31.798,forced_choiceRT_color,2021.2.3,MacIntel,43.47826087,,,,,,,,8,Ontime,short,f,0,2.078,6,2,26,3,1,,,,,
,1.97,,,,,,,,,j,red,5f511ab38505ac2e8fbfac5e,2021-09-27_17h24.31.798,forced_choiceRT_color,2021.2.3,MacIntel,43.47826087,,,,,,,,8,Slow,short,f,0,2.339,6,3,27,2,1,,,,,
,0.49,,,,,,,,,d,orange,5f511ab38505ac2e8fbfac5e,2021-09-27_17h24.31.798,forced_choiceRT_color,2021.2.3,MacIntel,43.47826087,,,,,,,,8,Ontime,short,d,1,2.044,7,0,28,0,1,,,,,
,1.11,,,,,,,,,f,blue,5f511ab38505ac2e8fbfac5e,2021-09-27_17h24.31.798,forced_choiceRT_color,2021.2.3,MacIntel,43.47826087,,,,,,,,8,Ontime,short,j,0,2.019,7,1,29,1,1,,,,,
,0.86,,,,,,,,,j,red,5f511ab38505ac2e8fbfac5e,2021-09-27_17h24.31.798,forced_choiceRT_color,2021.2.3,MacIntel,43.47826087,,,,,,,,8,Ontime,short,j,1,2.005,7,2,30,2,1,,,,,
,1.59,,,,,,,,,f,blue,5f511ab38505ac2e8fbfac5e,2021-09-27_17h24.31.798,forced_choiceRT_color,2021.2.3,MacIntel,43.47826087,,,,,,,,8,Ontime,short,f,1,1.987,7,3,31,1,1,,,,,
,1.61,,,,,,,,,j,red,5f511ab38505ac2e8fbfac5e,2021-09-27_17h24.31.798,forced_choiceRT_color,2021.2.3,MacIntel,43.47826087,,,,,,,,8,Ontime,short,k,0,1.96,8,0,32,2,1,,,,,
,1.35,,,,,,,,,d,orange,5f511ab38505ac2e8fbfac5e,2021-09-27_17h24.31.798,forced_choiceRT_color,2021.2.3,MacIntel,43.47826087,,,,,,,,8,Ontime,short,d,1,1.91,8,1,33,0,1,,,,,
,0.34,,,,,,,,,j,red,5f511ab38505ac2e8fbfac5e,2021-09-27_17h24.31.798,forced_choiceRT_color,2021.2.3,MacIntel,43.47826087,,,,,,,,8,Fast,short,j,1,1.86,8,2,34,2,1,,,,,
,0.04,,,,,,,,,f,blue,5f511ab38505ac2e8fbfac5e,2021-09-27_17h24.31.798,forced_choiceRT_color,2021.2.3,MacIntel,43.47826087,,,,,,,,8,Fast,short,f,1,1.898,8,3,35,1,1,,,,,
,0.72,,,,,,,,,k,purple,5f511ab38505ac2e8fbfac5e,2021-09-27_17h24.31.798,forced_choiceRT_color,2021.2.3,MacIntel,43.47826087,,,,,,,,8,Ontime,short,k,1,1.927,9,0,36,3,1,,,,,
,0.88,,,,,,,,,k,purple,5f511ab38505ac2e8fbfac5e,2021-09-27_17h24.31.798,forced_choiceRT_color,2021.2.3,MacIntel,43.47826087,,,,,,,,8,Ontime,short,k,1,2.001,9,1,37,3,1,,,,,
,0.94,,,,,,,,,f,blue,5f511ab38505ac2e8fbfac5e,2021-09-27_17h24.31.798,forced_choiceRT_color,2021.2.3,MacIntel,43.47826087,,,,,,,,8,Ontime,short,f,1,1.911,9,2,38,1,1,,,,,
,0.06,,,,,,,,,j,red,5f511ab38505ac2e8fbfac5e,2021-09-27_17h24.31.798,forced_choiceRT_color,2021.2.3,MacIntel,43.47826087,,,,,,,,8,Ontime,short,j,1,2.04,9,3,39,2,1,,,,,
,,,,,,,,,,,,5f511ab38505ac2e8fbfac5e,2021-09-27_17h24.31.798,forced_choiceRT_color,2021.2.3,MacIntel,43.47826087,,,,,,,,,,,,,,,,,,,7,0,7,0,1
,0.2,,,,,,,,,k,purple,5f511ab38505ac2e8fbfac5e,2021-09-27_17h24.31.798,forced_choiceRT_color,2021.2.3,MacIntel,43.47826087,,,,,,,,9,Fast,short,k,1,1.745,0,0,0,3,1,,,,,
,0.51,,,,,,,,,f,blue,5f511ab38505ac2e8fbfac5e,2021-09-27_17h24.31.798,forced_choiceRT_color,2021.2.3,MacIntel,43.47826087,,,,,,,,9,Slow,short,f,1,2.139,0,1,1,1,1,,,,,
,0.54,,,,,,,,,f,blue,5f511ab38505ac2e8fbfac5e,2021-09-27_17h24.31.798,forced_choiceRT_color,2021.2.3,MacIntel,43.47826087,,,,,,,,9,Ontime,short,f,1,1.931,0,2,2,1,1,,,,,
,0.85,,,,,,,,,d,orange,5f511ab38505ac2e8fbfac5e,2021-09-27_17h24.31.798,forced_choiceRT_color,2021.2.3,MacIntel,43.47826087,,,,,,,,9,Ontime,short,d,1,1.97,0,3,3,0,1,,,,,
,0.1,,,,,,,,,k,purple,5f511ab38505ac2e8fbfac5e,2021-09-27_17h24.31.798,forced_choiceRT_color,2021.2.3,MacIntel,43.47826087,,,,,,,,9,Ontime,short,k,1,1.92,1,0,4,3,1,,,,,
,0.09,,,,,,,,,j,red,5f511ab38505ac2e8fbfac5e,2021-09-27_17h24.31.798,forced_choiceRT_color,2021.2.3,MacIntel,43.47826087,,,,,,,,9,Ontime,short,j,1,1.975,1,1,5,2,1,,,,,
,0.87,,,,,,,,,f,blue,5f511ab38505ac2e8fbfac5e,2021-09-27_17h24.31.798,forced_choiceRT_color,2021.2.3,MacIntel,43.47826087,,,,,,,,9,Ontime,short,f,1,1.928,1,2,6,1,1,,,,,
,1.38,,,,,,,,,j,red,5f511ab38505ac2e8fbfac5e,2021-09-27_17h24.31.798,forced_choiceRT_color,2021.2.3,MacIntel,43.47826087,,,,,,,,9,Fast,short,j,1,1.861,1,3,7,2,1,,,,,
,1.93,,,,,,,,,k,purple,5f511ab38505ac2e8fbfac5e,2021-09-27_17h24.31.798,forced_choiceRT_color,2021.2.3,MacIntel,43.47826087,,,,,,,,9,Ontime,short,k,1,2.049,2,0,8,3,1,,,,,
,0.17,,,,,,,,,j,red,5f511ab38505ac2e8fbfac5e,2021-09-27_17h24.31.798,forced_choiceRT_color,2021.2.3,MacIntel,43.47826087,,,,,,,,9,Ontime,short,j,1,1.985,2,1,9,2,1,,,,,
,1.29,,,,,,,,,j,red,5f511ab38505ac2e8fbfac5e,2021-09-27_17h24.31.798,forced_choiceRT_color,2021.2.3,MacIntel,43.47826087,,,,,,,,9,Ontime,short,j,1,1.953,2,2,10,2,1,,,,,
,0.26,,,,,,,,,d,orange,5f511ab38505ac2e8fbfac5e,2021-09-27_17h24.31.798,forced_choiceRT_color,2021.2.3,MacIntel,43.47826087,,,,,,,,9,Ontime,short,d,1,2.012,2,3,11,0,1,,,,,
,1.53,,,,,,,,,d,orange,5f511ab38505ac2e8fbfac5e,2021-09-27_17h24.31.798,forced_choiceRT_color,2021.2.3,MacIntel,43.47826087,,,,,,,,9,Fast,short,d,1,1.855,3,0,12,0,1,,,,,
,0.13,,,,,,,,,d,orange,5f511ab38505ac2e8fbfac5e,2021-09-27_17h24.31.798,forced_choiceRT_color,2021.2.3,MacIntel,43.47826087,,,,,,,,9,Ontime,short,d,1,2.025,3,1,13,0,1,,,,,
,1.89,,,,,,,,,d,orange,5f511ab38505ac2e8fbfac5e,2021-09-27_17h24.31.798,forced_choiceRT_color,2021.2.3,MacIntel,43.47826087,,,,,,,,9,Ontime,short,j,0,2.051,3,2,14,0,1,,,,,
,1.45,,,,,,,,,k,purple,5f511ab38505ac2e8fbfac5e,2021-09-27_17h24.31.798,forced_choiceRT_color,2021.2.3,MacIntel,43.47826087,,,,,,,,9,Ontime,short,j,0,1.976,3,3,15,3,1,,,,,
,0.1,,,,,,,,,k,purple,5f511ab38505ac2e8fbfac5e,2021-09-27_17h24.31.798,forced_choiceRT_color,2021.2.3,MacIntel,43.47826087,,,,,,,,9,Fast,short,k,1,0.135,4,0,16,3,1,,,,,
,1.02,,,,,,,,,d,orange,5f511ab38505ac2e8fbfac5e,2021-09-27_17h24.31.798,forced_choiceRT_color,2021.2.3,MacIntel,43.47826087,,,,,,,,9,Ontime,short,d,1,2.005,4,1,17,0,1,,,,,
,0.26,,,,,,,,,k,purple,5f511ab38505ac2e8fbfac5e,2021-09-27_17h24.31.798,forced_choiceRT_color,2021.2.3,MacIntel,43.47826087,,,,,,,,9,Ontime,short,k,1,2.053,4,2,18,3,1,,,,,
,1.6,,,,,,,,,j,red,5f511ab38505ac2e8fbfac5e,2021-09-27_17h24.31.798,forced_choiceRT_color,2021.2.3,MacIntel,43.47826087,,,,,,,,9,Ontime,short,j,1,2.002,4,3,19,2,1,,,,,
,1.89,,,,,,,,,f,blue,5f511ab38505ac2e8fbfac5e,2021-09-27_17h24.31.798,forced_choiceRT_color,2021.2.3,MacIntel,43.47826087,,,,,,,,9,Ontime,short,k,0,2.055,5,0,20,1,1,,,,,
,0.07,,,,,,,,,f,blue,5f511ab38505ac2e8fbfac5e,2021-09-27_17h24.31.798,forced_choiceRT_color,2021.2.3,MacIntel,43.47826087,,,,,,,,9,Ontime,short,f,1,1.99,5,1,21,1,1,,,,,
,1.8,,,,,,,,,k,purple,5f511ab38505ac2e8fbfac5e,2021-09-27_17h24.31.798,forced_choiceRT_color,2021.2.3,MacIntel,43.47826087,,,,,,,,9,Ontime,short,f,0,2.093,5,2,22,3,1,,,,,
,0.8,,,,,,,,,f,blue,5f511ab38505ac2e8fbfac5e,2021-09-27_17h24.31.798,forced_choiceRT_color,2021.2.3,MacIntel,43.47826087,,,,,,,,9,Ontime,short,f,1,2.052,5,3,23,1,1,,,,,
,0.92,,,,,,,,,f,blue,5f511ab38505ac2e8fbfac5e,2021-09-27_17h24.31.798,forced_choiceRT_color,2021.2.3,MacIntel,43.47826087,,,,,,,,9,Ontime,short,f,1,1.922,6,0,24,1,1,,,,,
,1.89,,,,,,,,,k,purple,5f511ab38505ac2e8fbfac5e,2021-09-27_17h24.31.798,forced_choiceRT_color,2021.2.3,MacIntel,43.47826087,,,,,,,,9,Fast,short,k,1,1.861,6,1,25,3,1,,,,,
,0.19,,,,,,,,,f,blue,5f511ab38505ac2e8fbfac5e,2021-09-27_17h24.31.798,forced_choiceRT_color,2021.2.3,MacIntel,43.47826087,,,,,,,,9,Ontime,short,f,1,2.022,6,2,26,1,1,,,,,
,0.89,,,,,,,,,j,red,5f511ab38505ac2e8fbfac5e,2021-09-27_17h24.31.798,forced_choiceRT_color,2021.2.3,MacIntel,43.47826087,,,,,,,,9,Ontime,short,j,1,2.051,6,3,27,2,1,,,,,
,1.7,,,,,,,,,j,red,5f511ab38505ac2e8fbfac5e,2021-09-27_17h24.31.798,forced_choiceRT_color,2021.2.3,MacIntel,43.47826087,,,,,,,,9,Ontime,short,j,1,1.976,7,0,28,2,1,,,,,
,1.83,,,,,,,,,k,purple,5f511ab38505ac2e8fbfac5e,2021-09-27_17h24.31.798,forced_choiceRT_color,2021.2.3,MacIntel,43.47826087,,,,,,,,9,Fast,short,d,0,1.76,7,1,29,3,1,,,,,
,0.75,,,,,,,,,j,red,5f511ab38505ac2e8fbfac5e,2021-09-27_17h24.31.798,forced_choiceRT_color,2021.2.3,MacIntel,43.47826087,,,,,,,,9,Ontime,short,j,1,1.97,7,2,30,2,1,,,,,
,0.49,,,,,,,,,d,orange,5f511ab38505ac2e8fbfac5e,2021-09-27_17h24.31.798,forced_choiceRT_color,2021.2.3,MacIntel,43.47826087,,,,,,,,9,Ontime,short,d,1,1.999,7,3,31,0,1,,,,,
,0.87,,,,,,,,,d,orange,5f511ab38505ac2e8fbfac5e,2021-09-27_17h24.31.798,forced_choiceRT_color,2021.2.3,MacIntel,43.47826087,,,,,,,,9,Ontime,short,d,1,2.045,8,0,32,0,1,,,,,
,1.82,,,,,,,,,f,blue,5f511ab38505ac2e8fbfac5e,2021-09-27_17h24.31.798,forced_choiceRT_color,2021.2.3,MacIntel,43.47826087,,,,,,,,9,Ontime,short,k,0,2.037,8,1,33,1,1,,,,,
,1.07,,,,,,,,,d,orange,5f511ab38505ac2e8fbfac5e,2021-09-27_17h24.31.798,forced_choiceRT_color,2021.2.3,MacIntel,43.47826087,,,,,,,,9,Ontime,short,d,1,1.989,8,2,34,0,1,,,,,
,1.12,,,,,,,,,f,blue,5f511ab38505ac2e8fbfac5e,2021-09-27_17h24.31.798,forced_choiceRT_color,2021.2.3,MacIntel,43.47826087,,,,,,,,9,Fast,short,j,0,1.869,8,3,35,1,1,,,,,
,0.98,,,,,,,,,j,red,5f511ab38505ac2e8fbfac5e,2021-09-27_17h24.31.798,forced_choiceRT_color,2021.2.3,MacIntel,43.47826087,,,,,,,,9,Ontime,short,j,1,1.955,9,0,36,2,1,,,,,
,0.8,,,,,,,,,d,orange,5f511ab38505ac2e8fbfac5e,2021-09-27_17h24.31.798,forced_choiceRT_color,2021.2.3,MacIntel,43.47826087,,,,,,,,9,Ontime,short,d,1,1.952,9,1,37,0,1,,,,,
,1.85,,,,,,,,,k,purple,5f511ab38505ac2e8fbfac5e,2021-09-27_17h24.31.798,forced_choiceRT_color,2021.2.3,MacIntel,43.47826087,,,,,,,,9,Ontime,short,k,1,2.042,9,2,38,3,1,,,,,
,0.26,,,,,,,,,j,red,5f511ab38505ac2e8fbfac5e,2021-09-27_17h24.31.798,forced_choiceRT_color,2021.2.3,MacIntel,43.47826087,,,,,,,,9,Ontime,short,j,1,1.952,9,3,39,2,1,,,,,
,,,,,,,,,,,,5f511ab38505ac2e8fbfac5e,2021-09-27_17h24.31.798,forced_choiceRT_color,2021.2.3,MacIntel,43.47826087,,,,,,,,,,,,,,,,,,,8,0,8,0,1
,1.5,,,,,,,,,f,blue,5f511ab38505ac2e8fbfac5e,2021-09-27_17h24.31.798,forced_choiceRT_color,2021.2.3,MacIntel,43.47826087,,,,,,,,10,Ontime,short,k,0,1.951,0,0,0,1,1,,,,,
,1.71,,,,,,,,,k,purple,5f511ab38505ac2e8fbfac5e,2021-09-27_17h24.31.798,forced_choiceRT_color,2021.2.3,MacIntel,43.47826087,,,,,,,,10,Ontime,short,k,1,2.078,0,1,1,3,1,,,,,
,1.02,,,,,,,,,j,red,5f511ab38505ac2e8fbfac5e,2021-09-27_17h24.31.798,forced_choiceRT_color,2021.2.3,MacIntel,43.47826087,,,,,,,,10,Ontime,short,j,1,2.004,0,2,2,2,1,,,,,
,1.37,,,,,,,,,f,blue,5f511ab38505ac2e8fbfac5e,2021-09-27_17h24.31.798,forced_choiceRT_color,2021.2.3,MacIntel,43.47826087,,,,,,,,10,Fast,short,d,0,1.878,0,3,3,1,1,,,,,
,0.39,,,,,,,,,j,red,5f511ab38505ac2e8fbfac5e,2021-09-27_17h24.31.798,forced_choiceRT_color,2021.2.3,MacIntel,43.47826087,,,,,,,,10,Fast,short,j,1,1.888,1,0,4,2,1,,,,,
,1.03,,,,,,,,,j,red,5f511ab38505ac2e8fbfac5e,2021-09-27_17h24.31.798,forced_choiceRT_color,2021.2.3,MacIntel,43.47826087,,,,,,,,10,Ontime,short,j,1,1.957,1,1,5,2,1,,,,,
,1.24,,,,,,,,,j,red,5f511ab38505ac2e8fbfac5e,2021-09-27_17h24.31.798,forced_choiceRT_color,2021.2.3,MacIntel,43.47826087,,,,,,,,10,Fast,short,j,1,1.867,1,2,6,2,1,,,,,
,0.51,,,,,,,,,d,orange,5f511ab38505ac2e8fbfac5e,2021-09-27_17h24.31.798,forced_choiceRT_color,2021.2.3,MacIntel,43.47826087,,,,,,,,10,Ontime,short,d,1,2.044,1,3,7,0,1,,,,,
,1.54,,,,,,,,,k,purple,5f511ab38505ac2e8fbfac5e,2021-09-27_17h24.31.798,forced_choiceRT_color,2021.2.3,MacIntel,43.47826087,,,,,,,,10,Slow,short,k,1,2.88,2,0,8,3,1,,,,,
,0.89,,,,,,,,,j,red,5f511ab38505ac2e8fbfac5e,2021-09-27_17h24.31.798,forced_choiceRT_color,2021.2.3,MacIntel,43.47826087,,,,,,,,10,Ontime,short,j,1,2.012,2,1,9,2,1,,,,,
,0.89,,,,,,,,,f,blue,5f511ab38505ac2e8fbfac5e,2021-09-27_17h24.31.798,forced_choiceRT_color,2021.2.3,MacIntel,43.47826087,,,,,,,,10,Ontime,short,f,1,1.94,2,2,10,1,1,,,,,
,0.87,,,,,,,,,d,orange,5f511ab38505ac2e8fbfac5e,2021-09-27_17h24.31.798,forced_choiceRT_color,2021.2.3,MacIntel,43.47826087,,,,,,,,10,Ontime,short,d,1,1.978,2,3,11,0,1,,,,,
,0.21,,,,,,,,,f,blue,5f511ab38505ac2e8fbfac5e,2021-09-27_17h24.31.798,forced_choiceRT_color,2021.2.3,MacIntel,43.47826087,,,,,,,,10,Ontime,short,f,1,1.948,3,0,12,1,1,,,,,
,1.12,,,,,,,,,k,purple,5f511ab38505ac2e8fbfac5e,2021-09-27_17h24.31.798,forced_choiceRT_color,2021.2.3,MacIntel,43.47826087,,,,,,,,10,Ontime,short,k,1,1.952,3,1,13,3,1,,,,,
,1.5,,,,,,,,,f,blue,5f511ab38505ac2e8fbfac5e,2021-09-27_17h24.31.798,forced_choiceRT_color,2021.2.3,MacIntel,43.47826087,,,,,,,,10,Ontime,short,f,1,1.974,3,2,14,1,1,,,,,
,0.83,,,,,,,,,d,orange,5f511ab38505ac2e8fbfac5e,2021-09-27_17h24.31.798,forced_choiceRT_color,2021.2.3,MacIntel,43.47826087,,,,,,,,10,Ontime,short,d,1,1.992,3,3,15,0,1,,,,,
,1.02,,,,,,,,,k,purple,5f511ab38505ac2e8fbfac5e,2021-09-27_17h24.31.798,forced_choiceRT_color,2021.2.3,MacIntel,43.47826087,,,,,,,,10,Ontime,short,k,1,1.958,4,0,16,3,1,,,,,
,0.66,,,,,,,,,f,blue,5f511ab38505ac2e8fbfac5e,2021-09-27_17h24.31.798,forced_choiceRT_color,2021.2.3,MacIntel,43.47826087,,,,,,,,10,Ontime,short,f,1,2.092,4,1,17,1,1,,,,,
,0.85,,,,,,,,,d,orange,5f511ab38505ac2e8fbfac5e,2021-09-27_17h24.31.798,forced_choiceRT_color,2021.2.3,MacIntel,43.47826087,,,,,,,,10,Ontime,short,d,1,1.939,4,2,18,0,1,,,,,
,0,,,,,,,,,d,orange,5f511ab38505ac2e8fbfac5e,2021-09-27_17h24.31.798,forced_choiceRT_color,2021.2.3,MacIntel,43.47826087,,,,,,,,10,Ontime,short,d,1,1.96,4,3,19,0,1,,,,,
,1.83,,,,,,,,,d,orange,5f511ab38505ac2e8fbfac5e,2021-09-27_17h24.31.798,forced_choiceRT_color,2021.2.3,MacIntel,43.47826087,,,,,,,,10,Ontime,short,d,1,2.07,5,0,20,0,1,,,,,
,1.64,,,,,,,,,j,red,5f511ab38505ac2e8fbfac5e,2021-09-27_17h24.31.798,forced_choiceRT_color,2021.2.3,MacIntel,43.47826087,,,,,,,,10,Ontime,short,j,1,2.056,5,1,21,2,1,,,,,
,1.52,,,,,,,,,d,orange,5f511ab38505ac2e8fbfac5e,2021-09-27_17h24.31.798,forced_choiceRT_color,2021.2.3,MacIntel,43.47826087,,,,,,,,10,Ontime,short,f,0,1.93,5,2,22,0,1,,,,,
,0.39,,,,,,,,,j,red,5f511ab38505ac2e8fbfac5e,2021-09-27_17h24.31.798,forced_choiceRT_color,2021.2.3,MacIntel,43.47826087,,,,,,,,10,Ontime,short,j,1,1.977,5,3,23,2,1,,,,,
,1.37,,,,,,,,,k,purple,5f511ab38505ac2e8fbfac5e,2021-09-27_17h24.31.798,forced_choiceRT_color,2021.2.3,MacIntel,43.47826087,,,,,,,,10,Ontime,short,j,0,1.98,6,0,24,3,1,,,,,
,1.3,,,,,,,,,d,orange,5f511ab38505ac2e8fbfac5e,2021-09-27_17h24.31.798,forced_choiceRT_color,2021.2.3,MacIntel,43.47826087,,,,,,,,10,Fast,short,k,0,0.021,6,1,25,0,1,,,,,
,0.43,,,,,,,,,j,red,5f511ab38505ac2e8fbfac5e,2021-09-27_17h24.31.798,forced_choiceRT_color,2021.2.3,MacIntel,43.47826087,,,,,,,,10,Ontime,short,j,1,2.019,6,2,26,2,1,,,,,
,1.52,,,,,,,,,f,blue,5f511ab38505ac2e8fbfac5e,2021-09-27_17h24.31.798,forced_choiceRT_color,2021.2.3,MacIntel,43.47826087,,,,,,,,10,Ontime,short,d,0,1.98,6,3,27,1,1,,,,,
,1.43,,,,,,,,,d,orange,5f511ab38505ac2e8fbfac5e,2021-09-27_17h24.31.798,forced_choiceRT_color,2021.2.3,MacIntel,43.47826087,,,,,,,,10,Fast,short,d,1,1.872,7,0,28,0,1,,,,,
,1.07,,,,,,,,,k,purple,5f511ab38505ac2e8fbfac5e,2021-09-27_17h24.31.798,forced_choiceRT_color,2021.2.3,MacIntel,43.47826087,,,,,,,,10,Ontime,short,k,1,1.983,7,1,29,3,1,,,,,
,0.48,,,,,,,,,f,blue,5f511ab38505ac2e8fbfac5e,2021-09-27_17h24.31.798,forced_choiceRT_color,2021.2.3,MacIntel,43.47826087,,,,,,,,10,Ontime,short,f,1,2.07,7,2,30,1,1,,,,,
,0.35,,,,,,,,,j,red,5f511ab38505ac2e8fbfac5e,2021-09-27_17h24.31.798,forced_choiceRT_color,2021.2.3,MacIntel,43.47826087,,,,,,,,10,Ontime,short,j,1,2.038,7,3,31,2,1,,,,,
,1.15,,,,,,,,,f,blue,5f511ab38505ac2e8fbfac5e,2021-09-27_17h24.31.798,forced_choiceRT_color,2021.2.3,MacIntel,43.47826087,,,,,,,,10,Ontime,short,f,1,1.971,8,0,32,1,1,,,,,
,0.04,,,,,,,,,k,purple,5f511ab38505ac2e8fbfac5e,2021-09-27_17h24.31.798,forced_choiceRT_color,2021.2.3,MacIntel,43.47826087,,,,,,,,10,Ontime,short,k,1,1.982,8,1,33,3,1,,,,,
,1.08,,,,,,,,,f,blue,5f511ab38505ac2e8fbfac5e,2021-09-27_17h24.31.798,forced_choiceRT_color,2021.2.3,MacIntel,43.47826087,,,,,,,,10,Ontime,short,f,1,2.032,8,2,34,1,1,,,,,
,0.28,,,,,,,,,j,red,5f511ab38505ac2e8fbfac5e,2021-09-27_17h24.31.798,forced_choiceRT_color,2021.2.3,MacIntel,43.47826087,,,,,,,,10,Fast,short,j,1,1.856,8,3,35,2,1,,,,,
,1.07,,,,,,,,,k,purple,5f511ab38505ac2e8fbfac5e,2021-09-27_17h24.31.798,forced_choiceRT_color,2021.2.3,MacIntel,43.47826087,,,,,,,,10,Slow,short,k,1,2.403,9,0,36,3,1,,,,,
,1.67,,,,,,,,,k,purple,5f511ab38505ac2e8fbfac5e,2021-09-27_17h24.31.798,forced_choiceRT_color,2021.2.3,MacIntel,43.47826087,,,,,,,,10,Ontime,short,k,1,2.041,9,1,37,3,1,,,,,
,0.24,,,,,,,,,d,orange,5f511ab38505ac2e8fbfac5e,2021-09-27_17h24.31.798,forced_choiceRT_color,2021.2.3,MacIntel,43.47826087,,,,,,,,10,Ontime,short,d,1,1.97,9,2,38,0,1,,,,,
,1.44,,,,,,,,,k,purple,5f511ab38505ac2e8fbfac5e,2021-09-27_17h24.31.798,forced_choiceRT_color,2021.2.3,MacIntel,43.47826087,,,,,,,,10,Ontime,short,k,1,1.961,9,3,39,3,1,,,,,
,,,,,,,,,,,,5f511ab38505ac2e8fbfac5e,2021-09-27_17h24.31.798,forced_choiceRT_color,2021.2.3,MacIntel,43.47826087,,,,,,,,,,,,,,,,,,,9,0,9,0,1
