IP_Addresss,target_onset,trial_resp_sp.keys,trial_resp_sp.corr,trial_resp_sp.rt,trials_train_loop.thisRepN,trials_train_loop.thisTrialN,trials_train_loop.thisN,trials_train_loop.thisIndex,trials_train_loop.ran,correct_key,color,participant,date,expName,psychopyVersion,OS,frameRate,trial_resp_timing.keys,trial_resp_timing.rt,trials_train_timing.thisRepN,trials_train_timing.thisTrialN,trials_train_timing.thisN,trials_train_timing.thisIndex,trials_train_timing.ran,block_id,ontime,feedback_cond,forcedRT_resp.keys,forcedRT_resp.corr,forcedRT_resp.rt,trials.thisRepN,trials.thisTrialN,trials.thisN,trials.thisIndex,trials.ran,blocks.thisRepN,blocks.thisTrialN,blocks.thisN,blocks.thisIndex,blocks.ran
186.156.74.92,0,d,1,1.9399,0,0,0,0,1,d,orange,5f59418fd49cef17cc2056a0,2021-09-27_14h20.30.870,forced_choiceRT_color,2021.2.3,Win32,60.0240096,,,,,,,,,,,,,,,,,,,,,,,
,0,f,1,1.0147,0,1,1,1,1,f,blue,5f59418fd49cef17cc2056a0,2021-09-27_14h20.30.870,forced_choiceRT_color,2021.2.3,Win32,60.0240096,,,,,,,,,,,,,,,,,,,,,,,
,0,d,1,1.283,0,2,2,0,1,d,orange,5f59418fd49cef17cc2056a0,2021-09-27_14h20.30.870,forced_choiceRT_color,2021.2.3,Win32,60.0240096,,,,,,,,,,,,,,,,,,,,,,,
,0,k,1,1.8739,0,3,3,3,1,k,purple,5f59418fd49cef17cc2056a0,2021-09-27_14h20.30.870,forced_choiceRT_color,2021.2.3,Win32,60.0240096,,,,,,,,,,,,,,,,,,,,,,,
,0,k,1,1.9846,1,0,4,3,1,k,purple,5f59418fd49cef17cc2056a0,2021-09-27_14h20.30.870,forced_choiceRT_color,2021.2.3,Win32,60.0240096,,,,,,,,,,,,,,,,,,,,,,,
,0,k,1,0.6681,1,1,5,3,1,k,purple,5f59418fd49cef17cc2056a0,2021-09-27_14h20.30.870,forced_choiceRT_color,2021.2.3,Win32,60.0240096,,,,,,,,,,,,,,,,,,,,,,,
,0,j,1,0.6349,1,2,6,2,1,j,red,5f59418fd49cef17cc2056a0,2021-09-27_14h20.30.870,forced_choiceRT_color,2021.2.3,Win32,60.0240096,,,,,,,,,,,,,,,,,,,,,,,
,0,k,1,0.6194,1,3,7,3,1,k,purple,5f59418fd49cef17cc2056a0,2021-09-27_14h20.30.870,forced_choiceRT_color,2021.2.3,Win32,60.0240096,,,,,,,,,,,,,,,,,,,,,,,
,0,d,0,0.6825,2,0,8,1,1,f,blue,5f59418fd49cef17cc2056a0,2021-09-27_14h20.30.870,forced_choiceRT_color,2021.2.3,Win32,60.0240096,,,,,,,,,,,,,,,,,,,,,,,
,0,f,1,0.6048,2,1,9,1,1,f,blue,5f59418fd49cef17cc2056a0,2021-09-27_14h20.30.870,forced_choiceRT_color,2021.2.3,Win32,60.0240096,,,,,,,,,,,,,,,,,,,,,,,
,0,k,1,0.5821,2,2,10,3,1,k,purple,5f59418fd49cef17cc2056a0,2021-09-27_14h20.30.870,forced_choiceRT_color,2021.2.3,Win32,60.0240096,,,,,,,,,,,,,,,,,,,,,,,
,0,f,1,0.5347,2,3,11,1,1,f,blue,5f59418fd49cef17cc2056a0,2021-09-27_14h20.30.870,forced_choiceRT_color,2021.2.3,Win32,60.0240096,,,,,,,,,,,,,,,,,,,,,,,
,0,d,1,0.6535,3,0,12,0,1,d,orange,5f59418fd49cef17cc2056a0,2021-09-27_14h20.30.870,forced_choiceRT_color,2021.2.3,Win32,60.0240096,,,,,,,,,,,,,,,,,,,,,,,
,0,f,1,0.5415,3,1,13,1,1,f,blue,5f59418fd49cef17cc2056a0,2021-09-27_14h20.30.870,forced_choiceRT_color,2021.2.3,Win32,60.0240096,,,,,,,,,,,,,,,,,,,,,,,
,0,f,1,0.6883,3,2,14,1,1,f,blue,5f59418fd49cef17cc2056a0,2021-09-27_14h20.30.870,forced_choiceRT_color,2021.2.3,Win32,60.0240096,,,,,,,,,,,,,,,,,,,,,,,
,0,f,1,0.4681,3,3,15,1,1,f,blue,5f59418fd49cef17cc2056a0,2021-09-27_14h20.30.870,forced_choiceRT_color,2021.2.3,Win32,60.0240096,,,,,,,,,,,,,,,,,,,,,,,
,0,j,1,0.537,4,0,16,2,1,j,red,5f59418fd49cef17cc2056a0,2021-09-27_14h20.30.870,forced_choiceRT_color,2021.2.3,Win32,60.0240096,,,,,,,,,,,,,,,,,,,,,,,
,0,j,1,0.5816,4,1,17,2,1,j,red,5f59418fd49cef17cc2056a0,2021-09-27_14h20.30.870,forced_choiceRT_color,2021.2.3,Win32,60.0240096,,,,,,,,,,,,,,,,,,,,,,,
,0,f,0,0.6705,4,2,18,2,1,j,red,5f59418fd49cef17cc2056a0,2021-09-27_14h20.30.870,forced_choiceRT_color,2021.2.3,Win32,60.0240096,,,,,,,,,,,,,,,,,,,,,,,
,0,f,1,0.5649,4,3,19,1,1,f,blue,5f59418fd49cef17cc2056a0,2021-09-27_14h20.30.870,forced_choiceRT_color,2021.2.3,Win32,60.0240096,,,,,,,,,,,,,,,,,,,,,,,
,0,j,1,0.7179,5,0,20,2,1,j,red,5f59418fd49cef17cc2056a0,2021-09-27_14h20.30.870,forced_choiceRT_color,2021.2.3,Win32,60.0240096,,,,,,,,,,,,,,,,,,,,,,,
,0,d,1,0.6489,5,1,21,0,1,d,orange,5f59418fd49cef17cc2056a0,2021-09-27_14h20.30.870,forced_choiceRT_color,2021.2.3,Win32,60.0240096,,,,,,,,,,,,,,,,,,,,,,,
,0,j,0,0.6678,5,2,22,1,1,f,blue,5f59418fd49cef17cc2056a0,2021-09-27_14h20.30.870,forced_choiceRT_color,2021.2.3,Win32,60.0240096,,,,,,,,,,,,,,,,,,,,,,,
,0,f,0,0.0005,5,3,23,2,1,j,red,5f59418fd49cef17cc2056a0,2021-09-27_14h20.30.870,forced_choiceRT_color,2021.2.3,Win32,60.0240096,,,,,,,,,,,,,,,,,,,,,,,
,0,f,1,0.6699,6,0,24,1,1,f,blue,5f59418fd49cef17cc2056a0,2021-09-27_14h20.30.870,forced_choiceRT_color,2021.2.3,Win32,60.0240096,,,,,,,,,,,,,,,,,,,,,,,
,0,j,1,0.8193,6,1,25,2,1,j,red,5f59418fd49cef17cc2056a0,2021-09-27_14h20.30.870,forced_choiceRT_color,2021.2.3,Win32,60.0240096,,,,,,,,,,,,,,,,,,,,,,,
,0,j,1,0.5944,6,2,26,2,1,j,red,5f59418fd49cef17cc2056a0,2021-09-27_14h20.30.870,forced_choiceRT_color,2021.2.3,Win32,60.0240096,,,,,,,,,,,,,,,,,,,,,,,
,0,d,1,0.6346,6,3,27,0,1,d,orange,5f59418fd49cef17cc2056a0,2021-09-27_14h20.30.870,forced_choiceRT_color,2021.2.3,Win32,60.0240096,,,,,,,,,,,,,,,,,,,,,,,
,0,f,1,0.6375,7,0,28,1,1,f,blue,5f59418fd49cef17cc2056a0,2021-09-27_14h20.30.870,forced_choiceRT_color,2021.2.3,Win32,60.0240096,,,,,,,,,,,,,,,,,,,,,,,
,0,f,1,0.8063,7,1,29,1,1,f,blue,5f59418fd49cef17cc2056a0,2021-09-27_14h20.30.870,forced_choiceRT_color,2021.2.3,Win32,60.0240096,,,,,,,,,,,,,,,,,,,,,,,
,0,j,1,0.6634,7,2,30,2,1,j,red,5f59418fd49cef17cc2056a0,2021-09-27_14h20.30.870,forced_choiceRT_color,2021.2.3,Win32,60.0240096,,,,,,,,,,,,,,,,,,,,,,,
,0,d,1,0.8284,7,3,31,0,1,d,orange,5f59418fd49cef17cc2056a0,2021-09-27_14h20.30.870,forced_choiceRT_color,2021.2.3,Win32,60.0240096,,,,,,,,,,,,,,,,,,,,,,,
,0,k,1,0.6862,8,0,32,3,1,k,purple,5f59418fd49cef17cc2056a0,2021-09-27_14h20.30.870,forced_choiceRT_color,2021.2.3,Win32,60.0240096,,,,,,,,,,,,,,,,,,,,,,,
,0,d,1,0.736,8,1,33,0,1,d,orange,5f59418fd49cef17cc2056a0,2021-09-27_14h20.30.870,forced_choiceRT_color,2021.2.3,Win32,60.0240096,,,,,,,,,,,,,,,,,,,,,,,
,0,j,1,0.776,8,2,34,2,1,j,red,5f59418fd49cef17cc2056a0,2021-09-27_14h20.30.870,forced_choiceRT_color,2021.2.3,Win32,60.0240096,,,,,,,,,,,,,,,,,,,,,,,
,0,k,1,0.6936,8,3,35,3,1,k,purple,5f59418fd49cef17cc2056a0,2021-09-27_14h20.30.870,forced_choiceRT_color,2021.2.3,Win32,60.0240096,,,,,,,,,,,,,,,,,,,,,,,
,0,d,1,0.701,9,0,36,0,1,d,orange,5f59418fd49cef17cc2056a0,2021-09-27_14h20.30.870,forced_choiceRT_color,2021.2.3,Win32,60.0240096,,,,,,,,,,,,,,,,,,,,,,,
,0,f,0,0.7182,9,1,37,3,1,k,purple,5f59418fd49cef17cc2056a0,2021-09-27_14h20.30.870,forced_choiceRT_color,2021.2.3,Win32,60.0240096,,,,,,,,,,,,,,,,,,,,,,,
,0,f,0,0.6416,9,2,38,2,1,j,red,5f59418fd49cef17cc2056a0,2021-09-27_14h20.30.870,forced_choiceRT_color,2021.2.3,Win32,60.0240096,,,,,,,,,,,,,,,,,,,,,,,
,0,d,1,0.8567,9,3,39,0,1,d,orange,5f59418fd49cef17cc2056a0,2021-09-27_14h20.30.870,forced_choiceRT_color,2021.2.3,Win32,60.0240096,,,,,,,,,,,,,,,,,,,,,,,
,0,d,1,0.6453,10,0,40,0,1,d,orange,5f59418fd49cef17cc2056a0,2021-09-27_14h20.30.870,forced_choiceRT_color,2021.2.3,Win32,60.0240096,,,,,,,,,,,,,,,,,,,,,,,
,0,k,1,0.8161,10,1,41,3,1,k,purple,5f59418fd49cef17cc2056a0,2021-09-27_14h20.30.870,forced_choiceRT_color,2021.2.3,Win32,60.0240096,,,,,,,,,,,,,,,,,,,,,,,
,0,k,1,0.6121,10,2,42,3,1,k,purple,5f59418fd49cef17cc2056a0,2021-09-27_14h20.30.870,forced_choiceRT_color,2021.2.3,Win32,60.0240096,,,,,,,,,,,,,,,,,,,,,,,
,0,f,1,0.6414,10,3,43,1,1,f,blue,5f59418fd49cef17cc2056a0,2021-09-27_14h20.30.870,forced_choiceRT_color,2021.2.3,Win32,60.0240096,,,,,,,,,,,,,,,,,,,,,,,
,0,k,1,1.22,11,0,44,3,1,k,purple,5f59418fd49cef17cc2056a0,2021-09-27_14h20.30.870,forced_choiceRT_color,2021.2.3,Win32,60.0240096,,,,,,,,,,,,,,,,,,,,,,,
,0,d,1,0.6672,11,1,45,0,1,d,orange,5f59418fd49cef17cc2056a0,2021-09-27_14h20.30.870,forced_choiceRT_color,2021.2.3,Win32,60.0240096,,,,,,,,,,,,,,,,,,,,,,,
,0,k,1,0.5697,11,2,46,3,1,k,purple,5f59418fd49cef17cc2056a0,2021-09-27_14h20.30.870,forced_choiceRT_color,2021.2.3,Win32,60.0240096,,,,,,,,,,,,,,,,,,,,,,,
,0,f,1,0.643,11,3,47,1,1,f,blue,5f59418fd49cef17cc2056a0,2021-09-27_14h20.30.870,forced_choiceRT_color,2021.2.3,Win32,60.0240096,,,,,,,,,,,,,,,,,,,,,,,
,0,j,1,0.7131,12,0,48,2,1,j,red,5f59418fd49cef17cc2056a0,2021-09-27_14h20.30.870,forced_choiceRT_color,2021.2.3,Win32,60.0240096,,,,,,,,,,,,,,,,,,,,,,,
,0,d,1,0.6662,12,1,49,0,1,d,orange,5f59418fd49cef17cc2056a0,2021-09-27_14h20.30.870,forced_choiceRT_color,2021.2.3,Win32,60.0240096,,,,,,,,,,,,,,,,,,,,,,,
,0,j,1,0.6251,12,2,50,2,1,j,red,5f59418fd49cef17cc2056a0,2021-09-27_14h20.30.870,forced_choiceRT_color,2021.2.3,Win32,60.0240096,,,,,,,,,,,,,,,,,,,,,,,
,0,k,1,0.5702,12,3,51,3,1,k,purple,5f59418fd49cef17cc2056a0,2021-09-27_14h20.30.870,forced_choiceRT_color,2021.2.3,Win32,60.0240096,,,,,,,,,,,,,,,,,,,,,,,
,0,d,1,0.7703,13,0,52,0,1,d,orange,5f59418fd49cef17cc2056a0,2021-09-27_14h20.30.870,forced_choiceRT_color,2021.2.3,Win32,60.0240096,,,,,,,,,,,,,,,,,,,,,,,
,0,j,1,0.8037,13,1,53,2,1,j,red,5f59418fd49cef17cc2056a0,2021-09-27_14h20.30.870,forced_choiceRT_color,2021.2.3,Win32,60.0240096,,,,,,,,,,,,,,,,,,,,,,,
,0,d,1,0.7868,13,2,54,0,1,d,orange,5f59418fd49cef17cc2056a0,2021-09-27_14h20.30.870,forced_choiceRT_color,2021.2.3,Win32,60.0240096,,,,,,,,,,,,,,,,,,,,,,,
,0,f,1,0.8354,13,3,55,1,1,f,blue,5f59418fd49cef17cc2056a0,2021-09-27_14h20.30.870,forced_choiceRT_color,2021.2.3,Win32,60.0240096,,,,,,,,,,,,,,,,,,,,,,,
,0,j,1,0.6897,14,0,56,2,1,j,red,5f59418fd49cef17cc2056a0,2021-09-27_14h20.30.870,forced_choiceRT_color,2021.2.3,Win32,60.0240096,,,,,,,,,,,,,,,,,,,,,,,
,0,d,1,0.6487,14,1,57,0,1,d,orange,5f59418fd49cef17cc2056a0,2021-09-27_14h20.30.870,forced_choiceRT_color,2021.2.3,Win32,60.0240096,,,,,,,,,,,,,,,,,,,,,,,
,0,k,1,0.6373,14,2,58,3,1,k,purple,5f59418fd49cef17cc2056a0,2021-09-27_14h20.30.870,forced_choiceRT_color,2021.2.3,Win32,60.0240096,,,,,,,,,,,,,,,,,,,,,,,
,0,k,1,0.6511,14,3,59,3,1,k,purple,5f59418fd49cef17cc2056a0,2021-09-27_14h20.30.870,forced_choiceRT_color,2021.2.3,Win32,60.0240096,,,,,,,,,,,,,,,,,,,,,,,
,,,,,,,,,,,,5f59418fd49cef17cc2056a0,2021-09-27_14h20.30.870,forced_choiceRT_color,2021.2.3,Win32,60.0240096,j,2.0711,0,0,0,0,1,,,,,,,,,,,,,,,,
,,,,,,,,,,,,5f59418fd49cef17cc2056a0,2021-09-27_14h20.30.870,forced_choiceRT_color,2021.2.3,Win32,60.0240096,j,2.0526,1,0,1,0,1,,,,,,,,,,,,,,,,
,,,,,,,,,,,,5f59418fd49cef17cc2056a0,2021-09-27_14h20.30.870,forced_choiceRT_color,2021.2.3,Win32,60.0240096,j,1.9697,2,0,2,0,1,,,,,,,,,,,,,,,,
,,,,,,,,,,,,5f59418fd49cef17cc2056a0,2021-09-27_14h20.30.870,forced_choiceRT_color,2021.2.3,Win32,60.0240096,j,1.9868,3,0,3,0,1,,,,,,,,,,,,,,,,
,,,,,,,,,,,,5f59418fd49cef17cc2056a0,2021-09-27_14h20.30.870,forced_choiceRT_color,2021.2.3,Win32,60.0240096,j,1.9859,4,0,4,0,1,,,,,,,,,,,,,,,,
,,,,,,,,,,,,5f59418fd49cef17cc2056a0,2021-09-27_14h20.30.870,forced_choiceRT_color,2021.2.3,Win32,60.0240096,j,2.0192,5,0,5,0,1,,,,,,,,,,,,,,,,
,,,,,,,,,,,,5f59418fd49cef17cc2056a0,2021-09-27_14h20.30.870,forced_choiceRT_color,2021.2.3,Win32,60.0240096,j,1.971,6,0,6,0,1,,,,,,,,,,,,,,,,
,,,,,,,,,,,,5f59418fd49cef17cc2056a0,2021-09-27_14h20.30.870,forced_choiceRT_color,2021.2.3,Win32,60.0240096,j,2.0379,7,0,7,0,1,,,,,,,,,,,,,,,,
,,,,,,,,,,,,5f59418fd49cef17cc2056a0,2021-09-27_14h20.30.870,forced_choiceRT_color,2021.2.3,Win32,60.0240096,j,1.974,8,0,8,0,1,,,,,,,,,,,,,,,,
,,,,,,,,,,,,5f59418fd49cef17cc2056a0,2021-09-27_14h20.30.870,forced_choiceRT_color,2021.2.3,Win32,60.0240096,j,2.0231,9,0,9,0,1,,,,,,,,,,,,,,,,
,,,,,,,,,,,,5f59418fd49cef17cc2056a0,2021-09-27_14h20.30.870,forced_choiceRT_color,2021.2.3,Win32,60.0240096,j,1.9862,10,0,10,0,1,,,,,,,,,,,,,,,,
,,,,,,,,,,,,5f59418fd49cef17cc2056a0,2021-09-27_14h20.30.870,forced_choiceRT_color,2021.2.3,Win32,60.0240096,j,1.8833,11,0,11,0,1,,,,,,,,,,,,,,,,
,,,,,,,,,,,,5f59418fd49cef17cc2056a0,2021-09-27_14h20.30.870,forced_choiceRT_color,2021.2.3,Win32,60.0240096,j,2.021,12,0,12,0,1,,,,,,,,,,,,,,,,
,,,,,,,,,,,,5f59418fd49cef17cc2056a0,2021-09-27_14h20.30.870,forced_choiceRT_color,2021.2.3,Win32,60.0240096,j,1.8751,13,0,13,0,1,,,,,,,,,,,,,,,,
,,,,,,,,,,,,5f59418fd49cef17cc2056a0,2021-09-27_14h20.30.870,forced_choiceRT_color,2021.2.3,Win32,60.0240096,j,1.8885,14,0,14,0,1,,,,,,,,,,,,,,,,
,,,,,,,,,,,,5f59418fd49cef17cc2056a0,2021-09-27_14h20.30.870,forced_choiceRT_color,2021.2.3,Win32,60.0240096,j,1.9925,15,0,15,0,1,,,,,,,,,,,,,,,,
,,,,,,,,,,,,5f59418fd49cef17cc2056a0,2021-09-27_14h20.30.870,forced_choiceRT_color,2021.2.3,Win32,60.0240096,j,2.1262,16,0,16,0,1,,,,,,,,,,,,,,,,
,,,,,,,,,,,,5f59418fd49cef17cc2056a0,2021-09-27_14h20.30.870,forced_choiceRT_color,2021.2.3,Win32,60.0240096,j,1.9275,17,0,17,0,1,,,,,,,,,,,,,,,,
,,,,,,,,,,,,5f59418fd49cef17cc2056a0,2021-09-27_14h20.30.870,forced_choiceRT_color,2021.2.3,Win32,60.0240096,j,1.9208,18,0,18,0,1,,,,,,,,,,,,,,,,
,,,,,,,,,,,,5f59418fd49cef17cc2056a0,2021-09-27_14h20.30.870,forced_choiceRT_color,2021.2.3,Win32,60.0240096,j,1.9282,19,0,19,0,1,,,,,,,,,,,,,,,,
,1.9,,,,,,,,,d,orange,5f59418fd49cef17cc2056a0,2021-09-27_14h20.30.870,forced_choiceRT_color,2021.2.3,Win32,60.0240096,,,,,,,,1,Slow,short,d,1,2.4323,0,0,0,0,1,,,,,
,0.83,,,,,,,,,d,orange,5f59418fd49cef17cc2056a0,2021-09-27_14h20.30.870,forced_choiceRT_color,2021.2.3,Win32,60.0240096,,,,,,,,1,Fast,short,d,1,1.6,0,1,1,0,1,,,,,
,1.68,,,,,,,,,j,red,5f59418fd49cef17cc2056a0,2021-09-27_14h20.30.870,forced_choiceRT_color,2021.2.3,Win32,60.0240096,,,,,,,,1,Slow,short,f,0,2.3632,0,2,2,2,1,,,,,
,1.05,,,,,,,,,j,red,5f59418fd49cef17cc2056a0,2021-09-27_14h20.30.870,forced_choiceRT_color,2021.2.3,Win32,60.0240096,,,,,,,,1,Ontime,short,f,0,1.9514,0,3,3,2,1,,,,,
,1.69,,,,,,,,,j,red,5f59418fd49cef17cc2056a0,2021-09-27_14h20.30.870,forced_choiceRT_color,2021.2.3,Win32,60.0240096,,,,,,,,1,Slow,short,f,0,2.3553,1,0,4,2,1,,,,,
,0.69,,,,,,,,,f,blue,5f59418fd49cef17cc2056a0,2021-09-27_14h20.30.870,forced_choiceRT_color,2021.2.3,Win32,60.0240096,,,,,,,,1,Ontime,short,f,1,2.021,1,1,5,1,1,,,,,
,0.41,,,,,,,,,f,blue,5f59418fd49cef17cc2056a0,2021-09-27_14h20.30.870,forced_choiceRT_color,2021.2.3,Win32,60.0240096,,,,,,,,1,Slow,short,f,1,2.1507,1,2,6,1,1,,,,,
,1.52,,,,,,,,,k,purple,5f59418fd49cef17cc2056a0,2021-09-27_14h20.30.870,forced_choiceRT_color,2021.2.3,Win32,60.0240096,,,,,,,,1,Slow,short,k,1,2.2785,1,3,7,3,1,,,,,
,1.61,,,,,,,,,j,red,5f59418fd49cef17cc2056a0,2021-09-27_14h20.30.870,forced_choiceRT_color,2021.2.3,Win32,60.0240096,,,,,,,,1,Slow,short,f,0,2.2242,2,0,8,2,1,,,,,
,0.32,,,,,,,,,f,blue,5f59418fd49cef17cc2056a0,2021-09-27_14h20.30.870,forced_choiceRT_color,2021.2.3,Win32,60.0240096,,,,,,,,1,Ontime,short,f,1,2.0034,2,1,9,1,1,,,,,
,1.87,,,,,,,,,d,orange,5f59418fd49cef17cc2056a0,2021-09-27_14h20.30.870,forced_choiceRT_color,2021.2.3,Win32,60.0240096,,,,,,,,1,Slow,short,j,0,2.4,2,2,10,0,1,,,,,
,1.66,,,,,,,,,d,orange,5f59418fd49cef17cc2056a0,2021-09-27_14h20.30.870,forced_choiceRT_color,2021.2.3,Win32,60.0240096,,,,,,,,1,Fast,short,j,0,0.0184,2,3,11,0,1,,,,,
,1.46,,,,,,,,,k,purple,5f59418fd49cef17cc2056a0,2021-09-27_14h20.30.870,forced_choiceRT_color,2021.2.3,Win32,60.0240096,,,,,,,,1,Ontime,short,k,1,2.0033,3,0,12,3,1,,,,,
,0.99,,,,,,,,,f,blue,5f59418fd49cef17cc2056a0,2021-09-27_14h20.30.870,forced_choiceRT_color,2021.2.3,Win32,60.0240096,,,,,,,,1,Ontime,short,f,1,1.9969,3,1,13,1,1,,,,,
,1.51,,,,,,,,,j,red,5f59418fd49cef17cc2056a0,2021-09-27_14h20.30.870,forced_choiceRT_color,2021.2.3,Win32,60.0240096,,,,,,,,1,Slow,short,f,0,2.2686,3,2,14,2,1,,,,,
,0.02,,,,,,,,,f,blue,5f59418fd49cef17cc2056a0,2021-09-27_14h20.30.870,forced_choiceRT_color,2021.2.3,Win32,60.0240096,,,,,,,,1,Fast,short,f,1,1.4316,3,3,15,1,1,,,,,
,0.14,,,,,,,,,k,purple,5f59418fd49cef17cc2056a0,2021-09-27_14h20.30.870,forced_choiceRT_color,2021.2.3,Win32,60.0240096,,,,,,,,1,Slow,short,k,1,2.1207,4,0,16,3,1,,,,,
,0.44,,,,,,,,,j,red,5f59418fd49cef17cc2056a0,2021-09-27_14h20.30.870,forced_choiceRT_color,2021.2.3,Win32,60.0240096,,,,,,,,1,Ontime,short,f,0,2.0547,4,1,17,2,1,,,,,
,0.77,,,,,,,,,d,orange,5f59418fd49cef17cc2056a0,2021-09-27_14h20.30.870,forced_choiceRT_color,2021.2.3,Win32,60.0240096,,,,,,,,1,Slow,short,d,1,2.1872,4,2,18,0,1,,,,,
,1.15,,,,,,,,,k,purple,5f59418fd49cef17cc2056a0,2021-09-27_14h20.30.870,forced_choiceRT_color,2021.2.3,Win32,60.0240096,,,,,,,,1,Slow,short,k,1,2.1193,4,3,19,3,1,,,,,
,0.42,,,,,,,,,j,red,5f59418fd49cef17cc2056a0,2021-09-27_14h20.30.870,forced_choiceRT_color,2021.2.3,Win32,60.0240096,,,,,,,,1,Ontime,short,j,1,2.0692,5,0,20,2,1,,,,,
,0.37,,,,,,,,,k,purple,5f59418fd49cef17cc2056a0,2021-09-27_14h20.30.870,forced_choiceRT_color,2021.2.3,Win32,60.0240096,,,,,,,,1,Ontime,short,k,1,2.0197,5,1,21,3,1,,,,,
,1.62,,,,,,,,,j,red,5f59418fd49cef17cc2056a0,2021-09-27_14h20.30.870,forced_choiceRT_color,2021.2.3,Win32,60.0240096,,,,,,,,1,Fast,short,k,0,0.1683,5,2,22,2,1,,,,,
,1.43,,,,,,,,,k,purple,5f59418fd49cef17cc2056a0,2021-09-27_14h20.30.870,forced_choiceRT_color,2021.2.3,Win32,60.0240096,,,,,,,,1,Slow,short,k,1,2.1031,5,3,23,3,1,,,,,
,0.3,,,,,,,,,k,purple,5f59418fd49cef17cc2056a0,2021-09-27_14h20.30.870,forced_choiceRT_color,2021.2.3,Win32,60.0240096,,,,,,,,1,Fast,short,k,1,1.8207,6,0,24,3,1,,,,,
,0.76,,,,,,,,,f,blue,5f59418fd49cef17cc2056a0,2021-09-27_14h20.30.870,forced_choiceRT_color,2021.2.3,Win32,60.0240096,,,,,,,,1,Fast,short,k,0,0.4879,6,1,25,1,1,,,,,
,1.15,,,,,,,,,d,orange,5f59418fd49cef17cc2056a0,2021-09-27_14h20.30.870,forced_choiceRT_color,2021.2.3,Win32,60.0240096,,,,,,,,1,Fast,short,k,0,0.0507,6,2,26,0,1,,,,,
,0.93,,,,,,,,,d,orange,5f59418fd49cef17cc2056a0,2021-09-27_14h20.30.870,forced_choiceRT_color,2021.2.3,Win32,60.0240096,,,,,,,,1,Slow,short,d,1,2.1208,6,3,27,0,1,,,,,
,0.58,,,,,,,,,d,orange,5f59418fd49cef17cc2056a0,2021-09-27_14h20.30.870,forced_choiceRT_color,2021.2.3,Win32,60.0240096,,,,,,,,1,Ontime,short,d,1,2.0235,7,0,28,0,1,,,,,
,0.6,,,,,,,,,f,blue,5f59418fd49cef17cc2056a0,2021-09-27_14h20.30.870,forced_choiceRT_color,2021.2.3,Win32,60.0240096,,,,,,,,1,Fast,short,d,0,0.1328,7,1,29,1,1,,,,,
,1.94,,,,,,,,,f,blue,5f59418fd49cef17cc2056a0,2021-09-27_14h20.30.870,forced_choiceRT_color,2021.2.3,Win32,60.0240096,,,,,,,,1,Slow,short,d,0,2.3558,7,2,30,1,1,,,,,
,0.3,,,,,,,,,k,purple,5f59418fd49cef17cc2056a0,2021-09-27_14h20.30.870,forced_choiceRT_color,2021.2.3,Win32,60.0240096,,,,,,,,1,Ontime,short,k,1,2.0565,7,3,31,3,1,,,,,
,0.53,,,,,,,,,d,orange,5f59418fd49cef17cc2056a0,2021-09-27_14h20.30.870,forced_choiceRT_color,2021.2.3,Win32,60.0240096,,,,,,,,1,Ontime,short,d,1,2.0257,8,0,32,0,1,,,,,
,0.71,,,,,,,,,j,red,5f59418fd49cef17cc2056a0,2021-09-27_14h20.30.870,forced_choiceRT_color,2021.2.3,Win32,60.0240096,,,,,,,,1,Ontime,short,j,1,1.987,8,1,33,2,1,,,,,
,1.07,,,,,,,,,k,purple,5f59418fd49cef17cc2056a0,2021-09-27_14h20.30.870,forced_choiceRT_color,2021.2.3,Win32,60.0240096,,,,,,,,1,Ontime,short,k,1,2.0089,8,2,34,3,1,,,,,
,0.67,,,,,,,,,f,blue,5f59418fd49cef17cc2056a0,2021-09-27_14h20.30.870,forced_choiceRT_color,2021.2.3,Win32,60.0240096,,,,,,,,1,Ontime,short,d,0,1.9276,8,3,35,1,1,,,,,
,1.88,,,,,,,,,f,blue,5f59418fd49cef17cc2056a0,2021-09-27_14h20.30.870,forced_choiceRT_color,2021.2.3,Win32,60.0240096,,,,,,,,1,Slow,short,f,1,2.279,9,0,36,1,1,,,,,
,1.44,,,,,,,,,k,purple,5f59418fd49cef17cc2056a0,2021-09-27_14h20.30.870,forced_choiceRT_color,2021.2.3,Win32,60.0240096,,,,,,,,1,Ontime,short,k,1,2.0615,9,1,37,3,1,,,,,
,1.02,,,,,,,,,j,red,5f59418fd49cef17cc2056a0,2021-09-27_14h20.30.870,forced_choiceRT_color,2021.2.3,Win32,60.0240096,,,,,,,,1,Ontime,short,j,1,1.9701,9,2,38,2,1,,,,,
,1.58,,,,,,,,,d,orange,5f59418fd49cef17cc2056a0,2021-09-27_14h20.30.870,forced_choiceRT_color,2021.2.3,Win32,60.0240096,,,,,,,,1,Ontime,short,d,1,2.0385,9,3,39,0,1,,,,,
,,,,,,,,,,,,5f59418fd49cef17cc2056a0,2021-09-27_14h20.30.870,forced_choiceRT_color,2021.2.3,Win32,60.0240096,,,,,,,,,,,,,,,,,,,0,0,0,0,1
,1.68,,,,,,,,,j,red,5f59418fd49cef17cc2056a0,2021-09-27_14h20.30.870,forced_choiceRT_color,2021.2.3,Win32,60.0240096,,,,,,,,2,Slow,short,k,0,2.2516,0,0,0,2,1,,,,,
,1.77,,,,,,,,,j,red,5f59418fd49cef17cc2056a0,2021-09-27_14h20.30.870,forced_choiceRT_color,2021.2.3,Win32,60.0240096,,,,,,,,2,Slow,short,j,1,2.12,0,1,1,2,1,,,,,
,0.02,,,,,,,,,j,red,5f59418fd49cef17cc2056a0,2021-09-27_14h20.30.870,forced_choiceRT_color,2021.2.3,Win32,60.0240096,,,,,,,,2,Ontime,short,j,1,1.9448,0,2,2,2,1,,,,,
,0.18,,,,,,,,,k,purple,5f59418fd49cef17cc2056a0,2021-09-27_14h20.30.870,forced_choiceRT_color,2021.2.3,Win32,60.0240096,,,,,,,,2,Ontime,short,k,1,1.9445,0,3,3,3,1,,,,,
,0.1,,,,,,,,,d,orange,5f59418fd49cef17cc2056a0,2021-09-27_14h20.30.870,forced_choiceRT_color,2021.2.3,Win32,60.0240096,,,,,,,,2,Ontime,short,d,1,1.9112,1,0,4,0,1,,,,,
,1.79,,,,,,,,,d,orange,5f59418fd49cef17cc2056a0,2021-09-27_14h20.30.870,forced_choiceRT_color,2021.2.3,Win32,60.0240096,,,,,,,,2,Ontime,short,f,0,2.0386,1,1,5,0,1,,,,,
,1.21,,,,,,,,,d,orange,5f59418fd49cef17cc2056a0,2021-09-27_14h20.30.870,forced_choiceRT_color,2021.2.3,Win32,60.0240096,,,,,,,,2,Ontime,short,d,1,1.9144,1,2,6,0,1,,,,,
,1.9,,,,,,,,,k,purple,5f59418fd49cef17cc2056a0,2021-09-27_14h20.30.870,forced_choiceRT_color,2021.2.3,Win32,60.0240096,,,,,,,,2,Slow,short,d,0,2.2214,1,3,7,3,1,,,,,
,0.23,,,,,,,,,d,orange,5f59418fd49cef17cc2056a0,2021-09-27_14h20.30.870,forced_choiceRT_color,2021.2.3,Win32,60.0240096,,,,,,,,2,Ontime,short,d,1,1.921,2,0,8,0,1,,,,,
,0,,,,,,,,,f,blue,5f59418fd49cef17cc2056a0,2021-09-27_14h20.30.870,forced_choiceRT_color,2021.2.3,Win32,60.0240096,,,,,,,,2,Fast,short,f,1,1.8652,2,1,9,1,1,,,,,
,0.45,,,,,,,,,d,orange,5f59418fd49cef17cc2056a0,2021-09-27_14h20.30.870,forced_choiceRT_color,2021.2.3,Win32,60.0240096,,,,,,,,2,Ontime,short,d,1,1.9912,2,2,10,0,1,,,,,
,1.31,,,,,,,,,k,purple,5f59418fd49cef17cc2056a0,2021-09-27_14h20.30.870,forced_choiceRT_color,2021.2.3,Win32,60.0240096,,,,,,,,2,Ontime,short,k,1,2.0342,2,3,11,3,1,,,,,
,0.68,,,,,,,,,d,orange,5f59418fd49cef17cc2056a0,2021-09-27_14h20.30.870,forced_choiceRT_color,2021.2.3,Win32,60.0240096,,,,,,,,2,Ontime,short,d,1,1.9721,3,0,12,0,1,,,,,
,0.6,,,,,,,,,j,red,5f59418fd49cef17cc2056a0,2021-09-27_14h20.30.870,forced_choiceRT_color,2021.2.3,Win32,60.0240096,,,,,,,,2,Ontime,short,j,1,1.9734,3,1,13,2,1,,,,,
,1.79,,,,,,,,,k,purple,5f59418fd49cef17cc2056a0,2021-09-27_14h20.30.870,forced_choiceRT_color,2021.2.3,Win32,60.0240096,,,,,,,,2,Slow,short,k,1,2.19,3,2,14,3,1,,,,,
,0.13,,,,,,,,,j,red,5f59418fd49cef17cc2056a0,2021-09-27_14h20.30.870,forced_choiceRT_color,2021.2.3,Win32,60.0240096,,,,,,,,2,Ontime,short,j,1,1.9911,3,3,15,2,1,,,,,
,0,,,,,,,,,f,blue,5f59418fd49cef17cc2056a0,2021-09-27_14h20.30.870,forced_choiceRT_color,2021.2.3,Win32,60.0240096,,,,,,,,2,Ontime,short,f,1,2.0044,4,0,16,1,1,,,,,
,1.51,,,,,,,,,f,blue,5f59418fd49cef17cc2056a0,2021-09-27_14h20.30.870,forced_choiceRT_color,2021.2.3,Win32,60.0240096,,,,,,,,2,Ontime,short,j,0,1.9545,4,1,17,1,1,,,,,
,0.53,,,,,,,,,j,red,5f59418fd49cef17cc2056a0,2021-09-27_14h20.30.870,forced_choiceRT_color,2021.2.3,Win32,60.0240096,,,,,,,,2,Fast,short,f,0,0.1602,4,2,18,2,1,,,,,
,0.84,,,,,,,,,k,purple,5f59418fd49cef17cc2056a0,2021-09-27_14h20.30.870,forced_choiceRT_color,2021.2.3,Win32,60.0240096,,,,,,,,2,Ontime,short,k,1,2.0318,4,3,19,3,1,,,,,
,0.96,,,,,,,,,d,orange,5f59418fd49cef17cc2056a0,2021-09-27_14h20.30.870,forced_choiceRT_color,2021.2.3,Win32,60.0240096,,,,,,,,2,Ontime,short,d,1,2.024,5,0,20,0,1,,,,,
,0.02,,,,,,,,,d,orange,5f59418fd49cef17cc2056a0,2021-09-27_14h20.30.870,forced_choiceRT_color,2021.2.3,Win32,60.0240096,,,,,,,,2,Ontime,short,d,1,1.9888,5,1,21,0,1,,,,,
,1.74,,,,,,,,,f,blue,5f59418fd49cef17cc2056a0,2021-09-27_14h20.30.870,forced_choiceRT_color,2021.2.3,Win32,60.0240096,,,,,,,,2,Ontime,short,f,1,2.09,5,2,22,1,1,,,,,
,0.67,,,,,,,,,f,blue,5f59418fd49cef17cc2056a0,2021-09-27_14h20.30.870,forced_choiceRT_color,2021.2.3,Win32,60.0240096,,,,,,,,2,Ontime,short,f,1,2.0487,5,3,23,1,1,,,,,
,0.45,,,,,,,,,k,purple,5f59418fd49cef17cc2056a0,2021-09-27_14h20.30.870,forced_choiceRT_color,2021.2.3,Win32,60.0240096,,,,,,,,2,Ontime,short,k,1,2.0391,6,0,24,3,1,,,,,
,1.12,,,,,,,,,k,purple,5f59418fd49cef17cc2056a0,2021-09-27_14h20.30.870,forced_choiceRT_color,2021.2.3,Win32,60.0240096,,,,,,,,2,Ontime,short,k,1,1.9836,6,1,25,3,1,,,,,
,0.39,,,,,,,,,f,blue,5f59418fd49cef17cc2056a0,2021-09-27_14h20.30.870,forced_choiceRT_color,2021.2.3,Win32,60.0240096,,,,,,,,2,Ontime,short,f,1,2.0367,6,2,26,1,1,,,,,
,0,,,,,,,,,d,orange,5f59418fd49cef17cc2056a0,2021-09-27_14h20.30.870,forced_choiceRT_color,2021.2.3,Win32,60.0240096,,,,,,,,2,Ontime,short,d,1,2.0414,6,3,27,0,1,,,,,
,1.1,,,,,,,,,j,red,5f59418fd49cef17cc2056a0,2021-09-27_14h20.30.870,forced_choiceRT_color,2021.2.3,Win32,60.0240096,,,,,,,,2,Ontime,short,j,1,1.938,7,0,28,2,1,,,,,
,1.58,,,,,,,,,k,purple,5f59418fd49cef17cc2056a0,2021-09-27_14h20.30.870,forced_choiceRT_color,2021.2.3,Win32,60.0240096,,,,,,,,2,Ontime,short,k,1,2.0449,7,1,29,3,1,,,,,
,0.55,,,,,,,,,j,red,5f59418fd49cef17cc2056a0,2021-09-27_14h20.30.870,forced_choiceRT_color,2021.2.3,Win32,60.0240096,,,,,,,,2,Ontime,short,f,0,2.0446,7,2,30,2,1,,,,,
,0.81,,,,,,,,,k,purple,5f59418fd49cef17cc2056a0,2021-09-27_14h20.30.870,forced_choiceRT_color,2021.2.3,Win32,60.0240096,,,,,,,,2,Slow,short,k,1,2.1055,7,3,31,3,1,,,,,
,1.82,,,,,,,,,j,red,5f59418fd49cef17cc2056a0,2021-09-27_14h20.30.870,forced_choiceRT_color,2021.2.3,Win32,60.0240096,,,,,,,,2,Slow,short,k,0,2.2378,8,0,32,2,1,,,,,
,0.07,,,,,,,,,f,blue,5f59418fd49cef17cc2056a0,2021-09-27_14h20.30.870,forced_choiceRT_color,2021.2.3,Win32,60.0240096,,,,,,,,2,Ontime,short,f,1,2.0173,8,1,33,1,1,,,,,
,1.39,,,,,,,,,f,blue,5f59418fd49cef17cc2056a0,2021-09-27_14h20.30.870,forced_choiceRT_color,2021.2.3,Win32,60.0240096,,,,,,,,2,Ontime,short,f,1,2.0107,8,2,34,1,1,,,,,
,0.79,,,,,,,,,k,purple,5f59418fd49cef17cc2056a0,2021-09-27_14h20.30.870,forced_choiceRT_color,2021.2.3,Win32,60.0240096,,,,,,,,2,Slow,short,k,1,2.1044,8,3,35,3,1,,,,,
,0.88,,,,,,,,,f,blue,5f59418fd49cef17cc2056a0,2021-09-27_14h20.30.870,forced_choiceRT_color,2021.2.3,Win32,60.0240096,,,,,,,,2,Ontime,short,f,1,1.9741,9,0,36,1,1,,,,,
,1.28,,,,,,,,,d,orange,5f59418fd49cef17cc2056a0,2021-09-27_14h20.30.870,forced_choiceRT_color,2021.2.3,Win32,60.0240096,,,,,,,,2,Ontime,short,d,1,2.0032,9,1,37,0,1,,,,,
,1.08,,,,,,,,,j,red,5f59418fd49cef17cc2056a0,2021-09-27_14h20.30.870,forced_choiceRT_color,2021.2.3,Win32,60.0240096,,,,,,,,2,Ontime,short,j,1,2.039,9,2,38,2,1,,,,,
,1.98,,,,,,,,,f,blue,5f59418fd49cef17cc2056a0,2021-09-27_14h20.30.870,forced_choiceRT_color,2021.2.3,Win32,60.0240096,,,,,,,,2,Slow,short,k,0,2.2912,9,3,39,1,1,,,,,
,,,,,,,,,,,,5f59418fd49cef17cc2056a0,2021-09-27_14h20.30.870,forced_choiceRT_color,2021.2.3,Win32,60.0240096,,,,,,,,,,,,,,,,,,,1,0,1,0,1
,0.94,,,,,,,,,f,blue,5f59418fd49cef17cc2056a0,2021-09-27_14h20.30.870,forced_choiceRT_color,2021.2.3,Win32,60.0240096,,,,,,,,3,Slow,short,f,1,2.1076,0,0,0,1,1,,,,,
,1.93,,,,,,,,,j,red,5f59418fd49cef17cc2056a0,2021-09-27_14h20.30.870,forced_choiceRT_color,2021.2.3,Win32,60.0240096,,,,,,,,3,Slow,short,f,0,2.3716,0,1,1,2,1,,,,,
,0.44,,,,,,,,,f,blue,5f59418fd49cef17cc2056a0,2021-09-27_14h20.30.870,forced_choiceRT_color,2021.2.3,Win32,60.0240096,,,,,,,,3,Slow,short,f,1,2.1268,0,2,2,1,1,,,,,
,0.76,,,,,,,,,d,orange,5f59418fd49cef17cc2056a0,2021-09-27_14h20.30.870,forced_choiceRT_color,2021.2.3,Win32,60.0240096,,,,,,,,3,Ontime,short,d,1,2.0102,0,3,3,0,1,,,,,
,0.96,,,,,,,,,j,red,5f59418fd49cef17cc2056a0,2021-09-27_14h20.30.870,forced_choiceRT_color,2021.2.3,Win32,60.0240096,,,,,,,,3,Ontime,short,j,1,2.0089,1,0,4,2,1,,,,,
,1.9,,,,,,,,,f,blue,5f59418fd49cef17cc2056a0,2021-09-27_14h20.30.870,forced_choiceRT_color,2021.2.3,Win32,60.0240096,,,,,,,,3,Slow,short,k,0,2.1732,1,1,5,1,1,,,,,
,0.73,,,,,,,,,k,purple,5f59418fd49cef17cc2056a0,2021-09-27_14h20.30.870,forced_choiceRT_color,2021.2.3,Win32,60.0240096,,,,,,,,3,Fast,short,j,0,0.3864,1,2,6,3,1,,,,,
,0.54,,,,,,,,,j,red,5f59418fd49cef17cc2056a0,2021-09-27_14h20.30.870,forced_choiceRT_color,2021.2.3,Win32,60.0240096,,,,,,,,3,Ontime,short,j,1,2.0095,1,3,7,2,1,,,,,
,1.52,,,,,,,,,j,red,5f59418fd49cef17cc2056a0,2021-09-27_14h20.30.870,forced_choiceRT_color,2021.2.3,Win32,60.0240096,,,,,,,,3,Ontime,short,d,0,2.0112,2,0,8,2,1,,,,,
,0.47,,,,,,,,,d,orange,5f59418fd49cef17cc2056a0,2021-09-27_14h20.30.870,forced_choiceRT_color,2021.2.3,Win32,60.0240096,,,,,,,,3,Fast,short,j,0,0.2278,2,1,9,0,1,,,,,
,1.51,,,,,,,,,d,orange,5f59418fd49cef17cc2056a0,2021-09-27_14h20.30.870,forced_choiceRT_color,2021.2.3,Win32,60.0240096,,,,,,,,3,Fast,short,j,0,0.0214,2,2,10,0,1,,,,,
,1.3,,,,,,,,,f,blue,5f59418fd49cef17cc2056a0,2021-09-27_14h20.30.870,forced_choiceRT_color,2021.2.3,Win32,60.0240096,,,,,,,,3,Ontime,short,d,0,2.0345,2,3,11,1,1,,,,,
,0.9,,,,,,,,,k,purple,5f59418fd49cef17cc2056a0,2021-09-27_14h20.30.870,forced_choiceRT_color,2021.2.3,Win32,60.0240096,,,,,,,,3,Ontime,short,k,1,2.0875,3,0,12,3,1,,,,,
,1.11,,,,,,,,,k,purple,5f59418fd49cef17cc2056a0,2021-09-27_14h20.30.870,forced_choiceRT_color,2021.2.3,Win32,60.0240096,,,,,,,,3,Slow,short,k,1,2.1191,3,1,13,3,1,,,,,
,1.2,,,,,,,,,f,blue,5f59418fd49cef17cc2056a0,2021-09-27_14h20.30.870,forced_choiceRT_color,2021.2.3,Win32,60.0240096,,,,,,,,3,Ontime,short,f,1,2.007,3,2,14,1,1,,,,,
,0.19,,,,,,,,,k,purple,5f59418fd49cef17cc2056a0,2021-09-27_14h20.30.870,forced_choiceRT_color,2021.2.3,Win32,60.0240096,,,,,,,,3,Ontime,short,k,1,2.0295,3,3,15,3,1,,,,,
,0.92,,,,,,,,,d,orange,5f59418fd49cef17cc2056a0,2021-09-27_14h20.30.870,forced_choiceRT_color,2021.2.3,Win32,60.0240096,,,,,,,,3,Slow,short,d,1,2.1076,4,0,16,0,1,,,,,
,0.46,,,,,,,,,f,blue,5f59418fd49cef17cc2056a0,2021-09-27_14h20.30.870,forced_choiceRT_color,2021.2.3,Win32,60.0240096,,,,,,,,3,Ontime,short,f,1,1.9674,4,1,17,1,1,,,,,
,1.7,,,,,,,,,d,orange,5f59418fd49cef17cc2056a0,2021-09-27_14h20.30.870,forced_choiceRT_color,2021.2.3,Win32,60.0240096,,,,,,,,3,Slow,short,j,0,2.126,4,2,18,0,1,,,,,
,1.27,,,,,,,,,k,purple,5f59418fd49cef17cc2056a0,2021-09-27_14h20.30.870,forced_choiceRT_color,2021.2.3,Win32,60.0240096,,,,,,,,3,Ontime,short,k,1,2.0129,4,3,19,3,1,,,,,
,1.02,,,,,,,,,j,red,5f59418fd49cef17cc2056a0,2021-09-27_14h20.30.870,forced_choiceRT_color,2021.2.3,Win32,60.0240096,,,,,,,,3,Ontime,short,j,1,2.0264,5,0,20,2,1,,,,,
,0.95,,,,,,,,,k,purple,5f59418fd49cef17cc2056a0,2021-09-27_14h20.30.870,forced_choiceRT_color,2021.2.3,Win32,60.0240096,,,,,,,,3,Ontime,short,k,1,2.0872,5,1,21,3,1,,,,,
,0.35,,,,,,,,,f,blue,5f59418fd49cef17cc2056a0,2021-09-27_14h20.30.870,forced_choiceRT_color,2021.2.3,Win32,60.0240096,,,,,,,,3,Ontime,short,d,0,1.9703,5,2,22,1,1,,,,,
,0.58,,,,,,,,,d,orange,5f59418fd49cef17cc2056a0,2021-09-27_14h20.30.870,forced_choiceRT_color,2021.2.3,Win32,60.0240096,,,,,,,,3,Ontime,short,d,1,1.9508,5,3,23,0,1,,,,,
,0.17,,,,,,,,,j,red,5f59418fd49cef17cc2056a0,2021-09-27_14h20.30.870,forced_choiceRT_color,2021.2.3,Win32,60.0240096,,,,,,,,3,Ontime,short,j,1,2.0111,6,0,24,2,1,,,,,
,0.8,,,,,,,,,d,orange,5f59418fd49cef17cc2056a0,2021-09-27_14h20.30.870,forced_choiceRT_color,2021.2.3,Win32,60.0240096,,,,,,,,3,Ontime,short,d,1,1.9616,6,1,25,0,1,,,,,
,1.12,,,,,,,,,k,purple,5f59418fd49cef17cc2056a0,2021-09-27_14h20.30.870,forced_choiceRT_color,2021.2.3,Win32,60.0240096,,,,,,,,3,Slow,short,k,1,2.2239,6,2,26,3,1,,,,,
,1.75,,,,,,,,,f,blue,5f59418fd49cef17cc2056a0,2021-09-27_14h20.30.870,forced_choiceRT_color,2021.2.3,Win32,60.0240096,,,,,,,,3,Slow,short,d,0,2.2421,6,3,27,1,1,,,,,
,1.44,,,,,,,,,d,orange,5f59418fd49cef17cc2056a0,2021-09-27_14h20.30.870,forced_choiceRT_color,2021.2.3,Win32,60.0240096,,,,,,,,3,Ontime,short,d,1,2.0404,7,0,28,0,1,,,,,
,0.43,,,,,,,,,j,red,5f59418fd49cef17cc2056a0,2021-09-27_14h20.30.870,forced_choiceRT_color,2021.2.3,Win32,60.0240096,,,,,,,,3,Ontime,short,j,1,2.0346,7,1,29,2,1,,,,,
,0.06,,,,,,,,,f,blue,5f59418fd49cef17cc2056a0,2021-09-27_14h20.30.870,forced_choiceRT_color,2021.2.3,Win32,60.0240096,,,,,,,,3,Ontime,short,f,1,2.0025,7,2,30,1,1,,,,,
,1.95,,,,,,,,,k,purple,5f59418fd49cef17cc2056a0,2021-09-27_14h20.30.870,forced_choiceRT_color,2021.2.3,Win32,60.0240096,,,,,,,,3,Slow,short,k,1,2.2943,7,3,31,3,1,,,,,
,0.01,,,,,,,,,j,red,5f59418fd49cef17cc2056a0,2021-09-27_14h20.30.870,forced_choiceRT_color,2021.2.3,Win32,60.0240096,,,,,,,,3,Fast,short,k,0,0.2605,8,0,32,2,1,,,,,
,1.52,,,,,,,,,k,purple,5f59418fd49cef17cc2056a0,2021-09-27_14h20.30.870,forced_choiceRT_color,2021.2.3,Win32,60.0240096,,,,,,,,3,Ontime,short,k,1,2.026,8,1,33,3,1,,,,,
,0.18,,,,,,,,,d,orange,5f59418fd49cef17cc2056a0,2021-09-27_14h20.30.870,forced_choiceRT_color,2021.2.3,Win32,60.0240096,,,,,,,,3,Ontime,short,d,1,2.01,8,2,34,0,1,,,,,
,1.97,,,,,,,,,j,red,5f59418fd49cef17cc2056a0,2021-09-27_14h20.30.870,forced_choiceRT_color,2021.2.3,Win32,60.0240096,,,,,,,,3,Slow,short,f,0,2.2564,8,3,35,2,1,,,,,
,1.78,,,,,,,,,d,orange,5f59418fd49cef17cc2056a0,2021-09-27_14h20.30.870,forced_choiceRT_color,2021.2.3,Win32,60.0240096,,,,,,,,3,Slow,short,d,1,2.2805,9,0,36,0,1,,,,,
,0.11,,,,,,,,,f,blue,5f59418fd49cef17cc2056a0,2021-09-27_14h20.30.870,forced_choiceRT_color,2021.2.3,Win32,60.0240096,,,,,,,,3,Fast,short,j,0,1.784,9,1,37,1,1,,,,,
,1.11,,,,,,,,,k,purple,5f59418fd49cef17cc2056a0,2021-09-27_14h20.30.870,forced_choiceRT_color,2021.2.3,Win32,60.0240096,,,,,,,,3,Ontime,short,k,1,1.9272,9,2,38,3,1,,,,,
,0.6,,,,,,,,,j,red,5f59418fd49cef17cc2056a0,2021-09-27_14h20.30.870,forced_choiceRT_color,2021.2.3,Win32,60.0240096,,,,,,,,3,Ontime,short,j,1,2.0381,9,3,39,2,1,,,,,
,,,,,,,,,,,,5f59418fd49cef17cc2056a0,2021-09-27_14h20.30.870,forced_choiceRT_color,2021.2.3,Win32,60.0240096,,,,,,,,,,,,,,,,,,,2,0,2,0,1
,0.94,,,,,,,,,d,orange,5f59418fd49cef17cc2056a0,2021-09-27_14h20.30.870,forced_choiceRT_color,2021.2.3,Win32,60.0240096,,,,,,,,4,Ontime,short,d,1,2.0612,0,0,0,0,1,,,,,
,1.35,,,,,,,,,j,red,5f59418fd49cef17cc2056a0,2021-09-27_14h20.30.870,forced_choiceRT_color,2021.2.3,Win32,60.0240096,,,,,,,,4,Ontime,short,f,0,2.016,0,1,1,2,1,,,,,
,1.39,,,,,,,,,k,purple,5f59418fd49cef17cc2056a0,2021-09-27_14h20.30.870,forced_choiceRT_color,2021.2.3,Win32,60.0240096,,,,,,,,4,Ontime,short,k,1,1.9894,0,2,2,3,1,,,,,
,1.39,,,,,,,,,k,purple,5f59418fd49cef17cc2056a0,2021-09-27_14h20.30.870,forced_choiceRT_color,2021.2.3,Win32,60.0240096,,,,,,,,4,Ontime,short,k,1,1.9199,0,3,3,3,1,,,,,
,1.94,,,,,,,,,j,red,5f59418fd49cef17cc2056a0,2021-09-27_14h20.30.870,forced_choiceRT_color,2021.2.3,Win32,60.0240096,,,,,,,,4,Slow,short,j,1,2.28,1,0,4,2,1,,,,,
,1.46,,,,,,,,,k,purple,5f59418fd49cef17cc2056a0,2021-09-27_14h20.30.870,forced_choiceRT_color,2021.2.3,Win32,60.0240096,,,,,,,,4,Ontime,short,k,1,1.9724,1,1,5,3,1,,,,,
,0.55,,,,,,,,,f,blue,5f59418fd49cef17cc2056a0,2021-09-27_14h20.30.870,forced_choiceRT_color,2021.2.3,Win32,60.0240096,,,,,,,,4,Ontime,short,f,1,1.9364,1,2,6,1,1,,,,,
,0.65,,,,,,,,,d,orange,5f59418fd49cef17cc2056a0,2021-09-27_14h20.30.870,forced_choiceRT_color,2021.2.3,Win32,60.0240096,,,,,,,,4,Ontime,short,d,1,1.9615,1,3,7,0,1,,,,,
,0.32,,,,,,,,,j,red,5f59418fd49cef17cc2056a0,2021-09-27_14h20.30.870,forced_choiceRT_color,2021.2.3,Win32,60.0240096,,,,,,,,4,Ontime,short,j,1,1.9224,2,0,8,2,1,,,,,
,1.73,,,,,,,,,k,purple,5f59418fd49cef17cc2056a0,2021-09-27_14h20.30.870,forced_choiceRT_color,2021.2.3,Win32,60.0240096,,,,,,,,4,Ontime,short,k,1,1.9891,2,1,9,3,1,,,,,
,0.91,,,,,,,,,f,blue,5f59418fd49cef17cc2056a0,2021-09-27_14h20.30.870,forced_choiceRT_color,2021.2.3,Win32,60.0240096,,,,,,,,4,Ontime,short,j,0,1.923,2,2,10,1,1,,,,,
,0.87,,,,,,,,,f,blue,5f59418fd49cef17cc2056a0,2021-09-27_14h20.30.870,forced_choiceRT_color,2021.2.3,Win32,60.0240096,,,,,,,,4,Ontime,short,f,1,1.9383,2,3,11,1,1,,,,,
,1.89,,,,,,,,,f,blue,5f59418fd49cef17cc2056a0,2021-09-27_14h20.30.870,forced_choiceRT_color,2021.2.3,Win32,60.0240096,,,,,,,,4,Ontime,short,d,0,2.0957,3,0,12,1,1,,,,,
,0.01,,,,,,,,,k,purple,5f59418fd49cef17cc2056a0,2021-09-27_14h20.30.870,forced_choiceRT_color,2021.2.3,Win32,60.0240096,,,,,,,,4,Fast,short,j,0,1.8929,3,1,13,3,1,,,,,
,1.21,,,,,,,,,k,purple,5f59418fd49cef17cc2056a0,2021-09-27_14h20.30.870,forced_choiceRT_color,2021.2.3,Win32,60.0240096,,,,,,,,4,Ontime,short,k,1,2.0122,3,2,14,3,1,,,,,
,1.89,,,,,,,,,d,orange,5f59418fd49cef17cc2056a0,2021-09-27_14h20.30.870,forced_choiceRT_color,2021.2.3,Win32,60.0240096,,,,,,,,4,Slow,short,k,0,2.2712,3,3,15,0,1,,,,,
,0.58,,,,,,,,,d,orange,5f59418fd49cef17cc2056a0,2021-09-27_14h20.30.870,forced_choiceRT_color,2021.2.3,Win32,60.0240096,,,,,,,,4,Ontime,short,d,1,1.972,4,0,16,0,1,,,,,
,0.38,,,,,,,,,d,orange,5f59418fd49cef17cc2056a0,2021-09-27_14h20.30.870,forced_choiceRT_color,2021.2.3,Win32,60.0240096,,,,,,,,4,Ontime,short,d,1,1.9366,4,1,17,0,1,,,,,
,0.32,,,,,,,,,k,purple,5f59418fd49cef17cc2056a0,2021-09-27_14h20.30.870,forced_choiceRT_color,2021.2.3,Win32,60.0240096,,,,,,,,4,Ontime,short,k,1,1.9645,4,2,18,3,1,,,,,
,1.55,,,,,,,,,f,blue,5f59418fd49cef17cc2056a0,2021-09-27_14h20.30.870,forced_choiceRT_color,2021.2.3,Win32,60.0240096,,,,,,,,4,Ontime,short,f,1,2.036,4,3,19,1,1,,,,,
,0.77,,,,,,,,,j,red,5f59418fd49cef17cc2056a0,2021-09-27_14h20.30.870,forced_choiceRT_color,2021.2.3,Win32,60.0240096,,,,,,,,4,Ontime,short,j,1,2.0101,5,0,20,2,1,,,,,
,1.09,,,,,,,,,f,blue,5f59418fd49cef17cc2056a0,2021-09-27_14h20.30.870,forced_choiceRT_color,2021.2.3,Win32,60.0240096,,,,,,,,4,Ontime,short,f,1,2.0395,5,1,21,1,1,,,,,
,1.82,,,,,,,,,j,red,5f59418fd49cef17cc2056a0,2021-09-27_14h20.30.870,forced_choiceRT_color,2021.2.3,Win32,60.0240096,,,,,,,,4,Slow,short,j,1,2.2079,5,2,22,2,1,,,,,
,0.74,,,,,,,,,d,orange,5f59418fd49cef17cc2056a0,2021-09-27_14h20.30.870,forced_choiceRT_color,2021.2.3,Win32,60.0240096,,,,,,,,4,Ontime,short,d,1,2.0175,5,3,23,0,1,,,,,
,0.7,,,,,,,,,j,red,5f59418fd49cef17cc2056a0,2021-09-27_14h20.30.870,forced_choiceRT_color,2021.2.3,Win32,60.0240096,,,,,,,,4,Ontime,short,j,1,1.964,6,0,24,2,1,,,,,
,0.74,,,,,,,,,f,blue,5f59418fd49cef17cc2056a0,2021-09-27_14h20.30.870,forced_choiceRT_color,2021.2.3,Win32,60.0240096,,,,,,,,4,Ontime,short,f,1,2.0157,6,1,25,1,1,,,,,
,1.82,,,,,,,,,f,blue,5f59418fd49cef17cc2056a0,2021-09-27_14h20.30.870,forced_choiceRT_color,2021.2.3,Win32,60.0240096,,,,,,,,4,Ontime,short,k,0,2.0972,6,2,26,1,1,,,,,
,1.52,,,,,,,,,f,blue,5f59418fd49cef17cc2056a0,2021-09-27_14h20.30.870,forced_choiceRT_color,2021.2.3,Win32,60.0240096,,,,,,,,4,Ontime,short,j,0,1.9542,6,3,27,1,1,,,,,
,1.26,,,,,,,,,d,orange,5f59418fd49cef17cc2056a0,2021-09-27_14h20.30.870,forced_choiceRT_color,2021.2.3,Win32,60.0240096,,,,,,,,4,Ontime,short,d,1,2.0263,7,0,28,0,1,,,,,
,0.37,,,,,,,,,j,red,5f59418fd49cef17cc2056a0,2021-09-27_14h20.30.870,forced_choiceRT_color,2021.2.3,Win32,60.0240096,,,,,,,,4,Fast,short,j,1,1.871,7,1,29,2,1,,,,,
,1.49,,,,,,,,,k,purple,5f59418fd49cef17cc2056a0,2021-09-27_14h20.30.870,forced_choiceRT_color,2021.2.3,Win32,60.0240096,,,,,,,,4,Ontime,short,k,1,1.9621,7,2,30,3,1,,,,,
,0.44,,,,,,,,,d,orange,5f59418fd49cef17cc2056a0,2021-09-27_14h20.30.870,forced_choiceRT_color,2021.2.3,Win32,60.0240096,,,,,,,,4,Ontime,short,d,1,2.0225,7,3,31,0,1,,,,,
,0.22,,,,,,,,,j,red,5f59418fd49cef17cc2056a0,2021-09-27_14h20.30.870,forced_choiceRT_color,2021.2.3,Win32,60.0240096,,,,,,,,4,Ontime,short,j,1,1.9964,8,0,32,2,1,,,,,
,0.54,,,,,,,,,f,blue,5f59418fd49cef17cc2056a0,2021-09-27_14h20.30.870,forced_choiceRT_color,2021.2.3,Win32,60.0240096,,,,,,,,4,Ontime,short,j,0,1.9537,8,1,33,1,1,,,,,
,0.93,,,,,,,,,k,purple,5f59418fd49cef17cc2056a0,2021-09-27_14h20.30.870,forced_choiceRT_color,2021.2.3,Win32,60.0240096,,,,,,,,4,Ontime,short,f,0,1.9979,8,2,34,3,1,,,,,
,0.56,,,,,,,,,j,red,5f59418fd49cef17cc2056a0,2021-09-27_14h20.30.870,forced_choiceRT_color,2021.2.3,Win32,60.0240096,,,,,,,,4,Ontime,short,j,1,2.0747,8,3,35,2,1,,,,,
,0.71,,,,,,,,,d,orange,5f59418fd49cef17cc2056a0,2021-09-27_14h20.30.870,forced_choiceRT_color,2021.2.3,Win32,60.0240096,,,,,,,,4,Ontime,short,d,1,2.0002,9,0,36,0,1,,,,,
,1.86,,,,,,,,,j,red,5f59418fd49cef17cc2056a0,2021-09-27_14h20.30.870,forced_choiceRT_color,2021.2.3,Win32,60.0240096,,,,,,,,4,Slow,short,k,0,2.1198,9,1,37,2,1,,,,,
,0.71,,,,,,,,,d,orange,5f59418fd49cef17cc2056a0,2021-09-27_14h20.30.870,forced_choiceRT_color,2021.2.3,Win32,60.0240096,,,,,,,,4,Ontime,short,d,1,1.9532,9,2,38,0,1,,,,,
,1.37,,,,,,,,,k,purple,5f59418fd49cef17cc2056a0,2021-09-27_14h20.30.870,forced_choiceRT_color,2021.2.3,Win32,60.0240096,,,,,,,,4,Ontime,short,k,1,1.9924,9,3,39,3,1,,,,,
,,,,,,,,,,,,5f59418fd49cef17cc2056a0,2021-09-27_14h20.30.870,forced_choiceRT_color,2021.2.3,Win32,60.0240096,,,,,,,,,,,,,,,,,,,3,0,3,0,1
,0.7,,,,,,,,,j,red,5f59418fd49cef17cc2056a0,2021-09-27_14h20.30.870,forced_choiceRT_color,2021.2.3,Win32,60.0240096,,,,,,,,5,Ontime,short,j,1,2.0799,0,0,0,2,1,,,,,
,0.83,,,,,,,,,k,purple,5f59418fd49cef17cc2056a0,2021-09-27_14h20.30.870,forced_choiceRT_color,2021.2.3,Win32,60.0240096,,,,,,,,5,Ontime,short,k,1,1.984,0,1,1,3,1,,,,,
,1.58,,,,,,,,,k,purple,5f59418fd49cef17cc2056a0,2021-09-27_14h20.30.870,forced_choiceRT_color,2021.2.3,Win32,60.0240096,,,,,,,,5,Ontime,short,j,0,2.066,0,2,2,3,1,,,,,
,1.15,,,,,,,,,f,blue,5f59418fd49cef17cc2056a0,2021-09-27_14h20.30.870,forced_choiceRT_color,2021.2.3,Win32,60.0240096,,,,,,,,5,Ontime,short,f,1,2.0372,0,3,3,1,1,,,,,
,0.63,,,,,,,,,d,orange,5f59418fd49cef17cc2056a0,2021-09-27_14h20.30.870,forced_choiceRT_color,2021.2.3,Win32,60.0240096,,,,,,,,5,Ontime,short,d,1,1.9891,1,0,4,0,1,,,,,
,1.49,,,,,,,,,f,blue,5f59418fd49cef17cc2056a0,2021-09-27_14h20.30.870,forced_choiceRT_color,2021.2.3,Win32,60.0240096,,,,,,,,5,Ontime,short,j,0,1.9972,1,1,5,1,1,,,,,
,0.56,,,,,,,,,k,purple,5f59418fd49cef17cc2056a0,2021-09-27_14h20.30.870,forced_choiceRT_color,2021.2.3,Win32,60.0240096,,,,,,,,5,Ontime,short,k,1,2.0047,1,2,6,3,1,,,,,
,0.76,,,,,,,,,k,purple,5f59418fd49cef17cc2056a0,2021-09-27_14h20.30.870,forced_choiceRT_color,2021.2.3,Win32,60.0240096,,,,,,,,5,Ontime,short,k,1,2.0193,1,3,7,3,1,,,,,
,1.38,,,,,,,,,k,purple,5f59418fd49cef17cc2056a0,2021-09-27_14h20.30.870,forced_choiceRT_color,2021.2.3,Win32,60.0240096,,,,,,,,5,Ontime,short,k,1,1.9605,2,0,8,3,1,,,,,
,1.73,,,,,,,,,j,red,5f59418fd49cef17cc2056a0,2021-09-27_14h20.30.870,forced_choiceRT_color,2021.2.3,Win32,60.0240096,,,,,,,,5,Slow,short,j,1,2.1904,2,1,9,2,1,,,,,
,1.33,,,,,,,,,j,red,5f59418fd49cef17cc2056a0,2021-09-27_14h20.30.870,forced_choiceRT_color,2021.2.3,Win32,60.0240096,,,,,,,,5,Fast,short,j,1,1.8228,2,2,10,2,1,,,,,
,0.61,,,,,,,,,d,orange,5f59418fd49cef17cc2056a0,2021-09-27_14h20.30.870,forced_choiceRT_color,2021.2.3,Win32,60.0240096,,,,,,,,5,Ontime,short,d,1,2.0024,2,3,11,0,1,,,,,
,1.62,,,,,,,,,j,red,5f59418fd49cef17cc2056a0,2021-09-27_14h20.30.870,forced_choiceRT_color,2021.2.3,Win32,60.0240096,,,,,,,,5,Slow,short,j,1,2.2453,3,0,12,2,1,,,,,
,0.37,,,,,,,,,k,purple,5f59418fd49cef17cc2056a0,2021-09-27_14h20.30.870,forced_choiceRT_color,2021.2.3,Win32,60.0240096,,,,,,,,5,Fast,short,j,0,0.1884,3,1,13,3,1,,,,,
,1.82,,,,,,,,,d,orange,5f59418fd49cef17cc2056a0,2021-09-27_14h20.30.870,forced_choiceRT_color,2021.2.3,Win32,60.0240096,,,,,,,,5,Slow,short,k,0,2.2306,3,2,14,0,1,,,,,
,0.05,,,,,,,,,j,red,5f59418fd49cef17cc2056a0,2021-09-27_14h20.30.870,forced_choiceRT_color,2021.2.3,Win32,60.0240096,,,,,,,,5,Ontime,short,j,1,1.9964,3,3,15,2,1,,,,,
,1.19,,,,,,,,,f,blue,5f59418fd49cef17cc2056a0,2021-09-27_14h20.30.870,forced_choiceRT_color,2021.2.3,Win32,60.0240096,,,,,,,,5,Slow,short,j,0,2.1038,4,0,16,1,1,,,,,
,1.11,,,,,,,,,d,orange,5f59418fd49cef17cc2056a0,2021-09-27_14h20.30.870,forced_choiceRT_color,2021.2.3,Win32,60.0240096,,,,,,,,5,Ontime,short,d,1,2.0321,4,1,17,0,1,,,,,
,1.03,,,,,,,,,k,purple,5f59418fd49cef17cc2056a0,2021-09-27_14h20.30.870,forced_choiceRT_color,2021.2.3,Win32,60.0240096,,,,,,,,5,Ontime,short,k,1,2.0368,4,2,18,3,1,,,,,
,1.82,,,,,,,,,j,red,5f59418fd49cef17cc2056a0,2021-09-27_14h20.30.870,forced_choiceRT_color,2021.2.3,Win32,60.0240096,,,,,,,,5,Slow,short,k,0,2.405,4,3,19,2,1,,,,,
,0.35,,,,,,,,,f,blue,5f59418fd49cef17cc2056a0,2021-09-27_14h20.30.870,forced_choiceRT_color,2021.2.3,Win32,60.0240096,,,,,,,,5,Ontime,short,j,0,1.9642,5,0,20,1,1,,,,,
,0.11,,,,,,,,,j,red,5f59418fd49cef17cc2056a0,2021-09-27_14h20.30.870,forced_choiceRT_color,2021.2.3,Win32,60.0240096,,,,,,,,5,Ontime,short,j,1,2.0192,5,1,21,2,1,,,,,
,0.69,,,,,,,,,f,blue,5f59418fd49cef17cc2056a0,2021-09-27_14h20.30.870,forced_choiceRT_color,2021.2.3,Win32,60.0240096,,,,,,,,5,Ontime,short,f,1,1.969,5,2,22,1,1,,,,,
,1.14,,,,,,,,,d,orange,5f59418fd49cef17cc2056a0,2021-09-27_14h20.30.870,forced_choiceRT_color,2021.2.3,Win32,60.0240096,,,,,,,,5,Ontime,short,d,1,2.0304,5,3,23,0,1,,,,,
,1.27,,,,,,,,,j,red,5f59418fd49cef17cc2056a0,2021-09-27_14h20.30.870,forced_choiceRT_color,2021.2.3,Win32,60.0240096,,,,,,,,5,Ontime,short,k,0,1.9944,6,0,24,2,1,,,,,
,0.43,,,,,,,,,k,purple,5f59418fd49cef17cc2056a0,2021-09-27_14h20.30.870,forced_choiceRT_color,2021.2.3,Win32,60.0240096,,,,,,,,5,Ontime,short,k,1,1.9861,6,1,25,3,1,,,,,
,0.63,,,,,,,,,k,purple,5f59418fd49cef17cc2056a0,2021-09-27_14h20.30.870,forced_choiceRT_color,2021.2.3,Win32,60.0240096,,,,,,,,5,Ontime,short,k,1,1.9766,6,2,26,3,1,,,,,
,0.55,,,,,,,,,k,purple,5f59418fd49cef17cc2056a0,2021-09-27_14h20.30.870,forced_choiceRT_color,2021.2.3,Win32,60.0240096,,,,,,,,5,Fast,short,k,1,0.0782,6,3,27,3,1,,,,,
,0.76,,,,,,,,,f,blue,5f59418fd49cef17cc2056a0,2021-09-27_14h20.30.870,forced_choiceRT_color,2021.2.3,Win32,60.0240096,,,,,,,,5,Ontime,short,f,1,1.9576,7,0,28,1,1,,,,,
,1.68,,,,,,,,,d,orange,5f59418fd49cef17cc2056a0,2021-09-27_14h20.30.870,forced_choiceRT_color,2021.2.3,Win32,60.0240096,,,,,,,,5,Ontime,short,f,0,2.0626,7,1,29,0,1,,,,,
,1.33,,,,,,,,,j,red,5f59418fd49cef17cc2056a0,2021-09-27_14h20.30.870,forced_choiceRT_color,2021.2.3,Win32,60.0240096,,,,,,,,5,Fast,short,j,1,0.1004,7,2,30,2,1,,,,,
,1.18,,,,,,,,,f,blue,5f59418fd49cef17cc2056a0,2021-09-27_14h20.30.870,forced_choiceRT_color,2021.2.3,Win32,60.0240096,,,,,,,,5,Ontime,short,f,1,2.0689,7,3,31,1,1,,,,,
,0.04,,,,,,,,,d,orange,5f59418fd49cef17cc2056a0,2021-09-27_14h20.30.870,forced_choiceRT_color,2021.2.3,Win32,60.0240096,,,,,,,,5,Ontime,short,d,1,1.9545,8,0,32,0,1,,,,,
,1.82,,,,,,,,,f,blue,5f59418fd49cef17cc2056a0,2021-09-27_14h20.30.870,forced_choiceRT_color,2021.2.3,Win32,60.0240096,,,,,,,,5,Slow,short,k,0,2.2344,8,1,33,1,1,,,,,
,0.22,,,,,,,,,j,red,5f59418fd49cef17cc2056a0,2021-09-27_14h20.30.870,forced_choiceRT_color,2021.2.3,Win32,60.0240096,,,,,,,,5,Ontime,short,j,1,2.019,8,2,34,2,1,,,,,
,1.8,,,,,,,,,d,orange,5f59418fd49cef17cc2056a0,2021-09-27_14h20.30.870,forced_choiceRT_color,2021.2.3,Win32,60.0240096,,,,,,,,5,Slow,short,f,0,2.11,8,3,35,0,1,,,,,
,0.98,,,,,,,,,f,blue,5f59418fd49cef17cc2056a0,2021-09-27_14h20.30.870,forced_choiceRT_color,2021.2.3,Win32,60.0240096,,,,,,,,5,Ontime,short,j,0,2.038,9,0,36,1,1,,,,,
,0.92,,,,,,,,,d,orange,5f59418fd49cef17cc2056a0,2021-09-27_14h20.30.870,forced_choiceRT_color,2021.2.3,Win32,60.0240096,,,,,,,,5,Ontime,short,d,1,2.0541,9,1,37,0,1,,,,,
,0.99,,,,,,,,,d,orange,5f59418fd49cef17cc2056a0,2021-09-27_14h20.30.870,forced_choiceRT_color,2021.2.3,Win32,60.0240096,,,,,,,,5,Ontime,short,d,1,2.0371,9,2,38,0,1,,,,,
,1.86,,,,,,,,,f,blue,5f59418fd49cef17cc2056a0,2021-09-27_14h20.30.870,forced_choiceRT_color,2021.2.3,Win32,60.0240096,,,,,,,,5,Slow,short,j,0,2.3153,9,3,39,1,1,,,,,
,,,,,,,,,,,,5f59418fd49cef17cc2056a0,2021-09-27_14h20.30.870,forced_choiceRT_color,2021.2.3,Win32,60.0240096,,,,,,,,,,,,,,,,,,,4,0,4,0,1
,1.31,,,,,,,,,f,blue,5f59418fd49cef17cc2056a0,2021-09-27_14h20.30.870,forced_choiceRT_color,2021.2.3,Win32,60.0240096,,,,,,,,6,Ontime,short,f,1,2.0444,0,0,0,1,1,,,,,
,0.96,,,,,,,,,k,purple,5f59418fd49cef17cc2056a0,2021-09-27_14h20.30.870,forced_choiceRT_color,2021.2.3,Win32,60.0240096,,,,,,,,6,Ontime,short,k,1,2.0887,0,1,1,3,1,,,,,
,1.66,,,,,,,,,k,purple,5f59418fd49cef17cc2056a0,2021-09-27_14h20.30.870,forced_choiceRT_color,2021.2.3,Win32,60.0240096,,,,,,,,6,Slow,short,k,1,2.1309,0,2,2,3,1,,,,,
,1.15,,,,,,,,,j,red,5f59418fd49cef17cc2056a0,2021-09-27_14h20.30.870,forced_choiceRT_color,2021.2.3,Win32,60.0240096,,,,,,,,6,Ontime,short,j,1,2.0189,0,3,3,2,1,,,,,
,1.62,,,,,,,,,f,blue,5f59418fd49cef17cc2056a0,2021-09-27_14h20.30.870,forced_choiceRT_color,2021.2.3,Win32,60.0240096,,,,,,,,6,Slow,short,d,0,2.2269,1,0,4,1,1,,,,,
,1.74,,,,,,,,,f,blue,5f59418fd49cef17cc2056a0,2021-09-27_14h20.30.870,forced_choiceRT_color,2021.2.3,Win32,60.0240096,,,,,,,,6,Slow,short,f,1,2.1891,1,1,5,1,1,,,,,
,1.03,,,,,,,,,k,purple,5f59418fd49cef17cc2056a0,2021-09-27_14h20.30.870,forced_choiceRT_color,2021.2.3,Win32,60.0240096,,,,,,,,6,Ontime,short,k,1,1.9591,1,2,6,3,1,,,,,
,0.53,,,,,,,,,d,orange,5f59418fd49cef17cc2056a0,2021-09-27_14h20.30.870,forced_choiceRT_color,2021.2.3,Win32,60.0240096,,,,,,,,6,Ontime,short,d,1,2.0245,1,3,7,0,1,,,,,
,0.43,,,,,,,,,d,orange,5f59418fd49cef17cc2056a0,2021-09-27_14h20.30.870,forced_choiceRT_color,2021.2.3,Win32,60.0240096,,,,,,,,6,Ontime,short,d,1,1.9674,2,0,8,0,1,,,,,
,0.98,,,,,,,,,d,orange,5f59418fd49cef17cc2056a0,2021-09-27_14h20.30.870,forced_choiceRT_color,2021.2.3,Win32,60.0240096,,,,,,,,6,Ontime,short,d,1,1.9529,2,1,9,0,1,,,,,
,0.78,,,,,,,,,k,purple,5f59418fd49cef17cc2056a0,2021-09-27_14h20.30.870,forced_choiceRT_color,2021.2.3,Win32,60.0240096,,,,,,,,6,Ontime,short,k,1,1.945,2,2,10,3,1,,,,,
,1.42,,,,,,,,,d,orange,5f59418fd49cef17cc2056a0,2021-09-27_14h20.30.870,forced_choiceRT_color,2021.2.3,Win32,60.0240096,,,,,,,,6,Ontime,short,f,0,1.9372,2,3,11,0,1,,,,,
,1.32,,,,,,,,,k,purple,5f59418fd49cef17cc2056a0,2021-09-27_14h20.30.870,forced_choiceRT_color,2021.2.3,Win32,60.0240096,,,,,,,,6,Ontime,short,k,1,1.9996,3,0,12,3,1,,,,,
,1.05,,,,,,,,,d,orange,5f59418fd49cef17cc2056a0,2021-09-27_14h20.30.870,forced_choiceRT_color,2021.2.3,Win32,60.0240096,,,,,,,,6,Ontime,short,d,1,1.9046,3,1,13,0,1,,,,,
,1.3,,,,,,,,,f,blue,5f59418fd49cef17cc2056a0,2021-09-27_14h20.30.870,forced_choiceRT_color,2021.2.3,Win32,60.0240096,,,,,,,,6,Ontime,short,f,1,1.987,3,2,14,1,1,,,,,
,0.13,,,,,,,,,k,purple,5f59418fd49cef17cc2056a0,2021-09-27_14h20.30.870,forced_choiceRT_color,2021.2.3,Win32,60.0240096,,,,,,,,6,Ontime,short,k,1,1.9693,3,3,15,3,1,,,,,
,0.91,,,,,,,,,d,orange,5f59418fd49cef17cc2056a0,2021-09-27_14h20.30.870,forced_choiceRT_color,2021.2.3,Win32,60.0240096,,,,,,,,6,Ontime,short,d,1,1.9712,4,0,16,0,1,,,,,
,1.5,,,,,,,,,f,blue,5f59418fd49cef17cc2056a0,2021-09-27_14h20.30.870,forced_choiceRT_color,2021.2.3,Win32,60.0240096,,,,,,,,6,Ontime,short,f,1,2.053,4,1,17,1,1,,,,,
,0.73,,,,,,,,,j,red,5f59418fd49cef17cc2056a0,2021-09-27_14h20.30.870,forced_choiceRT_color,2021.2.3,Win32,60.0240096,,,,,,,,6,Ontime,short,j,1,2.0074,4,2,18,2,1,,,,,
,0.71,,,,,,,,,d,orange,5f59418fd49cef17cc2056a0,2021-09-27_14h20.30.870,forced_choiceRT_color,2021.2.3,Win32,60.0240096,,,,,,,,6,Ontime,short,d,1,1.9662,4,3,19,0,1,,,,,
,0.38,,,,,,,,,f,blue,5f59418fd49cef17cc2056a0,2021-09-27_14h20.30.870,forced_choiceRT_color,2021.2.3,Win32,60.0240096,,,,,,,,6,Ontime,short,f,1,1.9442,5,0,20,1,1,,,,,
,0.25,,,,,,,,,k,purple,5f59418fd49cef17cc2056a0,2021-09-27_14h20.30.870,forced_choiceRT_color,2021.2.3,Win32,60.0240096,,,,,,,,6,Ontime,short,k,1,1.9124,5,1,21,3,1,,,,,
,1.24,,,,,,,,,j,red,5f59418fd49cef17cc2056a0,2021-09-27_14h20.30.870,forced_choiceRT_color,2021.2.3,Win32,60.0240096,,,,,,,,6,Fast,short,j,1,1.7891,5,2,22,2,1,,,,,
,1.6,,,,,,,,,j,red,5f59418fd49cef17cc2056a0,2021-09-27_14h20.30.870,forced_choiceRT_color,2021.2.3,Win32,60.0240096,,,,,,,,6,Ontime,short,j,1,2.0471,5,3,23,2,1,,,,,
,1.44,,,,,,,,,j,red,5f59418fd49cef17cc2056a0,2021-09-27_14h20.30.870,forced_choiceRT_color,2021.2.3,Win32,60.0240096,,,,,,,,6,Ontime,short,j,1,1.9191,6,0,24,2,1,,,,,
,0.53,,,,,,,,,k,purple,5f59418fd49cef17cc2056a0,2021-09-27_14h20.30.870,forced_choiceRT_color,2021.2.3,Win32,60.0240096,,,,,,,,6,Ontime,short,k,1,1.9927,6,1,25,3,1,,,,,
,0.03,,,,,,,,,f,blue,5f59418fd49cef17cc2056a0,2021-09-27_14h20.30.870,forced_choiceRT_color,2021.2.3,Win32,60.0240096,,,,,,,,6,Ontime,short,f,1,2.033,6,2,26,1,1,,,,,
,0.61,,,,,,,,,j,red,5f59418fd49cef17cc2056a0,2021-09-27_14h20.30.870,forced_choiceRT_color,2021.2.3,Win32,60.0240096,,,,,,,,6,Ontime,short,j,1,2.0548,6,3,27,2,1,,,,,
,1.61,,,,,,,,,f,blue,5f59418fd49cef17cc2056a0,2021-09-27_14h20.30.870,forced_choiceRT_color,2021.2.3,Win32,60.0240096,,,,,,,,6,Ontime,short,d,0,2.0526,7,0,28,1,1,,,,,
,1.25,,,,,,,,,j,red,5f59418fd49cef17cc2056a0,2021-09-27_14h20.30.870,forced_choiceRT_color,2021.2.3,Win32,60.0240096,,,,,,,,6,Ontime,short,j,1,2.0925,7,1,29,2,1,,,,,
,0.52,,,,,,,,,f,blue,5f59418fd49cef17cc2056a0,2021-09-27_14h20.30.870,forced_choiceRT_color,2021.2.3,Win32,60.0240096,,,,,,,,6,Ontime,short,f,1,1.9589,7,2,30,1,1,,,,,
,1.57,,,,,,,,,k,purple,5f59418fd49cef17cc2056a0,2021-09-27_14h20.30.870,forced_choiceRT_color,2021.2.3,Win32,60.0240096,,,,,,,,6,Ontime,short,k,1,2.0182,7,3,31,3,1,,,,,
,1.6,,,,,,,,,f,blue,5f59418fd49cef17cc2056a0,2021-09-27_14h20.30.870,forced_choiceRT_color,2021.2.3,Win32,60.0240096,,,,,,,,6,Ontime,short,f,1,2.0525,8,0,32,1,1,,,,,
,0.23,,,,,,,,,j,red,5f59418fd49cef17cc2056a0,2021-09-27_14h20.30.870,forced_choiceRT_color,2021.2.3,Win32,60.0240096,,,,,,,,6,Ontime,short,j,1,1.9617,8,1,33,2,1,,,,,
,1.32,,,,,,,,,k,purple,5f59418fd49cef17cc2056a0,2021-09-27_14h20.30.870,forced_choiceRT_color,2021.2.3,Win32,60.0240096,,,,,,,,6,Fast,short,k,1,1.8862,8,2,34,3,1,,,,,
,1.85,,,,,,,,,d,orange,5f59418fd49cef17cc2056a0,2021-09-27_14h20.30.870,forced_choiceRT_color,2021.2.3,Win32,60.0240096,,,,,,,,6,Slow,short,f,0,2.2569,8,3,35,0,1,,,,,
,0.87,,,,,,,,,j,red,5f59418fd49cef17cc2056a0,2021-09-27_14h20.30.870,forced_choiceRT_color,2021.2.3,Win32,60.0240096,,,,,,,,6,Slow,short,j,1,3.6037,9,0,36,2,1,,,,,
,1.16,,,,,,,,,d,orange,5f59418fd49cef17cc2056a0,2021-09-27_14h20.30.870,forced_choiceRT_color,2021.2.3,Win32,60.0240096,,,,,,,,6,Slow,short,d,1,2.1119,9,1,37,0,1,,,,,
,1.99,,,,,,,,,j,red,5f59418fd49cef17cc2056a0,2021-09-27_14h20.30.870,forced_choiceRT_color,2021.2.3,Win32,60.0240096,,,,,,,,6,Slow,short,j,1,2.5779,9,2,38,2,1,,,,,
,1.67,,,,,,,,,d,orange,5f59418fd49cef17cc2056a0,2021-09-27_14h20.30.870,forced_choiceRT_color,2021.2.3,Win32,60.0240096,,,,,,,,6,Slow,short,d,1,2.3209,9,3,39,0,1,,,,,
,,,,,,,,,,,,5f59418fd49cef17cc2056a0,2021-09-27_14h20.30.870,forced_choiceRT_color,2021.2.3,Win32,60.0240096,,,,,,,,,,,,,,,,,,,5,0,5,0,1
,0.19,,,,,,,,,k,purple,5f59418fd49cef17cc2056a0,2021-09-27_14h20.30.870,forced_choiceRT_color,2021.2.3,Win32,60.0240096,,,,,,,,7,Ontime,short,k,1,2.012,0,0,0,3,1,,,,,
,1.03,,,,,,,,,d,orange,5f59418fd49cef17cc2056a0,2021-09-27_14h20.30.870,forced_choiceRT_color,2021.2.3,Win32,60.0240096,,,,,,,,7,Ontime,short,d,1,2.0661,0,1,1,0,1,,,,,
,0.55,,,,,,,,,f,blue,5f59418fd49cef17cc2056a0,2021-09-27_14h20.30.870,forced_choiceRT_color,2021.2.3,Win32,60.0240096,,,,,,,,7,Ontime,short,f,1,1.9953,0,2,2,1,1,,,,,
,0.14,,,,,,,,,k,purple,5f59418fd49cef17cc2056a0,2021-09-27_14h20.30.870,forced_choiceRT_color,2021.2.3,Win32,60.0240096,,,,,,,,7,Ontime,short,k,1,1.9734,0,3,3,3,1,,,,,
,0.6,,,,,,,,,f,blue,5f59418fd49cef17cc2056a0,2021-09-27_14h20.30.870,forced_choiceRT_color,2021.2.3,Win32,60.0240096,,,,,,,,7,Ontime,short,f,1,1.9406,1,0,4,1,1,,,,,
,0.19,,,,,,,,,j,red,5f59418fd49cef17cc2056a0,2021-09-27_14h20.30.870,forced_choiceRT_color,2021.2.3,Win32,60.0240096,,,,,,,,7,Ontime,short,j,1,1.9653,1,1,5,2,1,,,,,
,1.87,,,,,,,,,k,purple,5f59418fd49cef17cc2056a0,2021-09-27_14h20.30.870,forced_choiceRT_color,2021.2.3,Win32,60.0240096,,,,,,,,7,Slow,short,k,1,2.1754,1,2,6,3,1,,,,,
,0.89,,,,,,,,,j,red,5f59418fd49cef17cc2056a0,2021-09-27_14h20.30.870,forced_choiceRT_color,2021.2.3,Win32,60.0240096,,,,,,,,7,Ontime,short,j,1,1.9703,1,3,7,2,1,,,,,
,1.48,,,,,,,,,j,red,5f59418fd49cef17cc2056a0,2021-09-27_14h20.30.870,forced_choiceRT_color,2021.2.3,Win32,60.0240096,,,,,,,,7,Ontime,short,f,0,1.9949,2,0,8,2,1,,,,,
,0.29,,,,,,,,,d,orange,5f59418fd49cef17cc2056a0,2021-09-27_14h20.30.870,forced_choiceRT_color,2021.2.3,Win32,60.0240096,,,,,,,,7,Fast,short,j,0,0.0179,2,1,9,0,1,,,,,
,0.64,,,,,,,,,k,purple,5f59418fd49cef17cc2056a0,2021-09-27_14h20.30.870,forced_choiceRT_color,2021.2.3,Win32,60.0240096,,,,,,,,7,Ontime,short,k,1,1.9881,2,2,10,3,1,,,,,
,1.61,,,,,,,,,f,blue,5f59418fd49cef17cc2056a0,2021-09-27_14h20.30.870,forced_choiceRT_color,2021.2.3,Win32,60.0240096,,,,,,,,7,Slow,short,f,1,2.1079,2,3,11,1,1,,,,,
,0.15,,,,,,,,,f,blue,5f59418fd49cef17cc2056a0,2021-09-27_14h20.30.870,forced_choiceRT_color,2021.2.3,Win32,60.0240096,,,,,,,,7,Ontime,short,f,1,1.9967,3,0,12,1,1,,,,,
,0.43,,,,,,,,,k,purple,5f59418fd49cef17cc2056a0,2021-09-27_14h20.30.870,forced_choiceRT_color,2021.2.3,Win32,60.0240096,,,,,,,,7,Ontime,short,j,0,2.0222,3,1,13,3,1,,,,,
,1.82,,,,,,,,,d,orange,5f59418fd49cef17cc2056a0,2021-09-27_14h20.30.870,forced_choiceRT_color,2021.2.3,Win32,60.0240096,,,,,,,,7,Slow,short,j,0,2.2475,3,2,14,0,1,,,,,
,1.06,,,,,,,,,j,red,5f59418fd49cef17cc2056a0,2021-09-27_14h20.30.870,forced_choiceRT_color,2021.2.3,Win32,60.0240096,,,,,,,,7,Ontime,short,j,1,2.0496,3,3,15,2,1,,,,,
,1.02,,,,,,,,,f,blue,5f59418fd49cef17cc2056a0,2021-09-27_14h20.30.870,forced_choiceRT_color,2021.2.3,Win32,60.0240096,,,,,,,,7,Ontime,short,f,1,1.9888,4,0,16,1,1,,,,,
,0.49,,,,,,,,,d,orange,5f59418fd49cef17cc2056a0,2021-09-27_14h20.30.870,forced_choiceRT_color,2021.2.3,Win32,60.0240096,,,,,,,,7,Ontime,short,d,1,1.9936,4,1,17,0,1,,,,,
,1.28,,,,,,,,,d,orange,5f59418fd49cef17cc2056a0,2021-09-27_14h20.30.870,forced_choiceRT_color,2021.2.3,Win32,60.0240096,,,,,,,,7,Ontime,short,d,1,2.0424,4,2,18,0,1,,,,,
,1.58,,,,,,,,,j,red,5f59418fd49cef17cc2056a0,2021-09-27_14h20.30.870,forced_choiceRT_color,2021.2.3,Win32,60.0240096,,,,,,,,7,Ontime,short,j,1,2.0833,4,3,19,2,1,,,,,
,1.32,,,,,,,,,f,blue,5f59418fd49cef17cc2056a0,2021-09-27_14h20.30.870,forced_choiceRT_color,2021.2.3,Win32,60.0240096,,,,,,,,7,Ontime,short,f,1,2.0502,5,0,20,1,1,,,,,
,1.81,,,,,,,,,k,purple,5f59418fd49cef17cc2056a0,2021-09-27_14h20.30.870,forced_choiceRT_color,2021.2.3,Win32,60.0240096,,,,,,,,7,Slow,short,k,1,2.3108,5,1,21,3,1,,,,,
,0.63,,,,,,,,,d,orange,5f59418fd49cef17cc2056a0,2021-09-27_14h20.30.870,forced_choiceRT_color,2021.2.3,Win32,60.0240096,,,,,,,,7,Ontime,short,d,1,2.0085,5,2,22,0,1,,,,,
,0.52,,,,,,,,,d,orange,5f59418fd49cef17cc2056a0,2021-09-27_14h20.30.870,forced_choiceRT_color,2021.2.3,Win32,60.0240096,,,,,,,,7,Ontime,short,d,1,1.9749,5,3,23,0,1,,,,,
,1.27,,,,,,,,,j,red,5f59418fd49cef17cc2056a0,2021-09-27_14h20.30.870,forced_choiceRT_color,2021.2.3,Win32,60.0240096,,,,,,,,7,Ontime,short,j,1,2.0749,6,0,24,2,1,,,,,
,0.6,,,,,,,,,f,blue,5f59418fd49cef17cc2056a0,2021-09-27_14h20.30.870,forced_choiceRT_color,2021.2.3,Win32,60.0240096,,,,,,,,7,Ontime,short,f,1,2.0027,6,1,25,1,1,,,,,
,0.94,,,,,,,,,d,orange,5f59418fd49cef17cc2056a0,2021-09-27_14h20.30.870,forced_choiceRT_color,2021.2.3,Win32,60.0240096,,,,,,,,7,Ontime,short,d,1,1.9894,6,2,26,0,1,,,,,
,1.98,,,,,,,,,j,red,5f59418fd49cef17cc2056a0,2021-09-27_14h20.30.870,forced_choiceRT_color,2021.2.3,Win32,60.0240096,,,,,,,,7,Slow,short,j,1,2.5349,6,3,27,2,1,,,,,
,0.69,,,,,,,,,j,red,5f59418fd49cef17cc2056a0,2021-09-27_14h20.30.870,forced_choiceRT_color,2021.2.3,Win32,60.0240096,,,,,,,,7,Ontime,short,j,1,2.0188,7,0,28,2,1,,,,,
,0.89,,,,,,,,,k,purple,5f59418fd49cef17cc2056a0,2021-09-27_14h20.30.870,forced_choiceRT_color,2021.2.3,Win32,60.0240096,,,,,,,,7,Ontime,short,k,1,2.0202,7,1,29,3,1,,,,,
,1.58,,,,,,,,,j,red,5f59418fd49cef17cc2056a0,2021-09-27_14h20.30.870,forced_choiceRT_color,2021.2.3,Win32,60.0240096,,,,,,,,7,Ontime,short,j,1,2.0878,7,2,30,2,1,,,,,
,1.81,,,,,,,,,k,purple,5f59418fd49cef17cc2056a0,2021-09-27_14h20.30.870,forced_choiceRT_color,2021.2.3,Win32,60.0240096,,,,,,,,7,Slow,short,k,1,2.2092,7,3,31,3,1,,,,,
,0.13,,,,,,,,,f,blue,5f59418fd49cef17cc2056a0,2021-09-27_14h20.30.870,forced_choiceRT_color,2021.2.3,Win32,60.0240096,,,,,,,,7,Ontime,short,f,1,1.9701,8,0,32,1,1,,,,,
,1.41,,,,,,,,,k,purple,5f59418fd49cef17cc2056a0,2021-09-27_14h20.30.870,forced_choiceRT_color,2021.2.3,Win32,60.0240096,,,,,,,,7,Slow,short,k,1,2.1051,8,1,33,3,1,,,,,
,1.63,,,,,,,,,f,blue,5f59418fd49cef17cc2056a0,2021-09-27_14h20.30.870,forced_choiceRT_color,2021.2.3,Win32,60.0240096,,,,,,,,7,Ontime,short,j,0,2.0689,8,2,34,1,1,,,,,
,0.29,,,,,,,,,k,purple,5f59418fd49cef17cc2056a0,2021-09-27_14h20.30.870,forced_choiceRT_color,2021.2.3,Win32,60.0240096,,,,,,,,7,Ontime,short,k,1,1.9613,8,3,35,3,1,,,,,
,1.82,,,,,,,,,j,red,5f59418fd49cef17cc2056a0,2021-09-27_14h20.30.870,forced_choiceRT_color,2021.2.3,Win32,60.0240096,,,,,,,,7,Slow,short,j,1,2.1071,9,0,36,2,1,,,,,
,1.21,,,,,,,,,d,orange,5f59418fd49cef17cc2056a0,2021-09-27_14h20.30.870,forced_choiceRT_color,2021.2.3,Win32,60.0240096,,,,,,,,7,Ontime,short,d,1,2.0486,9,1,37,0,1,,,,,
,0.93,,,,,,,,,d,orange,5f59418fd49cef17cc2056a0,2021-09-27_14h20.30.870,forced_choiceRT_color,2021.2.3,Win32,60.0240096,,,,,,,,7,Ontime,short,d,1,2.087,9,2,38,0,1,,,,,
,1.52,,,,,,,,,f,blue,5f59418fd49cef17cc2056a0,2021-09-27_14h20.30.870,forced_choiceRT_color,2021.2.3,Win32,60.0240096,,,,,,,,7,Ontime,short,f,1,2.0308,9,3,39,1,1,,,,,
,,,,,,,,,,,,5f59418fd49cef17cc2056a0,2021-09-27_14h20.30.870,forced_choiceRT_color,2021.2.3,Win32,60.0240096,,,,,,,,,,,,,,,,,,,6,0,6,0,1
,0.7,,,,,,,,,j,red,5f59418fd49cef17cc2056a0,2021-09-27_14h20.30.870,forced_choiceRT_color,2021.2.3,Win32,60.0240096,,,,,,,,8,Fast,short,f,0,0.0112,0,0,0,2,1,,,,,
,0.09,,,,,,,,,j,red,5f59418fd49cef17cc2056a0,2021-09-27_14h20.30.870,forced_choiceRT_color,2021.2.3,Win32,60.0240096,,,,,,,,8,Ontime,short,j,1,2.0897,0,1,1,2,1,,,,,
,0.04,,,,,,,,,k,purple,5f59418fd49cef17cc2056a0,2021-09-27_14h20.30.870,forced_choiceRT_color,2021.2.3,Win32,60.0240096,,,,,,,,8,Ontime,short,k,1,2.0513,0,2,2,3,1,,,,,
,1.76,,,,,,,,,d,orange,5f59418fd49cef17cc2056a0,2021-09-27_14h20.30.870,forced_choiceRT_color,2021.2.3,Win32,60.0240096,,,,,,,,8,Ontime,short,j,0,2.056,0,3,3,0,1,,,,,
,1.82,,,,,,,,,f,blue,5f59418fd49cef17cc2056a0,2021-09-27_14h20.30.870,forced_choiceRT_color,2021.2.3,Win32,60.0240096,,,,,,,,8,Slow,short,j,0,2.2033,1,0,4,1,1,,,,,
,1.06,,,,,,,,,d,orange,5f59418fd49cef17cc2056a0,2021-09-27_14h20.30.870,forced_choiceRT_color,2021.2.3,Win32,60.0240096,,,,,,,,8,Ontime,short,d,1,1.9564,1,1,5,0,1,,,,,
,1.8,,,,,,,,,k,purple,5f59418fd49cef17cc2056a0,2021-09-27_14h20.30.870,forced_choiceRT_color,2021.2.3,Win32,60.0240096,,,,,,,,8,Ontime,short,j,0,2.0713,1,2,6,3,1,,,,,
,0.72,,,,,,,,,d,orange,5f59418fd49cef17cc2056a0,2021-09-27_14h20.30.870,forced_choiceRT_color,2021.2.3,Win32,60.0240096,,,,,,,,8,Ontime,short,d,1,1.9542,1,3,7,0,1,,,,,
,1.3,,,,,,,,,j,red,5f59418fd49cef17cc2056a0,2021-09-27_14h20.30.870,forced_choiceRT_color,2021.2.3,Win32,60.0240096,,,,,,,,8,Fast,short,j,1,1.898,2,0,8,2,1,,,,,
,0.06,,,,,,,,,d,orange,5f59418fd49cef17cc2056a0,2021-09-27_14h20.30.870,forced_choiceRT_color,2021.2.3,Win32,60.0240096,,,,,,,,8,Fast,short,d,1,1.8747,2,1,9,0,1,,,,,
,1.73,,,,,,,,,k,purple,5f59418fd49cef17cc2056a0,2021-09-27_14h20.30.870,forced_choiceRT_color,2021.2.3,Win32,60.0240096,,,,,,,,8,Slow,short,j,0,2.1161,2,2,10,3,1,,,,,
,1.06,,,,,,,,,f,blue,5f59418fd49cef17cc2056a0,2021-09-27_14h20.30.870,forced_choiceRT_color,2021.2.3,Win32,60.0240096,,,,,,,,8,Slow,short,j,0,2.1194,2,3,11,1,1,,,,,
,1.28,,,,,,,,,k,purple,5f59418fd49cef17cc2056a0,2021-09-27_14h20.30.870,forced_choiceRT_color,2021.2.3,Win32,60.0240096,,,,,,,,8,Ontime,short,k,1,2.0506,3,0,12,3,1,,,,,
,1.14,,,,,,,,,j,red,5f59418fd49cef17cc2056a0,2021-09-27_14h20.30.870,forced_choiceRT_color,2021.2.3,Win32,60.0240096,,,,,,,,8,Ontime,short,j,1,2.0604,3,1,13,2,1,,,,,
,1.33,,,,,,,,,j,red,5f59418fd49cef17cc2056a0,2021-09-27_14h20.30.870,forced_choiceRT_color,2021.2.3,Win32,60.0240096,,,,,,,,8,Ontime,short,j,1,2.0009,3,2,14,2,1,,,,,
,1.75,,,,,,,,,k,purple,5f59418fd49cef17cc2056a0,2021-09-27_14h20.30.870,forced_choiceRT_color,2021.2.3,Win32,60.0240096,,,,,,,,8,Ontime,short,j,0,2.0464,3,3,15,3,1,,,,,
,0.94,,,,,,,,,j,red,5f59418fd49cef17cc2056a0,2021-09-27_14h20.30.870,forced_choiceRT_color,2021.2.3,Win32,60.0240096,,,,,,,,8,Ontime,short,j,1,2.0876,4,0,16,2,1,,,,,
,0,,,,,,,,,k,purple,5f59418fd49cef17cc2056a0,2021-09-27_14h20.30.870,forced_choiceRT_color,2021.2.3,Win32,60.0240096,,,,,,,,8,Ontime,short,k,1,1.9539,4,1,17,3,1,,,,,
,0.79,,,,,,,,,d,orange,5f59418fd49cef17cc2056a0,2021-09-27_14h20.30.870,forced_choiceRT_color,2021.2.3,Win32,60.0240096,,,,,,,,8,Ontime,short,d,1,1.9653,4,2,18,0,1,,,,,
,1.74,,,,,,,,,j,red,5f59418fd49cef17cc2056a0,2021-09-27_14h20.30.870,forced_choiceRT_color,2021.2.3,Win32,60.0240096,,,,,,,,8,Ontime,short,f,0,1.9647,4,3,19,2,1,,,,,
,0.82,,,,,,,,,f,blue,5f59418fd49cef17cc2056a0,2021-09-27_14h20.30.870,forced_choiceRT_color,2021.2.3,Win32,60.0240096,,,,,,,,8,Ontime,short,f,1,2.0035,5,0,20,1,1,,,,,
,1.58,,,,,,,,,k,purple,5f59418fd49cef17cc2056a0,2021-09-27_14h20.30.870,forced_choiceRT_color,2021.2.3,Win32,60.0240096,,,,,,,,8,Ontime,short,k,1,2.0015,5,1,21,3,1,,,,,
,1.83,,,,,,,,,j,red,5f59418fd49cef17cc2056a0,2021-09-27_14h20.30.870,forced_choiceRT_color,2021.2.3,Win32,60.0240096,,,,,,,,8,Ontime,short,j,1,2.0294,5,2,22,2,1,,,,,
,0.93,,,,,,,,,d,orange,5f59418fd49cef17cc2056a0,2021-09-27_14h20.30.870,forced_choiceRT_color,2021.2.3,Win32,60.0240096,,,,,,,,8,Fast,short,j,0,0.384,5,3,23,0,1,,,,,
,0.33,,,,,,,,,d,orange,5f59418fd49cef17cc2056a0,2021-09-27_14h20.30.870,forced_choiceRT_color,2021.2.3,Win32,60.0240096,,,,,,,,8,Ontime,short,d,1,2.0163,6,0,24,0,1,,,,,
,0.02,,,,,,,,,f,blue,5f59418fd49cef17cc2056a0,2021-09-27_14h20.30.870,forced_choiceRT_color,2021.2.3,Win32,60.0240096,,,,,,,,8,Ontime,short,f,1,1.9684,6,1,25,1,1,,,,,
,0.1,,,,,,,,,f,blue,5f59418fd49cef17cc2056a0,2021-09-27_14h20.30.870,forced_choiceRT_color,2021.2.3,Win32,60.0240096,,,,,,,,8,Ontime,short,f,1,1.9359,6,2,26,1,1,,,,,
,0.12,,,,,,,,,k,purple,5f59418fd49cef17cc2056a0,2021-09-27_14h20.30.870,forced_choiceRT_color,2021.2.3,Win32,60.0240096,,,,,,,,8,Fast,short,k,1,1.852,6,3,27,3,1,,,,,
,0.99,,,,,,,,,f,blue,5f59418fd49cef17cc2056a0,2021-09-27_14h20.30.870,forced_choiceRT_color,2021.2.3,Win32,60.0240096,,,,,,,,8,Ontime,short,f,1,2.0661,7,0,28,1,1,,,,,
,0.33,,,,,,,,,j,red,5f59418fd49cef17cc2056a0,2021-09-27_14h20.30.870,forced_choiceRT_color,2021.2.3,Win32,60.0240096,,,,,,,,8,Ontime,short,j,1,2.0291,7,1,29,2,1,,,,,
,1.71,,,,,,,,,k,purple,5f59418fd49cef17cc2056a0,2021-09-27_14h20.30.870,forced_choiceRT_color,2021.2.3,Win32,60.0240096,,,,,,,,8,Slow,short,k,1,2.2071,7,2,30,3,1,,,,,
,1.85,,,,,,,,,f,blue,5f59418fd49cef17cc2056a0,2021-09-27_14h20.30.870,forced_choiceRT_color,2021.2.3,Win32,60.0240096,,,,,,,,8,Slow,short,j,0,2.2423,7,3,31,1,1,,,,,
,1.38,,,,,,,,,j,red,5f59418fd49cef17cc2056a0,2021-09-27_14h20.30.870,forced_choiceRT_color,2021.2.3,Win32,60.0240096,,,,,,,,8,Ontime,short,j,1,2.0692,8,0,32,2,1,,,,,
,1.29,,,,,,,,,k,purple,5f59418fd49cef17cc2056a0,2021-09-27_14h20.30.870,forced_choiceRT_color,2021.2.3,Win32,60.0240096,,,,,,,,8,Slow,short,k,1,2.125,8,1,33,3,1,,,,,
,1.71,,,,,,,,,d,orange,5f59418fd49cef17cc2056a0,2021-09-27_14h20.30.870,forced_choiceRT_color,2021.2.3,Win32,60.0240096,,,,,,,,8,Ontime,short,j,0,2.0651,8,2,34,0,1,,,,,
,1.92,,,,,,,,,f,blue,5f59418fd49cef17cc2056a0,2021-09-27_14h20.30.870,forced_choiceRT_color,2021.2.3,Win32,60.0240096,,,,,,,,8,Slow,short,d,0,2.1481,8,3,35,1,1,,,,,
,1.87,,,,,,,,,f,blue,5f59418fd49cef17cc2056a0,2021-09-27_14h20.30.870,forced_choiceRT_color,2021.2.3,Win32,60.0240096,,,,,,,,8,Ontime,short,f,1,2.0379,9,0,36,1,1,,,,,
,1.6,,,,,,,,,d,orange,5f59418fd49cef17cc2056a0,2021-09-27_14h20.30.870,forced_choiceRT_color,2021.2.3,Win32,60.0240096,,,,,,,,8,Slow,short,f,0,2.2036,9,1,37,0,1,,,,,
,1.15,,,,,,,,,f,blue,5f59418fd49cef17cc2056a0,2021-09-27_14h20.30.870,forced_choiceRT_color,2021.2.3,Win32,60.0240096,,,,,,,,8,Slow,short,f,1,2.1065,9,2,38,1,1,,,,,
,1.27,,,,,,,,,d,orange,5f59418fd49cef17cc2056a0,2021-09-27_14h20.30.870,forced_choiceRT_color,2021.2.3,Win32,60.0240096,,,,,,,,8,Fast,short,d,1,1.8776,9,3,39,0,1,,,,,
,,,,,,,,,,,,5f59418fd49cef17cc2056a0,2021-09-27_14h20.30.870,forced_choiceRT_color,2021.2.3,Win32,60.0240096,,,,,,,,,,,,,,,,,,,7,0,7,0,1
,0.68,,,,,,,,,j,red,5f59418fd49cef17cc2056a0,2021-09-27_14h20.30.870,forced_choiceRT_color,2021.2.3,Win32,60.0240096,,,,,,,,9,Ontime,short,j,1,2.0358,0,0,0,2,1,,,,,
,1.15,,,,,,,,,f,blue,5f59418fd49cef17cc2056a0,2021-09-27_14h20.30.870,forced_choiceRT_color,2021.2.3,Win32,60.0240096,,,,,,,,9,Ontime,short,f,1,2.0255,0,1,1,1,1,,,,,
,0.1,,,,,,,,,d,orange,5f59418fd49cef17cc2056a0,2021-09-27_14h20.30.870,forced_choiceRT_color,2021.2.3,Win32,60.0240096,,,,,,,,9,Ontime,short,d,1,1.9559,0,2,2,0,1,,,,,
,0.98,,,,,,,,,f,blue,5f59418fd49cef17cc2056a0,2021-09-27_14h20.30.870,forced_choiceRT_color,2021.2.3,Win32,60.0240096,,,,,,,,9,Ontime,short,f,1,2.0642,0,3,3,1,1,,,,,
,0.87,,,,,,,,,k,purple,5f59418fd49cef17cc2056a0,2021-09-27_14h20.30.870,forced_choiceRT_color,2021.2.3,Win32,60.0240096,,,,,,,,9,Ontime,short,k,1,1.9604,1,0,4,3,1,,,,,
,0.49,,,,,,,,,d,orange,5f59418fd49cef17cc2056a0,2021-09-27_14h20.30.870,forced_choiceRT_color,2021.2.3,Win32,60.0240096,,,,,,,,9,Ontime,short,d,1,1.9636,1,1,5,0,1,,,,,
,0.23,,,,,,,,,f,blue,5f59418fd49cef17cc2056a0,2021-09-27_14h20.30.870,forced_choiceRT_color,2021.2.3,Win32,60.0240096,,,,,,,,9,Ontime,short,j,0,2.0049,1,2,6,1,1,,,,,
,1.09,,,,,,,,,j,red,5f59418fd49cef17cc2056a0,2021-09-27_14h20.30.870,forced_choiceRT_color,2021.2.3,Win32,60.0240096,,,,,,,,9,Ontime,short,j,1,1.9738,1,3,7,2,1,,,,,
,0,,,,,,,,,d,orange,5f59418fd49cef17cc2056a0,2021-09-27_14h20.30.870,forced_choiceRT_color,2021.2.3,Win32,60.0240096,,,,,,,,9,Ontime,short,d,1,1.9329,2,0,8,0,1,,,,,
,1.1,,,,,,,,,k,purple,5f59418fd49cef17cc2056a0,2021-09-27_14h20.30.870,forced_choiceRT_color,2021.2.3,Win32,60.0240096,,,,,,,,9,Ontime,short,k,1,2.0583,2,1,9,3,1,,,,,
,1.13,,,,,,,,,k,purple,5f59418fd49cef17cc2056a0,2021-09-27_14h20.30.870,forced_choiceRT_color,2021.2.3,Win32,60.0240096,,,,,,,,9,Ontime,short,k,1,1.9915,2,2,10,3,1,,,,,
,0.24,,,,,,,,,d,orange,5f59418fd49cef17cc2056a0,2021-09-27_14h20.30.870,forced_choiceRT_color,2021.2.3,Win32,60.0240096,,,,,,,,9,Ontime,short,d,1,1.9151,2,3,11,0,1,,,,,
,1.54,,,,,,,,,j,red,5f59418fd49cef17cc2056a0,2021-09-27_14h20.30.870,forced_choiceRT_color,2021.2.3,Win32,60.0240096,,,,,,,,9,Slow,short,j,1,2.1568,3,0,12,2,1,,,,,
,1.56,,,,,,,,,d,orange,5f59418fd49cef17cc2056a0,2021-09-27_14h20.30.870,forced_choiceRT_color,2021.2.3,Win32,60.0240096,,,,,,,,9,Slow,short,d,1,2.1381,3,1,13,0,1,,,,,
,1.36,,,,,,,,,j,red,5f59418fd49cef17cc2056a0,2021-09-27_14h20.30.870,forced_choiceRT_color,2021.2.3,Win32,60.0240096,,,,,,,,9,Ontime,short,j,1,2.0748,3,2,14,2,1,,,,,
,1.96,,,,,,,,,k,purple,5f59418fd49cef17cc2056a0,2021-09-27_14h20.30.870,forced_choiceRT_color,2021.2.3,Win32,60.0240096,,,,,,,,9,Slow,short,d,0,2.2279,3,3,15,3,1,,,,,
,0.72,,,,,,,,,k,purple,5f59418fd49cef17cc2056a0,2021-09-27_14h20.30.870,forced_choiceRT_color,2021.2.3,Win32,60.0240096,,,,,,,,9,Ontime,short,k,1,2.0004,4,0,16,3,1,,,,,
,0.52,,,,,,,,,d,orange,5f59418fd49cef17cc2056a0,2021-09-27_14h20.30.870,forced_choiceRT_color,2021.2.3,Win32,60.0240096,,,,,,,,9,Ontime,short,d,1,2.0801,4,1,17,0,1,,,,,
,1.76,,,,,,,,,k,purple,5f59418fd49cef17cc2056a0,2021-09-27_14h20.30.870,forced_choiceRT_color,2021.2.3,Win32,60.0240096,,,,,,,,9,Ontime,short,j,0,2.0724,4,2,18,3,1,,,,,
,1.13,,,,,,,,,k,purple,5f59418fd49cef17cc2056a0,2021-09-27_14h20.30.870,forced_choiceRT_color,2021.2.3,Win32,60.0240096,,,,,,,,9,Ontime,short,k,1,2.0206,4,3,19,3,1,,,,,
,1.87,,,,,,,,,d,orange,5f59418fd49cef17cc2056a0,2021-09-27_14h20.30.870,forced_choiceRT_color,2021.2.3,Win32,60.0240096,,,,,,,,9,Slow,short,j,0,2.1264,5,0,20,0,1,,,,,
,1.81,,,,,,,,,d,orange,5f59418fd49cef17cc2056a0,2021-09-27_14h20.30.870,forced_choiceRT_color,2021.2.3,Win32,60.0240096,,,,,,,,9,Ontime,short,d,1,1.9636,5,1,21,0,1,,,,,
,0.07,,,,,,,,,f,blue,5f59418fd49cef17cc2056a0,2021-09-27_14h20.30.870,forced_choiceRT_color,2021.2.3,Win32,60.0240096,,,,,,,,9,Ontime,short,f,1,2.0577,5,2,22,1,1,,,,,
,0.07,,,,,,,,,j,red,5f59418fd49cef17cc2056a0,2021-09-27_14h20.30.870,forced_choiceRT_color,2021.2.3,Win32,60.0240096,,,,,,,,9,Ontime,short,j,1,1.9462,5,3,23,2,1,,,,,
,0.05,,,,,,,,,f,blue,5f59418fd49cef17cc2056a0,2021-09-27_14h20.30.870,forced_choiceRT_color,2021.2.3,Win32,60.0240096,,,,,,,,9,Ontime,short,f,1,1.9184,6,0,24,1,1,,,,,
,1.15,,,,,,,,,j,red,5f59418fd49cef17cc2056a0,2021-09-27_14h20.30.870,forced_choiceRT_color,2021.2.3,Win32,60.0240096,,,,,,,,9,Ontime,short,j,1,2.0192,6,1,25,2,1,,,,,
,0.67,,,,,,,,,f,blue,5f59418fd49cef17cc2056a0,2021-09-27_14h20.30.870,forced_choiceRT_color,2021.2.3,Win32,60.0240096,,,,,,,,9,Ontime,short,f,1,1.9909,6,2,26,1,1,,,,,
,0.69,,,,,,,,,k,purple,5f59418fd49cef17cc2056a0,2021-09-27_14h20.30.870,forced_choiceRT_color,2021.2.3,Win32,60.0240096,,,,,,,,9,Ontime,short,k,1,2.0062,6,3,27,3,1,,,,,
,1.24,,,,,,,,,f,blue,5f59418fd49cef17cc2056a0,2021-09-27_14h20.30.870,forced_choiceRT_color,2021.2.3,Win32,60.0240096,,,,,,,,9,Ontime,short,f,1,2.0452,7,0,28,1,1,,,,,
,1.86,,,,,,,,,j,red,5f59418fd49cef17cc2056a0,2021-09-27_14h20.30.870,forced_choiceRT_color,2021.2.3,Win32,60.0240096,,,,,,,,9,Slow,short,f,0,2.1066,7,1,29,2,1,,,,,
,0.98,,,,,,,,,j,red,5f59418fd49cef17cc2056a0,2021-09-27_14h20.30.870,forced_choiceRT_color,2021.2.3,Win32,60.0240096,,,,,,,,9,Ontime,short,j,1,1.9999,7,2,30,2,1,,,,,
,0.51,,,,,,,,,k,purple,5f59418fd49cef17cc2056a0,2021-09-27_14h20.30.870,forced_choiceRT_color,2021.2.3,Win32,60.0240096,,,,,,,,9,Ontime,short,k,1,1.9585,7,3,31,3,1,,,,,
,1.86,,,,,,,,,j,red,5f59418fd49cef17cc2056a0,2021-09-27_14h20.30.870,forced_choiceRT_color,2021.2.3,Win32,60.0240096,,,,,,,,9,Ontime,short,j,1,2.0031,8,0,32,2,1,,,,,
,0.08,,,,,,,,,f,blue,5f59418fd49cef17cc2056a0,2021-09-27_14h20.30.870,forced_choiceRT_color,2021.2.3,Win32,60.0240096,,,,,,,,9,Ontime,short,f,1,2.0164,8,1,33,1,1,,,,,
,0.12,,,,,,,,,f,blue,5f59418fd49cef17cc2056a0,2021-09-27_14h20.30.870,forced_choiceRT_color,2021.2.3,Win32,60.0240096,,,,,,,,9,Ontime,short,f,1,1.9543,8,2,34,1,1,,,,,
,0.24,,,,,,,,,k,purple,5f59418fd49cef17cc2056a0,2021-09-27_14h20.30.870,forced_choiceRT_color,2021.2.3,Win32,60.0240096,,,,,,,,9,Ontime,short,k,1,1.974,8,3,35,3,1,,,,,
,0.62,,,,,,,,,d,orange,5f59418fd49cef17cc2056a0,2021-09-27_14h20.30.870,forced_choiceRT_color,2021.2.3,Win32,60.0240096,,,,,,,,9,Ontime,short,d,1,2.0223,9,0,36,0,1,,,,,
,1.24,,,,,,,,,d,orange,5f59418fd49cef17cc2056a0,2021-09-27_14h20.30.870,forced_choiceRT_color,2021.2.3,Win32,60.0240096,,,,,,,,9,Ontime,short,d,1,1.9142,9,1,37,0,1,,,,,
,1.45,,,,,,,,,f,blue,5f59418fd49cef17cc2056a0,2021-09-27_14h20.30.870,forced_choiceRT_color,2021.2.3,Win32,60.0240096,,,,,,,,9,Ontime,short,d,0,2.0624,9,2,38,1,1,,,,,
,1.83,,,,,,,,,j,red,5f59418fd49cef17cc2056a0,2021-09-27_14h20.30.870,forced_choiceRT_color,2021.2.3,Win32,60.0240096,,,,,,,,9,Ontime,short,f,0,2.0696,9,3,39,2,1,,,,,
,,,,,,,,,,,,5f59418fd49cef17cc2056a0,2021-09-27_14h20.30.870,forced_choiceRT_color,2021.2.3,Win32,60.0240096,,,,,,,,,,,,,,,,,,,8,0,8,0,1
,1.53,,,,,,,,,f,blue,5f59418fd49cef17cc2056a0,2021-09-27_14h20.30.870,forced_choiceRT_color,2021.2.3,Win32,60.0240096,,,,,,,,10,Ontime,short,f,1,2.0542,0,0,0,1,1,,,,,
,1.36,,,,,,,,,d,orange,5f59418fd49cef17cc2056a0,2021-09-27_14h20.30.870,forced_choiceRT_color,2021.2.3,Win32,60.0240096,,,,,,,,10,Ontime,short,d,1,2.0304,0,1,1,0,1,,,,,
,0.15,,,,,,,,,j,red,5f59418fd49cef17cc2056a0,2021-09-27_14h20.30.870,forced_choiceRT_color,2021.2.3,Win32,60.0240096,,,,,,,,10,Ontime,short,j,1,1.9728,0,2,2,2,1,,,,,
,0.59,,,,,,,,,f,blue,5f59418fd49cef17cc2056a0,2021-09-27_14h20.30.870,forced_choiceRT_color,2021.2.3,Win32,60.0240096,,,,,,,,10,Ontime,short,f,1,1.9486,0,3,3,1,1,,,,,
,1.51,,,,,,,,,k,purple,5f59418fd49cef17cc2056a0,2021-09-27_14h20.30.870,forced_choiceRT_color,2021.2.3,Win32,60.0240096,,,,,,,,10,Ontime,short,k,1,2.0723,1,0,4,3,1,,,,,
,1.28,,,,,,,,,f,blue,5f59418fd49cef17cc2056a0,2021-09-27_14h20.30.870,forced_choiceRT_color,2021.2.3,Win32,60.0240096,,,,,,,,10,Ontime,short,f,1,2.0045,1,1,5,1,1,,,,,
,0.58,,,,,,,,,k,purple,5f59418fd49cef17cc2056a0,2021-09-27_14h20.30.870,forced_choiceRT_color,2021.2.3,Win32,60.0240096,,,,,,,,10,Ontime,short,k,1,2.0227,1,2,6,3,1,,,,,
,1.23,,,,,,,,,d,orange,5f59418fd49cef17cc2056a0,2021-09-27_14h20.30.870,forced_choiceRT_color,2021.2.3,Win32,60.0240096,,,,,,,,10,Ontime,short,d,1,1.9455,1,3,7,0,1,,,,,
,0.32,,,,,,,,,d,orange,5f59418fd49cef17cc2056a0,2021-09-27_14h20.30.870,forced_choiceRT_color,2021.2.3,Win32,60.0240096,,,,,,,,10,Ontime,short,d,1,1.9366,2,0,8,0,1,,,,,
,0.48,,,,,,,,,d,orange,5f59418fd49cef17cc2056a0,2021-09-27_14h20.30.870,forced_choiceRT_color,2021.2.3,Win32,60.0240096,,,,,,,,10,Ontime,short,d,1,1.9698,2,1,9,0,1,,,,,
,0.12,,,,,,,,,d,orange,5f59418fd49cef17cc2056a0,2021-09-27_14h20.30.870,forced_choiceRT_color,2021.2.3,Win32,60.0240096,,,,,,,,10,Ontime,short,d,1,1.9421,2,2,10,0,1,,,,,
,0.01,,,,,,,,,j,red,5f59418fd49cef17cc2056a0,2021-09-27_14h20.30.870,forced_choiceRT_color,2021.2.3,Win32,60.0240096,,,,,,,,10,Ontime,short,j,1,1.9545,2,3,11,2,1,,,,,
,1.44,,,,,,,,,j,red,5f59418fd49cef17cc2056a0,2021-09-27_14h20.30.870,forced_choiceRT_color,2021.2.3,Win32,60.0240096,,,,,,,,10,Fast,short,j,1,1.8868,3,0,12,2,1,,,,,
,1.05,,,,,,,,,j,red,5f59418fd49cef17cc2056a0,2021-09-27_14h20.30.870,forced_choiceRT_color,2021.2.3,Win32,60.0240096,,,,,,,,10,Ontime,short,j,1,2.061,3,1,13,2,1,,,,,
,0,,,,,,,,,j,red,5f59418fd49cef17cc2056a0,2021-09-27_14h20.30.870,forced_choiceRT_color,2021.2.3,Win32,60.0240096,,,,,,,,10,Ontime,short,j,1,2.0371,3,2,14,2,1,,,,,
,1.25,,,,,,,,,f,blue,5f59418fd49cef17cc2056a0,2021-09-27_14h20.30.870,forced_choiceRT_color,2021.2.3,Win32,60.0240096,,,,,,,,10,Ontime,short,f,1,2.0149,3,3,15,1,1,,,,,
,1.04,,,,,,,,,j,red,5f59418fd49cef17cc2056a0,2021-09-27_14h20.30.870,forced_choiceRT_color,2021.2.3,Win32,60.0240096,,,,,,,,10,Ontime,short,j,1,2.0698,4,0,16,2,1,,,,,
,0.31,,,,,,,,,f,blue,5f59418fd49cef17cc2056a0,2021-09-27_14h20.30.870,forced_choiceRT_color,2021.2.3,Win32,60.0240096,,,,,,,,10,Ontime,short,f,1,1.9899,4,1,17,1,1,,,,,
,0.1,,,,,,,,,k,purple,5f59418fd49cef17cc2056a0,2021-09-27_14h20.30.870,forced_choiceRT_color,2021.2.3,Win32,60.0240096,,,,,,,,10,Ontime,short,k,1,1.9834,4,2,18,3,1,,,,,
,0.24,,,,,,,,,k,purple,5f59418fd49cef17cc2056a0,2021-09-27_14h20.30.870,forced_choiceRT_color,2021.2.3,Win32,60.0240096,,,,,,,,10,Ontime,short,k,1,1.9991,4,3,19,3,1,,,,,
,1.72,,,,,,,,,d,orange,5f59418fd49cef17cc2056a0,2021-09-27_14h20.30.870,forced_choiceRT_color,2021.2.3,Win32,60.0240096,,,,,,,,10,Slow,short,f,0,2.2029,5,0,20,0,1,,,,,
,1.61,,,,,,,,,k,purple,5f59418fd49cef17cc2056a0,2021-09-27_14h20.30.870,forced_choiceRT_color,2021.2.3,Win32,60.0240096,,,,,,,,10,Ontime,short,j,0,2.0573,5,1,21,3,1,,,,,
,1.11,,,,,,,,,j,red,5f59418fd49cef17cc2056a0,2021-09-27_14h20.30.870,forced_choiceRT_color,2021.2.3,Win32,60.0240096,,,,,,,,10,Slow,short,d,0,2.1105,5,2,22,2,1,,,,,
,1.89,,,,,,,,,k,purple,5f59418fd49cef17cc2056a0,2021-09-27_14h20.30.870,forced_choiceRT_color,2021.2.3,Win32,60.0240096,,,,,,,,10,Ontime,short,d,0,2.0067,5,3,23,3,1,,,,,
,1.13,,,,,,,,,f,blue,5f59418fd49cef17cc2056a0,2021-09-27_14h20.30.870,forced_choiceRT_color,2021.2.3,Win32,60.0240096,,,,,,,,10,Ontime,short,f,1,1.9858,6,0,24,1,1,,,,,
,1.96,,,,,,,,,d,orange,5f59418fd49cef17cc2056a0,2021-09-27_14h20.30.870,forced_choiceRT_color,2021.2.3,Win32,60.0240096,,,,,,,,10,Slow,short,f,0,2.2038,6,1,25,0,1,,,,,
,0.12,,,,,,,,,j,red,5f59418fd49cef17cc2056a0,2021-09-27_14h20.30.870,forced_choiceRT_color,2021.2.3,Win32,60.0240096,,,,,,,,10,Fast,short,d,0,0.2681,6,2,26,2,1,,,,,
,0.31,,,,,,,,,k,purple,5f59418fd49cef17cc2056a0,2021-09-27_14h20.30.870,forced_choiceRT_color,2021.2.3,Win32,60.0240096,,,,,,,,10,Ontime,short,k,1,2.0207,6,3,27,3,1,,,,,
,1.66,,,,,,,,,j,red,5f59418fd49cef17cc2056a0,2021-09-27_14h20.30.870,forced_choiceRT_color,2021.2.3,Win32,60.0240096,,,,,,,,10,Slow,short,j,1,2.1066,7,0,28,2,1,,,,,
,0.58,,,,,,,,,d,orange,5f59418fd49cef17cc2056a0,2021-09-27_14h20.30.870,forced_choiceRT_color,2021.2.3,Win32,60.0240096,,,,,,,,10,Ontime,short,d,1,1.9553,7,1,29,0,1,,,,,
,1.44,,,,,,,,,d,orange,5f59418fd49cef17cc2056a0,2021-09-27_14h20.30.870,forced_choiceRT_color,2021.2.3,Win32,60.0240096,,,,,,,,10,Ontime,short,d,1,2.0364,7,2,30,0,1,,,,,
,0.31,,,,,,,,,d,orange,5f59418fd49cef17cc2056a0,2021-09-27_14h20.30.870,forced_choiceRT_color,2021.2.3,Win32,60.0240096,,,,,,,,10,Ontime,short,d,1,2.0401,7,3,31,0,1,,,,,
,1.63,,,,,,,,,k,purple,5f59418fd49cef17cc2056a0,2021-09-27_14h20.30.870,forced_choiceRT_color,2021.2.3,Win32,60.0240096,,,,,,,,10,Slow,short,k,1,2.171,8,0,32,3,1,,,,,
,0.23,,,,,,,,,j,red,5f59418fd49cef17cc2056a0,2021-09-27_14h20.30.870,forced_choiceRT_color,2021.2.3,Win32,60.0240096,,,,,,,,10,Ontime,short,j,1,1.9711,8,1,33,2,1,,,,,
,1.54,,,,,,,,,k,purple,5f59418fd49cef17cc2056a0,2021-09-27_14h20.30.870,forced_choiceRT_color,2021.2.3,Win32,60.0240096,,,,,,,,10,Ontime,short,k,1,2.0874,8,2,34,3,1,,,,,
,0.23,,,,,,,,,f,blue,5f59418fd49cef17cc2056a0,2021-09-27_14h20.30.870,forced_choiceRT_color,2021.2.3,Win32,60.0240096,,,,,,,,10,Ontime,short,f,1,1.9925,8,3,35,1,1,,,,,
,0.21,,,,,,,,,f,blue,5f59418fd49cef17cc2056a0,2021-09-27_14h20.30.870,forced_choiceRT_color,2021.2.3,Win32,60.0240096,,,,,,,,10,Ontime,short,f,1,1.9906,9,0,36,1,1,,,,,
,1.28,,,,,,,,,f,blue,5f59418fd49cef17cc2056a0,2021-09-27_14h20.30.870,forced_choiceRT_color,2021.2.3,Win32,60.0240096,,,,,,,,10,Ontime,short,f,1,1.9529,9,1,37,1,1,,,,,
,0.67,,,,,,,,,k,purple,5f59418fd49cef17cc2056a0,2021-09-27_14h20.30.870,forced_choiceRT_color,2021.2.3,Win32,60.0240096,,,,,,,,10,Ontime,short,k,1,1.9848,9,2,38,3,1,,,,,
,0.15,,,,,,,,,f,blue,5f59418fd49cef17cc2056a0,2021-09-27_14h20.30.870,forced_choiceRT_color,2021.2.3,Win32,60.0240096,,,,,,,,10,Ontime,short,f,1,1.9736,9,3,39,1,1,,,,,
,,,,,,,,,,,,5f59418fd49cef17cc2056a0,2021-09-27_14h20.30.870,forced_choiceRT_color,2021.2.3,Win32,60.0240096,,,,,,,,,,,,,,,,,,,9,0,9,0,1
