target_onset,trial_resp_sp.keys,trial_resp_sp.corr,trial_resp_sp.rt,trials_train_loop.thisRepN,trials_train_loop.thisTrialN,trials_train_loop.thisN,trials_train_loop.thisIndex,trials_train_loop.ran,correct_key,color,participant,date,expName,psychopyVersion,OS,frameRate,trial_resp_timing.keys,trial_resp_timing.rt,trials_train_timing.thisRepN,trials_train_timing.thisTrialN,trials_train_timing.thisN,trials_train_timing.thisIndex,trials_train_timing.ran,block_id,ontime,feedback_cond,forcedRT_resp.keys,forcedRT_resp.corr,forcedRT_resp.rt,trials.thisRepN,trials.thisTrialN,trials.thisN,trials.thisIndex,trials.ran,blocks.thisRepN,blocks.thisTrialN,blocks.thisN,blocks.thisIndex,blocks.ran
0,d,1,2.1913,0,0,0,0,1,d,orange,5f99e87c962bbc0cf6dc92d2,2021-09-27_17h13.52.428,forced_choiceRT_color,2021.2.3,MacIntel,59.97361161,,,,,,,,,,,,,,,,,,,,,,,
0,k,1,1.4357,0,1,1,3,1,k,purple,5f99e87c962bbc0cf6dc92d2,2021-09-27_17h13.52.428,forced_choiceRT_color,2021.2.3,MacIntel,59.97361161,,,,,,,,,,,,,,,,,,,,,,,
0,j,1,1.1354,0,2,2,2,1,j,red,5f99e87c962bbc0cf6dc92d2,2021-09-27_17h13.52.428,forced_choiceRT_color,2021.2.3,MacIntel,59.97361161,,,,,,,,,,,,,,,,,,,,,,,
0,j,1,0.9979,0,3,3,2,1,j,red,5f99e87c962bbc0cf6dc92d2,2021-09-27_17h13.52.428,forced_choiceRT_color,2021.2.3,MacIntel,59.97361161,,,,,,,,,,,,,,,,,,,,,,,
0,d,1,1.1985,1,0,4,0,1,d,orange,5f99e87c962bbc0cf6dc92d2,2021-09-27_17h13.52.428,forced_choiceRT_color,2021.2.3,MacIntel,59.97361161,,,,,,,,,,,,,,,,,,,,,,,
0,j,1,0.9175,1,1,5,2,1,j,red,5f99e87c962bbc0cf6dc92d2,2021-09-27_17h13.52.428,forced_choiceRT_color,2021.2.3,MacIntel,59.97361161,,,,,,,,,,,,,,,,,,,,,,,
0,j,1,0.7861,1,2,6,2,1,j,red,5f99e87c962bbc0cf6dc92d2,2021-09-27_17h13.52.428,forced_choiceRT_color,2021.2.3,MacIntel,59.97361161,,,,,,,,,,,,,,,,,,,,,,,
0,k,1,0.955,1,3,7,3,1,k,purple,5f99e87c962bbc0cf6dc92d2,2021-09-27_17h13.52.428,forced_choiceRT_color,2021.2.3,MacIntel,59.97361161,,,,,,,,,,,,,,,,,,,,,,,
0,d,1,0.9082,2,0,8,0,1,d,orange,5f99e87c962bbc0cf6dc92d2,2021-09-27_17h13.52.428,forced_choiceRT_color,2021.2.3,MacIntel,59.97361161,,,,,,,,,,,,,,,,,,,,,,,
0,k,1,0.8192,2,1,9,3,1,k,purple,5f99e87c962bbc0cf6dc92d2,2021-09-27_17h13.52.428,forced_choiceRT_color,2021.2.3,MacIntel,59.97361161,,,,,,,,,,,,,,,,,,,,,,,
0,k,1,0.6453,2,2,10,3,1,k,purple,5f99e87c962bbc0cf6dc92d2,2021-09-27_17h13.52.428,forced_choiceRT_color,2021.2.3,MacIntel,59.97361161,,,,,,,,,,,,,,,,,,,,,,,
0,j,1,0.6983,2,3,11,2,1,j,red,5f99e87c962bbc0cf6dc92d2,2021-09-27_17h13.52.428,forced_choiceRT_color,2021.2.3,MacIntel,59.97361161,,,,,,,,,,,,,,,,,,,,,,,
0,k,1,0.7266,3,0,12,3,1,k,purple,5f99e87c962bbc0cf6dc92d2,2021-09-27_17h13.52.428,forced_choiceRT_color,2021.2.3,MacIntel,59.97361161,,,,,,,,,,,,,,,,,,,,,,,
0,d,1,1.445,3,1,13,0,1,d,orange,5f99e87c962bbc0cf6dc92d2,2021-09-27_17h13.52.428,forced_choiceRT_color,2021.2.3,MacIntel,59.97361161,,,,,,,,,,,,,,,,,,,,,,,
0,f,1,1.0832,3,2,14,1,1,f,blue,5f99e87c962bbc0cf6dc92d2,2021-09-27_17h13.52.428,forced_choiceRT_color,2021.2.3,MacIntel,59.97361161,,,,,,,,,,,,,,,,,,,,,,,
0,d,1,0.8295,3,3,15,0,1,d,orange,5f99e87c962bbc0cf6dc92d2,2021-09-27_17h13.52.428,forced_choiceRT_color,2021.2.3,MacIntel,59.97361161,,,,,,,,,,,,,,,,,,,,,,,
0,d,1,0.8037,4,0,16,0,1,d,orange,5f99e87c962bbc0cf6dc92d2,2021-09-27_17h13.52.428,forced_choiceRT_color,2021.2.3,MacIntel,59.97361161,,,,,,,,,,,,,,,,,,,,,,,
0,k,1,1.1411,4,1,17,3,1,k,purple,5f99e87c962bbc0cf6dc92d2,2021-09-27_17h13.52.428,forced_choiceRT_color,2021.2.3,MacIntel,59.97361161,,,,,,,,,,,,,,,,,,,,,,,
0,j,1,0.8228,4,2,18,2,1,j,red,5f99e87c962bbc0cf6dc92d2,2021-09-27_17h13.52.428,forced_choiceRT_color,2021.2.3,MacIntel,59.97361161,,,,,,,,,,,,,,,,,,,,,,,
0,d,1,0.6791,4,3,19,0,1,d,orange,5f99e87c962bbc0cf6dc92d2,2021-09-27_17h13.52.428,forced_choiceRT_color,2021.2.3,MacIntel,59.97361161,,,,,,,,,,,,,,,,,,,,,,,
0,j,1,1.049,5,0,20,2,1,j,red,5f99e87c962bbc0cf6dc92d2,2021-09-27_17h13.52.428,forced_choiceRT_color,2021.2.3,MacIntel,59.97361161,,,,,,,,,,,,,,,,,,,,,,,
0,j,1,0.6879,5,1,21,2,1,j,red,5f99e87c962bbc0cf6dc92d2,2021-09-27_17h13.52.428,forced_choiceRT_color,2021.2.3,MacIntel,59.97361161,,,,,,,,,,,,,,,,,,,,,,,
0,f,1,1.1485,5,2,22,1,1,f,blue,5f99e87c962bbc0cf6dc92d2,2021-09-27_17h13.52.428,forced_choiceRT_color,2021.2.3,MacIntel,59.97361161,,,,,,,,,,,,,,,,,,,,,,,
0,d,1,0.9837,5,3,23,0,1,d,orange,5f99e87c962bbc0cf6dc92d2,2021-09-27_17h13.52.428,forced_choiceRT_color,2021.2.3,MacIntel,59.97361161,,,,,,,,,,,,,,,,,,,,,,,
0,d,1,0.7025,6,0,24,0,1,d,orange,5f99e87c962bbc0cf6dc92d2,2021-09-27_17h13.52.428,forced_choiceRT_color,2021.2.3,MacIntel,59.97361161,,,,,,,,,,,,,,,,,,,,,,,
0,k,1,0.9982,6,1,25,3,1,k,purple,5f99e87c962bbc0cf6dc92d2,2021-09-27_17h13.52.428,forced_choiceRT_color,2021.2.3,MacIntel,59.97361161,,,,,,,,,,,,,,,,,,,,,,,
0,f,1,0.9268,6,2,26,1,1,f,blue,5f99e87c962bbc0cf6dc92d2,2021-09-27_17h13.52.428,forced_choiceRT_color,2021.2.3,MacIntel,59.97361161,,,,,,,,,,,,,,,,,,,,,,,
0,k,1,0.8295,6,3,27,3,1,k,purple,5f99e87c962bbc0cf6dc92d2,2021-09-27_17h13.52.428,forced_choiceRT_color,2021.2.3,MacIntel,59.97361161,,,,,,,,,,,,,,,,,,,,,,,
0,j,1,0.8639,7,0,28,2,1,j,red,5f99e87c962bbc0cf6dc92d2,2021-09-27_17h13.52.428,forced_choiceRT_color,2021.2.3,MacIntel,59.97361161,,,,,,,,,,,,,,,,,,,,,,,
0,d,1,0.932,7,1,29,0,1,d,orange,5f99e87c962bbc0cf6dc92d2,2021-09-27_17h13.52.428,forced_choiceRT_color,2021.2.3,MacIntel,59.97361161,,,,,,,,,,,,,,,,,,,,,,,
0,d,1,0.7409,7,2,30,0,1,d,orange,5f99e87c962bbc0cf6dc92d2,2021-09-27_17h13.52.428,forced_choiceRT_color,2021.2.3,MacIntel,59.97361161,,,,,,,,,,,,,,,,,,,,,,,
0,f,1,0.965,7,3,31,1,1,f,blue,5f99e87c962bbc0cf6dc92d2,2021-09-27_17h13.52.428,forced_choiceRT_color,2021.2.3,MacIntel,59.97361161,,,,,,,,,,,,,,,,,,,,,,,
0,d,1,0.8207,8,0,32,0,1,d,orange,5f99e87c962bbc0cf6dc92d2,2021-09-27_17h13.52.428,forced_choiceRT_color,2021.2.3,MacIntel,59.97361161,,,,,,,,,,,,,,,,,,,,,,,
0,f,1,0.8658,8,1,33,1,1,f,blue,5f99e87c962bbc0cf6dc92d2,2021-09-27_17h13.52.428,forced_choiceRT_color,2021.2.3,MacIntel,59.97361161,,,,,,,,,,,,,,,,,,,,,,,
0,f,1,0.9379,8,2,34,1,1,f,blue,5f99e87c962bbc0cf6dc92d2,2021-09-27_17h13.52.428,forced_choiceRT_color,2021.2.3,MacIntel,59.97361161,,,,,,,,,,,,,,,,,,,,,,,
0,f,1,0.5851,8,3,35,1,1,f,blue,5f99e87c962bbc0cf6dc92d2,2021-09-27_17h13.52.428,forced_choiceRT_color,2021.2.3,MacIntel,59.97361161,,,,,,,,,,,,,,,,,,,,,,,
0,k,1,1.098,9,0,36,3,1,k,purple,5f99e87c962bbc0cf6dc92d2,2021-09-27_17h13.52.428,forced_choiceRT_color,2021.2.3,MacIntel,59.97361161,,,,,,,,,,,,,,,,,,,,,,,
0,f,1,0.8334,9,1,37,1,1,f,blue,5f99e87c962bbc0cf6dc92d2,2021-09-27_17h13.52.428,forced_choiceRT_color,2021.2.3,MacIntel,59.97361161,,,,,,,,,,,,,,,,,,,,,,,
0,f,0,0.6358,9,2,38,0,1,d,orange,5f99e87c962bbc0cf6dc92d2,2021-09-27_17h13.52.428,forced_choiceRT_color,2021.2.3,MacIntel,59.97361161,,,,,,,,,,,,,,,,,,,,,,,
0,k,1,1.5999,9,3,39,3,1,k,purple,5f99e87c962bbc0cf6dc92d2,2021-09-27_17h13.52.428,forced_choiceRT_color,2021.2.3,MacIntel,59.97361161,,,,,,,,,,,,,,,,,,,,,,,
0,f,1,1.1519,10,0,40,1,1,f,blue,5f99e87c962bbc0cf6dc92d2,2021-09-27_17h13.52.428,forced_choiceRT_color,2021.2.3,MacIntel,59.97361161,,,,,,,,,,,,,,,,,,,,,,,
0,j,1,0.8488,10,1,41,2,1,j,red,5f99e87c962bbc0cf6dc92d2,2021-09-27_17h13.52.428,forced_choiceRT_color,2021.2.3,MacIntel,59.97361161,,,,,,,,,,,,,,,,,,,,,,,
0,j,1,0.6357,10,2,42,2,1,j,red,5f99e87c962bbc0cf6dc92d2,2021-09-27_17h13.52.428,forced_choiceRT_color,2021.2.3,MacIntel,59.97361161,,,,,,,,,,,,,,,,,,,,,,,
0,k,1,0.7041,10,3,43,3,1,k,purple,5f99e87c962bbc0cf6dc92d2,2021-09-27_17h13.52.428,forced_choiceRT_color,2021.2.3,MacIntel,59.97361161,,,,,,,,,,,,,,,,,,,,,,,
0,k,1,0.6511,11,0,44,3,1,k,purple,5f99e87c962bbc0cf6dc92d2,2021-09-27_17h13.52.428,forced_choiceRT_color,2021.2.3,MacIntel,59.97361161,,,,,,,,,,,,,,,,,,,,,,,
0,f,1,0.7823,11,1,45,1,1,f,blue,5f99e87c962bbc0cf6dc92d2,2021-09-27_17h13.52.428,forced_choiceRT_color,2021.2.3,MacIntel,59.97361161,,,,,,,,,,,,,,,,,,,,,,,
0,j,1,0.6641,11,2,46,2,1,j,red,5f99e87c962bbc0cf6dc92d2,2021-09-27_17h13.52.428,forced_choiceRT_color,2021.2.3,MacIntel,59.97361161,,,,,,,,,,,,,,,,,,,,,,,
0,j,1,0.585,11,3,47,2,1,j,red,5f99e87c962bbc0cf6dc92d2,2021-09-27_17h13.52.428,forced_choiceRT_color,2021.2.3,MacIntel,59.97361161,,,,,,,,,,,,,,,,,,,,,,,
0,k,1,0.6622,12,0,48,3,1,k,purple,5f99e87c962bbc0cf6dc92d2,2021-09-27_17h13.52.428,forced_choiceRT_color,2021.2.3,MacIntel,59.97361161,,,,,,,,,,,,,,,,,,,,,,,
0,f,1,1.0973,12,1,49,1,1,f,blue,5f99e87c962bbc0cf6dc92d2,2021-09-27_17h13.52.428,forced_choiceRT_color,2021.2.3,MacIntel,59.97361161,,,,,,,,,,,,,,,,,,,,,,,
0,f,1,0.6027,12,2,50,1,1,f,blue,5f99e87c962bbc0cf6dc92d2,2021-09-27_17h13.52.428,forced_choiceRT_color,2021.2.3,MacIntel,59.97361161,,,,,,,,,,,,,,,,,,,,,,,
0,f,1,0.5809,12,3,51,1,1,f,blue,5f99e87c962bbc0cf6dc92d2,2021-09-27_17h13.52.428,forced_choiceRT_color,2021.2.3,MacIntel,59.97361161,,,,,,,,,,,,,,,,,,,,,,,
0,d,1,0.6861,13,0,52,0,1,d,orange,5f99e87c962bbc0cf6dc92d2,2021-09-27_17h13.52.428,forced_choiceRT_color,2021.2.3,MacIntel,59.97361161,,,,,,,,,,,,,,,,,,,,,,,
0,k,1,0.8148,13,1,53,3,1,k,purple,5f99e87c962bbc0cf6dc92d2,2021-09-27_17h13.52.428,forced_choiceRT_color,2021.2.3,MacIntel,59.97361161,,,,,,,,,,,,,,,,,,,,,,,
0,j,1,0.669,13,2,54,2,1,j,red,5f99e87c962bbc0cf6dc92d2,2021-09-27_17h13.52.428,forced_choiceRT_color,2021.2.3,MacIntel,59.97361161,,,,,,,,,,,,,,,,,,,,,,,
0,k,1,0.5819,13,3,55,3,1,k,purple,5f99e87c962bbc0cf6dc92d2,2021-09-27_17h13.52.428,forced_choiceRT_color,2021.2.3,MacIntel,59.97361161,,,,,,,,,,,,,,,,,,,,,,,
0,f,1,1.0424,14,0,56,1,1,f,blue,5f99e87c962bbc0cf6dc92d2,2021-09-27_17h13.52.428,forced_choiceRT_color,2021.2.3,MacIntel,59.97361161,,,,,,,,,,,,,,,,,,,,,,,
0,f,1,0.512,14,1,57,1,1,f,blue,5f99e87c962bbc0cf6dc92d2,2021-09-27_17h13.52.428,forced_choiceRT_color,2021.2.3,MacIntel,59.97361161,,,,,,,,,,,,,,,,,,,,,,,
0,d,1,0.7293,14,2,58,0,1,d,orange,5f99e87c962bbc0cf6dc92d2,2021-09-27_17h13.52.428,forced_choiceRT_color,2021.2.3,MacIntel,59.97361161,,,,,,,,,,,,,,,,,,,,,,,
0,j,1,1.0836,14,3,59,2,1,j,red,5f99e87c962bbc0cf6dc92d2,2021-09-27_17h13.52.428,forced_choiceRT_color,2021.2.3,MacIntel,59.97361161,,,,,,,,,,,,,,,,,,,,,,,
,,,,,,,,,,,5f99e87c962bbc0cf6dc92d2,2021-09-27_17h13.52.428,forced_choiceRT_color,2021.2.3,MacIntel,59.97361161,d,2.2569,0,0,0,0,1,,,,,,,,,,,,,,,,
,,,,,,,,,,,5f99e87c962bbc0cf6dc92d2,2021-09-27_17h13.52.428,forced_choiceRT_color,2021.2.3,MacIntel,59.97361161,f,1.785,1,0,1,0,1,,,,,,,,,,,,,,,,
,,,,,,,,,,,5f99e87c962bbc0cf6dc92d2,2021-09-27_17h13.52.428,forced_choiceRT_color,2021.2.3,MacIntel,59.97361161,d,2.0695,2,0,2,0,1,,,,,,,,,,,,,,,,
,,,,,,,,,,,5f99e87c962bbc0cf6dc92d2,2021-09-27_17h13.52.428,forced_choiceRT_color,2021.2.3,MacIntel,59.97361161,j,2.0698,3,0,3,0,1,,,,,,,,,,,,,,,,
,,,,,,,,,,,5f99e87c962bbc0cf6dc92d2,2021-09-27_17h13.52.428,forced_choiceRT_color,2021.2.3,MacIntel,59.97361161,k,1.9975,4,0,4,0,1,,,,,,,,,,,,,,,,
,,,,,,,,,,,5f99e87c962bbc0cf6dc92d2,2021-09-27_17h13.52.428,forced_choiceRT_color,2021.2.3,MacIntel,59.97361161,k,2.0672,5,0,5,0,1,,,,,,,,,,,,,,,,
,,,,,,,,,,,5f99e87c962bbc0cf6dc92d2,2021-09-27_17h13.52.428,forced_choiceRT_color,2021.2.3,MacIntel,59.97361161,k,1.9862,6,0,6,0,1,,,,,,,,,,,,,,,,
,,,,,,,,,,,5f99e87c962bbc0cf6dc92d2,2021-09-27_17h13.52.428,forced_choiceRT_color,2021.2.3,MacIntel,59.97361161,j,1.9684,7,0,7,0,1,,,,,,,,,,,,,,,,
,,,,,,,,,,,5f99e87c962bbc0cf6dc92d2,2021-09-27_17h13.52.428,forced_choiceRT_color,2021.2.3,MacIntel,59.97361161,d,2.0304,8,0,8,0,1,,,,,,,,,,,,,,,,
,,,,,,,,,,,5f99e87c962bbc0cf6dc92d2,2021-09-27_17h13.52.428,forced_choiceRT_color,2021.2.3,MacIntel,59.97361161,f,2.07,9,0,9,0,1,,,,,,,,,,,,,,,,
,,,,,,,,,,,5f99e87c962bbc0cf6dc92d2,2021-09-27_17h13.52.428,forced_choiceRT_color,2021.2.3,MacIntel,59.97361161,f,2.2038,10,0,10,0,1,,,,,,,,,,,,,,,,
,,,,,,,,,,,5f99e87c962bbc0cf6dc92d2,2021-09-27_17h13.52.428,forced_choiceRT_color,2021.2.3,MacIntel,59.97361161,f,2.0463,11,0,11,0,1,,,,,,,,,,,,,,,,
,,,,,,,,,,,5f99e87c962bbc0cf6dc92d2,2021-09-27_17h13.52.428,forced_choiceRT_color,2021.2.3,MacIntel,59.97361161,f,1.8042,12,0,12,0,1,,,,,,,,,,,,,,,,
,,,,,,,,,,,5f99e87c962bbc0cf6dc92d2,2021-09-27_17h13.52.428,forced_choiceRT_color,2021.2.3,MacIntel,59.97361161,f,1.8995,13,0,13,0,1,,,,,,,,,,,,,,,,
,,,,,,,,,,,5f99e87c962bbc0cf6dc92d2,2021-09-27_17h13.52.428,forced_choiceRT_color,2021.2.3,MacIntel,59.97361161,f,2.0682,14,0,14,0,1,,,,,,,,,,,,,,,,
,,,,,,,,,,,5f99e87c962bbc0cf6dc92d2,2021-09-27_17h13.52.428,forced_choiceRT_color,2021.2.3,MacIntel,59.97361161,f,2.2145,15,0,15,0,1,,,,,,,,,,,,,,,,
,,,,,,,,,,,5f99e87c962bbc0cf6dc92d2,2021-09-27_17h13.52.428,forced_choiceRT_color,2021.2.3,MacIntel,59.97361161,f,1.9979,16,0,16,0,1,,,,,,,,,,,,,,,,
,,,,,,,,,,,5f99e87c962bbc0cf6dc92d2,2021-09-27_17h13.52.428,forced_choiceRT_color,2021.2.3,MacIntel,59.97361161,f,1.9837,17,0,17,0,1,,,,,,,,,,,,,,,,
,,,,,,,,,,,5f99e87c962bbc0cf6dc92d2,2021-09-27_17h13.52.428,forced_choiceRT_color,2021.2.3,MacIntel,59.97361161,f,2.0867,18,0,18,0,1,,,,,,,,,,,,,,,,
,,,,,,,,,,,5f99e87c962bbc0cf6dc92d2,2021-09-27_17h13.52.428,forced_choiceRT_color,2021.2.3,MacIntel,59.97361161,f,2.0137,19,0,19,0,1,,,,,,,,,,,,,,,,
0.52,,,,,,,,,d,orange,5f99e87c962bbc0cf6dc92d2,2021-09-27_17h13.52.428,forced_choiceRT_color,2021.2.3,MacIntel,59.97361161,,,,,,,,1,Ontime,short,d,1,2.0825,0,0,0,0,1,,,,,
1.71,,,,,,,,,k,purple,5f99e87c962bbc0cf6dc92d2,2021-09-27_17h13.52.428,forced_choiceRT_color,2021.2.3,MacIntel,59.97361161,,,,,,,,1,Slow,short,j,0,2.2765,0,1,1,3,1,,,,,
0.76,,,,,,,,,f,blue,5f99e87c962bbc0cf6dc92d2,2021-09-27_17h13.52.428,forced_choiceRT_color,2021.2.3,MacIntel,59.97361161,,,,,,,,1,Fast,short,f,1,1.8042,0,2,2,1,1,,,,,
1.37,,,,,,,,,j,red,5f99e87c962bbc0cf6dc92d2,2021-09-27_17h13.52.428,forced_choiceRT_color,2021.2.3,MacIntel,59.97361161,,,,,,,,1,Ontime,short,j,1,1.9493,0,3,3,2,1,,,,,
0.8,,,,,,,,,j,red,5f99e87c962bbc0cf6dc92d2,2021-09-27_17h13.52.428,forced_choiceRT_color,2021.2.3,MacIntel,59.97361161,,,,,,,,1,Ontime,short,j,1,1.9311,1,0,4,2,1,,,,,
1.52,,,,,,,,,d,orange,5f99e87c962bbc0cf6dc92d2,2021-09-27_17h13.52.428,forced_choiceRT_color,2021.2.3,MacIntel,59.97361161,,,,,,,,1,Fast,short,f,0,1.8383,1,1,5,0,1,,,,,
0.08,,,,,,,,,d,orange,5f99e87c962bbc0cf6dc92d2,2021-09-27_17h13.52.428,forced_choiceRT_color,2021.2.3,MacIntel,59.97361161,,,,,,,,1,Fast,short,d,1,1.7864,1,2,6,0,1,,,,,
1.62,,,,,,,,,j,red,5f99e87c962bbc0cf6dc92d2,2021-09-27_17h13.52.428,forced_choiceRT_color,2021.2.3,MacIntel,59.97361161,,,,,,,,1,Slow,short,d,0,2.1195,1,3,7,2,1,,,,,
0.11,,,,,,,,,k,purple,5f99e87c962bbc0cf6dc92d2,2021-09-27_17h13.52.428,forced_choiceRT_color,2021.2.3,MacIntel,59.97361161,,,,,,,,1,Fast,short,k,1,1.7932,2,0,8,3,1,,,,,
1.1,,,,,,,,,f,blue,5f99e87c962bbc0cf6dc92d2,2021-09-27_17h13.52.428,forced_choiceRT_color,2021.2.3,MacIntel,59.97361161,,,,,,,,1,Fast,short,f,1,1.8859,2,1,9,1,1,,,,,
0.3,,,,,,,,,f,blue,5f99e87c962bbc0cf6dc92d2,2021-09-27_17h13.52.428,forced_choiceRT_color,2021.2.3,MacIntel,59.97361161,,,,,,,,1,Ontime,short,f,1,1.9366,2,2,10,1,1,,,,,
0.37,,,,,,,,,f,blue,5f99e87c962bbc0cf6dc92d2,2021-09-27_17h13.52.428,forced_choiceRT_color,2021.2.3,MacIntel,59.97361161,,,,,,,,1,Fast,short,f,1,1.8226,2,3,11,1,1,,,,,
1.97,,,,,,,,,d,orange,5f99e87c962bbc0cf6dc92d2,2021-09-27_17h13.52.428,forced_choiceRT_color,2021.2.3,MacIntel,59.97361161,,,,,,,,1,Slow,short,k,0,2.3377,3,0,12,0,1,,,,,
1.29,,,,,,,,,d,orange,5f99e87c962bbc0cf6dc92d2,2021-09-27_17h13.52.428,forced_choiceRT_color,2021.2.3,MacIntel,59.97361161,,,,,,,,1,Fast,short,k,0,1.712,3,1,13,0,1,,,,,
0.11,,,,,,,,,f,blue,5f99e87c962bbc0cf6dc92d2,2021-09-27_17h13.52.428,forced_choiceRT_color,2021.2.3,MacIntel,59.97361161,,,,,,,,1,Fast,short,d,0,1.7815,3,2,14,1,1,,,,,
0.06,,,,,,,,,k,purple,5f99e87c962bbc0cf6dc92d2,2021-09-27_17h13.52.428,forced_choiceRT_color,2021.2.3,MacIntel,59.97361161,,,,,,,,1,Ontime,short,k,1,2.0878,3,3,15,3,1,,,,,
1.77,,,,,,,,,j,red,5f99e87c962bbc0cf6dc92d2,2021-09-27_17h13.52.428,forced_choiceRT_color,2021.2.3,MacIntel,59.97361161,,,,,,,,1,Slow,short,f,0,2.2054,4,0,16,2,1,,,,,
0.6,,,,,,,,,d,orange,5f99e87c962bbc0cf6dc92d2,2021-09-27_17h13.52.428,forced_choiceRT_color,2021.2.3,MacIntel,59.97361161,,,,,,,,1,Fast,short,d,1,1.848,4,1,17,0,1,,,,,
1.96,,,,,,,,,d,orange,5f99e87c962bbc0cf6dc92d2,2021-09-27_17h13.52.428,forced_choiceRT_color,2021.2.3,MacIntel,59.97361161,,,,,,,,1,Ontime,short,f,0,2.0784,4,2,18,0,1,,,,,
1.95,,,,,,,,,f,blue,5f99e87c962bbc0cf6dc92d2,2021-09-27_17h13.52.428,forced_choiceRT_color,2021.2.3,MacIntel,59.97361161,,,,,,,,1,Ontime,short,d,0,2.0725,4,3,19,1,1,,,,,
1.48,,,,,,,,,k,purple,5f99e87c962bbc0cf6dc92d2,2021-09-27_17h13.52.428,forced_choiceRT_color,2021.2.3,MacIntel,59.97361161,,,,,,,,1,Fast,short,k,1,1.8482,5,0,20,3,1,,,,,
1.79,,,,,,,,,j,red,5f99e87c962bbc0cf6dc92d2,2021-09-27_17h13.52.428,forced_choiceRT_color,2021.2.3,MacIntel,59.97361161,,,,,,,,1,Slow,short,f,0,2.9195,5,1,21,2,1,,,,,
0.53,,,,,,,,,k,purple,5f99e87c962bbc0cf6dc92d2,2021-09-27_17h13.52.428,forced_choiceRT_color,2021.2.3,MacIntel,59.97361161,,,,,,,,1,Ontime,short,k,1,2.0784,5,2,22,3,1,,,,,
1.39,,,,,,,,,j,red,5f99e87c962bbc0cf6dc92d2,2021-09-27_17h13.52.428,forced_choiceRT_color,2021.2.3,MacIntel,59.97361161,,,,,,,,1,Ontime,short,j,1,1.9029,5,3,23,2,1,,,,,
1.62,,,,,,,,,f,blue,5f99e87c962bbc0cf6dc92d2,2021-09-27_17h13.52.428,forced_choiceRT_color,2021.2.3,MacIntel,59.97361161,,,,,,,,1,Fast,short,f,1,0.0377,6,0,24,1,1,,,,,
1.16,,,,,,,,,f,blue,5f99e87c962bbc0cf6dc92d2,2021-09-27_17h13.52.428,forced_choiceRT_color,2021.2.3,MacIntel,59.97361161,,,,,,,,1,Ontime,short,f,1,1.9146,6,1,25,1,1,,,,,
1.29,,,,,,,,,f,blue,5f99e87c962bbc0cf6dc92d2,2021-09-27_17h13.52.428,forced_choiceRT_color,2021.2.3,MacIntel,59.97361161,,,,,,,,1,Ontime,short,d,0,2.0526,6,2,26,1,1,,,,,
0.1,,,,,,,,,d,orange,5f99e87c962bbc0cf6dc92d2,2021-09-27_17h13.52.428,forced_choiceRT_color,2021.2.3,MacIntel,59.97361161,,,,,,,,1,Ontime,short,f,0,2.0219,6,3,27,0,1,,,,,
1.39,,,,,,,,,j,red,5f99e87c962bbc0cf6dc92d2,2021-09-27_17h13.52.428,forced_choiceRT_color,2021.2.3,MacIntel,59.97361161,,,,,,,,1,Slow,short,j,1,2.119,7,0,28,2,1,,,,,
1.81,,,,,,,,,k,purple,5f99e87c962bbc0cf6dc92d2,2021-09-27_17h13.52.428,forced_choiceRT_color,2021.2.3,MacIntel,59.97361161,,,,,,,,1,Slow,short,k,1,2.1853,7,1,29,3,1,,,,,
1.27,,,,,,,,,f,blue,5f99e87c962bbc0cf6dc92d2,2021-09-27_17h13.52.428,forced_choiceRT_color,2021.2.3,MacIntel,59.97361161,,,,,,,,1,Ontime,short,d,0,1.9568,7,2,30,1,1,,,,,
1.52,,,,,,,,,j,red,5f99e87c962bbc0cf6dc92d2,2021-09-27_17h13.52.428,forced_choiceRT_color,2021.2.3,MacIntel,59.97361161,,,,,,,,1,Ontime,short,f,0,1.9311,7,3,31,2,1,,,,,
1.99,,,,,,,,,k,purple,5f99e87c962bbc0cf6dc92d2,2021-09-27_17h13.52.428,forced_choiceRT_color,2021.2.3,MacIntel,59.97361161,,,,,,,,1,Slow,short,k,1,2.4535,8,0,32,3,1,,,,,
0.68,,,,,,,,,k,purple,5f99e87c962bbc0cf6dc92d2,2021-09-27_17h13.52.428,forced_choiceRT_color,2021.2.3,MacIntel,59.97361161,,,,,,,,1,Fast,short,k,1,1.1356,8,1,33,3,1,,,,,
0.05,,,,,,,,,j,red,5f99e87c962bbc0cf6dc92d2,2021-09-27_17h13.52.428,forced_choiceRT_color,2021.2.3,MacIntel,59.97361161,,,,,,,,1,Ontime,short,d,0,1.9862,8,2,34,2,1,,,,,
0.63,,,,,,,,,k,purple,5f99e87c962bbc0cf6dc92d2,2021-09-27_17h13.52.428,forced_choiceRT_color,2021.2.3,MacIntel,59.97361161,,,,,,,,1,Slow,short,d,0,2.1885,8,3,35,3,1,,,,,
1.99,,,,,,,,,d,orange,5f99e87c962bbc0cf6dc92d2,2021-09-27_17h13.52.428,forced_choiceRT_color,2021.2.3,MacIntel,59.97361161,,,,,,,,1,Slow,short,f,0,2.6036,9,0,36,0,1,,,,,
1.04,,,,,,,,,d,orange,5f99e87c962bbc0cf6dc92d2,2021-09-27_17h13.52.428,forced_choiceRT_color,2021.2.3,MacIntel,59.97361161,,,,,,,,1,Fast,short,f,0,1.8806,9,1,37,0,1,,,,,
0.83,,,,,,,,,k,purple,5f99e87c962bbc0cf6dc92d2,2021-09-27_17h13.52.428,forced_choiceRT_color,2021.2.3,MacIntel,59.97361161,,,,,,,,1,Ontime,short,k,1,1.9863,9,2,38,3,1,,,,,
1.63,,,,,,,,,j,red,5f99e87c962bbc0cf6dc92d2,2021-09-27_17h13.52.428,forced_choiceRT_color,2021.2.3,MacIntel,59.97361161,,,,,,,,1,Slow,short,d,0,2.1756,9,3,39,2,1,,,,,
,,,,,,,,,,,5f99e87c962bbc0cf6dc92d2,2021-09-27_17h13.52.428,forced_choiceRT_color,2021.2.3,MacIntel,59.97361161,,,,,,,,,,,,,,,,,,,0,0,0,0,1
0.84,,,,,,,,,d,orange,5f99e87c962bbc0cf6dc92d2,2021-09-27_17h13.52.428,forced_choiceRT_color,2021.2.3,MacIntel,59.97361161,,,,,,,,2,Fast,short,d,1,1.7585,0,0,0,0,1,,,,,
1.58,,,,,,,,,j,red,5f99e87c962bbc0cf6dc92d2,2021-09-27_17h13.52.428,forced_choiceRT_color,2021.2.3,MacIntel,59.97361161,,,,,,,,2,Slow,short,j,1,3.1852,0,1,1,2,1,,,,,
0.61,,,,,,,,,d,orange,5f99e87c962bbc0cf6dc92d2,2021-09-27_17h13.52.428,forced_choiceRT_color,2021.2.3,MacIntel,59.97361161,,,,,,,,2,Ontime,short,d,1,1.9531,0,2,2,0,1,,,,,
1.2,,,,,,,,,d,orange,5f99e87c962bbc0cf6dc92d2,2021-09-27_17h13.52.428,forced_choiceRT_color,2021.2.3,MacIntel,59.97361161,,,,,,,,2,Ontime,short,d,1,1.9395,0,3,3,0,1,,,,,
0.47,,,,,,,,,f,blue,5f99e87c962bbc0cf6dc92d2,2021-09-27_17h13.52.428,forced_choiceRT_color,2021.2.3,MacIntel,59.97361161,,,,,,,,2,Ontime,short,f,1,2.0356,1,0,4,1,1,,,,,
0.06,,,,,,,,,f,blue,5f99e87c962bbc0cf6dc92d2,2021-09-27_17h13.52.428,forced_choiceRT_color,2021.2.3,MacIntel,59.97361161,,,,,,,,2,Ontime,short,f,1,2.0018,1,1,5,1,1,,,,,
1.41,,,,,,,,,f,blue,5f99e87c962bbc0cf6dc92d2,2021-09-27_17h13.52.428,forced_choiceRT_color,2021.2.3,MacIntel,59.97361161,,,,,,,,2,Slow,short,f,1,2.2982,1,2,6,1,1,,,,,
0.14,,,,,,,,,j,red,5f99e87c962bbc0cf6dc92d2,2021-09-27_17h13.52.428,forced_choiceRT_color,2021.2.3,MacIntel,59.97361161,,,,,,,,2,Ontime,short,j,1,2.0417,1,3,7,2,1,,,,,
0.56,,,,,,,,,f,blue,5f99e87c962bbc0cf6dc92d2,2021-09-27_17h13.52.428,forced_choiceRT_color,2021.2.3,MacIntel,59.97361161,,,,,,,,2,Ontime,short,f,1,1.9977,2,0,8,1,1,,,,,
1.76,,,,,,,,,d,orange,5f99e87c962bbc0cf6dc92d2,2021-09-27_17h13.52.428,forced_choiceRT_color,2021.2.3,MacIntel,59.97361161,,,,,,,,2,Slow,short,d,1,2.2691,2,1,9,0,1,,,,,
0.42,,,,,,,,,d,orange,5f99e87c962bbc0cf6dc92d2,2021-09-27_17h13.52.428,forced_choiceRT_color,2021.2.3,MacIntel,59.97361161,,,,,,,,2,Ontime,short,d,1,1.9861,2,2,10,0,1,,,,,
1.82,,,,,,,,,k,purple,5f99e87c962bbc0cf6dc92d2,2021-09-27_17h13.52.428,forced_choiceRT_color,2021.2.3,MacIntel,59.97361161,,,,,,,,2,Slow,short,j,0,2.2834,2,3,11,3,1,,,,,
1.43,,,,,,,,,d,orange,5f99e87c962bbc0cf6dc92d2,2021-09-27_17h13.52.428,forced_choiceRT_color,2021.2.3,MacIntel,59.97361161,,,,,,,,2,Slow,short,f,0,2.2299,3,0,12,0,1,,,,,
1.21,,,,,,,,,k,purple,5f99e87c962bbc0cf6dc92d2,2021-09-27_17h13.52.428,forced_choiceRT_color,2021.2.3,MacIntel,59.97361161,,,,,,,,2,Ontime,short,k,1,1.9853,3,1,13,3,1,,,,,
1.56,,,,,,,,,k,purple,5f99e87c962bbc0cf6dc92d2,2021-09-27_17h13.52.428,forced_choiceRT_color,2021.2.3,MacIntel,59.97361161,,,,,,,,2,Slow,short,k,1,2.251,3,2,14,3,1,,,,,
1.39,,,,,,,,,f,blue,5f99e87c962bbc0cf6dc92d2,2021-09-27_17h13.52.428,forced_choiceRT_color,2021.2.3,MacIntel,59.97361161,,,,,,,,2,Slow,short,f,1,2.2178,3,3,15,1,1,,,,,
0.6,,,,,,,,,j,red,5f99e87c962bbc0cf6dc92d2,2021-09-27_17h13.52.428,forced_choiceRT_color,2021.2.3,MacIntel,59.97361161,,,,,,,,2,Ontime,short,j,1,1.9626,4,0,16,2,1,,,,,
1.26,,,,,,,,,k,purple,5f99e87c962bbc0cf6dc92d2,2021-09-27_17h13.52.428,forced_choiceRT_color,2021.2.3,MacIntel,59.97361161,,,,,,,,2,Ontime,short,k,1,1.9291,4,1,17,3,1,,,,,
0.68,,,,,,,,,f,blue,5f99e87c962bbc0cf6dc92d2,2021-09-27_17h13.52.428,forced_choiceRT_color,2021.2.3,MacIntel,59.97361161,,,,,,,,2,Ontime,short,f,1,1.9031,4,2,18,1,1,,,,,
1.96,,,,,,,,,k,purple,5f99e87c962bbc0cf6dc92d2,2021-09-27_17h13.52.428,forced_choiceRT_color,2021.2.3,MacIntel,59.97361161,,,,,,,,2,Slow,short,k,1,2.3563,4,3,19,3,1,,,,,
0.55,,,,,,,,,d,orange,5f99e87c962bbc0cf6dc92d2,2021-09-27_17h13.52.428,forced_choiceRT_color,2021.2.3,MacIntel,59.97361161,,,,,,,,2,Ontime,short,d,1,1.9529,5,0,20,0,1,,,,,
1.52,,,,,,,,,f,blue,5f99e87c962bbc0cf6dc92d2,2021-09-27_17h13.52.428,forced_choiceRT_color,2021.2.3,MacIntel,59.97361161,,,,,,,,2,Slow,short,f,1,2.2362,5,1,21,1,1,,,,,
0.98,,,,,,,,,j,red,5f99e87c962bbc0cf6dc92d2,2021-09-27_17h13.52.428,forced_choiceRT_color,2021.2.3,MacIntel,59.97361161,,,,,,,,2,Ontime,short,j,1,1.9803,5,2,22,2,1,,,,,
0.17,,,,,,,,,f,blue,5f99e87c962bbc0cf6dc92d2,2021-09-27_17h13.52.428,forced_choiceRT_color,2021.2.3,MacIntel,59.97361161,,,,,,,,2,Ontime,short,f,1,2.0304,5,3,23,1,1,,,,,
0.34,,,,,,,,,j,red,5f99e87c962bbc0cf6dc92d2,2021-09-27_17h13.52.428,forced_choiceRT_color,2021.2.3,MacIntel,59.97361161,,,,,,,,2,Ontime,short,j,1,1.953,6,0,24,2,1,,,,,
0.24,,,,,,,,,j,red,5f99e87c962bbc0cf6dc92d2,2021-09-27_17h13.52.428,forced_choiceRT_color,2021.2.3,MacIntel,59.97361161,,,,,,,,2,Fast,short,j,1,1.8524,6,1,25,2,1,,,,,
0.38,,,,,,,,,k,purple,5f99e87c962bbc0cf6dc92d2,2021-09-27_17h13.52.428,forced_choiceRT_color,2021.2.3,MacIntel,59.97361161,,,,,,,,2,Ontime,short,k,1,2.0536,6,2,26,3,1,,,,,
0.4,,,,,,,,,d,orange,5f99e87c962bbc0cf6dc92d2,2021-09-27_17h13.52.428,forced_choiceRT_color,2021.2.3,MacIntel,59.97361161,,,,,,,,2,Slow,short,d,1,2.1688,6,3,27,0,1,,,,,
1.12,,,,,,,,,j,red,5f99e87c962bbc0cf6dc92d2,2021-09-27_17h13.52.428,forced_choiceRT_color,2021.2.3,MacIntel,59.97361161,,,,,,,,2,Slow,short,j,1,2.114,7,0,28,2,1,,,,,
0.13,,,,,,,,,k,purple,5f99e87c962bbc0cf6dc92d2,2021-09-27_17h13.52.428,forced_choiceRT_color,2021.2.3,MacIntel,59.97361161,,,,,,,,2,Fast,short,k,1,1.7366,7,1,29,3,1,,,,,
0.8,,,,,,,,,k,purple,5f99e87c962bbc0cf6dc92d2,2021-09-27_17h13.52.428,forced_choiceRT_color,2021.2.3,MacIntel,59.97361161,,,,,,,,2,Fast,short,k,1,1.8622,7,2,30,3,1,,,,,
0.21,,,,,,,,,k,purple,5f99e87c962bbc0cf6dc92d2,2021-09-27_17h13.52.428,forced_choiceRT_color,2021.2.3,MacIntel,59.97361161,,,,,,,,2,Fast,short,k,1,1.8851,7,3,31,3,1,,,,,
0.35,,,,,,,,,k,purple,5f99e87c962bbc0cf6dc92d2,2021-09-27_17h13.52.428,forced_choiceRT_color,2021.2.3,MacIntel,59.97361161,,,,,,,,2,Fast,short,k,1,1.8801,8,0,32,3,1,,,,,
0.48,,,,,,,,,j,red,5f99e87c962bbc0cf6dc92d2,2021-09-27_17h13.52.428,forced_choiceRT_color,2021.2.3,MacIntel,59.97361161,,,,,,,,2,Fast,short,j,1,1.8022,8,1,33,2,1,,,,,
1.49,,,,,,,,,d,orange,5f99e87c962bbc0cf6dc92d2,2021-09-27_17h13.52.428,forced_choiceRT_color,2021.2.3,MacIntel,59.97361161,,,,,,,,2,Slow,short,d,1,2.3693,8,2,34,0,1,,,,,
0.56,,,,,,,,,j,red,5f99e87c962bbc0cf6dc92d2,2021-09-27_17h13.52.428,forced_choiceRT_color,2021.2.3,MacIntel,59.97361161,,,,,,,,2,Ontime,short,j,1,1.9617,8,3,35,2,1,,,,,
0.35,,,,,,,,,j,red,5f99e87c962bbc0cf6dc92d2,2021-09-27_17h13.52.428,forced_choiceRT_color,2021.2.3,MacIntel,59.97361161,,,,,,,,2,Ontime,short,j,1,2.0024,9,0,36,2,1,,,,,
1.86,,,,,,,,,d,orange,5f99e87c962bbc0cf6dc92d2,2021-09-27_17h13.52.428,forced_choiceRT_color,2021.2.3,MacIntel,59.97361161,,,,,,,,2,Slow,short,d,1,2.552,9,1,37,0,1,,,,,
0.69,,,,,,,,,f,blue,5f99e87c962bbc0cf6dc92d2,2021-09-27_17h13.52.428,forced_choiceRT_color,2021.2.3,MacIntel,59.97361161,,,,,,,,2,Fast,short,f,1,1.8857,9,2,38,1,1,,,,,
0.38,,,,,,,,,f,blue,5f99e87c962bbc0cf6dc92d2,2021-09-27_17h13.52.428,forced_choiceRT_color,2021.2.3,MacIntel,59.97361161,,,,,,,,2,Ontime,short,f,1,2.0292,9,3,39,1,1,,,,,
,,,,,,,,,,,5f99e87c962bbc0cf6dc92d2,2021-09-27_17h13.52.428,forced_choiceRT_color,2021.2.3,MacIntel,59.97361161,,,,,,,,,,,,,,,,,,,1,0,1,0,1
0.16,,,,,,,,,f,blue,5f99e87c962bbc0cf6dc92d2,2021-09-27_17h13.52.428,forced_choiceRT_color,2021.2.3,MacIntel,59.97361161,,,,,,,,3,Fast,short,f,1,1.7867,0,0,0,1,1,,,,,
1.06,,,,,,,,,f,blue,5f99e87c962bbc0cf6dc92d2,2021-09-27_17h13.52.428,forced_choiceRT_color,2021.2.3,MacIntel,59.97361161,,,,,,,,3,Fast,short,f,1,1.887,0,1,1,1,1,,,,,
1.28,,,,,,,,,f,blue,5f99e87c962bbc0cf6dc92d2,2021-09-27_17h13.52.428,forced_choiceRT_color,2021.2.3,MacIntel,59.97361161,,,,,,,,3,Ontime,short,f,1,1.9866,0,2,2,1,1,,,,,
0.92,,,,,,,,,k,purple,5f99e87c962bbc0cf6dc92d2,2021-09-27_17h13.52.428,forced_choiceRT_color,2021.2.3,MacIntel,59.97361161,,,,,,,,3,Ontime,short,k,1,1.9553,0,3,3,3,1,,,,,
0.96,,,,,,,,,d,orange,5f99e87c962bbc0cf6dc92d2,2021-09-27_17h13.52.428,forced_choiceRT_color,2021.2.3,MacIntel,59.97361161,,,,,,,,3,Fast,short,d,1,1.8655,1,0,4,0,1,,,,,
0.03,,,,,,,,,d,orange,5f99e87c962bbc0cf6dc92d2,2021-09-27_17h13.52.428,forced_choiceRT_color,2021.2.3,MacIntel,59.97361161,,,,,,,,3,Slow,short,d,1,2.1009,1,1,5,0,1,,,,,
0.27,,,,,,,,,f,blue,5f99e87c962bbc0cf6dc92d2,2021-09-27_17h13.52.428,forced_choiceRT_color,2021.2.3,MacIntel,59.97361161,,,,,,,,3,Ontime,short,f,1,1.9526,1,2,6,1,1,,,,,
1.88,,,,,,,,,f,blue,5f99e87c962bbc0cf6dc92d2,2021-09-27_17h13.52.428,forced_choiceRT_color,2021.2.3,MacIntel,59.97361161,,,,,,,,3,Slow,short,f,1,2.5045,1,3,7,1,1,,,,,
0.46,,,,,,,,,k,purple,5f99e87c962bbc0cf6dc92d2,2021-09-27_17h13.52.428,forced_choiceRT_color,2021.2.3,MacIntel,59.97361161,,,,,,,,3,Ontime,short,k,1,2.0292,2,0,8,3,1,,,,,
1.05,,,,,,,,,k,purple,5f99e87c962bbc0cf6dc92d2,2021-09-27_17h13.52.428,forced_choiceRT_color,2021.2.3,MacIntel,59.97361161,,,,,,,,3,Fast,short,k,1,1.8531,2,1,9,3,1,,,,,
0.29,,,,,,,,,f,blue,5f99e87c962bbc0cf6dc92d2,2021-09-27_17h13.52.428,forced_choiceRT_color,2021.2.3,MacIntel,59.97361161,,,,,,,,3,Ontime,short,f,1,1.9979,2,2,10,1,1,,,,,
1.01,,,,,,,,,k,purple,5f99e87c962bbc0cf6dc92d2,2021-09-27_17h13.52.428,forced_choiceRT_color,2021.2.3,MacIntel,59.97361161,,,,,,,,3,Ontime,short,k,1,1.9186,2,3,11,3,1,,,,,
0.88,,,,,,,,,f,blue,5f99e87c962bbc0cf6dc92d2,2021-09-27_17h13.52.428,forced_choiceRT_color,2021.2.3,MacIntel,59.97361161,,,,,,,,3,Ontime,short,f,1,2.0055,3,0,12,1,1,,,,,
0.99,,,,,,,,,d,orange,5f99e87c962bbc0cf6dc92d2,2021-09-27_17h13.52.428,forced_choiceRT_color,2021.2.3,MacIntel,59.97361161,,,,,,,,3,Fast,short,d,1,1.8715,3,1,13,0,1,,,,,
0.72,,,,,,,,,d,orange,5f99e87c962bbc0cf6dc92d2,2021-09-27_17h13.52.428,forced_choiceRT_color,2021.2.3,MacIntel,59.97361161,,,,,,,,3,Ontime,short,d,1,1.9871,3,2,14,0,1,,,,,
0.92,,,,,,,,,j,red,5f99e87c962bbc0cf6dc92d2,2021-09-27_17h13.52.428,forced_choiceRT_color,2021.2.3,MacIntel,59.97361161,,,,,,,,3,Ontime,short,j,1,2.0049,3,3,15,2,1,,,,,
0.56,,,,,,,,,j,red,5f99e87c962bbc0cf6dc92d2,2021-09-27_17h13.52.428,forced_choiceRT_color,2021.2.3,MacIntel,59.97361161,,,,,,,,3,Ontime,short,j,1,1.9832,4,0,16,2,1,,,,,
1.4,,,,,,,,,j,red,5f99e87c962bbc0cf6dc92d2,2021-09-27_17h13.52.428,forced_choiceRT_color,2021.2.3,MacIntel,59.97361161,,,,,,,,3,Ontime,short,j,1,1.9176,4,1,17,2,1,,,,,
1.81,,,,,,,,,k,purple,5f99e87c962bbc0cf6dc92d2,2021-09-27_17h13.52.428,forced_choiceRT_color,2021.2.3,MacIntel,59.97361161,,,,,,,,3,Slow,short,k,1,2.3019,4,2,18,3,1,,,,,
0.49,,,,,,,,,j,red,5f99e87c962bbc0cf6dc92d2,2021-09-27_17h13.52.428,forced_choiceRT_color,2021.2.3,MacIntel,59.97361161,,,,,,,,3,Ontime,short,j,1,1.9138,4,3,19,2,1,,,,,
1.11,,,,,,,,,d,orange,5f99e87c962bbc0cf6dc92d2,2021-09-27_17h13.52.428,forced_choiceRT_color,2021.2.3,MacIntel,59.97361161,,,,,,,,3,Ontime,short,d,1,2.0399,5,0,20,0,1,,,,,
1.55,,,,,,,,,k,purple,5f99e87c962bbc0cf6dc92d2,2021-09-27_17h13.52.428,forced_choiceRT_color,2021.2.3,MacIntel,59.97361161,,,,,,,,3,Ontime,short,j,0,2.0686,5,1,21,3,1,,,,,
0.34,,,,,,,,,j,red,5f99e87c962bbc0cf6dc92d2,2021-09-27_17h13.52.428,forced_choiceRT_color,2021.2.3,MacIntel,59.97361161,,,,,,,,3,Fast,short,k,0,0.102,5,2,22,2,1,,,,,
1.9,,,,,,,,,d,orange,5f99e87c962bbc0cf6dc92d2,2021-09-27_17h13.52.428,forced_choiceRT_color,2021.2.3,MacIntel,59.97361161,,,,,,,,3,Slow,short,d,1,2.3835,5,3,23,0,1,,,,,
0.86,,,,,,,,,j,red,5f99e87c962bbc0cf6dc92d2,2021-09-27_17h13.52.428,forced_choiceRT_color,2021.2.3,MacIntel,59.97361161,,,,,,,,3,Fast,short,j,1,1.8858,6,0,24,2,1,,,,,
0.06,,,,,,,,,d,orange,5f99e87c962bbc0cf6dc92d2,2021-09-27_17h13.52.428,forced_choiceRT_color,2021.2.3,MacIntel,59.97361161,,,,,,,,3,Ontime,short,d,1,2.0313,6,1,25,0,1,,,,,
0.99,,,,,,,,,f,blue,5f99e87c962bbc0cf6dc92d2,2021-09-27_17h13.52.428,forced_choiceRT_color,2021.2.3,MacIntel,59.97361161,,,,,,,,3,Ontime,short,f,1,1.9165,6,2,26,1,1,,,,,
0.5,,,,,,,,,f,blue,5f99e87c962bbc0cf6dc92d2,2021-09-27_17h13.52.428,forced_choiceRT_color,2021.2.3,MacIntel,59.97361161,,,,,,,,3,Fast,short,f,1,1.8677,6,3,27,1,1,,,,,
1.69,,,,,,,,,k,purple,5f99e87c962bbc0cf6dc92d2,2021-09-27_17h13.52.428,forced_choiceRT_color,2021.2.3,MacIntel,59.97361161,,,,,,,,3,Slow,short,k,1,2.2028,7,0,28,3,1,,,,,
1.68,,,,,,,,,d,orange,5f99e87c962bbc0cf6dc92d2,2021-09-27_17h13.52.428,forced_choiceRT_color,2021.2.3,MacIntel,59.97361161,,,,,,,,3,Slow,short,d,1,2.2858,7,1,29,0,1,,,,,
1.04,,,,,,,,,j,red,5f99e87c962bbc0cf6dc92d2,2021-09-27_17h13.52.428,forced_choiceRT_color,2021.2.3,MacIntel,59.97361161,,,,,,,,3,Ontime,short,j,1,1.929,7,2,30,2,1,,,,,
0.3,,,,,,,,,k,purple,5f99e87c962bbc0cf6dc92d2,2021-09-27_17h13.52.428,forced_choiceRT_color,2021.2.3,MacIntel,59.97361161,,,,,,,,3,Fast,short,k,1,1.7687,7,3,31,3,1,,,,,
1.64,,,,,,,,,j,red,5f99e87c962bbc0cf6dc92d2,2021-09-27_17h13.52.428,forced_choiceRT_color,2021.2.3,MacIntel,59.97361161,,,,,,,,3,Slow,short,j,1,3.7373,8,0,32,2,1,,,,,
1.5,,,,,,,,,f,blue,5f99e87c962bbc0cf6dc92d2,2021-09-27_17h13.52.428,forced_choiceRT_color,2021.2.3,MacIntel,59.97361161,,,,,,,,3,Ontime,short,d,0,2.0299,8,1,33,1,1,,,,,
1.36,,,,,,,,,d,orange,5f99e87c962bbc0cf6dc92d2,2021-09-27_17h13.52.428,forced_choiceRT_color,2021.2.3,MacIntel,59.97361161,,,,,,,,3,Ontime,short,d,1,1.9903,8,2,34,0,1,,,,,
0.08,,,,,,,,,k,purple,5f99e87c962bbc0cf6dc92d2,2021-09-27_17h13.52.428,forced_choiceRT_color,2021.2.3,MacIntel,59.97361161,,,,,,,,3,Ontime,short,k,1,2.0247,8,3,35,3,1,,,,,
1.21,,,,,,,,,d,orange,5f99e87c962bbc0cf6dc92d2,2021-09-27_17h13.52.428,forced_choiceRT_color,2021.2.3,MacIntel,59.97361161,,,,,,,,3,Slow,short,d,1,2.1076,9,0,36,0,1,,,,,
0.47,,,,,,,,,k,purple,5f99e87c962bbc0cf6dc92d2,2021-09-27_17h13.52.428,forced_choiceRT_color,2021.2.3,MacIntel,59.97361161,,,,,,,,3,Ontime,short,k,1,2.0196,9,1,37,3,1,,,,,
0.85,,,,,,,,,j,red,5f99e87c962bbc0cf6dc92d2,2021-09-27_17h13.52.428,forced_choiceRT_color,2021.2.3,MacIntel,59.97361161,,,,,,,,3,Slow,short,j,1,2.3856,9,2,38,2,1,,,,,
0.57,,,,,,,,,j,red,5f99e87c962bbc0cf6dc92d2,2021-09-27_17h13.52.428,forced_choiceRT_color,2021.2.3,MacIntel,59.97361161,,,,,,,,3,Ontime,short,j,1,1.9808,9,3,39,2,1,,,,,
,,,,,,,,,,,5f99e87c962bbc0cf6dc92d2,2021-09-27_17h13.52.428,forced_choiceRT_color,2021.2.3,MacIntel,59.97361161,,,,,,,,,,,,,,,,,,,2,0,2,0,1
0.96,,,,,,,,,d,orange,5f99e87c962bbc0cf6dc92d2,2021-09-27_17h13.52.428,forced_choiceRT_color,2021.2.3,MacIntel,59.97361161,,,,,,,,4,Ontime,short,d,1,1.9606,0,0,0,0,1,,,,,
0.81,,,,,,,,,k,purple,5f99e87c962bbc0cf6dc92d2,2021-09-27_17h13.52.428,forced_choiceRT_color,2021.2.3,MacIntel,59.97361161,,,,,,,,4,Fast,short,k,1,1.8899,0,1,1,3,1,,,,,
1.21,,,,,,,,,k,purple,5f99e87c962bbc0cf6dc92d2,2021-09-27_17h13.52.428,forced_choiceRT_color,2021.2.3,MacIntel,59.97361161,,,,,,,,4,Fast,short,k,1,1.8861,0,2,2,3,1,,,,,
0.15,,,,,,,,,d,orange,5f99e87c962bbc0cf6dc92d2,2021-09-27_17h13.52.428,forced_choiceRT_color,2021.2.3,MacIntel,59.97361161,,,,,,,,4,Ontime,short,d,1,2.0199,0,3,3,0,1,,,,,
0.67,,,,,,,,,k,purple,5f99e87c962bbc0cf6dc92d2,2021-09-27_17h13.52.428,forced_choiceRT_color,2021.2.3,MacIntel,59.97361161,,,,,,,,4,Slow,short,k,1,2.1226,1,0,4,3,1,,,,,
1,,,,,,,,,j,red,5f99e87c962bbc0cf6dc92d2,2021-09-27_17h13.52.428,forced_choiceRT_color,2021.2.3,MacIntel,59.97361161,,,,,,,,4,Ontime,short,j,1,2.0475,1,1,5,2,1,,,,,
0.66,,,,,,,,,f,blue,5f99e87c962bbc0cf6dc92d2,2021-09-27_17h13.52.428,forced_choiceRT_color,2021.2.3,MacIntel,59.97361161,,,,,,,,4,Fast,short,f,1,1.8668,1,2,6,1,1,,,,,
0.23,,,,,,,,,f,blue,5f99e87c962bbc0cf6dc92d2,2021-09-27_17h13.52.428,forced_choiceRT_color,2021.2.3,MacIntel,59.97361161,,,,,,,,4,Ontime,short,f,1,1.9191,1,3,7,1,1,,,,,
1.72,,,,,,,,,d,orange,5f99e87c962bbc0cf6dc92d2,2021-09-27_17h13.52.428,forced_choiceRT_color,2021.2.3,MacIntel,59.97361161,,,,,,,,4,Slow,short,d,1,2.3067,2,0,8,0,1,,,,,
1,,,,,,,,,d,orange,5f99e87c962bbc0cf6dc92d2,2021-09-27_17h13.52.428,forced_choiceRT_color,2021.2.3,MacIntel,59.97361161,,,,,,,,4,Fast,short,d,1,1.8524,2,1,9,0,1,,,,,
0.38,,,,,,,,,d,orange,5f99e87c962bbc0cf6dc92d2,2021-09-27_17h13.52.428,forced_choiceRT_color,2021.2.3,MacIntel,59.97361161,,,,,,,,4,Ontime,short,d,1,2.0844,2,2,10,0,1,,,,,
1.47,,,,,,,,,k,purple,5f99e87c962bbc0cf6dc92d2,2021-09-27_17h13.52.428,forced_choiceRT_color,2021.2.3,MacIntel,59.97361161,,,,,,,,4,Slow,short,k,1,2.1362,2,3,11,3,1,,,,,
0.69,,,,,,,,,j,red,5f99e87c962bbc0cf6dc92d2,2021-09-27_17h13.52.428,forced_choiceRT_color,2021.2.3,MacIntel,59.97361161,,,,,,,,4,Fast,short,j,1,1.6309,3,0,12,2,1,,,,,
0.96,,,,,,,,,k,purple,5f99e87c962bbc0cf6dc92d2,2021-09-27_17h13.52.428,forced_choiceRT_color,2021.2.3,MacIntel,59.97361161,,,,,,,,4,Fast,short,k,1,1.803,3,1,13,3,1,,,,,
0.18,,,,,,,,,j,red,5f99e87c962bbc0cf6dc92d2,2021-09-27_17h13.52.428,forced_choiceRT_color,2021.2.3,MacIntel,59.97361161,,,,,,,,4,Ontime,short,j,1,1.9532,3,2,14,2,1,,,,,
0.43,,,,,,,,,d,orange,5f99e87c962bbc0cf6dc92d2,2021-09-27_17h13.52.428,forced_choiceRT_color,2021.2.3,MacIntel,59.97361161,,,,,,,,4,Ontime,short,d,1,2.0403,3,3,15,0,1,,,,,
0.09,,,,,,,,,k,purple,5f99e87c962bbc0cf6dc92d2,2021-09-27_17h13.52.428,forced_choiceRT_color,2021.2.3,MacIntel,59.97361161,,,,,,,,4,Ontime,short,k,1,2.0345,4,0,16,3,1,,,,,
1.93,,,,,,,,,f,blue,5f99e87c962bbc0cf6dc92d2,2021-09-27_17h13.52.428,forced_choiceRT_color,2021.2.3,MacIntel,59.97361161,,,,,,,,4,Slow,short,f,1,3.2196,4,1,17,1,1,,,,,
0.23,,,,,,,,,j,red,5f99e87c962bbc0cf6dc92d2,2021-09-27_17h13.52.428,forced_choiceRT_color,2021.2.3,MacIntel,59.97361161,,,,,,,,4,Fast,short,j,1,1.8984,4,2,18,2,1,,,,,
0.66,,,,,,,,,k,purple,5f99e87c962bbc0cf6dc92d2,2021-09-27_17h13.52.428,forced_choiceRT_color,2021.2.3,MacIntel,59.97361161,,,,,,,,4,Ontime,short,k,1,2.0702,4,3,19,3,1,,,,,
1.52,,,,,,,,,f,blue,5f99e87c962bbc0cf6dc92d2,2021-09-27_17h13.52.428,forced_choiceRT_color,2021.2.3,MacIntel,59.97361161,,,,,,,,4,Slow,short,f,1,2.272,5,0,20,1,1,,,,,
1.63,,,,,,,,,f,blue,5f99e87c962bbc0cf6dc92d2,2021-09-27_17h13.52.428,forced_choiceRT_color,2021.2.3,MacIntel,59.97361161,,,,,,,,4,Slow,short,f,1,2.3123,5,1,21,1,1,,,,,
1.99,,,,,,,,,j,red,5f99e87c962bbc0cf6dc92d2,2021-09-27_17h13.52.428,forced_choiceRT_color,2021.2.3,MacIntel,59.97361161,,,,,,,,4,Slow,short,j,1,3.0706,5,2,22,2,1,,,,,
1.79,,,,,,,,,k,purple,5f99e87c962bbc0cf6dc92d2,2021-09-27_17h13.52.428,forced_choiceRT_color,2021.2.3,MacIntel,59.97361161,,,,,,,,4,Slow,short,k,1,2.3273,5,3,23,3,1,,,,,
0.84,,,,,,,,,k,purple,5f99e87c962bbc0cf6dc92d2,2021-09-27_17h13.52.428,forced_choiceRT_color,2021.2.3,MacIntel,59.97361161,,,,,,,,4,Fast,short,k,1,1.7855,6,0,24,3,1,,,,,
0.16,,,,,,,,,d,orange,5f99e87c962bbc0cf6dc92d2,2021-09-27_17h13.52.428,forced_choiceRT_color,2021.2.3,MacIntel,59.97361161,,,,,,,,4,Ontime,short,d,1,2.0495,6,1,25,0,1,,,,,
0,,,,,,,,,d,orange,5f99e87c962bbc0cf6dc92d2,2021-09-27_17h13.52.428,forced_choiceRT_color,2021.2.3,MacIntel,59.97361161,,,,,,,,4,Ontime,short,d,1,2.0697,6,2,26,0,1,,,,,
1.53,,,,,,,,,f,blue,5f99e87c962bbc0cf6dc92d2,2021-09-27_17h13.52.428,forced_choiceRT_color,2021.2.3,MacIntel,59.97361161,,,,,,,,4,Slow,short,f,1,2.5244,6,3,27,1,1,,,,,
1.59,,,,,,,,,d,orange,5f99e87c962bbc0cf6dc92d2,2021-09-27_17h13.52.428,forced_choiceRT_color,2021.2.3,MacIntel,59.97361161,,,,,,,,4,Slow,short,d,1,2.3139,7,0,28,0,1,,,,,
1.24,,,,,,,,,j,red,5f99e87c962bbc0cf6dc92d2,2021-09-27_17h13.52.428,forced_choiceRT_color,2021.2.3,MacIntel,59.97361161,,,,,,,,4,Ontime,short,j,1,1.9531,7,1,29,2,1,,,,,
0.43,,,,,,,,,f,blue,5f99e87c962bbc0cf6dc92d2,2021-09-27_17h13.52.428,forced_choiceRT_color,2021.2.3,MacIntel,59.97361161,,,,,,,,4,Fast,short,f,1,1.8533,7,2,30,1,1,,,,,
1.43,,,,,,,,,j,red,5f99e87c962bbc0cf6dc92d2,2021-09-27_17h13.52.428,forced_choiceRT_color,2021.2.3,MacIntel,59.97361161,,,,,,,,4,Slow,short,j,1,2.8471,7,3,31,2,1,,,,,
0.55,,,,,,,,,j,red,5f99e87c962bbc0cf6dc92d2,2021-09-27_17h13.52.428,forced_choiceRT_color,2021.2.3,MacIntel,59.97361161,,,,,,,,4,Ontime,short,j,1,2.0236,8,0,32,2,1,,,,,
1.83,,,,,,,,,f,blue,5f99e87c962bbc0cf6dc92d2,2021-09-27_17h13.52.428,forced_choiceRT_color,2021.2.3,MacIntel,59.97361161,,,,,,,,4,Slow,short,k,0,2.3835,8,1,33,1,1,,,,,
0.09,,,,,,,,,j,red,5f99e87c962bbc0cf6dc92d2,2021-09-27_17h13.52.428,forced_choiceRT_color,2021.2.3,MacIntel,59.97361161,,,,,,,,4,Ontime,short,j,1,2.0438,8,2,34,2,1,,,,,
0.8,,,,,,,,,f,blue,5f99e87c962bbc0cf6dc92d2,2021-09-27_17h13.52.428,forced_choiceRT_color,2021.2.3,MacIntel,59.97361161,,,,,,,,4,Ontime,short,f,1,2.0184,8,3,35,1,1,,,,,
0.93,,,,,,,,,f,blue,5f99e87c962bbc0cf6dc92d2,2021-09-27_17h13.52.428,forced_choiceRT_color,2021.2.3,MacIntel,59.97361161,,,,,,,,4,Ontime,short,f,1,2.0173,9,0,36,1,1,,,,,
0.08,,,,,,,,,j,red,5f99e87c962bbc0cf6dc92d2,2021-09-27_17h13.52.428,forced_choiceRT_color,2021.2.3,MacIntel,59.97361161,,,,,,,,4,Ontime,short,j,1,2.036,9,1,37,2,1,,,,,
1.36,,,,,,,,,k,purple,5f99e87c962bbc0cf6dc92d2,2021-09-27_17h13.52.428,forced_choiceRT_color,2021.2.3,MacIntel,59.97361161,,,,,,,,4,Slow,short,k,1,2.1248,9,2,38,3,1,,,,,
0.08,,,,,,,,,d,orange,5f99e87c962bbc0cf6dc92d2,2021-09-27_17h13.52.428,forced_choiceRT_color,2021.2.3,MacIntel,59.97361161,,,,,,,,4,Ontime,short,d,1,2.0193,9,3,39,0,1,,,,,
,,,,,,,,,,,5f99e87c962bbc0cf6dc92d2,2021-09-27_17h13.52.428,forced_choiceRT_color,2021.2.3,MacIntel,59.97361161,,,,,,,,,,,,,,,,,,,3,0,3,0,1
0.91,,,,,,,,,k,purple,5f99e87c962bbc0cf6dc92d2,2021-09-27_17h13.52.428,forced_choiceRT_color,2021.2.3,MacIntel,59.97361161,,,,,,,,5,Fast,short,k,1,1.86,0,0,0,3,1,,,,,
0.8,,,,,,,,,f,blue,5f99e87c962bbc0cf6dc92d2,2021-09-27_17h13.52.428,forced_choiceRT_color,2021.2.3,MacIntel,59.97361161,,,,,,,,5,Fast,short,f,1,1.8866,0,1,1,1,1,,,,,
1.73,,,,,,,,,j,red,5f99e87c962bbc0cf6dc92d2,2021-09-27_17h13.52.428,forced_choiceRT_color,2021.2.3,MacIntel,59.97361161,,,,,,,,5,Slow,short,j,1,2.6698,0,2,2,2,1,,,,,
1.2,,,,,,,,,j,red,5f99e87c962bbc0cf6dc92d2,2021-09-27_17h13.52.428,forced_choiceRT_color,2021.2.3,MacIntel,59.97361161,,,,,,,,5,Ontime,short,j,1,1.9319,0,3,3,2,1,,,,,
0.42,,,,,,,,,d,orange,5f99e87c962bbc0cf6dc92d2,2021-09-27_17h13.52.428,forced_choiceRT_color,2021.2.3,MacIntel,59.97361161,,,,,,,,5,Ontime,short,d,1,2.082,1,0,4,0,1,,,,,
0.02,,,,,,,,,d,orange,5f99e87c962bbc0cf6dc92d2,2021-09-27_17h13.52.428,forced_choiceRT_color,2021.2.3,MacIntel,59.97361161,,,,,,,,5,Ontime,short,d,1,1.9521,1,1,5,0,1,,,,,
0.4,,,,,,,,,f,blue,5f99e87c962bbc0cf6dc92d2,2021-09-27_17h13.52.428,forced_choiceRT_color,2021.2.3,MacIntel,59.97361161,,,,,,,,5,Fast,short,f,1,1.8349,1,2,6,1,1,,,,,
1.91,,,,,,,,,k,purple,5f99e87c962bbc0cf6dc92d2,2021-09-27_17h13.52.428,forced_choiceRT_color,2021.2.3,MacIntel,59.97361161,,,,,,,,5,Slow,short,k,1,2.4823,1,3,7,3,1,,,,,
1.29,,,,,,,,,j,red,5f99e87c962bbc0cf6dc92d2,2021-09-27_17h13.52.428,forced_choiceRT_color,2021.2.3,MacIntel,59.97361161,,,,,,,,5,Ontime,short,f,0,2.0812,2,0,8,2,1,,,,,
1.75,,,,,,,,,f,blue,5f99e87c962bbc0cf6dc92d2,2021-09-27_17h13.52.428,forced_choiceRT_color,2021.2.3,MacIntel,59.97361161,,,,,,,,5,Slow,short,f,1,2.4057,2,1,9,1,1,,,,,
0.36,,,,,,,,,k,purple,5f99e87c962bbc0cf6dc92d2,2021-09-27_17h13.52.428,forced_choiceRT_color,2021.2.3,MacIntel,59.97361161,,,,,,,,5,Ontime,short,k,1,2.0351,2,2,10,3,1,,,,,
0.29,,,,,,,,,j,red,5f99e87c962bbc0cf6dc92d2,2021-09-27_17h13.52.428,forced_choiceRT_color,2021.2.3,MacIntel,59.97361161,,,,,,,,5,Ontime,short,j,1,2.0042,2,3,11,2,1,,,,,
1.07,,,,,,,,,d,orange,5f99e87c962bbc0cf6dc92d2,2021-09-27_17h13.52.428,forced_choiceRT_color,2021.2.3,MacIntel,59.97361161,,,,,,,,5,Ontime,short,d,1,1.9856,3,0,12,0,1,,,,,
1.06,,,,,,,,,d,orange,5f99e87c962bbc0cf6dc92d2,2021-09-27_17h13.52.428,forced_choiceRT_color,2021.2.3,MacIntel,59.97361161,,,,,,,,5,Ontime,short,d,1,1.9565,3,1,13,0,1,,,,,
0.66,,,,,,,,,f,blue,5f99e87c962bbc0cf6dc92d2,2021-09-27_17h13.52.428,forced_choiceRT_color,2021.2.3,MacIntel,59.97361161,,,,,,,,5,Fast,short,f,1,1.604,3,2,14,1,1,,,,,
0.23,,,,,,,,,d,orange,5f99e87c962bbc0cf6dc92d2,2021-09-27_17h13.52.428,forced_choiceRT_color,2021.2.3,MacIntel,59.97361161,,,,,,,,5,Fast,short,d,1,1.8207,3,3,15,0,1,,,,,
0.2,,,,,,,,,j,red,5f99e87c962bbc0cf6dc92d2,2021-09-27_17h13.52.428,forced_choiceRT_color,2021.2.3,MacIntel,59.97361161,,,,,,,,5,Ontime,short,j,1,2.064,4,0,16,2,1,,,,,
1.91,,,,,,,,,k,purple,5f99e87c962bbc0cf6dc92d2,2021-09-27_17h13.52.428,forced_choiceRT_color,2021.2.3,MacIntel,59.97361161,,,,,,,,5,Slow,short,k,1,2.2518,4,1,17,3,1,,,,,
0.19,,,,,,,,,f,blue,5f99e87c962bbc0cf6dc92d2,2021-09-27_17h13.52.428,forced_choiceRT_color,2021.2.3,MacIntel,59.97361161,,,,,,,,5,Ontime,short,f,1,1.9706,4,2,18,1,1,,,,,
1.79,,,,,,,,,f,blue,5f99e87c962bbc0cf6dc92d2,2021-09-27_17h13.52.428,forced_choiceRT_color,2021.2.3,MacIntel,59.97361161,,,,,,,,5,Slow,short,f,1,2.5391,4,3,19,1,1,,,,,
1.35,,,,,,,,,k,purple,5f99e87c962bbc0cf6dc92d2,2021-09-27_17h13.52.428,forced_choiceRT_color,2021.2.3,MacIntel,59.97361161,,,,,,,,5,Slow,short,k,1,2.3039,5,0,20,3,1,,,,,
1.39,,,,,,,,,f,blue,5f99e87c962bbc0cf6dc92d2,2021-09-27_17h13.52.428,forced_choiceRT_color,2021.2.3,MacIntel,59.97361161,,,,,,,,5,Slow,short,f,1,2.1283,5,1,21,1,1,,,,,
1.71,,,,,,,,,f,blue,5f99e87c962bbc0cf6dc92d2,2021-09-27_17h13.52.428,forced_choiceRT_color,2021.2.3,MacIntel,59.97361161,,,,,,,,5,Slow,short,f,1,2.3352,5,2,22,1,1,,,,,
1.8,,,,,,,,,j,red,5f99e87c962bbc0cf6dc92d2,2021-09-27_17h13.52.428,forced_choiceRT_color,2021.2.3,MacIntel,59.97361161,,,,,,,,5,Slow,short,j,1,2.5965,5,3,23,2,1,,,,,
1.7,,,,,,,,,j,red,5f99e87c962bbc0cf6dc92d2,2021-09-27_17h13.52.428,forced_choiceRT_color,2021.2.3,MacIntel,59.97361161,,,,,,,,5,Slow,short,j,1,2.2352,6,0,24,2,1,,,,,
1.83,,,,,,,,,k,purple,5f99e87c962bbc0cf6dc92d2,2021-09-27_17h13.52.428,forced_choiceRT_color,2021.2.3,MacIntel,59.97361161,,,,,,,,5,Slow,short,k,1,2.4468,6,1,25,3,1,,,,,
0.53,,,,,,,,,j,red,5f99e87c962bbc0cf6dc92d2,2021-09-27_17h13.52.428,forced_choiceRT_color,2021.2.3,MacIntel,59.97361161,,,,,,,,5,Fast,short,j,1,1.8817,6,2,26,2,1,,,,,
1.67,,,,,,,,,k,purple,5f99e87c962bbc0cf6dc92d2,2021-09-27_17h13.52.428,forced_choiceRT_color,2021.2.3,MacIntel,59.97361161,,,,,,,,5,Slow,short,k,1,2.1861,6,3,27,3,1,,,,,
0.25,,,,,,,,,k,purple,5f99e87c962bbc0cf6dc92d2,2021-09-27_17h13.52.428,forced_choiceRT_color,2021.2.3,MacIntel,59.97361161,,,,,,,,5,Ontime,short,k,1,2.0307,7,0,28,3,1,,,,,
1.73,,,,,,,,,d,orange,5f99e87c962bbc0cf6dc92d2,2021-09-27_17h13.52.428,forced_choiceRT_color,2021.2.3,MacIntel,59.97361161,,,,,,,,5,Slow,short,d,1,2.7882,7,1,29,0,1,,,,,
0.1,,,,,,,,,f,blue,5f99e87c962bbc0cf6dc92d2,2021-09-27_17h13.52.428,forced_choiceRT_color,2021.2.3,MacIntel,59.97361161,,,,,,,,5,Ontime,short,f,1,2.0024,7,2,30,1,1,,,,,
1.04,,,,,,,,,d,orange,5f99e87c962bbc0cf6dc92d2,2021-09-27_17h13.52.428,forced_choiceRT_color,2021.2.3,MacIntel,59.97361161,,,,,,,,5,Slow,short,d,1,2.1019,7,3,31,0,1,,,,,
1.85,,,,,,,,,d,orange,5f99e87c962bbc0cf6dc92d2,2021-09-27_17h13.52.428,forced_choiceRT_color,2021.2.3,MacIntel,59.97361161,,,,,,,,5,Slow,short,d,1,2.4468,8,0,32,0,1,,,,,
0.61,,,,,,,,,j,red,5f99e87c962bbc0cf6dc92d2,2021-09-27_17h13.52.428,forced_choiceRT_color,2021.2.3,MacIntel,59.97361161,,,,,,,,5,Ontime,short,j,1,2.0195,8,1,33,2,1,,,,,
0.42,,,,,,,,,d,orange,5f99e87c962bbc0cf6dc92d2,2021-09-27_17h13.52.428,forced_choiceRT_color,2021.2.3,MacIntel,59.97361161,,,,,,,,5,Ontime,short,d,1,2.0918,8,2,34,0,1,,,,,
0.23,,,,,,,,,j,red,5f99e87c962bbc0cf6dc92d2,2021-09-27_17h13.52.428,forced_choiceRT_color,2021.2.3,MacIntel,59.97361161,,,,,,,,5,Fast,short,j,1,1.871,8,3,35,2,1,,,,,
0.92,,,,,,,,,k,purple,5f99e87c962bbc0cf6dc92d2,2021-09-27_17h13.52.428,forced_choiceRT_color,2021.2.3,MacIntel,59.97361161,,,,,,,,5,Ontime,short,k,1,1.9193,9,0,36,3,1,,,,,
0.86,,,,,,,,,k,purple,5f99e87c962bbc0cf6dc92d2,2021-09-27_17h13.52.428,forced_choiceRT_color,2021.2.3,MacIntel,59.97361161,,,,,,,,5,Fast,short,k,1,1.8971,9,1,37,3,1,,,,,
1.3,,,,,,,,,f,blue,5f99e87c962bbc0cf6dc92d2,2021-09-27_17h13.52.428,forced_choiceRT_color,2021.2.3,MacIntel,59.97361161,,,,,,,,5,Slow,short,f,1,2.1455,9,2,38,1,1,,,,,
1.06,,,,,,,,,d,orange,5f99e87c962bbc0cf6dc92d2,2021-09-27_17h13.52.428,forced_choiceRT_color,2021.2.3,MacIntel,59.97361161,,,,,,,,5,Ontime,short,d,1,2.0364,9,3,39,0,1,,,,,
,,,,,,,,,,,5f99e87c962bbc0cf6dc92d2,2021-09-27_17h13.52.428,forced_choiceRT_color,2021.2.3,MacIntel,59.97361161,,,,,,,,,,,,,,,,,,,4,0,4,0,1
0.97,,,,,,,,,k,purple,5f99e87c962bbc0cf6dc92d2,2021-09-27_17h13.52.428,forced_choiceRT_color,2021.2.3,MacIntel,59.97361161,,,,,,,,6,Ontime,short,k,1,1.9056,0,0,0,3,1,,,,,
1.08,,,,,,,,,d,orange,5f99e87c962bbc0cf6dc92d2,2021-09-27_17h13.52.428,forced_choiceRT_color,2021.2.3,MacIntel,59.97361161,,,,,,,,6,Fast,short,d,1,1.8374,0,1,1,0,1,,,,,
0.75,,,,,,,,,k,purple,5f99e87c962bbc0cf6dc92d2,2021-09-27_17h13.52.428,forced_choiceRT_color,2021.2.3,MacIntel,59.97361161,,,,,,,,6,Ontime,short,k,1,2.0139,0,2,2,3,1,,,,,
1.64,,,,,,,,,d,orange,5f99e87c962bbc0cf6dc92d2,2021-09-27_17h13.52.428,forced_choiceRT_color,2021.2.3,MacIntel,59.97361161,,,,,,,,6,Slow,short,d,1,2.1887,0,3,3,0,1,,,,,
1.04,,,,,,,,,d,orange,5f99e87c962bbc0cf6dc92d2,2021-09-27_17h13.52.428,forced_choiceRT_color,2021.2.3,MacIntel,59.97361161,,,,,,,,6,Ontime,short,d,1,1.9702,1,0,4,0,1,,,,,
1.39,,,,,,,,,f,blue,5f99e87c962bbc0cf6dc92d2,2021-09-27_17h13.52.428,forced_choiceRT_color,2021.2.3,MacIntel,59.97361161,,,,,,,,6,Ontime,short,d,0,2.0905,1,1,5,1,1,,,,,
0.52,,,,,,,,,j,red,5f99e87c962bbc0cf6dc92d2,2021-09-27_17h13.52.428,forced_choiceRT_color,2021.2.3,MacIntel,59.97361161,,,,,,,,6,Ontime,short,j,1,2.0412,1,2,6,2,1,,,,,
0.65,,,,,,,,,f,blue,5f99e87c962bbc0cf6dc92d2,2021-09-27_17h13.52.428,forced_choiceRT_color,2021.2.3,MacIntel,59.97361161,,,,,,,,6,Ontime,short,f,1,2.0196,1,3,7,1,1,,,,,
1.09,,,,,,,,,k,purple,5f99e87c962bbc0cf6dc92d2,2021-09-27_17h13.52.428,forced_choiceRT_color,2021.2.3,MacIntel,59.97361161,,,,,,,,6,Ontime,short,k,1,2.0893,2,0,8,3,1,,,,,
0.22,,,,,,,,,k,purple,5f99e87c962bbc0cf6dc92d2,2021-09-27_17h13.52.428,forced_choiceRT_color,2021.2.3,MacIntel,59.97361161,,,,,,,,6,Ontime,short,k,1,1.9858,2,1,9,3,1,,,,,
0.08,,,,,,,,,k,purple,5f99e87c962bbc0cf6dc92d2,2021-09-27_17h13.52.428,forced_choiceRT_color,2021.2.3,MacIntel,59.97361161,,,,,,,,6,Ontime,short,k,1,2.0217,2,2,10,3,1,,,,,
0.94,,,,,,,,,j,red,5f99e87c962bbc0cf6dc92d2,2021-09-27_17h13.52.428,forced_choiceRT_color,2021.2.3,MacIntel,59.97361161,,,,,,,,6,Ontime,short,j,1,2.069,2,3,11,2,1,,,,,
1.51,,,,,,,,,f,blue,5f99e87c962bbc0cf6dc92d2,2021-09-27_17h13.52.428,forced_choiceRT_color,2021.2.3,MacIntel,59.97361161,,,,,,,,6,Slow,short,f,1,2.4654,3,0,12,1,1,,,,,
1.45,,,,,,,,,d,orange,5f99e87c962bbc0cf6dc92d2,2021-09-27_17h13.52.428,forced_choiceRT_color,2021.2.3,MacIntel,59.97361161,,,,,,,,6,Ontime,short,d,1,1.9096,3,1,13,0,1,,,,,
0.44,,,,,,,,,j,red,5f99e87c962bbc0cf6dc92d2,2021-09-27_17h13.52.428,forced_choiceRT_color,2021.2.3,MacIntel,59.97361161,,,,,,,,6,Ontime,short,j,1,2.0221,3,2,14,2,1,,,,,
0.95,,,,,,,,,j,red,5f99e87c962bbc0cf6dc92d2,2021-09-27_17h13.52.428,forced_choiceRT_color,2021.2.3,MacIntel,59.97361161,,,,,,,,6,Ontime,short,j,1,1.9683,3,3,15,2,1,,,,,
0.97,,,,,,,,,j,red,5f99e87c962bbc0cf6dc92d2,2021-09-27_17h13.52.428,forced_choiceRT_color,2021.2.3,MacIntel,59.97361161,,,,,,,,6,Ontime,short,j,1,2.0559,4,0,16,2,1,,,,,
0.46,,,,,,,,,d,orange,5f99e87c962bbc0cf6dc92d2,2021-09-27_17h13.52.428,forced_choiceRT_color,2021.2.3,MacIntel,59.97361161,,,,,,,,6,Ontime,short,d,1,2.0244,4,1,17,0,1,,,,,
1.17,,,,,,,,,f,blue,5f99e87c962bbc0cf6dc92d2,2021-09-27_17h13.52.428,forced_choiceRT_color,2021.2.3,MacIntel,59.97361161,,,,,,,,6,Ontime,short,f,1,2.0591,4,2,18,1,1,,,,,
1.03,,,,,,,,,k,purple,5f99e87c962bbc0cf6dc92d2,2021-09-27_17h13.52.428,forced_choiceRT_color,2021.2.3,MacIntel,59.97361161,,,,,,,,6,Ontime,short,k,1,2.0305,4,3,19,3,1,,,,,
0.96,,,,,,,,,j,red,5f99e87c962bbc0cf6dc92d2,2021-09-27_17h13.52.428,forced_choiceRT_color,2021.2.3,MacIntel,59.97361161,,,,,,,,6,Ontime,short,j,1,2.0798,5,0,20,2,1,,,,,
1.48,,,,,,,,,f,blue,5f99e87c962bbc0cf6dc92d2,2021-09-27_17h13.52.428,forced_choiceRT_color,2021.2.3,MacIntel,59.97361161,,,,,,,,6,Ontime,short,k,0,1.9689,5,1,21,1,1,,,,,
0.99,,,,,,,,,d,orange,5f99e87c962bbc0cf6dc92d2,2021-09-27_17h13.52.428,forced_choiceRT_color,2021.2.3,MacIntel,59.97361161,,,,,,,,6,Fast,short,d,1,1.8565,5,2,22,0,1,,,,,
1.34,,,,,,,,,f,blue,5f99e87c962bbc0cf6dc92d2,2021-09-27_17h13.52.428,forced_choiceRT_color,2021.2.3,MacIntel,59.97361161,,,,,,,,6,Slow,short,f,1,2.5196,5,3,23,1,1,,,,,
1.09,,,,,,,,,k,purple,5f99e87c962bbc0cf6dc92d2,2021-09-27_17h13.52.428,forced_choiceRT_color,2021.2.3,MacIntel,59.97361161,,,,,,,,6,Ontime,short,k,1,1.9146,6,0,24,3,1,,,,,
1.72,,,,,,,,,j,red,5f99e87c962bbc0cf6dc92d2,2021-09-27_17h13.52.428,forced_choiceRT_color,2021.2.3,MacIntel,59.97361161,,,,,,,,6,Slow,short,j,1,2.2542,6,1,25,2,1,,,,,
0.73,,,,,,,,,j,red,5f99e87c962bbc0cf6dc92d2,2021-09-27_17h13.52.428,forced_choiceRT_color,2021.2.3,MacIntel,59.97361161,,,,,,,,6,Ontime,short,j,1,2.0134,6,2,26,2,1,,,,,
1.04,,,,,,,,,f,blue,5f99e87c962bbc0cf6dc92d2,2021-09-27_17h13.52.428,forced_choiceRT_color,2021.2.3,MacIntel,59.97361161,,,,,,,,6,Ontime,short,f,1,2.0242,6,3,27,1,1,,,,,
1.43,,,,,,,,,d,orange,5f99e87c962bbc0cf6dc92d2,2021-09-27_17h13.52.428,forced_choiceRT_color,2021.2.3,MacIntel,59.97361161,,,,,,,,6,Ontime,short,d,1,2.0568,7,0,28,0,1,,,,,
1.04,,,,,,,,,f,blue,5f99e87c962bbc0cf6dc92d2,2021-09-27_17h13.52.428,forced_choiceRT_color,2021.2.3,MacIntel,59.97361161,,,,,,,,6,Fast,short,f,1,1.7863,7,1,29,1,1,,,,,
0.18,,,,,,,,,k,purple,5f99e87c962bbc0cf6dc92d2,2021-09-27_17h13.52.428,forced_choiceRT_color,2021.2.3,MacIntel,59.97361161,,,,,,,,6,Ontime,short,k,1,2.0199,7,2,30,3,1,,,,,
1.92,,,,,,,,,f,blue,5f99e87c962bbc0cf6dc92d2,2021-09-27_17h13.52.428,forced_choiceRT_color,2021.2.3,MacIntel,59.97361161,,,,,,,,6,Slow,short,f,1,2.5899,7,3,31,1,1,,,,,
1.51,,,,,,,,,k,purple,5f99e87c962bbc0cf6dc92d2,2021-09-27_17h13.52.428,forced_choiceRT_color,2021.2.3,MacIntel,59.97361161,,,,,,,,6,Ontime,short,k,1,2.0637,8,0,32,3,1,,,,,
0.16,,,,,,,,,f,blue,5f99e87c962bbc0cf6dc92d2,2021-09-27_17h13.52.428,forced_choiceRT_color,2021.2.3,MacIntel,59.97361161,,,,,,,,6,Ontime,short,f,1,2.0056,8,1,33,1,1,,,,,
0.39,,,,,,,,,k,purple,5f99e87c962bbc0cf6dc92d2,2021-09-27_17h13.52.428,forced_choiceRT_color,2021.2.3,MacIntel,59.97361161,,,,,,,,6,Ontime,short,k,1,2.0193,8,2,34,3,1,,,,,
0.71,,,,,,,,,j,red,5f99e87c962bbc0cf6dc92d2,2021-09-27_17h13.52.428,forced_choiceRT_color,2021.2.3,MacIntel,59.97361161,,,,,,,,6,Ontime,short,j,1,2.0238,8,3,35,2,1,,,,,
1.93,,,,,,,,,j,red,5f99e87c962bbc0cf6dc92d2,2021-09-27_17h13.52.428,forced_choiceRT_color,2021.2.3,MacIntel,59.97361161,,,,,,,,6,Slow,short,j,1,2.7751,9,0,36,2,1,,,,,
1.01,,,,,,,,,d,orange,5f99e87c962bbc0cf6dc92d2,2021-09-27_17h13.52.428,forced_choiceRT_color,2021.2.3,MacIntel,59.97361161,,,,,,,,6,Ontime,short,d,1,2.0699,9,1,37,0,1,,,,,
1.95,,,,,,,,,d,orange,5f99e87c962bbc0cf6dc92d2,2021-09-27_17h13.52.428,forced_choiceRT_color,2021.2.3,MacIntel,59.97361161,,,,,,,,6,Slow,short,d,1,2.7738,9,2,38,0,1,,,,,
1.42,,,,,,,,,d,orange,5f99e87c962bbc0cf6dc92d2,2021-09-27_17h13.52.428,forced_choiceRT_color,2021.2.3,MacIntel,59.97361161,,,,,,,,6,Ontime,short,d,1,1.9136,9,3,39,0,1,,,,,
,,,,,,,,,,,5f99e87c962bbc0cf6dc92d2,2021-09-27_17h13.52.428,forced_choiceRT_color,2021.2.3,MacIntel,59.97361161,,,,,,,,,,,,,,,,,,,5,0,5,0,1
0.42,,,,,,,,,j,red,5f99e87c962bbc0cf6dc92d2,2021-09-27_17h13.52.428,forced_choiceRT_color,2021.2.3,MacIntel,59.97361161,,,,,,,,7,Ontime,short,j,1,1.9742,0,0,0,2,1,,,,,
0.05,,,,,,,,,j,red,5f99e87c962bbc0cf6dc92d2,2021-09-27_17h13.52.428,forced_choiceRT_color,2021.2.3,MacIntel,59.97361161,,,,,,,,7,Ontime,short,j,1,2.03,0,1,1,2,1,,,,,
0.48,,,,,,,,,d,orange,5f99e87c962bbc0cf6dc92d2,2021-09-27_17h13.52.428,forced_choiceRT_color,2021.2.3,MacIntel,59.97361161,,,,,,,,7,Ontime,short,d,1,2.0681,0,2,2,0,1,,,,,
0.84,,,,,,,,,k,purple,5f99e87c962bbc0cf6dc92d2,2021-09-27_17h13.52.428,forced_choiceRT_color,2021.2.3,MacIntel,59.97361161,,,,,,,,7,Ontime,short,k,1,2.0746,0,3,3,3,1,,,,,
0.93,,,,,,,,,k,purple,5f99e87c962bbc0cf6dc92d2,2021-09-27_17h13.52.428,forced_choiceRT_color,2021.2.3,MacIntel,59.97361161,,,,,,,,7,Ontime,short,k,1,2.0064,1,0,4,3,1,,,,,
1.03,,,,,,,,,j,red,5f99e87c962bbc0cf6dc92d2,2021-09-27_17h13.52.428,forced_choiceRT_color,2021.2.3,MacIntel,59.97361161,,,,,,,,7,Slow,short,j,1,2.1403,1,1,5,2,1,,,,,
1.21,,,,,,,,,f,blue,5f99e87c962bbc0cf6dc92d2,2021-09-27_17h13.52.428,forced_choiceRT_color,2021.2.3,MacIntel,59.97361161,,,,,,,,7,Slow,short,f,1,2.2371,1,2,6,1,1,,,,,
0.32,,,,,,,,,d,orange,5f99e87c962bbc0cf6dc92d2,2021-09-27_17h13.52.428,forced_choiceRT_color,2021.2.3,MacIntel,59.97361161,,,,,,,,7,Ontime,short,d,1,2.0087,1,3,7,0,1,,,,,
0.21,,,,,,,,,f,blue,5f99e87c962bbc0cf6dc92d2,2021-09-27_17h13.52.428,forced_choiceRT_color,2021.2.3,MacIntel,59.97361161,,,,,,,,7,Ontime,short,f,1,2.0167,2,0,8,1,1,,,,,
0.58,,,,,,,,,k,purple,5f99e87c962bbc0cf6dc92d2,2021-09-27_17h13.52.428,forced_choiceRT_color,2021.2.3,MacIntel,59.97361161,,,,,,,,7,Ontime,short,k,1,2.0873,2,1,9,3,1,,,,,
1.85,,,,,,,,,j,red,5f99e87c962bbc0cf6dc92d2,2021-09-27_17h13.52.428,forced_choiceRT_color,2021.2.3,MacIntel,59.97361161,,,,,,,,7,Slow,short,j,1,3.0198,2,2,10,2,1,,,,,
0.2,,,,,,,,,f,blue,5f99e87c962bbc0cf6dc92d2,2021-09-27_17h13.52.428,forced_choiceRT_color,2021.2.3,MacIntel,59.97361161,,,,,,,,7,Ontime,short,f,1,2.0284,2,3,11,1,1,,,,,
1.98,,,,,,,,,d,orange,5f99e87c962bbc0cf6dc92d2,2021-09-27_17h13.52.428,forced_choiceRT_color,2021.2.3,MacIntel,59.97361161,,,,,,,,7,Slow,short,d,1,3.0176,3,0,12,0,1,,,,,
1.1,,,,,,,,,k,purple,5f99e87c962bbc0cf6dc92d2,2021-09-27_17h13.52.428,forced_choiceRT_color,2021.2.3,MacIntel,59.97361161,,,,,,,,7,Slow,short,k,1,2.1201,3,1,13,3,1,,,,,
1.43,,,,,,,,,f,blue,5f99e87c962bbc0cf6dc92d2,2021-09-27_17h13.52.428,forced_choiceRT_color,2021.2.3,MacIntel,59.97361161,,,,,,,,7,Slow,short,f,1,2.2286,3,2,14,1,1,,,,,
1.66,,,,,,,,,j,red,5f99e87c962bbc0cf6dc92d2,2021-09-27_17h13.52.428,forced_choiceRT_color,2021.2.3,MacIntel,59.97361161,,,,,,,,7,Slow,short,j,1,2.9019,3,3,15,2,1,,,,,
1.5,,,,,,,,,j,red,5f99e87c962bbc0cf6dc92d2,2021-09-27_17h13.52.428,forced_choiceRT_color,2021.2.3,MacIntel,59.97361161,,,,,,,,7,Ontime,short,j,1,2.0973,4,0,16,2,1,,,,,
0.09,,,,,,,,,j,red,5f99e87c962bbc0cf6dc92d2,2021-09-27_17h13.52.428,forced_choiceRT_color,2021.2.3,MacIntel,59.97361161,,,,,,,,7,Ontime,short,j,1,1.9364,4,1,17,2,1,,,,,
1.37,,,,,,,,,f,blue,5f99e87c962bbc0cf6dc92d2,2021-09-27_17h13.52.428,forced_choiceRT_color,2021.2.3,MacIntel,59.97361161,,,,,,,,7,Slow,short,f,1,2.1755,4,2,18,1,1,,,,,
1.15,,,,,,,,,j,red,5f99e87c962bbc0cf6dc92d2,2021-09-27_17h13.52.428,forced_choiceRT_color,2021.2.3,MacIntel,59.97361161,,,,,,,,7,Fast,short,j,1,1.7377,4,3,19,2,1,,,,,
1.11,,,,,,,,,f,blue,5f99e87c962bbc0cf6dc92d2,2021-09-27_17h13.52.428,forced_choiceRT_color,2021.2.3,MacIntel,59.97361161,,,,,,,,7,Ontime,short,f,1,2.0367,5,0,20,1,1,,,,,
1.16,,,,,,,,,d,orange,5f99e87c962bbc0cf6dc92d2,2021-09-27_17h13.52.428,forced_choiceRT_color,2021.2.3,MacIntel,59.97361161,,,,,,,,7,Ontime,short,f,0,1.9877,5,1,21,0,1,,,,,
0.62,,,,,,,,,k,purple,5f99e87c962bbc0cf6dc92d2,2021-09-27_17h13.52.428,forced_choiceRT_color,2021.2.3,MacIntel,59.97361161,,,,,,,,7,Ontime,short,k,1,2.0182,5,2,22,3,1,,,,,
1.26,,,,,,,,,f,blue,5f99e87c962bbc0cf6dc92d2,2021-09-27_17h13.52.428,forced_choiceRT_color,2021.2.3,MacIntel,59.97361161,,,,,,,,7,Slow,short,f,1,2.1524,5,3,23,1,1,,,,,
1.42,,,,,,,,,d,orange,5f99e87c962bbc0cf6dc92d2,2021-09-27_17h13.52.428,forced_choiceRT_color,2021.2.3,MacIntel,59.97361161,,,,,,,,7,Ontime,short,d,1,2.0933,6,0,24,0,1,,,,,
1.39,,,,,,,,,d,orange,5f99e87c962bbc0cf6dc92d2,2021-09-27_17h13.52.428,forced_choiceRT_color,2021.2.3,MacIntel,59.97361161,,,,,,,,7,Ontime,short,d,1,1.9375,6,1,25,0,1,,,,,
1.86,,,,,,,,,d,orange,5f99e87c962bbc0cf6dc92d2,2021-09-27_17h13.52.428,forced_choiceRT_color,2021.2.3,MacIntel,59.97361161,,,,,,,,7,Slow,short,d,1,2.3068,6,2,26,0,1,,,,,
1.56,,,,,,,,,k,purple,5f99e87c962bbc0cf6dc92d2,2021-09-27_17h13.52.428,forced_choiceRT_color,2021.2.3,MacIntel,59.97361161,,,,,,,,7,Slow,short,k,1,2.3264,6,3,27,3,1,,,,,
0.41,,,,,,,,,k,purple,5f99e87c962bbc0cf6dc92d2,2021-09-27_17h13.52.428,forced_choiceRT_color,2021.2.3,MacIntel,59.97361161,,,,,,,,7,Ontime,short,k,1,1.9189,7,0,28,3,1,,,,,
1.35,,,,,,,,,f,blue,5f99e87c962bbc0cf6dc92d2,2021-09-27_17h13.52.428,forced_choiceRT_color,2021.2.3,MacIntel,59.97361161,,,,,,,,7,Slow,short,f,1,2.1696,7,1,29,1,1,,,,,
1.21,,,,,,,,,d,orange,5f99e87c962bbc0cf6dc92d2,2021-09-27_17h13.52.428,forced_choiceRT_color,2021.2.3,MacIntel,59.97361161,,,,,,,,7,Ontime,short,d,1,1.9794,7,2,30,0,1,,,,,
0.93,,,,,,,,,f,blue,5f99e87c962bbc0cf6dc92d2,2021-09-27_17h13.52.428,forced_choiceRT_color,2021.2.3,MacIntel,59.97361161,,,,,,,,7,Ontime,short,f,1,2.0326,7,3,31,1,1,,,,,
0.69,,,,,,,,,f,blue,5f99e87c962bbc0cf6dc92d2,2021-09-27_17h13.52.428,forced_choiceRT_color,2021.2.3,MacIntel,59.97361161,,,,,,,,7,Slow,short,f,1,2.1021,8,0,32,1,1,,,,,
0.87,,,,,,,,,j,red,5f99e87c962bbc0cf6dc92d2,2021-09-27_17h13.52.428,forced_choiceRT_color,2021.2.3,MacIntel,59.97361161,,,,,,,,7,Ontime,short,k,0,2.0367,8,1,33,2,1,,,,,
1.63,,,,,,,,,k,purple,5f99e87c962bbc0cf6dc92d2,2021-09-27_17h13.52.428,forced_choiceRT_color,2021.2.3,MacIntel,59.97361161,,,,,,,,7,Slow,short,k,1,2.2724,8,2,34,3,1,,,,,
1.83,,,,,,,,,j,red,5f99e87c962bbc0cf6dc92d2,2021-09-27_17h13.52.428,forced_choiceRT_color,2021.2.3,MacIntel,59.97361161,,,,,,,,7,Slow,short,j,1,2.8777,8,3,35,2,1,,,,,
0.42,,,,,,,,,k,purple,5f99e87c962bbc0cf6dc92d2,2021-09-27_17h13.52.428,forced_choiceRT_color,2021.2.3,MacIntel,59.97361161,,,,,,,,7,Ontime,short,k,1,1.9801,9,0,36,3,1,,,,,
0.3,,,,,,,,,d,orange,5f99e87c962bbc0cf6dc92d2,2021-09-27_17h13.52.428,forced_choiceRT_color,2021.2.3,MacIntel,59.97361161,,,,,,,,7,Ontime,short,d,1,2.0671,9,1,37,0,1,,,,,
1.66,,,,,,,,,d,orange,5f99e87c962bbc0cf6dc92d2,2021-09-27_17h13.52.428,forced_choiceRT_color,2021.2.3,MacIntel,59.97361161,,,,,,,,7,Slow,short,d,1,2.1409,9,2,38,0,1,,,,,
0.94,,,,,,,,,k,purple,5f99e87c962bbc0cf6dc92d2,2021-09-27_17h13.52.428,forced_choiceRT_color,2021.2.3,MacIntel,59.97361161,,,,,,,,7,Fast,short,k,1,1.8129,9,3,39,3,1,,,,,
,,,,,,,,,,,5f99e87c962bbc0cf6dc92d2,2021-09-27_17h13.52.428,forced_choiceRT_color,2021.2.3,MacIntel,59.97361161,,,,,,,,,,,,,,,,,,,6,0,6,0,1
1.49,,,,,,,,,f,blue,5f99e87c962bbc0cf6dc92d2,2021-09-27_17h13.52.428,forced_choiceRT_color,2021.2.3,MacIntel,59.97361161,,,,,,,,8,Slow,short,f,1,2.2392,0,0,0,1,1,,,,,
0.21,,,,,,,,,f,blue,5f99e87c962bbc0cf6dc92d2,2021-09-27_17h13.52.428,forced_choiceRT_color,2021.2.3,MacIntel,59.97361161,,,,,,,,8,Ontime,short,f,1,2.0188,0,1,1,1,1,,,,,
1.06,,,,,,,,,f,blue,5f99e87c962bbc0cf6dc92d2,2021-09-27_17h13.52.428,forced_choiceRT_color,2021.2.3,MacIntel,59.97361161,,,,,,,,8,Ontime,short,f,1,2.0519,0,2,2,1,1,,,,,
0.98,,,,,,,,,d,orange,5f99e87c962bbc0cf6dc92d2,2021-09-27_17h13.52.428,forced_choiceRT_color,2021.2.3,MacIntel,59.97361161,,,,,,,,8,Fast,short,d,1,1.8343,0,3,3,0,1,,,,,
1.53,,,,,,,,,d,orange,5f99e87c962bbc0cf6dc92d2,2021-09-27_17h13.52.428,forced_choiceRT_color,2021.2.3,MacIntel,59.97361161,,,,,,,,8,Ontime,short,d,1,2.0822,1,0,4,0,1,,,,,
1.05,,,,,,,,,k,purple,5f99e87c962bbc0cf6dc92d2,2021-09-27_17h13.52.428,forced_choiceRT_color,2021.2.3,MacIntel,59.97361161,,,,,,,,8,Ontime,short,k,1,2.0516,1,1,5,3,1,,,,,
1.81,,,,,,,,,k,purple,5f99e87c962bbc0cf6dc92d2,2021-09-27_17h13.52.428,forced_choiceRT_color,2021.2.3,MacIntel,59.97361161,,,,,,,,8,Slow,short,k,1,2.2407,1,2,6,3,1,,,,,
1.25,,,,,,,,,d,orange,5f99e87c962bbc0cf6dc92d2,2021-09-27_17h13.52.428,forced_choiceRT_color,2021.2.3,MacIntel,59.97361161,,,,,,,,8,Slow,short,d,1,2.1307,1,3,7,0,1,,,,,
0.96,,,,,,,,,j,red,5f99e87c962bbc0cf6dc92d2,2021-09-27_17h13.52.428,forced_choiceRT_color,2021.2.3,MacIntel,59.97361161,,,,,,,,8,Ontime,short,j,1,2.0016,2,0,8,2,1,,,,,
0.97,,,,,,,,,d,orange,5f99e87c962bbc0cf6dc92d2,2021-09-27_17h13.52.428,forced_choiceRT_color,2021.2.3,MacIntel,59.97361161,,,,,,,,8,Fast,short,d,1,1.5831,2,1,9,0,1,,,,,
1.57,,,,,,,,,k,purple,5f99e87c962bbc0cf6dc92d2,2021-09-27_17h13.52.428,forced_choiceRT_color,2021.2.3,MacIntel,59.97361161,,,,,,,,8,Slow,short,k,1,2.2356,2,2,10,3,1,,,,,
1.76,,,,,,,,,d,orange,5f99e87c962bbc0cf6dc92d2,2021-09-27_17h13.52.428,forced_choiceRT_color,2021.2.3,MacIntel,59.97361161,,,,,,,,8,Slow,short,d,1,2.3039,2,3,11,0,1,,,,,
1.77,,,,,,,,,j,red,5f99e87c962bbc0cf6dc92d2,2021-09-27_17h13.52.428,forced_choiceRT_color,2021.2.3,MacIntel,59.97361161,,,,,,,,8,Slow,short,j,1,2.5471,3,0,12,2,1,,,,,
0.7,,,,,,,,,j,red,5f99e87c962bbc0cf6dc92d2,2021-09-27_17h13.52.428,forced_choiceRT_color,2021.2.3,MacIntel,59.97361161,,,,,,,,8,Ontime,short,j,1,2.0032,3,1,13,2,1,,,,,
1.05,,,,,,,,,k,purple,5f99e87c962bbc0cf6dc92d2,2021-09-27_17h13.52.428,forced_choiceRT_color,2021.2.3,MacIntel,59.97361161,,,,,,,,8,Ontime,short,k,1,2.0391,3,2,14,3,1,,,,,
0.86,,,,,,,,,f,blue,5f99e87c962bbc0cf6dc92d2,2021-09-27_17h13.52.428,forced_choiceRT_color,2021.2.3,MacIntel,59.97361161,,,,,,,,8,Ontime,short,f,1,2.0904,3,3,15,1,1,,,,,
0.91,,,,,,,,,d,orange,5f99e87c962bbc0cf6dc92d2,2021-09-27_17h13.52.428,forced_choiceRT_color,2021.2.3,MacIntel,59.97361161,,,,,,,,8,Ontime,short,d,1,1.9515,4,0,16,0,1,,,,,
1.16,,,,,,,,,k,purple,5f99e87c962bbc0cf6dc92d2,2021-09-27_17h13.52.428,forced_choiceRT_color,2021.2.3,MacIntel,59.97361161,,,,,,,,8,Ontime,short,k,1,2.0405,4,1,17,3,1,,,,,
1.7,,,,,,,,,k,purple,5f99e87c962bbc0cf6dc92d2,2021-09-27_17h13.52.428,forced_choiceRT_color,2021.2.3,MacIntel,59.97361161,,,,,,,,8,Slow,short,k,1,2.134,4,2,18,3,1,,,,,
0.97,,,,,,,,,j,red,5f99e87c962bbc0cf6dc92d2,2021-09-27_17h13.52.428,forced_choiceRT_color,2021.2.3,MacIntel,59.97361161,,,,,,,,8,Ontime,short,j,1,2.0091,4,3,19,2,1,,,,,
1.25,,,,,,,,,f,blue,5f99e87c962bbc0cf6dc92d2,2021-09-27_17h13.52.428,forced_choiceRT_color,2021.2.3,MacIntel,59.97361161,,,,,,,,8,Ontime,short,f,1,1.9845,5,0,20,1,1,,,,,
1.13,,,,,,,,,j,red,5f99e87c962bbc0cf6dc92d2,2021-09-27_17h13.52.428,forced_choiceRT_color,2021.2.3,MacIntel,59.97361161,,,,,,,,8,Ontime,short,j,1,2.0365,5,1,21,2,1,,,,,
1.05,,,,,,,,,k,purple,5f99e87c962bbc0cf6dc92d2,2021-09-27_17h13.52.428,forced_choiceRT_color,2021.2.3,MacIntel,59.97361161,,,,,,,,8,Ontime,short,k,1,1.9072,5,2,22,3,1,,,,,
1.08,,,,,,,,,k,purple,5f99e87c962bbc0cf6dc92d2,2021-09-27_17h13.52.428,forced_choiceRT_color,2021.2.3,MacIntel,59.97361161,,,,,,,,8,Fast,short,k,1,1.8555,5,3,23,3,1,,,,,
1.59,,,,,,,,,j,red,5f99e87c962bbc0cf6dc92d2,2021-09-27_17h13.52.428,forced_choiceRT_color,2021.2.3,MacIntel,59.97361161,,,,,,,,8,Slow,short,j,1,3.6867,6,0,24,2,1,,,,,
1.6,,,,,,,,,j,red,5f99e87c962bbc0cf6dc92d2,2021-09-27_17h13.52.428,forced_choiceRT_color,2021.2.3,MacIntel,59.97361161,,,,,,,,8,Ontime,short,j,1,2.0572,6,1,25,2,1,,,,,
0.36,,,,,,,,,f,blue,5f99e87c962bbc0cf6dc92d2,2021-09-27_17h13.52.428,forced_choiceRT_color,2021.2.3,MacIntel,59.97361161,,,,,,,,8,Ontime,short,f,1,2.0022,6,2,26,1,1,,,,,
0.33,,,,,,,,,f,blue,5f99e87c962bbc0cf6dc92d2,2021-09-27_17h13.52.428,forced_choiceRT_color,2021.2.3,MacIntel,59.97361161,,,,,,,,8,Ontime,short,f,1,1.985,6,3,27,1,1,,,,,
0.23,,,,,,,,,d,orange,5f99e87c962bbc0cf6dc92d2,2021-09-27_17h13.52.428,forced_choiceRT_color,2021.2.3,MacIntel,59.97361161,,,,,,,,8,Slow,short,d,1,2.1025,7,0,28,0,1,,,,,
0.13,,,,,,,,,d,orange,5f99e87c962bbc0cf6dc92d2,2021-09-27_17h13.52.428,forced_choiceRT_color,2021.2.3,MacIntel,59.97361161,,,,,,,,8,Ontime,short,d,1,2.0032,7,1,29,0,1,,,,,
1.29,,,,,,,,,f,blue,5f99e87c962bbc0cf6dc92d2,2021-09-27_17h13.52.428,forced_choiceRT_color,2021.2.3,MacIntel,59.97361161,,,,,,,,8,Ontime,short,f,1,2.0673,7,2,30,1,1,,,,,
1.36,,,,,,,,,f,blue,5f99e87c962bbc0cf6dc92d2,2021-09-27_17h13.52.428,forced_choiceRT_color,2021.2.3,MacIntel,59.97361161,,,,,,,,8,Ontime,short,f,1,1.986,7,3,31,1,1,,,,,
0.49,,,,,,,,,k,purple,5f99e87c962bbc0cf6dc92d2,2021-09-27_17h13.52.428,forced_choiceRT_color,2021.2.3,MacIntel,59.97361161,,,,,,,,8,Ontime,short,k,1,1.9057,8,0,32,3,1,,,,,
0.5,,,,,,,,,d,orange,5f99e87c962bbc0cf6dc92d2,2021-09-27_17h13.52.428,forced_choiceRT_color,2021.2.3,MacIntel,59.97361161,,,,,,,,8,Ontime,short,d,1,1.9193,8,1,33,0,1,,,,,
1.24,,,,,,,,,j,red,5f99e87c962bbc0cf6dc92d2,2021-09-27_17h13.52.428,forced_choiceRT_color,2021.2.3,MacIntel,59.97361161,,,,,,,,8,Slow,short,j,1,2.1055,8,2,34,2,1,,,,,
0.22,,,,,,,,,k,purple,5f99e87c962bbc0cf6dc92d2,2021-09-27_17h13.52.428,forced_choiceRT_color,2021.2.3,MacIntel,59.97361161,,,,,,,,8,Ontime,short,k,1,1.99,8,3,35,3,1,,,,,
0.49,,,,,,,,,f,blue,5f99e87c962bbc0cf6dc92d2,2021-09-27_17h13.52.428,forced_choiceRT_color,2021.2.3,MacIntel,59.97361161,,,,,,,,8,Ontime,short,f,1,2.0847,9,0,36,1,1,,,,,
1.92,,,,,,,,,j,red,5f99e87c962bbc0cf6dc92d2,2021-09-27_17h13.52.428,forced_choiceRT_color,2021.2.3,MacIntel,59.97361161,,,,,,,,8,Slow,short,j,1,2.5888,9,1,37,2,1,,,,,
0.54,,,,,,,,,d,orange,5f99e87c962bbc0cf6dc92d2,2021-09-27_17h13.52.428,forced_choiceRT_color,2021.2.3,MacIntel,59.97361161,,,,,,,,8,Ontime,short,d,1,2.0356,9,2,38,0,1,,,,,
0.14,,,,,,,,,j,red,5f99e87c962bbc0cf6dc92d2,2021-09-27_17h13.52.428,forced_choiceRT_color,2021.2.3,MacIntel,59.97361161,,,,,,,,8,Ontime,short,j,1,1.954,9,3,39,2,1,,,,,
,,,,,,,,,,,5f99e87c962bbc0cf6dc92d2,2021-09-27_17h13.52.428,forced_choiceRT_color,2021.2.3,MacIntel,59.97361161,,,,,,,,,,,,,,,,,,,7,0,7,0,1
1.64,,,,,,,,,k,purple,5f99e87c962bbc0cf6dc92d2,2021-09-27_17h13.52.428,forced_choiceRT_color,2021.2.3,MacIntel,59.97361161,,,,,,,,9,Slow,short,k,1,2.3085,0,0,0,3,1,,,,,
0.43,,,,,,,,,d,orange,5f99e87c962bbc0cf6dc92d2,2021-09-27_17h13.52.428,forced_choiceRT_color,2021.2.3,MacIntel,59.97361161,,,,,,,,9,Ontime,short,d,1,2.0038,0,1,1,0,1,,,,,
0.45,,,,,,,,,j,red,5f99e87c962bbc0cf6dc92d2,2021-09-27_17h13.52.428,forced_choiceRT_color,2021.2.3,MacIntel,59.97361161,,,,,,,,9,Ontime,short,j,1,1.9676,0,2,2,2,1,,,,,
1.28,,,,,,,,,j,red,5f99e87c962bbc0cf6dc92d2,2021-09-27_17h13.52.428,forced_choiceRT_color,2021.2.3,MacIntel,59.97361161,,,,,,,,9,Ontime,short,j,1,2.086,0,3,3,2,1,,,,,
1.71,,,,,,,,,f,blue,5f99e87c962bbc0cf6dc92d2,2021-09-27_17h13.52.428,forced_choiceRT_color,2021.2.3,MacIntel,59.97361161,,,,,,,,9,Slow,short,f,1,2.4387,1,0,4,1,1,,,,,
0.54,,,,,,,,,d,orange,5f99e87c962bbc0cf6dc92d2,2021-09-27_17h13.52.428,forced_choiceRT_color,2021.2.3,MacIntel,59.97361161,,,,,,,,9,Ontime,short,d,1,1.9859,1,1,5,0,1,,,,,
0.55,,,,,,,,,k,purple,5f99e87c962bbc0cf6dc92d2,2021-09-27_17h13.52.428,forced_choiceRT_color,2021.2.3,MacIntel,59.97361161,,,,,,,,9,Ontime,short,k,1,2.0346,1,2,6,3,1,,,,,
1.27,,,,,,,,,j,red,5f99e87c962bbc0cf6dc92d2,2021-09-27_17h13.52.428,forced_choiceRT_color,2021.2.3,MacIntel,59.97361161,,,,,,,,9,Slow,short,j,1,2.1519,1,3,7,2,1,,,,,
0.53,,,,,,,,,k,purple,5f99e87c962bbc0cf6dc92d2,2021-09-27_17h13.52.428,forced_choiceRT_color,2021.2.3,MacIntel,59.97361161,,,,,,,,9,Ontime,short,k,1,1.9458,2,0,8,3,1,,,,,
0.44,,,,,,,,,j,red,5f99e87c962bbc0cf6dc92d2,2021-09-27_17h13.52.428,forced_choiceRT_color,2021.2.3,MacIntel,59.97361161,,,,,,,,9,Ontime,short,j,1,2.0032,2,1,9,2,1,,,,,
1.41,,,,,,,,,k,purple,5f99e87c962bbc0cf6dc92d2,2021-09-27_17h13.52.428,forced_choiceRT_color,2021.2.3,MacIntel,59.97361161,,,,,,,,9,Fast,short,k,1,1.8901,2,2,10,3,1,,,,,
0.52,,,,,,,,,k,purple,5f99e87c962bbc0cf6dc92d2,2021-09-27_17h13.52.428,forced_choiceRT_color,2021.2.3,MacIntel,59.97361161,,,,,,,,9,Ontime,short,k,1,1.953,2,3,11,3,1,,,,,
1.14,,,,,,,,,d,orange,5f99e87c962bbc0cf6dc92d2,2021-09-27_17h13.52.428,forced_choiceRT_color,2021.2.3,MacIntel,59.97361161,,,,,,,,9,Slow,short,d,1,2.4016,3,0,12,0,1,,,,,
1.99,,,,,,,,,k,purple,5f99e87c962bbc0cf6dc92d2,2021-09-27_17h13.52.428,forced_choiceRT_color,2021.2.3,MacIntel,59.97361161,,,,,,,,9,Slow,short,k,1,2.5203,3,1,13,3,1,,,,,
0.39,,,,,,,,,j,red,5f99e87c962bbc0cf6dc92d2,2021-09-27_17h13.52.428,forced_choiceRT_color,2021.2.3,MacIntel,59.97361161,,,,,,,,9,Ontime,short,j,1,2.0481,3,2,14,2,1,,,,,
1.48,,,,,,,,,f,blue,5f99e87c962bbc0cf6dc92d2,2021-09-27_17h13.52.428,forced_choiceRT_color,2021.2.3,MacIntel,59.97361161,,,,,,,,9,Slow,short,f,1,2.1861,3,3,15,1,1,,,,,
1.96,,,,,,,,,k,purple,5f99e87c962bbc0cf6dc92d2,2021-09-27_17h13.52.428,forced_choiceRT_color,2021.2.3,MacIntel,59.97361161,,,,,,,,9,Slow,short,k,1,2.4855,4,0,16,3,1,,,,,
1.97,,,,,,,,,d,orange,5f99e87c962bbc0cf6dc92d2,2021-09-27_17h13.52.428,forced_choiceRT_color,2021.2.3,MacIntel,59.97361161,,,,,,,,9,Slow,short,d,1,2.7955,4,1,17,0,1,,,,,
1.16,,,,,,,,,d,orange,5f99e87c962bbc0cf6dc92d2,2021-09-27_17h13.52.428,forced_choiceRT_color,2021.2.3,MacIntel,59.97361161,,,,,,,,9,Ontime,short,d,1,1.9258,4,2,18,0,1,,,,,
1.9,,,,,,,,,f,blue,5f99e87c962bbc0cf6dc92d2,2021-09-27_17h13.52.428,forced_choiceRT_color,2021.2.3,MacIntel,59.97361161,,,,,,,,9,Slow,short,f,1,2.4867,4,3,19,1,1,,,,,
1.93,,,,,,,,,k,purple,5f99e87c962bbc0cf6dc92d2,2021-09-27_17h13.52.428,forced_choiceRT_color,2021.2.3,MacIntel,59.97361161,,,,,,,,9,Slow,short,k,1,2.3614,5,0,20,3,1,,,,,
1.05,,,,,,,,,d,orange,5f99e87c962bbc0cf6dc92d2,2021-09-27_17h13.52.428,forced_choiceRT_color,2021.2.3,MacIntel,59.97361161,,,,,,,,9,Fast,short,d,1,1.5695,5,1,21,0,1,,,,,
0.46,,,,,,,,,j,red,5f99e87c962bbc0cf6dc92d2,2021-09-27_17h13.52.428,forced_choiceRT_color,2021.2.3,MacIntel,59.97361161,,,,,,,,9,Fast,short,j,1,1.8486,5,2,22,2,1,,,,,
1.92,,,,,,,,,d,orange,5f99e87c962bbc0cf6dc92d2,2021-09-27_17h13.52.428,forced_choiceRT_color,2021.2.3,MacIntel,59.97361161,,,,,,,,9,Slow,short,d,1,2.5128,5,3,23,0,1,,,,,
0.57,,,,,,,,,k,purple,5f99e87c962bbc0cf6dc92d2,2021-09-27_17h13.52.428,forced_choiceRT_color,2021.2.3,MacIntel,59.97361161,,,,,,,,9,Ontime,short,k,1,2.0541,6,0,24,3,1,,,,,
1.01,,,,,,,,,j,red,5f99e87c962bbc0cf6dc92d2,2021-09-27_17h13.52.428,forced_choiceRT_color,2021.2.3,MacIntel,59.97361161,,,,,,,,9,Ontime,short,j,1,2.0673,6,1,25,2,1,,,,,
1.39,,,,,,,,,k,purple,5f99e87c962bbc0cf6dc92d2,2021-09-27_17h13.52.428,forced_choiceRT_color,2021.2.3,MacIntel,59.97361161,,,,,,,,9,Ontime,short,k,1,1.9676,6,2,26,3,1,,,,,
1.17,,,,,,,,,j,red,5f99e87c962bbc0cf6dc92d2,2021-09-27_17h13.52.428,forced_choiceRT_color,2021.2.3,MacIntel,59.97361161,,,,,,,,9,Ontime,short,j,1,1.9029,6,3,27,2,1,,,,,
1.07,,,,,,,,,f,blue,5f99e87c962bbc0cf6dc92d2,2021-09-27_17h13.52.428,forced_choiceRT_color,2021.2.3,MacIntel,59.97361161,,,,,,,,9,Fast,short,f,1,1.8724,7,0,28,1,1,,,,,
0.58,,,,,,,,,d,orange,5f99e87c962bbc0cf6dc92d2,2021-09-27_17h13.52.428,forced_choiceRT_color,2021.2.3,MacIntel,59.97361161,,,,,,,,9,Ontime,short,d,1,2.0362,7,1,29,0,1,,,,,
0.67,,,,,,,,,f,blue,5f99e87c962bbc0cf6dc92d2,2021-09-27_17h13.52.428,forced_choiceRT_color,2021.2.3,MacIntel,59.97361161,,,,,,,,9,Ontime,short,f,1,2.0207,7,2,30,1,1,,,,,
1.14,,,,,,,,,j,red,5f99e87c962bbc0cf6dc92d2,2021-09-27_17h13.52.428,forced_choiceRT_color,2021.2.3,MacIntel,59.97361161,,,,,,,,9,Ontime,short,k,0,1.9494,7,3,31,2,1,,,,,
1.9,,,,,,,,,f,blue,5f99e87c962bbc0cf6dc92d2,2021-09-27_17h13.52.428,forced_choiceRT_color,2021.2.3,MacIntel,59.97361161,,,,,,,,9,Slow,short,f,1,2.5695,8,0,32,1,1,,,,,
0.52,,,,,,,,,f,blue,5f99e87c962bbc0cf6dc92d2,2021-09-27_17h13.52.428,forced_choiceRT_color,2021.2.3,MacIntel,59.97361161,,,,,,,,9,Ontime,short,f,1,2.0104,8,1,33,1,1,,,,,
0.44,,,,,,,,,d,orange,5f99e87c962bbc0cf6dc92d2,2021-09-27_17h13.52.428,forced_choiceRT_color,2021.2.3,MacIntel,59.97361161,,,,,,,,9,Slow,short,d,1,2.1359,8,2,34,0,1,,,,,
1.04,,,,,,,,,f,blue,5f99e87c962bbc0cf6dc92d2,2021-09-27_17h13.52.428,forced_choiceRT_color,2021.2.3,MacIntel,59.97361161,,,,,,,,9,Ontime,short,f,1,1.9688,8,3,35,1,1,,,,,
1.41,,,,,,,,,f,blue,5f99e87c962bbc0cf6dc92d2,2021-09-27_17h13.52.428,forced_choiceRT_color,2021.2.3,MacIntel,59.97361161,,,,,,,,9,Ontime,short,f,1,2.0194,9,0,36,1,1,,,,,
0.32,,,,,,,,,f,blue,5f99e87c962bbc0cf6dc92d2,2021-09-27_17h13.52.428,forced_choiceRT_color,2021.2.3,MacIntel,59.97361161,,,,,,,,9,Ontime,short,f,1,1.9569,9,1,37,1,1,,,,,
1.67,,,,,,,,,d,orange,5f99e87c962bbc0cf6dc92d2,2021-09-27_17h13.52.428,forced_choiceRT_color,2021.2.3,MacIntel,59.97361161,,,,,,,,9,Slow,short,d,1,2.2795,9,2,38,0,1,,,,,
0.96,,,,,,,,,j,red,5f99e87c962bbc0cf6dc92d2,2021-09-27_17h13.52.428,forced_choiceRT_color,2021.2.3,MacIntel,59.97361161,,,,,,,,9,Ontime,short,j,1,1.9108,9,3,39,2,1,,,,,
,,,,,,,,,,,5f99e87c962bbc0cf6dc92d2,2021-09-27_17h13.52.428,forced_choiceRT_color,2021.2.3,MacIntel,59.97361161,,,,,,,,,,,,,,,,,,,8,0,8,0,1
0.23,,,,,,,,,d,orange,5f99e87c962bbc0cf6dc92d2,2021-09-27_17h13.52.428,forced_choiceRT_color,2021.2.3,MacIntel,59.97361161,,,,,,,,10,Ontime,short,d,1,2.032,0,0,0,0,1,,,,,
0.1,,,,,,,,,j,red,5f99e87c962bbc0cf6dc92d2,2021-09-27_17h13.52.428,forced_choiceRT_color,2021.2.3,MacIntel,59.97361161,,,,,,,,10,Ontime,short,j,1,1.9694,0,1,1,2,1,,,,,
0.33,,,,,,,,,k,purple,5f99e87c962bbc0cf6dc92d2,2021-09-27_17h13.52.428,forced_choiceRT_color,2021.2.3,MacIntel,59.97361161,,,,,,,,10,Ontime,short,k,1,1.9192,0,2,2,3,1,,,,,
1.32,,,,,,,,,d,orange,5f99e87c962bbc0cf6dc92d2,2021-09-27_17h13.52.428,forced_choiceRT_color,2021.2.3,MacIntel,59.97361161,,,,,,,,10,Ontime,short,d,1,2.0636,0,3,3,0,1,,,,,
0.73,,,,,,,,,f,blue,5f99e87c962bbc0cf6dc92d2,2021-09-27_17h13.52.428,forced_choiceRT_color,2021.2.3,MacIntel,59.97361161,,,,,,,,10,Ontime,short,f,1,1.9844,1,0,4,1,1,,,,,
0.06,,,,,,,,,d,orange,5f99e87c962bbc0cf6dc92d2,2021-09-27_17h13.52.428,forced_choiceRT_color,2021.2.3,MacIntel,59.97361161,,,,,,,,10,Ontime,short,d,1,1.9862,1,1,5,0,1,,,,,
1.97,,,,,,,,,k,purple,5f99e87c962bbc0cf6dc92d2,2021-09-27_17h13.52.428,forced_choiceRT_color,2021.2.3,MacIntel,59.97361161,,,,,,,,10,Slow,short,k,1,2.44,1,2,6,3,1,,,,,
1.85,,,,,,,,,j,red,5f99e87c962bbc0cf6dc92d2,2021-09-27_17h13.52.428,forced_choiceRT_color,2021.2.3,MacIntel,59.97361161,,,,,,,,10,Slow,short,j,1,2.6119,1,3,7,2,1,,,,,
1.15,,,,,,,,,k,purple,5f99e87c962bbc0cf6dc92d2,2021-09-27_17h13.52.428,forced_choiceRT_color,2021.2.3,MacIntel,59.97361161,,,,,,,,10,Ontime,short,k,1,1.9641,2,0,8,3,1,,,,,
1.21,,,,,,,,,f,blue,5f99e87c962bbc0cf6dc92d2,2021-09-27_17h13.52.428,forced_choiceRT_color,2021.2.3,MacIntel,59.97361161,,,,,,,,10,Ontime,short,f,1,1.9486,2,1,9,1,1,,,,,
0.52,,,,,,,,,k,purple,5f99e87c962bbc0cf6dc92d2,2021-09-27_17h13.52.428,forced_choiceRT_color,2021.2.3,MacIntel,59.97361161,,,,,,,,10,Ontime,short,k,1,2.0042,2,2,10,3,1,,,,,
1.19,,,,,,,,,d,orange,5f99e87c962bbc0cf6dc92d2,2021-09-27_17h13.52.428,forced_choiceRT_color,2021.2.3,MacIntel,59.97361161,,,,,,,,10,Slow,short,d,1,2.1024,2,3,11,0,1,,,,,
1.26,,,,,,,,,f,blue,5f99e87c962bbc0cf6dc92d2,2021-09-27_17h13.52.428,forced_choiceRT_color,2021.2.3,MacIntel,59.97361161,,,,,,,,10,Ontime,short,f,1,1.9971,3,0,12,1,1,,,,,
1.85,,,,,,,,,d,orange,5f99e87c962bbc0cf6dc92d2,2021-09-27_17h13.52.428,forced_choiceRT_color,2021.2.3,MacIntel,59.97361161,,,,,,,,10,Slow,short,d,1,2.3909,3,1,13,0,1,,,,,
1.91,,,,,,,,,j,red,5f99e87c962bbc0cf6dc92d2,2021-09-27_17h13.52.428,forced_choiceRT_color,2021.2.3,MacIntel,59.97361161,,,,,,,,10,Slow,short,f,0,2.6525,3,2,14,2,1,,,,,
1.07,,,,,,,,,j,red,5f99e87c962bbc0cf6dc92d2,2021-09-27_17h13.52.428,forced_choiceRT_color,2021.2.3,MacIntel,59.97361161,,,,,,,,10,Fast,short,j,1,1.6798,3,3,15,2,1,,,,,
1.42,,,,,,,,,j,red,5f99e87c962bbc0cf6dc92d2,2021-09-27_17h13.52.428,forced_choiceRT_color,2021.2.3,MacIntel,59.97361161,,,,,,,,10,Ontime,short,j,1,1.97,4,0,16,2,1,,,,,
0.31,,,,,,,,,k,purple,5f99e87c962bbc0cf6dc92d2,2021-09-27_17h13.52.428,forced_choiceRT_color,2021.2.3,MacIntel,59.97361161,,,,,,,,10,Fast,short,k,1,1.8049,4,1,17,3,1,,,,,
0.58,,,,,,,,,f,blue,5f99e87c962bbc0cf6dc92d2,2021-09-27_17h13.52.428,forced_choiceRT_color,2021.2.3,MacIntel,59.97361161,,,,,,,,10,Ontime,short,f,1,1.9542,4,2,18,1,1,,,,,
1.9,,,,,,,,,f,blue,5f99e87c962bbc0cf6dc92d2,2021-09-27_17h13.52.428,forced_choiceRT_color,2021.2.3,MacIntel,59.97361161,,,,,,,,10,Slow,short,f,1,2.5518,4,3,19,1,1,,,,,
0.97,,,,,,,,,f,blue,5f99e87c962bbc0cf6dc92d2,2021-09-27_17h13.52.428,forced_choiceRT_color,2021.2.3,MacIntel,59.97361161,,,,,,,,10,Ontime,short,f,1,1.92,5,0,20,1,1,,,,,
0.51,,,,,,,,,j,red,5f99e87c962bbc0cf6dc92d2,2021-09-27_17h13.52.428,forced_choiceRT_color,2021.2.3,MacIntel,59.97361161,,,,,,,,10,Ontime,short,j,1,2.0019,5,1,21,2,1,,,,,
1.3,,,,,,,,,k,purple,5f99e87c962bbc0cf6dc92d2,2021-09-27_17h13.52.428,forced_choiceRT_color,2021.2.3,MacIntel,59.97361161,,,,,,,,10,Slow,short,k,1,2.1377,5,2,22,3,1,,,,,
1.09,,,,,,,,,d,orange,5f99e87c962bbc0cf6dc92d2,2021-09-27_17h13.52.428,forced_choiceRT_color,2021.2.3,MacIntel,59.97361161,,,,,,,,10,Ontime,short,d,1,1.9619,5,3,23,0,1,,,,,
1.41,,,,,,,,,j,red,5f99e87c962bbc0cf6dc92d2,2021-09-27_17h13.52.428,forced_choiceRT_color,2021.2.3,MacIntel,59.97361161,,,,,,,,10,Slow,short,f,0,2.3071,6,0,24,2,1,,,,,
1.91,,,,,,,,,f,blue,5f99e87c962bbc0cf6dc92d2,2021-09-27_17h13.52.428,forced_choiceRT_color,2021.2.3,MacIntel,59.97361161,,,,,,,,10,Slow,short,f,1,2.5851,6,1,25,1,1,,,,,
1.38,,,,,,,,,d,orange,5f99e87c962bbc0cf6dc92d2,2021-09-27_17h13.52.428,forced_choiceRT_color,2021.2.3,MacIntel,59.97361161,,,,,,,,10,Ontime,short,d,1,2.08,6,2,26,0,1,,,,,
0.11,,,,,,,,,j,red,5f99e87c962bbc0cf6dc92d2,2021-09-27_17h13.52.428,forced_choiceRT_color,2021.2.3,MacIntel,59.97361161,,,,,,,,10,Ontime,short,j,1,2.0412,6,3,27,2,1,,,,,
0.04,,,,,,,,,f,blue,5f99e87c962bbc0cf6dc92d2,2021-09-27_17h13.52.428,forced_choiceRT_color,2021.2.3,MacIntel,59.97361161,,,,,,,,10,Ontime,short,f,1,1.9747,7,0,28,1,1,,,,,
1.8,,,,,,,,,k,purple,5f99e87c962bbc0cf6dc92d2,2021-09-27_17h13.52.428,forced_choiceRT_color,2021.2.3,MacIntel,59.97361161,,,,,,,,10,Slow,short,k,1,2.5413,7,1,29,3,1,,,,,
0.89,,,,,,,,,k,purple,5f99e87c962bbc0cf6dc92d2,2021-09-27_17h13.52.428,forced_choiceRT_color,2021.2.3,MacIntel,59.97361161,,,,,,,,10,Ontime,short,k,1,1.9803,7,2,30,3,1,,,,,
1.73,,,,,,,,,f,blue,5f99e87c962bbc0cf6dc92d2,2021-09-27_17h13.52.428,forced_choiceRT_color,2021.2.3,MacIntel,59.97361161,,,,,,,,10,Slow,short,f,1,2.4346,7,3,31,1,1,,,,,
1.57,,,,,,,,,k,purple,5f99e87c962bbc0cf6dc92d2,2021-09-27_17h13.52.428,forced_choiceRT_color,2021.2.3,MacIntel,59.97361161,,,,,,,,10,Slow,short,k,1,2.2446,8,0,32,3,1,,,,,
0.92,,,,,,,,,f,blue,5f99e87c962bbc0cf6dc92d2,2021-09-27_17h13.52.428,forced_choiceRT_color,2021.2.3,MacIntel,59.97361161,,,,,,,,10,Ontime,short,f,1,1.9851,8,1,33,1,1,,,,,
1.11,,,,,,,,,d,orange,5f99e87c962bbc0cf6dc92d2,2021-09-27_17h13.52.428,forced_choiceRT_color,2021.2.3,MacIntel,59.97361161,,,,,,,,10,Ontime,short,d,1,2.0362,8,2,34,0,1,,,,,
0.3,,,,,,,,,d,orange,5f99e87c962bbc0cf6dc92d2,2021-09-27_17h13.52.428,forced_choiceRT_color,2021.2.3,MacIntel,59.97361161,,,,,,,,10,Ontime,short,d,1,2.0196,8,3,35,0,1,,,,,
1.77,,,,,,,,,d,orange,5f99e87c962bbc0cf6dc92d2,2021-09-27_17h13.52.428,forced_choiceRT_color,2021.2.3,MacIntel,59.97361161,,,,,,,,10,Slow,short,d,1,2.2213,9,0,36,0,1,,,,,
0.33,,,,,,,,,k,purple,5f99e87c962bbc0cf6dc92d2,2021-09-27_17h13.52.428,forced_choiceRT_color,2021.2.3,MacIntel,59.97361161,,,,,,,,10,Ontime,short,k,1,1.9132,9,1,37,3,1,,,,,
0.33,,,,,,,,,j,red,5f99e87c962bbc0cf6dc92d2,2021-09-27_17h13.52.428,forced_choiceRT_color,2021.2.3,MacIntel,59.97361161,,,,,,,,10,Ontime,short,j,1,1.9893,9,2,38,2,1,,,,,
0.93,,,,,,,,,j,red,5f99e87c962bbc0cf6dc92d2,2021-09-27_17h13.52.428,forced_choiceRT_color,2021.2.3,MacIntel,59.97361161,,,,,,,,10,Ontime,short,j,1,1.9859,9,3,39,2,1,,,,,
,,,,,,,,,,,5f99e87c962bbc0cf6dc92d2,2021-09-27_17h13.52.428,forced_choiceRT_color,2021.2.3,MacIntel,59.97361161,,,,,,,,,,,,,,,,,,,9,0,9,0,1
