IP_Addresss,target_onset,trial_resp_sp.keys,trial_resp_sp.corr,trial_resp_sp.rt,trials_train_loop.thisRepN,trials_train_loop.thisTrialN,trials_train_loop.thisN,trials_train_loop.thisIndex,trials_train_loop.ran,correct_key,color,participant,date,expName,psychopyVersion,OS,frameRate,trial_resp_timing.keys,trial_resp_timing.rt,trials_train_timing.thisRepN,trials_train_timing.thisTrialN,trials_train_timing.thisN,trials_train_timing.thisIndex,trials_train_timing.ran,block_id,ontime,feedback_cond,forcedRT_resp.keys,forcedRT_resp.corr,forcedRT_resp.rt,trials.thisRepN,trials.thisTrialN,trials.thisN,trials.thisIndex,trials.ran,blocks.thisRepN,blocks.thisTrialN,blocks.thisN,blocks.thisIndex,blocks.ran
68.50.232.45,0,j,1,1.0607,0,0,0,2,1,j,red,5f9b328656ea6932eb0a2400,2021-09-27_17h10.26.906,forced_choiceRT_color,2021.2.3,Win32,60.03842459,,,,,,,,,,,,,,,,,,,,,,,
,0,k,1,0.4625,0,1,1,3,1,k,purple,5f9b328656ea6932eb0a2400,2021-09-27_17h10.26.906,forced_choiceRT_color,2021.2.3,Win32,60.03842459,,,,,,,,,,,,,,,,,,,,,,,
,0,k,1,0.549,0,2,2,3,1,k,purple,5f9b328656ea6932eb0a2400,2021-09-27_17h10.26.906,forced_choiceRT_color,2021.2.3,Win32,60.03842459,,,,,,,,,,,,,,,,,,,,,,,
,0,k,1,0.467,0,3,3,3,1,k,purple,5f9b328656ea6932eb0a2400,2021-09-27_17h10.26.906,forced_choiceRT_color,2021.2.3,Win32,60.03842459,,,,,,,,,,,,,,,,,,,,,,,
,0,k,1,0.5393,1,0,4,3,1,k,purple,5f9b328656ea6932eb0a2400,2021-09-27_17h10.26.906,forced_choiceRT_color,2021.2.3,Win32,60.03842459,,,,,,,,,,,,,,,,,,,,,,,
,0,d,1,0.6416,1,1,5,0,1,d,orange,5f9b328656ea6932eb0a2400,2021-09-27_17h10.26.906,forced_choiceRT_color,2021.2.3,Win32,60.03842459,,,,,,,,,,,,,,,,,,,,,,,
,0,f,1,0.7166,1,2,6,1,1,f,blue,5f9b328656ea6932eb0a2400,2021-09-27_17h10.26.906,forced_choiceRT_color,2021.2.3,Win32,60.03842459,,,,,,,,,,,,,,,,,,,,,,,
,0,k,1,0.6514,1,3,7,3,1,k,purple,5f9b328656ea6932eb0a2400,2021-09-27_17h10.26.906,forced_choiceRT_color,2021.2.3,Win32,60.03842459,,,,,,,,,,,,,,,,,,,,,,,
,0,f,1,0.7007,2,0,8,1,1,f,blue,5f9b328656ea6932eb0a2400,2021-09-27_17h10.26.906,forced_choiceRT_color,2021.2.3,Win32,60.03842459,,,,,,,,,,,,,,,,,,,,,,,
,0,d,1,0.6511,2,1,9,0,1,d,orange,5f9b328656ea6932eb0a2400,2021-09-27_17h10.26.906,forced_choiceRT_color,2021.2.3,Win32,60.03842459,,,,,,,,,,,,,,,,,,,,,,,
,0,f,1,0.6437,2,2,10,1,1,f,blue,5f9b328656ea6932eb0a2400,2021-09-27_17h10.26.906,forced_choiceRT_color,2021.2.3,Win32,60.03842459,,,,,,,,,,,,,,,,,,,,,,,
,0,d,1,0.5342,2,3,11,0,1,d,orange,5f9b328656ea6932eb0a2400,2021-09-27_17h10.26.906,forced_choiceRT_color,2021.2.3,Win32,60.03842459,,,,,,,,,,,,,,,,,,,,,,,
,0,d,1,0.4336,3,0,12,0,1,d,orange,5f9b328656ea6932eb0a2400,2021-09-27_17h10.26.906,forced_choiceRT_color,2021.2.3,Win32,60.03842459,,,,,,,,,,,,,,,,,,,,,,,
,0,k,1,0.4999,3,1,13,3,1,k,purple,5f9b328656ea6932eb0a2400,2021-09-27_17h10.26.906,forced_choiceRT_color,2021.2.3,Win32,60.03842459,,,,,,,,,,,,,,,,,,,,,,,
,0,j,1,0.5547,3,2,14,2,1,j,red,5f9b328656ea6932eb0a2400,2021-09-27_17h10.26.906,forced_choiceRT_color,2021.2.3,Win32,60.03842459,,,,,,,,,,,,,,,,,,,,,,,
,0,d,1,0.6167,3,3,15,0,1,d,orange,5f9b328656ea6932eb0a2400,2021-09-27_17h10.26.906,forced_choiceRT_color,2021.2.3,Win32,60.03842459,,,,,,,,,,,,,,,,,,,,,,,
,0,k,1,0.5514,4,0,16,3,1,k,purple,5f9b328656ea6932eb0a2400,2021-09-27_17h10.26.906,forced_choiceRT_color,2021.2.3,Win32,60.03842459,,,,,,,,,,,,,,,,,,,,,,,
,0,f,1,0.7172,4,1,17,1,1,f,blue,5f9b328656ea6932eb0a2400,2021-09-27_17h10.26.906,forced_choiceRT_color,2021.2.3,Win32,60.03842459,,,,,,,,,,,,,,,,,,,,,,,
,0,j,1,0.5503,4,2,18,2,1,j,red,5f9b328656ea6932eb0a2400,2021-09-27_17h10.26.906,forced_choiceRT_color,2021.2.3,Win32,60.03842459,,,,,,,,,,,,,,,,,,,,,,,
,0,d,1,0.4845,4,3,19,0,1,d,orange,5f9b328656ea6932eb0a2400,2021-09-27_17h10.26.906,forced_choiceRT_color,2021.2.3,Win32,60.03842459,,,,,,,,,,,,,,,,,,,,,,,
,0,j,1,0.7676,5,0,20,2,1,j,red,5f9b328656ea6932eb0a2400,2021-09-27_17h10.26.906,forced_choiceRT_color,2021.2.3,Win32,60.03842459,,,,,,,,,,,,,,,,,,,,,,,
,0,f,1,0.671,5,1,21,1,1,f,blue,5f9b328656ea6932eb0a2400,2021-09-27_17h10.26.906,forced_choiceRT_color,2021.2.3,Win32,60.03842459,,,,,,,,,,,,,,,,,,,,,,,
,0,j,1,0.7088,5,2,22,2,1,j,red,5f9b328656ea6932eb0a2400,2021-09-27_17h10.26.906,forced_choiceRT_color,2021.2.3,Win32,60.03842459,,,,,,,,,,,,,,,,,,,,,,,
,0,j,1,0.568,5,3,23,2,1,j,red,5f9b328656ea6932eb0a2400,2021-09-27_17h10.26.906,forced_choiceRT_color,2021.2.3,Win32,60.03842459,,,,,,,,,,,,,,,,,,,,,,,
,0,k,1,0.5939,6,0,24,3,1,k,purple,5f9b328656ea6932eb0a2400,2021-09-27_17h10.26.906,forced_choiceRT_color,2021.2.3,Win32,60.03842459,,,,,,,,,,,,,,,,,,,,,,,
,0,d,1,0.5896,6,1,25,0,1,d,orange,5f9b328656ea6932eb0a2400,2021-09-27_17h10.26.906,forced_choiceRT_color,2021.2.3,Win32,60.03842459,,,,,,,,,,,,,,,,,,,,,,,
,0,j,1,0.5447,6,2,26,2,1,j,red,5f9b328656ea6932eb0a2400,2021-09-27_17h10.26.906,forced_choiceRT_color,2021.2.3,Win32,60.03842459,,,,,,,,,,,,,,,,,,,,,,,
,0,d,1,0.6301,6,3,27,0,1,d,orange,5f9b328656ea6932eb0a2400,2021-09-27_17h10.26.906,forced_choiceRT_color,2021.2.3,Win32,60.03842459,,,,,,,,,,,,,,,,,,,,,,,
,0,d,1,0.4529,7,0,28,0,1,d,orange,5f9b328656ea6932eb0a2400,2021-09-27_17h10.26.906,forced_choiceRT_color,2021.2.3,Win32,60.03842459,,,,,,,,,,,,,,,,,,,,,,,
,0,f,1,0.6159,7,1,29,1,1,f,blue,5f9b328656ea6932eb0a2400,2021-09-27_17h10.26.906,forced_choiceRT_color,2021.2.3,Win32,60.03842459,,,,,,,,,,,,,,,,,,,,,,,
,0,j,1,0.4764,7,2,30,2,1,j,red,5f9b328656ea6932eb0a2400,2021-09-27_17h10.26.906,forced_choiceRT_color,2021.2.3,Win32,60.03842459,,,,,,,,,,,,,,,,,,,,,,,
,0,j,1,0.6914,7,3,31,2,1,j,red,5f9b328656ea6932eb0a2400,2021-09-27_17h10.26.906,forced_choiceRT_color,2021.2.3,Win32,60.03842459,,,,,,,,,,,,,,,,,,,,,,,
,0,k,1,0.4034,8,0,32,3,1,k,purple,5f9b328656ea6932eb0a2400,2021-09-27_17h10.26.906,forced_choiceRT_color,2021.2.3,Win32,60.03842459,,,,,,,,,,,,,,,,,,,,,,,
,0,k,1,0.5674,8,1,33,3,1,k,purple,5f9b328656ea6932eb0a2400,2021-09-27_17h10.26.906,forced_choiceRT_color,2021.2.3,Win32,60.03842459,,,,,,,,,,,,,,,,,,,,,,,
,0,k,1,0.432,8,2,34,3,1,k,purple,5f9b328656ea6932eb0a2400,2021-09-27_17h10.26.906,forced_choiceRT_color,2021.2.3,Win32,60.03842459,,,,,,,,,,,,,,,,,,,,,,,
,0,f,1,0.5401,8,3,35,1,1,f,blue,5f9b328656ea6932eb0a2400,2021-09-27_17h10.26.906,forced_choiceRT_color,2021.2.3,Win32,60.03842459,,,,,,,,,,,,,,,,,,,,,,,
,0,f,1,0.5507,9,0,36,1,1,f,blue,5f9b328656ea6932eb0a2400,2021-09-27_17h10.26.906,forced_choiceRT_color,2021.2.3,Win32,60.03842459,,,,,,,,,,,,,,,,,,,,,,,
,0,d,1,0.5033,9,1,37,0,1,d,orange,5f9b328656ea6932eb0a2400,2021-09-27_17h10.26.906,forced_choiceRT_color,2021.2.3,Win32,60.03842459,,,,,,,,,,,,,,,,,,,,,,,
,0,j,0,0.4858,9,2,38,3,1,k,purple,5f9b328656ea6932eb0a2400,2021-09-27_17h10.26.906,forced_choiceRT_color,2021.2.3,Win32,60.03842459,,,,,,,,,,,,,,,,,,,,,,,
,0,k,0,0.3841,9,3,39,0,1,d,orange,5f9b328656ea6932eb0a2400,2021-09-27_17h10.26.906,forced_choiceRT_color,2021.2.3,Win32,60.03842459,,,,,,,,,,,,,,,,,,,,,,,
,0,f,1,0.8017,10,0,40,1,1,f,blue,5f9b328656ea6932eb0a2400,2021-09-27_17h10.26.906,forced_choiceRT_color,2021.2.3,Win32,60.03842459,,,,,,,,,,,,,,,,,,,,,,,
,0,f,1,0.5012,10,1,41,1,1,f,blue,5f9b328656ea6932eb0a2400,2021-09-27_17h10.26.906,forced_choiceRT_color,2021.2.3,Win32,60.03842459,,,,,,,,,,,,,,,,,,,,,,,
,0,f,1,0.4024,10,2,42,1,1,f,blue,5f9b328656ea6932eb0a2400,2021-09-27_17h10.26.906,forced_choiceRT_color,2021.2.3,Win32,60.03842459,,,,,,,,,,,,,,,,,,,,,,,
,0,j,1,0.661,10,3,43,2,1,j,red,5f9b328656ea6932eb0a2400,2021-09-27_17h10.26.906,forced_choiceRT_color,2021.2.3,Win32,60.03842459,,,,,,,,,,,,,,,,,,,,,,,
,0,k,1,0.67,11,0,44,3,1,k,purple,5f9b328656ea6932eb0a2400,2021-09-27_17h10.26.906,forced_choiceRT_color,2021.2.3,Win32,60.03842459,,,,,,,,,,,,,,,,,,,,,,,
,0,j,1,0.6851,11,1,45,2,1,j,red,5f9b328656ea6932eb0a2400,2021-09-27_17h10.26.906,forced_choiceRT_color,2021.2.3,Win32,60.03842459,,,,,,,,,,,,,,,,,,,,,,,
,0,j,1,0.6843,11,2,46,2,1,j,red,5f9b328656ea6932eb0a2400,2021-09-27_17h10.26.906,forced_choiceRT_color,2021.2.3,Win32,60.03842459,,,,,,,,,,,,,,,,,,,,,,,
,0,f,1,0.6086,11,3,47,1,1,f,blue,5f9b328656ea6932eb0a2400,2021-09-27_17h10.26.906,forced_choiceRT_color,2021.2.3,Win32,60.03842459,,,,,,,,,,,,,,,,,,,,,,,
,0,d,1,0.4341,12,0,48,0,1,d,orange,5f9b328656ea6932eb0a2400,2021-09-27_17h10.26.906,forced_choiceRT_color,2021.2.3,Win32,60.03842459,,,,,,,,,,,,,,,,,,,,,,,
,0,d,1,0.5339,12,1,49,0,1,d,orange,5f9b328656ea6932eb0a2400,2021-09-27_17h10.26.906,forced_choiceRT_color,2021.2.3,Win32,60.03842459,,,,,,,,,,,,,,,,,,,,,,,
,0,k,1,0.5595,12,2,50,3,1,k,purple,5f9b328656ea6932eb0a2400,2021-09-27_17h10.26.906,forced_choiceRT_color,2021.2.3,Win32,60.03842459,,,,,,,,,,,,,,,,,,,,,,,
,0,j,1,0.5879,12,3,51,2,1,j,red,5f9b328656ea6932eb0a2400,2021-09-27_17h10.26.906,forced_choiceRT_color,2021.2.3,Win32,60.03842459,,,,,,,,,,,,,,,,,,,,,,,
,0,f,1,0.551,13,0,52,1,1,f,blue,5f9b328656ea6932eb0a2400,2021-09-27_17h10.26.906,forced_choiceRT_color,2021.2.3,Win32,60.03842459,,,,,,,,,,,,,,,,,,,,,,,
,0,f,1,0.5726,13,1,53,1,1,f,blue,5f9b328656ea6932eb0a2400,2021-09-27_17h10.26.906,forced_choiceRT_color,2021.2.3,Win32,60.03842459,,,,,,,,,,,,,,,,,,,,,,,
,0,d,1,0.4504,13,2,54,0,1,d,orange,5f9b328656ea6932eb0a2400,2021-09-27_17h10.26.906,forced_choiceRT_color,2021.2.3,Win32,60.03842459,,,,,,,,,,,,,,,,,,,,,,,
,0,k,1,0.535,13,3,55,3,1,k,purple,5f9b328656ea6932eb0a2400,2021-09-27_17h10.26.906,forced_choiceRT_color,2021.2.3,Win32,60.03842459,,,,,,,,,,,,,,,,,,,,,,,
,0,j,1,0.485,14,0,56,2,1,j,red,5f9b328656ea6932eb0a2400,2021-09-27_17h10.26.906,forced_choiceRT_color,2021.2.3,Win32,60.03842459,,,,,,,,,,,,,,,,,,,,,,,
,0,f,1,0.5518,14,1,57,1,1,f,blue,5f9b328656ea6932eb0a2400,2021-09-27_17h10.26.906,forced_choiceRT_color,2021.2.3,Win32,60.03842459,,,,,,,,,,,,,,,,,,,,,,,
,0,j,1,0.74,14,2,58,2,1,j,red,5f9b328656ea6932eb0a2400,2021-09-27_17h10.26.906,forced_choiceRT_color,2021.2.3,Win32,60.03842459,,,,,,,,,,,,,,,,,,,,,,,
,0,d,1,0.5053,14,3,59,0,1,d,orange,5f9b328656ea6932eb0a2400,2021-09-27_17h10.26.906,forced_choiceRT_color,2021.2.3,Win32,60.03842459,,,,,,,,,,,,,,,,,,,,,,,
,,,,,,,,,,,,5f9b328656ea6932eb0a2400,2021-09-27_17h10.26.906,forced_choiceRT_color,2021.2.3,Win32,60.03842459,j,2.3198,0,0,0,0,1,,,,,,,,,,,,,,,,
,,,,,,,,,,,,5f9b328656ea6932eb0a2400,2021-09-27_17h10.26.906,forced_choiceRT_color,2021.2.3,Win32,60.03842459,j,1.811,1,0,1,0,1,,,,,,,,,,,,,,,,
,,,,,,,,,,,,5f9b328656ea6932eb0a2400,2021-09-27_17h10.26.906,forced_choiceRT_color,2021.2.3,Win32,60.03842459,j,2.0203,2,0,2,0,1,,,,,,,,,,,,,,,,
,,,,,,,,,,,,5f9b328656ea6932eb0a2400,2021-09-27_17h10.26.906,forced_choiceRT_color,2021.2.3,Win32,60.03842459,k,2.072,3,0,3,0,1,,,,,,,,,,,,,,,,
,,,,,,,,,,,,5f9b328656ea6932eb0a2400,2021-09-27_17h10.26.906,forced_choiceRT_color,2021.2.3,Win32,60.03842459,d,2.0891,4,0,4,0,1,,,,,,,,,,,,,,,,
,,,,,,,,,,,,5f9b328656ea6932eb0a2400,2021-09-27_17h10.26.906,forced_choiceRT_color,2021.2.3,Win32,60.03842459,f,2.101,5,0,5,0,1,,,,,,,,,,,,,,,,
,,,,,,,,,,,,5f9b328656ea6932eb0a2400,2021-09-27_17h10.26.906,forced_choiceRT_color,2021.2.3,Win32,60.03842459,f,2.0503,6,0,6,0,1,,,,,,,,,,,,,,,,
,,,,,,,,,,,,5f9b328656ea6932eb0a2400,2021-09-27_17h10.26.906,forced_choiceRT_color,2021.2.3,Win32,60.03842459,f,2.1433,7,0,7,0,1,,,,,,,,,,,,,,,,
,,,,,,,,,,,,5f9b328656ea6932eb0a2400,2021-09-27_17h10.26.906,forced_choiceRT_color,2021.2.3,Win32,60.03842459,f,2.0685,8,0,8,0,1,,,,,,,,,,,,,,,,
,,,,,,,,,,,,5f9b328656ea6932eb0a2400,2021-09-27_17h10.26.906,forced_choiceRT_color,2021.2.3,Win32,60.03842459,f,2.1006,9,0,9,0,1,,,,,,,,,,,,,,,,
,,,,,,,,,,,,5f9b328656ea6932eb0a2400,2021-09-27_17h10.26.906,forced_choiceRT_color,2021.2.3,Win32,60.03842459,d,2.1239,10,0,10,0,1,,,,,,,,,,,,,,,,
,,,,,,,,,,,,5f9b328656ea6932eb0a2400,2021-09-27_17h10.26.906,forced_choiceRT_color,2021.2.3,Win32,60.03842459,f,1.8033,11,0,11,0,1,,,,,,,,,,,,,,,,
,,,,,,,,,,,,5f9b328656ea6932eb0a2400,2021-09-27_17h10.26.906,forced_choiceRT_color,2021.2.3,Win32,60.03842459,j,1.9724,12,0,12,0,1,,,,,,,,,,,,,,,,
,,,,,,,,,,,,5f9b328656ea6932eb0a2400,2021-09-27_17h10.26.906,forced_choiceRT_color,2021.2.3,Win32,60.03842459,j,2.0176,13,0,13,0,1,,,,,,,,,,,,,,,,
,,,,,,,,,,,,5f9b328656ea6932eb0a2400,2021-09-27_17h10.26.906,forced_choiceRT_color,2021.2.3,Win32,60.03842459,j,2.0107,14,0,14,0,1,,,,,,,,,,,,,,,,
,,,,,,,,,,,,5f9b328656ea6932eb0a2400,2021-09-27_17h10.26.906,forced_choiceRT_color,2021.2.3,Win32,60.03842459,j,2.1939,15,0,15,0,1,,,,,,,,,,,,,,,,
,,,,,,,,,,,,5f9b328656ea6932eb0a2400,2021-09-27_17h10.26.906,forced_choiceRT_color,2021.2.3,Win32,60.03842459,j,1.9898,16,0,16,0,1,,,,,,,,,,,,,,,,
,,,,,,,,,,,,5f9b328656ea6932eb0a2400,2021-09-27_17h10.26.906,forced_choiceRT_color,2021.2.3,Win32,60.03842459,j,2.0715,17,0,17,0,1,,,,,,,,,,,,,,,,
,,,,,,,,,,,,5f9b328656ea6932eb0a2400,2021-09-27_17h10.26.906,forced_choiceRT_color,2021.2.3,Win32,60.03842459,j,2.0227,18,0,18,0,1,,,,,,,,,,,,,,,,
,,,,,,,,,,,,5f9b328656ea6932eb0a2400,2021-09-27_17h10.26.906,forced_choiceRT_color,2021.2.3,Win32,60.03842459,j,2.0347,19,0,19,0,1,,,,,,,,,,,,,,,,
,0.3,,,,,,,,,k,purple,5f9b328656ea6932eb0a2400,2021-09-27_17h10.26.906,forced_choiceRT_color,2021.2.3,Win32,60.03842459,,,,,,,,1,Ontime,short,k,1,2.0796,0,0,0,3,1,,,,,
,0.63,,,,,,,,,j,red,5f9b328656ea6932eb0a2400,2021-09-27_17h10.26.906,forced_choiceRT_color,2021.2.3,Win32,60.03842459,,,,,,,,1,Ontime,short,j,1,2.0214,0,1,1,2,1,,,,,
,0.09,,,,,,,,,f,blue,5f9b328656ea6932eb0a2400,2021-09-27_17h10.26.906,forced_choiceRT_color,2021.2.3,Win32,60.03842459,,,,,,,,1,Ontime,short,f,1,2.0699,0,2,2,1,1,,,,,
,0.75,,,,,,,,,j,red,5f9b328656ea6932eb0a2400,2021-09-27_17h10.26.906,forced_choiceRT_color,2021.2.3,Win32,60.03842459,,,,,,,,1,Ontime,short,j,1,1.9945,0,3,3,2,1,,,,,
,0.29,,,,,,,,,k,purple,5f9b328656ea6932eb0a2400,2021-09-27_17h10.26.906,forced_choiceRT_color,2021.2.3,Win32,60.03842459,,,,,,,,1,Ontime,short,k,1,1.9057,1,0,4,3,1,,,,,
,1.71,,,,,,,,,j,red,5f9b328656ea6932eb0a2400,2021-09-27_17h10.26.906,forced_choiceRT_color,2021.2.3,Win32,60.03842459,,,,,,,,1,Slow,short,j,1,2.1851,1,1,5,2,1,,,,,
,0.07,,,,,,,,,d,orange,5f9b328656ea6932eb0a2400,2021-09-27_17h10.26.906,forced_choiceRT_color,2021.2.3,Win32,60.03842459,,,,,,,,1,Ontime,short,d,1,2.0177,1,2,6,0,1,,,,,
,0.95,,,,,,,,,f,blue,5f9b328656ea6932eb0a2400,2021-09-27_17h10.26.906,forced_choiceRT_color,2021.2.3,Win32,60.03842459,,,,,,,,1,Ontime,short,f,1,1.9727,1,3,7,1,1,,,,,
,1.75,,,,,,,,,d,orange,5f9b328656ea6932eb0a2400,2021-09-27_17h10.26.906,forced_choiceRT_color,2021.2.3,Win32,60.03842459,,,,,,,,1,Slow,short,k,0,2.1341,2,0,8,0,1,,,,,
,1.09,,,,,,,,,k,purple,5f9b328656ea6932eb0a2400,2021-09-27_17h10.26.906,forced_choiceRT_color,2021.2.3,Win32,60.03842459,,,,,,,,1,Fast,short,k,1,1.5542,2,1,9,3,1,,,,,
,0.89,,,,,,,,,d,orange,5f9b328656ea6932eb0a2400,2021-09-27_17h10.26.906,forced_choiceRT_color,2021.2.3,Win32,60.03842459,,,,,,,,1,Ontime,short,d,1,1.9649,2,2,10,0,1,,,,,
,0.61,,,,,,,,,d,orange,5f9b328656ea6932eb0a2400,2021-09-27_17h10.26.906,forced_choiceRT_color,2021.2.3,Win32,60.03842459,,,,,,,,1,Ontime,short,d,1,2.0382,2,3,11,0,1,,,,,
,0.93,,,,,,,,,f,blue,5f9b328656ea6932eb0a2400,2021-09-27_17h10.26.906,forced_choiceRT_color,2021.2.3,Win32,60.03842459,,,,,,,,1,Ontime,short,f,1,2.0364,3,0,12,1,1,,,,,
,0.44,,,,,,,,,f,blue,5f9b328656ea6932eb0a2400,2021-09-27_17h10.26.906,forced_choiceRT_color,2021.2.3,Win32,60.03842459,,,,,,,,1,Ontime,short,f,1,2.067,3,1,13,1,1,,,,,
,0.35,,,,,,,,,d,orange,5f9b328656ea6932eb0a2400,2021-09-27_17h10.26.906,forced_choiceRT_color,2021.2.3,Win32,60.03842459,,,,,,,,1,Ontime,short,d,1,2.0685,3,2,14,0,1,,,,,
,0.02,,,,,,,,,k,purple,5f9b328656ea6932eb0a2400,2021-09-27_17h10.26.906,forced_choiceRT_color,2021.2.3,Win32,60.03842459,,,,,,,,1,Ontime,short,k,1,2.0529,3,3,15,3,1,,,,,
,1.02,,,,,,,,,k,purple,5f9b328656ea6932eb0a2400,2021-09-27_17h10.26.906,forced_choiceRT_color,2021.2.3,Win32,60.03842459,,,,,,,,1,Ontime,short,k,1,2.0014,4,0,16,3,1,,,,,
,1.27,,,,,,,,,f,blue,5f9b328656ea6932eb0a2400,2021-09-27_17h10.26.906,forced_choiceRT_color,2021.2.3,Win32,60.03842459,,,,,,,,1,Slow,short,f,1,2.1339,4,1,17,1,1,,,,,
,0.22,,,,,,,,,f,blue,5f9b328656ea6932eb0a2400,2021-09-27_17h10.26.906,forced_choiceRT_color,2021.2.3,Win32,60.03842459,,,,,,,,1,Slow,short,f,1,2.1244,4,2,18,1,1,,,,,
,1.04,,,,,,,,,d,orange,5f9b328656ea6932eb0a2400,2021-09-27_17h10.26.906,forced_choiceRT_color,2021.2.3,Win32,60.03842459,,,,,,,,1,Ontime,short,d,1,1.9551,4,3,19,0,1,,,,,
,0.11,,,,,,,,,d,orange,5f9b328656ea6932eb0a2400,2021-09-27_17h10.26.906,forced_choiceRT_color,2021.2.3,Win32,60.03842459,,,,,,,,1,Ontime,short,d,1,2.0508,5,0,20,0,1,,,,,
,0.28,,,,,,,,,k,purple,5f9b328656ea6932eb0a2400,2021-09-27_17h10.26.906,forced_choiceRT_color,2021.2.3,Win32,60.03842459,,,,,,,,1,Ontime,short,k,1,2.0349,5,1,21,3,1,,,,,
,1.04,,,,,,,,,f,blue,5f9b328656ea6932eb0a2400,2021-09-27_17h10.26.906,forced_choiceRT_color,2021.2.3,Win32,60.03842459,,,,,,,,1,Fast,short,f,1,1.8383,5,2,22,1,1,,,,,
,0.77,,,,,,,,,j,red,5f9b328656ea6932eb0a2400,2021-09-27_17h10.26.906,forced_choiceRT_color,2021.2.3,Win32,60.03842459,,,,,,,,1,Slow,short,j,1,2.1013,5,3,23,2,1,,,,,
,0.47,,,,,,,,,k,purple,5f9b328656ea6932eb0a2400,2021-09-27_17h10.26.906,forced_choiceRT_color,2021.2.3,Win32,60.03842459,,,,,,,,1,Ontime,short,k,1,2.0519,6,0,24,3,1,,,,,
,1.95,,,,,,,,,j,red,5f9b328656ea6932eb0a2400,2021-09-27_17h10.26.906,forced_choiceRT_color,2021.2.3,Win32,60.03842459,,,,,,,,1,Slow,short,j,1,7.2743,6,1,25,2,1,,,,,
,0.65,,,,,,,,,d,orange,5f9b328656ea6932eb0a2400,2021-09-27_17h10.26.906,forced_choiceRT_color,2021.2.3,Win32,60.03842459,,,,,,,,1,Ontime,short,d,1,2.0579,6,2,26,0,1,,,,,
,0.45,,,,,,,,,k,purple,5f9b328656ea6932eb0a2400,2021-09-27_17h10.26.906,forced_choiceRT_color,2021.2.3,Win32,60.03842459,,,,,,,,1,Ontime,short,k,1,2.0231,6,3,27,3,1,,,,,
,0.56,,,,,,,,,j,red,5f9b328656ea6932eb0a2400,2021-09-27_17h10.26.906,forced_choiceRT_color,2021.2.3,Win32,60.03842459,,,,,,,,1,Ontime,short,j,1,2.084,7,0,28,2,1,,,,,
,1.35,,,,,,,,,k,purple,5f9b328656ea6932eb0a2400,2021-09-27_17h10.26.906,forced_choiceRT_color,2021.2.3,Win32,60.03842459,,,,,,,,1,Ontime,short,k,1,2.0531,7,1,29,3,1,,,,,
,0.3,,,,,,,,,k,purple,5f9b328656ea6932eb0a2400,2021-09-27_17h10.26.906,forced_choiceRT_color,2021.2.3,Win32,60.03842459,,,,,,,,1,Ontime,short,k,1,2.0688,7,2,30,3,1,,,,,
,0.94,,,,,,,,,f,blue,5f9b328656ea6932eb0a2400,2021-09-27_17h10.26.906,forced_choiceRT_color,2021.2.3,Win32,60.03842459,,,,,,,,1,Ontime,short,f,1,2.0419,7,3,31,1,1,,,,,
,1.49,,,,,,,,,j,red,5f9b328656ea6932eb0a2400,2021-09-27_17h10.26.906,forced_choiceRT_color,2021.2.3,Win32,60.03842459,,,,,,,,1,Ontime,short,j,1,2.0838,8,0,32,2,1,,,,,
,1.5,,,,,,,,,j,red,5f9b328656ea6932eb0a2400,2021-09-27_17h10.26.906,forced_choiceRT_color,2021.2.3,Win32,60.03842459,,,,,,,,1,Ontime,short,j,1,2.0768,8,1,33,2,1,,,,,
,1.45,,,,,,,,,f,blue,5f9b328656ea6932eb0a2400,2021-09-27_17h10.26.906,forced_choiceRT_color,2021.2.3,Win32,60.03842459,,,,,,,,1,Ontime,short,f,1,2.0387,8,2,34,1,1,,,,,
,0.02,,,,,,,,,j,red,5f9b328656ea6932eb0a2400,2021-09-27_17h10.26.906,forced_choiceRT_color,2021.2.3,Win32,60.03842459,,,,,,,,1,Ontime,short,j,1,2.0783,8,3,35,2,1,,,,,
,0.98,,,,,,,,,d,orange,5f9b328656ea6932eb0a2400,2021-09-27_17h10.26.906,forced_choiceRT_color,2021.2.3,Win32,60.03842459,,,,,,,,1,Ontime,short,d,1,2.0394,9,0,36,0,1,,,,,
,0.47,,,,,,,,,f,blue,5f9b328656ea6932eb0a2400,2021-09-27_17h10.26.906,forced_choiceRT_color,2021.2.3,Win32,60.03842459,,,,,,,,1,Ontime,short,f,1,2.0835,9,1,37,1,1,,,,,
,0.89,,,,,,,,,j,red,5f9b328656ea6932eb0a2400,2021-09-27_17h10.26.906,forced_choiceRT_color,2021.2.3,Win32,60.03842459,,,,,,,,1,Ontime,short,j,1,2.0674,9,2,38,2,1,,,,,
,1.22,,,,,,,,,d,orange,5f9b328656ea6932eb0a2400,2021-09-27_17h10.26.906,forced_choiceRT_color,2021.2.3,Win32,60.03842459,,,,,,,,1,Slow,short,d,1,2.1001,9,3,39,0,1,,,,,
,,,,,,,,,,,,5f9b328656ea6932eb0a2400,2021-09-27_17h10.26.906,forced_choiceRT_color,2021.2.3,Win32,60.03842459,,,,,,,,,,,,,,,,,,,0,0,0,0,1
,0.25,,,,,,,,,d,orange,5f9b328656ea6932eb0a2400,2021-09-27_17h10.26.906,forced_choiceRT_color,2021.2.3,Win32,60.03842459,,,,,,,,2,Slow,short,d,1,2.1781,0,0,0,0,1,,,,,
,1.62,,,,,,,,,j,red,5f9b328656ea6932eb0a2400,2021-09-27_17h10.26.906,forced_choiceRT_color,2021.2.3,Win32,60.03842459,,,,,,,,2,Slow,short,j,1,2.1684,0,1,1,2,1,,,,,
,0.3,,,,,,,,,f,blue,5f9b328656ea6932eb0a2400,2021-09-27_17h10.26.906,forced_choiceRT_color,2021.2.3,Win32,60.03842459,,,,,,,,2,Ontime,short,f,1,2.0164,0,2,2,1,1,,,,,
,0.23,,,,,,,,,d,orange,5f9b328656ea6932eb0a2400,2021-09-27_17h10.26.906,forced_choiceRT_color,2021.2.3,Win32,60.03842459,,,,,,,,2,Ontime,short,d,1,2.0511,0,3,3,0,1,,,,,
,0.85,,,,,,,,,j,red,5f9b328656ea6932eb0a2400,2021-09-27_17h10.26.906,forced_choiceRT_color,2021.2.3,Win32,60.03842459,,,,,,,,2,Ontime,short,j,1,2.0359,1,0,4,2,1,,,,,
,0.35,,,,,,,,,f,blue,5f9b328656ea6932eb0a2400,2021-09-27_17h10.26.906,forced_choiceRT_color,2021.2.3,Win32,60.03842459,,,,,,,,2,Ontime,short,f,1,2.0531,1,1,5,1,1,,,,,
,0.63,,,,,,,,,k,purple,5f9b328656ea6932eb0a2400,2021-09-27_17h10.26.906,forced_choiceRT_color,2021.2.3,Win32,60.03842459,,,,,,,,2,Ontime,short,k,1,2.0543,1,2,6,3,1,,,,,
,1.13,,,,,,,,,k,purple,5f9b328656ea6932eb0a2400,2021-09-27_17h10.26.906,forced_choiceRT_color,2021.2.3,Win32,60.03842459,,,,,,,,2,Ontime,short,k,1,2.0347,1,3,7,3,1,,,,,
,1.89,,,,,,,,,d,orange,5f9b328656ea6932eb0a2400,2021-09-27_17h10.26.906,forced_choiceRT_color,2021.2.3,Win32,60.03842459,,,,,,,,2,Slow,short,j,0,2.1178,2,0,8,0,1,,,,,
,1.43,,,,,,,,,k,purple,5f9b328656ea6932eb0a2400,2021-09-27_17h10.26.906,forced_choiceRT_color,2021.2.3,Win32,60.03842459,,,,,,,,2,Ontime,short,k,1,2.0972,2,1,9,3,1,,,,,
,0.39,,,,,,,,,j,red,5f9b328656ea6932eb0a2400,2021-09-27_17h10.26.906,forced_choiceRT_color,2021.2.3,Win32,60.03842459,,,,,,,,2,Fast,short,j,1,1.8706,2,2,10,2,1,,,,,
,1.98,,,,,,,,,j,red,5f9b328656ea6932eb0a2400,2021-09-27_17h10.26.906,forced_choiceRT_color,2021.2.3,Win32,60.03842459,,,,,,,,2,Slow,short,j,1,3.1355,2,3,11,2,1,,,,,
,1.06,,,,,,,,,f,blue,5f9b328656ea6932eb0a2400,2021-09-27_17h10.26.906,forced_choiceRT_color,2021.2.3,Win32,60.03842459,,,,,,,,2,Slow,short,d,0,2.1009,3,0,12,1,1,,,,,
,1.82,,,,,,,,,d,orange,5f9b328656ea6932eb0a2400,2021-09-27_17h10.26.906,forced_choiceRT_color,2021.2.3,Win32,60.03842459,,,,,,,,2,Ontime,short,f,0,2.0341,3,1,13,0,1,,,,,
,1.04,,,,,,,,,j,red,5f9b328656ea6932eb0a2400,2021-09-27_17h10.26.906,forced_choiceRT_color,2021.2.3,Win32,60.03842459,,,,,,,,2,Ontime,short,j,1,2.0253,3,2,14,2,1,,,,,
,0.09,,,,,,,,,f,blue,5f9b328656ea6932eb0a2400,2021-09-27_17h10.26.906,forced_choiceRT_color,2021.2.3,Win32,60.03842459,,,,,,,,2,Ontime,short,f,1,2.0172,3,3,15,1,1,,,,,
,0.72,,,,,,,,,j,red,5f9b328656ea6932eb0a2400,2021-09-27_17h10.26.906,forced_choiceRT_color,2021.2.3,Win32,60.03842459,,,,,,,,2,Ontime,short,j,1,1.9839,4,0,16,2,1,,,,,
,0.54,,,,,,,,,k,purple,5f9b328656ea6932eb0a2400,2021-09-27_17h10.26.906,forced_choiceRT_color,2021.2.3,Win32,60.03842459,,,,,,,,2,Ontime,short,k,1,2.0677,4,1,17,3,1,,,,,
,0.64,,,,,,,,,d,orange,5f9b328656ea6932eb0a2400,2021-09-27_17h10.26.906,forced_choiceRT_color,2021.2.3,Win32,60.03842459,,,,,,,,2,Slow,short,d,1,2.1012,4,2,18,0,1,,,,,
,1.39,,,,,,,,,d,orange,5f9b328656ea6932eb0a2400,2021-09-27_17h10.26.906,forced_choiceRT_color,2021.2.3,Win32,60.03842459,,,,,,,,2,Ontime,short,d,1,1.9927,4,3,19,0,1,,,,,
,1.16,,,,,,,,,k,purple,5f9b328656ea6932eb0a2400,2021-09-27_17h10.26.906,forced_choiceRT_color,2021.2.3,Win32,60.03842459,,,,,,,,2,Ontime,short,k,1,2.0817,5,0,20,3,1,,,,,
,0.97,,,,,,,,,k,purple,5f9b328656ea6932eb0a2400,2021-09-27_17h10.26.906,forced_choiceRT_color,2021.2.3,Win32,60.03842459,,,,,,,,2,Slow,short,k,1,2.1176,5,1,21,3,1,,,,,
,1.1,,,,,,,,,k,purple,5f9b328656ea6932eb0a2400,2021-09-27_17h10.26.906,forced_choiceRT_color,2021.2.3,Win32,60.03842459,,,,,,,,2,Slow,short,k,1,2.1175,5,2,22,3,1,,,,,
,1.74,,,,,,,,,f,blue,5f9b328656ea6932eb0a2400,2021-09-27_17h10.26.906,forced_choiceRT_color,2021.2.3,Win32,60.03842459,,,,,,,,2,Ontime,short,k,0,2.0507,5,3,23,1,1,,,,,
,1.06,,,,,,,,,f,blue,5f9b328656ea6932eb0a2400,2021-09-27_17h10.26.906,forced_choiceRT_color,2021.2.3,Win32,60.03842459,,,,,,,,2,Ontime,short,f,1,2.0947,6,0,24,1,1,,,,,
,0.05,,,,,,,,,d,orange,5f9b328656ea6932eb0a2400,2021-09-27_17h10.26.906,forced_choiceRT_color,2021.2.3,Win32,60.03842459,,,,,,,,2,Ontime,short,d,1,2.0614,6,1,25,0,1,,,,,
,1.04,,,,,,,,,k,purple,5f9b328656ea6932eb0a2400,2021-09-27_17h10.26.906,forced_choiceRT_color,2021.2.3,Win32,60.03842459,,,,,,,,2,Slow,short,k,1,2.1181,6,2,26,3,1,,,,,
,0.72,,,,,,,,,f,blue,5f9b328656ea6932eb0a2400,2021-09-27_17h10.26.906,forced_choiceRT_color,2021.2.3,Win32,60.03842459,,,,,,,,2,Slow,short,f,1,2.251,6,3,27,1,1,,,,,
,0.34,,,,,,,,,f,blue,5f9b328656ea6932eb0a2400,2021-09-27_17h10.26.906,forced_choiceRT_color,2021.2.3,Win32,60.03842459,,,,,,,,2,Ontime,short,f,1,2.0585,7,0,28,1,1,,,,,
,0.28,,,,,,,,,f,blue,5f9b328656ea6932eb0a2400,2021-09-27_17h10.26.906,forced_choiceRT_color,2021.2.3,Win32,60.03842459,,,,,,,,2,Ontime,short,f,1,2.0676,7,1,29,1,1,,,,,
,1.67,,,,,,,,,k,purple,5f9b328656ea6932eb0a2400,2021-09-27_17h10.26.906,forced_choiceRT_color,2021.2.3,Win32,60.03842459,,,,,,,,2,Slow,short,k,1,2.1568,7,2,30,3,1,,,,,
,1.48,,,,,,,,,d,orange,5f9b328656ea6932eb0a2400,2021-09-27_17h10.26.906,forced_choiceRT_color,2021.2.3,Win32,60.03842459,,,,,,,,2,Ontime,short,d,1,2.0165,7,3,31,0,1,,,,,
,1.54,,,,,,,,,j,red,5f9b328656ea6932eb0a2400,2021-09-27_17h10.26.906,forced_choiceRT_color,2021.2.3,Win32,60.03842459,,,,,,,,2,Slow,short,k,0,2.1022,8,0,32,2,1,,,,,
,0.24,,,,,,,,,j,red,5f9b328656ea6932eb0a2400,2021-09-27_17h10.26.906,forced_choiceRT_color,2021.2.3,Win32,60.03842459,,,,,,,,2,Ontime,short,j,1,2.0641,8,1,33,2,1,,,,,
,0.11,,,,,,,,,f,blue,5f9b328656ea6932eb0a2400,2021-09-27_17h10.26.906,forced_choiceRT_color,2021.2.3,Win32,60.03842459,,,,,,,,2,Ontime,short,f,1,2.003,8,2,34,1,1,,,,,
,0.6,,,,,,,,,d,orange,5f9b328656ea6932eb0a2400,2021-09-27_17h10.26.906,forced_choiceRT_color,2021.2.3,Win32,60.03842459,,,,,,,,2,Ontime,short,d,1,2.0327,8,3,35,0,1,,,,,
,0.53,,,,,,,,,j,red,5f9b328656ea6932eb0a2400,2021-09-27_17h10.26.906,forced_choiceRT_color,2021.2.3,Win32,60.03842459,,,,,,,,2,Slow,short,j,1,2.1009,9,0,36,2,1,,,,,
,1.83,,,,,,,,,j,red,5f9b328656ea6932eb0a2400,2021-09-27_17h10.26.906,forced_choiceRT_color,2021.2.3,Win32,60.03842459,,,,,,,,2,Fast,short,j,1,1.7178,9,1,37,2,1,,,,,
,0.71,,,,,,,,,d,orange,5f9b328656ea6932eb0a2400,2021-09-27_17h10.26.906,forced_choiceRT_color,2021.2.3,Win32,60.03842459,,,,,,,,2,Slow,short,d,1,2.1007,9,2,38,0,1,,,,,
,0.94,,,,,,,,,k,purple,5f9b328656ea6932eb0a2400,2021-09-27_17h10.26.906,forced_choiceRT_color,2021.2.3,Win32,60.03842459,,,,,,,,2,Ontime,short,k,1,2.0416,9,3,39,3,1,,,,,
,,,,,,,,,,,,5f9b328656ea6932eb0a2400,2021-09-27_17h10.26.906,forced_choiceRT_color,2021.2.3,Win32,60.03842459,,,,,,,,,,,,,,,,,,,1,0,1,0,1
,1.52,,,,,,,,,k,purple,5f9b328656ea6932eb0a2400,2021-09-27_17h10.26.906,forced_choiceRT_color,2021.2.3,Win32,60.03842459,,,,,,,,3,Slow,short,k,1,2.1041,0,0,0,3,1,,,,,
,1.8,,,,,,,,,d,orange,5f9b328656ea6932eb0a2400,2021-09-27_17h10.26.906,forced_choiceRT_color,2021.2.3,Win32,60.03842459,,,,,,,,3,Slow,short,d,1,2.2462,0,1,1,0,1,,,,,
,0,,,,,,,,,d,orange,5f9b328656ea6932eb0a2400,2021-09-27_17h10.26.906,forced_choiceRT_color,2021.2.3,Win32,60.03842459,,,,,,,,3,Ontime,short,d,1,2.0666,0,2,2,0,1,,,,,
,1.81,,,,,,,,,d,orange,5f9b328656ea6932eb0a2400,2021-09-27_17h10.26.906,forced_choiceRT_color,2021.2.3,Win32,60.03842459,,,,,,,,3,Slow,short,d,1,2.22,0,3,3,0,1,,,,,
,0.7,,,,,,,,,k,purple,5f9b328656ea6932eb0a2400,2021-09-27_17h10.26.906,forced_choiceRT_color,2021.2.3,Win32,60.03842459,,,,,,,,3,Ontime,short,k,1,2.0525,1,0,4,3,1,,,,,
,1.53,,,,,,,,,k,purple,5f9b328656ea6932eb0a2400,2021-09-27_17h10.26.906,forced_choiceRT_color,2021.2.3,Win32,60.03842459,,,,,,,,3,Ontime,short,k,1,2.001,1,1,5,3,1,,,,,
,1.67,,,,,,,,,d,orange,5f9b328656ea6932eb0a2400,2021-09-27_17h10.26.906,forced_choiceRT_color,2021.2.3,Win32,60.03842459,,,,,,,,3,Ontime,short,k,0,1.9917,1,2,6,0,1,,,,,
,0.2,,,,,,,,,f,blue,5f9b328656ea6932eb0a2400,2021-09-27_17h10.26.906,forced_choiceRT_color,2021.2.3,Win32,60.03842459,,,,,,,,3,Slow,short,f,1,2.1277,1,3,7,1,1,,,,,
,0.14,,,,,,,,,f,blue,5f9b328656ea6932eb0a2400,2021-09-27_17h10.26.906,forced_choiceRT_color,2021.2.3,Win32,60.03842459,,,,,,,,3,Slow,short,f,1,2.1172,2,0,8,1,1,,,,,
,0.15,,,,,,,,,f,blue,5f9b328656ea6932eb0a2400,2021-09-27_17h10.26.906,forced_choiceRT_color,2021.2.3,Win32,60.03842459,,,,,,,,3,Fast,short,d,0,1.7618,2,1,9,1,1,,,,,
,0.36,,,,,,,,,k,purple,5f9b328656ea6932eb0a2400,2021-09-27_17h10.26.906,forced_choiceRT_color,2021.2.3,Win32,60.03842459,,,,,,,,3,Slow,short,d,0,2.1058,2,2,10,3,1,,,,,
,1.56,,,,,,,,,f,blue,5f9b328656ea6932eb0a2400,2021-09-27_17h10.26.906,forced_choiceRT_color,2021.2.3,Win32,60.03842459,,,,,,,,3,Slow,short,j,0,2.2446,2,3,11,1,1,,,,,
,0.7,,,,,,,,,j,red,5f9b328656ea6932eb0a2400,2021-09-27_17h10.26.906,forced_choiceRT_color,2021.2.3,Win32,60.03842459,,,,,,,,3,Slow,short,j,1,2.205,3,0,12,2,1,,,,,
,0.51,,,,,,,,,j,red,5f9b328656ea6932eb0a2400,2021-09-27_17h10.26.906,forced_choiceRT_color,2021.2.3,Win32,60.03842459,,,,,,,,3,Ontime,short,j,1,2.0342,3,1,13,2,1,,,,,
,0.91,,,,,,,,,j,red,5f9b328656ea6932eb0a2400,2021-09-27_17h10.26.906,forced_choiceRT_color,2021.2.3,Win32,60.03842459,,,,,,,,3,Ontime,short,j,1,2.0441,3,2,14,2,1,,,,,
,1.9,,,,,,,,,k,purple,5f9b328656ea6932eb0a2400,2021-09-27_17h10.26.906,forced_choiceRT_color,2021.2.3,Win32,60.03842459,,,,,,,,3,Ontime,short,j,0,2.0673,3,3,15,3,1,,,,,
,1.85,,,,,,,,,j,red,5f9b328656ea6932eb0a2400,2021-09-27_17h10.26.906,forced_choiceRT_color,2021.2.3,Win32,60.03842459,,,,,,,,3,Slow,short,j,1,2.1012,4,0,16,2,1,,,,,
,0.59,,,,,,,,,k,purple,5f9b328656ea6932eb0a2400,2021-09-27_17h10.26.906,forced_choiceRT_color,2021.2.3,Win32,60.03842459,,,,,,,,3,Ontime,short,j,0,2.0672,4,1,17,3,1,,,,,
,0.5,,,,,,,,,f,blue,5f9b328656ea6932eb0a2400,2021-09-27_17h10.26.906,forced_choiceRT_color,2021.2.3,Win32,60.03842459,,,,,,,,3,Slow,short,j,0,2.1009,4,2,18,1,1,,,,,
,1.41,,,,,,,,,d,orange,5f9b328656ea6932eb0a2400,2021-09-27_17h10.26.906,forced_choiceRT_color,2021.2.3,Win32,60.03842459,,,,,,,,3,Slow,short,j,0,2.1189,4,3,19,0,1,,,,,
,0.46,,,,,,,,,j,red,5f9b328656ea6932eb0a2400,2021-09-27_17h10.26.906,forced_choiceRT_color,2021.2.3,Win32,60.03842459,,,,,,,,3,Slow,short,j,1,2.1012,5,0,20,2,1,,,,,
,1.58,,,,,,,,,f,blue,5f9b328656ea6932eb0a2400,2021-09-27_17h10.26.906,forced_choiceRT_color,2021.2.3,Win32,60.03842459,,,,,,,,3,Ontime,short,j,0,2.0691,5,1,21,1,1,,,,,
,1.26,,,,,,,,,d,orange,5f9b328656ea6932eb0a2400,2021-09-27_17h10.26.906,forced_choiceRT_color,2021.2.3,Win32,60.03842459,,,,,,,,3,Slow,short,j,0,2.1364,5,2,22,0,1,,,,,
,0.47,,,,,,,,,j,red,5f9b328656ea6932eb0a2400,2021-09-27_17h10.26.906,forced_choiceRT_color,2021.2.3,Win32,60.03842459,,,,,,,,3,Slow,short,j,1,2.1314,5,3,23,2,1,,,,,
,0.74,,,,,,,,,f,blue,5f9b328656ea6932eb0a2400,2021-09-27_17h10.26.906,forced_choiceRT_color,2021.2.3,Win32,60.03842459,,,,,,,,3,Slow,short,f,1,2.1213,6,0,24,1,1,,,,,
,1.82,,,,,,,,,k,purple,5f9b328656ea6932eb0a2400,2021-09-27_17h10.26.906,forced_choiceRT_color,2021.2.3,Win32,60.03842459,,,,,,,,3,Ontime,short,f,0,2.0733,6,1,25,3,1,,,,,
,1.77,,,,,,,,,d,orange,5f9b328656ea6932eb0a2400,2021-09-27_17h10.26.906,forced_choiceRT_color,2021.2.3,Win32,60.03842459,,,,,,,,3,Slow,short,f,0,2.1037,6,2,26,0,1,,,,,
,1.17,,,,,,,,,j,red,5f9b328656ea6932eb0a2400,2021-09-27_17h10.26.906,forced_choiceRT_color,2021.2.3,Win32,60.03842459,,,,,,,,3,Slow,short,f,0,2.1006,6,3,27,2,1,,,,,
,1.22,,,,,,,,,k,purple,5f9b328656ea6932eb0a2400,2021-09-27_17h10.26.906,forced_choiceRT_color,2021.2.3,Win32,60.03842459,,,,,,,,3,Ontime,short,f,0,2.0328,7,0,28,3,1,,,,,
,0.53,,,,,,,,,j,red,5f9b328656ea6932eb0a2400,2021-09-27_17h10.26.906,forced_choiceRT_color,2021.2.3,Win32,60.03842459,,,,,,,,3,Fast,short,f,0,1.8506,7,1,29,2,1,,,,,
,1.68,,,,,,,,,f,blue,5f9b328656ea6932eb0a2400,2021-09-27_17h10.26.906,forced_choiceRT_color,2021.2.3,Win32,60.03842459,,,,,,,,3,Slow,short,f,1,2.1012,7,2,30,1,1,,,,,
,1.12,,,,,,,,,k,purple,5f9b328656ea6932eb0a2400,2021-09-27_17h10.26.906,forced_choiceRT_color,2021.2.3,Win32,60.03842459,,,,,,,,3,Slow,short,k,1,2.12,7,3,31,3,1,,,,,
,1.96,,,,,,,,,f,blue,5f9b328656ea6932eb0a2400,2021-09-27_17h10.26.906,forced_choiceRT_color,2021.2.3,Win32,60.03842459,,,,,,,,3,Ontime,short,k,0,2.0339,8,0,32,1,1,,,,,
,1.46,,,,,,,,,d,orange,5f9b328656ea6932eb0a2400,2021-09-27_17h10.26.906,forced_choiceRT_color,2021.2.3,Win32,60.03842459,,,,,,,,3,Slow,short,k,0,2.1002,8,1,33,0,1,,,,,
,0.67,,,,,,,,,d,orange,5f9b328656ea6932eb0a2400,2021-09-27_17h10.26.906,forced_choiceRT_color,2021.2.3,Win32,60.03842459,,,,,,,,3,Ontime,short,d,1,1.9044,8,2,34,0,1,,,,,
,1.22,,,,,,,,,f,blue,5f9b328656ea6932eb0a2400,2021-09-27_17h10.26.906,forced_choiceRT_color,2021.2.3,Win32,60.03842459,,,,,,,,3,Fast,short,f,1,1.8791,8,3,35,1,1,,,,,
,1.73,,,,,,,,,j,red,5f9b328656ea6932eb0a2400,2021-09-27_17h10.26.906,forced_choiceRT_color,2021.2.3,Win32,60.03842459,,,,,,,,3,Ontime,short,f,0,1.9008,9,0,36,2,1,,,,,
,1.03,,,,,,,,,d,orange,5f9b328656ea6932eb0a2400,2021-09-27_17h10.26.906,forced_choiceRT_color,2021.2.3,Win32,60.03842459,,,,,,,,3,Fast,short,d,1,1.817,9,1,37,0,1,,,,,
,0.73,,,,,,,,,j,red,5f9b328656ea6932eb0a2400,2021-09-27_17h10.26.906,forced_choiceRT_color,2021.2.3,Win32,60.03842459,,,,,,,,3,Fast,short,j,1,1.824,9,2,38,2,1,,,,,
,0.71,,,,,,,,,k,purple,5f9b328656ea6932eb0a2400,2021-09-27_17h10.26.906,forced_choiceRT_color,2021.2.3,Win32,60.03842459,,,,,,,,3,Ontime,short,k,1,2.0739,9,3,39,3,1,,,,,
,,,,,,,,,,,,5f9b328656ea6932eb0a2400,2021-09-27_17h10.26.906,forced_choiceRT_color,2021.2.3,Win32,60.03842459,,,,,,,,,,,,,,,,,,,2,0,2,0,1
,1.71,,,,,,,,,d,orange,5f9b328656ea6932eb0a2400,2021-09-27_17h10.26.906,forced_choiceRT_color,2021.2.3,Win32,60.03842459,,,,,,,,4,Ontime,short,k,0,2.0657,0,0,0,0,1,,,,,
,0.18,,,,,,,,,d,orange,5f9b328656ea6932eb0a2400,2021-09-27_17h10.26.906,forced_choiceRT_color,2021.2.3,Win32,60.03842459,,,,,,,,4,Ontime,short,k,0,1.9836,0,1,1,0,1,,,,,
,0.15,,,,,,,,,k,purple,5f9b328656ea6932eb0a2400,2021-09-27_17h10.26.906,forced_choiceRT_color,2021.2.3,Win32,60.03842459,,,,,,,,4,Ontime,short,k,1,2.0233,0,2,2,3,1,,,,,
,0.21,,,,,,,,,f,blue,5f9b328656ea6932eb0a2400,2021-09-27_17h10.26.906,forced_choiceRT_color,2021.2.3,Win32,60.03842459,,,,,,,,4,Ontime,short,k,0,2.0505,0,3,3,1,1,,,,,
,0.91,,,,,,,,,f,blue,5f9b328656ea6932eb0a2400,2021-09-27_17h10.26.906,forced_choiceRT_color,2021.2.3,Win32,60.03842459,,,,,,,,4,Ontime,short,k,0,2.0501,1,0,4,1,1,,,,,
,0.71,,,,,,,,,f,blue,5f9b328656ea6932eb0a2400,2021-09-27_17h10.26.906,forced_choiceRT_color,2021.2.3,Win32,60.03842459,,,,,,,,4,Ontime,short,k,0,2.0699,1,1,5,1,1,,,,,
,0.97,,,,,,,,,f,blue,5f9b328656ea6932eb0a2400,2021-09-27_17h10.26.906,forced_choiceRT_color,2021.2.3,Win32,60.03842459,,,,,,,,4,Ontime,short,f,1,1.9828,1,2,6,1,1,,,,,
,1.68,,,,,,,,,d,orange,5f9b328656ea6932eb0a2400,2021-09-27_17h10.26.906,forced_choiceRT_color,2021.2.3,Win32,60.03842459,,,,,,,,4,Ontime,short,k,0,1.9345,1,3,7,0,1,,,,,
,0.66,,,,,,,,,j,red,5f9b328656ea6932eb0a2400,2021-09-27_17h10.26.906,forced_choiceRT_color,2021.2.3,Win32,60.03842459,,,,,,,,4,Ontime,short,j,1,1.9991,2,0,8,2,1,,,,,
,0.52,,,,,,,,,j,red,5f9b328656ea6932eb0a2400,2021-09-27_17h10.26.906,forced_choiceRT_color,2021.2.3,Win32,60.03842459,,,,,,,,4,Ontime,short,j,1,2.0681,2,1,9,2,1,,,,,
,0.53,,,,,,,,,d,orange,5f9b328656ea6932eb0a2400,2021-09-27_17h10.26.906,forced_choiceRT_color,2021.2.3,Win32,60.03842459,,,,,,,,4,Ontime,short,d,1,2.0339,2,2,10,0,1,,,,,
,0.96,,,,,,,,,d,orange,5f9b328656ea6932eb0a2400,2021-09-27_17h10.26.906,forced_choiceRT_color,2021.2.3,Win32,60.03842459,,,,,,,,4,Ontime,short,d,1,2.0862,2,3,11,0,1,,,,,
,1.7,,,,,,,,,f,blue,5f9b328656ea6932eb0a2400,2021-09-27_17h10.26.906,forced_choiceRT_color,2021.2.3,Win32,60.03842459,,,,,,,,4,Ontime,short,d,0,1.9379,3,0,12,1,1,,,,,
,1.42,,,,,,,,,j,red,5f9b328656ea6932eb0a2400,2021-09-27_17h10.26.906,forced_choiceRT_color,2021.2.3,Win32,60.03842459,,,,,,,,4,Ontime,short,j,1,1.9843,3,1,13,2,1,,,,,
,0.04,,,,,,,,,j,red,5f9b328656ea6932eb0a2400,2021-09-27_17h10.26.906,forced_choiceRT_color,2021.2.3,Win32,60.03842459,,,,,,,,4,Ontime,short,j,1,2.0318,3,2,14,2,1,,,,,
,1,,,,,,,,,j,red,5f9b328656ea6932eb0a2400,2021-09-27_17h10.26.906,forced_choiceRT_color,2021.2.3,Win32,60.03842459,,,,,,,,4,Ontime,short,j,1,2.0934,3,3,15,2,1,,,,,
,0.15,,,,,,,,,f,blue,5f9b328656ea6932eb0a2400,2021-09-27_17h10.26.906,forced_choiceRT_color,2021.2.3,Win32,60.03842459,,,,,,,,4,Ontime,short,f,1,1.9745,4,0,16,1,1,,,,,
,1.39,,,,,,,,,k,purple,5f9b328656ea6932eb0a2400,2021-09-27_17h10.26.906,forced_choiceRT_color,2021.2.3,Win32,60.03842459,,,,,,,,4,Ontime,short,k,1,1.9779,4,1,17,3,1,,,,,
,0.63,,,,,,,,,k,purple,5f9b328656ea6932eb0a2400,2021-09-27_17h10.26.906,forced_choiceRT_color,2021.2.3,Win32,60.03842459,,,,,,,,4,Ontime,short,k,1,2.0178,4,2,18,3,1,,,,,
,1.24,,,,,,,,,j,red,5f9b328656ea6932eb0a2400,2021-09-27_17h10.26.906,forced_choiceRT_color,2021.2.3,Win32,60.03842459,,,,,,,,4,Ontime,short,j,1,2.0064,4,3,19,2,1,,,,,
,0.56,,,,,,,,,k,purple,5f9b328656ea6932eb0a2400,2021-09-27_17h10.26.906,forced_choiceRT_color,2021.2.3,Win32,60.03842459,,,,,,,,4,Ontime,short,k,1,2.0206,5,0,20,3,1,,,,,
,0.94,,,,,,,,,d,orange,5f9b328656ea6932eb0a2400,2021-09-27_17h10.26.906,forced_choiceRT_color,2021.2.3,Win32,60.03842459,,,,,,,,4,Ontime,short,d,1,1.9511,5,1,21,0,1,,,,,
,1.78,,,,,,,,,f,blue,5f9b328656ea6932eb0a2400,2021-09-27_17h10.26.906,forced_choiceRT_color,2021.2.3,Win32,60.03842459,,,,,,,,4,Ontime,short,k,0,1.934,5,2,22,1,1,,,,,
,1.36,,,,,,,,,d,orange,5f9b328656ea6932eb0a2400,2021-09-27_17h10.26.906,forced_choiceRT_color,2021.2.3,Win32,60.03842459,,,,,,,,4,Ontime,short,d,1,2.0341,5,3,23,0,1,,,,,
,1.94,,,,,,,,,f,blue,5f9b328656ea6932eb0a2400,2021-09-27_17h10.26.906,forced_choiceRT_color,2021.2.3,Win32,60.03842459,,,,,,,,4,Fast,short,k,0,1.7843,6,0,24,1,1,,,,,
,1.99,,,,,,,,,j,red,5f9b328656ea6932eb0a2400,2021-09-27_17h10.26.906,forced_choiceRT_color,2021.2.3,Win32,60.03842459,,,,,,,,4,Ontime,short,k,0,2.0023,6,1,25,2,1,,,,,
,0.48,,,,,,,,,j,red,5f9b328656ea6932eb0a2400,2021-09-27_17h10.26.906,forced_choiceRT_color,2021.2.3,Win32,60.03842459,,,,,,,,4,Ontime,short,j,1,2.0819,6,2,26,2,1,,,,,
,0.75,,,,,,,,,k,purple,5f9b328656ea6932eb0a2400,2021-09-27_17h10.26.906,forced_choiceRT_color,2021.2.3,Win32,60.03842459,,,,,,,,4,Ontime,short,k,1,2.0275,6,3,27,3,1,,,,,
,1.92,,,,,,,,,j,red,5f9b328656ea6932eb0a2400,2021-09-27_17h10.26.906,forced_choiceRT_color,2021.2.3,Win32,60.03842459,,,,,,,,4,Ontime,short,k,0,1.9998,7,0,28,2,1,,,,,
,0.11,,,,,,,,,k,purple,5f9b328656ea6932eb0a2400,2021-09-27_17h10.26.906,forced_choiceRT_color,2021.2.3,Win32,60.03842459,,,,,,,,4,Ontime,short,k,1,2.099,7,1,29,3,1,,,,,
,1.04,,,,,,,,,j,red,5f9b328656ea6932eb0a2400,2021-09-27_17h10.26.906,forced_choiceRT_color,2021.2.3,Win32,60.03842459,,,,,,,,4,Slow,short,j,1,2.1171,7,2,30,2,1,,,,,
,1.31,,,,,,,,,k,purple,5f9b328656ea6932eb0a2400,2021-09-27_17h10.26.906,forced_choiceRT_color,2021.2.3,Win32,60.03842459,,,,,,,,4,Slow,short,k,1,2.102,7,3,31,3,1,,,,,
,0.04,,,,,,,,,d,orange,5f9b328656ea6932eb0a2400,2021-09-27_17h10.26.906,forced_choiceRT_color,2021.2.3,Win32,60.03842459,,,,,,,,4,Ontime,short,d,1,2.0346,8,0,32,0,1,,,,,
,1.8,,,,,,,,,k,purple,5f9b328656ea6932eb0a2400,2021-09-27_17h10.26.906,forced_choiceRT_color,2021.2.3,Win32,60.03842459,,,,,,,,4,Ontime,short,d,0,2.0343,8,1,33,3,1,,,,,
,1.35,,,,,,,,,f,blue,5f9b328656ea6932eb0a2400,2021-09-27_17h10.26.906,forced_choiceRT_color,2021.2.3,Win32,60.03842459,,,,,,,,4,Ontime,short,j,0,2.0207,8,2,34,1,1,,,,,
,1.63,,,,,,,,,k,purple,5f9b328656ea6932eb0a2400,2021-09-27_17h10.26.906,forced_choiceRT_color,2021.2.3,Win32,60.03842459,,,,,,,,4,Fast,short,f,0,0.0732,8,3,35,3,1,,,,,
,1.1,,,,,,,,,f,blue,5f9b328656ea6932eb0a2400,2021-09-27_17h10.26.906,forced_choiceRT_color,2021.2.3,Win32,60.03842459,,,,,,,,4,Ontime,short,f,1,2.0255,9,0,36,1,1,,,,,
,1.34,,,,,,,,,k,purple,5f9b328656ea6932eb0a2400,2021-09-27_17h10.26.906,forced_choiceRT_color,2021.2.3,Win32,60.03842459,,,,,,,,4,Slow,short,k,1,2.1014,9,1,37,3,1,,,,,
,0.34,,,,,,,,,d,orange,5f9b328656ea6932eb0a2400,2021-09-27_17h10.26.906,forced_choiceRT_color,2021.2.3,Win32,60.03842459,,,,,,,,4,Ontime,short,d,1,2.0941,9,2,38,0,1,,,,,
,0.61,,,,,,,,,d,orange,5f9b328656ea6932eb0a2400,2021-09-27_17h10.26.906,forced_choiceRT_color,2021.2.3,Win32,60.03842459,,,,,,,,4,Ontime,short,d,1,2.0905,9,3,39,0,1,,,,,
,,,,,,,,,,,,5f9b328656ea6932eb0a2400,2021-09-27_17h10.26.906,forced_choiceRT_color,2021.2.3,Win32,60.03842459,,,,,,,,,,,,,,,,,,,3,0,3,0,1
,0.94,,,,,,,,,d,orange,5f9b328656ea6932eb0a2400,2021-09-27_17h10.26.906,forced_choiceRT_color,2021.2.3,Win32,60.03842459,,,,,,,,5,Ontime,short,d,1,2.079,0,0,0,0,1,,,,,
,1.56,,,,,,,,,j,red,5f9b328656ea6932eb0a2400,2021-09-27_17h10.26.906,forced_choiceRT_color,2021.2.3,Win32,60.03842459,,,,,,,,5,Slow,short,j,1,2.1514,0,1,1,2,1,,,,,
,0,,,,,,,,,k,purple,5f9b328656ea6932eb0a2400,2021-09-27_17h10.26.906,forced_choiceRT_color,2021.2.3,Win32,60.03842459,,,,,,,,5,Ontime,short,k,1,2.0846,0,2,2,3,1,,,,,
,0.85,,,,,,,,,f,blue,5f9b328656ea6932eb0a2400,2021-09-27_17h10.26.906,forced_choiceRT_color,2021.2.3,Win32,60.03842459,,,,,,,,5,Slow,short,k,0,2.1271,0,3,3,1,1,,,,,
,1.38,,,,,,,,,k,purple,5f9b328656ea6932eb0a2400,2021-09-27_17h10.26.906,forced_choiceRT_color,2021.2.3,Win32,60.03842459,,,,,,,,5,Ontime,short,k,1,2.0003,1,0,4,3,1,,,,,
,0.77,,,,,,,,,k,purple,5f9b328656ea6932eb0a2400,2021-09-27_17h10.26.906,forced_choiceRT_color,2021.2.3,Win32,60.03842459,,,,,,,,5,Slow,short,k,1,2.1012,1,1,5,3,1,,,,,
,1.18,,,,,,,,,j,red,5f9b328656ea6932eb0a2400,2021-09-27_17h10.26.906,forced_choiceRT_color,2021.2.3,Win32,60.03842459,,,,,,,,5,Slow,short,j,1,2.1196,1,2,6,2,1,,,,,
,0.49,,,,,,,,,k,purple,5f9b328656ea6932eb0a2400,2021-09-27_17h10.26.906,forced_choiceRT_color,2021.2.3,Win32,60.03842459,,,,,,,,5,Fast,short,k,1,1.7599,1,3,7,3,1,,,,,
,1.46,,,,,,,,,k,purple,5f9b328656ea6932eb0a2400,2021-09-27_17h10.26.906,forced_choiceRT_color,2021.2.3,Win32,60.03842459,,,,,,,,5,Slow,short,k,1,2.1083,2,0,8,3,1,,,,,
,0.31,,,,,,,,,j,red,5f9b328656ea6932eb0a2400,2021-09-27_17h10.26.906,forced_choiceRT_color,2021.2.3,Win32,60.03842459,,,,,,,,5,Ontime,short,j,1,2.0527,2,1,9,2,1,,,,,
,0.09,,,,,,,,,d,orange,5f9b328656ea6932eb0a2400,2021-09-27_17h10.26.906,forced_choiceRT_color,2021.2.3,Win32,60.03842459,,,,,,,,5,Ontime,short,d,1,2.0343,2,2,10,0,1,,,,,
,1.39,,,,,,,,,j,red,5f9b328656ea6932eb0a2400,2021-09-27_17h10.26.906,forced_choiceRT_color,2021.2.3,Win32,60.03842459,,,,,,,,5,Slow,short,d,0,2.1249,2,3,11,2,1,,,,,
,1.86,,,,,,,,,f,blue,5f9b328656ea6932eb0a2400,2021-09-27_17h10.26.906,forced_choiceRT_color,2021.2.3,Win32,60.03842459,,,,,,,,5,Ontime,short,k,0,2.035,3,0,12,1,1,,,,,
,1.26,,,,,,,,,j,red,5f9b328656ea6932eb0a2400,2021-09-27_17h10.26.906,forced_choiceRT_color,2021.2.3,Win32,60.03842459,,,,,,,,5,Ontime,short,j,1,2.0367,3,1,13,2,1,,,,,
,1.49,,,,,,,,,d,orange,5f9b328656ea6932eb0a2400,2021-09-27_17h10.26.906,forced_choiceRT_color,2021.2.3,Win32,60.03842459,,,,,,,,5,Ontime,short,j,0,2.0661,3,2,14,0,1,,,,,
,1.49,,,,,,,,,k,purple,5f9b328656ea6932eb0a2400,2021-09-27_17h10.26.906,forced_choiceRT_color,2021.2.3,Win32,60.03842459,,,,,,,,5,Slow,short,k,1,2.1344,3,3,15,3,1,,,,,
,0.04,,,,,,,,,f,blue,5f9b328656ea6932eb0a2400,2021-09-27_17h10.26.906,forced_choiceRT_color,2021.2.3,Win32,60.03842459,,,,,,,,5,Ontime,short,f,1,2.034,4,0,16,1,1,,,,,
,1.93,,,,,,,,,j,red,5f9b328656ea6932eb0a2400,2021-09-27_17h10.26.906,forced_choiceRT_color,2021.2.3,Win32,60.03842459,,,,,,,,5,Ontime,short,f,0,1.984,4,1,17,2,1,,,,,
,0.87,,,,,,,,,j,red,5f9b328656ea6932eb0a2400,2021-09-27_17h10.26.906,forced_choiceRT_color,2021.2.3,Win32,60.03842459,,,,,,,,5,Fast,short,j,1,1.855,4,2,18,2,1,,,,,
,0.96,,,,,,,,,j,red,5f9b328656ea6932eb0a2400,2021-09-27_17h10.26.906,forced_choiceRT_color,2021.2.3,Win32,60.03842459,,,,,,,,5,Ontime,short,j,1,2.0678,4,3,19,2,1,,,,,
,1.36,,,,,,,,,f,blue,5f9b328656ea6932eb0a2400,2021-09-27_17h10.26.906,forced_choiceRT_color,2021.2.3,Win32,60.03842459,,,,,,,,5,Ontime,short,f,1,2.0272,5,0,20,1,1,,,,,
,1.39,,,,,,,,,f,blue,5f9b328656ea6932eb0a2400,2021-09-27_17h10.26.906,forced_choiceRT_color,2021.2.3,Win32,60.03842459,,,,,,,,5,Ontime,short,f,1,1.9671,5,1,21,1,1,,,,,
,1.12,,,,,,,,,f,blue,5f9b328656ea6932eb0a2400,2021-09-27_17h10.26.906,forced_choiceRT_color,2021.2.3,Win32,60.03842459,,,,,,,,5,Ontime,short,f,1,2.0181,5,2,22,1,1,,,,,
,0.34,,,,,,,,,k,purple,5f9b328656ea6932eb0a2400,2021-09-27_17h10.26.906,forced_choiceRT_color,2021.2.3,Win32,60.03842459,,,,,,,,5,Ontime,short,k,1,2.0837,5,3,23,3,1,,,,,
,0.21,,,,,,,,,f,blue,5f9b328656ea6932eb0a2400,2021-09-27_17h10.26.906,forced_choiceRT_color,2021.2.3,Win32,60.03842459,,,,,,,,5,Ontime,short,f,1,2.0619,6,0,24,1,1,,,,,
,0.88,,,,,,,,,j,red,5f9b328656ea6932eb0a2400,2021-09-27_17h10.26.906,forced_choiceRT_color,2021.2.3,Win32,60.03842459,,,,,,,,5,Slow,short,j,1,2.1834,6,1,25,2,1,,,,,
,0.77,,,,,,,,,d,orange,5f9b328656ea6932eb0a2400,2021-09-27_17h10.26.906,forced_choiceRT_color,2021.2.3,Win32,60.03842459,,,,,,,,5,Ontime,short,d,1,2.0691,6,2,26,0,1,,,,,
,1.49,,,,,,,,,d,orange,5f9b328656ea6932eb0a2400,2021-09-27_17h10.26.906,forced_choiceRT_color,2021.2.3,Win32,60.03842459,,,,,,,,5,Fast,short,d,1,1.7854,6,3,27,0,1,,,,,
,0.67,,,,,,,,,d,orange,5f9b328656ea6932eb0a2400,2021-09-27_17h10.26.906,forced_choiceRT_color,2021.2.3,Win32,60.03842459,,,,,,,,5,Ontime,short,d,1,2.0671,7,0,28,0,1,,,,,
,1.12,,,,,,,,,k,purple,5f9b328656ea6932eb0a2400,2021-09-27_17h10.26.906,forced_choiceRT_color,2021.2.3,Win32,60.03842459,,,,,,,,5,Ontime,short,k,1,2.0661,7,1,29,3,1,,,,,
,0.64,,,,,,,,,f,blue,5f9b328656ea6932eb0a2400,2021-09-27_17h10.26.906,forced_choiceRT_color,2021.2.3,Win32,60.03842459,,,,,,,,5,Ontime,short,f,1,2.0679,7,2,30,1,1,,,,,
,1.3,,,,,,,,,d,orange,5f9b328656ea6932eb0a2400,2021-09-27_17h10.26.906,forced_choiceRT_color,2021.2.3,Win32,60.03842459,,,,,,,,5,Ontime,short,d,1,2.0535,7,3,31,0,1,,,,,
,0.91,,,,,,,,,d,orange,5f9b328656ea6932eb0a2400,2021-09-27_17h10.26.906,forced_choiceRT_color,2021.2.3,Win32,60.03842459,,,,,,,,5,Ontime,short,d,1,2.0839,8,0,32,0,1,,,,,
,0.12,,,,,,,,,f,blue,5f9b328656ea6932eb0a2400,2021-09-27_17h10.26.906,forced_choiceRT_color,2021.2.3,Win32,60.03842459,,,,,,,,5,Ontime,short,f,1,2.0641,8,1,33,1,1,,,,,
,0.43,,,,,,,,,d,orange,5f9b328656ea6932eb0a2400,2021-09-27_17h10.26.906,forced_choiceRT_color,2021.2.3,Win32,60.03842459,,,,,,,,5,Ontime,short,d,1,2.0603,8,2,34,0,1,,,,,
,0.96,,,,,,,,,k,purple,5f9b328656ea6932eb0a2400,2021-09-27_17h10.26.906,forced_choiceRT_color,2021.2.3,Win32,60.03842459,,,,,,,,5,Slow,short,k,1,2.1006,8,3,35,3,1,,,,,
,1.52,,,,,,,,,j,red,5f9b328656ea6932eb0a2400,2021-09-27_17h10.26.906,forced_choiceRT_color,2021.2.3,Win32,60.03842459,,,,,,,,5,Ontime,short,k,0,1.9171,9,0,36,2,1,,,,,
,0.52,,,,,,,,,d,orange,5f9b328656ea6932eb0a2400,2021-09-27_17h10.26.906,forced_choiceRT_color,2021.2.3,Win32,60.03842459,,,,,,,,5,Ontime,short,d,1,2.0008,9,1,37,0,1,,,,,
,0.11,,,,,,,,,f,blue,5f9b328656ea6932eb0a2400,2021-09-27_17h10.26.906,forced_choiceRT_color,2021.2.3,Win32,60.03842459,,,,,,,,5,Ontime,short,f,1,2.0503,9,2,38,1,1,,,,,
,1.67,,,,,,,,,k,purple,5f9b328656ea6932eb0a2400,2021-09-27_17h10.26.906,forced_choiceRT_color,2021.2.3,Win32,60.03842459,,,,,,,,5,Ontime,short,f,0,2.0101,9,3,39,3,1,,,,,
,,,,,,,,,,,,5f9b328656ea6932eb0a2400,2021-09-27_17h10.26.906,forced_choiceRT_color,2021.2.3,Win32,60.03842459,,,,,,,,,,,,,,,,,,,4,0,4,0,1
,0.84,,,,,,,,,f,blue,5f9b328656ea6932eb0a2400,2021-09-27_17h10.26.906,forced_choiceRT_color,2021.2.3,Win32,60.03842459,,,,,,,,6,Slow,short,f,1,2.1402,0,0,0,1,1,,,,,
,0.78,,,,,,,,,d,orange,5f9b328656ea6932eb0a2400,2021-09-27_17h10.26.906,forced_choiceRT_color,2021.2.3,Win32,60.03842459,,,,,,,,6,Ontime,short,d,1,1.9974,0,1,1,0,1,,,,,
,1.3,,,,,,,,,f,blue,5f9b328656ea6932eb0a2400,2021-09-27_17h10.26.906,forced_choiceRT_color,2021.2.3,Win32,60.03842459,,,,,,,,6,Ontime,short,f,1,1.961,0,2,2,1,1,,,,,
,0.73,,,,,,,,,j,red,5f9b328656ea6932eb0a2400,2021-09-27_17h10.26.906,forced_choiceRT_color,2021.2.3,Win32,60.03842459,,,,,,,,6,Ontime,short,j,1,1.9496,0,3,3,2,1,,,,,
,1.7,,,,,,,,,j,red,5f9b328656ea6932eb0a2400,2021-09-27_17h10.26.906,forced_choiceRT_color,2021.2.3,Win32,60.03842459,,,,,,,,6,Ontime,short,j,1,1.9921,1,0,4,2,1,,,,,
,0.96,,,,,,,,,f,blue,5f9b328656ea6932eb0a2400,2021-09-27_17h10.26.906,forced_choiceRT_color,2021.2.3,Win32,60.03842459,,,,,,,,6,Ontime,short,f,1,2.0392,1,1,5,1,1,,,,,
,0.78,,,,,,,,,f,blue,5f9b328656ea6932eb0a2400,2021-09-27_17h10.26.906,forced_choiceRT_color,2021.2.3,Win32,60.03842459,,,,,,,,6,Ontime,short,f,1,1.9885,1,2,6,1,1,,,,,
,0.36,,,,,,,,,f,blue,5f9b328656ea6932eb0a2400,2021-09-27_17h10.26.906,forced_choiceRT_color,2021.2.3,Win32,60.03842459,,,,,,,,6,Ontime,short,f,1,1.9883,1,3,7,1,1,,,,,
,0.18,,,,,,,,,k,purple,5f9b328656ea6932eb0a2400,2021-09-27_17h10.26.906,forced_choiceRT_color,2021.2.3,Win32,60.03842459,,,,,,,,6,Ontime,short,k,1,2.0316,2,0,8,3,1,,,,,
,0.4,,,,,,,,,k,purple,5f9b328656ea6932eb0a2400,2021-09-27_17h10.26.906,forced_choiceRT_color,2021.2.3,Win32,60.03842459,,,,,,,,6,Ontime,short,k,1,2.0839,2,1,9,3,1,,,,,
,1.07,,,,,,,,,d,orange,5f9b328656ea6932eb0a2400,2021-09-27_17h10.26.906,forced_choiceRT_color,2021.2.3,Win32,60.03842459,,,,,,,,6,Ontime,short,k,0,2.0607,2,2,10,0,1,,,,,
,1.83,,,,,,,,,j,red,5f9b328656ea6932eb0a2400,2021-09-27_17h10.26.906,forced_choiceRT_color,2021.2.3,Win32,60.03842459,,,,,,,,6,Slow,short,k,0,2.1018,2,3,11,2,1,,,,,
,1.97,,,,,,,,,d,orange,5f9b328656ea6932eb0a2400,2021-09-27_17h10.26.906,forced_choiceRT_color,2021.2.3,Win32,60.03842459,,,,,,,,6,Ontime,short,j,0,2.0517,3,0,12,0,1,,,,,
,0.55,,,,,,,,,j,red,5f9b328656ea6932eb0a2400,2021-09-27_17h10.26.906,forced_choiceRT_color,2021.2.3,Win32,60.03842459,,,,,,,,6,Ontime,short,j,1,2.0845,3,1,13,2,1,,,,,
,0.17,,,,,,,,,d,orange,5f9b328656ea6932eb0a2400,2021-09-27_17h10.26.906,forced_choiceRT_color,2021.2.3,Win32,60.03842459,,,,,,,,6,Ontime,short,d,1,2.0678,3,2,14,0,1,,,,,
,1.92,,,,,,,,,d,orange,5f9b328656ea6932eb0a2400,2021-09-27_17h10.26.906,forced_choiceRT_color,2021.2.3,Win32,60.03842459,,,,,,,,6,Ontime,short,d,1,1.9676,3,3,15,0,1,,,,,
,1.44,,,,,,,,,k,purple,5f9b328656ea6932eb0a2400,2021-09-27_17h10.26.906,forced_choiceRT_color,2021.2.3,Win32,60.03842459,,,,,,,,6,Slow,short,d,0,2.1036,4,0,16,3,1,,,,,
,1.6,,,,,,,,,f,blue,5f9b328656ea6932eb0a2400,2021-09-27_17h10.26.906,forced_choiceRT_color,2021.2.3,Win32,60.03842459,,,,,,,,6,Ontime,short,k,0,1.9105,4,1,17,1,1,,,,,
,0.78,,,,,,,,,d,orange,5f9b328656ea6932eb0a2400,2021-09-27_17h10.26.906,forced_choiceRT_color,2021.2.3,Win32,60.03842459,,,,,,,,6,Ontime,short,d,1,2.0848,4,2,18,0,1,,,,,
,1.47,,,,,,,,,k,purple,5f9b328656ea6932eb0a2400,2021-09-27_17h10.26.906,forced_choiceRT_color,2021.2.3,Win32,60.03842459,,,,,,,,6,Slow,short,k,1,2.1544,4,3,19,3,1,,,,,
,0.22,,,,,,,,,k,purple,5f9b328656ea6932eb0a2400,2021-09-27_17h10.26.906,forced_choiceRT_color,2021.2.3,Win32,60.03842459,,,,,,,,6,Ontime,short,k,1,2.0009,5,0,20,3,1,,,,,
,1.77,,,,,,,,,d,orange,5f9b328656ea6932eb0a2400,2021-09-27_17h10.26.906,forced_choiceRT_color,2021.2.3,Win32,60.03842459,,,,,,,,6,Slow,short,k,0,2.1178,5,1,21,0,1,,,,,
,1.31,,,,,,,,,k,purple,5f9b328656ea6932eb0a2400,2021-09-27_17h10.26.906,forced_choiceRT_color,2021.2.3,Win32,60.03842459,,,,,,,,6,Slow,short,j,0,2.151,5,2,22,3,1,,,,,
,0.48,,,,,,,,,k,purple,5f9b328656ea6932eb0a2400,2021-09-27_17h10.26.906,forced_choiceRT_color,2021.2.3,Win32,60.03842459,,,,,,,,6,Ontime,short,k,1,2.0341,5,3,23,3,1,,,,,
,1.73,,,,,,,,,j,red,5f9b328656ea6932eb0a2400,2021-09-27_17h10.26.906,forced_choiceRT_color,2021.2.3,Win32,60.03842459,,,,,,,,6,Ontime,short,k,0,2.0679,6,0,24,2,1,,,,,
,1.63,,,,,,,,,f,blue,5f9b328656ea6932eb0a2400,2021-09-27_17h10.26.906,forced_choiceRT_color,2021.2.3,Win32,60.03842459,,,,,,,,6,Ontime,short,k,0,2.0759,6,1,25,1,1,,,,,
,1,,,,,,,,,d,orange,5f9b328656ea6932eb0a2400,2021-09-27_17h10.26.906,forced_choiceRT_color,2021.2.3,Win32,60.03842459,,,,,,,,6,Ontime,short,d,1,1.9169,6,2,26,0,1,,,,,
,1.53,,,,,,,,,j,red,5f9b328656ea6932eb0a2400,2021-09-27_17h10.26.906,forced_choiceRT_color,2021.2.3,Win32,60.03842459,,,,,,,,6,Ontime,short,d,0,1.934,6,3,27,2,1,,,,,
,0.24,,,,,,,,,k,purple,5f9b328656ea6932eb0a2400,2021-09-27_17h10.26.906,forced_choiceRT_color,2021.2.3,Win32,60.03842459,,,,,,,,6,Ontime,short,k,1,2.0185,7,0,28,3,1,,,,,
,0.72,,,,,,,,,j,red,5f9b328656ea6932eb0a2400,2021-09-27_17h10.26.906,forced_choiceRT_color,2021.2.3,Win32,60.03842459,,,,,,,,6,Ontime,short,j,1,2.0016,7,1,29,2,1,,,,,
,0.73,,,,,,,,,j,red,5f9b328656ea6932eb0a2400,2021-09-27_17h10.26.906,forced_choiceRT_color,2021.2.3,Win32,60.03842459,,,,,,,,6,Ontime,short,j,1,2.0183,7,2,30,2,1,,,,,
,0.88,,,,,,,,,j,red,5f9b328656ea6932eb0a2400,2021-09-27_17h10.26.906,forced_choiceRT_color,2021.2.3,Win32,60.03842459,,,,,,,,6,Ontime,short,j,1,1.9683,7,3,31,2,1,,,,,
,1.77,,,,,,,,,j,red,5f9b328656ea6932eb0a2400,2021-09-27_17h10.26.906,forced_choiceRT_color,2021.2.3,Win32,60.03842459,,,,,,,,6,Ontime,short,j,1,1.977,8,0,32,2,1,,,,,
,0.94,,,,,,,,,f,blue,5f9b328656ea6932eb0a2400,2021-09-27_17h10.26.906,forced_choiceRT_color,2021.2.3,Win32,60.03842459,,,,,,,,6,Fast,short,f,1,1.7449,8,1,33,1,1,,,,,
,0.56,,,,,,,,,f,blue,5f9b328656ea6932eb0a2400,2021-09-27_17h10.26.906,forced_choiceRT_color,2021.2.3,Win32,60.03842459,,,,,,,,6,Ontime,short,f,1,1.9727,8,2,34,1,1,,,,,
,1.74,,,,,,,,,f,blue,5f9b328656ea6932eb0a2400,2021-09-27_17h10.26.906,forced_choiceRT_color,2021.2.3,Win32,60.03842459,,,,,,,,6,Ontime,short,f,1,2.0056,8,3,35,1,1,,,,,
,1.44,,,,,,,,,d,orange,5f9b328656ea6932eb0a2400,2021-09-27_17h10.26.906,forced_choiceRT_color,2021.2.3,Win32,60.03842459,,,,,,,,6,Ontime,short,d,1,1.9838,9,0,36,0,1,,,,,
,0.82,,,,,,,,,d,orange,5f9b328656ea6932eb0a2400,2021-09-27_17h10.26.906,forced_choiceRT_color,2021.2.3,Win32,60.03842459,,,,,,,,6,Fast,short,d,1,1.8876,9,1,37,0,1,,,,,
,1.21,,,,,,,,,k,purple,5f9b328656ea6932eb0a2400,2021-09-27_17h10.26.906,forced_choiceRT_color,2021.2.3,Win32,60.03842459,,,,,,,,6,Fast,short,k,1,1.6973,9,2,38,3,1,,,,,
,1.45,,,,,,,,,k,purple,5f9b328656ea6932eb0a2400,2021-09-27_17h10.26.906,forced_choiceRT_color,2021.2.3,Win32,60.03842459,,,,,,,,6,Ontime,short,k,1,2.017,9,3,39,3,1,,,,,
,,,,,,,,,,,,5f9b328656ea6932eb0a2400,2021-09-27_17h10.26.906,forced_choiceRT_color,2021.2.3,Win32,60.03842459,,,,,,,,,,,,,,,,,,,5,0,5,0,1
,1.48,,,,,,,,,f,blue,5f9b328656ea6932eb0a2400,2021-09-27_17h10.26.906,forced_choiceRT_color,2021.2.3,Win32,60.03842459,,,,,,,,7,Fast,short,j,0,1.8935,0,0,0,1,1,,,,,
,0.15,,,,,,,,,k,purple,5f9b328656ea6932eb0a2400,2021-09-27_17h10.26.906,forced_choiceRT_color,2021.2.3,Win32,60.03842459,,,,,,,,7,Slow,short,f,0,2.1083,0,1,1,3,1,,,,,
,1.22,,,,,,,,,k,purple,5f9b328656ea6932eb0a2400,2021-09-27_17h10.26.906,forced_choiceRT_color,2021.2.3,Win32,60.03842459,,,,,,,,7,Slow,short,k,1,2.1569,0,2,2,3,1,,,,,
,0.87,,,,,,,,,k,purple,5f9b328656ea6932eb0a2400,2021-09-27_17h10.26.906,forced_choiceRT_color,2021.2.3,Win32,60.03842459,,,,,,,,7,Ontime,short,k,1,2.0514,0,3,3,3,1,,,,,
,1.05,,,,,,,,,k,purple,5f9b328656ea6932eb0a2400,2021-09-27_17h10.26.906,forced_choiceRT_color,2021.2.3,Win32,60.03842459,,,,,,,,7,Ontime,short,k,1,2.0675,1,0,4,3,1,,,,,
,0.38,,,,,,,,,d,orange,5f9b328656ea6932eb0a2400,2021-09-27_17h10.26.906,forced_choiceRT_color,2021.2.3,Win32,60.03842459,,,,,,,,7,Ontime,short,d,1,2.0857,1,1,5,0,1,,,,,
,1.79,,,,,,,,,j,red,5f9b328656ea6932eb0a2400,2021-09-27_17h10.26.906,forced_choiceRT_color,2021.2.3,Win32,60.03842459,,,,,,,,7,Ontime,short,k,0,2.0169,1,2,6,2,1,,,,,
,0.82,,,,,,,,,j,red,5f9b328656ea6932eb0a2400,2021-09-27_17h10.26.906,forced_choiceRT_color,2021.2.3,Win32,60.03842459,,,,,,,,7,Ontime,short,j,1,2.052,1,3,7,2,1,,,,,
,1.7,,,,,,,,,f,blue,5f9b328656ea6932eb0a2400,2021-09-27_17h10.26.906,forced_choiceRT_color,2021.2.3,Win32,60.03842459,,,,,,,,7,Ontime,short,j,0,2.0548,2,0,8,1,1,,,,,
,1.83,,,,,,,,,f,blue,5f9b328656ea6932eb0a2400,2021-09-27_17h10.26.906,forced_choiceRT_color,2021.2.3,Win32,60.03842459,,,,,,,,7,Ontime,short,j,0,1.9836,2,1,9,1,1,,,,,
,0.47,,,,,,,,,j,red,5f9b328656ea6932eb0a2400,2021-09-27_17h10.26.906,forced_choiceRT_color,2021.2.3,Win32,60.03842459,,,,,,,,7,Ontime,short,j,1,2.0541,2,2,10,2,1,,,,,
,1.46,,,,,,,,,f,blue,5f9b328656ea6932eb0a2400,2021-09-27_17h10.26.906,forced_choiceRT_color,2021.2.3,Win32,60.03842459,,,,,,,,7,Ontime,short,j,0,2.0608,2,3,11,1,1,,,,,
,0.97,,,,,,,,,d,orange,5f9b328656ea6932eb0a2400,2021-09-27_17h10.26.906,forced_choiceRT_color,2021.2.3,Win32,60.03842459,,,,,,,,7,Ontime,short,d,1,2.0505,3,0,12,0,1,,,,,
,0.81,,,,,,,,,d,orange,5f9b328656ea6932eb0a2400,2021-09-27_17h10.26.906,forced_choiceRT_color,2021.2.3,Win32,60.03842459,,,,,,,,7,Ontime,short,d,1,2.0342,3,1,13,0,1,,,,,
,0.06,,,,,,,,,f,blue,5f9b328656ea6932eb0a2400,2021-09-27_17h10.26.906,forced_choiceRT_color,2021.2.3,Win32,60.03842459,,,,,,,,7,Ontime,short,f,1,2.0411,3,2,14,1,1,,,,,
,1.37,,,,,,,,,j,red,5f9b328656ea6932eb0a2400,2021-09-27_17h10.26.906,forced_choiceRT_color,2021.2.3,Win32,60.03842459,,,,,,,,7,Ontime,short,f,0,2.0525,3,3,15,2,1,,,,,
,1.73,,,,,,,,,f,blue,5f9b328656ea6932eb0a2400,2021-09-27_17h10.26.906,forced_choiceRT_color,2021.2.3,Win32,60.03842459,,,,,,,,7,Ontime,short,f,1,1.9727,4,0,16,1,1,,,,,
,1.4,,,,,,,,,j,red,5f9b328656ea6932eb0a2400,2021-09-27_17h10.26.906,forced_choiceRT_color,2021.2.3,Win32,60.03842459,,,,,,,,7,Ontime,short,j,1,1.9488,4,1,17,2,1,,,,,
,0.52,,,,,,,,,d,orange,5f9b328656ea6932eb0a2400,2021-09-27_17h10.26.906,forced_choiceRT_color,2021.2.3,Win32,60.03842459,,,,,,,,7,Ontime,short,d,1,2.0689,4,2,18,0,1,,,,,
,0.05,,,,,,,,,j,red,5f9b328656ea6932eb0a2400,2021-09-27_17h10.26.906,forced_choiceRT_color,2021.2.3,Win32,60.03842459,,,,,,,,7,Ontime,short,j,1,2.0572,4,3,19,2,1,,,,,
,1.37,,,,,,,,,f,blue,5f9b328656ea6932eb0a2400,2021-09-27_17h10.26.906,forced_choiceRT_color,2021.2.3,Win32,60.03842459,,,,,,,,7,Ontime,short,j,0,2.0618,5,0,20,1,1,,,,,
,1.79,,,,,,,,,k,purple,5f9b328656ea6932eb0a2400,2021-09-27_17h10.26.906,forced_choiceRT_color,2021.2.3,Win32,60.03842459,,,,,,,,7,Ontime,short,j,0,2.026,5,1,21,3,1,,,,,
,1.03,,,,,,,,,j,red,5f9b328656ea6932eb0a2400,2021-09-27_17h10.26.906,forced_choiceRT_color,2021.2.3,Win32,60.03842459,,,,,,,,7,Slow,short,j,1,2.1368,5,2,22,2,1,,,,,
,0.32,,,,,,,,,j,red,5f9b328656ea6932eb0a2400,2021-09-27_17h10.26.906,forced_choiceRT_color,2021.2.3,Win32,60.03842459,,,,,,,,7,Fast,short,j,1,1.6543,5,3,23,2,1,,,,,
,0.53,,,,,,,,,d,orange,5f9b328656ea6932eb0a2400,2021-09-27_17h10.26.906,forced_choiceRT_color,2021.2.3,Win32,60.03842459,,,,,,,,7,Ontime,short,d,1,2.0016,6,0,24,0,1,,,,,
,0.85,,,,,,,,,d,orange,5f9b328656ea6932eb0a2400,2021-09-27_17h10.26.906,forced_choiceRT_color,2021.2.3,Win32,60.03842459,,,,,,,,7,Slow,short,d,1,2.1014,6,1,25,0,1,,,,,
,0.9,,,,,,,,,k,purple,5f9b328656ea6932eb0a2400,2021-09-27_17h10.26.906,forced_choiceRT_color,2021.2.3,Win32,60.03842459,,,,,,,,7,Ontime,short,k,1,2.0918,6,2,26,3,1,,,,,
,0.53,,,,,,,,,j,red,5f9b328656ea6932eb0a2400,2021-09-27_17h10.26.906,forced_choiceRT_color,2021.2.3,Win32,60.03842459,,,,,,,,7,Slow,short,j,1,2.1585,6,3,27,2,1,,,,,
,1.44,,,,,,,,,k,purple,5f9b328656ea6932eb0a2400,2021-09-27_17h10.26.906,forced_choiceRT_color,2021.2.3,Win32,60.03842459,,,,,,,,7,Ontime,short,k,1,2.0757,7,0,28,3,1,,,,,
,0.64,,,,,,,,,d,orange,5f9b328656ea6932eb0a2400,2021-09-27_17h10.26.906,forced_choiceRT_color,2021.2.3,Win32,60.03842459,,,,,,,,7,Slow,short,d,1,2.1192,7,1,29,0,1,,,,,
,0.89,,,,,,,,,j,red,5f9b328656ea6932eb0a2400,2021-09-27_17h10.26.906,forced_choiceRT_color,2021.2.3,Win32,60.03842459,,,,,,,,7,Ontime,short,j,1,1.9665,7,2,30,2,1,,,,,
,1.51,,,,,,,,,d,orange,5f9b328656ea6932eb0a2400,2021-09-27_17h10.26.906,forced_choiceRT_color,2021.2.3,Win32,60.03842459,,,,,,,,7,Fast,short,j,0,1.8778,7,3,31,0,1,,,,,
,1.31,,,,,,,,,d,orange,5f9b328656ea6932eb0a2400,2021-09-27_17h10.26.906,forced_choiceRT_color,2021.2.3,Win32,60.03842459,,,,,,,,7,Ontime,short,d,1,1.9412,8,0,32,0,1,,,,,
,0.48,,,,,,,,,f,blue,5f9b328656ea6932eb0a2400,2021-09-27_17h10.26.906,forced_choiceRT_color,2021.2.3,Win32,60.03842459,,,,,,,,7,Ontime,short,f,1,2.0512,8,1,33,1,1,,,,,
,0.63,,,,,,,,,k,purple,5f9b328656ea6932eb0a2400,2021-09-27_17h10.26.906,forced_choiceRT_color,2021.2.3,Win32,60.03842459,,,,,,,,7,Slow,short,k,1,2.1014,8,2,34,3,1,,,,,
,1.61,,,,,,,,,f,blue,5f9b328656ea6932eb0a2400,2021-09-27_17h10.26.906,forced_choiceRT_color,2021.2.3,Win32,60.03842459,,,,,,,,7,Ontime,short,k,0,2.0513,8,3,35,1,1,,,,,
,0.09,,,,,,,,,k,purple,5f9b328656ea6932eb0a2400,2021-09-27_17h10.26.906,forced_choiceRT_color,2021.2.3,Win32,60.03842459,,,,,,,,7,Ontime,short,k,1,1.9918,9,0,36,3,1,,,,,
,1.45,,,,,,,,,d,orange,5f9b328656ea6932eb0a2400,2021-09-27_17h10.26.906,forced_choiceRT_color,2021.2.3,Win32,60.03842459,,,,,,,,7,Ontime,short,k,0,2.0231,9,1,37,0,1,,,,,
,1.16,,,,,,,,,f,blue,5f9b328656ea6932eb0a2400,2021-09-27_17h10.26.906,forced_choiceRT_color,2021.2.3,Win32,60.03842459,,,,,,,,7,Ontime,short,f,1,1.9211,9,2,38,1,1,,,,,
,0.91,,,,,,,,,k,purple,5f9b328656ea6932eb0a2400,2021-09-27_17h10.26.906,forced_choiceRT_color,2021.2.3,Win32,60.03842459,,,,,,,,7,Slow,short,k,1,2.1508,9,3,39,3,1,,,,,
,,,,,,,,,,,,5f9b328656ea6932eb0a2400,2021-09-27_17h10.26.906,forced_choiceRT_color,2021.2.3,Win32,60.03842459,,,,,,,,,,,,,,,,,,,6,0,6,0,1
,0.34,,,,,,,,,d,orange,5f9b328656ea6932eb0a2400,2021-09-27_17h10.26.906,forced_choiceRT_color,2021.2.3,Win32,60.03842459,,,,,,,,8,Slow,short,d,1,4.9521,0,0,0,0,1,,,,,
,0.41,,,,,,,,,k,purple,5f9b328656ea6932eb0a2400,2021-09-27_17h10.26.906,forced_choiceRT_color,2021.2.3,Win32,60.03842459,,,,,,,,8,Ontime,short,k,1,2.0262,0,1,1,3,1,,,,,
,0.64,,,,,,,,,k,purple,5f9b328656ea6932eb0a2400,2021-09-27_17h10.26.906,forced_choiceRT_color,2021.2.3,Win32,60.03842459,,,,,,,,8,Ontime,short,k,1,2.0833,0,2,2,3,1,,,,,
,1.8,,,,,,,,,j,red,5f9b328656ea6932eb0a2400,2021-09-27_17h10.26.906,forced_choiceRT_color,2021.2.3,Win32,60.03842459,,,,,,,,8,Fast,short,k,0,1.7852,0,3,3,2,1,,,,,
,0.37,,,,,,,,,k,purple,5f9b328656ea6932eb0a2400,2021-09-27_17h10.26.906,forced_choiceRT_color,2021.2.3,Win32,60.03842459,,,,,,,,8,Ontime,short,k,1,2.0702,1,0,4,3,1,,,,,
,1.5,,,,,,,,,d,orange,5f9b328656ea6932eb0a2400,2021-09-27_17h10.26.906,forced_choiceRT_color,2021.2.3,Win32,60.03842459,,,,,,,,8,Slow,short,d,1,2.1231,1,1,5,0,1,,,,,
,0.71,,,,,,,,,f,blue,5f9b328656ea6932eb0a2400,2021-09-27_17h10.26.906,forced_choiceRT_color,2021.2.3,Win32,60.03842459,,,,,,,,8,Ontime,short,d,0,1.9699,1,2,6,1,1,,,,,
,0.53,,,,,,,,,f,blue,5f9b328656ea6932eb0a2400,2021-09-27_17h10.26.906,forced_choiceRT_color,2021.2.3,Win32,60.03842459,,,,,,,,8,Ontime,short,f,1,1.9349,1,3,7,1,1,,,,,
,1.07,,,,,,,,,j,red,5f9b328656ea6932eb0a2400,2021-09-27_17h10.26.906,forced_choiceRT_color,2021.2.3,Win32,60.03842459,,,,,,,,8,Ontime,short,j,1,2.0512,2,0,8,2,1,,,,,
,1.16,,,,,,,,,d,orange,5f9b328656ea6932eb0a2400,2021-09-27_17h10.26.906,forced_choiceRT_color,2021.2.3,Win32,60.03842459,,,,,,,,8,Ontime,short,d,1,1.9929,2,1,9,0,1,,,,,
,0.93,,,,,,,,,j,red,5f9b328656ea6932eb0a2400,2021-09-27_17h10.26.906,forced_choiceRT_color,2021.2.3,Win32,60.03842459,,,,,,,,8,Ontime,short,j,1,1.9169,2,2,10,2,1,,,,,
,0.59,,,,,,,,,d,orange,5f9b328656ea6932eb0a2400,2021-09-27_17h10.26.906,forced_choiceRT_color,2021.2.3,Win32,60.03842459,,,,,,,,8,Ontime,short,d,1,1.9008,2,3,11,0,1,,,,,
,1.81,,,,,,,,,d,orange,5f9b328656ea6932eb0a2400,2021-09-27_17h10.26.906,forced_choiceRT_color,2021.2.3,Win32,60.03842459,,,,,,,,8,Fast,short,d,1,1.7256,3,0,12,0,1,,,,,
,0.17,,,,,,,,,d,orange,5f9b328656ea6932eb0a2400,2021-09-27_17h10.26.906,forced_choiceRT_color,2021.2.3,Win32,60.03842459,,,,,,,,8,Ontime,short,d,1,1.9845,3,1,13,0,1,,,,,
,1.92,,,,,,,,,k,purple,5f9b328656ea6932eb0a2400,2021-09-27_17h10.26.906,forced_choiceRT_color,2021.2.3,Win32,60.03842459,,,,,,,,8,Ontime,short,d,0,1.9869,3,2,14,3,1,,,,,
,1.08,,,,,,,,,f,blue,5f9b328656ea6932eb0a2400,2021-09-27_17h10.26.906,forced_choiceRT_color,2021.2.3,Win32,60.03842459,,,,,,,,8,Ontime,short,j,0,2.0505,3,3,15,1,1,,,,,
,0.45,,,,,,,,,k,purple,5f9b328656ea6932eb0a2400,2021-09-27_17h10.26.906,forced_choiceRT_color,2021.2.3,Win32,60.03842459,,,,,,,,8,Ontime,short,k,1,2.0076,4,0,16,3,1,,,,,
,1.38,,,,,,,,,f,blue,5f9b328656ea6932eb0a2400,2021-09-27_17h10.26.906,forced_choiceRT_color,2021.2.3,Win32,60.03842459,,,,,,,,8,Ontime,short,k,0,2.0405,4,1,17,1,1,,,,,
,0.65,,,,,,,,,j,red,5f9b328656ea6932eb0a2400,2021-09-27_17h10.26.906,forced_choiceRT_color,2021.2.3,Win32,60.03842459,,,,,,,,8,Ontime,short,j,1,2.0005,4,2,18,2,1,,,,,
,1.04,,,,,,,,,d,orange,5f9b328656ea6932eb0a2400,2021-09-27_17h10.26.906,forced_choiceRT_color,2021.2.3,Win32,60.03842459,,,,,,,,8,Ontime,short,d,1,2.0535,4,3,19,0,1,,,,,
,0.94,,,,,,,,,f,blue,5f9b328656ea6932eb0a2400,2021-09-27_17h10.26.906,forced_choiceRT_color,2021.2.3,Win32,60.03842459,,,,,,,,8,Ontime,short,f,1,1.9914,5,0,20,1,1,,,,,
,0.63,,,,,,,,,k,purple,5f9b328656ea6932eb0a2400,2021-09-27_17h10.26.906,forced_choiceRT_color,2021.2.3,Win32,60.03842459,,,,,,,,8,Ontime,short,k,1,2.0334,5,1,21,3,1,,,,,
,0.52,,,,,,,,,d,orange,5f9b328656ea6932eb0a2400,2021-09-27_17h10.26.906,forced_choiceRT_color,2021.2.3,Win32,60.03842459,,,,,,,,8,Ontime,short,d,1,2.0197,5,2,22,0,1,,,,,
,1.08,,,,,,,,,j,red,5f9b328656ea6932eb0a2400,2021-09-27_17h10.26.906,forced_choiceRT_color,2021.2.3,Win32,60.03842459,,,,,,,,8,Fast,short,j,1,1.8829,5,3,23,2,1,,,,,
,1.55,,,,,,,,,d,orange,5f9b328656ea6932eb0a2400,2021-09-27_17h10.26.906,forced_choiceRT_color,2021.2.3,Win32,60.03842459,,,,,,,,8,Slow,short,d,1,2.1173,6,0,24,0,1,,,,,
,0.89,,,,,,,,,f,blue,5f9b328656ea6932eb0a2400,2021-09-27_17h10.26.906,forced_choiceRT_color,2021.2.3,Win32,60.03842459,,,,,,,,8,Slow,short,f,1,2.1174,6,1,25,1,1,,,,,
,0.63,,,,,,,,,j,red,5f9b328656ea6932eb0a2400,2021-09-27_17h10.26.906,forced_choiceRT_color,2021.2.3,Win32,60.03842459,,,,,,,,8,Ontime,short,j,1,2.0325,6,2,26,2,1,,,,,
,1.81,,,,,,,,,f,blue,5f9b328656ea6932eb0a2400,2021-09-27_17h10.26.906,forced_choiceRT_color,2021.2.3,Win32,60.03842459,,,,,,,,8,Ontime,short,k,0,2.0334,6,3,27,1,1,,,,,
,1.2,,,,,,,,,j,red,5f9b328656ea6932eb0a2400,2021-09-27_17h10.26.906,forced_choiceRT_color,2021.2.3,Win32,60.03842459,,,,,,,,8,Ontime,short,j,1,2.0837,7,0,28,2,1,,,,,
,1.12,,,,,,,,,d,orange,5f9b328656ea6932eb0a2400,2021-09-27_17h10.26.906,forced_choiceRT_color,2021.2.3,Win32,60.03842459,,,,,,,,8,Slow,short,d,1,2.1011,7,1,29,0,1,,,,,
,1.37,,,,,,,,,k,purple,5f9b328656ea6932eb0a2400,2021-09-27_17h10.26.906,forced_choiceRT_color,2021.2.3,Win32,60.03842459,,,,,,,,8,Slow,short,k,1,2.4775,7,2,30,3,1,,,,,
,0.53,,,,,,,,,k,purple,5f9b328656ea6932eb0a2400,2021-09-27_17h10.26.906,forced_choiceRT_color,2021.2.3,Win32,60.03842459,,,,,,,,8,Ontime,short,k,1,2.0515,7,3,31,3,1,,,,,
,0.89,,,,,,,,,j,red,5f9b328656ea6932eb0a2400,2021-09-27_17h10.26.906,forced_choiceRT_color,2021.2.3,Win32,60.03842459,,,,,,,,8,Fast,short,j,1,1.8678,8,0,32,2,1,,,,,
,1.11,,,,,,,,,j,red,5f9b328656ea6932eb0a2400,2021-09-27_17h10.26.906,forced_choiceRT_color,2021.2.3,Win32,60.03842459,,,,,,,,8,Ontime,short,j,1,2.0245,8,1,33,2,1,,,,,
,0.98,,,,,,,,,j,red,5f9b328656ea6932eb0a2400,2021-09-27_17h10.26.906,forced_choiceRT_color,2021.2.3,Win32,60.03842459,,,,,,,,8,Slow,short,j,1,2.1344,8,2,34,2,1,,,,,
,1.82,,,,,,,,,f,blue,5f9b328656ea6932eb0a2400,2021-09-27_17h10.26.906,forced_choiceRT_color,2021.2.3,Win32,60.03842459,,,,,,,,8,Ontime,short,j,0,2.0178,8,3,35,1,1,,,,,
,1.27,,,,,,,,,k,purple,5f9b328656ea6932eb0a2400,2021-09-27_17h10.26.906,forced_choiceRT_color,2021.2.3,Win32,60.03842459,,,,,,,,8,Slow,short,k,1,2.1013,9,0,36,3,1,,,,,
,1.33,,,,,,,,,f,blue,5f9b328656ea6932eb0a2400,2021-09-27_17h10.26.906,forced_choiceRT_color,2021.2.3,Win32,60.03842459,,,,,,,,8,Slow,short,j,0,2.1343,9,1,37,1,1,,,,,
,0.98,,,,,,,,,k,purple,5f9b328656ea6932eb0a2400,2021-09-27_17h10.26.906,forced_choiceRT_color,2021.2.3,Win32,60.03842459,,,,,,,,8,Fast,short,k,1,1.6223,9,2,38,3,1,,,,,
,1.57,,,,,,,,,f,blue,5f9b328656ea6932eb0a2400,2021-09-27_17h10.26.906,forced_choiceRT_color,2021.2.3,Win32,60.03842459,,,,,,,,8,Slow,short,f,1,2.1581,9,3,39,1,1,,,,,
,,,,,,,,,,,,5f9b328656ea6932eb0a2400,2021-09-27_17h10.26.906,forced_choiceRT_color,2021.2.3,Win32,60.03842459,,,,,,,,,,,,,,,,,,,7,0,7,0,1
,0.21,,,,,,,,,f,blue,5f9b328656ea6932eb0a2400,2021-09-27_17h10.26.906,forced_choiceRT_color,2021.2.3,Win32,60.03842459,,,,,,,,9,Ontime,short,f,1,2.0602,0,0,0,1,1,,,,,
,1.56,,,,,,,,,k,purple,5f9b328656ea6932eb0a2400,2021-09-27_17h10.26.906,forced_choiceRT_color,2021.2.3,Win32,60.03842459,,,,,,,,9,Slow,short,k,1,2.1934,0,1,1,3,1,,,,,
,0.65,,,,,,,,,d,orange,5f9b328656ea6932eb0a2400,2021-09-27_17h10.26.906,forced_choiceRT_color,2021.2.3,Win32,60.03842459,,,,,,,,9,Slow,short,d,1,2.1651,0,2,2,0,1,,,,,
,1.67,,,,,,,,,f,blue,5f9b328656ea6932eb0a2400,2021-09-27_17h10.26.906,forced_choiceRT_color,2021.2.3,Win32,60.03842459,,,,,,,,9,Ontime,short,d,0,2.0039,0,3,3,1,1,,,,,
,0.27,,,,,,,,,f,blue,5f9b328656ea6932eb0a2400,2021-09-27_17h10.26.906,forced_choiceRT_color,2021.2.3,Win32,60.03842459,,,,,,,,9,Ontime,short,f,1,2.0331,1,0,4,1,1,,,,,
,1.49,,,,,,,,,d,orange,5f9b328656ea6932eb0a2400,2021-09-27_17h10.26.906,forced_choiceRT_color,2021.2.3,Win32,60.03842459,,,,,,,,9,Ontime,short,f,0,2.0511,1,1,5,0,1,,,,,
,1.07,,,,,,,,,k,purple,5f9b328656ea6932eb0a2400,2021-09-27_17h10.26.906,forced_choiceRT_color,2021.2.3,Win32,60.03842459,,,,,,,,9,Ontime,short,k,1,2.0503,1,2,6,3,1,,,,,
,1.96,,,,,,,,,f,blue,5f9b328656ea6932eb0a2400,2021-09-27_17h10.26.906,forced_choiceRT_color,2021.2.3,Win32,60.03842459,,,,,,,,9,Ontime,short,k,0,1.9851,1,3,7,1,1,,,,,
,1.96,,,,,,,,,j,red,5f9b328656ea6932eb0a2400,2021-09-27_17h10.26.906,forced_choiceRT_color,2021.2.3,Win32,60.03842459,,,,,,,,9,Ontime,short,k,0,1.9675,2,0,8,2,1,,,,,
,0.39,,,,,,,,,k,purple,5f9b328656ea6932eb0a2400,2021-09-27_17h10.26.906,forced_choiceRT_color,2021.2.3,Win32,60.03842459,,,,,,,,9,Ontime,short,k,1,1.9708,2,1,9,3,1,,,,,
,0.1,,,,,,,,,j,red,5f9b328656ea6932eb0a2400,2021-09-27_17h10.26.906,forced_choiceRT_color,2021.2.3,Win32,60.03842459,,,,,,,,9,Ontime,short,j,1,1.9997,2,2,10,2,1,,,,,
,0.65,,,,,,,,,j,red,5f9b328656ea6932eb0a2400,2021-09-27_17h10.26.906,forced_choiceRT_color,2021.2.3,Win32,60.03842459,,,,,,,,9,Ontime,short,j,1,2.0008,2,3,11,2,1,,,,,
,1.28,,,,,,,,,d,orange,5f9b328656ea6932eb0a2400,2021-09-27_17h10.26.906,forced_choiceRT_color,2021.2.3,Win32,60.03842459,,,,,,,,9,Ontime,short,j,0,1.9675,3,0,12,0,1,,,,,
,1.92,,,,,,,,,k,purple,5f9b328656ea6932eb0a2400,2021-09-27_17h10.26.906,forced_choiceRT_color,2021.2.3,Win32,60.03842459,,,,,,,,9,Ontime,short,j,0,2.0007,3,1,13,3,1,,,,,
,0.9,,,,,,,,,d,orange,5f9b328656ea6932eb0a2400,2021-09-27_17h10.26.906,forced_choiceRT_color,2021.2.3,Win32,60.03842459,,,,,,,,9,Slow,short,d,1,2.2181,3,2,14,0,1,,,,,
,0.64,,,,,,,,,f,blue,5f9b328656ea6932eb0a2400,2021-09-27_17h10.26.906,forced_choiceRT_color,2021.2.3,Win32,60.03842459,,,,,,,,9,Ontime,short,j,0,2.0603,3,3,15,1,1,,,,,
,1.45,,,,,,,,,d,orange,5f9b328656ea6932eb0a2400,2021-09-27_17h10.26.906,forced_choiceRT_color,2021.2.3,Win32,60.03842459,,,,,,,,9,Ontime,short,f,0,2.0419,4,0,16,0,1,,,,,
,0.9,,,,,,,,,d,orange,5f9b328656ea6932eb0a2400,2021-09-27_17h10.26.906,forced_choiceRT_color,2021.2.3,Win32,60.03842459,,,,,,,,9,Ontime,short,d,1,2.0089,4,1,17,0,1,,,,,
,1.14,,,,,,,,,j,red,5f9b328656ea6932eb0a2400,2021-09-27_17h10.26.906,forced_choiceRT_color,2021.2.3,Win32,60.03842459,,,,,,,,9,Slow,short,j,1,2.1173,4,2,18,2,1,,,,,
,0.91,,,,,,,,,j,red,5f9b328656ea6932eb0a2400,2021-09-27_17h10.26.906,forced_choiceRT_color,2021.2.3,Win32,60.03842459,,,,,,,,9,Fast,short,j,1,1.3863,4,3,19,2,1,,,,,
,0.62,,,,,,,,,d,orange,5f9b328656ea6932eb0a2400,2021-09-27_17h10.26.906,forced_choiceRT_color,2021.2.3,Win32,60.03842459,,,,,,,,9,Ontime,short,d,1,2.0699,5,0,20,0,1,,,,,
,1.02,,,,,,,,,k,purple,5f9b328656ea6932eb0a2400,2021-09-27_17h10.26.906,forced_choiceRT_color,2021.2.3,Win32,60.03842459,,,,,,,,9,Ontime,short,k,1,2.0515,5,1,21,3,1,,,,,
,0.47,,,,,,,,,k,purple,5f9b328656ea6932eb0a2400,2021-09-27_17h10.26.906,forced_choiceRT_color,2021.2.3,Win32,60.03842459,,,,,,,,9,Ontime,short,k,1,2.051,5,2,22,3,1,,,,,
,0.19,,,,,,,,,k,purple,5f9b328656ea6932eb0a2400,2021-09-27_17h10.26.906,forced_choiceRT_color,2021.2.3,Win32,60.03842459,,,,,,,,9,Ontime,short,k,1,2.0007,5,3,23,3,1,,,,,
,1.13,,,,,,,,,f,blue,5f9b328656ea6932eb0a2400,2021-09-27_17h10.26.906,forced_choiceRT_color,2021.2.3,Win32,60.03842459,,,,,,,,9,Slow,short,f,1,2.124,6,0,24,1,1,,,,,
,0.96,,,,,,,,,k,purple,5f9b328656ea6932eb0a2400,2021-09-27_17h10.26.906,forced_choiceRT_color,2021.2.3,Win32,60.03842459,,,,,,,,9,Ontime,short,k,1,2.0253,6,1,25,3,1,,,,,
,1.3,,,,,,,,,j,red,5f9b328656ea6932eb0a2400,2021-09-27_17h10.26.906,forced_choiceRT_color,2021.2.3,Win32,60.03842459,,,,,,,,9,Ontime,short,j,1,2.0711,6,2,26,2,1,,,,,
,1.46,,,,,,,,,k,purple,5f9b328656ea6932eb0a2400,2021-09-27_17h10.26.906,forced_choiceRT_color,2021.2.3,Win32,60.03842459,,,,,,,,9,Slow,short,k,1,2.2503,6,3,27,3,1,,,,,
,0.35,,,,,,,,,j,red,5f9b328656ea6932eb0a2400,2021-09-27_17h10.26.906,forced_choiceRT_color,2021.2.3,Win32,60.03842459,,,,,,,,9,Fast,short,k,0,1.6171,7,0,28,2,1,,,,,
,0.86,,,,,,,,,j,red,5f9b328656ea6932eb0a2400,2021-09-27_17h10.26.906,forced_choiceRT_color,2021.2.3,Win32,60.03842459,,,,,,,,9,Fast,short,j,1,1.8679,7,1,29,2,1,,,,,
,0.16,,,,,,,,,j,red,5f9b328656ea6932eb0a2400,2021-09-27_17h10.26.906,forced_choiceRT_color,2021.2.3,Win32,60.03842459,,,,,,,,9,Ontime,short,j,1,2.0705,7,2,30,2,1,,,,,
,1.81,,,,,,,,,d,orange,5f9b328656ea6932eb0a2400,2021-09-27_17h10.26.906,forced_choiceRT_color,2021.2.3,Win32,60.03842459,,,,,,,,9,Ontime,short,j,0,2.0427,7,3,31,0,1,,,,,
,0.56,,,,,,,,,d,orange,5f9b328656ea6932eb0a2400,2021-09-27_17h10.26.906,forced_choiceRT_color,2021.2.3,Win32,60.03842459,,,,,,,,9,Ontime,short,d,1,2.0567,8,0,32,0,1,,,,,
,1.75,,,,,,,,,f,blue,5f9b328656ea6932eb0a2400,2021-09-27_17h10.26.906,forced_choiceRT_color,2021.2.3,Win32,60.03842459,,,,,,,,9,Ontime,short,d,0,2.0346,8,1,33,1,1,,,,,
,0.25,,,,,,,,,d,orange,5f9b328656ea6932eb0a2400,2021-09-27_17h10.26.906,forced_choiceRT_color,2021.2.3,Win32,60.03842459,,,,,,,,9,Ontime,short,d,1,1.9842,8,2,34,0,1,,,,,
,0.29,,,,,,,,,f,blue,5f9b328656ea6932eb0a2400,2021-09-27_17h10.26.906,forced_choiceRT_color,2021.2.3,Win32,60.03842459,,,,,,,,9,Slow,short,d,0,2.118,8,3,35,1,1,,,,,
,0.79,,,,,,,,,j,red,5f9b328656ea6932eb0a2400,2021-09-27_17h10.26.906,forced_choiceRT_color,2021.2.3,Win32,60.03842459,,,,,,,,9,Fast,short,j,1,1.7041,9,0,36,2,1,,,,,
,1.83,,,,,,,,,k,purple,5f9b328656ea6932eb0a2400,2021-09-27_17h10.26.906,forced_choiceRT_color,2021.2.3,Win32,60.03842459,,,,,,,,9,Ontime,short,j,0,2.0644,9,1,37,3,1,,,,,
,0.27,,,,,,,,,f,blue,5f9b328656ea6932eb0a2400,2021-09-27_17h10.26.906,forced_choiceRT_color,2021.2.3,Win32,60.03842459,,,,,,,,9,Slow,short,f,1,2.1012,9,2,38,1,1,,,,,
,1.33,,,,,,,,,f,blue,5f9b328656ea6932eb0a2400,2021-09-27_17h10.26.906,forced_choiceRT_color,2021.2.3,Win32,60.03842459,,,,,,,,9,Ontime,short,f,1,2.0185,9,3,39,1,1,,,,,
,,,,,,,,,,,,5f9b328656ea6932eb0a2400,2021-09-27_17h10.26.906,forced_choiceRT_color,2021.2.3,Win32,60.03842459,,,,,,,,,,,,,,,,,,,8,0,8,0,1
,1.72,,,,,,,,,f,blue,5f9b328656ea6932eb0a2400,2021-09-27_17h10.26.906,forced_choiceRT_color,2021.2.3,Win32,60.03842459,,,,,,,,10,Ontime,short,j,0,2.0605,0,0,0,1,1,,,,,
,0.47,,,,,,,,,j,red,5f9b328656ea6932eb0a2400,2021-09-27_17h10.26.906,forced_choiceRT_color,2021.2.3,Win32,60.03842459,,,,,,,,10,Ontime,short,j,1,2.051,0,1,1,2,1,,,,,
,1.73,,,,,,,,,k,purple,5f9b328656ea6932eb0a2400,2021-09-27_17h10.26.906,forced_choiceRT_color,2021.2.3,Win32,60.03842459,,,,,,,,10,Ontime,short,j,0,1.995,0,2,2,3,1,,,,,
,0.12,,,,,,,,,f,blue,5f9b328656ea6932eb0a2400,2021-09-27_17h10.26.906,forced_choiceRT_color,2021.2.3,Win32,60.03842459,,,,,,,,10,Ontime,short,f,1,1.9614,0,3,3,1,1,,,,,
,0.81,,,,,,,,,d,orange,5f9b328656ea6932eb0a2400,2021-09-27_17h10.26.906,forced_choiceRT_color,2021.2.3,Win32,60.03842459,,,,,,,,10,Ontime,short,d,1,2.0345,1,0,4,0,1,,,,,
,1.29,,,,,,,,,d,orange,5f9b328656ea6932eb0a2400,2021-09-27_17h10.26.906,forced_choiceRT_color,2021.2.3,Win32,60.03842459,,,,,,,,10,Ontime,short,d,1,2.0179,1,1,5,0,1,,,,,
,0.16,,,,,,,,,j,red,5f9b328656ea6932eb0a2400,2021-09-27_17h10.26.906,forced_choiceRT_color,2021.2.3,Win32,60.03842459,,,,,,,,10,Ontime,short,j,1,1.9336,1,2,6,2,1,,,,,
,1.55,,,,,,,,,f,blue,5f9b328656ea6932eb0a2400,2021-09-27_17h10.26.906,forced_choiceRT_color,2021.2.3,Win32,60.03842459,,,,,,,,10,Ontime,short,j,0,2.0848,1,3,7,1,1,,,,,
,0.26,,,,,,,,,d,orange,5f9b328656ea6932eb0a2400,2021-09-27_17h10.26.906,forced_choiceRT_color,2021.2.3,Win32,60.03842459,,,,,,,,10,Ontime,short,d,1,2.0343,2,0,8,0,1,,,,,
,1.66,,,,,,,,,j,red,5f9b328656ea6932eb0a2400,2021-09-27_17h10.26.906,forced_choiceRT_color,2021.2.3,Win32,60.03842459,,,,,,,,10,Ontime,short,d,0,2.0011,2,1,9,2,1,,,,,
,0.98,,,,,,,,,k,purple,5f9b328656ea6932eb0a2400,2021-09-27_17h10.26.906,forced_choiceRT_color,2021.2.3,Win32,60.03842459,,,,,,,,10,Ontime,short,k,1,2.0176,2,2,10,3,1,,,,,
,0.19,,,,,,,,,k,purple,5f9b328656ea6932eb0a2400,2021-09-27_17h10.26.906,forced_choiceRT_color,2021.2.3,Win32,60.03842459,,,,,,,,10,Ontime,short,k,1,2.0679,2,3,11,3,1,,,,,
,1.6,,,,,,,,,d,orange,5f9b328656ea6932eb0a2400,2021-09-27_17h10.26.906,forced_choiceRT_color,2021.2.3,Win32,60.03842459,,,,,,,,10,Ontime,short,k,0,2.001,3,0,12,0,1,,,,,
,0.31,,,,,,,,,j,red,5f9b328656ea6932eb0a2400,2021-09-27_17h10.26.906,forced_choiceRT_color,2021.2.3,Win32,60.03842459,,,,,,,,10,Ontime,short,j,1,1.9996,3,1,13,2,1,,,,,
,0.47,,,,,,,,,f,blue,5f9b328656ea6932eb0a2400,2021-09-27_17h10.26.906,forced_choiceRT_color,2021.2.3,Win32,60.03842459,,,,,,,,10,Ontime,short,f,1,2.0673,3,2,14,1,1,,,,,
,0.48,,,,,,,,,k,purple,5f9b328656ea6932eb0a2400,2021-09-27_17h10.26.906,forced_choiceRT_color,2021.2.3,Win32,60.03842459,,,,,,,,10,Ontime,short,k,1,2.0011,3,3,15,3,1,,,,,
,0.55,,,,,,,,,d,orange,5f9b328656ea6932eb0a2400,2021-09-27_17h10.26.906,forced_choiceRT_color,2021.2.3,Win32,60.03842459,,,,,,,,10,Slow,short,d,1,2.1017,4,0,16,0,1,,,,,
,0.21,,,,,,,,,d,orange,5f9b328656ea6932eb0a2400,2021-09-27_17h10.26.906,forced_choiceRT_color,2021.2.3,Win32,60.03842459,,,,,,,,10,Ontime,short,d,1,2.0325,4,1,17,0,1,,,,,
,0.34,,,,,,,,,f,blue,5f9b328656ea6932eb0a2400,2021-09-27_17h10.26.906,forced_choiceRT_color,2021.2.3,Win32,60.03842459,,,,,,,,10,Ontime,short,f,1,2.051,4,2,18,1,1,,,,,
,1.55,,,,,,,,,d,orange,5f9b328656ea6932eb0a2400,2021-09-27_17h10.26.906,forced_choiceRT_color,2021.2.3,Win32,60.03842459,,,,,,,,10,Slow,short,d,1,2.122,4,3,19,0,1,,,,,
,0.32,,,,,,,,,f,blue,5f9b328656ea6932eb0a2400,2021-09-27_17h10.26.906,forced_choiceRT_color,2021.2.3,Win32,60.03842459,,,,,,,,10,Ontime,short,f,1,2.0347,5,0,20,1,1,,,,,
,1.2,,,,,,,,,j,red,5f9b328656ea6932eb0a2400,2021-09-27_17h10.26.906,forced_choiceRT_color,2021.2.3,Win32,60.03842459,,,,,,,,10,Slow,short,f,0,2.1173,5,1,21,2,1,,,,,
,1.9,,,,,,,,,d,orange,5f9b328656ea6932eb0a2400,2021-09-27_17h10.26.906,forced_choiceRT_color,2021.2.3,Win32,60.03842459,,,,,,,,10,Fast,short,f,0,1.6176,5,2,22,0,1,,,,,
,1.5,,,,,,,,,f,blue,5f9b328656ea6932eb0a2400,2021-09-27_17h10.26.906,forced_choiceRT_color,2021.2.3,Win32,60.03842459,,,,,,,,10,Ontime,short,f,1,2.084,5,3,23,1,1,,,,,
,0.97,,,,,,,,,f,blue,5f9b328656ea6932eb0a2400,2021-09-27_17h10.26.906,forced_choiceRT_color,2021.2.3,Win32,60.03842459,,,,,,,,10,Ontime,short,f,1,2.0666,6,0,24,1,1,,,,,
,0.62,,,,,,,,,k,purple,5f9b328656ea6932eb0a2400,2021-09-27_17h10.26.906,forced_choiceRT_color,2021.2.3,Win32,60.03842459,,,,,,,,10,Ontime,short,k,1,2.0792,6,1,25,3,1,,,,,
,1.15,,,,,,,,,k,purple,5f9b328656ea6932eb0a2400,2021-09-27_17h10.26.906,forced_choiceRT_color,2021.2.3,Win32,60.03842459,,,,,,,,10,Ontime,short,k,1,2.0941,6,2,26,3,1,,,,,
,1.65,,,,,,,,,d,orange,5f9b328656ea6932eb0a2400,2021-09-27_17h10.26.906,forced_choiceRT_color,2021.2.3,Win32,60.03842459,,,,,,,,10,Ontime,short,k,0,2.0524,6,3,27,0,1,,,,,
,0.14,,,,,,,,,f,blue,5f9b328656ea6932eb0a2400,2021-09-27_17h10.26.906,forced_choiceRT_color,2021.2.3,Win32,60.03842459,,,,,,,,10,Ontime,short,f,1,2.0865,7,0,28,1,1,,,,,
,0.34,,,,,,,,,j,red,5f9b328656ea6932eb0a2400,2021-09-27_17h10.26.906,forced_choiceRT_color,2021.2.3,Win32,60.03842459,,,,,,,,10,Ontime,short,j,1,2.037,7,1,29,2,1,,,,,
,1.58,,,,,,,,,k,purple,5f9b328656ea6932eb0a2400,2021-09-27_17h10.26.906,forced_choiceRT_color,2021.2.3,Win32,60.03842459,,,,,,,,10,Slow,short,j,0,2.1019,7,2,30,3,1,,,,,
,1.83,,,,,,,,,j,red,5f9b328656ea6932eb0a2400,2021-09-27_17h10.26.906,forced_choiceRT_color,2021.2.3,Win32,60.03842459,,,,,,,,10,Ontime,short,j,1,2.0578,7,3,31,2,1,,,,,
,0.43,,,,,,,,,k,purple,5f9b328656ea6932eb0a2400,2021-09-27_17h10.26.906,forced_choiceRT_color,2021.2.3,Win32,60.03842459,,,,,,,,10,Ontime,short,k,1,2.0042,8,0,32,3,1,,,,,
,0.03,,,,,,,,,k,purple,5f9b328656ea6932eb0a2400,2021-09-27_17h10.26.906,forced_choiceRT_color,2021.2.3,Win32,60.03842459,,,,,,,,10,Ontime,short,k,1,2.0293,8,1,33,3,1,,,,,
,1.81,,,,,,,,,k,purple,5f9b328656ea6932eb0a2400,2021-09-27_17h10.26.906,forced_choiceRT_color,2021.2.3,Win32,60.03842459,,,,,,,,10,Ontime,short,k,1,2.0363,8,2,34,3,1,,,,,
,1.48,,,,,,,,,d,orange,5f9b328656ea6932eb0a2400,2021-09-27_17h10.26.906,forced_choiceRT_color,2021.2.3,Win32,60.03842459,,,,,,,,10,Ontime,short,k,0,2.0808,8,3,35,0,1,,,,,
,1.51,,,,,,,,,j,red,5f9b328656ea6932eb0a2400,2021-09-27_17h10.26.906,forced_choiceRT_color,2021.2.3,Win32,60.03842459,,,,,,,,10,Ontime,short,k,0,2.0632,9,0,36,2,1,,,,,
,0.72,,,,,,,,,j,red,5f9b328656ea6932eb0a2400,2021-09-27_17h10.26.906,forced_choiceRT_color,2021.2.3,Win32,60.03842459,,,,,,,,10,Ontime,short,j,1,1.973,9,1,37,2,1,,,,,
,1.13,,,,,,,,,f,blue,5f9b328656ea6932eb0a2400,2021-09-27_17h10.26.906,forced_choiceRT_color,2021.2.3,Win32,60.03842459,,,,,,,,10,Ontime,short,f,1,2.0185,9,2,38,1,1,,,,,
,1.86,,,,,,,,,j,red,5f9b328656ea6932eb0a2400,2021-09-27_17h10.26.906,forced_choiceRT_color,2021.2.3,Win32,60.03842459,,,,,,,,10,Ontime,short,f,0,2.0759,9,3,39,2,1,,,,,
,,,,,,,,,,,,5f9b328656ea6932eb0a2400,2021-09-27_17h10.26.906,forced_choiceRT_color,2021.2.3,Win32,60.03842459,,,,,,,,,,,,,,,,,,,9,0,9,0,1
