IP_Addresss,target_onset,trial_resp_sp.keys,trial_resp_sp.corr,trial_resp_sp.rt,trials_train_loop.thisRepN,trials_train_loop.thisTrialN,trials_train_loop.thisN,trials_train_loop.thisIndex,trials_train_loop.ran,correct_key,color,participant,date,expName,psychopyVersion,OS,frameRate,trial_resp_timing.keys,trial_resp_timing.rt,trials_train_timing.thisRepN,trials_train_timing.thisTrialN,trials_train_timing.thisN,trials_train_timing.thisIndex,trials_train_timing.ran,block_id,ontime,feedback_cond,forcedRT_resp.keys,forcedRT_resp.corr,forcedRT_resp.rt,trials.thisRepN,trials.thisTrialN,trials.thisN,trials.thisIndex,trials.ran,blocks.thisRepN,blocks.thisTrialN,blocks.thisN,blocks.thisIndex,blocks.ran
70.117.233.92,0,j,1,0.902,0,0,0,2,1,j,red,5f9f6e40ea7f965ca33bf97f,2021-09-27_13h18.22.419,forced_choiceRT_color,2021.2.3,Linux x86_64,30.00210015,,,,,,,,,,,,,,,,,,,,,,,
,0,k,1,0.723,0,1,1,3,1,k,purple,5f9f6e40ea7f965ca33bf97f,2021-09-27_13h18.22.419,forced_choiceRT_color,2021.2.3,Linux x86_64,30.00210015,,,,,,,,,,,,,,,,,,,,,,,
,0,f,1,0.8098,0,2,2,1,1,f,blue,5f9f6e40ea7f965ca33bf97f,2021-09-27_13h18.22.419,forced_choiceRT_color,2021.2.3,Linux x86_64,30.00210015,,,,,,,,,,,,,,,,,,,,,,,
,0,j,1,0.6947,0,3,3,2,1,j,red,5f9f6e40ea7f965ca33bf97f,2021-09-27_13h18.22.419,forced_choiceRT_color,2021.2.3,Linux x86_64,30.00210015,,,,,,,,,,,,,,,,,,,,,,,
,0,j,1,1.1039,1,0,4,2,1,j,red,5f9f6e40ea7f965ca33bf97f,2021-09-27_13h18.22.419,forced_choiceRT_color,2021.2.3,Linux x86_64,30.00210015,,,,,,,,,,,,,,,,,,,,,,,
,0,j,1,0.76,1,1,5,2,1,j,red,5f9f6e40ea7f965ca33bf97f,2021-09-27_13h18.22.419,forced_choiceRT_color,2021.2.3,Linux x86_64,30.00210015,,,,,,,,,,,,,,,,,,,,,,,
,0,k,1,0.587,1,2,6,3,1,k,purple,5f9f6e40ea7f965ca33bf97f,2021-09-27_13h18.22.419,forced_choiceRT_color,2021.2.3,Linux x86_64,30.00210015,,,,,,,,,,,,,,,,,,,,,,,
,0,d,1,0.5537,1,3,7,0,1,d,orange,5f9f6e40ea7f965ca33bf97f,2021-09-27_13h18.22.419,forced_choiceRT_color,2021.2.3,Linux x86_64,30.00210015,,,,,,,,,,,,,,,,,,,,,,,
,0,j,1,0.6533,2,0,8,2,1,j,red,5f9f6e40ea7f965ca33bf97f,2021-09-27_13h18.22.419,forced_choiceRT_color,2021.2.3,Linux x86_64,30.00210015,,,,,,,,,,,,,,,,,,,,,,,
,0,k,1,0.5593,2,1,9,3,1,k,purple,5f9f6e40ea7f965ca33bf97f,2021-09-27_13h18.22.419,forced_choiceRT_color,2021.2.3,Linux x86_64,30.00210015,,,,,,,,,,,,,,,,,,,,,,,
,0,k,1,0.6543,2,2,10,3,1,k,purple,5f9f6e40ea7f965ca33bf97f,2021-09-27_13h18.22.419,forced_choiceRT_color,2021.2.3,Linux x86_64,30.00210015,,,,,,,,,,,,,,,,,,,,,,,
,0,f,1,0.975,2,3,11,1,1,f,blue,5f9f6e40ea7f965ca33bf97f,2021-09-27_13h18.22.419,forced_choiceRT_color,2021.2.3,Linux x86_64,30.00210015,,,,,,,,,,,,,,,,,,,,,,,
,0,f,1,1.9759,3,0,12,1,1,f,blue,5f9f6e40ea7f965ca33bf97f,2021-09-27_13h18.22.419,forced_choiceRT_color,2021.2.3,Linux x86_64,30.00210015,,,,,,,,,,,,,,,,,,,,,,,
,0,d,1,0.7333,3,1,13,0,1,d,orange,5f9f6e40ea7f965ca33bf97f,2021-09-27_13h18.22.419,forced_choiceRT_color,2021.2.3,Linux x86_64,30.00210015,,,,,,,,,,,,,,,,,,,,,,,
,0,j,1,0.5919,3,2,14,2,1,j,red,5f9f6e40ea7f965ca33bf97f,2021-09-27_13h18.22.419,forced_choiceRT_color,2021.2.3,Linux x86_64,30.00210015,,,,,,,,,,,,,,,,,,,,,,,
,0,d,1,0.8202,3,3,15,0,1,d,orange,5f9f6e40ea7f965ca33bf97f,2021-09-27_13h18.22.419,forced_choiceRT_color,2021.2.3,Linux x86_64,30.00210015,,,,,,,,,,,,,,,,,,,,,,,
,0,f,1,0.9435,4,0,16,1,1,f,blue,5f9f6e40ea7f965ca33bf97f,2021-09-27_13h18.22.419,forced_choiceRT_color,2021.2.3,Linux x86_64,30.00210015,,,,,,,,,,,,,,,,,,,,,,,
,0,k,1,0.9327,4,1,17,3,1,k,purple,5f9f6e40ea7f965ca33bf97f,2021-09-27_13h18.22.419,forced_choiceRT_color,2021.2.3,Linux x86_64,30.00210015,,,,,,,,,,,,,,,,,,,,,,,
,0,k,1,0.6023,4,2,18,3,1,k,purple,5f9f6e40ea7f965ca33bf97f,2021-09-27_13h18.22.419,forced_choiceRT_color,2021.2.3,Linux x86_64,30.00210015,,,,,,,,,,,,,,,,,,,,,,,
,0,j,1,0.6232,4,3,19,2,1,j,red,5f9f6e40ea7f965ca33bf97f,2021-09-27_13h18.22.419,forced_choiceRT_color,2021.2.3,Linux x86_64,30.00210015,,,,,,,,,,,,,,,,,,,,,,,
,0,j,1,0.6433,5,0,20,2,1,j,red,5f9f6e40ea7f965ca33bf97f,2021-09-27_13h18.22.419,forced_choiceRT_color,2021.2.3,Linux x86_64,30.00210015,,,,,,,,,,,,,,,,,,,,,,,
,0,d,1,0.6154,5,1,21,0,1,d,orange,5f9f6e40ea7f965ca33bf97f,2021-09-27_13h18.22.419,forced_choiceRT_color,2021.2.3,Linux x86_64,30.00210015,,,,,,,,,,,,,,,,,,,,,,,
,0,f,1,0.4745,5,2,22,1,1,f,blue,5f9f6e40ea7f965ca33bf97f,2021-09-27_13h18.22.419,forced_choiceRT_color,2021.2.3,Linux x86_64,30.00210015,,,,,,,,,,,,,,,,,,,,,,,
,0,f,1,0.5388,5,3,23,1,1,f,blue,5f9f6e40ea7f965ca33bf97f,2021-09-27_13h18.22.419,forced_choiceRT_color,2021.2.3,Linux x86_64,30.00210015,,,,,,,,,,,,,,,,,,,,,,,
,0,d,1,0.746,6,0,24,0,1,d,orange,5f9f6e40ea7f965ca33bf97f,2021-09-27_13h18.22.419,forced_choiceRT_color,2021.2.3,Linux x86_64,30.00210015,,,,,,,,,,,,,,,,,,,,,,,
,0,k,1,0.6184,6,1,25,3,1,k,purple,5f9f6e40ea7f965ca33bf97f,2021-09-27_13h18.22.419,forced_choiceRT_color,2021.2.3,Linux x86_64,30.00210015,,,,,,,,,,,,,,,,,,,,,,,
,0,k,1,0.5441,6,2,26,3,1,k,purple,5f9f6e40ea7f965ca33bf97f,2021-09-27_13h18.22.419,forced_choiceRT_color,2021.2.3,Linux x86_64,30.00210015,,,,,,,,,,,,,,,,,,,,,,,
,0,d,1,0.6918,6,3,27,0,1,d,orange,5f9f6e40ea7f965ca33bf97f,2021-09-27_13h18.22.419,forced_choiceRT_color,2021.2.3,Linux x86_64,30.00210015,,,,,,,,,,,,,,,,,,,,,,,
,0,j,1,0.5853,7,0,28,2,1,j,red,5f9f6e40ea7f965ca33bf97f,2021-09-27_13h18.22.419,forced_choiceRT_color,2021.2.3,Linux x86_64,30.00210015,,,,,,,,,,,,,,,,,,,,,,,
,0,f,1,0.5105,7,1,29,1,1,f,blue,5f9f6e40ea7f965ca33bf97f,2021-09-27_13h18.22.419,forced_choiceRT_color,2021.2.3,Linux x86_64,30.00210015,,,,,,,,,,,,,,,,,,,,,,,
,0,d,1,0.4752,7,2,30,0,1,d,orange,5f9f6e40ea7f965ca33bf97f,2021-09-27_13h18.22.419,forced_choiceRT_color,2021.2.3,Linux x86_64,30.00210015,,,,,,,,,,,,,,,,,,,,,,,
,0,j,1,0.7231,7,3,31,2,1,j,red,5f9f6e40ea7f965ca33bf97f,2021-09-27_13h18.22.419,forced_choiceRT_color,2021.2.3,Linux x86_64,30.00210015,,,,,,,,,,,,,,,,,,,,,,,
,0,d,1,0.728,8,0,32,0,1,d,orange,5f9f6e40ea7f965ca33bf97f,2021-09-27_13h18.22.419,forced_choiceRT_color,2021.2.3,Linux x86_64,30.00210015,,,,,,,,,,,,,,,,,,,,,,,
,0,k,1,0.6981,8,1,33,3,1,k,purple,5f9f6e40ea7f965ca33bf97f,2021-09-27_13h18.22.419,forced_choiceRT_color,2021.2.3,Linux x86_64,30.00210015,,,,,,,,,,,,,,,,,,,,,,,
,0,j,1,0.7602,8,2,34,2,1,j,red,5f9f6e40ea7f965ca33bf97f,2021-09-27_13h18.22.419,forced_choiceRT_color,2021.2.3,Linux x86_64,30.00210015,,,,,,,,,,,,,,,,,,,,,,,
,0,k,1,0.8868,8,3,35,3,1,k,purple,5f9f6e40ea7f965ca33bf97f,2021-09-27_13h18.22.419,forced_choiceRT_color,2021.2.3,Linux x86_64,30.00210015,,,,,,,,,,,,,,,,,,,,,,,
,0,d,1,0.6608,9,0,36,0,1,d,orange,5f9f6e40ea7f965ca33bf97f,2021-09-27_13h18.22.419,forced_choiceRT_color,2021.2.3,Linux x86_64,30.00210015,,,,,,,,,,,,,,,,,,,,,,,
,0,f,1,0.5355,9,1,37,1,1,f,blue,5f9f6e40ea7f965ca33bf97f,2021-09-27_13h18.22.419,forced_choiceRT_color,2021.2.3,Linux x86_64,30.00210015,,,,,,,,,,,,,,,,,,,,,,,
,0,j,1,0.5969,9,2,38,2,1,j,red,5f9f6e40ea7f965ca33bf97f,2021-09-27_13h18.22.419,forced_choiceRT_color,2021.2.3,Linux x86_64,30.00210015,,,,,,,,,,,,,,,,,,,,,,,
,0,f,1,0.7085,9,3,39,1,1,f,blue,5f9f6e40ea7f965ca33bf97f,2021-09-27_13h18.22.419,forced_choiceRT_color,2021.2.3,Linux x86_64,30.00210015,,,,,,,,,,,,,,,,,,,,,,,
,0,f,1,0.5316,10,0,40,1,1,f,blue,5f9f6e40ea7f965ca33bf97f,2021-09-27_13h18.22.419,forced_choiceRT_color,2021.2.3,Linux x86_64,30.00210015,,,,,,,,,,,,,,,,,,,,,,,
,0,f,1,0.6016,10,1,41,1,1,f,blue,5f9f6e40ea7f965ca33bf97f,2021-09-27_13h18.22.419,forced_choiceRT_color,2021.2.3,Linux x86_64,30.00210015,,,,,,,,,,,,,,,,,,,,,,,
,0,k,1,0.6582,10,2,42,3,1,k,purple,5f9f6e40ea7f965ca33bf97f,2021-09-27_13h18.22.419,forced_choiceRT_color,2021.2.3,Linux x86_64,30.00210015,,,,,,,,,,,,,,,,,,,,,,,
,0,j,0,0.5734,10,3,43,1,1,f,blue,5f9f6e40ea7f965ca33bf97f,2021-09-27_13h18.22.419,forced_choiceRT_color,2021.2.3,Linux x86_64,30.00210015,,,,,,,,,,,,,,,,,,,,,,,
,0,j,1,0.8082,11,0,44,2,1,j,red,5f9f6e40ea7f965ca33bf97f,2021-09-27_13h18.22.419,forced_choiceRT_color,2021.2.3,Linux x86_64,30.00210015,,,,,,,,,,,,,,,,,,,,,,,
,0,d,1,0.5369,11,1,45,0,1,d,orange,5f9f6e40ea7f965ca33bf97f,2021-09-27_13h18.22.419,forced_choiceRT_color,2021.2.3,Linux x86_64,30.00210015,,,,,,,,,,,,,,,,,,,,,,,
,0,k,1,0.6194,11,2,46,3,1,k,purple,5f9f6e40ea7f965ca33bf97f,2021-09-27_13h18.22.419,forced_choiceRT_color,2021.2.3,Linux x86_64,30.00210015,,,,,,,,,,,,,,,,,,,,,,,
,0,k,1,0.5568,11,3,47,3,1,k,purple,5f9f6e40ea7f965ca33bf97f,2021-09-27_13h18.22.419,forced_choiceRT_color,2021.2.3,Linux x86_64,30.00210015,,,,,,,,,,,,,,,,,,,,,,,
,0,d,1,0.5323,12,0,48,0,1,d,orange,5f9f6e40ea7f965ca33bf97f,2021-09-27_13h18.22.419,forced_choiceRT_color,2021.2.3,Linux x86_64,30.00210015,,,,,,,,,,,,,,,,,,,,,,,
,0,f,1,0.4278,12,1,49,1,1,f,blue,5f9f6e40ea7f965ca33bf97f,2021-09-27_13h18.22.419,forced_choiceRT_color,2021.2.3,Linux x86_64,30.00210015,,,,,,,,,,,,,,,,,,,,,,,
,0,j,1,0.6438,12,2,50,2,1,j,red,5f9f6e40ea7f965ca33bf97f,2021-09-27_13h18.22.419,forced_choiceRT_color,2021.2.3,Linux x86_64,30.00210015,,,,,,,,,,,,,,,,,,,,,,,
,0,d,1,0.5903,12,3,51,0,1,d,orange,5f9f6e40ea7f965ca33bf97f,2021-09-27_13h18.22.419,forced_choiceRT_color,2021.2.3,Linux x86_64,30.00210015,,,,,,,,,,,,,,,,,,,,,,,
,0,f,1,0.8581,13,0,52,1,1,f,blue,5f9f6e40ea7f965ca33bf97f,2021-09-27_13h18.22.419,forced_choiceRT_color,2021.2.3,Linux x86_64,30.00210015,,,,,,,,,,,,,,,,,,,,,,,
,0,k,1,0.6327,13,1,53,3,1,k,purple,5f9f6e40ea7f965ca33bf97f,2021-09-27_13h18.22.419,forced_choiceRT_color,2021.2.3,Linux x86_64,30.00210015,,,,,,,,,,,,,,,,,,,,,,,
,0,k,1,0.4997,13,2,54,3,1,k,purple,5f9f6e40ea7f965ca33bf97f,2021-09-27_13h18.22.419,forced_choiceRT_color,2021.2.3,Linux x86_64,30.00210015,,,,,,,,,,,,,,,,,,,,,,,
,0,d,1,0.5719,13,3,55,0,1,d,orange,5f9f6e40ea7f965ca33bf97f,2021-09-27_13h18.22.419,forced_choiceRT_color,2021.2.3,Linux x86_64,30.00210015,,,,,,,,,,,,,,,,,,,,,,,
,0,d,1,0.5435,14,0,56,0,1,d,orange,5f9f6e40ea7f965ca33bf97f,2021-09-27_13h18.22.419,forced_choiceRT_color,2021.2.3,Linux x86_64,30.00210015,,,,,,,,,,,,,,,,,,,,,,,
,0,j,1,0.5973,14,1,57,2,1,j,red,5f9f6e40ea7f965ca33bf97f,2021-09-27_13h18.22.419,forced_choiceRT_color,2021.2.3,Linux x86_64,30.00210015,,,,,,,,,,,,,,,,,,,,,,,
,0,f,1,0.7555,14,2,58,1,1,f,blue,5f9f6e40ea7f965ca33bf97f,2021-09-27_13h18.22.419,forced_choiceRT_color,2021.2.3,Linux x86_64,30.00210015,,,,,,,,,,,,,,,,,,,,,,,
,0,d,1,0.6323,14,3,59,0,1,d,orange,5f9f6e40ea7f965ca33bf97f,2021-09-27_13h18.22.419,forced_choiceRT_color,2021.2.3,Linux x86_64,30.00210015,,,,,,,,,,,,,,,,,,,,,,,
,,,,,,,,,,,,5f9f6e40ea7f965ca33bf97f,2021-09-27_13h18.22.419,forced_choiceRT_color,2021.2.3,Linux x86_64,30.00210015,d,2.2198,0,0,0,0,1,,,,,,,,,,,,,,,,
,,,,,,,,,,,,5f9f6e40ea7f965ca33bf97f,2021-09-27_13h18.22.419,forced_choiceRT_color,2021.2.3,Linux x86_64,30.00210015,d,2.0303,1,0,1,0,1,,,,,,,,,,,,,,,,
,,,,,,,,,,,,5f9f6e40ea7f965ca33bf97f,2021-09-27_13h18.22.419,forced_choiceRT_color,2021.2.3,Linux x86_64,30.00210015,f,2.0029,2,0,2,0,1,,,,,,,,,,,,,,,,
,,,,,,,,,,,,5f9f6e40ea7f965ca33bf97f,2021-09-27_13h18.22.419,forced_choiceRT_color,2021.2.3,Linux x86_64,30.00210015,j,2.1639,3,0,3,0,1,,,,,,,,,,,,,,,,
,,,,,,,,,,,,5f9f6e40ea7f965ca33bf97f,2021-09-27_13h18.22.419,forced_choiceRT_color,2021.2.3,Linux x86_64,30.00210015,k,2.087,4,0,4,0,1,,,,,,,,,,,,,,,,
,,,,,,,,,,,,5f9f6e40ea7f965ca33bf97f,2021-09-27_13h18.22.419,forced_choiceRT_color,2021.2.3,Linux x86_64,30.00210015,d,2.1055,5,0,5,0,1,,,,,,,,,,,,,,,,
,,,,,,,,,,,,5f9f6e40ea7f965ca33bf97f,2021-09-27_13h18.22.419,forced_choiceRT_color,2021.2.3,Linux x86_64,30.00210015,f,2.0772,6,0,6,0,1,,,,,,,,,,,,,,,,
,,,,,,,,,,,,5f9f6e40ea7f965ca33bf97f,2021-09-27_13h18.22.419,forced_choiceRT_color,2021.2.3,Linux x86_64,30.00210015,j,2.0023,7,0,7,0,1,,,,,,,,,,,,,,,,
,,,,,,,,,,,,5f9f6e40ea7f965ca33bf97f,2021-09-27_13h18.22.419,forced_choiceRT_color,2021.2.3,Linux x86_64,30.00210015,k,2.0121,8,0,8,0,1,,,,,,,,,,,,,,,,
,,,,,,,,,,,,5f9f6e40ea7f965ca33bf97f,2021-09-27_13h18.22.419,forced_choiceRT_color,2021.2.3,Linux x86_64,30.00210015,d,2.0692,9,0,9,0,1,,,,,,,,,,,,,,,,
,,,,,,,,,,,,5f9f6e40ea7f965ca33bf97f,2021-09-27_13h18.22.419,forced_choiceRT_color,2021.2.3,Linux x86_64,30.00210015,f,2.0658,10,0,10,0,1,,,,,,,,,,,,,,,,
,,,,,,,,,,,,5f9f6e40ea7f965ca33bf97f,2021-09-27_13h18.22.419,forced_choiceRT_color,2021.2.3,Linux x86_64,30.00210015,j,2.0189,11,0,11,0,1,,,,,,,,,,,,,,,,
,,,,,,,,,,,,5f9f6e40ea7f965ca33bf97f,2021-09-27_13h18.22.419,forced_choiceRT_color,2021.2.3,Linux x86_64,30.00210015,k,2.0719,12,0,12,0,1,,,,,,,,,,,,,,,,
,,,,,,,,,,,,5f9f6e40ea7f965ca33bf97f,2021-09-27_13h18.22.419,forced_choiceRT_color,2021.2.3,Linux x86_64,30.00210015,d,2.1073,13,0,13,0,1,,,,,,,,,,,,,,,,
,,,,,,,,,,,,5f9f6e40ea7f965ca33bf97f,2021-09-27_13h18.22.419,forced_choiceRT_color,2021.2.3,Linux x86_64,30.00210015,f,2.0306,14,0,14,0,1,,,,,,,,,,,,,,,,
,,,,,,,,,,,,5f9f6e40ea7f965ca33bf97f,2021-09-27_13h18.22.419,forced_choiceRT_color,2021.2.3,Linux x86_64,30.00210015,j,2.0148,15,0,15,0,1,,,,,,,,,,,,,,,,
,,,,,,,,,,,,5f9f6e40ea7f965ca33bf97f,2021-09-27_13h18.22.419,forced_choiceRT_color,2021.2.3,Linux x86_64,30.00210015,k,2.0653,16,0,16,0,1,,,,,,,,,,,,,,,,
,,,,,,,,,,,,5f9f6e40ea7f965ca33bf97f,2021-09-27_13h18.22.419,forced_choiceRT_color,2021.2.3,Linux x86_64,30.00210015,d,2.0438,17,0,17,0,1,,,,,,,,,,,,,,,,
,,,,,,,,,,,,5f9f6e40ea7f965ca33bf97f,2021-09-27_13h18.22.419,forced_choiceRT_color,2021.2.3,Linux x86_64,30.00210015,f,2.0195,18,0,18,0,1,,,,,,,,,,,,,,,,
,,,,,,,,,,,,5f9f6e40ea7f965ca33bf97f,2021-09-27_13h18.22.419,forced_choiceRT_color,2021.2.3,Linux x86_64,30.00210015,j,2.0352,19,0,19,0,1,,,,,,,,,,,,,,,,
,1.96,,,,,,,,,f,blue,5f9f6e40ea7f965ca33bf97f,2021-09-27_13h18.22.419,forced_choiceRT_color,2021.2.3,Linux x86_64,30.00210015,,,,,,,,1,Ontime,long,d,0,2.0893,0,0,0,1,1,,,,,
,0.15,,,,,,,,,k,purple,5f9f6e40ea7f965ca33bf97f,2021-09-27_13h18.22.419,forced_choiceRT_color,2021.2.3,Linux x86_64,30.00210015,,,,,,,,1,Ontime,long,k,1,1.998,0,1,1,3,1,,,,,
,1.57,,,,,,,,,d,orange,5f9f6e40ea7f965ca33bf97f,2021-09-27_13h18.22.419,forced_choiceRT_color,2021.2.3,Linux x86_64,30.00210015,,,,,,,,1,Ontime,long,f,0,2.0909,0,2,2,0,1,,,,,
,0.65,,,,,,,,,j,red,5f9f6e40ea7f965ca33bf97f,2021-09-27_13h18.22.419,forced_choiceRT_color,2021.2.3,Linux x86_64,30.00210015,,,,,,,,1,Fast,long,j,1,1.7304,0,3,3,2,1,,,,,
,0.53,,,,,,,,,k,purple,5f9f6e40ea7f965ca33bf97f,2021-09-27_13h18.22.419,forced_choiceRT_color,2021.2.3,Linux x86_64,30.00210015,,,,,,,,1,Ontime,long,k,1,2.0417,1,0,4,3,1,,,,,
,0.36,,,,,,,,,d,orange,5f9f6e40ea7f965ca33bf97f,2021-09-27_13h18.22.419,forced_choiceRT_color,2021.2.3,Linux x86_64,30.00210015,,,,,,,,1,Ontime,long,d,1,1.9767,1,1,5,0,1,,,,,
,0.15,,,,,,,,,j,red,5f9f6e40ea7f965ca33bf97f,2021-09-27_13h18.22.419,forced_choiceRT_color,2021.2.3,Linux x86_64,30.00210015,,,,,,,,1,Fast,long,j,1,1.6865,1,2,6,2,1,,,,,
,0.76,,,,,,,,,j,red,5f9f6e40ea7f965ca33bf97f,2021-09-27_13h18.22.419,forced_choiceRT_color,2021.2.3,Linux x86_64,30.00210015,,,,,,,,1,Ontime,long,j,1,2.0789,1,3,7,2,1,,,,,
,1.33,,,,,,,,,f,blue,5f9f6e40ea7f965ca33bf97f,2021-09-27_13h18.22.419,forced_choiceRT_color,2021.2.3,Linux x86_64,30.00210015,,,,,,,,1,Slow,long,f,1,2.1562,2,0,8,1,1,,,,,
,0.19,,,,,,,,,f,blue,5f9f6e40ea7f965ca33bf97f,2021-09-27_13h18.22.419,forced_choiceRT_color,2021.2.3,Linux x86_64,30.00210015,,,,,,,,1,Ontime,long,f,1,2.0529,2,1,9,1,1,,,,,
,1.26,,,,,,,,,j,red,5f9f6e40ea7f965ca33bf97f,2021-09-27_13h18.22.419,forced_choiceRT_color,2021.2.3,Linux x86_64,30.00210015,,,,,,,,1,Fast,long,j,1,1.8294,2,2,10,2,1,,,,,
,1.16,,,,,,,,,d,orange,5f9f6e40ea7f965ca33bf97f,2021-09-27_13h18.22.419,forced_choiceRT_color,2021.2.3,Linux x86_64,30.00210015,,,,,,,,1,Ontime,long,d,1,2.0745,2,3,11,0,1,,,,,
,1.55,,,,,,,,,k,purple,5f9f6e40ea7f965ca33bf97f,2021-09-27_13h18.22.419,forced_choiceRT_color,2021.2.3,Linux x86_64,30.00210015,,,,,,,,1,Slow,long,k,1,2.1952,3,0,12,3,1,,,,,
,1,,,,,,,,,k,purple,5f9f6e40ea7f965ca33bf97f,2021-09-27_13h18.22.419,forced_choiceRT_color,2021.2.3,Linux x86_64,30.00210015,,,,,,,,1,Ontime,long,k,1,1.9366,3,1,13,3,1,,,,,
,1.67,,,,,,,,,d,orange,5f9f6e40ea7f965ca33bf97f,2021-09-27_13h18.22.419,forced_choiceRT_color,2021.2.3,Linux x86_64,30.00210015,,,,,,,,1,Slow,long,d,1,2.2338,3,2,14,0,1,,,,,
,0.15,,,,,,,,,k,purple,5f9f6e40ea7f965ca33bf97f,2021-09-27_13h18.22.419,forced_choiceRT_color,2021.2.3,Linux x86_64,30.00210015,,,,,,,,1,Ontime,long,k,1,1.9723,3,3,15,3,1,,,,,
,0.23,,,,,,,,,f,blue,5f9f6e40ea7f965ca33bf97f,2021-09-27_13h18.22.419,forced_choiceRT_color,2021.2.3,Linux x86_64,30.00210015,,,,,,,,1,Ontime,long,f,1,2.0269,4,0,16,1,1,,,,,
,1.14,,,,,,,,,f,blue,5f9f6e40ea7f965ca33bf97f,2021-09-27_13h18.22.419,forced_choiceRT_color,2021.2.3,Linux x86_64,30.00210015,,,,,,,,1,Slow,long,f,1,2.1053,4,1,17,1,1,,,,,
,1.55,,,,,,,,,j,red,5f9f6e40ea7f965ca33bf97f,2021-09-27_13h18.22.419,forced_choiceRT_color,2021.2.3,Linux x86_64,30.00210015,,,,,,,,1,Slow,long,j,1,2.1103,4,2,18,2,1,,,,,
,1.91,,,,,,,,,j,red,5f9f6e40ea7f965ca33bf97f,2021-09-27_13h18.22.419,forced_choiceRT_color,2021.2.3,Linux x86_64,30.00210015,,,,,,,,1,Slow,long,f,0,2.3608,4,3,19,2,1,,,,,
,0.06,,,,,,,,,k,purple,5f9f6e40ea7f965ca33bf97f,2021-09-27_13h18.22.419,forced_choiceRT_color,2021.2.3,Linux x86_64,30.00210015,,,,,,,,1,Ontime,long,k,1,2.0875,5,0,20,3,1,,,,,
,1.75,,,,,,,,,f,blue,5f9f6e40ea7f965ca33bf97f,2021-09-27_13h18.22.419,forced_choiceRT_color,2021.2.3,Linux x86_64,30.00210015,,,,,,,,1,Slow,long,f,1,2.1982,5,1,21,1,1,,,,,
,1.64,,,,,,,,,f,blue,5f9f6e40ea7f965ca33bf97f,2021-09-27_13h18.22.419,forced_choiceRT_color,2021.2.3,Linux x86_64,30.00210015,,,,,,,,1,Slow,long,f,1,2.1579,5,2,22,1,1,,,,,
,0.32,,,,,,,,,d,orange,5f9f6e40ea7f965ca33bf97f,2021-09-27_13h18.22.419,forced_choiceRT_color,2021.2.3,Linux x86_64,30.00210015,,,,,,,,1,Ontime,long,d,1,2.0122,5,3,23,0,1,,,,,
,1.74,,,,,,,,,j,red,5f9f6e40ea7f965ca33bf97f,2021-09-27_13h18.22.419,forced_choiceRT_color,2021.2.3,Linux x86_64,30.00210015,,,,,,,,1,Slow,long,k,0,2.2099,6,0,24,2,1,,,,,
,0.77,,,,,,,,,f,blue,5f9f6e40ea7f965ca33bf97f,2021-09-27_13h18.22.419,forced_choiceRT_color,2021.2.3,Linux x86_64,30.00210015,,,,,,,,1,Ontime,long,f,1,1.979,6,1,25,1,1,,,,,
,1.59,,,,,,,,,d,orange,5f9f6e40ea7f965ca33bf97f,2021-09-27_13h18.22.419,forced_choiceRT_color,2021.2.3,Linux x86_64,30.00210015,,,,,,,,1,Slow,long,d,1,2.205,6,2,26,0,1,,,,,
,1.85,,,,,,,,,k,purple,5f9f6e40ea7f965ca33bf97f,2021-09-27_13h18.22.419,forced_choiceRT_color,2021.2.3,Linux x86_64,30.00210015,,,,,,,,1,Slow,long,k,1,2.3369,6,3,27,3,1,,,,,
,0.54,,,,,,,,,k,purple,5f9f6e40ea7f965ca33bf97f,2021-09-27_13h18.22.419,forced_choiceRT_color,2021.2.3,Linux x86_64,30.00210015,,,,,,,,1,Ontime,long,k,1,2.0329,7,0,28,3,1,,,,,
,1.11,,,,,,,,,k,purple,5f9f6e40ea7f965ca33bf97f,2021-09-27_13h18.22.419,forced_choiceRT_color,2021.2.3,Linux x86_64,30.00210015,,,,,,,,1,Fast,long,k,1,1.7767,7,1,29,3,1,,,,,
,0.15,,,,,,,,,d,orange,5f9f6e40ea7f965ca33bf97f,2021-09-27_13h18.22.419,forced_choiceRT_color,2021.2.3,Linux x86_64,30.00210015,,,,,,,,1,Ontime,long,d,1,1.9613,7,2,30,0,1,,,,,
,0.54,,,,,,,,,j,red,5f9f6e40ea7f965ca33bf97f,2021-09-27_13h18.22.419,forced_choiceRT_color,2021.2.3,Linux x86_64,30.00210015,,,,,,,,1,Ontime,long,j,1,2.052,7,3,31,2,1,,,,,
,1.4,,,,,,,,,f,blue,5f9f6e40ea7f965ca33bf97f,2021-09-27_13h18.22.419,forced_choiceRT_color,2021.2.3,Linux x86_64,30.00210015,,,,,,,,1,Slow,long,j,0,2.1717,8,0,32,1,1,,,,,
,0.4,,,,,,,,,d,orange,5f9f6e40ea7f965ca33bf97f,2021-09-27_13h18.22.419,forced_choiceRT_color,2021.2.3,Linux x86_64,30.00210015,,,,,,,,1,Ontime,long,d,1,2.0949,8,1,33,0,1,,,,,
,1.49,,,,,,,,,f,blue,5f9f6e40ea7f965ca33bf97f,2021-09-27_13h18.22.419,forced_choiceRT_color,2021.2.3,Linux x86_64,30.00210015,,,,,,,,1,Slow,long,f,1,2.1125,8,2,34,1,1,,,,,
,1.39,,,,,,,,,d,orange,5f9f6e40ea7f965ca33bf97f,2021-09-27_13h18.22.419,forced_choiceRT_color,2021.2.3,Linux x86_64,30.00210015,,,,,,,,1,Ontime,long,d,1,2.0858,8,3,35,0,1,,,,,
,1.31,,,,,,,,,j,red,5f9f6e40ea7f965ca33bf97f,2021-09-27_13h18.22.419,forced_choiceRT_color,2021.2.3,Linux x86_64,30.00210015,,,,,,,,1,Ontime,long,j,1,2.041,9,0,36,2,1,,,,,
,1.16,,,,,,,,,j,red,5f9f6e40ea7f965ca33bf97f,2021-09-27_13h18.22.419,forced_choiceRT_color,2021.2.3,Linux x86_64,30.00210015,,,,,,,,1,Ontime,long,j,1,2.0837,9,1,37,2,1,,,,,
,1.09,,,,,,,,,d,orange,5f9f6e40ea7f965ca33bf97f,2021-09-27_13h18.22.419,forced_choiceRT_color,2021.2.3,Linux x86_64,30.00210015,,,,,,,,1,Ontime,long,f,0,2.0595,9,2,38,0,1,,,,,
,0.83,,,,,,,,,k,purple,5f9f6e40ea7f965ca33bf97f,2021-09-27_13h18.22.419,forced_choiceRT_color,2021.2.3,Linux x86_64,30.00210015,,,,,,,,1,Ontime,long,k,1,2.0165,9,3,39,3,1,,,,,
,,,,,,,,,,,,5f9f6e40ea7f965ca33bf97f,2021-09-27_13h18.22.419,forced_choiceRT_color,2021.2.3,Linux x86_64,30.00210015,,,,,,,,,,,,,,,,,,,0,0,0,0,1
,0.44,,,,,,,,,f,blue,5f9f6e40ea7f965ca33bf97f,2021-09-27_13h18.22.419,forced_choiceRT_color,2021.2.3,Linux x86_64,30.00210015,,,,,,,,2,Ontime,long,f,1,2.0625,0,0,0,1,1,,,,,
,1.05,,,,,,,,,d,orange,5f9f6e40ea7f965ca33bf97f,2021-09-27_13h18.22.419,forced_choiceRT_color,2021.2.3,Linux x86_64,30.00210015,,,,,,,,2,Ontime,long,d,1,2.0546,0,1,1,0,1,,,,,
,1.03,,,,,,,,,k,purple,5f9f6e40ea7f965ca33bf97f,2021-09-27_13h18.22.419,forced_choiceRT_color,2021.2.3,Linux x86_64,30.00210015,,,,,,,,2,Ontime,long,k,1,2.0571,0,2,2,3,1,,,,,
,0.29,,,,,,,,,d,orange,5f9f6e40ea7f965ca33bf97f,2021-09-27_13h18.22.419,forced_choiceRT_color,2021.2.3,Linux x86_64,30.00210015,,,,,,,,2,Ontime,long,d,1,1.9593,0,3,3,0,1,,,,,
,1.51,,,,,,,,,j,red,5f9f6e40ea7f965ca33bf97f,2021-09-27_13h18.22.419,forced_choiceRT_color,2021.2.3,Linux x86_64,30.00210015,,,,,,,,2,Slow,long,j,1,2.1082,1,0,4,2,1,,,,,
,0.27,,,,,,,,,f,blue,5f9f6e40ea7f965ca33bf97f,2021-09-27_13h18.22.419,forced_choiceRT_color,2021.2.3,Linux x86_64,30.00210015,,,,,,,,2,Ontime,long,f,1,1.9759,1,1,5,1,1,,,,,
,0.71,,,,,,,,,j,red,5f9f6e40ea7f965ca33bf97f,2021-09-27_13h18.22.419,forced_choiceRT_color,2021.2.3,Linux x86_64,30.00210015,,,,,,,,2,Ontime,long,j,1,2.0985,1,2,6,2,1,,,,,
,0.33,,,,,,,,,f,blue,5f9f6e40ea7f965ca33bf97f,2021-09-27_13h18.22.419,forced_choiceRT_color,2021.2.3,Linux x86_64,30.00210015,,,,,,,,2,Ontime,long,f,1,2.0388,1,3,7,1,1,,,,,
,1.36,,,,,,,,,j,red,5f9f6e40ea7f965ca33bf97f,2021-09-27_13h18.22.419,forced_choiceRT_color,2021.2.3,Linux x86_64,30.00210015,,,,,,,,2,Ontime,long,j,1,2.0032,2,0,8,2,1,,,,,
,0.69,,,,,,,,,k,purple,5f9f6e40ea7f965ca33bf97f,2021-09-27_13h18.22.419,forced_choiceRT_color,2021.2.3,Linux x86_64,30.00210015,,,,,,,,2,Slow,long,k,1,2.1016,2,1,9,3,1,,,,,
,0.13,,,,,,,,,d,orange,5f9f6e40ea7f965ca33bf97f,2021-09-27_13h18.22.419,forced_choiceRT_color,2021.2.3,Linux x86_64,30.00210015,,,,,,,,2,Ontime,long,d,1,1.9449,2,2,10,0,1,,,,,
,0.93,,,,,,,,,f,blue,5f9f6e40ea7f965ca33bf97f,2021-09-27_13h18.22.419,forced_choiceRT_color,2021.2.3,Linux x86_64,30.00210015,,,,,,,,2,Ontime,long,j,0,2.0409,2,3,11,1,1,,,,,
,1.13,,,,,,,,,k,purple,5f9f6e40ea7f965ca33bf97f,2021-09-27_13h18.22.419,forced_choiceRT_color,2021.2.3,Linux x86_64,30.00210015,,,,,,,,2,Ontime,long,k,1,2.0779,3,0,12,3,1,,,,,
,1.6,,,,,,,,,j,red,5f9f6e40ea7f965ca33bf97f,2021-09-27_13h18.22.419,forced_choiceRT_color,2021.2.3,Linux x86_64,30.00210015,,,,,,,,2,Slow,long,j,1,2.1544,3,1,13,2,1,,,,,
,1.23,,,,,,,,,j,red,5f9f6e40ea7f965ca33bf97f,2021-09-27_13h18.22.419,forced_choiceRT_color,2021.2.3,Linux x86_64,30.00210015,,,,,,,,2,Slow,long,j,1,2.1339,3,2,14,2,1,,,,,
,1.54,,,,,,,,,d,orange,5f9f6e40ea7f965ca33bf97f,2021-09-27_13h18.22.419,forced_choiceRT_color,2021.2.3,Linux x86_64,30.00210015,,,,,,,,2,Slow,long,d,1,2.1358,3,3,15,0,1,,,,,
,1.22,,,,,,,,,j,red,5f9f6e40ea7f965ca33bf97f,2021-09-27_13h18.22.419,forced_choiceRT_color,2021.2.3,Linux x86_64,30.00210015,,,,,,,,2,Ontime,long,f,0,2.0957,4,0,16,2,1,,,,,
,1.85,,,,,,,,,k,purple,5f9f6e40ea7f965ca33bf97f,2021-09-27_13h18.22.419,forced_choiceRT_color,2021.2.3,Linux x86_64,30.00210015,,,,,,,,2,Slow,long,k,1,2.3916,4,1,17,3,1,,,,,
,1.26,,,,,,,,,f,blue,5f9f6e40ea7f965ca33bf97f,2021-09-27_13h18.22.419,forced_choiceRT_color,2021.2.3,Linux x86_64,30.00210015,,,,,,,,2,Ontime,long,j,0,2.0059,4,2,18,1,1,,,,,
,1.66,,,,,,,,,k,purple,5f9f6e40ea7f965ca33bf97f,2021-09-27_13h18.22.419,forced_choiceRT_color,2021.2.3,Linux x86_64,30.00210015,,,,,,,,2,Slow,long,k,1,2.1455,4,3,19,3,1,,,,,
,0.23,,,,,,,,,k,purple,5f9f6e40ea7f965ca33bf97f,2021-09-27_13h18.22.419,forced_choiceRT_color,2021.2.3,Linux x86_64,30.00210015,,,,,,,,2,Ontime,long,k,1,1.9786,5,0,20,3,1,,,,,
,1.87,,,,,,,,,f,blue,5f9f6e40ea7f965ca33bf97f,2021-09-27_13h18.22.419,forced_choiceRT_color,2021.2.3,Linux x86_64,30.00210015,,,,,,,,2,Slow,long,j,0,2.1348,5,1,21,1,1,,,,,
,1.76,,,,,,,,,d,orange,5f9f6e40ea7f965ca33bf97f,2021-09-27_13h18.22.419,forced_choiceRT_color,2021.2.3,Linux x86_64,30.00210015,,,,,,,,2,Slow,long,f,0,2.2084,5,2,22,0,1,,,,,
,1.91,,,,,,,,,k,purple,5f9f6e40ea7f965ca33bf97f,2021-09-27_13h18.22.419,forced_choiceRT_color,2021.2.3,Linux x86_64,30.00210015,,,,,,,,2,Slow,long,f,0,2.1846,5,3,23,3,1,,,,,
,0.21,,,,,,,,,f,blue,5f9f6e40ea7f965ca33bf97f,2021-09-27_13h18.22.419,forced_choiceRT_color,2021.2.3,Linux x86_64,30.00210015,,,,,,,,2,Ontime,long,f,1,2.0306,6,0,24,1,1,,,,,
,0.87,,,,,,,,,d,orange,5f9f6e40ea7f965ca33bf97f,2021-09-27_13h18.22.419,forced_choiceRT_color,2021.2.3,Linux x86_64,30.00210015,,,,,,,,2,Ontime,long,d,1,2.0913,6,1,25,0,1,,,,,
,1.81,,,,,,,,,f,blue,5f9f6e40ea7f965ca33bf97f,2021-09-27_13h18.22.419,forced_choiceRT_color,2021.2.3,Linux x86_64,30.00210015,,,,,,,,2,Ontime,long,k,0,2.0756,6,2,26,1,1,,,,,
,1.74,,,,,,,,,f,blue,5f9f6e40ea7f965ca33bf97f,2021-09-27_13h18.22.419,forced_choiceRT_color,2021.2.3,Linux x86_64,30.00210015,,,,,,,,2,Ontime,long,f,1,2.0446,6,3,27,1,1,,,,,
,1.79,,,,,,,,,k,purple,5f9f6e40ea7f965ca33bf97f,2021-09-27_13h18.22.419,forced_choiceRT_color,2021.2.3,Linux x86_64,30.00210015,,,,,,,,2,Ontime,long,k,1,2.0694,7,0,28,3,1,,,,,
,0.46,,,,,,,,,d,orange,5f9f6e40ea7f965ca33bf97f,2021-09-27_13h18.22.419,forced_choiceRT_color,2021.2.3,Linux x86_64,30.00210015,,,,,,,,2,Ontime,long,d,1,2.067,7,1,29,0,1,,,,,
,0.46,,,,,,,,,d,orange,5f9f6e40ea7f965ca33bf97f,2021-09-27_13h18.22.419,forced_choiceRT_color,2021.2.3,Linux x86_64,30.00210015,,,,,,,,2,Ontime,long,d,1,1.9618,7,2,30,0,1,,,,,
,1.62,,,,,,,,,d,orange,5f9f6e40ea7f965ca33bf97f,2021-09-27_13h18.22.419,forced_choiceRT_color,2021.2.3,Linux x86_64,30.00210015,,,,,,,,2,Slow,long,j,0,2.1175,7,3,31,0,1,,,,,
,1.89,,,,,,,,,j,red,5f9f6e40ea7f965ca33bf97f,2021-09-27_13h18.22.419,forced_choiceRT_color,2021.2.3,Linux x86_64,30.00210015,,,,,,,,2,Slow,long,f,0,2.1554,8,0,32,2,1,,,,,
,0.28,,,,,,,,,k,purple,5f9f6e40ea7f965ca33bf97f,2021-09-27_13h18.22.419,forced_choiceRT_color,2021.2.3,Linux x86_64,30.00210015,,,,,,,,2,Ontime,long,k,1,1.9774,8,1,33,3,1,,,,,
,1.23,,,,,,,,,j,red,5f9f6e40ea7f965ca33bf97f,2021-09-27_13h18.22.419,forced_choiceRT_color,2021.2.3,Linux x86_64,30.00210015,,,,,,,,2,Ontime,long,j,1,1.992,8,2,34,2,1,,,,,
,0.02,,,,,,,,,d,orange,5f9f6e40ea7f965ca33bf97f,2021-09-27_13h18.22.419,forced_choiceRT_color,2021.2.3,Linux x86_64,30.00210015,,,,,,,,2,Ontime,long,d,1,1.9697,8,3,35,0,1,,,,,
,1.06,,,,,,,,,j,red,5f9f6e40ea7f965ca33bf97f,2021-09-27_13h18.22.419,forced_choiceRT_color,2021.2.3,Linux x86_64,30.00210015,,,,,,,,2,Ontime,long,j,1,1.9876,9,0,36,2,1,,,,,
,1.02,,,,,,,,,k,purple,5f9f6e40ea7f965ca33bf97f,2021-09-27_13h18.22.419,forced_choiceRT_color,2021.2.3,Linux x86_64,30.00210015,,,,,,,,2,Ontime,long,k,1,1.9702,9,1,37,3,1,,,,,
,1.83,,,,,,,,,j,red,5f9f6e40ea7f965ca33bf97f,2021-09-27_13h18.22.419,forced_choiceRT_color,2021.2.3,Linux x86_64,30.00210015,,,,,,,,2,Slow,long,j,1,2.1202,9,2,38,2,1,,,,,
,1.74,,,,,,,,,f,blue,5f9f6e40ea7f965ca33bf97f,2021-09-27_13h18.22.419,forced_choiceRT_color,2021.2.3,Linux x86_64,30.00210015,,,,,,,,2,Ontime,long,k,0,2.0927,9,3,39,1,1,,,,,
,,,,,,,,,,,,5f9f6e40ea7f965ca33bf97f,2021-09-27_13h18.22.419,forced_choiceRT_color,2021.2.3,Linux x86_64,30.00210015,,,,,,,,,,,,,,,,,,,1,0,1,0,1
,0.17,,,,,,,,,d,orange,5f9f6e40ea7f965ca33bf97f,2021-09-27_13h18.22.419,forced_choiceRT_color,2021.2.3,Linux x86_64,30.00210015,,,,,,,,3,Ontime,long,d,1,1.9991,0,0,0,0,1,,,,,
,1.18,,,,,,,,,k,purple,5f9f6e40ea7f965ca33bf97f,2021-09-27_13h18.22.419,forced_choiceRT_color,2021.2.3,Linux x86_64,30.00210015,,,,,,,,3,Ontime,long,k,1,1.9898,0,1,1,3,1,,,,,
,1.22,,,,,,,,,f,blue,5f9f6e40ea7f965ca33bf97f,2021-09-27_13h18.22.419,forced_choiceRT_color,2021.2.3,Linux x86_64,30.00210015,,,,,,,,3,Ontime,long,f,1,1.9715,0,2,2,1,1,,,,,
,0.92,,,,,,,,,f,blue,5f9f6e40ea7f965ca33bf97f,2021-09-27_13h18.22.419,forced_choiceRT_color,2021.2.3,Linux x86_64,30.00210015,,,,,,,,3,Ontime,long,f,1,2.048,0,3,3,1,1,,,,,
,0.65,,,,,,,,,d,orange,5f9f6e40ea7f965ca33bf97f,2021-09-27_13h18.22.419,forced_choiceRT_color,2021.2.3,Linux x86_64,30.00210015,,,,,,,,3,Slow,long,d,1,2.1057,1,0,4,0,1,,,,,
,1.75,,,,,,,,,k,purple,5f9f6e40ea7f965ca33bf97f,2021-09-27_13h18.22.419,forced_choiceRT_color,2021.2.3,Linux x86_64,30.00210015,,,,,,,,3,Ontime,long,k,1,1.9221,1,1,5,3,1,,,,,
,1.78,,,,,,,,,f,blue,5f9f6e40ea7f965ca33bf97f,2021-09-27_13h18.22.419,forced_choiceRT_color,2021.2.3,Linux x86_64,30.00210015,,,,,,,,3,Slow,long,j,0,2.1351,1,2,6,1,1,,,,,
,1.35,,,,,,,,,k,purple,5f9f6e40ea7f965ca33bf97f,2021-09-27_13h18.22.419,forced_choiceRT_color,2021.2.3,Linux x86_64,30.00210015,,,,,,,,3,Slow,long,k,1,2.1396,1,3,7,3,1,,,,,
,0.81,,,,,,,,,j,red,5f9f6e40ea7f965ca33bf97f,2021-09-27_13h18.22.419,forced_choiceRT_color,2021.2.3,Linux x86_64,30.00210015,,,,,,,,3,Fast,long,f,0,1.6146,2,0,8,2,1,,,,,
,1.71,,,,,,,,,f,blue,5f9f6e40ea7f965ca33bf97f,2021-09-27_13h18.22.419,forced_choiceRT_color,2021.2.3,Linux x86_64,30.00210015,,,,,,,,3,Ontime,long,k,0,2.0022,2,1,9,1,1,,,,,
,1.38,,,,,,,,,d,orange,5f9f6e40ea7f965ca33bf97f,2021-09-27_13h18.22.419,forced_choiceRT_color,2021.2.3,Linux x86_64,30.00210015,,,,,,,,3,Ontime,long,d,1,1.9838,2,2,10,0,1,,,,,
,0.58,,,,,,,,,j,red,5f9f6e40ea7f965ca33bf97f,2021-09-27_13h18.22.419,forced_choiceRT_color,2021.2.3,Linux x86_64,30.00210015,,,,,,,,3,Ontime,long,j,1,2.0183,2,3,11,2,1,,,,,
,0.47,,,,,,,,,f,blue,5f9f6e40ea7f965ca33bf97f,2021-09-27_13h18.22.419,forced_choiceRT_color,2021.2.3,Linux x86_64,30.00210015,,,,,,,,3,Ontime,long,f,1,1.9902,3,0,12,1,1,,,,,
,1.32,,,,,,,,,j,red,5f9f6e40ea7f965ca33bf97f,2021-09-27_13h18.22.419,forced_choiceRT_color,2021.2.3,Linux x86_64,30.00210015,,,,,,,,3,Ontime,long,f,0,2.0167,3,1,13,2,1,,,,,
,1.17,,,,,,,,,k,purple,5f9f6e40ea7f965ca33bf97f,2021-09-27_13h18.22.419,forced_choiceRT_color,2021.2.3,Linux x86_64,30.00210015,,,,,,,,3,Ontime,long,k,1,1.9785,3,2,14,3,1,,,,,
,1.05,,,,,,,,,j,red,5f9f6e40ea7f965ca33bf97f,2021-09-27_13h18.22.419,forced_choiceRT_color,2021.2.3,Linux x86_64,30.00210015,,,,,,,,3,Ontime,long,j,1,2.019,3,3,15,2,1,,,,,
,1.31,,,,,,,,,j,red,5f9f6e40ea7f965ca33bf97f,2021-09-27_13h18.22.419,forced_choiceRT_color,2021.2.3,Linux x86_64,30.00210015,,,,,,,,3,Ontime,long,j,1,2.072,4,0,16,2,1,,,,,
,0.49,,,,,,,,,j,red,5f9f6e40ea7f965ca33bf97f,2021-09-27_13h18.22.419,forced_choiceRT_color,2021.2.3,Linux x86_64,30.00210015,,,,,,,,3,Ontime,long,j,1,2.0336,4,1,17,2,1,,,,,
,0.22,,,,,,,,,d,orange,5f9f6e40ea7f965ca33bf97f,2021-09-27_13h18.22.419,forced_choiceRT_color,2021.2.3,Linux x86_64,30.00210015,,,,,,,,3,Ontime,long,d,1,1.9996,4,2,18,0,1,,,,,
,0.73,,,,,,,,,f,blue,5f9f6e40ea7f965ca33bf97f,2021-09-27_13h18.22.419,forced_choiceRT_color,2021.2.3,Linux x86_64,30.00210015,,,,,,,,3,Fast,long,f,1,1.6561,4,3,19,1,1,,,,,
,1.98,,,,,,,,,d,orange,5f9f6e40ea7f965ca33bf97f,2021-09-27_13h18.22.419,forced_choiceRT_color,2021.2.3,Linux x86_64,30.00210015,,,,,,,,3,Slow,long,k,0,2.1698,5,0,20,0,1,,,,,
,1.29,,,,,,,,,f,blue,5f9f6e40ea7f965ca33bf97f,2021-09-27_13h18.22.419,forced_choiceRT_color,2021.2.3,Linux x86_64,30.00210015,,,,,,,,3,Ontime,long,f,1,1.9801,5,1,21,1,1,,,,,
,0.74,,,,,,,,,d,orange,5f9f6e40ea7f965ca33bf97f,2021-09-27_13h18.22.419,forced_choiceRT_color,2021.2.3,Linux x86_64,30.00210015,,,,,,,,3,Ontime,long,d,1,1.9613,5,2,22,0,1,,,,,
,1.1,,,,,,,,,f,blue,5f9f6e40ea7f965ca33bf97f,2021-09-27_13h18.22.419,forced_choiceRT_color,2021.2.3,Linux x86_64,30.00210015,,,,,,,,3,Ontime,long,f,1,1.9541,5,3,23,1,1,,,,,
,1.27,,,,,,,,,k,purple,5f9f6e40ea7f965ca33bf97f,2021-09-27_13h18.22.419,forced_choiceRT_color,2021.2.3,Linux x86_64,30.00210015,,,,,,,,3,Ontime,long,k,1,1.9196,6,0,24,3,1,,,,,
,1.34,,,,,,,,,k,purple,5f9f6e40ea7f965ca33bf97f,2021-09-27_13h18.22.419,forced_choiceRT_color,2021.2.3,Linux x86_64,30.00210015,,,,,,,,3,Ontime,long,k,1,2.0879,6,1,25,3,1,,,,,
,1.27,,,,,,,,,j,red,5f9f6e40ea7f965ca33bf97f,2021-09-27_13h18.22.419,forced_choiceRT_color,2021.2.3,Linux x86_64,30.00210015,,,,,,,,3,Ontime,long,j,1,2.0259,6,2,26,2,1,,,,,
,1.56,,,,,,,,,f,blue,5f9f6e40ea7f965ca33bf97f,2021-09-27_13h18.22.419,forced_choiceRT_color,2021.2.3,Linux x86_64,30.00210015,,,,,,,,3,Slow,long,f,1,2.1841,6,3,27,1,1,,,,,
,0.02,,,,,,,,,j,red,5f9f6e40ea7f965ca33bf97f,2021-09-27_13h18.22.419,forced_choiceRT_color,2021.2.3,Linux x86_64,30.00210015,,,,,,,,3,Ontime,long,j,1,1.9617,7,0,28,2,1,,,,,
,0.42,,,,,,,,,j,red,5f9f6e40ea7f965ca33bf97f,2021-09-27_13h18.22.419,forced_choiceRT_color,2021.2.3,Linux x86_64,30.00210015,,,,,,,,3,Ontime,long,j,1,2.0352,7,1,29,2,1,,,,,
,1.98,,,,,,,,,d,orange,5f9f6e40ea7f965ca33bf97f,2021-09-27_13h18.22.419,forced_choiceRT_color,2021.2.3,Linux x86_64,30.00210015,,,,,,,,3,Ontime,long,k,0,2.0849,7,2,30,0,1,,,,,
,0.64,,,,,,,,,j,red,5f9f6e40ea7f965ca33bf97f,2021-09-27_13h18.22.419,forced_choiceRT_color,2021.2.3,Linux x86_64,30.00210015,,,,,,,,3,Ontime,long,j,1,2.0918,7,3,31,2,1,,,,,
,1.9,,,,,,,,,k,purple,5f9f6e40ea7f965ca33bf97f,2021-09-27_13h18.22.419,forced_choiceRT_color,2021.2.3,Linux x86_64,30.00210015,,,,,,,,3,Slow,long,k,1,2.2315,8,0,32,3,1,,,,,
,0.62,,,,,,,,,f,blue,5f9f6e40ea7f965ca33bf97f,2021-09-27_13h18.22.419,forced_choiceRT_color,2021.2.3,Linux x86_64,30.00210015,,,,,,,,3,Ontime,long,f,1,1.9928,8,1,33,1,1,,,,,
,0.93,,,,,,,,,d,orange,5f9f6e40ea7f965ca33bf97f,2021-09-27_13h18.22.419,forced_choiceRT_color,2021.2.3,Linux x86_64,30.00210015,,,,,,,,3,Ontime,long,d,1,2.0069,8,2,34,0,1,,,,,
,0.19,,,,,,,,,k,purple,5f9f6e40ea7f965ca33bf97f,2021-09-27_13h18.22.419,forced_choiceRT_color,2021.2.3,Linux x86_64,30.00210015,,,,,,,,3,Ontime,long,k,1,2.0555,8,3,35,3,1,,,,,
,0.27,,,,,,,,,k,purple,5f9f6e40ea7f965ca33bf97f,2021-09-27_13h18.22.419,forced_choiceRT_color,2021.2.3,Linux x86_64,30.00210015,,,,,,,,3,Ontime,long,k,1,1.9278,9,0,36,3,1,,,,,
,0.81,,,,,,,,,d,orange,5f9f6e40ea7f965ca33bf97f,2021-09-27_13h18.22.419,forced_choiceRT_color,2021.2.3,Linux x86_64,30.00210015,,,,,,,,3,Slow,long,d,1,2.1544,9,1,37,0,1,,,,,
,1.61,,,,,,,,,k,purple,5f9f6e40ea7f965ca33bf97f,2021-09-27_13h18.22.419,forced_choiceRT_color,2021.2.3,Linux x86_64,30.00210015,,,,,,,,3,Slow,long,d,0,2.1029,9,2,38,3,1,,,,,
,1.46,,,,,,,,,d,orange,5f9f6e40ea7f965ca33bf97f,2021-09-27_13h18.22.419,forced_choiceRT_color,2021.2.3,Linux x86_64,30.00210015,,,,,,,,3,Ontime,long,k,0,2.0309,9,3,39,0,1,,,,,
,,,,,,,,,,,,5f9f6e40ea7f965ca33bf97f,2021-09-27_13h18.22.419,forced_choiceRT_color,2021.2.3,Linux x86_64,30.00210015,,,,,,,,,,,,,,,,,,,2,0,2,0,1
,1.95,,,,,,,,,k,purple,5f9f6e40ea7f965ca33bf97f,2021-09-27_13h18.22.419,forced_choiceRT_color,2021.2.3,Linux x86_64,30.00210015,,,,,,,,4,Slow,long,f,0,2.119,0,0,0,3,1,,,,,
,0.47,,,,,,,,,k,purple,5f9f6e40ea7f965ca33bf97f,2021-09-27_13h18.22.419,forced_choiceRT_color,2021.2.3,Linux x86_64,30.00210015,,,,,,,,4,Ontime,long,k,1,2.0488,0,1,1,3,1,,,,,
,1.44,,,,,,,,,j,red,5f9f6e40ea7f965ca33bf97f,2021-09-27_13h18.22.419,forced_choiceRT_color,2021.2.3,Linux x86_64,30.00210015,,,,,,,,4,Ontime,long,j,1,1.9231,0,2,2,2,1,,,,,
,0.47,,,,,,,,,j,red,5f9f6e40ea7f965ca33bf97f,2021-09-27_13h18.22.419,forced_choiceRT_color,2021.2.3,Linux x86_64,30.00210015,,,,,,,,4,Ontime,long,j,1,2.0241,0,3,3,2,1,,,,,
,1.37,,,,,,,,,k,purple,5f9f6e40ea7f965ca33bf97f,2021-09-27_13h18.22.419,forced_choiceRT_color,2021.2.3,Linux x86_64,30.00210015,,,,,,,,4,Ontime,long,j,0,1.9671,1,0,4,3,1,,,,,
,0.02,,,,,,,,,f,blue,5f9f6e40ea7f965ca33bf97f,2021-09-27_13h18.22.419,forced_choiceRT_color,2021.2.3,Linux x86_64,30.00210015,,,,,,,,4,Ontime,long,f,1,2.0391,1,1,5,1,1,,,,,
,0.63,,,,,,,,,f,blue,5f9f6e40ea7f965ca33bf97f,2021-09-27_13h18.22.419,forced_choiceRT_color,2021.2.3,Linux x86_64,30.00210015,,,,,,,,4,Ontime,long,f,1,2.0596,1,2,6,1,1,,,,,
,0.2,,,,,,,,,d,orange,5f9f6e40ea7f965ca33bf97f,2021-09-27_13h18.22.419,forced_choiceRT_color,2021.2.3,Linux x86_64,30.00210015,,,,,,,,4,Ontime,long,d,1,2.0243,1,3,7,0,1,,,,,
,0.98,,,,,,,,,j,red,5f9f6e40ea7f965ca33bf97f,2021-09-27_13h18.22.419,forced_choiceRT_color,2021.2.3,Linux x86_64,30.00210015,,,,,,,,4,Ontime,long,k,0,2.0411,2,0,8,2,1,,,,,
,1.48,,,,,,,,,j,red,5f9f6e40ea7f965ca33bf97f,2021-09-27_13h18.22.419,forced_choiceRT_color,2021.2.3,Linux x86_64,30.00210015,,,,,,,,4,Ontime,long,k,0,2.0462,2,1,9,2,1,,,,,
,0.02,,,,,,,,,d,orange,5f9f6e40ea7f965ca33bf97f,2021-09-27_13h18.22.419,forced_choiceRT_color,2021.2.3,Linux x86_64,30.00210015,,,,,,,,4,Ontime,long,d,1,2.0869,2,2,10,0,1,,,,,
,1.15,,,,,,,,,f,blue,5f9f6e40ea7f965ca33bf97f,2021-09-27_13h18.22.419,forced_choiceRT_color,2021.2.3,Linux x86_64,30.00210015,,,,,,,,4,Slow,long,f,1,2.106,2,3,11,1,1,,,,,
,1.24,,,,,,,,,f,blue,5f9f6e40ea7f965ca33bf97f,2021-09-27_13h18.22.419,forced_choiceRT_color,2021.2.3,Linux x86_64,30.00210015,,,,,,,,4,Ontime,long,f,1,1.979,3,0,12,1,1,,,,,
,1.94,,,,,,,,,f,blue,5f9f6e40ea7f965ca33bf97f,2021-09-27_13h18.22.419,forced_choiceRT_color,2021.2.3,Linux x86_64,30.00210015,,,,,,,,4,Slow,long,k,0,2.1313,3,1,13,1,1,,,,,
,0.55,,,,,,,,,d,orange,5f9f6e40ea7f965ca33bf97f,2021-09-27_13h18.22.419,forced_choiceRT_color,2021.2.3,Linux x86_64,30.00210015,,,,,,,,4,Ontime,long,d,1,1.9775,3,2,14,0,1,,,,,
,1.57,,,,,,,,,d,orange,5f9f6e40ea7f965ca33bf97f,2021-09-27_13h18.22.419,forced_choiceRT_color,2021.2.3,Linux x86_64,30.00210015,,,,,,,,4,Ontime,long,d,1,2.0405,3,3,15,0,1,,,,,
,0.62,,,,,,,,,f,blue,5f9f6e40ea7f965ca33bf97f,2021-09-27_13h18.22.419,forced_choiceRT_color,2021.2.3,Linux x86_64,30.00210015,,,,,,,,4,Ontime,long,f,1,1.9958,4,0,16,1,1,,,,,
,0.02,,,,,,,,,j,red,5f9f6e40ea7f965ca33bf97f,2021-09-27_13h18.22.419,forced_choiceRT_color,2021.2.3,Linux x86_64,30.00210015,,,,,,,,4,Ontime,long,j,1,1.955,4,1,17,2,1,,,,,
,0.15,,,,,,,,,d,orange,5f9f6e40ea7f965ca33bf97f,2021-09-27_13h18.22.419,forced_choiceRT_color,2021.2.3,Linux x86_64,30.00210015,,,,,,,,4,Ontime,long,d,1,1.9894,4,2,18,0,1,,,,,
,0.9,,,,,,,,,k,purple,5f9f6e40ea7f965ca33bf97f,2021-09-27_13h18.22.419,forced_choiceRT_color,2021.2.3,Linux x86_64,30.00210015,,,,,,,,4,Ontime,long,k,1,2.0576,4,3,19,3,1,,,,,
,1.81,,,,,,,,,k,purple,5f9f6e40ea7f965ca33bf97f,2021-09-27_13h18.22.419,forced_choiceRT_color,2021.2.3,Linux x86_64,30.00210015,,,,,,,,4,Ontime,long,j,0,2.0903,5,0,20,3,1,,,,,
,0.62,,,,,,,,,d,orange,5f9f6e40ea7f965ca33bf97f,2021-09-27_13h18.22.419,forced_choiceRT_color,2021.2.3,Linux x86_64,30.00210015,,,,,,,,4,Ontime,long,d,1,2.0986,5,1,21,0,1,,,,,
,0.94,,,,,,,,,d,orange,5f9f6e40ea7f965ca33bf97f,2021-09-27_13h18.22.419,forced_choiceRT_color,2021.2.3,Linux x86_64,30.00210015,,,,,,,,4,Ontime,long,d,1,2.0125,5,2,22,0,1,,,,,
,0.48,,,,,,,,,k,purple,5f9f6e40ea7f965ca33bf97f,2021-09-27_13h18.22.419,forced_choiceRT_color,2021.2.3,Linux x86_64,30.00210015,,,,,,,,4,Ontime,long,k,1,2.0082,5,3,23,3,1,,,,,
,1.35,,,,,,,,,k,purple,5f9f6e40ea7f965ca33bf97f,2021-09-27_13h18.22.419,forced_choiceRT_color,2021.2.3,Linux x86_64,30.00210015,,,,,,,,4,Ontime,long,k,1,2.047,6,0,24,3,1,,,,,
,0.76,,,,,,,,,j,red,5f9f6e40ea7f965ca33bf97f,2021-09-27_13h18.22.419,forced_choiceRT_color,2021.2.3,Linux x86_64,30.00210015,,,,,,,,4,Ontime,long,j,1,2.0505,6,1,25,2,1,,,,,
,1.72,,,,,,,,,j,red,5f9f6e40ea7f965ca33bf97f,2021-09-27_13h18.22.419,forced_choiceRT_color,2021.2.3,Linux x86_64,30.00210015,,,,,,,,4,Ontime,long,k,0,1.9944,6,2,26,2,1,,,,,
,1.42,,,,,,,,,j,red,5f9f6e40ea7f965ca33bf97f,2021-09-27_13h18.22.419,forced_choiceRT_color,2021.2.3,Linux x86_64,30.00210015,,,,,,,,4,Ontime,long,j,1,2.0417,6,3,27,2,1,,,,,
,0.98,,,,,,,,,f,blue,5f9f6e40ea7f965ca33bf97f,2021-09-27_13h18.22.419,forced_choiceRT_color,2021.2.3,Linux x86_64,30.00210015,,,,,,,,4,Ontime,long,f,1,1.9572,7,0,28,1,1,,,,,
,0.24,,,,,,,,,k,purple,5f9f6e40ea7f965ca33bf97f,2021-09-27_13h18.22.419,forced_choiceRT_color,2021.2.3,Linux x86_64,30.00210015,,,,,,,,4,Ontime,long,k,1,1.9617,7,1,29,3,1,,,,,
,0.67,,,,,,,,,d,orange,5f9f6e40ea7f965ca33bf97f,2021-09-27_13h18.22.419,forced_choiceRT_color,2021.2.3,Linux x86_64,30.00210015,,,,,,,,4,Ontime,long,d,1,1.9706,7,2,30,0,1,,,,,
,0.08,,,,,,,,,j,red,5f9f6e40ea7f965ca33bf97f,2021-09-27_13h18.22.419,forced_choiceRT_color,2021.2.3,Linux x86_64,30.00210015,,,,,,,,4,Ontime,long,j,1,2.0341,7,3,31,2,1,,,,,
,1.32,,,,,,,,,d,orange,5f9f6e40ea7f965ca33bf97f,2021-09-27_13h18.22.419,forced_choiceRT_color,2021.2.3,Linux x86_64,30.00210015,,,,,,,,4,Ontime,long,d,1,2.0896,8,0,32,0,1,,,,,
,0.99,,,,,,,,,f,blue,5f9f6e40ea7f965ca33bf97f,2021-09-27_13h18.22.419,forced_choiceRT_color,2021.2.3,Linux x86_64,30.00210015,,,,,,,,4,Ontime,long,f,1,1.9958,8,1,33,1,1,,,,,
,0.56,,,,,,,,,d,orange,5f9f6e40ea7f965ca33bf97f,2021-09-27_13h18.22.419,forced_choiceRT_color,2021.2.3,Linux x86_64,30.00210015,,,,,,,,4,Ontime,long,d,1,2.0233,8,2,34,0,1,,,,,
,1.47,,,,,,,,,j,red,5f9f6e40ea7f965ca33bf97f,2021-09-27_13h18.22.419,forced_choiceRT_color,2021.2.3,Linux x86_64,30.00210015,,,,,,,,4,Ontime,long,j,1,2.0353,8,3,35,2,1,,,,,
,0.2,,,,,,,,,f,blue,5f9f6e40ea7f965ca33bf97f,2021-09-27_13h18.22.419,forced_choiceRT_color,2021.2.3,Linux x86_64,30.00210015,,,,,,,,4,Ontime,long,f,1,2.0274,9,0,36,1,1,,,,,
,1.78,,,,,,,,,f,blue,5f9f6e40ea7f965ca33bf97f,2021-09-27_13h18.22.419,forced_choiceRT_color,2021.2.3,Linux x86_64,30.00210015,,,,,,,,4,Ontime,long,k,0,2.0292,9,1,37,1,1,,,,,
,1.1,,,,,,,,,k,purple,5f9f6e40ea7f965ca33bf97f,2021-09-27_13h18.22.419,forced_choiceRT_color,2021.2.3,Linux x86_64,30.00210015,,,,,,,,4,Ontime,long,k,1,2.031,9,2,38,3,1,,,,,
,0.6,,,,,,,,,k,purple,5f9f6e40ea7f965ca33bf97f,2021-09-27_13h18.22.419,forced_choiceRT_color,2021.2.3,Linux x86_64,30.00210015,,,,,,,,4,Ontime,long,k,1,1.9529,9,3,39,3,1,,,,,
,,,,,,,,,,,,5f9f6e40ea7f965ca33bf97f,2021-09-27_13h18.22.419,forced_choiceRT_color,2021.2.3,Linux x86_64,30.00210015,,,,,,,,,,,,,,,,,,,3,0,3,0,1
,1.65,,,,,,,,,f,blue,5f9f6e40ea7f965ca33bf97f,2021-09-27_13h18.22.419,forced_choiceRT_color,2021.2.3,Linux x86_64,30.00210015,,,,,,,,5,Slow,long,k,0,2.1179,0,0,0,1,1,,,,,
,0.48,,,,,,,,,d,orange,5f9f6e40ea7f965ca33bf97f,2021-09-27_13h18.22.419,forced_choiceRT_color,2021.2.3,Linux x86_64,30.00210015,,,,,,,,5,Ontime,long,d,1,2.0232,0,1,1,0,1,,,,,
,0.56,,,,,,,,,j,red,5f9f6e40ea7f965ca33bf97f,2021-09-27_13h18.22.419,forced_choiceRT_color,2021.2.3,Linux x86_64,30.00210015,,,,,,,,5,Ontime,long,j,1,1.9968,0,2,2,2,1,,,,,
,1.44,,,,,,,,,f,blue,5f9f6e40ea7f965ca33bf97f,2021-09-27_13h18.22.419,forced_choiceRT_color,2021.2.3,Linux x86_64,30.00210015,,,,,,,,5,Ontime,long,f,1,2.0189,0,3,3,1,1,,,,,
,1.14,,,,,,,,,k,purple,5f9f6e40ea7f965ca33bf97f,2021-09-27_13h18.22.419,forced_choiceRT_color,2021.2.3,Linux x86_64,30.00210015,,,,,,,,5,Ontime,long,k,1,2.0272,1,0,4,3,1,,,,,
,0.77,,,,,,,,,f,blue,5f9f6e40ea7f965ca33bf97f,2021-09-27_13h18.22.419,forced_choiceRT_color,2021.2.3,Linux x86_64,30.00210015,,,,,,,,5,Ontime,long,f,1,1.9937,1,1,5,1,1,,,,,
,1.57,,,,,,,,,k,purple,5f9f6e40ea7f965ca33bf97f,2021-09-27_13h18.22.419,forced_choiceRT_color,2021.2.3,Linux x86_64,30.00210015,,,,,,,,5,Ontime,long,k,1,2.0277,1,2,6,3,1,,,,,
,0.24,,,,,,,,,k,purple,5f9f6e40ea7f965ca33bf97f,2021-09-27_13h18.22.419,forced_choiceRT_color,2021.2.3,Linux x86_64,30.00210015,,,,,,,,5,Ontime,long,k,1,1.9633,1,3,7,3,1,,,,,
,0.94,,,,,,,,,d,orange,5f9f6e40ea7f965ca33bf97f,2021-09-27_13h18.22.419,forced_choiceRT_color,2021.2.3,Linux x86_64,30.00210015,,,,,,,,5,Ontime,long,d,1,2.0625,2,0,8,0,1,,,,,
,0.15,,,,,,,,,k,purple,5f9f6e40ea7f965ca33bf97f,2021-09-27_13h18.22.419,forced_choiceRT_color,2021.2.3,Linux x86_64,30.00210015,,,,,,,,5,Ontime,long,k,1,2.0452,2,1,9,3,1,,,,,
,1.06,,,,,,,,,j,red,5f9f6e40ea7f965ca33bf97f,2021-09-27_13h18.22.419,forced_choiceRT_color,2021.2.3,Linux x86_64,30.00210015,,,,,,,,5,Ontime,long,j,1,2.0713,2,2,10,2,1,,,,,
,0.14,,,,,,,,,k,purple,5f9f6e40ea7f965ca33bf97f,2021-09-27_13h18.22.419,forced_choiceRT_color,2021.2.3,Linux x86_64,30.00210015,,,,,,,,5,Ontime,long,k,1,2.0119,2,3,11,3,1,,,,,
,1.69,,,,,,,,,d,orange,5f9f6e40ea7f965ca33bf97f,2021-09-27_13h18.22.419,forced_choiceRT_color,2021.2.3,Linux x86_64,30.00210015,,,,,,,,5,Slow,long,f,0,2.1621,3,0,12,0,1,,,,,
,0.05,,,,,,,,,d,orange,5f9f6e40ea7f965ca33bf97f,2021-09-27_13h18.22.419,forced_choiceRT_color,2021.2.3,Linux x86_64,30.00210015,,,,,,,,5,Fast,long,d,1,1.8718,3,1,13,0,1,,,,,
,0.25,,,,,,,,,f,blue,5f9f6e40ea7f965ca33bf97f,2021-09-27_13h18.22.419,forced_choiceRT_color,2021.2.3,Linux x86_64,30.00210015,,,,,,,,5,Ontime,long,f,1,2.0099,3,2,14,1,1,,,,,
,1.85,,,,,,,,,j,red,5f9f6e40ea7f965ca33bf97f,2021-09-27_13h18.22.419,forced_choiceRT_color,2021.2.3,Linux x86_64,30.00210015,,,,,,,,5,Slow,long,j,1,2.1618,3,3,15,2,1,,,,,
,1.35,,,,,,,,,d,orange,5f9f6e40ea7f965ca33bf97f,2021-09-27_13h18.22.419,forced_choiceRT_color,2021.2.3,Linux x86_64,30.00210015,,,,,,,,5,Slow,long,f,0,2.2715,4,0,16,0,1,,,,,
,1.51,,,,,,,,,d,orange,5f9f6e40ea7f965ca33bf97f,2021-09-27_13h18.22.419,forced_choiceRT_color,2021.2.3,Linux x86_64,30.00210015,,,,,,,,5,Ontime,long,d,1,2.0915,4,1,17,0,1,,,,,
,0.7,,,,,,,,,d,orange,5f9f6e40ea7f965ca33bf97f,2021-09-27_13h18.22.419,forced_choiceRT_color,2021.2.3,Linux x86_64,30.00210015,,,,,,,,5,Fast,long,f,0,1.8171,4,2,18,0,1,,,,,
,0.47,,,,,,,,,f,blue,5f9f6e40ea7f965ca33bf97f,2021-09-27_13h18.22.419,forced_choiceRT_color,2021.2.3,Linux x86_64,30.00210015,,,,,,,,5,Slow,long,f,1,2.1793,4,3,19,1,1,,,,,
,1.03,,,,,,,,,f,blue,5f9f6e40ea7f965ca33bf97f,2021-09-27_13h18.22.419,forced_choiceRT_color,2021.2.3,Linux x86_64,30.00210015,,,,,,,,5,Ontime,long,f,1,1.9686,5,0,20,1,1,,,,,
,1.45,,,,,,,,,d,orange,5f9f6e40ea7f965ca33bf97f,2021-09-27_13h18.22.419,forced_choiceRT_color,2021.2.3,Linux x86_64,30.00210015,,,,,,,,5,Slow,long,d,1,2.2357,5,1,21,0,1,,,,,
,0.23,,,,,,,,,k,purple,5f9f6e40ea7f965ca33bf97f,2021-09-27_13h18.22.419,forced_choiceRT_color,2021.2.3,Linux x86_64,30.00210015,,,,,,,,5,Slow,long,k,1,2.1018,5,2,22,3,1,,,,,
,1.14,,,,,,,,,k,purple,5f9f6e40ea7f965ca33bf97f,2021-09-27_13h18.22.419,forced_choiceRT_color,2021.2.3,Linux x86_64,30.00210015,,,,,,,,5,Slow,long,k,1,2.1645,5,3,23,3,1,,,,,
,1.1,,,,,,,,,d,orange,5f9f6e40ea7f965ca33bf97f,2021-09-27_13h18.22.419,forced_choiceRT_color,2021.2.3,Linux x86_64,30.00210015,,,,,,,,5,Ontime,long,d,1,2.0525,6,0,24,0,1,,,,,
,1.44,,,,,,,,,k,purple,5f9f6e40ea7f965ca33bf97f,2021-09-27_13h18.22.419,forced_choiceRT_color,2021.2.3,Linux x86_64,30.00210015,,,,,,,,5,Ontime,long,k,1,2.062,6,1,25,3,1,,,,,
,0.58,,,,,,,,,k,purple,5f9f6e40ea7f965ca33bf97f,2021-09-27_13h18.22.419,forced_choiceRT_color,2021.2.3,Linux x86_64,30.00210015,,,,,,,,5,Ontime,long,k,1,2.0933,6,2,26,3,1,,,,,
,1.22,,,,,,,,,k,purple,5f9f6e40ea7f965ca33bf97f,2021-09-27_13h18.22.419,forced_choiceRT_color,2021.2.3,Linux x86_64,30.00210015,,,,,,,,5,Slow,long,k,1,2.114,6,3,27,3,1,,,,,
,1.6,,,,,,,,,f,blue,5f9f6e40ea7f965ca33bf97f,2021-09-27_13h18.22.419,forced_choiceRT_color,2021.2.3,Linux x86_64,30.00210015,,,,,,,,5,Ontime,long,d,0,2.0691,7,0,28,1,1,,,,,
,1.99,,,,,,,,,f,blue,5f9f6e40ea7f965ca33bf97f,2021-09-27_13h18.22.419,forced_choiceRT_color,2021.2.3,Linux x86_64,30.00210015,,,,,,,,5,Slow,long,j,0,2.1443,7,1,29,1,1,,,,,
,1.4,,,,,,,,,j,red,5f9f6e40ea7f965ca33bf97f,2021-09-27_13h18.22.419,forced_choiceRT_color,2021.2.3,Linux x86_64,30.00210015,,,,,,,,5,Ontime,long,j,1,2.0226,7,2,30,2,1,,,,,
,0.49,,,,,,,,,f,blue,5f9f6e40ea7f965ca33bf97f,2021-09-27_13h18.22.419,forced_choiceRT_color,2021.2.3,Linux x86_64,30.00210015,,,,,,,,5,Ontime,long,f,1,2.0316,7,3,31,1,1,,,,,
,1.17,,,,,,,,,f,blue,5f9f6e40ea7f965ca33bf97f,2021-09-27_13h18.22.419,forced_choiceRT_color,2021.2.3,Linux x86_64,30.00210015,,,,,,,,5,Slow,long,f,1,2.1268,8,0,32,1,1,,,,,
,1.98,,,,,,,,,d,orange,5f9f6e40ea7f965ca33bf97f,2021-09-27_13h18.22.419,forced_choiceRT_color,2021.2.3,Linux x86_64,30.00210015,,,,,,,,5,Fast,long,f,0,1.7221,8,1,33,0,1,,,,,
,1.94,,,,,,,,,j,red,5f9f6e40ea7f965ca33bf97f,2021-09-27_13h18.22.419,forced_choiceRT_color,2021.2.3,Linux x86_64,30.00210015,,,,,,,,5,Ontime,long,k,0,2.0405,8,2,34,2,1,,,,,
,0.12,,,,,,,,,j,red,5f9f6e40ea7f965ca33bf97f,2021-09-27_13h18.22.419,forced_choiceRT_color,2021.2.3,Linux x86_64,30.00210015,,,,,,,,5,Ontime,long,j,1,1.9804,8,3,35,2,1,,,,,
,0.27,,,,,,,,,j,red,5f9f6e40ea7f965ca33bf97f,2021-09-27_13h18.22.419,forced_choiceRT_color,2021.2.3,Linux x86_64,30.00210015,,,,,,,,5,Ontime,long,j,1,2.0557,9,0,36,2,1,,,,,
,1.9,,,,,,,,,j,red,5f9f6e40ea7f965ca33bf97f,2021-09-27_13h18.22.419,forced_choiceRT_color,2021.2.3,Linux x86_64,30.00210015,,,,,,,,5,Ontime,long,k,0,1.9993,9,1,37,2,1,,,,,
,1.11,,,,,,,,,j,red,5f9f6e40ea7f965ca33bf97f,2021-09-27_13h18.22.419,forced_choiceRT_color,2021.2.3,Linux x86_64,30.00210015,,,,,,,,5,Ontime,long,j,1,2.055,9,2,38,2,1,,,,,
,0.71,,,,,,,,,j,red,5f9f6e40ea7f965ca33bf97f,2021-09-27_13h18.22.419,forced_choiceRT_color,2021.2.3,Linux x86_64,30.00210015,,,,,,,,5,Ontime,long,j,1,2.0569,9,3,39,2,1,,,,,
,,,,,,,,,,,,5f9f6e40ea7f965ca33bf97f,2021-09-27_13h18.22.419,forced_choiceRT_color,2021.2.3,Linux x86_64,30.00210015,,,,,,,,,,,,,,,,,,,4,0,4,0,1
,1.85,,,,,,,,,f,blue,5f9f6e40ea7f965ca33bf97f,2021-09-27_13h18.22.419,forced_choiceRT_color,2021.2.3,Linux x86_64,30.00210015,,,,,,,,6,Slow,long,k,0,2.2206,0,0,0,1,1,,,,,
,0.97,,,,,,,,,j,red,5f9f6e40ea7f965ca33bf97f,2021-09-27_13h18.22.419,forced_choiceRT_color,2021.2.3,Linux x86_64,30.00210015,,,,,,,,6,Ontime,long,j,1,2.0402,0,1,1,2,1,,,,,
,1.24,,,,,,,,,j,red,5f9f6e40ea7f965ca33bf97f,2021-09-27_13h18.22.419,forced_choiceRT_color,2021.2.3,Linux x86_64,30.00210015,,,,,,,,6,Ontime,long,j,1,2.0712,0,2,2,2,1,,,,,
,1.24,,,,,,,,,f,blue,5f9f6e40ea7f965ca33bf97f,2021-09-27_13h18.22.419,forced_choiceRT_color,2021.2.3,Linux x86_64,30.00210015,,,,,,,,6,Ontime,long,f,1,2.0036,0,3,3,1,1,,,,,
,0.42,,,,,,,,,d,orange,5f9f6e40ea7f965ca33bf97f,2021-09-27_13h18.22.419,forced_choiceRT_color,2021.2.3,Linux x86_64,30.00210015,,,,,,,,6,Ontime,long,d,1,2.0139,1,0,4,0,1,,,,,
,0.56,,,,,,,,,f,blue,5f9f6e40ea7f965ca33bf97f,2021-09-27_13h18.22.419,forced_choiceRT_color,2021.2.3,Linux x86_64,30.00210015,,,,,,,,6,Slow,long,f,1,2.1109,1,1,5,1,1,,,,,
,0.64,,,,,,,,,k,purple,5f9f6e40ea7f965ca33bf97f,2021-09-27_13h18.22.419,forced_choiceRT_color,2021.2.3,Linux x86_64,30.00210015,,,,,,,,6,Ontime,long,k,1,1.9681,1,2,6,3,1,,,,,
,0.39,,,,,,,,,f,blue,5f9f6e40ea7f965ca33bf97f,2021-09-27_13h18.22.419,forced_choiceRT_color,2021.2.3,Linux x86_64,30.00210015,,,,,,,,6,Ontime,long,f,1,2.0498,1,3,7,1,1,,,,,
,1.14,,,,,,,,,d,orange,5f9f6e40ea7f965ca33bf97f,2021-09-27_13h18.22.419,forced_choiceRT_color,2021.2.3,Linux x86_64,30.00210015,,,,,,,,6,Ontime,long,d,1,2.0432,2,0,8,0,1,,,,,
,1.06,,,,,,,,,k,purple,5f9f6e40ea7f965ca33bf97f,2021-09-27_13h18.22.419,forced_choiceRT_color,2021.2.3,Linux x86_64,30.00210015,,,,,,,,6,Ontime,long,k,1,2.045,2,1,9,3,1,,,,,
,0.45,,,,,,,,,k,purple,5f9f6e40ea7f965ca33bf97f,2021-09-27_13h18.22.419,forced_choiceRT_color,2021.2.3,Linux x86_64,30.00210015,,,,,,,,6,Ontime,long,k,1,2.0239,2,2,10,3,1,,,,,
,0.36,,,,,,,,,j,red,5f9f6e40ea7f965ca33bf97f,2021-09-27_13h18.22.419,forced_choiceRT_color,2021.2.3,Linux x86_64,30.00210015,,,,,,,,6,Ontime,long,j,1,2.0583,2,3,11,2,1,,,,,
,0.98,,,,,,,,,j,red,5f9f6e40ea7f965ca33bf97f,2021-09-27_13h18.22.419,forced_choiceRT_color,2021.2.3,Linux x86_64,30.00210015,,,,,,,,6,Slow,long,j,1,2.1308,3,0,12,2,1,,,,,
,0.17,,,,,,,,,d,orange,5f9f6e40ea7f965ca33bf97f,2021-09-27_13h18.22.419,forced_choiceRT_color,2021.2.3,Linux x86_64,30.00210015,,,,,,,,6,Ontime,long,d,1,2.0469,3,1,13,0,1,,,,,
,0.22,,,,,,,,,j,red,5f9f6e40ea7f965ca33bf97f,2021-09-27_13h18.22.419,forced_choiceRT_color,2021.2.3,Linux x86_64,30.00210015,,,,,,,,6,Ontime,long,j,1,2.0566,3,2,14,2,1,,,,,
,0.37,,,,,,,,,k,purple,5f9f6e40ea7f965ca33bf97f,2021-09-27_13h18.22.419,forced_choiceRT_color,2021.2.3,Linux x86_64,30.00210015,,,,,,,,6,Ontime,long,k,1,2.0427,3,3,15,3,1,,,,,
,0.32,,,,,,,,,d,orange,5f9f6e40ea7f965ca33bf97f,2021-09-27_13h18.22.419,forced_choiceRT_color,2021.2.3,Linux x86_64,30.00210015,,,,,,,,6,Ontime,long,d,1,2.0824,4,0,16,0,1,,,,,
,1.75,,,,,,,,,j,red,5f9f6e40ea7f965ca33bf97f,2021-09-27_13h18.22.419,forced_choiceRT_color,2021.2.3,Linux x86_64,30.00210015,,,,,,,,6,Slow,long,j,1,2.1714,4,1,17,2,1,,,,,
,0.74,,,,,,,,,d,orange,5f9f6e40ea7f965ca33bf97f,2021-09-27_13h18.22.419,forced_choiceRT_color,2021.2.3,Linux x86_64,30.00210015,,,,,,,,6,Ontime,long,d,1,2.0758,4,2,18,0,1,,,,,
,0.99,,,,,,,,,d,orange,5f9f6e40ea7f965ca33bf97f,2021-09-27_13h18.22.419,forced_choiceRT_color,2021.2.3,Linux x86_64,30.00210015,,,,,,,,6,Slow,long,d,1,2.1156,4,3,19,0,1,,,,,
,0.35,,,,,,,,,k,purple,5f9f6e40ea7f965ca33bf97f,2021-09-27_13h18.22.419,forced_choiceRT_color,2021.2.3,Linux x86_64,30.00210015,,,,,,,,6,Ontime,long,k,1,2.0612,5,0,20,3,1,,,,,
,0.58,,,,,,,,,k,purple,5f9f6e40ea7f965ca33bf97f,2021-09-27_13h18.22.419,forced_choiceRT_color,2021.2.3,Linux x86_64,30.00210015,,,,,,,,6,Ontime,long,k,1,2.0883,5,1,21,3,1,,,,,
,0.5,,,,,,,,,j,red,5f9f6e40ea7f965ca33bf97f,2021-09-27_13h18.22.419,forced_choiceRT_color,2021.2.3,Linux x86_64,30.00210015,,,,,,,,6,Ontime,long,j,1,1.989,5,2,22,2,1,,,,,
,1.35,,,,,,,,,f,blue,5f9f6e40ea7f965ca33bf97f,2021-09-27_13h18.22.419,forced_choiceRT_color,2021.2.3,Linux x86_64,30.00210015,,,,,,,,6,Ontime,long,j,0,1.9906,5,3,23,1,1,,,,,
,0.96,,,,,,,,,j,red,5f9f6e40ea7f965ca33bf97f,2021-09-27_13h18.22.419,forced_choiceRT_color,2021.2.3,Linux x86_64,30.00210015,,,,,,,,6,Ontime,long,j,1,2.0543,6,0,24,2,1,,,,,
,1.84,,,,,,,,,d,orange,5f9f6e40ea7f965ca33bf97f,2021-09-27_13h18.22.419,forced_choiceRT_color,2021.2.3,Linux x86_64,30.00210015,,,,,,,,6,Ontime,long,f,0,2.0612,6,1,25,0,1,,,,,
,0.15,,,,,,,,,j,red,5f9f6e40ea7f965ca33bf97f,2021-09-27_13h18.22.419,forced_choiceRT_color,2021.2.3,Linux x86_64,30.00210015,,,,,,,,6,Ontime,long,j,1,2.0024,6,2,26,2,1,,,,,
,1.14,,,,,,,,,f,blue,5f9f6e40ea7f965ca33bf97f,2021-09-27_13h18.22.419,forced_choiceRT_color,2021.2.3,Linux x86_64,30.00210015,,,,,,,,6,Ontime,long,f,1,2.0337,6,3,27,1,1,,,,,
,1.9,,,,,,,,,f,blue,5f9f6e40ea7f965ca33bf97f,2021-09-27_13h18.22.419,forced_choiceRT_color,2021.2.3,Linux x86_64,30.00210015,,,,,,,,6,Slow,long,f,1,2.1384,7,0,28,1,1,,,,,
,0.76,,,,,,,,,d,orange,5f9f6e40ea7f965ca33bf97f,2021-09-27_13h18.22.419,forced_choiceRT_color,2021.2.3,Linux x86_64,30.00210015,,,,,,,,6,Ontime,long,d,1,2.031,7,1,29,0,1,,,,,
,0.86,,,,,,,,,f,blue,5f9f6e40ea7f965ca33bf97f,2021-09-27_13h18.22.419,forced_choiceRT_color,2021.2.3,Linux x86_64,30.00210015,,,,,,,,6,Ontime,long,f,1,1.9991,7,2,30,1,1,,,,,
,0.07,,,,,,,,,d,orange,5f9f6e40ea7f965ca33bf97f,2021-09-27_13h18.22.419,forced_choiceRT_color,2021.2.3,Linux x86_64,30.00210015,,,,,,,,6,Ontime,long,d,1,1.9321,7,3,31,0,1,,,,,
,1.37,,,,,,,,,f,blue,5f9f6e40ea7f965ca33bf97f,2021-09-27_13h18.22.419,forced_choiceRT_color,2021.2.3,Linux x86_64,30.00210015,,,,,,,,6,Ontime,long,f,1,2.0657,8,0,32,1,1,,,,,
,0.17,,,,,,,,,k,purple,5f9f6e40ea7f965ca33bf97f,2021-09-27_13h18.22.419,forced_choiceRT_color,2021.2.3,Linux x86_64,30.00210015,,,,,,,,6,Ontime,long,k,1,2.0655,8,1,33,3,1,,,,,
,1.16,,,,,,,,,f,blue,5f9f6e40ea7f965ca33bf97f,2021-09-27_13h18.22.419,forced_choiceRT_color,2021.2.3,Linux x86_64,30.00210015,,,,,,,,6,Ontime,long,j,0,2.0522,8,2,34,1,1,,,,,
,1.26,,,,,,,,,k,purple,5f9f6e40ea7f965ca33bf97f,2021-09-27_13h18.22.419,forced_choiceRT_color,2021.2.3,Linux x86_64,30.00210015,,,,,,,,6,Ontime,long,k,1,1.9839,8,3,35,3,1,,,,,
,1.26,,,,,,,,,d,orange,5f9f6e40ea7f965ca33bf97f,2021-09-27_13h18.22.419,forced_choiceRT_color,2021.2.3,Linux x86_64,30.00210015,,,,,,,,6,Ontime,long,d,1,2.0657,9,0,36,0,1,,,,,
,0.6,,,,,,,,,j,red,5f9f6e40ea7f965ca33bf97f,2021-09-27_13h18.22.419,forced_choiceRT_color,2021.2.3,Linux x86_64,30.00210015,,,,,,,,6,Ontime,long,j,1,2.0192,9,1,37,2,1,,,,,
,1.16,,,,,,,,,k,purple,5f9f6e40ea7f965ca33bf97f,2021-09-27_13h18.22.419,forced_choiceRT_color,2021.2.3,Linux x86_64,30.00210015,,,,,,,,6,Slow,long,k,1,2.1371,9,2,38,3,1,,,,,
,0.92,,,,,,,,,k,purple,5f9f6e40ea7f965ca33bf97f,2021-09-27_13h18.22.419,forced_choiceRT_color,2021.2.3,Linux x86_64,30.00210015,,,,,,,,6,Slow,long,k,1,2.1228,9,3,39,3,1,,,,,
,,,,,,,,,,,,5f9f6e40ea7f965ca33bf97f,2021-09-27_13h18.22.419,forced_choiceRT_color,2021.2.3,Linux x86_64,30.00210015,,,,,,,,,,,,,,,,,,,5,0,5,0,1
,0.97,,,,,,,,,j,red,5f9f6e40ea7f965ca33bf97f,2021-09-27_13h18.22.419,forced_choiceRT_color,2021.2.3,Linux x86_64,30.00210015,,,,,,,,7,Ontime,long,j,1,2.0233,0,0,0,2,1,,,,,
,0.81,,,,,,,,,k,purple,5f9f6e40ea7f965ca33bf97f,2021-09-27_13h18.22.419,forced_choiceRT_color,2021.2.3,Linux x86_64,30.00210015,,,,,,,,7,Ontime,long,k,1,1.9994,0,1,1,3,1,,,,,
,1,,,,,,,,,j,red,5f9f6e40ea7f965ca33bf97f,2021-09-27_13h18.22.419,forced_choiceRT_color,2021.2.3,Linux x86_64,30.00210015,,,,,,,,7,Ontime,long,j,1,2.0975,0,2,2,2,1,,,,,
,0.1,,,,,,,,,f,blue,5f9f6e40ea7f965ca33bf97f,2021-09-27_13h18.22.419,forced_choiceRT_color,2021.2.3,Linux x86_64,30.00210015,,,,,,,,7,Ontime,long,f,1,2.0189,0,3,3,1,1,,,,,
,1.12,,,,,,,,,k,purple,5f9f6e40ea7f965ca33bf97f,2021-09-27_13h18.22.419,forced_choiceRT_color,2021.2.3,Linux x86_64,30.00210015,,,,,,,,7,Ontime,long,k,1,2.0458,1,0,4,3,1,,,,,
,0.9,,,,,,,,,d,orange,5f9f6e40ea7f965ca33bf97f,2021-09-27_13h18.22.419,forced_choiceRT_color,2021.2.3,Linux x86_64,30.00210015,,,,,,,,7,Ontime,long,d,1,1.9745,1,1,5,0,1,,,,,
,0.84,,,,,,,,,f,blue,5f9f6e40ea7f965ca33bf97f,2021-09-27_13h18.22.419,forced_choiceRT_color,2021.2.3,Linux x86_64,30.00210015,,,,,,,,7,Ontime,long,f,1,1.9888,1,2,6,1,1,,,,,
,0.12,,,,,,,,,f,blue,5f9f6e40ea7f965ca33bf97f,2021-09-27_13h18.22.419,forced_choiceRT_color,2021.2.3,Linux x86_64,30.00210015,,,,,,,,7,Ontime,long,f,1,2.0206,1,3,7,1,1,,,,,
,1.11,,,,,,,,,d,orange,5f9f6e40ea7f965ca33bf97f,2021-09-27_13h18.22.419,forced_choiceRT_color,2021.2.3,Linux x86_64,30.00210015,,,,,,,,7,Ontime,long,d,1,2.0364,2,0,8,0,1,,,,,
,1.89,,,,,,,,,f,blue,5f9f6e40ea7f965ca33bf97f,2021-09-27_13h18.22.419,forced_choiceRT_color,2021.2.3,Linux x86_64,30.00210015,,,,,,,,7,Ontime,long,k,0,2.0039,2,1,9,1,1,,,,,
,1.45,,,,,,,,,k,purple,5f9f6e40ea7f965ca33bf97f,2021-09-27_13h18.22.419,forced_choiceRT_color,2021.2.3,Linux x86_64,30.00210015,,,,,,,,7,Ontime,long,k,1,1.9883,2,2,10,3,1,,,,,
,1.57,,,,,,,,,d,orange,5f9f6e40ea7f965ca33bf97f,2021-09-27_13h18.22.419,forced_choiceRT_color,2021.2.3,Linux x86_64,30.00210015,,,,,,,,7,Ontime,long,j,0,2.0665,2,3,11,0,1,,,,,
,0.44,,,,,,,,,j,red,5f9f6e40ea7f965ca33bf97f,2021-09-27_13h18.22.419,forced_choiceRT_color,2021.2.3,Linux x86_64,30.00210015,,,,,,,,7,Ontime,long,j,1,2.0535,3,0,12,2,1,,,,,
,0.68,,,,,,,,,d,orange,5f9f6e40ea7f965ca33bf97f,2021-09-27_13h18.22.419,forced_choiceRT_color,2021.2.3,Linux x86_64,30.00210015,,,,,,,,7,Ontime,long,d,1,2.0707,3,1,13,0,1,,,,,
,0.05,,,,,,,,,f,blue,5f9f6e40ea7f965ca33bf97f,2021-09-27_13h18.22.419,forced_choiceRT_color,2021.2.3,Linux x86_64,30.00210015,,,,,,,,7,Ontime,long,f,1,1.9815,3,2,14,1,1,,,,,
,1.3,,,,,,,,,k,purple,5f9f6e40ea7f965ca33bf97f,2021-09-27_13h18.22.419,forced_choiceRT_color,2021.2.3,Linux x86_64,30.00210015,,,,,,,,7,Ontime,long,k,1,1.9859,3,3,15,3,1,,,,,
,1.1,,,,,,,,,f,blue,5f9f6e40ea7f965ca33bf97f,2021-09-27_13h18.22.419,forced_choiceRT_color,2021.2.3,Linux x86_64,30.00210015,,,,,,,,7,Ontime,long,f,1,2.0171,4,0,16,1,1,,,,,
,0.75,,,,,,,,,j,red,5f9f6e40ea7f965ca33bf97f,2021-09-27_13h18.22.419,forced_choiceRT_color,2021.2.3,Linux x86_64,30.00210015,,,,,,,,7,Slow,long,j,1,2.1089,4,1,17,2,1,,,,,
,0.13,,,,,,,,,d,orange,5f9f6e40ea7f965ca33bf97f,2021-09-27_13h18.22.419,forced_choiceRT_color,2021.2.3,Linux x86_64,30.00210015,,,,,,,,7,Slow,long,d,1,2.1138,4,2,18,0,1,,,,,
,0.2,,,,,,,,,d,orange,5f9f6e40ea7f965ca33bf97f,2021-09-27_13h18.22.419,forced_choiceRT_color,2021.2.3,Linux x86_64,30.00210015,,,,,,,,7,Ontime,long,d,1,1.9931,4,3,19,0,1,,,,,
,1.66,,,,,,,,,k,purple,5f9f6e40ea7f965ca33bf97f,2021-09-27_13h18.22.419,forced_choiceRT_color,2021.2.3,Linux x86_64,30.00210015,,,,,,,,7,Slow,long,k,1,2.1763,5,0,20,3,1,,,,,
,0.7,,,,,,,,,j,red,5f9f6e40ea7f965ca33bf97f,2021-09-27_13h18.22.419,forced_choiceRT_color,2021.2.3,Linux x86_64,30.00210015,,,,,,,,7,Ontime,long,j,1,2.087,5,1,21,2,1,,,,,
,0.84,,,,,,,,,f,blue,5f9f6e40ea7f965ca33bf97f,2021-09-27_13h18.22.419,forced_choiceRT_color,2021.2.3,Linux x86_64,30.00210015,,,,,,,,7,Ontime,long,f,1,2.0913,5,2,22,1,1,,,,,
,0.85,,,,,,,,,j,red,5f9f6e40ea7f965ca33bf97f,2021-09-27_13h18.22.419,forced_choiceRT_color,2021.2.3,Linux x86_64,30.00210015,,,,,,,,7,Ontime,long,j,1,2.0789,5,3,23,2,1,,,,,
,1.92,,,,,,,,,d,orange,5f9f6e40ea7f965ca33bf97f,2021-09-27_13h18.22.419,forced_choiceRT_color,2021.2.3,Linux x86_64,30.00210015,,,,,,,,7,Ontime,long,k,0,2.0207,6,0,24,0,1,,,,,
,1.28,,,,,,,,,k,purple,5f9f6e40ea7f965ca33bf97f,2021-09-27_13h18.22.419,forced_choiceRT_color,2021.2.3,Linux x86_64,30.00210015,,,,,,,,7,Ontime,long,k,1,2.0519,6,1,25,3,1,,,,,
,0.88,,,,,,,,,k,purple,5f9f6e40ea7f965ca33bf97f,2021-09-27_13h18.22.419,forced_choiceRT_color,2021.2.3,Linux x86_64,30.00210015,,,,,,,,7,Slow,long,k,1,2.1174,6,2,26,3,1,,,,,
,1.41,,,,,,,,,k,purple,5f9f6e40ea7f965ca33bf97f,2021-09-27_13h18.22.419,forced_choiceRT_color,2021.2.3,Linux x86_64,30.00210015,,,,,,,,7,Ontime,long,j,0,2.0411,6,3,27,3,1,,,,,
,0.14,,,,,,,,,k,purple,5f9f6e40ea7f965ca33bf97f,2021-09-27_13h18.22.419,forced_choiceRT_color,2021.2.3,Linux x86_64,30.00210015,,,,,,,,7,Ontime,long,k,1,1.9518,7,0,28,3,1,,,,,
,1.18,,,,,,,,,j,red,5f9f6e40ea7f965ca33bf97f,2021-09-27_13h18.22.419,forced_choiceRT_color,2021.2.3,Linux x86_64,30.00210015,,,,,,,,7,Ontime,long,j,1,2.0636,7,1,29,2,1,,,,,
,0.12,,,,,,,,,j,red,5f9f6e40ea7f965ca33bf97f,2021-09-27_13h18.22.419,forced_choiceRT_color,2021.2.3,Linux x86_64,30.00210015,,,,,,,,7,Slow,long,j,1,2.1032,7,2,30,2,1,,,,,
,1.14,,,,,,,,,d,orange,5f9f6e40ea7f965ca33bf97f,2021-09-27_13h18.22.419,forced_choiceRT_color,2021.2.3,Linux x86_64,30.00210015,,,,,,,,7,Ontime,long,d,1,2.0798,7,3,31,0,1,,,,,
,1.44,,,,,,,,,f,blue,5f9f6e40ea7f965ca33bf97f,2021-09-27_13h18.22.419,forced_choiceRT_color,2021.2.3,Linux x86_64,30.00210015,,,,,,,,7,Ontime,long,f,1,2.0382,8,0,32,1,1,,,,,
,1.58,,,,,,,,,f,blue,5f9f6e40ea7f965ca33bf97f,2021-09-27_13h18.22.419,forced_choiceRT_color,2021.2.3,Linux x86_64,30.00210015,,,,,,,,7,Slow,long,j,0,2.1265,8,1,33,1,1,,,,,
,0.22,,,,,,,,,j,red,5f9f6e40ea7f965ca33bf97f,2021-09-27_13h18.22.419,forced_choiceRT_color,2021.2.3,Linux x86_64,30.00210015,,,,,,,,7,Ontime,long,j,1,1.9903,8,2,34,2,1,,,,,
,0.27,,,,,,,,,j,red,5f9f6e40ea7f965ca33bf97f,2021-09-27_13h18.22.419,forced_choiceRT_color,2021.2.3,Linux x86_64,30.00210015,,,,,,,,7,Slow,long,j,1,2.1303,8,3,35,2,1,,,,,
,1.03,,,,,,,,,d,orange,5f9f6e40ea7f965ca33bf97f,2021-09-27_13h18.22.419,forced_choiceRT_color,2021.2.3,Linux x86_64,30.00210015,,,,,,,,7,Ontime,long,d,1,2.0543,9,0,36,0,1,,,,,
,0.09,,,,,,,,,f,blue,5f9f6e40ea7f965ca33bf97f,2021-09-27_13h18.22.419,forced_choiceRT_color,2021.2.3,Linux x86_64,30.00210015,,,,,,,,7,Ontime,long,f,1,2.0832,9,1,37,1,1,,,,,
,1.81,,,,,,,,,k,purple,5f9f6e40ea7f965ca33bf97f,2021-09-27_13h18.22.419,forced_choiceRT_color,2021.2.3,Linux x86_64,30.00210015,,,,,,,,7,Ontime,long,j,0,2.0311,9,2,38,3,1,,,,,
,0.61,,,,,,,,,d,orange,5f9f6e40ea7f965ca33bf97f,2021-09-27_13h18.22.419,forced_choiceRT_color,2021.2.3,Linux x86_64,30.00210015,,,,,,,,7,Slow,long,d,1,2.1897,9,3,39,0,1,,,,,
,,,,,,,,,,,,5f9f6e40ea7f965ca33bf97f,2021-09-27_13h18.22.419,forced_choiceRT_color,2021.2.3,Linux x86_64,30.00210015,,,,,,,,,,,,,,,,,,,6,0,6,0,1
,1.92,,,,,,,,,j,red,5f9f6e40ea7f965ca33bf97f,2021-09-27_13h18.22.419,forced_choiceRT_color,2021.2.3,Linux x86_64,30.00210015,,,,,,,,8,Ontime,long,d,0,1.9852,0,0,0,2,1,,,,,
,0.84,,,,,,,,,k,purple,5f9f6e40ea7f965ca33bf97f,2021-09-27_13h18.22.419,forced_choiceRT_color,2021.2.3,Linux x86_64,30.00210015,,,,,,,,8,Ontime,long,k,1,1.938,0,1,1,3,1,,,,,
,0,,,,,,,,,j,red,5f9f6e40ea7f965ca33bf97f,2021-09-27_13h18.22.419,forced_choiceRT_color,2021.2.3,Linux x86_64,30.00210015,,,,,,,,8,Fast,long,j,1,1.879,0,2,2,2,1,,,,,
,1.48,,,,,,,,,d,orange,5f9f6e40ea7f965ca33bf97f,2021-09-27_13h18.22.419,forced_choiceRT_color,2021.2.3,Linux x86_64,30.00210015,,,,,,,,8,Slow,long,d,1,2.1192,0,3,3,0,1,,,,,
,1.34,,,,,,,,,f,blue,5f9f6e40ea7f965ca33bf97f,2021-09-27_13h18.22.419,forced_choiceRT_color,2021.2.3,Linux x86_64,30.00210015,,,,,,,,8,Ontime,long,f,1,2.0432,1,0,4,1,1,,,,,
,0.16,,,,,,,,,j,red,5f9f6e40ea7f965ca33bf97f,2021-09-27_13h18.22.419,forced_choiceRT_color,2021.2.3,Linux x86_64,30.00210015,,,,,,,,8,Ontime,long,j,1,1.9955,1,1,5,2,1,,,,,
,1.25,,,,,,,,,j,red,5f9f6e40ea7f965ca33bf97f,2021-09-27_13h18.22.419,forced_choiceRT_color,2021.2.3,Linux x86_64,30.00210015,,,,,,,,8,Fast,long,j,1,1.851,1,2,6,2,1,,,,,
,0.53,,,,,,,,,f,blue,5f9f6e40ea7f965ca33bf97f,2021-09-27_13h18.22.419,forced_choiceRT_color,2021.2.3,Linux x86_64,30.00210015,,,,,,,,8,Ontime,long,f,1,2.0613,1,3,7,1,1,,,,,
,0.23,,,,,,,,,k,purple,5f9f6e40ea7f965ca33bf97f,2021-09-27_13h18.22.419,forced_choiceRT_color,2021.2.3,Linux x86_64,30.00210015,,,,,,,,8,Ontime,long,k,1,2.0428,2,0,8,3,1,,,,,
,1.71,,,,,,,,,d,orange,5f9f6e40ea7f965ca33bf97f,2021-09-27_13h18.22.419,forced_choiceRT_color,2021.2.3,Linux x86_64,30.00210015,,,,,,,,8,Slow,long,k,0,2.1219,2,1,9,0,1,,,,,
,1.83,,,,,,,,,j,red,5f9f6e40ea7f965ca33bf97f,2021-09-27_13h18.22.419,forced_choiceRT_color,2021.2.3,Linux x86_64,30.00210015,,,,,,,,8,Slow,long,j,1,2.1365,2,2,10,2,1,,,,,
,1.96,,,,,,,,,f,blue,5f9f6e40ea7f965ca33bf97f,2021-09-27_13h18.22.419,forced_choiceRT_color,2021.2.3,Linux x86_64,30.00210015,,,,,,,,8,Ontime,long,k,0,1.9988,2,3,11,1,1,,,,,
,0.99,,,,,,,,,k,purple,5f9f6e40ea7f965ca33bf97f,2021-09-27_13h18.22.419,forced_choiceRT_color,2021.2.3,Linux x86_64,30.00210015,,,,,,,,8,Ontime,long,k,1,2.0916,3,0,12,3,1,,,,,
,1.36,,,,,,,,,k,purple,5f9f6e40ea7f965ca33bf97f,2021-09-27_13h18.22.419,forced_choiceRT_color,2021.2.3,Linux x86_64,30.00210015,,,,,,,,8,Slow,long,k,1,2.121,3,1,13,3,1,,,,,
,0.32,,,,,,,,,k,purple,5f9f6e40ea7f965ca33bf97f,2021-09-27_13h18.22.419,forced_choiceRT_color,2021.2.3,Linux x86_64,30.00210015,,,,,,,,8,Ontime,long,k,1,2.0372,3,2,14,3,1,,,,,
,1.56,,,,,,,,,f,blue,5f9f6e40ea7f965ca33bf97f,2021-09-27_13h18.22.419,forced_choiceRT_color,2021.2.3,Linux x86_64,30.00210015,,,,,,,,8,Ontime,long,k,0,2.0915,3,3,15,1,1,,,,,
,0.11,,,,,,,,,f,blue,5f9f6e40ea7f965ca33bf97f,2021-09-27_13h18.22.419,forced_choiceRT_color,2021.2.3,Linux x86_64,30.00210015,,,,,,,,8,Ontime,long,f,1,2.0725,4,0,16,1,1,,,,,
,0.13,,,,,,,,,j,red,5f9f6e40ea7f965ca33bf97f,2021-09-27_13h18.22.419,forced_choiceRT_color,2021.2.3,Linux x86_64,30.00210015,,,,,,,,8,Ontime,long,j,1,2.0529,4,1,17,2,1,,,,,
,0.09,,,,,,,,,d,orange,5f9f6e40ea7f965ca33bf97f,2021-09-27_13h18.22.419,forced_choiceRT_color,2021.2.3,Linux x86_64,30.00210015,,,,,,,,8,Ontime,long,d,1,2.0658,4,2,18,0,1,,,,,
,0.73,,,,,,,,,d,orange,5f9f6e40ea7f965ca33bf97f,2021-09-27_13h18.22.419,forced_choiceRT_color,2021.2.3,Linux x86_64,30.00210015,,,,,,,,8,Ontime,long,d,1,2.0073,4,3,19,0,1,,,,,
,0.08,,,,,,,,,k,purple,5f9f6e40ea7f965ca33bf97f,2021-09-27_13h18.22.419,forced_choiceRT_color,2021.2.3,Linux x86_64,30.00210015,,,,,,,,8,Ontime,long,k,1,2.0603,5,0,20,3,1,,,,,
,0.64,,,,,,,,,d,orange,5f9f6e40ea7f965ca33bf97f,2021-09-27_13h18.22.419,forced_choiceRT_color,2021.2.3,Linux x86_64,30.00210015,,,,,,,,8,Ontime,long,d,1,2.0127,5,1,21,0,1,,,,,
,0.44,,,,,,,,,d,orange,5f9f6e40ea7f965ca33bf97f,2021-09-27_13h18.22.419,forced_choiceRT_color,2021.2.3,Linux x86_64,30.00210015,,,,,,,,8,Ontime,long,d,1,2.0045,5,2,22,0,1,,,,,
,1.94,,,,,,,,,f,blue,5f9f6e40ea7f965ca33bf97f,2021-09-27_13h18.22.419,forced_choiceRT_color,2021.2.3,Linux x86_64,30.00210015,,,,,,,,8,Ontime,long,j,0,2.0119,5,3,23,1,1,,,,,
,1.33,,,,,,,,,k,purple,5f9f6e40ea7f965ca33bf97f,2021-09-27_13h18.22.419,forced_choiceRT_color,2021.2.3,Linux x86_64,30.00210015,,,,,,,,8,Slow,long,k,1,2.2143,6,0,24,3,1,,,,,
,1.35,,,,,,,,,j,red,5f9f6e40ea7f965ca33bf97f,2021-09-27_13h18.22.419,forced_choiceRT_color,2021.2.3,Linux x86_64,30.00210015,,,,,,,,8,Ontime,long,j,1,1.995,6,1,25,2,1,,,,,
,1.28,,,,,,,,,k,purple,5f9f6e40ea7f965ca33bf97f,2021-09-27_13h18.22.419,forced_choiceRT_color,2021.2.3,Linux x86_64,30.00210015,,,,,,,,8,Ontime,long,k,1,2.0452,6,2,26,3,1,,,,,
,1.13,,,,,,,,,f,blue,5f9f6e40ea7f965ca33bf97f,2021-09-27_13h18.22.419,forced_choiceRT_color,2021.2.3,Linux x86_64,30.00210015,,,,,,,,8,Ontime,long,f,1,2.0561,6,3,27,1,1,,,,,
,0.11,,,,,,,,,d,orange,5f9f6e40ea7f965ca33bf97f,2021-09-27_13h18.22.419,forced_choiceRT_color,2021.2.3,Linux x86_64,30.00210015,,,,,,,,8,Ontime,long,d,1,2.0227,7,0,28,0,1,,,,,
,0.55,,,,,,,,,j,red,5f9f6e40ea7f965ca33bf97f,2021-09-27_13h18.22.419,forced_choiceRT_color,2021.2.3,Linux x86_64,30.00210015,,,,,,,,8,Ontime,long,j,1,2.0598,7,1,29,2,1,,,,,
,1.61,,,,,,,,,j,red,5f9f6e40ea7f965ca33bf97f,2021-09-27_13h18.22.419,forced_choiceRT_color,2021.2.3,Linux x86_64,30.00210015,,,,,,,,8,Ontime,long,k,0,1.97,7,2,30,2,1,,,,,
,0.88,,,,,,,,,f,blue,5f9f6e40ea7f965ca33bf97f,2021-09-27_13h18.22.419,forced_choiceRT_color,2021.2.3,Linux x86_64,30.00210015,,,,,,,,8,Slow,long,f,1,2.1355,7,3,31,1,1,,,,,
,0.72,,,,,,,,,j,red,5f9f6e40ea7f965ca33bf97f,2021-09-27_13h18.22.419,forced_choiceRT_color,2021.2.3,Linux x86_64,30.00210015,,,,,,,,8,Ontime,long,j,1,1.9958,8,0,32,2,1,,,,,
,1.48,,,,,,,,,f,blue,5f9f6e40ea7f965ca33bf97f,2021-09-27_13h18.22.419,forced_choiceRT_color,2021.2.3,Linux x86_64,30.00210015,,,,,,,,8,Slow,long,f,1,2.1517,8,1,33,1,1,,,,,
,0.31,,,,,,,,,d,orange,5f9f6e40ea7f965ca33bf97f,2021-09-27_13h18.22.419,forced_choiceRT_color,2021.2.3,Linux x86_64,30.00210015,,,,,,,,8,Slow,long,d,1,2.1089,8,2,34,0,1,,,,,
,0.3,,,,,,,,,d,orange,5f9f6e40ea7f965ca33bf97f,2021-09-27_13h18.22.419,forced_choiceRT_color,2021.2.3,Linux x86_64,30.00210015,,,,,,,,8,Ontime,long,d,1,2.0194,8,3,35,0,1,,,,,
,0.27,,,,,,,,,k,purple,5f9f6e40ea7f965ca33bf97f,2021-09-27_13h18.22.419,forced_choiceRT_color,2021.2.3,Linux x86_64,30.00210015,,,,,,,,8,Ontime,long,k,1,2.0074,9,0,36,3,1,,,,,
,0.84,,,,,,,,,d,orange,5f9f6e40ea7f965ca33bf97f,2021-09-27_13h18.22.419,forced_choiceRT_color,2021.2.3,Linux x86_64,30.00210015,,,,,,,,8,Ontime,long,d,1,2.0811,9,1,37,0,1,,,,,
,1.61,,,,,,,,,k,purple,5f9f6e40ea7f965ca33bf97f,2021-09-27_13h18.22.419,forced_choiceRT_color,2021.2.3,Linux x86_64,30.00210015,,,,,,,,8,Slow,long,k,1,2.1591,9,2,38,3,1,,,,,
,1.87,,,,,,,,,f,blue,5f9f6e40ea7f965ca33bf97f,2021-09-27_13h18.22.419,forced_choiceRT_color,2021.2.3,Linux x86_64,30.00210015,,,,,,,,8,Slow,long,j,0,2.1526,9,3,39,1,1,,,,,
,,,,,,,,,,,,5f9f6e40ea7f965ca33bf97f,2021-09-27_13h18.22.419,forced_choiceRT_color,2021.2.3,Linux x86_64,30.00210015,,,,,,,,,,,,,,,,,,,7,0,7,0,1
,0.26,,,,,,,,,k,purple,5f9f6e40ea7f965ca33bf97f,2021-09-27_13h18.22.419,forced_choiceRT_color,2021.2.3,Linux x86_64,30.00210015,,,,,,,,9,Ontime,long,k,1,2.059,0,0,0,3,1,,,,,
,0.26,,,,,,,,,k,purple,5f9f6e40ea7f965ca33bf97f,2021-09-27_13h18.22.419,forced_choiceRT_color,2021.2.3,Linux x86_64,30.00210015,,,,,,,,9,Slow,long,d,0,2.1257,0,1,1,3,1,,,,,
,0.85,,,,,,,,,d,orange,5f9f6e40ea7f965ca33bf97f,2021-09-27_13h18.22.419,forced_choiceRT_color,2021.2.3,Linux x86_64,30.00210015,,,,,,,,9,Ontime,long,d,1,2.0247,0,2,2,0,1,,,,,
,1.66,,,,,,,,,f,blue,5f9f6e40ea7f965ca33bf97f,2021-09-27_13h18.22.419,forced_choiceRT_color,2021.2.3,Linux x86_64,30.00210015,,,,,,,,9,Slow,long,k,0,2.1645,0,3,3,1,1,,,,,
,1.49,,,,,,,,,d,orange,5f9f6e40ea7f965ca33bf97f,2021-09-27_13h18.22.419,forced_choiceRT_color,2021.2.3,Linux x86_64,30.00210015,,,,,,,,9,Ontime,long,f,0,2.0752,1,0,4,0,1,,,,,
,1.14,,,,,,,,,d,orange,5f9f6e40ea7f965ca33bf97f,2021-09-27_13h18.22.419,forced_choiceRT_color,2021.2.3,Linux x86_64,30.00210015,,,,,,,,9,Ontime,long,d,1,2.0144,1,1,5,0,1,,,,,
,0.16,,,,,,,,,d,orange,5f9f6e40ea7f965ca33bf97f,2021-09-27_13h18.22.419,forced_choiceRT_color,2021.2.3,Linux x86_64,30.00210015,,,,,,,,9,Ontime,long,d,1,2.0676,1,2,6,0,1,,,,,
,0.03,,,,,,,,,j,red,5f9f6e40ea7f965ca33bf97f,2021-09-27_13h18.22.419,forced_choiceRT_color,2021.2.3,Linux x86_64,30.00210015,,,,,,,,9,Ontime,long,j,1,2.0894,1,3,7,2,1,,,,,
,0.16,,,,,,,,,j,red,5f9f6e40ea7f965ca33bf97f,2021-09-27_13h18.22.419,forced_choiceRT_color,2021.2.3,Linux x86_64,30.00210015,,,,,,,,9,Slow,long,j,1,2.1219,2,0,8,2,1,,,,,
,1.81,,,,,,,,,k,purple,5f9f6e40ea7f965ca33bf97f,2021-09-27_13h18.22.419,forced_choiceRT_color,2021.2.3,Linux x86_64,30.00210015,,,,,,,,9,Ontime,long,j,0,2.0408,2,1,9,3,1,,,,,
,0.07,,,,,,,,,j,red,5f9f6e40ea7f965ca33bf97f,2021-09-27_13h18.22.419,forced_choiceRT_color,2021.2.3,Linux x86_64,30.00210015,,,,,,,,9,Ontime,long,j,1,2.0025,2,2,10,2,1,,,,,
,1.02,,,,,,,,,d,orange,5f9f6e40ea7f965ca33bf97f,2021-09-27_13h18.22.419,forced_choiceRT_color,2021.2.3,Linux x86_64,30.00210015,,,,,,,,9,Ontime,long,f,0,2.0861,2,3,11,0,1,,,,,
,1.94,,,,,,,,,d,orange,5f9f6e40ea7f965ca33bf97f,2021-09-27_13h18.22.419,forced_choiceRT_color,2021.2.3,Linux x86_64,30.00210015,,,,,,,,9,Ontime,long,k,0,1.9873,3,0,12,0,1,,,,,
,1.82,,,,,,,,,k,purple,5f9f6e40ea7f965ca33bf97f,2021-09-27_13h18.22.419,forced_choiceRT_color,2021.2.3,Linux x86_64,30.00210015,,,,,,,,9,Ontime,long,d,0,2.0145,3,1,13,3,1,,,,,
,0.15,,,,,,,,,j,red,5f9f6e40ea7f965ca33bf97f,2021-09-27_13h18.22.419,forced_choiceRT_color,2021.2.3,Linux x86_64,30.00210015,,,,,,,,9,Ontime,long,j,1,2.0712,3,2,14,2,1,,,,,
,0.42,,,,,,,,,k,purple,5f9f6e40ea7f965ca33bf97f,2021-09-27_13h18.22.419,forced_choiceRT_color,2021.2.3,Linux x86_64,30.00210015,,,,,,,,9,Ontime,long,k,1,2.0941,3,3,15,3,1,,,,,
,1.16,,,,,,,,,k,purple,5f9f6e40ea7f965ca33bf97f,2021-09-27_13h18.22.419,forced_choiceRT_color,2021.2.3,Linux x86_64,30.00210015,,,,,,,,9,Ontime,long,k,1,2.0289,4,0,16,3,1,,,,,
,0.28,,,,,,,,,d,orange,5f9f6e40ea7f965ca33bf97f,2021-09-27_13h18.22.419,forced_choiceRT_color,2021.2.3,Linux x86_64,30.00210015,,,,,,,,9,Ontime,long,d,1,2.0876,4,1,17,0,1,,,,,
,0.4,,,,,,,,,f,blue,5f9f6e40ea7f965ca33bf97f,2021-09-27_13h18.22.419,forced_choiceRT_color,2021.2.3,Linux x86_64,30.00210015,,,,,,,,9,Ontime,long,f,1,1.976,4,2,18,1,1,,,,,
,0.25,,,,,,,,,j,red,5f9f6e40ea7f965ca33bf97f,2021-09-27_13h18.22.419,forced_choiceRT_color,2021.2.3,Linux x86_64,30.00210015,,,,,,,,9,Ontime,long,j,1,2.0702,4,3,19,2,1,,,,,
,0.96,,,,,,,,,d,orange,5f9f6e40ea7f965ca33bf97f,2021-09-27_13h18.22.419,forced_choiceRT_color,2021.2.3,Linux x86_64,30.00210015,,,,,,,,9,Ontime,long,d,1,2.0697,5,0,20,0,1,,,,,
,0.65,,,,,,,,,f,blue,5f9f6e40ea7f965ca33bf97f,2021-09-27_13h18.22.419,forced_choiceRT_color,2021.2.3,Linux x86_64,30.00210015,,,,,,,,9,Ontime,long,f,1,2.0892,5,1,21,1,1,,,,,
,0.09,,,,,,,,,j,red,5f9f6e40ea7f965ca33bf97f,2021-09-27_13h18.22.419,forced_choiceRT_color,2021.2.3,Linux x86_64,30.00210015,,,,,,,,9,Ontime,long,j,1,2.0343,5,2,22,2,1,,,,,
,0.45,,,,,,,,,f,blue,5f9f6e40ea7f965ca33bf97f,2021-09-27_13h18.22.419,forced_choiceRT_color,2021.2.3,Linux x86_64,30.00210015,,,,,,,,9,Ontime,long,f,1,1.9474,5,3,23,1,1,,,,,
,0.73,,,,,,,,,j,red,5f9f6e40ea7f965ca33bf97f,2021-09-27_13h18.22.419,forced_choiceRT_color,2021.2.3,Linux x86_64,30.00210015,,,,,,,,9,Ontime,long,j,1,2.0642,6,0,24,2,1,,,,,
,1.99,,,,,,,,,f,blue,5f9f6e40ea7f965ca33bf97f,2021-09-27_13h18.22.419,forced_choiceRT_color,2021.2.3,Linux x86_64,30.00210015,,,,,,,,9,Ontime,long,j,0,2.0782,6,1,25,1,1,,,,,
,1.18,,,,,,,,,d,orange,5f9f6e40ea7f965ca33bf97f,2021-09-27_13h18.22.419,forced_choiceRT_color,2021.2.3,Linux x86_64,30.00210015,,,,,,,,9,Ontime,long,d,1,2.0751,6,2,26,0,1,,,,,
,1.4,,,,,,,,,f,blue,5f9f6e40ea7f965ca33bf97f,2021-09-27_13h18.22.419,forced_choiceRT_color,2021.2.3,Linux x86_64,30.00210015,,,,,,,,9,Ontime,long,f,1,2.0537,6,3,27,1,1,,,,,
,0.45,,,,,,,,,k,purple,5f9f6e40ea7f965ca33bf97f,2021-09-27_13h18.22.419,forced_choiceRT_color,2021.2.3,Linux x86_64,30.00210015,,,,,,,,9,Ontime,long,k,1,2.0779,7,0,28,3,1,,,,,
,1.83,,,,,,,,,j,red,5f9f6e40ea7f965ca33bf97f,2021-09-27_13h18.22.419,forced_choiceRT_color,2021.2.3,Linux x86_64,30.00210015,,,,,,,,9,Ontime,long,j,1,1.989,7,1,29,2,1,,,,,
,1.03,,,,,,,,,f,blue,5f9f6e40ea7f965ca33bf97f,2021-09-27_13h18.22.419,forced_choiceRT_color,2021.2.3,Linux x86_64,30.00210015,,,,,,,,9,Slow,long,f,1,2.1529,7,2,30,1,1,,,,,
,0.53,,,,,,,,,f,blue,5f9f6e40ea7f965ca33bf97f,2021-09-27_13h18.22.419,forced_choiceRT_color,2021.2.3,Linux x86_64,30.00210015,,,,,,,,9,Ontime,long,f,1,1.975,7,3,31,1,1,,,,,
,0.3,,,,,,,,,f,blue,5f9f6e40ea7f965ca33bf97f,2021-09-27_13h18.22.419,forced_choiceRT_color,2021.2.3,Linux x86_64,30.00210015,,,,,,,,9,Ontime,long,f,1,2.046,8,0,32,1,1,,,,,
,0.57,,,,,,,,,j,red,5f9f6e40ea7f965ca33bf97f,2021-09-27_13h18.22.419,forced_choiceRT_color,2021.2.3,Linux x86_64,30.00210015,,,,,,,,9,Slow,long,j,1,2.1047,8,1,33,2,1,,,,,
,0.26,,,,,,,,,f,blue,5f9f6e40ea7f965ca33bf97f,2021-09-27_13h18.22.419,forced_choiceRT_color,2021.2.3,Linux x86_64,30.00210015,,,,,,,,9,Ontime,long,f,1,2.0551,8,2,34,1,1,,,,,
,0.11,,,,,,,,,j,red,5f9f6e40ea7f965ca33bf97f,2021-09-27_13h18.22.419,forced_choiceRT_color,2021.2.3,Linux x86_64,30.00210015,,,,,,,,9,Slow,long,j,1,2.1189,8,3,35,2,1,,,,,
,1.83,,,,,,,,,k,purple,5f9f6e40ea7f965ca33bf97f,2021-09-27_13h18.22.419,forced_choiceRT_color,2021.2.3,Linux x86_64,30.00210015,,,,,,,,9,Ontime,long,k,1,2.0816,9,0,36,3,1,,,,,
,0.92,,,,,,,,,d,orange,5f9f6e40ea7f965ca33bf97f,2021-09-27_13h18.22.419,forced_choiceRT_color,2021.2.3,Linux x86_64,30.00210015,,,,,,,,9,Ontime,long,d,1,2.0507,9,1,37,0,1,,,,,
,0.1,,,,,,,,,k,purple,5f9f6e40ea7f965ca33bf97f,2021-09-27_13h18.22.419,forced_choiceRT_color,2021.2.3,Linux x86_64,30.00210015,,,,,,,,9,Ontime,long,k,1,2.082,9,2,38,3,1,,,,,
,0.81,,,,,,,,,k,purple,5f9f6e40ea7f965ca33bf97f,2021-09-27_13h18.22.419,forced_choiceRT_color,2021.2.3,Linux x86_64,30.00210015,,,,,,,,9,Ontime,long,k,1,2.0549,9,3,39,3,1,,,,,
,,,,,,,,,,,,5f9f6e40ea7f965ca33bf97f,2021-09-27_13h18.22.419,forced_choiceRT_color,2021.2.3,Linux x86_64,30.00210015,,,,,,,,,,,,,,,,,,,8,0,8,0,1
,1.2,,,,,,,,,f,blue,5f9f6e40ea7f965ca33bf97f,2021-09-27_13h18.22.419,forced_choiceRT_color,2021.2.3,Linux x86_64,30.00210015,,,,,,,,10,Ontime,long,f,1,2.0572,0,0,0,1,1,,,,,
,0.93,,,,,,,,,f,blue,5f9f6e40ea7f965ca33bf97f,2021-09-27_13h18.22.419,forced_choiceRT_color,2021.2.3,Linux x86_64,30.00210015,,,,,,,,10,Ontime,long,f,1,2.0004,0,1,1,1,1,,,,,
,1.5,,,,,,,,,k,purple,5f9f6e40ea7f965ca33bf97f,2021-09-27_13h18.22.419,forced_choiceRT_color,2021.2.3,Linux x86_64,30.00210015,,,,,,,,10,Ontime,long,k,1,2.0711,0,2,2,3,1,,,,,
,0.65,,,,,,,,,f,blue,5f9f6e40ea7f965ca33bf97f,2021-09-27_13h18.22.419,forced_choiceRT_color,2021.2.3,Linux x86_64,30.00210015,,,,,,,,10,Slow,long,f,1,2.1271,0,3,3,1,1,,,,,
,1.25,,,,,,,,,k,purple,5f9f6e40ea7f965ca33bf97f,2021-09-27_13h18.22.419,forced_choiceRT_color,2021.2.3,Linux x86_64,30.00210015,,,,,,,,10,Ontime,long,k,1,2.0406,1,0,4,3,1,,,,,
,1.75,,,,,,,,,d,orange,5f9f6e40ea7f965ca33bf97f,2021-09-27_13h18.22.419,forced_choiceRT_color,2021.2.3,Linux x86_64,30.00210015,,,,,,,,10,Slow,long,k,0,2.1376,1,1,5,0,1,,,,,
,1.97,,,,,,,,,j,red,5f9f6e40ea7f965ca33bf97f,2021-09-27_13h18.22.419,forced_choiceRT_color,2021.2.3,Linux x86_64,30.00210015,,,,,,,,10,Ontime,long,j,1,2.0438,1,2,6,2,1,,,,,
,0.64,,,,,,,,,d,orange,5f9f6e40ea7f965ca33bf97f,2021-09-27_13h18.22.419,forced_choiceRT_color,2021.2.3,Linux x86_64,30.00210015,,,,,,,,10,Ontime,long,d,1,2.036,1,3,7,0,1,,,,,
,0.97,,,,,,,,,f,blue,5f9f6e40ea7f965ca33bf97f,2021-09-27_13h18.22.419,forced_choiceRT_color,2021.2.3,Linux x86_64,30.00210015,,,,,,,,10,Ontime,long,f,1,2.0859,2,0,8,1,1,,,,,
,1.69,,,,,,,,,d,orange,5f9f6e40ea7f965ca33bf97f,2021-09-27_13h18.22.419,forced_choiceRT_color,2021.2.3,Linux x86_64,30.00210015,,,,,,,,10,Ontime,long,k,0,2.0364,2,1,9,0,1,,,,,
,0.42,,,,,,,,,j,red,5f9f6e40ea7f965ca33bf97f,2021-09-27_13h18.22.419,forced_choiceRT_color,2021.2.3,Linux x86_64,30.00210015,,,,,,,,10,Ontime,long,f,0,2.0216,2,2,10,2,1,,,,,
,1.39,,,,,,,,,j,red,5f9f6e40ea7f965ca33bf97f,2021-09-27_13h18.22.419,forced_choiceRT_color,2021.2.3,Linux x86_64,30.00210015,,,,,,,,10,Slow,long,j,1,2.1392,2,3,11,2,1,,,,,
,0.65,,,,,,,,,f,blue,5f9f6e40ea7f965ca33bf97f,2021-09-27_13h18.22.419,forced_choiceRT_color,2021.2.3,Linux x86_64,30.00210015,,,,,,,,10,Ontime,long,f,1,2.0852,3,0,12,1,1,,,,,
,1.74,,,,,,,,,d,orange,5f9f6e40ea7f965ca33bf97f,2021-09-27_13h18.22.419,forced_choiceRT_color,2021.2.3,Linux x86_64,30.00210015,,,,,,,,10,Ontime,long,k,0,2.0616,3,1,13,0,1,,,,,
,0.08,,,,,,,,,j,red,5f9f6e40ea7f965ca33bf97f,2021-09-27_13h18.22.419,forced_choiceRT_color,2021.2.3,Linux x86_64,30.00210015,,,,,,,,10,Ontime,long,j,1,2.0859,3,2,14,2,1,,,,,
,0.95,,,,,,,,,d,orange,5f9f6e40ea7f965ca33bf97f,2021-09-27_13h18.22.419,forced_choiceRT_color,2021.2.3,Linux x86_64,30.00210015,,,,,,,,10,Slow,long,f,0,2.1718,3,3,15,0,1,,,,,
,0.97,,,,,,,,,d,orange,5f9f6e40ea7f965ca33bf97f,2021-09-27_13h18.22.419,forced_choiceRT_color,2021.2.3,Linux x86_64,30.00210015,,,,,,,,10,Slow,long,f,0,2.148,4,0,16,0,1,,,,,
,0.64,,,,,,,,,d,orange,5f9f6e40ea7f965ca33bf97f,2021-09-27_13h18.22.419,forced_choiceRT_color,2021.2.3,Linux x86_64,30.00210015,,,,,,,,10,Ontime,long,d,1,2.0686,4,1,17,0,1,,,,,
,0.76,,,,,,,,,k,purple,5f9f6e40ea7f965ca33bf97f,2021-09-27_13h18.22.419,forced_choiceRT_color,2021.2.3,Linux x86_64,30.00210015,,,,,,,,10,Slow,long,k,1,2.1182,4,2,18,3,1,,,,,
,0.87,,,,,,,,,k,purple,5f9f6e40ea7f965ca33bf97f,2021-09-27_13h18.22.419,forced_choiceRT_color,2021.2.3,Linux x86_64,30.00210015,,,,,,,,10,Ontime,long,k,1,2.0395,4,3,19,3,1,,,,,
,1.86,,,,,,,,,j,red,5f9f6e40ea7f965ca33bf97f,2021-09-27_13h18.22.419,forced_choiceRT_color,2021.2.3,Linux x86_64,30.00210015,,,,,,,,10,Ontime,long,k,0,2.0266,5,0,20,2,1,,,,,
,0.71,,,,,,,,,k,purple,5f9f6e40ea7f965ca33bf97f,2021-09-27_13h18.22.419,forced_choiceRT_color,2021.2.3,Linux x86_64,30.00210015,,,,,,,,10,Fast,long,k,1,1.8607,5,1,21,3,1,,,,,
,1.33,,,,,,,,,d,orange,5f9f6e40ea7f965ca33bf97f,2021-09-27_13h18.22.419,forced_choiceRT_color,2021.2.3,Linux x86_64,30.00210015,,,,,,,,10,Ontime,long,d,1,2.0809,5,2,22,0,1,,,,,
,0.83,,,,,,,,,k,purple,5f9f6e40ea7f965ca33bf97f,2021-09-27_13h18.22.419,forced_choiceRT_color,2021.2.3,Linux x86_64,30.00210015,,,,,,,,10,Slow,long,d,0,2.1009,5,3,23,3,1,,,,,
,1.22,,,,,,,,,f,blue,5f9f6e40ea7f965ca33bf97f,2021-09-27_13h18.22.419,forced_choiceRT_color,2021.2.3,Linux x86_64,30.00210015,,,,,,,,10,Slow,long,f,1,2.1165,6,0,24,1,1,,,,,
,1.34,,,,,,,,,j,red,5f9f6e40ea7f965ca33bf97f,2021-09-27_13h18.22.419,forced_choiceRT_color,2021.2.3,Linux x86_64,30.00210015,,,,,,,,10,Ontime,long,j,1,2.0861,6,1,25,2,1,,,,,
,1.95,,,,,,,,,d,orange,5f9f6e40ea7f965ca33bf97f,2021-09-27_13h18.22.419,forced_choiceRT_color,2021.2.3,Linux x86_64,30.00210015,,,,,,,,10,Ontime,long,k,0,2.0424,6,2,26,0,1,,,,,
,0.75,,,,,,,,,j,red,5f9f6e40ea7f965ca33bf97f,2021-09-27_13h18.22.419,forced_choiceRT_color,2021.2.3,Linux x86_64,30.00210015,,,,,,,,10,Slow,long,j,1,2.1283,6,3,27,2,1,,,,,
,1.09,,,,,,,,,f,blue,5f9f6e40ea7f965ca33bf97f,2021-09-27_13h18.22.419,forced_choiceRT_color,2021.2.3,Linux x86_64,30.00210015,,,,,,,,10,Ontime,long,f,1,2.0274,7,0,28,1,1,,,,,
,1.21,,,,,,,,,j,red,5f9f6e40ea7f965ca33bf97f,2021-09-27_13h18.22.419,forced_choiceRT_color,2021.2.3,Linux x86_64,30.00210015,,,,,,,,10,Slow,long,j,1,2.103,7,1,29,2,1,,,,,
,0.84,,,,,,,,,f,blue,5f9f6e40ea7f965ca33bf97f,2021-09-27_13h18.22.419,forced_choiceRT_color,2021.2.3,Linux x86_64,30.00210015,,,,,,,,10,Ontime,long,f,1,2.0919,7,2,30,1,1,,,,,
,0.08,,,,,,,,,k,purple,5f9f6e40ea7f965ca33bf97f,2021-09-27_13h18.22.419,forced_choiceRT_color,2021.2.3,Linux x86_64,30.00210015,,,,,,,,10,Ontime,long,k,1,2.0533,7,3,31,3,1,,,,,
,0.52,,,,,,,,,f,blue,5f9f6e40ea7f965ca33bf97f,2021-09-27_13h18.22.419,forced_choiceRT_color,2021.2.3,Linux x86_64,30.00210015,,,,,,,,10,Ontime,long,f,1,2.0886,8,0,32,1,1,,,,,
,1.54,,,,,,,,,k,purple,5f9f6e40ea7f965ca33bf97f,2021-09-27_13h18.22.419,forced_choiceRT_color,2021.2.3,Linux x86_64,30.00210015,,,,,,,,10,Slow,long,k,1,2.1497,8,1,33,3,1,,,,,
,0.98,,,,,,,,,k,purple,5f9f6e40ea7f965ca33bf97f,2021-09-27_13h18.22.419,forced_choiceRT_color,2021.2.3,Linux x86_64,30.00210015,,,,,,,,10,Ontime,long,k,1,2.0579,8,2,34,3,1,,,,,
,1.12,,,,,,,,,j,red,5f9f6e40ea7f965ca33bf97f,2021-09-27_13h18.22.419,forced_choiceRT_color,2021.2.3,Linux x86_64,30.00210015,,,,,,,,10,Slow,long,j,1,2.1361,8,3,35,2,1,,,,,
,0.9,,,,,,,,,d,orange,5f9f6e40ea7f965ca33bf97f,2021-09-27_13h18.22.419,forced_choiceRT_color,2021.2.3,Linux x86_64,30.00210015,,,,,,,,10,Ontime,long,d,1,2.0916,9,0,36,0,1,,,,,
,1.66,,,,,,,,,f,blue,5f9f6e40ea7f965ca33bf97f,2021-09-27_13h18.22.419,forced_choiceRT_color,2021.2.3,Linux x86_64,30.00210015,,,,,,,,10,Slow,long,j,0,2.1875,9,1,37,1,1,,,,,
,1.17,,,,,,,,,j,red,5f9f6e40ea7f965ca33bf97f,2021-09-27_13h18.22.419,forced_choiceRT_color,2021.2.3,Linux x86_64,30.00210015,,,,,,,,10,Ontime,long,j,1,2.0952,9,2,38,2,1,,,,,
,0.99,,,,,,,,,k,purple,5f9f6e40ea7f965ca33bf97f,2021-09-27_13h18.22.419,forced_choiceRT_color,2021.2.3,Linux x86_64,30.00210015,,,,,,,,10,Ontime,long,k,1,2.0478,9,3,39,3,1,,,,,
,,,,,,,,,,,,5f9f6e40ea7f965ca33bf97f,2021-09-27_13h18.22.419,forced_choiceRT_color,2021.2.3,Linux x86_64,30.00210015,,,,,,,,,,,,,,,,,,,9,0,9,0,1
