IP_Addresss,target_onset,trial_resp_sp.keys,trial_resp_sp.corr,trial_resp_sp.rt,trials_train_loop.thisRepN,trials_train_loop.thisTrialN,trials_train_loop.thisN,trials_train_loop.thisIndex,trials_train_loop.ran,correct_key,color,participant,date,expName,psychopyVersion,OS,frameRate,trial_resp_timing.keys,trial_resp_timing.rt,trials_train_timing.thisRepN,trials_train_timing.thisTrialN,trials_train_timing.thisN,trials_train_timing.thisIndex,trials_train_timing.ran,block_id,ontime,feedback_cond,forcedRT_resp.keys,forcedRT_resp.corr,forcedRT_resp.rt,trials.thisRepN,trials.thisTrialN,trials.thisN,trials.thisIndex,trials.ran,blocks.thisRepN,blocks.thisTrialN,blocks.thisN,blocks.thisIndex,blocks.ran
70.168.89.174,0,k,1,2.4381,0,0,0,3,1,k,purple,5fa4ce917648f90008a584ab,2021-10-22_11h07.35.954,forced_choiceRT_color,2021.2.3,Win32,60.0024001,,,,,,,,,,,,,,,,,,,,,,,
,0,j,1,0.9349,0,1,1,2,1,j,red,5fa4ce917648f90008a584ab,2021-10-22_11h07.35.954,forced_choiceRT_color,2021.2.3,Win32,60.0024001,,,,,,,,,,,,,,,,,,,,,,,
,0,k,1,1.0191,0,2,2,3,1,k,purple,5fa4ce917648f90008a584ab,2021-10-22_11h07.35.954,forced_choiceRT_color,2021.2.3,Win32,60.0024001,,,,,,,,,,,,,,,,,,,,,,,
,0,f,1,0.9874,0,3,3,1,1,f,blue,5fa4ce917648f90008a584ab,2021-10-22_11h07.35.954,forced_choiceRT_color,2021.2.3,Win32,60.0024001,,,,,,,,,,,,,,,,,,,,,,,
,0,d,1,0.498,1,0,4,0,1,d,orange,5fa4ce917648f90008a584ab,2021-10-22_11h07.35.954,forced_choiceRT_color,2021.2.3,Win32,60.0024001,,,,,,,,,,,,,,,,,,,,,,,
,0,j,1,0.7084,1,1,5,2,1,j,red,5fa4ce917648f90008a584ab,2021-10-22_11h07.35.954,forced_choiceRT_color,2021.2.3,Win32,60.0024001,,,,,,,,,,,,,,,,,,,,,,,
,0,d,1,1.0401,1,2,6,0,1,d,orange,5fa4ce917648f90008a584ab,2021-10-22_11h07.35.954,forced_choiceRT_color,2021.2.3,Win32,60.0024001,,,,,,,,,,,,,,,,,,,,,,,
,0,f,1,0.5478,1,3,7,1,1,f,blue,5fa4ce917648f90008a584ab,2021-10-22_11h07.35.954,forced_choiceRT_color,2021.2.3,Win32,60.0024001,,,,,,,,,,,,,,,,,,,,,,,
,0,j,1,0.747,2,0,8,2,1,j,red,5fa4ce917648f90008a584ab,2021-10-22_11h07.35.954,forced_choiceRT_color,2021.2.3,Win32,60.0024001,,,,,,,,,,,,,,,,,,,,,,,
,0,f,1,0.8197,2,1,9,1,1,f,blue,5fa4ce917648f90008a584ab,2021-10-22_11h07.35.954,forced_choiceRT_color,2021.2.3,Win32,60.0024001,,,,,,,,,,,,,,,,,,,,,,,
,0,k,1,0.5717,2,2,10,3,1,k,purple,5fa4ce917648f90008a584ab,2021-10-22_11h07.35.954,forced_choiceRT_color,2021.2.3,Win32,60.0024001,,,,,,,,,,,,,,,,,,,,,,,
,0,k,1,0.6089,2,3,11,3,1,k,purple,5fa4ce917648f90008a584ab,2021-10-22_11h07.35.954,forced_choiceRT_color,2021.2.3,Win32,60.0024001,,,,,,,,,,,,,,,,,,,,,,,
,0,j,1,0.5149,3,0,12,2,1,j,red,5fa4ce917648f90008a584ab,2021-10-22_11h07.35.954,forced_choiceRT_color,2021.2.3,Win32,60.0024001,,,,,,,,,,,,,,,,,,,,,,,
,0,f,1,0.4396,3,1,13,1,1,f,blue,5fa4ce917648f90008a584ab,2021-10-22_11h07.35.954,forced_choiceRT_color,2021.2.3,Win32,60.0024001,,,,,,,,,,,,,,,,,,,,,,,
,0,d,1,0.3214,3,2,14,0,1,d,orange,5fa4ce917648f90008a584ab,2021-10-22_11h07.35.954,forced_choiceRT_color,2021.2.3,Win32,60.0024001,,,,,,,,,,,,,,,,,,,,,,,
,0,j,1,0.9476,3,3,15,2,1,j,red,5fa4ce917648f90008a584ab,2021-10-22_11h07.35.954,forced_choiceRT_color,2021.2.3,Win32,60.0024001,,,,,,,,,,,,,,,,,,,,,,,
,0,f,1,0.6757,4,0,16,1,1,f,blue,5fa4ce917648f90008a584ab,2021-10-22_11h07.35.954,forced_choiceRT_color,2021.2.3,Win32,60.0024001,,,,,,,,,,,,,,,,,,,,,,,
,0,j,1,0.5977,4,1,17,2,1,j,red,5fa4ce917648f90008a584ab,2021-10-22_11h07.35.954,forced_choiceRT_color,2021.2.3,Win32,60.0024001,,,,,,,,,,,,,,,,,,,,,,,
,0,j,1,1.7498,4,2,18,2,1,j,red,5fa4ce917648f90008a584ab,2021-10-22_11h07.35.954,forced_choiceRT_color,2021.2.3,Win32,60.0024001,,,,,,,,,,,,,,,,,,,,,,,
,0,d,1,0.6977,4,3,19,0,1,d,orange,5fa4ce917648f90008a584ab,2021-10-22_11h07.35.954,forced_choiceRT_color,2021.2.3,Win32,60.0024001,,,,,,,,,,,,,,,,,,,,,,,
,0,d,1,0.4862,5,0,20,0,1,d,orange,5fa4ce917648f90008a584ab,2021-10-22_11h07.35.954,forced_choiceRT_color,2021.2.3,Win32,60.0024001,,,,,,,,,,,,,,,,,,,,,,,
,0,f,1,0.4975,5,1,21,1,1,f,blue,5fa4ce917648f90008a584ab,2021-10-22_11h07.35.954,forced_choiceRT_color,2021.2.3,Win32,60.0024001,,,,,,,,,,,,,,,,,,,,,,,
,0,k,1,0.6129,5,2,22,3,1,k,purple,5fa4ce917648f90008a584ab,2021-10-22_11h07.35.954,forced_choiceRT_color,2021.2.3,Win32,60.0024001,,,,,,,,,,,,,,,,,,,,,,,
,0,d,1,0.6481,5,3,23,0,1,d,orange,5fa4ce917648f90008a584ab,2021-10-22_11h07.35.954,forced_choiceRT_color,2021.2.3,Win32,60.0024001,,,,,,,,,,,,,,,,,,,,,,,
,0,f,1,0.7563,6,0,24,1,1,f,blue,5fa4ce917648f90008a584ab,2021-10-22_11h07.35.954,forced_choiceRT_color,2021.2.3,Win32,60.0024001,,,,,,,,,,,,,,,,,,,,,,,
,0,d,1,0.6394,6,1,25,0,1,d,orange,5fa4ce917648f90008a584ab,2021-10-22_11h07.35.954,forced_choiceRT_color,2021.2.3,Win32,60.0024001,,,,,,,,,,,,,,,,,,,,,,,
,0,j,1,0.6259,6,2,26,2,1,j,red,5fa4ce917648f90008a584ab,2021-10-22_11h07.35.954,forced_choiceRT_color,2021.2.3,Win32,60.0024001,,,,,,,,,,,,,,,,,,,,,,,
,0,f,1,1.154,6,3,27,1,1,f,blue,5fa4ce917648f90008a584ab,2021-10-22_11h07.35.954,forced_choiceRT_color,2021.2.3,Win32,60.0024001,,,,,,,,,,,,,,,,,,,,,,,
,0,d,1,1.1185,7,0,28,0,1,d,orange,5fa4ce917648f90008a584ab,2021-10-22_11h07.35.954,forced_choiceRT_color,2021.2.3,Win32,60.0024001,,,,,,,,,,,,,,,,,,,,,,,
,0,k,1,0.6842,7,1,29,3,1,k,purple,5fa4ce917648f90008a584ab,2021-10-22_11h07.35.954,forced_choiceRT_color,2021.2.3,Win32,60.0024001,,,,,,,,,,,,,,,,,,,,,,,
,0,k,1,0.5715,7,2,30,3,1,k,purple,5fa4ce917648f90008a584ab,2021-10-22_11h07.35.954,forced_choiceRT_color,2021.2.3,Win32,60.0024001,,,,,,,,,,,,,,,,,,,,,,,
,0,f,1,1.0859,7,3,31,1,1,f,blue,5fa4ce917648f90008a584ab,2021-10-22_11h07.35.954,forced_choiceRT_color,2021.2.3,Win32,60.0024001,,,,,,,,,,,,,,,,,,,,,,,
,0,k,1,0.6528,8,0,32,3,1,k,purple,5fa4ce917648f90008a584ab,2021-10-22_11h07.35.954,forced_choiceRT_color,2021.2.3,Win32,60.0024001,,,,,,,,,,,,,,,,,,,,,,,
,0,j,1,0.7183,8,1,33,2,1,j,red,5fa4ce917648f90008a584ab,2021-10-22_11h07.35.954,forced_choiceRT_color,2021.2.3,Win32,60.0024001,,,,,,,,,,,,,,,,,,,,,,,
,0,d,1,0.6357,8,2,34,0,1,d,orange,5fa4ce917648f90008a584ab,2021-10-22_11h07.35.954,forced_choiceRT_color,2021.2.3,Win32,60.0024001,,,,,,,,,,,,,,,,,,,,,,,
,0,d,1,0.5711,8,3,35,0,1,d,orange,5fa4ce917648f90008a584ab,2021-10-22_11h07.35.954,forced_choiceRT_color,2021.2.3,Win32,60.0024001,,,,,,,,,,,,,,,,,,,,,,,
,0,j,1,0.5742,9,0,36,2,1,j,red,5fa4ce917648f90008a584ab,2021-10-22_11h07.35.954,forced_choiceRT_color,2021.2.3,Win32,60.0024001,,,,,,,,,,,,,,,,,,,,,,,
,0,k,1,0.6422,9,1,37,3,1,k,purple,5fa4ce917648f90008a584ab,2021-10-22_11h07.35.954,forced_choiceRT_color,2021.2.3,Win32,60.0024001,,,,,,,,,,,,,,,,,,,,,,,
,0,f,1,0.6149,9,2,38,1,1,f,blue,5fa4ce917648f90008a584ab,2021-10-22_11h07.35.954,forced_choiceRT_color,2021.2.3,Win32,60.0024001,,,,,,,,,,,,,,,,,,,,,,,
,0,j,1,0.7729,9,3,39,2,1,j,red,5fa4ce917648f90008a584ab,2021-10-22_11h07.35.954,forced_choiceRT_color,2021.2.3,Win32,60.0024001,,,,,,,,,,,,,,,,,,,,,,,
,0,f,1,0.6398,10,0,40,1,1,f,blue,5fa4ce917648f90008a584ab,2021-10-22_11h07.35.954,forced_choiceRT_color,2021.2.3,Win32,60.0024001,,,,,,,,,,,,,,,,,,,,,,,
,0,f,1,0.5151,10,1,41,1,1,f,blue,5fa4ce917648f90008a584ab,2021-10-22_11h07.35.954,forced_choiceRT_color,2021.2.3,Win32,60.0024001,,,,,,,,,,,,,,,,,,,,,,,
,0,d,1,0.5192,10,2,42,0,1,d,orange,5fa4ce917648f90008a584ab,2021-10-22_11h07.35.954,forced_choiceRT_color,2021.2.3,Win32,60.0024001,,,,,,,,,,,,,,,,,,,,,,,
,0,k,1,0.6042,10,3,43,3,1,k,purple,5fa4ce917648f90008a584ab,2021-10-22_11h07.35.954,forced_choiceRT_color,2021.2.3,Win32,60.0024001,,,,,,,,,,,,,,,,,,,,,,,
,0,f,1,1.006,11,0,44,1,1,f,blue,5fa4ce917648f90008a584ab,2021-10-22_11h07.35.954,forced_choiceRT_color,2021.2.3,Win32,60.0024001,,,,,,,,,,,,,,,,,,,,,,,
,0,f,1,0.418,11,1,45,1,1,f,blue,5fa4ce917648f90008a584ab,2021-10-22_11h07.35.954,forced_choiceRT_color,2021.2.3,Win32,60.0024001,,,,,,,,,,,,,,,,,,,,,,,
,0,j,1,0.5695,11,2,46,2,1,j,red,5fa4ce917648f90008a584ab,2021-10-22_11h07.35.954,forced_choiceRT_color,2021.2.3,Win32,60.0024001,,,,,,,,,,,,,,,,,,,,,,,
,0,f,1,0.6854,11,3,47,1,1,f,blue,5fa4ce917648f90008a584ab,2021-10-22_11h07.35.954,forced_choiceRT_color,2021.2.3,Win32,60.0024001,,,,,,,,,,,,,,,,,,,,,,,
,0,j,1,1.0855,12,0,48,2,1,j,red,5fa4ce917648f90008a584ab,2021-10-22_11h07.35.954,forced_choiceRT_color,2021.2.3,Win32,60.0024001,,,,,,,,,,,,,,,,,,,,,,,
,0,d,1,0.603,12,1,49,0,1,d,orange,5fa4ce917648f90008a584ab,2021-10-22_11h07.35.954,forced_choiceRT_color,2021.2.3,Win32,60.0024001,,,,,,,,,,,,,,,,,,,,,,,
,0,j,1,0.6046,12,2,50,2,1,j,red,5fa4ce917648f90008a584ab,2021-10-22_11h07.35.954,forced_choiceRT_color,2021.2.3,Win32,60.0024001,,,,,,,,,,,,,,,,,,,,,,,
,0,k,1,0.6873,12,3,51,3,1,k,purple,5fa4ce917648f90008a584ab,2021-10-22_11h07.35.954,forced_choiceRT_color,2021.2.3,Win32,60.0024001,,,,,,,,,,,,,,,,,,,,,,,
,0,d,1,0.5577,13,0,52,0,1,d,orange,5fa4ce917648f90008a584ab,2021-10-22_11h07.35.954,forced_choiceRT_color,2021.2.3,Win32,60.0024001,,,,,,,,,,,,,,,,,,,,,,,
,0,k,1,0.5144,13,1,53,3,1,k,purple,5fa4ce917648f90008a584ab,2021-10-22_11h07.35.954,forced_choiceRT_color,2021.2.3,Win32,60.0024001,,,,,,,,,,,,,,,,,,,,,,,
,0,k,1,0.4883,13,2,54,3,1,k,purple,5fa4ce917648f90008a584ab,2021-10-22_11h07.35.954,forced_choiceRT_color,2021.2.3,Win32,60.0024001,,,,,,,,,,,,,,,,,,,,,,,
,0,k,1,0.5316,13,3,55,3,1,k,purple,5fa4ce917648f90008a584ab,2021-10-22_11h07.35.954,forced_choiceRT_color,2021.2.3,Win32,60.0024001,,,,,,,,,,,,,,,,,,,,,,,
,0,k,1,0.484,14,0,56,3,1,k,purple,5fa4ce917648f90008a584ab,2021-10-22_11h07.35.954,forced_choiceRT_color,2021.2.3,Win32,60.0024001,,,,,,,,,,,,,,,,,,,,,,,
,0,d,1,0.5869,14,1,57,0,1,d,orange,5fa4ce917648f90008a584ab,2021-10-22_11h07.35.954,forced_choiceRT_color,2021.2.3,Win32,60.0024001,,,,,,,,,,,,,,,,,,,,,,,
,0,d,1,0.3185,14,2,58,0,1,d,orange,5fa4ce917648f90008a584ab,2021-10-22_11h07.35.954,forced_choiceRT_color,2021.2.3,Win32,60.0024001,,,,,,,,,,,,,,,,,,,,,,,
,0,j,1,0.5722,14,3,59,2,1,j,red,5fa4ce917648f90008a584ab,2021-10-22_11h07.35.954,forced_choiceRT_color,2021.2.3,Win32,60.0024001,,,,,,,,,,,,,,,,,,,,,,,
,,,,,,,,,,,,5fa4ce917648f90008a584ab,2021-10-22_11h07.35.954,forced_choiceRT_color,2021.2.3,Win32,60.0024001,f,2.2925,0,0,0,0,1,,,,,,,,,,,,,,,,
,,,,,,,,,,,,5fa4ce917648f90008a584ab,2021-10-22_11h07.35.954,forced_choiceRT_color,2021.2.3,Win32,60.0024001,f,1.4491,1,0,1,0,1,,,,,,,,,,,,,,,,
,,,,,,,,,,,,5fa4ce917648f90008a584ab,2021-10-22_11h07.35.954,forced_choiceRT_color,2021.2.3,Win32,60.0024001,f,2.1499,2,0,2,0,1,,,,,,,,,,,,,,,,
,,,,,,,,,,,,5fa4ce917648f90008a584ab,2021-10-22_11h07.35.954,forced_choiceRT_color,2021.2.3,Win32,60.0024001,f,1.7496,3,0,3,0,1,,,,,,,,,,,,,,,,
,,,,,,,,,,,,5fa4ce917648f90008a584ab,2021-10-22_11h07.35.954,forced_choiceRT_color,2021.2.3,Win32,60.0024001,f,1.8693,4,0,4,0,1,,,,,,,,,,,,,,,,
,,,,,,,,,,,,5fa4ce917648f90008a584ab,2021-10-22_11h07.35.954,forced_choiceRT_color,2021.2.3,Win32,60.0024001,f,2.1954,5,0,5,0,1,,,,,,,,,,,,,,,,
,,,,,,,,,,,,5fa4ce917648f90008a584ab,2021-10-22_11h07.35.954,forced_choiceRT_color,2021.2.3,Win32,60.0024001,k,2.2163,6,0,6,0,1,,,,,,,,,,,,,,,,
,,,,,,,,,,,,5fa4ce917648f90008a584ab,2021-10-22_11h07.35.954,forced_choiceRT_color,2021.2.3,Win32,60.0024001,k,1.9436,7,0,7,0,1,,,,,,,,,,,,,,,,
,,,,,,,,,,,,5fa4ce917648f90008a584ab,2021-10-22_11h07.35.954,forced_choiceRT_color,2021.2.3,Win32,60.0024001,j,1.7959,8,0,8,0,1,,,,,,,,,,,,,,,,
,,,,,,,,,,,,5fa4ce917648f90008a584ab,2021-10-22_11h07.35.954,forced_choiceRT_color,2021.2.3,Win32,60.0024001,k,1.9722,9,0,9,0,1,,,,,,,,,,,,,,,,
,,,,,,,,,,,,5fa4ce917648f90008a584ab,2021-10-22_11h07.35.954,forced_choiceRT_color,2021.2.3,Win32,60.0024001,j,2.0327,10,0,10,0,1,,,,,,,,,,,,,,,,
,,,,,,,,,,,,5fa4ce917648f90008a584ab,2021-10-22_11h07.35.954,forced_choiceRT_color,2021.2.3,Win32,60.0024001,f,1.9734,11,0,11,0,1,,,,,,,,,,,,,,,,
,,,,,,,,,,,,5fa4ce917648f90008a584ab,2021-10-22_11h07.35.954,forced_choiceRT_color,2021.2.3,Win32,60.0024001,d,2.0007,12,0,12,0,1,,,,,,,,,,,,,,,,
,,,,,,,,,,,,5fa4ce917648f90008a584ab,2021-10-22_11h07.35.954,forced_choiceRT_color,2021.2.3,Win32,60.0024001,j,1.8457,13,0,13,0,1,,,,,,,,,,,,,,,,
,,,,,,,,,,,,5fa4ce917648f90008a584ab,2021-10-22_11h07.35.954,forced_choiceRT_color,2021.2.3,Win32,60.0024001,k,1.9911,14,0,14,0,1,,,,,,,,,,,,,,,,
,,,,,,,,,,,,5fa4ce917648f90008a584ab,2021-10-22_11h07.35.954,forced_choiceRT_color,2021.2.3,Win32,60.0024001,f,2.1492,15,0,15,0,1,,,,,,,,,,,,,,,,
,,,,,,,,,,,,5fa4ce917648f90008a584ab,2021-10-22_11h07.35.954,forced_choiceRT_color,2021.2.3,Win32,60.0024001,f,1.924,16,0,16,0,1,,,,,,,,,,,,,,,,
,,,,,,,,,,,,5fa4ce917648f90008a584ab,2021-10-22_11h07.35.954,forced_choiceRT_color,2021.2.3,Win32,60.0024001,d,1.8371,17,0,17,0,1,,,,,,,,,,,,,,,,
,,,,,,,,,,,,5fa4ce917648f90008a584ab,2021-10-22_11h07.35.954,forced_choiceRT_color,2021.2.3,Win32,60.0024001,d,1.8877,18,0,18,0,1,,,,,,,,,,,,,,,,
,,,,,,,,,,,,5fa4ce917648f90008a584ab,2021-10-22_11h07.35.954,forced_choiceRT_color,2021.2.3,Win32,60.0024001,d,1.9499,19,0,19,0,1,,,,,,,,,,,,,,,,
,0.88,,,,,,,,,j,red,5fa4ce917648f90008a584ab,2021-10-22_11h07.35.954,forced_choiceRT_color,2021.2.3,Win32,60.0024001,,,,,,,,1,Fast,short,j,1,1.3019,0,0,0,2,1,,,,,
,0.81,,,,,,,,,d,orange,5fa4ce917648f90008a584ab,2021-10-22_11h07.35.954,forced_choiceRT_color,2021.2.3,Win32,60.0024001,,,,,,,,1,Fast,short,d,1,1.7338,0,1,1,0,1,,,,,
,1.33,,,,,,,,,j,red,5fa4ce917648f90008a584ab,2021-10-22_11h07.35.954,forced_choiceRT_color,2021.2.3,Win32,60.0024001,,,,,,,,1,Ontime,short,j,1,2.0428,0,2,2,2,1,,,,,
,0.59,,,,,,,,,d,orange,5fa4ce917648f90008a584ab,2021-10-22_11h07.35.954,forced_choiceRT_color,2021.2.3,Win32,60.0024001,,,,,,,,1,Fast,short,d,1,1.7536,0,3,3,0,1,,,,,
,1.78,,,,,,,,,f,blue,5fa4ce917648f90008a584ab,2021-10-22_11h07.35.954,forced_choiceRT_color,2021.2.3,Win32,60.0024001,,,,,,,,1,Slow,short,f,1,3.739,1,0,4,1,1,,,,,
,0.78,,,,,,,,,d,orange,5fa4ce917648f90008a584ab,2021-10-22_11h07.35.954,forced_choiceRT_color,2021.2.3,Win32,60.0024001,,,,,,,,1,Fast,short,d,1,1.3862,1,1,5,0,1,,,,,
,1.19,,,,,,,,,k,purple,5fa4ce917648f90008a584ab,2021-10-22_11h07.35.954,forced_choiceRT_color,2021.2.3,Win32,60.0024001,,,,,,,,1,Slow,short,k,1,2.1066,1,2,6,3,1,,,,,
,1.2,,,,,,,,,k,purple,5fa4ce917648f90008a584ab,2021-10-22_11h07.35.954,forced_choiceRT_color,2021.2.3,Win32,60.0024001,,,,,,,,1,Slow,short,k,1,2.1095,1,3,7,3,1,,,,,
,0.43,,,,,,,,,f,blue,5fa4ce917648f90008a584ab,2021-10-22_11h07.35.954,forced_choiceRT_color,2021.2.3,Win32,60.0024001,,,,,,,,1,Slow,short,f,1,2.1166,2,0,8,1,1,,,,,
,1.23,,,,,,,,,k,purple,5fa4ce917648f90008a584ab,2021-10-22_11h07.35.954,forced_choiceRT_color,2021.2.3,Win32,60.0024001,,,,,,,,1,Slow,short,k,1,2.1322,2,1,9,3,1,,,,,
,0.92,,,,,,,,,d,orange,5fa4ce917648f90008a584ab,2021-10-22_11h07.35.954,forced_choiceRT_color,2021.2.3,Win32,60.0024001,,,,,,,,1,Ontime,short,d,1,1.916,2,2,10,0,1,,,,,
,0.75,,,,,,,,,k,purple,5fa4ce917648f90008a584ab,2021-10-22_11h07.35.954,forced_choiceRT_color,2021.2.3,Win32,60.0024001,,,,,,,,1,Fast,short,k,1,1.4666,2,3,11,3,1,,,,,
,1.26,,,,,,,,,f,blue,5fa4ce917648f90008a584ab,2021-10-22_11h07.35.954,forced_choiceRT_color,2021.2.3,Win32,60.0024001,,,,,,,,1,Fast,short,f,1,1.85,3,0,12,1,1,,,,,
,0.68,,,,,,,,,k,purple,5fa4ce917648f90008a584ab,2021-10-22_11h07.35.954,forced_choiceRT_color,2021.2.3,Win32,60.0024001,,,,,,,,1,Fast,short,k,1,1.8657,3,1,13,3,1,,,,,
,1.36,,,,,,,,,j,red,5fa4ce917648f90008a584ab,2021-10-22_11h07.35.954,forced_choiceRT_color,2021.2.3,Win32,60.0024001,,,,,,,,1,Slow,short,j,1,2.1194,3,2,14,2,1,,,,,
,1.27,,,,,,,,,f,blue,5fa4ce917648f90008a584ab,2021-10-22_11h07.35.954,forced_choiceRT_color,2021.2.3,Win32,60.0024001,,,,,,,,1,Fast,short,d,0,1.7997,3,3,15,1,1,,,,,
,0.11,,,,,,,,,k,purple,5fa4ce917648f90008a584ab,2021-10-22_11h07.35.954,forced_choiceRT_color,2021.2.3,Win32,60.0024001,,,,,,,,1,Fast,short,k,1,1.7712,4,0,16,3,1,,,,,
,0.37,,,,,,,,,j,red,5fa4ce917648f90008a584ab,2021-10-22_11h07.35.954,forced_choiceRT_color,2021.2.3,Win32,60.0024001,,,,,,,,1,Fast,short,j,1,1.7252,4,1,17,2,1,,,,,
,0.93,,,,,,,,,k,purple,5fa4ce917648f90008a584ab,2021-10-22_11h07.35.954,forced_choiceRT_color,2021.2.3,Win32,60.0024001,,,,,,,,1,Ontime,short,k,1,1.9379,4,2,18,3,1,,,,,
,0.86,,,,,,,,,f,blue,5fa4ce917648f90008a584ab,2021-10-22_11h07.35.954,forced_choiceRT_color,2021.2.3,Win32,60.0024001,,,,,,,,1,Slow,short,j,0,7.5874,4,3,19,1,1,,,,,
,1.29,,,,,,,,,f,blue,5fa4ce917648f90008a584ab,2021-10-22_11h07.35.954,forced_choiceRT_color,2021.2.3,Win32,60.0024001,,,,,,,,1,Slow,short,d,0,2.1282,5,0,20,1,1,,,,,
,1.27,,,,,,,,,j,red,5fa4ce917648f90008a584ab,2021-10-22_11h07.35.954,forced_choiceRT_color,2021.2.3,Win32,60.0024001,,,,,,,,1,Ontime,short,j,1,1.9915,5,1,21,2,1,,,,,
,0.93,,,,,,,,,j,red,5fa4ce917648f90008a584ab,2021-10-22_11h07.35.954,forced_choiceRT_color,2021.2.3,Win32,60.0024001,,,,,,,,1,Fast,short,j,1,1.8328,5,2,22,2,1,,,,,
,1.28,,,,,,,,,j,red,5fa4ce917648f90008a584ab,2021-10-22_11h07.35.954,forced_choiceRT_color,2021.2.3,Win32,60.0024001,,,,,,,,1,Ontime,short,j,1,2.0217,5,3,23,2,1,,,,,
,1.05,,,,,,,,,d,orange,5fa4ce917648f90008a584ab,2021-10-22_11h07.35.954,forced_choiceRT_color,2021.2.3,Win32,60.0024001,,,,,,,,1,Fast,short,d,1,1.7818,6,0,24,0,1,,,,,
,1.56,,,,,,,,,k,purple,5fa4ce917648f90008a584ab,2021-10-22_11h07.35.954,forced_choiceRT_color,2021.2.3,Win32,60.0024001,,,,,,,,1,Slow,short,k,1,2.2497,6,1,25,3,1,,,,,
,0.09,,,,,,,,,d,orange,5fa4ce917648f90008a584ab,2021-10-22_11h07.35.954,forced_choiceRT_color,2021.2.3,Win32,60.0024001,,,,,,,,1,Fast,short,d,1,1.7792,6,2,26,0,1,,,,,
,1.31,,,,,,,,,f,blue,5fa4ce917648f90008a584ab,2021-10-22_11h07.35.954,forced_choiceRT_color,2021.2.3,Win32,60.0024001,,,,,,,,1,Ontime,short,f,1,2.07,6,3,27,1,1,,,,,
,0.38,,,,,,,,,j,red,5fa4ce917648f90008a584ab,2021-10-22_11h07.35.954,forced_choiceRT_color,2021.2.3,Win32,60.0024001,,,,,,,,1,Fast,short,j,1,1.8229,7,0,28,2,1,,,,,
,1.05,,,,,,,,,f,blue,5fa4ce917648f90008a584ab,2021-10-22_11h07.35.954,forced_choiceRT_color,2021.2.3,Win32,60.0024001,,,,,,,,1,Ontime,short,d,0,2.0831,7,1,29,1,1,,,,,
,0.19,,,,,,,,,f,blue,5fa4ce917648f90008a584ab,2021-10-22_11h07.35.954,forced_choiceRT_color,2021.2.3,Win32,60.0024001,,,,,,,,1,Fast,short,f,1,1.6246,7,2,30,1,1,,,,,
,0.89,,,,,,,,,j,red,5fa4ce917648f90008a584ab,2021-10-22_11h07.35.954,forced_choiceRT_color,2021.2.3,Win32,60.0024001,,,,,,,,1,Fast,short,j,1,1.733,7,3,31,2,1,,,,,
,1.9,,,,,,,,,k,purple,5fa4ce917648f90008a584ab,2021-10-22_11h07.35.954,forced_choiceRT_color,2021.2.3,Win32,60.0024001,,,,,,,,1,Slow,short,k,1,2.4061,8,0,32,3,1,,,,,
,1.17,,,,,,,,,d,orange,5fa4ce917648f90008a584ab,2021-10-22_11h07.35.954,forced_choiceRT_color,2021.2.3,Win32,60.0024001,,,,,,,,1,Ontime,short,d,1,1.9312,8,1,33,0,1,,,,,
,0.75,,,,,,,,,d,orange,5fa4ce917648f90008a584ab,2021-10-22_11h07.35.954,forced_choiceRT_color,2021.2.3,Win32,60.0024001,,,,,,,,1,Fast,short,d,1,1.8715,8,2,34,0,1,,,,,
,1.44,,,,,,,,,d,orange,5fa4ce917648f90008a584ab,2021-10-22_11h07.35.954,forced_choiceRT_color,2021.2.3,Win32,60.0024001,,,,,,,,1,Ontime,short,d,1,2.0924,8,3,35,0,1,,,,,
,0.03,,,,,,,,,k,purple,5fa4ce917648f90008a584ab,2021-10-22_11h07.35.954,forced_choiceRT_color,2021.2.3,Win32,60.0024001,,,,,,,,1,Fast,short,k,1,1.7356,9,0,36,3,1,,,,,
,1.42,,,,,,,,,d,orange,5fa4ce917648f90008a584ab,2021-10-22_11h07.35.954,forced_choiceRT_color,2021.2.3,Win32,60.0024001,,,,,,,,1,Slow,short,d,1,2.1222,9,1,37,0,1,,,,,
,1.22,,,,,,,,,j,red,5fa4ce917648f90008a584ab,2021-10-22_11h07.35.954,forced_choiceRT_color,2021.2.3,Win32,60.0024001,,,,,,,,1,Fast,short,j,1,1.8535,9,2,38,2,1,,,,,
,1.99,,,,,,,,,f,blue,5fa4ce917648f90008a584ab,2021-10-22_11h07.35.954,forced_choiceRT_color,2021.2.3,Win32,60.0024001,,,,,,,,1,Slow,short,f,1,3.2612,9,3,39,1,1,,,,,
,,,,,,,,,,,,5fa4ce917648f90008a584ab,2021-10-22_11h07.35.954,forced_choiceRT_color,2021.2.3,Win32,60.0024001,,,,,,,,,,,,,,,,,,,0,0,0,0,1
,1.74,,,,,,,,,j,red,5fa4ce917648f90008a584ab,2021-10-22_11h07.35.954,forced_choiceRT_color,2021.2.3,Win32,60.0024001,,,,,,,,2,Slow,short,j,1,2.3598,0,0,0,2,1,,,,,
,1.97,,,,,,,,,d,orange,5fa4ce917648f90008a584ab,2021-10-22_11h07.35.954,forced_choiceRT_color,2021.2.3,Win32,60.0024001,,,,,,,,2,Slow,short,d,1,2.6042,0,1,1,0,1,,,,,
,1.08,,,,,,,,,j,red,5fa4ce917648f90008a584ab,2021-10-22_11h07.35.954,forced_choiceRT_color,2021.2.3,Win32,60.0024001,,,,,,,,2,Fast,short,j,1,1.6388,0,2,2,2,1,,,,,
,1.47,,,,,,,,,j,red,5fa4ce917648f90008a584ab,2021-10-22_11h07.35.954,forced_choiceRT_color,2021.2.3,Win32,60.0024001,,,,,,,,2,Ontime,short,j,1,2.083,0,3,3,2,1,,,,,
,1.52,,,,,,,,,f,blue,5fa4ce917648f90008a584ab,2021-10-22_11h07.35.954,forced_choiceRT_color,2021.2.3,Win32,60.0024001,,,,,,,,2,Slow,short,d,0,2.1392,1,0,4,1,1,,,,,
,1.29,,,,,,,,,d,orange,5fa4ce917648f90008a584ab,2021-10-22_11h07.35.954,forced_choiceRT_color,2021.2.3,Win32,60.0024001,,,,,,,,2,Ontime,short,d,1,2.0002,1,1,5,0,1,,,,,
,0.78,,,,,,,,,f,blue,5fa4ce917648f90008a584ab,2021-10-22_11h07.35.954,forced_choiceRT_color,2021.2.3,Win32,60.0024001,,,,,,,,2,Fast,short,f,1,1.5484,1,2,6,1,1,,,,,
,0.9,,,,,,,,,d,orange,5fa4ce917648f90008a584ab,2021-10-22_11h07.35.954,forced_choiceRT_color,2021.2.3,Win32,60.0024001,,,,,,,,2,Fast,short,d,1,1.7519,1,3,7,0,1,,,,,
,0.61,,,,,,,,,k,purple,5fa4ce917648f90008a584ab,2021-10-22_11h07.35.954,forced_choiceRT_color,2021.2.3,Win32,60.0024001,,,,,,,,2,Fast,short,k,1,1.787,2,0,8,3,1,,,,,
,1.26,,,,,,,,,f,blue,5fa4ce917648f90008a584ab,2021-10-22_11h07.35.954,forced_choiceRT_color,2021.2.3,Win32,60.0024001,,,,,,,,2,Slow,short,f,1,2.1567,2,1,9,1,1,,,,,
,1.72,,,,,,,,,j,red,5fa4ce917648f90008a584ab,2021-10-22_11h07.35.954,forced_choiceRT_color,2021.2.3,Win32,60.0024001,,,,,,,,2,Slow,short,j,1,2.1717,2,2,10,2,1,,,,,
,1.28,,,,,,,,,d,orange,5fa4ce917648f90008a584ab,2021-10-22_11h07.35.954,forced_choiceRT_color,2021.2.3,Win32,60.0024001,,,,,,,,2,Ontime,short,d,1,2.0998,2,3,11,0,1,,,,,
,0.07,,,,,,,,,f,blue,5fa4ce917648f90008a584ab,2021-10-22_11h07.35.954,forced_choiceRT_color,2021.2.3,Win32,60.0024001,,,,,,,,2,Fast,short,f,1,1.7548,3,0,12,1,1,,,,,
,0.23,,,,,,,,,k,purple,5fa4ce917648f90008a584ab,2021-10-22_11h07.35.954,forced_choiceRT_color,2021.2.3,Win32,60.0024001,,,,,,,,2,Slow,short,k,1,6.0776,3,1,13,3,1,,,,,
,0.55,,,,,,,,,f,blue,5fa4ce917648f90008a584ab,2021-10-22_11h07.35.954,forced_choiceRT_color,2021.2.3,Win32,60.0024001,,,,,,,,2,Slow,short,f,1,2.2204,3,2,14,1,1,,,,,
,0.52,,,,,,,,,d,orange,5fa4ce917648f90008a584ab,2021-10-22_11h07.35.954,forced_choiceRT_color,2021.2.3,Win32,60.0024001,,,,,,,,2,Ontime,short,d,1,2.0279,3,3,15,0,1,,,,,
,0.11,,,,,,,,,d,orange,5fa4ce917648f90008a584ab,2021-10-22_11h07.35.954,forced_choiceRT_color,2021.2.3,Win32,60.0024001,,,,,,,,2,Fast,short,d,1,1.6596,4,0,16,0,1,,,,,
,0.37,,,,,,,,,k,purple,5fa4ce917648f90008a584ab,2021-10-22_11h07.35.954,forced_choiceRT_color,2021.2.3,Win32,60.0024001,,,,,,,,2,Ontime,short,k,1,1.9708,4,1,17,3,1,,,,,
,0.73,,,,,,,,,f,blue,5fa4ce917648f90008a584ab,2021-10-22_11h07.35.954,forced_choiceRT_color,2021.2.3,Win32,60.0024001,,,,,,,,2,Fast,short,f,1,1.6982,4,2,18,1,1,,,,,
,1.79,,,,,,,,,j,red,5fa4ce917648f90008a584ab,2021-10-22_11h07.35.954,forced_choiceRT_color,2021.2.3,Win32,60.0024001,,,,,,,,2,Slow,short,j,1,2.3586,4,3,19,2,1,,,,,
,0.14,,,,,,,,,f,blue,5fa4ce917648f90008a584ab,2021-10-22_11h07.35.954,forced_choiceRT_color,2021.2.3,Win32,60.0024001,,,,,,,,2,Fast,short,f,1,1.8576,5,0,20,1,1,,,,,
,1.89,,,,,,,,,j,red,5fa4ce917648f90008a584ab,2021-10-22_11h07.35.954,forced_choiceRT_color,2021.2.3,Win32,60.0024001,,,,,,,,2,Slow,short,j,1,2.6524,5,1,21,2,1,,,,,
,0.55,,,,,,,,,f,blue,5fa4ce917648f90008a584ab,2021-10-22_11h07.35.954,forced_choiceRT_color,2021.2.3,Win32,60.0024001,,,,,,,,2,Ontime,short,f,1,1.9022,5,2,22,1,1,,,,,
,0.05,,,,,,,,,d,orange,5fa4ce917648f90008a584ab,2021-10-22_11h07.35.954,forced_choiceRT_color,2021.2.3,Win32,60.0024001,,,,,,,,2,Fast,short,d,1,1.8545,5,3,23,0,1,,,,,
,0.03,,,,,,,,,k,purple,5fa4ce917648f90008a584ab,2021-10-22_11h07.35.954,forced_choiceRT_color,2021.2.3,Win32,60.0024001,,,,,,,,2,Ontime,short,k,1,2.0336,6,0,24,3,1,,,,,
,1.69,,,,,,,,,d,orange,5fa4ce917648f90008a584ab,2021-10-22_11h07.35.954,forced_choiceRT_color,2021.2.3,Win32,60.0024001,,,,,,,,2,Slow,short,f,0,2.1703,6,1,25,0,1,,,,,
,1.13,,,,,,,,,k,purple,5fa4ce917648f90008a584ab,2021-10-22_11h07.35.954,forced_choiceRT_color,2021.2.3,Win32,60.0024001,,,,,,,,2,Slow,short,k,1,2.1362,6,2,26,3,1,,,,,
,0.61,,,,,,,,,k,purple,5fa4ce917648f90008a584ab,2021-10-22_11h07.35.954,forced_choiceRT_color,2021.2.3,Win32,60.0024001,,,,,,,,2,Slow,short,k,1,2.2555,6,3,27,3,1,,,,,
,1.16,,,,,,,,,k,purple,5fa4ce917648f90008a584ab,2021-10-22_11h07.35.954,forced_choiceRT_color,2021.2.3,Win32,60.0024001,,,,,,,,2,Fast,short,k,1,1.6657,7,0,28,3,1,,,,,
,1.16,,,,,,,,,f,blue,5fa4ce917648f90008a584ab,2021-10-22_11h07.35.954,forced_choiceRT_color,2021.2.3,Win32,60.0024001,,,,,,,,2,Slow,short,f,1,2.6728,7,1,29,1,1,,,,,
,0.4,,,,,,,,,j,red,5fa4ce917648f90008a584ab,2021-10-22_11h07.35.954,forced_choiceRT_color,2021.2.3,Win32,60.0024001,,,,,,,,2,Fast,short,k,0,1.6184,7,2,30,2,1,,,,,
,0.66,,,,,,,,,k,purple,5fa4ce917648f90008a584ab,2021-10-22_11h07.35.954,forced_choiceRT_color,2021.2.3,Win32,60.0024001,,,,,,,,2,Fast,short,k,1,1.8198,7,3,31,3,1,,,,,
,0.27,,,,,,,,,k,purple,5fa4ce917648f90008a584ab,2021-10-22_11h07.35.954,forced_choiceRT_color,2021.2.3,Win32,60.0024001,,,,,,,,2,Fast,short,k,1,1.8047,8,0,32,3,1,,,,,
,0.24,,,,,,,,,d,orange,5fa4ce917648f90008a584ab,2021-10-22_11h07.35.954,forced_choiceRT_color,2021.2.3,Win32,60.0024001,,,,,,,,2,Ontime,short,d,1,2.0106,8,1,33,0,1,,,,,
,1.01,,,,,,,,,d,orange,5fa4ce917648f90008a584ab,2021-10-22_11h07.35.954,forced_choiceRT_color,2021.2.3,Win32,60.0024001,,,,,,,,2,Ontime,short,d,1,1.9598,8,2,34,0,1,,,,,
,0.3,,,,,,,,,k,purple,5fa4ce917648f90008a584ab,2021-10-22_11h07.35.954,forced_choiceRT_color,2021.2.3,Win32,60.0024001,,,,,,,,2,Fast,short,k,1,1.6401,8,3,35,3,1,,,,,
,0.13,,,,,,,,,f,blue,5fa4ce917648f90008a584ab,2021-10-22_11h07.35.954,forced_choiceRT_color,2021.2.3,Win32,60.0024001,,,,,,,,2,Fast,short,f,1,1.8078,9,0,36,1,1,,,,,
,1.21,,,,,,,,,j,red,5fa4ce917648f90008a584ab,2021-10-22_11h07.35.954,forced_choiceRT_color,2021.2.3,Win32,60.0024001,,,,,,,,2,Slow,short,j,1,2.1163,9,1,37,2,1,,,,,
,1.29,,,,,,,,,j,red,5fa4ce917648f90008a584ab,2021-10-22_11h07.35.954,forced_choiceRT_color,2021.2.3,Win32,60.0024001,,,,,,,,2,Fast,short,j,1,1.8331,9,2,38,2,1,,,,,
,0.42,,,,,,,,,j,red,5fa4ce917648f90008a584ab,2021-10-22_11h07.35.954,forced_choiceRT_color,2021.2.3,Win32,60.0024001,,,,,,,,2,Ontime,short,j,1,1.9725,9,3,39,2,1,,,,,
,,,,,,,,,,,,5fa4ce917648f90008a584ab,2021-10-22_11h07.35.954,forced_choiceRT_color,2021.2.3,Win32,60.0024001,,,,,,,,,,,,,,,,,,,1,0,1,0,1
,1.51,,,,,,,,,f,blue,5fa4ce917648f90008a584ab,2021-10-22_11h07.35.954,forced_choiceRT_color,2021.2.3,Win32,60.0024001,,,,,,,,3,Slow,short,k,0,2.1622,0,0,0,1,1,,,,,
,1.57,,,,,,,,,d,orange,5fa4ce917648f90008a584ab,2021-10-22_11h07.35.954,forced_choiceRT_color,2021.2.3,Win32,60.0024001,,,,,,,,3,Ontime,short,j,0,2.0714,0,1,1,0,1,,,,,
,0.76,,,,,,,,,j,red,5fa4ce917648f90008a584ab,2021-10-22_11h07.35.954,forced_choiceRT_color,2021.2.3,Win32,60.0024001,,,,,,,,3,Fast,short,j,1,1.8859,0,2,2,2,1,,,,,
,0.07,,,,,,,,,j,red,5fa4ce917648f90008a584ab,2021-10-22_11h07.35.954,forced_choiceRT_color,2021.2.3,Win32,60.0024001,,,,,,,,3,Ontime,short,j,1,1.9718,0,3,3,2,1,,,,,
,0.63,,,,,,,,,d,orange,5fa4ce917648f90008a584ab,2021-10-22_11h07.35.954,forced_choiceRT_color,2021.2.3,Win32,60.0024001,,,,,,,,3,Ontime,short,d,1,2.0352,1,0,4,0,1,,,,,
,1.22,,,,,,,,,k,purple,5fa4ce917648f90008a584ab,2021-10-22_11h07.35.954,forced_choiceRT_color,2021.2.3,Win32,60.0024001,,,,,,,,3,Ontime,short,k,1,1.9509,1,1,5,3,1,,,,,
,1.69,,,,,,,,,d,orange,5fa4ce917648f90008a584ab,2021-10-22_11h07.35.954,forced_choiceRT_color,2021.2.3,Win32,60.0024001,,,,,,,,3,Slow,short,j,0,2.1258,1,2,6,0,1,,,,,
,1.76,,,,,,,,,f,blue,5fa4ce917648f90008a584ab,2021-10-22_11h07.35.954,forced_choiceRT_color,2021.2.3,Win32,60.0024001,,,,,,,,3,Slow,short,f,1,3.0096,1,3,7,1,1,,,,,
,1.89,,,,,,,,,j,red,5fa4ce917648f90008a584ab,2021-10-22_11h07.35.954,forced_choiceRT_color,2021.2.3,Win32,60.0024001,,,,,,,,3,Slow,short,j,1,2.5741,2,0,8,2,1,,,,,
,1.52,,,,,,,,,d,orange,5fa4ce917648f90008a584ab,2021-10-22_11h07.35.954,forced_choiceRT_color,2021.2.3,Win32,60.0024001,,,,,,,,3,Ontime,short,d,1,2.0673,2,1,9,0,1,,,,,
,1.48,,,,,,,,,k,purple,5fa4ce917648f90008a584ab,2021-10-22_11h07.35.954,forced_choiceRT_color,2021.2.3,Win32,60.0024001,,,,,,,,3,Slow,short,k,1,2.1682,2,2,10,3,1,,,,,
,0.74,,,,,,,,,k,purple,5fa4ce917648f90008a584ab,2021-10-22_11h07.35.954,forced_choiceRT_color,2021.2.3,Win32,60.0024001,,,,,,,,3,Fast,short,k,1,1.7916,2,3,11,3,1,,,,,
,1.35,,,,,,,,,k,purple,5fa4ce917648f90008a584ab,2021-10-22_11h07.35.954,forced_choiceRT_color,2021.2.3,Win32,60.0024001,,,,,,,,3,Fast,short,k,1,1.8254,3,0,12,3,1,,,,,
,0.15,,,,,,,,,f,blue,5fa4ce917648f90008a584ab,2021-10-22_11h07.35.954,forced_choiceRT_color,2021.2.3,Win32,60.0024001,,,,,,,,3,Ontime,short,f,1,2.0506,3,1,13,1,1,,,,,
,1.02,,,,,,,,,d,orange,5fa4ce917648f90008a584ab,2021-10-22_11h07.35.954,forced_choiceRT_color,2021.2.3,Win32,60.0024001,,,,,,,,3,Ontime,short,d,1,1.9652,3,2,14,0,1,,,,,
,0.26,,,,,,,,,f,blue,5fa4ce917648f90008a584ab,2021-10-22_11h07.35.954,forced_choiceRT_color,2021.2.3,Win32,60.0024001,,,,,,,,3,Fast,short,f,1,1.7717,3,3,15,1,1,,,,,
,1.43,,,,,,,,,j,red,5fa4ce917648f90008a584ab,2021-10-22_11h07.35.954,forced_choiceRT_color,2021.2.3,Win32,60.0024001,,,,,,,,3,Slow,short,j,1,2.1583,4,0,16,2,1,,,,,
,1.55,,,,,,,,,d,orange,5fa4ce917648f90008a584ab,2021-10-22_11h07.35.954,forced_choiceRT_color,2021.2.3,Win32,60.0024001,,,,,,,,3,Ontime,short,d,1,2.0794,4,1,17,0,1,,,,,
,0.46,,,,,,,,,k,purple,5fa4ce917648f90008a584ab,2021-10-22_11h07.35.954,forced_choiceRT_color,2021.2.3,Win32,60.0024001,,,,,,,,3,Slow,short,k,1,2.1384,4,2,18,3,1,,,,,
,1.19,,,,,,,,,k,purple,5fa4ce917648f90008a584ab,2021-10-22_11h07.35.954,forced_choiceRT_color,2021.2.3,Win32,60.0024001,,,,,,,,3,Ontime,short,k,1,1.9663,4,3,19,3,1,,,,,
,1.97,,,,,,,,,f,blue,5fa4ce917648f90008a584ab,2021-10-22_11h07.35.954,forced_choiceRT_color,2021.2.3,Win32,60.0024001,,,,,,,,3,Slow,short,j,0,2.5398,5,0,20,1,1,,,,,
,1.26,,,,,,,,,j,red,5fa4ce917648f90008a584ab,2021-10-22_11h07.35.954,forced_choiceRT_color,2021.2.3,Win32,60.0024001,,,,,,,,3,Ontime,short,j,1,1.9959,5,1,21,2,1,,,,,
,1.4,,,,,,,,,j,red,5fa4ce917648f90008a584ab,2021-10-22_11h07.35.954,forced_choiceRT_color,2021.2.3,Win32,60.0024001,,,,,,,,3,Ontime,short,j,1,1.9169,5,2,22,2,1,,,,,
,0.88,,,,,,,,,k,purple,5fa4ce917648f90008a584ab,2021-10-22_11h07.35.954,forced_choiceRT_color,2021.2.3,Win32,60.0024001,,,,,,,,3,Fast,short,k,1,1.838,5,3,23,3,1,,,,,
,0.92,,,,,,,,,d,orange,5fa4ce917648f90008a584ab,2021-10-22_11h07.35.954,forced_choiceRT_color,2021.2.3,Win32,60.0024001,,,,,,,,3,Fast,short,d,1,1.7894,6,0,24,0,1,,,,,
,1.35,,,,,,,,,k,purple,5fa4ce917648f90008a584ab,2021-10-22_11h07.35.954,forced_choiceRT_color,2021.2.3,Win32,60.0024001,,,,,,,,3,Ontime,short,k,1,1.9871,6,1,25,3,1,,,,,
,0.66,,,,,,,,,j,red,5fa4ce917648f90008a584ab,2021-10-22_11h07.35.954,forced_choiceRT_color,2021.2.3,Win32,60.0024001,,,,,,,,3,Fast,short,j,1,1.5175,6,2,26,2,1,,,,,
,1.55,,,,,,,,,d,orange,5fa4ce917648f90008a584ab,2021-10-22_11h07.35.954,forced_choiceRT_color,2021.2.3,Win32,60.0024001,,,,,,,,3,Slow,short,d,1,2.1706,6,3,27,0,1,,,,,
,1.55,,,,,,,,,k,purple,5fa4ce917648f90008a584ab,2021-10-22_11h07.35.954,forced_choiceRT_color,2021.2.3,Win32,60.0024001,,,,,,,,3,Ontime,short,k,1,2.036,7,0,28,3,1,,,,,
,1.55,,,,,,,,,f,blue,5fa4ce917648f90008a584ab,2021-10-22_11h07.35.954,forced_choiceRT_color,2021.2.3,Win32,60.0024001,,,,,,,,3,Ontime,short,j,0,2.0385,7,1,29,1,1,,,,,
,1.39,,,,,,,,,f,blue,5fa4ce917648f90008a584ab,2021-10-22_11h07.35.954,forced_choiceRT_color,2021.2.3,Win32,60.0024001,,,,,,,,3,Ontime,short,j,0,1.9392,7,2,30,1,1,,,,,
,1.46,,,,,,,,,j,red,5fa4ce917648f90008a584ab,2021-10-22_11h07.35.954,forced_choiceRT_color,2021.2.3,Win32,60.0024001,,,,,,,,3,Slow,short,f,0,2.2272,7,3,31,2,1,,,,,
,1.5,,,,,,,,,f,blue,5fa4ce917648f90008a584ab,2021-10-22_11h07.35.954,forced_choiceRT_color,2021.2.3,Win32,60.0024001,,,,,,,,3,Slow,short,f,1,2.1293,8,0,32,1,1,,,,,
,0.18,,,,,,,,,f,blue,5fa4ce917648f90008a584ab,2021-10-22_11h07.35.954,forced_choiceRT_color,2021.2.3,Win32,60.0024001,,,,,,,,3,Fast,short,f,1,1.5747,8,1,33,1,1,,,,,
,0.69,,,,,,,,,j,red,5fa4ce917648f90008a584ab,2021-10-22_11h07.35.954,forced_choiceRT_color,2021.2.3,Win32,60.0024001,,,,,,,,3,Ontime,short,j,1,1.9049,8,2,34,2,1,,,,,
,0.84,,,,,,,,,k,purple,5fa4ce917648f90008a584ab,2021-10-22_11h07.35.954,forced_choiceRT_color,2021.2.3,Win32,60.0024001,,,,,,,,3,Slow,short,k,1,2.1162,8,3,35,3,1,,,,,
,1.1,,,,,,,,,d,orange,5fa4ce917648f90008a584ab,2021-10-22_11h07.35.954,forced_choiceRT_color,2021.2.3,Win32,60.0024001,,,,,,,,3,Ontime,short,d,1,1.991,9,0,36,0,1,,,,,
,0.14,,,,,,,,,f,blue,5fa4ce917648f90008a584ab,2021-10-22_11h07.35.954,forced_choiceRT_color,2021.2.3,Win32,60.0024001,,,,,,,,3,Fast,short,f,1,1.8024,9,1,37,1,1,,,,,
,0.79,,,,,,,,,d,orange,5fa4ce917648f90008a584ab,2021-10-22_11h07.35.954,forced_choiceRT_color,2021.2.3,Win32,60.0024001,,,,,,,,3,Ontime,short,d,1,1.9739,9,2,38,0,1,,,,,
,1.53,,,,,,,,,j,red,5fa4ce917648f90008a584ab,2021-10-22_11h07.35.954,forced_choiceRT_color,2021.2.3,Win32,60.0024001,,,,,,,,3,Ontime,short,j,1,2.0698,9,3,39,2,1,,,,,
,,,,,,,,,,,,5fa4ce917648f90008a584ab,2021-10-22_11h07.35.954,forced_choiceRT_color,2021.2.3,Win32,60.0024001,,,,,,,,,,,,,,,,,,,2,0,2,0,1
,0.37,,,,,,,,,j,red,5fa4ce917648f90008a584ab,2021-10-22_11h07.35.954,forced_choiceRT_color,2021.2.3,Win32,60.0024001,,,,,,,,4,Slow,short,j,1,2.209,0,0,0,2,1,,,,,
,0.67,,,,,,,,,j,red,5fa4ce917648f90008a584ab,2021-10-22_11h07.35.954,forced_choiceRT_color,2021.2.3,Win32,60.0024001,,,,,,,,4,Ontime,short,j,1,1.9253,0,1,1,2,1,,,,,
,0.6,,,,,,,,,d,orange,5fa4ce917648f90008a584ab,2021-10-22_11h07.35.954,forced_choiceRT_color,2021.2.3,Win32,60.0024001,,,,,,,,4,Ontime,short,d,1,2.069,0,2,2,0,1,,,,,
,0.99,,,,,,,,,d,orange,5fa4ce917648f90008a584ab,2021-10-22_11h07.35.954,forced_choiceRT_color,2021.2.3,Win32,60.0024001,,,,,,,,4,Ontime,short,d,1,2.0033,0,3,3,0,1,,,,,
,1.22,,,,,,,,,j,red,5fa4ce917648f90008a584ab,2021-10-22_11h07.35.954,forced_choiceRT_color,2021.2.3,Win32,60.0024001,,,,,,,,4,Ontime,short,j,1,1.9698,1,0,4,2,1,,,,,
,0.42,,,,,,,,,j,red,5fa4ce917648f90008a584ab,2021-10-22_11h07.35.954,forced_choiceRT_color,2021.2.3,Win32,60.0024001,,,,,,,,4,Fast,short,j,1,1.772,1,1,5,2,1,,,,,
,1.42,,,,,,,,,d,orange,5fa4ce917648f90008a584ab,2021-10-22_11h07.35.954,forced_choiceRT_color,2021.2.3,Win32,60.0024001,,,,,,,,4,Slow,short,d,1,2.3364,1,2,6,0,1,,,,,
,1.32,,,,,,,,,k,purple,5fa4ce917648f90008a584ab,2021-10-22_11h07.35.954,forced_choiceRT_color,2021.2.3,Win32,60.0024001,,,,,,,,4,Ontime,short,k,1,1.9357,1,3,7,3,1,,,,,
,1.55,,,,,,,,,j,red,5fa4ce917648f90008a584ab,2021-10-22_11h07.35.954,forced_choiceRT_color,2021.2.3,Win32,60.0024001,,,,,,,,4,Ontime,short,j,1,2.057,2,0,8,2,1,,,,,
,0.48,,,,,,,,,f,blue,5fa4ce917648f90008a584ab,2021-10-22_11h07.35.954,forced_choiceRT_color,2021.2.3,Win32,60.0024001,,,,,,,,4,Fast,short,f,1,1.719,2,1,9,1,1,,,,,
,0.66,,,,,,,,,d,orange,5fa4ce917648f90008a584ab,2021-10-22_11h07.35.954,forced_choiceRT_color,2021.2.3,Win32,60.0024001,,,,,,,,4,Ontime,short,d,1,1.9558,2,2,10,0,1,,,,,
,1.72,,,,,,,,,k,purple,5fa4ce917648f90008a584ab,2021-10-22_11h07.35.954,forced_choiceRT_color,2021.2.3,Win32,60.0024001,,,,,,,,4,Slow,short,j,0,2.2869,2,3,11,3,1,,,,,
,1.13,,,,,,,,,f,blue,5fa4ce917648f90008a584ab,2021-10-22_11h07.35.954,forced_choiceRT_color,2021.2.3,Win32,60.0024001,,,,,,,,4,Fast,short,j,0,1.8031,3,0,12,1,1,,,,,
,0.84,,,,,,,,,f,blue,5fa4ce917648f90008a584ab,2021-10-22_11h07.35.954,forced_choiceRT_color,2021.2.3,Win32,60.0024001,,,,,,,,4,Ontime,short,j,0,2.0548,3,1,13,1,1,,,,,
,1.12,,,,,,,,,d,orange,5fa4ce917648f90008a584ab,2021-10-22_11h07.35.954,forced_choiceRT_color,2021.2.3,Win32,60.0024001,,,,,,,,4,Ontime,short,d,1,1.9702,3,2,14,0,1,,,,,
,1.77,,,,,,,,,j,red,5fa4ce917648f90008a584ab,2021-10-22_11h07.35.954,forced_choiceRT_color,2021.2.3,Win32,60.0024001,,,,,,,,4,Slow,short,j,1,2.609,3,3,15,2,1,,,,,
,0.7,,,,,,,,,d,orange,5fa4ce917648f90008a584ab,2021-10-22_11h07.35.954,forced_choiceRT_color,2021.2.3,Win32,60.0024001,,,,,,,,4,Ontime,short,d,1,1.917,4,0,16,0,1,,,,,
,0.66,,,,,,,,,j,red,5fa4ce917648f90008a584ab,2021-10-22_11h07.35.954,forced_choiceRT_color,2021.2.3,Win32,60.0024001,,,,,,,,4,Ontime,short,j,1,1.9539,4,1,17,2,1,,,,,
,0.52,,,,,,,,,j,red,5fa4ce917648f90008a584ab,2021-10-22_11h07.35.954,forced_choiceRT_color,2021.2.3,Win32,60.0024001,,,,,,,,4,Fast,short,j,1,1.7769,4,2,18,2,1,,,,,
,1.08,,,,,,,,,k,purple,5fa4ce917648f90008a584ab,2021-10-22_11h07.35.954,forced_choiceRT_color,2021.2.3,Win32,60.0024001,,,,,,,,4,Ontime,short,k,1,1.9559,4,3,19,3,1,,,,,
,0.89,,,,,,,,,k,purple,5fa4ce917648f90008a584ab,2021-10-22_11h07.35.954,forced_choiceRT_color,2021.2.3,Win32,60.0024001,,,,,,,,4,Fast,short,k,1,1.8261,5,0,20,3,1,,,,,
,0.77,,,,,,,,,d,orange,5fa4ce917648f90008a584ab,2021-10-22_11h07.35.954,forced_choiceRT_color,2021.2.3,Win32,60.0024001,,,,,,,,4,Ontime,short,d,1,1.9229,5,1,21,0,1,,,,,
,0.96,,,,,,,,,f,blue,5fa4ce917648f90008a584ab,2021-10-22_11h07.35.954,forced_choiceRT_color,2021.2.3,Win32,60.0024001,,,,,,,,4,Fast,short,j,0,1.8915,5,2,22,1,1,,,,,
,0.44,,,,,,,,,f,blue,5fa4ce917648f90008a584ab,2021-10-22_11h07.35.954,forced_choiceRT_color,2021.2.3,Win32,60.0024001,,,,,,,,4,Ontime,short,j,0,1.9866,5,3,23,1,1,,,,,
,1.66,,,,,,,,,k,purple,5fa4ce917648f90008a584ab,2021-10-22_11h07.35.954,forced_choiceRT_color,2021.2.3,Win32,60.0024001,,,,,,,,4,Slow,short,k,1,2.2229,6,0,24,3,1,,,,,
,0.82,,,,,,,,,d,orange,5fa4ce917648f90008a584ab,2021-10-22_11h07.35.954,forced_choiceRT_color,2021.2.3,Win32,60.0024001,,,,,,,,4,Ontime,short,d,1,1.9197,6,1,25,0,1,,,,,
,1.38,,,,,,,,,f,blue,5fa4ce917648f90008a584ab,2021-10-22_11h07.35.954,forced_choiceRT_color,2021.2.3,Win32,60.0024001,,,,,,,,4,Ontime,short,f,1,1.9203,6,2,26,1,1,,,,,
,0.08,,,,,,,,,f,blue,5fa4ce917648f90008a584ab,2021-10-22_11h07.35.954,forced_choiceRT_color,2021.2.3,Win32,60.0024001,,,,,,,,4,Ontime,short,f,1,1.9533,6,3,27,1,1,,,,,
,0.84,,,,,,,,,f,blue,5fa4ce917648f90008a584ab,2021-10-22_11h07.35.954,forced_choiceRT_color,2021.2.3,Win32,60.0024001,,,,,,,,4,Slow,short,f,1,2.1028,7,0,28,1,1,,,,,
,1.83,,,,,,,,,j,red,5fa4ce917648f90008a584ab,2021-10-22_11h07.35.954,forced_choiceRT_color,2021.2.3,Win32,60.0024001,,,,,,,,4,Slow,short,k,0,2.2314,7,1,29,2,1,,,,,
,1.94,,,,,,,,,k,purple,5fa4ce917648f90008a584ab,2021-10-22_11h07.35.954,forced_choiceRT_color,2021.2.3,Win32,60.0024001,,,,,,,,4,Slow,short,k,1,2.6445,7,2,30,3,1,,,,,
,0.65,,,,,,,,,j,red,5fa4ce917648f90008a584ab,2021-10-22_11h07.35.954,forced_choiceRT_color,2021.2.3,Win32,60.0024001,,,,,,,,4,Fast,short,j,1,1.4141,7,3,31,2,1,,,,,
,0.45,,,,,,,,,k,purple,5fa4ce917648f90008a584ab,2021-10-22_11h07.35.954,forced_choiceRT_color,2021.2.3,Win32,60.0024001,,,,,,,,4,Slow,short,k,1,2.2028,8,0,32,3,1,,,,,
,1.02,,,,,,,,,k,purple,5fa4ce917648f90008a584ab,2021-10-22_11h07.35.954,forced_choiceRT_color,2021.2.3,Win32,60.0024001,,,,,,,,4,Ontime,short,k,1,1.9403,8,1,33,3,1,,,,,
,0.16,,,,,,,,,k,purple,5fa4ce917648f90008a584ab,2021-10-22_11h07.35.954,forced_choiceRT_color,2021.2.3,Win32,60.0024001,,,,,,,,4,Fast,short,k,1,1.8191,8,2,34,3,1,,,,,
,0.12,,,,,,,,,f,blue,5fa4ce917648f90008a584ab,2021-10-22_11h07.35.954,forced_choiceRT_color,2021.2.3,Win32,60.0024001,,,,,,,,4,Fast,short,f,1,1.836,8,3,35,1,1,,,,,
,0.42,,,,,,,,,d,orange,5fa4ce917648f90008a584ab,2021-10-22_11h07.35.954,forced_choiceRT_color,2021.2.3,Win32,60.0024001,,,,,,,,4,Slow,short,d,1,2.1197,9,0,36,0,1,,,,,
,0.82,,,,,,,,,f,blue,5fa4ce917648f90008a584ab,2021-10-22_11h07.35.954,forced_choiceRT_color,2021.2.3,Win32,60.0024001,,,,,,,,4,Fast,short,f,1,1.8652,9,1,37,1,1,,,,,
,1.66,,,,,,,,,k,purple,5fa4ce917648f90008a584ab,2021-10-22_11h07.35.954,forced_choiceRT_color,2021.2.3,Win32,60.0024001,,,,,,,,4,Slow,short,k,1,2.6862,9,2,38,3,1,,,,,
,1.85,,,,,,,,,d,orange,5fa4ce917648f90008a584ab,2021-10-22_11h07.35.954,forced_choiceRT_color,2021.2.3,Win32,60.0024001,,,,,,,,4,Slow,short,d,1,2.4199,9,3,39,0,1,,,,,
,,,,,,,,,,,,5fa4ce917648f90008a584ab,2021-10-22_11h07.35.954,forced_choiceRT_color,2021.2.3,Win32,60.0024001,,,,,,,,,,,,,,,,,,,3,0,3,0,1
,0.38,,,,,,,,,d,orange,5fa4ce917648f90008a584ab,2021-10-22_11h07.35.954,forced_choiceRT_color,2021.2.3,Win32,60.0024001,,,,,,,,5,Ontime,short,d,1,1.9448,0,0,0,0,1,,,,,
,0.39,,,,,,,,,j,red,5fa4ce917648f90008a584ab,2021-10-22_11h07.35.954,forced_choiceRT_color,2021.2.3,Win32,60.0024001,,,,,,,,5,Ontime,short,j,1,2.036,0,1,1,2,1,,,,,
,1.4,,,,,,,,,d,orange,5fa4ce917648f90008a584ab,2021-10-22_11h07.35.954,forced_choiceRT_color,2021.2.3,Win32,60.0024001,,,,,,,,5,Ontime,short,d,1,2.0896,0,2,2,0,1,,,,,
,1.41,,,,,,,,,k,purple,5fa4ce917648f90008a584ab,2021-10-22_11h07.35.954,forced_choiceRT_color,2021.2.3,Win32,60.0024001,,,,,,,,5,Slow,short,k,1,2.1039,0,3,3,3,1,,,,,
,1.4,,,,,,,,,k,purple,5fa4ce917648f90008a584ab,2021-10-22_11h07.35.954,forced_choiceRT_color,2021.2.3,Win32,60.0024001,,,,,,,,5,Slow,short,k,1,2.1087,1,0,4,3,1,,,,,
,1.05,,,,,,,,,d,orange,5fa4ce917648f90008a584ab,2021-10-22_11h07.35.954,forced_choiceRT_color,2021.2.3,Win32,60.0024001,,,,,,,,5,Fast,short,d,1,1.6863,1,1,5,0,1,,,,,
,0.11,,,,,,,,,f,blue,5fa4ce917648f90008a584ab,2021-10-22_11h07.35.954,forced_choiceRT_color,2021.2.3,Win32,60.0024001,,,,,,,,5,Ontime,short,f,1,2.0065,1,2,6,1,1,,,,,
,0.41,,,,,,,,,f,blue,5fa4ce917648f90008a584ab,2021-10-22_11h07.35.954,forced_choiceRT_color,2021.2.3,Win32,60.0024001,,,,,,,,5,Slow,short,f,1,2.1198,1,3,7,1,1,,,,,
,0.54,,,,,,,,,f,blue,5fa4ce917648f90008a584ab,2021-10-22_11h07.35.954,forced_choiceRT_color,2021.2.3,Win32,60.0024001,,,,,,,,5,Slow,short,f,1,2.2479,2,0,8,1,1,,,,,
,1,,,,,,,,,f,blue,5fa4ce917648f90008a584ab,2021-10-22_11h07.35.954,forced_choiceRT_color,2021.2.3,Win32,60.0024001,,,,,,,,5,Fast,short,f,1,1.5905,2,1,9,1,1,,,,,
,1.39,,,,,,,,,k,purple,5fa4ce917648f90008a584ab,2021-10-22_11h07.35.954,forced_choiceRT_color,2021.2.3,Win32,60.0024001,,,,,,,,5,Ontime,short,k,1,2.0531,2,2,10,3,1,,,,,
,1.72,,,,,,,,,d,orange,5fa4ce917648f90008a584ab,2021-10-22_11h07.35.954,forced_choiceRT_color,2021.2.3,Win32,60.0024001,,,,,,,,5,Slow,short,k,0,2.1872,2,3,11,0,1,,,,,
,0.55,,,,,,,,,j,red,5fa4ce917648f90008a584ab,2021-10-22_11h07.35.954,forced_choiceRT_color,2021.2.3,Win32,60.0024001,,,,,,,,5,Ontime,short,j,1,1.9195,3,0,12,2,1,,,,,
,0.39,,,,,,,,,f,blue,5fa4ce917648f90008a584ab,2021-10-22_11h07.35.954,forced_choiceRT_color,2021.2.3,Win32,60.0024001,,,,,,,,5,Ontime,short,f,1,1.9859,3,1,13,1,1,,,,,
,1.02,,,,,,,,,j,red,5fa4ce917648f90008a584ab,2021-10-22_11h07.35.954,forced_choiceRT_color,2021.2.3,Win32,60.0024001,,,,,,,,5,Ontime,short,d,0,1.9034,3,2,14,2,1,,,,,
,1.06,,,,,,,,,f,blue,5fa4ce917648f90008a584ab,2021-10-22_11h07.35.954,forced_choiceRT_color,2021.2.3,Win32,60.0024001,,,,,,,,5,Ontime,short,f,1,2.0192,3,3,15,1,1,,,,,
,1.67,,,,,,,,,k,purple,5fa4ce917648f90008a584ab,2021-10-22_11h07.35.954,forced_choiceRT_color,2021.2.3,Win32,60.0024001,,,,,,,,5,Slow,short,k,1,2.2535,4,0,16,3,1,,,,,
,1.97,,,,,,,,,d,orange,5fa4ce917648f90008a584ab,2021-10-22_11h07.35.954,forced_choiceRT_color,2021.2.3,Win32,60.0024001,,,,,,,,5,Slow,short,d,1,2.7146,4,1,17,0,1,,,,,
,0.07,,,,,,,,,f,blue,5fa4ce917648f90008a584ab,2021-10-22_11h07.35.954,forced_choiceRT_color,2021.2.3,Win32,60.0024001,,,,,,,,5,Fast,short,f,1,1.8274,4,2,18,1,1,,,,,
,0.25,,,,,,,,,f,blue,5fa4ce917648f90008a584ab,2021-10-22_11h07.35.954,forced_choiceRT_color,2021.2.3,Win32,60.0024001,,,,,,,,5,Ontime,short,f,1,1.9997,4,3,19,1,1,,,,,
,0.22,,,,,,,,,f,blue,5fa4ce917648f90008a584ab,2021-10-22_11h07.35.954,forced_choiceRT_color,2021.2.3,Win32,60.0024001,,,,,,,,5,Ontime,short,f,1,2.0027,5,0,20,1,1,,,,,
,1.06,,,,,,,,,k,purple,5fa4ce917648f90008a584ab,2021-10-22_11h07.35.954,forced_choiceRT_color,2021.2.3,Win32,60.0024001,,,,,,,,5,Slow,short,k,1,2.1425,5,1,21,3,1,,,,,
,1.25,,,,,,,,,k,purple,5fa4ce917648f90008a584ab,2021-10-22_11h07.35.954,forced_choiceRT_color,2021.2.3,Win32,60.0024001,,,,,,,,5,Fast,short,k,1,1.8266,5,2,22,3,1,,,,,
,0.61,,,,,,,,,j,red,5fa4ce917648f90008a584ab,2021-10-22_11h07.35.954,forced_choiceRT_color,2021.2.3,Win32,60.0024001,,,,,,,,5,Slow,short,j,1,2.1194,5,3,23,2,1,,,,,
,0.77,,,,,,,,,d,orange,5fa4ce917648f90008a584ab,2021-10-22_11h07.35.954,forced_choiceRT_color,2021.2.3,Win32,60.0024001,,,,,,,,5,Ontime,short,d,1,2.0225,6,0,24,0,1,,,,,
,0.06,,,,,,,,,k,purple,5fa4ce917648f90008a584ab,2021-10-22_11h07.35.954,forced_choiceRT_color,2021.2.3,Win32,60.0024001,,,,,,,,5,Ontime,short,k,1,1.9222,6,1,25,3,1,,,,,
,0.87,,,,,,,,,k,purple,5fa4ce917648f90008a584ab,2021-10-22_11h07.35.954,forced_choiceRT_color,2021.2.3,Win32,60.0024001,,,,,,,,5,Ontime,short,k,1,1.9879,6,2,26,3,1,,,,,
,1.28,,,,,,,,,j,red,5fa4ce917648f90008a584ab,2021-10-22_11h07.35.954,forced_choiceRT_color,2021.2.3,Win32,60.0024001,,,,,,,,5,Ontime,short,j,1,2.0195,6,3,27,2,1,,,,,
,0.53,,,,,,,,,d,orange,5fa4ce917648f90008a584ab,2021-10-22_11h07.35.954,forced_choiceRT_color,2021.2.3,Win32,60.0024001,,,,,,,,5,Ontime,short,d,1,2.0856,7,0,28,0,1,,,,,
,1.5,,,,,,,,,j,red,5fa4ce917648f90008a584ab,2021-10-22_11h07.35.954,forced_choiceRT_color,2021.2.3,Win32,60.0024001,,,,,,,,5,Ontime,short,j,1,1.9923,7,1,29,2,1,,,,,
,1.95,,,,,,,,,k,purple,5fa4ce917648f90008a584ab,2021-10-22_11h07.35.954,forced_choiceRT_color,2021.2.3,Win32,60.0024001,,,,,,,,5,Slow,short,k,1,2.5032,7,2,30,3,1,,,,,
,0.03,,,,,,,,,d,orange,5fa4ce917648f90008a584ab,2021-10-22_11h07.35.954,forced_choiceRT_color,2021.2.3,Win32,60.0024001,,,,,,,,5,Ontime,short,d,1,1.9647,7,3,31,0,1,,,,,
,0.58,,,,,,,,,j,red,5fa4ce917648f90008a584ab,2021-10-22_11h07.35.954,forced_choiceRT_color,2021.2.3,Win32,60.0024001,,,,,,,,5,Ontime,short,j,1,1.9925,8,0,32,2,1,,,,,
,1.35,,,,,,,,,j,red,5fa4ce917648f90008a584ab,2021-10-22_11h07.35.954,forced_choiceRT_color,2021.2.3,Win32,60.0024001,,,,,,,,5,Slow,short,j,1,2.2196,8,1,33,2,1,,,,,
,1.39,,,,,,,,,d,orange,5fa4ce917648f90008a584ab,2021-10-22_11h07.35.954,forced_choiceRT_color,2021.2.3,Win32,60.0024001,,,,,,,,5,Ontime,short,d,1,1.9118,8,2,34,0,1,,,,,
,0.77,,,,,,,,,j,red,5fa4ce917648f90008a584ab,2021-10-22_11h07.35.954,forced_choiceRT_color,2021.2.3,Win32,60.0024001,,,,,,,,5,Fast,short,j,1,1.8366,8,3,35,2,1,,,,,
,0.44,,,,,,,,,f,blue,5fa4ce917648f90008a584ab,2021-10-22_11h07.35.954,forced_choiceRT_color,2021.2.3,Win32,60.0024001,,,,,,,,5,Fast,short,f,1,1.8356,9,0,36,1,1,,,,,
,0,,,,,,,,,k,purple,5fa4ce917648f90008a584ab,2021-10-22_11h07.35.954,forced_choiceRT_color,2021.2.3,Win32,60.0024001,,,,,,,,5,Ontime,short,k,1,2.0186,9,1,37,3,1,,,,,
,1.26,,,,,,,,,d,orange,5fa4ce917648f90008a584ab,2021-10-22_11h07.35.954,forced_choiceRT_color,2021.2.3,Win32,60.0024001,,,,,,,,5,Slow,short,d,1,2.2442,9,2,38,0,1,,,,,
,0.9,,,,,,,,,j,red,5fa4ce917648f90008a584ab,2021-10-22_11h07.35.954,forced_choiceRT_color,2021.2.3,Win32,60.0024001,,,,,,,,5,Fast,short,j,1,1.8753,9,3,39,2,1,,,,,
,,,,,,,,,,,,5fa4ce917648f90008a584ab,2021-10-22_11h07.35.954,forced_choiceRT_color,2021.2.3,Win32,60.0024001,,,,,,,,,,,,,,,,,,,4,0,4,0,1
,0.15,,,,,,,,,f,blue,5fa4ce917648f90008a584ab,2021-10-22_11h07.35.954,forced_choiceRT_color,2021.2.3,Win32,60.0024001,,,,,,,,6,Fast,short,f,1,1.7748,0,0,0,1,1,,,,,
,1.76,,,,,,,,,j,red,5fa4ce917648f90008a584ab,2021-10-22_11h07.35.954,forced_choiceRT_color,2021.2.3,Win32,60.0024001,,,,,,,,6,Slow,short,j,1,2.2525,0,1,1,2,1,,,,,
,0.5,,,,,,,,,j,red,5fa4ce917648f90008a584ab,2021-10-22_11h07.35.954,forced_choiceRT_color,2021.2.3,Win32,60.0024001,,,,,,,,6,Ontime,short,j,1,2.0688,0,2,2,2,1,,,,,
,0.32,,,,,,,,,f,blue,5fa4ce917648f90008a584ab,2021-10-22_11h07.35.954,forced_choiceRT_color,2021.2.3,Win32,60.0024001,,,,,,,,6,Ontime,short,f,1,1.9527,0,3,3,1,1,,,,,
,1.88,,,,,,,,,d,orange,5fa4ce917648f90008a584ab,2021-10-22_11h07.35.954,forced_choiceRT_color,2021.2.3,Win32,60.0024001,,,,,,,,6,Slow,short,d,1,2.5423,1,0,4,0,1,,,,,
,0,,,,,,,,,k,purple,5fa4ce917648f90008a584ab,2021-10-22_11h07.35.954,forced_choiceRT_color,2021.2.3,Win32,60.0024001,,,,,,,,6,Ontime,short,k,1,2.0313,1,1,5,3,1,,,,,
,1.57,,,,,,,,,d,orange,5fa4ce917648f90008a584ab,2021-10-22_11h07.35.954,forced_choiceRT_color,2021.2.3,Win32,60.0024001,,,,,,,,6,Slow,short,d,1,2.173,1,2,6,0,1,,,,,
,0.89,,,,,,,,,f,blue,5fa4ce917648f90008a584ab,2021-10-22_11h07.35.954,forced_choiceRT_color,2021.2.3,Win32,60.0024001,,,,,,,,6,Slow,short,f,1,2.1427,1,3,7,1,1,,,,,
,1,,,,,,,,,f,blue,5fa4ce917648f90008a584ab,2021-10-22_11h07.35.954,forced_choiceRT_color,2021.2.3,Win32,60.0024001,,,,,,,,6,Fast,short,f,1,1.8268,2,0,8,1,1,,,,,
,0.35,,,,,,,,,k,purple,5fa4ce917648f90008a584ab,2021-10-22_11h07.35.954,forced_choiceRT_color,2021.2.3,Win32,60.0024001,,,,,,,,6,Ontime,short,k,1,2.0197,2,1,9,3,1,,,,,
,1.18,,,,,,,,,k,purple,5fa4ce917648f90008a584ab,2021-10-22_11h07.35.954,forced_choiceRT_color,2021.2.3,Win32,60.0024001,,,,,,,,6,Slow,short,k,1,2.1032,2,2,10,3,1,,,,,
,0.58,,,,,,,,,k,purple,5fa4ce917648f90008a584ab,2021-10-22_11h07.35.954,forced_choiceRT_color,2021.2.3,Win32,60.0024001,,,,,,,,6,Slow,short,k,1,2.1324,2,3,11,3,1,,,,,
,1.12,,,,,,,,,j,red,5fa4ce917648f90008a584ab,2021-10-22_11h07.35.954,forced_choiceRT_color,2021.2.3,Win32,60.0024001,,,,,,,,6,Slow,short,j,1,2.1033,3,0,12,2,1,,,,,
,1.41,,,,,,,,,d,orange,5fa4ce917648f90008a584ab,2021-10-22_11h07.35.954,forced_choiceRT_color,2021.2.3,Win32,60.0024001,,,,,,,,6,Ontime,short,d,1,1.9364,3,1,13,0,1,,,,,
,1.01,,,,,,,,,j,red,5fa4ce917648f90008a584ab,2021-10-22_11h07.35.954,forced_choiceRT_color,2021.2.3,Win32,60.0024001,,,,,,,,6,Ontime,short,j,1,1.9863,3,2,14,2,1,,,,,
,0.18,,,,,,,,,j,red,5fa4ce917648f90008a584ab,2021-10-22_11h07.35.954,forced_choiceRT_color,2021.2.3,Win32,60.0024001,,,,,,,,6,Ontime,short,j,1,1.9028,3,3,15,2,1,,,,,
,0.42,,,,,,,,,f,blue,5fa4ce917648f90008a584ab,2021-10-22_11h07.35.954,forced_choiceRT_color,2021.2.3,Win32,60.0024001,,,,,,,,6,Fast,short,f,1,1.6756,4,0,16,1,1,,,,,
,0,,,,,,,,,d,orange,5fa4ce917648f90008a584ab,2021-10-22_11h07.35.954,forced_choiceRT_color,2021.2.3,Win32,60.0024001,,,,,,,,6,Ontime,short,d,1,2.0196,4,1,17,0,1,,,,,
,1.49,,,,,,,,,d,orange,5fa4ce917648f90008a584ab,2021-10-22_11h07.35.954,forced_choiceRT_color,2021.2.3,Win32,60.0024001,,,,,,,,6,Slow,short,d,1,2.3022,4,2,18,0,1,,,,,
,0.13,,,,,,,,,d,orange,5fa4ce917648f90008a584ab,2021-10-22_11h07.35.954,forced_choiceRT_color,2021.2.3,Win32,60.0024001,,,,,,,,6,Ontime,short,d,1,1.9475,4,3,19,0,1,,,,,
,1.92,,,,,,,,,j,red,5fa4ce917648f90008a584ab,2021-10-22_11h07.35.954,forced_choiceRT_color,2021.2.3,Win32,60.0024001,,,,,,,,6,Slow,short,j,1,2.3941,5,0,20,2,1,,,,,
,1.69,,,,,,,,,f,blue,5fa4ce917648f90008a584ab,2021-10-22_11h07.35.954,forced_choiceRT_color,2021.2.3,Win32,60.0024001,,,,,,,,6,Slow,short,k,0,2.244,5,1,21,1,1,,,,,
,0.59,,,,,,,,,d,orange,5fa4ce917648f90008a584ab,2021-10-22_11h07.35.954,forced_choiceRT_color,2021.2.3,Win32,60.0024001,,,,,,,,6,Ontime,short,d,1,1.9343,5,2,22,0,1,,,,,
,1.15,,,,,,,,,f,blue,5fa4ce917648f90008a584ab,2021-10-22_11h07.35.954,forced_choiceRT_color,2021.2.3,Win32,60.0024001,,,,,,,,6,Slow,short,f,1,2.1685,5,3,23,1,1,,,,,
,1.89,,,,,,,,,k,purple,5fa4ce917648f90008a584ab,2021-10-22_11h07.35.954,forced_choiceRT_color,2021.2.3,Win32,60.0024001,,,,,,,,6,Slow,short,k,1,2.4864,6,0,24,3,1,,,,,
,0.11,,,,,,,,,j,red,5fa4ce917648f90008a584ab,2021-10-22_11h07.35.954,forced_choiceRT_color,2021.2.3,Win32,60.0024001,,,,,,,,6,Ontime,short,j,1,2.0097,6,1,25,2,1,,,,,
,1.98,,,,,,,,,k,purple,5fa4ce917648f90008a584ab,2021-10-22_11h07.35.954,forced_choiceRT_color,2021.2.3,Win32,60.0024001,,,,,,,,6,Slow,short,k,1,2.555,6,2,26,3,1,,,,,
,1.58,,,,,,,,,k,purple,5fa4ce917648f90008a584ab,2021-10-22_11h07.35.954,forced_choiceRT_color,2021.2.3,Win32,60.0024001,,,,,,,,6,Slow,short,k,1,2.1173,6,3,27,3,1,,,,,
,1.04,,,,,,,,,j,red,5fa4ce917648f90008a584ab,2021-10-22_11h07.35.954,forced_choiceRT_color,2021.2.3,Win32,60.0024001,,,,,,,,6,Ontime,short,f,0,1.9523,7,0,28,2,1,,,,,
,1.41,,,,,,,,,d,orange,5fa4ce917648f90008a584ab,2021-10-22_11h07.35.954,forced_choiceRT_color,2021.2.3,Win32,60.0024001,,,,,,,,6,Fast,short,j,0,0.001,7,1,29,0,1,,,,,
,0.99,,,,,,,,,k,purple,5fa4ce917648f90008a584ab,2021-10-22_11h07.35.954,forced_choiceRT_color,2021.2.3,Win32,60.0024001,,,,,,,,6,Ontime,short,k,1,2.0238,7,2,30,3,1,,,,,
,1.91,,,,,,,,,k,purple,5fa4ce917648f90008a584ab,2021-10-22_11h07.35.954,forced_choiceRT_color,2021.2.3,Win32,60.0024001,,,,,,,,6,Slow,short,k,1,2.4204,7,3,31,3,1,,,,,
,1.95,,,,,,,,,f,blue,5fa4ce917648f90008a584ab,2021-10-22_11h07.35.954,forced_choiceRT_color,2021.2.3,Win32,60.0024001,,,,,,,,6,Slow,short,f,1,2.6205,8,0,32,1,1,,,,,
,0.59,,,,,,,,,j,red,5fa4ce917648f90008a584ab,2021-10-22_11h07.35.954,forced_choiceRT_color,2021.2.3,Win32,60.0024001,,,,,,,,6,Fast,short,j,1,1.8992,8,1,33,2,1,,,,,
,1.78,,,,,,,,,d,orange,5fa4ce917648f90008a584ab,2021-10-22_11h07.35.954,forced_choiceRT_color,2021.2.3,Win32,60.0024001,,,,,,,,6,Slow,short,d,1,2.4246,8,2,34,0,1,,,,,
,1.96,,,,,,,,,d,orange,5fa4ce917648f90008a584ab,2021-10-22_11h07.35.954,forced_choiceRT_color,2021.2.3,Win32,60.0024001,,,,,,,,6,Slow,short,d,1,2.6242,8,3,35,0,1,,,,,
,1.51,,,,,,,,,k,purple,5fa4ce917648f90008a584ab,2021-10-22_11h07.35.954,forced_choiceRT_color,2021.2.3,Win32,60.0024001,,,,,,,,6,Slow,short,k,1,2.3322,9,0,36,3,1,,,,,
,1.86,,,,,,,,,j,red,5fa4ce917648f90008a584ab,2021-10-22_11h07.35.954,forced_choiceRT_color,2021.2.3,Win32,60.0024001,,,,,,,,6,Slow,short,f,0,2.395,9,1,37,2,1,,,,,
,0.25,,,,,,,,,f,blue,5fa4ce917648f90008a584ab,2021-10-22_11h07.35.954,forced_choiceRT_color,2021.2.3,Win32,60.0024001,,,,,,,,6,Fast,short,f,1,1.8714,9,2,38,1,1,,,,,
,1.28,,,,,,,,,f,blue,5fa4ce917648f90008a584ab,2021-10-22_11h07.35.954,forced_choiceRT_color,2021.2.3,Win32,60.0024001,,,,,,,,6,Slow,short,f,1,2.3227,9,3,39,1,1,,,,,
,,,,,,,,,,,,5fa4ce917648f90008a584ab,2021-10-22_11h07.35.954,forced_choiceRT_color,2021.2.3,Win32,60.0024001,,,,,,,,,,,,,,,,,,,5,0,5,0,1
,0.5,,,,,,,,,j,red,5fa4ce917648f90008a584ab,2021-10-22_11h07.35.954,forced_choiceRT_color,2021.2.3,Win32,60.0024001,,,,,,,,7,Ontime,short,j,1,2.0455,0,0,0,2,1,,,,,
,0.11,,,,,,,,,d,orange,5fa4ce917648f90008a584ab,2021-10-22_11h07.35.954,forced_choiceRT_color,2021.2.3,Win32,60.0024001,,,,,,,,7,Fast,short,d,1,1.6679,0,1,1,0,1,,,,,
,0.48,,,,,,,,,k,purple,5fa4ce917648f90008a584ab,2021-10-22_11h07.35.954,forced_choiceRT_color,2021.2.3,Win32,60.0024001,,,,,,,,7,Fast,short,k,1,1.7864,0,2,2,3,1,,,,,
,1.97,,,,,,,,,f,blue,5fa4ce917648f90008a584ab,2021-10-22_11h07.35.954,forced_choiceRT_color,2021.2.3,Win32,60.0024001,,,,,,,,7,Slow,short,j,0,2.392,0,3,3,1,1,,,,,
,1.07,,,,,,,,,f,blue,5fa4ce917648f90008a584ab,2021-10-22_11h07.35.954,forced_choiceRT_color,2021.2.3,Win32,60.0024001,,,,,,,,7,Fast,short,f,1,1.7026,1,0,4,1,1,,,,,
,0.39,,,,,,,,,k,purple,5fa4ce917648f90008a584ab,2021-10-22_11h07.35.954,forced_choiceRT_color,2021.2.3,Win32,60.0024001,,,,,,,,7,Fast,short,k,1,1.8945,1,1,5,3,1,,,,,
,0.22,,,,,,,,,k,purple,5fa4ce917648f90008a584ab,2021-10-22_11h07.35.954,forced_choiceRT_color,2021.2.3,Win32,60.0024001,,,,,,,,7,Ontime,short,k,1,2.0313,1,2,6,3,1,,,,,
,0.33,,,,,,,,,k,purple,5fa4ce917648f90008a584ab,2021-10-22_11h07.35.954,forced_choiceRT_color,2021.2.3,Win32,60.0024001,,,,,,,,7,Ontime,short,k,1,1.9861,1,3,7,3,1,,,,,
,1.74,,,,,,,,,j,red,5fa4ce917648f90008a584ab,2021-10-22_11h07.35.954,forced_choiceRT_color,2021.2.3,Win32,60.0024001,,,,,,,,7,Slow,short,j,1,2.2058,2,0,8,2,1,,,,,
,1.71,,,,,,,,,d,orange,5fa4ce917648f90008a584ab,2021-10-22_11h07.35.954,forced_choiceRT_color,2021.2.3,Win32,60.0024001,,,,,,,,7,Slow,short,f,0,2.1906,2,1,9,0,1,,,,,
,0.47,,,,,,,,,f,blue,5fa4ce917648f90008a584ab,2021-10-22_11h07.35.954,forced_choiceRT_color,2021.2.3,Win32,60.0024001,,,,,,,,7,Ontime,short,f,1,2.0034,2,2,10,1,1,,,,,
,1.56,,,,,,,,,f,blue,5fa4ce917648f90008a584ab,2021-10-22_11h07.35.954,forced_choiceRT_color,2021.2.3,Win32,60.0024001,,,,,,,,7,Ontime,short,f,1,2.0338,2,3,11,1,1,,,,,
,1.16,,,,,,,,,f,blue,5fa4ce917648f90008a584ab,2021-10-22_11h07.35.954,forced_choiceRT_color,2021.2.3,Win32,60.0024001,,,,,,,,7,Fast,short,f,1,1.561,3,0,12,1,1,,,,,
,0.73,,,,,,,,,d,orange,5fa4ce917648f90008a584ab,2021-10-22_11h07.35.954,forced_choiceRT_color,2021.2.3,Win32,60.0024001,,,,,,,,7,Ontime,short,d,1,1.9081,3,1,13,0,1,,,,,
,1.37,,,,,,,,,d,orange,5fa4ce917648f90008a584ab,2021-10-22_11h07.35.954,forced_choiceRT_color,2021.2.3,Win32,60.0024001,,,,,,,,7,Ontime,short,d,1,1.9574,3,2,14,0,1,,,,,
,0,,,,,,,,,f,blue,5fa4ce917648f90008a584ab,2021-10-22_11h07.35.954,forced_choiceRT_color,2021.2.3,Win32,60.0024001,,,,,,,,7,Ontime,short,f,1,1.989,3,3,15,1,1,,,,,
,1.77,,,,,,,,,f,blue,5fa4ce917648f90008a584ab,2021-10-22_11h07.35.954,forced_choiceRT_color,2021.2.3,Win32,60.0024001,,,,,,,,7,Slow,short,d,0,2.1862,4,0,16,1,1,,,,,
,1.98,,,,,,,,,d,orange,5fa4ce917648f90008a584ab,2021-10-22_11h07.35.954,forced_choiceRT_color,2021.2.3,Win32,60.0024001,,,,,,,,7,Slow,short,d,1,2.432,4,1,17,0,1,,,,,
,0.05,,,,,,,,,j,red,5fa4ce917648f90008a584ab,2021-10-22_11h07.35.954,forced_choiceRT_color,2021.2.3,Win32,60.0024001,,,,,,,,7,Ontime,short,j,1,1.9701,4,2,18,2,1,,,,,
,0.78,,,,,,,,,j,red,5fa4ce917648f90008a584ab,2021-10-22_11h07.35.954,forced_choiceRT_color,2021.2.3,Win32,60.0024001,,,,,,,,7,Ontime,short,j,1,1.9916,4,3,19,2,1,,,,,
,1.17,,,,,,,,,k,purple,5fa4ce917648f90008a584ab,2021-10-22_11h07.35.954,forced_choiceRT_color,2021.2.3,Win32,60.0024001,,,,,,,,7,Fast,short,k,1,1.6399,5,0,20,3,1,,,,,
,0.82,,,,,,,,,k,purple,5fa4ce917648f90008a584ab,2021-10-22_11h07.35.954,forced_choiceRT_color,2021.2.3,Win32,60.0024001,,,,,,,,7,Slow,short,k,1,2.1191,5,1,21,3,1,,,,,
,1.47,,,,,,,,,k,purple,5fa4ce917648f90008a584ab,2021-10-22_11h07.35.954,forced_choiceRT_color,2021.2.3,Win32,60.0024001,,,,,,,,7,Ontime,short,k,1,2.0076,5,2,22,3,1,,,,,
,0.84,,,,,,,,,j,red,5fa4ce917648f90008a584ab,2021-10-22_11h07.35.954,forced_choiceRT_color,2021.2.3,Win32,60.0024001,,,,,,,,7,Ontime,short,j,1,2.0355,5,3,23,2,1,,,,,
,0.29,,,,,,,,,j,red,5fa4ce917648f90008a584ab,2021-10-22_11h07.35.954,forced_choiceRT_color,2021.2.3,Win32,60.0024001,,,,,,,,7,Fast,short,j,1,1.7055,6,0,24,2,1,,,,,
,1.69,,,,,,,,,d,orange,5fa4ce917648f90008a584ab,2021-10-22_11h07.35.954,forced_choiceRT_color,2021.2.3,Win32,60.0024001,,,,,,,,7,Slow,short,d,1,2.5969,6,1,25,0,1,,,,,
,1.89,,,,,,,,,j,red,5fa4ce917648f90008a584ab,2021-10-22_11h07.35.954,forced_choiceRT_color,2021.2.3,Win32,60.0024001,,,,,,,,7,Slow,short,k,0,2.3258,6,2,26,2,1,,,,,
,0.36,,,,,,,,,k,purple,5fa4ce917648f90008a584ab,2021-10-22_11h07.35.954,forced_choiceRT_color,2021.2.3,Win32,60.0024001,,,,,,,,7,Ontime,short,k,1,2.0299,6,3,27,3,1,,,,,
,0.22,,,,,,,,,j,red,5fa4ce917648f90008a584ab,2021-10-22_11h07.35.954,forced_choiceRT_color,2021.2.3,Win32,60.0024001,,,,,,,,7,Fast,short,j,1,1.5852,7,0,28,2,1,,,,,
,0.54,,,,,,,,,d,orange,5fa4ce917648f90008a584ab,2021-10-22_11h07.35.954,forced_choiceRT_color,2021.2.3,Win32,60.0024001,,,,,,,,7,Slow,short,d,1,2.1042,7,1,29,0,1,,,,,
,1.83,,,,,,,,,j,red,5fa4ce917648f90008a584ab,2021-10-22_11h07.35.954,forced_choiceRT_color,2021.2.3,Win32,60.0024001,,,,,,,,7,Slow,short,j,1,2.4126,7,2,30,2,1,,,,,
,1.8,,,,,,,,,k,purple,5fa4ce917648f90008a584ab,2021-10-22_11h07.35.954,forced_choiceRT_color,2021.2.3,Win32,60.0024001,,,,,,,,7,Slow,short,k,1,2.1811,7,3,31,3,1,,,,,
,1.11,,,,,,,,,d,orange,5fa4ce917648f90008a584ab,2021-10-22_11h07.35.954,forced_choiceRT_color,2021.2.3,Win32,60.0024001,,,,,,,,7,Fast,short,f,0,1.5685,8,0,32,0,1,,,,,
,1.66,,,,,,,,,d,orange,5fa4ce917648f90008a584ab,2021-10-22_11h07.35.954,forced_choiceRT_color,2021.2.3,Win32,60.0024001,,,,,,,,7,Slow,short,d,1,2.1456,8,1,33,0,1,,,,,
,0.45,,,,,,,,,k,purple,5fa4ce917648f90008a584ab,2021-10-22_11h07.35.954,forced_choiceRT_color,2021.2.3,Win32,60.0024001,,,,,,,,7,Fast,short,k,1,1.8607,8,2,34,3,1,,,,,
,0.3,,,,,,,,,d,orange,5fa4ce917648f90008a584ab,2021-10-22_11h07.35.954,forced_choiceRT_color,2021.2.3,Win32,60.0024001,,,,,,,,7,Fast,short,d,1,1.7798,8,3,35,0,1,,,,,
,0.13,,,,,,,,,f,blue,5fa4ce917648f90008a584ab,2021-10-22_11h07.35.954,forced_choiceRT_color,2021.2.3,Win32,60.0024001,,,,,,,,7,Ontime,short,f,1,1.9102,9,0,36,1,1,,,,,
,1.67,,,,,,,,,f,blue,5fa4ce917648f90008a584ab,2021-10-22_11h07.35.954,forced_choiceRT_color,2021.2.3,Win32,60.0024001,,,,,,,,7,Ontime,short,f,1,2.0875,9,1,37,1,1,,,,,
,0.86,,,,,,,,,j,red,5fa4ce917648f90008a584ab,2021-10-22_11h07.35.954,forced_choiceRT_color,2021.2.3,Win32,60.0024001,,,,,,,,7,Ontime,short,j,1,1.9696,9,2,38,2,1,,,,,
,0.82,,,,,,,,,f,blue,5fa4ce917648f90008a584ab,2021-10-22_11h07.35.954,forced_choiceRT_color,2021.2.3,Win32,60.0024001,,,,,,,,7,Fast,short,f,1,1.7117,9,3,39,1,1,,,,,
,,,,,,,,,,,,5fa4ce917648f90008a584ab,2021-10-22_11h07.35.954,forced_choiceRT_color,2021.2.3,Win32,60.0024001,,,,,,,,,,,,,,,,,,,6,0,6,0,1
,0.98,,,,,,,,,f,blue,5fa4ce917648f90008a584ab,2021-10-22_11h07.35.954,forced_choiceRT_color,2021.2.3,Win32,60.0024001,,,,,,,,8,Fast,short,f,1,1.7638,0,0,0,1,1,,,,,
,1.27,,,,,,,,,k,purple,5fa4ce917648f90008a584ab,2021-10-22_11h07.35.954,forced_choiceRT_color,2021.2.3,Win32,60.0024001,,,,,,,,8,Ontime,short,k,1,2.0782,0,1,1,3,1,,,,,
,1.56,,,,,,,,,f,blue,5fa4ce917648f90008a584ab,2021-10-22_11h07.35.954,forced_choiceRT_color,2021.2.3,Win32,60.0024001,,,,,,,,8,Ontime,short,j,0,2.0403,0,2,2,1,1,,,,,
,0.56,,,,,,,,,f,blue,5fa4ce917648f90008a584ab,2021-10-22_11h07.35.954,forced_choiceRT_color,2021.2.3,Win32,60.0024001,,,,,,,,8,Ontime,short,f,1,1.9077,0,3,3,1,1,,,,,
,1.86,,,,,,,,,f,blue,5fa4ce917648f90008a584ab,2021-10-22_11h07.35.954,forced_choiceRT_color,2021.2.3,Win32,60.0024001,,,,,,,,8,Slow,short,f,1,2.2695,1,0,4,1,1,,,,,
,0.84,,,,,,,,,k,purple,5fa4ce917648f90008a584ab,2021-10-22_11h07.35.954,forced_choiceRT_color,2021.2.3,Win32,60.0024001,,,,,,,,8,Ontime,short,k,1,2.0365,1,1,5,3,1,,,,,
,1.34,,,,,,,,,j,red,5fa4ce917648f90008a584ab,2021-10-22_11h07.35.954,forced_choiceRT_color,2021.2.3,Win32,60.0024001,,,,,,,,8,Fast,short,j,1,1.8712,1,2,6,2,1,,,,,
,1.47,,,,,,,,,k,purple,5fa4ce917648f90008a584ab,2021-10-22_11h07.35.954,forced_choiceRT_color,2021.2.3,Win32,60.0024001,,,,,,,,8,Ontime,short,k,1,2.0782,1,3,7,3,1,,,,,
,0.53,,,,,,,,,j,red,5fa4ce917648f90008a584ab,2021-10-22_11h07.35.954,forced_choiceRT_color,2021.2.3,Win32,60.0024001,,,,,,,,8,Ontime,short,j,1,1.9439,2,0,8,2,1,,,,,
,1,,,,,,,,,d,orange,5fa4ce917648f90008a584ab,2021-10-22_11h07.35.954,forced_choiceRT_color,2021.2.3,Win32,60.0024001,,,,,,,,8,Fast,short,d,1,1.7691,2,1,9,0,1,,,,,
,0.12,,,,,,,,,j,red,5fa4ce917648f90008a584ab,2021-10-22_11h07.35.954,forced_choiceRT_color,2021.2.3,Win32,60.0024001,,,,,,,,8,Fast,short,j,1,1.7232,2,2,10,2,1,,,,,
,0.07,,,,,,,,,d,orange,5fa4ce917648f90008a584ab,2021-10-22_11h07.35.954,forced_choiceRT_color,2021.2.3,Win32,60.0024001,,,,,,,,8,Ontime,short,d,1,2.0483,2,3,11,0,1,,,,,
,1.71,,,,,,,,,k,purple,5fa4ce917648f90008a584ab,2021-10-22_11h07.35.954,forced_choiceRT_color,2021.2.3,Win32,60.0024001,,,,,,,,8,Slow,short,k,1,2.1544,3,0,12,3,1,,,,,
,0.68,,,,,,,,,k,purple,5fa4ce917648f90008a584ab,2021-10-22_11h07.35.954,forced_choiceRT_color,2021.2.3,Win32,60.0024001,,,,,,,,8,Ontime,short,k,1,2.0934,3,1,13,3,1,,,,,
,1.93,,,,,,,,,j,red,5fa4ce917648f90008a584ab,2021-10-22_11h07.35.954,forced_choiceRT_color,2021.2.3,Win32,60.0024001,,,,,,,,8,Slow,short,j,1,2.4229,3,2,14,2,1,,,,,
,0.5,,,,,,,,,f,blue,5fa4ce917648f90008a584ab,2021-10-22_11h07.35.954,forced_choiceRT_color,2021.2.3,Win32,60.0024001,,,,,,,,8,Ontime,short,f,1,1.9689,3,3,15,1,1,,,,,
,0.06,,,,,,,,,f,blue,5fa4ce917648f90008a584ab,2021-10-22_11h07.35.954,forced_choiceRT_color,2021.2.3,Win32,60.0024001,,,,,,,,8,Ontime,short,f,1,2.0935,4,0,16,1,1,,,,,
,0.01,,,,,,,,,d,orange,5fa4ce917648f90008a584ab,2021-10-22_11h07.35.954,forced_choiceRT_color,2021.2.3,Win32,60.0024001,,,,,,,,8,Fast,short,d,1,1.7524,4,1,17,0,1,,,,,
,0.25,,,,,,,,,k,purple,5fa4ce917648f90008a584ab,2021-10-22_11h07.35.954,forced_choiceRT_color,2021.2.3,Win32,60.0024001,,,,,,,,8,Ontime,short,k,1,2.0381,4,2,18,3,1,,,,,
,1.35,,,,,,,,,j,red,5fa4ce917648f90008a584ab,2021-10-22_11h07.35.954,forced_choiceRT_color,2021.2.3,Win32,60.0024001,,,,,,,,8,Ontime,short,j,1,2.0225,4,3,19,2,1,,,,,
,0.28,,,,,,,,,d,orange,5fa4ce917648f90008a584ab,2021-10-22_11h07.35.954,forced_choiceRT_color,2021.2.3,Win32,60.0024001,,,,,,,,8,Ontime,short,d,1,1.9234,5,0,20,0,1,,,,,
,1.28,,,,,,,,,j,red,5fa4ce917648f90008a584ab,2021-10-22_11h07.35.954,forced_choiceRT_color,2021.2.3,Win32,60.0024001,,,,,,,,8,Slow,short,j,1,2.203,5,1,21,2,1,,,,,
,1.76,,,,,,,,,d,orange,5fa4ce917648f90008a584ab,2021-10-22_11h07.35.954,forced_choiceRT_color,2021.2.3,Win32,60.0024001,,,,,,,,8,Slow,short,k,0,2.2441,5,2,22,0,1,,,,,
,1.23,,,,,,,,,j,red,5fa4ce917648f90008a584ab,2021-10-22_11h07.35.954,forced_choiceRT_color,2021.2.3,Win32,60.0024001,,,,,,,,8,Slow,short,j,1,2.3715,5,3,23,2,1,,,,,
,0.1,,,,,,,,,d,orange,5fa4ce917648f90008a584ab,2021-10-22_11h07.35.954,forced_choiceRT_color,2021.2.3,Win32,60.0024001,,,,,,,,8,Fast,short,d,1,1.7693,6,0,24,0,1,,,,,
,1.95,,,,,,,,,j,red,5fa4ce917648f90008a584ab,2021-10-22_11h07.35.954,forced_choiceRT_color,2021.2.3,Win32,60.0024001,,,,,,,,8,Slow,short,k,0,2.7518,6,1,25,2,1,,,,,
,0.28,,,,,,,,,d,orange,5fa4ce917648f90008a584ab,2021-10-22_11h07.35.954,forced_choiceRT_color,2021.2.3,Win32,60.0024001,,,,,,,,8,Fast,short,d,1,1.7673,6,2,26,0,1,,,,,
,0.92,,,,,,,,,d,orange,5fa4ce917648f90008a584ab,2021-10-22_11h07.35.954,forced_choiceRT_color,2021.2.3,Win32,60.0024001,,,,,,,,8,Ontime,short,d,1,1.9525,6,3,27,0,1,,,,,
,1.93,,,,,,,,,d,orange,5fa4ce917648f90008a584ab,2021-10-22_11h07.35.954,forced_choiceRT_color,2021.2.3,Win32,60.0024001,,,,,,,,8,Slow,short,d,1,2.3358,7,0,28,0,1,,,,,
,0.16,,,,,,,,,f,blue,5fa4ce917648f90008a584ab,2021-10-22_11h07.35.954,forced_choiceRT_color,2021.2.3,Win32,60.0024001,,,,,,,,8,Fast,short,j,0,1.8022,7,1,29,1,1,,,,,
,0.15,,,,,,,,,f,blue,5fa4ce917648f90008a584ab,2021-10-22_11h07.35.954,forced_choiceRT_color,2021.2.3,Win32,60.0024001,,,,,,,,8,Ontime,short,f,1,1.9127,7,2,30,1,1,,,,,
,0.63,,,,,,,,,f,blue,5fa4ce917648f90008a584ab,2021-10-22_11h07.35.954,forced_choiceRT_color,2021.2.3,Win32,60.0024001,,,,,,,,8,Ontime,short,f,1,1.9022,7,3,31,1,1,,,,,
,1.15,,,,,,,,,k,purple,5fa4ce917648f90008a584ab,2021-10-22_11h07.35.954,forced_choiceRT_color,2021.2.3,Win32,60.0024001,,,,,,,,8,Ontime,short,k,1,1.9366,8,0,32,3,1,,,,,
,0.01,,,,,,,,,f,blue,5fa4ce917648f90008a584ab,2021-10-22_11h07.35.954,forced_choiceRT_color,2021.2.3,Win32,60.0024001,,,,,,,,8,Fast,short,f,1,1.8216,8,1,33,1,1,,,,,
,0.13,,,,,,,,,d,orange,5fa4ce917648f90008a584ab,2021-10-22_11h07.35.954,forced_choiceRT_color,2021.2.3,Win32,60.0024001,,,,,,,,8,Fast,short,d,1,1.7091,8,2,34,0,1,,,,,
,0.91,,,,,,,,,j,red,5fa4ce917648f90008a584ab,2021-10-22_11h07.35.954,forced_choiceRT_color,2021.2.3,Win32,60.0024001,,,,,,,,8,Ontime,short,j,1,1.9397,8,3,35,2,1,,,,,
,1.05,,,,,,,,,k,purple,5fa4ce917648f90008a584ab,2021-10-22_11h07.35.954,forced_choiceRT_color,2021.2.3,Win32,60.0024001,,,,,,,,8,Ontime,short,k,1,1.9375,9,0,36,3,1,,,,,
,1.89,,,,,,,,,k,purple,5fa4ce917648f90008a584ab,2021-10-22_11h07.35.954,forced_choiceRT_color,2021.2.3,Win32,60.0024001,,,,,,,,8,Slow,short,k,1,2.4538,9,1,37,3,1,,,,,
,1.47,,,,,,,,,k,purple,5fa4ce917648f90008a584ab,2021-10-22_11h07.35.954,forced_choiceRT_color,2021.2.3,Win32,60.0024001,,,,,,,,8,Fast,short,k,1,1.8902,9,2,38,3,1,,,,,
,1.21,,,,,,,,,j,red,5fa4ce917648f90008a584ab,2021-10-22_11h07.35.954,forced_choiceRT_color,2021.2.3,Win32,60.0024001,,,,,,,,8,Ontime,short,j,1,1.9897,9,3,39,2,1,,,,,
,,,,,,,,,,,,5fa4ce917648f90008a584ab,2021-10-22_11h07.35.954,forced_choiceRT_color,2021.2.3,Win32,60.0024001,,,,,,,,,,,,,,,,,,,7,0,7,0,1
,0.6,,,,,,,,,k,purple,5fa4ce917648f90008a584ab,2021-10-22_11h07.35.954,forced_choiceRT_color,2021.2.3,Win32,60.0024001,,,,,,,,9,Fast,short,k,1,1.1441,0,0,0,3,1,,,,,
,0.04,,,,,,,,,j,red,5fa4ce917648f90008a584ab,2021-10-22_11h07.35.954,forced_choiceRT_color,2021.2.3,Win32,60.0024001,,,,,,,,9,Ontime,short,j,1,2.0231,0,1,1,2,1,,,,,
,1.6,,,,,,,,,d,orange,5fa4ce917648f90008a584ab,2021-10-22_11h07.35.954,forced_choiceRT_color,2021.2.3,Win32,60.0024001,,,,,,,,9,Slow,short,d,1,2.276,0,2,2,0,1,,,,,
,1.25,,,,,,,,,k,purple,5fa4ce917648f90008a584ab,2021-10-22_11h07.35.954,forced_choiceRT_color,2021.2.3,Win32,60.0024001,,,,,,,,9,Ontime,short,k,1,1.9702,0,3,3,3,1,,,,,
,1.04,,,,,,,,,j,red,5fa4ce917648f90008a584ab,2021-10-22_11h07.35.954,forced_choiceRT_color,2021.2.3,Win32,60.0024001,,,,,,,,9,Fast,short,j,1,1.872,1,0,4,2,1,,,,,
,1.47,,,,,,,,,f,blue,5fa4ce917648f90008a584ab,2021-10-22_11h07.35.954,forced_choiceRT_color,2021.2.3,Win32,60.0024001,,,,,,,,9,Slow,short,f,1,2.4695,1,1,5,1,1,,,,,
,0.12,,,,,,,,,d,orange,5fa4ce917648f90008a584ab,2021-10-22_11h07.35.954,forced_choiceRT_color,2021.2.3,Win32,60.0024001,,,,,,,,9,Ontime,short,d,1,2.0653,1,2,6,0,1,,,,,
,1.98,,,,,,,,,k,purple,5fa4ce917648f90008a584ab,2021-10-22_11h07.35.954,forced_choiceRT_color,2021.2.3,Win32,60.0024001,,,,,,,,9,Slow,short,k,1,2.6713,1,3,7,3,1,,,,,
,0.75,,,,,,,,,d,orange,5fa4ce917648f90008a584ab,2021-10-22_11h07.35.954,forced_choiceRT_color,2021.2.3,Win32,60.0024001,,,,,,,,9,Fast,short,d,1,1.7249,2,0,8,0,1,,,,,
,1.33,,,,,,,,,f,blue,5fa4ce917648f90008a584ab,2021-10-22_11h07.35.954,forced_choiceRT_color,2021.2.3,Win32,60.0024001,,,,,,,,9,Slow,short,j,0,3.0894,2,1,9,1,1,,,,,
,0.22,,,,,,,,,f,blue,5fa4ce917648f90008a584ab,2021-10-22_11h07.35.954,forced_choiceRT_color,2021.2.3,Win32,60.0024001,,,,,,,,9,Ontime,short,f,1,2.0539,2,2,10,1,1,,,,,
,1.09,,,,,,,,,f,blue,5fa4ce917648f90008a584ab,2021-10-22_11h07.35.954,forced_choiceRT_color,2021.2.3,Win32,60.0024001,,,,,,,,9,Ontime,short,f,1,1.9593,2,3,11,1,1,,,,,
,1.33,,,,,,,,,k,purple,5fa4ce917648f90008a584ab,2021-10-22_11h07.35.954,forced_choiceRT_color,2021.2.3,Win32,60.0024001,,,,,,,,9,Ontime,short,k,1,1.9751,3,0,12,3,1,,,,,
,0.53,,,,,,,,,j,red,5fa4ce917648f90008a584ab,2021-10-22_11h07.35.954,forced_choiceRT_color,2021.2.3,Win32,60.0024001,,,,,,,,9,Fast,short,d,0,1.638,3,1,13,2,1,,,,,
,1.43,,,,,,,,,d,orange,5fa4ce917648f90008a584ab,2021-10-22_11h07.35.954,forced_choiceRT_color,2021.2.3,Win32,60.0024001,,,,,,,,9,Ontime,short,d,1,2.003,3,2,14,0,1,,,,,
,1.68,,,,,,,,,d,orange,5fa4ce917648f90008a584ab,2021-10-22_11h07.35.954,forced_choiceRT_color,2021.2.3,Win32,60.0024001,,,,,,,,9,Slow,short,d,1,2.2673,3,3,15,0,1,,,,,
,1,,,,,,,,,j,red,5fa4ce917648f90008a584ab,2021-10-22_11h07.35.954,forced_choiceRT_color,2021.2.3,Win32,60.0024001,,,,,,,,9,Fast,short,j,1,1.7816,4,0,16,2,1,,,,,
,1.36,,,,,,,,,j,red,5fa4ce917648f90008a584ab,2021-10-22_11h07.35.954,forced_choiceRT_color,2021.2.3,Win32,60.0024001,,,,,,,,9,Ontime,short,j,1,2.0905,4,1,17,2,1,,,,,
,0.57,,,,,,,,,j,red,5fa4ce917648f90008a584ab,2021-10-22_11h07.35.954,forced_choiceRT_color,2021.2.3,Win32,60.0024001,,,,,,,,9,Fast,short,j,1,1.7165,4,2,18,2,1,,,,,
,1.69,,,,,,,,,k,purple,5fa4ce917648f90008a584ab,2021-10-22_11h07.35.954,forced_choiceRT_color,2021.2.3,Win32,60.0024001,,,,,,,,9,Slow,short,k,1,2.1541,4,3,19,3,1,,,,,
,1.01,,,,,,,,,f,blue,5fa4ce917648f90008a584ab,2021-10-22_11h07.35.954,forced_choiceRT_color,2021.2.3,Win32,60.0024001,,,,,,,,9,Ontime,short,f,1,1.9165,5,0,20,1,1,,,,,
,0.81,,,,,,,,,k,purple,5fa4ce917648f90008a584ab,2021-10-22_11h07.35.954,forced_choiceRT_color,2021.2.3,Win32,60.0024001,,,,,,,,9,Fast,short,k,1,1.6157,5,1,21,3,1,,,,,
,1.74,,,,,,,,,f,blue,5fa4ce917648f90008a584ab,2021-10-22_11h07.35.954,forced_choiceRT_color,2021.2.3,Win32,60.0024001,,,,,,,,9,Slow,short,f,1,2.584,5,2,22,1,1,,,,,
,0.7,,,,,,,,,k,purple,5fa4ce917648f90008a584ab,2021-10-22_11h07.35.954,forced_choiceRT_color,2021.2.3,Win32,60.0024001,,,,,,,,9,Ontime,short,k,1,1.9048,5,3,23,3,1,,,,,
,0.25,,,,,,,,,k,purple,5fa4ce917648f90008a584ab,2021-10-22_11h07.35.954,forced_choiceRT_color,2021.2.3,Win32,60.0024001,,,,,,,,9,Fast,short,k,1,1.7846,6,0,24,3,1,,,,,
,0.97,,,,,,,,,d,orange,5fa4ce917648f90008a584ab,2021-10-22_11h07.35.954,forced_choiceRT_color,2021.2.3,Win32,60.0024001,,,,,,,,9,Ontime,short,d,1,1.9334,6,1,25,0,1,,,,,
,0.65,,,,,,,,,f,blue,5fa4ce917648f90008a584ab,2021-10-22_11h07.35.954,forced_choiceRT_color,2021.2.3,Win32,60.0024001,,,,,,,,9,Fast,short,f,1,1.7863,6,2,26,1,1,,,,,
,0.88,,,,,,,,,d,orange,5fa4ce917648f90008a584ab,2021-10-22_11h07.35.954,forced_choiceRT_color,2021.2.3,Win32,60.0024001,,,,,,,,9,Fast,short,d,1,1.8199,6,3,27,0,1,,,,,
,0.94,,,,,,,,,f,blue,5fa4ce917648f90008a584ab,2021-10-22_11h07.35.954,forced_choiceRT_color,2021.2.3,Win32,60.0024001,,,,,,,,9,Slow,short,f,1,2.1705,7,0,28,1,1,,,,,
,1.61,,,,,,,,,j,red,5fa4ce917648f90008a584ab,2021-10-22_11h07.35.954,forced_choiceRT_color,2021.2.3,Win32,60.0024001,,,,,,,,9,Slow,short,j,1,2.2161,7,1,29,2,1,,,,,
,1.75,,,,,,,,,d,orange,5fa4ce917648f90008a584ab,2021-10-22_11h07.35.954,forced_choiceRT_color,2021.2.3,Win32,60.0024001,,,,,,,,9,Slow,short,d,1,2.2868,7,2,30,0,1,,,,,
,0.79,,,,,,,,,k,purple,5fa4ce917648f90008a584ab,2021-10-22_11h07.35.954,forced_choiceRT_color,2021.2.3,Win32,60.0024001,,,,,,,,9,Slow,short,k,1,2.7948,7,3,31,3,1,,,,,
,0.43,,,,,,,,,j,red,5fa4ce917648f90008a584ab,2021-10-22_11h07.35.954,forced_choiceRT_color,2021.2.3,Win32,60.0024001,,,,,,,,9,Ontime,short,j,1,1.9185,8,0,32,2,1,,,,,
,1.85,,,,,,,,,f,blue,5fa4ce917648f90008a584ab,2021-10-22_11h07.35.954,forced_choiceRT_color,2021.2.3,Win32,60.0024001,,,,,,,,9,Slow,short,f,1,2.4539,8,1,33,1,1,,,,,
,0.43,,,,,,,,,f,blue,5fa4ce917648f90008a584ab,2021-10-22_11h07.35.954,forced_choiceRT_color,2021.2.3,Win32,60.0024001,,,,,,,,9,Ontime,short,f,1,1.9644,8,2,34,1,1,,,,,
,0.69,,,,,,,,,j,red,5fa4ce917648f90008a584ab,2021-10-22_11h07.35.954,forced_choiceRT_color,2021.2.3,Win32,60.0024001,,,,,,,,9,Fast,short,j,1,1.7532,8,3,35,2,1,,,,,
,1.43,,,,,,,,,j,red,5fa4ce917648f90008a584ab,2021-10-22_11h07.35.954,forced_choiceRT_color,2021.2.3,Win32,60.0024001,,,,,,,,9,Ontime,short,j,1,2.0918,9,0,36,2,1,,,,,
,0.29,,,,,,,,,k,purple,5fa4ce917648f90008a584ab,2021-10-22_11h07.35.954,forced_choiceRT_color,2021.2.3,Win32,60.0024001,,,,,,,,9,Ontime,short,k,1,1.9729,9,1,37,3,1,,,,,
,0.56,,,,,,,,,d,orange,5fa4ce917648f90008a584ab,2021-10-22_11h07.35.954,forced_choiceRT_color,2021.2.3,Win32,60.0024001,,,,,,,,9,Ontime,short,d,1,2.0043,9,2,38,0,1,,,,,
,1.68,,,,,,,,,d,orange,5fa4ce917648f90008a584ab,2021-10-22_11h07.35.954,forced_choiceRT_color,2021.2.3,Win32,60.0024001,,,,,,,,9,Slow,short,f,0,2.1007,9,3,39,0,1,,,,,
,,,,,,,,,,,,5fa4ce917648f90008a584ab,2021-10-22_11h07.35.954,forced_choiceRT_color,2021.2.3,Win32,60.0024001,,,,,,,,,,,,,,,,,,,8,0,8,0,1
,0.55,,,,,,,,,d,orange,5fa4ce917648f90008a584ab,2021-10-22_11h07.35.954,forced_choiceRT_color,2021.2.3,Win32,60.0024001,,,,,,,,10,Fast,short,d,1,1.8639,0,0,0,0,1,,,,,
,0.05,,,,,,,,,f,blue,5fa4ce917648f90008a584ab,2021-10-22_11h07.35.954,forced_choiceRT_color,2021.2.3,Win32,60.0024001,,,,,,,,10,Ontime,short,f,1,1.9996,0,1,1,1,1,,,,,
,0.57,,,,,,,,,j,red,5fa4ce917648f90008a584ab,2021-10-22_11h07.35.954,forced_choiceRT_color,2021.2.3,Win32,60.0024001,,,,,,,,10,Fast,short,j,1,1.8862,0,2,2,2,1,,,,,
,1.94,,,,,,,,,d,orange,5fa4ce917648f90008a584ab,2021-10-22_11h07.35.954,forced_choiceRT_color,2021.2.3,Win32,60.0024001,,,,,,,,10,Slow,short,d,1,2.4426,0,3,3,0,1,,,,,
,0.9,,,,,,,,,j,red,5fa4ce917648f90008a584ab,2021-10-22_11h07.35.954,forced_choiceRT_color,2021.2.3,Win32,60.0024001,,,,,,,,10,Ontime,short,j,1,2.0451,1,0,4,2,1,,,,,
,0.67,,,,,,,,,j,red,5fa4ce917648f90008a584ab,2021-10-22_11h07.35.954,forced_choiceRT_color,2021.2.3,Win32,60.0024001,,,,,,,,10,Ontime,short,j,1,2.06,1,1,5,2,1,,,,,
,1.78,,,,,,,,,d,orange,5fa4ce917648f90008a584ab,2021-10-22_11h07.35.954,forced_choiceRT_color,2021.2.3,Win32,60.0024001,,,,,,,,10,Slow,short,d,1,2.1535,1,2,6,0,1,,,,,
,1.17,,,,,,,,,k,purple,5fa4ce917648f90008a584ab,2021-10-22_11h07.35.954,forced_choiceRT_color,2021.2.3,Win32,60.0024001,,,,,,,,10,Slow,short,k,1,2.1386,1,3,7,3,1,,,,,
,1.9,,,,,,,,,f,blue,5fa4ce917648f90008a584ab,2021-10-22_11h07.35.954,forced_choiceRT_color,2021.2.3,Win32,60.0024001,,,,,,,,10,Slow,short,j,0,2.3834,2,0,8,1,1,,,,,
,0.12,,,,,,,,,d,orange,5fa4ce917648f90008a584ab,2021-10-22_11h07.35.954,forced_choiceRT_color,2021.2.3,Win32,60.0024001,,,,,,,,10,Ontime,short,d,1,1.9702,2,1,9,0,1,,,,,
,1.17,,,,,,,,,f,blue,5fa4ce917648f90008a584ab,2021-10-22_11h07.35.954,forced_choiceRT_color,2021.2.3,Win32,60.0024001,,,,,,,,10,Ontime,short,f,1,2.0054,2,2,10,1,1,,,,,
,1.69,,,,,,,,,k,purple,5fa4ce917648f90008a584ab,2021-10-22_11h07.35.954,forced_choiceRT_color,2021.2.3,Win32,60.0024001,,,,,,,,10,Slow,short,k,1,2.4202,2,3,11,3,1,,,,,
,0.86,,,,,,,,,j,red,5fa4ce917648f90008a584ab,2021-10-22_11h07.35.954,forced_choiceRT_color,2021.2.3,Win32,60.0024001,,,,,,,,10,Slow,short,j,1,2.1223,3,0,12,2,1,,,,,
,1.27,,,,,,,,,k,purple,5fa4ce917648f90008a584ab,2021-10-22_11h07.35.954,forced_choiceRT_color,2021.2.3,Win32,60.0024001,,,,,,,,10,Ontime,short,k,1,1.9647,3,1,13,3,1,,,,,
,0.26,,,,,,,,,j,red,5fa4ce917648f90008a584ab,2021-10-22_11h07.35.954,forced_choiceRT_color,2021.2.3,Win32,60.0024001,,,,,,,,10,Ontime,short,j,1,1.9871,3,2,14,2,1,,,,,
,1.95,,,,,,,,,k,purple,5fa4ce917648f90008a584ab,2021-10-22_11h07.35.954,forced_choiceRT_color,2021.2.3,Win32,60.0024001,,,,,,,,10,Slow,short,k,1,2.571,3,3,15,3,1,,,,,
,1.2,,,,,,,,,k,purple,5fa4ce917648f90008a584ab,2021-10-22_11h07.35.954,forced_choiceRT_color,2021.2.3,Win32,60.0024001,,,,,,,,10,Ontime,short,k,1,2.0583,4,0,16,3,1,,,,,
,1.75,,,,,,,,,f,blue,5fa4ce917648f90008a584ab,2021-10-22_11h07.35.954,forced_choiceRT_color,2021.2.3,Win32,60.0024001,,,,,,,,10,Slow,short,f,1,2.5377,4,1,17,1,1,,,,,
,1.59,,,,,,,,,d,orange,5fa4ce917648f90008a584ab,2021-10-22_11h07.35.954,forced_choiceRT_color,2021.2.3,Win32,60.0024001,,,,,,,,10,Slow,short,d,1,2.1043,4,2,18,0,1,,,,,
,0.49,,,,,,,,,f,blue,5fa4ce917648f90008a584ab,2021-10-22_11h07.35.954,forced_choiceRT_color,2021.2.3,Win32,60.0024001,,,,,,,,10,Ontime,short,f,1,1.9705,4,3,19,1,1,,,,,
,0.45,,,,,,,,,d,orange,5fa4ce917648f90008a584ab,2021-10-22_11h07.35.954,forced_choiceRT_color,2021.2.3,Win32,60.0024001,,,,,,,,10,Fast,short,d,1,1.8504,5,0,20,0,1,,,,,
,0.6,,,,,,,,,k,purple,5fa4ce917648f90008a584ab,2021-10-22_11h07.35.954,forced_choiceRT_color,2021.2.3,Win32,60.0024001,,,,,,,,10,Fast,short,k,1,1.6723,5,1,21,3,1,,,,,
,1.47,,,,,,,,,d,orange,5fa4ce917648f90008a584ab,2021-10-22_11h07.35.954,forced_choiceRT_color,2021.2.3,Win32,60.0024001,,,,,,,,10,Ontime,short,f,0,1.9996,5,2,22,0,1,,,,,
,1.3,,,,,,,,,j,red,5fa4ce917648f90008a584ab,2021-10-22_11h07.35.954,forced_choiceRT_color,2021.2.3,Win32,60.0024001,,,,,,,,10,Ontime,short,j,1,1.9013,5,3,23,2,1,,,,,
,1.78,,,,,,,,,f,blue,5fa4ce917648f90008a584ab,2021-10-22_11h07.35.954,forced_choiceRT_color,2021.2.3,Win32,60.0024001,,,,,,,,10,Slow,short,f,1,3.294,6,0,24,1,1,,,,,
,0.95,,,,,,,,,j,red,5fa4ce917648f90008a584ab,2021-10-22_11h07.35.954,forced_choiceRT_color,2021.2.3,Win32,60.0024001,,,,,,,,10,Ontime,short,j,1,1.9326,6,1,25,2,1,,,,,
,1.07,,,,,,,,,f,blue,5fa4ce917648f90008a584ab,2021-10-22_11h07.35.954,forced_choiceRT_color,2021.2.3,Win32,60.0024001,,,,,,,,10,Slow,short,f,1,2.1936,6,2,26,1,1,,,,,
,1.41,,,,,,,,,k,purple,5fa4ce917648f90008a584ab,2021-10-22_11h07.35.954,forced_choiceRT_color,2021.2.3,Win32,60.0024001,,,,,,,,10,Ontime,short,k,1,2.0639,6,3,27,3,1,,,,,
,0.85,,,,,,,,,d,orange,5fa4ce917648f90008a584ab,2021-10-22_11h07.35.954,forced_choiceRT_color,2021.2.3,Win32,60.0024001,,,,,,,,10,Ontime,short,d,1,1.9191,7,0,28,0,1,,,,,
,1.38,,,,,,,,,k,purple,5fa4ce917648f90008a584ab,2021-10-22_11h07.35.954,forced_choiceRT_color,2021.2.3,Win32,60.0024001,,,,,,,,10,Slow,short,k,1,2.2545,7,1,29,3,1,,,,,
,0.87,,,,,,,,,f,blue,5fa4ce917648f90008a584ab,2021-10-22_11h07.35.954,forced_choiceRT_color,2021.2.3,Win32,60.0024001,,,,,,,,10,Fast,short,f,1,1.4371,7,2,30,1,1,,,,,
,0.84,,,,,,,,,k,purple,5fa4ce917648f90008a584ab,2021-10-22_11h07.35.954,forced_choiceRT_color,2021.2.3,Win32,60.0024001,,,,,,,,10,Ontime,short,k,1,2.0354,7,3,31,3,1,,,,,
,1.62,,,,,,,,,j,red,5fa4ce917648f90008a584ab,2021-10-22_11h07.35.954,forced_choiceRT_color,2021.2.3,Win32,60.0024001,,,,,,,,10,Slow,short,f,0,2.17,8,0,32,2,1,,,,,
,1.9,,,,,,,,,j,red,5fa4ce917648f90008a584ab,2021-10-22_11h07.35.954,forced_choiceRT_color,2021.2.3,Win32,60.0024001,,,,,,,,10,Slow,short,j,1,2.4432,8,1,33,2,1,,,,,
,0.61,,,,,,,,,j,red,5fa4ce917648f90008a584ab,2021-10-22_11h07.35.954,forced_choiceRT_color,2021.2.3,Win32,60.0024001,,,,,,,,10,Ontime,short,j,1,2.095,8,2,34,2,1,,,,,
,1.33,,,,,,,,,f,blue,5fa4ce917648f90008a584ab,2021-10-22_11h07.35.954,forced_choiceRT_color,2021.2.3,Win32,60.0024001,,,,,,,,10,Ontime,short,f,1,2.0585,8,3,35,1,1,,,,,
,1.97,,,,,,,,,d,orange,5fa4ce917648f90008a584ab,2021-10-22_11h07.35.954,forced_choiceRT_color,2021.2.3,Win32,60.0024001,,,,,,,,10,Slow,short,d,1,2.5041,9,0,36,0,1,,,,,
,1.5,,,,,,,,,d,orange,5fa4ce917648f90008a584ab,2021-10-22_11h07.35.954,forced_choiceRT_color,2021.2.3,Win32,60.0024001,,,,,,,,10,Ontime,short,f,0,1.9833,9,1,37,0,1,,,,,
,1.13,,,,,,,,,f,blue,5fa4ce917648f90008a584ab,2021-10-22_11h07.35.954,forced_choiceRT_color,2021.2.3,Win32,60.0024001,,,,,,,,10,Fast,short,f,1,1.7698,9,2,38,1,1,,,,,
,1.78,,,,,,,,,k,purple,5fa4ce917648f90008a584ab,2021-10-22_11h07.35.954,forced_choiceRT_color,2021.2.3,Win32,60.0024001,,,,,,,,10,Slow,short,k,1,2.2954,9,3,39,3,1,,,,,
,,,,,,,,,,,,5fa4ce917648f90008a584ab,2021-10-22_11h07.35.954,forced_choiceRT_color,2021.2.3,Win32,60.0024001,,,,,,,,,,,,,,,,,,,9,0,9,0,1
