target_onset,trial_resp_sp.keys,trial_resp_sp.corr,trial_resp_sp.rt,trials_train_loop.thisRepN,trials_train_loop.thisTrialN,trials_train_loop.thisN,trials_train_loop.thisIndex,trials_train_loop.ran,correct_key,color,participant,date,expName,psychopyVersion,OS,frameRate,trial_resp_timing.keys,trial_resp_timing.rt,trials_train_timing.thisRepN,trials_train_timing.thisTrialN,trials_train_timing.thisN,trials_train_timing.thisIndex,trials_train_timing.ran,block_id,ontime,feedback_cond,forcedRT_resp.keys,forcedRT_resp.corr,forcedRT_resp.rt,trials.thisRepN,trials.thisTrialN,trials.thisN,trials.thisIndex,trials.ran,blocks.thisRepN,blocks.thisTrialN,blocks.thisN,blocks.thisIndex,blocks.ran
0,d,1,0.9533,0,0,0,0,1,d,orange,5fadeb340e10471fdeb5fbf5,2021-09-28_09h44.13.294,forced_choiceRT_color,2021.2.3,MacIntel,60.0024001,,,,,,,,,,,,,,,,,,,,,,,
0,j,1,1.3821,0,1,1,2,1,j,red,5fadeb340e10471fdeb5fbf5,2021-09-28_09h44.13.294,forced_choiceRT_color,2021.2.3,MacIntel,60.0024001,,,,,,,,,,,,,,,,,,,,,,,
0,d,1,1.1352,0,2,2,0,1,d,orange,5fadeb340e10471fdeb5fbf5,2021-09-28_09h44.13.294,forced_choiceRT_color,2021.2.3,MacIntel,60.0024001,,,,,,,,,,,,,,,,,,,,,,,
0,d,1,0.8487,0,3,3,0,1,d,orange,5fadeb340e10471fdeb5fbf5,2021-09-28_09h44.13.294,forced_choiceRT_color,2021.2.3,MacIntel,60.0024001,,,,,,,,,,,,,,,,,,,,,,,
0,f,1,0.8005,1,0,4,1,1,f,blue,5fadeb340e10471fdeb5fbf5,2021-09-28_09h44.13.294,forced_choiceRT_color,2021.2.3,MacIntel,60.0024001,,,,,,,,,,,,,,,,,,,,,,,
0,j,1,0.8343,1,1,5,2,1,j,red,5fadeb340e10471fdeb5fbf5,2021-09-28_09h44.13.294,forced_choiceRT_color,2021.2.3,MacIntel,60.0024001,,,,,,,,,,,,,,,,,,,,,,,
0,f,1,1.1836,1,2,6,1,1,f,blue,5fadeb340e10471fdeb5fbf5,2021-09-28_09h44.13.294,forced_choiceRT_color,2021.2.3,MacIntel,60.0024001,,,,,,,,,,,,,,,,,,,,,,,
0,j,1,1.2162,1,3,7,2,1,j,red,5fadeb340e10471fdeb5fbf5,2021-09-28_09h44.13.294,forced_choiceRT_color,2021.2.3,MacIntel,60.0024001,,,,,,,,,,,,,,,,,,,,,,,
0,k,1,1.0023,2,0,8,3,1,k,purple,5fadeb340e10471fdeb5fbf5,2021-09-28_09h44.13.294,forced_choiceRT_color,2021.2.3,MacIntel,60.0024001,,,,,,,,,,,,,,,,,,,,,,,
0,d,0,1.0423,2,1,9,1,1,f,blue,5fadeb340e10471fdeb5fbf5,2021-09-28_09h44.13.294,forced_choiceRT_color,2021.2.3,MacIntel,60.0024001,,,,,,,,,,,,,,,,,,,,,,,
0,j,1,1.3857,2,2,10,2,1,j,red,5fadeb340e10471fdeb5fbf5,2021-09-28_09h44.13.294,forced_choiceRT_color,2021.2.3,MacIntel,60.0024001,,,,,,,,,,,,,,,,,,,,,,,
0,k,1,0.9982,2,3,11,3,1,k,purple,5fadeb340e10471fdeb5fbf5,2021-09-28_09h44.13.294,forced_choiceRT_color,2021.2.3,MacIntel,60.0024001,,,,,,,,,,,,,,,,,,,,,,,
0,d,1,0.9535,3,0,12,0,1,d,orange,5fadeb340e10471fdeb5fbf5,2021-09-28_09h44.13.294,forced_choiceRT_color,2021.2.3,MacIntel,60.0024001,,,,,,,,,,,,,,,,,,,,,,,
0,j,1,0.917,3,1,13,2,1,j,red,5fadeb340e10471fdeb5fbf5,2021-09-28_09h44.13.294,forced_choiceRT_color,2021.2.3,MacIntel,60.0024001,,,,,,,,,,,,,,,,,,,,,,,
0,j,1,0.6787,3,2,14,2,1,j,red,5fadeb340e10471fdeb5fbf5,2021-09-28_09h44.13.294,forced_choiceRT_color,2021.2.3,MacIntel,60.0024001,,,,,,,,,,,,,,,,,,,,,,,
0,k,1,0.9012,3,3,15,3,1,k,purple,5fadeb340e10471fdeb5fbf5,2021-09-28_09h44.13.294,forced_choiceRT_color,2021.2.3,MacIntel,60.0024001,,,,,,,,,,,,,,,,,,,,,,,
0,k,1,0.6891,4,0,16,3,1,k,purple,5fadeb340e10471fdeb5fbf5,2021-09-28_09h44.13.294,forced_choiceRT_color,2021.2.3,MacIntel,60.0024001,,,,,,,,,,,,,,,,,,,,,,,
0,f,1,2.2377,4,1,17,1,1,f,blue,5fadeb340e10471fdeb5fbf5,2021-09-28_09h44.13.294,forced_choiceRT_color,2021.2.3,MacIntel,60.0024001,,,,,,,,,,,,,,,,,,,,,,,
0,d,1,0.9683,4,2,18,0,1,d,orange,5fadeb340e10471fdeb5fbf5,2021-09-28_09h44.13.294,forced_choiceRT_color,2021.2.3,MacIntel,60.0024001,,,,,,,,,,,,,,,,,,,,,,,
0,k,1,3.1189,4,3,19,3,1,k,purple,5fadeb340e10471fdeb5fbf5,2021-09-28_09h44.13.294,forced_choiceRT_color,2021.2.3,MacIntel,60.0024001,,,,,,,,,,,,,,,,,,,,,,,
0,k,1,0.6379,5,0,20,3,1,k,purple,5fadeb340e10471fdeb5fbf5,2021-09-28_09h44.13.294,forced_choiceRT_color,2021.2.3,MacIntel,60.0024001,,,,,,,,,,,,,,,,,,,,,,,
0,f,1,1.0919,5,1,21,1,1,f,blue,5fadeb340e10471fdeb5fbf5,2021-09-28_09h44.13.294,forced_choiceRT_color,2021.2.3,MacIntel,60.0024001,,,,,,,,,,,,,,,,,,,,,,,
0,d,1,1.036,5,2,22,0,1,d,orange,5fadeb340e10471fdeb5fbf5,2021-09-28_09h44.13.294,forced_choiceRT_color,2021.2.3,MacIntel,60.0024001,,,,,,,,,,,,,,,,,,,,,,,
0,f,1,0.9089,5,3,23,1,1,f,blue,5fadeb340e10471fdeb5fbf5,2021-09-28_09h44.13.294,forced_choiceRT_color,2021.2.3,MacIntel,60.0024001,,,,,,,,,,,,,,,,,,,,,,,
0,f,1,0.605,6,0,24,1,1,f,blue,5fadeb340e10471fdeb5fbf5,2021-09-28_09h44.13.294,forced_choiceRT_color,2021.2.3,MacIntel,60.0024001,,,,,,,,,,,,,,,,,,,,,,,
0,k,1,1.6794,6,1,25,3,1,k,purple,5fadeb340e10471fdeb5fbf5,2021-09-28_09h44.13.294,forced_choiceRT_color,2021.2.3,MacIntel,60.0024001,,,,,,,,,,,,,,,,,,,,,,,
0,j,1,1.3415,6,2,26,2,1,j,red,5fadeb340e10471fdeb5fbf5,2021-09-28_09h44.13.294,forced_choiceRT_color,2021.2.3,MacIntel,60.0024001,,,,,,,,,,,,,,,,,,,,,,,
0,d,1,0.7988,6,3,27,0,1,d,orange,5fadeb340e10471fdeb5fbf5,2021-09-28_09h44.13.294,forced_choiceRT_color,2021.2.3,MacIntel,60.0024001,,,,,,,,,,,,,,,,,,,,,,,
0,j,1,1.0106,7,0,28,2,1,j,red,5fadeb340e10471fdeb5fbf5,2021-09-28_09h44.13.294,forced_choiceRT_color,2021.2.3,MacIntel,60.0024001,,,,,,,,,,,,,,,,,,,,,,,
0,j,1,0.5716,7,1,29,2,1,j,red,5fadeb340e10471fdeb5fbf5,2021-09-28_09h44.13.294,forced_choiceRT_color,2021.2.3,MacIntel,60.0024001,,,,,,,,,,,,,,,,,,,,,,,
0,d,1,0.7359,7,2,30,0,1,d,orange,5fadeb340e10471fdeb5fbf5,2021-09-28_09h44.13.294,forced_choiceRT_color,2021.2.3,MacIntel,60.0024001,,,,,,,,,,,,,,,,,,,,,,,
0,d,1,0.6529,7,3,31,0,1,d,orange,5fadeb340e10471fdeb5fbf5,2021-09-28_09h44.13.294,forced_choiceRT_color,2021.2.3,MacIntel,60.0024001,,,,,,,,,,,,,,,,,,,,,,,
0,k,1,0.8059,8,0,32,3,1,k,purple,5fadeb340e10471fdeb5fbf5,2021-09-28_09h44.13.294,forced_choiceRT_color,2021.2.3,MacIntel,60.0024001,,,,,,,,,,,,,,,,,,,,,,,
0,j,1,0.7373,8,1,33,2,1,j,red,5fadeb340e10471fdeb5fbf5,2021-09-28_09h44.13.294,forced_choiceRT_color,2021.2.3,MacIntel,60.0024001,,,,,,,,,,,,,,,,,,,,,,,
0,j,1,0.5202,8,2,34,2,1,j,red,5fadeb340e10471fdeb5fbf5,2021-09-28_09h44.13.294,forced_choiceRT_color,2021.2.3,MacIntel,60.0024001,,,,,,,,,,,,,,,,,,,,,,,
0,f,1,1.3925,8,3,35,1,1,f,blue,5fadeb340e10471fdeb5fbf5,2021-09-28_09h44.13.294,forced_choiceRT_color,2021.2.3,MacIntel,60.0024001,,,,,,,,,,,,,,,,,,,,,,,
0,d,1,0.7843,9,0,36,0,1,d,orange,5fadeb340e10471fdeb5fbf5,2021-09-28_09h44.13.294,forced_choiceRT_color,2021.2.3,MacIntel,60.0024001,,,,,,,,,,,,,,,,,,,,,,,
0,f,1,0.8787,9,1,37,1,1,f,blue,5fadeb340e10471fdeb5fbf5,2021-09-28_09h44.13.294,forced_choiceRT_color,2021.2.3,MacIntel,60.0024001,,,,,,,,,,,,,,,,,,,,,,,
0,f,1,0.6522,9,2,38,1,1,f,blue,5fadeb340e10471fdeb5fbf5,2021-09-28_09h44.13.294,forced_choiceRT_color,2021.2.3,MacIntel,60.0024001,,,,,,,,,,,,,,,,,,,,,,,
0,j,1,0.5924,9,3,39,2,1,j,red,5fadeb340e10471fdeb5fbf5,2021-09-28_09h44.13.294,forced_choiceRT_color,2021.2.3,MacIntel,60.0024001,,,,,,,,,,,,,,,,,,,,,,,
0,j,1,0.5585,10,0,40,2,1,j,red,5fadeb340e10471fdeb5fbf5,2021-09-28_09h44.13.294,forced_choiceRT_color,2021.2.3,MacIntel,60.0024001,,,,,,,,,,,,,,,,,,,,,,,
0,k,1,0.7206,10,1,41,3,1,k,purple,5fadeb340e10471fdeb5fbf5,2021-09-28_09h44.13.294,forced_choiceRT_color,2021.2.3,MacIntel,60.0024001,,,,,,,,,,,,,,,,,,,,,,,
0,k,1,0.6594,10,2,42,3,1,k,purple,5fadeb340e10471fdeb5fbf5,2021-09-28_09h44.13.294,forced_choiceRT_color,2021.2.3,MacIntel,60.0024001,,,,,,,,,,,,,,,,,,,,,,,
0,k,1,0.5263,10,3,43,3,1,k,purple,5fadeb340e10471fdeb5fbf5,2021-09-28_09h44.13.294,forced_choiceRT_color,2021.2.3,MacIntel,60.0024001,,,,,,,,,,,,,,,,,,,,,,,
0,f,1,0.8572,11,0,44,1,1,f,blue,5fadeb340e10471fdeb5fbf5,2021-09-28_09h44.13.294,forced_choiceRT_color,2021.2.3,MacIntel,60.0024001,,,,,,,,,,,,,,,,,,,,,,,
0,d,1,0.8256,11,1,45,0,1,d,orange,5fadeb340e10471fdeb5fbf5,2021-09-28_09h44.13.294,forced_choiceRT_color,2021.2.3,MacIntel,60.0024001,,,,,,,,,,,,,,,,,,,,,,,
0,j,1,0.7052,11,2,46,2,1,j,red,5fadeb340e10471fdeb5fbf5,2021-09-28_09h44.13.294,forced_choiceRT_color,2021.2.3,MacIntel,60.0024001,,,,,,,,,,,,,,,,,,,,,,,
0,d,1,1.2617,11,3,47,0,1,d,orange,5fadeb340e10471fdeb5fbf5,2021-09-28_09h44.13.294,forced_choiceRT_color,2021.2.3,MacIntel,60.0024001,,,,,,,,,,,,,,,,,,,,,,,
0,d,1,0.6502,12,0,48,0,1,d,orange,5fadeb340e10471fdeb5fbf5,2021-09-28_09h44.13.294,forced_choiceRT_color,2021.2.3,MacIntel,60.0024001,,,,,,,,,,,,,,,,,,,,,,,
0,k,1,0.8745,12,1,49,3,1,k,purple,5fadeb340e10471fdeb5fbf5,2021-09-28_09h44.13.294,forced_choiceRT_color,2021.2.3,MacIntel,60.0024001,,,,,,,,,,,,,,,,,,,,,,,
0,d,1,0.7391,12,2,50,0,1,d,orange,5fadeb340e10471fdeb5fbf5,2021-09-28_09h44.13.294,forced_choiceRT_color,2021.2.3,MacIntel,60.0024001,,,,,,,,,,,,,,,,,,,,,,,
0,f,1,0.7013,12,3,51,1,1,f,blue,5fadeb340e10471fdeb5fbf5,2021-09-28_09h44.13.294,forced_choiceRT_color,2021.2.3,MacIntel,60.0024001,,,,,,,,,,,,,,,,,,,,,,,
0,f,1,0.5712,13,0,52,1,1,f,blue,5fadeb340e10471fdeb5fbf5,2021-09-28_09h44.13.294,forced_choiceRT_color,2021.2.3,MacIntel,60.0024001,,,,,,,,,,,,,,,,,,,,,,,
0,f,1,0.5039,13,1,53,1,1,f,blue,5fadeb340e10471fdeb5fbf5,2021-09-28_09h44.13.294,forced_choiceRT_color,2021.2.3,MacIntel,60.0024001,,,,,,,,,,,,,,,,,,,,,,,
0,f,1,0.5229,13,2,54,1,1,f,blue,5fadeb340e10471fdeb5fbf5,2021-09-28_09h44.13.294,forced_choiceRT_color,2021.2.3,MacIntel,60.0024001,,,,,,,,,,,,,,,,,,,,,,,
0,j,1,0.6621,13,3,55,2,1,j,red,5fadeb340e10471fdeb5fbf5,2021-09-28_09h44.13.294,forced_choiceRT_color,2021.2.3,MacIntel,60.0024001,,,,,,,,,,,,,,,,,,,,,,,
0,k,1,0.7855,14,0,56,3,1,k,purple,5fadeb340e10471fdeb5fbf5,2021-09-28_09h44.13.294,forced_choiceRT_color,2021.2.3,MacIntel,60.0024001,,,,,,,,,,,,,,,,,,,,,,,
0,d,1,0.7275,14,1,57,0,1,d,orange,5fadeb340e10471fdeb5fbf5,2021-09-28_09h44.13.294,forced_choiceRT_color,2021.2.3,MacIntel,60.0024001,,,,,,,,,,,,,,,,,,,,,,,
0,k,1,0.818,14,2,58,3,1,k,purple,5fadeb340e10471fdeb5fbf5,2021-09-28_09h44.13.294,forced_choiceRT_color,2021.2.3,MacIntel,60.0024001,,,,,,,,,,,,,,,,,,,,,,,
0,k,1,0.5042,14,3,59,3,1,k,purple,5fadeb340e10471fdeb5fbf5,2021-09-28_09h44.13.294,forced_choiceRT_color,2021.2.3,MacIntel,60.0024001,,,,,,,,,,,,,,,,,,,,,,,
,,,,,,,,,,,5fadeb340e10471fdeb5fbf5,2021-09-28_09h44.13.294,forced_choiceRT_color,2021.2.3,MacIntel,60.0024001,k,2.3084,0,0,0,0,1,,,,,,,,,,,,,,,,
,,,,,,,,,,,5fadeb340e10471fdeb5fbf5,2021-09-28_09h44.13.294,forced_choiceRT_color,2021.2.3,MacIntel,60.0024001,j,2.2443,1,0,1,0,1,,,,,,,,,,,,,,,,
,,,,,,,,,,,5fadeb340e10471fdeb5fbf5,2021-09-28_09h44.13.294,forced_choiceRT_color,2021.2.3,MacIntel,60.0024001,f,1.8518,2,0,2,0,1,,,,,,,,,,,,,,,,
,,,,,,,,,,,5fadeb340e10471fdeb5fbf5,2021-09-28_09h44.13.294,forced_choiceRT_color,2021.2.3,MacIntel,60.0024001,j,2.1717,3,0,3,0,1,,,,,,,,,,,,,,,,
,,,,,,,,,,,5fadeb340e10471fdeb5fbf5,2021-09-28_09h44.13.294,forced_choiceRT_color,2021.2.3,MacIntel,60.0024001,j,1.8595,4,0,4,0,1,,,,,,,,,,,,,,,,
,,,,,,,,,,,5fadeb340e10471fdeb5fbf5,2021-09-28_09h44.13.294,forced_choiceRT_color,2021.2.3,MacIntel,60.0024001,j,1.8708,5,0,5,0,1,,,,,,,,,,,,,,,,
,,,,,,,,,,,5fadeb340e10471fdeb5fbf5,2021-09-28_09h44.13.294,forced_choiceRT_color,2021.2.3,MacIntel,60.0024001,j,2.0384,6,0,6,0,1,,,,,,,,,,,,,,,,
,,,,,,,,,,,5fadeb340e10471fdeb5fbf5,2021-09-28_09h44.13.294,forced_choiceRT_color,2021.2.3,MacIntel,60.0024001,j,1.7888,7,0,7,0,1,,,,,,,,,,,,,,,,
,,,,,,,,,,,5fadeb340e10471fdeb5fbf5,2021-09-28_09h44.13.294,forced_choiceRT_color,2021.2.3,MacIntel,60.0024001,j,1.9572,8,0,8,0,1,,,,,,,,,,,,,,,,
,,,,,,,,,,,5fadeb340e10471fdeb5fbf5,2021-09-28_09h44.13.294,forced_choiceRT_color,2021.2.3,MacIntel,60.0024001,j,1.9519,9,0,9,0,1,,,,,,,,,,,,,,,,
,,,,,,,,,,,5fadeb340e10471fdeb5fbf5,2021-09-28_09h44.13.294,forced_choiceRT_color,2021.2.3,MacIntel,60.0024001,j,2.0355,10,0,10,0,1,,,,,,,,,,,,,,,,
,,,,,,,,,,,5fadeb340e10471fdeb5fbf5,2021-09-28_09h44.13.294,forced_choiceRT_color,2021.2.3,MacIntel,60.0024001,j,1.9734,11,0,11,0,1,,,,,,,,,,,,,,,,
,,,,,,,,,,,5fadeb340e10471fdeb5fbf5,2021-09-28_09h44.13.294,forced_choiceRT_color,2021.2.3,MacIntel,60.0024001,f,1.877,12,0,12,0,1,,,,,,,,,,,,,,,,
,,,,,,,,,,,5fadeb340e10471fdeb5fbf5,2021-09-28_09h44.13.294,forced_choiceRT_color,2021.2.3,MacIntel,60.0024001,j,1.9045,13,0,13,0,1,,,,,,,,,,,,,,,,
,,,,,,,,,,,5fadeb340e10471fdeb5fbf5,2021-09-28_09h44.13.294,forced_choiceRT_color,2021.2.3,MacIntel,60.0024001,j,1.9049,14,0,14,0,1,,,,,,,,,,,,,,,,
,,,,,,,,,,,5fadeb340e10471fdeb5fbf5,2021-09-28_09h44.13.294,forced_choiceRT_color,2021.2.3,MacIntel,60.0024001,j,1.9904,15,0,15,0,1,,,,,,,,,,,,,,,,
,,,,,,,,,,,5fadeb340e10471fdeb5fbf5,2021-09-28_09h44.13.294,forced_choiceRT_color,2021.2.3,MacIntel,60.0024001,j,1.937,16,0,16,0,1,,,,,,,,,,,,,,,,
,,,,,,,,,,,5fadeb340e10471fdeb5fbf5,2021-09-28_09h44.13.294,forced_choiceRT_color,2021.2.3,MacIntel,60.0024001,j,1.9641,17,0,17,0,1,,,,,,,,,,,,,,,,
,,,,,,,,,,,5fadeb340e10471fdeb5fbf5,2021-09-28_09h44.13.294,forced_choiceRT_color,2021.2.3,MacIntel,60.0024001,j,1.869,18,0,18,0,1,,,,,,,,,,,,,,,,
,,,,,,,,,,,5fadeb340e10471fdeb5fbf5,2021-09-28_09h44.13.294,forced_choiceRT_color,2021.2.3,MacIntel,60.0024001,j,1.9245,19,0,19,0,1,,,,,,,,,,,,,,,,
0.66,,,,,,,,,f,blue,5fadeb340e10471fdeb5fbf5,2021-09-28_09h44.13.294,forced_choiceRT_color,2021.2.3,MacIntel,60.0024001,,,,,,,,1,Fast,long,j,0,1.8113,0,0,0,1,1,,,,,
1.26,,,,,,,,,k,purple,5fadeb340e10471fdeb5fbf5,2021-09-28_09h44.13.294,forced_choiceRT_color,2021.2.3,MacIntel,60.0024001,,,,,,,,1,Slow,long,k,1,2.2932,0,1,1,3,1,,,,,
0.91,,,,,,,,,k,purple,5fadeb340e10471fdeb5fbf5,2021-09-28_09h44.13.294,forced_choiceRT_color,2021.2.3,MacIntel,60.0024001,,,,,,,,1,Ontime,long,k,1,2.0572,0,2,2,3,1,,,,,
0.96,,,,,,,,,k,purple,5fadeb340e10471fdeb5fbf5,2021-09-28_09h44.13.294,forced_choiceRT_color,2021.2.3,MacIntel,60.0024001,,,,,,,,1,Fast,long,k,1,1.8233,0,3,3,3,1,,,,,
0.02,,,,,,,,,f,blue,5fadeb340e10471fdeb5fbf5,2021-09-28_09h44.13.294,forced_choiceRT_color,2021.2.3,MacIntel,60.0024001,,,,,,,,1,Fast,long,f,1,1.5595,1,0,4,1,1,,,,,
0.76,,,,,,,,,k,purple,5fadeb340e10471fdeb5fbf5,2021-09-28_09h44.13.294,forced_choiceRT_color,2021.2.3,MacIntel,60.0024001,,,,,,,,1,Fast,long,k,1,1.7761,1,1,5,3,1,,,,,
0.42,,,,,,,,,j,red,5fadeb340e10471fdeb5fbf5,2021-09-28_09h44.13.294,forced_choiceRT_color,2021.2.3,MacIntel,60.0024001,,,,,,,,1,Ontime,long,j,1,2.0219,1,2,6,2,1,,,,,
1.97,,,,,,,,,j,red,5fadeb340e10471fdeb5fbf5,2021-09-28_09h44.13.294,forced_choiceRT_color,2021.2.3,MacIntel,60.0024001,,,,,,,,1,Slow,long,k,0,2.1724,1,3,7,2,1,,,,,
0.95,,,,,,,,,j,red,5fadeb340e10471fdeb5fbf5,2021-09-28_09h44.13.294,forced_choiceRT_color,2021.2.3,MacIntel,60.0024001,,,,,,,,1,Fast,long,j,1,1.7462,2,0,8,2,1,,,,,
1.27,,,,,,,,,d,orange,5fadeb340e10471fdeb5fbf5,2021-09-28_09h44.13.294,forced_choiceRT_color,2021.2.3,MacIntel,60.0024001,,,,,,,,1,Ontime,long,f,0,1.9641,2,1,9,0,1,,,,,
0.77,,,,,,,,,d,orange,5fadeb340e10471fdeb5fbf5,2021-09-28_09h44.13.294,forced_choiceRT_color,2021.2.3,MacIntel,60.0024001,,,,,,,,1,Fast,long,d,1,1.8533,2,2,10,0,1,,,,,
0.78,,,,,,,,,j,red,5fadeb340e10471fdeb5fbf5,2021-09-28_09h44.13.294,forced_choiceRT_color,2021.2.3,MacIntel,60.0024001,,,,,,,,1,Ontime,long,j,1,1.9073,2,3,11,2,1,,,,,
1.28,,,,,,,,,j,red,5fadeb340e10471fdeb5fbf5,2021-09-28_09h44.13.294,forced_choiceRT_color,2021.2.3,MacIntel,60.0024001,,,,,,,,1,Fast,long,j,1,1.8441,3,0,12,2,1,,,,,
0.48,,,,,,,,,f,blue,5fadeb340e10471fdeb5fbf5,2021-09-28_09h44.13.294,forced_choiceRT_color,2021.2.3,MacIntel,60.0024001,,,,,,,,1,Fast,long,f,1,1.8931,3,1,13,1,1,,,,,
1.42,,,,,,,,,j,red,5fadeb340e10471fdeb5fbf5,2021-09-28_09h44.13.294,forced_choiceRT_color,2021.2.3,MacIntel,60.0024001,,,,,,,,1,Ontime,long,j,1,1.9579,3,2,14,2,1,,,,,
0.46,,,,,,,,,f,blue,5fadeb340e10471fdeb5fbf5,2021-09-28_09h44.13.294,forced_choiceRT_color,2021.2.3,MacIntel,60.0024001,,,,,,,,1,Ontime,long,f,1,1.9501,3,3,15,1,1,,,,,
1.46,,,,,,,,,k,purple,5fadeb340e10471fdeb5fbf5,2021-09-28_09h44.13.294,forced_choiceRT_color,2021.2.3,MacIntel,60.0024001,,,,,,,,1,Ontime,long,k,1,1.9573,4,0,16,3,1,,,,,
1.03,,,,,,,,,d,orange,5fadeb340e10471fdeb5fbf5,2021-09-28_09h44.13.294,forced_choiceRT_color,2021.2.3,MacIntel,60.0024001,,,,,,,,1,Slow,long,d,1,2.1603,4,1,17,0,1,,,,,
1.52,,,,,,,,,j,red,5fadeb340e10471fdeb5fbf5,2021-09-28_09h44.13.294,forced_choiceRT_color,2021.2.3,MacIntel,60.0024001,,,,,,,,1,Ontime,long,j,1,1.9328,4,2,18,2,1,,,,,
0.78,,,,,,,,,f,blue,5fadeb340e10471fdeb5fbf5,2021-09-28_09h44.13.294,forced_choiceRT_color,2021.2.3,MacIntel,60.0024001,,,,,,,,1,Fast,long,f,1,1.73,4,3,19,1,1,,,,,
1.97,,,,,,,,,d,orange,5fadeb340e10471fdeb5fbf5,2021-09-28_09h44.13.294,forced_choiceRT_color,2021.2.3,MacIntel,60.0024001,,,,,,,,1,Slow,long,k,0,2.2817,5,0,20,0,1,,,,,
1.04,,,,,,,,,d,orange,5fadeb340e10471fdeb5fbf5,2021-09-28_09h44.13.294,forced_choiceRT_color,2021.2.3,MacIntel,60.0024001,,,,,,,,1,Fast,long,d,1,1.8598,5,1,21,0,1,,,,,
1.54,,,,,,,,,f,blue,5fadeb340e10471fdeb5fbf5,2021-09-28_09h44.13.294,forced_choiceRT_color,2021.2.3,MacIntel,60.0024001,,,,,,,,1,Ontime,long,k,0,1.9939,5,2,22,1,1,,,,,
0.48,,,,,,,,,f,blue,5fadeb340e10471fdeb5fbf5,2021-09-28_09h44.13.294,forced_choiceRT_color,2021.2.3,MacIntel,60.0024001,,,,,,,,1,Fast,long,f,1,1.7872,5,3,23,1,1,,,,,
1.64,,,,,,,,,d,orange,5fadeb340e10471fdeb5fbf5,2021-09-28_09h44.13.294,forced_choiceRT_color,2021.2.3,MacIntel,60.0024001,,,,,,,,1,Slow,long,f,0,2.1226,6,0,24,0,1,,,,,
0.21,,,,,,,,,f,blue,5fadeb340e10471fdeb5fbf5,2021-09-28_09h44.13.294,forced_choiceRT_color,2021.2.3,MacIntel,60.0024001,,,,,,,,1,Fast,long,f,1,1.7895,6,1,25,1,1,,,,,
1.35,,,,,,,,,k,purple,5fadeb340e10471fdeb5fbf5,2021-09-28_09h44.13.294,forced_choiceRT_color,2021.2.3,MacIntel,60.0024001,,,,,,,,1,Ontime,long,k,1,1.9743,6,2,26,3,1,,,,,
0.5,,,,,,,,,d,orange,5fadeb340e10471fdeb5fbf5,2021-09-28_09h44.13.294,forced_choiceRT_color,2021.2.3,MacIntel,60.0024001,,,,,,,,1,Ontime,long,d,1,1.9537,6,3,27,0,1,,,,,
1.54,,,,,,,,,k,purple,5fadeb340e10471fdeb5fbf5,2021-09-28_09h44.13.294,forced_choiceRT_color,2021.2.3,MacIntel,60.0024001,,,,,,,,1,Slow,long,d,0,2.3901,7,0,28,3,1,,,,,
0.68,,,,,,,,,k,purple,5fadeb340e10471fdeb5fbf5,2021-09-28_09h44.13.294,forced_choiceRT_color,2021.2.3,MacIntel,60.0024001,,,,,,,,1,Fast,long,k,1,1.8404,7,1,29,3,1,,,,,
1.56,,,,,,,,,k,purple,5fadeb340e10471fdeb5fbf5,2021-09-28_09h44.13.294,forced_choiceRT_color,2021.2.3,MacIntel,60.0024001,,,,,,,,1,Ontime,long,k,1,2.0624,7,2,30,3,1,,,,,
0.21,,,,,,,,,d,orange,5fadeb340e10471fdeb5fbf5,2021-09-28_09h44.13.294,forced_choiceRT_color,2021.2.3,MacIntel,60.0024001,,,,,,,,1,Fast,long,d,1,1.8497,7,3,31,0,1,,,,,
0.46,,,,,,,,,d,orange,5fadeb340e10471fdeb5fbf5,2021-09-28_09h44.13.294,forced_choiceRT_color,2021.2.3,MacIntel,60.0024001,,,,,,,,1,Fast,long,d,1,1.8469,8,0,32,0,1,,,,,
1.64,,,,,,,,,j,red,5fadeb340e10471fdeb5fbf5,2021-09-28_09h44.13.294,forced_choiceRT_color,2021.2.3,MacIntel,60.0024001,,,,,,,,1,Ontime,long,j,1,2.0909,8,1,33,2,1,,,,,
1.19,,,,,,,,,f,blue,5fadeb340e10471fdeb5fbf5,2021-09-28_09h44.13.294,forced_choiceRT_color,2021.2.3,MacIntel,60.0024001,,,,,,,,1,Ontime,long,d,0,1.9435,8,2,34,1,1,,,,,
0.33,,,,,,,,,k,purple,5fadeb340e10471fdeb5fbf5,2021-09-28_09h44.13.294,forced_choiceRT_color,2021.2.3,MacIntel,60.0024001,,,,,,,,1,Fast,long,k,1,1.8148,8,3,35,3,1,,,,,
1.93,,,,,,,,,f,blue,5fadeb340e10471fdeb5fbf5,2021-09-28_09h44.13.294,forced_choiceRT_color,2021.2.3,MacIntel,60.0024001,,,,,,,,1,Slow,long,d,0,2.1547,9,0,36,1,1,,,,,
1.66,,,,,,,,,j,red,5fadeb340e10471fdeb5fbf5,2021-09-28_09h44.13.294,forced_choiceRT_color,2021.2.3,MacIntel,60.0024001,,,,,,,,1,Ontime,long,k,0,1.9073,9,1,37,2,1,,,,,
1.72,,,,,,,,,j,red,5fadeb340e10471fdeb5fbf5,2021-09-28_09h44.13.294,forced_choiceRT_color,2021.2.3,MacIntel,60.0024001,,,,,,,,1,Slow,long,k,0,2.1465,9,2,38,2,1,,,,,
0.04,,,,,,,,,d,orange,5fadeb340e10471fdeb5fbf5,2021-09-28_09h44.13.294,forced_choiceRT_color,2021.2.3,MacIntel,60.0024001,,,,,,,,1,Fast,long,d,1,1.8407,9,3,39,0,1,,,,,
,,,,,,,,,,,5fadeb340e10471fdeb5fbf5,2021-09-28_09h44.13.294,forced_choiceRT_color,2021.2.3,MacIntel,60.0024001,,,,,,,,,,,,,,,,,,,0,0,0,0,1
0.39,,,,,,,,,k,purple,5fadeb340e10471fdeb5fbf5,2021-09-28_09h44.13.294,forced_choiceRT_color,2021.2.3,MacIntel,60.0024001,,,,,,,,2,Fast,long,k,1,1.8484,0,0,0,3,1,,,,,
1.99,,,,,,,,,d,orange,5fadeb340e10471fdeb5fbf5,2021-09-28_09h44.13.294,forced_choiceRT_color,2021.2.3,MacIntel,60.0024001,,,,,,,,2,Slow,long,j,0,2.338,0,1,1,0,1,,,,,
0.03,,,,,,,,,k,purple,5fadeb340e10471fdeb5fbf5,2021-09-28_09h44.13.294,forced_choiceRT_color,2021.2.3,MacIntel,60.0024001,,,,,,,,2,Fast,long,k,1,1.837,0,2,2,3,1,,,,,
0.56,,,,,,,,,f,blue,5fadeb340e10471fdeb5fbf5,2021-09-28_09h44.13.294,forced_choiceRT_color,2021.2.3,MacIntel,60.0024001,,,,,,,,2,Ontime,long,f,1,2.0403,0,3,3,1,1,,,,,
1.38,,,,,,,,,j,red,5fadeb340e10471fdeb5fbf5,2021-09-28_09h44.13.294,forced_choiceRT_color,2021.2.3,MacIntel,60.0024001,,,,,,,,2,Ontime,long,j,1,1.9362,1,0,4,2,1,,,,,
1.7,,,,,,,,,k,purple,5fadeb340e10471fdeb5fbf5,2021-09-28_09h44.13.294,forced_choiceRT_color,2021.2.3,MacIntel,60.0024001,,,,,,,,2,Slow,long,j,0,2.3522,1,1,5,3,1,,,,,
1.4,,,,,,,,,d,orange,5fadeb340e10471fdeb5fbf5,2021-09-28_09h44.13.294,forced_choiceRT_color,2021.2.3,MacIntel,60.0024001,,,,,,,,2,Slow,long,f,0,2.2395,1,2,6,0,1,,,,,
1.13,,,,,,,,,d,orange,5fadeb340e10471fdeb5fbf5,2021-09-28_09h44.13.294,forced_choiceRT_color,2021.2.3,MacIntel,60.0024001,,,,,,,,2,Ontime,long,d,1,1.9426,1,3,7,0,1,,,,,
0.32,,,,,,,,,j,red,5fadeb340e10471fdeb5fbf5,2021-09-28_09h44.13.294,forced_choiceRT_color,2021.2.3,MacIntel,60.0024001,,,,,,,,2,Fast,long,j,1,1.7067,2,0,8,2,1,,,,,
0.85,,,,,,,,,f,blue,5fadeb340e10471fdeb5fbf5,2021-09-28_09h44.13.294,forced_choiceRT_color,2021.2.3,MacIntel,60.0024001,,,,,,,,2,Fast,long,f,1,1.7948,2,1,9,1,1,,,,,
0.67,,,,,,,,,j,red,5fadeb340e10471fdeb5fbf5,2021-09-28_09h44.13.294,forced_choiceRT_color,2021.2.3,MacIntel,60.0024001,,,,,,,,2,Fast,long,j,1,1.8266,2,2,10,2,1,,,,,
1.91,,,,,,,,,f,blue,5fadeb340e10471fdeb5fbf5,2021-09-28_09h44.13.294,forced_choiceRT_color,2021.2.3,MacIntel,60.0024001,,,,,,,,2,Slow,long,f,1,2.4771,2,3,11,1,1,,,,,
0.62,,,,,,,,,f,blue,5fadeb340e10471fdeb5fbf5,2021-09-28_09h44.13.294,forced_choiceRT_color,2021.2.3,MacIntel,60.0024001,,,,,,,,2,Fast,long,f,1,1.8557,3,0,12,1,1,,,,,
1.84,,,,,,,,,f,blue,5fadeb340e10471fdeb5fbf5,2021-09-28_09h44.13.294,forced_choiceRT_color,2021.2.3,MacIntel,60.0024001,,,,,,,,2,Ontime,long,j,0,1.9865,3,1,13,1,1,,,,,
0.44,,,,,,,,,d,orange,5fadeb340e10471fdeb5fbf5,2021-09-28_09h44.13.294,forced_choiceRT_color,2021.2.3,MacIntel,60.0024001,,,,,,,,2,Fast,long,d,1,1.8409,3,2,14,0,1,,,,,
0.51,,,,,,,,,j,red,5fadeb340e10471fdeb5fbf5,2021-09-28_09h44.13.294,forced_choiceRT_color,2021.2.3,MacIntel,60.0024001,,,,,,,,2,Ontime,long,j,1,1.9217,3,3,15,2,1,,,,,
1.6,,,,,,,,,d,orange,5fadeb340e10471fdeb5fbf5,2021-09-28_09h44.13.294,forced_choiceRT_color,2021.2.3,MacIntel,60.0024001,,,,,,,,2,Ontime,long,k,0,1.9658,4,0,16,0,1,,,,,
0.48,,,,,,,,,j,red,5fadeb340e10471fdeb5fbf5,2021-09-28_09h44.13.294,forced_choiceRT_color,2021.2.3,MacIntel,60.0024001,,,,,,,,2,Fast,long,j,1,1.8236,4,1,17,2,1,,,,,
0.19,,,,,,,,,j,red,5fadeb340e10471fdeb5fbf5,2021-09-28_09h44.13.294,forced_choiceRT_color,2021.2.3,MacIntel,60.0024001,,,,,,,,2,Fast,long,j,1,1.8555,4,2,18,2,1,,,,,
1.1,,,,,,,,,f,blue,5fadeb340e10471fdeb5fbf5,2021-09-28_09h44.13.294,forced_choiceRT_color,2021.2.3,MacIntel,60.0024001,,,,,,,,2,Ontime,long,f,1,1.9711,4,3,19,1,1,,,,,
0.95,,,,,,,,,d,orange,5fadeb340e10471fdeb5fbf5,2021-09-28_09h44.13.294,forced_choiceRT_color,2021.2.3,MacIntel,60.0024001,,,,,,,,2,Ontime,long,d,1,1.9061,5,0,20,0,1,,,,,
1.52,,,,,,,,,k,purple,5fadeb340e10471fdeb5fbf5,2021-09-28_09h44.13.294,forced_choiceRT_color,2021.2.3,MacIntel,60.0024001,,,,,,,,2,Ontime,long,k,1,1.9894,5,1,21,3,1,,,,,
1.67,,,,,,,,,k,purple,5fadeb340e10471fdeb5fbf5,2021-09-28_09h44.13.294,forced_choiceRT_color,2021.2.3,MacIntel,60.0024001,,,,,,,,2,Slow,long,k,1,2.2141,5,2,22,3,1,,,,,
1.18,,,,,,,,,j,red,5fadeb340e10471fdeb5fbf5,2021-09-28_09h44.13.294,forced_choiceRT_color,2021.2.3,MacIntel,60.0024001,,,,,,,,2,Fast,long,j,1,1.8744,5,3,23,2,1,,,,,
1.78,,,,,,,,,d,orange,5fadeb340e10471fdeb5fbf5,2021-09-28_09h44.13.294,forced_choiceRT_color,2021.2.3,MacIntel,60.0024001,,,,,,,,2,Fast,long,j,0,1.8576,6,0,24,0,1,,,,,
0.37,,,,,,,,,k,purple,5fadeb340e10471fdeb5fbf5,2021-09-28_09h44.13.294,forced_choiceRT_color,2021.2.3,MacIntel,60.0024001,,,,,,,,2,Fast,long,k,1,1.8402,6,1,25,3,1,,,,,
1.02,,,,,,,,,j,red,5fadeb340e10471fdeb5fbf5,2021-09-28_09h44.13.294,forced_choiceRT_color,2021.2.3,MacIntel,60.0024001,,,,,,,,2,Ontime,long,j,1,1.9732,6,2,26,2,1,,,,,
0.28,,,,,,,,,f,blue,5fadeb340e10471fdeb5fbf5,2021-09-28_09h44.13.294,forced_choiceRT_color,2021.2.3,MacIntel,60.0024001,,,,,,,,2,Fast,long,f,1,1.8568,6,3,27,1,1,,,,,
0.23,,,,,,,,,f,blue,5fadeb340e10471fdeb5fbf5,2021-09-28_09h44.13.294,forced_choiceRT_color,2021.2.3,MacIntel,60.0024001,,,,,,,,2,Fast,long,f,1,1.8987,7,0,28,1,1,,,,,
0.9,,,,,,,,,k,purple,5fadeb340e10471fdeb5fbf5,2021-09-28_09h44.13.294,forced_choiceRT_color,2021.2.3,MacIntel,60.0024001,,,,,,,,2,Ontime,long,k,1,1.9377,7,1,29,3,1,,,,,
0.62,,,,,,,,,d,orange,5fadeb340e10471fdeb5fbf5,2021-09-28_09h44.13.294,forced_choiceRT_color,2021.2.3,MacIntel,60.0024001,,,,,,,,2,Fast,long,d,1,1.8078,7,2,30,0,1,,,,,
1.9,,,,,,,,,f,blue,5fadeb340e10471fdeb5fbf5,2021-09-28_09h44.13.294,forced_choiceRT_color,2021.2.3,MacIntel,60.0024001,,,,,,,,2,Ontime,long,k,0,2.0236,7,3,31,1,1,,,,,
0.59,,,,,,,,,k,purple,5fadeb340e10471fdeb5fbf5,2021-09-28_09h44.13.294,forced_choiceRT_color,2021.2.3,MacIntel,60.0024001,,,,,,,,2,Ontime,long,k,1,1.9615,8,0,32,3,1,,,,,
0.78,,,,,,,,,j,red,5fadeb340e10471fdeb5fbf5,2021-09-28_09h44.13.294,forced_choiceRT_color,2021.2.3,MacIntel,60.0024001,,,,,,,,2,Ontime,long,d,0,1.9058,8,1,33,2,1,,,,,
1.16,,,,,,,,,f,blue,5fadeb340e10471fdeb5fbf5,2021-09-28_09h44.13.294,forced_choiceRT_color,2021.2.3,MacIntel,60.0024001,,,,,,,,2,Slow,long,f,1,2.1038,8,2,34,1,1,,,,,
1.04,,,,,,,,,k,purple,5fadeb340e10471fdeb5fbf5,2021-09-28_09h44.13.294,forced_choiceRT_color,2021.2.3,MacIntel,60.0024001,,,,,,,,2,Ontime,long,k,1,1.9548,8,3,35,3,1,,,,,
1.47,,,,,,,,,d,orange,5fadeb340e10471fdeb5fbf5,2021-09-28_09h44.13.294,forced_choiceRT_color,2021.2.3,MacIntel,60.0024001,,,,,,,,2,Ontime,long,j,0,1.9752,9,0,36,0,1,,,,,
0.26,,,,,,,,,k,purple,5fadeb340e10471fdeb5fbf5,2021-09-28_09h44.13.294,forced_choiceRT_color,2021.2.3,MacIntel,60.0024001,,,,,,,,2,Fast,long,k,1,1.8753,9,1,37,3,1,,,,,
1.58,,,,,,,,,d,orange,5fadeb340e10471fdeb5fbf5,2021-09-28_09h44.13.294,forced_choiceRT_color,2021.2.3,MacIntel,60.0024001,,,,,,,,2,Ontime,long,d,1,1.9001,9,2,38,0,1,,,,,
1.36,,,,,,,,,j,red,5fadeb340e10471fdeb5fbf5,2021-09-28_09h44.13.294,forced_choiceRT_color,2021.2.3,MacIntel,60.0024001,,,,,,,,2,Ontime,long,j,1,1.9272,9,3,39,2,1,,,,,
,,,,,,,,,,,5fadeb340e10471fdeb5fbf5,2021-09-28_09h44.13.294,forced_choiceRT_color,2021.2.3,MacIntel,60.0024001,,,,,,,,,,,,,,,,,,,1,0,1,0,1
1.26,,,,,,,,,j,red,5fadeb340e10471fdeb5fbf5,2021-09-28_09h44.13.294,forced_choiceRT_color,2021.2.3,MacIntel,60.0024001,,,,,,,,3,Ontime,long,j,1,1.9193,0,0,0,2,1,,,,,
0.15,,,,,,,,,f,blue,5fadeb340e10471fdeb5fbf5,2021-09-28_09h44.13.294,forced_choiceRT_color,2021.2.3,MacIntel,60.0024001,,,,,,,,3,Fast,long,f,1,1.8673,0,1,1,1,1,,,,,
1.36,,,,,,,,,j,red,5fadeb340e10471fdeb5fbf5,2021-09-28_09h44.13.294,forced_choiceRT_color,2021.2.3,MacIntel,60.0024001,,,,,,,,3,Slow,long,j,1,2.132,0,2,2,2,1,,,,,
1.14,,,,,,,,,k,purple,5fadeb340e10471fdeb5fbf5,2021-09-28_09h44.13.294,forced_choiceRT_color,2021.2.3,MacIntel,60.0024001,,,,,,,,3,Ontime,long,k,1,1.9056,0,3,3,3,1,,,,,
1.8,,,,,,,,,j,red,5fadeb340e10471fdeb5fbf5,2021-09-28_09h44.13.294,forced_choiceRT_color,2021.2.3,MacIntel,60.0024001,,,,,,,,3,Ontime,long,d,0,2.0528,1,0,4,2,1,,,,,
0.75,,,,,,,,,k,purple,5fadeb340e10471fdeb5fbf5,2021-09-28_09h44.13.294,forced_choiceRT_color,2021.2.3,MacIntel,60.0024001,,,,,,,,3,Ontime,long,k,1,1.9047,1,1,5,3,1,,,,,
1.59,,,,,,,,,d,orange,5fadeb340e10471fdeb5fbf5,2021-09-28_09h44.13.294,forced_choiceRT_color,2021.2.3,MacIntel,60.0024001,,,,,,,,3,Ontime,long,f,0,2.0039,1,2,6,0,1,,,,,
1.37,,,,,,,,,d,orange,5fadeb340e10471fdeb5fbf5,2021-09-28_09h44.13.294,forced_choiceRT_color,2021.2.3,MacIntel,60.0024001,,,,,,,,3,Fast,long,d,1,1.8575,1,3,7,0,1,,,,,
0.69,,,,,,,,,j,red,5fadeb340e10471fdeb5fbf5,2021-09-28_09h44.13.294,forced_choiceRT_color,2021.2.3,MacIntel,60.0024001,,,,,,,,3,Fast,long,j,1,1.8655,2,0,8,2,1,,,,,
0.1,,,,,,,,,k,purple,5fadeb340e10471fdeb5fbf5,2021-09-28_09h44.13.294,forced_choiceRT_color,2021.2.3,MacIntel,60.0024001,,,,,,,,3,Fast,long,k,1,1.8768,2,1,9,3,1,,,,,
0.68,,,,,,,,,k,purple,5fadeb340e10471fdeb5fbf5,2021-09-28_09h44.13.294,forced_choiceRT_color,2021.2.3,MacIntel,60.0024001,,,,,,,,3,Fast,long,k,1,1.8588,2,2,10,3,1,,,,,
1.51,,,,,,,,,f,blue,5fadeb340e10471fdeb5fbf5,2021-09-28_09h44.13.294,forced_choiceRT_color,2021.2.3,MacIntel,60.0024001,,,,,,,,3,Slow,long,j,0,2.3241,2,3,11,1,1,,,,,
1.46,,,,,,,,,f,blue,5fadeb340e10471fdeb5fbf5,2021-09-28_09h44.13.294,forced_choiceRT_color,2021.2.3,MacIntel,60.0024001,,,,,,,,3,Fast,long,d,0,1.7596,3,0,12,1,1,,,,,
0.01,,,,,,,,,f,blue,5fadeb340e10471fdeb5fbf5,2021-09-28_09h44.13.294,forced_choiceRT_color,2021.2.3,MacIntel,60.0024001,,,,,,,,3,Fast,long,f,1,1.8087,3,1,13,1,1,,,,,
1.22,,,,,,,,,k,purple,5fadeb340e10471fdeb5fbf5,2021-09-28_09h44.13.294,forced_choiceRT_color,2021.2.3,MacIntel,60.0024001,,,,,,,,3,Ontime,long,k,1,1.9493,3,2,14,3,1,,,,,
1.93,,,,,,,,,d,orange,5fadeb340e10471fdeb5fbf5,2021-09-28_09h44.13.294,forced_choiceRT_color,2021.2.3,MacIntel,60.0024001,,,,,,,,3,Ontime,long,d,1,1.9402,3,3,15,0,1,,,,,
1.23,,,,,,,,,f,blue,5fadeb340e10471fdeb5fbf5,2021-09-28_09h44.13.294,forced_choiceRT_color,2021.2.3,MacIntel,60.0024001,,,,,,,,3,Ontime,long,j,0,2.0702,4,0,16,1,1,,,,,
1.48,,,,,,,,,k,purple,5fadeb340e10471fdeb5fbf5,2021-09-28_09h44.13.294,forced_choiceRT_color,2021.2.3,MacIntel,60.0024001,,,,,,,,3,Ontime,long,k,1,1.9158,4,1,17,3,1,,,,,
1.26,,,,,,,,,j,red,5fadeb340e10471fdeb5fbf5,2021-09-28_09h44.13.294,forced_choiceRT_color,2021.2.3,MacIntel,60.0024001,,,,,,,,3,Fast,long,f,0,1.895,4,2,18,2,1,,,,,
0.51,,,,,,,,,j,red,5fadeb340e10471fdeb5fbf5,2021-09-28_09h44.13.294,forced_choiceRT_color,2021.2.3,MacIntel,60.0024001,,,,,,,,3,Fast,long,j,1,1.8878,4,3,19,2,1,,,,,
1.89,,,,,,,,,f,blue,5fadeb340e10471fdeb5fbf5,2021-09-28_09h44.13.294,forced_choiceRT_color,2021.2.3,MacIntel,60.0024001,,,,,,,,3,Ontime,long,k,0,2.0604,5,0,20,1,1,,,,,
0.91,,,,,,,,,d,orange,5fadeb340e10471fdeb5fbf5,2021-09-28_09h44.13.294,forced_choiceRT_color,2021.2.3,MacIntel,60.0024001,,,,,,,,3,Fast,long,d,1,1.8791,5,1,21,0,1,,,,,
1.85,,,,,,,,,d,orange,5fadeb340e10471fdeb5fbf5,2021-09-28_09h44.13.294,forced_choiceRT_color,2021.2.3,MacIntel,60.0024001,,,,,,,,3,Ontime,long,j,0,1.9952,5,2,22,0,1,,,,,
0.38,,,,,,,,,j,red,5fadeb340e10471fdeb5fbf5,2021-09-28_09h44.13.294,forced_choiceRT_color,2021.2.3,MacIntel,60.0024001,,,,,,,,3,Fast,long,f,0,1.846,5,3,23,2,1,,,,,
1.58,,,,,,,,,k,purple,5fadeb340e10471fdeb5fbf5,2021-09-28_09h44.13.294,forced_choiceRT_color,2021.2.3,MacIntel,60.0024001,,,,,,,,3,Ontime,long,j,0,1.9676,6,0,24,3,1,,,,,
1.07,,,,,,,,,j,red,5fadeb340e10471fdeb5fbf5,2021-09-28_09h44.13.294,forced_choiceRT_color,2021.2.3,MacIntel,60.0024001,,,,,,,,3,Fast,long,d,0,1.8652,6,1,25,2,1,,,,,
1.37,,,,,,,,,f,blue,5fadeb340e10471fdeb5fbf5,2021-09-28_09h44.13.294,forced_choiceRT_color,2021.2.3,MacIntel,60.0024001,,,,,,,,3,Ontime,long,f,1,2.0271,6,2,26,1,1,,,,,
0.08,,,,,,,,,j,red,5fadeb340e10471fdeb5fbf5,2021-09-28_09h44.13.294,forced_choiceRT_color,2021.2.3,MacIntel,60.0024001,,,,,,,,3,Fast,long,j,1,1.8326,6,3,27,2,1,,,,,
1.22,,,,,,,,,k,purple,5fadeb340e10471fdeb5fbf5,2021-09-28_09h44.13.294,forced_choiceRT_color,2021.2.3,MacIntel,60.0024001,,,,,,,,3,Ontime,long,k,1,1.966,7,0,28,3,1,,,,,
0.8,,,,,,,,,d,orange,5fadeb340e10471fdeb5fbf5,2021-09-28_09h44.13.294,forced_choiceRT_color,2021.2.3,MacIntel,60.0024001,,,,,,,,3,Fast,long,d,1,1.8873,7,1,29,0,1,,,,,
1.63,,,,,,,,,f,blue,5fadeb340e10471fdeb5fbf5,2021-09-28_09h44.13.294,forced_choiceRT_color,2021.2.3,MacIntel,60.0024001,,,,,,,,3,Fast,long,d,0,1.894,7,2,30,1,1,,,,,
1.38,,,,,,,,,j,red,5fadeb340e10471fdeb5fbf5,2021-09-28_09h44.13.294,forced_choiceRT_color,2021.2.3,MacIntel,60.0024001,,,,,,,,3,Fast,long,k,0,1.8115,7,3,31,2,1,,,,,
0.76,,,,,,,,,d,orange,5fadeb340e10471fdeb5fbf5,2021-09-28_09h44.13.294,forced_choiceRT_color,2021.2.3,MacIntel,60.0024001,,,,,,,,3,Fast,long,d,1,1.7879,8,0,32,0,1,,,,,
1.04,,,,,,,,,d,orange,5fadeb340e10471fdeb5fbf5,2021-09-28_09h44.13.294,forced_choiceRT_color,2021.2.3,MacIntel,60.0024001,,,,,,,,3,Ontime,long,d,1,1.9226,8,1,33,0,1,,,,,
1.29,,,,,,,,,f,blue,5fadeb340e10471fdeb5fbf5,2021-09-28_09h44.13.294,forced_choiceRT_color,2021.2.3,MacIntel,60.0024001,,,,,,,,3,Ontime,long,f,1,2.0941,8,2,34,1,1,,,,,
1.43,,,,,,,,,f,blue,5fadeb340e10471fdeb5fbf5,2021-09-28_09h44.13.294,forced_choiceRT_color,2021.2.3,MacIntel,60.0024001,,,,,,,,3,Ontime,long,f,1,1.9728,8,3,35,1,1,,,,,
0.83,,,,,,,,,k,purple,5fadeb340e10471fdeb5fbf5,2021-09-28_09h44.13.294,forced_choiceRT_color,2021.2.3,MacIntel,60.0024001,,,,,,,,3,Fast,long,k,1,1.841,9,0,36,3,1,,,,,
1.86,,,,,,,,,d,orange,5fadeb340e10471fdeb5fbf5,2021-09-28_09h44.13.294,forced_choiceRT_color,2021.2.3,MacIntel,60.0024001,,,,,,,,3,Slow,long,d,1,2.2924,9,1,37,0,1,,,,,
0.12,,,,,,,,,d,orange,5fadeb340e10471fdeb5fbf5,2021-09-28_09h44.13.294,forced_choiceRT_color,2021.2.3,MacIntel,60.0024001,,,,,,,,3,Fast,long,d,1,1.8882,9,2,38,0,1,,,,,
0.34,,,,,,,,,k,purple,5fadeb340e10471fdeb5fbf5,2021-09-28_09h44.13.294,forced_choiceRT_color,2021.2.3,MacIntel,60.0024001,,,,,,,,3,Fast,long,k,1,1.8591,9,3,39,3,1,,,,,
,,,,,,,,,,,5fadeb340e10471fdeb5fbf5,2021-09-28_09h44.13.294,forced_choiceRT_color,2021.2.3,MacIntel,60.0024001,,,,,,,,,,,,,,,,,,,2,0,2,0,1
1.88,,,,,,,,,f,blue,5fadeb340e10471fdeb5fbf5,2021-09-28_09h44.13.294,forced_choiceRT_color,2021.2.3,MacIntel,60.0024001,,,,,,,,4,Ontime,long,k,0,2.0009,0,0,0,1,1,,,,,
1.76,,,,,,,,,j,red,5fadeb340e10471fdeb5fbf5,2021-09-28_09h44.13.294,forced_choiceRT_color,2021.2.3,MacIntel,60.0024001,,,,,,,,4,Fast,long,j,1,1.7878,0,1,1,2,1,,,,,
1.16,,,,,,,,,d,orange,5fadeb340e10471fdeb5fbf5,2021-09-28_09h44.13.294,forced_choiceRT_color,2021.2.3,MacIntel,60.0024001,,,,,,,,4,Ontime,long,d,1,1.9252,0,2,2,0,1,,,,,
0.67,,,,,,,,,k,purple,5fadeb340e10471fdeb5fbf5,2021-09-28_09h44.13.294,forced_choiceRT_color,2021.2.3,MacIntel,60.0024001,,,,,,,,4,Slow,long,k,1,2.1305,0,3,3,3,1,,,,,
0.95,,,,,,,,,d,orange,5fadeb340e10471fdeb5fbf5,2021-09-28_09h44.13.294,forced_choiceRT_color,2021.2.3,MacIntel,60.0024001,,,,,,,,4,Fast,long,d,1,1.7828,1,0,4,0,1,,,,,
0.22,,,,,,,,,j,red,5fadeb340e10471fdeb5fbf5,2021-09-28_09h44.13.294,forced_choiceRT_color,2021.2.3,MacIntel,60.0024001,,,,,,,,4,Fast,long,j,1,1.8794,1,1,5,2,1,,,,,
0.75,,,,,,,,,f,blue,5fadeb340e10471fdeb5fbf5,2021-09-28_09h44.13.294,forced_choiceRT_color,2021.2.3,MacIntel,60.0024001,,,,,,,,4,Ontime,long,f,1,1.9923,1,2,6,1,1,,,,,
0.52,,,,,,,,,f,blue,5fadeb340e10471fdeb5fbf5,2021-09-28_09h44.13.294,forced_choiceRT_color,2021.2.3,MacIntel,60.0024001,,,,,,,,4,Ontime,long,f,1,1.9479,1,3,7,1,1,,,,,
1.8,,,,,,,,,d,orange,5fadeb340e10471fdeb5fbf5,2021-09-28_09h44.13.294,forced_choiceRT_color,2021.2.3,MacIntel,60.0024001,,,,,,,,4,Ontime,long,k,0,1.9319,2,0,8,0,1,,,,,
0.17,,,,,,,,,d,orange,5fadeb340e10471fdeb5fbf5,2021-09-28_09h44.13.294,forced_choiceRT_color,2021.2.3,MacIntel,60.0024001,,,,,,,,4,Ontime,long,d,1,1.9574,2,1,9,0,1,,,,,
1.33,,,,,,,,,k,purple,5fadeb340e10471fdeb5fbf5,2021-09-28_09h44.13.294,forced_choiceRT_color,2021.2.3,MacIntel,60.0024001,,,,,,,,4,Ontime,long,k,1,1.9948,2,2,10,3,1,,,,,
0.42,,,,,,,,,d,orange,5fadeb340e10471fdeb5fbf5,2021-09-28_09h44.13.294,forced_choiceRT_color,2021.2.3,MacIntel,60.0024001,,,,,,,,4,Ontime,long,d,1,1.9402,2,3,11,0,1,,,,,
1.75,,,,,,,,,f,blue,5fadeb340e10471fdeb5fbf5,2021-09-28_09h44.13.294,forced_choiceRT_color,2021.2.3,MacIntel,60.0024001,,,,,,,,4,Ontime,long,j,0,1.9145,3,0,12,1,1,,,,,
0.41,,,,,,,,,d,orange,5fadeb340e10471fdeb5fbf5,2021-09-28_09h44.13.294,forced_choiceRT_color,2021.2.3,MacIntel,60.0024001,,,,,,,,4,Fast,long,d,1,1.8807,3,1,13,0,1,,,,,
1.62,,,,,,,,,f,blue,5fadeb340e10471fdeb5fbf5,2021-09-28_09h44.13.294,forced_choiceRT_color,2021.2.3,MacIntel,60.0024001,,,,,,,,4,Ontime,long,d,0,2.012,3,2,14,1,1,,,,,
1.07,,,,,,,,,k,purple,5fadeb340e10471fdeb5fbf5,2021-09-28_09h44.13.294,forced_choiceRT_color,2021.2.3,MacIntel,60.0024001,,,,,,,,4,Ontime,long,j,0,1.9967,3,3,15,3,1,,,,,
1.7,,,,,,,,,j,red,5fadeb340e10471fdeb5fbf5,2021-09-28_09h44.13.294,forced_choiceRT_color,2021.2.3,MacIntel,60.0024001,,,,,,,,4,Ontime,long,k,0,2.0767,4,0,16,2,1,,,,,
0.69,,,,,,,,,f,blue,5fadeb340e10471fdeb5fbf5,2021-09-28_09h44.13.294,forced_choiceRT_color,2021.2.3,MacIntel,60.0024001,,,,,,,,4,Fast,long,d,0,1.7112,4,1,17,1,1,,,,,
1.52,,,,,,,,,d,orange,5fadeb340e10471fdeb5fbf5,2021-09-28_09h44.13.294,forced_choiceRT_color,2021.2.3,MacIntel,60.0024001,,,,,,,,4,Fast,long,j,0,1.8744,4,2,18,0,1,,,,,
0.1,,,,,,,,,k,purple,5fadeb340e10471fdeb5fbf5,2021-09-28_09h44.13.294,forced_choiceRT_color,2021.2.3,MacIntel,60.0024001,,,,,,,,4,Ontime,long,k,1,1.9107,4,3,19,3,1,,,,,
1.81,,,,,,,,,k,purple,5fadeb340e10471fdeb5fbf5,2021-09-28_09h44.13.294,forced_choiceRT_color,2021.2.3,MacIntel,60.0024001,,,,,,,,4,Ontime,long,d,0,2.0736,5,0,20,3,1,,,,,
0.75,,,,,,,,,k,purple,5fadeb340e10471fdeb5fbf5,2021-09-28_09h44.13.294,forced_choiceRT_color,2021.2.3,MacIntel,60.0024001,,,,,,,,4,Ontime,long,k,1,1.9099,5,1,21,3,1,,,,,
1.09,,,,,,,,,j,red,5fadeb340e10471fdeb5fbf5,2021-09-28_09h44.13.294,forced_choiceRT_color,2021.2.3,MacIntel,60.0024001,,,,,,,,4,Ontime,long,j,1,1.9324,5,2,22,2,1,,,,,
1.19,,,,,,,,,f,blue,5fadeb340e10471fdeb5fbf5,2021-09-28_09h44.13.294,forced_choiceRT_color,2021.2.3,MacIntel,60.0024001,,,,,,,,4,Ontime,long,d,0,1.9279,5,3,23,1,1,,,,,
1.26,,,,,,,,,j,red,5fadeb340e10471fdeb5fbf5,2021-09-28_09h44.13.294,forced_choiceRT_color,2021.2.3,MacIntel,60.0024001,,,,,,,,4,Fast,long,j,1,1.8484,6,0,24,2,1,,,,,
0.82,,,,,,,,,k,purple,5fadeb340e10471fdeb5fbf5,2021-09-28_09h44.13.294,forced_choiceRT_color,2021.2.3,MacIntel,60.0024001,,,,,,,,4,Fast,long,k,1,1.8586,6,1,25,3,1,,,,,
1.19,,,,,,,,,j,red,5fadeb340e10471fdeb5fbf5,2021-09-28_09h44.13.294,forced_choiceRT_color,2021.2.3,MacIntel,60.0024001,,,,,,,,4,Ontime,long,j,1,2.0235,6,2,26,2,1,,,,,
1.42,,,,,,,,,k,purple,5fadeb340e10471fdeb5fbf5,2021-09-28_09h44.13.294,forced_choiceRT_color,2021.2.3,MacIntel,60.0024001,,,,,,,,4,Ontime,long,k,1,2.0807,6,3,27,3,1,,,,,
0.49,,,,,,,,,d,orange,5fadeb340e10471fdeb5fbf5,2021-09-28_09h44.13.294,forced_choiceRT_color,2021.2.3,MacIntel,60.0024001,,,,,,,,4,Ontime,long,d,1,1.9741,7,0,28,0,1,,,,,
1.19,,,,,,,,,j,red,5fadeb340e10471fdeb5fbf5,2021-09-28_09h44.13.294,forced_choiceRT_color,2021.2.3,MacIntel,60.0024001,,,,,,,,4,Fast,long,j,1,1.8751,7,1,29,2,1,,,,,
0.51,,,,,,,,,d,orange,5fadeb340e10471fdeb5fbf5,2021-09-28_09h44.13.294,forced_choiceRT_color,2021.2.3,MacIntel,60.0024001,,,,,,,,4,Ontime,long,d,1,2.0224,7,2,30,0,1,,,,,
1.51,,,,,,,,,d,orange,5fadeb340e10471fdeb5fbf5,2021-09-28_09h44.13.294,forced_choiceRT_color,2021.2.3,MacIntel,60.0024001,,,,,,,,4,Slow,long,d,1,2.1378,7,3,31,0,1,,,,,
0.06,,,,,,,,,f,blue,5fadeb340e10471fdeb5fbf5,2021-09-28_09h44.13.294,forced_choiceRT_color,2021.2.3,MacIntel,60.0024001,,,,,,,,4,Fast,long,f,1,1.8083,8,0,32,1,1,,,,,
1.56,,,,,,,,,f,blue,5fadeb340e10471fdeb5fbf5,2021-09-28_09h44.13.294,forced_choiceRT_color,2021.2.3,MacIntel,60.0024001,,,,,,,,4,Fast,long,k,0,1.8811,8,1,33,1,1,,,,,
0.92,,,,,,,,,j,red,5fadeb340e10471fdeb5fbf5,2021-09-28_09h44.13.294,forced_choiceRT_color,2021.2.3,MacIntel,60.0024001,,,,,,,,4,Ontime,long,j,1,1.921,8,2,34,2,1,,,,,
0.33,,,,,,,,,j,red,5fadeb340e10471fdeb5fbf5,2021-09-28_09h44.13.294,forced_choiceRT_color,2021.2.3,MacIntel,60.0024001,,,,,,,,4,Fast,long,j,1,1.7559,8,3,35,2,1,,,,,
0.85,,,,,,,,,k,purple,5fadeb340e10471fdeb5fbf5,2021-09-28_09h44.13.294,forced_choiceRT_color,2021.2.3,MacIntel,60.0024001,,,,,,,,4,Ontime,long,k,1,1.9409,9,0,36,3,1,,,,,
0.35,,,,,,,,,j,red,5fadeb340e10471fdeb5fbf5,2021-09-28_09h44.13.294,forced_choiceRT_color,2021.2.3,MacIntel,60.0024001,,,,,,,,4,Ontime,long,j,1,1.9617,9,1,37,2,1,,,,,
1.33,,,,,,,,,k,purple,5fadeb340e10471fdeb5fbf5,2021-09-28_09h44.13.294,forced_choiceRT_color,2021.2.3,MacIntel,60.0024001,,,,,,,,4,Ontime,long,k,1,1.9762,9,2,38,3,1,,,,,
1.04,,,,,,,,,f,blue,5fadeb340e10471fdeb5fbf5,2021-09-28_09h44.13.294,forced_choiceRT_color,2021.2.3,MacIntel,60.0024001,,,,,,,,4,Ontime,long,j,0,1.9297,9,3,39,1,1,,,,,
,,,,,,,,,,,5fadeb340e10471fdeb5fbf5,2021-09-28_09h44.13.294,forced_choiceRT_color,2021.2.3,MacIntel,60.0024001,,,,,,,,,,,,,,,,,,,3,0,3,0,1
1.17,,,,,,,,,k,purple,5fadeb340e10471fdeb5fbf5,2021-09-28_09h44.13.294,forced_choiceRT_color,2021.2.3,MacIntel,60.0024001,,,,,,,,5,Fast,long,k,1,1.7752,0,0,0,3,1,,,,,
0.52,,,,,,,,,j,red,5fadeb340e10471fdeb5fbf5,2021-09-28_09h44.13.294,forced_choiceRT_color,2021.2.3,MacIntel,60.0024001,,,,,,,,5,Fast,long,j,1,1.7405,0,1,1,2,1,,,,,
1.12,,,,,,,,,j,red,5fadeb340e10471fdeb5fbf5,2021-09-28_09h44.13.294,forced_choiceRT_color,2021.2.3,MacIntel,60.0024001,,,,,,,,5,Fast,long,j,1,1.8241,0,2,2,2,1,,,,,
1.42,,,,,,,,,k,purple,5fadeb340e10471fdeb5fbf5,2021-09-28_09h44.13.294,forced_choiceRT_color,2021.2.3,MacIntel,60.0024001,,,,,,,,5,Fast,long,k,1,1.8973,0,3,3,3,1,,,,,
1.96,,,,,,,,,j,red,5fadeb340e10471fdeb5fbf5,2021-09-28_09h44.13.294,forced_choiceRT_color,2021.2.3,MacIntel,60.0024001,,,,,,,,5,Slow,long,f,0,2.1596,1,0,4,2,1,,,,,
0.59,,,,,,,,,d,orange,5fadeb340e10471fdeb5fbf5,2021-09-28_09h44.13.294,forced_choiceRT_color,2021.2.3,MacIntel,60.0024001,,,,,,,,5,Ontime,long,d,1,1.9302,1,1,5,0,1,,,,,
1.78,,,,,,,,,d,orange,5fadeb340e10471fdeb5fbf5,2021-09-28_09h44.13.294,forced_choiceRT_color,2021.2.3,MacIntel,60.0024001,,,,,,,,5,Ontime,long,k,0,2.0057,1,2,6,0,1,,,,,
1.23,,,,,,,,,f,blue,5fadeb340e10471fdeb5fbf5,2021-09-28_09h44.13.294,forced_choiceRT_color,2021.2.3,MacIntel,60.0024001,,,,,,,,5,Fast,long,d,0,1.8715,1,3,7,1,1,,,,,
1.54,,,,,,,,,k,purple,5fadeb340e10471fdeb5fbf5,2021-09-28_09h44.13.294,forced_choiceRT_color,2021.2.3,MacIntel,60.0024001,,,,,,,,5,Ontime,long,j,0,1.9586,2,0,8,3,1,,,,,
1.82,,,,,,,,,d,orange,5fadeb340e10471fdeb5fbf5,2021-09-28_09h44.13.294,forced_choiceRT_color,2021.2.3,MacIntel,60.0024001,,,,,,,,5,Ontime,long,k,0,1.9461,2,1,9,0,1,,,,,
0.63,,,,,,,,,d,orange,5fadeb340e10471fdeb5fbf5,2021-09-28_09h44.13.294,forced_choiceRT_color,2021.2.3,MacIntel,60.0024001,,,,,,,,5,Fast,long,d,1,1.8222,2,2,10,0,1,,,,,
0.28,,,,,,,,,j,red,5fadeb340e10471fdeb5fbf5,2021-09-28_09h44.13.294,forced_choiceRT_color,2021.2.3,MacIntel,60.0024001,,,,,,,,5,Fast,long,j,1,1.7888,2,3,11,2,1,,,,,
1.16,,,,,,,,,d,orange,5fadeb340e10471fdeb5fbf5,2021-09-28_09h44.13.294,forced_choiceRT_color,2021.2.3,MacIntel,60.0024001,,,,,,,,5,Ontime,long,d,1,1.9581,3,0,12,0,1,,,,,
0,,,,,,,,,f,blue,5fadeb340e10471fdeb5fbf5,2021-09-28_09h44.13.294,forced_choiceRT_color,2021.2.3,MacIntel,60.0024001,,,,,,,,5,Fast,long,f,1,1.8917,3,1,13,1,1,,,,,
1.11,,,,,,,,,k,purple,5fadeb340e10471fdeb5fbf5,2021-09-28_09h44.13.294,forced_choiceRT_color,2021.2.3,MacIntel,60.0024001,,,,,,,,5,Ontime,long,k,1,1.9263,3,2,14,3,1,,,,,
1.77,,,,,,,,,f,blue,5fadeb340e10471fdeb5fbf5,2021-09-28_09h44.13.294,forced_choiceRT_color,2021.2.3,MacIntel,60.0024001,,,,,,,,5,Ontime,long,k,0,2.0742,3,3,15,1,1,,,,,
1.07,,,,,,,,,d,orange,5fadeb340e10471fdeb5fbf5,2021-09-28_09h44.13.294,forced_choiceRT_color,2021.2.3,MacIntel,60.0024001,,,,,,,,5,Ontime,long,d,1,1.9638,4,0,16,0,1,,,,,
1.1,,,,,,,,,f,blue,5fadeb340e10471fdeb5fbf5,2021-09-28_09h44.13.294,forced_choiceRT_color,2021.2.3,MacIntel,60.0024001,,,,,,,,5,Fast,long,f,1,1.8935,4,1,17,1,1,,,,,
0.05,,,,,,,,,j,red,5fadeb340e10471fdeb5fbf5,2021-09-28_09h44.13.294,forced_choiceRT_color,2021.2.3,MacIntel,60.0024001,,,,,,,,5,Fast,long,j,1,1.8725,4,2,18,2,1,,,,,
0.45,,,,,,,,,k,purple,5fadeb340e10471fdeb5fbf5,2021-09-28_09h44.13.294,forced_choiceRT_color,2021.2.3,MacIntel,60.0024001,,,,,,,,5,Fast,long,k,1,1.8395,4,3,19,3,1,,,,,
1.22,,,,,,,,,k,purple,5fadeb340e10471fdeb5fbf5,2021-09-28_09h44.13.294,forced_choiceRT_color,2021.2.3,MacIntel,60.0024001,,,,,,,,5,Ontime,long,k,1,2.0316,5,0,20,3,1,,,,,
1.95,,,,,,,,,j,red,5fadeb340e10471fdeb5fbf5,2021-09-28_09h44.13.294,forced_choiceRT_color,2021.2.3,MacIntel,60.0024001,,,,,,,,5,Ontime,long,k,0,1.9733,5,1,21,2,1,,,,,
1.89,,,,,,,,,k,purple,5fadeb340e10471fdeb5fbf5,2021-09-28_09h44.13.294,forced_choiceRT_color,2021.2.3,MacIntel,60.0024001,,,,,,,,5,Fast,long,d,0,1.8417,5,2,22,3,1,,,,,
0.58,,,,,,,,,k,purple,5fadeb340e10471fdeb5fbf5,2021-09-28_09h44.13.294,forced_choiceRT_color,2021.2.3,MacIntel,60.0024001,,,,,,,,5,Ontime,long,k,1,1.9313,5,3,23,3,1,,,,,
1.38,,,,,,,,,d,orange,5fadeb340e10471fdeb5fbf5,2021-09-28_09h44.13.294,forced_choiceRT_color,2021.2.3,MacIntel,60.0024001,,,,,,,,5,Ontime,long,j,0,1.9867,6,0,24,0,1,,,,,
0.18,,,,,,,,,f,blue,5fadeb340e10471fdeb5fbf5,2021-09-28_09h44.13.294,forced_choiceRT_color,2021.2.3,MacIntel,60.0024001,,,,,,,,5,Ontime,long,f,1,1.9137,6,1,25,1,1,,,,,
0.92,,,,,,,,,f,blue,5fadeb340e10471fdeb5fbf5,2021-09-28_09h44.13.294,forced_choiceRT_color,2021.2.3,MacIntel,60.0024001,,,,,,,,5,Fast,long,f,1,1.8621,6,2,26,1,1,,,,,
0.94,,,,,,,,,d,orange,5fadeb340e10471fdeb5fbf5,2021-09-28_09h44.13.294,forced_choiceRT_color,2021.2.3,MacIntel,60.0024001,,,,,,,,5,Ontime,long,d,1,1.9662,6,3,27,0,1,,,,,
1.98,,,,,,,,,f,blue,5fadeb340e10471fdeb5fbf5,2021-09-28_09h44.13.294,forced_choiceRT_color,2021.2.3,MacIntel,60.0024001,,,,,,,,5,Fast,long,k,0,1.8717,7,0,28,1,1,,,,,
0.96,,,,,,,,,f,blue,5fadeb340e10471fdeb5fbf5,2021-09-28_09h44.13.294,forced_choiceRT_color,2021.2.3,MacIntel,60.0024001,,,,,,,,5,Ontime,long,j,0,2.0285,7,1,29,1,1,,,,,
1.11,,,,,,,,,j,red,5fadeb340e10471fdeb5fbf5,2021-09-28_09h44.13.294,forced_choiceRT_color,2021.2.3,MacIntel,60.0024001,,,,,,,,5,Fast,long,d,0,1.8921,7,2,30,2,1,,,,,
1.5,,,,,,,,,j,red,5fadeb340e10471fdeb5fbf5,2021-09-28_09h44.13.294,forced_choiceRT_color,2021.2.3,MacIntel,60.0024001,,,,,,,,5,Ontime,long,k,0,1.9432,7,3,31,2,1,,,,,
1.99,,,,,,,,,f,blue,5fadeb340e10471fdeb5fbf5,2021-09-28_09h44.13.294,forced_choiceRT_color,2021.2.3,MacIntel,60.0024001,,,,,,,,5,Slow,long,k,0,2.3163,8,0,32,1,1,,,,,
1.55,,,,,,,,,k,purple,5fadeb340e10471fdeb5fbf5,2021-09-28_09h44.13.294,forced_choiceRT_color,2021.2.3,MacIntel,60.0024001,,,,,,,,5,Fast,long,j,0,1.8443,8,1,33,3,1,,,,,
1.28,,,,,,,,,k,purple,5fadeb340e10471fdeb5fbf5,2021-09-28_09h44.13.294,forced_choiceRT_color,2021.2.3,MacIntel,60.0024001,,,,,,,,5,Fast,long,k,1,1.8609,8,2,34,3,1,,,,,
0.52,,,,,,,,,j,red,5fadeb340e10471fdeb5fbf5,2021-09-28_09h44.13.294,forced_choiceRT_color,2021.2.3,MacIntel,60.0024001,,,,,,,,5,Ontime,long,j,1,1.9491,8,3,35,2,1,,,,,
1.64,,,,,,,,,d,orange,5fadeb340e10471fdeb5fbf5,2021-09-28_09h44.13.294,forced_choiceRT_color,2021.2.3,MacIntel,60.0024001,,,,,,,,5,Ontime,long,j,0,1.9124,9,0,36,0,1,,,,,
0.48,,,,,,,,,d,orange,5fadeb340e10471fdeb5fbf5,2021-09-28_09h44.13.294,forced_choiceRT_color,2021.2.3,MacIntel,60.0024001,,,,,,,,5,Ontime,long,d,1,1.9244,9,1,37,0,1,,,,,
0.26,,,,,,,,,f,blue,5fadeb340e10471fdeb5fbf5,2021-09-28_09h44.13.294,forced_choiceRT_color,2021.2.3,MacIntel,60.0024001,,,,,,,,5,Ontime,long,f,1,1.9912,9,2,38,1,1,,,,,
0.02,,,,,,,,,j,red,5fadeb340e10471fdeb5fbf5,2021-09-28_09h44.13.294,forced_choiceRT_color,2021.2.3,MacIntel,60.0024001,,,,,,,,5,Ontime,long,j,1,2.0909,9,3,39,2,1,,,,,
,,,,,,,,,,,5fadeb340e10471fdeb5fbf5,2021-09-28_09h44.13.294,forced_choiceRT_color,2021.2.3,MacIntel,60.0024001,,,,,,,,,,,,,,,,,,,4,0,4,0,1
1.99,,,,,,,,,k,purple,5fadeb340e10471fdeb5fbf5,2021-09-28_09h44.13.294,forced_choiceRT_color,2021.2.3,MacIntel,60.0024001,,,,,,,,6,Fast,long,k,1,1.8681,0,0,0,3,1,,,,,
1.96,,,,,,,,,f,blue,5fadeb340e10471fdeb5fbf5,2021-09-28_09h44.13.294,forced_choiceRT_color,2021.2.3,MacIntel,60.0024001,,,,,,,,6,Slow,long,d,0,2.124,0,1,1,1,1,,,,,
1.41,,,,,,,,,j,red,5fadeb340e10471fdeb5fbf5,2021-09-28_09h44.13.294,forced_choiceRT_color,2021.2.3,MacIntel,60.0024001,,,,,,,,6,Fast,long,j,1,1.7756,0,2,2,2,1,,,,,
0.76,,,,,,,,,d,orange,5fadeb340e10471fdeb5fbf5,2021-09-28_09h44.13.294,forced_choiceRT_color,2021.2.3,MacIntel,60.0024001,,,,,,,,6,Ontime,long,d,1,1.9058,0,3,3,0,1,,,,,
1.75,,,,,,,,,f,blue,5fadeb340e10471fdeb5fbf5,2021-09-28_09h44.13.294,forced_choiceRT_color,2021.2.3,MacIntel,60.0024001,,,,,,,,6,Ontime,long,d,0,1.9449,1,0,4,1,1,,,,,
0.67,,,,,,,,,d,orange,5fadeb340e10471fdeb5fbf5,2021-09-28_09h44.13.294,forced_choiceRT_color,2021.2.3,MacIntel,60.0024001,,,,,,,,6,Fast,long,d,1,1.8921,1,1,5,0,1,,,,,
0.68,,,,,,,,,k,purple,5fadeb340e10471fdeb5fbf5,2021-09-28_09h44.13.294,forced_choiceRT_color,2021.2.3,MacIntel,60.0024001,,,,,,,,6,Fast,long,d,0,1.7818,1,2,6,3,1,,,,,
0.81,,,,,,,,,d,orange,5fadeb340e10471fdeb5fbf5,2021-09-28_09h44.13.294,forced_choiceRT_color,2021.2.3,MacIntel,60.0024001,,,,,,,,6,Ontime,long,d,1,1.9071,1,3,7,0,1,,,,,
0.87,,,,,,,,,f,blue,5fadeb340e10471fdeb5fbf5,2021-09-28_09h44.13.294,forced_choiceRT_color,2021.2.3,MacIntel,60.0024001,,,,,,,,6,Fast,long,f,1,1.8718,2,0,8,1,1,,,,,
0.6,,,,,,,,,k,purple,5fadeb340e10471fdeb5fbf5,2021-09-28_09h44.13.294,forced_choiceRT_color,2021.2.3,MacIntel,60.0024001,,,,,,,,6,Fast,long,k,1,1.8544,2,1,9,3,1,,,,,
1.93,,,,,,,,,k,purple,5fadeb340e10471fdeb5fbf5,2021-09-28_09h44.13.294,forced_choiceRT_color,2021.2.3,MacIntel,60.0024001,,,,,,,,6,Fast,long,k,1,1.8507,2,2,10,3,1,,,,,
0.21,,,,,,,,,j,red,5fadeb340e10471fdeb5fbf5,2021-09-28_09h44.13.294,forced_choiceRT_color,2021.2.3,MacIntel,60.0024001,,,,,,,,6,Ontime,long,j,1,1.9218,2,3,11,2,1,,,,,
0.9,,,,,,,,,k,purple,5fadeb340e10471fdeb5fbf5,2021-09-28_09h44.13.294,forced_choiceRT_color,2021.2.3,MacIntel,60.0024001,,,,,,,,6,Ontime,long,k,1,2.0535,3,0,12,3,1,,,,,
0.11,,,,,,,,,k,purple,5fadeb340e10471fdeb5fbf5,2021-09-28_09h44.13.294,forced_choiceRT_color,2021.2.3,MacIntel,60.0024001,,,,,,,,6,Ontime,long,k,1,1.9289,3,1,13,3,1,,,,,
1.59,,,,,,,,,f,blue,5fadeb340e10471fdeb5fbf5,2021-09-28_09h44.13.294,forced_choiceRT_color,2021.2.3,MacIntel,60.0024001,,,,,,,,6,Ontime,long,f,1,1.9392,3,2,14,1,1,,,,,
0.2,,,,,,,,,d,orange,5fadeb340e10471fdeb5fbf5,2021-09-28_09h44.13.294,forced_choiceRT_color,2021.2.3,MacIntel,60.0024001,,,,,,,,6,Ontime,long,d,1,1.9779,3,3,15,0,1,,,,,
0.54,,,,,,,,,d,orange,5fadeb340e10471fdeb5fbf5,2021-09-28_09h44.13.294,forced_choiceRT_color,2021.2.3,MacIntel,60.0024001,,,,,,,,6,Fast,long,d,1,1.8897,4,0,16,0,1,,,,,
0.58,,,,,,,,,d,orange,5fadeb340e10471fdeb5fbf5,2021-09-28_09h44.13.294,forced_choiceRT_color,2021.2.3,MacIntel,60.0024001,,,,,,,,6,Ontime,long,d,1,1.9176,4,1,17,0,1,,,,,
0.73,,,,,,,,,k,purple,5fadeb340e10471fdeb5fbf5,2021-09-28_09h44.13.294,forced_choiceRT_color,2021.2.3,MacIntel,60.0024001,,,,,,,,6,Ontime,long,k,1,1.9422,4,2,18,3,1,,,,,
1.6,,,,,,,,,d,orange,5fadeb340e10471fdeb5fbf5,2021-09-28_09h44.13.294,forced_choiceRT_color,2021.2.3,MacIntel,60.0024001,,,,,,,,6,Fast,long,j,0,1.8784,4,3,19,0,1,,,,,
1.02,,,,,,,,,k,purple,5fadeb340e10471fdeb5fbf5,2021-09-28_09h44.13.294,forced_choiceRT_color,2021.2.3,MacIntel,60.0024001,,,,,,,,6,Ontime,long,d,0,1.9056,5,0,20,3,1,,,,,
0.7,,,,,,,,,j,red,5fadeb340e10471fdeb5fbf5,2021-09-28_09h44.13.294,forced_choiceRT_color,2021.2.3,MacIntel,60.0024001,,,,,,,,6,Fast,long,j,1,1.8908,5,1,21,2,1,,,,,
1.6,,,,,,,,,f,blue,5fadeb340e10471fdeb5fbf5,2021-09-28_09h44.13.294,forced_choiceRT_color,2021.2.3,MacIntel,60.0024001,,,,,,,,6,Ontime,long,k,0,1.9407,5,2,22,1,1,,,,,
0.81,,,,,,,,,k,purple,5fadeb340e10471fdeb5fbf5,2021-09-28_09h44.13.294,forced_choiceRT_color,2021.2.3,MacIntel,60.0024001,,,,,,,,6,Ontime,long,j,0,1.926,5,3,23,3,1,,,,,
0.55,,,,,,,,,d,orange,5fadeb340e10471fdeb5fbf5,2021-09-28_09h44.13.294,forced_choiceRT_color,2021.2.3,MacIntel,60.0024001,,,,,,,,6,Fast,long,d,1,1.8919,6,0,24,0,1,,,,,
0.95,,,,,,,,,k,purple,5fadeb340e10471fdeb5fbf5,2021-09-28_09h44.13.294,forced_choiceRT_color,2021.2.3,MacIntel,60.0024001,,,,,,,,6,Ontime,long,k,1,1.963,6,1,25,3,1,,,,,
0.71,,,,,,,,,j,red,5fadeb340e10471fdeb5fbf5,2021-09-28_09h44.13.294,forced_choiceRT_color,2021.2.3,MacIntel,60.0024001,,,,,,,,6,Fast,long,j,1,1.8823,6,2,26,2,1,,,,,
0.53,,,,,,,,,j,red,5fadeb340e10471fdeb5fbf5,2021-09-28_09h44.13.294,forced_choiceRT_color,2021.2.3,MacIntel,60.0024001,,,,,,,,6,Ontime,long,j,1,1.9057,6,3,27,2,1,,,,,
1.87,,,,,,,,,j,red,5fadeb340e10471fdeb5fbf5,2021-09-28_09h44.13.294,forced_choiceRT_color,2021.2.3,MacIntel,60.0024001,,,,,,,,6,Ontime,long,j,1,1.9631,7,0,28,2,1,,,,,
0.72,,,,,,,,,j,red,5fadeb340e10471fdeb5fbf5,2021-09-28_09h44.13.294,forced_choiceRT_color,2021.2.3,MacIntel,60.0024001,,,,,,,,6,Ontime,long,j,1,1.9129,7,1,29,2,1,,,,,
1.55,,,,,,,,,f,blue,5fadeb340e10471fdeb5fbf5,2021-09-28_09h44.13.294,forced_choiceRT_color,2021.2.3,MacIntel,60.0024001,,,,,,,,6,Ontime,long,k,0,1.9537,7,2,30,1,1,,,,,
0.03,,,,,,,,,d,orange,5fadeb340e10471fdeb5fbf5,2021-09-28_09h44.13.294,forced_choiceRT_color,2021.2.3,MacIntel,60.0024001,,,,,,,,6,Ontime,long,d,1,2.0197,7,3,31,0,1,,,,,
1.39,,,,,,,,,f,blue,5fadeb340e10471fdeb5fbf5,2021-09-28_09h44.13.294,forced_choiceRT_color,2021.2.3,MacIntel,60.0024001,,,,,,,,6,Ontime,long,k,0,2.0075,8,0,32,1,1,,,,,
1.79,,,,,,,,,f,blue,5fadeb340e10471fdeb5fbf5,2021-09-28_09h44.13.294,forced_choiceRT_color,2021.2.3,MacIntel,60.0024001,,,,,,,,6,Ontime,long,j,0,1.9739,8,1,33,1,1,,,,,
1.05,,,,,,,,,f,blue,5fadeb340e10471fdeb5fbf5,2021-09-28_09h44.13.294,forced_choiceRT_color,2021.2.3,MacIntel,60.0024001,,,,,,,,6,Ontime,long,f,1,1.9973,8,2,34,1,1,,,,,
1.12,,,,,,,,,j,red,5fadeb340e10471fdeb5fbf5,2021-09-28_09h44.13.294,forced_choiceRT_color,2021.2.3,MacIntel,60.0024001,,,,,,,,6,Ontime,long,j,1,1.9078,8,3,35,2,1,,,,,
0.82,,,,,,,,,j,red,5fadeb340e10471fdeb5fbf5,2021-09-28_09h44.13.294,forced_choiceRT_color,2021.2.3,MacIntel,60.0024001,,,,,,,,6,Ontime,long,j,1,1.9824,9,0,36,2,1,,,,,
1.05,,,,,,,,,j,red,5fadeb340e10471fdeb5fbf5,2021-09-28_09h44.13.294,forced_choiceRT_color,2021.2.3,MacIntel,60.0024001,,,,,,,,6,Ontime,long,j,1,1.911,9,1,37,2,1,,,,,
1.94,,,,,,,,,d,orange,5fadeb340e10471fdeb5fbf5,2021-09-28_09h44.13.294,forced_choiceRT_color,2021.2.3,MacIntel,60.0024001,,,,,,,,6,Ontime,long,k,0,1.9818,9,2,38,0,1,,,,,
1.07,,,,,,,,,f,blue,5fadeb340e10471fdeb5fbf5,2021-09-28_09h44.13.294,forced_choiceRT_color,2021.2.3,MacIntel,60.0024001,,,,,,,,6,Ontime,long,f,1,2.0319,9,3,39,1,1,,,,,
,,,,,,,,,,,5fadeb340e10471fdeb5fbf5,2021-09-28_09h44.13.294,forced_choiceRT_color,2021.2.3,MacIntel,60.0024001,,,,,,,,,,,,,,,,,,,5,0,5,0,1
1.64,,,,,,,,,d,orange,5fadeb340e10471fdeb5fbf5,2021-09-28_09h44.13.294,forced_choiceRT_color,2021.2.3,MacIntel,60.0024001,,,,,,,,7,Fast,long,k,0,1.8556,0,0,0,0,1,,,,,
1.37,,,,,,,,,k,purple,5fadeb340e10471fdeb5fbf5,2021-09-28_09h44.13.294,forced_choiceRT_color,2021.2.3,MacIntel,60.0024001,,,,,,,,7,Ontime,long,k,1,1.9162,0,1,1,3,1,,,,,
1.03,,,,,,,,,d,orange,5fadeb340e10471fdeb5fbf5,2021-09-28_09h44.13.294,forced_choiceRT_color,2021.2.3,MacIntel,60.0024001,,,,,,,,7,Ontime,long,d,1,1.9725,0,2,2,0,1,,,,,
1.78,,,,,,,,,f,blue,5fadeb340e10471fdeb5fbf5,2021-09-28_09h44.13.294,forced_choiceRT_color,2021.2.3,MacIntel,60.0024001,,,,,,,,7,Ontime,long,j,0,1.9302,0,3,3,1,1,,,,,
1.81,,,,,,,,,f,blue,5fadeb340e10471fdeb5fbf5,2021-09-28_09h44.13.294,forced_choiceRT_color,2021.2.3,MacIntel,60.0024001,,,,,,,,7,Fast,long,k,0,1.8956,1,0,4,1,1,,,,,
1.6,,,,,,,,,d,orange,5fadeb340e10471fdeb5fbf5,2021-09-28_09h44.13.294,forced_choiceRT_color,2021.2.3,MacIntel,60.0024001,,,,,,,,7,Fast,long,d,1,1.8599,1,1,5,0,1,,,,,
0.71,,,,,,,,,j,red,5fadeb340e10471fdeb5fbf5,2021-09-28_09h44.13.294,forced_choiceRT_color,2021.2.3,MacIntel,60.0024001,,,,,,,,7,Fast,long,j,1,1.7973,1,2,6,2,1,,,,,
1.22,,,,,,,,,d,orange,5fadeb340e10471fdeb5fbf5,2021-09-28_09h44.13.294,forced_choiceRT_color,2021.2.3,MacIntel,60.0024001,,,,,,,,7,Fast,long,d,1,1.8491,1,3,7,0,1,,,,,
0.28,,,,,,,,,f,blue,5fadeb340e10471fdeb5fbf5,2021-09-28_09h44.13.294,forced_choiceRT_color,2021.2.3,MacIntel,60.0024001,,,,,,,,7,Fast,long,f,1,1.8284,2,0,8,1,1,,,,,
1.94,,,,,,,,,d,orange,5fadeb340e10471fdeb5fbf5,2021-09-28_09h44.13.294,forced_choiceRT_color,2021.2.3,MacIntel,60.0024001,,,,,,,,7,Ontime,long,j,0,2.0538,2,1,9,0,1,,,,,
0.62,,,,,,,,,j,red,5fadeb340e10471fdeb5fbf5,2021-09-28_09h44.13.294,forced_choiceRT_color,2021.2.3,MacIntel,60.0024001,,,,,,,,7,Fast,long,j,1,1.7617,2,2,10,2,1,,,,,
0.55,,,,,,,,,f,blue,5fadeb340e10471fdeb5fbf5,2021-09-28_09h44.13.294,forced_choiceRT_color,2021.2.3,MacIntel,60.0024001,,,,,,,,7,Fast,long,f,1,1.8893,2,3,11,1,1,,,,,
0.91,,,,,,,,,f,blue,5fadeb340e10471fdeb5fbf5,2021-09-28_09h44.13.294,forced_choiceRT_color,2021.2.3,MacIntel,60.0024001,,,,,,,,7,Ontime,long,f,1,1.9891,3,0,12,1,1,,,,,
0.93,,,,,,,,,k,purple,5fadeb340e10471fdeb5fbf5,2021-09-28_09h44.13.294,forced_choiceRT_color,2021.2.3,MacIntel,60.0024001,,,,,,,,7,Ontime,long,k,1,1.9474,3,1,13,3,1,,,,,
0.25,,,,,,,,,f,blue,5fadeb340e10471fdeb5fbf5,2021-09-28_09h44.13.294,forced_choiceRT_color,2021.2.3,MacIntel,60.0024001,,,,,,,,7,Fast,long,f,1,1.8213,3,2,14,1,1,,,,,
1.31,,,,,,,,,j,red,5fadeb340e10471fdeb5fbf5,2021-09-28_09h44.13.294,forced_choiceRT_color,2021.2.3,MacIntel,60.0024001,,,,,,,,7,Ontime,long,k,0,1.9726,3,3,15,2,1,,,,,
1.4,,,,,,,,,k,purple,5fadeb340e10471fdeb5fbf5,2021-09-28_09h44.13.294,forced_choiceRT_color,2021.2.3,MacIntel,60.0024001,,,,,,,,7,Fast,long,j,0,1.8733,4,0,16,3,1,,,,,
1.09,,,,,,,,,k,purple,5fadeb340e10471fdeb5fbf5,2021-09-28_09h44.13.294,forced_choiceRT_color,2021.2.3,MacIntel,60.0024001,,,,,,,,7,Ontime,long,k,1,2.004,4,1,17,3,1,,,,,
0.17,,,,,,,,,d,orange,5fadeb340e10471fdeb5fbf5,2021-09-28_09h44.13.294,forced_choiceRT_color,2021.2.3,MacIntel,60.0024001,,,,,,,,7,Fast,long,d,1,1.8957,4,2,18,0,1,,,,,
1.42,,,,,,,,,j,red,5fadeb340e10471fdeb5fbf5,2021-09-28_09h44.13.294,forced_choiceRT_color,2021.2.3,MacIntel,60.0024001,,,,,,,,7,Fast,long,k,0,1.845,4,3,19,2,1,,,,,
1.85,,,,,,,,,j,red,5fadeb340e10471fdeb5fbf5,2021-09-28_09h44.13.294,forced_choiceRT_color,2021.2.3,MacIntel,60.0024001,,,,,,,,7,Ontime,long,k,0,2.0088,5,0,20,2,1,,,,,
0.37,,,,,,,,,j,red,5fadeb340e10471fdeb5fbf5,2021-09-28_09h44.13.294,forced_choiceRT_color,2021.2.3,MacIntel,60.0024001,,,,,,,,7,Ontime,long,j,1,1.9073,5,1,21,2,1,,,,,
1.88,,,,,,,,,j,red,5fadeb340e10471fdeb5fbf5,2021-09-28_09h44.13.294,forced_choiceRT_color,2021.2.3,MacIntel,60.0024001,,,,,,,,7,Fast,long,d,0,1.8914,5,2,22,2,1,,,,,
0.6,,,,,,,,,d,orange,5fadeb340e10471fdeb5fbf5,2021-09-28_09h44.13.294,forced_choiceRT_color,2021.2.3,MacIntel,60.0024001,,,,,,,,7,Ontime,long,d,1,2.021,5,3,23,0,1,,,,,
1.51,,,,,,,,,k,purple,5fadeb340e10471fdeb5fbf5,2021-09-28_09h44.13.294,forced_choiceRT_color,2021.2.3,MacIntel,60.0024001,,,,,,,,7,Ontime,long,k,1,1.9261,6,0,24,3,1,,,,,
0.75,,,,,,,,,d,orange,5fadeb340e10471fdeb5fbf5,2021-09-28_09h44.13.294,forced_choiceRT_color,2021.2.3,MacIntel,60.0024001,,,,,,,,7,Ontime,long,d,1,1.9654,6,1,25,0,1,,,,,
1.07,,,,,,,,,k,purple,5fadeb340e10471fdeb5fbf5,2021-09-28_09h44.13.294,forced_choiceRT_color,2021.2.3,MacIntel,60.0024001,,,,,,,,7,Ontime,long,k,1,2.0196,6,2,26,3,1,,,,,
1.99,,,,,,,,,f,blue,5fadeb340e10471fdeb5fbf5,2021-09-28_09h44.13.294,forced_choiceRT_color,2021.2.3,MacIntel,60.0024001,,,,,,,,7,Ontime,long,j,0,1.9585,6,3,27,1,1,,,,,
1.47,,,,,,,,,d,orange,5fadeb340e10471fdeb5fbf5,2021-09-28_09h44.13.294,forced_choiceRT_color,2021.2.3,MacIntel,60.0024001,,,,,,,,7,Ontime,long,d,1,1.9655,7,0,28,0,1,,,,,
1.34,,,,,,,,,f,blue,5fadeb340e10471fdeb5fbf5,2021-09-28_09h44.13.294,forced_choiceRT_color,2021.2.3,MacIntel,60.0024001,,,,,,,,7,Ontime,long,f,1,2.0205,7,1,29,1,1,,,,,
0.99,,,,,,,,,k,purple,5fadeb340e10471fdeb5fbf5,2021-09-28_09h44.13.294,forced_choiceRT_color,2021.2.3,MacIntel,60.0024001,,,,,,,,7,Ontime,long,k,1,1.923,7,2,30,3,1,,,,,
0.58,,,,,,,,,k,purple,5fadeb340e10471fdeb5fbf5,2021-09-28_09h44.13.294,forced_choiceRT_color,2021.2.3,MacIntel,60.0024001,,,,,,,,7,Fast,long,k,1,1.8769,7,3,31,3,1,,,,,
1.73,,,,,,,,,k,purple,5fadeb340e10471fdeb5fbf5,2021-09-28_09h44.13.294,forced_choiceRT_color,2021.2.3,MacIntel,60.0024001,,,,,,,,7,Fast,long,j,0,1.8707,8,0,32,3,1,,,,,
0.49,,,,,,,,,j,red,5fadeb340e10471fdeb5fbf5,2021-09-28_09h44.13.294,forced_choiceRT_color,2021.2.3,MacIntel,60.0024001,,,,,,,,7,Fast,long,j,1,1.8541,8,1,33,2,1,,,,,
0.23,,,,,,,,,f,blue,5fadeb340e10471fdeb5fbf5,2021-09-28_09h44.13.294,forced_choiceRT_color,2021.2.3,MacIntel,60.0024001,,,,,,,,7,Ontime,long,f,1,1.9877,8,2,34,1,1,,,,,
1.79,,,,,,,,,d,orange,5fadeb340e10471fdeb5fbf5,2021-09-28_09h44.13.294,forced_choiceRT_color,2021.2.3,MacIntel,60.0024001,,,,,,,,7,Ontime,long,k,0,2.0475,8,3,35,0,1,,,,,
0.57,,,,,,,,,k,purple,5fadeb340e10471fdeb5fbf5,2021-09-28_09h44.13.294,forced_choiceRT_color,2021.2.3,MacIntel,60.0024001,,,,,,,,7,Ontime,long,k,1,1.9883,9,0,36,3,1,,,,,
0.98,,,,,,,,,j,red,5fadeb340e10471fdeb5fbf5,2021-09-28_09h44.13.294,forced_choiceRT_color,2021.2.3,MacIntel,60.0024001,,,,,,,,7,Ontime,long,j,1,1.9619,9,1,37,2,1,,,,,
0.08,,,,,,,,,j,red,5fadeb340e10471fdeb5fbf5,2021-09-28_09h44.13.294,forced_choiceRT_color,2021.2.3,MacIntel,60.0024001,,,,,,,,7,Ontime,long,j,1,1.9849,9,2,38,2,1,,,,,
1.63,,,,,,,,,f,blue,5fadeb340e10471fdeb5fbf5,2021-09-28_09h44.13.294,forced_choiceRT_color,2021.2.3,MacIntel,60.0024001,,,,,,,,7,Ontime,long,d,0,2.0187,9,3,39,1,1,,,,,
,,,,,,,,,,,5fadeb340e10471fdeb5fbf5,2021-09-28_09h44.13.294,forced_choiceRT_color,2021.2.3,MacIntel,60.0024001,,,,,,,,,,,,,,,,,,,6,0,6,0,1
0.93,,,,,,,,,k,purple,5fadeb340e10471fdeb5fbf5,2021-09-28_09h44.13.294,forced_choiceRT_color,2021.2.3,MacIntel,60.0024001,,,,,,,,8,Ontime,long,k,1,1.933,0,0,0,3,1,,,,,
0.33,,,,,,,,,j,red,5fadeb340e10471fdeb5fbf5,2021-09-28_09h44.13.294,forced_choiceRT_color,2021.2.3,MacIntel,60.0024001,,,,,,,,8,Ontime,long,j,1,1.9434,0,1,1,2,1,,,,,
0.72,,,,,,,,,f,blue,5fadeb340e10471fdeb5fbf5,2021-09-28_09h44.13.294,forced_choiceRT_color,2021.2.3,MacIntel,60.0024001,,,,,,,,8,Ontime,long,f,1,2.0425,0,2,2,1,1,,,,,
1.71,,,,,,,,,f,blue,5fadeb340e10471fdeb5fbf5,2021-09-28_09h44.13.294,forced_choiceRT_color,2021.2.3,MacIntel,60.0024001,,,,,,,,8,Ontime,long,j,0,2.0252,0,3,3,1,1,,,,,
1.01,,,,,,,,,k,purple,5fadeb340e10471fdeb5fbf5,2021-09-28_09h44.13.294,forced_choiceRT_color,2021.2.3,MacIntel,60.0024001,,,,,,,,8,Ontime,long,k,1,1.9675,1,0,4,3,1,,,,,
0.35,,,,,,,,,k,purple,5fadeb340e10471fdeb5fbf5,2021-09-28_09h44.13.294,forced_choiceRT_color,2021.2.3,MacIntel,60.0024001,,,,,,,,8,Ontime,long,k,1,1.9729,1,1,5,3,1,,,,,
1.12,,,,,,,,,d,orange,5fadeb340e10471fdeb5fbf5,2021-09-28_09h44.13.294,forced_choiceRT_color,2021.2.3,MacIntel,60.0024001,,,,,,,,8,Ontime,long,d,1,1.9199,1,2,6,0,1,,,,,
0.39,,,,,,,,,k,purple,5fadeb340e10471fdeb5fbf5,2021-09-28_09h44.13.294,forced_choiceRT_color,2021.2.3,MacIntel,60.0024001,,,,,,,,8,Ontime,long,k,1,1.9587,1,3,7,3,1,,,,,
1.68,,,,,,,,,d,orange,5fadeb340e10471fdeb5fbf5,2021-09-28_09h44.13.294,forced_choiceRT_color,2021.2.3,MacIntel,60.0024001,,,,,,,,8,Ontime,long,j,0,2.0392,2,0,8,0,1,,,,,
0.21,,,,,,,,,f,blue,5fadeb340e10471fdeb5fbf5,2021-09-28_09h44.13.294,forced_choiceRT_color,2021.2.3,MacIntel,60.0024001,,,,,,,,8,Ontime,long,f,1,1.979,2,1,9,1,1,,,,,
1.15,,,,,,,,,j,red,5fadeb340e10471fdeb5fbf5,2021-09-28_09h44.13.294,forced_choiceRT_color,2021.2.3,MacIntel,60.0024001,,,,,,,,8,Fast,long,j,1,1.8229,2,2,10,2,1,,,,,
1.64,,,,,,,,,f,blue,5fadeb340e10471fdeb5fbf5,2021-09-28_09h44.13.294,forced_choiceRT_color,2021.2.3,MacIntel,60.0024001,,,,,,,,8,Ontime,long,k,0,2.0873,2,3,11,1,1,,,,,
1.92,,,,,,,,,j,red,5fadeb340e10471fdeb5fbf5,2021-09-28_09h44.13.294,forced_choiceRT_color,2021.2.3,MacIntel,60.0024001,,,,,,,,8,Fast,long,k,0,1.8559,3,0,12,2,1,,,,,
0.69,,,,,,,,,j,red,5fadeb340e10471fdeb5fbf5,2021-09-28_09h44.13.294,forced_choiceRT_color,2021.2.3,MacIntel,60.0024001,,,,,,,,8,Ontime,long,j,1,1.9552,3,1,13,2,1,,,,,
1.49,,,,,,,,,f,blue,5fadeb340e10471fdeb5fbf5,2021-09-28_09h44.13.294,forced_choiceRT_color,2021.2.3,MacIntel,60.0024001,,,,,,,,8,Ontime,long,k,0,1.9537,3,2,14,1,1,,,,,
0.3,,,,,,,,,d,orange,5fadeb340e10471fdeb5fbf5,2021-09-28_09h44.13.294,forced_choiceRT_color,2021.2.3,MacIntel,60.0024001,,,,,,,,8,Ontime,long,d,1,1.9105,3,3,15,0,1,,,,,
1.16,,,,,,,,,k,purple,5fadeb340e10471fdeb5fbf5,2021-09-28_09h44.13.294,forced_choiceRT_color,2021.2.3,MacIntel,60.0024001,,,,,,,,8,Fast,long,k,1,1.8641,4,0,16,3,1,,,,,
1.13,,,,,,,,,f,blue,5fadeb340e10471fdeb5fbf5,2021-09-28_09h44.13.294,forced_choiceRT_color,2021.2.3,MacIntel,60.0024001,,,,,,,,8,Ontime,long,j,0,1.9659,4,1,17,1,1,,,,,
0.94,,,,,,,,,d,orange,5fadeb340e10471fdeb5fbf5,2021-09-28_09h44.13.294,forced_choiceRT_color,2021.2.3,MacIntel,60.0024001,,,,,,,,8,Ontime,long,j,0,2.0028,4,2,18,0,1,,,,,
1.22,,,,,,,,,d,orange,5fadeb340e10471fdeb5fbf5,2021-09-28_09h44.13.294,forced_choiceRT_color,2021.2.3,MacIntel,60.0024001,,,,,,,,8,Ontime,long,d,1,1.9149,4,3,19,0,1,,,,,
1.58,,,,,,,,,f,blue,5fadeb340e10471fdeb5fbf5,2021-09-28_09h44.13.294,forced_choiceRT_color,2021.2.3,MacIntel,60.0024001,,,,,,,,8,Ontime,long,k,0,2.0048,5,0,20,1,1,,,,,
0.23,,,,,,,,,k,purple,5fadeb340e10471fdeb5fbf5,2021-09-28_09h44.13.294,forced_choiceRT_color,2021.2.3,MacIntel,60.0024001,,,,,,,,8,Ontime,long,k,1,1.9302,5,1,21,3,1,,,,,
1.85,,,,,,,,,d,orange,5fadeb340e10471fdeb5fbf5,2021-09-28_09h44.13.294,forced_choiceRT_color,2021.2.3,MacIntel,60.0024001,,,,,,,,8,Ontime,long,j,0,2.0103,5,2,22,0,1,,,,,
0.06,,,,,,,,,j,red,5fadeb340e10471fdeb5fbf5,2021-09-28_09h44.13.294,forced_choiceRT_color,2021.2.3,MacIntel,60.0024001,,,,,,,,8,Fast,long,j,1,1.8217,5,3,23,2,1,,,,,
0.64,,,,,,,,,d,orange,5fadeb340e10471fdeb5fbf5,2021-09-28_09h44.13.294,forced_choiceRT_color,2021.2.3,MacIntel,60.0024001,,,,,,,,8,Ontime,long,d,1,2.0016,6,0,24,0,1,,,,,
1.01,,,,,,,,,f,blue,5fadeb340e10471fdeb5fbf5,2021-09-28_09h44.13.294,forced_choiceRT_color,2021.2.3,MacIntel,60.0024001,,,,,,,,8,Slow,long,f,1,2.1373,6,1,25,1,1,,,,,
1.44,,,,,,,,,j,red,5fadeb340e10471fdeb5fbf5,2021-09-28_09h44.13.294,forced_choiceRT_color,2021.2.3,MacIntel,60.0024001,,,,,,,,8,Ontime,long,k,0,1.9262,6,2,26,2,1,,,,,
0.9,,,,,,,,,k,purple,5fadeb340e10471fdeb5fbf5,2021-09-28_09h44.13.294,forced_choiceRT_color,2021.2.3,MacIntel,60.0024001,,,,,,,,8,Ontime,long,k,1,2.0133,6,3,27,3,1,,,,,
1.41,,,,,,,,,k,purple,5fadeb340e10471fdeb5fbf5,2021-09-28_09h44.13.294,forced_choiceRT_color,2021.2.3,MacIntel,60.0024001,,,,,,,,8,Fast,long,k,1,1.8368,7,0,28,3,1,,,,,
0,,,,,,,,,j,red,5fadeb340e10471fdeb5fbf5,2021-09-28_09h44.13.294,forced_choiceRT_color,2021.2.3,MacIntel,60.0024001,,,,,,,,8,Fast,long,j,1,1.8054,7,1,29,2,1,,,,,
1.82,,,,,,,,,f,blue,5fadeb340e10471fdeb5fbf5,2021-09-28_09h44.13.294,forced_choiceRT_color,2021.2.3,MacIntel,60.0024001,,,,,,,,8,Ontime,long,k,0,1.9687,7,2,30,1,1,,,,,
0.06,,,,,,,,,k,purple,5fadeb340e10471fdeb5fbf5,2021-09-28_09h44.13.294,forced_choiceRT_color,2021.2.3,MacIntel,60.0024001,,,,,,,,8,Ontime,long,k,1,1.9419,7,3,31,3,1,,,,,
1.44,,,,,,,,,d,orange,5fadeb340e10471fdeb5fbf5,2021-09-28_09h44.13.294,forced_choiceRT_color,2021.2.3,MacIntel,60.0024001,,,,,,,,8,Ontime,long,d,1,1.968,8,0,32,0,1,,,,,
1.22,,,,,,,,,d,orange,5fadeb340e10471fdeb5fbf5,2021-09-28_09h44.13.294,forced_choiceRT_color,2021.2.3,MacIntel,60.0024001,,,,,,,,8,Ontime,long,d,1,2.0226,8,1,33,0,1,,,,,
1.67,,,,,,,,,j,red,5fadeb340e10471fdeb5fbf5,2021-09-28_09h44.13.294,forced_choiceRT_color,2021.2.3,MacIntel,60.0024001,,,,,,,,8,Ontime,long,f,0,2.0039,8,2,34,2,1,,,,,
1.54,,,,,,,,,j,red,5fadeb340e10471fdeb5fbf5,2021-09-28_09h44.13.294,forced_choiceRT_color,2021.2.3,MacIntel,60.0024001,,,,,,,,8,Ontime,long,j,1,2.0789,8,3,35,2,1,,,,,
1.26,,,,,,,,,d,orange,5fadeb340e10471fdeb5fbf5,2021-09-28_09h44.13.294,forced_choiceRT_color,2021.2.3,MacIntel,60.0024001,,,,,,,,8,Ontime,long,d,1,1.9248,9,0,36,0,1,,,,,
1.74,,,,,,,,,f,blue,5fadeb340e10471fdeb5fbf5,2021-09-28_09h44.13.294,forced_choiceRT_color,2021.2.3,MacIntel,60.0024001,,,,,,,,8,Slow,long,j,0,2.187,9,1,37,1,1,,,,,
0.79,,,,,,,,,j,red,5fadeb340e10471fdeb5fbf5,2021-09-28_09h44.13.294,forced_choiceRT_color,2021.2.3,MacIntel,60.0024001,,,,,,,,8,Fast,long,j,1,1.8753,9,2,38,2,1,,,,,
1.38,,,,,,,,,k,purple,5fadeb340e10471fdeb5fbf5,2021-09-28_09h44.13.294,forced_choiceRT_color,2021.2.3,MacIntel,60.0024001,,,,,,,,8,Ontime,long,j,0,1.9871,9,3,39,3,1,,,,,
,,,,,,,,,,,5fadeb340e10471fdeb5fbf5,2021-09-28_09h44.13.294,forced_choiceRT_color,2021.2.3,MacIntel,60.0024001,,,,,,,,,,,,,,,,,,,7,0,7,0,1
1.58,,,,,,,,,k,purple,5fadeb340e10471fdeb5fbf5,2021-09-28_09h44.13.294,forced_choiceRT_color,2021.2.3,MacIntel,60.0024001,,,,,,,,9,Fast,long,k,1,1.6937,0,0,0,3,1,,,,,
1.13,,,,,,,,,j,red,5fadeb340e10471fdeb5fbf5,2021-09-28_09h44.13.294,forced_choiceRT_color,2021.2.3,MacIntel,60.0024001,,,,,,,,9,Fast,long,j,1,1.872,0,1,1,2,1,,,,,
1.62,,,,,,,,,f,blue,5fadeb340e10471fdeb5fbf5,2021-09-28_09h44.13.294,forced_choiceRT_color,2021.2.3,MacIntel,60.0024001,,,,,,,,9,Ontime,long,k,0,1.9379,0,2,2,1,1,,,,,
1.7,,,,,,,,,d,orange,5fadeb340e10471fdeb5fbf5,2021-09-28_09h44.13.294,forced_choiceRT_color,2021.2.3,MacIntel,60.0024001,,,,,,,,9,Ontime,long,d,1,1.9632,0,3,3,0,1,,,,,
0.68,,,,,,,,,d,orange,5fadeb340e10471fdeb5fbf5,2021-09-28_09h44.13.294,forced_choiceRT_color,2021.2.3,MacIntel,60.0024001,,,,,,,,9,Fast,long,d,1,1.8479,1,0,4,0,1,,,,,
0.6,,,,,,,,,k,purple,5fadeb340e10471fdeb5fbf5,2021-09-28_09h44.13.294,forced_choiceRT_color,2021.2.3,MacIntel,60.0024001,,,,,,,,9,Ontime,long,k,1,1.9732,1,1,5,3,1,,,,,
0.92,,,,,,,,,f,blue,5fadeb340e10471fdeb5fbf5,2021-09-28_09h44.13.294,forced_choiceRT_color,2021.2.3,MacIntel,60.0024001,,,,,,,,9,Ontime,long,f,1,2.0066,1,2,6,1,1,,,,,
1.69,,,,,,,,,d,orange,5fadeb340e10471fdeb5fbf5,2021-09-28_09h44.13.294,forced_choiceRT_color,2021.2.3,MacIntel,60.0024001,,,,,,,,9,Ontime,long,j,0,1.9425,1,3,7,0,1,,,,,
1.04,,,,,,,,,k,purple,5fadeb340e10471fdeb5fbf5,2021-09-28_09h44.13.294,forced_choiceRT_color,2021.2.3,MacIntel,60.0024001,,,,,,,,9,Ontime,long,k,1,2.013,2,0,8,3,1,,,,,
0.53,,,,,,,,,j,red,5fadeb340e10471fdeb5fbf5,2021-09-28_09h44.13.294,forced_choiceRT_color,2021.2.3,MacIntel,60.0024001,,,,,,,,9,Ontime,long,j,1,1.9089,2,1,9,2,1,,,,,
0.08,,,,,,,,,d,orange,5fadeb340e10471fdeb5fbf5,2021-09-28_09h44.13.294,forced_choiceRT_color,2021.2.3,MacIntel,60.0024001,,,,,,,,9,Ontime,long,d,1,1.9827,2,2,10,0,1,,,,,
1.11,,,,,,,,,j,red,5fadeb340e10471fdeb5fbf5,2021-09-28_09h44.13.294,forced_choiceRT_color,2021.2.3,MacIntel,60.0024001,,,,,,,,9,Ontime,long,j,1,1.9559,2,3,11,2,1,,,,,
1.03,,,,,,,,,d,orange,5fadeb340e10471fdeb5fbf5,2021-09-28_09h44.13.294,forced_choiceRT_color,2021.2.3,MacIntel,60.0024001,,,,,,,,9,Ontime,long,j,0,2.0725,3,0,12,0,1,,,,,
1.11,,,,,,,,,f,blue,5fadeb340e10471fdeb5fbf5,2021-09-28_09h44.13.294,forced_choiceRT_color,2021.2.3,MacIntel,60.0024001,,,,,,,,9,Ontime,long,j,0,1.9434,3,1,13,1,1,,,,,
0.84,,,,,,,,,f,blue,5fadeb340e10471fdeb5fbf5,2021-09-28_09h44.13.294,forced_choiceRT_color,2021.2.3,MacIntel,60.0024001,,,,,,,,9,Fast,long,f,1,1.8345,3,2,14,1,1,,,,,
0.59,,,,,,,,,j,red,5fadeb340e10471fdeb5fbf5,2021-09-28_09h44.13.294,forced_choiceRT_color,2021.2.3,MacIntel,60.0024001,,,,,,,,9,Fast,long,j,1,1.875,3,3,15,2,1,,,,,
0.26,,,,,,,,,f,blue,5fadeb340e10471fdeb5fbf5,2021-09-28_09h44.13.294,forced_choiceRT_color,2021.2.3,MacIntel,60.0024001,,,,,,,,9,Ontime,long,f,1,1.9186,4,0,16,1,1,,,,,
0.9,,,,,,,,,d,orange,5fadeb340e10471fdeb5fbf5,2021-09-28_09h44.13.294,forced_choiceRT_color,2021.2.3,MacIntel,60.0024001,,,,,,,,9,Ontime,long,d,1,1.9737,4,1,17,0,1,,,,,
1.24,,,,,,,,,k,purple,5fadeb340e10471fdeb5fbf5,2021-09-28_09h44.13.294,forced_choiceRT_color,2021.2.3,MacIntel,60.0024001,,,,,,,,9,Fast,long,k,1,1.8878,4,2,18,3,1,,,,,
1.06,,,,,,,,,j,red,5fadeb340e10471fdeb5fbf5,2021-09-28_09h44.13.294,forced_choiceRT_color,2021.2.3,MacIntel,60.0024001,,,,,,,,9,Ontime,long,j,1,2.0469,4,3,19,2,1,,,,,
1.18,,,,,,,,,f,blue,5fadeb340e10471fdeb5fbf5,2021-09-28_09h44.13.294,forced_choiceRT_color,2021.2.3,MacIntel,60.0024001,,,,,,,,9,Ontime,long,f,1,1.9082,5,0,20,1,1,,,,,
1.01,,,,,,,,,d,orange,5fadeb340e10471fdeb5fbf5,2021-09-28_09h44.13.294,forced_choiceRT_color,2021.2.3,MacIntel,60.0024001,,,,,,,,9,Ontime,long,d,1,1.9941,5,1,21,0,1,,,,,
0.14,,,,,,,,,k,purple,5fadeb340e10471fdeb5fbf5,2021-09-28_09h44.13.294,forced_choiceRT_color,2021.2.3,MacIntel,60.0024001,,,,,,,,9,Fast,long,k,1,1.854,5,2,22,3,1,,,,,
1.35,,,,,,,,,f,blue,5fadeb340e10471fdeb5fbf5,2021-09-28_09h44.13.294,forced_choiceRT_color,2021.2.3,MacIntel,60.0024001,,,,,,,,9,Ontime,long,d,0,1.9389,5,3,23,1,1,,,,,
0.21,,,,,,,,,j,red,5fadeb340e10471fdeb5fbf5,2021-09-28_09h44.13.294,forced_choiceRT_color,2021.2.3,MacIntel,60.0024001,,,,,,,,9,Ontime,long,j,1,1.9033,6,0,24,2,1,,,,,
1.41,,,,,,,,,k,purple,5fadeb340e10471fdeb5fbf5,2021-09-28_09h44.13.294,forced_choiceRT_color,2021.2.3,MacIntel,60.0024001,,,,,,,,9,Ontime,long,k,1,2.0308,6,1,25,3,1,,,,,
1.37,,,,,,,,,d,orange,5fadeb340e10471fdeb5fbf5,2021-09-28_09h44.13.294,forced_choiceRT_color,2021.2.3,MacIntel,60.0024001,,,,,,,,9,Ontime,long,d,1,2.0318,6,2,26,0,1,,,,,
1.34,,,,,,,,,k,purple,5fadeb340e10471fdeb5fbf5,2021-09-28_09h44.13.294,forced_choiceRT_color,2021.2.3,MacIntel,60.0024001,,,,,,,,9,Ontime,long,k,1,1.9876,6,3,27,3,1,,,,,
1.91,,,,,,,,,k,purple,5fadeb340e10471fdeb5fbf5,2021-09-28_09h44.13.294,forced_choiceRT_color,2021.2.3,MacIntel,60.0024001,,,,,,,,9,Ontime,long,k,1,2.0814,7,0,28,3,1,,,,,
1.09,,,,,,,,,j,red,5fadeb340e10471fdeb5fbf5,2021-09-28_09h44.13.294,forced_choiceRT_color,2021.2.3,MacIntel,60.0024001,,,,,,,,9,Ontime,long,j,1,1.9541,7,1,29,2,1,,,,,
1.55,,,,,,,,,k,purple,5fadeb340e10471fdeb5fbf5,2021-09-28_09h44.13.294,forced_choiceRT_color,2021.2.3,MacIntel,60.0024001,,,,,,,,9,Ontime,long,k,1,2.006,7,2,30,3,1,,,,,
0,,,,,,,,,d,orange,5fadeb340e10471fdeb5fbf5,2021-09-28_09h44.13.294,forced_choiceRT_color,2021.2.3,MacIntel,60.0024001,,,,,,,,9,Ontime,long,d,1,2.072,7,3,31,0,1,,,,,
1.84,,,,,,,,,j,red,5fadeb340e10471fdeb5fbf5,2021-09-28_09h44.13.294,forced_choiceRT_color,2021.2.3,MacIntel,60.0024001,,,,,,,,9,Ontime,long,f,0,2.022,8,0,32,2,1,,,,,
0.68,,,,,,,,,d,orange,5fadeb340e10471fdeb5fbf5,2021-09-28_09h44.13.294,forced_choiceRT_color,2021.2.3,MacIntel,60.0024001,,,,,,,,9,Ontime,long,d,1,2.0029,8,1,33,0,1,,,,,
1.64,,,,,,,,,k,purple,5fadeb340e10471fdeb5fbf5,2021-09-28_09h44.13.294,forced_choiceRT_color,2021.2.3,MacIntel,60.0024001,,,,,,,,9,Ontime,long,k,1,1.9299,8,2,34,3,1,,,,,
1.38,,,,,,,,,f,blue,5fadeb340e10471fdeb5fbf5,2021-09-28_09h44.13.294,forced_choiceRT_color,2021.2.3,MacIntel,60.0024001,,,,,,,,9,Fast,long,j,0,1.8802,8,3,35,1,1,,,,,
1.55,,,,,,,,,f,blue,5fadeb340e10471fdeb5fbf5,2021-09-28_09h44.13.294,forced_choiceRT_color,2021.2.3,MacIntel,60.0024001,,,,,,,,9,Ontime,long,k,0,1.9064,9,0,36,1,1,,,,,
1.14,,,,,,,,,j,red,5fadeb340e10471fdeb5fbf5,2021-09-28_09h44.13.294,forced_choiceRT_color,2021.2.3,MacIntel,60.0024001,,,,,,,,9,Fast,long,k,0,1.8393,9,1,37,2,1,,,,,
1.11,,,,,,,,,j,red,5fadeb340e10471fdeb5fbf5,2021-09-28_09h44.13.294,forced_choiceRT_color,2021.2.3,MacIntel,60.0024001,,,,,,,,9,Ontime,long,j,1,1.9307,9,2,38,2,1,,,,,
1.71,,,,,,,,,f,blue,5fadeb340e10471fdeb5fbf5,2021-09-28_09h44.13.294,forced_choiceRT_color,2021.2.3,MacIntel,60.0024001,,,,,,,,9,Fast,long,j,0,1.872,9,3,39,1,1,,,,,
,,,,,,,,,,,5fadeb340e10471fdeb5fbf5,2021-09-28_09h44.13.294,forced_choiceRT_color,2021.2.3,MacIntel,60.0024001,,,,,,,,,,,,,,,,,,,8,0,8,0,1
0.65,,,,,,,,,d,orange,5fadeb340e10471fdeb5fbf5,2021-09-28_09h44.13.294,forced_choiceRT_color,2021.2.3,MacIntel,60.0024001,,,,,,,,10,Fast,long,d,1,1.8825,0,0,0,0,1,,,,,
0.56,,,,,,,,,j,red,5fadeb340e10471fdeb5fbf5,2021-09-28_09h44.13.294,forced_choiceRT_color,2021.2.3,MacIntel,60.0024001,,,,,,,,10,Fast,long,j,1,1.8921,0,1,1,2,1,,,,,
1.87,,,,,,,,,j,red,5fadeb340e10471fdeb5fbf5,2021-09-28_09h44.13.294,forced_choiceRT_color,2021.2.3,MacIntel,60.0024001,,,,,,,,10,Slow,long,j,1,2.1256,0,2,2,2,1,,,,,
1.88,,,,,,,,,f,blue,5fadeb340e10471fdeb5fbf5,2021-09-28_09h44.13.294,forced_choiceRT_color,2021.2.3,MacIntel,60.0024001,,,,,,,,10,Ontime,long,f,1,1.9748,0,3,3,1,1,,,,,
1.44,,,,,,,,,f,blue,5fadeb340e10471fdeb5fbf5,2021-09-28_09h44.13.294,forced_choiceRT_color,2021.2.3,MacIntel,60.0024001,,,,,,,,10,Ontime,long,f,1,2.0483,1,0,4,1,1,,,,,
0.58,,,,,,,,,k,purple,5fadeb340e10471fdeb5fbf5,2021-09-28_09h44.13.294,forced_choiceRT_color,2021.2.3,MacIntel,60.0024001,,,,,,,,10,Ontime,long,k,1,2.0078,1,1,5,3,1,,,,,
1.42,,,,,,,,,f,blue,5fadeb340e10471fdeb5fbf5,2021-09-28_09h44.13.294,forced_choiceRT_color,2021.2.3,MacIntel,60.0024001,,,,,,,,10,Ontime,long,j,0,1.9417,1,2,6,1,1,,,,,
1.67,,,,,,,,,f,blue,5fadeb340e10471fdeb5fbf5,2021-09-28_09h44.13.294,forced_choiceRT_color,2021.2.3,MacIntel,60.0024001,,,,,,,,10,Ontime,long,j,0,1.933,1,3,7,1,1,,,,,
1.59,,,,,,,,,j,red,5fadeb340e10471fdeb5fbf5,2021-09-28_09h44.13.294,forced_choiceRT_color,2021.2.3,MacIntel,60.0024001,,,,,,,,10,Ontime,long,j,1,1.9874,2,0,8,2,1,,,,,
1.68,,,,,,,,,j,red,5fadeb340e10471fdeb5fbf5,2021-09-28_09h44.13.294,forced_choiceRT_color,2021.2.3,MacIntel,60.0024001,,,,,,,,10,Ontime,long,k,0,2.0073,2,1,9,2,1,,,,,
0.16,,,,,,,,,f,blue,5fadeb340e10471fdeb5fbf5,2021-09-28_09h44.13.294,forced_choiceRT_color,2021.2.3,MacIntel,60.0024001,,,,,,,,10,Ontime,long,f,1,1.9321,2,2,10,1,1,,,,,
0.31,,,,,,,,,j,red,5fadeb340e10471fdeb5fbf5,2021-09-28_09h44.13.294,forced_choiceRT_color,2021.2.3,MacIntel,60.0024001,,,,,,,,10,Fast,long,j,1,1.8992,2,3,11,2,1,,,,,
1.01,,,,,,,,,j,red,5fadeb340e10471fdeb5fbf5,2021-09-28_09h44.13.294,forced_choiceRT_color,2021.2.3,MacIntel,60.0024001,,,,,,,,10,Ontime,long,j,1,1.9657,3,0,12,2,1,,,,,
0.63,,,,,,,,,k,purple,5fadeb340e10471fdeb5fbf5,2021-09-28_09h44.13.294,forced_choiceRT_color,2021.2.3,MacIntel,60.0024001,,,,,,,,10,Ontime,long,k,1,2.0044,3,1,13,3,1,,,,,
1.87,,,,,,,,,j,red,5fadeb340e10471fdeb5fbf5,2021-09-28_09h44.13.294,forced_choiceRT_color,2021.2.3,MacIntel,60.0024001,,,,,,,,10,Ontime,long,j,1,2.026,3,2,14,2,1,,,,,
0.07,,,,,,,,,d,orange,5fadeb340e10471fdeb5fbf5,2021-09-28_09h44.13.294,forced_choiceRT_color,2021.2.3,MacIntel,60.0024001,,,,,,,,10,Fast,long,d,1,1.8879,3,3,15,0,1,,,,,
1.2,,,,,,,,,f,blue,5fadeb340e10471fdeb5fbf5,2021-09-28_09h44.13.294,forced_choiceRT_color,2021.2.3,MacIntel,60.0024001,,,,,,,,10,Ontime,long,j,0,1.9095,4,0,16,1,1,,,,,
1.84,,,,,,,,,k,purple,5fadeb340e10471fdeb5fbf5,2021-09-28_09h44.13.294,forced_choiceRT_color,2021.2.3,MacIntel,60.0024001,,,,,,,,10,Fast,long,k,1,1.8895,4,1,17,3,1,,,,,
0.58,,,,,,,,,j,red,5fadeb340e10471fdeb5fbf5,2021-09-28_09h44.13.294,forced_choiceRT_color,2021.2.3,MacIntel,60.0024001,,,,,,,,10,Fast,long,j,1,1.8272,4,2,18,2,1,,,,,
1.43,,,,,,,,,k,purple,5fadeb340e10471fdeb5fbf5,2021-09-28_09h44.13.294,forced_choiceRT_color,2021.2.3,MacIntel,60.0024001,,,,,,,,10,Ontime,long,k,1,2.0047,4,3,19,3,1,,,,,
1.29,,,,,,,,,f,blue,5fadeb340e10471fdeb5fbf5,2021-09-28_09h44.13.294,forced_choiceRT_color,2021.2.3,MacIntel,60.0024001,,,,,,,,10,Ontime,long,j,0,1.9267,5,0,20,1,1,,,,,
0.52,,,,,,,,,k,purple,5fadeb340e10471fdeb5fbf5,2021-09-28_09h44.13.294,forced_choiceRT_color,2021.2.3,MacIntel,60.0024001,,,,,,,,10,Ontime,long,k,1,2.0739,5,1,21,3,1,,,,,
0.29,,,,,,,,,d,orange,5fadeb340e10471fdeb5fbf5,2021-09-28_09h44.13.294,forced_choiceRT_color,2021.2.3,MacIntel,60.0024001,,,,,,,,10,Fast,long,d,1,1.8633,5,2,22,0,1,,,,,
0.65,,,,,,,,,j,red,5fadeb340e10471fdeb5fbf5,2021-09-28_09h44.13.294,forced_choiceRT_color,2021.2.3,MacIntel,60.0024001,,,,,,,,10,Fast,long,j,1,1.8432,5,3,23,2,1,,,,,
0.44,,,,,,,,,k,purple,5fadeb340e10471fdeb5fbf5,2021-09-28_09h44.13.294,forced_choiceRT_color,2021.2.3,MacIntel,60.0024001,,,,,,,,10,Ontime,long,k,1,2.0364,6,0,24,3,1,,,,,
1.92,,,,,,,,,d,orange,5fadeb340e10471fdeb5fbf5,2021-09-28_09h44.13.294,forced_choiceRT_color,2021.2.3,MacIntel,60.0024001,,,,,,,,10,Slow,long,f,0,2.1577,6,1,25,0,1,,,,,
0.97,,,,,,,,,d,orange,5fadeb340e10471fdeb5fbf5,2021-09-28_09h44.13.294,forced_choiceRT_color,2021.2.3,MacIntel,60.0024001,,,,,,,,10,Ontime,long,d,1,1.9725,6,2,26,0,1,,,,,
0.74,,,,,,,,,f,blue,5fadeb340e10471fdeb5fbf5,2021-09-28_09h44.13.294,forced_choiceRT_color,2021.2.3,MacIntel,60.0024001,,,,,,,,10,Fast,long,f,1,1.8374,6,3,27,1,1,,,,,
1.57,,,,,,,,,k,purple,5fadeb340e10471fdeb5fbf5,2021-09-28_09h44.13.294,forced_choiceRT_color,2021.2.3,MacIntel,60.0024001,,,,,,,,10,Ontime,long,j,0,2.0097,7,0,28,3,1,,,,,
1.03,,,,,,,,,f,blue,5fadeb340e10471fdeb5fbf5,2021-09-28_09h44.13.294,forced_choiceRT_color,2021.2.3,MacIntel,60.0024001,,,,,,,,10,Ontime,long,f,1,1.9899,7,1,29,1,1,,,,,
1.15,,,,,,,,,f,blue,5fadeb340e10471fdeb5fbf5,2021-09-28_09h44.13.294,forced_choiceRT_color,2021.2.3,MacIntel,60.0024001,,,,,,,,10,Fast,long,f,1,1.8924,7,2,30,1,1,,,,,
0.95,,,,,,,,,d,orange,5fadeb340e10471fdeb5fbf5,2021-09-28_09h44.13.294,forced_choiceRT_color,2021.2.3,MacIntel,60.0024001,,,,,,,,10,Ontime,long,d,1,1.9892,7,3,31,0,1,,,,,
0.59,,,,,,,,,d,orange,5fadeb340e10471fdeb5fbf5,2021-09-28_09h44.13.294,forced_choiceRT_color,2021.2.3,MacIntel,60.0024001,,,,,,,,10,Ontime,long,d,1,1.9911,8,0,32,0,1,,,,,
0.8,,,,,,,,,d,orange,5fadeb340e10471fdeb5fbf5,2021-09-28_09h44.13.294,forced_choiceRT_color,2021.2.3,MacIntel,60.0024001,,,,,,,,10,Ontime,long,d,1,1.9661,8,1,33,0,1,,,,,
1.93,,,,,,,,,k,purple,5fadeb340e10471fdeb5fbf5,2021-09-28_09h44.13.294,forced_choiceRT_color,2021.2.3,MacIntel,60.0024001,,,,,,,,10,Ontime,long,j,0,2.0005,8,2,34,3,1,,,,,
1.53,,,,,,,,,k,purple,5fadeb340e10471fdeb5fbf5,2021-09-28_09h44.13.294,forced_choiceRT_color,2021.2.3,MacIntel,60.0024001,,,,,,,,10,Ontime,long,j,0,1.9297,8,3,35,3,1,,,,,
1.85,,,,,,,,,d,orange,5fadeb340e10471fdeb5fbf5,2021-09-28_09h44.13.294,forced_choiceRT_color,2021.2.3,MacIntel,60.0024001,,,,,,,,10,Slow,long,k,0,2.3754,9,0,36,0,1,,,,,
1.94,,,,,,,,,d,orange,5fadeb340e10471fdeb5fbf5,2021-09-28_09h44.13.294,forced_choiceRT_color,2021.2.3,MacIntel,60.0024001,,,,,,,,10,Ontime,long,j,0,1.9446,9,1,37,0,1,,,,,
0.33,,,,,,,,,j,red,5fadeb340e10471fdeb5fbf5,2021-09-28_09h44.13.294,forced_choiceRT_color,2021.2.3,MacIntel,60.0024001,,,,,,,,10,Ontime,long,j,1,1.9849,9,2,38,2,1,,,,,
0.26,,,,,,,,,k,purple,5fadeb340e10471fdeb5fbf5,2021-09-28_09h44.13.294,forced_choiceRT_color,2021.2.3,MacIntel,60.0024001,,,,,,,,10,Fast,long,k,1,1.8974,9,3,39,3,1,,,,,
,,,,,,,,,,,5fadeb340e10471fdeb5fbf5,2021-09-28_09h44.13.294,forced_choiceRT_color,2021.2.3,MacIntel,60.0024001,,,,,,,,,,,,,,,,,,,9,0,9,0,1
