IP_Addresss,target_onset,trial_resp_sp.keys,trial_resp_sp.corr,trial_resp_sp.rt,trials_train_loop.thisRepN,trials_train_loop.thisTrialN,trials_train_loop.thisN,trials_train_loop.thisIndex,trials_train_loop.ran,correct_key,color,participant,date,expName,psychopyVersion,OS,frameRate,trial_resp_timing.keys,trial_resp_timing.rt,trials_train_timing.thisRepN,trials_train_timing.thisTrialN,trials_train_timing.thisN,trials_train_timing.thisIndex,trials_train_timing.ran,block_id,ontime,feedback_cond,forcedRT_resp.keys,forcedRT_resp.corr,forcedRT_resp.rt,trials.thisRepN,trials.thisTrialN,trials.thisN,trials.thisIndex,trials.ran,blocks.thisRepN,blocks.thisTrialN,blocks.thisN,blocks.thisIndex,blocks.ran
76.168.127.14,0,j,1,0.8364,0,0,0,2,1,j,red,5fbc1367373b9307763985c0,2021-09-27_17h10.55.564,forced_choiceRT_color,2021.2.3,Win32,60.19744763,,,,,,,,,,,,,,,,,,,,,,,
,0,k,1,0.5827,0,1,1,3,1,k,purple,5fbc1367373b9307763985c0,2021-09-27_17h10.55.564,forced_choiceRT_color,2021.2.3,Win32,60.19744763,,,,,,,,,,,,,,,,,,,,,,,
,0,f,1,0.5659,0,2,2,1,1,f,blue,5fbc1367373b9307763985c0,2021-09-27_17h10.55.564,forced_choiceRT_color,2021.2.3,Win32,60.19744763,,,,,,,,,,,,,,,,,,,,,,,
,0,d,1,0.5319,0,3,3,0,1,d,orange,5fbc1367373b9307763985c0,2021-09-27_17h10.55.564,forced_choiceRT_color,2021.2.3,Win32,60.19744763,,,,,,,,,,,,,,,,,,,,,,,
,0,d,1,0.5641,1,0,4,0,1,d,orange,5fbc1367373b9307763985c0,2021-09-27_17h10.55.564,forced_choiceRT_color,2021.2.3,Win32,60.19744763,,,,,,,,,,,,,,,,,,,,,,,
,0,f,1,0.6138,1,1,5,1,1,f,blue,5fbc1367373b9307763985c0,2021-09-27_17h10.55.564,forced_choiceRT_color,2021.2.3,Win32,60.19744763,,,,,,,,,,,,,,,,,,,,,,,
,0,j,1,0.4553,1,2,6,2,1,j,red,5fbc1367373b9307763985c0,2021-09-27_17h10.55.564,forced_choiceRT_color,2021.2.3,Win32,60.19744763,,,,,,,,,,,,,,,,,,,,,,,
,0,d,1,0.517,1,3,7,0,1,d,orange,5fbc1367373b9307763985c0,2021-09-27_17h10.55.564,forced_choiceRT_color,2021.2.3,Win32,60.19744763,,,,,,,,,,,,,,,,,,,,,,,
,0,k,1,0.505,2,0,8,3,1,k,purple,5fbc1367373b9307763985c0,2021-09-27_17h10.55.564,forced_choiceRT_color,2021.2.3,Win32,60.19744763,,,,,,,,,,,,,,,,,,,,,,,
,0,f,1,0.5315,2,1,9,1,1,f,blue,5fbc1367373b9307763985c0,2021-09-27_17h10.55.564,forced_choiceRT_color,2021.2.3,Win32,60.19744763,,,,,,,,,,,,,,,,,,,,,,,
,0,f,1,0.4995,2,2,10,1,1,f,blue,5fbc1367373b9307763985c0,2021-09-27_17h10.55.564,forced_choiceRT_color,2021.2.3,Win32,60.19744763,,,,,,,,,,,,,,,,,,,,,,,
,0,f,1,0.5013,2,3,11,1,1,f,blue,5fbc1367373b9307763985c0,2021-09-27_17h10.55.564,forced_choiceRT_color,2021.2.3,Win32,60.19744763,,,,,,,,,,,,,,,,,,,,,,,
,0,d,1,0.3871,3,0,12,0,1,d,orange,5fbc1367373b9307763985c0,2021-09-27_17h10.55.564,forced_choiceRT_color,2021.2.3,Win32,60.19744763,,,,,,,,,,,,,,,,,,,,,,,
,0,f,1,0.5326,3,1,13,1,1,f,blue,5fbc1367373b9307763985c0,2021-09-27_17h10.55.564,forced_choiceRT_color,2021.2.3,Win32,60.19744763,,,,,,,,,,,,,,,,,,,,,,,
,0,k,1,0.6239,3,2,14,3,1,k,purple,5fbc1367373b9307763985c0,2021-09-27_17h10.55.564,forced_choiceRT_color,2021.2.3,Win32,60.19744763,,,,,,,,,,,,,,,,,,,,,,,
,0,j,1,0.6926,3,3,15,2,1,j,red,5fbc1367373b9307763985c0,2021-09-27_17h10.55.564,forced_choiceRT_color,2021.2.3,Win32,60.19744763,,,,,,,,,,,,,,,,,,,,,,,
,0,f,1,0.572,4,0,16,1,1,f,blue,5fbc1367373b9307763985c0,2021-09-27_17h10.55.564,forced_choiceRT_color,2021.2.3,Win32,60.19744763,,,,,,,,,,,,,,,,,,,,,,,
,0,k,1,0.518,4,1,17,3,1,k,purple,5fbc1367373b9307763985c0,2021-09-27_17h10.55.564,forced_choiceRT_color,2021.2.3,Win32,60.19744763,,,,,,,,,,,,,,,,,,,,,,,
,0,k,1,0.5186,4,2,18,3,1,k,purple,5fbc1367373b9307763985c0,2021-09-27_17h10.55.564,forced_choiceRT_color,2021.2.3,Win32,60.19744763,,,,,,,,,,,,,,,,,,,,,,,
,0,j,1,0.7102,4,3,19,2,1,j,red,5fbc1367373b9307763985c0,2021-09-27_17h10.55.564,forced_choiceRT_color,2021.2.3,Win32,60.19744763,,,,,,,,,,,,,,,,,,,,,,,
,0,j,1,0.4571,5,0,20,2,1,j,red,5fbc1367373b9307763985c0,2021-09-27_17h10.55.564,forced_choiceRT_color,2021.2.3,Win32,60.19744763,,,,,,,,,,,,,,,,,,,,,,,
,0,j,1,0.4575,5,1,21,2,1,j,red,5fbc1367373b9307763985c0,2021-09-27_17h10.55.564,forced_choiceRT_color,2021.2.3,Win32,60.19744763,,,,,,,,,,,,,,,,,,,,,,,
,0,j,1,0.4263,5,2,22,2,1,j,red,5fbc1367373b9307763985c0,2021-09-27_17h10.55.564,forced_choiceRT_color,2021.2.3,Win32,60.19744763,,,,,,,,,,,,,,,,,,,,,,,
,0,j,1,0.4392,5,3,23,2,1,j,red,5fbc1367373b9307763985c0,2021-09-27_17h10.55.564,forced_choiceRT_color,2021.2.3,Win32,60.19744763,,,,,,,,,,,,,,,,,,,,,,,
,0,k,1,0.4978,6,0,24,3,1,k,purple,5fbc1367373b9307763985c0,2021-09-27_17h10.55.564,forced_choiceRT_color,2021.2.3,Win32,60.19744763,,,,,,,,,,,,,,,,,,,,,,,
,0,f,1,0.5837,6,1,25,1,1,f,blue,5fbc1367373b9307763985c0,2021-09-27_17h10.55.564,forced_choiceRT_color,2021.2.3,Win32,60.19744763,,,,,,,,,,,,,,,,,,,,,,,
,0,d,1,0.5079,6,2,26,0,1,d,orange,5fbc1367373b9307763985c0,2021-09-27_17h10.55.564,forced_choiceRT_color,2021.2.3,Win32,60.19744763,,,,,,,,,,,,,,,,,,,,,,,
,0,f,1,0.5008,6,3,27,1,1,f,blue,5fbc1367373b9307763985c0,2021-09-27_17h10.55.564,forced_choiceRT_color,2021.2.3,Win32,60.19744763,,,,,,,,,,,,,,,,,,,,,,,
,0,d,1,0.5673,7,0,28,0,1,d,orange,5fbc1367373b9307763985c0,2021-09-27_17h10.55.564,forced_choiceRT_color,2021.2.3,Win32,60.19744763,,,,,,,,,,,,,,,,,,,,,,,
,0,j,1,0.5321,7,1,29,2,1,j,red,5fbc1367373b9307763985c0,2021-09-27_17h10.55.564,forced_choiceRT_color,2021.2.3,Win32,60.19744763,,,,,,,,,,,,,,,,,,,,,,,
,0,f,1,0.5216,7,2,30,1,1,f,blue,5fbc1367373b9307763985c0,2021-09-27_17h10.55.564,forced_choiceRT_color,2021.2.3,Win32,60.19744763,,,,,,,,,,,,,,,,,,,,,,,
,0,d,1,0.5328,7,3,31,0,1,d,orange,5fbc1367373b9307763985c0,2021-09-27_17h10.55.564,forced_choiceRT_color,2021.2.3,Win32,60.19744763,,,,,,,,,,,,,,,,,,,,,,,
,0,k,1,0.4921,8,0,32,3,1,k,purple,5fbc1367373b9307763985c0,2021-09-27_17h10.55.564,forced_choiceRT_color,2021.2.3,Win32,60.19744763,,,,,,,,,,,,,,,,,,,,,,,
,0,k,1,0.4656,8,1,33,3,1,k,purple,5fbc1367373b9307763985c0,2021-09-27_17h10.55.564,forced_choiceRT_color,2021.2.3,Win32,60.19744763,,,,,,,,,,,,,,,,,,,,,,,
,0,d,1,0.5854,8,2,34,0,1,d,orange,5fbc1367373b9307763985c0,2021-09-27_17h10.55.564,forced_choiceRT_color,2021.2.3,Win32,60.19744763,,,,,,,,,,,,,,,,,,,,,,,
,0,k,1,0.5134,8,3,35,3,1,k,purple,5fbc1367373b9307763985c0,2021-09-27_17h10.55.564,forced_choiceRT_color,2021.2.3,Win32,60.19744763,,,,,,,,,,,,,,,,,,,,,,,
,0,f,1,0.7834,9,0,36,1,1,f,blue,5fbc1367373b9307763985c0,2021-09-27_17h10.55.564,forced_choiceRT_color,2021.2.3,Win32,60.19744763,,,,,,,,,,,,,,,,,,,,,,,
,0,k,1,0.581,9,1,37,3,1,k,purple,5fbc1367373b9307763985c0,2021-09-27_17h10.55.564,forced_choiceRT_color,2021.2.3,Win32,60.19744763,,,,,,,,,,,,,,,,,,,,,,,
,0,f,1,0.5655,9,2,38,1,1,f,blue,5fbc1367373b9307763985c0,2021-09-27_17h10.55.564,forced_choiceRT_color,2021.2.3,Win32,60.19744763,,,,,,,,,,,,,,,,,,,,,,,
,0,k,1,0.5632,9,3,39,3,1,k,purple,5fbc1367373b9307763985c0,2021-09-27_17h10.55.564,forced_choiceRT_color,2021.2.3,Win32,60.19744763,,,,,,,,,,,,,,,,,,,,,,,
,0,k,1,0.5762,10,0,40,3,1,k,purple,5fbc1367373b9307763985c0,2021-09-27_17h10.55.564,forced_choiceRT_color,2021.2.3,Win32,60.19744763,,,,,,,,,,,,,,,,,,,,,,,
,0,f,1,0.557,10,1,41,1,1,f,blue,5fbc1367373b9307763985c0,2021-09-27_17h10.55.564,forced_choiceRT_color,2021.2.3,Win32,60.19744763,,,,,,,,,,,,,,,,,,,,,,,
,0,d,1,0.5197,10,2,42,0,1,d,orange,5fbc1367373b9307763985c0,2021-09-27_17h10.55.564,forced_choiceRT_color,2021.2.3,Win32,60.19744763,,,,,,,,,,,,,,,,,,,,,,,
,0,f,1,0.5831,10,3,43,1,1,f,blue,5fbc1367373b9307763985c0,2021-09-27_17h10.55.564,forced_choiceRT_color,2021.2.3,Win32,60.19744763,,,,,,,,,,,,,,,,,,,,,,,
,0,k,1,0.5218,11,0,44,3,1,k,purple,5fbc1367373b9307763985c0,2021-09-27_17h10.55.564,forced_choiceRT_color,2021.2.3,Win32,60.19744763,,,,,,,,,,,,,,,,,,,,,,,
,0,j,1,0.6476,11,1,45,2,1,j,red,5fbc1367373b9307763985c0,2021-09-27_17h10.55.564,forced_choiceRT_color,2021.2.3,Win32,60.19744763,,,,,,,,,,,,,,,,,,,,,,,
,0,j,1,0.45,11,2,46,2,1,j,red,5fbc1367373b9307763985c0,2021-09-27_17h10.55.564,forced_choiceRT_color,2021.2.3,Win32,60.19744763,,,,,,,,,,,,,,,,,,,,,,,
,0,k,1,0.5019,11,3,47,3,1,k,purple,5fbc1367373b9307763985c0,2021-09-27_17h10.55.564,forced_choiceRT_color,2021.2.3,Win32,60.19744763,,,,,,,,,,,,,,,,,,,,,,,
,0,j,1,0.6871,12,0,48,2,1,j,red,5fbc1367373b9307763985c0,2021-09-27_17h10.55.564,forced_choiceRT_color,2021.2.3,Win32,60.19744763,,,,,,,,,,,,,,,,,,,,,,,
,0,f,1,0.6003,12,1,49,1,1,f,blue,5fbc1367373b9307763985c0,2021-09-27_17h10.55.564,forced_choiceRT_color,2021.2.3,Win32,60.19744763,,,,,,,,,,,,,,,,,,,,,,,
,0,d,1,0.4315,12,2,50,0,1,d,orange,5fbc1367373b9307763985c0,2021-09-27_17h10.55.564,forced_choiceRT_color,2021.2.3,Win32,60.19744763,,,,,,,,,,,,,,,,,,,,,,,
,0,k,1,0.5014,12,3,51,3,1,k,purple,5fbc1367373b9307763985c0,2021-09-27_17h10.55.564,forced_choiceRT_color,2021.2.3,Win32,60.19744763,,,,,,,,,,,,,,,,,,,,,,,
,0,j,1,0.5184,13,0,52,2,1,j,red,5fbc1367373b9307763985c0,2021-09-27_17h10.55.564,forced_choiceRT_color,2021.2.3,Win32,60.19744763,,,,,,,,,,,,,,,,,,,,,,,
,0,d,1,0.5176,13,1,53,0,1,d,orange,5fbc1367373b9307763985c0,2021-09-27_17h10.55.564,forced_choiceRT_color,2021.2.3,Win32,60.19744763,,,,,,,,,,,,,,,,,,,,,,,
,0,j,1,0.58,13,2,54,2,1,j,red,5fbc1367373b9307763985c0,2021-09-27_17h10.55.564,forced_choiceRT_color,2021.2.3,Win32,60.19744763,,,,,,,,,,,,,,,,,,,,,,,
,0,d,1,0.6651,13,3,55,0,1,d,orange,5fbc1367373b9307763985c0,2021-09-27_17h10.55.564,forced_choiceRT_color,2021.2.3,Win32,60.19744763,,,,,,,,,,,,,,,,,,,,,,,
,0,j,1,0.5805,14,0,56,2,1,j,red,5fbc1367373b9307763985c0,2021-09-27_17h10.55.564,forced_choiceRT_color,2021.2.3,Win32,60.19744763,,,,,,,,,,,,,,,,,,,,,,,
,0,d,1,0.5668,14,1,57,0,1,d,orange,5fbc1367373b9307763985c0,2021-09-27_17h10.55.564,forced_choiceRT_color,2021.2.3,Win32,60.19744763,,,,,,,,,,,,,,,,,,,,,,,
,0,d,1,0.5003,14,2,58,0,1,d,orange,5fbc1367373b9307763985c0,2021-09-27_17h10.55.564,forced_choiceRT_color,2021.2.3,Win32,60.19744763,,,,,,,,,,,,,,,,,,,,,,,
,0,d,1,0.4829,14,3,59,0,1,d,orange,5fbc1367373b9307763985c0,2021-09-27_17h10.55.564,forced_choiceRT_color,2021.2.3,Win32,60.19744763,,,,,,,,,,,,,,,,,,,,,,,
,,,,,,,,,,,,5fbc1367373b9307763985c0,2021-09-27_17h10.55.564,forced_choiceRT_color,2021.2.3,Win32,60.19744763,j,2.2804,0,0,0,0,1,,,,,,,,,,,,,,,,
,,,,,,,,,,,,5fbc1367373b9307763985c0,2021-09-27_17h10.55.564,forced_choiceRT_color,2021.2.3,Win32,60.19744763,k,2.0192,1,0,1,0,1,,,,,,,,,,,,,,,,
,,,,,,,,,,,,5fbc1367373b9307763985c0,2021-09-27_17h10.55.564,forced_choiceRT_color,2021.2.3,Win32,60.19744763,k,1.9241,2,0,2,0,1,,,,,,,,,,,,,,,,
,,,,,,,,,,,,5fbc1367373b9307763985c0,2021-09-27_17h10.55.564,forced_choiceRT_color,2021.2.3,Win32,60.19744763,k,2.0209,3,0,3,0,1,,,,,,,,,,,,,,,,
,,,,,,,,,,,,5fbc1367373b9307763985c0,2021-09-27_17h10.55.564,forced_choiceRT_color,2021.2.3,Win32,60.19744763,j,1.9656,4,0,4,0,1,,,,,,,,,,,,,,,,
,,,,,,,,,,,,5fbc1367373b9307763985c0,2021-09-27_17h10.55.564,forced_choiceRT_color,2021.2.3,Win32,60.19744763,f,2.0334,5,0,5,0,1,,,,,,,,,,,,,,,,
,,,,,,,,,,,,5fbc1367373b9307763985c0,2021-09-27_17h10.55.564,forced_choiceRT_color,2021.2.3,Win32,60.19744763,d,2.0508,6,0,6,0,1,,,,,,,,,,,,,,,,
,,,,,,,,,,,,5fbc1367373b9307763985c0,2021-09-27_17h10.55.564,forced_choiceRT_color,2021.2.3,Win32,60.19744763,d,2.1887,7,0,7,0,1,,,,,,,,,,,,,,,,
,,,,,,,,,,,,5fbc1367373b9307763985c0,2021-09-27_17h10.55.564,forced_choiceRT_color,2021.2.3,Win32,60.19744763,d,2.1799,8,0,8,0,1,,,,,,,,,,,,,,,,
,,,,,,,,,,,,5fbc1367373b9307763985c0,2021-09-27_17h10.55.564,forced_choiceRT_color,2021.2.3,Win32,60.19744763,f,2.005,9,0,9,0,1,,,,,,,,,,,,,,,,
,,,,,,,,,,,,5fbc1367373b9307763985c0,2021-09-27_17h10.55.564,forced_choiceRT_color,2021.2.3,Win32,60.19744763,d,1.8055,10,0,10,0,1,,,,,,,,,,,,,,,,
,,,,,,,,,,,,5fbc1367373b9307763985c0,2021-09-27_17h10.55.564,forced_choiceRT_color,2021.2.3,Win32,60.19744763,d,2.1229,11,0,11,0,1,,,,,,,,,,,,,,,,
,,,,,,,,,,,,5fbc1367373b9307763985c0,2021-09-27_17h10.55.564,forced_choiceRT_color,2021.2.3,Win32,60.19744763,f,2.1161,12,0,12,0,1,,,,,,,,,,,,,,,,
,,,,,,,,,,,,5fbc1367373b9307763985c0,2021-09-27_17h10.55.564,forced_choiceRT_color,2021.2.3,Win32,60.19744763,j,2.0566,13,0,13,0,1,,,,,,,,,,,,,,,,
,,,,,,,,,,,,5fbc1367373b9307763985c0,2021-09-27_17h10.55.564,forced_choiceRT_color,2021.2.3,Win32,60.19744763,k,2.0211,14,0,14,0,1,,,,,,,,,,,,,,,,
,,,,,,,,,,,,5fbc1367373b9307763985c0,2021-09-27_17h10.55.564,forced_choiceRT_color,2021.2.3,Win32,60.19744763,j,2.1734,15,0,15,0,1,,,,,,,,,,,,,,,,
,,,,,,,,,,,,5fbc1367373b9307763985c0,2021-09-27_17h10.55.564,forced_choiceRT_color,2021.2.3,Win32,60.19744763,j,2.0104,16,0,16,0,1,,,,,,,,,,,,,,,,
,,,,,,,,,,,,5fbc1367373b9307763985c0,2021-09-27_17h10.55.564,forced_choiceRT_color,2021.2.3,Win32,60.19744763,j,2.0651,17,0,17,0,1,,,,,,,,,,,,,,,,
,,,,,,,,,,,,5fbc1367373b9307763985c0,2021-09-27_17h10.55.564,forced_choiceRT_color,2021.2.3,Win32,60.19744763,j,1.9298,18,0,18,0,1,,,,,,,,,,,,,,,,
,,,,,,,,,,,,5fbc1367373b9307763985c0,2021-09-27_17h10.55.564,forced_choiceRT_color,2021.2.3,Win32,60.19744763,j,1.9092,19,0,19,0,1,,,,,,,,,,,,,,,,
,1.88,,,,,,,,,f,blue,5fbc1367373b9307763985c0,2021-09-27_17h10.55.564,forced_choiceRT_color,2021.2.3,Win32,60.19744763,,,,,,,,1,Ontime,short,j,0,1.9858,0,0,0,1,1,,,,,
,1.86,,,,,,,,,f,blue,5fbc1367373b9307763985c0,2021-09-27_17h10.55.564,forced_choiceRT_color,2021.2.3,Win32,60.19744763,,,,,,,,1,Ontime,short,d,0,2.0831,0,1,1,1,1,,,,,
,0.09,,,,,,,,,k,purple,5fbc1367373b9307763985c0,2021-09-27_17h10.55.564,forced_choiceRT_color,2021.2.3,Win32,60.19744763,,,,,,,,1,Fast,short,k,1,1.6771,0,2,2,3,1,,,,,
,0.57,,,,,,,,,k,purple,5fbc1367373b9307763985c0,2021-09-27_17h10.55.564,forced_choiceRT_color,2021.2.3,Win32,60.19744763,,,,,,,,1,Ontime,short,k,1,2.0511,0,3,3,3,1,,,,,
,0.92,,,,,,,,,j,red,5fbc1367373b9307763985c0,2021-09-27_17h10.55.564,forced_choiceRT_color,2021.2.3,Win32,60.19744763,,,,,,,,1,Fast,short,j,1,1.8447,1,0,4,2,1,,,,,
,0.36,,,,,,,,,k,purple,5fbc1367373b9307763985c0,2021-09-27_17h10.55.564,forced_choiceRT_color,2021.2.3,Win32,60.19744763,,,,,,,,1,Ontime,short,k,1,1.9691,1,1,5,3,1,,,,,
,0.68,,,,,,,,,k,purple,5fbc1367373b9307763985c0,2021-09-27_17h10.55.564,forced_choiceRT_color,2021.2.3,Win32,60.19744763,,,,,,,,1,Ontime,short,k,1,1.9529,1,2,6,3,1,,,,,
,0.89,,,,,,,,,j,red,5fbc1367373b9307763985c0,2021-09-27_17h10.55.564,forced_choiceRT_color,2021.2.3,Win32,60.19744763,,,,,,,,1,Fast,short,j,1,1.7666,1,3,7,2,1,,,,,
,1.11,,,,,,,,,f,blue,5fbc1367373b9307763985c0,2021-09-27_17h10.55.564,forced_choiceRT_color,2021.2.3,Win32,60.19744763,,,,,,,,1,Fast,short,f,1,1.8995,2,0,8,1,1,,,,,
,0.35,,,,,,,,,k,purple,5fbc1367373b9307763985c0,2021-09-27_17h10.55.564,forced_choiceRT_color,2021.2.3,Win32,60.19744763,,,,,,,,1,Ontime,short,k,1,1.9671,2,1,9,3,1,,,,,
,0.29,,,,,,,,,j,red,5fbc1367373b9307763985c0,2021-09-27_17h10.55.564,forced_choiceRT_color,2021.2.3,Win32,60.19744763,,,,,,,,1,Ontime,short,j,1,1.9706,2,2,10,2,1,,,,,
,0.8,,,,,,,,,f,blue,5fbc1367373b9307763985c0,2021-09-27_17h10.55.564,forced_choiceRT_color,2021.2.3,Win32,60.19744763,,,,,,,,1,Ontime,short,f,1,1.9196,2,3,11,1,1,,,,,
,0.19,,,,,,,,,d,orange,5fbc1367373b9307763985c0,2021-09-27_17h10.55.564,forced_choiceRT_color,2021.2.3,Win32,60.19744763,,,,,,,,1,Fast,short,d,1,1.7686,3,0,12,0,1,,,,,
,1.99,,,,,,,,,d,orange,5fbc1367373b9307763985c0,2021-09-27_17h10.55.564,forced_choiceRT_color,2021.2.3,Win32,60.19744763,,,,,,,,1,Slow,short,d,1,2.2322,3,1,13,0,1,,,,,
,0.81,,,,,,,,,f,blue,5fbc1367373b9307763985c0,2021-09-27_17h10.55.564,forced_choiceRT_color,2021.2.3,Win32,60.19744763,,,,,,,,1,Fast,short,f,1,1.7519,3,2,14,1,1,,,,,
,1.25,,,,,,,,,j,red,5fbc1367373b9307763985c0,2021-09-27_17h10.55.564,forced_choiceRT_color,2021.2.3,Win32,60.19744763,,,,,,,,1,Ontime,short,j,1,1.9709,3,3,15,2,1,,,,,
,1.32,,,,,,,,,f,blue,5fbc1367373b9307763985c0,2021-09-27_17h10.55.564,forced_choiceRT_color,2021.2.3,Win32,60.19744763,,,,,,,,1,Ontime,short,f,1,2.0832,4,0,16,1,1,,,,,
,1.01,,,,,,,,,j,red,5fbc1367373b9307763985c0,2021-09-27_17h10.55.564,forced_choiceRT_color,2021.2.3,Win32,60.19744763,,,,,,,,1,Ontime,short,j,1,2.0999,4,1,17,2,1,,,,,
,0.66,,,,,,,,,d,orange,5fbc1367373b9307763985c0,2021-09-27_17h10.55.564,forced_choiceRT_color,2021.2.3,Win32,60.19744763,,,,,,,,1,Ontime,short,d,1,2.0611,4,2,18,0,1,,,,,
,0.88,,,,,,,,,f,blue,5fbc1367373b9307763985c0,2021-09-27_17h10.55.564,forced_choiceRT_color,2021.2.3,Win32,60.19744763,,,,,,,,1,Ontime,short,f,1,1.9235,4,3,19,1,1,,,,,
,0.01,,,,,,,,,k,purple,5fbc1367373b9307763985c0,2021-09-27_17h10.55.564,forced_choiceRT_color,2021.2.3,Win32,60.19744763,,,,,,,,1,Ontime,short,k,1,2.0492,5,0,20,3,1,,,,,
,0.87,,,,,,,,,f,blue,5fbc1367373b9307763985c0,2021-09-27_17h10.55.564,forced_choiceRT_color,2021.2.3,Win32,60.19744763,,,,,,,,1,Ontime,short,f,1,1.9726,5,1,21,1,1,,,,,
,0.71,,,,,,,,,d,orange,5fbc1367373b9307763985c0,2021-09-27_17h10.55.564,forced_choiceRT_color,2021.2.3,Win32,60.19744763,,,,,,,,1,Ontime,short,d,1,2.0496,5,2,22,0,1,,,,,
,0.62,,,,,,,,,k,purple,5fbc1367373b9307763985c0,2021-09-27_17h10.55.564,forced_choiceRT_color,2021.2.3,Win32,60.19744763,,,,,,,,1,Ontime,short,k,1,2.0575,5,3,23,3,1,,,,,
,0.78,,,,,,,,,k,purple,5fbc1367373b9307763985c0,2021-09-27_17h10.55.564,forced_choiceRT_color,2021.2.3,Win32,60.19744763,,,,,,,,1,Ontime,short,k,1,2.0017,6,0,24,3,1,,,,,
,1.21,,,,,,,,,d,orange,5fbc1367373b9307763985c0,2021-09-27_17h10.55.564,forced_choiceRT_color,2021.2.3,Win32,60.19744763,,,,,,,,1,Ontime,short,d,1,1.9827,6,1,25,0,1,,,,,
,1.85,,,,,,,,,d,orange,5fbc1367373b9307763985c0,2021-09-27_17h10.55.564,forced_choiceRT_color,2021.2.3,Win32,60.19744763,,,,,,,,1,Ontime,short,f,0,2.0828,6,2,26,0,1,,,,,
,1.96,,,,,,,,,f,blue,5fbc1367373b9307763985c0,2021-09-27_17h10.55.564,forced_choiceRT_color,2021.2.3,Win32,60.19744763,,,,,,,,1,Slow,short,d,0,2.1498,6,3,27,1,1,,,,,
,0.7,,,,,,,,,j,red,5fbc1367373b9307763985c0,2021-09-27_17h10.55.564,forced_choiceRT_color,2021.2.3,Win32,60.19744763,,,,,,,,1,Fast,short,j,1,1.8006,7,0,28,2,1,,,,,
,1.15,,,,,,,,,d,orange,5fbc1367373b9307763985c0,2021-09-27_17h10.55.564,forced_choiceRT_color,2021.2.3,Win32,60.19744763,,,,,,,,1,Ontime,short,d,1,1.9173,7,1,29,0,1,,,,,
,0.84,,,,,,,,,d,orange,5fbc1367373b9307763985c0,2021-09-27_17h10.55.564,forced_choiceRT_color,2021.2.3,Win32,60.19744763,,,,,,,,1,Ontime,short,d,1,1.9513,7,2,30,0,1,,,,,
,0.62,,,,,,,,,j,red,5fbc1367373b9307763985c0,2021-09-27_17h10.55.564,forced_choiceRT_color,2021.2.3,Win32,60.19744763,,,,,,,,1,Ontime,short,j,1,1.9246,7,3,31,2,1,,,,,
,0.22,,,,,,,,,j,red,5fbc1367373b9307763985c0,2021-09-27_17h10.55.564,forced_choiceRT_color,2021.2.3,Win32,60.19744763,,,,,,,,1,Ontime,short,j,1,1.9435,8,0,32,2,1,,,,,
,1.87,,,,,,,,,k,purple,5fbc1367373b9307763985c0,2021-09-27_17h10.55.564,forced_choiceRT_color,2021.2.3,Win32,60.19744763,,,,,,,,1,Slow,short,d,0,2.1039,8,1,33,3,1,,,,,
,1.79,,,,,,,,,d,orange,5fbc1367373b9307763985c0,2021-09-27_17h10.55.564,forced_choiceRT_color,2021.2.3,Win32,60.19744763,,,,,,,,1,Ontime,short,d,1,1.9923,8,2,34,0,1,,,,,
,0.55,,,,,,,,,f,blue,5fbc1367373b9307763985c0,2021-09-27_17h10.55.564,forced_choiceRT_color,2021.2.3,Win32,60.19744763,,,,,,,,1,Fast,short,f,1,1.8165,8,3,35,1,1,,,,,
,0.49,,,,,,,,,k,purple,5fbc1367373b9307763985c0,2021-09-27_17h10.55.564,forced_choiceRT_color,2021.2.3,Win32,60.19744763,,,,,,,,1,Fast,short,k,1,1.882,9,0,36,3,1,,,,,
,1.49,,,,,,,,,j,red,5fbc1367373b9307763985c0,2021-09-27_17h10.55.564,forced_choiceRT_color,2021.2.3,Win32,60.19744763,,,,,,,,1,Ontime,short,j,1,2.0697,9,1,37,2,1,,,,,
,1.09,,,,,,,,,j,red,5fbc1367373b9307763985c0,2021-09-27_17h10.55.564,forced_choiceRT_color,2021.2.3,Win32,60.19744763,,,,,,,,1,Slow,short,j,1,2.1588,9,2,38,2,1,,,,,
,1.49,,,,,,,,,d,orange,5fbc1367373b9307763985c0,2021-09-27_17h10.55.564,forced_choiceRT_color,2021.2.3,Win32,60.19744763,,,,,,,,1,Fast,short,f,0,1.8836,9,3,39,0,1,,,,,
,,,,,,,,,,,,5fbc1367373b9307763985c0,2021-09-27_17h10.55.564,forced_choiceRT_color,2021.2.3,Win32,60.19744763,,,,,,,,,,,,,,,,,,,0,0,0,0,1
,1.79,,,,,,,,,f,blue,5fbc1367373b9307763985c0,2021-09-27_17h10.55.564,forced_choiceRT_color,2021.2.3,Win32,60.19744763,,,,,,,,2,Fast,short,j,0,1.8133,0,0,0,1,1,,,,,
,1.12,,,,,,,,,k,purple,5fbc1367373b9307763985c0,2021-09-27_17h10.55.564,forced_choiceRT_color,2021.2.3,Win32,60.19744763,,,,,,,,2,Fast,short,k,1,1.8102,0,1,1,3,1,,,,,
,0.14,,,,,,,,,k,purple,5fbc1367373b9307763985c0,2021-09-27_17h10.55.564,forced_choiceRT_color,2021.2.3,Win32,60.19744763,,,,,,,,2,Fast,short,k,1,1.6999,0,2,2,3,1,,,,,
,0.32,,,,,,,,,j,red,5fbc1367373b9307763985c0,2021-09-27_17h10.55.564,forced_choiceRT_color,2021.2.3,Win32,60.19744763,,,,,,,,2,Ontime,short,j,1,1.9067,0,3,3,2,1,,,,,
,1.97,,,,,,,,,f,blue,5fbc1367373b9307763985c0,2021-09-27_17h10.55.564,forced_choiceRT_color,2021.2.3,Win32,60.19744763,,,,,,,,2,Slow,short,d,0,2.3046,1,0,4,1,1,,,,,
,0.68,,,,,,,,,k,purple,5fbc1367373b9307763985c0,2021-09-27_17h10.55.564,forced_choiceRT_color,2021.2.3,Win32,60.19744763,,,,,,,,2,Ontime,short,k,1,2.0672,1,1,5,3,1,,,,,
,1.28,,,,,,,,,j,red,5fbc1367373b9307763985c0,2021-09-27_17h10.55.564,forced_choiceRT_color,2021.2.3,Win32,60.19744763,,,,,,,,2,Slow,short,j,1,2.1855,1,2,6,2,1,,,,,
,1.17,,,,,,,,,k,purple,5fbc1367373b9307763985c0,2021-09-27_17h10.55.564,forced_choiceRT_color,2021.2.3,Win32,60.19744763,,,,,,,,2,Ontime,short,k,1,1.9725,1,3,7,3,1,,,,,
,0.01,,,,,,,,,d,orange,5fbc1367373b9307763985c0,2021-09-27_17h10.55.564,forced_choiceRT_color,2021.2.3,Win32,60.19744763,,,,,,,,2,Fast,short,d,1,1.7661,2,0,8,0,1,,,,,
,0.16,,,,,,,,,f,blue,5fbc1367373b9307763985c0,2021-09-27_17h10.55.564,forced_choiceRT_color,2021.2.3,Win32,60.19744763,,,,,,,,2,Ontime,short,f,1,2.0944,2,1,9,1,1,,,,,
,1.71,,,,,,,,,d,orange,5fbc1367373b9307763985c0,2021-09-27_17h10.55.564,forced_choiceRT_color,2021.2.3,Win32,60.19744763,,,,,,,,2,Ontime,short,j,0,2.066,2,2,10,0,1,,,,,
,0.34,,,,,,,,,d,orange,5fbc1367373b9307763985c0,2021-09-27_17h10.55.564,forced_choiceRT_color,2021.2.3,Win32,60.19744763,,,,,,,,2,Fast,short,f,0,0.0007,2,3,11,0,1,,,,,
,1.42,,,,,,,,,f,blue,5fbc1367373b9307763985c0,2021-09-27_17h10.55.564,forced_choiceRT_color,2021.2.3,Win32,60.19744763,,,,,,,,2,Ontime,short,f,1,2.0028,3,0,12,1,1,,,,,
,1.23,,,,,,,,,f,blue,5fbc1367373b9307763985c0,2021-09-27_17h10.55.564,forced_choiceRT_color,2021.2.3,Win32,60.19744763,,,,,,,,2,Fast,short,f,1,1.7998,3,1,13,1,1,,,,,
,0.82,,,,,,,,,f,blue,5fbc1367373b9307763985c0,2021-09-27_17h10.55.564,forced_choiceRT_color,2021.2.3,Win32,60.19744763,,,,,,,,2,Ontime,short,f,1,1.9919,3,2,14,1,1,,,,,
,1.75,,,,,,,,,d,orange,5fbc1367373b9307763985c0,2021-09-27_17h10.55.564,forced_choiceRT_color,2021.2.3,Win32,60.19744763,,,,,,,,2,Ontime,short,j,0,1.9365,3,3,15,0,1,,,,,
,1.49,,,,,,,,,f,blue,5fbc1367373b9307763985c0,2021-09-27_17h10.55.564,forced_choiceRT_color,2021.2.3,Win32,60.19744763,,,,,,,,2,Ontime,short,f,1,2.0833,4,0,16,1,1,,,,,
,1.94,,,,,,,,,k,purple,5fbc1367373b9307763985c0,2021-09-27_17h10.55.564,forced_choiceRT_color,2021.2.3,Win32,60.19744763,,,,,,,,2,Slow,short,d,0,2.1707,4,1,17,3,1,,,,,
,0.6,,,,,,,,,d,orange,5fbc1367373b9307763985c0,2021-09-27_17h10.55.564,forced_choiceRT_color,2021.2.3,Win32,60.19744763,,,,,,,,2,Ontime,short,d,1,1.927,4,2,18,0,1,,,,,
,0.63,,,,,,,,,d,orange,5fbc1367373b9307763985c0,2021-09-27_17h10.55.564,forced_choiceRT_color,2021.2.3,Win32,60.19744763,,,,,,,,2,Ontime,short,d,1,1.9541,4,3,19,0,1,,,,,
,1.8,,,,,,,,,d,orange,5fbc1367373b9307763985c0,2021-09-27_17h10.55.564,forced_choiceRT_color,2021.2.3,Win32,60.19744763,,,,,,,,2,Slow,short,j,0,2.1007,5,0,20,0,1,,,,,
,1.74,,,,,,,,,f,blue,5fbc1367373b9307763985c0,2021-09-27_17h10.55.564,forced_choiceRT_color,2021.2.3,Win32,60.19744763,,,,,,,,2,Slow,short,f,1,2.1433,5,1,21,1,1,,,,,
,1.64,,,,,,,,,j,red,5fbc1367373b9307763985c0,2021-09-27_17h10.55.564,forced_choiceRT_color,2021.2.3,Win32,60.19744763,,,,,,,,2,Ontime,short,f,0,2.0165,5,2,22,2,1,,,,,
,1.77,,,,,,,,,d,orange,5fbc1367373b9307763985c0,2021-09-27_17h10.55.564,forced_choiceRT_color,2021.2.3,Win32,60.19744763,,,,,,,,2,Fast,short,j,0,0.034,5,3,23,0,1,,,,,
,1.3,,,,,,,,,f,blue,5fbc1367373b9307763985c0,2021-09-27_17h10.55.564,forced_choiceRT_color,2021.2.3,Win32,60.19744763,,,,,,,,2,Ontime,short,f,1,2.0166,6,0,24,1,1,,,,,
,0.73,,,,,,,,,k,purple,5fbc1367373b9307763985c0,2021-09-27_17h10.55.564,forced_choiceRT_color,2021.2.3,Win32,60.19744763,,,,,,,,2,Slow,short,k,1,2.1003,6,1,25,3,1,,,,,
,1.61,,,,,,,,,j,red,5fbc1367373b9307763985c0,2021-09-27_17h10.55.564,forced_choiceRT_color,2021.2.3,Win32,60.19744763,,,,,,,,2,Ontime,short,j,1,2.0038,6,2,26,2,1,,,,,
,1.35,,,,,,,,,j,red,5fbc1367373b9307763985c0,2021-09-27_17h10.55.564,forced_choiceRT_color,2021.2.3,Win32,60.19744763,,,,,,,,2,Ontime,short,j,1,2.0839,6,3,27,2,1,,,,,
,1.8,,,,,,,,,d,orange,5fbc1367373b9307763985c0,2021-09-27_17h10.55.564,forced_choiceRT_color,2021.2.3,Win32,60.19744763,,,,,,,,2,Ontime,short,j,0,1.9162,7,0,28,0,1,,,,,
,1.81,,,,,,,,,j,red,5fbc1367373b9307763985c0,2021-09-27_17h10.55.564,forced_choiceRT_color,2021.2.3,Win32,60.19744763,,,,,,,,2,Ontime,short,j,1,2.017,7,1,29,2,1,,,,,
,0.05,,,,,,,,,k,purple,5fbc1367373b9307763985c0,2021-09-27_17h10.55.564,forced_choiceRT_color,2021.2.3,Win32,60.19744763,,,,,,,,2,Ontime,short,k,1,2.0168,7,2,30,3,1,,,,,
,0.43,,,,,,,,,k,purple,5fbc1367373b9307763985c0,2021-09-27_17h10.55.564,forced_choiceRT_color,2021.2.3,Win32,60.19744763,,,,,,,,2,Ontime,short,k,1,2.0681,7,3,31,3,1,,,,,
,0.02,,,,,,,,,j,red,5fbc1367373b9307763985c0,2021-09-27_17h10.55.564,forced_choiceRT_color,2021.2.3,Win32,60.19744763,,,,,,,,2,Ontime,short,j,1,2.0203,8,0,32,2,1,,,,,
,0.76,,,,,,,,,j,red,5fbc1367373b9307763985c0,2021-09-27_17h10.55.564,forced_choiceRT_color,2021.2.3,Win32,60.19744763,,,,,,,,2,Slow,short,j,1,2.1173,8,1,33,2,1,,,,,
,0.27,,,,,,,,,j,red,5fbc1367373b9307763985c0,2021-09-27_17h10.55.564,forced_choiceRT_color,2021.2.3,Win32,60.19744763,,,,,,,,2,Ontime,short,j,1,1.9438,8,2,34,2,1,,,,,
,0.78,,,,,,,,,k,purple,5fbc1367373b9307763985c0,2021-09-27_17h10.55.564,forced_choiceRT_color,2021.2.3,Win32,60.19744763,,,,,,,,2,Ontime,short,k,1,2.0939,8,3,35,3,1,,,,,
,0.11,,,,,,,,,j,red,5fbc1367373b9307763985c0,2021-09-27_17h10.55.564,forced_choiceRT_color,2021.2.3,Win32,60.19744763,,,,,,,,2,Ontime,short,j,1,1.9535,9,0,36,2,1,,,,,
,1.27,,,,,,,,,f,blue,5fbc1367373b9307763985c0,2021-09-27_17h10.55.564,forced_choiceRT_color,2021.2.3,Win32,60.19744763,,,,,,,,2,Ontime,short,f,1,1.9338,9,1,37,1,1,,,,,
,0.73,,,,,,,,,d,orange,5fbc1367373b9307763985c0,2021-09-27_17h10.55.564,forced_choiceRT_color,2021.2.3,Win32,60.19744763,,,,,,,,2,Ontime,short,d,1,2.0665,9,2,38,0,1,,,,,
,0.99,,,,,,,,,k,purple,5fbc1367373b9307763985c0,2021-09-27_17h10.55.564,forced_choiceRT_color,2021.2.3,Win32,60.19744763,,,,,,,,2,Fast,short,k,1,1.8382,9,3,39,3,1,,,,,
,,,,,,,,,,,,5fbc1367373b9307763985c0,2021-09-27_17h10.55.564,forced_choiceRT_color,2021.2.3,Win32,60.19744763,,,,,,,,,,,,,,,,,,,1,0,1,0,1
,1.44,,,,,,,,,j,red,5fbc1367373b9307763985c0,2021-09-27_17h10.55.564,forced_choiceRT_color,2021.2.3,Win32,60.19744763,,,,,,,,3,Ontime,short,j,1,2.0241,0,0,0,2,1,,,,,
,0.33,,,,,,,,,k,purple,5fbc1367373b9307763985c0,2021-09-27_17h10.55.564,forced_choiceRT_color,2021.2.3,Win32,60.19744763,,,,,,,,3,Ontime,short,k,1,2.0417,0,1,1,3,1,,,,,
,0.23,,,,,,,,,f,blue,5fbc1367373b9307763985c0,2021-09-27_17h10.55.564,forced_choiceRT_color,2021.2.3,Win32,60.19744763,,,,,,,,3,Fast,short,f,1,1.8511,0,2,2,1,1,,,,,
,1.64,,,,,,,,,k,purple,5fbc1367373b9307763985c0,2021-09-27_17h10.55.564,forced_choiceRT_color,2021.2.3,Win32,60.19744763,,,,,,,,3,Slow,short,k,1,2.1499,0,3,3,3,1,,,,,
,1.1,,,,,,,,,f,blue,5fbc1367373b9307763985c0,2021-09-27_17h10.55.564,forced_choiceRT_color,2021.2.3,Win32,60.19744763,,,,,,,,3,Fast,short,f,1,1.7265,1,0,4,1,1,,,,,
,1.78,,,,,,,,,d,orange,5fbc1367373b9307763985c0,2021-09-27_17h10.55.564,forced_choiceRT_color,2021.2.3,Win32,60.19744763,,,,,,,,3,Slow,short,d,1,2.2178,1,1,5,0,1,,,,,
,0.45,,,,,,,,,k,purple,5fbc1367373b9307763985c0,2021-09-27_17h10.55.564,forced_choiceRT_color,2021.2.3,Win32,60.19744763,,,,,,,,3,Ontime,short,k,1,2.0188,1,2,6,3,1,,,,,
,1,,,,,,,,,f,blue,5fbc1367373b9307763985c0,2021-09-27_17h10.55.564,forced_choiceRT_color,2021.2.3,Win32,60.19744763,,,,,,,,3,Fast,short,j,0,1.8203,1,3,7,1,1,,,,,
,1.82,,,,,,,,,d,orange,5fbc1367373b9307763985c0,2021-09-27_17h10.55.564,forced_choiceRT_color,2021.2.3,Win32,60.19744763,,,,,,,,3,Slow,short,d,1,2.3048,2,0,8,0,1,,,,,
,1.61,,,,,,,,,k,purple,5fbc1367373b9307763985c0,2021-09-27_17h10.55.564,forced_choiceRT_color,2021.2.3,Win32,60.19744763,,,,,,,,3,Ontime,short,j,0,1.9342,2,1,9,3,1,,,,,
,0.39,,,,,,,,,f,blue,5fbc1367373b9307763985c0,2021-09-27_17h10.55.564,forced_choiceRT_color,2021.2.3,Win32,60.19744763,,,,,,,,3,Fast,short,f,1,1.7668,2,2,10,1,1,,,,,
,0.68,,,,,,,,,d,orange,5fbc1367373b9307763985c0,2021-09-27_17h10.55.564,forced_choiceRT_color,2021.2.3,Win32,60.19744763,,,,,,,,3,Ontime,short,d,1,2.0667,2,3,11,0,1,,,,,
,0.14,,,,,,,,,d,orange,5fbc1367373b9307763985c0,2021-09-27_17h10.55.564,forced_choiceRT_color,2021.2.3,Win32,60.19744763,,,,,,,,3,Ontime,short,d,1,1.96,3,0,12,0,1,,,,,
,1.07,,,,,,,,,j,red,5fbc1367373b9307763985c0,2021-09-27_17h10.55.564,forced_choiceRT_color,2021.2.3,Win32,60.19744763,,,,,,,,3,Fast,short,j,1,1.8506,3,1,13,2,1,,,,,
,0.18,,,,,,,,,k,purple,5fbc1367373b9307763985c0,2021-09-27_17h10.55.564,forced_choiceRT_color,2021.2.3,Win32,60.19744763,,,,,,,,3,Ontime,short,k,1,2.056,3,2,14,3,1,,,,,
,0.96,,,,,,,,,j,red,5fbc1367373b9307763985c0,2021-09-27_17h10.55.564,forced_choiceRT_color,2021.2.3,Win32,60.19744763,,,,,,,,3,Ontime,short,j,1,2.0671,3,3,15,2,1,,,,,
,0.26,,,,,,,,,d,orange,5fbc1367373b9307763985c0,2021-09-27_17h10.55.564,forced_choiceRT_color,2021.2.3,Win32,60.19744763,,,,,,,,3,Ontime,short,d,1,1.9676,4,0,16,0,1,,,,,
,0.81,,,,,,,,,k,purple,5fbc1367373b9307763985c0,2021-09-27_17h10.55.564,forced_choiceRT_color,2021.2.3,Win32,60.19744763,,,,,,,,3,Ontime,short,k,1,2.0504,4,1,17,3,1,,,,,
,0.96,,,,,,,,,f,blue,5fbc1367373b9307763985c0,2021-09-27_17h10.55.564,forced_choiceRT_color,2021.2.3,Win32,60.19744763,,,,,,,,3,Slow,short,f,1,2.1186,4,2,18,1,1,,,,,
,1.56,,,,,,,,,j,red,5fbc1367373b9307763985c0,2021-09-27_17h10.55.564,forced_choiceRT_color,2021.2.3,Win32,60.19744763,,,,,,,,3,Slow,short,j,1,2.2591,4,3,19,2,1,,,,,
,0.42,,,,,,,,,j,red,5fbc1367373b9307763985c0,2021-09-27_17h10.55.564,forced_choiceRT_color,2021.2.3,Win32,60.19744763,,,,,,,,3,Ontime,short,j,1,1.9158,5,0,20,2,1,,,,,
,1.38,,,,,,,,,f,blue,5fbc1367373b9307763985c0,2021-09-27_17h10.55.564,forced_choiceRT_color,2021.2.3,Win32,60.19744763,,,,,,,,3,Ontime,short,f,1,1.9532,5,1,21,1,1,,,,,
,0.72,,,,,,,,,j,red,5fbc1367373b9307763985c0,2021-09-27_17h10.55.564,forced_choiceRT_color,2021.2.3,Win32,60.19744763,,,,,,,,3,Fast,short,j,1,1.7831,5,2,22,2,1,,,,,
,0.65,,,,,,,,,d,orange,5fbc1367373b9307763985c0,2021-09-27_17h10.55.564,forced_choiceRT_color,2021.2.3,Win32,60.19744763,,,,,,,,3,Ontime,short,d,1,1.934,5,3,23,0,1,,,,,
,0.34,,,,,,,,,d,orange,5fbc1367373b9307763985c0,2021-09-27_17h10.55.564,forced_choiceRT_color,2021.2.3,Win32,60.19744763,,,,,,,,3,Ontime,short,d,1,1.9501,6,0,24,0,1,,,,,
,1.21,,,,,,,,,k,purple,5fbc1367373b9307763985c0,2021-09-27_17h10.55.564,forced_choiceRT_color,2021.2.3,Win32,60.19744763,,,,,,,,3,Ontime,short,k,1,1.9669,6,1,25,3,1,,,,,
,1.58,,,,,,,,,f,blue,5fbc1367373b9307763985c0,2021-09-27_17h10.55.564,forced_choiceRT_color,2021.2.3,Win32,60.19744763,,,,,,,,3,Ontime,short,f,1,1.9661,6,2,26,1,1,,,,,
,1.79,,,,,,,,,d,orange,5fbc1367373b9307763985c0,2021-09-27_17h10.55.564,forced_choiceRT_color,2021.2.3,Win32,60.19744763,,,,,,,,3,Slow,short,j,0,2.1604,6,3,27,0,1,,,,,
,1.62,,,,,,,,,d,orange,5fbc1367373b9307763985c0,2021-09-27_17h10.55.564,forced_choiceRT_color,2021.2.3,Win32,60.19744763,,,,,,,,3,Ontime,short,d,1,1.9711,7,0,28,0,1,,,,,
,1.78,,,,,,,,,j,red,5fbc1367373b9307763985c0,2021-09-27_17h10.55.564,forced_choiceRT_color,2021.2.3,Win32,60.19744763,,,,,,,,3,Slow,short,f,0,2.1326,7,1,29,2,1,,,,,
,1.26,,,,,,,,,d,orange,5fbc1367373b9307763985c0,2021-09-27_17h10.55.564,forced_choiceRT_color,2021.2.3,Win32,60.19744763,,,,,,,,3,Fast,short,d,1,1.7654,7,2,30,0,1,,,,,
,0.48,,,,,,,,,k,purple,5fbc1367373b9307763985c0,2021-09-27_17h10.55.564,forced_choiceRT_color,2021.2.3,Win32,60.19744763,,,,,,,,3,Slow,short,k,1,2.1173,7,3,31,3,1,,,,,
,0.29,,,,,,,,,k,purple,5fbc1367373b9307763985c0,2021-09-27_17h10.55.564,forced_choiceRT_color,2021.2.3,Win32,60.19744763,,,,,,,,3,Ontime,short,k,1,1.9834,8,0,32,3,1,,,,,
,1.48,,,,,,,,,k,purple,5fbc1367373b9307763985c0,2021-09-27_17h10.55.564,forced_choiceRT_color,2021.2.3,Win32,60.19744763,,,,,,,,3,Fast,short,k,1,1.8938,8,1,33,3,1,,,,,
,1.34,,,,,,,,,f,blue,5fbc1367373b9307763985c0,2021-09-27_17h10.55.564,forced_choiceRT_color,2021.2.3,Win32,60.19744763,,,,,,,,3,Ontime,short,f,1,1.9933,8,2,34,1,1,,,,,
,0.48,,,,,,,,,j,red,5fbc1367373b9307763985c0,2021-09-27_17h10.55.564,forced_choiceRT_color,2021.2.3,Win32,60.19744763,,,,,,,,3,Slow,short,j,1,2.1175,8,3,35,2,1,,,,,
,1.06,,,,,,,,,j,red,5fbc1367373b9307763985c0,2021-09-27_17h10.55.564,forced_choiceRT_color,2021.2.3,Win32,60.19744763,,,,,,,,3,Slow,short,j,1,2.1042,9,0,36,2,1,,,,,
,0.04,,,,,,,,,f,blue,5fbc1367373b9307763985c0,2021-09-27_17h10.55.564,forced_choiceRT_color,2021.2.3,Win32,60.19744763,,,,,,,,3,Ontime,short,f,1,1.9181,9,1,37,1,1,,,,,
,1.3,,,,,,,,,f,blue,5fbc1367373b9307763985c0,2021-09-27_17h10.55.564,forced_choiceRT_color,2021.2.3,Win32,60.19744763,,,,,,,,3,Slow,short,f,1,2.1098,9,2,38,1,1,,,,,
,1.14,,,,,,,,,j,red,5fbc1367373b9307763985c0,2021-09-27_17h10.55.564,forced_choiceRT_color,2021.2.3,Win32,60.19744763,,,,,,,,3,Fast,short,j,1,1.793,9,3,39,2,1,,,,,
,,,,,,,,,,,,5fbc1367373b9307763985c0,2021-09-27_17h10.55.564,forced_choiceRT_color,2021.2.3,Win32,60.19744763,,,,,,,,,,,,,,,,,,,2,0,2,0,1
,1.3,,,,,,,,,j,red,5fbc1367373b9307763985c0,2021-09-27_17h10.55.564,forced_choiceRT_color,2021.2.3,Win32,60.19744763,,,,,,,,4,Fast,short,j,1,1.8795,0,0,0,2,1,,,,,
,1.64,,,,,,,,,j,red,5fbc1367373b9307763985c0,2021-09-27_17h10.55.564,forced_choiceRT_color,2021.2.3,Win32,60.19744763,,,,,,,,4,Ontime,short,j,1,2.026,0,1,1,2,1,,,,,
,1.84,,,,,,,,,d,orange,5fbc1367373b9307763985c0,2021-09-27_17h10.55.564,forced_choiceRT_color,2021.2.3,Win32,60.19744763,,,,,,,,4,Slow,short,f,0,2.224,0,2,2,0,1,,,,,
,1.98,,,,,,,,,d,orange,5fbc1367373b9307763985c0,2021-09-27_17h10.55.564,forced_choiceRT_color,2021.2.3,Win32,60.19744763,,,,,,,,4,Slow,short,d,1,2.4178,0,3,3,0,1,,,,,
,1.54,,,,,,,,,j,red,5fbc1367373b9307763985c0,2021-09-27_17h10.55.564,forced_choiceRT_color,2021.2.3,Win32,60.19744763,,,,,,,,4,Ontime,short,j,1,1.9431,1,0,4,2,1,,,,,
,1.61,,,,,,,,,d,orange,5fbc1367373b9307763985c0,2021-09-27_17h10.55.564,forced_choiceRT_color,2021.2.3,Win32,60.19744763,,,,,,,,4,Ontime,short,d,1,2.049,1,1,5,0,1,,,,,
,0.92,,,,,,,,,k,purple,5fbc1367373b9307763985c0,2021-09-27_17h10.55.564,forced_choiceRT_color,2021.2.3,Win32,60.19744763,,,,,,,,4,Ontime,short,k,1,1.9667,1,2,6,3,1,,,,,
,1.84,,,,,,,,,d,orange,5fbc1367373b9307763985c0,2021-09-27_17h10.55.564,forced_choiceRT_color,2021.2.3,Win32,60.19744763,,,,,,,,4,Slow,short,f,0,2.2086,1,3,7,0,1,,,,,
,0.78,,,,,,,,,j,red,5fbc1367373b9307763985c0,2021-09-27_17h10.55.564,forced_choiceRT_color,2021.2.3,Win32,60.19744763,,,,,,,,4,Fast,short,j,1,1.6031,2,0,8,2,1,,,,,
,1.94,,,,,,,,,k,purple,5fbc1367373b9307763985c0,2021-09-27_17h10.55.564,forced_choiceRT_color,2021.2.3,Win32,60.19744763,,,,,,,,4,Slow,short,k,1,2.3166,2,1,9,3,1,,,,,
,0.73,,,,,,,,,k,purple,5fbc1367373b9307763985c0,2021-09-27_17h10.55.564,forced_choiceRT_color,2021.2.3,Win32,60.19744763,,,,,,,,4,Slow,short,k,1,2.2663,2,2,10,3,1,,,,,
,0.15,,,,,,,,,j,red,5fbc1367373b9307763985c0,2021-09-27_17h10.55.564,forced_choiceRT_color,2021.2.3,Win32,60.19744763,,,,,,,,4,Ontime,short,j,1,2.0036,2,3,11,2,1,,,,,
,0.82,,,,,,,,,k,purple,5fbc1367373b9307763985c0,2021-09-27_17h10.55.564,forced_choiceRT_color,2021.2.3,Win32,60.19744763,,,,,,,,4,Slow,short,k,1,2.1393,3,0,12,3,1,,,,,
,1.27,,,,,,,,,f,blue,5fbc1367373b9307763985c0,2021-09-27_17h10.55.564,forced_choiceRT_color,2021.2.3,Win32,60.19744763,,,,,,,,4,Ontime,short,f,1,2.0991,3,1,13,1,1,,,,,
,0,,,,,,,,,d,orange,5fbc1367373b9307763985c0,2021-09-27_17h10.55.564,forced_choiceRT_color,2021.2.3,Win32,60.19744763,,,,,,,,4,Ontime,short,d,1,1.9734,3,2,14,0,1,,,,,
,0.45,,,,,,,,,d,orange,5fbc1367373b9307763985c0,2021-09-27_17h10.55.564,forced_choiceRT_color,2021.2.3,Win32,60.19744763,,,,,,,,4,Fast,short,d,1,1.8716,3,3,15,0,1,,,,,
,1.17,,,,,,,,,k,purple,5fbc1367373b9307763985c0,2021-09-27_17h10.55.564,forced_choiceRT_color,2021.2.3,Win32,60.19744763,,,,,,,,4,Slow,short,k,1,2.1012,4,0,16,3,1,,,,,
,1.23,,,,,,,,,j,red,5fbc1367373b9307763985c0,2021-09-27_17h10.55.564,forced_choiceRT_color,2021.2.3,Win32,60.19744763,,,,,,,,4,Ontime,short,j,1,2.0172,4,1,17,2,1,,,,,
,1.76,,,,,,,,,k,purple,5fbc1367373b9307763985c0,2021-09-27_17h10.55.564,forced_choiceRT_color,2021.2.3,Win32,60.19744763,,,,,,,,4,Slow,short,k,1,2.2341,4,2,18,3,1,,,,,
,0.06,,,,,,,,,j,red,5fbc1367373b9307763985c0,2021-09-27_17h10.55.564,forced_choiceRT_color,2021.2.3,Win32,60.19744763,,,,,,,,4,Slow,short,j,1,2.2162,4,3,19,2,1,,,,,
,0.31,,,,,,,,,f,blue,5fbc1367373b9307763985c0,2021-09-27_17h10.55.564,forced_choiceRT_color,2021.2.3,Win32,60.19744763,,,,,,,,4,Ontime,short,f,1,1.9492,5,0,20,1,1,,,,,
,1.42,,,,,,,,,k,purple,5fbc1367373b9307763985c0,2021-09-27_17h10.55.564,forced_choiceRT_color,2021.2.3,Win32,60.19744763,,,,,,,,4,Ontime,short,k,1,2.0094,5,1,21,3,1,,,,,
,1.48,,,,,,,,,f,blue,5fbc1367373b9307763985c0,2021-09-27_17h10.55.564,forced_choiceRT_color,2021.2.3,Win32,60.19744763,,,,,,,,4,Ontime,short,f,1,1.9762,5,2,22,1,1,,,,,
,0.69,,,,,,,,,f,blue,5fbc1367373b9307763985c0,2021-09-27_17h10.55.564,forced_choiceRT_color,2021.2.3,Win32,60.19744763,,,,,,,,4,Ontime,short,f,1,2.0013,5,3,23,1,1,,,,,
,1.97,,,,,,,,,f,blue,5fbc1367373b9307763985c0,2021-09-27_17h10.55.564,forced_choiceRT_color,2021.2.3,Win32,60.19744763,,,,,,,,4,Slow,short,d,0,2.1186,6,0,24,1,1,,,,,
,1.1,,,,,,,,,f,blue,5fbc1367373b9307763985c0,2021-09-27_17h10.55.564,forced_choiceRT_color,2021.2.3,Win32,60.19744763,,,,,,,,4,Ontime,short,f,1,1.9007,6,1,25,1,1,,,,,
,1.73,,,,,,,,,j,red,5fbc1367373b9307763985c0,2021-09-27_17h10.55.564,forced_choiceRT_color,2021.2.3,Win32,60.19744763,,,,,,,,4,Ontime,short,f,0,2.0167,6,2,26,2,1,,,,,
,0.37,,,,,,,,,f,blue,5fbc1367373b9307763985c0,2021-09-27_17h10.55.564,forced_choiceRT_color,2021.2.3,Win32,60.19744763,,,,,,,,4,Fast,short,j,0,0.0843,6,3,27,1,1,,,,,
,1.63,,,,,,,,,k,purple,5fbc1367373b9307763985c0,2021-09-27_17h10.55.564,forced_choiceRT_color,2021.2.3,Win32,60.19744763,,,,,,,,4,Ontime,short,f,0,1.9692,7,0,28,3,1,,,,,
,1.59,,,,,,,,,d,orange,5fbc1367373b9307763985c0,2021-09-27_17h10.55.564,forced_choiceRT_color,2021.2.3,Win32,60.19744763,,,,,,,,4,Fast,short,k,0,0.0343,7,1,29,0,1,,,,,
,0.79,,,,,,,,,k,purple,5fbc1367373b9307763985c0,2021-09-27_17h10.55.564,forced_choiceRT_color,2021.2.3,Win32,60.19744763,,,,,,,,4,Ontime,short,k,1,1.9172,7,2,30,3,1,,,,,
,1.59,,,,,,,,,d,orange,5fbc1367373b9307763985c0,2021-09-27_17h10.55.564,forced_choiceRT_color,2021.2.3,Win32,60.19744763,,,,,,,,4,Fast,short,j,0,1.8338,7,3,31,0,1,,,,,
,1.37,,,,,,,,,k,purple,5fbc1367373b9307763985c0,2021-09-27_17h10.55.564,forced_choiceRT_color,2021.2.3,Win32,60.19744763,,,,,,,,4,Fast,short,k,1,1.7993,8,0,32,3,1,,,,,
,1.65,,,,,,,,,f,blue,5fbc1367373b9307763985c0,2021-09-27_17h10.55.564,forced_choiceRT_color,2021.2.3,Win32,60.19744763,,,,,,,,4,Ontime,short,f,1,1.984,8,1,33,1,1,,,,,
,1.41,,,,,,,,,j,red,5fbc1367373b9307763985c0,2021-09-27_17h10.55.564,forced_choiceRT_color,2021.2.3,Win32,60.19744763,,,,,,,,4,Fast,short,j,1,1.8335,8,2,34,2,1,,,,,
,1.35,,,,,,,,,j,red,5fbc1367373b9307763985c0,2021-09-27_17h10.55.564,forced_choiceRT_color,2021.2.3,Win32,60.19744763,,,,,,,,4,Slow,short,j,1,2.22,8,3,35,2,1,,,,,
,1.07,,,,,,,,,d,orange,5fbc1367373b9307763985c0,2021-09-27_17h10.55.564,forced_choiceRT_color,2021.2.3,Win32,60.19744763,,,,,,,,4,Fast,short,d,1,1.7221,9,0,36,0,1,,,,,
,1.18,,,,,,,,,f,blue,5fbc1367373b9307763985c0,2021-09-27_17h10.55.564,forced_choiceRT_color,2021.2.3,Win32,60.19744763,,,,,,,,4,Ontime,short,f,1,1.9412,9,1,37,1,1,,,,,
,1.36,,,,,,,,,f,blue,5fbc1367373b9307763985c0,2021-09-27_17h10.55.564,forced_choiceRT_color,2021.2.3,Win32,60.19744763,,,,,,,,4,Fast,short,f,1,1.7077,9,2,38,1,1,,,,,
,0.68,,,,,,,,,d,orange,5fbc1367373b9307763985c0,2021-09-27_17h10.55.564,forced_choiceRT_color,2021.2.3,Win32,60.19744763,,,,,,,,4,Ontime,short,d,1,1.9835,9,3,39,0,1,,,,,
,,,,,,,,,,,,5fbc1367373b9307763985c0,2021-09-27_17h10.55.564,forced_choiceRT_color,2021.2.3,Win32,60.19744763,,,,,,,,,,,,,,,,,,,3,0,3,0,1
,0.79,,,,,,,,,k,purple,5fbc1367373b9307763985c0,2021-09-27_17h10.55.564,forced_choiceRT_color,2021.2.3,Win32,60.19744763,,,,,,,,5,Ontime,short,k,1,2.0052,0,0,0,3,1,,,,,
,0.71,,,,,,,,,j,red,5fbc1367373b9307763985c0,2021-09-27_17h10.55.564,forced_choiceRT_color,2021.2.3,Win32,60.19744763,,,,,,,,5,Ontime,short,j,1,2.0016,0,1,1,2,1,,,,,
,1.3,,,,,,,,,j,red,5fbc1367373b9307763985c0,2021-09-27_17h10.55.564,forced_choiceRT_color,2021.2.3,Win32,60.19744763,,,,,,,,5,Ontime,short,j,1,1.94,0,2,2,2,1,,,,,
,1.49,,,,,,,,,f,blue,5fbc1367373b9307763985c0,2021-09-27_17h10.55.564,forced_choiceRT_color,2021.2.3,Win32,60.19744763,,,,,,,,5,Ontime,short,f,1,1.917,0,3,3,1,1,,,,,
,0.57,,,,,,,,,d,orange,5fbc1367373b9307763985c0,2021-09-27_17h10.55.564,forced_choiceRT_color,2021.2.3,Win32,60.19744763,,,,,,,,5,Fast,short,d,1,1.8058,1,0,4,0,1,,,,,
,0.51,,,,,,,,,k,purple,5fbc1367373b9307763985c0,2021-09-27_17h10.55.564,forced_choiceRT_color,2021.2.3,Win32,60.19744763,,,,,,,,5,Ontime,short,k,1,1.9078,1,1,5,3,1,,,,,
,0.03,,,,,,,,,d,orange,5fbc1367373b9307763985c0,2021-09-27_17h10.55.564,forced_choiceRT_color,2021.2.3,Win32,60.19744763,,,,,,,,5,Fast,short,d,1,1.8043,1,2,6,0,1,,,,,
,1.11,,,,,,,,,f,blue,5fbc1367373b9307763985c0,2021-09-27_17h10.55.564,forced_choiceRT_color,2021.2.3,Win32,60.19744763,,,,,,,,5,Fast,short,f,1,1.8656,1,3,7,1,1,,,,,
,1.05,,,,,,,,,d,orange,5fbc1367373b9307763985c0,2021-09-27_17h10.55.564,forced_choiceRT_color,2021.2.3,Win32,60.19744763,,,,,,,,5,Ontime,short,d,1,1.9834,2,0,8,0,1,,,,,
,0.04,,,,,,,,,f,blue,5fbc1367373b9307763985c0,2021-09-27_17h10.55.564,forced_choiceRT_color,2021.2.3,Win32,60.19744763,,,,,,,,5,Ontime,short,f,1,2.0136,2,1,9,1,1,,,,,
,1.24,,,,,,,,,j,red,5fbc1367373b9307763985c0,2021-09-27_17h10.55.564,forced_choiceRT_color,2021.2.3,Win32,60.19744763,,,,,,,,5,Slow,short,j,1,2.1976,2,2,10,2,1,,,,,
,1,,,,,,,,,d,orange,5fbc1367373b9307763985c0,2021-09-27_17h10.55.564,forced_choiceRT_color,2021.2.3,Win32,60.19744763,,,,,,,,5,Ontime,short,d,1,2.0659,2,3,11,0,1,,,,,
,0.77,,,,,,,,,j,red,5fbc1367373b9307763985c0,2021-09-27_17h10.55.564,forced_choiceRT_color,2021.2.3,Win32,60.19744763,,,,,,,,5,Ontime,short,j,1,2.0851,3,0,12,2,1,,,,,
,0.78,,,,,,,,,k,purple,5fbc1367373b9307763985c0,2021-09-27_17h10.55.564,forced_choiceRT_color,2021.2.3,Win32,60.19744763,,,,,,,,5,Fast,short,f,0,0.0433,3,1,13,3,1,,,,,
,0.58,,,,,,,,,k,purple,5fbc1367373b9307763985c0,2021-09-27_17h10.55.564,forced_choiceRT_color,2021.2.3,Win32,60.19744763,,,,,,,,5,Ontime,short,k,1,2.0422,3,2,14,3,1,,,,,
,0.81,,,,,,,,,d,orange,5fbc1367373b9307763985c0,2021-09-27_17h10.55.564,forced_choiceRT_color,2021.2.3,Win32,60.19744763,,,,,,,,5,Ontime,short,d,1,2.0354,3,3,15,0,1,,,,,
,1.8,,,,,,,,,f,blue,5fbc1367373b9307763985c0,2021-09-27_17h10.55.564,forced_choiceRT_color,2021.2.3,Win32,60.19744763,,,,,,,,5,Slow,short,f,1,2.1734,4,0,16,1,1,,,,,
,0.93,,,,,,,,,d,orange,5fbc1367373b9307763985c0,2021-09-27_17h10.55.564,forced_choiceRT_color,2021.2.3,Win32,60.19744763,,,,,,,,5,Ontime,short,d,1,2.0745,4,1,17,0,1,,,,,
,0.47,,,,,,,,,d,orange,5fbc1367373b9307763985c0,2021-09-27_17h10.55.564,forced_choiceRT_color,2021.2.3,Win32,60.19744763,,,,,,,,5,Slow,short,d,1,2.1409,4,2,18,0,1,,,,,
,1.7,,,,,,,,,k,purple,5fbc1367373b9307763985c0,2021-09-27_17h10.55.564,forced_choiceRT_color,2021.2.3,Win32,60.19744763,,,,,,,,5,Ontime,short,j,0,1.9659,4,3,19,3,1,,,,,
,0.78,,,,,,,,,d,orange,5fbc1367373b9307763985c0,2021-09-27_17h10.55.564,forced_choiceRT_color,2021.2.3,Win32,60.19744763,,,,,,,,5,Fast,short,d,1,1.7938,5,0,20,0,1,,,,,
,1.67,,,,,,,,,k,purple,5fbc1367373b9307763985c0,2021-09-27_17h10.55.564,forced_choiceRT_color,2021.2.3,Win32,60.19744763,,,,,,,,5,Ontime,short,j,0,2.092,5,1,21,3,1,,,,,
,1.18,,,,,,,,,k,purple,5fbc1367373b9307763985c0,2021-09-27_17h10.55.564,forced_choiceRT_color,2021.2.3,Win32,60.19744763,,,,,,,,5,Fast,short,k,1,0.0261,5,2,22,3,1,,,,,
,1.96,,,,,,,,,f,blue,5fbc1367373b9307763985c0,2021-09-27_17h10.55.564,forced_choiceRT_color,2021.2.3,Win32,60.19744763,,,,,,,,5,Slow,short,f,1,2.2022,5,3,23,1,1,,,,,
,1.87,,,,,,,,,k,purple,5fbc1367373b9307763985c0,2021-09-27_17h10.55.564,forced_choiceRT_color,2021.2.3,Win32,60.19744763,,,,,,,,5,Ontime,short,d,0,2.0208,6,0,24,3,1,,,,,
,1.01,,,,,,,,,k,purple,5fbc1367373b9307763985c0,2021-09-27_17h10.55.564,forced_choiceRT_color,2021.2.3,Win32,60.19744763,,,,,,,,5,Ontime,short,k,1,1.9202,6,1,25,3,1,,,,,
,1.64,,,,,,,,,d,orange,5fbc1367373b9307763985c0,2021-09-27_17h10.55.564,forced_choiceRT_color,2021.2.3,Win32,60.19744763,,,,,,,,5,Slow,short,d,1,2.1025,6,2,26,0,1,,,,,
,0.81,,,,,,,,,f,blue,5fbc1367373b9307763985c0,2021-09-27_17h10.55.564,forced_choiceRT_color,2021.2.3,Win32,60.19744763,,,,,,,,5,Fast,short,f,1,1.7298,6,3,27,1,1,,,,,
,1.2,,,,,,,,,f,blue,5fbc1367373b9307763985c0,2021-09-27_17h10.55.564,forced_choiceRT_color,2021.2.3,Win32,60.19744763,,,,,,,,5,Fast,short,f,1,1.8081,7,0,28,1,1,,,,,
,1.97,,,,,,,,,f,blue,5fbc1367373b9307763985c0,2021-09-27_17h10.55.564,forced_choiceRT_color,2021.2.3,Win32,60.19744763,,,,,,,,5,Slow,short,j,0,2.2316,7,1,29,1,1,,,,,
,0.95,,,,,,,,,j,red,5fbc1367373b9307763985c0,2021-09-27_17h10.55.564,forced_choiceRT_color,2021.2.3,Win32,60.19744763,,,,,,,,5,Fast,short,j,1,1.4913,7,2,30,2,1,,,,,
,0.2,,,,,,,,,d,orange,5fbc1367373b9307763985c0,2021-09-27_17h10.55.564,forced_choiceRT_color,2021.2.3,Win32,60.19744763,,,,,,,,5,Ontime,short,d,1,1.9821,7,3,31,0,1,,,,,
,1.99,,,,,,,,,f,blue,5fbc1367373b9307763985c0,2021-09-27_17h10.55.564,forced_choiceRT_color,2021.2.3,Win32,60.19744763,,,,,,,,5,Slow,short,j,0,2.3146,8,0,32,1,1,,,,,
,1,,,,,,,,,j,red,5fbc1367373b9307763985c0,2021-09-27_17h10.55.564,forced_choiceRT_color,2021.2.3,Win32,60.19744763,,,,,,,,5,Fast,short,j,1,1.5316,8,1,33,2,1,,,,,
,1.37,,,,,,,,,j,red,5fbc1367373b9307763985c0,2021-09-27_17h10.55.564,forced_choiceRT_color,2021.2.3,Win32,60.19744763,,,,,,,,5,Ontime,short,j,1,2.0003,8,2,34,2,1,,,,,
,0.13,,,,,,,,,j,red,5fbc1367373b9307763985c0,2021-09-27_17h10.55.564,forced_choiceRT_color,2021.2.3,Win32,60.19744763,,,,,,,,5,Ontime,short,j,1,1.9166,8,3,35,2,1,,,,,
,0.14,,,,,,,,,k,purple,5fbc1367373b9307763985c0,2021-09-27_17h10.55.564,forced_choiceRT_color,2021.2.3,Win32,60.19744763,,,,,,,,5,Ontime,short,k,1,2.0149,9,0,36,3,1,,,,,
,1.07,,,,,,,,,j,red,5fbc1367373b9307763985c0,2021-09-27_17h10.55.564,forced_choiceRT_color,2021.2.3,Win32,60.19744763,,,,,,,,5,Ontime,short,j,1,2.0346,9,1,37,2,1,,,,,
,0.65,,,,,,,,,f,blue,5fbc1367373b9307763985c0,2021-09-27_17h10.55.564,forced_choiceRT_color,2021.2.3,Win32,60.19744763,,,,,,,,5,Ontime,short,f,1,2.068,9,2,38,1,1,,,,,
,0.82,,,,,,,,,j,red,5fbc1367373b9307763985c0,2021-09-27_17h10.55.564,forced_choiceRT_color,2021.2.3,Win32,60.19744763,,,,,,,,5,Ontime,short,j,1,2.0819,9,3,39,2,1,,,,,
,,,,,,,,,,,,5fbc1367373b9307763985c0,2021-09-27_17h10.55.564,forced_choiceRT_color,2021.2.3,Win32,60.19744763,,,,,,,,,,,,,,,,,,,4,0,4,0,1
,0.97,,,,,,,,,k,purple,5fbc1367373b9307763985c0,2021-09-27_17h10.55.564,forced_choiceRT_color,2021.2.3,Win32,60.19744763,,,,,,,,6,Ontime,short,k,1,2.0286,0,0,0,3,1,,,,,
,0.37,,,,,,,,,j,red,5fbc1367373b9307763985c0,2021-09-27_17h10.55.564,forced_choiceRT_color,2021.2.3,Win32,60.19744763,,,,,,,,6,Ontime,short,j,1,1.9334,0,1,1,2,1,,,,,
,1.11,,,,,,,,,d,orange,5fbc1367373b9307763985c0,2021-09-27_17h10.55.564,forced_choiceRT_color,2021.2.3,Win32,60.19744763,,,,,,,,6,Slow,short,d,1,2.1171,0,2,2,0,1,,,,,
,1.43,,,,,,,,,k,purple,5fbc1367373b9307763985c0,2021-09-27_17h10.55.564,forced_choiceRT_color,2021.2.3,Win32,60.19744763,,,,,,,,6,Ontime,short,k,1,2.0678,0,3,3,3,1,,,,,
,1.11,,,,,,,,,d,orange,5fbc1367373b9307763985c0,2021-09-27_17h10.55.564,forced_choiceRT_color,2021.2.3,Win32,60.19744763,,,,,,,,6,Ontime,short,d,1,2.0928,1,0,4,0,1,,,,,
,1.01,,,,,,,,,j,red,5fbc1367373b9307763985c0,2021-09-27_17h10.55.564,forced_choiceRT_color,2021.2.3,Win32,60.19744763,,,,,,,,6,Ontime,short,j,1,2.0501,1,1,5,2,1,,,,,
,1.97,,,,,,,,,k,purple,5fbc1367373b9307763985c0,2021-09-27_17h10.55.564,forced_choiceRT_color,2021.2.3,Win32,60.19744763,,,,,,,,6,Slow,short,k,1,2.4194,1,2,6,3,1,,,,,
,0.25,,,,,,,,,k,purple,5fbc1367373b9307763985c0,2021-09-27_17h10.55.564,forced_choiceRT_color,2021.2.3,Win32,60.19744763,,,,,,,,6,Fast,short,k,1,1.8334,1,3,7,3,1,,,,,
,1.95,,,,,,,,,d,orange,5fbc1367373b9307763985c0,2021-09-27_17h10.55.564,forced_choiceRT_color,2021.2.3,Win32,60.19744763,,,,,,,,6,Slow,short,d,1,2.2757,2,0,8,0,1,,,,,
,0.9,,,,,,,,,d,orange,5fbc1367373b9307763985c0,2021-09-27_17h10.55.564,forced_choiceRT_color,2021.2.3,Win32,60.19744763,,,,,,,,6,Fast,short,d,1,1.776,2,1,9,0,1,,,,,
,0.86,,,,,,,,,j,red,5fbc1367373b9307763985c0,2021-09-27_17h10.55.564,forced_choiceRT_color,2021.2.3,Win32,60.19744763,,,,,,,,6,Fast,short,j,1,1.8935,2,2,10,2,1,,,,,
,0.31,,,,,,,,,j,red,5fbc1367373b9307763985c0,2021-09-27_17h10.55.564,forced_choiceRT_color,2021.2.3,Win32,60.19744763,,,,,,,,6,Ontime,short,j,1,1.9505,2,3,11,2,1,,,,,
,1.21,,,,,,,,,k,purple,5fbc1367373b9307763985c0,2021-09-27_17h10.55.564,forced_choiceRT_color,2021.2.3,Win32,60.19744763,,,,,,,,6,Fast,short,k,1,1.817,3,0,12,3,1,,,,,
,0.63,,,,,,,,,d,orange,5fbc1367373b9307763985c0,2021-09-27_17h10.55.564,forced_choiceRT_color,2021.2.3,Win32,60.19744763,,,,,,,,6,Ontime,short,d,1,1.9649,3,1,13,0,1,,,,,
,1.08,,,,,,,,,f,blue,5fbc1367373b9307763985c0,2021-09-27_17h10.55.564,forced_choiceRT_color,2021.2.3,Win32,60.19744763,,,,,,,,6,Ontime,short,f,1,2.0564,3,2,14,1,1,,,,,
,1.19,,,,,,,,,j,red,5fbc1367373b9307763985c0,2021-09-27_17h10.55.564,forced_choiceRT_color,2021.2.3,Win32,60.19744763,,,,,,,,6,Ontime,short,j,1,1.9638,3,3,15,2,1,,,,,
,1.55,,,,,,,,,f,blue,5fbc1367373b9307763985c0,2021-09-27_17h10.55.564,forced_choiceRT_color,2021.2.3,Win32,60.19744763,,,,,,,,6,Ontime,short,f,1,1.9812,4,0,16,1,1,,,,,
,1.49,,,,,,,,,d,orange,5fbc1367373b9307763985c0,2021-09-27_17h10.55.564,forced_choiceRT_color,2021.2.3,Win32,60.19744763,,,,,,,,6,Slow,short,d,1,2.2144,4,1,17,0,1,,,,,
,1.67,,,,,,,,,d,orange,5fbc1367373b9307763985c0,2021-09-27_17h10.55.564,forced_choiceRT_color,2021.2.3,Win32,60.19744763,,,,,,,,6,Slow,short,d,1,2.2737,4,2,18,0,1,,,,,
,0.51,,,,,,,,,k,purple,5fbc1367373b9307763985c0,2021-09-27_17h10.55.564,forced_choiceRT_color,2021.2.3,Win32,60.19744763,,,,,,,,6,Fast,short,k,1,1.7714,4,3,19,3,1,,,,,
,1.14,,,,,,,,,j,red,5fbc1367373b9307763985c0,2021-09-27_17h10.55.564,forced_choiceRT_color,2021.2.3,Win32,60.19744763,,,,,,,,6,Fast,short,j,1,1.8841,5,0,20,2,1,,,,,
,1.34,,,,,,,,,j,red,5fbc1367373b9307763985c0,2021-09-27_17h10.55.564,forced_choiceRT_color,2021.2.3,Win32,60.19744763,,,,,,,,6,Fast,short,j,1,1.8839,5,1,21,2,1,,,,,
,0.66,,,,,,,,,j,red,5fbc1367373b9307763985c0,2021-09-27_17h10.55.564,forced_choiceRT_color,2021.2.3,Win32,60.19744763,,,,,,,,6,Ontime,short,j,1,1.9893,5,2,22,2,1,,,,,
,1.15,,,,,,,,,j,red,5fbc1367373b9307763985c0,2021-09-27_17h10.55.564,forced_choiceRT_color,2021.2.3,Win32,60.19744763,,,,,,,,6,Fast,short,j,1,1.8824,5,3,23,2,1,,,,,
,1.16,,,,,,,,,f,blue,5fbc1367373b9307763985c0,2021-09-27_17h10.55.564,forced_choiceRT_color,2021.2.3,Win32,60.19744763,,,,,,,,6,Ontime,short,f,1,2.0164,6,0,24,1,1,,,,,
,1.48,,,,,,,,,k,purple,5fbc1367373b9307763985c0,2021-09-27_17h10.55.564,forced_choiceRT_color,2021.2.3,Win32,60.19744763,,,,,,,,6,Ontime,short,k,1,2.0058,6,1,25,3,1,,,,,
,1.67,,,,,,,,,f,blue,5fbc1367373b9307763985c0,2021-09-27_17h10.55.564,forced_choiceRT_color,2021.2.3,Win32,60.19744763,,,,,,,,6,Ontime,short,f,1,1.9842,6,2,26,1,1,,,,,
,1.67,,,,,,,,,d,orange,5fbc1367373b9307763985c0,2021-09-27_17h10.55.564,forced_choiceRT_color,2021.2.3,Win32,60.19744763,,,,,,,,6,Ontime,short,f,0,2.0499,6,3,27,0,1,,,,,
,1.51,,,,,,,,,k,purple,5fbc1367373b9307763985c0,2021-09-27_17h10.55.564,forced_choiceRT_color,2021.2.3,Win32,60.19744763,,,,,,,,6,Fast,short,d,0,0.0355,7,0,28,3,1,,,,,
,1.25,,,,,,,,,j,red,5fbc1367373b9307763985c0,2021-09-27_17h10.55.564,forced_choiceRT_color,2021.2.3,Win32,60.19744763,,,,,,,,6,Fast,short,j,1,1.8649,7,1,29,2,1,,,,,
,1.14,,,,,,,,,f,blue,5fbc1367373b9307763985c0,2021-09-27_17h10.55.564,forced_choiceRT_color,2021.2.3,Win32,60.19744763,,,,,,,,6,Fast,short,f,1,1.8931,7,2,30,1,1,,,,,
,1.24,,,,,,,,,f,blue,5fbc1367373b9307763985c0,2021-09-27_17h10.55.564,forced_choiceRT_color,2021.2.3,Win32,60.19744763,,,,,,,,6,Ontime,short,f,1,2.064,7,3,31,1,1,,,,,
,1.33,,,,,,,,,f,blue,5fbc1367373b9307763985c0,2021-09-27_17h10.55.564,forced_choiceRT_color,2021.2.3,Win32,60.19744763,,,,,,,,6,Fast,short,f,1,1.7742,8,0,32,1,1,,,,,
,1.31,,,,,,,,,f,blue,5fbc1367373b9307763985c0,2021-09-27_17h10.55.564,forced_choiceRT_color,2021.2.3,Win32,60.19744763,,,,,,,,6,Slow,short,f,1,2.1378,8,1,33,1,1,,,,,
,1.09,,,,,,,,,f,blue,5fbc1367373b9307763985c0,2021-09-27_17h10.55.564,forced_choiceRT_color,2021.2.3,Win32,60.19744763,,,,,,,,6,Ontime,short,f,1,1.9514,8,2,34,1,1,,,,,
,0.9,,,,,,,,,k,purple,5fbc1367373b9307763985c0,2021-09-27_17h10.55.564,forced_choiceRT_color,2021.2.3,Win32,60.19744763,,,,,,,,6,Slow,short,k,1,2.2338,8,3,35,3,1,,,,,
,0.18,,,,,,,,,k,purple,5fbc1367373b9307763985c0,2021-09-27_17h10.55.564,forced_choiceRT_color,2021.2.3,Win32,60.19744763,,,,,,,,6,Ontime,short,k,1,1.9282,9,0,36,3,1,,,,,
,1.85,,,,,,,,,d,orange,5fbc1367373b9307763985c0,2021-09-27_17h10.55.564,forced_choiceRT_color,2021.2.3,Win32,60.19744763,,,,,,,,6,Ontime,short,k,0,1.9693,9,1,37,0,1,,,,,
,1.6,,,,,,,,,d,orange,5fbc1367373b9307763985c0,2021-09-27_17h10.55.564,forced_choiceRT_color,2021.2.3,Win32,60.19744763,,,,,,,,6,Ontime,short,d,1,1.9335,9,2,38,0,1,,,,,
,0.48,,,,,,,,,f,blue,5fbc1367373b9307763985c0,2021-09-27_17h10.55.564,forced_choiceRT_color,2021.2.3,Win32,60.19744763,,,,,,,,6,Fast,short,f,1,1.8582,9,3,39,1,1,,,,,
,,,,,,,,,,,,5fbc1367373b9307763985c0,2021-09-27_17h10.55.564,forced_choiceRT_color,2021.2.3,Win32,60.19744763,,,,,,,,,,,,,,,,,,,5,0,5,0,1
,1.29,,,,,,,,,j,red,5fbc1367373b9307763985c0,2021-09-27_17h10.55.564,forced_choiceRT_color,2021.2.3,Win32,60.19744763,,,,,,,,7,Fast,short,j,1,1.7228,0,0,0,2,1,,,,,
,1.52,,,,,,,,,f,blue,5fbc1367373b9307763985c0,2021-09-27_17h10.55.564,forced_choiceRT_color,2021.2.3,Win32,60.19744763,,,,,,,,7,Fast,short,f,1,1.8853,0,1,1,1,1,,,,,
,0.91,,,,,,,,,d,orange,5fbc1367373b9307763985c0,2021-09-27_17h10.55.564,forced_choiceRT_color,2021.2.3,Win32,60.19744763,,,,,,,,7,Ontime,short,d,1,2.0526,0,2,2,0,1,,,,,
,1.6,,,,,,,,,d,orange,5fbc1367373b9307763985c0,2021-09-27_17h10.55.564,forced_choiceRT_color,2021.2.3,Win32,60.19744763,,,,,,,,7,Ontime,short,f,0,1.9886,0,3,3,0,1,,,,,
,1.05,,,,,,,,,f,blue,5fbc1367373b9307763985c0,2021-09-27_17h10.55.564,forced_choiceRT_color,2021.2.3,Win32,60.19744763,,,,,,,,7,Fast,short,d,0,0.07,1,0,4,1,1,,,,,
,0.68,,,,,,,,,k,purple,5fbc1367373b9307763985c0,2021-09-27_17h10.55.564,forced_choiceRT_color,2021.2.3,Win32,60.19744763,,,,,,,,7,Fast,short,k,1,1.847,1,1,5,3,1,,,,,
,1.19,,,,,,,,,k,purple,5fbc1367373b9307763985c0,2021-09-27_17h10.55.564,forced_choiceRT_color,2021.2.3,Win32,60.19744763,,,,,,,,7,Ontime,short,k,1,1.9092,1,2,6,3,1,,,,,
,0.88,,,,,,,,,d,orange,5fbc1367373b9307763985c0,2021-09-27_17h10.55.564,forced_choiceRT_color,2021.2.3,Win32,60.19744763,,,,,,,,7,Slow,short,d,1,2.1509,1,3,7,0,1,,,,,
,0.67,,,,,,,,,k,purple,5fbc1367373b9307763985c0,2021-09-27_17h10.55.564,forced_choiceRT_color,2021.2.3,Win32,60.19744763,,,,,,,,7,Fast,short,k,1,1.8264,2,0,8,3,1,,,,,
,0.4,,,,,,,,,f,blue,5fbc1367373b9307763985c0,2021-09-27_17h10.55.564,forced_choiceRT_color,2021.2.3,Win32,60.19744763,,,,,,,,7,Ontime,short,f,1,2.0434,2,1,9,1,1,,,,,
,0.06,,,,,,,,,j,red,5fbc1367373b9307763985c0,2021-09-27_17h10.55.564,forced_choiceRT_color,2021.2.3,Win32,60.19744763,,,,,,,,7,Ontime,short,j,1,2.0439,2,2,10,2,1,,,,,
,1.66,,,,,,,,,f,blue,5fbc1367373b9307763985c0,2021-09-27_17h10.55.564,forced_choiceRT_color,2021.2.3,Win32,60.19744763,,,,,,,,7,Ontime,short,f,1,2.0665,2,3,11,1,1,,,,,
,1.58,,,,,,,,,j,red,5fbc1367373b9307763985c0,2021-09-27_17h10.55.564,forced_choiceRT_color,2021.2.3,Win32,60.19744763,,,,,,,,7,Slow,short,j,1,2.2,3,0,12,2,1,,,,,
,1.7,,,,,,,,,f,blue,5fbc1367373b9307763985c0,2021-09-27_17h10.55.564,forced_choiceRT_color,2021.2.3,Win32,60.19744763,,,,,,,,7,Slow,short,d,0,2.1506,3,1,13,1,1,,,,,
,0.6,,,,,,,,,d,orange,5fbc1367373b9307763985c0,2021-09-27_17h10.55.564,forced_choiceRT_color,2021.2.3,Win32,60.19744763,,,,,,,,7,Ontime,short,d,1,1.9502,3,2,14,0,1,,,,,
,1.4,,,,,,,,,d,orange,5fbc1367373b9307763985c0,2021-09-27_17h10.55.564,forced_choiceRT_color,2021.2.3,Win32,60.19744763,,,,,,,,7,Ontime,short,d,1,1.9835,3,3,15,0,1,,,,,
,1.52,,,,,,,,,d,orange,5fbc1367373b9307763985c0,2021-09-27_17h10.55.564,forced_choiceRT_color,2021.2.3,Win32,60.19744763,,,,,,,,7,Ontime,short,d,1,2.0604,4,0,16,0,1,,,,,
,0.36,,,,,,,,,k,purple,5fbc1367373b9307763985c0,2021-09-27_17h10.55.564,forced_choiceRT_color,2021.2.3,Win32,60.19744763,,,,,,,,7,Ontime,short,k,1,2.0327,4,1,17,3,1,,,,,
,0.33,,,,,,,,,j,red,5fbc1367373b9307763985c0,2021-09-27_17h10.55.564,forced_choiceRT_color,2021.2.3,Win32,60.19744763,,,,,,,,7,Slow,short,j,1,2.215,4,2,18,2,1,,,,,
,0.28,,,,,,,,,j,red,5fbc1367373b9307763985c0,2021-09-27_17h10.55.564,forced_choiceRT_color,2021.2.3,Win32,60.19744763,,,,,,,,7,Ontime,short,j,1,1.9948,4,3,19,2,1,,,,,
,0.88,,,,,,,,,j,red,5fbc1367373b9307763985c0,2021-09-27_17h10.55.564,forced_choiceRT_color,2021.2.3,Win32,60.19744763,,,,,,,,7,Ontime,short,j,1,2.0666,5,0,20,2,1,,,,,
,0.22,,,,,,,,,k,purple,5fbc1367373b9307763985c0,2021-09-27_17h10.55.564,forced_choiceRT_color,2021.2.3,Win32,60.19744763,,,,,,,,7,Ontime,short,k,1,2.0602,5,1,21,3,1,,,,,
,0.38,,,,,,,,,k,purple,5fbc1367373b9307763985c0,2021-09-27_17h10.55.564,forced_choiceRT_color,2021.2.3,Win32,60.19744763,,,,,,,,7,Ontime,short,k,1,2.0492,5,2,22,3,1,,,,,
,1.63,,,,,,,,,k,purple,5fbc1367373b9307763985c0,2021-09-27_17h10.55.564,forced_choiceRT_color,2021.2.3,Win32,60.19744763,,,,,,,,7,Slow,short,k,1,2.3505,5,3,23,3,1,,,,,
,1.36,,,,,,,,,j,red,5fbc1367373b9307763985c0,2021-09-27_17h10.55.564,forced_choiceRT_color,2021.2.3,Win32,60.19744763,,,,,,,,7,Ontime,short,f,0,1.984,6,0,24,2,1,,,,,
,0.07,,,,,,,,,j,red,5fbc1367373b9307763985c0,2021-09-27_17h10.55.564,forced_choiceRT_color,2021.2.3,Win32,60.19744763,,,,,,,,7,Fast,short,j,1,1.7677,6,1,25,2,1,,,,,
,0.09,,,,,,,,,k,purple,5fbc1367373b9307763985c0,2021-09-27_17h10.55.564,forced_choiceRT_color,2021.2.3,Win32,60.19744763,,,,,,,,7,Ontime,short,k,1,2.0845,6,2,26,3,1,,,,,
,1.16,,,,,,,,,d,orange,5fbc1367373b9307763985c0,2021-09-27_17h10.55.564,forced_choiceRT_color,2021.2.3,Win32,60.19744763,,,,,,,,7,Slow,short,d,1,2.2827,6,3,27,0,1,,,,,
,0.89,,,,,,,,,d,orange,5fbc1367373b9307763985c0,2021-09-27_17h10.55.564,forced_choiceRT_color,2021.2.3,Win32,60.19744763,,,,,,,,7,Slow,short,d,1,2.1663,7,0,28,0,1,,,,,
,0.66,,,,,,,,,k,purple,5fbc1367373b9307763985c0,2021-09-27_17h10.55.564,forced_choiceRT_color,2021.2.3,Win32,60.19744763,,,,,,,,7,Ontime,short,f,0,1.9612,7,1,29,3,1,,,,,
,0.75,,,,,,,,,f,blue,5fbc1367373b9307763985c0,2021-09-27_17h10.55.564,forced_choiceRT_color,2021.2.3,Win32,60.19744763,,,,,,,,7,Ontime,short,f,1,2.0992,7,2,30,1,1,,,,,
,0.44,,,,,,,,,d,orange,5fbc1367373b9307763985c0,2021-09-27_17h10.55.564,forced_choiceRT_color,2021.2.3,Win32,60.19744763,,,,,,,,7,Slow,short,d,1,2.1834,7,3,31,0,1,,,,,
,1.42,,,,,,,,,d,orange,5fbc1367373b9307763985c0,2021-09-27_17h10.55.564,forced_choiceRT_color,2021.2.3,Win32,60.19744763,,,,,,,,7,Ontime,short,d,1,2.0393,8,0,32,0,1,,,,,
,0.23,,,,,,,,,f,blue,5fbc1367373b9307763985c0,2021-09-27_17h10.55.564,forced_choiceRT_color,2021.2.3,Win32,60.19744763,,,,,,,,7,Ontime,short,f,1,1.9838,8,1,33,1,1,,,,,
,0.5,,,,,,,,,f,blue,5fbc1367373b9307763985c0,2021-09-27_17h10.55.564,forced_choiceRT_color,2021.2.3,Win32,60.19744763,,,,,,,,7,Fast,short,f,1,1.849,8,2,34,1,1,,,,,
,0.56,,,,,,,,,j,red,5fbc1367373b9307763985c0,2021-09-27_17h10.55.564,forced_choiceRT_color,2021.2.3,Win32,60.19744763,,,,,,,,7,Slow,short,j,1,2.1829,8,3,35,2,1,,,,,
,1.5,,,,,,,,,f,blue,5fbc1367373b9307763985c0,2021-09-27_17h10.55.564,forced_choiceRT_color,2021.2.3,Win32,60.19744763,,,,,,,,7,Fast,short,f,1,1.8846,9,0,36,1,1,,,,,
,0.42,,,,,,,,,j,red,5fbc1367373b9307763985c0,2021-09-27_17h10.55.564,forced_choiceRT_color,2021.2.3,Win32,60.19744763,,,,,,,,7,Ontime,short,j,1,1.9503,9,1,37,2,1,,,,,
,0.56,,,,,,,,,f,blue,5fbc1367373b9307763985c0,2021-09-27_17h10.55.564,forced_choiceRT_color,2021.2.3,Win32,60.19744763,,,,,,,,7,Ontime,short,f,1,2.0385,9,2,38,1,1,,,,,
,0.63,,,,,,,,,k,purple,5fbc1367373b9307763985c0,2021-09-27_17h10.55.564,forced_choiceRT_color,2021.2.3,Win32,60.19744763,,,,,,,,7,Ontime,short,k,1,1.9829,9,3,39,3,1,,,,,
,,,,,,,,,,,,5fbc1367373b9307763985c0,2021-09-27_17h10.55.564,forced_choiceRT_color,2021.2.3,Win32,60.19744763,,,,,,,,,,,,,,,,,,,6,0,6,0,1
,0.98,,,,,,,,,f,blue,5fbc1367373b9307763985c0,2021-09-27_17h10.55.564,forced_choiceRT_color,2021.2.3,Win32,60.19744763,,,,,,,,8,Fast,short,f,1,1.7408,0,0,0,1,1,,,,,
,1.22,,,,,,,,,f,blue,5fbc1367373b9307763985c0,2021-09-27_17h10.55.564,forced_choiceRT_color,2021.2.3,Win32,60.19744763,,,,,,,,8,Fast,short,f,1,1.8893,0,1,1,1,1,,,,,
,1.62,,,,,,,,,d,orange,5fbc1367373b9307763985c0,2021-09-27_17h10.55.564,forced_choiceRT_color,2021.2.3,Win32,60.19744763,,,,,,,,8,Slow,short,d,1,2.1882,0,2,2,0,1,,,,,
,0.31,,,,,,,,,j,red,5fbc1367373b9307763985c0,2021-09-27_17h10.55.564,forced_choiceRT_color,2021.2.3,Win32,60.19744763,,,,,,,,8,Ontime,short,j,1,2.0135,0,3,3,2,1,,,,,
,1.46,,,,,,,,,f,blue,5fbc1367373b9307763985c0,2021-09-27_17h10.55.564,forced_choiceRT_color,2021.2.3,Win32,60.19744763,,,,,,,,8,Slow,short,f,1,2.2338,1,0,4,1,1,,,,,
,0.97,,,,,,,,,d,orange,5fbc1367373b9307763985c0,2021-09-27_17h10.55.564,forced_choiceRT_color,2021.2.3,Win32,60.19744763,,,,,,,,8,Ontime,short,d,1,2.025,1,1,5,0,1,,,,,
,0.14,,,,,,,,,d,orange,5fbc1367373b9307763985c0,2021-09-27_17h10.55.564,forced_choiceRT_color,2021.2.3,Win32,60.19744763,,,,,,,,8,Ontime,short,d,1,2.034,1,2,6,0,1,,,,,
,0.07,,,,,,,,,j,red,5fbc1367373b9307763985c0,2021-09-27_17h10.55.564,forced_choiceRT_color,2021.2.3,Win32,60.19744763,,,,,,,,8,Slow,short,j,1,2.1991,1,3,7,2,1,,,,,
,1.7,,,,,,,,,j,red,5fbc1367373b9307763985c0,2021-09-27_17h10.55.564,forced_choiceRT_color,2021.2.3,Win32,60.19744763,,,,,,,,8,Slow,short,j,1,2.2588,2,0,8,2,1,,,,,
,1.6,,,,,,,,,k,purple,5fbc1367373b9307763985c0,2021-09-27_17h10.55.564,forced_choiceRT_color,2021.2.3,Win32,60.19744763,,,,,,,,8,Ontime,short,j,0,1.9069,2,1,9,3,1,,,,,
,1.68,,,,,,,,,f,blue,5fbc1367373b9307763985c0,2021-09-27_17h10.55.564,forced_choiceRT_color,2021.2.3,Win32,60.19744763,,,,,,,,8,Ontime,short,f,1,1.9506,2,2,10,1,1,,,,,
,0.95,,,,,,,,,d,orange,5fbc1367373b9307763985c0,2021-09-27_17h10.55.564,forced_choiceRT_color,2021.2.3,Win32,60.19744763,,,,,,,,8,Slow,short,d,1,2.1194,2,3,11,0,1,,,,,
,0.11,,,,,,,,,d,orange,5fbc1367373b9307763985c0,2021-09-27_17h10.55.564,forced_choiceRT_color,2021.2.3,Win32,60.19744763,,,,,,,,8,Fast,short,d,1,1.866,3,0,12,0,1,,,,,
,1.52,,,,,,,,,d,orange,5fbc1367373b9307763985c0,2021-09-27_17h10.55.564,forced_choiceRT_color,2021.2.3,Win32,60.19744763,,,,,,,,8,Ontime,short,j,0,1.9056,3,1,13,0,1,,,,,
,1.58,,,,,,,,,k,purple,5fbc1367373b9307763985c0,2021-09-27_17h10.55.564,forced_choiceRT_color,2021.2.3,Win32,60.19744763,,,,,,,,8,Slow,short,k,1,2.1763,3,2,14,3,1,,,,,
,1.89,,,,,,,,,j,red,5fbc1367373b9307763985c0,2021-09-27_17h10.55.564,forced_choiceRT_color,2021.2.3,Win32,60.19744763,,,,,,,,8,Slow,short,j,1,2.2951,3,3,15,2,1,,,,,
,0.16,,,,,,,,,k,purple,5fbc1367373b9307763985c0,2021-09-27_17h10.55.564,forced_choiceRT_color,2021.2.3,Win32,60.19744763,,,,,,,,8,Ontime,short,k,1,1.9232,4,0,16,3,1,,,,,
,0.2,,,,,,,,,j,red,5fbc1367373b9307763985c0,2021-09-27_17h10.55.564,forced_choiceRT_color,2021.2.3,Win32,60.19744763,,,,,,,,8,Fast,short,j,1,1.8266,4,1,17,2,1,,,,,
,1.41,,,,,,,,,k,purple,5fbc1367373b9307763985c0,2021-09-27_17h10.55.564,forced_choiceRT_color,2021.2.3,Win32,60.19744763,,,,,,,,8,Ontime,short,d,0,1.9819,4,2,18,3,1,,,,,
,1.39,,,,,,,,,k,purple,5fbc1367373b9307763985c0,2021-09-27_17h10.55.564,forced_choiceRT_color,2021.2.3,Win32,60.19744763,,,,,,,,8,Fast,short,k,1,1.8728,4,3,19,3,1,,,,,
,0.35,,,,,,,,,k,purple,5fbc1367373b9307763985c0,2021-09-27_17h10.55.564,forced_choiceRT_color,2021.2.3,Win32,60.19744763,,,,,,,,8,Fast,short,k,1,1.7587,5,0,20,3,1,,,,,
,1.82,,,,,,,,,k,purple,5fbc1367373b9307763985c0,2021-09-27_17h10.55.564,forced_choiceRT_color,2021.2.3,Win32,60.19744763,,,,,,,,8,Ontime,short,k,1,2.0234,5,1,21,3,1,,,,,
,1.46,,,,,,,,,k,purple,5fbc1367373b9307763985c0,2021-09-27_17h10.55.564,forced_choiceRT_color,2021.2.3,Win32,60.19744763,,,,,,,,8,Ontime,short,k,1,2.0559,5,2,22,3,1,,,,,
,0.75,,,,,,,,,d,orange,5fbc1367373b9307763985c0,2021-09-27_17h10.55.564,forced_choiceRT_color,2021.2.3,Win32,60.19744763,,,,,,,,8,Fast,short,d,1,1.7255,5,3,23,0,1,,,,,
,0.07,,,,,,,,,f,blue,5fbc1367373b9307763985c0,2021-09-27_17h10.55.564,forced_choiceRT_color,2021.2.3,Win32,60.19744763,,,,,,,,8,Ontime,short,f,1,1.9428,6,0,24,1,1,,,,,
,0.48,,,,,,,,,j,red,5fbc1367373b9307763985c0,2021-09-27_17h10.55.564,forced_choiceRT_color,2021.2.3,Win32,60.19744763,,,,,,,,8,Ontime,short,j,1,1.9831,6,1,25,2,1,,,,,
,1.6,,,,,,,,,j,red,5fbc1367373b9307763985c0,2021-09-27_17h10.55.564,forced_choiceRT_color,2021.2.3,Win32,60.19744763,,,,,,,,8,Ontime,short,j,1,1.9003,6,2,26,2,1,,,,,
,0.01,,,,,,,,,d,orange,5fbc1367373b9307763985c0,2021-09-27_17h10.55.564,forced_choiceRT_color,2021.2.3,Win32,60.19744763,,,,,,,,8,Ontime,short,d,1,1.9486,6,3,27,0,1,,,,,
,1.11,,,,,,,,,k,purple,5fbc1367373b9307763985c0,2021-09-27_17h10.55.564,forced_choiceRT_color,2021.2.3,Win32,60.19744763,,,,,,,,8,Fast,short,k,1,1.8235,7,0,28,3,1,,,,,
,0.24,,,,,,,,,f,blue,5fbc1367373b9307763985c0,2021-09-27_17h10.55.564,forced_choiceRT_color,2021.2.3,Win32,60.19744763,,,,,,,,8,Fast,short,j,0,1.6747,7,1,29,1,1,,,,,
,1.66,,,,,,,,,f,blue,5fbc1367373b9307763985c0,2021-09-27_17h10.55.564,forced_choiceRT_color,2021.2.3,Win32,60.19744763,,,,,,,,8,Ontime,short,d,0,1.9336,7,2,30,1,1,,,,,
,0.02,,,,,,,,,j,red,5fbc1367373b9307763985c0,2021-09-27_17h10.55.564,forced_choiceRT_color,2021.2.3,Win32,60.19744763,,,,,,,,8,Ontime,short,j,1,1.9871,7,3,31,2,1,,,,,
,1.22,,,,,,,,,j,red,5fbc1367373b9307763985c0,2021-09-27_17h10.55.564,forced_choiceRT_color,2021.2.3,Win32,60.19744763,,,,,,,,8,Ontime,short,j,1,2.0636,8,0,32,2,1,,,,,
,0.95,,,,,,,,,f,blue,5fbc1367373b9307763985c0,2021-09-27_17h10.55.564,forced_choiceRT_color,2021.2.3,Win32,60.19744763,,,,,,,,8,Fast,short,f,1,1.8665,8,1,33,1,1,,,,,
,0.77,,,,,,,,,d,orange,5fbc1367373b9307763985c0,2021-09-27_17h10.55.564,forced_choiceRT_color,2021.2.3,Win32,60.19744763,,,,,,,,8,Fast,short,d,1,1.7636,8,2,34,0,1,,,,,
,1.73,,,,,,,,,k,purple,5fbc1367373b9307763985c0,2021-09-27_17h10.55.564,forced_choiceRT_color,2021.2.3,Win32,60.19744763,,,,,,,,8,Ontime,short,j,0,2.0998,8,3,35,3,1,,,,,
,1.04,,,,,,,,,f,blue,5fbc1367373b9307763985c0,2021-09-27_17h10.55.564,forced_choiceRT_color,2021.2.3,Win32,60.19744763,,,,,,,,8,Fast,short,k,0,0.1051,9,0,36,1,1,,,,,
,0.24,,,,,,,,,j,red,5fbc1367373b9307763985c0,2021-09-27_17h10.55.564,forced_choiceRT_color,2021.2.3,Win32,60.19744763,,,,,,,,8,Ontime,short,j,1,2.0379,9,1,37,2,1,,,,,
,0.23,,,,,,,,,f,blue,5fbc1367373b9307763985c0,2021-09-27_17h10.55.564,forced_choiceRT_color,2021.2.3,Win32,60.19744763,,,,,,,,8,Ontime,short,f,1,1.9899,9,2,38,1,1,,,,,
,0.59,,,,,,,,,d,orange,5fbc1367373b9307763985c0,2021-09-27_17h10.55.564,forced_choiceRT_color,2021.2.3,Win32,60.19744763,,,,,,,,8,Slow,short,d,1,2.1846,9,3,39,0,1,,,,,
,,,,,,,,,,,,5fbc1367373b9307763985c0,2021-09-27_17h10.55.564,forced_choiceRT_color,2021.2.3,Win32,60.19744763,,,,,,,,,,,,,,,,,,,7,0,7,0,1
,1.03,,,,,,,,,k,purple,5fbc1367373b9307763985c0,2021-09-27_17h10.55.564,forced_choiceRT_color,2021.2.3,Win32,60.19744763,,,,,,,,9,Fast,short,k,1,1.8361,0,0,0,3,1,,,,,
,1.33,,,,,,,,,k,purple,5fbc1367373b9307763985c0,2021-09-27_17h10.55.564,forced_choiceRT_color,2021.2.3,Win32,60.19744763,,,,,,,,9,Fast,short,k,1,1.8234,0,1,1,3,1,,,,,
,1.94,,,,,,,,,d,orange,5fbc1367373b9307763985c0,2021-09-27_17h10.55.564,forced_choiceRT_color,2021.2.3,Win32,60.19744763,,,,,,,,9,Slow,short,j,0,2.2714,0,2,2,0,1,,,,,
,0.31,,,,,,,,,k,purple,5fbc1367373b9307763985c0,2021-09-27_17h10.55.564,forced_choiceRT_color,2021.2.3,Win32,60.19744763,,,,,,,,9,Fast,short,k,1,1.8628,0,3,3,3,1,,,,,
,0.7,,,,,,,,,f,blue,5fbc1367373b9307763985c0,2021-09-27_17h10.55.564,forced_choiceRT_color,2021.2.3,Win32,60.19744763,,,,,,,,9,Fast,short,f,1,1.7645,1,0,4,1,1,,,,,
,1.52,,,,,,,,,f,blue,5fbc1367373b9307763985c0,2021-09-27_17h10.55.564,forced_choiceRT_color,2021.2.3,Win32,60.19744763,,,,,,,,9,Ontime,short,f,1,1.9502,1,1,5,1,1,,,,,
,1.88,,,,,,,,,f,blue,5fbc1367373b9307763985c0,2021-09-27_17h10.55.564,forced_choiceRT_color,2021.2.3,Win32,60.19744763,,,,,,,,9,Fast,short,j,0,0.0006,1,2,6,1,1,,,,,
,1.28,,,,,,,,,d,orange,5fbc1367373b9307763985c0,2021-09-27_17h10.55.564,forced_choiceRT_color,2021.2.3,Win32,60.19744763,,,,,,,,9,Ontime,short,d,1,2.0199,1,3,7,0,1,,,,,
,0.13,,,,,,,,,f,blue,5fbc1367373b9307763985c0,2021-09-27_17h10.55.564,forced_choiceRT_color,2021.2.3,Win32,60.19744763,,,,,,,,9,Ontime,short,f,1,2.0179,2,0,8,1,1,,,,,
,0.17,,,,,,,,,f,blue,5fbc1367373b9307763985c0,2021-09-27_17h10.55.564,forced_choiceRT_color,2021.2.3,Win32,60.19744763,,,,,,,,9,Ontime,short,f,1,2.0352,2,1,9,1,1,,,,,
,1.61,,,,,,,,,j,red,5fbc1367373b9307763985c0,2021-09-27_17h10.55.564,forced_choiceRT_color,2021.2.3,Win32,60.19744763,,,,,,,,9,Ontime,short,j,1,1.9135,2,2,10,2,1,,,,,
,1.57,,,,,,,,,j,red,5fbc1367373b9307763985c0,2021-09-27_17h10.55.564,forced_choiceRT_color,2021.2.3,Win32,60.19744763,,,,,,,,9,Ontime,short,j,1,1.9543,2,3,11,2,1,,,,,
,0.96,,,,,,,,,d,orange,5fbc1367373b9307763985c0,2021-09-27_17h10.55.564,forced_choiceRT_color,2021.2.3,Win32,60.19744763,,,,,,,,9,Ontime,short,d,1,1.9832,3,0,12,0,1,,,,,
,0.26,,,,,,,,,j,red,5fbc1367373b9307763985c0,2021-09-27_17h10.55.564,forced_choiceRT_color,2021.2.3,Win32,60.19744763,,,,,,,,9,Ontime,short,j,1,1.9541,3,1,13,2,1,,,,,
,1.53,,,,,,,,,j,red,5fbc1367373b9307763985c0,2021-09-27_17h10.55.564,forced_choiceRT_color,2021.2.3,Win32,60.19744763,,,,,,,,9,Fast,short,j,1,1.8671,3,2,14,2,1,,,,,
,1.49,,,,,,,,,d,orange,5fbc1367373b9307763985c0,2021-09-27_17h10.55.564,forced_choiceRT_color,2021.2.3,Win32,60.19744763,,,,,,,,9,Ontime,short,d,1,1.907,3,3,15,0,1,,,,,
,0.65,,,,,,,,,f,blue,5fbc1367373b9307763985c0,2021-09-27_17h10.55.564,forced_choiceRT_color,2021.2.3,Win32,60.19744763,,,,,,,,9,Ontime,short,f,1,1.966,4,0,16,1,1,,,,,
,0.26,,,,,,,,,f,blue,5fbc1367373b9307763985c0,2021-09-27_17h10.55.564,forced_choiceRT_color,2021.2.3,Win32,60.19744763,,,,,,,,9,Ontime,short,f,1,1.951,4,1,17,1,1,,,,,
,1.25,,,,,,,,,d,orange,5fbc1367373b9307763985c0,2021-09-27_17h10.55.564,forced_choiceRT_color,2021.2.3,Win32,60.19744763,,,,,,,,9,Ontime,short,d,1,2.0339,4,2,18,0,1,,,,,
,1.7,,,,,,,,,d,orange,5fbc1367373b9307763985c0,2021-09-27_17h10.55.564,forced_choiceRT_color,2021.2.3,Win32,60.19744763,,,,,,,,9,Slow,short,f,0,2.1022,4,3,19,0,1,,,,,
,1.52,,,,,,,,,j,red,5fbc1367373b9307763985c0,2021-09-27_17h10.55.564,forced_choiceRT_color,2021.2.3,Win32,60.19744763,,,,,,,,9,Fast,short,d,0,1.8365,5,0,20,2,1,,,,,
,0.33,,,,,,,,,k,purple,5fbc1367373b9307763985c0,2021-09-27_17h10.55.564,forced_choiceRT_color,2021.2.3,Win32,60.19744763,,,,,,,,9,Fast,short,k,1,1.7739,5,1,21,3,1,,,,,
,1.38,,,,,,,,,j,red,5fbc1367373b9307763985c0,2021-09-27_17h10.55.564,forced_choiceRT_color,2021.2.3,Win32,60.19744763,,,,,,,,9,Ontime,short,j,1,1.9374,5,2,22,2,1,,,,,
,0.24,,,,,,,,,k,purple,5fbc1367373b9307763985c0,2021-09-27_17h10.55.564,forced_choiceRT_color,2021.2.3,Win32,60.19744763,,,,,,,,9,Ontime,short,k,1,2.0813,5,3,23,3,1,,,,,
,0.82,,,,,,,,,k,purple,5fbc1367373b9307763985c0,2021-09-27_17h10.55.564,forced_choiceRT_color,2021.2.3,Win32,60.19744763,,,,,,,,9,Ontime,short,k,1,2.0999,6,0,24,3,1,,,,,
,0.25,,,,,,,,,d,orange,5fbc1367373b9307763985c0,2021-09-27_17h10.55.564,forced_choiceRT_color,2021.2.3,Win32,60.19744763,,,,,,,,9,Ontime,short,d,1,1.9544,6,1,25,0,1,,,,,
,0.09,,,,,,,,,d,orange,5fbc1367373b9307763985c0,2021-09-27_17h10.55.564,forced_choiceRT_color,2021.2.3,Win32,60.19744763,,,,,,,,9,Ontime,short,d,1,1.9165,6,2,26,0,1,,,,,
,1.95,,,,,,,,,j,red,5fbc1367373b9307763985c0,2021-09-27_17h10.55.564,forced_choiceRT_color,2021.2.3,Win32,60.19744763,,,,,,,,9,Slow,short,d,0,2.1327,6,3,27,2,1,,,,,
,1.48,,,,,,,,,f,blue,5fbc1367373b9307763985c0,2021-09-27_17h10.55.564,forced_choiceRT_color,2021.2.3,Win32,60.19744763,,,,,,,,9,Fast,short,f,1,1.8486,7,0,28,1,1,,,,,
,0.12,,,,,,,,,f,blue,5fbc1367373b9307763985c0,2021-09-27_17h10.55.564,forced_choiceRT_color,2021.2.3,Win32,60.19744763,,,,,,,,9,Ontime,short,f,1,2.0369,7,1,29,1,1,,,,,
,1.05,,,,,,,,,f,blue,5fbc1367373b9307763985c0,2021-09-27_17h10.55.564,forced_choiceRT_color,2021.2.3,Win32,60.19744763,,,,,,,,9,Slow,short,f,1,2.125,7,2,30,1,1,,,,,
,0.18,,,,,,,,,k,purple,5fbc1367373b9307763985c0,2021-09-27_17h10.55.564,forced_choiceRT_color,2021.2.3,Win32,60.19744763,,,,,,,,9,Ontime,short,k,1,1.9694,7,3,31,3,1,,,,,
,0.36,,,,,,,,,k,purple,5fbc1367373b9307763985c0,2021-09-27_17h10.55.564,forced_choiceRT_color,2021.2.3,Win32,60.19744763,,,,,,,,9,Ontime,short,k,1,1.964,8,0,32,3,1,,,,,
,1.66,,,,,,,,,j,red,5fbc1367373b9307763985c0,2021-09-27_17h10.55.564,forced_choiceRT_color,2021.2.3,Win32,60.19744763,,,,,,,,9,Ontime,short,j,1,2.0695,8,1,33,2,1,,,,,
,1.28,,,,,,,,,j,red,5fbc1367373b9307763985c0,2021-09-27_17h10.55.564,forced_choiceRT_color,2021.2.3,Win32,60.19744763,,,,,,,,9,Ontime,short,j,1,1.9673,8,2,34,2,1,,,,,
,1.51,,,,,,,,,j,red,5fbc1367373b9307763985c0,2021-09-27_17h10.55.564,forced_choiceRT_color,2021.2.3,Win32,60.19744763,,,,,,,,9,Ontime,short,j,1,2.0659,8,3,35,2,1,,,,,
,1.34,,,,,,,,,k,purple,5fbc1367373b9307763985c0,2021-09-27_17h10.55.564,forced_choiceRT_color,2021.2.3,Win32,60.19744763,,,,,,,,9,Slow,short,k,1,2.1376,9,0,36,3,1,,,,,
,1.1,,,,,,,,,d,orange,5fbc1367373b9307763985c0,2021-09-27_17h10.55.564,forced_choiceRT_color,2021.2.3,Win32,60.19744763,,,,,,,,9,Fast,short,d,1,1.8909,9,1,37,0,1,,,,,
,0.6,,,,,,,,,k,purple,5fbc1367373b9307763985c0,2021-09-27_17h10.55.564,forced_choiceRT_color,2021.2.3,Win32,60.19744763,,,,,,,,9,Ontime,short,k,1,1.9994,9,2,38,3,1,,,,,
,0.35,,,,,,,,,d,orange,5fbc1367373b9307763985c0,2021-09-27_17h10.55.564,forced_choiceRT_color,2021.2.3,Win32,60.19744763,,,,,,,,9,Fast,short,d,1,1.766,9,3,39,0,1,,,,,
,,,,,,,,,,,,5fbc1367373b9307763985c0,2021-09-27_17h10.55.564,forced_choiceRT_color,2021.2.3,Win32,60.19744763,,,,,,,,,,,,,,,,,,,8,0,8,0,1
,0.9,,,,,,,,,j,red,5fbc1367373b9307763985c0,2021-09-27_17h10.55.564,forced_choiceRT_color,2021.2.3,Win32,60.19744763,,,,,,,,10,Ontime,short,j,1,2.0511,0,0,0,2,1,,,,,
,0.95,,,,,,,,,j,red,5fbc1367373b9307763985c0,2021-09-27_17h10.55.564,forced_choiceRT_color,2021.2.3,Win32,60.19744763,,,,,,,,10,Ontime,short,j,1,2.0494,0,1,1,2,1,,,,,
,1.02,,,,,,,,,j,red,5fbc1367373b9307763985c0,2021-09-27_17h10.55.564,forced_choiceRT_color,2021.2.3,Win32,60.19744763,,,,,,,,10,Ontime,short,j,1,2.0435,0,2,2,2,1,,,,,
,1.4,,,,,,,,,f,blue,5fbc1367373b9307763985c0,2021-09-27_17h10.55.564,forced_choiceRT_color,2021.2.3,Win32,60.19744763,,,,,,,,10,Slow,short,f,1,2.133,0,3,3,1,1,,,,,
,0.05,,,,,,,,,j,red,5fbc1367373b9307763985c0,2021-09-27_17h10.55.564,forced_choiceRT_color,2021.2.3,Win32,60.19744763,,,,,,,,10,Ontime,short,j,1,1.9495,1,0,4,2,1,,,,,
,1.58,,,,,,,,,j,red,5fbc1367373b9307763985c0,2021-09-27_17h10.55.564,forced_choiceRT_color,2021.2.3,Win32,60.19744763,,,,,,,,10,Ontime,short,j,1,1.9828,1,1,5,2,1,,,,,
,1.61,,,,,,,,,d,orange,5fbc1367373b9307763985c0,2021-09-27_17h10.55.564,forced_choiceRT_color,2021.2.3,Win32,60.19744763,,,,,,,,10,Ontime,short,d,1,1.9616,1,2,6,0,1,,,,,
,0.41,,,,,,,,,j,red,5fbc1367373b9307763985c0,2021-09-27_17h10.55.564,forced_choiceRT_color,2021.2.3,Win32,60.19744763,,,,,,,,10,Fast,short,j,1,1.8924,1,3,7,2,1,,,,,
,1.37,,,,,,,,,f,blue,5fbc1367373b9307763985c0,2021-09-27_17h10.55.564,forced_choiceRT_color,2021.2.3,Win32,60.19744763,,,,,,,,10,Ontime,short,f,1,1.9322,2,0,8,1,1,,,,,
,1.69,,,,,,,,,j,red,5fbc1367373b9307763985c0,2021-09-27_17h10.55.564,forced_choiceRT_color,2021.2.3,Win32,60.19744763,,,,,,,,10,Slow,short,j,1,2.1176,2,1,9,2,1,,,,,
,0.13,,,,,,,,,d,orange,5fbc1367373b9307763985c0,2021-09-27_17h10.55.564,forced_choiceRT_color,2021.2.3,Win32,60.19744763,,,,,,,,10,Fast,short,d,1,1.7944,2,2,10,0,1,,,,,
,1.16,,,,,,,,,f,blue,5fbc1367373b9307763985c0,2021-09-27_17h10.55.564,forced_choiceRT_color,2021.2.3,Win32,60.19744763,,,,,,,,10,Fast,short,f,1,1.8499,2,3,11,1,1,,,,,
,0.14,,,,,,,,,d,orange,5fbc1367373b9307763985c0,2021-09-27_17h10.55.564,forced_choiceRT_color,2021.2.3,Win32,60.19744763,,,,,,,,10,Ontime,short,d,1,1.922,3,0,12,0,1,,,,,
,0.52,,,,,,,,,k,purple,5fbc1367373b9307763985c0,2021-09-27_17h10.55.564,forced_choiceRT_color,2021.2.3,Win32,60.19744763,,,,,,,,10,Ontime,short,k,1,1.9585,3,1,13,3,1,,,,,
,0.72,,,,,,,,,k,purple,5fbc1367373b9307763985c0,2021-09-27_17h10.55.564,forced_choiceRT_color,2021.2.3,Win32,60.19744763,,,,,,,,10,Fast,short,k,1,1.8006,3,2,14,3,1,,,,,
,0.73,,,,,,,,,f,blue,5fbc1367373b9307763985c0,2021-09-27_17h10.55.564,forced_choiceRT_color,2021.2.3,Win32,60.19744763,,,,,,,,10,Fast,short,f,1,1.8336,3,3,15,1,1,,,,,
,1.87,,,,,,,,,d,orange,5fbc1367373b9307763985c0,2021-09-27_17h10.55.564,forced_choiceRT_color,2021.2.3,Win32,60.19744763,,,,,,,,10,Slow,short,d,1,2.3521,4,0,16,0,1,,,,,
,0.09,,,,,,,,,j,red,5fbc1367373b9307763985c0,2021-09-27_17h10.55.564,forced_choiceRT_color,2021.2.3,Win32,60.19744763,,,,,,,,10,Slow,short,j,1,2.2495,4,1,17,2,1,,,,,
,0.55,,,,,,,,,d,orange,5fbc1367373b9307763985c0,2021-09-27_17h10.55.564,forced_choiceRT_color,2021.2.3,Win32,60.19744763,,,,,,,,10,Ontime,short,d,1,2.05,4,2,18,0,1,,,,,
,0.25,,,,,,,,,d,orange,5fbc1367373b9307763985c0,2021-09-27_17h10.55.564,forced_choiceRT_color,2021.2.3,Win32,60.19744763,,,,,,,,10,Ontime,short,d,1,2.0537,4,3,19,0,1,,,,,
,1.09,,,,,,,,,d,orange,5fbc1367373b9307763985c0,2021-09-27_17h10.55.564,forced_choiceRT_color,2021.2.3,Win32,60.19744763,,,,,,,,10,Fast,short,d,1,1.8761,5,0,20,0,1,,,,,
,1.03,,,,,,,,,d,orange,5fbc1367373b9307763985c0,2021-09-27_17h10.55.564,forced_choiceRT_color,2021.2.3,Win32,60.19744763,,,,,,,,10,Ontime,short,d,1,2.0504,5,1,21,0,1,,,,,
,1.58,,,,,,,,,f,blue,5fbc1367373b9307763985c0,2021-09-27_17h10.55.564,forced_choiceRT_color,2021.2.3,Win32,60.19744763,,,,,,,,10,Ontime,short,f,1,1.984,5,2,22,1,1,,,,,
,1.88,,,,,,,,,k,purple,5fbc1367373b9307763985c0,2021-09-27_17h10.55.564,forced_choiceRT_color,2021.2.3,Win32,60.19744763,,,,,,,,10,Ontime,short,f,0,2.0927,5,3,23,3,1,,,,,
,0.12,,,,,,,,,f,blue,5fbc1367373b9307763985c0,2021-09-27_17h10.55.564,forced_choiceRT_color,2021.2.3,Win32,60.19744763,,,,,,,,10,Ontime,short,f,1,1.9762,6,0,24,1,1,,,,,
,0.08,,,,,,,,,k,purple,5fbc1367373b9307763985c0,2021-09-27_17h10.55.564,forced_choiceRT_color,2021.2.3,Win32,60.19744763,,,,,,,,10,Fast,short,k,1,1.85,6,1,25,3,1,,,,,
,1.28,,,,,,,,,d,orange,5fbc1367373b9307763985c0,2021-09-27_17h10.55.564,forced_choiceRT_color,2021.2.3,Win32,60.19744763,,,,,,,,10,Ontime,short,d,1,1.9335,6,2,26,0,1,,,,,
,1.41,,,,,,,,,k,purple,5fbc1367373b9307763985c0,2021-09-27_17h10.55.564,forced_choiceRT_color,2021.2.3,Win32,60.19744763,,,,,,,,10,Ontime,short,k,1,2.0499,6,3,27,3,1,,,,,
,0.68,,,,,,,,,k,purple,5fbc1367373b9307763985c0,2021-09-27_17h10.55.564,forced_choiceRT_color,2021.2.3,Win32,60.19744763,,,,,,,,10,Ontime,short,k,1,2.0199,7,0,28,3,1,,,,,
,0.1,,,,,,,,,k,purple,5fbc1367373b9307763985c0,2021-09-27_17h10.55.564,forced_choiceRT_color,2021.2.3,Win32,60.19744763,,,,,,,,10,Fast,short,k,1,1.8748,7,1,29,3,1,,,,,
,1.16,,,,,,,,,j,red,5fbc1367373b9307763985c0,2021-09-27_17h10.55.564,forced_choiceRT_color,2021.2.3,Win32,60.19744763,,,,,,,,10,Fast,short,j,1,1.7997,7,2,30,2,1,,,,,
,1.81,,,,,,,,,f,blue,5fbc1367373b9307763985c0,2021-09-27_17h10.55.564,forced_choiceRT_color,2021.2.3,Win32,60.19744763,,,,,,,,10,Slow,short,j,0,2.2663,7,3,31,1,1,,,,,
,0.32,,,,,,,,,f,blue,5fbc1367373b9307763985c0,2021-09-27_17h10.55.564,forced_choiceRT_color,2021.2.3,Win32,60.19744763,,,,,,,,10,Ontime,short,f,1,2.073,8,0,32,1,1,,,,,
,0.14,,,,,,,,,j,red,5fbc1367373b9307763985c0,2021-09-27_17h10.55.564,forced_choiceRT_color,2021.2.3,Win32,60.19744763,,,,,,,,10,Ontime,short,j,1,2.0496,8,1,33,2,1,,,,,
,1.45,,,,,,,,,k,purple,5fbc1367373b9307763985c0,2021-09-27_17h10.55.564,forced_choiceRT_color,2021.2.3,Win32,60.19744763,,,,,,,,10,Slow,short,k,1,2.1172,8,2,34,3,1,,,,,
,1.84,,,,,,,,,f,blue,5fbc1367373b9307763985c0,2021-09-27_17h10.55.564,forced_choiceRT_color,2021.2.3,Win32,60.19744763,,,,,,,,10,Slow,short,f,1,2.317,8,3,35,1,1,,,,,
,0.71,,,,,,,,,f,blue,5fbc1367373b9307763985c0,2021-09-27_17h10.55.564,forced_choiceRT_color,2021.2.3,Win32,60.19744763,,,,,,,,10,Ontime,short,f,1,1.9433,9,0,36,1,1,,,,,
,0.11,,,,,,,,,k,purple,5fbc1367373b9307763985c0,2021-09-27_17h10.55.564,forced_choiceRT_color,2021.2.3,Win32,60.19744763,,,,,,,,10,Ontime,short,k,1,1.9333,9,1,37,3,1,,,,,
,1.65,,,,,,,,,k,purple,5fbc1367373b9307763985c0,2021-09-27_17h10.55.564,forced_choiceRT_color,2021.2.3,Win32,60.19744763,,,,,,,,10,Ontime,short,k,1,2.0497,9,2,38,3,1,,,,,
,1.88,,,,,,,,,d,orange,5fbc1367373b9307763985c0,2021-09-27_17h10.55.564,forced_choiceRT_color,2021.2.3,Win32,60.19744763,,,,,,,,10,Slow,short,j,0,2.1335,9,3,39,0,1,,,,,
,,,,,,,,,,,,5fbc1367373b9307763985c0,2021-09-27_17h10.55.564,forced_choiceRT_color,2021.2.3,Win32,60.19744763,,,,,,,,,,,,,,,,,,,9,0,9,0,1
