target_onset,trial_resp_sp.keys,trial_resp_sp.corr,trial_resp_sp.rt,trials_train_loop.thisRepN,trials_train_loop.thisTrialN,trials_train_loop.thisN,trials_train_loop.thisIndex,trials_train_loop.ran,correct_key,color,participant,date,expName,psychopyVersion,OS,frameRate,trial_resp_timing.keys,trial_resp_timing.rt,trials_train_timing.thisRepN,trials_train_timing.thisTrialN,trials_train_timing.thisN,trials_train_timing.thisIndex,trials_train_timing.ran,block_id,ontime,feedback_cond,forcedRT_resp.keys,forcedRT_resp.corr,forcedRT_resp.rt,trials.thisRepN,trials.thisTrialN,trials.thisN,trials.thisIndex,trials.ran,blocks.thisRepN,blocks.thisTrialN,blocks.thisN,blocks.thisIndex,blocks.ran
0,f,1,1.62,0,0,0,1,1,f,blue,6011d8bbd7b6f71a622e06d2,2021-11-01_09h20.42.543,forced_choiceRT_color,2021.2.3,Win32,60.0060006,,,,,,,,,,,,,,,,,,,,,,,
0,d,1,0.885,0,1,1,0,1,d,orange,6011d8bbd7b6f71a622e06d2,2021-11-01_09h20.42.543,forced_choiceRT_color,2021.2.3,Win32,60.0060006,,,,,,,,,,,,,,,,,,,,,,,
0,j,1,0.7111,0,2,2,2,1,j,red,6011d8bbd7b6f71a622e06d2,2021-11-01_09h20.42.543,forced_choiceRT_color,2021.2.3,Win32,60.0060006,,,,,,,,,,,,,,,,,,,,,,,
0,k,1,0.4684,0,3,3,3,1,k,purple,6011d8bbd7b6f71a622e06d2,2021-11-01_09h20.42.543,forced_choiceRT_color,2021.2.3,Win32,60.0060006,,,,,,,,,,,,,,,,,,,,,,,
0,k,1,0.6363,1,0,4,3,1,k,purple,6011d8bbd7b6f71a622e06d2,2021-11-01_09h20.42.543,forced_choiceRT_color,2021.2.3,Win32,60.0060006,,,,,,,,,,,,,,,,,,,,,,,
0,f,1,0.8318,1,1,5,1,1,f,blue,6011d8bbd7b6f71a622e06d2,2021-11-01_09h20.42.543,forced_choiceRT_color,2021.2.3,Win32,60.0060006,,,,,,,,,,,,,,,,,,,,,,,
0,d,1,0.473,1,2,6,0,1,d,orange,6011d8bbd7b6f71a622e06d2,2021-11-01_09h20.42.543,forced_choiceRT_color,2021.2.3,Win32,60.0060006,,,,,,,,,,,,,,,,,,,,,,,
0,f,1,0.7063,1,3,7,1,1,f,blue,6011d8bbd7b6f71a622e06d2,2021-11-01_09h20.42.543,forced_choiceRT_color,2021.2.3,Win32,60.0060006,,,,,,,,,,,,,,,,,,,,,,,
0,k,1,0.6887,2,0,8,3,1,k,purple,6011d8bbd7b6f71a622e06d2,2021-11-01_09h20.42.543,forced_choiceRT_color,2021.2.3,Win32,60.0060006,,,,,,,,,,,,,,,,,,,,,,,
0,d,1,0.7665,2,1,9,0,1,d,orange,6011d8bbd7b6f71a622e06d2,2021-11-01_09h20.42.543,forced_choiceRT_color,2021.2.3,Win32,60.0060006,,,,,,,,,,,,,,,,,,,,,,,
0,k,1,0.6316,2,2,10,3,1,k,purple,6011d8bbd7b6f71a622e06d2,2021-11-01_09h20.42.543,forced_choiceRT_color,2021.2.3,Win32,60.0060006,,,,,,,,,,,,,,,,,,,,,,,
0,d,1,0.7451,2,3,11,0,1,d,orange,6011d8bbd7b6f71a622e06d2,2021-11-01_09h20.42.543,forced_choiceRT_color,2021.2.3,Win32,60.0060006,,,,,,,,,,,,,,,,,,,,,,,
0,j,1,0.653,3,0,12,2,1,j,red,6011d8bbd7b6f71a622e06d2,2021-11-01_09h20.42.543,forced_choiceRT_color,2021.2.3,Win32,60.0060006,,,,,,,,,,,,,,,,,,,,,,,
0,k,1,0.6147,3,1,13,3,1,k,purple,6011d8bbd7b6f71a622e06d2,2021-11-01_09h20.42.543,forced_choiceRT_color,2021.2.3,Win32,60.0060006,,,,,,,,,,,,,,,,,,,,,,,
0,j,1,0.6973,3,2,14,2,1,j,red,6011d8bbd7b6f71a622e06d2,2021-11-01_09h20.42.543,forced_choiceRT_color,2021.2.3,Win32,60.0060006,,,,,,,,,,,,,,,,,,,,,,,
0,j,1,0.5457,3,3,15,2,1,j,red,6011d8bbd7b6f71a622e06d2,2021-11-01_09h20.42.543,forced_choiceRT_color,2021.2.3,Win32,60.0060006,,,,,,,,,,,,,,,,,,,,,,,
0,d,1,0.6554,4,0,16,0,1,d,orange,6011d8bbd7b6f71a622e06d2,2021-11-01_09h20.42.543,forced_choiceRT_color,2021.2.3,Win32,60.0060006,,,,,,,,,,,,,,,,,,,,,,,
0,f,1,0.6163,4,1,17,1,1,f,blue,6011d8bbd7b6f71a622e06d2,2021-11-01_09h20.42.543,forced_choiceRT_color,2021.2.3,Win32,60.0060006,,,,,,,,,,,,,,,,,,,,,,,
0,f,1,0.6132,4,2,18,1,1,f,blue,6011d8bbd7b6f71a622e06d2,2021-11-01_09h20.42.543,forced_choiceRT_color,2021.2.3,Win32,60.0060006,,,,,,,,,,,,,,,,,,,,,,,
0,j,1,0.7324,4,3,19,2,1,j,red,6011d8bbd7b6f71a622e06d2,2021-11-01_09h20.42.543,forced_choiceRT_color,2021.2.3,Win32,60.0060006,,,,,,,,,,,,,,,,,,,,,,,
0,f,1,0.8122,5,0,20,1,1,f,blue,6011d8bbd7b6f71a622e06d2,2021-11-01_09h20.42.543,forced_choiceRT_color,2021.2.3,Win32,60.0060006,,,,,,,,,,,,,,,,,,,,,,,
0,j,1,0.7335,5,1,21,2,1,j,red,6011d8bbd7b6f71a622e06d2,2021-11-01_09h20.42.543,forced_choiceRT_color,2021.2.3,Win32,60.0060006,,,,,,,,,,,,,,,,,,,,,,,
0,j,1,0.5981,5,2,22,2,1,j,red,6011d8bbd7b6f71a622e06d2,2021-11-01_09h20.42.543,forced_choiceRT_color,2021.2.3,Win32,60.0060006,,,,,,,,,,,,,,,,,,,,,,,
0,j,1,0.567,5,3,23,2,1,j,red,6011d8bbd7b6f71a622e06d2,2021-11-01_09h20.42.543,forced_choiceRT_color,2021.2.3,Win32,60.0060006,,,,,,,,,,,,,,,,,,,,,,,
0,d,1,0.6616,6,0,24,0,1,d,orange,6011d8bbd7b6f71a622e06d2,2021-11-01_09h20.42.543,forced_choiceRT_color,2021.2.3,Win32,60.0060006,,,,,,,,,,,,,,,,,,,,,,,
0,k,1,0.605,6,1,25,3,1,k,purple,6011d8bbd7b6f71a622e06d2,2021-11-01_09h20.42.543,forced_choiceRT_color,2021.2.3,Win32,60.0060006,,,,,,,,,,,,,,,,,,,,,,,
0,k,1,0.4654,6,2,26,3,1,k,purple,6011d8bbd7b6f71a622e06d2,2021-11-01_09h20.42.543,forced_choiceRT_color,2021.2.3,Win32,60.0060006,,,,,,,,,,,,,,,,,,,,,,,
0,f,1,1.0029,6,3,27,1,1,f,blue,6011d8bbd7b6f71a622e06d2,2021-11-01_09h20.42.543,forced_choiceRT_color,2021.2.3,Win32,60.0060006,,,,,,,,,,,,,,,,,,,,,,,
0,k,1,0.6532,7,0,28,3,1,k,purple,6011d8bbd7b6f71a622e06d2,2021-11-01_09h20.42.543,forced_choiceRT_color,2021.2.3,Win32,60.0060006,,,,,,,,,,,,,,,,,,,,,,,
0,d,1,0.6323,7,1,29,0,1,d,orange,6011d8bbd7b6f71a622e06d2,2021-11-01_09h20.42.543,forced_choiceRT_color,2021.2.3,Win32,60.0060006,,,,,,,,,,,,,,,,,,,,,,,
0,d,1,0.5874,7,2,30,0,1,d,orange,6011d8bbd7b6f71a622e06d2,2021-11-01_09h20.42.543,forced_choiceRT_color,2021.2.3,Win32,60.0060006,,,,,,,,,,,,,,,,,,,,,,,
0,d,1,0.6678,7,3,31,0,1,d,orange,6011d8bbd7b6f71a622e06d2,2021-11-01_09h20.42.543,forced_choiceRT_color,2021.2.3,Win32,60.0060006,,,,,,,,,,,,,,,,,,,,,,,
0,f,1,0.5662,8,0,32,1,1,f,blue,6011d8bbd7b6f71a622e06d2,2021-11-01_09h20.42.543,forced_choiceRT_color,2021.2.3,Win32,60.0060006,,,,,,,,,,,,,,,,,,,,,,,
0,f,1,0.5054,8,1,33,1,1,f,blue,6011d8bbd7b6f71a622e06d2,2021-11-01_09h20.42.543,forced_choiceRT_color,2021.2.3,Win32,60.0060006,,,,,,,,,,,,,,,,,,,,,,,
0,j,1,0.6519,8,2,34,2,1,j,red,6011d8bbd7b6f71a622e06d2,2021-11-01_09h20.42.543,forced_choiceRT_color,2021.2.3,Win32,60.0060006,,,,,,,,,,,,,,,,,,,,,,,
0,d,1,0.6974,8,3,35,0,1,d,orange,6011d8bbd7b6f71a622e06d2,2021-11-01_09h20.42.543,forced_choiceRT_color,2021.2.3,Win32,60.0060006,,,,,,,,,,,,,,,,,,,,,,,
0,d,1,0.5302,9,0,36,0,1,d,orange,6011d8bbd7b6f71a622e06d2,2021-11-01_09h20.42.543,forced_choiceRT_color,2021.2.3,Win32,60.0060006,,,,,,,,,,,,,,,,,,,,,,,
0,d,1,0.518,9,1,37,0,1,d,orange,6011d8bbd7b6f71a622e06d2,2021-11-01_09h20.42.543,forced_choiceRT_color,2021.2.3,Win32,60.0060006,,,,,,,,,,,,,,,,,,,,,,,
0,f,1,0.6682,9,2,38,1,1,f,blue,6011d8bbd7b6f71a622e06d2,2021-11-01_09h20.42.543,forced_choiceRT_color,2021.2.3,Win32,60.0060006,,,,,,,,,,,,,,,,,,,,,,,
0,k,1,0.6321,9,3,39,3,1,k,purple,6011d8bbd7b6f71a622e06d2,2021-11-01_09h20.42.543,forced_choiceRT_color,2021.2.3,Win32,60.0060006,,,,,,,,,,,,,,,,,,,,,,,
0,k,1,0.5332,10,0,40,3,1,k,purple,6011d8bbd7b6f71a622e06d2,2021-11-01_09h20.42.543,forced_choiceRT_color,2021.2.3,Win32,60.0060006,,,,,,,,,,,,,,,,,,,,,,,
0,f,1,0.75,10,1,41,1,1,f,blue,6011d8bbd7b6f71a622e06d2,2021-11-01_09h20.42.543,forced_choiceRT_color,2021.2.3,Win32,60.0060006,,,,,,,,,,,,,,,,,,,,,,,
0,d,0,0.5794,10,2,42,2,1,j,red,6011d8bbd7b6f71a622e06d2,2021-11-01_09h20.42.543,forced_choiceRT_color,2021.2.3,Win32,60.0060006,,,,,,,,,,,,,,,,,,,,,,,
0,j,1,0.6708,10,3,43,2,1,j,red,6011d8bbd7b6f71a622e06d2,2021-11-01_09h20.42.543,forced_choiceRT_color,2021.2.3,Win32,60.0060006,,,,,,,,,,,,,,,,,,,,,,,
0,k,1,0.9146,11,0,44,3,1,k,purple,6011d8bbd7b6f71a622e06d2,2021-11-01_09h20.42.543,forced_choiceRT_color,2021.2.3,Win32,60.0060006,,,,,,,,,,,,,,,,,,,,,,,
0,k,1,0.8319,11,1,45,3,1,k,purple,6011d8bbd7b6f71a622e06d2,2021-11-01_09h20.42.543,forced_choiceRT_color,2021.2.3,Win32,60.0060006,,,,,,,,,,,,,,,,,,,,,,,
0,f,1,1.4007,11,2,46,1,1,f,blue,6011d8bbd7b6f71a622e06d2,2021-11-01_09h20.42.543,forced_choiceRT_color,2021.2.3,Win32,60.0060006,,,,,,,,,,,,,,,,,,,,,,,
0,f,1,0.4956,11,3,47,1,1,f,blue,6011d8bbd7b6f71a622e06d2,2021-11-01_09h20.42.543,forced_choiceRT_color,2021.2.3,Win32,60.0060006,,,,,,,,,,,,,,,,,,,,,,,
0,j,1,0.7902,12,0,48,2,1,j,red,6011d8bbd7b6f71a622e06d2,2021-11-01_09h20.42.543,forced_choiceRT_color,2021.2.3,Win32,60.0060006,,,,,,,,,,,,,,,,,,,,,,,
0,d,1,1.4861,12,1,49,0,1,d,orange,6011d8bbd7b6f71a622e06d2,2021-11-01_09h20.42.543,forced_choiceRT_color,2021.2.3,Win32,60.0060006,,,,,,,,,,,,,,,,,,,,,,,
0,k,1,0.6988,12,2,50,3,1,k,purple,6011d8bbd7b6f71a622e06d2,2021-11-01_09h20.42.543,forced_choiceRT_color,2021.2.3,Win32,60.0060006,,,,,,,,,,,,,,,,,,,,,,,
0,j,1,2.2087,12,3,51,2,1,j,red,6011d8bbd7b6f71a622e06d2,2021-11-01_09h20.42.543,forced_choiceRT_color,2021.2.3,Win32,60.0060006,,,,,,,,,,,,,,,,,,,,,,,
0,f,1,1.482,13,0,52,1,1,f,blue,6011d8bbd7b6f71a622e06d2,2021-11-01_09h20.42.543,forced_choiceRT_color,2021.2.3,Win32,60.0060006,,,,,,,,,,,,,,,,,,,,,,,
0,d,1,0.6288,13,1,53,0,1,d,orange,6011d8bbd7b6f71a622e06d2,2021-11-01_09h20.42.543,forced_choiceRT_color,2021.2.3,Win32,60.0060006,,,,,,,,,,,,,,,,,,,,,,,
0,k,1,0.699,13,2,54,3,1,k,purple,6011d8bbd7b6f71a622e06d2,2021-11-01_09h20.42.543,forced_choiceRT_color,2021.2.3,Win32,60.0060006,,,,,,,,,,,,,,,,,,,,,,,
0,d,1,0.7879,13,3,55,0,1,d,orange,6011d8bbd7b6f71a622e06d2,2021-11-01_09h20.42.543,forced_choiceRT_color,2021.2.3,Win32,60.0060006,,,,,,,,,,,,,,,,,,,,,,,
0,j,1,0.7501,14,0,56,2,1,j,red,6011d8bbd7b6f71a622e06d2,2021-11-01_09h20.42.543,forced_choiceRT_color,2021.2.3,Win32,60.0060006,,,,,,,,,,,,,,,,,,,,,,,
0,f,1,0.5659,14,1,57,1,1,f,blue,6011d8bbd7b6f71a622e06d2,2021-11-01_09h20.42.543,forced_choiceRT_color,2021.2.3,Win32,60.0060006,,,,,,,,,,,,,,,,,,,,,,,
0,k,1,0.5929,14,2,58,3,1,k,purple,6011d8bbd7b6f71a622e06d2,2021-11-01_09h20.42.543,forced_choiceRT_color,2021.2.3,Win32,60.0060006,,,,,,,,,,,,,,,,,,,,,,,
0,j,1,0.7486,14,3,59,2,1,j,red,6011d8bbd7b6f71a622e06d2,2021-11-01_09h20.42.543,forced_choiceRT_color,2021.2.3,Win32,60.0060006,,,,,,,,,,,,,,,,,,,,,,,
,,,,,,,,,,,6011d8bbd7b6f71a622e06d2,2021-11-01_09h20.42.543,forced_choiceRT_color,2021.2.3,Win32,60.0060006,d,14.9507,0,0,0,0,1,,,,,,,,,,,,,,,,
,,,,,,,,,,,6011d8bbd7b6f71a622e06d2,2021-11-01_09h20.42.543,forced_choiceRT_color,2021.2.3,Win32,60.0060006,d,0.9985,1,0,1,0,1,,,,,,,,,,,,,,,,
,,,,,,,,,,,6011d8bbd7b6f71a622e06d2,2021-11-01_09h20.42.543,forced_choiceRT_color,2021.2.3,Win32,60.0060006,d,0.9324,2,0,2,0,1,,,,,,,,,,,,,,,,
,,,,,,,,,,,6011d8bbd7b6f71a622e06d2,2021-11-01_09h20.42.543,forced_choiceRT_color,2021.2.3,Win32,60.0060006,d,2.378,3,0,3,0,1,,,,,,,,,,,,,,,,
,,,,,,,,,,,6011d8bbd7b6f71a622e06d2,2021-11-01_09h20.42.543,forced_choiceRT_color,2021.2.3,Win32,60.0060006,d,0.9321,4,0,4,0,1,,,,,,,,,,,,,,,,
,,,,,,,,,,,6011d8bbd7b6f71a622e06d2,2021-11-01_09h20.42.543,forced_choiceRT_color,2021.2.3,Win32,60.0060006,d,0.9012,5,0,5,0,1,,,,,,,,,,,,,,,,
,,,,,,,,,,,6011d8bbd7b6f71a622e06d2,2021-11-01_09h20.42.543,forced_choiceRT_color,2021.2.3,Win32,60.0060006,d,1.0667,6,0,6,0,1,,,,,,,,,,,,,,,,
,,,,,,,,,,,6011d8bbd7b6f71a622e06d2,2021-11-01_09h20.42.543,forced_choiceRT_color,2021.2.3,Win32,60.0060006,d,1.3499,7,0,7,0,1,,,,,,,,,,,,,,,,
,,,,,,,,,,,6011d8bbd7b6f71a622e06d2,2021-11-01_09h20.42.543,forced_choiceRT_color,2021.2.3,Win32,60.0060006,d,2.2362,8,0,8,0,1,,,,,,,,,,,,,,,,
,,,,,,,,,,,6011d8bbd7b6f71a622e06d2,2021-11-01_09h20.42.543,forced_choiceRT_color,2021.2.3,Win32,60.0060006,d,2.2605,9,0,9,0,1,,,,,,,,,,,,,,,,
,,,,,,,,,,,6011d8bbd7b6f71a622e06d2,2021-11-01_09h20.42.543,forced_choiceRT_color,2021.2.3,Win32,60.0060006,d,1.8531,10,0,10,0,1,,,,,,,,,,,,,,,,
,,,,,,,,,,,6011d8bbd7b6f71a622e06d2,2021-11-01_09h20.42.543,forced_choiceRT_color,2021.2.3,Win32,60.0060006,d,2.2537,11,0,11,0,1,,,,,,,,,,,,,,,,
,,,,,,,,,,,6011d8bbd7b6f71a622e06d2,2021-11-01_09h20.42.543,forced_choiceRT_color,2021.2.3,Win32,60.0060006,d,2.2589,12,0,12,0,1,,,,,,,,,,,,,,,,
,,,,,,,,,,,6011d8bbd7b6f71a622e06d2,2021-11-01_09h20.42.543,forced_choiceRT_color,2021.2.3,Win32,60.0060006,d,2.268,13,0,13,0,1,,,,,,,,,,,,,,,,
,,,,,,,,,,,6011d8bbd7b6f71a622e06d2,2021-11-01_09h20.42.543,forced_choiceRT_color,2021.2.3,Win32,60.0060006,k,2.3472,14,0,14,0,1,,,,,,,,,,,,,,,,
,,,,,,,,,,,6011d8bbd7b6f71a622e06d2,2021-11-01_09h20.42.543,forced_choiceRT_color,2021.2.3,Win32,60.0060006,k,1.8372,15,0,15,0,1,,,,,,,,,,,,,,,,
,,,,,,,,,,,6011d8bbd7b6f71a622e06d2,2021-11-01_09h20.42.543,forced_choiceRT_color,2021.2.3,Win32,60.0060006,d,2.2076,16,0,16,0,1,,,,,,,,,,,,,,,,
,,,,,,,,,,,6011d8bbd7b6f71a622e06d2,2021-11-01_09h20.42.543,forced_choiceRT_color,2021.2.3,Win32,60.0060006,d,0.7791,17,0,17,0,1,,,,,,,,,,,,,,,,
,,,,,,,,,,,6011d8bbd7b6f71a622e06d2,2021-11-01_09h20.42.543,forced_choiceRT_color,2021.2.3,Win32,60.0060006,d,0.6976,18,0,18,0,1,,,,,,,,,,,,,,,,
,,,,,,,,,,,6011d8bbd7b6f71a622e06d2,2021-11-01_09h20.42.543,forced_choiceRT_color,2021.2.3,Win32,60.0060006,d,0.773,19,0,19,0,1,,,,,,,,,,,,,,,,
1.09,,,,,,,,,j,red,6011d8bbd7b6f71a622e06d2,2021-11-01_09h20.42.543,forced_choiceRT_color,2021.2.3,Win32,60.0060006,,,,,,,,1,Slow,long,f,0,2.4017,0,0,0,2,1,,,,,
1.75,,,,,,,,,k,purple,6011d8bbd7b6f71a622e06d2,2021-11-01_09h20.42.543,forced_choiceRT_color,2021.2.3,Win32,60.0060006,,,,,,,,1,Slow,long,k,1,2.2189,0,1,1,3,1,,,,,
0.63,,,,,,,,,d,orange,6011d8bbd7b6f71a622e06d2,2021-11-01_09h20.42.543,forced_choiceRT_color,2021.2.3,Win32,60.0060006,,,,,,,,1,Slow,long,d,1,2.1505,0,2,2,0,1,,,,,
1.45,,,,,,,,,k,purple,6011d8bbd7b6f71a622e06d2,2021-11-01_09h20.42.543,forced_choiceRT_color,2021.2.3,Win32,60.0060006,,,,,,,,1,Ontime,long,k,1,2.0927,0,3,3,3,1,,,,,
1.36,,,,,,,,,f,blue,6011d8bbd7b6f71a622e06d2,2021-11-01_09h20.42.543,forced_choiceRT_color,2021.2.3,Win32,60.0060006,,,,,,,,1,Ontime,long,f,1,2.0635,1,0,4,1,1,,,,,
0.01,,,,,,,,,d,orange,6011d8bbd7b6f71a622e06d2,2021-11-01_09h20.42.543,forced_choiceRT_color,2021.2.3,Win32,60.0060006,,,,,,,,1,Slow,long,d,1,2.1138,1,1,5,0,1,,,,,
0.58,,,,,,,,,d,orange,6011d8bbd7b6f71a622e06d2,2021-11-01_09h20.42.543,forced_choiceRT_color,2021.2.3,Win32,60.0060006,,,,,,,,1,Ontime,long,d,1,2.0592,1,2,6,0,1,,,,,
0.76,,,,,,,,,f,blue,6011d8bbd7b6f71a622e06d2,2021-11-01_09h20.42.543,forced_choiceRT_color,2021.2.3,Win32,60.0060006,,,,,,,,1,Ontime,long,f,1,2.0942,1,3,7,1,1,,,,,
0.38,,,,,,,,,f,blue,6011d8bbd7b6f71a622e06d2,2021-11-01_09h20.42.543,forced_choiceRT_color,2021.2.3,Win32,60.0060006,,,,,,,,1,Ontime,long,f,1,2.0669,2,0,8,1,1,,,,,
1,,,,,,,,,k,purple,6011d8bbd7b6f71a622e06d2,2021-11-01_09h20.42.543,forced_choiceRT_color,2021.2.3,Win32,60.0060006,,,,,,,,1,Slow,long,j,0,2.1353,2,1,9,3,1,,,,,
1.92,,,,,,,,,d,orange,6011d8bbd7b6f71a622e06d2,2021-11-01_09h20.42.543,forced_choiceRT_color,2021.2.3,Win32,60.0060006,,,,,,,,1,Slow,long,f,0,2.3098,2,2,10,0,1,,,,,
1.39,,,,,,,,,f,blue,6011d8bbd7b6f71a622e06d2,2021-11-01_09h20.42.543,forced_choiceRT_color,2021.2.3,Win32,60.0060006,,,,,,,,1,Slow,long,f,1,2.1809,2,3,11,1,1,,,,,
1.43,,,,,,,,,k,purple,6011d8bbd7b6f71a622e06d2,2021-11-01_09h20.42.543,forced_choiceRT_color,2021.2.3,Win32,60.0060006,,,,,,,,1,Slow,long,k,1,2.1627,3,0,12,3,1,,,,,
0.89,,,,,,,,,d,orange,6011d8bbd7b6f71a622e06d2,2021-11-01_09h20.42.543,forced_choiceRT_color,2021.2.3,Win32,60.0060006,,,,,,,,1,Ontime,long,d,1,1.9968,3,1,13,0,1,,,,,
1.4,,,,,,,,,f,blue,6011d8bbd7b6f71a622e06d2,2021-11-01_09h20.42.543,forced_choiceRT_color,2021.2.3,Win32,60.0060006,,,,,,,,1,Slow,long,j,0,2.1562,3,2,14,1,1,,,,,
0.69,,,,,,,,,j,red,6011d8bbd7b6f71a622e06d2,2021-11-01_09h20.42.543,forced_choiceRT_color,2021.2.3,Win32,60.0060006,,,,,,,,1,Ontime,long,j,1,2.0958,3,3,15,2,1,,,,,
1.13,,,,,,,,,d,orange,6011d8bbd7b6f71a622e06d2,2021-11-01_09h20.42.543,forced_choiceRT_color,2021.2.3,Win32,60.0060006,,,,,,,,1,Ontime,long,d,1,2.0508,4,0,16,0,1,,,,,
1.93,,,,,,,,,k,purple,6011d8bbd7b6f71a622e06d2,2021-11-01_09h20.42.543,forced_choiceRT_color,2021.2.3,Win32,60.0060006,,,,,,,,1,Slow,long,f,0,2.2254,4,1,17,3,1,,,,,
1.44,,,,,,,,,f,blue,6011d8bbd7b6f71a622e06d2,2021-11-01_09h20.42.543,forced_choiceRT_color,2021.2.3,Win32,60.0060006,,,,,,,,1,Slow,long,f,1,2.1864,4,2,18,1,1,,,,,
1.61,,,,,,,,,f,blue,6011d8bbd7b6f71a622e06d2,2021-11-01_09h20.42.543,forced_choiceRT_color,2021.2.3,Win32,60.0060006,,,,,,,,1,Slow,long,f,1,2.1984,4,3,19,1,1,,,,,
1.58,,,,,,,,,k,purple,6011d8bbd7b6f71a622e06d2,2021-11-01_09h20.42.543,forced_choiceRT_color,2021.2.3,Win32,60.0060006,,,,,,,,1,Ontime,long,k,1,2.0266,5,0,20,3,1,,,,,
0.1,,,,,,,,,d,orange,6011d8bbd7b6f71a622e06d2,2021-11-01_09h20.42.543,forced_choiceRT_color,2021.2.3,Win32,60.0060006,,,,,,,,1,Ontime,long,d,1,2.0771,5,1,21,0,1,,,,,
1.46,,,,,,,,,f,blue,6011d8bbd7b6f71a622e06d2,2021-11-01_09h20.42.543,forced_choiceRT_color,2021.2.3,Win32,60.0060006,,,,,,,,1,Slow,long,f,1,2.13,5,2,22,1,1,,,,,
1.34,,,,,,,,,k,purple,6011d8bbd7b6f71a622e06d2,2021-11-01_09h20.42.543,forced_choiceRT_color,2021.2.3,Win32,60.0060006,,,,,,,,1,Slow,long,k,1,2.1069,5,3,23,3,1,,,,,
0.09,,,,,,,,,f,blue,6011d8bbd7b6f71a622e06d2,2021-11-01_09h20.42.543,forced_choiceRT_color,2021.2.3,Win32,60.0060006,,,,,,,,1,Ontime,long,f,1,2.0283,6,0,24,1,1,,,,,
1.09,,,,,,,,,k,purple,6011d8bbd7b6f71a622e06d2,2021-11-01_09h20.42.543,forced_choiceRT_color,2021.2.3,Win32,60.0060006,,,,,,,,1,Ontime,long,k,1,2.0649,6,1,25,3,1,,,,,
0.73,,,,,,,,,d,orange,6011d8bbd7b6f71a622e06d2,2021-11-01_09h20.42.543,forced_choiceRT_color,2021.2.3,Win32,60.0060006,,,,,,,,1,Ontime,long,d,1,2.0288,6,2,26,0,1,,,,,
1.95,,,,,,,,,j,red,6011d8bbd7b6f71a622e06d2,2021-11-01_09h20.42.543,forced_choiceRT_color,2021.2.3,Win32,60.0060006,,,,,,,,1,Slow,long,j,1,2.2563,6,3,27,2,1,,,,,
0.91,,,,,,,,,k,purple,6011d8bbd7b6f71a622e06d2,2021-11-01_09h20.42.543,forced_choiceRT_color,2021.2.3,Win32,60.0060006,,,,,,,,1,Ontime,long,k,1,2.013,7,0,28,3,1,,,,,
0.66,,,,,,,,,j,red,6011d8bbd7b6f71a622e06d2,2021-11-01_09h20.42.543,forced_choiceRT_color,2021.2.3,Win32,60.0060006,,,,,,,,1,Ontime,long,j,1,2.0585,7,1,29,2,1,,,,,
1.93,,,,,,,,,d,orange,6011d8bbd7b6f71a622e06d2,2021-11-01_09h20.42.543,forced_choiceRT_color,2021.2.3,Win32,60.0060006,,,,,,,,1,Slow,long,d,1,2.3159,7,2,30,0,1,,,,,
1.16,,,,,,,,,j,red,6011d8bbd7b6f71a622e06d2,2021-11-01_09h20.42.543,forced_choiceRT_color,2021.2.3,Win32,60.0060006,,,,,,,,1,Ontime,long,j,1,2.0689,7,3,31,2,1,,,,,
1.5,,,,,,,,,d,orange,6011d8bbd7b6f71a622e06d2,2021-11-01_09h20.42.543,forced_choiceRT_color,2021.2.3,Win32,60.0060006,,,,,,,,1,Ontime,long,d,1,2.0035,8,0,32,0,1,,,,,
1.35,,,,,,,,,j,red,6011d8bbd7b6f71a622e06d2,2021-11-01_09h20.42.543,forced_choiceRT_color,2021.2.3,Win32,60.0060006,,,,,,,,1,Ontime,long,j,1,2.0472,8,1,33,2,1,,,,,
1.97,,,,,,,,,j,red,6011d8bbd7b6f71a622e06d2,2021-11-01_09h20.42.543,forced_choiceRT_color,2021.2.3,Win32,60.0060006,,,,,,,,1,Slow,long,d,0,2.3402,8,2,34,2,1,,,,,
0.56,,,,,,,,,j,red,6011d8bbd7b6f71a622e06d2,2021-11-01_09h20.42.543,forced_choiceRT_color,2021.2.3,Win32,60.0060006,,,,,,,,1,Ontime,long,j,1,2.0438,8,3,35,2,1,,,,,
1.9,,,,,,,,,j,red,6011d8bbd7b6f71a622e06d2,2021-11-01_09h20.42.543,forced_choiceRT_color,2021.2.3,Win32,60.0060006,,,,,,,,1,Slow,long,j,1,2.2478,9,0,36,2,1,,,,,
0.95,,,,,,,,,k,purple,6011d8bbd7b6f71a622e06d2,2021-11-01_09h20.42.543,forced_choiceRT_color,2021.2.3,Win32,60.0060006,,,,,,,,1,Ontime,long,k,1,1.9144,9,1,37,3,1,,,,,
1.53,,,,,,,,,j,red,6011d8bbd7b6f71a622e06d2,2021-11-01_09h20.42.543,forced_choiceRT_color,2021.2.3,Win32,60.0060006,,,,,,,,1,Slow,long,j,1,2.1162,9,2,38,2,1,,,,,
0.7,,,,,,,,,f,blue,6011d8bbd7b6f71a622e06d2,2021-11-01_09h20.42.543,forced_choiceRT_color,2021.2.3,Win32,60.0060006,,,,,,,,1,Ontime,long,f,1,2.0123,9,3,39,1,1,,,,,
,,,,,,,,,,,6011d8bbd7b6f71a622e06d2,2021-11-01_09h20.42.543,forced_choiceRT_color,2021.2.3,Win32,60.0060006,,,,,,,,,,,,,,,,,,,0,0,0,0,1
0.66,,,,,,,,,k,purple,6011d8bbd7b6f71a622e06d2,2021-11-01_09h20.42.543,forced_choiceRT_color,2021.2.3,Win32,60.0060006,,,,,,,,2,Fast,long,j,0,1.7479,0,0,0,3,1,,,,,
1.08,,,,,,,,,k,purple,6011d8bbd7b6f71a622e06d2,2021-11-01_09h20.42.543,forced_choiceRT_color,2021.2.3,Win32,60.0060006,,,,,,,,2,Fast,long,k,1,1.8761,0,1,1,3,1,,,,,
0.86,,,,,,,,,f,blue,6011d8bbd7b6f71a622e06d2,2021-11-01_09h20.42.543,forced_choiceRT_color,2021.2.3,Win32,60.0060006,,,,,,,,2,Ontime,long,f,1,2.066,0,2,2,1,1,,,,,
0.09,,,,,,,,,f,blue,6011d8bbd7b6f71a622e06d2,2021-11-01_09h20.42.543,forced_choiceRT_color,2021.2.3,Win32,60.0060006,,,,,,,,2,Slow,long,f,1,2.1258,0,3,3,1,1,,,,,
0.92,,,,,,,,,f,blue,6011d8bbd7b6f71a622e06d2,2021-11-01_09h20.42.543,forced_choiceRT_color,2021.2.3,Win32,60.0060006,,,,,,,,2,Ontime,long,f,1,2.0606,1,0,4,1,1,,,,,
0.96,,,,,,,,,f,blue,6011d8bbd7b6f71a622e06d2,2021-11-01_09h20.42.543,forced_choiceRT_color,2021.2.3,Win32,60.0060006,,,,,,,,2,Slow,long,f,1,2.1265,1,1,5,1,1,,,,,
1,,,,,,,,,k,purple,6011d8bbd7b6f71a622e06d2,2021-11-01_09h20.42.543,forced_choiceRT_color,2021.2.3,Win32,60.0060006,,,,,,,,2,Ontime,long,k,1,2.0801,1,2,6,3,1,,,,,
0.76,,,,,,,,,k,purple,6011d8bbd7b6f71a622e06d2,2021-11-01_09h20.42.543,forced_choiceRT_color,2021.2.3,Win32,60.0060006,,,,,,,,2,Slow,long,k,1,2.1252,1,3,7,3,1,,,,,
1.26,,,,,,,,,j,red,6011d8bbd7b6f71a622e06d2,2021-11-01_09h20.42.543,forced_choiceRT_color,2021.2.3,Win32,60.0060006,,,,,,,,2,Ontime,long,j,1,2.0783,2,0,8,2,1,,,,,
1.24,,,,,,,,,k,purple,6011d8bbd7b6f71a622e06d2,2021-11-01_09h20.42.543,forced_choiceRT_color,2021.2.3,Win32,60.0060006,,,,,,,,2,Ontime,long,k,1,2.0003,2,1,9,3,1,,,,,
1.13,,,,,,,,,d,orange,6011d8bbd7b6f71a622e06d2,2021-11-01_09h20.42.543,forced_choiceRT_color,2021.2.3,Win32,60.0060006,,,,,,,,2,Ontime,long,d,1,2.0131,2,2,10,0,1,,,,,
0.31,,,,,,,,,d,orange,6011d8bbd7b6f71a622e06d2,2021-11-01_09h20.42.543,forced_choiceRT_color,2021.2.3,Win32,60.0060006,,,,,,,,2,Ontime,long,d,1,1.9998,2,3,11,0,1,,,,,
1.5,,,,,,,,,d,orange,6011d8bbd7b6f71a622e06d2,2021-11-01_09h20.42.543,forced_choiceRT_color,2021.2.3,Win32,60.0060006,,,,,,,,2,Ontime,long,d,1,2.0779,3,0,12,0,1,,,,,
1.56,,,,,,,,,d,orange,6011d8bbd7b6f71a622e06d2,2021-11-01_09h20.42.543,forced_choiceRT_color,2021.2.3,Win32,60.0060006,,,,,,,,2,Slow,long,d,1,2.1677,3,1,13,0,1,,,,,
1.52,,,,,,,,,j,red,6011d8bbd7b6f71a622e06d2,2021-11-01_09h20.42.543,forced_choiceRT_color,2021.2.3,Win32,60.0060006,,,,,,,,2,Slow,long,j,1,2.1097,3,2,14,2,1,,,,,
1.2,,,,,,,,,k,purple,6011d8bbd7b6f71a622e06d2,2021-11-01_09h20.42.543,forced_choiceRT_color,2021.2.3,Win32,60.0060006,,,,,,,,2,Ontime,long,k,1,1.9813,3,3,15,3,1,,,,,
0.31,,,,,,,,,f,blue,6011d8bbd7b6f71a622e06d2,2021-11-01_09h20.42.543,forced_choiceRT_color,2021.2.3,Win32,60.0060006,,,,,,,,2,Ontime,long,f,1,2.0774,4,0,16,1,1,,,,,
0.17,,,,,,,,,d,orange,6011d8bbd7b6f71a622e06d2,2021-11-01_09h20.42.543,forced_choiceRT_color,2021.2.3,Win32,60.0060006,,,,,,,,2,Ontime,long,d,1,2.0974,4,1,17,0,1,,,,,
0.65,,,,,,,,,d,orange,6011d8bbd7b6f71a622e06d2,2021-11-01_09h20.42.543,forced_choiceRT_color,2021.2.3,Win32,60.0060006,,,,,,,,2,Slow,long,d,1,2.1007,4,2,18,0,1,,,,,
1.87,,,,,,,,,f,blue,6011d8bbd7b6f71a622e06d2,2021-11-01_09h20.42.543,forced_choiceRT_color,2021.2.3,Win32,60.0060006,,,,,,,,2,Slow,long,k,0,2.412,4,3,19,1,1,,,,,
0.08,,,,,,,,,f,blue,6011d8bbd7b6f71a622e06d2,2021-11-01_09h20.42.543,forced_choiceRT_color,2021.2.3,Win32,60.0060006,,,,,,,,2,Ontime,long,f,1,2.0154,5,0,20,1,1,,,,,
0.2,,,,,,,,,f,blue,6011d8bbd7b6f71a622e06d2,2021-11-01_09h20.42.543,forced_choiceRT_color,2021.2.3,Win32,60.0060006,,,,,,,,2,Ontime,long,f,1,2.0835,5,1,21,1,1,,,,,
0.09,,,,,,,,,j,red,6011d8bbd7b6f71a622e06d2,2021-11-01_09h20.42.543,forced_choiceRT_color,2021.2.3,Win32,60.0060006,,,,,,,,2,Ontime,long,j,1,2.0936,5,2,22,2,1,,,,,
1.97,,,,,,,,,f,blue,6011d8bbd7b6f71a622e06d2,2021-11-01_09h20.42.543,forced_choiceRT_color,2021.2.3,Win32,60.0060006,,,,,,,,2,Slow,long,d,0,2.3933,5,3,23,1,1,,,,,
1.34,,,,,,,,,j,red,6011d8bbd7b6f71a622e06d2,2021-11-01_09h20.42.543,forced_choiceRT_color,2021.2.3,Win32,60.0060006,,,,,,,,2,Ontime,long,j,1,2.0463,6,0,24,2,1,,,,,
0.34,,,,,,,,,j,red,6011d8bbd7b6f71a622e06d2,2021-11-01_09h20.42.543,forced_choiceRT_color,2021.2.3,Win32,60.0060006,,,,,,,,2,Ontime,long,j,1,2.0209,6,1,25,2,1,,,,,
1.58,,,,,,,,,f,blue,6011d8bbd7b6f71a622e06d2,2021-11-01_09h20.42.543,forced_choiceRT_color,2021.2.3,Win32,60.0060006,,,,,,,,2,Ontime,long,f,1,2.0455,6,2,26,1,1,,,,,
0,,,,,,,,,k,purple,6011d8bbd7b6f71a622e06d2,2021-11-01_09h20.42.543,forced_choiceRT_color,2021.2.3,Win32,60.0060006,,,,,,,,2,Ontime,long,k,1,2.0817,6,3,27,3,1,,,,,
1.72,,,,,,,,,j,red,6011d8bbd7b6f71a622e06d2,2021-11-01_09h20.42.543,forced_choiceRT_color,2021.2.3,Win32,60.0060006,,,,,,,,2,Slow,long,f,0,2.1661,7,0,28,2,1,,,,,
1.05,,,,,,,,,j,red,6011d8bbd7b6f71a622e06d2,2021-11-01_09h20.42.543,forced_choiceRT_color,2021.2.3,Win32,60.0060006,,,,,,,,2,Ontime,long,j,1,2.0346,7,1,29,2,1,,,,,
1.04,,,,,,,,,j,red,6011d8bbd7b6f71a622e06d2,2021-11-01_09h20.42.543,forced_choiceRT_color,2021.2.3,Win32,60.0060006,,,,,,,,2,Ontime,long,j,1,2.0605,7,2,30,2,1,,,,,
1.21,,,,,,,,,k,purple,6011d8bbd7b6f71a622e06d2,2021-11-01_09h20.42.543,forced_choiceRT_color,2021.2.3,Win32,60.0060006,,,,,,,,2,Ontime,long,k,1,2.0885,7,3,31,3,1,,,,,
1.37,,,,,,,,,j,red,6011d8bbd7b6f71a622e06d2,2021-11-01_09h20.42.543,forced_choiceRT_color,2021.2.3,Win32,60.0060006,,,,,,,,2,Ontime,long,j,1,1.9635,8,0,32,2,1,,,,,
0.7,,,,,,,,,d,orange,6011d8bbd7b6f71a622e06d2,2021-11-01_09h20.42.543,forced_choiceRT_color,2021.2.3,Win32,60.0060006,,,,,,,,2,Ontime,long,d,1,2.0961,8,1,33,0,1,,,,,
0,,,,,,,,,d,orange,6011d8bbd7b6f71a622e06d2,2021-11-01_09h20.42.543,forced_choiceRT_color,2021.2.3,Win32,60.0060006,,,,,,,,2,Ontime,long,d,1,2.018,8,2,34,0,1,,,,,
1.04,,,,,,,,,k,purple,6011d8bbd7b6f71a622e06d2,2021-11-01_09h20.42.543,forced_choiceRT_color,2021.2.3,Win32,60.0060006,,,,,,,,2,Ontime,long,k,1,1.9315,8,3,35,3,1,,,,,
1.97,,,,,,,,,d,orange,6011d8bbd7b6f71a622e06d2,2021-11-01_09h20.42.543,forced_choiceRT_color,2021.2.3,Win32,60.0060006,,,,,,,,2,Slow,long,j,0,2.3632,9,0,36,0,1,,,,,
1.55,,,,,,,,,d,orange,6011d8bbd7b6f71a622e06d2,2021-11-01_09h20.42.543,forced_choiceRT_color,2021.2.3,Win32,60.0060006,,,,,,,,2,Slow,long,d,1,2.1294,9,1,37,0,1,,,,,
1.63,,,,,,,,,j,red,6011d8bbd7b6f71a622e06d2,2021-11-01_09h20.42.543,forced_choiceRT_color,2021.2.3,Win32,60.0060006,,,,,,,,2,Slow,long,k,0,2.2298,9,2,38,2,1,,,,,
0.81,,,,,,,,,k,purple,6011d8bbd7b6f71a622e06d2,2021-11-01_09h20.42.543,forced_choiceRT_color,2021.2.3,Win32,60.0060006,,,,,,,,2,Slow,long,k,1,2.1037,9,3,39,3,1,,,,,
,,,,,,,,,,,6011d8bbd7b6f71a622e06d2,2021-11-01_09h20.42.543,forced_choiceRT_color,2021.2.3,Win32,60.0060006,,,,,,,,,,,,,,,,,,,1,0,1,0,1
0.68,,,,,,,,,j,red,6011d8bbd7b6f71a622e06d2,2021-11-01_09h20.42.543,forced_choiceRT_color,2021.2.3,Win32,60.0060006,,,,,,,,3,Slow,long,j,1,2.4004,0,0,0,2,1,,,,,
0.99,,,,,,,,,d,orange,6011d8bbd7b6f71a622e06d2,2021-11-01_09h20.42.543,forced_choiceRT_color,2021.2.3,Win32,60.0060006,,,,,,,,3,Fast,long,d,1,1.7838,0,1,1,0,1,,,,,
1.9,,,,,,,,,f,blue,6011d8bbd7b6f71a622e06d2,2021-11-01_09h20.42.543,forced_choiceRT_color,2021.2.3,Win32,60.0060006,,,,,,,,3,Slow,long,k,0,2.3163,0,2,2,1,1,,,,,
0.71,,,,,,,,,f,blue,6011d8bbd7b6f71a622e06d2,2021-11-01_09h20.42.543,forced_choiceRT_color,2021.2.3,Win32,60.0060006,,,,,,,,3,Ontime,long,f,1,2.0351,0,3,3,1,1,,,,,
0.2,,,,,,,,,k,purple,6011d8bbd7b6f71a622e06d2,2021-11-01_09h20.42.543,forced_choiceRT_color,2021.2.3,Win32,60.0060006,,,,,,,,3,Ontime,long,k,1,2.0627,1,0,4,3,1,,,,,
1.11,,,,,,,,,k,purple,6011d8bbd7b6f71a622e06d2,2021-11-01_09h20.42.543,forced_choiceRT_color,2021.2.3,Win32,60.0060006,,,,,,,,3,Ontime,long,k,1,2.0373,1,1,5,3,1,,,,,
1.15,,,,,,,,,d,orange,6011d8bbd7b6f71a622e06d2,2021-11-01_09h20.42.543,forced_choiceRT_color,2021.2.3,Win32,60.0060006,,,,,,,,3,Ontime,long,d,1,2.0834,1,2,6,0,1,,,,,
1.09,,,,,,,,,d,orange,6011d8bbd7b6f71a622e06d2,2021-11-01_09h20.42.543,forced_choiceRT_color,2021.2.3,Win32,60.0060006,,,,,,,,3,Slow,long,d,1,2.1173,1,3,7,0,1,,,,,
1.88,,,,,,,,,k,purple,6011d8bbd7b6f71a622e06d2,2021-11-01_09h20.42.543,forced_choiceRT_color,2021.2.3,Win32,60.0060006,,,,,,,,3,Slow,long,k,1,2.3577,2,0,8,3,1,,,,,
0.87,,,,,,,,,k,purple,6011d8bbd7b6f71a622e06d2,2021-11-01_09h20.42.543,forced_choiceRT_color,2021.2.3,Win32,60.0060006,,,,,,,,3,Ontime,long,k,1,1.9631,2,1,9,3,1,,,,,
1,,,,,,,,,k,purple,6011d8bbd7b6f71a622e06d2,2021-11-01_09h20.42.543,forced_choiceRT_color,2021.2.3,Win32,60.0060006,,,,,,,,3,Slow,long,k,1,2.1446,2,2,10,3,1,,,,,
0.65,,,,,,,,,j,red,6011d8bbd7b6f71a622e06d2,2021-11-01_09h20.42.543,forced_choiceRT_color,2021.2.3,Win32,60.0060006,,,,,,,,3,Ontime,long,j,1,2.0813,2,3,11,2,1,,,,,
1.74,,,,,,,,,k,purple,6011d8bbd7b6f71a622e06d2,2021-11-01_09h20.42.543,forced_choiceRT_color,2021.2.3,Win32,60.0060006,,,,,,,,3,Slow,long,k,1,2.2593,3,0,12,3,1,,,,,
1.93,,,,,,,,,k,purple,6011d8bbd7b6f71a622e06d2,2021-11-01_09h20.42.543,forced_choiceRT_color,2021.2.3,Win32,60.0060006,,,,,,,,3,Slow,long,j,0,2.3297,3,1,13,3,1,,,,,
1.47,,,,,,,,,d,orange,6011d8bbd7b6f71a622e06d2,2021-11-01_09h20.42.543,forced_choiceRT_color,2021.2.3,Win32,60.0060006,,,,,,,,3,Slow,long,d,1,2.1298,3,2,14,0,1,,,,,
1.21,,,,,,,,,j,red,6011d8bbd7b6f71a622e06d2,2021-11-01_09h20.42.543,forced_choiceRT_color,2021.2.3,Win32,60.0060006,,,,,,,,3,Ontime,long,j,1,1.9131,3,3,15,2,1,,,,,
1.15,,,,,,,,,f,blue,6011d8bbd7b6f71a622e06d2,2021-11-01_09h20.42.543,forced_choiceRT_color,2021.2.3,Win32,60.0060006,,,,,,,,3,Ontime,long,f,1,2.0587,4,0,16,1,1,,,,,
1.85,,,,,,,,,d,orange,6011d8bbd7b6f71a622e06d2,2021-11-01_09h20.42.543,forced_choiceRT_color,2021.2.3,Win32,60.0060006,,,,,,,,3,Slow,long,d,1,2.3773,4,1,17,0,1,,,,,
0.87,,,,,,,,,d,orange,6011d8bbd7b6f71a622e06d2,2021-11-01_09h20.42.543,forced_choiceRT_color,2021.2.3,Win32,60.0060006,,,,,,,,3,Ontime,long,d,1,2.0296,4,2,18,0,1,,,,,
1.42,,,,,,,,,d,orange,6011d8bbd7b6f71a622e06d2,2021-11-01_09h20.42.543,forced_choiceRT_color,2021.2.3,Win32,60.0060006,,,,,,,,3,Ontime,long,d,1,1.9653,4,3,19,0,1,,,,,
1.17,,,,,,,,,j,red,6011d8bbd7b6f71a622e06d2,2021-11-01_09h20.42.543,forced_choiceRT_color,2021.2.3,Win32,60.0060006,,,,,,,,3,Ontime,long,j,1,1.9975,5,0,20,2,1,,,,,
1.01,,,,,,,,,j,red,6011d8bbd7b6f71a622e06d2,2021-11-01_09h20.42.543,forced_choiceRT_color,2021.2.3,Win32,60.0060006,,,,,,,,3,Slow,long,j,1,2.1125,5,1,21,2,1,,,,,
0.59,,,,,,,,,j,red,6011d8bbd7b6f71a622e06d2,2021-11-01_09h20.42.543,forced_choiceRT_color,2021.2.3,Win32,60.0060006,,,,,,,,3,Ontime,long,j,1,2.0314,5,2,22,2,1,,,,,
1.06,,,,,,,,,f,blue,6011d8bbd7b6f71a622e06d2,2021-11-01_09h20.42.543,forced_choiceRT_color,2021.2.3,Win32,60.0060006,,,,,,,,3,Ontime,long,f,1,2.0631,5,3,23,1,1,,,,,
0.99,,,,,,,,,f,blue,6011d8bbd7b6f71a622e06d2,2021-11-01_09h20.42.543,forced_choiceRT_color,2021.2.3,Win32,60.0060006,,,,,,,,3,Ontime,long,f,1,2.061,6,0,24,1,1,,,,,
0.28,,,,,,,,,j,red,6011d8bbd7b6f71a622e06d2,2021-11-01_09h20.42.543,forced_choiceRT_color,2021.2.3,Win32,60.0060006,,,,,,,,3,Ontime,long,j,1,2.0017,6,1,25,2,1,,,,,
1.11,,,,,,,,,j,red,6011d8bbd7b6f71a622e06d2,2021-11-01_09h20.42.543,forced_choiceRT_color,2021.2.3,Win32,60.0060006,,,,,,,,3,Ontime,long,j,1,2.0229,6,2,26,2,1,,,,,
0.95,,,,,,,,,f,blue,6011d8bbd7b6f71a622e06d2,2021-11-01_09h20.42.543,forced_choiceRT_color,2021.2.3,Win32,60.0060006,,,,,,,,3,Ontime,long,f,1,1.9762,6,3,27,1,1,,,,,
1.03,,,,,,,,,f,blue,6011d8bbd7b6f71a622e06d2,2021-11-01_09h20.42.543,forced_choiceRT_color,2021.2.3,Win32,60.0060006,,,,,,,,3,Ontime,long,f,1,2.0454,7,0,28,1,1,,,,,
0.99,,,,,,,,,d,orange,6011d8bbd7b6f71a622e06d2,2021-11-01_09h20.42.543,forced_choiceRT_color,2021.2.3,Win32,60.0060006,,,,,,,,3,Ontime,long,d,1,2.035,7,1,29,0,1,,,,,
0.88,,,,,,,,,d,orange,6011d8bbd7b6f71a622e06d2,2021-11-01_09h20.42.543,forced_choiceRT_color,2021.2.3,Win32,60.0060006,,,,,,,,3,Ontime,long,d,1,1.9856,7,2,30,0,1,,,,,
1.64,,,,,,,,,j,red,6011d8bbd7b6f71a622e06d2,2021-11-01_09h20.42.543,forced_choiceRT_color,2021.2.3,Win32,60.0060006,,,,,,,,3,Slow,long,f,0,2.1533,7,3,31,2,1,,,,,
1.63,,,,,,,,,k,purple,6011d8bbd7b6f71a622e06d2,2021-11-01_09h20.42.543,forced_choiceRT_color,2021.2.3,Win32,60.0060006,,,,,,,,3,Ontime,long,d,0,2.0983,8,0,32,3,1,,,,,
0.6,,,,,,,,,f,blue,6011d8bbd7b6f71a622e06d2,2021-11-01_09h20.42.543,forced_choiceRT_color,2021.2.3,Win32,60.0060006,,,,,,,,3,Ontime,long,f,1,1.9545,8,1,33,1,1,,,,,
0.23,,,,,,,,,j,red,6011d8bbd7b6f71a622e06d2,2021-11-01_09h20.42.543,forced_choiceRT_color,2021.2.3,Win32,60.0060006,,,,,,,,3,Ontime,long,j,1,2.004,8,2,34,2,1,,,,,
0.61,,,,,,,,,f,blue,6011d8bbd7b6f71a622e06d2,2021-11-01_09h20.42.543,forced_choiceRT_color,2021.2.3,Win32,60.0060006,,,,,,,,3,Ontime,long,f,1,2.036,8,3,35,1,1,,,,,
1.71,,,,,,,,,k,purple,6011d8bbd7b6f71a622e06d2,2021-11-01_09h20.42.543,forced_choiceRT_color,2021.2.3,Win32,60.0060006,,,,,,,,3,Slow,long,k,1,2.184,9,0,36,3,1,,,,,
0.03,,,,,,,,,d,orange,6011d8bbd7b6f71a622e06d2,2021-11-01_09h20.42.543,forced_choiceRT_color,2021.2.3,Win32,60.0060006,,,,,,,,3,Ontime,long,d,1,2.0459,9,1,37,0,1,,,,,
1.57,,,,,,,,,f,blue,6011d8bbd7b6f71a622e06d2,2021-11-01_09h20.42.543,forced_choiceRT_color,2021.2.3,Win32,60.0060006,,,,,,,,3,Slow,long,f,1,2.1157,9,2,38,1,1,,,,,
0.56,,,,,,,,,k,purple,6011d8bbd7b6f71a622e06d2,2021-11-01_09h20.42.543,forced_choiceRT_color,2021.2.3,Win32,60.0060006,,,,,,,,3,Ontime,long,k,1,1.9971,9,3,39,3,1,,,,,
,,,,,,,,,,,6011d8bbd7b6f71a622e06d2,2021-11-01_09h20.42.543,forced_choiceRT_color,2021.2.3,Win32,60.0060006,,,,,,,,,,,,,,,,,,,2,0,2,0,1
0.6,,,,,,,,,k,purple,6011d8bbd7b6f71a622e06d2,2021-11-01_09h20.42.543,forced_choiceRT_color,2021.2.3,Win32,60.0060006,,,,,,,,4,Ontime,long,k,1,1.9796,0,0,0,3,1,,,,,
0.52,,,,,,,,,d,orange,6011d8bbd7b6f71a622e06d2,2021-11-01_09h20.42.543,forced_choiceRT_color,2021.2.3,Win32,60.0060006,,,,,,,,4,Ontime,long,d,1,1.9251,0,1,1,0,1,,,,,
0.85,,,,,,,,,f,blue,6011d8bbd7b6f71a622e06d2,2021-11-01_09h20.42.543,forced_choiceRT_color,2021.2.3,Win32,60.0060006,,,,,,,,4,Ontime,long,f,1,1.9486,0,2,2,1,1,,,,,
0.45,,,,,,,,,j,red,6011d8bbd7b6f71a622e06d2,2021-11-01_09h20.42.543,forced_choiceRT_color,2021.2.3,Win32,60.0060006,,,,,,,,4,Ontime,long,j,1,1.9949,0,3,3,2,1,,,,,
0.32,,,,,,,,,k,purple,6011d8bbd7b6f71a622e06d2,2021-11-01_09h20.42.543,forced_choiceRT_color,2021.2.3,Win32,60.0060006,,,,,,,,4,Ontime,long,k,1,2.0791,1,0,4,3,1,,,,,
0.73,,,,,,,,,j,red,6011d8bbd7b6f71a622e06d2,2021-11-01_09h20.42.543,forced_choiceRT_color,2021.2.3,Win32,60.0060006,,,,,,,,4,Ontime,long,j,1,2.0028,1,1,5,2,1,,,,,
1.23,,,,,,,,,k,purple,6011d8bbd7b6f71a622e06d2,2021-11-01_09h20.42.543,forced_choiceRT_color,2021.2.3,Win32,60.0060006,,,,,,,,4,Ontime,long,k,1,2.0281,1,2,6,3,1,,,,,
0.21,,,,,,,,,j,red,6011d8bbd7b6f71a622e06d2,2021-11-01_09h20.42.543,forced_choiceRT_color,2021.2.3,Win32,60.0060006,,,,,,,,4,Ontime,long,j,1,2.045,1,3,7,2,1,,,,,
1.37,,,,,,,,,d,orange,6011d8bbd7b6f71a622e06d2,2021-11-01_09h20.42.543,forced_choiceRT_color,2021.2.3,Win32,60.0060006,,,,,,,,4,Ontime,long,f,0,2.0851,2,0,8,0,1,,,,,
0.41,,,,,,,,,j,red,6011d8bbd7b6f71a622e06d2,2021-11-01_09h20.42.543,forced_choiceRT_color,2021.2.3,Win32,60.0060006,,,,,,,,4,Ontime,long,j,1,1.9855,2,1,9,2,1,,,,,
0.98,,,,,,,,,d,orange,6011d8bbd7b6f71a622e06d2,2021-11-01_09h20.42.543,forced_choiceRT_color,2021.2.3,Win32,60.0060006,,,,,,,,4,Ontime,long,d,1,1.9852,2,2,10,0,1,,,,,
0.97,,,,,,,,,f,blue,6011d8bbd7b6f71a622e06d2,2021-11-01_09h20.42.543,forced_choiceRT_color,2021.2.3,Win32,60.0060006,,,,,,,,4,Ontime,long,f,1,2.0142,2,3,11,1,1,,,,,
0.13,,,,,,,,,f,blue,6011d8bbd7b6f71a622e06d2,2021-11-01_09h20.42.543,forced_choiceRT_color,2021.2.3,Win32,60.0060006,,,,,,,,4,Ontime,long,f,1,2.0008,3,0,12,1,1,,,,,
1.87,,,,,,,,,j,red,6011d8bbd7b6f71a622e06d2,2021-11-01_09h20.42.543,forced_choiceRT_color,2021.2.3,Win32,60.0060006,,,,,,,,4,Slow,long,k,0,2.2549,3,1,13,2,1,,,,,
0.01,,,,,,,,,d,orange,6011d8bbd7b6f71a622e06d2,2021-11-01_09h20.42.543,forced_choiceRT_color,2021.2.3,Win32,60.0060006,,,,,,,,4,Ontime,long,d,1,1.9998,3,2,14,0,1,,,,,
1.62,,,,,,,,,k,purple,6011d8bbd7b6f71a622e06d2,2021-11-01_09h20.42.543,forced_choiceRT_color,2021.2.3,Win32,60.0060006,,,,,,,,4,Slow,long,k,1,2.1361,3,3,15,3,1,,,,,
0.74,,,,,,,,,d,orange,6011d8bbd7b6f71a622e06d2,2021-11-01_09h20.42.543,forced_choiceRT_color,2021.2.3,Win32,60.0060006,,,,,,,,4,Ontime,long,d,1,2.0219,4,0,16,0,1,,,,,
0.25,,,,,,,,,j,red,6011d8bbd7b6f71a622e06d2,2021-11-01_09h20.42.543,forced_choiceRT_color,2021.2.3,Win32,60.0060006,,,,,,,,4,Ontime,long,j,1,1.9807,4,1,17,2,1,,,,,
1.95,,,,,,,,,k,purple,6011d8bbd7b6f71a622e06d2,2021-11-01_09h20.42.543,forced_choiceRT_color,2021.2.3,Win32,60.0060006,,,,,,,,4,Slow,long,k,1,2.3735,4,2,18,3,1,,,,,
1.84,,,,,,,,,k,purple,6011d8bbd7b6f71a622e06d2,2021-11-01_09h20.42.543,forced_choiceRT_color,2021.2.3,Win32,60.0060006,,,,,,,,4,Slow,long,k,1,2.3307,4,3,19,3,1,,,,,
1.52,,,,,,,,,f,blue,6011d8bbd7b6f71a622e06d2,2021-11-01_09h20.42.543,forced_choiceRT_color,2021.2.3,Win32,60.0060006,,,,,,,,4,Slow,long,f,1,2.2654,5,0,20,1,1,,,,,
0.15,,,,,,,,,j,red,6011d8bbd7b6f71a622e06d2,2021-11-01_09h20.42.543,forced_choiceRT_color,2021.2.3,Win32,60.0060006,,,,,,,,4,Ontime,long,j,1,1.9289,5,1,21,2,1,,,,,
0.23,,,,,,,,,j,red,6011d8bbd7b6f71a622e06d2,2021-11-01_09h20.42.543,forced_choiceRT_color,2021.2.3,Win32,60.0060006,,,,,,,,4,Ontime,long,j,1,2.0316,5,2,22,2,1,,,,,
1.74,,,,,,,,,k,purple,6011d8bbd7b6f71a622e06d2,2021-11-01_09h20.42.543,forced_choiceRT_color,2021.2.3,Win32,60.0060006,,,,,,,,4,Slow,long,j,0,2.2161,5,3,23,3,1,,,,,
0.79,,,,,,,,,f,blue,6011d8bbd7b6f71a622e06d2,2021-11-01_09h20.42.543,forced_choiceRT_color,2021.2.3,Win32,60.0060006,,,,,,,,4,Fast,long,f,1,1.8925,6,0,24,1,1,,,,,
1.72,,,,,,,,,f,blue,6011d8bbd7b6f71a622e06d2,2021-11-01_09h20.42.543,forced_choiceRT_color,2021.2.3,Win32,60.0060006,,,,,,,,4,Slow,long,f,1,2.1808,6,1,25,1,1,,,,,
1.44,,,,,,,,,k,purple,6011d8bbd7b6f71a622e06d2,2021-11-01_09h20.42.543,forced_choiceRT_color,2021.2.3,Win32,60.0060006,,,,,,,,4,Ontime,long,k,1,1.9827,6,2,26,3,1,,,,,
1.35,,,,,,,,,f,blue,6011d8bbd7b6f71a622e06d2,2021-11-01_09h20.42.543,forced_choiceRT_color,2021.2.3,Win32,60.0060006,,,,,,,,4,Ontime,long,f,1,1.9444,6,3,27,1,1,,,,,
0.58,,,,,,,,,j,red,6011d8bbd7b6f71a622e06d2,2021-11-01_09h20.42.543,forced_choiceRT_color,2021.2.3,Win32,60.0060006,,,,,,,,4,Ontime,long,j,1,2.0153,7,0,28,2,1,,,,,
1.23,,,,,,,,,j,red,6011d8bbd7b6f71a622e06d2,2021-11-01_09h20.42.543,forced_choiceRT_color,2021.2.3,Win32,60.0060006,,,,,,,,4,Ontime,long,j,1,2.0144,7,1,29,2,1,,,,,
0.87,,,,,,,,,d,orange,6011d8bbd7b6f71a622e06d2,2021-11-01_09h20.42.543,forced_choiceRT_color,2021.2.3,Win32,60.0060006,,,,,,,,4,Ontime,long,d,1,2.0686,7,2,30,0,1,,,,,
1.92,,,,,,,,,k,purple,6011d8bbd7b6f71a622e06d2,2021-11-01_09h20.42.543,forced_choiceRT_color,2021.2.3,Win32,60.0060006,,,,,,,,4,Slow,long,k,1,2.2334,7,3,31,3,1,,,,,
1.6,,,,,,,,,f,blue,6011d8bbd7b6f71a622e06d2,2021-11-01_09h20.42.543,forced_choiceRT_color,2021.2.3,Win32,60.0060006,,,,,,,,4,Ontime,long,f,1,2.0619,8,0,32,1,1,,,,,
1.53,,,,,,,,,f,blue,6011d8bbd7b6f71a622e06d2,2021-11-01_09h20.42.543,forced_choiceRT_color,2021.2.3,Win32,60.0060006,,,,,,,,4,Slow,long,f,1,2.1676,8,1,33,1,1,,,,,
0.13,,,,,,,,,d,orange,6011d8bbd7b6f71a622e06d2,2021-11-01_09h20.42.543,forced_choiceRT_color,2021.2.3,Win32,60.0060006,,,,,,,,4,Ontime,long,d,1,2.0126,8,2,34,0,1,,,,,
1.41,,,,,,,,,d,orange,6011d8bbd7b6f71a622e06d2,2021-11-01_09h20.42.543,forced_choiceRT_color,2021.2.3,Win32,60.0060006,,,,,,,,4,Ontime,long,d,1,2.0351,8,3,35,0,1,,,,,
0.48,,,,,,,,,f,blue,6011d8bbd7b6f71a622e06d2,2021-11-01_09h20.42.543,forced_choiceRT_color,2021.2.3,Win32,60.0060006,,,,,,,,4,Ontime,long,f,1,1.9622,9,0,36,1,1,,,,,
1.72,,,,,,,,,k,purple,6011d8bbd7b6f71a622e06d2,2021-11-01_09h20.42.543,forced_choiceRT_color,2021.2.3,Win32,60.0060006,,,,,,,,4,Slow,long,k,1,2.1955,9,1,37,3,1,,,,,
1.72,,,,,,,,,d,orange,6011d8bbd7b6f71a622e06d2,2021-11-01_09h20.42.543,forced_choiceRT_color,2021.2.3,Win32,60.0060006,,,,,,,,4,Slow,long,j,0,2.1889,9,2,38,0,1,,,,,
1.12,,,,,,,,,d,orange,6011d8bbd7b6f71a622e06d2,2021-11-01_09h20.42.543,forced_choiceRT_color,2021.2.3,Win32,60.0060006,,,,,,,,4,Ontime,long,d,1,2.0494,9,3,39,0,1,,,,,
,,,,,,,,,,,6011d8bbd7b6f71a622e06d2,2021-11-01_09h20.42.543,forced_choiceRT_color,2021.2.3,Win32,60.0060006,,,,,,,,,,,,,,,,,,,3,0,3,0,1
0.38,,,,,,,,,d,orange,6011d8bbd7b6f71a622e06d2,2021-11-01_09h20.42.543,forced_choiceRT_color,2021.2.3,Win32,60.0060006,,,,,,,,5,Ontime,long,d,1,1.9409,0,0,0,0,1,,,,,
0.43,,,,,,,,,k,purple,6011d8bbd7b6f71a622e06d2,2021-11-01_09h20.42.543,forced_choiceRT_color,2021.2.3,Win32,60.0060006,,,,,,,,5,Ontime,long,k,1,2.028,0,1,1,3,1,,,,,
1.39,,,,,,,,,k,purple,6011d8bbd7b6f71a622e06d2,2021-11-01_09h20.42.543,forced_choiceRT_color,2021.2.3,Win32,60.0060006,,,,,,,,5,Ontime,long,k,1,1.9011,0,2,2,3,1,,,,,
1.35,,,,,,,,,j,red,6011d8bbd7b6f71a622e06d2,2021-11-01_09h20.42.543,forced_choiceRT_color,2021.2.3,Win32,60.0060006,,,,,,,,5,Ontime,long,f,0,1.9677,0,3,3,2,1,,,,,
1.52,,,,,,,,,k,purple,6011d8bbd7b6f71a622e06d2,2021-11-01_09h20.42.543,forced_choiceRT_color,2021.2.3,Win32,60.0060006,,,,,,,,5,Slow,long,k,1,2.1137,1,0,4,3,1,,,,,
1.71,,,,,,,,,f,blue,6011d8bbd7b6f71a622e06d2,2021-11-01_09h20.42.543,forced_choiceRT_color,2021.2.3,Win32,60.0060006,,,,,,,,5,Slow,long,f,1,2.2553,1,1,5,1,1,,,,,
0.27,,,,,,,,,j,red,6011d8bbd7b6f71a622e06d2,2021-11-01_09h20.42.543,forced_choiceRT_color,2021.2.3,Win32,60.0060006,,,,,,,,5,Ontime,long,j,1,2.0312,1,2,6,2,1,,,,,
1.08,,,,,,,,,f,blue,6011d8bbd7b6f71a622e06d2,2021-11-01_09h20.42.543,forced_choiceRT_color,2021.2.3,Win32,60.0060006,,,,,,,,5,Ontime,long,f,1,1.9125,1,3,7,1,1,,,,,
0.6,,,,,,,,,k,purple,6011d8bbd7b6f71a622e06d2,2021-11-01_09h20.42.543,forced_choiceRT_color,2021.2.3,Win32,60.0060006,,,,,,,,5,Ontime,long,k,1,2.0661,2,0,8,3,1,,,,,
1.72,,,,,,,,,d,orange,6011d8bbd7b6f71a622e06d2,2021-11-01_09h20.42.543,forced_choiceRT_color,2021.2.3,Win32,60.0060006,,,,,,,,5,Slow,long,d,1,2.254,2,1,9,0,1,,,,,
1.49,,,,,,,,,f,blue,6011d8bbd7b6f71a622e06d2,2021-11-01_09h20.42.543,forced_choiceRT_color,2021.2.3,Win32,60.0060006,,,,,,,,5,Ontime,long,f,1,2.0483,2,2,10,1,1,,,,,
1.71,,,,,,,,,k,purple,6011d8bbd7b6f71a622e06d2,2021-11-01_09h20.42.543,forced_choiceRT_color,2021.2.3,Win32,60.0060006,,,,,,,,5,Slow,long,k,1,2.1652,2,3,11,3,1,,,,,
0.19,,,,,,,,,d,orange,6011d8bbd7b6f71a622e06d2,2021-11-01_09h20.42.543,forced_choiceRT_color,2021.2.3,Win32,60.0060006,,,,,,,,5,Ontime,long,d,1,2.0336,3,0,12,0,1,,,,,
1.91,,,,,,,,,f,blue,6011d8bbd7b6f71a622e06d2,2021-11-01_09h20.42.543,forced_choiceRT_color,2021.2.3,Win32,60.0060006,,,,,,,,5,Slow,long,j,0,2.315,3,1,13,1,1,,,,,
0.29,,,,,,,,,k,purple,6011d8bbd7b6f71a622e06d2,2021-11-01_09h20.42.543,forced_choiceRT_color,2021.2.3,Win32,60.0060006,,,,,,,,5,Ontime,long,k,1,2.0305,3,2,14,3,1,,,,,
1.16,,,,,,,,,d,orange,6011d8bbd7b6f71a622e06d2,2021-11-01_09h20.42.543,forced_choiceRT_color,2021.2.3,Win32,60.0060006,,,,,,,,5,Ontime,long,d,1,1.9564,3,3,15,0,1,,,,,
1.86,,,,,,,,,k,purple,6011d8bbd7b6f71a622e06d2,2021-11-01_09h20.42.543,forced_choiceRT_color,2021.2.3,Win32,60.0060006,,,,,,,,5,Slow,long,k,1,2.2149,4,0,16,3,1,,,,,
0.13,,,,,,,,,d,orange,6011d8bbd7b6f71a622e06d2,2021-11-01_09h20.42.543,forced_choiceRT_color,2021.2.3,Win32,60.0060006,,,,,,,,5,Ontime,long,d,1,2.0559,4,1,17,0,1,,,,,
0.03,,,,,,,,,f,blue,6011d8bbd7b6f71a622e06d2,2021-11-01_09h20.42.543,forced_choiceRT_color,2021.2.3,Win32,60.0060006,,,,,,,,5,Ontime,long,f,1,2.0539,4,2,18,1,1,,,,,
0.6,,,,,,,,,f,blue,6011d8bbd7b6f71a622e06d2,2021-11-01_09h20.42.543,forced_choiceRT_color,2021.2.3,Win32,60.0060006,,,,,,,,5,Slow,long,f,1,2.1228,4,3,19,1,1,,,,,
0.65,,,,,,,,,j,red,6011d8bbd7b6f71a622e06d2,2021-11-01_09h20.42.543,forced_choiceRT_color,2021.2.3,Win32,60.0060006,,,,,,,,5,Ontime,long,j,1,1.9472,5,0,20,2,1,,,,,
1.7,,,,,,,,,k,purple,6011d8bbd7b6f71a622e06d2,2021-11-01_09h20.42.543,forced_choiceRT_color,2021.2.3,Win32,60.0060006,,,,,,,,5,Ontime,long,k,1,2.0664,5,1,21,3,1,,,,,
0.13,,,,,,,,,j,red,6011d8bbd7b6f71a622e06d2,2021-11-01_09h20.42.543,forced_choiceRT_color,2021.2.3,Win32,60.0060006,,,,,,,,5,Ontime,long,j,1,2.0165,5,2,22,2,1,,,,,
1.73,,,,,,,,,j,red,6011d8bbd7b6f71a622e06d2,2021-11-01_09h20.42.543,forced_choiceRT_color,2021.2.3,Win32,60.0060006,,,,,,,,5,Slow,long,j,1,2.1417,5,3,23,2,1,,,,,
1.16,,,,,,,,,d,orange,6011d8bbd7b6f71a622e06d2,2021-11-01_09h20.42.543,forced_choiceRT_color,2021.2.3,Win32,60.0060006,,,,,,,,5,Fast,long,d,1,1.8677,6,0,24,0,1,,,,,
0.08,,,,,,,,,f,blue,6011d8bbd7b6f71a622e06d2,2021-11-01_09h20.42.543,forced_choiceRT_color,2021.2.3,Win32,60.0060006,,,,,,,,5,Ontime,long,f,1,1.9807,6,1,25,1,1,,,,,
1.24,,,,,,,,,j,red,6011d8bbd7b6f71a622e06d2,2021-11-01_09h20.42.543,forced_choiceRT_color,2021.2.3,Win32,60.0060006,,,,,,,,5,Ontime,long,j,1,1.9724,6,2,26,2,1,,,,,
1.63,,,,,,,,,d,orange,6011d8bbd7b6f71a622e06d2,2021-11-01_09h20.42.543,forced_choiceRT_color,2021.2.3,Win32,60.0060006,,,,,,,,5,Slow,long,d,1,2.2195,6,3,27,0,1,,,,,
1.25,,,,,,,,,f,blue,6011d8bbd7b6f71a622e06d2,2021-11-01_09h20.42.543,forced_choiceRT_color,2021.2.3,Win32,60.0060006,,,,,,,,5,Ontime,long,f,1,1.9489,7,0,28,1,1,,,,,
1.36,,,,,,,,,j,red,6011d8bbd7b6f71a622e06d2,2021-11-01_09h20.42.543,forced_choiceRT_color,2021.2.3,Win32,60.0060006,,,,,,,,5,Ontime,long,j,1,2.0329,7,1,29,2,1,,,,,
1.49,,,,,,,,,j,red,6011d8bbd7b6f71a622e06d2,2021-11-01_09h20.42.543,forced_choiceRT_color,2021.2.3,Win32,60.0060006,,,,,,,,5,Ontime,long,f,0,2.0229,7,2,30,2,1,,,,,
0.52,,,,,,,,,f,blue,6011d8bbd7b6f71a622e06d2,2021-11-01_09h20.42.543,forced_choiceRT_color,2021.2.3,Win32,60.0060006,,,,,,,,5,Ontime,long,f,1,1.9286,7,3,31,1,1,,,,,
1.47,,,,,,,,,j,red,6011d8bbd7b6f71a622e06d2,2021-11-01_09h20.42.543,forced_choiceRT_color,2021.2.3,Win32,60.0060006,,,,,,,,5,Ontime,long,j,1,1.9348,8,0,32,2,1,,,,,
0.02,,,,,,,,,k,purple,6011d8bbd7b6f71a622e06d2,2021-11-01_09h20.42.543,forced_choiceRT_color,2021.2.3,Win32,60.0060006,,,,,,,,5,Ontime,long,k,1,1.9621,8,1,33,3,1,,,,,
0.43,,,,,,,,,f,blue,6011d8bbd7b6f71a622e06d2,2021-11-01_09h20.42.543,forced_choiceRT_color,2021.2.3,Win32,60.0060006,,,,,,,,5,Ontime,long,f,1,2.0341,8,2,34,1,1,,,,,
0.64,,,,,,,,,d,orange,6011d8bbd7b6f71a622e06d2,2021-11-01_09h20.42.543,forced_choiceRT_color,2021.2.3,Win32,60.0060006,,,,,,,,5,Slow,long,d,1,2.1045,8,3,35,0,1,,,,,
0.24,,,,,,,,,d,orange,6011d8bbd7b6f71a622e06d2,2021-11-01_09h20.42.543,forced_choiceRT_color,2021.2.3,Win32,60.0060006,,,,,,,,5,Ontime,long,d,1,1.9186,9,0,36,0,1,,,,,
1.07,,,,,,,,,d,orange,6011d8bbd7b6f71a622e06d2,2021-11-01_09h20.42.543,forced_choiceRT_color,2021.2.3,Win32,60.0060006,,,,,,,,5,Ontime,long,d,1,1.9681,9,1,37,0,1,,,,,
0.53,,,,,,,,,k,purple,6011d8bbd7b6f71a622e06d2,2021-11-01_09h20.42.543,forced_choiceRT_color,2021.2.3,Win32,60.0060006,,,,,,,,5,Ontime,long,k,1,1.9971,9,2,38,3,1,,,,,
1.09,,,,,,,,,j,red,6011d8bbd7b6f71a622e06d2,2021-11-01_09h20.42.543,forced_choiceRT_color,2021.2.3,Win32,60.0060006,,,,,,,,5,Ontime,long,j,1,1.9861,9,3,39,2,1,,,,,
,,,,,,,,,,,6011d8bbd7b6f71a622e06d2,2021-11-01_09h20.42.543,forced_choiceRT_color,2021.2.3,Win32,60.0060006,,,,,,,,,,,,,,,,,,,4,0,4,0,1
1.63,,,,,,,,,k,purple,6011d8bbd7b6f71a622e06d2,2021-11-01_09h20.42.543,forced_choiceRT_color,2021.2.3,Win32,60.0060006,,,,,,,,6,Slow,long,k,1,2.1837,0,0,0,3,1,,,,,
1.71,,,,,,,,,j,red,6011d8bbd7b6f71a622e06d2,2021-11-01_09h20.42.543,forced_choiceRT_color,2021.2.3,Win32,60.0060006,,,,,,,,6,Slow,long,k,0,2.1622,0,1,1,2,1,,,,,
0.18,,,,,,,,,k,purple,6011d8bbd7b6f71a622e06d2,2021-11-01_09h20.42.543,forced_choiceRT_color,2021.2.3,Win32,60.0060006,,,,,,,,6,Fast,long,k,1,1.8492,0,2,2,3,1,,,,,
1.01,,,,,,,,,k,purple,6011d8bbd7b6f71a622e06d2,2021-11-01_09h20.42.543,forced_choiceRT_color,2021.2.3,Win32,60.0060006,,,,,,,,6,Ontime,long,k,1,1.9871,0,3,3,3,1,,,,,
0.78,,,,,,,,,j,red,6011d8bbd7b6f71a622e06d2,2021-11-01_09h20.42.543,forced_choiceRT_color,2021.2.3,Win32,60.0060006,,,,,,,,6,Ontime,long,j,1,2.0506,1,0,4,2,1,,,,,
1.99,,,,,,,,,j,red,6011d8bbd7b6f71a622e06d2,2021-11-01_09h20.42.543,forced_choiceRT_color,2021.2.3,Win32,60.0060006,,,,,,,,6,Slow,long,k,0,2.3688,1,1,5,2,1,,,,,
1.39,,,,,,,,,f,blue,6011d8bbd7b6f71a622e06d2,2021-11-01_09h20.42.543,forced_choiceRT_color,2021.2.3,Win32,60.0060006,,,,,,,,6,Ontime,long,j,0,2.0454,1,2,6,1,1,,,,,
0.95,,,,,,,,,j,red,6011d8bbd7b6f71a622e06d2,2021-11-01_09h20.42.543,forced_choiceRT_color,2021.2.3,Win32,60.0060006,,,,,,,,6,Ontime,long,j,1,1.981,1,3,7,2,1,,,,,
0.6,,,,,,,,,f,blue,6011d8bbd7b6f71a622e06d2,2021-11-01_09h20.42.543,forced_choiceRT_color,2021.2.3,Win32,60.0060006,,,,,,,,6,Ontime,long,f,1,2.045,2,0,8,1,1,,,,,
1.69,,,,,,,,,d,orange,6011d8bbd7b6f71a622e06d2,2021-11-01_09h20.42.543,forced_choiceRT_color,2021.2.3,Win32,60.0060006,,,,,,,,6,Slow,long,k,0,2.1764,2,1,9,0,1,,,,,
0.22,,,,,,,,,k,purple,6011d8bbd7b6f71a622e06d2,2021-11-01_09h20.42.543,forced_choiceRT_color,2021.2.3,Win32,60.0060006,,,,,,,,6,Ontime,long,k,1,2.0297,2,2,10,3,1,,,,,
0.6,,,,,,,,,d,orange,6011d8bbd7b6f71a622e06d2,2021-11-01_09h20.42.543,forced_choiceRT_color,2021.2.3,Win32,60.0060006,,,,,,,,6,Ontime,long,d,1,1.9775,2,3,11,0,1,,,,,
0.13,,,,,,,,,k,purple,6011d8bbd7b6f71a622e06d2,2021-11-01_09h20.42.543,forced_choiceRT_color,2021.2.3,Win32,60.0060006,,,,,,,,6,Ontime,long,k,1,1.9765,3,0,12,3,1,,,,,
0.77,,,,,,,,,k,purple,6011d8bbd7b6f71a622e06d2,2021-11-01_09h20.42.543,forced_choiceRT_color,2021.2.3,Win32,60.0060006,,,,,,,,6,Ontime,long,k,1,2.0023,3,1,13,3,1,,,,,
1.91,,,,,,,,,j,red,6011d8bbd7b6f71a622e06d2,2021-11-01_09h20.42.543,forced_choiceRT_color,2021.2.3,Win32,60.0060006,,,,,,,,6,Slow,long,k,0,2.162,3,2,14,2,1,,,,,
1.23,,,,,,,,,d,orange,6011d8bbd7b6f71a622e06d2,2021-11-01_09h20.42.543,forced_choiceRT_color,2021.2.3,Win32,60.0060006,,,,,,,,6,Fast,long,d,1,1.8996,3,3,15,0,1,,,,,
1.13,,,,,,,,,k,purple,6011d8bbd7b6f71a622e06d2,2021-11-01_09h20.42.543,forced_choiceRT_color,2021.2.3,Win32,60.0060006,,,,,,,,6,Ontime,long,k,1,1.968,4,0,16,3,1,,,,,
0.09,,,,,,,,,d,orange,6011d8bbd7b6f71a622e06d2,2021-11-01_09h20.42.543,forced_choiceRT_color,2021.2.3,Win32,60.0060006,,,,,,,,6,Ontime,long,d,1,1.9819,4,1,17,0,1,,,,,
1.46,,,,,,,,,f,blue,6011d8bbd7b6f71a622e06d2,2021-11-01_09h20.42.543,forced_choiceRT_color,2021.2.3,Win32,60.0060006,,,,,,,,6,Ontime,long,f,1,1.998,4,2,18,1,1,,,,,
0.18,,,,,,,,,f,blue,6011d8bbd7b6f71a622e06d2,2021-11-01_09h20.42.543,forced_choiceRT_color,2021.2.3,Win32,60.0060006,,,,,,,,6,Ontime,long,f,1,1.9724,4,3,19,1,1,,,,,
1.99,,,,,,,,,d,orange,6011d8bbd7b6f71a622e06d2,2021-11-01_09h20.42.543,forced_choiceRT_color,2021.2.3,Win32,60.0060006,,,,,,,,6,Slow,long,f,0,2.2377,5,0,20,0,1,,,,,
1.67,,,,,,,,,f,blue,6011d8bbd7b6f71a622e06d2,2021-11-01_09h20.42.543,forced_choiceRT_color,2021.2.3,Win32,60.0060006,,,,,,,,6,Ontime,long,f,1,1.9469,5,1,21,1,1,,,,,
1.08,,,,,,,,,f,blue,6011d8bbd7b6f71a622e06d2,2021-11-01_09h20.42.543,forced_choiceRT_color,2021.2.3,Win32,60.0060006,,,,,,,,6,Ontime,long,f,1,2.0268,5,2,22,1,1,,,,,
0.66,,,,,,,,,d,orange,6011d8bbd7b6f71a622e06d2,2021-11-01_09h20.42.543,forced_choiceRT_color,2021.2.3,Win32,60.0060006,,,,,,,,6,Ontime,long,d,1,2.0149,5,3,23,0,1,,,,,
0.56,,,,,,,,,k,purple,6011d8bbd7b6f71a622e06d2,2021-11-01_09h20.42.543,forced_choiceRT_color,2021.2.3,Win32,60.0060006,,,,,,,,6,Ontime,long,k,1,1.9875,6,0,24,3,1,,,,,
1.22,,,,,,,,,j,red,6011d8bbd7b6f71a622e06d2,2021-11-01_09h20.42.543,forced_choiceRT_color,2021.2.3,Win32,60.0060006,,,,,,,,6,Ontime,long,j,1,1.9643,6,1,25,2,1,,,,,
0.11,,,,,,,,,f,blue,6011d8bbd7b6f71a622e06d2,2021-11-01_09h20.42.543,forced_choiceRT_color,2021.2.3,Win32,60.0060006,,,,,,,,6,Ontime,long,f,1,1.9953,6,2,26,1,1,,,,,
1.62,,,,,,,,,d,orange,6011d8bbd7b6f71a622e06d2,2021-11-01_09h20.42.543,forced_choiceRT_color,2021.2.3,Win32,60.0060006,,,,,,,,6,Ontime,long,f,0,1.9283,6,3,27,0,1,,,,,
1.87,,,,,,,,,f,blue,6011d8bbd7b6f71a622e06d2,2021-11-01_09h20.42.543,forced_choiceRT_color,2021.2.3,Win32,60.0060006,,,,,,,,6,Ontime,long,f,1,2.0145,7,0,28,1,1,,,,,
1.48,,,,,,,,,k,purple,6011d8bbd7b6f71a622e06d2,2021-11-01_09h20.42.543,forced_choiceRT_color,2021.2.3,Win32,60.0060006,,,,,,,,6,Slow,long,k,1,2.1582,7,1,29,3,1,,,,,
1.74,,,,,,,,,f,blue,6011d8bbd7b6f71a622e06d2,2021-11-01_09h20.42.543,forced_choiceRT_color,2021.2.3,Win32,60.0060006,,,,,,,,6,Ontime,long,f,1,1.9702,7,2,30,1,1,,,,,
0.1,,,,,,,,,f,blue,6011d8bbd7b6f71a622e06d2,2021-11-01_09h20.42.543,forced_choiceRT_color,2021.2.3,Win32,60.0060006,,,,,,,,6,Fast,long,f,1,1.884,7,3,31,1,1,,,,,
0.46,,,,,,,,,j,red,6011d8bbd7b6f71a622e06d2,2021-11-01_09h20.42.543,forced_choiceRT_color,2021.2.3,Win32,60.0060006,,,,,,,,6,Ontime,long,j,1,1.9883,8,0,32,2,1,,,,,
0.17,,,,,,,,,d,orange,6011d8bbd7b6f71a622e06d2,2021-11-01_09h20.42.543,forced_choiceRT_color,2021.2.3,Win32,60.0060006,,,,,,,,6,Ontime,long,d,1,1.9636,8,1,33,0,1,,,,,
1.33,,,,,,,,,j,red,6011d8bbd7b6f71a622e06d2,2021-11-01_09h20.42.543,forced_choiceRT_color,2021.2.3,Win32,60.0060006,,,,,,,,6,Ontime,long,j,1,2.084,8,2,34,2,1,,,,,
1.74,,,,,,,,,d,orange,6011d8bbd7b6f71a622e06d2,2021-11-01_09h20.42.543,forced_choiceRT_color,2021.2.3,Win32,60.0060006,,,,,,,,6,Ontime,long,j,0,2.0474,8,3,35,0,1,,,,,
0.42,,,,,,,,,d,orange,6011d8bbd7b6f71a622e06d2,2021-11-01_09h20.42.543,forced_choiceRT_color,2021.2.3,Win32,60.0060006,,,,,,,,6,Ontime,long,d,1,1.9819,9,0,36,0,1,,,,,
0.21,,,,,,,,,j,red,6011d8bbd7b6f71a622e06d2,2021-11-01_09h20.42.543,forced_choiceRT_color,2021.2.3,Win32,60.0060006,,,,,,,,6,Ontime,long,j,1,2.0202,9,1,37,2,1,,,,,
0.04,,,,,,,,,k,purple,6011d8bbd7b6f71a622e06d2,2021-11-01_09h20.42.543,forced_choiceRT_color,2021.2.3,Win32,60.0060006,,,,,,,,6,Ontime,long,k,1,2.0034,9,2,38,3,1,,,,,
1.97,,,,,,,,,j,red,6011d8bbd7b6f71a622e06d2,2021-11-01_09h20.42.543,forced_choiceRT_color,2021.2.3,Win32,60.0060006,,,,,,,,6,Ontime,long,j,1,1.9868,9,3,39,2,1,,,,,
,,,,,,,,,,,6011d8bbd7b6f71a622e06d2,2021-11-01_09h20.42.543,forced_choiceRT_color,2021.2.3,Win32,60.0060006,,,,,,,,,,,,,,,,,,,5,0,5,0,1
0.62,,,,,,,,,f,blue,6011d8bbd7b6f71a622e06d2,2021-11-01_09h20.42.543,forced_choiceRT_color,2021.2.3,Win32,60.0060006,,,,,,,,7,Ontime,long,f,1,1.996,0,0,0,1,1,,,,,
0.24,,,,,,,,,j,red,6011d8bbd7b6f71a622e06d2,2021-11-01_09h20.42.543,forced_choiceRT_color,2021.2.3,Win32,60.0060006,,,,,,,,7,Ontime,long,j,1,1.9617,0,1,1,2,1,,,,,
1.99,,,,,,,,,d,orange,6011d8bbd7b6f71a622e06d2,2021-11-01_09h20.42.543,forced_choiceRT_color,2021.2.3,Win32,60.0060006,,,,,,,,7,Ontime,long,j,0,1.9989,0,2,2,0,1,,,,,
0.66,,,,,,,,,j,red,6011d8bbd7b6f71a622e06d2,2021-11-01_09h20.42.543,forced_choiceRT_color,2021.2.3,Win32,60.0060006,,,,,,,,7,Ontime,long,j,1,2.0475,0,3,3,2,1,,,,,
0.52,,,,,,,,,f,blue,6011d8bbd7b6f71a622e06d2,2021-11-01_09h20.42.543,forced_choiceRT_color,2021.2.3,Win32,60.0060006,,,,,,,,7,Ontime,long,f,1,1.9489,1,0,4,1,1,,,,,
1.48,,,,,,,,,j,red,6011d8bbd7b6f71a622e06d2,2021-11-01_09h20.42.543,forced_choiceRT_color,2021.2.3,Win32,60.0060006,,,,,,,,7,Ontime,long,j,1,1.9495,1,1,5,2,1,,,,,
1.97,,,,,,,,,k,purple,6011d8bbd7b6f71a622e06d2,2021-11-01_09h20.42.543,forced_choiceRT_color,2021.2.3,Win32,60.0060006,,,,,,,,7,Ontime,long,j,0,2.0811,1,2,6,3,1,,,,,
0.87,,,,,,,,,f,blue,6011d8bbd7b6f71a622e06d2,2021-11-01_09h20.42.543,forced_choiceRT_color,2021.2.3,Win32,60.0060006,,,,,,,,7,Ontime,long,f,1,2.098,1,3,7,1,1,,,,,
1.61,,,,,,,,,k,purple,6011d8bbd7b6f71a622e06d2,2021-11-01_09h20.42.543,forced_choiceRT_color,2021.2.3,Win32,60.0060006,,,,,,,,7,Ontime,long,j,0,2.0148,2,0,8,3,1,,,,,
1.47,,,,,,,,,d,orange,6011d8bbd7b6f71a622e06d2,2021-11-01_09h20.42.543,forced_choiceRT_color,2021.2.3,Win32,60.0060006,,,,,,,,7,Ontime,long,j,0,2.0451,2,1,9,0,1,,,,,
1.85,,,,,,,,,j,red,6011d8bbd7b6f71a622e06d2,2021-11-01_09h20.42.543,forced_choiceRT_color,2021.2.3,Win32,60.0060006,,,,,,,,7,Ontime,long,j,1,2.0674,2,2,10,2,1,,,,,
1.74,,,,,,,,,f,blue,6011d8bbd7b6f71a622e06d2,2021-11-01_09h20.42.543,forced_choiceRT_color,2021.2.3,Win32,60.0060006,,,,,,,,7,Ontime,long,j,0,2.0081,2,3,11,1,1,,,,,
0.71,,,,,,,,,j,red,6011d8bbd7b6f71a622e06d2,2021-11-01_09h20.42.543,forced_choiceRT_color,2021.2.3,Win32,60.0060006,,,,,,,,7,Ontime,long,j,1,1.9992,3,0,12,2,1,,,,,
1.34,,,,,,,,,f,blue,6011d8bbd7b6f71a622e06d2,2021-11-01_09h20.42.543,forced_choiceRT_color,2021.2.3,Win32,60.0060006,,,,,,,,7,Ontime,long,f,1,1.9807,3,1,13,1,1,,,,,
1.47,,,,,,,,,k,purple,6011d8bbd7b6f71a622e06d2,2021-11-01_09h20.42.543,forced_choiceRT_color,2021.2.3,Win32,60.0060006,,,,,,,,7,Ontime,long,k,1,2.0603,3,2,14,3,1,,,,,
1.85,,,,,,,,,j,red,6011d8bbd7b6f71a622e06d2,2021-11-01_09h20.42.543,forced_choiceRT_color,2021.2.3,Win32,60.0060006,,,,,,,,7,Slow,long,k,0,2.1774,3,3,15,2,1,,,,,
1.16,,,,,,,,,d,orange,6011d8bbd7b6f71a622e06d2,2021-11-01_09h20.42.543,forced_choiceRT_color,2021.2.3,Win32,60.0060006,,,,,,,,7,Ontime,long,d,1,2.0768,4,0,16,0,1,,,,,
0.18,,,,,,,,,d,orange,6011d8bbd7b6f71a622e06d2,2021-11-01_09h20.42.543,forced_choiceRT_color,2021.2.3,Win32,60.0060006,,,,,,,,7,Ontime,long,d,1,1.9639,4,1,17,0,1,,,,,
1.61,,,,,,,,,f,blue,6011d8bbd7b6f71a622e06d2,2021-11-01_09h20.42.543,forced_choiceRT_color,2021.2.3,Win32,60.0060006,,,,,,,,7,Ontime,long,j,0,1.9546,4,2,18,1,1,,,,,
0.9,,,,,,,,,k,purple,6011d8bbd7b6f71a622e06d2,2021-11-01_09h20.42.543,forced_choiceRT_color,2021.2.3,Win32,60.0060006,,,,,,,,7,Ontime,long,k,1,1.9958,4,3,19,3,1,,,,,
1.74,,,,,,,,,d,orange,6011d8bbd7b6f71a622e06d2,2021-11-01_09h20.42.543,forced_choiceRT_color,2021.2.3,Win32,60.0060006,,,,,,,,7,Ontime,long,j,0,1.9804,5,0,20,0,1,,,,,
1.55,,,,,,,,,f,blue,6011d8bbd7b6f71a622e06d2,2021-11-01_09h20.42.543,forced_choiceRT_color,2021.2.3,Win32,60.0060006,,,,,,,,7,Ontime,long,f,1,2.064,5,1,21,1,1,,,,,
0.09,,,,,,,,,f,blue,6011d8bbd7b6f71a622e06d2,2021-11-01_09h20.42.543,forced_choiceRT_color,2021.2.3,Win32,60.0060006,,,,,,,,7,Ontime,long,f,1,2.0136,5,2,22,1,1,,,,,
1.54,,,,,,,,,j,red,6011d8bbd7b6f71a622e06d2,2021-11-01_09h20.42.543,forced_choiceRT_color,2021.2.3,Win32,60.0060006,,,,,,,,7,Ontime,long,j,1,2.0157,5,3,23,2,1,,,,,
1.2,,,,,,,,,k,purple,6011d8bbd7b6f71a622e06d2,2021-11-01_09h20.42.543,forced_choiceRT_color,2021.2.3,Win32,60.0060006,,,,,,,,7,Ontime,long,k,1,2.0522,6,0,24,3,1,,,,,
0.68,,,,,,,,,j,red,6011d8bbd7b6f71a622e06d2,2021-11-01_09h20.42.543,forced_choiceRT_color,2021.2.3,Win32,60.0060006,,,,,,,,7,Ontime,long,j,1,2.0188,6,1,25,2,1,,,,,
1.69,,,,,,,,,j,red,6011d8bbd7b6f71a622e06d2,2021-11-01_09h20.42.543,forced_choiceRT_color,2021.2.3,Win32,60.0060006,,,,,,,,7,Ontime,long,j,1,2.0001,6,2,26,2,1,,,,,
1.74,,,,,,,,,d,orange,6011d8bbd7b6f71a622e06d2,2021-11-01_09h20.42.543,forced_choiceRT_color,2021.2.3,Win32,60.0060006,,,,,,,,7,Ontime,long,f,0,2.0453,6,3,27,0,1,,,,,
0.37,,,,,,,,,d,orange,6011d8bbd7b6f71a622e06d2,2021-11-01_09h20.42.543,forced_choiceRT_color,2021.2.3,Win32,60.0060006,,,,,,,,7,Ontime,long,d,1,1.9958,7,0,28,0,1,,,,,
0.79,,,,,,,,,f,blue,6011d8bbd7b6f71a622e06d2,2021-11-01_09h20.42.543,forced_choiceRT_color,2021.2.3,Win32,60.0060006,,,,,,,,7,Ontime,long,f,1,2.0194,7,1,29,1,1,,,,,
1.74,,,,,,,,,d,orange,6011d8bbd7b6f71a622e06d2,2021-11-01_09h20.42.543,forced_choiceRT_color,2021.2.3,Win32,60.0060006,,,,,,,,7,Ontime,long,j,0,2.0012,7,2,30,0,1,,,,,
0.83,,,,,,,,,k,purple,6011d8bbd7b6f71a622e06d2,2021-11-01_09h20.42.543,forced_choiceRT_color,2021.2.3,Win32,60.0060006,,,,,,,,7,Slow,long,k,1,2.2613,7,3,31,3,1,,,,,
1.79,,,,,,,,,d,orange,6011d8bbd7b6f71a622e06d2,2021-11-01_09h20.42.543,forced_choiceRT_color,2021.2.3,Win32,60.0060006,,,,,,,,7,Ontime,long,j,0,2.0811,8,0,32,0,1,,,,,
1.11,,,,,,,,,f,blue,6011d8bbd7b6f71a622e06d2,2021-11-01_09h20.42.543,forced_choiceRT_color,2021.2.3,Win32,60.0060006,,,,,,,,7,Slow,long,f,1,2.4723,8,1,33,1,1,,,,,
0.31,,,,,,,,,k,purple,6011d8bbd7b6f71a622e06d2,2021-11-01_09h20.42.543,forced_choiceRT_color,2021.2.3,Win32,60.0060006,,,,,,,,7,Fast,long,k,1,1.7494,8,2,34,3,1,,,,,
0.93,,,,,,,,,k,purple,6011d8bbd7b6f71a622e06d2,2021-11-01_09h20.42.543,forced_choiceRT_color,2021.2.3,Win32,60.0060006,,,,,,,,7,Ontime,long,k,1,2.0698,8,3,35,3,1,,,,,
1.92,,,,,,,,,j,red,6011d8bbd7b6f71a622e06d2,2021-11-01_09h20.42.543,forced_choiceRT_color,2021.2.3,Win32,60.0060006,,,,,,,,7,Slow,long,j,1,2.1225,9,0,36,2,1,,,,,
1.09,,,,,,,,,k,purple,6011d8bbd7b6f71a622e06d2,2021-11-01_09h20.42.543,forced_choiceRT_color,2021.2.3,Win32,60.0060006,,,,,,,,7,Ontime,long,k,1,2.072,9,1,37,3,1,,,,,
0.02,,,,,,,,,d,orange,6011d8bbd7b6f71a622e06d2,2021-11-01_09h20.42.543,forced_choiceRT_color,2021.2.3,Win32,60.0060006,,,,,,,,7,Ontime,long,d,1,1.988,9,2,38,0,1,,,,,
0.07,,,,,,,,,k,purple,6011d8bbd7b6f71a622e06d2,2021-11-01_09h20.42.543,forced_choiceRT_color,2021.2.3,Win32,60.0060006,,,,,,,,7,Ontime,long,k,1,2.0015,9,3,39,3,1,,,,,
,,,,,,,,,,,6011d8bbd7b6f71a622e06d2,2021-11-01_09h20.42.543,forced_choiceRT_color,2021.2.3,Win32,60.0060006,,,,,,,,,,,,,,,,,,,6,0,6,0,1
0.47,,,,,,,,,k,purple,6011d8bbd7b6f71a622e06d2,2021-11-01_09h20.42.543,forced_choiceRT_color,2021.2.3,Win32,60.0060006,,,,,,,,8,Ontime,long,k,1,2.0008,0,0,0,3,1,,,,,
0.33,,,,,,,,,d,orange,6011d8bbd7b6f71a622e06d2,2021-11-01_09h20.42.543,forced_choiceRT_color,2021.2.3,Win32,60.0060006,,,,,,,,8,Ontime,long,d,1,2.0168,0,1,1,0,1,,,,,
1.04,,,,,,,,,d,orange,6011d8bbd7b6f71a622e06d2,2021-11-01_09h20.42.543,forced_choiceRT_color,2021.2.3,Win32,60.0060006,,,,,,,,8,Ontime,long,d,1,2.0306,0,2,2,0,1,,,,,
0.92,,,,,,,,,d,orange,6011d8bbd7b6f71a622e06d2,2021-11-01_09h20.42.543,forced_choiceRT_color,2021.2.3,Win32,60.0060006,,,,,,,,8,Ontime,long,d,1,2.0039,0,3,3,0,1,,,,,
0.4,,,,,,,,,j,red,6011d8bbd7b6f71a622e06d2,2021-11-01_09h20.42.543,forced_choiceRT_color,2021.2.3,Win32,60.0060006,,,,,,,,8,Ontime,long,j,1,1.9953,1,0,4,2,1,,,,,
1.37,,,,,,,,,f,blue,6011d8bbd7b6f71a622e06d2,2021-11-01_09h20.42.543,forced_choiceRT_color,2021.2.3,Win32,60.0060006,,,,,,,,8,Ontime,long,f,1,2.0984,1,1,5,1,1,,,,,
0.45,,,,,,,,,d,orange,6011d8bbd7b6f71a622e06d2,2021-11-01_09h20.42.543,forced_choiceRT_color,2021.2.3,Win32,60.0060006,,,,,,,,8,Ontime,long,d,1,1.9678,1,2,6,0,1,,,,,
1.14,,,,,,,,,f,blue,6011d8bbd7b6f71a622e06d2,2021-11-01_09h20.42.543,forced_choiceRT_color,2021.2.3,Win32,60.0060006,,,,,,,,8,Ontime,long,f,1,2.0308,1,3,7,1,1,,,,,
0.26,,,,,,,,,k,purple,6011d8bbd7b6f71a622e06d2,2021-11-01_09h20.42.543,forced_choiceRT_color,2021.2.3,Win32,60.0060006,,,,,,,,8,Ontime,long,k,1,2.024,2,0,8,3,1,,,,,
0.43,,,,,,,,,j,red,6011d8bbd7b6f71a622e06d2,2021-11-01_09h20.42.543,forced_choiceRT_color,2021.2.3,Win32,60.0060006,,,,,,,,8,Fast,long,j,1,1.7011,2,1,9,2,1,,,,,
1.76,,,,,,,,,j,red,6011d8bbd7b6f71a622e06d2,2021-11-01_09h20.42.543,forced_choiceRT_color,2021.2.3,Win32,60.0060006,,,,,,,,8,Ontime,long,j,1,2.0169,2,2,10,2,1,,,,,
1.52,,,,,,,,,d,orange,6011d8bbd7b6f71a622e06d2,2021-11-01_09h20.42.543,forced_choiceRT_color,2021.2.3,Win32,60.0060006,,,,,,,,8,Fast,long,j,0,1.8867,2,3,11,0,1,,,,,
1.66,,,,,,,,,j,red,6011d8bbd7b6f71a622e06d2,2021-11-01_09h20.42.543,forced_choiceRT_color,2021.2.3,Win32,60.0060006,,,,,,,,8,Slow,long,j,1,2.1985,3,0,12,2,1,,,,,
0.15,,,,,,,,,f,blue,6011d8bbd7b6f71a622e06d2,2021-11-01_09h20.42.543,forced_choiceRT_color,2021.2.3,Win32,60.0060006,,,,,,,,8,Ontime,long,f,1,1.9753,3,1,13,1,1,,,,,
0.46,,,,,,,,,d,orange,6011d8bbd7b6f71a622e06d2,2021-11-01_09h20.42.543,forced_choiceRT_color,2021.2.3,Win32,60.0060006,,,,,,,,8,Ontime,long,d,1,2.0193,3,2,14,0,1,,,,,
1.74,,,,,,,,,f,blue,6011d8bbd7b6f71a622e06d2,2021-11-01_09h20.42.543,forced_choiceRT_color,2021.2.3,Win32,60.0060006,,,,,,,,8,Ontime,long,j,0,1.9512,3,3,15,1,1,,,,,
0.48,,,,,,,,,j,red,6011d8bbd7b6f71a622e06d2,2021-11-01_09h20.42.543,forced_choiceRT_color,2021.2.3,Win32,60.0060006,,,,,,,,8,Ontime,long,j,1,1.9768,4,0,16,2,1,,,,,
0.22,,,,,,,,,k,purple,6011d8bbd7b6f71a622e06d2,2021-11-01_09h20.42.543,forced_choiceRT_color,2021.2.3,Win32,60.0060006,,,,,,,,8,Ontime,long,k,1,2.0377,4,1,17,3,1,,,,,
0.89,,,,,,,,,k,purple,6011d8bbd7b6f71a622e06d2,2021-11-01_09h20.42.543,forced_choiceRT_color,2021.2.3,Win32,60.0060006,,,,,,,,8,Ontime,long,k,1,2.0237,4,2,18,3,1,,,,,
0.52,,,,,,,,,k,purple,6011d8bbd7b6f71a622e06d2,2021-11-01_09h20.42.543,forced_choiceRT_color,2021.2.3,Win32,60.0060006,,,,,,,,8,Ontime,long,k,1,2.0005,4,3,19,3,1,,,,,
1.59,,,,,,,,,j,red,6011d8bbd7b6f71a622e06d2,2021-11-01_09h20.42.543,forced_choiceRT_color,2021.2.3,Win32,60.0060006,,,,,,,,8,Ontime,long,j,1,2.0005,5,0,20,2,1,,,,,
0.69,,,,,,,,,k,purple,6011d8bbd7b6f71a622e06d2,2021-11-01_09h20.42.543,forced_choiceRT_color,2021.2.3,Win32,60.0060006,,,,,,,,8,Ontime,long,k,1,2.0359,5,1,21,3,1,,,,,
1.57,,,,,,,,,j,red,6011d8bbd7b6f71a622e06d2,2021-11-01_09h20.42.543,forced_choiceRT_color,2021.2.3,Win32,60.0060006,,,,,,,,8,Slow,long,j,1,2.1034,5,2,22,2,1,,,,,
1.38,,,,,,,,,d,orange,6011d8bbd7b6f71a622e06d2,2021-11-01_09h20.42.543,forced_choiceRT_color,2021.2.3,Win32,60.0060006,,,,,,,,8,Ontime,long,d,1,2.0725,5,3,23,0,1,,,,,
0.38,,,,,,,,,f,blue,6011d8bbd7b6f71a622e06d2,2021-11-01_09h20.42.543,forced_choiceRT_color,2021.2.3,Win32,60.0060006,,,,,,,,8,Ontime,long,f,1,1.95,6,0,24,1,1,,,,,
0.07,,,,,,,,,f,blue,6011d8bbd7b6f71a622e06d2,2021-11-01_09h20.42.543,forced_choiceRT_color,2021.2.3,Win32,60.0060006,,,,,,,,8,Ontime,long,f,1,1.9728,6,1,25,1,1,,,,,
1.11,,,,,,,,,f,blue,6011d8bbd7b6f71a622e06d2,2021-11-01_09h20.42.543,forced_choiceRT_color,2021.2.3,Win32,60.0060006,,,,,,,,8,Ontime,long,f,1,2.0242,6,2,26,1,1,,,,,
0.19,,,,,,,,,j,red,6011d8bbd7b6f71a622e06d2,2021-11-01_09h20.42.543,forced_choiceRT_color,2021.2.3,Win32,60.0060006,,,,,,,,8,Ontime,long,j,1,1.971,6,3,27,2,1,,,,,
0.33,,,,,,,,,f,blue,6011d8bbd7b6f71a622e06d2,2021-11-01_09h20.42.543,forced_choiceRT_color,2021.2.3,Win32,60.0060006,,,,,,,,8,Ontime,long,f,1,1.9522,7,0,28,1,1,,,,,
1.48,,,,,,,,,f,blue,6011d8bbd7b6f71a622e06d2,2021-11-01_09h20.42.543,forced_choiceRT_color,2021.2.3,Win32,60.0060006,,,,,,,,8,Ontime,long,f,1,2.0313,7,1,29,1,1,,,,,
1.53,,,,,,,,,d,orange,6011d8bbd7b6f71a622e06d2,2021-11-01_09h20.42.543,forced_choiceRT_color,2021.2.3,Win32,60.0060006,,,,,,,,8,Slow,long,k,0,2.1192,7,2,30,0,1,,,,,
0.94,,,,,,,,,d,orange,6011d8bbd7b6f71a622e06d2,2021-11-01_09h20.42.543,forced_choiceRT_color,2021.2.3,Win32,60.0060006,,,,,,,,8,Ontime,long,d,1,2.0017,7,3,31,0,1,,,,,
0.24,,,,,,,,,k,purple,6011d8bbd7b6f71a622e06d2,2021-11-01_09h20.42.543,forced_choiceRT_color,2021.2.3,Win32,60.0060006,,,,,,,,8,Ontime,long,k,1,1.9819,8,0,32,3,1,,,,,
1.56,,,,,,,,,k,purple,6011d8bbd7b6f71a622e06d2,2021-11-01_09h20.42.543,forced_choiceRT_color,2021.2.3,Win32,60.0060006,,,,,,,,8,Slow,long,k,1,2.1165,8,1,33,3,1,,,,,
1.73,,,,,,,,,j,red,6011d8bbd7b6f71a622e06d2,2021-11-01_09h20.42.543,forced_choiceRT_color,2021.2.3,Win32,60.0060006,,,,,,,,8,Slow,long,j,1,2.198,8,2,34,2,1,,,,,
0.58,,,,,,,,,k,purple,6011d8bbd7b6f71a622e06d2,2021-11-01_09h20.42.543,forced_choiceRT_color,2021.2.3,Win32,60.0060006,,,,,,,,8,Ontime,long,k,1,2.0026,8,3,35,3,1,,,,,
0.64,,,,,,,,,j,red,6011d8bbd7b6f71a622e06d2,2021-11-01_09h20.42.543,forced_choiceRT_color,2021.2.3,Win32,60.0060006,,,,,,,,8,Ontime,long,j,1,1.9881,9,0,36,2,1,,,,,
0.09,,,,,,,,,f,blue,6011d8bbd7b6f71a622e06d2,2021-11-01_09h20.42.543,forced_choiceRT_color,2021.2.3,Win32,60.0060006,,,,,,,,8,Ontime,long,f,1,1.9802,9,1,37,1,1,,,,,
0.01,,,,,,,,,d,orange,6011d8bbd7b6f71a622e06d2,2021-11-01_09h20.42.543,forced_choiceRT_color,2021.2.3,Win32,60.0060006,,,,,,,,8,Ontime,long,d,1,2.0001,9,2,38,0,1,,,,,
0.42,,,,,,,,,k,purple,6011d8bbd7b6f71a622e06d2,2021-11-01_09h20.42.543,forced_choiceRT_color,2021.2.3,Win32,60.0060006,,,,,,,,8,Ontime,long,k,1,2.0292,9,3,39,3,1,,,,,
,,,,,,,,,,,6011d8bbd7b6f71a622e06d2,2021-11-01_09h20.42.543,forced_choiceRT_color,2021.2.3,Win32,60.0060006,,,,,,,,,,,,,,,,,,,7,0,7,0,1
0.27,,,,,,,,,k,purple,6011d8bbd7b6f71a622e06d2,2021-11-01_09h20.42.543,forced_choiceRT_color,2021.2.3,Win32,60.0060006,,,,,,,,9,Ontime,long,k,1,2.0069,0,0,0,3,1,,,,,
1.96,,,,,,,,,j,red,6011d8bbd7b6f71a622e06d2,2021-11-01_09h20.42.543,forced_choiceRT_color,2021.2.3,Win32,60.0060006,,,,,,,,9,Ontime,long,k,0,2.0805,0,1,1,2,1,,,,,
0.56,,,,,,,,,k,purple,6011d8bbd7b6f71a622e06d2,2021-11-01_09h20.42.543,forced_choiceRT_color,2021.2.3,Win32,60.0060006,,,,,,,,9,Ontime,long,k,1,2.0173,0,2,2,3,1,,,,,
0.29,,,,,,,,,k,purple,6011d8bbd7b6f71a622e06d2,2021-11-01_09h20.42.543,forced_choiceRT_color,2021.2.3,Win32,60.0060006,,,,,,,,9,Ontime,long,k,1,2.0405,0,3,3,3,1,,,,,
0.4,,,,,,,,,k,purple,6011d8bbd7b6f71a622e06d2,2021-11-01_09h20.42.543,forced_choiceRT_color,2021.2.3,Win32,60.0060006,,,,,,,,9,Ontime,long,k,1,2.0513,1,0,4,3,1,,,,,
1.39,,,,,,,,,j,red,6011d8bbd7b6f71a622e06d2,2021-11-01_09h20.42.543,forced_choiceRT_color,2021.2.3,Win32,60.0060006,,,,,,,,9,Slow,long,j,1,2.1027,1,1,5,2,1,,,,,
0.03,,,,,,,,,d,orange,6011d8bbd7b6f71a622e06d2,2021-11-01_09h20.42.543,forced_choiceRT_color,2021.2.3,Win32,60.0060006,,,,,,,,9,Ontime,long,d,1,2.0265,1,2,6,0,1,,,,,
1.97,,,,,,,,,f,blue,6011d8bbd7b6f71a622e06d2,2021-11-01_09h20.42.543,forced_choiceRT_color,2021.2.3,Win32,60.0060006,,,,,,,,9,Slow,long,f,1,2.1689,1,3,7,1,1,,,,,
1.38,,,,,,,,,f,blue,6011d8bbd7b6f71a622e06d2,2021-11-01_09h20.42.543,forced_choiceRT_color,2021.2.3,Win32,60.0060006,,,,,,,,9,Ontime,long,f,1,1.9885,2,0,8,1,1,,,,,
1.79,,,,,,,,,j,red,6011d8bbd7b6f71a622e06d2,2021-11-01_09h20.42.543,forced_choiceRT_color,2021.2.3,Win32,60.0060006,,,,,,,,9,Slow,long,d,0,2.1493,2,1,9,2,1,,,,,
0.49,,,,,,,,,d,orange,6011d8bbd7b6f71a622e06d2,2021-11-01_09h20.42.543,forced_choiceRT_color,2021.2.3,Win32,60.0060006,,,,,,,,9,Fast,long,d,1,1.8498,2,2,10,0,1,,,,,
0.24,,,,,,,,,f,blue,6011d8bbd7b6f71a622e06d2,2021-11-01_09h20.42.543,forced_choiceRT_color,2021.2.3,Win32,60.0060006,,,,,,,,9,Ontime,long,f,1,2.051,2,3,11,1,1,,,,,
1.4,,,,,,,,,j,red,6011d8bbd7b6f71a622e06d2,2021-11-01_09h20.42.543,forced_choiceRT_color,2021.2.3,Win32,60.0060006,,,,,,,,9,Ontime,long,j,1,2.0502,3,0,12,2,1,,,,,
0.28,,,,,,,,,f,blue,6011d8bbd7b6f71a622e06d2,2021-11-01_09h20.42.543,forced_choiceRT_color,2021.2.3,Win32,60.0060006,,,,,,,,9,Ontime,long,f,1,2.0875,3,1,13,1,1,,,,,
0.13,,,,,,,,,d,orange,6011d8bbd7b6f71a622e06d2,2021-11-01_09h20.42.543,forced_choiceRT_color,2021.2.3,Win32,60.0060006,,,,,,,,9,Ontime,long,d,1,2.0503,3,2,14,0,1,,,,,
0.75,,,,,,,,,f,blue,6011d8bbd7b6f71a622e06d2,2021-11-01_09h20.42.543,forced_choiceRT_color,2021.2.3,Win32,60.0060006,,,,,,,,9,Ontime,long,f,1,1.9172,3,3,15,1,1,,,,,
0.04,,,,,,,,,d,orange,6011d8bbd7b6f71a622e06d2,2021-11-01_09h20.42.543,forced_choiceRT_color,2021.2.3,Win32,60.0060006,,,,,,,,9,Ontime,long,d,1,2.034,4,0,16,0,1,,,,,
1.89,,,,,,,,,j,red,6011d8bbd7b6f71a622e06d2,2021-11-01_09h20.42.543,forced_choiceRT_color,2021.2.3,Win32,60.0060006,,,,,,,,9,Ontime,long,j,1,1.9995,4,1,17,2,1,,,,,
1.72,,,,,,,,,j,red,6011d8bbd7b6f71a622e06d2,2021-11-01_09h20.42.543,forced_choiceRT_color,2021.2.3,Win32,60.0060006,,,,,,,,9,Ontime,long,j,1,1.9333,4,2,18,2,1,,,,,
1.59,,,,,,,,,d,orange,6011d8bbd7b6f71a622e06d2,2021-11-01_09h20.42.543,forced_choiceRT_color,2021.2.3,Win32,60.0060006,,,,,,,,9,Slow,long,j,0,2.1858,4,3,19,0,1,,,,,
1.27,,,,,,,,,d,orange,6011d8bbd7b6f71a622e06d2,2021-11-01_09h20.42.543,forced_choiceRT_color,2021.2.3,Win32,60.0060006,,,,,,,,9,Fast,long,d,1,1.7841,5,0,20,0,1,,,,,
0.65,,,,,,,,,j,red,6011d8bbd7b6f71a622e06d2,2021-11-01_09h20.42.543,forced_choiceRT_color,2021.2.3,Win32,60.0060006,,,,,,,,9,Ontime,long,j,1,2.04,5,1,21,2,1,,,,,
0.61,,,,,,,,,k,purple,6011d8bbd7b6f71a622e06d2,2021-11-01_09h20.42.543,forced_choiceRT_color,2021.2.3,Win32,60.0060006,,,,,,,,9,Ontime,long,k,1,2.0677,5,2,22,3,1,,,,,
0,,,,,,,,,k,purple,6011d8bbd7b6f71a622e06d2,2021-11-01_09h20.42.543,forced_choiceRT_color,2021.2.3,Win32,60.0060006,,,,,,,,9,Ontime,long,k,1,2.0422,5,3,23,3,1,,,,,
1.93,,,,,,,,,j,red,6011d8bbd7b6f71a622e06d2,2021-11-01_09h20.42.543,forced_choiceRT_color,2021.2.3,Win32,60.0060006,,,,,,,,9,Ontime,long,k,0,2.0733,6,0,24,2,1,,,,,
0.85,,,,,,,,,f,blue,6011d8bbd7b6f71a622e06d2,2021-11-01_09h20.42.543,forced_choiceRT_color,2021.2.3,Win32,60.0060006,,,,,,,,9,Ontime,long,f,1,2.0347,6,1,25,1,1,,,,,
1.91,,,,,,,,,k,purple,6011d8bbd7b6f71a622e06d2,2021-11-01_09h20.42.543,forced_choiceRT_color,2021.2.3,Win32,60.0060006,,,,,,,,9,Ontime,long,f,0,2.0357,6,2,26,3,1,,,,,
1.6,,,,,,,,,j,red,6011d8bbd7b6f71a622e06d2,2021-11-01_09h20.42.543,forced_choiceRT_color,2021.2.3,Win32,60.0060006,,,,,,,,9,Ontime,long,j,1,2.0931,6,3,27,2,1,,,,,
0.68,,,,,,,,,d,orange,6011d8bbd7b6f71a622e06d2,2021-11-01_09h20.42.543,forced_choiceRT_color,2021.2.3,Win32,60.0060006,,,,,,,,9,Ontime,long,d,1,1.9909,7,0,28,0,1,,,,,
1.21,,,,,,,,,d,orange,6011d8bbd7b6f71a622e06d2,2021-11-01_09h20.42.543,forced_choiceRT_color,2021.2.3,Win32,60.0060006,,,,,,,,9,Ontime,long,d,1,2.0058,7,1,29,0,1,,,,,
1.65,,,,,,,,,f,blue,6011d8bbd7b6f71a622e06d2,2021-11-01_09h20.42.543,forced_choiceRT_color,2021.2.3,Win32,60.0060006,,,,,,,,9,Ontime,long,d,0,1.9677,7,2,30,1,1,,,,,
1.66,,,,,,,,,j,red,6011d8bbd7b6f71a622e06d2,2021-11-01_09h20.42.543,forced_choiceRT_color,2021.2.3,Win32,60.0060006,,,,,,,,9,Slow,long,d,0,2.1337,7,3,31,2,1,,,,,
0.5,,,,,,,,,f,blue,6011d8bbd7b6f71a622e06d2,2021-11-01_09h20.42.543,forced_choiceRT_color,2021.2.3,Win32,60.0060006,,,,,,,,9,Ontime,long,f,1,1.9663,8,0,32,1,1,,,,,
0.39,,,,,,,,,d,orange,6011d8bbd7b6f71a622e06d2,2021-11-01_09h20.42.543,forced_choiceRT_color,2021.2.3,Win32,60.0060006,,,,,,,,9,Ontime,long,d,1,1.954,8,1,33,0,1,,,,,
0.29,,,,,,,,,k,purple,6011d8bbd7b6f71a622e06d2,2021-11-01_09h20.42.543,forced_choiceRT_color,2021.2.3,Win32,60.0060006,,,,,,,,9,Ontime,long,k,1,1.9979,8,2,34,3,1,,,,,
0.65,,,,,,,,,k,purple,6011d8bbd7b6f71a622e06d2,2021-11-01_09h20.42.543,forced_choiceRT_color,2021.2.3,Win32,60.0060006,,,,,,,,9,Ontime,long,k,1,2.0501,8,3,35,3,1,,,,,
0.57,,,,,,,,,f,blue,6011d8bbd7b6f71a622e06d2,2021-11-01_09h20.42.543,forced_choiceRT_color,2021.2.3,Win32,60.0060006,,,,,,,,9,Slow,long,f,1,2.1001,9,0,36,1,1,,,,,
1.92,,,,,,,,,d,orange,6011d8bbd7b6f71a622e06d2,2021-11-01_09h20.42.543,forced_choiceRT_color,2021.2.3,Win32,60.0060006,,,,,,,,9,Ontime,long,j,0,2.0003,9,1,37,0,1,,,,,
1.41,,,,,,,,,f,blue,6011d8bbd7b6f71a622e06d2,2021-11-01_09h20.42.543,forced_choiceRT_color,2021.2.3,Win32,60.0060006,,,,,,,,9,Fast,long,d,0,1.7028,9,2,38,1,1,,,,,
0.5,,,,,,,,,k,purple,6011d8bbd7b6f71a622e06d2,2021-11-01_09h20.42.543,forced_choiceRT_color,2021.2.3,Win32,60.0060006,,,,,,,,9,Ontime,long,k,1,2.0348,9,3,39,3,1,,,,,
,,,,,,,,,,,6011d8bbd7b6f71a622e06d2,2021-11-01_09h20.42.543,forced_choiceRT_color,2021.2.3,Win32,60.0060006,,,,,,,,,,,,,,,,,,,8,0,8,0,1
1.26,,,,,,,,,d,orange,6011d8bbd7b6f71a622e06d2,2021-11-01_09h20.42.543,forced_choiceRT_color,2021.2.3,Win32,60.0060006,,,,,,,,10,Ontime,long,d,1,2.0688,0,0,0,0,1,,,,,
1.09,,,,,,,,,k,purple,6011d8bbd7b6f71a622e06d2,2021-11-01_09h20.42.543,forced_choiceRT_color,2021.2.3,Win32,60.0060006,,,,,,,,10,Ontime,long,k,1,2.041,0,1,1,3,1,,,,,
1.09,,,,,,,,,d,orange,6011d8bbd7b6f71a622e06d2,2021-11-01_09h20.42.543,forced_choiceRT_color,2021.2.3,Win32,60.0060006,,,,,,,,10,Ontime,long,d,1,2.055,0,2,2,0,1,,,,,
0.62,,,,,,,,,k,purple,6011d8bbd7b6f71a622e06d2,2021-11-01_09h20.42.543,forced_choiceRT_color,2021.2.3,Win32,60.0060006,,,,,,,,10,Ontime,long,k,1,2.0355,0,3,3,3,1,,,,,
1.42,,,,,,,,,d,orange,6011d8bbd7b6f71a622e06d2,2021-11-01_09h20.42.543,forced_choiceRT_color,2021.2.3,Win32,60.0060006,,,,,,,,10,Ontime,long,d,1,2.0407,1,0,4,0,1,,,,,
1.82,,,,,,,,,j,red,6011d8bbd7b6f71a622e06d2,2021-11-01_09h20.42.543,forced_choiceRT_color,2021.2.3,Win32,60.0060006,,,,,,,,10,Ontime,long,d,0,2.0376,1,1,5,2,1,,,,,
1.43,,,,,,,,,d,orange,6011d8bbd7b6f71a622e06d2,2021-11-01_09h20.42.543,forced_choiceRT_color,2021.2.3,Win32,60.0060006,,,,,,,,10,Ontime,long,d,1,2.0175,1,2,6,0,1,,,,,
1.54,,,,,,,,,k,purple,6011d8bbd7b6f71a622e06d2,2021-11-01_09h20.42.543,forced_choiceRT_color,2021.2.3,Win32,60.0060006,,,,,,,,10,Slow,long,k,1,2.1002,1,3,7,3,1,,,,,
1.47,,,,,,,,,j,red,6011d8bbd7b6f71a622e06d2,2021-11-01_09h20.42.543,forced_choiceRT_color,2021.2.3,Win32,60.0060006,,,,,,,,10,Ontime,long,j,1,2.0724,2,0,8,2,1,,,,,
1.07,,,,,,,,,d,orange,6011d8bbd7b6f71a622e06d2,2021-11-01_09h20.42.543,forced_choiceRT_color,2021.2.3,Win32,60.0060006,,,,,,,,10,Ontime,long,d,1,2.0482,2,1,9,0,1,,,,,
1.93,,,,,,,,,j,red,6011d8bbd7b6f71a622e06d2,2021-11-01_09h20.42.543,forced_choiceRT_color,2021.2.3,Win32,60.0060006,,,,,,,,10,Ontime,long,j,1,2.0164,2,2,10,2,1,,,,,
0.68,,,,,,,,,j,red,6011d8bbd7b6f71a622e06d2,2021-11-01_09h20.42.543,forced_choiceRT_color,2021.2.3,Win32,60.0060006,,,,,,,,10,Ontime,long,j,1,1.9934,2,3,11,2,1,,,,,
1.11,,,,,,,,,k,purple,6011d8bbd7b6f71a622e06d2,2021-11-01_09h20.42.543,forced_choiceRT_color,2021.2.3,Win32,60.0060006,,,,,,,,10,Ontime,long,k,1,2.0565,3,0,12,3,1,,,,,
1.63,,,,,,,,,f,blue,6011d8bbd7b6f71a622e06d2,2021-11-01_09h20.42.543,forced_choiceRT_color,2021.2.3,Win32,60.0060006,,,,,,,,10,Ontime,long,j,0,1.9998,3,1,13,1,1,,,,,
0.52,,,,,,,,,d,orange,6011d8bbd7b6f71a622e06d2,2021-11-01_09h20.42.543,forced_choiceRT_color,2021.2.3,Win32,60.0060006,,,,,,,,10,Ontime,long,d,1,2.0537,3,2,14,0,1,,,,,
0.46,,,,,,,,,j,red,6011d8bbd7b6f71a622e06d2,2021-11-01_09h20.42.543,forced_choiceRT_color,2021.2.3,Win32,60.0060006,,,,,,,,10,Ontime,long,j,1,2.0378,3,3,15,2,1,,,,,
1.06,,,,,,,,,f,blue,6011d8bbd7b6f71a622e06d2,2021-11-01_09h20.42.543,forced_choiceRT_color,2021.2.3,Win32,60.0060006,,,,,,,,10,Ontime,long,f,1,2.0518,4,0,16,1,1,,,,,
1.87,,,,,,,,,j,red,6011d8bbd7b6f71a622e06d2,2021-11-01_09h20.42.543,forced_choiceRT_color,2021.2.3,Win32,60.0060006,,,,,,,,10,Slow,long,j,1,2.2495,4,1,17,2,1,,,,,
1.95,,,,,,,,,d,orange,6011d8bbd7b6f71a622e06d2,2021-11-01_09h20.42.543,forced_choiceRT_color,2021.2.3,Win32,60.0060006,,,,,,,,10,Ontime,long,j,0,2.07,4,2,18,0,1,,,,,
1.11,,,,,,,,,d,orange,6011d8bbd7b6f71a622e06d2,2021-11-01_09h20.42.543,forced_choiceRT_color,2021.2.3,Win32,60.0060006,,,,,,,,10,Fast,long,d,1,1.6465,4,3,19,0,1,,,,,
0.73,,,,,,,,,f,blue,6011d8bbd7b6f71a622e06d2,2021-11-01_09h20.42.543,forced_choiceRT_color,2021.2.3,Win32,60.0060006,,,,,,,,10,Ontime,long,f,1,1.9762,5,0,20,1,1,,,,,
1.06,,,,,,,,,f,blue,6011d8bbd7b6f71a622e06d2,2021-11-01_09h20.42.543,forced_choiceRT_color,2021.2.3,Win32,60.0060006,,,,,,,,10,Ontime,long,f,1,2.0529,5,1,21,1,1,,,,,
1.88,,,,,,,,,f,blue,6011d8bbd7b6f71a622e06d2,2021-11-01_09h20.42.543,forced_choiceRT_color,2021.2.3,Win32,60.0060006,,,,,,,,10,Ontime,long,f,1,2.0891,5,2,22,1,1,,,,,
1.32,,,,,,,,,f,blue,6011d8bbd7b6f71a622e06d2,2021-11-01_09h20.42.543,forced_choiceRT_color,2021.2.3,Win32,60.0060006,,,,,,,,10,Ontime,long,f,1,2.0478,5,3,23,1,1,,,,,
1.44,,,,,,,,,k,purple,6011d8bbd7b6f71a622e06d2,2021-11-01_09h20.42.543,forced_choiceRT_color,2021.2.3,Win32,60.0060006,,,,,,,,10,Ontime,long,k,1,2.0677,6,0,24,3,1,,,,,
0.05,,,,,,,,,k,purple,6011d8bbd7b6f71a622e06d2,2021-11-01_09h20.42.543,forced_choiceRT_color,2021.2.3,Win32,60.0060006,,,,,,,,10,Ontime,long,k,1,2.02,6,1,25,3,1,,,,,
0.36,,,,,,,,,j,red,6011d8bbd7b6f71a622e06d2,2021-11-01_09h20.42.543,forced_choiceRT_color,2021.2.3,Win32,60.0060006,,,,,,,,10,Ontime,long,j,1,2.0335,6,2,26,2,1,,,,,
0.66,,,,,,,,,k,purple,6011d8bbd7b6f71a622e06d2,2021-11-01_09h20.42.543,forced_choiceRT_color,2021.2.3,Win32,60.0060006,,,,,,,,10,Ontime,long,k,1,2.0503,6,3,27,3,1,,,,,
0.75,,,,,,,,,f,blue,6011d8bbd7b6f71a622e06d2,2021-11-01_09h20.42.543,forced_choiceRT_color,2021.2.3,Win32,60.0060006,,,,,,,,10,Ontime,long,f,1,2.0096,7,0,28,1,1,,,,,
0.86,,,,,,,,,k,purple,6011d8bbd7b6f71a622e06d2,2021-11-01_09h20.42.543,forced_choiceRT_color,2021.2.3,Win32,60.0060006,,,,,,,,10,Ontime,long,k,1,2.0087,7,1,29,3,1,,,,,
0.7,,,,,,,,,k,purple,6011d8bbd7b6f71a622e06d2,2021-11-01_09h20.42.543,forced_choiceRT_color,2021.2.3,Win32,60.0060006,,,,,,,,10,Ontime,long,k,1,2.0834,7,2,30,3,1,,,,,
1.05,,,,,,,,,f,blue,6011d8bbd7b6f71a622e06d2,2021-11-01_09h20.42.543,forced_choiceRT_color,2021.2.3,Win32,60.0060006,,,,,,,,10,Ontime,long,f,1,2.0321,7,3,31,1,1,,,,,
0.89,,,,,,,,,f,blue,6011d8bbd7b6f71a622e06d2,2021-11-01_09h20.42.543,forced_choiceRT_color,2021.2.3,Win32,60.0060006,,,,,,,,10,Ontime,long,f,1,2.051,8,0,32,1,1,,,,,
1.86,,,,,,,,,d,orange,6011d8bbd7b6f71a622e06d2,2021-11-01_09h20.42.543,forced_choiceRT_color,2021.2.3,Win32,60.0060006,,,,,,,,10,Slow,long,j,0,2.1168,8,1,33,0,1,,,,,
1.88,,,,,,,,,d,orange,6011d8bbd7b6f71a622e06d2,2021-11-01_09h20.42.543,forced_choiceRT_color,2021.2.3,Win32,60.0060006,,,,,,,,10,Ontime,long,j,0,2.0838,8,2,34,0,1,,,,,
1.62,,,,,,,,,j,red,6011d8bbd7b6f71a622e06d2,2021-11-01_09h20.42.543,forced_choiceRT_color,2021.2.3,Win32,60.0060006,,,,,,,,10,Slow,long,j,1,2.1503,8,3,35,2,1,,,,,
0.52,,,,,,,,,j,red,6011d8bbd7b6f71a622e06d2,2021-11-01_09h20.42.543,forced_choiceRT_color,2021.2.3,Win32,60.0060006,,,,,,,,10,Ontime,long,j,1,2.0583,9,0,36,2,1,,,,,
0.34,,,,,,,,,j,red,6011d8bbd7b6f71a622e06d2,2021-11-01_09h20.42.543,forced_choiceRT_color,2021.2.3,Win32,60.0060006,,,,,,,,10,Ontime,long,j,1,1.9747,9,1,37,2,1,,,,,
1.26,,,,,,,,,k,purple,6011d8bbd7b6f71a622e06d2,2021-11-01_09h20.42.543,forced_choiceRT_color,2021.2.3,Win32,60.0060006,,,,,,,,10,Ontime,long,k,1,1.9339,9,2,38,3,1,,,,,
1.05,,,,,,,,,f,blue,6011d8bbd7b6f71a622e06d2,2021-11-01_09h20.42.543,forced_choiceRT_color,2021.2.3,Win32,60.0060006,,,,,,,,10,Ontime,long,f,1,2.0809,9,3,39,1,1,,,,,
,,,,,,,,,,,6011d8bbd7b6f71a622e06d2,2021-11-01_09h20.42.543,forced_choiceRT_color,2021.2.3,Win32,60.0060006,,,,,,,,,,,,,,,,,,,9,0,9,0,1
