target_onset,trial_resp_sp.keys,trial_resp_sp.corr,trial_resp_sp.rt,trials_train_loop.thisRepN,trials_train_loop.thisTrialN,trials_train_loop.thisN,trials_train_loop.thisIndex,trials_train_loop.ran,correct_key,color,participant,date,expName,psychopyVersion,OS,frameRate,trial_resp_timing.keys,trial_resp_timing.rt,trials_train_timing.thisRepN,trials_train_timing.thisTrialN,trials_train_timing.thisN,trials_train_timing.thisIndex,trials_train_timing.ran,block_id,ontime,feedback_cond,forcedRT_resp.keys,forcedRT_resp.corr,forcedRT_resp.rt,trials.thisRepN,trials.thisTrialN,trials.thisN,trials.thisIndex,trials.ran,blocks.thisRepN,blocks.thisTrialN,blocks.thisN,blocks.thisIndex,blocks.ran
0,j,1,2.1178,0,0,0,2,1,j,red,601981d7485c3e0a342183a5,2021-09-27_16h20.47.186,forced_choiceRT_color,2021.2.3,Win32,12.00624325,,,,,,,,,,,,,,,,,,,,,,,
0,d,1,1.9202,0,1,1,0,1,d,orange,601981d7485c3e0a342183a5,2021-09-27_16h20.47.186,forced_choiceRT_color,2021.2.3,Win32,12.00624325,,,,,,,,,,,,,,,,,,,,,,,
0,d,1,0.8388,0,2,2,0,1,d,orange,601981d7485c3e0a342183a5,2021-09-27_16h20.47.186,forced_choiceRT_color,2021.2.3,Win32,12.00624325,,,,,,,,,,,,,,,,,,,,,,,
0,k,1,1.2618,0,3,3,3,1,k,purple,601981d7485c3e0a342183a5,2021-09-27_16h20.47.186,forced_choiceRT_color,2021.2.3,Win32,12.00624325,,,,,,,,,,,,,,,,,,,,,,,
0,k,1,0.7279,1,0,4,3,1,k,purple,601981d7485c3e0a342183a5,2021-09-27_16h20.47.186,forced_choiceRT_color,2021.2.3,Win32,12.00624325,,,,,,,,,,,,,,,,,,,,,,,
0,k,1,0.6152,1,1,5,3,1,k,purple,601981d7485c3e0a342183a5,2021-09-27_16h20.47.186,forced_choiceRT_color,2021.2.3,Win32,12.00624325,,,,,,,,,,,,,,,,,,,,,,,
0,d,1,0.8439,1,2,6,0,1,d,orange,601981d7485c3e0a342183a5,2021-09-27_16h20.47.186,forced_choiceRT_color,2021.2.3,Win32,12.00624325,,,,,,,,,,,,,,,,,,,,,,,
0,d,1,0.7181,1,3,7,0,1,d,orange,601981d7485c3e0a342183a5,2021-09-27_16h20.47.186,forced_choiceRT_color,2021.2.3,Win32,12.00624325,,,,,,,,,,,,,,,,,,,,,,,
0,k,1,0.842,2,0,8,3,1,k,purple,601981d7485c3e0a342183a5,2021-09-27_16h20.47.186,forced_choiceRT_color,2021.2.3,Win32,12.00624325,,,,,,,,,,,,,,,,,,,,,,,
0,k,1,0.7264,2,1,9,3,1,k,purple,601981d7485c3e0a342183a5,2021-09-27_16h20.47.186,forced_choiceRT_color,2021.2.3,Win32,12.00624325,,,,,,,,,,,,,,,,,,,,,,,
0,j,1,1.1589,2,2,10,2,1,j,red,601981d7485c3e0a342183a5,2021-09-27_16h20.47.186,forced_choiceRT_color,2021.2.3,Win32,12.00624325,,,,,,,,,,,,,,,,,,,,,,,
0,k,1,0.9462,2,3,11,3,1,k,purple,601981d7485c3e0a342183a5,2021-09-27_16h20.47.186,forced_choiceRT_color,2021.2.3,Win32,12.00624325,,,,,,,,,,,,,,,,,,,,,,,
0,f,1,1.1593,3,0,12,1,1,f,blue,601981d7485c3e0a342183a5,2021-09-27_16h20.47.186,forced_choiceRT_color,2021.2.3,Win32,12.00624325,,,,,,,,,,,,,,,,,,,,,,,
0,f,1,0.8294,3,1,13,1,1,f,blue,601981d7485c3e0a342183a5,2021-09-27_16h20.47.186,forced_choiceRT_color,2021.2.3,Win32,12.00624325,,,,,,,,,,,,,,,,,,,,,,,
0,j,1,1.1572,3,2,14,2,1,j,red,601981d7485c3e0a342183a5,2021-09-27_16h20.47.186,forced_choiceRT_color,2021.2.3,Win32,12.00624325,,,,,,,,,,,,,,,,,,,,,,,
0,d,1,0.9444,3,3,15,0,1,d,orange,601981d7485c3e0a342183a5,2021-09-27_16h20.47.186,forced_choiceRT_color,2021.2.3,Win32,12.00624325,,,,,,,,,,,,,,,,,,,,,,,
0,f,1,1.2671,4,0,16,1,1,f,blue,601981d7485c3e0a342183a5,2021-09-27_16h20.47.186,forced_choiceRT_color,2021.2.3,Win32,12.00624325,,,,,,,,,,,,,,,,,,,,,,,
0,k,1,0.9457,4,1,17,3,1,k,purple,601981d7485c3e0a342183a5,2021-09-27_16h20.47.186,forced_choiceRT_color,2021.2.3,Win32,12.00624325,,,,,,,,,,,,,,,,,,,,,,,
0,d,1,0.9457,4,2,18,0,1,d,orange,601981d7485c3e0a342183a5,2021-09-27_16h20.47.186,forced_choiceRT_color,2021.2.3,Win32,12.00624325,,,,,,,,,,,,,,,,,,,,,,,
0,j,1,0.9374,4,3,19,2,1,j,red,601981d7485c3e0a342183a5,2021-09-27_16h20.47.186,forced_choiceRT_color,2021.2.3,Win32,12.00624325,,,,,,,,,,,,,,,,,,,,,,,
0,d,1,0.9512,5,0,20,0,1,d,orange,601981d7485c3e0a342183a5,2021-09-27_16h20.47.186,forced_choiceRT_color,2021.2.3,Win32,12.00624325,,,,,,,,,,,,,,,,,,,,,,,
0,j,1,0.9619,5,1,21,2,1,j,red,601981d7485c3e0a342183a5,2021-09-27_16h20.47.186,forced_choiceRT_color,2021.2.3,Win32,12.00624325,,,,,,,,,,,,,,,,,,,,,,,
0,d,1,1.053,5,2,22,0,1,d,orange,601981d7485c3e0a342183a5,2021-09-27_16h20.47.186,forced_choiceRT_color,2021.2.3,Win32,12.00624325,,,,,,,,,,,,,,,,,,,,,,,
0,k,1,0.9526,5,3,23,3,1,k,purple,601981d7485c3e0a342183a5,2021-09-27_16h20.47.186,forced_choiceRT_color,2021.2.3,Win32,12.00624325,,,,,,,,,,,,,,,,,,,,,,,
0,f,1,1.2771,6,0,24,1,1,f,blue,601981d7485c3e0a342183a5,2021-09-27_16h20.47.186,forced_choiceRT_color,2021.2.3,Win32,12.00624325,,,,,,,,,,,,,,,,,,,,,,,
0,d,1,1.6905,6,1,25,0,1,d,orange,601981d7485c3e0a342183a5,2021-09-27_16h20.47.186,forced_choiceRT_color,2021.2.3,Win32,12.00624325,,,,,,,,,,,,,,,,,,,,,,,
0,f,1,1.1593,6,2,26,1,1,f,blue,601981d7485c3e0a342183a5,2021-09-27_16h20.47.186,forced_choiceRT_color,2021.2.3,Win32,12.00624325,,,,,,,,,,,,,,,,,,,,,,,
0,f,1,0.9505,6,3,27,1,1,f,blue,601981d7485c3e0a342183a5,2021-09-27_16h20.47.186,forced_choiceRT_color,2021.2.3,Win32,12.00624325,,,,,,,,,,,,,,,,,,,,,,,
0,f,1,0.8359,7,0,28,1,1,f,blue,601981d7485c3e0a342183a5,2021-09-27_16h20.47.186,forced_choiceRT_color,2021.2.3,Win32,12.00624325,,,,,,,,,,,,,,,,,,,,,,,
0,k,1,0.8367,7,1,29,3,1,k,purple,601981d7485c3e0a342183a5,2021-09-27_16h20.47.186,forced_choiceRT_color,2021.2.3,Win32,12.00624325,,,,,,,,,,,,,,,,,,,,,,,
0,j,1,0.9462,7,2,30,2,1,j,red,601981d7485c3e0a342183a5,2021-09-27_16h20.47.186,forced_choiceRT_color,2021.2.3,Win32,12.00624325,,,,,,,,,,,,,,,,,,,,,,,
0,j,1,0.6113,7,3,31,2,1,j,red,601981d7485c3e0a342183a5,2021-09-27_16h20.47.186,forced_choiceRT_color,2021.2.3,Win32,12.00624325,,,,,,,,,,,,,,,,,,,,,,,
0,j,1,0.6154,8,0,32,2,1,j,red,601981d7485c3e0a342183a5,2021-09-27_16h20.47.186,forced_choiceRT_color,2021.2.3,Win32,12.00624325,,,,,,,,,,,,,,,,,,,,,,,
0,f,1,0.9586,8,1,33,1,1,f,blue,601981d7485c3e0a342183a5,2021-09-27_16h20.47.186,forced_choiceRT_color,2021.2.3,Win32,12.00624325,,,,,,,,,,,,,,,,,,,,,,,
0,k,1,0.8304,8,2,34,3,1,k,purple,601981d7485c3e0a342183a5,2021-09-27_16h20.47.186,forced_choiceRT_color,2021.2.3,Win32,12.00624325,,,,,,,,,,,,,,,,,,,,,,,
0,f,1,1.0419,8,3,35,1,1,f,blue,601981d7485c3e0a342183a5,2021-09-27_16h20.47.186,forced_choiceRT_color,2021.2.3,Win32,12.00624325,,,,,,,,,,,,,,,,,,,,,,,
0,f,1,0.8257,9,0,36,1,1,f,blue,601981d7485c3e0a342183a5,2021-09-27_16h20.47.186,forced_choiceRT_color,2021.2.3,Win32,12.00624325,,,,,,,,,,,,,,,,,,,,,,,
0,f,1,0.6118,9,1,37,1,1,f,blue,601981d7485c3e0a342183a5,2021-09-27_16h20.47.186,forced_choiceRT_color,2021.2.3,Win32,12.00624325,,,,,,,,,,,,,,,,,,,,,,,
0,d,1,0.7186,9,2,38,0,1,d,orange,601981d7485c3e0a342183a5,2021-09-27_16h20.47.186,forced_choiceRT_color,2021.2.3,Win32,12.00624325,,,,,,,,,,,,,,,,,,,,,,,
0,d,1,0.7266,9,3,39,0,1,d,orange,601981d7485c3e0a342183a5,2021-09-27_16h20.47.186,forced_choiceRT_color,2021.2.3,Win32,12.00624325,,,,,,,,,,,,,,,,,,,,,,,
0,k,1,0.729,10,0,40,3,1,k,purple,601981d7485c3e0a342183a5,2021-09-27_16h20.47.186,forced_choiceRT_color,2021.2.3,Win32,12.00624325,,,,,,,,,,,,,,,,,,,,,,,
0,j,1,0.6253,10,1,41,2,1,j,red,601981d7485c3e0a342183a5,2021-09-27_16h20.47.186,forced_choiceRT_color,2021.2.3,Win32,12.00624325,,,,,,,,,,,,,,,,,,,,,,,
0,j,1,0.5081,10,2,42,2,1,j,red,601981d7485c3e0a342183a5,2021-09-27_16h20.47.186,forced_choiceRT_color,2021.2.3,Win32,12.00624325,,,,,,,,,,,,,,,,,,,,,,,
0,f,1,1.1602,10,3,43,1,1,f,blue,601981d7485c3e0a342183a5,2021-09-27_16h20.47.186,forced_choiceRT_color,2021.2.3,Win32,12.00624325,,,,,,,,,,,,,,,,,,,,,,,
0,d,1,0.8374,11,0,44,0,1,d,orange,601981d7485c3e0a342183a5,2021-09-27_16h20.47.186,forced_choiceRT_color,2021.2.3,Win32,12.00624325,,,,,,,,,,,,,,,,,,,,,,,
0,k,1,1.1567,11,1,45,3,1,k,purple,601981d7485c3e0a342183a5,2021-09-27_16h20.47.186,forced_choiceRT_color,2021.2.3,Win32,12.00624325,,,,,,,,,,,,,,,,,,,,,,,
0,k,1,0.8256,11,2,46,3,1,k,purple,601981d7485c3e0a342183a5,2021-09-27_16h20.47.186,forced_choiceRT_color,2021.2.3,Win32,12.00624325,,,,,,,,,,,,,,,,,,,,,,,
0,j,1,1.0619,11,3,47,2,1,j,red,601981d7485c3e0a342183a5,2021-09-27_16h20.47.186,forced_choiceRT_color,2021.2.3,Win32,12.00624325,,,,,,,,,,,,,,,,,,,,,,,
0,k,1,0.8543,12,0,48,3,1,k,purple,601981d7485c3e0a342183a5,2021-09-27_16h20.47.186,forced_choiceRT_color,2021.2.3,Win32,12.00624325,,,,,,,,,,,,,,,,,,,,,,,
0,j,1,0.8358,12,1,49,2,1,j,red,601981d7485c3e0a342183a5,2021-09-27_16h20.47.186,forced_choiceRT_color,2021.2.3,Win32,12.00624325,,,,,,,,,,,,,,,,,,,,,,,
0,d,1,0.9427,12,2,50,0,1,d,orange,601981d7485c3e0a342183a5,2021-09-27_16h20.47.186,forced_choiceRT_color,2021.2.3,Win32,12.00624325,,,,,,,,,,,,,,,,,,,,,,,
0,j,1,0.7298,12,3,51,2,1,j,red,601981d7485c3e0a342183a5,2021-09-27_16h20.47.186,forced_choiceRT_color,2021.2.3,Win32,12.00624325,,,,,,,,,,,,,,,,,,,,,,,
0,d,1,0.823,13,0,52,0,1,d,orange,601981d7485c3e0a342183a5,2021-09-27_16h20.47.186,forced_choiceRT_color,2021.2.3,Win32,12.00624325,,,,,,,,,,,,,,,,,,,,,,,
0,f,1,0.8393,13,1,53,1,1,f,blue,601981d7485c3e0a342183a5,2021-09-27_16h20.47.186,forced_choiceRT_color,2021.2.3,Win32,12.00624325,,,,,,,,,,,,,,,,,,,,,,,
0,f,1,0.6193,13,2,54,1,1,f,blue,601981d7485c3e0a342183a5,2021-09-27_16h20.47.186,forced_choiceRT_color,2021.2.3,Win32,12.00624325,,,,,,,,,,,,,,,,,,,,,,,
0,j,1,1.154,13,3,55,2,1,j,red,601981d7485c3e0a342183a5,2021-09-27_16h20.47.186,forced_choiceRT_color,2021.2.3,Win32,12.00624325,,,,,,,,,,,,,,,,,,,,,,,
0,f,1,0.8337,14,0,56,1,1,f,blue,601981d7485c3e0a342183a5,2021-09-27_16h20.47.186,forced_choiceRT_color,2021.2.3,Win32,12.00624325,,,,,,,,,,,,,,,,,,,,,,,
0,j,0,0.8372,14,1,57,3,1,k,purple,601981d7485c3e0a342183a5,2021-09-27_16h20.47.186,forced_choiceRT_color,2021.2.3,Win32,12.00624325,,,,,,,,,,,,,,,,,,,,,,,
0,j,1,1.489,14,2,58,2,1,j,red,601981d7485c3e0a342183a5,2021-09-27_16h20.47.186,forced_choiceRT_color,2021.2.3,Win32,12.00624325,,,,,,,,,,,,,,,,,,,,,,,
0,d,1,0.8339,14,3,59,0,1,d,orange,601981d7485c3e0a342183a5,2021-09-27_16h20.47.186,forced_choiceRT_color,2021.2.3,Win32,12.00624325,,,,,,,,,,,,,,,,,,,,,,,
,,,,,,,,,,,601981d7485c3e0a342183a5,2021-09-27_16h20.47.186,forced_choiceRT_color,2021.2.3,Win32,12.00624325,j,4.4115,0,0,0,0,1,,,,,,,,,,,,,,,,
,,,,,,,,,,,601981d7485c3e0a342183a5,2021-09-27_16h20.47.186,forced_choiceRT_color,2021.2.3,Win32,12.00624325,j,2.0345,1,0,1,0,1,,,,,,,,,,,,,,,,
,,,,,,,,,,,601981d7485c3e0a342183a5,2021-09-27_16h20.47.186,forced_choiceRT_color,2021.2.3,Win32,12.00624325,k,1.9052,2,0,2,0,1,,,,,,,,,,,,,,,,
,,,,,,,,,,,601981d7485c3e0a342183a5,2021-09-27_16h20.47.186,forced_choiceRT_color,2021.2.3,Win32,12.00624325,d,1.8267,3,0,3,0,1,,,,,,,,,,,,,,,,
,,,,,,,,,,,601981d7485c3e0a342183a5,2021-09-27_16h20.47.186,forced_choiceRT_color,2021.2.3,Win32,12.00624325,f,2.0283,4,0,4,0,1,,,,,,,,,,,,,,,,
,,,,,,,,,,,601981d7485c3e0a342183a5,2021-09-27_16h20.47.186,forced_choiceRT_color,2021.2.3,Win32,12.00624325,f,2.0183,5,0,5,0,1,,,,,,,,,,,,,,,,
,,,,,,,,,,,601981d7485c3e0a342183a5,2021-09-27_16h20.47.186,forced_choiceRT_color,2021.2.3,Win32,12.00624325,j,2.0315,6,0,6,0,1,,,,,,,,,,,,,,,,
,,,,,,,,,,,601981d7485c3e0a342183a5,2021-09-27_16h20.47.186,forced_choiceRT_color,2021.2.3,Win32,12.00624325,k,2.1247,7,0,7,0,1,,,,,,,,,,,,,,,,
,,,,,,,,,,,601981d7485c3e0a342183a5,2021-09-27_16h20.47.186,forced_choiceRT_color,2021.2.3,Win32,12.00624325,j,2.0245,8,0,8,0,1,,,,,,,,,,,,,,,,
,,,,,,,,,,,601981d7485c3e0a342183a5,2021-09-27_16h20.47.186,forced_choiceRT_color,2021.2.3,Win32,12.00624325,d,2.0186,9,0,9,0,1,,,,,,,,,,,,,,,,
,,,,,,,,,,,601981d7485c3e0a342183a5,2021-09-27_16h20.47.186,forced_choiceRT_color,2021.2.3,Win32,12.00624325,j,2.0107,10,0,10,0,1,,,,,,,,,,,,,,,,
,,,,,,,,,,,601981d7485c3e0a342183a5,2021-09-27_16h20.47.186,forced_choiceRT_color,2021.2.3,Win32,12.00624325,j,2.0596,11,0,11,0,1,,,,,,,,,,,,,,,,
,,,,,,,,,,,601981d7485c3e0a342183a5,2021-09-27_16h20.47.186,forced_choiceRT_color,2021.2.3,Win32,12.00624325,f,2.0429,12,0,12,0,1,,,,,,,,,,,,,,,,
,,,,,,,,,,,601981d7485c3e0a342183a5,2021-09-27_16h20.47.186,forced_choiceRT_color,2021.2.3,Win32,12.00624325,k,2.1033,13,0,13,0,1,,,,,,,,,,,,,,,,
,,,,,,,,,,,601981d7485c3e0a342183a5,2021-09-27_16h20.47.186,forced_choiceRT_color,2021.2.3,Win32,12.00624325,f,1.9186,14,0,14,0,1,,,,,,,,,,,,,,,,
,,,,,,,,,,,601981d7485c3e0a342183a5,2021-09-27_16h20.47.186,forced_choiceRT_color,2021.2.3,Win32,12.00624325,j,1.807,15,0,15,0,1,,,,,,,,,,,,,,,,
,,,,,,,,,,,601981d7485c3e0a342183a5,2021-09-27_16h20.47.186,forced_choiceRT_color,2021.2.3,Win32,12.00624325,j,2.0227,16,0,16,0,1,,,,,,,,,,,,,,,,
,,,,,,,,,,,601981d7485c3e0a342183a5,2021-09-27_16h20.47.186,forced_choiceRT_color,2021.2.3,Win32,12.00624325,k,2.0161,17,0,17,0,1,,,,,,,,,,,,,,,,
,,,,,,,,,,,601981d7485c3e0a342183a5,2021-09-27_16h20.47.186,forced_choiceRT_color,2021.2.3,Win32,12.00624325,k,2.0205,18,0,18,0,1,,,,,,,,,,,,,,,,
,,,,,,,,,,,601981d7485c3e0a342183a5,2021-09-27_16h20.47.186,forced_choiceRT_color,2021.2.3,Win32,12.00624325,d,1.9184,19,0,19,0,1,,,,,,,,,,,,,,,,
1.61,,,,,,,,,f,blue,601981d7485c3e0a342183a5,2021-09-27_16h20.47.186,forced_choiceRT_color,2021.2.3,Win32,12.00624325,,,,,,,,1,Slow,short,d,0,2.1141,0,0,0,1,1,,,,,
0.19,,,,,,,,,k,purple,601981d7485c3e0a342183a5,2021-09-27_16h20.47.186,forced_choiceRT_color,2021.2.3,Win32,12.00624325,,,,,,,,1,Fast,short,k,1,1.2407,0,1,1,3,1,,,,,
1.71,,,,,,,,,j,red,601981d7485c3e0a342183a5,2021-09-27_16h20.47.186,forced_choiceRT_color,2021.2.3,Win32,12.00624325,,,,,,,,1,Slow,short,j,1,2.6487,0,2,2,2,1,,,,,
0.04,,,,,,,,,f,blue,601981d7485c3e0a342183a5,2021-09-27_16h20.47.186,forced_choiceRT_color,2021.2.3,Win32,12.00624325,,,,,,,,1,Ontime,short,f,1,2.0662,0,3,3,1,1,,,,,
0.07,,,,,,,,,j,red,601981d7485c3e0a342183a5,2021-09-27_16h20.47.186,forced_choiceRT_color,2021.2.3,Win32,12.00624325,,,,,,,,1,Ontime,short,j,1,1.9626,1,0,4,2,1,,,,,
1.3,,,,,,,,,d,orange,601981d7485c3e0a342183a5,2021-09-27_16h20.47.186,forced_choiceRT_color,2021.2.3,Win32,12.00624325,,,,,,,,1,Slow,short,d,1,2.2116,1,1,5,0,1,,,,,
0.09,,,,,,,,,k,purple,601981d7485c3e0a342183a5,2021-09-27_16h20.47.186,forced_choiceRT_color,2021.2.3,Win32,12.00624325,,,,,,,,1,Fast,short,k,1,1.8361,1,2,6,3,1,,,,,
1.7,,,,,,,,,k,purple,601981d7485c3e0a342183a5,2021-09-27_16h20.47.186,forced_choiceRT_color,2021.2.3,Win32,12.00624325,,,,,,,,1,Slow,short,f,0,2.4612,1,3,7,3,1,,,,,
1.65,,,,,,,,,k,purple,601981d7485c3e0a342183a5,2021-09-27_16h20.47.186,forced_choiceRT_color,2021.2.3,Win32,12.00624325,,,,,,,,1,Slow,short,k,1,2.3637,2,0,8,3,1,,,,,
0.04,,,,,,,,,j,red,601981d7485c3e0a342183a5,2021-09-27_16h20.47.186,forced_choiceRT_color,2021.2.3,Win32,12.00624325,,,,,,,,1,Ontime,short,j,1,1.9457,2,1,9,2,1,,,,,
0.51,,,,,,,,,k,purple,601981d7485c3e0a342183a5,2021-09-27_16h20.47.186,forced_choiceRT_color,2021.2.3,Win32,12.00624325,,,,,,,,1,Slow,short,k,1,2.1089,2,2,10,3,1,,,,,
1.59,,,,,,,,,f,blue,601981d7485c3e0a342183a5,2021-09-27_16h20.47.186,forced_choiceRT_color,2021.2.3,Win32,12.00624325,,,,,,,,1,Slow,short,f,1,2.2855,2,3,11,1,1,,,,,
0.6,,,,,,,,,f,blue,601981d7485c3e0a342183a5,2021-09-27_16h20.47.186,forced_choiceRT_color,2021.2.3,Win32,12.00624325,,,,,,,,1,Fast,short,f,1,1.3082,3,0,12,1,1,,,,,
0.38,,,,,,,,,d,orange,601981d7485c3e0a342183a5,2021-09-27_16h20.47.186,forced_choiceRT_color,2021.2.3,Win32,12.00624325,,,,,,,,1,Ontime,short,d,1,2.0573,3,1,13,0,1,,,,,
0.09,,,,,,,,,f,blue,601981d7485c3e0a342183a5,2021-09-27_16h20.47.186,forced_choiceRT_color,2021.2.3,Win32,12.00624325,,,,,,,,1,Ontime,short,f,1,2.061,3,2,14,1,1,,,,,
0.41,,,,,,,,,d,orange,601981d7485c3e0a342183a5,2021-09-27_16h20.47.186,forced_choiceRT_color,2021.2.3,Win32,12.00624325,,,,,,,,1,Ontime,short,d,1,2.0157,3,3,15,0,1,,,,,
1.1,,,,,,,,,f,blue,601981d7485c3e0a342183a5,2021-09-27_16h20.47.186,forced_choiceRT_color,2021.2.3,Win32,12.00624325,,,,,,,,1,Ontime,short,f,1,2.0283,4,0,16,1,1,,,,,
1.74,,,,,,,,,d,orange,601981d7485c3e0a342183a5,2021-09-27_16h20.47.186,forced_choiceRT_color,2021.2.3,Win32,12.00624325,,,,,,,,1,Slow,short,f,0,2.3841,4,1,17,0,1,,,,,
1.68,,,,,,,,,k,purple,601981d7485c3e0a342183a5,2021-09-27_16h20.47.186,forced_choiceRT_color,2021.2.3,Win32,12.00624325,,,,,,,,1,Slow,short,k,1,2.5507,4,2,18,3,1,,,,,
1.29,,,,,,,,,k,purple,601981d7485c3e0a342183a5,2021-09-27_16h20.47.186,forced_choiceRT_color,2021.2.3,Win32,12.00624325,,,,,,,,1,Ontime,short,k,1,2.0118,4,3,19,3,1,,,,,
1.69,,,,,,,,,f,blue,601981d7485c3e0a342183a5,2021-09-27_16h20.47.186,forced_choiceRT_color,2021.2.3,Win32,12.00624325,,,,,,,,1,Slow,short,j,0,2.3694,5,0,20,1,1,,,,,
1.67,,,,,,,,,d,orange,601981d7485c3e0a342183a5,2021-09-27_16h20.47.186,forced_choiceRT_color,2021.2.3,Win32,12.00624325,,,,,,,,1,Slow,short,j,0,2.3557,5,1,21,0,1,,,,,
1.12,,,,,,,,,d,orange,601981d7485c3e0a342183a5,2021-09-27_16h20.47.186,forced_choiceRT_color,2021.2.3,Win32,12.00624325,,,,,,,,1,Fast,short,d,1,1.8275,5,2,22,0,1,,,,,
1.35,,,,,,,,,k,purple,601981d7485c3e0a342183a5,2021-09-27_16h20.47.186,forced_choiceRT_color,2021.2.3,Win32,12.00624325,,,,,,,,1,Slow,short,j,0,2.2036,5,3,23,3,1,,,,,
1.48,,,,,,,,,j,red,601981d7485c3e0a342183a5,2021-09-27_16h20.47.186,forced_choiceRT_color,2021.2.3,Win32,12.00624325,,,,,,,,1,Slow,short,j,1,2.2085,6,0,24,2,1,,,,,
0.81,,,,,,,,,j,red,601981d7485c3e0a342183a5,2021-09-27_16h20.47.186,forced_choiceRT_color,2021.2.3,Win32,12.00624325,,,,,,,,1,Ontime,short,j,1,2.0728,6,1,25,2,1,,,,,
1.03,,,,,,,,,f,blue,601981d7485c3e0a342183a5,2021-09-27_16h20.47.186,forced_choiceRT_color,2021.2.3,Win32,12.00624325,,,,,,,,1,Slow,short,f,1,2.2113,6,2,26,1,1,,,,,
0.46,,,,,,,,,j,red,601981d7485c3e0a342183a5,2021-09-27_16h20.47.186,forced_choiceRT_color,2021.2.3,Win32,12.00624325,,,,,,,,1,Slow,short,j,1,2.1141,6,3,27,2,1,,,,,
1.68,,,,,,,,,j,red,601981d7485c3e0a342183a5,2021-09-27_16h20.47.186,forced_choiceRT_color,2021.2.3,Win32,12.00624325,,,,,,,,1,Slow,short,k,0,2.161,7,0,28,2,1,,,,,
1.8,,,,,,,,,k,purple,601981d7485c3e0a342183a5,2021-09-27_16h20.47.186,forced_choiceRT_color,2021.2.3,Win32,12.00624325,,,,,,,,1,Slow,short,j,0,2.3431,7,1,29,3,1,,,,,
0.02,,,,,,,,,k,purple,601981d7485c3e0a342183a5,2021-09-27_16h20.47.186,forced_choiceRT_color,2021.2.3,Win32,12.00624325,,,,,,,,1,Slow,short,k,1,2.1424,7,2,30,3,1,,,,,
1.56,,,,,,,,,d,orange,601981d7485c3e0a342183a5,2021-09-27_16h20.47.186,forced_choiceRT_color,2021.2.3,Win32,12.00624325,,,,,,,,1,Slow,short,d,1,2.3012,7,3,31,0,1,,,,,
0.1,,,,,,,,,j,red,601981d7485c3e0a342183a5,2021-09-27_16h20.47.186,forced_choiceRT_color,2021.2.3,Win32,12.00624325,,,,,,,,1,Slow,short,j,1,2.1491,8,0,32,2,1,,,,,
0.02,,,,,,,,,j,red,601981d7485c3e0a342183a5,2021-09-27_16h20.47.186,forced_choiceRT_color,2021.2.3,Win32,12.00624325,,,,,,,,1,Fast,short,j,1,1.7217,8,1,33,2,1,,,,,
0.15,,,,,,,,,d,orange,601981d7485c3e0a342183a5,2021-09-27_16h20.47.186,forced_choiceRT_color,2021.2.3,Win32,12.00624325,,,,,,,,1,Ontime,short,d,1,2.0506,8,2,34,0,1,,,,,
1.28,,,,,,,,,j,red,601981d7485c3e0a342183a5,2021-09-27_16h20.47.186,forced_choiceRT_color,2021.2.3,Win32,12.00624325,,,,,,,,1,Slow,short,j,1,2.1065,8,3,35,2,1,,,,,
1.52,,,,,,,,,d,orange,601981d7485c3e0a342183a5,2021-09-27_16h20.47.186,forced_choiceRT_color,2021.2.3,Win32,12.00624325,,,,,,,,1,Slow,short,d,1,2.3055,9,0,36,0,1,,,,,
1.24,,,,,,,,,f,blue,601981d7485c3e0a342183a5,2021-09-27_16h20.47.186,forced_choiceRT_color,2021.2.3,Win32,12.00624325,,,,,,,,1,Ontime,short,f,1,2.0068,9,1,37,1,1,,,,,
0.41,,,,,,,,,f,blue,601981d7485c3e0a342183a5,2021-09-27_16h20.47.186,forced_choiceRT_color,2021.2.3,Win32,12.00624325,,,,,,,,1,Ontime,short,f,1,2.0131,9,2,38,1,1,,,,,
0.05,,,,,,,,,d,orange,601981d7485c3e0a342183a5,2021-09-27_16h20.47.186,forced_choiceRT_color,2021.2.3,Win32,12.00624325,,,,,,,,1,Ontime,short,d,1,1.9487,9,3,39,0,1,,,,,
,,,,,,,,,,,601981d7485c3e0a342183a5,2021-09-27_16h20.47.186,forced_choiceRT_color,2021.2.3,Win32,12.00624325,,,,,,,,,,,,,,,,,,,0,0,0,0,1
1.51,,,,,,,,,j,red,601981d7485c3e0a342183a5,2021-09-27_16h20.47.186,forced_choiceRT_color,2021.2.3,Win32,12.00624325,,,,,,,,2,Slow,short,j,1,2.3967,0,0,0,2,1,,,,,
1.78,,,,,,,,,k,purple,601981d7485c3e0a342183a5,2021-09-27_16h20.47.186,forced_choiceRT_color,2021.2.3,Win32,12.00624325,,,,,,,,2,Slow,short,j,0,2.544,0,1,1,3,1,,,,,
1.15,,,,,,,,,d,orange,601981d7485c3e0a342183a5,2021-09-27_16h20.47.186,forced_choiceRT_color,2021.2.3,Win32,12.00624325,,,,,,,,2,Slow,short,d,1,2.2246,0,2,2,0,1,,,,,
0.36,,,,,,,,,j,red,601981d7485c3e0a342183a5,2021-09-27_16h20.47.186,forced_choiceRT_color,2021.2.3,Win32,12.00624325,,,,,,,,2,Ontime,short,j,1,1.9035,0,3,3,2,1,,,,,
1.98,,,,,,,,,j,red,601981d7485c3e0a342183a5,2021-09-27_16h20.47.186,forced_choiceRT_color,2021.2.3,Win32,12.00624325,,,,,,,,2,Slow,short,j,1,2.7252,1,0,4,2,1,,,,,
0.92,,,,,,,,,d,orange,601981d7485c3e0a342183a5,2021-09-27_16h20.47.186,forced_choiceRT_color,2021.2.3,Win32,12.00624325,,,,,,,,2,Ontime,short,d,1,2.0517,1,1,5,0,1,,,,,
0.96,,,,,,,,,j,red,601981d7485c3e0a342183a5,2021-09-27_16h20.47.186,forced_choiceRT_color,2021.2.3,Win32,12.00624325,,,,,,,,2,Slow,short,j,1,2.1488,1,2,6,2,1,,,,,
0.3,,,,,,,,,f,blue,601981d7485c3e0a342183a5,2021-09-27_16h20.47.186,forced_choiceRT_color,2021.2.3,Win32,12.00624325,,,,,,,,2,Ontime,short,f,1,1.9135,1,3,7,1,1,,,,,
0.4,,,,,,,,,d,orange,601981d7485c3e0a342183a5,2021-09-27_16h20.47.186,forced_choiceRT_color,2021.2.3,Win32,12.00624325,,,,,,,,2,Ontime,short,j,0,2.0014,2,0,8,0,1,,,,,
1.72,,,,,,,,,j,red,601981d7485c3e0a342183a5,2021-09-27_16h20.47.186,forced_choiceRT_color,2021.2.3,Win32,12.00624325,,,,,,,,2,Slow,short,f,0,2.3529,2,1,9,2,1,,,,,
1.06,,,,,,,,,d,orange,601981d7485c3e0a342183a5,2021-09-27_16h20.47.186,forced_choiceRT_color,2021.2.3,Win32,12.00624325,,,,,,,,2,Slow,short,d,1,2.1408,2,2,10,0,1,,,,,
0.65,,,,,,,,,j,red,601981d7485c3e0a342183a5,2021-09-27_16h20.47.186,forced_choiceRT_color,2021.2.3,Win32,12.00624325,,,,,,,,2,Fast,short,j,1,1.8543,2,3,11,2,1,,,,,
1.71,,,,,,,,,d,orange,601981d7485c3e0a342183a5,2021-09-27_16h20.47.186,forced_choiceRT_color,2021.2.3,Win32,12.00624325,,,,,,,,2,Slow,short,f,0,2.5626,3,0,12,0,1,,,,,
0.61,,,,,,,,,k,purple,601981d7485c3e0a342183a5,2021-09-27_16h20.47.186,forced_choiceRT_color,2021.2.3,Win32,12.00624325,,,,,,,,2,Fast,short,k,1,1.8769,3,1,13,3,1,,,,,
0.48,,,,,,,,,f,blue,601981d7485c3e0a342183a5,2021-09-27_16h20.47.186,forced_choiceRT_color,2021.2.3,Win32,12.00624325,,,,,,,,2,Ontime,short,f,1,1.9925,3,2,14,1,1,,,,,
0.72,,,,,,,,,k,purple,601981d7485c3e0a342183a5,2021-09-27_16h20.47.186,forced_choiceRT_color,2021.2.3,Win32,12.00624325,,,,,,,,2,Fast,short,k,1,1.852,3,3,15,3,1,,,,,
1.48,,,,,,,,,f,blue,601981d7485c3e0a342183a5,2021-09-27_16h20.47.186,forced_choiceRT_color,2021.2.3,Win32,12.00624325,,,,,,,,2,Slow,short,f,1,2.306,4,0,16,1,1,,,,,
1.64,,,,,,,,,j,red,601981d7485c3e0a342183a5,2021-09-27_16h20.47.186,forced_choiceRT_color,2021.2.3,Win32,12.00624325,,,,,,,,2,Slow,short,j,1,2.2853,4,1,17,2,1,,,,,
1.69,,,,,,,,,d,orange,601981d7485c3e0a342183a5,2021-09-27_16h20.47.186,forced_choiceRT_color,2021.2.3,Win32,12.00624325,,,,,,,,2,Slow,short,k,0,2.2715,4,2,18,0,1,,,,,
1.25,,,,,,,,,f,blue,601981d7485c3e0a342183a5,2021-09-27_16h20.47.186,forced_choiceRT_color,2021.2.3,Win32,12.00624325,,,,,,,,2,Slow,short,f,1,2.2076,4,3,19,1,1,,,,,
1.62,,,,,,,,,k,purple,601981d7485c3e0a342183a5,2021-09-27_16h20.47.186,forced_choiceRT_color,2021.2.3,Win32,12.00624325,,,,,,,,2,Slow,short,j,0,2.3001,5,0,20,3,1,,,,,
0.98,,,,,,,,,k,purple,601981d7485c3e0a342183a5,2021-09-27_16h20.47.186,forced_choiceRT_color,2021.2.3,Win32,12.00624325,,,,,,,,2,Fast,short,k,1,1.6987,5,1,21,3,1,,,,,
1.8,,,,,,,,,k,purple,601981d7485c3e0a342183a5,2021-09-27_16h20.47.186,forced_choiceRT_color,2021.2.3,Win32,12.00624325,,,,,,,,2,Slow,short,k,1,2.2589,5,2,22,3,1,,,,,
0.72,,,,,,,,,k,purple,601981d7485c3e0a342183a5,2021-09-27_16h20.47.186,forced_choiceRT_color,2021.2.3,Win32,12.00624325,,,,,,,,2,Fast,short,k,1,1.8507,5,3,23,3,1,,,,,
0.26,,,,,,,,,d,orange,601981d7485c3e0a342183a5,2021-09-27_16h20.47.186,forced_choiceRT_color,2021.2.3,Win32,12.00624325,,,,,,,,2,Ontime,short,d,1,2.0288,6,0,24,0,1,,,,,
1.22,,,,,,,,,f,blue,601981d7485c3e0a342183a5,2021-09-27_16h20.47.186,forced_choiceRT_color,2021.2.3,Win32,12.00624325,,,,,,,,2,Ontime,short,f,1,2.0126,6,1,25,1,1,,,,,
0.51,,,,,,,,,f,blue,601981d7485c3e0a342183a5,2021-09-27_16h20.47.186,forced_choiceRT_color,2021.2.3,Win32,12.00624325,,,,,,,,2,Ontime,short,f,1,2.0048,6,2,26,1,1,,,,,
0,,,,,,,,,k,purple,601981d7485c3e0a342183a5,2021-09-27_16h20.47.186,forced_choiceRT_color,2021.2.3,Win32,12.00624325,,,,,,,,2,Fast,short,k,1,1.7137,6,3,27,3,1,,,,,
0.98,,,,,,,,,j,red,601981d7485c3e0a342183a5,2021-09-27_16h20.47.186,forced_choiceRT_color,2021.2.3,Win32,12.00624325,,,,,,,,2,Ontime,short,j,1,2.0466,7,0,28,2,1,,,,,
0.3,,,,,,,,,d,orange,601981d7485c3e0a342183a5,2021-09-27_16h20.47.186,forced_choiceRT_color,2021.2.3,Win32,12.00624325,,,,,,,,2,Fast,short,d,1,1.7952,7,1,29,0,1,,,,,
0.98,,,,,,,,,d,orange,601981d7485c3e0a342183a5,2021-09-27_16h20.47.186,forced_choiceRT_color,2021.2.3,Win32,12.00624325,,,,,,,,2,Slow,short,d,1,2.1445,7,2,30,0,1,,,,,
0.13,,,,,,,,,j,red,601981d7485c3e0a342183a5,2021-09-27_16h20.47.186,forced_choiceRT_color,2021.2.3,Win32,12.00624325,,,,,,,,2,Fast,short,j,1,1.7988,7,3,31,2,1,,,,,
1.17,,,,,,,,,f,blue,601981d7485c3e0a342183a5,2021-09-27_16h20.47.186,forced_choiceRT_color,2021.2.3,Win32,12.00624325,,,,,,,,2,Slow,short,f,1,2.1185,8,0,32,1,1,,,,,
1.17,,,,,,,,,j,red,601981d7485c3e0a342183a5,2021-09-27_16h20.47.186,forced_choiceRT_color,2021.2.3,Win32,12.00624325,,,,,,,,2,Slow,short,j,1,2.1215,8,1,33,2,1,,,,,
1.87,,,,,,,,,f,blue,601981d7485c3e0a342183a5,2021-09-27_16h20.47.186,forced_choiceRT_color,2021.2.3,Win32,12.00624325,,,,,,,,2,Slow,short,k,0,2.2465,8,2,34,1,1,,,,,
1.34,,,,,,,,,k,purple,601981d7485c3e0a342183a5,2021-09-27_16h20.47.186,forced_choiceRT_color,2021.2.3,Win32,12.00624325,,,,,,,,2,Slow,short,k,1,2.2075,8,3,35,3,1,,,,,
1.31,,,,,,,,,f,blue,601981d7485c3e0a342183a5,2021-09-27_16h20.47.186,forced_choiceRT_color,2021.2.3,Win32,12.00624325,,,,,,,,2,Slow,short,f,1,2.2077,9,0,36,1,1,,,,,
0.82,,,,,,,,,k,purple,601981d7485c3e0a342183a5,2021-09-27_16h20.47.186,forced_choiceRT_color,2021.2.3,Win32,12.00624325,,,,,,,,2,Ontime,short,j,0,1.9667,9,1,37,3,1,,,,,
1.7,,,,,,,,,f,blue,601981d7485c3e0a342183a5,2021-09-27_16h20.47.186,forced_choiceRT_color,2021.2.3,Win32,12.00624325,,,,,,,,2,Slow,short,j,0,2.3848,9,2,38,1,1,,,,,
1.24,,,,,,,,,d,orange,601981d7485c3e0a342183a5,2021-09-27_16h20.47.186,forced_choiceRT_color,2021.2.3,Win32,12.00624325,,,,,,,,2,Slow,short,d,1,2.1331,9,3,39,0,1,,,,,
,,,,,,,,,,,601981d7485c3e0a342183a5,2021-09-27_16h20.47.186,forced_choiceRT_color,2021.2.3,Win32,12.00624325,,,,,,,,,,,,,,,,,,,1,0,1,0,1
1.93,,,,,,,,,j,red,601981d7485c3e0a342183a5,2021-09-27_16h20.47.186,forced_choiceRT_color,2021.2.3,Win32,12.00624325,,,,,,,,3,Slow,short,j,1,3.2702,0,0,0,2,1,,,,,
1.64,,,,,,,,,j,red,601981d7485c3e0a342183a5,2021-09-27_16h20.47.186,forced_choiceRT_color,2021.2.3,Win32,12.00624325,,,,,,,,3,Slow,short,j,1,2.2999,0,1,1,2,1,,,,,
0.44,,,,,,,,,j,red,601981d7485c3e0a342183a5,2021-09-27_16h20.47.186,forced_choiceRT_color,2021.2.3,Win32,12.00624325,,,,,,,,3,Ontime,short,j,1,1.9976,0,2,2,2,1,,,,,
1.4,,,,,,,,,k,purple,601981d7485c3e0a342183a5,2021-09-27_16h20.47.186,forced_choiceRT_color,2021.2.3,Win32,12.00624325,,,,,,,,3,Slow,short,k,1,2.2918,0,3,3,3,1,,,,,
1.78,,,,,,,,,j,red,601981d7485c3e0a342183a5,2021-09-27_16h20.47.186,forced_choiceRT_color,2021.2.3,Win32,12.00624325,,,,,,,,3,Slow,short,j,1,2.6845,1,0,4,2,1,,,,,
1,,,,,,,,,j,red,601981d7485c3e0a342183a5,2021-09-27_16h20.47.186,forced_choiceRT_color,2021.2.3,Win32,12.00624325,,,,,,,,3,Fast,short,j,1,1.6857,1,1,5,2,1,,,,,
0.05,,,,,,,,,k,purple,601981d7485c3e0a342183a5,2021-09-27_16h20.47.186,forced_choiceRT_color,2021.2.3,Win32,12.00624325,,,,,,,,3,Ontime,short,k,1,1.9365,1,2,6,3,1,,,,,
0.03,,,,,,,,,f,blue,601981d7485c3e0a342183a5,2021-09-27_16h20.47.186,forced_choiceRT_color,2021.2.3,Win32,12.00624325,,,,,,,,3,Ontime,short,f,1,2.0462,1,3,7,1,1,,,,,
0.55,,,,,,,,,d,orange,601981d7485c3e0a342183a5,2021-09-27_16h20.47.186,forced_choiceRT_color,2021.2.3,Win32,12.00624325,,,,,,,,3,Ontime,short,d,1,1.9005,2,0,8,0,1,,,,,
1.62,,,,,,,,,f,blue,601981d7485c3e0a342183a5,2021-09-27_16h20.47.186,forced_choiceRT_color,2021.2.3,Win32,12.00624325,,,,,,,,3,Slow,short,j,0,2.3028,2,1,9,1,1,,,,,
1.21,,,,,,,,,j,red,601981d7485c3e0a342183a5,2021-09-27_16h20.47.186,forced_choiceRT_color,2021.2.3,Win32,12.00624325,,,,,,,,3,Slow,short,j,1,2.2105,2,2,10,2,1,,,,,
0.46,,,,,,,,,d,orange,601981d7485c3e0a342183a5,2021-09-27_16h20.47.186,forced_choiceRT_color,2021.2.3,Win32,12.00624325,,,,,,,,3,Ontime,short,d,1,2.0127,2,3,11,0,1,,,,,
1.97,,,,,,,,,j,red,601981d7485c3e0a342183a5,2021-09-27_16h20.47.186,forced_choiceRT_color,2021.2.3,Win32,12.00624325,,,,,,,,3,Slow,short,j,1,2.8117,3,0,12,2,1,,,,,
1.7,,,,,,,,,f,blue,601981d7485c3e0a342183a5,2021-09-27_16h20.47.186,forced_choiceRT_color,2021.2.3,Win32,12.00624325,,,,,,,,3,Slow,short,f,1,2.4693,3,1,13,1,1,,,,,
1.66,,,,,,,,,f,blue,601981d7485c3e0a342183a5,2021-09-27_16h20.47.186,forced_choiceRT_color,2021.2.3,Win32,12.00624325,,,,,,,,3,Slow,short,f,1,2.2674,3,2,14,1,1,,,,,
1.63,,,,,,,,,d,orange,601981d7485c3e0a342183a5,2021-09-27_16h20.47.186,forced_choiceRT_color,2021.2.3,Win32,12.00624325,,,,,,,,3,Slow,short,j,0,2.1829,3,3,15,0,1,,,,,
1.78,,,,,,,,,f,blue,601981d7485c3e0a342183a5,2021-09-27_16h20.47.186,forced_choiceRT_color,2021.2.3,Win32,12.00624325,,,,,,,,3,Slow,short,f,1,2.3582,4,0,16,1,1,,,,,
1.89,,,,,,,,,j,red,601981d7485c3e0a342183a5,2021-09-27_16h20.47.186,forced_choiceRT_color,2021.2.3,Win32,12.00624325,,,,,,,,3,Slow,short,j,1,2.4202,4,1,17,2,1,,,,,
1.88,,,,,,,,,d,orange,601981d7485c3e0a342183a5,2021-09-27_16h20.47.186,forced_choiceRT_color,2021.2.3,Win32,12.00624325,,,,,,,,3,Slow,short,j,0,2.427,4,2,18,0,1,,,,,
1.61,,,,,,,,,j,red,601981d7485c3e0a342183a5,2021-09-27_16h20.47.186,forced_choiceRT_color,2021.2.3,Win32,12.00624325,,,,,,,,3,Slow,short,j,1,2.2743,4,3,19,2,1,,,,,
0.99,,,,,,,,,k,purple,601981d7485c3e0a342183a5,2021-09-27_16h20.47.186,forced_choiceRT_color,2021.2.3,Win32,12.00624325,,,,,,,,3,Fast,short,j,0,1.7933,5,0,20,3,1,,,,,
0.83,,,,,,,,,f,blue,601981d7485c3e0a342183a5,2021-09-27_16h20.47.186,forced_choiceRT_color,2021.2.3,Win32,12.00624325,,,,,,,,3,Ontime,short,f,1,2.0684,5,1,21,1,1,,,,,
0.2,,,,,,,,,j,red,601981d7485c3e0a342183a5,2021-09-27_16h20.47.186,forced_choiceRT_color,2021.2.3,Win32,12.00624325,,,,,,,,3,Ontime,short,j,1,1.9253,5,2,22,2,1,,,,,
1,,,,,,,,,k,purple,601981d7485c3e0a342183a5,2021-09-27_16h20.47.186,forced_choiceRT_color,2021.2.3,Win32,12.00624325,,,,,,,,3,Ontime,short,k,1,2.0386,5,3,23,3,1,,,,,
1.7,,,,,,,,,f,blue,601981d7485c3e0a342183a5,2021-09-27_16h20.47.186,forced_choiceRT_color,2021.2.3,Win32,12.00624325,,,,,,,,3,Slow,short,f,1,2.361,6,0,24,1,1,,,,,
0.29,,,,,,,,,k,purple,601981d7485c3e0a342183a5,2021-09-27_16h20.47.186,forced_choiceRT_color,2021.2.3,Win32,12.00624325,,,,,,,,3,Fast,short,k,1,1.6784,6,1,25,3,1,,,,,
0.89,,,,,,,,,k,purple,601981d7485c3e0a342183a5,2021-09-27_16h20.47.186,forced_choiceRT_color,2021.2.3,Win32,12.00624325,,,,,,,,3,Slow,short,k,1,2.1571,6,2,26,3,1,,,,,
0.64,,,,,,,,,d,orange,601981d7485c3e0a342183a5,2021-09-27_16h20.47.186,forced_choiceRT_color,2021.2.3,Win32,12.00624325,,,,,,,,3,Fast,short,d,1,1.8584,6,3,27,0,1,,,,,
0.06,,,,,,,,,d,orange,601981d7485c3e0a342183a5,2021-09-27_16h20.47.186,forced_choiceRT_color,2021.2.3,Win32,12.00624325,,,,,,,,3,Ontime,short,d,1,2.0528,7,0,28,0,1,,,,,
1.18,,,,,,,,,d,orange,601981d7485c3e0a342183a5,2021-09-27_16h20.47.186,forced_choiceRT_color,2021.2.3,Win32,12.00624325,,,,,,,,3,Fast,short,d,1,1.899,7,1,29,0,1,,,,,
1.79,,,,,,,,,f,blue,601981d7485c3e0a342183a5,2021-09-27_16h20.47.186,forced_choiceRT_color,2021.2.3,Win32,12.00624325,,,,,,,,3,Slow,short,d,0,2.2525,7,2,30,1,1,,,,,
1.09,,,,,,,,,k,purple,601981d7485c3e0a342183a5,2021-09-27_16h20.47.186,forced_choiceRT_color,2021.2.3,Win32,12.00624325,,,,,,,,3,Ontime,short,k,1,1.9021,7,3,31,3,1,,,,,
0.9,,,,,,,,,d,orange,601981d7485c3e0a342183a5,2021-09-27_16h20.47.186,forced_choiceRT_color,2021.2.3,Win32,12.00624325,,,,,,,,3,Fast,short,d,1,1.8266,8,0,32,0,1,,,,,
0.67,,,,,,,,,f,blue,601981d7485c3e0a342183a5,2021-09-27_16h20.47.186,forced_choiceRT_color,2021.2.3,Win32,12.00624325,,,,,,,,3,Ontime,short,f,1,1.9634,8,1,33,1,1,,,,,
1.69,,,,,,,,,f,blue,601981d7485c3e0a342183a5,2021-09-27_16h20.47.186,forced_choiceRT_color,2021.2.3,Win32,12.00624325,,,,,,,,3,Slow,short,f,1,2.2752,8,2,34,1,1,,,,,
1.35,,,,,,,,,k,purple,601981d7485c3e0a342183a5,2021-09-27_16h20.47.186,forced_choiceRT_color,2021.2.3,Win32,12.00624325,,,,,,,,3,Ontime,short,k,1,2.0978,8,3,35,3,1,,,,,
1.02,,,,,,,,,k,purple,601981d7485c3e0a342183a5,2021-09-27_16h20.47.186,forced_choiceRT_color,2021.2.3,Win32,12.00624325,,,,,,,,3,Fast,short,k,1,1.6886,9,0,36,3,1,,,,,
0.31,,,,,,,,,d,orange,601981d7485c3e0a342183a5,2021-09-27_16h20.47.186,forced_choiceRT_color,2021.2.3,Win32,12.00624325,,,,,,,,3,Ontime,short,d,1,1.9183,9,1,37,0,1,,,,,
0.06,,,,,,,,,d,orange,601981d7485c3e0a342183a5,2021-09-27_16h20.47.186,forced_choiceRT_color,2021.2.3,Win32,12.00624325,,,,,,,,3,Ontime,short,d,1,2.0683,9,2,38,0,1,,,,,
1.33,,,,,,,,,k,purple,601981d7485c3e0a342183a5,2021-09-27_16h20.47.186,forced_choiceRT_color,2021.2.3,Win32,12.00624325,,,,,,,,3,Ontime,short,k,1,2.0987,9,3,39,3,1,,,,,
,,,,,,,,,,,601981d7485c3e0a342183a5,2021-09-27_16h20.47.186,forced_choiceRT_color,2021.2.3,Win32,12.00624325,,,,,,,,,,,,,,,,,,,2,0,2,0,1
0.21,,,,,,,,,f,blue,601981d7485c3e0a342183a5,2021-09-27_16h20.47.186,forced_choiceRT_color,2021.2.3,Win32,12.00624325,,,,,,,,4,Ontime,short,f,1,2.0316,0,0,0,1,1,,,,,
0.47,,,,,,,,,j,red,601981d7485c3e0a342183a5,2021-09-27_16h20.47.186,forced_choiceRT_color,2021.2.3,Win32,12.00624325,,,,,,,,4,Fast,short,j,1,1.8603,0,1,1,2,1,,,,,
1.35,,,,,,,,,j,red,601981d7485c3e0a342183a5,2021-09-27_16h20.47.186,forced_choiceRT_color,2021.2.3,Win32,12.00624325,,,,,,,,4,Slow,short,j,1,2.1976,0,2,2,2,1,,,,,
0.54,,,,,,,,,f,blue,601981d7485c3e0a342183a5,2021-09-27_16h20.47.186,forced_choiceRT_color,2021.2.3,Win32,12.00624325,,,,,,,,4,Ontime,short,f,1,1.981,0,3,3,1,1,,,,,
0.84,,,,,,,,,k,purple,601981d7485c3e0a342183a5,2021-09-27_16h20.47.186,forced_choiceRT_color,2021.2.3,Win32,12.00624325,,,,,,,,4,Ontime,short,k,1,1.9542,1,0,4,3,1,,,,,
0.16,,,,,,,,,f,blue,601981d7485c3e0a342183a5,2021-09-27_16h20.47.186,forced_choiceRT_color,2021.2.3,Win32,12.00624325,,,,,,,,4,Ontime,short,f,1,1.9363,1,1,5,1,1,,,,,
0.12,,,,,,,,,d,orange,601981d7485c3e0a342183a5,2021-09-27_16h20.47.186,forced_choiceRT_color,2021.2.3,Win32,12.00624325,,,,,,,,4,Ontime,short,d,1,2.0415,1,2,6,0,1,,,,,
0.25,,,,,,,,,d,orange,601981d7485c3e0a342183a5,2021-09-27_16h20.47.186,forced_choiceRT_color,2021.2.3,Win32,12.00624325,,,,,,,,4,Ontime,short,d,1,1.9041,1,3,7,0,1,,,,,
0.85,,,,,,,,,k,purple,601981d7485c3e0a342183a5,2021-09-27_16h20.47.186,forced_choiceRT_color,2021.2.3,Win32,12.00624325,,,,,,,,4,Fast,short,k,1,1.8133,2,0,8,3,1,,,,,
1.14,,,,,,,,,d,orange,601981d7485c3e0a342183a5,2021-09-27_16h20.47.186,forced_choiceRT_color,2021.2.3,Win32,12.00624325,,,,,,,,4,Slow,short,d,1,2.116,2,1,9,0,1,,,,,
0.81,,,,,,,,,j,red,601981d7485c3e0a342183a5,2021-09-27_16h20.47.186,forced_choiceRT_color,2021.2.3,Win32,12.00624325,,,,,,,,4,Ontime,short,j,1,1.9552,2,2,10,2,1,,,,,
1.26,,,,,,,,,k,purple,601981d7485c3e0a342183a5,2021-09-27_16h20.47.186,forced_choiceRT_color,2021.2.3,Win32,12.00624325,,,,,,,,4,Ontime,short,k,1,2.0099,2,3,11,3,1,,,,,
1.89,,,,,,,,,k,purple,601981d7485c3e0a342183a5,2021-09-27_16h20.47.186,forced_choiceRT_color,2021.2.3,Win32,12.00624325,,,,,,,,4,Slow,short,k,1,2.6364,3,0,12,3,1,,,,,
0.9,,,,,,,,,k,purple,601981d7485c3e0a342183a5,2021-09-27_16h20.47.186,forced_choiceRT_color,2021.2.3,Win32,12.00624325,,,,,,,,4,Fast,short,k,1,1.6071,3,1,13,3,1,,,,,
0.9,,,,,,,,,f,blue,601981d7485c3e0a342183a5,2021-09-27_16h20.47.186,forced_choiceRT_color,2021.2.3,Win32,12.00624325,,,,,,,,4,Ontime,short,f,1,1.9321,3,2,14,1,1,,,,,
0.98,,,,,,,,,f,blue,601981d7485c3e0a342183a5,2021-09-27_16h20.47.186,forced_choiceRT_color,2021.2.3,Win32,12.00624325,,,,,,,,4,Ontime,short,f,1,2.0584,3,3,15,1,1,,,,,
0.52,,,,,,,,,d,orange,601981d7485c3e0a342183a5,2021-09-27_16h20.47.186,forced_choiceRT_color,2021.2.3,Win32,12.00624325,,,,,,,,4,Ontime,short,d,1,1.9936,4,0,16,0,1,,,,,
1.6,,,,,,,,,d,orange,601981d7485c3e0a342183a5,2021-09-27_16h20.47.186,forced_choiceRT_color,2021.2.3,Win32,12.00624325,,,,,,,,4,Slow,short,d,1,2.2794,4,1,17,0,1,,,,,
1.07,,,,,,,,,j,red,601981d7485c3e0a342183a5,2021-09-27_16h20.47.186,forced_choiceRT_color,2021.2.3,Win32,12.00624325,,,,,,,,4,Fast,short,j,1,1.7903,4,2,18,2,1,,,,,
0.63,,,,,,,,,d,orange,601981d7485c3e0a342183a5,2021-09-27_16h20.47.186,forced_choiceRT_color,2021.2.3,Win32,12.00624325,,,,,,,,4,Ontime,short,d,1,1.9652,4,3,19,0,1,,,,,
0.27,,,,,,,,,k,purple,601981d7485c3e0a342183a5,2021-09-27_16h20.47.186,forced_choiceRT_color,2021.2.3,Win32,12.00624325,,,,,,,,4,Ontime,short,k,1,1.9068,5,0,20,3,1,,,,,
0.05,,,,,,,,,d,orange,601981d7485c3e0a342183a5,2021-09-27_16h20.47.186,forced_choiceRT_color,2021.2.3,Win32,12.00624325,,,,,,,,4,Ontime,short,j,0,1.935,5,1,21,0,1,,,,,
1.72,,,,,,,,,j,red,601981d7485c3e0a342183a5,2021-09-27_16h20.47.186,forced_choiceRT_color,2021.2.3,Win32,12.00624325,,,,,,,,4,Slow,short,j,1,2.2708,5,2,22,2,1,,,,,
1.4,,,,,,,,,k,purple,601981d7485c3e0a342183a5,2021-09-27_16h20.47.186,forced_choiceRT_color,2021.2.3,Win32,12.00624325,,,,,,,,4,Slow,short,k,1,2.2055,5,3,23,3,1,,,,,
1.13,,,,,,,,,j,red,601981d7485c3e0a342183a5,2021-09-27_16h20.47.186,forced_choiceRT_color,2021.2.3,Win32,12.00624325,,,,,,,,4,Ontime,short,j,1,2.0155,6,0,24,2,1,,,,,
0.65,,,,,,,,,j,red,601981d7485c3e0a342183a5,2021-09-27_16h20.47.186,forced_choiceRT_color,2021.2.3,Win32,12.00624325,,,,,,,,4,Fast,short,j,1,1.8643,6,1,25,2,1,,,,,
0.21,,,,,,,,,k,purple,601981d7485c3e0a342183a5,2021-09-27_16h20.47.186,forced_choiceRT_color,2021.2.3,Win32,12.00624325,,,,,,,,4,Ontime,short,k,1,2.031,6,2,26,3,1,,,,,
1.69,,,,,,,,,j,red,601981d7485c3e0a342183a5,2021-09-27_16h20.47.186,forced_choiceRT_color,2021.2.3,Win32,12.00624325,,,,,,,,4,Slow,short,j,1,2.5497,6,3,27,2,1,,,,,
1.66,,,,,,,,,j,red,601981d7485c3e0a342183a5,2021-09-27_16h20.47.186,forced_choiceRT_color,2021.2.3,Win32,12.00624325,,,,,,,,4,Slow,short,j,1,2.3768,7,0,28,2,1,,,,,
0.53,,,,,,,,,f,blue,601981d7485c3e0a342183a5,2021-09-27_16h20.47.186,forced_choiceRT_color,2021.2.3,Win32,12.00624325,,,,,,,,4,Slow,short,f,1,2.2081,7,1,29,1,1,,,,,
0.02,,,,,,,,,f,blue,601981d7485c3e0a342183a5,2021-09-27_16h20.47.186,forced_choiceRT_color,2021.2.3,Win32,12.00624325,,,,,,,,4,Fast,short,f,1,1.8092,7,2,30,1,1,,,,,
1.29,,,,,,,,,k,purple,601981d7485c3e0a342183a5,2021-09-27_16h20.47.186,forced_choiceRT_color,2021.2.3,Win32,12.00624325,,,,,,,,4,Slow,short,k,1,2.3911,7,3,31,3,1,,,,,
1.52,,,,,,,,,d,orange,601981d7485c3e0a342183a5,2021-09-27_16h20.47.186,forced_choiceRT_color,2021.2.3,Win32,12.00624325,,,,,,,,4,Slow,short,f,0,2.284,8,0,32,0,1,,,,,
1.03,,,,,,,,,f,blue,601981d7485c3e0a342183a5,2021-09-27_16h20.47.186,forced_choiceRT_color,2021.2.3,Win32,12.00624325,,,,,,,,4,Ontime,short,f,1,2.0398,8,1,33,1,1,,,,,
0.74,,,,,,,,,f,blue,601981d7485c3e0a342183a5,2021-09-27_16h20.47.186,forced_choiceRT_color,2021.2.3,Win32,12.00624325,,,,,,,,4,Ontime,short,f,1,1.9677,8,2,34,1,1,,,,,
0.03,,,,,,,,,d,orange,601981d7485c3e0a342183a5,2021-09-27_16h20.47.186,forced_choiceRT_color,2021.2.3,Win32,12.00624325,,,,,,,,4,Ontime,short,d,1,1.9418,8,3,35,0,1,,,,,
1.14,,,,,,,,,k,purple,601981d7485c3e0a342183a5,2021-09-27_16h20.47.186,forced_choiceRT_color,2021.2.3,Win32,12.00624325,,,,,,,,4,Ontime,short,j,0,1.9173,9,0,36,3,1,,,,,
0.9,,,,,,,,,f,blue,601981d7485c3e0a342183a5,2021-09-27_16h20.47.186,forced_choiceRT_color,2021.2.3,Win32,12.00624325,,,,,,,,4,Fast,short,f,1,1.8197,9,1,37,1,1,,,,,
1.84,,,,,,,,,j,red,601981d7485c3e0a342183a5,2021-09-27_16h20.47.186,forced_choiceRT_color,2021.2.3,Win32,12.00624325,,,,,,,,4,Slow,short,k,0,2.3638,9,2,38,2,1,,,,,
1.12,,,,,,,,,d,orange,601981d7485c3e0a342183a5,2021-09-27_16h20.47.186,forced_choiceRT_color,2021.2.3,Win32,12.00624325,,,,,,,,4,Slow,short,j,0,2.1218,9,3,39,0,1,,,,,
,,,,,,,,,,,601981d7485c3e0a342183a5,2021-09-27_16h20.47.186,forced_choiceRT_color,2021.2.3,Win32,12.00624325,,,,,,,,,,,,,,,,,,,3,0,3,0,1
0.07,,,,,,,,,d,orange,601981d7485c3e0a342183a5,2021-09-27_16h20.47.186,forced_choiceRT_color,2021.2.3,Win32,12.00624325,,,,,,,,5,Ontime,short,d,1,2.0396,0,0,0,0,1,,,,,
0.2,,,,,,,,,j,red,601981d7485c3e0a342183a5,2021-09-27_16h20.47.186,forced_choiceRT_color,2021.2.3,Win32,12.00624325,,,,,,,,5,Ontime,short,j,1,1.9061,0,1,1,2,1,,,,,
1.41,,,,,,,,,k,purple,601981d7485c3e0a342183a5,2021-09-27_16h20.47.186,forced_choiceRT_color,2021.2.3,Win32,12.00624325,,,,,,,,5,Slow,short,k,1,2.1939,0,2,2,3,1,,,,,
0.65,,,,,,,,,d,orange,601981d7485c3e0a342183a5,2021-09-27_16h20.47.186,forced_choiceRT_color,2021.2.3,Win32,12.00624325,,,,,,,,5,Ontime,short,d,1,1.9729,0,3,3,0,1,,,,,
0.58,,,,,,,,,d,orange,601981d7485c3e0a342183a5,2021-09-27_16h20.47.186,forced_choiceRT_color,2021.2.3,Win32,12.00624325,,,,,,,,5,Ontime,short,d,1,1.9697,1,0,4,0,1,,,,,
1.58,,,,,,,,,k,purple,601981d7485c3e0a342183a5,2021-09-27_16h20.47.186,forced_choiceRT_color,2021.2.3,Win32,12.00624325,,,,,,,,5,Slow,short,k,1,2.2864,1,1,5,3,1,,,,,
0.69,,,,,,,,,j,red,601981d7485c3e0a342183a5,2021-09-27_16h20.47.186,forced_choiceRT_color,2021.2.3,Win32,12.00624325,,,,,,,,5,Fast,short,j,1,1.8323,1,2,6,2,1,,,,,
0.24,,,,,,,,,k,purple,601981d7485c3e0a342183a5,2021-09-27_16h20.47.186,forced_choiceRT_color,2021.2.3,Win32,12.00624325,,,,,,,,5,Ontime,short,k,1,1.9069,1,3,7,3,1,,,,,
0.75,,,,,,,,,f,blue,601981d7485c3e0a342183a5,2021-09-27_16h20.47.186,forced_choiceRT_color,2021.2.3,Win32,12.00624325,,,,,,,,5,Ontime,short,f,1,1.9615,2,0,8,1,1,,,,,
1.53,,,,,,,,,f,blue,601981d7485c3e0a342183a5,2021-09-27_16h20.47.186,forced_choiceRT_color,2021.2.3,Win32,12.00624325,,,,,,,,5,Slow,short,j,0,2.1144,2,1,9,1,1,,,,,
0.73,,,,,,,,,d,orange,601981d7485c3e0a342183a5,2021-09-27_16h20.47.186,forced_choiceRT_color,2021.2.3,Win32,12.00624325,,,,,,,,5,Ontime,short,d,1,2.003,2,2,10,0,1,,,,,
0.39,,,,,,,,,f,blue,601981d7485c3e0a342183a5,2021-09-27_16h20.47.186,forced_choiceRT_color,2021.2.3,Win32,12.00624325,,,,,,,,5,Fast,short,f,1,1.7998,2,3,11,1,1,,,,,
0.26,,,,,,,,,f,blue,601981d7485c3e0a342183a5,2021-09-27_16h20.47.186,forced_choiceRT_color,2021.2.3,Win32,12.00624325,,,,,,,,5,Ontime,short,f,1,2.0248,3,0,12,1,1,,,,,
1.02,,,,,,,,,k,purple,601981d7485c3e0a342183a5,2021-09-27_16h20.47.186,forced_choiceRT_color,2021.2.3,Win32,12.00624325,,,,,,,,5,Ontime,short,k,1,2.0525,3,1,13,3,1,,,,,
1.36,,,,,,,,,j,red,601981d7485c3e0a342183a5,2021-09-27_16h20.47.186,forced_choiceRT_color,2021.2.3,Win32,12.00624325,,,,,,,,5,Ontime,short,j,1,2.0003,3,2,14,2,1,,,,,
1.17,,,,,,,,,f,blue,601981d7485c3e0a342183a5,2021-09-27_16h20.47.186,forced_choiceRT_color,2021.2.3,Win32,12.00624325,,,,,,,,5,Fast,short,d,0,0.1684,3,3,15,1,1,,,,,
0.72,,,,,,,,,k,purple,601981d7485c3e0a342183a5,2021-09-27_16h20.47.186,forced_choiceRT_color,2021.2.3,Win32,12.00624325,,,,,,,,5,Ontime,short,k,1,1.9598,4,0,16,3,1,,,,,
1.84,,,,,,,,,k,purple,601981d7485c3e0a342183a5,2021-09-27_16h20.47.186,forced_choiceRT_color,2021.2.3,Win32,12.00624325,,,,,,,,5,Slow,short,f,0,2.366,4,1,17,3,1,,,,,
0.65,,,,,,,,,d,orange,601981d7485c3e0a342183a5,2021-09-27_16h20.47.186,forced_choiceRT_color,2021.2.3,Win32,12.00624325,,,,,,,,5,Ontime,short,d,1,1.9792,4,2,18,0,1,,,,,
0.45,,,,,,,,,j,red,601981d7485c3e0a342183a5,2021-09-27_16h20.47.186,forced_choiceRT_color,2021.2.3,Win32,12.00624325,,,,,,,,5,Fast,short,f,0,1.8851,4,3,19,2,1,,,,,
1.16,,,,,,,,,f,blue,601981d7485c3e0a342183a5,2021-09-27_16h20.47.186,forced_choiceRT_color,2021.2.3,Win32,12.00624325,,,,,,,,5,Ontime,short,f,1,2.0463,5,0,20,1,1,,,,,
1.58,,,,,,,,,k,purple,601981d7485c3e0a342183a5,2021-09-27_16h20.47.186,forced_choiceRT_color,2021.2.3,Win32,12.00624325,,,,,,,,5,Slow,short,k,1,2.2837,5,1,21,3,1,,,,,
1.36,,,,,,,,,j,red,601981d7485c3e0a342183a5,2021-09-27_16h20.47.186,forced_choiceRT_color,2021.2.3,Win32,12.00624325,,,,,,,,5,Slow,short,j,1,2.1046,5,2,22,2,1,,,,,
1.68,,,,,,,,,f,blue,601981d7485c3e0a342183a5,2021-09-27_16h20.47.186,forced_choiceRT_color,2021.2.3,Win32,12.00624325,,,,,,,,5,Slow,short,f,1,2.3681,5,3,23,1,1,,,,,
1.02,,,,,,,,,f,blue,601981d7485c3e0a342183a5,2021-09-27_16h20.47.186,forced_choiceRT_color,2021.2.3,Win32,12.00624325,,,,,,,,5,Fast,short,f,1,1.801,6,0,24,1,1,,,,,
1.01,,,,,,,,,j,red,601981d7485c3e0a342183a5,2021-09-27_16h20.47.186,forced_choiceRT_color,2021.2.3,Win32,12.00624325,,,,,,,,5,Ontime,short,j,1,1.9292,6,1,25,2,1,,,,,
0.85,,,,,,,,,k,purple,601981d7485c3e0a342183a5,2021-09-27_16h20.47.186,forced_choiceRT_color,2021.2.3,Win32,12.00624325,,,,,,,,5,Ontime,short,k,1,1.9321,6,2,26,3,1,,,,,
0.03,,,,,,,,,j,red,601981d7485c3e0a342183a5,2021-09-27_16h20.47.186,forced_choiceRT_color,2021.2.3,Win32,12.00624325,,,,,,,,5,Ontime,short,j,1,1.9431,6,3,27,2,1,,,,,
0.83,,,,,,,,,d,orange,601981d7485c3e0a342183a5,2021-09-27_16h20.47.186,forced_choiceRT_color,2021.2.3,Win32,12.00624325,,,,,,,,5,Ontime,short,d,1,1.9543,7,0,28,0,1,,,,,
1.27,,,,,,,,,j,red,601981d7485c3e0a342183a5,2021-09-27_16h20.47.186,forced_choiceRT_color,2021.2.3,Win32,12.00624325,,,,,,,,5,Slow,short,j,1,2.199,7,1,29,2,1,,,,,
0.89,,,,,,,,,f,blue,601981d7485c3e0a342183a5,2021-09-27_16h20.47.186,forced_choiceRT_color,2021.2.3,Win32,12.00624325,,,,,,,,5,Ontime,short,f,1,1.9464,7,2,30,1,1,,,,,
1.99,,,,,,,,,k,purple,601981d7485c3e0a342183a5,2021-09-27_16h20.47.186,forced_choiceRT_color,2021.2.3,Win32,12.00624325,,,,,,,,5,Slow,short,k,1,2.7338,7,3,31,3,1,,,,,
1.17,,,,,,,,,d,orange,601981d7485c3e0a342183a5,2021-09-27_16h20.47.186,forced_choiceRT_color,2021.2.3,Win32,12.00624325,,,,,,,,5,Slow,short,d,1,2.1242,8,0,32,0,1,,,,,
0.4,,,,,,,,,j,red,601981d7485c3e0a342183a5,2021-09-27_16h20.47.186,forced_choiceRT_color,2021.2.3,Win32,12.00624325,,,,,,,,5,Ontime,short,k,0,1.9963,8,1,33,2,1,,,,,
1.79,,,,,,,,,d,orange,601981d7485c3e0a342183a5,2021-09-27_16h20.47.186,forced_choiceRT_color,2021.2.3,Win32,12.00624325,,,,,,,,5,Slow,short,k,0,2.3582,8,2,34,0,1,,,,,
1.13,,,,,,,,,f,blue,601981d7485c3e0a342183a5,2021-09-27_16h20.47.186,forced_choiceRT_color,2021.2.3,Win32,12.00624325,,,,,,,,5,Ontime,short,f,1,2.0302,8,3,35,1,1,,,,,
0.25,,,,,,,,,d,orange,601981d7485c3e0a342183a5,2021-09-27_16h20.47.186,forced_choiceRT_color,2021.2.3,Win32,12.00624325,,,,,,,,5,Fast,short,d,1,1.7906,9,0,36,0,1,,,,,
1.31,,,,,,,,,d,orange,601981d7485c3e0a342183a5,2021-09-27_16h20.47.186,forced_choiceRT_color,2021.2.3,Win32,12.00624325,,,,,,,,5,Ontime,short,d,1,1.9987,9,1,37,0,1,,,,,
0.14,,,,,,,,,k,purple,601981d7485c3e0a342183a5,2021-09-27_16h20.47.186,forced_choiceRT_color,2021.2.3,Win32,12.00624325,,,,,,,,5,Ontime,short,k,1,1.926,9,2,38,3,1,,,,,
0.65,,,,,,,,,j,red,601981d7485c3e0a342183a5,2021-09-27_16h20.47.186,forced_choiceRT_color,2021.2.3,Win32,12.00624325,,,,,,,,5,Ontime,short,j,1,2.0002,9,3,39,2,1,,,,,
,,,,,,,,,,,601981d7485c3e0a342183a5,2021-09-27_16h20.47.186,forced_choiceRT_color,2021.2.3,Win32,12.00624325,,,,,,,,,,,,,,,,,,,4,0,4,0,1
0.24,,,,,,,,,k,purple,601981d7485c3e0a342183a5,2021-09-27_16h20.47.186,forced_choiceRT_color,2021.2.3,Win32,12.00624325,,,,,,,,6,Ontime,short,j,0,1.9119,0,0,0,3,1,,,,,
1.71,,,,,,,,,k,purple,601981d7485c3e0a342183a5,2021-09-27_16h20.47.186,forced_choiceRT_color,2021.2.3,Win32,12.00624325,,,,,,,,6,Slow,short,k,1,2.2636,0,1,1,3,1,,,,,
1.24,,,,,,,,,f,blue,601981d7485c3e0a342183a5,2021-09-27_16h20.47.186,forced_choiceRT_color,2021.2.3,Win32,12.00624325,,,,,,,,6,Slow,short,f,1,2.288,0,2,2,1,1,,,,,
0.63,,,,,,,,,k,purple,601981d7485c3e0a342183a5,2021-09-27_16h20.47.186,forced_choiceRT_color,2021.2.3,Win32,12.00624325,,,,,,,,6,Ontime,short,k,1,1.9878,0,3,3,3,1,,,,,
1.96,,,,,,,,,k,purple,601981d7485c3e0a342183a5,2021-09-27_16h20.47.186,forced_choiceRT_color,2021.2.3,Win32,12.00624325,,,,,,,,6,Slow,short,k,1,2.7118,1,0,4,3,1,,,,,
0.93,,,,,,,,,d,orange,601981d7485c3e0a342183a5,2021-09-27_16h20.47.186,forced_choiceRT_color,2021.2.3,Win32,12.00624325,,,,,,,,6,Ontime,short,d,1,2.0611,1,1,5,0,1,,,,,
0.93,,,,,,,,,j,red,601981d7485c3e0a342183a5,2021-09-27_16h20.47.186,forced_choiceRT_color,2021.2.3,Win32,12.00624325,,,,,,,,6,Ontime,short,j,1,1.9559,1,2,6,2,1,,,,,
1.47,,,,,,,,,d,orange,601981d7485c3e0a342183a5,2021-09-27_16h20.47.186,forced_choiceRT_color,2021.2.3,Win32,12.00624325,,,,,,,,6,Slow,short,f,0,2.1933,1,3,7,0,1,,,,,
0.64,,,,,,,,,d,orange,601981d7485c3e0a342183a5,2021-09-27_16h20.47.186,forced_choiceRT_color,2021.2.3,Win32,12.00624325,,,,,,,,6,Ontime,short,d,1,1.9723,2,0,8,0,1,,,,,
1.2,,,,,,,,,k,purple,601981d7485c3e0a342183a5,2021-09-27_16h20.47.186,forced_choiceRT_color,2021.2.3,Win32,12.00624325,,,,,,,,6,Ontime,short,k,1,2.0061,2,1,9,3,1,,,,,
1.92,,,,,,,,,k,purple,601981d7485c3e0a342183a5,2021-09-27_16h20.47.186,forced_choiceRT_color,2021.2.3,Win32,12.00624325,,,,,,,,6,Slow,short,k,1,2.6548,2,2,10,3,1,,,,,
1.28,,,,,,,,,j,red,601981d7485c3e0a342183a5,2021-09-27_16h20.47.186,forced_choiceRT_color,2021.2.3,Win32,12.00624325,,,,,,,,6,Ontime,short,j,1,2.0105,2,3,11,2,1,,,,,
0.86,,,,,,,,,j,red,601981d7485c3e0a342183a5,2021-09-27_16h20.47.186,forced_choiceRT_color,2021.2.3,Win32,12.00624325,,,,,,,,6,Ontime,short,j,1,1.9389,3,0,12,2,1,,,,,
1.27,,,,,,,,,d,orange,601981d7485c3e0a342183a5,2021-09-27_16h20.47.186,forced_choiceRT_color,2021.2.3,Win32,12.00624325,,,,,,,,6,Ontime,short,f,0,2.0942,3,1,13,0,1,,,,,
0.08,,,,,,,,,j,red,601981d7485c3e0a342183a5,2021-09-27_16h20.47.186,forced_choiceRT_color,2021.2.3,Win32,12.00624325,,,,,,,,6,Fast,short,d,0,0.1843,3,2,14,2,1,,,,,
0.41,,,,,,,,,f,blue,601981d7485c3e0a342183a5,2021-09-27_16h20.47.186,forced_choiceRT_color,2021.2.3,Win32,12.00624325,,,,,,,,6,Ontime,short,f,1,1.9985,3,3,15,1,1,,,,,
0.96,,,,,,,,,j,red,601981d7485c3e0a342183a5,2021-09-27_16h20.47.186,forced_choiceRT_color,2021.2.3,Win32,12.00624325,,,,,,,,6,Slow,short,j,1,2.1486,4,0,16,2,1,,,,,
0.94,,,,,,,,,f,blue,601981d7485c3e0a342183a5,2021-09-27_16h20.47.186,forced_choiceRT_color,2021.2.3,Win32,12.00624325,,,,,,,,6,Fast,short,f,1,1.8307,4,1,17,1,1,,,,,
1.86,,,,,,,,,j,red,601981d7485c3e0a342183a5,2021-09-27_16h20.47.186,forced_choiceRT_color,2021.2.3,Win32,12.00624325,,,,,,,,6,Slow,short,k,0,2.5298,4,2,18,2,1,,,,,
0.07,,,,,,,,,k,purple,601981d7485c3e0a342183a5,2021-09-27_16h20.47.186,forced_choiceRT_color,2021.2.3,Win32,12.00624325,,,,,,,,6,Ontime,short,k,1,2.0559,4,3,19,3,1,,,,,
1.98,,,,,,,,,f,blue,601981d7485c3e0a342183a5,2021-09-27_16h20.47.186,forced_choiceRT_color,2021.2.3,Win32,12.00624325,,,,,,,,6,Slow,short,f,1,2.5257,5,0,20,1,1,,,,,
0.76,,,,,,,,,d,orange,601981d7485c3e0a342183a5,2021-09-27_16h20.47.186,forced_choiceRT_color,2021.2.3,Win32,12.00624325,,,,,,,,6,Ontime,short,d,1,1.953,5,1,21,0,1,,,,,
0.8,,,,,,,,,f,blue,601981d7485c3e0a342183a5,2021-09-27_16h20.47.186,forced_choiceRT_color,2021.2.3,Win32,12.00624325,,,,,,,,6,Ontime,short,f,1,1.953,5,2,22,1,1,,,,,
0.16,,,,,,,,,d,orange,601981d7485c3e0a342183a5,2021-09-27_16h20.47.186,forced_choiceRT_color,2021.2.3,Win32,12.00624325,,,,,,,,6,Fast,short,d,1,1.8108,5,3,23,0,1,,,,,
1.07,,,,,,,,,d,orange,601981d7485c3e0a342183a5,2021-09-27_16h20.47.186,forced_choiceRT_color,2021.2.3,Win32,12.00624325,,,,,,,,6,Slow,short,d,1,2.1222,6,0,24,0,1,,,,,
0.64,,,,,,,,,j,red,601981d7485c3e0a342183a5,2021-09-27_16h20.47.186,forced_choiceRT_color,2021.2.3,Win32,12.00624325,,,,,,,,6,Fast,short,k,0,1.8265,6,1,25,2,1,,,,,
1.33,,,,,,,,,f,blue,601981d7485c3e0a342183a5,2021-09-27_16h20.47.186,forced_choiceRT_color,2021.2.3,Win32,12.00624325,,,,,,,,6,Slow,short,f,1,2.2855,6,2,26,1,1,,,,,
1.02,,,,,,,,,d,orange,601981d7485c3e0a342183a5,2021-09-27_16h20.47.186,forced_choiceRT_color,2021.2.3,Win32,12.00624325,,,,,,,,6,Ontime,short,f,0,2.0701,6,3,27,0,1,,,,,
1.59,,,,,,,,,d,orange,601981d7485c3e0a342183a5,2021-09-27_16h20.47.186,forced_choiceRT_color,2021.2.3,Win32,12.00624325,,,,,,,,6,Fast,short,d,1,0.1692,7,0,28,0,1,,,,,
0.47,,,,,,,,,j,red,601981d7485c3e0a342183a5,2021-09-27_16h20.47.186,forced_choiceRT_color,2021.2.3,Win32,12.00624325,,,,,,,,6,Ontime,short,j,1,1.9813,7,1,29,2,1,,,,,
0.09,,,,,,,,,k,purple,601981d7485c3e0a342183a5,2021-09-27_16h20.47.186,forced_choiceRT_color,2021.2.3,Win32,12.00624325,,,,,,,,6,Ontime,short,k,1,2.0794,7,2,30,3,1,,,,,
0,,,,,,,,,f,blue,601981d7485c3e0a342183a5,2021-09-27_16h20.47.186,forced_choiceRT_color,2021.2.3,Win32,12.00624325,,,,,,,,6,Fast,short,f,1,1.8462,7,3,31,1,1,,,,,
1.29,,,,,,,,,f,blue,601981d7485c3e0a342183a5,2021-09-27_16h20.47.186,forced_choiceRT_color,2021.2.3,Win32,12.00624325,,,,,,,,6,Slow,short,f,1,2.1972,8,0,32,1,1,,,,,
0.74,,,,,,,,,j,red,601981d7485c3e0a342183a5,2021-09-27_16h20.47.186,forced_choiceRT_color,2021.2.3,Win32,12.00624325,,,,,,,,6,Ontime,short,j,1,1.9669,8,1,33,2,1,,,,,
0.74,,,,,,,,,d,orange,601981d7485c3e0a342183a5,2021-09-27_16h20.47.186,forced_choiceRT_color,2021.2.3,Win32,12.00624325,,,,,,,,6,Ontime,short,d,1,1.9637,8,2,34,0,1,,,,,
0.94,,,,,,,,,f,blue,601981d7485c3e0a342183a5,2021-09-27_16h20.47.186,forced_choiceRT_color,2021.2.3,Win32,12.00624325,,,,,,,,6,Ontime,short,f,1,1.9401,8,3,35,1,1,,,,,
0.76,,,,,,,,,k,purple,601981d7485c3e0a342183a5,2021-09-27_16h20.47.186,forced_choiceRT_color,2021.2.3,Win32,12.00624325,,,,,,,,6,Ontime,short,k,1,2.0533,9,0,36,3,1,,,,,
0.61,,,,,,,,,k,purple,601981d7485c3e0a342183a5,2021-09-27_16h20.47.186,forced_choiceRT_color,2021.2.3,Win32,12.00624325,,,,,,,,6,Ontime,short,k,1,2.0106,9,1,37,3,1,,,,,
1.75,,,,,,,,,f,blue,601981d7485c3e0a342183a5,2021-09-27_16h20.47.186,forced_choiceRT_color,2021.2.3,Win32,12.00624325,,,,,,,,6,Slow,short,f,1,3.2982,9,2,38,1,1,,,,,
0.86,,,,,,,,,j,red,601981d7485c3e0a342183a5,2021-09-27_16h20.47.186,forced_choiceRT_color,2021.2.3,Win32,12.00624325,,,,,,,,6,Ontime,short,j,1,1.9623,9,3,39,2,1,,,,,
,,,,,,,,,,,601981d7485c3e0a342183a5,2021-09-27_16h20.47.186,forced_choiceRT_color,2021.2.3,Win32,12.00624325,,,,,,,,,,,,,,,,,,,5,0,5,0,1
0.49,,,,,,,,,f,blue,601981d7485c3e0a342183a5,2021-09-27_16h20.47.186,forced_choiceRT_color,2021.2.3,Win32,12.00624325,,,,,,,,7,Ontime,short,f,1,1.9959,0,0,0,1,1,,,,,
0.97,,,,,,,,,d,orange,601981d7485c3e0a342183a5,2021-09-27_16h20.47.186,forced_choiceRT_color,2021.2.3,Win32,12.00624325,,,,,,,,7,Ontime,short,d,1,1.9374,0,1,1,0,1,,,,,
1.49,,,,,,,,,f,blue,601981d7485c3e0a342183a5,2021-09-27_16h20.47.186,forced_choiceRT_color,2021.2.3,Win32,12.00624325,,,,,,,,7,Slow,short,j,0,2.1019,0,2,2,1,1,,,,,
1.55,,,,,,,,,j,red,601981d7485c3e0a342183a5,2021-09-27_16h20.47.186,forced_choiceRT_color,2021.2.3,Win32,12.00624325,,,,,,,,7,Slow,short,j,1,2.1852,0,3,3,2,1,,,,,
1.94,,,,,,,,,j,red,601981d7485c3e0a342183a5,2021-09-27_16h20.47.186,forced_choiceRT_color,2021.2.3,Win32,12.00624325,,,,,,,,7,Slow,short,j,1,3.5738,1,0,4,2,1,,,,,
0.91,,,,,,,,,d,orange,601981d7485c3e0a342183a5,2021-09-27_16h20.47.186,forced_choiceRT_color,2021.2.3,Win32,12.00624325,,,,,,,,7,Ontime,short,d,1,1.9278,1,1,5,0,1,,,,,
1.73,,,,,,,,,j,red,601981d7485c3e0a342183a5,2021-09-27_16h20.47.186,forced_choiceRT_color,2021.2.3,Win32,12.00624325,,,,,,,,7,Slow,short,j,1,2.8463,1,2,6,2,1,,,,,
1.42,,,,,,,,,j,red,601981d7485c3e0a342183a5,2021-09-27_16h20.47.186,forced_choiceRT_color,2021.2.3,Win32,12.00624325,,,,,,,,7,Slow,short,j,1,2.1146,1,3,7,2,1,,,,,
0.41,,,,,,,,,f,blue,601981d7485c3e0a342183a5,2021-09-27_16h20.47.186,forced_choiceRT_color,2021.2.3,Win32,12.00624325,,,,,,,,7,Ontime,short,f,1,2.0121,2,0,8,1,1,,,,,
1.09,,,,,,,,,d,orange,601981d7485c3e0a342183a5,2021-09-27_16h20.47.186,forced_choiceRT_color,2021.2.3,Win32,12.00624325,,,,,,,,7,Ontime,short,d,1,2.0161,2,1,9,0,1,,,,,
1.43,,,,,,,,,k,purple,601981d7485c3e0a342183a5,2021-09-27_16h20.47.186,forced_choiceRT_color,2021.2.3,Win32,12.00624325,,,,,,,,7,Slow,short,k,1,2.1115,2,2,10,3,1,,,,,
1.56,,,,,,,,,f,blue,601981d7485c3e0a342183a5,2021-09-27_16h20.47.186,forced_choiceRT_color,2021.2.3,Win32,12.00624325,,,,,,,,7,Slow,short,f,1,2.2936,2,3,11,1,1,,,,,
0.38,,,,,,,,,k,purple,601981d7485c3e0a342183a5,2021-09-27_16h20.47.186,forced_choiceRT_color,2021.2.3,Win32,12.00624325,,,,,,,,7,Ontime,short,j,0,1.9925,3,0,12,3,1,,,,,
1.97,,,,,,,,,k,purple,601981d7485c3e0a342183a5,2021-09-27_16h20.47.186,forced_choiceRT_color,2021.2.3,Win32,12.00624325,,,,,,,,7,Slow,short,k,1,2.13,3,1,13,3,1,,,,,
0.09,,,,,,,,,d,orange,601981d7485c3e0a342183a5,2021-09-27_16h20.47.186,forced_choiceRT_color,2021.2.3,Win32,12.00624325,,,,,,,,7,Ontime,short,d,1,2.056,3,2,14,0,1,,,,,
0.91,,,,,,,,,k,purple,601981d7485c3e0a342183a5,2021-09-27_16h20.47.186,forced_choiceRT_color,2021.2.3,Win32,12.00624325,,,,,,,,7,Ontime,short,k,1,2.0661,3,3,15,3,1,,,,,
1.7,,,,,,,,,k,purple,601981d7485c3e0a342183a5,2021-09-27_16h20.47.186,forced_choiceRT_color,2021.2.3,Win32,12.00624325,,,,,,,,7,Ontime,short,f,0,2.0794,4,0,16,3,1,,,,,
0.42,,,,,,,,,j,red,601981d7485c3e0a342183a5,2021-09-27_16h20.47.186,forced_choiceRT_color,2021.2.3,Win32,12.00624325,,,,,,,,7,Fast,short,d,0,1.8926,4,1,17,2,1,,,,,
1.87,,,,,,,,,d,orange,601981d7485c3e0a342183a5,2021-09-27_16h20.47.186,forced_choiceRT_color,2021.2.3,Win32,12.00624325,,,,,,,,7,Slow,short,d,1,3.0217,4,2,18,0,1,,,,,
1.04,,,,,,,,,j,red,601981d7485c3e0a342183a5,2021-09-27_16h20.47.186,forced_choiceRT_color,2021.2.3,Win32,12.00624325,,,,,,,,7,Slow,short,j,1,2.1283,4,3,19,2,1,,,,,
0.23,,,,,,,,,k,purple,601981d7485c3e0a342183a5,2021-09-27_16h20.47.186,forced_choiceRT_color,2021.2.3,Win32,12.00624325,,,,,,,,7,Fast,short,k,1,1.7977,5,0,20,3,1,,,,,
0.99,,,,,,,,,j,red,601981d7485c3e0a342183a5,2021-09-27_16h20.47.186,forced_choiceRT_color,2021.2.3,Win32,12.00624325,,,,,,,,7,Ontime,short,j,1,2.0338,5,1,21,2,1,,,,,
1.23,,,,,,,,,j,red,601981d7485c3e0a342183a5,2021-09-27_16h20.47.186,forced_choiceRT_color,2021.2.3,Win32,12.00624325,,,,,,,,7,Ontime,short,j,1,2.0007,5,2,22,2,1,,,,,
0.88,,,,,,,,,f,blue,601981d7485c3e0a342183a5,2021-09-27_16h20.47.186,forced_choiceRT_color,2021.2.3,Win32,12.00624325,,,,,,,,7,Ontime,short,f,1,1.927,5,3,23,1,1,,,,,
1.55,,,,,,,,,k,purple,601981d7485c3e0a342183a5,2021-09-27_16h20.47.186,forced_choiceRT_color,2021.2.3,Win32,12.00624325,,,,,,,,7,Slow,short,d,0,2.1847,6,0,24,3,1,,,,,
1.86,,,,,,,,,j,red,601981d7485c3e0a342183a5,2021-09-27_16h20.47.186,forced_choiceRT_color,2021.2.3,Win32,12.00624325,,,,,,,,7,Slow,short,j,1,2.9168,6,1,25,2,1,,,,,
0.64,,,,,,,,,d,orange,601981d7485c3e0a342183a5,2021-09-27_16h20.47.186,forced_choiceRT_color,2021.2.3,Win32,12.00624325,,,,,,,,7,Ontime,short,d,1,2.0971,6,2,26,0,1,,,,,
0.38,,,,,,,,,k,purple,601981d7485c3e0a342183a5,2021-09-27_16h20.47.186,forced_choiceRT_color,2021.2.3,Win32,12.00624325,,,,,,,,7,Ontime,short,k,1,2.0038,6,3,27,3,1,,,,,
1.46,,,,,,,,,d,orange,601981d7485c3e0a342183a5,2021-09-27_16h20.47.186,forced_choiceRT_color,2021.2.3,Win32,12.00624325,,,,,,,,7,Ontime,short,j,0,2.0913,7,0,28,0,1,,,,,
1.45,,,,,,,,,f,blue,601981d7485c3e0a342183a5,2021-09-27_16h20.47.186,forced_choiceRT_color,2021.2.3,Win32,12.00624325,,,,,,,,7,Slow,short,f,1,2.1896,7,1,29,1,1,,,,,
0.18,,,,,,,,,d,orange,601981d7485c3e0a342183a5,2021-09-27_16h20.47.186,forced_choiceRT_color,2021.2.3,Win32,12.00624325,,,,,,,,7,Ontime,short,d,1,1.9391,7,2,30,0,1,,,,,
0.64,,,,,,,,,f,blue,601981d7485c3e0a342183a5,2021-09-27_16h20.47.186,forced_choiceRT_color,2021.2.3,Win32,12.00624325,,,,,,,,7,Ontime,short,f,1,2.0027,7,3,31,1,1,,,,,
0.87,,,,,,,,,f,blue,601981d7485c3e0a342183a5,2021-09-27_16h20.47.186,forced_choiceRT_color,2021.2.3,Win32,12.00624325,,,,,,,,7,Ontime,short,f,1,2.0677,8,0,32,1,1,,,,,
1.93,,,,,,,,,f,blue,601981d7485c3e0a342183a5,2021-09-27_16h20.47.186,forced_choiceRT_color,2021.2.3,Win32,12.00624325,,,,,,,,7,Slow,short,f,1,2.9117,8,1,33,1,1,,,,,
0.31,,,,,,,,,k,purple,601981d7485c3e0a342183a5,2021-09-27_16h20.47.186,forced_choiceRT_color,2021.2.3,Win32,12.00624325,,,,,,,,7,Fast,short,k,1,1.8974,8,2,34,3,1,,,,,
1.87,,,,,,,,,d,orange,601981d7485c3e0a342183a5,2021-09-27_16h20.47.186,forced_choiceRT_color,2021.2.3,Win32,12.00624325,,,,,,,,7,Slow,short,j,0,2.4222,8,3,35,0,1,,,,,
0.66,,,,,,,,,j,red,601981d7485c3e0a342183a5,2021-09-27_16h20.47.186,forced_choiceRT_color,2021.2.3,Win32,12.00624325,,,,,,,,7,Ontime,short,j,1,2.0907,9,0,36,2,1,,,,,
1.33,,,,,,,,,d,orange,601981d7485c3e0a342183a5,2021-09-27_16h20.47.186,forced_choiceRT_color,2021.2.3,Win32,12.00624325,,,,,,,,7,Ontime,short,d,1,2.0965,9,1,37,0,1,,,,,
0.52,,,,,,,,,f,blue,601981d7485c3e0a342183a5,2021-09-27_16h20.47.186,forced_choiceRT_color,2021.2.3,Win32,12.00624325,,,,,,,,7,Slow,short,f,1,2.1155,9,2,38,1,1,,,,,
1.15,,,,,,,,,k,purple,601981d7485c3e0a342183a5,2021-09-27_16h20.47.186,forced_choiceRT_color,2021.2.3,Win32,12.00624325,,,,,,,,7,Ontime,short,j,0,1.9003,9,3,39,3,1,,,,,
,,,,,,,,,,,601981d7485c3e0a342183a5,2021-09-27_16h20.47.186,forced_choiceRT_color,2021.2.3,Win32,12.00624325,,,,,,,,,,,,,,,,,,,6,0,6,0,1
1.62,,,,,,,,,f,blue,601981d7485c3e0a342183a5,2021-09-27_16h20.47.186,forced_choiceRT_color,2021.2.3,Win32,12.00624325,,,,,,,,8,Slow,short,f,1,2.3745,0,0,0,1,1,,,,,
1.89,,,,,,,,,k,purple,601981d7485c3e0a342183a5,2021-09-27_16h20.47.186,forced_choiceRT_color,2021.2.3,Win32,12.00624325,,,,,,,,8,Slow,short,d,0,2.2164,0,1,1,3,1,,,,,
1.42,,,,,,,,,d,orange,601981d7485c3e0a342183a5,2021-09-27_16h20.47.186,forced_choiceRT_color,2021.2.3,Win32,12.00624325,,,,,,,,8,Slow,short,d,1,2.1374,0,2,2,0,1,,,,,
0.63,,,,,,,,,j,red,601981d7485c3e0a342183a5,2021-09-27_16h20.47.186,forced_choiceRT_color,2021.2.3,Win32,12.00624325,,,,,,,,8,Fast,short,j,1,1.4489,0,3,3,2,1,,,,,
1.36,,,,,,,,,d,orange,601981d7485c3e0a342183a5,2021-09-27_16h20.47.186,forced_choiceRT_color,2021.2.3,Win32,12.00624325,,,,,,,,8,Slow,short,d,1,2.1494,1,0,4,0,1,,,,,
1.19,,,,,,,,,k,purple,601981d7485c3e0a342183a5,2021-09-27_16h20.47.186,forced_choiceRT_color,2021.2.3,Win32,12.00624325,,,,,,,,8,Ontime,short,j,0,2.0726,1,1,5,3,1,,,,,
0.28,,,,,,,,,k,purple,601981d7485c3e0a342183a5,2021-09-27_16h20.47.186,forced_choiceRT_color,2021.2.3,Win32,12.00624325,,,,,,,,8,Fast,short,k,1,1.8281,1,2,6,3,1,,,,,
1.55,,,,,,,,,j,red,601981d7485c3e0a342183a5,2021-09-27_16h20.47.186,forced_choiceRT_color,2021.2.3,Win32,12.00624325,,,,,,,,8,Slow,short,k,0,2.193,1,3,7,2,1,,,,,
1.33,,,,,,,,,f,blue,601981d7485c3e0a342183a5,2021-09-27_16h20.47.186,forced_choiceRT_color,2021.2.3,Win32,12.00624325,,,,,,,,8,Ontime,short,f,1,2.0081,2,0,8,1,1,,,,,
0.3,,,,,,,,,k,purple,601981d7485c3e0a342183a5,2021-09-27_16h20.47.186,forced_choiceRT_color,2021.2.3,Win32,12.00624325,,,,,,,,8,Ontime,short,k,1,2.0115,2,1,9,3,1,,,,,
1.41,,,,,,,,,j,red,601981d7485c3e0a342183a5,2021-09-27_16h20.47.186,forced_choiceRT_color,2021.2.3,Win32,12.00624325,,,,,,,,8,Slow,short,j,1,2.1866,2,2,10,2,1,,,,,
0.2,,,,,,,,,d,orange,601981d7485c3e0a342183a5,2021-09-27_16h20.47.186,forced_choiceRT_color,2021.2.3,Win32,12.00624325,,,,,,,,8,Fast,short,d,1,1.7979,2,3,11,0,1,,,,,
1.52,,,,,,,,,j,red,601981d7485c3e0a342183a5,2021-09-27_16h20.47.186,forced_choiceRT_color,2021.2.3,Win32,12.00624325,,,,,,,,8,Ontime,short,d,0,1.9756,3,0,12,2,1,,,,,
1.6,,,,,,,,,k,purple,601981d7485c3e0a342183a5,2021-09-27_16h20.47.186,forced_choiceRT_color,2021.2.3,Win32,12.00624325,,,,,,,,8,Slow,short,j,0,2.208,3,1,13,3,1,,,,,
0.84,,,,,,,,,f,blue,601981d7485c3e0a342183a5,2021-09-27_16h20.47.186,forced_choiceRT_color,2021.2.3,Win32,12.00624325,,,,,,,,8,Ontime,short,f,1,1.9597,3,2,14,1,1,,,,,
1.18,,,,,,,,,f,blue,601981d7485c3e0a342183a5,2021-09-27_16h20.47.186,forced_choiceRT_color,2021.2.3,Win32,12.00624325,,,,,,,,8,Ontime,short,f,1,2.0126,3,3,15,1,1,,,,,
0.07,,,,,,,,,k,purple,601981d7485c3e0a342183a5,2021-09-27_16h20.47.186,forced_choiceRT_color,2021.2.3,Win32,12.00624325,,,,,,,,8,Fast,short,k,1,1.8193,4,0,16,3,1,,,,,
0.49,,,,,,,,,d,orange,601981d7485c3e0a342183a5,2021-09-27_16h20.47.186,forced_choiceRT_color,2021.2.3,Win32,12.00624325,,,,,,,,8,Ontime,short,d,1,1.994,4,1,17,0,1,,,,,
0.13,,,,,,,,,j,red,601981d7485c3e0a342183a5,2021-09-27_16h20.47.186,forced_choiceRT_color,2021.2.3,Win32,12.00624325,,,,,,,,8,Ontime,short,j,1,1.9335,4,2,18,2,1,,,,,
0.29,,,,,,,,,d,orange,601981d7485c3e0a342183a5,2021-09-27_16h20.47.186,forced_choiceRT_color,2021.2.3,Win32,12.00624325,,,,,,,,8,Fast,short,d,1,1.8019,4,3,19,0,1,,,,,
1.66,,,,,,,,,j,red,601981d7485c3e0a342183a5,2021-09-27_16h20.47.186,forced_choiceRT_color,2021.2.3,Win32,12.00624325,,,,,,,,8,Slow,short,f,0,2.1929,5,0,20,2,1,,,,,
1.32,,,,,,,,,d,orange,601981d7485c3e0a342183a5,2021-09-27_16h20.47.186,forced_choiceRT_color,2021.2.3,Win32,12.00624325,,,,,,,,8,Slow,short,d,1,2.2048,5,1,21,0,1,,,,,
1.61,,,,,,,,,f,blue,601981d7485c3e0a342183a5,2021-09-27_16h20.47.186,forced_choiceRT_color,2021.2.3,Win32,12.00624325,,,,,,,,8,Slow,short,k,0,2.1819,5,2,22,1,1,,,,,
1.06,,,,,,,,,k,purple,601981d7485c3e0a342183a5,2021-09-27_16h20.47.186,forced_choiceRT_color,2021.2.3,Win32,12.00624325,,,,,,,,8,Ontime,short,k,1,2.0345,5,3,23,3,1,,,,,
1.21,,,,,,,,,d,orange,601981d7485c3e0a342183a5,2021-09-27_16h20.47.186,forced_choiceRT_color,2021.2.3,Win32,12.00624325,,,,,,,,8,Ontime,short,d,1,2.0335,6,0,24,0,1,,,,,
1.22,,,,,,,,,f,blue,601981d7485c3e0a342183a5,2021-09-27_16h20.47.186,forced_choiceRT_color,2021.2.3,Win32,12.00624325,,,,,,,,8,Ontime,short,f,1,1.9004,6,1,25,1,1,,,,,
1.28,,,,,,,,,d,orange,601981d7485c3e0a342183a5,2021-09-27_16h20.47.186,forced_choiceRT_color,2021.2.3,Win32,12.00624325,,,,,,,,8,Fast,short,j,0,1.8975,6,2,26,0,1,,,,,
0.84,,,,,,,,,k,purple,601981d7485c3e0a342183a5,2021-09-27_16h20.47.186,forced_choiceRT_color,2021.2.3,Win32,12.00624325,,,,,,,,8,Fast,short,k,1,1.8426,6,3,27,3,1,,,,,
0.17,,,,,,,,,k,purple,601981d7485c3e0a342183a5,2021-09-27_16h20.47.186,forced_choiceRT_color,2021.2.3,Win32,12.00624325,,,,,,,,8,Ontime,short,k,1,2.0234,7,0,28,3,1,,,,,
0.39,,,,,,,,,d,orange,601981d7485c3e0a342183a5,2021-09-27_16h20.47.186,forced_choiceRT_color,2021.2.3,Win32,12.00624325,,,,,,,,8,Ontime,short,d,1,1.9381,7,1,29,0,1,,,,,
1.41,,,,,,,,,k,purple,601981d7485c3e0a342183a5,2021-09-27_16h20.47.186,forced_choiceRT_color,2021.2.3,Win32,12.00624325,,,,,,,,8,Slow,short,k,1,2.1974,7,2,30,3,1,,,,,
1.64,,,,,,,,,f,blue,601981d7485c3e0a342183a5,2021-09-27_16h20.47.186,forced_choiceRT_color,2021.2.3,Win32,12.00624325,,,,,,,,8,Slow,short,j,0,2.2508,7,3,31,1,1,,,,,
0.67,,,,,,,,,d,orange,601981d7485c3e0a342183a5,2021-09-27_16h20.47.186,forced_choiceRT_color,2021.2.3,Win32,12.00624325,,,,,,,,8,Ontime,short,d,1,1.9648,8,0,32,0,1,,,,,
0.87,,,,,,,,,f,blue,601981d7485c3e0a342183a5,2021-09-27_16h20.47.186,forced_choiceRT_color,2021.2.3,Win32,12.00624325,,,,,,,,8,Ontime,short,f,1,2.0503,8,1,33,1,1,,,,,
0.03,,,,,,,,,j,red,601981d7485c3e0a342183a5,2021-09-27_16h20.47.186,forced_choiceRT_color,2021.2.3,Win32,12.00624325,,,,,,,,8,Ontime,short,j,1,1.9344,8,2,34,2,1,,,,,
0.64,,,,,,,,,j,red,601981d7485c3e0a342183a5,2021-09-27_16h20.47.186,forced_choiceRT_color,2021.2.3,Win32,12.00624325,,,,,,,,8,Ontime,short,j,1,1.9795,8,3,35,2,1,,,,,
0.9,,,,,,,,,f,blue,601981d7485c3e0a342183a5,2021-09-27_16h20.47.186,forced_choiceRT_color,2021.2.3,Win32,12.00624325,,,,,,,,8,Ontime,short,f,1,2.0812,9,0,36,1,1,,,,,
0.5,,,,,,,,,j,red,601981d7485c3e0a342183a5,2021-09-27_16h20.47.186,forced_choiceRT_color,2021.2.3,Win32,12.00624325,,,,,,,,8,Ontime,short,j,1,1.994,9,1,37,2,1,,,,,
0.18,,,,,,,,,f,blue,601981d7485c3e0a342183a5,2021-09-27_16h20.47.186,forced_choiceRT_color,2021.2.3,Win32,12.00624325,,,,,,,,8,Ontime,short,f,1,2.0471,9,2,38,1,1,,,,,
1.13,,,,,,,,,j,red,601981d7485c3e0a342183a5,2021-09-27_16h20.47.186,forced_choiceRT_color,2021.2.3,Win32,12.00624325,,,,,,,,8,Ontime,short,j,1,2.0206,9,3,39,2,1,,,,,
,,,,,,,,,,,601981d7485c3e0a342183a5,2021-09-27_16h20.47.186,forced_choiceRT_color,2021.2.3,Win32,12.00624325,,,,,,,,,,,,,,,,,,,7,0,7,0,1
0.53,,,,,,,,,k,purple,601981d7485c3e0a342183a5,2021-09-27_16h20.47.186,forced_choiceRT_color,2021.2.3,Win32,12.00624325,,,,,,,,9,Slow,short,k,1,2.3106,0,0,0,3,1,,,,,
1.07,,,,,,,,,k,purple,601981d7485c3e0a342183a5,2021-09-27_16h20.47.186,forced_choiceRT_color,2021.2.3,Win32,12.00624325,,,,,,,,9,Ontime,short,k,1,2.0241,0,1,1,3,1,,,,,
0.42,,,,,,,,,d,orange,601981d7485c3e0a342183a5,2021-09-27_16h20.47.186,forced_choiceRT_color,2021.2.3,Win32,12.00624325,,,,,,,,9,Fast,short,d,1,1.7839,0,2,2,0,1,,,,,
0.17,,,,,,,,,j,red,601981d7485c3e0a342183a5,2021-09-27_16h20.47.186,forced_choiceRT_color,2021.2.3,Win32,12.00624325,,,,,,,,9,Ontime,short,j,1,1.9307,0,3,3,2,1,,,,,
1.5,,,,,,,,,d,orange,601981d7485c3e0a342183a5,2021-09-27_16h20.47.186,forced_choiceRT_color,2021.2.3,Win32,12.00624325,,,,,,,,9,Slow,short,d,1,2.1101,1,0,4,0,1,,,,,
1.69,,,,,,,,,f,blue,601981d7485c3e0a342183a5,2021-09-27_16h20.47.186,forced_choiceRT_color,2021.2.3,Win32,12.00624325,,,,,,,,9,Slow,short,f,1,2.1812,1,1,5,1,1,,,,,
0.09,,,,,,,,,f,blue,601981d7485c3e0a342183a5,2021-09-27_16h20.47.186,forced_choiceRT_color,2021.2.3,Win32,12.00624325,,,,,,,,9,Ontime,short,f,1,1.9354,1,2,6,1,1,,,,,
1.35,,,,,,,,,j,red,601981d7485c3e0a342183a5,2021-09-27_16h20.47.186,forced_choiceRT_color,2021.2.3,Win32,12.00624325,,,,,,,,9,Ontime,short,j,1,2.0428,1,3,7,2,1,,,,,
1.93,,,,,,,,,j,red,601981d7485c3e0a342183a5,2021-09-27_16h20.47.186,forced_choiceRT_color,2021.2.3,Win32,12.00624325,,,,,,,,9,Slow,short,d,0,2.2647,2,0,8,2,1,,,,,
1.77,,,,,,,,,k,purple,601981d7485c3e0a342183a5,2021-09-27_16h20.47.186,forced_choiceRT_color,2021.2.3,Win32,12.00624325,,,,,,,,9,Slow,short,d,0,2.2583,2,1,9,3,1,,,,,
0.43,,,,,,,,,d,orange,601981d7485c3e0a342183a5,2021-09-27_16h20.47.186,forced_choiceRT_color,2021.2.3,Win32,12.00624325,,,,,,,,9,Ontime,short,d,1,1.9199,2,2,10,0,1,,,,,
0.76,,,,,,,,,d,orange,601981d7485c3e0a342183a5,2021-09-27_16h20.47.186,forced_choiceRT_color,2021.2.3,Win32,12.00624325,,,,,,,,9,Ontime,short,d,1,1.975,2,3,11,0,1,,,,,
1.36,,,,,,,,,k,purple,601981d7485c3e0a342183a5,2021-09-27_16h20.47.186,forced_choiceRT_color,2021.2.3,Win32,12.00624325,,,,,,,,9,Slow,short,j,0,2.1027,3,0,12,3,1,,,,,
1.52,,,,,,,,,j,red,601981d7485c3e0a342183a5,2021-09-27_16h20.47.186,forced_choiceRT_color,2021.2.3,Win32,12.00624325,,,,,,,,9,Slow,short,k,0,2.1173,3,1,13,2,1,,,,,
1.14,,,,,,,,,k,purple,601981d7485c3e0a342183a5,2021-09-27_16h20.47.186,forced_choiceRT_color,2021.2.3,Win32,12.00624325,,,,,,,,9,Slow,short,k,1,2.1976,3,2,14,3,1,,,,,
1.49,,,,,,,,,f,blue,601981d7485c3e0a342183a5,2021-09-27_16h20.47.186,forced_choiceRT_color,2021.2.3,Win32,12.00624325,,,,,,,,9,Slow,short,j,0,2.1092,3,3,15,1,1,,,,,
0.71,,,,,,,,,j,red,601981d7485c3e0a342183a5,2021-09-27_16h20.47.186,forced_choiceRT_color,2021.2.3,Win32,12.00624325,,,,,,,,9,Fast,short,j,1,1.8406,4,0,16,2,1,,,,,
1.08,,,,,,,,,j,red,601981d7485c3e0a342183a5,2021-09-27_16h20.47.186,forced_choiceRT_color,2021.2.3,Win32,12.00624325,,,,,,,,9,Ontime,short,j,1,2.0285,4,1,17,2,1,,,,,
0.05,,,,,,,,,f,blue,601981d7485c3e0a342183a5,2021-09-27_16h20.47.186,forced_choiceRT_color,2021.2.3,Win32,12.00624325,,,,,,,,9,Ontime,short,f,1,1.9323,4,2,18,1,1,,,,,
0.47,,,,,,,,,j,red,601981d7485c3e0a342183a5,2021-09-27_16h20.47.186,forced_choiceRT_color,2021.2.3,Win32,12.00624325,,,,,,,,9,Ontime,short,j,1,1.9939,4,3,19,2,1,,,,,
0.66,,,,,,,,,d,orange,601981d7485c3e0a342183a5,2021-09-27_16h20.47.186,forced_choiceRT_color,2021.2.3,Win32,12.00624325,,,,,,,,9,Ontime,short,d,1,1.9714,5,0,20,0,1,,,,,
1.62,,,,,,,,,j,red,601981d7485c3e0a342183a5,2021-09-27_16h20.47.186,forced_choiceRT_color,2021.2.3,Win32,12.00624325,,,,,,,,9,Slow,short,d,0,2.2742,5,1,21,2,1,,,,,
0.62,,,,,,,,,d,orange,601981d7485c3e0a342183a5,2021-09-27_16h20.47.186,forced_choiceRT_color,2021.2.3,Win32,12.00624325,,,,,,,,9,Ontime,short,d,1,1.9712,5,2,22,0,1,,,,,
0.05,,,,,,,,,k,purple,601981d7485c3e0a342183a5,2021-09-27_16h20.47.186,forced_choiceRT_color,2021.2.3,Win32,12.00624325,,,,,,,,9,Ontime,short,k,1,1.9467,5,3,23,3,1,,,,,
1.18,,,,,,,,,k,purple,601981d7485c3e0a342183a5,2021-09-27_16h20.47.186,forced_choiceRT_color,2021.2.3,Win32,12.00624325,,,,,,,,9,Slow,short,k,1,2.2144,6,0,24,3,1,,,,,
1.65,,,,,,,,,d,orange,601981d7485c3e0a342183a5,2021-09-27_16h20.47.186,forced_choiceRT_color,2021.2.3,Win32,12.00624325,,,,,,,,9,Ontime,short,f,0,2.0833,6,1,25,0,1,,,,,
1.63,,,,,,,,,d,orange,601981d7485c3e0a342183a5,2021-09-27_16h20.47.186,forced_choiceRT_color,2021.2.3,Win32,12.00624325,,,,,,,,9,Slow,short,j,0,2.2811,6,2,26,0,1,,,,,
0.97,,,,,,,,,f,blue,601981d7485c3e0a342183a5,2021-09-27_16h20.47.186,forced_choiceRT_color,2021.2.3,Win32,12.00624325,,,,,,,,9,Ontime,short,f,1,1.928,6,3,27,1,1,,,,,
0.37,,,,,,,,,f,blue,601981d7485c3e0a342183a5,2021-09-27_16h20.47.186,forced_choiceRT_color,2021.2.3,Win32,12.00624325,,,,,,,,9,Ontime,short,f,1,1.9037,7,0,28,1,1,,,,,
1.3,,,,,,,,,d,orange,601981d7485c3e0a342183a5,2021-09-27_16h20.47.186,forced_choiceRT_color,2021.2.3,Win32,12.00624325,,,,,,,,9,Ontime,short,j,0,2.0099,7,1,29,0,1,,,,,
0.72,,,,,,,,,d,orange,601981d7485c3e0a342183a5,2021-09-27_16h20.47.186,forced_choiceRT_color,2021.2.3,Win32,12.00624325,,,,,,,,9,Fast,short,d,1,1.7395,7,2,30,0,1,,,,,
1.75,,,,,,,,,j,red,601981d7485c3e0a342183a5,2021-09-27_16h20.47.186,forced_choiceRT_color,2021.2.3,Win32,12.00624325,,,,,,,,9,Ontime,short,d,0,1.9728,7,3,31,2,1,,,,,
0.62,,,,,,,,,f,blue,601981d7485c3e0a342183a5,2021-09-27_16h20.47.186,forced_choiceRT_color,2021.2.3,Win32,12.00624325,,,,,,,,9,Ontime,short,f,1,1.9758,8,0,32,1,1,,,,,
0.69,,,,,,,,,f,blue,601981d7485c3e0a342183a5,2021-09-27_16h20.47.186,forced_choiceRT_color,2021.2.3,Win32,12.00624325,,,,,,,,9,Fast,short,f,1,1.8473,8,1,33,1,1,,,,,
1.37,,,,,,,,,f,blue,601981d7485c3e0a342183a5,2021-09-27_16h20.47.186,forced_choiceRT_color,2021.2.3,Win32,12.00624325,,,,,,,,9,Ontime,short,j,0,2.0073,8,2,34,1,1,,,,,
0.32,,,,,,,,,k,purple,601981d7485c3e0a342183a5,2021-09-27_16h20.47.186,forced_choiceRT_color,2021.2.3,Win32,12.00624325,,,,,,,,9,Fast,short,k,1,1.8935,8,3,35,3,1,,,,,
0.86,,,,,,,,,j,red,601981d7485c3e0a342183a5,2021-09-27_16h20.47.186,forced_choiceRT_color,2021.2.3,Win32,12.00624325,,,,,,,,9,Ontime,short,j,1,1.9359,9,0,36,2,1,,,,,
1.96,,,,,,,,,k,purple,601981d7485c3e0a342183a5,2021-09-27_16h20.47.186,forced_choiceRT_color,2021.2.3,Win32,12.00624325,,,,,,,,9,Slow,short,j,0,2.138,9,1,37,3,1,,,,,
1.99,,,,,,,,,k,purple,601981d7485c3e0a342183a5,2021-09-27_16h20.47.186,forced_choiceRT_color,2021.2.3,Win32,12.00624325,,,,,,,,9,Slow,short,k,1,2.1323,9,2,38,3,1,,,,,
0.77,,,,,,,,,f,blue,601981d7485c3e0a342183a5,2021-09-27_16h20.47.186,forced_choiceRT_color,2021.2.3,Win32,12.00624325,,,,,,,,9,Fast,short,f,1,1.8465,9,3,39,1,1,,,,,
,,,,,,,,,,,601981d7485c3e0a342183a5,2021-09-27_16h20.47.186,forced_choiceRT_color,2021.2.3,Win32,12.00624325,,,,,,,,,,,,,,,,,,,8,0,8,0,1
0.84,,,,,,,,,k,purple,601981d7485c3e0a342183a5,2021-09-27_16h20.47.186,forced_choiceRT_color,2021.2.3,Win32,12.00624325,,,,,,,,10,Fast,short,d,0,1.4936,0,0,0,3,1,,,,,
0.17,,,,,,,,,k,purple,601981d7485c3e0a342183a5,2021-09-27_16h20.47.186,forced_choiceRT_color,2021.2.3,Win32,12.00624325,,,,,,,,10,Fast,short,k,1,1.6046,0,1,1,3,1,,,,,
1.1,,,,,,,,,d,orange,601981d7485c3e0a342183a5,2021-09-27_16h20.47.186,forced_choiceRT_color,2021.2.3,Win32,12.00624325,,,,,,,,10,Slow,short,d,1,2.2408,0,2,2,0,1,,,,,
0.79,,,,,,,,,d,orange,601981d7485c3e0a342183a5,2021-09-27_16h20.47.186,forced_choiceRT_color,2021.2.3,Win32,12.00624325,,,,,,,,10,Ontime,short,d,1,1.9676,0,3,3,0,1,,,,,
0.78,,,,,,,,,k,purple,601981d7485c3e0a342183a5,2021-09-27_16h20.47.186,forced_choiceRT_color,2021.2.3,Win32,12.00624325,,,,,,,,10,Ontime,short,k,1,1.9406,1,0,4,3,1,,,,,
0.48,,,,,,,,,d,orange,601981d7485c3e0a342183a5,2021-09-27_16h20.47.186,forced_choiceRT_color,2021.2.3,Win32,12.00624325,,,,,,,,10,Ontime,short,d,1,2.0102,1,1,5,0,1,,,,,
1.66,,,,,,,,,f,blue,601981d7485c3e0a342183a5,2021-09-27_16h20.47.186,forced_choiceRT_color,2021.2.3,Win32,12.00624325,,,,,,,,10,Ontime,short,f,1,1.9615,1,2,6,1,1,,,,,
0.77,,,,,,,,,j,red,601981d7485c3e0a342183a5,2021-09-27_16h20.47.186,forced_choiceRT_color,2021.2.3,Win32,12.00624325,,,,,,,,10,Ontime,short,j,1,2.0643,1,3,7,2,1,,,,,
1.59,,,,,,,,,d,orange,601981d7485c3e0a342183a5,2021-09-27_16h20.47.186,forced_choiceRT_color,2021.2.3,Win32,12.00624325,,,,,,,,10,Ontime,short,d,1,1.9777,2,0,8,0,1,,,,,
1.07,,,,,,,,,d,orange,601981d7485c3e0a342183a5,2021-09-27_16h20.47.186,forced_choiceRT_color,2021.2.3,Win32,12.00624325,,,,,,,,10,Fast,short,f,0,1.8023,2,1,9,0,1,,,,,
0.84,,,,,,,,,j,red,601981d7485c3e0a342183a5,2021-09-27_16h20.47.186,forced_choiceRT_color,2021.2.3,Win32,12.00624325,,,,,,,,10,Ontime,short,j,1,1.9431,2,2,10,2,1,,,,,
1.29,,,,,,,,,d,orange,601981d7485c3e0a342183a5,2021-09-27_16h20.47.186,forced_choiceRT_color,2021.2.3,Win32,12.00624325,,,,,,,,10,Ontime,short,d,1,2.0021,2,3,11,0,1,,,,,
0.69,,,,,,,,,j,red,601981d7485c3e0a342183a5,2021-09-27_16h20.47.186,forced_choiceRT_color,2021.2.3,Win32,12.00624325,,,,,,,,10,Fast,short,j,1,1.8628,3,0,12,2,1,,,,,
0.19,,,,,,,,,d,orange,601981d7485c3e0a342183a5,2021-09-27_16h20.47.186,forced_choiceRT_color,2021.2.3,Win32,12.00624325,,,,,,,,10,Ontime,short,d,1,1.9064,3,1,13,0,1,,,,,
1.88,,,,,,,,,f,blue,601981d7485c3e0a342183a5,2021-09-27_16h20.47.186,forced_choiceRT_color,2021.2.3,Win32,12.00624325,,,,,,,,10,Slow,short,f,1,2.1522,3,2,14,1,1,,,,,
1.72,,,,,,,,,d,orange,601981d7485c3e0a342183a5,2021-09-27_16h20.47.186,forced_choiceRT_color,2021.2.3,Win32,12.00624325,,,,,,,,10,Ontime,short,k,0,2.0728,3,3,15,0,1,,,,,
0.02,,,,,,,,,j,red,601981d7485c3e0a342183a5,2021-09-27_16h20.47.186,forced_choiceRT_color,2021.2.3,Win32,12.00624325,,,,,,,,10,Fast,short,j,1,1.8212,4,0,16,2,1,,,,,
0.52,,,,,,,,,f,blue,601981d7485c3e0a342183a5,2021-09-27_16h20.47.186,forced_choiceRT_color,2021.2.3,Win32,12.00624325,,,,,,,,10,Ontime,short,f,1,2.0953,4,1,17,1,1,,,,,
1.53,,,,,,,,,j,red,601981d7485c3e0a342183a5,2021-09-27_16h20.47.186,forced_choiceRT_color,2021.2.3,Win32,12.00624325,,,,,,,,10,Slow,short,j,1,2.1706,4,2,18,2,1,,,,,
0.72,,,,,,,,,k,purple,601981d7485c3e0a342183a5,2021-09-27_16h20.47.186,forced_choiceRT_color,2021.2.3,Win32,12.00624325,,,,,,,,10,Ontime,short,k,1,1.976,4,3,19,3,1,,,,,
1.45,,,,,,,,,d,orange,601981d7485c3e0a342183a5,2021-09-27_16h20.47.186,forced_choiceRT_color,2021.2.3,Win32,12.00624325,,,,,,,,10,Ontime,short,j,0,1.9768,5,0,20,0,1,,,,,
1.96,,,,,,,,,k,purple,601981d7485c3e0a342183a5,2021-09-27_16h20.47.186,forced_choiceRT_color,2021.2.3,Win32,12.00624325,,,,,,,,10,Ontime,short,d,0,1.9324,5,1,21,3,1,,,,,
0.29,,,,,,,,,k,purple,601981d7485c3e0a342183a5,2021-09-27_16h20.47.186,forced_choiceRT_color,2021.2.3,Win32,12.00624325,,,,,,,,10,Fast,short,k,1,1.8932,5,2,22,3,1,,,,,
1.32,,,,,,,,,f,blue,601981d7485c3e0a342183a5,2021-09-27_16h20.47.186,forced_choiceRT_color,2021.2.3,Win32,12.00624325,,,,,,,,10,Fast,short,f,1,1.896,5,3,23,1,1,,,,,
1.18,,,,,,,,,d,orange,601981d7485c3e0a342183a5,2021-09-27_16h20.47.186,forced_choiceRT_color,2021.2.3,Win32,12.00624325,,,,,,,,10,Ontime,short,d,1,2.0194,6,0,24,0,1,,,,,
0.87,,,,,,,,,f,blue,601981d7485c3e0a342183a5,2021-09-27_16h20.47.186,forced_choiceRT_color,2021.2.3,Win32,12.00624325,,,,,,,,10,Ontime,short,f,1,1.9326,6,1,25,1,1,,,,,
1.14,,,,,,,,,k,purple,601981d7485c3e0a342183a5,2021-09-27_16h20.47.186,forced_choiceRT_color,2021.2.3,Win32,12.00624325,,,,,,,,10,Slow,short,k,1,2.1034,6,2,26,3,1,,,,,
1.62,,,,,,,,,j,red,601981d7485c3e0a342183a5,2021-09-27_16h20.47.186,forced_choiceRT_color,2021.2.3,Win32,12.00624325,,,,,,,,10,Ontime,short,j,1,2.0861,6,3,27,2,1,,,,,
0.83,,,,,,,,,k,purple,601981d7485c3e0a342183a5,2021-09-27_16h20.47.186,forced_choiceRT_color,2021.2.3,Win32,12.00624325,,,,,,,,10,Fast,short,k,1,1.8338,7,0,28,3,1,,,,,
1.05,,,,,,,,,f,blue,601981d7485c3e0a342183a5,2021-09-27_16h20.47.186,forced_choiceRT_color,2021.2.3,Win32,12.00624325,,,,,,,,10,Ontime,short,f,1,2.0234,7,1,29,1,1,,,,,
1.06,,,,,,,,,k,purple,601981d7485c3e0a342183a5,2021-09-27_16h20.47.186,forced_choiceRT_color,2021.2.3,Win32,12.00624325,,,,,,,,10,Ontime,short,k,1,2.0324,7,2,30,3,1,,,,,
1.69,,,,,,,,,f,blue,601981d7485c3e0a342183a5,2021-09-27_16h20.47.186,forced_choiceRT_color,2021.2.3,Win32,12.00624325,,,,,,,,10,Slow,short,j,0,2.1711,7,3,31,1,1,,,,,
1.18,,,,,,,,,j,red,601981d7485c3e0a342183a5,2021-09-27_16h20.47.186,forced_choiceRT_color,2021.2.3,Win32,12.00624325,,,,,,,,10,Ontime,short,j,1,2.0319,8,0,32,2,1,,,,,
1.79,,,,,,,,,j,red,601981d7485c3e0a342183a5,2021-09-27_16h20.47.186,forced_choiceRT_color,2021.2.3,Win32,12.00624325,,,,,,,,10,Fast,short,d,0,1.8275,8,1,33,2,1,,,,,
1.4,,,,,,,,,k,purple,601981d7485c3e0a342183a5,2021-09-27_16h20.47.186,forced_choiceRT_color,2021.2.3,Win32,12.00624325,,,,,,,,10,Slow,short,j,0,2.1176,8,2,34,3,1,,,,,
1.19,,,,,,,,,j,red,601981d7485c3e0a342183a5,2021-09-27_16h20.47.186,forced_choiceRT_color,2021.2.3,Win32,12.00624325,,,,,,,,10,Slow,short,j,1,2.2152,8,3,35,2,1,,,,,
0.27,,,,,,,,,j,red,601981d7485c3e0a342183a5,2021-09-27_16h20.47.186,forced_choiceRT_color,2021.2.3,Win32,12.00624325,,,,,,,,10,Fast,short,j,1,1.799,9,0,36,2,1,,,,,
0.94,,,,,,,,,f,blue,601981d7485c3e0a342183a5,2021-09-27_16h20.47.186,forced_choiceRT_color,2021.2.3,Win32,12.00624325,,,,,,,,10,Ontime,short,f,1,2.04,9,1,37,1,1,,,,,
1.76,,,,,,,,,f,blue,601981d7485c3e0a342183a5,2021-09-27_16h20.47.186,forced_choiceRT_color,2021.2.3,Win32,12.00624325,,,,,,,,10,Slow,short,j,0,2.1682,9,2,38,1,1,,,,,
0.19,,,,,,,,,f,blue,601981d7485c3e0a342183a5,2021-09-27_16h20.47.186,forced_choiceRT_color,2021.2.3,Win32,12.00624325,,,,,,,,10,Ontime,short,f,1,1.9116,9,3,39,1,1,,,,,
,,,,,,,,,,,601981d7485c3e0a342183a5,2021-09-27_16h20.47.186,forced_choiceRT_color,2021.2.3,Win32,12.00624325,,,,,,,,,,,,,,,,,,,9,0,9,0,1
