IP_Addresss,target_onset,trial_resp_sp.keys,trial_resp_sp.corr,trial_resp_sp.rt,trials_train_loop.thisRepN,trials_train_loop.thisTrialN,trials_train_loop.thisN,trials_train_loop.thisIndex,trials_train_loop.ran,correct_key,color,participant,date,expName,psychopyVersion,OS,frameRate,trial_resp_timing.keys,trial_resp_timing.rt,trials_train_timing.thisRepN,trials_train_timing.thisTrialN,trials_train_timing.thisN,trials_train_timing.thisIndex,trials_train_timing.ran,block_id,ontime,feedback_cond,forcedRT_resp.keys,forcedRT_resp.corr,forcedRT_resp.rt,trials.thisRepN,trials.thisTrialN,trials.thisN,trials.thisIndex,trials.ran,blocks.thisRepN,blocks.thisTrialN,blocks.thisN,blocks.thisIndex,blocks.ran
99.247.251.14,0,k,1,1.6102,0,0,0,3,1,k,purple,602053cceadd2f6616479d74,2021-09-27_17h13.43.334,forced_choiceRT_color,2021.2.3,MacIntel,59.99520038,,,,,,,,,,,,,,,,,,,,,,,
,0,f,1,2.0853,0,1,1,1,1,f,blue,602053cceadd2f6616479d74,2021-09-27_17h13.43.334,forced_choiceRT_color,2021.2.3,MacIntel,59.99520038,,,,,,,,,,,,,,,,,,,,,,,
,0,k,1,2.4321,0,2,2,3,1,k,purple,602053cceadd2f6616479d74,2021-09-27_17h13.43.334,forced_choiceRT_color,2021.2.3,MacIntel,59.99520038,,,,,,,,,,,,,,,,,,,,,,,
,0,f,1,1.5331,0,3,3,1,1,f,blue,602053cceadd2f6616479d74,2021-09-27_17h13.43.334,forced_choiceRT_color,2021.2.3,MacIntel,59.99520038,,,,,,,,,,,,,,,,,,,,,,,
,0,j,1,1.4329,1,0,4,2,1,j,red,602053cceadd2f6616479d74,2021-09-27_17h13.43.334,forced_choiceRT_color,2021.2.3,MacIntel,59.99520038,,,,,,,,,,,,,,,,,,,,,,,
,0,f,1,1.4816,1,1,5,1,1,f,blue,602053cceadd2f6616479d74,2021-09-27_17h13.43.334,forced_choiceRT_color,2021.2.3,MacIntel,59.99520038,,,,,,,,,,,,,,,,,,,,,,,
,0,k,1,1.2311,1,2,6,3,1,k,purple,602053cceadd2f6616479d74,2021-09-27_17h13.43.334,forced_choiceRT_color,2021.2.3,MacIntel,59.99520038,,,,,,,,,,,,,,,,,,,,,,,
,0,k,1,0.7839,1,3,7,3,1,k,purple,602053cceadd2f6616479d74,2021-09-27_17h13.43.334,forced_choiceRT_color,2021.2.3,MacIntel,59.99520038,,,,,,,,,,,,,,,,,,,,,,,
,0,k,1,0.7663,2,0,8,3,1,k,purple,602053cceadd2f6616479d74,2021-09-27_17h13.43.334,forced_choiceRT_color,2021.2.3,MacIntel,59.99520038,,,,,,,,,,,,,,,,,,,,,,,
,0,k,1,0.7827,2,1,9,3,1,k,purple,602053cceadd2f6616479d74,2021-09-27_17h13.43.334,forced_choiceRT_color,2021.2.3,MacIntel,59.99520038,,,,,,,,,,,,,,,,,,,,,,,
,0,j,1,1.8003,2,2,10,2,1,j,red,602053cceadd2f6616479d74,2021-09-27_17h13.43.334,forced_choiceRT_color,2021.2.3,MacIntel,59.99520038,,,,,,,,,,,,,,,,,,,,,,,
,0,k,1,1.383,2,3,11,3,1,k,purple,602053cceadd2f6616479d74,2021-09-27_17h13.43.334,forced_choiceRT_color,2021.2.3,MacIntel,59.99520038,,,,,,,,,,,,,,,,,,,,,,,
,0,j,1,1.1312,3,0,12,2,1,j,red,602053cceadd2f6616479d74,2021-09-27_17h13.43.334,forced_choiceRT_color,2021.2.3,MacIntel,59.99520038,,,,,,,,,,,,,,,,,,,,,,,
,0,j,1,0.8221,3,1,13,2,1,j,red,602053cceadd2f6616479d74,2021-09-27_17h13.43.334,forced_choiceRT_color,2021.2.3,MacIntel,59.99520038,,,,,,,,,,,,,,,,,,,,,,,
,0,k,1,1.1978,3,2,14,3,1,k,purple,602053cceadd2f6616479d74,2021-09-27_17h13.43.334,forced_choiceRT_color,2021.2.3,MacIntel,59.99520038,,,,,,,,,,,,,,,,,,,,,,,
,0,k,1,0.8328,3,3,15,3,1,k,purple,602053cceadd2f6616479d74,2021-09-27_17h13.43.334,forced_choiceRT_color,2021.2.3,MacIntel,59.99520038,,,,,,,,,,,,,,,,,,,,,,,
,0,d,1,1.4826,4,0,16,0,1,d,orange,602053cceadd2f6616479d74,2021-09-27_17h13.43.334,forced_choiceRT_color,2021.2.3,MacIntel,59.99520038,,,,,,,,,,,,,,,,,,,,,,,
,0,f,1,1.2347,4,1,17,1,1,f,blue,602053cceadd2f6616479d74,2021-09-27_17h13.43.334,forced_choiceRT_color,2021.2.3,MacIntel,59.99520038,,,,,,,,,,,,,,,,,,,,,,,
,0,d,1,1.1336,4,2,18,0,1,d,orange,602053cceadd2f6616479d74,2021-09-27_17h13.43.334,forced_choiceRT_color,2021.2.3,MacIntel,59.99520038,,,,,,,,,,,,,,,,,,,,,,,
,0,f,1,1.081,4,3,19,1,1,f,blue,602053cceadd2f6616479d74,2021-09-27_17h13.43.334,forced_choiceRT_color,2021.2.3,MacIntel,59.99520038,,,,,,,,,,,,,,,,,,,,,,,
,0,j,1,2.5316,5,0,20,2,1,j,red,602053cceadd2f6616479d74,2021-09-27_17h13.43.334,forced_choiceRT_color,2021.2.3,MacIntel,59.99520038,,,,,,,,,,,,,,,,,,,,,,,
,0,j,1,0.9016,5,1,21,2,1,j,red,602053cceadd2f6616479d74,2021-09-27_17h13.43.334,forced_choiceRT_color,2021.2.3,MacIntel,59.99520038,,,,,,,,,,,,,,,,,,,,,,,
,0,j,1,0.8208,5,2,22,2,1,j,red,602053cceadd2f6616479d74,2021-09-27_17h13.43.334,forced_choiceRT_color,2021.2.3,MacIntel,59.99520038,,,,,,,,,,,,,,,,,,,,,,,
,0,k,1,1.1822,5,3,23,3,1,k,purple,602053cceadd2f6616479d74,2021-09-27_17h13.43.334,forced_choiceRT_color,2021.2.3,MacIntel,59.99520038,,,,,,,,,,,,,,,,,,,,,,,
,0,j,1,1.0207,6,0,24,2,1,j,red,602053cceadd2f6616479d74,2021-09-27_17h13.43.334,forced_choiceRT_color,2021.2.3,MacIntel,59.99520038,,,,,,,,,,,,,,,,,,,,,,,
,0,j,1,0.7671,6,1,25,2,1,j,red,602053cceadd2f6616479d74,2021-09-27_17h13.43.334,forced_choiceRT_color,2021.2.3,MacIntel,59.99520038,,,,,,,,,,,,,,,,,,,,,,,
,0,j,1,0.7851,6,2,26,2,1,j,red,602053cceadd2f6616479d74,2021-09-27_17h13.43.334,forced_choiceRT_color,2021.2.3,MacIntel,59.99520038,,,,,,,,,,,,,,,,,,,,,,,
,0,j,1,0.7508,6,3,27,2,1,j,red,602053cceadd2f6616479d74,2021-09-27_17h13.43.334,forced_choiceRT_color,2021.2.3,MacIntel,59.99520038,,,,,,,,,,,,,,,,,,,,,,,
,0,f,1,1.8869,7,0,28,1,1,f,blue,602053cceadd2f6616479d74,2021-09-27_17h13.43.334,forced_choiceRT_color,2021.2.3,MacIntel,59.99520038,,,,,,,,,,,,,,,,,,,,,,,
,0,k,1,1.6835,7,1,29,3,1,k,purple,602053cceadd2f6616479d74,2021-09-27_17h13.43.334,forced_choiceRT_color,2021.2.3,MacIntel,59.99520038,,,,,,,,,,,,,,,,,,,,,,,
,0,k,1,0.8168,7,2,30,3,1,k,purple,602053cceadd2f6616479d74,2021-09-27_17h13.43.334,forced_choiceRT_color,2021.2.3,MacIntel,59.99520038,,,,,,,,,,,,,,,,,,,,,,,
,0,k,1,0.7995,7,3,31,3,1,k,purple,602053cceadd2f6616479d74,2021-09-27_17h13.43.334,forced_choiceRT_color,2021.2.3,MacIntel,59.99520038,,,,,,,,,,,,,,,,,,,,,,,
,0,d,1,2.0862,8,0,32,0,1,d,orange,602053cceadd2f6616479d74,2021-09-27_17h13.43.334,forced_choiceRT_color,2021.2.3,MacIntel,59.99520038,,,,,,,,,,,,,,,,,,,,,,,
,0,d,1,0.6679,8,1,33,0,1,d,orange,602053cceadd2f6616479d74,2021-09-27_17h13.43.334,forced_choiceRT_color,2021.2.3,MacIntel,59.99520038,,,,,,,,,,,,,,,,,,,,,,,
,0,f,1,3.1509,8,2,34,1,1,f,blue,602053cceadd2f6616479d74,2021-09-27_17h13.43.334,forced_choiceRT_color,2021.2.3,MacIntel,59.99520038,,,,,,,,,,,,,,,,,,,,,,,
,0,f,1,0.9003,8,3,35,1,1,f,blue,602053cceadd2f6616479d74,2021-09-27_17h13.43.334,forced_choiceRT_color,2021.2.3,MacIntel,59.99520038,,,,,,,,,,,,,,,,,,,,,,,
,0,d,1,1.0145,9,0,36,0,1,d,orange,602053cceadd2f6616479d74,2021-09-27_17h13.43.334,forced_choiceRT_color,2021.2.3,MacIntel,59.99520038,,,,,,,,,,,,,,,,,,,,,,,
,0,d,1,0.8341,9,1,37,0,1,d,orange,602053cceadd2f6616479d74,2021-09-27_17h13.43.334,forced_choiceRT_color,2021.2.3,MacIntel,59.99520038,,,,,,,,,,,,,,,,,,,,,,,
,0,f,1,1.0333,9,2,38,1,1,f,blue,602053cceadd2f6616479d74,2021-09-27_17h13.43.334,forced_choiceRT_color,2021.2.3,MacIntel,59.99520038,,,,,,,,,,,,,,,,,,,,,,,
,0,f,1,0.8181,9,3,39,1,1,f,blue,602053cceadd2f6616479d74,2021-09-27_17h13.43.334,forced_choiceRT_color,2021.2.3,MacIntel,59.99520038,,,,,,,,,,,,,,,,,,,,,,,
,0,d,1,1.0011,10,0,40,0,1,d,orange,602053cceadd2f6616479d74,2021-09-27_17h13.43.334,forced_choiceRT_color,2021.2.3,MacIntel,59.99520038,,,,,,,,,,,,,,,,,,,,,,,
,0,f,1,1.0832,10,1,41,1,1,f,blue,602053cceadd2f6616479d74,2021-09-27_17h13.43.334,forced_choiceRT_color,2021.2.3,MacIntel,59.99520038,,,,,,,,,,,,,,,,,,,,,,,
,0,d,1,1.0824,10,2,42,0,1,d,orange,602053cceadd2f6616479d74,2021-09-27_17h13.43.334,forced_choiceRT_color,2021.2.3,MacIntel,59.99520038,,,,,,,,,,,,,,,,,,,,,,,
,0,f,1,1.0812,10,3,43,1,1,f,blue,602053cceadd2f6616479d74,2021-09-27_17h13.43.334,forced_choiceRT_color,2021.2.3,MacIntel,59.99520038,,,,,,,,,,,,,,,,,,,,,,,
,0,f,1,0.8506,11,0,44,1,1,f,blue,602053cceadd2f6616479d74,2021-09-27_17h13.43.334,forced_choiceRT_color,2021.2.3,MacIntel,59.99520038,,,,,,,,,,,,,,,,,,,,,,,
,0,f,1,0.7194,11,1,45,1,1,f,blue,602053cceadd2f6616479d74,2021-09-27_17h13.43.334,forced_choiceRT_color,2021.2.3,MacIntel,59.99520038,,,,,,,,,,,,,,,,,,,,,,,
,0,j,1,1.4863,11,2,46,2,1,j,red,602053cceadd2f6616479d74,2021-09-27_17h13.43.334,forced_choiceRT_color,2021.2.3,MacIntel,59.99520038,,,,,,,,,,,,,,,,,,,,,,,
,0,d,1,1.3345,11,3,47,0,1,d,orange,602053cceadd2f6616479d74,2021-09-27_17h13.43.334,forced_choiceRT_color,2021.2.3,MacIntel,59.99520038,,,,,,,,,,,,,,,,,,,,,,,
,0,j,1,1.7803,12,0,48,2,1,j,red,602053cceadd2f6616479d74,2021-09-27_17h13.43.334,forced_choiceRT_color,2021.2.3,MacIntel,59.99520038,,,,,,,,,,,,,,,,,,,,,,,
,0,j,1,0.8509,12,1,49,2,1,j,red,602053cceadd2f6616479d74,2021-09-27_17h13.43.334,forced_choiceRT_color,2021.2.3,MacIntel,59.99520038,,,,,,,,,,,,,,,,,,,,,,,
,0,d,1,1.3158,12,2,50,0,1,d,orange,602053cceadd2f6616479d74,2021-09-27_17h13.43.334,forced_choiceRT_color,2021.2.3,MacIntel,59.99520038,,,,,,,,,,,,,,,,,,,,,,,
,0,d,1,0.733,12,3,51,0,1,d,orange,602053cceadd2f6616479d74,2021-09-27_17h13.43.334,forced_choiceRT_color,2021.2.3,MacIntel,59.99520038,,,,,,,,,,,,,,,,,,,,,,,
,0,d,1,0.7039,13,0,52,0,1,d,orange,602053cceadd2f6616479d74,2021-09-27_17h13.43.334,forced_choiceRT_color,2021.2.3,MacIntel,59.99520038,,,,,,,,,,,,,,,,,,,,,,,
,0,k,1,1.418,13,1,53,3,1,k,purple,602053cceadd2f6616479d74,2021-09-27_17h13.43.334,forced_choiceRT_color,2021.2.3,MacIntel,59.99520038,,,,,,,,,,,,,,,,,,,,,,,
,0,d,1,1.4228,13,2,54,0,1,d,orange,602053cceadd2f6616479d74,2021-09-27_17h13.43.334,forced_choiceRT_color,2021.2.3,MacIntel,59.99520038,,,,,,,,,,,,,,,,,,,,,,,
,0,f,1,1.149,13,3,55,1,1,f,blue,602053cceadd2f6616479d74,2021-09-27_17h13.43.334,forced_choiceRT_color,2021.2.3,MacIntel,59.99520038,,,,,,,,,,,,,,,,,,,,,,,
,0,d,1,1.081,14,0,56,0,1,d,orange,602053cceadd2f6616479d74,2021-09-27_17h13.43.334,forced_choiceRT_color,2021.2.3,MacIntel,59.99520038,,,,,,,,,,,,,,,,,,,,,,,
,0,j,1,1.5708,14,1,57,2,1,j,red,602053cceadd2f6616479d74,2021-09-27_17h13.43.334,forced_choiceRT_color,2021.2.3,MacIntel,59.99520038,,,,,,,,,,,,,,,,,,,,,,,
,0,k,1,1.1904,14,2,58,3,1,k,purple,602053cceadd2f6616479d74,2021-09-27_17h13.43.334,forced_choiceRT_color,2021.2.3,MacIntel,59.99520038,,,,,,,,,,,,,,,,,,,,,,,
,0,d,1,1.6369,14,3,59,0,1,d,orange,602053cceadd2f6616479d74,2021-09-27_17h13.43.334,forced_choiceRT_color,2021.2.3,MacIntel,59.99520038,,,,,,,,,,,,,,,,,,,,,,,
,,,,,,,,,,,,602053cceadd2f6616479d74,2021-09-27_17h13.43.334,forced_choiceRT_color,2021.2.3,MacIntel,59.99520038,d,0.872,0,0,0,0,1,,,,,,,,,,,,,,,,
,,,,,,,,,,,,602053cceadd2f6616479d74,2021-09-27_17h13.43.334,forced_choiceRT_color,2021.2.3,MacIntel,59.99520038,d,2.354,1,0,1,0,1,,,,,,,,,,,,,,,,
,,,,,,,,,,,,602053cceadd2f6616479d74,2021-09-27_17h13.43.334,forced_choiceRT_color,2021.2.3,MacIntel,59.99520038,d,1.9451,2,0,2,0,1,,,,,,,,,,,,,,,,
,,,,,,,,,,,,602053cceadd2f6616479d74,2021-09-27_17h13.43.334,forced_choiceRT_color,2021.2.3,MacIntel,59.99520038,d,2.0368,3,0,3,0,1,,,,,,,,,,,,,,,,
,,,,,,,,,,,,602053cceadd2f6616479d74,2021-09-27_17h13.43.334,forced_choiceRT_color,2021.2.3,MacIntel,59.99520038,d,2.1193,4,0,4,0,1,,,,,,,,,,,,,,,,
,,,,,,,,,,,,602053cceadd2f6616479d74,2021-09-27_17h13.43.334,forced_choiceRT_color,2021.2.3,MacIntel,59.99520038,d,1.8661,5,0,5,0,1,,,,,,,,,,,,,,,,
,,,,,,,,,,,,602053cceadd2f6616479d74,2021-09-27_17h13.43.334,forced_choiceRT_color,2021.2.3,MacIntel,59.99520038,d,1.9769,6,0,6,0,1,,,,,,,,,,,,,,,,
,,,,,,,,,,,,602053cceadd2f6616479d74,2021-09-27_17h13.43.334,forced_choiceRT_color,2021.2.3,MacIntel,59.99520038,d,2.0341,7,0,7,0,1,,,,,,,,,,,,,,,,
,,,,,,,,,,,,602053cceadd2f6616479d74,2021-09-27_17h13.43.334,forced_choiceRT_color,2021.2.3,MacIntel,59.99520038,d,2.1416,8,0,8,0,1,,,,,,,,,,,,,,,,
,,,,,,,,,,,,602053cceadd2f6616479d74,2021-09-27_17h13.43.334,forced_choiceRT_color,2021.2.3,MacIntel,59.99520038,d,1.8498,9,0,9,0,1,,,,,,,,,,,,,,,,
,,,,,,,,,,,,602053cceadd2f6616479d74,2021-09-27_17h13.43.334,forced_choiceRT_color,2021.2.3,MacIntel,59.99520038,d,1.9924,10,0,10,0,1,,,,,,,,,,,,,,,,
,,,,,,,,,,,,602053cceadd2f6616479d74,2021-09-27_17h13.43.334,forced_choiceRT_color,2021.2.3,MacIntel,59.99520038,d,1.9874,11,0,11,0,1,,,,,,,,,,,,,,,,
,,,,,,,,,,,,602053cceadd2f6616479d74,2021-09-27_17h13.43.334,forced_choiceRT_color,2021.2.3,MacIntel,59.99520038,d,1.9543,12,0,12,0,1,,,,,,,,,,,,,,,,
,,,,,,,,,,,,602053cceadd2f6616479d74,2021-09-27_17h13.43.334,forced_choiceRT_color,2021.2.3,MacIntel,59.99520038,d,1.8991,13,0,13,0,1,,,,,,,,,,,,,,,,
,,,,,,,,,,,,602053cceadd2f6616479d74,2021-09-27_17h13.43.334,forced_choiceRT_color,2021.2.3,MacIntel,59.99520038,d,1.9101,14,0,14,0,1,,,,,,,,,,,,,,,,
,,,,,,,,,,,,602053cceadd2f6616479d74,2021-09-27_17h13.43.334,forced_choiceRT_color,2021.2.3,MacIntel,59.99520038,d,1.8862,15,0,15,0,1,,,,,,,,,,,,,,,,
,,,,,,,,,,,,602053cceadd2f6616479d74,2021-09-27_17h13.43.334,forced_choiceRT_color,2021.2.3,MacIntel,59.99520038,d,1.8859,16,0,16,0,1,,,,,,,,,,,,,,,,
,,,,,,,,,,,,602053cceadd2f6616479d74,2021-09-27_17h13.43.334,forced_choiceRT_color,2021.2.3,MacIntel,59.99520038,d,1.8842,17,0,17,0,1,,,,,,,,,,,,,,,,
,,,,,,,,,,,,602053cceadd2f6616479d74,2021-09-27_17h13.43.334,forced_choiceRT_color,2021.2.3,MacIntel,59.99520038,d,1.9692,18,0,18,0,1,,,,,,,,,,,,,,,,
,,,,,,,,,,,,602053cceadd2f6616479d74,2021-09-27_17h13.43.334,forced_choiceRT_color,2021.2.3,MacIntel,59.99520038,d,2.0757,19,0,19,0,1,,,,,,,,,,,,,,,,
,1.97,,,,,,,,,k,purple,602053cceadd2f6616479d74,2021-09-27_17h13.43.334,forced_choiceRT_color,2021.2.3,MacIntel,59.99520038,,,,,,,,1,Ontime,short,d,0,1.9466,0,0,0,3,1,,,,,
,0.04,,,,,,,,,d,orange,602053cceadd2f6616479d74,2021-09-27_17h13.43.334,forced_choiceRT_color,2021.2.3,MacIntel,59.99520038,,,,,,,,1,Slow,short,d,1,2.6545,0,1,1,0,1,,,,,
,1.63,,,,,,,,,j,red,602053cceadd2f6616479d74,2021-09-27_17h13.43.334,forced_choiceRT_color,2021.2.3,MacIntel,59.99520038,,,,,,,,1,Ontime,short,d,0,1.9097,0,2,2,2,1,,,,,
,0.26,,,,,,,,,k,purple,602053cceadd2f6616479d74,2021-09-27_17h13.43.334,forced_choiceRT_color,2021.2.3,MacIntel,59.99520038,,,,,,,,1,Slow,short,k,1,2.1034,0,3,3,3,1,,,,,
,0.53,,,,,,,,,k,purple,602053cceadd2f6616479d74,2021-09-27_17h13.43.334,forced_choiceRT_color,2021.2.3,MacIntel,59.99520038,,,,,,,,1,Ontime,short,k,1,1.9531,1,0,4,3,1,,,,,
,1.01,,,,,,,,,k,purple,602053cceadd2f6616479d74,2021-09-27_17h13.43.334,forced_choiceRT_color,2021.2.3,MacIntel,59.99520038,,,,,,,,1,Slow,short,k,1,2.3174,1,1,5,3,1,,,,,
,1.34,,,,,,,,,f,blue,602053cceadd2f6616479d74,2021-09-27_17h13.43.334,forced_choiceRT_color,2021.2.3,MacIntel,59.99520038,,,,,,,,1,Slow,short,j,0,3.6608,1,2,6,1,1,,,,,
,0.1,,,,,,,,,d,orange,602053cceadd2f6616479d74,2021-09-27_17h13.43.334,forced_choiceRT_color,2021.2.3,MacIntel,59.99520038,,,,,,,,1,Ontime,short,d,1,1.9601,1,3,7,0,1,,,,,
,1.86,,,,,,,,,f,blue,602053cceadd2f6616479d74,2021-09-27_17h13.43.334,forced_choiceRT_color,2021.2.3,MacIntel,59.99520038,,,,,,,,1,Slow,short,f,1,2.4843,2,0,8,1,1,,,,,
,0.62,,,,,,,,,d,orange,602053cceadd2f6616479d74,2021-09-27_17h13.43.334,forced_choiceRT_color,2021.2.3,MacIntel,59.99520038,,,,,,,,1,Ontime,short,d,1,2.0858,2,1,9,0,1,,,,,
,0.34,,,,,,,,,j,red,602053cceadd2f6616479d74,2021-09-27_17h13.43.334,forced_choiceRT_color,2021.2.3,MacIntel,59.99520038,,,,,,,,1,Ontime,short,j,1,2.0821,2,2,10,2,1,,,,,
,0.92,,,,,,,,,d,orange,602053cceadd2f6616479d74,2021-09-27_17h13.43.334,forced_choiceRT_color,2021.2.3,MacIntel,59.99520038,,,,,,,,1,Slow,short,d,1,2.1842,2,3,11,0,1,,,,,
,1.41,,,,,,,,,k,purple,602053cceadd2f6616479d74,2021-09-27_17h13.43.334,forced_choiceRT_color,2021.2.3,MacIntel,59.99520038,,,,,,,,1,Slow,short,k,1,2.5615,3,0,12,3,1,,,,,
,1.31,,,,,,,,,j,red,602053cceadd2f6616479d74,2021-09-27_17h13.43.334,forced_choiceRT_color,2021.2.3,MacIntel,59.99520038,,,,,,,,1,Slow,short,j,1,2.1184,3,1,13,2,1,,,,,
,0.26,,,,,,,,,d,orange,602053cceadd2f6616479d74,2021-09-27_17h13.43.334,forced_choiceRT_color,2021.2.3,MacIntel,59.99520038,,,,,,,,1,Slow,short,d,1,4.3596,3,2,14,0,1,,,,,
,0.55,,,,,,,,,f,blue,602053cceadd2f6616479d74,2021-09-27_17h13.43.334,forced_choiceRT_color,2021.2.3,MacIntel,59.99520038,,,,,,,,1,Ontime,short,f,1,2.0272,3,3,15,1,1,,,,,
,1.36,,,,,,,,,k,purple,602053cceadd2f6616479d74,2021-09-27_17h13.43.334,forced_choiceRT_color,2021.2.3,MacIntel,59.99520038,,,,,,,,1,Slow,short,k,1,3.5859,4,0,16,3,1,,,,,
,1.16,,,,,,,,,d,orange,602053cceadd2f6616479d74,2021-09-27_17h13.43.334,forced_choiceRT_color,2021.2.3,MacIntel,59.99520038,,,,,,,,1,Slow,short,d,1,3.0116,4,1,17,0,1,,,,,
,0.51,,,,,,,,,j,red,602053cceadd2f6616479d74,2021-09-27_17h13.43.334,forced_choiceRT_color,2021.2.3,MacIntel,59.99520038,,,,,,,,1,Fast,short,f,0,1.5604,4,2,18,2,1,,,,,
,0.88,,,,,,,,,f,blue,602053cceadd2f6616479d74,2021-09-27_17h13.43.334,forced_choiceRT_color,2021.2.3,MacIntel,59.99520038,,,,,,,,1,Slow,short,j,0,2.4082,4,3,19,1,1,,,,,
,1.57,,,,,,,,,j,red,602053cceadd2f6616479d74,2021-09-27_17h13.43.334,forced_choiceRT_color,2021.2.3,MacIntel,59.99520038,,,,,,,,1,Slow,short,d,0,2.6394,5,0,20,2,1,,,,,
,1.45,,,,,,,,,f,blue,602053cceadd2f6616479d74,2021-09-27_17h13.43.334,forced_choiceRT_color,2021.2.3,MacIntel,59.99520038,,,,,,,,1,Slow,short,f,1,2.2153,5,1,21,1,1,,,,,
,0.76,,,,,,,,,k,purple,602053cceadd2f6616479d74,2021-09-27_17h13.43.334,forced_choiceRT_color,2021.2.3,MacIntel,59.99520038,,,,,,,,1,Slow,short,k,1,2.4386,5,2,22,3,1,,,,,
,0.5,,,,,,,,,f,blue,602053cceadd2f6616479d74,2021-09-27_17h13.43.334,forced_choiceRT_color,2021.2.3,MacIntel,59.99520038,,,,,,,,1,Fast,short,j,0,1.8819,5,3,23,1,1,,,,,
,1.6,,,,,,,,,k,purple,602053cceadd2f6616479d74,2021-09-27_17h13.43.334,forced_choiceRT_color,2021.2.3,MacIntel,59.99520038,,,,,,,,1,Slow,short,k,1,2.6869,6,0,24,3,1,,,,,
,1.17,,,,,,,,,f,blue,602053cceadd2f6616479d74,2021-09-27_17h13.43.334,forced_choiceRT_color,2021.2.3,MacIntel,59.99520038,,,,,,,,1,Slow,short,j,0,2.5134,6,1,25,1,1,,,,,
,1.12,,,,,,,,,j,red,602053cceadd2f6616479d74,2021-09-27_17h13.43.334,forced_choiceRT_color,2021.2.3,MacIntel,59.99520038,,,,,,,,1,Slow,short,f,0,2.2389,6,2,26,2,1,,,,,
,0.79,,,,,,,,,j,red,602053cceadd2f6616479d74,2021-09-27_17h13.43.334,forced_choiceRT_color,2021.2.3,MacIntel,59.99520038,,,,,,,,1,Slow,short,d,0,2.1486,6,3,27,2,1,,,,,
,0.27,,,,,,,,,k,purple,602053cceadd2f6616479d74,2021-09-27_17h13.43.334,forced_choiceRT_color,2021.2.3,MacIntel,59.99520038,,,,,,,,1,Ontime,short,k,1,1.9153,7,0,28,3,1,,,,,
,0.26,,,,,,,,,j,red,602053cceadd2f6616479d74,2021-09-27_17h13.43.334,forced_choiceRT_color,2021.2.3,MacIntel,59.99520038,,,,,,,,1,Fast,short,d,0,1.8313,7,1,29,2,1,,,,,
,1.45,,,,,,,,,k,purple,602053cceadd2f6616479d74,2021-09-27_17h13.43.334,forced_choiceRT_color,2021.2.3,MacIntel,59.99520038,,,,,,,,1,Slow,short,k,1,3.5356,7,2,30,3,1,,,,,
,1.8,,,,,,,,,j,red,602053cceadd2f6616479d74,2021-09-27_17h13.43.334,forced_choiceRT_color,2021.2.3,MacIntel,59.99520038,,,,,,,,1,Slow,short,d,0,2.9253,7,3,31,2,1,,,,,
,1.45,,,,,,,,,d,orange,602053cceadd2f6616479d74,2021-09-27_17h13.43.334,forced_choiceRT_color,2021.2.3,MacIntel,59.99520038,,,,,,,,1,Slow,short,j,0,3.2764,8,0,32,0,1,,,,,
,1.08,,,,,,,,,f,blue,602053cceadd2f6616479d74,2021-09-27_17h13.43.334,forced_choiceRT_color,2021.2.3,MacIntel,59.99520038,,,,,,,,1,Slow,short,f,1,2.3765,8,1,33,1,1,,,,,
,1.81,,,,,,,,,d,orange,602053cceadd2f6616479d74,2021-09-27_17h13.43.334,forced_choiceRT_color,2021.2.3,MacIntel,59.99520038,,,,,,,,1,Slow,short,d,1,2.1175,8,2,34,0,1,,,,,
,1.24,,,,,,,,,f,blue,602053cceadd2f6616479d74,2021-09-27_17h13.43.334,forced_choiceRT_color,2021.2.3,MacIntel,59.99520038,,,,,,,,1,Fast,short,f,1,1.8107,8,3,35,1,1,,,,,
,0.95,,,,,,,,,j,red,602053cceadd2f6616479d74,2021-09-27_17h13.43.334,forced_choiceRT_color,2021.2.3,MacIntel,59.99520038,,,,,,,,1,Slow,short,d,0,2.2691,9,0,36,2,1,,,,,
,1.9,,,,,,,,,d,orange,602053cceadd2f6616479d74,2021-09-27_17h13.43.334,forced_choiceRT_color,2021.2.3,MacIntel,59.99520038,,,,,,,,1,Fast,short,d,1,0.2336,9,1,37,0,1,,,,,
,1.34,,,,,,,,,d,orange,602053cceadd2f6616479d74,2021-09-27_17h13.43.334,forced_choiceRT_color,2021.2.3,MacIntel,59.99520038,,,,,,,,1,Slow,short,j,0,2.3172,9,2,38,0,1,,,,,
,1.09,,,,,,,,,f,blue,602053cceadd2f6616479d74,2021-09-27_17h13.43.334,forced_choiceRT_color,2021.2.3,MacIntel,59.99520038,,,,,,,,1,Slow,short,j,0,2.1761,9,3,39,1,1,,,,,
,,,,,,,,,,,,602053cceadd2f6616479d74,2021-09-27_17h13.43.334,forced_choiceRT_color,2021.2.3,MacIntel,59.99520038,,,,,,,,,,,,,,,,,,,0,0,0,0,1
,0.99,,,,,,,,,j,red,602053cceadd2f6616479d74,2021-09-27_17h13.43.334,forced_choiceRT_color,2021.2.3,MacIntel,59.99520038,,,,,,,,2,Ontime,short,d,0,2.0659,0,0,0,2,1,,,,,
,0.33,,,,,,,,,d,orange,602053cceadd2f6616479d74,2021-09-27_17h13.43.334,forced_choiceRT_color,2021.2.3,MacIntel,59.99520038,,,,,,,,2,Ontime,short,k,0,1.9316,0,1,1,0,1,,,,,
,0.06,,,,,,,,,j,red,602053cceadd2f6616479d74,2021-09-27_17h13.43.334,forced_choiceRT_color,2021.2.3,MacIntel,59.99520038,,,,,,,,2,Fast,short,j,1,0.3856,0,2,2,2,1,,,,,
,1.36,,,,,,,,,d,orange,602053cceadd2f6616479d74,2021-09-27_17h13.43.334,forced_choiceRT_color,2021.2.3,MacIntel,59.99520038,,,,,,,,2,Fast,short,d,1,0.5677,0,3,3,0,1,,,,,
,1.58,,,,,,,,,f,blue,602053cceadd2f6616479d74,2021-09-27_17h13.43.334,forced_choiceRT_color,2021.2.3,MacIntel,59.99520038,,,,,,,,2,Slow,short,f,1,2.6367,1,0,4,1,1,,,,,
,1.25,,,,,,,,,f,blue,602053cceadd2f6616479d74,2021-09-27_17h13.43.334,forced_choiceRT_color,2021.2.3,MacIntel,59.99520038,,,,,,,,2,Ontime,short,f,1,2.0159,1,1,5,1,1,,,,,
,0.38,,,,,,,,,f,blue,602053cceadd2f6616479d74,2021-09-27_17h13.43.334,forced_choiceRT_color,2021.2.3,MacIntel,59.99520038,,,,,,,,2,Slow,short,f,1,2.1151,1,2,6,1,1,,,,,
,1.01,,,,,,,,,d,orange,602053cceadd2f6616479d74,2021-09-27_17h13.43.334,forced_choiceRT_color,2021.2.3,MacIntel,59.99520038,,,,,,,,2,Slow,short,d,1,2.1673,1,3,7,0,1,,,,,
,0.53,,,,,,,,,k,purple,602053cceadd2f6616479d74,2021-09-27_17h13.43.334,forced_choiceRT_color,2021.2.3,MacIntel,59.99520038,,,,,,,,2,Fast,short,f,0,1.3773,2,0,8,3,1,,,,,
,1.78,,,,,,,,,j,red,602053cceadd2f6616479d74,2021-09-27_17h13.43.334,forced_choiceRT_color,2021.2.3,MacIntel,59.99520038,,,,,,,,2,Fast,short,j,1,0.1865,2,1,9,2,1,,,,,
,0.11,,,,,,,,,j,red,602053cceadd2f6616479d74,2021-09-27_17h13.43.334,forced_choiceRT_color,2021.2.3,MacIntel,59.99520038,,,,,,,,2,Slow,short,d,0,2.133,2,2,10,2,1,,,,,
,0.51,,,,,,,,,d,orange,602053cceadd2f6616479d74,2021-09-27_17h13.43.334,forced_choiceRT_color,2021.2.3,MacIntel,59.99520038,,,,,,,,2,Slow,short,k,0,2.1671,2,3,11,0,1,,,,,
,1.3,,,,,,,,,d,orange,602053cceadd2f6616479d74,2021-09-27_17h13.43.334,forced_choiceRT_color,2021.2.3,MacIntel,59.99520038,,,,,,,,2,Slow,short,d,1,2.3588,3,0,12,0,1,,,,,
,1.89,,,,,,,,,k,purple,602053cceadd2f6616479d74,2021-09-27_17h13.43.334,forced_choiceRT_color,2021.2.3,MacIntel,59.99520038,,,,,,,,2,Slow,short,f,0,2.3872,3,1,13,3,1,,,,,
,0.95,,,,,,,,,f,blue,602053cceadd2f6616479d74,2021-09-27_17h13.43.334,forced_choiceRT_color,2021.2.3,MacIntel,59.99520038,,,,,,,,2,Fast,short,k,0,1.6101,3,2,14,1,1,,,,,
,0.94,,,,,,,,,k,purple,602053cceadd2f6616479d74,2021-09-27_17h13.43.334,forced_choiceRT_color,2021.2.3,MacIntel,59.99520038,,,,,,,,2,Slow,short,k,1,5.5179,3,3,15,3,1,,,,,
,1.83,,,,,,,,,j,red,602053cceadd2f6616479d74,2021-09-27_17h13.43.334,forced_choiceRT_color,2021.2.3,MacIntel,59.99520038,,,,,,,,2,Slow,short,f,0,3.3276,4,0,16,2,1,,,,,
,0.29,,,,,,,,,k,purple,602053cceadd2f6616479d74,2021-09-27_17h13.43.334,forced_choiceRT_color,2021.2.3,MacIntel,59.99520038,,,,,,,,2,Fast,short,k,1,1.8649,4,1,17,3,1,,,,,
,1.78,,,,,,,,,k,purple,602053cceadd2f6616479d74,2021-09-27_17h13.43.334,forced_choiceRT_color,2021.2.3,MacIntel,59.99520038,,,,,,,,2,Slow,short,k,1,3.1222,4,2,18,3,1,,,,,
,1.51,,,,,,,,,d,orange,602053cceadd2f6616479d74,2021-09-27_17h13.43.334,forced_choiceRT_color,2021.2.3,MacIntel,59.99520038,,,,,,,,2,Ontime,short,j,0,2.0658,4,3,19,0,1,,,,,
,0.02,,,,,,,,,f,blue,602053cceadd2f6616479d74,2021-09-27_17h13.43.334,forced_choiceRT_color,2021.2.3,MacIntel,59.99520038,,,,,,,,2,Fast,short,f,1,1.4844,5,0,20,1,1,,,,,
,1.83,,,,,,,,,d,orange,602053cceadd2f6616479d74,2021-09-27_17h13.43.334,forced_choiceRT_color,2021.2.3,MacIntel,59.99520038,,,,,,,,2,Fast,short,j,0,1.8202,5,1,21,0,1,,,,,
,0.9,,,,,,,,,j,red,602053cceadd2f6616479d74,2021-09-27_17h13.43.334,forced_choiceRT_color,2021.2.3,MacIntel,59.99520038,,,,,,,,2,Fast,short,k,0,1.7675,5,2,22,2,1,,,,,
,1.02,,,,,,,,,k,purple,602053cceadd2f6616479d74,2021-09-27_17h13.43.334,forced_choiceRT_color,2021.2.3,MacIntel,59.99520038,,,,,,,,2,Slow,short,k,1,2.5379,5,3,23,3,1,,,,,
,1.98,,,,,,,,,k,purple,602053cceadd2f6616479d74,2021-09-27_17h13.43.334,forced_choiceRT_color,2021.2.3,MacIntel,59.99520038,,,,,,,,2,Slow,short,k,1,3.3752,6,0,24,3,1,,,,,
,1.37,,,,,,,,,f,blue,602053cceadd2f6616479d74,2021-09-27_17h13.43.334,forced_choiceRT_color,2021.2.3,MacIntel,59.99520038,,,,,,,,2,Ontime,short,f,1,2.0607,6,1,25,1,1,,,,,
,1.36,,,,,,,,,k,purple,602053cceadd2f6616479d74,2021-09-27_17h13.43.334,forced_choiceRT_color,2021.2.3,MacIntel,59.99520038,,,,,,,,2,Slow,short,j,0,2.1829,6,2,26,3,1,,,,,
,0.46,,,,,,,,,f,blue,602053cceadd2f6616479d74,2021-09-27_17h13.43.334,forced_choiceRT_color,2021.2.3,MacIntel,59.99520038,,,,,,,,2,Fast,short,j,0,1.7341,6,3,27,1,1,,,,,
,1.82,,,,,,,,,j,red,602053cceadd2f6616479d74,2021-09-27_17h13.43.334,forced_choiceRT_color,2021.2.3,MacIntel,59.99520038,,,,,,,,2,Slow,short,d,0,2.1666,7,0,28,2,1,,,,,
,0.1,,,,,,,,,d,orange,602053cceadd2f6616479d74,2021-09-27_17h13.43.334,forced_choiceRT_color,2021.2.3,MacIntel,59.99520038,,,,,,,,2,Fast,short,d,1,1.7839,7,1,29,0,1,,,,,
,0.31,,,,,,,,,k,purple,602053cceadd2f6616479d74,2021-09-27_17h13.43.334,forced_choiceRT_color,2021.2.3,MacIntel,59.99520038,,,,,,,,2,Ontime,short,k,1,1.9447,7,2,30,3,1,,,,,
,0.78,,,,,,,,,f,blue,602053cceadd2f6616479d74,2021-09-27_17h13.43.334,forced_choiceRT_color,2021.2.3,MacIntel,59.99520038,,,,,,,,2,Slow,short,f,1,2.4852,7,3,31,1,1,,,,,
,0.09,,,,,,,,,f,blue,602053cceadd2f6616479d74,2021-09-27_17h13.43.334,forced_choiceRT_color,2021.2.3,MacIntel,59.99520038,,,,,,,,2,Fast,short,f,1,1.7535,8,0,32,1,1,,,,,
,0.38,,,,,,,,,f,blue,602053cceadd2f6616479d74,2021-09-27_17h13.43.334,forced_choiceRT_color,2021.2.3,MacIntel,59.99520038,,,,,,,,2,Fast,short,f,1,1.7188,8,1,33,1,1,,,,,
,1.47,,,,,,,,,d,orange,602053cceadd2f6616479d74,2021-09-27_17h13.43.334,forced_choiceRT_color,2021.2.3,MacIntel,59.99520038,,,,,,,,2,Ontime,short,d,1,2.0831,8,2,34,0,1,,,,,
,1.8,,,,,,,,,j,red,602053cceadd2f6616479d74,2021-09-27_17h13.43.334,forced_choiceRT_color,2021.2.3,MacIntel,59.99520038,,,,,,,,2,Slow,short,j,1,3.6378,8,3,35,2,1,,,,,
,1.38,,,,,,,,,j,red,602053cceadd2f6616479d74,2021-09-27_17h13.43.334,forced_choiceRT_color,2021.2.3,MacIntel,59.99520038,,,,,,,,2,Ontime,short,k,0,2.009,9,0,36,2,1,,,,,
,1.84,,,,,,,,,j,red,602053cceadd2f6616479d74,2021-09-27_17h13.43.334,forced_choiceRT_color,2021.2.3,MacIntel,59.99520038,,,,,,,,2,Slow,short,j,1,2.5205,9,1,37,2,1,,,,,
,1.68,,,,,,,,,k,purple,602053cceadd2f6616479d74,2021-09-27_17h13.43.334,forced_choiceRT_color,2021.2.3,MacIntel,59.99520038,,,,,,,,2,Ontime,short,k,1,1.9838,9,2,38,3,1,,,,,
,1.97,,,,,,,,,d,orange,602053cceadd2f6616479d74,2021-09-27_17h13.43.334,forced_choiceRT_color,2021.2.3,MacIntel,59.99520038,,,,,,,,2,Slow,short,k,0,2.2319,9,3,39,0,1,,,,,
,,,,,,,,,,,,602053cceadd2f6616479d74,2021-09-27_17h13.43.334,forced_choiceRT_color,2021.2.3,MacIntel,59.99520038,,,,,,,,,,,,,,,,,,,1,0,1,0,1
,1.82,,,,,,,,,f,blue,602053cceadd2f6616479d74,2021-09-27_17h13.43.334,forced_choiceRT_color,2021.2.3,MacIntel,59.99520038,,,,,,,,3,Slow,short,d,0,2.276,0,0,0,1,1,,,,,
,0.85,,,,,,,,,k,purple,602053cceadd2f6616479d74,2021-09-27_17h13.43.334,forced_choiceRT_color,2021.2.3,MacIntel,59.99520038,,,,,,,,3,Slow,short,k,1,2.3668,0,1,1,3,1,,,,,
,0.9,,,,,,,,,j,red,602053cceadd2f6616479d74,2021-09-27_17h13.43.334,forced_choiceRT_color,2021.2.3,MacIntel,59.99520038,,,,,,,,3,Slow,short,d,0,2.1667,0,2,2,2,1,,,,,
,1.1,,,,,,,,,j,red,602053cceadd2f6616479d74,2021-09-27_17h13.43.334,forced_choiceRT_color,2021.2.3,MacIntel,59.99520038,,,,,,,,3,Fast,short,f,0,1.711,0,3,3,2,1,,,,,
,0.59,,,,,,,,,d,orange,602053cceadd2f6616479d74,2021-09-27_17h13.43.334,forced_choiceRT_color,2021.2.3,MacIntel,59.99520038,,,,,,,,3,Ontime,short,k,0,2.082,1,0,4,0,1,,,,,
,1.35,,,,,,,,,k,purple,602053cceadd2f6616479d74,2021-09-27_17h13.43.334,forced_choiceRT_color,2021.2.3,MacIntel,59.99520038,,,,,,,,3,Slow,short,k,1,4.3653,1,1,5,3,1,,,,,
,0.68,,,,,,,,,f,blue,602053cceadd2f6616479d74,2021-09-27_17h13.43.334,forced_choiceRT_color,2021.2.3,MacIntel,59.99520038,,,,,,,,3,Fast,short,f,1,1.792,1,2,6,1,1,,,,,
,0.27,,,,,,,,,f,blue,602053cceadd2f6616479d74,2021-09-27_17h13.43.334,forced_choiceRT_color,2021.2.3,MacIntel,59.99520038,,,,,,,,3,Fast,short,f,1,1.3036,1,3,7,1,1,,,,,
,1.92,,,,,,,,,k,purple,602053cceadd2f6616479d74,2021-09-27_17h13.43.334,forced_choiceRT_color,2021.2.3,MacIntel,59.99520038,,,,,,,,3,Slow,short,j,0,2.1841,2,0,8,3,1,,,,,
,1.85,,,,,,,,,j,red,602053cceadd2f6616479d74,2021-09-27_17h13.43.334,forced_choiceRT_color,2021.2.3,MacIntel,59.99520038,,,,,,,,3,Ontime,short,j,1,1.9588,2,1,9,2,1,,,,,
,1.39,,,,,,,,,k,purple,602053cceadd2f6616479d74,2021-09-27_17h13.43.334,forced_choiceRT_color,2021.2.3,MacIntel,59.99520038,,,,,,,,3,Slow,short,j,0,2.1876,2,2,10,3,1,,,,,
,1.38,,,,,,,,,k,purple,602053cceadd2f6616479d74,2021-09-27_17h13.43.334,forced_choiceRT_color,2021.2.3,MacIntel,59.99520038,,,,,,,,3,Ontime,short,d,0,2.0848,2,3,11,3,1,,,,,
,1.48,,,,,,,,,j,red,602053cceadd2f6616479d74,2021-09-27_17h13.43.334,forced_choiceRT_color,2021.2.3,MacIntel,59.99520038,,,,,,,,3,Ontime,short,d,0,2.0715,3,0,12,2,1,,,,,
,0.7,,,,,,,,,d,orange,602053cceadd2f6616479d74,2021-09-27_17h13.43.334,forced_choiceRT_color,2021.2.3,MacIntel,59.99520038,,,,,,,,3,Ontime,short,d,1,2.0201,3,1,13,0,1,,,,,
,1.07,,,,,,,,,f,blue,602053cceadd2f6616479d74,2021-09-27_17h13.43.334,forced_choiceRT_color,2021.2.3,MacIntel,59.99520038,,,,,,,,3,Slow,short,f,1,2.1672,3,2,14,1,1,,,,,
,1.13,,,,,,,,,d,orange,602053cceadd2f6616479d74,2021-09-27_17h13.43.334,forced_choiceRT_color,2021.2.3,MacIntel,59.99520038,,,,,,,,3,Slow,short,d,1,2.3794,3,3,15,0,1,,,,,
,0.64,,,,,,,,,d,orange,602053cceadd2f6616479d74,2021-09-27_17h13.43.334,forced_choiceRT_color,2021.2.3,MacIntel,59.99520038,,,,,,,,3,Fast,short,d,1,1.8321,4,0,16,0,1,,,,,
,0.34,,,,,,,,,d,orange,602053cceadd2f6616479d74,2021-09-27_17h13.43.334,forced_choiceRT_color,2021.2.3,MacIntel,59.99520038,,,,,,,,3,Ontime,short,d,1,2.0338,4,1,17,0,1,,,,,
,0.54,,,,,,,,,d,orange,602053cceadd2f6616479d74,2021-09-27_17h13.43.334,forced_choiceRT_color,2021.2.3,MacIntel,59.99520038,,,,,,,,3,Slow,short,d,1,2.2153,4,2,18,0,1,,,,,
,1.98,,,,,,,,,f,blue,602053cceadd2f6616479d74,2021-09-27_17h13.43.334,forced_choiceRT_color,2021.2.3,MacIntel,59.99520038,,,,,,,,3,Fast,short,f,1,1.898,4,3,19,1,1,,,,,
,1.67,,,,,,,,,k,purple,602053cceadd2f6616479d74,2021-09-27_17h13.43.334,forced_choiceRT_color,2021.2.3,MacIntel,59.99520038,,,,,,,,3,Slow,short,j,0,2.2346,5,0,20,3,1,,,,,
,0.57,,,,,,,,,k,purple,602053cceadd2f6616479d74,2021-09-27_17h13.43.334,forced_choiceRT_color,2021.2.3,MacIntel,59.99520038,,,,,,,,3,Ontime,short,k,1,1.9218,5,1,21,3,1,,,,,
,1.17,,,,,,,,,k,purple,602053cceadd2f6616479d74,2021-09-27_17h13.43.334,forced_choiceRT_color,2021.2.3,MacIntel,59.99520038,,,,,,,,3,Slow,short,k,1,2.1151,5,2,22,3,1,,,,,
,0.34,,,,,,,,,f,blue,602053cceadd2f6616479d74,2021-09-27_17h13.43.334,forced_choiceRT_color,2021.2.3,MacIntel,59.99520038,,,,,,,,3,Fast,short,j,0,1.6354,5,3,23,1,1,,,,,
,0.14,,,,,,,,,j,red,602053cceadd2f6616479d74,2021-09-27_17h13.43.334,forced_choiceRT_color,2021.2.3,MacIntel,59.99520038,,,,,,,,3,Fast,short,f,0,1.7648,6,0,24,2,1,,,,,
,1.69,,,,,,,,,f,blue,602053cceadd2f6616479d74,2021-09-27_17h13.43.334,forced_choiceRT_color,2021.2.3,MacIntel,59.99520038,,,,,,,,3,Slow,short,f,1,2.5336,6,1,25,1,1,,,,,
,1.9,,,,,,,,,d,orange,602053cceadd2f6616479d74,2021-09-27_17h13.43.334,forced_choiceRT_color,2021.2.3,MacIntel,59.99520038,,,,,,,,3,Fast,short,f,0,0.4669,6,2,26,0,1,,,,,
,0.48,,,,,,,,,j,red,602053cceadd2f6616479d74,2021-09-27_17h13.43.334,forced_choiceRT_color,2021.2.3,MacIntel,59.99520038,,,,,,,,3,Slow,short,d,0,2.166,6,3,27,2,1,,,,,
,0.25,,,,,,,,,d,orange,602053cceadd2f6616479d74,2021-09-27_17h13.43.334,forced_choiceRT_color,2021.2.3,MacIntel,59.99520038,,,,,,,,3,Fast,short,d,1,1.8724,7,0,28,0,1,,,,,
,1.24,,,,,,,,,f,blue,602053cceadd2f6616479d74,2021-09-27_17h13.43.334,forced_choiceRT_color,2021.2.3,MacIntel,59.99520038,,,,,,,,3,Slow,short,f,1,2.4831,7,1,29,1,1,,,,,
,0.33,,,,,,,,,j,red,602053cceadd2f6616479d74,2021-09-27_17h13.43.334,forced_choiceRT_color,2021.2.3,MacIntel,59.99520038,,,,,,,,3,Slow,short,j,1,2.5596,7,2,30,2,1,,,,,
,0.61,,,,,,,,,j,red,602053cceadd2f6616479d74,2021-09-27_17h13.43.334,forced_choiceRT_color,2021.2.3,MacIntel,59.99520038,,,,,,,,3,Ontime,short,j,1,1.9883,7,3,31,2,1,,,,,
,1.29,,,,,,,,,j,red,602053cceadd2f6616479d74,2021-09-27_17h13.43.334,forced_choiceRT_color,2021.2.3,MacIntel,59.99520038,,,,,,,,3,Slow,short,j,1,2.1249,8,0,32,2,1,,,,,
,1.91,,,,,,,,,j,red,602053cceadd2f6616479d74,2021-09-27_17h13.43.334,forced_choiceRT_color,2021.2.3,MacIntel,59.99520038,,,,,,,,3,Ontime,short,j,1,1.9435,8,1,33,2,1,,,,,
,1.71,,,,,,,,,k,purple,602053cceadd2f6616479d74,2021-09-27_17h13.43.334,forced_choiceRT_color,2021.2.3,MacIntel,59.99520038,,,,,,,,3,Ontime,short,j,0,2.0999,8,2,34,3,1,,,,,
,1.25,,,,,,,,,f,blue,602053cceadd2f6616479d74,2021-09-27_17h13.43.334,forced_choiceRT_color,2021.2.3,MacIntel,59.99520038,,,,,,,,3,Slow,short,f,1,3.0004,8,3,35,1,1,,,,,
,1.04,,,,,,,,,d,orange,602053cceadd2f6616479d74,2021-09-27_17h13.43.334,forced_choiceRT_color,2021.2.3,MacIntel,59.99520038,,,,,,,,3,Ontime,short,d,1,2.0707,9,0,36,0,1,,,,,
,0.24,,,,,,,,,d,orange,602053cceadd2f6616479d74,2021-09-27_17h13.43.334,forced_choiceRT_color,2021.2.3,MacIntel,59.99520038,,,,,,,,3,Ontime,short,d,1,1.9815,9,1,37,0,1,,,,,
,1.73,,,,,,,,,f,blue,602053cceadd2f6616479d74,2021-09-27_17h13.43.334,forced_choiceRT_color,2021.2.3,MacIntel,59.99520038,,,,,,,,3,Slow,short,d,0,2.134,9,2,38,1,1,,,,,
,1.83,,,,,,,,,k,purple,602053cceadd2f6616479d74,2021-09-27_17h13.43.334,forced_choiceRT_color,2021.2.3,MacIntel,59.99520038,,,,,,,,3,Ontime,short,f,0,2.01,9,3,39,3,1,,,,,
,,,,,,,,,,,,602053cceadd2f6616479d74,2021-09-27_17h13.43.334,forced_choiceRT_color,2021.2.3,MacIntel,59.99520038,,,,,,,,,,,,,,,,,,,2,0,2,0,1
,1.16,,,,,,,,,j,red,602053cceadd2f6616479d74,2021-09-27_17h13.43.334,forced_choiceRT_color,2021.2.3,MacIntel,59.99520038,,,,,,,,4,Slow,short,d,0,2.1753,0,0,0,2,1,,,,,
,1.95,,,,,,,,,j,red,602053cceadd2f6616479d74,2021-09-27_17h13.43.334,forced_choiceRT_color,2021.2.3,MacIntel,59.99520038,,,,,,,,4,Ontime,short,f,0,2.0888,0,1,1,2,1,,,,,
,1.36,,,,,,,,,k,purple,602053cceadd2f6616479d74,2021-09-27_17h13.43.334,forced_choiceRT_color,2021.2.3,MacIntel,59.99520038,,,,,,,,4,Slow,short,k,1,3.4313,0,2,2,3,1,,,,,
,1.76,,,,,,,,,d,orange,602053cceadd2f6616479d74,2021-09-27_17h13.43.334,forced_choiceRT_color,2021.2.3,MacIntel,59.99520038,,,,,,,,4,Ontime,short,k,0,1.9115,0,3,3,0,1,,,,,
,0.68,,,,,,,,,j,red,602053cceadd2f6616479d74,2021-09-27_17h13.43.334,forced_choiceRT_color,2021.2.3,MacIntel,59.99520038,,,,,,,,4,Ontime,short,j,1,2.0508,1,0,4,2,1,,,,,
,1.67,,,,,,,,,f,blue,602053cceadd2f6616479d74,2021-09-27_17h13.43.334,forced_choiceRT_color,2021.2.3,MacIntel,59.99520038,,,,,,,,4,Slow,short,k,0,2.3359,1,1,5,1,1,,,,,
,1.27,,,,,,,,,k,purple,602053cceadd2f6616479d74,2021-09-27_17h13.43.334,forced_choiceRT_color,2021.2.3,MacIntel,59.99520038,,,,,,,,4,Slow,short,k,1,2.3821,1,2,6,3,1,,,,,
,1.33,,,,,,,,,j,red,602053cceadd2f6616479d74,2021-09-27_17h13.43.334,forced_choiceRT_color,2021.2.3,MacIntel,59.99520038,,,,,,,,4,Slow,short,d,0,3.36,1,3,7,2,1,,,,,
,1.56,,,,,,,,,k,purple,602053cceadd2f6616479d74,2021-09-27_17h13.43.334,forced_choiceRT_color,2021.2.3,MacIntel,59.99520038,,,,,,,,4,Slow,short,d,0,2.1309,2,0,8,3,1,,,,,
,1.24,,,,,,,,,k,purple,602053cceadd2f6616479d74,2021-09-27_17h13.43.334,forced_choiceRT_color,2021.2.3,MacIntel,59.99520038,,,,,,,,4,Slow,short,k,1,2.5173,2,1,9,3,1,,,,,
,1.39,,,,,,,,,j,red,602053cceadd2f6616479d74,2021-09-27_17h13.43.334,forced_choiceRT_color,2021.2.3,MacIntel,59.99520038,,,,,,,,4,Slow,short,d,0,2.7267,2,2,10,2,1,,,,,
,1.7,,,,,,,,,d,orange,602053cceadd2f6616479d74,2021-09-27_17h13.43.334,forced_choiceRT_color,2021.2.3,MacIntel,59.99520038,,,,,,,,4,Slow,short,f,0,2.1337,2,3,11,0,1,,,,,
,1.15,,,,,,,,,f,blue,602053cceadd2f6616479d74,2021-09-27_17h13.43.334,forced_choiceRT_color,2021.2.3,MacIntel,59.99520038,,,,,,,,4,Slow,short,f,1,2.4486,3,0,12,1,1,,,,,
,1.45,,,,,,,,,j,red,602053cceadd2f6616479d74,2021-09-27_17h13.43.334,forced_choiceRT_color,2021.2.3,MacIntel,59.99520038,,,,,,,,4,Ontime,short,d,0,2.0603,3,1,13,2,1,,,,,
,1.57,,,,,,,,,f,blue,602053cceadd2f6616479d74,2021-09-27_17h13.43.334,forced_choiceRT_color,2021.2.3,MacIntel,59.99520038,,,,,,,,4,Slow,short,d,0,2.1981,3,2,14,1,1,,,,,
,0.14,,,,,,,,,f,blue,602053cceadd2f6616479d74,2021-09-27_17h13.43.334,forced_choiceRT_color,2021.2.3,MacIntel,59.99520038,,,,,,,,4,Fast,short,f,1,1.617,3,3,15,1,1,,,,,
,1.38,,,,,,,,,j,red,602053cceadd2f6616479d74,2021-09-27_17h13.43.334,forced_choiceRT_color,2021.2.3,MacIntel,59.99520038,,,,,,,,4,Fast,short,f,0,1.8832,4,0,16,2,1,,,,,
,1,,,,,,,,,k,purple,602053cceadd2f6616479d74,2021-09-27_17h13.43.334,forced_choiceRT_color,2021.2.3,MacIntel,59.99520038,,,,,,,,4,Slow,short,k,1,2.3477,4,1,17,3,1,,,,,
,1.5,,,,,,,,,k,purple,602053cceadd2f6616479d74,2021-09-27_17h13.43.334,forced_choiceRT_color,2021.2.3,MacIntel,59.99520038,,,,,,,,4,Ontime,short,k,1,2.0345,4,2,18,3,1,,,,,
,1.43,,,,,,,,,d,orange,602053cceadd2f6616479d74,2021-09-27_17h13.43.334,forced_choiceRT_color,2021.2.3,MacIntel,59.99520038,,,,,,,,4,Slow,short,k,0,2.1843,4,3,19,0,1,,,,,
,0.58,,,,,,,,,d,orange,602053cceadd2f6616479d74,2021-09-27_17h13.43.334,forced_choiceRT_color,2021.2.3,MacIntel,59.99520038,,,,,,,,4,Fast,short,d,1,1.7671,5,0,20,0,1,,,,,
,1.95,,,,,,,,,f,blue,602053cceadd2f6616479d74,2021-09-27_17h13.43.334,forced_choiceRT_color,2021.2.3,MacIntel,59.99520038,,,,,,,,4,Ontime,short,d,0,2.0109,5,1,21,1,1,,,,,
,0.35,,,,,,,,,f,blue,602053cceadd2f6616479d74,2021-09-27_17h13.43.334,forced_choiceRT_color,2021.2.3,MacIntel,59.99520038,,,,,,,,4,Ontime,short,f,1,2.0009,5,2,22,1,1,,,,,
,1.44,,,,,,,,,f,blue,602053cceadd2f6616479d74,2021-09-27_17h13.43.334,forced_choiceRT_color,2021.2.3,MacIntel,59.99520038,,,,,,,,4,Slow,short,f,1,2.4217,5,3,23,1,1,,,,,
,0.13,,,,,,,,,k,purple,602053cceadd2f6616479d74,2021-09-27_17h13.43.334,forced_choiceRT_color,2021.2.3,MacIntel,59.99520038,,,,,,,,4,Fast,short,k,1,1.7366,6,0,24,3,1,,,,,
,0.46,,,,,,,,,j,red,602053cceadd2f6616479d74,2021-09-27_17h13.43.334,forced_choiceRT_color,2021.2.3,MacIntel,59.99520038,,,,,,,,4,Ontime,short,f,0,1.9168,6,1,25,2,1,,,,,
,0.3,,,,,,,,,k,purple,602053cceadd2f6616479d74,2021-09-27_17h13.43.334,forced_choiceRT_color,2021.2.3,MacIntel,59.99520038,,,,,,,,4,Ontime,short,k,1,2.0332,6,2,26,3,1,,,,,
,1.17,,,,,,,,,k,purple,602053cceadd2f6616479d74,2021-09-27_17h13.43.334,forced_choiceRT_color,2021.2.3,MacIntel,59.99520038,,,,,,,,4,Ontime,short,k,1,2.0335,6,3,27,3,1,,,,,
,0.51,,,,,,,,,d,orange,602053cceadd2f6616479d74,2021-09-27_17h13.43.334,forced_choiceRT_color,2021.2.3,MacIntel,59.99520038,,,,,,,,4,Fast,short,k,0,0.251,7,0,28,0,1,,,,,
,1.09,,,,,,,,,d,orange,602053cceadd2f6616479d74,2021-09-27_17h13.43.334,forced_choiceRT_color,2021.2.3,MacIntel,59.99520038,,,,,,,,4,Fast,short,j,0,1.8206,7,1,29,0,1,,,,,
,1.46,,,,,,,,,f,blue,602053cceadd2f6616479d74,2021-09-27_17h13.43.334,forced_choiceRT_color,2021.2.3,MacIntel,59.99520038,,,,,,,,4,Slow,short,f,1,2.3678,7,2,30,1,1,,,,,
,1.01,,,,,,,,,d,orange,602053cceadd2f6616479d74,2021-09-27_17h13.43.334,forced_choiceRT_color,2021.2.3,MacIntel,59.99520038,,,,,,,,4,Slow,short,d,1,3.2846,7,3,31,0,1,,,,,
,1.71,,,,,,,,,k,purple,602053cceadd2f6616479d74,2021-09-27_17h13.43.334,forced_choiceRT_color,2021.2.3,MacIntel,59.99520038,,,,,,,,4,Ontime,short,d,0,2.076,8,0,32,3,1,,,,,
,0.34,,,,,,,,,j,red,602053cceadd2f6616479d74,2021-09-27_17h13.43.334,forced_choiceRT_color,2021.2.3,MacIntel,59.99520038,,,,,,,,4,Slow,short,j,1,2.2353,8,1,33,2,1,,,,,
,0.34,,,,,,,,,j,red,602053cceadd2f6616479d74,2021-09-27_17h13.43.334,forced_choiceRT_color,2021.2.3,MacIntel,59.99520038,,,,,,,,4,Ontime,short,j,1,1.9098,8,2,34,2,1,,,,,
,1.8,,,,,,,,,f,blue,602053cceadd2f6616479d74,2021-09-27_17h13.43.334,forced_choiceRT_color,2021.2.3,MacIntel,59.99520038,,,,,,,,4,Slow,short,j,0,2.2822,8,3,35,1,1,,,,,
,1.06,,,,,,,,,d,orange,602053cceadd2f6616479d74,2021-09-27_17h13.43.334,forced_choiceRT_color,2021.2.3,MacIntel,59.99520038,,,,,,,,4,Ontime,short,d,1,2.034,9,0,36,0,1,,,,,
,1.55,,,,,,,,,d,orange,602053cceadd2f6616479d74,2021-09-27_17h13.43.334,forced_choiceRT_color,2021.2.3,MacIntel,59.99520038,,,,,,,,4,Slow,short,d,1,2.1846,9,1,37,0,1,,,,,
,0.11,,,,,,,,,d,orange,602053cceadd2f6616479d74,2021-09-27_17h13.43.334,forced_choiceRT_color,2021.2.3,MacIntel,59.99520038,,,,,,,,4,Ontime,short,d,1,1.934,9,2,38,0,1,,,,,
,1.78,,,,,,,,,f,blue,602053cceadd2f6616479d74,2021-09-27_17h13.43.334,forced_choiceRT_color,2021.2.3,MacIntel,59.99520038,,,,,,,,4,Slow,short,k,0,2.4152,9,3,39,1,1,,,,,
,,,,,,,,,,,,602053cceadd2f6616479d74,2021-09-27_17h13.43.334,forced_choiceRT_color,2021.2.3,MacIntel,59.99520038,,,,,,,,,,,,,,,,,,,3,0,3,0,1
,1.15,,,,,,,,,f,blue,602053cceadd2f6616479d74,2021-09-27_17h13.43.334,forced_choiceRT_color,2021.2.3,MacIntel,59.99520038,,,,,,,,5,Slow,short,f,1,2.4291,0,0,0,1,1,,,,,
,1.21,,,,,,,,,d,orange,602053cceadd2f6616479d74,2021-09-27_17h13.43.334,forced_choiceRT_color,2021.2.3,MacIntel,59.99520038,,,,,,,,5,Ontime,short,d,1,2.0895,0,1,1,0,1,,,,,
,1.48,,,,,,,,,f,blue,602053cceadd2f6616479d74,2021-09-27_17h13.43.334,forced_choiceRT_color,2021.2.3,MacIntel,59.99520038,,,,,,,,5,Slow,short,f,1,3.7661,0,2,2,1,1,,,,,
,1.3,,,,,,,,,f,blue,602053cceadd2f6616479d74,2021-09-27_17h13.43.334,forced_choiceRT_color,2021.2.3,MacIntel,59.99520038,,,,,,,,5,Ontime,short,f,1,1.929,0,3,3,1,1,,,,,
,1.14,,,,,,,,,j,red,602053cceadd2f6616479d74,2021-09-27_17h13.43.334,forced_choiceRT_color,2021.2.3,MacIntel,59.99520038,,,,,,,,5,Fast,short,f,0,0.0474,1,0,4,2,1,,,,,
,0.6,,,,,,,,,d,orange,602053cceadd2f6616479d74,2021-09-27_17h13.43.334,forced_choiceRT_color,2021.2.3,MacIntel,59.99520038,,,,,,,,5,Ontime,short,d,1,2.0648,1,1,5,0,1,,,,,
,0.62,,,,,,,,,j,red,602053cceadd2f6616479d74,2021-09-27_17h13.43.334,forced_choiceRT_color,2021.2.3,MacIntel,59.99520038,,,,,,,,5,Slow,short,j,1,2.1823,1,2,6,2,1,,,,,
,1.02,,,,,,,,,k,purple,602053cceadd2f6616479d74,2021-09-27_17h13.43.334,forced_choiceRT_color,2021.2.3,MacIntel,59.99520038,,,,,,,,5,Slow,short,k,1,2.229,1,3,7,3,1,,,,,
,0.31,,,,,,,,,k,purple,602053cceadd2f6616479d74,2021-09-27_17h13.43.334,forced_choiceRT_color,2021.2.3,MacIntel,59.99520038,,,,,,,,5,Ontime,short,k,1,1.9166,2,0,8,3,1,,,,,
,1.36,,,,,,,,,j,red,602053cceadd2f6616479d74,2021-09-27_17h13.43.334,forced_choiceRT_color,2021.2.3,MacIntel,59.99520038,,,,,,,,5,Slow,short,j,1,2.1808,2,1,9,2,1,,,,,
,1.77,,,,,,,,,f,blue,602053cceadd2f6616479d74,2021-09-27_17h13.43.334,forced_choiceRT_color,2021.2.3,MacIntel,59.99520038,,,,,,,,5,Fast,short,j,0,1.8771,2,2,10,1,1,,,,,
,1.24,,,,,,,,,d,orange,602053cceadd2f6616479d74,2021-09-27_17h13.43.334,forced_choiceRT_color,2021.2.3,MacIntel,59.99520038,,,,,,,,5,Slow,short,d,1,2.3037,2,3,11,0,1,,,,,
,1.49,,,,,,,,,d,orange,602053cceadd2f6616479d74,2021-09-27_17h13.43.334,forced_choiceRT_color,2021.2.3,MacIntel,59.99520038,,,,,,,,5,Ontime,short,f,0,1.9158,3,0,12,0,1,,,,,
,1.66,,,,,,,,,f,blue,602053cceadd2f6616479d74,2021-09-27_17h13.43.334,forced_choiceRT_color,2021.2.3,MacIntel,59.99520038,,,,,,,,5,Slow,short,f,1,3.3816,3,1,13,1,1,,,,,
,0.37,,,,,,,,,k,purple,602053cceadd2f6616479d74,2021-09-27_17h13.43.334,forced_choiceRT_color,2021.2.3,MacIntel,59.99520038,,,,,,,,5,Fast,short,k,1,1.8775,3,2,14,3,1,,,,,
,0.63,,,,,,,,,j,red,602053cceadd2f6616479d74,2021-09-27_17h13.43.334,forced_choiceRT_color,2021.2.3,MacIntel,59.99520038,,,,,,,,5,Slow,short,f,0,2.2323,3,3,15,2,1,,,,,
,1.53,,,,,,,,,k,purple,602053cceadd2f6616479d74,2021-09-27_17h13.43.334,forced_choiceRT_color,2021.2.3,MacIntel,59.99520038,,,,,,,,5,Slow,short,k,1,2.3768,4,0,16,3,1,,,,,
,1.48,,,,,,,,,k,purple,602053cceadd2f6616479d74,2021-09-27_17h13.43.334,forced_choiceRT_color,2021.2.3,MacIntel,59.99520038,,,,,,,,5,Ontime,short,k,1,1.9831,4,1,17,3,1,,,,,
,1.98,,,,,,,,,j,red,602053cceadd2f6616479d74,2021-09-27_17h13.43.334,forced_choiceRT_color,2021.2.3,MacIntel,59.99520038,,,,,,,,5,Slow,short,j,1,2.5751,4,2,18,2,1,,,,,
,0.72,,,,,,,,,j,red,602053cceadd2f6616479d74,2021-09-27_17h13.43.334,forced_choiceRT_color,2021.2.3,MacIntel,59.99520038,,,,,,,,5,Fast,short,f,0,1.7765,4,3,19,2,1,,,,,
,1.96,,,,,,,,,k,purple,602053cceadd2f6616479d74,2021-09-27_17h13.43.334,forced_choiceRT_color,2021.2.3,MacIntel,59.99520038,,,,,,,,5,Ontime,short,d,0,2.0553,5,0,20,3,1,,,,,
,0.05,,,,,,,,,d,orange,602053cceadd2f6616479d74,2021-09-27_17h13.43.334,forced_choiceRT_color,2021.2.3,MacIntel,59.99520038,,,,,,,,5,Ontime,short,d,1,1.904,5,1,21,0,1,,,,,
,1.11,,,,,,,,,d,orange,602053cceadd2f6616479d74,2021-09-27_17h13.43.334,forced_choiceRT_color,2021.2.3,MacIntel,59.99520038,,,,,,,,5,Slow,short,d,1,2.2342,5,2,22,0,1,,,,,
,0.88,,,,,,,,,k,purple,602053cceadd2f6616479d74,2021-09-27_17h13.43.334,forced_choiceRT_color,2021.2.3,MacIntel,59.99520038,,,,,,,,5,Slow,short,k,1,2.2169,5,3,23,3,1,,,,,
,1.77,,,,,,,,,f,blue,602053cceadd2f6616479d74,2021-09-27_17h13.43.334,forced_choiceRT_color,2021.2.3,MacIntel,59.99520038,,,,,,,,5,Slow,short,f,1,2.614,6,0,24,1,1,,,,,
,1.27,,,,,,,,,j,red,602053cceadd2f6616479d74,2021-09-27_17h13.43.334,forced_choiceRT_color,2021.2.3,MacIntel,59.99520038,,,,,,,,5,Slow,short,j,1,2.7169,6,1,25,2,1,,,,,
,0.93,,,,,,,,,k,purple,602053cceadd2f6616479d74,2021-09-27_17h13.43.334,forced_choiceRT_color,2021.2.3,MacIntel,59.99520038,,,,,,,,5,Slow,short,k,1,2.2112,6,2,26,3,1,,,,,
,1.67,,,,,,,,,j,red,602053cceadd2f6616479d74,2021-09-27_17h13.43.334,forced_choiceRT_color,2021.2.3,MacIntel,59.99520038,,,,,,,,5,Slow,short,k,0,3.3342,6,3,27,2,1,,,,,
,1.24,,,,,,,,,j,red,602053cceadd2f6616479d74,2021-09-27_17h13.43.334,forced_choiceRT_color,2021.2.3,MacIntel,59.99520038,,,,,,,,5,Ontime,short,d,0,1.9427,7,0,28,2,1,,,,,
,0.79,,,,,,,,,d,orange,602053cceadd2f6616479d74,2021-09-27_17h13.43.334,forced_choiceRT_color,2021.2.3,MacIntel,59.99520038,,,,,,,,5,Slow,short,j,0,2.2834,7,1,29,0,1,,,,,
,1.05,,,,,,,,,f,blue,602053cceadd2f6616479d74,2021-09-27_17h13.43.334,forced_choiceRT_color,2021.2.3,MacIntel,59.99520038,,,,,,,,5,Ontime,short,d,0,1.934,7,2,30,1,1,,,,,
,1.98,,,,,,,,,k,purple,602053cceadd2f6616479d74,2021-09-27_17h13.43.334,forced_choiceRT_color,2021.2.3,MacIntel,59.99520038,,,,,,,,5,Slow,short,d,0,2.1163,7,3,31,3,1,,,,,
,0.78,,,,,,,,,d,orange,602053cceadd2f6616479d74,2021-09-27_17h13.43.334,forced_choiceRT_color,2021.2.3,MacIntel,59.99520038,,,,,,,,5,Fast,short,d,1,1.8602,8,0,32,0,1,,,,,
,1.3,,,,,,,,,f,blue,602053cceadd2f6616479d74,2021-09-27_17h13.43.334,forced_choiceRT_color,2021.2.3,MacIntel,59.99520038,,,,,,,,5,Ontime,short,f,1,1.9,8,1,33,1,1,,,,,
,0.62,,,,,,,,,d,orange,602053cceadd2f6616479d74,2021-09-27_17h13.43.334,forced_choiceRT_color,2021.2.3,MacIntel,59.99520038,,,,,,,,5,Ontime,short,d,1,2.0344,8,2,34,0,1,,,,,
,0.04,,,,,,,,,f,blue,602053cceadd2f6616479d74,2021-09-27_17h13.43.334,forced_choiceRT_color,2021.2.3,MacIntel,59.99520038,,,,,,,,5,Slow,short,f,1,2.9851,8,3,35,1,1,,,,,
,1.09,,,,,,,,,f,blue,602053cceadd2f6616479d74,2021-09-27_17h13.43.334,forced_choiceRT_color,2021.2.3,MacIntel,59.99520038,,,,,,,,5,Slow,short,f,1,2.1766,9,0,36,1,1,,,,,
,0.07,,,,,,,,,k,purple,602053cceadd2f6616479d74,2021-09-27_17h13.43.334,forced_choiceRT_color,2021.2.3,MacIntel,59.99520038,,,,,,,,5,Fast,short,k,1,1.6002,9,1,37,3,1,,,,,
,0.47,,,,,,,,,d,orange,602053cceadd2f6616479d74,2021-09-27_17h13.43.334,forced_choiceRT_color,2021.2.3,MacIntel,59.99520038,,,,,,,,5,Slow,short,d,1,2.1191,9,2,38,0,1,,,,,
,1.26,,,,,,,,,j,red,602053cceadd2f6616479d74,2021-09-27_17h13.43.334,forced_choiceRT_color,2021.2.3,MacIntel,59.99520038,,,,,,,,5,Ontime,short,d,0,2.0669,9,3,39,2,1,,,,,
,,,,,,,,,,,,602053cceadd2f6616479d74,2021-09-27_17h13.43.334,forced_choiceRT_color,2021.2.3,MacIntel,59.99520038,,,,,,,,,,,,,,,,,,,4,0,4,0,1
,1.32,,,,,,,,,d,orange,602053cceadd2f6616479d74,2021-09-27_17h13.43.334,forced_choiceRT_color,2021.2.3,MacIntel,59.99520038,,,,,,,,6,Slow,short,d,1,2.4786,0,0,0,0,1,,,,,
,1.62,,,,,,,,,k,purple,602053cceadd2f6616479d74,2021-09-27_17h13.43.334,forced_choiceRT_color,2021.2.3,MacIntel,59.99520038,,,,,,,,6,Ontime,short,f,0,2.014,0,1,1,3,1,,,,,
,0.51,,,,,,,,,j,red,602053cceadd2f6616479d74,2021-09-27_17h13.43.334,forced_choiceRT_color,2021.2.3,MacIntel,59.99520038,,,,,,,,6,Ontime,short,f,0,2.0643,0,2,2,2,1,,,,,
,0.29,,,,,,,,,f,blue,602053cceadd2f6616479d74,2021-09-27_17h13.43.334,forced_choiceRT_color,2021.2.3,MacIntel,59.99520038,,,,,,,,6,Ontime,short,j,0,1.9555,0,3,3,1,1,,,,,
,1.63,,,,,,,,,k,purple,602053cceadd2f6616479d74,2021-09-27_17h13.43.334,forced_choiceRT_color,2021.2.3,MacIntel,59.99520038,,,,,,,,6,Slow,short,k,1,2.2865,1,0,4,3,1,,,,,
,0.7,,,,,,,,,f,blue,602053cceadd2f6616479d74,2021-09-27_17h13.43.334,forced_choiceRT_color,2021.2.3,MacIntel,59.99520038,,,,,,,,6,Slow,short,f,1,2.9173,1,1,5,1,1,,,,,
,1.45,,,,,,,,,d,orange,602053cceadd2f6616479d74,2021-09-27_17h13.43.334,forced_choiceRT_color,2021.2.3,MacIntel,59.99520038,,,,,,,,6,Ontime,short,d,1,2.0107,1,2,6,0,1,,,,,
,0.18,,,,,,,,,d,orange,602053cceadd2f6616479d74,2021-09-27_17h13.43.334,forced_choiceRT_color,2021.2.3,MacIntel,59.99520038,,,,,,,,6,Ontime,short,d,1,1.9487,1,3,7,0,1,,,,,
,1.45,,,,,,,,,j,red,602053cceadd2f6616479d74,2021-09-27_17h13.43.334,forced_choiceRT_color,2021.2.3,MacIntel,59.99520038,,,,,,,,6,Slow,short,f,0,2.2207,2,0,8,2,1,,,,,
,1.85,,,,,,,,,f,blue,602053cceadd2f6616479d74,2021-09-27_17h13.43.334,forced_choiceRT_color,2021.2.3,MacIntel,59.99520038,,,,,,,,6,Ontime,short,j,0,1.9668,2,1,9,1,1,,,,,
,0.14,,,,,,,,,d,orange,602053cceadd2f6616479d74,2021-09-27_17h13.43.334,forced_choiceRT_color,2021.2.3,MacIntel,59.99520038,,,,,,,,6,Slow,short,d,1,2.1822,2,2,10,0,1,,,,,
,0.6,,,,,,,,,k,purple,602053cceadd2f6616479d74,2021-09-27_17h13.43.334,forced_choiceRT_color,2021.2.3,MacIntel,59.99520038,,,,,,,,6,Ontime,short,k,1,1.9088,2,3,11,3,1,,,,,
,0.76,,,,,,,,,f,blue,602053cceadd2f6616479d74,2021-09-27_17h13.43.334,forced_choiceRT_color,2021.2.3,MacIntel,59.99520038,,,,,,,,6,Slow,short,f,1,2.2862,3,0,12,1,1,,,,,
,0.1,,,,,,,,,d,orange,602053cceadd2f6616479d74,2021-09-27_17h13.43.334,forced_choiceRT_color,2021.2.3,MacIntel,59.99520038,,,,,,,,6,Slow,short,d,1,3.8169,3,1,13,0,1,,,,,
,1.68,,,,,,,,,d,orange,602053cceadd2f6616479d74,2021-09-27_17h13.43.334,forced_choiceRT_color,2021.2.3,MacIntel,59.99520038,,,,,,,,6,Slow,short,d,1,2.611,3,2,14,0,1,,,,,
,0.75,,,,,,,,,k,purple,602053cceadd2f6616479d74,2021-09-27_17h13.43.334,forced_choiceRT_color,2021.2.3,MacIntel,59.99520038,,,,,,,,6,Ontime,short,k,1,2.0636,3,3,15,3,1,,,,,
,0.69,,,,,,,,,k,purple,602053cceadd2f6616479d74,2021-09-27_17h13.43.334,forced_choiceRT_color,2021.2.3,MacIntel,59.99520038,,,,,,,,6,Slow,short,k,1,2.1172,4,0,16,3,1,,,,,
,0.14,,,,,,,,,j,red,602053cceadd2f6616479d74,2021-09-27_17h13.43.334,forced_choiceRT_color,2021.2.3,MacIntel,59.99520038,,,,,,,,6,Fast,short,j,1,1.5848,4,1,17,2,1,,,,,
,1.35,,,,,,,,,f,blue,602053cceadd2f6616479d74,2021-09-27_17h13.43.334,forced_choiceRT_color,2021.2.3,MacIntel,59.99520038,,,,,,,,6,Ontime,short,j,0,1.999,4,2,18,1,1,,,,,
,0.26,,,,,,,,,k,purple,602053cceadd2f6616479d74,2021-09-27_17h13.43.334,forced_choiceRT_color,2021.2.3,MacIntel,59.99520038,,,,,,,,6,Ontime,short,f,0,1.9206,4,3,19,3,1,,,,,
,1.69,,,,,,,,,f,blue,602053cceadd2f6616479d74,2021-09-27_17h13.43.334,forced_choiceRT_color,2021.2.3,MacIntel,59.99520038,,,,,,,,6,Slow,short,d,0,2.2705,5,0,20,1,1,,,,,
,1.72,,,,,,,,,j,red,602053cceadd2f6616479d74,2021-09-27_17h13.43.334,forced_choiceRT_color,2021.2.3,MacIntel,59.99520038,,,,,,,,6,Ontime,short,d,0,2.0758,5,1,21,2,1,,,,,
,1.96,,,,,,,,,f,blue,602053cceadd2f6616479d74,2021-09-27_17h13.43.334,forced_choiceRT_color,2021.2.3,MacIntel,59.99520038,,,,,,,,6,Slow,short,f,1,2.3805,5,2,22,1,1,,,,,
,1.6,,,,,,,,,k,purple,602053cceadd2f6616479d74,2021-09-27_17h13.43.334,forced_choiceRT_color,2021.2.3,MacIntel,59.99520038,,,,,,,,6,Slow,short,k,1,2.7049,5,3,23,3,1,,,,,
,1.97,,,,,,,,,j,red,602053cceadd2f6616479d74,2021-09-27_17h13.43.334,forced_choiceRT_color,2021.2.3,MacIntel,59.99520038,,,,,,,,6,Ontime,short,j,1,2.0622,6,0,24,2,1,,,,,
,1.38,,,,,,,,,f,blue,602053cceadd2f6616479d74,2021-09-27_17h13.43.334,forced_choiceRT_color,2021.2.3,MacIntel,59.99520038,,,,,,,,6,Ontime,short,j,0,2.0703,6,1,25,1,1,,,,,
,0.45,,,,,,,,,k,purple,602053cceadd2f6616479d74,2021-09-27_17h13.43.334,forced_choiceRT_color,2021.2.3,MacIntel,59.99520038,,,,,,,,6,Ontime,short,k,1,2.0504,6,2,26,3,1,,,,,
,0.38,,,,,,,,,d,orange,602053cceadd2f6616479d74,2021-09-27_17h13.43.334,forced_choiceRT_color,2021.2.3,MacIntel,59.99520038,,,,,,,,6,Fast,short,d,1,1.8853,6,3,27,0,1,,,,,
,0.72,,,,,,,,,d,orange,602053cceadd2f6616479d74,2021-09-27_17h13.43.334,forced_choiceRT_color,2021.2.3,MacIntel,59.99520038,,,,,,,,6,Fast,short,d,1,1.8392,7,0,28,0,1,,,,,
,1.45,,,,,,,,,j,red,602053cceadd2f6616479d74,2021-09-27_17h13.43.334,forced_choiceRT_color,2021.2.3,MacIntel,59.99520038,,,,,,,,6,Fast,short,f,0,1.8672,7,1,29,2,1,,,,,
,1.32,,,,,,,,,j,red,602053cceadd2f6616479d74,2021-09-27_17h13.43.334,forced_choiceRT_color,2021.2.3,MacIntel,59.99520038,,,,,,,,6,Fast,short,j,1,1.811,7,2,30,2,1,,,,,
,1.45,,,,,,,,,j,red,602053cceadd2f6616479d74,2021-09-27_17h13.43.334,forced_choiceRT_color,2021.2.3,MacIntel,59.99520038,,,,,,,,6,Fast,short,j,1,1.8338,7,3,31,2,1,,,,,
,1.1,,,,,,,,,k,purple,602053cceadd2f6616479d74,2021-09-27_17h13.43.334,forced_choiceRT_color,2021.2.3,MacIntel,59.99520038,,,,,,,,6,Slow,short,k,1,2.1352,8,0,32,3,1,,,,,
,0.88,,,,,,,,,d,orange,602053cceadd2f6616479d74,2021-09-27_17h13.43.334,forced_choiceRT_color,2021.2.3,MacIntel,59.99520038,,,,,,,,6,Slow,short,d,1,2.2335,8,1,33,0,1,,,,,
,1.62,,,,,,,,,j,red,602053cceadd2f6616479d74,2021-09-27_17h13.43.334,forced_choiceRT_color,2021.2.3,MacIntel,59.99520038,,,,,,,,6,Ontime,short,f,0,2.009,8,2,34,2,1,,,,,
,1.58,,,,,,,,,k,purple,602053cceadd2f6616479d74,2021-09-27_17h13.43.334,forced_choiceRT_color,2021.2.3,MacIntel,59.99520038,,,,,,,,6,Slow,short,f,0,2.3851,8,3,35,3,1,,,,,
,1.99,,,,,,,,,j,red,602053cceadd2f6616479d74,2021-09-27_17h13.43.334,forced_choiceRT_color,2021.2.3,MacIntel,59.99520038,,,,,,,,6,Fast,short,j,1,1.8191,9,0,36,2,1,,,,,
,1.46,,,,,,,,,f,blue,602053cceadd2f6616479d74,2021-09-27_17h13.43.334,forced_choiceRT_color,2021.2.3,MacIntel,59.99520038,,,,,,,,6,Slow,short,k,0,2.1169,9,1,37,1,1,,,,,
,1.7,,,,,,,,,d,orange,602053cceadd2f6616479d74,2021-09-27_17h13.43.334,forced_choiceRT_color,2021.2.3,MacIntel,59.99520038,,,,,,,,6,Slow,short,d,1,2.9094,9,2,38,0,1,,,,,
,1.28,,,,,,,,,f,blue,602053cceadd2f6616479d74,2021-09-27_17h13.43.334,forced_choiceRT_color,2021.2.3,MacIntel,59.99520038,,,,,,,,6,Slow,short,f,1,2.2691,9,3,39,1,1,,,,,
,,,,,,,,,,,,602053cceadd2f6616479d74,2021-09-27_17h13.43.334,forced_choiceRT_color,2021.2.3,MacIntel,59.99520038,,,,,,,,,,,,,,,,,,,5,0,5,0,1
,0.59,,,,,,,,,j,red,602053cceadd2f6616479d74,2021-09-27_17h13.43.334,forced_choiceRT_color,2021.2.3,MacIntel,59.99520038,,,,,,,,7,Ontime,short,d,0,1.9623,0,0,0,2,1,,,,,
,0.45,,,,,,,,,j,red,602053cceadd2f6616479d74,2021-09-27_17h13.43.334,forced_choiceRT_color,2021.2.3,MacIntel,59.99520038,,,,,,,,7,Ontime,short,f,0,1.9981,0,1,1,2,1,,,,,
,0.12,,,,,,,,,d,orange,602053cceadd2f6616479d74,2021-09-27_17h13.43.334,forced_choiceRT_color,2021.2.3,MacIntel,59.99520038,,,,,,,,7,Fast,short,d,1,1.8728,0,2,2,0,1,,,,,
,0.17,,,,,,,,,f,blue,602053cceadd2f6616479d74,2021-09-27_17h13.43.334,forced_choiceRT_color,2021.2.3,MacIntel,59.99520038,,,,,,,,7,Fast,short,j,0,1.7311,0,3,3,1,1,,,,,
,1.16,,,,,,,,,f,blue,602053cceadd2f6616479d74,2021-09-27_17h13.43.334,forced_choiceRT_color,2021.2.3,MacIntel,59.99520038,,,,,,,,7,Slow,short,j,0,3.405,1,0,4,1,1,,,,,
,1.05,,,,,,,,,j,red,602053cceadd2f6616479d74,2021-09-27_17h13.43.334,forced_choiceRT_color,2021.2.3,MacIntel,59.99520038,,,,,,,,7,Slow,short,f,0,2.4966,1,1,5,2,1,,,,,
,0.44,,,,,,,,,f,blue,602053cceadd2f6616479d74,2021-09-27_17h13.43.334,forced_choiceRT_color,2021.2.3,MacIntel,59.99520038,,,,,,,,7,Fast,short,j,0,1.7358,1,2,6,1,1,,,,,
,0.49,,,,,,,,,k,purple,602053cceadd2f6616479d74,2021-09-27_17h13.43.334,forced_choiceRT_color,2021.2.3,MacIntel,59.99520038,,,,,,,,7,Slow,short,k,1,3.267,1,3,7,3,1,,,,,
,0.88,,,,,,,,,k,purple,602053cceadd2f6616479d74,2021-09-27_17h13.43.334,forced_choiceRT_color,2021.2.3,MacIntel,59.99520038,,,,,,,,7,Ontime,short,k,1,1.9603,2,0,8,3,1,,,,,
,1.33,,,,,,,,,k,purple,602053cceadd2f6616479d74,2021-09-27_17h13.43.334,forced_choiceRT_color,2021.2.3,MacIntel,59.99520038,,,,,,,,7,Slow,short,j,0,2.4831,2,1,9,3,1,,,,,
,1.32,,,,,,,,,k,purple,602053cceadd2f6616479d74,2021-09-27_17h13.43.334,forced_choiceRT_color,2021.2.3,MacIntel,59.99520038,,,,,,,,7,Ontime,short,k,1,1.9958,2,2,10,3,1,,,,,
,1.88,,,,,,,,,d,orange,602053cceadd2f6616479d74,2021-09-27_17h13.43.334,forced_choiceRT_color,2021.2.3,MacIntel,59.99520038,,,,,,,,7,Slow,short,d,1,2.9141,2,3,11,0,1,,,,,
,0.11,,,,,,,,,d,orange,602053cceadd2f6616479d74,2021-09-27_17h13.43.334,forced_choiceRT_color,2021.2.3,MacIntel,59.99520038,,,,,,,,7,Ontime,short,d,1,2.0495,3,0,12,0,1,,,,,
,1.61,,,,,,,,,j,red,602053cceadd2f6616479d74,2021-09-27_17h13.43.334,forced_choiceRT_color,2021.2.3,MacIntel,59.99520038,,,,,,,,7,Slow,short,d,0,2.2651,3,1,13,2,1,,,,,
,1.06,,,,,,,,,f,blue,602053cceadd2f6616479d74,2021-09-27_17h13.43.334,forced_choiceRT_color,2021.2.3,MacIntel,59.99520038,,,,,,,,7,Fast,short,f,1,1.8523,3,2,14,1,1,,,,,
,1.68,,,,,,,,,k,purple,602053cceadd2f6616479d74,2021-09-27_17h13.43.334,forced_choiceRT_color,2021.2.3,MacIntel,59.99520038,,,,,,,,7,Fast,short,f,0,1.8,3,3,15,3,1,,,,,
,0.27,,,,,,,,,j,red,602053cceadd2f6616479d74,2021-09-27_17h13.43.334,forced_choiceRT_color,2021.2.3,MacIntel,59.99520038,,,,,,,,7,Ontime,short,j,1,2.0496,4,0,16,2,1,,,,,
,0.36,,,,,,,,,d,orange,602053cceadd2f6616479d74,2021-09-27_17h13.43.334,forced_choiceRT_color,2021.2.3,MacIntel,59.99520038,,,,,,,,7,Slow,short,d,1,2.2351,4,1,17,0,1,,,,,
,1.82,,,,,,,,,k,purple,602053cceadd2f6616479d74,2021-09-27_17h13.43.334,forced_choiceRT_color,2021.2.3,MacIntel,59.99520038,,,,,,,,7,Ontime,short,d,0,2.0432,4,2,18,3,1,,,,,
,1.67,,,,,,,,,j,red,602053cceadd2f6616479d74,2021-09-27_17h13.43.334,forced_choiceRT_color,2021.2.3,MacIntel,59.99520038,,,,,,,,7,Ontime,short,d,0,1.9152,4,3,19,2,1,,,,,
,0.48,,,,,,,,,d,orange,602053cceadd2f6616479d74,2021-09-27_17h13.43.334,forced_choiceRT_color,2021.2.3,MacIntel,59.99520038,,,,,,,,7,Fast,short,d,1,0.4333,5,0,20,0,1,,,,,
,0.02,,,,,,,,,k,purple,602053cceadd2f6616479d74,2021-09-27_17h13.43.334,forced_choiceRT_color,2021.2.3,MacIntel,59.99520038,,,,,,,,7,Fast,short,k,1,1.7508,5,1,21,3,1,,,,,
,1.01,,,,,,,,,d,orange,602053cceadd2f6616479d74,2021-09-27_17h13.43.334,forced_choiceRT_color,2021.2.3,MacIntel,59.99520038,,,,,,,,7,Slow,short,d,1,2.2736,5,2,22,0,1,,,,,
,1.69,,,,,,,,,d,orange,602053cceadd2f6616479d74,2021-09-27_17h13.43.334,forced_choiceRT_color,2021.2.3,MacIntel,59.99520038,,,,,,,,7,Ontime,short,d,1,1.9779,5,3,23,0,1,,,,,
,0.58,,,,,,,,,f,blue,602053cceadd2f6616479d74,2021-09-27_17h13.43.334,forced_choiceRT_color,2021.2.3,MacIntel,59.99520038,,,,,,,,7,Slow,short,f,1,2.2211,6,0,24,1,1,,,,,
,0.31,,,,,,,,,j,red,602053cceadd2f6616479d74,2021-09-27_17h13.43.334,forced_choiceRT_color,2021.2.3,MacIntel,59.99520038,,,,,,,,7,Fast,short,j,1,1.8219,6,1,25,2,1,,,,,
,0.41,,,,,,,,,f,blue,602053cceadd2f6616479d74,2021-09-27_17h13.43.334,forced_choiceRT_color,2021.2.3,MacIntel,59.99520038,,,,,,,,7,Slow,short,f,1,2.9233,6,2,26,1,1,,,,,
,1.53,,,,,,,,,d,orange,602053cceadd2f6616479d74,2021-09-27_17h13.43.334,forced_choiceRT_color,2021.2.3,MacIntel,59.99520038,,,,,,,,7,Slow,short,d,1,2.6267,6,3,27,0,1,,,,,
,1.72,,,,,,,,,k,purple,602053cceadd2f6616479d74,2021-09-27_17h13.43.334,forced_choiceRT_color,2021.2.3,MacIntel,59.99520038,,,,,,,,7,Slow,short,f,0,2.1111,7,0,28,3,1,,,,,
,0.27,,,,,,,,,d,orange,602053cceadd2f6616479d74,2021-09-27_17h13.43.334,forced_choiceRT_color,2021.2.3,MacIntel,59.99520038,,,,,,,,7,Fast,short,d,1,1.8669,7,1,29,0,1,,,,,
,0.51,,,,,,,,,f,blue,602053cceadd2f6616479d74,2021-09-27_17h13.43.334,forced_choiceRT_color,2021.2.3,MacIntel,59.99520038,,,,,,,,7,Ontime,short,f,1,2.019,7,2,30,1,1,,,,,
,0.93,,,,,,,,,j,red,602053cceadd2f6616479d74,2021-09-27_17h13.43.334,forced_choiceRT_color,2021.2.3,MacIntel,59.99520038,,,,,,,,7,Slow,short,j,1,2.2307,7,3,31,2,1,,,,,
,0.27,,,,,,,,,k,purple,602053cceadd2f6616479d74,2021-09-27_17h13.43.334,forced_choiceRT_color,2021.2.3,MacIntel,59.99520038,,,,,,,,7,Fast,short,k,1,1.7664,8,0,32,3,1,,,,,
,1.36,,,,,,,,,f,blue,602053cceadd2f6616479d74,2021-09-27_17h13.43.334,forced_choiceRT_color,2021.2.3,MacIntel,59.99520038,,,,,,,,7,Ontime,short,d,0,1.9608,8,1,33,1,1,,,,,
,1.65,,,,,,,,,f,blue,602053cceadd2f6616479d74,2021-09-27_17h13.43.334,forced_choiceRT_color,2021.2.3,MacIntel,59.99520038,,,,,,,,7,Fast,short,f,1,0.4338,8,2,34,1,1,,,,,
,1.78,,,,,,,,,d,orange,602053cceadd2f6616479d74,2021-09-27_17h13.43.334,forced_choiceRT_color,2021.2.3,MacIntel,59.99520038,,,,,,,,7,Slow,short,f,0,3.0728,8,3,35,0,1,,,,,
,0.84,,,,,,,,,f,blue,602053cceadd2f6616479d74,2021-09-27_17h13.43.334,forced_choiceRT_color,2021.2.3,MacIntel,59.99520038,,,,,,,,7,Slow,short,j,0,3.1093,9,0,36,1,1,,,,,
,1.77,,,,,,,,,j,red,602053cceadd2f6616479d74,2021-09-27_17h13.43.334,forced_choiceRT_color,2021.2.3,MacIntel,59.99520038,,,,,,,,7,Slow,short,k,0,2.1612,9,1,37,2,1,,,,,
,0.94,,,,,,,,,j,red,602053cceadd2f6616479d74,2021-09-27_17h13.43.334,forced_choiceRT_color,2021.2.3,MacIntel,59.99520038,,,,,,,,7,Slow,short,f,0,2.3184,9,2,38,2,1,,,,,
,1.06,,,,,,,,,k,purple,602053cceadd2f6616479d74,2021-09-27_17h13.43.334,forced_choiceRT_color,2021.2.3,MacIntel,59.99520038,,,,,,,,7,Slow,short,k,1,3.0089,9,3,39,3,1,,,,,
,,,,,,,,,,,,602053cceadd2f6616479d74,2021-09-27_17h13.43.334,forced_choiceRT_color,2021.2.3,MacIntel,59.99520038,,,,,,,,,,,,,,,,,,,6,0,6,0,1
,1.35,,,,,,,,,k,purple,602053cceadd2f6616479d74,2021-09-27_17h13.43.334,forced_choiceRT_color,2021.2.3,MacIntel,59.99520038,,,,,,,,8,Slow,short,k,1,3.7218,0,0,0,3,1,,,,,
,1.32,,,,,,,,,j,red,602053cceadd2f6616479d74,2021-09-27_17h13.43.334,forced_choiceRT_color,2021.2.3,MacIntel,59.99520038,,,,,,,,8,Ontime,short,k,0,2.0651,0,1,1,2,1,,,,,
,1.81,,,,,,,,,k,purple,602053cceadd2f6616479d74,2021-09-27_17h13.43.334,forced_choiceRT_color,2021.2.3,MacIntel,59.99520038,,,,,,,,8,Slow,short,j,0,2.1341,0,2,2,3,1,,,,,
,0.98,,,,,,,,,f,blue,602053cceadd2f6616479d74,2021-09-27_17h13.43.334,forced_choiceRT_color,2021.2.3,MacIntel,59.99520038,,,,,,,,8,Ontime,short,j,0,1.9863,0,3,3,1,1,,,,,
,1.55,,,,,,,,,f,blue,602053cceadd2f6616479d74,2021-09-27_17h13.43.334,forced_choiceRT_color,2021.2.3,MacIntel,59.99520038,,,,,,,,8,Fast,short,j,0,0.0497,1,0,4,1,1,,,,,
,0.21,,,,,,,,,d,orange,602053cceadd2f6616479d74,2021-09-27_17h13.43.334,forced_choiceRT_color,2021.2.3,MacIntel,59.99520038,,,,,,,,8,Fast,short,d,1,1.7868,1,1,5,0,1,,,,,
,0.63,,,,,,,,,k,purple,602053cceadd2f6616479d74,2021-09-27_17h13.43.334,forced_choiceRT_color,2021.2.3,MacIntel,59.99520038,,,,,,,,8,Slow,short,k,1,2.334,1,2,6,3,1,,,,,
,0.33,,,,,,,,,d,orange,602053cceadd2f6616479d74,2021-09-27_17h13.43.334,forced_choiceRT_color,2021.2.3,MacIntel,59.99520038,,,,,,,,8,Fast,short,d,1,1.8277,1,3,7,0,1,,,,,
,0.05,,,,,,,,,d,orange,602053cceadd2f6616479d74,2021-09-27_17h13.43.334,forced_choiceRT_color,2021.2.3,MacIntel,59.99520038,,,,,,,,8,Slow,short,d,1,3.5709,2,0,8,0,1,,,,,
,0.11,,,,,,,,,j,red,602053cceadd2f6616479d74,2021-09-27_17h13.43.334,forced_choiceRT_color,2021.2.3,MacIntel,59.99520038,,,,,,,,8,Fast,short,f,0,1.6953,2,1,9,2,1,,,,,
,1.24,,,,,,,,,d,orange,602053cceadd2f6616479d74,2021-09-27_17h13.43.334,forced_choiceRT_color,2021.2.3,MacIntel,59.99520038,,,,,,,,8,Slow,short,f,0,2.1166,2,2,10,0,1,,,,,
,0.53,,,,,,,,,j,red,602053cceadd2f6616479d74,2021-09-27_17h13.43.334,forced_choiceRT_color,2021.2.3,MacIntel,59.99520038,,,,,,,,8,Slow,short,j,1,2.1719,2,3,11,2,1,,,,,
,0.35,,,,,,,,,j,red,602053cceadd2f6616479d74,2021-09-27_17h13.43.334,forced_choiceRT_color,2021.2.3,MacIntel,59.99520038,,,,,,,,8,Fast,short,j,1,1.8289,3,0,12,2,1,,,,,
,1.92,,,,,,,,,d,orange,602053cceadd2f6616479d74,2021-09-27_17h13.43.334,forced_choiceRT_color,2021.2.3,MacIntel,59.99520038,,,,,,,,8,Ontime,short,j,0,1.9847,3,1,13,0,1,,,,,
,0.58,,,,,,,,,k,purple,602053cceadd2f6616479d74,2021-09-27_17h13.43.334,forced_choiceRT_color,2021.2.3,MacIntel,59.99520038,,,,,,,,8,Slow,short,j,0,2.4977,3,2,14,3,1,,,,,
,1.76,,,,,,,,,j,red,602053cceadd2f6616479d74,2021-09-27_17h13.43.334,forced_choiceRT_color,2021.2.3,MacIntel,59.99520038,,,,,,,,8,Ontime,short,k,0,1.9969,3,3,15,2,1,,,,,
,1.82,,,,,,,,,j,red,602053cceadd2f6616479d74,2021-09-27_17h13.43.334,forced_choiceRT_color,2021.2.3,MacIntel,59.99520038,,,,,,,,8,Slow,short,d,0,2.3009,4,0,16,2,1,,,,,
,0.31,,,,,,,,,d,orange,602053cceadd2f6616479d74,2021-09-27_17h13.43.334,forced_choiceRT_color,2021.2.3,MacIntel,59.99520038,,,,,,,,8,Ontime,short,d,1,1.9016,4,1,17,0,1,,,,,
,0.19,,,,,,,,,f,blue,602053cceadd2f6616479d74,2021-09-27_17h13.43.334,forced_choiceRT_color,2021.2.3,MacIntel,59.99520038,,,,,,,,8,Ontime,short,f,1,2.0645,4,2,18,1,1,,,,,
,1.03,,,,,,,,,j,red,602053cceadd2f6616479d74,2021-09-27_17h13.43.334,forced_choiceRT_color,2021.2.3,MacIntel,59.99520038,,,,,,,,8,Slow,short,f,0,2.2177,4,3,19,2,1,,,,,
,1.43,,,,,,,,,k,purple,602053cceadd2f6616479d74,2021-09-27_17h13.43.334,forced_choiceRT_color,2021.2.3,MacIntel,59.99520038,,,,,,,,8,Ontime,short,j,0,1.9048,5,0,20,3,1,,,,,
,0.56,,,,,,,,,k,purple,602053cceadd2f6616479d74,2021-09-27_17h13.43.334,forced_choiceRT_color,2021.2.3,MacIntel,59.99520038,,,,,,,,8,Slow,short,k,1,2.8834,5,1,21,3,1,,,,,
,1.03,,,,,,,,,k,purple,602053cceadd2f6616479d74,2021-09-27_17h13.43.334,forced_choiceRT_color,2021.2.3,MacIntel,59.99520038,,,,,,,,8,Slow,short,k,1,2.1104,5,2,22,3,1,,,,,
,1.82,,,,,,,,,k,purple,602053cceadd2f6616479d74,2021-09-27_17h13.43.334,forced_choiceRT_color,2021.2.3,MacIntel,59.99520038,,,,,,,,8,Fast,short,k,1,1.8668,5,3,23,3,1,,,,,
,1.69,,,,,,,,,j,red,602053cceadd2f6616479d74,2021-09-27_17h13.43.334,forced_choiceRT_color,2021.2.3,MacIntel,59.99520038,,,,,,,,8,Fast,short,j,1,1.7055,6,0,24,2,1,,,,,
,1.51,,,,,,,,,f,blue,602053cceadd2f6616479d74,2021-09-27_17h13.43.334,forced_choiceRT_color,2021.2.3,MacIntel,59.99520038,,,,,,,,8,Ontime,short,d,0,1.9821,6,1,25,1,1,,,,,
,1.79,,,,,,,,,k,purple,602053cceadd2f6616479d74,2021-09-27_17h13.43.334,forced_choiceRT_color,2021.2.3,MacIntel,59.99520038,,,,,,,,8,Slow,short,d,0,2.1325,6,2,26,3,1,,,,,
,1.76,,,,,,,,,f,blue,602053cceadd2f6616479d74,2021-09-27_17h13.43.334,forced_choiceRT_color,2021.2.3,MacIntel,59.99520038,,,,,,,,8,Ontime,short,d,0,2.0016,6,3,27,1,1,,,,,
,0.89,,,,,,,,,k,purple,602053cceadd2f6616479d74,2021-09-27_17h13.43.334,forced_choiceRT_color,2021.2.3,MacIntel,59.99520038,,,,,,,,8,Ontime,short,d,0,2.0187,7,0,28,3,1,,,,,
,1.82,,,,,,,,,j,red,602053cceadd2f6616479d74,2021-09-27_17h13.43.334,forced_choiceRT_color,2021.2.3,MacIntel,59.99520038,,,,,,,,8,Ontime,short,f,0,2.0672,7,1,29,2,1,,,,,
,1.97,,,,,,,,,f,blue,602053cceadd2f6616479d74,2021-09-27_17h13.43.334,forced_choiceRT_color,2021.2.3,MacIntel,59.99520038,,,,,,,,8,Slow,short,j,0,2.2339,7,2,30,1,1,,,,,
,0.77,,,,,,,,,f,blue,602053cceadd2f6616479d74,2021-09-27_17h13.43.334,forced_choiceRT_color,2021.2.3,MacIntel,59.99520038,,,,,,,,8,Fast,short,k,0,1.7674,7,3,31,1,1,,,,,
,0.41,,,,,,,,,d,orange,602053cceadd2f6616479d74,2021-09-27_17h13.43.334,forced_choiceRT_color,2021.2.3,MacIntel,59.99520038,,,,,,,,8,Ontime,short,k,0,1.9482,8,0,32,0,1,,,,,
,0.17,,,,,,,,,f,blue,602053cceadd2f6616479d74,2021-09-27_17h13.43.334,forced_choiceRT_color,2021.2.3,MacIntel,59.99520038,,,,,,,,8,Ontime,short,j,0,2.0492,8,1,33,1,1,,,,,
,0.05,,,,,,,,,d,orange,602053cceadd2f6616479d74,2021-09-27_17h13.43.334,forced_choiceRT_color,2021.2.3,MacIntel,59.99520038,,,,,,,,8,Ontime,short,k,0,1.9322,8,2,34,0,1,,,,,
,0.5,,,,,,,,,f,blue,602053cceadd2f6616479d74,2021-09-27_17h13.43.334,forced_choiceRT_color,2021.2.3,MacIntel,59.99520038,,,,,,,,8,Fast,short,j,0,1.7845,8,3,35,1,1,,,,,
,1.13,,,,,,,,,d,orange,602053cceadd2f6616479d74,2021-09-27_17h13.43.334,forced_choiceRT_color,2021.2.3,MacIntel,59.99520038,,,,,,,,8,Fast,short,f,0,1.7833,9,0,36,0,1,,,,,
,1.09,,,,,,,,,j,red,602053cceadd2f6616479d74,2021-09-27_17h13.43.334,forced_choiceRT_color,2021.2.3,MacIntel,59.99520038,,,,,,,,8,Ontime,short,f,0,1.9037,9,1,37,2,1,,,,,
,0.42,,,,,,,,,d,orange,602053cceadd2f6616479d74,2021-09-27_17h13.43.334,forced_choiceRT_color,2021.2.3,MacIntel,59.99520038,,,,,,,,8,Slow,short,d,1,2.1004,9,2,38,0,1,,,,,
,0.63,,,,,,,,,f,blue,602053cceadd2f6616479d74,2021-09-27_17h13.43.334,forced_choiceRT_color,2021.2.3,MacIntel,59.99520038,,,,,,,,8,Ontime,short,f,1,1.9609,9,3,39,1,1,,,,,
,,,,,,,,,,,,602053cceadd2f6616479d74,2021-09-27_17h13.43.334,forced_choiceRT_color,2021.2.3,MacIntel,59.99520038,,,,,,,,,,,,,,,,,,,7,0,7,0,1
,1.42,,,,,,,,,f,blue,602053cceadd2f6616479d74,2021-09-27_17h13.43.334,forced_choiceRT_color,2021.2.3,MacIntel,59.99520038,,,,,,,,9,Slow,short,f,1,2.2743,0,0,0,1,1,,,,,
,1.66,,,,,,,,,j,red,602053cceadd2f6616479d74,2021-09-27_17h13.43.334,forced_choiceRT_color,2021.2.3,MacIntel,59.99520038,,,,,,,,9,Slow,short,j,1,3.2169,0,1,1,2,1,,,,,
,1.46,,,,,,,,,f,blue,602053cceadd2f6616479d74,2021-09-27_17h13.43.334,forced_choiceRT_color,2021.2.3,MacIntel,59.99520038,,,,,,,,9,Ontime,short,j,0,2.047,0,2,2,1,1,,,,,
,1.46,,,,,,,,,d,orange,602053cceadd2f6616479d74,2021-09-27_17h13.43.334,forced_choiceRT_color,2021.2.3,MacIntel,59.99520038,,,,,,,,9,Slow,short,k,0,2.1878,0,3,3,0,1,,,,,
,1.74,,,,,,,,,j,red,602053cceadd2f6616479d74,2021-09-27_17h13.43.334,forced_choiceRT_color,2021.2.3,MacIntel,59.99520038,,,,,,,,9,Fast,short,d,0,1.538,1,0,4,2,1,,,,,
,0.73,,,,,,,,,k,purple,602053cceadd2f6616479d74,2021-09-27_17h13.43.334,forced_choiceRT_color,2021.2.3,MacIntel,59.99520038,,,,,,,,9,Slow,short,k,1,2.2402,1,1,5,3,1,,,,,
,1.9,,,,,,,,,d,orange,602053cceadd2f6616479d74,2021-09-27_17h13.43.334,forced_choiceRT_color,2021.2.3,MacIntel,59.99520038,,,,,,,,9,Ontime,short,j,0,1.9807,1,2,6,0,1,,,,,
,1.22,,,,,,,,,j,red,602053cceadd2f6616479d74,2021-09-27_17h13.43.334,forced_choiceRT_color,2021.2.3,MacIntel,59.99520038,,,,,,,,9,Slow,short,j,1,2.1836,1,3,7,2,1,,,,,
,0.28,,,,,,,,,f,blue,602053cceadd2f6616479d74,2021-09-27_17h13.43.334,forced_choiceRT_color,2021.2.3,MacIntel,59.99520038,,,,,,,,9,Fast,short,f,1,1.6367,2,0,8,1,1,,,,,
,1.62,,,,,,,,,f,blue,602053cceadd2f6616479d74,2021-09-27_17h13.43.334,forced_choiceRT_color,2021.2.3,MacIntel,59.99520038,,,,,,,,9,Fast,short,f,1,1.7506,2,1,9,1,1,,,,,
,1.96,,,,,,,,,k,purple,602053cceadd2f6616479d74,2021-09-27_17h13.43.334,forced_choiceRT_color,2021.2.3,MacIntel,59.99520038,,,,,,,,9,Ontime,short,j,0,1.9511,2,2,10,3,1,,,,,
,1.53,,,,,,,,,d,orange,602053cceadd2f6616479d74,2021-09-27_17h13.43.334,forced_choiceRT_color,2021.2.3,MacIntel,59.99520038,,,,,,,,9,Slow,short,k,0,2.2364,2,3,11,0,1,,,,,
,0.62,,,,,,,,,j,red,602053cceadd2f6616479d74,2021-09-27_17h13.43.334,forced_choiceRT_color,2021.2.3,MacIntel,59.99520038,,,,,,,,9,Slow,short,f,0,2.434,3,0,12,2,1,,,,,
,0.08,,,,,,,,,k,purple,602053cceadd2f6616479d74,2021-09-27_17h13.43.334,forced_choiceRT_color,2021.2.3,MacIntel,59.99520038,,,,,,,,9,Fast,short,k,1,1.8118,3,1,13,3,1,,,,,
,1.03,,,,,,,,,j,red,602053cceadd2f6616479d74,2021-09-27_17h13.43.334,forced_choiceRT_color,2021.2.3,MacIntel,59.99520038,,,,,,,,9,Slow,short,d,0,2.3813,3,2,14,2,1,,,,,
,0.58,,,,,,,,,d,orange,602053cceadd2f6616479d74,2021-09-27_17h13.43.334,forced_choiceRT_color,2021.2.3,MacIntel,59.99520038,,,,,,,,9,Ontime,short,d,1,1.9933,3,3,15,0,1,,,,,
,0.09,,,,,,,,,f,blue,602053cceadd2f6616479d74,2021-09-27_17h13.43.334,forced_choiceRT_color,2021.2.3,MacIntel,59.99520038,,,,,,,,9,Ontime,short,f,1,2.0181,4,0,16,1,1,,,,,
,1.35,,,,,,,,,f,blue,602053cceadd2f6616479d74,2021-09-27_17h13.43.334,forced_choiceRT_color,2021.2.3,MacIntel,59.99520038,,,,,,,,9,Ontime,short,j,0,1.9824,4,1,17,1,1,,,,,
,0.01,,,,,,,,,k,purple,602053cceadd2f6616479d74,2021-09-27_17h13.43.334,forced_choiceRT_color,2021.2.3,MacIntel,59.99520038,,,,,,,,9,Fast,short,k,1,1.8344,4,2,18,3,1,,,,,
,1.79,,,,,,,,,d,orange,602053cceadd2f6616479d74,2021-09-27_17h13.43.334,forced_choiceRT_color,2021.2.3,MacIntel,59.99520038,,,,,,,,9,Slow,short,d,1,3.3693,4,3,19,0,1,,,,,
,0.81,,,,,,,,,k,purple,602053cceadd2f6616479d74,2021-09-27_17h13.43.334,forced_choiceRT_color,2021.2.3,MacIntel,59.99520038,,,,,,,,9,Slow,short,k,1,2.1617,5,0,20,3,1,,,,,
,1.94,,,,,,,,,j,red,602053cceadd2f6616479d74,2021-09-27_17h13.43.334,forced_choiceRT_color,2021.2.3,MacIntel,59.99520038,,,,,,,,9,Ontime,short,j,1,1.969,5,1,21,2,1,,,,,
,1.72,,,,,,,,,k,purple,602053cceadd2f6616479d74,2021-09-27_17h13.43.334,forced_choiceRT_color,2021.2.3,MacIntel,59.99520038,,,,,,,,9,Slow,short,j,0,2.1523,5,2,22,3,1,,,,,
,1.37,,,,,,,,,f,blue,602053cceadd2f6616479d74,2021-09-27_17h13.43.334,forced_choiceRT_color,2021.2.3,MacIntel,59.99520038,,,,,,,,9,Fast,short,j,0,1.7713,5,3,23,1,1,,,,,
,0.96,,,,,,,,,k,purple,602053cceadd2f6616479d74,2021-09-27_17h13.43.334,forced_choiceRT_color,2021.2.3,MacIntel,59.99520038,,,,,,,,9,Fast,short,j,0,1.7626,6,0,24,3,1,,,,,
,0.17,,,,,,,,,d,orange,602053cceadd2f6616479d74,2021-09-27_17h13.43.334,forced_choiceRT_color,2021.2.3,MacIntel,59.99520038,,,,,,,,9,Fast,short,d,1,1.681,6,1,25,0,1,,,,,
,0.27,,,,,,,,,d,orange,602053cceadd2f6616479d74,2021-09-27_17h13.43.334,forced_choiceRT_color,2021.2.3,MacIntel,59.99520038,,,,,,,,9,Fast,short,d,1,1.8005,6,2,26,0,1,,,,,
,0.33,,,,,,,,,k,purple,602053cceadd2f6616479d74,2021-09-27_17h13.43.334,forced_choiceRT_color,2021.2.3,MacIntel,59.99520038,,,,,,,,9,Fast,short,k,1,1.8912,6,3,27,3,1,,,,,
,0.98,,,,,,,,,k,purple,602053cceadd2f6616479d74,2021-09-27_17h13.43.334,forced_choiceRT_color,2021.2.3,MacIntel,59.99520038,,,,,,,,9,Ontime,short,k,1,2.0028,7,0,28,3,1,,,,,
,0.2,,,,,,,,,d,orange,602053cceadd2f6616479d74,2021-09-27_17h13.43.334,forced_choiceRT_color,2021.2.3,MacIntel,59.99520038,,,,,,,,9,Ontime,short,d,1,1.9645,7,1,29,0,1,,,,,
,0.55,,,,,,,,,j,red,602053cceadd2f6616479d74,2021-09-27_17h13.43.334,forced_choiceRT_color,2021.2.3,MacIntel,59.99520038,,,,,,,,9,Ontime,short,f,0,2.0684,7,2,30,2,1,,,,,
,1.86,,,,,,,,,k,purple,602053cceadd2f6616479d74,2021-09-27_17h13.43.334,forced_choiceRT_color,2021.2.3,MacIntel,59.99520038,,,,,,,,9,Ontime,short,j,0,1.9848,7,3,31,3,1,,,,,
,0.77,,,,,,,,,d,orange,602053cceadd2f6616479d74,2021-09-27_17h13.43.334,forced_choiceRT_color,2021.2.3,MacIntel,59.99520038,,,,,,,,9,Ontime,short,d,1,2.0873,8,0,32,0,1,,,,,
,0.88,,,,,,,,,f,blue,602053cceadd2f6616479d74,2021-09-27_17h13.43.334,forced_choiceRT_color,2021.2.3,MacIntel,59.99520038,,,,,,,,9,Fast,short,d,0,0.2834,8,1,33,1,1,,,,,
,1.55,,,,,,,,,j,red,602053cceadd2f6616479d74,2021-09-27_17h13.43.334,forced_choiceRT_color,2021.2.3,MacIntel,59.99520038,,,,,,,,9,Ontime,short,d,0,1.9508,8,2,34,2,1,,,,,
,0.3,,,,,,,,,j,red,602053cceadd2f6616479d74,2021-09-27_17h13.43.334,forced_choiceRT_color,2021.2.3,MacIntel,59.99520038,,,,,,,,9,Ontime,short,j,1,2.0992,8,3,35,2,1,,,,,
,1.67,,,,,,,,,f,blue,602053cceadd2f6616479d74,2021-09-27_17h13.43.334,forced_choiceRT_color,2021.2.3,MacIntel,59.99520038,,,,,,,,9,Slow,short,k,0,2.2329,9,0,36,1,1,,,,,
,0.26,,,,,,,,,j,red,602053cceadd2f6616479d74,2021-09-27_17h13.43.334,forced_choiceRT_color,2021.2.3,MacIntel,59.99520038,,,,,,,,9,Fast,short,j,1,1.4707,9,1,37,2,1,,,,,
,0.33,,,,,,,,,d,orange,602053cceadd2f6616479d74,2021-09-27_17h13.43.334,forced_choiceRT_color,2021.2.3,MacIntel,59.99520038,,,,,,,,9,Slow,short,d,1,2.3686,9,2,38,0,1,,,,,
,0.48,,,,,,,,,f,blue,602053cceadd2f6616479d74,2021-09-27_17h13.43.334,forced_choiceRT_color,2021.2.3,MacIntel,59.99520038,,,,,,,,9,Fast,short,f,1,1.7598,9,3,39,1,1,,,,,
,,,,,,,,,,,,602053cceadd2f6616479d74,2021-09-27_17h13.43.334,forced_choiceRT_color,2021.2.3,MacIntel,59.99520038,,,,,,,,,,,,,,,,,,,8,0,8,0,1
,0.47,,,,,,,,,f,blue,602053cceadd2f6616479d74,2021-09-27_17h13.43.334,forced_choiceRT_color,2021.2.3,MacIntel,59.99520038,,,,,,,,10,Ontime,short,f,1,2.0239,0,0,0,1,1,,,,,
,0.6,,,,,,,,,d,orange,602053cceadd2f6616479d74,2021-09-27_17h13.43.334,forced_choiceRT_color,2021.2.3,MacIntel,59.99520038,,,,,,,,10,Slow,short,d,1,2.3331,0,1,1,0,1,,,,,
,0.17,,,,,,,,,j,red,602053cceadd2f6616479d74,2021-09-27_17h13.43.334,forced_choiceRT_color,2021.2.3,MacIntel,59.99520038,,,,,,,,10,Fast,short,j,1,1.6174,0,2,2,2,1,,,,,
,1.06,,,,,,,,,k,purple,602053cceadd2f6616479d74,2021-09-27_17h13.43.334,forced_choiceRT_color,2021.2.3,MacIntel,59.99520038,,,,,,,,10,Slow,short,f,0,3.6193,0,3,3,3,1,,,,,
,1.22,,,,,,,,,j,red,602053cceadd2f6616479d74,2021-09-27_17h13.43.334,forced_choiceRT_color,2021.2.3,MacIntel,59.99520038,,,,,,,,10,Fast,short,k,0,0.125,1,0,4,2,1,,,,,
,1.53,,,,,,,,,j,red,602053cceadd2f6616479d74,2021-09-27_17h13.43.334,forced_choiceRT_color,2021.2.3,MacIntel,59.99520038,,,,,,,,10,Ontime,short,k,0,1.9503,1,1,5,2,1,,,,,
,1.51,,,,,,,,,j,red,602053cceadd2f6616479d74,2021-09-27_17h13.43.334,forced_choiceRT_color,2021.2.3,MacIntel,59.99520038,,,,,,,,10,Slow,short,f,0,2.8161,1,2,6,2,1,,,,,
,0.37,,,,,,,,,k,purple,602053cceadd2f6616479d74,2021-09-27_17h13.43.334,forced_choiceRT_color,2021.2.3,MacIntel,59.99520038,,,,,,,,10,Fast,short,k,1,1.8331,1,3,7,3,1,,,,,
,1.2,,,,,,,,,d,orange,602053cceadd2f6616479d74,2021-09-27_17h13.43.334,forced_choiceRT_color,2021.2.3,MacIntel,59.99520038,,,,,,,,10,Ontime,short,k,0,1.901,2,0,8,0,1,,,,,
,0.74,,,,,,,,,k,purple,602053cceadd2f6616479d74,2021-09-27_17h13.43.334,forced_choiceRT_color,2021.2.3,MacIntel,59.99520038,,,,,,,,10,Slow,short,k,1,2.2163,2,1,9,3,1,,,,,
,1.63,,,,,,,,,d,orange,602053cceadd2f6616479d74,2021-09-27_17h13.43.334,forced_choiceRT_color,2021.2.3,MacIntel,59.99520038,,,,,,,,10,Fast,short,j,0,1.6473,2,2,10,0,1,,,,,
,1.21,,,,,,,,,k,purple,602053cceadd2f6616479d74,2021-09-27_17h13.43.334,forced_choiceRT_color,2021.2.3,MacIntel,59.99520038,,,,,,,,10,Fast,short,j,0,1.8512,2,3,11,3,1,,,,,
,1.73,,,,,,,,,k,purple,602053cceadd2f6616479d74,2021-09-27_17h13.43.334,forced_choiceRT_color,2021.2.3,MacIntel,59.99520038,,,,,,,,10,Ontime,short,k,1,1.9554,3,0,12,3,1,,,,,
,1.95,,,,,,,,,k,purple,602053cceadd2f6616479d74,2021-09-27_17h13.43.334,forced_choiceRT_color,2021.2.3,MacIntel,59.99520038,,,,,,,,10,Slow,short,d,0,2.4842,3,1,13,3,1,,,,,
,1.4,,,,,,,,,f,blue,602053cceadd2f6616479d74,2021-09-27_17h13.43.334,forced_choiceRT_color,2021.2.3,MacIntel,59.99520038,,,,,,,,10,Fast,short,k,0,0.0112,3,2,14,1,1,,,,,
,0.51,,,,,,,,,j,red,602053cceadd2f6616479d74,2021-09-27_17h13.43.334,forced_choiceRT_color,2021.2.3,MacIntel,59.99520038,,,,,,,,10,Fast,short,j,1,0.232,3,3,15,2,1,,,,,
,1.75,,,,,,,,,f,blue,602053cceadd2f6616479d74,2021-09-27_17h13.43.334,forced_choiceRT_color,2021.2.3,MacIntel,59.99520038,,,,,,,,10,Slow,short,j,0,3.7046,4,0,16,1,1,,,,,
,0.37,,,,,,,,,f,blue,602053cceadd2f6616479d74,2021-09-27_17h13.43.334,forced_choiceRT_color,2021.2.3,MacIntel,59.99520038,,,,,,,,10,Fast,short,j,0,1.6798,4,1,17,1,1,,,,,
,1.56,,,,,,,,,f,blue,602053cceadd2f6616479d74,2021-09-27_17h13.43.334,forced_choiceRT_color,2021.2.3,MacIntel,59.99520038,,,,,,,,10,Ontime,short,j,0,1.9058,4,2,18,1,1,,,,,
,1.15,,,,,,,,,j,red,602053cceadd2f6616479d74,2021-09-27_17h13.43.334,forced_choiceRT_color,2021.2.3,MacIntel,59.99520038,,,,,,,,10,Slow,short,f,0,2.2994,4,3,19,2,1,,,,,
,1.92,,,,,,,,,f,blue,602053cceadd2f6616479d74,2021-09-27_17h13.43.334,forced_choiceRT_color,2021.2.3,MacIntel,59.99520038,,,,,,,,10,Slow,short,f,1,4.114,5,0,20,1,1,,,,,
,0.23,,,,,,,,,d,orange,602053cceadd2f6616479d74,2021-09-27_17h13.43.334,forced_choiceRT_color,2021.2.3,MacIntel,59.99520038,,,,,,,,10,Ontime,short,d,1,2.0608,5,1,21,0,1,,,,,
,0.12,,,,,,,,,k,purple,602053cceadd2f6616479d74,2021-09-27_17h13.43.334,forced_choiceRT_color,2021.2.3,MacIntel,59.99520038,,,,,,,,10,Fast,short,k,1,1.8332,5,2,22,3,1,,,,,
,1.92,,,,,,,,,f,blue,602053cceadd2f6616479d74,2021-09-27_17h13.43.334,forced_choiceRT_color,2021.2.3,MacIntel,59.99520038,,,,,,,,10,Ontime,short,j,0,1.967,5,3,23,1,1,,,,,
,0.48,,,,,,,,,k,purple,602053cceadd2f6616479d74,2021-09-27_17h13.43.334,forced_choiceRT_color,2021.2.3,MacIntel,59.99520038,,,,,,,,10,Ontime,short,k,1,2.081,6,0,24,3,1,,,,,
,0.25,,,,,,,,,f,blue,602053cceadd2f6616479d74,2021-09-27_17h13.43.334,forced_choiceRT_color,2021.2.3,MacIntel,59.99520038,,,,,,,,10,Fast,short,j,0,1.6871,6,1,25,1,1,,,,,
,1.98,,,,,,,,,d,orange,602053cceadd2f6616479d74,2021-09-27_17h13.43.334,forced_choiceRT_color,2021.2.3,MacIntel,59.99520038,,,,,,,,10,Fast,short,j,0,1.8774,6,2,26,0,1,,,,,
,1.82,,,,,,,,,f,blue,602053cceadd2f6616479d74,2021-09-27_17h13.43.334,forced_choiceRT_color,2021.2.3,MacIntel,59.99520038,,,,,,,,10,Fast,short,f,1,1.7004,6,3,27,1,1,,,,,
,0.66,,,,,,,,,d,orange,602053cceadd2f6616479d74,2021-09-27_17h13.43.334,forced_choiceRT_color,2021.2.3,MacIntel,59.99520038,,,,,,,,10,Fast,short,d,1,1.7176,7,0,28,0,1,,,,,
,1.53,,,,,,,,,j,red,602053cceadd2f6616479d74,2021-09-27_17h13.43.334,forced_choiceRT_color,2021.2.3,MacIntel,59.99520038,,,,,,,,10,Fast,short,f,0,1.8859,7,1,29,2,1,,,,,
,0.35,,,,,,,,,d,orange,602053cceadd2f6616479d74,2021-09-27_17h13.43.334,forced_choiceRT_color,2021.2.3,MacIntel,59.99520038,,,,,,,,10,Fast,short,d,1,1.7165,7,2,30,0,1,,,,,
,1.05,,,,,,,,,j,red,602053cceadd2f6616479d74,2021-09-27_17h13.43.334,forced_choiceRT_color,2021.2.3,MacIntel,59.99520038,,,,,,,,10,Ontime,short,f,0,1.9662,7,3,31,2,1,,,,,
,1.15,,,,,,,,,f,blue,602053cceadd2f6616479d74,2021-09-27_17h13.43.334,forced_choiceRT_color,2021.2.3,MacIntel,59.99520038,,,,,,,,10,Fast,short,j,0,1.8727,8,0,32,1,1,,,,,
,1.4,,,,,,,,,d,orange,602053cceadd2f6616479d74,2021-09-27_17h13.43.334,forced_choiceRT_color,2021.2.3,MacIntel,59.99520038,,,,,,,,10,Fast,short,j,0,1.6835,8,1,33,0,1,,,,,
,0.48,,,,,,,,,d,orange,602053cceadd2f6616479d74,2021-09-27_17h13.43.334,forced_choiceRT_color,2021.2.3,MacIntel,59.99520038,,,,,,,,10,Fast,short,k,0,1.7007,8,2,34,0,1,,,,,
,1.74,,,,,,,,,j,red,602053cceadd2f6616479d74,2021-09-27_17h13.43.334,forced_choiceRT_color,2021.2.3,MacIntel,59.99520038,,,,,,,,10,Ontime,short,k,0,2.0021,8,3,35,2,1,,,,,
,1.57,,,,,,,,,k,purple,602053cceadd2f6616479d74,2021-09-27_17h13.43.334,forced_choiceRT_color,2021.2.3,MacIntel,59.99520038,,,,,,,,10,Slow,short,j,0,2.3031,9,0,36,3,1,,,,,
,0.5,,,,,,,,,k,purple,602053cceadd2f6616479d74,2021-09-27_17h13.43.334,forced_choiceRT_color,2021.2.3,MacIntel,59.99520038,,,,,,,,10,Fast,short,k,1,1.7883,9,1,37,3,1,,,,,
,1.17,,,,,,,,,d,orange,602053cceadd2f6616479d74,2021-09-27_17h13.43.334,forced_choiceRT_color,2021.2.3,MacIntel,59.99520038,,,,,,,,10,Slow,short,d,1,2.7857,9,2,38,0,1,,,,,
,0.08,,,,,,,,,j,red,602053cceadd2f6616479d74,2021-09-27_17h13.43.334,forced_choiceRT_color,2021.2.3,MacIntel,59.99520038,,,,,,,,10,Ontime,short,j,1,2.0759,9,3,39,2,1,,,,,
,,,,,,,,,,,,602053cceadd2f6616479d74,2021-09-27_17h13.43.334,forced_choiceRT_color,2021.2.3,MacIntel,59.99520038,,,,,,,,,,,,,,,,,,,9,0,9,0,1
