IP_Addresss,target_onset,trial_resp_sp.keys,trial_resp_sp.corr,trial_resp_sp.rt,trials_train_loop.thisRepN,trials_train_loop.thisTrialN,trials_train_loop.thisN,trials_train_loop.thisIndex,trials_train_loop.ran,correct_key,color,participant,date,expName,psychopyVersion,OS,frameRate,trial_resp_timing.keys,trial_resp_timing.rt,trials_train_timing.thisRepN,trials_train_timing.thisTrialN,trials_train_timing.thisN,trials_train_timing.thisIndex,trials_train_timing.ran,block_id,ontime,feedback_cond,forcedRT_resp.keys,forcedRT_resp.corr,forcedRT_resp.rt,trials.thisRepN,trials.thisTrialN,trials.thisN,trials.thisIndex,trials.ran,blocks.thisRepN,blocks.thisTrialN,blocks.thisN,blocks.thisIndex,blocks.ran
68.62.187.41,0,j,1,3.5969,0,0,0,2,1,j,red,6035a9101015046a77be27b2,2021-09-27_17h30.38.283,forced_choiceRT_color,2021.2.3,Win32,60.70908208,,,,,,,,,,,,,,,,,,,,,,,
,0,k,1,0.9573,0,1,1,3,1,k,purple,6035a9101015046a77be27b2,2021-09-27_17h30.38.283,forced_choiceRT_color,2021.2.3,Win32,60.70908208,,,,,,,,,,,,,,,,,,,,,,,
,0,k,1,0.6658,0,2,2,3,1,k,purple,6035a9101015046a77be27b2,2021-09-27_17h30.38.283,forced_choiceRT_color,2021.2.3,Win32,60.70908208,,,,,,,,,,,,,,,,,,,,,,,
,0,d,1,0.8141,0,3,3,0,1,d,orange,6035a9101015046a77be27b2,2021-09-27_17h30.38.283,forced_choiceRT_color,2021.2.3,Win32,60.70908208,,,,,,,,,,,,,,,,,,,,,,,
,0,j,1,1.2996,1,0,4,2,1,j,red,6035a9101015046a77be27b2,2021-09-27_17h30.38.283,forced_choiceRT_color,2021.2.3,Win32,60.70908208,,,,,,,,,,,,,,,,,,,,,,,
,0,d,1,1.0005,1,1,5,0,1,d,orange,6035a9101015046a77be27b2,2021-09-27_17h30.38.283,forced_choiceRT_color,2021.2.3,Win32,60.70908208,,,,,,,,,,,,,,,,,,,,,,,
,0,f,1,0.949,1,2,6,1,1,f,blue,6035a9101015046a77be27b2,2021-09-27_17h30.38.283,forced_choiceRT_color,2021.2.3,Win32,60.70908208,,,,,,,,,,,,,,,,,,,,,,,
,0,k,1,0.6782,1,3,7,3,1,k,purple,6035a9101015046a77be27b2,2021-09-27_17h30.38.283,forced_choiceRT_color,2021.2.3,Win32,60.70908208,,,,,,,,,,,,,,,,,,,,,,,
,0,f,1,1.4706,2,0,8,1,1,f,blue,6035a9101015046a77be27b2,2021-09-27_17h30.38.283,forced_choiceRT_color,2021.2.3,Win32,60.70908208,,,,,,,,,,,,,,,,,,,,,,,
,0,k,1,0.68,2,1,9,3,1,k,purple,6035a9101015046a77be27b2,2021-09-27_17h30.38.283,forced_choiceRT_color,2021.2.3,Win32,60.70908208,,,,,,,,,,,,,,,,,,,,,,,
,0,f,1,2.2499,2,2,10,1,1,f,blue,6035a9101015046a77be27b2,2021-09-27_17h30.38.283,forced_choiceRT_color,2021.2.3,Win32,60.70908208,,,,,,,,,,,,,,,,,,,,,,,
,0,j,1,0.8052,2,3,11,2,1,j,red,6035a9101015046a77be27b2,2021-09-27_17h30.38.283,forced_choiceRT_color,2021.2.3,Win32,60.70908208,,,,,,,,,,,,,,,,,,,,,,,
,0,f,1,1.0554,3,0,12,1,1,f,blue,6035a9101015046a77be27b2,2021-09-27_17h30.38.283,forced_choiceRT_color,2021.2.3,Win32,60.70908208,,,,,,,,,,,,,,,,,,,,,,,
,0,f,1,0.8104,3,1,13,1,1,f,blue,6035a9101015046a77be27b2,2021-09-27_17h30.38.283,forced_choiceRT_color,2021.2.3,Win32,60.70908208,,,,,,,,,,,,,,,,,,,,,,,
,0,d,1,0.8047,3,2,14,0,1,d,orange,6035a9101015046a77be27b2,2021-09-27_17h30.38.283,forced_choiceRT_color,2021.2.3,Win32,60.70908208,,,,,,,,,,,,,,,,,,,,,,,
,0,d,1,0.6902,3,3,15,0,1,d,orange,6035a9101015046a77be27b2,2021-09-27_17h30.38.283,forced_choiceRT_color,2021.2.3,Win32,60.70908208,,,,,,,,,,,,,,,,,,,,,,,
,0,d,1,0.5376,4,0,16,0,1,d,orange,6035a9101015046a77be27b2,2021-09-27_17h30.38.283,forced_choiceRT_color,2021.2.3,Win32,60.70908208,,,,,,,,,,,,,,,,,,,,,,,
,0,k,1,0.6878,4,1,17,3,1,k,purple,6035a9101015046a77be27b2,2021-09-27_17h30.38.283,forced_choiceRT_color,2021.2.3,Win32,60.70908208,,,,,,,,,,,,,,,,,,,,,,,
,0,d,1,1.036,4,2,18,0,1,d,orange,6035a9101015046a77be27b2,2021-09-27_17h30.38.283,forced_choiceRT_color,2021.2.3,Win32,60.70908208,,,,,,,,,,,,,,,,,,,,,,,
,0,k,1,0.5874,4,3,19,3,1,k,purple,6035a9101015046a77be27b2,2021-09-27_17h30.38.283,forced_choiceRT_color,2021.2.3,Win32,60.70908208,,,,,,,,,,,,,,,,,,,,,,,
,0,f,1,1.0513,5,0,20,1,1,f,blue,6035a9101015046a77be27b2,2021-09-27_17h30.38.283,forced_choiceRT_color,2021.2.3,Win32,60.70908208,,,,,,,,,,,,,,,,,,,,,,,
,0,j,1,0.757,5,1,21,2,1,j,red,6035a9101015046a77be27b2,2021-09-27_17h30.38.283,forced_choiceRT_color,2021.2.3,Win32,60.70908208,,,,,,,,,,,,,,,,,,,,,,,
,0,j,1,0.601,5,2,22,2,1,j,red,6035a9101015046a77be27b2,2021-09-27_17h30.38.283,forced_choiceRT_color,2021.2.3,Win32,60.70908208,,,,,,,,,,,,,,,,,,,,,,,
,0,j,1,0.4663,5,3,23,2,1,j,red,6035a9101015046a77be27b2,2021-09-27_17h30.38.283,forced_choiceRT_color,2021.2.3,Win32,60.70908208,,,,,,,,,,,,,,,,,,,,,,,
,0,j,1,0.4016,6,0,24,2,1,j,red,6035a9101015046a77be27b2,2021-09-27_17h30.38.283,forced_choiceRT_color,2021.2.3,Win32,60.70908208,,,,,,,,,,,,,,,,,,,,,,,
,0,d,1,0.6508,6,1,25,0,1,d,orange,6035a9101015046a77be27b2,2021-09-27_17h30.38.283,forced_choiceRT_color,2021.2.3,Win32,60.70908208,,,,,,,,,,,,,,,,,,,,,,,
,0,f,1,0.7697,6,2,26,1,1,f,blue,6035a9101015046a77be27b2,2021-09-27_17h30.38.283,forced_choiceRT_color,2021.2.3,Win32,60.70908208,,,,,,,,,,,,,,,,,,,,,,,
,0,f,1,0.7177,6,3,27,1,1,f,blue,6035a9101015046a77be27b2,2021-09-27_17h30.38.283,forced_choiceRT_color,2021.2.3,Win32,60.70908208,,,,,,,,,,,,,,,,,,,,,,,
,0,j,1,0.7262,7,0,28,2,1,j,red,6035a9101015046a77be27b2,2021-09-27_17h30.38.283,forced_choiceRT_color,2021.2.3,Win32,60.70908208,,,,,,,,,,,,,,,,,,,,,,,
,0,k,1,0.6074,7,1,29,3,1,k,purple,6035a9101015046a77be27b2,2021-09-27_17h30.38.283,forced_choiceRT_color,2021.2.3,Win32,60.70908208,,,,,,,,,,,,,,,,,,,,,,,
,0,d,1,0.625,7,2,30,0,1,d,orange,6035a9101015046a77be27b2,2021-09-27_17h30.38.283,forced_choiceRT_color,2021.2.3,Win32,60.70908208,,,,,,,,,,,,,,,,,,,,,,,
,0,f,1,1.415,7,3,31,1,1,f,blue,6035a9101015046a77be27b2,2021-09-27_17h30.38.283,forced_choiceRT_color,2021.2.3,Win32,60.70908208,,,,,,,,,,,,,,,,,,,,,,,
,0,k,1,2.5489,8,0,32,3,1,k,purple,6035a9101015046a77be27b2,2021-09-27_17h30.38.283,forced_choiceRT_color,2021.2.3,Win32,60.70908208,,,,,,,,,,,,,,,,,,,,,,,
,0,j,1,0.8439,8,1,33,2,1,j,red,6035a9101015046a77be27b2,2021-09-27_17h30.38.283,forced_choiceRT_color,2021.2.3,Win32,60.70908208,,,,,,,,,,,,,,,,,,,,,,,
,0,f,1,1.3091,8,2,34,1,1,f,blue,6035a9101015046a77be27b2,2021-09-27_17h30.38.283,forced_choiceRT_color,2021.2.3,Win32,60.70908208,,,,,,,,,,,,,,,,,,,,,,,
,0,f,1,0.9606,8,3,35,1,1,f,blue,6035a9101015046a77be27b2,2021-09-27_17h30.38.283,forced_choiceRT_color,2021.2.3,Win32,60.70908208,,,,,,,,,,,,,,,,,,,,,,,
,0,k,1,1.0677,9,0,36,3,1,k,purple,6035a9101015046a77be27b2,2021-09-27_17h30.38.283,forced_choiceRT_color,2021.2.3,Win32,60.70908208,,,,,,,,,,,,,,,,,,,,,,,
,0,k,1,0.4884,9,1,37,3,1,k,purple,6035a9101015046a77be27b2,2021-09-27_17h30.38.283,forced_choiceRT_color,2021.2.3,Win32,60.70908208,,,,,,,,,,,,,,,,,,,,,,,
,0,d,1,0.6315,9,2,38,0,1,d,orange,6035a9101015046a77be27b2,2021-09-27_17h30.38.283,forced_choiceRT_color,2021.2.3,Win32,60.70908208,,,,,,,,,,,,,,,,,,,,,,,
,0,k,1,0.7165,9,3,39,3,1,k,purple,6035a9101015046a77be27b2,2021-09-27_17h30.38.283,forced_choiceRT_color,2021.2.3,Win32,60.70908208,,,,,,,,,,,,,,,,,,,,,,,
,0,j,1,0.9475,10,0,40,2,1,j,red,6035a9101015046a77be27b2,2021-09-27_17h30.38.283,forced_choiceRT_color,2021.2.3,Win32,60.70908208,,,,,,,,,,,,,,,,,,,,,,,
,0,k,1,0.748,10,1,41,3,1,k,purple,6035a9101015046a77be27b2,2021-09-27_17h30.38.283,forced_choiceRT_color,2021.2.3,Win32,60.70908208,,,,,,,,,,,,,,,,,,,,,,,
,0,f,1,1.1809,10,2,42,1,1,f,blue,6035a9101015046a77be27b2,2021-09-27_17h30.38.283,forced_choiceRT_color,2021.2.3,Win32,60.70908208,,,,,,,,,,,,,,,,,,,,,,,
,0,j,1,0.7182,10,3,43,2,1,j,red,6035a9101015046a77be27b2,2021-09-27_17h30.38.283,forced_choiceRT_color,2021.2.3,Win32,60.70908208,,,,,,,,,,,,,,,,,,,,,,,
,0,d,1,1.6202,11,0,44,0,1,d,orange,6035a9101015046a77be27b2,2021-09-27_17h30.38.283,forced_choiceRT_color,2021.2.3,Win32,60.70908208,,,,,,,,,,,,,,,,,,,,,,,
,0,j,1,0.881,11,1,45,2,1,j,red,6035a9101015046a77be27b2,2021-09-27_17h30.38.283,forced_choiceRT_color,2021.2.3,Win32,60.70908208,,,,,,,,,,,,,,,,,,,,,,,
,0,k,1,0.653,11,2,46,3,1,k,purple,6035a9101015046a77be27b2,2021-09-27_17h30.38.283,forced_choiceRT_color,2021.2.3,Win32,60.70908208,,,,,,,,,,,,,,,,,,,,,,,
,0,j,1,2.1865,11,3,47,2,1,j,red,6035a9101015046a77be27b2,2021-09-27_17h30.38.283,forced_choiceRT_color,2021.2.3,Win32,60.70908208,,,,,,,,,,,,,,,,,,,,,,,
,0,d,1,0.7973,12,0,48,0,1,d,orange,6035a9101015046a77be27b2,2021-09-27_17h30.38.283,forced_choiceRT_color,2021.2.3,Win32,60.70908208,,,,,,,,,,,,,,,,,,,,,,,
,0,f,1,1.1404,12,1,49,1,1,f,blue,6035a9101015046a77be27b2,2021-09-27_17h30.38.283,forced_choiceRT_color,2021.2.3,Win32,60.70908208,,,,,,,,,,,,,,,,,,,,,,,
,0,d,1,0.6983,12,2,50,0,1,d,orange,6035a9101015046a77be27b2,2021-09-27_17h30.38.283,forced_choiceRT_color,2021.2.3,Win32,60.70908208,,,,,,,,,,,,,,,,,,,,,,,
,0,d,1,0.548,12,3,51,0,1,d,orange,6035a9101015046a77be27b2,2021-09-27_17h30.38.283,forced_choiceRT_color,2021.2.3,Win32,60.70908208,,,,,,,,,,,,,,,,,,,,,,,
,0,j,1,0.832,13,0,52,2,1,j,red,6035a9101015046a77be27b2,2021-09-27_17h30.38.283,forced_choiceRT_color,2021.2.3,Win32,60.70908208,,,,,,,,,,,,,,,,,,,,,,,
,0,d,1,1.0018,13,1,53,0,1,d,orange,6035a9101015046a77be27b2,2021-09-27_17h30.38.283,forced_choiceRT_color,2021.2.3,Win32,60.70908208,,,,,,,,,,,,,,,,,,,,,,,
,0,j,1,1.2865,13,2,54,2,1,j,red,6035a9101015046a77be27b2,2021-09-27_17h30.38.283,forced_choiceRT_color,2021.2.3,Win32,60.70908208,,,,,,,,,,,,,,,,,,,,,,,
,0,f,1,1.4138,13,3,55,1,1,f,blue,6035a9101015046a77be27b2,2021-09-27_17h30.38.283,forced_choiceRT_color,2021.2.3,Win32,60.70908208,,,,,,,,,,,,,,,,,,,,,,,
,0,f,1,0.6746,14,0,56,1,1,f,blue,6035a9101015046a77be27b2,2021-09-27_17h30.38.283,forced_choiceRT_color,2021.2.3,Win32,60.70908208,,,,,,,,,,,,,,,,,,,,,,,
,0,d,1,0.6983,14,1,57,0,1,d,orange,6035a9101015046a77be27b2,2021-09-27_17h30.38.283,forced_choiceRT_color,2021.2.3,Win32,60.70908208,,,,,,,,,,,,,,,,,,,,,,,
,0,k,1,0.8156,14,2,58,3,1,k,purple,6035a9101015046a77be27b2,2021-09-27_17h30.38.283,forced_choiceRT_color,2021.2.3,Win32,60.70908208,,,,,,,,,,,,,,,,,,,,,,,
,0,k,1,0.8174,14,3,59,3,1,k,purple,6035a9101015046a77be27b2,2021-09-27_17h30.38.283,forced_choiceRT_color,2021.2.3,Win32,60.70908208,,,,,,,,,,,,,,,,,,,,,,,
,,,,,,,,,,,,6035a9101015046a77be27b2,2021-09-27_17h30.38.283,forced_choiceRT_color,2021.2.3,Win32,60.70908208,d,2.2871,0,0,0,0,1,,,,,,,,,,,,,,,,
,,,,,,,,,,,,6035a9101015046a77be27b2,2021-09-27_17h30.38.283,forced_choiceRT_color,2021.2.3,Win32,60.70908208,f,2.2304,1,0,1,0,1,,,,,,,,,,,,,,,,
,,,,,,,,,,,,6035a9101015046a77be27b2,2021-09-27_17h30.38.283,forced_choiceRT_color,2021.2.3,Win32,60.70908208,d,2.0215,2,0,2,0,1,,,,,,,,,,,,,,,,
,,,,,,,,,,,,6035a9101015046a77be27b2,2021-09-27_17h30.38.283,forced_choiceRT_color,2021.2.3,Win32,60.70908208,f,1.9204,3,0,3,0,1,,,,,,,,,,,,,,,,
,,,,,,,,,,,,6035a9101015046a77be27b2,2021-09-27_17h30.38.283,forced_choiceRT_color,2021.2.3,Win32,60.70908208,j,1.8676,4,0,4,0,1,,,,,,,,,,,,,,,,
,,,,,,,,,,,,6035a9101015046a77be27b2,2021-09-27_17h30.38.283,forced_choiceRT_color,2021.2.3,Win32,60.70908208,k,1.9712,5,0,5,0,1,,,,,,,,,,,,,,,,
,,,,,,,,,,,,6035a9101015046a77be27b2,2021-09-27_17h30.38.283,forced_choiceRT_color,2021.2.3,Win32,60.70908208,j,1.9848,6,0,6,0,1,,,,,,,,,,,,,,,,
,,,,,,,,,,,,6035a9101015046a77be27b2,2021-09-27_17h30.38.283,forced_choiceRT_color,2021.2.3,Win32,60.70908208,d,2.0706,7,0,7,0,1,,,,,,,,,,,,,,,,
,,,,,,,,,,,,6035a9101015046a77be27b2,2021-09-27_17h30.38.283,forced_choiceRT_color,2021.2.3,Win32,60.70908208,f,2.0996,8,0,8,0,1,,,,,,,,,,,,,,,,
,,,,,,,,,,,,6035a9101015046a77be27b2,2021-09-27_17h30.38.283,forced_choiceRT_color,2021.2.3,Win32,60.70908208,j,2.0079,9,0,9,0,1,,,,,,,,,,,,,,,,
,,,,,,,,,,,,6035a9101015046a77be27b2,2021-09-27_17h30.38.283,forced_choiceRT_color,2021.2.3,Win32,60.70908208,k,2.0338,10,0,10,0,1,,,,,,,,,,,,,,,,
,,,,,,,,,,,,6035a9101015046a77be27b2,2021-09-27_17h30.38.283,forced_choiceRT_color,2021.2.3,Win32,60.70908208,j,2.0854,11,0,11,0,1,,,,,,,,,,,,,,,,
,,,,,,,,,,,,6035a9101015046a77be27b2,2021-09-27_17h30.38.283,forced_choiceRT_color,2021.2.3,Win32,60.70908208,f,2.0341,12,0,12,0,1,,,,,,,,,,,,,,,,
,,,,,,,,,,,,6035a9101015046a77be27b2,2021-09-27_17h30.38.283,forced_choiceRT_color,2021.2.3,Win32,60.70908208,d,2.0309,13,0,13,0,1,,,,,,,,,,,,,,,,
,,,,,,,,,,,,6035a9101015046a77be27b2,2021-09-27_17h30.38.283,forced_choiceRT_color,2021.2.3,Win32,60.70908208,f,1.8969,14,0,14,0,1,,,,,,,,,,,,,,,,
,,,,,,,,,,,,6035a9101015046a77be27b2,2021-09-27_17h30.38.283,forced_choiceRT_color,2021.2.3,Win32,60.70908208,f,1.9974,15,0,15,0,1,,,,,,,,,,,,,,,,
,,,,,,,,,,,,6035a9101015046a77be27b2,2021-09-27_17h30.38.283,forced_choiceRT_color,2021.2.3,Win32,60.70908208,k,2.0219,16,0,16,0,1,,,,,,,,,,,,,,,,
,,,,,,,,,,,,6035a9101015046a77be27b2,2021-09-27_17h30.38.283,forced_choiceRT_color,2021.2.3,Win32,60.70908208,j,2.0375,17,0,17,0,1,,,,,,,,,,,,,,,,
,,,,,,,,,,,,6035a9101015046a77be27b2,2021-09-27_17h30.38.283,forced_choiceRT_color,2021.2.3,Win32,60.70908208,f,1.9665,18,0,18,0,1,,,,,,,,,,,,,,,,
,,,,,,,,,,,,6035a9101015046a77be27b2,2021-09-27_17h30.38.283,forced_choiceRT_color,2021.2.3,Win32,60.70908208,f,1.982,19,0,19,0,1,,,,,,,,,,,,,,,,
,1,,,,,,,,,d,orange,6035a9101015046a77be27b2,2021-09-27_17h30.38.283,forced_choiceRT_color,2021.2.3,Win32,60.70908208,,,,,,,,1,Slow,long,j,0,2.1956,0,0,0,0,1,,,,,
,1.15,,,,,,,,,k,purple,6035a9101015046a77be27b2,2021-09-27_17h30.38.283,forced_choiceRT_color,2021.2.3,Win32,60.70908208,,,,,,,,1,Slow,long,k,1,2.1069,0,1,1,3,1,,,,,
,0.73,,,,,,,,,f,blue,6035a9101015046a77be27b2,2021-09-27_17h30.38.283,forced_choiceRT_color,2021.2.3,Win32,60.70908208,,,,,,,,1,Fast,long,j,0,1.7942,0,2,2,1,1,,,,,
,1.46,,,,,,,,,k,purple,6035a9101015046a77be27b2,2021-09-27_17h30.38.283,forced_choiceRT_color,2021.2.3,Win32,60.70908208,,,,,,,,1,Slow,long,k,1,2.1398,0,3,3,3,1,,,,,
,0.8,,,,,,,,,f,blue,6035a9101015046a77be27b2,2021-09-27_17h30.38.283,forced_choiceRT_color,2021.2.3,Win32,60.70908208,,,,,,,,1,Ontime,long,f,1,1.9398,1,0,4,1,1,,,,,
,1.9,,,,,,,,,f,blue,6035a9101015046a77be27b2,2021-09-27_17h30.38.283,forced_choiceRT_color,2021.2.3,Win32,60.70908208,,,,,,,,1,Slow,long,f,1,2.5894,1,1,5,1,1,,,,,
,1.35,,,,,,,,,d,orange,6035a9101015046a77be27b2,2021-09-27_17h30.38.283,forced_choiceRT_color,2021.2.3,Win32,60.70908208,,,,,,,,1,Ontime,long,d,1,2.0888,1,2,6,0,1,,,,,
,0.35,,,,,,,,,k,purple,6035a9101015046a77be27b2,2021-09-27_17h30.38.283,forced_choiceRT_color,2021.2.3,Win32,60.70908208,,,,,,,,1,Ontime,long,k,1,1.9517,1,3,7,3,1,,,,,
,1.98,,,,,,,,,j,red,6035a9101015046a77be27b2,2021-09-27_17h30.38.283,forced_choiceRT_color,2021.2.3,Win32,60.70908208,,,,,,,,1,Slow,long,j,1,2.276,2,0,8,2,1,,,,,
,1.15,,,,,,,,,k,purple,6035a9101015046a77be27b2,2021-09-27_17h30.38.283,forced_choiceRT_color,2021.2.3,Win32,60.70908208,,,,,,,,1,Ontime,long,k,1,2.0126,2,1,9,3,1,,,,,
,1.06,,,,,,,,,f,blue,6035a9101015046a77be27b2,2021-09-27_17h30.38.283,forced_choiceRT_color,2021.2.3,Win32,60.70908208,,,,,,,,1,Ontime,long,f,1,1.9669,2,2,10,1,1,,,,,
,1.48,,,,,,,,,j,red,6035a9101015046a77be27b2,2021-09-27_17h30.38.283,forced_choiceRT_color,2021.2.3,Win32,60.70908208,,,,,,,,1,Ontime,long,j,1,1.9651,2,3,11,2,1,,,,,
,1.22,,,,,,,,,d,orange,6035a9101015046a77be27b2,2021-09-27_17h30.38.283,forced_choiceRT_color,2021.2.3,Win32,60.70908208,,,,,,,,1,Ontime,long,k,0,1.9058,3,0,12,0,1,,,,,
,1.53,,,,,,,,,j,red,6035a9101015046a77be27b2,2021-09-27_17h30.38.283,forced_choiceRT_color,2021.2.3,Win32,60.70908208,,,,,,,,1,Slow,long,j,1,2.1642,3,1,13,2,1,,,,,
,0.16,,,,,,,,,k,purple,6035a9101015046a77be27b2,2021-09-27_17h30.38.283,forced_choiceRT_color,2021.2.3,Win32,60.70908208,,,,,,,,1,Ontime,long,k,1,1.9761,3,2,14,3,1,,,,,
,1.45,,,,,,,,,d,orange,6035a9101015046a77be27b2,2021-09-27_17h30.38.283,forced_choiceRT_color,2021.2.3,Win32,60.70908208,,,,,,,,1,Ontime,long,d,1,2.0341,3,3,15,0,1,,,,,
,0.14,,,,,,,,,j,red,6035a9101015046a77be27b2,2021-09-27_17h30.38.283,forced_choiceRT_color,2021.2.3,Win32,60.70908208,,,,,,,,1,Ontime,long,j,1,1.9816,4,0,16,2,1,,,,,
,0.81,,,,,,,,,f,blue,6035a9101015046a77be27b2,2021-09-27_17h30.38.283,forced_choiceRT_color,2021.2.3,Win32,60.70908208,,,,,,,,1,Ontime,long,f,1,2.04,4,1,17,1,1,,,,,
,1.79,,,,,,,,,j,red,6035a9101015046a77be27b2,2021-09-27_17h30.38.283,forced_choiceRT_color,2021.2.3,Win32,60.70908208,,,,,,,,1,Slow,long,d,0,2.1729,4,2,18,2,1,,,,,
,0.51,,,,,,,,,d,orange,6035a9101015046a77be27b2,2021-09-27_17h30.38.283,forced_choiceRT_color,2021.2.3,Win32,60.70908208,,,,,,,,1,Ontime,long,d,1,2.0735,4,3,19,0,1,,,,,
,0.07,,,,,,,,,k,purple,6035a9101015046a77be27b2,2021-09-27_17h30.38.283,forced_choiceRT_color,2021.2.3,Win32,60.70908208,,,,,,,,1,Ontime,long,k,1,2.0628,5,0,20,3,1,,,,,
,0.53,,,,,,,,,k,purple,6035a9101015046a77be27b2,2021-09-27_17h30.38.283,forced_choiceRT_color,2021.2.3,Win32,60.70908208,,,,,,,,1,Ontime,long,k,1,2.0258,5,1,21,3,1,,,,,
,1.97,,,,,,,,,f,blue,6035a9101015046a77be27b2,2021-09-27_17h30.38.283,forced_choiceRT_color,2021.2.3,Win32,60.70908208,,,,,,,,1,Slow,long,j,0,2.1574,5,2,22,1,1,,,,,
,0.57,,,,,,,,,k,purple,6035a9101015046a77be27b2,2021-09-27_17h30.38.283,forced_choiceRT_color,2021.2.3,Win32,60.70908208,,,,,,,,1,Ontime,long,k,1,1.9719,5,3,23,3,1,,,,,
,0.74,,,,,,,,,f,blue,6035a9101015046a77be27b2,2021-09-27_17h30.38.283,forced_choiceRT_color,2021.2.3,Win32,60.70908208,,,,,,,,1,Ontime,long,f,1,1.9383,6,0,24,1,1,,,,,
,1.05,,,,,,,,,f,blue,6035a9101015046a77be27b2,2021-09-27_17h30.38.283,forced_choiceRT_color,2021.2.3,Win32,60.70908208,,,,,,,,1,Ontime,long,j,0,2.0179,6,1,25,1,1,,,,,
,0.43,,,,,,,,,d,orange,6035a9101015046a77be27b2,2021-09-27_17h30.38.283,forced_choiceRT_color,2021.2.3,Win32,60.70908208,,,,,,,,1,Ontime,long,d,1,2.0998,6,2,26,0,1,,,,,
,0.15,,,,,,,,,d,orange,6035a9101015046a77be27b2,2021-09-27_17h30.38.283,forced_choiceRT_color,2021.2.3,Win32,60.70908208,,,,,,,,1,Ontime,long,d,1,2.0642,6,3,27,0,1,,,,,
,1.19,,,,,,,,,d,orange,6035a9101015046a77be27b2,2021-09-27_17h30.38.283,forced_choiceRT_color,2021.2.3,Win32,60.70908208,,,,,,,,1,Ontime,long,d,1,1.9398,7,0,28,0,1,,,,,
,0.88,,,,,,,,,j,red,6035a9101015046a77be27b2,2021-09-27_17h30.38.283,forced_choiceRT_color,2021.2.3,Win32,60.70908208,,,,,,,,1,Ontime,long,j,1,2.0147,7,1,29,2,1,,,,,
,0.8,,,,,,,,,j,red,6035a9101015046a77be27b2,2021-09-27_17h30.38.283,forced_choiceRT_color,2021.2.3,Win32,60.70908208,,,,,,,,1,Ontime,long,j,1,2.0139,7,2,30,2,1,,,,,
,0.43,,,,,,,,,d,orange,6035a9101015046a77be27b2,2021-09-27_17h30.38.283,forced_choiceRT_color,2021.2.3,Win32,60.70908208,,,,,,,,1,Ontime,long,d,1,2.0671,7,3,31,0,1,,,,,
,0.63,,,,,,,,,f,blue,6035a9101015046a77be27b2,2021-09-27_17h30.38.283,forced_choiceRT_color,2021.2.3,Win32,60.70908208,,,,,,,,1,Ontime,long,f,1,2.0339,8,0,32,1,1,,,,,
,1.08,,,,,,,,,j,red,6035a9101015046a77be27b2,2021-09-27_17h30.38.283,forced_choiceRT_color,2021.2.3,Win32,60.70908208,,,,,,,,1,Slow,long,j,1,2.1389,8,1,33,2,1,,,,,
,0.36,,,,,,,,,f,blue,6035a9101015046a77be27b2,2021-09-27_17h30.38.283,forced_choiceRT_color,2021.2.3,Win32,60.70908208,,,,,,,,1,Ontime,long,f,1,2.063,8,2,34,1,1,,,,,
,0.06,,,,,,,,,j,red,6035a9101015046a77be27b2,2021-09-27_17h30.38.283,forced_choiceRT_color,2021.2.3,Win32,60.70908208,,,,,,,,1,Ontime,long,j,1,2.0294,8,3,35,2,1,,,,,
,0.48,,,,,,,,,k,purple,6035a9101015046a77be27b2,2021-09-27_17h30.38.283,forced_choiceRT_color,2021.2.3,Win32,60.70908208,,,,,,,,1,Ontime,long,k,1,2.0977,9,0,36,3,1,,,,,
,0.91,,,,,,,,,j,red,6035a9101015046a77be27b2,2021-09-27_17h30.38.283,forced_choiceRT_color,2021.2.3,Win32,60.70908208,,,,,,,,1,Ontime,long,j,1,1.9729,9,1,37,2,1,,,,,
,1.01,,,,,,,,,d,orange,6035a9101015046a77be27b2,2021-09-27_17h30.38.283,forced_choiceRT_color,2021.2.3,Win32,60.70908208,,,,,,,,1,Ontime,long,d,1,2.0123,9,2,38,0,1,,,,,
,1.32,,,,,,,,,k,purple,6035a9101015046a77be27b2,2021-09-27_17h30.38.283,forced_choiceRT_color,2021.2.3,Win32,60.70908208,,,,,,,,1,Ontime,long,k,1,1.9501,9,3,39,3,1,,,,,
,,,,,,,,,,,,6035a9101015046a77be27b2,2021-09-27_17h30.38.283,forced_choiceRT_color,2021.2.3,Win32,60.70908208,,,,,,,,,,,,,,,,,,,0,0,0,0,1
,0.16,,,,,,,,,j,red,6035a9101015046a77be27b2,2021-09-27_17h30.38.283,forced_choiceRT_color,2021.2.3,Win32,60.70908208,,,,,,,,2,Fast,long,j,1,1.852,0,0,0,2,1,,,,,
,0.17,,,,,,,,,k,purple,6035a9101015046a77be27b2,2021-09-27_17h30.38.283,forced_choiceRT_color,2021.2.3,Win32,60.70908208,,,,,,,,2,Ontime,long,k,1,2.0188,0,1,1,3,1,,,,,
,0.32,,,,,,,,,d,orange,6035a9101015046a77be27b2,2021-09-27_17h30.38.283,forced_choiceRT_color,2021.2.3,Win32,60.70908208,,,,,,,,2,Slow,long,d,1,2.1321,0,2,2,0,1,,,,,
,0.54,,,,,,,,,f,blue,6035a9101015046a77be27b2,2021-09-27_17h30.38.283,forced_choiceRT_color,2021.2.3,Win32,60.70908208,,,,,,,,2,Slow,long,f,1,2.123,0,3,3,1,1,,,,,
,1.53,,,,,,,,,f,blue,6035a9101015046a77be27b2,2021-09-27_17h30.38.283,forced_choiceRT_color,2021.2.3,Win32,60.70908208,,,,,,,,2,Ontime,long,f,1,2.0884,1,0,4,1,1,,,,,
,1.09,,,,,,,,,j,red,6035a9101015046a77be27b2,2021-09-27_17h30.38.283,forced_choiceRT_color,2021.2.3,Win32,60.70908208,,,,,,,,2,Ontime,long,j,1,2.0371,1,1,5,2,1,,,,,
,1.95,,,,,,,,,f,blue,6035a9101015046a77be27b2,2021-09-27_17h30.38.283,forced_choiceRT_color,2021.2.3,Win32,60.70908208,,,,,,,,2,Slow,long,d,0,2.169,1,2,6,1,1,,,,,
,1.8,,,,,,,,,d,orange,6035a9101015046a77be27b2,2021-09-27_17h30.38.283,forced_choiceRT_color,2021.2.3,Win32,60.70908208,,,,,,,,2,Ontime,long,d,1,2.0305,1,3,7,0,1,,,,,
,1.35,,,,,,,,,d,orange,6035a9101015046a77be27b2,2021-09-27_17h30.38.283,forced_choiceRT_color,2021.2.3,Win32,60.70908208,,,,,,,,2,Slow,long,d,1,2.1856,2,0,8,0,1,,,,,
,0.73,,,,,,,,,d,orange,6035a9101015046a77be27b2,2021-09-27_17h30.38.283,forced_choiceRT_color,2021.2.3,Win32,60.70908208,,,,,,,,2,Ontime,long,d,1,2.0682,2,1,9,0,1,,,,,
,0.9,,,,,,,,,k,purple,6035a9101015046a77be27b2,2021-09-27_17h30.38.283,forced_choiceRT_color,2021.2.3,Win32,60.70908208,,,,,,,,2,Ontime,long,k,1,2.054,2,2,10,3,1,,,,,
,1.54,,,,,,,,,k,purple,6035a9101015046a77be27b2,2021-09-27_17h30.38.283,forced_choiceRT_color,2021.2.3,Win32,60.70908208,,,,,,,,2,Ontime,long,d,0,2.0131,2,3,11,3,1,,,,,
,0.08,,,,,,,,,d,orange,6035a9101015046a77be27b2,2021-09-27_17h30.38.283,forced_choiceRT_color,2021.2.3,Win32,60.70908208,,,,,,,,2,Ontime,long,d,1,2.0809,3,0,12,0,1,,,,,
,1.67,,,,,,,,,k,purple,6035a9101015046a77be27b2,2021-09-27_17h30.38.283,forced_choiceRT_color,2021.2.3,Win32,60.70908208,,,,,,,,2,Slow,long,k,1,2.1035,3,1,13,3,1,,,,,
,0.54,,,,,,,,,j,red,6035a9101015046a77be27b2,2021-09-27_17h30.38.283,forced_choiceRT_color,2021.2.3,Win32,60.70908208,,,,,,,,2,Ontime,long,j,1,2.0546,3,2,14,2,1,,,,,
,1.41,,,,,,,,,f,blue,6035a9101015046a77be27b2,2021-09-27_17h30.38.283,forced_choiceRT_color,2021.2.3,Win32,60.70908208,,,,,,,,2,Slow,long,f,1,2.1092,3,3,15,1,1,,,,,
,1.01,,,,,,,,,f,blue,6035a9101015046a77be27b2,2021-09-27_17h30.38.283,forced_choiceRT_color,2021.2.3,Win32,60.70908208,,,,,,,,2,Ontime,long,f,1,1.9637,4,0,16,1,1,,,,,
,1.58,,,,,,,,,j,red,6035a9101015046a77be27b2,2021-09-27_17h30.38.283,forced_choiceRT_color,2021.2.3,Win32,60.70908208,,,,,,,,2,Ontime,long,d,0,2.0108,4,1,17,2,1,,,,,
,0.35,,,,,,,,,d,orange,6035a9101015046a77be27b2,2021-09-27_17h30.38.283,forced_choiceRT_color,2021.2.3,Win32,60.70908208,,,,,,,,2,Ontime,long,d,1,1.9365,4,2,18,0,1,,,,,
,0.11,,,,,,,,,j,red,6035a9101015046a77be27b2,2021-09-27_17h30.38.283,forced_choiceRT_color,2021.2.3,Win32,60.70908208,,,,,,,,2,Ontime,long,j,1,2.078,4,3,19,2,1,,,,,
,1.17,,,,,,,,,d,orange,6035a9101015046a77be27b2,2021-09-27_17h30.38.283,forced_choiceRT_color,2021.2.3,Win32,60.70908208,,,,,,,,2,Slow,long,d,1,2.1204,5,0,20,0,1,,,,,
,1.58,,,,,,,,,j,red,6035a9101015046a77be27b2,2021-09-27_17h30.38.283,forced_choiceRT_color,2021.2.3,Win32,60.70908208,,,,,,,,2,Ontime,long,j,1,2.0383,5,1,21,2,1,,,,,
,0.6,,,,,,,,,d,orange,6035a9101015046a77be27b2,2021-09-27_17h30.38.283,forced_choiceRT_color,2021.2.3,Win32,60.70908208,,,,,,,,2,Slow,long,d,1,2.1201,5,2,22,0,1,,,,,
,1.3,,,,,,,,,k,purple,6035a9101015046a77be27b2,2021-09-27_17h30.38.283,forced_choiceRT_color,2021.2.3,Win32,60.70908208,,,,,,,,2,Ontime,long,k,1,1.9245,5,3,23,3,1,,,,,
,0.38,,,,,,,,,f,blue,6035a9101015046a77be27b2,2021-09-27_17h30.38.283,forced_choiceRT_color,2021.2.3,Win32,60.70908208,,,,,,,,2,Fast,long,f,1,1.8265,6,0,24,1,1,,,,,
,1.46,,,,,,,,,f,blue,6035a9101015046a77be27b2,2021-09-27_17h30.38.283,forced_choiceRT_color,2021.2.3,Win32,60.70908208,,,,,,,,2,Ontime,long,j,0,1.9866,6,1,25,1,1,,,,,
,0.95,,,,,,,,,j,red,6035a9101015046a77be27b2,2021-09-27_17h30.38.283,forced_choiceRT_color,2021.2.3,Win32,60.70908208,,,,,,,,2,Ontime,long,j,1,1.9494,6,2,26,2,1,,,,,
,1.93,,,,,,,,,d,orange,6035a9101015046a77be27b2,2021-09-27_17h30.38.283,forced_choiceRT_color,2021.2.3,Win32,60.70908208,,,,,,,,2,Slow,long,d,1,2.1267,6,3,27,0,1,,,,,
,0.5,,,,,,,,,k,purple,6035a9101015046a77be27b2,2021-09-27_17h30.38.283,forced_choiceRT_color,2021.2.3,Win32,60.70908208,,,,,,,,2,Ontime,long,k,1,1.9923,7,0,28,3,1,,,,,
,0.02,,,,,,,,,j,red,6035a9101015046a77be27b2,2021-09-27_17h30.38.283,forced_choiceRT_color,2021.2.3,Win32,60.70908208,,,,,,,,2,Ontime,long,j,1,1.9036,7,1,29,2,1,,,,,
,1.65,,,,,,,,,f,blue,6035a9101015046a77be27b2,2021-09-27_17h30.38.283,forced_choiceRT_color,2021.2.3,Win32,60.70908208,,,,,,,,2,Ontime,long,d,0,1.933,7,2,30,1,1,,,,,
,1.22,,,,,,,,,f,blue,6035a9101015046a77be27b2,2021-09-27_17h30.38.283,forced_choiceRT_color,2021.2.3,Win32,60.70908208,,,,,,,,2,Fast,long,f,1,1.8596,7,3,31,1,1,,,,,
,1.59,,,,,,,,,k,purple,6035a9101015046a77be27b2,2021-09-27_17h30.38.283,forced_choiceRT_color,2021.2.3,Win32,60.70908208,,,,,,,,2,Slow,long,k,1,2.1028,8,0,32,3,1,,,,,
,0.27,,,,,,,,,f,blue,6035a9101015046a77be27b2,2021-09-27_17h30.38.283,forced_choiceRT_color,2021.2.3,Win32,60.70908208,,,,,,,,2,Ontime,long,f,1,2.053,8,1,33,1,1,,,,,
,1.47,,,,,,,,,k,purple,6035a9101015046a77be27b2,2021-09-27_17h30.38.283,forced_choiceRT_color,2021.2.3,Win32,60.70908208,,,,,,,,2,Slow,long,k,1,2.2033,8,2,34,3,1,,,,,
,1.93,,,,,,,,,j,red,6035a9101015046a77be27b2,2021-09-27_17h30.38.283,forced_choiceRT_color,2021.2.3,Win32,60.70908208,,,,,,,,2,Ontime,long,k,0,2.086,8,3,35,2,1,,,,,
,1.71,,,,,,,,,d,orange,6035a9101015046a77be27b2,2021-09-27_17h30.38.283,forced_choiceRT_color,2021.2.3,Win32,60.70908208,,,,,,,,2,Ontime,long,j,0,2.0702,9,0,36,0,1,,,,,
,0.07,,,,,,,,,k,purple,6035a9101015046a77be27b2,2021-09-27_17h30.38.283,forced_choiceRT_color,2021.2.3,Win32,60.70908208,,,,,,,,2,Ontime,long,k,1,2.0373,9,1,37,3,1,,,,,
,1.9,,,,,,,,,k,purple,6035a9101015046a77be27b2,2021-09-27_17h30.38.283,forced_choiceRT_color,2021.2.3,Win32,60.70908208,,,,,,,,2,Slow,long,f,0,2.309,9,2,38,3,1,,,,,
,0.25,,,,,,,,,j,red,6035a9101015046a77be27b2,2021-09-27_17h30.38.283,forced_choiceRT_color,2021.2.3,Win32,60.70908208,,,,,,,,2,Ontime,long,j,1,2.0772,9,3,39,2,1,,,,,
,,,,,,,,,,,,6035a9101015046a77be27b2,2021-09-27_17h30.38.283,forced_choiceRT_color,2021.2.3,Win32,60.70908208,,,,,,,,,,,,,,,,,,,1,0,1,0,1
,0.87,,,,,,,,,d,orange,6035a9101015046a77be27b2,2021-09-27_17h30.38.283,forced_choiceRT_color,2021.2.3,Win32,60.70908208,,,,,,,,3,Slow,long,d,1,2.1266,0,0,0,0,1,,,,,
,0.25,,,,,,,,,k,purple,6035a9101015046a77be27b2,2021-09-27_17h30.38.283,forced_choiceRT_color,2021.2.3,Win32,60.70908208,,,,,,,,3,Slow,long,k,1,2.1032,0,1,1,3,1,,,,,
,0.07,,,,,,,,,k,purple,6035a9101015046a77be27b2,2021-09-27_17h30.38.283,forced_choiceRT_color,2021.2.3,Win32,60.70908208,,,,,,,,3,Ontime,long,k,1,1.9599,0,2,2,3,1,,,,,
,0.2,,,,,,,,,d,orange,6035a9101015046a77be27b2,2021-09-27_17h30.38.283,forced_choiceRT_color,2021.2.3,Win32,60.70908208,,,,,,,,3,Ontime,long,d,1,1.923,0,3,3,0,1,,,,,
,1.13,,,,,,,,,f,blue,6035a9101015046a77be27b2,2021-09-27_17h30.38.283,forced_choiceRT_color,2021.2.3,Win32,60.70908208,,,,,,,,3,Fast,long,f,1,1.8392,1,0,4,1,1,,,,,
,0.8,,,,,,,,,f,blue,6035a9101015046a77be27b2,2021-09-27_17h30.38.283,forced_choiceRT_color,2021.2.3,Win32,60.70908208,,,,,,,,3,Ontime,long,f,1,2.0237,1,1,5,1,1,,,,,
,0.24,,,,,,,,,d,orange,6035a9101015046a77be27b2,2021-09-27_17h30.38.283,forced_choiceRT_color,2021.2.3,Win32,60.70908208,,,,,,,,3,Ontime,long,d,1,2.0493,1,2,6,0,1,,,,,
,0.15,,,,,,,,,d,orange,6035a9101015046a77be27b2,2021-09-27_17h30.38.283,forced_choiceRT_color,2021.2.3,Win32,60.70908208,,,,,,,,3,Ontime,long,d,1,2.0538,1,3,7,0,1,,,,,
,1.41,,,,,,,,,d,orange,6035a9101015046a77be27b2,2021-09-27_17h30.38.283,forced_choiceRT_color,2021.2.3,Win32,60.70908208,,,,,,,,3,Ontime,long,d,1,1.9932,2,0,8,0,1,,,,,
,1.94,,,,,,,,,f,blue,6035a9101015046a77be27b2,2021-09-27_17h30.38.283,forced_choiceRT_color,2021.2.3,Win32,60.70908208,,,,,,,,3,Slow,long,f,1,2.1623,2,1,9,1,1,,,,,
,0.49,,,,,,,,,k,purple,6035a9101015046a77be27b2,2021-09-27_17h30.38.283,forced_choiceRT_color,2021.2.3,Win32,60.70908208,,,,,,,,3,Slow,long,k,1,2.1546,2,2,10,3,1,,,,,
,1.47,,,,,,,,,j,red,6035a9101015046a77be27b2,2021-09-27_17h30.38.283,forced_choiceRT_color,2021.2.3,Win32,60.70908208,,,,,,,,3,Ontime,long,j,1,1.9411,2,3,11,2,1,,,,,
,1.47,,,,,,,,,j,red,6035a9101015046a77be27b2,2021-09-27_17h30.38.283,forced_choiceRT_color,2021.2.3,Win32,60.70908208,,,,,,,,3,Ontime,long,d,0,1.9534,3,0,12,2,1,,,,,
,0.54,,,,,,,,,d,orange,6035a9101015046a77be27b2,2021-09-27_17h30.38.283,forced_choiceRT_color,2021.2.3,Win32,60.70908208,,,,,,,,3,Ontime,long,d,1,2.038,3,1,13,0,1,,,,,
,1.34,,,,,,,,,d,orange,6035a9101015046a77be27b2,2021-09-27_17h30.38.283,forced_choiceRT_color,2021.2.3,Win32,60.70908208,,,,,,,,3,Ontime,long,d,1,1.9883,3,2,14,0,1,,,,,
,1.13,,,,,,,,,f,blue,6035a9101015046a77be27b2,2021-09-27_17h30.38.283,forced_choiceRT_color,2021.2.3,Win32,60.70908208,,,,,,,,3,Fast,long,f,1,1.8274,3,3,15,1,1,,,,,
,1.17,,,,,,,,,f,blue,6035a9101015046a77be27b2,2021-09-27_17h30.38.283,forced_choiceRT_color,2021.2.3,Win32,60.70908208,,,,,,,,3,Fast,long,f,1,1.8568,4,0,16,1,1,,,,,
,1.15,,,,,,,,,f,blue,6035a9101015046a77be27b2,2021-09-27_17h30.38.283,forced_choiceRT_color,2021.2.3,Win32,60.70908208,,,,,,,,3,Ontime,long,f,1,2.006,4,1,17,1,1,,,,,
,1.15,,,,,,,,,k,purple,6035a9101015046a77be27b2,2021-09-27_17h30.38.283,forced_choiceRT_color,2021.2.3,Win32,60.70908208,,,,,,,,3,Ontime,long,k,1,2.0427,4,2,18,3,1,,,,,
,1.65,,,,,,,,,d,orange,6035a9101015046a77be27b2,2021-09-27_17h30.38.283,forced_choiceRT_color,2021.2.3,Win32,60.70908208,,,,,,,,3,Slow,long,f,0,2.1792,4,3,19,0,1,,,,,
,0.82,,,,,,,,,k,purple,6035a9101015046a77be27b2,2021-09-27_17h30.38.283,forced_choiceRT_color,2021.2.3,Win32,60.70908208,,,,,,,,3,Ontime,long,k,1,2.0861,5,0,20,3,1,,,,,
,0.37,,,,,,,,,j,red,6035a9101015046a77be27b2,2021-09-27_17h30.38.283,forced_choiceRT_color,2021.2.3,Win32,60.70908208,,,,,,,,3,Ontime,long,j,1,2.0894,5,1,21,2,1,,,,,
,0.35,,,,,,,,,j,red,6035a9101015046a77be27b2,2021-09-27_17h30.38.283,forced_choiceRT_color,2021.2.3,Win32,60.70908208,,,,,,,,3,Ontime,long,j,1,2.0904,5,2,22,2,1,,,,,
,1.65,,,,,,,,,j,red,6035a9101015046a77be27b2,2021-09-27_17h30.38.283,forced_choiceRT_color,2021.2.3,Win32,60.70908208,,,,,,,,3,Slow,long,j,1,2.1217,5,3,23,2,1,,,,,
,0.43,,,,,,,,,j,red,6035a9101015046a77be27b2,2021-09-27_17h30.38.283,forced_choiceRT_color,2021.2.3,Win32,60.70908208,,,,,,,,3,Ontime,long,j,1,2.0102,6,0,24,2,1,,,,,
,1.18,,,,,,,,,f,blue,6035a9101015046a77be27b2,2021-09-27_17h30.38.283,forced_choiceRT_color,2021.2.3,Win32,60.70908208,,,,,,,,3,Ontime,long,f,1,2.0575,6,1,25,1,1,,,,,
,1.58,,,,,,,,,k,purple,6035a9101015046a77be27b2,2021-09-27_17h30.38.283,forced_choiceRT_color,2021.2.3,Win32,60.70908208,,,,,,,,3,Slow,long,k,1,2.1586,6,2,26,3,1,,,,,
,0.32,,,,,,,,,j,red,6035a9101015046a77be27b2,2021-09-27_17h30.38.283,forced_choiceRT_color,2021.2.3,Win32,60.70908208,,,,,,,,3,Ontime,long,j,1,2.0902,6,3,27,2,1,,,,,
,1.39,,,,,,,,,f,blue,6035a9101015046a77be27b2,2021-09-27_17h30.38.283,forced_choiceRT_color,2021.2.3,Win32,60.70908208,,,,,,,,3,Ontime,long,d,0,2.0872,7,0,28,1,1,,,,,
,1.83,,,,,,,,,d,orange,6035a9101015046a77be27b2,2021-09-27_17h30.38.283,forced_choiceRT_color,2021.2.3,Win32,60.70908208,,,,,,,,3,Slow,long,d,1,2.2207,7,1,29,0,1,,,,,
,1.73,,,,,,,,,k,purple,6035a9101015046a77be27b2,2021-09-27_17h30.38.283,forced_choiceRT_color,2021.2.3,Win32,60.70908208,,,,,,,,3,Ontime,long,d,0,2.0296,7,2,30,3,1,,,,,
,0.05,,,,,,,,,d,orange,6035a9101015046a77be27b2,2021-09-27_17h30.38.283,forced_choiceRT_color,2021.2.3,Win32,60.70908208,,,,,,,,3,Slow,long,d,1,2.1064,7,3,31,0,1,,,,,
,0.22,,,,,,,,,k,purple,6035a9101015046a77be27b2,2021-09-27_17h30.38.283,forced_choiceRT_color,2021.2.3,Win32,60.70908208,,,,,,,,3,Ontime,long,k,1,1.9559,8,0,32,3,1,,,,,
,1.49,,,,,,,,,f,blue,6035a9101015046a77be27b2,2021-09-27_17h30.38.283,forced_choiceRT_color,2021.2.3,Win32,60.70908208,,,,,,,,3,Ontime,long,f,1,1.9892,8,1,33,1,1,,,,,
,0.97,,,,,,,,,f,blue,6035a9101015046a77be27b2,2021-09-27_17h30.38.283,forced_choiceRT_color,2021.2.3,Win32,60.70908208,,,,,,,,3,Ontime,long,f,1,1.9028,8,2,34,1,1,,,,,
,0.03,,,,,,,,,j,red,6035a9101015046a77be27b2,2021-09-27_17h30.38.283,forced_choiceRT_color,2021.2.3,Win32,60.70908208,,,,,,,,3,Ontime,long,j,1,1.9444,8,3,35,2,1,,,,,
,1.27,,,,,,,,,j,red,6035a9101015046a77be27b2,2021-09-27_17h30.38.283,forced_choiceRT_color,2021.2.3,Win32,60.70908208,,,,,,,,3,Fast,long,j,1,1.861,9,0,36,2,1,,,,,
,1.74,,,,,,,,,j,red,6035a9101015046a77be27b2,2021-09-27_17h30.38.283,forced_choiceRT_color,2021.2.3,Win32,60.70908208,,,,,,,,3,Ontime,long,j,1,2.0397,9,1,37,2,1,,,,,
,0.17,,,,,,,,,k,purple,6035a9101015046a77be27b2,2021-09-27_17h30.38.283,forced_choiceRT_color,2021.2.3,Win32,60.70908208,,,,,,,,3,Ontime,long,k,1,2.038,9,2,38,3,1,,,,,
,0.37,,,,,,,,,k,purple,6035a9101015046a77be27b2,2021-09-27_17h30.38.283,forced_choiceRT_color,2021.2.3,Win32,60.70908208,,,,,,,,3,Ontime,long,k,1,2.0808,9,3,39,3,1,,,,,
,,,,,,,,,,,,6035a9101015046a77be27b2,2021-09-27_17h30.38.283,forced_choiceRT_color,2021.2.3,Win32,60.70908208,,,,,,,,,,,,,,,,,,,2,0,2,0,1
,1.74,,,,,,,,,d,orange,6035a9101015046a77be27b2,2021-09-27_17h30.38.283,forced_choiceRT_color,2021.2.3,Win32,60.70908208,,,,,,,,4,Ontime,long,d,1,2.025,0,0,0,0,1,,,,,
,0.11,,,,,,,,,d,orange,6035a9101015046a77be27b2,2021-09-27_17h30.38.283,forced_choiceRT_color,2021.2.3,Win32,60.70908208,,,,,,,,4,Slow,long,d,1,2.1606,0,1,1,0,1,,,,,
,0.28,,,,,,,,,j,red,6035a9101015046a77be27b2,2021-09-27_17h30.38.283,forced_choiceRT_color,2021.2.3,Win32,60.70908208,,,,,,,,4,Ontime,long,j,1,1.9926,0,2,2,2,1,,,,,
,1.02,,,,,,,,,f,blue,6035a9101015046a77be27b2,2021-09-27_17h30.38.283,forced_choiceRT_color,2021.2.3,Win32,60.70908208,,,,,,,,4,Fast,long,f,1,1.8786,0,3,3,1,1,,,,,
,0.97,,,,,,,,,d,orange,6035a9101015046a77be27b2,2021-09-27_17h30.38.283,forced_choiceRT_color,2021.2.3,Win32,60.70908208,,,,,,,,4,Ontime,long,d,1,1.9976,1,0,4,0,1,,,,,
,1.15,,,,,,,,,j,red,6035a9101015046a77be27b2,2021-09-27_17h30.38.283,forced_choiceRT_color,2021.2.3,Win32,60.70908208,,,,,,,,4,Fast,long,j,1,1.8533,1,1,5,2,1,,,,,
,1.6,,,,,,,,,d,orange,6035a9101015046a77be27b2,2021-09-27_17h30.38.283,forced_choiceRT_color,2021.2.3,Win32,60.70908208,,,,,,,,4,Ontime,long,d,1,1.9805,1,2,6,0,1,,,,,
,0.91,,,,,,,,,j,red,6035a9101015046a77be27b2,2021-09-27_17h30.38.283,forced_choiceRT_color,2021.2.3,Win32,60.70908208,,,,,,,,4,Ontime,long,j,1,1.9945,1,3,7,2,1,,,,,
,0.57,,,,,,,,,j,red,6035a9101015046a77be27b2,2021-09-27_17h30.38.283,forced_choiceRT_color,2021.2.3,Win32,60.70908208,,,,,,,,4,Ontime,long,j,1,1.9032,2,0,8,2,1,,,,,
,1.91,,,,,,,,,k,purple,6035a9101015046a77be27b2,2021-09-27_17h30.38.283,forced_choiceRT_color,2021.2.3,Win32,60.70908208,,,,,,,,4,Ontime,long,d,0,2.0952,2,1,9,3,1,,,,,
,0.25,,,,,,,,,k,purple,6035a9101015046a77be27b2,2021-09-27_17h30.38.283,forced_choiceRT_color,2021.2.3,Win32,60.70908208,,,,,,,,4,Ontime,long,k,1,2.0184,2,2,10,3,1,,,,,
,0.26,,,,,,,,,f,blue,6035a9101015046a77be27b2,2021-09-27_17h30.38.283,forced_choiceRT_color,2021.2.3,Win32,60.70908208,,,,,,,,4,Ontime,long,f,1,2.0047,2,3,11,1,1,,,,,
,0.74,,,,,,,,,d,orange,6035a9101015046a77be27b2,2021-09-27_17h30.38.283,forced_choiceRT_color,2021.2.3,Win32,60.70908208,,,,,,,,4,Slow,long,d,1,2.2088,3,0,12,0,1,,,,,
,0.72,,,,,,,,,j,red,6035a9101015046a77be27b2,2021-09-27_17h30.38.283,forced_choiceRT_color,2021.2.3,Win32,60.70908208,,,,,,,,4,Ontime,long,j,1,2.0105,3,1,13,2,1,,,,,
,0.79,,,,,,,,,k,purple,6035a9101015046a77be27b2,2021-09-27_17h30.38.283,forced_choiceRT_color,2021.2.3,Win32,60.70908208,,,,,,,,4,Ontime,long,k,1,1.9987,3,2,14,3,1,,,,,
,1.2,,,,,,,,,k,purple,6035a9101015046a77be27b2,2021-09-27_17h30.38.283,forced_choiceRT_color,2021.2.3,Win32,60.70908208,,,,,,,,4,Ontime,long,k,1,2.0309,3,3,15,3,1,,,,,
,0.1,,,,,,,,,k,purple,6035a9101015046a77be27b2,2021-09-27_17h30.38.283,forced_choiceRT_color,2021.2.3,Win32,60.70908208,,,,,,,,4,Ontime,long,k,1,2.0815,4,0,16,3,1,,,,,
,0.14,,,,,,,,,d,orange,6035a9101015046a77be27b2,2021-09-27_17h30.38.283,forced_choiceRT_color,2021.2.3,Win32,60.70908208,,,,,,,,4,Ontime,long,d,1,2.0974,4,1,17,0,1,,,,,
,0.06,,,,,,,,,j,red,6035a9101015046a77be27b2,2021-09-27_17h30.38.283,forced_choiceRT_color,2021.2.3,Win32,60.70908208,,,,,,,,4,Ontime,long,j,1,1.9802,4,2,18,2,1,,,,,
,1.76,,,,,,,,,f,blue,6035a9101015046a77be27b2,2021-09-27_17h30.38.283,forced_choiceRT_color,2021.2.3,Win32,60.70908208,,,,,,,,4,Ontime,long,k,0,1.9991,4,3,19,1,1,,,,,
,0.03,,,,,,,,,f,blue,6035a9101015046a77be27b2,2021-09-27_17h30.38.283,forced_choiceRT_color,2021.2.3,Win32,60.70908208,,,,,,,,4,Ontime,long,f,1,2.0282,5,0,20,1,1,,,,,
,0.65,,,,,,,,,d,orange,6035a9101015046a77be27b2,2021-09-27_17h30.38.283,forced_choiceRT_color,2021.2.3,Win32,60.70908208,,,,,,,,4,Ontime,long,j,0,1.9746,5,1,21,0,1,,,,,
,0.27,,,,,,,,,d,orange,6035a9101015046a77be27b2,2021-09-27_17h30.38.283,forced_choiceRT_color,2021.2.3,Win32,60.70908208,,,,,,,,4,Ontime,long,d,1,2.0756,5,2,22,0,1,,,,,
,0.49,,,,,,,,,f,blue,6035a9101015046a77be27b2,2021-09-27_17h30.38.283,forced_choiceRT_color,2021.2.3,Win32,60.70908208,,,,,,,,4,Ontime,long,f,1,1.9938,5,3,23,1,1,,,,,
,1.73,,,,,,,,,j,red,6035a9101015046a77be27b2,2021-09-27_17h30.38.283,forced_choiceRT_color,2021.2.3,Win32,60.70908208,,,,,,,,4,Ontime,long,d,0,2.0765,6,0,24,2,1,,,,,
,1.39,,,,,,,,,f,blue,6035a9101015046a77be27b2,2021-09-27_17h30.38.283,forced_choiceRT_color,2021.2.3,Win32,60.70908208,,,,,,,,4,Ontime,long,f,1,2.0062,6,1,25,1,1,,,,,
,0.28,,,,,,,,,j,red,6035a9101015046a77be27b2,2021-09-27_17h30.38.283,forced_choiceRT_color,2021.2.3,Win32,60.70908208,,,,,,,,4,Ontime,long,j,1,1.9262,6,2,26,2,1,,,,,
,0.28,,,,,,,,,j,red,6035a9101015046a77be27b2,2021-09-27_17h30.38.283,forced_choiceRT_color,2021.2.3,Win32,60.70908208,,,,,,,,4,Ontime,long,j,1,2.0382,6,3,27,2,1,,,,,
,0.76,,,,,,,,,k,purple,6035a9101015046a77be27b2,2021-09-27_17h30.38.283,forced_choiceRT_color,2021.2.3,Win32,60.70908208,,,,,,,,4,Ontime,long,k,1,2.0631,7,0,28,3,1,,,,,
,0.17,,,,,,,,,j,red,6035a9101015046a77be27b2,2021-09-27_17h30.38.283,forced_choiceRT_color,2021.2.3,Win32,60.70908208,,,,,,,,4,Ontime,long,j,1,2.0526,7,1,29,2,1,,,,,
,1.64,,,,,,,,,f,blue,6035a9101015046a77be27b2,2021-09-27_17h30.38.283,forced_choiceRT_color,2021.2.3,Win32,60.70908208,,,,,,,,4,Slow,long,f,1,2.231,7,2,30,1,1,,,,,
,0.13,,,,,,,,,f,blue,6035a9101015046a77be27b2,2021-09-27_17h30.38.283,forced_choiceRT_color,2021.2.3,Win32,60.70908208,,,,,,,,4,Ontime,long,f,1,2.066,7,3,31,1,1,,,,,
,0.59,,,,,,,,,d,orange,6035a9101015046a77be27b2,2021-09-27_17h30.38.283,forced_choiceRT_color,2021.2.3,Win32,60.70908208,,,,,,,,4,Ontime,long,d,1,2.0346,8,0,32,0,1,,,,,
,1.05,,,,,,,,,f,blue,6035a9101015046a77be27b2,2021-09-27_17h30.38.283,forced_choiceRT_color,2021.2.3,Win32,60.70908208,,,,,,,,4,Ontime,long,f,1,2.0829,8,1,33,1,1,,,,,
,1.14,,,,,,,,,f,blue,6035a9101015046a77be27b2,2021-09-27_17h30.38.283,forced_choiceRT_color,2021.2.3,Win32,60.70908208,,,,,,,,4,Slow,long,f,1,2.1195,8,2,34,1,1,,,,,
,0.14,,,,,,,,,d,orange,6035a9101015046a77be27b2,2021-09-27_17h30.38.283,forced_choiceRT_color,2021.2.3,Win32,60.70908208,,,,,,,,4,Ontime,long,d,1,2.003,8,3,35,0,1,,,,,
,1.53,,,,,,,,,k,purple,6035a9101015046a77be27b2,2021-09-27_17h30.38.283,forced_choiceRT_color,2021.2.3,Win32,60.70908208,,,,,,,,4,Ontime,long,j,0,2.0358,9,0,36,3,1,,,,,
,0.13,,,,,,,,,k,purple,6035a9101015046a77be27b2,2021-09-27_17h30.38.283,forced_choiceRT_color,2021.2.3,Win32,60.70908208,,,,,,,,4,Ontime,long,k,1,2.004,9,1,37,3,1,,,,,
,1.69,,,,,,,,,k,purple,6035a9101015046a77be27b2,2021-09-27_17h30.38.283,forced_choiceRT_color,2021.2.3,Win32,60.70908208,,,,,,,,4,Slow,long,k,1,2.1243,9,2,38,3,1,,,,,
,0.08,,,,,,,,,k,purple,6035a9101015046a77be27b2,2021-09-27_17h30.38.283,forced_choiceRT_color,2021.2.3,Win32,60.70908208,,,,,,,,4,Ontime,long,k,1,1.9631,9,3,39,3,1,,,,,
,,,,,,,,,,,,6035a9101015046a77be27b2,2021-09-27_17h30.38.283,forced_choiceRT_color,2021.2.3,Win32,60.70908208,,,,,,,,,,,,,,,,,,,3,0,3,0,1
,0.58,,,,,,,,,d,orange,6035a9101015046a77be27b2,2021-09-27_17h30.38.283,forced_choiceRT_color,2021.2.3,Win32,60.70908208,,,,,,,,5,Ontime,long,d,1,2.0825,0,0,0,0,1,,,,,
,1.49,,,,,,,,,d,orange,6035a9101015046a77be27b2,2021-09-27_17h30.38.283,forced_choiceRT_color,2021.2.3,Win32,60.70908208,,,,,,,,5,Ontime,long,d,1,2.0755,0,1,1,0,1,,,,,
,1.54,,,,,,,,,f,blue,6035a9101015046a77be27b2,2021-09-27_17h30.38.283,forced_choiceRT_color,2021.2.3,Win32,60.70908208,,,,,,,,5,Slow,long,f,1,2.1535,0,2,2,1,1,,,,,
,0.83,,,,,,,,,j,red,6035a9101015046a77be27b2,2021-09-27_17h30.38.283,forced_choiceRT_color,2021.2.3,Win32,60.70908208,,,,,,,,5,Fast,long,j,1,1.7241,0,3,3,2,1,,,,,
,1.08,,,,,,,,,f,blue,6035a9101015046a77be27b2,2021-09-27_17h30.38.283,forced_choiceRT_color,2021.2.3,Win32,60.70908208,,,,,,,,5,Fast,long,f,1,1.8396,1,0,4,1,1,,,,,
,0.91,,,,,,,,,k,purple,6035a9101015046a77be27b2,2021-09-27_17h30.38.283,forced_choiceRT_color,2021.2.3,Win32,60.70908208,,,,,,,,5,Slow,long,k,1,2.1035,1,1,5,3,1,,,,,
,0.88,,,,,,,,,f,blue,6035a9101015046a77be27b2,2021-09-27_17h30.38.283,forced_choiceRT_color,2021.2.3,Win32,60.70908208,,,,,,,,5,Ontime,long,f,1,2.0143,1,2,6,1,1,,,,,
,1.9,,,,,,,,,d,orange,6035a9101015046a77be27b2,2021-09-27_17h30.38.283,forced_choiceRT_color,2021.2.3,Win32,60.70908208,,,,,,,,5,Slow,long,d,1,2.1126,1,3,7,0,1,,,,,
,1.3,,,,,,,,,j,red,6035a9101015046a77be27b2,2021-09-27_17h30.38.283,forced_choiceRT_color,2021.2.3,Win32,60.70908208,,,,,,,,5,Ontime,long,j,1,2.0535,2,0,8,2,1,,,,,
,0.1,,,,,,,,,f,blue,6035a9101015046a77be27b2,2021-09-27_17h30.38.283,forced_choiceRT_color,2021.2.3,Win32,60.70908208,,,,,,,,5,Ontime,long,f,1,2.0651,2,1,9,1,1,,,,,
,1.34,,,,,,,,,j,red,6035a9101015046a77be27b2,2021-09-27_17h30.38.283,forced_choiceRT_color,2021.2.3,Win32,60.70908208,,,,,,,,5,Ontime,long,j,1,2.0992,2,2,10,2,1,,,,,
,0.23,,,,,,,,,k,purple,6035a9101015046a77be27b2,2021-09-27_17h30.38.283,forced_choiceRT_color,2021.2.3,Win32,60.70908208,,,,,,,,5,Ontime,long,k,1,2.0321,2,3,11,3,1,,,,,
,0.43,,,,,,,,,j,red,6035a9101015046a77be27b2,2021-09-27_17h30.38.283,forced_choiceRT_color,2021.2.3,Win32,60.70908208,,,,,,,,5,Ontime,long,j,1,2.0937,3,0,12,2,1,,,,,
,1.48,,,,,,,,,f,blue,6035a9101015046a77be27b2,2021-09-27_17h30.38.283,forced_choiceRT_color,2021.2.3,Win32,60.70908208,,,,,,,,5,Slow,long,f,1,2.1325,3,1,13,1,1,,,,,
,1.3,,,,,,,,,j,red,6035a9101015046a77be27b2,2021-09-27_17h30.38.283,forced_choiceRT_color,2021.2.3,Win32,60.70908208,,,,,,,,5,Slow,long,j,1,2.1006,3,2,14,2,1,,,,,
,1.34,,,,,,,,,k,purple,6035a9101015046a77be27b2,2021-09-27_17h30.38.283,forced_choiceRT_color,2021.2.3,Win32,60.70908208,,,,,,,,5,Ontime,long,k,1,1.9429,3,3,15,3,1,,,,,
,0.35,,,,,,,,,j,red,6035a9101015046a77be27b2,2021-09-27_17h30.38.283,forced_choiceRT_color,2021.2.3,Win32,60.70908208,,,,,,,,5,Ontime,long,j,1,1.9891,4,0,16,2,1,,,,,
,0.95,,,,,,,,,f,blue,6035a9101015046a77be27b2,2021-09-27_17h30.38.283,forced_choiceRT_color,2021.2.3,Win32,60.70908208,,,,,,,,5,Ontime,long,f,1,2.0442,4,1,17,1,1,,,,,
,1.15,,,,,,,,,d,orange,6035a9101015046a77be27b2,2021-09-27_17h30.38.283,forced_choiceRT_color,2021.2.3,Win32,60.70908208,,,,,,,,5,Ontime,long,d,1,2.0164,4,2,18,0,1,,,,,
,1.43,,,,,,,,,k,purple,6035a9101015046a77be27b2,2021-09-27_17h30.38.283,forced_choiceRT_color,2021.2.3,Win32,60.70908208,,,,,,,,5,Ontime,long,k,1,2.0737,4,3,19,3,1,,,,,
,1.6,,,,,,,,,j,red,6035a9101015046a77be27b2,2021-09-27_17h30.38.283,forced_choiceRT_color,2021.2.3,Win32,60.70908208,,,,,,,,5,Slow,long,j,1,2.1121,5,0,20,2,1,,,,,
,1.15,,,,,,,,,d,orange,6035a9101015046a77be27b2,2021-09-27_17h30.38.283,forced_choiceRT_color,2021.2.3,Win32,60.70908208,,,,,,,,5,Ontime,long,d,1,1.9536,5,1,21,0,1,,,,,
,1.2,,,,,,,,,k,purple,6035a9101015046a77be27b2,2021-09-27_17h30.38.283,forced_choiceRT_color,2021.2.3,Win32,60.70908208,,,,,,,,5,Fast,long,k,1,1.8633,5,2,22,3,1,,,,,
,1.7,,,,,,,,,k,purple,6035a9101015046a77be27b2,2021-09-27_17h30.38.283,forced_choiceRT_color,2021.2.3,Win32,60.70908208,,,,,,,,5,Ontime,long,j,0,1.998,5,3,23,3,1,,,,,
,1.07,,,,,,,,,j,red,6035a9101015046a77be27b2,2021-09-27_17h30.38.283,forced_choiceRT_color,2021.2.3,Win32,60.70908208,,,,,,,,5,Ontime,long,j,1,1.936,6,0,24,2,1,,,,,
,1.83,,,,,,,,,j,red,6035a9101015046a77be27b2,2021-09-27_17h30.38.283,forced_choiceRT_color,2021.2.3,Win32,60.70908208,,,,,,,,5,Ontime,long,k,0,2.0406,6,1,25,2,1,,,,,
,1.13,,,,,,,,,d,orange,6035a9101015046a77be27b2,2021-09-27_17h30.38.283,forced_choiceRT_color,2021.2.3,Win32,60.70908208,,,,,,,,5,Ontime,long,d,1,1.957,6,2,26,0,1,,,,,
,0.72,,,,,,,,,k,purple,6035a9101015046a77be27b2,2021-09-27_17h30.38.283,forced_choiceRT_color,2021.2.3,Win32,60.70908208,,,,,,,,5,Ontime,long,k,1,1.9969,6,3,27,3,1,,,,,
,1.17,,,,,,,,,f,blue,6035a9101015046a77be27b2,2021-09-27_17h30.38.283,forced_choiceRT_color,2021.2.3,Win32,60.70908208,,,,,,,,5,Ontime,long,f,1,1.9894,7,0,28,1,1,,,,,
,1.77,,,,,,,,,k,purple,6035a9101015046a77be27b2,2021-09-27_17h30.38.283,forced_choiceRT_color,2021.2.3,Win32,60.70908208,,,,,,,,5,Ontime,long,k,1,2.0534,7,1,29,3,1,,,,,
,0.08,,,,,,,,,d,orange,6035a9101015046a77be27b2,2021-09-27_17h30.38.283,forced_choiceRT_color,2021.2.3,Win32,60.70908208,,,,,,,,5,Ontime,long,d,1,1.9555,7,2,30,0,1,,,,,
,0.87,,,,,,,,,f,blue,6035a9101015046a77be27b2,2021-09-27_17h30.38.283,forced_choiceRT_color,2021.2.3,Win32,60.70908208,,,,,,,,5,Ontime,long,f,1,1.9402,7,3,31,1,1,,,,,
,1.78,,,,,,,,,f,blue,6035a9101015046a77be27b2,2021-09-27_17h30.38.283,forced_choiceRT_color,2021.2.3,Win32,60.70908208,,,,,,,,5,Ontime,long,k,0,2.0221,8,0,32,1,1,,,,,
,1.73,,,,,,,,,d,orange,6035a9101015046a77be27b2,2021-09-27_17h30.38.283,forced_choiceRT_color,2021.2.3,Win32,60.70908208,,,,,,,,5,Slow,long,j,0,2.1623,8,1,33,0,1,,,,,
,0.81,,,,,,,,,k,purple,6035a9101015046a77be27b2,2021-09-27_17h30.38.283,forced_choiceRT_color,2021.2.3,Win32,60.70908208,,,,,,,,5,Ontime,long,k,1,2.0886,8,2,34,3,1,,,,,
,0.19,,,,,,,,,k,purple,6035a9101015046a77be27b2,2021-09-27_17h30.38.283,forced_choiceRT_color,2021.2.3,Win32,60.70908208,,,,,,,,5,Slow,long,k,1,2.1083,8,3,35,3,1,,,,,
,0.65,,,,,,,,,f,blue,6035a9101015046a77be27b2,2021-09-27_17h30.38.283,forced_choiceRT_color,2021.2.3,Win32,60.70908208,,,,,,,,5,Ontime,long,f,1,1.9745,9,0,36,1,1,,,,,
,0.26,,,,,,,,,d,orange,6035a9101015046a77be27b2,2021-09-27_17h30.38.283,forced_choiceRT_color,2021.2.3,Win32,60.70908208,,,,,,,,5,Ontime,long,d,1,2.0339,9,1,37,0,1,,,,,
,1.27,,,,,,,,,j,red,6035a9101015046a77be27b2,2021-09-27_17h30.38.283,forced_choiceRT_color,2021.2.3,Win32,60.70908208,,,,,,,,5,Ontime,long,f,0,2.0719,9,2,38,2,1,,,,,
,0.78,,,,,,,,,d,orange,6035a9101015046a77be27b2,2021-09-27_17h30.38.283,forced_choiceRT_color,2021.2.3,Win32,60.70908208,,,,,,,,5,Ontime,long,d,1,1.979,9,3,39,0,1,,,,,
,,,,,,,,,,,,6035a9101015046a77be27b2,2021-09-27_17h30.38.283,forced_choiceRT_color,2021.2.3,Win32,60.70908208,,,,,,,,,,,,,,,,,,,4,0,4,0,1
,1.78,,,,,,,,,d,orange,6035a9101015046a77be27b2,2021-09-27_17h30.38.283,forced_choiceRT_color,2021.2.3,Win32,60.70908208,,,,,,,,6,Slow,long,d,1,2.1835,0,0,0,0,1,,,,,
,0.31,,,,,,,,,j,red,6035a9101015046a77be27b2,2021-09-27_17h30.38.283,forced_choiceRT_color,2021.2.3,Win32,60.70908208,,,,,,,,6,Ontime,long,j,1,2.0405,0,1,1,2,1,,,,,
,0.87,,,,,,,,,d,orange,6035a9101015046a77be27b2,2021-09-27_17h30.38.283,forced_choiceRT_color,2021.2.3,Win32,60.70908208,,,,,,,,6,Ontime,long,d,1,2.0055,0,2,2,0,1,,,,,
,1.03,,,,,,,,,f,blue,6035a9101015046a77be27b2,2021-09-27_17h30.38.283,forced_choiceRT_color,2021.2.3,Win32,60.70908208,,,,,,,,6,Ontime,long,f,1,1.9368,0,3,3,1,1,,,,,
,0.46,,,,,,,,,d,orange,6035a9101015046a77be27b2,2021-09-27_17h30.38.283,forced_choiceRT_color,2021.2.3,Win32,60.70908208,,,,,,,,6,Ontime,long,d,1,2.0037,1,0,4,0,1,,,,,
,0.99,,,,,,,,,f,blue,6035a9101015046a77be27b2,2021-09-27_17h30.38.283,forced_choiceRT_color,2021.2.3,Win32,60.70908208,,,,,,,,6,Ontime,long,f,1,1.9755,1,1,5,1,1,,,,,
,0.39,,,,,,,,,k,purple,6035a9101015046a77be27b2,2021-09-27_17h30.38.283,forced_choiceRT_color,2021.2.3,Win32,60.70908208,,,,,,,,6,Ontime,long,k,1,1.9589,1,2,6,3,1,,,,,
,1.07,,,,,,,,,d,orange,6035a9101015046a77be27b2,2021-09-27_17h30.38.283,forced_choiceRT_color,2021.2.3,Win32,60.70908208,,,,,,,,6,Ontime,long,d,1,2.0864,1,3,7,0,1,,,,,
,1.62,,,,,,,,,d,orange,6035a9101015046a77be27b2,2021-09-27_17h30.38.283,forced_choiceRT_color,2021.2.3,Win32,60.70908208,,,,,,,,6,Slow,long,d,1,2.179,2,0,8,0,1,,,,,
,1.78,,,,,,,,,j,red,6035a9101015046a77be27b2,2021-09-27_17h30.38.283,forced_choiceRT_color,2021.2.3,Win32,60.70908208,,,,,,,,6,Ontime,long,d,0,2.0583,2,1,9,2,1,,,,,
,1.13,,,,,,,,,d,orange,6035a9101015046a77be27b2,2021-09-27_17h30.38.283,forced_choiceRT_color,2021.2.3,Win32,60.70908208,,,,,,,,6,Ontime,long,d,1,1.9205,2,2,10,0,1,,,,,
,0.69,,,,,,,,,j,red,6035a9101015046a77be27b2,2021-09-27_17h30.38.283,forced_choiceRT_color,2021.2.3,Win32,60.70908208,,,,,,,,6,Ontime,long,f,0,1.9829,2,3,11,2,1,,,,,
,1.01,,,,,,,,,f,blue,6035a9101015046a77be27b2,2021-09-27_17h30.38.283,forced_choiceRT_color,2021.2.3,Win32,60.70908208,,,,,,,,6,Ontime,long,f,1,1.9466,3,0,12,1,1,,,,,
,0,,,,,,,,,j,red,6035a9101015046a77be27b2,2021-09-27_17h30.38.283,forced_choiceRT_color,2021.2.3,Win32,60.70908208,,,,,,,,6,Ontime,long,j,1,2.0238,3,1,13,2,1,,,,,
,0.41,,,,,,,,,j,red,6035a9101015046a77be27b2,2021-09-27_17h30.38.283,forced_choiceRT_color,2021.2.3,Win32,60.70908208,,,,,,,,6,Ontime,long,j,1,1.9943,3,2,14,2,1,,,,,
,0.66,,,,,,,,,k,purple,6035a9101015046a77be27b2,2021-09-27_17h30.38.283,forced_choiceRT_color,2021.2.3,Win32,60.70908208,,,,,,,,6,Ontime,long,k,1,2.015,3,3,15,3,1,,,,,
,0.28,,,,,,,,,k,purple,6035a9101015046a77be27b2,2021-09-27_17h30.38.283,forced_choiceRT_color,2021.2.3,Win32,60.70908208,,,,,,,,6,Ontime,long,k,1,2.0947,4,0,16,3,1,,,,,
,1.72,,,,,,,,,k,purple,6035a9101015046a77be27b2,2021-09-27_17h30.38.283,forced_choiceRT_color,2021.2.3,Win32,60.70908208,,,,,,,,6,Slow,long,k,1,2.2735,4,1,17,3,1,,,,,
,0.9,,,,,,,,,d,orange,6035a9101015046a77be27b2,2021-09-27_17h30.38.283,forced_choiceRT_color,2021.2.3,Win32,60.70908208,,,,,,,,6,Ontime,long,d,1,2.0858,4,2,18,0,1,,,,,
,1.69,,,,,,,,,f,blue,6035a9101015046a77be27b2,2021-09-27_17h30.38.283,forced_choiceRT_color,2021.2.3,Win32,60.70908208,,,,,,,,6,Slow,long,j,0,2.1286,4,3,19,1,1,,,,,
,0.24,,,,,,,,,f,blue,6035a9101015046a77be27b2,2021-09-27_17h30.38.283,forced_choiceRT_color,2021.2.3,Win32,60.70908208,,,,,,,,6,Ontime,long,f,1,2.0702,5,0,20,1,1,,,,,
,0.09,,,,,,,,,k,purple,6035a9101015046a77be27b2,2021-09-27_17h30.38.283,forced_choiceRT_color,2021.2.3,Win32,60.70908208,,,,,,,,6,Ontime,long,k,1,2.0213,5,1,21,3,1,,,,,
,1.36,,,,,,,,,f,blue,6035a9101015046a77be27b2,2021-09-27_17h30.38.283,forced_choiceRT_color,2021.2.3,Win32,60.70908208,,,,,,,,6,Ontime,long,f,1,2.0462,5,2,22,1,1,,,,,
,1.31,,,,,,,,,k,purple,6035a9101015046a77be27b2,2021-09-27_17h30.38.283,forced_choiceRT_color,2021.2.3,Win32,60.70908208,,,,,,,,6,Ontime,long,k,1,2.0798,5,3,23,3,1,,,,,
,0.6,,,,,,,,,j,red,6035a9101015046a77be27b2,2021-09-27_17h30.38.283,forced_choiceRT_color,2021.2.3,Win32,60.70908208,,,,,,,,6,Ontime,long,f,0,1.9741,6,0,24,2,1,,,,,
,0.71,,,,,,,,,f,blue,6035a9101015046a77be27b2,2021-09-27_17h30.38.283,forced_choiceRT_color,2021.2.3,Win32,60.70908208,,,,,,,,6,Fast,long,f,1,1.8398,6,1,25,1,1,,,,,
,1.18,,,,,,,,,f,blue,6035a9101015046a77be27b2,2021-09-27_17h30.38.283,forced_choiceRT_color,2021.2.3,Win32,60.70908208,,,,,,,,6,Ontime,long,f,1,1.9759,6,2,26,1,1,,,,,
,1.17,,,,,,,,,d,orange,6035a9101015046a77be27b2,2021-09-27_17h30.38.283,forced_choiceRT_color,2021.2.3,Win32,60.70908208,,,,,,,,6,Ontime,long,d,1,2.0558,6,3,27,0,1,,,,,
,1.77,,,,,,,,,k,purple,6035a9101015046a77be27b2,2021-09-27_17h30.38.283,forced_choiceRT_color,2021.2.3,Win32,60.70908208,,,,,,,,6,Slow,long,k,1,2.2888,7,0,28,3,1,,,,,
,1.92,,,,,,,,,d,orange,6035a9101015046a77be27b2,2021-09-27_17h30.38.283,forced_choiceRT_color,2021.2.3,Win32,60.70908208,,,,,,,,6,Slow,long,k,0,2.1268,7,1,29,0,1,,,,,
,1.61,,,,,,,,,j,red,6035a9101015046a77be27b2,2021-09-27_17h30.38.283,forced_choiceRT_color,2021.2.3,Win32,60.70908208,,,,,,,,6,Ontime,long,j,1,2.0903,7,2,30,2,1,,,,,
,0.34,,,,,,,,,f,blue,6035a9101015046a77be27b2,2021-09-27_17h30.38.283,forced_choiceRT_color,2021.2.3,Win32,60.70908208,,,,,,,,6,Ontime,long,f,1,2.0701,7,3,31,1,1,,,,,
,1.56,,,,,,,,,k,purple,6035a9101015046a77be27b2,2021-09-27_17h30.38.283,forced_choiceRT_color,2021.2.3,Win32,60.70908208,,,,,,,,6,Slow,long,k,1,2.2225,8,0,32,3,1,,,,,
,0.15,,,,,,,,,j,red,6035a9101015046a77be27b2,2021-09-27_17h30.38.283,forced_choiceRT_color,2021.2.3,Win32,60.70908208,,,,,,,,6,Ontime,long,j,1,2.006,8,1,33,2,1,,,,,
,1.53,,,,,,,,,j,red,6035a9101015046a77be27b2,2021-09-27_17h30.38.283,forced_choiceRT_color,2021.2.3,Win32,60.70908208,,,,,,,,6,Ontime,long,j,1,2.0196,8,2,34,2,1,,,,,
,0.99,,,,,,,,,k,purple,6035a9101015046a77be27b2,2021-09-27_17h30.38.283,forced_choiceRT_color,2021.2.3,Win32,60.70908208,,,,,,,,6,Ontime,long,k,1,2.0695,8,3,35,3,1,,,,,
,1.57,,,,,,,,,k,purple,6035a9101015046a77be27b2,2021-09-27_17h30.38.283,forced_choiceRT_color,2021.2.3,Win32,60.70908208,,,,,,,,6,Ontime,long,k,1,2.021,9,0,36,3,1,,,,,
,0.73,,,,,,,,,d,orange,6035a9101015046a77be27b2,2021-09-27_17h30.38.283,forced_choiceRT_color,2021.2.3,Win32,60.70908208,,,,,,,,6,Ontime,long,d,1,2.0406,9,1,37,0,1,,,,,
,0.68,,,,,,,,,j,red,6035a9101015046a77be27b2,2021-09-27_17h30.38.283,forced_choiceRT_color,2021.2.3,Win32,60.70908208,,,,,,,,6,Ontime,long,f,0,2.0956,9,2,38,2,1,,,,,
,0.39,,,,,,,,,f,blue,6035a9101015046a77be27b2,2021-09-27_17h30.38.283,forced_choiceRT_color,2021.2.3,Win32,60.70908208,,,,,,,,6,Ontime,long,f,1,2.0091,9,3,39,1,1,,,,,
,,,,,,,,,,,,6035a9101015046a77be27b2,2021-09-27_17h30.38.283,forced_choiceRT_color,2021.2.3,Win32,60.70908208,,,,,,,,,,,,,,,,,,,5,0,5,0,1
,1.35,,,,,,,,,f,blue,6035a9101015046a77be27b2,2021-09-27_17h30.38.283,forced_choiceRT_color,2021.2.3,Win32,60.70908208,,,,,,,,7,Ontime,long,f,1,2.0577,0,0,0,1,1,,,,,
,0.66,,,,,,,,,d,orange,6035a9101015046a77be27b2,2021-09-27_17h30.38.283,forced_choiceRT_color,2021.2.3,Win32,60.70908208,,,,,,,,7,Slow,long,d,1,2.1033,0,1,1,0,1,,,,,
,1.15,,,,,,,,,j,red,6035a9101015046a77be27b2,2021-09-27_17h30.38.283,forced_choiceRT_color,2021.2.3,Win32,60.70908208,,,,,,,,7,Ontime,long,j,1,1.9243,0,2,2,2,1,,,,,
,1.12,,,,,,,,,k,purple,6035a9101015046a77be27b2,2021-09-27_17h30.38.283,forced_choiceRT_color,2021.2.3,Win32,60.70908208,,,,,,,,7,Ontime,long,k,1,1.9725,0,3,3,3,1,,,,,
,1.58,,,,,,,,,f,blue,6035a9101015046a77be27b2,2021-09-27_17h30.38.283,forced_choiceRT_color,2021.2.3,Win32,60.70908208,,,,,,,,7,Ontime,long,j,0,2.0481,1,0,4,1,1,,,,,
,1.01,,,,,,,,,d,orange,6035a9101015046a77be27b2,2021-09-27_17h30.38.283,forced_choiceRT_color,2021.2.3,Win32,60.70908208,,,,,,,,7,Ontime,long,d,1,2.0058,1,1,5,0,1,,,,,
,1.33,,,,,,,,,j,red,6035a9101015046a77be27b2,2021-09-27_17h30.38.283,forced_choiceRT_color,2021.2.3,Win32,60.70908208,,,,,,,,7,Slow,long,j,1,2.1034,1,2,6,2,1,,,,,
,1.22,,,,,,,,,d,orange,6035a9101015046a77be27b2,2021-09-27_17h30.38.283,forced_choiceRT_color,2021.2.3,Win32,60.70908208,,,,,,,,7,Ontime,long,d,1,2.0369,1,3,7,0,1,,,,,
,1.84,,,,,,,,,j,red,6035a9101015046a77be27b2,2021-09-27_17h30.38.283,forced_choiceRT_color,2021.2.3,Win32,60.70908208,,,,,,,,7,Slow,long,f,0,2.2028,2,0,8,2,1,,,,,
,1.46,,,,,,,,,d,orange,6035a9101015046a77be27b2,2021-09-27_17h30.38.283,forced_choiceRT_color,2021.2.3,Win32,60.70908208,,,,,,,,7,Slow,long,d,1,2.1022,2,1,9,0,1,,,,,
,0.82,,,,,,,,,d,orange,6035a9101015046a77be27b2,2021-09-27_17h30.38.283,forced_choiceRT_color,2021.2.3,Win32,60.70908208,,,,,,,,7,Ontime,long,d,1,2.0376,2,2,10,0,1,,,,,
,0.94,,,,,,,,,k,purple,6035a9101015046a77be27b2,2021-09-27_17h30.38.283,forced_choiceRT_color,2021.2.3,Win32,60.70908208,,,,,,,,7,Ontime,long,k,1,2.0028,2,3,11,3,1,,,,,
,0.47,,,,,,,,,j,red,6035a9101015046a77be27b2,2021-09-27_17h30.38.283,forced_choiceRT_color,2021.2.3,Win32,60.70908208,,,,,,,,7,Ontime,long,j,1,1.9594,3,0,12,2,1,,,,,
,0.53,,,,,,,,,f,blue,6035a9101015046a77be27b2,2021-09-27_17h30.38.283,forced_choiceRT_color,2021.2.3,Win32,60.70908208,,,,,,,,7,Ontime,long,f,1,1.9736,3,1,13,1,1,,,,,
,1.72,,,,,,,,,f,blue,6035a9101015046a77be27b2,2021-09-27_17h30.38.283,forced_choiceRT_color,2021.2.3,Win32,60.70908208,,,,,,,,7,Slow,long,j,0,2.2211,3,2,14,1,1,,,,,
,1.67,,,,,,,,,j,red,6035a9101015046a77be27b2,2021-09-27_17h30.38.283,forced_choiceRT_color,2021.2.3,Win32,60.70908208,,,,,,,,7,Ontime,long,j,1,1.9862,3,3,15,2,1,,,,,
,0.12,,,,,,,,,f,blue,6035a9101015046a77be27b2,2021-09-27_17h30.38.283,forced_choiceRT_color,2021.2.3,Win32,60.70908208,,,,,,,,7,Ontime,long,f,1,2.0107,4,0,16,1,1,,,,,
,1.65,,,,,,,,,d,orange,6035a9101015046a77be27b2,2021-09-27_17h30.38.283,forced_choiceRT_color,2021.2.3,Win32,60.70908208,,,,,,,,7,Ontime,long,f,0,2.0577,4,1,17,0,1,,,,,
,1.11,,,,,,,,,f,blue,6035a9101015046a77be27b2,2021-09-27_17h30.38.283,forced_choiceRT_color,2021.2.3,Win32,60.70908208,,,,,,,,7,Slow,long,f,1,2.1039,4,2,18,1,1,,,,,
,0.81,,,,,,,,,f,blue,6035a9101015046a77be27b2,2021-09-27_17h30.38.283,forced_choiceRT_color,2021.2.3,Win32,60.70908208,,,,,,,,7,Ontime,long,f,1,2.0559,4,3,19,1,1,,,,,
,0.79,,,,,,,,,j,red,6035a9101015046a77be27b2,2021-09-27_17h30.38.283,forced_choiceRT_color,2021.2.3,Win32,60.70908208,,,,,,,,7,Ontime,long,d,0,1.9533,5,0,20,2,1,,,,,
,0.76,,,,,,,,,k,purple,6035a9101015046a77be27b2,2021-09-27_17h30.38.283,forced_choiceRT_color,2021.2.3,Win32,60.70908208,,,,,,,,7,Ontime,long,k,1,1.9796,5,1,21,3,1,,,,,
,0.18,,,,,,,,,j,red,6035a9101015046a77be27b2,2021-09-27_17h30.38.283,forced_choiceRT_color,2021.2.3,Win32,60.70908208,,,,,,,,7,Ontime,long,j,1,1.9711,5,2,22,2,1,,,,,
,0.66,,,,,,,,,k,purple,6035a9101015046a77be27b2,2021-09-27_17h30.38.283,forced_choiceRT_color,2021.2.3,Win32,60.70908208,,,,,,,,7,Ontime,long,k,1,2.071,5,3,23,3,1,,,,,
,0.34,,,,,,,,,k,purple,6035a9101015046a77be27b2,2021-09-27_17h30.38.283,forced_choiceRT_color,2021.2.3,Win32,60.70908208,,,,,,,,7,Ontime,long,k,1,2.0493,6,0,24,3,1,,,,,
,0.58,,,,,,,,,f,blue,6035a9101015046a77be27b2,2021-09-27_17h30.38.283,forced_choiceRT_color,2021.2.3,Win32,60.70908208,,,,,,,,7,Ontime,long,f,1,1.9974,6,1,25,1,1,,,,,
,1.18,,,,,,,,,k,purple,6035a9101015046a77be27b2,2021-09-27_17h30.38.283,forced_choiceRT_color,2021.2.3,Win32,60.70908208,,,,,,,,7,Ontime,long,k,1,2.0695,6,2,26,3,1,,,,,
,0.88,,,,,,,,,k,purple,6035a9101015046a77be27b2,2021-09-27_17h30.38.283,forced_choiceRT_color,2021.2.3,Win32,60.70908208,,,,,,,,7,Ontime,long,k,1,2.0231,6,3,27,3,1,,,,,
,0.27,,,,,,,,,j,red,6035a9101015046a77be27b2,2021-09-27_17h30.38.283,forced_choiceRT_color,2021.2.3,Win32,60.70908208,,,,,,,,7,Ontime,long,j,1,1.926,7,0,28,2,1,,,,,
,0.48,,,,,,,,,j,red,6035a9101015046a77be27b2,2021-09-27_17h30.38.283,forced_choiceRT_color,2021.2.3,Win32,60.70908208,,,,,,,,7,Ontime,long,j,1,1.9888,7,1,29,2,1,,,,,
,0.38,,,,,,,,,k,purple,6035a9101015046a77be27b2,2021-09-27_17h30.38.283,forced_choiceRT_color,2021.2.3,Win32,60.70908208,,,,,,,,7,Ontime,long,k,1,2.0189,7,2,30,3,1,,,,,
,1.34,,,,,,,,,j,red,6035a9101015046a77be27b2,2021-09-27_17h30.38.283,forced_choiceRT_color,2021.2.3,Win32,60.70908208,,,,,,,,7,Slow,long,j,1,2.1593,7,3,31,2,1,,,,,
,1.07,,,,,,,,,d,orange,6035a9101015046a77be27b2,2021-09-27_17h30.38.283,forced_choiceRT_color,2021.2.3,Win32,60.70908208,,,,,,,,7,Slow,long,d,1,2.184,8,0,32,0,1,,,,,
,0.22,,,,,,,,,d,orange,6035a9101015046a77be27b2,2021-09-27_17h30.38.283,forced_choiceRT_color,2021.2.3,Win32,60.70908208,,,,,,,,7,Ontime,long,d,1,1.999,8,1,33,0,1,,,,,
,0.08,,,,,,,,,f,blue,6035a9101015046a77be27b2,2021-09-27_17h30.38.283,forced_choiceRT_color,2021.2.3,Win32,60.70908208,,,,,,,,7,Ontime,long,f,1,1.9531,8,2,34,1,1,,,,,
,1.35,,,,,,,,,k,purple,6035a9101015046a77be27b2,2021-09-27_17h30.38.283,forced_choiceRT_color,2021.2.3,Win32,60.70908208,,,,,,,,7,Ontime,long,k,1,1.9374,8,3,35,3,1,,,,,
,1.38,,,,,,,,,k,purple,6035a9101015046a77be27b2,2021-09-27_17h30.38.283,forced_choiceRT_color,2021.2.3,Win32,60.70908208,,,,,,,,7,Ontime,long,k,1,2.0719,9,0,36,3,1,,,,,
,1.25,,,,,,,,,d,orange,6035a9101015046a77be27b2,2021-09-27_17h30.38.283,forced_choiceRT_color,2021.2.3,Win32,60.70908208,,,,,,,,7,Ontime,long,f,0,2.0199,9,1,37,0,1,,,,,
,0.1,,,,,,,,,d,orange,6035a9101015046a77be27b2,2021-09-27_17h30.38.283,forced_choiceRT_color,2021.2.3,Win32,60.70908208,,,,,,,,7,Ontime,long,d,1,2.0617,9,2,38,0,1,,,,,
,0.02,,,,,,,,,f,blue,6035a9101015046a77be27b2,2021-09-27_17h30.38.283,forced_choiceRT_color,2021.2.3,Win32,60.70908208,,,,,,,,7,Slow,long,f,1,2.1032,9,3,39,1,1,,,,,
,,,,,,,,,,,,6035a9101015046a77be27b2,2021-09-27_17h30.38.283,forced_choiceRT_color,2021.2.3,Win32,60.70908208,,,,,,,,,,,,,,,,,,,6,0,6,0,1
,0.21,,,,,,,,,k,purple,6035a9101015046a77be27b2,2021-09-27_17h30.38.283,forced_choiceRT_color,2021.2.3,Win32,60.70908208,,,,,,,,8,Ontime,long,k,1,2.0148,0,0,0,3,1,,,,,
,0.93,,,,,,,,,k,purple,6035a9101015046a77be27b2,2021-09-27_17h30.38.283,forced_choiceRT_color,2021.2.3,Win32,60.70908208,,,,,,,,8,Ontime,long,k,1,2.0526,0,1,1,3,1,,,,,
,1.48,,,,,,,,,f,blue,6035a9101015046a77be27b2,2021-09-27_17h30.38.283,forced_choiceRT_color,2021.2.3,Win32,60.70908208,,,,,,,,8,Slow,long,f,1,2.1356,0,2,2,1,1,,,,,
,0.52,,,,,,,,,k,purple,6035a9101015046a77be27b2,2021-09-27_17h30.38.283,forced_choiceRT_color,2021.2.3,Win32,60.70908208,,,,,,,,8,Ontime,long,k,1,1.9992,0,3,3,3,1,,,,,
,0.47,,,,,,,,,k,purple,6035a9101015046a77be27b2,2021-09-27_17h30.38.283,forced_choiceRT_color,2021.2.3,Win32,60.70908208,,,,,,,,8,Ontime,long,k,1,1.9439,1,0,4,3,1,,,,,
,0.71,,,,,,,,,j,red,6035a9101015046a77be27b2,2021-09-27_17h30.38.283,forced_choiceRT_color,2021.2.3,Win32,60.70908208,,,,,,,,8,Ontime,long,j,1,1.9645,1,1,5,2,1,,,,,
,0.25,,,,,,,,,d,orange,6035a9101015046a77be27b2,2021-09-27_17h30.38.283,forced_choiceRT_color,2021.2.3,Win32,60.70908208,,,,,,,,8,Ontime,long,d,1,1.9652,1,2,6,0,1,,,,,
,1.06,,,,,,,,,f,blue,6035a9101015046a77be27b2,2021-09-27_17h30.38.283,forced_choiceRT_color,2021.2.3,Win32,60.70908208,,,,,,,,8,Ontime,long,f,1,2.0544,1,3,7,1,1,,,,,
,0.32,,,,,,,,,d,orange,6035a9101015046a77be27b2,2021-09-27_17h30.38.283,forced_choiceRT_color,2021.2.3,Win32,60.70908208,,,,,,,,8,Ontime,long,d,1,2.0272,2,0,8,0,1,,,,,
,1.26,,,,,,,,,d,orange,6035a9101015046a77be27b2,2021-09-27_17h30.38.283,forced_choiceRT_color,2021.2.3,Win32,60.70908208,,,,,,,,8,Ontime,long,d,1,2.0411,2,1,9,0,1,,,,,
,0.96,,,,,,,,,k,purple,6035a9101015046a77be27b2,2021-09-27_17h30.38.283,forced_choiceRT_color,2021.2.3,Win32,60.70908208,,,,,,,,8,Ontime,long,k,1,2.0705,2,2,10,3,1,,,,,
,1,,,,,,,,,d,orange,6035a9101015046a77be27b2,2021-09-27_17h30.38.283,forced_choiceRT_color,2021.2.3,Win32,60.70908208,,,,,,,,8,Ontime,long,d,1,2.0371,2,3,11,0,1,,,,,
,0.99,,,,,,,,,j,red,6035a9101015046a77be27b2,2021-09-27_17h30.38.283,forced_choiceRT_color,2021.2.3,Win32,60.70908208,,,,,,,,8,Ontime,long,j,1,1.9927,3,0,12,2,1,,,,,
,0.16,,,,,,,,,k,purple,6035a9101015046a77be27b2,2021-09-27_17h30.38.283,forced_choiceRT_color,2021.2.3,Win32,60.70908208,,,,,,,,8,Ontime,long,k,1,1.9928,3,1,13,3,1,,,,,
,0.83,,,,,,,,,f,blue,6035a9101015046a77be27b2,2021-09-27_17h30.38.283,forced_choiceRT_color,2021.2.3,Win32,60.70908208,,,,,,,,8,Fast,long,f,1,1.8937,3,2,14,1,1,,,,,
,1.04,,,,,,,,,d,orange,6035a9101015046a77be27b2,2021-09-27_17h30.38.283,forced_choiceRT_color,2021.2.3,Win32,60.70908208,,,,,,,,8,Ontime,long,d,1,2.0203,3,3,15,0,1,,,,,
,0.58,,,,,,,,,f,blue,6035a9101015046a77be27b2,2021-09-27_17h30.38.283,forced_choiceRT_color,2021.2.3,Win32,60.70908208,,,,,,,,8,Ontime,long,f,1,2.0902,4,0,16,1,1,,,,,
,0.94,,,,,,,,,j,red,6035a9101015046a77be27b2,2021-09-27_17h30.38.283,forced_choiceRT_color,2021.2.3,Win32,60.70908208,,,,,,,,8,Ontime,long,j,1,2.0958,4,1,17,2,1,,,,,
,1.52,,,,,,,,,f,blue,6035a9101015046a77be27b2,2021-09-27_17h30.38.283,forced_choiceRT_color,2021.2.3,Win32,60.70908208,,,,,,,,8,Slow,long,f,1,2.1134,4,2,18,1,1,,,,,
,0.3,,,,,,,,,k,purple,6035a9101015046a77be27b2,2021-09-27_17h30.38.283,forced_choiceRT_color,2021.2.3,Win32,60.70908208,,,,,,,,8,Ontime,long,k,1,1.9726,4,3,19,3,1,,,,,
,1.9,,,,,,,,,f,blue,6035a9101015046a77be27b2,2021-09-27_17h30.38.283,forced_choiceRT_color,2021.2.3,Win32,60.70908208,,,,,,,,8,Ontime,long,d,0,2.0536,5,0,20,1,1,,,,,
,0.87,,,,,,,,,f,blue,6035a9101015046a77be27b2,2021-09-27_17h30.38.283,forced_choiceRT_color,2021.2.3,Win32,60.70908208,,,,,,,,8,Ontime,long,f,1,1.982,5,1,21,1,1,,,,,
,1.33,,,,,,,,,k,purple,6035a9101015046a77be27b2,2021-09-27_17h30.38.283,forced_choiceRT_color,2021.2.3,Win32,60.70908208,,,,,,,,8,Ontime,long,k,1,2.0527,5,2,22,3,1,,,,,
,0.19,,,,,,,,,j,red,6035a9101015046a77be27b2,2021-09-27_17h30.38.283,forced_choiceRT_color,2021.2.3,Win32,60.70908208,,,,,,,,8,Ontime,long,j,1,2.0033,5,3,23,2,1,,,,,
,0.48,,,,,,,,,j,red,6035a9101015046a77be27b2,2021-09-27_17h30.38.283,forced_choiceRT_color,2021.2.3,Win32,60.70908208,,,,,,,,8,Ontime,long,j,1,1.9951,6,0,24,2,1,,,,,
,0.24,,,,,,,,,d,orange,6035a9101015046a77be27b2,2021-09-27_17h30.38.283,forced_choiceRT_color,2021.2.3,Win32,60.70908208,,,,,,,,8,Ontime,long,d,1,2.0968,6,1,25,0,1,,,,,
,0.35,,,,,,,,,j,red,6035a9101015046a77be27b2,2021-09-27_17h30.38.283,forced_choiceRT_color,2021.2.3,Win32,60.70908208,,,,,,,,8,Ontime,long,j,1,2.0797,6,2,26,2,1,,,,,
,0.02,,,,,,,,,j,red,6035a9101015046a77be27b2,2021-09-27_17h30.38.283,forced_choiceRT_color,2021.2.3,Win32,60.70908208,,,,,,,,8,Slow,long,j,1,2.1135,6,3,27,2,1,,,,,
,0.56,,,,,,,,,f,blue,6035a9101015046a77be27b2,2021-09-27_17h30.38.283,forced_choiceRT_color,2021.2.3,Win32,60.70908208,,,,,,,,8,Ontime,long,f,1,2.0721,7,0,28,1,1,,,,,
,0.89,,,,,,,,,k,purple,6035a9101015046a77be27b2,2021-09-27_17h30.38.283,forced_choiceRT_color,2021.2.3,Win32,60.70908208,,,,,,,,8,Slow,long,k,1,2.117,7,1,29,3,1,,,,,
,1.55,,,,,,,,,j,red,6035a9101015046a77be27b2,2021-09-27_17h30.38.283,forced_choiceRT_color,2021.2.3,Win32,60.70908208,,,,,,,,8,Ontime,long,j,1,2.0912,7,2,30,2,1,,,,,
,0.23,,,,,,,,,d,orange,6035a9101015046a77be27b2,2021-09-27_17h30.38.283,forced_choiceRT_color,2021.2.3,Win32,60.70908208,,,,,,,,8,Ontime,long,d,1,2.0599,7,3,31,0,1,,,,,
,1.75,,,,,,,,,j,red,6035a9101015046a77be27b2,2021-09-27_17h30.38.283,forced_choiceRT_color,2021.2.3,Win32,60.70908208,,,,,,,,8,Ontime,long,k,0,2.0412,8,0,32,2,1,,,,,
,0.42,,,,,,,,,d,orange,6035a9101015046a77be27b2,2021-09-27_17h30.38.283,forced_choiceRT_color,2021.2.3,Win32,60.70908208,,,,,,,,8,Ontime,long,d,1,2.0324,8,1,33,0,1,,,,,
,1.33,,,,,,,,,d,orange,6035a9101015046a77be27b2,2021-09-27_17h30.38.283,forced_choiceRT_color,2021.2.3,Win32,60.70908208,,,,,,,,8,Ontime,long,d,1,1.977,8,2,34,0,1,,,,,
,1.13,,,,,,,,,j,red,6035a9101015046a77be27b2,2021-09-27_17h30.38.283,forced_choiceRT_color,2021.2.3,Win32,60.70908208,,,,,,,,8,Ontime,long,j,1,1.9025,8,3,35,2,1,,,,,
,1.19,,,,,,,,,k,purple,6035a9101015046a77be27b2,2021-09-27_17h30.38.283,forced_choiceRT_color,2021.2.3,Win32,60.70908208,,,,,,,,8,Ontime,long,k,1,1.9784,9,0,36,3,1,,,,,
,1.62,,,,,,,,,f,blue,6035a9101015046a77be27b2,2021-09-27_17h30.38.283,forced_choiceRT_color,2021.2.3,Win32,60.70908208,,,,,,,,8,Ontime,long,j,0,2.0631,9,1,37,1,1,,,,,
,1.57,,,,,,,,,f,blue,6035a9101015046a77be27b2,2021-09-27_17h30.38.283,forced_choiceRT_color,2021.2.3,Win32,60.70908208,,,,,,,,8,Ontime,long,j,0,2.0811,9,2,38,1,1,,,,,
,0.91,,,,,,,,,d,orange,6035a9101015046a77be27b2,2021-09-27_17h30.38.283,forced_choiceRT_color,2021.2.3,Win32,60.70908208,,,,,,,,8,Fast,long,d,1,1.877,9,3,39,0,1,,,,,
,,,,,,,,,,,,6035a9101015046a77be27b2,2021-09-27_17h30.38.283,forced_choiceRT_color,2021.2.3,Win32,60.70908208,,,,,,,,,,,,,,,,,,,7,0,7,0,1
,1.71,,,,,,,,,k,purple,6035a9101015046a77be27b2,2021-09-27_17h30.38.283,forced_choiceRT_color,2021.2.3,Win32,60.70908208,,,,,,,,9,Ontime,long,d,0,2.0111,0,0,0,3,1,,,,,
,1.79,,,,,,,,,d,orange,6035a9101015046a77be27b2,2021-09-27_17h30.38.283,forced_choiceRT_color,2021.2.3,Win32,60.70908208,,,,,,,,9,Slow,long,d,1,2.3628,0,1,1,0,1,,,,,
,1.98,,,,,,,,,d,orange,6035a9101015046a77be27b2,2021-09-27_17h30.38.283,forced_choiceRT_color,2021.2.3,Win32,60.70908208,,,,,,,,9,Slow,long,k,0,2.3145,0,2,2,0,1,,,,,
,0.15,,,,,,,,,k,purple,6035a9101015046a77be27b2,2021-09-27_17h30.38.283,forced_choiceRT_color,2021.2.3,Win32,60.70908208,,,,,,,,9,Ontime,long,k,1,2.0333,0,3,3,3,1,,,,,
,1.23,,,,,,,,,k,purple,6035a9101015046a77be27b2,2021-09-27_17h30.38.283,forced_choiceRT_color,2021.2.3,Win32,60.70908208,,,,,,,,9,Ontime,long,k,1,2.0359,1,0,4,3,1,,,,,
,0.95,,,,,,,,,k,purple,6035a9101015046a77be27b2,2021-09-27_17h30.38.283,forced_choiceRT_color,2021.2.3,Win32,60.70908208,,,,,,,,9,Ontime,long,k,1,1.9862,1,1,5,3,1,,,,,
,1.7,,,,,,,,,k,purple,6035a9101015046a77be27b2,2021-09-27_17h30.38.283,forced_choiceRT_color,2021.2.3,Win32,60.70908208,,,,,,,,9,Slow,long,k,1,2.1448,1,2,6,3,1,,,,,
,0.79,,,,,,,,,f,blue,6035a9101015046a77be27b2,2021-09-27_17h30.38.283,forced_choiceRT_color,2021.2.3,Win32,60.70908208,,,,,,,,9,Ontime,long,f,1,2.0779,1,3,7,1,1,,,,,
,0.84,,,,,,,,,j,red,6035a9101015046a77be27b2,2021-09-27_17h30.38.283,forced_choiceRT_color,2021.2.3,Win32,60.70908208,,,,,,,,9,Ontime,long,j,1,1.9959,2,0,8,2,1,,,,,
,1.97,,,,,,,,,j,red,6035a9101015046a77be27b2,2021-09-27_17h30.38.283,forced_choiceRT_color,2021.2.3,Win32,60.70908208,,,,,,,,9,Slow,long,j,1,2.6316,2,1,9,2,1,,,,,
,0,,,,,,,,,k,purple,6035a9101015046a77be27b2,2021-09-27_17h30.38.283,forced_choiceRT_color,2021.2.3,Win32,60.70908208,,,,,,,,9,Slow,long,k,1,2.2035,2,2,10,3,1,,,,,
,0.89,,,,,,,,,f,blue,6035a9101015046a77be27b2,2021-09-27_17h30.38.283,forced_choiceRT_color,2021.2.3,Win32,60.70908208,,,,,,,,9,Ontime,long,f,1,2.0404,2,3,11,1,1,,,,,
,0.31,,,,,,,,,j,red,6035a9101015046a77be27b2,2021-09-27_17h30.38.283,forced_choiceRT_color,2021.2.3,Win32,60.70908208,,,,,,,,9,Ontime,long,j,1,2.0095,3,0,12,2,1,,,,,
,0.19,,,,,,,,,f,blue,6035a9101015046a77be27b2,2021-09-27_17h30.38.283,forced_choiceRT_color,2021.2.3,Win32,60.70908208,,,,,,,,9,Ontime,long,f,1,2.0123,3,1,13,1,1,,,,,
,1.47,,,,,,,,,j,red,6035a9101015046a77be27b2,2021-09-27_17h30.38.283,forced_choiceRT_color,2021.2.3,Win32,60.70908208,,,,,,,,9,Slow,long,f,0,2.1076,3,2,14,2,1,,,,,
,1.8,,,,,,,,,j,red,6035a9101015046a77be27b2,2021-09-27_17h30.38.283,forced_choiceRT_color,2021.2.3,Win32,60.70908208,,,,,,,,9,Slow,long,f,0,2.3139,3,3,15,2,1,,,,,
,1.4,,,,,,,,,d,orange,6035a9101015046a77be27b2,2021-09-27_17h30.38.283,forced_choiceRT_color,2021.2.3,Win32,60.70908208,,,,,,,,9,Ontime,long,d,1,1.9793,4,0,16,0,1,,,,,
,0.99,,,,,,,,,d,orange,6035a9101015046a77be27b2,2021-09-27_17h30.38.283,forced_choiceRT_color,2021.2.3,Win32,60.70908208,,,,,,,,9,Ontime,long,d,1,2.0465,4,1,17,0,1,,,,,
,0.06,,,,,,,,,f,blue,6035a9101015046a77be27b2,2021-09-27_17h30.38.283,forced_choiceRT_color,2021.2.3,Win32,60.70908208,,,,,,,,9,Ontime,long,f,1,2.056,4,2,18,1,1,,,,,
,1.65,,,,,,,,,j,red,6035a9101015046a77be27b2,2021-09-27_17h30.38.283,forced_choiceRT_color,2021.2.3,Win32,60.70908208,,,,,,,,9,Slow,long,f,0,2.1734,4,3,19,2,1,,,,,
,1.93,,,,,,,,,k,purple,6035a9101015046a77be27b2,2021-09-27_17h30.38.283,forced_choiceRT_color,2021.2.3,Win32,60.70908208,,,,,,,,9,Slow,long,f,0,2.1467,5,0,20,3,1,,,,,
,1.2,,,,,,,,,j,red,6035a9101015046a77be27b2,2021-09-27_17h30.38.283,forced_choiceRT_color,2021.2.3,Win32,60.70908208,,,,,,,,9,Ontime,long,f,0,1.9072,5,1,21,2,1,,,,,
,1.06,,,,,,,,,d,orange,6035a9101015046a77be27b2,2021-09-27_17h30.38.283,forced_choiceRT_color,2021.2.3,Win32,60.70908208,,,,,,,,9,Ontime,long,d,1,1.9806,5,2,22,0,1,,,,,
,0.92,,,,,,,,,d,orange,6035a9101015046a77be27b2,2021-09-27_17h30.38.283,forced_choiceRT_color,2021.2.3,Win32,60.70908208,,,,,,,,9,Ontime,long,d,1,1.9132,5,3,23,0,1,,,,,
,0.73,,,,,,,,,j,red,6035a9101015046a77be27b2,2021-09-27_17h30.38.283,forced_choiceRT_color,2021.2.3,Win32,60.70908208,,,,,,,,9,Ontime,long,j,1,2.032,6,0,24,2,1,,,,,
,0.37,,,,,,,,,f,blue,6035a9101015046a77be27b2,2021-09-27_17h30.38.283,forced_choiceRT_color,2021.2.3,Win32,60.70908208,,,,,,,,9,Ontime,long,f,1,2.0398,6,1,25,1,1,,,,,
,0.75,,,,,,,,,k,purple,6035a9101015046a77be27b2,2021-09-27_17h30.38.283,forced_choiceRT_color,2021.2.3,Win32,60.70908208,,,,,,,,9,Slow,long,k,1,2.1035,6,2,26,3,1,,,,,
,0.52,,,,,,,,,d,orange,6035a9101015046a77be27b2,2021-09-27_17h30.38.283,forced_choiceRT_color,2021.2.3,Win32,60.70908208,,,,,,,,9,Ontime,long,d,1,2.025,6,3,27,0,1,,,,,
,0.37,,,,,,,,,d,orange,6035a9101015046a77be27b2,2021-09-27_17h30.38.283,forced_choiceRT_color,2021.2.3,Win32,60.70908208,,,,,,,,9,Ontime,long,d,1,2.0192,7,0,28,0,1,,,,,
,1.64,,,,,,,,,d,orange,6035a9101015046a77be27b2,2021-09-27_17h30.38.283,forced_choiceRT_color,2021.2.3,Win32,60.70908208,,,,,,,,9,Slow,long,d,1,2.1097,7,1,29,0,1,,,,,
,1.68,,,,,,,,,k,purple,6035a9101015046a77be27b2,2021-09-27_17h30.38.283,forced_choiceRT_color,2021.2.3,Win32,60.70908208,,,,,,,,9,Slow,long,k,1,2.2811,7,2,30,3,1,,,,,
,0.18,,,,,,,,,f,blue,6035a9101015046a77be27b2,2021-09-27_17h30.38.283,forced_choiceRT_color,2021.2.3,Win32,60.70908208,,,,,,,,9,Ontime,long,f,1,2.0616,7,3,31,1,1,,,,,
,0.41,,,,,,,,,j,red,6035a9101015046a77be27b2,2021-09-27_17h30.38.283,forced_choiceRT_color,2021.2.3,Win32,60.70908208,,,,,,,,9,Ontime,long,j,1,2.093,8,0,32,2,1,,,,,
,1.41,,,,,,,,,j,red,6035a9101015046a77be27b2,2021-09-27_17h30.38.283,forced_choiceRT_color,2021.2.3,Win32,60.70908208,,,,,,,,9,Slow,long,j,1,2.1311,8,1,33,2,1,,,,,
,1.63,,,,,,,,,f,blue,6035a9101015046a77be27b2,2021-09-27_17h30.38.283,forced_choiceRT_color,2021.2.3,Win32,60.70908208,,,,,,,,9,Slow,long,j,0,2.1805,8,2,34,1,1,,,,,
,1.85,,,,,,,,,k,purple,6035a9101015046a77be27b2,2021-09-27_17h30.38.283,forced_choiceRT_color,2021.2.3,Win32,60.70908208,,,,,,,,9,Ontime,long,k,1,2.0618,8,3,35,3,1,,,,,
,0.44,,,,,,,,,f,blue,6035a9101015046a77be27b2,2021-09-27_17h30.38.283,forced_choiceRT_color,2021.2.3,Win32,60.70908208,,,,,,,,9,Fast,long,f,1,1.8864,9,0,36,1,1,,,,,
,1.68,,,,,,,,,d,orange,6035a9101015046a77be27b2,2021-09-27_17h30.38.283,forced_choiceRT_color,2021.2.3,Win32,60.70908208,,,,,,,,9,Ontime,long,d,1,2.0038,9,1,37,0,1,,,,,
,1.81,,,,,,,,,f,blue,6035a9101015046a77be27b2,2021-09-27_17h30.38.283,forced_choiceRT_color,2021.2.3,Win32,60.70908208,,,,,,,,9,Ontime,long,k,0,2.0944,9,2,38,1,1,,,,,
,1.76,,,,,,,,,f,blue,6035a9101015046a77be27b2,2021-09-27_17h30.38.283,forced_choiceRT_color,2021.2.3,Win32,60.70908208,,,,,,,,9,Slow,long,k,0,2.1867,9,3,39,1,1,,,,,
,,,,,,,,,,,,6035a9101015046a77be27b2,2021-09-27_17h30.38.283,forced_choiceRT_color,2021.2.3,Win32,60.70908208,,,,,,,,,,,,,,,,,,,8,0,8,0,1
,1.59,,,,,,,,,f,blue,6035a9101015046a77be27b2,2021-09-27_17h30.38.283,forced_choiceRT_color,2021.2.3,Win32,60.70908208,,,,,,,,10,Slow,long,f,1,2.1674,0,0,0,1,1,,,,,
,0.59,,,,,,,,,j,red,6035a9101015046a77be27b2,2021-09-27_17h30.38.283,forced_choiceRT_color,2021.2.3,Win32,60.70908208,,,,,,,,10,Ontime,long,j,1,2.0121,0,1,1,2,1,,,,,
,1.64,,,,,,,,,j,red,6035a9101015046a77be27b2,2021-09-27_17h30.38.283,forced_choiceRT_color,2021.2.3,Win32,60.70908208,,,,,,,,10,Ontime,long,k,0,1.985,0,2,2,2,1,,,,,
,0.16,,,,,,,,,d,orange,6035a9101015046a77be27b2,2021-09-27_17h30.38.283,forced_choiceRT_color,2021.2.3,Win32,60.70908208,,,,,,,,10,Ontime,long,d,1,2.0023,0,3,3,0,1,,,,,
,0.46,,,,,,,,,j,red,6035a9101015046a77be27b2,2021-09-27_17h30.38.283,forced_choiceRT_color,2021.2.3,Win32,60.70908208,,,,,,,,10,Ontime,long,j,1,1.9994,1,0,4,2,1,,,,,
,0.91,,,,,,,,,d,orange,6035a9101015046a77be27b2,2021-09-27_17h30.38.283,forced_choiceRT_color,2021.2.3,Win32,60.70908208,,,,,,,,10,Ontime,long,d,1,1.987,1,1,5,0,1,,,,,
,1.66,,,,,,,,,k,purple,6035a9101015046a77be27b2,2021-09-27_17h30.38.283,forced_choiceRT_color,2021.2.3,Win32,60.70908208,,,,,,,,10,Slow,long,j,0,2.1066,1,2,6,3,1,,,,,
,0.95,,,,,,,,,k,purple,6035a9101015046a77be27b2,2021-09-27_17h30.38.283,forced_choiceRT_color,2021.2.3,Win32,60.70908208,,,,,,,,10,Ontime,long,k,1,2.0146,1,3,7,3,1,,,,,
,0.62,,,,,,,,,f,blue,6035a9101015046a77be27b2,2021-09-27_17h30.38.283,forced_choiceRT_color,2021.2.3,Win32,60.70908208,,,,,,,,10,Ontime,long,f,1,2.013,2,0,8,1,1,,,,,
,0.02,,,,,,,,,d,orange,6035a9101015046a77be27b2,2021-09-27_17h30.38.283,forced_choiceRT_color,2021.2.3,Win32,60.70908208,,,,,,,,10,Ontime,long,d,1,2.0523,2,1,9,0,1,,,,,
,1.56,,,,,,,,,k,purple,6035a9101015046a77be27b2,2021-09-27_17h30.38.283,forced_choiceRT_color,2021.2.3,Win32,60.70908208,,,,,,,,10,Ontime,long,k,1,2.0395,2,2,10,3,1,,,,,
,0.12,,,,,,,,,k,purple,6035a9101015046a77be27b2,2021-09-27_17h30.38.283,forced_choiceRT_color,2021.2.3,Win32,60.70908208,,,,,,,,10,Ontime,long,k,1,2.0868,2,3,11,3,1,,,,,
,0.71,,,,,,,,,k,purple,6035a9101015046a77be27b2,2021-09-27_17h30.38.283,forced_choiceRT_color,2021.2.3,Win32,60.70908208,,,,,,,,10,Ontime,long,k,1,1.9974,3,0,12,3,1,,,,,
,0.97,,,,,,,,,d,orange,6035a9101015046a77be27b2,2021-09-27_17h30.38.283,forced_choiceRT_color,2021.2.3,Win32,60.70908208,,,,,,,,10,Ontime,long,d,1,1.9128,3,1,13,0,1,,,,,
,1.01,,,,,,,,,f,blue,6035a9101015046a77be27b2,2021-09-27_17h30.38.283,forced_choiceRT_color,2021.2.3,Win32,60.70908208,,,,,,,,10,Ontime,long,f,1,1.9522,3,2,14,1,1,,,,,
,1.91,,,,,,,,,j,red,6035a9101015046a77be27b2,2021-09-27_17h30.38.283,forced_choiceRT_color,2021.2.3,Win32,60.70908208,,,,,,,,10,Ontime,long,k,0,2.0969,3,3,15,2,1,,,,,
,0,,,,,,,,,j,red,6035a9101015046a77be27b2,2021-09-27_17h30.38.283,forced_choiceRT_color,2021.2.3,Win32,60.70908208,,,,,,,,10,Ontime,long,j,1,2.0151,4,0,16,2,1,,,,,
,0.68,,,,,,,,,j,red,6035a9101015046a77be27b2,2021-09-27_17h30.38.283,forced_choiceRT_color,2021.2.3,Win32,60.70908208,,,,,,,,10,Slow,long,j,1,2.1146,4,1,17,2,1,,,,,
,0.36,,,,,,,,,f,blue,6035a9101015046a77be27b2,2021-09-27_17h30.38.283,forced_choiceRT_color,2021.2.3,Win32,60.70908208,,,,,,,,10,Ontime,long,f,1,1.9448,4,2,18,1,1,,,,,
,1.66,,,,,,,,,k,purple,6035a9101015046a77be27b2,2021-09-27_17h30.38.283,forced_choiceRT_color,2021.2.3,Win32,60.70908208,,,,,,,,10,Slow,long,k,1,2.1858,4,3,19,3,1,,,,,
,1.98,,,,,,,,,f,blue,6035a9101015046a77be27b2,2021-09-27_17h30.38.283,forced_choiceRT_color,2021.2.3,Win32,60.70908208,,,,,,,,10,Slow,long,k,0,2.2076,5,0,20,1,1,,,,,
,0.97,,,,,,,,,k,purple,6035a9101015046a77be27b2,2021-09-27_17h30.38.283,forced_choiceRT_color,2021.2.3,Win32,60.70908208,,,,,,,,10,Ontime,long,k,1,2.0128,5,1,21,3,1,,,,,
,1.3,,,,,,,,,j,red,6035a9101015046a77be27b2,2021-09-27_17h30.38.283,forced_choiceRT_color,2021.2.3,Win32,60.70908208,,,,,,,,10,Ontime,long,f,0,1.9926,5,2,22,2,1,,,,,
,0.29,,,,,,,,,d,orange,6035a9101015046a77be27b2,2021-09-27_17h30.38.283,forced_choiceRT_color,2021.2.3,Win32,60.70908208,,,,,,,,10,Ontime,long,d,1,2.028,5,3,23,0,1,,,,,
,0.58,,,,,,,,,d,orange,6035a9101015046a77be27b2,2021-09-27_17h30.38.283,forced_choiceRT_color,2021.2.3,Win32,60.70908208,,,,,,,,10,Ontime,long,d,1,2.0099,6,0,24,0,1,,,,,
,0.72,,,,,,,,,k,purple,6035a9101015046a77be27b2,2021-09-27_17h30.38.283,forced_choiceRT_color,2021.2.3,Win32,60.70908208,,,,,,,,10,Ontime,long,k,1,1.9859,6,1,25,3,1,,,,,
,1.81,,,,,,,,,f,blue,6035a9101015046a77be27b2,2021-09-27_17h30.38.283,forced_choiceRT_color,2021.2.3,Win32,60.70908208,,,,,,,,10,Ontime,long,k,0,2.0646,6,2,26,1,1,,,,,
,1.08,,,,,,,,,j,red,6035a9101015046a77be27b2,2021-09-27_17h30.38.283,forced_choiceRT_color,2021.2.3,Win32,60.70908208,,,,,,,,10,Ontime,long,j,1,2.003,6,3,27,2,1,,,,,
,0.63,,,,,,,,,d,orange,6035a9101015046a77be27b2,2021-09-27_17h30.38.283,forced_choiceRT_color,2021.2.3,Win32,60.70908208,,,,,,,,10,Ontime,long,d,1,1.9572,7,0,28,0,1,,,,,
,1.69,,,,,,,,,k,purple,6035a9101015046a77be27b2,2021-09-27_17h30.38.283,forced_choiceRT_color,2021.2.3,Win32,60.70908208,,,,,,,,10,Slow,long,k,1,2.1905,7,1,29,3,1,,,,,
,1.59,,,,,,,,,k,purple,6035a9101015046a77be27b2,2021-09-27_17h30.38.283,forced_choiceRT_color,2021.2.3,Win32,60.70908208,,,,,,,,10,Ontime,long,k,1,2.0592,7,2,30,3,1,,,,,
,1.59,,,,,,,,,d,orange,6035a9101015046a77be27b2,2021-09-27_17h30.38.283,forced_choiceRT_color,2021.2.3,Win32,60.70908208,,,,,,,,10,Slow,long,d,1,2.1414,7,3,31,0,1,,,,,
,1.34,,,,,,,,,f,blue,6035a9101015046a77be27b2,2021-09-27_17h30.38.283,forced_choiceRT_color,2021.2.3,Win32,60.70908208,,,,,,,,10,Fast,long,f,1,1.8753,8,0,32,1,1,,,,,
,1.51,,,,,,,,,f,blue,6035a9101015046a77be27b2,2021-09-27_17h30.38.283,forced_choiceRT_color,2021.2.3,Win32,60.70908208,,,,,,,,10,Ontime,long,k,0,1.9732,8,1,33,1,1,,,,,
,0.64,,,,,,,,,j,red,6035a9101015046a77be27b2,2021-09-27_17h30.38.283,forced_choiceRT_color,2021.2.3,Win32,60.70908208,,,,,,,,10,Ontime,long,j,1,1.9365,8,2,34,2,1,,,,,
,0.06,,,,,,,,,d,orange,6035a9101015046a77be27b2,2021-09-27_17h30.38.283,forced_choiceRT_color,2021.2.3,Win32,60.70908208,,,,,,,,10,Ontime,long,d,1,2.0032,8,3,35,0,1,,,,,
,1.38,,,,,,,,,f,blue,6035a9101015046a77be27b2,2021-09-27_17h30.38.283,forced_choiceRT_color,2021.2.3,Win32,60.70908208,,,,,,,,10,Ontime,long,f,1,1.9915,9,0,36,1,1,,,,,
,1.74,,,,,,,,,j,red,6035a9101015046a77be27b2,2021-09-27_17h30.38.283,forced_choiceRT_color,2021.2.3,Win32,60.70908208,,,,,,,,10,Slow,long,f,0,2.2043,9,1,37,2,1,,,,,
,1.87,,,,,,,,,d,orange,6035a9101015046a77be27b2,2021-09-27_17h30.38.283,forced_choiceRT_color,2021.2.3,Win32,60.70908208,,,,,,,,10,Ontime,long,j,0,2.0869,9,2,38,0,1,,,,,
,0.08,,,,,,,,,f,blue,6035a9101015046a77be27b2,2021-09-27_17h30.38.283,forced_choiceRT_color,2021.2.3,Win32,60.70908208,,,,,,,,10,Ontime,long,j,0,1.9525,9,3,39,1,1,,,,,
,,,,,,,,,,,,6035a9101015046a77be27b2,2021-09-27_17h30.38.283,forced_choiceRT_color,2021.2.3,Win32,60.70908208,,,,,,,,,,,,,,,,,,,9,0,9,0,1
